mstime	trial_type	stim_file	subject	experiment	session	trial	task	item_name	item_num	recog_conf	resp	color_b	color_g	color_r	case	font
0	SESS_START	n/a	LTP209	ltpFR	5	n/a	n/a	n/a	n/a	5	n/a	n/a	n/a	n/a	n/a	n/a
52614	WORD	wordpools/wasnorm_wordpool_less_exclusions.txt	LTP209	ltpFR	5	1	1	BREAD	170	n/a	0	0	0.5869140625	0.422607421875	upper	../fonts/amplitud.ttf
56708	WORD	wordpools/wasnorm_wordpool_less_exclusions.txt	LTP209	ltpFR	5	1	1	SENATE	1267	n/a	0	0	0.5869140625	0.422607421875	upper	../fonts/amplitud.ttf
60602	WORD	wordpools/wasnorm_wordpool_less_exclusions.txt	LTP209	ltpFR	5	1	1	BANK	83	n/a	0	0	0.5869140625	0.422607421875	upper	../fonts/amplitud.ttf
64513	WORD	wordpools/wasnorm_wordpool_less_exclusions.txt	LTP209	ltpFR	5	1	0	CASHIER	254	n/a	1	1	0.412841796875	0.57763671875	lower	../fonts/zerothre.ttf
68408	WORD	wordpools/wasnorm_wordpool_less_exclusions.txt	LTP209	ltpFR	5	1	0	GROCERIES	663	n/a	0	1	0.412841796875	0.57763671875	lower	../fonts/zerothre.ttf
72568	WORD	wordpools/wasnorm_wordpool_less_exclusions.txt	LTP209	ltpFR	5	1	0	TOASTER	1472	n/a	0	1	0.412841796875	0.57763671875	lower	../fonts/zerothre.ttf
76545	WORD	wordpools/wasnorm_wordpool_less_exclusions.txt	LTP209	ltpFR	5	1	0	CREAM	402	n/a	0	1	0.412841796875	0.57763671875	lower	../fonts/zerothre.ttf
80407	WORD	wordpools/wasnorm_wordpool_less_exclusions.txt	LTP209	ltpFR	5	1	1	RIB	1188	n/a	1	0	0.5869140625	0.422607421875	upper	../fonts/amplitud.ttf
84335	WORD	wordpools/wasnorm_wordpool_less_exclusions.txt	LTP209	ltpFR	5	1	1	CHAIRPERSON	275	n/a	1	0	0.5869140625	0.422607421875	upper	../fonts/amplitud.ttf
88462	WORD	wordpools/wasnorm_wordpool_less_exclusions.txt	LTP209	ltpFR	5	1	1	WATERFALL	1595	n/a	0	0	0.5869140625	0.422607421875	upper	../fonts/amplitud.ttf
92323	WORD	wordpools/wasnorm_wordpool_less_exclusions.txt	LTP209	ltpFR	5	1	0	MARINE	869	n/a	1	1	0.412841796875	0.57763671875	lower	../fonts/zerothre.ttf
96417	WORD	wordpools/wasnorm_wordpool_less_exclusions.txt	LTP209	ltpFR	5	1	0	TWINE	1529	n/a	0	1	0.412841796875	0.57763671875	lower	../fonts/zerothre.ttf
100543	WORD	wordpools/wasnorm_wordpool_less_exclusions.txt	LTP209	ltpFR	5	1	0	PUCK	1138	n/a	0	1	0.412841796875	0.57763671875	lower	../fonts/zerothre.ttf
104603	WORD	wordpools/wasnorm_wordpool_less_exclusions.txt	LTP209	ltpFR	5	1	0	REFRIGERATOR	1179	n/a	1	1	0.412841796875	0.57763671875	lower	../fonts/zerothre.ttf
108597	WORD	wordpools/wasnorm_wordpool_less_exclusions.txt	LTP209	ltpFR	5	1	1	PUMPKIN	1142	n/a	3	0	0.5869140625	0.422607421875	upper	../fonts/amplitud.ttf
110213	KEY_MSG	n/a	LTP209	ltpFR	5	1	n/a	n/a	n/a	n/a	n/a	n/a	n/a	n/a	n/a	n/a
112841	WORD	wordpools/wasnorm_wordpool_less_exclusions.txt	LTP209	ltpFR	5	1	1	MAN	862	n/a	1	0	0.5869140625	0.422607421875	upper	../fonts/amplitud.ttf
118918	REC_START	n/a	LTP209	ltpFR	5	1	n/a	n/a	n/a	n/a	n/a	n/a	n/a	n/a	n/a	n/a
120230	REC_WORD	wordpools/wasnorm_wordpool_less_exclusions.txt	LTP209	ltpFR	5	1	1	MAN	862	n/a	1	n/a	n/a	n/a	n/a	n/a
121382	REC_WORD	wordpools/wasnorm_wordpool_less_exclusions.txt	LTP209	ltpFR	5	1	1	PUMPKIN	1142	n/a	3	n/a	n/a	n/a	n/a	n/a
124740	REC_WORD	wordpools/wasnorm_wordpool_less_exclusions.txt	LTP209	ltpFR	5	1	0	CREAM	402	n/a	0	n/a	n/a	n/a	n/a	n/a
126662	REC_WORD	wordpools/wasnorm_wordpool_less_exclusions.txt	LTP209	ltpFR	5	1	0	TWINE	1529	n/a	0	n/a	n/a	n/a	n/a	n/a
136742	REC_WORD	wordpools/wasnorm_wordpool_less_exclusions.txt	LTP209	ltpFR	5	1	1	BREAD	170	n/a	0	n/a	n/a	n/a	n/a	n/a
177639	REC_WORD	wordpools/wasnorm_wordpool_less_exclusions.txt	LTP209	ltpFR	5	1	n/a	SERVICEMEN	-1	n/a	n/a	n/a	n/a	n/a	n/a	n/a
210695	WORD	wordpools/wasnorm_wordpool_less_exclusions.txt	LTP209	ltpFR	5	2	0	BERRY	122	n/a	0	1	0.412841796875	0.57763671875	lower	../fonts/zerothre.ttf
214672	WORD	wordpools/wasnorm_wordpool_less_exclusions.txt	LTP209	ltpFR	5	2	0	VAULT	1550	n/a	1	1	0.412841796875	0.57763671875	lower	../fonts/zerothre.ttf
218799	WORD	wordpools/wasnorm_wordpool_less_exclusions.txt	LTP209	ltpFR	5	2	0	RASPBERRY	1168	n/a	0	1	0.412841796875	0.57763671875	lower	../fonts/zerothre.ttf
222727	WORD	wordpools/wasnorm_wordpool_less_exclusions.txt	LTP209	ltpFR	5	2	0	TWIN	1528	n/a	1	1	0.412841796875	0.57763671875	lower	../fonts/zerothre.ttf
226821	WORD	wordpools/wasnorm_wordpool_less_exclusions.txt	LTP209	ltpFR	5	2	0	BROTHER	179	n/a	1	1	0.412841796875	0.57763671875	lower	../fonts/zerothre.ttf
230698	WORD	wordpools/wasnorm_wordpool_less_exclusions.txt	LTP209	ltpFR	5	2	0	BATHROOM	99	n/a	1	1	0.412841796875	0.57763671875	lower	../fonts/zerothre.ttf
234626	WORD	wordpools/wasnorm_wordpool_less_exclusions.txt	LTP209	ltpFR	5	2	1	STRAWBERRY	1391	n/a	1	0	0.5869140625	0.422607421875	upper	../fonts/amplitud.ttf
238819	WORD	wordpools/wasnorm_wordpool_less_exclusions.txt	LTP209	ltpFR	5	2	1	LEMON	810	n/a	1	0	0.5869140625	0.422607421875	upper	../fonts/amplitud.ttf
242914	WORD	wordpools/wasnorm_wordpool_less_exclusions.txt	LTP209	ltpFR	5	2	1	BATHTUB	100	n/a	1	0	0.5869140625	0.422607421875	upper	../fonts/amplitud.ttf
246874	WORD	wordpools/wasnorm_wordpool_less_exclusions.txt	LTP209	ltpFR	5	2	1	TOWEL	1489	n/a	0	0	0.5869140625	0.422607421875	upper	../fonts/amplitud.ttf
250919	WORD	wordpools/wasnorm_wordpool_less_exclusions.txt	LTP209	ltpFR	5	2	1	TOILET	1475	n/a	0	0	0.5869140625	0.422607421875	upper	../fonts/amplitud.ttf
254980	WORD	wordpools/wasnorm_wordpool_less_exclusions.txt	LTP209	ltpFR	5	2	0	WARRIOR	1589	n/a	1	1	0.412841796875	0.57763671875	lower	../fonts/zerothre.ttf
259173	WORD	wordpools/wasnorm_wordpool_less_exclusions.txt	LTP209	ltpFR	5	2	0	VET	1560	n/a	1	1	0.412841796875	0.57763671875	lower	../fonts/zerothre.ttf
263251	WORD	wordpools/wasnorm_wordpool_less_exclusions.txt	LTP209	ltpFR	5	2	1	LEOPARD	812	n/a	1	0	0.5869140625	0.422607421875	upper	../fonts/amplitud.ttf
267112	WORD	wordpools/wasnorm_wordpool_less_exclusions.txt	LTP209	ltpFR	5	2	1	MAGNET	855	n/a	0	0	0.5869140625	0.422607421875	upper	../fonts/amplitud.ttf
270973	WORD	wordpools/wasnorm_wordpool_less_exclusions.txt	LTP209	ltpFR	5	2	1	TECHNICIAN	1443	n/a	1	0	0.5869140625	0.422607421875	upper	../fonts/amplitud.ttf
276714	REC_START	n/a	LTP209	ltpFR	5	2	n/a	n/a	n/a	n/a	n/a	n/a	n/a	n/a	n/a	n/a
277751	REC_WORD	wordpools/wasnorm_wordpool_less_exclusions.txt	LTP209	ltpFR	5	2	1	TECHNICIAN	1443	n/a	1	n/a	n/a	n/a	n/a	n/a
280134	REC_WORD	wordpools/wasnorm_wordpool_less_exclusions.txt	LTP209	ltpFR	5	2	1	LEMON	810	n/a	1	n/a	n/a	n/a	n/a	n/a
281223	REC_WORD	wordpools/wasnorm_wordpool_less_exclusions.txt	LTP209	ltpFR	5	2	1	STRAWBERRY	1391	n/a	1	n/a	n/a	n/a	n/a	n/a
283084	REC_WORD	wordpools/wasnorm_wordpool_less_exclusions.txt	LTP209	ltpFR	5	2	1	BATHTUB	100	n/a	1	n/a	n/a	n/a	n/a	n/a
331858	REC_WORD	wordpools/wasnorm_wordpool_less_exclusions.txt	LTP209	ltpFR	5	2	1	WATERFALL	1595	n/a	0	n/a	n/a	n/a	n/a	n/a
369309	WORD	wordpools/wasnorm_wordpool_less_exclusions.txt	LTP209	ltpFR	5	3	0	TOWN	1491	n/a	1	1	0.412841796875	0.57763671875	lower	../fonts/zerothre.ttf
373153	WORD	wordpools/wasnorm_wordpool_less_exclusions.txt	LTP209	ltpFR	5	3	0	SPATULA	1348	n/a	0	1	0.412841796875	0.57763671875	lower	../fonts/zerothre.ttf
376997	WORD	wordpools/wasnorm_wordpool_less_exclusions.txt	LTP209	ltpFR	5	3	0	CABIN	211	n/a	1	1	0.412841796875	0.57763671875	lower	../fonts/zerothre.ttf
380958	WORD	wordpools/wasnorm_wordpool_less_exclusions.txt	LTP209	ltpFR	5	3	0	PRAIRIE	1118	n/a	1	1	0.412841796875	0.57763671875	lower	../fonts/zerothre.ttf
384818	WORD	wordpools/wasnorm_wordpool_less_exclusions.txt	LTP209	ltpFR	5	3	0	ACROBAT	4	n/a	1	1	0.412841796875	0.57763671875	lower	../fonts/zerothre.ttf
388762	WORD	wordpools/wasnorm_wordpool_less_exclusions.txt	LTP209	ltpFR	5	3	0	POTATO	1115	n/a	0	1	0.412841796875	0.57763671875	lower	../fonts/zerothre.ttf
392924	WORD	wordpools/wasnorm_wordpool_less_exclusions.txt	LTP209	ltpFR	5	3	0	TOTE	1487	n/a	0	1	0.412841796875	0.57763671875	lower	../fonts/zerothre.ttf
397151	WORD	wordpools/wasnorm_wordpool_less_exclusions.txt	LTP209	ltpFR	5	3	0	GARDEN	623	n/a	1	1	0.412841796875	0.57763671875	lower	../fonts/zerothre.ttf
401178	WORD	wordpools/wasnorm_wordpool_less_exclusions.txt	LTP209	ltpFR	5	3	0	TURNIP	1521	n/a	0	1	0.412841796875	0.57763671875	lower	../fonts/zerothre.ttf
405305	WORD	wordpools/wasnorm_wordpool_less_exclusions.txt	LTP209	ltpFR	5	3	0	SKIN	1318	n/a	1	1	0.412841796875	0.57763671875	lower	../fonts/zerothre.ttf
409366	WORD	wordpools/wasnorm_wordpool_less_exclusions.txt	LTP209	ltpFR	5	3	0	MEAT	883	n/a	0	1	0.412841796875	0.57763671875	lower	../fonts/zerothre.ttf
413293	WORD	wordpools/wasnorm_wordpool_less_exclusions.txt	LTP209	ltpFR	5	3	0	CARDINAL	244	n/a	0	1	0.412841796875	0.57763671875	lower	../fonts/zerothre.ttf
417304	WORD	wordpools/wasnorm_wordpool_less_exclusions.txt	LTP209	ltpFR	5	3	0	BRIEFCASE	175	n/a	1	1	0.412841796875	0.57763671875	lower	../fonts/zerothre.ttf
421148	WORD	wordpools/wasnorm_wordpool_less_exclusions.txt	LTP209	ltpFR	5	3	0	POCKETBOOK	1094	n/a	1	1	0.412841796875	0.57763671875	lower	../fonts/zerothre.ttf
425009	WORD	wordpools/wasnorm_wordpool_less_exclusions.txt	LTP209	ltpFR	5	3	0	ATTORNEY	58	n/a	1	1	0.412841796875	0.57763671875	lower	../fonts/zerothre.ttf
428903	WORD	wordpools/wasnorm_wordpool_less_exclusions.txt	LTP209	ltpFR	5	3	0	VILLAGE	1566	n/a	1	1	0.412841796875	0.57763671875	lower	../fonts/zerothre.ttf
434811	REC_START	n/a	LTP209	ltpFR	5	3	n/a	n/a	n/a	n/a	n/a	n/a	n/a	n/a	n/a	n/a
435379	REC_WORD	wordpools/wasnorm_wordpool_less_exclusions.txt	LTP209	ltpFR	5	3	0	VILLAGE	1566	n/a	1	n/a	n/a	n/a	n/a	n/a
436592	REC_WORD	wordpools/wasnorm_wordpool_less_exclusions.txt	LTP209	ltpFR	5	3	0	ATTORNEY	58	n/a	1	n/a	n/a	n/a	n/a	n/a
437804	REC_WORD	wordpools/wasnorm_wordpool_less_exclusions.txt	LTP209	ltpFR	5	3	0	BRIEFCASE	175	n/a	1	n/a	n/a	n/a	n/a	n/a
439246	REC_WORD	wordpools/wasnorm_wordpool_less_exclusions.txt	LTP209	ltpFR	5	3	0	TOWN	1491	n/a	1	n/a	n/a	n/a	n/a	n/a
440118	REC_WORD	wordpools/wasnorm_wordpool_less_exclusions.txt	LTP209	ltpFR	5	3	0	SPATULA	1348	n/a	0	n/a	n/a	n/a	n/a	n/a
441660	REC_WORD	wordpools/wasnorm_wordpool_less_exclusions.txt	LTP209	ltpFR	5	3	0	ACROBAT	4	n/a	1	n/a	n/a	n/a	n/a	n/a
448770	REC_WORD	wordpools/wasnorm_wordpool_less_exclusions.txt	LTP209	ltpFR	5	3	0	CABIN	211	n/a	1	n/a	n/a	n/a	n/a	n/a
465040	REC_WORD	wordpools/wasnorm_wordpool_less_exclusions.txt	LTP209	ltpFR	5	3	0	MEAT	883	n/a	0	n/a	n/a	n/a	n/a	n/a
466139	REC_WORD	wordpools/wasnorm_wordpool_less_exclusions.txt	LTP209	ltpFR	5	3	0	SKIN	1318	n/a	1	n/a	n/a	n/a	n/a	n/a
482046	REC_WORD	wordpools/wasnorm_wordpool_less_exclusions.txt	LTP209	ltpFR	5	3	n/a	CITY	314	n/a	n/a	n/a	n/a	n/a	n/a	n/a
490404	REC_WORD	wordpools/wasnorm_wordpool_less_exclusions.txt	LTP209	ltpFR	5	3	0	ATTORNEY	58	n/a	1	n/a	n/a	n/a	n/a	n/a
491492	REC_WORD	wordpools/wasnorm_wordpool_less_exclusions.txt	LTP209	ltpFR	5	3	0	BRIEFCASE	175	n/a	1	n/a	n/a	n/a	n/a	n/a
495564	REC_WORD	wordpools/wasnorm_wordpool_less_exclusions.txt	LTP209	ltpFR	5	3	0	TOTE	1487	n/a	0	n/a	n/a	n/a	n/a	n/a
530085	WORD	wordpools/wasnorm_wordpool_less_exclusions.txt	LTP209	ltpFR	5	4	0	TABLET	1427	n/a	0	1	0.412841796875	0.57763671875	lower	../fonts/zerothre.ttf
534213	WORD	wordpools/wasnorm_wordpool_less_exclusions.txt	LTP209	ltpFR	5	4	0	PILLOW	1069	n/a	1	1	0.412841796875	0.57763671875	lower	../fonts/zerothre.ttf
538107	WORD	wordpools/wasnorm_wordpool_less_exclusions.txt	LTP209	ltpFR	5	4	1	REPTILE	1185	n/a	1	0	0.5869140625	0.422607421875	upper	../fonts/amplitud.ttf
542084	WORD	wordpools/wasnorm_wordpool_less_exclusions.txt	LTP209	ltpFR	5	4	1	TEA	1439	n/a	0	0	0.5869140625	0.422607421875	upper	../fonts/amplitud.ttf
546028	WORD	wordpools/wasnorm_wordpool_less_exclusions.txt	LTP209	ltpFR	5	4	1	BOTTLE	153	n/a	0	0	0.5869140625	0.422607421875	upper	../fonts/amplitud.ttf
549989	WORD	wordpools/wasnorm_wordpool_less_exclusions.txt	LTP209	ltpFR	5	4	1	HOUND	724	n/a	1	0	0.5869140625	0.422607421875	upper	../fonts/amplitud.ttf
554199	WORD	wordpools/wasnorm_wordpool_less_exclusions.txt	LTP209	ltpFR	5	4	0	TICK	1463	n/a	0	1	0.412841796875	0.57763671875	lower	../fonts/zerothre.ttf
558410	WORD	wordpools/wasnorm_wordpool_less_exclusions.txt	LTP209	ltpFR	5	4	0	AUTHOR	61	n/a	1	1	0.412841796875	0.57763671875	lower	../fonts/zerothre.ttf
562354	WORD	wordpools/wasnorm_wordpool_less_exclusions.txt	LTP209	ltpFR	5	4	0	CROCODILE	411	n/a	1	1	0.412841796875	0.57763671875	lower	../fonts/zerothre.ttf
566481	WORD	wordpools/wasnorm_wordpool_less_exclusions.txt	LTP209	ltpFR	5	4	1	LIZARD	834	n/a	1	0	0.5869140625	0.422607421875	upper	../fonts/amplitud.ttf
570475	WORD	wordpools/wasnorm_wordpool_less_exclusions.txt	LTP209	ltpFR	5	4	1	TRENCH	1503	n/a	0	0	0.5869140625	0.422607421875	upper	../fonts/amplitud.ttf
574568	WORD	wordpools/wasnorm_wordpool_less_exclusions.txt	LTP209	ltpFR	5	4	1	DICTIONARY	463	n/a	0	0	0.5869140625	0.422607421875	upper	../fonts/amplitud.ttf
578480	WORD	wordpools/wasnorm_wordpool_less_exclusions.txt	LTP209	ltpFR	5	4	1	MONGOOSE	909	n/a	1	0	0.5869140625	0.422607421875	upper	../fonts/amplitud.ttf
582474	WORD	wordpools/wasnorm_wordpool_less_exclusions.txt	LTP209	ltpFR	5	4	0	POPE	1105	n/a	1	1	0.412841796875	0.57763671875	lower	../fonts/zerothre.ttf
586385	WORD	wordpools/wasnorm_wordpool_less_exclusions.txt	LTP209	ltpFR	5	4	0	MONASTERY	907	n/a	0	1	0.412841796875	0.57763671875	lower	../fonts/zerothre.ttf
590329	WORD	wordpools/wasnorm_wordpool_less_exclusions.txt	LTP209	ltpFR	5	4	0	PRIEST	1122	n/a	1	1	0.412841796875	0.57763671875	lower	../fonts/zerothre.ttf
596271	REC_START	n/a	LTP209	ltpFR	5	4	n/a	n/a	n/a	n/a	n/a	n/a	n/a	n/a	n/a	n/a
596724	REC_WORD	wordpools/wasnorm_wordpool_less_exclusions.txt	LTP209	ltpFR	5	4	0	PRIEST	1122	n/a	1	n/a	n/a	n/a	n/a	n/a
597863	REC_WORD	wordpools/wasnorm_wordpool_less_exclusions.txt	LTP209	ltpFR	5	4	0	MONASTERY	907	n/a	0	n/a	n/a	n/a	n/a	n/a
599374	REC_WORD	wordpools/wasnorm_wordpool_less_exclusions.txt	LTP209	ltpFR	5	4	0	POPE	1105	n/a	1	n/a	n/a	n/a	n/a	n/a
602901	REC_WORD	wordpools/wasnorm_wordpool_less_exclusions.txt	LTP209	ltpFR	5	4	1	HOUND	724	n/a	1	n/a	n/a	n/a	n/a	n/a
607705	REC_WORD	wordpools/wasnorm_wordpool_less_exclusions.txt	LTP209	ltpFR	5	4	0	AUTHOR	61	n/a	1	n/a	n/a	n/a	n/a	n/a
609296	REC_WORD	wordpools/wasnorm_wordpool_less_exclusions.txt	LTP209	ltpFR	5	4	1	TEA	1439	n/a	0	n/a	n/a	n/a	n/a	n/a
610540	REC_WORD	wordpools/wasnorm_wordpool_less_exclusions.txt	LTP209	ltpFR	5	4	1	REPTILE	1185	n/a	1	n/a	n/a	n/a	n/a	n/a
611955	REC_WORD	wordpools/wasnorm_wordpool_less_exclusions.txt	LTP209	ltpFR	5	4	1	LIZARD	834	n/a	1	n/a	n/a	n/a	n/a	n/a
613297	REC_WORD	wordpools/wasnorm_wordpool_less_exclusions.txt	LTP209	ltpFR	5	4	0	TABLET	1427	n/a	0	n/a	n/a	n/a	n/a	n/a
614679	REC_WORD	wordpools/wasnorm_wordpool_less_exclusions.txt	LTP209	ltpFR	5	4	0	PILLOW	1069	n/a	1	n/a	n/a	n/a	n/a	n/a
621738	REC_WORD	wordpools/wasnorm_wordpool_less_exclusions.txt	LTP209	ltpFR	5	4	0	CROCODILE	411	n/a	1	n/a	n/a	n/a	n/a	n/a
658235	REC_WORD	wordpools/wasnorm_wordpool_less_exclusions.txt	LTP209	ltpFR	5	4	0	CARDINAL	244	n/a	0	n/a	n/a	n/a	n/a	n/a
692808	WORD	wordpools/wasnorm_wordpool_less_exclusions.txt	LTP209	ltpFR	5	5	1	SCARF	1246	n/a	0	0	0.5869140625	0.422607421875	upper	../fonts/amplitud.ttf
696903	WORD	wordpools/wasnorm_wordpool_less_exclusions.txt	LTP209	ltpFR	5	5	1	SQUID	1361	n/a	1	0	0.5869140625	0.422607421875	upper	../fonts/amplitud.ttf
700796	WORD	wordpools/wasnorm_wordpool_less_exclusions.txt	LTP209	ltpFR	5	5	1	DOLPHIN	483	n/a	1	0	0.5869140625	0.422607421875	upper	../fonts/amplitud.ttf
704657	WORD	wordpools/wasnorm_wordpool_less_exclusions.txt	LTP209	ltpFR	5	5	0	BULLETIN	195	n/a	1	1	0.412841796875	0.57763671875	lower	../fonts/zerothre.ttf
708834	WORD	wordpools/wasnorm_wordpool_less_exclusions.txt	LTP209	ltpFR	5	5	0	COLUMN	350	n/a	0	1	0.412841796875	0.57763671875	lower	../fonts/zerothre.ttf
712878	WORD	wordpools/wasnorm_wordpool_less_exclusions.txt	LTP209	ltpFR	5	5	0	UTENSIL	1542	n/a	0	1	0.412841796875	0.57763671875	lower	../fonts/zerothre.ttf
716990	WORD	wordpools/wasnorm_wordpool_less_exclusions.txt	LTP209	ltpFR	5	5	1	PIKE	1067	n/a	1	0	0.5869140625	0.422607421875	upper	../fonts/amplitud.ttf
720850	WORD	wordpools/wasnorm_wordpool_less_exclusions.txt	LTP209	ltpFR	5	5	1	CORN	381	n/a	1	0	0.5869140625	0.422607421875	upper	../fonts/amplitud.ttf
724877	WORD	wordpools/wasnorm_wordpool_less_exclusions.txt	LTP209	ltpFR	5	5	1	PILOT	1070	n/a	1	0	0.5869140625	0.422607421875	upper	../fonts/amplitud.ttf
728771	WORD	wordpools/wasnorm_wordpool_less_exclusions.txt	LTP209	ltpFR	5	5	0	ASSOCIATE	49	n/a	1	1	0.412841796875	0.57763671875	lower	../fonts/zerothre.ttf
732649	WORD	wordpools/wasnorm_wordpool_less_exclusions.txt	LTP209	ltpFR	5	5	0	ENEMY	534	n/a	1	1	0.412841796875	0.57763671875	lower	../fonts/zerothre.ttf
736559	WORD	wordpools/wasnorm_wordpool_less_exclusions.txt	LTP209	ltpFR	5	5	0	OX	994	n/a	1	1	0.412841796875	0.57763671875	lower	../fonts/zerothre.ttf
740405	WORD	wordpools/wasnorm_wordpool_less_exclusions.txt	LTP209	ltpFR	5	5	0	PLIERS	1089	n/a	0	1	0.412841796875	0.57763671875	lower	../fonts/zerothre.ttf
744249	WORD	wordpools/wasnorm_wordpool_less_exclusions.txt	LTP209	ltpFR	5	5	0	PASSENGER	1020	n/a	1	1	0.412841796875	0.57763671875	lower	../fonts/zerothre.ttf
748110	WORD	wordpools/wasnorm_wordpool_less_exclusions.txt	LTP209	ltpFR	5	5	1	SWEATER	1419	n/a	1	0	0.5869140625	0.422607421875	upper	../fonts/amplitud.ttf
752337	WORD	wordpools/wasnorm_wordpool_less_exclusions.txt	LTP209	ltpFR	5	5	1	YARN	1631	n/a	1	0	0.5869140625	0.422607421875	upper	../fonts/amplitud.ttf
758312	REC_START	n/a	LTP209	ltpFR	5	5	n/a	n/a	n/a	n/a	n/a	n/a	n/a	n/a	n/a	n/a
759101	REC_WORD	wordpools/wasnorm_wordpool_less_exclusions.txt	LTP209	ltpFR	5	5	1	YARN	1631	n/a	1	n/a	n/a	n/a	n/a	n/a
760113	REC_WORD	wordpools/wasnorm_wordpool_less_exclusions.txt	LTP209	ltpFR	5	5	1	SWEATER	1419	n/a	1	n/a	n/a	n/a	n/a	n/a
761769	REC_WORD	wordpools/wasnorm_wordpool_less_exclusions.txt	LTP209	ltpFR	5	5	1	DOLPHIN	483	n/a	1	n/a	n/a	n/a	n/a	n/a
762727	REC_WORD	wordpools/wasnorm_wordpool_less_exclusions.txt	LTP209	ltpFR	5	5	1	SQUID	1361	n/a	1	n/a	n/a	n/a	n/a	n/a
764059	REC_WORD	wordpools/wasnorm_wordpool_less_exclusions.txt	LTP209	ltpFR	5	5	1	SCARF	1246	n/a	0	n/a	n/a	n/a	n/a	n/a
765596	REC_WORD	wordpools/wasnorm_wordpool_less_exclusions.txt	LTP209	ltpFR	5	5	1	CORN	381	n/a	1	n/a	n/a	n/a	n/a	n/a
766907	REC_WORD	wordpools/wasnorm_wordpool_less_exclusions.txt	LTP209	ltpFR	5	5	1	PIKE	1067	n/a	1	n/a	n/a	n/a	n/a	n/a
768234	REC_WORD	wordpools/wasnorm_wordpool_less_exclusions.txt	LTP209	ltpFR	5	5	0	OX	994	n/a	1	n/a	n/a	n/a	n/a	n/a
788722	REC_WORD	wordpools/wasnorm_wordpool_less_exclusions.txt	LTP209	ltpFR	5	5	1	YARN	1631	n/a	1	n/a	n/a	n/a	n/a	n/a
789655	REC_WORD	wordpools/wasnorm_wordpool_less_exclusions.txt	LTP209	ltpFR	5	5	1	SWEATER	1419	n/a	1	n/a	n/a	n/a	n/a	n/a
851837	WORD	wordpools/wasnorm_wordpool_less_exclusions.txt	LTP209	ltpFR	5	6	-1	RECIPE	1175	n/a	-1	1	1.0	1.0	upper	../fonts/Verdana.ttf
855715	WORD	wordpools/wasnorm_wordpool_less_exclusions.txt	LTP209	ltpFR	5	6	-1	SANDWICH	1232	n/a	-1	1	1.0	1.0	upper	../fonts/Verdana.ttf
859825	WORD	wordpools/wasnorm_wordpool_less_exclusions.txt	LTP209	ltpFR	5	6	-1	CANOE	233	n/a	-1	1	1.0	1.0	upper	../fonts/Verdana.ttf
863920	WORD	wordpools/wasnorm_wordpool_less_exclusions.txt	LTP209	ltpFR	5	6	-1	CREW	406	n/a	-1	1	1.0	1.0	upper	../fonts/Verdana.ttf
867997	WORD	wordpools/wasnorm_wordpool_less_exclusions.txt	LTP209	ltpFR	5	6	-1	RESTAURANT	1187	n/a	-1	1	1.0	1.0	upper	../fonts/Verdana.ttf
871958	WORD	wordpools/wasnorm_wordpool_less_exclusions.txt	LTP209	ltpFR	5	6	-1	SURF	1412	n/a	-1	1	1.0	1.0	upper	../fonts/Verdana.ttf
876152	WORD	wordpools/wasnorm_wordpool_less_exclusions.txt	LTP209	ltpFR	5	6	-1	TWIG	1527	n/a	-1	1	1.0	1.0	upper	../fonts/Verdana.ttf
880229	WORD	wordpools/wasnorm_wordpool_less_exclusions.txt	LTP209	ltpFR	5	6	-1	DOVE	491	n/a	-1	1	1.0	1.0	upper	../fonts/Verdana.ttf
884157	WORD	wordpools/wasnorm_wordpool_less_exclusions.txt	LTP209	ltpFR	5	6	-1	VENT	1556	n/a	-1	1	1.0	1.0	upper	../fonts/Verdana.ttf
887984	WORD	wordpools/wasnorm_wordpool_less_exclusions.txt	LTP209	ltpFR	5	6	-1	SEA	1259	n/a	-1	1	1.0	1.0	upper	../fonts/Verdana.ttf
892095	WORD	wordpools/wasnorm_wordpool_less_exclusions.txt	LTP209	ltpFR	5	6	-1	FRIES	607	n/a	-1	1	1.0	1.0	upper	../fonts/Verdana.ttf
895989	WORD	wordpools/wasnorm_wordpool_less_exclusions.txt	LTP209	ltpFR	5	6	-1	CLASS	318	n/a	-1	1	1.0	1.0	upper	../fonts/Verdana.ttf
900166	WORD	wordpools/wasnorm_wordpool_less_exclusions.txt	LTP209	ltpFR	5	6	-1	PIANO	1057	n/a	-1	1	1.0	1.0	upper	../fonts/Verdana.ttf
904127	WORD	wordpools/wasnorm_wordpool_less_exclusions.txt	LTP209	ltpFR	5	6	-1	CELERY	266	n/a	-1	1	1.0	1.0	upper	../fonts/Verdana.ttf
908104	WORD	wordpools/wasnorm_wordpool_less_exclusions.txt	LTP209	ltpFR	5	6	-1	GUM	672	n/a	-1	1	1.0	1.0	upper	../fonts/Verdana.ttf
912198	WORD	wordpools/wasnorm_wordpool_less_exclusions.txt	LTP209	ltpFR	5	6	-1	INSTRUCTOR	741	n/a	-1	1	1.0	1.0	upper	../fonts/Verdana.ttf
918206	REC_START	n/a	LTP209	ltpFR	5	6	n/a	n/a	n/a	n/a	n/a	n/a	n/a	n/a	n/a	n/a
919134	REC_WORD	wordpools/wasnorm_wordpool_less_exclusions.txt	LTP209	ltpFR	5	6	-1	INSTRUCTOR	741	n/a	-1	n/a	n/a	n/a	n/a	n/a
920134	REC_WORD_VV	wordpools/wasnorm_wordpool_less_exclusions.txt	LTP209	ltpFR	5	6	n/a	<>	-1	n/a	n/a	n/a	n/a	n/a	n/a	n/a
920774	REC_WORD	wordpools/wasnorm_wordpool_less_exclusions.txt	LTP209	ltpFR	5	6	-1	SANDWICH	1232	n/a	-1	n/a	n/a	n/a	n/a	n/a
921773	REC_WORD_VV	wordpools/wasnorm_wordpool_less_exclusions.txt	LTP209	ltpFR	5	6	n/a	<>	-1	n/a	n/a	n/a	n/a	n/a	n/a	n/a
922090	REC_WORD	wordpools/wasnorm_wordpool_less_exclusions.txt	LTP209	ltpFR	5	6	-1	RECIPE	1175	n/a	-1	n/a	n/a	n/a	n/a	n/a
923814	REC_WORD	wordpools/wasnorm_wordpool_less_exclusions.txt	LTP209	ltpFR	5	6	-1	RESTAURANT	1187	n/a	-1	n/a	n/a	n/a	n/a	n/a
924819	REC_WORD_VV	wordpools/wasnorm_wordpool_less_exclusions.txt	LTP209	ltpFR	5	6	n/a	<>	-1	n/a	n/a	n/a	n/a	n/a	n/a	n/a
927804	REC_WORD	wordpools/wasnorm_wordpool_less_exclusions.txt	LTP209	ltpFR	5	6	-1	CREW	406	n/a	-1	n/a	n/a	n/a	n/a	n/a
934747	REC_WORD	wordpools/wasnorm_wordpool_less_exclusions.txt	LTP209	ltpFR	5	6	-1	CELERY	266	n/a	-1	n/a	n/a	n/a	n/a	n/a
950383	REC_WORD	wordpools/wasnorm_wordpool_less_exclusions.txt	LTP209	ltpFR	5	6	n/a	WAVE	1596	n/a	n/a	n/a	n/a	n/a	n/a	n/a
961369	REC_WORD	wordpools/wasnorm_wordpool_less_exclusions.txt	LTP209	ltpFR	5	6	-1	SEA	1259	n/a	-1	n/a	n/a	n/a	n/a	n/a
970098	REC_WORD	wordpools/wasnorm_wordpool_less_exclusions.txt	LTP209	ltpFR	5	6	-1	INSTRUCTOR	741	n/a	-1	n/a	n/a	n/a	n/a	n/a
971097	REC_WORD_VV	wordpools/wasnorm_wordpool_less_exclusions.txt	LTP209	ltpFR	5	6	n/a	<>	-1	n/a	n/a	n/a	n/a	n/a	n/a	n/a
987119	REC_WORD	wordpools/wasnorm_wordpool_less_exclusions.txt	LTP209	ltpFR	5	6	-1	PIANO	1057	n/a	-1	n/a	n/a	n/a	n/a	n/a
1004377	WORD	wordpools/wasnorm_wordpool_less_exclusions.txt	LTP209	ltpFR	5	7	-1	STORE	1387	n/a	-1	1	1.0	1.0	upper	../fonts/Verdana.ttf
1008371	WORD	wordpools/wasnorm_wordpool_less_exclusions.txt	LTP209	ltpFR	5	7	-1	FOREHEAD	592	n/a	-1	1	1.0	1.0	upper	../fonts/Verdana.ttf
1012232	WORD	wordpools/wasnorm_wordpool_less_exclusions.txt	LTP209	ltpFR	5	7	-1	RACCOON	1153	n/a	-1	1	1.0	1.0	upper	../fonts/Verdana.ttf
1016292	WORD	wordpools/wasnorm_wordpool_less_exclusions.txt	LTP209	ltpFR	5	7	-1	BEER	114	n/a	-1	1	1.0	1.0	upper	../fonts/Verdana.ttf
1020303	WORD	wordpools/wasnorm_wordpool_less_exclusions.txt	LTP209	ltpFR	5	7	-1	ISLAND	745	n/a	-1	1	1.0	1.0	upper	../fonts/Verdana.ttf
1024364	WORD	wordpools/wasnorm_wordpool_less_exclusions.txt	LTP209	ltpFR	5	7	-1	SUPERMARKET	1409	n/a	-1	1	1.0	1.0	upper	../fonts/Verdana.ttf
1028573	WORD	wordpools/wasnorm_wordpool_less_exclusions.txt	LTP209	ltpFR	5	7	-1	MONARCH	906	n/a	-1	1	1.0	1.0	upper	../fonts/Verdana.ttf
1032617	WORD	wordpools/wasnorm_wordpool_less_exclusions.txt	LTP209	ltpFR	5	7	-1	CASTLE	256	n/a	-1	1	1.0	1.0	upper	../fonts/Verdana.ttf
1036778	WORD	wordpools/wasnorm_wordpool_less_exclusions.txt	LTP209	ltpFR	5	7	-1	ROBOT	1200	n/a	-1	1	1.0	1.0	upper	../fonts/Verdana.ttf
1040688	WORD	wordpools/wasnorm_wordpool_less_exclusions.txt	LTP209	ltpFR	5	7	-1	TIDE	1465	n/a	-1	1	1.0	1.0	upper	../fonts/Verdana.ttf
1044766	WORD	wordpools/wasnorm_wordpool_less_exclusions.txt	LTP209	ltpFR	5	7	-1	SCALLOP	1242	n/a	-1	1	1.0	1.0	upper	../fonts/Verdana.ttf
1048726	WORD	wordpools/wasnorm_wordpool_less_exclusions.txt	LTP209	ltpFR	5	7	-1	BRIDE	173	n/a	-1	1	1.0	1.0	upper	../fonts/Verdana.ttf
1052887	WORD	wordpools/wasnorm_wordpool_less_exclusions.txt	LTP209	ltpFR	5	7	-1	PRINCESS	1125	n/a	-1	1	1.0	1.0	upper	../fonts/Verdana.ttf
1056748	WORD	wordpools/wasnorm_wordpool_less_exclusions.txt	LTP209	ltpFR	5	7	-1	RUM	1217	n/a	-1	1	1.0	1.0	upper	../fonts/Verdana.ttf
1060942	WORD	wordpools/wasnorm_wordpool_less_exclusions.txt	LTP209	ltpFR	5	7	-1	CURTAIN	427	n/a	-1	1	1.0	1.0	upper	../fonts/Verdana.ttf
1065070	WORD	wordpools/wasnorm_wordpool_less_exclusions.txt	LTP209	ltpFR	5	7	-1	HURRICANE	727	n/a	-1	1	1.0	1.0	upper	../fonts/Verdana.ttf
1071128	REC_START	n/a	LTP209	ltpFR	5	7	n/a	n/a	n/a	n/a	n/a	n/a	n/a	n/a	n/a	n/a
1071706	REC_WORD	wordpools/wasnorm_wordpool_less_exclusions.txt	LTP209	ltpFR	5	7	-1	HURRICANE	727	n/a	-1	n/a	n/a	n/a	n/a	n/a
1073168	REC_WORD	wordpools/wasnorm_wordpool_less_exclusions.txt	LTP209	ltpFR	5	7	-1	CURTAIN	427	n/a	-1	n/a	n/a	n/a	n/a	n/a
1074365	REC_WORD	wordpools/wasnorm_wordpool_less_exclusions.txt	LTP209	ltpFR	5	7	-1	PRINCESS	1125	n/a	-1	n/a	n/a	n/a	n/a	n/a
1075677	REC_WORD	wordpools/wasnorm_wordpool_less_exclusions.txt	LTP209	ltpFR	5	7	-1	MONARCH	906	n/a	-1	n/a	n/a	n/a	n/a	n/a
1076815	REC_WORD	wordpools/wasnorm_wordpool_less_exclusions.txt	LTP209	ltpFR	5	7	-1	CASTLE	256	n/a	-1	n/a	n/a	n/a	n/a	n/a
1077927	REC_WORD	wordpools/wasnorm_wordpool_less_exclusions.txt	LTP209	ltpFR	5	7	-1	STORE	1387	n/a	-1	n/a	n/a	n/a	n/a	n/a
1078929	REC_WORD_VV	wordpools/wasnorm_wordpool_less_exclusions.txt	LTP209	ltpFR	5	7	n/a	<>	-1	n/a	n/a	n/a	n/a	n/a	n/a	n/a
1081230	REC_WORD	wordpools/wasnorm_wordpool_less_exclusions.txt	LTP209	ltpFR	5	7	-1	BEER	114	n/a	-1	n/a	n/a	n/a	n/a	n/a
1082307	REC_WORD	wordpools/wasnorm_wordpool_less_exclusions.txt	LTP209	ltpFR	5	7	-1	RACCOON	1153	n/a	-1	n/a	n/a	n/a	n/a	n/a
1083290	REC_WORD_VV	wordpools/wasnorm_wordpool_less_exclusions.txt	LTP209	ltpFR	5	7	n/a	<>	-1	n/a	n/a	n/a	n/a	n/a	n/a	n/a
1085596	REC_WORD	wordpools/wasnorm_wordpool_less_exclusions.txt	LTP209	ltpFR	5	7	-1	ISLAND	745	n/a	-1	n/a	n/a	n/a	n/a	n/a
1089171	REC_WORD	wordpools/wasnorm_wordpool_less_exclusions.txt	LTP209	ltpFR	5	7	-1	SUPERMARKET	1409	n/a	-1	n/a	n/a	n/a	n/a	n/a
1090172	REC_WORD_VV	wordpools/wasnorm_wordpool_less_exclusions.txt	LTP209	ltpFR	5	7	n/a	<>	-1	n/a	n/a	n/a	n/a	n/a	n/a	n/a
1094774	REC_WORD	wordpools/wasnorm_wordpool_less_exclusions.txt	LTP209	ltpFR	5	7	-1	ROBOT	1200	n/a	-1	n/a	n/a	n/a	n/a	n/a
1096844	REC_WORD	wordpools/wasnorm_wordpool_less_exclusions.txt	LTP209	ltpFR	5	7	-1	TIDE	1465	n/a	-1	n/a	n/a	n/a	n/a	n/a
1118381	REC_WORD	wordpools/wasnorm_wordpool_less_exclusions.txt	LTP209	ltpFR	5	7	-1	FOREHEAD	592	n/a	-1	n/a	n/a	n/a	n/a	n/a
1119382	REC_WORD_VV	wordpools/wasnorm_wordpool_less_exclusions.txt	LTP209	ltpFR	5	7	n/a	<>	-1	n/a	n/a	n/a	n/a	n/a	n/a	n/a
1140444	REC_WORD	wordpools/wasnorm_wordpool_less_exclusions.txt	LTP209	ltpFR	5	7	-1	PRINCESS	1125	n/a	-1	n/a	n/a	n/a	n/a	n/a
1141624	REC_WORD	wordpools/wasnorm_wordpool_less_exclusions.txt	LTP209	ltpFR	5	7	-1	RUM	1217	n/a	-1	n/a	n/a	n/a	n/a	n/a
1160144	WORD	wordpools/wasnorm_wordpool_less_exclusions.txt	LTP209	ltpFR	5	8	1	DESIGNER	451	n/a	1	0	0.5869140625	0.422607421875	upper	../fonts/amplitud.ttf
1164138	WORD	wordpools/wasnorm_wordpool_less_exclusions.txt	LTP209	ltpFR	5	8	1	RADIATOR	1156	n/a	0	0	0.5869140625	0.422607421875	upper	../fonts/amplitud.ttf
1168099	WORD	wordpools/wasnorm_wordpool_less_exclusions.txt	LTP209	ltpFR	5	8	0	DRIVER	499	n/a	1	1	0.412841796875	0.57763671875	lower	../fonts/zerothre.ttf
1171943	WORD	wordpools/wasnorm_wordpool_less_exclusions.txt	LTP209	ltpFR	5	8	0	KING	777	n/a	1	1	0.412841796875	0.57763671875	lower	../fonts/zerothre.ttf
1175837	WORD	wordpools/wasnorm_wordpool_less_exclusions.txt	LTP209	ltpFR	5	8	0	PRINCE	1124	n/a	1	1	0.412841796875	0.57763671875	lower	../fonts/zerothre.ttf
1179847	WORD	wordpools/wasnorm_wordpool_less_exclusions.txt	LTP209	ltpFR	5	8	0	HIGHWAY	707	n/a	1	1	0.412841796875	0.57763671875	lower	../fonts/zerothre.ttf
1183959	WORD	wordpools/wasnorm_wordpool_less_exclusions.txt	LTP209	ltpFR	5	8	0	NECK	939	n/a	1	1	0.412841796875	0.57763671875	lower	../fonts/zerothre.ttf
1188069	WORD	wordpools/wasnorm_wordpool_less_exclusions.txt	LTP209	ltpFR	5	8	1	PLAID	1080	n/a	0	0	0.5869140625	0.422607421875	upper	../fonts/amplitud.ttf
1191980	WORD	wordpools/wasnorm_wordpool_less_exclusions.txt	LTP209	ltpFR	5	8	1	COAT	333	n/a	0	0	0.5869140625	0.422607421875	upper	../fonts/amplitud.ttf
1195957	WORD	wordpools/wasnorm_wordpool_less_exclusions.txt	LTP209	ltpFR	5	8	1	EXPLOSION	544	n/a	1	0	0.5869140625	0.422607421875	upper	../fonts/amplitud.ttf
1200118	WORD	wordpools/wasnorm_wordpool_less_exclusions.txt	LTP209	ltpFR	5	8	1	ANTENNA	28	n/a	0	0	0.5869140625	0.422607421875	upper	../fonts/amplitud.ttf
1204062	WORD	wordpools/wasnorm_wordpool_less_exclusions.txt	LTP209	ltpFR	5	8	1	FIN	566	n/a	0	0	0.5869140625	0.422607421875	upper	../fonts/amplitud.ttf
1207956	WORD	wordpools/wasnorm_wordpool_less_exclusions.txt	LTP209	ltpFR	5	8	1	OLIVE	975	n/a	1	0	0.5869140625	0.422607421875	upper	../fonts/amplitud.ttf
1212183	WORD	wordpools/wasnorm_wordpool_less_exclusions.txt	LTP209	ltpFR	5	8	0	ROAD	1196	n/a	1	1	0.412841796875	0.57763671875	lower	../fonts/zerothre.ttf
1216360	WORD	wordpools/wasnorm_wordpool_less_exclusions.txt	LTP209	ltpFR	5	8	0	CHAIN	273	n/a	0	1	0.412841796875	0.57763671875	lower	../fonts/zerothre.ttf
1220536	WORD	wordpools/wasnorm_wordpool_less_exclusions.txt	LTP209	ltpFR	5	8	0	GREASE	660	n/a	0	1	0.412841796875	0.57763671875	lower	../fonts/zerothre.ttf
1226363	REC_START	n/a	LTP209	ltpFR	5	8	n/a	n/a	n/a	n/a	n/a	n/a	n/a	n/a	n/a	n/a
1227191	REC_WORD	wordpools/wasnorm_wordpool_less_exclusions.txt	LTP209	ltpFR	5	8	0	GREASE	660	n/a	0	n/a	n/a	n/a	n/a	n/a
1228348	REC_WORD	wordpools/wasnorm_wordpool_less_exclusions.txt	LTP209	ltpFR	5	8	0	CHAIN	273	n/a	0	n/a	n/a	n/a	n/a	n/a
1229341	REC_WORD	wordpools/wasnorm_wordpool_less_exclusions.txt	LTP209	ltpFR	5	8	0	ROAD	1196	n/a	1	n/a	n/a	n/a	n/a	n/a
1230618	REC_WORD	wordpools/wasnorm_wordpool_less_exclusions.txt	LTP209	ltpFR	5	8	0	KING	777	n/a	1	n/a	n/a	n/a	n/a	n/a
1231706	REC_WORD	wordpools/wasnorm_wordpool_less_exclusions.txt	LTP209	ltpFR	5	8	0	DRIVER	499	n/a	1	n/a	n/a	n/a	n/a	n/a
1232728	REC_WORD	wordpools/wasnorm_wordpool_less_exclusions.txt	LTP209	ltpFR	5	8	0	PRINCE	1124	n/a	1	n/a	n/a	n/a	n/a	n/a
1246149	REC_WORD	wordpools/wasnorm_wordpool_less_exclusions.txt	LTP209	ltpFR	5	8	1	FIN	566	n/a	0	n/a	n/a	n/a	n/a	n/a
1253666	REC_WORD	wordpools/wasnorm_wordpool_less_exclusions.txt	LTP209	ltpFR	5	8	1	OLIVE	975	n/a	1	n/a	n/a	n/a	n/a	n/a
1313132	WORD	wordpools/wasnorm_wordpool_less_exclusions.txt	LTP209	ltpFR	5	9	1	STAPLER	1372	n/a	0	0	0.5869140625	0.422607421875	upper	../fonts/amplitud.ttf
1317310	WORD	wordpools/wasnorm_wordpool_less_exclusions.txt	LTP209	ltpFR	5	9	1	COLLAR	345	n/a	0	0	0.5869140625	0.422607421875	upper	../fonts/amplitud.ttf
1321337	WORD	wordpools/wasnorm_wordpool_less_exclusions.txt	LTP209	ltpFR	5	9	1	SKIRT	1319	n/a	0	0	0.5869140625	0.422607421875	upper	../fonts/amplitud.ttf
1325397	WORD	wordpools/wasnorm_wordpool_less_exclusions.txt	LTP209	ltpFR	5	9	1	COLONEL	348	n/a	1	0	0.5869140625	0.422607421875	upper	../fonts/amplitud.ttf
1329507	WORD	wordpools/wasnorm_wordpool_less_exclusions.txt	LTP209	ltpFR	5	9	1	FLEET	578	n/a	0	0	0.5869140625	0.422607421875	upper	../fonts/amplitud.ttf
1333352	WORD	wordpools/wasnorm_wordpool_less_exclusions.txt	LTP209	ltpFR	5	9	1	LEAF	808	n/a	1	0	0.5869140625	0.422607421875	upper	../fonts/amplitud.ttf
1337578	WORD	wordpools/wasnorm_wordpool_less_exclusions.txt	LTP209	ltpFR	5	9	1	HERO	706	n/a	1	0	0.5869140625	0.422607421875	upper	../fonts/amplitud.ttf
1341506	WORD	wordpools/wasnorm_wordpool_less_exclusions.txt	LTP209	ltpFR	5	9	1	NOMAD	955	n/a	1	0	0.5869140625	0.422607421875	upper	../fonts/amplitud.ttf
1345500	WORD	wordpools/wasnorm_wordpool_less_exclusions.txt	LTP209	ltpFR	5	9	1	PEOPLE	1046	n/a	1	0	0.5869140625	0.422607421875	upper	../fonts/amplitud.ttf
1349328	WORD	wordpools/wasnorm_wordpool_less_exclusions.txt	LTP209	ltpFR	5	9	1	SINK	1309	n/a	0	0	0.5869140625	0.422607421875	upper	../fonts/amplitud.ttf
1353306	WORD	wordpools/wasnorm_wordpool_less_exclusions.txt	LTP209	ltpFR	5	9	1	COFFEE	341	n/a	0	0	0.5869140625	0.422607421875	upper	../fonts/amplitud.ttf
1357300	WORD	wordpools/wasnorm_wordpool_less_exclusions.txt	LTP209	ltpFR	5	9	1	OZONE	996	n/a	0	0	0.5869140625	0.422607421875	upper	../fonts/amplitud.ttf
1361377	WORD	wordpools/wasnorm_wordpool_less_exclusions.txt	LTP209	ltpFR	5	9	1	TROPHY	1509	n/a	0	0	0.5869140625	0.422607421875	upper	../fonts/amplitud.ttf
1365570	WORD	wordpools/wasnorm_wordpool_less_exclusions.txt	LTP209	ltpFR	5	9	1	CARTON	251	n/a	0	0	0.5869140625	0.422607421875	upper	../fonts/amplitud.ttf
1369465	WORD	wordpools/wasnorm_wordpool_less_exclusions.txt	LTP209	ltpFR	5	9	1	ROOT	1210	n/a	1	0	0.5869140625	0.422607421875	upper	../fonts/amplitud.ttf
1373426	WORD	wordpools/wasnorm_wordpool_less_exclusions.txt	LTP209	ltpFR	5	9	1	FOUNTAIN	597	n/a	0	0	0.5869140625	0.422607421875	upper	../fonts/amplitud.ttf
1379417	REC_START	n/a	LTP209	ltpFR	5	9	n/a	n/a	n/a	n/a	n/a	n/a	n/a	n/a	n/a	n/a
1379885	REC_WORD	wordpools/wasnorm_wordpool_less_exclusions.txt	LTP209	ltpFR	5	9	1	FOUNTAIN	597	n/a	0	n/a	n/a	n/a	n/a	n/a
1381277	REC_WORD	wordpools/wasnorm_wordpool_less_exclusions.txt	LTP209	ltpFR	5	9	1	ROOT	1210	n/a	1	n/a	n/a	n/a	n/a	n/a
1382116	REC_WORD	wordpools/wasnorm_wordpool_less_exclusions.txt	LTP209	ltpFR	5	9	1	LEAF	808	n/a	1	n/a	n/a	n/a	n/a	n/a
1384605	REC_WORD	wordpools/wasnorm_wordpool_less_exclusions.txt	LTP209	ltpFR	5	9	1	TROPHY	1509	n/a	0	n/a	n/a	n/a	n/a	n/a
1465322	WORD	wordpools/wasnorm_wordpool_less_exclusions.txt	LTP209	ltpFR	5	10	1	CLERK	321	n/a	1	0	0.5869140625	0.422607421875	upper	../fonts/amplitud.ttf
1469349	WORD	wordpools/wasnorm_wordpool_less_exclusions.txt	LTP209	ltpFR	5	10	1	BOOTH	151	n/a	1	0	0.5869140625	0.422607421875	upper	../fonts/amplitud.ttf
1473410	WORD	wordpools/wasnorm_wordpool_less_exclusions.txt	LTP209	ltpFR	5	10	1	SHEEP	1278	n/a	1	0	0.5869140625	0.422607421875	upper	../fonts/amplitud.ttf
1477552	WORD	wordpools/wasnorm_wordpool_less_exclusions.txt	LTP209	ltpFR	5	10	1	EWE	542	n/a	1	0	0.5869140625	0.422607421875	upper	../fonts/amplitud.ttf
1481563	WORD	wordpools/wasnorm_wordpool_less_exclusions.txt	LTP209	ltpFR	5	10	1	GRAPE	654	n/a	1	0	0.5869140625	0.422607421875	upper	../fonts/amplitud.ttf
1485774	WORD	wordpools/wasnorm_wordpool_less_exclusions.txt	LTP209	ltpFR	5	10	1	EARRING	514	n/a	0	0	0.5869140625	0.422607421875	upper	../fonts/amplitud.ttf
1489851	WORD	wordpools/wasnorm_wordpool_less_exclusions.txt	LTP209	ltpFR	5	10	1	MOB	904	n/a	1	0	0.5869140625	0.422607421875	upper	../fonts/amplitud.ttf
1494045	WORD	wordpools/wasnorm_wordpool_less_exclusions.txt	LTP209	ltpFR	5	10	1	PRESIDENT	1121	n/a	1	0	0.5869140625	0.422607421875	upper	../fonts/amplitud.ttf
1497889	WORD	wordpools/wasnorm_wordpool_less_exclusions.txt	LTP209	ltpFR	5	10	1	MERMAID	887	n/a	1	0	0.5869140625	0.422607421875	upper	../fonts/amplitud.ttf
1501783	WORD	wordpools/wasnorm_wordpool_less_exclusions.txt	LTP209	ltpFR	5	10	1	OCEAN	970	n/a	0	0	0.5869140625	0.422607421875	upper	../fonts/amplitud.ttf
1505777	WORD	wordpools/wasnorm_wordpool_less_exclusions.txt	LTP209	ltpFR	5	10	1	BOSS	152	n/a	1	0	0.5869140625	0.422607421875	upper	../fonts/amplitud.ttf
1509922	WORD	wordpools/wasnorm_wordpool_less_exclusions.txt	LTP209	ltpFR	5	10	1	APPENDAGE	32	n/a	1	0	0.5869140625	0.422607421875	upper	../fonts/amplitud.ttf
1513966	WORD	wordpools/wasnorm_wordpool_less_exclusions.txt	LTP209	ltpFR	5	10	1	EAR	513	n/a	1	0	0.5869140625	0.422607421875	upper	../fonts/amplitud.ttf
1517809	WORD	wordpools/wasnorm_wordpool_less_exclusions.txt	LTP209	ltpFR	5	10	1	HORNET	718	n/a	1	0	0.5869140625	0.422607421875	upper	../fonts/amplitud.ttf
1521753	WORD	wordpools/wasnorm_wordpool_less_exclusions.txt	LTP209	ltpFR	5	10	1	ARMY	39	n/a	1	0	0.5869140625	0.422607421875	upper	../fonts/amplitud.ttf
1525764	WORD	wordpools/wasnorm_wordpool_less_exclusions.txt	LTP209	ltpFR	5	10	1	CHAMPAGNE	278	n/a	0	0	0.5869140625	0.422607421875	upper	../fonts/amplitud.ttf
1531672	REC_START	n/a	LTP209	ltpFR	5	10	n/a	n/a	n/a	n/a	n/a	n/a	n/a	n/a	n/a	n/a
1532270	REC_WORD	wordpools/wasnorm_wordpool_less_exclusions.txt	LTP209	ltpFR	5	10	1	CHAMPAGNE	278	n/a	0	n/a	n/a	n/a	n/a	n/a
1533269	REC_WORD_VV	wordpools/wasnorm_wordpool_less_exclusions.txt	LTP209	ltpFR	5	10	n/a	<>	-1	n/a	n/a	n/a	n/a	n/a	n/a	n/a
1534111	REC_WORD	wordpools/wasnorm_wordpool_less_exclusions.txt	LTP209	ltpFR	5	10	1	PRESIDENT	1121	n/a	1	n/a	n/a	n/a	n/a	n/a
1535719	REC_WORD	wordpools/wasnorm_wordpool_less_exclusions.txt	LTP209	ltpFR	5	10	1	MOB	904	n/a	1	n/a	n/a	n/a	n/a	n/a
1537124	REC_WORD	wordpools/wasnorm_wordpool_less_exclusions.txt	LTP209	ltpFR	5	10	1	ARMY	39	n/a	1	n/a	n/a	n/a	n/a	n/a
1550090	REC_WORD	wordpools/wasnorm_wordpool_less_exclusions.txt	LTP209	ltpFR	5	10	1	GRAPE	654	n/a	1	n/a	n/a	n/a	n/a	n/a
1552362	REC_WORD	wordpools/wasnorm_wordpool_less_exclusions.txt	LTP209	ltpFR	5	10	1	APPENDAGE	32	n/a	1	n/a	n/a	n/a	n/a	n/a
1553353	REC_WORD_VV	wordpools/wasnorm_wordpool_less_exclusions.txt	LTP209	ltpFR	5	10	n/a	<>	-1	n/a	n/a	n/a	n/a	n/a	n/a	n/a
1617960	WORD	wordpools/wasnorm_wordpool_less_exclusions.txt	LTP209	ltpFR	5	11	0	BARLEY	88	n/a	0	1	0.412841796875	0.57763671875	lower	../fonts/zerothre.ttf
1621988	WORD	wordpools/wasnorm_wordpool_less_exclusions.txt	LTP209	ltpFR	5	11	0	BRAN	167	n/a	0	1	0.412841796875	0.57763671875	lower	../fonts/zerothre.ttf
1625932	WORD	wordpools/wasnorm_wordpool_less_exclusions.txt	LTP209	ltpFR	5	11	0	ERASER	538	n/a	0	1	0.412841796875	0.57763671875	lower	../fonts/zerothre.ttf
1630092	WORD	wordpools/wasnorm_wordpool_less_exclusions.txt	LTP209	ltpFR	5	11	0	BLACKBOARD	133	n/a	1	1	0.412841796875	0.57763671875	lower	../fonts/zerothre.ttf
1633937	WORD	wordpools/wasnorm_wordpool_less_exclusions.txt	LTP209	ltpFR	5	11	0	FIELD	562	n/a	1	1	0.412841796875	0.57763671875	lower	../fonts/zerothre.ttf
1637863	WORD	wordpools/wasnorm_wordpool_less_exclusions.txt	LTP209	ltpFR	5	11	0	HOE	711	n/a	1	1	0.412841796875	0.57763671875	lower	../fonts/zerothre.ttf
1642041	WORD	wordpools/wasnorm_wordpool_less_exclusions.txt	LTP209	ltpFR	5	11	0	ICEBERG	731	n/a	1	1	0.412841796875	0.57763671875	lower	../fonts/zerothre.ttf
1646002	WORD	wordpools/wasnorm_wordpool_less_exclusions.txt	LTP209	ltpFR	5	11	0	KEG	770	n/a	1	1	0.412841796875	0.57763671875	lower	../fonts/zerothre.ttf
1650013	WORD	wordpools/wasnorm_wordpool_less_exclusions.txt	LTP209	ltpFR	5	11	0	DINER	467	n/a	1	1	0.412841796875	0.57763671875	lower	../fonts/zerothre.ttf
1653990	WORD	wordpools/wasnorm_wordpool_less_exclusions.txt	LTP209	ltpFR	5	11	0	BROCCOLI	176	n/a	0	1	0.412841796875	0.57763671875	lower	../fonts/zerothre.ttf
1658150	WORD	wordpools/wasnorm_wordpool_less_exclusions.txt	LTP209	ltpFR	5	11	0	SCENERY	1247	n/a	1	1	0.412841796875	0.57763671875	lower	../fonts/zerothre.ttf
1662311	WORD	wordpools/wasnorm_wordpool_less_exclusions.txt	LTP209	ltpFR	5	11	0	COLLEGE	346	n/a	1	1	0.412841796875	0.57763671875	lower	../fonts/zerothre.ttf
1666471	WORD	wordpools/wasnorm_wordpool_less_exclusions.txt	LTP209	ltpFR	5	11	0	MOSS	918	n/a	0	1	0.412841796875	0.57763671875	lower	../fonts/zerothre.ttf
1670432	WORD	wordpools/wasnorm_wordpool_less_exclusions.txt	LTP209	ltpFR	5	11	0	PLATE	1086	n/a	1	1	0.412841796875	0.57763671875	lower	../fonts/zerothre.ttf
1674591	WORD	wordpools/wasnorm_wordpool_less_exclusions.txt	LTP209	ltpFR	5	11	0	CAFE	216	n/a	1	1	0.412841796875	0.57763671875	lower	../fonts/zerothre.ttf
1678519	WORD	wordpools/wasnorm_wordpool_less_exclusions.txt	LTP209	ltpFR	5	11	0	BRANDY	169	n/a	1	1	0.412841796875	0.57763671875	lower	../fonts/zerothre.ttf
1684577	REC_START	n/a	LTP209	ltpFR	5	11	n/a	n/a	n/a	n/a	n/a	n/a	n/a	n/a	n/a	n/a
1685400	REC_WORD	wordpools/wasnorm_wordpool_less_exclusions.txt	LTP209	ltpFR	5	11	0	BRANDY	169	n/a	1	n/a	n/a	n/a	n/a	n/a
1686951	REC_WORD	wordpools/wasnorm_wordpool_less_exclusions.txt	LTP209	ltpFR	5	11	0	CAFE	216	n/a	1	n/a	n/a	n/a	n/a	n/a
1688837	REC_WORD	wordpools/wasnorm_wordpool_less_exclusions.txt	LTP209	ltpFR	5	11	0	ERASER	538	n/a	0	n/a	n/a	n/a	n/a	n/a
1689864	REC_WORD_VV	wordpools/wasnorm_wordpool_less_exclusions.txt	LTP209	ltpFR	5	11	n/a	<>	-1	n/a	n/a	n/a	n/a	n/a	n/a	n/a
1691072	REC_WORD	wordpools/wasnorm_wordpool_less_exclusions.txt	LTP209	ltpFR	5	11	0	BARLEY	88	n/a	0	n/a	n/a	n/a	n/a	n/a
1692768	REC_WORD	wordpools/wasnorm_wordpool_less_exclusions.txt	LTP209	ltpFR	5	11	0	BRAN	167	n/a	0	n/a	n/a	n/a	n/a	n/a
1704362	REC_WORD	wordpools/wasnorm_wordpool_less_exclusions.txt	LTP209	ltpFR	5	11	0	BRANDY	169	n/a	1	n/a	n/a	n/a	n/a	n/a
1713677	REC_WORD	wordpools/wasnorm_wordpool_less_exclusions.txt	LTP209	ltpFR	5	11	0	PLATE	1086	n/a	1	n/a	n/a	n/a	n/a	n/a
1725978	REC_WORD	wordpools/wasnorm_wordpool_less_exclusions.txt	LTP209	ltpFR	5	11	0	SCENERY	1247	n/a	1	n/a	n/a	n/a	n/a	n/a
1758149	REC_WORD	wordpools/wasnorm_wordpool_less_exclusions.txt	LTP209	ltpFR	5	11	0	HOE	711	n/a	1	n/a	n/a	n/a	n/a	n/a
1768003	WORD	wordpools/wasnorm_wordpool_less_exclusions.txt	LTP209	ltpFR	5	12	1	COUNTRY	388	n/a	0	0	0.5869140625	0.422607421875	upper	../fonts/amplitud.ttf
1772180	WORD	wordpools/wasnorm_wordpool_less_exclusions.txt	LTP209	ltpFR	5	12	1	OFFICE	972	n/a	0	0	0.5869140625	0.422607421875	upper	../fonts/amplitud.ttf
1776141	WORD	wordpools/wasnorm_wordpool_less_exclusions.txt	LTP209	ltpFR	5	12	1	PERSONNEL	1053	n/a	1	0	0.5869140625	0.422607421875	upper	../fonts/amplitud.ttf
1780335	WORD	wordpools/wasnorm_wordpool_less_exclusions.txt	LTP209	ltpFR	5	12	1	WAITER	1580	n/a	1	0	0.5869140625	0.422607421875	upper	../fonts/amplitud.ttf
1784329	WORD	wordpools/wasnorm_wordpool_less_exclusions.txt	LTP209	ltpFR	5	12	1	ASIA	46	n/a	0	0	0.5869140625	0.422607421875	upper	../fonts/amplitud.ttf
1788538	WORD	wordpools/wasnorm_wordpool_less_exclusions.txt	LTP209	ltpFR	5	12	1	PUDDLE	1140	n/a	1	0	0.5869140625	0.422607421875	upper	../fonts/amplitud.ttf
1792632	WORD	wordpools/wasnorm_wordpool_less_exclusions.txt	LTP209	ltpFR	5	12	1	TRAIN	1494	n/a	0	0	0.5869140625	0.422607421875	upper	../fonts/amplitud.ttf
1796643	WORD	wordpools/wasnorm_wordpool_less_exclusions.txt	LTP209	ltpFR	5	12	1	POSSUM	1112	n/a	1	0	0.5869140625	0.422607421875	upper	../fonts/amplitud.ttf
1800753	WORD	wordpools/wasnorm_wordpool_less_exclusions.txt	LTP209	ltpFR	5	12	1	EGG	518	n/a	1	0	0.5869140625	0.422607421875	upper	../fonts/amplitud.ttf
1804680	WORD	wordpools/wasnorm_wordpool_less_exclusions.txt	LTP209	ltpFR	5	12	1	CHICK	296	n/a	1	0	0.5869140625	0.422607421875	upper	../fonts/amplitud.ttf
1808691	WORD	wordpools/wasnorm_wordpool_less_exclusions.txt	LTP209	ltpFR	5	12	1	FURNITURE	616	n/a	0	0	0.5869140625	0.422607421875	upper	../fonts/amplitud.ttf
1812768	WORD	wordpools/wasnorm_wordpool_less_exclusions.txt	LTP209	ltpFR	5	12	1	SWATTER	1418	n/a	0	0	0.5869140625	0.422607421875	upper	../fonts/amplitud.ttf
1816963	WORD	wordpools/wasnorm_wordpool_less_exclusions.txt	LTP209	ltpFR	5	12	1	DESSERT	453	n/a	0	0	0.5869140625	0.422607421875	upper	../fonts/amplitud.ttf
1821107	WORD	wordpools/wasnorm_wordpool_less_exclusions.txt	LTP209	ltpFR	5	12	1	BRICK	172	n/a	0	0	0.5869140625	0.422607421875	upper	../fonts/amplitud.ttf
1825301	WORD	wordpools/wasnorm_wordpool_less_exclusions.txt	LTP209	ltpFR	5	12	1	LAGOON	795	n/a	0	0	0.5869140625	0.422607421875	upper	../fonts/amplitud.ttf
1829228	WORD	wordpools/wasnorm_wordpool_less_exclusions.txt	LTP209	ltpFR	5	12	1	SLIDE	1326	n/a	0	0	0.5869140625	0.422607421875	upper	../fonts/amplitud.ttf
1835020	REC_START	n/a	LTP209	ltpFR	5	12	n/a	n/a	n/a	n/a	n/a	n/a	n/a	n/a	n/a	n/a
1835463	REC_WORD	wordpools/wasnorm_wordpool_less_exclusions.txt	LTP209	ltpFR	5	12	1	SLIDE	1326	n/a	0	n/a	n/a	n/a	n/a	n/a
1836666	REC_WORD	wordpools/wasnorm_wordpool_less_exclusions.txt	LTP209	ltpFR	5	12	1	LAGOON	795	n/a	0	n/a	n/a	n/a	n/a	n/a
1837998	REC_WORD	wordpools/wasnorm_wordpool_less_exclusions.txt	LTP209	ltpFR	5	12	n/a	DESERT	-1	n/a	n/a	n/a	n/a	n/a	n/a	n/a
1839026	REC_WORD	wordpools/wasnorm_wordpool_less_exclusions.txt	LTP209	ltpFR	5	12	1	BRICK	172	n/a	0	n/a	n/a	n/a	n/a	n/a
1841964	REC_WORD	wordpools/wasnorm_wordpool_less_exclusions.txt	LTP209	ltpFR	5	12	1	WAITER	1580	n/a	1	n/a	n/a	n/a	n/a	n/a
1843535	REC_WORD	wordpools/wasnorm_wordpool_less_exclusions.txt	LTP209	ltpFR	5	12	1	OFFICE	972	n/a	0	n/a	n/a	n/a	n/a	n/a
1844534	REC_WORD	wordpools/wasnorm_wordpool_less_exclusions.txt	LTP209	ltpFR	5	12	1	PERSONNEL	1053	n/a	1	n/a	n/a	n/a	n/a	n/a
1845534	REC_WORD_VV	wordpools/wasnorm_wordpool_less_exclusions.txt	LTP209	ltpFR	5	12	n/a	<>	-1	n/a	n/a	n/a	n/a	n/a	n/a	n/a
1847590	REC_WORD_VV	wordpools/wasnorm_wordpool_less_exclusions.txt	LTP209	ltpFR	5	12	n/a	<>	-1	n/a	n/a	n/a	n/a	n/a	n/a	n/a
1848065	REC_WORD	wordpools/wasnorm_wordpool_less_exclusions.txt	LTP209	ltpFR	5	12	n/a	DESERT	-1	n/a	n/a	n/a	n/a	n/a	n/a	n/a
1910639	REST_REWET	n/a	LTP209	ltpFR	5	12	n/a	n/a	n/a	n/a	n/a	n/a	n/a	n/a	n/a	n/a
2214436	WORD	wordpools/wasnorm_wordpool_less_exclusions.txt	LTP209	ltpFR	5	13	-1	DOG	480	n/a	-1	1	1.0	1.0	upper	../fonts/Verdana.ttf
2218314	WORD	wordpools/wasnorm_wordpool_less_exclusions.txt	LTP209	ltpFR	5	13	-1	HEDGE	699	n/a	-1	1	1.0	1.0	upper	../fonts/Verdana.ttf
2222523	WORD	wordpools/wasnorm_wordpool_less_exclusions.txt	LTP209	ltpFR	5	13	-1	SEED	1266	n/a	-1	1	1.0	1.0	upper	../fonts/Verdana.ttf
2226352	WORD	wordpools/wasnorm_wordpool_less_exclusions.txt	LTP209	ltpFR	5	13	-1	DAISY	435	n/a	-1	1	1.0	1.0	upper	../fonts/Verdana.ttf
2230362	WORD	wordpools/wasnorm_wordpool_less_exclusions.txt	LTP209	ltpFR	5	13	-1	LOG	841	n/a	-1	1	1.0	1.0	upper	../fonts/Verdana.ttf
2234240	WORD	wordpools/wasnorm_wordpool_less_exclusions.txt	LTP209	ltpFR	5	13	-1	SIREN	1310	n/a	-1	1	1.0	1.0	upper	../fonts/Verdana.ttf
2238284	WORD	wordpools/wasnorm_wordpool_less_exclusions.txt	LTP209	ltpFR	5	13	-1	TOAST	1471	n/a	-1	1	1.0	1.0	upper	../fonts/Verdana.ttf
2242510	WORD	wordpools/wasnorm_wordpool_less_exclusions.txt	LTP209	ltpFR	5	13	-1	EYELASH	546	n/a	-1	1	1.0	1.0	upper	../fonts/Verdana.ttf
2246554	WORD	wordpools/wasnorm_wordpool_less_exclusions.txt	LTP209	ltpFR	5	13	-1	STEW	1380	n/a	-1	1	1.0	1.0	upper	../fonts/Verdana.ttf
2250764	WORD	wordpools/wasnorm_wordpool_less_exclusions.txt	LTP209	ltpFR	5	13	-1	ASTRONAUT	51	n/a	-1	1	1.0	1.0	upper	../fonts/Verdana.ttf
2254841	WORD	wordpools/wasnorm_wordpool_less_exclusions.txt	LTP209	ltpFR	5	13	-1	CHIP	303	n/a	-1	1	1.0	1.0	upper	../fonts/Verdana.ttf
2258702	WORD	wordpools/wasnorm_wordpool_less_exclusions.txt	LTP209	ltpFR	5	13	-1	COOKIE	374	n/a	-1	1	1.0	1.0	upper	../fonts/Verdana.ttf
2262730	WORD	wordpools/wasnorm_wordpool_less_exclusions.txt	LTP209	ltpFR	5	13	-1	GATE	625	n/a	-1	1	1.0	1.0	upper	../fonts/Verdana.ttf
2266640	WORD	wordpools/wasnorm_wordpool_less_exclusions.txt	LTP209	ltpFR	5	13	-1	ANIMAL	23	n/a	-1	1	1.0	1.0	upper	../fonts/Verdana.ttf
2270501	WORD	wordpools/wasnorm_wordpool_less_exclusions.txt	LTP209	ltpFR	5	13	-1	COMET	353	n/a	-1	1	1.0	1.0	upper	../fonts/Verdana.ttf
2274463	WORD	wordpools/wasnorm_wordpool_less_exclusions.txt	LTP209	ltpFR	5	13	-1	THERMOMETER	1453	n/a	-1	1	1.0	1.0	upper	../fonts/Verdana.ttf
2280405	REC_START	n/a	LTP209	ltpFR	5	13	n/a	n/a	n/a	n/a	n/a	n/a	n/a	n/a	n/a	n/a
2281182	REC_WORD	wordpools/wasnorm_wordpool_less_exclusions.txt	LTP209	ltpFR	5	13	-1	THERMOMETER	1453	n/a	-1	n/a	n/a	n/a	n/a	n/a
2282137	REC_WORD_VV	wordpools/wasnorm_wordpool_less_exclusions.txt	LTP209	ltpFR	5	13	n/a	<>	-1	n/a	n/a	n/a	n/a	n/a	n/a	n/a
2283253	REC_WORD	wordpools/wasnorm_wordpool_less_exclusions.txt	LTP209	ltpFR	5	13	-1	ASTRONAUT	51	n/a	-1	n/a	n/a	n/a	n/a	n/a
2285139	REC_WORD	wordpools/wasnorm_wordpool_less_exclusions.txt	LTP209	ltpFR	5	13	-1	STEW	1380	n/a	-1	n/a	n/a	n/a	n/a	n/a
2288669	REC_WORD	wordpools/wasnorm_wordpool_less_exclusions.txt	LTP209	ltpFR	5	13	-1	CHIP	303	n/a	-1	n/a	n/a	n/a	n/a	n/a
2289943	REC_WORD	wordpools/wasnorm_wordpool_less_exclusions.txt	LTP209	ltpFR	5	13	-1	COOKIE	374	n/a	-1	n/a	n/a	n/a	n/a	n/a
2291325	REC_WORD	wordpools/wasnorm_wordpool_less_exclusions.txt	LTP209	ltpFR	5	13	-1	DOG	480	n/a	-1	n/a	n/a	n/a	n/a	n/a
2292398	REC_WORD	wordpools/wasnorm_wordpool_less_exclusions.txt	LTP209	ltpFR	5	13	-1	LOG	841	n/a	-1	n/a	n/a	n/a	n/a	n/a
2294077	REC_WORD	wordpools/wasnorm_wordpool_less_exclusions.txt	LTP209	ltpFR	5	13	-1	HEDGE	699	n/a	-1	n/a	n/a	n/a	n/a	n/a
2302629	REC_WORD	wordpools/wasnorm_wordpool_less_exclusions.txt	LTP209	ltpFR	5	13	-1	EYELASH	546	n/a	-1	n/a	n/a	n/a	n/a	n/a
2309025	REC_WORD	wordpools/wasnorm_wordpool_less_exclusions.txt	LTP209	ltpFR	5	13	-1	ANIMAL	23	n/a	-1	n/a	n/a	n/a	n/a	n/a
2321407	REC_WORD	wordpools/wasnorm_wordpool_less_exclusions.txt	LTP209	ltpFR	5	13	-1	DAISY	435	n/a	-1	n/a	n/a	n/a	n/a	n/a
2365676	WORD	wordpools/wasnorm_wordpool_less_exclusions.txt	LTP209	ltpFR	5	14	-1	SLEEVE	1324	n/a	-1	1	1.0	1.0	upper	../fonts/Verdana.ttf
2369770	WORD	wordpools/wasnorm_wordpool_less_exclusions.txt	LTP209	ltpFR	5	14	-1	TROUT	1511	n/a	-1	1	1.0	1.0	upper	../fonts/Verdana.ttf
2373664	WORD	wordpools/wasnorm_wordpool_less_exclusions.txt	LTP209	ltpFR	5	14	-1	DICTATOR	462	n/a	-1	1	1.0	1.0	upper	../fonts/Verdana.ttf
2377575	WORD	wordpools/wasnorm_wordpool_less_exclusions.txt	LTP209	ltpFR	5	14	-1	FLANNEL	574	n/a	-1	1	1.0	1.0	upper	../fonts/Verdana.ttf
2381702	WORD	wordpools/wasnorm_wordpool_less_exclusions.txt	LTP209	ltpFR	5	14	-1	SMOG	1330	n/a	-1	1	1.0	1.0	upper	../fonts/Verdana.ttf
2385713	WORD	wordpools/wasnorm_wordpool_less_exclusions.txt	LTP209	ltpFR	5	14	-1	CITY	314	n/a	-1	1	1.0	1.0	upper	../fonts/Verdana.ttf
2389924	WORD	wordpools/wasnorm_wordpool_less_exclusions.txt	LTP209	ltpFR	5	14	-1	FINGER	567	n/a	-1	1	1.0	1.0	upper	../fonts/Verdana.ttf
2393784	WORD	wordpools/wasnorm_wordpool_less_exclusions.txt	LTP209	ltpFR	5	14	-1	MARGARINE	868	n/a	-1	1	1.0	1.0	upper	../fonts/Verdana.ttf
2397728	WORD	wordpools/wasnorm_wordpool_less_exclusions.txt	LTP209	ltpFR	5	14	-1	BUTTER	205	n/a	-1	1	1.0	1.0	upper	../fonts/Verdana.ttf
2401855	WORD	wordpools/wasnorm_wordpool_less_exclusions.txt	LTP209	ltpFR	5	14	-1	WORM	1623	n/a	-1	1	1.0	1.0	upper	../fonts/Verdana.ttf
2405833	WORD	wordpools/wasnorm_wordpool_less_exclusions.txt	LTP209	ltpFR	5	14	-1	GARAGE	621	n/a	-1	1	1.0	1.0	upper	../fonts/Verdana.ttf
2409843	WORD	wordpools/wasnorm_wordpool_less_exclusions.txt	LTP209	ltpFR	5	14	-1	GOWN	652	n/a	-1	1	1.0	1.0	upper	../fonts/Verdana.ttf
2413955	WORD	wordpools/wasnorm_wordpool_less_exclusions.txt	LTP209	ltpFR	5	14	-1	ALLIGATOR	16	n/a	-1	1	1.0	1.0	upper	../fonts/Verdana.ttf
2418182	WORD	wordpools/wasnorm_wordpool_less_exclusions.txt	LTP209	ltpFR	5	14	-1	PASSAGE	1019	n/a	-1	1	1.0	1.0	upper	../fonts/Verdana.ttf
2422209	WORD	wordpools/wasnorm_wordpool_less_exclusions.txt	LTP209	ltpFR	5	14	-1	PATH	1023	n/a	-1	1	1.0	1.0	upper	../fonts/Verdana.ttf
2426203	WORD	wordpools/wasnorm_wordpool_less_exclusions.txt	LTP209	ltpFR	5	14	-1	BROOK	177	n/a	-1	1	1.0	1.0	upper	../fonts/Verdana.ttf
2432112	REC_START	n/a	LTP209	ltpFR	5	14	n/a	n/a	n/a	n/a	n/a	n/a	n/a	n/a	n/a	n/a
2433184	REC_WORD	wordpools/wasnorm_wordpool_less_exclusions.txt	LTP209	ltpFR	5	14	-1	BROOK	177	n/a	-1	n/a	n/a	n/a	n/a	n/a
2434212	REC_WORD	wordpools/wasnorm_wordpool_less_exclusions.txt	LTP209	ltpFR	5	14	-1	PATH	1023	n/a	-1	n/a	n/a	n/a	n/a	n/a
2435175	REC_WORD	wordpools/wasnorm_wordpool_less_exclusions.txt	LTP209	ltpFR	5	14	-1	PASSAGE	1019	n/a	-1	n/a	n/a	n/a	n/a	n/a
2436376	REC_WORD	wordpools/wasnorm_wordpool_less_exclusions.txt	LTP209	ltpFR	5	14	-1	DICTATOR	462	n/a	-1	n/a	n/a	n/a	n/a	n/a
2437414	REC_WORD	wordpools/wasnorm_wordpool_less_exclusions.txt	LTP209	ltpFR	5	14	-1	SLEEVE	1324	n/a	-1	n/a	n/a	n/a	n/a	n/a
2438584	REC_WORD	wordpools/wasnorm_wordpool_less_exclusions.txt	LTP209	ltpFR	5	14	-1	SMOG	1330	n/a	-1	n/a	n/a	n/a	n/a	n/a
2439664	REC_WORD	wordpools/wasnorm_wordpool_less_exclusions.txt	LTP209	ltpFR	5	14	-1	CITY	314	n/a	-1	n/a	n/a	n/a	n/a	n/a
2459463	REC_WORD	wordpools/wasnorm_wordpool_less_exclusions.txt	LTP209	ltpFR	5	14	-1	FINGER	567	n/a	-1	n/a	n/a	n/a	n/a	n/a
2462982	REC_WORD	wordpools/wasnorm_wordpool_less_exclusions.txt	LTP209	ltpFR	5	14	-1	TROUT	1511	n/a	-1	n/a	n/a	n/a	n/a	n/a
2471382	REC_WORD	wordpools/wasnorm_wordpool_less_exclusions.txt	LTP209	ltpFR	5	14	-1	FLANNEL	574	n/a	-1	n/a	n/a	n/a	n/a	n/a
2478167	REC_WORD	wordpools/wasnorm_wordpool_less_exclusions.txt	LTP209	ltpFR	5	14	-1	ALLIGATOR	16	n/a	-1	n/a	n/a	n/a	n/a	n/a
2520313	WORD	wordpools/wasnorm_wordpool_less_exclusions.txt	LTP209	ltpFR	5	15	0	CHILD	299	n/a	1	1	0.412841796875	0.57763671875	lower	../fonts/zerothre.ttf
2524357	WORD	wordpools/wasnorm_wordpool_less_exclusions.txt	LTP209	ltpFR	5	15	0	VIOLIN	1571	n/a	1	1	0.412841796875	0.57763671875	lower	../fonts/zerothre.ttf
2528317	WORD	wordpools/wasnorm_wordpool_less_exclusions.txt	LTP209	ltpFR	5	15	0	BAND	78	n/a	1	1	0.412841796875	0.57763671875	lower	../fonts/zerothre.ttf
2532510	WORD	wordpools/wasnorm_wordpool_less_exclusions.txt	LTP209	ltpFR	5	15	0	SWIMMER	1420	n/a	1	1	0.412841796875	0.57763671875	lower	../fonts/zerothre.ttf
2536389	WORD	wordpools/wasnorm_wordpool_less_exclusions.txt	LTP209	ltpFR	5	15	0	DIAPER	459	n/a	0	1	0.412841796875	0.57763671875	lower	../fonts/zerothre.ttf
2540233	WORD	wordpools/wasnorm_wordpool_less_exclusions.txt	LTP209	ltpFR	5	15	1	WOLF	1619	n/a	1	0	0.5869140625	0.422607421875	upper	../fonts/amplitud.ttf
2544243	WORD	wordpools/wasnorm_wordpool_less_exclusions.txt	LTP209	ltpFR	5	15	1	WAX	1597	n/a	0	0	0.5869140625	0.422607421875	upper	../fonts/amplitud.ttf
2548254	WORD	wordpools/wasnorm_wordpool_less_exclusions.txt	LTP209	ltpFR	5	15	1	CUSTARD	429	n/a	0	0	0.5869140625	0.422607421875	upper	../fonts/amplitud.ttf
2552148	WORD	wordpools/wasnorm_wordpool_less_exclusions.txt	LTP209	ltpFR	5	15	1	PIE	1062	n/a	1	0	0.5869140625	0.422607421875	upper	../fonts/amplitud.ttf
2556342	WORD	wordpools/wasnorm_wordpool_less_exclusions.txt	LTP209	ltpFR	5	15	0	LADY	794	n/a	1	1	0.412841796875	0.57763671875	lower	../fonts/zerothre.ttf
2560386	WORD	wordpools/wasnorm_wordpool_less_exclusions.txt	LTP209	ltpFR	5	15	0	MOAT	903	n/a	0	1	0.412841796875	0.57763671875	lower	../fonts/zerothre.ttf
2564214	WORD	wordpools/wasnorm_wordpool_less_exclusions.txt	LTP209	ltpFR	5	15	0	ELEPHANT	523	n/a	1	1	0.412841796875	0.57763671875	lower	../fonts/zerothre.ttf
2568374	WORD	wordpools/wasnorm_wordpool_less_exclusions.txt	LTP209	ltpFR	5	15	1	DUNE	506	n/a	0	0	0.5869140625	0.422607421875	upper	../fonts/amplitud.ttf
2572202	WORD	wordpools/wasnorm_wordpool_less_exclusions.txt	LTP209	ltpFR	5	15	1	GUITAR	670	n/a	0	0	0.5869140625	0.422607421875	upper	../fonts/amplitud.ttf
2576063	WORD	wordpools/wasnorm_wordpool_less_exclusions.txt	LTP209	ltpFR	5	15	1	HOME	712	n/a	0	0	0.5869140625	0.422607421875	upper	../fonts/amplitud.ttf
2579957	WORD	wordpools/wasnorm_wordpool_less_exclusions.txt	LTP209	ltpFR	5	15	1	DOORBELL	487	n/a	0	0	0.5869140625	0.422607421875	upper	../fonts/amplitud.ttf
2585731	REC_START	n/a	LTP209	ltpFR	5	15	n/a	n/a	n/a	n/a	n/a	n/a	n/a	n/a	n/a	n/a
2587497	REC_WORD	wordpools/wasnorm_wordpool_less_exclusions.txt	LTP209	ltpFR	5	15	1	DOORBELL	487	n/a	0	n/a	n/a	n/a	n/a	n/a
2588583	REC_WORD	wordpools/wasnorm_wordpool_less_exclusions.txt	LTP209	ltpFR	5	15	1	HOME	712	n/a	0	n/a	n/a	n/a	n/a	n/a
2589766	REC_WORD	wordpools/wasnorm_wordpool_less_exclusions.txt	LTP209	ltpFR	5	15	1	GUITAR	670	n/a	0	n/a	n/a	n/a	n/a	n/a
2592181	REC_WORD	wordpools/wasnorm_wordpool_less_exclusions.txt	LTP209	ltpFR	5	15	0	CHILD	299	n/a	1	n/a	n/a	n/a	n/a	n/a
2593360	REC_WORD	wordpools/wasnorm_wordpool_less_exclusions.txt	LTP209	ltpFR	5	15	0	VIOLIN	1571	n/a	1	n/a	n/a	n/a	n/a	n/a
2594361	REC_WORD_VV	wordpools/wasnorm_wordpool_less_exclusions.txt	LTP209	ltpFR	5	15	n/a	<>	-1	n/a	n/a	n/a	n/a	n/a	n/a	n/a
2595249	REC_WORD	wordpools/wasnorm_wordpool_less_exclusions.txt	LTP209	ltpFR	5	15	0	SWIMMER	1420	n/a	1	n/a	n/a	n/a	n/a	n/a
2600103	REC_WORD	wordpools/wasnorm_wordpool_less_exclusions.txt	LTP209	ltpFR	5	15	1	CUSTARD	429	n/a	0	n/a	n/a	n/a	n/a	n/a
2601305	REC_WORD	wordpools/wasnorm_wordpool_less_exclusions.txt	LTP209	ltpFR	5	15	1	PIE	1062	n/a	1	n/a	n/a	n/a	n/a	n/a
2617108	REC_WORD	wordpools/wasnorm_wordpool_less_exclusions.txt	LTP209	ltpFR	5	15	1	HOME	712	n/a	0	n/a	n/a	n/a	n/a	n/a
2672036	WORD	wordpools/wasnorm_wordpool_less_exclusions.txt	LTP209	ltpFR	5	16	0	QUARTER	1148	n/a	0	1	0.412841796875	0.57763671875	lower	../fonts/zerothre.ttf
2676130	WORD	wordpools/wasnorm_wordpool_less_exclusions.txt	LTP209	ltpFR	5	16	0	SKATE	1313	n/a	0	1	0.412841796875	0.57763671875	lower	../fonts/zerothre.ttf
2680224	WORD	wordpools/wasnorm_wordpool_less_exclusions.txt	LTP209	ltpFR	5	16	0	TUSK	1523	n/a	0	1	0.412841796875	0.57763671875	lower	../fonts/zerothre.ttf
2684434	WORD	wordpools/wasnorm_wordpool_less_exclusions.txt	LTP209	ltpFR	5	16	0	GIRAFFE	636	n/a	1	1	0.412841796875	0.57763671875	lower	../fonts/zerothre.ttf
2688494	WORD	wordpools/wasnorm_wordpool_less_exclusions.txt	LTP209	ltpFR	5	16	0	SPACE	1345	n/a	1	1	0.412841796875	0.57763671875	lower	../fonts/zerothre.ttf
2692422	WORD	wordpools/wasnorm_wordpool_less_exclusions.txt	LTP209	ltpFR	5	16	0	FREEWAY	603	n/a	1	1	0.412841796875	0.57763671875	lower	../fonts/zerothre.ttf
2696532	WORD	wordpools/wasnorm_wordpool_less_exclusions.txt	LTP209	ltpFR	5	16	0	STATUE	1374	n/a	1	1	0.412841796875	0.57763671875	lower	../fonts/zerothre.ttf
2700526	WORD	wordpools/wasnorm_wordpool_less_exclusions.txt	LTP209	ltpFR	5	16	0	PAINT	1003	n/a	0	1	0.412841796875	0.57763671875	lower	../fonts/zerothre.ttf
2704421	WORD	wordpools/wasnorm_wordpool_less_exclusions.txt	LTP209	ltpFR	5	16	0	JOINT	758	n/a	0	1	0.412841796875	0.57763671875	lower	../fonts/zerothre.ttf
2708580	WORD	wordpools/wasnorm_wordpool_less_exclusions.txt	LTP209	ltpFR	5	16	0	TAXI	1438	n/a	1	1	0.412841796875	0.57763671875	lower	../fonts/zerothre.ttf
2712658	WORD	wordpools/wasnorm_wordpool_less_exclusions.txt	LTP209	ltpFR	5	16	0	BOMB	147	n/a	1	1	0.412841796875	0.57763671875	lower	../fonts/zerothre.ttf
2716518	WORD	wordpools/wasnorm_wordpool_less_exclusions.txt	LTP209	ltpFR	5	16	0	NEPTUNE	943	n/a	1	1	0.412841796875	0.57763671875	lower	../fonts/zerothre.ttf
2720596	WORD	wordpools/wasnorm_wordpool_less_exclusions.txt	LTP209	ltpFR	5	16	0	THIGH	1457	n/a	1	1	0.412841796875	0.57763671875	lower	../fonts/zerothre.ttf
2724806	WORD	wordpools/wasnorm_wordpool_less_exclusions.txt	LTP209	ltpFR	5	16	0	NAIL	936	n/a	0	1	0.412841796875	0.57763671875	lower	../fonts/zerothre.ttf
2728833	WORD	wordpools/wasnorm_wordpool_less_exclusions.txt	LTP209	ltpFR	5	16	0	CHISEL	305	n/a	0	1	0.412841796875	0.57763671875	lower	../fonts/zerothre.ttf
2733011	WORD	wordpools/wasnorm_wordpool_less_exclusions.txt	LTP209	ltpFR	5	16	0	SUGAR	1401	n/a	0	1	0.412841796875	0.57763671875	lower	../fonts/zerothre.ttf
2738753	REC_START	n/a	LTP209	ltpFR	5	16	n/a	n/a	n/a	n/a	n/a	n/a	n/a	n/a	n/a	n/a
2739725	REC_WORD	wordpools/wasnorm_wordpool_less_exclusions.txt	LTP209	ltpFR	5	16	0	SUGAR	1401	n/a	0	n/a	n/a	n/a	n/a	n/a
2741238	REC_WORD	wordpools/wasnorm_wordpool_less_exclusions.txt	LTP209	ltpFR	5	16	0	NAIL	936	n/a	0	n/a	n/a	n/a	n/a	n/a
2742474	REC_WORD	wordpools/wasnorm_wordpool_less_exclusions.txt	LTP209	ltpFR	5	16	0	CHISEL	305	n/a	0	n/a	n/a	n/a	n/a	n/a
2743860	REC_WORD	wordpools/wasnorm_wordpool_less_exclusions.txt	LTP209	ltpFR	5	16	0	THIGH	1457	n/a	1	n/a	n/a	n/a	n/a	n/a
2810215	REC_WORD	wordpools/wasnorm_wordpool_less_exclusions.txt	LTP209	ltpFR	5	16	0	TUSK	1523	n/a	0	n/a	n/a	n/a	n/a	n/a
2811597	REC_WORD	wordpools/wasnorm_wordpool_less_exclusions.txt	LTP209	ltpFR	5	16	0	GIRAFFE	636	n/a	1	n/a	n/a	n/a	n/a	n/a
2841084	REC_START	n/a	LTP209	ltpFR	5	1	n/a	n/a	n/a	n/a	n/a	n/a	n/a	n/a	n/a	n/a
2841117	RECOG_LURE	n/a	LTP209	ltpFR	5	1	n/a	PUMP	1141	2	n/a	n/a	n/a	n/a	n/a	n/a
2843453	RECOG_RESP	n/a	LTP209	ltpFR	5	1	n/a	PUMP	1141	n/a	n/a	n/a	n/a	n/a	n/a	n/a
2845339	RECOG_CONF	n/a	LTP209	ltpFR	5	1	n/a	PUMP	1141	2	n/a	n/a	n/a	n/a	n/a	n/a
2847506	RECOG_LURE	n/a	LTP209	ltpFR	5	1	n/a	TOAD	1470	5	n/a	n/a	n/a	n/a	n/a	n/a
2848193	RECOG_RESP	n/a	LTP209	ltpFR	5	1	n/a	TOAD	1470	n/a	n/a	n/a	n/a	n/a	n/a	n/a
2849510	RECOG_CONF	n/a	LTP209	ltpFR	5	1	n/a	TOAD	1470	5	n/a	n/a	n/a	n/a	n/a	n/a
2851351	RECOG_LURE	n/a	LTP209	ltpFR	5	1	n/a	RAZOR	1171	5	n/a	n/a	n/a	n/a	n/a	n/a
2852179	RECOG_RESP	n/a	LTP209	ltpFR	5	1	n/a	RAZOR	1171	n/a	n/a	n/a	n/a	n/a	n/a	n/a
2853600	RECOG_CONF	n/a	LTP209	ltpFR	5	1	n/a	RAZOR	1171	5	n/a	n/a	n/a	n/a	n/a	n/a
2855445	RECOG_LURE	n/a	LTP209	ltpFR	5	1	n/a	HOSTESS	723	1	n/a	n/a	n/a	n/a	n/a	n/a
2856713	RECOG_RESP	n/a	LTP209	ltpFR	5	1	n/a	HOSTESS	723	n/a	n/a	n/a	n/a	n/a	n/a	n/a
2858010	RECOG_CONF	n/a	LTP209	ltpFR	5	1	n/a	HOSTESS	723	1	n/a	n/a	n/a	n/a	n/a	n/a
2859905	RECOG_LURE	n/a	LTP209	ltpFR	5	1	n/a	PILL	1068	4	n/a	n/a	n/a	n/a	n/a	n/a
2860609	RECOG_RESP	n/a	LTP209	ltpFR	5	1	n/a	PILL	1068	n/a	n/a	n/a	n/a	n/a	n/a	n/a
2861921	RECOG_CONF	n/a	LTP209	ltpFR	5	1	n/a	PILL	1068	4	n/a	n/a	n/a	n/a	n/a	n/a
2863765	RECOG_LURE	n/a	LTP209	ltpFR	5	1	n/a	SHORE	1291	3	n/a	n/a	n/a	n/a	n/a	n/a
2864700	RECOG_RESP	n/a	LTP209	ltpFR	5	1	n/a	SHORE	1291	n/a	n/a	n/a	n/a	n/a	n/a	n/a
2866112	RECOG_CONF	n/a	LTP209	ltpFR	5	1	n/a	SHORE	1291	3	n/a	n/a	n/a	n/a	n/a	n/a
2867859	RECOG_TARGET	n/a	LTP209	ltpFR	5	1	-1	RACCOON	1153	5	-1	n/a	n/a	n/a	n/a	n/a
2869060	RECOG_RESP	n/a	LTP209	ltpFR	5	1	-1	RACCOON	1153	n/a	-1	n/a	n/a	n/a	n/a	n/a
2870352	RECOG_CONF	n/a	LTP209	ltpFR	5	1	-1	RACCOON	1153	5	-1	n/a	n/a	n/a	n/a	n/a
2872204	RECOG_LURE	n/a	LTP209	ltpFR	5	1	n/a	UNIFORM	1539	2	n/a	n/a	n/a	n/a	n/a	n/a
2873036	RECOG_RESP	n/a	LTP209	ltpFR	5	1	n/a	UNIFORM	1539	n/a	n/a	n/a	n/a	n/a	n/a	n/a
2874263	RECOG_CONF	n/a	LTP209	ltpFR	5	1	n/a	UNIFORM	1539	2	n/a	n/a	n/a	n/a	n/a	n/a
2875965	RECOG_LURE	n/a	LTP209	ltpFR	5	1	n/a	BONE	148	2	n/a	n/a	n/a	n/a	n/a	n/a
2877087	RECOG_RESP	n/a	LTP209	ltpFR	5	1	n/a	BONE	148	n/a	n/a	n/a	n/a	n/a	n/a	n/a
2878574	RECOG_CONF	n/a	LTP209	ltpFR	5	1	n/a	BONE	148	2	n/a	n/a	n/a	n/a	n/a	n/a
2880441	RECOG_LURE	n/a	LTP209	ltpFR	5	1	n/a	ROBIN	1199	4	n/a	n/a	n/a	n/a	n/a	n/a
2881407	RECOG_RESP	n/a	LTP209	ltpFR	5	1	n/a	ROBIN	1199	n/a	n/a	n/a	n/a	n/a	n/a	n/a
2882824	RECOG_CONF	n/a	LTP209	ltpFR	5	1	n/a	ROBIN	1199	4	n/a	n/a	n/a	n/a	n/a	n/a
2884817	RECOG_LURE	n/a	LTP209	ltpFR	5	1	n/a	SADDLE	1221	5	n/a	n/a	n/a	n/a	n/a	n/a
2885543	RECOG_RESP	n/a	LTP209	ltpFR	5	1	n/a	SADDLE	1221	n/a	n/a	n/a	n/a	n/a	n/a	n/a
2887024	RECOG_CONF	n/a	LTP209	ltpFR	5	1	n/a	SADDLE	1221	5	n/a	n/a	n/a	n/a	n/a	n/a
2888878	RECOG_TARGET	n/a	LTP209	ltpFR	5	1	-1	BRIDE	173	5	-1	n/a	n/a	n/a	n/a	n/a
2890192	RECOG_RESP	n/a	LTP209	ltpFR	5	1	-1	BRIDE	173	n/a	-1	n/a	n/a	n/a	n/a	n/a
2891654	RECOG_CONF	n/a	LTP209	ltpFR	5	1	-1	BRIDE	173	5	-1	n/a	n/a	n/a	n/a	n/a
2893554	RECOG_TARGET	n/a	LTP209	ltpFR	5	1	0	MEAT	883	5	0	n/a	n/a	n/a	n/a	n/a
2894353	RECOG_RESP	n/a	LTP209	ltpFR	5	1	0	MEAT	883	n/a	0	n/a	n/a	n/a	n/a	n/a
2895635	RECOG_CONF	n/a	LTP209	ltpFR	5	1	0	MEAT	883	5	0	n/a	n/a	n/a	n/a	n/a
2897498	RECOG_LURE	n/a	LTP209	ltpFR	5	1	n/a	LOLLIPOP	842	5	n/a	n/a	n/a	n/a	n/a	n/a
2898209	RECOG_RESP	n/a	LTP209	ltpFR	5	1	n/a	LOLLIPOP	842	n/a	n/a	n/a	n/a	n/a	n/a	n/a
2899356	RECOG_CONF	n/a	LTP209	ltpFR	5	1	n/a	LOLLIPOP	842	5	n/a	n/a	n/a	n/a	n/a	n/a
2901177	RECOG_LURE	n/a	LTP209	ltpFR	5	1	n/a	APRON	35	3	n/a	n/a	n/a	n/a	n/a	n/a
2902120	RECOG_RESP	n/a	LTP209	ltpFR	5	1	n/a	APRON	35	n/a	n/a	n/a	n/a	n/a	n/a	n/a
2903228	RECOG_CONF	n/a	LTP209	ltpFR	5	1	n/a	APRON	35	3	n/a	n/a	n/a	n/a	n/a	n/a
2905054	RECOG_TARGET	n/a	LTP209	ltpFR	5	1	-1	ANIMAL	23	5	-1	n/a	n/a	n/a	n/a	n/a
2905722	RECOG_RESP	n/a	LTP209	ltpFR	5	1	-1	ANIMAL	23	n/a	-1	n/a	n/a	n/a	n/a	n/a
2906799	RECOG_CONF	n/a	LTP209	ltpFR	5	1	-1	ANIMAL	23	5	-1	n/a	n/a	n/a	n/a	n/a
2908681	RECOG_TARGET	n/a	LTP209	ltpFR	5	1	0	ATTORNEY	58	5	1	n/a	n/a	n/a	n/a	n/a
2909438	RECOG_RESP	n/a	LTP209	ltpFR	5	1	0	ATTORNEY	58	n/a	1	n/a	n/a	n/a	n/a	n/a
2910511	RECOG_CONF	n/a	LTP209	ltpFR	5	1	0	ATTORNEY	58	5	1	n/a	n/a	n/a	n/a	n/a
2912460	RECOG_LURE	n/a	LTP209	ltpFR	5	1	n/a	SHOELACE	1289	5	n/a	n/a	n/a	n/a	n/a	n/a
2913215	RECOG_RESP	n/a	LTP209	ltpFR	5	1	n/a	SHOELACE	1289	n/a	n/a	n/a	n/a	n/a	n/a	n/a
2914312	RECOG_CONF	n/a	LTP209	ltpFR	5	1	n/a	SHOELACE	1289	5	n/a	n/a	n/a	n/a	n/a	n/a
2915887	RECOG_LURE	n/a	LTP209	ltpFR	5	1	n/a	ROUGE	1213	5	n/a	n/a	n/a	n/a	n/a	n/a
2917121	RECOG_RESP	n/a	LTP209	ltpFR	5	1	n/a	ROUGE	1213	n/a	n/a	n/a	n/a	n/a	n/a	n/a
2918323	RECOG_CONF	n/a	LTP209	ltpFR	5	1	n/a	ROUGE	1213	5	n/a	n/a	n/a	n/a	n/a	n/a
2920199	RECOG_TARGET	n/a	LTP209	ltpFR	5	1	-1	CANOE	233	1	-1	n/a	n/a	n/a	n/a	n/a
2921027	RECOG_RESP	n/a	LTP209	ltpFR	5	1	-1	CANOE	233	n/a	-1	n/a	n/a	n/a	n/a	n/a
2922334	RECOG_CONF	n/a	LTP209	ltpFR	5	1	-1	CANOE	233	1	-1	n/a	n/a	n/a	n/a	n/a
2932934	REC_START	n/a	LTP209	ltpFR	5	2	n/a	n/a	n/a	n/a	n/a	n/a	n/a	n/a	n/a	n/a
2932963	RECOG_TARGET	n/a	LTP209	ltpFR	5	2	1	COAT	333	2	0	n/a	n/a	n/a	n/a	n/a
2933882	RECOG_RESP	n/a	LTP209	ltpFR	5	2	1	COAT	333	n/a	0	n/a	n/a	n/a	n/a	n/a
2935074	RECOG_CONF	n/a	LTP209	ltpFR	5	2	1	COAT	333	2	0	n/a	n/a	n/a	n/a	n/a
2936924	RECOG_LURE	n/a	LTP209	ltpFR	5	2	n/a	WHALE	1601	4	n/a	n/a	n/a	n/a	n/a	n/a
2938057	RECOG_RESP	n/a	LTP209	ltpFR	5	2	n/a	WHALE	1601	n/a	n/a	n/a	n/a	n/a	n/a	n/a
2939424	RECOG_CONF	n/a	LTP209	ltpFR	5	2	n/a	WHALE	1601	4	n/a	n/a	n/a	n/a	n/a	n/a
2941300	RECOG_LURE	n/a	LTP209	ltpFR	5	2	n/a	TENT	1449	3	n/a	n/a	n/a	n/a	n/a	n/a
2942048	RECOG_RESP	n/a	LTP209	ltpFR	5	2	n/a	TENT	1449	n/a	n/a	n/a	n/a	n/a	n/a	n/a
2943515	RECOG_CONF	n/a	LTP209	ltpFR	5	2	n/a	TENT	1449	3	n/a	n/a	n/a	n/a	n/a	n/a
2945576	RECOG_LURE	n/a	LTP209	ltpFR	5	2	n/a	LILY	821	5	n/a	n/a	n/a	n/a	n/a	n/a
2946523	RECOG_RESP	n/a	LTP209	ltpFR	5	2	n/a	LILY	821	n/a	n/a	n/a	n/a	n/a	n/a	n/a
2948015	RECOG_CONF	n/a	LTP209	ltpFR	5	2	n/a	LILY	821	5	n/a	n/a	n/a	n/a	n/a	n/a
2950021	RECOG_TARGET	n/a	LTP209	ltpFR	5	2	0	BAND	78	5	1	n/a	n/a	n/a	n/a	n/a
2950723	RECOG_RESP	n/a	LTP209	ltpFR	5	2	0	BAND	78	n/a	1	n/a	n/a	n/a	n/a	n/a
2951936	RECOG_CONF	n/a	LTP209	ltpFR	5	2	0	BAND	78	5	1	n/a	n/a	n/a	n/a	n/a
2953932	RECOG_TARGET	n/a	LTP209	ltpFR	5	2	1	STAPLER	1372	5	0	n/a	n/a	n/a	n/a	n/a
2954570	RECOG_RESP	n/a	LTP209	ltpFR	5	2	1	STAPLER	1372	n/a	0	n/a	n/a	n/a	n/a	n/a
2955777	RECOG_CONF	n/a	LTP209	ltpFR	5	2	1	STAPLER	1372	5	0	n/a	n/a	n/a	n/a	n/a
2957575	RECOG_TARGET	n/a	LTP209	ltpFR	5	2	1	LEOPARD	812	1	1	n/a	n/a	n/a	n/a	n/a
2958615	RECOG_RESP	n/a	LTP209	ltpFR	5	2	1	LEOPARD	812	n/a	1	n/a	n/a	n/a	n/a	n/a
2960147	RECOG_CONF	n/a	LTP209	ltpFR	5	2	1	LEOPARD	812	1	1	n/a	n/a	n/a	n/a	n/a
2961986	RECOG_TARGET	n/a	LTP209	ltpFR	5	2	0	AUTHOR	61	4	1	n/a	n/a	n/a	n/a	n/a
2962706	RECOG_RESP	n/a	LTP209	ltpFR	5	2	0	AUTHOR	61	n/a	1	n/a	n/a	n/a	n/a	n/a
2964028	RECOG_CONF	n/a	LTP209	ltpFR	5	2	0	AUTHOR	61	4	1	n/a	n/a	n/a	n/a	n/a
2965829	RECOG_LURE	n/a	LTP209	ltpFR	5	2	n/a	TELEVISION	1447	2	n/a	n/a	n/a	n/a	n/a	n/a
2966652	RECOG_RESP	n/a	LTP209	ltpFR	5	2	n/a	TELEVISION	1447	n/a	n/a	n/a	n/a	n/a	n/a	n/a
2967919	RECOG_CONF	n/a	LTP209	ltpFR	5	2	n/a	TELEVISION	1447	2	n/a	n/a	n/a	n/a	n/a	n/a
2969890	RECOG_LURE	n/a	LTP209	ltpFR	5	2	n/a	HELMET	702	5	n/a	n/a	n/a	n/a	n/a	n/a
2970588	RECOG_RESP	n/a	LTP209	ltpFR	5	2	n/a	HELMET	702	n/a	n/a	n/a	n/a	n/a	n/a	n/a
2971880	RECOG_CONF	n/a	LTP209	ltpFR	5	2	n/a	HELMET	702	5	n/a	n/a	n/a	n/a	n/a	n/a
2973935	RECOG_LURE	n/a	LTP209	ltpFR	5	2	n/a	HAMPER	682	5	n/a	n/a	n/a	n/a	n/a	n/a
2974928	RECOG_RESP	n/a	LTP209	ltpFR	5	2	n/a	HAMPER	682	n/a	n/a	n/a	n/a	n/a	n/a	n/a
2976230	RECOG_CONF	n/a	LTP209	ltpFR	5	2	n/a	HAMPER	682	5	n/a	n/a	n/a	n/a	n/a	n/a
2978295	RECOG_LURE	n/a	LTP209	ltpFR	5	2	n/a	ENGINEER	536	3	n/a	n/a	n/a	n/a	n/a	n/a
2979164	RECOG_RESP	n/a	LTP209	ltpFR	5	2	n/a	ENGINEER	536	n/a	n/a	n/a	n/a	n/a	n/a	n/a
2980491	RECOG_CONF	n/a	LTP209	ltpFR	5	2	n/a	ENGINEER	536	3	n/a	n/a	n/a	n/a	n/a	n/a
2982554	RECOG_LURE	n/a	LTP209	ltpFR	5	2	n/a	BAG	69	3	n/a	n/a	n/a	n/a	n/a	n/a
2984152	RECOG_RESP	n/a	LTP209	ltpFR	5	2	n/a	BAG	69	n/a	n/a	n/a	n/a	n/a	n/a	n/a
2986108	RECOG_CONF	n/a	LTP209	ltpFR	5	2	n/a	BAG	69	3	n/a	n/a	n/a	n/a	n/a	n/a
2988913	RECOG_LURE	n/a	LTP209	ltpFR	5	2	n/a	BASKETBALL	96	5	n/a	n/a	n/a	n/a	n/a	n/a
2989974	RECOG_RESP	n/a	LTP209	ltpFR	5	2	n/a	BASKETBALL	96	n/a	n/a	n/a	n/a	n/a	n/a	n/a
2991825	RECOG_CONF	n/a	LTP209	ltpFR	5	2	n/a	BASKETBALL	96	5	n/a	n/a	n/a	n/a	n/a	n/a
2993738	RECOG_TARGET	n/a	LTP209	ltpFR	5	2	0	HIGHWAY	707	5	1	n/a	n/a	n/a	n/a	n/a
2994723	RECOG_RESP	n/a	LTP209	ltpFR	5	2	0	HIGHWAY	707	n/a	1	n/a	n/a	n/a	n/a	n/a
2996025	RECOG_CONF	n/a	LTP209	ltpFR	5	2	0	HIGHWAY	707	5	1	n/a	n/a	n/a	n/a	n/a
2997966	RECOG_TARGET	n/a	LTP209	ltpFR	5	2	1	WAX	1597	5	0	n/a	n/a	n/a	n/a	n/a
2998744	RECOG_RESP_VV	n/a	LTP209	ltpFR	5	2	1	WAX	1597	n/a	0	n/a	n/a	n/a	n/a	n/a
2999702	RECOG_RESP	n/a	LTP209	ltpFR	5	2	1	WAX	1597	n/a	0	n/a	n/a	n/a	n/a	n/a
3001393	RECOG_CONF	n/a	LTP209	ltpFR	5	2	1	WAX	1597	5	0	n/a	n/a	n/a	n/a	n/a
3003341	RECOG_LURE	n/a	LTP209	ltpFR	5	2	n/a	POND	1101	2	n/a	n/a	n/a	n/a	n/a	n/a
3004282	RECOG_RESP	n/a	LTP209	ltpFR	5	2	n/a	POND	1101	n/a	n/a	n/a	n/a	n/a	n/a	n/a
3005584	RECOG_CONF	n/a	LTP209	ltpFR	5	2	n/a	POND	1101	2	n/a	n/a	n/a	n/a	n/a	n/a
3007550	RECOG_TARGET	n/a	LTP209	ltpFR	5	2	-1	GUM	672	5	-1	n/a	n/a	n/a	n/a	n/a
3008178	RECOG_RESP	n/a	LTP209	ltpFR	5	2	-1	GUM	672	n/a	-1	n/a	n/a	n/a	n/a	n/a
3009445	RECOG_CONF	n/a	LTP209	ltpFR	5	2	-1	GUM	672	5	-1	n/a	n/a	n/a	n/a	n/a
3011544	RECOG_LURE	n/a	LTP209	ltpFR	5	2	n/a	MOP	916	1	n/a	n/a	n/a	n/a	n/a	n/a
3012438	RECOG_RESP	n/a	LTP209	ltpFR	5	2	n/a	MOP	916	n/a	n/a	n/a	n/a	n/a	n/a	n/a
3013735	RECOG_CONF	n/a	LTP209	ltpFR	5	2	n/a	MOP	916	1	n/a	n/a	n/a	n/a	n/a	n/a
3015738	RECOG_TARGET	n/a	LTP209	ltpFR	5	2	0	FREEWAY	603	5	1	n/a	n/a	n/a	n/a	n/a
3016499	RECOG_RESP	n/a	LTP209	ltpFR	5	2	0	FREEWAY	603	n/a	1	n/a	n/a	n/a	n/a	n/a
3017756	RECOG_CONF	n/a	LTP209	ltpFR	5	2	0	FREEWAY	603	5	1	n/a	n/a	n/a	n/a	n/a
3034678	REC_START	n/a	LTP209	ltpFR	5	3	n/a	n/a	n/a	n/a	n/a	n/a	n/a	n/a	n/a	n/a
3034710	RECOG_TARGET	n/a	LTP209	ltpFR	5	3	1	TECHNICIAN	1443	2	1	n/a	n/a	n/a	n/a	n/a
3035870	RECOG_RESP	n/a	LTP209	ltpFR	5	3	1	TECHNICIAN	1443	n/a	1	n/a	n/a	n/a	n/a	n/a
3037247	RECOG_CONF	n/a	LTP209	ltpFR	5	3	1	TECHNICIAN	1443	2	1	n/a	n/a	n/a	n/a	n/a
3039121	RECOG_TARGET	n/a	LTP209	ltpFR	5	3	0	VILLAGE	1566	1	1	n/a	n/a	n/a	n/a	n/a
3040280	RECOG_RESP_VV	n/a	LTP209	ltpFR	5	3	0	VILLAGE	1566	n/a	1	n/a	n/a	n/a	n/a	n/a
3041886	RECOG_RESP	n/a	LTP209	ltpFR	5	3	0	VILLAGE	1566	n/a	1	n/a	n/a	n/a	n/a	n/a
3045279	RECOG_CONF	n/a	LTP209	ltpFR	5	3	0	VILLAGE	1566	1	1	n/a	n/a	n/a	n/a	n/a
3047242	RECOG_TARGET	n/a	LTP209	ltpFR	5	3	0	KEG	770	5	1	n/a	n/a	n/a	n/a	n/a
3047933	RECOG_RESP	n/a	LTP209	ltpFR	5	3	0	KEG	770	n/a	1	n/a	n/a	n/a	n/a	n/a
3048960	RECOG_CONF	n/a	LTP209	ltpFR	5	3	0	KEG	770	5	1	n/a	n/a	n/a	n/a	n/a
3050803	RECOG_LURE	n/a	LTP209	ltpFR	5	3	n/a	BUILDING	191	2	n/a	n/a	n/a	n/a	n/a	n/a
3051599	RECOG_RESP	n/a	LTP209	ltpFR	5	3	n/a	BUILDING	191	n/a	n/a	n/a	n/a	n/a	n/a	n/a
3052842	RECOG_CONF	n/a	LTP209	ltpFR	5	3	n/a	BUILDING	191	2	n/a	n/a	n/a	n/a	n/a	n/a
3054647	RECOG_LURE	n/a	LTP209	ltpFR	5	3	n/a	PLAYGROUND	1087	5	n/a	n/a	n/a	n/a	n/a	n/a
3055361	RECOG_RESP	n/a	LTP209	ltpFR	5	3	n/a	PLAYGROUND	1087	n/a	n/a	n/a	n/a	n/a	n/a	n/a
3056673	RECOG_CONF	n/a	LTP209	ltpFR	5	3	n/a	PLAYGROUND	1087	5	n/a	n/a	n/a	n/a	n/a	n/a
3058442	RECOG_TARGET	n/a	LTP209	ltpFR	5	3	-1	PASSAGE	1019	5	-1	n/a	n/a	n/a	n/a	n/a
3059127	RECOG_RESP	n/a	LTP209	ltpFR	5	3	-1	PASSAGE	1019	n/a	-1	n/a	n/a	n/a	n/a	n/a
3060305	RECOG_CONF	n/a	LTP209	ltpFR	5	3	-1	PASSAGE	1019	5	-1	n/a	n/a	n/a	n/a	n/a
3062053	RECOG_TARGET	n/a	LTP209	ltpFR	5	3	-1	SMOG	1330	5	-1	n/a	n/a	n/a	n/a	n/a
3062694	RECOG_RESP	n/a	LTP209	ltpFR	5	3	-1	SMOG	1330	n/a	-1	n/a	n/a	n/a	n/a	n/a
3063757	RECOG_CONF	n/a	LTP209	ltpFR	5	3	-1	SMOG	1330	5	-1	n/a	n/a	n/a	n/a	n/a
3065597	RECOG_TARGET	n/a	LTP209	ltpFR	5	3	-1	RUM	1217	5	-1	n/a	n/a	n/a	n/a	n/a
3066186	RECOG_RESP	n/a	LTP209	ltpFR	5	3	-1	RUM	1217	n/a	-1	n/a	n/a	n/a	n/a	n/a
3067329	RECOG_CONF	n/a	LTP209	ltpFR	5	3	-1	RUM	1217	5	-1	n/a	n/a	n/a	n/a	n/a
3069126	RECOG_LURE	n/a	LTP209	ltpFR	5	3	n/a	OATS	968	4	n/a	n/a	n/a	n/a	n/a	n/a
3070866	RECOG_RESP	n/a	LTP209	ltpFR	5	3	n/a	OATS	968	n/a	n/a	n/a	n/a	n/a	n/a	n/a
3072397	RECOG_CONF	n/a	LTP209	ltpFR	5	3	n/a	OATS	968	4	n/a	n/a	n/a	n/a	n/a	n/a
3074468	RECOG_LURE	n/a	LTP209	ltpFR	5	3	n/a	STICKER	1382	4	n/a	n/a	n/a	n/a	n/a	n/a
3075231	RECOG_RESP	n/a	LTP209	ltpFR	5	3	n/a	STICKER	1382	n/a	n/a	n/a	n/a	n/a	n/a	n/a
3077456	RECOG_CONF	n/a	LTP209	ltpFR	5	3	n/a	STICKER	1382	4	n/a	n/a	n/a	n/a	n/a	n/a
3079461	RECOG_TARGET	n/a	LTP209	ltpFR	5	3	1	EAR	513	1	1	n/a	n/a	n/a	n/a	n/a
3080329	RECOG_RESP	n/a	LTP209	ltpFR	5	3	1	EAR	513	n/a	1	n/a	n/a	n/a	n/a	n/a
3082125	RECOG_CONF	n/a	LTP209	ltpFR	5	3	1	EAR	513	1	1	n/a	n/a	n/a	n/a	n/a
3084087	RECOG_LURE	n/a	LTP209	ltpFR	5	3	n/a	CINNAMON	310	5	n/a	n/a	n/a	n/a	n/a	n/a
3084849	RECOG_RESP	n/a	LTP209	ltpFR	5	3	n/a	CINNAMON	310	n/a	n/a	n/a	n/a	n/a	n/a	n/a
3086196	RECOG_CONF	n/a	LTP209	ltpFR	5	3	n/a	CINNAMON	310	5	n/a	n/a	n/a	n/a	n/a	n/a
3087998	RECOG_TARGET	n/a	LTP209	ltpFR	5	3	1	DOLPHIN	483	5	1	n/a	n/a	n/a	n/a	n/a
3088615	RECOG_RESP	n/a	LTP209	ltpFR	5	3	1	DOLPHIN	483	n/a	1	n/a	n/a	n/a	n/a	n/a
3089917	RECOG_CONF	n/a	LTP209	ltpFR	5	3	1	DOLPHIN	483	5	1	n/a	n/a	n/a	n/a	n/a
3092158	RECOG_LURE	n/a	LTP209	ltpFR	5	3	n/a	PAINTER	1004	5	n/a	n/a	n/a	n/a	n/a	n/a
3093928	RECOG_RESP	n/a	LTP209	ltpFR	5	3	n/a	PAINTER	1004	n/a	n/a	n/a	n/a	n/a	n/a	n/a
3096023	RECOG_CONF	n/a	LTP209	ltpFR	5	3	n/a	PAINTER	1004	5	n/a	n/a	n/a	n/a	n/a	n/a
3097766	RECOG_LURE	n/a	LTP209	ltpFR	5	3	n/a	FUDGE	611	2	n/a	n/a	n/a	n/a	n/a	n/a
3098543	RECOG_RESP	n/a	LTP209	ltpFR	5	3	n/a	FUDGE	611	n/a	n/a	n/a	n/a	n/a	n/a	n/a
3099924	RECOG_CONF	n/a	LTP209	ltpFR	5	3	n/a	FUDGE	611	2	n/a	n/a	n/a	n/a	n/a	n/a
3101843	RECOG_LURE	n/a	LTP209	ltpFR	5	3	n/a	BACKBONE	66	5	n/a	n/a	n/a	n/a	n/a	n/a
3102658	RECOG_RESP	n/a	LTP209	ltpFR	5	3	n/a	BACKBONE	66	n/a	n/a	n/a	n/a	n/a	n/a	n/a
3104005	RECOG_CONF	n/a	LTP209	ltpFR	5	3	n/a	BACKBONE	66	5	n/a	n/a	n/a	n/a	n/a	n/a
3106221	RECOG_TARGET	n/a	LTP209	ltpFR	5	3	0	TWIN	1528	5	1	n/a	n/a	n/a	n/a	n/a
3107018	RECOG_RESP	n/a	LTP209	ltpFR	5	3	0	TWIN	1528	n/a	1	n/a	n/a	n/a	n/a	n/a
3108266	RECOG_CONF	n/a	LTP209	ltpFR	5	3	0	TWIN	1528	5	1	n/a	n/a	n/a	n/a	n/a
3110497	RECOG_TARGET	n/a	LTP209	ltpFR	5	3	1	CHAMPAGNE	278	5	0	n/a	n/a	n/a	n/a	n/a
3111199	RECOG_RESP	n/a	LTP209	ltpFR	5	3	1	CHAMPAGNE	278	n/a	0	n/a	n/a	n/a	n/a	n/a
3112566	RECOG_CONF	n/a	LTP209	ltpFR	5	3	1	CHAMPAGNE	278	5	0	n/a	n/a	n/a	n/a	n/a
3114392	RECOG_LURE	n/a	LTP209	ltpFR	5	3	n/a	SUN	1406	1	n/a	n/a	n/a	n/a	n/a	n/a
3115290	RECOG_RESP	n/a	LTP209	ltpFR	5	3	n/a	SUN	1406	n/a	n/a	n/a	n/a	n/a	n/a	n/a
3116996	RECOG_CONF	n/a	LTP209	ltpFR	5	3	n/a	SUN	1406	1	n/a	n/a	n/a	n/a	n/a	n/a
3118902	RECOG_TARGET	n/a	LTP209	ltpFR	5	3	1	WAITER	1580	5	1	n/a	n/a	n/a	n/a	n/a
3119610	RECOG_RESP	n/a	LTP209	ltpFR	5	3	1	WAITER	1580	n/a	1	n/a	n/a	n/a	n/a	n/a
3120917	RECOG_CONF	n/a	LTP209	ltpFR	5	3	1	WAITER	1580	5	1	n/a	n/a	n/a	n/a	n/a
3139798	REC_START	n/a	LTP209	ltpFR	5	4	n/a	n/a	n/a	n/a	n/a	n/a	n/a	n/a	n/a	n/a
3139836	RECOG_LURE	n/a	LTP209	ltpFR	5	4	n/a	VAN	1548	2	n/a	n/a	n/a	n/a	n/a	n/a
3141723	RECOG_RESP	n/a	LTP209	ltpFR	5	4	n/a	VAN	1548	n/a	n/a	n/a	n/a	n/a	n/a	n/a
3143015	RECOG_CONF	n/a	LTP209	ltpFR	5	4	n/a	VAN	1548	2	n/a	n/a	n/a	n/a	n/a	n/a
3144829	RECOG_TARGET	n/a	LTP209	ltpFR	5	4	1	PLAID	1080	5	0	n/a	n/a	n/a	n/a	n/a
3145545	RECOG_RESP	n/a	LTP209	ltpFR	5	4	1	PLAID	1080	n/a	0	n/a	n/a	n/a	n/a	n/a
3146547	RECOG_CONF	n/a	LTP209	ltpFR	5	4	1	PLAID	1080	5	0	n/a	n/a	n/a	n/a	n/a
3148490	RECOG_LURE	n/a	LTP209	ltpFR	5	4	n/a	SWING	1421	4	n/a	n/a	n/a	n/a	n/a	n/a
3149401	RECOG_RESP	n/a	LTP209	ltpFR	5	4	n/a	SWING	1421	n/a	n/a	n/a	n/a	n/a	n/a	n/a
3150538	RECOG_CONF	n/a	LTP209	ltpFR	5	4	n/a	SWING	1421	4	n/a	n/a	n/a	n/a	n/a	n/a
3152534	RECOG_LURE	n/a	LTP209	ltpFR	5	4	n/a	VEGETABLE	1552	5	n/a	n/a	n/a	n/a	n/a	n/a
3153232	RECOG_RESP	n/a	LTP209	ltpFR	5	4	n/a	VEGETABLE	1552	n/a	n/a	n/a	n/a	n/a	n/a	n/a
3154410	RECOG_CONF	n/a	LTP209	ltpFR	5	4	n/a	VEGETABLE	1552	5	n/a	n/a	n/a	n/a	n/a	n/a
3156379	RECOG_TARGET	n/a	LTP209	ltpFR	5	4	1	DICTIONARY	463	5	0	n/a	n/a	n/a	n/a	n/a
3156989	RECOG_RESP	n/a	LTP209	ltpFR	5	4	1	DICTIONARY	463	n/a	0	n/a	n/a	n/a	n/a	n/a
3158261	RECOG_CONF	n/a	LTP209	ltpFR	5	4	1	DICTIONARY	463	5	0	n/a	n/a	n/a	n/a	n/a
3160223	RECOG_LURE	n/a	LTP209	ltpFR	5	4	n/a	SKELETON	1314	1	n/a	n/a	n/a	n/a	n/a	n/a
3161039	RECOG_RESP	n/a	LTP209	ltpFR	5	4	n/a	SKELETON	1314	n/a	n/a	n/a	n/a	n/a	n/a	n/a
3162441	RECOG_CONF	n/a	LTP209	ltpFR	5	4	n/a	SKELETON	1314	1	n/a	n/a	n/a	n/a	n/a	n/a
3164400	RECOG_TARGET	n/a	LTP209	ltpFR	5	4	0	TOTE	1487	5	0	n/a	n/a	n/a	n/a	n/a
3165010	RECOG_RESP	n/a	LTP209	ltpFR	5	4	0	TOTE	1487	n/a	0	n/a	n/a	n/a	n/a	n/a
3166193	RECOG_CONF	n/a	LTP209	ltpFR	5	4	0	TOTE	1487	5	0	n/a	n/a	n/a	n/a	n/a
3168228	RECOG_LURE	n/a	LTP209	ltpFR	5	4	n/a	HELICOPTER	701	1	n/a	n/a	n/a	n/a	n/a	n/a
3169116	RECOG_RESP	n/a	LTP209	ltpFR	5	4	n/a	HELICOPTER	701	n/a	n/a	n/a	n/a	n/a	n/a	n/a
3170453	RECOG_CONF	n/a	LTP209	ltpFR	5	4	n/a	HELICOPTER	701	1	n/a	n/a	n/a	n/a	n/a	n/a
3172322	RECOG_LURE	n/a	LTP209	ltpFR	5	4	n/a	CONCERT	360	4	n/a	n/a	n/a	n/a	n/a	n/a
3173711	RECOG_RESP	n/a	LTP209	ltpFR	5	4	n/a	CONCERT	360	n/a	n/a	n/a	n/a	n/a	n/a	n/a
3175073	RECOG_CONF	n/a	LTP209	ltpFR	5	4	n/a	CONCERT	360	4	n/a	n/a	n/a	n/a	n/a	n/a
3176915	RECOG_TARGET	n/a	LTP209	ltpFR	5	4	1	REPTILE	1185	5	1	n/a	n/a	n/a	n/a	n/a
3177747	RECOG_RESP	n/a	LTP209	ltpFR	5	4	1	REPTILE	1185	n/a	1	n/a	n/a	n/a	n/a	n/a
3179054	RECOG_CONF	n/a	LTP209	ltpFR	5	4	1	REPTILE	1185	5	1	n/a	n/a	n/a	n/a	n/a
3181042	RECOG_LURE	n/a	LTP209	ltpFR	5	4	n/a	PENNY	1045	5	n/a	n/a	n/a	n/a	n/a	n/a
3181902	RECOG_RESP	n/a	LTP209	ltpFR	5	4	n/a	PENNY	1045	n/a	n/a	n/a	n/a	n/a	n/a	n/a
3183045	RECOG_CONF	n/a	LTP209	ltpFR	5	4	n/a	PENNY	1045	5	n/a	n/a	n/a	n/a	n/a	n/a
3184936	RECOG_TARGET	n/a	LTP209	ltpFR	5	4	-1	SUPERMARKET	1409	5	-1	n/a	n/a	n/a	n/a	n/a
3185659	RECOG_RESP	n/a	LTP209	ltpFR	5	4	-1	SUPERMARKET	1409	n/a	-1	n/a	n/a	n/a	n/a	n/a
3186866	RECOG_CONF	n/a	LTP209	ltpFR	5	4	-1	SUPERMARKET	1409	5	-1	n/a	n/a	n/a	n/a	n/a
3188713	RECOG_TARGET	n/a	LTP209	ltpFR	5	4	1	MERMAID	887	5	1	n/a	n/a	n/a	n/a	n/a
3189415	RECOG_RESP	n/a	LTP209	ltpFR	5	4	1	MERMAID	887	n/a	1	n/a	n/a	n/a	n/a	n/a
3190557	RECOG_CONF	n/a	LTP209	ltpFR	5	4	1	MERMAID	887	5	1	n/a	n/a	n/a	n/a	n/a
3192392	RECOG_TARGET	n/a	LTP209	ltpFR	5	4	1	SHEEP	1278	5	1	n/a	n/a	n/a	n/a	n/a
3193007	RECOG_RESP	n/a	LTP209	ltpFR	5	4	1	SHEEP	1278	n/a	1	n/a	n/a	n/a	n/a	n/a
3194139	RECOG_CONF	n/a	LTP209	ltpFR	5	4	1	SHEEP	1278	5	1	n/a	n/a	n/a	n/a	n/a
3195937	RECOG_LURE	n/a	LTP209	ltpFR	5	4	n/a	SODA	1341	1	n/a	n/a	n/a	n/a	n/a	n/a
3197028	RECOG_RESP	n/a	LTP209	ltpFR	5	4	n/a	SODA	1341	n/a	n/a	n/a	n/a	n/a	n/a	n/a
3198380	RECOG_CONF	n/a	LTP209	ltpFR	5	4	n/a	SODA	1341	1	n/a	n/a	n/a	n/a	n/a	n/a
3200380	RECOG_LURE	n/a	LTP209	ltpFR	5	4	n/a	LIME	823	5	n/a	n/a	n/a	n/a	n/a	n/a
3202401	RECOG_RESP	n/a	LTP209	ltpFR	5	4	n/a	LIME	823	n/a	n/a	n/a	n/a	n/a	n/a	n/a
3203598	RECOG_CONF	n/a	LTP209	ltpFR	5	4	n/a	LIME	823	5	n/a	n/a	n/a	n/a	n/a	n/a
3205788	RECOG_TARGET	n/a	LTP209	ltpFR	5	4	-1	SANDWICH	1232	5	-1	n/a	n/a	n/a	n/a	n/a
3206511	RECOG_RESP	n/a	LTP209	ltpFR	5	4	-1	SANDWICH	1232	n/a	-1	n/a	n/a	n/a	n/a	n/a
3207868	RECOG_CONF	n/a	LTP209	ltpFR	5	4	-1	SANDWICH	1232	5	-1	n/a	n/a	n/a	n/a	n/a
3209782	RECOG_TARGET	n/a	LTP209	ltpFR	5	4	-1	ASTRONAUT	51	5	-1	n/a	n/a	n/a	n/a	n/a
3210417	RECOG_RESP	n/a	LTP209	ltpFR	5	4	-1	ASTRONAUT	51	n/a	-1	n/a	n/a	n/a	n/a	n/a
3211679	RECOG_CONF	n/a	LTP209	ltpFR	5	4	-1	ASTRONAUT	51	5	-1	n/a	n/a	n/a	n/a	n/a
3213593	RECOG_LURE	n/a	LTP209	ltpFR	5	4	n/a	BULLY	196	5	n/a	n/a	n/a	n/a	n/a	n/a
3214293	RECOG_RESP	n/a	LTP209	ltpFR	5	4	n/a	BULLY	196	n/a	n/a	n/a	n/a	n/a	n/a	n/a
3215720	RECOG_CONF	n/a	LTP209	ltpFR	5	4	n/a	BULLY	196	5	n/a	n/a	n/a	n/a	n/a	n/a
3217786	RECOG_LURE	n/a	LTP209	ltpFR	5	4	n/a	STAIRS	1367	5	n/a	n/a	n/a	n/a	n/a	n/a
3218539	RECOG_RESP	n/a	LTP209	ltpFR	5	4	n/a	STAIRS	1367	n/a	n/a	n/a	n/a	n/a	n/a	n/a
3220060	RECOG_CONF	n/a	LTP209	ltpFR	5	4	n/a	STAIRS	1367	5	n/a	n/a	n/a	n/a	n/a	n/a
3235995	REC_START	n/a	LTP209	ltpFR	5	5	n/a	n/a	n/a	n/a	n/a	n/a	n/a	n/a	n/a	n/a
3236027	RECOG_TARGET	n/a	LTP209	ltpFR	5	5	1	BOOTH	151	5	1	n/a	n/a	n/a	n/a	n/a
3236933	RECOG_RESP	n/a	LTP209	ltpFR	5	5	1	BOOTH	151	n/a	1	n/a	n/a	n/a	n/a	n/a
3238095	RECOG_CONF	n/a	LTP209	ltpFR	5	5	1	BOOTH	151	5	1	n/a	n/a	n/a	n/a	n/a
3240054	RECOG_TARGET	n/a	LTP209	ltpFR	5	5	0	REFRIGERATOR	1179	4	1	n/a	n/a	n/a	n/a	n/a
3240954	RECOG_RESP	n/a	LTP209	ltpFR	5	5	0	REFRIGERATOR	1179	n/a	1	n/a	n/a	n/a	n/a	n/a
3242036	RECOG_CONF	n/a	LTP209	ltpFR	5	5	0	REFRIGERATOR	1179	4	1	n/a	n/a	n/a	n/a	n/a
3243814	RECOG_LURE	n/a	LTP209	ltpFR	5	5	n/a	GRIZZLY	662	5	n/a	n/a	n/a	n/a	n/a	n/a
3244745	RECOG_RESP	n/a	LTP209	ltpFR	5	5	n/a	GRIZZLY	662	n/a	n/a	n/a	n/a	n/a	n/a	n/a
3245997	RECOG_CONF	n/a	LTP209	ltpFR	5	5	n/a	GRIZZLY	662	5	n/a	n/a	n/a	n/a	n/a	n/a
3247942	RECOG_LURE	n/a	LTP209	ltpFR	5	5	n/a	PIER	1063	2	n/a	n/a	n/a	n/a	n/a	n/a
3248965	RECOG_RESP	n/a	LTP209	ltpFR	5	5	n/a	PIER	1063	n/a	n/a	n/a	n/a	n/a	n/a	n/a
3250467	RECOG_CONF	n/a	LTP209	ltpFR	5	5	n/a	PIER	1063	2	n/a	n/a	n/a	n/a	n/a	n/a
3252501	RECOG_LURE	n/a	LTP209	ltpFR	5	5	n/a	SHEET	1279	1	n/a	n/a	n/a	n/a	n/a	n/a
3254498	RECOG_RESP	n/a	LTP209	ltpFR	5	5	n/a	SHEET	1279	n/a	n/a	n/a	n/a	n/a	n/a	n/a
3256493	RECOG_CONF	n/a	LTP209	ltpFR	5	5	n/a	SHEET	1279	1	n/a	n/a	n/a	n/a	n/a	n/a
3258492	RECOG_LURE	n/a	LTP209	ltpFR	5	5	n/a	NUT	965	5	n/a	n/a	n/a	n/a	n/a	n/a
3259252	RECOG_RESP	n/a	LTP209	ltpFR	5	5	n/a	NUT	965	n/a	n/a	n/a	n/a	n/a	n/a	n/a
3260524	RECOG_CONF	n/a	LTP209	ltpFR	5	5	n/a	NUT	965	5	n/a	n/a	n/a	n/a	n/a	n/a
3262586	RECOG_LURE	n/a	LTP209	ltpFR	5	5	n/a	COUNTY	389	5	n/a	n/a	n/a	n/a	n/a	n/a
3263577	RECOG_RESP	n/a	LTP209	ltpFR	5	5	n/a	COUNTY	389	n/a	n/a	n/a	n/a	n/a	n/a	n/a
3264735	RECOG_CONF	n/a	LTP209	ltpFR	5	5	n/a	COUNTY	389	5	n/a	n/a	n/a	n/a	n/a	n/a
3266613	RECOG_TARGET	n/a	LTP209	ltpFR	5	5	0	PILLOW	1069	5	1	n/a	n/a	n/a	n/a	n/a
3267304	RECOG_RESP	n/a	LTP209	ltpFR	5	5	0	PILLOW	1069	n/a	1	n/a	n/a	n/a	n/a	n/a
3268586	RECOG_CONF	n/a	LTP209	ltpFR	5	5	0	PILLOW	1069	5	1	n/a	n/a	n/a	n/a	n/a
3270757	RECOG_TARGET	n/a	LTP209	ltpFR	5	5	0	ACROBAT	4	5	1	n/a	n/a	n/a	n/a	n/a
3271594	RECOG_RESP	n/a	LTP209	ltpFR	5	5	0	ACROBAT	4	n/a	1	n/a	n/a	n/a	n/a	n/a
3273145	RECOG_CONF	n/a	LTP209	ltpFR	5	5	0	ACROBAT	4	5	1	n/a	n/a	n/a	n/a	n/a
3275069	RECOG_LURE	n/a	LTP209	ltpFR	5	5	n/a	DISHWASHER	475	4	n/a	n/a	n/a	n/a	n/a	n/a
3275869	RECOG_RESP	n/a	LTP209	ltpFR	5	5	n/a	DISHWASHER	475	n/a	n/a	n/a	n/a	n/a	n/a	n/a
3277206	RECOG_CONF	n/a	LTP209	ltpFR	5	5	n/a	DISHWASHER	475	4	n/a	n/a	n/a	n/a	n/a	n/a
3279013	RECOG_TARGET	n/a	LTP209	ltpFR	5	5	1	TROPHY	1509	5	0	n/a	n/a	n/a	n/a	n/a
3279795	RECOG_RESP	n/a	LTP209	ltpFR	5	5	1	TROPHY	1509	n/a	0	n/a	n/a	n/a	n/a	n/a
3281077	RECOG_CONF	n/a	LTP209	ltpFR	5	5	1	TROPHY	1509	5	0	n/a	n/a	n/a	n/a	n/a
3283522	RECOG_LURE	n/a	LTP209	ltpFR	5	5	n/a	FRECKLE	602	5	n/a	n/a	n/a	n/a	n/a	n/a
3284315	RECOG_RESP	n/a	LTP209	ltpFR	5	5	n/a	FRECKLE	602	n/a	n/a	n/a	n/a	n/a	n/a	n/a
3285447	RECOG_CONF	n/a	LTP209	ltpFR	5	5	n/a	FRECKLE	602	5	n/a	n/a	n/a	n/a	n/a	n/a
3287284	RECOG_LURE	n/a	LTP209	ltpFR	5	5	n/a	SCALPEL	1243	5	n/a	n/a	n/a	n/a	n/a	n/a
3288281	RECOG_RESP	n/a	LTP209	ltpFR	5	5	n/a	SCALPEL	1243	n/a	n/a	n/a	n/a	n/a	n/a	n/a
3289428	RECOG_CONF	n/a	LTP209	ltpFR	5	5	n/a	SCALPEL	1243	5	n/a	n/a	n/a	n/a	n/a	n/a
3291228	RECOG_TARGET	n/a	LTP209	ltpFR	5	5	0	PLIERS	1089	5	0	n/a	n/a	n/a	n/a	n/a
3292017	RECOG_RESP	n/a	LTP209	ltpFR	5	5	0	PLIERS	1089	n/a	0	n/a	n/a	n/a	n/a	n/a
3293120	RECOG_CONF	n/a	LTP209	ltpFR	5	5	0	PLIERS	1089	5	0	n/a	n/a	n/a	n/a	n/a
3294888	RECOG_TARGET	n/a	LTP209	ltpFR	5	5	0	RASPBERRY	1168	5	0	n/a	n/a	n/a	n/a	n/a
3295554	RECOG_RESP	n/a	LTP209	ltpFR	5	5	0	RASPBERRY	1168	n/a	0	n/a	n/a	n/a	n/a	n/a
3296672	RECOG_CONF	n/a	LTP209	ltpFR	5	5	0	RASPBERRY	1168	5	0	n/a	n/a	n/a	n/a	n/a
3298384	RECOG_LURE	n/a	LTP209	ltpFR	5	5	n/a	SEAFOOD	1260	5	n/a	n/a	n/a	n/a	n/a	n/a
3299071	RECOG_RESP	n/a	LTP209	ltpFR	5	5	n/a	SEAFOOD	1260	n/a	n/a	n/a	n/a	n/a	n/a	n/a
3300304	RECOG_CONF	n/a	LTP209	ltpFR	5	5	n/a	SEAFOOD	1260	5	n/a	n/a	n/a	n/a	n/a	n/a
3302411	RECOG_LURE	n/a	LTP209	ltpFR	5	5	n/a	DRUM	502	5	n/a	n/a	n/a	n/a	n/a	n/a
3303277	RECOG_RESP	n/a	LTP209	ltpFR	5	5	n/a	DRUM	502	n/a	n/a	n/a	n/a	n/a	n/a	n/a
3304514	RECOG_CONF	n/a	LTP209	ltpFR	5	5	n/a	DRUM	502	5	n/a	n/a	n/a	n/a	n/a	n/a
3306488	RECOG_TARGET	n/a	LTP209	ltpFR	5	5	-1	RECIPE	1175	5	-1	n/a	n/a	n/a	n/a	n/a
3307283	RECOG_RESP	n/a	LTP209	ltpFR	5	5	-1	RECIPE	1175	n/a	-1	n/a	n/a	n/a	n/a	n/a
3308465	RECOG_CONF	n/a	LTP209	ltpFR	5	5	-1	RECIPE	1175	5	-1	n/a	n/a	n/a	n/a	n/a
3310432	RECOG_LURE	n/a	LTP209	ltpFR	5	5	n/a	BUTLER	204	5	n/a	n/a	n/a	n/a	n/a	n/a
3311249	RECOG_RESP	n/a	LTP209	ltpFR	5	5	n/a	BUTLER	204	n/a	n/a	n/a	n/a	n/a	n/a	n/a
3312466	RECOG_CONF	n/a	LTP209	ltpFR	5	5	n/a	BUTLER	204	5	n/a	n/a	n/a	n/a	n/a	n/a
3314492	RECOG_TARGET	n/a	LTP209	ltpFR	5	5	1	CHICK	296	3	1	n/a	n/a	n/a	n/a	n/a
3315205	RECOG_RESP	n/a	LTP209	ltpFR	5	5	1	CHICK	296	n/a	1	n/a	n/a	n/a	n/a	n/a
3316637	RECOG_CONF	n/a	LTP209	ltpFR	5	5	1	CHICK	296	3	1	n/a	n/a	n/a	n/a	n/a
3328561	REC_START	n/a	LTP209	ltpFR	5	6	n/a	n/a	n/a	n/a	n/a	n/a	n/a	n/a	n/a	n/a
3328588	RECOG_LURE	n/a	LTP209	ltpFR	5	6	n/a	SKUNK	1321	1	n/a	n/a	n/a	n/a	n/a	n/a
3329404	RECOG_RESP	n/a	LTP209	ltpFR	5	6	n/a	SKUNK	1321	n/a	n/a	n/a	n/a	n/a	n/a	n/a
3330501	RECOG_CONF	n/a	LTP209	ltpFR	5	6	n/a	SKUNK	1321	1	n/a	n/a	n/a	n/a	n/a	n/a
3332333	RECOG_LURE	n/a	LTP209	ltpFR	5	6	n/a	TRANSPLANT	1496	5	n/a	n/a	n/a	n/a	n/a	n/a
3333095	RECOG_RESP	n/a	LTP209	ltpFR	5	6	n/a	TRANSPLANT	1496	n/a	n/a	n/a	n/a	n/a	n/a	n/a
3334173	RECOG_CONF	n/a	LTP209	ltpFR	5	6	n/a	TRANSPLANT	1496	5	n/a	n/a	n/a	n/a	n/a	n/a
3336094	RECOG_TARGET	n/a	LTP209	ltpFR	5	6	0	SPACE	1345	5	1	n/a	n/a	n/a	n/a	n/a
3336942	RECOG_RESP	n/a	LTP209	ltpFR	5	6	0	SPACE	1345	n/a	1	n/a	n/a	n/a	n/a	n/a
3338004	RECOG_CONF	n/a	LTP209	ltpFR	5	6	0	SPACE	1345	5	1	n/a	n/a	n/a	n/a	n/a
3340038	RECOG_LURE	n/a	LTP209	ltpFR	5	6	n/a	ATTIRE	57	1	n/a	n/a	n/a	n/a	n/a	n/a
3340748	RECOG_RESP	n/a	LTP209	ltpFR	5	6	n/a	ATTIRE	57	n/a	n/a	n/a	n/a	n/a	n/a	n/a
3341915	RECOG_CONF	n/a	LTP209	ltpFR	5	6	n/a	ATTIRE	57	1	n/a	n/a	n/a	n/a	n/a	n/a
3344199	RECOG_LURE	n/a	LTP209	ltpFR	5	6	n/a	SWORD	1423	5	n/a	n/a	n/a	n/a	n/a	n/a
3345243	RECOG_RESP	n/a	LTP209	ltpFR	5	6	n/a	SWORD	1423	n/a	n/a	n/a	n/a	n/a	n/a	n/a
3346325	RECOG_CONF	n/a	LTP209	ltpFR	5	6	n/a	SWORD	1423	5	n/a	n/a	n/a	n/a	n/a	n/a
3348259	RECOG_TARGET	n/a	LTP209	ltpFR	5	6	0	NECK	939	2	1	n/a	n/a	n/a	n/a	n/a
3349269	RECOG_RESP	n/a	LTP209	ltpFR	5	6	0	NECK	939	n/a	1	n/a	n/a	n/a	n/a	n/a
3350476	RECOG_CONF	n/a	LTP209	ltpFR	5	6	0	NECK	939	2	1	n/a	n/a	n/a	n/a	n/a
3352470	RECOG_TARGET	n/a	LTP209	ltpFR	5	6	1	FIN	566	5	0	n/a	n/a	n/a	n/a	n/a
3353055	RECOG_RESP	n/a	LTP209	ltpFR	5	6	1	FIN	566	n/a	0	n/a	n/a	n/a	n/a	n/a
3354208	RECOG_CONF	n/a	LTP209	ltpFR	5	6	1	FIN	566	5	0	n/a	n/a	n/a	n/a	n/a
3356131	RECOG_LURE	n/a	LTP209	ltpFR	5	6	n/a	BELL	118	4	n/a	n/a	n/a	n/a	n/a	n/a
3356891	RECOG_RESP	n/a	LTP209	ltpFR	5	6	n/a	BELL	118	n/a	n/a	n/a	n/a	n/a	n/a	n/a
3358069	RECOG_CONF	n/a	LTP209	ltpFR	5	6	n/a	BELL	118	4	n/a	n/a	n/a	n/a	n/a	n/a
3359992	RECOG_TARGET	n/a	LTP209	ltpFR	5	6	-1	ISLAND	745	5	-1	n/a	n/a	n/a	n/a	n/a
3360668	RECOG_RESP	n/a	LTP209	ltpFR	5	6	-1	ISLAND	745	n/a	-1	n/a	n/a	n/a	n/a	n/a
3361780	RECOG_CONF	n/a	LTP209	ltpFR	5	6	-1	ISLAND	745	5	-1	n/a	n/a	n/a	n/a	n/a
3363569	RECOG_TARGET	n/a	LTP209	ltpFR	5	6	1	COLONEL	348	2	1	n/a	n/a	n/a	n/a	n/a
3364384	RECOG_RESP	n/a	LTP209	ltpFR	5	6	1	COLONEL	348	n/a	1	n/a	n/a	n/a	n/a	n/a
3365482	RECOG_CONF	n/a	LTP209	ltpFR	5	6	1	COLONEL	348	2	1	n/a	n/a	n/a	n/a	n/a
3367513	RECOG_TARGET	n/a	LTP209	ltpFR	5	6	1	TEA	1439	5	0	n/a	n/a	n/a	n/a	n/a
3368151	RECOG_RESP	n/a	LTP209	ltpFR	5	6	1	TEA	1439	n/a	0	n/a	n/a	n/a	n/a	n/a
3369253	RECOG_CONF	n/a	LTP209	ltpFR	5	6	1	TEA	1439	5	0	n/a	n/a	n/a	n/a	n/a
3371092	RECOG_TARGET	n/a	LTP209	ltpFR	5	6	0	SWIMMER	1420	5	1	n/a	n/a	n/a	n/a	n/a
3371678	RECOG_RESP	n/a	LTP209	ltpFR	5	6	0	SWIMMER	1420	n/a	1	n/a	n/a	n/a	n/a	n/a
3372795	RECOG_CONF	n/a	LTP209	ltpFR	5	6	0	SWIMMER	1420	5	1	n/a	n/a	n/a	n/a	n/a
3374635	RECOG_TARGET	n/a	LTP209	ltpFR	5	6	1	ARMY	39	5	1	n/a	n/a	n/a	n/a	n/a
3375245	RECOG_RESP	n/a	LTP209	ltpFR	5	6	1	ARMY	39	n/a	1	n/a	n/a	n/a	n/a	n/a
3376397	RECOG_CONF	n/a	LTP209	ltpFR	5	6	1	ARMY	39	5	1	n/a	n/a	n/a	n/a	n/a
3378231	RECOG_LURE	n/a	LTP209	ltpFR	5	6	n/a	TRAY	1498	2	n/a	n/a	n/a	n/a	n/a	n/a
3378926	RECOG_RESP	n/a	LTP209	ltpFR	5	6	n/a	TRAY	1498	n/a	n/a	n/a	n/a	n/a	n/a	n/a
3380119	RECOG_CONF	n/a	LTP209	ltpFR	5	6	n/a	TRAY	1498	2	n/a	n/a	n/a	n/a	n/a	n/a
3381875	RECOG_TARGET	n/a	LTP209	ltpFR	5	6	1	CHAIRPERSON	275	5	1	n/a	n/a	n/a	n/a	n/a
3382798	RECOG_RESP	n/a	LTP209	ltpFR	5	6	1	CHAIRPERSON	275	n/a	1	n/a	n/a	n/a	n/a	n/a
3383980	RECOG_CONF	n/a	LTP209	ltpFR	5	6	1	CHAIRPERSON	275	5	1	n/a	n/a	n/a	n/a	n/a
3386186	RECOG_TARGET	n/a	LTP209	ltpFR	5	6	0	UTENSIL	1542	5	0	n/a	n/a	n/a	n/a	n/a
3387163	RECOG_RESP	n/a	LTP209	ltpFR	5	6	0	UTENSIL	1542	n/a	0	n/a	n/a	n/a	n/a	n/a
3388350	RECOG_CONF	n/a	LTP209	ltpFR	5	6	0	UTENSIL	1542	5	0	n/a	n/a	n/a	n/a	n/a
3390246	RECOG_LURE	n/a	LTP209	ltpFR	5	6	n/a	ORCHID	982	4	n/a	n/a	n/a	n/a	n/a	n/a
3390984	RECOG_RESP	n/a	LTP209	ltpFR	5	6	n/a	ORCHID	982	n/a	n/a	n/a	n/a	n/a	n/a	n/a
3392151	RECOG_CONF	n/a	LTP209	ltpFR	5	6	n/a	ORCHID	982	4	n/a	n/a	n/a	n/a	n/a	n/a
3393974	RECOG_LURE	n/a	LTP209	ltpFR	5	6	n/a	CONSOLE	364	4	n/a	n/a	n/a	n/a	n/a	n/a
3395050	RECOG_RESP	n/a	LTP209	ltpFR	5	6	n/a	CONSOLE	364	n/a	n/a	n/a	n/a	n/a	n/a	n/a
3396362	RECOG_CONF	n/a	LTP209	ltpFR	5	6	n/a	CONSOLE	364	4	n/a	n/a	n/a	n/a	n/a	n/a
3398301	RECOG_LURE	n/a	LTP209	ltpFR	5	6	n/a	DRAWER	493	5	n/a	n/a	n/a	n/a	n/a	n/a
3399195	RECOG_RESP	n/a	LTP209	ltpFR	5	6	n/a	DRAWER	493	n/a	n/a	n/a	n/a	n/a	n/a	n/a
3400413	RECOG_CONF	n/a	LTP209	ltpFR	5	6	n/a	DRAWER	493	5	n/a	n/a	n/a	n/a	n/a	n/a
3402262	RECOG_TARGET	n/a	LTP209	ltpFR	5	6	1	MOB	904	5	1	n/a	n/a	n/a	n/a	n/a
3402937	RECOG_RESP	n/a	LTP209	ltpFR	5	6	1	MOB	904	n/a	1	n/a	n/a	n/a	n/a	n/a
3404164	RECOG_CONF	n/a	LTP209	ltpFR	5	6	1	MOB	904	5	1	n/a	n/a	n/a	n/a	n/a
3417215	REC_START	n/a	LTP209	ltpFR	5	7	n/a	n/a	n/a	n/a	n/a	n/a	n/a	n/a	n/a	n/a
3417239	RECOG_TARGET	n/a	LTP209	ltpFR	5	7	1	SLIDE	1326	5	0	n/a	n/a	n/a	n/a	n/a
3418178	RECOG_RESP	n/a	LTP209	ltpFR	5	7	1	SLIDE	1326	n/a	0	n/a	n/a	n/a	n/a	n/a
3419315	RECOG_CONF	n/a	LTP209	ltpFR	5	7	1	SLIDE	1326	5	0	n/a	n/a	n/a	n/a	n/a
3421100	RECOG_TARGET	n/a	LTP209	ltpFR	5	7	1	BREAD	170	5	0	n/a	n/a	n/a	n/a	n/a
3421949	RECOG_RESP	n/a	LTP209	ltpFR	5	7	1	BREAD	170	n/a	0	n/a	n/a	n/a	n/a	n/a
3422997	RECOG_CONF	n/a	LTP209	ltpFR	5	7	1	BREAD	170	5	0	n/a	n/a	n/a	n/a	n/a
3424978	RECOG_LURE	n/a	LTP209	ltpFR	5	7	n/a	DAGGER	434	2	n/a	n/a	n/a	n/a	n/a	n/a
3425920	RECOG_RESP	n/a	LTP209	ltpFR	5	7	n/a	DAGGER	434	n/a	n/a	n/a	n/a	n/a	n/a	n/a
3427087	RECOG_CONF	n/a	LTP209	ltpFR	5	7	n/a	DAGGER	434	2	n/a	n/a	n/a	n/a	n/a	n/a
3428871	RECOG_TARGET	n/a	LTP209	ltpFR	5	7	0	OX	994	5	1	n/a	n/a	n/a	n/a	n/a
3429517	RECOG_RESP	n/a	LTP209	ltpFR	5	7	0	OX	994	n/a	1	n/a	n/a	n/a	n/a	n/a
3430629	RECOG_CONF	n/a	LTP209	ltpFR	5	7	0	OX	994	5	1	n/a	n/a	n/a	n/a	n/a
3432649	RECOG_TARGET	n/a	LTP209	ltpFR	5	7	1	WATERFALL	1595	5	0	n/a	n/a	n/a	n/a	n/a
3433283	RECOG_RESP	n/a	LTP209	ltpFR	5	7	1	WATERFALL	1595	n/a	0	n/a	n/a	n/a	n/a	n/a
3434341	RECOG_CONF	n/a	LTP209	ltpFR	5	7	1	WATERFALL	1595	5	0	n/a	n/a	n/a	n/a	n/a
3436344	RECOG_TARGET	n/a	LTP209	ltpFR	5	7	0	BLACKBOARD	133	5	1	n/a	n/a	n/a	n/a	n/a
3437055	RECOG_RESP	n/a	LTP209	ltpFR	5	7	0	BLACKBOARD	133	n/a	1	n/a	n/a	n/a	n/a	n/a
3438112	RECOG_CONF	n/a	LTP209	ltpFR	5	7	0	BLACKBOARD	133	5	1	n/a	n/a	n/a	n/a	n/a
3439989	RECOG_LURE	n/a	LTP209	ltpFR	5	7	n/a	THRONE	1461	3	n/a	n/a	n/a	n/a	n/a	n/a
3440706	RECOG_RESP	n/a	LTP209	ltpFR	5	7	n/a	THRONE	1461	n/a	n/a	n/a	n/a	n/a	n/a	n/a
3441844	RECOG_CONF	n/a	LTP209	ltpFR	5	7	n/a	THRONE	1461	3	n/a	n/a	n/a	n/a	n/a	n/a
3443649	RECOG_LURE	n/a	LTP209	ltpFR	5	7	n/a	REEF	1177	5	n/a	n/a	n/a	n/a	n/a	n/a
3444408	RECOG_RESP	n/a	LTP209	ltpFR	5	7	n/a	REEF	1177	n/a	n/a	n/a	n/a	n/a	n/a	n/a
3445555	RECOG_CONF	n/a	LTP209	ltpFR	5	7	n/a	REEF	1177	5	n/a	n/a	n/a	n/a	n/a	n/a
3447593	RECOG_LURE	n/a	LTP209	ltpFR	5	7	n/a	WASHCLOTH	1591	5	n/a	n/a	n/a	n/a	n/a	n/a
3448449	RECOG_RESP	n/a	LTP209	ltpFR	5	7	n/a	WASHCLOTH	1591	n/a	n/a	n/a	n/a	n/a	n/a	n/a
3449546	RECOG_CONF	n/a	LTP209	ltpFR	5	7	n/a	WASHCLOTH	1591	5	n/a	n/a	n/a	n/a	n/a	n/a
3451289	RECOG_LURE	n/a	LTP209	ltpFR	5	7	n/a	BALCONY	72	2	n/a	n/a	n/a	n/a	n/a	n/a
3452829	RECOG_RESP	n/a	LTP209	ltpFR	5	7	n/a	BALCONY	72	n/a	n/a	n/a	n/a	n/a	n/a	n/a
3454056	RECOG_CONF	n/a	LTP209	ltpFR	5	7	n/a	BALCONY	72	2	n/a	n/a	n/a	n/a	n/a	n/a
3455998	RECOG_TARGET	n/a	LTP209	ltpFR	5	7	-1	CLASS	318	5	-1	n/a	n/a	n/a	n/a	n/a
3456670	RECOG_RESP	n/a	LTP209	ltpFR	5	7	-1	CLASS	318	n/a	-1	n/a	n/a	n/a	n/a	n/a
3457728	RECOG_CONF	n/a	LTP209	ltpFR	5	7	-1	CLASS	318	5	-1	n/a	n/a	n/a	n/a	n/a
3459708	RECOG_LURE	n/a	LTP209	ltpFR	5	7	n/a	RACK	1154	1	n/a	n/a	n/a	n/a	n/a	n/a
3461160	RECOG_RESP	n/a	LTP209	ltpFR	5	7	n/a	RACK	1154	n/a	n/a	n/a	n/a	n/a	n/a	n/a
3462277	RECOG_CONF	n/a	LTP209	ltpFR	5	7	n/a	RACK	1154	1	n/a	n/a	n/a	n/a	n/a	n/a
3464219	RECOG_TARGET	n/a	LTP209	ltpFR	5	7	1	BANK	83	2	0	n/a	n/a	n/a	n/a	n/a
3464966	RECOG_RESP	n/a	LTP209	ltpFR	5	7	1	BANK	83	n/a	0	n/a	n/a	n/a	n/a	n/a
3466218	RECOG_CONF	n/a	LTP209	ltpFR	5	7	1	BANK	83	2	0	n/a	n/a	n/a	n/a	n/a
3468213	RECOG_TARGET	n/a	LTP209	ltpFR	5	7	0	ELEPHANT	523	5	1	n/a	n/a	n/a	n/a	n/a
3468872	RECOG_RESP	n/a	LTP209	ltpFR	5	7	0	ELEPHANT	523	n/a	1	n/a	n/a	n/a	n/a	n/a
3469890	RECOG_CONF	n/a	LTP209	ltpFR	5	7	0	ELEPHANT	523	5	1	n/a	n/a	n/a	n/a	n/a
3471790	RECOG_LURE	n/a	LTP209	ltpFR	5	7	n/a	LINT	826	2	n/a	n/a	n/a	n/a	n/a	n/a
3472644	RECOG_RESP	n/a	LTP209	ltpFR	5	7	n/a	LINT	826	n/a	n/a	n/a	n/a	n/a	n/a	n/a
3474011	RECOG_CONF	n/a	LTP209	ltpFR	5	7	n/a	LINT	826	2	n/a	n/a	n/a	n/a	n/a	n/a
3476018	RECOG_TARGET	n/a	LTP209	ltpFR	5	7	0	PUCK	1138	5	0	n/a	n/a	n/a	n/a	n/a
3476754	RECOG_RESP	n/a	LTP209	ltpFR	5	7	0	PUCK	1138	n/a	0	n/a	n/a	n/a	n/a	n/a
3477952	RECOG_CONF	n/a	LTP209	ltpFR	5	7	0	PUCK	1138	5	0	n/a	n/a	n/a	n/a	n/a
3479878	RECOG_TARGET	n/a	LTP209	ltpFR	5	7	0	POCKETBOOK	1094	5	1	n/a	n/a	n/a	n/a	n/a
3480636	RECOG_RESP	n/a	LTP209	ltpFR	5	7	0	POCKETBOOK	1094	n/a	1	n/a	n/a	n/a	n/a	n/a
3481833	RECOG_CONF	n/a	LTP209	ltpFR	5	7	0	POCKETBOOK	1094	5	1	n/a	n/a	n/a	n/a	n/a
3483656	RECOG_LURE	n/a	LTP209	ltpFR	5	7	n/a	SWAN	1417	4	n/a	n/a	n/a	n/a	n/a	n/a
3484487	RECOG_RESP	n/a	LTP209	ltpFR	5	7	n/a	SWAN	1417	n/a	n/a	n/a	n/a	n/a	n/a	n/a
3485854	RECOG_CONF	n/a	LTP209	ltpFR	5	7	n/a	SWAN	1417	4	n/a	n/a	n/a	n/a	n/a	n/a
3487667	RECOG_TARGET	n/a	LTP209	ltpFR	5	7	1	GUITAR	670	5	0	n/a	n/a	n/a	n/a	n/a
3488253	RECOG_RESP	n/a	LTP209	ltpFR	5	7	1	GUITAR	670	n/a	0	n/a	n/a	n/a	n/a	n/a
3489406	RECOG_CONF	n/a	LTP209	ltpFR	5	7	1	GUITAR	670	5	0	n/a	n/a	n/a	n/a	n/a
3491379	RECOG_LURE	n/a	LTP209	ltpFR	5	7	n/a	VIRUS	1572	5	n/a	n/a	n/a	n/a	n/a	n/a
3492444	RECOG_RESP	n/a	LTP209	ltpFR	5	7	n/a	VIRUS	1572	n/a	n/a	n/a	n/a	n/a	n/a	n/a
3493626	RECOG_CONF	n/a	LTP209	ltpFR	5	7	n/a	VIRUS	1572	5	n/a	n/a	n/a	n/a	n/a	n/a
3509683	REC_START	n/a	LTP209	ltpFR	5	8	n/a	n/a	n/a	n/a	n/a	n/a	n/a	n/a	n/a	n/a
3509717	RECOG_LURE	n/a	LTP209	ltpFR	5	8	n/a	MAJOR	859	1	n/a	n/a	n/a	n/a	n/a	n/a
3511858	RECOG_RESP	n/a	LTP209	ltpFR	5	8	n/a	MAJOR	859	n/a	n/a	n/a	n/a	n/a	n/a	n/a
3513060	RECOG_CONF	n/a	LTP209	ltpFR	5	8	n/a	MAJOR	859	1	n/a	n/a	n/a	n/a	n/a	n/a
3515010	RECOG_TARGET	n/a	LTP209	ltpFR	5	8	-1	TWIG	1527	5	-1	n/a	n/a	n/a	n/a	n/a
3515694	RECOG_RESP	n/a	LTP209	ltpFR	5	8	-1	TWIG	1527	n/a	-1	n/a	n/a	n/a	n/a	n/a
3516901	RECOG_CONF	n/a	LTP209	ltpFR	5	8	-1	TWIG	1527	5	-1	n/a	n/a	n/a	n/a	n/a
3519470	RECOG_TARGET	n/a	LTP209	ltpFR	5	8	0	BRAN	167	5	0	n/a	n/a	n/a	n/a	n/a
3520174	RECOG_RESP	n/a	LTP209	ltpFR	5	8	0	BRAN	167	n/a	0	n/a	n/a	n/a	n/a	n/a
3521331	RECOG_CONF	n/a	LTP209	ltpFR	5	8	0	BRAN	167	5	0	n/a	n/a	n/a	n/a	n/a
3523513	RECOG_LURE	n/a	LTP209	ltpFR	5	8	n/a	MEDICINE	886	5	n/a	n/a	n/a	n/a	n/a	n/a
3524295	RECOG_RESP	n/a	LTP209	ltpFR	5	8	n/a	MEDICINE	886	n/a	n/a	n/a	n/a	n/a	n/a	n/a
3525562	RECOG_CONF	n/a	LTP209	ltpFR	5	8	n/a	MEDICINE	886	5	n/a	n/a	n/a	n/a	n/a	n/a
3527375	RECOG_LURE	n/a	LTP209	ltpFR	5	8	n/a	DEPARTMENT	449	2	n/a	n/a	n/a	n/a	n/a	n/a
3528061	RECOG_RESP	n/a	LTP209	ltpFR	5	8	n/a	DEPARTMENT	449	n/a	n/a	n/a	n/a	n/a	n/a	n/a
3529333	RECOG_CONF	n/a	LTP209	ltpFR	5	8	n/a	DEPARTMENT	449	2	n/a	n/a	n/a	n/a	n/a	n/a
3531286	RECOG_TARGET	n/a	LTP209	ltpFR	5	8	0	GIRAFFE	636	5	1	n/a	n/a	n/a	n/a	n/a
3531917	RECOG_RESP	n/a	LTP209	ltpFR	5	8	0	GIRAFFE	636	n/a	1	n/a	n/a	n/a	n/a	n/a
3533045	RECOG_CONF	n/a	LTP209	ltpFR	5	8	0	GIRAFFE	636	5	1	n/a	n/a	n/a	n/a	n/a
3535130	RECOG_TARGET	n/a	LTP209	ltpFR	5	8	1	PRESIDENT	1121	5	1	n/a	n/a	n/a	n/a	n/a
3535694	RECOG_RESP	n/a	LTP209	ltpFR	5	8	1	PRESIDENT	1121	n/a	1	n/a	n/a	n/a	n/a	n/a
3536836	RECOG_CONF	n/a	LTP209	ltpFR	5	8	1	PRESIDENT	1121	5	1	n/a	n/a	n/a	n/a	n/a
3538824	RECOG_LURE	n/a	LTP209	ltpFR	5	8	n/a	TOY	1492	1	n/a	n/a	n/a	n/a	n/a	n/a
3539430	RECOG_RESP	n/a	LTP209	ltpFR	5	8	n/a	TOY	1492	n/a	n/a	n/a	n/a	n/a	n/a	n/a
3540647	RECOG_CONF	n/a	LTP209	ltpFR	5	8	n/a	TOY	1492	1	n/a	n/a	n/a	n/a	n/a	n/a
3542585	RECOG_TARGET	n/a	LTP209	ltpFR	5	8	0	STATUE	1374	5	1	n/a	n/a	n/a	n/a	n/a
3543261	RECOG_RESP	n/a	LTP209	ltpFR	5	8	0	STATUE	1374	n/a	1	n/a	n/a	n/a	n/a	n/a
3544598	RECOG_CONF	n/a	LTP209	ltpFR	5	8	0	STATUE	1374	5	1	n/a	n/a	n/a	n/a	n/a
3547012	RECOG_LURE	n/a	LTP209	ltpFR	5	8	n/a	DUST	508	3	n/a	n/a	n/a	n/a	n/a	n/a
3547841	RECOG_RESP	n/a	LTP209	ltpFR	5	8	n/a	DUST	508	n/a	n/a	n/a	n/a	n/a	n/a	n/a
3549048	RECOG_CONF	n/a	LTP209	ltpFR	5	8	n/a	DUST	508	3	n/a	n/a	n/a	n/a	n/a	n/a
3551106	RECOG_LURE	n/a	LTP209	ltpFR	5	8	n/a	LABYRINTH	791	5	n/a	n/a	n/a	n/a	n/a	n/a
3552022	RECOG_RESP	n/a	LTP209	ltpFR	5	8	n/a	LABYRINTH	791	n/a	n/a	n/a	n/a	n/a	n/a	n/a
3553229	RECOG_CONF	n/a	LTP209	ltpFR	5	8	n/a	LABYRINTH	791	5	n/a	n/a	n/a	n/a	n/a	n/a
3555250	RECOG_TARGET	n/a	LTP209	ltpFR	5	8	-1	CITY	314	5	-1	n/a	n/a	n/a	n/a	n/a
3555813	RECOG_RESP	n/a	LTP209	ltpFR	5	8	-1	CITY	314	n/a	-1	n/a	n/a	n/a	n/a	n/a
3557110	RECOG_CONF	n/a	LTP209	ltpFR	5	8	-1	CITY	314	5	-1	n/a	n/a	n/a	n/a	n/a
3559128	RECOG_LURE	n/a	LTP209	ltpFR	5	8	n/a	DIAGRAM	456	5	n/a	n/a	n/a	n/a	n/a	n/a
3559993	RECOG_RESP	n/a	LTP209	ltpFR	5	8	n/a	DIAGRAM	456	n/a	n/a	n/a	n/a	n/a	n/a	n/a
3561181	RECOG_CONF	n/a	LTP209	ltpFR	5	8	n/a	DIAGRAM	456	5	n/a	n/a	n/a	n/a	n/a	n/a
3563105	RECOG_TARGET	n/a	LTP209	ltpFR	5	8	-1	TROUT	1511	5	-1	n/a	n/a	n/a	n/a	n/a
3563645	RECOG_RESP	n/a	LTP209	ltpFR	5	8	-1	TROUT	1511	n/a	-1	n/a	n/a	n/a	n/a	n/a
3564832	RECOG_CONF	n/a	LTP209	ltpFR	5	8	-1	TROUT	1511	5	-1	n/a	n/a	n/a	n/a	n/a
3566933	RECOG_TARGET	n/a	LTP209	ltpFR	5	8	-1	DAISY	435	5	-1	n/a	n/a	n/a	n/a	n/a
3567531	RECOG_RESP	n/a	LTP209	ltpFR	5	8	-1	DAISY	435	n/a	-1	n/a	n/a	n/a	n/a	n/a
3568724	RECOG_CONF	n/a	LTP209	ltpFR	5	8	-1	DAISY	435	5	-1	n/a	n/a	n/a	n/a	n/a
3570659	RECOG_TARGET	n/a	LTP209	ltpFR	5	8	0	CASHIER	254	1	1	n/a	n/a	n/a	n/a	n/a
3571462	RECOG_RESP	n/a	LTP209	ltpFR	5	8	0	CASHIER	254	n/a	1	n/a	n/a	n/a	n/a	n/a
3572794	RECOG_CONF	n/a	LTP209	ltpFR	5	8	0	CASHIER	254	1	1	n/a	n/a	n/a	n/a	n/a
3574786	RECOG_TARGET	n/a	LTP209	ltpFR	5	8	1	COLLAR	345	5	0	n/a	n/a	n/a	n/a	n/a
3575373	RECOG_RESP	n/a	LTP209	ltpFR	5	8	1	COLLAR	345	n/a	0	n/a	n/a	n/a	n/a	n/a
3576616	RECOG_CONF	n/a	LTP209	ltpFR	5	8	1	COLLAR	345	5	0	n/a	n/a	n/a	n/a	n/a
3578548	RECOG_LURE	n/a	LTP209	ltpFR	5	8	n/a	RAT	1169	2	n/a	n/a	n/a	n/a	n/a	n/a
3579529	RECOG_RESP	n/a	LTP209	ltpFR	5	8	n/a	RAT	1169	n/a	n/a	n/a	n/a	n/a	n/a	n/a
3580926	RECOG_CONF	n/a	LTP209	ltpFR	5	8	n/a	RAT	1169	2	n/a	n/a	n/a	n/a	n/a	n/a
3582824	RECOG_TARGET	n/a	LTP209	ltpFR	5	8	0	SUGAR	1401	5	0	n/a	n/a	n/a	n/a	n/a
3583525	RECOG_RESP	n/a	LTP209	ltpFR	5	8	0	SUGAR	1401	n/a	0	n/a	n/a	n/a	n/a	n/a
3584787	RECOG_CONF	n/a	LTP209	ltpFR	5	8	0	SUGAR	1401	5	0	n/a	n/a	n/a	n/a	n/a
3586719	RECOG_TARGET	n/a	LTP209	ltpFR	5	8	-1	PATH	1023	3	-1	n/a	n/a	n/a	n/a	n/a
3587326	RECOG_RESP	n/a	LTP209	ltpFR	5	8	-1	PATH	1023	n/a	-1	n/a	n/a	n/a	n/a	n/a
3589736	RECOG_CONF	n/a	LTP209	ltpFR	5	8	-1	PATH	1023	3	-1	n/a	n/a	n/a	n/a	n/a
3600178	REC_START	n/a	LTP209	ltpFR	5	9	n/a	n/a	n/a	n/a	n/a	n/a	n/a	n/a	n/a	n/a
3600216	RECOG_TARGET	n/a	LTP209	ltpFR	5	9	0	HOE	711	5	1	n/a	n/a	n/a	n/a	n/a
3601006	RECOG_RESP	n/a	LTP209	ltpFR	5	9	0	HOE	711	n/a	1	n/a	n/a	n/a	n/a	n/a
3602168	RECOG_CONF	n/a	LTP209	ltpFR	5	9	0	HOE	711	5	1	n/a	n/a	n/a	n/a	n/a
3603977	RECOG_LURE	n/a	LTP209	ltpFR	5	9	n/a	BUFFALO	186	5	n/a	n/a	n/a	n/a	n/a	n/a
3604732	RECOG_RESP	n/a	LTP209	ltpFR	5	9	n/a	BUFFALO	186	n/a	n/a	n/a	n/a	n/a	n/a	n/a
3605810	RECOG_CONF	n/a	LTP209	ltpFR	5	9	n/a	BUFFALO	186	5	n/a	n/a	n/a	n/a	n/a	n/a
3607787	RECOG_TARGET	n/a	LTP209	ltpFR	5	9	1	SCARF	1246	5	0	n/a	n/a	n/a	n/a	n/a
3608464	RECOG_RESP	n/a	LTP209	ltpFR	5	9	1	SCARF	1246	n/a	0	n/a	n/a	n/a	n/a	n/a
3609522	RECOG_CONF	n/a	LTP209	ltpFR	5	9	1	SCARF	1246	5	0	n/a	n/a	n/a	n/a	n/a
3611383	RECOG_TARGET	n/a	LTP209	ltpFR	5	9	0	QUARTER	1148	5	0	n/a	n/a	n/a	n/a	n/a
3612520	RECOG_RESP	n/a	LTP209	ltpFR	5	9	0	QUARTER	1148	n/a	0	n/a	n/a	n/a	n/a	n/a
3613692	RECOG_CONF	n/a	LTP209	ltpFR	5	9	0	QUARTER	1148	5	0	n/a	n/a	n/a	n/a	n/a
3615625	RECOG_TARGET	n/a	LTP209	ltpFR	5	9	-1	PRINCESS	1125	5	-1	n/a	n/a	n/a	n/a	n/a
3616266	RECOG_RESP	n/a	LTP209	ltpFR	5	9	-1	PRINCESS	1125	n/a	-1	n/a	n/a	n/a	n/a	n/a
3617444	RECOG_CONF	n/a	LTP209	ltpFR	5	9	-1	PRINCESS	1125	5	-1	n/a	n/a	n/a	n/a	n/a
3619188	RECOG_TARGET	n/a	LTP209	ltpFR	5	9	1	FOUNTAIN	597	3	0	n/a	n/a	n/a	n/a	n/a
