onset	duration	trial_type	sample	stim_file	subject	experiment	session	trial	task	item_name	item_num	recog_resp	recog_conf	resp	color_r	color_g	color_b	case	font
244.236	n/a	SESS_START	122118	n/a	LTP065	ltpFR	0	n/a	n/a	n/a	n/a	0	4	n/a	n/a	n/a	n/a	n/a	n/a
322.98	n/a	WORD	161490	wordpools/wasnorm_wordpool.txt	LTP065	ltpFR	0	1	-1	MAILBOX	857	0	5	-1	1.0	1.0	1	upper	Verdana.ttf
327.148	n/a	WORD	163574	wordpools/wasnorm_wordpool.txt	LTP065	ltpFR	0	1	-1	SIGNATURE	1306	0	n/a	-1	1.0	1.0	1	upper	Verdana.ttf
331.306	n/a	WORD	165653	wordpools/wasnorm_wordpool.txt	LTP065	ltpFR	0	1	-1	FIREPLACE	570	n/a	n/a	-1	1.0	1.0	1	upper	Verdana.ttf
335.304	n/a	WORD	167652	wordpools/wasnorm_wordpool.txt	LTP065	ltpFR	0	1	-1	TICKET	1464	n/a	n/a	-1	1.0	1.0	1	upper	Verdana.ttf
339.438	n/a	WORD	169719	wordpools/wasnorm_wordpool.txt	LTP065	ltpFR	0	1	-1	FILM	565	n/a	n/a	-1	1.0	1.0	1	upper	Verdana.ttf
343.246	n/a	WORD	171623	wordpools/wasnorm_wordpool.txt	LTP065	ltpFR	0	1	-1	CHURCH	307	n/a	n/a	-1	1.0	1.0	1	upper	Verdana.ttf
347.08	n/a	WORD	173540	wordpools/wasnorm_wordpool.txt	LTP065	ltpFR	0	1	-1	DOVE	491	n/a	n/a	-1	1.0	1.0	1	upper	Verdana.ttf
351.262	n/a	WORD	175631	wordpools/wasnorm_wordpool.txt	LTP065	ltpFR	0	1	-1	MERMAID	887	n/a	n/a	-1	1.0	1.0	1	upper	Verdana.ttf
355.304	n/a	WORD	177652	wordpools/wasnorm_wordpool.txt	LTP065	ltpFR	0	1	-1	OPERA	978	n/a	n/a	-1	1.0	1.0	1	upper	Verdana.ttf
359.304	n/a	WORD	179652	wordpools/wasnorm_wordpool.txt	LTP065	ltpFR	0	1	-1	DRILL	497	n/a	n/a	-1	1.0	1.0	1	upper	Verdana.ttf
363.128	n/a	WORD	181564	wordpools/wasnorm_wordpool.txt	LTP065	ltpFR	0	1	-1	FAUCET	555	n/a	n/a	-1	1.0	1.0	1	upper	Verdana.ttf
367.212	n/a	WORD	183606	wordpools/wasnorm_wordpool.txt	LTP065	ltpFR	0	1	-1	SEAFOOD	1260	n/a	n/a	-1	1.0	1.0	1	upper	Verdana.ttf
371.23	n/a	WORD	185615	wordpools/wasnorm_wordpool.txt	LTP065	ltpFR	0	1	-1	CRAB	397	n/a	n/a	-1	1.0	1.0	1	upper	Verdana.ttf
375.346	n/a	WORD	187673	wordpools/wasnorm_wordpool.txt	LTP065	ltpFR	0	1	-1	NEST	945	n/a	n/a	-1	1.0	1.0	1	upper	Verdana.ttf
379.386	n/a	WORD	189693	wordpools/wasnorm_wordpool.txt	LTP065	ltpFR	0	1	-1	NECKLACE	940	n/a	n/a	-1	1.0	1.0	1	upper	Verdana.ttf
383.478	n/a	WORD	191739	wordpools/wasnorm_wordpool.txt	LTP065	ltpFR	0	1	-1	PATH	1023	n/a	n/a	-1	1.0	1.0	1	upper	Verdana.ttf
389.138	n/a	REC_START	194569	n/a	LTP065	ltpFR	0	1	n/a	n/a	n/a	n/a	n/a	n/a	n/a	n/a	n/a	n/a	n/a
389.142	n/a	REC_WORD	194571	wordpools/wasnorm_wordpool.txt	LTP065	ltpFR	0	1	n/a	[???]	-1	n/a	n/a	n/a	n/a	n/a	n/a	n/a	n/a
390.58	n/a	REC_WORD	195290	wordpools/wasnorm_wordpool.txt	LTP065	ltpFR	0	1	-1	PATH	1023	n/a	n/a	-1	n/a	n/a	n/a	n/a	n/a
391.976	n/a	REC_WORD	195988	wordpools/wasnorm_wordpool.txt	LTP065	ltpFR	0	1	-1	NECKLACE	940	n/a	n/a	-1	n/a	n/a	n/a	n/a	n/a
393.772	n/a	REC_WORD	196886	wordpools/wasnorm_wordpool.txt	LTP065	ltpFR	0	1	-1	NEST	945	n/a	n/a	-1	n/a	n/a	n/a	n/a	n/a
395.388	n/a	REC_WORD	197694	wordpools/wasnorm_wordpool.txt	LTP065	ltpFR	0	1	-1	CRAB	397	n/a	n/a	-1	n/a	n/a	n/a	n/a	n/a
397.184	n/a	REC_WORD	198592	wordpools/wasnorm_wordpool.txt	LTP065	ltpFR	0	1	-1	SEAFOOD	1260	n/a	n/a	-1	n/a	n/a	n/a	n/a	n/a
401.146	n/a	REC_WORD	200573	wordpools/wasnorm_wordpool.txt	LTP065	ltpFR	0	1	-1	TICKET	1464	n/a	n/a	-1	n/a	n/a	n/a	n/a	n/a
403.13	n/a	REC_WORD	201565	wordpools/wasnorm_wordpool.txt	LTP065	ltpFR	0	1	-1	OPERA	978	n/a	n/a	-1	n/a	n/a	n/a	n/a	n/a
405.396	n/a	REC_WORD	202698	wordpools/wasnorm_wordpool.txt	LTP065	ltpFR	0	1	-1	FIREPLACE	570	n/a	n/a	-1	n/a	n/a	n/a	n/a	n/a
408.16	n/a	REC_WORD	204080	wordpools/wasnorm_wordpool.txt	LTP065	ltpFR	0	1	-1	MAILBOX	857	n/a	n/a	-1	n/a	n/a	n/a	n/a	n/a
411.952	n/a	REC_WORD	205976	wordpools/wasnorm_wordpool.txt	LTP065	ltpFR	0	1	-1	DRILL	497	n/a	n/a	-1	n/a	n/a	n/a	n/a	n/a
416.566	n/a	REC_WORD	208283	wordpools/wasnorm_wordpool.txt	LTP065	ltpFR	0	1	-1	FILM	565	n/a	n/a	-1	n/a	n/a	n/a	n/a	n/a
463.63	n/a	REC_WORD	231815	wordpools/wasnorm_wordpool.txt	LTP065	ltpFR	0	1	-1	FAUCET	555	n/a	n/a	-1	n/a	n/a	n/a	n/a	n/a
474.026	n/a	WORD	237013	wordpools/wasnorm_wordpool.txt	LTP065	ltpFR	0	2	-1	WOUND	1624	n/a	n/a	-1	1.0	1.0	1	upper	Verdana.ttf
478.01	n/a	WORD	239005	wordpools/wasnorm_wordpool.txt	LTP065	ltpFR	0	2	-1	SHIRT	1287	n/a	n/a	-1	1.0	1.0	1	upper	Verdana.ttf
482.176	n/a	WORD	241088	wordpools/wasnorm_wordpool.txt	LTP065	ltpFR	0	2	-1	WORKER	1621	n/a	n/a	-1	1.0	1.0	1	upper	Verdana.ttf
486.05	n/a	WORD	243025	wordpools/wasnorm_wordpool.txt	LTP065	ltpFR	0	2	-1	BEAVER	109	n/a	n/a	-1	1.0	1.0	1	upper	Verdana.ttf
489.86	n/a	WORD	244930	wordpools/wasnorm_wordpool.txt	LTP065	ltpFR	0	2	-1	BAY	102	n/a	n/a	-1	1.0	1.0	1	upper	Verdana.ttf
493.802	n/a	WORD	246901	wordpools/wasnorm_wordpool.txt	LTP065	ltpFR	0	2	-1	BASKETBALL	96	n/a	n/a	-1	1.0	1.0	1	upper	Verdana.ttf
497.734	n/a	WORD	248867	wordpools/wasnorm_wordpool.txt	LTP065	ltpFR	0	2	-1	OTTER	986	n/a	n/a	-1	1.0	1.0	1	upper	Verdana.ttf
501.592	n/a	WORD	250796	wordpools/wasnorm_wordpool.txt	LTP065	ltpFR	0	2	-1	CRACKER	398	n/a	n/a	-1	1.0	1.0	1	upper	Verdana.ttf
505.55	n/a	WORD	252775	wordpools/wasnorm_wordpool.txt	LTP065	ltpFR	0	2	-1	SEA	1259	n/a	n/a	-1	1.0	1.0	1	upper	Verdana.ttf
509.576	n/a	WORD	254788	wordpools/wasnorm_wordpool.txt	LTP065	ltpFR	0	2	-1	JUDGE	761	n/a	n/a	-1	1.0	1.0	1	upper	Verdana.ttf
513.476	n/a	WORD	256738	wordpools/wasnorm_wordpool.txt	LTP065	ltpFR	0	2	-1	CONCRETE	361	n/a	n/a	-1	1.0	1.0	1	upper	Verdana.ttf
517.418	n/a	WORD	258709	wordpools/wasnorm_wordpool.txt	LTP065	ltpFR	0	2	-1	PAVEMENT	1028	n/a	n/a	-1	1.0	1.0	1	upper	Verdana.ttf
521.616	n/a	WORD	260808	wordpools/wasnorm_wordpool.txt	LTP065	ltpFR	0	2	-1	HELICOPTER	701	n/a	n/a	-1	1.0	1.0	1	upper	Verdana.ttf
525.492	n/a	WORD	262746	wordpools/wasnorm_wordpool.txt	LTP065	ltpFR	0	2	-1	FIGHTER	564	n/a	n/a	-1	1.0	1.0	1	upper	Verdana.ttf
529.342	n/a	WORD	264671	wordpools/wasnorm_wordpool.txt	LTP065	ltpFR	0	2	-1	BREAST	171	n/a	n/a	-1	1.0	1.0	1	upper	Verdana.ttf
533.308	n/a	WORD	266654	wordpools/wasnorm_wordpool.txt	LTP065	ltpFR	0	2	-1	SKILLET	1317	n/a	n/a	-1	1.0	1.0	1	upper	Verdana.ttf
539.042	n/a	REC_START	269521	n/a	LTP065	ltpFR	0	2	n/a	n/a	n/a	n/a	n/a	n/a	n/a	n/a	n/a	n/a	n/a
539.048	n/a	REC_WORD	269524	wordpools/wasnorm_wordpool.txt	LTP065	ltpFR	0	2	n/a	[???]	-1	n/a	n/a	n/a	n/a	n/a	n/a	n/a	n/a
540.614	n/a	REC_WORD	270307	wordpools/wasnorm_wordpool.txt	LTP065	ltpFR	0	2	-1	SKILLET	1317	n/a	n/a	-1	n/a	n/a	n/a	n/a	n/a
542.0	n/a	REC_WORD	271000	wordpools/wasnorm_wordpool.txt	LTP065	ltpFR	0	2	-1	BREAST	171	n/a	n/a	-1	n/a	n/a	n/a	n/a	n/a
543.636	n/a	REC_WORD	271818	wordpools/wasnorm_wordpool.txt	LTP065	ltpFR	0	2	-1	HELICOPTER	701	n/a	n/a	-1	n/a	n/a	n/a	n/a	n/a
547.528	n/a	REC_WORD	273764	wordpools/wasnorm_wordpool.txt	LTP065	ltpFR	0	2	-1	PAVEMENT	1028	n/a	n/a	-1	n/a	n/a	n/a	n/a	n/a
549.404	n/a	REC_WORD	274702	wordpools/wasnorm_wordpool.txt	LTP065	ltpFR	0	2	-1	CONCRETE	361	n/a	n/a	-1	n/a	n/a	n/a	n/a	n/a
553.374	n/a	REC_WORD	276687	wordpools/wasnorm_wordpool.txt	LTP065	ltpFR	0	2	-1	OTTER	986	n/a	n/a	-1	n/a	n/a	n/a	n/a	n/a
556.28	n/a	REC_WORD	278140	wordpools/wasnorm_wordpool.txt	LTP065	ltpFR	0	2	-1	BAY	102	n/a	n/a	-1	n/a	n/a	n/a	n/a	n/a
558.134	n/a	REC_WORD	279067	wordpools/wasnorm_wordpool.txt	LTP065	ltpFR	0	2	-1	SEA	1259	n/a	n/a	-1	n/a	n/a	n/a	n/a	n/a
563.682	n/a	REC_WORD	281841	wordpools/wasnorm_wordpool.txt	LTP065	ltpFR	0	2	-1	WOUND	1624	n/a	n/a	-1	n/a	n/a	n/a	n/a	n/a
565.484	n/a	REC_WORD	282742	wordpools/wasnorm_wordpool.txt	LTP065	ltpFR	0	2	-1	SHIRT	1287	n/a	n/a	-1	n/a	n/a	n/a	n/a	n/a
568.652	n/a	REC_WORD	284326	wordpools/wasnorm_wordpool.txt	LTP065	ltpFR	0	2	-1	JUDGE	761	n/a	n/a	-1	n/a	n/a	n/a	n/a	n/a
585.744	n/a	REC_WORD	292872	wordpools/wasnorm_wordpool.txt	LTP065	ltpFR	0	2	-1	CRACKER	398	n/a	n/a	-1	n/a	n/a	n/a	n/a	n/a
591.16	n/a	REC_WORD	295580	wordpools/wasnorm_wordpool.txt	LTP065	ltpFR	0	2	-1	BASKETBALL	96	n/a	n/a	-1	n/a	n/a	n/a	n/a	n/a
620.524	n/a	WORD	310262	wordpools/wasnorm_wordpool.txt	LTP065	ltpFR	0	3	-1	RESTAURANT	1187	n/a	n/a	-1	1.0	1.0	1	upper	Verdana.ttf
624.69	n/a	WORD	312345	wordpools/wasnorm_wordpool.txt	LTP065	ltpFR	0	3	-1	FEAST	556	n/a	n/a	-1	1.0	1.0	1	upper	Verdana.ttf
628.606	n/a	WORD	314303	wordpools/wasnorm_wordpool.txt	LTP065	ltpFR	0	3	-1	PIPE	1073	n/a	n/a	-1	1.0	1.0	1	upper	Verdana.ttf
632.572	n/a	WORD	316286	wordpools/wasnorm_wordpool.txt	LTP065	ltpFR	0	3	-1	FLEET	578	n/a	n/a	-1	1.0	1.0	1	upper	Verdana.ttf
636.588	n/a	WORD	318294	wordpools/wasnorm_wordpool.txt	LTP065	ltpFR	0	3	-1	CAPTAIN	239	n/a	n/a	-1	1.0	1.0	1	upper	Verdana.ttf
640.482	n/a	WORD	320241	wordpools/wasnorm_wordpool.txt	LTP065	ltpFR	0	3	-1	WINDSHIELD	1612	n/a	n/a	-1	1.0	1.0	1	upper	Verdana.ttf
644.648	n/a	WORD	322324	wordpools/wasnorm_wordpool.txt	LTP065	ltpFR	0	3	-1	BRAKE	166	n/a	n/a	-1	1.0	1.0	1	upper	Verdana.ttf
648.722	n/a	WORD	324361	wordpools/wasnorm_wordpool.txt	LTP065	ltpFR	0	3	-1	VETERAN	1561	n/a	n/a	-1	1.0	1.0	1	upper	Verdana.ttf
652.806	n/a	WORD	326403	wordpools/wasnorm_wordpool.txt	LTP065	ltpFR	0	3	-1	WALL	1582	n/a	n/a	-1	1.0	1.0	1	upper	Verdana.ttf
656.754	n/a	WORD	328377	wordpools/wasnorm_wordpool.txt	LTP065	ltpFR	0	3	-1	TEAPOT	1442	n/a	n/a	-1	1.0	1.0	1	upper	Verdana.ttf
660.856	n/a	WORD	330428	wordpools/wasnorm_wordpool.txt	LTP065	ltpFR	0	3	-1	ARMY	39	n/a	n/a	-1	1.0	1.0	1	upper	Verdana.ttf
664.98	n/a	WORD	332490	wordpools/wasnorm_wordpool.txt	LTP065	ltpFR	0	3	-1	CANNON	232	n/a	n/a	-1	1.0	1.0	1	upper	Verdana.ttf
669.014	n/a	WORD	334507	wordpools/wasnorm_wordpool.txt	LTP065	ltpFR	0	3	-1	MICROSCOPE	891	n/a	n/a	-1	1.0	1.0	1	upper	Verdana.ttf
672.972	n/a	WORD	336486	wordpools/wasnorm_wordpool.txt	LTP065	ltpFR	0	3	-1	FRIAR	605	n/a	n/a	-1	1.0	1.0	1	upper	Verdana.ttf
676.922	n/a	WORD	338461	wordpools/wasnorm_wordpool.txt	LTP065	ltpFR	0	3	-1	VICTOR	1563	n/a	n/a	-1	1.0	1.0	1	upper	Verdana.ttf
680.906	n/a	WORD	340453	wordpools/wasnorm_wordpool.txt	LTP065	ltpFR	0	3	-1	MEDAL	885	n/a	n/a	-1	1.0	1.0	1	upper	Verdana.ttf
686.664	n/a	REC_START	343332	n/a	LTP065	ltpFR	0	3	n/a	n/a	n/a	n/a	n/a	n/a	n/a	n/a	n/a	n/a	n/a
687.82	n/a	REC_WORD	343910	wordpools/wasnorm_wordpool.txt	LTP065	ltpFR	0	3	-1	MEDAL	885	n/a	n/a	-1	n/a	n/a	n/a	n/a	n/a
689.298	n/a	REC_WORD	344649	wordpools/wasnorm_wordpool.txt	LTP065	ltpFR	0	3	-1	VICTOR	1563	n/a	n/a	-1	n/a	n/a	n/a	n/a	n/a
691.468	n/a	REC_WORD	345734	wordpools/wasnorm_wordpool.txt	LTP065	ltpFR	0	3	-1	FRIAR	605	n/a	n/a	-1	n/a	n/a	n/a	n/a	n/a
694.87	n/a	REC_WORD	347435	wordpools/wasnorm_wordpool.txt	LTP065	ltpFR	0	3	-1	TEAPOT	1442	n/a	n/a	-1	n/a	n/a	n/a	n/a	n/a
701.166	n/a	REC_WORD	350583	wordpools/wasnorm_wordpool.txt	LTP065	ltpFR	0	3	-1	ARMY	39	n/a	n/a	-1	n/a	n/a	n/a	n/a	n/a
703.566	n/a	REC_WORD_VV	351783	wordpools/wasnorm_wordpool.txt	LTP065	ltpFR	0	3	n/a	<>	-1	n/a	n/a	n/a	n/a	n/a	n/a	n/a	n/a
704.052	n/a	REC_WORD	352026	wordpools/wasnorm_wordpool.txt	LTP065	ltpFR	0	3	-1	FLEET	578	n/a	n/a	-1	n/a	n/a	n/a	n/a	n/a
705.966	n/a	REC_WORD	352983	wordpools/wasnorm_wordpool.txt	LTP065	ltpFR	0	3	-1	CAPTAIN	239	n/a	n/a	-1	n/a	n/a	n/a	n/a	n/a
709.088	n/a	REC_WORD	354544	wordpools/wasnorm_wordpool.txt	LTP065	ltpFR	0	3	-1	CANNON	232	n/a	n/a	-1	n/a	n/a	n/a	n/a	n/a
711.444	n/a	REC_WORD	355722	wordpools/wasnorm_wordpool.txt	LTP065	ltpFR	0	3	-1	MICROSCOPE	891	n/a	n/a	-1	n/a	n/a	n/a	n/a	n/a
721.35	n/a	REC_WORD	360675	wordpools/wasnorm_wordpool.txt	LTP065	ltpFR	0	3	-1	RESTAURANT	1187	n/a	n/a	-1	n/a	n/a	n/a	n/a	n/a
723.784	n/a	REC_WORD	361892	wordpools/wasnorm_wordpool.txt	LTP065	ltpFR	0	3	-1	FEAST	556	n/a	n/a	-1	n/a	n/a	n/a	n/a	n/a
740.498	n/a	REC_WORD	370249	wordpools/wasnorm_wordpool.txt	LTP065	ltpFR	0	3	-1	WINDSHIELD	1612	n/a	n/a	-1	n/a	n/a	n/a	n/a	n/a
746.476	n/a	REC_WORD	373238	wordpools/wasnorm_wordpool.txt	LTP065	ltpFR	0	3	-1	CAPTAIN	239	n/a	n/a	-1	n/a	n/a	n/a	n/a	n/a
769.544	n/a	WORD	384772	wordpools/wasnorm_wordpool.txt	LTP065	ltpFR	0	4	-1	NOMAD	955	n/a	n/a	-1	1.0	1.0	1	upper	Verdana.ttf
773.41	n/a	WORD	386705	wordpools/wasnorm_wordpool.txt	LTP065	ltpFR	0	4	-1	TEA	1439	n/a	n/a	-1	1.0	1.0	1	upper	Verdana.ttf
777.244	n/a	WORD	388622	wordpools/wasnorm_wordpool.txt	LTP065	ltpFR	0	4	-1	RESORT	1186	n/a	n/a	-1	1.0	1.0	1	upper	Verdana.ttf
781.118	n/a	WORD	390559	wordpools/wasnorm_wordpool.txt	LTP065	ltpFR	0	4	-1	BATHROOM	99	n/a	n/a	-1	1.0	1.0	1	upper	Verdana.ttf
785.152	n/a	WORD	392576	wordpools/wasnorm_wordpool.txt	LTP065	ltpFR	0	4	-1	CREAM	402	n/a	n/a	-1	1.0	1.0	1	upper	Verdana.ttf
789.128	n/a	WORD	394564	wordpools/wasnorm_wordpool.txt	LTP065	ltpFR	0	4	-1	BRICK	172	n/a	n/a	-1	1.0	1.0	1	upper	Verdana.ttf
793.078	n/a	WORD	396539	wordpools/wasnorm_wordpool.txt	LTP065	ltpFR	0	4	-1	MONUMENT	913	n/a	n/a	-1	1.0	1.0	1	upper	Verdana.ttf
797.26	n/a	WORD	398630	wordpools/wasnorm_wordpool.txt	LTP065	ltpFR	0	4	-1	INN	739	n/a	n/a	-1	1.0	1.0	1	upper	Verdana.ttf
801.46	n/a	WORD	400730	wordpools/wasnorm_wordpool.txt	LTP065	ltpFR	0	4	-1	MICROWAVE	892	n/a	n/a	-1	1.0	1.0	1	upper	Verdana.ttf
805.442	n/a	WORD	402721	wordpools/wasnorm_wordpool.txt	LTP065	ltpFR	0	4	-1	SNACK	1331	n/a	n/a	-1	1.0	1.0	1	upper	Verdana.ttf
809.502	n/a	WORD	404751	wordpools/wasnorm_wordpool.txt	LTP065	ltpFR	0	4	-1	WALRUS	1585	n/a	n/a	-1	1.0	1.0	1	upper	Verdana.ttf
813.46	n/a	WORD	406730	wordpools/wasnorm_wordpool.txt	LTP065	ltpFR	0	4	-1	SOFTBALL	1343	n/a	n/a	-1	1.0	1.0	1	upper	Verdana.ttf
817.342	n/a	WORD	408671	wordpools/wasnorm_wordpool.txt	LTP065	ltpFR	0	4	-1	BISON	131	n/a	n/a	-1	1.0	1.0	1	upper	Verdana.ttf
821.226	n/a	WORD	410613	wordpools/wasnorm_wordpool.txt	LTP065	ltpFR	0	4	-1	STRING	1394	n/a	n/a	-1	1.0	1.0	1	upper	Verdana.ttf
825.418	n/a	WORD	412709	wordpools/wasnorm_wordpool.txt	LTP065	ltpFR	0	4	-1	GALLON	618	n/a	n/a	-1	1.0	1.0	1	upper	Verdana.ttf
829.384	n/a	WORD	414692	wordpools/wasnorm_wordpool.txt	LTP065	ltpFR	0	4	-1	CARTON	251	n/a	n/a	-1	1.0	1.0	1	upper	Verdana.ttf
835.218	n/a	REC_START	417609	n/a	LTP065	ltpFR	0	4	n/a	n/a	n/a	n/a	n/a	n/a	n/a	n/a	n/a	n/a	n/a
836.84	n/a	REC_WORD	418420	wordpools/wasnorm_wordpool.txt	LTP065	ltpFR	0	4	-1	CARTON	251	n/a	n/a	-1	n/a	n/a	n/a	n/a	n/a
838.486	n/a	REC_WORD	419243	wordpools/wasnorm_wordpool.txt	LTP065	ltpFR	0	4	-1	GALLON	618	n/a	n/a	-1	n/a	n/a	n/a	n/a	n/a
840.7	n/a	REC_WORD	420350	wordpools/wasnorm_wordpool.txt	LTP065	ltpFR	0	4	-1	BISON	131	n/a	n/a	-1	n/a	n/a	n/a	n/a	n/a
843.016	n/a	REC_WORD	421508	wordpools/wasnorm_wordpool.txt	LTP065	ltpFR	0	4	-1	INN	739	n/a	n/a	-1	n/a	n/a	n/a	n/a	n/a
857.614	n/a	REC_WORD	428807	wordpools/wasnorm_wordpool.txt	LTP065	ltpFR	0	4	-1	STRING	1394	n/a	n/a	-1	n/a	n/a	n/a	n/a	n/a
862.194	n/a	REC_WORD	431097	wordpools/wasnorm_wordpool.txt	LTP065	ltpFR	0	4	-1	CREAM	402	n/a	n/a	-1	n/a	n/a	n/a	n/a	n/a
864.578	n/a	REC_WORD	432289	wordpools/wasnorm_wordpool.txt	LTP065	ltpFR	0	4	-1	NOMAD	955	n/a	n/a	-1	n/a	n/a	n/a	n/a	n/a
872.91	n/a	REC_WORD	436455	wordpools/wasnorm_wordpool.txt	LTP065	ltpFR	0	4	-1	RESORT	1186	n/a	n/a	-1	n/a	n/a	n/a	n/a	n/a
875.124	n/a	REC_WORD	437562	wordpools/wasnorm_wordpool.txt	LTP065	ltpFR	0	4	-1	TEA	1439	n/a	n/a	-1	n/a	n/a	n/a	n/a	n/a
891.134	n/a	REC_WORD	445567	wordpools/wasnorm_wordpool.txt	LTP065	ltpFR	0	4	-1	MICROWAVE	892	n/a	n/a	-1	n/a	n/a	n/a	n/a	n/a
893.544	n/a	REC_WORD	446772	wordpools/wasnorm_wordpool.txt	LTP065	ltpFR	0	4	-1	SNACK	1331	n/a	n/a	-1	n/a	n/a	n/a	n/a	n/a
1073.57	n/a	WORD	536785	wordpools/wasnorm_wordpool.txt	LTP065	ltpFR	0	5	1	POLYESTER	1100	n/a	n/a	0	0.422607421875	0.5869140625	0	lower	zerothre.ttf
1077.57	n/a	WORD	538785	wordpools/wasnorm_wordpool.txt	LTP065	ltpFR	0	5	1	DOLLAR	482	n/a	n/a	0	0.422607421875	0.5869140625	0	lower	zerothre.ttf
1081.678	n/a	WORD	540839	wordpools/wasnorm_wordpool.txt	LTP065	ltpFR	0	5	1	BAKER	71	n/a	n/a	0	0.422607421875	0.5869140625	0	lower	zerothre.ttf
1085.528	n/a	WORD	542764	wordpools/wasnorm_wordpool.txt	LTP065	ltpFR	0	5	1	HANGER	687	n/a	n/a	0	0.422607421875	0.5869140625	0	lower	zerothre.ttf
1089.378	n/a	WORD	544689	wordpools/wasnorm_wordpool.txt	LTP065	ltpFR	0	5	1	SUGAR	1401	n/a	n/a	0	0.422607421875	0.5869140625	0	lower	zerothre.ttf
1093.252	n/a	WORD	546626	wordpools/wasnorm_wordpool.txt	LTP065	ltpFR	0	5	1	TART	1436	n/a	n/a	0	0.422607421875	0.5869140625	0	lower	zerothre.ttf
1097.302	n/a	WORD	548651	wordpools/wasnorm_wordpool.txt	LTP065	ltpFR	0	5	1	BELLY	119	n/a	n/a	1	0.422607421875	0.5869140625	0	lower	zerothre.ttf
1101.236	n/a	WORD	550618	wordpools/wasnorm_wordpool.txt	LTP065	ltpFR	0	5	1	CHECK	284	n/a	n/a	0	0.422607421875	0.5869140625	0	lower	zerothre.ttf
1105.17	n/a	WORD	552585	wordpools/wasnorm_wordpool.txt	LTP065	ltpFR	0	5	1	CARDINAL	244	n/a	n/a	1	0.422607421875	0.5869140625	0	lower	zerothre.ttf
1109.152	n/a	WORD	554576	wordpools/wasnorm_wordpool.txt	LTP065	ltpFR	0	5	1	QUAIL	1147	n/a	n/a	1	0.422607421875	0.5869140625	0	lower	zerothre.ttf
1113.328	n/a	WORD	556664	wordpools/wasnorm_wordpool.txt	LTP065	ltpFR	0	5	1	PUMPKIN	1142	n/a	n/a	1	0.422607421875	0.5869140625	0	lower	zerothre.ttf
1117.426	n/a	WORD	558713	wordpools/wasnorm_wordpool.txt	LTP065	ltpFR	0	5	1	FLEA	577	n/a	n/a	1	0.422607421875	0.5869140625	0	lower	zerothre.ttf
1121.352	n/a	WORD	560676	wordpools/wasnorm_wordpool.txt	LTP065	ltpFR	0	5	1	COCOON	339	n/a	n/a	0	0.422607421875	0.5869140625	0	lower	zerothre.ttf
1125.318	n/a	WORD	562659	wordpools/wasnorm_wordpool.txt	LTP065	ltpFR	0	5	1	BROOM	178	n/a	n/a	0	0.422607421875	0.5869140625	0	lower	zerothre.ttf
1129.302	n/a	WORD	564651	wordpools/wasnorm_wordpool.txt	LTP065	ltpFR	0	5	1	ASSOCIATE	49	n/a	n/a	1	0.422607421875	0.5869140625	0	lower	zerothre.ttf
1133.136	n/a	WORD	566568	wordpools/wasnorm_wordpool.txt	LTP065	ltpFR	0	5	1	SECRETARY	1265	n/a	n/a	1	0.422607421875	0.5869140625	0	lower	zerothre.ttf
1138.952	n/a	REC_START	569476	n/a	LTP065	ltpFR	0	5	n/a	n/a	n/a	n/a	n/a	n/a	n/a	n/a	n/a	n/a	n/a
1138.958	n/a	REC_WORD	569479	wordpools/wasnorm_wordpool.txt	LTP065	ltpFR	0	5	n/a	[???]	-1	n/a	n/a	n/a	n/a	n/a	n/a	n/a	n/a
1140.254	n/a	REC_WORD	570127	wordpools/wasnorm_wordpool.txt	LTP065	ltpFR	0	5	1	ASSOCIATE	49	n/a	n/a	1	n/a	n/a	n/a	n/a	n/a
1141.452	n/a	REC_WORD_VV	570726	wordpools/wasnorm_wordpool.txt	LTP065	ltpFR	0	5	n/a	<>	-1	n/a	n/a	n/a	n/a	n/a	n/a	n/a	n/a
1141.722	n/a	REC_WORD	570861	wordpools/wasnorm_wordpool.txt	LTP065	ltpFR	0	5	1	SECRETARY	1265	n/a	n/a	1	n/a	n/a	n/a	n/a	n/a
1148.682	n/a	REC_WORD	574341	wordpools/wasnorm_wordpool.txt	LTP065	ltpFR	0	5	1	BROOM	178	n/a	n/a	0	n/a	n/a	n/a	n/a	n/a
1155.97	n/a	REC_WORD	577985	wordpools/wasnorm_wordpool.txt	LTP065	ltpFR	0	5	1	COCOON	339	n/a	n/a	0	n/a	n/a	n/a	n/a	n/a
1161.092	n/a	REC_WORD	580546	wordpools/wasnorm_wordpool.txt	LTP065	ltpFR	0	5	1	FLEA	577	n/a	n/a	1	n/a	n/a	n/a	n/a	n/a
1162.444	n/a	REC_WORD	581222	wordpools/wasnorm_wordpool.txt	LTP065	ltpFR	0	5	1	PUMPKIN	1142	n/a	n/a	1	n/a	n/a	n/a	n/a	n/a
1166.696	n/a	REC_WORD	583348	wordpools/wasnorm_wordpool.txt	LTP065	ltpFR	0	5	1	DOLLAR	482	n/a	n/a	0	n/a	n/a	n/a	n/a	n/a
1174.588	n/a	REC_WORD	587294	wordpools/wasnorm_wordpool.txt	LTP065	ltpFR	0	5	1	CARDINAL	244	n/a	n/a	1	n/a	n/a	n/a	n/a	n/a
1181.254	n/a	REC_WORD	590627	wordpools/wasnorm_wordpool.txt	LTP065	ltpFR	0	5	1	BAKER	71	n/a	n/a	0	n/a	n/a	n/a	n/a	n/a
1188.698	n/a	REC_WORD	594349	wordpools/wasnorm_wordpool.txt	LTP065	ltpFR	0	5	1	BELLY	119	n/a	n/a	1	n/a	n/a	n/a	n/a	n/a
1246.624	n/a	WORD	623312	wordpools/wasnorm_wordpool.txt	LTP065	ltpFR	0	6	1	BEAN	105	n/a	n/a	1	0.422607421875	0.5869140625	0	lower	zerothre.ttf
1250.782	n/a	WORD	625391	wordpools/wasnorm_wordpool.txt	LTP065	ltpFR	0	6	1	STETHOSCOPE	1379	n/a	n/a	0	0.422607421875	0.5869140625	0	lower	zerothre.ttf
1254.732	n/a	WORD	627366	wordpools/wasnorm_wordpool.txt	LTP065	ltpFR	0	6	1	EAGLE	512	n/a	n/a	1	0.422607421875	0.5869140625	0	lower	zerothre.ttf
1258.69	n/a	WORD	629345	wordpools/wasnorm_wordpool.txt	LTP065	ltpFR	0	6	1	BLANKET	135	n/a	n/a	0	0.422607421875	0.5869140625	0	lower	zerothre.ttf
1262.832	n/a	WORD	631416	wordpools/wasnorm_wordpool.txt	LTP065	ltpFR	0	6	1	NIGHTGOWN	953	n/a	n/a	0	0.422607421875	0.5869140625	0	lower	zerothre.ttf
1266.89	n/a	WORD	633445	wordpools/wasnorm_wordpool.txt	LTP065	ltpFR	0	6	1	REPTILE	1185	n/a	n/a	1	0.422607421875	0.5869140625	0	lower	zerothre.ttf
1270.858	n/a	WORD	635429	wordpools/wasnorm_wordpool.txt	LTP065	ltpFR	0	6	1	ANCESTOR	20	n/a	n/a	0	0.422607421875	0.5869140625	0	lower	zerothre.ttf
1274.882	n/a	WORD	637441	wordpools/wasnorm_wordpool.txt	LTP065	ltpFR	0	6	1	NEPHEW	942	n/a	n/a	0	0.422607421875	0.5869140625	0	lower	zerothre.ttf
1278.858	n/a	WORD	639429	wordpools/wasnorm_wordpool.txt	LTP065	ltpFR	0	6	1	ORCHESTRA	981	n/a	n/a	0	0.422607421875	0.5869140625	0	lower	zerothre.ttf
1282.706	n/a	WORD	641353	wordpools/wasnorm_wordpool.txt	LTP065	ltpFR	0	6	1	OBOE	969	n/a	n/a	0	0.422607421875	0.5869140625	0	lower	zerothre.ttf
1286.74	n/a	WORD	643370	wordpools/wasnorm_wordpool.txt	LTP065	ltpFR	0	6	1	MONGOOSE	909	n/a	n/a	1	0.422607421875	0.5869140625	0	lower	zerothre.ttf
1290.672	n/a	WORD	645336	wordpools/wasnorm_wordpool.txt	LTP065	ltpFR	0	6	1	BROCCOLI	176	n/a	n/a	1	0.422607421875	0.5869140625	0	lower	zerothre.ttf
1294.556	n/a	WORD	647278	wordpools/wasnorm_wordpool.txt	LTP065	ltpFR	0	6	1	WITCH	1617	n/a	n/a	0	0.422607421875	0.5869140625	0	lower	zerothre.ttf
1298.398	n/a	WORD	649199	wordpools/wasnorm_wordpool.txt	LTP065	ltpFR	0	6	1	MARBLE	867	n/a	n/a	0	0.422607421875	0.5869140625	0	lower	zerothre.ttf
1302.59	n/a	WORD	651295	wordpools/wasnorm_wordpool.txt	LTP065	ltpFR	0	6	1	BUTCHER	203	n/a	n/a	1	0.422607421875	0.5869140625	0	lower	zerothre.ttf
1306.622	n/a	WORD	653311	wordpools/wasnorm_wordpool.txt	LTP065	ltpFR	0	6	1	BANDANNA	80	n/a	n/a	0	0.422607421875	0.5869140625	0	lower	zerothre.ttf
1312.364	n/a	REC_START	656182	n/a	LTP065	ltpFR	0	6	n/a	n/a	n/a	n/a	n/a	n/a	n/a	n/a	n/a	n/a	n/a
1313.57	n/a	REC_WORD	656785	wordpools/wasnorm_wordpool.txt	LTP065	ltpFR	0	6	1	BANDANNA	80	n/a	n/a	0	n/a	n/a	n/a	n/a	n/a
1315.352	n/a	REC_WORD	657676	wordpools/wasnorm_wordpool.txt	LTP065	ltpFR	0	6	1	BUTCHER	203	n/a	n/a	1	n/a	n/a	n/a	n/a	n/a
1322.126	n/a	REC_WORD	661063	wordpools/wasnorm_wordpool.txt	LTP065	ltpFR	0	6	1	MARBLE	867	n/a	n/a	0	n/a	n/a	n/a	n/a	n/a
1324.826	n/a	REC_WORD	662413	wordpools/wasnorm_wordpool.txt	LTP065	ltpFR	0	6	1	BROCCOLI	176	n/a	n/a	1	n/a	n/a	n/a	n/a	n/a
1329.75	n/a	REC_WORD	664875	wordpools/wasnorm_wordpool.txt	LTP065	ltpFR	0	6	1	ANCESTOR	20	n/a	n/a	0	n/a	n/a	n/a	n/a	n/a
1333.69	n/a	REC_WORD	666845	wordpools/wasnorm_wordpool.txt	LTP065	ltpFR	0	6	1	NEPHEW	942	n/a	n/a	0	n/a	n/a	n/a	n/a	n/a
1337.712	n/a	REC_WORD	668856	wordpools/wasnorm_wordpool.txt	LTP065	ltpFR	0	6	1	MONGOOSE	909	n/a	n/a	1	n/a	n/a	n/a	n/a	n/a
1357.888	n/a	REC_WORD	678944	wordpools/wasnorm_wordpool.txt	LTP065	ltpFR	0	6	1	ORCHESTRA	981	n/a	n/a	0	n/a	n/a	n/a	n/a	n/a
1359.604	n/a	REC_WORD	679802	wordpools/wasnorm_wordpool.txt	LTP065	ltpFR	0	6	1	OBOE	969	n/a	n/a	0	n/a	n/a	n/a	n/a	n/a
1363.336	n/a	REC_WORD	681668	wordpools/wasnorm_wordpool.txt	LTP065	ltpFR	0	6	1	WITCH	1617	n/a	n/a	0	n/a	n/a	n/a	n/a	n/a
1394.938	n/a	WORD	697469	wordpools/wasnorm_wordpool.txt	LTP065	ltpFR	0	7	1	CLAM	315	n/a	n/a	1	0.422607421875	0.5869140625	0	lower	zerothre.ttf
1398.754	n/a	WORD	699377	wordpools/wasnorm_wordpool.txt	LTP065	ltpFR	0	7	1	SHORE	1291	n/a	n/a	0	0.422607421875	0.5869140625	0	lower	zerothre.ttf
1402.786	n/a	WORD	701393	wordpools/wasnorm_wordpool.txt	LTP065	ltpFR	0	7	1	SIRLOIN	1311	n/a	n/a	0	0.422607421875	0.5869140625	0	lower	zerothre.ttf
1406.704	n/a	WORD	703352	wordpools/wasnorm_wordpool.txt	LTP065	ltpFR	0	7	1	SUPPER	1411	n/a	n/a	0	0.422607421875	0.5869140625	0	lower	zerothre.ttf
1410.562	n/a	WORD	705281	wordpools/wasnorm_wordpool.txt	LTP065	ltpFR	0	7	1	SEASHORE	1263	n/a	n/a	0	0.422607421875	0.5869140625	0	lower	zerothre.ttf
1414.444	n/a	WORD	707222	wordpools/wasnorm_wordpool.txt	LTP065	ltpFR	0	7	1	VEAL	1551	n/a	n/a	0	0.422607421875	0.5869140625	0	lower	zerothre.ttf
1418.636	n/a	WORD	709318	wordpools/wasnorm_wordpool.txt	LTP065	ltpFR	0	7	1	LOVER	846	n/a	n/a	1	0.422607421875	0.5869140625	0	lower	zerothre.ttf
1422.744	n/a	WORD	711372	wordpools/wasnorm_wordpool.txt	LTP065	ltpFR	0	7	1	SCALLOP	1242	n/a	n/a	1	0.422607421875	0.5869140625	0	lower	zerothre.ttf
1426.92	n/a	WORD	713460	wordpools/wasnorm_wordpool.txt	LTP065	ltpFR	0	7	1	ELECTRON	522	n/a	n/a	0	0.422607421875	0.5869140625	0	lower	zerothre.ttf
1430.928	n/a	WORD	715464	wordpools/wasnorm_wordpool.txt	LTP065	ltpFR	0	7	1	SICKLE	1302	n/a	n/a	0	0.422607421875	0.5869140625	0	lower	zerothre.ttf
1434.92	n/a	WORD	717460	wordpools/wasnorm_wordpool.txt	LTP065	ltpFR	0	7	1	MOTH	920	n/a	n/a	1	0.422607421875	0.5869140625	0	lower	zerothre.ttf
1438.994	n/a	WORD	719497	wordpools/wasnorm_wordpool.txt	LTP065	ltpFR	0	7	1	BUTTERFLY	206	n/a	n/a	1	0.422607421875	0.5869140625	0	lower	zerothre.ttf
1442.854	n/a	WORD	721427	wordpools/wasnorm_wordpool.txt	LTP065	ltpFR	0	7	1	CAB	209	n/a	n/a	0	0.422607421875	0.5869140625	0	lower	zerothre.ttf
1446.76	n/a	WORD	723380	wordpools/wasnorm_wordpool.txt	LTP065	ltpFR	0	7	1	WAGON	1578	n/a	n/a	0	0.422607421875	0.5869140625	0	lower	zerothre.ttf
1450.844	n/a	WORD	725422	wordpools/wasnorm_wordpool.txt	LTP065	ltpFR	0	7	1	TOE	1473	n/a	n/a	1	0.422607421875	0.5869140625	0	lower	zerothre.ttf
1454.744	n/a	WORD	727372	wordpools/wasnorm_wordpool.txt	LTP065	ltpFR	0	7	1	LENS	811	n/a	n/a	0	0.422607421875	0.5869140625	0	lower	zerothre.ttf
1460.402	n/a	REC_START	730201	n/a	LTP065	ltpFR	0	7	n/a	n/a	n/a	n/a	n/a	n/a	n/a	n/a	n/a	n/a	n/a
1462.014	n/a	REC_WORD	731007	wordpools/wasnorm_wordpool.txt	LTP065	ltpFR	0	7	1	LENS	811	n/a	n/a	0	n/a	n/a	n/a	n/a	n/a
1463.49	n/a	REC_WORD	731745	wordpools/wasnorm_wordpool.txt	LTP065	ltpFR	0	7	1	TOE	1473	n/a	n/a	1	n/a	n/a	n/a	n/a	n/a
1467.91	n/a	REC_WORD	733955	wordpools/wasnorm_wordpool.txt	LTP065	ltpFR	0	7	1	CLAM	315	n/a	n/a	1	n/a	n/a	n/a	n/a	n/a
1471.482	n/a	REC_WORD	735741	wordpools/wasnorm_wordpool.txt	LTP065	ltpFR	0	7	1	SHORE	1291	n/a	n/a	0	n/a	n/a	n/a	n/a	n/a
1473.876	n/a	REC_WORD	736938	wordpools/wasnorm_wordpool.txt	LTP065	ltpFR	0	7	1	SEASHORE	1263	n/a	n/a	0	n/a	n/a	n/a	n/a	n/a
1478.336	n/a	REC_WORD	739168	wordpools/wasnorm_wordpool.txt	LTP065	ltpFR	0	7	1	ELECTRON	522	n/a	n/a	0	n/a	n/a	n/a	n/a	n/a
1503.94	n/a	REC_WORD	751970	wordpools/wasnorm_wordpool.txt	LTP065	ltpFR	0	7	1	TOE	1473	n/a	n/a	1	n/a	n/a	n/a	n/a	n/a
1516.87	n/a	REC_WORD	758435	wordpools/wasnorm_wordpool.txt	LTP065	ltpFR	0	7	1	CAB	209	n/a	n/a	0	n/a	n/a	n/a	n/a	n/a
1533.494	n/a	REC_WORD	766747	wordpools/wasnorm_wordpool.txt	LTP065	ltpFR	0	7	1	BUTTERFLY	206	n/a	n/a	1	n/a	n/a	n/a	n/a	n/a
1540.808	n/a	WORD	770404	wordpools/wasnorm_wordpool.txt	LTP065	ltpFR	0	8	1	PLANT	1083	n/a	n/a	1	0.422607421875	0.5869140625	0	lower	zerothre.ttf
1544.74	n/a	WORD	772370	wordpools/wasnorm_wordpool.txt	LTP065	ltpFR	0	8	1	BUTLER	204	n/a	n/a	1	0.422607421875	0.5869140625	0	lower	zerothre.ttf
1548.808	n/a	WORD	774404	wordpools/wasnorm_wordpool.txt	LTP065	ltpFR	0	8	1	STAPLE	1371	n/a	n/a	0	0.422607421875	0.5869140625	0	lower	zerothre.ttf
1552.766	n/a	WORD	776383	wordpools/wasnorm_wordpool.txt	LTP065	ltpFR	0	8	1	SHEET	1279	n/a	n/a	0	0.422607421875	0.5869140625	0	lower	zerothre.ttf
1556.816	n/a	WORD	778408	wordpools/wasnorm_wordpool.txt	LTP065	ltpFR	0	8	1	COUNTRY	388	n/a	n/a	0	0.422607421875	0.5869140625	0	lower	zerothre.ttf
1561.008	n/a	WORD	780504	wordpools/wasnorm_wordpool.txt	LTP065	ltpFR	0	8	1	TOURIST	1488	n/a	n/a	1	0.422607421875	0.5869140625	0	lower	zerothre.ttf
1564.832	n/a	WORD	782416	wordpools/wasnorm_wordpool.txt	LTP065	ltpFR	0	8	1	STREAM	1392	n/a	n/a	0	0.422607421875	0.5869140625	0	lower	zerothre.ttf
1569.024	n/a	WORD	784512	wordpools/wasnorm_wordpool.txt	LTP065	ltpFR	0	8	1	TOMATO	1476	n/a	n/a	1	0.422607421875	0.5869140625	0	lower	zerothre.ttf
1572.84	n/a	WORD	786420	wordpools/wasnorm_wordpool.txt	LTP065	ltpFR	0	8	1	JACKET	747	n/a	n/a	0	0.422607421875	0.5869140625	0	lower	zerothre.ttf
1576.716	n/a	WORD	788358	wordpools/wasnorm_wordpool.txt	LTP065	ltpFR	0	8	1	TRENCH	1503	n/a	n/a	0	0.422607421875	0.5869140625	0	lower	zerothre.ttf
1580.556	n/a	WORD	790278	wordpools/wasnorm_wordpool.txt	LTP065	ltpFR	0	8	1	ACROBAT	4	n/a	n/a	1	0.422607421875	0.5869140625	0	lower	zerothre.ttf
1584.548	n/a	WORD	792274	wordpools/wasnorm_wordpool.txt	LTP065	ltpFR	0	8	1	SERVER	1272	n/a	n/a	1	0.422607421875	0.5869140625	0	lower	zerothre.ttf
1588.75	n/a	WORD	794375	wordpools/wasnorm_wordpool.txt	LTP065	ltpFR	0	8	1	CREEK	404	n/a	n/a	0	0.422607421875	0.5869140625	0	lower	zerothre.ttf
1592.632	n/a	WORD	796316	wordpools/wasnorm_wordpool.txt	LTP065	ltpFR	0	8	1	REGISTER	1180	n/a	n/a	0	0.422607421875	0.5869140625	0	lower	zerothre.ttf
1596.516	n/a	WORD	798258	wordpools/wasnorm_wordpool.txt	LTP065	ltpFR	0	8	1	CHEST	295	n/a	n/a	0	0.422607421875	0.5869140625	0	lower	zerothre.ttf
1600.424	n/a	WORD	800212	wordpools/wasnorm_wordpool.txt	LTP065	ltpFR	0	8	1	COLUMN	350	n/a	n/a	0	0.422607421875	0.5869140625	0	lower	zerothre.ttf
1606.132	n/a	REC_START	803066	n/a	LTP065	ltpFR	0	8	n/a	n/a	n/a	n/a	n/a	n/a	n/a	n/a	n/a	n/a	n/a
1607.174	n/a	REC_WORD	803587	wordpools/wasnorm_wordpool.txt	LTP065	ltpFR	0	8	1	COLUMN	350	n/a	n/a	0	n/a	n/a	n/a	n/a	n/a
1608.63	n/a	REC_WORD	804315	wordpools/wasnorm_wordpool.txt	LTP065	ltpFR	0	8	1	CHEST	295	n/a	n/a	0	n/a	n/a	n/a	n/a	n/a
1610.318	n/a	REC_WORD	805159	wordpools/wasnorm_wordpool.txt	LTP065	ltpFR	0	8	1	SERVER	1272	n/a	n/a	1	n/a	n/a	n/a	n/a	n/a
1619.876	n/a	REC_WORD	809938	wordpools/wasnorm_wordpool.txt	LTP065	ltpFR	0	8	1	PLANT	1083	n/a	n/a	1	n/a	n/a	n/a	n/a	n/a
1621.882	n/a	REC_WORD	810941	wordpools/wasnorm_wordpool.txt	LTP065	ltpFR	0	8	1	SHEET	1279	n/a	n/a	0	n/a	n/a	n/a	n/a	n/a
1628.786	n/a	REC_WORD	814393	wordpools/wasnorm_wordpool.txt	LTP065	ltpFR	0	8	1	TOMATO	1476	n/a	n/a	1	n/a	n/a	n/a	n/a	n/a
1637.128	n/a	REC_WORD	818564	wordpools/wasnorm_wordpool.txt	LTP065	ltpFR	0	8	1	CREEK	404	n/a	n/a	0	n/a	n/a	n/a	n/a	n/a
1639.622	n/a	REC_WORD	819811	wordpools/wasnorm_wordpool.txt	LTP065	ltpFR	0	8	1	STREAM	1392	n/a	n/a	0	n/a	n/a	n/a	n/a	n/a
1657.732	n/a	REC_WORD	828866	wordpools/wasnorm_wordpool.txt	LTP065	ltpFR	0	8	1	REGISTER	1180	n/a	n/a	0	n/a	n/a	n/a	n/a	n/a
1667.8	n/a	REC_WORD	833900	wordpools/wasnorm_wordpool.txt	LTP065	ltpFR	0	8	1	COUNTRY	388	n/a	n/a	0	n/a	n/a	n/a	n/a	n/a
1687.906	n/a	WORD	843953	wordpools/wasnorm_wordpool.txt	LTP065	ltpFR	0	9	0	KETTLE	772	n/a	n/a	0	0.57763671875	0.412841796875	1	upper	amplitud.ttf
1691.88	n/a	WORD	845940	wordpools/wasnorm_wordpool.txt	LTP065	ltpFR	0	9	0	SPICE	1350	n/a	n/a	0	0.57763671875	0.412841796875	1	upper	amplitud.ttf
1695.988	n/a	WORD	847994	wordpools/wasnorm_wordpool.txt	LTP065	ltpFR	0	9	0	TELESCOPE	1446	n/a	n/a	1	0.57763671875	0.412841796875	1	upper	amplitud.ttf
1699.856	n/a	WORD	849928	wordpools/wasnorm_wordpool.txt	LTP065	ltpFR	0	9	0	UNIVERSE	1540	n/a	n/a	1	0.57763671875	0.412841796875	1	upper	amplitud.ttf
1703.73	n/a	WORD	851865	wordpools/wasnorm_wordpool.txt	LTP065	ltpFR	0	9	0	DRAWER	493	n/a	n/a	0	0.57763671875	0.412841796875	1	upper	amplitud.ttf
1707.57	n/a	WORD	853785	wordpools/wasnorm_wordpool.txt	LTP065	ltpFR	0	9	0	CAT	257	n/a	n/a	0	0.57763671875	0.412841796875	1	upper	amplitud.ttf
1711.628	n/a	WORD	855814	wordpools/wasnorm_wordpool.txt	LTP065	ltpFR	0	9	0	DEPUTY	450	n/a	n/a	1	0.57763671875	0.412841796875	1	upper	amplitud.ttf
1715.646	n/a	WORD	857823	wordpools/wasnorm_wordpool.txt	LTP065	ltpFR	0	9	0	POLICE	1098	n/a	n/a	1	0.57763671875	0.412841796875	1	upper	amplitud.ttf
1719.728	n/a	WORD	859864	wordpools/wasnorm_wordpool.txt	LTP065	ltpFR	0	9	0	STOCKING	1383	n/a	n/a	0	0.57763671875	0.412841796875	1	upper	amplitud.ttf
1723.922	n/a	WORD	861961	wordpools/wasnorm_wordpool.txt	LTP065	ltpFR	0	9	0	PIER	1063	n/a	n/a	1	0.57763671875	0.412841796875	1	upper	amplitud.ttf
1727.946	n/a	WORD	863973	wordpools/wasnorm_wordpool.txt	LTP065	ltpFR	0	9	0	ANTENNA	28	n/a	n/a	0	0.57763671875	0.412841796875	1	upper	amplitud.ttf
1732.052	n/a	WORD	866026	wordpools/wasnorm_wordpool.txt	LTP065	ltpFR	0	9	0	SCREEN	1253	n/a	n/a	0	0.57763671875	0.412841796875	1	upper	amplitud.ttf
1736.146	n/a	WORD	868073	wordpools/wasnorm_wordpool.txt	LTP065	ltpFR	0	9	0	PORT	1110	n/a	n/a	1	0.57763671875	0.412841796875	1	upper	amplitud.ttf
1740.02	n/a	WORD	870010	wordpools/wasnorm_wordpool.txt	LTP065	ltpFR	0	9	0	SLEIGH	1325	n/a	n/a	1	0.57763671875	0.412841796875	1	upper	amplitud.ttf
1744.178	n/a	WORD	872089	wordpools/wasnorm_wordpool.txt	LTP065	ltpFR	0	9	0	THREAD	1460	n/a	n/a	0	0.57763671875	0.412841796875	1	upper	amplitud.ttf
1748.32	n/a	WORD	874160	wordpools/wasnorm_wordpool.txt	LTP065	ltpFR	0	9	0	GOWN	652	n/a	n/a	1	0.57763671875	0.412841796875	1	upper	amplitud.ttf
1753.904	n/a	REC_START	876952	n/a	LTP065	ltpFR	0	9	n/a	n/a	n/a	n/a	n/a	n/a	n/a	n/a	n/a	n/a	n/a
1755.256	n/a	REC_WORD	877628	wordpools/wasnorm_wordpool.txt	LTP065	ltpFR	0	9	0	GOWN	652	n/a	n/a	1	n/a	n/a	n/a	n/a	n/a
1756.894	n/a	REC_WORD	878447	wordpools/wasnorm_wordpool.txt	LTP065	ltpFR	0	9	0	THREAD	1460	n/a	n/a	0	n/a	n/a	n/a	n/a	n/a
1759.638	n/a	REC_WORD	879819	wordpools/wasnorm_wordpool.txt	LTP065	ltpFR	0	9	0	DEPUTY	450	n/a	n/a	1	n/a	n/a	n/a	n/a	n/a
1761.842	n/a	REC_WORD	880921	wordpools/wasnorm_wordpool.txt	LTP065	ltpFR	0	9	0	UNIVERSE	1540	n/a	n/a	1	n/a	n/a	n/a	n/a	n/a
1763.948	n/a	REC_WORD	881974	wordpools/wasnorm_wordpool.txt	LTP065	ltpFR	0	9	0	DRAWER	493	n/a	n/a	0	n/a	n/a	n/a	n/a	n/a
1769.026	n/a	REC_WORD	884513	wordpools/wasnorm_wordpool.txt	LTP065	ltpFR	0	9	0	STOCKING	1383	n/a	n/a	0	n/a	n/a	n/a	n/a	n/a
1771.84	n/a	REC_WORD	885920	wordpools/wasnorm_wordpool.txt	LTP065	ltpFR	0	9	0	CAT	257	n/a	n/a	0	n/a	n/a	n/a	n/a	n/a
1777.826	n/a	REC_WORD	888913	wordpools/wasnorm_wordpool.txt	LTP065	ltpFR	0	9	0	KETTLE	772	n/a	n/a	0	n/a	n/a	n/a	n/a	n/a
1786.558	n/a	REC_WORD	893279	wordpools/wasnorm_wordpool.txt	LTP065	ltpFR	0	9	0	GOWN	652	n/a	n/a	1	n/a	n/a	n/a	n/a	n/a
1794.52	n/a	REC_WORD	897260	wordpools/wasnorm_wordpool.txt	LTP065	ltpFR	0	9	0	POLICE	1098	n/a	n/a	1	n/a	n/a	n/a	n/a	n/a
1821.19	n/a	REC_WORD	910595	wordpools/wasnorm_wordpool.txt	LTP065	ltpFR	0	9	0	SCREEN	1253	n/a	n/a	0	n/a	n/a	n/a	n/a	n/a
1836.634	n/a	WORD	918317	wordpools/wasnorm_wordpool.txt	LTP065	ltpFR	0	10	0	ARTIST	43	n/a	n/a	1	0.57763671875	0.412841796875	1	upper	amplitud.ttf
1840.518	n/a	WORD	920259	wordpools/wasnorm_wordpool.txt	LTP065	ltpFR	0	10	0	MAP	865	n/a	n/a	0	0.57763671875	0.412841796875	1	upper	amplitud.ttf
1844.618	n/a	WORD	922309	wordpools/wasnorm_wordpool.txt	LTP065	ltpFR	0	10	0	PEDESTRIAN	1038	n/a	n/a	1	0.57763671875	0.412841796875	1	upper	amplitud.ttf
1848.668	n/a	WORD	924334	wordpools/wasnorm_wordpool.txt	LTP065	ltpFR	0	10	0	JEANS	752	n/a	n/a	0	0.57763671875	0.412841796875	1	upper	amplitud.ttf
1852.8	n/a	WORD	926400	wordpools/wasnorm_wordpool.txt	LTP065	ltpFR	0	10	0	FAN	551	n/a	n/a	1	0.57763671875	0.412841796875	1	upper	amplitud.ttf
1856.816	n/a	WORD	928408	wordpools/wasnorm_wordpool.txt	LTP065	ltpFR	0	10	0	DICTATOR	462	n/a	n/a	1	0.57763671875	0.412841796875	1	upper	amplitud.ttf
1861.0	n/a	WORD	930500	wordpools/wasnorm_wordpool.txt	LTP065	ltpFR	0	10	0	QUEEN	1149	n/a	n/a	1	0.57763671875	0.412841796875	1	upper	amplitud.ttf
1864.91	n/a	WORD	932455	wordpools/wasnorm_wordpool.txt	LTP065	ltpFR	0	10	0	RIVER	1194	n/a	n/a	1	0.57763671875	0.412841796875	1	upper	amplitud.ttf
1868.808	n/a	WORD	934404	wordpools/wasnorm_wordpool.txt	LTP065	ltpFR	0	10	0	BRIDGE	174	n/a	n/a	1	0.57763671875	0.412841796875	1	upper	amplitud.ttf
1872.634	n/a	WORD	936317	wordpools/wasnorm_wordpool.txt	LTP065	ltpFR	0	10	0	GIFT	635	n/a	n/a	0	0.57763671875	0.412841796875	1	upper	amplitud.ttf
1876.842	n/a	WORD	938421	wordpools/wasnorm_wordpool.txt	LTP065	ltpFR	0	10	0	OCTOPUS	971	n/a	n/a	1	0.57763671875	0.412841796875	1	upper	amplitud.ttf
1880.766	n/a	WORD	940383	wordpools/wasnorm_wordpool.txt	LTP065	ltpFR	0	10	0	PAPER	1011	n/a	n/a	0	0.57763671875	0.412841796875	1	upper	amplitud.ttf
1884.592	n/a	WORD	942296	wordpools/wasnorm_wordpool.txt	LTP065	ltpFR	0	10	0	BALLOON	75	n/a	n/a	0	0.57763671875	0.412841796875	1	upper	amplitud.ttf
1888.766	n/a	WORD	944383	wordpools/wasnorm_wordpool.txt	LTP065	ltpFR	0	10	0	PANTS	1010	n/a	n/a	0	0.57763671875	0.412841796875	1	upper	amplitud.ttf
1892.8	n/a	WORD	946400	wordpools/wasnorm_wordpool.txt	LTP065	ltpFR	0	10	0	FRAME	600	n/a	n/a	0	0.57763671875	0.412841796875	1	upper	amplitud.ttf
1896.884	n/a	WORD	948442	wordpools/wasnorm_wordpool.txt	LTP065	ltpFR	0	10	0	COMMUNITY	356	n/a	n/a	1	0.57763671875	0.412841796875	1	upper	amplitud.ttf
1902.632	n/a	REC_START	951316	n/a	LTP065	ltpFR	0	10	n/a	n/a	n/a	n/a	n/a	n/a	n/a	n/a	n/a	n/a	n/a
1903.876	n/a	REC_WORD	951938	wordpools/wasnorm_wordpool.txt	LTP065	ltpFR	0	10	0	COMMUNITY	356	n/a	n/a	1	n/a	n/a	n/a	n/a	n/a
1905.202	n/a	REC_WORD	952601	wordpools/wasnorm_wordpool.txt	LTP065	ltpFR	0	10	0	FRAME	600	n/a	n/a	0	n/a	n/a	n/a	n/a	n/a
1906.858	n/a	REC_WORD	953429	wordpools/wasnorm_wordpool.txt	LTP065	ltpFR	0	10	0	GIFT	635	n/a	n/a	0	n/a	n/a	n/a	n/a	n/a
1908.754	n/a	REC_WORD	954377	wordpools/wasnorm_wordpool.txt	LTP065	ltpFR	0	10	0	PANTS	1010	n/a	n/a	0	n/a	n/a	n/a	n/a	n/a
1910.93	n/a	REC_WORD	955465	wordpools/wasnorm_wordpool.txt	LTP065	ltpFR	0	10	0	JEANS	752	n/a	n/a	0	n/a	n/a	n/a	n/a	n/a
1915.728	n/a	REC_WORD	957864	wordpools/wasnorm_wordpool.txt	LTP065	ltpFR	0	10	0	PAPER	1011	n/a	n/a	0	n/a	n/a	n/a	n/a	n/a
1939.68	n/a	REC_WORD	969840	wordpools/wasnorm_wordpool.txt	LTP065	ltpFR	0	10	0	ARTIST	43	n/a	n/a	1	n/a	n/a	n/a	n/a	n/a
1942.08	n/a	REC_WORD	971040	wordpools/wasnorm_wordpool.txt	LTP065	ltpFR	0	10	0	PEDESTRIAN	1038	n/a	n/a	1	n/a	n/a	n/a	n/a	n/a
1951.14	n/a	REC_WORD	975570	wordpools/wasnorm_wordpool.txt	LTP065	ltpFR	0	10	0	QUEEN	1149	n/a	n/a	1	n/a	n/a	n/a	n/a	n/a
1965.508	n/a	REC_WORD	982754	wordpools/wasnorm_wordpool.txt	LTP065	ltpFR	0	10	0	RIVER	1194	n/a	n/a	1	n/a	n/a	n/a	n/a	n/a
1984.854	n/a	WORD	992427	wordpools/wasnorm_wordpool.txt	LTP065	ltpFR	0	11	0	BRANCH	168	n/a	n/a	1	0.57763671875	0.412841796875	1	upper	amplitud.ttf
1988.814	n/a	WORD	994407	wordpools/wasnorm_wordpool.txt	LTP065	ltpFR	0	11	0	MOSS	918	n/a	n/a	0	0.57763671875	0.412841796875	1	upper	amplitud.ttf
1992.882	n/a	WORD	996441	wordpools/wasnorm_wordpool.txt	LTP065	ltpFR	0	11	0	PLANE	1081	n/a	n/a	n/a	0.57763671875	0.412841796875	1	upper	amplitud.ttf
1995.906	n/a	SLOW_MSG	997953	n/a	LTP065	ltpFR	0	11	n/a	n/a	n/a	n/a	n/a	n/a	n/a	n/a	n/a	n/a	n/a
1998.456	n/a	WORD	999228	wordpools/wasnorm_wordpool.txt	LTP065	ltpFR	0	11	0	ISLAND	745	n/a	n/a	1	0.57763671875	0.412841796875	1	upper	amplitud.ttf
2002.446	n/a	WORD	1001223	wordpools/wasnorm_wordpool.txt	LTP065	ltpFR	0	11	0	ROOSTER	1209	n/a	n/a	0	0.57763671875	0.412841796875	1	upper	amplitud.ttf
2006.622	n/a	WORD	1003311	wordpools/wasnorm_wordpool.txt	LTP065	ltpFR	0	11	0	GLOVE	642	n/a	n/a	0	0.57763671875	0.412841796875	1	upper	amplitud.ttf
2010.814	n/a	WORD	1005407	wordpools/wasnorm_wordpool.txt	LTP065	ltpFR	0	11	0	HIP	710	n/a	n/a	0	0.57763671875	0.412841796875	1	upper	amplitud.ttf
2014.838	n/a	WORD	1007419	wordpools/wasnorm_wordpool.txt	LTP065	ltpFR	0	11	0	CRUTCH	417	n/a	n/a	1	0.57763671875	0.412841796875	1	upper	amplitud.ttf
2019.03	n/a	WORD	1009515	wordpools/wasnorm_wordpool.txt	LTP065	ltpFR	0	11	0	HEN	703	n/a	n/a	0	0.57763671875	0.412841796875	1	upper	amplitud.ttf
2023.038	n/a	WORD	1011519	wordpools/wasnorm_wordpool.txt	LTP065	ltpFR	0	11	0	FOOT	590	n/a	n/a	0	0.57763671875	0.412841796875	1	upper	amplitud.ttf
2027.204	n/a	WORD	1013602	wordpools/wasnorm_wordpool.txt	LTP065	ltpFR	0	11	0	EMPLOYER	532	n/a	n/a	1	0.57763671875	0.412841796875	1	upper	amplitud.ttf
2031.264	n/a	WORD	1015632	wordpools/wasnorm_wordpool.txt	LTP065	ltpFR	0	11	0	LOG	841	n/a	n/a	1	0.57763671875	0.412841796875	1	upper	amplitud.ttf
2035.162	n/a	WORD	1017581	wordpools/wasnorm_wordpool.txt	LTP065	ltpFR	0	11	0	SIDING	1304	n/a	n/a	0	0.57763671875	0.412841796875	1	upper	amplitud.ttf
2039.188	n/a	WORD	1019594	wordpools/wasnorm_wordpool.txt	LTP065	ltpFR	0	11	0	ROOT	1210	n/a	n/a	1	0.57763671875	0.412841796875	1	upper	amplitud.ttf
2043.288	n/a	WORD	1021644	wordpools/wasnorm_wordpool.txt	LTP065	ltpFR	0	11	0	LACE	792	n/a	n/a	0	0.57763671875	0.412841796875	1	upper	amplitud.ttf
2047.17	n/a	WORD	1023585	wordpools/wasnorm_wordpool.txt	LTP065	ltpFR	0	11	0	TOENAIL	1474	n/a	n/a	0	0.57763671875	0.412841796875	1	upper	amplitud.ttf
2052.93	n/a	REC_START	1026465	n/a	LTP065	ltpFR	0	11	n/a	n/a	n/a	n/a	n/a	n/a	n/a	n/a	n/a	n/a	n/a
2054.452	n/a	REC_WORD	1027226	wordpools/wasnorm_wordpool.txt	LTP065	ltpFR	0	11	0	TOENAIL	1474	n/a	n/a	0	n/a	n/a	n/a	n/a	n/a
2056.138	n/a	REC_WORD	1028069	wordpools/wasnorm_wordpool.txt	LTP065	ltpFR	0	11	0	LACE	792	n/a	n/a	0	n/a	n/a	n/a	n/a	n/a
2058.628	n/a	REC_WORD	1029314	wordpools/wasnorm_wordpool.txt	LTP065	ltpFR	0	11	0	LOG	841	n/a	n/a	1	n/a	n/a	n/a	n/a	n/a
2060.618	n/a	REC_WORD	1030309	wordpools/wasnorm_wordpool.txt	LTP065	ltpFR	0	11	0	BRANCH	168	n/a	n/a	1	n/a	n/a	n/a	n/a	n/a
2099.482	n/a	REC_WORD	1049741	wordpools/wasnorm_wordpool.txt	LTP065	ltpFR	0	11	0	ROOSTER	1209	n/a	n/a	0	n/a	n/a	n/a	n/a	n/a
2100.668	n/a	REC_WORD	1050334	wordpools/wasnorm_wordpool.txt	LTP065	ltpFR	0	11	0	HEN	703	n/a	n/a	0	n/a	n/a	n/a	n/a	n/a
2103.612	n/a	REC_WORD	1051806	wordpools/wasnorm_wordpool.txt	LTP065	ltpFR	0	11	1	TOE	1473	n/a	n/a	1	n/a	n/a	n/a	n/a	n/a
2105.702	n/a	REC_WORD	1052851	wordpools/wasnorm_wordpool.txt	LTP065	ltpFR	0	11	0	FOOT	590	n/a	n/a	0	n/a	n/a	n/a	n/a	n/a
2133.81	n/a	WORD	1066905	wordpools/wasnorm_wordpool.txt	LTP065	ltpFR	0	12	0	PEANUT	1032	n/a	n/a	0	0.57763671875	0.412841796875	1	upper	amplitud.ttf
2137.97	n/a	WORD	1068985	wordpools/wasnorm_wordpool.txt	LTP065	ltpFR	0	12	0	HUSBAND	728	n/a	n/a	1	0.57763671875	0.412841796875	1	upper	amplitud.ttf
2141.852	n/a	WORD	1070926	wordpools/wasnorm_wordpool.txt	LTP065	ltpFR	0	12	0	BIKE	125	n/a	n/a	1	0.57763671875	0.412841796875	1	upper	amplitud.ttf
2145.878	n/a	WORD	1072939	wordpools/wasnorm_wordpool.txt	LTP065	ltpFR	0	12	0	BEAR	106	n/a	n/a	1	0.57763671875	0.412841796875	1	upper	amplitud.ttf
2149.776	n/a	WORD	1074888	wordpools/wasnorm_wordpool.txt	LTP065	ltpFR	0	12	0	PARTNER	1017	n/a	n/a	1	0.57763671875	0.412841796875	1	upper	amplitud.ttf
2153.668	n/a	WORD	1076834	wordpools/wasnorm_wordpool.txt	LTP065	ltpFR	0	12	0	AUTHOR	61	n/a	n/a	1	0.57763671875	0.412841796875	1	upper	amplitud.ttf
2157.518	n/a	WORD	1078759	wordpools/wasnorm_wordpool.txt	LTP065	ltpFR	0	12	0	TERMINAL	1450	n/a	n/a	1	0.57763671875	0.412841796875	1	upper	amplitud.ttf
2161.352	n/a	WORD	1080676	wordpools/wasnorm_wordpool.txt	LTP065	ltpFR	0	12	0	PUPPY	1144	n/a	n/a	0	0.57763671875	0.412841796875	1	upper	amplitud.ttf
2165.392	n/a	WORD	1082696	wordpools/wasnorm_wordpool.txt	LTP065	ltpFR	0	12	0	WILDERNESS	1610	n/a	n/a	1	0.57763671875	0.412841796875	1	upper	amplitud.ttf
2169.234	n/a	WORD	1084617	wordpools/wasnorm_wordpool.txt	LTP065	ltpFR	0	12	0	WALNUT	1584	n/a	n/a	0	0.57763671875	0.412841796875	1	upper	amplitud.ttf
2173.076	n/a	WORD	1086538	wordpools/wasnorm_wordpool.txt	LTP065	ltpFR	0	12	0	KITTEN	780	n/a	n/a	0	0.57763671875	0.412841796875	1	upper	amplitud.ttf
2176.976	n/a	WORD	1088488	wordpools/wasnorm_wordpool.txt	LTP065	ltpFR	0	12	0	LEOPARD	812	n/a	n/a	1	0.57763671875	0.412841796875	1	upper	amplitud.ttf
2181.01	n/a	WORD	1090505	wordpools/wasnorm_wordpool.txt	LTP065	ltpFR	0	12	0	NICKEL	950	n/a	n/a	0	0.57763671875	0.412841796875	1	upper	amplitud.ttf
2185.01	n/a	WORD	1092505	wordpools/wasnorm_wordpool.txt	LTP065	ltpFR	0	12	0	PAWN	1030	n/a	n/a	0	0.57763671875	0.412841796875	1	upper	amplitud.ttf
2188.876	n/a	WORD	1094438	wordpools/wasnorm_wordpool.txt	LTP065	ltpFR	0	12	0	CHEMICAL	291	n/a	n/a	0	0.57763671875	0.412841796875	1	upper	amplitud.ttf
2192.866	n/a	WORD	1096433	wordpools/wasnorm_wordpool.txt	LTP065	ltpFR	0	12	0	SURVEY	1414	n/a	n/a	0	0.57763671875	0.412841796875	1	upper	amplitud.ttf
2198.71	n/a	REC_START	1099355	n/a	LTP065	ltpFR	0	12	n/a	n/a	n/a	n/a	n/a	n/a	n/a	n/a	n/a	n/a	n/a
2199.852	n/a	REC_WORD	1099926	wordpools/wasnorm_wordpool.txt	LTP065	ltpFR	0	12	0	CHEMICAL	291	n/a	n/a	0	n/a	n/a	n/a	n/a	n/a
2200.99	n/a	REC_WORD	1100495	wordpools/wasnorm_wordpool.txt	LTP065	ltpFR	0	12	0	SURVEY	1414	n/a	n/a	0	n/a	n/a	n/a	n/a	n/a
2202.566	n/a	REC_WORD	1101283	wordpools/wasnorm_wordpool.txt	LTP065	ltpFR	0	12	0	PUPPY	1144	n/a	n/a	0	n/a	n/a	n/a	n/a	n/a
2204.502	n/a	REC_WORD	1102251	wordpools/wasnorm_wordpool.txt	LTP065	ltpFR	0	12	0	KITTEN	780	n/a	n/a	0	n/a	n/a	n/a	n/a	n/a
2209.266	n/a	REC_WORD	1104633	wordpools/wasnorm_wordpool.txt	LTP065	ltpFR	0	12	0	AUTHOR	61	n/a	n/a	1	n/a	n/a	n/a	n/a	n/a
2211.804	n/a	REC_WORD	1105902	wordpools/wasnorm_wordpool.txt	LTP065	ltpFR	0	12	0	HUSBAND	728	n/a	n/a	1	n/a	n/a	n/a	n/a	n/a
2213.94	n/a	REC_WORD	1106970	wordpools/wasnorm_wordpool.txt	LTP065	ltpFR	0	12	0	PARTNER	1017	n/a	n/a	1	n/a	n/a	n/a	n/a	n/a
2229.93	n/a	REC_WORD	1114965	wordpools/wasnorm_wordpool.txt	LTP065	ltpFR	0	12	0	LEOPARD	812	n/a	n/a	1	n/a	n/a	n/a	n/a	n/a
2232.03	n/a	REC_WORD	1116015	wordpools/wasnorm_wordpool.txt	LTP065	ltpFR	0	12	0	BEAR	106	n/a	n/a	1	n/a	n/a	n/a	n/a	n/a
2255.796	n/a	REC_WORD	1127898	wordpools/wasnorm_wordpool.txt	LTP065	ltpFR	0	12	0	SURVEY	1414	n/a	n/a	0	n/a	n/a	n/a	n/a	n/a
2739.654	n/a	WORD	1369827	wordpools/wasnorm_wordpool.txt	LTP065	ltpFR	0	13	0	PIE	1062	n/a	n/a	0	0.57763671875	0.412841796875	1	upper	amplitud.ttf
2743.478	n/a	WORD	1371739	wordpools/wasnorm_wordpool.txt	LTP065	ltpFR	0	13	0	RACCOON	1153	n/a	n/a	0	0.57763671875	0.412841796875	1	upper	amplitud.ttf
2747.536	n/a	WORD	1373768	wordpools/wasnorm_wordpool.txt	LTP065	ltpFR	0	13	1	POTTERY	1116	n/a	n/a	0	0.422607421875	0.5869140625	0	lower	zerothre.ttf
2751.486	n/a	WORD	1375743	wordpools/wasnorm_wordpool.txt	LTP065	ltpFR	0	13	1	PAINTER	1004	n/a	n/a	1	0.422607421875	0.5869140625	0	lower	zerothre.ttf
2755.602	n/a	WORD	1377801	wordpools/wasnorm_wordpool.txt	LTP065	ltpFR	0	13	1	VEGETABLE	1552	n/a	n/a	1	0.422607421875	0.5869140625	0	lower	zerothre.ttf
2759.744	n/a	WORD	1379872	wordpools/wasnorm_wordpool.txt	LTP065	ltpFR	0	13	0	VEHICLE	1553	n/a	n/a	1	0.57763671875	0.412841796875	1	upper	amplitud.ttf
2763.652	n/a	WORD	1381826	wordpools/wasnorm_wordpool.txt	LTP065	ltpFR	0	13	0	VALVE	1546	n/a	n/a	0	0.57763671875	0.412841796875	1	upper	amplitud.ttf
2767.736	n/a	WORD	1383868	wordpools/wasnorm_wordpool.txt	LTP065	ltpFR	0	13	0	SWEATER	1419	n/a	n/a	0	0.57763671875	0.412841796875	1	upper	amplitud.ttf
2771.886	n/a	WORD	1385943	wordpools/wasnorm_wordpool.txt	LTP065	ltpFR	0	13	0	BEET	115	n/a	n/a	0	0.57763671875	0.412841796875	1	upper	amplitud.ttf
2776.086	n/a	WORD	1388043	wordpools/wasnorm_wordpool.txt	LTP065	ltpFR	0	13	1	COLESLAW	344	n/a	n/a	0	0.422607421875	0.5869140625	0	lower	zerothre.ttf
2780.012	n/a	WORD	1390006	wordpools/wasnorm_wordpool.txt	LTP065	ltpFR	0	13	1	ANTEATER	26	n/a	n/a	0	0.422607421875	0.5869140625	0	lower	zerothre.ttf
2783.844	n/a	WORD	1391922	wordpools/wasnorm_wordpool.txt	LTP065	ltpFR	0	13	1	CLERK	321	n/a	n/a	1	0.422607421875	0.5869140625	0	lower	zerothre.ttf
2787.776	n/a	WORD	1393888	wordpools/wasnorm_wordpool.txt	LTP065	ltpFR	0	13	1	PRISON	1127	n/a	n/a	0	0.422607421875	0.5869140625	0	lower	zerothre.ttf
2791.71	n/a	WORD	1395855	wordpools/wasnorm_wordpool.txt	LTP065	ltpFR	0	13	1	HANDCUFFS	685	n/a	n/a	0	0.422607421875	0.5869140625	0	lower	zerothre.ttf
2795.876	n/a	WORD	1397938	wordpools/wasnorm_wordpool.txt	LTP065	ltpFR	0	13	0	COP	376	n/a	n/a	1	0.57763671875	0.412841796875	1	upper	amplitud.ttf
2799.834	n/a	WORD	1399917	wordpools/wasnorm_wordpool.txt	LTP065	ltpFR	0	13	0	BASSINET	97	n/a	n/a	0	0.57763671875	0.412841796875	1	upper	amplitud.ttf
2805.92	n/a	REC_START	1402960	n/a	LTP065	ltpFR	0	13	n/a	n/a	n/a	n/a	n/a	n/a	n/a	n/a	n/a	n/a	n/a
2808.09	n/a	REC_WORD	1404045	wordpools/wasnorm_wordpool.txt	LTP065	ltpFR	0	13	0	BASSINET	97	n/a	n/a	0	n/a	n/a	n/a	n/a	n/a
2809.762	n/a	REC_WORD	1404881	wordpools/wasnorm_wordpool.txt	LTP065	ltpFR	0	13	0	COP	376	n/a	n/a	1	n/a	n/a	n/a	n/a	n/a
2811.482	n/a	REC_WORD	1405741	wordpools/wasnorm_wordpool.txt	LTP065	ltpFR	0	13	0	VALVE	1546	n/a	n/a	0	n/a	n/a	n/a	n/a	n/a
2822.264	n/a	REC_WORD	1411132	wordpools/wasnorm_wordpool.txt	LTP065	ltpFR	0	13	0	VEHICLE	1553	n/a	n/a	1	n/a	n/a	n/a	n/a	n/a
2831.572	n/a	REC_WORD	1415786	wordpools/wasnorm_wordpool.txt	LTP065	ltpFR	0	13	0	RACCOON	1153	n/a	n/a	0	n/a	n/a	n/a	n/a	n/a
2839.57	n/a	REC_WORD	1419785	wordpools/wasnorm_wordpool.txt	LTP065	ltpFR	0	13	0	PIE	1062	n/a	n/a	0	n/a	n/a	n/a	n/a	n/a
2848.2	n/a	REC_WORD	1424100	wordpools/wasnorm_wordpool.txt	LTP065	ltpFR	0	13	n/a	SWEATSHIRT	-1	n/a	n/a	n/a	n/a	n/a	n/a	n/a	n/a
2853.864	n/a	REC_WORD	1426932	wordpools/wasnorm_wordpool.txt	LTP065	ltpFR	0	13	1	POTTERY	1116	n/a	n/a	0	n/a	n/a	n/a	n/a	n/a
2864.984	n/a	REC_WORD	1432492	wordpools/wasnorm_wordpool.txt	LTP065	ltpFR	0	13	0	BEET	115	n/a	n/a	0	n/a	n/a	n/a	n/a	n/a
2885.908	n/a	WORD	1442954	wordpools/wasnorm_wordpool.txt	LTP065	ltpFR	0	14	0	NEEDLE	941	n/a	n/a	0	0.57763671875	0.412841796875	1	upper	amplitud.ttf
2889.724	n/a	WORD	1444862	wordpools/wasnorm_wordpool.txt	LTP065	ltpFR	0	14	0	OMELET	976	n/a	n/a	0	0.57763671875	0.412841796875	1	upper	amplitud.ttf
2893.834	n/a	WORD	1446917	wordpools/wasnorm_wordpool.txt	LTP065	ltpFR	0	14	0	STEAM	1375	n/a	n/a	0	0.57763671875	0.412841796875	1	upper	amplitud.ttf
2897.75	n/a	WORD	1448875	wordpools/wasnorm_wordpool.txt	LTP065	ltpFR	0	14	0	HERD	705	n/a	n/a	1	0.57763671875	0.412841796875	1	upper	amplitud.ttf
2901.632	n/a	WORD	1450816	wordpools/wasnorm_wordpool.txt	LTP065	ltpFR	0	14	1	PLATE	1086	n/a	n/a	0	0.422607421875	0.5869140625	0	lower	zerothre.ttf
2905.648	n/a	WORD	1452824	wordpools/wasnorm_wordpool.txt	LTP065	ltpFR	0	14	1	PUPIL	1143	n/a	n/a	1	0.422607421875	0.5869140625	0	lower	zerothre.ttf
2909.798	n/a	WORD	1454899	wordpools/wasnorm_wordpool.txt	LTP065	ltpFR	0	14	1	TEACHER	1440	n/a	n/a	1	0.422607421875	0.5869140625	0	lower	zerothre.ttf
2913.95	n/a	WORD	1456975	wordpools/wasnorm_wordpool.txt	LTP065	ltpFR	0	14	1	GRASSHOPPER	656	n/a	n/a	1	0.422607421875	0.5869140625	0	lower	zerothre.ttf
2917.908	n/a	WORD	1458954	wordpools/wasnorm_wordpool.txt	LTP065	ltpFR	0	14	0	APE	31	n/a	n/a	1	0.57763671875	0.412841796875	1	upper	amplitud.ttf
2921.908	n/a	WORD	1460954	wordpools/wasnorm_wordpool.txt	LTP065	ltpFR	0	14	0	SHOWER	1296	n/a	n/a	1	0.57763671875	0.412841796875	1	upper	amplitud.ttf
2925.732	n/a	WORD	1462866	wordpools/wasnorm_wordpool.txt	LTP065	ltpFR	0	14	0	TIDE	1465	n/a	n/a	1	0.57763671875	0.412841796875	1	upper	amplitud.ttf
2929.94	n/a	WORD	1464970	wordpools/wasnorm_wordpool.txt	LTP065	ltpFR	0	14	0	GRASS	655	n/a	n/a	0	0.57763671875	0.412841796875	1	upper	amplitud.ttf
2933.974	n/a	WORD	1466987	wordpools/wasnorm_wordpool.txt	LTP065	ltpFR	0	14	1	ASHTRAY	45	n/a	n/a	0	0.422607421875	0.5869140625	0	lower	zerothre.ttf
2938.158	n/a	WORD	1469079	wordpools/wasnorm_wordpool.txt	LTP065	ltpFR	0	14	1	PORCUPINE	1107	n/a	n/a	1	0.422607421875	0.5869140625	0	lower	zerothre.ttf
2942.198	n/a	WORD	1471099	wordpools/wasnorm_wordpool.txt	LTP065	ltpFR	0	14	1	HIKER	708	n/a	n/a	1	0.422607421875	0.5869140625	0	lower	zerothre.ttf
2946.098	n/a	WORD	1473049	wordpools/wasnorm_wordpool.txt	LTP065	ltpFR	0	14	1	ENGINE	535	n/a	n/a	0	0.422607421875	0.5869140625	0	lower	zerothre.ttf
2951.748	n/a	REC_START	1475874	n/a	LTP065	ltpFR	0	14	n/a	n/a	n/a	n/a	n/a	n/a	n/a	n/a	n/a	n/a	n/a
2952.86	n/a	REC_WORD	1476430	wordpools/wasnorm_wordpool.txt	LTP065	ltpFR	0	14	1	ENGINE	535	n/a	n/a	0	n/a	n/a	n/a	n/a	n/a
2954.308	n/a	REC_WORD	1477154	wordpools/wasnorm_wordpool.txt	LTP065	ltpFR	0	14	1	HIKER	708	n/a	n/a	1	n/a	n/a	n/a	n/a	n/a
2956.014	n/a	REC_WORD	1478007	wordpools/wasnorm_wordpool.txt	LTP065	ltpFR	0	14	1	PORCUPINE	1107	n/a	n/a	1	n/a	n/a	n/a	n/a	n/a
2959.516	n/a	REC_WORD	1479758	wordpools/wasnorm_wordpool.txt	LTP065	ltpFR	0	14	1	GRASSHOPPER	656	n/a	n/a	1	n/a	n/a	n/a	n/a	n/a
2964.904	n/a	REC_WORD	1482452	wordpools/wasnorm_wordpool.txt	LTP065	ltpFR	0	14	1	PUPIL	1143	n/a	n/a	1	n/a	n/a	n/a	n/a	n/a
2966.262	n/a	REC_WORD	1483131	wordpools/wasnorm_wordpool.txt	LTP065	ltpFR	0	14	1	TEACHER	1440	n/a	n/a	1	n/a	n/a	n/a	n/a	n/a
2976.788	n/a	REC_WORD	1488394	wordpools/wasnorm_wordpool.txt	LTP065	ltpFR	0	14	0	HERD	705	n/a	n/a	1	n/a	n/a	n/a	n/a	n/a
2980.1	n/a	REC_WORD	1490050	wordpools/wasnorm_wordpool.txt	LTP065	ltpFR	0	14	0	NEEDLE	941	n/a	n/a	0	n/a	n/a	n/a	n/a	n/a
2993.45	n/a	REC_WORD	1496725	wordpools/wasnorm_wordpool.txt	LTP065	ltpFR	0	14	0	TIDE	1465	n/a	n/a	1	n/a	n/a	n/a	n/a	n/a
3032.596	n/a	WORD	1516298	wordpools/wasnorm_wordpool.txt	LTP065	ltpFR	0	15	1	SWIMMER	1420	n/a	n/a	1	0.422607421875	0.5869140625	0	lower	zerothre.ttf
3036.52	n/a	WORD	1518260	wordpools/wasnorm_wordpool.txt	LTP065	ltpFR	0	15	1	SURF	1412	n/a	n/a	0	0.422607421875	0.5869140625	0	lower	zerothre.ttf
3040.686	n/a	WORD	1520343	wordpools/wasnorm_wordpool.txt	LTP065	ltpFR	0	15	1	PEARL	1034	n/a	n/a	0	0.422607421875	0.5869140625	0	lower	zerothre.ttf
3044.62	n/a	WORD	1522310	wordpools/wasnorm_wordpool.txt	LTP065	ltpFR	0	15	0	DRIVER	499	n/a	n/a	1	0.57763671875	0.412841796875	1	upper	amplitud.ttf
3048.554	n/a	WORD	1524277	wordpools/wasnorm_wordpool.txt	LTP065	ltpFR	0	15	0	SALESMAN	1225	n/a	n/a	1	0.57763671875	0.412841796875	1	upper	amplitud.ttf
3052.42	n/a	WORD	1526210	wordpools/wasnorm_wordpool.txt	LTP065	ltpFR	0	15	0	SHELTER	1282	n/a	n/a	1	0.57763671875	0.412841796875	1	upper	amplitud.ttf
3056.32	n/a	WORD	1528160	wordpools/wasnorm_wordpool.txt	LTP065	ltpFR	0	15	0	CHAIN	273	n/a	n/a	0	0.57763671875	0.412841796875	1	upper	amplitud.ttf
3060.278	n/a	WORD	1530139	wordpools/wasnorm_wordpool.txt	LTP065	ltpFR	0	15	0	SEAGULL	1261	n/a	n/a	1	0.57763671875	0.412841796875	1	upper	amplitud.ttf
3064.388	n/a	WORD	1532194	wordpools/wasnorm_wordpool.txt	LTP065	ltpFR	0	15	1	DIVER	476	n/a	n/a	1	0.422607421875	0.5869140625	0	lower	zerothre.ttf
3068.528	n/a	WORD	1534264	wordpools/wasnorm_wordpool.txt	LTP065	ltpFR	0	15	1	UMBRELLA	1534	n/a	n/a	0	0.422607421875	0.5869140625	0	lower	zerothre.ttf
3072.47	n/a	WORD	1536235	wordpools/wasnorm_wordpool.txt	LTP065	ltpFR	0	15	0	DRESS	495	n/a	n/a	0	0.57763671875	0.412841796875	1	upper	amplitud.ttf
3076.578	n/a	WORD	1538289	wordpools/wasnorm_wordpool.txt	LTP065	ltpFR	0	15	0	RADIO	1157	n/a	n/a	0	0.57763671875	0.412841796875	1	upper	amplitud.ttf
3080.644	n/a	WORD	1540322	wordpools/wasnorm_wordpool.txt	LTP065	ltpFR	0	15	0	CABOOSE	214	n/a	n/a	1	0.57763671875	0.412841796875	1	upper	amplitud.ttf
3084.586	n/a	WORD	1542293	wordpools/wasnorm_wordpool.txt	LTP065	ltpFR	0	15	1	RADISH	1158	n/a	n/a	1	0.422607421875	0.5869140625	0	lower	zerothre.ttf
3088.42	n/a	WORD	1544210	wordpools/wasnorm_wordpool.txt	LTP065	ltpFR	0	15	1	DIAMOND	458	n/a	n/a	0	0.422607421875	0.5869140625	0	lower	zerothre.ttf
3092.444	n/a	WORD	1546222	wordpools/wasnorm_wordpool.txt	LTP065	ltpFR	0	15	1	SNORKEL	1336	n/a	n/a	0	0.422607421875	0.5869140625	0	lower	zerothre.ttf
3098.144	n/a	REC_START	1549072	n/a	LTP065	ltpFR	0	15	n/a	n/a	n/a	n/a	n/a	n/a	n/a	n/a	n/a	n/a	n/a
3099.806	n/a	REC_WORD	1549903	wordpools/wasnorm_wordpool.txt	LTP065	ltpFR	0	15	1	SNORKEL	1336	n/a	n/a	0	n/a	n/a	n/a	n/a	n/a
3101.652	n/a	REC_WORD	1550826	wordpools/wasnorm_wordpool.txt	LTP065	ltpFR	0	15	1	DIAMOND	458	n/a	n/a	0	n/a	n/a	n/a	n/a	n/a
3103.586	n/a	REC_WORD	1551793	wordpools/wasnorm_wordpool.txt	LTP065	ltpFR	0	15	1	RADISH	1158	n/a	n/a	1	n/a	n/a	n/a	n/a	n/a
3105.932	n/a	REC_WORD	1552966	wordpools/wasnorm_wordpool.txt	LTP065	ltpFR	0	15	1	DIVER	476	n/a	n/a	1	n/a	n/a	n/a	n/a	n/a
3133.91	n/a	REC_WORD	1566955	wordpools/wasnorm_wordpool.txt	LTP065	ltpFR	0	15	0	SEAGULL	1261	n/a	n/a	1	n/a	n/a	n/a	n/a	n/a
3140.326	n/a	REC_WORD	1570163	wordpools/wasnorm_wordpool.txt	LTP065	ltpFR	0	15	0	CHAIN	273	n/a	n/a	0	n/a	n/a	n/a	n/a	n/a
3144.95	n/a	REC_WORD	1572475	wordpools/wasnorm_wordpool.txt	LTP065	ltpFR	0	15	0	RADIO	1157	n/a	n/a	0	n/a	n/a	n/a	n/a	n/a
3179.258	n/a	WORD	1589629	wordpools/wasnorm_wordpool.txt	LTP065	ltpFR	0	16	1	ANTLER	29	n/a	n/a	0	0.422607421875	0.5869140625	0	lower	zerothre.ttf
3183.326	n/a	WORD	1591663	wordpools/wasnorm_wordpool.txt	LTP065	ltpFR	0	16	1	ENCYCLOPEDIA	533	n/a	n/a	0	0.422607421875	0.5869140625	0	lower	zerothre.ttf
3187.384	n/a	WORD	1593692	wordpools/wasnorm_wordpool.txt	LTP065	ltpFR	0	16	1	BOWL	158	n/a	n/a	0	0.422607421875	0.5869140625	0	lower	zerothre.ttf
3191.234	n/a	WORD	1595617	wordpools/wasnorm_wordpool.txt	LTP065	ltpFR	0	16	1	SAUCER	1237	n/a	n/a	0	0.422607421875	0.5869140625	0	lower	zerothre.ttf
3195.234	n/a	WORD	1597617	wordpools/wasnorm_wordpool.txt	LTP065	ltpFR	0	16	0	SAW	1239	n/a	n/a	0	0.57763671875	0.412841796875	1	upper	amplitud.ttf
3199.258	n/a	WORD	1599629	wordpools/wasnorm_wordpool.txt	LTP065	ltpFR	0	16	0	CORN	381	n/a	n/a	0	0.57763671875	0.412841796875	1	upper	amplitud.ttf
3203.424	n/a	WORD	1601712	wordpools/wasnorm_wordpool.txt	LTP065	ltpFR	0	16	0	SANDWICH	1232	n/a	n/a	0	0.57763671875	0.412841796875	1	upper	amplitud.ttf
3207.358	n/a	WORD	1603679	wordpools/wasnorm_wordpool.txt	LTP065	ltpFR	0	16	0	CHEF	290	n/a	n/a	1	0.57763671875	0.412841796875	1	upper	amplitud.ttf
3211.326	n/a	WORD	1605663	wordpools/wasnorm_wordpool.txt	LTP065	ltpFR	0	16	0	LAUNDRY	803	n/a	n/a	0	0.57763671875	0.412841796875	1	upper	amplitud.ttf
3215.3	n/a	WORD	1607650	wordpools/wasnorm_wordpool.txt	LTP065	ltpFR	0	16	1	WAITRESS	1581	n/a	n/a	1	0.422607421875	0.5869140625	0	lower	zerothre.ttf
3219.5	n/a	WORD	1609750	wordpools/wasnorm_wordpool.txt	LTP065	ltpFR	0	16	1	PUBLISHER	1137	n/a	n/a	1	0.422607421875	0.5869140625	0	lower	zerothre.ttf
3223.666	n/a	WORD	1611833	wordpools/wasnorm_wordpool.txt	LTP065	ltpFR	0	16	1	DEER	444	n/a	n/a	1	0.422607421875	0.5869140625	0	lower	zerothre.ttf
3227.824	n/a	WORD	1613912	wordpools/wasnorm_wordpool.txt	LTP065	ltpFR	0	16	1	SEAL	1262	n/a	n/a	1	0.422607421875	0.5869140625	0	lower	zerothre.ttf
3231.65	n/a	WORD	1615825	wordpools/wasnorm_wordpool.txt	LTP065	ltpFR	0	16	0	CLAW	319	n/a	n/a	0	0.57763671875	0.412841796875	1	upper	amplitud.ttf
3235.592	n/a	WORD	1617796	wordpools/wasnorm_wordpool.txt	LTP065	ltpFR	0	16	0	VOLUNTEER	1577	n/a	n/a	1	0.57763671875	0.412841796875	1	upper	amplitud.ttf
3239.782	n/a	WORD	1619891	wordpools/wasnorm_wordpool.txt	LTP065	ltpFR	0	16	0	DRESSER	496	n/a	n/a	1	0.57763671875	0.412841796875	1	upper	amplitud.ttf
3245.658	n/a	REC_START	1622829	n/a	LTP065	ltpFR	0	16	n/a	n/a	n/a	n/a	n/a	n/a	n/a	n/a	n/a	n/a	n/a
3247.0	n/a	REC_WORD	1623500	wordpools/wasnorm_wordpool.txt	LTP065	ltpFR	0	16	0	DRESSER	496	n/a	n/a	1	n/a	n/a	n/a	n/a	n/a
3248.746	n/a	REC_WORD	1624373	wordpools/wasnorm_wordpool.txt	LTP065	ltpFR	0	16	0	VOLUNTEER	1577	n/a	n/a	1	n/a	n/a	n/a	n/a	n/a
3252.392	n/a	REC_WORD	1626196	wordpools/wasnorm_wordpool.txt	LTP065	ltpFR	0	16	1	ENCYCLOPEDIA	533	n/a	n/a	0	n/a	n/a	n/a	n/a	n/a
3257.058	n/a	REC_WORD	1628529	wordpools/wasnorm_wordpool.txt	LTP065	ltpFR	0	16	1	BOWL	158	n/a	n/a	0	n/a	n/a	n/a	n/a	n/a
3262.854	n/a	REC_WORD	1631427	wordpools/wasnorm_wordpool.txt	LTP065	ltpFR	0	16	0	DRESSER	496	n/a	n/a	1	n/a	n/a	n/a	n/a	n/a
3274.488	n/a	REC_WORD	1637244	wordpools/wasnorm_wordpool.txt	LTP065	ltpFR	0	16	1	PUBLISHER	1137	n/a	n/a	1	n/a	n/a	n/a	n/a	n/a
3277.152	n/a	REC_WORD	1638576	wordpools/wasnorm_wordpool.txt	LTP065	ltpFR	0	16	1	ANTLER	29	n/a	n/a	0	n/a	n/a	n/a	n/a	n/a
3298.406	n/a	REC_WORD	1649203	wordpools/wasnorm_wordpool.txt	LTP065	ltpFR	0	16	1	DEER	444	n/a	n/a	1	n/a	n/a	n/a	n/a	n/a
3360.338	n/a	REC_START	1680169	n/a	LTP065	ltpFR	0	n/a	n/a	n/a	n/a	n/a	n/a	n/a	n/a	n/a	n/a	n/a	n/a
3361.888	n/a	FFR_REC_WORD	1680944	wordpools/wasnorm_wordpool.txt	LTP065	ltpFR	0	n/a	0	QUEEN	1149	n/a	n/a	1	n/a	n/a	n/a	n/a	n/a
3363.914	n/a	FFR_REC_WORD	1681957	wordpools/wasnorm_wordpool.txt	LTP065	ltpFR	0	n/a	1	DEER	444	n/a	n/a	1	n/a	n/a	n/a	n/a	n/a
3365.432	n/a	FFR_REC_WORD	1682716	wordpools/wasnorm_wordpool.txt	LTP065	ltpFR	0	n/a	1	ANTLER	29	n/a	n/a	0	n/a	n/a	n/a	n/a	n/a
3367.432	n/a	FFR_REC_WORD	1683716	wordpools/wasnorm_wordpool.txt	LTP065	ltpFR	0	n/a	1	ENCYCLOPEDIA	533	n/a	n/a	0	n/a	n/a	n/a	n/a	n/a
3370.804	n/a	FFR_REC_WORD	1685402	wordpools/wasnorm_wordpool.txt	LTP065	ltpFR	0	n/a	0	WALNUT	1584	n/a	n/a	0	n/a	n/a	n/a	n/a	n/a
3372.41	n/a	FFR_REC_WORD	1686205	wordpools/wasnorm_wordpool.txt	LTP065	ltpFR	0	n/a	0	PEANUT	1032	n/a	n/a	0	n/a	n/a	n/a	n/a	n/a
3374.212	n/a	FFR_REC_WORD	1687106	wordpools/wasnorm_wordpool.txt	LTP065	ltpFR	0	n/a	0	BEET	115	n/a	n/a	0	n/a	n/a	n/a	n/a	n/a
3375.97	n/a	FFR_REC_WORD	1687985	wordpools/wasnorm_wordpool.txt	LTP065	ltpFR	0	n/a	0	CORN	381	n/a	n/a	0	n/a	n/a	n/a	n/a	n/a
3379.96	n/a	FFR_REC_WORD	1689980	wordpools/wasnorm_wordpool.txt	LTP065	ltpFR	0	n/a	0	PUPPY	1144	n/a	n/a	0	n/a	n/a	n/a	n/a	n/a
3381.852	n/a	FFR_REC_WORD	1690926	wordpools/wasnorm_wordpool.txt	LTP065	ltpFR	0	n/a	0	KITTEN	780	n/a	n/a	0	n/a	n/a	n/a	n/a	n/a
3383.722	n/a	FFR_REC_WORD	1691861	wordpools/wasnorm_wordpool.txt	LTP065	ltpFR	0	n/a	0	LEOPARD	812	n/a	n/a	1	n/a	n/a	n/a	n/a	n/a
3385.51	n/a	FFR_REC_WORD	1692755	wordpools/wasnorm_wordpool.txt	LTP065	ltpFR	0	n/a	0	HERD	705	n/a	n/a	1	n/a	n/a	n/a	n/a	n/a
3387.424	n/a	FFR_REC_WORD	1693712	wordpools/wasnorm_wordpool.txt	LTP065	ltpFR	0	n/a	0	BEAR	106	n/a	n/a	1	n/a	n/a	n/a	n/a	n/a
3394.648	n/a	FFR_REC_WORD	1697324	wordpools/wasnorm_wordpool.txt	LTP065	ltpFR	0	n/a	0	PEDESTRIAN	1038	n/a	n/a	1	n/a	n/a	n/a	n/a	n/a
3397.404	n/a	FFR_REC_WORD	1698702	wordpools/wasnorm_wordpool.txt	LTP065	ltpFR	0	n/a	1	PUBLISHER	1137	n/a	n/a	1	n/a	n/a	n/a	n/a	n/a
3401.032	n/a	FFR_REC_WORD	1700516	wordpools/wasnorm_wordpool.txt	LTP065	ltpFR	0	n/a	0	DRIVER	499	n/a	n/a	1	n/a	n/a	n/a	n/a	n/a
3404.84	n/a	FFR_REC_WORD	1702420	wordpools/wasnorm_wordpool.txt	LTP065	ltpFR	0	n/a	1	DIVER	476	n/a	n/a	1	n/a	n/a	n/a	n/a	n/a
3409.476	n/a	FFR_REC_WORD	1704738	wordpools/wasnorm_wordpool.txt	LTP065	ltpFR	0	n/a	0	PARTNER	1017	n/a	n/a	1	n/a	n/a	n/a	n/a	n/a
3411.928	n/a	FFR_REC_WORD	1705964	wordpools/wasnorm_wordpool.txt	LTP065	ltpFR	0	n/a	0	HUSBAND	728	n/a	n/a	1	n/a	n/a	n/a	n/a	n/a
3419.826	n/a	FFR_REC_WORD	1709913	wordpools/wasnorm_wordpool.txt	LTP065	ltpFR	0	n/a	0	UNIVERSE	1540	n/a	n/a	1	n/a	n/a	n/a	n/a	n/a
3423.948	n/a	FFR_REC_WORD	1711974	wordpools/wasnorm_wordpool.txt	LTP065	ltpFR	0	n/a	0	DRESSER	496	n/a	n/a	1	n/a	n/a	n/a	n/a	n/a
3426.404	n/a	FFR_REC_WORD	1713202	wordpools/wasnorm_wordpool.txt	LTP065	ltpFR	0	n/a	0	DRAWER	493	n/a	n/a	0	n/a	n/a	n/a	n/a	n/a
3434.336	n/a	FFR_REC_WORD	1717168	wordpools/wasnorm_wordpool.txt	LTP065	ltpFR	0	n/a	0	RIVER	1194	n/a	n/a	1	n/a	n/a	n/a	n/a	n/a
3436.242	n/a	FFR_REC_WORD	1718121	wordpools/wasnorm_wordpool.txt	LTP065	ltpFR	0	n/a	1	CREEK	404	n/a	n/a	0	n/a	n/a	n/a	n/a	n/a
3439.61	n/a	FFR_REC_WORD	1719805	wordpools/wasnorm_wordpool.txt	LTP065	ltpFR	0	n/a	0	THREAD	1460	n/a	n/a	0	n/a	n/a	n/a	n/a	n/a
3441.35	n/a	FFR_REC_WORD	1720675	wordpools/wasnorm_wordpool.txt	LTP065	ltpFR	0	n/a	0	GOWN	652	n/a	n/a	1	n/a	n/a	n/a	n/a	n/a
3446.284	n/a	FFR_REC_WORD	1723142	wordpools/wasnorm_wordpool.txt	LTP065	ltpFR	0	n/a	0	DRESS	495	n/a	n/a	0	n/a	n/a	n/a	n/a	n/a
3447.718	n/a	FFR_REC_WORD	1723859	wordpools/wasnorm_wordpool.txt	LTP065	ltpFR	0	n/a	0	JEANS	752	n/a	n/a	0	n/a	n/a	n/a	n/a	n/a
3449.036	n/a	FFR_REC_WORD	1724518	wordpools/wasnorm_wordpool.txt	LTP065	ltpFR	0	n/a	0	PANTS	1010	n/a	n/a	0	n/a	n/a	n/a	n/a	n/a
3450.452	n/a	FFR_REC_WORD	1725226	wordpools/wasnorm_wordpool.txt	LTP065	ltpFR	0	n/a	-1	SHIRT	1287	n/a	n/a	-1	n/a	n/a	n/a	n/a	n/a
3470.882	n/a	FFR_REC_WORD	1735441	wordpools/wasnorm_wordpool.txt	LTP065	ltpFR	0	n/a	1	SHEET	1279	n/a	n/a	0	n/a	n/a	n/a	n/a	n/a
3472.92	n/a	FFR_REC_WORD	1736460	wordpools/wasnorm_wordpool.txt	LTP065	ltpFR	0	n/a	0	NEEDLE	941	n/a	n/a	0	n/a	n/a	n/a	n/a	n/a
3475.166	n/a	FFR_REC_WORD	1737583	wordpools/wasnorm_wordpool.txt	LTP065	ltpFR	0	n/a	0	THREAD	1460	n/a	n/a	0	n/a	n/a	n/a	n/a	n/a
3482.084	n/a	FFR_REC_WORD	1741042	wordpools/wasnorm_wordpool.txt	LTP065	ltpFR	0	n/a	-1	BASKETBALL	96	n/a	n/a	-1	n/a	n/a	n/a	n/a	n/a
3510.492	n/a	FFR_REC_WORD	1755246	wordpools/wasnorm_wordpool.txt	LTP065	ltpFR	0	n/a	0	SURVEY	1414	n/a	n/a	0	n/a	n/a	n/a	n/a	n/a
3523.936	n/a	FFR_REC_WORD	1761968	wordpools/wasnorm_wordpool.txt	LTP065	ltpFR	0	n/a	-1	PIPE	1073	n/a	n/a	-1	n/a	n/a	n/a	n/a	n/a
3527.026	n/a	FFR_REC_WORD	1763513	wordpools/wasnorm_wordpool.txt	LTP065	ltpFR	0	n/a	1	BOWL	158	n/a	n/a	0	n/a	n/a	n/a	n/a	n/a
3536.234	n/a	FFR_REC_WORD	1768117	wordpools/wasnorm_wordpool.txt	LTP065	ltpFR	0	n/a	-1	BREAST	171	n/a	n/a	-1	n/a	n/a	n/a	n/a	n/a
3549.42	n/a	FFR_REC_WORD	1774710	wordpools/wasnorm_wordpool.txt	LTP065	ltpFR	0	n/a	0	GRASS	655	n/a	n/a	0	n/a	n/a	n/a	n/a	n/a
3550.546	n/a	FFR_REC_WORD	1775273	wordpools/wasnorm_wordpool.txt	LTP065	ltpFR	0	n/a	0	MOSS	918	n/a	n/a	0	n/a	n/a	n/a	n/a	n/a
3555.136	n/a	FFR_REC_WORD	1777568	wordpools/wasnorm_wordpool.txt	LTP065	ltpFR	0	n/a	0	BRANCH	168	n/a	n/a	1	n/a	n/a	n/a	n/a	n/a
3556.422	n/a	FFR_REC_WORD	1778211	wordpools/wasnorm_wordpool.txt	LTP065	ltpFR	0	n/a	0	LOG	841	n/a	n/a	1	n/a	n/a	n/a	n/a	n/a
3587.762	n/a	FFR_REC_WORD	1793881	wordpools/wasnorm_wordpool.txt	LTP065	ltpFR	0	n/a	-1	MAILBOX	857	n/a	n/a	-1	n/a	n/a	n/a	n/a	n/a
3600.86	n/a	FFR_REC_WORD	1800430	wordpools/wasnorm_wordpool.txt	LTP065	ltpFR	0	n/a	-1	SEA	1259	n/a	n/a	-1	n/a	n/a	n/a	n/a	n/a
3602.552	n/a	FFR_REC_WORD	1801276	wordpools/wasnorm_wordpool.txt	LTP065	ltpFR	0	n/a	-1	BAY	102	n/a	n/a	-1	n/a	n/a	n/a	n/a	n/a
3605.388	n/a	FFR_REC_WORD	1802694	wordpools/wasnorm_wordpool.txt	LTP065	ltpFR	0	n/a	1	SNORKEL	1336	n/a	n/a	0	n/a	n/a	n/a	n/a	n/a
3612.1	n/a	FFR_REC_WORD	1806050	wordpools/wasnorm_wordpool.txt	LTP065	ltpFR	0	n/a	-1	OPERA	978	n/a	n/a	-1	n/a	n/a	n/a	n/a	n/a
3617.842	n/a	FFR_REC_WORD	1808921	wordpools/wasnorm_wordpool.txt	LTP065	ltpFR	0	n/a	-1	CRACKER	398	n/a	n/a	-1	n/a	n/a	n/a	n/a	n/a
3763.104	n/a	REC_START	1881552	n/a	LTP065	ltpFR	0	1	n/a	n/a	n/a	n/a	n/a	n/a	n/a	n/a	n/a	n/a	n/a
3763.136	n/a	RECOG_TARGET	1881568	n/a	LTP065	ltpFR	0	1	0	PIE	1062	0	1	0	n/a	n/a	n/a	n/a	n/a
3764.884	n/a	RECOG_RESP	1882442	n/a	LTP065	ltpFR	0	1	0	PIE	1062	0	n/a	0	n/a	n/a	n/a	n/a	n/a
3770.446	n/a	RECOG_CONF	1885223	n/a	LTP065	ltpFR	0	1	0	PIE	1062	n/a	1	0	n/a	n/a	n/a	n/a	n/a
3778.91	n/a	RECOG_LURE	1889455	n/a	LTP065	ltpFR	0	1	n/a	DESIGNER	451	0	5	n/a	n/a	n/a	n/a	n/a	n/a
3780.984	n/a	RECOG_RESP_VV	1890492	n/a	LTP065	ltpFR	0	1	n/a	DESIGNER	451	0	n/a	n/a	n/a	n/a	n/a	n/a	n/a
3782.42	n/a	RECOG_RESP_VV	1891210	n/a	LTP065	ltpFR	0	1	n/a	DESIGNER	451	n/a	5	n/a	n/a	n/a	n/a	n/a	n/a
3783.926	n/a	RECOG_RESP	1891963	n/a	LTP065	ltpFR	0	1	n/a	DESIGNER	451	0	n/a	n/a	n/a	n/a	n/a	n/a	n/a
3785.614	n/a	RECOG_CONF	1892807	n/a	LTP065	ltpFR	0	1	n/a	DESIGNER	451	n/a	5	n/a	n/a	n/a	n/a	n/a	n/a
3787.46	n/a	RECOG_TARGET	1893730	n/a	LTP065	ltpFR	0	1	0	LOG	841	1	5	1	n/a	n/a	n/a	n/a	n/a
3789.43	n/a	RECOG_RESP	1894715	n/a	LTP065	ltpFR	0	1	0	LOG	841	1	n/a	1	n/a	n/a	n/a	n/a	n/a
3791.0	n/a	RECOG_CONF	1895500	n/a	LTP065	ltpFR	0	1	0	LOG	841	n/a	5	1	n/a	n/a	n/a	n/a	n/a
3793.01	n/a	RECOG_LURE	1896505	n/a	LTP065	ltpFR	0	1	n/a	BRACELET	163	0	4	n/a	n/a	n/a	n/a	n/a	n/a
3795.256	n/a	RECOG_RESP	1897628	n/a	LTP065	ltpFR	0	1	n/a	BRACELET	163	0	n/a	n/a	n/a	n/a	n/a	n/a	n/a
3797.282	n/a	RECOG_CONF	1898641	n/a	LTP065	ltpFR	0	1	n/a	BRACELET	163	n/a	4	n/a	n/a	n/a	n/a	n/a	n/a
3799.078	n/a	RECOG_TARGET	1899539	n/a	LTP065	ltpFR	0	1	0	APE	31	1	5	1	n/a	n/a	n/a	n/a	n/a
3801.01	n/a	RECOG_RESP	1900505	n/a	LTP065	ltpFR	0	1	0	APE	31	1	n/a	1	n/a	n/a	n/a	n/a	n/a
3802.232	n/a	RECOG_CONF	1901116	n/a	LTP065	ltpFR	0	1	0	APE	31	n/a	5	1	n/a	n/a	n/a	n/a	n/a
3803.962	n/a	RECOG_TARGET	1901981	n/a	LTP065	ltpFR	0	1	-1	PATH	1023	0	5	-1	n/a	n/a	n/a	n/a	n/a
3805.22	n/a	RECOG_RESP	1902610	n/a	LTP065	ltpFR	0	1	-1	PATH	1023	0	n/a	-1	n/a	n/a	n/a	n/a	n/a
3806.612	n/a	RECOG_CONF	1903306	n/a	LTP065	ltpFR	0	1	-1	PATH	1023	n/a	5	-1	n/a	n/a	n/a	n/a	n/a
3808.244	n/a	RECOG_TARGET	1904122	n/a	LTP065	ltpFR	0	1	0	BEET	115	1	5	0	n/a	n/a	n/a	n/a	n/a
3810.906	n/a	RECOG_RESP	1905453	n/a	LTP065	ltpFR	0	1	0	BEET	115	1	n/a	0	n/a	n/a	n/a	n/a	n/a
3813.36	n/a	RECOG_CONF	1906680	n/a	LTP065	ltpFR	0	1	0	BEET	115	n/a	5	0	n/a	n/a	n/a	n/a	n/a
3815.184	n/a	RECOG_TARGET	1907592	n/a	LTP065	ltpFR	0	1	1	TOURIST	1488	1	3	1	n/a	n/a	n/a	n/a	n/a
3817.502	n/a	RECOG_RESP	1908751	n/a	LTP065	ltpFR	0	1	1	TOURIST	1488	1	n/a	1	n/a	n/a	n/a	n/a	n/a
3819.302	n/a	RECOG_CONF	1909651	n/a	LTP065	ltpFR	0	1	1	TOURIST	1488	n/a	3	1	n/a	n/a	n/a	n/a	n/a
3821.36	n/a	RECOG_TARGET	1910680	n/a	LTP065	ltpFR	0	1	0	STOCKING	1383	1	5	0	n/a	n/a	n/a	n/a	n/a
3822.386	n/a	RECOG_RESP	1911193	n/a	LTP065	ltpFR	0	1	0	STOCKING	1383	1	n/a	0	n/a	n/a	n/a	n/a	n/a
3823.744	n/a	RECOG_CONF	1911872	n/a	LTP065	ltpFR	0	1	0	STOCKING	1383	n/a	5	0	n/a	n/a	n/a	n/a	n/a
3825.352	n/a	RECOG_TARGET	1912676	n/a	LTP065	ltpFR	0	1	1	ASSOCIATE	49	0	4	1	n/a	n/a	n/a	n/a	n/a
3826.616	n/a	RECOG_RESP	1913308	n/a	LTP065	ltpFR	0	1	1	ASSOCIATE	49	0	n/a	1	n/a	n/a	n/a	n/a	n/a
3828.358	n/a	RECOG_CONF	1914179	n/a	LTP065	ltpFR	0	1	1	ASSOCIATE	49	n/a	4	1	n/a	n/a	n/a	n/a	n/a
3830.192	n/a	RECOG_LURE	1915096	n/a	LTP065	ltpFR	0	1	n/a	DENIM	446	0	3	n/a	n/a	n/a	n/a	n/a	n/a
3831.646	n/a	RECOG_RESP	1915823	n/a	LTP065	ltpFR	0	1	n/a	DENIM	446	0	n/a	n/a	n/a	n/a	n/a	n/a	n/a
3833.72	n/a	RECOG_CONF	1916860	n/a	LTP065	ltpFR	0	1	n/a	DENIM	446	n/a	3	n/a	n/a	n/a	n/a	n/a	n/a
3835.258	n/a	RECOG_TARGET	1917629	n/a	LTP065	ltpFR	0	1	0	NEEDLE	941	1	5	0	n/a	n/a	n/a	n/a	n/a
3836.404	n/a	RECOG_RESP	1918202	n/a	LTP065	ltpFR	0	1	0	NEEDLE	941	1	n/a	0	n/a	n/a	n/a	n/a	n/a
3837.862	n/a	RECOG_CONF	1918931	n/a	LTP065	ltpFR	0	1	0	NEEDLE	941	n/a	5	0	n/a	n/a	n/a	n/a	n/a
3839.442	n/a	RECOG_LURE	1919721	n/a	LTP065	ltpFR	0	1	n/a	LONDON	843	0	3	n/a	n/a	n/a	n/a	n/a	n/a
3840.7	n/a	RECOG_RESP	1920350	n/a	LTP065	ltpFR	0	1	n/a	LONDON	843	0	n/a	n/a	n/a	n/a	n/a	n/a	n/a
3842.612	n/a	RECOG_CONF	1921306	n/a	LTP065	ltpFR	0	1	n/a	LONDON	843	n/a	3	n/a	n/a	n/a	n/a	n/a	n/a
3844.1	n/a	RECOG_TARGET	1922050	n/a	LTP065	ltpFR	0	1	-1	TEAPOT	1442	0	2	-1	n/a	n/a	n/a	n/a	n/a
3846.358	n/a	RECOG_RESP	1923179	n/a	LTP065	ltpFR	0	1	-1	TEAPOT	1442	0	n/a	-1	n/a	n/a	n/a	n/a	n/a
3849.022	n/a	RECOG_CONF	1924511	n/a	LTP065	ltpFR	0	1	-1	TEAPOT	1442	n/a	2	-1	n/a	n/a	n/a	n/a	n/a
3850.684	n/a	RECOG_TARGET	1925342	n/a	LTP065	ltpFR	0	1	1	BANDANNA	80	1	5	0	n/a	n/a	n/a	n/a	n/a
3851.91	n/a	RECOG_RESP	1925955	n/a	LTP065	ltpFR	0	1	1	BANDANNA	80	1	n/a	0	n/a	n/a	n/a	n/a	n/a
3853.382	n/a	RECOG_CONF	1926691	n/a	LTP065	ltpFR	0	1	1	BANDANNA	80	n/a	5	0	n/a	n/a	n/a	n/a	n/a
3854.884	n/a	RECOG_TARGET	1927442	n/a	LTP065	ltpFR	0	1	-1	BISON	131	0	3	-1	n/a	n/a	n/a	n/a	n/a
3856.39	n/a	RECOG_RESP	1928195	n/a	LTP065	ltpFR	0	1	-1	BISON	131	0	n/a	-1	n/a	n/a	n/a	n/a	n/a
3858.82	n/a	RECOG_CONF	1929410	n/a	LTP065	ltpFR	0	1	-1	BISON	131	n/a	3	-1	n/a	n/a	n/a	n/a	n/a
3860.408	n/a	RECOG_TARGET	1930204	n/a	LTP065	ltpFR	0	1	0	GLOVE	642	0	2	0	n/a	n/a	n/a	n/a	n/a
3862.058	n/a	RECOG_RESP	1931029	n/a	LTP065	ltpFR	0	1	0	GLOVE	642	0	n/a	0	n/a	n/a	n/a	n/a	n/a
3864.966	n/a	RECOG_CONF	1932483	n/a	LTP065	ltpFR	0	1	0	GLOVE	642	n/a	2	0	n/a	n/a	n/a	n/a	n/a
3866.566	n/a	RECOG_TARGET	1933283	n/a	LTP065	ltpFR	0	1	1	SAUCER	1237	1	4	0	n/a	n/a	n/a	n/a	n/a
3868.314	n/a	RECOG_RESP	1934157	n/a	LTP065	ltpFR	0	1	1	SAUCER	1237	1	n/a	0	n/a	n/a	n/a	n/a	n/a
3869.666	n/a	RECOG_CONF	1934833	n/a	LTP065	ltpFR	0	1	1	SAUCER	1237	n/a	4	0	n/a	n/a	n/a	n/a	n/a
3871.292	n/a	RECOG_LURE	1935646	n/a	LTP065	ltpFR	0	1	n/a	DYNAMITE	511	0	3	n/a	n/a	n/a	n/a	n/a	n/a
3872.364	n/a	RECOG_RESP	1936182	n/a	LTP065	ltpFR	0	1	n/a	DYNAMITE	511	0	n/a	n/a	n/a	n/a	n/a	n/a	n/a
3874.066	n/a	RECOG_CONF	1937033	n/a	LTP065	ltpFR	0	1	n/a	DYNAMITE	511	n/a	3	n/a	n/a	n/a	n/a	n/a	n/a
3875.65	n/a	RECOG_LURE	1937825	n/a	LTP065	ltpFR	0	1	n/a	CAKE	219	1	4	n/a	n/a	n/a	n/a	n/a	n/a
3876.834	n/a	RECOG_RESP	1938417	n/a	LTP065	ltpFR	0	1	n/a	CAKE	219	1	n/a	n/a	n/a	n/a	n/a	n/a	n/a
3878.456	n/a	RECOG_CONF	1939228	n/a	LTP065	ltpFR	0	1	n/a	CAKE	219	n/a	4	n/a	n/a	n/a	n/a	n/a	n/a
3890.084	n/a	REC_START	1945042	n/a	LTP065	ltpFR	0	2	n/a	n/a	n/a	n/a	n/a	n/a	n/a	n/a	n/a	n/a	n/a
3890.116	n/a	RECOG_TARGET	1945058	n/a	LTP065	ltpFR	0	2	0	HIP	710	0	2	0	n/a	n/a	n/a	n/a	n/a
3891.386	n/a	RECOG_RESP	1945693	n/a	LTP065	ltpFR	0	2	0	HIP	710	0	n/a	0	n/a	n/a	n/a	n/a	n/a
3893.356	n/a	RECOG_CONF	1946678	n/a	LTP065	ltpFR	0	2	0	HIP	710	n/a	2	0	n/a	n/a	n/a	n/a	n/a
3894.766	n/a	RECOG_LURE	1947383	n/a	LTP065	ltpFR	0	2	n/a	DINER	467	0	2	n/a	n/a	n/a	n/a	n/a	n/a
3896.768	n/a	RECOG_RESP	1948384	n/a	LTP065	ltpFR	0	2	n/a	DINER	467	0	n/a	n/a	n/a	n/a	n/a	n/a	n/a
3898.608	n/a	RECOG_CONF	1949304	n/a	LTP065	ltpFR	0	2	n/a	DINER	467	n/a	2	n/a	n/a	n/a	n/a	n/a	n/a
3899.858	n/a	RECOG_TARGET	1949929	n/a	LTP065	ltpFR	0	2	0	TIDE	1465	1	5	1	n/a	n/a	n/a	n/a	n/a
3900.788	n/a	RECOG_RESP	1950394	n/a	LTP065	ltpFR	0	2	0	TIDE	1465	1	n/a	1	n/a	n/a	n/a	n/a	n/a
3902.02	n/a	RECOG_CONF	1951010	n/a	LTP065	ltpFR	0	2	0	TIDE	1465	n/a	5	1	n/a	n/a	n/a	n/a	n/a
3903.482	n/a	RECOG_TARGET	1951741	n/a	LTP065	ltpFR	0	2	1	ELECTRON	522	1	5	0	n/a	n/a	n/a	n/a	n/a
3904.166	n/a	RECOG_RESP	1952083	n/a	LTP065	ltpFR	0	2	1	ELECTRON	522	1	n/a	0	n/a	n/a	n/a	n/a	n/a
3905.44	n/a	RECOG_CONF	1952720	n/a	LTP065	ltpFR	0	2	1	ELECTRON	522	n/a	5	0	n/a	n/a	n/a	n/a	n/a
3906.9	n/a	RECOG_LURE	1953450	n/a	LTP065	ltpFR	0	2	n/a	ALLEY	15	0	4	n/a	n/a	n/a	n/a	n/a	n/a
3907.844	n/a	RECOG_RESP	1953922	n/a	LTP065	ltpFR	0	2	n/a	ALLEY	15	0	n/a	n/a	n/a	n/a	n/a	n/a	n/a
3909.026	n/a	RECOG_CONF	1954513	n/a	LTP065	ltpFR	0	2	n/a	ALLEY	15	n/a	4	n/a	n/a	n/a	n/a	n/a	n/a
3910.55	n/a	RECOG_TARGET	1955275	n/a	LTP065	ltpFR	0	2	0	PORT	1110	0	4	1	n/a	n/a	n/a	n/a	n/a
3911.746	n/a	RECOG_RESP	1955873	n/a	LTP065	ltpFR	0	2	0	PORT	1110	0	n/a	1	n/a	n/a	n/a	n/a	n/a
3912.958	n/a	RECOG_CONF	1956479	n/a	LTP065	ltpFR	0	2	0	PORT	1110	n/a	4	1	n/a	n/a	n/a	n/a	n/a
3914.482	n/a	RECOG_TARGET	1957241	n/a	LTP065	ltpFR	0	2	0	DRAWER	493	1	5	0	n/a	n/a	n/a	n/a	n/a
3915.596	n/a	RECOG_RESP	1957798	n/a	LTP065	ltpFR	0	2	0	DRAWER	493	1	n/a	0	n/a	n/a	n/a	n/a	n/a
3916.894	n/a	RECOG_CONF	1958447	n/a	LTP065	ltpFR	0	2	0	DRAWER	493	n/a	5	0	n/a	n/a	n/a	n/a	n/a
3918.316	n/a	RECOG_TARGET	1959158	n/a	LTP065	ltpFR	0	2	1	LENS	811	1	5	0	n/a	n/a	n/a	n/a	n/a
3919.204	n/a	RECOG_RESP	1959602	n/a	LTP065	ltpFR	0	2	1	LENS	811	1	n/a	0	n/a	n/a	n/a	n/a	n/a
3920.286	n/a	RECOG_CONF	1960143	n/a	LTP065	ltpFR	0	2	1	LENS	811	n/a	5	0	n/a	n/a	n/a	n/a	n/a
3921.774	n/a	RECOG_TARGET	1960887	n/a	LTP065	ltpFR	0	2	1	SERVER	1272	0	3	1	n/a	n/a	n/a	n/a	n/a
3923.584	n/a	RECOG_RESP	1961792	n/a	LTP065	ltpFR	0	2	1	SERVER	1272	0	n/a	1	n/a	n/a	n/a	n/a	n/a
3925.574	n/a	RECOG_CONF	1962787	n/a	LTP065	ltpFR	0	2	1	SERVER	1272	n/a	3	1	n/a	n/a	n/a	n/a	n/a
3927.016	n/a	RECOG_TARGET	1963508	n/a	LTP065	ltpFR	0	2	-1	DOVE	491	1	2	-1	n/a	n/a	n/a	n/a	n/a
3928.718	n/a	RECOG_RESP	1964359	n/a	LTP065	ltpFR	0	2	-1	DOVE	491	1	n/a	-1	n/a	n/a	n/a	n/a	n/a
3930.728	n/a	RECOG_CONF	1965364	n/a	LTP065	ltpFR	0	2	-1	DOVE	491	n/a	2	-1	n/a	n/a	n/a	n/a	n/a
3932.24	n/a	RECOG_LURE	1966120	n/a	LTP065	ltpFR	0	2	n/a	TROUT	1511	0	4	n/a	n/a	n/a	n/a	n/a	n/a
3933.218	n/a	RECOG_RESP	1966609	n/a	LTP065	ltpFR	0	2	n/a	TROUT	1511	0	n/a	n/a	n/a	n/a	n/a	n/a	n/a
3934.54	n/a	RECOG_CONF	1967270	n/a	LTP065	ltpFR	0	2	n/a	TROUT	1511	n/a	4	n/a	n/a	n/a	n/a	n/a	n/a
3936.19	n/a	RECOG_TARGET	1968095	n/a	LTP065	ltpFR	0	2	-1	SOFTBALL	1343	0	2	-1	n/a	n/a	n/a	n/a	n/a
3937.248	n/a	RECOG_RESP	1968624	n/a	LTP065	ltpFR	0	2	-1	SOFTBALL	1343	0	n/a	-1	n/a	n/a	n/a	n/a	n/a
3939.118	n/a	RECOG_CONF	1969559	n/a	LTP065	ltpFR	0	2	-1	SOFTBALL	1343	n/a	2	-1	n/a	n/a	n/a	n/a	n/a
3940.606	n/a	RECOG_TARGET	1970303	n/a	LTP065	ltpFR	0	2	0	DRESSER	496	1	3	1	n/a	n/a	n/a	n/a	n/a
3942.098	n/a	RECOG_RESP	1971049	n/a	LTP065	ltpFR	0	2	0	DRESSER	496	1	n/a	1	n/a	n/a	n/a	n/a	n/a
3943.898	n/a	RECOG_CONF	1971949	n/a	LTP065	ltpFR	0	2	0	DRESSER	496	n/a	3	1	n/a	n/a	n/a	n/a	n/a
3945.414	n/a	RECOG_TARGET	1972707	n/a	LTP065	ltpFR	0	2	1	ANTEATER	26	1	5	0	n/a	n/a	n/a	n/a	n/a
3946.408	n/a	RECOG_RESP	1973204	n/a	LTP065	ltpFR	0	2	1	ANTEATER	26	1	n/a	0	n/a	n/a	n/a	n/a	n/a
3947.366	n/a	RECOG_CONF	1973683	n/a	LTP065	ltpFR	0	2	1	ANTEATER	26	n/a	5	0	n/a	n/a	n/a	n/a	n/a
3948.914	n/a	RECOG_TARGET	1974457	n/a	LTP065	ltpFR	0	2	1	SHORE	1291	1	5	0	n/a	n/a	n/a	n/a	n/a
3949.746	n/a	RECOG_RESP	1974873	n/a	LTP065	ltpFR	0	2	1	SHORE	1291	1	n/a	0	n/a	n/a	n/a	n/a	n/a
3951.118	n/a	RECOG_CONF	1975559	n/a	LTP065	ltpFR	0	2	1	SHORE	1291	n/a	5	0	n/a	n/a	n/a	n/a	n/a
3952.724	n/a	RECOG_LURE	1976362	n/a	LTP065	ltpFR	0	2	n/a	GANG	619	0	4	n/a	n/a	n/a	n/a	n/a	n/a
3953.662	n/a	RECOG_RESP	1976831	n/a	LTP065	ltpFR	0	2	n/a	GANG	619	0	n/a	n/a	n/a	n/a	n/a	n/a	n/a
3955.188	n/a	RECOG_CONF	1977594	n/a	LTP065	ltpFR	0	2	n/a	GANG	619	n/a	4	n/a	n/a	n/a	n/a	n/a	n/a
3956.682	n/a	RECOG_TARGET	1978341	n/a	LTP065	ltpFR	0	2	1	BOWL	158	1	5	0	n/a	n/a	n/a	n/a	n/a
3957.488	n/a	RECOG_RESP	1978744	n/a	LTP065	ltpFR	0	2	1	BOWL	158	1	n/a	0	n/a	n/a	n/a	n/a	n/a
3958.586	n/a	RECOG_CONF	1979293	n/a	LTP065	ltpFR	0	2	1	BOWL	158	n/a	5	0	n/a	n/a	n/a	n/a	n/a
3959.982	n/a	RECOG_LURE	1979991	n/a	LTP065	ltpFR	0	2	n/a	CALF	222	0	2	n/a	n/a	n/a	n/a	n/a	n/a
3961.538	n/a	RECOG_RESP	1980769	n/a	LTP065	ltpFR	0	2	n/a	CALF	222	0	n/a	n/a	n/a	n/a	n/a	n/a	n/a
3963.284	n/a	RECOG_CONF	1981642	n/a	LTP065	ltpFR	0	2	n/a	CALF	222	n/a	2	n/a	n/a	n/a	n/a	n/a	n/a
3964.764	n/a	RECOG_TARGET	1982382	n/a	LTP065	ltpFR	0	2	1	HIKER	708	0	1	1	n/a	n/a	n/a	n/a	n/a
3966.084	n/a	RECOG_RESP	1983042	n/a	LTP065	ltpFR	0	2	1	HIKER	708	0	n/a	1	n/a	n/a	n/a	n/a	n/a
3968.254	n/a	RECOG_CONF	1984127	n/a	LTP065	ltpFR	0	2	1	HIKER	708	n/a	1	1	n/a	n/a	n/a	n/a	n/a
3969.69	n/a	RECOG_TARGET	1984845	n/a	LTP065	ltpFR	0	2	0	ANTENNA	28	1	5	0	n/a	n/a	n/a	n/a	n/a
3971.084	n/a	RECOG_RESP	1985542	n/a	LTP065	ltpFR	0	2	0	ANTENNA	28	1	n/a	0	n/a	n/a	n/a	n/a	n/a
3972.49	n/a	RECOG_CONF	1986245	n/a	LTP065	ltpFR	0	2	0	ANTENNA	28	n/a	5	0	n/a	n/a	n/a	n/a	n/a
4002.1	n/a	REC_START	2001050	n/a	LTP065	ltpFR	0	3	n/a	n/a	n/a	n/a	n/a	n/a	n/a	n/a	n/a	n/a	n/a
4002.138	n/a	RECOG_TARGET	2001069	n/a	LTP065	ltpFR	0	3	1	STETHOSCOPE	1379	0	5	0	n/a	n/a	n/a	n/a	n/a
4003.288	n/a	RECOG_RESP	2001644	n/a	LTP065	ltpFR	0	3	1	STETHOSCOPE	1379	0	n/a	0	n/a	n/a	n/a	n/a	n/a
4004.624	n/a	RECOG_CONF	2002312	n/a	LTP065	ltpFR	0	3	1	STETHOSCOPE	1379	n/a	5	0	n/a	n/a	n/a	n/a	n/a
4006.13	n/a	RECOG_TARGET	2003065	n/a	LTP065	ltpFR	0	3	1	MOTH	920	0	3	1	n/a	n/a	n/a	n/a	n/a
4007.388	n/a	RECOG_RESP	2003694	n/a	LTP065	ltpFR	0	3	1	MOTH	920	0	n/a	1	n/a	n/a	n/a	n/a	n/a
4008.924	n/a	RECOG_CONF	2004462	n/a	LTP065	ltpFR	0	3	1	MOTH	920	n/a	3	1	n/a	n/a	n/a	n/a	n/a
4010.314	n/a	RECOG_LURE	2005157	n/a	LTP065	ltpFR	0	3	n/a	CANOE	233	0	1	n/a	n/a	n/a	n/a	n/a	n/a
4012.422	n/a	RECOG_RESP	2006211	n/a	LTP065	ltpFR	0	3	n/a	CANOE	233	0	n/a	n/a	n/a	n/a	n/a	n/a	n/a
4013.854	n/a	RECOG_CONF	2006927	n/a	LTP065	ltpFR	0	3	n/a	CANOE	233	n/a	1	n/a	n/a	n/a	n/a	n/a	n/a
4015.404	n/a	RECOG_LURE	2007702	n/a	LTP065	ltpFR	0	3	n/a	WASP	1593	0	2	n/a	n/a	n/a	n/a	n/a	n/a
4016.442	n/a	RECOG_RESP	2008221	n/a	LTP065	ltpFR	0	3	n/a	WASP	1593	0	n/a	n/a	n/a	n/a	n/a	n/a	n/a
4017.88	n/a	RECOG_CONF	2008940	n/a	LTP065	ltpFR	0	3	n/a	WASP	1593	n/a	2	n/a	n/a	n/a	n/a	n/a	n/a
4019.238	n/a	RECOG_TARGET	2009619	n/a	LTP065	ltpFR	0	3	1	TEACHER	1440	1	5	1	n/a	n/a	n/a	n/a	n/a
4020.728	n/a	RECOG_RESP	2010364	n/a	LTP065	ltpFR	0	3	1	TEACHER	1440	1	n/a	1	n/a	n/a	n/a	n/a	n/a
4021.91	n/a	RECOG_CONF	2010955	n/a	LTP065	ltpFR	0	3	1	TEACHER	1440	n/a	5	1	n/a	n/a	n/a	n/a	n/a
4023.346	n/a	RECOG_TARGET	2011673	n/a	LTP065	ltpFR	0	3	1	DIVER	476	1	5	1	n/a	n/a	n/a	n/a	n/a
4024.026	n/a	RECOG_RESP	2012013	n/a	LTP065	ltpFR	0	3	1	DIVER	476	1	n/a	1	n/a	n/a	n/a	n/a	n/a
4025.072	n/a	RECOG_CONF	2012536	n/a	LTP065	ltpFR	0	3	1	DIVER	476	n/a	5	1	n/a	n/a	n/a	n/a	n/a
4026.578	n/a	RECOG_TARGET	2013289	n/a	LTP065	ltpFR	0	3	0	VOLUNTEER	1577	1	5	1	n/a	n/a	n/a	n/a	n/a
4027.598	n/a	RECOG_RESP	2013799	n/a	LTP065	ltpFR	0	3	0	VOLUNTEER	1577	1	n/a	1	n/a	n/a	n/a	n/a	n/a
4028.73	n/a	RECOG_CONF	2014365	n/a	LTP065	ltpFR	0	3	0	VOLUNTEER	1577	n/a	5	1	n/a	n/a	n/a	n/a	n/a
4030.154	n/a	RECOG_LURE	2015077	n/a	LTP065	ltpFR	0	3	n/a	CARROT	249	0	5	n/a	n/a	n/a	n/a	n/a	n/a
4030.984	n/a	RECOG_RESP	2015492	n/a	LTP065	ltpFR	0	3	n/a	CARROT	249	0	n/a	n/a	n/a	n/a	n/a	n/a	n/a
4032.024	n/a	RECOG_CONF	2016012	n/a	LTP065	ltpFR	0	3	n/a	CARROT	249	n/a	5	n/a	n/a	n/a	n/a	n/a	n/a
4033.462	n/a	RECOG_TARGET	2016731	n/a	LTP065	ltpFR	0	3	1	SIRLOIN	1311	1	5	0	n/a	n/a	n/a	n/a	n/a
4034.926	n/a	RECOG_RESP	2017463	n/a	LTP065	ltpFR	0	3	1	SIRLOIN	1311	1	n/a	0	n/a	n/a	n/a	n/a	n/a
4036.134	n/a	RECOG_CONF	2018067	n/a	LTP065	ltpFR	0	3	1	SIRLOIN	1311	n/a	5	0	n/a	n/a	n/a	n/a	n/a
4037.604	n/a	RECOG_LURE	2018802	n/a	LTP065	ltpFR	0	3	n/a	BOARD	143	0	4	n/a	n/a	n/a	n/a	n/a	n/a
4038.414	n/a	RECOG_RESP	2019207	n/a	LTP065	ltpFR	0	3	n/a	BOARD	143	0	n/a	n/a	n/a	n/a	n/a	n/a	n/a
4039.476	n/a	RECOG_CONF	2019738	n/a	LTP065	ltpFR	0	3	n/a	BOARD	143	n/a	4	n/a	n/a	n/a	n/a	n/a	n/a
4040.972	n/a	RECOG_LURE	2020486	n/a	LTP065	ltpFR	0	3	n/a	TRANSPLANT	1496	0	3	n/a	n/a	n/a	n/a	n/a	n/a
4041.99	n/a	RECOG_RESP	2020995	n/a	LTP065	ltpFR	0	3	n/a	TRANSPLANT	1496	0	n/a	n/a	n/a	n/a	n/a	n/a	n/a
4043.558	n/a	RECOG_CONF	2021779	n/a	LTP065	ltpFR	0	3	n/a	TRANSPLANT	1496	n/a	3	n/a	n/a	n/a	n/a	n/a	n/a
4044.972	n/a	RECOG_TARGET	2022486	n/a	LTP065	ltpFR	0	3	1	BROCCOLI	176	1	5	1	n/a	n/a	n/a	n/a	n/a
4045.738	n/a	RECOG_RESP	2022869	n/a	LTP065	ltpFR	0	3	1	BROCCOLI	176	1	n/a	1	n/a	n/a	n/a	n/a	n/a
4046.694	n/a	RECOG_CONF	2023347	n/a	LTP065	ltpFR	0	3	1	BROCCOLI	176	n/a	5	1	n/a	n/a	n/a	n/a	n/a
4048.212	n/a	RECOG_LURE	2024106	n/a	LTP065	ltpFR	0	3	n/a	SHEARS	1276	0	5	n/a	n/a	n/a	n/a	n/a	n/a
4049.154	n/a	RECOG_RESP	2024577	n/a	LTP065	ltpFR	0	3	n/a	SHEARS	1276	0	n/a	n/a	n/a	n/a	n/a	n/a	n/a
4050.342	n/a	RECOG_CONF	2025171	n/a	LTP065	ltpFR	0	3	n/a	SHEARS	1276	n/a	5	n/a	n/a	n/a	n/a	n/a	n/a
4051.794	n/a	RECOG_LURE	2025897	n/a	LTP065	ltpFR	0	3	n/a	GRAVEL	659	0	5	n/a	n/a	n/a	n/a	n/a	n/a
4052.808	n/a	RECOG_RESP	2026404	n/a	LTP065	ltpFR	0	3	n/a	GRAVEL	659	0	n/a	n/a	n/a	n/a	n/a	n/a	n/a
4053.964	n/a	RECOG_CONF	2026982	n/a	LTP065	ltpFR	0	3	n/a	GRAVEL	659	n/a	5	n/a	n/a	n/a	n/a	n/a	n/a
4055.328	n/a	RECOG_TARGET	2027664	n/a	LTP065	ltpFR	0	3	1	TRENCH	1503	1	5	0	n/a	n/a	n/a	n/a	n/a
4056.14	n/a	RECOG_RESP	2028070	n/a	LTP065	ltpFR	0	3	1	TRENCH	1503	1	n/a	0	n/a	n/a	n/a	n/a	n/a
4057.226	n/a	RECOG_CONF	2028613	n/a	LTP065	ltpFR	0	3	1	TRENCH	1503	n/a	5	0	n/a	n/a	n/a	n/a	n/a
4058.762	n/a	RECOG_LURE	2029381	n/a	LTP065	ltpFR	0	3	n/a	SCIENTIST	1249	0	5	n/a	n/a	n/a	n/a	n/a	n/a
4059.696	n/a	RECOG_RESP	2029848	n/a	LTP065	ltpFR	0	3	n/a	SCIENTIST	1249	0	n/a	n/a	n/a	n/a	n/a	n/a	n/a
4060.654	n/a	RECOG_CONF	2030327	n/a	LTP065	ltpFR	0	3	n/a	SCIENTIST	1249	n/a	5	n/a	n/a	n/a	n/a	n/a	n/a
4062.004	n/a	RECOG_TARGET	2031002	n/a	LTP065	ltpFR	0	3	0	KITTEN	780	1	5	0	n/a	n/a	n/a	n/a	n/a
4062.74	n/a	RECOG_RESP	2031370	n/a	LTP065	ltpFR	0	3	0	KITTEN	780	1	n/a	0	n/a	n/a	n/a	n/a	n/a
4063.832	n/a	RECOG_CONF	2031916	n/a	LTP065	ltpFR	0	3	0	KITTEN	780	n/a	5	0	n/a	n/a	n/a	n/a	n/a
4065.494	n/a	RECOG_TARGET	2032747	n/a	LTP065	ltpFR	0	3	1	LOVER	846	1	5	1	n/a	n/a	n/a	n/a	n/a
4066.442	n/a	RECOG_RESP	2033221	n/a	LTP065	ltpFR	0	3	1	LOVER	846	1	n/a	1	n/a	n/a	n/a	n/a	n/a
4067.498	n/a	RECOG_CONF	2033749	n/a	LTP065	ltpFR	0	3	1	LOVER	846	n/a	5	1	n/a	n/a	n/a	n/a	n/a
4069.012	n/a	RECOG_LURE	2034506	n/a	LTP065	ltpFR	0	3	n/a	STOVE	1388	0	4	n/a	n/a	n/a	n/a	n/a	n/a
4069.788	n/a	RECOG_RESP	2034894	n/a	LTP065	ltpFR	0	3	n/a	STOVE	1388	0	n/a	n/a	n/a	n/a	n/a	n/a	n/a
4071.016	n/a	RECOG_CONF	2035508	n/a	LTP065	ltpFR	0	3	n/a	STOVE	1388	n/a	4	n/a	n/a	n/a	n/a	n/a	n/a
4072.436	n/a	RECOG_TARGET	2036218	n/a	LTP065	ltpFR	0	3	0	ROOT	1210	1	5	1	n/a	n/a	n/a	n/a	n/a
4073.194	n/a	RECOG_RESP	2036597	n/a	LTP065	ltpFR	0	3	0	ROOT	1210	1	n/a	1	n/a	n/a	n/a	n/a	n/a
4074.23	n/a	RECOG_CONF	2037115	n/a	LTP065	ltpFR	0	3	0	ROOT	1210	n/a	5	1	n/a	n/a	n/a	n/a	n/a
4078.362	n/a	REC_START	2039181	n/a	LTP065	ltpFR	0	4	n/a	n/a	n/a	n/a	n/a	n/a	n/a	n/a	n/a	n/a	n/a
4078.394	n/a	RECOG_TARGET	2039197	n/a	LTP065	ltpFR	0	4	0	DEPUTY	450	1	3	1	n/a	n/a	n/a	n/a	n/a
4079.554	n/a	RECOG_RESP	2039777	n/a	LTP065	ltpFR	0	4	0	DEPUTY	450	1	n/a	1	n/a	n/a	n/a	n/a	n/a
4080.832	n/a	RECOG_CONF	2040416	n/a	LTP065	ltpFR	0	4	0	DEPUTY	450	n/a	3	1	n/a	n/a	n/a	n/a	n/a
4082.252	n/a	RECOG_TARGET	2041126	n/a	LTP065	ltpFR	0	4	0	FRAME	600	1	5	0	n/a	n/a	n/a	n/a	n/a
4083.082	n/a	RECOG_RESP	2041541	n/a	LTP065	ltpFR	0	4	0	FRAME	600	1	n/a	0	n/a	n/a	n/a	n/a	n/a
4084.084	n/a	RECOG_CONF	2042042	n/a	LTP065	ltpFR	0	4	0	FRAME	600	n/a	5	0	n/a	n/a	n/a	n/a	n/a
4085.486	n/a	RECOG_TARGET	2042743	n/a	LTP065	ltpFR	0	4	1	POTTERY	1116	1	5	0	n/a	n/a	n/a	n/a	n/a
4086.16	n/a	RECOG_RESP	2043080	n/a	LTP065	ltpFR	0	4	1	POTTERY	1116	1	n/a	0	n/a	n/a	n/a	n/a	n/a
4087.122	n/a	RECOG_CONF	2043561	n/a	LTP065	ltpFR	0	4	1	POTTERY	1116	n/a	5	0	n/a	n/a	n/a	n/a	n/a
4088.57	n/a	RECOG_TARGET	2044285	n/a	LTP065	ltpFR	0	4	1	PEARL	1034	1	5	0	n/a	n/a	n/a	n/a	n/a
4089.298	n/a	RECOG_RESP	2044649	n/a	LTP065	ltpFR	0	4	1	PEARL	1034	1	n/a	0	n/a	n/a	n/a	n/a	n/a
4090.286	n/a	RECOG_CONF	2045143	n/a	LTP065	ltpFR	0	4	1	PEARL	1034	n/a	5	0	n/a	n/a	n/a	n/a	n/a
4091.718	n/a	RECOG_TARGET	2045859	n/a	LTP065	ltpFR	0	4	1	REGISTER	1180	1	5	0	n/a	n/a	n/a	n/a	n/a
4092.406	n/a	RECOG_RESP	2046203	n/a	LTP065	ltpFR	0	4	1	REGISTER	1180	1	n/a	0	n/a	n/a	n/a	n/a	n/a
4093.358	n/a	RECOG_CONF	2046679	n/a	LTP065	ltpFR	0	4	1	REGISTER	1180	n/a	5	0	n/a	n/a	n/a	n/a	n/a
4094.736	n/a	RECOG_TARGET	2047368	n/a	LTP065	ltpFR	0	4	0	HERD	705	1	5	1	n/a	n/a	n/a	n/a	n/a
4095.424	n/a	RECOG_RESP	2047712	n/a	LTP065	ltpFR	0	4	0	HERD	705	1	n/a	1	n/a	n/a	n/a	n/a	n/a
4096.438	n/a	RECOG_CONF	2048219	n/a	LTP065	ltpFR	0	4	0	HERD	705	n/a	5	1	n/a	n/a	n/a	n/a	n/a
4097.802	n/a	RECOG_TARGET	2048901	n/a	LTP065	ltpFR	0	4	0	OCTOPUS	971	1	5	1	n/a	n/a	n/a	n/a	n/a
4098.458	n/a	RECOG_RESP	2049229	n/a	LTP065	ltpFR	0	4	0	OCTOPUS	971	1	n/a	1	n/a	n/a	n/a	n/a	n/a
4099.46	n/a	RECOG_CONF	2049730	n/a	LTP065	ltpFR	0	4	0	OCTOPUS	971	n/a	5	1	n/a	n/a	n/a	n/a	n/a
4100.878	n/a	RECOG_TARGET	2050439	n/a	LTP065	ltpFR	0	4	0	MOSS	918	1	5	0	n/a	n/a	n/a	n/a	n/a
4101.6	n/a	RECOG_RESP	2050800	n/a	LTP065	ltpFR	0	4	0	MOSS	918	1	n/a	0	n/a	n/a	n/a	n/a	n/a
4102.504	n/a	RECOG_CONF	2051252	n/a	LTP065	ltpFR	0	4	0	MOSS	918	n/a	5	0	n/a	n/a	n/a	n/a	n/a
4103.836	n/a	RECOG_TARGET	2051918	n/a	LTP065	ltpFR	0	4	1	SURF	1412	1	5	0	n/a	n/a	n/a	n/a	n/a
4104.518	n/a	RECOG_RESP	2052259	n/a	LTP065	ltpFR	0	4	1	SURF	1412	1	n/a	0	n/a	n/a	n/a	n/a	n/a
4105.446	n/a	RECOG_CONF	2052723	n/a	LTP065	ltpFR	0	4	1	SURF	1412	n/a	5	0	n/a	n/a	n/a	n/a	n/a
4106.96	n/a	RECOG_TARGET	2053480	n/a	LTP065	ltpFR	0	4	-1	SKILLET	1317	0	3	-1	n/a	n/a	n/a	n/a	n/a
4107.852	n/a	RECOG_RESP	2053926	n/a	LTP065	ltpFR	0	4	-1	SKILLET	1317	0	n/a	-1	n/a	n/a	n/a	n/a	n/a
4109.034	n/a	RECOG_CONF	2054517	n/a	LTP065	ltpFR	0	4	-1	SKILLET	1317	n/a	3	-1	n/a	n/a	n/a	n/a	n/a
4110.326	n/a	RECOG_LURE	2055163	n/a	LTP065	ltpFR	0	4	n/a	FEMALE	559	0	4	n/a	n/a	n/a	n/a	n/a	n/a
4111.358	n/a	RECOG_RESP	2055679	n/a	LTP065	ltpFR	0	4	n/a	FEMALE	559	0	n/a	n/a	n/a	n/a	n/a	n/a	n/a
4112.256	n/a	RECOG_CONF	2056128	n/a	LTP065	ltpFR	0	4	n/a	FEMALE	559	n/a	4	n/a	n/a	n/a	n/a	n/a	n/a
4113.634	n/a	RECOG_TARGET	2056817	n/a	LTP065	ltpFR	0	4	1	ANCESTOR	20	1	5	0	n/a	n/a	n/a	n/a	n/a
4114.376	n/a	RECOG_RESP	2057188	n/a	LTP065	ltpFR	0	4	1	ANCESTOR	20	1	n/a	0	n/a	n/a	n/a	n/a	n/a
4115.384	n/a	RECOG_CONF	2057692	n/a	LTP065	ltpFR	0	4	1	ANCESTOR	20	n/a	5	0	n/a	n/a	n/a	n/a	n/a
4116.852	n/a	RECOG_TARGET	2058426	n/a	LTP065	ltpFR	0	4	0	DICTATOR	462	1	5	1	n/a	n/a	n/a	n/a	n/a
4117.53	n/a	RECOG_RESP	2058765	n/a	LTP065	ltpFR	0	4	0	DICTATOR	462	1	n/a	1	n/a	n/a	n/a	n/a	n/a
4118.542	n/a	RECOG_CONF	2059271	n/a	LTP065	ltpFR	0	4	0	DICTATOR	462	n/a	5	1	n/a	n/a	n/a	n/a	n/a
4120.044	n/a	RECOG_TARGET	2060022	n/a	LTP065	ltpFR	0	4	1	BEAN	105	1	4	1	n/a	n/a	n/a	n/a	n/a
4121.012	n/a	RECOG_RESP	2060506	n/a	LTP065	ltpFR	0	4	1	BEAN	105	1	n/a	1	n/a	n/a	n/a	n/a	n/a
4122.084	n/a	RECOG_CONF	2061042	n/a	LTP065	ltpFR	0	4	1	BEAN	105	n/a	4	1	n/a	n/a	n/a	n/a	n/a
4123.56	n/a	RECOG_TARGET	2061780	n/a	LTP065	ltpFR	0	4	1	UMBRELLA	1534	1	3	0	n/a	n/a	n/a	n/a	n/a
4124.47	n/a	RECOG_RESP	2062235	n/a	LTP065	ltpFR	0	4	1	UMBRELLA	1534	1	n/a	0	n/a	n/a	n/a	n/a	n/a
4125.352	n/a	RECOG_CONF	2062676	n/a	LTP065	ltpFR	0	4	1	UMBRELLA	1534	n/a	3	0	n/a	n/a	n/a	n/a	n/a
4126.76	n/a	RECOG_LURE	2063380	n/a	LTP065	ltpFR	0	4	n/a	LOBSTER	837	1	3	n/a	n/a	n/a	n/a	n/a	n/a
4127.658	n/a	RECOG_RESP	2063829	n/a	LTP065	ltpFR	0	4	n/a	LOBSTER	837	1	n/a	n/a	n/a	n/a	n/a	n/a	n/a
4128.88	n/a	RECOG_CONF	2064440	n/a	LTP065	ltpFR	0	4	n/a	LOBSTER	837	n/a	3	n/a	n/a	n/a	n/a	n/a	n/a
4130.284	n/a	RECOG_TARGET	2065142	n/a	LTP065	ltpFR	0	4	0	SAW	1239	1	5	0	n/a	n/a	n/a	n/a	n/a
4131.17	n/a	RECOG_RESP	2065585	n/a	LTP065	ltpFR	0	4	0	SAW	1239	1	n/a	0	n/a	n/a	n/a	n/a	n/a
4132.064	n/a	RECOG_CONF	2066032	n/a	LTP065	ltpFR	0	4	0	SAW	1239	n/a	5	0	n/a	n/a	n/a	n/a	n/a
4133.492	n/a	RECOG_TARGET	2066746	n/a	LTP065	ltpFR	0	4	-1	SHIRT	1287	1	5	-1	n/a	n/a	n/a	n/a	n/a
4134.172	n/a	RECOG_RESP	2067086	n/a	LTP065	ltpFR	0	4	-1	SHIRT	1287	1	n/a	-1	n/a	n/a	n/a	n/a	n/a
4135.194	n/a	RECOG_CONF	2067597	n/a	LTP065	ltpFR	0	4	-1	SHIRT	1287	n/a	5	-1	n/a	n/a	n/a	n/a	n/a
4136.676	n/a	RECOG_LURE	2068338	n/a	LTP065	ltpFR	0	4	n/a	TWISTER	1530	0	2	n/a	n/a	n/a	n/a	n/a	n/a
4137.886	n/a	RECOG_RESP	2068943	n/a	LTP065	ltpFR	0	4	n/a	TWISTER	1530	0	n/a	n/a	n/a	n/a	n/a	n/a	n/a
4139.292	n/a	RECOG_CONF	2069646	n/a	LTP065	ltpFR	0	4	n/a	TWISTER	1530	n/a	2	n/a	n/a	n/a	n/a	n/a	n/a
4140.66	n/a	RECOG_TARGET	2070330	n/a	LTP065	ltpFR	0	4	-1	BASKETBALL	96	1	5	-1	n/a	n/a	n/a	n/a	n/a
4141.312	n/a	RECOG_RESP	2070656	n/a	LTP065	ltpFR	0	4	-1	BASKETBALL	96	1	n/a	-1	n/a	n/a	n/a	n/a	n/a
4142.25	n/a	RECOG_CONF	2071125	n/a	LTP065	ltpFR	0	4	-1	BASKETBALL	96	n/a	5	-1	n/a	n/a	n/a	n/a	n/a
4146.542	n/a	REC_START	2073271	n/a	LTP065	ltpFR	0	5	n/a	n/a	n/a	n/a	n/a	n/a	n/a	n/a	n/a	n/a	n/a
4146.576	n/a	RECOG_LURE	2073288	n/a	LTP065	ltpFR	0	5	n/a	TOILET	1475	1	3	n/a	n/a	n/a	n/a	n/a	n/a
4147.526	n/a	RECOG_RESP	2073763	n/a	LTP065	ltpFR	0	5	n/a	TOILET	1475	1	n/a	n/a	n/a	n/a	n/a	n/a	n/a
4148.398	n/a	RECOG_CONF	2074199	n/a	LTP065	ltpFR	0	5	n/a	TOILET	1475	n/a	3	n/a	n/a	n/a	n/a	n/a	n/a
4149.776	n/a	RECOG_TARGET	2074888	n/a	LTP065	ltpFR	0	5	-1	WORKER	1621	1	2	-1	n/a	n/a	n/a	n/a	n/a
4152.484	n/a	RECOG_RESP	2076242	n/a	LTP065	ltpFR	0	5	-1	WORKER	1621	1	n/a	-1	n/a	n/a	n/a	n/a	n/a
4153.75	n/a	RECOG_CONF	2076875	n/a	LTP065	ltpFR	0	5	-1	WORKER	1621	n/a	2	-1	n/a	n/a	n/a	n/a	n/a
4155.218	n/a	RECOG_LURE	2077609	n/a	LTP065	ltpFR	0	5	n/a	CLOSET	326	1	2	n/a	n/a	n/a	n/a	n/a	n/a
4156.176	n/a	RECOG_RESP	2078088	n/a	LTP065	ltpFR	0	5	n/a	CLOSET	326	1	n/a	n/a	n/a	n/a	n/a	n/a	n/a
4157.748	n/a	RECOG_CONF	2078874	n/a	LTP065	ltpFR	0	5	n/a	CLOSET	326	n/a	2	n/a	n/a	n/a	n/a	n/a	n/a
4159.02	n/a	RECOG_LURE	2079510	n/a	LTP065	ltpFR	0	5	n/a	BALLERINA	74	1	3	n/a	n/a	n/a	n/a	n/a	n/a
4160.366	n/a	RECOG_RESP	2080183	n/a	LTP065	ltpFR	0	5	n/a	BALLERINA	74	1	n/a	n/a	n/a	n/a	n/a	n/a	n/a
4161.698	n/a	RECOG_CONF	2080849	n/a	LTP065	ltpFR	0	5	n/a	BALLERINA	74	n/a	3	n/a	n/a	n/a	n/a	n/a	n/a
4163.11	n/a	RECOG_TARGET	2081555	n/a	LTP065	ltpFR	0	5	0	COMMUNITY	356	1	5	1	n/a	n/a	n/a	n/a	n/a
4163.968	n/a	RECOG_RESP	2081984	n/a	LTP065	ltpFR	0	5	0	COMMUNITY	356	1	n/a	1	n/a	n/a	n/a	n/a	n/a
4164.822	n/a	RECOG_CONF	2082411	n/a	LTP065	ltpFR	0	5	0	COMMUNITY	356	n/a	5	1	n/a	n/a	n/a	n/a	n/a
4166.176	n/a	RECOG_LURE	2083088	n/a	LTP065	ltpFR	0	5	n/a	GAZELLE	628	0	4	n/a	n/a	n/a	n/a	n/a	n/a
4167.246	n/a	RECOG_RESP	2083623	n/a	LTP065	ltpFR	0	5	n/a	GAZELLE	628	0	n/a	n/a	n/a	n/a	n/a	n/a	n/a
4168.04	n/a	RECOG_CONF	2084020	n/a	LTP065	ltpFR	0	5	n/a	GAZELLE	628	n/a	4	n/a	n/a	n/a	n/a	n/a	n/a
4169.384	n/a	RECOG_LURE	2084692	n/a	LTP065	ltpFR	0	5	n/a	REFEREE	1178	0	5	n/a	n/a	n/a	n/a	n/a	n/a
4170.15	n/a	RECOG_RESP	2085075	n/a	LTP065	ltpFR	0	5	n/a	REFEREE	1178	0	n/a	n/a	n/a	n/a	n/a	n/a	n/a
4171.008	n/a	RECOG_CONF	2085504	n/a	LTP065	ltpFR	0	5	n/a	REFEREE	1178	n/a	5	n/a	n/a	n/a	n/a	n/a	n/a
4172.284	n/a	RECOG_TARGET	2086142	n/a	LTP065	ltpFR	0	5	-1	BATHROOM	99	1	5	-1	n/a	n/a	n/a	n/a	n/a
4173.672	n/a	RECOG_RESP	2086836	n/a	LTP065	ltpFR	0	5	-1	BATHROOM	99	1	n/a	-1	n/a	n/a	n/a	n/a	n/a
4174.69	n/a	RECOG_CONF	2087345	n/a	LTP065	ltpFR	0	5	-1	BATHROOM	99	n/a	5	-1	n/a	n/a	n/a	n/a	n/a
4176.208	n/a	RECOG_LURE	2088104	n/a	LTP065	ltpFR	0	5	n/a	ROBOT	1200	0	5	n/a	n/a	n/a	n/a	n/a	n/a
4177.224	n/a	RECOG_RESP	2088612	n/a	LTP065	ltpFR	0	5	n/a	ROBOT	1200	0	n/a	n/a	n/a	n/a	n/a	n/a	n/a
4178.246	n/a	RECOG_CONF	2089123	n/a	LTP065	ltpFR	0	5	n/a	ROBOT	1200	n/a	5	n/a	n/a	n/a	n/a	n/a	n/a
4179.634	n/a	RECOG_LURE	2089817	n/a	LTP065	ltpFR	0	5	n/a	RABBIT	1152	0	4	n/a	n/a	n/a	n/a	n/a	n/a
4180.656	n/a	RECOG_RESP	2090328	n/a	LTP065	ltpFR	0	5	n/a	RABBIT	1152	0	n/a	n/a	n/a	n/a	n/a	n/a	n/a
4182.428	n/a	RECOG_CONF	2091214	n/a	LTP065	ltpFR	0	5	n/a	RABBIT	1152	n/a	4	n/a	n/a	n/a	n/a	n/a	n/a
4183.75	n/a	RECOG_LURE	2091875	n/a	LTP065	ltpFR	0	5	n/a	SOCIETY	1338	0	2	n/a	n/a	n/a	n/a	n/a	n/a
4185.426	n/a	RECOG_RESP	2092713	n/a	LTP065	ltpFR	0	5	n/a	SOCIETY	1338	0	n/a	n/a	n/a	n/a	n/a	n/a	n/a
4186.514	n/a	RECOG_CONF	2093257	n/a	LTP065	ltpFR	0	5	n/a	SOCIETY	1338	n/a	2	n/a	n/a	n/a	n/a	n/a	n/a
4187.842	n/a	RECOG_LURE	2093921	n/a	LTP065	ltpFR	0	5	n/a	OUTDOORS	987	0	4	n/a	n/a	n/a	n/a	n/a	n/a
4188.654	n/a	RECOG_RESP	2094327	n/a	LTP065	ltpFR	0	5	n/a	OUTDOORS	987	0	n/a	n/a	n/a	n/a	n/a	n/a	n/a
4189.622	n/a	RECOG_CONF	2094811	n/a	LTP065	ltpFR	0	5	n/a	OUTDOORS	987	n/a	4	n/a	n/a	n/a	n/a	n/a	n/a
4191.092	n/a	RECOG_TARGET	2095546	n/a	LTP065	ltpFR	0	5	1	ENGINE	535	1	5	0	n/a	n/a	n/a	n/a	n/a
4192.026	n/a	RECOG_RESP	2096013	n/a	LTP065	ltpFR	0	5	1	ENGINE	535	1	n/a	0	n/a	n/a	n/a	n/a	n/a
4193.098	n/a	RECOG_CONF	2096549	n/a	LTP065	ltpFR	0	5	1	ENGINE	535	n/a	5	0	n/a	n/a	n/a	n/a	n/a
4194.674	n/a	RECOG_TARGET	2097337	n/a	LTP065	ltpFR	0	5	0	GOWN	652	1	5	1	n/a	n/a	n/a	n/a	n/a
4195.384	n/a	RECOG_RESP	2097692	n/a	LTP065	ltpFR	0	5	0	GOWN	652	1	n/a	1	n/a	n/a	n/a	n/a	n/a
4196.64	n/a	RECOG_CONF	2098320	n/a	LTP065	ltpFR	0	5	0	GOWN	652	n/a	5	1	n/a	n/a	n/a	n/a	n/a
4198.192	n/a	RECOG_TARGET	2099096	n/a	LTP065	ltpFR	0	5	-1	PIPE	1073	1	5	-1	n/a	n/a	n/a	n/a	n/a
4198.786	n/a	RECOG_RESP	2099393	n/a	LTP065	ltpFR	0	5	-1	PIPE	1073	1	n/a	-1	n/a	n/a	n/a	n/a	n/a
4199.908	n/a	RECOG_CONF	2099954	n/a	LTP065	ltpFR	0	5	-1	PIPE	1073	n/a	5	-1	n/a	n/a	n/a	n/a	n/a
4201.292	n/a	RECOG_TARGET	2100646	n/a	LTP065	ltpFR	0	5	0	COP	376	1	1	1	n/a	n/a	n/a	n/a	n/a
4202.08	n/a	RECOG_RESP	2101040	n/a	LTP065	ltpFR	0	5	0	COP	376	1	n/a	1	n/a	n/a	n/a	n/a	n/a
4203.66	n/a	RECOG_CONF	2101830	n/a	LTP065	ltpFR	0	5	0	COP	376	n/a	1	1	n/a	n/a	n/a	n/a	n/a
4205.002	n/a	RECOG_TARGET	2102501	n/a	LTP065	ltpFR	0	5	0	CHEF	290	1	5	1	n/a	n/a	n/a	n/a	n/a
4205.626	n/a	RECOG_RESP	2102813	n/a	LTP065	ltpFR	0	5	0	CHEF	290	1	n/a	1	n/a	n/a	n/a	n/a	n/a
4206.608	n/a	RECOG_CONF	2103304	n/a	LTP065	ltpFR	0	5	0	CHEF	290	n/a	5	1	n/a	n/a	n/a	n/a	n/a
4207.984	n/a	RECOG_LURE	2103992	n/a	LTP065	ltpFR	0	5	n/a	GARDEN	623	0	3	n/a	n/a	n/a	n/a	n/a	n/a
4208.858	n/a	RECOG_RESP	2104429	n/a	LTP065	ltpFR	0	5	n/a	GARDEN	623	0	n/a	n/a	n/a	n/a	n/a	n/a	n/a
4209.812	n/a	RECOG_CONF	2104906	n/a	LTP065	ltpFR	0	5	n/a	GARDEN	623	n/a	3	n/a	n/a	n/a	n/a	n/a	n/a
4211.192	n/a	RECOG_LURE	2105596	n/a	LTP065	ltpFR	0	5	n/a	POWDER	1117	0	5	n/a	n/a	n/a	n/a	n/a	n/a
4212.052	n/a	RECOG_RESP	2106026	n/a	LTP065	ltpFR	0	5	n/a	POWDER	1117	0	n/a	n/a	n/a	n/a	n/a	n/a	n/a
4212.96	n/a	RECOG_CONF	2106480	n/a	LTP065	ltpFR	0	5	n/a	POWDER	1117	n/a	5	n/a	n/a	n/a	n/a	n/a	n/a
4214.324	n/a	RECOG_LURE	2107162	n/a	LTP065	ltpFR	0	5	n/a	BOAT	144	0	2	n/a	n/a	n/a	n/a	n/a	n/a
4215.654	n/a	RECOG_RESP	2107827	n/a	LTP065	ltpFR	0	5	n/a	BOAT	144	0	n/a	n/a	n/a	n/a	n/a	n/a	n/a
4216.7	n/a	RECOG_CONF	2108350	n/a	LTP065	ltpFR	0	5	n/a	BOAT	144	n/a	2	n/a	n/a	n/a	n/a	n/a	n/a
4225.912	n/a	REC_START	2112956	n/a	LTP065	ltpFR	0	6	n/a	n/a	n/a	n/a	n/a	n/a	n/a	n/a	n/a	n/a	n/a
4225.95	n/a	RECOG_TARGET	2112975	n/a	LTP065	ltpFR	0	6	0	CRUTCH	417	1	4	1	n/a	n/a	n/a	n/a	n/a
4226.99	n/a	RECOG_RESP	2113495	n/a	LTP065	ltpFR	0	6	0	CRUTCH	417	1	n/a	1	n/a	n/a	n/a	n/a	n/a
4228.032	n/a	RECOG_CONF	2114016	n/a	LTP065	ltpFR	0	6	0	CRUTCH	417	n/a	4	1	n/a	n/a	n/a	n/a	n/a
4229.532	n/a	RECOG_TARGET	2114766	n/a	LTP065	ltpFR	0	6	0	SURVEY	1414	1	5	0	n/a	n/a	n/a	n/a	n/a
4230.358	n/a	RECOG_RESP	2115179	n/a	LTP065	ltpFR	0	6	0	SURVEY	1414	1	n/a	0	n/a	n/a	n/a	n/a	n/a
4231.39	n/a	RECOG_CONF	2115695	n/a	LTP065	ltpFR	0	6	0	SURVEY	1414	n/a	5	0	n/a	n/a	n/a	n/a	n/a
4232.89	n/a	RECOG_TARGET	2116445	n/a	LTP065	ltpFR	0	6	0	SLEIGH	1325	1	5	1	n/a	n/a	n/a	n/a	n/a
4233.954	n/a	RECOG_RESP	2116977	n/a	LTP065	ltpFR	0	6	0	SLEIGH	1325	1	n/a	1	n/a	n/a	n/a	n/a	n/a
4234.966	n/a	RECOG_CONF	2117483	n/a	LTP065	ltpFR	0	6	0	SLEIGH	1325	n/a	5	1	n/a	n/a	n/a	n/a	n/a
4236.498	n/a	RECOG_TARGET	2118249	n/a	LTP065	ltpFR	0	6	-1	VETERAN	1561	1	5	-1	n/a	n/a	n/a	n/a	n/a
4237.296	n/a	RECOG_RESP	2118648	n/a	LTP065	ltpFR	0	6	-1	VETERAN	1561	1	n/a	-1	n/a	n/a	n/a	n/a	n/a
4238.304	n/a	RECOG_CONF	2119152	n/a	LTP065	ltpFR	0	6	-1	VETERAN	1561	n/a	5	-1	n/a	n/a	n/a	n/a	n/a
4239.774	n/a	RECOG_TARGET	2119887	n/a	LTP065	ltpFR	0	6	-1	WALL	1582	1	4	-1	n/a	n/a	n/a	n/a	n/a
4240.45	n/a	RECOG_RESP	2120225	n/a	LTP065	ltpFR	0	6	-1	WALL	1582	1	n/a	-1	n/a	n/a	n/a	n/a	n/a
4241.492	n/a	RECOG_CONF	2120746	n/a	LTP065	ltpFR	0	6	-1	WALL	1582	n/a	4	-1	n/a	n/a	n/a	n/a	n/a
4242.916	n/a	RECOG_TARGET	2121458	n/a	LTP065	ltpFR	0	6	0	VALVE	1546	1	5	0	n/a	n/a	n/a	n/a	n/a
4243.558	n/a	RECOG_RESP	2121779	n/a	LTP065	ltpFR	0	6	0	VALVE	1546	1	n/a	0	n/a	n/a	n/a	n/a	n/a
4244.666	n/a	RECOG_CONF	2122333	n/a	LTP065	ltpFR	0	6	0	VALVE	1546	n/a	5	0	n/a	n/a	n/a	n/a	n/a
4246.19	n/a	RECOG_TARGET	2123095	n/a	LTP065	ltpFR	0	6	-1	HELICOPTER	701	1	5	-1	n/a	n/a	n/a	n/a	n/a
4246.82	n/a	RECOG_RESP	2123410	n/a	LTP065	ltpFR	0	6	-1	HELICOPTER	701	1	n/a	-1	n/a	n/a	n/a	n/a	n/a
4247.878	n/a	RECOG_CONF	2123939	n/a	LTP065	ltpFR	0	6	-1	HELICOPTER	701	n/a	5	-1	n/a	n/a	n/a	n/a	n/a
4249.348	n/a	RECOG_TARGET	2124674	n/a	LTP065	ltpFR	0	6	0	RIVER	1194	1	5	1	n/a	n/a	n/a	n/a	n/a
4249.99	n/a	RECOG_RESP	2124995	n/a	LTP065	ltpFR	0	6	0	RIVER	1194	1	n/a	1	n/a	n/a	n/a	n/a	n/a
4250.956	n/a	RECOG_CONF	2125478	n/a	LTP065	ltpFR	0	6	0	RIVER	1194	n/a	5	1	n/a	n/a	n/a	n/a	n/a
4252.424	n/a	RECOG_TARGET	2126212	n/a	LTP065	ltpFR	0	6	0	WALNUT	1584	1	5	0	n/a	n/a	n/a	n/a	n/a
4252.992	n/a	RECOG_RESP	2126496	n/a	LTP065	ltpFR	0	6	0	WALNUT	1584	1	n/a	0	n/a	n/a	n/a	n/a	n/a
4253.98	n/a	RECOG_CONF	2126990	n/a	LTP065	ltpFR	0	6	0	WALNUT	1584	n/a	5	0	n/a	n/a	n/a	n/a	n/a
4255.366	n/a	RECOG_TARGET	2127683	n/a	LTP065	ltpFR	0	6	-1	SIGNATURE	1306	1	5	-1	n/a	n/a	n/a	n/a	n/a
4255.9	n/a	RECOG_RESP	2127950	n/a	LTP065	ltpFR	0	6	-1	SIGNATURE	1306	1	n/a	-1	n/a	n/a	n/a	n/a	n/a
4256.892	n/a	RECOG_CONF	2128446	n/a	LTP065	ltpFR	0	6	-1	SIGNATURE	1306	n/a	5	-1	n/a	n/a	n/a	n/a	n/a
4258.264	n/a	RECOG_LURE	2129132	n/a	LTP065	ltpFR	0	6	n/a	RAM	1165	0	4	n/a	n/a	n/a	n/a	n/a	n/a
4259.014	n/a	RECOG_RESP	2129507	n/a	LTP065	ltpFR	0	6	n/a	RAM	1165	0	n/a	n/a	n/a	n/a	n/a	n/a	n/a
4259.896	n/a	RECOG_CONF	2129948	n/a	LTP065	ltpFR	0	6	n/a	RAM	1165	n/a	4	n/a	n/a	n/a	n/a	n/a	n/a
4261.348	n/a	RECOG_TARGET	2130674	n/a	LTP065	ltpFR	0	6	1	RADISH	1158	1	5	1	n/a	n/a	n/a	n/a	n/a
4262.13	n/a	RECOG_RESP	2131065	n/a	LTP065	ltpFR	0	6	1	RADISH	1158	1	n/a	1	n/a	n/a	n/a	n/a	n/a
4263.294	n/a	RECOG_CONF	2131647	n/a	LTP065	ltpFR	0	6	1	RADISH	1158	n/a	5	1	n/a	n/a	n/a	n/a	n/a
4264.832	n/a	RECOG_LURE	2132416	n/a	LTP065	ltpFR	0	6	n/a	THORN	1459	0	5	n/a	n/a	n/a	n/a	n/a	n/a
4265.788	n/a	RECOG_RESP	2132894	n/a	LTP065	ltpFR	0	6	n/a	THORN	1459	0	n/a	n/a	n/a	n/a	n/a	n/a	n/a
4266.742	n/a	RECOG_CONF	2133371	n/a	LTP065	ltpFR	0	6	n/a	THORN	1459	n/a	5	n/a	n/a	n/a	n/a	n/a	n/a
4268.14	n/a	RECOG_LURE	2134070	n/a	LTP065	ltpFR	0	6	n/a	CURB	426	0	5	n/a	n/a	n/a	n/a	n/a	n/a
4268.836	n/a	RECOG_RESP	2134418	n/a	LTP065	ltpFR	0	6	n/a	CURB	426	0	n/a	n/a	n/a	n/a	n/a	n/a	n/a
4269.844	n/a	RECOG_CONF	2134922	n/a	LTP065	ltpFR	0	6	n/a	CURB	426	n/a	5	n/a	n/a	n/a	n/a	n/a	n/a
4271.156	n/a	RECOG_TARGET	2135578	n/a	LTP065	ltpFR	0	6	-1	FRIAR	605	1	5	-1	n/a	n/a	n/a	n/a	n/a
4271.954	n/a	RECOG_RESP	2135977	n/a	LTP065	ltpFR	0	6	-1	FRIAR	605	1	n/a	-1	n/a	n/a	n/a	n/a	n/a
4273.018	n/a	RECOG_CONF	2136509	n/a	LTP065	ltpFR	0	6	-1	FRIAR	605	n/a	5	-1	n/a	n/a	n/a	n/a	n/a
4274.49	n/a	RECOG_TARGET	2137245	n/a	LTP065	ltpFR	0	6	0	PANTS	1010	1	5	0	n/a	n/a	n/a	n/a	n/a
4275.108	n/a	RECOG_RESP	2137554	n/a	LTP065	ltpFR	0	6	0	PANTS	1010	1	n/a	0	n/a	n/a	n/a	n/a	n/a
4276.13	n/a	RECOG_CONF	2138065	n/a	LTP065	ltpFR	0	6	0	PANTS	1010	n/a	5	0	n/a	n/a	n/a	n/a	n/a
4277.532	n/a	RECOG_TARGET	2138766	n/a	LTP065	ltpFR	0	6	0	ROOSTER	1209	1	5	0	n/a	n/a	n/a	n/a	n/a
4278.186	n/a	RECOG_RESP	2139093	n/a	LTP065	ltpFR	0	6	0	ROOSTER	1209	1	n/a	0	n/a	n/a	n/a	n/a	n/a
4279.204	n/a	RECOG_CONF	2139602	n/a	LTP065	ltpFR	0	6	0	ROOSTER	1209	n/a	5	0	n/a	n/a	n/a	n/a	n/a
4281.024	n/a	RECOG_LURE	2140512	n/a	LTP065	ltpFR	0	6	n/a	CUSTARD	429	0	5	n/a	n/a	n/a	n/a	n/a	n/a
4281.748	n/a	RECOG_RESP	2140874	n/a	LTP065	ltpFR	0	6	n/a	CUSTARD	429	0	n/a	n/a	n/a	n/a	n/a	n/a	n/a
4282.666	n/a	RECOG_CONF	2141333	n/a	LTP065	ltpFR	0	6	n/a	CUSTARD	429	n/a	5	n/a	n/a	n/a	n/a	n/a	n/a
4284.132	n/a	RECOG_TARGET	2142066	n/a	LTP065	ltpFR	0	6	0	CLAW	319	1	5	0	n/a	n/a	n/a	n/a	n/a
4284.952	n/a	RECOG_RESP	2142476	n/a	LTP065	ltpFR	0	6	0	CLAW	319	1	n/a	0	n/a	n/a	n/a	n/a	n/a
4285.918	n/a	RECOG_CONF	2142959	n/a	LTP065	ltpFR	0	6	0	CLAW	319	n/a	5	0	n/a	n/a	n/a	n/a	n/a
4287.314	n/a	RECOG_TARGET	2143657	n/a	LTP065	ltpFR	0	6	1	QUAIL	1147	0	2	1	n/a	n/a	n/a	n/a	n/a
4288.204	n/a	RECOG_RESP	2144102	n/a	LTP065	ltpFR	0	6	1	QUAIL	1147	0	n/a	1	n/a	n/a	n/a	n/a	n/a
4289.46	n/a	RECOG_CONF	2144730	n/a	LTP065	ltpFR	0	6	1	QUAIL	1147	n/a	2	1	n/a	n/a	n/a	n/a	n/a
4295.51	n/a	REC_START	2147755	n/a	LTP065	ltpFR	0	7	n/a	n/a	n/a	n/a	n/a	n/a	n/a	n/a	n/a	n/a	n/a
4295.548	n/a	RECOG_TARGET	2147774	n/a	LTP065	ltpFR	0	7	-1	WINDSHIELD	1612	1	5	-1	n/a	n/a	n/a	n/a	n/a
4296.234	n/a	RECOG_RESP	2148117	n/a	LTP065	ltpFR	0	7	-1	WINDSHIELD	1612	1	n/a	-1	n/a	n/a	n/a	n/a	n/a
4297.276	n/a	RECOG_CONF	2148638	n/a	LTP065	ltpFR	0	7	-1	WINDSHIELD	1612	n/a	5	-1	n/a	n/a	n/a	n/a	n/a
4298.58	n/a	RECOG_TARGET	2149290	n/a	LTP065	ltpFR	0	7	-1	CONCRETE	361	1	5	-1	n/a	n/a	n/a	n/a	n/a
4299.222	n/a	RECOG_RESP	2149611	n/a	LTP065	ltpFR	0	7	-1	CONCRETE	361	1	n/a	-1	n/a	n/a	n/a	n/a	n/a
