onset	duration	trial_type	sample	stim_file	subject	experiment	session	trial	item_name	item_num	list	answer	test_x	test_y	test_z
230.87548828125	n/a	SESS_START	472833	n/a	LTP331	ltpFR2	1	n/a	n/a	n/a	n/a	n/a	0	0	0
257.265625	n/a	START	526880	n/a	LTP331	ltpFR2	1	n/a	n/a	n/a	-1	n/a	n/a	n/a	n/a
257.294921875	n/a	PROB	526940	n/a	LTP331	ltpFR2	1	n/a	n/a	n/a	-1	18	4	5	9
259.52783203125	n/a	PROB	531513	n/a	LTP331	ltpFR2	1	n/a	n/a	n/a	-1	9	1	4	4
261.5107421875	n/a	PROB	535574	n/a	LTP331	ltpFR2	1	n/a	n/a	n/a	-1	12	9	2	1
263.94189453125	n/a	PROB	540553	n/a	LTP331	ltpFR2	1	n/a	n/a	n/a	-1	13	9	3	1
265.625	n/a	PROB	544000	n/a	LTP331	ltpFR2	1	n/a	n/a	n/a	-1	20	8	2	9
269.26611328125	n/a	STOP	551457	n/a	LTP331	ltpFR2	1	n/a	n/a	n/a	-1	n/a	n/a	n/a	n/a
326.71142578125	n/a	WORD	669105	wordpools/wasnorm_wordpool_576.txt	LTP331	ltpFR2	1	1	HELMET	702	n/a	n/a	0	0	0
329.2763671875	n/a	WORD	674358	wordpools/wasnorm_wordpool_576.txt	LTP331	ltpFR2	1	1	GAZELLE	628	n/a	n/a	0	0	0
331.84228515625	n/a	WORD	679613	wordpools/wasnorm_wordpool_576.txt	LTP331	ltpFR2	1	1	HERO	706	n/a	n/a	0	0	0
334.29052734375	n/a	WORD	684627	wordpools/wasnorm_wordpool_576.txt	LTP331	ltpFR2	1	1	PILOT	1070	n/a	n/a	0	0	0
336.8564453125	n/a	WORD	689882	wordpools/wasnorm_wordpool_576.txt	LTP331	ltpFR2	1	1	SALT	1229	n/a	n/a	0	0	0
339.6552734375	n/a	WORD	695614	wordpools/wasnorm_wordpool_576.txt	LTP331	ltpFR2	1	1	TRIBE	1505	n/a	n/a	0	0	0
342.08642578125	n/a	WORD	700593	wordpools/wasnorm_wordpool_576.txt	LTP331	ltpFR2	1	1	CHAUFFEUR	283	n/a	n/a	0	0	0
344.76953125	n/a	WORD	706088	wordpools/wasnorm_wordpool_576.txt	LTP331	ltpFR2	1	1	FOX	598	n/a	n/a	0	0	0
347.4501953125	n/a	WORD	711578	wordpools/wasnorm_wordpool_576.txt	LTP331	ltpFR2	1	1	BEAVER	109	n/a	n/a	0	0	0
350.1494140625	n/a	WORD	717106	wordpools/wasnorm_wordpool_576.txt	LTP331	ltpFR2	1	1	GRIZZLY	662	n/a	n/a	0	0	0
352.6494140625	n/a	WORD	722226	wordpools/wasnorm_wordpool_576.txt	LTP331	ltpFR2	1	1	WRENCH	1625	n/a	n/a	0	0	0
355.1962890625	n/a	WORD	727442	wordpools/wasnorm_wordpool_576.txt	LTP331	ltpFR2	1	1	MACHINE	852	n/a	n/a	0	0	0
357.9453125	n/a	WORD	733072	wordpools/wasnorm_wordpool_576.txt	LTP331	ltpFR2	1	1	LEADER	807	n/a	n/a	0	0	0
360.51171875	n/a	WORD	738328	wordpools/wasnorm_wordpool_576.txt	LTP331	ltpFR2	1	1	TOASTER	1472	n/a	n/a	0	0	0
363.07666015625	n/a	WORD	743581	wordpools/wasnorm_wordpool_576.txt	LTP331	ltpFR2	1	1	MUFFIN	929	n/a	n/a	0	0	0
365.8427734375	n/a	WORD	749246	wordpools/wasnorm_wordpool_576.txt	LTP331	ltpFR2	1	1	DONOR	485	n/a	n/a	0	0	0
368.42333984375	n/a	WORD	754531	wordpools/wasnorm_wordpool_576.txt	LTP331	ltpFR2	1	1	DRAGON	492	n/a	n/a	0	0	0
371.23876953125	n/a	WORD	760297	wordpools/wasnorm_wordpool_576.txt	LTP331	ltpFR2	1	1	MISTER	901	n/a	n/a	0	0	0
373.75537109375	n/a	WORD	765451	wordpools/wasnorm_wordpool_576.txt	LTP331	ltpFR2	1	1	MUSTARD	935	n/a	n/a	0	0	0
376.45263671875	n/a	WORD	770975	wordpools/wasnorm_wordpool_576.txt	LTP331	ltpFR2	1	1	BUGGY	188	n/a	n/a	0	0	0
378.91845703125	n/a	WORD	776025	wordpools/wasnorm_wordpool_576.txt	LTP331	ltpFR2	1	1	WORKER	1621	n/a	n/a	0	0	0
381.70166015625	n/a	WORD	781725	wordpools/wasnorm_wordpool_576.txt	LTP331	ltpFR2	1	1	ITEM	746	n/a	n/a	0	0	0
384.16552734375	n/a	WORD	786771	wordpools/wasnorm_wordpool_576.txt	LTP331	ltpFR2	1	1	PEPPER	1047	n/a	n/a	0	0	0
386.99755859375	n/a	WORD	792571	wordpools/wasnorm_wordpool_576.txt	LTP331	ltpFR2	1	1	FOOT	590	n/a	n/a	0	0	0
388.61474609375	n/a	START	795883	n/a	LTP331	ltpFR2	1	n/a	n/a	n/a	1	n/a	n/a	n/a	n/a
389.814453125	n/a	DISTRACTOR	798340	n/a	LTP331	ltpFR2	1	1	n/a	n/a	n/a	n/a	0	0	0
389.83056640625	n/a	PROB	798373	n/a	LTP331	ltpFR2	1	n/a	n/a	n/a	1	19	7	7	5
391.99560546875	n/a	PROB	802807	n/a	LTP331	ltpFR2	1	n/a	n/a	n/a	1	13	5	7	1
393.7958984375	n/a	PROB	806494	n/a	LTP331	ltpFR2	1	n/a	n/a	n/a	1	13	9	2	2
395.52783203125	n/a	PROB	810041	n/a	LTP331	ltpFR2	1	n/a	n/a	n/a	1	11	4	3	4
397.27587890625	n/a	PROB	813621	n/a	LTP331	ltpFR2	1	n/a	n/a	n/a	1	22	8	7	7
399.0087890625	n/a	PROB	817170	n/a	LTP331	ltpFR2	1	n/a	n/a	n/a	1	6	4	1	1
400.3916015625	n/a	PROB	820002	n/a	LTP331	ltpFR2	1	n/a	n/a	n/a	1	17	5	8	4
402.49072265625	n/a	PROB	824301	n/a	LTP331	ltpFR2	1	n/a	n/a	n/a	1	14	6	2	6
404.1728515625	n/a	PROB	827746	n/a	LTP331	ltpFR2	1	n/a	n/a	n/a	1	16	7	5	4
405.9716796875	n/a	PROB	831430	n/a	LTP331	ltpFR2	1	n/a	n/a	n/a	1	18	9	8	1
407.638671875	n/a	PROB	834844	n/a	LTP331	ltpFR2	1	n/a	n/a	n/a	1	14	6	4	4
409.27001953125	n/a	PROB	838185	n/a	LTP331	ltpFR2	1	n/a	n/a	n/a	1	8	3	2	3
411.02001953125	n/a	PROB	841769	n/a	LTP331	ltpFR2	1	n/a	n/a	n/a	1	14	5	5	4
412.29296875	n/a	STOP	844376	n/a	LTP331	ltpFR2	1	n/a	n/a	n/a	1	n/a	n/a	n/a	n/a
414.53564453125	n/a	REC_START	848969	n/a	LTP331	ltpFR2	1	1	n/a	n/a	n/a	n/a	0	0	0
415.64794921875	n/a	REC_WORD	851247	wordpools/wasnorm_wordpool_576.txt	LTP331	ltpFR2	1	1	HELMET	702	n/a	n/a	0	0	0
417.68603515625	n/a	REC_WORD	855421	wordpools/wasnorm_wordpool_576.txt	LTP331	ltpFR2	1	1	GAZELLE	628	n/a	n/a	0	0	0
419.48388671875	n/a	REC_WORD	859103	wordpools/wasnorm_wordpool_576.txt	LTP331	ltpFR2	1	1	HERO	706	n/a	n/a	0	0	0
421.47509765625	n/a	REC_WORD	863181	wordpools/wasnorm_wordpool_576.txt	LTP331	ltpFR2	1	1	PILOT	1070	n/a	n/a	0	0	0
425.10302734375	n/a	REC_WORD	870611	wordpools/wasnorm_wordpool_576.txt	LTP331	ltpFR2	1	1	SALT	1229	n/a	n/a	0	0	0
426.48583984375	n/a	REC_WORD	873443	wordpools/wasnorm_wordpool_576.txt	LTP331	ltpFR2	1	1	TRIBE	1505	n/a	n/a	0	0	0
427.3037109375	n/a	REC_WORD	875118	wordpools/wasnorm_wordpool_576.txt	LTP331	ltpFR2	1	1	CHAUFFEUR	283	n/a	n/a	0	0	0
428.1767578125	n/a	REC_WORD	876906	wordpools/wasnorm_wordpool_576.txt	LTP331	ltpFR2	1	1	FOX	598	n/a	n/a	0	0	0
429.89697265625	n/a	REC_WORD	880429	wordpools/wasnorm_wordpool_576.txt	LTP331	ltpFR2	1	1	BEAVER	109	n/a	n/a	0	0	0
430.798828125	n/a	REC_WORD	882276	wordpools/wasnorm_wordpool_576.txt	LTP331	ltpFR2	1	1	GRIZZLY	662	n/a	n/a	0	0	0
436.56103515625	n/a	REC_WORD	894077	wordpools/wasnorm_wordpool_576.txt	LTP331	ltpFR2	1	1	LEADER	807	n/a	n/a	0	0	0
437.2490234375	n/a	REC_WORD	895486	wordpools/wasnorm_wordpool_576.txt	LTP331	ltpFR2	1	1	TOASTER	1472	n/a	n/a	0	0	0
438.89599609375	n/a	REC_WORD	898859	wordpools/wasnorm_wordpool_576.txt	LTP331	ltpFR2	1	1	DONOR	485	n/a	n/a	0	0	0
439.7412109375	n/a	REC_WORD	900590	wordpools/wasnorm_wordpool_576.txt	LTP331	ltpFR2	1	1	MUFFIN	929	n/a	n/a	0	0	0
442.09423828125	n/a	REC_WORD	905409	wordpools/wasnorm_wordpool_576.txt	LTP331	ltpFR2	1	1	DRAGON	492	n/a	n/a	0	0	0
443.63525390625	n/a	REC_WORD	908565	wordpools/wasnorm_wordpool_576.txt	LTP331	ltpFR2	1	1	MISTER	901	n/a	n/a	0	0	0
444.5322265625	n/a	REC_WORD	910402	wordpools/wasnorm_wordpool_576.txt	LTP331	ltpFR2	1	1	MUSTARD	935	n/a	n/a	0	0	0
445.80419921875	n/a	REC_WORD	913007	wordpools/wasnorm_wordpool_576.txt	LTP331	ltpFR2	1	1	BUGGY	188	n/a	n/a	0	0	0
447.6279296875	n/a	REC_WORD	916742	wordpools/wasnorm_wordpool_576.txt	LTP331	ltpFR2	1	1	WORKER	1621	n/a	n/a	0	0	0
448.8330078125	n/a	REC_WORD	919210	wordpools/wasnorm_wordpool_576.txt	LTP331	ltpFR2	1	1	ITEM	746	n/a	n/a	0	0	0
451.43017578125	n/a	REC_WORD	924529	wordpools/wasnorm_wordpool_576.txt	LTP331	ltpFR2	1	1	PEPPER	1047	n/a	n/a	0	0	0
452.18798828125	n/a	REC_WORD	926081	wordpools/wasnorm_wordpool_576.txt	LTP331	ltpFR2	1	1	FOOT	590	n/a	n/a	0	0	0
504.9736328125	n/a	DISTRACTOR	1034186	n/a	LTP331	ltpFR2	1	2	n/a	n/a	n/a	n/a	0	0	0
504.9736328125	n/a	START	1034186	n/a	LTP331	ltpFR2	1	n/a	n/a	n/a	2	n/a	n/a	n/a	n/a
504.990234375	n/a	PROB	1034220	n/a	LTP331	ltpFR2	1	n/a	n/a	n/a	2	20	5	8	7
507.1552734375	n/a	PROB	1038654	n/a	LTP331	ltpFR2	1	n/a	n/a	n/a	2	16	4	8	4
509.03857421875	n/a	PROB	1042511	n/a	LTP331	ltpFR2	1	n/a	n/a	n/a	2	19	4	6	9
511.28662109375	n/a	PROB	1047115	n/a	LTP331	ltpFR2	1	n/a	n/a	n/a	2	18	3	9	6
513.33544921875	n/a	PROB	1051311	n/a	LTP331	ltpFR2	1	n/a	n/a	n/a	2	14	4	6	4
515.08447265625	n/a	PROB	1054893	n/a	LTP331	ltpFR2	1	n/a	n/a	n/a	2	24	9	7	8
517.08447265625	n/a	PROB	1058989	n/a	LTP331	ltpFR2	1	n/a	n/a	n/a	2	19	9	7	3
521.49853515625	n/a	PROB	1068029	n/a	LTP331	ltpFR2	1	n/a	n/a	n/a	2	13	7	3	3
523.03173828125	n/a	PROB	1071169	n/a	LTP331	ltpFR2	1	n/a	n/a	n/a	2	19	4	7	8
525.16357421875	n/a	PROB	1075535	n/a	LTP331	ltpFR2	1	n/a	n/a	n/a	2	14	5	7	2
527.19580078125	n/a	PROB	1079697	n/a	LTP331	ltpFR2	1	n/a	n/a	n/a	2	10	3	3	4
528.55078125	n/a	STOP	1082472	n/a	LTP331	ltpFR2	1	n/a	n/a	n/a	2	n/a	n/a	n/a	n/a
530.19482421875	n/a	WORD	1085839	wordpools/wasnorm_wordpool_576.txt	LTP331	ltpFR2	1	2	DASHBOARD	441	n/a	n/a	0	0	0
532.82763671875	n/a	WORD	1091231	wordpools/wasnorm_wordpool_576.txt	LTP331	ltpFR2	1	2	STAMP	1370	n/a	n/a	0	0	0
535.474609375	n/a	WORD	1096652	wordpools/wasnorm_wordpool_576.txt	LTP331	ltpFR2	1	2	SHERIFF	1284	n/a	n/a	0	0	0
538.0908203125	n/a	WORD	1102010	wordpools/wasnorm_wordpool_576.txt	LTP331	ltpFR2	1	2	GUARD	667	n/a	n/a	0	0	0
540.65673828125	n/a	WORD	1107265	wordpools/wasnorm_wordpool_576.txt	LTP331	ltpFR2	1	2	VIKING	1565	n/a	n/a	0	0	0
543.40478515625	n/a	WORD	1112893	wordpools/wasnorm_wordpool_576.txt	LTP331	ltpFR2	1	2	FOREST	593	n/a	n/a	0	0	0
546.06982421875	n/a	WORD	1118351	wordpools/wasnorm_wordpool_576.txt	LTP331	ltpFR2	1	2	LUMBER	848	n/a	n/a	0	0	0
548.53662109375	n/a	WORD	1123403	wordpools/wasnorm_wordpool_576.txt	LTP331	ltpFR2	1	2	REPORT	1184	n/a	n/a	0	0	0
551.083984375	n/a	WORD	1128620	wordpools/wasnorm_wordpool_576.txt	LTP331	ltpFR2	1	2	CAMEL	223	n/a	n/a	0	0	0
553.6669921875	n/a	WORD	1133910	wordpools/wasnorm_wordpool_576.txt	LTP331	ltpFR2	1	2	CIGAR	308	n/a	n/a	0	0	0
556.36474609375	n/a	WORD	1139435	wordpools/wasnorm_wordpool_576.txt	LTP331	ltpFR2	1	2	OYSTER	995	n/a	n/a	0	0	0
559.1298828125	n/a	WORD	1145098	wordpools/wasnorm_wordpool_576.txt	LTP331	ltpFR2	1	2	SCALPEL	1243	n/a	n/a	0	0	0
561.77978515625	n/a	WORD	1150525	wordpools/wasnorm_wordpool_576.txt	LTP331	ltpFR2	1	2	BEAKER	104	n/a	n/a	0	0	0
564.4609375	n/a	WORD	1156016	wordpools/wasnorm_wordpool_576.txt	LTP331	ltpFR2	1	2	BUG	187	n/a	n/a	0	0	0
566.94287109375	n/a	WORD	1161099	wordpools/wasnorm_wordpool_576.txt	LTP331	ltpFR2	1	2	BODY	145	n/a	n/a	0	0	0
569.375	n/a	WORD	1166080	wordpools/wasnorm_wordpool_576.txt	LTP331	ltpFR2	1	2	SCALLOP	1242	n/a	n/a	0	0	0
572.041015625	n/a	WORD	1171540	wordpools/wasnorm_wordpool_576.txt	LTP331	ltpFR2	1	2	PERFUME	1049	n/a	n/a	0	0	0
574.7568359375	n/a	WORD	1177102	wordpools/wasnorm_wordpool_576.txt	LTP331	ltpFR2	1	2	STICKER	1382	n/a	n/a	0	0	0
577.57177734375	n/a	WORD	1182867	wordpools/wasnorm_wordpool_576.txt	LTP331	ltpFR2	1	2	ATOM	55	n/a	n/a	0	0	0
580.02001953125	n/a	WORD	1187881	wordpools/wasnorm_wordpool_576.txt	LTP331	ltpFR2	1	2	LUGGAGE	847	n/a	n/a	0	0	0
582.52001953125	n/a	WORD	1193001	wordpools/wasnorm_wordpool_576.txt	LTP331	ltpFR2	1	2	JUDGE	761	n/a	n/a	0	0	0
585.216796875	n/a	WORD	1198524	wordpools/wasnorm_wordpool_576.txt	LTP331	ltpFR2	1	2	ONION	977	n/a	n/a	0	0	0
587.9990234375	n/a	WORD	1204222	wordpools/wasnorm_wordpool_576.txt	LTP331	ltpFR2	1	2	VALVE	1546	n/a	n/a	0	0	0
590.7158203125	n/a	WORD	1209786	wordpools/wasnorm_wordpool_576.txt	LTP331	ltpFR2	1	2	WITNESS	1618	n/a	n/a	0	0	0
592.3310546875	n/a	START	1213094	n/a	LTP331	ltpFR2	1	n/a	n/a	n/a	3	n/a	n/a	n/a	n/a
593.36279296875	n/a	DISTRACTOR	1215207	n/a	LTP331	ltpFR2	1	2	n/a	n/a	n/a	n/a	0	0	0
593.3798828125	n/a	PROB	1215242	n/a	LTP331	ltpFR2	1	n/a	n/a	n/a	3	22	7	9	6
595.89501953125	n/a	PROB	1220393	n/a	LTP331	ltpFR2	1	n/a	n/a	n/a	3	16	4	9	3
597.67919921875	n/a	PROB	1224047	n/a	LTP331	ltpFR2	1	n/a	n/a	n/a	3	19	5	5	9
599.11083984375	n/a	PROB	1226979	n/a	LTP331	ltpFR2	1	n/a	n/a	n/a	3	12	7	3	2
600.44287109375	n/a	PROB	1229707	n/a	LTP331	ltpFR2	1	n/a	n/a	n/a	3	10	2	4	4
602.1259765625	n/a	PROB	1233154	n/a	LTP331	ltpFR2	1	n/a	n/a	n/a	3	19	8	5	8
603.89111328125	n/a	PROB	1236769	n/a	LTP331	ltpFR2	1	n/a	n/a	n/a	3	15	7	6	2
605.7421875	n/a	PROB	1240560	n/a	LTP331	ltpFR2	1	n/a	n/a	n/a	3	20	8	6	6
607.34033203125	n/a	PROB	1243833	n/a	LTP331	ltpFR2	1	n/a	n/a	n/a	3	14	7	6	1
609.1220703125	n/a	PROB	1247482	n/a	LTP331	ltpFR2	1	n/a	n/a	n/a	3	16	8	2	6
610.67236328125	n/a	PROB	1250657	n/a	LTP331	ltpFR2	1	n/a	n/a	n/a	3	12	7	4	1
612.47119140625	n/a	PROB	1254341	n/a	LTP331	ltpFR2	1	n/a	n/a	n/a	3	21	4	8	9
614.85498046875	n/a	STOP	1259223	n/a	LTP331	ltpFR2	1	n/a	n/a	n/a	3	n/a	n/a	n/a	n/a
618.21826171875	n/a	REC_START	1266111	n/a	LTP331	ltpFR2	1	2	n/a	n/a	n/a	n/a	0	0	0
620.59423828125	n/a	REC_WORD	1270977	wordpools/wasnorm_wordpool_576.txt	LTP331	ltpFR2	1	2	SHERIFF	1284	n/a	n/a	0	0	0
621.09912109375	n/a	REC_WORD	1272011	wordpools/wasnorm_wordpool_576.txt	LTP331	ltpFR2	1	2	STAMP	1370	n/a	n/a	0	0	0
621.8271484375	n/a	REC_WORD	1273502	wordpools/wasnorm_wordpool_576.txt	LTP331	ltpFR2	1	2	DASHBOARD	441	n/a	n/a	0	0	0
622.4580078125	n/a	REC_WORD	1274794	wordpools/wasnorm_wordpool_576.txt	LTP331	ltpFR2	1	2	VIKING	1565	n/a	n/a	0	0	0
623.068359375	n/a	REC_WORD	1276044	wordpools/wasnorm_wordpool_576.txt	LTP331	ltpFR2	1	2	FOREST	593	n/a	n/a	0	0	0
623.77197265625	n/a	REC_WORD	1277485	wordpools/wasnorm_wordpool_576.txt	LTP331	ltpFR2	1	2	LUMBER	848	n/a	n/a	0	0	0
626.8984375	n/a	REC_WORD	1283888	wordpools/wasnorm_wordpool_576.txt	LTP331	ltpFR2	1	2	REPORT	1184	n/a	n/a	0	0	0
627.66943359375	n/a	REC_WORD	1285467	wordpools/wasnorm_wordpool_576.txt	LTP331	ltpFR2	1	2	CAMEL	223	n/a	n/a	0	0	0
628.4482421875	n/a	REC_WORD	1287062	wordpools/wasnorm_wordpool_576.txt	LTP331	ltpFR2	1	2	OYSTER	995	n/a	n/a	0	0	0
628.990234375	n/a	REC_WORD	1288172	wordpools/wasnorm_wordpool_576.txt	LTP331	ltpFR2	1	2	SCALLOP	1242	n/a	n/a	0	0	0
629.748046875	n/a	REC_WORD	1289724	wordpools/wasnorm_wordpool_576.txt	LTP331	ltpFR2	1	2	PERFUME	1049	n/a	n/a	0	0	0
631.5791015625	n/a	REC_WORD	1293474	wordpools/wasnorm_wordpool_576.txt	LTP331	ltpFR2	1	2	SCALPEL	1243	n/a	n/a	0	0	0
634.19921875	n/a	REC_WORD	1298840	wordpools/wasnorm_wordpool_576.txt	LTP331	ltpFR2	1	2	BEAKER	104	n/a	n/a	0	0	0
636.59912109375	n/a	REC_WORD	1303755	wordpools/wasnorm_wordpool_576.txt	LTP331	ltpFR2	1	2	CAMEL	223	n/a	n/a	0	0	0
637.09326171875	n/a	REC_WORD	1304767	wordpools/wasnorm_wordpool_576.txt	LTP331	ltpFR2	1	2	CIGAR	308	n/a	n/a	0	0	0
650.4013671875	n/a	REC_WORD	1332022	wordpools/wasnorm_wordpool_576.txt	LTP331	ltpFR2	1	2	ATOM	55	n/a	n/a	0	0	0
650.8603515625	n/a	REC_WORD	1332962	wordpools/wasnorm_wordpool_576.txt	LTP331	ltpFR2	1	2	STICKER	1382	n/a	n/a	0	0	0
651.5732421875	n/a	REC_WORD	1334422	wordpools/wasnorm_wordpool_576.txt	LTP331	ltpFR2	1	2	LUGGAGE	847	n/a	n/a	0	0	0
652.51953125	n/a	REC_WORD	1336360	wordpools/wasnorm_wordpool_576.txt	LTP331	ltpFR2	1	2	JUDGE	761	n/a	n/a	0	0	0
653.0673828125	n/a	REC_WORD	1337482	wordpools/wasnorm_wordpool_576.txt	LTP331	ltpFR2	1	2	ONION	977	n/a	n/a	0	0	0
653.8623046875	n/a	REC_WORD	1339110	wordpools/wasnorm_wordpool_576.txt	LTP331	ltpFR2	1	2	WITNESS	1618	n/a	n/a	0	0	0
655.6396484375	n/a	REC_WORD	1342750	wordpools/wasnorm_wordpool_576.txt	LTP331	ltpFR2	1	2	VALVE	1546	n/a	n/a	0	0	0
708.6748046875	n/a	WORD	1451366	wordpools/wasnorm_wordpool_576.txt	LTP331	ltpFR2	1	3	HANDBAG	684	n/a	n/a	0	0	0
711.171875	n/a	WORD	1456480	wordpools/wasnorm_wordpool_576.txt	LTP331	ltpFR2	1	3	PATIENT	1024	n/a	n/a	0	0	0
713.8056640625	n/a	WORD	1461874	wordpools/wasnorm_wordpool_576.txt	LTP331	ltpFR2	1	3	PLUTO	1092	n/a	n/a	0	0	0
716.302734375	n/a	WORD	1466988	wordpools/wasnorm_wordpool_576.txt	LTP331	ltpFR2	1	3	GROUND	666	n/a	n/a	0	0	0
719.001953125	n/a	WORD	1472516	wordpools/wasnorm_wordpool_576.txt	LTP331	ltpFR2	1	3	PIGMENT	1066	n/a	n/a	0	0	0
721.466796875	n/a	WORD	1477564	wordpools/wasnorm_wordpool_576.txt	LTP331	ltpFR2	1	3	RACKET	1155	n/a	n/a	0	0	0
723.89990234375	n/a	WORD	1482547	wordpools/wasnorm_wordpool_576.txt	LTP331	ltpFR2	1	3	TYPIST	1532	n/a	n/a	0	0	0
726.7158203125	n/a	WORD	1488314	wordpools/wasnorm_wordpool_576.txt	LTP331	ltpFR2	1	3	OFFICE	972	n/a	n/a	0	0	0
729.1640625	n/a	WORD	1493328	wordpools/wasnorm_wordpool_576.txt	LTP331	ltpFR2	1	3	MESSAGE	888	n/a	n/a	0	0	0
731.9619140625	n/a	WORD	1499058	wordpools/wasnorm_wordpool_576.txt	LTP331	ltpFR2	1	3	ATLAS	53	n/a	n/a	0	0	0
734.52880859375	n/a	WORD	1504315	wordpools/wasnorm_wordpool_576.txt	LTP331	ltpFR2	1	3	SUNRISE	1407	n/a	n/a	0	0	0
737.06005859375	n/a	WORD	1509499	wordpools/wasnorm_wordpool_576.txt	LTP331	ltpFR2	1	3	JUNGLE	764	n/a	n/a	0	0	0
739.69287109375	n/a	WORD	1514891	wordpools/wasnorm_wordpool_576.txt	LTP331	ltpFR2	1	3	BROOK	177	n/a	n/a	0	0	0
742.5068359375	n/a	WORD	1520654	wordpools/wasnorm_wordpool_576.txt	LTP331	ltpFR2	1	3	MARINE	869	n/a	n/a	0	0	0
745.1220703125	n/a	WORD	1526010	wordpools/wasnorm_wordpool_576.txt	LTP331	ltpFR2	1	3	CONTRACT	368	n/a	n/a	0	0	0
747.85498046875	n/a	WORD	1531607	wordpools/wasnorm_wordpool_576.txt	LTP331	ltpFR2	1	3	GAVEL	627	n/a	n/a	0	0	0
750.453125	n/a	WORD	1536928	wordpools/wasnorm_wordpool_576.txt	LTP331	ltpFR2	1	3	WOMAN	1620	n/a	n/a	0	0	0
753.21826171875	n/a	WORD	1542591	wordpools/wasnorm_wordpool_576.txt	LTP331	ltpFR2	1	3	YARN	1631	n/a	n/a	0	0	0
755.71826171875	n/a	WORD	1547711	wordpools/wasnorm_wordpool_576.txt	LTP331	ltpFR2	1	3	CRATER	400	n/a	n/a	0	0	0
758.21630859375	n/a	WORD	1552827	wordpools/wasnorm_wordpool_576.txt	LTP331	ltpFR2	1	3	ICEBERG	731	n/a	n/a	0	0	0
760.9482421875	n/a	WORD	1558422	wordpools/wasnorm_wordpool_576.txt	LTP331	ltpFR2	1	3	SILK	1307	n/a	n/a	0	0	0
763.49609375	n/a	WORD	1563640	wordpools/wasnorm_wordpool_576.txt	LTP331	ltpFR2	1	3	JURY	766	n/a	n/a	0	0	0
766.0791015625	n/a	WORD	1568930	wordpools/wasnorm_wordpool_576.txt	LTP331	ltpFR2	1	3	SCARF	1246	n/a	n/a	0	0	0
768.828125	n/a	WORD	1574560	wordpools/wasnorm_wordpool_576.txt	LTP331	ltpFR2	1	3	SWITCH	1422	n/a	n/a	0	0	0
770.443359375	n/a	START	1577868	n/a	LTP331	ltpFR2	1	n/a	n/a	n/a	4	n/a	n/a	n/a	n/a
771.50439453125	n/a	DISTRACTOR	1580041	n/a	LTP331	ltpFR2	1	3	n/a	n/a	n/a	n/a	0	0	0
771.50927734375	n/a	PROB	1580051	n/a	LTP331	ltpFR2	1	n/a	n/a	n/a	4	8	3	1	4
774.00830078125	n/a	PROB	1585169	n/a	LTP331	ltpFR2	1	n/a	n/a	n/a	4	11	3	6	2
775.5419921875	n/a	PROB	1588310	n/a	LTP331	ltpFR2	1	n/a	n/a	n/a	4	11	4	1	6
776.9560546875	n/a	PROB	1591206	n/a	LTP331	ltpFR2	1	n/a	n/a	n/a	4	16	1	7	8
778.607421875	n/a	PROB	1594588	n/a	LTP331	ltpFR2	1	n/a	n/a	n/a	4	16	2	7	7
780.42138671875	n/a	PROB	1598303	n/a	LTP331	ltpFR2	1	n/a	n/a	n/a	4	12	2	5	5
781.8720703125	n/a	PROB	1601274	n/a	LTP331	ltpFR2	1	n/a	n/a	n/a	4	26	9	8	9
783.58837890625	n/a	PROB	1604789	n/a	LTP331	ltpFR2	1	n/a	n/a	n/a	4	18	8	1	9
785.2021484375	n/a	PROB	1608094	n/a	LTP331	ltpFR2	1	n/a	n/a	n/a	4	13	2	3	8
786.66943359375	n/a	PROB	1611099	n/a	LTP331	ltpFR2	1	n/a	n/a	n/a	4	19	7	8	4
788.38427734375	n/a	PROB	1614611	n/a	LTP331	ltpFR2	1	n/a	n/a	n/a	4	13	2	9	2
790.21728515625	n/a	PROB	1618365	n/a	LTP331	ltpFR2	1	n/a	n/a	n/a	4	18	3	8	7
792.3994140625	n/a	PROB	1622834	n/a	LTP331	ltpFR2	1	n/a	n/a	n/a	4	11	3	3	5
793.95947265625	n/a	STOP	1626029	n/a	LTP331	ltpFR2	1	n/a	n/a	n/a	4	n/a	n/a	n/a	n/a
796.28125	n/a	REC_START	1630784	n/a	LTP331	ltpFR2	1	3	n/a	n/a	n/a	n/a	0	0	0
796.46826171875	n/a	REC_WORD	1631167	wordpools/wasnorm_wordpool_576.txt	LTP331	ltpFR2	1	3	SWITCH	1422	n/a	n/a	0	0	0
802.18017578125	n/a	REC_WORD	1642865	wordpools/wasnorm_wordpool_576.txt	LTP331	ltpFR2	1	3	HANDBAG	684	n/a	n/a	0	0	0
802.9892578125	n/a	REC_WORD	1644522	wordpools/wasnorm_wordpool_576.txt	LTP331	ltpFR2	1	3	PATIENT	1024	n/a	n/a	0	0	0
803.7314453125	n/a	REC_WORD	1646042	wordpools/wasnorm_wordpool_576.txt	LTP331	ltpFR2	1	3	PLUTO	1092	n/a	n/a	0	0	0
804.3583984375	n/a	REC_WORD	1647326	wordpools/wasnorm_wordpool_576.txt	LTP331	ltpFR2	1	3	GROUND	666	n/a	n/a	0	0	0
805.0634765625	n/a	REC_WORD	1648770	wordpools/wasnorm_wordpool_576.txt	LTP331	ltpFR2	1	3	PIGMENT	1066	n/a	n/a	0	0	0
806.53955078125	n/a	REC_WORD	1651793	wordpools/wasnorm_wordpool_576.txt	LTP331	ltpFR2	1	3	RACKET	1155	n/a	n/a	0	0	0
807.2265625	n/a	REC_WORD	1653200	wordpools/wasnorm_wordpool_576.txt	LTP331	ltpFR2	1	3	MESSAGE	888	n/a	n/a	0	0	0
809.37841796875	n/a	REC_WORD	1657607	wordpools/wasnorm_wordpool_576.txt	LTP331	ltpFR2	1	3	TYPIST	1532	n/a	n/a	0	0	0
811.734375	n/a	REC_WORD	1662432	wordpools/wasnorm_wordpool_576.txt	LTP331	ltpFR2	1	3	OFFICE	972	n/a	n/a	0	0	0
812.59228515625	n/a	REC_WORD	1664189	wordpools/wasnorm_wordpool_576.txt	LTP331	ltpFR2	1	3	ATLAS	53	n/a	n/a	0	0	0
818.2734375	n/a	REC_WORD	1675824	wordpools/wasnorm_wordpool_576.txt	LTP331	ltpFR2	1	3	YARN	1631	n/a	n/a	0	0	0
818.92431640625	n/a	REC_WORD	1677157	wordpools/wasnorm_wordpool_576.txt	LTP331	ltpFR2	1	3	CRATER	400	n/a	n/a	0	0	0
820.12646484375	n/a	REC_WORD	1679619	wordpools/wasnorm_wordpool_576.txt	LTP331	ltpFR2	1	3	ICEBERG	731	n/a	n/a	0	0	0
820.8076171875	n/a	REC_WORD	1681014	wordpools/wasnorm_wordpool_576.txt	LTP331	ltpFR2	1	3	SILK	1307	n/a	n/a	0	0	0
821.7197265625	n/a	REC_WORD	1682882	wordpools/wasnorm_wordpool_576.txt	LTP331	ltpFR2	1	3	JURY	766	n/a	n/a	0	0	0
822.30859375	n/a	REC_WORD	1684088	wordpools/wasnorm_wordpool_576.txt	LTP331	ltpFR2	1	3	SCARF	1246	n/a	n/a	0	0	0
824.54833984375	n/a	REC_WORD	1688675	wordpools/wasnorm_wordpool_576.txt	LTP331	ltpFR2	1	3	SCARF	1246	n/a	n/a	0	0	0
828.3505859375	n/a	REC_WORD	1696462	wordpools/wasnorm_wordpool_576.txt	LTP331	ltpFR2	1	3	SWITCH	1422	n/a	n/a	0	0	0
832.87646484375	n/a	REC_WORD	1705731	wordpools/wasnorm_wordpool_576.txt	LTP331	ltpFR2	1	3	JUDGE	761	n/a	n/a	0	0	0
838.54443359375	n/a	REC_WORD	1717339	wordpools/wasnorm_wordpool_576.txt	LTP331	ltpFR2	1	3	GAVEL	627	n/a	n/a	0	0	0
839.2607421875	n/a	REC_WORD	1718806	wordpools/wasnorm_wordpool_576.txt	LTP331	ltpFR2	1	3	CONTRACT	368	n/a	n/a	0	0	0
841.82177734375	n/a	REC_WORD	1724051	wordpools/wasnorm_wordpool_576.txt	LTP331	ltpFR2	1	3	WOMAN	1620	n/a	n/a	0	0	0
842.9814453125	n/a	REC_WORD	1726426	wordpools/wasnorm_wordpool_576.txt	LTP331	ltpFR2	1	3	BROOK	177	n/a	n/a	0	0	0
843.79150390625	n/a	REC_WORD	1728085	wordpools/wasnorm_wordpool_576.txt	LTP331	ltpFR2	1	3	MARINE	869	n/a	n/a	0	0	0
844.98583984375	n/a	REC_WORD	1730531	wordpools/wasnorm_wordpool_576.txt	LTP331	ltpFR2	1	3	JUNGLE	764	n/a	n/a	0	0	0
845.5908203125	n/a	REC_WORD	1731770	wordpools/wasnorm_wordpool_576.txt	LTP331	ltpFR2	1	3	SUNRISE	1407	n/a	n/a	0	0	0
886.75390625	n/a	WORD	1816072	wordpools/wasnorm_wordpool_576.txt	LTP331	ltpFR2	1	4	STOVE	1388	n/a	n/a	0	0	0
889.48486328125	n/a	WORD	1821665	wordpools/wasnorm_wordpool_576.txt	LTP331	ltpFR2	1	4	VELVET	1555	n/a	n/a	0	0	0
891.93408203125	n/a	WORD	1826681	wordpools/wasnorm_wordpool_576.txt	LTP331	ltpFR2	1	4	COIN	343	n/a	n/a	0	0	0
894.43212890625	n/a	WORD	1831797	wordpools/wasnorm_wordpool_576.txt	LTP331	ltpFR2	1	4	RECEIPT	1173	n/a	n/a	0	0	0
896.8662109375	n/a	WORD	1836782	wordpools/wasnorm_wordpool_576.txt	LTP331	ltpFR2	1	4	GUITAR	670	n/a	n/a	0	0	0
899.5478515625	n/a	WORD	1842274	wordpools/wasnorm_wordpool_576.txt	LTP331	ltpFR2	1	4	GARDEN	623	n/a	n/a	0	0	0
902.36181640625	n/a	WORD	1848037	wordpools/wasnorm_wordpool_576.txt	LTP331	ltpFR2	1	4	CLIMBER	323	n/a	n/a	0	0	0
904.97705078125	n/a	WORD	1853393	wordpools/wasnorm_wordpool_576.txt	LTP331	ltpFR2	1	4	THIEF	1456	n/a	n/a	0	0	0
907.42626953125	n/a	WORD	1858409	wordpools/wasnorm_wordpool_576.txt	LTP331	ltpFR2	1	4	SKILLET	1317	n/a	n/a	0	0	0
910.125	n/a	WORD	1863936	wordpools/wasnorm_wordpool_576.txt	LTP331	ltpFR2	1	4	ZEBRA	1635	n/a	n/a	0	0	0
912.7412109375	n/a	WORD	1869294	wordpools/wasnorm_wordpool_576.txt	LTP331	ltpFR2	1	4	ACTOR	5	n/a	n/a	0	0	0
915.22216796875	n/a	WORD	1874375	wordpools/wasnorm_wordpool_576.txt	LTP331	ltpFR2	1	4	OUTLAW	989	n/a	n/a	0	0	0
917.837890625	n/a	WORD	1879732	wordpools/wasnorm_wordpool_576.txt	LTP331	ltpFR2	1	4	INFANT	737	n/a	n/a	0	0	0
920.654296875	n/a	WORD	1885500	wordpools/wasnorm_wordpool_576.txt	LTP331	ltpFR2	1	4	XEROX	1628	n/a	n/a	0	0	0
923.451171875	n/a	WORD	1891228	wordpools/wasnorm_wordpool_576.txt	LTP331	ltpFR2	1	4	FRUIT	610	n/a	n/a	0	0	0
926.2001953125	n/a	WORD	1896858	wordpools/wasnorm_wordpool_576.txt	LTP331	ltpFR2	1	4	HIKER	708	n/a	n/a	0	0	0
928.63330078125	n/a	WORD	1901841	wordpools/wasnorm_wordpool_576.txt	LTP331	ltpFR2	1	4	CHAMPAGNE	278	n/a	n/a	0	0	0
931.4140625	n/a	WORD	1907536	wordpools/wasnorm_wordpool_576.txt	LTP331	ltpFR2	1	4	COSTUME	383	n/a	n/a	0	0	0
934.09619140625	n/a	WORD	1913029	wordpools/wasnorm_wordpool_576.txt	LTP331	ltpFR2	1	4	KNIFE	785	n/a	n/a	0	0	0
936.59619140625	n/a	WORD	1918149	wordpools/wasnorm_wordpool_576.txt	LTP331	ltpFR2	1	4	BUTCHER	203	n/a	n/a	0	0	0
939.3271484375	n/a	WORD	1923742	wordpools/wasnorm_wordpool_576.txt	LTP331	ltpFR2	1	4	AWARD	63	n/a	n/a	0	0	0
941.9921875	n/a	WORD	1929200	wordpools/wasnorm_wordpool_576.txt	LTP331	ltpFR2	1	4	DONKEY	484	n/a	n/a	0	0	0
944.59228515625	n/a	WORD	1934525	wordpools/wasnorm_wordpool_576.txt	LTP331	ltpFR2	1	4	BLENDER	136	n/a	n/a	0	0	0
947.40625	n/a	WORD	1940288	wordpools/wasnorm_wordpool_576.txt	LTP331	ltpFR2	1	4	BACKBONE	66	n/a	n/a	0	0	0
949.0224609375	n/a	START	1943598	n/a	LTP331	ltpFR2	1	n/a	n/a	n/a	5	n/a	n/a	n/a	n/a
950.146484375	n/a	DISTRACTOR	1945900	n/a	LTP331	ltpFR2	1	4	n/a	n/a	n/a	n/a	0	0	0
950.1552734375	n/a	PROB	1945918	n/a	LTP331	ltpFR2	1	n/a	n/a	n/a	5	18	6	8	4
952.45458984375	n/a	PROB	1950627	n/a	LTP331	ltpFR2	1	n/a	n/a	n/a	5	14	5	7	1
954.38623046875	n/a	PROB	1954583	n/a	LTP331	ltpFR2	1	n/a	n/a	n/a	5	26	9	9	8
956.119140625	n/a	PROB	1958132	n/a	LTP331	ltpFR2	1	n/a	n/a	n/a	5	18	8	9	1
957.86962890625	n/a	PROB	1961717	n/a	LTP331	ltpFR2	1	n/a	n/a	n/a	5	11	2	1	8
959.63427734375	n/a	PROB	1965331	n/a	LTP331	ltpFR2	1	n/a	n/a	n/a	5	15	3	7	5
961.8671875	n/a	PROB	1969904	n/a	LTP331	ltpFR2	1	n/a	n/a	n/a	5	15	7	4	4
963.3486328125	n/a	PROB	1972938	n/a	LTP331	ltpFR2	1	n/a	n/a	n/a	5	14	7	6	1
964.931640625	n/a	PROB	1976180	n/a	LTP331	ltpFR2	1	n/a	n/a	n/a	5	18	8	7	3
967.08056640625	n/a	PROB	1980581	n/a	LTP331	ltpFR2	1	n/a	n/a	n/a	5	18	6	8	4
968.9296875	n/a	PROB	1984368	n/a	LTP331	ltpFR2	1	n/a	n/a	n/a	5	11	4	6	1
970.2783203125	n/a	PROB	1987130	n/a	LTP331	ltpFR2	1	n/a	n/a	n/a	5	15	2	7	6
971.67333984375	n/a	STOP	1989987	n/a	LTP331	ltpFR2	1	n/a	n/a	n/a	5	n/a	n/a	n/a	n/a
974.79541015625	n/a	REC_START	1996381	n/a	LTP331	ltpFR2	1	4	n/a	n/a	n/a	n/a	0	0	0
977.21142578125	n/a	REC_WORD	2001329	wordpools/wasnorm_wordpool_576.txt	LTP331	ltpFR2	1	4	VELVET	1555	n/a	n/a	0	0	0
977.96875	n/a	REC_WORD	2002880	wordpools/wasnorm_wordpool_576.txt	LTP331	ltpFR2	1	4	STOVE	1388	n/a	n/a	0	0	0
981.015625	n/a	REC_WORD	2009120	wordpools/wasnorm_wordpool_576.txt	LTP331	ltpFR2	1	4	COIN	343	n/a	n/a	0	0	0
981.40966796875	n/a	REC_WORD	2009927	wordpools/wasnorm_wordpool_576.txt	LTP331	ltpFR2	1	4	RECEIPT	1173	n/a	n/a	0	0	0
981.978515625	n/a	REC_WORD	2011092	wordpools/wasnorm_wordpool_576.txt	LTP331	ltpFR2	1	4	GUITAR	670	n/a	n/a	0	0	0
985.04248046875	n/a	REC_WORD	2017367	wordpools/wasnorm_wordpool_576.txt	LTP331	ltpFR2	1	4	THIEF	1456	n/a	n/a	0	0	0
985.5546875	n/a	REC_WORD	2018416	wordpools/wasnorm_wordpool_576.txt	LTP331	ltpFR2	1	4	CLIMBER	323	n/a	n/a	0	0	0
986.6884765625	n/a	REC_WORD	2020738	wordpools/wasnorm_wordpool_576.txt	LTP331	ltpFR2	1	4	GARDEN	623	n/a	n/a	0	0	0
988.00244140625	n/a	REC_WORD	2023429	wordpools/wasnorm_wordpool_576.txt	LTP331	ltpFR2	1	4	ZEBRA	1635	n/a	n/a	0	0	0
988.47265625	n/a	REC_WORD	2024392	wordpools/wasnorm_wordpool_576.txt	LTP331	ltpFR2	1	4	SKILLET	1317	n/a	n/a	0	0	0
991.28271484375	n/a	REC_WORD	2030147	wordpools/wasnorm_wordpool_576.txt	LTP331	ltpFR2	1	4	ANCHOR	21	n/a	n/a	0	0	0
993.20361328125	n/a	REC_WORD	2034081	wordpools/wasnorm_wordpool_576.txt	LTP331	ltpFR2	1	4	OUTLAW	989	n/a	n/a	0	0	0
993.74072265625	n/a	REC_WORD	2035181	wordpools/wasnorm_wordpool_576.txt	LTP331	ltpFR2	1	4	INFANT	737	n/a	n/a	0	0	0
995.57861328125	n/a	REC_WORD	2038945	wordpools/wasnorm_wordpool_576.txt	LTP331	ltpFR2	1	4	XEROX	1628	n/a	n/a	0	0	0
998.37255859375	n/a	REC_WORD	2044667	wordpools/wasnorm_wordpool_576.txt	LTP331	ltpFR2	1	4	FRUIT	610	n/a	n/a	0	0	0
999.15380859375	n/a	REC_WORD	2046267	wordpools/wasnorm_wordpool_576.txt	LTP331	ltpFR2	1	4	CLIMBER	323	n/a	n/a	0	0	0
1006.4736328125	n/a	REC_WORD	2061258	wordpools/wasnorm_wordpool_576.txt	LTP331	ltpFR2	1	4	HIKER	708	n/a	n/a	0	0	0
1013.80859375	n/a	REC_WORD	2076280	wordpools/wasnorm_wordpool_576.txt	LTP331	ltpFR2	1	4	CHAMPAGNE	278	n/a	n/a	0	0	0
1014.60986328125	n/a	REC_WORD	2077921	wordpools/wasnorm_wordpool_576.txt	LTP331	ltpFR2	1	4	COSTUME	383	n/a	n/a	0	0	0
1015.3388671875	n/a	REC_WORD	2079414	wordpools/wasnorm_wordpool_576.txt	LTP331	ltpFR2	1	4	BUTCHER	203	n/a	n/a	0	0	0
1015.82861328125	n/a	REC_WORD	2080417	wordpools/wasnorm_wordpool_576.txt	LTP331	ltpFR2	1	4	KNIFE	785	n/a	n/a	0	0	0
1018.56982421875	n/a	REC_WORD	2086031	wordpools/wasnorm_wordpool_576.txt	LTP331	ltpFR2	1	4	AWARD	63	n/a	n/a	0	0	0
1021.0087890625	n/a	REC_WORD	2091026	wordpools/wasnorm_wordpool_576.txt	LTP331	ltpFR2	1	4	DONKEY	484	n/a	n/a	0	0	0
1021.73291015625	n/a	REC_WORD	2092509	wordpools/wasnorm_wordpool_576.txt	LTP331	ltpFR2	1	4	BACKBONE	66	n/a	n/a	0	0	0
1022.5556640625	n/a	REC_WORD	2094194	wordpools/wasnorm_wordpool_576.txt	LTP331	ltpFR2	1	4	BLENDER	136	n/a	n/a	0	0	0
1065.2490234375	n/a	WORD	2181630	wordpools/wasnorm_wordpool_576.txt	LTP331	ltpFR2	1	5	TRANSPLANT	1496	n/a	n/a	0	0	0
1067.7822265625	n/a	WORD	2186818	wordpools/wasnorm_wordpool_576.txt	LTP331	ltpFR2	1	5	SHORTS	1293	n/a	n/a	0	0	0
1070.4130859375	n/a	WORD	2192206	wordpools/wasnorm_wordpool_576.txt	LTP331	ltpFR2	1	5	EYELASH	546	n/a	n/a	0	0	0
1073.09521484375	n/a	WORD	2197699	wordpools/wasnorm_wordpool_576.txt	LTP331	ltpFR2	1	5	SWAMP	1416	n/a	n/a	0	0	0
1075.7783203125	n/a	WORD	2203194	wordpools/wasnorm_wordpool_576.txt	LTP331	ltpFR2	1	5	NECKLACE	940	n/a	n/a	0	0	0
1078.25927734375	n/a	WORD	2208275	wordpools/wasnorm_wordpool_576.txt	LTP331	ltpFR2	1	5	SAUSAGE	1238	n/a	n/a	0	0	0
1080.89111328125	n/a	WORD	2213665	wordpools/wasnorm_wordpool_576.txt	LTP331	ltpFR2	1	5	ORCHID	982	n/a	n/a	0	0	0
1083.5244140625	n/a	WORD	2219058	wordpools/wasnorm_wordpool_576.txt	LTP331	ltpFR2	1	5	PORK	1108	n/a	n/a	0	0	0
1086.18798828125	n/a	WORD	2224513	wordpools/wasnorm_wordpool_576.txt	LTP331	ltpFR2	1	5	GOBLIN	645	n/a	n/a	0	0	0
1088.8212890625	n/a	WORD	2229906	wordpools/wasnorm_wordpool_576.txt	LTP331	ltpFR2	1	5	COLLEGE	346	n/a	n/a	0	0	0
1091.486328125	n/a	WORD	2235364	wordpools/wasnorm_wordpool_576.txt	LTP331	ltpFR2	1	5	SHELF	1280	n/a	n/a	0	0	0
1094.0341796875	n/a	WORD	2240582	wordpools/wasnorm_wordpool_576.txt	LTP331	ltpFR2	1	5	PASSAGE	1019	n/a	n/a	0	0	0
1096.83447265625	n/a	WORD	2246317	wordpools/wasnorm_wordpool_576.txt	LTP331	ltpFR2	1	5	MARSH	874	n/a	n/a	0	0	0
1099.63330078125	n/a	WORD	2252049	wordpools/wasnorm_wordpool_576.txt	LTP331	ltpFR2	1	5	GREASE	660	n/a	n/a	0	0	0
1102.33056640625	n/a	WORD	2257573	wordpools/wasnorm_wordpool_576.txt	LTP331	ltpFR2	1	5	PARSLEY	1016	n/a	n/a	0	0	0
1105.01220703125	n/a	WORD	2263065	wordpools/wasnorm_wordpool_576.txt	LTP331	ltpFR2	1	5	MEAT	883	n/a	n/a	0	0	0
1107.57958984375	n/a	WORD	2268323	wordpools/wasnorm_wordpool_576.txt	LTP331	ltpFR2	1	5	BEEF	113	n/a	n/a	0	0	0
1110.1435546875	n/a	WORD	2273574	wordpools/wasnorm_wordpool_576.txt	LTP331	ltpFR2	1	5	BACON	67	n/a	n/a	0	0	0
1112.859375	n/a	WORD	2279136	wordpools/wasnorm_wordpool_576.txt	LTP331	ltpFR2	1	5	BLUEPRINT	142	n/a	n/a	0	0	0
1115.62548828125	n/a	WORD	2284801	wordpools/wasnorm_wordpool_576.txt	LTP331	ltpFR2	1	5	LOFT	840	n/a	n/a	0	0	0
1118.072265625	n/a	WORD	2289812	wordpools/wasnorm_wordpool_576.txt	LTP331	ltpFR2	1	5	PRINCE	1124	n/a	n/a	0	0	0
1120.92138671875	n/a	WORD	2295647	wordpools/wasnorm_wordpool_576.txt	LTP331	ltpFR2	1	5	WASP	1593	n/a	n/a	0	0	0
1123.654296875	n/a	WORD	2301244	wordpools/wasnorm_wordpool_576.txt	LTP331	ltpFR2	1	5	CANAL	226	n/a	n/a	0	0	0
1126.318359375	n/a	WORD	2306700	wordpools/wasnorm_wordpool_576.txt	LTP331	ltpFR2	1	5	KITCHEN	778	n/a	n/a	0	0	0
1127.9345703125	n/a	START	2310010	n/a	LTP331	ltpFR2	1	n/a	n/a	n/a	6	n/a	n/a	n/a	n/a
1129.09130859375	n/a	DISTRACTOR	2312379	n/a	LTP331	ltpFR2	1	5	n/a	n/a	n/a	n/a	0	0	0
1129.1005859375	n/a	PROB	2312398	n/a	LTP331	ltpFR2	1	n/a	n/a	n/a	6	18	9	2	7
1131.3994140625	n/a	PROB	2317106	n/a	LTP331	ltpFR2	1	n/a	n/a	n/a	6	19	4	7	8
1133.6494140625	n/a	PROB	2321714	n/a	LTP331	ltpFR2	1	n/a	n/a	n/a	6	11	2	6	3
1135.38037109375	n/a	PROB	2325259	n/a	LTP331	ltpFR2	1	n/a	n/a	n/a	6	22	9	6	7
1138.396484375	n/a	PROB	2331436	n/a	LTP331	ltpFR2	1	n/a	n/a	n/a	6	18	5	7	6
1140.37841796875	n/a	PROB	2335495	n/a	LTP331	ltpFR2	1	n/a	n/a	n/a	6	12	1	5	6
1141.74560546875	n/a	PROB	2338295	n/a	LTP331	ltpFR2	1	n/a	n/a	n/a	6	14	2	5	7
1143.21044921875	n/a	PROB	2341295	n/a	LTP331	ltpFR2	1	n/a	n/a	n/a	6	17	5	8	4
1145.82666015625	n/a	PROB	2346653	n/a	LTP331	ltpFR2	1	n/a	n/a	n/a	6	15	7	4	4
1147.67578125	n/a	PROB	2350440	n/a	LTP331	ltpFR2	1	n/a	n/a	n/a	6	5	3	1	1
1148.890625	n/a	PROB	2352928	n/a	LTP331	ltpFR2	1	n/a	n/a	n/a	6	24	9	6	9
1150.7548828125	n/a	STOP	2356746	n/a	LTP331	ltpFR2	1	n/a	n/a	n/a	6	n/a	n/a	n/a	n/a
1153.806640625	n/a	REC_START	2362996	n/a	LTP331	ltpFR2	1	5	n/a	n/a	n/a	n/a	0	0	0
1157.69091796875	n/a	REC_WORD	2370951	wordpools/wasnorm_wordpool_576.txt	LTP331	ltpFR2	1	5	TRANSPLANT	1496	n/a	n/a	0	0	0
1160.27978515625	n/a	REC_WORD	2376253	wordpools/wasnorm_wordpool_576.txt	LTP331	ltpFR2	1	5	SHORTS	1293	n/a	n/a	0	0	0
1161.37451171875	n/a	REC_WORD	2378495	wordpools/wasnorm_wordpool_576.txt	LTP331	ltpFR2	1	5	EYELASH	546	n/a	n/a	0	0	0
1164.9365234375	n/a	REC_WORD	2385790	wordpools/wasnorm_wordpool_576.txt	LTP331	ltpFR2	1	5	SWAMP	1416	n/a	n/a	0	0	0
1165.64892578125	n/a	REC_WORD	2387249	wordpools/wasnorm_wordpool_576.txt	LTP331	ltpFR2	1	5	NECKLACE	940	n/a	n/a	0	0	0
1166.3115234375	n/a	REC_WORD	2388606	wordpools/wasnorm_wordpool_576.txt	LTP331	ltpFR2	1	5	SAUSAGE	1238	n/a	n/a	0	0	0
1167.2939453125	n/a	REC_WORD	2390618	wordpools/wasnorm_wordpool_576.txt	LTP331	ltpFR2	1	5	ORCHID	982	n/a	n/a	0	0	0
1175.30859375	n/a	REC_WORD	2407032	wordpools/wasnorm_wordpool_576.txt	LTP331	ltpFR2	1	5	PORK	1108	n/a	n/a	0	0	0
1176.86376953125	n/a	REC_WORD	2410217	wordpools/wasnorm_wordpool_576.txt	LTP331	ltpFR2	1	5	GOBLIN	645	n/a	n/a	0	0	0
1179.47900390625	n/a	REC_WORD	2415573	wordpools/wasnorm_wordpool_576.txt	LTP331	ltpFR2	1	5	COLLEGE	346	n/a	n/a	0	0	0
1181.4140625	n/a	REC_WORD	2419536	wordpools/wasnorm_wordpool_576.txt	LTP331	ltpFR2	1	5	BEEF	113	n/a	n/a	0	0	0
1184.3310546875	n/a	REC_WORD	2425510	wordpools/wasnorm_wordpool_576.txt	LTP331	ltpFR2	1	5	BACON	67	n/a	n/a	0	0	0
1185.39990234375	n/a	REC_WORD	2427699	wordpools/wasnorm_wordpool_576.txt	LTP331	ltpFR2	1	5	MEAT	883	n/a	n/a	0	0	0
1188.51806640625	n/a	REC_WORD	2434085	wordpools/wasnorm_wordpool_576.txt	LTP331	ltpFR2	1	5	PASSAGE	1019	n/a	n/a	0	0	0
1191.333984375	n/a	REC_WORD	2439852	wordpools/wasnorm_wordpool_576.txt	LTP331	ltpFR2	1	5	MARSH	874	n/a	n/a	0	0	0
1193.009765625	n/a	REC_WORD	2443284	wordpools/wasnorm_wordpool_576.txt	LTP331	ltpFR2	1	5	GREASE	660	n/a	n/a	0	0	0
1198.2080078125	n/a	REC_WORD	2453930	wordpools/wasnorm_wordpool_576.txt	LTP331	ltpFR2	1	5	BLUEPRINT	142	n/a	n/a	0	0	0
1201.427734375	n/a	REC_WORD	2460524	wordpools/wasnorm_wordpool_576.txt	LTP331	ltpFR2	1	5	LOFT	840	n/a	n/a	0	0	0
1202.65576171875	n/a	REC_WORD	2463039	wordpools/wasnorm_wordpool_576.txt	LTP331	ltpFR2	1	5	PRINCE	1124	n/a	n/a	0	0	0
1203.44482421875	n/a	REC_WORD	2464655	wordpools/wasnorm_wordpool_576.txt	LTP331	ltpFR2	1	5	KITCHEN	778	n/a	n/a	0	0	0
1205.33984375	n/a	REC_WORD	2468536	wordpools/wasnorm_wordpool_576.txt	LTP331	ltpFR2	1	5	WASP	1593	n/a	n/a	0	0	0
1218.43994140625	n/a	REC_WORD	2495365	wordpools/wasnorm_wordpool_576.txt	LTP331	ltpFR2	1	5	SHELF	1280	n/a	n/a	0	0	0
1244.27734375	n/a	WORD	2548280	wordpools/wasnorm_wordpool_576.txt	LTP331	ltpFR2	1	6	ASIA	46	n/a	n/a	0	0	0
1246.943359375	n/a	WORD	2553740	wordpools/wasnorm_wordpool_576.txt	LTP331	ltpFR2	1	6	CYCLONE	431	n/a	n/a	0	0	0
1249.44140625	n/a	WORD	2558856	wordpools/wasnorm_wordpool_576.txt	LTP331	ltpFR2	1	6	PEACH	1031	n/a	n/a	0	0	0
1251.97314453125	n/a	WORD	2564041	wordpools/wasnorm_wordpool_576.txt	LTP331	ltpFR2	1	6	MISSILE	900	n/a	n/a	0	0	0
1254.67333984375	n/a	WORD	2569571	wordpools/wasnorm_wordpool_576.txt	LTP331	ltpFR2	1	6	JUGGLER	763	n/a	n/a	0	0	0
1257.38720703125	n/a	WORD	2575129	wordpools/wasnorm_wordpool_576.txt	LTP331	ltpFR2	1	6	WORLD	1622	n/a	n/a	0	0	0
1260.119140625	n/a	WORD	2580724	wordpools/wasnorm_wordpool_576.txt	LTP331	ltpFR2	1	6	SHIRT	1287	n/a	n/a	0	0	0
1262.5693359375	n/a	WORD	2585742	wordpools/wasnorm_wordpool_576.txt	LTP331	ltpFR2	1	6	GYMNAST	675	n/a	n/a	0	0	0
1265.150390625	n/a	WORD	2591028	wordpools/wasnorm_wordpool_576.txt	LTP331	ltpFR2	1	6	MEDAL	885	n/a	n/a	0	0	0
1267.6171875	n/a	WORD	2596080	wordpools/wasnorm_wordpool_576.txt	LTP331	ltpFR2	1	6	VICTIM	1562	n/a	n/a	0	0	0
1270.41455078125	n/a	WORD	2601809	wordpools/wasnorm_wordpool_576.txt	LTP331	ltpFR2	1	6	SPONGE	1355	n/a	n/a	0	0	0
1272.896484375	n/a	WORD	2606892	wordpools/wasnorm_wordpool_576.txt	LTP331	ltpFR2	1	6	LIZARD	834	n/a	n/a	0	0	0
1275.3623046875	n/a	WORD	2611942	wordpools/wasnorm_wordpool_576.txt	LTP331	ltpFR2	1	6	LIGHTNING	820	n/a	n/a	0	0	0
1278.12744140625	n/a	WORD	2617605	wordpools/wasnorm_wordpool_576.txt	LTP331	ltpFR2	1	6	RAFT	1159	n/a	n/a	0	0	0
1280.810546875	n/a	WORD	2623100	wordpools/wasnorm_wordpool_576.txt	LTP331	ltpFR2	1	6	BATHTUB	100	n/a	n/a	0	0	0
1283.25830078125	n/a	WORD	2628113	wordpools/wasnorm_wordpool_576.txt	LTP331	ltpFR2	1	6	REBEL	1172	n/a	n/a	0	0	0
1285.80859375	n/a	WORD	2633336	wordpools/wasnorm_wordpool_576.txt	LTP331	ltpFR2	1	6	CROSS	413	n/a	n/a	0	0	0
1288.3896484375	n/a	WORD	2638622	wordpools/wasnorm_wordpool_576.txt	LTP331	ltpFR2	1	6	STREAM	1392	n/a	n/a	0	0	0
1291.17138671875	n/a	WORD	2644319	wordpools/wasnorm_wordpool_576.txt	LTP331	ltpFR2	1	6	TUBA	1515	n/a	n/a	0	0	0
1293.90380859375	n/a	WORD	2649915	wordpools/wasnorm_wordpool_576.txt	LTP331	ltpFR2	1	6	BRACES	164	n/a	n/a	0	0	0
1296.46875	n/a	WORD	2655168	wordpools/wasnorm_wordpool_576.txt	LTP331	ltpFR2	1	6	DENTIST	447	n/a	n/a	0	0	0
1298.9833984375	n/a	WORD	2660318	wordpools/wasnorm_wordpool_576.txt	LTP331	ltpFR2	1	6	CLOUD	328	n/a	n/a	0	0	0
1301.6005859375	n/a	WORD	2665678	wordpools/wasnorm_wordpool_576.txt	LTP331	ltpFR2	1	6	GIRL	637	n/a	n/a	0	0	0
1304.048828125	n/a	WORD	2670692	wordpools/wasnorm_wordpool_576.txt	LTP331	ltpFR2	1	6	FLASHLIGHT	575	n/a	n/a	0	0	0
1305.66552734375	n/a	START	2674003	n/a	LTP331	ltpFR2	1	n/a	n/a	n/a	7	n/a	n/a	n/a	n/a
1306.66357421875	n/a	DISTRACTOR	2676047	n/a	LTP331	ltpFR2	1	6	n/a	n/a	n/a	n/a	0	0	0
1306.681640625	n/a	PROB	2676084	n/a	LTP331	ltpFR2	1	n/a	n/a	n/a	7	16	2	5	9
1310.845703125	n/a	PROB	2684612	n/a	LTP331	ltpFR2	1	n/a	n/a	n/a	7	10	2	2	6
1312.3779296875	n/a	PROB	2687750	n/a	LTP331	ltpFR2	1	n/a	n/a	n/a	7	25	8	8	9
1318.474609375	n/a	PROB	2700236	n/a	LTP331	ltpFR2	1	n/a	n/a	n/a	7	17	6	4	7
1319.87451171875	n/a	PROB	2703103	n/a	LTP331	ltpFR2	1	n/a	n/a	n/a	7	12	5	3	4
1321.20654296875	n/a	PROB	2705831	n/a	LTP331	ltpFR2	1	n/a	n/a	n/a	7	12	9	2	1
1324.02197265625	n/a	PROB	2711597	n/a	LTP331	ltpFR2	1	n/a	n/a	n/a	7	10	1	2	7
1325.48779296875	n/a	PROB	2714599	n/a	LTP331	ltpFR2	1	n/a	n/a	n/a	7	15	6	8	1
1329.666015625	n/a	STOP	2723156	n/a	LTP331	ltpFR2	1	n/a	n/a	n/a	7	n/a	n/a	n/a	n/a
1331.45166015625	n/a	REC_START	2726813	n/a	LTP331	ltpFR2	1	6	n/a	n/a	n/a	n/a	0	0	0
1334.07861328125	n/a	REC_WORD	2732193	wordpools/wasnorm_wordpool_576.txt	LTP331	ltpFR2	1	6	FLASHLIGHT	575	n/a	n/a	0	0	0
1335.32373046875	n/a	REC_WORD	2734743	wordpools/wasnorm_wordpool_576.txt	LTP331	ltpFR2	1	6	GIRL	637	n/a	n/a	0	0	0
1339.591796875	n/a	REC_WORD	2743484	wordpools/wasnorm_wordpool_576.txt	LTP331	ltpFR2	1	6	ASIA	46	n/a	n/a	0	0	0
1340.07080078125	n/a	REC_WORD	2744465	wordpools/wasnorm_wordpool_576.txt	LTP331	ltpFR2	1	6	CYCLONE	431	n/a	n/a	0	0	0
1341.0107421875	n/a	REC_WORD	2746390	wordpools/wasnorm_wordpool_576.txt	LTP331	ltpFR2	1	6	PEACH	1031	n/a	n/a	0	0	0
1341.53271484375	n/a	REC_WORD	2747459	wordpools/wasnorm_wordpool_576.txt	LTP331	ltpFR2	1	6	MISSILE	900	n/a	n/a	0	0	0
1342.57275390625	n/a	REC_WORD	2749589	wordpools/wasnorm_wordpool_576.txt	LTP331	ltpFR2	1	6	JUGGLER	763	n/a	n/a	0	0	0
1345.6611328125	n/a	REC_WORD	2755914	wordpools/wasnorm_wordpool_576.txt	LTP331	ltpFR2	1	6	VICTIM	1562	n/a	n/a	0	0	0
1346.34814453125	n/a	REC_WORD	2757321	wordpools/wasnorm_wordpool_576.txt	LTP331	ltpFR2	1	6	SPONGE	1355	n/a	n/a	0	0	0
1347.24072265625	n/a	REC_WORD	2759149	wordpools/wasnorm_wordpool_576.txt	LTP331	ltpFR2	1	6	LIZARD	834	n/a	n/a	0	0	0
1348.9697265625	n/a	REC_WORD	2762690	wordpools/wasnorm_wordpool_576.txt	LTP331	ltpFR2	1	6	LIGHTNING	820	n/a	n/a	0	0	0
1350.54296875	n/a	REC_WORD	2765912	wordpools/wasnorm_wordpool_576.txt	LTP331	ltpFR2	1	6	RAFT	1159	n/a	n/a	0	0	0
1352.15087890625	n/a	REC_WORD	2769205	wordpools/wasnorm_wordpool_576.txt	LTP331	ltpFR2	1	6	BATHTUB	100	n/a	n/a	0	0	0
1355.546875	n/a	REC_WORD	2776160	wordpools/wasnorm_wordpool_576.txt	LTP331	ltpFR2	1	6	REBEL	1172	n/a	n/a	0	0	0
1357.69921875	n/a	REC_WORD	2780568	wordpools/wasnorm_wordpool_576.txt	LTP331	ltpFR2	1	6	STREAM	1392	n/a	n/a	0	0	0
1359.81005859375	n/a	REC_WORD	2784891	wordpools/wasnorm_wordpool_576.txt	LTP331	ltpFR2	1	6	CROSS	413	n/a	n/a	0	0	0
1363.43994140625	n/a	REC_WORD	2792325	wordpools/wasnorm_wordpool_576.txt	LTP331	ltpFR2	1	6	TUBA	1515	n/a	n/a	0	0	0
1364.46923828125	n/a	REC_WORD	2794433	wordpools/wasnorm_wordpool_576.txt	LTP331	ltpFR2	1	6	BRACES	164	n/a	n/a	0	0	0
1365.93701171875	n/a	REC_WORD	2797439	wordpools/wasnorm_wordpool_576.txt	LTP331	ltpFR2	1	6	DENTIST	447	n/a	n/a	0	0	0
1368.27587890625	n/a	REC_WORD	2802229	wordpools/wasnorm_wordpool_576.txt	LTP331	ltpFR2	1	6	GYMNAST	675	n/a	n/a	0	0	0
1369.255859375	n/a	REC_WORD	2804236	wordpools/wasnorm_wordpool_576.txt	LTP331	ltpFR2	1	6	SHIRT	1287	n/a	n/a	0	0	0
1370.5048828125	n/a	REC_WORD	2806794	wordpools/wasnorm_wordpool_576.txt	LTP331	ltpFR2	1	6	MEDAL	885	n/a	n/a	0	0	0
1379.88916015625	n/a	REC_WORD	2826013	wordpools/wasnorm_wordpool_576.txt	LTP331	ltpFR2	1	6	CLOUD	328	n/a	n/a	0	0	0
1383.734375	n/a	REC_WORD	2833888	wordpools/wasnorm_wordpool_576.txt	LTP331	ltpFR2	1	6	GIRL	637	n/a	n/a	0	0	0
1421.890625	n/a	DISTRACTOR	2912032	n/a	LTP331	ltpFR2	1	7	n/a	n/a	n/a	n/a	0	0	0
1421.890625	n/a	START	2912032	n/a	LTP331	ltpFR2	1	n/a	n/a	n/a	8	n/a	n/a	n/a	n/a
1421.9072265625	n/a	PROB	2912066	n/a	LTP331	ltpFR2	1	n/a	n/a	n/a	8	7	2	1	4
1423.857421875	n/a	PROB	2916060	n/a	LTP331	ltpFR2	1	n/a	n/a	n/a	8	26	9	8	9
1425.67333984375	n/a	PROB	2919779	n/a	LTP331	ltpFR2	1	n/a	n/a	n/a	8	18	6	9	3
1427.42138671875	n/a	PROB	2923359	n/a	LTP331	ltpFR2	1	n/a	n/a	n/a	8	16	9	4	3
1429.00341796875	n/a	PROB	2926599	n/a	LTP331	ltpFR2	1	n/a	n/a	n/a	8	20	9	6	5
1431.11962890625	n/a	PROB	2930933	n/a	LTP331	ltpFR2	1	n/a	n/a	n/a	8	27	9	9	9
1432.9013671875	n/a	PROB	2934582	n/a	LTP331	ltpFR2	1	n/a	n/a	n/a	8	12	1	6	5
1434.900390625	n/a	PROB	2938676	n/a	LTP331	ltpFR2	1	n/a	n/a	n/a	8	7	2	4	1
1436.99951171875	n/a	PROB	2942975	n/a	LTP331	ltpFR2	1	n/a	n/a	n/a	8	19	7	8	4
1438.66650390625	n/a	PROB	2946389	n/a	LTP331	ltpFR2	1	n/a	n/a	n/a	8	14	9	4	1
1440.5986328125	n/a	PROB	2950346	n/a	LTP331	ltpFR2	1	n/a	n/a	n/a	8	15	3	4	8
1442.21337890625	n/a	PROB	2953653	n/a	LTP331	ltpFR2	1	n/a	n/a	n/a	8	14	2	8	4
1443.71435546875	n/a	PROB	2956727	n/a	LTP331	ltpFR2	1	n/a	n/a	n/a	8	10	4	1	5
1445.8447265625	n/a	STOP	2961090	n/a	LTP331	ltpFR2	1	n/a	n/a	n/a	8	n/a	n/a	n/a	n/a
1446.845703125	n/a	WORD	2963140	wordpools/wasnorm_wordpool_576.txt	LTP331	ltpFR2	1	7	CANYON	235	n/a	n/a	0	0	0
1449.54443359375	n/a	WORD	2968667	wordpools/wasnorm_wordpool_576.txt	LTP331	ltpFR2	1	7	SWORD	1423	n/a	n/a	0	0	0
1452.0927734375	n/a	WORD	2973886	wordpools/wasnorm_wordpool_576.txt	LTP331	ltpFR2	1	7	FIREMAN	569	n/a	n/a	0	0	0
1454.90771484375	n/a	WORD	2979651	wordpools/wasnorm_wordpool_576.txt	LTP331	ltpFR2	1	7	BLACKBOARD	133	n/a	n/a	0	0	0
1457.7236328125	n/a	WORD	2985418	wordpools/wasnorm_wordpool_576.txt	LTP331	ltpFR2	1	7	CLOTHES	327	n/a	n/a	0	0	0
1460.1884765625	n/a	WORD	2990466	wordpools/wasnorm_wordpool_576.txt	LTP331	ltpFR2	1	7	QUAIL	1147	n/a	n/a	0	0	0
1462.78759765625	n/a	WORD	2995789	wordpools/wasnorm_wordpool_576.txt	LTP331	ltpFR2	1	7	FRECKLE	602	n/a	n/a	0	0	0
1465.3857421875	n/a	WORD	3001110	wordpools/wasnorm_wordpool_576.txt	LTP331	ltpFR2	1	7	GLASS	639	n/a	n/a	0	0	0
1468.1845703125	n/a	WORD	3006842	wordpools/wasnorm_wordpool_576.txt	LTP331	ltpFR2	1	7	WINDOW	1611	n/a	n/a	0	0	0
1470.966796875	n/a	WORD	3012540	wordpools/wasnorm_wordpool_576.txt	LTP331	ltpFR2	1	7	CHAPEL	280	n/a	n/a	0	0	0
1473.431640625	n/a	WORD	3017588	wordpools/wasnorm_wordpool_576.txt	LTP331	ltpFR2	1	7	TEMPLE	1448	n/a	n/a	0	0	0
1476.14794921875	n/a	WORD	3023151	wordpools/wasnorm_wordpool_576.txt	LTP331	ltpFR2	1	7	COUNTRY	388	n/a	n/a	0	0	0
1478.58056640625	n/a	WORD	3028133	wordpools/wasnorm_wordpool_576.txt	LTP331	ltpFR2	1	7	ICING	732	n/a	n/a	0	0	0
1481.22802734375	n/a	WORD	3033555	wordpools/wasnorm_wordpool_576.txt	LTP331	ltpFR2	1	7	OUTFIT	988	n/a	n/a	0	0	0
1483.99365234375	n/a	WORD	3039219	wordpools/wasnorm_wordpool_576.txt	LTP331	ltpFR2	1	7	DRILL	497	n/a	n/a	0	0	0
1486.56005859375	n/a	WORD	3044475	wordpools/wasnorm_wordpool_576.txt	LTP331	ltpFR2	1	7	HOSTESS	723	n/a	n/a	0	0	0
1489.15771484375	n/a	WORD	3049795	wordpools/wasnorm_wordpool_576.txt	LTP331	ltpFR2	1	7	SISTER	1312	n/a	n/a	0	0	0
1491.90576171875	n/a	WORD	3055423	wordpools/wasnorm_wordpool_576.txt	LTP331	ltpFR2	1	7	TRUCK	1512	n/a	n/a	0	0	0
1494.40478515625	n/a	WORD	3060541	wordpools/wasnorm_wordpool_576.txt	LTP331	ltpFR2	1	7	CLAMP	316	n/a	n/a	0	0	0
1497.02001953125	n/a	WORD	3065897	wordpools/wasnorm_wordpool_576.txt	LTP331	ltpFR2	1	7	COMET	353	n/a	n/a	0	0	0
1499.537109375	n/a	WORD	3071052	wordpools/wasnorm_wordpool_576.txt	LTP331	ltpFR2	1	7	COFFEE	341	n/a	n/a	0	0	0
1502.05078125	n/a	WORD	3076200	wordpools/wasnorm_wordpool_576.txt	LTP331	ltpFR2	1	7	BREAST	171	n/a	n/a	0	0	0
1504.7841796875	n/a	WORD	3081798	wordpools/wasnorm_wordpool_576.txt	LTP331	ltpFR2	1	7	MARKER	870	n/a	n/a	0	0	0
1507.26513671875	n/a	WORD	3086879	wordpools/wasnorm_wordpool_576.txt	LTP331	ltpFR2	1	7	ROBBER	1197	n/a	n/a	0	0	0
1508.8818359375	n/a	START	3090190	n/a	LTP331	ltpFR2	1	n/a	n/a	n/a	9	n/a	n/a	n/a	n/a
1509.81982421875	n/a	DISTRACTOR	3092111	n/a	LTP331	ltpFR2	1	7	n/a	n/a	n/a	n/a	0	0	0
1509.83203125	n/a	PROB	3092136	n/a	LTP331	ltpFR2	1	n/a	n/a	n/a	9	13	5	1	7
1513.8798828125	n/a	PROB	3100426	n/a	LTP331	ltpFR2	1	n/a	n/a	n/a	9	15	1	8	6
1516.02783203125	n/a	PROB	3104825	n/a	LTP331	ltpFR2	1	n/a	n/a	n/a	9	11	1	1	9
1517.494140625	n/a	PROB	3107828	n/a	LTP331	ltpFR2	1	n/a	n/a	n/a	9	15	5	1	9
1519.17626953125	n/a	PROB	3111273	n/a	LTP331	ltpFR2	1	n/a	n/a	n/a	9	10	8	1	1
1520.97509765625	n/a	PROB	3114957	n/a	LTP331	ltpFR2	1	n/a	n/a	n/a	9	13	5	3	5
1522.7919921875	n/a	PROB	3118678	n/a	LTP331	ltpFR2	1	n/a	n/a	n/a	9	10	1	6	3
1525.0732421875	n/a	PROB	3123350	n/a	LTP331	ltpFR2	1	n/a	n/a	n/a	9	15	3	9	3
1526.623046875	n/a	PROB	3126524	n/a	LTP331	ltpFR2	1	n/a	n/a	n/a	9	19	8	6	5
1529.55517578125	n/a	PROB	3132529	n/a	LTP331	ltpFR2	1	n/a	n/a	n/a	9	9	4	4	1
1530.837890625	n/a	PROB	3135156	n/a	LTP331	ltpFR2	1	n/a	n/a	n/a	9	9	1	3	5
1532.78125	n/a	STOP	3139136	n/a	LTP331	ltpFR2	1	n/a	n/a	n/a	9	n/a	n/a	n/a	n/a
1534.7529296875	n/a	REC_START	3143174	n/a	LTP331	ltpFR2	1	7	n/a	n/a	n/a	n/a	0	0	0
1541.34228515625	n/a	REC_WORD	3156669	wordpools/wasnorm_wordpool_576.txt	LTP331	ltpFR2	1	7	CANYON	235	n/a	n/a	0	0	0
1541.84326171875	n/a	REC_WORD	3157695	wordpools/wasnorm_wordpool_576.txt	LTP331	ltpFR2	1	7	SWORD	1423	n/a	n/a	0	0	0
1542.2802734375	n/a	REC_WORD	3158590	wordpools/wasnorm_wordpool_576.txt	LTP331	ltpFR2	1	7	FIREMAN	569	n/a	n/a	0	0	0
1544.96435546875	n/a	REC_WORD	3164087	wordpools/wasnorm_wordpool_576.txt	LTP331	ltpFR2	1	7	BLACKBOARD	133	n/a	n/a	0	0	0
1545.748046875	n/a	REC_WORD	3165692	wordpools/wasnorm_wordpool_576.txt	LTP331	ltpFR2	1	7	CLOTHING	-1	n/a	n/a	0	0	0
1549.9033203125	n/a	REC_WORD	3174202	wordpools/wasnorm_wordpool_576.txt	LTP331	ltpFR2	1	7	FRECKLE	602	n/a	n/a	0	0	0
1551.01318359375	n/a	REC_WORD	3176475	wordpools/wasnorm_wordpool_576.txt	LTP331	ltpFR2	1	7	QUAIL	1147	n/a	n/a	0	0	0
1551.6103515625	n/a	REC_WORD	3177698	wordpools/wasnorm_wordpool_576.txt	LTP331	ltpFR2	1	7	GLASS	639	n/a	n/a	0	0	0
1552.123046875	n/a	REC_WORD	3178748	wordpools/wasnorm_wordpool_576.txt	LTP331	ltpFR2	1	7	WINDOW	1611	n/a	n/a	0	0	0
1554.33837890625	n/a	REC_WORD	3183285	wordpools/wasnorm_wordpool_576.txt	LTP331	ltpFR2	1	7	CHAPEL	280	n/a	n/a	0	0	0
1554.90625	n/a	REC_WORD	3184448	wordpools/wasnorm_wordpool_576.txt	LTP331	ltpFR2	1	7	TEMPLE	1448	n/a	n/a	0	0	0
1555.4072265625	n/a	REC_WORD	3185474	wordpools/wasnorm_wordpool_576.txt	LTP331	ltpFR2	1	7	COUNTRY	388	n/a	n/a	0	0	0
1567.41552734375	n/a	REC_WORD	3210067	wordpools/wasnorm_wordpool_576.txt	LTP331	ltpFR2	1	7	ICING	732	n/a	n/a	0	0	0
1568.32958984375	n/a	REC_WORD	3211939	wordpools/wasnorm_wordpool_576.txt	LTP331	ltpFR2	1	7	OUTFIT	988	n/a	n/a	0	0	0
1569.697265625	n/a	REC_WORD	3214740	wordpools/wasnorm_wordpool_576.txt	LTP331	ltpFR2	1	7	DRILL	497	n/a	n/a	0	0	0
1570.16845703125	n/a	REC_WORD	3215705	wordpools/wasnorm_wordpool_576.txt	LTP331	ltpFR2	1	7	HOSTESS	723	n/a	n/a	0	0	0
1570.76416015625	n/a	REC_WORD	3216925	wordpools/wasnorm_wordpool_576.txt	LTP331	ltpFR2	1	7	SISTER	1312	n/a	n/a	0	0	0
1572.36962890625	n/a	REC_WORD	3220213	wordpools/wasnorm_wordpool_576.txt	LTP331	ltpFR2	1	7	TRUCK	1512	n/a	n/a	0	0	0
1572.79833984375	n/a	REC_WORD	3221091	wordpools/wasnorm_wordpool_576.txt	LTP331	ltpFR2	1	7	COMET	353	n/a	n/a	0	0	0
1575.3154296875	n/a	REC_WORD	3226246	wordpools/wasnorm_wordpool_576.txt	LTP331	ltpFR2	1	7	CLAMP	316	n/a	n/a	0	0	0
1576.03662109375	n/a	REC_WORD	3227723	wordpools/wasnorm_wordpool_576.txt	LTP331	ltpFR2	1	7	BREAST	171	n/a	n/a	0	0	0
1579.37646484375	n/a	REC_WORD	3234563	wordpools/wasnorm_wordpool_576.txt	LTP331	ltpFR2	1	7	THIEF	1456	n/a	n/a	0	0	0
1582.0322265625	n/a	REC_WORD	3240002	wordpools/wasnorm_wordpool_576.txt	LTP331	ltpFR2	1	7	MARKER	870	n/a	n/a	0	0	0
1582.978515625	n/a	REC_WORD	3241940	wordpools/wasnorm_wordpool_576.txt	LTP331	ltpFR2	1	7	COFFEE	341	n/a	n/a	0	0	0
1625.2236328125	n/a	WORD	3328458	wordpools/wasnorm_wordpool_576.txt	LTP331	ltpFR2	1	8	BRANCH	168	n/a	n/a	0	0	0
1627.69091796875	n/a	WORD	3333511	wordpools/wasnorm_wordpool_576.txt	LTP331	ltpFR2	1	8	DOLPHIN	483	n/a	n/a	0	0	0
1630.4716796875	n/a	WORD	3339206	wordpools/wasnorm_wordpool_576.txt	LTP331	ltpFR2	1	8	MAMMAL	861	n/a	n/a	0	0	0
1633.27001953125	n/a	WORD	3344937	wordpools/wasnorm_wordpool_576.txt	LTP331	ltpFR2	1	8	GRAVE	658	n/a	n/a	0	0	0
1635.7529296875	n/a	WORD	3350022	wordpools/wasnorm_wordpool_576.txt	LTP331	ltpFR2	1	8	PRIMATE	1123	n/a	n/a	0	0	0
1638.45068359375	n/a	WORD	3355547	wordpools/wasnorm_wordpool_576.txt	LTP331	ltpFR2	1	8	POSSUM	1112	n/a	n/a	0	0	0
1641.14990234375	n/a	WORD	3361075	wordpools/wasnorm_wordpool_576.txt	LTP331	ltpFR2	1	8	LION	827	n/a	n/a	0	0	0
1643.89794921875	n/a	WORD	3366703	wordpools/wasnorm_wordpool_576.txt	LTP331	ltpFR2	1	8	SNACK	1331	n/a	n/a	0	0	0
1646.6650390625	n/a	WORD	3372370	wordpools/wasnorm_wordpool_576.txt	LTP331	ltpFR2	1	8	MARKET	871	n/a	n/a	0	0	0
1649.3291015625	n/a	WORD	3377826	wordpools/wasnorm_wordpool_576.txt	LTP331	ltpFR2	1	8	JELLY	755	n/a	n/a	0	0	0
1651.994140625	n/a	WORD	3383284	wordpools/wasnorm_wordpool_576.txt	LTP331	ltpFR2	1	8	HORNET	718	n/a	n/a	0	0	0
1654.72705078125	n/a	WORD	3388881	wordpools/wasnorm_wordpool_576.txt	LTP331	ltpFR2	1	8	AIRPORT	13	n/a	n/a	0	0	0
1657.208984375	n/a	WORD	3393964	wordpools/wasnorm_wordpool_576.txt	LTP331	ltpFR2	1	8	BOUQUET	157	n/a	n/a	0	0	0
1659.80810546875	n/a	WORD	3399287	wordpools/wasnorm_wordpool_576.txt	LTP331	ltpFR2	1	8	GIFT	635	n/a	n/a	0	0	0
1662.30615234375	n/a	WORD	3404403	wordpools/wasnorm_wordpool_576.txt	LTP331	ltpFR2	1	8	MAILBOX	857	n/a	n/a	0	0	0
1664.88916015625	n/a	WORD	3409693	wordpools/wasnorm_wordpool_576.txt	LTP331	ltpFR2	1	8	BEAST	108	n/a	n/a	0	0	0
1667.35400390625	n/a	WORD	3414741	wordpools/wasnorm_wordpool_576.txt	LTP331	ltpFR2	1	8	BROTHER	179	n/a	n/a	0	0	0
1669.9521484375	n/a	WORD	3420062	wordpools/wasnorm_wordpool_576.txt	LTP331	ltpFR2	1	8	SHOVEL	1295	n/a	n/a	0	0	0
1672.76904296875	n/a	WORD	3425831	wordpools/wasnorm_wordpool_576.txt	LTP331	ltpFR2	1	8	AUTHOR	61	n/a	n/a	0	0	0
1675.2001953125	n/a	WORD	3430810	wordpools/wasnorm_wordpool_576.txt	LTP331	ltpFR2	1	8	SERVANT	1271	n/a	n/a	0	0	0
1677.93212890625	n/a	WORD	3436405	wordpools/wasnorm_wordpool_576.txt	LTP331	ltpFR2	1	8	PANTHER	1009	n/a	n/a	0	0	0
1680.53125	n/a	WORD	3441728	wordpools/wasnorm_wordpool_576.txt	LTP331	ltpFR2	1	8	TOMBSTONE	1478	n/a	n/a	0	0	0
1683.1962890625	n/a	WORD	3447186	wordpools/wasnorm_wordpool_576.txt	LTP331	ltpFR2	1	8	LODGE	839	n/a	n/a	0	0	0
1685.794921875	n/a	WORD	3452508	wordpools/wasnorm_wordpool_576.txt	LTP331	ltpFR2	1	8	POCKET	1093	n/a	n/a	0	0	0
1687.41015625	n/a	START	3455816	n/a	LTP331	ltpFR2	1	n/a	n/a	n/a	10	n/a	n/a	n/a	n/a
1688.609375	n/a	DISTRACTOR	3458272	n/a	LTP331	ltpFR2	1	8	n/a	n/a	n/a	n/a	0	0	0
1688.611328125	n/a	PROB	3458276	n/a	LTP331	ltpFR2	1	n/a	n/a	n/a	10	6	1	2	3
1690.9423828125	n/a	PROB	3463050	n/a	LTP331	ltpFR2	1	n/a	n/a	n/a	10	20	6	5	9
1693.75830078125	n/a	PROB	3468817	n/a	LTP331	ltpFR2	1	n/a	n/a	n/a	10	12	5	4	3
1695.39013671875	n/a	PROB	3472159	n/a	LTP331	ltpFR2	1	n/a	n/a	n/a	10	14	8	5	1
1697.1552734375	n/a	PROB	3475774	n/a	LTP331	ltpFR2	1	n/a	n/a	n/a	10	16	6	8	2
1698.88916015625	n/a	PROB	3479325	n/a	LTP331	ltpFR2	1	n/a	n/a	n/a	10	10	2	7	1
1700.287109375	n/a	PROB	3482188	n/a	LTP331	ltpFR2	1	n/a	n/a	n/a	10	15	3	5	7
1701.77099609375	n/a	PROB	3485227	n/a	LTP331	ltpFR2	1	n/a	n/a	n/a	10	14	6	3	5
1703.21923828125	n/a	PROB	3488193	n/a	LTP331	ltpFR2	1	n/a	n/a	n/a	10	19	8	5	6
1705.01806640625	n/a	PROB	3491877	n/a	LTP331	ltpFR2	1	n/a	n/a	n/a	10	15	8	3	4
1707.91748046875	n/a	PROB	3497815	n/a	LTP331	ltpFR2	1	n/a	n/a	n/a	10	14	4	6	5
1711.3974609375	n/a	STOP	3504942	n/a	LTP331	ltpFR2	1	n/a	n/a	n/a	10	n/a	n/a	n/a	n/a
1713.24853515625	n/a	REC_START	3508733	n/a	LTP331	ltpFR2	1	8	n/a	n/a	n/a	n/a	0	0	0
1714.5185546875	n/a	REC_WORD	3511334	wordpools/wasnorm_wordpool_576.txt	LTP331	ltpFR2	1	8	LODGE	839	n/a	n/a	0	0	0
1715.068359375	n/a	REC_WORD	3512460	wordpools/wasnorm_wordpool_576.txt	LTP331	ltpFR2	1	8	POCKET	1093	n/a	n/a	0	0	0
1716.96533203125	n/a	REC_WORD	3516345	wordpools/wasnorm_wordpool_576.txt	LTP331	ltpFR2	1	8	BRANCH	168	n/a	n/a	0	0	0
1717.49951171875	n/a	REC_WORD	3517439	wordpools/wasnorm_wordpool_576.txt	LTP331	ltpFR2	1	8	DOLPHIN	483	n/a	n/a	0	0	0
1718.0283203125	n/a	REC_WORD	3518522	wordpools/wasnorm_wordpool_576.txt	LTP331	ltpFR2	1	8	MAMMAL	861	n/a	n/a	0	0	0
1718.55810546875	n/a	REC_WORD	3519607	wordpools/wasnorm_wordpool_576.txt	LTP331	ltpFR2	1	8	PRIMATE	1123	n/a	n/a	0	0	0
1719.88818359375	n/a	REC_WORD	3522331	wordpools/wasnorm_wordpool_576.txt	LTP331	ltpFR2	1	8	GRAVE	658	n/a	n/a	0	0	0
1727.2744140625	n/a	REC_WORD	3537458	wordpools/wasnorm_wordpool_576.txt	LTP331	ltpFR2	1	8	POSSUM	1112	n/a	n/a	0	0	0
1727.8583984375	n/a	REC_WORD	3538654	wordpools/wasnorm_wordpool_576.txt	LTP331	ltpFR2	1	8	LION	827	n/a	n/a	0	0	0
1728.42333984375	n/a	REC_WORD	3539811	wordpools/wasnorm_wordpool_576.txt	LTP331	ltpFR2	1	8	SNACK	1331	n/a	n/a	0	0	0
1730.21533203125	n/a	REC_WORD	3543481	wordpools/wasnorm_wordpool_576.txt	LTP331	ltpFR2	1	8	MARKET	871	n/a	n/a	0	0	0
1732.21044921875	n/a	REC_WORD	3547567	wordpools/wasnorm_wordpool_576.txt	LTP331	ltpFR2	1	8	JELLY	755	n/a	n/a	0	0	0
1732.6884765625	n/a	REC_WORD	3548546	wordpools/wasnorm_wordpool_576.txt	LTP331	ltpFR2	1	8	HORNET	718	n/a	n/a	0	0	0
1733.46337890625	n/a	REC_WORD	3550133	wordpools/wasnorm_wordpool_576.txt	LTP331	ltpFR2	1	8	AIRPORT	13	n/a	n/a	0	0	0
1736.20556640625	n/a	REC_WORD	3555749	wordpools/wasnorm_wordpool_576.txt	LTP331	ltpFR2	1	8	BOUQUET	157	n/a	n/a	0	0	0
1737.48828125	n/a	REC_WORD	3558376	wordpools/wasnorm_wordpool_576.txt	LTP331	ltpFR2	1	8	GIFT	635	n/a	n/a	0	0	0
1741.53271484375	n/a	REC_WORD	3566659	wordpools/wasnorm_wordpool_576.txt	LTP331	ltpFR2	1	8	MAILBOX	857	n/a	n/a	0	0	0
1742.2763671875	n/a	REC_WORD	3568182	wordpools/wasnorm_wordpool_576.txt	LTP331	ltpFR2	1	8	BEAST	108	n/a	n/a	0	0	0
1742.75537109375	n/a	REC_WORD	3569163	wordpools/wasnorm_wordpool_576.txt	LTP331	ltpFR2	1	8	BROTHER	179	n/a	n/a	0	0	0
1743.224609375	n/a	REC_WORD	3570124	wordpools/wasnorm_wordpool_576.txt	LTP331	ltpFR2	1	8	SHOVEL	1295	n/a	n/a	0	0	0
1748.0185546875	n/a	REC_WORD	3579942	wordpools/wasnorm_wordpool_576.txt	LTP331	ltpFR2	1	8	AUTHOR	61	n/a	n/a	0	0	0
1749.1845703125	n/a	REC_WORD	3582330	wordpools/wasnorm_wordpool_576.txt	LTP331	ltpFR2	1	8	SERVANT	1271	n/a	n/a	0	0	0
1750.6806640625	n/a	REC_WORD	3585394	wordpools/wasnorm_wordpool_576.txt	LTP331	ltpFR2	1	8	PANTHER	1009	n/a	n/a	0	0	0
1752.5283203125	n/a	REC_WORD	3589178	wordpools/wasnorm_wordpool_576.txt	LTP331	ltpFR2	1	8	TOMBSTONE	1478	n/a	n/a	0	0	0
1789.794921875	n/a	REST_REWET	3665500	n/a	LTP331	ltpFR2	1	8	n/a	n/a	n/a	n/a	0	0	0
2042.3193359375	n/a	DISTRACTOR	4182670	n/a	LTP331	ltpFR2	1	9	n/a	n/a	n/a	n/a	0	0	0
2042.3193359375	n/a	START	4182670	n/a	LTP331	ltpFR2	1	n/a	n/a	n/a	11	n/a	n/a	n/a	n/a
2042.33642578125	n/a	PROB	4182705	n/a	LTP331	ltpFR2	1	n/a	n/a	n/a	11	14	2	4	8
2044.318359375	n/a	PROB	4186764	n/a	LTP331	ltpFR2	1	n/a	n/a	n/a	11	7	1	2	4
2045.7353515625	n/a	PROB	4189666	n/a	LTP331	ltpFR2	1	n/a	n/a	n/a	11	18	8	5	5
2048.16650390625	n/a	PROB	4194645	n/a	LTP331	ltpFR2	1	n/a	n/a	n/a	11	20	5	8	7
2050.28271484375	n/a	PROB	4198979	n/a	LTP331	ltpFR2	1	n/a	n/a	n/a	11	17	2	6	9
2052.6826171875	n/a	PROB	4203894	n/a	LTP331	ltpFR2	1	n/a	n/a	n/a	11	15	6	7	2
2054.19775390625	n/a	PROB	4206997	n/a	LTP331	ltpFR2	1	n/a	n/a	n/a	11	21	6	6	9
2055.91259765625	n/a	PROB	4210509	n/a	LTP331	ltpFR2	1	n/a	n/a	n/a	11	6	3	2	1
2057.345703125	n/a	PROB	4213444	n/a	LTP331	ltpFR2	1	n/a	n/a	n/a	11	10	1	8	1
2058.82958984375	n/a	PROB	4216483	n/a	LTP331	ltpFR2	1	n/a	n/a	n/a	11	13	7	4	2
2060.861328125	n/a	PROB	4220644	n/a	LTP331	ltpFR2	1	n/a	n/a	n/a	11	8	1	4	3
2062.359375	n/a	PROB	4223712	n/a	LTP331	ltpFR2	1	n/a	n/a	n/a	11	7	1	5	1
2063.7607421875	n/a	PROB	4226582	n/a	LTP331	ltpFR2	1	n/a	n/a	n/a	11	11	7	2	2
2065.7216796875	n/a	STOP	4230598	n/a	LTP331	ltpFR2	1	n/a	n/a	n/a	11	n/a	n/a	n/a	n/a
2067.45751953125	n/a	WORD	4234153	wordpools/wasnorm_wordpool_576.txt	LTP331	ltpFR2	1	9	FINGER	567	n/a	n/a	0	0	0
2070.22265625	n/a	WORD	4239816	wordpools/wasnorm_wordpool_576.txt	LTP331	ltpFR2	1	9	LAKE	796	n/a	n/a	0	0	0
2073.021484375	n/a	WORD	4245548	wordpools/wasnorm_wordpool_576.txt	LTP331	ltpFR2	1	9	SWIMMER	1420	n/a	n/a	0	0	0
2075.6875	n/a	WORD	4251008	wordpools/wasnorm_wordpool_576.txt	LTP331	ltpFR2	1	9	SEAGULL	1261	n/a	n/a	0	0	0
2078.28564453125	n/a	WORD	4256329	wordpools/wasnorm_wordpool_576.txt	LTP331	ltpFR2	1	9	COUNTY	389	n/a	n/a	0	0	0
2081.05078125	n/a	WORD	4261992	wordpools/wasnorm_wordpool_576.txt	LTP331	ltpFR2	1	9	YOLK	1633	n/a	n/a	0	0	0
2083.65087890625	n/a	WORD	4267317	wordpools/wasnorm_wordpool_576.txt	LTP331	ltpFR2	1	9	CABIN	211	n/a	n/a	0	0	0
2086.41455078125	n/a	WORD	4272977	wordpools/wasnorm_wordpool_576.txt	LTP331	ltpFR2	1	9	RECORD	1176	n/a	n/a	0	0	0
2088.91357421875	n/a	WORD	4278095	wordpools/wasnorm_wordpool_576.txt	LTP331	ltpFR2	1	9	TURNIP	1521	n/a	n/a	0	0	0
2091.66259765625	n/a	WORD	4283725	wordpools/wasnorm_wordpool_576.txt	LTP331	ltpFR2	1	9	ARMY	39	n/a	n/a	0	0	0
2094.4775390625	n/a	WORD	4289490	wordpools/wasnorm_wordpool_576.txt	LTP331	ltpFR2	1	9	SNAKE	1333	n/a	n/a	0	0	0
2097.15966796875	n/a	WORD	4294983	wordpools/wasnorm_wordpool_576.txt	LTP331	ltpFR2	1	9	TROMBONE	1508	n/a	n/a	0	0	0
2099.74267578125	n/a	WORD	4300273	wordpools/wasnorm_wordpool_576.txt	LTP331	ltpFR2	1	9	COMPASS	358	n/a	n/a	0	0	0
2102.20703125	n/a	WORD	4305320	wordpools/wasnorm_wordpool_576.txt	LTP331	ltpFR2	1	9	GARLIC	624	n/a	n/a	0	0	0
2104.98876953125	n/a	WORD	4311017	wordpools/wasnorm_wordpool_576.txt	LTP331	ltpFR2	1	9	SUPPER	1411	n/a	n/a	0	0	0
2107.73876953125	n/a	WORD	4316649	wordpools/wasnorm_wordpool_576.txt	LTP331	ltpFR2	1	9	FREEZER	604	n/a	n/a	0	0	0
2110.27001953125	n/a	WORD	4321833	wordpools/wasnorm_wordpool_576.txt	LTP331	ltpFR2	1	9	KLEENEX	782	n/a	n/a	0	0	0
2112.85302734375	n/a	WORD	4327123	wordpools/wasnorm_wordpool_576.txt	LTP331	ltpFR2	1	9	VALLEY	1545	n/a	n/a	0	0	0
2115.5849609375	n/a	WORD	4332718	wordpools/wasnorm_wordpool_576.txt	LTP331	ltpFR2	1	9	SADDLE	1221	n/a	n/a	0	0	0
2118.09912109375	n/a	WORD	4337867	wordpools/wasnorm_wordpool_576.txt	LTP331	ltpFR2	1	9	CASHIER	254	n/a	n/a	0	0	0
2120.84912109375	n/a	WORD	4343499	wordpools/wasnorm_wordpool_576.txt	LTP331	ltpFR2	1	9	PLAZA	1088	n/a	n/a	0	0	0
2123.39697265625	n/a	WORD	4348717	wordpools/wasnorm_wordpool_576.txt	LTP331	ltpFR2	1	9	SLOPE	1328	n/a	n/a	0	0	0
2125.86279296875	n/a	WORD	4353767	wordpools/wasnorm_wordpool_576.txt	LTP331	ltpFR2	1	9	TABLE	1426	n/a	n/a	0	0	0
2128.64501953125	n/a	WORD	4359465	wordpools/wasnorm_wordpool_576.txt	LTP331	ltpFR2	1	9	POSTAGE	1113	n/a	n/a	0	0	0
2130.26025390625	n/a	START	4362773	n/a	LTP331	ltpFR2	1	n/a	n/a	n/a	12	n/a	n/a	n/a	n/a
2131.4140625	n/a	DISTRACTOR	4365136	n/a	LTP331	ltpFR2	1	9	n/a	n/a	n/a	n/a	0	0	0
2131.42578125	n/a	PROB	4365160	n/a	LTP331	ltpFR2	1	n/a	n/a	n/a	12	12	8	1	3
2134.408203125	n/a	PROB	4371268	n/a	LTP331	ltpFR2	1	n/a	n/a	n/a	12	17	8	8	1
2136.39013671875	n/a	PROB	4375327	n/a	LTP331	ltpFR2	1	n/a	n/a	n/a	12	13	6	6	1
2137.85693359375	n/a	PROB	4378331	n/a	LTP331	ltpFR2	1	n/a	n/a	n/a	12	13	3	2	8
2139.47216796875	n/a	PROB	4381639	n/a	LTP331	ltpFR2	1	n/a	n/a	n/a	12	17	2	8	7
2140.88916015625	n/a	PROB	4384541	n/a	LTP331	ltpFR2	1	n/a	n/a	n/a	12	13	7	3	3
2142.50390625	n/a	PROB	4387848	n/a	LTP331	ltpFR2	1	n/a	n/a	n/a	12	11	3	5	3
2143.953125	n/a	PROB	4390816	n/a	LTP331	ltpFR2	1	n/a	n/a	n/a	12	10	4	2	4
2145.51904296875	n/a	PROB	4394023	n/a	LTP331	ltpFR2	1	n/a	n/a	n/a	12	11	3	2	6
2146.88623046875	n/a	PROB	4396823	n/a	LTP331	ltpFR2	1	n/a	n/a	n/a	12	11	7	2	2
2149.2841796875	n/a	PROB	4401734	n/a	LTP331	ltpFR2	1	n/a	n/a	n/a	12	16	3	9	4
2150.916015625	n/a	PROB	4405076	n/a	LTP331	ltpFR2	1	n/a	n/a	n/a	12	17	9	6	2
2152.533203125	n/a	PROB	4408388	n/a	LTP331	ltpFR2	1	n/a	n/a	n/a	12	10	3	1	6
2153.84228515625	n/a	STOP	4411069	n/a	LTP331	ltpFR2	1	n/a	n/a	n/a	12	n/a	n/a	n/a	n/a
2156.01416015625	n/a	REC_START	4415517	n/a	LTP331	ltpFR2	1	9	n/a	n/a	n/a	n/a	0	0	0
2158.55224609375	n/a	REC_WORD	4420715	wordpools/wasnorm_wordpool_576.txt	LTP331	ltpFR2	1	9	FINGER	567	n/a	n/a	0	0	0
2159.05029296875	n/a	REC_WORD	4421735	wordpools/wasnorm_wordpool_576.txt	LTP331	ltpFR2	1	9	LAKE	796	n/a	n/a	0	0	0
2159.375	n/a	REC_WORD	4422400	wordpools/wasnorm_wordpool_576.txt	LTP331	ltpFR2	1	9	SWIMMER	1420	n/a	n/a	0	0	0
2159.92138671875	n/a	REC_WORD	4423519	wordpools/wasnorm_wordpool_576.txt	LTP331	ltpFR2	1	9	SEAGULL	1261	n/a	n/a	0	0	0
2162.26416015625	n/a	REC_WORD	4428317	wordpools/wasnorm_wordpool_576.txt	LTP331	ltpFR2	1	9	YOLK	1633	n/a	n/a	0	0	0
2162.81298828125	n/a	REC_WORD	4429441	wordpools/wasnorm_wordpool_576.txt	LTP331	ltpFR2	1	9	CABIN	211	n/a	n/a	0	0	0
2163.9560546875	n/a	REC_WORD	4431782	wordpools/wasnorm_wordpool_576.txt	LTP331	ltpFR2	1	9	TURNIP	1521	n/a	n/a	0	0	0
2165.04345703125	n/a	REC_WORD_VV	4434009	wordpools/wasnorm_wordpool_576.txt	LTP331	ltpFR2	1	9	<>	-1	n/a	n/a	0	0	0
2165.97607421875	n/a	REC_WORD	4435919	wordpools/wasnorm_wordpool_576.txt	LTP331	ltpFR2	1	9	RECORD	1176	n/a	n/a	0	0	0
2173.21142578125	n/a	REC_WORD	4450737	wordpools/wasnorm_wordpool_576.txt	LTP331	ltpFR2	1	9	ARMY	39	n/a	n/a	0	0	0
2173.6591796875	n/a	REC_WORD	4451654	wordpools/wasnorm_wordpool_576.txt	LTP331	ltpFR2	1	9	SNAKE	1333	n/a	n/a	0	0	0
2175.29052734375	n/a	REC_WORD	4454995	wordpools/wasnorm_wordpool_576.txt	LTP331	ltpFR2	1	9	TROMBONE	1508	n/a	n/a	0	0	0
2176.99951171875	n/a	REC_WORD	4458495	wordpools/wasnorm_wordpool_576.txt	LTP331	ltpFR2	1	9	KLEENEX	782	n/a	n/a	0	0	0
2177.6484375	n/a	REC_WORD	4459824	wordpools/wasnorm_wordpool_576.txt	LTP331	ltpFR2	1	9	FREEZER	604	n/a	n/a	0	0	0
2178.3134765625	n/a	REC_WORD	4461186	wordpools/wasnorm_wordpool_576.txt	LTP331	ltpFR2	1	9	GARLIC	624	n/a	n/a	0	0	0
2181.9482421875	n/a	REC_WORD	4468630	wordpools/wasnorm_wordpool_576.txt	LTP331	ltpFR2	1	9	DINNER	468	n/a	n/a	0	0	0
2182.66015625	n/a	REC_WORD_VV	4470088	wordpools/wasnorm_wordpool_576.txt	LTP331	ltpFR2	1	9	<>	-1	n/a	n/a	0	0	0
2182.84521484375	n/a	REC_WORD	4470467	wordpools/wasnorm_wordpool_576.txt	LTP331	ltpFR2	1	9	SUPPER	1411	n/a	n/a	0	0	0
2184.6455078125	n/a	REC_WORD	4474154	wordpools/wasnorm_wordpool_576.txt	LTP331	ltpFR2	1	9	TABLE	1426	n/a	n/a	0	0	0
2185.90234375	n/a	REC_WORD	4476728	wordpools/wasnorm_wordpool_576.txt	LTP331	ltpFR2	1	9	PLAZA	1088	n/a	n/a	0	0	0
2187.490234375	n/a	REC_WORD	4479980	wordpools/wasnorm_wordpool_576.txt	LTP331	ltpFR2	1	9	DONKEY	484	n/a	n/a	0	0	0
2188.21337890625	n/a	REC_WORD	4481461	wordpools/wasnorm_wordpool_576.txt	LTP331	ltpFR2	1	9	CASHIER	254	n/a	n/a	0	0	0
2188.859375	n/a	REC_WORD	4482784	wordpools/wasnorm_wordpool_576.txt	LTP331	ltpFR2	1	9	SADDLE	1221	n/a	n/a	0	0	0
2193.54541015625	n/a	REC_WORD	4492381	wordpools/wasnorm_wordpool_576.txt	LTP331	ltpFR2	1	9	SLOPE	1328	n/a	n/a	0	0	0
2246.48583984375	n/a	DISTRACTOR	4600803	n/a	LTP331	ltpFR2	1	10	n/a	n/a	n/a	n/a	0	0	0
2246.48681640625	n/a	START	4600805	n/a	LTP331	ltpFR2	1	n/a	n/a	n/a	13	n/a	n/a	n/a	n/a
2246.5029296875	n/a	PROB	4600838	n/a	LTP331	ltpFR2	1	n/a	n/a	n/a	13	9	4	2	3
2248.61962890625	n/a	PROB	4605173	n/a	LTP331	ltpFR2	1	n/a	n/a	n/a	13	19	2	9	8
2250.23486328125	n/a	PROB	4608481	n/a	LTP331	ltpFR2	1	n/a	n/a	n/a	13	20	6	9	5
2251.9169921875	n/a	PROB	4611926	n/a	LTP331	ltpFR2	1	n/a	n/a	n/a	13	18	1	9	8
2253.39990234375	n/a	PROB	4614963	n/a	LTP331	ltpFR2	1	n/a	n/a	n/a	13	15	8	1	6
2254.8330078125	n/a	PROB	4617898	n/a	LTP331	ltpFR2	1	n/a	n/a	n/a	13	17	3	5	9
2256.28173828125	n/a	PROB	4620865	n/a	LTP331	ltpFR2	1	n/a	n/a	n/a	13	23	9	6	8
2257.9140625	n/a	PROB	4624208	n/a	LTP331	ltpFR2	1	n/a	n/a	n/a	13	9	1	6	2
2259.27978515625	n/a	PROB	4627005	n/a	LTP331	ltpFR2	1	n/a	n/a	n/a	13	12	2	8	2
2260.72998046875	n/a	PROB	4629975	n/a	LTP331	ltpFR2	1	n/a	n/a	n/a	13	14	7	4	3
2262.39501953125	n/a	PROB	4633385	n/a	LTP331	ltpFR2	1	n/a	n/a	n/a	13	9	1	6	2
2263.7958984375	n/a	PROB	4636254	n/a	LTP331	ltpFR2	1	n/a	n/a	n/a	13	12	6	4	2
2266.72705078125	n/a	PROB	4642257	n/a	LTP331	ltpFR2	1	n/a	n/a	n/a	13	18	7	9	3
2270.14599609375	n/a	STOP	4649259	n/a	LTP331	ltpFR2	1	n/a	n/a	n/a	13	n/a	n/a	n/a	n/a
2271.65771484375	n/a	WORD	4652355	wordpools/wasnorm_wordpool_576.txt	LTP331	ltpFR2	1	10	CONVICT	371	n/a	n/a	0	0	0
2274.23876953125	n/a	WORD	4657641	wordpools/wasnorm_wordpool_576.txt	LTP331	ltpFR2	1	10	OZONE	996	n/a	n/a	0	0	0
2276.9208984375	n/a	WORD	4663134	wordpools/wasnorm_wordpool_576.txt	LTP331	ltpFR2	1	10	CLOCK	325	n/a	n/a	0	0	0
2279.453125	n/a	WORD	4668320	wordpools/wasnorm_wordpool_576.txt	LTP331	ltpFR2	1	10	DRUG	501	n/a	n/a	0	0	0
2282.26904296875	n/a	WORD	4674087	wordpools/wasnorm_wordpool_576.txt	LTP331	ltpFR2	1	10	PUDDLE	1140	n/a	n/a	0	0	0
2285.06689453125	n/a	WORD	4679817	wordpools/wasnorm_wordpool_576.txt	LTP331	ltpFR2	1	10	TURTLE	1522	n/a	n/a	0	0	0
2287.56689453125	n/a	WORD	4684937	wordpools/wasnorm_wordpool_576.txt	LTP331	ltpFR2	1	10	BOX	159	n/a	n/a	0	0	0
2290.01513671875	n/a	WORD	4689951	wordpools/wasnorm_wordpool_576.txt	LTP331	ltpFR2	1	10	RELISH	1183	n/a	n/a	0	0	0
2292.59814453125	n/a	WORD	4695241	wordpools/wasnorm_wordpool_576.txt	LTP331	ltpFR2	1	10	KETCHUP	771	n/a	n/a	0	0	0
2295.09619140625	n/a	WORD	4700357	wordpools/wasnorm_wordpool_576.txt	LTP331	ltpFR2	1	10	PLATE	1086	n/a	n/a	0	0	0
2297.87890625	n/a	WORD	4706056	wordpools/wasnorm_wordpool_576.txt	LTP331	ltpFR2	1	10	ROCKET	1202	n/a	n/a	0	0	0
2300.326171875	n/a	WORD	4711068	wordpools/wasnorm_wordpool_576.txt	LTP331	ltpFR2	1	10	PAPER	1011	n/a	n/a	0	0	0
2302.9580078125	n/a	WORD	4716458	wordpools/wasnorm_wordpool_576.txt	LTP331	ltpFR2	1	10	SCRIBBLE	1256	n/a	n/a	0	0	0
2305.5751953125	n/a	WORD	4721818	wordpools/wasnorm_wordpool_576.txt	LTP331	ltpFR2	1	10	POLICE	1098	n/a	n/a	0	0	0
2308.38916015625	n/a	WORD	4727581	wordpools/wasnorm_wordpool_576.txt	LTP331	ltpFR2	1	10	HONEY	713	n/a	n/a	0	0	0
2310.8720703125	n/a	WORD	4732666	wordpools/wasnorm_wordpool_576.txt	LTP331	ltpFR2	1	10	OINTMENT	974	n/a	n/a	0	0	0
2313.60400390625	n/a	WORD	4738261	wordpools/wasnorm_wordpool_576.txt	LTP331	ltpFR2	1	10	FRAGRANCE	599	n/a	n/a	0	0	0
2316.0693359375	n/a	WORD	4743310	wordpools/wasnorm_wordpool_576.txt	LTP331	ltpFR2	1	10	CUPBOARD	425	n/a	n/a	0	0	0
2318.75244140625	n/a	WORD	4748805	wordpools/wasnorm_wordpool_576.txt	LTP331	ltpFR2	1	10	RIVER	1194	n/a	n/a	0	0	0
2321.43310546875	n/a	WORD	4754295	wordpools/wasnorm_wordpool_576.txt	LTP331	ltpFR2	1	10	CORAL	378	n/a	n/a	0	0	0
2323.9814453125	n/a	WORD	4759514	wordpools/wasnorm_wordpool_576.txt	LTP331	ltpFR2	1	10	PARROT	1015	n/a	n/a	0	0	0
2326.48046875	n/a	WORD	4764632	wordpools/wasnorm_wordpool_576.txt	LTP331	ltpFR2	1	10	LAVA	804	n/a	n/a	0	0	0
2329.0791015625	n/a	WORD	4769954	wordpools/wasnorm_wordpool_576.txt	LTP331	ltpFR2	1	10	VAGRANT	1544	n/a	n/a	0	0	0
2331.6455078125	n/a	WORD	4775210	wordpools/wasnorm_wordpool_576.txt	LTP331	ltpFR2	1	10	VIRUS	1572	n/a	n/a	0	0	0
2333.26025390625	n/a	START	4778517	n/a	LTP331	ltpFR2	1	n/a	n/a	n/a	14	n/a	n/a	n/a	n/a
2334.37353515625	n/a	DISTRACTOR	4780797	n/a	LTP331	ltpFR2	1	10	n/a	n/a	n/a	n/a	0	0	0
2334.37646484375	n/a	PROB	4780803	n/a	LTP331	ltpFR2	1	n/a	n/a	n/a	14	15	6	2	7
2336.29248046875	n/a	PROB	4784727	n/a	LTP331	ltpFR2	1	n/a	n/a	n/a	14	18	5	5	8
2338.20849609375	n/a	PROB	4788651	n/a	LTP331	ltpFR2	1	n/a	n/a	n/a	14	18	4	8	6
2339.79150390625	n/a	PROB	4791893	n/a	LTP331	ltpFR2	1	n/a	n/a	n/a	14	10	1	8	1
2341.08935546875	n/a	PROB	4794551	n/a	LTP331	ltpFR2	1	n/a	n/a	n/a	14	8	5	1	2
2342.42236328125	n/a	PROB	4797281	n/a	LTP331	ltpFR2	1	n/a	n/a	n/a	14	18	3	8	7
2344.10546875	n/a	PROB	4800728	n/a	LTP331	ltpFR2	1	n/a	n/a	n/a	14	17	8	6	3
2345.63818359375	n/a	PROB	4803867	n/a	LTP331	ltpFR2	1	n/a	n/a	n/a	14	18	8	6	4
2347.20361328125	n/a	PROB	4807073	n/a	LTP331	ltpFR2	1	n/a	n/a	n/a	14	12	1	9	2
2348.72021484375	n/a	PROB	4810179	n/a	LTP331	ltpFR2	1	n/a	n/a	n/a	14	21	8	5	8
2350.45166015625	n/a	PROB	4813725	n/a	LTP331	ltpFR2	1	n/a	n/a	n/a	14	6	1	1	4
2351.86865234375	n/a	PROB	4816627	n/a	LTP331	ltpFR2	1	n/a	n/a	n/a	14	19	7	3	9
2353.400390625	n/a	PROB	4819764	n/a	LTP331	ltpFR2	1	n/a	n/a	n/a	14	14	4	7	3
2354.88427734375	n/a	PROB	4822803	n/a	LTP331	ltpFR2	1	n/a	n/a	n/a	14	14	7	3	4
2356.12255859375	n/a	STOP	4825339	n/a	LTP331	ltpFR2	1	n/a	n/a	n/a	14	n/a	n/a	n/a	n/a
2359.0986328125	n/a	REC_START	4831434	n/a	LTP331	ltpFR2	1	10	n/a	n/a	n/a	n/a	0	0	0
2362.86572265625	n/a	REC_WORD	4839149	wordpools/wasnorm_wordpool_576.txt	LTP331	ltpFR2	1	10	OZONE	996	n/a	n/a	0	0	0
2363.54248046875	n/a	REC_WORD	4840535	wordpools/wasnorm_wordpool_576.txt	LTP331	ltpFR2	1	10	CONVICT	371	n/a	n/a	0	0	0
2364.357421875	n/a	REC_WORD	4842204	wordpools/wasnorm_wordpool_576.txt	LTP331	ltpFR2	1	10	DRUG	501	n/a	n/a	0	0	0
2366.7685546875	n/a	REC_WORD	4847142	wordpools/wasnorm_wordpool_576.txt	LTP331	ltpFR2	1	10	CLOCK	325	n/a	n/a	0	0	0
2367.1865234375	n/a	REC_WORD	4847998	wordpools/wasnorm_wordpool_576.txt	LTP331	ltpFR2	1	10	PUDDLE	1140	n/a	n/a	0	0	0
2367.66650390625	n/a	REC_WORD	4848981	wordpools/wasnorm_wordpool_576.txt	LTP331	ltpFR2	1	10	TURTLE	1522	n/a	n/a	0	0	0
2373.04443359375	n/a	REC_WORD	4859995	wordpools/wasnorm_wordpool_576.txt	LTP331	ltpFR2	1	10	BOX	159	n/a	n/a	0	0	0
2373.50537109375	n/a	REC_WORD	4860939	wordpools/wasnorm_wordpool_576.txt	LTP331	ltpFR2	1	10	RELISH	1183	n/a	n/a	0	0	0
2374.02880859375	n/a	REC_WORD	4862011	wordpools/wasnorm_wordpool_576.txt	LTP331	ltpFR2	1	10	KETCHUP	771	n/a	n/a	0	0	0
2374.61572265625	n/a	REC_WORD	4863213	wordpools/wasnorm_wordpool_576.txt	LTP331	ltpFR2	1	10	PLATE	1086	n/a	n/a	0	0	0
2375.0517578125	n/a	REC_WORD	4864106	wordpools/wasnorm_wordpool_576.txt	LTP331	ltpFR2	1	10	ROCKET	1202	n/a	n/a	0	0	0
2375.62744140625	n/a	REC_WORD	4865285	wordpools/wasnorm_wordpool_576.txt	LTP331	ltpFR2	1	10	SCRIBBLE	1256	n/a	n/a	0	0	0
2376.36865234375	n/a	REC_WORD	4866803	wordpools/wasnorm_wordpool_576.txt	LTP331	ltpFR2	1	10	PAPER	1011	n/a	n/a	0	0	0
2378.04443359375	n/a	REC_WORD	4870235	wordpools/wasnorm_wordpool_576.txt	LTP331	ltpFR2	1	10	POLICE	1098	n/a	n/a	0	0	0
2379.640625	n/a	REC_WORD	4873504	wordpools/wasnorm_wordpool_576.txt	LTP331	ltpFR2	1	10	HONEY	713	n/a	n/a	0	0	0
2380.16943359375	n/a	REC_WORD	4874587	wordpools/wasnorm_wordpool_576.txt	LTP331	ltpFR2	1	10	OINTMENT	974	n/a	n/a	0	0	0
2380.71484375	n/a	REC_WORD	4875704	wordpools/wasnorm_wordpool_576.txt	LTP331	ltpFR2	1	10	FRAGRANCE	599	n/a	n/a	0	0	0
2381.607421875	n/a	REC_WORD	4877532	wordpools/wasnorm_wordpool_576.txt	LTP331	ltpFR2	1	10	CABINET	212	n/a	n/a	0	0	0
2384.99560546875	n/a	REC_WORD	4884471	wordpools/wasnorm_wordpool_576.txt	LTP331	ltpFR2	1	10	RIVER	1194	n/a	n/a	0	0	0
2385.91552734375	n/a	REC_WORD	4886355	wordpools/wasnorm_wordpool_576.txt	LTP331	ltpFR2	1	10	CORAL	378	n/a	n/a	0	0	0
2386.69287109375	n/a	REC_WORD	4887947	wordpools/wasnorm_wordpool_576.txt	LTP331	ltpFR2	1	10	PARROT	1015	n/a	n/a	0	0	0
2387.26953125	n/a	REC_WORD	4889128	wordpools/wasnorm_wordpool_576.txt	LTP331	ltpFR2	1	10	VIRUS	1572	n/a	n/a	0	0	0
2388.23876953125	n/a	REC_WORD	4891113	wordpools/wasnorm_wordpool_576.txt	LTP331	ltpFR2	1	10	VAGRANT	1544	n/a	n/a	0	0	0
2389.005859375	n/a	REC_WORD	4892684	wordpools/wasnorm_wordpool_576.txt	LTP331	ltpFR2	1	10	LAVA	804	n/a	n/a	0	0	0
2413.9150390625	n/a	REC_WORD	4943698	wordpools/wasnorm_wordpool_576.txt	LTP331	ltpFR2	1	10	CLOCK	325	n/a	n/a	0	0	0
2449.5712890625	n/a	WORD	5016722	wordpools/wasnorm_wordpool_576.txt	LTP331	ltpFR2	1	11	SCULPTURE	1258	n/a	n/a	0	0	0
2452.2021484375	n/a	WORD	5022110	wordpools/wasnorm_wordpool_576.txt	LTP331	ltpFR2	1	11	PLAYGROUND	1087	n/a	n/a	0	0	0
2454.65234375	n/a	WORD	5027128	wordpools/wasnorm_wordpool_576.txt	LTP331	ltpFR2	1	11	HEDGE	699	n/a	n/a	0	0	0
2457.31591796875	n/a	WORD	5032583	wordpools/wasnorm_wordpool_576.txt	LTP331	ltpFR2	1	11	HOOK	715	n/a	n/a	0	0	0
2459.96533203125	n/a	WORD	5038009	wordpools/wasnorm_wordpool_576.txt	LTP331	ltpFR2	1	11	SMOG	1330	n/a	n/a	0	0	0
2462.43017578125	n/a	WORD	5043057	wordpools/wasnorm_wordpool_576.txt	LTP331	ltpFR2	1	11	SLIDE	1326	n/a	n/a	0	0	0
2464.92919921875	n/a	WORD	5048175	wordpools/wasnorm_wordpool_576.txt	LTP331	ltpFR2	1	11	RAZOR	1171	n/a	n/a	0	0	0
2467.529296875	n/a	WORD	5053500	wordpools/wasnorm_wordpool_576.txt	LTP331	ltpFR2	1	11	PROTON	1132	n/a	n/a	0	0	0
2469.96044921875	n/a	WORD	5058479	wordpools/wasnorm_wordpool_576.txt	LTP331	ltpFR2	1	11	BOARD	143	n/a	n/a	0	0	0
2472.4423828125	n/a	WORD	5063562	wordpools/wasnorm_wordpool_576.txt	LTP331	ltpFR2	1	11	CROWN	415	n/a	n/a	0	0	0
2475.25732421875	n/a	WORD	5069327	wordpools/wasnorm_wordpool_576.txt	LTP331	ltpFR2	1	11	THRONE	1461	n/a	n/a	0	0	0
2477.92236328125	n/a	WORD	5074785	wordpools/wasnorm_wordpool_576.txt	LTP331	ltpFR2	1	11	DIVER	476	n/a	n/a	0	0	0
2480.58935546875	n/a	WORD	5080247	wordpools/wasnorm_wordpool_576.txt	LTP331	ltpFR2	1	11	MAPLE	866	n/a	n/a	0	0	0
2483.25341796875	n/a	WORD	5085703	wordpools/wasnorm_wordpool_576.txt	LTP331	ltpFR2	1	11	PASTRY	1022	n/a	n/a	0	0	0
2486.068359375	n/a	WORD	5091468	wordpools/wasnorm_wordpool_576.txt	LTP331	ltpFR2	1	11	GRILL	661	n/a	n/a	0	0	0
2488.568359375	n/a	WORD	5096588	wordpools/wasnorm_wordpool_576.txt	LTP331	ltpFR2	1	11	KIDNEY	776	n/a	n/a	0	0	0
2490.99951171875	n/a	WORD	5101567	wordpools/wasnorm_wordpool_576.txt	LTP331	ltpFR2	1	11	JEANS	752	n/a	n/a	0	0	0
2493.732421875	n/a	WORD	5107164	wordpools/wasnorm_wordpool_576.txt	LTP331	ltpFR2	1	11	WHISKERS	1605	n/a	n/a	0	0	0
2496.43017578125	n/a	WORD	5112689	wordpools/wasnorm_wordpool_576.txt	LTP331	ltpFR2	1	11	ORANGE	980	n/a	n/a	0	0	0
2499.24560546875	n/a	WORD	5118455	wordpools/wasnorm_wordpool_576.txt	LTP331	ltpFR2	1	11	LIVER	833	n/a	n/a	0	0	0
2501.84521484375	n/a	WORD	5123779	wordpools/wasnorm_wordpool_576.txt	LTP331	ltpFR2	1	11	ROOSTER	1209	n/a	n/a	0	0	0
2504.3095703125	n/a	WORD	5128826	wordpools/wasnorm_wordpool_576.txt	LTP331	ltpFR2	1	11	TORTOISE	1486	n/a	n/a	0	0	0
2507.09130859375	n/a	WORD	5134523	wordpools/wasnorm_wordpool_576.txt	LTP331	ltpFR2	1	11	CARROT	249	n/a	n/a	0	0	0
2509.65869140625	n/a	WORD	5139781	wordpools/wasnorm_wordpool_576.txt	LTP331	ltpFR2	1	11	LAGOON	795	n/a	n/a	0	0	0
2511.2734375	n/a	START	5143088	n/a	LTP331	ltpFR2	1	n/a	n/a	n/a	15	n/a	n/a	n/a	n/a
2512.20751953125	n/a	DISTRACTOR	5145001	n/a	LTP331	ltpFR2	1	11	n/a	n/a	n/a	n/a	0	0	0
2512.22265625	n/a	PROB	5145032	n/a	LTP331	ltpFR2	1	n/a	n/a	n/a	15	12	5	1	6
2514.58935546875	n/a	PROB	5149879	n/a	LTP331	ltpFR2	1	n/a	n/a	n/a	15	13	2	4	7
2516.03759765625	n/a	PROB	5152845	n/a	LTP331	ltpFR2	1	n/a	n/a	n/a	15	17	1	8	8
2517.654296875	n/a	PROB	5156156	n/a	LTP331	ltpFR2	1	n/a	n/a	n/a	15	20	6	5	9
2519.302734375	n/a	PROB	5159532	n/a	LTP331	ltpFR2	1	n/a	n/a	n/a	15	11	3	2	6
2520.6865234375	n/a	PROB	5162366	n/a	LTP331	ltpFR2	1	n/a	n/a	n/a	15	5	1	3	1
2522.00146484375	n/a	PROB	5165059	n/a	LTP331	ltpFR2	1	n/a	n/a	n/a	15	11	7	3	1
2523.267578125	n/a	PROB	5167652	n/a	LTP331	ltpFR2	1	n/a	n/a	n/a	15	11	3	4	4
2525.0498046875	n/a	PROB	5171302	n/a	LTP331	ltpFR2	1	n/a	n/a	n/a	15	9	2	1	6
2526.41552734375	n/a	PROB	5174099	n/a	LTP331	ltpFR2	1	n/a	n/a	n/a	15	9	5	2	2
2528.24755859375	n/a	PROB	5177851	n/a	LTP331	ltpFR2	1	n/a	n/a	n/a	15	18	7	4	7
2529.99755859375	n/a	PROB	5181435	n/a	LTP331	ltpFR2	1	n/a	n/a	n/a	15	10	4	3	3
2532.16259765625	n/a	PROB	5185869	n/a	LTP331	ltpFR2	1	n/a	n/a	n/a	15	18	9	8	1
2533.99560546875	n/a	STOP	5189623	n/a	LTP331	ltpFR2	1	n/a	n/a	n/a	15	n/a	n/a	n/a	n/a
2537.12841796875	n/a	REC_START	5196039	n/a	LTP331	ltpFR2	1	11	n/a	n/a	n/a	n/a	0	0	0
2541.28857421875	n/a	REC_WORD	5204559	wordpools/wasnorm_wordpool_576.txt	LTP331	ltpFR2	1	11	SCULPTURE	1258	n/a	n/a	0	0	0
2542.03466796875	n/a	REC_WORD	5206087	wordpools/wasnorm_wordpool_576.txt	LTP331	ltpFR2	1	11	PLAYGROUND	1087	n/a	n/a	0	0	0
2543.2724609375	n/a	REC_WORD	5208622	wordpools/wasnorm_wordpool_576.txt	LTP331	ltpFR2	1	11	HEDGE	699	n/a	n/a	0	0	0
2544.02978515625	n/a	REC_WORD	5210173	wordpools/wasnorm_wordpool_576.txt	LTP331	ltpFR2	1	11	HOOK	715	n/a	n/a	0	0	0
2546.14794921875	n/a	REC_WORD	5214511	wordpools/wasnorm_wordpool_576.txt	LTP331	ltpFR2	1	11	SMOG	1330	n/a	n/a	0	0	0
2546.77490234375	n/a	REC_WORD	5215795	wordpools/wasnorm_wordpool_576.txt	LTP331	ltpFR2	1	11	SLIDE	1326	n/a	n/a	0	0	0
2547.3466796875	n/a	REC_WORD	5216966	wordpools/wasnorm_wordpool_576.txt	LTP331	ltpFR2	1	11	RAZOR	1171	n/a	n/a	0	0	0
2548.0986328125	n/a	REC_WORD	5218506	wordpools/wasnorm_wordpool_576.txt	LTP331	ltpFR2	1	11	PROTON	1132	n/a	n/a	0	0	0
2549.45458984375	n/a	REC_WORD	5221283	wordpools/wasnorm_wordpool_576.txt	LTP331	ltpFR2	1	11	BOARD	143	n/a	n/a	0	0	0
2549.9658203125	n/a	REC_WORD	5222330	wordpools/wasnorm_wordpool_576.txt	LTP331	ltpFR2	1	11	CROWN	415	n/a	n/a	0	0	0
2550.58154296875	n/a	REC_WORD	5223591	wordpools/wasnorm_wordpool_576.txt	LTP331	ltpFR2	1	11	THRONE	1461	n/a	n/a	0	0	0
2552.39794921875	n/a	REC_WORD	5227311	wordpools/wasnorm_wordpool_576.txt	LTP331	ltpFR2	1	11	DIVER	476	n/a	n/a	0	0	0
2552.86962890625	n/a	REC_WORD	5228277	wordpools/wasnorm_wordpool_576.txt	LTP331	ltpFR2	1	11	MAPLE	866	n/a	n/a	0	0	0
2554.31494140625	n/a	REC_WORD	5231237	wordpools/wasnorm_wordpool_576.txt	LTP331	ltpFR2	1	11	PASTRY	1022	n/a	n/a	0	0	0
2554.98779296875	n/a	REC_WORD	5232615	wordpools/wasnorm_wordpool_576.txt	LTP331	ltpFR2	1	11	GRILL	661	n/a	n/a	0	0	0
2556.40185546875	n/a	REC_WORD	5235511	wordpools/wasnorm_wordpool_576.txt	LTP331	ltpFR2	1	11	KIDNEY	776	n/a	n/a	0	0	0
2557.02880859375	n/a	REC_WORD	5236795	wordpools/wasnorm_wordpool_576.txt	LTP331	ltpFR2	1	11	LIVER	833	n/a	n/a	0	0	0
2557.78564453125	n/a	REC_WORD	5238345	wordpools/wasnorm_wordpool_576.txt	LTP331	ltpFR2	1	11	JEANS	752	n/a	n/a	0	0	0
2561.31494140625	n/a	REC_WORD	5245573	wordpools/wasnorm_wordpool_576.txt	LTP331	ltpFR2	1	11	WHISKERS	1605	n/a	n/a	0	0	0
2563.56982421875	n/a	REC_WORD	5250191	wordpools/wasnorm_wordpool_576.txt	LTP331	ltpFR2	1	11	ORANGE	980	n/a	n/a	0	0	0
2568.7158203125	n/a	REC_WORD	5260730	wordpools/wasnorm_wordpool_576.txt	LTP331	ltpFR2	1	11	ROOSTER	1209	n/a	n/a	0	0	0
2569.3447265625	n/a	REC_WORD	5262018	wordpools/wasnorm_wordpool_576.txt	LTP331	ltpFR2	1	11	TORTOISE	1486	n/a	n/a	0	0	0
2571.23583984375	n/a	REC_WORD	5265891	wordpools/wasnorm_wordpool_576.txt	LTP331	ltpFR2	1	11	CARROT	249	n/a	n/a	0	0	0
2627.58447265625	n/a	DISTRACTOR	5381293	n/a	LTP331	ltpFR2	1	12	n/a	n/a	n/a	n/a	0	0	0
2627.58447265625	n/a	START	5381293	n/a	LTP331	ltpFR2	1	n/a	n/a	n/a	16	n/a	n/a	n/a	n/a
2627.60009765625	n/a	PROB	5381325	n/a	LTP331	ltpFR2	1	n/a	n/a	n/a	16	18	7	6	5
2629.3984375	n/a	PROB	5385008	n/a	LTP331	ltpFR2	1	n/a	n/a	n/a	16	13	8	2	3
2630.79931640625	n/a	PROB	5387877	n/a	LTP331	ltpFR2	1	n/a	n/a	n/a	16	19	6	4	9
2632.7314453125	n/a	PROB	5391834	n/a	LTP331	ltpFR2	1	n/a	n/a	n/a	16	16	5	3	8
2634.11328125	n/a	PROB	5394664	n/a	LTP331	ltpFR2	1	n/a	n/a	n/a	16	16	6	9	1
2635.71337890625	n/a	PROB	5397941	n/a	LTP331	ltpFR2	1	n/a	n/a	n/a	16	11	6	1	4
2637.328125	n/a	PROB	5401248	n/a	LTP331	ltpFR2	1	n/a	n/a	n/a	16	6	1	2	3
2638.67822265625	n/a	PROB	5404013	n/a	LTP331	ltpFR2	1	n/a	n/a	n/a	16	12	6	3	3
2640.52734375	n/a	PROB	5407800	n/a	LTP331	ltpFR2	1	n/a	n/a	n/a	16	9	1	7	1
2641.9755859375	n/a	PROB	5410766	n/a	LTP331	ltpFR2	1	n/a	n/a	n/a	16	16	8	1	7
2643.50830078125	n/a	PROB	5413905	n/a	LTP331	ltpFR2	1	n/a	n/a	n/a	16	19	5	6	8
2644.97412109375	n/a	PROB	5416907	n/a	LTP331	ltpFR2	1	n/a	n/a	n/a	16	14	5	8	1
2646.357421875	n/a	PROB	5419740	n/a	LTP331	ltpFR2	1	n/a	n/a	n/a	16	18	9	4	5
2648.28955078125	n/a	PROB	5423697	n/a	LTP331	ltpFR2	1	n/a	n/a	n/a	16	18	7	2	9
2650.58935546875	n/a	STOP	5428407	n/a	LTP331	ltpFR2	1	n/a	n/a	n/a	16	n/a	n/a	n/a	n/a
2652.5712890625	n/a	WORD	5432466	wordpools/wasnorm_wordpool_576.txt	LTP331	ltpFR2	1	12	PATROL	1027	n/a	n/a	0	0	0
2655.08544921875	n/a	WORD	5437615	wordpools/wasnorm_wordpool_576.txt	LTP331	ltpFR2	1	12	MONSTER	912	n/a	n/a	0	0	0
2657.78564453125	n/a	WORD	5443145	wordpools/wasnorm_wordpool_576.txt	LTP331	ltpFR2	1	12	PALACE	1006	n/a	n/a	0	0	0
2660.50048828125	n/a	WORD	5448705	wordpools/wasnorm_wordpool_576.txt	LTP331	ltpFR2	1	12	IDOL	733	n/a	n/a	0	0	0
2663.1982421875	n/a	WORD	5454230	wordpools/wasnorm_wordpool_576.txt	LTP331	ltpFR2	1	12	COLONEL	348	n/a	n/a	0	0	0
2665.88134765625	n/a	WORD	5459725	wordpools/wasnorm_wordpool_576.txt	LTP331	ltpFR2	1	12	PIANO	1057	n/a	n/a	0	0	0
2668.6962890625	n/a	WORD	5465490	wordpools/wasnorm_wordpool_576.txt	LTP331	ltpFR2	1	12	GRAVEL	659	n/a	n/a	0	0	0
2671.24462890625	n/a	WORD	5470709	wordpools/wasnorm_wordpool_576.txt	LTP331	ltpFR2	1	12	TILE	1468	n/a	n/a	0	0	0
2673.99365234375	n/a	WORD	5476339	wordpools/wasnorm_wordpool_576.txt	LTP331	ltpFR2	1	12	BISON	131	n/a	n/a	0	0	0
2676.57666015625	n/a	WORD	5481629	wordpools/wasnorm_wordpool_576.txt	LTP331	ltpFR2	1	12	LEOPARD	812	n/a	n/a	0	0	0
2679.1904296875	n/a	WORD	5486982	wordpools/wasnorm_wordpool_576.txt	LTP331	ltpFR2	1	12	BLOUSE	139	n/a	n/a	0	0	0
2681.82373046875	n/a	WORD	5492375	wordpools/wasnorm_wordpool_576.txt	LTP331	ltpFR2	1	12	SALMON	1227	n/a	n/a	0	0	0
2684.48876953125	n/a	WORD	5497833	wordpools/wasnorm_wordpool_576.txt	LTP331	ltpFR2	1	12	CHURCH	307	n/a	n/a	0	0	0
2687.0205078125	n/a	WORD	5503018	wordpools/wasnorm_wordpool_576.txt	LTP331	ltpFR2	1	12	SPOON	1357	n/a	n/a	0	0	0
2689.70361328125	n/a	WORD	5508513	wordpools/wasnorm_wordpool_576.txt	LTP331	ltpFR2	1	12	ROBIN	1199	n/a	n/a	0	0	0
2692.134765625	n/a	WORD	5513492	wordpools/wasnorm_wordpool_576.txt	LTP331	ltpFR2	1	12	HAMPER	682	n/a	n/a	0	0	0
2694.73388671875	n/a	WORD	5518815	wordpools/wasnorm_wordpool_576.txt	LTP331	ltpFR2	1	12	WASHER	1592	n/a	n/a	0	0	0
2697.33154296875	n/a	WORD	5524135	wordpools/wasnorm_wordpool_576.txt	LTP331	ltpFR2	1	12	BUREAU	199	n/a	n/a	0	0	0
2699.99755859375	n/a	WORD	5529595	wordpools/wasnorm_wordpool_576.txt	LTP331	ltpFR2	1	12	IGLOO	734	n/a	n/a	0	0	0
2702.58056640625	n/a	WORD	5534885	wordpools/wasnorm_wordpool_576.txt	LTP331	ltpFR2	1	12	PENGUIN	1044	n/a	n/a	0	0	0
2705.3779296875	n/a	WORD	5540614	wordpools/wasnorm_wordpool_576.txt	LTP331	ltpFR2	1	12	BLADE	134	n/a	n/a	0	0	0
2707.8779296875	n/a	WORD	5545734	wordpools/wasnorm_wordpool_576.txt	LTP331	ltpFR2	1	12	SPACE	1345	n/a	n/a	0	0	0
2710.642578125	n/a	WORD	5551396	wordpools/wasnorm_wordpool_576.txt	LTP331	ltpFR2	1	12	MOP	916	n/a	n/a	0	0	0
2713.44091796875	n/a	WORD	5557127	wordpools/wasnorm_wordpool_576.txt	LTP331	ltpFR2	1	12	DRESSER	496	n/a	n/a	0	0	0
2715.056640625	n/a	START	5560436	n/a	LTP331	ltpFR2	1	n/a	n/a	n/a	17	n/a	n/a	n/a	n/a
2716.099609375	n/a	DISTRACTOR	5562572	n/a	LTP331	ltpFR2	1	12	n/a	n/a	n/a	n/a	0	0	0
2716.10595703125	n/a	PROB	5562585	n/a	LTP331	ltpFR2	1	n/a	n/a	n/a	17	10	1	1	8
2717.82275390625	n/a	PROB	5566101	n/a	LTP331	ltpFR2	1	n/a	n/a	n/a	17	17	7	5	5
2719.5888671875	n/a	PROB	5569718	n/a	LTP331	ltpFR2	1	n/a	n/a	n/a	17	14	3	9	2
2721.0537109375	n/a	PROB	5572718	n/a	LTP331	ltpFR2	1	n/a	n/a	n/a	17	6	4	1	1
2722.28564453125	n/a	PROB	5575241	n/a	LTP331	ltpFR2	1	n/a	n/a	n/a	17	8	3	4	1
2723.68701171875	n/a	PROB	5578111	n/a	LTP331	ltpFR2	1	n/a	n/a	n/a	17	15	8	5	3
2725.18505859375	n/a	PROB	5581179	n/a	LTP331	ltpFR2	1	n/a	n/a	n/a	17	16	7	1	8
2726.71875	n/a	PROB	5584320	n/a	LTP331	ltpFR2	1	n/a	n/a	n/a	17	6	2	2	2
2727.93408203125	n/a	PROB	5586809	n/a	LTP331	ltpFR2	1	n/a	n/a	n/a	17	12	1	4	7
2729.25	n/a	PROB	5589504	n/a	LTP331	ltpFR2	1	n/a	n/a	n/a	17	13	1	7	5
2731.3818359375	n/a	PROB	5593870	n/a	LTP331	ltpFR2	1	n/a	n/a	n/a	17	16	8	7	1
2732.94775390625	n/a	PROB	5597077	n/a	LTP331	ltpFR2	1	n/a	n/a	n/a	17	16	4	5	7
2734.34716796875	n/a	PROB	5599943	n/a	LTP331	ltpFR2	1	n/a	n/a	n/a	17	21	7	7	7
2735.64697265625	n/a	PROB	5602605	n/a	LTP331	ltpFR2	1	n/a	n/a	n/a	17	19	1	9	9
2737.52587890625	n/a	STOP	5606453	n/a	LTP331	ltpFR2	1	n/a	n/a	n/a	17	n/a	n/a	n/a	n/a
2740.89501953125	n/a	REC_START	5613353	n/a	LTP331	ltpFR2	1	12	n/a	n/a	n/a	n/a	0	0	0
2741.93798828125	n/a	REC_WORD	5615489	wordpools/wasnorm_wordpool_576.txt	LTP331	ltpFR2	1	12	MOP	916	n/a	n/a	0	0	0
2742.76513671875	n/a	REC_WORD	5617183	wordpools/wasnorm_wordpool_576.txt	LTP331	ltpFR2	1	12	DRESSER	496	n/a	n/a	0	0	0
2743.3701171875	n/a	REC_WORD	5618422	wordpools/wasnorm_wordpool_576.txt	LTP331	ltpFR2	1	12	SPACE	1345	n/a	n/a	0	0	0
2744.4208984375	n/a	REC_WORD	5620574	wordpools/wasnorm_wordpool_576.txt	LTP331	ltpFR2	1	12	BLADE	134	n/a	n/a	0	0	0
2747.76318359375	n/a	REC_WORD	5627419	wordpools/wasnorm_wordpool_576.txt	LTP331	ltpFR2	1	12	BUREAU	199	n/a	n/a	0	0	0
2749.18701171875	n/a	REC_WORD	5630335	wordpools/wasnorm_wordpool_576.txt	LTP331	ltpFR2	1	12	IGLOO	734	n/a	n/a	0	0	0
2749.69287109375	n/a	REC_WORD	5631371	wordpools/wasnorm_wordpool_576.txt	LTP331	ltpFR2	1	12	PENGUIN	1044	n/a	n/a	0	0	0
2750.548828125	n/a	REC_WORD	5633124	wordpools/wasnorm_wordpool_576.txt	LTP331	ltpFR2	1	12	ROBIN	1199	n/a	n/a	0	0	0
2752.85009765625	n/a	REC_WORD	5637837	wordpools/wasnorm_wordpool_576.txt	LTP331	ltpFR2	1	12	HAMPER	682	n/a	n/a	0	0	0
2753.533203125	n/a	REC_WORD	5639236	wordpools/wasnorm_wordpool_576.txt	LTP331	ltpFR2	1	12	WASHER	1592	n/a	n/a	0	0	0
2756.27099609375	n/a	REC_WORD	5644843	wordpools/wasnorm_wordpool_576.txt	LTP331	ltpFR2	1	12	CHURCH	307	n/a	n/a	0	0	0
2756.81396484375	n/a	REC_WORD	5645955	wordpools/wasnorm_wordpool_576.txt	LTP331	ltpFR2	1	12	SPOON	1357	n/a	n/a	0	0	0
2757.4169921875	n/a	REC_WORD	5647190	wordpools/wasnorm_wordpool_576.txt	LTP331	ltpFR2	1	12	SALMON	1227	n/a	n/a	0	0	0
2758.09716796875	n/a	REC_WORD	5648583	wordpools/wasnorm_wordpool_576.txt	LTP331	ltpFR2	1	12	BLOUSE	139	n/a	n/a	0	0	0
2760.46923828125	n/a	REC_WORD	5653441	wordpools/wasnorm_wordpool_576.txt	LTP331	ltpFR2	1	12	LEOPARD	812	n/a	n/a	0	0	0
2761.26025390625	n/a	REC_WORD	5655061	wordpools/wasnorm_wordpool_576.txt	LTP331	ltpFR2	1	12	BUFFALO	186	n/a	n/a	0	0	0
2761.833984375	n/a	REC_WORD	5656236	wordpools/wasnorm_wordpool_576.txt	LTP331	ltpFR2	1	12	TILE	1468	n/a	n/a	0	0	0
2762.35205078125	n/a	REC_WORD	5657297	wordpools/wasnorm_wordpool_576.txt	LTP331	ltpFR2	1	12	GRAVEL	659	n/a	n/a	0	0	0
2762.88427734375	n/a	REC_WORD	5658387	wordpools/wasnorm_wordpool_576.txt	LTP331	ltpFR2	1	12	PIANO	1057	n/a	n/a	0	0	0
2763.50537109375	n/a	REC_WORD	5659659	wordpools/wasnorm_wordpool_576.txt	LTP331	ltpFR2	1	12	COLONEL	348	n/a	n/a	0	0	0
2767.10693359375	n/a	REC_WORD	5667035	wordpools/wasnorm_wordpool_576.txt	LTP331	ltpFR2	1	12	CASTLE	256	n/a	n/a	0	0	0
2767.7861328125	n/a	REC_WORD	5668426	wordpools/wasnorm_wordpool_576.txt	LTP331	ltpFR2	1	12	IDOL	733	n/a	n/a	0	0	0
2771.87939453125	n/a	REC_WORD	5676809	wordpools/wasnorm_wordpool_576.txt	LTP331	ltpFR2	1	12	BEAST	108	n/a	n/a	0	0	0
2774.58203125	n/a	REC_WORD	5682344	wordpools/wasnorm_wordpool_576.txt	LTP331	ltpFR2	1	12	MONSTER	912	n/a	n/a	0	0	0
2776.87646484375	n/a	REC_WORD	5687043	wordpools/wasnorm_wordpool_576.txt	LTP331	ltpFR2	1	12	PATROL	1027	n/a	n/a	0	0	0
2831.349609375	n/a	DISTRACTOR	5798604	n/a	LTP331	ltpFR2	1	13	n/a	n/a	n/a	n/a	0	0	0
2831.349609375	n/a	START	5798604	n/a	LTP331	ltpFR2	1	n/a	n/a	n/a	18	n/a	n/a	n/a	n/a
2831.36669921875	n/a	PROB	5798639	n/a	LTP331	ltpFR2	1	n/a	n/a	n/a	18	18	7	9	2
2832.91552734375	n/a	PROB	5801811	n/a	LTP331	ltpFR2	1	n/a	n/a	n/a	18	17	3	9	5
2834.61572265625	n/a	PROB	5805293	n/a	LTP331	ltpFR2	1	n/a	n/a	n/a	18	15	9	4	2
2836.16357421875	n/a	PROB	5808463	n/a	LTP331	ltpFR2	1	n/a	n/a	n/a	18	17	8	7	2
2839.4287109375	n/a	PROB	5815150	n/a	LTP331	ltpFR2	1	n/a	n/a	n/a	18	6	2	2	2
2840.478515625	n/a	PROB	5817300	n/a	LTP331	ltpFR2	1	n/a	n/a	n/a	18	9	2	5	2
2841.927734375	n/a	PROB	5820268	n/a	LTP331	ltpFR2	1	n/a	n/a	n/a	18	17	5	7	5
2843.66162109375	n/a	PROB	5823819	n/a	LTP331	ltpFR2	1	n/a	n/a	n/a	18	12	4	4	4
2845.74365234375	n/a	PROB	5828083	n/a	LTP331	ltpFR2	1	n/a	n/a	n/a	18	13	5	1	7
2847.24169921875	n/a	PROB	5831151	n/a	LTP331	ltpFR2	1	n/a	n/a	n/a	18	20	7	9	4
2849.37353515625	n/a	PROB	5835517	n/a	LTP331	ltpFR2	1	n/a	n/a	n/a	18	18	9	5	4
2851.33984375	n/a	PROB	5839544	n/a	LTP331	ltpFR2	1	n/a	n/a	n/a	18	17	1	8	8
2852.95556640625	n/a	PROB	5842853	n/a	LTP331	ltpFR2	1	n/a	n/a	n/a	18	11	9	1	1
2854.7666015625	n/a	STOP	5846562	n/a	LTP331	ltpFR2	1	n/a	n/a	n/a	18	n/a	n/a	n/a	n/a
2856.1875	n/a	WORD	5849472	wordpools/wasnorm_wordpool_576.txt	LTP331	ltpFR2	1	13	ROD	1203	n/a	n/a	0	0	0
2858.75390625	n/a	WORD	5854728	wordpools/wasnorm_wordpool_576.txt	LTP331	ltpFR2	1	13	LACE	792	n/a	n/a	0	0	0
2861.40185546875	n/a	WORD	5860151	wordpools/wasnorm_wordpool_576.txt	LTP331	ltpFR2	1	13	HUSBAND	728	n/a	n/a	0	0	0
2864.03369140625	n/a	WORD	5865541	wordpools/wasnorm_wordpool_576.txt	LTP331	ltpFR2	1	13	CRITIC	410	n/a	n/a	0	0	0
2866.849609375	n/a	WORD	5871308	wordpools/wasnorm_wordpool_576.txt	LTP331	ltpFR2	1	13	WRIST	1626	n/a	n/a	0	0	0
2869.6650390625	n/a	WORD	5877074	wordpools/wasnorm_wordpool_576.txt	LTP331	ltpFR2	1	13	DENIM	446	n/a	n/a	0	0	0
2872.22998046875	n/a	WORD	5882327	wordpools/wasnorm_wordpool_576.txt	LTP331	ltpFR2	1	13	CEILING	265	n/a	n/a	0	0	0
2874.712890625	n/a	WORD	5887412	wordpools/wasnorm_wordpool_576.txt	LTP331	ltpFR2	1	13	PICNIC	1060	n/a	n/a	0	0	0
2877.22705078125	n/a	WORD	5892561	wordpools/wasnorm_wordpool_576.txt	LTP331	ltpFR2	1	13	FARMER	553	n/a	n/a	0	0	0
2879.94287109375	n/a	WORD	5898123	wordpools/wasnorm_wordpool_576.txt	LTP331	ltpFR2	1	13	PLAID	1080	n/a	n/a	0	0	0
2882.65869140625	n/a	WORD	5903685	wordpools/wasnorm_wordpool_576.txt	LTP331	ltpFR2	1	13	ZIPPER	1636	n/a	n/a	0	0	0
2885.30712890625	n/a	WORD	5909109	wordpools/wasnorm_wordpool_576.txt	LTP331	ltpFR2	1	13	GLOVE	642	n/a	n/a	0	0	0
2888.05517578125	n/a	WORD	5914737	wordpools/wasnorm_wordpool_576.txt	LTP331	ltpFR2	1	13	MOTEL	919	n/a	n/a	0	0	0
2890.7880859375	n/a	WORD	5920334	wordpools/wasnorm_wordpool_576.txt	LTP331	ltpFR2	1	13	TWISTER	1530	n/a	n/a	0	0	0
2893.35205078125	n/a	WORD	5925585	wordpools/wasnorm_wordpool_576.txt	LTP331	ltpFR2	1	13	SLIME	1327	n/a	n/a	0	0	0
2896.16796875	n/a	WORD	5931352	wordpools/wasnorm_wordpool_576.txt	LTP331	ltpFR2	1	13	FUNGUS	614	n/a	n/a	0	0	0
2898.76708984375	n/a	WORD	5936675	wordpools/wasnorm_wordpool_576.txt	LTP331	ltpFR2	1	13	PAIL	1002	n/a	n/a	0	0	0
2901.43212890625	n/a	WORD	5942133	wordpools/wasnorm_wordpool_576.txt	LTP331	ltpFR2	1	13	FOREHEAD	592	n/a	n/a	0	0	0
2904.0810546875	n/a	WORD	5947558	wordpools/wasnorm_wordpool_576.txt	LTP331	ltpFR2	1	13	HOOD	714	n/a	n/a	0	0	0
2906.580078125	n/a	WORD	5952676	wordpools/wasnorm_wordpool_576.txt	LTP331	ltpFR2	1	13	SPARROW	1347	n/a	n/a	0	0	0
2909.22802734375	n/a	WORD	5958099	wordpools/wasnorm_wordpool_576.txt	LTP331	ltpFR2	1	13	PERCH	1048	n/a	n/a	0	0	0
2911.97705078125	n/a	WORD	5963729	wordpools/wasnorm_wordpool_576.txt	LTP331	ltpFR2	1	13	SPOOL	1356	n/a	n/a	0	0	0
2914.44189453125	n/a	WORD	5968777	wordpools/wasnorm_wordpool_576.txt	LTP331	ltpFR2	1	13	RUG	1215	n/a	n/a	0	0	0
2917.22412109375	n/a	WORD	5974475	wordpools/wasnorm_wordpool_576.txt	LTP331	ltpFR2	1	13	YACHT	1629	n/a	n/a	0	0	0
2918.84130859375	n/a	START	5977787	n/a	LTP331	ltpFR2	1	n/a	n/a	n/a	19	n/a	n/a	n/a	n/a
2919.79931640625	n/a	DISTRACTOR	5979749	n/a	LTP331	ltpFR2	1	13	n/a	n/a	n/a	n/a	0	0	0
2919.80712890625	n/a	PROB	5979765	n/a	LTP331	ltpFR2	1	n/a	n/a	n/a	19	24	8	9	7
2923.00439453125	n/a	PROB	5986313	n/a	LTP331	ltpFR2	1	n/a	n/a	n/a	19	13	1	9	3
2924.62109375	n/a	PROB	5989624	n/a	LTP331	ltpFR2	1	n/a	n/a	n/a	19	17	8	7	2
2926.1201171875	n/a	PROB	5992694	n/a	LTP331	ltpFR2	1	n/a	n/a	n/a	19	17	2	8	7
2927.58642578125	n/a	PROB	5995697	n/a	LTP331	ltpFR2	1	n/a	n/a	n/a	19	19	9	4	6
2929.55224609375	n/a	PROB	5999723	n/a	LTP331	ltpFR2	1	n/a	n/a	n/a	19	23	6	9	8
2932.0	n/a	PROB	6004736	n/a	LTP331	ltpFR2	1	n/a	n/a	n/a	19	6	1	3	2
2933.29931640625	n/a	PROB	6007397	n/a	LTP331	ltpFR2	1	n/a	n/a	n/a	19	20	6	7	7
2935.0654296875	n/a	PROB	6011014	n/a	LTP331	ltpFR2	1	n/a	n/a	n/a	19	16	2	7	7
2936.7490234375	n/a	PROB	6014462	n/a	LTP331	ltpFR2	1	n/a	n/a	n/a	19	18	7	2	9
2938.99609375	n/a	PROB	6019064	n/a	LTP331	ltpFR2	1	n/a	n/a	n/a	19	17	6	8	3
2940.54736328125	n/a	PROB	6022241	n/a	LTP331	ltpFR2	1	n/a	n/a	n/a	19	21	7	7	7
2941.72705078125	n/a	STOP	6024657	n/a	LTP331	ltpFR2	1	n/a	n/a	n/a	19	n/a	n/a	n/a	n/a
2944.7451171875	n/a	REC_START	6030838	n/a	LTP331	ltpFR2	1	13	n/a	n/a	n/a	n/a	0	0	0
2948.08349609375	n/a	REC_WORD	6037675	wordpools/wasnorm_wordpool_576.txt	LTP331	ltpFR2	1	13	SPOOL	1356	n/a	n/a	0	0	0
2948.6982421875	n/a	REC_WORD	6038934	wordpools/wasnorm_wordpool_576.txt	LTP331	ltpFR2	1	13	RUG	1215	n/a	n/a	0	0	0
2949.03125	n/a	REC_WORD	6039616	wordpools/wasnorm_wordpool_576.txt	LTP331	ltpFR2	1	13	YACHT	1629	n/a	n/a	0	0	0
2952.490234375	n/a	REC_WORD	6046700	wordpools/wasnorm_wordpool_576.txt	LTP331	ltpFR2	1	13	ROD	1203	n/a	n/a	0	0	0
2953.22314453125	n/a	REC_WORD	6048201	wordpools/wasnorm_wordpool_576.txt	LTP331	ltpFR2	1	13	SHOELACE	1289	n/a	n/a	0	0	0
2954.12744140625	n/a	REC_WORD	6050053	wordpools/wasnorm_wordpool_576.txt	LTP331	ltpFR2	1	13	HUSBAND	728	n/a	n/a	0	0	0
2955.6875	n/a	REC_WORD	6053248	wordpools/wasnorm_wordpool_576.txt	LTP331	ltpFR2	1	13	WRIST	1626	n/a	n/a	0	0	0
2956.37939453125	n/a	REC_WORD	6054665	wordpools/wasnorm_wordpool_576.txt	LTP331	ltpFR2	1	13	DENIM	446	n/a	n/a	0	0	0
2957.365234375	n/a	REC_WORD	6056684	wordpools/wasnorm_wordpool_576.txt	LTP331	ltpFR2	1	13	CRITIC	410	n/a	n/a	0	0	0
2958.779296875	n/a	REC_WORD	6059580	wordpools/wasnorm_wordpool_576.txt	LTP331	ltpFR2	1	13	FARMER	553	n/a	n/a	0	0	0
2959.42822265625	n/a	REC_WORD	6060909	wordpools/wasnorm_wordpool_576.txt	LTP331	ltpFR2	1	13	PICNIC	1060	n/a	n/a	0	0	0
2960.05517578125	n/a	REC_WORD	6062193	wordpools/wasnorm_wordpool_576.txt	LTP331	ltpFR2	1	13	CEILING	265	n/a	n/a	0	0	0
2963.1982421875	n/a	REC_WORD	6068630	wordpools/wasnorm_wordpool_576.txt	LTP331	ltpFR2	1	13	ZIPPER	1636	n/a	n/a	0	0	0
2964.1396484375	n/a	REC_WORD	6070558	wordpools/wasnorm_wordpool_576.txt	LTP331	ltpFR2	1	13	GLOVE	642	n/a	n/a	0	0	0
2964.80126953125	n/a	REC_WORD	6071913	wordpools/wasnorm_wordpool_576.txt	LTP331	ltpFR2	1	13	MOTEL	919	n/a	n/a	0	0	0
2966.21923828125	n/a	REC_WORD	6074817	wordpools/wasnorm_wordpool_576.txt	LTP331	ltpFR2	1	13	SLIME	1327	n/a	n/a	0	0	0
2967.7783203125	n/a	REC_WORD	6078010	wordpools/wasnorm_wordpool_576.txt	LTP331	ltpFR2	1	13	FUNGUS	614	n/a	n/a	0	0	0
2968.95263671875	n/a	REC_WORD	6080415	wordpools/wasnorm_wordpool_576.txt	LTP331	ltpFR2	1	13	PAIL	1002	n/a	n/a	0	0	0
2970.767578125	n/a	REC_WORD	6084132	wordpools/wasnorm_wordpool_576.txt	LTP331	ltpFR2	1	13	FOREHEAD	592	n/a	n/a	0	0	0
2972.7724609375	n/a	REC_WORD	6088238	wordpools/wasnorm_wordpool_576.txt	LTP331	ltpFR2	1	13	HOOD	714	n/a	n/a	0	0	0
2975.4013671875	n/a	REC_WORD	6093622	wordpools/wasnorm_wordpool_576.txt	LTP331	ltpFR2	1	13	SPARROW	1347	n/a	n/a	0	0	0
2983.44140625	n/a	REC_WORD	6110088	wordpools/wasnorm_wordpool_576.txt	LTP331	ltpFR2	1	13	SPOOL	1356	n/a	n/a	0	0	0
3035.18310546875	n/a	DISTRACTOR	6216055	n/a	LTP331	ltpFR2	1	14	n/a	n/a	n/a	n/a	0	0	0
3035.18310546875	n/a	START	6216055	n/a	LTP331	ltpFR2	1	n/a	n/a	n/a	20	n/a	n/a	n/a	n/a
3035.19970703125	n/a	PROB	6216089	n/a	LTP331	ltpFR2	1	n/a	n/a	n/a	20	9	4	3	2
3036.64990234375	n/a	PROB	6219059	n/a	LTP331	ltpFR2	1	n/a	n/a	n/a	20	9	5	3	1
3038.2978515625	n/a	PROB	6222434	n/a	LTP331	ltpFR2	1	n/a	n/a	n/a	20	16	7	4	5
3040.2470703125	n/a	PROB	6226426	n/a	LTP331	ltpFR2	1	n/a	n/a	n/a	20	18	3	7	8
3042.1298828125	n/a	PROB	6230282	n/a	LTP331	ltpFR2	1	n/a	n/a	n/a	20	12	1	5	6
3043.69677734375	n/a	PROB	6233491	n/a	LTP331	ltpFR2	1	n/a	n/a	n/a	20	25	8	8	9
3045.3447265625	n/a	PROB	6236866	n/a	LTP331	ltpFR2	1	n/a	n/a	n/a	20	13	1	5	7
3046.794921875	n/a	PROB	6239836	n/a	LTP331	ltpFR2	1	n/a	n/a	n/a	20	17	7	5	5
3048.2099609375	n/a	PROB	6242734	n/a	LTP331	ltpFR2	1	n/a	n/a	n/a	20	25	8	8	9
3049.876953125	n/a	PROB	6246148	n/a	LTP331	ltpFR2	1	n/a	n/a	n/a	20	18	7	8	3
3051.6591796875	n/a	PROB	6249798	n/a	LTP331	ltpFR2	1	n/a	n/a	n/a	20	18	9	8	1
3053.30712890625	n/a	PROB	6253173	n/a	LTP331	ltpFR2	1	n/a	n/a	n/a	20	17	9	7	2
3055.14013671875	n/a	PROB	6256927	n/a	LTP331	ltpFR2	1	n/a	n/a	n/a	20	14	5	6	3
3056.7900390625	n/a	PROB	6260306	n/a	LTP331	ltpFR2	1	n/a	n/a	n/a	20	9	2	6	1
3057.9912109375	n/a	STOP	6262766	n/a	LTP331	ltpFR2	1	n/a	n/a	n/a	20	n/a	n/a	n/a	n/a
3060.10400390625	n/a	WORD	6267093	wordpools/wasnorm_wordpool_576.txt	LTP331	ltpFR2	1	14	RABBIT	1152	n/a	n/a	0	0	0
3062.80419921875	n/a	WORD	6272623	wordpools/wasnorm_wordpool_576.txt	LTP331	ltpFR2	1	14	SCOTCH	1251	n/a	n/a	0	0	0
3065.23486328125	n/a	WORD	6277601	wordpools/wasnorm_wordpool_576.txt	LTP331	ltpFR2	1	14	WARDROBE	1587	n/a	n/a	0	0	0
3068.0	n/a	WORD	6283264	wordpools/wasnorm_wordpool_576.txt	LTP331	ltpFR2	1	14	HORSE	719	n/a	n/a	0	0	0
3070.48193359375	n/a	WORD	6288347	wordpools/wasnorm_wordpool_576.txt	LTP331	ltpFR2	1	14	PLIERS	1089	n/a	n/a	0	0	0
3073.06396484375	n/a	WORD	6293635	wordpools/wasnorm_wordpool_576.txt	LTP331	ltpFR2	1	14	DRESS	495	n/a	n/a	0	0	0
3075.49609375	n/a	WORD	6298616	wordpools/wasnorm_wordpool_576.txt	LTP331	ltpFR2	1	14	TUTU	1524	n/a	n/a	0	0	0
3077.92822265625	n/a	WORD	6303597	wordpools/wasnorm_wordpool_576.txt	LTP331	ltpFR2	1	14	DANDRUFF	439	n/a	n/a	0	0	0
3080.67822265625	n/a	WORD	6309229	wordpools/wasnorm_wordpool_576.txt	LTP331	ltpFR2	1	14	HEADBAND	696	n/a	n/a	0	0	0
3083.2919921875	n/a	WORD	6314582	wordpools/wasnorm_wordpool_576.txt	LTP331	ltpFR2	1	14	COTTAGE	384	n/a	n/a	0	0	0
3085.7919921875	n/a	WORD	6319702	wordpools/wasnorm_wordpool_576.txt	LTP331	ltpFR2	1	14	CRUTCH	417	n/a	n/a	0	0	0
3088.42333984375	n/a	WORD	6325091	wordpools/wasnorm_wordpool_576.txt	LTP331	ltpFR2	1	14	LEG	809	n/a	n/a	0	0	0
3090.955078125	n/a	WORD	6330276	wordpools/wasnorm_wordpool_576.txt	LTP331	ltpFR2	1	14	TREAT	1501	n/a	n/a	0	0	0
3093.4873046875	n/a	WORD	6335462	wordpools/wasnorm_wordpool_576.txt	LTP331	ltpFR2	1	14	WIFE	1609	n/a	n/a	0	0	0
3096.203125	n/a	WORD	6341024	wordpools/wasnorm_wordpool_576.txt	LTP331	ltpFR2	1	14	PASTA	1021	n/a	n/a	0	0	0
3098.83642578125	n/a	WORD	6346417	wordpools/wasnorm_wordpool_576.txt	LTP331	ltpFR2	1	14	TART	1436	n/a	n/a	0	0	0
3101.35009765625	n/a	WORD	6351565	wordpools/wasnorm_wordpool_576.txt	LTP331	ltpFR2	1	14	BARLEY	88	n/a	n/a	0	0	0
3103.96533203125	n/a	WORD	6356921	wordpools/wasnorm_wordpool_576.txt	LTP331	ltpFR2	1	14	WAITER	1580	n/a	n/a	0	0	0
3106.58251953125	n/a	WORD	6362281	wordpools/wasnorm_wordpool_576.txt	LTP331	ltpFR2	1	14	UNCLE	1536	n/a	n/a	0	0	0
3109.36328125	n/a	WORD	6367976	wordpools/wasnorm_wordpool_576.txt	LTP331	ltpFR2	1	14	BOYFRIEND	162	n/a	n/a	0	0	0
3111.96240234375	n/a	WORD	6373299	wordpools/wasnorm_wordpool_576.txt	LTP331	ltpFR2	1	14	BUNNY	198	n/a	n/a	0	0	0
3114.66162109375	n/a	WORD	6378827	wordpools/wasnorm_wordpool_576.txt	LTP331	ltpFR2	1	14	LASER	801	n/a	n/a	0	0	0
3117.2265625	n/a	WORD	6384080	wordpools/wasnorm_wordpool_576.txt	LTP331	ltpFR2	1	14	NAPKIN	937	n/a	n/a	0	0	0
3120.0244140625	n/a	WORD	6389810	wordpools/wasnorm_wordpool_576.txt	LTP331	ltpFR2	1	14	THREAD	1460	n/a	n/a	0	0	0
3121.6416015625	n/a	START	6393122	n/a	LTP331	ltpFR2	1	n/a	n/a	n/a	21	n/a	n/a	n/a	n/a
3122.73828125	n/a	DISTRACTOR	6395368	n/a	LTP331	ltpFR2	1	14	n/a	n/a	n/a	n/a	0	0	0
3122.74169921875	n/a	PROB	6395375	n/a	LTP331	ltpFR2	1	n/a	n/a	n/a	21	12	5	4	3
3124.62353515625	n/a	PROB	6399229	n/a	LTP331	ltpFR2	1	n/a	n/a	n/a	21	11	8	1	2
3125.92138671875	n/a	PROB	6401887	n/a	LTP331	ltpFR2	1	n/a	n/a	n/a	21	11	6	2	3
3127.42138671875	n/a	PROB	6404959	n/a	LTP331	ltpFR2	1	n/a	n/a	n/a	21	15	5	5	4
3128.78857421875	n/a	PROB	6407759	n/a	LTP331	ltpFR2	1	n/a	n/a	n/a	21	22	9	4	9
3130.6533203125	n/a	PROB	6411578	n/a	LTP331	ltpFR2	1	n/a	n/a	n/a	21	22	9	6	7
3133.1513671875	n/a	PROB	6416694	n/a	LTP331	ltpFR2	1	n/a	n/a	n/a	21	11	2	2	7
3134.45068359375	n/a	PROB	6419355	n/a	LTP331	ltpFR2	1	n/a	n/a	n/a	21	16	4	3	9
3135.884765625	n/a	PROB	6422292	n/a	LTP331	ltpFR2	1	n/a	n/a	n/a	21	9	3	3	3
3137.41650390625	n/a	PROB	6425429	n/a	LTP331	ltpFR2	1	n/a	n/a	n/a	21	10	1	5	4
3138.7666015625	n/a	PROB	6428194	n/a	LTP331	ltpFR2	1	n/a	n/a	n/a	21	15	7	1	7
3140.28173828125	n/a	PROB	6431297	n/a	LTP331	ltpFR2	1	n/a	n/a	n/a	21	11	1	7	3
3141.78173828125	n/a	PROB	6434369	n/a	LTP331	ltpFR2	1	n/a	n/a	n/a	21	14	3	4	7
