onset	duration	trial_type	sample	stim_file	subject	experiment	session	trial	task	item_name	item_num	recog_conf	resp	color_b	color_g	color_r	case	font
238.662	n/a	SESS_START	119331	n/a	LTP222	ltpFR	6	n/a	n/a	n/a	n/a	3	n/a	n/a	n/a	n/a	n/a	n/a
371.238	n/a	WORD	185619	wordpools/wasnorm_wordpool_less_exclusions.txt	LTP222	ltpFR	6	1	0	ZIPPER	1636	n/a	0	0	0.5869140625	0.422607421875	upper	../fonts/amplitud.ttf
375.276	n/a	WORD	187638	wordpools/wasnorm_wordpool_less_exclusions.txt	LTP222	ltpFR	6	1	0	TOOL	1480	n/a	0	0	0.5869140625	0.422607421875	upper	../fonts/amplitud.ttf
379.184	n/a	WORD	189592	wordpools/wasnorm_wordpool_less_exclusions.txt	LTP222	ltpFR	6	1	1	SCOUT	1252	n/a	1	1	0.412841796875	0.57763671875	lower	../fonts/zerothre.ttf
383.206	n/a	WORD	191603	wordpools/wasnorm_wordpool_less_exclusions.txt	LTP222	ltpFR	6	1	1	MONARCH	906	n/a	1	1	0.412841796875	0.57763671875	lower	../fonts/zerothre.ttf
387.314	n/a	WORD	193657	wordpools/wasnorm_wordpool_less_exclusions.txt	LTP222	ltpFR	6	1	1	FLASK	576	n/a	0	1	0.412841796875	0.57763671875	lower	../fonts/zerothre.ttf
391.254	n/a	WORD	195627	wordpools/wasnorm_wordpool_less_exclusions.txt	LTP222	ltpFR	6	1	1	CLOTHES	327	n/a	0	1	0.412841796875	0.57763671875	lower	../fonts/zerothre.ttf
395.286	n/a	WORD	197643	wordpools/wasnorm_wordpool_less_exclusions.txt	LTP222	ltpFR	6	1	1	RIVER	1194	n/a	0	1	0.412841796875	0.57763671875	lower	../fonts/zerothre.ttf
399.244	n/a	WORD	199622	wordpools/wasnorm_wordpool_less_exclusions.txt	LTP222	ltpFR	6	1	0	SHARK	1275	n/a	1	0	0.5869140625	0.422607421875	upper	../fonts/amplitud.ttf
403.208	n/a	WORD	201604	wordpools/wasnorm_wordpool_less_exclusions.txt	LTP222	ltpFR	6	1	0	CRATER	400	n/a	1	0	0.5869140625	0.422607421875	upper	../fonts/amplitud.ttf
407.316	n/a	WORD	203658	wordpools/wasnorm_wordpool_less_exclusions.txt	LTP222	ltpFR	6	1	1	GREASE	660	n/a	0	1	0.412841796875	0.57763671875	lower	../fonts/zerothre.ttf
411.542	n/a	WORD	205771	wordpools/wasnorm_wordpool_less_exclusions.txt	LTP222	ltpFR	6	1	1	BATTERY	101	n/a	0	1	0.412841796875	0.57763671875	lower	../fonts/zerothre.ttf
415.464	n/a	WORD	207732	wordpools/wasnorm_wordpool_less_exclusions.txt	LTP222	ltpFR	6	1	1	STOMACH	1384	n/a	0	1	0.412841796875	0.57763671875	lower	../fonts/zerothre.ttf
419.394	n/a	WORD	209697	wordpools/wasnorm_wordpool_less_exclusions.txt	LTP222	ltpFR	6	1	0	VOLCANO	1575	n/a	1	0	0.5869140625	0.422607421875	upper	../fonts/amplitud.ttf
423.536	n/a	WORD	211768	wordpools/wasnorm_wordpool_less_exclusions.txt	LTP222	ltpFR	6	1	0	CROWN	415	n/a	0	0	0.5869140625	0.422607421875	upper	../fonts/amplitud.ttf
427.544	n/a	WORD	213772	wordpools/wasnorm_wordpool_less_exclusions.txt	LTP222	ltpFR	6	1	0	SQUID	1361	n/a	0	0	0.5869140625	0.422607421875	upper	../fonts/amplitud.ttf
431.374	n/a	WORD	215687	wordpools/wasnorm_wordpool_less_exclusions.txt	LTP222	ltpFR	6	1	0	FISH	571	n/a	0	0	0.5869140625	0.422607421875	upper	../fonts/amplitud.ttf
437.29	n/a	REC_START	218645	n/a	LTP222	ltpFR	6	1	n/a	n/a	n/a	n/a	n/a	n/a	n/a	n/a	n/a	n/a
438.422	n/a	REC_WORD	219211	wordpools/wasnorm_wordpool_less_exclusions.txt	LTP222	ltpFR	6	1	0	FISH	571	n/a	0	n/a	n/a	n/a	n/a	n/a
440.022	n/a	REC_WORD	220011	wordpools/wasnorm_wordpool_less_exclusions.txt	LTP222	ltpFR	6	1	0	SQUID	1361	n/a	0	n/a	n/a	n/a	n/a	n/a
442.054	n/a	REC_WORD	221027	wordpools/wasnorm_wordpool_less_exclusions.txt	LTP222	ltpFR	6	1	1	MONARCH	906	n/a	1	n/a	n/a	n/a	n/a	n/a
443.206	n/a	REC_WORD	221603	wordpools/wasnorm_wordpool_less_exclusions.txt	LTP222	ltpFR	6	1	1	FLASK	576	n/a	0	n/a	n/a	n/a	n/a	n/a
446.654	n/a	REC_WORD	223327	wordpools/wasnorm_wordpool_less_exclusions.txt	LTP222	ltpFR	6	1	n/a	KING	777	n/a	n/a	n/a	n/a	n/a	n/a	n/a
456.212	n/a	REC_WORD	228106	wordpools/wasnorm_wordpool_less_exclusions.txt	LTP222	ltpFR	6	1	0	TOOL	1480	n/a	0	n/a	n/a	n/a	n/a	n/a
466.39	n/a	REC_WORD	233195	wordpools/wasnorm_wordpool_less_exclusions.txt	LTP222	ltpFR	6	1	0	CROWN	415	n/a	0	n/a	n/a	n/a	n/a	n/a
472.804	n/a	REC_WORD	236402	wordpools/wasnorm_wordpool_less_exclusions.txt	LTP222	ltpFR	6	1	0	VOLCANO	1575	n/a	1	n/a	n/a	n/a	n/a	n/a
476.902	n/a	REC_WORD	238451	wordpools/wasnorm_wordpool_less_exclusions.txt	LTP222	ltpFR	6	1	1	RIVER	1194	n/a	0	n/a	n/a	n/a	n/a	n/a
480.732	n/a	REC_WORD	240366	wordpools/wasnorm_wordpool_less_exclusions.txt	LTP222	ltpFR	6	1	1	STOMACH	1384	n/a	0	n/a	n/a	n/a	n/a	n/a
488.326	n/a	REC_WORD	244163	wordpools/wasnorm_wordpool_less_exclusions.txt	LTP222	ltpFR	6	1	0	SQUID	1361	n/a	0	n/a	n/a	n/a	n/a	n/a
504.734	n/a	REC_WORD	252367	wordpools/wasnorm_wordpool_less_exclusions.txt	LTP222	ltpFR	6	1	1	BATTERY	101	n/a	0	n/a	n/a	n/a	n/a	n/a
518.064	n/a	WORD	259032	wordpools/wasnorm_wordpool_less_exclusions.txt	LTP222	ltpFR	6	2	1	TUNNEL	1519	n/a	0	1	0.412841796875	0.57763671875	lower	../fonts/zerothre.ttf
521.912	n/a	WORD	260956	wordpools/wasnorm_wordpool_less_exclusions.txt	LTP222	ltpFR	6	2	1	SAP	1233	n/a	0	1	0.412841796875	0.57763671875	lower	../fonts/zerothre.ttf
525.878	n/a	WORD	262939	wordpools/wasnorm_wordpool_less_exclusions.txt	LTP222	ltpFR	6	2	1	UMPIRE	1535	n/a	1	1	0.412841796875	0.57763671875	lower	../fonts/zerothre.ttf
530.094	n/a	WORD	265047	wordpools/wasnorm_wordpool_less_exclusions.txt	LTP222	ltpFR	6	2	1	LANDSCAPE	799	n/a	0	1	0.412841796875	0.57763671875	lower	../fonts/zerothre.ttf
534.126	n/a	WORD	267063	wordpools/wasnorm_wordpool_less_exclusions.txt	LTP222	ltpFR	6	2	0	DOUGHNUT	490	n/a	0	0	0.5869140625	0.422607421875	upper	../fonts/amplitud.ttf
538.208	n/a	WORD	269104	wordpools/wasnorm_wordpool_less_exclusions.txt	LTP222	ltpFR	6	2	0	TREASURE	1500	n/a	0	0	0.5869140625	0.422607421875	upper	../fonts/amplitud.ttf
542.274	n/a	WORD	271137	wordpools/wasnorm_wordpool_less_exclusions.txt	LTP222	ltpFR	6	2	0	TECHNICIAN	1443	n/a	1	0	0.5869140625	0.422607421875	upper	../fonts/amplitud.ttf
546.448	n/a	WORD	273224	wordpools/wasnorm_wordpool_less_exclusions.txt	LTP222	ltpFR	6	2	0	FAMILY	550	n/a	1	0	0.5869140625	0.422607421875	upper	../fonts/amplitud.ttf
550.546	n/a	WORD	275273	wordpools/wasnorm_wordpool_less_exclusions.txt	LTP222	ltpFR	6	2	1	MINK	897	n/a	1	1	0.412841796875	0.57763671875	lower	../fonts/zerothre.ttf
554.594	n/a	WORD	277297	wordpools/wasnorm_wordpool_less_exclusions.txt	LTP222	ltpFR	6	2	1	CABINET	212	n/a	0	1	0.412841796875	0.57763671875	lower	../fonts/zerothre.ttf
558.628	n/a	WORD	279314	wordpools/wasnorm_wordpool_less_exclusions.txt	LTP222	ltpFR	6	2	0	DETECTIVE	454	n/a	1	0	0.5869140625	0.422607421875	upper	../fonts/amplitud.ttf
562.676	n/a	WORD	281338	wordpools/wasnorm_wordpool_less_exclusions.txt	LTP222	ltpFR	6	2	0	COP	376	n/a	1	0	0.5869140625	0.422607421875	upper	../fonts/amplitud.ttf
566.566	n/a	WORD	283283	wordpools/wasnorm_wordpool_less_exclusions.txt	LTP222	ltpFR	6	2	0	FOREST	593	n/a	1	0	0.5869140625	0.422607421875	upper	../fonts/amplitud.ttf
570.548	n/a	WORD	285274	wordpools/wasnorm_wordpool_less_exclusions.txt	LTP222	ltpFR	6	2	0	ARENA	37	n/a	1	0	0.5869140625	0.422607421875	upper	../fonts/amplitud.ttf
574.688	n/a	WORD	287344	wordpools/wasnorm_wordpool_less_exclusions.txt	LTP222	ltpFR	6	2	1	FOREHEAD	592	n/a	0	1	0.412841796875	0.57763671875	lower	../fonts/zerothre.ttf
578.772	n/a	WORD	289386	wordpools/wasnorm_wordpool_less_exclusions.txt	LTP222	ltpFR	6	2	1	HAT	690	n/a	0	1	0.412841796875	0.57763671875	lower	../fonts/zerothre.ttf
584.586	n/a	REC_START	292293	n/a	LTP222	ltpFR	6	2	n/a	n/a	n/a	n/a	n/a	n/a	n/a	n/a	n/a	n/a
585.678	n/a	REC_WORD	292839	wordpools/wasnorm_wordpool_less_exclusions.txt	LTP222	ltpFR	6	2	1	FOREHEAD	592	n/a	0	n/a	n/a	n/a	n/a	n/a
586.856	n/a	REC_WORD	293428	wordpools/wasnorm_wordpool_less_exclusions.txt	LTP222	ltpFR	6	2	1	HAT	690	n/a	0	n/a	n/a	n/a	n/a	n/a
588.588	n/a	REC_WORD	294294	wordpools/wasnorm_wordpool_less_exclusions.txt	LTP222	ltpFR	6	2	0	ARENA	37	n/a	1	n/a	n/a	n/a	n/a	n/a
602.636	n/a	REC_WORD	301318	wordpools/wasnorm_wordpool_less_exclusions.txt	LTP222	ltpFR	6	2	1	LANDSCAPE	799	n/a	0	n/a	n/a	n/a	n/a	n/a
616.766	n/a	REC_WORD	308383	wordpools/wasnorm_wordpool_less_exclusions.txt	LTP222	ltpFR	6	2	1	MINK	897	n/a	1	n/a	n/a	n/a	n/a	n/a
622.546	n/a	REC_WORD	311273	wordpools/wasnorm_wordpool_less_exclusions.txt	LTP222	ltpFR	6	2	1	HAT	690	n/a	0	n/a	n/a	n/a	n/a	n/a
626.622	n/a	REC_WORD	313311	wordpools/wasnorm_wordpool_less_exclusions.txt	LTP222	ltpFR	6	2	0	FISH	571	n/a	0	n/a	n/a	n/a	n/a	n/a
629.036	n/a	REC_WORD	314518	wordpools/wasnorm_wordpool_less_exclusions.txt	LTP222	ltpFR	6	2	0	SQUID	1361	n/a	0	n/a	n/a	n/a	n/a	n/a
633.168	n/a	REC_WORD	316584	wordpools/wasnorm_wordpool_less_exclusions.txt	LTP222	ltpFR	6	2	0	SHARK	1275	n/a	1	n/a	n/a	n/a	n/a	n/a
650.57	n/a	REC_WORD	325285	wordpools/wasnorm_wordpool_less_exclusions.txt	LTP222	ltpFR	6	2	1	GREASE	660	n/a	0	n/a	n/a	n/a	n/a	n/a
663.772	n/a	WORD	331886	wordpools/wasnorm_wordpool_less_exclusions.txt	LTP222	ltpFR	6	3	1	GAZELLE	628	n/a	1	1	0.412841796875	0.57763671875	lower	../fonts/zerothre.ttf
667.626	n/a	WORD	333813	wordpools/wasnorm_wordpool_less_exclusions.txt	LTP222	ltpFR	6	3	1	STAMP	1370	n/a	0	1	0.412841796875	0.57763671875	lower	../fonts/zerothre.ttf
671.492	n/a	WORD	335746	wordpools/wasnorm_wordpool_less_exclusions.txt	LTP222	ltpFR	6	3	1	CARDINAL	244	n/a	1	1	0.412841796875	0.57763671875	lower	../fonts/zerothre.ttf
675.674	n/a	WORD	337837	wordpools/wasnorm_wordpool_less_exclusions.txt	LTP222	ltpFR	6	3	1	WOMAN	1620	n/a	1	1	0.412841796875	0.57763671875	lower	../fonts/zerothre.ttf
679.874	n/a	WORD	339937	wordpools/wasnorm_wordpool_less_exclusions.txt	LTP222	ltpFR	6	3	1	FEMALE	559	n/a	1	1	0.412841796875	0.57763671875	lower	../fonts/zerothre.ttf
683.94	n/a	WORD	341970	wordpools/wasnorm_wordpool_less_exclusions.txt	LTP222	ltpFR	6	3	1	MUSHROOM	934	n/a	1	1	0.412841796875	0.57763671875	lower	../fonts/zerothre.ttf
687.804	n/a	WORD	343902	wordpools/wasnorm_wordpool_less_exclusions.txt	LTP222	ltpFR	6	3	1	MAILMAN	858	n/a	1	1	0.412841796875	0.57763671875	lower	../fonts/zerothre.ttf
691.746	n/a	WORD	345873	wordpools/wasnorm_wordpool_less_exclusions.txt	LTP222	ltpFR	6	3	1	WICK	1607	n/a	0	1	0.412841796875	0.57763671875	lower	../fonts/zerothre.ttf
695.886	n/a	WORD	347943	wordpools/wasnorm_wordpool_less_exclusions.txt	LTP222	ltpFR	6	3	1	LASER	801	n/a	0	1	0.412841796875	0.57763671875	lower	../fonts/zerothre.ttf
700.094	n/a	WORD	350047	wordpools/wasnorm_wordpool_less_exclusions.txt	LTP222	ltpFR	6	3	1	FARM	552	n/a	0	1	0.412841796875	0.57763671875	lower	../fonts/zerothre.ttf
704.242	n/a	WORD	352121	wordpools/wasnorm_wordpool_less_exclusions.txt	LTP222	ltpFR	6	3	1	PERSON	1052	n/a	1	1	0.412841796875	0.57763671875	lower	../fonts/zerothre.ttf
708.114	n/a	WORD	354057	wordpools/wasnorm_wordpool_less_exclusions.txt	LTP222	ltpFR	6	3	1	SCOTCH	1251	n/a	0	1	0.412841796875	0.57763671875	lower	../fonts/zerothre.ttf
712.114	n/a	WORD	356057	wordpools/wasnorm_wordpool_less_exclusions.txt	LTP222	ltpFR	6	3	1	KIDNEY	776	n/a	0	1	0.412841796875	0.57763671875	lower	../fonts/zerothre.ttf
716.18	n/a	WORD	358090	wordpools/wasnorm_wordpool_less_exclusions.txt	LTP222	ltpFR	6	3	1	TOILET	1475	n/a	0	1	0.412841796875	0.57763671875	lower	../fonts/zerothre.ttf
720.354	n/a	WORD	360177	wordpools/wasnorm_wordpool_less_exclusions.txt	LTP222	ltpFR	6	3	1	LUNCH	849	n/a	0	1	0.412841796875	0.57763671875	lower	../fonts/zerothre.ttf
724.194	n/a	WORD	362097	wordpools/wasnorm_wordpool_less_exclusions.txt	LTP222	ltpFR	6	3	1	FIST	572	n/a	0	1	0.412841796875	0.57763671875	lower	../fonts/zerothre.ttf
730.142	n/a	REC_START	365071	n/a	LTP222	ltpFR	6	3	n/a	n/a	n/a	n/a	n/a	n/a	n/a	n/a	n/a	n/a
730.958	n/a	REC_WORD	365479	wordpools/wasnorm_wordpool_less_exclusions.txt	LTP222	ltpFR	6	3	1	FIST	572	n/a	0	n/a	n/a	n/a	n/a	n/a
732.964	n/a	REC_WORD	366482	wordpools/wasnorm_wordpool_less_exclusions.txt	LTP222	ltpFR	6	3	1	TOILET	1475	n/a	0	n/a	n/a	n/a	n/a	n/a
734.738	n/a	REC_WORD	367369	wordpools/wasnorm_wordpool_less_exclusions.txt	LTP222	ltpFR	6	3	1	STAMP	1370	n/a	0	n/a	n/a	n/a	n/a	n/a
736.374	n/a	REC_WORD	368187	wordpools/wasnorm_wordpool_less_exclusions.txt	LTP222	ltpFR	6	3	n/a	POST	-1	n/a	n/a	n/a	n/a	n/a	n/a	n/a
736.964	n/a	REC_WORD	368482	wordpools/wasnorm_wordpool_less_exclusions.txt	LTP222	ltpFR	6	3	n/a	MAN	862	n/a	n/a	n/a	n/a	n/a	n/a	n/a
738.02	n/a	REC_WORD	369010	wordpools/wasnorm_wordpool_less_exclusions.txt	LTP222	ltpFR	6	3	1	PERSON	1052	n/a	1	n/a	n/a	n/a	n/a	n/a
740.348	n/a	REC_WORD	370174	wordpools/wasnorm_wordpool_less_exclusions.txt	LTP222	ltpFR	6	3	1	FEMALE	559	n/a	1	n/a	n/a	n/a	n/a	n/a
741.836	n/a	REC_WORD	370918	wordpools/wasnorm_wordpool_less_exclusions.txt	LTP222	ltpFR	6	3	1	WOMAN	1620	n/a	1	n/a	n/a	n/a	n/a	n/a
747.038	n/a	REC_WORD	373519	wordpools/wasnorm_wordpool_less_exclusions.txt	LTP222	ltpFR	6	3	1	STOMACH	1384	n/a	0	n/a	n/a	n/a	n/a	n/a
750.302	n/a	REC_WORD	375151	wordpools/wasnorm_wordpool_less_exclusions.txt	LTP222	ltpFR	6	3	1	KIDNEY	776	n/a	0	n/a	n/a	n/a	n/a	n/a
755.46	n/a	REC_WORD	377730	wordpools/wasnorm_wordpool_less_exclusions.txt	LTP222	ltpFR	6	3	1	MUSHROOM	934	n/a	1	n/a	n/a	n/a	n/a	n/a
757.62	n/a	REC_WORD	378810	wordpools/wasnorm_wordpool_less_exclusions.txt	LTP222	ltpFR	6	3	0	ARENA	37	n/a	1	n/a	n/a	n/a	n/a	n/a
778.16	n/a	REC_WORD	389080	wordpools/wasnorm_wordpool_less_exclusions.txt	LTP222	ltpFR	6	3	1	PERSON	1052	n/a	1	n/a	n/a	n/a	n/a	n/a
780.32	n/a	REC_WORD	390160	wordpools/wasnorm_wordpool_less_exclusions.txt	LTP222	ltpFR	6	3	1	WOMAN	1620	n/a	1	n/a	n/a	n/a	n/a	n/a
780.746	n/a	REC_WORD	390373	wordpools/wasnorm_wordpool_less_exclusions.txt	LTP222	ltpFR	6	3	1	FEMALE	559	n/a	1	n/a	n/a	n/a	n/a	n/a
800.166	n/a	REC_WORD	400083	wordpools/wasnorm_wordpool_less_exclusions.txt	LTP222	ltpFR	6	3	1	FARM	552	n/a	0	n/a	n/a	n/a	n/a	n/a
809.134	n/a	WORD	404567	wordpools/wasnorm_wordpool_less_exclusions.txt	LTP222	ltpFR	6	4	-1	VEAL	1551	n/a	-1	1	1.0	1.0	upper	../fonts/Verdana.ttf
813.066	n/a	WORD	406533	wordpools/wasnorm_wordpool_less_exclusions.txt	LTP222	ltpFR	6	4	-1	TOMATO	1476	n/a	-1	1	1.0	1.0	upper	../fonts/Verdana.ttf
816.956	n/a	WORD	408478	wordpools/wasnorm_wordpool_less_exclusions.txt	LTP222	ltpFR	6	4	-1	LETTUCE	814	n/a	-1	1	1.0	1.0	upper	../fonts/Verdana.ttf
821.122	n/a	WORD	410561	wordpools/wasnorm_wordpool_less_exclusions.txt	LTP222	ltpFR	6	4	-1	HIKER	708	n/a	-1	1	1.0	1.0	upper	../fonts/Verdana.ttf
825.288	n/a	WORD	412644	wordpools/wasnorm_wordpool_less_exclusions.txt	LTP222	ltpFR	6	4	-1	MICROPHONE	890	n/a	-1	1	1.0	1.0	upper	../fonts/Verdana.ttf
829.48	n/a	WORD	414740	wordpools/wasnorm_wordpool_less_exclusions.txt	LTP222	ltpFR	6	4	-1	ALBUM	14	n/a	-1	1	1.0	1.0	upper	../fonts/Verdana.ttf
833.46	n/a	WORD	416730	wordpools/wasnorm_wordpool_less_exclusions.txt	LTP222	ltpFR	6	4	-1	VAN	1548	n/a	-1	1	1.0	1.0	upper	../fonts/Verdana.ttf
837.334	n/a	WORD	418667	wordpools/wasnorm_wordpool_less_exclusions.txt	LTP222	ltpFR	6	4	-1	BRAKE	166	n/a	-1	1	1.0	1.0	upper	../fonts/Verdana.ttf
841.516	n/a	WORD	420758	wordpools/wasnorm_wordpool_less_exclusions.txt	LTP222	ltpFR	6	4	-1	PISTON	1076	n/a	-1	1	1.0	1.0	upper	../fonts/Verdana.ttf
845.406	n/a	WORD	422703	wordpools/wasnorm_wordpool_less_exclusions.txt	LTP222	ltpFR	6	4	-1	DRAGON	492	n/a	-1	1	1.0	1.0	upper	../fonts/Verdana.ttf
849.514	n/a	WORD	424757	wordpools/wasnorm_wordpool_less_exclusions.txt	LTP222	ltpFR	6	4	-1	POSTAGE	1113	n/a	-1	1	1.0	1.0	upper	../fonts/Verdana.ttf
853.696	n/a	WORD	426848	wordpools/wasnorm_wordpool_less_exclusions.txt	LTP222	ltpFR	6	4	-1	TIDE	1465	n/a	-1	1	1.0	1.0	upper	../fonts/Verdana.ttf
857.812	n/a	WORD	428906	wordpools/wasnorm_wordpool_less_exclusions.txt	LTP222	ltpFR	6	4	-1	RIB	1188	n/a	-1	1	1.0	1.0	upper	../fonts/Verdana.ttf
861.952	n/a	WORD	430976	wordpools/wasnorm_wordpool_less_exclusions.txt	LTP222	ltpFR	6	4	-1	VEHICLE	1553	n/a	-1	1	1.0	1.0	upper	../fonts/Verdana.ttf
865.944	n/a	WORD	432972	wordpools/wasnorm_wordpool_less_exclusions.txt	LTP222	ltpFR	6	4	-1	SCALLOP	1242	n/a	-1	1	1.0	1.0	upper	../fonts/Verdana.ttf
869.776	n/a	WORD	434888	wordpools/wasnorm_wordpool_less_exclusions.txt	LTP222	ltpFR	6	4	-1	CAR	241	n/a	-1	1	1.0	1.0	upper	../fonts/Verdana.ttf
875.556	n/a	REC_START	437778	n/a	LTP222	ltpFR	6	4	n/a	n/a	n/a	n/a	n/a	n/a	n/a	n/a	n/a	n/a
878.748	n/a	REC_WORD	439374	wordpools/wasnorm_wordpool_less_exclusions.txt	LTP222	ltpFR	6	4	-1	VEAL	1551	n/a	-1	n/a	n/a	n/a	n/a	n/a
880.02	n/a	REC_WORD	440010	wordpools/wasnorm_wordpool_less_exclusions.txt	LTP222	ltpFR	6	4	-1	TOMATO	1476	n/a	-1	n/a	n/a	n/a	n/a	n/a
881.248	n/a	REC_WORD	440624	wordpools/wasnorm_wordpool_less_exclusions.txt	LTP222	ltpFR	6	4	-1	LETTUCE	814	n/a	-1	n/a	n/a	n/a	n/a	n/a
882.36	n/a	REC_WORD	441180	wordpools/wasnorm_wordpool_less_exclusions.txt	LTP222	ltpFR	6	4	-1	PISTON	1076	n/a	-1	n/a	n/a	n/a	n/a	n/a
883.424	n/a	REC_WORD	441712	wordpools/wasnorm_wordpool_less_exclusions.txt	LTP222	ltpFR	6	4	n/a	WHEEL	1603	n/a	n/a	n/a	n/a	n/a	n/a	n/a
890.462	n/a	REC_WORD	445231	wordpools/wasnorm_wordpool_less_exclusions.txt	LTP222	ltpFR	6	4	-1	SCALLOP	1242	n/a	-1	n/a	n/a	n/a	n/a	n/a
920.366	n/a	REC_WORD	460183	wordpools/wasnorm_wordpool_less_exclusions.txt	LTP222	ltpFR	6	4	n/a	TELESCOPE	1446	n/a	n/a	n/a	n/a	n/a	n/a	n/a
941.554	n/a	REC_WORD	470777	wordpools/wasnorm_wordpool_less_exclusions.txt	LTP222	ltpFR	6	4	1	BATTERY	101	n/a	0	n/a	n/a	n/a	n/a	n/a
954.632	n/a	WORD	477316	wordpools/wasnorm_wordpool_less_exclusions.txt	LTP222	ltpFR	6	5	1	PRESIDENT	1121	n/a	1	1	0.412841796875	0.57763671875	lower	../fonts/zerothre.ttf
958.666	n/a	WORD	479333	wordpools/wasnorm_wordpool_less_exclusions.txt	LTP222	ltpFR	6	5	1	COW	393	n/a	1	1	0.412841796875	0.57763671875	lower	../fonts/zerothre.ttf
962.882	n/a	WORD	481441	wordpools/wasnorm_wordpool_less_exclusions.txt	LTP222	ltpFR	6	5	1	STRING	1394	n/a	0	1	0.412841796875	0.57763671875	lower	../fonts/zerothre.ttf
966.754	n/a	WORD	483377	wordpools/wasnorm_wordpool_less_exclusions.txt	LTP222	ltpFR	6	5	1	FOLLOWER	589	n/a	1	1	0.412841796875	0.57763671875	lower	../fonts/zerothre.ttf
970.744	n/a	WORD	485372	wordpools/wasnorm_wordpool_less_exclusions.txt	LTP222	ltpFR	6	5	1	BOULDER	155	n/a	0	1	0.412841796875	0.57763671875	lower	../fonts/zerothre.ttf
974.65	n/a	WORD	487325	wordpools/wasnorm_wordpool_less_exclusions.txt	LTP222	ltpFR	6	5	1	CONTRACT	368	n/a	0	1	0.412841796875	0.57763671875	lower	../fonts/zerothre.ttf
978.498	n/a	WORD	489249	wordpools/wasnorm_wordpool_less_exclusions.txt	LTP222	ltpFR	6	5	1	BANK	83	n/a	0	1	0.412841796875	0.57763671875	lower	../fonts/zerothre.ttf
982.464	n/a	WORD	491232	wordpools/wasnorm_wordpool_less_exclusions.txt	LTP222	ltpFR	6	5	1	HURRICANE	727	n/a	0	1	0.412841796875	0.57763671875	lower	../fonts/zerothre.ttf
986.462	n/a	WORD	493231	wordpools/wasnorm_wordpool_less_exclusions.txt	LTP222	ltpFR	6	5	1	METEOR	889	n/a	0	1	0.412841796875	0.57763671875	lower	../fonts/zerothre.ttf
990.376	n/a	WORD	495188	wordpools/wasnorm_wordpool_less_exclusions.txt	LTP222	ltpFR	6	5	1	TOWER	1490	n/a	0	1	0.412841796875	0.57763671875	lower	../fonts/zerothre.ttf
994.368	n/a	WORD	497184	wordpools/wasnorm_wordpool_less_exclusions.txt	LTP222	ltpFR	6	5	1	OVAL	990	n/a	0	1	0.412841796875	0.57763671875	lower	../fonts/zerothre.ttf
998.358	n/a	WORD	499179	wordpools/wasnorm_wordpool_less_exclusions.txt	LTP222	ltpFR	6	5	1	CALF	222	n/a	1	1	0.412841796875	0.57763671875	lower	../fonts/zerothre.ttf
1002.24	n/a	WORD	501120	wordpools/wasnorm_wordpool_less_exclusions.txt	LTP222	ltpFR	6	5	1	SYRUP	1425	n/a	0	1	0.412841796875	0.57763671875	lower	../fonts/zerothre.ttf
1006.138	n/a	WORD	503069	wordpools/wasnorm_wordpool_less_exclusions.txt	LTP222	ltpFR	6	5	1	MAPLE	866	n/a	0	1	0.412841796875	0.57763671875	lower	../fonts/zerothre.ttf
1010.354	n/a	WORD	505177	wordpools/wasnorm_wordpool_less_exclusions.txt	LTP222	ltpFR	6	5	1	TENT	1449	n/a	0	1	0.412841796875	0.57763671875	lower	../fonts/zerothre.ttf
1014.31	n/a	WORD	507155	wordpools/wasnorm_wordpool_less_exclusions.txt	LTP222	ltpFR	6	5	1	CANVAS	234	n/a	0	1	0.412841796875	0.57763671875	lower	../fonts/zerothre.ttf
1020.124	n/a	REC_START	510062	n/a	LTP222	ltpFR	6	5	n/a	n/a	n/a	n/a	n/a	n/a	n/a	n/a	n/a	n/a
1021.496	n/a	REC_WORD	510748	wordpools/wasnorm_wordpool_less_exclusions.txt	LTP222	ltpFR	6	5	1	SYRUP	1425	n/a	0	n/a	n/a	n/a	n/a	n/a
1023.302	n/a	REC_WORD	511651	wordpools/wasnorm_wordpool_less_exclusions.txt	LTP222	ltpFR	6	5	1	MAPLE	866	n/a	0	n/a	n/a	n/a	n/a	n/a
1024.824	n/a	REC_WORD	512412	wordpools/wasnorm_wordpool_less_exclusions.txt	LTP222	ltpFR	6	5	1	CANVAS	234	n/a	0	n/a	n/a	n/a	n/a	n/a
1026.54	n/a	REC_WORD	513270	wordpools/wasnorm_wordpool_less_exclusions.txt	LTP222	ltpFR	6	5	1	TENT	1449	n/a	0	n/a	n/a	n/a	n/a	n/a
1029.878	n/a	REC_WORD	514939	wordpools/wasnorm_wordpool_less_exclusions.txt	LTP222	ltpFR	6	5	1	COW	393	n/a	1	n/a	n/a	n/a	n/a	n/a
1031.398	n/a	REC_WORD	515699	wordpools/wasnorm_wordpool_less_exclusions.txt	LTP222	ltpFR	6	5	1	CALF	222	n/a	1	n/a	n/a	n/a	n/a	n/a
1034.318	n/a	REC_WORD	517159	wordpools/wasnorm_wordpool_less_exclusions.txt	LTP222	ltpFR	6	5	n/a	FARMER	553	n/a	n/a	n/a	n/a	n/a	n/a	n/a
1047.194	n/a	REC_WORD	523597	wordpools/wasnorm_wordpool_less_exclusions.txt	LTP222	ltpFR	6	5	1	HURRICANE	727	n/a	0	n/a	n/a	n/a	n/a	n/a
1052.362	n/a	REC_WORD	526181	wordpools/wasnorm_wordpool_less_exclusions.txt	LTP222	ltpFR	6	5	1	METEOR	889	n/a	0	n/a	n/a	n/a	n/a	n/a
1079.462	n/a	REC_WORD	539731	wordpools/wasnorm_wordpool_less_exclusions.txt	LTP222	ltpFR	6	5	n/a	FARMER	553	n/a	n/a	n/a	n/a	n/a	n/a	n/a
1098.868	n/a	WORD	549434	wordpools/wasnorm_wordpool_less_exclusions.txt	LTP222	ltpFR	6	6	0	PERSONNEL	1053	n/a	1	0	0.5869140625	0.422607421875	upper	../fonts/amplitud.ttf
1102.982	n/a	WORD	551491	wordpools/wasnorm_wordpool_less_exclusions.txt	LTP222	ltpFR	6	6	0	GANG	619	n/a	1	0	0.5869140625	0.422607421875	upper	../fonts/amplitud.ttf
1106.972	n/a	WORD	553486	wordpools/wasnorm_wordpool_less_exclusions.txt	LTP222	ltpFR	6	6	1	CLIPPERS	324	n/a	0	1	0.412841796875	0.57763671875	lower	../fonts/zerothre.ttf
1110.864	n/a	WORD	555432	wordpools/wasnorm_wordpool_less_exclusions.txt	LTP222	ltpFR	6	6	1	TEACHER	1440	n/a	1	1	0.412841796875	0.57763671875	lower	../fonts/zerothre.ttf
1114.862	n/a	WORD	557431	wordpools/wasnorm_wordpool_less_exclusions.txt	LTP222	ltpFR	6	6	1	PRINTER	1126	n/a	1	1	0.412841796875	0.57763671875	lower	../fonts/zerothre.ttf
1119.018	n/a	WORD	559509	wordpools/wasnorm_wordpool_less_exclusions.txt	LTP222	ltpFR	6	6	1	ICEBERG	731	n/a	0	1	0.412841796875	0.57763671875	lower	../fonts/zerothre.ttf
1123.2	n/a	WORD	561600	wordpools/wasnorm_wordpool_less_exclusions.txt	LTP222	ltpFR	6	6	1	STEAM	1375	n/a	0	1	0.412841796875	0.57763671875	lower	../fonts/zerothre.ttf
1127.258	n/a	WORD	563629	wordpools/wasnorm_wordpool_less_exclusions.txt	LTP222	ltpFR	6	6	0	SPIT	1354	n/a	0	0	0.5869140625	0.422607421875	upper	../fonts/amplitud.ttf
1131.258	n/a	WORD	565629	wordpools/wasnorm_wordpool_less_exclusions.txt	LTP222	ltpFR	6	6	0	BARK	87	n/a	0	0	0.5869140625	0.422607421875	upper	../fonts/amplitud.ttf
1135.29	n/a	WORD	567645	wordpools/wasnorm_wordpool_less_exclusions.txt	LTP222	ltpFR	6	6	0	TAIL	1430	n/a	0	0	0.5869140625	0.422607421875	upper	../fonts/amplitud.ttf
1139.38	n/a	WORD	569690	wordpools/wasnorm_wordpool_less_exclusions.txt	LTP222	ltpFR	6	6	0	PUCK	1138	n/a	0	0	0.5869140625	0.422607421875	upper	../fonts/amplitud.ttf
1143.362	n/a	WORD	571681	wordpools/wasnorm_wordpool_less_exclusions.txt	LTP222	ltpFR	6	6	0	INSTRUCTOR	741	n/a	1	0	0.5869140625	0.422607421875	upper	../fonts/amplitud.ttf
1147.242	n/a	WORD	573621	wordpools/wasnorm_wordpool_less_exclusions.txt	LTP222	ltpFR	6	6	0	BEARD	107	n/a	0	0	0.5869140625	0.422607421875	upper	../fonts/amplitud.ttf
1151.258	n/a	WORD	575629	wordpools/wasnorm_wordpool_less_exclusions.txt	LTP222	ltpFR	6	6	1	APPLICATION	34	n/a	0	1	0.412841796875	0.57763671875	lower	../fonts/zerothre.ttf
1155.24	n/a	WORD	577620	wordpools/wasnorm_wordpool_less_exclusions.txt	LTP222	ltpFR	6	6	1	DINNER	468	n/a	0	1	0.412841796875	0.57763671875	lower	../fonts/zerothre.ttf
1159.34	n/a	WORD	579670	wordpools/wasnorm_wordpool_less_exclusions.txt	LTP222	ltpFR	6	6	1	POPE	1105	n/a	1	1	0.412841796875	0.57763671875	lower	../fonts/zerothre.ttf
1165.296	n/a	REC_START	582648	n/a	LTP222	ltpFR	6	6	n/a	n/a	n/a	n/a	n/a	n/a	n/a	n/a	n/a	n/a
1166.628	n/a	REC_WORD	583314	wordpools/wasnorm_wordpool_less_exclusions.txt	LTP222	ltpFR	6	6	1	POPE	1105	n/a	1	n/a	n/a	n/a	n/a	n/a
1167.838	n/a	REC_WORD	583919	wordpools/wasnorm_wordpool_less_exclusions.txt	LTP222	ltpFR	6	6	1	APPLICATION	34	n/a	0	n/a	n/a	n/a	n/a	n/a
1169.222	n/a	REC_WORD	584611	wordpools/wasnorm_wordpool_less_exclusions.txt	LTP222	ltpFR	6	6	n/a	PAPER	1011	n/a	n/a	n/a	n/a	n/a	n/a	n/a
1177.418	n/a	REC_WORD	588709	wordpools/wasnorm_wordpool_less_exclusions.txt	LTP222	ltpFR	6	6	0	BEARD	107	n/a	0	n/a	n/a	n/a	n/a	n/a
1186.478	n/a	REC_WORD	593239	wordpools/wasnorm_wordpool_less_exclusions.txt	LTP222	ltpFR	6	6	1	PRINTER	1126	n/a	1	n/a	n/a	n/a	n/a	n/a
1202.52	n/a	REC_WORD	601260	wordpools/wasnorm_wordpool_less_exclusions.txt	LTP222	ltpFR	6	6	0	SPIT	1354	n/a	0	n/a	n/a	n/a	n/a	n/a
1210.64	n/a	REC_WORD	605320	wordpools/wasnorm_wordpool_less_exclusions.txt	LTP222	ltpFR	6	6	1	TEACHER	1440	n/a	1	n/a	n/a	n/a	n/a	n/a
1232.018	n/a	REC_WORD	616009	wordpools/wasnorm_wordpool_less_exclusions.txt	LTP222	ltpFR	6	6	n/a	CARAVAN	242	n/a	n/a	n/a	n/a	n/a	n/a	n/a
1244.314	n/a	WORD	622157	wordpools/wasnorm_wordpool_less_exclusions.txt	LTP222	ltpFR	6	7	0	LIST	830	n/a	0	0	0.5869140625	0.422607421875	upper	../fonts/amplitud.ttf
1248.154	n/a	WORD	624077	wordpools/wasnorm_wordpool_less_exclusions.txt	LTP222	ltpFR	6	7	0	MARBLE	867	n/a	0	0	0.5869140625	0.422607421875	upper	../fonts/amplitud.ttf
1252.328	n/a	WORD	626164	wordpools/wasnorm_wordpool_less_exclusions.txt	LTP222	ltpFR	6	7	0	CUBE	420	n/a	0	0	0.5869140625	0.422607421875	upper	../fonts/amplitud.ttf
1256.552	n/a	WORD	628276	wordpools/wasnorm_wordpool_less_exclusions.txt	LTP222	ltpFR	6	7	0	TOWEL	1489	n/a	1	0	0.5869140625	0.422607421875	upper	../fonts/amplitud.ttf
1260.718	n/a	WORD	630359	wordpools/wasnorm_wordpool_less_exclusions.txt	LTP222	ltpFR	6	7	0	BRICK	172	n/a	0	0	0.5869140625	0.422607421875	upper	../fonts/amplitud.ttf
1264.618	n/a	WORD	632309	wordpools/wasnorm_wordpool_less_exclusions.txt	LTP222	ltpFR	6	7	0	SHELTER	1282	n/a	1	0	0.5869140625	0.422607421875	upper	../fonts/amplitud.ttf
1268.624	n/a	WORD	634312	wordpools/wasnorm_wordpool_less_exclusions.txt	LTP222	ltpFR	6	7	0	BLACKBERRY	132	n/a	0	0	0.5869140625	0.422607421875	upper	../fonts/amplitud.ttf
1272.748	n/a	WORD	636374	wordpools/wasnorm_wordpool_less_exclusions.txt	LTP222	ltpFR	6	7	0	JOURNAL	760	n/a	0	0	0.5869140625	0.422607421875	upper	../fonts/amplitud.ttf
1276.864	n/a	WORD	638432	wordpools/wasnorm_wordpool_less_exclusions.txt	LTP222	ltpFR	6	7	0	MOTEL	919	n/a	1	0	0.5869140625	0.422607421875	upper	../fonts/amplitud.ttf
1281.038	n/a	WORD	640519	wordpools/wasnorm_wordpool_less_exclusions.txt	LTP222	ltpFR	6	7	0	CANAL	226	n/a	1	0	0.5869140625	0.422607421875	upper	../fonts/amplitud.ttf
1285.12	n/a	WORD	642560	wordpools/wasnorm_wordpool_less_exclusions.txt	LTP222	ltpFR	6	7	0	KIWI	781	n/a	0	0	0.5869140625	0.422607421875	upper	../fonts/amplitud.ttf
1289.068	n/a	WORD	644534	wordpools/wasnorm_wordpool_less_exclusions.txt	LTP222	ltpFR	6	7	0	RAIL	1161	n/a	1	0	0.5869140625	0.422607421875	upper	../fonts/amplitud.ttf
1293.16	n/a	WORD	646580	wordpools/wasnorm_wordpool_less_exclusions.txt	LTP222	ltpFR	6	7	0	ALLEY	15	n/a	1	0	0.5869140625	0.422607421875	upper	../fonts/amplitud.ttf
1296.998	n/a	WORD	648499	wordpools/wasnorm_wordpool_less_exclusions.txt	LTP222	ltpFR	6	7	0	MACARONI	851	n/a	0	0	0.5869140625	0.422607421875	upper	../fonts/amplitud.ttf
1301.108	n/a	WORD	650554	wordpools/wasnorm_wordpool_less_exclusions.txt	LTP222	ltpFR	6	7	0	FAIRY	549	n/a	1	0	0.5869140625	0.422607421875	upper	../fonts/amplitud.ttf
1305.138	n/a	WORD	652569	wordpools/wasnorm_wordpool_less_exclusions.txt	LTP222	ltpFR	6	7	0	GATE	625	n/a	1	0	0.5869140625	0.422607421875	upper	../fonts/amplitud.ttf
1311.052	n/a	REC_START	655526	n/a	LTP222	ltpFR	6	7	n/a	n/a	n/a	n/a	n/a	n/a	n/a	n/a	n/a	n/a
1312.168	n/a	REC_WORD	656084	wordpools/wasnorm_wordpool_less_exclusions.txt	LTP222	ltpFR	6	7	0	GATE	625	n/a	1	n/a	n/a	n/a	n/a	n/a
1313.41	n/a	REC_WORD	656705	wordpools/wasnorm_wordpool_less_exclusions.txt	LTP222	ltpFR	6	7	0	FAIRY	549	n/a	1	n/a	n/a	n/a	n/a	n/a
1315.566	n/a	REC_WORD	657783	wordpools/wasnorm_wordpool_less_exclusions.txt	LTP222	ltpFR	6	7	0	BLACKBERRY	132	n/a	0	n/a	n/a	n/a	n/a	n/a
1325.678	n/a	REC_WORD	662839	wordpools/wasnorm_wordpool_less_exclusions.txt	LTP222	ltpFR	6	7	n/a	RASPBERRY	1168	n/a	n/a	n/a	n/a	n/a	n/a	n/a
1332.594	n/a	REC_WORD	666297	wordpools/wasnorm_wordpool_less_exclusions.txt	LTP222	ltpFR	6	7	0	RAIL	1161	n/a	1	n/a	n/a	n/a	n/a	n/a
1333.026	n/a	REC_WORD	666513	wordpools/wasnorm_wordpool_less_exclusions.txt	LTP222	ltpFR	6	7	n/a	WAY	-1	n/a	n/a	n/a	n/a	n/a	n/a	n/a
1334.708	n/a	REC_WORD	667354	wordpools/wasnorm_wordpool_less_exclusions.txt	LTP222	ltpFR	6	7	n/a	SIDEWALK	1303	n/a	n/a	n/a	n/a	n/a	n/a	n/a
1336.798	n/a	REC_WORD	668399	wordpools/wasnorm_wordpool_less_exclusions.txt	LTP222	ltpFR	6	7	0	MARBLE	867	n/a	0	n/a	n/a	n/a	n/a	n/a
1352.104	n/a	REC_WORD	676052	wordpools/wasnorm_wordpool_less_exclusions.txt	LTP222	ltpFR	6	7	n/a	SCULPTURE	1258	n/a	n/a	n/a	n/a	n/a	n/a	n/a
1363.958	n/a	REC_WORD	681979	wordpools/wasnorm_wordpool_less_exclusions.txt	LTP222	ltpFR	6	7	n/a	GRANITE	-1	n/a	n/a	n/a	n/a	n/a	n/a	n/a
1369.786	n/a	REC_WORD	684893	wordpools/wasnorm_wordpool_less_exclusions.txt	LTP222	ltpFR	6	7	0	MACARONI	851	n/a	0	n/a	n/a	n/a	n/a	n/a
1389.67	n/a	WORD	694835	wordpools/wasnorm_wordpool_less_exclusions.txt	LTP222	ltpFR	6	8	1	CHICKEN	297	n/a	n/a	1	0.412841796875	0.57763671875	lower	../fonts/zerothre.ttf
1392.714	n/a	SLOW_MSG	696357	n/a	LTP222	ltpFR	6	8	n/a	n/a	n/a	n/a	n/a	n/a	n/a	n/a	n/a	n/a
1395.318	n/a	WORD	697659	wordpools/wasnorm_wordpool_less_exclusions.txt	LTP222	ltpFR	6	8	1	GROOM	665	n/a	1	1	0.412841796875	0.57763671875	lower	../fonts/zerothre.ttf
1399.424	n/a	WORD	699712	wordpools/wasnorm_wordpool_less_exclusions.txt	LTP222	ltpFR	6	8	1	GROUND	666	n/a	0	1	0.412841796875	0.57763671875	lower	../fonts/zerothre.ttf
1403.582	n/a	WORD	701791	wordpools/wasnorm_wordpool_less_exclusions.txt	LTP222	ltpFR	6	8	1	BREAST	171	n/a	0	1	0.412841796875	0.57763671875	lower	../fonts/zerothre.ttf
1407.754	n/a	WORD	703877	wordpools/wasnorm_wordpool_less_exclusions.txt	LTP222	ltpFR	6	8	1	CREAM	402	n/a	0	1	0.412841796875	0.57763671875	lower	../fonts/zerothre.ttf
1411.912	n/a	WORD	705956	wordpools/wasnorm_wordpool_less_exclusions.txt	LTP222	ltpFR	6	8	1	PADDLE	1000	n/a	0	1	0.412841796875	0.57763671875	lower	../fonts/zerothre.ttf
1415.98	n/a	WORD	707990	wordpools/wasnorm_wordpool_less_exclusions.txt	LTP222	ltpFR	6	8	1	EXPLOSION	544	n/a	0	1	0.412841796875	0.57763671875	lower	../fonts/zerothre.ttf
1419.902	n/a	WORD	709951	wordpools/wasnorm_wordpool_less_exclusions.txt	LTP222	ltpFR	6	8	1	LOBSTER	837	n/a	1	1	0.412841796875	0.57763671875	lower	../fonts/zerothre.ttf
1423.866	n/a	WORD	711933	wordpools/wasnorm_wordpool_less_exclusions.txt	LTP222	ltpFR	6	8	1	SHELL	1281	n/a	0	1	0.412841796875	0.57763671875	lower	../fonts/zerothre.ttf
1427.832	n/a	WORD	713916	wordpools/wasnorm_wordpool_less_exclusions.txt	LTP222	ltpFR	6	8	1	SAND	1230	n/a	0	1	0.412841796875	0.57763671875	lower	../fonts/zerothre.ttf
1431.84	n/a	WORD	715920	wordpools/wasnorm_wordpool_less_exclusions.txt	LTP222	ltpFR	6	8	1	DISH	474	n/a	0	1	0.412841796875	0.57763671875	lower	../fonts/zerothre.ttf
1435.678	n/a	WORD	717839	wordpools/wasnorm_wordpool_less_exclusions.txt	LTP222	ltpFR	6	8	1	PRIEST	1122	n/a	1	1	0.412841796875	0.57763671875	lower	../fonts/zerothre.ttf
1439.778	n/a	WORD	719889	wordpools/wasnorm_wordpool_less_exclusions.txt	LTP222	ltpFR	6	8	1	CATHEDRAL	260	n/a	0	1	0.412841796875	0.57763671875	lower	../fonts/zerothre.ttf
1443.608	n/a	WORD	721804	wordpools/wasnorm_wordpool_less_exclusions.txt	LTP222	ltpFR	6	8	1	MARSH	874	n/a	0	1	0.412841796875	0.57763671875	lower	../fonts/zerothre.ttf
1447.724	n/a	WORD	723862	wordpools/wasnorm_wordpool_less_exclusions.txt	LTP222	ltpFR	6	8	1	THICKET	1455	n/a	0	1	0.412841796875	0.57763671875	lower	../fonts/zerothre.ttf
1451.666	n/a	WORD	725833	wordpools/wasnorm_wordpool_less_exclusions.txt	LTP222	ltpFR	6	8	1	SALOON	1228	n/a	0	1	0.412841796875	0.57763671875	lower	../fonts/zerothre.ttf
1457.564	n/a	REC_START	728782	n/a	LTP222	ltpFR	6	8	n/a	n/a	n/a	n/a	n/a	n/a	n/a	n/a	n/a	n/a
1458.4	n/a	REC_WORD	729200	wordpools/wasnorm_wordpool_less_exclusions.txt	LTP222	ltpFR	6	8	1	SALOON	1228	n/a	0	n/a	n/a	n/a	n/a	n/a
1460.172	n/a	REC_WORD	730086	wordpools/wasnorm_wordpool_less_exclusions.txt	LTP222	ltpFR	6	8	1	BREAST	171	n/a	0	n/a	n/a	n/a	n/a	n/a
1461.424	n/a	REC_WORD	730712	wordpools/wasnorm_wordpool_less_exclusions.txt	LTP222	ltpFR	6	8	1	CHICKEN	297	n/a	n/a	n/a	n/a	n/a	n/a	n/a
1489.698	n/a	REC_WORD	744849	wordpools/wasnorm_wordpool_less_exclusions.txt	LTP222	ltpFR	6	8	0	JOURNAL	760	n/a	0	n/a	n/a	n/a	n/a	n/a
1500.418	n/a	REC_WORD	750209	wordpools/wasnorm_wordpool_less_exclusions.txt	LTP222	ltpFR	6	8	n/a	FILM	565	n/a	n/a	n/a	n/a	n/a	n/a	n/a
1529.03	n/a	REC_WORD	764515	wordpools/wasnorm_wordpool_less_exclusions.txt	LTP222	ltpFR	6	8	1	CATHEDRAL	260	n/a	0	n/a	n/a	n/a	n/a	n/a
1536.674	n/a	WORD	768337	wordpools/wasnorm_wordpool_less_exclusions.txt	LTP222	ltpFR	6	9	-1	COLESLAW	344	n/a	-1	1	1.0	1.0	upper	../fonts/Verdana.ttf
1540.696	n/a	WORD	770348	wordpools/wasnorm_wordpool_less_exclusions.txt	LTP222	ltpFR	6	9	-1	SUPERMARKET	1409	n/a	-1	1	1.0	1.0	upper	../fonts/Verdana.ttf
1544.738	n/a	WORD	772369	wordpools/wasnorm_wordpool_less_exclusions.txt	LTP222	ltpFR	6	9	-1	PAIL	1002	n/a	-1	1	1.0	1.0	upper	../fonts/Verdana.ttf
1548.704	n/a	WORD	774352	wordpools/wasnorm_wordpool_less_exclusions.txt	LTP222	ltpFR	6	9	-1	STOCKING	1383	n/a	-1	1	1.0	1.0	upper	../fonts/Verdana.ttf
1552.592	n/a	WORD	776296	wordpools/wasnorm_wordpool_less_exclusions.txt	LTP222	ltpFR	6	9	-1	WORKER	1621	n/a	-1	1	1.0	1.0	upper	../fonts/Verdana.ttf
1556.65	n/a	WORD	778325	wordpools/wasnorm_wordpool_less_exclusions.txt	LTP222	ltpFR	6	9	-1	CANARY	227	n/a	-1	1	1.0	1.0	upper	../fonts/Verdana.ttf
1560.622	n/a	WORD	780311	wordpools/wasnorm_wordpool_less_exclusions.txt	LTP222	ltpFR	6	9	-1	SHOWER	1296	n/a	-1	1	1.0	1.0	upper	../fonts/Verdana.ttf
1564.696	n/a	WORD	782348	wordpools/wasnorm_wordpool_less_exclusions.txt	LTP222	ltpFR	6	9	-1	SUIT	1402	n/a	-1	1	1.0	1.0	upper	../fonts/Verdana.ttf
1568.712	n/a	WORD	784356	wordpools/wasnorm_wordpool_less_exclusions.txt	LTP222	ltpFR	6	9	-1	CAFETERIA	217	n/a	-1	1	1.0	1.0	upper	../fonts/Verdana.ttf
1572.896	n/a	WORD	786448	wordpools/wasnorm_wordpool_less_exclusions.txt	LTP222	ltpFR	6	9	-1	VIOLA	1570	n/a	-1	1	1.0	1.0	upper	../fonts/Verdana.ttf
1576.868	n/a	WORD	788434	wordpools/wasnorm_wordpool_less_exclusions.txt	LTP222	ltpFR	6	9	-1	WALLET	1583	n/a	-1	1	1.0	1.0	upper	../fonts/Verdana.ttf
1580.976	n/a	WORD	790488	wordpools/wasnorm_wordpool_less_exclusions.txt	LTP222	ltpFR	6	9	-1	DESSERT	453	n/a	-1	1	1.0	1.0	upper	../fonts/Verdana.ttf
1584.95	n/a	WORD	792475	wordpools/wasnorm_wordpool_less_exclusions.txt	LTP222	ltpFR	6	9	-1	COOKIE	374	n/a	-1	1	1.0	1.0	upper	../fonts/Verdana.ttf
1589.098	n/a	WORD	794549	wordpools/wasnorm_wordpool_less_exclusions.txt	LTP222	ltpFR	6	9	-1	BAG	69	n/a	-1	1	1.0	1.0	upper	../fonts/Verdana.ttf
1593.096	n/a	WORD	796548	wordpools/wasnorm_wordpool_less_exclusions.txt	LTP222	ltpFR	6	9	-1	STAPLE	1371	n/a	-1	1	1.0	1.0	upper	../fonts/Verdana.ttf
1596.978	n/a	WORD	798489	wordpools/wasnorm_wordpool_less_exclusions.txt	LTP222	ltpFR	6	9	-1	QUAIL	1147	n/a	-1	1	1.0	1.0	upper	../fonts/Verdana.ttf
1602.994	n/a	REC_START	801497	n/a	LTP222	ltpFR	6	9	n/a	n/a	n/a	n/a	n/a	n/a	n/a	n/a	n/a	n/a
1603.492	n/a	REC_WORD	801746	wordpools/wasnorm_wordpool_less_exclusions.txt	LTP222	ltpFR	6	9	-1	STAPLE	1371	n/a	-1	n/a	n/a	n/a	n/a	n/a
1605.708	n/a	REC_WORD	802854	wordpools/wasnorm_wordpool_less_exclusions.txt	LTP222	ltpFR	6	9	-1	BAG	69	n/a	-1	n/a	n/a	n/a	n/a	n/a
1607.1	n/a	REC_WORD	803550	wordpools/wasnorm_wordpool_less_exclusions.txt	LTP222	ltpFR	6	9	-1	QUAIL	1147	n/a	-1	n/a	n/a	n/a	n/a	n/a
1608.766	n/a	REC_WORD	804383	wordpools/wasnorm_wordpool_less_exclusions.txt	LTP222	ltpFR	6	9	-1	COLESLAW	344	n/a	-1	n/a	n/a	n/a	n/a	n/a
1611.574	n/a	REC_WORD	805787	wordpools/wasnorm_wordpool_less_exclusions.txt	LTP222	ltpFR	6	9	-1	SUPERMARKET	1409	n/a	-1	n/a	n/a	n/a	n/a	n/a
1612.574	n/a	REC_WORD_VV	806287	wordpools/wasnorm_wordpool_less_exclusions.txt	LTP222	ltpFR	6	9	n/a	<>	-1	n/a	n/a	n/a	n/a	n/a	n/a	n/a
1681.712	n/a	WORD	840856	wordpools/wasnorm_wordpool_less_exclusions.txt	LTP222	ltpFR	6	10	-1	BALL	73	n/a	-1	1	1.0	1.0	upper	../fonts/Verdana.ttf
1685.744	n/a	WORD	842872	wordpools/wasnorm_wordpool_less_exclusions.txt	LTP222	ltpFR	6	10	-1	BUGGY	188	n/a	-1	1	1.0	1.0	upper	../fonts/Verdana.ttf
1689.816	n/a	WORD	844908	wordpools/wasnorm_wordpool_less_exclusions.txt	LTP222	ltpFR	6	10	-1	FURNITURE	616	n/a	-1	1	1.0	1.0	upper	../fonts/Verdana.ttf
1693.974	n/a	WORD	846987	wordpools/wasnorm_wordpool_less_exclusions.txt	LTP222	ltpFR	6	10	-1	BANANA	77	n/a	-1	1	1.0	1.0	upper	../fonts/Verdana.ttf
1698.062	n/a	WORD	849031	wordpools/wasnorm_wordpool_less_exclusions.txt	LTP222	ltpFR	6	10	-1	CITRUS	313	n/a	-1	1	1.0	1.0	upper	../fonts/Verdana.ttf
1702.072	n/a	WORD	851036	wordpools/wasnorm_wordpool_less_exclusions.txt	LTP222	ltpFR	6	10	-1	NEUTRON	947	n/a	-1	1	1.0	1.0	upper	../fonts/Verdana.ttf
1706.054	n/a	WORD	853027	wordpools/wasnorm_wordpool_less_exclusions.txt	LTP222	ltpFR	6	10	-1	FRIAR	605	n/a	-1	1	1.0	1.0	upper	../fonts/Verdana.ttf
1709.918	n/a	WORD	854959	wordpools/wasnorm_wordpool_less_exclusions.txt	LTP222	ltpFR	6	10	-1	TABLE	1426	n/a	-1	1	1.0	1.0	upper	../fonts/Verdana.ttf
1713.974	n/a	WORD	856987	wordpools/wasnorm_wordpool_less_exclusions.txt	LTP222	ltpFR	6	10	-1	OATS	968	n/a	-1	1	1.0	1.0	upper	../fonts/Verdana.ttf
1718.124	n/a	WORD	859062	wordpools/wasnorm_wordpool_less_exclusions.txt	LTP222	ltpFR	6	10	-1	NUN	962	n/a	-1	1	1.0	1.0	upper	../fonts/Verdana.ttf
1722.224	n/a	WORD	861112	wordpools/wasnorm_wordpool_less_exclusions.txt	LTP222	ltpFR	6	10	-1	REFEREE	1178	n/a	-1	1	1.0	1.0	upper	../fonts/Verdana.ttf
1726.064	n/a	WORD	863032	wordpools/wasnorm_wordpool_less_exclusions.txt	LTP222	ltpFR	6	10	-1	TORCH	1484	n/a	-1	1	1.0	1.0	upper	../fonts/Verdana.ttf
1730.112	n/a	WORD	865056	wordpools/wasnorm_wordpool_less_exclusions.txt	LTP222	ltpFR	6	10	-1	PIPE	1073	n/a	-1	1	1.0	1.0	upper	../fonts/Verdana.ttf
1734.052	n/a	WORD	867026	wordpools/wasnorm_wordpool_less_exclusions.txt	LTP222	ltpFR	6	10	-1	TRICYCLE	1506	n/a	-1	1	1.0	1.0	upper	../fonts/Verdana.ttf
1737.918	n/a	WORD	868959	wordpools/wasnorm_wordpool_less_exclusions.txt	LTP222	ltpFR	6	10	-1	SCENERY	1247	n/a	-1	1	1.0	1.0	upper	../fonts/Verdana.ttf
1741.958	n/a	WORD	870979	wordpools/wasnorm_wordpool_less_exclusions.txt	LTP222	ltpFR	6	10	-1	DIAGRAM	456	n/a	-1	1	1.0	1.0	upper	../fonts/Verdana.ttf
1747.948	n/a	REC_START	873974	n/a	LTP222	ltpFR	6	10	n/a	n/a	n/a	n/a	n/a	n/a	n/a	n/a	n/a	n/a
1749.53	n/a	REC_WORD	874765	wordpools/wasnorm_wordpool_less_exclusions.txt	LTP222	ltpFR	6	10	-1	SCENERY	1247	n/a	-1	n/a	n/a	n/a	n/a	n/a
1751.32	n/a	REC_WORD	875660	wordpools/wasnorm_wordpool_less_exclusions.txt	LTP222	ltpFR	6	10	-1	DIAGRAM	456	n/a	-1	n/a	n/a	n/a	n/a	n/a
1790.12	n/a	REC_WORD	895060	wordpools/wasnorm_wordpool_less_exclusions.txt	LTP222	ltpFR	6	10	1	CARDINAL	244	n/a	1	n/a	n/a	n/a	n/a	n/a
1814.92	n/a	REC_WORD	907460	wordpools/wasnorm_wordpool_less_exclusions.txt	LTP222	ltpFR	6	10	-1	NEUTRON	947	n/a	-1	n/a	n/a	n/a	n/a	n/a
1826.816	n/a	WORD	913408	wordpools/wasnorm_wordpool_less_exclusions.txt	LTP222	ltpFR	6	11	0	BISON	131	n/a	0	0	0.5869140625	0.422607421875	upper	../fonts/amplitud.ttf
1830.68	n/a	WORD	915340	wordpools/wasnorm_wordpool_less_exclusions.txt	LTP222	ltpFR	6	11	0	ASSISTANT	48	n/a	1	0	0.5869140625	0.422607421875	upper	../fonts/amplitud.ttf
1834.83	n/a	WORD	917415	wordpools/wasnorm_wordpool_less_exclusions.txt	LTP222	ltpFR	6	11	0	QUARTER	1148	n/a	0	0	0.5869140625	0.422607421875	upper	../fonts/amplitud.ttf
1838.852	n/a	WORD	919426	wordpools/wasnorm_wordpool_less_exclusions.txt	LTP222	ltpFR	6	11	0	CHECK	284	n/a	0	0	0.5869140625	0.422607421875	upper	../fonts/amplitud.ttf
1842.85	n/a	WORD	921425	wordpools/wasnorm_wordpool_less_exclusions.txt	LTP222	ltpFR	6	11	0	BULLY	196	n/a	1	0	0.5869140625	0.422607421875	upper	../fonts/amplitud.ttf
1847.042	n/a	WORD	923521	wordpools/wasnorm_wordpool_less_exclusions.txt	LTP222	ltpFR	6	11	0	PORK	1108	n/a	0	0	0.5869140625	0.422607421875	upper	../fonts/amplitud.ttf
1851.0	n/a	WORD	925500	wordpools/wasnorm_wordpool_less_exclusions.txt	LTP222	ltpFR	6	11	0	TROMBONE	1508	n/a	1	0	0.5869140625	0.422607421875	upper	../fonts/amplitud.ttf
1855.14	n/a	WORD	927570	wordpools/wasnorm_wordpool_less_exclusions.txt	LTP222	ltpFR	6	11	0	HAMPER	682	n/a	1	0	0.5869140625	0.422607421875	upper	../fonts/amplitud.ttf
1859.064	n/a	WORD	929532	wordpools/wasnorm_wordpool_less_exclusions.txt	LTP222	ltpFR	6	11	0	CROW	414	n/a	1	0	0.5869140625	0.422607421875	upper	../fonts/amplitud.ttf
1863.078	n/a	WORD	931539	wordpools/wasnorm_wordpool_less_exclusions.txt	LTP222	ltpFR	6	11	0	CAGE	218	n/a	1	0	0.5869140625	0.422607421875	upper	../fonts/amplitud.ttf
1867.076	n/a	WORD	933538	wordpools/wasnorm_wordpool_less_exclusions.txt	LTP222	ltpFR	6	11	0	DESIGNER	451	n/a	1	0	0.5869140625	0.422607421875	upper	../fonts/amplitud.ttf
1870.934	n/a	WORD	935467	wordpools/wasnorm_wordpool_less_exclusions.txt	LTP222	ltpFR	6	11	0	LOCK	838	n/a	0	0	0.5869140625	0.422607421875	upper	../fonts/amplitud.ttf
1874.816	n/a	WORD	937408	wordpools/wasnorm_wordpool_less_exclusions.txt	LTP222	ltpFR	6	11	0	HONEY	713	n/a	0	0	0.5869140625	0.422607421875	upper	../fonts/amplitud.ttf
1879.014	n/a	WORD	939507	wordpools/wasnorm_wordpool_less_exclusions.txt	LTP222	ltpFR	6	11	0	MINT	898	n/a	0	0	0.5869140625	0.422607421875	upper	../fonts/amplitud.ttf
1883.13	n/a	WORD	941565	wordpools/wasnorm_wordpool_less_exclusions.txt	LTP222	ltpFR	6	11	0	FACTORY	548	n/a	1	0	0.5869140625	0.422607421875	upper	../fonts/amplitud.ttf
1887.254	n/a	WORD	943627	wordpools/wasnorm_wordpool_less_exclusions.txt	LTP222	ltpFR	6	11	0	WALRUS	1585	n/a	1	0	0.5869140625	0.422607421875	upper	../fonts/amplitud.ttf
1893.362	n/a	REC_START	946681	n/a	LTP222	ltpFR	6	11	n/a	n/a	n/a	n/a	n/a	n/a	n/a	n/a	n/a	n/a
1894.862	n/a	REC_WORD	947431	wordpools/wasnorm_wordpool_less_exclusions.txt	LTP222	ltpFR	6	11	0	WALRUS	1585	n/a	1	n/a	n/a	n/a	n/a	n/a
1896.704	n/a	REC_WORD	948352	wordpools/wasnorm_wordpool_less_exclusions.txt	LTP222	ltpFR	6	11	0	FACTORY	548	n/a	1	n/a	n/a	n/a	n/a	n/a
1898.31	n/a	REC_WORD	949155	wordpools/wasnorm_wordpool_less_exclusions.txt	LTP222	ltpFR	6	11	0	HONEY	713	n/a	0	n/a	n/a	n/a	n/a	n/a
1929.396	n/a	REC_WORD	964698	wordpools/wasnorm_wordpool_less_exclusions.txt	LTP222	ltpFR	6	11	0	TROMBONE	1508	n/a	1	n/a	n/a	n/a	n/a	n/a
1972.154	n/a	WORD	986077	wordpools/wasnorm_wordpool_less_exclusions.txt	LTP222	ltpFR	6	12	1	PICKLE	1059	n/a	0	1	0.412841796875	0.57763671875	lower	../fonts/zerothre.ttf
1976.026	n/a	WORD	988013	wordpools/wasnorm_wordpool_less_exclusions.txt	LTP222	ltpFR	6	12	1	RAFT	1159	n/a	0	1	0.412841796875	0.57763671875	lower	../fonts/zerothre.ttf
1980.05	n/a	WORD	990025	wordpools/wasnorm_wordpool_less_exclusions.txt	LTP222	ltpFR	6	12	1	CINNAMON	310	n/a	0	1	0.412841796875	0.57763671875	lower	../fonts/zerothre.ttf
1983.966	n/a	WORD	991983	wordpools/wasnorm_wordpool_less_exclusions.txt	LTP222	ltpFR	6	12	0	DOUGH	489	n/a	0	0	0.5869140625	0.422607421875	upper	../fonts/amplitud.ttf
1987.948	n/a	WORD	993974	wordpools/wasnorm_wordpool_less_exclusions.txt	LTP222	ltpFR	6	12	0	CHESS	294	n/a	1	0	0.5869140625	0.422607421875	upper	../fonts/amplitud.ttf
1991.904	n/a	WORD	995952	wordpools/wasnorm_wordpool_less_exclusions.txt	LTP222	ltpFR	6	12	0	ANTELOPE	27	n/a	1	0	0.5869140625	0.422607421875	upper	../fonts/amplitud.ttf
1995.952	n/a	WORD	997976	wordpools/wasnorm_wordpool_less_exclusions.txt	LTP222	ltpFR	6	12	0	SHELF	1280	n/a	1	0	0.5869140625	0.422607421875	upper	../fonts/amplitud.ttf
1999.96	n/a	WORD	999980	wordpools/wasnorm_wordpool_less_exclusions.txt	LTP222	ltpFR	6	12	1	MONSTER	912	n/a	1	1	0.412841796875	0.57763671875	lower	../fonts/zerothre.ttf
2003.9	n/a	WORD	1001950	wordpools/wasnorm_wordpool_less_exclusions.txt	LTP222	ltpFR	6	12	1	PUMP	1141	n/a	0	1	0.412841796875	0.57763671875	lower	../fonts/zerothre.ttf
2007.882	n/a	WORD	1003941	wordpools/wasnorm_wordpool_less_exclusions.txt	LTP222	ltpFR	6	12	0	CLAM	315	n/a	0	0	0.5869140625	0.422607421875	upper	../fonts/amplitud.ttf
2011.964	n/a	WORD	1005982	wordpools/wasnorm_wordpool_less_exclusions.txt	LTP222	ltpFR	6	12	0	PUBLISHER	1137	n/a	1	0	0.5869140625	0.422607421875	upper	../fonts/amplitud.ttf
2015.828	n/a	WORD	1007914	wordpools/wasnorm_wordpool_less_exclusions.txt	LTP222	ltpFR	6	12	0	MASCARA	875	n/a	0	0	0.5869140625	0.422607421875	upper	../fonts/amplitud.ttf
2019.928	n/a	WORD	1009964	wordpools/wasnorm_wordpool_less_exclusions.txt	LTP222	ltpFR	6	12	0	FRECKLE	602	n/a	0	0	0.5869140625	0.422607421875	upper	../fonts/amplitud.ttf
2024.078	n/a	WORD	1012039	wordpools/wasnorm_wordpool_less_exclusions.txt	LTP222	ltpFR	6	12	1	MARINE	869	n/a	1	1	0.412841796875	0.57763671875	lower	../fonts/zerothre.ttf
2028.142	n/a	WORD	1014071	wordpools/wasnorm_wordpool_less_exclusions.txt	LTP222	ltpFR	6	12	1	FRIEND	606	n/a	1	1	0.412841796875	0.57763671875	lower	../fonts/zerothre.ttf
2032.024	n/a	WORD	1016012	wordpools/wasnorm_wordpool_less_exclusions.txt	LTP222	ltpFR	6	12	1	GUEST	669	n/a	1	1	0.412841796875	0.57763671875	lower	../fonts/zerothre.ttf
2037.998	n/a	REC_START	1018999	n/a	LTP222	ltpFR	6	12	n/a	n/a	n/a	n/a	n/a	n/a	n/a	n/a	n/a	n/a
2038.496	n/a	REC_WORD	1019248	wordpools/wasnorm_wordpool_less_exclusions.txt	LTP222	ltpFR	6	12	1	MARINE	869	n/a	1	n/a	n/a	n/a	n/a	n/a
2039.638	n/a	REC_WORD	1019819	wordpools/wasnorm_wordpool_less_exclusions.txt	LTP222	ltpFR	6	12	1	FRIEND	606	n/a	1	n/a	n/a	n/a	n/a	n/a
2041.31	n/a	REC_WORD	1020655	wordpools/wasnorm_wordpool_less_exclusions.txt	LTP222	ltpFR	6	12	1	GUEST	669	n/a	1	n/a	n/a	n/a	n/a	n/a
2042.338	n/a	REC_WORD	1021169	wordpools/wasnorm_wordpool_less_exclusions.txt	LTP222	ltpFR	6	12	0	MASCARA	875	n/a	0	n/a	n/a	n/a	n/a	n/a
2058.228	n/a	REC_WORD	1029114	wordpools/wasnorm_wordpool_less_exclusions.txt	LTP222	ltpFR	6	12	n/a	VACUUM	1543	n/a	n/a	n/a	n/a	n/a	n/a	n/a
2065.676	n/a	REC_WORD	1032838	wordpools/wasnorm_wordpool_less_exclusions.txt	LTP222	ltpFR	6	12	1	CINNAMON	310	n/a	0	n/a	n/a	n/a	n/a	n/a
2070.386	n/a	REC_WORD	1035193	wordpools/wasnorm_wordpool_less_exclusions.txt	LTP222	ltpFR	6	12	0	DOUGH	489	n/a	0	n/a	n/a	n/a	n/a	n/a
2084.564	n/a	REC_WORD	1042282	wordpools/wasnorm_wordpool_less_exclusions.txt	LTP222	ltpFR	6	12	1	RAFT	1159	n/a	0	n/a	n/a	n/a	n/a	n/a
2101.97	n/a	REC_WORD	1050985	wordpools/wasnorm_wordpool_less_exclusions.txt	LTP222	ltpFR	6	12	1	PICKLE	1059	n/a	0	n/a	n/a	n/a	n/a	n/a
2113.644	n/a	REST_REWET	1056822	n/a	LTP222	ltpFR	6	12	n/a	n/a	n/a	n/a	n/a	n/a	n/a	n/a	n/a	n/a
2449.544	n/a	WORD	1224772	wordpools/wasnorm_wordpool_less_exclusions.txt	LTP222	ltpFR	6	13	-1	COCKTAIL	338	n/a	-1	1	1.0	1.0	upper	../fonts/Verdana.ttf
2453.61	n/a	WORD	1226805	wordpools/wasnorm_wordpool_less_exclusions.txt	LTP222	ltpFR	6	13	-1	PHOTO	1055	n/a	-1	1	1.0	1.0	upper	../fonts/Verdana.ttf
2457.8	n/a	WORD	1228900	wordpools/wasnorm_wordpool_less_exclusions.txt	LTP222	ltpFR	6	13	-1	LUMBER	848	n/a	-1	1	1.0	1.0	upper	../fonts/Verdana.ttf
2461.716	n/a	WORD	1230858	wordpools/wasnorm_wordpool_less_exclusions.txt	LTP222	ltpFR	6	13	-1	LODGE	839	n/a	-1	1	1.0	1.0	upper	../fonts/Verdana.ttf
2465.882	n/a	WORD	1232941	wordpools/wasnorm_wordpool_less_exclusions.txt	LTP222	ltpFR	6	13	-1	PANTS	1010	n/a	-1	1	1.0	1.0	upper	../fonts/Verdana.ttf
2469.914	n/a	WORD	1234957	wordpools/wasnorm_wordpool_less_exclusions.txt	LTP222	ltpFR	6	13	-1	POTATO	1115	n/a	-1	1	1.0	1.0	upper	../fonts/Verdana.ttf
2473.854	n/a	WORD	1236927	wordpools/wasnorm_wordpool_less_exclusions.txt	LTP222	ltpFR	6	13	-1	TAVERN	1437	n/a	-1	1	1.0	1.0	upper	../fonts/Verdana.ttf
2477.752	n/a	WORD	1238876	wordpools/wasnorm_wordpool_less_exclusions.txt	LTP222	ltpFR	6	13	-1	CAPE	237	n/a	-1	1	1.0	1.0	upper	../fonts/Verdana.ttf
2481.81	n/a	WORD	1240905	wordpools/wasnorm_wordpool_less_exclusions.txt	LTP222	ltpFR	6	13	-1	THERMOMETER	1453	n/a	-1	1	1.0	1.0	upper	../fonts/Verdana.ttf
2485.968	n/a	WORD	1242984	wordpools/wasnorm_wordpool_less_exclusions.txt	LTP222	ltpFR	6	13	-1	BRAN	167	n/a	-1	1	1.0	1.0	upper	../fonts/Verdana.ttf
2490.116	n/a	WORD	1245058	wordpools/wasnorm_wordpool_less_exclusions.txt	LTP222	ltpFR	6	13	-1	SHORTS	1293	n/a	-1	1	1.0	1.0	upper	../fonts/Verdana.ttf
2494.24	n/a	WORD	1247120	wordpools/wasnorm_wordpool_less_exclusions.txt	LTP222	ltpFR	6	13	-1	DILL	465	n/a	-1	1	1.0	1.0	upper	../fonts/Verdana.ttf
2498.13	n/a	WORD	1249065	wordpools/wasnorm_wordpool_less_exclusions.txt	LTP222	ltpFR	6	13	-1	COBBLER	335	n/a	-1	1	1.0	1.0	upper	../fonts/Verdana.ttf
2502.17	n/a	WORD	1251085	wordpools/wasnorm_wordpool_less_exclusions.txt	LTP222	ltpFR	6	13	-1	PRUNE	1134	n/a	-1	1	1.0	1.0	upper	../fonts/Verdana.ttf
2506.212	n/a	WORD	1253106	wordpools/wasnorm_wordpool_less_exclusions.txt	LTP222	ltpFR	6	13	-1	CHEF	290	n/a	-1	1	1.0	1.0	upper	../fonts/Verdana.ttf
2510.218	n/a	WORD	1255109	wordpools/wasnorm_wordpool_less_exclusions.txt	LTP222	ltpFR	6	13	-1	RECIPE	1175	n/a	-1	1	1.0	1.0	upper	../fonts/Verdana.ttf
2515.916	n/a	REC_START	1257958	n/a	LTP222	ltpFR	6	13	n/a	n/a	n/a	n/a	n/a	n/a	n/a	n/a	n/a	n/a
2518.71	n/a	REC_WORD	1259355	wordpools/wasnorm_wordpool_less_exclusions.txt	LTP222	ltpFR	6	13	-1	CHEF	290	n/a	-1	n/a	n/a	n/a	n/a	n/a
2520.55	n/a	REC_WORD	1260275	wordpools/wasnorm_wordpool_less_exclusions.txt	LTP222	ltpFR	6	13	-1	RECIPE	1175	n/a	-1	n/a	n/a	n/a	n/a	n/a
2522.402	n/a	REC_WORD	1261201	wordpools/wasnorm_wordpool_less_exclusions.txt	LTP222	ltpFR	6	13	-1	COCKTAIL	338	n/a	-1	n/a	n/a	n/a	n/a	n/a
2524.082	n/a	REC_WORD	1262041	wordpools/wasnorm_wordpool_less_exclusions.txt	LTP222	ltpFR	6	13	-1	PHOTO	1055	n/a	-1	n/a	n/a	n/a	n/a	n/a
2525.788	n/a	REC_WORD	1262894	wordpools/wasnorm_wordpool_less_exclusions.txt	LTP222	ltpFR	6	13	-1	LUMBER	848	n/a	-1	n/a	n/a	n/a	n/a	n/a
2529.096	n/a	REC_WORD	1264548	wordpools/wasnorm_wordpool_less_exclusions.txt	LTP222	ltpFR	6	13	-1	BRAN	167	n/a	-1	n/a	n/a	n/a	n/a	n/a
2543.554	n/a	REC_WORD	1271777	wordpools/wasnorm_wordpool_less_exclusions.txt	LTP222	ltpFR	6	13	-1	OATS	968	n/a	-1	n/a	n/a	n/a	n/a	n/a
2555.398	n/a	REC_WORD	1277699	wordpools/wasnorm_wordpool_less_exclusions.txt	LTP222	ltpFR	6	13	n/a	LOG	841	n/a	n/a	n/a	n/a	n/a	n/a	n/a
2555.704	n/a	REC_WORD	1277852	wordpools/wasnorm_wordpool_less_exclusions.txt	LTP222	ltpFR	6	13	n/a	CABIN	211	n/a	n/a	n/a	n/a	n/a	n/a	n/a
2594.958	n/a	WORD	1297479	wordpools/wasnorm_wordpool_less_exclusions.txt	LTP222	ltpFR	6	14	1	HAMMOCK	681	n/a	0	1	0.412841796875	0.57763671875	lower	../fonts/zerothre.ttf
2598.84	n/a	WORD	1299420	wordpools/wasnorm_wordpool_less_exclusions.txt	LTP222	ltpFR	6	14	1	BLANKET	135	n/a	0	1	0.412841796875	0.57763671875	lower	../fonts/zerothre.ttf
2602.848	n/a	WORD	1301424	wordpools/wasnorm_wordpool_less_exclusions.txt	LTP222	ltpFR	6	14	1	MISSILE	900	n/a	0	1	0.412841796875	0.57763671875	lower	../fonts/zerothre.ttf
2606.736	n/a	WORD	1303368	wordpools/wasnorm_wordpool_less_exclusions.txt	LTP222	ltpFR	6	14	1	MOLECULE	905	n/a	0	1	0.412841796875	0.57763671875	lower	../fonts/zerothre.ttf
2610.584	n/a	WORD	1305292	wordpools/wasnorm_wordpool_less_exclusions.txt	LTP222	ltpFR	6	14	0	SHINGLE	1285	n/a	0	0	0.5869140625	0.422607421875	upper	../fonts/amplitud.ttf
2614.592	n/a	WORD	1307296	wordpools/wasnorm_wordpool_less_exclusions.txt	LTP222	ltpFR	6	14	0	HERO	706	n/a	1	0	0.5869140625	0.422607421875	upper	../fonts/amplitud.ttf
2618.776	n/a	WORD	1309388	wordpools/wasnorm_wordpool_less_exclusions.txt	LTP222	ltpFR	6	14	0	STREET	1393	n/a	1	0	0.5869140625	0.422607421875	upper	../fonts/amplitud.ttf
2622.89	n/a	WORD	1311445	wordpools/wasnorm_wordpool_less_exclusions.txt	LTP222	ltpFR	6	14	0	COLT	349	n/a	1	0	0.5869140625	0.422607421875	upper	../fonts/amplitud.ttf
2626.956	n/a	WORD	1313478	wordpools/wasnorm_wordpool_less_exclusions.txt	LTP222	ltpFR	6	14	0	HAY	693	n/a	1	0	0.5869140625	0.422607421875	upper	../fonts/amplitud.ttf
2631.122	n/a	WORD	1315561	wordpools/wasnorm_wordpool_less_exclusions.txt	LTP222	ltpFR	6	14	0	TERMITE	1451	n/a	0	0	0.5869140625	0.422607421875	upper	../fonts/amplitud.ttf
2635.172	n/a	WORD	1317586	wordpools/wasnorm_wordpool_less_exclusions.txt	LTP222	ltpFR	6	14	1	SHEET	1279	n/a	0	1	0.412841796875	0.57763671875	lower	../fonts/zerothre.ttf
2639.002	n/a	WORD	1319501	wordpools/wasnorm_wordpool_less_exclusions.txt	LTP222	ltpFR	6	14	1	BUTLER	204	n/a	1	1	0.412841796875	0.57763671875	lower	../fonts/zerothre.ttf
2643.142	n/a	WORD	1321571	wordpools/wasnorm_wordpool_less_exclusions.txt	LTP222	ltpFR	6	14	1	MOON	914	n/a	0	1	0.412841796875	0.57763671875	lower	../fonts/zerothre.ttf
2647.108	n/a	WORD	1323554	wordpools/wasnorm_wordpool_less_exclusions.txt	LTP222	ltpFR	6	14	1	SNAKE	1333	n/a	1	1	0.412841796875	0.57763671875	lower	../fonts/zerothre.ttf
2650.964	n/a	WORD	1325482	wordpools/wasnorm_wordpool_less_exclusions.txt	LTP222	ltpFR	6	14	0	CEILING	265	n/a	1	0	0.5869140625	0.422607421875	upper	../fonts/amplitud.ttf
2655.188	n/a	WORD	1327594	wordpools/wasnorm_wordpool_less_exclusions.txt	LTP222	ltpFR	6	14	0	TICK	1463	n/a	0	0	0.5869140625	0.422607421875	upper	../fonts/amplitud.ttf
2661.16	n/a	REC_START	1330580	n/a	LTP222	ltpFR	6	14	n/a	n/a	n/a	n/a	n/a	n/a	n/a	n/a	n/a	n/a
2663.278	n/a	REC_WORD	1331639	wordpools/wasnorm_wordpool_less_exclusions.txt	LTP222	ltpFR	6	14	0	CEILING	265	n/a	1	n/a	n/a	n/a	n/a	n/a
2665.176	n/a	REC_WORD	1332588	wordpools/wasnorm_wordpool_less_exclusions.txt	LTP222	ltpFR	6	14	0	TICK	1463	n/a	0	n/a	n/a	n/a	n/a	n/a
2668.828	n/a	REC_WORD	1334414	wordpools/wasnorm_wordpool_less_exclusions.txt	LTP222	ltpFR	6	14	1	MOLECULE	905	n/a	0	n/a	n/a	n/a	n/a	n/a
2675.21	n/a	REC_WORD	1337605	wordpools/wasnorm_wordpool_less_exclusions.txt	LTP222	ltpFR	6	14	0	CEILING	265	n/a	1	n/a	n/a	n/a	n/a	n/a
2686.698	n/a	REC_WORD	1343349	wordpools/wasnorm_wordpool_less_exclusions.txt	LTP222	ltpFR	6	14	1	SHEET	1279	n/a	0	n/a	n/a	n/a	n/a	n/a
2733.844	n/a	REC_WORD	1366922	wordpools/wasnorm_wordpool_less_exclusions.txt	LTP222	ltpFR	6	14	-1	COCKTAIL	338	n/a	-1	n/a	n/a	n/a	n/a	n/a
2740.53	n/a	WORD	1370265	wordpools/wasnorm_wordpool_less_exclusions.txt	LTP222	ltpFR	6	15	0	UNICORN	1538	n/a	n/a	0	0.5869140625	0.422607421875	upper	../fonts/amplitud.ttf
2743.576	n/a	SLOW_MSG	1371788	n/a	LTP222	ltpFR	6	15	n/a	n/a	n/a	n/a	n/a	n/a	n/a	n/a	n/a	n/a
2746.27	n/a	WORD	1373135	wordpools/wasnorm_wordpool_less_exclusions.txt	LTP222	ltpFR	6	15	0	SEA	1259	n/a	1	0	0.5869140625	0.422607421875	upper	../fonts/amplitud.ttf
2750.178	n/a	WORD	1375089	wordpools/wasnorm_wordpool_less_exclusions.txt	LTP222	ltpFR	6	15	0	VEST	1559	n/a	1	0	0.5869140625	0.422607421875	upper	../fonts/amplitud.ttf
2754.31	n/a	WORD	1377155	wordpools/wasnorm_wordpool_less_exclusions.txt	LTP222	ltpFR	6	15	0	DAUGHTER	442	n/a	1	0	0.5869140625	0.422607421875	upper	../fonts/amplitud.ttf
2758.266	n/a	WORD	1379133	wordpools/wasnorm_wordpool_less_exclusions.txt	LTP222	ltpFR	6	15	1	JAW	751	n/a	0	1	0.412841796875	0.57763671875	lower	../fonts/zerothre.ttf
2762.49	n/a	WORD	1381245	wordpools/wasnorm_wordpool_less_exclusions.txt	LTP222	ltpFR	6	15	1	CRITIC	410	n/a	1	1	0.412841796875	0.57763671875	lower	../fonts/zerothre.ttf
2766.556	n/a	WORD	1383278	wordpools/wasnorm_wordpool_less_exclusions.txt	LTP222	ltpFR	6	15	0	SNACK	1331	n/a	0	0	0.5869140625	0.422607421875	upper	../fonts/amplitud.ttf
2770.472	n/a	WORD	1385236	wordpools/wasnorm_wordpool_less_exclusions.txt	LTP222	ltpFR	6	15	0	CAFE	216	n/a	1	0	0.5869140625	0.422607421875	upper	../fonts/amplitud.ttf
2774.51	n/a	WORD	1387255	wordpools/wasnorm_wordpool_less_exclusions.txt	LTP222	ltpFR	6	15	1	SHERIFF	1284	n/a	1	1	0.412841796875	0.57763671875	lower	../fonts/zerothre.ttf
2778.434	n/a	WORD	1389217	wordpools/wasnorm_wordpool_less_exclusions.txt	LTP222	ltpFR	6	15	1	MANSION	864	n/a	1	1	0.412841796875	0.57763671875	lower	../fonts/zerothre.ttf
2782.534	n/a	WORD	1391267	wordpools/wasnorm_wordpool_less_exclusions.txt	LTP222	ltpFR	6	15	1	KEEPER	769	n/a	1	1	0.412841796875	0.57763671875	lower	../fonts/zerothre.ttf
2786.558	n/a	WORD	1393279	wordpools/wasnorm_wordpool_less_exclusions.txt	LTP222	ltpFR	6	15	1	HINGE	709	n/a	0	1	0.412841796875	0.57763671875	lower	../fonts/zerothre.ttf
2790.406	n/a	WORD	1395203	wordpools/wasnorm_wordpool_less_exclusions.txt	LTP222	ltpFR	6	15	1	OFFICER	973	n/a	1	1	0.412841796875	0.57763671875	lower	../fonts/zerothre.ttf
2794.304	n/a	WORD	1397152	wordpools/wasnorm_wordpool_less_exclusions.txt	LTP222	ltpFR	6	15	1	MULE	931	n/a	1	1	0.412841796875	0.57763671875	lower	../fonts/zerothre.ttf
2798.344	n/a	WORD	1399172	wordpools/wasnorm_wordpool_less_exclusions.txt	LTP222	ltpFR	6	15	0	WASHCLOTH	1591	n/a	0	0	0.5869140625	0.422607421875	upper	../fonts/amplitud.ttf
2802.344	n/a	WORD	1401172	wordpools/wasnorm_wordpool_less_exclusions.txt	LTP222	ltpFR	6	15	0	SLIDE	1326	n/a	1	0	0.5869140625	0.422607421875	upper	../fonts/amplitud.ttf
2808.208	n/a	REC_START	1404104	n/a	LTP222	ltpFR	6	15	n/a	n/a	n/a	n/a	n/a	n/a	n/a	n/a	n/a	n/a
2812.572	n/a	REC_WORD	1406286	wordpools/wasnorm_wordpool_less_exclusions.txt	LTP222	ltpFR	6	15	0	WASHCLOTH	1591	n/a	0	n/a	n/a	n/a	n/a	n/a
2814.212	n/a	REC_WORD	1407106	wordpools/wasnorm_wordpool_less_exclusions.txt	LTP222	ltpFR	6	15	0	SLIDE	1326	n/a	1	n/a	n/a	n/a	n/a	n/a
2823.074	n/a	REC_WORD	1411537	wordpools/wasnorm_wordpool_less_exclusions.txt	LTP222	ltpFR	6	15	1	CRITIC	410	n/a	1	n/a	n/a	n/a	n/a	n/a
2837.78	n/a	REC_WORD	1418890	wordpools/wasnorm_wordpool_less_exclusions.txt	LTP222	ltpFR	6	15	1	BLANKET	135	n/a	0	n/a	n/a	n/a	n/a	n/a
2847.52	n/a	REC_WORD	1423760	wordpools/wasnorm_wordpool_less_exclusions.txt	LTP222	ltpFR	6	15	0	DAUGHTER	442	n/a	1	n/a	n/a	n/a	n/a	n/a
2870.334	n/a	REC_WORD	1435167	wordpools/wasnorm_wordpool_less_exclusions.txt	LTP222	ltpFR	6	15	1	HINGE	709	n/a	0	n/a	n/a	n/a	n/a	n/a
2872.804	n/a	REC_WORD	1436402	wordpools/wasnorm_wordpool_less_exclusions.txt	LTP222	ltpFR	6	15	0	TOOL	1480	n/a	0	n/a	n/a	n/a	n/a	n/a
2887.418	n/a	WORD	1443709	wordpools/wasnorm_wordpool_less_exclusions.txt	LTP222	ltpFR	6	16	0	STAPLER	1372	n/a	0	0	0.5869140625	0.422607421875	upper	../fonts/amplitud.ttf
2891.34	n/a	WORD	1445670	wordpools/wasnorm_wordpool_less_exclusions.txt	LTP222	ltpFR	6	16	0	SIGN	1305	n/a	1	0	0.5869140625	0.422607421875	upper	../fonts/amplitud.ttf
2895.39	n/a	WORD	1447695	wordpools/wasnorm_wordpool_less_exclusions.txt	LTP222	ltpFR	6	16	0	STAIRS	1367	n/a	1	0	0.5869140625	0.422607421875	upper	../fonts/amplitud.ttf
2899.438	n/a	WORD	1449719	wordpools/wasnorm_wordpool_less_exclusions.txt	LTP222	ltpFR	6	16	0	WHALE	1601	n/a	1	0	0.5869140625	0.422607421875	upper	../fonts/amplitud.ttf
2903.43	n/a	WORD	1451715	wordpools/wasnorm_wordpool_less_exclusions.txt	LTP222	ltpFR	6	16	0	TOOTH	1481	n/a	0	0	0.5869140625	0.422607421875	upper	../fonts/amplitud.ttf
2907.402	n/a	WORD	1453701	wordpools/wasnorm_wordpool_less_exclusions.txt	LTP222	ltpFR	6	16	0	BEEF	113	n/a	0	0	0.5869140625	0.422607421875	upper	../fonts/amplitud.ttf
2911.494	n/a	WORD	1455747	wordpools/wasnorm_wordpool_less_exclusions.txt	LTP222	ltpFR	6	16	0	DOLLAR	482	n/a	0	0	0.5869140625	0.422607421875	upper	../fonts/amplitud.ttf
2915.7	n/a	WORD	1457850	wordpools/wasnorm_wordpool_less_exclusions.txt	LTP222	ltpFR	6	16	0	BOOTH	151	n/a	1	0	0.5869140625	0.422607421875	upper	../fonts/amplitud.ttf
2919.8	n/a	WORD	1459900	wordpools/wasnorm_wordpool_less_exclusions.txt	LTP222	ltpFR	6	16	0	FENCE	560	n/a	1	0	0.5869140625	0.422607421875	upper	../fonts/amplitud.ttf
2923.864	n/a	WORD	1461932	wordpools/wasnorm_wordpool_less_exclusions.txt	LTP222	ltpFR	6	16	0	CHAIN	273	n/a	1	0	0.5869140625	0.422607421875	upper	../fonts/amplitud.ttf
2927.78	n/a	WORD	1463890	wordpools/wasnorm_wordpool_less_exclusions.txt	LTP222	ltpFR	6	16	0	PLATE	1086	n/a	0	0	0.5869140625	0.422607421875	upper	../fonts/amplitud.ttf
2931.978	n/a	WORD	1465989	wordpools/wasnorm_wordpool_less_exclusions.txt	LTP222	ltpFR	6	16	0	FEAST	556	n/a	1	0	0.5869140625	0.422607421875	upper	../fonts/amplitud.ttf
2935.878	n/a	WORD	1467939	wordpools/wasnorm_wordpool_less_exclusions.txt	LTP222	ltpFR	6	16	0	TOTE	1487	n/a	0	0	0.5869140625	0.422607421875	upper	../fonts/amplitud.ttf
2940.094	n/a	WORD	1470047	wordpools/wasnorm_wordpool_less_exclusions.txt	LTP222	ltpFR	6	16	0	SUITCASE	1403	n/a	1	0	0.5869140625	0.422607421875	upper	../fonts/amplitud.ttf
2944.058	n/a	WORD	1472029	wordpools/wasnorm_wordpool_less_exclusions.txt	LTP222	ltpFR	6	16	0	ELEVATOR	524	n/a	1	0	0.5869140625	0.422607421875	upper	../fonts/amplitud.ttf
2948.208	n/a	WORD	1474104	wordpools/wasnorm_wordpool_less_exclusions.txt	LTP222	ltpFR	6	16	0	TANK	1432	n/a	1	0	0.5869140625	0.422607421875	upper	../fonts/amplitud.ttf
2953.824	n/a	REC_START	1476912	n/a	LTP222	ltpFR	6	16	n/a	n/a	n/a	n/a	n/a	n/a	n/a	n/a	n/a	n/a
2955.834	n/a	REC_WORD	1477917	wordpools/wasnorm_wordpool_less_exclusions.txt	LTP222	ltpFR	6	16	0	ELEVATOR	524	n/a	1	n/a	n/a	n/a	n/a	n/a
2957.484	n/a	REC_WORD	1478742	wordpools/wasnorm_wordpool_less_exclusions.txt	LTP222	ltpFR	6	16	0	TANK	1432	n/a	1	n/a	n/a	n/a	n/a	n/a
2959.34	n/a	REC_WORD	1479670	wordpools/wasnorm_wordpool_less_exclusions.txt	LTP222	ltpFR	6	16	0	TOOTH	1481	n/a	0	n/a	n/a	n/a	n/a	n/a
2963.77	n/a	REC_WORD	1481885	wordpools/wasnorm_wordpool_less_exclusions.txt	LTP222	ltpFR	6	16	0	CHAIN	273	n/a	1	n/a	n/a	n/a	n/a	n/a
2969.234	n/a	REC_WORD	1484617	wordpools/wasnorm_wordpool_less_exclusions.txt	LTP222	ltpFR	6	16	n/a	THIEF	1456	n/a	n/a	n/a	n/a	n/a	n/a	n/a
2976.782	n/a	REC_WORD	1488391	wordpools/wasnorm_wordpool_less_exclusions.txt	LTP222	ltpFR	6	16	0	FEAST	556	n/a	1	n/a	n/a	n/a	n/a	n/a
2980.438	n/a	REC_WORD	1490219	wordpools/wasnorm_wordpool_less_exclusions.txt	LTP222	ltpFR	6	16	0	DOLLAR	482	n/a	0	n/a	n/a	n/a	n/a	n/a
3008.816	n/a	REC_WORD	1504408	wordpools/wasnorm_wordpool_less_exclusions.txt	LTP222	ltpFR	6	16	0	FENCE	560	n/a	1	n/a	n/a	n/a	n/a	n/a
3015.756	n/a	REC_WORD	1507878	wordpools/wasnorm_wordpool_less_exclusions.txt	LTP222	ltpFR	6	16	n/a	CUPBOARD	425	n/a	n/a	n/a	n/a	n/a	n/a	n/a
3051.848	n/a	REC_START	1525924	n/a	LTP222	ltpFR	6	n/a	n/a	n/a	n/a	n/a	n/a	n/a	n/a	n/a	n/a	n/a
3052.166	n/a	FFR_REC_WORD	1526083	wordpools/wasnorm_wordpool_less_exclusions.txt	LTP222	ltpFR	6	n/a	n/a	KING	777	n/a	n/a	n/a	n/a	n/a	n/a	n/a
3053.602	n/a	FFR_REC_WORD	1526801	wordpools/wasnorm_wordpool_less_exclusions.txt	LTP222	ltpFR	6	n/a	0	CROWN	415	n/a	0	n/a	n/a	n/a	n/a	n/a
3055.384	n/a	FFR_REC_WORD	1527692	wordpools/wasnorm_wordpool_less_exclusions.txt	LTP222	ltpFR	6	n/a	0	FENCE	560	n/a	1	n/a	n/a	n/a	n/a	n/a
3056.836	n/a	FFR_REC_WORD	1528418	wordpools/wasnorm_wordpool_less_exclusions.txt	LTP222	ltpFR	6	n/a	-1	CHEF	290	n/a	-1	n/a	n/a	n/a	n/a	n/a
3058.262	n/a	FFR_REC_WORD	1529131	wordpools/wasnorm_wordpool_less_exclusions.txt	LTP222	ltpFR	6	n/a	-1	RECIPE	1175	n/a	-1	n/a	n/a	n/a	n/a	n/a
3060.542	n/a	FFR_REC_WORD	1530271	wordpools/wasnorm_wordpool_less_exclusions.txt	LTP222	ltpFR	6	n/a	0	CHAIN	273	n/a	1	n/a	n/a	n/a	n/a	n/a
3064.922	n/a	FFR_REC_WORD	1532461	wordpools/wasnorm_wordpool_less_exclusions.txt	LTP222	ltpFR	6	n/a	n/a	STEW	1380	n/a	n/a	n/a	n/a	n/a	n/a	n/a
3066.154	n/a	FFR_REC_WORD	1533077	wordpools/wasnorm_wordpool_less_exclusions.txt	LTP222	ltpFR	6	n/a	n/a	NICKEL	950	n/a	n/a	n/a	n/a	n/a	n/a	n/a
3067.168	n/a	FFR_REC_WORD	1533584	wordpools/wasnorm_wordpool_less_exclusions.txt	LTP222	ltpFR	6	n/a	0	DOLLAR	482	n/a	0	n/a	n/a	n/a	n/a	n/a
3073.414	n/a	FFR_REC_WORD	1536707	wordpools/wasnorm_wordpool_less_exclusions.txt	LTP222	ltpFR	6	n/a	0	TROMBONE	1508	n/a	1	n/a	n/a	n/a	n/a	n/a
3076.438	n/a	FFR_REC_WORD	1538219	wordpools/wasnorm_wordpool_less_exclusions.txt	LTP222	ltpFR	6	n/a	1	SHEET	1279	n/a	0	n/a	n/a	n/a	n/a	n/a
3077.13	n/a	FFR_REC_WORD	1538565	wordpools/wasnorm_wordpool_less_exclusions.txt	LTP222	ltpFR	6	n/a	1	BLANKET	135	n/a	0	n/a	n/a	n/a	n/a	n/a
3082.802	n/a	FFR_REC_WORD	1541401	wordpools/wasnorm_wordpool_less_exclusions.txt	LTP222	ltpFR	6	n/a	0	JOURNAL	760	n/a	0	n/a	n/a	n/a	n/a	n/a
3089.942	n/a	FFR_REC_WORD	1544971	wordpools/wasnorm_wordpool_less_exclusions.txt	LTP222	ltpFR	6	n/a	n/a	GARDEN	623	n/a	n/a	n/a	n/a	n/a	n/a	n/a
3090.466	n/a	FFR_REC_WORD	1545233	wordpools/wasnorm_wordpool_less_exclusions.txt	LTP222	ltpFR	6	n/a	0	FEAST	556	n/a	1	n/a	n/a	n/a	n/a	n/a
3094.782	n/a	FFR_REC_WORD	1547391	wordpools/wasnorm_wordpool_less_exclusions.txt	LTP222	ltpFR	6	n/a	0	GATE	625	n/a	1	n/a	n/a	n/a	n/a	n/a
3095.654	n/a	FFR_REC_WORD	1547827	wordpools/wasnorm_wordpool_less_exclusions.txt	LTP222	ltpFR	6	n/a	n/a	OCEAN	970	n/a	n/a	n/a	n/a	n/a	n/a	n/a
3103.76	n/a	FFR_REC_WORD	1551880	wordpools/wasnorm_wordpool_less_exclusions.txt	LTP222	ltpFR	6	n/a	0	CEILING	265	n/a	1	n/a	n/a	n/a	n/a	n/a
3116.434	n/a	FFR_REC_WORD	1558217	wordpools/wasnorm_wordpool_less_exclusions.txt	LTP222	ltpFR	6	n/a	1	PERSON	1052	n/a	1	n/a	n/a	n/a	n/a	n/a
3117.73	n/a	FFR_REC_WORD	1558865	wordpools/wasnorm_wordpool_less_exclusions.txt	LTP222	ltpFR	6	n/a	1	FEMALE	559	n/a	1	n/a	n/a	n/a	n/a	n/a
3119.796	n/a	FFR_REC_WORD	1559898	wordpools/wasnorm_wordpool_less_exclusions.txt	LTP222	ltpFR	6	n/a	0	DAUGHTER	442	n/a	1	n/a	n/a	n/a	n/a	n/a
3127.808	n/a	FFR_REC_WORD	1563904	wordpools/wasnorm_wordpool_less_exclusions.txt	LTP222	ltpFR	6	n/a	1	TEACHER	1440	n/a	1	n/a	n/a	n/a	n/a	n/a
3134.224	n/a	FFR_REC_WORD	1567112	wordpools/wasnorm_wordpool_less_exclusions.txt	LTP222	ltpFR	6	n/a	1	CANVAS	234	n/a	0	n/a	n/a	n/a	n/a	n/a
3141.772	n/a	FFR_REC_WORD	1570886	wordpools/wasnorm_wordpool_less_exclusions.txt	LTP222	ltpFR	6	n/a	-1	BRAN	167	n/a	-1	n/a	n/a	n/a	n/a	n/a
3144.482	n/a	FFR_REC_WORD	1572241	wordpools/wasnorm_wordpool_less_exclusions.txt	LTP222	ltpFR	6	n/a	-1	COCKTAIL	338	n/a	-1	n/a	n/a	n/a	n/a	n/a
3148.314	n/a	FFR_REC_WORD	1574157	wordpools/wasnorm_wordpool_less_exclusions.txt	LTP222	ltpFR	6	n/a	n/a	BARTENDER	92	n/a	n/a	n/a	n/a	n/a	n/a	n/a
3152.848	n/a	FFR_REC_WORD	1576424	wordpools/wasnorm_wordpool_less_exclusions.txt	LTP222	ltpFR	6	n/a	n/a	BRANDY	169	n/a	n/a	n/a	n/a	n/a	n/a	n/a
3164.418	n/a	FFR_REC_WORD	1582209	wordpools/wasnorm_wordpool_less_exclusions.txt	LTP222	ltpFR	6	n/a	0	COLT	349	n/a	1	n/a	n/a	n/a	n/a	n/a
3169.432	n/a	FFR_REC_WORD	1584716	wordpools/wasnorm_wordpool_less_exclusions.txt	LTP222	ltpFR	6	n/a	1	CHICKEN	297	n/a	n/a	n/a	n/a	n/a	n/a	n/a
3171.92	n/a	FFR_REC_WORD	1585960	wordpools/wasnorm_wordpool_less_exclusions.txt	LTP222	ltpFR	6	n/a	0	BEEF	113	n/a	0	n/a	n/a	n/a	n/a	n/a
3183.126	n/a	FFR_REC_WORD	1591563	wordpools/wasnorm_wordpool_less_exclusions.txt	LTP222	ltpFR	6	n/a	0	PLATE	1086	n/a	0	n/a	n/a	n/a	n/a	n/a
3191.662	n/a	FFR_REC_WORD	1595831	wordpools/wasnorm_wordpool_less_exclusions.txt	LTP222	ltpFR	6	n/a	n/a	TROUSERS	1510	n/a	n/a	n/a	n/a	n/a	n/a	n/a
3197.384	n/a	FFR_REC_WORD	1598692	wordpools/wasnorm_wordpool_less_exclusions.txt	LTP222	ltpFR	6	n/a	1	KIDNEY	776	n/a	0	n/a	n/a	n/a	n/a	n/a
3198.566	n/a	FFR_REC_WORD	1599283	wordpools/wasnorm_wordpool_less_exclusions.txt	LTP222	ltpFR	6	n/a	1	STOMACH	1384	n/a	0	n/a	n/a	n/a	n/a	n/a
3206.468	n/a	FFR_REC_WORD	1603234	wordpools/wasnorm_wordpool_less_exclusions.txt	LTP222	ltpFR	6	n/a	1	FOREHEAD	592	n/a	0	n/a	n/a	n/a	n/a	n/a
3232.83	n/a	FFR_REC_WORD	1616415	wordpools/wasnorm_wordpool_less_exclusions.txt	LTP222	ltpFR	6	n/a	1	METEOR	889	n/a	0	n/a	n/a	n/a	n/a	n/a
3234.098	n/a	FFR_REC_WORD	1617049	wordpools/wasnorm_wordpool_less_exclusions.txt	LTP222	ltpFR	6	n/a	-1	NEUTRON	947	n/a	-1	n/a	n/a	n/a	n/a	n/a
3244.48	n/a	FFR_REC_WORD	1622240	wordpools/wasnorm_wordpool_less_exclusions.txt	LTP222	ltpFR	6	n/a	n/a	COUNTRY	388	n/a	n/a	n/a	n/a	n/a	n/a	n/a
3248.396	n/a	FFR_REC_WORD	1624198	wordpools/wasnorm_wordpool_less_exclusions.txt	LTP222	ltpFR	6	n/a	1	FARM	552	n/a	0	n/a	n/a	n/a	n/a	n/a
3252.572	n/a	FFR_REC_WORD	1626286	wordpools/wasnorm_wordpool_less_exclusions.txt	LTP222	ltpFR	6	n/a	n/a	GARDEN	623	n/a	n/a	n/a	n/a	n/a	n/a	n/a
3263.412	n/a	FFR_REC_WORD	1631706	wordpools/wasnorm_wordpool_less_exclusions.txt	LTP222	ltpFR	6	n/a	-1	PISTON	1076	n/a	-1	n/a	n/a	n/a	n/a	n/a
3266.586	n/a	FFR_REC_WORD	1633293	wordpools/wasnorm_wordpool_less_exclusions.txt	LTP222	ltpFR	6	n/a	n/a	WHEEL	1603	n/a	n/a	n/a	n/a	n/a	n/a	n/a
3290.512	n/a	FFR_REC_WORD	1645256	wordpools/wasnorm_wordpool_less_exclusions.txt	LTP222	ltpFR	6	n/a	n/a	SIDEWALK	1303	n/a	n/a	n/a	n/a	n/a	n/a	n/a
3300.514	n/a	FFR_REC_WORD	1650257	wordpools/wasnorm_wordpool_less_exclusions.txt	LTP222	ltpFR	6	n/a	n/a	CEMENT	-1	n/a	n/a	n/a	n/a	n/a	n/a	n/a
3305.424	n/a	FFR_REC_WORD	1652712	wordpools/wasnorm_wordpool_less_exclusions.txt	LTP222	ltpFR	6	n/a	0	TOOL	1480	n/a	0	n/a	n/a	n/a	n/a	n/a
3326.208	n/a	FFR_REC_WORD	1663104	wordpools/wasnorm_wordpool_less_exclusions.txt	LTP222	ltpFR	6	n/a	n/a	RASPBERRY	1168	n/a	n/a	n/a	n/a	n/a	n/a	n/a
3326.896	n/a	FFR_REC_WORD	1663448	wordpools/wasnorm_wordpool_less_exclusions.txt	LTP222	ltpFR	6	n/a	0	BLACKBERRY	132	n/a	0	n/a	n/a	n/a	n/a	n/a
3448.162	n/a	REC_START	1724081	n/a	LTP222	ltpFR	6	1	n/a	n/a	n/a	n/a	n/a	n/a	n/a	n/a	n/a	n/a
3448.212	n/a	RECOG_LURE	1724106	n/a	LTP222	ltpFR	6	1	n/a	REEF	1177	2	n/a	n/a	n/a	n/a	n/a	n/a
3450.534	n/a	RECOG_RESP	1725267	n/a	LTP222	ltpFR	6	1	n/a	REEF	1177	n/a	n/a	n/a	n/a	n/a	n/a	n/a
3452.386	n/a	RECOG_CONF	1726193	n/a	LTP222	ltpFR	6	1	n/a	REEF	1177	2	n/a	n/a	n/a	n/a	n/a	n/a
3454.376	n/a	RECOG_LURE	1727188	n/a	LTP222	ltpFR	6	1	n/a	SLIME	1327	2	n/a	n/a	n/a	n/a	n/a	n/a
3456.176	n/a	RECOG_RESP	1728088	n/a	LTP222	ltpFR	6	1	n/a	SLIME	1327	n/a	n/a	n/a	n/a	n/a	n/a	n/a
3457.698	n/a	RECOG_CONF	1728849	n/a	LTP222	ltpFR	6	1	n/a	SLIME	1327	2	n/a	n/a	n/a	n/a	n/a	n/a
3459.512	n/a	RECOG_TARGET	1729756	n/a	LTP222	ltpFR	6	1	1	PRINTER	1126	3	1	n/a	n/a	n/a	n/a	n/a
3460.958	n/a	RECOG_RESP	1730479	n/a	LTP222	ltpFR	6	1	1	PRINTER	1126	n/a	1	n/a	n/a	n/a	n/a	n/a
3462.55	n/a	RECOG_CONF	1731275	n/a	LTP222	ltpFR	6	1	1	PRINTER	1126	3	1	n/a	n/a	n/a	n/a	n/a
3464.43	n/a	RECOG_TARGET	1732215	n/a	LTP222	ltpFR	6	1	-1	LETTUCE	814	5	-1	n/a	n/a	n/a	n/a	n/a
3466.134	n/a	RECOG_RESP	1733067	n/a	LTP222	ltpFR	6	1	-1	LETTUCE	814	n/a	-1	n/a	n/a	n/a	n/a	n/a
3467.472	n/a	RECOG_CONF	1733736	n/a	LTP222	ltpFR	6	1	-1	LETTUCE	814	5	-1	n/a	n/a	n/a	n/a	n/a
3469.676	n/a	RECOG_TARGET	1734838	n/a	LTP222	ltpFR	6	1	0	ALLEY	15	2	1	n/a	n/a	n/a	n/a	n/a
3471.212	n/a	RECOG_RESP	1735606	n/a	LTP222	ltpFR	6	1	0	ALLEY	15	n/a	1	n/a	n/a	n/a	n/a	n/a
3472.744	n/a	RECOG_CONF	1736372	n/a	LTP222	ltpFR	6	1	0	ALLEY	15	2	1	n/a	n/a	n/a	n/a	n/a
3474.544	n/a	RECOG_TARGET	1737272	n/a	LTP222	ltpFR	6	1	1	MOON	914	3	0	n/a	n/a	n/a	n/a	n/a
3475.872	n/a	RECOG_RESP	1737936	n/a	LTP222	ltpFR	6	1	1	MOON	914	n/a	0	n/a	n/a	n/a	n/a	n/a
3477.686	n/a	RECOG_CONF	1738843	n/a	LTP222	ltpFR	6	1	1	MOON	914	3	0	n/a	n/a	n/a	n/a	n/a
3479.522	n/a	RECOG_TARGET	1739761	n/a	LTP222	ltpFR	6	1	1	EXPLOSION	544	5	0	n/a	n/a	n/a	n/a	n/a
3480.464	n/a	RECOG_RESP	1740232	n/a	LTP222	ltpFR	6	1	1	EXPLOSION	544	n/a	0	n/a	n/a	n/a	n/a	n/a
3481.77	n/a	RECOG_CONF	1740885	n/a	LTP222	ltpFR	6	1	1	EXPLOSION	544	5	0	n/a	n/a	n/a	n/a	n/a
3483.904	n/a	RECOG_LURE	1741952	n/a	LTP222	ltpFR	6	1	n/a	VINE	1568	3	n/a	n/a	n/a	n/a	n/a	n/a
3485.38	n/a	RECOG_RESP	1742690	n/a	LTP222	ltpFR	6	1	n/a	VINE	1568	n/a	n/a	n/a	n/a	n/a	n/a	n/a
3486.674	n/a	RECOG_CONF	1743337	n/a	LTP222	ltpFR	6	1	n/a	VINE	1568	3	n/a	n/a	n/a	n/a	n/a	n/a
3488.54	n/a	RECOG_LURE	1744270	n/a	LTP222	ltpFR	6	1	n/a	TRUCK	1512	3	n/a	n/a	n/a	n/a	n/a	n/a
3490.898	n/a	RECOG_RESP	1745449	n/a	LTP222	ltpFR	6	1	n/a	TRUCK	1512	n/a	n/a	n/a	n/a	n/a	n/a	n/a
3492.688	n/a	RECOG_CONF	1746344	n/a	LTP222	ltpFR	6	1	n/a	TRUCK	1512	3	n/a	n/a	n/a	n/a	n/a	n/a
3494.186	n/a	RECOG_LURE	1747093	n/a	LTP222	ltpFR	6	1	n/a	DOCTOR	478	3	n/a	n/a	n/a	n/a	n/a	n/a
3495.338	n/a	RECOG_RESP	1747669	n/a	LTP222	ltpFR	6	1	n/a	DOCTOR	478	n/a	n/a	n/a	n/a	n/a	n/a	n/a
3496.908	n/a	RECOG_CONF	1748454	n/a	LTP222	ltpFR	6	1	n/a	DOCTOR	478	3	n/a	n/a	n/a	n/a	n/a	n/a
3498.46	n/a	RECOG_TARGET	1749230	n/a	LTP222	ltpFR	6	1	1	MONSTER	912	5	1	n/a	n/a	n/a	n/a	n/a
3499.292	n/a	RECOG_RESP	1749646	n/a	LTP222	ltpFR	6	1	1	MONSTER	912	n/a	1	n/a	n/a	n/a	n/a	n/a
3500.716	n/a	RECOG_CONF	1750358	n/a	LTP222	ltpFR	6	1	1	MONSTER	912	5	1	n/a	n/a	n/a	n/a	n/a
3502.87	n/a	RECOG_TARGET	1751435	n/a	LTP222	ltpFR	6	1	0	BULLY	196	2	1	n/a	n/a	n/a	n/a	n/a
3504.252	n/a	RECOG_RESP	1752126	n/a	LTP222	ltpFR	6	1	0	BULLY	196	n/a	1	n/a	n/a	n/a	n/a	n/a
3506.174	n/a	RECOG_CONF	1753087	n/a	LTP222	ltpFR	6	1	0	BULLY	196	2	1	n/a	n/a	n/a	n/a	n/a
3508.206	n/a	RECOG_TARGET	1754103	n/a	LTP222	ltpFR	6	1	0	COP	376	5	1	n/a	n/a	n/a	n/a	n/a
3509.266	n/a	RECOG_RESP	1754633	n/a	LTP222	ltpFR	6	1	0	COP	376	n/a	1	n/a	n/a	n/a	n/a	n/a
3510.596	n/a	RECOG_CONF	1755298	n/a	LTP222	ltpFR	6	1	0	COP	376	5	1	n/a	n/a	n/a	n/a	n/a
3512.582	n/a	RECOG_TARGET	1756291	n/a	LTP222	ltpFR	6	1	1	TENT	1449	5	0	n/a	n/a	n/a	n/a	n/a
3513.396	n/a	RECOG_RESP	1756698	n/a	LTP222	ltpFR	6	1	1	TENT	1449	n/a	0	n/a	n/a	n/a	n/a	n/a
3514.938	n/a	RECOG_CONF	1757469	n/a	LTP222	ltpFR	6	1	1	TENT	1449	5	0	n/a	n/a	n/a	n/a	n/a
3516.588	n/a	RECOG_TARGET	1758294	n/a	LTP222	ltpFR	6	1	1	CRITIC	410	4	1	n/a	n/a	n/a	n/a	n/a
3517.478	n/a	RECOG_RESP	1758739	n/a	LTP222	ltpFR	6	1	1	CRITIC	410	n/a	1	n/a	n/a	n/a	n/a	n/a
3518.854	n/a	RECOG_CONF	1759427	n/a	LTP222	ltpFR	6	1	1	CRITIC	410	4	1	n/a	n/a	n/a	n/a	n/a
3520.746	n/a	RECOG_TARGET	1760373	n/a	LTP222	ltpFR	6	1	0	SIGN	1305	5	1	n/a	n/a	n/a	n/a	n/a
3521.49	n/a	RECOG_RESP	1760745	n/a	LTP222	ltpFR	6	1	0	SIGN	1305	n/a	1	n/a	n/a	n/a	n/a	n/a
3522.73	n/a	RECOG_CONF	1761365	n/a	LTP222	ltpFR	6	1	0	SIGN	1305	5	1	n/a	n/a	n/a	n/a	n/a
3524.56	n/a	RECOG_TARGET	1762280	n/a	LTP222	ltpFR	6	1	1	STEAM	1375	5	0	n/a	n/a	n/a	n/a	n/a
3525.296	n/a	RECOG_RESP	1762648	n/a	LTP222	ltpFR	6	1	1	STEAM	1375	n/a	0	n/a	n/a	n/a	n/a	n/a
3526.862	n/a	RECOG_CONF	1763431	n/a	LTP222	ltpFR	6	1	1	STEAM	1375	5	0	n/a	n/a	n/a	n/a	n/a
3528.752	n/a	RECOG_TARGET	1764376	n/a	LTP222	ltpFR	6	1	1	CABINET	212	5	0	n/a	n/a	n/a	n/a	n/a
3529.494	n/a	RECOG_RESP	1764747	n/a	LTP222	ltpFR	6	1	1	CABINET	212	n/a	0	n/a	n/a	n/a	n/a	n/a
3530.992	n/a	RECOG_CONF	1765496	n/a	LTP222	ltpFR	6	1	1	CABINET	212	5	0	n/a	n/a	n/a	n/a	n/a
3532.876	n/a	RECOG_TARGET	1766438	n/a	LTP222	ltpFR	6	1	1	UMPIRE	1535	3	1	n/a	n/a	n/a	n/a	n/a
3533.752	n/a	RECOG_RESP	1766876	n/a	LTP222	ltpFR	6	1	1	UMPIRE	1535	n/a	1	n/a	n/a	n/a	n/a	n/a
3535.12	n/a	RECOG_CONF	1767560	n/a	LTP222	ltpFR	6	1	1	UMPIRE	1535	3	1	n/a	n/a	n/a	n/a	n/a
3536.908	n/a	RECOG_TARGET	1768454	n/a	LTP222	ltpFR	6	1	-1	PANTS	1010	4	-1	n/a	n/a	n/a	n/a	n/a
3537.806	n/a	RECOG_RESP	1768903	n/a	LTP222	ltpFR	6	1	-1	PANTS	1010	n/a	-1	n/a	n/a	n/a	n/a	n/a
3539.116	n/a	RECOG_CONF	1769558	n/a	LTP222	ltpFR	6	1	-1	PANTS	1010	4	-1	n/a	n/a	n/a	n/a	n/a
3543.916	n/a	REC_START	1771958	n/a	LTP222	ltpFR	6	2	n/a	n/a	n/a	n/a	n/a	n/a	n/a	n/a	n/a	n/a
3543.968	n/a	RECOG_LURE	1771984	n/a	LTP222	ltpFR	6	2	n/a	BASSINET	97	2	n/a	n/a	n/a	n/a	n/a	n/a
3545.468	n/a	RECOG_RESP	1772734	n/a	LTP222	ltpFR	6	2	n/a	BASSINET	97	n/a	n/a	n/a	n/a	n/a	n/a	n/a
3546.922	n/a	RECOG_CONF	1773461	n/a	LTP222	ltpFR	6	2	n/a	BASSINET	97	2	n/a	n/a	n/a	n/a	n/a	n/a
3548.594	n/a	RECOG_TARGET	1774297	n/a	LTP222	ltpFR	6	2	0	BEEF	113	5	0	n/a	n/a	n/a	n/a	n/a
3549.506	n/a	RECOG_RESP	1774753	n/a	LTP222	ltpFR	6	2	0	BEEF	113	n/a	0	n/a	n/a	n/a	n/a	n/a
3550.81	n/a	RECOG_CONF	1775405	n/a	LTP222	ltpFR	6	2	0	BEEF	113	5	0	n/a	n/a	n/a	n/a	n/a
3552.834	n/a	RECOG_TARGET	1776417	n/a	LTP222	ltpFR	6	2	-1	WORKER	1621	2	-1	n/a	n/a	n/a	n/a	n/a
3554.062	n/a	RECOG_RESP	1777031	n/a	LTP222	ltpFR	6	2	-1	WORKER	1621	n/a	-1	n/a	n/a	n/a	n/a	n/a
3555.468	n/a	RECOG_CONF	1777734	n/a	LTP222	ltpFR	6	2	-1	WORKER	1621	2	-1	n/a	n/a	n/a	n/a	n/a
3557.244	n/a	RECOG_TARGET	1778622	n/a	LTP222	ltpFR	6	2	1	MUSHROOM	934	5	1	n/a	n/a	n/a	n/a	n/a
3558.002	n/a	RECOG_RESP	1779001	n/a	LTP222	ltpFR	6	2	1	MUSHROOM	934	n/a	1	n/a	n/a	n/a	n/a	n/a
3559.14	n/a	RECOG_CONF	1779570	n/a	LTP222	ltpFR	6	2	1	MUSHROOM	934	5	1	n/a	n/a	n/a	n/a	n/a
3561.024	n/a	RECOG_LURE	1780512	n/a	LTP222	ltpFR	6	2	n/a	BEAVER	109	2	n/a	n/a	n/a	n/a	n/a	n/a
3562.014	n/a	RECOG_RESP	1781007	n/a	LTP222	ltpFR	6	2	n/a	BEAVER	109	n/a	n/a	n/a	n/a	n/a	n/a	n/a
3563.388	n/a	RECOG_CONF	1781694	n/a	LTP222	ltpFR	6	2	n/a	BEAVER	109	2	n/a	n/a	n/a	n/a	n/a	n/a
3565.216	n/a	RECOG_TARGET	1782608	n/a	LTP222	ltpFR	6	2	1	BANK	83	3	0	n/a	n/a	n/a	n/a	n/a
3566.096	n/a	RECOG_RESP	1783048	n/a	LTP222	ltpFR	6	2	1	BANK	83	n/a	0	n/a	n/a	n/a	n/a	n/a
3567.728	n/a	RECOG_CONF	1783864	n/a	LTP222	ltpFR	6	2	1	BANK	83	3	0	n/a	n/a	n/a	n/a	n/a
3569.416	n/a	RECOG_LURE	1784708	n/a	LTP222	ltpFR	6	2	n/a	PILL	1068	2	n/a	n/a	n/a	n/a	n/a	n/a
3570.336	n/a	RECOG_RESP	1785168	n/a	LTP222	ltpFR	6	2	n/a	PILL	1068	n/a	n/a	n/a	n/a	n/a	n/a	n/a
3571.764	n/a	RECOG_CONF	1785882	n/a	LTP222	ltpFR	6	2	n/a	PILL	1068	2	n/a	n/a	n/a	n/a	n/a	n/a
3573.548	n/a	RECOG_TARGET	1786774	n/a	LTP222	ltpFR	6	2	0	ANTELOPE	27	4	1	n/a	n/a	n/a	n/a	n/a
3574.444	n/a	RECOG_RESP	1787222	n/a	LTP222	ltpFR	6	2	0	ANTELOPE	27	n/a	1	n/a	n/a	n/a	n/a	n/a
3575.644	n/a	RECOG_CONF	1787822	n/a	LTP222	ltpFR	6	2	0	ANTELOPE	27	4	1	n/a	n/a	n/a	n/a	n/a
3577.472	n/a	RECOG_LURE	1788736	n/a	LTP222	ltpFR	6	2	n/a	MICROWAVE	892	2	n/a	n/a	n/a	n/a	n/a	n/a
3578.828	n/a	RECOG_RESP	1789414	n/a	LTP222	ltpFR	6	2	n/a	MICROWAVE	892	n/a	n/a	n/a	n/a	n/a	n/a	n/a
3580.11	n/a	RECOG_CONF	1790055	n/a	LTP222	ltpFR	6	2	n/a	MICROWAVE	892	2	n/a	n/a	n/a	n/a	n/a	n/a
3581.846	n/a	RECOG_TARGET	1790923	n/a	LTP222	ltpFR	6	2	-1	PISTON	1076	5	-1	n/a	n/a	n/a	n/a	n/a
3582.654	n/a	RECOG_RESP	1791327	n/a	LTP222	ltpFR	6	2	-1	PISTON	1076	n/a	-1	n/a	n/a	n/a	n/a	n/a
3583.914	n/a	RECOG_CONF	1791957	n/a	LTP222	ltpFR	6	2	-1	PISTON	1076	5	-1	n/a	n/a	n/a	n/a	n/a
3585.854	n/a	RECOG_TARGET	1792927	n/a	LTP222	ltpFR	6	2	1	OFFICER	973	4	1	n/a	n/a	n/a	n/a	n/a
3586.758	n/a	RECOG_RESP	1793379	n/a	LTP222	ltpFR	6	2	1	OFFICER	973	n/a	1	n/a	n/a	n/a	n/a	n/a
3587.906	n/a	RECOG_CONF	1793953	n/a	LTP222	ltpFR	6	2	1	OFFICER	973	4	1	n/a	n/a	n/a	n/a	n/a
3589.692	n/a	RECOG_LURE	1794846	n/a	LTP222	ltpFR	6	2	n/a	GEM	629	2	n/a	n/a	n/a	n/a	n/a	n/a
3590.918	n/a	RECOG_RESP	1795459	n/a	LTP222	ltpFR	6	2	n/a	GEM	629	n/a	n/a	n/a	n/a	n/a	n/a	n/a
3592.33	n/a	RECOG_CONF	1796165	n/a	LTP222	ltpFR	6	2	n/a	GEM	629	2	n/a	n/a	n/a	n/a	n/a	n/a
3594.31	n/a	RECOG_TARGET	1797155	n/a	LTP222	ltpFR	6	2	0	CHAIN	273	5	1	n/a	n/a	n/a	n/a	n/a
3595.094	n/a	RECOG_RESP	1797547	n/a	LTP222	ltpFR	6	2	0	CHAIN	273	n/a	1	n/a	n/a	n/a	n/a	n/a
3596.442	n/a	RECOG_CONF	1798221	n/a	LTP222	ltpFR	6	2	0	CHAIN	273	5	1	n/a	n/a	n/a	n/a	n/a
3598.358	n/a	RECOG_TARGET	1799179	n/a	LTP222	ltpFR	6	2	1	PERSON	1052	5	1	n/a	n/a	n/a	n/a	n/a
3599.282	n/a	RECOG_RESP	1799641	n/a	LTP222	ltpFR	6	2	1	PERSON	1052	n/a	1	n/a	n/a	n/a	n/a	n/a
3600.452	n/a	RECOG_CONF	1800226	n/a	LTP222	ltpFR	6	2	1	PERSON	1052	5	1	n/a	n/a	n/a	n/a	n/a
3602.324	n/a	RECOG_TARGET	1801162	n/a	LTP222	ltpFR	6	2	1	GAZELLE	628	5	1	n/a	n/a	n/a	n/a	n/a
3603.292	n/a	RECOG_RESP	1801646	n/a	LTP222	ltpFR	6	2	1	GAZELLE	628	n/a	1	n/a	n/a	n/a	n/a	n/a
3604.59	n/a	RECOG_CONF	1802295	n/a	LTP222	ltpFR	6	2	1	GAZELLE	628	5	1	n/a	n/a	n/a	n/a	n/a
3606.44	n/a	RECOG_LURE	1803220	n/a	LTP222	ltpFR	6	2	n/a	BLOSSOM	138	3	n/a	n/a	n/a	n/a	n/a	n/a
3607.974	n/a	RECOG_RESP	1803987	n/a	LTP222	ltpFR	6	2	n/a	BLOSSOM	138	n/a	n/a	n/a	n/a	n/a	n/a	n/a
3609.454	n/a	RECOG_CONF	1804727	n/a	LTP222	ltpFR	6	2	n/a	BLOSSOM	138	3	n/a	n/a	n/a	n/a	n/a	n/a
3610.99	n/a	RECOG_TARGET	1805495	n/a	LTP222	ltpFR	6	2	0	SQUID	1361	5	0	n/a	n/a	n/a	n/a	n/a
3612.062	n/a	RECOG_RESP	1806031	n/a	LTP222	ltpFR	6	2	0	SQUID	1361	n/a	0	n/a	n/a	n/a	n/a	n/a
3613.276	n/a	RECOG_CONF	1806638	n/a	LTP222	ltpFR	6	2	0	SQUID	1361	5	0	n/a	n/a	n/a	n/a	n/a
3615.048	n/a	RECOG_TARGET	1807524	n/a	LTP222	ltpFR	6	2	-1	DRAGON	492	2	-1	n/a	n/a	n/a	n/a	n/a
3616.214	n/a	RECOG_RESP	1808107	n/a	LTP222	ltpFR	6	2	-1	DRAGON	492	n/a	-1	n/a	n/a	n/a	n/a	n/a
3617.462	n/a	RECOG_CONF	1808731	n/a	LTP222	ltpFR	6	2	-1	DRAGON	492	2	-1	n/a	n/a	n/a	n/a	n/a
3618.972	n/a	RECOG_TARGET	1809486	n/a	LTP222	ltpFR	6	2	1	SAND	1230	5	0	n/a	n/a	n/a	n/a	n/a
3619.658	n/a	RECOG_RESP	1809829	n/a	LTP222	ltpFR	6	2	1	SAND	1230	n/a	0	n/a	n/a	n/a	n/a	n/a
3621.0	n/a	RECOG_CONF	1810500	n/a	LTP222	ltpFR	6	2	1	SAND	1230	5	0	n/a	n/a	n/a	n/a	n/a
3622.51	n/a	RECOG_TARGET	1811255	n/a	LTP222	ltpFR	6	2	0	CANAL	226	4	1	n/a	n/a	n/a	n/a	n/a
3623.478	n/a	RECOG_RESP	1811739	n/a	LTP222	ltpFR	6	2	0	CANAL	226	n/a	1	n/a	n/a	n/a	n/a	n/a
3624.64	n/a	RECOG_CONF	1812320	n/a	LTP222	ltpFR	6	2	0	CANAL	226	4	1	n/a	n/a	n/a	n/a	n/a
3629.522	n/a	REC_START	1814761	n/a	LTP222	ltpFR	6	3	n/a	n/a	n/a	n/a	n/a	n/a	n/a	n/a	n/a	n/a
3629.57	n/a	RECOG_TARGET	1814785	n/a	LTP222	ltpFR	6	3	1	TOILET	1475	4	0	n/a	n/a	n/a	n/a	n/a
3630.698	n/a	RECOG_RESP	1815349	n/a	LTP222	ltpFR	6	3	1	TOILET	1475	n/a	0	n/a	n/a	n/a	n/a	n/a
3631.94	n/a	RECOG_CONF	1815970	n/a	LTP222	ltpFR	6	3	1	TOILET	1475	4	0	n/a	n/a	n/a	n/a	n/a
3633.15	n/a	RECOG_LURE	1816575	n/a	LTP222	ltpFR	6	3	n/a	THIMBLE	1458	3	n/a	n/a	n/a	n/a	n/a	n/a
3635.096	n/a	RECOG_RESP	1817548	n/a	LTP222	ltpFR	6	3	n/a	THIMBLE	1458	n/a	n/a	n/a	n/a	n/a	n/a	n/a
3636.474	n/a	RECOG_CONF	1818237	n/a	LTP222	ltpFR	6	3	n/a	THIMBLE	1458	3	n/a	n/a	n/a	n/a	n/a	n/a
3638.396	n/a	RECOG_TARGET	1819198	n/a	LTP222	ltpFR	6	3	0	SUITCASE	1403	5	1	n/a	n/a	n/a	n/a	n/a
3639.14	n/a	RECOG_RESP	1819570	n/a	LTP222	ltpFR	6	3	0	SUITCASE	1403	n/a	1	n/a	n/a	n/a	n/a	n/a
3640.292	n/a	RECOG_CONF	1820146	n/a	LTP222	ltpFR	6	3	0	SUITCASE	1403	5	1	n/a	n/a	n/a	n/a	n/a
3642.076	n/a	RECOG_TARGET	1821038	n/a	LTP222	ltpFR	6	3	1	FOLLOWER	589	5	1	n/a	n/a	n/a	n/a	n/a
3643.658	n/a	RECOG_RESP	1821829	n/a	LTP222	ltpFR	6	3	1	FOLLOWER	589	n/a	1	n/a	n/a	n/a	n/a	n/a
3644.996	n/a	RECOG_CONF	1822498	n/a	LTP222	ltpFR	6	3	1	FOLLOWER	589	5	1	n/a	n/a	n/a	n/a	n/a
3646.736	n/a	RECOG_LURE	1823368	n/a	LTP222	ltpFR	6	3	n/a	SPY	1360	4	n/a	n/a	n/a	n/a	n/a	n/a
3647.74	n/a	RECOG_RESP	1823870	n/a	LTP222	ltpFR	6	3	n/a	SPY	1360	n/a	n/a	n/a	n/a	n/a	n/a	n/a
3648.898	n/a	RECOG_CONF	1824449	n/a	LTP222	ltpFR	6	3	n/a	SPY	1360	4	n/a	n/a	n/a	n/a	n/a	n/a
3650.542	n/a	RECOG_TARGET	1825271	n/a	LTP222	ltpFR	6	3	1	FIST	572	2	0	n/a	n/a	n/a	n/a	n/a
3651.596	n/a	RECOG_RESP	1825798	n/a	LTP222	ltpFR	6	3	1	FIST	572	n/a	0	n/a	n/a	n/a	n/a	n/a
3652.89	n/a	RECOG_CONF	1826445	n/a	LTP222	ltpFR	6	3	1	FIST	572	2	0	n/a	n/a	n/a	n/a	n/a
3654.39	n/a	RECOG_LURE	1827195	n/a	LTP222	ltpFR	6	3	n/a	OMELET	976	2	n/a	n/a	n/a	n/a	n/a	n/a
3655.43	n/a	RECOG_RESP	1827715	n/a	LTP222	ltpFR	6	3	n/a	OMELET	976	n/a	n/a	n/a	n/a	n/a	n/a	n/a
3656.866	n/a	RECOG_CONF	1828433	n/a	LTP222	ltpFR	6	3	n/a	OMELET	976	2	n/a	n/a	n/a	n/a	n/a	n/a
3658.372	n/a	RECOG_LURE	1829186	n/a	LTP222	ltpFR	6	3	n/a	STEREO	1378	1	n/a	n/a	n/a	n/a	n/a	n/a
3659.566	n/a	RECOG_RESP	1829783	n/a	LTP222	ltpFR	6	3	n/a	STEREO	1378	n/a	n/a	n/a	n/a	n/a	n/a	n/a
3660.73	n/a	RECOG_CONF	1830365	n/a	LTP222	ltpFR	6	3	n/a	STEREO	1378	1	n/a	n/a	n/a	n/a	n/a	n/a
3662.412	n/a	RECOG_TARGET	1831206	n/a	LTP222	ltpFR	6	3	1	TEACHER	1440	5	1	n/a	n/a	n/a	n/a	n/a
3663.302	n/a	RECOG_RESP	1831651	n/a	LTP222	ltpFR	6	3	1	TEACHER	1440	n/a	1	n/a	n/a	n/a	n/a	n/a
3664.506	n/a	RECOG_CONF	1832253	n/a	LTP222	ltpFR	6	3	1	TEACHER	1440	5	1	n/a	n/a	n/a	n/a	n/a
3666.486	n/a	RECOG_TARGET	1833243	n/a	LTP222	ltpFR	6	3	-1	COOKIE	374	2	-1	n/a	n/a	n/a	n/a	n/a
3667.474	n/a	RECOG_RESP	1833737	n/a	LTP222	ltpFR	6	3	-1	COOKIE	374	n/a	-1	n/a	n/a	n/a	n/a	n/a
3668.984	n/a	RECOG_CONF	1834492	n/a	LTP222	ltpFR	6	3	-1	COOKIE	374	2	-1	n/a	n/a	n/a	n/a	n/a
3670.76	n/a	RECOG_LURE	1835380	n/a	LTP222	ltpFR	6	3	n/a	DENTIST	447	2	n/a	n/a	n/a	n/a	n/a	n/a
3671.762	n/a	RECOG_RESP	1835881	n/a	LTP222	ltpFR	6	3	n/a	DENTIST	447	n/a	n/a	n/a	n/a	n/a	n/a	n/a
3673.14	n/a	RECOG_CONF	1836570	n/a	LTP222	ltpFR	6	3	n/a	DENTIST	447	2	n/a	n/a	n/a	n/a	n/a	n/a
3674.826	n/a	RECOG_TARGET	1837413	n/a	LTP222	ltpFR	6	3	0	CRATER	400	5	1	n/a	n/a	n/a	n/a	n/a
3675.78	n/a	RECOG_RESP	1837890	n/a	LTP222	ltpFR	6	3	0	CRATER	400	n/a	1	n/a	n/a	n/a	n/a	n/a
3677.09	n/a	RECOG_CONF	1838545	n/a	LTP222	ltpFR	6	3	0	CRATER	400	5	1	n/a	n/a	n/a	n/a	n/a
3679.144	n/a	RECOG_LURE	1839572	n/a	LTP222	ltpFR	6	3	n/a	LIZARD	834	3	n/a	n/a	n/a	n/a	n/a	n/a
3680.18	n/a	RECOG_RESP	1840090	n/a	LTP222	ltpFR	6	3	n/a	LIZARD	834	n/a	n/a	n/a	n/a	n/a	n/a	n/a
3681.398	n/a	RECOG_CONF	1840699	n/a	LTP222	ltpFR	6	3	n/a	LIZARD	834	3	n/a	n/a	n/a	n/a	n/a	n/a
3683.126	n/a	RECOG_TARGET	1841563	n/a	LTP222	ltpFR	6	3	0	WHALE	1601	5	1	n/a	n/a	n/a	n/a	n/a
3683.818	n/a	RECOG_RESP	1841909	n/a	LTP222	ltpFR	6	3	0	WHALE	1601	n/a	1	n/a	n/a	n/a	n/a	n/a
3684.968	n/a	RECOG_CONF	1842484	n/a	LTP222	ltpFR	6	3	0	WHALE	1601	5	1	n/a	n/a	n/a	n/a	n/a
3686.688	n/a	RECOG_LURE	1843344	n/a	LTP222	ltpFR	6	3	n/a	ARTIST	43	2	n/a	n/a	n/a	n/a	n/a	n/a
3687.506	n/a	RECOG_RESP	1843753	n/a	LTP222	ltpFR	6	3	n/a	ARTIST	43	n/a	n/a	n/a	n/a	n/a	n/a	n/a
3688.764	n/a	RECOG_CONF	1844382	n/a	LTP222	ltpFR	6	3	n/a	ARTIST	43	2	n/a	n/a	n/a	n/a	n/a	n/a
3690.294	n/a	RECOG_TARGET	1845147	n/a	LTP222	ltpFR	6	3	1	BOULDER	155	5	0	n/a	n/a	n/a	n/a	n/a
3690.982	n/a	RECOG_RESP	1845491	n/a	LTP222	ltpFR	6	3	1	BOULDER	155	n/a	0	n/a	n/a	n/a	n/a	n/a
3692.118	n/a	RECOG_CONF	1846059	n/a	LTP222	ltpFR	6	3	1	BOULDER	155	5	0	n/a	n/a	n/a	n/a	n/a
3693.924	n/a	RECOG_TARGET	1846962	n/a	LTP222	ltpFR	6	3	1	BLANKET	135	5	0	n/a	n/a	n/a	n/a	n/a
3694.688	n/a	RECOG_RESP	1847344	n/a	LTP222	ltpFR	6	3	1	BLANKET	135	n/a	0	n/a	n/a	n/a	n/a	n/a
3695.904	n/a	RECOG_CONF	1847952	n/a	LTP222	ltpFR	6	3	1	BLANKET	135	5	0	n/a	n/a	n/a	n/a	n/a
3697.572	n/a	RECOG_TARGET	1848786	n/a	LTP222	ltpFR	6	3	0	TAIL	1430	4	0	n/a	n/a	n/a	n/a	n/a
3698.276	n/a	RECOG_RESP	1849138	n/a	LTP222	ltpFR	6	3	0	TAIL	1430	n/a	0	n/a	n/a	n/a	n/a	n/a
3699.33	n/a	RECOG_CONF	1849665	n/a	LTP222	ltpFR	6	3	0	TAIL	1430	4	0	n/a	n/a	n/a	n/a	n/a
3701.094	n/a	RECOG_TARGET	1850547	n/a	LTP222	ltpFR	6	3	-1	DESSERT	453	2	-1	n/a	n/a	n/a	n/a	n/a
3702.21	n/a	RECOG_RESP	1851105	n/a	LTP222	ltpFR	6	3	-1	DESSERT	453	n/a	-1	n/a	n/a	n/a	n/a	n/a
3703.442	n/a	RECOG_CONF	1851721	n/a	LTP222	ltpFR	6	3	-1	DESSERT	453	2	-1	n/a	n/a	n/a	n/a	n/a
3705.268	n/a	RECOG_TARGET	1852634	n/a	LTP222	ltpFR	6	3	1	CHICKEN	297	5	n/a	n/a	n/a	n/a	n/a	n/a
3706.02	n/a	RECOG_RESP	1853010	n/a	LTP222	ltpFR	6	3	1	CHICKEN	297	n/a	n/a	n/a	n/a	n/a	n/a	n/a
3707.284	n/a	RECOG_CONF	1853642	n/a	LTP222	ltpFR	6	3	1	CHICKEN	297	5	n/a	n/a	n/a	n/a	n/a	n/a
3712.086	n/a	REC_START	1856043	n/a	LTP222	ltpFR	6	4	n/a	n/a	n/a	n/a	n/a	n/a	n/a	n/a	n/a	n/a
3712.136	n/a	RECOG_TARGET	1856068	n/a	LTP222	ltpFR	6	4	0	MASCARA	875	5	0	n/a	n/a	n/a	n/a	n/a
3713.286	n/a	RECOG_RESP	1856643	n/a	LTP222	ltpFR	6	4	0	MASCARA	875	n/a	0	n/a	n/a	n/a	n/a	n/a
3714.806	n/a	RECOG_CONF	1857403	n/a	LTP222	ltpFR	6	4	0	MASCARA	875	5	0	n/a	n/a	n/a	n/a	n/a
3716.654	n/a	RECOG_TARGET	1858327	n/a	LTP222	ltpFR	6	4	1	RIVER	1194	5	0	n/a	n/a	n/a	n/a	n/a
3717.552	n/a	RECOG_RESP	1858776	n/a	LTP222	ltpFR	6	4	1	RIVER	1194	n/a	0	n/a	n/a	n/a	n/a	n/a
3719.246	n/a	RECOG_CONF	1859623	n/a	LTP222	ltpFR	6	4	1	RIVER	1194	5	0	n/a	n/a	n/a	n/a	n/a
3721.01	n/a	RECOG_TARGET	1860505	n/a	LTP222	ltpFR	6	4	-1	HIKER	708	5	-1	n/a	n/a	n/a	n/a	n/a
3721.98	n/a	RECOG_RESP	1860990	n/a	LTP222	ltpFR	6	4	-1	HIKER	708	n/a	-1	n/a	n/a	n/a	n/a	n/a
3723.162	n/a	RECOG_CONF	1861581	n/a	LTP222	ltpFR	6	4	-1	HIKER	708	5	-1	n/a	n/a	n/a	n/a	n/a
3724.934	n/a	RECOG_TARGET	1862467	n/a	LTP222	ltpFR	6	4	-1	NEUTRON	947	5	-1	n/a	n/a	n/a	n/a	n/a
3725.616	n/a	RECOG_RESP	1862808	n/a	LTP222	ltpFR	6	4	-1	NEUTRON	947	n/a	-1	n/a	n/a	n/a	n/a	n/a
3726.81	n/a	RECOG_CONF	1863405	n/a	LTP222	ltpFR	6	4	-1	NEUTRON	947	5	-1	n/a	n/a	n/a	n/a	n/a
3728.716	n/a	RECOG_TARGET	1864358	n/a	LTP222	ltpFR	6	4	-1	BRAN	167	5	-1	n/a	n/a	n/a	n/a	n/a
3729.408	n/a	RECOG_RESP	1864704	n/a	LTP222	ltpFR	6	4	-1	BRAN	167	n/a	-1	n/a	n/a	n/a	n/a	n/a
3730.786	n/a	RECOG_CONF	1865393	n/a	LTP222	ltpFR	6	4	-1	BRAN	167	5	-1	n/a	n/a	n/a	n/a	n/a
3732.632	n/a	RECOG_TARGET	1866316	n/a	LTP222	ltpFR	6	4	-1	PRUNE	1134	2	-1	n/a	n/a	n/a	n/a	n/a
3733.892	n/a	RECOG_RESP	1866946	n/a	LTP222	ltpFR	6	4	-1	PRUNE	1134	n/a	-1	n/a	n/a	n/a	n/a	n/a
3735.25	n/a	RECOG_CONF	1867625	n/a	LTP222	ltpFR	6	4	-1	PRUNE	1134	2	-1	n/a	n/a	n/a	n/a	n/a
3737.122	n/a	RECOG_TARGET	1868561	n/a	LTP222	ltpFR	6	4	1	DINNER	468	2	0	n/a	n/a	n/a	n/a	n/a
3738.3	n/a	RECOG_RESP	1869150	n/a	LTP222	ltpFR	6	4	1	DINNER	468	n/a	0	n/a	n/a	n/a	n/a	n/a
3739.71	n/a	RECOG_CONF	1869855	n/a	LTP222	ltpFR	6	4	1	DINNER	468	2	0	n/a	n/a	n/a	n/a	n/a
3741.382	n/a	RECOG_LURE	1870691	n/a	LTP222	ltpFR	6	4	n/a	SKIRT	1319	5	n/a	n/a	n/a	n/a	n/a	n/a
3742.174	n/a	RECOG_RESP	1871087	n/a	LTP222	ltpFR	6	4	n/a	SKIRT	1319	n/a	n/a	n/a	n/a	n/a	n/a	n/a
3743.436	n/a	RECOG_CONF	1871718	n/a	LTP222	ltpFR	6	4	n/a	SKIRT	1319	5	n/a	n/a	n/a	n/a	n/a	n/a
3745.286	n/a	RECOG_TARGET	1872643	n/a	LTP222	ltpFR	6	4	1	HINGE	709	5	0	n/a	n/a	n/a	n/a	n/a
3746.488	n/a	RECOG_RESP	1873244	n/a	LTP222	ltpFR	6	4	1	HINGE	709	n/a	0	n/a	n/a	n/a	n/a	n/a
3747.836	n/a	RECOG_CONF	1873918	n/a	LTP222	ltpFR	6	4	1	HINGE	709	5	0	n/a	n/a	n/a	n/a	n/a
3749.964	n/a	RECOG_TARGET	1874982	n/a	LTP222	ltpFR	6	4	1	SHELL	1281	5	0	n/a	n/a	n/a	n/a	n/a
3750.676	n/a	RECOG_RESP	1875338	n/a	LTP222	ltpFR	6	4	1	SHELL	1281	n/a	0	n/a	n/a	n/a	n/a	n/a
3752.112	n/a	RECOG_CONF	1876056	n/a	LTP222	ltpFR	6	4	1	SHELL	1281	5	0	n/a	n/a	n/a	n/a	n/a
3753.988	n/a	RECOG_LURE	1876994	n/a	LTP222	ltpFR	6	4	n/a	MONK	910	3	n/a	n/a	n/a	n/a	n/a	n/a
3755.594	n/a	RECOG_RESP	1877797	n/a	LTP222	ltpFR	6	4	n/a	MONK	910	n/a	n/a	n/a	n/a	n/a	n/a	n/a
3757.15	n/a	RECOG_CONF	1878575	n/a	LTP222	ltpFR	6	4	n/a	MONK	910	3	n/a	n/a	n/a	n/a	n/a	n/a
3758.848	n/a	RECOG_LURE	1879424	n/a	LTP222	ltpFR	6	4	n/a	MAID	856	2	n/a	n/a	n/a	n/a	n/a	n/a
3760.058	n/a	RECOG_RESP	1880029	n/a	LTP222	ltpFR	6	4	n/a	MAID	856	n/a	n/a	n/a	n/a	n/a	n/a	n/a
3761.51	n/a	RECOG_CONF	1880755	n/a	LTP222	ltpFR	6	4	n/a	MAID	856	2	n/a	n/a	n/a	n/a	n/a	n/a
3763.282	n/a	RECOG_LURE	1881641	n/a	LTP222	ltpFR	6	4	n/a	ACTRESS	6	2	n/a	n/a	n/a	n/a	n/a	n/a
3764.644	n/a	RECOG_RESP	1882322	n/a	LTP222	ltpFR	6	4	n/a	ACTRESS	6	n/a	n/a	n/a	n/a	n/a	n/a	n/a
3765.99	n/a	RECOG_CONF	1882995	n/a	LTP222	ltpFR	6	4	n/a	ACTRESS	6	2	n/a	n/a	n/a	n/a	n/a	n/a
3767.548	n/a	RECOG_LURE	1883774	n/a	LTP222	ltpFR	6	4	n/a	SIREN	1310	3	n/a	n/a	n/a	n/a	n/a	n/a
3769.284	n/a	RECOG_RESP	1884642	n/a	LTP222	ltpFR	6	4	n/a	SIREN	1310	n/a	n/a	n/a	n/a	n/a	n/a	n/a
3770.756	n/a	RECOG_CONF	1885378	n/a	LTP222	ltpFR	6	4	n/a	SIREN	1310	3	n/a	n/a	n/a	n/a	n/a	n/a
3772.424	n/a	RECOG_LURE	1886212	n/a	LTP222	ltpFR	6	4	n/a	PATROL	1027	2	n/a	n/a	n/a	n/a	n/a	n/a
3773.968	n/a	RECOG_RESP	1886984	n/a	LTP222	ltpFR	6	4	n/a	PATROL	1027	n/a	n/a	n/a	n/a	n/a	n/a	n/a
3775.28	n/a	RECOG_CONF	1887640	n/a	LTP222	ltpFR	6	4	n/a	PATROL	1027	2	n/a	n/a	n/a	n/a	n/a	n/a
3777.026	n/a	RECOG_TARGET	1888513	n/a	LTP222	ltpFR	6	4	1	MAILMAN	858	2	1	n/a	n/a	n/a	n/a	n/a
3778.936	n/a	RECOG_RESP	1889468	n/a	LTP222	ltpFR	6	4	1	MAILMAN	858	n/a	1	n/a	n/a	n/a	n/a	n/a
3780.31	n/a	RECOG_CONF	1890155	n/a	LTP222	ltpFR	6	4	1	MAILMAN	858	2	1	n/a	n/a	n/a	n/a	n/a
3781.81	n/a	RECOG_TARGET	1890905	n/a	LTP222	ltpFR	6	4	0	DETECTIVE	454	2	1	n/a	n/a	n/a	n/a	n/a
3783.242	n/a	RECOG_RESP	1891621	n/a	LTP222	ltpFR	6	4	0	DETECTIVE	454	n/a	1	n/a	n/a	n/a	n/a	n/a
3784.686	n/a	RECOG_CONF	1892343	n/a	LTP222	ltpFR	6	4	0	DETECTIVE	454	2	1	n/a	n/a	n/a	n/a	n/a
3786.034	n/a	RECOG_TARGET	1893017	n/a	LTP222	ltpFR	6	4	0	FACTORY	548	3	1	n/a	n/a	n/a	n/a	n/a
3786.888	n/a	RECOG_RESP	1893444	n/a	LTP222	ltpFR	6	4	0	FACTORY	548	n/a	1	n/a	n/a	n/a	n/a	n/a
3788.274	n/a	RECOG_CONF	1894137	n/a	LTP222	ltpFR	6	4	0	FACTORY	548	3	1	n/a	n/a	n/a	n/a	n/a
3789.574	n/a	RECOG_TARGET	1894787	n/a	LTP222	ltpFR	6	4	0	TREASURE	1500	5	0	n/a	n/a	n/a	n/a	n/a
3790.566	n/a	RECOG_RESP	1895283	n/a	LTP222	ltpFR	6	4	0	TREASURE	1500	n/a	0	n/a	n/a	n/a	n/a	n/a
3791.792	n/a	RECOG_CONF	1895896	n/a	LTP222	ltpFR	6	4	0	TREASURE	1500	5	0	n/a	n/a	n/a	n/a	n/a
3793.822	n/a	RECOG_TARGET	1896911	n/a	LTP222	ltpFR	6	4	-1	CAR	241	2	-1	n/a	n/a	n/a	n/a	n/a
3794.992	n/a	RECOG_RESP	1897496	n/a	LTP222	ltpFR	6	4	-1	CAR	241	n/a	-1	n/a	n/a	n/a	n/a	n/a
3796.284	n/a	RECOG_CONF	1898142	n/a	LTP222	ltpFR	6	4	-1	CAR	241	2	-1	n/a	n/a	n/a	n/a	n/a
3800.864	n/a	REC_START	1900432	n/a	LTP222	ltpFR	6	5	n/a	n/a	n/a	n/a	n/a	n/a	n/a	n/a	n/a	n/a
3800.916	n/a	RECOG_LURE	1900458	n/a	LTP222	ltpFR	6	5	n/a	VAMPIRE	1547	2	n/a	n/a	n/a	n/a	n/a	n/a
3802.852	n/a	RECOG_RESP	1901426	n/a	LTP222	ltpFR	6	5	n/a	VAMPIRE	1547	n/a	n/a	n/a	n/a	n/a	n/a	n/a
3804.292	n/a	RECOG_CONF	1902146	n/a	LTP222	ltpFR	6	5	n/a	VAMPIRE	1547	2	n/a	n/a	n/a	n/a	n/a	n/a
3805.776	n/a	RECOG_TARGET	1902888	n/a	LTP222	ltpFR	6	5	0	DOUGHNUT	490	5	0	n/a	n/a	n/a	n/a	n/a
3806.632	n/a	RECOG_RESP	1903316	n/a	LTP222	ltpFR	6	5	0	DOUGHNUT	490	n/a	0	n/a	n/a	n/a	n/a	n/a
3807.864	n/a	RECOG_CONF	1903932	n/a	LTP222	ltpFR	6	5	0	DOUGHNUT	490	5	0	n/a	n/a	n/a	n/a	n/a
3809.6	n/a	RECOG_TARGET	1904800	n/a	LTP222	ltpFR	6	5	0	BOOTH	151	3	1	n/a	n/a	n/a	n/a	n/a
3810.614	n/a	RECOG_RESP	1905307	n/a	LTP222	ltpFR	6	5	0	BOOTH	151	n/a	1	n/a	n/a	n/a	n/a	n/a
3812.036	n/a	RECOG_CONF	1906018	n/a	LTP222	ltpFR	6	5	0	BOOTH	151	3	1	n/a	n/a	n/a	n/a	n/a
3813.598	n/a	RECOG_TARGET	1906799	n/a	LTP222	ltpFR	6	5	1	TOWER	1490	5	0	n/a	n/a	n/a	n/a	n/a
3814.376	n/a	RECOG_RESP	1907188	n/a	LTP222	ltpFR	6	5	1	TOWER	1490	n/a	0	n/a	n/a	n/a	n/a	n/a
3815.944	n/a	RECOG_CONF	1907972	n/a	LTP222	ltpFR	6	5	1	TOWER	1490	5	0	n/a	n/a	n/a	n/a	n/a
3817.346	n/a	RECOG_TARGET	1908673	n/a	LTP222	ltpFR	6	5	0	HONEY	713	5	0	n/a	n/a	n/a	n/a	n/a
3818.126	n/a	RECOG_RESP	1909063	n/a	LTP222	ltpFR	6	5	0	HONEY	713	n/a	0	n/a	n/a	n/a	n/a	n/a
3819.548	n/a	RECOG_CONF	1909774	n/a	LTP222	ltpFR	6	5	0	HONEY	713	5	0	n/a	n/a	n/a	n/a	n/a
3821.036	n/a	RECOG_LURE	1910518	n/a	LTP222	ltpFR	6	5	n/a	ASPIRIN	47	2	n/a	n/a	n/a	n/a	n/a	n/a
3821.996	n/a	RECOG_RESP	1910998	n/a	LTP222	ltpFR	6	5	n/a	ASPIRIN	47	n/a	n/a	n/a	n/a	n/a	n/a	n/a
3823.42	n/a	RECOG_CONF	1911710	n/a	LTP222	ltpFR	6	5	n/a	ASPIRIN	47	2	n/a	n/a	n/a	n/a	n/a	n/a
3824.816	n/a	RECOG_LURE	1912408	n/a	LTP222	ltpFR	6	5	n/a	ELF	525	1	n/a	n/a	n/a	n/a	n/a	n/a
3825.948	n/a	RECOG_RESP	1912974	n/a	LTP222	ltpFR	6	5	n/a	ELF	525	n/a	n/a	n/a	n/a	n/a	n/a	n/a
3827.47	n/a	RECOG_CONF	1913735	n/a	LTP222	ltpFR	6	5	n/a	ELF	525	1	n/a	n/a	n/a	n/a	n/a	n/a
3829.058	n/a	RECOG_TARGET	1914529	n/a	LTP222	ltpFR	6	5	-1	COCKTAIL	338	5	-1	n/a	n/a	n/a	n/a	n/a
3829.82	n/a	RECOG_RESP	1914910	n/a	LTP222	ltpFR	6	5	-1	COCKTAIL	338	n/a	-1	n/a	n/a	n/a	n/a	n/a
3831.256	n/a	RECOG_CONF	1915628	n/a	LTP222	ltpFR	6	5	-1	COCKTAIL	338	5	-1	n/a	n/a	n/a	n/a	n/a
3832.696	n/a	RECOG_LURE	1916348	n/a	LTP222	ltpFR	6	5	n/a	SIDEWALK	1303	5	n/a	n/a	n/a	n/a	n/a	n/a
3833.588	n/a	RECOG_RESP	1916794	n/a	LTP222	ltpFR	6	5	n/a	SIDEWALK	1303	n/a	n/a	n/a	n/a	n/a	n/a	n/a
3834.996	n/a	RECOG_CONF	1917498	n/a	LTP222	ltpFR	6	5	n/a	SIDEWALK	1303	5	n/a	n/a	n/a	n/a	n/a	n/a
3836.796	n/a	RECOG_LURE	1918398	n/a	LTP222	ltpFR	6	5	n/a	THIEF	1456	3	n/a	n/a	n/a	n/a	n/a	n/a
3837.924	n/a	RECOG_RESP	1918962	n/a	LTP222	ltpFR	6	5	n/a	THIEF	1456	n/a	n/a	n/a	n/a	n/a	n/a	n/a
3839.328	n/a	RECOG_CONF	1919664	n/a	LTP222	ltpFR	6	5	n/a	THIEF	1456	3	n/a	n/a	n/a	n/a	n/a	n/a
3841.078	n/a	RECOG_TARGET	1920539	n/a	LTP222	ltpFR	6	5	0	TOTE	1487	5	0	n/a	n/a	n/a	n/a	n/a
3842.028	n/a	RECOG_RESP	1921014	n/a	LTP222	ltpFR	6	5	0	TOTE	1487	n/a	0	n/a	n/a	n/a	n/a	n/a
3843.15	n/a	RECOG_CONF	1921575	n/a	LTP222	ltpFR	6	5	0	TOTE	1487	5	0	n/a	n/a	n/a	n/a	n/a
3845.052	n/a	RECOG_TARGET	1922526	n/a	LTP222	ltpFR	6	5	1	MAPLE	866	5	0	n/a	n/a	n/a	n/a	n/a
3845.762	n/a	RECOG_RESP	1922881	n/a	LTP222	ltpFR	6	5	1	MAPLE	866	n/a	0	n/a	n/a	n/a	n/a	n/a
3847.188	n/a	RECOG_CONF	1923594	n/a	LTP222	ltpFR	6	5	1	MAPLE	866	5	0	n/a	n/a	n/a	n/a	n/a
3848.816	n/a	RECOG_TARGET	1924408	n/a	LTP222	ltpFR	6	5	0	ZIPPER	1636	2	0	n/a	n/a	n/a	n/a	n/a
3851.422	n/a	RECOG_RESP	1925711	n/a	LTP222	ltpFR	6	5	0	ZIPPER	1636	n/a	0	n/a	n/a	n/a	n/a	n/a
3852.906	n/a	RECOG_CONF	1926453	n/a	LTP222	ltpFR	6	5	0	ZIPPER	1636	2	0	n/a	n/a	n/a	n/a	n/a
3854.58	n/a	RECOG_LURE	1927290	n/a	LTP222	ltpFR	6	5	n/a	GHETTO	633	2	n/a	n/a	n/a	n/a	n/a	n/a
3855.828	n/a	RECOG_RESP	1927914	n/a	LTP222	ltpFR	6	5	n/a	GHETTO	633	n/a	n/a	n/a	n/a	n/a	n/a	n/a
3857.298	n/a	RECOG_CONF	1928649	n/a	LTP222	ltpFR	6	5	n/a	GHETTO	633	2	n/a	n/a	n/a	n/a	n/a	n/a
3858.946	n/a	RECOG_LURE	1929473	n/a	LTP222	ltpFR	6	5	n/a	HIP	710	2	n/a	n/a	n/a	n/a	n/a	n/a
3860.262	n/a	RECOG_RESP	1930131	n/a	LTP222	ltpFR	6	5	n/a	HIP	710	n/a	n/a	n/a	n/a	n/a	n/a	n/a
3861.658	n/a	RECOG_CONF	1930829	n/a	LTP222	ltpFR	6	5	n/a	HIP	710	2	n/a	n/a	n/a	n/a	n/a	n/a
3863.238	n/a	RECOG_TARGET	1931619	n/a	LTP222	ltpFR	6	5	1	RAFT	1159	5	0	n/a	n/a	n/a	n/a	n/a
3864.124	n/a	RECOG_RESP	1932062	n/a	LTP222	ltpFR	6	5	1	RAFT	1159	n/a	0	n/a	n/a	n/a	n/a	n/a
3865.826	n/a	RECOG_CONF	1932913	n/a	LTP222	ltpFR	6	5	1	RAFT	1159	5	0	n/a	n/a	n/a	n/a	n/a
3867.32	n/a	RECOG_LURE	1933660	n/a	LTP222	ltpFR	6	5	n/a	ARM	38	2	n/a	n/a	n/a	n/a	n/a	n/a
3868.322	n/a	RECOG_RESP	1934161	n/a	LTP222	ltpFR	6	5	n/a	ARM	38	n/a	n/a	n/a	n/a	n/a	n/a	n/a
3869.996	n/a	RECOG_CONF	1934998	n/a	LTP222	ltpFR	6	5	n/a	ARM	38	2	n/a	n/a	n/a	n/a	n/a	n/a
3871.838	n/a	RECOG_TARGET	1935919	n/a	LTP222	ltpFR	6	5	1	SCOUT	1252	3	1	n/a	n/a	n/a	n/a	n/a
3873.562	n/a	RECOG_RESP	1936781	n/a	LTP222	ltpFR	6	5	1	SCOUT	1252	n/a	1	n/a	n/a	n/a	n/a	n/a
3874.864	n/a	RECOG_CONF	1937432	n/a	LTP222	ltpFR	6	5	1	SCOUT	1252	3	1	n/a	n/a	n/a	n/a	n/a
3876.58	n/a	RECOG_TARGET	1938290	n/a	LTP222	ltpFR	6	5	1	PRIEST	1122	2	1	n/a	n/a	n/a	n/a	n/a
3877.556	n/a	RECOG_RESP	1938778	n/a	LTP222	ltpFR	6	5	1	PRIEST	1122	n/a	1	n/a	n/a	n/a	n/a	n/a
3878.906	n/a	RECOG_CONF	1939453	n/a	LTP222	ltpFR	6	5	1	PRIEST	1122	2	1	n/a	n/a	n/a	n/a	n/a
3880.546	n/a	RECOG_LURE	1940273	n/a	LTP222	ltpFR	6	5	n/a	SHEARS	1276	2	n/a	n/a	n/a	n/a	n/a	n/a
3881.626	n/a	RECOG_RESP	1940813	n/a	LTP222	ltpFR	6	5	n/a	SHEARS	1276	n/a	n/a	n/a	n/a	n/a	n/a	n/a
3883.0	n/a	RECOG_CONF	1941500	n/a	LTP222	ltpFR	6	5	n/a	SHEARS	1276	2	n/a	n/a	n/a	n/a	n/a	n/a
3887.636	n/a	REC_START	1943818	n/a	LTP222	ltpFR	6	6	n/a	n/a	n/a	n/a	n/a	n/a	n/a	n/a	n/a	n/a
3887.69	n/a	RECOG_LURE	1943845	n/a	LTP222	ltpFR	6	6	n/a	HUT	729	3	n/a	n/a	n/a	n/a	n/a	n/a
3888.79	n/a	RECOG_RESP	1944395	n/a	LTP222	ltpFR	6	6	n/a	HUT	729	n/a	n/a	n/a	n/a	n/a	n/a	n/a
3890.124	n/a	RECOG_CONF	1945062	n/a	LTP222	ltpFR	6	6	n/a	HUT	729	3	n/a	n/a	n/a	n/a	n/a	n/a
3891.73	n/a	RECOG_TARGET	1945865	n/a	LTP222	ltpFR	6	6	1	METEOR	889	5	0	n/a	n/a	n/a	n/a	n/a
3892.494	n/a	RECOG_RESP	1946247	n/a	LTP222	ltpFR	6	6	1	METEOR	889	n/a	0	n/a	n/a	n/a	n/a	n/a
3893.978	n/a	RECOG_CONF	1946989	n/a	LTP222	ltpFR	6	6	1	METEOR	889	5	0	n/a	n/a	n/a	n/a	n/a
3895.386	n/a	RECOG_TARGET	1947693	n/a	LTP222	ltpFR	6	6	0	STAPLER	1372	5	0	n/a	n/a	n/a	n/a	n/a
3896.272	n/a	RECOG_RESP	1948136	n/a	LTP222	ltpFR	6	6	0	STAPLER	1372	n/a	0	n/a	n/a	n/a	n/a	n/a
3897.738	n/a	RECOG_CONF	1948869	n/a	LTP222	ltpFR	6	6	0	STAPLER	1372	5	0	n/a	n/a	n/a	n/a	n/a
3899.258	n/a	RECOG_LURE	1949629	n/a	LTP222	ltpFR	6	6	n/a	DIRECTOR	471	2	n/a	n/a	n/a	n/a	n/a	n/a
3900.398	n/a	RECOG_RESP	1950199	n/a	LTP222	ltpFR	6	6	n/a	DIRECTOR	471	n/a	n/a	n/a	n/a	n/a	n/a	n/a
3901.776	n/a	RECOG_CONF	1950888	n/a	LTP222	ltpFR	6	6	n/a	DIRECTOR	471	2	n/a	n/a	n/a	n/a	n/a	n/a
3903.492	n/a	RECOG_TARGET	1951746	n/a	LTP222	ltpFR	6	6	0	RAIL	1161	2	1	n/a	n/a	n/a	n/a	n/a
3905.592	n/a	RECOG_RESP	1952796	n/a	LTP222	ltpFR	6	6	0	RAIL	1161	n/a	1	n/a	n/a	n/a	n/a	n/a
3906.976	n/a	RECOG_CONF	1953488	n/a	LTP222	ltpFR	6	6	0	RAIL	1161	2	1	n/a	n/a	n/a	n/a	n/a
3908.712	n/a	RECOG_TARGET	1954356	n/a	LTP222	ltpFR	6	6	-1	QUAIL	1147	5	-1	n/a	n/a	n/a	n/a	n/a
3909.538	n/a	RECOG_RESP	1954769	n/a	LTP222	ltpFR	6	6	-1	QUAIL	1147	n/a	-1	n/a	n/a	n/a	n/a	n/a
3910.91	n/a	RECOG_CONF	1955455	n/a	LTP222	ltpFR	6	6	-1	QUAIL	1147	5	-1	n/a	n/a	n/a	n/a	n/a
3912.334	n/a	RECOG_TARGET	1956167	n/a	LTP222	ltpFR	6	6	-1	COLESLAW	344	5	-1	n/a	n/a	n/a	n/a	n/a
3913.14	n/a	RECOG_RESP	1956570	n/a	LTP222	ltpFR	6	6	-1	COLESLAW	344	n/a	-1	n/a	n/a	n/a	n/a	n/a
3914.77	n/a	RECOG_CONF	1957385	n/a	LTP222	ltpFR	6	6	-1	COLESLAW	344	5	-1	n/a	n/a	n/a	n/a	n/a
3916.09	n/a	RECOG_TARGET	1958045	n/a	LTP222	ltpFR	6	6	0	MINT	898	5	0	n/a	n/a	n/a	n/a	n/a
3916.824	n/a	RECOG_RESP	1958412	n/a	LTP222	ltpFR	6	6	0	MINT	898	n/a	0	n/a	n/a	n/a	n/a	n/a
3918.298	n/a	RECOG_CONF	1959149	n/a	LTP222	ltpFR	6	6	0	MINT	898	5	0	n/a	n/a	n/a	n/a	n/a
3919.686	n/a	RECOG_LURE	1959843	n/a	LTP222	ltpFR	6	6	n/a	EMPLOYEE	531	5	n/a	n/a	n/a	n/a	n/a	n/a
3920.646	n/a	RECOG_RESP	1960323	n/a	LTP222	ltpFR	6	6	n/a	EMPLOYEE	531	n/a	n/a	n/a	n/a	n/a	n/a	n/a
3921.82	n/a	RECOG_CONF	1960910	n/a	LTP222	ltpFR	6	6	n/a	EMPLOYEE	531	5	n/a	n/a	n/a	n/a	n/a	n/a
3923.334	n/a	RECOG_TARGET	1961667	n/a	LTP222	ltpFR	6	6	-1	POTATO	1115	2	-1	n/a	n/a	n/a	n/a	n/a
3924.878	n/a	RECOG_RESP	1962439	n/a	LTP222	ltpFR	6	6	-1	POTATO	1115	n/a	-1	n/a	n/a	n/a	n/a	n/a
3926.266	n/a	RECOG_CONF	1963133	n/a	LTP222	ltpFR	6	6	-1	POTATO	1115	2	-1	n/a	n/a	n/a	n/a	n/a
3927.768	n/a	RECOG_TARGET	1963884	n/a	LTP222	ltpFR	6	6	0	FRECKLE	602	3	0	n/a	n/a	n/a	n/a	n/a
3929.158	n/a	RECOG_RESP_VV	1964579	n/a	LTP222	ltpFR	6	6	0	FRECKLE	602	n/a	0	n/a	n/a	n/a	n/a	n/a
3929.694	n/a	RECOG_RESP	1964847	n/a	LTP222	ltpFR	6	6	0	FRECKLE	602	n/a	0	n/a	n/a	n/a	n/a	n/a
3931.154	n/a	RECOG_CONF	1965577	n/a	LTP222	ltpFR	6	6	0	FRECKLE	602	3	0	n/a	n/a	n/a	n/a	n/a
3932.796	n/a	RECOG_LURE	1966398	n/a	LTP222	ltpFR	6	6	n/a	JELLO	754	2	n/a	n/a	n/a	n/a	n/a	n/a
3933.772	n/a	RECOG_RESP	1966886	n/a	LTP222	ltpFR	6	6	n/a	JELLO	754	n/a	n/a	n/a	n/a	n/a	n/a	n/a
3935.216	n/a	RECOG_CONF	1967608	n/a	LTP222	ltpFR	6	6	n/a	JELLO	754	2	n/a	n/a	n/a	n/a	n/a	n/a
