mstime	trial_type	stim_file	subject	experiment	session	trial	item_name	item_num	list	answer	test_x	test_y	test_z
0	SESS_START	n/a	LTP338	ltpFR2	4	n/a	n/a	n/a	n/a	n/a	0	0	0
14446	START	n/a	LTP338	ltpFR2	4	n/a	n/a	n/a	-1	n/a	n/a	n/a	n/a
14476	PROB	n/a	LTP338	ltpFR2	4	n/a	n/a	n/a	-1	13	4	5	4
17708	PROB	n/a	LTP338	ltpFR2	4	n/a	n/a	n/a	-1	13	3	5	5
19190	PROB	n/a	LTP338	ltpFR2	4	n/a	n/a	n/a	-1	10	1	3	6
20773	PROB	n/a	LTP338	ltpFR2	4	n/a	n/a	n/a	-1	11	8	1	2
22255	PROB	n/a	LTP338	ltpFR2	4	n/a	n/a	n/a	-1	13	4	6	3
23672	PROB	n/a	LTP338	ltpFR2	4	n/a	n/a	n/a	-1	14	1	6	7
25073	STOP	n/a	LTP338	ltpFR2	4	n/a	n/a	n/a	-1	n/a	n/a	n/a	n/a
58038	WORD	wordpools/wasnorm_wordpool_576.txt	LTP338	ltpFR2	4	1	SKETCH	1315	n/a	n/a	0	0	0
60770	WORD	wordpools/wasnorm_wordpool_576.txt	LTP338	ltpFR2	4	1	GLOBE	641	n/a	n/a	0	0	0
63519	WORD	wordpools/wasnorm_wordpool_576.txt	LTP338	ltpFR2	4	1	MAILMAN	858	n/a	n/a	0	0	0
66150	WORD	wordpools/wasnorm_wordpool_576.txt	LTP338	ltpFR2	4	1	OFFICE	972	n/a	n/a	0	0	0
68783	WORD	wordpools/wasnorm_wordpool_576.txt	LTP338	ltpFR2	4	1	LETTUCE	814	n/a	n/a	0	0	0
71364	WORD	wordpools/wasnorm_wordpool_576.txt	LTP338	ltpFR2	4	1	MUFFIN	929	n/a	n/a	0	0	0
73963	WORD	wordpools/wasnorm_wordpool_576.txt	LTP338	ltpFR2	4	1	WORLD	1622	n/a	n/a	0	0	0
76646	WORD	wordpools/wasnorm_wordpool_576.txt	LTP338	ltpFR2	4	1	CRUTCH	417	n/a	n/a	0	0	0
79411	WORD	wordpools/wasnorm_wordpool_576.txt	LTP338	ltpFR2	4	1	HUMAN	726	n/a	n/a	0	0	0
82125	WORD	wordpools/wasnorm_wordpool_576.txt	LTP338	ltpFR2	4	1	SALMON	1227	n/a	n/a	0	0	0
84908	WORD	wordpools/wasnorm_wordpool_576.txt	LTP338	ltpFR2	4	1	GARDEN	623	n/a	n/a	0	0	0
87507	WORD	wordpools/wasnorm_wordpool_576.txt	LTP338	ltpFR2	4	1	STICKER	1382	n/a	n/a	0	0	0
89955	WORD	wordpools/wasnorm_wordpool_576.txt	LTP338	ltpFR2	4	1	SALT	1229	n/a	n/a	0	0	0
92387	WORD	wordpools/wasnorm_wordpool_576.txt	LTP338	ltpFR2	4	1	ANKLE	24	n/a	n/a	0	0	0
95070	WORD	wordpools/wasnorm_wordpool_576.txt	LTP338	ltpFR2	4	1	TYPIST	1532	n/a	n/a	0	0	0
97502	WORD	wordpools/wasnorm_wordpool_576.txt	LTP338	ltpFR2	4	1	COOK	372	n/a	n/a	0	0	0
100299	WORD	wordpools/wasnorm_wordpool_576.txt	LTP338	ltpFR2	4	1	MARINE	869	n/a	n/a	0	0	0
102849	WORD	wordpools/wasnorm_wordpool_576.txt	LTP338	ltpFR2	4	1	SWIMMER	1420	n/a	n/a	0	0	0
105564	WORD	wordpools/wasnorm_wordpool_576.txt	LTP338	ltpFR2	4	1	ORCHID	982	n/a	n/a	0	0	0
108079	WORD	wordpools/wasnorm_wordpool_576.txt	LTP338	ltpFR2	4	1	SLIME	1327	n/a	n/a	0	0	0
110795	WORD	wordpools/wasnorm_wordpool_576.txt	LTP338	ltpFR2	4	1	DONOR	485	n/a	n/a	0	0	0
113393	WORD	wordpools/wasnorm_wordpool_576.txt	LTP338	ltpFR2	4	1	STATUE	1374	n/a	n/a	0	0	0
115976	WORD	wordpools/wasnorm_wordpool_576.txt	LTP338	ltpFR2	4	1	STAKE	1368	n/a	n/a	0	0	0
118458	WORD	wordpools/wasnorm_wordpool_576.txt	LTP338	ltpFR2	4	1	CABIN	211	n/a	n/a	0	0	0
120073	START	n/a	LTP338	ltpFR2	4	n/a	n/a	n/a	1	n/a	n/a	n/a	n/a
121201	DISTRACTOR	n/a	LTP338	ltpFR2	4	1	n/a	n/a	n/a	n/a	0	0	0
121206	PROB	n/a	LTP338	ltpFR2	4	n/a	n/a	n/a	1	15	1	9	5
122873	PROB	n/a	LTP338	ltpFR2	4	n/a	n/a	n/a	1	12	9	1	2
124039	PROB	n/a	LTP338	ltpFR2	4	n/a	n/a	n/a	1	25	9	8	8
127086	PROB	n/a	LTP338	ltpFR2	4	n/a	n/a	n/a	1	16	5	6	5
129202	PROB	n/a	LTP338	ltpFR2	4	n/a	n/a	n/a	1	15	1	7	7
130535	PROB	n/a	LTP338	ltpFR2	4	n/a	n/a	n/a	1	14	1	5	8
132100	PROB	n/a	LTP338	ltpFR2	4	n/a	n/a	n/a	1	4	2	1	1
133266	PROB	n/a	LTP338	ltpFR2	4	n/a	n/a	n/a	1	8	1	3	4
134617	PROB	n/a	LTP338	ltpFR2	4	n/a	n/a	n/a	1	16	7	2	7
137898	PROB	n/a	LTP338	ltpFR2	4	n/a	n/a	n/a	1	5	1	2	2
139263	PROB	n/a	LTP338	ltpFR2	4	n/a	n/a	n/a	1	18	2	7	9
140930	PROB	n/a	LTP338	ltpFR2	4	n/a	n/a	n/a	1	23	7	7	9
143288	STOP	n/a	LTP338	ltpFR2	4	n/a	n/a	n/a	1	n/a	n/a	n/a	n/a
145962	REC_START	n/a	LTP338	ltpFR2	4	1	n/a	n/a	n/a	n/a	0	0	0
148019	REC_WORD	wordpools/wasnorm_wordpool_576.txt	LTP338	ltpFR2	4	1	SKETCH	1315	n/a	n/a	0	0	0
149325	REC_WORD	wordpools/wasnorm_wordpool_576.txt	LTP338	ltpFR2	4	1	GLOBE	641	n/a	n/a	0	0	0
150549	REC_WORD	wordpools/wasnorm_wordpool_576.txt	LTP338	ltpFR2	4	1	MAILMAN	858	n/a	n/a	0	0	0
151717	REC_WORD	wordpools/wasnorm_wordpool_576.txt	LTP338	ltpFR2	4	1	OFFICE	972	n/a	n/a	0	0	0
153356	REC_WORD	wordpools/wasnorm_wordpool_576.txt	LTP338	ltpFR2	4	1	WORLD	1622	n/a	n/a	0	0	0
154356	REC_WORD_VV	wordpools/wasnorm_wordpool_576.txt	LTP338	ltpFR2	4	1	<>	-1	n/a	n/a	0	0	0
156786	REC_WORD	wordpools/wasnorm_wordpool_576.txt	LTP338	ltpFR2	4	1	HUMAN	726	n/a	n/a	0	0	0
157786	REC_WORD_VV	wordpools/wasnorm_wordpool_576.txt	LTP338	ltpFR2	4	1	<>	-1	n/a	n/a	0	0	0
158152	REC_WORD	wordpools/wasnorm_wordpool_576.txt	LTP338	ltpFR2	4	1	SALMON	1227	n/a	n/a	0	0	0
159152	REC_WORD_VV	wordpools/wasnorm_wordpool_576.txt	LTP338	ltpFR2	4	1	<>	-1	n/a	n/a	0	0	0
167873	REC_WORD	wordpools/wasnorm_wordpool_576.txt	LTP338	ltpFR2	4	1	SWIMMER	1420	n/a	n/a	0	0	0
168928	REC_WORD	wordpools/wasnorm_wordpool_576.txt	LTP338	ltpFR2	4	1	STATUE	1374	n/a	n/a	0	0	0
169928	REC_WORD_VV	wordpools/wasnorm_wordpool_576.txt	LTP338	ltpFR2	4	1	<>	-1	n/a	n/a	0	0	0
170012	REC_WORD	wordpools/wasnorm_wordpool_576.txt	LTP338	ltpFR2	4	1	STAKE	1368	n/a	n/a	0	0	0
172179	REC_WORD	wordpools/wasnorm_wordpool_576.txt	LTP338	ltpFR2	4	1	TYPIST	1532	n/a	n/a	0	0	0
173179	REC_WORD_VV	wordpools/wasnorm_wordpool_576.txt	LTP338	ltpFR2	4	1	<>	-1	n/a	n/a	0	0	0
173942	REC_WORD	wordpools/wasnorm_wordpool_576.txt	LTP338	ltpFR2	4	1	ORCHID	982	n/a	n/a	0	0	0
176223	REC_WORD	wordpools/wasnorm_wordpool_576.txt	LTP338	ltpFR2	4	1	GARDEN	623	n/a	n/a	0	0	0
236399	DISTRACTOR	n/a	LTP338	ltpFR2	4	2	n/a	n/a	n/a	n/a	0	0	0
236399	START	n/a	LTP338	ltpFR2	4	n/a	n/a	n/a	2	n/a	n/a	n/a	n/a
236416	PROB	n/a	LTP338	ltpFR2	4	n/a	n/a	n/a	2	7	1	4	2
238015	PROB	n/a	LTP338	ltpFR2	4	n/a	n/a	n/a	2	18	5	5	8
239347	PROB	n/a	LTP338	ltpFR2	4	n/a	n/a	n/a	2	15	2	8	5
240581	PROB	n/a	LTP338	ltpFR2	4	n/a	n/a	n/a	2	16	5	2	9
242346	PROB	n/a	LTP338	ltpFR2	4	n/a	n/a	n/a	2	12	1	5	6
244095	PROB	n/a	LTP338	ltpFR2	4	n/a	n/a	n/a	2	16	5	6	5
245812	PROB	n/a	LTP338	ltpFR2	4	n/a	n/a	n/a	2	18	5	8	5
247994	PROB	n/a	LTP338	ltpFR2	4	n/a	n/a	n/a	2	7	5	1	1
249225	PROB	n/a	LTP338	ltpFR2	4	n/a	n/a	n/a	2	8	3	2	3
250592	PROB	n/a	LTP338	ltpFR2	4	n/a	n/a	n/a	2	19	8	9	2
252541	PROB	n/a	LTP338	ltpFR2	4	n/a	n/a	n/a	2	9	4	2	3
254674	PROB	n/a	LTP338	ltpFR2	4	n/a	n/a	n/a	2	18	8	4	6
256272	PROB	n/a	LTP338	ltpFR2	4	n/a	n/a	n/a	2	13	3	1	9
258005	PROB	n/a	LTP338	ltpFR2	4	n/a	n/a	n/a	2	19	2	8	9
259192	STOP	n/a	LTP338	ltpFR2	4	n/a	n/a	n/a	2	n/a	n/a	n/a	n/a
261537	WORD	wordpools/wasnorm_wordpool_576.txt	LTP338	ltpFR2	4	2	SPIDER	1351	n/a	n/a	0	0	0
264285	WORD	wordpools/wasnorm_wordpool_576.txt	LTP338	ltpFR2	4	2	LADDER	793	n/a	n/a	0	0	0
267018	WORD	wordpools/wasnorm_wordpool_576.txt	LTP338	ltpFR2	4	2	GLASS	639	n/a	n/a	0	0	0
269500	WORD	wordpools/wasnorm_wordpool_576.txt	LTP338	ltpFR2	4	2	DRUG	501	n/a	n/a	0	0	0
272281	WORD	wordpools/wasnorm_wordpool_576.txt	LTP338	ltpFR2	4	2	HAMPER	682	n/a	n/a	0	0	0
274764	WORD	wordpools/wasnorm_wordpool_576.txt	LTP338	ltpFR2	4	2	CLOTHES	327	n/a	n/a	0	0	0
277328	WORD	wordpools/wasnorm_wordpool_576.txt	LTP338	ltpFR2	4	2	WINDOW	1611	n/a	n/a	0	0	0
279845	WORD	wordpools/wasnorm_wordpool_576.txt	LTP338	ltpFR2	4	2	CLOCK	325	n/a	n/a	0	0	0
282610	WORD	wordpools/wasnorm_wordpool_576.txt	LTP338	ltpFR2	4	2	SWAMP	1416	n/a	n/a	0	0	0
285374	WORD	wordpools/wasnorm_wordpool_576.txt	LTP338	ltpFR2	4	2	GARLIC	624	n/a	n/a	0	0	0
287974	WORD	wordpools/wasnorm_wordpool_576.txt	LTP338	ltpFR2	4	2	PLATE	1086	n/a	n/a	0	0	0
290639	WORD	wordpools/wasnorm_wordpool_576.txt	LTP338	ltpFR2	4	2	VICTIM	1562	n/a	n/a	0	0	0
293137	WORD	wordpools/wasnorm_wordpool_576.txt	LTP338	ltpFR2	4	2	PRINCESS	1125	n/a	n/a	0	0	0
295570	WORD	wordpools/wasnorm_wordpool_576.txt	LTP338	ltpFR2	4	2	ROBOT	1200	n/a	n/a	0	0	0
298234	WORD	wordpools/wasnorm_wordpool_576.txt	LTP338	ltpFR2	4	2	CEILING	265	n/a	n/a	0	0	0
300917	WORD	wordpools/wasnorm_wordpool_576.txt	LTP338	ltpFR2	4	2	LIPSTICK	829	n/a	n/a	0	0	0
303599	WORD	wordpools/wasnorm_wordpool_576.txt	LTP338	ltpFR2	4	2	EYELASH	546	n/a	n/a	0	0	0
306397	WORD	wordpools/wasnorm_wordpool_576.txt	LTP338	ltpFR2	4	2	CRITIC	410	n/a	n/a	0	0	0
309179	WORD	wordpools/wasnorm_wordpool_576.txt	LTP338	ltpFR2	4	2	BUREAU	199	n/a	n/a	0	0	0
311812	WORD	wordpools/wasnorm_wordpool_576.txt	LTP338	ltpFR2	4	2	DRESS	495	n/a	n/a	0	0	0
314243	WORD	wordpools/wasnorm_wordpool_576.txt	LTP338	ltpFR2	4	2	HUSBAND	728	n/a	n/a	0	0	0
317059	WORD	wordpools/wasnorm_wordpool_576.txt	LTP338	ltpFR2	4	2	SHELTER	1282	n/a	n/a	0	0	0
319608	WORD	wordpools/wasnorm_wordpool_576.txt	LTP338	ltpFR2	4	2	PLASTER	1085	n/a	n/a	0	0	0
322407	WORD	wordpools/wasnorm_wordpool_576.txt	LTP338	ltpFR2	4	2	POPCORN	1104	n/a	n/a	0	0	0
324023	START	n/a	LTP338	ltpFR2	4	n/a	n/a	n/a	3	n/a	n/a	n/a	n/a
325040	DISTRACTOR	n/a	LTP338	ltpFR2	4	2	n/a	n/a	n/a	n/a	0	0	0
325055	PROB	n/a	LTP338	ltpFR2	4	n/a	n/a	n/a	3	14	8	1	5
327021	PROB	n/a	LTP338	ltpFR2	4	n/a	n/a	n/a	3	11	3	4	4
329503	PROB	n/a	LTP338	ltpFR2	4	n/a	n/a	n/a	3	8	4	3	1
330919	PROB	n/a	LTP338	ltpFR2	4	n/a	n/a	n/a	3	16	3	6	7
333250	PROB	n/a	LTP338	ltpFR2	4	n/a	n/a	n/a	3	13	8	3	2
335199	PROB	n/a	LTP338	ltpFR2	4	n/a	n/a	n/a	3	16	6	6	4
338049	PROB	n/a	LTP338	ltpFR2	4	n/a	n/a	n/a	3	10	3	1	6
341414	PROB	n/a	LTP338	ltpFR2	4	n/a	n/a	n/a	3	19	9	5	5
342880	PROB	n/a	LTP338	ltpFR2	4	n/a	n/a	n/a	3	13	7	2	4
344546	PROB	n/a	LTP338	ltpFR2	4	n/a	n/a	n/a	3	9	4	2	3
348023	STOP	n/a	LTP338	ltpFR2	4	n/a	n/a	n/a	3	n/a	n/a	n/a	n/a
349944	REC_START	n/a	LTP338	ltpFR2	4	2	n/a	n/a	n/a	n/a	0	0	0
353506	REC_WORD	wordpools/wasnorm_wordpool_576.txt	LTP338	ltpFR2	4	2	SPIDER	1351	n/a	n/a	0	0	0
354648	REC_WORD	wordpools/wasnorm_wordpool_576.txt	LTP338	ltpFR2	4	2	LADDER	793	n/a	n/a	0	0	0
356285	REC_WORD	wordpools/wasnorm_wordpool_576.txt	LTP338	ltpFR2	4	2	SWAMP	1416	n/a	n/a	0	0	0
357285	REC_WORD_VV	wordpools/wasnorm_wordpool_576.txt	LTP338	ltpFR2	4	2	<>	-1	n/a	n/a	0	0	0
357553	REC_WORD	wordpools/wasnorm_wordpool_576.txt	LTP338	ltpFR2	4	2	PLASTER	1085	n/a	n/a	0	0	0
358553	REC_WORD_VV	wordpools/wasnorm_wordpool_576.txt	LTP338	ltpFR2	4	2	<>	-1	n/a	n/a	0	0	0
361459	REC_WORD	wordpools/wasnorm_wordpool_576.txt	LTP338	ltpFR2	4	2	GLASS	639	n/a	n/a	0	0	0
362587	REC_WORD	wordpools/wasnorm_wordpool_576.txt	LTP338	ltpFR2	4	2	DRUG	501	n/a	n/a	0	0	0
363027	REC_WORD	wordpools/wasnorm_wordpool_576.txt	LTP338	ltpFR2	4	2	SPIDER	1351	n/a	n/a	0	0	0
363446	REC_WORD	wordpools/wasnorm_wordpool_576.txt	LTP338	ltpFR2	4	2	HAMPER	682	n/a	n/a	0	0	0
364249	REC_WORD	wordpools/wasnorm_wordpool_576.txt	LTP338	ltpFR2	4	2	CLOTHES	327	n/a	n/a	0	0	0
365284	REC_WORD	wordpools/wasnorm_wordpool_576.txt	LTP338	ltpFR2	4	2	WINDOW	1611	n/a	n/a	0	0	0
369861	REC_WORD_VV	wordpools/wasnorm_wordpool_576.txt	LTP338	ltpFR2	4	2	<>	-1	n/a	n/a	0	0	0
440397	WORD	wordpools/wasnorm_wordpool_576.txt	LTP338	ltpFR2	4	3	FLUTE	585	n/a	n/a	0	0	0
442880	WORD	wordpools/wasnorm_wordpool_576.txt	LTP338	ltpFR2	4	3	MILK	895	n/a	n/a	0	0	0
445311	WORD	wordpools/wasnorm_wordpool_576.txt	LTP338	ltpFR2	4	3	POCKET	1093	n/a	n/a	0	0	0
447761	WORD	wordpools/wasnorm_wordpool_576.txt	LTP338	ltpFR2	4	3	HONEY	713	n/a	n/a	0	0	0
450460	WORD	wordpools/wasnorm_wordpool_576.txt	LTP338	ltpFR2	4	3	LOVER	846	n/a	n/a	0	0	0
453141	WORD	wordpools/wasnorm_wordpool_576.txt	LTP338	ltpFR2	4	3	PARTNER	1017	n/a	n/a	0	0	0
455591	WORD	wordpools/wasnorm_wordpool_576.txt	LTP338	ltpFR2	4	3	SHOVEL	1295	n/a	n/a	0	0	0
458088	WORD	wordpools/wasnorm_wordpool_576.txt	LTP338	ltpFR2	4	3	SCALPEL	1243	n/a	n/a	0	0	0
460605	WORD	wordpools/wasnorm_wordpool_576.txt	LTP338	ltpFR2	4	3	FLASK	576	n/a	n/a	0	0	0
463070	WORD	wordpools/wasnorm_wordpool_576.txt	LTP338	ltpFR2	4	3	BASEMENT	94	n/a	n/a	0	0	0
465686	WORD	wordpools/wasnorm_wordpool_576.txt	LTP338	ltpFR2	4	3	DOLPHIN	483	n/a	n/a	0	0	0
468217	WORD	wordpools/wasnorm_wordpool_576.txt	LTP338	ltpFR2	4	3	TROUT	1511	n/a	n/a	0	0	0
470983	WORD	wordpools/wasnorm_wordpool_576.txt	LTP338	ltpFR2	4	3	AUTHOR	61	n/a	n/a	0	0	0
473648	WORD	wordpools/wasnorm_wordpool_576.txt	LTP338	ltpFR2	4	3	PANTHER	1009	n/a	n/a	0	0	0
476464	WORD	wordpools/wasnorm_wordpool_576.txt	LTP338	ltpFR2	4	3	FLASHLIGHT	575	n/a	n/a	0	0	0
478912	WORD	wordpools/wasnorm_wordpool_576.txt	LTP338	ltpFR2	4	3	PREACHER	1119	n/a	n/a	0	0	0
481428	WORD	wordpools/wasnorm_wordpool_576.txt	LTP338	ltpFR2	4	3	SODA	1341	n/a	n/a	0	0	0
483927	WORD	wordpools/wasnorm_wordpool_576.txt	LTP338	ltpFR2	4	3	AIRPORT	13	n/a	n/a	0	0	0
486525	WORD	wordpools/wasnorm_wordpool_576.txt	LTP338	ltpFR2	4	3	SCOTCH	1251	n/a	n/a	0	0	0
489090	WORD	wordpools/wasnorm_wordpool_576.txt	LTP338	ltpFR2	4	3	NURSE	963	n/a	n/a	0	0	0
491906	WORD	wordpools/wasnorm_wordpool_576.txt	LTP338	ltpFR2	4	3	DUSTPAN	509	n/a	n/a	0	0	0
494655	WORD	wordpools/wasnorm_wordpool_576.txt	LTP338	ltpFR2	4	3	KNIFE	785	n/a	n/a	0	0	0
497319	WORD	wordpools/wasnorm_wordpool_576.txt	LTP338	ltpFR2	4	3	CRICKET	408	n/a	n/a	0	0	0
499885	WORD	wordpools/wasnorm_wordpool_576.txt	LTP338	ltpFR2	4	3	COCOON	339	n/a	n/a	0	0	0
501501	START	n/a	LTP338	ltpFR2	4	n/a	n/a	n/a	4	n/a	n/a	n/a	n/a
502542	DISTRACTOR	n/a	LTP338	ltpFR2	4	3	n/a	n/a	n/a	n/a	0	0	0
502551	PROB	n/a	LTP338	ltpFR2	4	n/a	n/a	n/a	4	14	4	7	3
504199	PROB	n/a	LTP338	ltpFR2	4	n/a	n/a	n/a	4	17	9	5	3
507397	PROB	n/a	LTP338	ltpFR2	4	n/a	n/a	n/a	4	9	2	4	3
511446	PROB	n/a	LTP338	ltpFR2	4	n/a	n/a	n/a	4	17	4	5	8
513745	PROB	n/a	LTP338	ltpFR2	4	n/a	n/a	n/a	4	9	2	6	1
515544	PROB	n/a	LTP338	ltpFR2	4	n/a	n/a	n/a	4	23	8	8	7
522240	PROB	n/a	LTP338	ltpFR2	4	n/a	n/a	n/a	4	16	2	6	8
524945	STOP	n/a	LTP338	ltpFR2	4	n/a	n/a	n/a	4	n/a	n/a	n/a	n/a
527271	REC_START	n/a	LTP338	ltpFR2	4	3	n/a	n/a	n/a	n/a	0	0	0
541912	REC_WORD	wordpools/wasnorm_wordpool_576.txt	LTP338	ltpFR2	4	3	POCKET	1093	n/a	n/a	0	0	0
542957	REC_WORD	wordpools/wasnorm_wordpool_576.txt	LTP338	ltpFR2	4	3	HONEY	713	n/a	n/a	0	0	0
544046	REC_WORD	wordpools/wasnorm_wordpool_576.txt	LTP338	ltpFR2	4	3	MILK	895	n/a	n/a	0	0	0
546750	REC_WORD	wordpools/wasnorm_wordpool_576.txt	LTP338	ltpFR2	4	3	FLASK	576	n/a	n/a	0	0	0
548507	REC_WORD	wordpools/wasnorm_wordpool_576.txt	LTP338	ltpFR2	4	3	BASEMENT	94	n/a	n/a	0	0	0
553735	REC_WORD	wordpools/wasnorm_wordpool_576.txt	LTP338	ltpFR2	4	3	SCALPEL	1243	n/a	n/a	0	0	0
555079	REC_WORD	wordpools/wasnorm_wordpool_576.txt	LTP338	ltpFR2	4	3	SHOVEL	1295	n/a	n/a	0	0	0
556457	REC_WORD	wordpools/wasnorm_wordpool_576.txt	LTP338	ltpFR2	4	3	PARTNER	1017	n/a	n/a	0	0	0
557393	REC_WORD	wordpools/wasnorm_wordpool_576.txt	LTP338	ltpFR2	4	3	LOVER	846	n/a	n/a	0	0	0
617727	WORD	wordpools/wasnorm_wordpool_576.txt	LTP338	ltpFR2	4	4	SPHINX	1349	n/a	n/a	0	0	0
620425	WORD	wordpools/wasnorm_wordpool_576.txt	LTP338	ltpFR2	4	4	SPOUSE	1358	n/a	n/a	0	0	0
623223	WORD	wordpools/wasnorm_wordpool_576.txt	LTP338	ltpFR2	4	4	MEAT	883	n/a	n/a	0	0	0
625873	WORD	wordpools/wasnorm_wordpool_576.txt	LTP338	ltpFR2	4	4	BIKE	125	n/a	n/a	0	0	0
628387	WORD	wordpools/wasnorm_wordpool_576.txt	LTP338	ltpFR2	4	4	LAVA	804	n/a	n/a	0	0	0
631152	WORD	wordpools/wasnorm_wordpool_576.txt	LTP338	ltpFR2	4	4	BEAKER	104	n/a	n/a	0	0	0
633619	WORD	wordpools/wasnorm_wordpool_576.txt	LTP338	ltpFR2	4	4	CORAL	378	n/a	n/a	0	0	0
636300	WORD	wordpools/wasnorm_wordpool_576.txt	LTP338	ltpFR2	4	4	MUMMY	932	n/a	n/a	0	0	0
638983	WORD	wordpools/wasnorm_wordpool_576.txt	LTP338	ltpFR2	4	4	NOMAD	955	n/a	n/a	0	0	0
641698	WORD	wordpools/wasnorm_wordpool_576.txt	LTP338	ltpFR2	4	4	PISTON	1076	n/a	n/a	0	0	0
644279	WORD	wordpools/wasnorm_wordpool_576.txt	LTP338	ltpFR2	4	4	FRAME	600	n/a	n/a	0	0	0
646862	WORD	wordpools/wasnorm_wordpool_576.txt	LTP338	ltpFR2	4	4	TRENCH	1503	n/a	n/a	0	0	0
649393	WORD	wordpools/wasnorm_wordpool_576.txt	LTP338	ltpFR2	4	4	DRAGON	492	n/a	n/a	0	0	0
651943	WORD	wordpools/wasnorm_wordpool_576.txt	LTP338	ltpFR2	4	4	MATCH	878	n/a	n/a	0	0	0
654492	WORD	wordpools/wasnorm_wordpool_576.txt	LTP338	ltpFR2	4	4	PASTRY	1022	n/a	n/a	0	0	0
657273	WORD	wordpools/wasnorm_wordpool_576.txt	LTP338	ltpFR2	4	4	PENGUIN	1044	n/a	n/a	0	0	0
659739	WORD	wordpools/wasnorm_wordpool_576.txt	LTP338	ltpFR2	4	4	EAGLE	512	n/a	n/a	0	0	0
662270	WORD	wordpools/wasnorm_wordpool_576.txt	LTP338	ltpFR2	4	4	CRAB	397	n/a	n/a	0	0	0
664887	WORD	wordpools/wasnorm_wordpool_576.txt	LTP338	ltpFR2	4	4	BANKER	84	n/a	n/a	0	0	0
667368	WORD	wordpools/wasnorm_wordpool_576.txt	LTP338	ltpFR2	4	4	MARKET	871	n/a	n/a	0	0	0
669818	WORD	wordpools/wasnorm_wordpool_576.txt	LTP338	ltpFR2	4	4	CANDY	230	n/a	n/a	0	0	0
672450	WORD	wordpools/wasnorm_wordpool_576.txt	LTP338	ltpFR2	4	4	SCRIBBLE	1256	n/a	n/a	0	0	0
675015	WORD	wordpools/wasnorm_wordpool_576.txt	LTP338	ltpFR2	4	4	DENIM	446	n/a	n/a	0	0	0
677564	WORD	wordpools/wasnorm_wordpool_576.txt	LTP338	ltpFR2	4	4	DANCER	437	n/a	n/a	0	0	0
679179	START	n/a	LTP338	ltpFR2	4	n/a	n/a	n/a	5	n/a	n/a	n/a	n/a
680093	DISTRACTOR	n/a	LTP338	ltpFR2	4	4	n/a	n/a	n/a	n/a	0	0	0
680095	PROB	n/a	LTP338	ltpFR2	4	n/a	n/a	n/a	5	18	9	8	1
682077	PROB	n/a	LTP338	ltpFR2	4	n/a	n/a	n/a	5	16	4	3	9
683777	PROB	n/a	LTP338	ltpFR2	4	n/a	n/a	n/a	5	7	1	1	5
685076	PROB	n/a	LTP338	ltpFR2	4	n/a	n/a	n/a	5	11	2	2	7
686676	PROB	n/a	LTP338	ltpFR2	4	n/a	n/a	n/a	5	24	8	9	7
691657	PROB	n/a	LTP338	ltpFR2	4	n/a	n/a	n/a	5	16	4	5	7
694072	PROB	n/a	LTP338	ltpFR2	4	n/a	n/a	n/a	5	14	1	8	5
695755	PROB	n/a	LTP338	ltpFR2	4	n/a	n/a	n/a	5	12	7	4	1
697286	PROB	n/a	LTP338	ltpFR2	4	n/a	n/a	n/a	5	19	6	4	9
698620	PROB	n/a	LTP338	ltpFR2	4	n/a	n/a	n/a	5	17	9	2	6
703179	STOP	n/a	LTP338	ltpFR2	4	n/a	n/a	n/a	5	n/a	n/a	n/a	n/a
705001	REC_START	n/a	LTP338	ltpFR2	4	4	n/a	n/a	n/a	n/a	0	0	0
708698	REC_WORD	wordpools/wasnorm_wordpool_576.txt	LTP338	ltpFR2	4	4	BEAKER	104	n/a	n/a	0	0	0
710593	REC_WORD	wordpools/wasnorm_wordpool_576.txt	LTP338	ltpFR2	4	4	MUMMY	932	n/a	n/a	0	0	0
711506	REC_WORD	wordpools/wasnorm_wordpool_576.txt	LTP338	ltpFR2	4	4	NOMAD	955	n/a	n/a	0	0	0
712584	REC_WORD	wordpools/wasnorm_wordpool_576.txt	LTP338	ltpFR2	4	4	PISTON	1076	n/a	n/a	0	0	0
720608	REC_WORD	wordpools/wasnorm_wordpool_576.txt	LTP338	ltpFR2	4	4	MEAT	883	n/a	n/a	0	0	0
721723	REC_WORD	wordpools/wasnorm_wordpool_576.txt	LTP338	ltpFR2	4	4	PASTRY	1022	n/a	n/a	0	0	0
722723	REC_WORD_VV	wordpools/wasnorm_wordpool_576.txt	LTP338	ltpFR2	4	4	<>	-1	n/a	n/a	0	0	0
724162	REC_WORD	wordpools/wasnorm_wordpool_576.txt	LTP338	ltpFR2	4	4	PENGUIN	1044	n/a	n/a	0	0	0
725472	REC_WORD	wordpools/wasnorm_wordpool_576.txt	LTP338	ltpFR2	4	4	EAGLE	512	n/a	n/a	0	0	0
726861	REC_WORD	wordpools/wasnorm_wordpool_576.txt	LTP338	ltpFR2	4	4	CRAB	397	n/a	n/a	0	0	0
728156	REC_WORD	wordpools/wasnorm_wordpool_576.txt	LTP338	ltpFR2	4	4	BANKER	84	n/a	n/a	0	0	0
732290	REC_WORD	wordpools/wasnorm_wordpool_576.txt	LTP338	ltpFR2	4	4	MARKET	871	n/a	n/a	0	0	0
733588	REC_WORD	wordpools/wasnorm_wordpool_576.txt	LTP338	ltpFR2	4	4	SCRIBBLE	1256	n/a	n/a	0	0	0
795439	DISTRACTOR	n/a	LTP338	ltpFR2	4	5	n/a	n/a	n/a	n/a	0	0	0
795439	START	n/a	LTP338	ltpFR2	4	n/a	n/a	n/a	6	n/a	n/a	n/a	n/a
795455	PROB	n/a	LTP338	ltpFR2	4	n/a	n/a	n/a	6	15	7	5	3
797521	PROB	n/a	LTP338	ltpFR2	4	n/a	n/a	n/a	6	8	4	2	2
798970	PROB	n/a	LTP338	ltpFR2	4	n/a	n/a	n/a	6	21	7	7	7
800469	PROB	n/a	LTP338	ltpFR2	4	n/a	n/a	n/a	6	13	5	6	2
802351	PROB	n/a	LTP338	ltpFR2	4	n/a	n/a	n/a	6	15	3	4	8
805067	PROB	n/a	LTP338	ltpFR2	4	n/a	n/a	n/a	6	24	8	7	9
808098	PROB	n/a	LTP338	ltpFR2	4	n/a	n/a	n/a	6	22	4	9	9
809831	PROB	n/a	LTP338	ltpFR2	4	n/a	n/a	n/a	6	16	5	3	8
811897	PROB	n/a	LTP338	ltpFR2	4	n/a	n/a	n/a	6	17	1	8	8
813563	PROB	n/a	LTP338	ltpFR2	4	n/a	n/a	n/a	6	22	7	8	7
816545	PROB	n/a	LTP338	ltpFR2	4	n/a	n/a	n/a	6	11	2	4	5
818673	STOP	n/a	LTP338	ltpFR2	4	n/a	n/a	n/a	6	n/a	n/a	n/a	n/a
820392	WORD	wordpools/wasnorm_wordpool_576.txt	LTP338	ltpFR2	4	5	STOVE	1388	n/a	n/a	0	0	0
823090	WORD	wordpools/wasnorm_wordpool_576.txt	LTP338	ltpFR2	4	5	CATCHER	258	n/a	n/a	0	0	0
825873	WORD	wordpools/wasnorm_wordpool_576.txt	LTP338	ltpFR2	4	5	CRIB	407	n/a	n/a	0	0	0
828605	WORD	wordpools/wasnorm_wordpool_576.txt	LTP338	ltpFR2	4	5	SNAKE	1333	n/a	n/a	0	0	0
831370	WORD	wordpools/wasnorm_wordpool_576.txt	LTP338	ltpFR2	4	5	SPACE	1345	n/a	n/a	0	0	0
833869	WORD	wordpools/wasnorm_wordpool_576.txt	LTP338	ltpFR2	4	5	FIREPLACE	570	n/a	n/a	0	0	0
836635	WORD	wordpools/wasnorm_wordpool_576.txt	LTP338	ltpFR2	4	5	CATTLE	261	n/a	n/a	0	0	0
839266	WORD	wordpools/wasnorm_wordpool_576.txt	LTP338	ltpFR2	4	5	RADISH	1158	n/a	n/a	0	0	0
841766	WORD	wordpools/wasnorm_wordpool_576.txt	LTP338	ltpFR2	4	5	THIEF	1456	n/a	n/a	0	0	0
844397	WORD	wordpools/wasnorm_wordpool_576.txt	LTP338	ltpFR2	4	5	SHRUB	1299	n/a	n/a	0	0	0
846980	WORD	wordpools/wasnorm_wordpool_576.txt	LTP338	ltpFR2	4	5	TWIG	1527	n/a	n/a	0	0	0
849512	WORD	wordpools/wasnorm_wordpool_576.txt	LTP338	ltpFR2	4	5	TEACHER	1440	n/a	n/a	0	0	0
852159	WORD	wordpools/wasnorm_wordpool_576.txt	LTP338	ltpFR2	4	5	FLESH	579	n/a	n/a	0	0	0
854642	WORD	wordpools/wasnorm_wordpool_576.txt	LTP338	ltpFR2	4	5	HEART	697	n/a	n/a	0	0	0
857408	WORD	wordpools/wasnorm_wordpool_576.txt	LTP338	ltpFR2	4	5	GIFT	635	n/a	n/a	0	0	0
860073	WORD	wordpools/wasnorm_wordpool_576.txt	LTP338	ltpFR2	4	5	HARP	689	n/a	n/a	0	0	0
862705	WORD	wordpools/wasnorm_wordpool_576.txt	LTP338	ltpFR2	4	5	STAR	1373	n/a	n/a	0	0	0
865386	WORD	wordpools/wasnorm_wordpool_576.txt	LTP338	ltpFR2	4	5	OX	994	n/a	n/a	0	0	0
867853	WORD	wordpools/wasnorm_wordpool_576.txt	LTP338	ltpFR2	4	5	WASHER	1592	n/a	n/a	0	0	0
870435	WORD	wordpools/wasnorm_wordpool_576.txt	LTP338	ltpFR2	4	5	PIGMENT	1066	n/a	n/a	0	0	0
873099	WORD	wordpools/wasnorm_wordpool_576.txt	LTP338	ltpFR2	4	5	HELMET	702	n/a	n/a	0	0	0
875615	WORD	wordpools/wasnorm_wordpool_576.txt	LTP338	ltpFR2	4	5	PAIL	1002	n/a	n/a	0	0	0
878113	WORD	wordpools/wasnorm_wordpool_576.txt	LTP338	ltpFR2	4	5	SEAL	1262	n/a	n/a	0	0	0
880929	WORD	wordpools/wasnorm_wordpool_576.txt	LTP338	ltpFR2	4	5	WORKER	1621	n/a	n/a	0	0	0
882546	START	n/a	LTP338	ltpFR2	4	n/a	n/a	n/a	7	n/a	n/a	n/a	n/a
883436	DISTRACTOR	n/a	LTP338	ltpFR2	4	5	n/a	n/a	n/a	n/a	0	0	0
883445	PROB	n/a	LTP338	ltpFR2	4	n/a	n/a	n/a	7	13	2	6	5
886326	PROB	n/a	LTP338	ltpFR2	4	n/a	n/a	n/a	7	18	5	5	8
887793	PROB	n/a	LTP338	ltpFR2	4	n/a	n/a	n/a	7	14	1	5	8
889542	PROB	n/a	LTP338	ltpFR2	4	n/a	n/a	n/a	7	18	2	9	7
891307	PROB	n/a	LTP338	ltpFR2	4	n/a	n/a	n/a	7	14	4	6	4
892640	PROB	n/a	LTP338	ltpFR2	4	n/a	n/a	n/a	7	14	6	5	3
894205	PROB	n/a	LTP338	ltpFR2	4	n/a	n/a	n/a	7	19	8	8	3
896039	PROB	n/a	LTP338	ltpFR2	4	n/a	n/a	n/a	7	21	6	8	7
898521	PROB	n/a	LTP338	ltpFR2	4	n/a	n/a	n/a	7	13	3	3	7
906546	STOP	n/a	LTP338	ltpFR2	4	n/a	n/a	n/a	7	n/a	n/a	n/a	n/a
908434	REC_START	n/a	LTP338	ltpFR2	4	5	n/a	n/a	n/a	n/a	0	0	0
910374	REC_WORD	wordpools/wasnorm_wordpool_576.txt	LTP338	ltpFR2	4	5	CRIB	407	n/a	n/a	0	0	0
911520	REC_WORD	wordpools/wasnorm_wordpool_576.txt	LTP338	ltpFR2	4	5	CATCHER	258	n/a	n/a	0	0	0
913823	REC_WORD	wordpools/wasnorm_wordpool_576.txt	LTP338	ltpFR2	4	5	SHRUB	1299	n/a	n/a	0	0	0
915001	REC_WORD	wordpools/wasnorm_wordpool_576.txt	LTP338	ltpFR2	4	5	TWIG	1527	n/a	n/a	0	0	0
916050	REC_WORD	wordpools/wasnorm_wordpool_576.txt	LTP338	ltpFR2	4	5	TEACHER	1440	n/a	n/a	0	0	0
917795	REC_WORD	wordpools/wasnorm_wordpool_576.txt	LTP338	ltpFR2	4	5	THIEF	1456	n/a	n/a	0	0	0
921082	REC_WORD	wordpools/wasnorm_wordpool_576.txt	LTP338	ltpFR2	4	5	FLESH	579	n/a	n/a	0	0	0
922458	REC_WORD	wordpools/wasnorm_wordpool_576.txt	LTP338	ltpFR2	4	5	HEART	697	n/a	n/a	0	0	0
929698	REC_WORD	wordpools/wasnorm_wordpool_576.txt	LTP338	ltpFR2	4	5	HARP	689	n/a	n/a	0	0	0
930528	REC_WORD	wordpools/wasnorm_wordpool_576.txt	LTP338	ltpFR2	4	5	STAR	1373	n/a	n/a	0	0	0
931620	REC_WORD	wordpools/wasnorm_wordpool_576.txt	LTP338	ltpFR2	4	5	SPACE	1345	n/a	n/a	0	0	0
932931	REC_WORD	wordpools/wasnorm_wordpool_576.txt	LTP338	ltpFR2	4	5	FIREPLACE	570	n/a	n/a	0	0	0
933931	REC_WORD_VV	wordpools/wasnorm_wordpool_576.txt	LTP338	ltpFR2	4	5	<>	-1	n/a	n/a	0	0	0
998887	WORD	wordpools/wasnorm_wordpool_576.txt	LTP338	ltpFR2	4	6	DRESSER	496	n/a	n/a	0	0	0
1001335	WORD	wordpools/wasnorm_wordpool_576.txt	LTP338	ltpFR2	4	6	CHEST	295	n/a	n/a	0	0	0
1003768	WORD	wordpools/wasnorm_wordpool_576.txt	LTP338	ltpFR2	4	6	JEANS	752	n/a	n/a	0	0	0
1006349	WORD	wordpools/wasnorm_wordpool_576.txt	LTP338	ltpFR2	4	6	PRIMATE	1123	n/a	n/a	0	0	0
1009033	WORD	wordpools/wasnorm_wordpool_576.txt	LTP338	ltpFR2	4	6	JUNGLE	764	n/a	n/a	0	0	0
1011531	WORD	wordpools/wasnorm_wordpool_576.txt	LTP338	ltpFR2	4	6	YARN	1631	n/a	n/a	0	0	0
1014312	WORD	wordpools/wasnorm_wordpool_576.txt	LTP338	ltpFR2	4	6	VIRUS	1572	n/a	n/a	0	0	0
1016962	WORD	wordpools/wasnorm_wordpool_576.txt	LTP338	ltpFR2	4	6	ACTOR	5	n/a	n/a	0	0	0
1019427	WORD	wordpools/wasnorm_wordpool_576.txt	LTP338	ltpFR2	4	6	FOREHEAD	592	n/a	n/a	0	0	0
1021893	WORD	wordpools/wasnorm_wordpool_576.txt	LTP338	ltpFR2	4	6	FOX	598	n/a	n/a	0	0	0
1024458	WORD	wordpools/wasnorm_wordpool_576.txt	LTP338	ltpFR2	4	6	KETCHUP	771	n/a	n/a	0	0	0
1027239	WORD	wordpools/wasnorm_wordpool_576.txt	LTP338	ltpFR2	4	6	PERFUME	1049	n/a	n/a	0	0	0
1030022	WORD	wordpools/wasnorm_wordpool_576.txt	LTP338	ltpFR2	4	6	CIGAR	308	n/a	n/a	0	0	0
1032687	WORD	wordpools/wasnorm_wordpool_576.txt	LTP338	ltpFR2	4	6	SURVEY	1414	n/a	n/a	0	0	0
1035318	WORD	wordpools/wasnorm_wordpool_576.txt	LTP338	ltpFR2	4	6	TREAT	1501	n/a	n/a	0	0	0
1038100	WORD	wordpools/wasnorm_wordpool_576.txt	LTP338	ltpFR2	4	6	ROOSTER	1209	n/a	n/a	0	0	0
1040917	WORD	wordpools/wasnorm_wordpool_576.txt	LTP338	ltpFR2	4	6	SADDLE	1221	n/a	n/a	0	0	0
1043465	WORD	wordpools/wasnorm_wordpool_576.txt	LTP338	ltpFR2	4	6	EMPIRE	530	n/a	n/a	0	0	0
1045947	WORD	wordpools/wasnorm_wordpool_576.txt	LTP338	ltpFR2	4	6	TUNNEL	1519	n/a	n/a	0	0	0
1048763	WORD	wordpools/wasnorm_wordpool_576.txt	LTP338	ltpFR2	4	6	BREAST	171	n/a	n/a	0	0	0
1051445	WORD	wordpools/wasnorm_wordpool_576.txt	LTP338	ltpFR2	4	6	TWISTER	1530	n/a	n/a	0	0	0
1054092	WORD	wordpools/wasnorm_wordpool_576.txt	LTP338	ltpFR2	4	6	MISTER	901	n/a	n/a	0	0	0
1056592	WORD	wordpools/wasnorm_wordpool_576.txt	LTP338	ltpFR2	4	6	LADY	794	n/a	n/a	0	0	0
1059041	WORD	wordpools/wasnorm_wordpool_576.txt	LTP338	ltpFR2	4	6	BOYFRIEND	162	n/a	n/a	0	0	0
1060657	START	n/a	LTP338	ltpFR2	4	n/a	n/a	n/a	8	n/a	n/a	n/a	n/a
1061638	DISTRACTOR	n/a	LTP338	ltpFR2	4	6	n/a	n/a	n/a	n/a	0	0	0
1061640	PROB	n/a	LTP338	ltpFR2	4	n/a	n/a	n/a	8	14	5	8	1
1063555	PROB	n/a	LTP338	ltpFR2	4	n/a	n/a	n/a	8	15	6	2	7
1066904	PROB	n/a	LTP338	ltpFR2	4	n/a	n/a	n/a	8	14	3	3	8
1068553	PROB	n/a	LTP338	ltpFR2	4	n/a	n/a	n/a	8	8	2	2	4
1069936	PROB	n/a	LTP338	ltpFR2	4	n/a	n/a	n/a	8	23	9	6	8
1074050	PROB	n/a	LTP338	ltpFR2	4	n/a	n/a	n/a	8	11	2	6	3
1076016	PROB	n/a	LTP338	ltpFR2	4	n/a	n/a	n/a	8	20	9	6	5
1078548	PROB	n/a	LTP338	ltpFR2	4	n/a	n/a	n/a	8	20	9	2	9
1081896	PROB	n/a	LTP338	ltpFR2	4	n/a	n/a	n/a	8	18	6	9	3
1084136	STOP	n/a	LTP338	ltpFR2	4	n/a	n/a	n/a	8	n/a	n/a	n/a	n/a
1086462	REC_START	n/a	LTP338	ltpFR2	4	6	n/a	n/a	n/a	n/a	0	0	0
1093519	REC_WORD	wordpools/wasnorm_wordpool_576.txt	LTP338	ltpFR2	4	6	TWISTER	1530	n/a	n/a	0	0	0
1095255	REC_WORD	wordpools/wasnorm_wordpool_576.txt	LTP338	ltpFR2	4	6	MISTER	901	n/a	n/a	0	0	0
1096207	REC_WORD	wordpools/wasnorm_wordpool_576.txt	LTP338	ltpFR2	4	6	LADY	794	n/a	n/a	0	0	0
1111610	REC_WORD	wordpools/wasnorm_wordpool_576.txt	LTP338	ltpFR2	4	6	KETCHUP	771	n/a	n/a	0	0	0
1112969	REC_WORD	wordpools/wasnorm_wordpool_576.txt	LTP338	ltpFR2	4	6	DRAWER	493	n/a	n/a	0	0	0
1114006	REC_WORD	wordpools/wasnorm_wordpool_576.txt	LTP338	ltpFR2	4	6	CHEST	295	n/a	n/a	0	0	0
1115370	REC_WORD	wordpools/wasnorm_wordpool_576.txt	LTP338	ltpFR2	4	6	JEANS	752	n/a	n/a	0	0	0
1176932	WORD	wordpools/wasnorm_wordpool_576.txt	LTP338	ltpFR2	4	7	FRUIT	610	n/a	n/a	0	0	0
1179581	WORD	wordpools/wasnorm_wordpool_576.txt	LTP338	ltpFR2	4	7	LONDON	843	n/a	n/a	0	0	0
1182345	WORD	wordpools/wasnorm_wordpool_576.txt	LTP338	ltpFR2	4	7	PALACE	1006	n/a	n/a	0	0	0
1184978	WORD	wordpools/wasnorm_wordpool_576.txt	LTP338	ltpFR2	4	7	PECAN	1036	n/a	n/a	0	0	0
1187660	WORD	wordpools/wasnorm_wordpool_576.txt	LTP338	ltpFR2	4	7	PROTON	1132	n/a	n/a	0	0	0
1190108	WORD	wordpools/wasnorm_wordpool_576.txt	LTP338	ltpFR2	4	7	ZIPPER	1636	n/a	n/a	0	0	0
1192758	WORD	wordpools/wasnorm_wordpool_576.txt	LTP338	ltpFR2	4	7	OZONE	996	n/a	n/a	0	0	0
1195407	WORD	wordpools/wasnorm_wordpool_576.txt	LTP338	ltpFR2	4	7	CLAMP	316	n/a	n/a	0	0	0
1197972	WORD	wordpools/wasnorm_wordpool_576.txt	LTP338	ltpFR2	4	7	SHORTCAKE	1292	n/a	n/a	0	0	0
1200437	WORD	wordpools/wasnorm_wordpool_576.txt	LTP338	ltpFR2	4	7	NOTEBOOK	959	n/a	n/a	0	0	0
1202870	WORD	wordpools/wasnorm_wordpool_576.txt	LTP338	ltpFR2	4	7	KIDNEY	776	n/a	n/a	0	0	0
1205468	WORD	wordpools/wasnorm_wordpool_576.txt	LTP338	ltpFR2	4	7	LIVER	833	n/a	n/a	0	0	0
1208067	WORD	wordpools/wasnorm_wordpool_576.txt	LTP338	ltpFR2	4	7	RABBIT	1152	n/a	n/a	0	0	0
1210549	WORD	wordpools/wasnorm_wordpool_576.txt	LTP338	ltpFR2	4	7	DRILL	497	n/a	n/a	0	0	0
1213113	WORD	wordpools/wasnorm_wordpool_576.txt	LTP338	ltpFR2	4	7	APPLE	33	n/a	n/a	0	0	0
1215846	WORD	wordpools/wasnorm_wordpool_576.txt	LTP338	ltpFR2	4	7	PLAID	1080	n/a	n/a	0	0	0
1218495	WORD	wordpools/wasnorm_wordpool_576.txt	LTP338	ltpFR2	4	7	LAPEL	800	n/a	n/a	0	0	0
1221243	WORD	wordpools/wasnorm_wordpool_576.txt	LTP338	ltpFR2	4	7	PARROT	1015	n/a	n/a	0	0	0
1224026	WORD	wordpools/wasnorm_wordpool_576.txt	LTP338	ltpFR2	4	7	PISTOL	1075	n/a	n/a	0	0	0
1226824	WORD	wordpools/wasnorm_wordpool_576.txt	LTP338	ltpFR2	4	7	PLAYGROUND	1087	n/a	n/a	0	0	0
1229389	WORD	wordpools/wasnorm_wordpool_576.txt	LTP338	ltpFR2	4	7	HOOK	715	n/a	n/a	0	0	0
1232154	WORD	wordpools/wasnorm_wordpool_576.txt	LTP338	ltpFR2	4	7	QUEEN	1149	n/a	n/a	0	0	0
1234654	WORD	wordpools/wasnorm_wordpool_576.txt	LTP338	ltpFR2	4	7	TART	1436	n/a	n/a	0	0	0
1237419	WORD	wordpools/wasnorm_wordpool_576.txt	LTP338	ltpFR2	4	7	NAPKIN	937	n/a	n/a	0	0	0
1239035	START	n/a	LTP338	ltpFR2	4	n/a	n/a	n/a	9	n/a	n/a	n/a	n/a
1240144	DISTRACTOR	n/a	LTP338	ltpFR2	4	7	n/a	n/a	n/a	n/a	0	0	0
1240150	PROB	n/a	LTP338	ltpFR2	4	n/a	n/a	n/a	9	17	6	6	5
1241984	PROB	n/a	LTP338	ltpFR2	4	n/a	n/a	n/a	9	8	4	3	1
1243282	PROB	n/a	LTP338	ltpFR2	4	n/a	n/a	n/a	9	20	9	4	7
1245632	PROB	n/a	LTP338	ltpFR2	4	n/a	n/a	n/a	9	17	3	8	6
1248497	PROB	n/a	LTP338	ltpFR2	4	n/a	n/a	n/a	9	12	2	8	2
1250245	PROB	n/a	LTP338	ltpFR2	4	n/a	n/a	n/a	9	13	5	3	5
1252745	PROB	n/a	LTP338	ltpFR2	4	n/a	n/a	n/a	9	18	9	8	1
1254326	PROB	n/a	LTP338	ltpFR2	4	n/a	n/a	n/a	9	14	3	7	4
1255660	PROB	n/a	LTP338	ltpFR2	4	n/a	n/a	n/a	9	15	3	6	6
1257292	PROB	n/a	LTP338	ltpFR2	4	n/a	n/a	n/a	9	15	8	6	1
1258975	PROB	n/a	LTP338	ltpFR2	4	n/a	n/a	n/a	9	13	5	5	3
1260240	PROB	n/a	LTP338	ltpFR2	4	n/a	n/a	n/a	9	14	4	5	5
1261609	STOP	n/a	LTP338	ltpFR2	4	n/a	n/a	n/a	9	n/a	n/a	n/a	n/a
1264807	REC_START	n/a	LTP338	ltpFR2	4	7	n/a	n/a	n/a	n/a	0	0	0
1287537	REC_WORD	wordpools/wasnorm_wordpool_576.txt	LTP338	ltpFR2	4	7	PARROT	1015	n/a	n/a	0	0	0
1288617	REC_WORD	wordpools/wasnorm_wordpool_576.txt	LTP338	ltpFR2	4	7	PISTOL	1075	n/a	n/a	0	0	0
1289637	REC_WORD	wordpools/wasnorm_wordpool_576.txt	LTP338	ltpFR2	4	7	RABBIT	1152	n/a	n/a	0	0	0
1296083	REC_WORD	wordpools/wasnorm_wordpool_576.txt	LTP338	ltpFR2	4	7	FRUIT	610	n/a	n/a	0	0	0
1297077	REC_WORD	wordpools/wasnorm_wordpool_576.txt	LTP338	ltpFR2	4	7	LONDON	843	n/a	n/a	0	0	0
1298023	REC_WORD	wordpools/wasnorm_wordpool_576.txt	LTP338	ltpFR2	4	7	PALACE	1006	n/a	n/a	0	0	0
1299025	REC_WORD	wordpools/wasnorm_wordpool_576.txt	LTP338	ltpFR2	4	7	PECAN	1036	n/a	n/a	0	0	0
1355243	DISTRACTOR	n/a	LTP338	ltpFR2	4	8	n/a	n/a	n/a	n/a	0	0	0
1355243	START	n/a	LTP338	ltpFR2	4	n/a	n/a	n/a	10	n/a	n/a	n/a	n/a
1355260	PROB	n/a	LTP338	ltpFR2	4	n/a	n/a	n/a	10	14	4	7	3
1357109	PROB	n/a	LTP338	ltpFR2	4	n/a	n/a	n/a	10	13	5	7	1
1360591	PROB	n/a	LTP338	ltpFR2	4	n/a	n/a	n/a	10	20	3	8	9
1362540	PROB	n/a	LTP338	ltpFR2	4	n/a	n/a	n/a	10	15	8	6	1
1364439	PROB	n/a	LTP338	ltpFR2	4	n/a	n/a	n/a	10	19	5	7	7
1367104	PROB	n/a	LTP338	ltpFR2	4	n/a	n/a	n/a	10	13	5	7	1
1369703	PROB	n/a	LTP338	ltpFR2	4	n/a	n/a	n/a	10	11	1	4	6
1371318	PROB	n/a	LTP338	ltpFR2	4	n/a	n/a	n/a	10	19	1	9	9
1373167	PROB	n/a	LTP338	ltpFR2	4	n/a	n/a	n/a	10	16	4	9	3
1376399	PROB	n/a	LTP338	ltpFR2	4	n/a	n/a	n/a	10	11	2	4	5
1377937	STOP	n/a	LTP338	ltpFR2	4	n/a	n/a	n/a	10	n/a	n/a	n/a	n/a
1380448	WORD	wordpools/wasnorm_wordpool_576.txt	LTP338	ltpFR2	4	8	MONEY	908	n/a	n/a	0	0	0
1383196	WORD	wordpools/wasnorm_wordpool_576.txt	LTP338	ltpFR2	4	8	DIME	466	n/a	n/a	0	0	0
1385729	WORD	wordpools/wasnorm_wordpool_576.txt	LTP338	ltpFR2	4	8	STONE	1385	n/a	n/a	0	0	0
1388544	WORD	wordpools/wasnorm_wordpool_576.txt	LTP338	ltpFR2	4	8	MONSTER	912	n/a	n/a	0	0	0
1391275	WORD	wordpools/wasnorm_wordpool_576.txt	LTP338	ltpFR2	4	8	PUPIL	1143	n/a	n/a	0	0	0
1393941	WORD	wordpools/wasnorm_wordpool_576.txt	LTP338	ltpFR2	4	8	TABLE	1426	n/a	n/a	0	0	0
1396657	WORD	wordpools/wasnorm_wordpool_576.txt	LTP338	ltpFR2	4	8	BRANCH	168	n/a	n/a	0	0	0
1399472	WORD	wordpools/wasnorm_wordpool_576.txt	LTP338	ltpFR2	4	8	COIN	343	n/a	n/a	0	0	0
1402203	WORD	wordpools/wasnorm_wordpool_576.txt	LTP338	ltpFR2	4	8	LILY	821	n/a	n/a	0	0	0
1404719	WORD	wordpools/wasnorm_wordpool_576.txt	LTP338	ltpFR2	4	8	BOUQUET	157	n/a	n/a	0	0	0
1407485	WORD	wordpools/wasnorm_wordpool_576.txt	LTP338	ltpFR2	4	8	ELBOW	520	n/a	n/a	0	0	0
1410282	WORD	wordpools/wasnorm_wordpool_576.txt	LTP338	ltpFR2	4	8	VALLEY	1545	n/a	n/a	0	0	0
1413032	WORD	wordpools/wasnorm_wordpool_576.txt	LTP338	ltpFR2	4	8	CELLAR	267	n/a	n/a	0	0	0
1415797	WORD	wordpools/wasnorm_wordpool_576.txt	LTP338	ltpFR2	4	8	FRAGRANCE	599	n/a	n/a	0	0	0
1418446	WORD	wordpools/wasnorm_wordpool_576.txt	LTP338	ltpFR2	4	8	CREATURE	403	n/a	n/a	0	0	0
1421177	WORD	wordpools/wasnorm_wordpool_576.txt	LTP338	ltpFR2	4	8	LEOPARD	812	n/a	n/a	0	0	0
1423827	WORD	wordpools/wasnorm_wordpool_576.txt	LTP338	ltpFR2	4	8	BLUEPRINT	142	n/a	n/a	0	0	0
1426575	WORD	wordpools/wasnorm_wordpool_576.txt	LTP338	ltpFR2	4	8	COFFEE	341	n/a	n/a	0	0	0
1429356	WORD	wordpools/wasnorm_wordpool_576.txt	LTP338	ltpFR2	4	8	PLIERS	1089	n/a	n/a	0	0	0
1432022	WORD	wordpools/wasnorm_wordpool_576.txt	LTP338	ltpFR2	4	8	SPONGE	1355	n/a	n/a	0	0	0
1434471	WORD	wordpools/wasnorm_wordpool_576.txt	LTP338	ltpFR2	4	8	COUCH	386	n/a	n/a	0	0	0
1437003	WORD	wordpools/wasnorm_wordpool_576.txt	LTP338	ltpFR2	4	8	PEANUT	1032	n/a	n/a	0	0	0
1439552	WORD	wordpools/wasnorm_wordpool_576.txt	LTP338	ltpFR2	4	8	ICEBERG	731	n/a	n/a	0	0	0
1442283	WORD	wordpools/wasnorm_wordpool_576.txt	LTP338	ltpFR2	4	8	SUMMIT	1405	n/a	n/a	0	0	0
1443900	START	n/a	LTP338	ltpFR2	4	n/a	n/a	n/a	11	n/a	n/a	n/a	n/a
1444924	DISTRACTOR	n/a	LTP338	ltpFR2	4	8	n/a	n/a	n/a	n/a	0	0	0
1444933	PROB	n/a	LTP338	ltpFR2	4	n/a	n/a	n/a	11	14	1	6	7
1447314	PROB	n/a	LTP338	ltpFR2	4	n/a	n/a	n/a	11	22	4	9	9
1448747	PROB	n/a	LTP338	ltpFR2	4	n/a	n/a	n/a	11	12	2	6	4
1451362	PROB	n/a	LTP338	ltpFR2	4	n/a	n/a	n/a	11	8	5	2	1
1453294	PROB	n/a	LTP338	ltpFR2	4	n/a	n/a	n/a	11	10	8	1	1
1456760	PROB	n/a	LTP338	ltpFR2	4	n/a	n/a	n/a	11	22	6	7	9
1459091	PROB	n/a	LTP338	ltpFR2	4	n/a	n/a	n/a	11	22	5	8	9
1466056	PROB	n/a	LTP338	ltpFR2	4	n/a	n/a	n/a	11	5	2	1	2
1467681	STOP	n/a	LTP338	ltpFR2	4	n/a	n/a	n/a	11	n/a	n/a	n/a	n/a
1469671	REC_START	n/a	LTP338	ltpFR2	4	8	n/a	n/a	n/a	n/a	0	0	0
1473597	REC_WORD	wordpools/wasnorm_wordpool_576.txt	LTP338	ltpFR2	4	8	SUMMIT	1405	n/a	n/a	0	0	0
1474853	REC_WORD	wordpools/wasnorm_wordpool_576.txt	LTP338	ltpFR2	4	8	ICEBERG	731	n/a	n/a	0	0	0
1487238	REC_WORD	wordpools/wasnorm_wordpool_576.txt	LTP338	ltpFR2	4	8	VALLEY	1545	n/a	n/a	0	0	0
1488387	REC_WORD	wordpools/wasnorm_wordpool_576.txt	LTP338	ltpFR2	4	8	ELBOW	520	n/a	n/a	0	0	0
1489298	REC_WORD	wordpools/wasnorm_wordpool_576.txt	LTP338	ltpFR2	4	8	CELLAR	267	n/a	n/a	0	0	0
1490256	REC_WORD	wordpools/wasnorm_wordpool_576.txt	LTP338	ltpFR2	4	8	FRAGRANCE	599	n/a	n/a	0	0	0
1546215	REST_REWET	n/a	LTP338	ltpFR2	4	8	n/a	n/a	n/a	n/a	0	0	0
1642968	DISTRACTOR	n/a	LTP338	ltpFR2	4	9	n/a	n/a	n/a	n/a	0	0	0
1642968	START	n/a	LTP338	ltpFR2	4	n/a	n/a	n/a	12	n/a	n/a	n/a	n/a
1642984	PROB	n/a	LTP338	ltpFR2	4	n/a	n/a	n/a	12	15	7	1	7
1644683	PROB	n/a	LTP338	ltpFR2	4	n/a	n/a	n/a	12	17	8	6	3
1646982	PROB	n/a	LTP338	ltpFR2	4	n/a	n/a	n/a	12	17	9	2	6
1650797	PROB	n/a	LTP338	ltpFR2	4	n/a	n/a	n/a	12	14	3	3	8
1652930	PROB	n/a	LTP338	ltpFR2	4	n/a	n/a	n/a	12	15	5	2	8
1655111	PROB	n/a	LTP338	ltpFR2	4	n/a	n/a	n/a	12	23	9	7	7
1657143	PROB	n/a	LTP338	ltpFR2	4	n/a	n/a	n/a	12	18	7	8	3
1659959	PROB	n/a	LTP338	ltpFR2	4	n/a	n/a	n/a	12	14	7	3	4
1661492	PROB	n/a	LTP338	ltpFR2	4	n/a	n/a	n/a	12	14	8	4	2
1663857	PROB	n/a	LTP338	ltpFR2	4	n/a	n/a	n/a	12	16	3	5	8
1665417	STOP	n/a	LTP338	ltpFR2	4	n/a	n/a	n/a	12	n/a	n/a	n/a	n/a
1668055	WORD	wordpools/wasnorm_wordpool_576.txt	LTP338	ltpFR2	4	9	INFANT	737	n/a	n/a	0	0	0
1670820	WORD	wordpools/wasnorm_wordpool_576.txt	LTP338	ltpFR2	4	9	PICNIC	1060	n/a	n/a	0	0	0
1673252	WORD	wordpools/wasnorm_wordpool_576.txt	LTP338	ltpFR2	4	9	CUPBOARD	425	n/a	n/a	0	0	0
1675968	WORD	wordpools/wasnorm_wordpool_576.txt	LTP338	ltpFR2	4	9	BUCKET	184	n/a	n/a	0	0	0
1678517	WORD	wordpools/wasnorm_wordpool_576.txt	LTP338	ltpFR2	4	9	JAPAN	749	n/a	n/a	0	0	0
1681131	WORD	wordpools/wasnorm_wordpool_576.txt	LTP338	ltpFR2	4	9	GUARD	667	n/a	n/a	0	0	0
1683814	WORD	wordpools/wasnorm_wordpool_576.txt	LTP338	ltpFR2	4	9	CREVICE	405	n/a	n/a	0	0	0
1686579	WORD	wordpools/wasnorm_wordpool_576.txt	LTP338	ltpFR2	4	9	SILK	1307	n/a	n/a	0	0	0
1689210	WORD	wordpools/wasnorm_wordpool_576.txt	LTP338	ltpFR2	4	9	ITEM	746	n/a	n/a	0	0	0
1691810	WORD	wordpools/wasnorm_wordpool_576.txt	LTP338	ltpFR2	4	9	KEEPER	769	n/a	n/a	0	0	0
1694291	WORD	wordpools/wasnorm_wordpool_576.txt	LTP338	ltpFR2	4	9	SUBWAY	1400	n/a	n/a	0	0	0
1696908	WORD	wordpools/wasnorm_wordpool_576.txt	LTP338	ltpFR2	4	9	GIRL	637	n/a	n/a	0	0	0
1699606	WORD	wordpools/wasnorm_wordpool_576.txt	LTP338	ltpFR2	4	9	WHISTLE	1606	n/a	n/a	0	0	0
1702254	WORD	wordpools/wasnorm_wordpool_576.txt	LTP338	ltpFR2	4	9	CAMEL	223	n/a	n/a	0	0	0
1704787	WORD	wordpools/wasnorm_wordpool_576.txt	LTP338	ltpFR2	4	9	BATHTUB	100	n/a	n/a	0	0	0
1707436	WORD	wordpools/wasnorm_wordpool_576.txt	LTP338	ltpFR2	4	9	PIGEON	1065	n/a	n/a	0	0	0
1710117	WORD	wordpools/wasnorm_wordpool_576.txt	LTP338	ltpFR2	4	9	RIVER	1194	n/a	n/a	0	0	0
1712583	WORD	wordpools/wasnorm_wordpool_576.txt	LTP338	ltpFR2	4	9	AGENT	10	n/a	n/a	0	0	0
1715264	WORD	wordpools/wasnorm_wordpool_576.txt	LTP338	ltpFR2	4	9	CRATER	400	n/a	n/a	0	0	0
1717864	WORD	wordpools/wasnorm_wordpool_576.txt	LTP338	ltpFR2	4	9	SIDEWALK	1303	n/a	n/a	0	0	0
1720546	WORD	wordpools/wasnorm_wordpool_576.txt	LTP338	ltpFR2	4	9	HIGHWAY	707	n/a	n/a	0	0	0
1723028	WORD	wordpools/wasnorm_wordpool_576.txt	LTP338	ltpFR2	4	9	HORNET	718	n/a	n/a	0	0	0
1725743	WORD	wordpools/wasnorm_wordpool_576.txt	LTP338	ltpFR2	4	9	BUGGY	188	n/a	n/a	0	0	0
1728291	WORD	wordpools/wasnorm_wordpool_576.txt	LTP338	ltpFR2	4	9	RAFT	1159	n/a	n/a	0	0	0
1729908	START	n/a	LTP338	ltpFR2	4	n/a	n/a	n/a	13	n/a	n/a	n/a	n/a
1730814	DISTRACTOR	n/a	LTP338	ltpFR2	4	9	n/a	n/a	n/a	n/a	0	0	0
1730824	PROB	n/a	LTP338	ltpFR2	4	n/a	n/a	n/a	13	18	7	3	8
1732823	PROB	n/a	LTP338	ltpFR2	4	n/a	n/a	n/a	13	13	6	5	2
1734639	PROB	n/a	LTP338	ltpFR2	4	n/a	n/a	n/a	13	17	7	5	5
1735988	PROB	n/a	LTP338	ltpFR2	4	n/a	n/a	n/a	13	7	3	3	1
1737621	PROB	n/a	LTP338	ltpFR2	4	n/a	n/a	n/a	13	21	4	8	9
1739853	PROB	n/a	LTP338	ltpFR2	4	n/a	n/a	n/a	13	17	9	5	3
1742835	PROB	n/a	LTP338	ltpFR2	4	n/a	n/a	n/a	13	23	9	5	9
1744750	PROB	n/a	LTP338	ltpFR2	4	n/a	n/a	n/a	13	17	7	7	3
1746199	PROB	n/a	LTP338	ltpFR2	4	n/a	n/a	n/a	13	14	6	6	2
1747582	PROB	n/a	LTP338	ltpFR2	4	n/a	n/a	n/a	13	12	4	4	4
1749848	PROB	n/a	LTP338	ltpFR2	4	n/a	n/a	n/a	13	18	8	3	7
1753908	STOP	n/a	LTP338	ltpFR2	4	n/a	n/a	n/a	13	n/a	n/a	n/a	n/a
1755696	REC_START	n/a	LTP338	ltpFR2	4	9	n/a	n/a	n/a	n/a	0	0	0
1759629	REC_WORD	wordpools/wasnorm_wordpool_576.txt	LTP338	ltpFR2	4	9	HIGHWAY	707	n/a	n/a	0	0	0
1764145	REC_WORD	wordpools/wasnorm_wordpool_576.txt	LTP338	ltpFR2	4	9	INFANT	737	n/a	n/a	0	0	0
1765582	REC_WORD	wordpools/wasnorm_wordpool_576.txt	LTP338	ltpFR2	4	9	PICNIC	1060	n/a	n/a	0	0	0
1766948	REC_WORD	wordpools/wasnorm_wordpool_576.txt	LTP338	ltpFR2	4	9	BUCKET	184	n/a	n/a	0	0	0
1767942	REC_WORD	wordpools/wasnorm_wordpool_576.txt	LTP338	ltpFR2	4	9	JAPAN	749	n/a	n/a	0	0	0
1769509	REC_WORD	wordpools/wasnorm_wordpool_576.txt	LTP338	ltpFR2	4	9	GUARD	667	n/a	n/a	0	0	0
1770594	REC_WORD	wordpools/wasnorm_wordpool_576.txt	LTP338	ltpFR2	4	9	SILK	1307	n/a	n/a	0	0	0
1772061	REC_WORD	wordpools/wasnorm_wordpool_576.txt	LTP338	ltpFR2	4	9	ITEM	746	n/a	n/a	0	0	0
1773281	REC_WORD	wordpools/wasnorm_wordpool_576.txt	LTP338	ltpFR2	4	9	CREVICE	405	n/a	n/a	0	0	0
1846149	DISTRACTOR	n/a	LTP338	ltpFR2	4	10	n/a	n/a	n/a	n/a	0	0	0
1846149	START	n/a	LTP338	ltpFR2	4	n/a	n/a	n/a	14	n/a	n/a	n/a	n/a
1846166	PROB	n/a	LTP338	ltpFR2	4	n/a	n/a	n/a	14	14	2	8	4
1847766	PROB	n/a	LTP338	ltpFR2	4	n/a	n/a	n/a	14	16	4	9	3
1851113	PROB	n/a	LTP338	ltpFR2	4	n/a	n/a	n/a	14	22	6	7	9
1853896	PROB	n/a	LTP338	ltpFR2	4	n/a	n/a	n/a	14	9	1	2	6
1855395	PROB	n/a	LTP338	ltpFR2	4	n/a	n/a	n/a	14	11	1	4	6
1857360	PROB	n/a	LTP338	ltpFR2	4	n/a	n/a	n/a	14	17	5	5	7
1858777	PROB	n/a	LTP338	ltpFR2	4	n/a	n/a	n/a	14	10	5	1	4
1860292	PROB	n/a	LTP338	ltpFR2	4	n/a	n/a	n/a	14	10	5	3	2
1861809	PROB	n/a	LTP338	ltpFR2	4	n/a	n/a	n/a	14	13	2	3	8
1863708	PROB	n/a	LTP338	ltpFR2	4	n/a	n/a	n/a	14	15	7	7	1
1865041	PROB	n/a	LTP338	ltpFR2	4	n/a	n/a	n/a	14	13	6	3	4
1867073	PROB	n/a	LTP338	ltpFR2	4	n/a	n/a	n/a	14	26	9	9	8
1869216	STOP	n/a	LTP338	ltpFR2	4	n/a	n/a	n/a	14	n/a	n/a	n/a	n/a
1871353	WORD	wordpools/wasnorm_wordpool_576.txt	LTP338	ltpFR2	4	10	TURNIP	1521	n/a	n/a	0	0	0
1873936	WORD	wordpools/wasnorm_wordpool_576.txt	LTP338	ltpFR2	4	10	CLOUD	328	n/a	n/a	0	0	0
1876518	WORD	wordpools/wasnorm_wordpool_576.txt	LTP338	ltpFR2	4	10	SNAIL	1332	n/a	n/a	0	0	0
1879183	WORD	wordpools/wasnorm_wordpool_576.txt	LTP338	ltpFR2	4	10	TURTLE	1522	n/a	n/a	0	0	0
1881766	WORD	wordpools/wasnorm_wordpool_576.txt	LTP338	ltpFR2	4	10	LAKE	796	n/a	n/a	0	0	0
1884481	WORD	wordpools/wasnorm_wordpool_576.txt	LTP338	ltpFR2	4	10	ISLAND	745	n/a	n/a	0	0	0
1887030	WORD	wordpools/wasnorm_wordpool_576.txt	LTP338	ltpFR2	4	10	ARM	38	n/a	n/a	0	0	0
1889645	WORD	wordpools/wasnorm_wordpool_576.txt	LTP338	ltpFR2	4	10	ROBIN	1199	n/a	n/a	0	0	0
1892193	WORD	wordpools/wasnorm_wordpool_576.txt	LTP338	ltpFR2	4	10	HIKER	708	n/a	n/a	0	0	0
1894776	WORD	wordpools/wasnorm_wordpool_576.txt	LTP338	ltpFR2	4	10	KNAPSACK	783	n/a	n/a	0	0	0
1897525	WORD	wordpools/wasnorm_wordpool_576.txt	LTP338	ltpFR2	4	10	UMPIRE	1535	n/a	n/a	0	0	0
1900106	WORD	wordpools/wasnorm_wordpool_576.txt	LTP338	ltpFR2	4	10	RACKET	1155	n/a	n/a	0	0	0
1902772	WORD	wordpools/wasnorm_wordpool_576.txt	LTP338	ltpFR2	4	10	CARRIAGE	248	n/a	n/a	0	0	0
1905587	WORD	wordpools/wasnorm_wordpool_576.txt	LTP338	ltpFR2	4	10	CASKET	255	n/a	n/a	0	0	0
1908069	WORD	wordpools/wasnorm_wordpool_576.txt	LTP338	ltpFR2	4	10	FRIEND	606	n/a	n/a	0	0	0
1910801	WORD	wordpools/wasnorm_wordpool_576.txt	LTP338	ltpFR2	4	10	LIGHTNING	820	n/a	n/a	0	0	0
1913366	WORD	wordpools/wasnorm_wordpool_576.txt	LTP338	ltpFR2	4	10	FIDDLE	561	n/a	n/a	0	0	0
1915865	WORD	wordpools/wasnorm_wordpool_576.txt	LTP338	ltpFR2	4	10	RECORD	1176	n/a	n/a	0	0	0
1918631	WORD	wordpools/wasnorm_wordpool_576.txt	LTP338	ltpFR2	4	10	HORSE	719	n/a	n/a	0	0	0
1921329	WORD	wordpools/wasnorm_wordpool_576.txt	LTP338	ltpFR2	4	10	SHARK	1275	n/a	n/a	0	0	0
1923878	WORD	wordpools/wasnorm_wordpool_576.txt	LTP338	ltpFR2	4	10	NIGHTGOWN	953	n/a	n/a	0	0	0
1926693	WORD	wordpools/wasnorm_wordpool_576.txt	LTP338	ltpFR2	4	10	HAWK	692	n/a	n/a	0	0	0
1929409	WORD	wordpools/wasnorm_wordpool_576.txt	LTP338	ltpFR2	4	10	LAGOON	795	n/a	n/a	0	0	0
1932140	WORD	wordpools/wasnorm_wordpool_576.txt	LTP338	ltpFR2	4	10	DASHBOARD	441	n/a	n/a	0	0	0
1933757	START	n/a	LTP338	ltpFR2	4	n/a	n/a	n/a	15	n/a	n/a	n/a	n/a
1934568	DISTRACTOR	n/a	LTP338	ltpFR2	4	10	n/a	n/a	n/a	n/a	0	0	0
1934573	PROB	n/a	LTP338	ltpFR2	4	n/a	n/a	n/a	15	19	6	9	4
1936371	PROB	n/a	LTP338	ltpFR2	4	n/a	n/a	n/a	15	12	7	2	3
1939103	PROB	n/a	LTP338	ltpFR2	4	n/a	n/a	n/a	15	18	7	5	6
1941368	PROB	n/a	LTP338	ltpFR2	4	n/a	n/a	n/a	15	17	3	6	8
1943718	PROB	n/a	LTP338	ltpFR2	4	n/a	n/a	n/a	15	10	1	3	6
1945366	PROB	n/a	LTP338	ltpFR2	4	n/a	n/a	n/a	15	19	9	6	4
1947033	PROB	n/a	LTP338	ltpFR2	4	n/a	n/a	n/a	15	10	4	5	1
1948633	PROB	n/a	LTP338	ltpFR2	4	n/a	n/a	n/a	15	13	3	7	3
1950114	PROB	n/a	LTP338	ltpFR2	4	n/a	n/a	n/a	15	13	3	4	6
1951898	PROB	n/a	LTP338	ltpFR2	4	n/a	n/a	n/a	15	26	9	8	9
1954063	PROB	n/a	LTP338	ltpFR2	4	n/a	n/a	n/a	15	10	1	2	7
1957757	STOP	n/a	LTP338	ltpFR2	4	n/a	n/a	n/a	15	n/a	n/a	n/a	n/a
1959644	REC_START	n/a	LTP338	ltpFR2	4	10	n/a	n/a	n/a	n/a	0	0	0
1965008	REC_WORD	wordpools/wasnorm_wordpool_576.txt	LTP338	ltpFR2	4	10	CARRIAGE	248	n/a	n/a	0	0	0
1993108	REC_WORD	wordpools/wasnorm_wordpool_576.txt	LTP338	ltpFR2	4	10	HIKER	708	n/a	n/a	0	0	0
1994472	REC_WORD	wordpools/wasnorm_wordpool_576.txt	LTP338	ltpFR2	4	10	ARM	38	n/a	n/a	0	0	0
1996083	REC_WORD	wordpools/wasnorm_wordpool_576.txt	LTP338	ltpFR2	4	10	TURTLE	1522	n/a	n/a	0	0	0
1999322	REC_WORD	wordpools/wasnorm_wordpool_576.txt	LTP338	ltpFR2	4	10	CLOUD	328	n/a	n/a	0	0	0
2001122	REC_WORD	wordpools/wasnorm_wordpool_576.txt	LTP338	ltpFR2	4	10	TURNIP	1521	n/a	n/a	0	0	0
2002122	REC_WORD_VV	wordpools/wasnorm_wordpool_576.txt	LTP338	ltpFR2	4	10	<>	-1	n/a	n/a	0	0	0
2002663	REC_WORD	wordpools/wasnorm_wordpool_576.txt	LTP338	ltpFR2	4	10	LAKE	796	n/a	n/a	0	0	0
2004188	REC_WORD	wordpools/wasnorm_wordpool_576.txt	LTP338	ltpFR2	4	10	ISLAND	745	n/a	n/a	0	0	0
2005188	REC_WORD_VV	wordpools/wasnorm_wordpool_576.txt	LTP338	ltpFR2	4	10	<>	-1	n/a	n/a	0	0	0
2007942	REC_WORD	wordpools/wasnorm_wordpool_576.txt	LTP338	ltpFR2	4	10	SHARK	1275	n/a	n/a	0	0	0
2023495	REC_WORD_VV	wordpools/wasnorm_wordpool_576.txt	LTP338	ltpFR2	4	10	<>	-1	n/a	n/a	0	0	0
2050115	WORD	wordpools/wasnorm_wordpool_576.txt	LTP338	ltpFR2	4	11	DIVER	476	n/a	n/a	0	0	0
2052747	WORD	wordpools/wasnorm_wordpool_576.txt	LTP338	ltpFR2	4	11	CANAL	226	n/a	n/a	0	0	0
2055446	WORD	wordpools/wasnorm_wordpool_576.txt	LTP338	ltpFR2	4	11	TROMBONE	1508	n/a	n/a	0	0	0
2057945	WORD	wordpools/wasnorm_wordpool_576.txt	LTP338	ltpFR2	4	11	OUTFIT	988	n/a	n/a	0	0	0
2060644	WORD	wordpools/wasnorm_wordpool_576.txt	LTP338	ltpFR2	4	11	BRACES	164	n/a	n/a	0	0	0
2063175	WORD	wordpools/wasnorm_wordpool_576.txt	LTP338	ltpFR2	4	11	MARS	873	n/a	n/a	0	0	0
2065608	WORD	wordpools/wasnorm_wordpool_576.txt	LTP338	ltpFR2	4	11	LACE	792	n/a	n/a	0	0	0
2068222	WORD	wordpools/wasnorm_wordpool_576.txt	LTP338	ltpFR2	4	11	SHIRT	1287	n/a	n/a	0	0	0
2070805	WORD	wordpools/wasnorm_wordpool_576.txt	LTP338	ltpFR2	4	11	FARMER	553	n/a	n/a	0	0	0
2073504	WORD	wordpools/wasnorm_wordpool_576.txt	LTP338	ltpFR2	4	11	POLICE	1098	n/a	n/a	0	0	0
2076003	WORD	wordpools/wasnorm_wordpool_576.txt	LTP338	ltpFR2	4	11	RECEIPT	1173	n/a	n/a	0	0	0
2078451	WORD	wordpools/wasnorm_wordpool_576.txt	LTP338	ltpFR2	4	11	PERMIT	1051	n/a	n/a	0	0	0
2081216	WORD	wordpools/wasnorm_wordpool_576.txt	LTP338	ltpFR2	4	11	OUTLAW	989	n/a	n/a	0	0	0
2084015	WORD	wordpools/wasnorm_wordpool_576.txt	LTP338	ltpFR2	4	11	ICING	732	n/a	n/a	0	0	0
2086514	WORD	wordpools/wasnorm_wordpool_576.txt	LTP338	ltpFR2	4	11	SEAGULL	1261	n/a	n/a	0	0	0
2089145	WORD	wordpools/wasnorm_wordpool_576.txt	LTP338	ltpFR2	4	11	RUG	1215	n/a	n/a	0	0	0
2091761	WORD	wordpools/wasnorm_wordpool_576.txt	LTP338	ltpFR2	4	11	ROD	1203	n/a	n/a	0	0	0
2094359	WORD	wordpools/wasnorm_wordpool_576.txt	LTP338	ltpFR2	4	11	TRACTOR	1493	n/a	n/a	0	0	0
2096859	WORD	wordpools/wasnorm_wordpool_576.txt	LTP338	ltpFR2	4	11	CHIPMUNK	304	n/a	n/a	0	0	0
2099458	WORD	wordpools/wasnorm_wordpool_576.txt	LTP338	ltpFR2	4	11	MAMMAL	861	n/a	n/a	0	0	0
2102006	WORD	wordpools/wasnorm_wordpool_576.txt	LTP338	ltpFR2	4	11	PIANO	1057	n/a	n/a	0	0	0
2104722	WORD	wordpools/wasnorm_wordpool_576.txt	LTP338	ltpFR2	4	11	XEROX	1628	n/a	n/a	0	0	0
2107420	WORD	wordpools/wasnorm_wordpool_576.txt	LTP338	ltpFR2	4	11	BARREL	91	n/a	n/a	0	0	0
2110235	WORD	wordpools/wasnorm_wordpool_576.txt	LTP338	ltpFR2	4	11	MASK	876	n/a	n/a	0	0	0
2111852	START	n/a	LTP338	ltpFR2	4	n/a	n/a	n/a	16	n/a	n/a	n/a	n/a
2112814	DISTRACTOR	n/a	LTP338	ltpFR2	4	11	n/a	n/a	n/a	n/a	0	0	0
2112818	PROB	n/a	LTP338	ltpFR2	4	n/a	n/a	n/a	16	15	4	7	4
2115199	PROB	n/a	LTP338	ltpFR2	4	n/a	n/a	n/a	16	14	4	8	2
2117465	PROB	n/a	LTP338	ltpFR2	4	n/a	n/a	n/a	16	17	5	5	7
2118865	PROB	n/a	LTP338	ltpFR2	4	n/a	n/a	n/a	16	19	9	8	2
2120396	PROB	n/a	LTP338	ltpFR2	4	n/a	n/a	n/a	16	16	3	7	6
2122063	PROB	n/a	LTP338	ltpFR2	4	n/a	n/a	n/a	16	21	6	8	7
2126727	PROB	n/a	LTP338	ltpFR2	4	n/a	n/a	n/a	16	16	6	2	8
2128527	PROB	n/a	LTP338	ltpFR2	4	n/a	n/a	n/a	16	20	4	9	7
2131775	PROB	n/a	LTP338	ltpFR2	4	n/a	n/a	n/a	16	19	2	8	9
2133257	PROB	n/a	LTP338	ltpFR2	4	n/a	n/a	n/a	16	17	4	6	7
2134625	STOP	n/a	LTP338	ltpFR2	4	n/a	n/a	n/a	16	n/a	n/a	n/a	n/a
2137740	REC_START	n/a	LTP338	ltpFR2	4	11	n/a	n/a	n/a	n/a	0	0	0
2142914	REC_WORD	wordpools/wasnorm_wordpool_576.txt	LTP338	ltpFR2	4	11	OUTLAW	989	n/a	n/a	0	0	0
2143914	REC_WORD_VV	wordpools/wasnorm_wordpool_576.txt	LTP338	ltpFR2	4	11	<>	-1	n/a	n/a	0	0	0
2145498	REC_WORD	wordpools/wasnorm_wordpool_576.txt	LTP338	ltpFR2	4	11	PIANO	1057	n/a	n/a	0	0	0
2156628	REC_WORD	wordpools/wasnorm_wordpool_576.txt	LTP338	ltpFR2	4	11	MARS	873	n/a	n/a	0	0	0
2158541	REC_WORD	wordpools/wasnorm_wordpool_576.txt	LTP338	ltpFR2	4	11	OUTFIT	988	n/a	n/a	0	0	0
2163100	REC_WORD	wordpools/wasnorm_wordpool_576.txt	LTP338	ltpFR2	4	11	BRACES	164	n/a	n/a	0	0	0
2228193	WORD	wordpools/wasnorm_wordpool_576.txt	LTP338	ltpFR2	4	12	SCALLOP	1242	n/a	n/a	0	0	0
2230726	WORD	wordpools/wasnorm_wordpool_576.txt	LTP338	ltpFR2	4	12	FLIPPER	580	n/a	n/a	0	0	0
2233273	WORD	wordpools/wasnorm_wordpool_576.txt	LTP338	ltpFR2	4	12	TUBA	1515	n/a	n/a	0	0	0
2235757	WORD	wordpools/wasnorm_wordpool_576.txt	LTP338	ltpFR2	4	12	GRAPE	654	n/a	n/a	0	0	0
2238188	WORD	wordpools/wasnorm_wordpool_576.txt	LTP338	ltpFR2	4	12	EUROPE	541	n/a	n/a	0	0	0
2240871	WORD	wordpools/wasnorm_wordpool_576.txt	LTP338	ltpFR2	4	12	CROWN	415	n/a	n/a	0	0	0
2243402	WORD	wordpools/wasnorm_wordpool_576.txt	LTP338	ltpFR2	4	12	BOX	159	n/a	n/a	0	0	0
2246117	WORD	wordpools/wasnorm_wordpool_576.txt	LTP338	ltpFR2	4	12	PACKAGE	997	n/a	n/a	0	0	0
2248817	WORD	wordpools/wasnorm_wordpool_576.txt	LTP338	ltpFR2	4	12	AIRPLANE	12	n/a	n/a	0	0	0
2251532	WORD	wordpools/wasnorm_wordpool_576.txt	LTP338	ltpFR2	4	12	PATIENT	1024	n/a	n/a	0	0	0
2254230	WORD	wordpools/wasnorm_wordpool_576.txt	LTP338	ltpFR2	4	12	STAMP	1370	n/a	n/a	0	0	0
2256830	WORD	wordpools/wasnorm_wordpool_576.txt	LTP338	ltpFR2	4	12	OUTDOORS	987	n/a	n/a	0	0	0
2259462	WORD	wordpools/wasnorm_wordpool_576.txt	LTP338	ltpFR2	4	12	EXPERT	543	n/a	n/a	0	0	0
2262093	WORD	wordpools/wasnorm_wordpool_576.txt	LTP338	ltpFR2	4	12	DANDRUFF	439	n/a	n/a	0	0	0
2264726	WORD	wordpools/wasnorm_wordpool_576.txt	LTP338	ltpFR2	4	12	GANGSTER	620	n/a	n/a	0	0	0
2267357	WORD	wordpools/wasnorm_wordpool_576.txt	LTP338	ltpFR2	4	12	BULLET	194	n/a	n/a	0	0	0
2270089	WORD	wordpools/wasnorm_wordpool_576.txt	LTP338	ltpFR2	4	12	BRAKE	166	n/a	n/a	0	0	0
2272905	WORD	wordpools/wasnorm_wordpool_576.txt	LTP338	ltpFR2	4	12	CHAMPAGNE	278	n/a	n/a	0	0	0
2275604	WORD	wordpools/wasnorm_wordpool_576.txt	LTP338	ltpFR2	4	12	SHORTS	1293	n/a	n/a	0	0	0
2278251	WORD	wordpools/wasnorm_wordpool_576.txt	LTP338	ltpFR2	4	12	RATTLE	1170	n/a	n/a	0	0	0
2280968	WORD	wordpools/wasnorm_wordpool_576.txt	LTP338	ltpFR2	4	12	SMOG	1330	n/a	n/a	0	0	0
2283516	WORD	wordpools/wasnorm_wordpool_576.txt	LTP338	ltpFR2	4	12	LUMBER	848	n/a	n/a	0	0	0
2286032	WORD	wordpools/wasnorm_wordpool_576.txt	LTP338	ltpFR2	4	12	COUNTY	389	n/a	n/a	0	0	0
2288497	WORD	wordpools/wasnorm_wordpool_576.txt	LTP338	ltpFR2	4	12	BLOCKADE	137	n/a	n/a	0	0	0
2290112	START	n/a	LTP338	ltpFR2	4	n/a	n/a	n/a	17	n/a	n/a	n/a	n/a
2291281	DISTRACTOR	n/a	LTP338	ltpFR2	4	12	n/a	n/a	n/a	n/a	0	0	0
2291295	PROB	n/a	LTP338	ltpFR2	4	n/a	n/a	n/a	17	21	6	7	8
2293828	PROB	n/a	LTP338	ltpFR2	4	n/a	n/a	n/a	17	12	3	8	1
2295176	PROB	n/a	LTP338	ltpFR2	4	n/a	n/a	n/a	17	11	2	7	2
2297493	PROB	n/a	LTP338	ltpFR2	4	n/a	n/a	n/a	17	8	5	1	2
2300441	PROB	n/a	LTP338	ltpFR2	4	n/a	n/a	n/a	17	15	4	3	8
2302923	PROB	n/a	LTP338	ltpFR2	4	n/a	n/a	n/a	17	17	8	2	7
2304439	PROB	n/a	LTP338	ltpFR2	4	n/a	n/a	n/a	17	15	5	2	8
2306187	PROB	n/a	LTP338	ltpFR2	4	n/a	n/a	n/a	17	21	5	7	9
2310169	PROB	n/a	LTP338	ltpFR2	4	n/a	n/a	n/a	17	22	7	8	7
2313681	STOP	n/a	LTP338	ltpFR2	4	n/a	n/a	n/a	17	n/a	n/a	n/a	n/a
2316002	REC_START	n/a	LTP338	ltpFR2	4	12	n/a	n/a	n/a	n/a	0	0	0
2319869	REC_WORD	wordpools/wasnorm_wordpool_576.txt	LTP338	ltpFR2	4	12	CHAMPAGNE	278	n/a	n/a	0	0	0
2320869	REC_WORD_VV	wordpools/wasnorm_wordpool_576.txt	LTP338	ltpFR2	4	12	<>	-1	n/a	n/a	0	0	0
2321573	REC_WORD	wordpools/wasnorm_wordpool_576.txt	LTP338	ltpFR2	4	12	GRAPE	654	n/a	n/a	0	0	0
2322693	REC_WORD	wordpools/wasnorm_wordpool_576.txt	LTP338	ltpFR2	4	12	BULLET	194	n/a	n/a	0	0	0
2323898	REC_WORD	wordpools/wasnorm_wordpool_576.txt	LTP338	ltpFR2	4	12	DANDRUFF	439	n/a	n/a	0	0	0
2325024	REC_WORD	wordpools/wasnorm_wordpool_576.txt	LTP338	ltpFR2	4	12	GANGSTER	620	n/a	n/a	0	0	0
2326024	REC_WORD_VV	wordpools/wasnorm_wordpool_576.txt	LTP338	ltpFR2	4	12	<>	-1	n/a	n/a	0	0	0
2331730	REC_WORD	wordpools/wasnorm_wordpool_576.txt	LTP338	ltpFR2	4	12	PACKAGE	997	n/a	n/a	0	0	0
2406439	DISTRACTOR	n/a	LTP338	ltpFR2	4	13	n/a	n/a	n/a	n/a	0	0	0
2406439	START	n/a	LTP338	ltpFR2	4	n/a	n/a	n/a	18	n/a	n/a	n/a	n/a
2406455	PROB	n/a	LTP338	ltpFR2	4	n/a	n/a	n/a	18	20	6	7	7
2409021	PROB	n/a	LTP338	ltpFR2	4	n/a	n/a	n/a	18	17	9	2	6
2411119	PROB	n/a	LTP338	ltpFR2	4	n/a	n/a	n/a	18	20	7	8	5
2413167	PROB	n/a	LTP338	ltpFR2	4	n/a	n/a	n/a	18	18	7	7	4
2414884	PROB	n/a	LTP338	ltpFR2	4	n/a	n/a	n/a	18	12	5	2	5
2417232	PROB	n/a	LTP338	ltpFR2	4	n/a	n/a	n/a	18	12	6	4	2
2418849	PROB	n/a	LTP338	ltpFR2	4	n/a	n/a	n/a	18	15	3	3	9
2422363	PROB	n/a	LTP338	ltpFR2	4	n/a	n/a	n/a	18	12	2	6	4
2424629	PROB	n/a	LTP338	ltpFR2	4	n/a	n/a	n/a	18	14	5	2	7
2430438	STOP	n/a	LTP338	ltpFR2	4	n/a	n/a	n/a	18	n/a	n/a	n/a	n/a
2431392	WORD	wordpools/wasnorm_wordpool_576.txt	LTP338	ltpFR2	4	13	POISON	1096	n/a	n/a	0	0	0
2433842	WORD	wordpools/wasnorm_wordpool_576.txt	LTP338	ltpFR2	4	13	COBRA	336	n/a	n/a	0	0	0
2436389	WORD	wordpools/wasnorm_wordpool_576.txt	LTP338	ltpFR2	4	13	PLAZA	1088	n/a	n/a	0	0	0
2438822	WORD	wordpools/wasnorm_wordpool_576.txt	LTP338	ltpFR2	4	13	INMATE	738	n/a	n/a	0	0	0
2441354	WORD	wordpools/wasnorm_wordpool_576.txt	LTP338	ltpFR2	4	13	LAMP	798	n/a	n/a	0	0	0
2444070	WORD	wordpools/wasnorm_wordpool_576.txt	LTP338	ltpFR2	4	13	WAITER	1580	n/a	n/a	0	0	0
2446552	WORD	wordpools/wasnorm_wordpool_576.txt	LTP338	ltpFR2	4	13	BLACKBOARD	133	n/a	n/a	0	0	0
2449034	WORD	wordpools/wasnorm_wordpool_576.txt	LTP338	ltpFR2	4	13	SWITCH	1422	n/a	n/a	0	0	0
2451549	WORD	wordpools/wasnorm_wordpool_576.txt	LTP338	ltpFR2	4	13	MOTEL	919	n/a	n/a	0	0	0
2454230	WORD	wordpools/wasnorm_wordpool_576.txt	LTP338	ltpFR2	4	13	CYCLONE	431	n/a	n/a	0	0	0
2456947	WORD	wordpools/wasnorm_wordpool_576.txt	LTP338	ltpFR2	4	13	ORANGE	980	n/a	n/a	0	0	0
2459479	WORD	wordpools/wasnorm_wordpool_576.txt	LTP338	ltpFR2	4	13	CARROT	249	n/a	n/a	0	0	0
2462028	WORD	wordpools/wasnorm_wordpool_576.txt	LTP338	ltpFR2	4	13	GOBLIN	645	n/a	n/a	0	0	0
2464676	WORD	wordpools/wasnorm_wordpool_576.txt	LTP338	ltpFR2	4	13	SCISSORS	1250	n/a	n/a	0	0	0
2467274	WORD	wordpools/wasnorm_wordpool_576.txt	LTP338	ltpFR2	4	13	BUG	187	n/a	n/a	0	0	0
2470073	WORD	wordpools/wasnorm_wordpool_576.txt	LTP338	ltpFR2	4	13	PEDAL	1037	n/a	n/a	0	0	0
2472856	WORD	wordpools/wasnorm_wordpool_576.txt	LTP338	ltpFR2	4	13	VELVET	1555	n/a	n/a	0	0	0
2475588	WORD	wordpools/wasnorm_wordpool_576.txt	LTP338	ltpFR2	4	13	BOARD	143	n/a	n/a	0	0	0
2478269	WORD	wordpools/wasnorm_wordpool_576.txt	LTP338	ltpFR2	4	13	BACKBONE	66	n/a	n/a	0	0	0
2481051	WORD	wordpools/wasnorm_wordpool_576.txt	LTP338	ltpFR2	4	13	ROBBER	1197	n/a	n/a	0	0	0
2483750	WORD	wordpools/wasnorm_wordpool_576.txt	LTP338	ltpFR2	4	13	PLUTO	1092	n/a	n/a	0	0	0
2486381	WORD	wordpools/wasnorm_wordpool_576.txt	LTP338	ltpFR2	4	13	SANDWICH	1232	n/a	n/a	0	0	0
2488898	WORD	wordpools/wasnorm_wordpool_576.txt	LTP338	ltpFR2	4	13	CUSTARD	429	n/a	n/a	0	0	0
2491395	WORD	wordpools/wasnorm_wordpool_576.txt	LTP338	ltpFR2	4	13	BANQUET	86	n/a	n/a	0	0	0
2493012	START	n/a	LTP338	ltpFR2	4	n/a	n/a	n/a	19	n/a	n/a	n/a	n/a
2494133	DISTRACTOR	n/a	LTP338	ltpFR2	4	13	n/a	n/a	n/a	n/a	0	0	0
2494144	PROB	n/a	LTP338	ltpFR2	4	n/a	n/a	n/a	19	18	6	3	9
2495911	PROB	n/a	LTP338	ltpFR2	4	n/a	n/a	n/a	19	16	3	9	4
2498092	PROB	n/a	LTP338	ltpFR2	4	n/a	n/a	n/a	19	20	3	8	9
2500158	PROB	n/a	LTP338	ltpFR2	4	n/a	n/a	n/a	19	9	4	2	3
2502558	PROB	n/a	LTP338	ltpFR2	4	n/a	n/a	n/a	19	15	1	5	9
2505172	PROB	n/a	LTP338	ltpFR2	4	n/a	n/a	n/a	19	13	2	8	3
2506722	PROB	n/a	LTP338	ltpFR2	4	n/a	n/a	n/a	19	16	6	7	3
2508304	PROB	n/a	LTP338	ltpFR2	4	n/a	n/a	n/a	19	9	4	2	3
2510703	PROB	n/a	LTP338	ltpFR2	4	n/a	n/a	n/a	19	24	7	9	8
2517012	STOP	n/a	LTP338	ltpFR2	4	n/a	n/a	n/a	19	n/a	n/a	n/a	n/a
2518900	REC_START	n/a	LTP338	ltpFR2	4	13	n/a	n/a	n/a	n/a	0	0	0
2524850	REC_WORD	wordpools/wasnorm_wordpool_576.txt	LTP338	ltpFR2	4	13	BLACKBOARD	133	n/a	n/a	0	0	0
2525850	REC_WORD_VV	wordpools/wasnorm_wordpool_576.txt	LTP338	ltpFR2	4	13	<>	-1	n/a	n/a	0	0	0
2530567	REC_WORD	wordpools/wasnorm_wordpool_576.txt	LTP338	ltpFR2	4	13	POISON	1096	n/a	n/a	0	0	0
2531567	REC_WORD_VV	wordpools/wasnorm_wordpool_576.txt	LTP338	ltpFR2	4	13	<>	-1	n/a	n/a	0	0	0
2540825	REC_WORD	wordpools/wasnorm_wordpool_576.txt	LTP338	ltpFR2	4	13	BUG	187	n/a	n/a	0	0	0
2542386	REC_WORD_VV	wordpools/wasnorm_wordpool_576.txt	LTP338	ltpFR2	4	13	<>	-1	n/a	n/a	0	0	0
2542989	REC_WORD_VV	wordpools/wasnorm_wordpool_576.txt	LTP338	ltpFR2	4	13	<>	-1	n/a	n/a	0	0	0
2545164	REC_WORD	wordpools/wasnorm_wordpool_576.txt	LTP338	ltpFR2	4	13	CARROT	249	n/a	n/a	0	0	0
2552016	REC_WORD	wordpools/wasnorm_wordpool_576.txt	LTP338	ltpFR2	4	13	ORANGE	980	n/a	n/a	0	0	0
2555999	REC_WORD	wordpools/wasnorm_wordpool_576.txt	LTP338	ltpFR2	4	13	SCISSORS	1250	n/a	n/a	0	0	0
2556999	REC_WORD_VV	wordpools/wasnorm_wordpool_576.txt	LTP338	ltpFR2	4	13	<>	-1	n/a	n/a	0	0	0
2561721	REC_WORD_VV	wordpools/wasnorm_wordpool_576.txt	LTP338	ltpFR2	4	13	<>	-1	n/a	n/a	0	0	0
2609370	DISTRACTOR	n/a	LTP338	ltpFR2	4	14	n/a	n/a	n/a	n/a	0	0	0
2609370	START	n/a	LTP338	ltpFR2	4	n/a	n/a	n/a	20	n/a	n/a	n/a	n/a
2609387	PROB	n/a	LTP338	ltpFR2	4	n/a	n/a	n/a	20	14	7	3	4
2611086	PROB	n/a	LTP338	ltpFR2	4	n/a	n/a	n/a	20	9	5	2	2
2613069	PROB	n/a	LTP338	ltpFR2	4	n/a	n/a	n/a	20	18	6	5	7
2615167	PROB	n/a	LTP338	ltpFR2	4	n/a	n/a	n/a	20	9	2	5	2
2617051	PROB	n/a	LTP338	ltpFR2	4	n/a	n/a	n/a	20	18	4	5	9
2618716	PROB	n/a	LTP338	ltpFR2	4	n/a	n/a	n/a	20	21	3	9	9
2621065	PROB	n/a	LTP338	ltpFR2	4	n/a	n/a	n/a	20	12	1	8	3
2623163	PROB	n/a	LTP338	ltpFR2	4	n/a	n/a	n/a	20	18	4	5	9
2624813	PROB	n/a	LTP338	ltpFR2	4	n/a	n/a	n/a	20	9	4	2	3
2626946	PROB	n/a	LTP338	ltpFR2	4	n/a	n/a	n/a	20	14	9	1	4
2628578	PROB	n/a	LTP338	ltpFR2	4	n/a	n/a	n/a	20	10	5	1	4
2633369	STOP	n/a	LTP338	ltpFR2	4	n/a	n/a	n/a	20	n/a	n/a	n/a	n/a
2634409	WORD	wordpools/wasnorm_wordpool_576.txt	LTP338	ltpFR2	4	14	IGLOO	734	n/a	n/a	0	0	0
2637106	WORD	wordpools/wasnorm_wordpool_576.txt	LTP338	ltpFR2	4	14	KLEENEX	782	n/a	n/a	0	0	0
2639756	WORD	wordpools/wasnorm_wordpool_576.txt	LTP338	ltpFR2	4	14	SERVER	1272	n/a	n/a	0	0	0
2642370	WORD	wordpools/wasnorm_wordpool_576.txt	LTP338	ltpFR2	4	14	MARSH	874	n/a	n/a	0	0	0
2645119	WORD	wordpools/wasnorm_wordpool_576.txt	LTP338	ltpFR2	4	14	AWARD	63	n/a	n/a	0	0	0
2647802	WORD	wordpools/wasnorm_wordpool_576.txt	LTP338	ltpFR2	4	14	GRAVEL	659	n/a	n/a	0	0	0
2650300	WORD	wordpools/wasnorm_wordpool_576.txt	LTP338	ltpFR2	4	14	COD	340	n/a	n/a	0	0	0
2652833	WORD	wordpools/wasnorm_wordpool_576.txt	LTP338	ltpFR2	4	14	MEDAL	885	n/a	n/a	0	0	0
2655297	WORD	wordpools/wasnorm_wordpool_576.txt	LTP338	ltpFR2	4	14	HERO	706	n/a	n/a	0	0	0
2658096	WORD	wordpools/wasnorm_wordpool_576.txt	LTP338	ltpFR2	4	14	PRINCE	1124	n/a	n/a	0	0	0
2660696	WORD	wordpools/wasnorm_wordpool_576.txt	LTP338	ltpFR2	4	14	VAGRANT	1544	n/a	n/a	0	0	0
2663227	WORD	wordpools/wasnorm_wordpool_576.txt	LTP338	ltpFR2	4	14	SCARF	1246	n/a	n/a	0	0	0
2665843	WORD	wordpools/wasnorm_wordpool_576.txt	LTP338	ltpFR2	4	14	STREAM	1392	n/a	n/a	0	0	0
2668374	WORD	wordpools/wasnorm_wordpool_576.txt	LTP338	ltpFR2	4	14	LIZARD	834	n/a	n/a	0	0	0
2671156	WORD	wordpools/wasnorm_wordpool_576.txt	LTP338	ltpFR2	4	14	CONCERT	360	n/a	n/a	0	0	0
2673922	WORD	wordpools/wasnorm_wordpool_576.txt	LTP338	ltpFR2	4	14	FRANCE	601	n/a	n/a	0	0	0
2676538	WORD	wordpools/wasnorm_wordpool_576.txt	LTP338	ltpFR2	4	14	FREEZER	604	n/a	n/a	0	0	0
2679285	WORD	wordpools/wasnorm_wordpool_576.txt	LTP338	ltpFR2	4	14	JELLO	754	n/a	n/a	0	0	0
2682018	WORD	wordpools/wasnorm_wordpool_576.txt	LTP338	ltpFR2	4	14	PUDDING	1139	n/a	n/a	0	0	0
2684667	WORD	wordpools/wasnorm_wordpool_576.txt	LTP338	ltpFR2	4	14	PIZZA	1079	n/a	n/a	0	0	0
2687348	WORD	wordpools/wasnorm_wordpool_576.txt	LTP338	ltpFR2	4	14	LUNCH	849	n/a	n/a	0	0	0
2690031	WORD	wordpools/wasnorm_wordpool_576.txt	LTP338	ltpFR2	4	14	COOKBOOK	373	n/a	n/a	0	0	0
2692763	WORD	wordpools/wasnorm_wordpool_576.txt	LTP338	ltpFR2	4	14	SALAD	1224	n/a	n/a	0	0	0
2695244	WORD	wordpools/wasnorm_wordpool_576.txt	LTP338	ltpFR2	4	14	GRILL	661	n/a	n/a	0	0	0
2696861	START	n/a	LTP338	ltpFR2	4	n/a	n/a	n/a	21	n/a	n/a	n/a	n/a
2697894	DISTRACTOR	n/a	LTP338	ltpFR2	4	14	n/a	n/a	n/a	n/a	0	0	0
2697910	PROB	n/a	LTP338	ltpFR2	4	n/a	n/a	n/a	21	10	7	2	1
2699760	PROB	n/a	LTP338	ltpFR2	4	n/a	n/a	n/a	21	9	4	2	3
2702708	PROB	n/a	LTP338	ltpFR2	4	n/a	n/a	n/a	21	8	1	4	3
2704491	PROB	n/a	LTP338	ltpFR2	4	n/a	n/a	n/a	21	19	8	7	4
2706756	PROB	n/a	LTP338	ltpFR2	4	n/a	n/a	n/a	21	22	8	6	8
2709938	PROB	n/a	LTP338	ltpFR2	4	n/a	n/a	n/a	21	21	3	9	9
2712836	PROB	n/a	LTP338	ltpFR2	4	n/a	n/a	n/a	21	13	4	3	6
2717133	PROB	n/a	LTP338	ltpFR2	4	n/a	n/a	n/a	21	6	2	1	3
2719320	STOP	n/a	LTP338	ltpFR2	4	n/a	n/a	n/a	21	n/a	n/a	n/a	n/a
2722782	REC_START	n/a	LTP338	ltpFR2	4	14	n/a	n/a	n/a	n/a	0	0	0
2724346	REC_WORD	wordpools/wasnorm_wordpool_576.txt	LTP338	ltpFR2	4	14	IGLOO	734	n/a	n/a	0	0	0
2727454	REC_WORD	wordpools/wasnorm_wordpool_576.txt	LTP338	ltpFR2	4	14	SCARF	1246	n/a	n/a	0	0	0
2728353	REC_WORD	wordpools/wasnorm_wordpool_576.txt	LTP338	ltpFR2	4	14	GRAVEL	659	n/a	n/a	0	0	0
2729353	REC_WORD_VV	wordpools/wasnorm_wordpool_576.txt	LTP338	ltpFR2	4	14	<>	-1	n/a	n/a	0	0	0
2741019	REC_WORD	wordpools/wasnorm_wordpool_576.txt	LTP338	ltpFR2	4	14	HERO	706	n/a	n/a	0	0	0
2742496	REC_WORD	wordpools/wasnorm_wordpool_576.txt	LTP338	ltpFR2	4	14	PRINCE	1124	n/a	n/a	0	0	0
2743675	REC_WORD	wordpools/wasnorm_wordpool_576.txt	LTP338	ltpFR2	4	14	VAGRANT	1544	n/a	n/a	0	0	0
2745321	REC_WORD	wordpools/wasnorm_wordpool_576.txt	LTP338	ltpFR2	4	14	COD	340	n/a	n/a	0	0	0
2813219	DISTRACTOR	n/a	LTP338	ltpFR2	4	15	n/a	n/a	n/a	n/a	0	0	0
2813219	START	n/a	LTP338	ltpFR2	4	n/a	n/a	n/a	22	n/a	n/a	n/a	n/a
2813236	PROB	n/a	LTP338	ltpFR2	4	n/a	n/a	n/a	22	18	8	9	1
2818651	PROB	n/a	LTP338	ltpFR2	4	n/a	n/a	n/a	22	16	3	9	4
2821482	PROB	n/a	LTP338	ltpFR2	4	n/a	n/a	n/a	22	15	3	8	4
2823114	PROB	n/a	LTP338	ltpFR2	4	n/a	n/a	n/a	22	18	5	8	5
2824698	PROB	n/a	LTP338	ltpFR2	4	n/a	n/a	n/a	22	10	4	3	3
2826513	PROB	n/a	LTP338	ltpFR2	4	n/a	n/a	n/a	22	13	3	6	4
2828128	PROB	n/a	LTP338	ltpFR2	4	n/a	n/a	n/a	22	18	6	4	8
2829612	PROB	n/a	LTP338	ltpFR2	4	n/a	n/a	n/a	22	18	6	6	6
2832259	PROB	n/a	LTP338	ltpFR2	4	n/a	n/a	n/a	22	18	1	9	8
2834108	PROB	n/a	LTP338	ltpFR2	4	n/a	n/a	n/a	22	14	4	9	1
2836248	STOP	n/a	LTP338	ltpFR2	4	n/a	n/a	n/a	22	n/a	n/a	n/a	n/a
2838306	WORD	wordpools/wasnorm_wordpool_576.txt	LTP338	ltpFR2	4	15	WRIST	1626	n/a	n/a	0	0	0
2840973	WORD	wordpools/wasnorm_wordpool_576.txt	LTP338	ltpFR2	4	15	COCKTAIL	338	n/a	n/a	0	0	0
2843455	WORD	wordpools/wasnorm_wordpool_576.txt	LTP338	ltpFR2	4	15	ROCKET	1202	n/a	n/a	0	0	0
2846054	WORD	wordpools/wasnorm_wordpool_576.txt	LTP338	ltpFR2	4	15	BRIEFCASE	175	n/a	n/a	0	0	0
2848586	WORD	wordpools/wasnorm_wordpool_576.txt	LTP338	ltpFR2	4	15	COTTAGE	384	n/a	n/a	0	0	0
2851068	WORD	wordpools/wasnorm_wordpool_576.txt	LTP338	ltpFR2	4	15	GLOVE	642	n/a	n/a	0	0	0
2853566	WORD	wordpools/wasnorm_wordpool_576.txt	LTP338	ltpFR2	4	15	TUTU	1524	n/a	n/a	0	0	0
2856032	WORD	wordpools/wasnorm_wordpool_576.txt	LTP338	ltpFR2	4	15	BINDER	127	n/a	n/a	0	0	0
2858481	WORD	wordpools/wasnorm_wordpool_576.txt	LTP338	ltpFR2	4	15	CLAM	315	n/a	n/a	0	0	0
2861063	WORD	wordpools/wasnorm_wordpool_576.txt	LTP338	ltpFR2	4	15	CANYON	235	n/a	n/a	0	0	0
2863778	WORD	wordpools/wasnorm_wordpool_576.txt	LTP338	ltpFR2	4	15	BEEF	113	n/a	n/a	0	0	0
2866443	WORD	wordpools/wasnorm_wordpool_576.txt	LTP338	ltpFR2	4	15	BUTCHER	203	n/a	n/a	0	0	0
2868892	WORD	wordpools/wasnorm_wordpool_576.txt	LTP338	ltpFR2	4	15	WASP	1593	n/a	n/a	0	0	0
2871408	WORD	wordpools/wasnorm_wordpool_576.txt	LTP338	ltpFR2	4	15	TERMITE	1451	n/a	n/a	0	0	0
2874089	WORD	wordpools/wasnorm_wordpool_576.txt	LTP338	ltpFR2	4	15	DRINK	498	n/a	n/a	0	0	0
2876522	WORD	wordpools/wasnorm_wordpool_576.txt	LTP338	ltpFR2	4	15	BLOUSE	139	n/a	n/a	0	0	0
2879136	WORD	wordpools/wasnorm_wordpool_576.txt	LTP338	ltpFR2	4	15	BURGLAR	200	n/a	n/a	0	0	0
2881919	WORD	wordpools/wasnorm_wordpool_576.txt	LTP338	ltpFR2	4	15	PARSLEY	1016	n/a	n/a	0	0	0
2884501	WORD	wordpools/wasnorm_wordpool_576.txt	LTP338	ltpFR2	4	15	JELLY	755	n/a	n/a	0	0	0
2887232	WORD	wordpools/wasnorm_wordpool_576.txt	LTP338	ltpFR2	4	15	HOOD	714	n/a	n/a	0	0	0
2889948	WORD	wordpools/wasnorm_wordpool_576.txt	LTP338	ltpFR2	4	15	TAXI	1438	n/a	n/a	0	0	0
2892497	WORD	wordpools/wasnorm_wordpool_576.txt	LTP338	ltpFR2	4	15	MOTOR	922	n/a	n/a	0	0	0
2895228	WORD	wordpools/wasnorm_wordpool_576.txt	LTP338	ltpFR2	4	15	PASTA	1021	n/a	n/a	0	0	0
2897928	WORD	wordpools/wasnorm_wordpool_576.txt	LTP338	ltpFR2	4	15	GARBAGE	622	n/a	n/a	0	0	0
2899544	START	n/a	LTP338	ltpFR2	4	n/a	n/a	n/a	23	n/a	n/a	n/a	n/a
2900357	DISTRACTOR	n/a	LTP338	ltpFR2	4	15	n/a	n/a	n/a	n/a	0	0	0
2900359	PROB	n/a	LTP338	ltpFR2	4	n/a	n/a	n/a	23	11	2	4	5
2902625	PROB	n/a	LTP338	ltpFR2	4	n/a	n/a	n/a	23	16	5	7	4
2905058	PROB	n/a	LTP338	ltpFR2	4	n/a	n/a	n/a	23	17	6	7	4
2907289	PROB	n/a	LTP338	ltpFR2	4	n/a	n/a	n/a	23	20	5	8	7
2909705	PROB	n/a	LTP338	ltpFR2	4	n/a	n/a	n/a	23	14	9	3	2
2911904	PROB	n/a	LTP338	ltpFR2	4	n/a	n/a	n/a	23	7	3	1	3
2913987	PROB	n/a	LTP338	ltpFR2	4	n/a	n/a	n/a	23	9	4	2	3
2916168	PROB	n/a	LTP338	ltpFR2	4	n/a	n/a	n/a	23	17	8	2	7
2917901	PROB	n/a	LTP338	ltpFR2	4	n/a	n/a	n/a	23	13	3	1	9
2923544	STOP	n/a	LTP338	ltpFR2	4	n/a	n/a	n/a	23	n/a	n/a	n/a	n/a
2925465	REC_START	n/a	LTP338	ltpFR2	4	15	n/a	n/a	n/a	n/a	0	0	0
2927029	REC_WORD	wordpools/wasnorm_wordpool_576.txt	LTP338	ltpFR2	4	15	WRIST	1626	n/a	n/a	0	0	0
2928085	REC_WORD	wordpools/wasnorm_wordpool_576.txt	LTP338	ltpFR2	4	15	COCKTAIL	338	n/a	n/a	0	0	0
2930610	REC_WORD	wordpools/wasnorm_wordpool_576.txt	LTP338	ltpFR2	4	15	BRIEFCASE	175	n/a	n/a	0	0	0
2931610	REC_WORD_VV	wordpools/wasnorm_wordpool_576.txt	LTP338	ltpFR2	4	15	<>	-1	n/a	n/a	0	0	0
2931815	REC_WORD	wordpools/wasnorm_wordpool_576.txt	LTP338	ltpFR2	4	15	ROCKET	1202	n/a	n/a	0	0	0
2933214	REC_WORD	wordpools/wasnorm_wordpool_576.txt	LTP338	ltpFR2	4	15	BLOUSE	139	n/a	n/a	0	0	0
2934479	REC_WORD	wordpools/wasnorm_wordpool_576.txt	LTP338	ltpFR2	4	15	PARSLEY	1016	n/a	n/a	0	0	0
2935588	REC_WORD	wordpools/wasnorm_wordpool_576.txt	LTP338	ltpFR2	4	15	JELLY	755	n/a	n/a	0	0	0
2937117	REC_WORD	wordpools/wasnorm_wordpool_576.txt	LTP338	ltpFR2	4	15	CANYON	235	n/a	n/a	0	0	0
2939989	REC_WORD	wordpools/wasnorm_wordpool_576.txt	LTP338	ltpFR2	4	15	BEEF	113	n/a	n/a	0	0	0
2941086	REC_WORD	wordpools/wasnorm_wordpool_576.txt	LTP338	ltpFR2	4	15	BUTCHER	203	n/a	n/a	0	0	0
2941934	REC_WORD	wordpools/wasnorm_wordpool_576.txt	LTP338	ltpFR2	4	15	WASP	1593	n/a	n/a	0	0	0
2943206	REC_WORD	wordpools/wasnorm_wordpool_576.txt	LTP338	ltpFR2	4	15	TERMITE	1451	n/a	n/a	0	0	0
3015902	DISTRACTOR	n/a	LTP338	ltpFR2	4	16	n/a	n/a	n/a	n/a	0	0	0
3015903	START	n/a	LTP338	ltpFR2	4	n/a	n/a	n/a	24	n/a	n/a	n/a	n/a
3015919	PROB	n/a	LTP338	ltpFR2	4	n/a	n/a	n/a	24	14	2	5	7
3018668	PROB	n/a	LTP338	ltpFR2	4	n/a	n/a	n/a	24	8	1	3	4
3020283	PROB	n/a	LTP338	ltpFR2	4	n/a	n/a	n/a	24	15	7	5	3
3022699	PROB	n/a	LTP338	ltpFR2	4	n/a	n/a	n/a	24	19	3	9	7
3025364	PROB	n/a	LTP338	ltpFR2	4	n/a	n/a	n/a	24	7	5	1	1
3026781	PROB	n/a	LTP338	ltpFR2	4	n/a	n/a	n/a	24	16	5	4	7
3030062	PROB	n/a	LTP338	ltpFR2	4	n/a	n/a	n/a	24	12	5	2	5
3032911	PROB	n/a	LTP338	ltpFR2	4	n/a	n/a	n/a	24	12	5	3	4
3036592	PROB	n/a	LTP338	ltpFR2	4	n/a	n/a	n/a	24	8	3	1	4
3039903	STOP	n/a	LTP338	ltpFR2	4	n/a	n/a	n/a	24	n/a	n/a	n/a	n/a
3040807	WORD	wordpools/wasnorm_wordpool_576.txt	LTP338	ltpFR2	4	16	PILOT	1070	n/a	n/a	0	0	0
3043388	WORD	wordpools/wasnorm_wordpool_576.txt	LTP338	ltpFR2	4	16	TRANSPLANT	1496	n/a	n/a	0	0	0
3046038	WORD	wordpools/wasnorm_wordpool_576.txt	LTP338	ltpFR2	4	16	FEMALE	559	n/a	n/a	0	0	0
3048703	WORD	wordpools/wasnorm_wordpool_576.txt	LTP338	ltpFR2	4	16	KITCHEN	778	n/a	n/a	0	0	0
3051334	WORD	wordpools/wasnorm_wordpool_576.txt	LTP338	ltpFR2	4	16	ANTLER	29	n/a	n/a	0	0	0
3053917	WORD	wordpools/wasnorm_wordpool_576.txt	LTP338	ltpFR2	4	16	WOMAN	1620	n/a	n/a	0	0	0
3056365	WORD	wordpools/wasnorm_wordpool_576.txt	LTP338	ltpFR2	4	16	PATROL	1027	n/a	n/a	0	0	0
3059080	WORD	wordpools/wasnorm_wordpool_576.txt	LTP338	ltpFR2	4	16	ULCER	1533	n/a	n/a	0	0	0
3061547	WORD	wordpools/wasnorm_wordpool_576.txt	LTP338	ltpFR2	4	16	BARLEY	88	n/a	n/a	0	0	0
3064144	WORD	wordpools/wasnorm_wordpool_576.txt	LTP338	ltpFR2	4	16	GRIZZLY	662	n/a	n/a	0	0	0
3066611	WORD	wordpools/wasnorm_wordpool_576.txt	LTP338	ltpFR2	4	16	POSSUM	1112	n/a	n/a	0	0	0
3069125	WORD	wordpools/wasnorm_wordpool_576.txt	LTP338	ltpFR2	4	16	GRAVE	658	n/a	n/a	0	0	0
3071725	WORD	wordpools/wasnorm_wordpool_576.txt	LTP338	ltpFR2	4	16	CHAPEL	280	n/a	n/a	0	0	0
3074239	WORD	wordpools/wasnorm_wordpool_576.txt	LTP338	ltpFR2	4	16	NEUTRON	947	n/a	n/a	0	0	0
3076789	WORD	wordpools/wasnorm_wordpool_576.txt	LTP338	ltpFR2	4	16	COUNTRY	388	n/a	n/a	0	0	0
3079454	WORD	wordpools/wasnorm_wordpool_576.txt	LTP338	ltpFR2	4	16	ASIA	46	n/a	n/a	0	0	0
3082219	WORD	wordpools/wasnorm_wordpool_576.txt	LTP338	ltpFR2	4	16	SHERIFF	1284	n/a	n/a	0	0	0
3084835	WORD	wordpools/wasnorm_wordpool_576.txt	LTP338	ltpFR2	4	16	CABBAGE	210	n/a	n/a	0	0	0
3087266	WORD	wordpools/wasnorm_wordpool_576.txt	LTP338	ltpFR2	4	16	HEADBAND	696	n/a	n/a	0	0	0
3089816	WORD	wordpools/wasnorm_wordpool_576.txt	LTP338	ltpFR2	4	16	TORTOISE	1486	n/a	n/a	0	0	0
3092431	WORD	wordpools/wasnorm_wordpool_576.txt	LTP338	ltpFR2	4	16	PUDDLE	1140	n/a	n/a	0	0	0
3094913	WORD	wordpools/wasnorm_wordpool_576.txt	LTP338	ltpFR2	4	16	SLUG	1329	n/a	n/a	0	0	0
3097512	WORD	wordpools/wasnorm_wordpool_576.txt	LTP338	ltpFR2	4	16	COLLEGE	346	n/a	n/a	0	0	0
3100193	WORD	wordpools/wasnorm_wordpool_576.txt	LTP338	ltpFR2	4	16	STUDENT	1395	n/a	n/a	0	0	0
3101810	START	n/a	LTP338	ltpFR2	4	n/a	n/a	n/a	25	n/a	n/a	n/a	n/a
3102919	DISTRACTOR	n/a	LTP338	ltpFR2	4	16	n/a	n/a	n/a	n/a	0	0	0
3102926	PROB	n/a	LTP338	ltpFR2	4	n/a	n/a	n/a	25	12	1	9	2
3105658	PROB	n/a	LTP338	ltpFR2	4	n/a	n/a	n/a	25	12	8	1	3
3107607	PROB	n/a	LTP338	ltpFR2	4	n/a	n/a	n/a	25	22	9	6	7
3112071	PROB	n/a	LTP338	ltpFR2	4	n/a	n/a	n/a	25	10	5	3	2
3114054	PROB	n/a	LTP338	ltpFR2	4	n/a	n/a	n/a	25	22	8	6	8
3116036	PROB	n/a	LTP338	ltpFR2	4	n/a	n/a	n/a	25	20	5	9	6
3118435	PROB	n/a	LTP338	ltpFR2	4	n/a	n/a	n/a	25	7	1	3	3
3120051	PROB	n/a	LTP338	ltpFR2	4	n/a	n/a	n/a	25	18	8	2	8
3125809	STOP	n/a	LTP338	ltpFR2	4	n/a	n/a	n/a	25	n/a	n/a	n/a	n/a
3127681	REC_START	n/a	LTP338	ltpFR2	4	16	n/a	n/a	n/a	n/a	0	0	0
3130105	REC_WORD	wordpools/wasnorm_wordpool_576.txt	LTP338	ltpFR2	4	16	PILOT	1070	n/a	n/a	0	0	0
3131286	REC_WORD	wordpools/wasnorm_wordpool_576.txt	LTP338	ltpFR2	4	16	TRANSPLANT	1496	n/a	n/a	0	0	0
3132286	REC_WORD_VV	wordpools/wasnorm_wordpool_576.txt	LTP338	ltpFR2	4	16	<>	-1	n/a	n/a	0	0	0
3133813	REC_WORD	wordpools/wasnorm_wordpool_576.txt	LTP338	ltpFR2	4	16	ULCER	1533	n/a	n/a	0	0	0
3135208	REC_WORD	wordpools/wasnorm_wordpool_576.txt	LTP338	ltpFR2	4	16	GRIZZLY	662	n/a	n/a	0	0	0
3136208	REC_WORD_VV	wordpools/wasnorm_wordpool_576.txt	LTP338	ltpFR2	4	16	<>	-1	n/a	n/a	0	0	0
3140123	REC_WORD	wordpools/wasnorm_wordpool_576.txt	LTP338	ltpFR2	4	16	FEMALE	559	n/a	n/a	0	0	0
3141123	REC_WORD_VV	wordpools/wasnorm_wordpool_576.txt	LTP338	ltpFR2	4	16	<>	-1	n/a	n/a	0	0	0
3141501	REC_WORD	wordpools/wasnorm_wordpool_576.txt	LTP338	ltpFR2	4	16	WOMAN	1620	n/a	n/a	0	0	0
3142451	REC_WORD	wordpools/wasnorm_wordpool_576.txt	LTP338	ltpFR2	4	16	PATROL	1027	n/a	n/a	0	0	0
3144466	REC_WORD	wordpools/wasnorm_wordpool_576.txt	LTP338	ltpFR2	4	16	POSSUM	1112	n/a	n/a	0	0	0
3204225	REST_REWET	n/a	LTP338	ltpFR2	4	16	n/a	n/a	n/a	n/a	0	0	0
3292565	DISTRACTOR	n/a	LTP338	ltpFR2	4	17	n/a	n/a	n/a	n/a	0	0	0
3292565	START	n/a	LTP338	ltpFR2	4	n/a	n/a	n/a	26	n/a	n/a	n/a	n/a
3292582	PROB	n/a	LTP338	ltpFR2	4	n/a	n/a	n/a	26	15	3	3	9
3298679	PROB	n/a	LTP338	ltpFR2	4	n/a	n/a	n/a	26	13	8	1	4
3301944	PROB	n/a	LTP338	ltpFR2	4	n/a	n/a	n/a	26	19	9	9	1
3303926	PROB	n/a	LTP338	ltpFR2	4	n/a	n/a	n/a	26	11	6	4	1
3305759	PROB	n/a	LTP338	ltpFR2	4	n/a	n/a	n/a	26	19	6	7	6
3307824	PROB	n/a	LTP338	ltpFR2	4	n/a	n/a	n/a	26	23	9	5	9
3311105	PROB	n/a	LTP338	ltpFR2	4	n/a	n/a	n/a	26	19	3	8	7
3316565	STOP	n/a	LTP338	ltpFR2	4	n/a	n/a	n/a	26	n/a	n/a	n/a	n/a
3317753	WORD	wordpools/wasnorm_wordpool_576.txt	LTP338	ltpFR2	4	17	JUDGE	761	n/a	n/a	0	0	0
3320501	WORD	wordpools/wasnorm_wordpool_576.txt	LTP338	ltpFR2	4	17	MILDEW	893	n/a	n/a	0	0	0
3323182	WORD	wordpools/wasnorm_wordpool_576.txt	LTP338	ltpFR2	4	17	FUNGUS	614	n/a	n/a	0	0	0
3325699	WORD	wordpools/wasnorm_wordpool_576.txt	LTP338	ltpFR2	4	17	LION	827	n/a	n/a	0	0	0
3328447	WORD	wordpools/wasnorm_wordpool_576.txt	LTP338	ltpFR2	4	17	VALVE	1546	n/a	n/a	0	0	0
3331178	WORD	wordpools/wasnorm_wordpool_576.txt	LTP338	ltpFR2	4	17	DRAWING	494	n/a	n/a	0	0	0
3333878	WORD	wordpools/wasnorm_wordpool_576.txt	LTP338	ltpFR2	4	17	PORK	1108	n/a	n/a	0	0	0
3336410	WORD	wordpools/wasnorm_wordpool_576.txt	LTP338	ltpFR2	4	17	EGYPT	519	n/a	n/a	0	0	0
3339074	WORD	wordpools/wasnorm_wordpool_576.txt	LTP338	ltpFR2	4	17	OMELET	976	n/a	n/a	0	0	0
3341857	WORD	wordpools/wasnorm_wordpool_576.txt	LTP338	ltpFR2	4	17	YOLK	1633	n/a	n/a	0	0	0
3344556	WORD	wordpools/wasnorm_wordpool_576.txt	LTP338	ltpFR2	4	17	SUNSET	1408	n/a	n/a	0	0	0
3347187	WORD	wordpools/wasnorm_wordpool_576.txt	LTP338	ltpFR2	4	17	MACHINE	852	n/a	n/a	0	0	0
3349754	WORD	wordpools/wasnorm_wordpool_576.txt	LTP338	ltpFR2	4	17	SAUSAGE	1238	n/a	n/a	0	0	0
3352268	WORD	wordpools/wasnorm_wordpool_576.txt	LTP338	ltpFR2	4	17	TOURIST	1488	n/a	n/a	0	0	0
3355034	WORD	wordpools/wasnorm_wordpool_576.txt	LTP338	ltpFR2	4	17	SUSPECT	1415	n/a	n/a	0	0	0
3357616	WORD	wordpools/wasnorm_wordpool_576.txt	LTP338	ltpFR2	4	17	MAPLE	866	n/a	n/a	0	0	0
3360065	WORD	wordpools/wasnorm_wordpool_576.txt	LTP338	ltpFR2	4	17	FOREST	593	n/a	n/a	0	0	0
3362764	WORD	wordpools/wasnorm_wordpool_576.txt	LTP338	ltpFR2	4	17	PORTRAIT	1111	n/a	n/a	0	0	0
3365345	WORD	wordpools/wasnorm_wordpool_576.txt	LTP338	ltpFR2	4	17	CLIMBER	323	n/a	n/a	0	0	0
3367928	WORD	wordpools/wasnorm_wordpool_576.txt	LTP338	ltpFR2	4	17	WAGON	1578	n/a	n/a	0	0	0
3370376	WORD	wordpools/wasnorm_wordpool_576.txt	LTP338	ltpFR2	4	17	FLEET	578	n/a	n/a	0	0	0
3373157	WORD	wordpools/wasnorm_wordpool_576.txt	LTP338	ltpFR2	4	17	SUNRISE	1407	n/a	n/a	0	0	0
3375974	WORD	wordpools/wasnorm_wordpool_576.txt	LTP338	ltpFR2	4	17	MARROW	872	n/a	n/a	0	0	0
3378572	WORD	wordpools/wasnorm_wordpool_576.txt	LTP338	ltpFR2	4	17	PICTURE	1061	n/a	n/a	0	0	0
3380187	START	n/a	LTP338	ltpFR2	4	n/a	n/a	n/a	27	n/a	n/a	n/a	n/a
3381243	DISTRACTOR	n/a	LTP338	ltpFR2	4	17	n/a	n/a	n/a	n/a	0	0	0
3381254	PROB	n/a	LTP338	ltpFR2	4	n/a	n/a	n/a	27	14	6	5	3
3385769	PROB	n/a	LTP338	ltpFR2	4	n/a	n/a	n/a	27	14	5	3	6
3388100	PROB	n/a	LTP338	ltpFR2	4	n/a	n/a	n/a	27	13	3	2	8
3392148	PROB	n/a	LTP338	ltpFR2	4	n/a	n/a	n/a	27	18	6	7	3
3395080	PROB	n/a	LTP338	ltpFR2	4	n/a	n/a	n/a	27	13	5	4	4
3398529	PROB	n/a	LTP338	ltpFR2	4	n/a	n/a	n/a	27	18	6	6	6
3404187	STOP	n/a	LTP338	ltpFR2	4	n/a	n/a	n/a	27	n/a	n/a	n/a	n/a
3406009	REC_START	n/a	LTP338	ltpFR2	4	17	n/a	n/a	n/a	n/a	0	0	0
3410907	REC_WORD	wordpools/wasnorm_wordpool_576.txt	LTP338	ltpFR2	4	17	JUDGE	761	n/a	n/a	0	0	0
3411784	REC_WORD	wordpools/wasnorm_wordpool_576.txt	LTP338	ltpFR2	4	17	MILDEW	893	n/a	n/a	0	0	0
3412649	REC_WORD	wordpools/wasnorm_wordpool_576.txt	LTP338	ltpFR2	4	17	FUNGUS	614	n/a	n/a	0	0	0
3414720	REC_WORD	wordpools/wasnorm_wordpool_576.txt	LTP338	ltpFR2	4	17	PORK	1108	n/a	n/a	0	0	0
3415494	REC_WORD	wordpools/wasnorm_wordpool_576.txt	LTP338	ltpFR2	4	17	EGYPT	519	n/a	n/a	0	0	0
3416368	REC_WORD	wordpools/wasnorm_wordpool_576.txt	LTP338	ltpFR2	4	17	OMELET	976	n/a	n/a	0	0	0
3417513	REC_WORD	wordpools/wasnorm_wordpool_576.txt	LTP338	ltpFR2	4	17	YOLK	1633	n/a	n/a	0	0	0
3420514	REC_WORD	wordpools/wasnorm_wordpool_576.txt	LTP338	ltpFR2	4	17	MAPLE	866	n/a	n/a	0	0	0
3421261	REC_WORD	wordpools/wasnorm_wordpool_576.txt	LTP338	ltpFR2	4	17	FOREST	593	n/a	n/a	0	0	0
3426100	REC_WORD	wordpools/wasnorm_wordpool_576.txt	LTP338	ltpFR2	4	17	WAGON	1578	n/a	n/a	0	0	0
3426795	REC_WORD	wordpools/wasnorm_wordpool_576.txt	LTP338	ltpFR2	4	17	FLEET	578	n/a	n/a	0	0	0
3496464	WORD	wordpools/wasnorm_wordpool_576.txt	LTP338	ltpFR2	4	18	IDOL	733	n/a	n/a	0	0	0
3499112	WORD	wordpools/wasnorm_wordpool_576.txt	LTP338	ltpFR2	4	18	VENUS	1557	n/a	n/a	0	0	0
3501811	WORD	wordpools/wasnorm_wordpool_576.txt	LTP338	ltpFR2	4	18	SOFTBALL	1343	n/a	n/a	0	0	0
3504292	WORD	wordpools/wasnorm_wordpool_576.txt	LTP338	ltpFR2	4	18	FOOTBALL	591	n/a	n/a	0	0	0
3506825	WORD	wordpools/wasnorm_wordpool_576.txt	LTP338	ltpFR2	4	18	CHEMIST	292	n/a	n/a	0	0	0
3509591	WORD	wordpools/wasnorm_wordpool_576.txt	LTP338	ltpFR2	4	18	OINTMENT	974	n/a	n/a	0	0	0
3512023	WORD	wordpools/wasnorm_wordpool_576.txt	LTP338	ltpFR2	4	18	COLONEL	348	n/a	n/a	0	0	0
3514555	WORD	wordpools/wasnorm_wordpool_576.txt	LTP338	ltpFR2	4	18	ARMY	39	n/a	n/a	0	0	0
3517169	WORD	wordpools/wasnorm_wordpool_576.txt	LTP338	ltpFR2	4	18	PERCH	1048	n/a	n/a	0	0	0
3519769	WORD	wordpools/wasnorm_wordpool_576.txt	LTP338	ltpFR2	4	18	POET	1095	n/a	n/a	0	0	0
3522568	WORD	wordpools/wasnorm_wordpool_576.txt	LTP338	ltpFR2	4	18	SERVANT	1271	n/a	n/a	0	0	0
3525382	WORD	wordpools/wasnorm_wordpool_576.txt	LTP338	ltpFR2	4	18	WARDROBE	1587	n/a	n/a	0	0	0
3528164	WORD	wordpools/wasnorm_wordpool_576.txt	LTP338	ltpFR2	4	18	HAND	683	n/a	n/a	0	0	0
3530630	WORD	wordpools/wasnorm_wordpool_576.txt	LTP338	ltpFR2	4	18	GAVEL	627	n/a	n/a	0	0	0
3533261	WORD	wordpools/wasnorm_wordpool_576.txt	LTP338	ltpFR2	4	18	GALLON	618	n/a	n/a	0	0	0
3535878	WORD	wordpools/wasnorm_wordpool_576.txt	LTP338	ltpFR2	4	18	TABLET	1427	n/a	n/a	0	0	0
3538693	WORD	wordpools/wasnorm_wordpool_576.txt	LTP338	ltpFR2	4	18	HOUND	724	n/a	n/a	0	0	0
3541374	WORD	wordpools/wasnorm_wordpool_576.txt	LTP338	ltpFR2	4	18	LABEL	790	n/a	n/a	0	0	0
3544089	WORD	wordpools/wasnorm_wordpool_576.txt	LTP338	ltpFR2	4	18	BUBBLE	183	n/a	n/a	0	0	0
3546672	WORD	wordpools/wasnorm_wordpool_576.txt	LTP338	ltpFR2	4	18	FLOWER	584	n/a	n/a	0	0	0
3549387	WORD	wordpools/wasnorm_wordpool_576.txt	LTP338	ltpFR2	4	18	FINGER	567	n/a	n/a	0	0	0
3551953	WORD	wordpools/wasnorm_wordpool_576.txt	LTP338	ltpFR2	4	18	TOMBSTONE	1478	n/a	n/a	0	0	0
3554552	WORD	wordpools/wasnorm_wordpool_576.txt	LTP338	ltpFR2	4	18	MOP	916	n/a	n/a	0	0	0
3556984	WORD	wordpools/wasnorm_wordpool_576.txt	LTP338	ltpFR2	4	18	GROUND	666	n/a	n/a	0	0	0
3558600	START	n/a	LTP338	ltpFR2	4	n/a	n/a	n/a	28	n/a	n/a	n/a	n/a
3559746	DISTRACTOR	n/a	LTP338	ltpFR2	4	18	n/a	n/a	n/a	n/a	0	0	0
3559749	PROB	n/a	LTP338	ltpFR2	4	n/a	n/a	n/a	28	19	8	7	4
3563280	PROB	n/a	LTP338	ltpFR2	4	n/a	n/a	n/a	28	16	4	6	6
3566295	PROB	n/a	LTP338	ltpFR2	4	n/a	n/a	n/a	28	6	1	2	3
3570044	PROB	n/a	LTP338	ltpFR2	4	n/a	n/a	n/a	28	13	7	3	3
3571810	PROB	n/a	LTP338	ltpFR2	4	n/a	n/a	n/a	28	4	2	1	1
3573059	PROB	n/a	LTP338	ltpFR2	4	n/a	n/a	n/a	28	24	7	9	8
3577239	PROB	n/a	LTP338	ltpFR2	4	n/a	n/a	n/a	28	19	8	6	5
3579388	PROB	n/a	LTP338	ltpFR2	4	n/a	n/a	n/a	28	20	4	8	8
3581786	STOP	n/a	LTP338	ltpFR2	4	n/a	n/a	n/a	28	n/a	n/a	n/a	n/a
3584437	REC_START	n/a	LTP338	ltpFR2	4	18	n/a	n/a	n/a	n/a	0	0	0
3608760	REC_WORD	wordpools/wasnorm_wordpool_576.txt	LTP338	ltpFR2	4	18	IDOL	733	n/a	n/a	0	0	0
3613087	REC_WORD	wordpools/wasnorm_wordpool_576.txt	LTP338	ltpFR2	4	18	CHEMIST	292	n/a	n/a	0	0	0
3614654	REC_WORD	wordpools/wasnorm_wordpool_576.txt	LTP338	ltpFR2	4	18	OINTMENT	974	n/a	n/a	0	0	0
3616082	REC_WORD	wordpools/wasnorm_wordpool_576.txt	LTP338	ltpFR2	4	18	WARDROBE	1587	n/a	n/a	0	0	0
3617508	REC_WORD	wordpools/wasnorm_wordpool_576.txt	LTP338	ltpFR2	4	18	HAND	683	n/a	n/a	0	0	0
3619042	REC_WORD	wordpools/wasnorm_wordpool_576.txt	LTP338	ltpFR2	4	18	GAVEL	627	n/a	n/a	0	0	0
3674942	WORD	wordpools/wasnorm_wordpool_576.txt	LTP338	ltpFR2	4	19	STALLION	1369	n/a	n/a	0	0	0
3677474	WORD	wordpools/wasnorm_wordpool_576.txt	LTP338	ltpFR2	4	19	APRON	35	n/a	n/a	0	0	0
3680039	WORD	wordpools/wasnorm_wordpool_576.txt	LTP338	ltpFR2	4	19	SKILLET	1317	n/a	n/a	0	0	0
3682721	WORD	wordpools/wasnorm_wordpool_576.txt	LTP338	ltpFR2	4	19	SPOOL	1356	n/a	n/a	0	0	0
3685203	WORD	wordpools/wasnorm_wordpool_576.txt	LTP338	ltpFR2	4	19	SKIRT	1319	n/a	n/a	0	0	0
3687869	WORD	wordpools/wasnorm_wordpool_576.txt	LTP338	ltpFR2	4	19	DAISY	435	n/a	n/a	0	0	0
3690484	WORD	wordpools/wasnorm_wordpool_576.txt	LTP338	ltpFR2	4	19	PARENT	1013	n/a	n/a	0	0	0
3693199	WORD	wordpools/wasnorm_wordpool_576.txt	LTP338	ltpFR2	4	19	BACON	67	n/a	n/a	0	0	0
3695848	WORD	wordpools/wasnorm_wordpool_576.txt	LTP338	ltpFR2	4	19	LEG	809	n/a	n/a	0	0	0
3698346	WORD	wordpools/wasnorm_wordpool_576.txt	LTP338	ltpFR2	4	19	OYSTER	995	n/a	n/a	0	0	0
3700846	WORD	wordpools/wasnorm_wordpool_576.txt	LTP338	ltpFR2	4	19	BROTHER	179	n/a	n/a	0	0	0
3703444	WORD	wordpools/wasnorm_wordpool_576.txt	LTP338	ltpFR2	4	19	SHOULDER	1294	n/a	n/a	0	0	0
3706092	WORD	wordpools/wasnorm_wordpool_576.txt	LTP338	ltpFR2	4	19	YACHT	1629	n/a	n/a	0	0	0
3708592	WORD	wordpools/wasnorm_wordpool_576.txt	LTP338	ltpFR2	4	19	DONKEY	484	n/a	n/a	0	0	0
3711206	WORD	wordpools/wasnorm_wordpool_576.txt	LTP338	ltpFR2	4	19	CHAUFFEUR	283	n/a	n/a	0	0	0
3713856	WORD	wordpools/wasnorm_wordpool_576.txt	LTP338	ltpFR2	4	19	SHELF	1280	n/a	n/a	0	0	0
3716455	WORD	wordpools/wasnorm_wordpool_576.txt	LTP338	ltpFR2	4	19	NOVEL	960	n/a	n/a	0	0	0
3719252	WORD	wordpools/wasnorm_wordpool_576.txt	LTP338	ltpFR2	4	19	LUGGAGE	847	n/a	n/a	0	0	0
3721685	WORD	wordpools/wasnorm_wordpool_576.txt	LTP338	ltpFR2	4	19	ZEBRA	1635	n/a	n/a	0	0	0
3724451	WORD	wordpools/wasnorm_wordpool_576.txt	LTP338	ltpFR2	4	19	PUPPY	1144	n/a	n/a	0	0	0
3727148	WORD	wordpools/wasnorm_wordpool_576.txt	LTP338	ltpFR2	4	19	BRANDY	169	n/a	n/a	0	0	0
3729765	WORD	wordpools/wasnorm_wordpool_576.txt	LTP338	ltpFR2	4	19	SLOPE	1328	n/a	n/a	0	0	0
3732447	WORD	wordpools/wasnorm_wordpool_576.txt	LTP338	ltpFR2	4	19	BEAST	108	n/a	n/a	0	0	0
3735211	WORD	wordpools/wasnorm_wordpool_576.txt	LTP338	ltpFR2	4	19	SLIDE	1326	n/a	n/a	0	0	0
3736828	START	n/a	LTP338	ltpFR2	4	n/a	n/a	n/a	29	n/a	n/a	n/a	n/a
3737938	DISTRACTOR	n/a	LTP338	ltpFR2	4	19	n/a	n/a	n/a	n/a	0	0	0
3737944	PROB	n/a	LTP338	ltpFR2	4	n/a	n/a	n/a	29	13	1	9	3
3739960	PROB	n/a	LTP338	ltpFR2	4	n/a	n/a	n/a	29	23	8	9	6
3743257	PROB	n/a	LTP338	ltpFR2	4	n/a	n/a	n/a	29	22	9	8	5
3747822	PROB	n/a	LTP338	ltpFR2	4	n/a	n/a	n/a	29	19	4	6	9
3751054	PROB	n/a	LTP338	ltpFR2	4	n/a	n/a	n/a	29	15	2	5	8
3752970	PROB	n/a	LTP338	ltpFR2	4	n/a	n/a	n/a	29	21	8	9	4
3756901	PROB	n/a	LTP338	ltpFR2	4	n/a	n/a	n/a	29	1	4	6	4
3760828	STOP	n/a	LTP338	ltpFR2	4	n/a	n/a	n/a	29	n/a	n/a	n/a	n/a
3762716	REC_START	n/a	LTP338	ltpFR2	4	19	n/a	n/a	n/a	n/a	0	0	0
3830352	REC_WORD	wordpools/wasnorm_wordpool_576.txt	LTP338	ltpFR2	4	19	STALLION	1369	n/a	n/a	0	0	0
3831352	REC_WORD_VV	wordpools/wasnorm_wordpool_576.txt	LTP338	ltpFR2	4	19	<>	-1	n/a	n/a	0	0	0
3832032	REC_WORD	wordpools/wasnorm_wordpool_576.txt	LTP338	ltpFR2	4	19	APRON	35	n/a	n/a	0	0	0
3833422	REC_WORD	wordpools/wasnorm_wordpool_576.txt	LTP338	ltpFR2	4	19	LEG	809	n/a	n/a	0	0	0
3853169	WORD	wordpools/wasnorm_wordpool_576.txt	LTP338	ltpFR2	4	20	CHURCH	307	n/a	n/a	0	0	0
3855919	WORD	wordpools/wasnorm_wordpool_576.txt	LTP338	ltpFR2	4	20	THRONE	1461	n/a	n/a	0	0	0
3858383	WORD	wordpools/wasnorm_wordpool_576.txt	LTP338	ltpFR2	4	20	BANK	83	n/a	n/a	0	0	0
3860833	WORD	wordpools/wasnorm_wordpool_576.txt	LTP338	ltpFR2	4	20	HANDBAG	684	n/a	n/a	0	0	0
3863532	WORD	wordpools/wasnorm_wordpool_576.txt	LTP338	ltpFR2	4	20	HEDGE	699	n/a	n/a	0	0	0
3866079	WORD	wordpools/wasnorm_wordpool_576.txt	LTP338	ltpFR2	4	20	PEACH	1031	n/a	n/a	0	0	0
3868879	WORD	wordpools/wasnorm_wordpool_576.txt	LTP338	ltpFR2	4	20	RUST	1219	n/a	n/a	0	0	0
3871444	WORD	wordpools/wasnorm_wordpool_576.txt	LTP338	ltpFR2	4	20	CITRUS	313	n/a	n/a	0	0	0
3874159	WORD	wordpools/wasnorm_wordpool_576.txt	LTP338	ltpFR2	4	20	DORM	488	n/a	n/a	0	0	0
3876758	WORD	wordpools/wasnorm_wordpool_576.txt	LTP338	ltpFR2	4	20	SUPPER	1411	n/a	n/a	0	0	0
3879389	WORD	wordpools/wasnorm_wordpool_576.txt	LTP338	ltpFR2	4	20	CAFE	216	n/a	n/a	0	0	0
3882155	WORD	wordpools/wasnorm_wordpool_576.txt	LTP338	ltpFR2	4	20	CONTRACT	368	n/a	n/a	0	0	0
3884688	WORD	wordpools/wasnorm_wordpool_576.txt	LTP338	ltpFR2	4	20	BODY	145	n/a	n/a	0	0	0
3887453	WORD	wordpools/wasnorm_wordpool_576.txt	LTP338	ltpFR2	4	20	ATOM	55	n/a	n/a	0	0	0
3889885	WORD	wordpools/wasnorm_wordpool_576.txt	LTP338	ltpFR2	4	20	WRENCH	1625	n/a	n/a	0	0	0
3892700	WORD	wordpools/wasnorm_wordpool_576.txt	LTP338	ltpFR2	4	20	LODGE	839	n/a	n/a	0	0	0
3895516	WORD	wordpools/wasnorm_wordpool_576.txt	LTP338	ltpFR2	4	20	CONVICT	371	n/a	n/a	0	0	0
3898113	WORD	wordpools/wasnorm_wordpool_576.txt	LTP338	ltpFR2	4	20	COSTUME	383	n/a	n/a	0	0	0
3900880	WORD	wordpools/wasnorm_wordpool_576.txt	LTP338	ltpFR2	4	20	CASHIER	254	n/a	n/a	0	0	0
3903562	WORD	wordpools/wasnorm_wordpool_576.txt	LTP338	ltpFR2	4	20	PIMPLE	1071	n/a	n/a	0	0	0
3906226	WORD	wordpools/wasnorm_wordpool_576.txt	LTP338	ltpFR2	4	20	SUITCASE	1403	n/a	n/a	0	0	0
3908942	WORD	wordpools/wasnorm_wordpool_576.txt	LTP338	ltpFR2	4	20	WAITRESS	1581	n/a	n/a	0	0	0
3911474	WORD	wordpools/wasnorm_wordpool_576.txt	LTP338	ltpFR2	4	20	HOSTESS	723	n/a	n/a	0	0	0
3914057	WORD	wordpools/wasnorm_wordpool_576.txt	LTP338	ltpFR2	4	20	REBEL	1172	n/a	n/a	0	0	0
3915673	START	n/a	LTP338	ltpFR2	4	n/a	n/a	n/a	30	n/a	n/a	n/a	n/a
3916767	DISTRACTOR	n/a	LTP338	ltpFR2	4	20	n/a	n/a	n/a	n/a	0	0	0
3916772	PROB	n/a	LTP338	ltpFR2	4	n/a	n/a	n/a	30	16	7	6	3
3918588	PROB	n/a	LTP338	ltpFR2	4	n/a	n/a	n/a	30	10	7	2	1
3921969	PROB	n/a	LTP338	ltpFR2	4	n/a	n/a	n/a	30	17	9	4	4
3924935	PROB	n/a	LTP338	ltpFR2	4	n/a	n/a	n/a	30	12	3	4	5
3927199	PROB	n/a	LTP338	ltpFR2	4	n/a	n/a	n/a	30	17	7	3	7
3928683	PROB	n/a	LTP338	ltpFR2	4	n/a	n/a	n/a	30	13	3	5	5
3930248	PROB	n/a	LTP338	ltpFR2	4	n/a	n/a	n/a	30	10	6	3	1
3931764	PROB	n/a	LTP338	ltpFR2	4	n/a	n/a	n/a	30	14	2	4	8
3933497	PROB	n/a	LTP338	ltpFR2	4	n/a	n/a	n/a	30	19	7	5	7
3935262	PROB	n/a	LTP338	ltpFR2	4	n/a	n/a	n/a	30	18	9	3	6
3937311	PROB	n/a	LTP338	ltpFR2	4	n/a	n/a	n/a	30	18	7	9	2
3939313	STOP	n/a	LTP338	ltpFR2	4	n/a	n/a	n/a	30	n/a	n/a	n/a	n/a
3941510	REC_START	n/a	LTP338	ltpFR2	4	20	n/a	n/a	n/a	n/a	0	0	0
3942803	REC_WORD	wordpools/wasnorm_wordpool_576.txt	LTP338	ltpFR2	4	20	CHURCH	307	n/a	n/a	0	0	0
3943631	REC_WORD	wordpools/wasnorm_wordpool_576.txt	LTP338	ltpFR2	4	20	THRONE	1461	n/a	n/a	0	0	0
3944844	REC_WORD	wordpools/wasnorm_wordpool_576.txt	LTP338	ltpFR2	4	20	BANK	83	n/a	n/a	0	0	0
3945809	REC_WORD	wordpools/wasnorm_wordpool_576.txt	LTP338	ltpFR2	4	20	HEDGE	699	n/a	n/a	0	0	0
3947094	REC_WORD	wordpools/wasnorm_wordpool_576.txt	LTP338	ltpFR2	4	20	PEACH	1031	n/a	n/a	0	0	0
3948196	REC_WORD	wordpools/wasnorm_wordpool_576.txt	LTP338	ltpFR2	4	20	CITRUS	313	n/a	n/a	0	0	0
3966050	REC_WORD	wordpools/wasnorm_wordpool_576.txt	LTP338	ltpFR2	4	20	PIMPLE	1071	n/a	n/a	0	0	0
4031965	WORD	wordpools/wasnorm_wordpool_576.txt	LTP338	ltpFR2	4	21	DENTIST	447	n/a	n/a	0	0	0
4034697	WORD	wordpools/wasnorm_wordpool_576.txt	LTP338	ltpFR2	4	21	BEAVER	109	n/a	n/a	0	0	0
4037328	WORD	wordpools/wasnorm_wordpool_576.txt	LTP338	ltpFR2	4	21	DUST	508	n/a	n/a	0	0	0
4039778	WORD	wordpools/wasnorm_wordpool_576.txt	LTP338	ltpFR2	4	21	THREAD	1460	n/a	n/a	0	0	0
4042410	WORD	wordpools/wasnorm_wordpool_576.txt	LTP338	ltpFR2	4	21	CURTAIN	427	n/a	n/a	0	0	0
4044958	WORD	wordpools/wasnorm_wordpool_576.txt	LTP338	ltpFR2	4	21	JURY	766	n/a	n/a	0	0	0
4047389	WORD	wordpools/wasnorm_wordpool_576.txt	LTP338	ltpFR2	4	21	PASSAGE	1019	n/a	n/a	0	0	0
4049989	WORD	wordpools/wasnorm_wordpool_576.txt	LTP338	ltpFR2	4	21	MAILBOX	857	n/a	n/a	0	0	0
4052554	WORD	wordpools/wasnorm_wordpool_576.txt	LTP338	ltpFR2	4	21	POSTAGE	1113	n/a	n/a	0	0	0
4055369	WORD	wordpools/wasnorm_wordpool_576.txt	LTP338	ltpFR2	4	21	FILM	565	n/a	n/a	0	0	0
4057918	WORD	wordpools/wasnorm_wordpool_576.txt	LTP338	ltpFR2	4	21	ACTRESS	6	n/a	n/a	0	0	0
4060684	WORD	wordpools/wasnorm_wordpool_576.txt	LTP338	ltpFR2	4	21	JUGGLER	763	n/a	n/a	0	0	0
4063482	WORD	wordpools/wasnorm_wordpool_576.txt	LTP338	ltpFR2	4	21	LASER	801	n/a	n/a	0	0	0
4066113	WORD	wordpools/wasnorm_wordpool_576.txt	LTP338	ltpFR2	4	21	SEAFOOD	1260	n/a	n/a	0	0	0
4068913	WORD	wordpools/wasnorm_wordpool_576.txt	LTP338	ltpFR2	4	21	TILE	1468	n/a	n/a	0	0	0
4071628	WORD	wordpools/wasnorm_wordpool_576.txt	LTP338	ltpFR2	4	21	RIFLE	1192	n/a	n/a	0	0	0
4074343	WORD	wordpools/wasnorm_wordpool_576.txt	LTP338	ltpFR2	4	21	MESSAGE	888	n/a	n/a	0	0	0
4076876	WORD	wordpools/wasnorm_wordpool_576.txt	LTP338	ltpFR2	4	21	WIFE	1609	n/a	n/a	0	0	0
4079574	WORD	wordpools/wasnorm_wordpool_576.txt	LTP338	ltpFR2	4	21	GYMNAST	675	n/a	n/a	0	0	0
4082122	WORD	wordpools/wasnorm_wordpool_576.txt	LTP338	ltpFR2	4	21	JOURNAL	760	n/a	n/a	0	0	0
4084855	WORD	wordpools/wasnorm_wordpool_576.txt	LTP338	ltpFR2	4	21	COMPASS	358	n/a	n/a	0	0	0
4087420	WORD	wordpools/wasnorm_wordpool_576.txt	LTP338	ltpFR2	4	21	PEPPER	1047	n/a	n/a	0	0	0
4090185	WORD	wordpools/wasnorm_wordpool_576.txt	LTP338	ltpFR2	4	21	ATLAS	53	n/a	n/a	0	0	0
4092768	WORD	wordpools/wasnorm_wordpool_576.txt	LTP338	ltpFR2	4	21	STAPLE	1371	n/a	n/a	0	0	0
4094383	START	n/a	LTP338	ltpFR2	4	n/a	n/a	n/a	31	n/a	n/a	n/a	n/a
4095388	DISTRACTOR	n/a	LTP338	ltpFR2	4	21	n/a	n/a	n/a	n/a	0	0	0
4095399	PROB	n/a	LTP338	ltpFR2	4	n/a	n/a	n/a	31	24	8	9	7
4098582	PROB	n/a	LTP338	ltpFR2	4	n/a	n/a	n/a	31	18	3	8	7
4100631	PROB	n/a	LTP338	ltpFR2	4	n/a	n/a	n/a	31	24	9	8	7
4102979	PROB	n/a	LTP338	ltpFR2	4	n/a	n/a	n/a	31	16	8	1	7
4105261	PROB	n/a	LTP338	ltpFR2	4	n/a	n/a	n/a	31	22	7	8	7
4110592	PROB	n/a	LTP338	ltpFR2	4	n/a	n/a	n/a	31	11	5	2	4
4112575	PROB	n/a	LTP338	ltpFR2	4	n/a	n/a	n/a	31	6	3	2	1
4117257	STOP	n/a	LTP338	ltpFR2	4	n/a	n/a	n/a	31	n/a	n/a	n/a	n/a
4120137	REC_START	n/a	LTP338	ltpFR2	4	21	n/a	n/a	n/a	n/a	0	0	0
4121751	REC_WORD	wordpools/wasnorm_wordpool_576.txt	LTP338	ltpFR2	4	21	GYMNAST	675	n/a	n/a	0	0	0
4181802	REC_WORD	wordpools/wasnorm_wordpool_576.txt	LTP338	ltpFR2	4	21	SEAFOOD	1260	n/a	n/a	0	0	0
4210626	WORD	wordpools/wasnorm_wordpool_576.txt	LTP338	ltpFR2	4	22	DINER	467	n/a	n/a	0	0	0
4213190	WORD	wordpools/wasnorm_wordpool_576.txt	LTP338	ltpFR2	4	22	COURSE	390	n/a	n/a	0	0	0
4215807	WORD	wordpools/wasnorm_wordpool_576.txt	LTP338	ltpFR2	4	22	PADDLE	1000	n/a	n/a	0	0	0
4218622	WORD	wordpools/wasnorm_wordpool_576.txt	LTP338	ltpFR2	4	22	HATCHET	691	n/a	n/a	0	0	0
4221170	WORD	wordpools/wasnorm_wordpool_576.txt	LTP338	ltpFR2	4	22	FRECKLE	602	n/a	n/a	0	0	0
4223819	WORD	wordpools/wasnorm_wordpool_576.txt	LTP338	ltpFR2	4	22	COWBOY	395	n/a	n/a	0	0	0
4226551	WORD	wordpools/wasnorm_wordpool_576.txt	LTP338	ltpFR2	4	22	LEADER	807	n/a	n/a	0	0	0
4229000	WORD	wordpools/wasnorm_wordpool_576.txt	LTP338	ltpFR2	4	22	MUSTARD	935	n/a	n/a	0	0	0
4231482	WORD	wordpools/wasnorm_wordpool_576.txt	LTP338	ltpFR2	4	22	RELISH	1183	n/a	n/a	0	0	0
4233981	WORD	wordpools/wasnorm_wordpool_576.txt	LTP338	ltpFR2	4	22	BUNNY	198	n/a	n/a	0	0	0
4236563	WORD	wordpools/wasnorm_wordpool_576.txt	LTP338	ltpFR2	4	22	SPARROW	1347	n/a	n/a	0	0	0
4239361	WORD	wordpools/wasnorm_wordpool_576.txt	LTP338	ltpFR2	4	22	FOOT	590	n/a	n/a	0	0	0
4241860	WORD	wordpools/wasnorm_wordpool_576.txt	LTP338	ltpFR2	4	22	GHETTO	633	n/a	n/a	0	0	0
4244375	WORD	wordpools/wasnorm_wordpool_576.txt	LTP338	ltpFR2	4	22	TRIBE	1505	n/a	n/a	0	0	0
4247058	WORD	wordpools/wasnorm_wordpool_576.txt	LTP338	ltpFR2	4	22	TEMPLE	1448	n/a	n/a	0	0	0
4249623	WORD	wordpools/wasnorm_wordpool_576.txt	LTP338	ltpFR2	4	22	BRICK	172	n/a	n/a	0	0	0
4252354	WORD	wordpools/wasnorm_wordpool_576.txt	LTP338	ltpFR2	4	22	PEBBLE	1035	n/a	n/a	0	0	0
4254821	WORD	wordpools/wasnorm_wordpool_576.txt	LTP338	ltpFR2	4	22	VIKING	1565	n/a	n/a	0	0	0
4257285	WORD	wordpools/wasnorm_wordpool_576.txt	LTP338	ltpFR2	4	22	CAPTIVE	240	n/a	n/a	0	0	0
4260018	WORD	wordpools/wasnorm_wordpool_576.txt	LTP338	ltpFR2	4	22	SWORD	1423	n/a	n/a	0	0	0
4262484	WORD	wordpools/wasnorm_wordpool_576.txt	LTP338	ltpFR2	4	22	SPOON	1357	n/a	n/a	0	0	0
4265016	WORD	wordpools/wasnorm_wordpool_576.txt	LTP338	ltpFR2	4	22	CROSS	413	n/a	n/a	0	0	0
4267498	WORD	wordpools/wasnorm_wordpool_576.txt	LTP338	ltpFR2	4	22	TWEEZERS	1526	n/a	n/a	0	0	0
4270179	WORD	wordpools/wasnorm_wordpool_576.txt	LTP338	ltpFR2	4	22	WIDOW	1608	n/a	n/a	0	0	0
4271796	START	n/a	LTP338	ltpFR2	4	n/a	n/a	n/a	32	n/a	n/a	n/a	n/a
4272977	DISTRACTOR	n/a	LTP338	ltpFR2	4	22	n/a	n/a	n/a	n/a	0	0	0
4272995	PROB	n/a	LTP338	ltpFR2	4	n/a	n/a	n/a	32	12	2	6	4
4275544	PROB	n/a	LTP338	ltpFR2	4	n/a	n/a	n/a	32	14	7	3	4
4276910	PROB	n/a	LTP338	ltpFR2	4	n/a	n/a	n/a	32	11	5	4	2
4278709	PROB	n/a	LTP338	ltpFR2	4	n/a	n/a	n/a	32	15	5	7	1
4282540	PROB	n/a	LTP338	ltpFR2	4	n/a	n/a	n/a	32	18	3	7	8
4284656	PROB	n/a	LTP338	ltpFR2	4	n/a	n/a	n/a	32	21	6	7	8
4291819	PROB	n/a	LTP338	ltpFR2	4	n/a	n/a	n/a	32	11	6	1	4
4293452	PROB	n/a	LTP338	ltpFR2	4	n/a	n/a	n/a	32	18	6	3	9
4295337	STOP	n/a	LTP338	ltpFR2	4	n/a	n/a	n/a	32	n/a	n/a	n/a	n/a
4297700	REC_START	n/a	LTP338	ltpFR2	4	22	n/a	n/a	n/a	n/a	0	0	0
4299510	REC_WORD	wordpools/wasnorm_wordpool_576.txt	LTP338	ltpFR2	4	22	WIDOW	1608	n/a	n/a	0	0	0
4300543	REC_WORD	wordpools/wasnorm_wordpool_576.txt	LTP338	ltpFR2	4	22	HATCHET	691	n/a	n/a	0	0	0
4301686	REC_WORD	wordpools/wasnorm_wordpool_576.txt	LTP338	ltpFR2	4	22	PADDLE	1000	n/a	n/a	0	0	0
4302858	REC_WORD	wordpools/wasnorm_wordpool_576.txt	LTP338	ltpFR2	4	22	DINER	467	n/a	n/a	0	0	0
4303976	REC_WORD	wordpools/wasnorm_wordpool_576.txt	LTP338	ltpFR2	4	22	RELISH	1183	n/a	n/a	0	0	0
4304991	REC_WORD	wordpools/wasnorm_wordpool_576.txt	LTP338	ltpFR2	4	22	MUSTARD	935	n/a	n/a	0	0	0
4307660	REC_WORD	wordpools/wasnorm_wordpool_576.txt	LTP338	ltpFR2	4	22	COWBOY	395	n/a	n/a	0	0	0
4308467	REC_WORD	wordpools/wasnorm_wordpool_576.txt	LTP338	ltpFR2	4	22	FRECKLE	602	n/a	n/a	0	0	0
4310403	REC_WORD	wordpools/wasnorm_wordpool_576.txt	LTP338	ltpFR2	4	22	SPARROW	1347	n/a	n/a	0	0	0
4311649	REC_WORD	wordpools/wasnorm_wordpool_576.txt	LTP338	ltpFR2	4	22	BUNNY	198	n/a	n/a	0	0	0
4312613	REC_WORD	wordpools/wasnorm_wordpool_576.txt	LTP338	ltpFR2	4	22	FOOT	590	n/a	n/a	0	0	0
4313740	REC_WORD	wordpools/wasnorm_wordpool_576.txt	LTP338	ltpFR2	4	22	GHETTO	633	n/a	n/a	0	0	0
4388153	DISTRACTOR	n/a	LTP338	ltpFR2	4	23	n/a	n/a	n/a	n/a	0	0	0
4388154	START	n/a	LTP338	ltpFR2	4	n/a	n/a	n/a	33	n/a	n/a	n/a	n/a
4388170	PROB	n/a	LTP338	ltpFR2	4	n/a	n/a	n/a	33	15	7	7	1
4389954	PROB	n/a	LTP338	ltpFR2	4	n/a	n/a	n/a	33	19	7	5	7
4391786	PROB	n/a	LTP338	ltpFR2	4	n/a	n/a	n/a	33	7	2	4	1
4393885	PROB	n/a	LTP338	ltpFR2	4	n/a	n/a	n/a	33	18	3	6	9
4395917	PROB	n/a	LTP338	ltpFR2	4	n/a	n/a	n/a	33	11	6	2	3
4398115	PROB	n/a	LTP338	ltpFR2	4	n/a	n/a	n/a	33	17	3	9	5
4399932	PROB	n/a	LTP338	ltpFR2	4	n/a	n/a	n/a	33	15	1	8	6
4402814	PROB	n/a	LTP338	ltpFR2	4	n/a	n/a	n/a	33	17	6	6	5
4404663	PROB	n/a	LTP338	ltpFR2	4	n/a	n/a	n/a	33	16	4	8	4
4407445	PROB	n/a	LTP338	ltpFR2	4	n/a	n/a	n/a	33	16	6	2	8
4410674	STOP	n/a	LTP338	ltpFR2	4	n/a	n/a	n/a	33	n/a	n/a	n/a	n/a
4413258	WORD	wordpools/wasnorm_wordpool_576.txt	LTP338	ltpFR2	4	23	REPORT	1184	n/a	n/a	0	0	0
4416007	WORD	wordpools/wasnorm_wordpool_576.txt	LTP338	ltpFR2	4	23	BLADE	134	n/a	n/a	0	0	0
4418473	WORD	wordpools/wasnorm_wordpool_576.txt	LTP338	ltpFR2	4	23	WHISKERS	1605	n/a	n/a	0	0	0
4421104	WORD	wordpools/wasnorm_wordpool_576.txt	LTP338	ltpFR2	4	23	MARKER	870	n/a	n/a	0	0	0
4423853	WORD	wordpools/wasnorm_wordpool_576.txt	LTP338	ltpFR2	4	23	QUAIL	1147	n/a	n/a	0	0	0
4426585	WORD	wordpools/wasnorm_wordpool_576.txt	LTP338	ltpFR2	4	23	SCULPTURE	1258	n/a	n/a	0	0	0
4429018	WORD	wordpools/wasnorm_wordpool_576.txt	LTP338	ltpFR2	4	23	FLAG	573	n/a	n/a	0	0	0
4431566	WORD	wordpools/wasnorm_wordpool_576.txt	LTP338	ltpFR2	4	23	MISSILE	900	n/a	n/a	0	0	0
4434364	WORD	wordpools/wasnorm_wordpool_576.txt	LTP338	ltpFR2	4	23	BADGE	68	n/a	n/a	0	0	0
4436864	WORD	wordpools/wasnorm_wordpool_576.txt	LTP338	ltpFR2	4	23	GAZELLE	628	n/a	n/a	0	0	0
4439496	WORD	wordpools/wasnorm_wordpool_576.txt	LTP338	ltpFR2	4	23	SCARECROW	1245	n/a	n/a	0	0	0
4442028	WORD	wordpools/wasnorm_wordpool_576.txt	LTP338	ltpFR2	4	23	TOASTER	1472	n/a	n/a	0	0	0
4444527	WORD	wordpools/wasnorm_wordpool_576.txt	LTP338	ltpFR2	4	23	COMET	353	n/a	n/a	0	0	0
4447224	WORD	wordpools/wasnorm_wordpool_576.txt	LTP338	ltpFR2	4	23	SISTER	1312	n/a	n/a	0	0	0
4450040	WORD	wordpools/wasnorm_wordpool_576.txt	LTP338	ltpFR2	4	23	BABY	64	n/a	n/a	0	0	0
4452806	WORD	wordpools/wasnorm_wordpool_576.txt	LTP338	ltpFR2	4	23	CHILD	299	n/a	n/a	0	0	0
4455320	WORD	wordpools/wasnorm_wordpool_576.txt	LTP338	ltpFR2	4	23	BROOK	177	n/a	n/a	0	0	0
4457986	WORD	wordpools/wasnorm_wordpool_576.txt	LTP338	ltpFR2	4	23	BALLOON	75	n/a	n/a	0	0	0
4460519	WORD	wordpools/wasnorm_wordpool_576.txt	LTP338	ltpFR2	4	23	FIREMAN	569	n/a	n/a	0	0	0
4463133	WORD	wordpools/wasnorm_wordpool_576.txt	LTP338	ltpFR2	4	23	BELLY	119	n/a	n/a	0	0	0
4465716	WORD	wordpools/wasnorm_wordpool_576.txt	LTP338	ltpFR2	4	23	STOMACH	1384	n/a	n/a	0	0	0
4468164	WORD	wordpools/wasnorm_wordpool_576.txt	LTP338	ltpFR2	4	23	POWDER	1117	n/a	n/a	0	0	0
4470980	WORD	wordpools/wasnorm_wordpool_576.txt	LTP338	ltpFR2	4	23	SIBLING	1301	n/a	n/a	0	0	0
4473495	WORD	wordpools/wasnorm_wordpool_576.txt	LTP338	ltpFR2	4	23	BISON	131	n/a	n/a	0	0	0
4475111	START	n/a	LTP338	ltpFR2	4	n/a	n/a	n/a	34	n/a	n/a	n/a	n/a
4476236	DISTRACTOR	n/a	LTP338	ltpFR2	4	23	n/a	n/a	n/a	n/a	0	0	0
4476243	PROB	n/a	LTP338	ltpFR2	4	n/a	n/a	n/a	34	19	2	8	9
4480108	PROB	n/a	LTP338	ltpFR2	4	n/a	n/a	n/a	34	14	4	7	3
4482458	PROB	n/a	LTP338	ltpFR2	4	n/a	n/a	n/a	34	16	6	2	8
4484823	PROB	n/a	LTP338	ltpFR2	4	n/a	n/a	n/a	34	16	7	4	5
4486872	PROB	n/a	LTP338	ltpFR2	4	n/a	n/a	n/a	34	15	3	7	5
4488555	PROB	n/a	LTP338	ltpFR2	4	n/a	n/a	n/a	34	14	5	8	1
4490970	PROB	n/a	LTP338	ltpFR2	4	n/a	n/a	n/a	34	9	2	6	1
4492636	PROB	n/a	LTP338	ltpFR2	4	n/a	n/a	n/a	34	19	7	9	3
4495051	PROB	n/a	LTP338	ltpFR2	4	n/a	n/a	n/a	34	19	8	7	4
4498058	STOP	n/a	LTP338	ltpFR2	4	n/a	n/a	n/a	34	n/a	n/a	n/a	n/a
4500882	REC_START	n/a	LTP338	ltpFR2	4	23	n/a	n/a	n/a	n/a	0	0	0
4507750	REC_WORD_VV	wordpools/wasnorm_wordpool_576.txt	LTP338	ltpFR2	4	23	<>	-1	n/a	n/a	0	0	0
4511333	REC_WORD	wordpools/wasnorm_wordpool_576.txt	LTP338	ltpFR2	4	23	BABY	64	n/a	n/a	0	0	0
4512350	REC_WORD	wordpools/wasnorm_wordpool_576.txt	LTP338	ltpFR2	4	23	SISTER	1312	n/a	n/a	0	0	0
4513350	REC_WORD_VV	wordpools/wasnorm_wordpool_576.txt	LTP338	ltpFR2	4	23	<>	-1	n/a	n/a	0	0	0
4518785	REC_WORD	wordpools/wasnorm_wordpool_576.txt	LTP338	ltpFR2	4	23	COMET	353	n/a	n/a	0	0	0
4520121	REC_WORD	wordpools/wasnorm_wordpool_576.txt	LTP338	ltpFR2	4	23	TOASTER	1472	n/a	n/a	0	0	0
4521121	REC_WORD_VV	wordpools/wasnorm_wordpool_576.txt	LTP338	ltpFR2	4	23	<>	-1	n/a	n/a	0	0	0
4591336	DISTRACTOR	n/a	LTP338	ltpFR2	4	24	n/a	n/a	n/a	n/a	0	0	0
4591336	START	n/a	LTP338	ltpFR2	4	n/a	n/a	n/a	35	n/a	n/a	n/a	n/a
4591353	PROB	n/a	LTP338	ltpFR2	4	n/a	n/a	n/a	35	15	7	6	2
4595251	PROB	n/a	LTP338	ltpFR2	4	n/a	n/a	n/a	35	18	7	9	2
4597750	PROB	n/a	LTP338	ltpFR2	4	n/a	n/a	n/a	35	19	6	6	7
4599733	PROB	n/a	LTP338	ltpFR2	4	n/a	n/a	n/a	35	14	5	1	8
4601932	PROB	n/a	LTP338	ltpFR2	4	n/a	n/a	n/a	35	17	3	5	9
4604230	PROB	n/a	LTP338	ltpFR2	4	n/a	n/a	n/a	35	16	4	4	8
4605646	PROB	n/a	LTP338	ltpFR2	4	n/a	n/a	n/a	35	14	5	2	7
4607278	PROB	n/a	LTP338	ltpFR2	4	n/a	n/a	n/a	35	16	6	1	9
4610611	PROB	n/a	LTP338	ltpFR2	4	n/a	n/a	n/a	35	18	3	6	9
4615113	STOP	n/a	LTP338	ltpFR2	4	n/a	n/a	n/a	35	n/a	n/a	n/a	n/a
4616408	WORD	wordpools/wasnorm_wordpool_576.txt	LTP338	ltpFR2	4	24	RAZOR	1171	n/a	n/a	0	0	0
4619155	WORD	wordpools/wasnorm_wordpool_576.txt	LTP338	ltpFR2	4	24	COUSIN	392	n/a	n/a	0	0	0
4621888	WORD	wordpools/wasnorm_wordpool_576.txt	LTP338	ltpFR2	4	24	UNCLE	1536	n/a	n/a	0	0	0
4624420	WORD	wordpools/wasnorm_wordpool_576.txt	LTP338	ltpFR2	4	24	CRAYON	401	n/a	n/a	0	0	0
4626903	WORD	wordpools/wasnorm_wordpool_576.txt	LTP338	ltpFR2	4	24	PAPER	1011	n/a	n/a	0	0	0
4629350	WORD	wordpools/wasnorm_wordpool_576.txt	LTP338	ltpFR2	4	24	SNACK	1331	n/a	n/a	0	0	0
4631867	WORD	wordpools/wasnorm_wordpool_576.txt	LTP338	ltpFR2	4	24	BLENDER	136	n/a	n/a	0	0	0
4634549	WORD	wordpools/wasnorm_wordpool_576.txt	LTP338	ltpFR2	4	24	MATTRESS	879	n/a	n/a	0	0	0
4637213	WORD	wordpools/wasnorm_wordpool_576.txt	LTP338	ltpFR2	4	24	ONION	977	n/a	n/a	0	0	0
4639663	WORD	wordpools/wasnorm_wordpool_576.txt	LTP338	ltpFR2	4	24	GREASE	660	n/a	n/a	0	0	0
4642211	WORD	wordpools/wasnorm_wordpool_576.txt	LTP338	ltpFR2	4	24	BANJO	82	n/a	n/a	0	0	0
4644827	WORD	wordpools/wasnorm_wordpool_576.txt	LTP338	ltpFR2	4	24	DRIVER	499	n/a	n/a	0	0	0
4647542	WORD	wordpools/wasnorm_wordpool_576.txt	LTP338	ltpFR2	4	24	DOUGHNUT	490	n/a	n/a	0	0	0
4650024	WORD	wordpools/wasnorm_wordpool_576.txt	LTP338	ltpFR2	4	24	GUITAR	670	n/a	n/a	0	0	0
4652740	WORD	wordpools/wasnorm_wordpool_576.txt	LTP338	ltpFR2	4	24	LOFT	840	n/a	n/a	0	0	0
4655188	WORD	wordpools/wasnorm_wordpool_576.txt	LTP338	ltpFR2	4	24	PADDING	999	n/a	n/a	0	0	0
4657821	WORD	wordpools/wasnorm_wordpool_576.txt	LTP338	ltpFR2	4	24	NECKLACE	940	n/a	n/a	0	0	0
