onset	duration	trial_type	sample	stim_file	subject	experiment	session	trial	item_name	item_num	list	answer	test_x	test_y	test_z
213.956	n/a	SESS_START	106978	n/a	LTP250	ltpFR2	19	n/a	n/a	n/a	n/a	n/a	0	0	0
227.818	n/a	START	113909	n/a	LTP250	ltpFR2	19	n/a	n/a	n/a	-1	n/a	n/a	n/a	n/a
227.83	n/a	PROB	113915	n/a	LTP250	ltpFR2	19	n/a	n/a	n/a	-1	9	5	3	1
229.932	n/a	PROB	114966	n/a	LTP250	ltpFR2	19	n/a	n/a	n/a	-1	19	8	5	6
232.186	n/a	PROB	116093	n/a	LTP250	ltpFR2	19	n/a	n/a	n/a	-1	13	3	1	9
233.468	n/a	PROB	116734	n/a	LTP250	ltpFR2	19	n/a	n/a	n/a	-1	13	9	3	1
234.638	n/a	PROB	117319	n/a	LTP250	ltpFR2	19	n/a	n/a	n/a	-1	20	9	4	7
236.89	n/a	PROB	118445	n/a	LTP250	ltpFR2	19	n/a	n/a	n/a	-1	4	2	1	1
238.302	n/a	STOP	119151	n/a	LTP250	ltpFR2	19	n/a	n/a	n/a	-1	n/a	n/a	n/a	n/a
269.898	n/a	WORD	134949	wordpools/wasnorm_wordpool_576.txt	LTP250	ltpFR2	19	1	APPLE	33	n/a	n/a	0	0	0
272.5	n/a	WORD	136250	wordpools/wasnorm_wordpool_576.txt	LTP250	ltpFR2	19	1	BRANDY	169	n/a	n/a	0	0	0
275.08	n/a	WORD	137540	wordpools/wasnorm_wordpool_576.txt	LTP250	ltpFR2	19	1	MARKER	870	n/a	n/a	0	0	0
277.548	n/a	WORD	138774	wordpools/wasnorm_wordpool_576.txt	LTP250	ltpFR2	19	1	CRAYON	401	n/a	n/a	0	0	0
280.174	n/a	WORD	140087	wordpools/wasnorm_wordpool_576.txt	LTP250	ltpFR2	19	1	MARROW	872	n/a	n/a	0	0	0
282.942	n/a	WORD	141471	wordpools/wasnorm_wordpool_576.txt	LTP250	ltpFR2	19	1	APRON	35	n/a	n/a	0	0	0
285.488	n/a	WORD	142744	wordpools/wasnorm_wordpool_576.txt	LTP250	ltpFR2	19	1	VAGRANT	1544	n/a	n/a	0	0	0
288.112	n/a	WORD	144056	wordpools/wasnorm_wordpool_576.txt	LTP250	ltpFR2	19	1	FLIPPER	580	n/a	n/a	0	0	0
290.778	n/a	WORD	145389	wordpools/wasnorm_wordpool_576.txt	LTP250	ltpFR2	19	1	SANDWICH	1232	n/a	n/a	0	0	0
293.25	n/a	WORD	146625	wordpools/wasnorm_wordpool_576.txt	LTP250	ltpFR2	19	1	MILDEW	893	n/a	n/a	0	0	0
295.882	n/a	WORD	147941	wordpools/wasnorm_wordpool_576.txt	LTP250	ltpFR2	19	1	PANTHER	1009	n/a	n/a	0	0	0
298.638	n/a	WORD	149319	wordpools/wasnorm_wordpool_576.txt	LTP250	ltpFR2	19	1	SLUG	1329	n/a	n/a	0	0	0
301.45	n/a	WORD	150725	wordpools/wasnorm_wordpool_576.txt	LTP250	ltpFR2	19	1	PERCH	1048	n/a	n/a	0	0	0
303.938	n/a	WORD	151969	wordpools/wasnorm_wordpool_576.txt	LTP250	ltpFR2	19	1	VICTIM	1562	n/a	n/a	0	0	0
306.728	n/a	WORD	153364	wordpools/wasnorm_wordpool_576.txt	LTP250	ltpFR2	19	1	FRANCE	601	n/a	n/a	0	0	0
309.324	n/a	WORD	154662	wordpools/wasnorm_wordpool_576.txt	LTP250	ltpFR2	19	1	QUAIL	1147	n/a	n/a	0	0	0
311.778	n/a	WORD	155889	wordpools/wasnorm_wordpool_576.txt	LTP250	ltpFR2	19	1	FLEET	578	n/a	n/a	0	0	0
314.296	n/a	WORD	157148	wordpools/wasnorm_wordpool_576.txt	LTP250	ltpFR2	19	1	BEAST	108	n/a	n/a	0	0	0
316.918	n/a	WORD	158459	wordpools/wasnorm_wordpool_576.txt	LTP250	ltpFR2	19	1	SEAGULL	1261	n/a	n/a	0	0	0
319.45	n/a	WORD	159725	wordpools/wasnorm_wordpool_576.txt	LTP250	ltpFR2	19	1	ASIA	46	n/a	n/a	0	0	0
321.99	n/a	WORD	160995	wordpools/wasnorm_wordpool_576.txt	LTP250	ltpFR2	19	1	CAMEL	223	n/a	n/a	0	0	0
324.772	n/a	WORD	162386	wordpools/wasnorm_wordpool_576.txt	LTP250	ltpFR2	19	1	FARMER	553	n/a	n/a	0	0	0
327.406	n/a	WORD	163703	wordpools/wasnorm_wordpool_576.txt	LTP250	ltpFR2	19	1	HIGHWAY	707	n/a	n/a	0	0	0
330.21	n/a	WORD	165105	wordpools/wasnorm_wordpool_576.txt	LTP250	ltpFR2	19	1	GRAVEL	659	n/a	n/a	0	0	0
331.828	n/a	START	165914	n/a	LTP250	ltpFR2	19	n/a	n/a	n/a	1	n/a	n/a	n/a	n/a
332.936	n/a	DISTRACTOR	166468	n/a	LTP250	ltpFR2	19	1	n/a	n/a	n/a	n/a	0	0	0
332.946	n/a	PROB	166473	n/a	LTP250	ltpFR2	19	n/a	n/a	n/a	1	15	6	3	6
334.896	n/a	PROB	167448	n/a	LTP250	ltpFR2	19	n/a	n/a	n/a	1	12	5	6	1
336.148	n/a	PROB	168074	n/a	LTP250	ltpFR2	19	n/a	n/a	n/a	1	17	6	6	5
338.016	n/a	PROB	169008	n/a	LTP250	ltpFR2	19	n/a	n/a	n/a	1	23	8	7	8
339.934	n/a	PROB	169967	n/a	LTP250	ltpFR2	19	n/a	n/a	n/a	1	12	3	6	3
341.686	n/a	PROB	170843	n/a	LTP250	ltpFR2	19	n/a	n/a	n/a	1	11	6	4	1
342.938	n/a	PROB	171469	n/a	LTP250	ltpFR2	19	n/a	n/a	n/a	1	15	7	2	6
346.374	n/a	PROB	173187	n/a	LTP250	ltpFR2	19	n/a	n/a	n/a	1	18	9	6	3
348.476	n/a	PROB	174238	n/a	LTP250	ltpFR2	19	n/a	n/a	n/a	1	16	7	7	2
349.86	n/a	PROB	174930	n/a	LTP250	ltpFR2	19	n/a	n/a	n/a	1	26	8	9	9
352.078	n/a	PROB	176039	n/a	LTP250	ltpFR2	19	n/a	n/a	n/a	1	7	2	4	1
353.48	n/a	PROB	176740	n/a	LTP250	ltpFR2	19	n/a	n/a	n/a	1	19	8	9	2
355.646	n/a	STOP	177823	n/a	LTP250	ltpFR2	19	n/a	n/a	n/a	1	n/a	n/a	n/a	n/a
357.686	n/a	REC_START	178843	n/a	LTP250	ltpFR2	19	1	n/a	n/a	n/a	n/a	0	0	0
358.15	n/a	REC_WORD	179075	wordpools/wasnorm_wordpool_576.txt	LTP250	ltpFR2	19	1	CAMEL	223	n/a	n/a	0	0	0
358.704	n/a	REC_WORD	179352	wordpools/wasnorm_wordpool_576.txt	LTP250	ltpFR2	19	1	FARMER	553	n/a	n/a	0	0	0
359.334	n/a	REC_WORD	179667	wordpools/wasnorm_wordpool_576.txt	LTP250	ltpFR2	19	1	GRAVEL	659	n/a	n/a	0	0	0
359.82	n/a	REC_WORD	179910	wordpools/wasnorm_wordpool_576.txt	LTP250	ltpFR2	19	1	HIGHWAY	707	n/a	n/a	0	0	0
361.314	n/a	REC_WORD	180657	wordpools/wasnorm_wordpool_576.txt	LTP250	ltpFR2	19	1	APRON	35	n/a	n/a	0	0	0
361.854	n/a	REC_WORD	180927	wordpools/wasnorm_wordpool_576.txt	LTP250	ltpFR2	19	1	APPLE	33	n/a	n/a	0	0	0
362.558	n/a	REC_WORD	181279	wordpools/wasnorm_wordpool_576.txt	LTP250	ltpFR2	19	1	BOURBON	-1	n/a	n/a	0	0	0
363.384	n/a	REC_WORD	181692	wordpools/wasnorm_wordpool_576.txt	LTP250	ltpFR2	19	1	BRANDY	169	n/a	n/a	0	0	0
369.336	n/a	REC_WORD	184668	wordpools/wasnorm_wordpool_576.txt	LTP250	ltpFR2	19	1	EAGLE	512	n/a	n/a	0	0	0
448.138	n/a	WORD	224069	wordpools/wasnorm_wordpool_576.txt	LTP250	ltpFR2	19	2	EGYPT	519	n/a	n/a	0	0	0
450.912	n/a	WORD	225456	wordpools/wasnorm_wordpool_576.txt	LTP250	ltpFR2	19	2	AUTHOR	61	n/a	n/a	0	0	0
453.38	n/a	WORD	226690	wordpools/wasnorm_wordpool_576.txt	LTP250	ltpFR2	19	2	JAPAN	749	n/a	n/a	0	0	0
455.812	n/a	WORD	227906	wordpools/wasnorm_wordpool_576.txt	LTP250	ltpFR2	19	2	JUGGLER	763	n/a	n/a	0	0	0
458.362	n/a	WORD	229181	wordpools/wasnorm_wordpool_576.txt	LTP250	ltpFR2	19	2	TWEEZERS	1526	n/a	n/a	0	0	0
460.898	n/a	WORD	230449	wordpools/wasnorm_wordpool_576.txt	LTP250	ltpFR2	19	2	PECAN	1036	n/a	n/a	0	0	0
463.634	n/a	WORD	231817	wordpools/wasnorm_wordpool_576.txt	LTP250	ltpFR2	19	2	JUDGE	761	n/a	n/a	0	0	0
466.21	n/a	WORD	233105	wordpools/wasnorm_wordpool_576.txt	LTP250	ltpFR2	19	2	HONEY	713	n/a	n/a	0	0	0
469.028	n/a	WORD	234514	wordpools/wasnorm_wordpool_576.txt	LTP250	ltpFR2	19	2	MAPLE	866	n/a	n/a	0	0	0
471.548	n/a	WORD	235774	wordpools/wasnorm_wordpool_576.txt	LTP250	ltpFR2	19	2	RABBIT	1152	n/a	n/a	0	0	0
474.132	n/a	WORD	237066	wordpools/wasnorm_wordpool_576.txt	LTP250	ltpFR2	19	2	LIPSTICK	829	n/a	n/a	0	0	0
476.944	n/a	WORD	238472	wordpools/wasnorm_wordpool_576.txt	LTP250	ltpFR2	19	2	GRAVE	658	n/a	n/a	0	0	0
479.58	n/a	WORD	239790	wordpools/wasnorm_wordpool_576.txt	LTP250	ltpFR2	19	2	ANTLER	29	n/a	n/a	0	0	0
482.156	n/a	WORD	241078	wordpools/wasnorm_wordpool_576.txt	LTP250	ltpFR2	19	2	CHAPEL	280	n/a	n/a	0	0	0
484.86	n/a	WORD	242430	wordpools/wasnorm_wordpool_576.txt	LTP250	ltpFR2	19	2	UMPIRE	1535	n/a	n/a	0	0	0
487.518	n/a	WORD	243759	wordpools/wasnorm_wordpool_576.txt	LTP250	ltpFR2	19	2	PAIL	1002	n/a	n/a	0	0	0
490.312	n/a	WORD	245156	wordpools/wasnorm_wordpool_576.txt	LTP250	ltpFR2	19	2	BLOUSE	139	n/a	n/a	0	0	0
493.048	n/a	WORD	246524	wordpools/wasnorm_wordpool_576.txt	LTP250	ltpFR2	19	2	COUNTRY	388	n/a	n/a	0	0	0
495.584	n/a	WORD	247792	wordpools/wasnorm_wordpool_576.txt	LTP250	ltpFR2	19	2	CASHEW	253	n/a	n/a	0	0	0
498.302	n/a	WORD	249151	wordpools/wasnorm_wordpool_576.txt	LTP250	ltpFR2	19	2	PEANUT	1032	n/a	n/a	0	0	0
500.796	n/a	WORD	250398	wordpools/wasnorm_wordpool_576.txt	LTP250	ltpFR2	19	2	KITCHEN	778	n/a	n/a	0	0	0
503.348	n/a	WORD	251674	wordpools/wasnorm_wordpool_576.txt	LTP250	ltpFR2	19	2	LUNCH	849	n/a	n/a	0	0	0
505.966	n/a	WORD	252983	wordpools/wasnorm_wordpool_576.txt	LTP250	ltpFR2	19	2	RACKET	1155	n/a	n/a	0	0	0
508.744	n/a	WORD	254372	wordpools/wasnorm_wordpool_576.txt	LTP250	ltpFR2	19	2	CLIMBER	323	n/a	n/a	0	0	0
510.352	n/a	START	255176	n/a	LTP250	ltpFR2	19	n/a	n/a	n/a	2	n/a	n/a	n/a	n/a
511.402	n/a	DISTRACTOR	255701	n/a	LTP250	ltpFR2	19	2	n/a	n/a	n/a	n/a	0	0	0
511.414	n/a	PROB	255707	n/a	LTP250	ltpFR2	19	n/a	n/a	n/a	2	10	3	4	3
514.006	n/a	PROB	257003	n/a	LTP250	ltpFR2	19	n/a	n/a	n/a	2	17	7	9	1
515.84	n/a	PROB	257920	n/a	LTP250	ltpFR2	19	n/a	n/a	n/a	2	10	4	1	5
518.194	n/a	PROB	259097	n/a	LTP250	ltpFR2	19	n/a	n/a	n/a	2	11	2	1	8
519.996	n/a	PROB	259998	n/a	LTP250	ltpFR2	19	n/a	n/a	n/a	2	12	1	6	5
521.612	n/a	PROB	260806	n/a	LTP250	ltpFR2	19	n/a	n/a	n/a	2	18	7	7	4
523.98	n/a	PROB	261990	n/a	LTP250	ltpFR2	19	n/a	n/a	n/a	2	18	3	7	8
525.932	n/a	PROB	262966	n/a	LTP250	ltpFR2	19	n/a	n/a	n/a	2	15	9	1	5
527.7	n/a	PROB	263850	n/a	LTP250	ltpFR2	19	n/a	n/a	n/a	2	13	3	1	9
529.034	n/a	PROB	264517	n/a	LTP250	ltpFR2	19	n/a	n/a	n/a	2	23	8	9	6
533.282	n/a	STOP	266641	n/a	LTP250	ltpFR2	19	n/a	n/a	n/a	2	n/a	n/a	n/a	n/a
536.14	n/a	REC_START	268070	n/a	LTP250	ltpFR2	19	2	n/a	n/a	n/a	n/a	0	0	0
536.626	n/a	REC_WORD	268313	wordpools/wasnorm_wordpool_576.txt	LTP250	ltpFR2	19	2	CLIMBER	323	n/a	n/a	0	0	0
537.232	n/a	REC_WORD	268616	wordpools/wasnorm_wordpool_576.txt	LTP250	ltpFR2	19	2	KITCHEN	778	n/a	n/a	0	0	0
539.998	n/a	REC_WORD	269999	wordpools/wasnorm_wordpool_576.txt	LTP250	ltpFR2	19	2	LUNCH	849	n/a	n/a	0	0	0
541.06	n/a	REC_WORD	270530	wordpools/wasnorm_wordpool_576.txt	LTP250	ltpFR2	19	2	MAPLE	866	n/a	n/a	0	0	0
541.838	n/a	REC_WORD	270919	wordpools/wasnorm_wordpool_576.txt	LTP250	ltpFR2	19	2	HONEY	713	n/a	n/a	0	0	0
542.542	n/a	REC_WORD	271271	wordpools/wasnorm_wordpool_576.txt	LTP250	ltpFR2	19	2	PECAN	1036	n/a	n/a	0	0	0
543.336	n/a	REC_WORD	271668	wordpools/wasnorm_wordpool_576.txt	LTP250	ltpFR2	19	2	CASHEW	253	n/a	n/a	0	0	0
544.046	n/a	REC_WORD	272023	wordpools/wasnorm_wordpool_576.txt	LTP250	ltpFR2	19	2	PEANUT	1032	n/a	n/a	0	0	0
545.676	n/a	REC_WORD	272838	wordpools/wasnorm_wordpool_576.txt	LTP250	ltpFR2	19	2	EGYPT	519	n/a	n/a	0	0	0
546.24	n/a	REC_WORD	273120	wordpools/wasnorm_wordpool_576.txt	LTP250	ltpFR2	19	2	JAPAN	749	n/a	n/a	0	0	0
546.974	n/a	REC_WORD	273487	wordpools/wasnorm_wordpool_576.txt	LTP250	ltpFR2	19	2	JUGGLER	763	n/a	n/a	0	0	0
552.6	n/a	REC_WORD	276300	wordpools/wasnorm_wordpool_576.txt	LTP250	ltpFR2	19	2	AUTHOR	61	n/a	n/a	0	0	0
626.61	n/a	WORD	313305	wordpools/wasnorm_wordpool_576.txt	LTP250	ltpFR2	19	3	SCARECROW	1245	n/a	n/a	0	0	0
629.296	n/a	WORD	314648	wordpools/wasnorm_wordpool_576.txt	LTP250	ltpFR2	19	3	MOP	916	n/a	n/a	0	0	0
632.048	n/a	WORD	316024	wordpools/wasnorm_wordpool_576.txt	LTP250	ltpFR2	19	3	BATHTUB	100	n/a	n/a	0	0	0
634.584	n/a	WORD	317292	wordpools/wasnorm_wordpool_576.txt	LTP250	ltpFR2	19	3	OUTFIT	988	n/a	n/a	0	0	0
637.252	n/a	WORD	318626	wordpools/wasnorm_wordpool_576.txt	LTP250	ltpFR2	19	3	BUGGY	188	n/a	n/a	0	0	0
639.97	n/a	WORD	319985	wordpools/wasnorm_wordpool_576.txt	LTP250	ltpFR2	19	3	RIVER	1194	n/a	n/a	0	0	0
642.474	n/a	WORD	321237	wordpools/wasnorm_wordpool_576.txt	LTP250	ltpFR2	19	3	GUITAR	670	n/a	n/a	0	0	0
645.176	n/a	WORD	322588	wordpools/wasnorm_wordpool_576.txt	LTP250	ltpFR2	19	3	TUBA	1515	n/a	n/a	0	0	0
647.728	n/a	WORD	323864	wordpools/wasnorm_wordpool_576.txt	LTP250	ltpFR2	19	3	FIREMAN	569	n/a	n/a	0	0	0
650.396	n/a	WORD	325198	wordpools/wasnorm_wordpool_576.txt	LTP250	ltpFR2	19	3	BEAKER	104	n/a	n/a	0	0	0
653.098	n/a	WORD	326549	wordpools/wasnorm_wordpool_576.txt	LTP250	ltpFR2	19	3	CAFE	216	n/a	n/a	0	0	0
655.752	n/a	WORD	327876	wordpools/wasnorm_wordpool_576.txt	LTP250	ltpFR2	19	3	HOSTESS	723	n/a	n/a	0	0	0
658.502	n/a	WORD	329251	wordpools/wasnorm_wordpool_576.txt	LTP250	ltpFR2	19	3	CROWN	415	n/a	n/a	0	0	0
661.138	n/a	WORD	330569	wordpools/wasnorm_wordpool_576.txt	LTP250	ltpFR2	19	3	SCULPTURE	1258	n/a	n/a	0	0	0
663.56	n/a	WORD	331780	wordpools/wasnorm_wordpool_576.txt	LTP250	ltpFR2	19	3	STALLION	1369	n/a	n/a	0	0	0
666.058	n/a	WORD	333029	wordpools/wasnorm_wordpool_576.txt	LTP250	ltpFR2	19	3	DUSTPAN	509	n/a	n/a	0	0	0
668.56	n/a	WORD	334280	wordpools/wasnorm_wordpool_576.txt	LTP250	ltpFR2	19	3	PARENT	1013	n/a	n/a	0	0	0
671.232	n/a	WORD	335616	wordpools/wasnorm_wordpool_576.txt	LTP250	ltpFR2	19	3	ONION	977	n/a	n/a	0	0	0
673.698	n/a	WORD	336849	wordpools/wasnorm_wordpool_576.txt	LTP250	ltpFR2	19	3	STAR	1373	n/a	n/a	0	0	0
676.486	n/a	WORD	338243	wordpools/wasnorm_wordpool_576.txt	LTP250	ltpFR2	19	3	NAPKIN	937	n/a	n/a	0	0	0
679.036	n/a	WORD	339518	wordpools/wasnorm_wordpool_576.txt	LTP250	ltpFR2	19	3	KLEENEX	782	n/a	n/a	0	0	0
681.676	n/a	WORD	340838	wordpools/wasnorm_wordpool_576.txt	LTP250	ltpFR2	19	3	AIRPLANE	12	n/a	n/a	0	0	0
684.406	n/a	WORD	342203	wordpools/wasnorm_wordpool_576.txt	LTP250	ltpFR2	19	3	GLOVE	642	n/a	n/a	0	0	0
687.192	n/a	WORD	343596	wordpools/wasnorm_wordpool_576.txt	LTP250	ltpFR2	19	3	BROTHER	179	n/a	n/a	0	0	0
688.8	n/a	START	344400	n/a	LTP250	ltpFR2	19	n/a	n/a	n/a	3	n/a	n/a	n/a	n/a
689.65	n/a	DISTRACTOR	344825	n/a	LTP250	ltpFR2	19	3	n/a	n/a	n/a	n/a	0	0	0
689.66	n/a	PROB	344830	n/a	LTP250	ltpFR2	19	n/a	n/a	n/a	3	9	2	1	6
691.41	n/a	PROB	345705	n/a	LTP250	ltpFR2	19	n/a	n/a	n/a	3	13	1	3	9
692.746	n/a	PROB	346373	n/a	LTP250	ltpFR2	19	n/a	n/a	n/a	3	18	8	5	5
694.162	n/a	PROB	347081	n/a	LTP250	ltpFR2	19	n/a	n/a	n/a	3	14	4	3	7
695.88	n/a	PROB	347940	n/a	LTP250	ltpFR2	19	n/a	n/a	n/a	3	20	6	9	5
697.882	n/a	PROB	348941	n/a	LTP250	ltpFR2	19	n/a	n/a	n/a	3	15	8	1	6
700.868	n/a	PROB	350434	n/a	LTP250	ltpFR2	19	n/a	n/a	n/a	3	19	9	6	4
702.318	n/a	PROB	351159	n/a	LTP250	ltpFR2	19	n/a	n/a	n/a	3	15	5	9	1
703.72	n/a	PROB	351860	n/a	LTP250	ltpFR2	19	n/a	n/a	n/a	3	22	7	9	6
706.556	n/a	PROB	353278	n/a	LTP250	ltpFR2	19	n/a	n/a	n/a	3	9	3	4	2
712.798	n/a	STOP	356399	n/a	LTP250	ltpFR2	19	n/a	n/a	n/a	3	n/a	n/a	n/a	n/a
714.628	n/a	REC_START	357314	n/a	LTP250	ltpFR2	19	3	n/a	n/a	n/a	n/a	0	0	0
715.352	n/a	REC_WORD	357676	wordpools/wasnorm_wordpool_576.txt	LTP250	ltpFR2	19	3	CLOUD	328	n/a	n/a	0	0	0
716.052	n/a	REC_WORD	358026	wordpools/wasnorm_wordpool_576.txt	LTP250	ltpFR2	19	3	BROTHER	179	n/a	n/a	0	0	0
716.524	n/a	REC_WORD	358262	wordpools/wasnorm_wordpool_576.txt	LTP250	ltpFR2	19	3	FAMILY	550	n/a	n/a	0	0	0
723.844	n/a	REC_WORD	361922	wordpools/wasnorm_wordpool_576.txt	LTP250	ltpFR2	19	3	GUITAR	670	n/a	n/a	0	0	0
724.73	n/a	REC_WORD	362365	wordpools/wasnorm_wordpool_576.txt	LTP250	ltpFR2	19	3	TUBA	1515	n/a	n/a	0	0	0
805.05	n/a	DISTRACTOR	402525	n/a	LTP250	ltpFR2	19	4	n/a	n/a	n/a	n/a	0	0	0
805.05	n/a	START	402525	n/a	LTP250	ltpFR2	19	n/a	n/a	n/a	4	n/a	n/a	n/a	n/a
805.066	n/a	PROB	402533	n/a	LTP250	ltpFR2	19	n/a	n/a	n/a	4	19	9	7	3
806.834	n/a	PROB	403417	n/a	LTP250	ltpFR2	19	n/a	n/a	n/a	4	13	2	2	9
808.752	n/a	PROB	404376	n/a	LTP250	ltpFR2	19	n/a	n/a	n/a	4	13	1	7	5
810.984	n/a	PROB	405492	n/a	LTP250	ltpFR2	19	n/a	n/a	n/a	4	18	4	8	6
812.702	n/a	PROB	406351	n/a	LTP250	ltpFR2	19	n/a	n/a	n/a	4	16	7	5	4
815.106	n/a	PROB	407553	n/a	LTP250	ltpFR2	19	n/a	n/a	n/a	4	12	2	3	7
816.522	n/a	PROB	408261	n/a	LTP250	ltpFR2	19	n/a	n/a	n/a	4	17	2	9	6
818.542	n/a	PROB	409271	n/a	LTP250	ltpFR2	19	n/a	n/a	n/a	4	17	8	2	7
820.408	n/a	PROB	410204	n/a	LTP250	ltpFR2	19	n/a	n/a	n/a	4	7	1	3	3
822.044	n/a	PROB	411022	n/a	LTP250	ltpFR2	19	n/a	n/a	n/a	4	18	9	2	7
824.296	n/a	PROB	412148	n/a	LTP250	ltpFR2	19	n/a	n/a	n/a	4	6	3	1	2
825.9	n/a	PROB	412950	n/a	LTP250	ltpFR2	19	n/a	n/a	n/a	4	11	2	3	6
827.712	n/a	STOP	413856	n/a	LTP250	ltpFR2	19	n/a	n/a	n/a	4	n/a	n/a	n/a	n/a
830.118	n/a	WORD	415059	wordpools/wasnorm_wordpool_576.txt	LTP250	ltpFR2	19	4	WRENCH	1625	n/a	n/a	0	0	0
832.62	n/a	WORD	416310	wordpools/wasnorm_wordpool_576.txt	LTP250	ltpFR2	19	4	LUMBER	848	n/a	n/a	0	0	0
835.44	n/a	WORD	417720	wordpools/wasnorm_wordpool_576.txt	LTP250	ltpFR2	19	4	NECKLACE	940	n/a	n/a	0	0	0
838.226	n/a	WORD	419113	wordpools/wasnorm_wordpool_576.txt	LTP250	ltpFR2	19	4	PIGEON	1065	n/a	n/a	0	0	0
840.76	n/a	WORD	420380	wordpools/wasnorm_wordpool_576.txt	LTP250	ltpFR2	19	4	DOLPHIN	483	n/a	n/a	0	0	0
843.48	n/a	WORD	421740	wordpools/wasnorm_wordpool_576.txt	LTP250	ltpFR2	19	4	PARTNER	1017	n/a	n/a	0	0	0
846.132	n/a	WORD	423066	wordpools/wasnorm_wordpool_576.txt	LTP250	ltpFR2	19	4	PILOT	1070	n/a	n/a	0	0	0
848.768	n/a	WORD	424384	wordpools/wasnorm_wordpool_576.txt	LTP250	ltpFR2	19	4	AIRPORT	13	n/a	n/a	0	0	0
851.502	n/a	WORD	425751	wordpools/wasnorm_wordpool_576.txt	LTP250	ltpFR2	19	4	GLOBE	641	n/a	n/a	0	0	0
854.172	n/a	WORD	427086	wordpools/wasnorm_wordpool_576.txt	LTP250	ltpFR2	19	4	SILK	1307	n/a	n/a	0	0	0
856.858	n/a	WORD	428429	wordpools/wasnorm_wordpool_576.txt	LTP250	ltpFR2	19	4	WHISTLE	1606	n/a	n/a	0	0	0
859.692	n/a	WORD	429846	wordpools/wasnorm_wordpool_576.txt	LTP250	ltpFR2	19	4	ROBIN	1199	n/a	n/a	0	0	0
862.41	n/a	WORD	431205	wordpools/wasnorm_wordpool_576.txt	LTP250	ltpFR2	19	4	CRATER	400	n/a	n/a	0	0	0
864.948	n/a	WORD	432474	wordpools/wasnorm_wordpool_576.txt	LTP250	ltpFR2	19	4	LONDON	843	n/a	n/a	0	0	0
867.568	n/a	WORD	433784	wordpools/wasnorm_wordpool_576.txt	LTP250	ltpFR2	19	4	POWDER	1117	n/a	n/a	0	0	0
870.268	n/a	WORD	435134	wordpools/wasnorm_wordpool_576.txt	LTP250	ltpFR2	19	4	SERVANT	1271	n/a	n/a	0	0	0
872.904	n/a	WORD	436452	wordpools/wasnorm_wordpool_576.txt	LTP250	ltpFR2	19	4	TURKEY	1520	n/a	n/a	0	0	0
875.422	n/a	WORD	437711	wordpools/wasnorm_wordpool_576.txt	LTP250	ltpFR2	19	4	BANQUET	86	n/a	n/a	0	0	0
877.994	n/a	WORD	438997	wordpools/wasnorm_wordpool_576.txt	LTP250	ltpFR2	19	4	WIDOW	1608	n/a	n/a	0	0	0
880.524	n/a	WORD	440262	wordpools/wasnorm_wordpool_576.txt	LTP250	ltpFR2	19	4	BARLEY	88	n/a	n/a	0	0	0
883.228	n/a	WORD	441614	wordpools/wasnorm_wordpool_576.txt	LTP250	ltpFR2	19	4	DOUGHNUT	490	n/a	n/a	0	0	0
885.88	n/a	WORD	442940	wordpools/wasnorm_wordpool_576.txt	LTP250	ltpFR2	19	4	SPOUSE	1358	n/a	n/a	0	0	0
888.334	n/a	WORD	444167	wordpools/wasnorm_wordpool_576.txt	LTP250	ltpFR2	19	4	GAZELLE	628	n/a	n/a	0	0	0
890.904	n/a	WORD	445452	wordpools/wasnorm_wordpool_576.txt	LTP250	ltpFR2	19	4	CHILD	299	n/a	n/a	0	0	0
892.518	n/a	START	446259	n/a	LTP250	ltpFR2	19	n/a	n/a	n/a	5	n/a	n/a	n/a	n/a
893.408	n/a	DISTRACTOR	446704	n/a	LTP250	ltpFR2	19	4	n/a	n/a	n/a	n/a	0	0	0
893.418	n/a	PROB	446709	n/a	LTP250	ltpFR2	19	n/a	n/a	n/a	5	19	8	4	7
901.306	n/a	PROB	450653	n/a	LTP250	ltpFR2	19	n/a	n/a	n/a	5	18	9	2	7
903.794	n/a	PROB	451897	n/a	LTP250	ltpFR2	19	n/a	n/a	n/a	5	12	4	6	2
905.494	n/a	PROB	452747	n/a	LTP250	ltpFR2	19	n/a	n/a	n/a	5	14	6	3	5
908.646	n/a	PROB	454323	n/a	LTP250	ltpFR2	19	n/a	n/a	n/a	5	17	9	5	3
910.566	n/a	PROB	455283	n/a	LTP250	ltpFR2	19	n/a	n/a	n/a	5	15	4	3	8
912.9	n/a	PROB	456450	n/a	LTP250	ltpFR2	19	n/a	n/a	n/a	5	14	3	9	2
916.518	n/a	STOP	458259	n/a	LTP250	ltpFR2	19	n/a	n/a	n/a	5	n/a	n/a	n/a	n/a
918.456	n/a	REC_START	459228	n/a	LTP250	ltpFR2	19	4	n/a	n/a	n/a	n/a	0	0	0
918.53	n/a	REC_WORD	459265	wordpools/wasnorm_wordpool_576.txt	LTP250	ltpFR2	19	4	SPOUSE	1358	n/a	n/a	0	0	0
919.424	n/a	REC_WORD	459712	wordpools/wasnorm_wordpool_576.txt	LTP250	ltpFR2	19	4	DOUGHNUT	490	n/a	n/a	0	0	0
919.91	n/a	REC_WORD	459955	wordpools/wasnorm_wordpool_576.txt	LTP250	ltpFR2	19	4	GAZELLE	628	n/a	n/a	0	0	0
921.352	n/a	REC_WORD	460676	wordpools/wasnorm_wordpool_576.txt	LTP250	ltpFR2	19	4	CHILD	299	n/a	n/a	0	0	0
922.274	n/a	REC_WORD	461137	wordpools/wasnorm_wordpool_576.txt	LTP250	ltpFR2	19	4	BARLEY	88	n/a	n/a	0	0	0
1008.892	n/a	WORD	504446	wordpools/wasnorm_wordpool_576.txt	LTP250	ltpFR2	19	5	STUDENT	1395	n/a	n/a	0	0	0
1011.606	n/a	WORD	505803	wordpools/wasnorm_wordpool_576.txt	LTP250	ltpFR2	19	5	INFANT	737	n/a	n/a	0	0	0
1014.328	n/a	WORD	507164	wordpools/wasnorm_wordpool_576.txt	LTP250	ltpFR2	19	5	DANCER	437	n/a	n/a	0	0	0
1016.776	n/a	WORD	508388	wordpools/wasnorm_wordpool_576.txt	LTP250	ltpFR2	19	5	BREAST	171	n/a	n/a	0	0	0
1019.366	n/a	WORD	509683	wordpools/wasnorm_wordpool_576.txt	LTP250	ltpFR2	19	5	GRILL	661	n/a	n/a	0	0	0
1021.964	n/a	WORD	510982	wordpools/wasnorm_wordpool_576.txt	LTP250	ltpFR2	19	5	TYPIST	1532	n/a	n/a	0	0	0
1024.67	n/a	WORD	512335	wordpools/wasnorm_wordpool_576.txt	LTP250	ltpFR2	19	5	PRINCE	1124	n/a	n/a	0	0	0
1027.186	n/a	WORD	513593	wordpools/wasnorm_wordpool_576.txt	LTP250	ltpFR2	19	5	LIVER	833	n/a	n/a	0	0	0
1029.854	n/a	WORD	514927	wordpools/wasnorm_wordpool_576.txt	LTP250	ltpFR2	19	5	BRACES	164	n/a	n/a	0	0	0
1032.39	n/a	WORD	516195	wordpools/wasnorm_wordpool_576.txt	LTP250	ltpFR2	19	5	CASHIER	254	n/a	n/a	0	0	0
1034.974	n/a	WORD	517487	wordpools/wasnorm_wordpool_576.txt	LTP250	ltpFR2	19	5	CONTRACT	368	n/a	n/a	0	0	0
1037.694	n/a	WORD	518847	wordpools/wasnorm_wordpool_576.txt	LTP250	ltpFR2	19	5	FRIEND	606	n/a	n/a	0	0	0
1040.28	n/a	WORD	520140	wordpools/wasnorm_wordpool_576.txt	LTP250	ltpFR2	19	5	BABY	64	n/a	n/a	0	0	0
1042.966	n/a	WORD	521483	wordpools/wasnorm_wordpool_576.txt	LTP250	ltpFR2	19	5	SURVEY	1414	n/a	n/a	0	0	0
1045.47	n/a	WORD	522735	wordpools/wasnorm_wordpool_576.txt	LTP250	ltpFR2	19	5	LUGGAGE	847	n/a	n/a	0	0	0
1048.274	n/a	WORD	524137	wordpools/wasnorm_wordpool_576.txt	LTP250	ltpFR2	19	5	THRONE	1461	n/a	n/a	0	0	0
1050.776	n/a	WORD	525388	wordpools/wasnorm_wordpool_576.txt	LTP250	ltpFR2	19	5	MATCH	878	n/a	n/a	0	0	0
1053.34	n/a	WORD	526670	wordpools/wasnorm_wordpool_576.txt	LTP250	ltpFR2	19	5	RADISH	1158	n/a	n/a	0	0	0
1055.894	n/a	WORD	527947	wordpools/wasnorm_wordpool_576.txt	LTP250	ltpFR2	19	5	RELISH	1183	n/a	n/a	0	0	0
1058.412	n/a	WORD	529206	wordpools/wasnorm_wordpool_576.txt	LTP250	ltpFR2	19	5	WORKER	1621	n/a	n/a	0	0	0
1060.946	n/a	WORD	530473	wordpools/wasnorm_wordpool_576.txt	LTP250	ltpFR2	19	5	PLIERS	1089	n/a	n/a	0	0	0
1063.566	n/a	WORD	531783	wordpools/wasnorm_wordpool_576.txt	LTP250	ltpFR2	19	5	PEPPER	1047	n/a	n/a	0	0	0
1065.986	n/a	WORD	532993	wordpools/wasnorm_wordpool_576.txt	LTP250	ltpFR2	19	5	POSSUM	1112	n/a	n/a	0	0	0
1068.588	n/a	WORD	534294	wordpools/wasnorm_wordpool_576.txt	LTP250	ltpFR2	19	5	CHIPMUNK	304	n/a	n/a	0	0	0
1070.206	n/a	START	535103	n/a	LTP250	ltpFR2	19	n/a	n/a	n/a	6	n/a	n/a	n/a	n/a
1071.158	n/a	DISTRACTOR	535579	n/a	LTP250	ltpFR2	19	5	n/a	n/a	n/a	n/a	0	0	0
1071.172	n/a	PROB	535586	n/a	LTP250	ltpFR2	19	n/a	n/a	n/a	6	8	3	2	3
1073.008	n/a	PROB	536504	n/a	LTP250	ltpFR2	19	n/a	n/a	n/a	6	12	6	1	3
1074.874	n/a	PROB	537437	n/a	LTP250	ltpFR2	19	n/a	n/a	n/a	6	15	8	5	2
1076.796	n/a	PROB	538398	n/a	LTP250	ltpFR2	19	n/a	n/a	n/a	6	10	1	6	3
1078.732	n/a	PROB	539366	n/a	LTP250	ltpFR2	19	n/a	n/a	n/a	6	20	9	3	8
1080.312	n/a	PROB	540156	n/a	LTP250	ltpFR2	19	n/a	n/a	n/a	6	14	7	3	4
1081.766	n/a	PROB	540883	n/a	LTP250	ltpFR2	19	n/a	n/a	n/a	6	19	3	9	7
1083.884	n/a	PROB	541942	n/a	LTP250	ltpFR2	19	n/a	n/a	n/a	6	13	3	6	4
1085.984	n/a	PROB	542992	n/a	LTP250	ltpFR2	19	n/a	n/a	n/a	6	11	2	4	5
1088.402	n/a	PROB	544201	n/a	LTP250	ltpFR2	19	n/a	n/a	n/a	6	11	2	8	1
1089.772	n/a	PROB	544886	n/a	LTP250	ltpFR2	19	n/a	n/a	n/a	6	15	5	5	5
1090.972	n/a	PROB	545486	n/a	LTP250	ltpFR2	19	n/a	n/a	n/a	6	17	5	3	9
1093.022	n/a	STOP	546511	n/a	LTP250	ltpFR2	19	n/a	n/a	n/a	6	n/a	n/a	n/a	n/a
1095.994	n/a	REC_START	547997	n/a	LTP250	ltpFR2	19	5	n/a	n/a	n/a	n/a	0	0	0
1096.216	n/a	REC_WORD	548108	wordpools/wasnorm_wordpool_576.txt	LTP250	ltpFR2	19	5	PLIERS	1089	n/a	n/a	0	0	0
1096.868	n/a	REC_WORD	548434	wordpools/wasnorm_wordpool_576.txt	LTP250	ltpFR2	19	5	PEPPER	1047	n/a	n/a	0	0	0
1097.336	n/a	REC_WORD	548668	wordpools/wasnorm_wordpool_576.txt	LTP250	ltpFR2	19	5	CHIPMUNK	304	n/a	n/a	0	0	0
1186.43	n/a	WORD	593215	wordpools/wasnorm_wordpool_576.txt	LTP250	ltpFR2	19	6	THIEF	1456	n/a	n/a	0	0	0
1189.072	n/a	WORD	594536	wordpools/wasnorm_wordpool_576.txt	LTP250	ltpFR2	19	6	CONVICT	371	n/a	n/a	0	0	0
1191.886	n/a	WORD	595943	wordpools/wasnorm_wordpool_576.txt	LTP250	ltpFR2	19	6	DIME	466	n/a	n/a	0	0	0
1194.486	n/a	WORD	597243	wordpools/wasnorm_wordpool_576.txt	LTP250	ltpFR2	19	6	DINER	467	n/a	n/a	0	0	0
1197.29	n/a	WORD	598645	wordpools/wasnorm_wordpool_576.txt	LTP250	ltpFR2	19	6	GIFT	635	n/a	n/a	0	0	0
1199.892	n/a	WORD	599946	wordpools/wasnorm_wordpool_576.txt	LTP250	ltpFR2	19	6	ACTOR	5	n/a	n/a	0	0	0
1202.578	n/a	WORD	601289	wordpools/wasnorm_wordpool_576.txt	LTP250	ltpFR2	19	6	RECEIPT	1173	n/a	n/a	0	0	0
1205.102	n/a	WORD	602551	wordpools/wasnorm_wordpool_576.txt	LTP250	ltpFR2	19	6	FOREHEAD	592	n/a	n/a	0	0	0
1207.856	n/a	WORD	603928	wordpools/wasnorm_wordpool_576.txt	LTP250	ltpFR2	19	6	FRECKLE	602	n/a	n/a	0	0	0
1210.332	n/a	WORD	605166	wordpools/wasnorm_wordpool_576.txt	LTP250	ltpFR2	19	6	YACHT	1629	n/a	n/a	0	0	0
1213.06	n/a	WORD	606530	wordpools/wasnorm_wordpool_576.txt	LTP250	ltpFR2	19	6	MARINE	869	n/a	n/a	0	0	0
1215.486	n/a	WORD	607743	wordpools/wasnorm_wordpool_576.txt	LTP250	ltpFR2	19	6	PIANO	1057	n/a	n/a	0	0	0
1218.264	n/a	WORD	609132	wordpools/wasnorm_wordpool_576.txt	LTP250	ltpFR2	19	6	BANKER	84	n/a	n/a	0	0	0
1220.992	n/a	WORD	610496	wordpools/wasnorm_wordpool_576.txt	LTP250	ltpFR2	19	6	SHOULDER	1294	n/a	n/a	0	0	0
1223.744	n/a	WORD	611872	wordpools/wasnorm_wordpool_576.txt	LTP250	ltpFR2	19	6	SODA	1341	n/a	n/a	0	0	0
1226.496	n/a	WORD	613248	wordpools/wasnorm_wordpool_576.txt	LTP250	ltpFR2	19	6	LEADER	807	n/a	n/a	0	0	0
1229.042	n/a	WORD	614521	wordpools/wasnorm_wordpool_576.txt	LTP250	ltpFR2	19	6	WAITER	1580	n/a	n/a	0	0	0
1231.616	n/a	WORD	615808	wordpools/wasnorm_wordpool_576.txt	LTP250	ltpFR2	19	6	GALLON	618	n/a	n/a	0	0	0
1234.086	n/a	WORD	617043	wordpools/wasnorm_wordpool_576.txt	LTP250	ltpFR2	19	6	COUCH	386	n/a	n/a	0	0	0
1236.664	n/a	WORD	618332	wordpools/wasnorm_wordpool_576.txt	LTP250	ltpFR2	19	6	MARKET	871	n/a	n/a	0	0	0
1239.1	n/a	WORD	619550	wordpools/wasnorm_wordpool_576.txt	LTP250	ltpFR2	19	6	HEART	697	n/a	n/a	0	0	0
1241.774	n/a	WORD	620887	wordpools/wasnorm_wordpool_576.txt	LTP250	ltpFR2	19	6	COOKBOOK	373	n/a	n/a	0	0	0
1244.236	n/a	WORD	622118	wordpools/wasnorm_wordpool_576.txt	LTP250	ltpFR2	19	6	DONKEY	484	n/a	n/a	0	0	0
1246.756	n/a	WORD	623378	wordpools/wasnorm_wordpool_576.txt	LTP250	ltpFR2	19	6	PREACHER	1119	n/a	n/a	0	0	0
1248.364	n/a	START	624182	n/a	LTP250	ltpFR2	19	n/a	n/a	n/a	7	n/a	n/a	n/a	n/a
1249.318	n/a	DISTRACTOR	624659	n/a	LTP250	ltpFR2	19	6	n/a	n/a	n/a	n/a	0	0	0
1249.324	n/a	PROB	624662	n/a	LTP250	ltpFR2	19	n/a	n/a	n/a	7	13	4	6	3
1251.666	n/a	PROB	625833	n/a	LTP250	ltpFR2	19	n/a	n/a	n/a	7	18	6	3	9
1253.6	n/a	PROB	626800	n/a	LTP250	ltpFR2	19	n/a	n/a	n/a	7	16	6	8	2
1255.168	n/a	PROB	627584	n/a	LTP250	ltpFR2	19	n/a	n/a	n/a	7	22	6	7	9
1258.872	n/a	PROB	629436	n/a	LTP250	ltpFR2	19	n/a	n/a	n/a	7	17	6	9	2
1260.806	n/a	PROB	630403	n/a	LTP250	ltpFR2	19	n/a	n/a	n/a	7	11	3	7	1
1261.974	n/a	PROB	630987	n/a	LTP250	ltpFR2	19	n/a	n/a	n/a	7	15	4	6	5
1263.258	n/a	PROB	631629	n/a	LTP250	ltpFR2	19	n/a	n/a	n/a	7	11	1	8	2
1264.892	n/a	PROB	632446	n/a	LTP250	ltpFR2	19	n/a	n/a	n/a	7	16	7	5	4
1266.944	n/a	PROB	633472	n/a	LTP250	ltpFR2	19	n/a	n/a	n/a	7	19	7	6	6
1268.812	n/a	PROB	634406	n/a	LTP250	ltpFR2	19	n/a	n/a	n/a	7	20	8	5	9
1272.364	n/a	STOP	636182	n/a	LTP250	ltpFR2	19	n/a	n/a	n/a	7	n/a	n/a	n/a	n/a
1274.2	n/a	REC_START	637100	n/a	LTP250	ltpFR2	19	6	n/a	n/a	n/a	n/a	0	0	0
1275.38	n/a	REC_WORD	637690	wordpools/wasnorm_wordpool_576.txt	LTP250	ltpFR2	19	6	SHOULDER	1294	n/a	n/a	0	0	0
1275.994	n/a	REC_WORD	637997	wordpools/wasnorm_wordpool_576.txt	LTP250	ltpFR2	19	6	FOREHEAD	592	n/a	n/a	0	0	0
1276.62	n/a	REC_WORD	638310	wordpools/wasnorm_wordpool_576.txt	LTP250	ltpFR2	19	6	HEART	697	n/a	n/a	0	0	0
1277.184	n/a	REC_WORD	638592	wordpools/wasnorm_wordpool_576.txt	LTP250	ltpFR2	19	6	FRECKLE	602	n/a	n/a	0	0	0
1279.126	n/a	REC_WORD	639563	wordpools/wasnorm_wordpool_576.txt	LTP250	ltpFR2	19	6	BANKER	84	n/a	n/a	0	0	0
1279.822	n/a	REC_WORD	639911	wordpools/wasnorm_wordpool_576.txt	LTP250	ltpFR2	19	6	LEADER	807	n/a	n/a	0	0	0
1282.226	n/a	REC_WORD	641113	wordpools/wasnorm_wordpool_576.txt	LTP250	ltpFR2	19	6	MARINE	869	n/a	n/a	0	0	0
1283.118	n/a	REC_WORD	641559	wordpools/wasnorm_wordpool_576.txt	LTP250	ltpFR2	19	6	YACHT	1629	n/a	n/a	0	0	0
1285.238	n/a	REC_WORD	642619	wordpools/wasnorm_wordpool_576.txt	LTP250	ltpFR2	19	6	COUCH	386	n/a	n/a	0	0	0
1286.026	n/a	REC_WORD	643013	wordpools/wasnorm_wordpool_576.txt	LTP250	ltpFR2	19	6	PIANO	1057	n/a	n/a	0	0	0
1289.066	n/a	REC_WORD	644533	wordpools/wasnorm_wordpool_576.txt	LTP250	ltpFR2	19	6	THIEF	1456	n/a	n/a	0	0	0
1290.188	n/a	REC_WORD	645094	wordpools/wasnorm_wordpool_576.txt	LTP250	ltpFR2	19	6	CONVICT	371	n/a	n/a	0	0	0
1293.612	n/a	REC_WORD	646806	wordpools/wasnorm_wordpool_576.txt	LTP250	ltpFR2	19	6	WAITER	1580	n/a	n/a	0	0	0
1294.59	n/a	REC_WORD	647295	wordpools/wasnorm_wordpool_576.txt	LTP250	ltpFR2	19	6	GALLON	618	n/a	n/a	0	0	0
1295.658	n/a	REC_WORD	647829	wordpools/wasnorm_wordpool_576.txt	LTP250	ltpFR2	19	6	COOKBOOK	373	n/a	n/a	0	0	0
1296.946	n/a	REC_WORD	648473	wordpools/wasnorm_wordpool_576.txt	LTP250	ltpFR2	19	6	SODA	1341	n/a	n/a	0	0	0
1298.978	n/a	REC_WORD	649489	wordpools/wasnorm_wordpool_576.txt	LTP250	ltpFR2	19	6	DIME	466	n/a	n/a	0	0	0
1300.132	n/a	REC_WORD	650066	wordpools/wasnorm_wordpool_576.txt	LTP250	ltpFR2	19	6	DINER	467	n/a	n/a	0	0	0
1364.654	n/a	DISTRACTOR	682327	n/a	LTP250	ltpFR2	19	7	n/a	n/a	n/a	n/a	0	0	0
1364.654	n/a	START	682327	n/a	LTP250	ltpFR2	19	n/a	n/a	n/a	8	n/a	n/a	n/a	n/a
1364.67	n/a	PROB	682335	n/a	LTP250	ltpFR2	19	n/a	n/a	n/a	8	17	1	8	8
1366.77	n/a	PROB	683385	n/a	LTP250	ltpFR2	19	n/a	n/a	n/a	8	8	1	4	3
1368.37	n/a	PROB	684185	n/a	LTP250	ltpFR2	19	n/a	n/a	n/a	8	10	2	1	7
1369.59	n/a	PROB	684795	n/a	LTP250	ltpFR2	19	n/a	n/a	n/a	8	19	7	5	7
1371.276	n/a	PROB	685638	n/a	LTP250	ltpFR2	19	n/a	n/a	n/a	8	18	8	8	2
1372.71	n/a	PROB	686355	n/a	LTP250	ltpFR2	19	n/a	n/a	n/a	8	18	6	6	6
1374.76	n/a	PROB	687380	n/a	LTP250	ltpFR2	19	n/a	n/a	n/a	8	16	8	4	4
1376.594	n/a	PROB	688297	n/a	LTP250	ltpFR2	19	n/a	n/a	n/a	8	24	9	9	6
1379.314	n/a	PROB	689657	n/a	LTP250	ltpFR2	19	n/a	n/a	n/a	8	18	2	9	7
1381.098	n/a	PROB	690549	n/a	LTP250	ltpFR2	19	n/a	n/a	n/a	8	10	1	8	1
1382.298	n/a	PROB	691149	n/a	LTP250	ltpFR2	19	n/a	n/a	n/a	8	19	4	8	7
1385.636	n/a	PROB	692818	n/a	LTP250	ltpFR2	19	n/a	n/a	n/a	8	16	6	1	9
1388.654	n/a	STOP	694327	n/a	LTP250	ltpFR2	19	n/a	n/a	n/a	8	n/a	n/a	n/a	n/a
1389.858	n/a	WORD	694929	wordpools/wasnorm_wordpool_576.txt	LTP250	ltpFR2	19	7	JELLO	754	n/a	n/a	0	0	0
1392.464	n/a	WORD	696232	wordpools/wasnorm_wordpool_576.txt	LTP250	ltpFR2	19	7	BUG	187	n/a	n/a	0	0	0
1394.91	n/a	WORD	697455	wordpools/wasnorm_wordpool_576.txt	LTP250	ltpFR2	19	7	WAITRESS	1581	n/a	n/a	0	0	0
1397.696	n/a	WORD	698848	wordpools/wasnorm_wordpool_576.txt	LTP250	ltpFR2	19	7	GANGSTER	620	n/a	n/a	0	0	0
1400.448	n/a	WORD	700224	wordpools/wasnorm_wordpool_576.txt	LTP250	ltpFR2	19	7	CUSTARD	429	n/a	n/a	0	0	0
1403.168	n/a	WORD	701584	wordpools/wasnorm_wordpool_576.txt	LTP250	ltpFR2	19	7	SCALLOP	1242	n/a	n/a	0	0	0
1405.786	n/a	WORD	702893	wordpools/wasnorm_wordpool_576.txt	LTP250	ltpFR2	19	7	BRANCH	168	n/a	n/a	0	0	0
1408.238	n/a	WORD	704119	wordpools/wasnorm_wordpool_576.txt	LTP250	ltpFR2	19	7	QUEEN	1149	n/a	n/a	0	0	0
1410.888	n/a	WORD	705444	wordpools/wasnorm_wordpool_576.txt	LTP250	ltpFR2	19	7	ITEM	746	n/a	n/a	0	0	0
1413.564	n/a	WORD	706782	wordpools/wasnorm_wordpool_576.txt	LTP250	ltpFR2	19	7	CORAL	378	n/a	n/a	0	0	0
1415.994	n/a	WORD	707997	wordpools/wasnorm_wordpool_576.txt	LTP250	ltpFR2	19	7	GLASS	639	n/a	n/a	0	0	0
1418.444	n/a	WORD	709222	wordpools/wasnorm_wordpool_576.txt	LTP250	ltpFR2	19	7	WINDOW	1611	n/a	n/a	0	0	0
1420.97	n/a	WORD	710485	wordpools/wasnorm_wordpool_576.txt	LTP250	ltpFR2	19	7	MACHINE	852	n/a	n/a	0	0	0
1423.684	n/a	WORD	711842	wordpools/wasnorm_wordpool_576.txt	LTP250	ltpFR2	19	7	TEACHER	1440	n/a	n/a	0	0	0
1426.102	n/a	WORD	713051	wordpools/wasnorm_wordpool_576.txt	LTP250	ltpFR2	19	7	SCARF	1246	n/a	n/a	0	0	0
1428.738	n/a	WORD	714369	wordpools/wasnorm_wordpool_576.txt	LTP250	ltpFR2	19	7	CRUTCH	417	n/a	n/a	0	0	0
1431.388	n/a	WORD	715694	wordpools/wasnorm_wordpool_576.txt	LTP250	ltpFR2	19	7	OINTMENT	974	n/a	n/a	0	0	0
1434.032	n/a	WORD	717016	wordpools/wasnorm_wordpool_576.txt	LTP250	ltpFR2	19	7	EYELASH	546	n/a	n/a	0	0	0
1436.834	n/a	WORD	718417	wordpools/wasnorm_wordpool_576.txt	LTP250	ltpFR2	19	7	BUBBLE	183	n/a	n/a	0	0	0
1439.462	n/a	WORD	719731	wordpools/wasnorm_wordpool_576.txt	LTP250	ltpFR2	19	7	SPARROW	1347	n/a	n/a	0	0	0
1442.032	n/a	WORD	721016	wordpools/wasnorm_wordpool_576.txt	LTP250	ltpFR2	19	7	SUNSET	1408	n/a	n/a	0	0	0
1444.658	n/a	WORD	722329	wordpools/wasnorm_wordpool_576.txt	LTP250	ltpFR2	19	7	FREEZER	604	n/a	n/a	0	0	0
1447.16	n/a	WORD	723580	wordpools/wasnorm_wordpool_576.txt	LTP250	ltpFR2	19	7	PEDAL	1037	n/a	n/a	0	0	0
1449.62	n/a	WORD	724810	wordpools/wasnorm_wordpool_576.txt	LTP250	ltpFR2	19	7	BIKE	125	n/a	n/a	0	0	0
1451.23	n/a	START	725615	n/a	LTP250	ltpFR2	19	n/a	n/a	n/a	9	n/a	n/a	n/a	n/a
1452.036	n/a	DISTRACTOR	726018	n/a	LTP250	ltpFR2	19	7	n/a	n/a	n/a	n/a	0	0	0
1452.046	n/a	PROB	726023	n/a	LTP250	ltpFR2	19	n/a	n/a	n/a	9	14	1	7	6
1455.074	n/a	PROB	727537	n/a	LTP250	ltpFR2	19	n/a	n/a	n/a	9	8	4	2	2
1456.824	n/a	PROB	728412	n/a	LTP250	ltpFR2	19	n/a	n/a	n/a	9	15	5	3	7
1458.21	n/a	PROB	729105	n/a	LTP250	ltpFR2	19	n/a	n/a	n/a	9	19	9	2	1
1460.246	n/a	PROB	730123	n/a	LTP250	ltpFR2	19	n/a	n/a	n/a	9	11	1	9	1
1462.728	n/a	PROB	731364	n/a	LTP250	ltpFR2	19	n/a	n/a	n/a	9	20	9	5	6
1464.646	n/a	PROB	732323	n/a	LTP250	ltpFR2	19	n/a	n/a	n/a	9	13	5	2	6
1467.682	n/a	PROB	733841	n/a	LTP250	ltpFR2	19	n/a	n/a	n/a	9	22	6	8	9
1469.718	n/a	PROB	734859	n/a	LTP250	ltpFR2	19	n/a	n/a	n/a	9	20	7	6	9
1475.23	n/a	STOP	737615	n/a	LTP250	ltpFR2	19	n/a	n/a	n/a	9	n/a	n/a	n/a	n/a
1477.108	n/a	REC_START	738554	n/a	LTP250	ltpFR2	19	7	n/a	n/a	n/a	n/a	0	0	0
1477.924	n/a	REC_WORD	738962	wordpools/wasnorm_wordpool_576.txt	LTP250	ltpFR2	19	7	FREEZER	604	n/a	n/a	0	0	0
1478.646	n/a	REC_WORD	739323	wordpools/wasnorm_wordpool_576.txt	LTP250	ltpFR2	19	7	PEDAL	1037	n/a	n/a	0	0	0
1479.296	n/a	REC_WORD	739648	wordpools/wasnorm_wordpool_576.txt	LTP250	ltpFR2	19	7	BIKE	125	n/a	n/a	0	0	0
1479.882	n/a	REC_WORD	739941	wordpools/wasnorm_wordpool_576.txt	LTP250	ltpFR2	19	7	CUSTARD	429	n/a	n/a	0	0	0
1480.502	n/a	REC_WORD	740251	wordpools/wasnorm_wordpool_576.txt	LTP250	ltpFR2	19	7	SCALLOP	1242	n/a	n/a	0	0	0
1483.224	n/a	REC_WORD	741612	wordpools/wasnorm_wordpool_576.txt	LTP250	ltpFR2	19	7	JELLO	754	n/a	n/a	0	0	0
1483.992	n/a	REC_WORD	741996	wordpools/wasnorm_wordpool_576.txt	LTP250	ltpFR2	19	7	BUG	187	n/a	n/a	0	0	0
1484.648	n/a	REC_WORD	742324	wordpools/wasnorm_wordpool_576.txt	LTP250	ltpFR2	19	7	BRANCH	168	n/a	n/a	0	0	0
1485.442	n/a	REC_WORD	742721	wordpools/wasnorm_wordpool_576.txt	LTP250	ltpFR2	19	7	CORAL	378	n/a	n/a	0	0	0
1486.226	n/a	REC_WORD	743113	wordpools/wasnorm_wordpool_576.txt	LTP250	ltpFR2	19	7	GLASS	639	n/a	n/a	0	0	0
1487.048	n/a	REC_WORD	743524	wordpools/wasnorm_wordpool_576.txt	LTP250	ltpFR2	19	7	WINDOW	1611	n/a	n/a	0	0	0
1492.836	n/a	REC_WORD	746418	wordpools/wasnorm_wordpool_576.txt	LTP250	ltpFR2	19	7	TEACHER	1440	n/a	n/a	0	0	0
1493.532	n/a	REC_WORD	746766	wordpools/wasnorm_wordpool_576.txt	LTP250	ltpFR2	19	7	QUEEN	1149	n/a	n/a	0	0	0
1567.562	n/a	DISTRACTOR	783781	n/a	LTP250	ltpFR2	19	8	n/a	n/a	n/a	n/a	0	0	0
1567.562	n/a	START	783781	n/a	LTP250	ltpFR2	19	n/a	n/a	n/a	10	n/a	n/a	n/a	n/a
1567.578	n/a	PROB	783789	n/a	LTP250	ltpFR2	19	n/a	n/a	n/a	10	19	9	3	7
1569.328	n/a	PROB	784664	n/a	LTP250	ltpFR2	19	n/a	n/a	n/a	10	6	2	1	3
1571.046	n/a	PROB	785523	n/a	LTP250	ltpFR2	19	n/a	n/a	n/a	10	11	1	6	4
1572.332	n/a	PROB	786166	n/a	LTP250	ltpFR2	19	n/a	n/a	n/a	10	21	5	8	8
1574.536	n/a	PROB	787268	n/a	LTP250	ltpFR2	19	n/a	n/a	n/a	10	8	3	3	2
1576.236	n/a	PROB	788118	n/a	LTP250	ltpFR2	19	n/a	n/a	n/a	10	16	2	7	7
1577.936	n/a	PROB	788968	n/a	LTP250	ltpFR2	19	n/a	n/a	n/a	10	6	2	1	3
1579.872	n/a	PROB	789936	n/a	LTP250	ltpFR2	19	n/a	n/a	n/a	10	11	4	6	1
1581.124	n/a	PROB	790562	n/a	LTP250	ltpFR2	19	n/a	n/a	n/a	10	16	7	6	3
1582.956	n/a	PROB	791478	n/a	LTP250	ltpFR2	19	n/a	n/a	n/a	10	20	8	5	7
1585.29	n/a	PROB	792645	n/a	LTP250	ltpFR2	19	n/a	n/a	n/a	10	16	4	4	8
1586.926	n/a	PROB	793463	n/a	LTP250	ltpFR2	19	n/a	n/a	n/a	10	15	1	9	5
1588.81	n/a	PROB	794405	n/a	LTP250	ltpFR2	19	n/a	n/a	n/a	10	13	3	4	6
1590.23	n/a	STOP	795115	n/a	LTP250	ltpFR2	19	n/a	n/a	n/a	10	n/a	n/a	n/a	n/a
1592.396	n/a	WORD	796198	wordpools/wasnorm_wordpool_576.txt	LTP250	ltpFR2	19	8	ORANGE	980	n/a	n/a	0	0	0
1595.2	n/a	WORD	797600	wordpools/wasnorm_wordpool_576.txt	LTP250	ltpFR2	19	8	BARREL	91	n/a	n/a	0	0	0
1597.92	n/a	WORD	798960	wordpools/wasnorm_wordpool_576.txt	LTP250	ltpFR2	19	8	MONSTER	912	n/a	n/a	0	0	0
1600.572	n/a	WORD	800286	wordpools/wasnorm_wordpool_576.txt	LTP250	ltpFR2	19	8	PARROT	1015	n/a	n/a	0	0	0
1603.19	n/a	WORD	801595	wordpools/wasnorm_wordpool_576.txt	LTP250	ltpFR2	19	8	FRAME	600	n/a	n/a	0	0	0
1605.926	n/a	WORD	802963	wordpools/wasnorm_wordpool_576.txt	LTP250	ltpFR2	19	8	ZIPPER	1636	n/a	n/a	0	0	0
1608.678	n/a	WORD	804339	wordpools/wasnorm_wordpool_576.txt	LTP250	ltpFR2	19	8	PLAID	1080	n/a	n/a	0	0	0
1611.264	n/a	WORD	805632	wordpools/wasnorm_wordpool_576.txt	LTP250	ltpFR2	19	8	SHARK	1275	n/a	n/a	0	0	0
1613.866	n/a	WORD	806933	wordpools/wasnorm_wordpool_576.txt	LTP250	ltpFR2	19	8	SCALPEL	1243	n/a	n/a	0	0	0
1616.368	n/a	WORD	808184	wordpools/wasnorm_wordpool_576.txt	LTP250	ltpFR2	19	8	IGLOO	734	n/a	n/a	0	0	0
1618.968	n/a	WORD	809484	wordpools/wasnorm_wordpool_576.txt	LTP250	ltpFR2	19	8	PUPIL	1143	n/a	n/a	0	0	0
1621.77	n/a	WORD	810885	wordpools/wasnorm_wordpool_576.txt	LTP250	ltpFR2	19	8	NOMAD	955	n/a	n/a	0	0	0
1624.29	n/a	WORD	812145	wordpools/wasnorm_wordpool_576.txt	LTP250	ltpFR2	19	8	ROOSTER	1209	n/a	n/a	0	0	0
1626.978	n/a	WORD	813489	wordpools/wasnorm_wordpool_576.txt	LTP250	ltpFR2	19	8	HAWK	692	n/a	n/a	0	0	0
1629.528	n/a	WORD	814764	wordpools/wasnorm_wordpool_576.txt	LTP250	ltpFR2	19	8	FUNGUS	614	n/a	n/a	0	0	0
1632.012	n/a	WORD	816006	wordpools/wasnorm_wordpool_576.txt	LTP250	ltpFR2	19	8	GAVEL	627	n/a	n/a	0	0	0
1634.78	n/a	WORD	817390	wordpools/wasnorm_wordpool_576.txt	LTP250	ltpFR2	19	8	TRIBE	1505	n/a	n/a	0	0	0
1637.432	n/a	WORD	818716	wordpools/wasnorm_wordpool_576.txt	LTP250	ltpFR2	19	8	DENTIST	447	n/a	n/a	0	0	0
1640.186	n/a	WORD	820093	wordpools/wasnorm_wordpool_576.txt	LTP250	ltpFR2	19	8	COWBOY	395	n/a	n/a	0	0	0
1642.97	n/a	WORD	821485	wordpools/wasnorm_wordpool_576.txt	LTP250	ltpFR2	19	8	TERMITE	1451	n/a	n/a	0	0	0
1645.524	n/a	WORD	822762	wordpools/wasnorm_wordpool_576.txt	LTP250	ltpFR2	19	8	SOFTBALL	1343	n/a	n/a	0	0	0
1648.296	n/a	WORD	824148	wordpools/wasnorm_wordpool_576.txt	LTP250	ltpFR2	19	8	SNACK	1331	n/a	n/a	0	0	0
1650.726	n/a	WORD	825363	wordpools/wasnorm_wordpool_576.txt	LTP250	ltpFR2	19	8	PICNIC	1060	n/a	n/a	0	0	0
1653.53	n/a	WORD	826765	wordpools/wasnorm_wordpool_576.txt	LTP250	ltpFR2	19	8	ICEBERG	731	n/a	n/a	0	0	0
1655.136	n/a	START	827568	n/a	LTP250	ltpFR2	19	n/a	n/a	n/a	11	n/a	n/a	n/a	n/a
1656.266	n/a	DISTRACTOR	828133	n/a	LTP250	ltpFR2	19	8	n/a	n/a	n/a	n/a	0	0	0
1656.28	n/a	PROB	828140	n/a	LTP250	ltpFR2	19	n/a	n/a	n/a	11	19	4	9	6
1658.016	n/a	PROB	829008	n/a	LTP250	ltpFR2	19	n/a	n/a	n/a	11	14	3	3	8
1660.2	n/a	PROB	830100	n/a	LTP250	ltpFR2	19	n/a	n/a	n/a	11	9	4	4	1
1662.202	n/a	PROB	831101	n/a	LTP250	ltpFR2	19	n/a	n/a	n/a	11	13	6	2	5
1664.452	n/a	PROB	832226	n/a	LTP250	ltpFR2	19	n/a	n/a	n/a	11	18	9	2	7
1666.554	n/a	PROB	833277	n/a	LTP250	ltpFR2	19	n/a	n/a	n/a	11	21	9	6	6
1668.174	n/a	PROB	834087	n/a	LTP250	ltpFR2	19	n/a	n/a	n/a	11	19	6	7	9
1671.81	n/a	PROB	835905	n/a	LTP250	ltpFR2	19	n/a	n/a	n/a	11	17	4	6	7
1675.746	n/a	PROB	837873	n/a	LTP250	ltpFR2	19	n/a	n/a	n/a	11	17	7	6	4
1679.136	n/a	STOP	839568	n/a	LTP250	ltpFR2	19	n/a	n/a	n/a	11	n/a	n/a	n/a	n/a
1680.9	n/a	REC_START	840450	n/a	LTP250	ltpFR2	19	8	n/a	n/a	n/a	n/a	0	0	0
1682.644	n/a	REC_WORD	841322	wordpools/wasnorm_wordpool_576.txt	LTP250	ltpFR2	19	8	TERMITE	1451	n/a	n/a	0	0	0
1683.39	n/a	REC_WORD	841695	wordpools/wasnorm_wordpool_576.txt	LTP250	ltpFR2	19	8	PICNIC	1060	n/a	n/a	0	0	0
1685.154	n/a	REC_WORD	842577	wordpools/wasnorm_wordpool_576.txt	LTP250	ltpFR2	19	8	SOFTBALL	1343	n/a	n/a	0	0	0
1757.438	n/a	REST_REWET	878719	n/a	LTP250	ltpFR2	19	8	n/a	n/a	n/a	n/a	0	0	0
1985.166	n/a	DISTRACTOR	992583	n/a	LTP250	ltpFR2	19	9	n/a	n/a	n/a	n/a	0	0	0
1985.168	n/a	START	992584	n/a	LTP250	ltpFR2	19	n/a	n/a	n/a	12	n/a	n/a	n/a	n/a
1985.182	n/a	PROB	992591	n/a	LTP250	ltpFR2	19	n/a	n/a	n/a	12	18	9	2	7
1987.438	n/a	PROB	993719	n/a	LTP250	ltpFR2	19	n/a	n/a	n/a	12	11	3	7	1
1988.69	n/a	PROB	994345	n/a	LTP250	ltpFR2	19	n/a	n/a	n/a	12	16	4	7	5
1991.242	n/a	PROB	995621	n/a	LTP250	ltpFR2	19	n/a	n/a	n/a	12	16	4	8	4
1993.144	n/a	PROB	996572	n/a	LTP250	ltpFR2	19	n/a	n/a	n/a	12	10	7	1	2
1994.394	n/a	PROB	997197	n/a	LTP250	ltpFR2	19	n/a	n/a	n/a	12	18	9	7	2
1996.062	n/a	PROB	998031	n/a	LTP250	ltpFR2	19	n/a	n/a	n/a	12	16	7	2	7
1997.88	n/a	PROB	998940	n/a	LTP250	ltpFR2	19	n/a	n/a	n/a	12	16	6	3	7
1999.916	n/a	PROB	999958	n/a	LTP250	ltpFR2	19	n/a	n/a	n/a	12	14	9	3	2
2002.546	n/a	PROB	1001273	n/a	LTP250	ltpFR2	19	n/a	n/a	n/a	12	16	6	2	8
2004.02	n/a	PROB	1002010	n/a	LTP250	ltpFR2	19	n/a	n/a	n/a	12	19	7	5	7
2005.738	n/a	PROB	1002869	n/a	LTP250	ltpFR2	19	n/a	n/a	n/a	12	13	1	4	8
2007.238	n/a	PROB	1003619	n/a	LTP250	ltpFR2	19	n/a	n/a	n/a	12	9	2	2	5
2008.622	n/a	STOP	1004311	n/a	LTP250	ltpFR2	19	n/a	n/a	n/a	12	n/a	n/a	n/a	n/a
2010.088	n/a	WORD	1005044	wordpools/wasnorm_wordpool_576.txt	LTP250	ltpFR2	19	9	CURTAIN	427	n/a	n/a	0	0	0
2012.556	n/a	WORD	1006278	wordpools/wasnorm_wordpool_576.txt	LTP250	ltpFR2	19	9	CAPTIVE	240	n/a	n/a	0	0	0
2015.226	n/a	WORD	1007613	wordpools/wasnorm_wordpool_576.txt	LTP250	ltpFR2	19	9	INMATE	738	n/a	n/a	0	0	0
2017.962	n/a	WORD	1008981	wordpools/wasnorm_wordpool_576.txt	LTP250	ltpFR2	19	9	SPACE	1345	n/a	n/a	0	0	0
2020.562	n/a	WORD	1010281	wordpools/wasnorm_wordpool_576.txt	LTP250	ltpFR2	19	9	FIDDLE	561	n/a	n/a	0	0	0
2023.116	n/a	WORD	1011558	wordpools/wasnorm_wordpool_576.txt	LTP250	ltpFR2	19	9	SPHINX	1349	n/a	n/a	0	0	0
2025.716	n/a	WORD	1012858	wordpools/wasnorm_wordpool_576.txt	LTP250	ltpFR2	19	9	SCRIBBLE	1256	n/a	n/a	0	0	0
2028.486	n/a	WORD	1014243	wordpools/wasnorm_wordpool_576.txt	LTP250	ltpFR2	19	9	SKILLET	1317	n/a	n/a	0	0	0
2030.922	n/a	WORD	1015461	wordpools/wasnorm_wordpool_576.txt	LTP250	ltpFR2	19	9	CIGAR	308	n/a	n/a	0	0	0
2033.472	n/a	WORD	1016736	wordpools/wasnorm_wordpool_576.txt	LTP250	ltpFR2	19	9	ROD	1203	n/a	n/a	0	0	0
2035.994	n/a	WORD	1017997	wordpools/wasnorm_wordpool_576.txt	LTP250	ltpFR2	19	9	HUMAN	726	n/a	n/a	0	0	0
2038.494	n/a	WORD	1019247	wordpools/wasnorm_wordpool_576.txt	LTP250	ltpFR2	19	9	STATUE	1374	n/a	n/a	0	0	0
2041.23	n/a	WORD	1020615	wordpools/wasnorm_wordpool_576.txt	LTP250	ltpFR2	19	9	JURY	766	n/a	n/a	0	0	0
2043.782	n/a	WORD	1021891	wordpools/wasnorm_wordpool_576.txt	LTP250	ltpFR2	19	9	VIKING	1565	n/a	n/a	0	0	0
2046.268	n/a	WORD	1023134	wordpools/wasnorm_wordpool_576.txt	LTP250	ltpFR2	19	9	HARP	689	n/a	n/a	0	0	0
2049.07	n/a	WORD	1024535	wordpools/wasnorm_wordpool_576.txt	LTP250	ltpFR2	19	9	HELMET	702	n/a	n/a	0	0	0
2051.84	n/a	WORD	1025920	wordpools/wasnorm_wordpool_576.txt	LTP250	ltpFR2	19	9	BODY	145	n/a	n/a	0	0	0
2054.408	n/a	WORD	1027204	wordpools/wasnorm_wordpool_576.txt	LTP250	ltpFR2	19	9	COMET	353	n/a	n/a	0	0	0
2056.91	n/a	WORD	1028455	wordpools/wasnorm_wordpool_576.txt	LTP250	ltpFR2	19	9	MUMMY	932	n/a	n/a	0	0	0
2059.68	n/a	WORD	1029840	wordpools/wasnorm_wordpool_576.txt	LTP250	ltpFR2	19	9	PROTON	1132	n/a	n/a	0	0	0
2062.28	n/a	WORD	1031140	wordpools/wasnorm_wordpool_576.txt	LTP250	ltpFR2	19	9	HATCHET	691	n/a	n/a	0	0	0
2064.866	n/a	WORD	1032433	wordpools/wasnorm_wordpool_576.txt	LTP250	ltpFR2	19	9	SPOON	1357	n/a	n/a	0	0	0
2067.334	n/a	WORD	1033667	wordpools/wasnorm_wordpool_576.txt	LTP250	ltpFR2	19	9	DRIVER	499	n/a	n/a	0	0	0
2069.92	n/a	WORD	1034960	wordpools/wasnorm_wordpool_576.txt	LTP250	ltpFR2	19	9	CLAMP	316	n/a	n/a	0	0	0
2071.54	n/a	START	1035770	n/a	LTP250	ltpFR2	19	n/a	n/a	n/a	13	n/a	n/a	n/a	n/a
2072.442	n/a	DISTRACTOR	1036221	n/a	LTP250	ltpFR2	19	9	n/a	n/a	n/a	n/a	0	0	0
2072.454	n/a	PROB	1036227	n/a	LTP250	ltpFR2	19	n/a	n/a	n/a	13	20	3	9	8
2074.556	n/a	PROB	1037278	n/a	LTP250	ltpFR2	19	n/a	n/a	n/a	13	20	5	6	9
2076.442	n/a	PROB	1038221	n/a	LTP250	ltpFR2	19	n/a	n/a	n/a	13	14	4	1	9
2077.994	n/a	PROB	1038997	n/a	LTP250	ltpFR2	19	n/a	n/a	n/a	13	5	2	2	1
2079.76	n/a	PROB	1039880	n/a	LTP250	ltpFR2	19	n/a	n/a	n/a	13	6	1	3	2
2081.23	n/a	PROB	1040615	n/a	LTP250	ltpFR2	19	n/a	n/a	n/a	13	7	2	2	3
2082.846	n/a	PROB	1041423	n/a	LTP250	ltpFR2	19	n/a	n/a	n/a	13	13	5	5	3
2083.964	n/a	PROB	1041982	n/a	LTP250	ltpFR2	19	n/a	n/a	n/a	13	10	4	5	1
2085.516	n/a	PROB	1042758	n/a	LTP250	ltpFR2	19	n/a	n/a	n/a	13	23	9	5	9
2088.768	n/a	PROB	1044384	n/a	LTP250	ltpFR2	19	n/a	n/a	n/a	13	12	4	1	7
2090.618	n/a	PROB	1045309	n/a	LTP250	ltpFR2	19	n/a	n/a	n/a	13	10	1	7	2
2092.138	n/a	PROB	1046069	n/a	LTP250	ltpFR2	19	n/a	n/a	n/a	13	20	8	4	8
2094.294	n/a	STOP	1047147	n/a	LTP250	ltpFR2	19	n/a	n/a	n/a	13	n/a	n/a	n/a	n/a
2097.358	n/a	REC_START	1048679	n/a	LTP250	ltpFR2	19	9	n/a	n/a	n/a	n/a	0	0	0
2097.696	n/a	REC_WORD	1048848	wordpools/wasnorm_wordpool_576.txt	LTP250	ltpFR2	19	9	SPOON	1357	n/a	n/a	0	0	0
2098.656	n/a	REC_WORD	1049328	wordpools/wasnorm_wordpool_576.txt	LTP250	ltpFR2	19	9	DRIVER	499	n/a	n/a	0	0	0
2099.438	n/a	REC_WORD	1049719	wordpools/wasnorm_wordpool_576.txt	LTP250	ltpFR2	19	9	CLAMP	316	n/a	n/a	0	0	0
2187.78	n/a	DISTRACTOR	1093890	n/a	LTP250	ltpFR2	19	10	n/a	n/a	n/a	n/a	0	0	0
2187.78	n/a	START	1093890	n/a	LTP250	ltpFR2	19	n/a	n/a	n/a	14	n/a	n/a	n/a	n/a
2187.796	n/a	PROB	1093898	n/a	LTP250	ltpFR2	19	n/a	n/a	n/a	14	15	7	4	5
2192.4	n/a	PROB	1096200	n/a	LTP250	ltpFR2	19	n/a	n/a	n/a	14	16	3	6	7
2194.85	n/a	PROB	1097425	n/a	LTP250	ltpFR2	19	n/a	n/a	n/a	14	11	5	1	5
2196.134	n/a	PROB	1098067	n/a	LTP250	ltpFR2	19	n/a	n/a	n/a	14	9	4	1	4
2197.852	n/a	PROB	1098926	n/a	LTP250	ltpFR2	19	n/a	n/a	n/a	14	16	6	8	2
2199.172	n/a	PROB	1099586	n/a	LTP250	ltpFR2	19	n/a	n/a	n/a	14	9	6	1	2
2201.338	n/a	PROB	1100669	n/a	LTP250	ltpFR2	19	n/a	n/a	n/a	14	17	1	8	8
2203.242	n/a	PROB	1101621	n/a	LTP250	ltpFR2	19	n/a	n/a	n/a	14	23	9	6	8
2207.476	n/a	PROB	1103738	n/a	LTP250	ltpFR2	19	n/a	n/a	n/a	14	9	1	4	4
2209.862	n/a	PROB	1104931	n/a	LTP250	ltpFR2	19	n/a	n/a	n/a	14	11	3	6	2
2211.76	n/a	STOP	1105880	n/a	LTP250	ltpFR2	19	n/a	n/a	n/a	14	n/a	n/a	n/a	n/a
2212.744	n/a	WORD	1106372	wordpools/wasnorm_wordpool_576.txt	LTP250	ltpFR2	19	10	COLLEGE	346	n/a	n/a	0	0	0
2215.31	n/a	WORD	1107655	wordpools/wasnorm_wordpool_576.txt	LTP250	ltpFR2	19	10	PASSAGE	1019	n/a	n/a	0	0	0
2217.73	n/a	WORD	1108865	wordpools/wasnorm_wordpool_576.txt	LTP250	ltpFR2	19	10	TOMBSTONE	1478	n/a	n/a	0	0	0
2220.182	n/a	WORD	1110091	wordpools/wasnorm_wordpool_576.txt	LTP250	ltpFR2	19	10	PIZZA	1079	n/a	n/a	0	0	0
2222.974	n/a	WORD	1111487	wordpools/wasnorm_wordpool_576.txt	LTP250	ltpFR2	19	10	TRENCH	1503	n/a	n/a	0	0	0
2225.688	n/a	WORD	1112844	wordpools/wasnorm_wordpool_576.txt	LTP250	ltpFR2	19	10	JELLY	755	n/a	n/a	0	0	0
2228.14	n/a	WORD	1114070	wordpools/wasnorm_wordpool_576.txt	LTP250	ltpFR2	19	10	HORSE	719	n/a	n/a	0	0	0
2230.926	n/a	WORD	1115463	wordpools/wasnorm_wordpool_576.txt	LTP250	ltpFR2	19	10	SMOG	1330	n/a	n/a	0	0	0
2233.41	n/a	WORD	1116705	wordpools/wasnorm_wordpool_576.txt	LTP250	ltpFR2	19	10	JOURNAL	760	n/a	n/a	0	0	0
2236.03	n/a	WORD	1118015	wordpools/wasnorm_wordpool_576.txt	LTP250	ltpFR2	19	10	ATOM	55	n/a	n/a	0	0	0
2238.836	n/a	WORD	1119418	wordpools/wasnorm_wordpool_576.txt	LTP250	ltpFR2	19	10	BOUQUET	157	n/a	n/a	0	0	0
2241.316	n/a	WORD	1120658	wordpools/wasnorm_wordpool_576.txt	LTP250	ltpFR2	19	10	SLOPE	1328	n/a	n/a	0	0	0
2243.82	n/a	WORD	1121910	wordpools/wasnorm_wordpool_576.txt	LTP250	ltpFR2	19	10	BLADE	134	n/a	n/a	0	0	0
2246.29	n/a	WORD	1123145	wordpools/wasnorm_wordpool_576.txt	LTP250	ltpFR2	19	10	GARDEN	623	n/a	n/a	0	0	0
2248.76	n/a	WORD	1124380	wordpools/wasnorm_wordpool_576.txt	LTP250	ltpFR2	19	10	LADY	794	n/a	n/a	0	0	0
2251.44	n/a	WORD	1125720	wordpools/wasnorm_wordpool_576.txt	LTP250	ltpFR2	19	10	HAND	683	n/a	n/a	0	0	0
2253.894	n/a	WORD	1126947	wordpools/wasnorm_wordpool_576.txt	LTP250	ltpFR2	19	10	SUBWAY	1400	n/a	n/a	0	0	0
2256.378	n/a	WORD	1128189	wordpools/wasnorm_wordpool_576.txt	LTP250	ltpFR2	19	10	ZEBRA	1635	n/a	n/a	0	0	0
2258.848	n/a	WORD	1129424	wordpools/wasnorm_wordpool_576.txt	LTP250	ltpFR2	19	10	SHORTCAKE	1292	n/a	n/a	0	0	0
2261.37	n/a	WORD	1130685	wordpools/wasnorm_wordpool_576.txt	LTP250	ltpFR2	19	10	SHELTER	1282	n/a	n/a	0	0	0
2263.806	n/a	WORD	1131903	wordpools/wasnorm_wordpool_576.txt	LTP250	ltpFR2	19	10	TUNNEL	1519	n/a	n/a	0	0	0
2266.622	n/a	WORD	1133311	wordpools/wasnorm_wordpool_576.txt	LTP250	ltpFR2	19	10	NOTEBOOK	959	n/a	n/a	0	0	0
2269.374	n/a	WORD	1134687	wordpools/wasnorm_wordpool_576.txt	LTP250	ltpFR2	19	10	HORNET	718	n/a	n/a	0	0	0
2272.11	n/a	WORD	1136055	wordpools/wasnorm_wordpool_576.txt	LTP250	ltpFR2	19	10	WASP	1593	n/a	n/a	0	0	0
2273.73	n/a	START	1136865	n/a	LTP250	ltpFR2	19	n/a	n/a	n/a	15	n/a	n/a	n/a	n/a
2274.79	n/a	DISTRACTOR	1137395	n/a	LTP250	ltpFR2	19	10	n/a	n/a	n/a	n/a	0	0	0
2274.796	n/a	PROB	1137398	n/a	LTP250	ltpFR2	19	n/a	n/a	n/a	15	19	8	4	7
2277.9	n/a	PROB	1138950	n/a	LTP250	ltpFR2	19	n/a	n/a	n/a	15	11	5	1	5
2279.098	n/a	PROB	1139549	n/a	LTP250	ltpFR2	19	n/a	n/a	n/a	15	11	3	4	4
2281.838	n/a	PROB	1140919	n/a	LTP250	ltpFR2	19	n/a	n/a	n/a	15	23	8	8	7
2283.952	n/a	PROB	1141976	n/a	LTP250	ltpFR2	19	n/a	n/a	n/a	15	11	1	9	1
2286.338	n/a	PROB	1143169	n/a	LTP250	ltpFR2	19	n/a	n/a	n/a	15	11	5	5	1
2287.556	n/a	PROB	1143778	n/a	LTP250	ltpFR2	19	n/a	n/a	n/a	15	15	8	6	1
2289.758	n/a	PROB	1144879	n/a	LTP250	ltpFR2	19	n/a	n/a	n/a	15	15	9	3	3
2291.626	n/a	PROB	1145813	n/a	LTP250	ltpFR2	19	n/a	n/a	n/a	15	12	8	2	2
2293.06	n/a	PROB	1146530	n/a	LTP250	ltpFR2	19	n/a	n/a	n/a	15	18	5	6	7
2295.014	n/a	PROB	1147507	n/a	LTP250	ltpFR2	19	n/a	n/a	n/a	15	20	8	9	3
2296.786	n/a	STOP	1148393	n/a	LTP250	ltpFR2	19	n/a	n/a	n/a	15	n/a	n/a	n/a	n/a
2299.666	n/a	REC_START	1149833	n/a	LTP250	ltpFR2	19	10	n/a	n/a	n/a	n/a	0	0	0
2300.676	n/a	REC_WORD	1150338	wordpools/wasnorm_wordpool_576.txt	LTP250	ltpFR2	19	10	SOAP	1337	n/a	n/a	0	0	0
2301.636	n/a	REC_WORD	1150818	wordpools/wasnorm_wordpool_576.txt	LTP250	ltpFR2	19	10	BLADE	134	n/a	n/a	0	0	0
2302.284	n/a	REC_WORD	1151142	wordpools/wasnorm_wordpool_576.txt	LTP250	ltpFR2	19	10	HORNET	718	n/a	n/a	0	0	0
2303.006	n/a	REC_WORD	1151503	wordpools/wasnorm_wordpool_576.txt	LTP250	ltpFR2	19	10	LADY	794	n/a	n/a	0	0	0
2305.462	n/a	REC_WORD	1152731	wordpools/wasnorm_wordpool_576.txt	LTP250	ltpFR2	19	10	WASP	1593	n/a	n/a	0	0	0
2390.088	n/a	DISTRACTOR	1195044	n/a	LTP250	ltpFR2	19	11	n/a	n/a	n/a	n/a	0	0	0
2390.088	n/a	START	1195044	n/a	LTP250	ltpFR2	19	n/a	n/a	n/a	16	n/a	n/a	n/a	n/a
2390.104	n/a	PROB	1195052	n/a	LTP250	ltpFR2	19	n/a	n/a	n/a	16	17	4	5	8
2393.708	n/a	PROB	1196854	n/a	LTP250	ltpFR2	19	n/a	n/a	n/a	16	23	8	9	7
2396.356	n/a	PROB	1198178	n/a	LTP250	ltpFR2	19	n/a	n/a	n/a	16	15	1	6	8
2399.678	n/a	PROB	1199839	n/a	LTP250	ltpFR2	19	n/a	n/a	n/a	16	12	5	6	1
2401.262	n/a	PROB	1200631	n/a	LTP250	ltpFR2	19	n/a	n/a	n/a	16	13	8	2	3
2402.798	n/a	PROB	1201399	n/a	LTP250	ltpFR2	19	n/a	n/a	n/a	16	19	8	9	2
2405.182	n/a	PROB	1202591	n/a	LTP250	ltpFR2	19	n/a	n/a	n/a	16	18	4	5	9
2407.25	n/a	PROB	1203625	n/a	LTP250	ltpFR2	19	n/a	n/a	n/a	16	15	6	5	4
2409.22	n/a	PROB	1204610	n/a	LTP250	ltpFR2	19	n/a	n/a	n/a	16	17	5	5	7
2410.704	n/a	PROB	1205352	n/a	LTP250	ltpFR2	19	n/a	n/a	n/a	16	18	2	8	8
2412.004	n/a	PROB	1206002	n/a	LTP250	ltpFR2	19	n/a	n/a	n/a	16	12	2	8	2
2413.354	n/a	STOP	1206677	n/a	LTP250	ltpFR2	19	n/a	n/a	n/a	16	n/a	n/a	n/a	n/a
2415.24	n/a	WORD	1207620	wordpools/wasnorm_wordpool_576.txt	LTP250	ltpFR2	19	11	FOOT	590	n/a	n/a	0	0	0
2417.942	n/a	WORD	1208971	wordpools/wasnorm_wordpool_576.txt	LTP250	ltpFR2	19	11	ANKLE	24	n/a	n/a	0	0	0
2420.66	n/a	WORD	1210330	wordpools/wasnorm_wordpool_576.txt	LTP250	ltpFR2	19	11	CATCHER	258	n/a	n/a	0	0	0
2423.362	n/a	WORD	1211681	wordpools/wasnorm_wordpool_576.txt	LTP250	ltpFR2	19	11	PUPPY	1144	n/a	n/a	0	0	0
2425.808	n/a	WORD	1212904	wordpools/wasnorm_wordpool_576.txt	LTP250	ltpFR2	19	11	CHEST	295	n/a	n/a	0	0	0
2428.434	n/a	WORD	1214217	wordpools/wasnorm_wordpool_576.txt	LTP250	ltpFR2	19	11	GHETTO	633	n/a	n/a	0	0	0
2430.886	n/a	WORD	1215443	wordpools/wasnorm_wordpool_576.txt	LTP250	ltpFR2	19	11	TRANSPLANT	1496	n/a	n/a	0	0	0
2433.698	n/a	WORD	1216849	wordpools/wasnorm_wordpool_576.txt	LTP250	ltpFR2	19	11	SALT	1229	n/a	n/a	0	0	0
2436.25	n/a	WORD	1218125	wordpools/wasnorm_wordpool_576.txt	LTP250	ltpFR2	19	11	PORTRAIT	1111	n/a	n/a	0	0	0
2438.826	n/a	WORD	1219413	wordpools/wasnorm_wordpool_576.txt	LTP250	ltpFR2	19	11	OUTDOORS	987	n/a	n/a	0	0	0
2441.622	n/a	WORD	1220811	wordpools/wasnorm_wordpool_576.txt	LTP250	ltpFR2	19	11	ROCKET	1202	n/a	n/a	0	0	0
2444.072	n/a	WORD	1222036	wordpools/wasnorm_wordpool_576.txt	LTP250	ltpFR2	19	11	CONCERT	360	n/a	n/a	0	0	0
2446.876	n/a	WORD	1223438	wordpools/wasnorm_wordpool_576.txt	LTP250	ltpFR2	19	11	BROOK	177	n/a	n/a	0	0	0
2449.35	n/a	WORD	1224675	wordpools/wasnorm_wordpool_576.txt	LTP250	ltpFR2	19	11	OMELET	976	n/a	n/a	0	0	0
2451.986	n/a	WORD	1225993	wordpools/wasnorm_wordpool_576.txt	LTP250	ltpFR2	19	11	CASKET	255	n/a	n/a	0	0	0
2454.766	n/a	WORD	1227383	wordpools/wasnorm_wordpool_576.txt	LTP250	ltpFR2	19	11	FLUTE	585	n/a	n/a	0	0	0
2457.25	n/a	WORD	1228625	wordpools/wasnorm_wordpool_576.txt	LTP250	ltpFR2	19	11	DONOR	485	n/a	n/a	0	0	0
2459.952	n/a	WORD	1229976	wordpools/wasnorm_wordpool_576.txt	LTP250	ltpFR2	19	11	PRINCESS	1125	n/a	n/a	0	0	0
2462.47	n/a	WORD	1231235	wordpools/wasnorm_wordpool_576.txt	LTP250	ltpFR2	19	11	MISSILE	900	n/a	n/a	0	0	0
2465.09	n/a	WORD	1232545	wordpools/wasnorm_wordpool_576.txt	LTP250	ltpFR2	19	11	SCOTCH	1251	n/a	n/a	0	0	0
2467.81	n/a	WORD	1233905	wordpools/wasnorm_wordpool_576.txt	LTP250	ltpFR2	19	11	BACKBONE	66	n/a	n/a	0	0	0
2470.628	n/a	WORD	1235314	wordpools/wasnorm_wordpool_576.txt	LTP250	ltpFR2	19	11	SUNRISE	1407	n/a	n/a	0	0	0
2473.434	n/a	WORD	1236717	wordpools/wasnorm_wordpool_576.txt	LTP250	ltpFR2	19	11	DANDRUFF	439	n/a	n/a	0	0	0
2476.25	n/a	WORD	1238125	wordpools/wasnorm_wordpool_576.txt	LTP250	ltpFR2	19	11	WHISKERS	1605	n/a	n/a	0	0	0
2477.858	n/a	START	1238929	n/a	LTP250	ltpFR2	19	n/a	n/a	n/a	17	n/a	n/a	n/a	n/a
2478.886	n/a	DISTRACTOR	1239443	n/a	LTP250	ltpFR2	19	11	n/a	n/a	n/a	n/a	0	0	0
2478.89	n/a	PROB	1239445	n/a	LTP250	ltpFR2	19	n/a	n/a	n/a	17	26	9	8	9
2486.474	n/a	PROB	1243237	n/a	LTP250	ltpFR2	19	n/a	n/a	n/a	17	11	8	1	2
2488.114	n/a	PROB	1244057	n/a	LTP250	ltpFR2	19	n/a	n/a	n/a	17	10	2	1	7
2489.41	n/a	PROB	1244705	n/a	LTP250	ltpFR2	19	n/a	n/a	n/a	17	24	9	9	8
2492.384	n/a	PROB	1246192	n/a	LTP250	ltpFR2	19	n/a	n/a	n/a	17	12	4	3	5
2496.332	n/a	PROB	1248166	n/a	LTP250	ltpFR2	19	n/a	n/a	n/a	17	21	4	8	9
2498.434	n/a	PROB	1249217	n/a	LTP250	ltpFR2	19	n/a	n/a	n/a	17	13	6	2	5
2500.814	n/a	STOP	1250407	n/a	LTP250	ltpFR2	19	n/a	n/a	n/a	17	n/a	n/a	n/a	n/a
2503.624	n/a	REC_START	1251812	n/a	LTP250	ltpFR2	19	11	n/a	n/a	n/a	n/a	0	0	0
2504.122	n/a	REC_WORD	1252061	wordpools/wasnorm_wordpool_576.txt	LTP250	ltpFR2	19	11	DANDRUFF	439	n/a	n/a	0	0	0
2505.024	n/a	REC_WORD	1252512	wordpools/wasnorm_wordpool_576.txt	LTP250	ltpFR2	19	11	WHISKERS	1605	n/a	n/a	0	0	0
2510.75	n/a	REC_WORD	1255375	wordpools/wasnorm_wordpool_576.txt	LTP250	ltpFR2	19	11	OUTDOORS	987	n/a	n/a	0	0	0
2512.572	n/a	REC_WORD	1256286	wordpools/wasnorm_wordpool_576.txt	LTP250	ltpFR2	19	11	CONCERT	360	n/a	n/a	0	0	0
2513.614	n/a	REC_WORD	1256807	wordpools/wasnorm_wordpool_576.txt	LTP250	ltpFR2	19	11	BROOK	177	n/a	n/a	0	0	0
2514.832	n/a	REC_WORD	1257416	wordpools/wasnorm_wordpool_576.txt	LTP250	ltpFR2	19	11	PUPPY	1144	n/a	n/a	0	0	0
2515.566	n/a	REC_WORD	1257783	wordpools/wasnorm_wordpool_576.txt	LTP250	ltpFR2	19	11	CATCHER	258	n/a	n/a	0	0	0
2516.908	n/a	REC_WORD	1258454	wordpools/wasnorm_wordpool_576.txt	LTP250	ltpFR2	19	11	ROCKET	1202	n/a	n/a	0	0	0
2594.062	n/a	WORD	1297031	wordpools/wasnorm_wordpool_576.txt	LTP250	ltpFR2	19	12	COOK	372	n/a	n/a	0	0	0
2596.514	n/a	WORD	1298257	wordpools/wasnorm_wordpool_576.txt	LTP250	ltpFR2	19	12	BLENDER	136	n/a	n/a	0	0	0
2599.238	n/a	WORD	1299619	wordpools/wasnorm_wordpool_576.txt	LTP250	ltpFR2	19	12	SHRUB	1299	n/a	n/a	0	0	0
2601.886	n/a	WORD	1300943	wordpools/wasnorm_wordpool_576.txt	LTP250	ltpFR2	19	12	HEADBAND	696	n/a	n/a	0	0	0
2604.604	n/a	WORD	1302302	wordpools/wasnorm_wordpool_576.txt	LTP250	ltpFR2	19	12	BINDER	127	n/a	n/a	0	0	0
2607.094	n/a	WORD	1303547	wordpools/wasnorm_wordpool_576.txt	LTP250	ltpFR2	19	12	TURTLE	1522	n/a	n/a	0	0	0
2609.712	n/a	WORD	1304856	wordpools/wasnorm_wordpool_576.txt	LTP250	ltpFR2	19	12	PALACE	1006	n/a	n/a	0	0	0
2612.528	n/a	WORD	1306264	wordpools/wasnorm_wordpool_576.txt	LTP250	ltpFR2	19	12	SHELF	1280	n/a	n/a	0	0	0
2615.086	n/a	WORD	1307543	wordpools/wasnorm_wordpool_576.txt	LTP250	ltpFR2	19	12	NOVEL	960	n/a	n/a	0	0	0
2617.85	n/a	WORD	1308925	wordpools/wasnorm_wordpool_576.txt	LTP250	ltpFR2	19	12	UNCLE	1536	n/a	n/a	0	0	0
2620.602	n/a	WORD	1310301	wordpools/wasnorm_wordpool_576.txt	LTP250	ltpFR2	19	12	TWISTER	1530	n/a	n/a	0	0	0
2623.02	n/a	WORD	1311510	wordpools/wasnorm_wordpool_576.txt	LTP250	ltpFR2	19	12	WIFE	1609	n/a	n/a	0	0	0
2625.538	n/a	WORD	1312769	wordpools/wasnorm_wordpool_576.txt	LTP250	ltpFR2	19	12	RUG	1215	n/a	n/a	0	0	0
2628.108	n/a	WORD	1314054	wordpools/wasnorm_wordpool_576.txt	LTP250	ltpFR2	19	12	GROUND	666	n/a	n/a	0	0	0
2630.826	n/a	WORD	1315413	wordpools/wasnorm_wordpool_576.txt	LTP250	ltpFR2	19	12	YARN	1631	n/a	n/a	0	0	0
2633.276	n/a	WORD	1316638	wordpools/wasnorm_wordpool_576.txt	LTP250	ltpFR2	19	12	ELBOW	520	n/a	n/a	0	0	0
2635.746	n/a	WORD	1317873	wordpools/wasnorm_wordpool_576.txt	LTP250	ltpFR2	19	12	FLOWER	584	n/a	n/a	0	0	0
2638.204	n/a	WORD	1319102	wordpools/wasnorm_wordpool_576.txt	LTP250	ltpFR2	19	12	BASEMENT	94	n/a	n/a	0	0	0
2640.84	n/a	WORD	1320420	wordpools/wasnorm_wordpool_576.txt	LTP250	ltpFR2	19	12	HEDGE	699	n/a	n/a	0	0	0
2643.468	n/a	WORD	1321734	wordpools/wasnorm_wordpool_576.txt	LTP250	ltpFR2	19	12	CITRUS	313	n/a	n/a	0	0	0
2646.276	n/a	WORD	1323138	wordpools/wasnorm_wordpool_576.txt	LTP250	ltpFR2	19	12	NEUTRON	947	n/a	n/a	0	0	0
2648.89	n/a	WORD	1324445	wordpools/wasnorm_wordpool_576.txt	LTP250	ltpFR2	19	12	DIVER	476	n/a	n/a	0	0	0
2651.332	n/a	WORD	1325666	wordpools/wasnorm_wordpool_576.txt	LTP250	ltpFR2	19	12	RUST	1219	n/a	n/a	0	0	0
2653.91	n/a	WORD	1326955	wordpools/wasnorm_wordpool_576.txt	LTP250	ltpFR2	19	12	REPORT	1184	n/a	n/a	0	0	0
2655.52	n/a	START	1327760	n/a	LTP250	ltpFR2	19	n/a	n/a	n/a	18	n/a	n/a	n/a	n/a
2656.52	n/a	DISTRACTOR	1328260	n/a	LTP250	ltpFR2	19	12	n/a	n/a	n/a	n/a	0	0	0
2656.528	n/a	PROB	1328264	n/a	LTP250	ltpFR2	19	n/a	n/a	n/a	18	21	9	9	3
2661.248	n/a	PROB	1330624	n/a	LTP250	ltpFR2	19	n/a	n/a	n/a	18	23	7	8	9
2663.8	n/a	PROB	1331900	n/a	LTP250	ltpFR2	19	n/a	n/a	n/a	18	12	4	7	1
2665.618	n/a	PROB	1332809	n/a	LTP250	ltpFR2	19	n/a	n/a	n/a	18	19	6	6	7
2667.336	n/a	PROB	1333668	n/a	LTP250	ltpFR2	19	n/a	n/a	n/a	18	20	7	4	9
2669.154	n/a	PROB	1334577	n/a	LTP250	ltpFR2	19	n/a	n/a	n/a	18	14	1	6	7
2671.424	n/a	PROB	1335712	n/a	LTP250	ltpFR2	19	n/a	n/a	n/a	18	20	3	8	9
2673.142	n/a	PROB	1336571	n/a	LTP250	ltpFR2	19	n/a	n/a	n/a	18	15	6	8	1
2675.644	n/a	PROB	1337822	n/a	LTP250	ltpFR2	19	n/a	n/a	n/a	18	22	6	7	8
2679.496	n/a	STOP	1339748	n/a	LTP250	ltpFR2	19	n/a	n/a	n/a	18	n/a	n/a	n/a	n/a
2681.364	n/a	REC_START	1340682	n/a	LTP250	ltpFR2	19	12	n/a	n/a	n/a	n/a	0	0	0
2683.212	n/a	REC_WORD	1341606	wordpools/wasnorm_wordpool_576.txt	LTP250	ltpFR2	19	12	DIVER	476	n/a	n/a	0	0	0
2683.72	n/a	REC_WORD	1341860	wordpools/wasnorm_wordpool_576.txt	LTP250	ltpFR2	19	12	REPORT	1184	n/a	n/a	0	0	0
2684.764	n/a	REC_WORD	1342382	wordpools/wasnorm_wordpool_576.txt	LTP250	ltpFR2	19	12	RUST	1219	n/a	n/a	0	0	0
2688.1	n/a	REC_WORD	1344050	wordpools/wasnorm_wordpool_576.txt	LTP250	ltpFR2	19	12	HEDGE	699	n/a	n/a	0	0	0
2689.216	n/a	REC_WORD	1344608	wordpools/wasnorm_wordpool_576.txt	LTP250	ltpFR2	19	12	CITRUS	313	n/a	n/a	0	0	0
2690.602	n/a	REC_WORD	1345301	wordpools/wasnorm_wordpool_576.txt	LTP250	ltpFR2	19	12	FLOWER	584	n/a	n/a	0	0	0
2691.748	n/a	REC_WORD	1345874	wordpools/wasnorm_wordpool_576.txt	LTP250	ltpFR2	19	12	YARN	1631	n/a	n/a	0	0	0
2693.03	n/a	REC_WORD	1346515	wordpools/wasnorm_wordpool_576.txt	LTP250	ltpFR2	19	12	GROUND	666	n/a	n/a	0	0	0
2693.998	n/a	REC_WORD	1346999	wordpools/wasnorm_wordpool_576.txt	LTP250	ltpFR2	19	12	RUG	1215	n/a	n/a	0	0	0
2695.036	n/a	REC_WORD	1347518	wordpools/wasnorm_wordpool_576.txt	LTP250	ltpFR2	19	12	BASEMENT	94	n/a	n/a	0	0	0
2771.834	n/a	WORD	1385917	wordpools/wasnorm_wordpool_576.txt	LTP250	ltpFR2	19	13	TEMPLE	1448	n/a	n/a	0	0	0
2774.418	n/a	WORD	1387209	wordpools/wasnorm_wordpool_576.txt	LTP250	ltpFR2	19	13	COLONEL	348	n/a	n/a	0	0	0
2777.24	n/a	WORD	1388620	wordpools/wasnorm_wordpool_576.txt	LTP250	ltpFR2	19	13	MESSAGE	888	n/a	n/a	0	0	0
2779.724	n/a	WORD	1389862	wordpools/wasnorm_wordpool_576.txt	LTP250	ltpFR2	19	13	CANDY	230	n/a	n/a	0	0	0
2782.326	n/a	WORD	1391163	wordpools/wasnorm_wordpool_576.txt	LTP250	ltpFR2	19	13	PASTA	1021	n/a	n/a	0	0	0
2784.862	n/a	WORD	1392431	wordpools/wasnorm_wordpool_576.txt	LTP250	ltpFR2	19	13	ORCHID	982	n/a	n/a	0	0	0
2787.68	n/a	WORD	1393840	wordpools/wasnorm_wordpool_576.txt	LTP250	ltpFR2	19	13	PISTON	1076	n/a	n/a	0	0	0
2790.15	n/a	WORD	1395075	wordpools/wasnorm_wordpool_576.txt	LTP250	ltpFR2	19	13	LASER	801	n/a	n/a	0	0	0
2792.786	n/a	WORD	1396393	wordpools/wasnorm_wordpool_576.txt	LTP250	ltpFR2	19	13	LEG	809	n/a	n/a	0	0	0
2795.22	n/a	WORD	1397610	wordpools/wasnorm_wordpool_576.txt	LTP250	ltpFR2	19	13	DASHBOARD	441	n/a	n/a	0	0	0
2797.672	n/a	WORD	1398836	wordpools/wasnorm_wordpool_576.txt	LTP250	ltpFR2	19	13	PADDLE	1000	n/a	n/a	0	0	0
2800.124	n/a	WORD	1400062	wordpools/wasnorm_wordpool_576.txt	LTP250	ltpFR2	19	13	LILY	821	n/a	n/a	0	0	0
2802.728	n/a	WORD	1401364	wordpools/wasnorm_wordpool_576.txt	LTP250	ltpFR2	19	13	ARMY	39	n/a	n/a	0	0	0
2805.462	n/a	WORD	1402731	wordpools/wasnorm_wordpool_576.txt	LTP250	ltpFR2	19	13	BOYFRIEND	162	n/a	n/a	0	0	0
2808.146	n/a	WORD	1404073	wordpools/wasnorm_wordpool_576.txt	LTP250	ltpFR2	19	13	SUMMIT	1405	n/a	n/a	0	0	0
2810.798	n/a	WORD	1405399	wordpools/wasnorm_wordpool_576.txt	LTP250	ltpFR2	19	13	ULCER	1533	n/a	n/a	0	0	0
2813.5	n/a	WORD	1406750	wordpools/wasnorm_wordpool_576.txt	LTP250	ltpFR2	19	13	BELLY	119	n/a	n/a	0	0	0
2816.12	n/a	WORD	1408060	wordpools/wasnorm_wordpool_576.txt	LTP250	ltpFR2	19	13	STONE	1385	n/a	n/a	0	0	0
2818.688	n/a	WORD	1409344	wordpools/wasnorm_wordpool_576.txt	LTP250	ltpFR2	19	13	PEBBLE	1035	n/a	n/a	0	0	0
2821.174	n/a	WORD	1410587	wordpools/wasnorm_wordpool_576.txt	LTP250	ltpFR2	19	13	GOBLIN	645	n/a	n/a	0	0	0
2823.86	n/a	WORD	1411930	wordpools/wasnorm_wordpool_576.txt	LTP250	ltpFR2	19	13	IDOL	733	n/a	n/a	0	0	0
2826.512	n/a	WORD	1413256	wordpools/wasnorm_wordpool_576.txt	LTP250	ltpFR2	19	13	TABLET	1427	n/a	n/a	0	0	0
2829.312	n/a	WORD	1414656	wordpools/wasnorm_wordpool_576.txt	LTP250	ltpFR2	19	13	SKIRT	1319	n/a	n/a	0	0	0
2831.836	n/a	WORD	1415918	wordpools/wasnorm_wordpool_576.txt	LTP250	ltpFR2	19	13	SWITCH	1422	n/a	n/a	0	0	0
2833.45	n/a	START	1416725	n/a	LTP250	ltpFR2	19	n/a	n/a	n/a	19	n/a	n/a	n/a	n/a
2834.544	n/a	DISTRACTOR	1417272	n/a	LTP250	ltpFR2	19	13	n/a	n/a	n/a	n/a	0	0	0
2834.55	n/a	PROB	1417275	n/a	LTP250	ltpFR2	19	n/a	n/a	n/a	19	9	3	1	5
2836.368	n/a	PROB	1418184	n/a	LTP250	ltpFR2	19	n/a	n/a	n/a	19	13	5	4	4
2838.988	n/a	PROB	1419494	n/a	LTP250	ltpFR2	19	n/a	n/a	n/a	19	20	9	7	4
2841.206	n/a	PROB	1420603	n/a	LTP250	ltpFR2	19	n/a	n/a	n/a	19	15	5	1	9
2842.808	n/a	PROB	1421404	n/a	LTP250	ltpFR2	19	n/a	n/a	n/a	19	10	5	4	1
2844.808	n/a	PROB	1422404	n/a	LTP250	ltpFR2	19	n/a	n/a	n/a	19	10	8	1	1
2846.208	n/a	PROB	1423104	n/a	LTP250	ltpFR2	19	n/a	n/a	n/a	19	5	2	2	1
2847.544	n/a	PROB	1423772	n/a	LTP250	ltpFR2	19	n/a	n/a	n/a	19	19	5	6	8
2849.294	n/a	PROB	1424647	n/a	LTP250	ltpFR2	19	n/a	n/a	n/a	19	18	8	1	9
2851.212	n/a	PROB	1425606	n/a	LTP250	ltpFR2	19	n/a	n/a	n/a	19	13	8	1	4
2853.964	n/a	PROB	1426982	n/a	LTP250	ltpFR2	19	n/a	n/a	n/a	19	11	3	6	2
2856.284	n/a	STOP	1428142	n/a	LTP250	ltpFR2	19	n/a	n/a	n/a	19	n/a	n/a	n/a	n/a
2859.354	n/a	REC_START	1429677	n/a	LTP250	ltpFR2	19	13	n/a	n/a	n/a	n/a	0	0	0
2860.002	n/a	REC_WORD	1430001	wordpools/wasnorm_wordpool_576.txt	LTP250	ltpFR2	19	13	PEBBLE	1035	n/a	n/a	0	0	0
2860.612	n/a	REC_WORD	1430306	wordpools/wasnorm_wordpool_576.txt	LTP250	ltpFR2	19	13	STONE	1385	n/a	n/a	0	0	0
2863.074	n/a	REC_WORD	1431537	wordpools/wasnorm_wordpool_576.txt	LTP250	ltpFR2	19	13	TEMPLE	1448	n/a	n/a	0	0	0
2863.822	n/a	REC_WORD	1431911	wordpools/wasnorm_wordpool_576.txt	LTP250	ltpFR2	19	13	COLONEL	348	n/a	n/a	0	0	0
2871.156	n/a	REC_WORD	1435578	wordpools/wasnorm_wordpool_576.txt	LTP250	ltpFR2	19	13	SWITCH	1422	n/a	n/a	0	0	0
2871.988	n/a	REC_WORD	1435994	wordpools/wasnorm_wordpool_576.txt	LTP250	ltpFR2	19	13	SKIRT	1319	n/a	n/a	0	0	0
2882.35	n/a	REC_WORD	1441175	wordpools/wasnorm_wordpool_576.txt	LTP250	ltpFR2	19	13	GOBLIN	645	n/a	n/a	0	0	0
2949.788	n/a	WORD	1474894	wordpools/wasnorm_wordpool_576.txt	LTP250	ltpFR2	19	14	CELLAR	267	n/a	n/a	0	0	0
2952.454	n/a	WORD	1476227	wordpools/wasnorm_wordpool_576.txt	LTP250	ltpFR2	19	14	HOOD	714	n/a	n/a	0	0	0
2955.128	n/a	WORD	1477564	wordpools/wasnorm_wordpool_576.txt	LTP250	ltpFR2	19	14	EMPIRE	530	n/a	n/a	0	0	0
2957.876	n/a	WORD	1478938	wordpools/wasnorm_wordpool_576.txt	LTP250	ltpFR2	19	14	LODGE	839	n/a	n/a	0	0	0
2960.43	n/a	WORD	1480215	wordpools/wasnorm_wordpool_576.txt	LTP250	ltpFR2	19	14	MOTEL	919	n/a	n/a	0	0	0
2963.048	n/a	WORD	1481524	wordpools/wasnorm_wordpool_576.txt	LTP250	ltpFR2	19	14	MAILMAN	858	n/a	n/a	0	0	0
2965.77	n/a	WORD	1482885	wordpools/wasnorm_wordpool_576.txt	LTP250	ltpFR2	19	14	TUTU	1524	n/a	n/a	0	0	0
2968.338	n/a	WORD	1484169	wordpools/wasnorm_wordpool_576.txt	LTP250	ltpFR2	19	14	NURSE	963	n/a	n/a	0	0	0
2970.924	n/a	WORD	1485462	wordpools/wasnorm_wordpool_576.txt	LTP250	ltpFR2	19	14	RAFT	1159	n/a	n/a	0	0	0
2973.706	n/a	WORD	1486853	wordpools/wasnorm_wordpool_576.txt	LTP250	ltpFR2	19	14	WRIST	1626	n/a	n/a	0	0	0
2976.192	n/a	WORD	1488096	wordpools/wasnorm_wordpool_576.txt	LTP250	ltpFR2	19	14	ATLAS	53	n/a	n/a	0	0	0
2979.012	n/a	WORD	1489506	wordpools/wasnorm_wordpool_576.txt	LTP250	ltpFR2	19	14	WITNESS	1618	n/a	n/a	0	0	0
2981.812	n/a	WORD	1490906	wordpools/wasnorm_wordpool_576.txt	LTP250	ltpFR2	19	14	LETTUCE	814	n/a	n/a	0	0	0
2984.396	n/a	WORD	1492198	wordpools/wasnorm_wordpool_576.txt	LTP250	ltpFR2	19	14	CUPBOARD	425	n/a	n/a	0	0	0
2986.816	n/a	WORD	1493408	wordpools/wasnorm_wordpool_576.txt	LTP250	ltpFR2	19	14	COIN	343	n/a	n/a	0	0	0
2989.318	n/a	WORD	1494659	wordpools/wasnorm_wordpool_576.txt	LTP250	ltpFR2	19	14	SKETCH	1315	n/a	n/a	0	0	0
2991.904	n/a	WORD	1495952	wordpools/wasnorm_wordpool_576.txt	LTP250	ltpFR2	19	14	STICKER	1382	n/a	n/a	0	0	0
2994.624	n/a	WORD	1497312	wordpools/wasnorm_wordpool_576.txt	LTP250	ltpFR2	19	14	PLAYGROUND	1087	n/a	n/a	0	0	0
2997.424	n/a	WORD	1498712	wordpools/wasnorm_wordpool_576.txt	LTP250	ltpFR2	19	14	PUDDING	1139	n/a	n/a	0	0	0
3000.212	n/a	WORD	1500106	wordpools/wasnorm_wordpool_576.txt	LTP250	ltpFR2	19	14	BUCKET	184	n/a	n/a	0	0	0
3002.964	n/a	WORD	1501482	wordpools/wasnorm_wordpool_576.txt	LTP250	ltpFR2	19	14	CANAL	226	n/a	n/a	0	0	0
3005.414	n/a	WORD	1502707	wordpools/wasnorm_wordpool_576.txt	LTP250	ltpFR2	19	14	MARSH	874	n/a	n/a	0	0	0
3007.87	n/a	WORD	1503935	wordpools/wasnorm_wordpool_576.txt	LTP250	ltpFR2	19	14	FINGER	567	n/a	n/a	0	0	0
3010.32	n/a	WORD	1505160	wordpools/wasnorm_wordpool_576.txt	LTP250	ltpFR2	19	14	SNAIL	1332	n/a	n/a	0	0	0
3011.94	n/a	START	1505970	n/a	LTP250	ltpFR2	19	n/a	n/a	n/a	20	n/a	n/a	n/a	n/a
3012.83	n/a	DISTRACTOR	1506415	n/a	LTP250	ltpFR2	19	14	n/a	n/a	n/a	n/a	0	0	0
3012.84	n/a	PROB	1506420	n/a	LTP250	ltpFR2	19	n/a	n/a	n/a	20	17	8	5	4
3014.824	n/a	PROB	1507412	n/a	LTP250	ltpFR2	19	n/a	n/a	n/a	20	13	3	7	3
3016.192	n/a	PROB	1508096	n/a	LTP250	ltpFR2	19	n/a	n/a	n/a	20	15	6	6	3
3018.076	n/a	PROB	1509038	n/a	LTP250	ltpFR2	19	n/a	n/a	n/a	20	7	1	1	5
3019.394	n/a	PROB	1509697	n/a	LTP250	ltpFR2	19	n/a	n/a	n/a	20	7	2	1	4
3020.878	n/a	PROB	1510439	n/a	LTP250	ltpFR2	19	n/a	n/a	n/a	20	18	5	5	8
3022.098	n/a	PROB	1511049	n/a	LTP250	ltpFR2	19	n/a	n/a	n/a	20	13	1	6	6
3023.398	n/a	PROB	1511699	n/a	LTP250	ltpFR2	19	n/a	n/a	n/a	20	12	6	3	3
3024.882	n/a	PROB	1512441	n/a	LTP250	ltpFR2	19	n/a	n/a	n/a	20	18	8	7	3
3026.448	n/a	PROB	1513224	n/a	LTP250	ltpFR2	19	n/a	n/a	n/a	20	20	6	7	7
3028.136	n/a	PROB	1514068	n/a	LTP250	ltpFR2	19	n/a	n/a	n/a	20	14	4	1	9
3029.534	n/a	PROB	1514767	n/a	LTP250	ltpFR2	19	n/a	n/a	n/a	20	11	2	4	5
3031.604	n/a	PROB	1515802	n/a	LTP250	ltpFR2	19	n/a	n/a	n/a	20	17	8	7	2
3035.938	n/a	STOP	1517969	n/a	LTP250	ltpFR2	19	n/a	n/a	n/a	20	n/a	n/a	n/a	n/a
3037.86	n/a	REC_START	1518930	n/a	LTP250	ltpFR2	19	14	n/a	n/a	n/a	n/a	0	0	0
3038.784	n/a	REC_WORD	1519392	wordpools/wasnorm_wordpool_576.txt	LTP250	ltpFR2	19	14	FINGER	567	n/a	n/a	0	0	0
3039.42	n/a	REC_WORD	1519710	wordpools/wasnorm_wordpool_576.txt	LTP250	ltpFR2	19	14	SNAIL	1332	n/a	n/a	0	0	0
3040.02	n/a	REC_WORD	1520010	wordpools/wasnorm_wordpool_576.txt	LTP250	ltpFR2	19	14	MARSH	874	n/a	n/a	0	0	0
3046.476	n/a	REC_WORD	1523238	wordpools/wasnorm_wordpool_576.txt	LTP250	ltpFR2	19	14	PLAYGROUND	1087	n/a	n/a	0	0	0
3128.28	n/a	DISTRACTOR	1564140	n/a	LTP250	ltpFR2	19	15	n/a	n/a	n/a	n/a	0	0	0
3128.28	n/a	START	1564140	n/a	LTP250	ltpFR2	19	n/a	n/a	n/a	21	n/a	n/a	n/a	n/a
3128.296	n/a	PROB	1564148	n/a	LTP250	ltpFR2	19	n/a	n/a	n/a	21	13	8	5	1
3130.698	n/a	PROB	1565349	n/a	LTP250	ltpFR2	19	n/a	n/a	n/a	21	15	1	9	5
3132.184	n/a	PROB	1566092	n/a	LTP250	ltpFR2	19	n/a	n/a	n/a	21	13	4	8	1
3133.768	n/a	PROB	1566884	n/a	LTP250	ltpFR2	19	n/a	n/a	n/a	21	12	2	5	5
3134.95	n/a	PROB	1567475	n/a	LTP250	ltpFR2	19	n/a	n/a	n/a	21	13	1	8	4
3136.886	n/a	PROB	1568443	n/a	LTP250	ltpFR2	19	n/a	n/a	n/a	21	18	4	6	8
3138.252	n/a	PROB	1569126	n/a	LTP250	ltpFR2	19	n/a	n/a	n/a	21	16	4	6	6
3141.14	n/a	PROB	1570570	n/a	LTP250	ltpFR2	19	n/a	n/a	n/a	21	20	9	5	6
3143.308	n/a	PROB	1571654	n/a	LTP250	ltpFR2	19	n/a	n/a	n/a	21	11	6	3	2
3145.244	n/a	PROB	1572622	n/a	LTP250	ltpFR2	19	n/a	n/a	n/a	21	23	8	8	7
3147.228	n/a	PROB	1573614	n/a	LTP250	ltpFR2	19	n/a	n/a	n/a	21	12	7	4	1
3148.828	n/a	PROB	1574414	n/a	LTP250	ltpFR2	19	n/a	n/a	n/a	21	19	2	9	8
3150.826	n/a	STOP	1575413	n/a	LTP250	ltpFR2	19	n/a	n/a	n/a	21	n/a	n/a	n/a	n/a
3153.132	n/a	WORD	1576566	wordpools/wasnorm_wordpool_576.txt	LTP250	ltpFR2	19	15	LIGHTNING	820	n/a	n/a	0	0	0
3155.794	n/a	WORD	1577897	wordpools/wasnorm_wordpool_576.txt	LTP250	ltpFR2	19	15	PADDING	999	n/a	n/a	0	0	0
3158.412	n/a	WORD	1579206	wordpools/wasnorm_wordpool_576.txt	LTP250	ltpFR2	19	15	SHERIFF	1284	n/a	n/a	0	0	0
3161.104	n/a	WORD	1580552	wordpools/wasnorm_wordpool_576.txt	LTP250	ltpFR2	19	15	FLAG	573	n/a	n/a	0	0	0
3163.9	n/a	WORD	1581950	wordpools/wasnorm_wordpool_576.txt	LTP250	ltpFR2	19	15	TOASTER	1472	n/a	n/a	0	0	0
3166.702	n/a	WORD	1583351	wordpools/wasnorm_wordpool_576.txt	LTP250	ltpFR2	19	15	MUFFIN	929	n/a	n/a	0	0	0
3169.49	n/a	WORD	1584745	wordpools/wasnorm_wordpool_576.txt	LTP250	ltpFR2	19	15	HERO	706	n/a	n/a	0	0	0
3171.992	n/a	WORD	1585996	wordpools/wasnorm_wordpool_576.txt	LTP250	ltpFR2	19	15	CANYON	235	n/a	n/a	0	0	0
3174.46	n/a	WORD	1587230	wordpools/wasnorm_wordpool_576.txt	LTP250	ltpFR2	19	15	DUST	508	n/a	n/a	0	0	0
3177.036	n/a	WORD	1588518	wordpools/wasnorm_wordpool_576.txt	LTP250	ltpFR2	19	15	BALLOON	75	n/a	n/a	0	0	0
3179.532	n/a	WORD	1589766	wordpools/wasnorm_wordpool_576.txt	LTP250	ltpFR2	19	15	TROUT	1511	n/a	n/a	0	0	0
3182.332	n/a	WORD	1591166	wordpools/wasnorm_wordpool_576.txt	LTP250	ltpFR2	19	15	POCKET	1093	n/a	n/a	0	0	0
3184.752	n/a	WORD	1592376	wordpools/wasnorm_wordpool_576.txt	LTP250	ltpFR2	19	15	PERFUME	1049	n/a	n/a	0	0	0
3187.288	n/a	WORD	1593644	wordpools/wasnorm_wordpool_576.txt	LTP250	ltpFR2	19	15	DRAGON	492	n/a	n/a	0	0	0
3189.856	n/a	WORD	1594928	wordpools/wasnorm_wordpool_576.txt	LTP250	ltpFR2	19	15	CRAB	397	n/a	n/a	0	0	0
3192.308	n/a	WORD	1596154	wordpools/wasnorm_wordpool_576.txt	LTP250	ltpFR2	19	15	JEANS	752	n/a	n/a	0	0	0
3195.01	n/a	WORD	1597505	wordpools/wasnorm_wordpool_576.txt	LTP250	ltpFR2	19	15	POPCORN	1104	n/a	n/a	0	0	0
3197.714	n/a	WORD	1598857	wordpools/wasnorm_wordpool_576.txt	LTP250	ltpFR2	19	15	DAISY	435	n/a	n/a	0	0	0
3200.186	n/a	WORD	1600093	wordpools/wasnorm_wordpool_576.txt	LTP250	ltpFR2	19	15	PASTRY	1022	n/a	n/a	0	0	0
3202.754	n/a	WORD	1601377	wordpools/wasnorm_wordpool_576.txt	LTP250	ltpFR2	19	15	PLATE	1086	n/a	n/a	0	0	0
3205.336	n/a	WORD	1602668	wordpools/wasnorm_wordpool_576.txt	LTP250	ltpFR2	19	15	VENUS	1557	n/a	n/a	0	0	0
3208.088	n/a	WORD	1604044	wordpools/wasnorm_wordpool_576.txt	LTP250	ltpFR2	19	15	FILM	565	n/a	n/a	0	0	0
3210.706	n/a	WORD	1605353	wordpools/wasnorm_wordpool_576.txt	LTP250	ltpFR2	19	15	GARLIC	624	n/a	n/a	0	0	0
3213.442	n/a	WORD	1606721	wordpools/wasnorm_wordpool_576.txt	LTP250	ltpFR2	19	15	FRAGRANCE	599	n/a	n/a	0	0	0
3215.05	n/a	START	1607525	n/a	LTP250	ltpFR2	19	n/a	n/a	n/a	22	n/a	n/a	n/a	n/a
3216.046	n/a	DISTRACTOR	1608023	n/a	LTP250	ltpFR2	19	15	n/a	n/a	n/a	n/a	0	0	0
3216.062	n/a	PROB	1608031	n/a	LTP250	ltpFR2	19	n/a	n/a	n/a	22	18	9	6	3
3218.562	n/a	PROB	1609281	n/a	LTP250	ltpFR2	19	n/a	n/a	n/a	22	15	2	7	6
3222.536	n/a	PROB	1611268	n/a	LTP250	ltpFR2	19	n/a	n/a	n/a	22	16	8	7	1
3225.606	n/a	PROB	1612803	n/a	LTP250	ltpFR2	19	n/a	n/a	n/a	22	20	8	7	5
3228.222	n/a	PROB	1614111	n/a	LTP250	ltpFR2	19	n/a	n/a	n/a	22	15	1	9	5
3229.706	n/a	PROB	1614853	n/a	LTP250	ltpFR2	19	n/a	n/a	n/a	22	17	5	5	7
3231.024	n/a	PROB	1615512	n/a	LTP250	ltpFR2	19	n/a	n/a	n/a	22	17	7	1	9
3232.308	n/a	PROB	1616154	n/a	LTP250	ltpFR2	19	n/a	n/a	n/a	22	21	5	7	9
3234.176	n/a	PROB	1617088	n/a	LTP250	ltpFR2	19	n/a	n/a	n/a	22	12	2	7	3
3235.73	n/a	PROB	1617865	n/a	LTP250	ltpFR2	19	n/a	n/a	n/a	22	11	5	1	5
3236.914	n/a	PROB	1618457	n/a	LTP250	ltpFR2	19	n/a	n/a	n/a	22	19	6	8	5
3238.716	n/a	STOP	1619358	n/a	LTP250	ltpFR2	19	n/a	n/a	n/a	22	n/a	n/a	n/a	n/a
3240.836	n/a	REC_START	1620418	n/a	LTP250	ltpFR2	19	15	n/a	n/a	n/a	n/a	0	0	0
3241.354	n/a	REC_WORD	1620677	wordpools/wasnorm_wordpool_576.txt	LTP250	ltpFR2	19	15	POPCORN	1104	n/a	n/a	0	0	0
3242.176	n/a	REC_WORD	1621088	wordpools/wasnorm_wordpool_576.txt	LTP250	ltpFR2	19	15	PASTRY	1022	n/a	n/a	0	0	0
3243.206	n/a	REC_WORD	1621603	wordpools/wasnorm_wordpool_576.txt	LTP250	ltpFR2	19	15	PLATE	1086	n/a	n/a	0	0	0
3244.334	n/a	REC_WORD	1622167	wordpools/wasnorm_wordpool_576.txt	LTP250	ltpFR2	19	15	VENUS	1557	n/a	n/a	0	0	0
3247.162	n/a	REC_WORD	1623581	wordpools/wasnorm_wordpool_576.txt	LTP250	ltpFR2	19	15	FILM	565	n/a	n/a	0	0	0
3248.3	n/a	REC_WORD	1624150	wordpools/wasnorm_wordpool_576.txt	LTP250	ltpFR2	19	15	FRAGRANT	-1	n/a	n/a	0	0	0
3331.256	n/a	DISTRACTOR	1665628	n/a	LTP250	ltpFR2	19	16	n/a	n/a	n/a	n/a	0	0	0
3331.256	n/a	START	1665628	n/a	LTP250	ltpFR2	19	n/a	n/a	n/a	23	n/a	n/a	n/a	n/a
3331.272	n/a	PROB	1665636	n/a	LTP250	ltpFR2	19	n/a	n/a	n/a	23	19	3	8	8
3335.674	n/a	PROB	1667837	n/a	LTP250	ltpFR2	19	n/a	n/a	n/a	23	23	9	9	5
3341.378	n/a	PROB	1670689	n/a	LTP250	ltpFR2	19	n/a	n/a	n/a	23	19	6	9	4
3343.512	n/a	PROB	1671756	n/a	LTP250	ltpFR2	19	n/a	n/a	n/a	23	12	1	6	5
3345.08	n/a	PROB	1672540	n/a	LTP250	ltpFR2	19	n/a	n/a	n/a	23	9	4	2	3
3347.35	n/a	PROB	1673675	n/a	LTP250	ltpFR2	19	n/a	n/a	n/a	23	17	3	6	8
3349.768	n/a	PROB	1674884	n/a	LTP250	ltpFR2	19	n/a	n/a	n/a	23	9	5	2	2
3352.472	n/a	PROB	1676236	n/a	LTP250	ltpFR2	19	n/a	n/a	n/a	23	19	3	7	9
3354.038	n/a	STOP	1677019	n/a	LTP250	ltpFR2	19	n/a	n/a	n/a	23	n/a	n/a	n/a	n/a
3356.396	n/a	WORD	1678198	wordpools/wasnorm_wordpool_576.txt	LTP250	ltpFR2	19	16	CARRIAGE	248	n/a	n/a	0	0	0
3358.826	n/a	WORD	1679413	wordpools/wasnorm_wordpool_576.txt	LTP250	ltpFR2	19	16	POISON	1096	n/a	n/a	0	0	0
3361.586	n/a	WORD	1680793	wordpools/wasnorm_wordpool_576.txt	LTP250	ltpFR2	19	16	SNAKE	1333	n/a	n/a	0	0	0
3364.032	n/a	WORD	1682016	wordpools/wasnorm_wordpool_576.txt	LTP250	ltpFR2	19	16	SIDEWALK	1303	n/a	n/a	0	0	0
3366.79	n/a	WORD	1683395	wordpools/wasnorm_wordpool_576.txt	LTP250	ltpFR2	19	16	CLOTHES	327	n/a	n/a	0	0	0
3369.502	n/a	WORD	1684751	wordpools/wasnorm_wordpool_576.txt	LTP250	ltpFR2	19	16	BUNNY	198	n/a	n/a	0	0	0
3372.146	n/a	WORD	1686073	wordpools/wasnorm_wordpool_576.txt	LTP250	ltpFR2	19	16	ROBBER	1197	n/a	n/a	0	0	0
3374.574	n/a	WORD	1687287	wordpools/wasnorm_wordpool_576.txt	LTP250	ltpFR2	19	16	PEACH	1031	n/a	n/a	0	0	0
3377.29	n/a	WORD	1688645	wordpools/wasnorm_wordpool_576.txt	LTP250	ltpFR2	19	16	BANK	83	n/a	n/a	0	0	0
3380.094	n/a	WORD	1690047	wordpools/wasnorm_wordpool_576.txt	LTP250	ltpFR2	19	16	ACTRESS	6	n/a	n/a	0	0	0
3382.786	n/a	WORD	1691393	wordpools/wasnorm_wordpool_576.txt	LTP250	ltpFR2	19	16	COCOON	339	n/a	n/a	0	0	0
3385.59	n/a	WORD	1692795	wordpools/wasnorm_wordpool_576.txt	LTP250	ltpFR2	19	16	PLUTO	1092	n/a	n/a	0	0	0
3388.09	n/a	WORD	1694045	wordpools/wasnorm_wordpool_576.txt	LTP250	ltpFR2	19	16	ARM	38	n/a	n/a	0	0	0
3390.592	n/a	WORD	1695296	wordpools/wasnorm_wordpool_576.txt	LTP250	ltpFR2	19	16	GYMNAST	675	n/a	n/a	0	0	0
3393.352	n/a	WORD	1696676	wordpools/wasnorm_wordpool_576.txt	LTP250	ltpFR2	19	16	CREVICE	405	n/a	n/a	0	0	0
3396.072	n/a	WORD	1698036	wordpools/wasnorm_wordpool_576.txt	LTP250	ltpFR2	19	16	HANDBAG	684	n/a	n/a	0	0	0
3398.558	n/a	WORD	1699279	wordpools/wasnorm_wordpool_576.txt	LTP250	ltpFR2	19	16	KNAPSACK	783	n/a	n/a	0	0	0
3401.31	n/a	WORD	1700655	wordpools/wasnorm_wordpool_576.txt	LTP250	ltpFR2	19	16	LAGOON	795	n/a	n/a	0	0	0
3403.906	n/a	WORD	1701953	wordpools/wasnorm_wordpool_576.txt	LTP250	ltpFR2	19	16	CLOCK	325	n/a	n/a	0	0	0
3406.396	n/a	WORD	1703198	wordpools/wasnorm_wordpool_576.txt	LTP250	ltpFR2	19	16	PACKAGE	997	n/a	n/a	0	0	0
3408.892	n/a	WORD	1704446	wordpools/wasnorm_wordpool_576.txt	LTP250	ltpFR2	19	16	FOX	598	n/a	n/a	0	0	0
3411.426	n/a	WORD	1705713	wordpools/wasnorm_wordpool_576.txt	LTP250	ltpFR2	19	16	VELVET	1555	n/a	n/a	0	0	0
3413.864	n/a	WORD	1706932	wordpools/wasnorm_wordpool_576.txt	LTP250	ltpFR2	19	16	MONEY	908	n/a	n/a	0	0	0
3416.422	n/a	WORD	1708211	wordpools/wasnorm_wordpool_576.txt	LTP250	ltpFR2	19	16	HOUND	724	n/a	n/a	0	0	0
3418.034	n/a	START	1709017	n/a	LTP250	ltpFR2	19	n/a	n/a	n/a	24	n/a	n/a	n/a	n/a
3419.028	n/a	DISTRACTOR	1709514	n/a	LTP250	ltpFR2	19	16	n/a	n/a	n/a	n/a	0	0	0
3419.034	n/a	PROB	1709517	n/a	LTP250	ltpFR2	19	n/a	n/a	n/a	24	23	8	9	6
3421.576	n/a	PROB	1710788	n/a	LTP250	ltpFR2	19	n/a	n/a	n/a	24	18	4	7	7
3423.292	n/a	PROB	1711646	n/a	LTP250	ltpFR2	19	n/a	n/a	n/a	24	23	7	9	6
3426.444	n/a	PROB	1713222	n/a	LTP250	ltpFR2	19	n/a	n/a	n/a	24	13	7	1	5
3429.28	n/a	PROB	1714640	n/a	LTP250	ltpFR2	19	n/a	n/a	n/a	24	14	7	2	5
3431.264	n/a	PROB	1715632	n/a	LTP250	ltpFR2	19	n/a	n/a	n/a	24	16	7	7	2
3432.816	n/a	PROB	1716408	n/a	LTP250	ltpFR2	19	n/a	n/a	n/a	24	14	2	5	7
3434.618	n/a	PROB	1717309	n/a	LTP250	ltpFR2	19	n/a	n/a	n/a	24	13	1	5	8
3436.904	n/a	PROB	1718452	n/a	LTP250	ltpFR2	19	n/a	n/a	n/a	24	14	8	2	4
3438.554	n/a	PROB	1719277	n/a	LTP250	ltpFR2	19	n/a	n/a	n/a	24	1	3	8	1
3442.034	n/a	STOP	1721017	n/a	LTP250	ltpFR2	19	n/a	n/a	n/a	24	n/a	n/a	n/a	n/a
3443.776	n/a	REC_START	1721888	n/a	LTP250	ltpFR2	19	16	n/a	n/a	n/a	n/a	0	0	0
3444.668	n/a	REC_WORD	1722334	wordpools/wasnorm_wordpool_576.txt	LTP250	ltpFR2	19	16	VELVET	1555	n/a	n/a	0	0	0
3445.494	n/a	REC_WORD	1722747	wordpools/wasnorm_wordpool_576.txt	LTP250	ltpFR2	19	16	FOX	598	n/a	n/a	0	0	0
3447.792	n/a	REC_WORD	1723896	wordpools/wasnorm_wordpool_576.txt	LTP250	ltpFR2	19	16	POUND	-1	n/a	n/a	0	0	0
3450.794	n/a	REC_WORD	1725397	wordpools/wasnorm_wordpool_576.txt	LTP250	ltpFR2	19	16	PLUTO	1092	n/a	n/a	0	0	0
3451.534	n/a	REC_WORD	1725767	wordpools/wasnorm_wordpool_576.txt	LTP250	ltpFR2	19	16	ACTRESS	6	n/a	n/a	0	0	0
3452.394	n/a	REC_WORD	1726197	wordpools/wasnorm_wordpool_576.txt	LTP250	ltpFR2	19	16	ARM	38	n/a	n/a	0	0	0
3453.162	n/a	REC_WORD	1726581	wordpools/wasnorm_wordpool_576.txt	LTP250	ltpFR2	19	16	GYMNAST	675	n/a	n/a	0	0	0
3454.216	n/a	REC_WORD	1727108	wordpools/wasnorm_wordpool_576.txt	LTP250	ltpFR2	19	16	CREVICE	405	n/a	n/a	0	0	0
3454.786	n/a	REC_WORD	1727393	wordpools/wasnorm_wordpool_576.txt	LTP250	ltpFR2	19	16	HANDBAG	684	n/a	n/a	0	0	0
3455.684	n/a	REC_WORD	1727842	wordpools/wasnorm_wordpool_576.txt	LTP250	ltpFR2	19	16	KNAPSACK	783	n/a	n/a	0	0	0
3456.67	n/a	REC_WORD	1728335	wordpools/wasnorm_wordpool_576.txt	LTP250	ltpFR2	19	16	MONEY	908	n/a	n/a	0	0	0
3467.8	n/a	REC_WORD	1733900	wordpools/wasnorm_wordpool_576.txt	LTP250	ltpFR2	19	16	SALT	1229	n/a	n/a	0	0	0
3520.318	n/a	REST_REWET	1760159	n/a	LTP250	ltpFR2	19	16	n/a	n/a	n/a	n/a	0	0	0
3757.336	n/a	WORD	1878668	wordpools/wasnorm_wordpool_576.txt	LTP250	ltpFR2	19	17	BLACKBOARD	133	n/a	n/a	0	0	0
3759.84	n/a	WORD	1879920	wordpools/wasnorm_wordpool_576.txt	LTP250	ltpFR2	19	17	SHIRT	1287	n/a	n/a	0	0	0
3762.358	n/a	WORD	1881179	wordpools/wasnorm_wordpool_576.txt	LTP250	ltpFR2	19	17	CRITIC	410	n/a	n/a	0	0	0
3765.112	n/a	WORD	1882556	wordpools/wasnorm_wordpool_576.txt	LTP250	ltpFR2	19	17	MEAT	883	n/a	n/a	0	0	0
3767.596	n/a	WORD	1883798	wordpools/wasnorm_wordpool_576.txt	LTP250	ltpFR2	19	17	LEOPARD	812	n/a	n/a	0	0	0
3770.248	n/a	WORD	1885124	wordpools/wasnorm_wordpool_576.txt	LTP250	ltpFR2	19	17	PRIMATE	1123	n/a	n/a	0	0	0
3772.716	n/a	WORD	1886358	wordpools/wasnorm_wordpool_576.txt	LTP250	ltpFR2	19	17	DRILL	497	n/a	n/a	0	0	0
3775.318	n/a	WORD	1887659	wordpools/wasnorm_wordpool_576.txt	LTP250	ltpFR2	19	17	SALAD	1224	n/a	n/a	0	0	0
3777.87	n/a	WORD	1888935	wordpools/wasnorm_wordpool_576.txt	LTP250	ltpFR2	19	17	WORLD	1622	n/a	n/a	0	0	0
3780.388	n/a	WORD	1890194	wordpools/wasnorm_wordpool_576.txt	LTP250	ltpFR2	19	17	CHAMPAGNE	278	n/a	n/a	0	0	0
3783.108	n/a	WORD	1891554	wordpools/wasnorm_wordpool_576.txt	LTP250	ltpFR2	19	17	GRAPE	654	n/a	n/a	0	0	0
3785.926	n/a	WORD	1892963	wordpools/wasnorm_wordpool_576.txt	LTP250	ltpFR2	19	17	RAZOR	1171	n/a	n/a	0	0	0
3788.746	n/a	WORD	1894373	wordpools/wasnorm_wordpool_576.txt	LTP250	ltpFR2	19	17	KNIFE	785	n/a	n/a	0	0	0
3791.4	n/a	WORD	1895700	wordpools/wasnorm_wordpool_576.txt	LTP250	ltpFR2	19	17	CHURCH	307	n/a	n/a	0	0	0
3793.882	n/a	WORD	1896941	wordpools/wasnorm_wordpool_576.txt	LTP250	ltpFR2	19	17	FLASHLIGHT	575	n/a	n/a	0	0	0
3796.4	n/a	WORD	1898200	wordpools/wasnorm_wordpool_576.txt	LTP250	ltpFR2	19	17	RATTLE	1170	n/a	n/a	0	0	0
3799.138	n/a	WORD	1899569	wordpools/wasnorm_wordpool_576.txt	LTP250	ltpFR2	19	17	SLIDE	1326	n/a	n/a	0	0	0
3801.824	n/a	WORD	1900912	wordpools/wasnorm_wordpool_576.txt	LTP250	ltpFR2	19	17	VALVE	1546	n/a	n/a	0	0	0
3804.492	n/a	WORD	1902246	wordpools/wasnorm_wordpool_576.txt	LTP250	ltpFR2	19	17	GRIZZLY	662	n/a	n/a	0	0	0
3807.262	n/a	WORD	1903631	wordpools/wasnorm_wordpool_576.txt	LTP250	ltpFR2	19	17	PORK	1108	n/a	n/a	0	0	0
3809.934	n/a	WORD	1904967	wordpools/wasnorm_wordpool_576.txt	LTP250	ltpFR2	19	17	MAILBOX	857	n/a	n/a	0	0	0
3812.668	n/a	WORD	1906334	wordpools/wasnorm_wordpool_576.txt	LTP250	ltpFR2	19	17	CROSS	413	n/a	n/a	0	0	0
3815.486	n/a	WORD	1907743	wordpools/wasnorm_wordpool_576.txt	LTP250	ltpFR2	19	17	BRAKE	166	n/a	n/a	0	0	0
3817.956	n/a	WORD	1908978	wordpools/wasnorm_wordpool_576.txt	LTP250	ltpFR2	19	17	FIREPLACE	570	n/a	n/a	0	0	0
3819.57	n/a	START	1909785	n/a	LTP250	ltpFR2	19	n/a	n/a	n/a	25	n/a	n/a	n/a	n/a
3820.668	n/a	DISTRACTOR	1910334	n/a	LTP250	ltpFR2	19	17	n/a	n/a	n/a	n/a	0	0	0
3820.686	n/a	PROB	1910343	n/a	LTP250	ltpFR2	19	n/a	n/a	n/a	25	13	7	2	2
3823.206	n/a	PROB	1911603	n/a	LTP250	ltpFR2	19	n/a	n/a	n/a	25	18	7	8	3
3825.038	n/a	PROB	1912519	n/a	LTP250	ltpFR2	19	n/a	n/a	n/a	25	13	1	6	6
3826.424	n/a	PROB	1913212	n/a	LTP250	ltpFR2	19	n/a	n/a	n/a	25	19	6	5	8
3828.442	n/a	PROB	1914221	n/a	LTP250	ltpFR2	19	n/a	n/a	n/a	25	7	2	2	3
3832.312	n/a	PROB	1916156	n/a	LTP250	ltpFR2	19	n/a	n/a	n/a	25	12	6	1	5
3835.748	n/a	PROB	1917874	n/a	LTP250	ltpFR2	19	n/a	n/a	n/a	25	17	2	8	7
3837.364	n/a	PROB	1918682	n/a	LTP250	ltpFR2	19	n/a	n/a	n/a	25	9	4	1	4
3840.234	n/a	PROB	1920117	n/a	LTP250	ltpFR2	19	n/a	n/a	n/a	25	22	5	8	9
3842.822	n/a	STOP	1921411	n/a	LTP250	ltpFR2	19	n/a	n/a	n/a	25	n/a	n/a	n/a	n/a
3845.49	n/a	REC_START	1922745	n/a	LTP250	ltpFR2	19	17	n/a	n/a	n/a	n/a	0	0	0
3846.444	n/a	REC_WORD	1923222	wordpools/wasnorm_wordpool_576.txt	LTP250	ltpFR2	19	17	FLASHLIGHT	575	n/a	n/a	0	0	0
3847.354	n/a	REC_WORD	1923677	wordpools/wasnorm_wordpool_576.txt	LTP250	ltpFR2	19	17	GRIZZLY	662	n/a	n/a	0	0	0
3848.2	n/a	REC_WORD	1924100	wordpools/wasnorm_wordpool_576.txt	LTP250	ltpFR2	19	17	MEAT	883	n/a	n/a	0	0	0
3850.158	n/a	REC_WORD	1925079	wordpools/wasnorm_wordpool_576.txt	LTP250	ltpFR2	19	17	PORK	1108	n/a	n/a	0	0	0
3852.91	n/a	REC_WORD	1926455	wordpools/wasnorm_wordpool_576.txt	LTP250	ltpFR2	19	17	CROSS	413	n/a	n/a	0	0	0
3853.89	n/a	REC_WORD	1926945	wordpools/wasnorm_wordpool_576.txt	LTP250	ltpFR2	19	17	FIREPLACE	570	n/a	n/a	0	0	0
3855.196	n/a	REC_WORD	1927598	wordpools/wasnorm_wordpool_576.txt	LTP250	ltpFR2	19	17	BRAKE	166	n/a	n/a	0	0	0
3935.922	n/a	WORD	1967961	wordpools/wasnorm_wordpool_576.txt	LTP250	ltpFR2	19	18	COTTAGE	384	n/a	n/a	0	0	0
3938.628	n/a	WORD	1969314	wordpools/wasnorm_wordpool_576.txt	LTP250	ltpFR2	19	18	BRICK	172	n/a	n/a	0	0	0
3941.094	n/a	WORD	1970547	wordpools/wasnorm_wordpool_576.txt	LTP250	ltpFR2	19	18	SEAL	1262	n/a	n/a	0	0	0
3943.814	n/a	WORD	1971907	wordpools/wasnorm_wordpool_576.txt	LTP250	ltpFR2	19	18	COURSE	390	n/a	n/a	0	0	0
3946.564	n/a	WORD	1973282	wordpools/wasnorm_wordpool_576.txt	LTP250	ltpFR2	19	18	PISTOL	1075	n/a	n/a	0	0	0
3949.034	n/a	WORD	1974517	wordpools/wasnorm_wordpool_576.txt	LTP250	ltpFR2	19	18	PLAZA	1088	n/a	n/a	0	0	0
3951.62	n/a	WORD	1975810	wordpools/wasnorm_wordpool_576.txt	LTP250	ltpFR2	19	18	COSTUME	383	n/a	n/a	0	0	0
3954.272	n/a	WORD	1977136	wordpools/wasnorm_wordpool_576.txt	LTP250	ltpFR2	19	18	CRIB	407	n/a	n/a	0	0	0
3957.042	n/a	WORD	1978521	wordpools/wasnorm_wordpool_576.txt	LTP250	ltpFR2	19	18	STAKE	1368	n/a	n/a	0	0	0
3959.744	n/a	WORD	1979872	wordpools/wasnorm_wordpool_576.txt	LTP250	ltpFR2	19	18	VALLEY	1545	n/a	n/a	0	0	0
3962.346	n/a	WORD	1981173	wordpools/wasnorm_wordpool_576.txt	LTP250	ltpFR2	19	18	DRAWING	494	n/a	n/a	0	0	0
3964.916	n/a	WORD	1982458	wordpools/wasnorm_wordpool_576.txt	LTP250	ltpFR2	19	18	LAKE	796	n/a	n/a	0	0	0
3967.484	n/a	WORD	1983742	wordpools/wasnorm_wordpool_576.txt	LTP250	ltpFR2	19	18	SUPPER	1411	n/a	n/a	0	0	0
3970.236	n/a	WORD	1985118	wordpools/wasnorm_wordpool_576.txt	LTP250	ltpFR2	19	18	SERVER	1272	n/a	n/a	0	0	0
3972.938	n/a	WORD	1986469	wordpools/wasnorm_wordpool_576.txt	LTP250	ltpFR2	19	18	KIDNEY	776	n/a	n/a	0	0	0
3975.708	n/a	WORD	1987854	wordpools/wasnorm_wordpool_576.txt	LTP250	ltpFR2	19	18	BOX	159	n/a	n/a	0	0	0
3978.526	n/a	WORD	1989263	wordpools/wasnorm_wordpool_576.txt	LTP250	ltpFR2	19	18	STAPLE	1371	n/a	n/a	0	0	0
3981.244	n/a	WORD	1990622	wordpools/wasnorm_wordpool_576.txt	LTP250	ltpFR2	19	18	HIKER	708	n/a	n/a	0	0	0
3983.73	n/a	WORD	1991865	wordpools/wasnorm_wordpool_576.txt	LTP250	ltpFR2	19	18	OUTLAW	989	n/a	n/a	0	0	0
3986.45	n/a	WORD	1993225	wordpools/wasnorm_wordpool_576.txt	LTP250	ltpFR2	19	18	SPIDER	1351	n/a	n/a	0	0	0
3988.952	n/a	WORD	1994476	wordpools/wasnorm_wordpool_576.txt	LTP250	ltpFR2	19	18	ICING	732	n/a	n/a	0	0	0
3991.736	n/a	WORD	1995868	wordpools/wasnorm_wordpool_576.txt	LTP250	ltpFR2	19	18	DORM	488	n/a	n/a	0	0	0
3994.422	n/a	WORD	1997211	wordpools/wasnorm_wordpool_576.txt	LTP250	ltpFR2	19	18	TILE	1468	n/a	n/a	0	0	0
3997.108	n/a	WORD	1998554	wordpools/wasnorm_wordpool_576.txt	LTP250	ltpFR2	19	18	PLASTER	1085	n/a	n/a	0	0	0
3998.726	n/a	START	1999363	n/a	LTP250	ltpFR2	19	n/a	n/a	n/a	26	n/a	n/a	n/a	n/a
3999.75	n/a	DISTRACTOR	1999875	n/a	LTP250	ltpFR2	19	18	n/a	n/a	n/a	n/a	0	0	0
3999.76	n/a	PROB	1999880	n/a	LTP250	ltpFR2	19	n/a	n/a	n/a	26	14	4	3	7
4001.944	n/a	PROB	2000972	n/a	LTP250	ltpFR2	19	n/a	n/a	n/a	26	12	1	9	2
4003.628	n/a	PROB	2001814	n/a	LTP250	ltpFR2	19	n/a	n/a	n/a	26	14	7	6	1
4007.498	n/a	PROB	2003749	n/a	LTP250	ltpFR2	19	n/a	n/a	n/a	26	22	6	9	7
4015.524	n/a	PROB	2007762	n/a	LTP250	ltpFR2	19	n/a	n/a	n/a	26	14	1	5	8
4018.238	n/a	PROB	2009119	n/a	LTP250	ltpFR2	19	n/a	n/a	n/a	26	17	4	6	7
4022.726	n/a	STOP	2011363	n/a	LTP250	ltpFR2	19	n/a	n/a	n/a	26	n/a	n/a	n/a	n/a
4024.53	n/a	REC_START	2012265	n/a	LTP250	ltpFR2	19	18	n/a	n/a	n/a	n/a	0	0	0
4025.312	n/a	REC_WORD	2012656	wordpools/wasnorm_wordpool_576.txt	LTP250	ltpFR2	19	18	SPIDER	1351	n/a	n/a	0	0	0
4026.236	n/a	REC_WORD	2013118	wordpools/wasnorm_wordpool_576.txt	LTP250	ltpFR2	19	18	ICING	732	n/a	n/a	0	0	0
4026.888	n/a	REC_WORD	2013444	wordpools/wasnorm_wordpool_576.txt	LTP250	ltpFR2	19	18	DOOR	486	n/a	n/a	0	0	0
4027.402	n/a	REC_WORD	2013701	wordpools/wasnorm_wordpool_576.txt	LTP250	ltpFR2	19	18	PLAZA	1088	n/a	n/a	0	0	0
4114.966	n/a	WORD	2057483	wordpools/wasnorm_wordpool_576.txt	LTP250	ltpFR2	19	19	PAPER	1011	n/a	n/a	0	0	0
4117.736	n/a	WORD	2058868	wordpools/wasnorm_wordpool_576.txt	LTP250	ltpFR2	19	19	CARROT	249	n/a	n/a	0	0	0
4120.222	n/a	WORD	2060111	wordpools/wasnorm_wordpool_576.txt	LTP250	ltpFR2	19	19	PATIENT	1024	n/a	n/a	0	0	0
4122.972	n/a	WORD	2061486	wordpools/wasnorm_wordpool_576.txt	LTP250	ltpFR2	19	19	REBEL	1172	n/a	n/a	0	0	0
4125.784	n/a	WORD	2062892	wordpools/wasnorm_wordpool_576.txt	LTP250	ltpFR2	19	19	CABIN	211	n/a	n/a	0	0	0
4128.21	n/a	WORD	2064105	wordpools/wasnorm_wordpool_576.txt	LTP250	ltpFR2	19	19	BLUEPRINT	142	n/a	n/a	0	0	0
4130.896	n/a	WORD	2065448	wordpools/wasnorm_wordpool_576.txt	LTP250	ltpFR2	19	19	BANJO	82	n/a	n/a	0	0	0
4133.34	n/a	WORD	2066670	wordpools/wasnorm_wordpool_576.txt	LTP250	ltpFR2	19	19	FEMALE	559	n/a	n/a	0	0	0
4136.01	n/a	WORD	2068005	wordpools/wasnorm_wordpool_576.txt	LTP250	ltpFR2	19	19	LION	827	n/a	n/a	0	0	0
4138.652	n/a	WORD	2069326	wordpools/wasnorm_wordpool_576.txt	LTP250	ltpFR2	19	19	FRUIT	610	n/a	n/a	0	0	0
4141.314	n/a	WORD	2070657	wordpools/wasnorm_wordpool_576.txt	LTP250	ltpFR2	19	19	WOMAN	1620	n/a	n/a	0	0	0
4143.8	n/a	WORD	2071900	wordpools/wasnorm_wordpool_576.txt	LTP250	ltpFR2	19	19	GARBAGE	622	n/a	n/a	0	0	0
4146.368	n/a	WORD	2073184	wordpools/wasnorm_wordpool_576.txt	LTP250	ltpFR2	19	19	TRUCK	1512	n/a	n/a	0	0	0
4149.044	n/a	WORD	2074522	wordpools/wasnorm_wordpool_576.txt	LTP250	ltpFR2	19	19	DRUG	501	n/a	n/a	0	0	0
4151.608	n/a	WORD	2075804	wordpools/wasnorm_wordpool_576.txt	LTP250	ltpFR2	19	19	MISTER	901	n/a	n/a	0	0	0
4154.376	n/a	WORD	2077188	wordpools/wasnorm_wordpool_576.txt	LTP250	ltpFR2	19	19	TWIG	1527	n/a	n/a	0	0	0
4156.912	n/a	WORD	2078456	wordpools/wasnorm_wordpool_576.txt	LTP250	ltpFR2	19	19	FOREST	593	n/a	n/a	0	0	0
4159.496	n/a	WORD	2079748	wordpools/wasnorm_wordpool_576.txt	LTP250	ltpFR2	19	19	XEROX	1628	n/a	n/a	0	0	0
4162.304	n/a	WORD	2081152	wordpools/wasnorm_wordpool_576.txt	LTP250	ltpFR2	19	19	MILK	895	n/a	n/a	0	0	0
4164.818	n/a	WORD	2082409	wordpools/wasnorm_wordpool_576.txt	LTP250	ltpFR2	19	19	OZONE	996	n/a	n/a	0	0	0
4167.57	n/a	WORD	2083785	wordpools/wasnorm_wordpool_576.txt	LTP250	ltpFR2	19	19	COUNTY	389	n/a	n/a	0	0	0
4170.188	n/a	WORD	2085094	wordpools/wasnorm_wordpool_576.txt	LTP250	ltpFR2	19	19	TOURIST	1488	n/a	n/a	0	0	0
4172.692	n/a	WORD	2086346	wordpools/wasnorm_wordpool_576.txt	LTP250	ltpFR2	19	19	WASHER	1592	n/a	n/a	0	0	0
4175.242	n/a	WORD	2087621	wordpools/wasnorm_wordpool_576.txt	LTP250	ltpFR2	19	19	PERMIT	1051	n/a	n/a	0	0	0
4176.85	n/a	START	2088425	n/a	LTP250	ltpFR2	19	n/a	n/a	n/a	27	n/a	n/a	n/a	n/a
4177.672	n/a	DISTRACTOR	2088836	n/a	LTP250	ltpFR2	19	19	n/a	n/a	n/a	n/a	0	0	0
4177.68	n/a	PROB	2088840	n/a	LTP250	ltpFR2	19	n/a	n/a	n/a	27	8	2	1	5
4179.344	n/a	PROB	2089672	n/a	LTP250	ltpFR2	19	n/a	n/a	n/a	27	12	3	8	3
4181.284	n/a	PROB	2090642	n/a	LTP250	ltpFR2	19	n/a	n/a	n/a	27	13	6	1	6
4182.698	n/a	PROB	2091349	n/a	LTP250	ltpFR2	19	n/a	n/a	n/a	27	11	4	3	4
4186.936	n/a	PROB	2093468	n/a	LTP250	ltpFR2	19	n/a	n/a	n/a	27	11	3	7	1
4188.22	n/a	PROB	2094110	n/a	LTP250	ltpFR2	19	n/a	n/a	n/a	27	17	4	8	5
4190.658	n/a	PROB	2095329	n/a	LTP250	ltpFR2	19	n/a	n/a	n/a	27	13	2	8	3
4192.124	n/a	PROB	2096062	n/a	LTP250	ltpFR2	19	n/a	n/a	n/a	27	19	7	7	5
4193.694	n/a	PROB	2096847	n/a	LTP250	ltpFR2	19	n/a	n/a	n/a	27	12	3	4	5
4195.996	n/a	PROB	2097998	n/a	LTP250	ltpFR2	19	n/a	n/a	n/a	27	14	6	6	2
4198.964	n/a	PROB	2099482	n/a	LTP250	ltpFR2	19	n/a	n/a	n/a	27	14	9	4	1
4200.444	n/a	STOP	2100222	n/a	LTP250	ltpFR2	19	n/a	n/a	n/a	27	n/a	n/a	n/a	n/a
4202.77	n/a	REC_START	2101385	n/a	LTP250	ltpFR2	19	19	n/a	n/a	n/a	n/a	0	0	0
4204.43	n/a	REC_WORD	2102215	wordpools/wasnorm_wordpool_576.txt	LTP250	ltpFR2	19	19	OZONE	996	n/a	n/a	0	0	0
4205.184	n/a	REC_WORD	2102592	wordpools/wasnorm_wordpool_576.txt	LTP250	ltpFR2	19	19	COUNTY	389	n/a	n/a	0	0	0
4205.892	n/a	REC_WORD	2102946	wordpools/wasnorm_wordpool_576.txt	LTP250	ltpFR2	19	19	TWIG	1527	n/a	n/a	0	0	0
4210.92	n/a	REC_WORD	2105460	wordpools/wasnorm_wordpool_576.txt	LTP250	ltpFR2	19	19	PEACH	1031	n/a	n/a	0	0	0
4293.206	n/a	DISTRACTOR	2146603	n/a	LTP250	ltpFR2	19	20	n/a	n/a	n/a	n/a	0	0	0
4293.206	n/a	START	2146603	n/a	LTP250	ltpFR2	19	n/a	n/a	n/a	28	n/a	n/a	n/a	n/a
4293.22	n/a	PROB	2146610	n/a	LTP250	ltpFR2	19	n/a	n/a	n/a	28	4	1	2	1
4294.74	n/a	PROB	2147370	n/a	LTP250	ltpFR2	19	n/a	n/a	n/a	28	16	5	8	3
4296.656	n/a	PROB	2148328	n/a	LTP250	ltpFR2	19	n/a	n/a	n/a	28	4	1	1	2
4297.792	n/a	PROB	2148896	n/a	LTP250	ltpFR2	19	n/a	n/a	n/a	28	17	8	5	4
4301.578	n/a	PROB	2150789	n/a	LTP250	ltpFR2	19	n/a	n/a	n/a	28	10	6	3	1
4303.114	n/a	PROB	2151557	n/a	LTP250	ltpFR2	19	n/a	n/a	n/a	28	16	2	8	6
4304.814	n/a	PROB	2152407	n/a	LTP250	ltpFR2	19	n/a	n/a	n/a	28	18	7	9	2
4307.132	n/a	PROB	2153566	n/a	LTP250	ltpFR2	19	n/a	n/a	n/a	28	11	2	7	2
4308.766	n/a	PROB	2154383	n/a	LTP250	ltpFR2	19	n/a	n/a	n/a	28	18	5	8	5
4310.202	n/a	PROB	2155101	n/a	LTP250	ltpFR2	19	n/a	n/a	n/a	28	14	8	4	2
4311.72	n/a	PROB	2155860	n/a	LTP250	ltpFR2	19	n/a	n/a	n/a	28	11	9	1	1
4312.836	n/a	PROB	2156418	n/a	LTP250	ltpFR2	19	n/a	n/a	n/a	28	8	2	4	2
4314.688	n/a	PROB	2157344	n/a	LTP250	ltpFR2	19	n/a	n/a	n/a	28	19	9	2	8
4316.15	n/a	STOP	2158075	n/a	LTP250	ltpFR2	19	n/a	n/a	n/a	28	n/a	n/a	n/a	n/a
4318.142	n/a	WORD	2159071	wordpools/wasnorm_wordpool_576.txt	LTP250	ltpFR2	19	20	STREAM	1392	n/a	n/a	0	0	0
4320.584	n/a	WORD	2160292	wordpools/wasnorm_wordpool_576.txt	LTP250	ltpFR2	19	20	BURGLAR	200	n/a	n/a	0	0	0
4323.286	n/a	WORD	2161643	wordpools/wasnorm_wordpool_576.txt	LTP250	ltpFR2	19	20	SUSPECT	1415	n/a	n/a	0	0	0
4326.022	n/a	WORD	2163011	wordpools/wasnorm_wordpool_576.txt	LTP250	ltpFR2	19	20	SCISSORS	1250	n/a	n/a	0	0	0
4328.692	n/a	WORD	2164346	wordpools/wasnorm_wordpool_576.txt	LTP250	ltpFR2	19	20	CLOUD	328	n/a	n/a	0	0	0
4331.302	n/a	WORD	2165651	wordpools/wasnorm_wordpool_576.txt	LTP250	ltpFR2	19	20	SISTER	1312	n/a	n/a	0	0	0
4334.012	n/a	WORD	2167006	wordpools/wasnorm_wordpool_576.txt	LTP250	ltpFR2	19	20	GREASE	660	n/a	n/a	0	0	0
4336.714	n/a	WORD	2168357	wordpools/wasnorm_wordpool_576.txt	LTP250	ltpFR2	19	20	DRESS	495	n/a	n/a	0	0	0
4339.248	n/a	WORD	2169624	wordpools/wasnorm_wordpool_576.txt	LTP250	ltpFR2	19	20	SPOOL	1356	n/a	n/a	0	0	0
4342.068	n/a	WORD	2171034	wordpools/wasnorm_wordpool_576.txt	LTP250	ltpFR2	19	20	PUDDLE	1140	n/a	n/a	0	0	0
4344.862	n/a	WORD	2172431	wordpools/wasnorm_wordpool_576.txt	LTP250	ltpFR2	19	20	KEEPER	769	n/a	n/a	0	0	0
4347.566	n/a	WORD	2173783	wordpools/wasnorm_wordpool_576.txt	LTP250	ltpFR2	19	20	YOLK	1633	n/a	n/a	0	0	0
4350.176	n/a	WORD	2175088	wordpools/wasnorm_wordpool_576.txt	LTP250	ltpFR2	19	20	HUSBAND	728	n/a	n/a	0	0	0
4352.752	n/a	WORD	2176376	wordpools/wasnorm_wordpool_576.txt	LTP250	ltpFR2	19	20	CABBAGE	210	n/a	n/a	0	0	0
4355.538	n/a	WORD	2177769	wordpools/wasnorm_wordpool_576.txt	LTP250	ltpFR2	19	20	MARS	873	n/a	n/a	0	0	0
4358.232	n/a	WORD	2179116	wordpools/wasnorm_wordpool_576.txt	LTP250	ltpFR2	19	20	DAUGHTER	442	n/a	n/a	0	0	0
4360.834	n/a	WORD	2180417	wordpools/wasnorm_wordpool_576.txt	LTP250	ltpFR2	19	20	BEEF	113	n/a	n/a	0	0	0
4363.368	n/a	WORD	2181684	wordpools/wasnorm_wordpool_576.txt	LTP250	ltpFR2	19	20	BUTCHER	203	n/a	n/a	0	0	0
4365.806	n/a	WORD	2182903	wordpools/wasnorm_wordpool_576.txt	LTP250	ltpFR2	19	20	COUSIN	392	n/a	n/a	0	0	0
4368.458	n/a	WORD	2184229	wordpools/wasnorm_wordpool_576.txt	LTP250	ltpFR2	19	20	QUARTER	1148	n/a	n/a	0	0	0
4371.034	n/a	WORD	2185517	wordpools/wasnorm_wordpool_576.txt	LTP250	ltpFR2	19	20	FOOTBALL	591	n/a	n/a	0	0	0
4373.818	n/a	WORD	2186909	wordpools/wasnorm_wordpool_576.txt	LTP250	ltpFR2	19	20	SHOVEL	1295	n/a	n/a	0	0	0
4376.42	n/a	WORD	2188210	wordpools/wasnorm_wordpool_576.txt	LTP250	ltpFR2	19	20	SWIMMER	1420	n/a	n/a	0	0	0
4379.1	n/a	WORD	2189550	wordpools/wasnorm_wordpool_576.txt	LTP250	ltpFR2	19	20	EUROPE	541	n/a	n/a	0	0	0
4380.71	n/a	START	2190355	n/a	LTP250	ltpFR2	19	n/a	n/a	n/a	29	n/a	n/a	n/a	n/a
4381.904	n/a	DISTRACTOR	2190952	n/a	LTP250	ltpFR2	19	20	n/a	n/a	n/a	n/a	0	0	0
4381.91	n/a	PROB	2190955	n/a	LTP250	ltpFR2	19	n/a	n/a	n/a	29	5	2	1	2
4384.894	n/a	PROB	2192447	n/a	LTP250	ltpFR2	19	n/a	n/a	n/a	29	16	4	7	5
4390.766	n/a	PROB	2195383	n/a	LTP250	ltpFR2	19	n/a	n/a	n/a	29	23	7	6	9
4394.066	n/a	PROB	2197033	n/a	LTP250	ltpFR2	19	n/a	n/a	n/a	29	15	9	5	1
4396.104	n/a	PROB	2198052	n/a	LTP250	ltpFR2	19	n/a	n/a	n/a	29	19	6	6	7
4397.886	n/a	PROB	2198943	n/a	LTP250	ltpFR2	19	n/a	n/a	n/a	29	10	5	4	1
4402.356	n/a	PROB	2201178	n/a	LTP250	ltpFR2	19	n/a	n/a	n/a	29	12	1	7	4
4404.12	n/a	STOP	2202060	n/a	LTP250	ltpFR2	19	n/a	n/a	n/a	29	n/a	n/a	n/a	n/a
4406.464	n/a	REC_START	2203232	n/a	LTP250	ltpFR2	19	20	n/a	n/a	n/a	n/a	0	0	0
4406.874	n/a	REC_WORD	2203437	wordpools/wasnorm_wordpool_576.txt	LTP250	ltpFR2	19	20	SISTER	1312	n/a	n/a	0	0	0
4407.662	n/a	REC_WORD	2203831	wordpools/wasnorm_wordpool_576.txt	LTP250	ltpFR2	19	20	SWIMMER	1420	n/a	n/a	0	0	0
4408.522	n/a	REC_WORD	2204261	wordpools/wasnorm_wordpool_576.txt	LTP250	ltpFR2	19	20	PRICE	-1	n/a	n/a	0	0	0
4496.918	n/a	DISTRACTOR	2248459	n/a	LTP250	ltpFR2	19	21	n/a	n/a	n/a	n/a	0	0	0
4496.918	n/a	START	2248459	n/a	LTP250	ltpFR2	19	n/a	n/a	n/a	30	n/a	n/a	n/a	n/a
4496.93	n/a	PROB	2248465	n/a	LTP250	ltpFR2	19	n/a	n/a	n/a	30	11	2	2	7
4498.85	n/a	PROB	2249425	n/a	LTP250	ltpFR2	19	n/a	n/a	n/a	30	20	6	7	7
4500.834	n/a	PROB	2250417	n/a	LTP250	ltpFR2	19	n/a	n/a	n/a	30	12	6	3	5
4504.804	n/a	PROB	2252402	n/a	LTP250	ltpFR2	19	n/a	n/a	n/a	30	13	5	4	4
4508.974	n/a	PROB	2254487	n/a	LTP250	ltpFR2	19	n/a	n/a	n/a	30	19	5	8	6
4510.91	n/a	PROB	2255455	n/a	LTP250	ltpFR2	19	n/a	n/a	n/a	30	20	5	9	7
4512.776	n/a	PROB	2256388	n/a	LTP250	ltpFR2	19	n/a	n/a	n/a	30	9	3	4	2
4516.328	n/a	PROB	2258164	n/a	LTP250	ltpFR2	19	n/a	n/a	n/a	30	17	7	8	2
4517.946	n/a	PROB	2258973	n/a	LTP250	ltpFR2	19	n/a	n/a	n/a	30	18	6	8	4
4519.698	n/a	STOP	2259849	n/a	LTP250	ltpFR2	19	n/a	n/a	n/a	30	n/a	n/a	n/a	n/a
4521.784	n/a	WORD	2260892	wordpools/wasnorm_wordpool_576.txt	LTP250	ltpFR2	19	21	GUARD	667	n/a	n/a	0	0	0
4524.472	n/a	WORD	2262236	wordpools/wasnorm_wordpool_576.txt	LTP250	ltpFR2	19	21	STOVE	1388	n/a	n/a	0	0	0
4527.108	n/a	WORD	2263554	wordpools/wasnorm_wordpool_576.txt	LTP250	ltpFR2	19	21	CLAM	315	n/a	n/a	0	0	0
4529.556	n/a	WORD	2264778	wordpools/wasnorm_wordpool_576.txt	LTP250	ltpFR2	19	21	OFFICE	972	n/a	n/a	0	0	0
4531.976	n/a	WORD	2265988	wordpools/wasnorm_wordpool_576.txt	LTP250	ltpFR2	19	21	CATTLE	261	n/a	n/a	0	0	0
4534.544	n/a	WORD	2267272	wordpools/wasnorm_wordpool_576.txt	LTP250	ltpFR2	19	21	LAPEL	800	n/a	n/a	0	0	0
4537.214	n/a	WORD	2268607	wordpools/wasnorm_wordpool_576.txt	LTP250	ltpFR2	19	21	BRIEFCASE	175	n/a	n/a	0	0	0
4539.764	n/a	WORD	2269882	wordpools/wasnorm_wordpool_576.txt	LTP250	ltpFR2	19	21	TAXI	1438	n/a	n/a	0	0	0
4542.216	n/a	WORD	2271108	wordpools/wasnorm_wordpool_576.txt	LTP250	ltpFR2	19	21	BOARD	143	n/a	n/a	0	0	0
4544.99	n/a	WORD	2272495	wordpools/wasnorm_wordpool_576.txt	LTP250	ltpFR2	19	21	COFFEE	341	n/a	n/a	0	0	0
4547.526	n/a	WORD	2273763	wordpools/wasnorm_wordpool_576.txt	LTP250	ltpFR2	19	21	PICTURE	1061	n/a	n/a	0	0	0
4550.056	n/a	WORD	2275028	wordpools/wasnorm_wordpool_576.txt	LTP250	ltpFR2	19	21	AGENT	10	n/a	n/a	0	0	0
4552.514	n/a	WORD	2276257	wordpools/wasnorm_wordpool_576.txt	LTP250	ltpFR2	19	21	POLICE	1098	n/a	n/a	0	0	0
4555.244	n/a	WORD	2277622	wordpools/wasnorm_wordpool_576.txt	LTP250	ltpFR2	19	21	ISLAND	745	n/a	n/a	0	0	0
4557.88	n/a	WORD	2278940	wordpools/wasnorm_wordpool_576.txt	LTP250	ltpFR2	19	21	FLESH	579	n/a	n/a	0	0	0
4560.604	n/a	WORD	2280302	wordpools/wasnorm_wordpool_576.txt	LTP250	ltpFR2	19	21	PIGMENT	1066	n/a	n/a	0	0	0
4563.022	n/a	WORD	2281511	wordpools/wasnorm_wordpool_576.txt	LTP250	ltpFR2	19	21	OX	994	n/a	n/a	0	0	0
4565.818	n/a	WORD	2282909	wordpools/wasnorm_wordpool_576.txt	LTP250	ltpFR2	19	21	BEAVER	109	n/a	n/a	0	0	0
4568.444	n/a	WORD	2284222	wordpools/wasnorm_wordpool_576.txt	LTP250	ltpFR2	19	21	CYCLONE	431	n/a	n/a	0	0	0
4571.22	n/a	WORD	2285610	wordpools/wasnorm_wordpool_576.txt	LTP250	ltpFR2	19	21	LAMP	798	n/a	n/a	0	0	0
4573.782	n/a	WORD	2286891	wordpools/wasnorm_wordpool_576.txt	LTP250	ltpFR2	19	21	COMPASS	358	n/a	n/a	0	0	0
4576.528	n/a	WORD	2288264	wordpools/wasnorm_wordpool_576.txt	LTP250	ltpFR2	19	21	KETCHUP	771	n/a	n/a	0	0	0
4579.112	n/a	WORD	2289556	wordpools/wasnorm_wordpool_576.txt	LTP250	ltpFR2	19	21	MUSTARD	935	n/a	n/a	0	0	0
4581.606	n/a	WORD	2290803	wordpools/wasnorm_wordpool_576.txt	LTP250	ltpFR2	19	21	OYSTER	995	n/a	n/a	0	0	0
4583.216	n/a	START	2291608	n/a	LTP250	ltpFR2	19	n/a	n/a	n/a	31	n/a	n/a	n/a	n/a
4584.34	n/a	DISTRACTOR	2292170	n/a	LTP250	ltpFR2	19	21	n/a	n/a	n/a	n/a	0	0	0
4584.348	n/a	PROB	2292174	n/a	LTP250	ltpFR2	19	n/a	n/a	n/a	31	23	9	7	7
4589.154	n/a	PROB	2294577	n/a	LTP250	ltpFR2	19	n/a	n/a	n/a	31	15	4	8	3
4593.206	n/a	PROB	2296603	n/a	LTP250	ltpFR2	19	n/a	n/a	n/a	31	11	5	3	3
4595.558	n/a	PROB	2297779	n/a	LTP250	ltpFR2	19	n/a	n/a	n/a	31	11	4	7	2
4599.494	n/a	PROB	2299747	n/a	LTP250	ltpFR2	19	n/a	n/a	n/a	31	12	2	8	2
4600.978	n/a	PROB	2300489	n/a	LTP250	ltpFR2	19	n/a	n/a	n/a	31	19	9	4	6
4602.68	n/a	PROB	2301340	n/a	LTP250	ltpFR2	19	n/a	n/a	n/a	31	17	5	9	3
4607.214	n/a	STOP	2303607	n/a	LTP250	ltpFR2	19	n/a	n/a	n/a	31	n/a	n/a	n/a	n/a
