onset	duration	trial_type	sample	stim_file	subject	experiment	session	trial	task	item_name	item_num	recog_conf	resp	color_b	color_g	color_r	case	font
260.922	n/a	SESS_START	130461	n/a	LTP122	ltpFR	18	n/a	n/a	n/a	n/a	3	n/a	n/a	n/a	n/a	n/a	n/a
307.834	n/a	WORD	153917	wordpools/wasnorm_wordpool.txt	LTP122	ltpFR	18	1	0	POLYESTER	1100	n/a	1	1	0.412841796875	0.57763671875	lower	../fonts/zerothre.ttf
311.932	n/a	WORD	155966	wordpools/wasnorm_wordpool.txt	LTP122	ltpFR	18	1	0	DRESS	495	n/a	1	1	0.412841796875	0.57763671875	lower	../fonts/zerothre.ttf
316.088	n/a	WORD	158044	wordpools/wasnorm_wordpool.txt	LTP122	ltpFR	18	1	0	VITAMIN	1574	n/a	0	1	0.412841796875	0.57763671875	lower	../fonts/zerothre.ttf
319.946	n/a	WORD	159973	wordpools/wasnorm_wordpool.txt	LTP122	ltpFR	18	1	1	KIWI	781	n/a	0	0	0.5869140625	0.422607421875	upper	../fonts/amplitud.ttf
323.828	n/a	WORD	161914	wordpools/wasnorm_wordpool.txt	LTP122	ltpFR	18	1	1	POCKETBOOK	1094	n/a	1	0	0.5869140625	0.422607421875	upper	../fonts/amplitud.ttf
327.844	n/a	WORD	163922	wordpools/wasnorm_wordpool.txt	LTP122	ltpFR	18	1	1	MECHANIC	884	n/a	1	0	0.5869140625	0.422607421875	upper	../fonts/amplitud.ttf
331.834	n/a	WORD	165917	wordpools/wasnorm_wordpool.txt	LTP122	ltpFR	18	1	1	WOLF	1619	n/a	1	0	0.5869140625	0.422607421875	upper	../fonts/amplitud.ttf
335.916	n/a	WORD	167958	wordpools/wasnorm_wordpool.txt	LTP122	ltpFR	18	1	1	CREEK	404	n/a	0	0	0.5869140625	0.422607421875	upper	../fonts/amplitud.ttf
339.874	n/a	WORD	169937	wordpools/wasnorm_wordpool.txt	LTP122	ltpFR	18	1	0	ASPIRIN	47	n/a	0	1	0.412841796875	0.57763671875	lower	../fonts/zerothre.ttf
343.69	n/a	WORD	171845	wordpools/wasnorm_wordpool.txt	LTP122	ltpFR	18	1	0	CLAW	319	n/a	0	1	0.412841796875	0.57763671875	lower	../fonts/zerothre.ttf
347.596	n/a	WORD	173798	wordpools/wasnorm_wordpool.txt	LTP122	ltpFR	18	1	0	TUB	1514	n/a	1	1	0.412841796875	0.57763671875	lower	../fonts/zerothre.ttf
351.554	n/a	WORD	175777	wordpools/wasnorm_wordpool.txt	LTP122	ltpFR	18	1	0	NEEDLE	941	n/a	0	1	0.412841796875	0.57763671875	lower	../fonts/zerothre.ttf
355.702	n/a	WORD	177851	wordpools/wasnorm_wordpool.txt	LTP122	ltpFR	18	1	0	TERRITORY	1452	n/a	1	1	0.412841796875	0.57763671875	lower	../fonts/zerothre.ttf
359.678	n/a	WORD	179839	wordpools/wasnorm_wordpool.txt	LTP122	ltpFR	18	1	1	WILDERNESS	1610	n/a	0	0	0.5869140625	0.422607421875	upper	../fonts/amplitud.ttf
363.66	n/a	WORD	181830	wordpools/wasnorm_wordpool.txt	LTP122	ltpFR	18	1	1	GULL	671	n/a	1	0	0.5869140625	0.422607421875	upper	../fonts/amplitud.ttf
367.806	n/a	WORD	183903	wordpools/wasnorm_wordpool.txt	LTP122	ltpFR	18	1	1	SEAGULL	1261	n/a	1	0	0.5869140625	0.422607421875	upper	../fonts/amplitud.ttf
373.39	n/a	REC_START	186695	n/a	LTP122	ltpFR	18	1	n/a	n/a	n/a	n/a	n/a	n/a	n/a	n/a	n/a	n/a
375.61	n/a	REC_WORD	187805	wordpools/wasnorm_wordpool.txt	LTP122	ltpFR	18	1	0	POLYESTER	1100	n/a	1	n/a	n/a	n/a	n/a	n/a
376.836	n/a	REC_WORD	188418	wordpools/wasnorm_wordpool.txt	LTP122	ltpFR	18	1	0	DRESS	495	n/a	1	n/a	n/a	n/a	n/a	n/a
377.586	n/a	REC_WORD	188793	wordpools/wasnorm_wordpool.txt	LTP122	ltpFR	18	1	0	VITAMIN	1574	n/a	0	n/a	n/a	n/a	n/a	n/a
378.378	n/a	REC_WORD	189189	wordpools/wasnorm_wordpool.txt	LTP122	ltpFR	18	1	0	ASPIRIN	47	n/a	0	n/a	n/a	n/a	n/a	n/a
379.202	n/a	REC_WORD	189601	wordpools/wasnorm_wordpool.txt	LTP122	ltpFR	18	1	1	KIWI	781	n/a	0	n/a	n/a	n/a	n/a	n/a
382.17	n/a	REC_WORD	191085	wordpools/wasnorm_wordpool.txt	LTP122	ltpFR	18	1	1	MECHANIC	884	n/a	1	n/a	n/a	n/a	n/a	n/a
383.228	n/a	REC_WORD	191614	wordpools/wasnorm_wordpool.txt	LTP122	ltpFR	18	1	1	WOLF	1619	n/a	1	n/a	n/a	n/a	n/a	n/a
384.22	n/a	REC_WORD	192110	wordpools/wasnorm_wordpool.txt	LTP122	ltpFR	18	1	0	CLAW	319	n/a	0	n/a	n/a	n/a	n/a	n/a
385.088	n/a	REC_WORD	192544	wordpools/wasnorm_wordpool.txt	LTP122	ltpFR	18	1	0	NEEDLE	941	n/a	0	n/a	n/a	n/a	n/a	n/a
385.966	n/a	REC_WORD	192983	wordpools/wasnorm_wordpool.txt	LTP122	ltpFR	18	1	0	TUB	1514	n/a	1	n/a	n/a	n/a	n/a	n/a
386.76	n/a	REC_WORD	193380	wordpools/wasnorm_wordpool.txt	LTP122	ltpFR	18	1	1	CREEK	404	n/a	0	n/a	n/a	n/a	n/a	n/a
387.404	n/a	REC_WORD	193702	wordpools/wasnorm_wordpool.txt	LTP122	ltpFR	18	1	1	WILDERNESS	1610	n/a	0	n/a	n/a	n/a	n/a	n/a
388.386	n/a	REC_WORD	194193	wordpools/wasnorm_wordpool.txt	LTP122	ltpFR	18	1	1	SEAGULL	1261	n/a	1	n/a	n/a	n/a	n/a	n/a
389.624	n/a	REC_WORD	194812	wordpools/wasnorm_wordpool.txt	LTP122	ltpFR	18	1	1	GULL	671	n/a	1	n/a	n/a	n/a	n/a	n/a
393.154	n/a	REC_WORD	196577	wordpools/wasnorm_wordpool.txt	LTP122	ltpFR	18	1	1	POCKETBOOK	1094	n/a	1	n/a	n/a	n/a	n/a	n/a
425.43	n/a	REC_WORD	212715	wordpools/wasnorm_wordpool.txt	LTP122	ltpFR	18	1	1	KIWI	781	n/a	0	n/a	n/a	n/a	n/a	n/a
451.64	n/a	WORD	225820	wordpools/wasnorm_wordpool.txt	LTP122	ltpFR	18	2	1	MOOSE	915	n/a	1	0	0.5869140625	0.422607421875	upper	../fonts/amplitud.ttf
455.64	n/a	WORD	227820	wordpools/wasnorm_wordpool.txt	LTP122	ltpFR	18	2	1	DIARY	460	n/a	0	0	0.5869140625	0.422607421875	upper	../fonts/amplitud.ttf
459.504	n/a	WORD	229752	wordpools/wasnorm_wordpool.txt	LTP122	ltpFR	18	2	1	LAUNDRY	803	n/a	0	0	0.5869140625	0.422607421875	upper	../fonts/amplitud.ttf
463.504	n/a	WORD	231752	wordpools/wasnorm_wordpool.txt	LTP122	ltpFR	18	2	1	BEAVER	109	n/a	1	0	0.5869140625	0.422607421875	upper	../fonts/amplitud.ttf
467.544	n/a	WORD	233772	wordpools/wasnorm_wordpool.txt	LTP122	ltpFR	18	2	1	KNEE	784	n/a	0	0	0.5869140625	0.422607421875	upper	../fonts/amplitud.ttf
471.508	n/a	WORD	235754	wordpools/wasnorm_wordpool.txt	LTP122	ltpFR	18	2	0	TOENAIL	1474	n/a	0	1	0.412841796875	0.57763671875	lower	../fonts/zerothre.ttf
475.534	n/a	WORD	237767	wordpools/wasnorm_wordpool.txt	LTP122	ltpFR	18	2	0	VACUUM	1543	n/a	1	1	0.412841796875	0.57763671875	lower	../fonts/zerothre.ttf
479.448	n/a	WORD	239724	wordpools/wasnorm_wordpool.txt	LTP122	ltpFR	18	2	0	VAMPIRE	1547	n/a	1	1	0.412841796875	0.57763671875	lower	../fonts/zerothre.ttf
483.63	n/a	WORD	241815	wordpools/wasnorm_wordpool.txt	LTP122	ltpFR	18	2	1	CATTLE	261	n/a	1	0	0.5869140625	0.422607421875	upper	../fonts/amplitud.ttf
487.722	n/a	WORD	243861	wordpools/wasnorm_wordpool.txt	LTP122	ltpFR	18	2	1	UNDERWEAR	1537	n/a	0	0	0.5869140625	0.422607421875	upper	../fonts/amplitud.ttf
491.846	n/a	WORD	245923	wordpools/wasnorm_wordpool.txt	LTP122	ltpFR	18	2	1	COSTUME	383	n/a	1	0	0.5869140625	0.422607421875	upper	../fonts/amplitud.ttf
496.002	n/a	WORD	248001	wordpools/wasnorm_wordpool.txt	LTP122	ltpFR	18	2	0	RAG	1160	n/a	0	1	0.412841796875	0.57763671875	lower	../fonts/zerothre.ttf
499.934	n/a	WORD	249967	wordpools/wasnorm_wordpool.txt	LTP122	ltpFR	18	2	0	SMOG	1330	n/a	1	1	0.412841796875	0.57763671875	lower	../fonts/zerothre.ttf
503.824	n/a	WORD	251912	wordpools/wasnorm_wordpool.txt	LTP122	ltpFR	18	2	0	SLUG	1329	n/a	0	1	0.412841796875	0.57763671875	lower	../fonts/zerothre.ttf
507.682	n/a	WORD	253841	wordpools/wasnorm_wordpool.txt	LTP122	ltpFR	18	2	0	TURTLE	1522	n/a	1	1	0.412841796875	0.57763671875	lower	../fonts/zerothre.ttf
511.514	n/a	WORD	255757	wordpools/wasnorm_wordpool.txt	LTP122	ltpFR	18	2	0	SCREWDRIVER	1255	n/a	0	1	0.412841796875	0.57763671875	lower	../fonts/zerothre.ttf
517.446	n/a	REC_START	258723	n/a	LTP122	ltpFR	18	2	n/a	n/a	n/a	n/a	n/a	n/a	n/a	n/a	n/a	n/a
520.09	n/a	REC_WORD	260045	wordpools/wasnorm_wordpool.txt	LTP122	ltpFR	18	2	1	MOOSE	915	n/a	1	n/a	n/a	n/a	n/a	n/a
520.828	n/a	REC_WORD	260414	wordpools/wasnorm_wordpool.txt	LTP122	ltpFR	18	2	1	DIARY	460	n/a	0	n/a	n/a	n/a	n/a	n/a
521.862	n/a	REC_WORD	260931	wordpools/wasnorm_wordpool.txt	LTP122	ltpFR	18	2	1	KNEE	784	n/a	0	n/a	n/a	n/a	n/a	n/a
522.48	n/a	REC_WORD	261240	wordpools/wasnorm_wordpool.txt	LTP122	ltpFR	18	2	0	TOENAIL	1474	n/a	0	n/a	n/a	n/a	n/a	n/a
523.064	n/a	REC_WORD	261532	wordpools/wasnorm_wordpool.txt	LTP122	ltpFR	18	2	0	SMOG	1330	n/a	1	n/a	n/a	n/a	n/a	n/a
523.926	n/a	REC_WORD	261963	wordpools/wasnorm_wordpool.txt	LTP122	ltpFR	18	2	1	CATTLE	261	n/a	1	n/a	n/a	n/a	n/a	n/a
524.654	n/a	REC_WORD	262327	wordpools/wasnorm_wordpool.txt	LTP122	ltpFR	18	2	0	VAMPIRE	1547	n/a	1	n/a	n/a	n/a	n/a	n/a
526.136	n/a	REC_WORD	263068	wordpools/wasnorm_wordpool.txt	LTP122	ltpFR	18	2	1	LAUNDRY	803	n/a	0	n/a	n/a	n/a	n/a	n/a
527.07	n/a	REC_WORD	263535	wordpools/wasnorm_wordpool.txt	LTP122	ltpFR	18	2	1	BEAVER	109	n/a	1	n/a	n/a	n/a	n/a	n/a
527.438	n/a	REC_WORD	263719	wordpools/wasnorm_wordpool.txt	LTP122	ltpFR	18	2	0	SLUG	1329	n/a	0	n/a	n/a	n/a	n/a	n/a
528.106	n/a	REC_WORD	264053	wordpools/wasnorm_wordpool.txt	LTP122	ltpFR	18	2	0	TURTLE	1522	n/a	1	n/a	n/a	n/a	n/a	n/a
529.544	n/a	REC_WORD	264772	wordpools/wasnorm_wordpool.txt	LTP122	ltpFR	18	2	1	UNDERWEAR	1537	n/a	0	n/a	n/a	n/a	n/a	n/a
530.378	n/a	REC_WORD	265189	wordpools/wasnorm_wordpool.txt	LTP122	ltpFR	18	2	1	COSTUME	383	n/a	1	n/a	n/a	n/a	n/a	n/a
531.316	n/a	REC_WORD	265658	wordpools/wasnorm_wordpool.txt	LTP122	ltpFR	18	2	0	RAG	1160	n/a	0	n/a	n/a	n/a	n/a	n/a
532.058	n/a	REC_WORD	266029	wordpools/wasnorm_wordpool.txt	LTP122	ltpFR	18	2	0	SCREWDRIVER	1255	n/a	0	n/a	n/a	n/a	n/a	n/a
545.838	n/a	REC_WORD	272919	wordpools/wasnorm_wordpool.txt	LTP122	ltpFR	18	2	0	VACUUM	1543	n/a	1	n/a	n/a	n/a	n/a	n/a
607.886	n/a	WORD	303943	wordpools/wasnorm_wordpool.txt	LTP122	ltpFR	18	3	0	BULLET	194	n/a	0	1	0.412841796875	0.57763671875	lower	../fonts/zerothre.ttf
611.876	n/a	WORD	305938	wordpools/wasnorm_wordpool.txt	LTP122	ltpFR	18	3	0	GANGSTER	620	n/a	1	1	0.412841796875	0.57763671875	lower	../fonts/zerothre.ttf
616.04	n/a	WORD	308020	wordpools/wasnorm_wordpool.txt	LTP122	ltpFR	18	3	1	LUNG	850	n/a	0	0	0.5869140625	0.422607421875	upper	../fonts/amplitud.ttf
619.998	n/a	WORD	309999	wordpools/wasnorm_wordpool.txt	LTP122	ltpFR	18	3	1	KIDNEY	776	n/a	0	0	0.5869140625	0.422607421875	upper	../fonts/amplitud.ttf
624.096	n/a	WORD	312048	wordpools/wasnorm_wordpool.txt	LTP122	ltpFR	18	3	1	HOME	712	n/a	0	0	0.5869140625	0.422607421875	upper	../fonts/amplitud.ttf
628.262	n/a	WORD	314131	wordpools/wasnorm_wordpool.txt	LTP122	ltpFR	18	3	1	SHELTER	1282	n/a	0	0	0.5869140625	0.422607421875	upper	../fonts/amplitud.ttf
632.328	n/a	WORD	316164	wordpools/wasnorm_wordpool.txt	LTP122	ltpFR	18	3	0	MONGOOSE	909	n/a	0	1	0.412841796875	0.57763671875	lower	../fonts/zerothre.ttf
636.368	n/a	WORD	318184	wordpools/wasnorm_wordpool.txt	LTP122	ltpFR	18	3	0	MONARCH	906	n/a	0	1	0.412841796875	0.57763671875	lower	../fonts/zerothre.ttf
640.408	n/a	WORD	320204	wordpools/wasnorm_wordpool.txt	LTP122	ltpFR	18	3	0	FLY	586	n/a	0	1	0.412841796875	0.57763671875	lower	../fonts/zerothre.ttf
644.466	n/a	WORD	322233	wordpools/wasnorm_wordpool.txt	LTP122	ltpFR	18	3	0	LITERATURE	831	n/a	0	1	0.412841796875	0.57763671875	lower	../fonts/zerothre.ttf
648.322	n/a	WORD	324161	wordpools/wasnorm_wordpool.txt	LTP122	ltpFR	18	3	1	CROWN	415	n/a	0	0	0.5869140625	0.422607421875	upper	../fonts/amplitud.ttf
652.38	n/a	WORD	326190	wordpools/wasnorm_wordpool.txt	LTP122	ltpFR	18	3	1	BINDER	127	n/a	0	0	0.5869140625	0.422607421875	upper	../fonts/amplitud.ttf
656.47	n/a	WORD	328235	wordpools/wasnorm_wordpool.txt	LTP122	ltpFR	18	3	1	CRUTCH	417	n/a	0	0	0.5869140625	0.422607421875	upper	../fonts/amplitud.ttf
660.36	n/a	WORD	330180	wordpools/wasnorm_wordpool.txt	LTP122	ltpFR	18	3	1	PRIMATE	1123	n/a	1	0	0.5869140625	0.422607421875	upper	../fonts/amplitud.ttf
664.244	n/a	WORD	332122	wordpools/wasnorm_wordpool.txt	LTP122	ltpFR	18	3	0	CORAL	378	n/a	0	1	0.412841796875	0.57763671875	lower	../fonts/zerothre.ttf
668.1	n/a	WORD	334050	wordpools/wasnorm_wordpool.txt	LTP122	ltpFR	18	3	0	AIRCRAFT	11	n/a	1	1	0.412841796875	0.57763671875	lower	../fonts/zerothre.ttf
674.04	n/a	REC_START	337020	n/a	LTP122	ltpFR	18	3	n/a	n/a	n/a	n/a	n/a	n/a	n/a	n/a	n/a	n/a
676.68	n/a	REC_WORD_VV	338340	wordpools/wasnorm_wordpool.txt	LTP122	ltpFR	18	3	n/a	<>	-1	n/a	n/a	n/a	n/a	n/a	n/a	n/a
677.412	n/a	REC_WORD	338706	wordpools/wasnorm_wordpool.txt	LTP122	ltpFR	18	3	0	BULLET	194	n/a	0	n/a	n/a	n/a	n/a	n/a
678.226	n/a	REC_WORD	339113	wordpools/wasnorm_wordpool.txt	LTP122	ltpFR	18	3	0	GANGSTER	620	n/a	1	n/a	n/a	n/a	n/a	n/a
679.842	n/a	REC_WORD	339921	wordpools/wasnorm_wordpool.txt	LTP122	ltpFR	18	3	1	LUNG	850	n/a	0	n/a	n/a	n/a	n/a	n/a
681.044	n/a	REC_WORD	340522	wordpools/wasnorm_wordpool.txt	LTP122	ltpFR	18	3	1	KIDNEY	776	n/a	0	n/a	n/a	n/a	n/a	n/a
683.24	n/a	REC_WORD	341620	wordpools/wasnorm_wordpool.txt	LTP122	ltpFR	18	3	1	PRIMATE	1123	n/a	1	n/a	n/a	n/a	n/a	n/a
684.248	n/a	REC_WORD	342124	wordpools/wasnorm_wordpool.txt	LTP122	ltpFR	18	3	0	CORAL	378	n/a	0	n/a	n/a	n/a	n/a	n/a
685.062	n/a	REC_WORD	342531	wordpools/wasnorm_wordpool.txt	LTP122	ltpFR	18	3	n/a	HOUSE	725	n/a	n/a	n/a	n/a	n/a	n/a	n/a
685.82	n/a	REC_WORD	342910	wordpools/wasnorm_wordpool.txt	LTP122	ltpFR	18	3	1	SHELTER	1282	n/a	0	n/a	n/a	n/a	n/a	n/a
686.952	n/a	REC_WORD	343476	wordpools/wasnorm_wordpool.txt	LTP122	ltpFR	18	3	0	AIRCRAFT	11	n/a	1	n/a	n/a	n/a	n/a	n/a
688.888	n/a	REC_WORD	344444	wordpools/wasnorm_wordpool.txt	LTP122	ltpFR	18	3	0	LITERATURE	831	n/a	0	n/a	n/a	n/a	n/a	n/a
690.01	n/a	REC_WORD	345005	wordpools/wasnorm_wordpool.txt	LTP122	ltpFR	18	3	1	BINDER	127	n/a	0	n/a	n/a	n/a	n/a	n/a
691.866	n/a	REC_WORD	345933	wordpools/wasnorm_wordpool.txt	LTP122	ltpFR	18	3	0	MONARCH	906	n/a	0	n/a	n/a	n/a	n/a	n/a
692.584	n/a	REC_WORD	346292	wordpools/wasnorm_wordpool.txt	LTP122	ltpFR	18	3	0	MONGOOSE	909	n/a	0	n/a	n/a	n/a	n/a	n/a
693.666	n/a	REC_WORD	346833	wordpools/wasnorm_wordpool.txt	LTP122	ltpFR	18	3	0	FLY	586	n/a	0	n/a	n/a	n/a	n/a	n/a
706.418	n/a	REC_WORD	353209	wordpools/wasnorm_wordpool.txt	LTP122	ltpFR	18	3	1	CRUTCH	417	n/a	0	n/a	n/a	n/a	n/a	n/a
717.992	n/a	REC_WORD	358996	wordpools/wasnorm_wordpool.txt	LTP122	ltpFR	18	3	1	HOME	712	n/a	0	n/a	n/a	n/a	n/a	n/a
753.09	n/a	WORD	376545	wordpools/wasnorm_wordpool.txt	LTP122	ltpFR	18	4	1	SUMMIT	1405	n/a	0	0	0.5869140625	0.422607421875	upper	../fonts/amplitud.ttf
757.24	n/a	WORD	378620	wordpools/wasnorm_wordpool.txt	LTP122	ltpFR	18	4	1	FLANNEL	574	n/a	0	0	0.5869140625	0.422607421875	upper	../fonts/amplitud.ttf
761.28	n/a	WORD	380640	wordpools/wasnorm_wordpool.txt	LTP122	ltpFR	18	4	0	FUR	615	n/a	0	1	0.412841796875	0.57763671875	lower	../fonts/zerothre.ttf
765.362	n/a	WORD	382681	wordpools/wasnorm_wordpool.txt	LTP122	ltpFR	18	4	0	FLEA	577	n/a	0	1	0.412841796875	0.57763671875	lower	../fonts/zerothre.ttf
769.462	n/a	WORD	384731	wordpools/wasnorm_wordpool.txt	LTP122	ltpFR	18	4	0	VET	1560	n/a	1	1	0.412841796875	0.57763671875	lower	../fonts/zerothre.ttf
773.644	n/a	WORD	386822	wordpools/wasnorm_wordpool.txt	LTP122	ltpFR	18	4	0	CAB	209	n/a	1	1	0.412841796875	0.57763671875	lower	../fonts/zerothre.ttf
777.65	n/a	WORD	388825	wordpools/wasnorm_wordpool.txt	LTP122	ltpFR	18	4	1	LID	817	n/a	0	0	0.5869140625	0.422607421875	upper	../fonts/amplitud.ttf
781.474	n/a	WORD	390737	wordpools/wasnorm_wordpool.txt	LTP122	ltpFR	18	4	1	OUTLAW	989	n/a	1	0	0.5869140625	0.422607421875	upper	../fonts/amplitud.ttf
785.44	n/a	WORD	392720	wordpools/wasnorm_wordpool.txt	LTP122	ltpFR	18	4	1	ROOSTER	1209	n/a	1	0	0.5869140625	0.422607421875	upper	../fonts/amplitud.ttf
789.422	n/a	WORD	394711	wordpools/wasnorm_wordpool.txt	LTP122	ltpFR	18	4	0	CONSOLE	364	n/a	0	1	0.412841796875	0.57763671875	lower	../fonts/zerothre.ttf
793.428	n/a	WORD	396714	wordpools/wasnorm_wordpool.txt	LTP122	ltpFR	18	4	0	MAT	877	n/a	1	1	0.412841796875	0.57763671875	lower	../fonts/zerothre.ttf
797.346	n/a	WORD	398673	wordpools/wasnorm_wordpool.txt	LTP122	ltpFR	18	4	0	BUFFALO	186	n/a	1	1	0.412841796875	0.57763671875	lower	../fonts/zerothre.ttf
801.31	n/a	WORD	400655	wordpools/wasnorm_wordpool.txt	LTP122	ltpFR	18	4	0	OTTER	986	n/a	1	1	0.412841796875	0.57763671875	lower	../fonts/zerothre.ttf
805.358	n/a	WORD	402679	wordpools/wasnorm_wordpool.txt	LTP122	ltpFR	18	4	1	CHICKEN	297	n/a	1	0	0.5869140625	0.422607421875	upper	../fonts/amplitud.ttf
809.45	n/a	WORD	404725	wordpools/wasnorm_wordpool.txt	LTP122	ltpFR	18	4	1	PUDDING	1139	n/a	0	0	0.5869140625	0.422607421875	upper	../fonts/amplitud.ttf
813.406	n/a	WORD	406703	wordpools/wasnorm_wordpool.txt	LTP122	ltpFR	18	4	1	BARLEY	88	n/a	n/a	0	0.5869140625	0.422607421875	upper	../fonts/amplitud.ttf
816.43	n/a	SLOW_MSG	408215	n/a	LTP122	ltpFR	18	4	n/a	n/a	n/a	n/a	n/a	n/a	n/a	n/a	n/a	n/a
820.638	n/a	REC_START	410319	n/a	LTP122	ltpFR	18	4	n/a	n/a	n/a	n/a	n/a	n/a	n/a	n/a	n/a	n/a
822.684	n/a	REC_WORD	411342	wordpools/wasnorm_wordpool.txt	LTP122	ltpFR	18	4	1	SUMMIT	1405	n/a	0	n/a	n/a	n/a	n/a	n/a
823.592	n/a	REC_WORD	411796	wordpools/wasnorm_wordpool.txt	LTP122	ltpFR	18	4	1	FLANNEL	574	n/a	0	n/a	n/a	n/a	n/a	n/a
824.968	n/a	REC_WORD	412484	wordpools/wasnorm_wordpool.txt	LTP122	ltpFR	18	4	0	FUR	615	n/a	0	n/a	n/a	n/a	n/a	n/a
826.994	n/a	REC_WORD	413497	wordpools/wasnorm_wordpool.txt	LTP122	ltpFR	18	4	0	FLEA	577	n/a	0	n/a	n/a	n/a	n/a	n/a
828.54	n/a	REC_WORD	414270	wordpools/wasnorm_wordpool.txt	LTP122	ltpFR	18	4	0	CAB	209	n/a	1	n/a	n/a	n/a	n/a	n/a
829.648	n/a	REC_WORD	414824	wordpools/wasnorm_wordpool.txt	LTP122	ltpFR	18	4	0	VET	1560	n/a	1	n/a	n/a	n/a	n/a	n/a
832.078	n/a	REC_WORD	416039	wordpools/wasnorm_wordpool.txt	LTP122	ltpFR	18	4	1	LID	817	n/a	0	n/a	n/a	n/a	n/a	n/a
832.866	n/a	REC_WORD	416433	wordpools/wasnorm_wordpool.txt	LTP122	ltpFR	18	4	1	ROOSTER	1209	n/a	1	n/a	n/a	n/a	n/a	n/a
834.022	n/a	REC_WORD	417011	wordpools/wasnorm_wordpool.txt	LTP122	ltpFR	18	4	1	OUTLAW	989	n/a	1	n/a	n/a	n/a	n/a	n/a
840.794	n/a	REC_WORD	420397	wordpools/wasnorm_wordpool.txt	LTP122	ltpFR	18	4	0	CONSOLE	364	n/a	0	n/a	n/a	n/a	n/a	n/a
841.876	n/a	REC_WORD	420938	wordpools/wasnorm_wordpool.txt	LTP122	ltpFR	18	4	0	MAT	877	n/a	1	n/a	n/a	n/a	n/a	n/a
842.954	n/a	REC_WORD	421477	wordpools/wasnorm_wordpool.txt	LTP122	ltpFR	18	4	0	BUFFALO	186	n/a	1	n/a	n/a	n/a	n/a	n/a
843.942	n/a	REC_WORD	421971	wordpools/wasnorm_wordpool.txt	LTP122	ltpFR	18	4	0	OTTER	986	n/a	1	n/a	n/a	n/a	n/a	n/a
844.614	n/a	REC_WORD	422307	wordpools/wasnorm_wordpool.txt	LTP122	ltpFR	18	4	1	CHICKEN	297	n/a	1	n/a	n/a	n/a	n/a	n/a
845.678	n/a	REC_WORD	422839	wordpools/wasnorm_wordpool.txt	LTP122	ltpFR	18	4	1	BARLEY	88	n/a	n/a	n/a	n/a	n/a	n/a	n/a
847.14	n/a	REC_WORD	423570	wordpools/wasnorm_wordpool.txt	LTP122	ltpFR	18	4	1	PUDDING	1139	n/a	0	n/a	n/a	n/a	n/a	n/a
909.994	n/a	WORD	454997	wordpools/wasnorm_wordpool.txt	LTP122	ltpFR	18	5	1	TANGERINE	1431	n/a	0	0	0.5869140625	0.422607421875	upper	../fonts/amplitud.ttf
913.91	n/a	WORD	456955	wordpools/wasnorm_wordpool.txt	LTP122	ltpFR	18	5	1	BERRY	122	n/a	0	0	0.5869140625	0.422607421875	upper	../fonts/amplitud.ttf
917.976	n/a	WORD	458988	wordpools/wasnorm_wordpool.txt	LTP122	ltpFR	18	5	1	PIPE	1073	n/a	0	0	0.5869140625	0.422607421875	upper	../fonts/amplitud.ttf
921.89	n/a	WORD	460945	wordpools/wasnorm_wordpool.txt	LTP122	ltpFR	18	5	1	DRAGON	492	n/a	1	0	0.5869140625	0.422607421875	upper	../fonts/amplitud.ttf
925.988	n/a	WORD	462994	wordpools/wasnorm_wordpool.txt	LTP122	ltpFR	18	5	1	ALLEY	15	n/a	0	0	0.5869140625	0.422607421875	upper	../fonts/amplitud.ttf
930.088	n/a	WORD	465044	wordpools/wasnorm_wordpool.txt	LTP122	ltpFR	18	5	1	FREEZER	604	n/a	0	0	0.5869140625	0.422607421875	upper	../fonts/amplitud.ttf
934.078	n/a	WORD	467039	wordpools/wasnorm_wordpool.txt	LTP122	ltpFR	18	5	1	SURF	1412	n/a	0	0	0.5869140625	0.422607421875	upper	../fonts/amplitud.ttf
938.128	n/a	WORD	469064	wordpools/wasnorm_wordpool.txt	LTP122	ltpFR	18	5	1	PUDDLE	1140	n/a	0	0	0.5869140625	0.422607421875	upper	../fonts/amplitud.ttf
942.276	n/a	WORD	471138	wordpools/wasnorm_wordpool.txt	LTP122	ltpFR	18	5	1	CARDINAL	244	n/a	1	0	0.5869140625	0.422607421875	upper	../fonts/amplitud.ttf
946.092	n/a	WORD	473046	wordpools/wasnorm_wordpool.txt	LTP122	ltpFR	18	5	1	VETERAN	1561	n/a	1	0	0.5869140625	0.422607421875	upper	../fonts/amplitud.ttf
950.166	n/a	WORD	475083	wordpools/wasnorm_wordpool.txt	LTP122	ltpFR	18	5	1	HERD	705	n/a	1	0	0.5869140625	0.422607421875	upper	../fonts/amplitud.ttf
954.122	n/a	WORD	477061	wordpools/wasnorm_wordpool.txt	LTP122	ltpFR	18	5	1	BROOK	177	n/a	0	0	0.5869140625	0.422607421875	upper	../fonts/amplitud.ttf
958.03	n/a	WORD	479015	wordpools/wasnorm_wordpool.txt	LTP122	ltpFR	18	5	1	LAKE	796	n/a	0	0	0.5869140625	0.422607421875	upper	../fonts/amplitud.ttf
962.12	n/a	WORD	481060	wordpools/wasnorm_wordpool.txt	LTP122	ltpFR	18	5	1	PATRIOT	1026	n/a	1	0	0.5869140625	0.422607421875	upper	../fonts/amplitud.ttf
966.284	n/a	WORD	483142	wordpools/wasnorm_wordpool.txt	LTP122	ltpFR	18	5	1	PIGEON	1065	n/a	1	0	0.5869140625	0.422607421875	upper	../fonts/amplitud.ttf
970.276	n/a	WORD	485138	wordpools/wasnorm_wordpool.txt	LTP122	ltpFR	18	5	1	FIG	563	n/a	0	0	0.5869140625	0.422607421875	upper	../fonts/amplitud.ttf
976.366	n/a	REC_START	488183	n/a	LTP122	ltpFR	18	5	n/a	n/a	n/a	n/a	n/a	n/a	n/a	n/a	n/a	n/a
978.806	n/a	REC_WORD	489403	wordpools/wasnorm_wordpool.txt	LTP122	ltpFR	18	5	1	TANGERINE	1431	n/a	0	n/a	n/a	n/a	n/a	n/a
979.708	n/a	REC_WORD	489854	wordpools/wasnorm_wordpool.txt	LTP122	ltpFR	18	5	1	BERRY	122	n/a	0	n/a	n/a	n/a	n/a	n/a
980.186	n/a	REC_WORD	490093	wordpools/wasnorm_wordpool.txt	LTP122	ltpFR	18	5	1	FIG	563	n/a	0	n/a	n/a	n/a	n/a	n/a
981.106	n/a	REC_WORD	490553	wordpools/wasnorm_wordpool.txt	LTP122	ltpFR	18	5	1	DRAGON	492	n/a	1	n/a	n/a	n/a	n/a	n/a
981.798	n/a	REC_WORD	490899	wordpools/wasnorm_wordpool.txt	LTP122	ltpFR	18	5	1	PIPE	1073	n/a	0	n/a	n/a	n/a	n/a	n/a
982.512	n/a	REC_WORD	491256	wordpools/wasnorm_wordpool.txt	LTP122	ltpFR	18	5	1	ALLEY	15	n/a	0	n/a	n/a	n/a	n/a	n/a
983.016	n/a	REC_WORD	491508	wordpools/wasnorm_wordpool.txt	LTP122	ltpFR	18	5	1	FREEZER	604	n/a	0	n/a	n/a	n/a	n/a	n/a
985.302	n/a	REC_WORD	492651	wordpools/wasnorm_wordpool.txt	LTP122	ltpFR	18	5	1	PUDDLE	1140	n/a	0	n/a	n/a	n/a	n/a	n/a
985.824	n/a	REC_WORD	492912	wordpools/wasnorm_wordpool.txt	LTP122	ltpFR	18	5	1	SURF	1412	n/a	0	n/a	n/a	n/a	n/a	n/a
987.276	n/a	REC_WORD	493638	wordpools/wasnorm_wordpool.txt	LTP122	ltpFR	18	5	1	VETERAN	1561	n/a	1	n/a	n/a	n/a	n/a	n/a
988.026	n/a	REC_WORD	494013	wordpools/wasnorm_wordpool.txt	LTP122	ltpFR	18	5	1	CARDINAL	244	n/a	1	n/a	n/a	n/a	n/a	n/a
988.808	n/a	REC_WORD	494404	wordpools/wasnorm_wordpool.txt	LTP122	ltpFR	18	5	1	PATRIOT	1026	n/a	1	n/a	n/a	n/a	n/a	n/a
989.592	n/a	REC_WORD	494796	wordpools/wasnorm_wordpool.txt	LTP122	ltpFR	18	5	1	PIGEON	1065	n/a	1	n/a	n/a	n/a	n/a	n/a
990.238	n/a	REC_WORD	495119	wordpools/wasnorm_wordpool.txt	LTP122	ltpFR	18	5	1	HERD	705	n/a	1	n/a	n/a	n/a	n/a	n/a
993.114	n/a	REC_WORD	496557	wordpools/wasnorm_wordpool.txt	LTP122	ltpFR	18	5	1	BROOK	177	n/a	0	n/a	n/a	n/a	n/a	n/a
993.912	n/a	REC_WORD	496956	wordpools/wasnorm_wordpool.txt	LTP122	ltpFR	18	5	1	LAKE	796	n/a	0	n/a	n/a	n/a	n/a	n/a
1054.45	n/a	WORD	527225	wordpools/wasnorm_wordpool.txt	LTP122	ltpFR	18	6	-1	DISH	474	n/a	-1	1	1.0	1.0	upper	../fonts/Verdana.ttf
1058.54	n/a	WORD	529270	wordpools/wasnorm_wordpool.txt	LTP122	ltpFR	18	6	-1	TRANSPLANT	1496	n/a	-1	1	1.0	1.0	upper	../fonts/Verdana.ttf
1062.69	n/a	WORD	531345	wordpools/wasnorm_wordpool.txt	LTP122	ltpFR	18	6	-1	SOCK	1339	n/a	-1	1	1.0	1.0	upper	../fonts/Verdana.ttf
1066.848	n/a	WORD	533424	wordpools/wasnorm_wordpool.txt	LTP122	ltpFR	18	6	-1	PERSON	1052	n/a	-1	1	1.0	1.0	upper	../fonts/Verdana.ttf
1071.062	n/a	WORD	535531	wordpools/wasnorm_wordpool.txt	LTP122	ltpFR	18	6	-1	FLASK	576	n/a	-1	1	1.0	1.0	upper	../fonts/Verdana.ttf
1075.152	n/a	WORD	537576	wordpools/wasnorm_wordpool.txt	LTP122	ltpFR	18	6	-1	PAIL	1002	n/a	-1	1	1.0	1.0	upper	../fonts/Verdana.ttf
1078.976	n/a	WORD	539488	wordpools/wasnorm_wordpool.txt	LTP122	ltpFR	18	6	-1	CASH	252	n/a	-1	1	1.0	1.0	upper	../fonts/Verdana.ttf
1082.95	n/a	WORD	541475	wordpools/wasnorm_wordpool.txt	LTP122	ltpFR	18	6	-1	DOLLAR	482	n/a	-1	1	1.0	1.0	upper	../fonts/Verdana.ttf
1086.776	n/a	WORD	543388	wordpools/wasnorm_wordpool.txt	LTP122	ltpFR	18	6	-1	FOREHEAD	592	n/a	-1	1	1.0	1.0	upper	../fonts/Verdana.ttf
1090.614	n/a	WORD	545307	wordpools/wasnorm_wordpool.txt	LTP122	ltpFR	18	6	-1	RIBBON	1189	n/a	-1	1	1.0	1.0	upper	../fonts/Verdana.ttf
1094.814	n/a	WORD	547407	wordpools/wasnorm_wordpool.txt	LTP122	ltpFR	18	6	-1	GIRAFFE	636	n/a	-1	1	1.0	1.0	upper	../fonts/Verdana.ttf
1098.82	n/a	WORD	549410	wordpools/wasnorm_wordpool.txt	LTP122	ltpFR	18	6	-1	BRAN	167	n/a	-1	1	1.0	1.0	upper	../fonts/Verdana.ttf
1102.904	n/a	WORD	551452	wordpools/wasnorm_wordpool.txt	LTP122	ltpFR	18	6	-1	FLESH	579	n/a	-1	1	1.0	1.0	upper	../fonts/Verdana.ttf
1107.034	n/a	WORD	553517	wordpools/wasnorm_wordpool.txt	LTP122	ltpFR	18	6	-1	PATIENT	1024	n/a	-1	1	1.0	1.0	upper	../fonts/Verdana.ttf
1110.892	n/a	WORD	555446	wordpools/wasnorm_wordpool.txt	LTP122	ltpFR	18	6	-1	HOSPITAL	721	n/a	-1	1	1.0	1.0	upper	../fonts/Verdana.ttf
1114.824	n/a	WORD	557412	wordpools/wasnorm_wordpool.txt	LTP122	ltpFR	18	6	-1	FOUNTAIN	597	n/a	-1	1	1.0	1.0	upper	../fonts/Verdana.ttf
1120.948	n/a	REC_START	560474	n/a	LTP122	ltpFR	18	6	n/a	n/a	n/a	n/a	n/a	n/a	n/a	n/a	n/a	n/a
1124.91	n/a	REC_WORD	562455	wordpools/wasnorm_wordpool.txt	LTP122	ltpFR	18	6	-1	DISH	474	n/a	-1	n/a	n/a	n/a	n/a	n/a
1125.608	n/a	REC_WORD	562804	wordpools/wasnorm_wordpool.txt	LTP122	ltpFR	18	6	-1	TRANSPLANT	1496	n/a	-1	n/a	n/a	n/a	n/a	n/a
1128.126	n/a	REC_WORD	564063	wordpools/wasnorm_wordpool.txt	LTP122	ltpFR	18	6	-1	PERSON	1052	n/a	-1	n/a	n/a	n/a	n/a	n/a
1129.08	n/a	REC_WORD	564540	wordpools/wasnorm_wordpool.txt	LTP122	ltpFR	18	6	-1	SOCK	1339	n/a	-1	n/a	n/a	n/a	n/a	n/a
1130.78	n/a	REC_WORD	565390	wordpools/wasnorm_wordpool.txt	LTP122	ltpFR	18	6	-1	PATIENT	1024	n/a	-1	n/a	n/a	n/a	n/a	n/a
1131.54	n/a	REC_WORD	565770	wordpools/wasnorm_wordpool.txt	LTP122	ltpFR	18	6	-1	HOSPITAL	721	n/a	-1	n/a	n/a	n/a	n/a	n/a
1132.322	n/a	REC_WORD	566161	wordpools/wasnorm_wordpool.txt	LTP122	ltpFR	18	6	-1	FOREHEAD	592	n/a	-1	n/a	n/a	n/a	n/a	n/a
1133.31	n/a	REC_WORD	566655	wordpools/wasnorm_wordpool.txt	LTP122	ltpFR	18	6	-1	RIBBON	1189	n/a	-1	n/a	n/a	n/a	n/a	n/a
1136.038	n/a	REC_WORD	568019	wordpools/wasnorm_wordpool.txt	LTP122	ltpFR	18	6	-1	FLESH	579	n/a	-1	n/a	n/a	n/a	n/a	n/a
1137.63	n/a	REC_WORD	568815	wordpools/wasnorm_wordpool.txt	LTP122	ltpFR	18	6	-1	BRAN	167	n/a	-1	n/a	n/a	n/a	n/a	n/a
1138.258	n/a	REC_WORD	569129	wordpools/wasnorm_wordpool.txt	LTP122	ltpFR	18	6	-1	GIRAFFE	636	n/a	-1	n/a	n/a	n/a	n/a	n/a
1139.018	n/a	REC_WORD	569509	wordpools/wasnorm_wordpool.txt	LTP122	ltpFR	18	6	-1	FOUNTAIN	597	n/a	-1	n/a	n/a	n/a	n/a	n/a
1141.232	n/a	REC_WORD	570616	wordpools/wasnorm_wordpool.txt	LTP122	ltpFR	18	6	-1	FLASK	576	n/a	-1	n/a	n/a	n/a	n/a	n/a
1165.968	n/a	REC_WORD	582984	wordpools/wasnorm_wordpool.txt	LTP122	ltpFR	18	6	-1	PAIL	1002	n/a	-1	n/a	n/a	n/a	n/a	n/a
1218.568	n/a	WORD	609284	wordpools/wasnorm_wordpool.txt	LTP122	ltpFR	18	7	-1	TEAM	1441	n/a	-1	1	1.0	1.0	upper	../fonts/Verdana.ttf
1222.718	n/a	WORD	611359	wordpools/wasnorm_wordpool.txt	LTP122	ltpFR	18	7	-1	HELMET	702	n/a	-1	1	1.0	1.0	upper	../fonts/Verdana.ttf
1226.64	n/a	WORD	613320	wordpools/wasnorm_wordpool.txt	LTP122	ltpFR	18	7	-1	FLUTE	585	n/a	-1	1	1.0	1.0	upper	../fonts/Verdana.ttf
1230.848	n/a	WORD	615424	wordpools/wasnorm_wordpool.txt	LTP122	ltpFR	18	7	-1	COUGAR	387	n/a	-1	1	1.0	1.0	upper	../fonts/Verdana.ttf
1234.946	n/a	WORD	617473	wordpools/wasnorm_wordpool.txt	LTP122	ltpFR	18	7	-1	LAPEL	800	n/a	-1	1	1.0	1.0	upper	../fonts/Verdana.ttf
1238.928	n/a	WORD	619464	wordpools/wasnorm_wordpool.txt	LTP122	ltpFR	18	7	-1	DRIVER	499	n/a	-1	1	1.0	1.0	upper	../fonts/Verdana.ttf
1242.978	n/a	WORD	621489	wordpools/wasnorm_wordpool.txt	LTP122	ltpFR	18	7	-1	CHAUFFEUR	283	n/a	-1	1	1.0	1.0	upper	../fonts/Verdana.ttf
1246.9	n/a	WORD	623450	wordpools/wasnorm_wordpool.txt	LTP122	ltpFR	18	7	-1	CLAM	315	n/a	-1	1	1.0	1.0	upper	../fonts/Verdana.ttf
1250.942	n/a	WORD	625471	wordpools/wasnorm_wordpool.txt	LTP122	ltpFR	18	7	-1	WINDSHIELD	1612	n/a	-1	1	1.0	1.0	upper	../fonts/Verdana.ttf
1255.108	n/a	WORD	627554	wordpools/wasnorm_wordpool.txt	LTP122	ltpFR	18	7	-1	TROMBONE	1508	n/a	-1	1	1.0	1.0	upper	../fonts/Verdana.ttf
1259.198	n/a	WORD	629599	wordpools/wasnorm_wordpool.txt	LTP122	ltpFR	18	7	-1	DART	440	n/a	-1	1	1.0	1.0	upper	../fonts/Verdana.ttf
1263.146	n/a	WORD	631573	wordpools/wasnorm_wordpool.txt	LTP122	ltpFR	18	7	-1	LUNCH	849	n/a	-1	1	1.0	1.0	upper	../fonts/Verdana.ttf
1267.004	n/a	WORD	633502	wordpools/wasnorm_wordpool.txt	LTP122	ltpFR	18	7	-1	SACK	1220	n/a	-1	1	1.0	1.0	upper	../fonts/Verdana.ttf
1270.868	n/a	WORD	635434	wordpools/wasnorm_wordpool.txt	LTP122	ltpFR	18	7	-1	SHELF	1280	n/a	-1	1	1.0	1.0	upper	../fonts/Verdana.ttf
1274.868	n/a	WORD	637434	wordpools/wasnorm_wordpool.txt	LTP122	ltpFR	18	7	-1	ELF	525	n/a	-1	1	1.0	1.0	upper	../fonts/Verdana.ttf
1279.058	n/a	WORD	639529	wordpools/wasnorm_wordpool.txt	LTP122	ltpFR	18	7	-1	SHORTS	1293	n/a	-1	1	1.0	1.0	upper	../fonts/Verdana.ttf
1284.742	n/a	REC_START	642371	n/a	LTP122	ltpFR	18	7	n/a	n/a	n/a	n/a	n/a	n/a	n/a	n/a	n/a	n/a
1287.7	n/a	REC_WORD	643850	wordpools/wasnorm_wordpool.txt	LTP122	ltpFR	18	7	-1	TEAM	1441	n/a	-1	n/a	n/a	n/a	n/a	n/a
1288.188	n/a	REC_WORD	644094	wordpools/wasnorm_wordpool.txt	LTP122	ltpFR	18	7	-1	HELMET	702	n/a	-1	n/a	n/a	n/a	n/a	n/a
1289.002	n/a	REC_WORD	644501	wordpools/wasnorm_wordpool.txt	LTP122	ltpFR	18	7	-1	FLUTE	585	n/a	-1	n/a	n/a	n/a	n/a	n/a
1290.892	n/a	REC_WORD	645446	wordpools/wasnorm_wordpool.txt	LTP122	ltpFR	18	7	-1	TROMBONE	1508	n/a	-1	n/a	n/a	n/a	n/a	n/a
1291.8	n/a	REC_WORD	645900	wordpools/wasnorm_wordpool.txt	LTP122	ltpFR	18	7	-1	LAPEL	800	n/a	-1	n/a	n/a	n/a	n/a	n/a
1293.558	n/a	REC_WORD	646779	wordpools/wasnorm_wordpool.txt	LTP122	ltpFR	18	7	-1	SHORTS	1293	n/a	-1	n/a	n/a	n/a	n/a	n/a
1295.742	n/a	REC_WORD	647871	wordpools/wasnorm_wordpool.txt	LTP122	ltpFR	18	7	-1	DRIVER	499	n/a	-1	n/a	n/a	n/a	n/a	n/a
1296.474	n/a	REC_WORD	648237	wordpools/wasnorm_wordpool.txt	LTP122	ltpFR	18	7	-1	CHAUFFEUR	283	n/a	-1	n/a	n/a	n/a	n/a	n/a
1302.212	n/a	REC_WORD	651106	wordpools/wasnorm_wordpool.txt	LTP122	ltpFR	18	7	-1	LUNCH	849	n/a	-1	n/a	n/a	n/a	n/a	n/a
1303.26	n/a	REC_WORD	651630	wordpools/wasnorm_wordpool.txt	LTP122	ltpFR	18	7	-1	SHELF	1280	n/a	-1	n/a	n/a	n/a	n/a	n/a
1304.178	n/a	REC_WORD	652089	wordpools/wasnorm_wordpool.txt	LTP122	ltpFR	18	7	-1	ELF	525	n/a	-1	n/a	n/a	n/a	n/a	n/a
1304.792	n/a	REC_WORD	652396	wordpools/wasnorm_wordpool.txt	LTP122	ltpFR	18	7	-1	SACK	1220	n/a	-1	n/a	n/a	n/a	n/a	n/a
1307.47	n/a	REC_WORD	653735	wordpools/wasnorm_wordpool.txt	LTP122	ltpFR	18	7	-1	WINDSHIELD	1612	n/a	-1	n/a	n/a	n/a	n/a	n/a
1310.624	n/a	REC_WORD	655312	wordpools/wasnorm_wordpool.txt	LTP122	ltpFR	18	7	-1	COUGAR	387	n/a	-1	n/a	n/a	n/a	n/a	n/a
1334.66	n/a	REC_WORD	667330	wordpools/wasnorm_wordpool.txt	LTP122	ltpFR	18	7	-1	DART	440	n/a	-1	n/a	n/a	n/a	n/a	n/a
1363.908	n/a	WORD	681954	wordpools/wasnorm_wordpool.txt	LTP122	ltpFR	18	8	0	PREDATOR	1120	n/a	1	1	0.412841796875	0.57763671875	lower	../fonts/zerothre.ttf
1367.798	n/a	WORD	683899	wordpools/wasnorm_wordpool.txt	LTP122	ltpFR	18	8	0	DIRECTOR	471	n/a	1	1	0.412841796875	0.57763671875	lower	../fonts/zerothre.ttf
1371.806	n/a	WORD	685903	wordpools/wasnorm_wordpool.txt	LTP122	ltpFR	18	8	0	COWBOY	395	n/a	1	1	0.412841796875	0.57763671875	lower	../fonts/zerothre.ttf
1375.828	n/a	WORD	687914	wordpools/wasnorm_wordpool.txt	LTP122	ltpFR	18	8	0	PAINT	1003	n/a	0	1	0.412841796875	0.57763671875	lower	../fonts/zerothre.ttf
1379.652	n/a	WORD	689826	wordpools/wasnorm_wordpool.txt	LTP122	ltpFR	18	8	0	RECEIPT	1173	n/a	0	1	0.412841796875	0.57763671875	lower	../fonts/zerothre.ttf
1383.786	n/a	WORD	691893	wordpools/wasnorm_wordpool.txt	LTP122	ltpFR	18	8	0	PENNY	1045	n/a	0	1	0.412841796875	0.57763671875	lower	../fonts/zerothre.ttf
1387.742	n/a	WORD	693871	wordpools/wasnorm_wordpool.txt	LTP122	ltpFR	18	8	0	VEHICLE	1553	n/a	1	1	0.412841796875	0.57763671875	lower	../fonts/zerothre.ttf
1391.692	n/a	WORD	695846	wordpools/wasnorm_wordpool.txt	LTP122	ltpFR	18	8	0	PASSENGER	1020	n/a	1	1	0.412841796875	0.57763671875	lower	../fonts/zerothre.ttf
1395.84	n/a	WORD	697920	wordpools/wasnorm_wordpool.txt	LTP122	ltpFR	18	8	0	WHIP	1604	n/a	1	1	0.412841796875	0.57763671875	lower	../fonts/zerothre.ttf
1399.972	n/a	WORD	699986	wordpools/wasnorm_wordpool.txt	LTP122	ltpFR	18	8	0	SILK	1307	n/a	0	1	0.412841796875	0.57763671875	lower	../fonts/zerothre.ttf
1403.862	n/a	WORD	701931	wordpools/wasnorm_wordpool.txt	LTP122	ltpFR	18	8	0	STETHOSCOPE	1379	n/a	0	1	0.412841796875	0.57763671875	lower	../fonts/zerothre.ttf
1407.928	n/a	WORD	703964	wordpools/wasnorm_wordpool.txt	LTP122	ltpFR	18	8	0	ARCHITECT	36	n/a	1	1	0.412841796875	0.57763671875	lower	../fonts/zerothre.ttf
1411.818	n/a	WORD	705909	wordpools/wasnorm_wordpool.txt	LTP122	ltpFR	18	8	0	CLOVE	329	n/a	0	1	0.412841796875	0.57763671875	lower	../fonts/zerothre.ttf
1415.892	n/a	WORD	707946	wordpools/wasnorm_wordpool.txt	LTP122	ltpFR	18	8	0	MONSTER	912	n/a	1	1	0.412841796875	0.57763671875	lower	../fonts/zerothre.ttf
1419.848	n/a	WORD	709924	wordpools/wasnorm_wordpool.txt	LTP122	ltpFR	18	8	0	HORSE	719	n/a	1	1	0.412841796875	0.57763671875	lower	../fonts/zerothre.ttf
1424.022	n/a	WORD	712011	wordpools/wasnorm_wordpool.txt	LTP122	ltpFR	18	8	0	SPICE	1350	n/a	0	1	0.412841796875	0.57763671875	lower	../fonts/zerothre.ttf
1430.022	n/a	REC_START	715011	n/a	LTP122	ltpFR	18	8	n/a	n/a	n/a	n/a	n/a	n/a	n/a	n/a	n/a	n/a
1432.63	n/a	REC_WORD	716315	wordpools/wasnorm_wordpool.txt	LTP122	ltpFR	18	8	0	PREDATOR	1120	n/a	1	n/a	n/a	n/a	n/a	n/a
1433.224	n/a	REC_WORD	716612	wordpools/wasnorm_wordpool.txt	LTP122	ltpFR	18	8	0	COWBOY	395	n/a	1	n/a	n/a	n/a	n/a	n/a
1433.932	n/a	REC_WORD	716966	wordpools/wasnorm_wordpool.txt	LTP122	ltpFR	18	8	0	DIRECTOR	471	n/a	1	n/a	n/a	n/a	n/a	n/a
1434.754	n/a	REC_WORD	717377	wordpools/wasnorm_wordpool.txt	LTP122	ltpFR	18	8	0	VEHICLE	1553	n/a	1	n/a	n/a	n/a	n/a	n/a
1435.604	n/a	REC_WORD	717802	wordpools/wasnorm_wordpool.txt	LTP122	ltpFR	18	8	0	PASSENGER	1020	n/a	1	n/a	n/a	n/a	n/a	n/a
1436.314	n/a	REC_WORD	718157	wordpools/wasnorm_wordpool.txt	LTP122	ltpFR	18	8	0	SILK	1307	n/a	0	n/a	n/a	n/a	n/a	n/a
1437.09	n/a	REC_WORD	718545	wordpools/wasnorm_wordpool.txt	LTP122	ltpFR	18	8	0	STETHOSCOPE	1379	n/a	0	n/a	n/a	n/a	n/a	n/a
1438.306	n/a	REC_WORD	719153	wordpools/wasnorm_wordpool.txt	LTP122	ltpFR	18	8	0	HORSE	719	n/a	1	n/a	n/a	n/a	n/a	n/a
1439.266	n/a	REC_WORD	719633	wordpools/wasnorm_wordpool.txt	LTP122	ltpFR	18	8	0	PAINT	1003	n/a	0	n/a	n/a	n/a	n/a	n/a
1442.858	n/a	REC_WORD	721429	wordpools/wasnorm_wordpool.txt	LTP122	ltpFR	18	8	0	RECEIPT	1173	n/a	0	n/a	n/a	n/a	n/a	n/a
1443.716	n/a	REC_WORD	721858	wordpools/wasnorm_wordpool.txt	LTP122	ltpFR	18	8	0	PENNY	1045	n/a	0	n/a	n/a	n/a	n/a	n/a
1448.21	n/a	REC_WORD	724105	wordpools/wasnorm_wordpool.txt	LTP122	ltpFR	18	8	0	MONSTER	912	n/a	1	n/a	n/a	n/a	n/a	n/a
1460.068	n/a	REC_WORD	730034	wordpools/wasnorm_wordpool.txt	LTP122	ltpFR	18	8	0	WHIP	1604	n/a	1	n/a	n/a	n/a	n/a	n/a
1525.134	n/a	WORD	762567	wordpools/wasnorm_wordpool.txt	LTP122	ltpFR	18	9	0	HALL	677	n/a	1	1	0.412841796875	0.57763671875	lower	../fonts/zerothre.ttf
1529.024	n/a	WORD	764512	wordpools/wasnorm_wordpool.txt	LTP122	ltpFR	18	9	0	GATE	625	n/a	1	1	0.412841796875	0.57763671875	lower	../fonts/zerothre.ttf
1533.014	n/a	WORD	766507	wordpools/wasnorm_wordpool.txt	LTP122	ltpFR	18	9	0	DORM	488	n/a	1	1	0.412841796875	0.57763671875	lower	../fonts/zerothre.ttf
1537.138	n/a	WORD	768569	wordpools/wasnorm_wordpool.txt	LTP122	ltpFR	18	9	0	SERVANT	1271	n/a	1	1	0.412841796875	0.57763671875	lower	../fonts/zerothre.ttf
1541.33	n/a	WORD	770665	wordpools/wasnorm_wordpool.txt	LTP122	ltpFR	18	9	0	STABLE	1363	n/a	1	1	0.412841796875	0.57763671875	lower	../fonts/zerothre.ttf
1545.462	n/a	WORD	772731	wordpools/wasnorm_wordpool.txt	LTP122	ltpFR	18	9	0	TICKET	1464	n/a	0	1	0.412841796875	0.57763671875	lower	../fonts/zerothre.ttf
1549.452	n/a	WORD	774726	wordpools/wasnorm_wordpool.txt	LTP122	ltpFR	18	9	0	BAY	102	n/a	1	1	0.412841796875	0.57763671875	lower	../fonts/zerothre.ttf
1553.626	n/a	WORD	776813	wordpools/wasnorm_wordpool.txt	LTP122	ltpFR	18	9	0	CANOE	233	n/a	1	1	0.412841796875	0.57763671875	lower	../fonts/zerothre.ttf
1557.548	n/a	WORD	778774	wordpools/wasnorm_wordpool.txt	LTP122	ltpFR	18	9	0	DESIGNER	451	n/a	1	1	0.412841796875	0.57763671875	lower	../fonts/zerothre.ttf
1561.682	n/a	WORD	780841	wordpools/wasnorm_wordpool.txt	LTP122	ltpFR	18	9	0	PECAN	1036	n/a	0	1	0.412841796875	0.57763671875	lower	../fonts/zerothre.ttf
1565.588	n/a	WORD	782794	wordpools/wasnorm_wordpool.txt	LTP122	ltpFR	18	9	0	ACROBAT	4	n/a	1	1	0.412841796875	0.57763671875	lower	../fonts/zerothre.ttf
1569.73	n/a	WORD	784865	wordpools/wasnorm_wordpool.txt	LTP122	ltpFR	18	9	0	RESORT	1186	n/a	1	1	0.412841796875	0.57763671875	lower	../fonts/zerothre.ttf
1573.936	n/a	WORD	786968	wordpools/wasnorm_wordpool.txt	LTP122	ltpFR	18	9	0	GLOVE	642	n/a	0	1	0.412841796875	0.57763671875	lower	../fonts/zerothre.ttf
1577.902	n/a	WORD	788951	wordpools/wasnorm_wordpool.txt	LTP122	ltpFR	18	9	0	MITTEN	902	n/a	0	1	0.412841796875	0.57763671875	lower	../fonts/zerothre.ttf
1582.058	n/a	WORD	791029	wordpools/wasnorm_wordpool.txt	LTP122	ltpFR	18	9	0	DICE	461	n/a	0	1	0.412841796875	0.57763671875	lower	../fonts/zerothre.ttf
1585.908	n/a	WORD	792954	wordpools/wasnorm_wordpool.txt	LTP122	ltpFR	18	9	0	UNICORN	1538	n/a	1	1	0.412841796875	0.57763671875	lower	../fonts/zerothre.ttf
1591.766	n/a	REC_START	795883	n/a	LTP122	ltpFR	18	9	n/a	n/a	n/a	n/a	n/a	n/a	n/a	n/a	n/a	n/a
1593.316	n/a	REC_WORD	796658	wordpools/wasnorm_wordpool.txt	LTP122	ltpFR	18	9	0	HALL	677	n/a	1	n/a	n/a	n/a	n/a	n/a
1594.614	n/a	REC_WORD	797307	wordpools/wasnorm_wordpool.txt	LTP122	ltpFR	18	9	0	DORM	488	n/a	1	n/a	n/a	n/a	n/a	n/a
1595.822	n/a	REC_WORD	797911	wordpools/wasnorm_wordpool.txt	LTP122	ltpFR	18	9	0	GATE	625	n/a	1	n/a	n/a	n/a	n/a	n/a
1596.724	n/a	REC_WORD	798362	wordpools/wasnorm_wordpool.txt	LTP122	ltpFR	18	9	0	STABLE	1363	n/a	1	n/a	n/a	n/a	n/a	n/a
1597.782	n/a	REC_WORD	798891	wordpools/wasnorm_wordpool.txt	LTP122	ltpFR	18	9	0	UNICORN	1538	n/a	1	n/a	n/a	n/a	n/a	n/a
1598.786	n/a	REC_WORD	799393	wordpools/wasnorm_wordpool.txt	LTP122	ltpFR	18	9	0	ACROBAT	4	n/a	1	n/a	n/a	n/a	n/a	n/a
1599.758	n/a	REC_WORD	799879	wordpools/wasnorm_wordpool.txt	LTP122	ltpFR	18	9	0	BAY	102	n/a	1	n/a	n/a	n/a	n/a	n/a
1601.564	n/a	REC_WORD	800782	wordpools/wasnorm_wordpool.txt	LTP122	ltpFR	18	9	0	CANOE	233	n/a	1	n/a	n/a	n/a	n/a	n/a
1606.712	n/a	REC_WORD	803356	wordpools/wasnorm_wordpool.txt	LTP122	ltpFR	18	9	0	TICKET	1464	n/a	0	n/a	n/a	n/a	n/a	n/a
1608.368	n/a	REC_WORD	804184	wordpools/wasnorm_wordpool.txt	LTP122	ltpFR	18	9	0	DESIGNER	451	n/a	1	n/a	n/a	n/a	n/a	n/a
1609.746	n/a	REC_WORD	804873	wordpools/wasnorm_wordpool.txt	LTP122	ltpFR	18	9	0	GLOVE	642	n/a	0	n/a	n/a	n/a	n/a	n/a
1610.232	n/a	REC_WORD	805116	wordpools/wasnorm_wordpool.txt	LTP122	ltpFR	18	9	0	MITTEN	902	n/a	0	n/a	n/a	n/a	n/a	n/a
1611.212	n/a	REC_WORD	805606	wordpools/wasnorm_wordpool.txt	LTP122	ltpFR	18	9	0	PECAN	1036	n/a	0	n/a	n/a	n/a	n/a	n/a
1613.352	n/a	REC_WORD	806676	wordpools/wasnorm_wordpool.txt	LTP122	ltpFR	18	9	0	RESORT	1186	n/a	1	n/a	n/a	n/a	n/a	n/a
1619.264	n/a	REC_WORD	809632	wordpools/wasnorm_wordpool.txt	LTP122	ltpFR	18	9	0	STABLE	1363	n/a	1	n/a	n/a	n/a	n/a	n/a
1624.134	n/a	REC_WORD	812067	wordpools/wasnorm_wordpool.txt	LTP122	ltpFR	18	9	0	SERVANT	1271	n/a	1	n/a	n/a	n/a	n/a	n/a
1670.914	n/a	WORD	835457	wordpools/wasnorm_wordpool.txt	LTP122	ltpFR	18	10	-1	TOOTHBRUSH	1482	n/a	-1	1	1.0	1.0	upper	../fonts/Verdana.ttf
1674.89	n/a	WORD	837445	wordpools/wasnorm_wordpool.txt	LTP122	ltpFR	18	10	-1	PLUM	1090	n/a	-1	1	1.0	1.0	upper	../fonts/Verdana.ttf
1678.772	n/a	WORD	839386	wordpools/wasnorm_wordpool.txt	LTP122	ltpFR	18	10	-1	CIGARETTE	309	n/a	-1	1	1.0	1.0	upper	../fonts/Verdana.ttf
1682.928	n/a	WORD	841464	wordpools/wasnorm_wordpool.txt	LTP122	ltpFR	18	10	-1	LIGHTER	819	n/a	-1	1	1.0	1.0	upper	../fonts/Verdana.ttf
1687.126	n/a	WORD	843563	wordpools/wasnorm_wordpool.txt	LTP122	ltpFR	18	10	-1	PARROT	1015	n/a	-1	1	1.0	1.0	upper	../fonts/Verdana.ttf
1690.968	n/a	WORD	845484	wordpools/wasnorm_wordpool.txt	LTP122	ltpFR	18	10	-1	TONGUE	1479	n/a	-1	1	1.0	1.0	upper	../fonts/Verdana.ttf
1694.992	n/a	WORD	847496	wordpools/wasnorm_wordpool.txt	LTP122	ltpFR	18	10	-1	PRUNE	1134	n/a	-1	1	1.0	1.0	upper	../fonts/Verdana.ttf
1698.948	n/a	WORD	849474	wordpools/wasnorm_wordpool.txt	LTP122	ltpFR	18	10	-1	PASTRY	1022	n/a	-1	1	1.0	1.0	upper	../fonts/Verdana.ttf
1702.764	n/a	WORD	851382	wordpools/wasnorm_wordpool.txt	LTP122	ltpFR	18	10	-1	COLESLAW	344	n/a	-1	1	1.0	1.0	upper	../fonts/Verdana.ttf
1706.83	n/a	WORD	853415	wordpools/wasnorm_wordpool.txt	LTP122	ltpFR	18	10	-1	PARSLEY	1016	n/a	-1	1	1.0	1.0	upper	../fonts/Verdana.ttf
1710.67	n/a	WORD	855335	wordpools/wasnorm_wordpool.txt	LTP122	ltpFR	18	10	-1	AMBULANCE	19	n/a	-1	1	1.0	1.0	upper	../fonts/Verdana.ttf
1714.878	n/a	WORD	857439	wordpools/wasnorm_wordpool.txt	LTP122	ltpFR	18	10	-1	JELLO	754	n/a	-1	1	1.0	1.0	upper	../fonts/Verdana.ttf
1718.786	n/a	WORD	859393	wordpools/wasnorm_wordpool.txt	LTP122	ltpFR	18	10	-1	PENGUIN	1044	n/a	-1	1	1.0	1.0	upper	../fonts/Verdana.ttf
1722.758	n/a	WORD	861379	wordpools/wasnorm_wordpool.txt	LTP122	ltpFR	18	10	-1	ROACH	1195	n/a	-1	1	1.0	1.0	upper	../fonts/Verdana.ttf
1726.816	n/a	WORD	863408	wordpools/wasnorm_wordpool.txt	LTP122	ltpFR	18	10	-1	OBOE	969	n/a	-1	1	1.0	1.0	upper	../fonts/Verdana.ttf
1730.872	n/a	WORD	865436	wordpools/wasnorm_wordpool.txt	LTP122	ltpFR	18	10	-1	TAG	1429	n/a	-1	1	1.0	1.0	upper	../fonts/Verdana.ttf
1736.696	n/a	REC_START	868348	n/a	LTP122	ltpFR	18	10	n/a	n/a	n/a	n/a	n/a	n/a	n/a	n/a	n/a	n/a
1738.124	n/a	REC_WORD	869062	wordpools/wasnorm_wordpool.txt	LTP122	ltpFR	18	10	-1	TAG	1429	n/a	-1	n/a	n/a	n/a	n/a	n/a
1739.82	n/a	REC_WORD	869910	wordpools/wasnorm_wordpool.txt	LTP122	ltpFR	18	10	-1	TOOTHBRUSH	1482	n/a	-1	n/a	n/a	n/a	n/a	n/a
1741.564	n/a	REC_WORD	870782	wordpools/wasnorm_wordpool.txt	LTP122	ltpFR	18	10	-1	PLUM	1090	n/a	-1	n/a	n/a	n/a	n/a	n/a
1742.378	n/a	REC_WORD	871189	wordpools/wasnorm_wordpool.txt	LTP122	ltpFR	18	10	-1	PRUNE	1134	n/a	-1	n/a	n/a	n/a	n/a	n/a
1744.454	n/a	REC_WORD	872227	wordpools/wasnorm_wordpool.txt	LTP122	ltpFR	18	10	-1	PASTRY	1022	n/a	-1	n/a	n/a	n/a	n/a	n/a
1745.89	n/a	REC_WORD	872945	wordpools/wasnorm_wordpool.txt	LTP122	ltpFR	18	10	-1	COLESLAW	344	n/a	-1	n/a	n/a	n/a	n/a	n/a
1746.664	n/a	REC_WORD	873332	wordpools/wasnorm_wordpool.txt	LTP122	ltpFR	18	10	-1	PARSLEY	1016	n/a	-1	n/a	n/a	n/a	n/a	n/a
1747.346	n/a	REC_WORD	873673	wordpools/wasnorm_wordpool.txt	LTP122	ltpFR	18	10	-1	CIGARETTE	309	n/a	-1	n/a	n/a	n/a	n/a	n/a
1748.116	n/a	REC_WORD	874058	wordpools/wasnorm_wordpool.txt	LTP122	ltpFR	18	10	-1	LIGHTER	819	n/a	-1	n/a	n/a	n/a	n/a	n/a
1749.582	n/a	REC_WORD	874791	wordpools/wasnorm_wordpool.txt	LTP122	ltpFR	18	10	-1	PARROT	1015	n/a	-1	n/a	n/a	n/a	n/a	n/a
1750.41	n/a	REC_WORD	875205	wordpools/wasnorm_wordpool.txt	LTP122	ltpFR	18	10	-1	TONGUE	1479	n/a	-1	n/a	n/a	n/a	n/a	n/a
1754.018	n/a	REC_WORD	877009	wordpools/wasnorm_wordpool.txt	LTP122	ltpFR	18	10	-1	PENGUIN	1044	n/a	-1	n/a	n/a	n/a	n/a	n/a
1755.11	n/a	REC_WORD	877555	wordpools/wasnorm_wordpool.txt	LTP122	ltpFR	18	10	-1	ROACH	1195	n/a	-1	n/a	n/a	n/a	n/a	n/a
1756.084	n/a	REC_WORD	878042	wordpools/wasnorm_wordpool.txt	LTP122	ltpFR	18	10	-1	OBOE	969	n/a	-1	n/a	n/a	n/a	n/a	n/a
1757.066	n/a	REC_WORD	878533	wordpools/wasnorm_wordpool.txt	LTP122	ltpFR	18	10	-1	AMBULANCE	19	n/a	-1	n/a	n/a	n/a	n/a	n/a
1827.286	n/a	WORD	913643	wordpools/wasnorm_wordpool.txt	LTP122	ltpFR	18	11	1	SPY	1360	n/a	1	0	0.5869140625	0.422607421875	upper	../fonts/amplitud.ttf
1831.2	n/a	WORD	915600	wordpools/wasnorm_wordpool.txt	LTP122	ltpFR	18	11	1	PERSONNEL	1053	n/a	1	0	0.5869140625	0.422607421875	upper	../fonts/amplitud.ttf
1835.09	n/a	WORD	917545	wordpools/wasnorm_wordpool.txt	LTP122	ltpFR	18	11	1	BANNER	85	n/a	0	0	0.5869140625	0.422607421875	upper	../fonts/amplitud.ttf
1839.106	n/a	WORD	919553	wordpools/wasnorm_wordpool.txt	LTP122	ltpFR	18	11	1	VIOLA	1570	n/a	0	0	0.5869140625	0.422607421875	upper	../fonts/amplitud.ttf
1843.212	n/a	WORD	921606	wordpools/wasnorm_wordpool.txt	LTP122	ltpFR	18	11	1	GROCERY	664	n/a	1	0	0.5869140625	0.422607421875	upper	../fonts/amplitud.ttf
1847.188	n/a	WORD	923594	wordpools/wasnorm_wordpool.txt	LTP122	ltpFR	18	11	1	BADGE	68	n/a	0	0	0.5869140625	0.422607421875	upper	../fonts/amplitud.ttf
1851.244	n/a	WORD	925622	wordpools/wasnorm_wordpool.txt	LTP122	ltpFR	18	11	1	HOSTAGE	722	n/a	0	0	0.5869140625	0.422607421875	upper	../fonts/amplitud.ttf
1855.46	n/a	WORD	927730	wordpools/wasnorm_wordpool.txt	LTP122	ltpFR	18	11	1	PRISONER	1128	n/a	1	0	0.5869140625	0.422607421875	upper	../fonts/amplitud.ttf
1859.45	n/a	WORD	929725	wordpools/wasnorm_wordpool.txt	LTP122	ltpFR	18	11	1	BAG	69	n/a	0	0	0.5869140625	0.422607421875	upper	../fonts/amplitud.ttf
1863.448	n/a	WORD	931724	wordpools/wasnorm_wordpool.txt	LTP122	ltpFR	18	11	1	KANGAROO	768	n/a	1	0	0.5869140625	0.422607421875	upper	../fonts/amplitud.ttf
1867.564	n/a	WORD	933782	wordpools/wasnorm_wordpool.txt	LTP122	ltpFR	18	11	1	BOWL	158	n/a	0	0	0.5869140625	0.422607421875	upper	../fonts/amplitud.ttf
1871.772	n/a	WORD	935886	wordpools/wasnorm_wordpool.txt	LTP122	ltpFR	18	11	1	REEF	1177	n/a	0	0	0.5869140625	0.422607421875	upper	../fonts/amplitud.ttf
1875.928	n/a	WORD	937964	wordpools/wasnorm_wordpool.txt	LTP122	ltpFR	18	11	1	VINEGAR	1569	n/a	0	0	0.5869140625	0.422607421875	upper	../fonts/amplitud.ttf
1879.802	n/a	WORD	939901	wordpools/wasnorm_wordpool.txt	LTP122	ltpFR	18	11	1	SAUCER	1237	n/a	0	0	0.5869140625	0.422607421875	upper	../fonts/amplitud.ttf
1883.794	n/a	WORD	941897	wordpools/wasnorm_wordpool.txt	LTP122	ltpFR	18	11	1	PROFESSOR	1131	n/a	1	0	0.5869140625	0.422607421875	upper	../fonts/amplitud.ttf
1887.866	n/a	WORD	943933	wordpools/wasnorm_wordpool.txt	LTP122	ltpFR	18	11	1	FACE	547	n/a	1	0	0.5869140625	0.422607421875	upper	../fonts/amplitud.ttf
1893.874	n/a	REC_START	946937	n/a	LTP122	ltpFR	18	11	n/a	n/a	n/a	n/a	n/a	n/a	n/a	n/a	n/a	n/a
1895.858	n/a	REC_WORD	947929	wordpools/wasnorm_wordpool.txt	LTP122	ltpFR	18	11	1	SPY	1360	n/a	1	n/a	n/a	n/a	n/a	n/a
1896.782	n/a	REC_WORD	948391	wordpools/wasnorm_wordpool.txt	LTP122	ltpFR	18	11	1	PERSONNEL	1053	n/a	1	n/a	n/a	n/a	n/a	n/a
1901.132	n/a	REC_WORD	950566	wordpools/wasnorm_wordpool.txt	LTP122	ltpFR	18	11	1	GROCERY	664	n/a	1	n/a	n/a	n/a	n/a	n/a
1902.24	n/a	REC_WORD	951120	wordpools/wasnorm_wordpool.txt	LTP122	ltpFR	18	11	1	VIOLA	1570	n/a	0	n/a	n/a	n/a	n/a	n/a
1904.998	n/a	REC_WORD	952499	wordpools/wasnorm_wordpool.txt	LTP122	ltpFR	18	11	1	HOSTAGE	722	n/a	0	n/a	n/a	n/a	n/a	n/a
1906.046	n/a	REC_WORD	953023	wordpools/wasnorm_wordpool.txt	LTP122	ltpFR	18	11	1	PRISONER	1128	n/a	1	n/a	n/a	n/a	n/a	n/a
1908.416	n/a	REC_WORD	954208	wordpools/wasnorm_wordpool.txt	LTP122	ltpFR	18	11	1	BAG	69	n/a	0	n/a	n/a	n/a	n/a	n/a
1911.03	n/a	REC_WORD	955515	wordpools/wasnorm_wordpool.txt	LTP122	ltpFR	18	11	1	KANGAROO	768	n/a	1	n/a	n/a	n/a	n/a	n/a
1912.258	n/a	REC_WORD	956129	wordpools/wasnorm_wordpool.txt	LTP122	ltpFR	18	11	1	BOWL	158	n/a	0	n/a	n/a	n/a	n/a	n/a
1912.622	n/a	REC_WORD	956311	wordpools/wasnorm_wordpool.txt	LTP122	ltpFR	18	11	1	SAUCER	1237	n/a	0	n/a	n/a	n/a	n/a	n/a
1913.47	n/a	REC_WORD	956735	wordpools/wasnorm_wordpool.txt	LTP122	ltpFR	18	11	1	VINEGAR	1569	n/a	0	n/a	n/a	n/a	n/a	n/a
1915.71	n/a	REC_WORD	957855	wordpools/wasnorm_wordpool.txt	LTP122	ltpFR	18	11	1	PROFESSOR	1131	n/a	1	n/a	n/a	n/a	n/a	n/a
1916.522	n/a	REC_WORD	958261	wordpools/wasnorm_wordpool.txt	LTP122	ltpFR	18	11	1	FACE	547	n/a	1	n/a	n/a	n/a	n/a	n/a
1937.306	n/a	REC_WORD	968653	wordpools/wasnorm_wordpool.txt	LTP122	ltpFR	18	11	1	BANNER	85	n/a	0	n/a	n/a	n/a	n/a	n/a
1972.59	n/a	WORD	986295	wordpools/wasnorm_wordpool.txt	LTP122	ltpFR	18	12	0	SHORTCAKE	1292	n/a	0	1	0.412841796875	0.57763671875	lower	../fonts/zerothre.ttf
1976.498	n/a	WORD	988249	wordpools/wasnorm_wordpool.txt	LTP122	ltpFR	18	12	0	MICROSCOPE	891	n/a	0	1	0.412841796875	0.57763671875	lower	../fonts/zerothre.ttf
1980.664	n/a	WORD	990332	wordpools/wasnorm_wordpool.txt	LTP122	ltpFR	18	12	0	BRANDY	169	n/a	0	1	0.412841796875	0.57763671875	lower	../fonts/zerothre.ttf
1984.538	n/a	WORD	992269	wordpools/wasnorm_wordpool.txt	LTP122	ltpFR	18	12	0	CASHIER	254	n/a	1	1	0.412841796875	0.57763671875	lower	../fonts/zerothre.ttf
1988.702	n/a	WORD	994351	wordpools/wasnorm_wordpool.txt	LTP122	ltpFR	18	12	0	SKUNK	1321	n/a	1	1	0.412841796875	0.57763671875	lower	../fonts/zerothre.ttf
1992.668	n/a	WORD	996334	wordpools/wasnorm_wordpool.txt	LTP122	ltpFR	18	12	1	GARLIC	624	n/a	0	0	0.5869140625	0.422607421875	upper	../fonts/amplitud.ttf
1996.642	n/a	WORD	998321	wordpools/wasnorm_wordpool.txt	LTP122	ltpFR	18	12	1	MATTRESS	879	n/a	0	0	0.5869140625	0.422607421875	upper	../fonts/amplitud.ttf
2000.5	n/a	WORD	1000250	wordpools/wasnorm_wordpool.txt	LTP122	ltpFR	18	12	1	BEDROOM	111	n/a	0	0	0.5869140625	0.422607421875	upper	../fonts/amplitud.ttf
2004.44	n/a	WORD	1002220	wordpools/wasnorm_wordpool.txt	LTP122	ltpFR	18	12	1	TUSK	1523	n/a	0	0	0.5869140625	0.422607421875	upper	../fonts/amplitud.ttf
2008.606	n/a	WORD	1004303	wordpools/wasnorm_wordpool.txt	LTP122	ltpFR	18	12	0	TREASURE	1500	n/a	1	1	0.412841796875	0.57763671875	lower	../fonts/zerothre.ttf
2012.596	n/a	WORD	1006298	wordpools/wasnorm_wordpool.txt	LTP122	ltpFR	18	12	0	STEWARDESS	1381	n/a	1	1	0.412841796875	0.57763671875	lower	../fonts/zerothre.ttf
2016.56	n/a	WORD	1008280	wordpools/wasnorm_wordpool.txt	LTP122	ltpFR	18	12	0	CANDIDATE	228	n/a	1	1	0.412841796875	0.57763671875	lower	../fonts/zerothre.ttf
2020.51	n/a	WORD	1010255	wordpools/wasnorm_wordpool.txt	LTP122	ltpFR	18	12	1	COOKBOOK	373	n/a	0	0	0.5869140625	0.422607421875	upper	../fonts/amplitud.ttf
2024.484	n/a	WORD	1012242	wordpools/wasnorm_wordpool.txt	LTP122	ltpFR	18	12	1	SALAD	1224	n/a	0	0	0.5869140625	0.422607421875	upper	../fonts/amplitud.ttf
2028.458	n/a	WORD	1014229	wordpools/wasnorm_wordpool.txt	LTP122	ltpFR	18	12	1	WALLET	1583	n/a	0	0	0.5869140625	0.422607421875	upper	../fonts/amplitud.ttf
2032.64	n/a	WORD	1016320	wordpools/wasnorm_wordpool.txt	LTP122	ltpFR	18	12	1	BAKER	71	n/a	1	0	0.5869140625	0.422607421875	upper	../fonts/amplitud.ttf
2038.522	n/a	REC_START	1019261	n/a	LTP122	ltpFR	18	12	n/a	n/a	n/a	n/a	n/a	n/a	n/a	n/a	n/a	n/a
2041.486	n/a	REC_WORD	1020743	wordpools/wasnorm_wordpool.txt	LTP122	ltpFR	18	12	0	SHORTCAKE	1292	n/a	0	n/a	n/a	n/a	n/a	n/a
2042.364	n/a	REC_WORD	1021182	wordpools/wasnorm_wordpool.txt	LTP122	ltpFR	18	12	0	MICROSCOPE	891	n/a	0	n/a	n/a	n/a	n/a	n/a
2043.616	n/a	REC_WORD	1021808	wordpools/wasnorm_wordpool.txt	LTP122	ltpFR	18	12	0	BRANDY	169	n/a	0	n/a	n/a	n/a	n/a	n/a
2044.998	n/a	REC_WORD	1022499	wordpools/wasnorm_wordpool.txt	LTP122	ltpFR	18	12	0	CASHIER	254	n/a	1	n/a	n/a	n/a	n/a	n/a
2046.434	n/a	REC_WORD	1023217	wordpools/wasnorm_wordpool.txt	LTP122	ltpFR	18	12	0	SKUNK	1321	n/a	1	n/a	n/a	n/a	n/a	n/a
2050.426	n/a	REC_WORD	1025213	wordpools/wasnorm_wordpool.txt	LTP122	ltpFR	18	12	1	GARLIC	624	n/a	0	n/a	n/a	n/a	n/a	n/a
2050.94	n/a	REC_WORD	1025470	wordpools/wasnorm_wordpool.txt	LTP122	ltpFR	18	12	1	MATTRESS	879	n/a	0	n/a	n/a	n/a	n/a	n/a
2051.738	n/a	REC_WORD	1025869	wordpools/wasnorm_wordpool.txt	LTP122	ltpFR	18	12	1	BEDROOM	111	n/a	0	n/a	n/a	n/a	n/a	n/a
2052.266	n/a	REC_WORD	1026133	wordpools/wasnorm_wordpool.txt	LTP122	ltpFR	18	12	0	STEWARDESS	1381	n/a	1	n/a	n/a	n/a	n/a	n/a
2053.278	n/a	REC_WORD	1026639	wordpools/wasnorm_wordpool.txt	LTP122	ltpFR	18	12	0	CANDIDATE	228	n/a	1	n/a	n/a	n/a	n/a	n/a
2055.13	n/a	REC_WORD	1027565	wordpools/wasnorm_wordpool.txt	LTP122	ltpFR	18	12	1	WALLET	1583	n/a	0	n/a	n/a	n/a	n/a	n/a
2056.508	n/a	REC_WORD	1028254	wordpools/wasnorm_wordpool.txt	LTP122	ltpFR	18	12	1	COOKBOOK	373	n/a	0	n/a	n/a	n/a	n/a	n/a
2057.25	n/a	REC_WORD	1028625	wordpools/wasnorm_wordpool.txt	LTP122	ltpFR	18	12	1	SALAD	1224	n/a	0	n/a	n/a	n/a	n/a	n/a
2083.612	n/a	REC_WORD	1041806	wordpools/wasnorm_wordpool.txt	LTP122	ltpFR	18	12	1	BAKER	71	n/a	1	n/a	n/a	n/a	n/a	n/a
2114.14	n/a	REST_REWET	1057070	n/a	LTP122	ltpFR	18	12	n/a	n/a	n/a	n/a	n/a	n/a	n/a	n/a	n/a	n/a
2501.182	n/a	WORD	1250591	wordpools/wasnorm_wordpool.txt	LTP122	ltpFR	18	13	-1	MOSS	918	n/a	-1	1	1.0	1.0	upper	../fonts/Verdana.ttf
2505.28	n/a	WORD	1252640	wordpools/wasnorm_wordpool.txt	LTP122	ltpFR	18	13	-1	DRYER	503	n/a	-1	1	1.0	1.0	upper	../fonts/Verdana.ttf
2509.346	n/a	WORD	1254673	wordpools/wasnorm_wordpool.txt	LTP122	ltpFR	18	13	-1	DANDRUFF	439	n/a	-1	1	1.0	1.0	upper	../fonts/Verdana.ttf
2513.194	n/a	WORD	1256597	wordpools/wasnorm_wordpool.txt	LTP122	ltpFR	18	13	-1	BUILDING	191	n/a	-1	1	1.0	1.0	upper	../fonts/Verdana.ttf
2517.328	n/a	WORD	1258664	wordpools/wasnorm_wordpool.txt	LTP122	ltpFR	18	13	-1	YARD	1630	n/a	-1	1	1.0	1.0	upper	../fonts/Verdana.ttf
2521.476	n/a	WORD	1260738	wordpools/wasnorm_wordpool.txt	LTP122	ltpFR	18	13	-1	ORNAMENT	985	n/a	-1	1	1.0	1.0	upper	../fonts/Verdana.ttf
2525.5	n/a	WORD	1262750	wordpools/wasnorm_wordpool.txt	LTP122	ltpFR	18	13	-1	SHIP	1286	n/a	-1	1	1.0	1.0	upper	../fonts/Verdana.ttf
2529.456	n/a	WORD	1264728	wordpools/wasnorm_wordpool.txt	LTP122	ltpFR	18	13	-1	OWNER	993	n/a	-1	1	1.0	1.0	upper	../fonts/Verdana.ttf
2533.59	n/a	WORD	1266795	wordpools/wasnorm_wordpool.txt	LTP122	ltpFR	18	13	-1	FOE	587	n/a	-1	1	1.0	1.0	upper	../fonts/Verdana.ttf
2537.654	n/a	WORD	1268827	wordpools/wasnorm_wordpool.txt	LTP122	ltpFR	18	13	-1	SUBURB	1399	n/a	-1	1	1.0	1.0	upper	../fonts/Verdana.ttf
2541.82	n/a	WORD	1270910	wordpools/wasnorm_wordpool.txt	LTP122	ltpFR	18	13	-1	COLONEL	348	n/a	-1	1	1.0	1.0	upper	../fonts/Verdana.ttf
2545.812	n/a	WORD	1272906	wordpools/wasnorm_wordpool.txt	LTP122	ltpFR	18	13	-1	SERGEANT	1269	n/a	-1	1	1.0	1.0	upper	../fonts/Verdana.ttf
2549.758	n/a	WORD	1274879	wordpools/wasnorm_wordpool.txt	LTP122	ltpFR	18	13	-1	ALBUM	14	n/a	-1	1	1.0	1.0	upper	../fonts/Verdana.ttf
2553.724	n/a	WORD	1276862	wordpools/wasnorm_wordpool.txt	LTP122	ltpFR	18	13	-1	LAWN	805	n/a	-1	1	1.0	1.0	upper	../fonts/Verdana.ttf
2557.808	n/a	WORD	1278904	wordpools/wasnorm_wordpool.txt	LTP122	ltpFR	18	13	-1	SHRINE	1298	n/a	-1	1	1.0	1.0	upper	../fonts/Verdana.ttf
2561.638	n/a	WORD	1280819	wordpools/wasnorm_wordpool.txt	LTP122	ltpFR	18	13	-1	GODDESS	646	n/a	-1	1	1.0	1.0	upper	../fonts/Verdana.ttf
2567.312	n/a	REC_START	1283656	n/a	LTP122	ltpFR	18	13	n/a	n/a	n/a	n/a	n/a	n/a	n/a	n/a	n/a	n/a
2569.836	n/a	REC_WORD	1284918	wordpools/wasnorm_wordpool.txt	LTP122	ltpFR	18	13	-1	MOSS	918	n/a	-1	n/a	n/a	n/a	n/a	n/a
2570.724	n/a	REC_WORD	1285362	wordpools/wasnorm_wordpool.txt	LTP122	ltpFR	18	13	-1	DRYER	503	n/a	-1	n/a	n/a	n/a	n/a	n/a
2571.578	n/a	REC_WORD	1285789	wordpools/wasnorm_wordpool.txt	LTP122	ltpFR	18	13	-1	DANDRUFF	439	n/a	-1	n/a	n/a	n/a	n/a	n/a
2573.608	n/a	REC_WORD	1286804	wordpools/wasnorm_wordpool.txt	LTP122	ltpFR	18	13	-1	BUILDING	191	n/a	-1	n/a	n/a	n/a	n/a	n/a
2575.15	n/a	REC_WORD	1287575	wordpools/wasnorm_wordpool.txt	LTP122	ltpFR	18	13	-1	YARD	1630	n/a	-1	n/a	n/a	n/a	n/a	n/a
2575.908	n/a	REC_WORD	1287954	wordpools/wasnorm_wordpool.txt	LTP122	ltpFR	18	13	-1	LAWN	805	n/a	-1	n/a	n/a	n/a	n/a	n/a
2576.568	n/a	REC_WORD	1288284	wordpools/wasnorm_wordpool.txt	LTP122	ltpFR	18	13	-1	SUBURB	1399	n/a	-1	n/a	n/a	n/a	n/a	n/a
2578.248	n/a	REC_WORD	1289124	wordpools/wasnorm_wordpool.txt	LTP122	ltpFR	18	13	-1	OWNER	993	n/a	-1	n/a	n/a	n/a	n/a	n/a
2579.002	n/a	REC_WORD	1289501	wordpools/wasnorm_wordpool.txt	LTP122	ltpFR	18	13	-1	ORNAMENT	985	n/a	-1	n/a	n/a	n/a	n/a	n/a
2580.608	n/a	REC_WORD	1290304	wordpools/wasnorm_wordpool.txt	LTP122	ltpFR	18	13	-1	SHIP	1286	n/a	-1	n/a	n/a	n/a	n/a	n/a
2583.202	n/a	REC_WORD	1291601	wordpools/wasnorm_wordpool.txt	LTP122	ltpFR	18	13	-1	SHRINE	1298	n/a	-1	n/a	n/a	n/a	n/a	n/a
2584.2	n/a	REC_WORD	1292100	wordpools/wasnorm_wordpool.txt	LTP122	ltpFR	18	13	-1	GODDESS	646	n/a	-1	n/a	n/a	n/a	n/a	n/a
2586.854	n/a	REC_WORD	1293427	wordpools/wasnorm_wordpool.txt	LTP122	ltpFR	18	13	-1	SERGEANT	1269	n/a	-1	n/a	n/a	n/a	n/a	n/a
2588.076	n/a	REC_WORD	1294038	wordpools/wasnorm_wordpool.txt	LTP122	ltpFR	18	13	-1	COLONEL	348	n/a	-1	n/a	n/a	n/a	n/a	n/a
2588.93	n/a	REC_WORD	1294465	wordpools/wasnorm_wordpool.txt	LTP122	ltpFR	18	13	-1	ALBUM	14	n/a	-1	n/a	n/a	n/a	n/a	n/a
2603.886	n/a	REC_WORD	1301943	wordpools/wasnorm_wordpool.txt	LTP122	ltpFR	18	13	-1	FOE	587	n/a	-1	n/a	n/a	n/a	n/a	n/a
2605.352	n/a	REC_WORD_VV	1302676	wordpools/wasnorm_wordpool.txt	LTP122	ltpFR	18	13	n/a	<>	-1	n/a	n/a	n/a	n/a	n/a	n/a	n/a
2606.012	n/a	REC_WORD	1303006	wordpools/wasnorm_wordpool.txt	LTP122	ltpFR	18	13	-1	FOE	587	n/a	-1	n/a	n/a	n/a	n/a	n/a
2672.556	n/a	WORD	1336278	wordpools/wasnorm_wordpool.txt	LTP122	ltpFR	18	14	1	TENT	1449	n/a	0	0	0.5869140625	0.422607421875	upper	../fonts/amplitud.ttf
2676.612	n/a	WORD	1338306	wordpools/wasnorm_wordpool.txt	LTP122	ltpFR	18	14	1	CAPTAIN	239	n/a	1	0	0.5869140625	0.422607421875	upper	../fonts/amplitud.ttf
2680.436	n/a	WORD	1340218	wordpools/wasnorm_wordpool.txt	LTP122	ltpFR	18	14	1	HOUSE	725	n/a	1	0	0.5869140625	0.422607421875	upper	../fonts/amplitud.ttf
2684.534	n/a	WORD	1342267	wordpools/wasnorm_wordpool.txt	LTP122	ltpFR	18	14	1	BUCKET	184	n/a	0	0	0.5869140625	0.422607421875	upper	../fonts/amplitud.ttf
2688.61	n/a	WORD	1344305	wordpools/wasnorm_wordpool.txt	LTP122	ltpFR	18	14	1	BARK	87	n/a	0	0	0.5869140625	0.422607421875	upper	../fonts/amplitud.ttf
2692.65	n/a	WORD	1346325	wordpools/wasnorm_wordpool.txt	LTP122	ltpFR	18	14	1	BOXER	160	n/a	0	0	0.5869140625	0.422607421875	upper	../fonts/amplitud.ttf
2696.85	n/a	WORD	1348425	wordpools/wasnorm_wordpool.txt	LTP122	ltpFR	18	14	1	RAIL	1161	n/a	0	0	0.5869140625	0.422607421875	upper	../fonts/amplitud.ttf
2700.696	n/a	WORD	1350348	wordpools/wasnorm_wordpool.txt	LTP122	ltpFR	18	14	1	HIGHWAY	707	n/a	0	0	0.5869140625	0.422607421875	upper	../fonts/amplitud.ttf
2704.596	n/a	WORD	1352298	wordpools/wasnorm_wordpool.txt	LTP122	ltpFR	18	14	1	ISLAND	745	n/a	0	0	0.5869140625	0.422607421875	upper	../fonts/amplitud.ttf
2708.694	n/a	WORD	1354347	wordpools/wasnorm_wordpool.txt	LTP122	ltpFR	18	14	1	BIBLE	124	n/a	0	0	0.5869140625	0.422607421875	upper	../fonts/amplitud.ttf
2712.602	n/a	WORD	1356301	wordpools/wasnorm_wordpool.txt	LTP122	ltpFR	18	14	1	GYMNAST	675	n/a	1	0	0.5869140625	0.422607421875	upper	../fonts/amplitud.ttf
2716.708	n/a	WORD	1358354	wordpools/wasnorm_wordpool.txt	LTP122	ltpFR	18	14	1	COTTAGE	384	n/a	1	0	0.5869140625	0.422607421875	upper	../fonts/amplitud.ttf
2720.85	n/a	WORD	1360425	wordpools/wasnorm_wordpool.txt	LTP122	ltpFR	18	14	1	SHRIMP	1297	n/a	1	0	0.5869140625	0.422607421875	upper	../fonts/amplitud.ttf
2725.032	n/a	WORD	1362516	wordpools/wasnorm_wordpool.txt	LTP122	ltpFR	18	14	1	SCALLOP	1242	n/a	1	0	0.5869140625	0.422607421875	upper	../fonts/amplitud.ttf
2729.114	n/a	WORD	1364557	wordpools/wasnorm_wordpool.txt	LTP122	ltpFR	18	14	1	SHOULDER	1294	n/a	1	0	0.5869140625	0.422607421875	upper	../fonts/amplitud.ttf
2733.12	n/a	WORD	1366560	wordpools/wasnorm_wordpool.txt	LTP122	ltpFR	18	14	1	SCIENTIST	1249	n/a	1	0	0.5869140625	0.422607421875	upper	../fonts/amplitud.ttf
2739.01	n/a	REC_START	1369505	n/a	LTP122	ltpFR	18	14	n/a	n/a	n/a	n/a	n/a	n/a	n/a	n/a	n/a	n/a
2741.246	n/a	REC_WORD	1370623	wordpools/wasnorm_wordpool.txt	LTP122	ltpFR	18	14	1	HOUSE	725	n/a	1	n/a	n/a	n/a	n/a	n/a
2742.208	n/a	REC_WORD	1371104	wordpools/wasnorm_wordpool.txt	LTP122	ltpFR	18	14	1	TENT	1449	n/a	0	n/a	n/a	n/a	n/a	n/a
2742.912	n/a	REC_WORD	1371456	wordpools/wasnorm_wordpool.txt	LTP122	ltpFR	18	14	1	CAPTAIN	239	n/a	1	n/a	n/a	n/a	n/a	n/a
2743.92	n/a	REC_WORD	1371960	wordpools/wasnorm_wordpool.txt	LTP122	ltpFR	18	14	1	BUCKET	184	n/a	0	n/a	n/a	n/a	n/a	n/a
2744.854	n/a	REC_WORD	1372427	wordpools/wasnorm_wordpool.txt	LTP122	ltpFR	18	14	1	BOXER	160	n/a	0	n/a	n/a	n/a	n/a	n/a
2745.816	n/a	REC_WORD	1372908	wordpools/wasnorm_wordpool.txt	LTP122	ltpFR	18	14	1	BARK	87	n/a	0	n/a	n/a	n/a	n/a	n/a
2746.998	n/a	REC_WORD	1373499	wordpools/wasnorm_wordpool.txt	LTP122	ltpFR	18	14	1	RAIL	1161	n/a	0	n/a	n/a	n/a	n/a	n/a
2749.588	n/a	REC_WORD	1374794	wordpools/wasnorm_wordpool.txt	LTP122	ltpFR	18	14	1	GYMNAST	675	n/a	1	n/a	n/a	n/a	n/a	n/a
2751.388	n/a	REC_WORD	1375694	wordpools/wasnorm_wordpool.txt	LTP122	ltpFR	18	14	1	SHRIMP	1297	n/a	1	n/a	n/a	n/a	n/a	n/a
2752.11	n/a	REC_WORD	1376055	wordpools/wasnorm_wordpool.txt	LTP122	ltpFR	18	14	1	SCALLOP	1242	n/a	1	n/a	n/a	n/a	n/a	n/a
2753.204	n/a	REC_WORD	1376602	wordpools/wasnorm_wordpool.txt	LTP122	ltpFR	18	14	1	SHOULDER	1294	n/a	1	n/a	n/a	n/a	n/a	n/a
2754.226	n/a	REC_WORD	1377113	wordpools/wasnorm_wordpool.txt	LTP122	ltpFR	18	14	1	ISLAND	745	n/a	0	n/a	n/a	n/a	n/a	n/a
2754.9	n/a	REC_WORD	1377450	wordpools/wasnorm_wordpool.txt	LTP122	ltpFR	18	14	1	HIGHWAY	707	n/a	0	n/a	n/a	n/a	n/a	n/a
2755.952	n/a	REC_WORD	1377976	wordpools/wasnorm_wordpool.txt	LTP122	ltpFR	18	14	1	SCIENTIST	1249	n/a	1	n/a	n/a	n/a	n/a	n/a
2762.28	n/a	REC_WORD	1381140	wordpools/wasnorm_wordpool.txt	LTP122	ltpFR	18	14	1	COTTAGE	384	n/a	1	n/a	n/a	n/a	n/a	n/a
2818.444	n/a	WORD	1409222	wordpools/wasnorm_wordpool.txt	LTP122	ltpFR	18	15	0	EMPEROR	529	n/a	1	1	0.412841796875	0.57763671875	lower	../fonts/zerothre.ttf
2822.51	n/a	WORD	1411255	wordpools/wasnorm_wordpool.txt	LTP122	ltpFR	18	15	0	LENS	811	n/a	0	1	0.412841796875	0.57763671875	lower	../fonts/zerothre.ttf
2826.592	n/a	WORD	1413296	wordpools/wasnorm_wordpool.txt	LTP122	ltpFR	18	15	0	TOURIST	1488	n/a	1	1	0.412841796875	0.57763671875	lower	../fonts/zerothre.ttf
2830.542	n/a	WORD	1415271	wordpools/wasnorm_wordpool.txt	LTP122	ltpFR	18	15	0	DELINQUENT	445	n/a	1	1	0.412841796875	0.57763671875	lower	../fonts/zerothre.ttf
2834.69	n/a	WORD	1417345	wordpools/wasnorm_wordpool.txt	LTP122	ltpFR	18	15	0	PALM	1007	n/a	0	1	0.412841796875	0.57763671875	lower	../fonts/zerothre.ttf
2838.58	n/a	WORD	1419290	wordpools/wasnorm_wordpool.txt	LTP122	ltpFR	18	15	0	KING	777	n/a	1	1	0.412841796875	0.57763671875	lower	../fonts/zerothre.ttf
2842.446	n/a	WORD	1421223	wordpools/wasnorm_wordpool.txt	LTP122	ltpFR	18	15	0	TUBE	1516	n/a	0	1	0.412841796875	0.57763671875	lower	../fonts/zerothre.ttf
2846.62	n/a	WORD	1423310	wordpools/wasnorm_wordpool.txt	LTP122	ltpFR	18	15	0	SCOUT	1252	n/a	1	1	0.412841796875	0.57763671875	lower	../fonts/zerothre.ttf
2850.626	n/a	WORD	1425313	wordpools/wasnorm_wordpool.txt	LTP122	ltpFR	18	15	0	FIN	566	n/a	0	1	0.412841796875	0.57763671875	lower	../fonts/zerothre.ttf
2854.75	n/a	WORD	1427375	wordpools/wasnorm_wordpool.txt	LTP122	ltpFR	18	15	0	CHAPEL	280	n/a	1	1	0.412841796875	0.57763671875	lower	../fonts/zerothre.ttf
2858.81	n/a	WORD	1429405	wordpools/wasnorm_wordpool.txt	LTP122	ltpFR	18	15	0	SEA	1259	n/a	1	1	0.412841796875	0.57763671875	lower	../fonts/zerothre.ttf
2862.732	n/a	WORD	1431366	wordpools/wasnorm_wordpool.txt	LTP122	ltpFR	18	15	0	STUMP	1396	n/a	1	1	0.412841796875	0.57763671875	lower	../fonts/zerothre.ttf
2866.772	n/a	WORD	1433386	wordpools/wasnorm_wordpool.txt	LTP122	ltpFR	18	15	0	BLUEPRINT	142	n/a	0	1	0.412841796875	0.57763671875	lower	../fonts/zerothre.ttf
2870.604	n/a	WORD	1435302	wordpools/wasnorm_wordpool.txt	LTP122	ltpFR	18	15	0	LIST	830	n/a	0	1	0.412841796875	0.57763671875	lower	../fonts/zerothre.ttf
2874.786	n/a	WORD	1437393	wordpools/wasnorm_wordpool.txt	LTP122	ltpFR	18	15	0	BAIT	70	n/a	0	1	0.412841796875	0.57763671875	lower	../fonts/zerothre.ttf
2878.752	n/a	WORD	1439376	wordpools/wasnorm_wordpool.txt	LTP122	ltpFR	18	15	0	BARRACUDA	90	n/a	1	1	0.412841796875	0.57763671875	lower	../fonts/zerothre.ttf
2884.802	n/a	REC_START	1442401	n/a	LTP122	ltpFR	18	15	n/a	n/a	n/a	n/a	n/a	n/a	n/a	n/a	n/a	n/a
2886.158	n/a	REC_WORD	1443079	wordpools/wasnorm_wordpool.txt	LTP122	ltpFR	18	15	0	EMPEROR	529	n/a	1	n/a	n/a	n/a	n/a	n/a
2886.972	n/a	REC_WORD	1443486	wordpools/wasnorm_wordpool.txt	LTP122	ltpFR	18	15	0	LENS	811	n/a	0	n/a	n/a	n/a	n/a	n/a
2888.324	n/a	REC_WORD	1444162	wordpools/wasnorm_wordpool.txt	LTP122	ltpFR	18	15	0	PALM	1007	n/a	0	n/a	n/a	n/a	n/a	n/a
2892.324	n/a	REC_WORD	1446162	wordpools/wasnorm_wordpool.txt	LTP122	ltpFR	18	15	0	TOURIST	1488	n/a	1	n/a	n/a	n/a	n/a	n/a
2893.158	n/a	REC_WORD	1446579	wordpools/wasnorm_wordpool.txt	LTP122	ltpFR	18	15	0	DELINQUENT	445	n/a	1	n/a	n/a	n/a	n/a	n/a
2894.55	n/a	REC_WORD	1447275	wordpools/wasnorm_wordpool.txt	LTP122	ltpFR	18	15	0	SCOUT	1252	n/a	1	n/a	n/a	n/a	n/a	n/a
2896.1	n/a	REC_WORD	1448050	wordpools/wasnorm_wordpool.txt	LTP122	ltpFR	18	15	0	FIN	566	n/a	0	n/a	n/a	n/a	n/a	n/a
2899.05	n/a	REC_WORD	1449525	wordpools/wasnorm_wordpool.txt	LTP122	ltpFR	18	15	0	BLUEPRINT	142	n/a	0	n/a	n/a	n/a	n/a	n/a
2899.902	n/a	REC_WORD	1449951	wordpools/wasnorm_wordpool.txt	LTP122	ltpFR	18	15	0	LIST	830	n/a	0	n/a	n/a	n/a	n/a	n/a
2900.94	n/a	REC_WORD	1450470	wordpools/wasnorm_wordpool.txt	LTP122	ltpFR	18	15	n/a	OCEAN	970	n/a	n/a	n/a	n/a	n/a	n/a	n/a
2901.664	n/a	REC_WORD	1450832	wordpools/wasnorm_wordpool.txt	LTP122	ltpFR	18	15	0	CHAPEL	280	n/a	1	n/a	n/a	n/a	n/a	n/a
2902.472	n/a	REC_WORD	1451236	wordpools/wasnorm_wordpool.txt	LTP122	ltpFR	18	15	0	BAIT	70	n/a	0	n/a	n/a	n/a	n/a	n/a
2903.016	n/a	REC_WORD	1451508	wordpools/wasnorm_wordpool.txt	LTP122	ltpFR	18	15	0	BARRACUDA	90	n/a	1	n/a	n/a	n/a	n/a	n/a
2904.678	n/a	REC_WORD	1452339	wordpools/wasnorm_wordpool.txt	LTP122	ltpFR	18	15	0	KING	777	n/a	1	n/a	n/a	n/a	n/a	n/a
2915.398	n/a	REC_WORD	1457699	wordpools/wasnorm_wordpool.txt	LTP122	ltpFR	18	15	0	STUMP	1396	n/a	1	n/a	n/a	n/a	n/a	n/a
2922.876	n/a	REC_WORD	1461438	wordpools/wasnorm_wordpool.txt	LTP122	ltpFR	18	15	0	TUBE	1516	n/a	0	n/a	n/a	n/a	n/a	n/a
2989.402	n/a	WORD	1494701	wordpools/wasnorm_wordpool.txt	LTP122	ltpFR	18	16	1	CHIMPANZEE	302	n/a	1	0	0.5869140625	0.422607421875	upper	../fonts/amplitud.ttf
2993.534	n/a	WORD	1496767	wordpools/wasnorm_wordpool.txt	LTP122	ltpFR	18	16	1	ANIMAL	23	n/a	1	0	0.5869140625	0.422607421875	upper	../fonts/amplitud.ttf
2997.7	n/a	WORD	1498850	wordpools/wasnorm_wordpool.txt	LTP122	ltpFR	18	16	1	SATURN	1236	n/a	0	0	0.5869140625	0.422607421875	upper	../fonts/amplitud.ttf
3001.598	n/a	WORD	1500799	wordpools/wasnorm_wordpool.txt	LTP122	ltpFR	18	16	1	GRATE	657	n/a	0	0	0.5869140625	0.422607421875	upper	../fonts/amplitud.ttf
3005.754	n/a	WORD	1502877	wordpools/wasnorm_wordpool.txt	LTP122	ltpFR	18	16	0	LAWYER	806	n/a	1	1	0.412841796875	0.57763671875	lower	../fonts/zerothre.ttf
3009.954	n/a	WORD	1504977	wordpools/wasnorm_wordpool.txt	LTP122	ltpFR	18	16	0	RELISH	1183	n/a	0	1	0.412841796875	0.57763671875	lower	../fonts/zerothre.ttf
3014.002	n/a	WORD	1507001	wordpools/wasnorm_wordpool.txt	LTP122	ltpFR	18	16	0	SPINACH	1352	n/a	0	1	0.412841796875	0.57763671875	lower	../fonts/zerothre.ttf
3018.16	n/a	WORD	1509080	wordpools/wasnorm_wordpool.txt	LTP122	ltpFR	18	16	0	ZUCCHINI	1638	n/a	0	1	0.412841796875	0.57763671875	lower	../fonts/zerothre.ttf
3022.324	n/a	WORD	1511162	wordpools/wasnorm_wordpool.txt	LTP122	ltpFR	18	16	1	DIME	466	n/a	0	0	0.5869140625	0.422607421875	upper	../fonts/amplitud.ttf
3026.44	n/a	WORD	1513220	wordpools/wasnorm_wordpool.txt	LTP122	ltpFR	18	16	1	JUPITER	765	n/a	0	0	0.5869140625	0.422607421875	upper	../fonts/amplitud.ttf
3030.548	n/a	WORD	1515274	wordpools/wasnorm_wordpool.txt	LTP122	ltpFR	18	16	1	CHEMIST	292	n/a	1	0	0.5869140625	0.422607421875	upper	../fonts/amplitud.ttf
3034.496	n/a	WORD	1517248	wordpools/wasnorm_wordpool.txt	LTP122	ltpFR	18	16	1	SANDWICH	1232	n/a	0	0	0.5869140625	0.422607421875	upper	../fonts/amplitud.ttf
3038.636	n/a	WORD	1519318	wordpools/wasnorm_wordpool.txt	LTP122	ltpFR	18	16	0	TRUCK	1512	n/a	1	1	0.412841796875	0.57763671875	lower	../fonts/zerothre.ttf
3042.478	n/a	WORD	1521239	wordpools/wasnorm_wordpool.txt	LTP122	ltpFR	18	16	0	PLANET	1082	n/a	1	1	0.412841796875	0.57763671875	lower	../fonts/zerothre.ttf
3046.392	n/a	WORD	1523196	wordpools/wasnorm_wordpool.txt	LTP122	ltpFR	18	16	0	FRECKLE	602	n/a	0	1	0.412841796875	0.57763671875	lower	../fonts/zerothre.ttf
3050.526	n/a	WORD	1525263	wordpools/wasnorm_wordpool.txt	LTP122	ltpFR	18	16	0	NOSE	957	n/a	0	1	0.412841796875	0.57763671875	lower	../fonts/zerothre.ttf
3056.2	n/a	REC_START	1528100	n/a	LTP122	ltpFR	18	16	n/a	n/a	n/a	n/a	n/a	n/a	n/a	n/a	n/a	n/a
3058.394	n/a	REC_WORD	1529197	wordpools/wasnorm_wordpool.txt	LTP122	ltpFR	18	16	1	CHIMPANZEE	302	n/a	1	n/a	n/a	n/a	n/a	n/a
3059.562	n/a	REC_WORD	1529781	wordpools/wasnorm_wordpool.txt	LTP122	ltpFR	18	16	1	ANIMAL	23	n/a	1	n/a	n/a	n/a	n/a	n/a
3060.484	n/a	REC_WORD	1530242	wordpools/wasnorm_wordpool.txt	LTP122	ltpFR	18	16	1	GRATE	657	n/a	0	n/a	n/a	n/a	n/a	n/a
3061.428	n/a	REC_WORD	1530714	wordpools/wasnorm_wordpool.txt	LTP122	ltpFR	18	16	0	PLANET	1082	n/a	1	n/a	n/a	n/a	n/a	n/a
3062.05	n/a	REC_WORD	1531025	wordpools/wasnorm_wordpool.txt	LTP122	ltpFR	18	16	1	SATURN	1236	n/a	0	n/a	n/a	n/a	n/a	n/a
3062.92	n/a	REC_WORD	1531460	wordpools/wasnorm_wordpool.txt	LTP122	ltpFR	18	16	1	JUPITER	765	n/a	0	n/a	n/a	n/a	n/a	n/a
3063.782	n/a	REC_WORD	1531891	wordpools/wasnorm_wordpool.txt	LTP122	ltpFR	18	16	0	LAWYER	806	n/a	1	n/a	n/a	n/a	n/a	n/a
3064.68	n/a	REC_WORD	1532340	wordpools/wasnorm_wordpool.txt	LTP122	ltpFR	18	16	0	RELISH	1183	n/a	0	n/a	n/a	n/a	n/a	n/a
3066.192	n/a	REC_WORD	1533096	wordpools/wasnorm_wordpool.txt	LTP122	ltpFR	18	16	0	ZUCCHINI	1638	n/a	0	n/a	n/a	n/a	n/a	n/a
3067.184	n/a	REC_WORD	1533592	wordpools/wasnorm_wordpool.txt	LTP122	ltpFR	18	16	0	SPINACH	1352	n/a	0	n/a	n/a	n/a	n/a	n/a
3069.002	n/a	REC_WORD	1534501	wordpools/wasnorm_wordpool.txt	LTP122	ltpFR	18	16	1	CHEMIST	292	n/a	1	n/a	n/a	n/a	n/a	n/a
3069.898	n/a	REC_WORD	1534949	wordpools/wasnorm_wordpool.txt	LTP122	ltpFR	18	16	1	SANDWICH	1232	n/a	0	n/a	n/a	n/a	n/a	n/a
3070.852	n/a	REC_WORD	1535426	wordpools/wasnorm_wordpool.txt	LTP122	ltpFR	18	16	0	FRECKLE	602	n/a	0	n/a	n/a	n/a	n/a	n/a
3071.774	n/a	REC_WORD	1535887	wordpools/wasnorm_wordpool.txt	LTP122	ltpFR	18	16	0	NOSE	957	n/a	0	n/a	n/a	n/a	n/a	n/a
3078.11	n/a	REC_WORD	1539055	wordpools/wasnorm_wordpool.txt	LTP122	ltpFR	18	16	0	TRUCK	1512	n/a	1	n/a	n/a	n/a	n/a	n/a
3129.94	n/a	REC_WORD_VV	1564970	wordpools/wasnorm_wordpool.txt	LTP122	ltpFR	18	16	n/a	<>	-1	n/a	n/a	n/a	n/a	n/a	n/a	n/a
3175.554	n/a	REC_START	1587777	n/a	LTP122	ltpFR	18	1	n/a	n/a	n/a	n/a	n/a	n/a	n/a	n/a	n/a	n/a
3175.596	n/a	RECOG_TARGET	1587798	n/a	LTP122	ltpFR	18	1	1	KANGAROO	768	5	1	n/a	n/a	n/a	n/a	n/a
3176.312	n/a	RECOG_RESP	1588156	n/a	LTP122	ltpFR	18	1	1	KANGAROO	768	n/a	1	n/a	n/a	n/a	n/a	n/a
3177.176	n/a	RECOG_CONF	1588588	n/a	LTP122	ltpFR	18	1	1	KANGAROO	768	5	1	n/a	n/a	n/a	n/a	n/a
3178.786	n/a	RECOG_TARGET	1589393	n/a	LTP122	ltpFR	18	1	0	SLUG	1329	5	0	n/a	n/a	n/a	n/a	n/a
3179.42	n/a	RECOG_RESP	1589710	n/a	LTP122	ltpFR	18	1	0	SLUG	1329	n/a	0	n/a	n/a	n/a	n/a	n/a
3180.238	n/a	RECOG_CONF	1590119	n/a	LTP122	ltpFR	18	1	0	SLUG	1329	5	0	n/a	n/a	n/a	n/a	n/a
3181.702	n/a	RECOG_TARGET	1590851	n/a	LTP122	ltpFR	18	1	1	VETERAN	1561	5	1	n/a	n/a	n/a	n/a	n/a
3182.67	n/a	RECOG_RESP	1591335	n/a	LTP122	ltpFR	18	1	1	VETERAN	1561	n/a	1	n/a	n/a	n/a	n/a	n/a
3183.432	n/a	RECOG_CONF	1591716	n/a	LTP122	ltpFR	18	1	1	VETERAN	1561	5	1	n/a	n/a	n/a	n/a	n/a
3184.918	n/a	RECOG_TARGET	1592459	n/a	LTP122	ltpFR	18	1	1	BEDROOM	111	5	0	n/a	n/a	n/a	n/a	n/a
3186.052	n/a	RECOG_RESP	1593026	n/a	LTP122	ltpFR	18	1	1	BEDROOM	111	n/a	0	n/a	n/a	n/a	n/a	n/a
3186.904	n/a	RECOG_CONF	1593452	n/a	LTP122	ltpFR	18	1	1	BEDROOM	111	5	0	n/a	n/a	n/a	n/a	n/a
3188.434	n/a	RECOG_TARGET	1594217	n/a	LTP122	ltpFR	18	1	1	TUSK	1523	5	0	n/a	n/a	n/a	n/a	n/a
3189.204	n/a	RECOG_RESP	1594602	n/a	LTP122	ltpFR	18	1	1	TUSK	1523	n/a	0	n/a	n/a	n/a	n/a	n/a
3189.988	n/a	RECOG_CONF	1594994	n/a	LTP122	ltpFR	18	1	1	TUSK	1523	5	0	n/a	n/a	n/a	n/a	n/a
3191.416	n/a	RECOG_TARGET	1595708	n/a	LTP122	ltpFR	18	1	1	BANNER	85	5	0	n/a	n/a	n/a	n/a	n/a
3192.178	n/a	RECOG_RESP	1596089	n/a	LTP122	ltpFR	18	1	1	BANNER	85	n/a	0	n/a	n/a	n/a	n/a	n/a
3192.94	n/a	RECOG_CONF	1596470	n/a	LTP122	ltpFR	18	1	1	BANNER	85	5	0	n/a	n/a	n/a	n/a	n/a
3194.44	n/a	RECOG_LURE	1597220	n/a	LTP122	ltpFR	18	1	n/a	CREAM	402	3	n/a	n/a	n/a	n/a	n/a	n/a
3198.992	n/a	RECOG_RESP	1599496	n/a	LTP122	ltpFR	18	1	n/a	CREAM	402	n/a	n/a	n/a	n/a	n/a	n/a	n/a
3199.766	n/a	RECOG_CONF	1599883	n/a	LTP122	ltpFR	18	1	n/a	CREAM	402	3	n/a	n/a	n/a	n/a	n/a	n/a
3201.23	n/a	RECOG_LURE	1600615	n/a	LTP122	ltpFR	18	1	n/a	SWITCH	1422	3	n/a	n/a	n/a	n/a	n/a	n/a
3202.66	n/a	RECOG_RESP	1601330	n/a	LTP122	ltpFR	18	1	n/a	SWITCH	1422	n/a	n/a	n/a	n/a	n/a	n/a	n/a
3203.438	n/a	RECOG_CONF	1601719	n/a	LTP122	ltpFR	18	1	n/a	SWITCH	1422	3	n/a	n/a	n/a	n/a	n/a	n/a
3204.896	n/a	RECOG_LURE	1602448	n/a	LTP122	ltpFR	18	1	n/a	UNIVERSITY	1541	5	n/a	n/a	n/a	n/a	n/a	n/a
3205.598	n/a	RECOG_RESP	1602799	n/a	LTP122	ltpFR	18	1	n/a	UNIVERSITY	1541	n/a	n/a	n/a	n/a	n/a	n/a	n/a
3206.232	n/a	RECOG_CONF	1603116	n/a	LTP122	ltpFR	18	1	n/a	UNIVERSITY	1541	5	n/a	n/a	n/a	n/a	n/a	n/a
3207.778	n/a	RECOG_LURE	1603889	n/a	LTP122	ltpFR	18	1	n/a	STADIUM	1364	4	n/a	n/a	n/a	n/a	n/a	n/a
3208.706	n/a	RECOG_RESP	1604353	n/a	LTP122	ltpFR	18	1	n/a	STADIUM	1364	n/a	n/a	n/a	n/a	n/a	n/a	n/a
3209.774	n/a	RECOG_CONF	1604887	n/a	LTP122	ltpFR	18	1	n/a	STADIUM	1364	4	n/a	n/a	n/a	n/a	n/a	n/a
3211.294	n/a	RECOG_TARGET	1605647	n/a	LTP122	ltpFR	18	1	-1	ROACH	1195	5	-1	n/a	n/a	n/a	n/a	n/a
3212.034	n/a	RECOG_RESP	1606017	n/a	LTP122	ltpFR	18	1	-1	ROACH	1195	n/a	-1	n/a	n/a	n/a	n/a	n/a
3212.656	n/a	RECOG_CONF	1606328	n/a	LTP122	ltpFR	18	1	-1	ROACH	1195	5	-1	n/a	n/a	n/a	n/a	n/a
3214.15	n/a	RECOG_TARGET	1607075	n/a	LTP122	ltpFR	18	1	1	PATRIOT	1026	5	1	n/a	n/a	n/a	n/a	n/a
3214.982	n/a	RECOG_RESP	1607491	n/a	LTP122	ltpFR	18	1	1	PATRIOT	1026	n/a	1	n/a	n/a	n/a	n/a	n/a
3215.72	n/a	RECOG_CONF	1607860	n/a	LTP122	ltpFR	18	1	1	PATRIOT	1026	5	1	n/a	n/a	n/a	n/a	n/a
3217.266	n/a	RECOG_TARGET	1608633	n/a	LTP122	ltpFR	18	1	-1	FLASK	576	5	-1	n/a	n/a	n/a	n/a	n/a
3218.05	n/a	RECOG_RESP	1609025	n/a	LTP122	ltpFR	18	1	-1	FLASK	576	n/a	-1	n/a	n/a	n/a	n/a	n/a
3218.814	n/a	RECOG_CONF	1609407	n/a	LTP122	ltpFR	18	1	-1	FLASK	576	5	-1	n/a	n/a	n/a	n/a	n/a
3220.3	n/a	RECOG_TARGET	1610150	n/a	LTP122	ltpFR	18	1	0	CONSOLE	364	5	0	n/a	n/a	n/a	n/a	n/a
3221.034	n/a	RECOG_RESP	1610517	n/a	LTP122	ltpFR	18	1	0	CONSOLE	364	n/a	0	n/a	n/a	n/a	n/a	n/a
3221.778	n/a	RECOG_CONF	1610889	n/a	LTP122	ltpFR	18	1	0	CONSOLE	364	5	0	n/a	n/a	n/a	n/a	n/a
3223.29	n/a	RECOG_TARGET	1611645	n/a	LTP122	ltpFR	18	1	-1	CLAM	315	5	-1	n/a	n/a	n/a	n/a	n/a
3224.446	n/a	RECOG_RESP	1612223	n/a	LTP122	ltpFR	18	1	-1	CLAM	315	n/a	-1	n/a	n/a	n/a	n/a	n/a
3225.15	n/a	RECOG_CONF	1612575	n/a	LTP122	ltpFR	18	1	-1	CLAM	315	5	-1	n/a	n/a	n/a	n/a	n/a
3226.614	n/a	RECOG_TARGET	1613307	n/a	LTP122	ltpFR	18	1	-1	FOREHEAD	592	5	-1	n/a	n/a	n/a	n/a	n/a
3227.244	n/a	RECOG_RESP	1613622	n/a	LTP122	ltpFR	18	1	-1	FOREHEAD	592	n/a	-1	n/a	n/a	n/a	n/a	n/a
3227.974	n/a	RECOG_CONF	1613987	n/a	LTP122	ltpFR	18	1	-1	FOREHEAD	592	5	-1	n/a	n/a	n/a	n/a	n/a
3229.488	n/a	RECOG_TARGET	1614744	n/a	LTP122	ltpFR	18	1	-1	PATIENT	1024	5	-1	n/a	n/a	n/a	n/a	n/a
3230.412	n/a	RECOG_RESP	1615206	n/a	LTP122	ltpFR	18	1	-1	PATIENT	1024	n/a	-1	n/a	n/a	n/a	n/a	n/a
3231.236	n/a	RECOG_CONF	1615618	n/a	LTP122	ltpFR	18	1	-1	PATIENT	1024	5	-1	n/a	n/a	n/a	n/a	n/a
3232.744	n/a	RECOG_LURE	1616372	n/a	LTP122	ltpFR	18	1	n/a	OREGANO	983	4	n/a	n/a	n/a	n/a	n/a	n/a
3234.264	n/a	RECOG_RESP	1617132	n/a	LTP122	ltpFR	18	1	n/a	OREGANO	983	n/a	n/a	n/a	n/a	n/a	n/a	n/a
3234.988	n/a	RECOG_CONF	1617494	n/a	LTP122	ltpFR	18	1	n/a	OREGANO	983	4	n/a	n/a	n/a	n/a	n/a	n/a
3236.486	n/a	RECOG_TARGET	1618243	n/a	LTP122	ltpFR	18	1	-1	PLUM	1090	5	-1	n/a	n/a	n/a	n/a	n/a
3237.182	n/a	RECOG_RESP	1618591	n/a	LTP122	ltpFR	18	1	-1	PLUM	1090	n/a	-1	n/a	n/a	n/a	n/a	n/a
3237.91	n/a	RECOG_CONF	1618955	n/a	LTP122	ltpFR	18	1	-1	PLUM	1090	5	-1	n/a	n/a	n/a	n/a	n/a
3239.352	n/a	RECOG_TARGET	1619676	n/a	LTP122	ltpFR	18	1	1	BROOK	177	5	0	n/a	n/a	n/a	n/a	n/a
3240.026	n/a	RECOG_RESP	1620013	n/a	LTP122	ltpFR	18	1	1	BROOK	177	n/a	0	n/a	n/a	n/a	n/a	n/a
3240.706	n/a	RECOG_CONF	1620353	n/a	LTP122	ltpFR	18	1	1	BROOK	177	5	0	n/a	n/a	n/a	n/a	n/a
3243.726	n/a	REC_START	1621863	n/a	LTP122	ltpFR	18	2	n/a	n/a	n/a	n/a	n/a	n/a	n/a	n/a	n/a	n/a
3243.758	n/a	RECOG_TARGET	1621879	n/a	LTP122	ltpFR	18	2	-1	DRYER	503	5	-1	n/a	n/a	n/a	n/a	n/a
3244.338	n/a	RECOG_RESP	1622169	n/a	LTP122	ltpFR	18	2	-1	DRYER	503	n/a	-1	n/a	n/a	n/a	n/a	n/a
3245.018	n/a	RECOG_CONF	1622509	n/a	LTP122	ltpFR	18	2	-1	DRYER	503	5	-1	n/a	n/a	n/a	n/a	n/a
3246.508	n/a	RECOG_TARGET	1623254	n/a	LTP122	ltpFR	18	2	0	ASPIRIN	47	5	0	n/a	n/a	n/a	n/a	n/a
3247.068	n/a	RECOG_RESP	1623534	n/a	LTP122	ltpFR	18	2	0	ASPIRIN	47	n/a	0	n/a	n/a	n/a	n/a	n/a
3247.732	n/a	RECOG_CONF	1623866	n/a	LTP122	ltpFR	18	2	0	ASPIRIN	47	5	0	n/a	n/a	n/a	n/a	n/a
3249.116	n/a	RECOG_TARGET	1624558	n/a	LTP122	ltpFR	18	2	0	SKUNK	1321	5	1	n/a	n/a	n/a	n/a	n/a
3249.656	n/a	RECOG_RESP	1624828	n/a	LTP122	ltpFR	18	2	0	SKUNK	1321	n/a	1	n/a	n/a	n/a	n/a	n/a
3250.386	n/a	RECOG_CONF	1625193	n/a	LTP122	ltpFR	18	2	0	SKUNK	1321	5	1	n/a	n/a	n/a	n/a	n/a
3251.874	n/a	RECOG_TARGET	1625937	n/a	LTP122	ltpFR	18	2	1	CARDINAL	244	5	1	n/a	n/a	n/a	n/a	n/a
3252.47	n/a	RECOG_RESP	1626235	n/a	LTP122	ltpFR	18	2	1	CARDINAL	244	n/a	1	n/a	n/a	n/a	n/a	n/a
3253.188	n/a	RECOG_CONF	1626594	n/a	LTP122	ltpFR	18	2	1	CARDINAL	244	5	1	n/a	n/a	n/a	n/a	n/a
3254.588	n/a	RECOG_LURE	1627294	n/a	LTP122	ltpFR	18	2	n/a	ATTIC	56	4	n/a	n/a	n/a	n/a	n/a	n/a
3255.674	n/a	RECOG_RESP	1627837	n/a	LTP122	ltpFR	18	2	n/a	ATTIC	56	n/a	n/a	n/a	n/a	n/a	n/a	n/a
3256.402	n/a	RECOG_CONF	1628201	n/a	LTP122	ltpFR	18	2	n/a	ATTIC	56	4	n/a	n/a	n/a	n/a	n/a	n/a
3257.898	n/a	RECOG_TARGET	1628949	n/a	LTP122	ltpFR	18	2	0	WHIP	1604	5	1	n/a	n/a	n/a	n/a	n/a
3258.508	n/a	RECOG_RESP	1629254	n/a	LTP122	ltpFR	18	2	0	WHIP	1604	n/a	1	n/a	n/a	n/a	n/a	n/a
3259.236	n/a	RECOG_CONF	1629618	n/a	LTP122	ltpFR	18	2	0	WHIP	1604	5	1	n/a	n/a	n/a	n/a	n/a
3260.678	n/a	RECOG_TARGET	1630339	n/a	LTP122	ltpFR	18	2	-1	FOUNTAIN	597	5	-1	n/a	n/a	n/a	n/a	n/a
3261.286	n/a	RECOG_RESP	1630643	n/a	LTP122	ltpFR	18	2	-1	FOUNTAIN	597	n/a	-1	n/a	n/a	n/a	n/a	n/a
3261.91	n/a	RECOG_CONF	1630955	n/a	LTP122	ltpFR	18	2	-1	FOUNTAIN	597	5	-1	n/a	n/a	n/a	n/a	n/a
3263.436	n/a	RECOG_TARGET	1631718	n/a	LTP122	ltpFR	18	2	1	SANDWICH	1232	5	0	n/a	n/a	n/a	n/a	n/a
3264.026	n/a	RECOG_RESP	1632013	n/a	LTP122	ltpFR	18	2	1	SANDWICH	1232	n/a	0	n/a	n/a	n/a	n/a	n/a
3264.704	n/a	RECOG_CONF	1632352	n/a	LTP122	ltpFR	18	2	1	SANDWICH	1232	5	0	n/a	n/a	n/a	n/a	n/a
3266.202	n/a	RECOG_TARGET	1633101	n/a	LTP122	ltpFR	18	2	0	TREASURE	1500	5	1	n/a	n/a	n/a	n/a	n/a
3266.934	n/a	RECOG_RESP	1633467	n/a	LTP122	ltpFR	18	2	0	TREASURE	1500	n/a	1	n/a	n/a	n/a	n/a	n/a
3267.656	n/a	RECOG_CONF	1633828	n/a	LTP122	ltpFR	18	2	0	TREASURE	1500	5	1	n/a	n/a	n/a	n/a	n/a
3269.192	n/a	RECOG_TARGET	1634596	n/a	LTP122	ltpFR	18	2	-1	FLESH	579	5	-1	n/a	n/a	n/a	n/a	n/a
3269.822	n/a	RECOG_RESP	1634911	n/a	LTP122	ltpFR	18	2	-1	FLESH	579	n/a	-1	n/a	n/a	n/a	n/a	n/a
3270.56	n/a	RECOG_CONF	1635280	n/a	LTP122	ltpFR	18	2	-1	FLESH	579	5	-1	n/a	n/a	n/a	n/a	n/a
3271.992	n/a	RECOG_LURE	1635996	n/a	LTP122	ltpFR	18	2	n/a	PLAID	1080	4	n/a	n/a	n/a	n/a	n/a	n/a
3272.71	n/a	RECOG_RESP_VV	1636355	n/a	LTP122	ltpFR	18	2	n/a	PLAID	1080	n/a	n/a	n/a	n/a	n/a	n/a	n/a
3275.07	n/a	RECOG_RESP	1637535	n/a	LTP122	ltpFR	18	2	n/a	PLAID	1080	n/a	n/a	n/a	n/a	n/a	n/a	n/a
3275.858	n/a	RECOG_CONF	1637929	n/a	LTP122	ltpFR	18	2	n/a	PLAID	1080	4	n/a	n/a	n/a	n/a	n/a	n/a
3277.566	n/a	RECOG_LURE	1638783	n/a	LTP122	ltpFR	18	2	n/a	MOLECULE	905	3	n/a	n/a	n/a	n/a	n/a	n/a
3279.566	n/a	RECOG_RESP	1639783	n/a	LTP122	ltpFR	18	2	n/a	MOLECULE	905	n/a	n/a	n/a	n/a	n/a	n/a	n/a
3280.34	n/a	RECOG_CONF	1640170	n/a	LTP122	ltpFR	18	2	n/a	MOLECULE	905	3	n/a	n/a	n/a	n/a	n/a	n/a
3281.956	n/a	RECOG_TARGET	1640978	n/a	LTP122	ltpFR	18	2	0	DORM	488	5	1	n/a	n/a	n/a	n/a	n/a
3282.688	n/a	RECOG_RESP	1641344	n/a	LTP122	ltpFR	18	2	0	DORM	488	n/a	1	n/a	n/a	n/a	n/a	n/a
3283.372	n/a	RECOG_CONF	1641686	n/a	LTP122	ltpFR	18	2	0	DORM	488	5	1	n/a	n/a	n/a	n/a	n/a
3284.772	n/a	RECOG_TARGET	1642386	n/a	LTP122	ltpFR	18	2	0	LAWYER	806	5	1	n/a	n/a	n/a	n/a	n/a
3285.342	n/a	RECOG_RESP	1642671	n/a	LTP122	ltpFR	18	2	0	LAWYER	806	n/a	1	n/a	n/a	n/a	n/a	n/a
3285.996	n/a	RECOG_CONF	1642998	n/a	LTP122	ltpFR	18	2	0	LAWYER	806	5	1	n/a	n/a	n/a	n/a	n/a
3287.362	n/a	RECOG_TARGET	1643681	n/a	LTP122	ltpFR	18	2	-1	FOE	587	5	-1	n/a	n/a	n/a	n/a	n/a
3287.886	n/a	RECOG_RESP	1643943	n/a	LTP122	ltpFR	18	2	-1	FOE	587	n/a	-1	n/a	n/a	n/a	n/a	n/a
3288.56	n/a	RECOG_CONF	1644280	n/a	LTP122	ltpFR	18	2	-1	FOE	587	5	-1	n/a	n/a	n/a	n/a	n/a
3289.97	n/a	RECOG_TARGET	1644985	n/a	LTP122	ltpFR	18	2	1	JUPITER	765	5	0	n/a	n/a	n/a	n/a	n/a
3290.432	n/a	RECOG_RESP	1645216	n/a	LTP122	ltpFR	18	2	1	JUPITER	765	n/a	0	n/a	n/a	n/a	n/a	n/a
3291.044	n/a	RECOG_CONF	1645522	n/a	LTP122	ltpFR	18	2	1	JUPITER	765	5	0	n/a	n/a	n/a	n/a	n/a
3292.51	n/a	RECOG_TARGET	1646255	n/a	LTP122	ltpFR	18	2	-1	LAPEL	800	5	-1	n/a	n/a	n/a	n/a	n/a
3293.056	n/a	RECOG_RESP	1646528	n/a	LTP122	ltpFR	18	2	-1	LAPEL	800	n/a	-1	n/a	n/a	n/a	n/a	n/a
3293.718	n/a	RECOG_CONF	1646859	n/a	LTP122	ltpFR	18	2	-1	LAPEL	800	5	-1	n/a	n/a	n/a	n/a	n/a
3295.126	n/a	RECOG_LURE	1647563	n/a	LTP122	ltpFR	18	2	n/a	FARMER	553	2	n/a	n/a	n/a	n/a	n/a	n/a
3296.184	n/a	RECOG_RESP	1648092	n/a	LTP122	ltpFR	18	2	n/a	FARMER	553	n/a	n/a	n/a	n/a	n/a	n/a	n/a
3297.042	n/a	RECOG_CONF	1648521	n/a	LTP122	ltpFR	18	2	n/a	FARMER	553	2	n/a	n/a	n/a	n/a	n/a	n/a
3298.434	n/a	RECOG_TARGET	1649217	n/a	LTP122	ltpFR	18	2	-1	LIGHTER	819	5	-1	n/a	n/a	n/a	n/a	n/a
3299.068	n/a	RECOG_RESP	1649534	n/a	LTP122	ltpFR	18	2	-1	LIGHTER	819	n/a	-1	n/a	n/a	n/a	n/a	n/a
3299.706	n/a	RECOG_CONF	1649853	n/a	LTP122	ltpFR	18	2	-1	LIGHTER	819	5	-1	n/a	n/a	n/a	n/a	n/a
3301.192	n/a	RECOG_LURE	1650596	n/a	LTP122	ltpFR	18	2	n/a	GUITAR	670	4	n/a	n/a	n/a	n/a	n/a	n/a
3302.42	n/a	RECOG_RESP	1651210	n/a	LTP122	ltpFR	18	2	n/a	GUITAR	670	n/a	n/a	n/a	n/a	n/a	n/a	n/a
3303.258	n/a	RECOG_CONF	1651629	n/a	LTP122	ltpFR	18	2	n/a	GUITAR	670	4	n/a	n/a	n/a	n/a	n/a	n/a
3306.252	n/a	REC_START	1653126	n/a	LTP122	ltpFR	18	3	n/a	n/a	n/a	n/a	n/a	n/a	n/a	n/a	n/a	n/a
3306.29	n/a	RECOG_TARGET	1653145	n/a	LTP122	ltpFR	18	3	-1	PARROT	1015	5	-1	n/a	n/a	n/a	n/a	n/a
3306.864	n/a	RECOG_RESP	1653432	n/a	LTP122	ltpFR	18	3	-1	PARROT	1015	n/a	-1	n/a	n/a	n/a	n/a	n/a
3307.464	n/a	RECOG_CONF	1653732	n/a	LTP122	ltpFR	18	3	-1	PARROT	1015	5	-1	n/a	n/a	n/a	n/a	n/a
3308.922	n/a	RECOG_LURE	1654461	n/a	LTP122	ltpFR	18	3	n/a	SWEATER	1419	3	n/a	n/a	n/a	n/a	n/a	n/a
3310.182	n/a	RECOG_RESP	1655091	n/a	LTP122	ltpFR	18	3	n/a	SWEATER	1419	n/a	n/a	n/a	n/a	n/a	n/a	n/a
3310.946	n/a	RECOG_CONF	1655473	n/a	LTP122	ltpFR	18	3	n/a	SWEATER	1419	3	n/a	n/a	n/a	n/a	n/a	n/a
3312.37	n/a	RECOG_TARGET	1656185	n/a	LTP122	ltpFR	18	3	0	FRECKLE	602	5	0	n/a	n/a	n/a	n/a	n/a
3312.896	n/a	RECOG_RESP	1656448	n/a	LTP122	ltpFR	18	3	0	FRECKLE	602	n/a	0	n/a	n/a	n/a	n/a	n/a
3313.58	n/a	RECOG_CONF	1656790	n/a	LTP122	ltpFR	18	3	0	FRECKLE	602	5	0	n/a	n/a	n/a	n/a	n/a
3315.02	n/a	RECOG_TARGET	1657510	n/a	LTP122	ltpFR	18	3	-1	DRIVER	499	5	-1	n/a	n/a	n/a	n/a	n/a
3315.7	n/a	RECOG_RESP	1657850	n/a	LTP122	ltpFR	18	3	-1	DRIVER	499	n/a	-1	n/a	n/a	n/a	n/a	n/a
3316.374	n/a	RECOG_CONF	1658187	n/a	LTP122	ltpFR	18	3	-1	DRIVER	499	5	-1	n/a	n/a	n/a	n/a	n/a
3317.83	n/a	RECOG_LURE	1658915	n/a	LTP122	ltpFR	18	3	n/a	ANCESTOR	20	4	n/a	n/a	n/a	n/a	n/a	n/a
3318.59	n/a	RECOG_RESP	1659295	n/a	LTP122	ltpFR	18	3	n/a	ANCESTOR	20	n/a	n/a	n/a	n/a	n/a	n/a	n/a
3319.368	n/a	RECOG_CONF	1659684	n/a	LTP122	ltpFR	18	3	n/a	ANCESTOR	20	4	n/a	n/a	n/a	n/a	n/a	n/a
3320.794	n/a	RECOG_TARGET	1660397	n/a	LTP122	ltpFR	18	3	-1	ORNAMENT	985	5	-1	n/a	n/a	n/a	n/a	n/a
3321.422	n/a	RECOG_RESP	1660711	n/a	LTP122	ltpFR	18	3	-1	ORNAMENT	985	n/a	-1	n/a	n/a	n/a	n/a	n/a
3322.132	n/a	RECOG_CONF	1661066	n/a	LTP122	ltpFR	18	3	-1	ORNAMENT	985	5	-1	n/a	n/a	n/a	n/a	n/a
3323.584	n/a	RECOG_TARGET	1661792	n/a	LTP122	ltpFR	18	3	0	SERVANT	1271	5	1	n/a	n/a	n/a	n/a	n/a
3324.196	n/a	RECOG_RESP	1662098	n/a	LTP122	ltpFR	18	3	0	SERVANT	1271	n/a	1	n/a	n/a	n/a	n/a	n/a
3324.894	n/a	RECOG_CONF	1662447	n/a	LTP122	ltpFR	18	3	0	SERVANT	1271	5	1	n/a	n/a	n/a	n/a	n/a
3326.25	n/a	RECOG_TARGET	1663125	n/a	LTP122	ltpFR	18	3	0	LITERATURE	831	5	0	n/a	n/a	n/a	n/a	n/a
3326.74	n/a	RECOG_RESP	1663370	n/a	LTP122	ltpFR	18	3	0	LITERATURE	831	n/a	0	n/a	n/a	n/a	n/a	n/a
3327.42	n/a	RECOG_CONF	1663710	n/a	LTP122	ltpFR	18	3	0	LITERATURE	831	5	0	n/a	n/a	n/a	n/a	n/a
3328.884	n/a	RECOG_TARGET	1664442	n/a	LTP122	ltpFR	18	3	-1	SUBURB	1399	5	-1	n/a	n/a	n/a	n/a	n/a
3329.51	n/a	RECOG_RESP	1664755	n/a	LTP122	ltpFR	18	3	-1	SUBURB	1399	n/a	-1	n/a	n/a	n/a	n/a	n/a
3330.232	n/a	RECOG_CONF	1665116	n/a	LTP122	ltpFR	18	3	-1	SUBURB	1399	5	-1	n/a	n/a	n/a	n/a	n/a
3331.54	n/a	RECOG_TARGET	1665770	n/a	LTP122	ltpFR	18	3	1	ISLAND	745	5	0	n/a	n/a	n/a	n/a	n/a
3332.488	n/a	RECOG_RESP	1666244	n/a	LTP122	ltpFR	18	3	1	ISLAND	745	n/a	0	n/a	n/a	n/a	n/a	n/a
3333.176	n/a	RECOG_CONF	1666588	n/a	LTP122	ltpFR	18	3	1	ISLAND	745	5	0	n/a	n/a	n/a	n/a	n/a
3334.706	n/a	RECOG_TARGET	1667353	n/a	LTP122	ltpFR	18	3	-1	PRUNE	1134	5	-1	n/a	n/a	n/a	n/a	n/a
3335.342	n/a	RECOG_RESP	1667671	n/a	LTP122	ltpFR	18	3	-1	PRUNE	1134	n/a	-1	n/a	n/a	n/a	n/a	n/a
3336.05	n/a	RECOG_CONF	1668025	n/a	LTP122	ltpFR	18	3	-1	PRUNE	1134	5	-1	n/a	n/a	n/a	n/a	n/a
3337.53	n/a	RECOG_TARGET	1668765	n/a	LTP122	ltpFR	18	3	-1	COLONEL	348	5	-1	n/a	n/a	n/a	n/a	n/a
3338.14	n/a	RECOG_RESP	1669070	n/a	LTP122	ltpFR	18	3	-1	COLONEL	348	n/a	-1	n/a	n/a	n/a	n/a	n/a
3338.844	n/a	RECOG_CONF	1669422	n/a	LTP122	ltpFR	18	3	-1	COLONEL	348	5	-1	n/a	n/a	n/a	n/a	n/a
3340.246	n/a	RECOG_TARGET	1670123	n/a	LTP122	ltpFR	18	3	1	CREEK	404	4	0	n/a	n/a	n/a	n/a	n/a
3341.358	n/a	RECOG_RESP	1670679	n/a	LTP122	ltpFR	18	3	1	CREEK	404	n/a	0	n/a	n/a	n/a	n/a	n/a
3342.028	n/a	RECOG_CONF	1671014	n/a	LTP122	ltpFR	18	3	1	CREEK	404	4	0	n/a	n/a	n/a	n/a	n/a
3343.686	n/a	RECOG_TARGET	1671843	n/a	LTP122	ltpFR	18	3	1	COTTAGE	384	5	1	n/a	n/a	n/a	n/a	n/a
3344.282	n/a	RECOG_RESP	1672141	n/a	LTP122	ltpFR	18	3	1	COTTAGE	384	n/a	1	n/a	n/a	n/a	n/a	n/a
3344.9	n/a	RECOG_CONF	1672450	n/a	LTP122	ltpFR	18	3	1	COTTAGE	384	5	1	n/a	n/a	n/a	n/a	n/a
3346.36	n/a	RECOG_TARGET	1673180	n/a	LTP122	ltpFR	18	3	1	SALAD	1224	5	0	n/a	n/a	n/a	n/a	n/a
3346.95	n/a	RECOG_RESP	1673475	n/a	LTP122	ltpFR	18	3	1	SALAD	1224	n/a	0	n/a	n/a	n/a	n/a	n/a
3347.644	n/a	RECOG_CONF	1673822	n/a	LTP122	ltpFR	18	3	1	SALAD	1224	5	0	n/a	n/a	n/a	n/a	n/a
3349.068	n/a	RECOG_LURE	1674534	n/a	LTP122	ltpFR	18	3	n/a	WHEEL	1603	2	n/a	n/a	n/a	n/a	n/a	n/a
3351.526	n/a	RECOG_RESP	1675763	n/a	LTP122	ltpFR	18	3	n/a	WHEEL	1603	n/a	n/a	n/a	n/a	n/a	n/a	n/a
3352.204	n/a	RECOG_CONF	1676102	n/a	LTP122	ltpFR	18	3	n/a	WHEEL	1603	2	n/a	n/a	n/a	n/a	n/a	n/a
3353.692	n/a	RECOG_TARGET	1676846	n/a	LTP122	ltpFR	18	3	1	FREEZER	604	5	0	n/a	n/a	n/a	n/a	n/a
3354.4	n/a	RECOG_RESP	1677200	n/a	LTP122	ltpFR	18	3	1	FREEZER	604	n/a	0	n/a	n/a	n/a	n/a	n/a
3355.726	n/a	RECOG_CONF	1677863	n/a	LTP122	ltpFR	18	3	1	FREEZER	604	5	0	n/a	n/a	n/a	n/a	n/a
3357.274	n/a	RECOG_LURE	1678637	n/a	LTP122	ltpFR	18	3	n/a	HIP	710	3	n/a	n/a	n/a	n/a	n/a	n/a
3358.296	n/a	RECOG_RESP	1679148	n/a	LTP122	ltpFR	18	3	n/a	HIP	710	n/a	n/a	n/a	n/a	n/a	n/a	n/a
3359.14	n/a	RECOG_CONF	1679570	n/a	LTP122	ltpFR	18	3	n/a	HIP	710	3	n/a	n/a	n/a	n/a	n/a	n/a
3360.682	n/a	RECOG_TARGET	1680341	n/a	LTP122	ltpFR	18	3	1	RAIL	1161	5	0	n/a	n/a	n/a	n/a	n/a
3361.224	n/a	RECOG_RESP	1680612	n/a	LTP122	ltpFR	18	3	1	RAIL	1161	n/a	0	n/a	n/a	n/a	n/a	n/a
3361.834	n/a	RECOG_CONF	1680917	n/a	LTP122	ltpFR	18	3	1	RAIL	1161	5	0	n/a	n/a	n/a	n/a	n/a
3363.338	n/a	RECOG_TARGET	1681669	n/a	LTP122	ltpFR	18	3	-1	SHRINE	1298	5	-1	n/a	n/a	n/a	n/a	n/a
3364.252	n/a	RECOG_RESP	1682126	n/a	LTP122	ltpFR	18	3	-1	SHRINE	1298	n/a	-1	n/a	n/a	n/a	n/a	n/a
3364.956	n/a	RECOG_CONF	1682478	n/a	LTP122	ltpFR	18	3	-1	SHRINE	1298	5	-1	n/a	n/a	n/a	n/a	n/a
3368.284	n/a	REC_START	1684142	n/a	LTP122	ltpFR	18	4	n/a	n/a	n/a	n/a	n/a	n/a	n/a	n/a	n/a	n/a
3368.32	n/a	RECOG_TARGET	1684160	n/a	LTP122	ltpFR	18	4	-1	WINDSHIELD	1612	5	-1	n/a	n/a	n/a	n/a	n/a
3368.978	n/a	RECOG_RESP	1684489	n/a	LTP122	ltpFR	18	4	-1	WINDSHIELD	1612	n/a	-1	n/a	n/a	n/a	n/a	n/a
3369.616	n/a	RECOG_CONF	1684808	n/a	LTP122	ltpFR	18	4	-1	WINDSHIELD	1612	5	-1	n/a	n/a	n/a	n/a	n/a
3371.094	n/a	RECOG_TARGET	1685547	n/a	LTP122	ltpFR	18	4	0	MONARCH	906	5	0	n/a	n/a	n/a	n/a	n/a
3371.626	n/a	RECOG_RESP	1685813	n/a	LTP122	ltpFR	18	4	0	MONARCH	906	n/a	0	n/a	n/a	n/a	n/a	n/a
3372.302	n/a	RECOG_CONF	1686151	n/a	LTP122	ltpFR	18	4	0	MONARCH	906	5	0	n/a	n/a	n/a	n/a	n/a
3373.862	n/a	RECOG_TARGET	1686931	n/a	LTP122	ltpFR	18	4	1	REEF	1177	5	0	n/a	n/a	n/a	n/a	n/a
3374.432	n/a	RECOG_RESP	1687216	n/a	LTP122	ltpFR	18	4	1	REEF	1177	n/a	0	n/a	n/a	n/a	n/a	n/a
3375.144	n/a	RECOG_CONF	1687572	n/a	LTP122	ltpFR	18	4	1	REEF	1177	5	0	n/a	n/a	n/a	n/a	n/a
3376.502	n/a	RECOG_TARGET	1688251	n/a	LTP122	ltpFR	18	4	1	COSTUME	383	5	1	n/a	n/a	n/a	n/a	n/a
3377.33	n/a	RECOG_RESP	1688665	n/a	LTP122	ltpFR	18	4	1	COSTUME	383	n/a	1	n/a	n/a	n/a	n/a	n/a
3378.068	n/a	RECOG_CONF	1689034	n/a	LTP122	ltpFR	18	4	1	COSTUME	383	5	1	n/a	n/a	n/a	n/a	n/a
3379.5	n/a	RECOG_TARGET	1689750	n/a	LTP122	ltpFR	18	4	-1	AMBULANCE	19	5	-1	n/a	n/a	n/a	n/a	n/a
3380.048	n/a	RECOG_RESP	1690024	n/a	LTP122	ltpFR	18	4	-1	AMBULANCE	19	n/a	-1	n/a	n/a	n/a	n/a	n/a
3380.752	n/a	RECOG_CONF	1690376	n/a	LTP122	ltpFR	18	4	-1	AMBULANCE	19	5	-1	n/a	n/a	n/a	n/a	n/a
3382.226	n/a	RECOG_TARGET	1691113	n/a	LTP122	ltpFR	18	4	1	UNDERWEAR	1537	5	0	n/a	n/a	n/a	n/a	n/a
3382.768	n/a	RECOG_RESP	1691384	n/a	LTP122	ltpFR	18	4	1	UNDERWEAR	1537	n/a	0	n/a	n/a	n/a	n/a	n/a
3383.466	n/a	RECOG_CONF	1691733	n/a	LTP122	ltpFR	18	4	1	UNDERWEAR	1537	5	0	n/a	n/a	n/a	n/a	n/a
3385.066	n/a	RECOG_TARGET	1692533	n/a	LTP122	ltpFR	18	4	1	BAG	69	5	0	n/a	n/a	n/a	n/a	n/a
3386.34	n/a	RECOG_RESP	1693170	n/a	LTP122	ltpFR	18	4	1	BAG	69	n/a	0	n/a	n/a	n/a	n/a	n/a
3387.128	n/a	RECOG_CONF	1693564	n/a	LTP122	ltpFR	18	4	1	BAG	69	5	0	n/a	n/a	n/a	n/a	n/a
3388.564	n/a	RECOG_TARGET	1694282	n/a	LTP122	ltpFR	18	4	-1	SOCK	1339	5	-1	n/a	n/a	n/a	n/a	n/a
3390.46	n/a	RECOG_RESP	1695230	n/a	LTP122	ltpFR	18	4	-1	SOCK	1339	n/a	-1	n/a	n/a	n/a	n/a	n/a
3391.348	n/a	RECOG_CONF	1695674	n/a	LTP122	ltpFR	18	4	-1	SOCK	1339	5	-1	n/a	n/a	n/a	n/a	n/a
3392.898	n/a	RECOG_TARGET	1696449	n/a	LTP122	ltpFR	18	4	1	VINEGAR	1569	5	0	n/a	n/a	n/a	n/a	n/a
3393.704	n/a	RECOG_RESP	1696852	n/a	LTP122	ltpFR	18	4	1	VINEGAR	1569	n/a	0	n/a	n/a	n/a	n/a	n/a
3394.492	n/a	RECOG_CONF	1697246	n/a	LTP122	ltpFR	18	4	1	VINEGAR	1569	5	0	n/a	n/a	n/a	n/a	n/a
3395.972	n/a	RECOG_LURE	1697986	n/a	LTP122	ltpFR	18	4	n/a	BATHROOM	99	3	n/a	n/a	n/a	n/a	n/a	n/a
3397.534	n/a	RECOG_RESP	1698767	n/a	LTP122	ltpFR	18	4	n/a	BATHROOM	99	n/a	n/a	n/a	n/a	n/a	n/a	n/a
3398.372	n/a	RECOG_CONF	1699186	n/a	LTP122	ltpFR	18	4	n/a	BATHROOM	99	3	n/a	n/a	n/a	n/a	n/a	n/a
3399.83	n/a	RECOG_LURE	1699915	n/a	LTP122	ltpFR	18	4	n/a	TAIL	1430	2	n/a	n/a	n/a	n/a	n/a	n/a
3400.792	n/a	RECOG_RESP	1700396	n/a	LTP122	ltpFR	18	4	n/a	TAIL	1430	n/a	n/a	n/a	n/a	n/a	n/a	n/a
3402.484	n/a	RECOG_CONF	1701242	n/a	LTP122	ltpFR	18	4	n/a	TAIL	1430	2	n/a	n/a	n/a	n/a	n/a	n/a
3404.044	n/a	RECOG_TARGET	1702022	n/a	LTP122	ltpFR	18	4	1	PUDDING	1139	5	0	n/a	n/a	n/a	n/a	n/a
3404.618	n/a	RECOG_RESP	1702309	n/a	LTP122	ltpFR	18	4	1	PUDDING	1139	n/a	0	n/a	n/a	n/a	n/a	n/a
3405.358	n/a	RECOG_CONF	1702679	n/a	LTP122	ltpFR	18	4	1	PUDDING	1139	5	0	n/a	n/a	n/a	n/a	n/a
3406.7	n/a	RECOG_TARGET	1703350	n/a	LTP122	ltpFR	18	4	-1	YARD	1630	5	-1	n/a	n/a	n/a	n/a	n/a
3407.312	n/a	RECOG_RESP	1703656	n/a	LTP122	ltpFR	18	4	-1	YARD	1630	n/a	-1	n/a	n/a	n/a	n/a	n/a
3408.07	n/a	RECOG_CONF	1704035	n/a	LTP122	ltpFR	18	4	-1	YARD	1630	5	-1	n/a	n/a	n/a	n/a	n/a
3409.484	n/a	RECOG_TARGET	1704742	n/a	LTP122	ltpFR	18	4	0	MONGOOSE	909	5	0	n/a	n/a	n/a	n/a	n/a
3410.016	n/a	RECOG_RESP	1705008	n/a	LTP122	ltpFR	18	4	0	MONGOOSE	909	n/a	0	n/a	n/a	n/a	n/a	n/a
3410.786	n/a	RECOG_CONF	1705393	n/a	LTP122	ltpFR	18	4	0	MONGOOSE	909	5	0	n/a	n/a	n/a	n/a	n/a
3412.282	n/a	RECOG_TARGET	1706141	n/a	LTP122	ltpFR	18	4	-1	TAG	1429	5	-1	n/a	n/a	n/a	n/a	n/a
3413.61	n/a	RECOG_RESP	1706805	n/a	LTP122	ltpFR	18	4	-1	TAG	1429	n/a	-1	n/a	n/a	n/a	n/a	n/a
3414.368	n/a	RECOG_CONF	1707184	n/a	LTP122	ltpFR	18	4	-1	TAG	1429	5	-1	n/a	n/a	n/a	n/a	n/a
3415.748	n/a	RECOG_TARGET	1707874	n/a	LTP122	ltpFR	18	4	1	SCALLOP	1242	5	1	n/a	n/a	n/a	n/a	n/a
3416.334	n/a	RECOG_RESP	1708167	n/a	LTP122	ltpFR	18	4	1	SCALLOP	1242	n/a	1	n/a	n/a	n/a	n/a	n/a
3417.042	n/a	RECOG_CONF	1708521	n/a	LTP122	ltpFR	18	4	1	SCALLOP	1242	5	1	n/a	n/a	n/a	n/a	n/a
3418.43	n/a	RECOG_LURE	1709215	n/a	LTP122	ltpFR	18	4	n/a	DIGGER	464	2	n/a	n/a	n/a	n/a	n/a	n/a
3419.216	n/a	RECOG_RESP	1709608	n/a	LTP122	ltpFR	18	4	n/a	DIGGER	464	n/a	n/a	n/a	n/a	n/a	n/a	n/a
3420.004	n/a	RECOG_CONF	1710002	n/a	LTP122	ltpFR	18	4	n/a	DIGGER	464	2	n/a	n/a	n/a	n/a	n/a	n/a
3421.43	n/a	RECOG_TARGET	1710715	n/a	LTP122	ltpFR	18	4	-1	BRAN	167	5	-1	n/a	n/a	n/a	n/a	n/a
3422.086	n/a	RECOG_RESP	1711043	n/a	LTP122	ltpFR	18	4	-1	BRAN	167	n/a	-1	n/a	n/a	n/a	n/a	n/a
3422.818	n/a	RECOG_CONF	1711409	n/a	LTP122	ltpFR	18	4	-1	BRAN	167	5	-1	n/a	n/a	n/a	n/a	n/a
3424.262	n/a	RECOG_LURE	1712131	n/a	LTP122	ltpFR	18	4	n/a	DASHBOARD	441	3	n/a	n/a	n/a	n/a	n/a	n/a
3425.134	n/a	RECOG_RESP	1712567	n/a	LTP122	ltpFR	18	4	n/a	DASHBOARD	441	n/a	n/a	n/a	n/a	n/a	n/a	n/a
3425.892	n/a	RECOG_CONF	1712946	n/a	LTP122	ltpFR	18	4	n/a	DASHBOARD	441	3	n/a	n/a	n/a	n/a	n/a	n/a
3427.36	n/a	RECOG_TARGET	1713680	n/a	LTP122	ltpFR	18	4	0	MITTEN	902	5	0	n/a	n/a	n/a	n/a	n/a
3427.896	n/a	RECOG_RESP	1713948	n/a	LTP122	ltpFR	18	4	0	MITTEN	902	n/a	0	n/a	n/a	n/a	n/a	n/a
3428.686	n/a	RECOG_CONF	1714343	n/a	LTP122	ltpFR	18	4	0	MITTEN	902	5	0	n/a	n/a	n/a	n/a	n/a
3431.774	n/a	REC_START	1715887	n/a	LTP122	ltpFR	18	5	n/a	n/a	n/a	n/a	n/a	n/a	n/a	n/a	n/a	n/a
3431.802	n/a	RECOG_TARGET	1715901	n/a	LTP122	ltpFR	18	5	0	PALM	1007	5	0	n/a	n/a	n/a	n/a	n/a
3433.006	n/a	RECOG_RESP	1716503	n/a	LTP122	ltpFR	18	5	0	PALM	1007	n/a	0	n/a	n/a	n/a	n/a	n/a
3433.764	n/a	RECOG_CONF	1716882	n/a	LTP122	ltpFR	18	5	0	PALM	1007	5	0	n/a	n/a	n/a	n/a	n/a
3435.192	n/a	RECOG_LURE	1717596	n/a	LTP122	ltpFR	18	5	n/a	QUEEN	1149	5	n/a	n/a	n/a	n/a	n/a	n/a
3435.898	n/a	RECOG_RESP	1717949	n/a	LTP122	ltpFR	18	5	n/a	QUEEN	1149	n/a	n/a	n/a	n/a	n/a	n/a	n/a
3436.498	n/a	RECOG_CONF	1718249	n/a	LTP122	ltpFR	18	5	n/a	QUEEN	1149	5	n/a	n/a	n/a	n/a	n/a	n/a
3437.992	n/a	RECOG_TARGET	1718996	n/a	LTP122	ltpFR	18	5	1	ALLEY	15	5	0	n/a	n/a	n/a	n/a	n/a
3439.042	n/a	RECOG_RESP	1719521	n/a	LTP122	ltpFR	18	5	1	ALLEY	15	n/a	0	n/a	n/a	n/a	n/a	n/a
3439.81	n/a	RECOG_CONF	1719905	n/a	LTP122	ltpFR	18	5	1	ALLEY	15	5	0	n/a	n/a	n/a	n/a	n/a
3441.358	n/a	RECOG_TARGET	1720679	n/a	LTP122	ltpFR	18	5	0	TERRITORY	1452	5	1	n/a	n/a	n/a	n/a	n/a
3442.114	n/a	RECOG_RESP	1721057	n/a	LTP122	ltpFR	18	5	0	TERRITORY	1452	n/a	1	n/a	n/a	n/a	n/a	n/a
3442.854	n/a	RECOG_CONF	1721427	n/a	LTP122	ltpFR	18	5	0	TERRITORY	1452	5	1	n/a	n/a	n/a	n/a	n/a
3444.298	n/a	RECOG_TARGET	1722149	n/a	LTP122	ltpFR	18	5	0	BLUEPRINT	142	5	0	n/a	n/a	n/a	n/a	n/a
3444.978	n/a	RECOG_RESP	1722489	n/a	LTP122	ltpFR	18	5	0	BLUEPRINT	142	n/a	0	n/a	n/a	n/a	n/a	n/a
3445.776	n/a	RECOG_CONF	1722888	n/a	LTP122	ltpFR	18	5	0	BLUEPRINT	142	5	0	n/a	n/a	n/a	n/a	n/a
3447.33	n/a	RECOG_TARGET	1723665	n/a	LTP122	ltpFR	18	5	0	PAINT	1003	5	0	n/a	n/a	n/a	n/a	n/a
3447.866	n/a	RECOG_RESP	1723933	n/a	LTP122	ltpFR	18	5	0	PAINT	1003	n/a	0	n/a	n/a	n/a	n/a	n/a
3448.602	n/a	RECOG_CONF	1724301	n/a	LTP122	ltpFR	18	5	0	PAINT	1003	5	0	n/a	n/a	n/a	n/a	n/a
3450.114	n/a	RECOG_TARGET	1725057	n/a	LTP122	ltpFR	18	5	-1	PASTRY	1022	5	-1	n/a	n/a	n/a	n/a	n/a
3450.716	n/a	RECOG_RESP	1725358	n/a	LTP122	ltpFR	18	5	-1	PASTRY	1022	n/a	-1	n/a	n/a	n/a	n/a	n/a
3451.484	n/a	RECOG_CONF	1725742	n/a	LTP122	ltpFR	18	5	-1	PASTRY	1022	5	-1	n/a	n/a	n/a	n/a	n/a
3453.054	n/a	RECOG_LURE	1726527	n/a	LTP122	ltpFR	18	5	n/a	CHURCH	307	2	n/a	n/a	n/a	n/a	n/a	n/a
3456.0	n/a	RECOG_RESP	1728000	n/a	LTP122	ltpFR	18	5	n/a	CHURCH	307	n/a	n/a	n/a	n/a	n/a	n/a	n/a
3456.842	n/a	RECOG_CONF	1728421	n/a	LTP122	ltpFR	18	5	n/a	CHURCH	307	2	n/a	n/a	n/a	n/a	n/a	n/a
3458.41	n/a	RECOG_TARGET	1729205	n/a	LTP122	ltpFR	18	5	-1	BUILDING	191	5	-1	n/a	n/a	n/a	n/a	n/a
3459.756	n/a	RECOG_RESP	1729878	n/a	LTP122	ltpFR	18	5	-1	BUILDING	191	n/a	-1	n/a	n/a	n/a	n/a	n/a
3460.454	n/a	RECOG_CONF	1730227	n/a	LTP122	ltpFR	18	5	-1	BUILDING	191	5	-1	n/a	n/a	n/a	n/a	n/a
3462.25	n/a	RECOG_LURE	1731125	n/a	LTP122	ltpFR	18	5	n/a	VENUS	1557	5	n/a	n/a	n/a	n/a	n/a	n/a
3463.162	n/a	RECOG_RESP	1731581	n/a	LTP122	ltpFR	18	5	n/a	VENUS	1557	n/a	n/a	n/a	n/a	n/a	n/a	n/a
3463.726	n/a	RECOG_CONF	1731863	n/a	LTP122	ltpFR	18	5	n/a	VENUS	1557	5	n/a	n/a	n/a	n/a	n/a	n/a
3465.258	n/a	RECOG_TARGET	1732629	n/a	LTP122	ltpFR	18	5	-1	CASH	252	5	-1	n/a	n/a	n/a	n/a	n/a
3466.196	n/a	RECOG_RESP	1733098	n/a	LTP122	ltpFR	18	5	-1	CASH	252	n/a	-1	n/a	n/a	n/a	n/a	n/a
3466.97	n/a	RECOG_CONF	1733485	n/a	LTP122	ltpFR	18	5	-1	CASH	252	5	-1	n/a	n/a	n/a	n/a	n/a
3468.458	n/a	RECOG_TARGET	1734229	n/a	LTP122	ltpFR	18	5	0	VEHICLE	1553	5	1	n/a	n/a	n/a	n/a	n/a
3469.056	n/a	RECOG_RESP	1734528	n/a	LTP122	ltpFR	18	5	0	VEHICLE	1553	n/a	1	n/a	n/a	n/a	n/a	n/a
3469.774	n/a	RECOG_CONF	1734887	n/a	LTP122	ltpFR	18	5	0	VEHICLE	1553	5	1	n/a	n/a	n/a	n/a	n/a
3471.19	n/a	RECOG_TARGET	1735595	n/a	LTP122	ltpFR	18	5	1	TANGERINE	1431	5	0	n/a	n/a	n/a	n/a	n/a
3471.784	n/a	RECOG_RESP	1735892	n/a	LTP122	ltpFR	18	5	1	TANGERINE	1431	n/a	0	n/a	n/a	n/a	n/a	n/a
3472.418	n/a	RECOG_CONF	1736209	n/a	LTP122	ltpFR	18	5	1	TANGERINE	1431	5	0	n/a	n/a	n/a	n/a	n/a
3473.998	n/a	RECOG_TARGET	1736999	n/a	LTP122	ltpFR	18	5	0	SCREWDRIVER	1255	5	0	n/a	n/a	n/a	n/a	n/a
3474.568	n/a	RECOG_RESP	1737284	n/a	LTP122	ltpFR	18	5	0	SCREWDRIVER	1255	n/a	0	n/a	n/a	n/a	n/a	n/a
3475.372	n/a	RECOG_CONF	1737686	n/a	LTP122	ltpFR	18	5	0	SCREWDRIVER	1255	5	0	n/a	n/a	n/a	n/a	n/a
3476.754	n/a	RECOG_LURE	1738377	n/a	LTP122	ltpFR	18	5	n/a	OVEN	991	5	n/a	n/a	n/a	n/a	n/a	n/a
3477.522	n/a	RECOG_RESP	1738761	n/a	LTP122	ltpFR	18	5	n/a	OVEN	991	n/a	n/a	n/a	n/a	n/a	n/a	n/a
3478.254	n/a	RECOG_CONF	1739127	n/a	LTP122	ltpFR	18	5	n/a	OVEN	991	5	n/a	n/a	n/a	n/a	n/a	n/a
3479.762	n/a	RECOG_TARGET	1739881	n/a	LTP122	ltpFR	18	5	1	HERD	705	5	1	n/a	n/a	n/a	n/a	n/a
3480.4	n/a	RECOG_RESP	1740200	n/a	LTP122	ltpFR	18	5	1	HERD	705	n/a	1	n/a	n/a	n/a	n/a	n/a
3481.148	n/a	RECOG_CONF	1740574	n/a	LTP122	ltpFR	18	5	1	HERD	705	5	1	n/a	n/a	n/a	n/a	n/a
3482.602	n/a	RECOG_TARGET	1741301	n/a	LTP122	ltpFR	18	5	-1	HELMET	702	5	-1	n/a	n/a	n/a	n/a	n/a
3483.184	n/a	RECOG_RESP	1741592	n/a	LTP122	ltpFR	18	5	-1	HELMET	702	n/a	-1	n/a	n/a	n/a	n/a	n/a
3483.852	n/a	RECOG_CONF	1741926	n/a	LTP122	ltpFR	18	5	-1	HELMET	702	5	-1	n/a	n/a	n/a	n/a	n/a
3485.444	n/a	RECOG_TARGET	1742722	n/a	LTP122	ltpFR	18	5	0	SILK	1307	5	0	n/a	n/a	n/a	n/a	n/a
3486.002	n/a	RECOG_RESP	1743001	n/a	LTP122	ltpFR	18	5	0	SILK	1307	n/a	0	n/a	n/a	n/a	n/a	n/a
3486.716	n/a	RECOG_CONF	1743358	n/a	LTP122	ltpFR	18	5	0	SILK	1307	5	0	n/a	n/a	n/a	n/a	n/a
3488.26	n/a	RECOG_TARGET	1744130	n/a	LTP122	ltpFR	18	5	1	HOUSE	725	2	1	n/a	n/a	n/a	n/a	n/a
3492.578	n/a	RECOG_RESP	1746289	n/a	LTP122	ltpFR	18	5	1	HOUSE	725	n/a	1	n/a	n/a	n/a	n/a	n/a
3493.362	n/a	RECOG_CONF	1746681	n/a	LTP122	ltpFR	18	5	1	HOUSE	725	2	1	n/a	n/a	n/a	n/a	n/a
3494.858	n/a	RECOG_TARGET	1747429	n/a	LTP122	ltpFR	18	5	0	VITAMIN	1574	5	0	n/a	n/a	n/a	n/a	n/a
3495.612	n/a	RECOG_RESP	1747806	n/a	LTP122	ltpFR	18	5	0	VITAMIN	1574	n/a	0	n/a	n/a	n/a	n/a	n/a
3496.434	n/a	RECOG_CONF	1748217	n/a	LTP122	ltpFR	18	5	0	VITAMIN	1574	5	0	n/a	n/a	n/a	n/a	n/a
3513.232	n/a	REC_START	1756616	n/a	LTP122	ltpFR	18	6	n/a	n/a	n/a	n/a	n/a	n/a	n/a	n/a	n/a	n/a
3513.268	n/a	RECOG_LURE	1756634	n/a	LTP122	ltpFR	18	6	n/a	SPACE	1345	4	n/a	n/a	n/a	n/a	n/a	n/a
3514.324	n/a	RECOG_RESP	1757162	n/a	LTP122	ltpFR	18	6	n/a	SPACE	1345	n/a	n/a	n/a	n/a	n/a	n/a	n/a
3515.332	n/a	RECOG_CONF	1757666	n/a	LTP122	ltpFR	18	6	n/a	SPACE	1345	4	n/a	n/a	n/a	n/a	n/a	n/a
3516.876	n/a	RECOG_TARGET	1758438	n/a	LTP122	ltpFR	18	6	0	KING	777	5	1	n/a	n/a	n/a	n/a	n/a
3517.866	n/a	RECOG_RESP	1758933	n/a	LTP122	ltpFR	18	6	0	KING	777	n/a	1	n/a	n/a	n/a	n/a	n/a
3518.584	n/a	RECOG_CONF	1759292	n/a	LTP122	ltpFR	18	6	0	KING	777	5	1	n/a	n/a	n/a	n/a	n/a
3520.066	n/a	RECOG_TARGET	1760033	n/a	LTP122	ltpFR	18	6	1	CHIMPANZEE	302	5	1	n/a	n/a	n/a	n/a	n/a
3520.634	n/a	RECOG_RESP	1760317	n/a	LTP122	ltpFR	18	6	1	CHIMPANZEE	302	n/a	1	n/a	n/a	n/a	n/a	n/a
3521.378	n/a	RECOG_CONF	1760689	n/a	LTP122	ltpFR	18	6	1	CHIMPANZEE	302	5	1	n/a	n/a	n/a	n/a	n/a
3522.79	n/a	RECOG_TARGET	1761395	n/a	LTP122	ltpFR	18	6	1	PIGEON	1065	5	1	n/a	n/a	n/a	n/a	n/a
3523.364	n/a	RECOG_RESP	1761682	n/a	LTP122	ltpFR	18	6	1	PIGEON	1065	n/a	1	n/a	n/a	n/a	n/a	n/a
3524.092	n/a	RECOG_CONF	1762046	n/a	LTP122	ltpFR	18	6	1	PIGEON	1065	5	1	n/a	n/a	n/a	n/a	n/a
3525.524	n/a	RECOG_TARGET	1762762	n/a	LTP122	ltpFR	18	6	1	BUCKET	184	1	0	n/a	n/a	n/a	n/a	n/a
3530.268	n/a	RECOG_RESP	1765134	n/a	LTP122	ltpFR	18	6	1	BUCKET	184	n/a	0	n/a	n/a	n/a	n/a	n/a
3530.958	n/a	RECOG_CONF	1765479	n/a	LTP122	ltpFR	18	6	1	BUCKET	184	1	0	n/a	n/a	n/a	n/a	n/a
3532.464	n/a	RECOG_LURE	1766232	n/a	LTP122	ltpFR	18	6	n/a	AIRPORT	13	3	n/a	n/a	n/a	n/a	n/a	n/a
3534.504	n/a	RECOG_RESP	1767252	n/a	LTP122	ltpFR	18	6	n/a	AIRPORT	13	n/a	n/a	n/a	n/a	n/a	n/a	n/a
3535.218	n/a	RECOG_CONF	1767609	n/a	LTP122	ltpFR	18	6	n/a	AIRPORT	13	3	n/a	n/a	n/a	n/a	n/a	n/a
3536.712	n/a	RECOG_LURE	1768356	n/a	LTP122	ltpFR	18	6	n/a	WRIST	1626	4	n/a	n/a	n/a	n/a	n/a	n/a
3537.552	n/a	RECOG_RESP	1768776	n/a	LTP122	ltpFR	18	6	n/a	WRIST	1626	n/a	n/a	n/a	n/a	n/a	n/a	n/a
3538.22	n/a	RECOG_CONF	1769110	n/a	LTP122	ltpFR	18	6	n/a	WRIST	1626	4	n/a	n/a	n/a	n/a	n/a	n/a
3539.744	n/a	RECOG_TARGET	1769872	n/a	LTP122	ltpFR	18	6	1	PUDDLE	1140	5	0	n/a	n/a	n/a	n/a	n/a
3540.376	n/a	RECOG_RESP	1770188	n/a	LTP122	ltpFR	18	6	1	PUDDLE	1140	n/a	0	n/a	n/a	n/a	n/a	n/a
3541.124	n/a	RECOG_CONF	1770562	n/a	LTP122	ltpFR	18	6	1	PUDDLE	1140	5	0	n/a	n/a	n/a	n/a	n/a
3542.592	n/a	RECOG_LURE	1771296	n/a	LTP122	ltpFR	18	6	n/a	FENCE	560	2	n/a	n/a	n/a	n/a	n/a	n/a
