mstime	trial_type	stim_file	subject	experiment	session	trial	item_name	item_num	list	answer	test_x	test_y	test_z
0	SESS_START	n/a	LTP386	ltpFR2	22	n/a	n/a	n/a	n/a	n/a	0	0	0
13019	START	n/a	LTP386	ltpFR2	22	n/a	n/a	n/a	-1	n/a	n/a	n/a	n/a
13050	PROB	n/a	LTP386	ltpFR2	22	n/a	n/a	n/a	-1	16	5	2	9
14601	PROB	n/a	LTP386	ltpFR2	22	n/a	n/a	n/a	-1	13	1	4	8
15783	PROB	n/a	LTP386	ltpFR2	22	n/a	n/a	n/a	-1	17	8	3	6
17450	PROB	n/a	LTP386	ltpFR2	22	n/a	n/a	n/a	-1	10	4	5	1
18584	PROB	n/a	LTP386	ltpFR2	22	n/a	n/a	n/a	-1	10	3	6	1
19667	PROB	n/a	LTP386	ltpFR2	22	n/a	n/a	n/a	-1	17	4	7	6
21133	PROB	n/a	LTP386	ltpFR2	22	n/a	n/a	n/a	-1	13	4	5	4
22650	PROB	n/a	LTP386	ltpFR2	22	n/a	n/a	n/a	-1	17	7	3	7
23898	STOP	n/a	LTP386	ltpFR2	22	n/a	n/a	n/a	-1	n/a	n/a	n/a	n/a
55816	DISTRACTOR	n/a	LTP386	ltpFR2	22	1	n/a	n/a	n/a	n/a	0	0	0
55816	START	n/a	LTP386	ltpFR2	22	n/a	n/a	n/a	1	n/a	n/a	n/a	n/a
55833	PROB	n/a	LTP386	ltpFR2	22	n/a	n/a	n/a	1	12	3	7	2
57033	PROB	n/a	LTP386	ltpFR2	22	n/a	n/a	n/a	1	16	8	7	1
58517	PROB	n/a	LTP386	ltpFR2	22	n/a	n/a	n/a	1	12	4	3	5
59816	PROB	n/a	LTP386	ltpFR2	22	n/a	n/a	n/a	1	17	3	9	5
61149	PROB	n/a	LTP386	ltpFR2	22	n/a	n/a	n/a	1	14	4	6	4
62183	PROB	n/a	LTP386	ltpFR2	22	n/a	n/a	n/a	1	7	4	1	2
63783	PROB	n/a	LTP386	ltpFR2	22	n/a	n/a	n/a	1	21	6	8	7
65416	PROB	n/a	LTP386	ltpFR2	22	n/a	n/a	n/a	1	11	3	7	1
66999	PROB	n/a	LTP386	ltpFR2	22	n/a	n/a	n/a	1	6	1	1	4
68166	PROB	n/a	LTP386	ltpFR2	22	n/a	n/a	n/a	1	16	7	5	4
70249	PROB	n/a	LTP386	ltpFR2	22	n/a	n/a	n/a	1	18	5	4	9
71316	PROB	n/a	LTP386	ltpFR2	22	n/a	n/a	n/a	1	15	7	4	4
72534	PROB	n/a	LTP386	ltpFR2	22	n/a	n/a	n/a	1	17	1	9	7
73550	PROB	n/a	LTP386	ltpFR2	22	n/a	n/a	n/a	1	11	5	4	2
76033	PROB	n/a	LTP386	ltpFR2	22	n/a	n/a	n/a	1	13	5	2	6
77466	PROB	n/a	LTP386	ltpFR2	22	n/a	n/a	n/a	1	21	7	7	7
78467	STOP	n/a	LTP386	ltpFR2	22	n/a	n/a	n/a	1	n/a	n/a	n/a	n/a
80916	WORD	wordpools/wasnorm_wordpool_576.txt	LTP386	ltpFR2	22	1	JAPAN	749	n/a	n/a	0	0	0
83466	WORD	wordpools/wasnorm_wordpool_576.txt	LTP386	ltpFR2	22	1	NAPKIN	937	n/a	n/a	0	0	0
86149	WORD	wordpools/wasnorm_wordpool_576.txt	LTP386	ltpFR2	22	1	PLUTO	1092	n/a	n/a	0	0	0
88782	WORD	wordpools/wasnorm_wordpool_576.txt	LTP386	ltpFR2	22	1	LEG	809	n/a	n/a	0	0	0
91517	WORD	wordpools/wasnorm_wordpool_576.txt	LTP386	ltpFR2	22	1	LAVA	804	n/a	n/a	0	0	0
93949	WORD	wordpools/wasnorm_wordpool_576.txt	LTP386	ltpFR2	22	1	ATLAS	53	n/a	n/a	0	0	0
96666	WORD	wordpools/wasnorm_wordpool_576.txt	LTP386	ltpFR2	22	1	CHAMPAGNE	278	n/a	n/a	0	0	0
99249	WORD	wordpools/wasnorm_wordpool_576.txt	LTP386	ltpFR2	22	1	EMPIRE	530	n/a	n/a	0	0	0
101999	WORD	wordpools/wasnorm_wordpool_576.txt	LTP386	ltpFR2	22	1	TABLE	1426	n/a	n/a	0	0	0
104583	WORD	wordpools/wasnorm_wordpool_576.txt	LTP386	ltpFR2	22	1	BUREAU	199	n/a	n/a	0	0	0
107365	WORD	wordpools/wasnorm_wordpool_576.txt	LTP386	ltpFR2	22	1	FOOT	590	n/a	n/a	0	0	0
110165	WORD	wordpools/wasnorm_wordpool_576.txt	LTP386	ltpFR2	22	1	MARS	873	n/a	n/a	0	0	0
112616	WORD	wordpools/wasnorm_wordpool_576.txt	LTP386	ltpFR2	22	1	SANDWICH	1232	n/a	n/a	0	0	0
115199	WORD	wordpools/wasnorm_wordpool_576.txt	LTP386	ltpFR2	22	1	COCKTAIL	338	n/a	n/a	0	0	0
117865	WORD	wordpools/wasnorm_wordpool_576.txt	LTP386	ltpFR2	22	1	CRUTCH	417	n/a	n/a	0	0	0
120349	WORD	wordpools/wasnorm_wordpool_576.txt	LTP386	ltpFR2	22	1	REPORT	1184	n/a	n/a	0	0	0
122832	WORD	wordpools/wasnorm_wordpool_576.txt	LTP386	ltpFR2	22	1	PAPER	1011	n/a	n/a	0	0	0
125349	WORD	wordpools/wasnorm_wordpool_576.txt	LTP386	ltpFR2	22	1	ANKLE	24	n/a	n/a	0	0	0
128082	WORD	wordpools/wasnorm_wordpool_576.txt	LTP386	ltpFR2	22	1	INMATE	738	n/a	n/a	0	0	0
130732	WORD	wordpools/wasnorm_wordpool_576.txt	LTP386	ltpFR2	22	1	ACTOR	5	n/a	n/a	0	0	0
133265	WORD	wordpools/wasnorm_wordpool_576.txt	LTP386	ltpFR2	22	1	CROWN	415	n/a	n/a	0	0	0
136032	WORD	wordpools/wasnorm_wordpool_576.txt	LTP386	ltpFR2	22	1	PRINCESS	1125	n/a	n/a	0	0	0
138815	WORD	wordpools/wasnorm_wordpool_576.txt	LTP386	ltpFR2	22	1	SUITCASE	1403	n/a	n/a	0	0	0
141332	WORD	wordpools/wasnorm_wordpool_576.txt	LTP386	ltpFR2	22	1	PASTRY	1022	n/a	n/a	0	0	0
142948	START	n/a	LTP386	ltpFR2	22	n/a	n/a	n/a	2	n/a	n/a	n/a	n/a
144060	DISTRACTOR	n/a	LTP386	ltpFR2	22	1	n/a	n/a	n/a	n/a	0	0	0
144065	PROB	n/a	LTP386	ltpFR2	22	n/a	n/a	n/a	2	8	1	1	6
145232	PROB	n/a	LTP386	ltpFR2	22	n/a	n/a	n/a	2	8	3	2	3
146599	PROB	n/a	LTP386	ltpFR2	22	n/a	n/a	n/a	2	13	3	8	2
147798	PROB	n/a	LTP386	ltpFR2	22	n/a	n/a	n/a	2	4	2	1	1
148698	PROB	n/a	LTP386	ltpFR2	22	n/a	n/a	n/a	2	20	8	6	6
149882	PROB	n/a	LTP386	ltpFR2	22	n/a	n/a	n/a	2	23	7	7	9
151365	PROB	n/a	LTP386	ltpFR2	22	n/a	n/a	n/a	2	21	7	5	7
153331	PROB	n/a	LTP386	ltpFR2	22	n/a	n/a	n/a	2	15	8	3	4
155015	PROB	n/a	LTP386	ltpFR2	22	n/a	n/a	n/a	2	21	5	9	7
156599	PROB	n/a	LTP386	ltpFR2	22	n/a	n/a	n/a	2	16	8	4	4
157648	PROB	n/a	LTP386	ltpFR2	22	n/a	n/a	n/a	2	6	3	1	2
158798	PROB	n/a	LTP386	ltpFR2	22	n/a	n/a	n/a	2	9	4	1	4
160031	PROB	n/a	LTP386	ltpFR2	22	n/a	n/a	n/a	2	19	6	9	4
161131	PROB	n/a	LTP386	ltpFR2	22	n/a	n/a	n/a	2	19	8	3	8
163115	PROB	n/a	LTP386	ltpFR2	22	n/a	n/a	n/a	2	18	8	2	8
164499	PROB	n/a	LTP386	ltpFR2	22	n/a	n/a	n/a	2	10	3	5	2
165854	STOP	n/a	LTP386	ltpFR2	22	n/a	n/a	n/a	2	n/a	n/a	n/a	n/a
168866	REC_START	n/a	LTP386	ltpFR2	22	1	n/a	n/a	n/a	n/a	0	0	0
172802	REC_WORD	wordpools/wasnorm_wordpool_576.txt	LTP386	ltpFR2	22	1	ATLAS	53	n/a	n/a	0	0	0
173545	REC_WORD	wordpools/wasnorm_wordpool_576.txt	LTP386	ltpFR2	22	1	JAPAN	749	n/a	n/a	0	0	0
174494	REC_WORD	wordpools/wasnorm_wordpool_576.txt	LTP386	ltpFR2	22	1	PLUTO	1092	n/a	n/a	0	0	0
175280	REC_WORD	wordpools/wasnorm_wordpool_576.txt	LTP386	ltpFR2	22	1	MARS	873	n/a	n/a	0	0	0
176285	REC_WORD	wordpools/wasnorm_wordpool_576.txt	LTP386	ltpFR2	22	1	LAVA	804	n/a	n/a	0	0	0
177034	REC_WORD	wordpools/wasnorm_wordpool_576.txt	LTP386	ltpFR2	22	1	COCKTAIL	338	n/a	n/a	0	0	0
177782	REC_WORD	wordpools/wasnorm_wordpool_576.txt	LTP386	ltpFR2	22	1	SANDWICH	1232	n/a	n/a	0	0	0
178989	REC_WORD	wordpools/wasnorm_wordpool_576.txt	LTP386	ltpFR2	22	1	SUITCASE	1403	n/a	n/a	0	0	0
183519	REC_WORD	wordpools/wasnorm_wordpool_576.txt	LTP386	ltpFR2	22	1	INMATE	738	n/a	n/a	0	0	0
191827	REC_WORD	wordpools/wasnorm_wordpool_576.txt	LTP386	ltpFR2	22	1	CROWN	415	n/a	n/a	0	0	0
192841	REC_WORD	wordpools/wasnorm_wordpool_576.txt	LTP386	ltpFR2	22	1	PRINCESS	1125	n/a	n/a	0	0	0
259297	DISTRACTOR	n/a	LTP386	ltpFR2	22	2	n/a	n/a	n/a	n/a	0	0	0
259297	START	n/a	LTP386	ltpFR2	22	n/a	n/a	n/a	3	n/a	n/a	n/a	n/a
259313	PROB	n/a	LTP386	ltpFR2	22	n/a	n/a	n/a	3	15	4	3	8
261063	PROB	n/a	LTP386	ltpFR2	22	n/a	n/a	n/a	3	8	2	1	5
262113	PROB	n/a	LTP386	ltpFR2	22	n/a	n/a	n/a	3	14	6	2	6
263346	PROB	n/a	LTP386	ltpFR2	22	n/a	n/a	n/a	3	10	4	3	3
264363	PROB	n/a	LTP386	ltpFR2	22	n/a	n/a	n/a	3	22	9	5	8
267463	PROB	n/a	LTP386	ltpFR2	22	n/a	n/a	n/a	3	24	6	9	9
270063	PROB	n/a	LTP386	ltpFR2	22	n/a	n/a	n/a	3	11	7	2	2
271146	PROB	n/a	LTP386	ltpFR2	22	n/a	n/a	n/a	3	1	6	1	9
272396	PROB	n/a	LTP386	ltpFR2	22	n/a	n/a	n/a	3	20	2	9	9
275113	PROB	n/a	LTP386	ltpFR2	22	n/a	n/a	n/a	3	6	1	4	1
276713	PROB	n/a	LTP386	ltpFR2	22	n/a	n/a	n/a	3	20	9	9	2
277996	PROB	n/a	LTP386	ltpFR2	22	n/a	n/a	n/a	3	10	2	2	6
279396	PROB	n/a	LTP386	ltpFR2	22	n/a	n/a	n/a	3	8	2	5	1
280581	PROB	n/a	LTP386	ltpFR2	22	n/a	n/a	n/a	3	19	7	8	4
281994	STOP	n/a	LTP386	ltpFR2	22	n/a	n/a	n/a	3	n/a	n/a	n/a	n/a
284363	WORD	wordpools/wasnorm_wordpool_576.txt	LTP386	ltpFR2	22	2	TORTOISE	1486	n/a	n/a	0	0	0
287096	WORD	wordpools/wasnorm_wordpool_576.txt	LTP386	ltpFR2	22	2	TURTLE	1522	n/a	n/a	0	0	0
289679	WORD	wordpools/wasnorm_wordpool_576.txt	LTP386	ltpFR2	22	2	MARKER	870	n/a	n/a	0	0	0
292396	WORD	wordpools/wasnorm_wordpool_576.txt	LTP386	ltpFR2	22	2	WORKER	1621	n/a	n/a	0	0	0
295029	WORD	wordpools/wasnorm_wordpool_576.txt	LTP386	ltpFR2	22	2	RECEIPT	1173	n/a	n/a	0	0	0
297679	WORD	wordpools/wasnorm_wordpool_576.txt	LTP386	ltpFR2	22	2	HAND	683	n/a	n/a	0	0	0
300229	WORD	wordpools/wasnorm_wordpool_576.txt	LTP386	ltpFR2	22	2	CANDY	230	n/a	n/a	0	0	0
303029	WORD	wordpools/wasnorm_wordpool_576.txt	LTP386	ltpFR2	22	2	BOX	159	n/a	n/a	0	0	0
305597	WORD	wordpools/wasnorm_wordpool_576.txt	LTP386	ltpFR2	22	2	MISTER	901	n/a	n/a	0	0	0
308063	WORD	wordpools/wasnorm_wordpool_576.txt	LTP386	ltpFR2	22	2	PENGUIN	1044	n/a	n/a	0	0	0
310779	WORD	wordpools/wasnorm_wordpool_576.txt	LTP386	ltpFR2	22	2	FRIEND	606	n/a	n/a	0	0	0
313262	WORD	wordpools/wasnorm_wordpool_576.txt	LTP386	ltpFR2	22	2	SCARECROW	1245	n/a	n/a	0	0	0
315896	WORD	wordpools/wasnorm_wordpool_576.txt	LTP386	ltpFR2	22	2	BARLEY	88	n/a	n/a	0	0	0
318446	WORD	wordpools/wasnorm_wordpool_576.txt	LTP386	ltpFR2	22	2	KETCHUP	771	n/a	n/a	0	0	0
320979	WORD	wordpools/wasnorm_wordpool_576.txt	LTP386	ltpFR2	22	2	STREAM	1392	n/a	n/a	0	0	0
323496	WORD	wordpools/wasnorm_wordpool_576.txt	LTP386	ltpFR2	22	2	WRIST	1626	n/a	n/a	0	0	0
325996	WORD	wordpools/wasnorm_wordpool_576.txt	LTP386	ltpFR2	22	2	AGENT	10	n/a	n/a	0	0	0
328630	WORD	wordpools/wasnorm_wordpool_576.txt	LTP386	ltpFR2	22	2	GLOVE	642	n/a	n/a	0	0	0
331379	WORD	wordpools/wasnorm_wordpool_576.txt	LTP386	ltpFR2	22	2	JOURNAL	760	n/a	n/a	0	0	0
334062	WORD	wordpools/wasnorm_wordpool_576.txt	LTP386	ltpFR2	22	2	BEAVER	109	n/a	n/a	0	0	0
336530	WORD	wordpools/wasnorm_wordpool_576.txt	LTP386	ltpFR2	22	2	GANGSTER	620	n/a	n/a	0	0	0
339229	WORD	wordpools/wasnorm_wordpool_576.txt	LTP386	ltpFR2	22	2	STAMP	1370	n/a	n/a	0	0	0
341945	WORD	wordpools/wasnorm_wordpool_576.txt	LTP386	ltpFR2	22	2	SLOPE	1328	n/a	n/a	0	0	0
344596	WORD	wordpools/wasnorm_wordpool_576.txt	LTP386	ltpFR2	22	2	LADY	794	n/a	n/a	0	0	0
346212	START	n/a	LTP386	ltpFR2	22	n/a	n/a	n/a	4	n/a	n/a	n/a	n/a
347281	DISTRACTOR	n/a	LTP386	ltpFR2	22	2	n/a	n/a	n/a	n/a	0	0	0
347295	PROB	n/a	LTP386	ltpFR2	22	n/a	n/a	n/a	4	12	4	1	7
348445	PROB	n/a	LTP386	ltpFR2	22	n/a	n/a	n/a	4	17	7	1	9
349745	PROB	n/a	LTP386	ltpFR2	22	n/a	n/a	n/a	4	8	5	1	2
350845	PROB	n/a	LTP386	ltpFR2	22	n/a	n/a	n/a	4	11	5	5	1
351879	PROB	n/a	LTP386	ltpFR2	22	n/a	n/a	n/a	4	17	8	5	4
353312	PROB	n/a	LTP386	ltpFR2	22	n/a	n/a	n/a	4	11	1	9	1
354862	PROB	n/a	LTP386	ltpFR2	22	n/a	n/a	n/a	4	10	1	1	8
355878	PROB	n/a	LTP386	ltpFR2	22	n/a	n/a	n/a	4	19	7	8	4
358078	PROB	n/a	LTP386	ltpFR2	22	n/a	n/a	n/a	4	13	4	2	7
359312	PROB	n/a	LTP386	ltpFR2	22	n/a	n/a	n/a	4	18	9	7	3
360312	PROB	n/a	LTP386	ltpFR2	22	n/a	n/a	n/a	4	11	5	5	1
361345	PROB	n/a	LTP386	ltpFR2	22	n/a	n/a	n/a	4	11	6	3	2
362912	PROB	n/a	LTP386	ltpFR2	22	n/a	n/a	n/a	4	19	8	5	6
364178	PROB	n/a	LTP386	ltpFR2	22	n/a	n/a	n/a	4	15	8	3	4
365795	PROB	n/a	LTP386	ltpFR2	22	n/a	n/a	n/a	4	10	3	1	6
366962	PROB	n/a	LTP386	ltpFR2	22	n/a	n/a	n/a	4	16	5	6	5
368462	PROB	n/a	LTP386	ltpFR2	22	n/a	n/a	n/a	4	10	4	1	5
369614	STOP	n/a	LTP386	ltpFR2	22	n/a	n/a	n/a	4	n/a	n/a	n/a	n/a
372129	REC_START	n/a	LTP386	ltpFR2	22	2	n/a	n/a	n/a	n/a	0	0	0
373603	REC_WORD	wordpools/wasnorm_wordpool_576.txt	LTP386	ltpFR2	22	2	TURTLE	1522	n/a	n/a	0	0	0
374193	REC_WORD	wordpools/wasnorm_wordpool_576.txt	LTP386	ltpFR2	22	2	TORTOISE	1486	n/a	n/a	0	0	0
375442	REC_WORD	wordpools/wasnorm_wordpool_576.txt	LTP386	ltpFR2	22	2	BEAVER	109	n/a	n/a	0	0	0
377941	REC_WORD	wordpools/wasnorm_wordpool_576.txt	LTP386	ltpFR2	22	2	JOURNAL	760	n/a	n/a	0	0	0
379430	REC_WORD_VV	wordpools/wasnorm_wordpool_576.txt	LTP386	ltpFR2	22	2	<>	-1	n/a	n/a	0	0	0
392427	REC_WORD	wordpools/wasnorm_wordpool_576.txt	LTP386	ltpFR2	22	2	LADY	794	n/a	n/a	0	0	0
462561	DISTRACTOR	n/a	LTP386	ltpFR2	22	3	n/a	n/a	n/a	n/a	0	0	0
462562	START	n/a	LTP386	ltpFR2	22	n/a	n/a	n/a	5	n/a	n/a	n/a	n/a
462578	PROB	n/a	LTP386	ltpFR2	22	n/a	n/a	n/a	5	11	8	1	2
463977	PROB	n/a	LTP386	ltpFR2	22	n/a	n/a	n/a	5	17	8	3	6
466177	PROB	n/a	LTP386	ltpFR2	22	n/a	n/a	n/a	5	14	6	7	1
468927	PROB	n/a	LTP386	ltpFR2	22	n/a	n/a	n/a	5	11	1	3	7
470460	PROB	n/a	LTP386	ltpFR2	22	n/a	n/a	n/a	5	20	8	6	6
472227	PROB	n/a	LTP386	ltpFR2	22	n/a	n/a	n/a	5	15	7	5	3
473343	PROB	n/a	LTP386	ltpFR2	22	n/a	n/a	n/a	5	12	2	2	8
474960	PROB	n/a	LTP386	ltpFR2	22	n/a	n/a	n/a	5	14	4	5	5
476227	PROB	n/a	LTP386	ltpFR2	22	n/a	n/a	n/a	5	20	6	9	5
477793	PROB	n/a	LTP386	ltpFR2	22	n/a	n/a	n/a	5	16	7	8	1
479127	PROB	n/a	LTP386	ltpFR2	22	n/a	n/a	n/a	5	26	7	9	8
481260	PROB	n/a	LTP386	ltpFR2	22	n/a	n/a	n/a	5	20	7	6	7
483377	PROB	n/a	LTP386	ltpFR2	22	n/a	n/a	n/a	5	18	8	9	1
484578	PROB	n/a	LTP386	ltpFR2	22	n/a	n/a	n/a	5	22	6	7	9
486208	STOP	n/a	LTP386	ltpFR2	22	n/a	n/a	n/a	5	n/a	n/a	n/a	n/a
487544	WORD	wordpools/wasnorm_wordpool_576.txt	LTP386	ltpFR2	22	3	IDOL	733	n/a	n/a	0	0	0
490310	WORD	wordpools/wasnorm_wordpool_576.txt	LTP386	ltpFR2	22	3	STAPLE	1371	n/a	n/a	0	0	0
492860	WORD	wordpools/wasnorm_wordpool_576.txt	LTP386	ltpFR2	22	3	CABIN	211	n/a	n/a	0	0	0
495376	WORD	wordpools/wasnorm_wordpool_576.txt	LTP386	ltpFR2	22	3	GAZELLE	628	n/a	n/a	0	0	0
497976	WORD	wordpools/wasnorm_wordpool_576.txt	LTP386	ltpFR2	22	3	CELLAR	267	n/a	n/a	0	0	0
500527	WORD	wordpools/wasnorm_wordpool_576.txt	LTP386	ltpFR2	22	3	BELLY	119	n/a	n/a	0	0	0
503276	WORD	wordpools/wasnorm_wordpool_576.txt	LTP386	ltpFR2	22	3	CAFE	216	n/a	n/a	0	0	0
505776	WORD	wordpools/wasnorm_wordpool_576.txt	LTP386	ltpFR2	22	3	PREACHER	1119	n/a	n/a	0	0	0
508577	WORD	wordpools/wasnorm_wordpool_576.txt	LTP386	ltpFR2	22	3	CLIMBER	323	n/a	n/a	0	0	0
511143	WORD	wordpools/wasnorm_wordpool_576.txt	LTP386	ltpFR2	22	3	OINTMENT	974	n/a	n/a	0	0	0
513660	WORD	wordpools/wasnorm_wordpool_576.txt	LTP386	ltpFR2	22	3	TURNIP	1521	n/a	n/a	0	0	0
516126	WORD	wordpools/wasnorm_wordpool_576.txt	LTP386	ltpFR2	22	3	CABBAGE	210	n/a	n/a	0	0	0
518643	WORD	wordpools/wasnorm_wordpool_576.txt	LTP386	ltpFR2	22	3	MARSH	874	n/a	n/a	0	0	0
521393	WORD	wordpools/wasnorm_wordpool_576.txt	LTP386	ltpFR2	22	3	BINDER	127	n/a	n/a	0	0	0
523876	WORD	wordpools/wasnorm_wordpool_576.txt	LTP386	ltpFR2	22	3	TOMBSTONE	1478	n/a	n/a	0	0	0
526393	WORD	wordpools/wasnorm_wordpool_576.txt	LTP386	ltpFR2	22	3	CASKET	255	n/a	n/a	0	0	0
528943	WORD	wordpools/wasnorm_wordpool_576.txt	LTP386	ltpFR2	22	3	COUCH	386	n/a	n/a	0	0	0
531544	WORD	wordpools/wasnorm_wordpool_576.txt	LTP386	ltpFR2	22	3	RIFLE	1192	n/a	n/a	0	0	0
534259	WORD	wordpools/wasnorm_wordpool_576.txt	LTP386	ltpFR2	22	3	RUG	1215	n/a	n/a	0	0	0
536943	WORD	wordpools/wasnorm_wordpool_576.txt	LTP386	ltpFR2	22	3	TYPIST	1532	n/a	n/a	0	0	0
539459	WORD	wordpools/wasnorm_wordpool_576.txt	LTP386	ltpFR2	22	3	UMPIRE	1535	n/a	n/a	0	0	0
542009	WORD	wordpools/wasnorm_wordpool_576.txt	LTP386	ltpFR2	22	3	SPONGE	1355	n/a	n/a	0	0	0
544792	WORD	wordpools/wasnorm_wordpool_576.txt	LTP386	ltpFR2	22	3	MOP	916	n/a	n/a	0	0	0
547326	WORD	wordpools/wasnorm_wordpool_576.txt	LTP386	ltpFR2	22	3	PUDDLE	1140	n/a	n/a	0	0	0
548942	START	n/a	LTP386	ltpFR2	22	n/a	n/a	n/a	6	n/a	n/a	n/a	n/a
549888	DISTRACTOR	n/a	LTP386	ltpFR2	22	3	n/a	n/a	n/a	n/a	0	0	0
549892	PROB	n/a	LTP386	ltpFR2	22	n/a	n/a	n/a	6	17	7	3	7
551409	PROB	n/a	LTP386	ltpFR2	22	n/a	n/a	n/a	6	21	8	4	9
553142	PROB	n/a	LTP386	ltpFR2	22	n/a	n/a	n/a	6	22	4	9	9
555510	PROB	n/a	LTP386	ltpFR2	22	n/a	n/a	n/a	6	18	9	5	4
556859	PROB	n/a	LTP386	ltpFR2	22	n/a	n/a	n/a	6	15	4	8	3
557926	PROB	n/a	LTP386	ltpFR2	22	n/a	n/a	n/a	6	11	2	4	5
559059	PROB	n/a	LTP386	ltpFR2	22	n/a	n/a	n/a	6	13	2	6	5
560192	PROB	n/a	LTP386	ltpFR2	22	n/a	n/a	n/a	6	7	4	1	2
561526	PROB	n/a	LTP386	ltpFR2	22	n/a	n/a	n/a	6	16	6	6	4
562992	PROB	n/a	LTP386	ltpFR2	22	n/a	n/a	n/a	6	13	3	4	6
564175	PROB	n/a	LTP386	ltpFR2	22	n/a	n/a	n/a	6	14	8	3	3
565459	PROB	n/a	LTP386	ltpFR2	22	n/a	n/a	n/a	6	17	6	8	3
567659	PROB	n/a	LTP386	ltpFR2	22	n/a	n/a	n/a	6	11	7	1	3
568610	PROB	n/a	LTP386	ltpFR2	22	n/a	n/a	n/a	6	11	2	6	3
570225	PROB	n/a	LTP386	ltpFR2	22	n/a	n/a	n/a	6	19	5	9	5
571475	STOP	n/a	LTP386	ltpFR2	22	n/a	n/a	n/a	6	n/a	n/a	n/a	n/a
574892	REC_START	n/a	LTP386	ltpFR2	22	3	n/a	n/a	n/a	n/a	0	0	0
575435	REC_WORD	wordpools/wasnorm_wordpool_576.txt	LTP386	ltpFR2	22	3	CABIN	211	n/a	n/a	0	0	0
576406	REC_WORD	wordpools/wasnorm_wordpool_576.txt	LTP386	ltpFR2	22	3	CELLAR	267	n/a	n/a	0	0	0
577494	REC_WORD	wordpools/wasnorm_wordpool_576.txt	LTP386	ltpFR2	22	3	GAZELLE	628	n/a	n/a	0	0	0
578835	REC_WORD	wordpools/wasnorm_wordpool_576.txt	LTP386	ltpFR2	22	3	COUCH	386	n/a	n/a	0	0	0
579947	REC_WORD	wordpools/wasnorm_wordpool_576.txt	LTP386	ltpFR2	22	3	RUG	1215	n/a	n/a	0	0	0
581029	REC_WORD	wordpools/wasnorm_wordpool_576.txt	LTP386	ltpFR2	22	3	RIFLE	1192	n/a	n/a	0	0	0
582096	REC_WORD	wordpools/wasnorm_wordpool_576.txt	LTP386	ltpFR2	22	3	TYPIST	1532	n/a	n/a	0	0	0
588658	REC_WORD	wordpools/wasnorm_wordpool_576.txt	LTP386	ltpFR2	22	3	UMPIRE	1535	n/a	n/a	0	0	0
665341	DISTRACTOR	n/a	LTP386	ltpFR2	22	4	n/a	n/a	n/a	n/a	0	0	0
665341	START	n/a	LTP386	ltpFR2	22	n/a	n/a	n/a	7	n/a	n/a	n/a	n/a
665357	PROB	n/a	LTP386	ltpFR2	22	n/a	n/a	n/a	7	7	4	3	2
667124	PROB	n/a	LTP386	ltpFR2	22	n/a	n/a	n/a	7	15	3	6	6
668407	PROB	n/a	LTP386	ltpFR2	22	n/a	n/a	n/a	7	16	5	8	3
670290	PROB	n/a	LTP386	ltpFR2	22	n/a	n/a	n/a	7	15	3	5	7
671657	PROB	n/a	LTP386	ltpFR2	22	n/a	n/a	n/a	7	18	2	9	7
673007	PROB	n/a	LTP386	ltpFR2	22	n/a	n/a	n/a	7	14	8	1	5
674240	PROB	n/a	LTP386	ltpFR2	22	n/a	n/a	n/a	7	14	7	2	5
676591	PROB	n/a	LTP386	ltpFR2	22	n/a	n/a	n/a	7	11	2	7	2
677740	PROB	n/a	LTP386	ltpFR2	22	n/a	n/a	n/a	7	15	6	4	5
679440	PROB	n/a	LTP386	ltpFR2	22	n/a	n/a	n/a	7	121	9	5	7
680724	PROB	n/a	LTP386	ltpFR2	22	n/a	n/a	n/a	7	10	5	4	1
683340	PROB	n/a	LTP386	ltpFR2	22	n/a	n/a	n/a	7	17	7	7	3
684440	PROB	n/a	LTP386	ltpFR2	22	n/a	n/a	n/a	7	11	6	2	3
685608	PROB	n/a	LTP386	ltpFR2	22	n/a	n/a	n/a	7	17	5	3	9
687057	PROB	n/a	LTP386	ltpFR2	22	n/a	n/a	n/a	7	20	8	7	5
688583	STOP	n/a	LTP386	ltpFR2	22	n/a	n/a	n/a	7	n/a	n/a	n/a	n/a
690324	WORD	wordpools/wasnorm_wordpool_576.txt	LTP386	ltpFR2	22	4	DOUGHNUT	490	n/a	n/a	0	0	0
692840	WORD	wordpools/wasnorm_wordpool_576.txt	LTP386	ltpFR2	22	4	SUBWAY	1400	n/a	n/a	0	0	0
695558	WORD	wordpools/wasnorm_wordpool_576.txt	LTP386	ltpFR2	22	4	BRANDY	169	n/a	n/a	0	0	0
698023	WORD	wordpools/wasnorm_wordpool_576.txt	LTP386	ltpFR2	22	4	WHISTLE	1606	n/a	n/a	0	0	0
700524	WORD	wordpools/wasnorm_wordpool_576.txt	LTP386	ltpFR2	22	4	RAFT	1159	n/a	n/a	0	0	0
703340	WORD	wordpools/wasnorm_wordpool_576.txt	LTP386	ltpFR2	22	4	RELISH	1183	n/a	n/a	0	0	0
706040	WORD	wordpools/wasnorm_wordpool_576.txt	LTP386	ltpFR2	22	4	MUSTARD	935	n/a	n/a	0	0	0
708757	WORD	wordpools/wasnorm_wordpool_576.txt	LTP386	ltpFR2	22	4	HOOK	715	n/a	n/a	0	0	0
711307	WORD	wordpools/wasnorm_wordpool_576.txt	LTP386	ltpFR2	22	4	FLIPPER	580	n/a	n/a	0	0	0
714073	WORD	wordpools/wasnorm_wordpool_576.txt	LTP386	ltpFR2	22	4	GREASE	660	n/a	n/a	0	0	0
716906	WORD	wordpools/wasnorm_wordpool_576.txt	LTP386	ltpFR2	22	4	WAITER	1580	n/a	n/a	0	0	0
719406	WORD	wordpools/wasnorm_wordpool_576.txt	LTP386	ltpFR2	22	4	ULCER	1533	n/a	n/a	0	0	0
721890	WORD	wordpools/wasnorm_wordpool_576.txt	LTP386	ltpFR2	22	4	BRICK	172	n/a	n/a	0	0	0
724624	WORD	wordpools/wasnorm_wordpool_576.txt	LTP386	ltpFR2	22	4	SWITCH	1422	n/a	n/a	0	0	0
727323	WORD	wordpools/wasnorm_wordpool_576.txt	LTP386	ltpFR2	22	4	MOTOR	922	n/a	n/a	0	0	0
729990	WORD	wordpools/wasnorm_wordpool_576.txt	LTP386	ltpFR2	22	4	TROMBONE	1508	n/a	n/a	0	0	0
732790	WORD	wordpools/wasnorm_wordpool_576.txt	LTP386	ltpFR2	22	4	CHAPEL	280	n/a	n/a	0	0	0
735356	WORD	wordpools/wasnorm_wordpool_576.txt	LTP386	ltpFR2	22	4	CHURCH	307	n/a	n/a	0	0	0
737889	WORD	wordpools/wasnorm_wordpool_576.txt	LTP386	ltpFR2	22	4	WIFE	1609	n/a	n/a	0	0	0
740473	WORD	wordpools/wasnorm_wordpool_576.txt	LTP386	ltpFR2	22	4	SKETCH	1315	n/a	n/a	0	0	0
743223	WORD	wordpools/wasnorm_wordpool_576.txt	LTP386	ltpFR2	22	4	VALVE	1546	n/a	n/a	0	0	0
745806	WORD	wordpools/wasnorm_wordpool_576.txt	LTP386	ltpFR2	22	4	CONCERT	360	n/a	n/a	0	0	0
748289	WORD	wordpools/wasnorm_wordpool_576.txt	LTP386	ltpFR2	22	4	HIGHWAY	707	n/a	n/a	0	0	0
750839	WORD	wordpools/wasnorm_wordpool_576.txt	LTP386	ltpFR2	22	4	GIFT	635	n/a	n/a	0	0	0
752456	START	n/a	LTP386	ltpFR2	22	n/a	n/a	n/a	8	n/a	n/a	n/a	n/a
753542	DISTRACTOR	n/a	LTP386	ltpFR2	22	4	n/a	n/a	n/a	n/a	0	0	0
753557	PROB	n/a	LTP386	ltpFR2	22	n/a	n/a	n/a	8	14	1	8	5
755073	PROB	n/a	LTP386	ltpFR2	22	n/a	n/a	n/a	8	7	2	3	2
757422	PROB	n/a	LTP386	ltpFR2	22	n/a	n/a	n/a	8	19	4	8	7
759073	PROB	n/a	LTP386	ltpFR2	22	n/a	n/a	n/a	8	13	8	1	4
760306	PROB	n/a	LTP386	ltpFR2	22	n/a	n/a	n/a	8	20	5	8	7
762972	PROB	n/a	LTP386	ltpFR2	22	n/a	n/a	n/a	8	20	9	9	2
764406	PROB	n/a	LTP386	ltpFR2	22	n/a	n/a	n/a	8	25	8	9	7
765972	PROB	n/a	LTP386	ltpFR2	22	n/a	n/a	n/a	8	9	7	1	1
766989	PROB	n/a	LTP386	ltpFR2	22	n/a	n/a	n/a	8	11	4	4	3
768356	PROB	n/a	LTP386	ltpFR2	22	n/a	n/a	n/a	8	10	1	4	5
769472	PROB	n/a	LTP386	ltpFR2	22	n/a	n/a	n/a	8	16	5	2	9
770939	PROB	n/a	LTP386	ltpFR2	22	n/a	n/a	n/a	8	21	3	9	8
773956	PROB	n/a	LTP386	ltpFR2	22	n/a	n/a	n/a	8	17	8	5	4
775809	STOP	n/a	LTP386	ltpFR2	22	n/a	n/a	n/a	8	n/a	n/a	n/a	n/a
778323	REC_START	n/a	LTP386	ltpFR2	22	4	n/a	n/a	n/a	n/a	0	0	0
779355	REC_WORD	wordpools/wasnorm_wordpool_576.txt	LTP386	ltpFR2	22	4	CHAPEL	280	n/a	n/a	0	0	0
780023	REC_WORD	wordpools/wasnorm_wordpool_576.txt	LTP386	ltpFR2	22	4	CHURCH	307	n/a	n/a	0	0	0
781213	REC_WORD	wordpools/wasnorm_wordpool_576.txt	LTP386	ltpFR2	22	4	TOMBSTONE	1478	n/a	n/a	0	0	0
782561	REC_WORD	wordpools/wasnorm_wordpool_576.txt	LTP386	ltpFR2	22	4	WIFE	1609	n/a	n/a	0	0	0
785155	REC_WORD	wordpools/wasnorm_wordpool_576.txt	LTP386	ltpFR2	22	4	HIGHWAY	707	n/a	n/a	0	0	0
786466	REC_WORD	wordpools/wasnorm_wordpool_576.txt	LTP386	ltpFR2	22	4	GIFT	635	n/a	n/a	0	0	0
787129	REC_WORD	wordpools/wasnorm_wordpool_576.txt	LTP386	ltpFR2	22	4	CONCERT	360	n/a	n/a	0	0	0
788142	REC_WORD	wordpools/wasnorm_wordpool_576.txt	LTP386	ltpFR2	22	4	VALVE	1546	n/a	n/a	0	0	0
868788	WORD	wordpools/wasnorm_wordpool_576.txt	LTP386	ltpFR2	22	5	HELMET	702	n/a	n/a	0	0	0
871371	WORD	wordpools/wasnorm_wordpool_576.txt	LTP386	ltpFR2	22	5	TROUT	1511	n/a	n/a	0	0	0
874154	WORD	wordpools/wasnorm_wordpool_576.txt	LTP386	ltpFR2	22	5	FLOWER	584	n/a	n/a	0	0	0
876588	WORD	wordpools/wasnorm_wordpool_576.txt	LTP386	ltpFR2	22	5	SOFTBALL	1343	n/a	n/a	0	0	0
879171	WORD	wordpools/wasnorm_wordpool_576.txt	LTP386	ltpFR2	22	5	POET	1095	n/a	n/a	0	0	0
881871	WORD	wordpools/wasnorm_wordpool_576.txt	LTP386	ltpFR2	22	5	GOBLIN	645	n/a	n/a	0	0	0
884387	WORD	wordpools/wasnorm_wordpool_576.txt	LTP386	ltpFR2	22	5	GIRL	637	n/a	n/a	0	0	0
886837	WORD	wordpools/wasnorm_wordpool_576.txt	LTP386	ltpFR2	22	5	BREAST	171	n/a	n/a	0	0	0
889354	WORD	wordpools/wasnorm_wordpool_576.txt	LTP386	ltpFR2	22	5	SEAFOOD	1260	n/a	n/a	0	0	0
891921	WORD	wordpools/wasnorm_wordpool_576.txt	LTP386	ltpFR2	22	5	DANCER	437	n/a	n/a	0	0	0
894572	WORD	wordpools/wasnorm_wordpool_576.txt	LTP386	ltpFR2	22	5	SHIRT	1287	n/a	n/a	0	0	0
897371	WORD	wordpools/wasnorm_wordpool_576.txt	LTP386	ltpFR2	22	5	DOLPHIN	483	n/a	n/a	0	0	0
899987	WORD	wordpools/wasnorm_wordpool_576.txt	LTP386	ltpFR2	22	5	FOOTBALL	591	n/a	n/a	0	0	0
902571	WORD	wordpools/wasnorm_wordpool_576.txt	LTP386	ltpFR2	22	5	KEEPER	769	n/a	n/a	0	0	0
905387	WORD	wordpools/wasnorm_wordpool_576.txt	LTP386	ltpFR2	22	5	COOKBOOK	373	n/a	n/a	0	0	0
908187	WORD	wordpools/wasnorm_wordpool_576.txt	LTP386	ltpFR2	22	5	PLATE	1086	n/a	n/a	0	0	0
910937	WORD	wordpools/wasnorm_wordpool_576.txt	LTP386	ltpFR2	22	5	TUTU	1524	n/a	n/a	0	0	0
913404	WORD	wordpools/wasnorm_wordpool_576.txt	LTP386	ltpFR2	22	5	HUSBAND	728	n/a	n/a	0	0	0
915987	WORD	wordpools/wasnorm_wordpool_576.txt	LTP386	ltpFR2	22	5	MUFFIN	929	n/a	n/a	0	0	0
918453	WORD	wordpools/wasnorm_wordpool_576.txt	LTP386	ltpFR2	22	5	BANJO	82	n/a	n/a	0	0	0
921087	WORD	wordpools/wasnorm_wordpool_576.txt	LTP386	ltpFR2	22	5	DASHBOARD	441	n/a	n/a	0	0	0
923703	WORD	wordpools/wasnorm_wordpool_576.txt	LTP386	ltpFR2	22	5	RUST	1219	n/a	n/a	0	0	0
926470	WORD	wordpools/wasnorm_wordpool_576.txt	LTP386	ltpFR2	22	5	COWBOY	395	n/a	n/a	0	0	0
929187	WORD	wordpools/wasnorm_wordpool_576.txt	LTP386	ltpFR2	22	5	GARLIC	624	n/a	n/a	0	0	0
930803	START	n/a	LTP386	ltpFR2	22	n/a	n/a	n/a	9	n/a	n/a	n/a	n/a
931957	DISTRACTOR	n/a	LTP386	ltpFR2	22	5	n/a	n/a	n/a	n/a	0	0	0
931970	PROB	n/a	LTP386	ltpFR2	22	n/a	n/a	n/a	9	18	8	7	3
933337	PROB	n/a	LTP386	ltpFR2	22	n/a	n/a	n/a	9	11	2	2	7
934287	PROB	n/a	LTP386	ltpFR2	22	n/a	n/a	n/a	9	12	7	4	1
937220	PROB	n/a	LTP386	ltpFR2	22	n/a	n/a	n/a	9	17	5	5	7
938538	PROB	n/a	LTP386	ltpFR2	22	n/a	n/a	n/a	9	16	9	3	4
939537	PROB	n/a	LTP386	ltpFR2	22	n/a	n/a	n/a	9	20	9	7	4
940803	PROB	n/a	LTP386	ltpFR2	22	n/a	n/a	n/a	9	11	4	6	1
941736	PROB	n/a	LTP386	ltpFR2	22	n/a	n/a	n/a	9	15	2	7	6
943403	PROB	n/a	LTP386	ltpFR2	22	n/a	n/a	n/a	9	6	2	2	2
944504	PROB	n/a	LTP386	ltpFR2	22	n/a	n/a	n/a	9	18	3	6	9
945653	PROB	n/a	LTP386	ltpFR2	22	n/a	n/a	n/a	9	12	4	3	5
947686	PROB	n/a	LTP386	ltpFR2	22	n/a	n/a	n/a	9	19	4	6	9
948853	PROB	n/a	LTP386	ltpFR2	22	n/a	n/a	n/a	9	12	1	9	2
949836	PROB	n/a	LTP386	ltpFR2	22	n/a	n/a	n/a	9	12	4	1	7
951170	PROB	n/a	LTP386	ltpFR2	22	n/a	n/a	n/a	9	16	9	6	1
952386	PROB	n/a	LTP386	ltpFR2	22	n/a	n/a	n/a	9	12	3	6	3
953671	STOP	n/a	LTP386	ltpFR2	22	n/a	n/a	n/a	9	n/a	n/a	n/a	n/a
956687	REC_START	n/a	LTP386	ltpFR2	22	5	n/a	n/a	n/a	n/a	0	0	0
958884	REC_WORD	wordpools/wasnorm_wordpool_576.txt	LTP386	ltpFR2	22	5	GARLIC	624	n/a	n/a	0	0	0
1047152	DISTRACTOR	n/a	LTP386	ltpFR2	22	6	n/a	n/a	n/a	n/a	0	0	0
1047152	START	n/a	LTP386	ltpFR2	22	n/a	n/a	n/a	10	n/a	n/a	n/a	n/a
1047168	PROB	n/a	LTP386	ltpFR2	22	n/a	n/a	n/a	10	16	8	1	7
1049018	PROB	n/a	LTP386	ltpFR2	22	n/a	n/a	n/a	10	15	7	3	5
1050418	PROB	n/a	LTP386	ltpFR2	22	n/a	n/a	n/a	10	21	4	8	9
1051768	PROB	n/a	LTP386	ltpFR2	22	n/a	n/a	n/a	10	23	5	9	9
1054368	PROB	n/a	LTP386	ltpFR2	22	n/a	n/a	n/a	10	16	8	2	6
1055385	PROB	n/a	LTP386	ltpFR2	22	n/a	n/a	n/a	10	5	1	1	3
1056318	PROB	n/a	LTP386	ltpFR2	22	n/a	n/a	n/a	10	17	2	7	8
1058101	PROB	n/a	LTP386	ltpFR2	22	n/a	n/a	n/a	10	22	6	7	9
1059651	PROB	n/a	LTP386	ltpFR2	22	n/a	n/a	n/a	10	10	1	1	8
1060502	PROB	n/a	LTP386	ltpFR2	22	n/a	n/a	n/a	10	13	2	3	8
1061735	PROB	n/a	LTP386	ltpFR2	22	n/a	n/a	n/a	10	21	8	7	6
1064418	PROB	n/a	LTP386	ltpFR2	22	n/a	n/a	n/a	10	8	1	1	6
1065468	PROB	n/a	LTP386	ltpFR2	22	n/a	n/a	n/a	10	13	1	6	6
1066536	PROB	n/a	LTP386	ltpFR2	22	n/a	n/a	n/a	10	18	6	3	9
1068602	PROB	n/a	LTP386	ltpFR2	22	n/a	n/a	n/a	10	15	8	3	4
1069730	STOP	n/a	LTP386	ltpFR2	22	n/a	n/a	n/a	10	n/a	n/a	n/a	n/a
1072201	WORD	wordpools/wasnorm_wordpool_576.txt	LTP386	ltpFR2	22	6	NECKLACE	940	n/a	n/a	0	0	0
1074751	WORD	wordpools/wasnorm_wordpool_576.txt	LTP386	ltpFR2	22	6	CRATER	400	n/a	n/a	0	0	0
1077301	WORD	wordpools/wasnorm_wordpool_576.txt	LTP386	ltpFR2	22	6	KIDNEY	776	n/a	n/a	0	0	0
1079834	WORD	wordpools/wasnorm_wordpool_576.txt	LTP386	ltpFR2	22	6	HORNET	718	n/a	n/a	0	0	0
1082301	WORD	wordpools/wasnorm_wordpool_576.txt	LTP386	ltpFR2	22	6	SCARF	1246	n/a	n/a	0	0	0
1084951	WORD	wordpools/wasnorm_wordpool_576.txt	LTP386	ltpFR2	22	6	DRAWING	494	n/a	n/a	0	0	0
1087484	WORD	wordpools/wasnorm_wordpool_576.txt	LTP386	ltpFR2	22	6	CRICKET	408	n/a	n/a	0	0	0
1090301	WORD	wordpools/wasnorm_wordpool_576.txt	LTP386	ltpFR2	22	6	THIEF	1456	n/a	n/a	0	0	0
1092951	WORD	wordpools/wasnorm_wordpool_576.txt	LTP386	ltpFR2	22	6	MOTEL	919	n/a	n/a	0	0	0
1095502	WORD	wordpools/wasnorm_wordpool_576.txt	LTP386	ltpFR2	22	6	LIVER	833	n/a	n/a	0	0	0
1098051	WORD	wordpools/wasnorm_wordpool_576.txt	LTP386	ltpFR2	22	6	MAILBOX	857	n/a	n/a	0	0	0
1100585	WORD	wordpools/wasnorm_wordpool_576.txt	LTP386	ltpFR2	22	6	KNIFE	785	n/a	n/a	0	0	0
1103217	WORD	wordpools/wasnorm_wordpool_576.txt	LTP386	ltpFR2	22	6	RADISH	1158	n/a	n/a	0	0	0
1105734	WORD	wordpools/wasnorm_wordpool_576.txt	LTP386	ltpFR2	22	6	CATCHER	258	n/a	n/a	0	0	0
1108518	WORD	wordpools/wasnorm_wordpool_576.txt	LTP386	ltpFR2	22	6	BOARD	143	n/a	n/a	0	0	0
1111184	WORD	wordpools/wasnorm_wordpool_576.txt	LTP386	ltpFR2	22	6	BLACKBOARD	133	n/a	n/a	0	0	0
1113701	WORD	wordpools/wasnorm_wordpool_576.txt	LTP386	ltpFR2	22	6	POISON	1096	n/a	n/a	0	0	0
1116351	WORD	wordpools/wasnorm_wordpool_576.txt	LTP386	ltpFR2	22	6	LIZARD	834	n/a	n/a	0	0	0
1119117	WORD	wordpools/wasnorm_wordpool_576.txt	LTP386	ltpFR2	22	6	JUDGE	761	n/a	n/a	0	0	0
1121585	WORD	wordpools/wasnorm_wordpool_576.txt	LTP386	ltpFR2	22	6	SLIME	1327	n/a	n/a	0	0	0
1124367	WORD	wordpools/wasnorm_wordpool_576.txt	LTP386	ltpFR2	22	6	SUSPECT	1415	n/a	n/a	0	0	0
1127084	WORD	wordpools/wasnorm_wordpool_576.txt	LTP386	ltpFR2	22	6	RATTLE	1170	n/a	n/a	0	0	0
1129850	WORD	wordpools/wasnorm_wordpool_576.txt	LTP386	ltpFR2	22	6	POWDER	1117	n/a	n/a	0	0	0
1132484	WORD	wordpools/wasnorm_wordpool_576.txt	LTP386	ltpFR2	22	6	QUARTER	1148	n/a	n/a	0	0	0
1134100	START	n/a	LTP386	ltpFR2	22	n/a	n/a	n/a	11	n/a	n/a	n/a	n/a
1134975	DISTRACTOR	n/a	LTP386	ltpFR2	22	6	n/a	n/a	n/a	n/a	0	0	0
1134984	PROB	n/a	LTP386	ltpFR2	22	n/a	n/a	n/a	11	16	1	8	7
1137084	PROB	n/a	LTP386	ltpFR2	22	n/a	n/a	n/a	11	19	8	3	8
1140250	PROB	n/a	LTP386	ltpFR2	22	n/a	n/a	n/a	11	16	4	4	8
1141400	PROB	n/a	LTP386	ltpFR2	22	n/a	n/a	n/a	11	18	7	9	2
1143267	PROB	n/a	LTP386	ltpFR2	22	n/a	n/a	n/a	11	9	1	5	3
1144817	PROB	n/a	LTP386	ltpFR2	22	n/a	n/a	n/a	11	8	6	1	1
1145817	PROB	n/a	LTP386	ltpFR2	22	n/a	n/a	n/a	11	16	3	7	6
1147050	PROB	n/a	LTP386	ltpFR2	22	n/a	n/a	n/a	11	11	5	4	2
1149433	PROB	n/a	LTP386	ltpFR2	22	n/a	n/a	n/a	11	4	1	1	2
1150733	PROB	n/a	LTP386	ltpFR2	22	n/a	n/a	n/a	11	20	4	8	8
1152283	PROB	n/a	LTP386	ltpFR2	22	n/a	n/a	n/a	11	18	9	7	1
1153733	PROB	n/a	LTP386	ltpFR2	22	n/a	n/a	n/a	11	16	2	8	6
1155167	PROB	n/a	LTP386	ltpFR2	22	n/a	n/a	n/a	11	17	3	7	7
1156217	PROB	n/a	LTP386	ltpFR2	22	n/a	n/a	n/a	11	14	7	2	5
1157845	STOP	n/a	LTP386	ltpFR2	22	n/a	n/a	n/a	11	n/a	n/a	n/a	n/a
1159917	REC_START	n/a	LTP386	ltpFR2	22	6	n/a	n/a	n/a	n/a	0	0	0
1160786	REC_WORD	wordpools/wasnorm_wordpool_576.txt	LTP386	ltpFR2	22	6	MOTEL	919	n/a	n/a	0	0	0
1161768	REC_WORD	wordpools/wasnorm_wordpool_576.txt	LTP386	ltpFR2	22	6	THIEF	1456	n/a	n/a	0	0	0
1162642	REC_WORD	wordpools/wasnorm_wordpool_576.txt	LTP386	ltpFR2	22	6	KNIFE	785	n/a	n/a	0	0	0
1163536	REC_WORD	wordpools/wasnorm_wordpool_576.txt	LTP386	ltpFR2	22	6	RADISH	1158	n/a	n/a	0	0	0
1164465	REC_WORD	wordpools/wasnorm_wordpool_576.txt	LTP386	ltpFR2	22	6	KIDNEY	776	n/a	n/a	0	0	0
1165253	REC_WORD	wordpools/wasnorm_wordpool_576.txt	LTP386	ltpFR2	22	6	LIVER	833	n/a	n/a	0	0	0
1168328	REC_WORD	wordpools/wasnorm_wordpool_576.txt	LTP386	ltpFR2	22	6	LIZARD	834	n/a	n/a	0	0	0
1168923	REC_WORD	wordpools/wasnorm_wordpool_576.txt	LTP386	ltpFR2	22	6	SLIME	1327	n/a	n/a	0	0	0
1250382	WORD	wordpools/wasnorm_wordpool_576.txt	LTP386	ltpFR2	22	7	WAGON	1578	n/a	n/a	0	0	0
1252965	WORD	wordpools/wasnorm_wordpool_576.txt	LTP386	ltpFR2	22	7	BEEF	113	n/a	n/a	0	0	0
1255732	WORD	wordpools/wasnorm_wordpool_576.txt	LTP386	ltpFR2	22	7	PATIENT	1024	n/a	n/a	0	0	0
1258298	WORD	wordpools/wasnorm_wordpool_576.txt	LTP386	ltpFR2	22	7	ITEM	746	n/a	n/a	0	0	0
1260898	WORD	wordpools/wasnorm_wordpool_576.txt	LTP386	ltpFR2	22	7	BROOK	177	n/a	n/a	0	0	0
1263465	WORD	wordpools/wasnorm_wordpool_576.txt	LTP386	ltpFR2	22	7	BUTCHER	203	n/a	n/a	0	0	0
1266048	WORD	wordpools/wasnorm_wordpool_576.txt	LTP386	ltpFR2	22	7	WASHER	1592	n/a	n/a	0	0	0
1268715	WORD	wordpools/wasnorm_wordpool_576.txt	LTP386	ltpFR2	22	7	ARMY	39	n/a	n/a	0	0	0
1271533	WORD	wordpools/wasnorm_wordpool_576.txt	LTP386	ltpFR2	22	7	MARINE	869	n/a	n/a	0	0	0
1274098	WORD	wordpools/wasnorm_wordpool_576.txt	LTP386	ltpFR2	22	7	BEAST	108	n/a	n/a	0	0	0
1276881	WORD	wordpools/wasnorm_wordpool_576.txt	LTP386	ltpFR2	22	7	GRIZZLY	662	n/a	n/a	0	0	0
1279616	WORD	wordpools/wasnorm_wordpool_576.txt	LTP386	ltpFR2	22	7	BULLET	194	n/a	n/a	0	0	0
1282165	WORD	wordpools/wasnorm_wordpool_576.txt	LTP386	ltpFR2	22	7	UNCLE	1536	n/a	n/a	0	0	0
1284881	WORD	wordpools/wasnorm_wordpool_576.txt	LTP386	ltpFR2	22	7	SIDEWALK	1303	n/a	n/a	0	0	0
1287365	WORD	wordpools/wasnorm_wordpool_576.txt	LTP386	ltpFR2	22	7	SURVEY	1414	n/a	n/a	0	0	0
1289915	WORD	wordpools/wasnorm_wordpool_576.txt	LTP386	ltpFR2	22	7	STAKE	1368	n/a	n/a	0	0	0
1292465	WORD	wordpools/wasnorm_wordpool_576.txt	LTP386	ltpFR2	22	7	PLAID	1080	n/a	n/a	0	0	0
1295165	WORD	wordpools/wasnorm_wordpool_576.txt	LTP386	ltpFR2	22	7	JEANS	752	n/a	n/a	0	0	0
1297931	WORD	wordpools/wasnorm_wordpool_576.txt	LTP386	ltpFR2	22	7	DENIM	446	n/a	n/a	0	0	0
1300414	WORD	wordpools/wasnorm_wordpool_576.txt	LTP386	ltpFR2	22	7	VENUS	1557	n/a	n/a	0	0	0
1302981	WORD	wordpools/wasnorm_wordpool_576.txt	LTP386	ltpFR2	22	7	BROTHER	179	n/a	n/a	0	0	0
1305532	WORD	wordpools/wasnorm_wordpool_576.txt	LTP386	ltpFR2	22	7	PRIMATE	1123	n/a	n/a	0	0	0
1308081	WORD	wordpools/wasnorm_wordpool_576.txt	LTP386	ltpFR2	22	7	FIREPLACE	570	n/a	n/a	0	0	0
1310615	WORD	wordpools/wasnorm_wordpool_576.txt	LTP386	ltpFR2	22	7	SISTER	1312	n/a	n/a	0	0	0
1312231	START	n/a	LTP386	ltpFR2	22	n/a	n/a	n/a	12	n/a	n/a	n/a	n/a
1313246	DISTRACTOR	n/a	LTP386	ltpFR2	22	7	n/a	n/a	n/a	n/a	0	0	0
1313248	PROB	n/a	LTP386	ltpFR2	22	n/a	n/a	n/a	12	20	8	5	7
1314864	PROB	n/a	LTP386	ltpFR2	22	n/a	n/a	n/a	12	11	5	3	3
1316164	PROB	n/a	LTP386	ltpFR2	22	n/a	n/a	n/a	12	14	6	2	6
1317698	PROB	n/a	LTP386	ltpFR2	22	n/a	n/a	n/a	12	14	5	8	1
1318981	PROB	n/a	LTP386	ltpFR2	22	n/a	n/a	n/a	12	14	3	7	4
1320497	PROB	n/a	LTP386	ltpFR2	22	n/a	n/a	n/a	12	13	5	7	1
1321864	PROB	n/a	LTP386	ltpFR2	22	n/a	n/a	n/a	12	15	3	7	5
1323431	PROB	n/a	LTP386	ltpFR2	22	n/a	n/a	n/a	12	17	7	6	4
1324532	PROB	n/a	LTP386	ltpFR2	22	n/a	n/a	n/a	12	21	9	3	9
1326431	PROB	n/a	LTP386	ltpFR2	22	n/a	n/a	n/a	12	16	4	4	8
1327515	PROB	n/a	LTP386	ltpFR2	22	n/a	n/a	n/a	12	7	1	4	2
1328714	PROB	n/a	LTP386	ltpFR2	22	n/a	n/a	n/a	12	12	3	3	6
1329747	PROB	n/a	LTP386	ltpFR2	22	n/a	n/a	n/a	12	16	2	8	6
1331147	PROB	n/a	LTP386	ltpFR2	22	n/a	n/a	n/a	12	16	5	2	9
1332582	PROB	n/a	LTP386	ltpFR2	22	n/a	n/a	n/a	12	21	8	6	7
1334164	PROB	n/a	LTP386	ltpFR2	22	n/a	n/a	n/a	12	11	9	1	1
1335026	STOP	n/a	LTP386	ltpFR2	22	n/a	n/a	n/a	12	n/a	n/a	n/a	n/a
1337998	REC_START	n/a	LTP386	ltpFR2	22	7	n/a	n/a	n/a	n/a	0	0	0
1339613	REC_WORD	wordpools/wasnorm_wordpool_576.txt	LTP386	ltpFR2	22	7	WAGON	1578	n/a	n/a	0	0	0
1340676	REC_WORD	wordpools/wasnorm_wordpool_576.txt	LTP386	ltpFR2	22	7	BEEF	113	n/a	n/a	0	0	0
1341591	REC_WORD	wordpools/wasnorm_wordpool_576.txt	LTP386	ltpFR2	22	7	BUTCHER	203	n/a	n/a	0	0	0
1342505	REC_WORD	wordpools/wasnorm_wordpool_576.txt	LTP386	ltpFR2	22	7	VENUS	1557	n/a	n/a	0	0	0
1345343	REC_WORD	wordpools/wasnorm_wordpool_576.txt	LTP386	ltpFR2	22	7	ITEM	746	n/a	n/a	0	0	0
1346471	REC_WORD	wordpools/wasnorm_wordpool_576.txt	LTP386	ltpFR2	22	7	BROOK	177	n/a	n/a	0	0	0
1428463	WORD	wordpools/wasnorm_wordpool_576.txt	LTP386	ltpFR2	22	8	PADDLE	1000	n/a	n/a	0	0	0
1430963	WORD	wordpools/wasnorm_wordpool_576.txt	LTP386	ltpFR2	22	8	ROBOT	1200	n/a	n/a	0	0	0
1433563	WORD	wordpools/wasnorm_wordpool_576.txt	LTP386	ltpFR2	22	8	TEMPLE	1448	n/a	n/a	0	0	0
1436212	WORD	wordpools/wasnorm_wordpool_576.txt	LTP386	ltpFR2	22	8	PLIERS	1089	n/a	n/a	0	0	0
1438662	WORD	wordpools/wasnorm_wordpool_576.txt	LTP386	ltpFR2	22	8	HATCHET	691	n/a	n/a	0	0	0
1441229	WORD	wordpools/wasnorm_wordpool_576.txt	LTP386	ltpFR2	22	8	SWIMMER	1420	n/a	n/a	0	0	0
1443946	WORD	wordpools/wasnorm_wordpool_576.txt	LTP386	ltpFR2	22	8	PEDAL	1037	n/a	n/a	0	0	0
1446613	WORD	wordpools/wasnorm_wordpool_576.txt	LTP386	ltpFR2	22	8	SHOVEL	1295	n/a	n/a	0	0	0
1449212	WORD	wordpools/wasnorm_wordpool_576.txt	LTP386	ltpFR2	22	8	FLASHLIGHT	575	n/a	n/a	0	0	0
1451746	WORD	wordpools/wasnorm_wordpool_576.txt	LTP386	ltpFR2	22	8	PLASTER	1085	n/a	n/a	0	0	0
1454179	WORD	wordpools/wasnorm_wordpool_576.txt	LTP386	ltpFR2	22	8	ROD	1203	n/a	n/a	0	0	0
1456662	WORD	wordpools/wasnorm_wordpool_576.txt	LTP386	ltpFR2	22	8	LAKE	796	n/a	n/a	0	0	0
1459362	WORD	wordpools/wasnorm_wordpool_576.txt	LTP386	ltpFR2	22	8	RABBIT	1152	n/a	n/a	0	0	0
1462029	WORD	wordpools/wasnorm_wordpool_576.txt	LTP386	ltpFR2	22	8	FRUIT	610	n/a	n/a	0	0	0
1464513	WORD	wordpools/wasnorm_wordpool_576.txt	LTP386	ltpFR2	22	8	ZEBRA	1635	n/a	n/a	0	0	0
1467162	WORD	wordpools/wasnorm_wordpool_576.txt	LTP386	ltpFR2	22	8	SHELTER	1282	n/a	n/a	0	0	0
1469929	WORD	wordpools/wasnorm_wordpool_576.txt	LTP386	ltpFR2	22	8	LAMP	798	n/a	n/a	0	0	0
1472645	WORD	wordpools/wasnorm_wordpool_576.txt	LTP386	ltpFR2	22	8	SPHINX	1349	n/a	n/a	0	0	0
1475429	WORD	wordpools/wasnorm_wordpool_576.txt	LTP386	ltpFR2	22	8	BUBBLE	183	n/a	n/a	0	0	0
1478045	WORD	wordpools/wasnorm_wordpool_576.txt	LTP386	ltpFR2	22	8	JELLO	754	n/a	n/a	0	0	0
1480630	WORD	wordpools/wasnorm_wordpool_576.txt	LTP386	ltpFR2	22	8	PUDDING	1139	n/a	n/a	0	0	0
1483145	WORD	wordpools/wasnorm_wordpool_576.txt	LTP386	ltpFR2	22	8	STAR	1373	n/a	n/a	0	0	0
1485778	WORD	wordpools/wasnorm_wordpool_576.txt	LTP386	ltpFR2	22	8	ELBOW	520	n/a	n/a	0	0	0
1488478	WORD	wordpools/wasnorm_wordpool_576.txt	LTP386	ltpFR2	22	8	CAMEL	223	n/a	n/a	0	0	0
1490095	START	n/a	LTP386	ltpFR2	22	n/a	n/a	n/a	13	n/a	n/a	n/a	n/a
1491091	DISTRACTOR	n/a	LTP386	ltpFR2	22	8	n/a	n/a	n/a	n/a	0	0	0
1491095	PROB	n/a	LTP386	ltpFR2	22	n/a	n/a	n/a	13	23	9	7	7
1492495	PROB	n/a	LTP386	ltpFR2	22	n/a	n/a	n/a	13	9	1	1	7
1493495	PROB	n/a	LTP386	ltpFR2	22	n/a	n/a	n/a	13	23	9	8	6
1494845	PROB	n/a	LTP386	ltpFR2	22	n/a	n/a	n/a	13	11	3	7	1
1495845	PROB	n/a	LTP386	ltpFR2	22	n/a	n/a	n/a	13	15	3	4	8
1497445	PROB	n/a	LTP386	ltpFR2	22	n/a	n/a	n/a	13	23	9	7	7
1498861	PROB	n/a	LTP386	ltpFR2	22	n/a	n/a	n/a	13	7	1	5	1
1499878	PROB	n/a	LTP386	ltpFR2	22	n/a	n/a	n/a	13	16	3	6	7
1501128	PROB	n/a	LTP386	ltpFR2	22	n/a	n/a	n/a	13	10	4	2	4
1502411	PROB	n/a	LTP386	ltpFR2	22	n/a	n/a	n/a	13	10	5	1	4
1503411	PROB	n/a	LTP386	ltpFR2	22	n/a	n/a	n/a	13	12	5	2	5
1504579	PROB	n/a	LTP386	ltpFR2	22	n/a	n/a	n/a	13	22	7	6	9
1506045	PROB	n/a	LTP386	ltpFR2	22	n/a	n/a	n/a	13	12	8	2	2
1507211	PROB	n/a	LTP386	ltpFR2	22	n/a	n/a	n/a	13	13	7	1	5
1510178	PROB	n/a	LTP386	ltpFR2	22	n/a	n/a	n/a	13	14	3	5	6
1511645	PROB	n/a	LTP386	ltpFR2	22	n/a	n/a	n/a	13	12	6	2	4
1512824	STOP	n/a	LTP386	ltpFR2	22	n/a	n/a	n/a	13	n/a	n/a	n/a	n/a
1515978	REC_START	n/a	LTP386	ltpFR2	22	8	n/a	n/a	n/a	n/a	0	0	0
1517217	REC_WORD	wordpools/wasnorm_wordpool_576.txt	LTP386	ltpFR2	22	8	LAKE	796	n/a	n/a	0	0	0
1519023	REC_WORD	wordpools/wasnorm_wordpool_576.txt	LTP386	ltpFR2	22	8	FRUIT	610	n/a	n/a	0	0	0
1520054	REC_WORD	wordpools/wasnorm_wordpool_576.txt	LTP386	ltpFR2	22	8	ZEBRA	1635	n/a	n/a	0	0	0
1521446	REC_WORD	wordpools/wasnorm_wordpool_576.txt	LTP386	ltpFR2	22	8	RABBIT	1152	n/a	n/a	0	0	0
1525923	REC_WORD	wordpools/wasnorm_wordpool_576.txt	LTP386	ltpFR2	22	8	SPHINX	1349	n/a	n/a	0	0	0
1592528	REST_REWET	n/a	LTP386	ltpFR2	22	8	n/a	n/a	n/a	n/a	0	0	0
1783508	DISTRACTOR	n/a	LTP386	ltpFR2	22	9	n/a	n/a	n/a	n/a	0	0	0
1783508	START	n/a	LTP386	ltpFR2	22	n/a	n/a	n/a	14	n/a	n/a	n/a	n/a
1783525	PROB	n/a	LTP386	ltpFR2	22	n/a	n/a	n/a	14	14	5	1	8
1785024	PROB	n/a	LTP386	ltpFR2	22	n/a	n/a	n/a	14	23	8	9	6
1787674	PROB	n/a	LTP386	ltpFR2	22	n/a	n/a	n/a	14	19	6	5	8
1788807	PROB	n/a	LTP386	ltpFR2	22	n/a	n/a	n/a	14	8	3	1	4
1790024	PROB	n/a	LTP386	ltpFR2	22	n/a	n/a	n/a	14	233	9	8	6
1791575	PROB	n/a	LTP386	ltpFR2	22	n/a	n/a	n/a	14	16	2	5	9
1794041	PROB	n/a	LTP386	ltpFR2	22	n/a	n/a	n/a	14	20	2	8	8
1795374	PROB	n/a	LTP386	ltpFR2	22	n/a	n/a	n/a	14	12	6	3	3
1796525	PROB	n/a	LTP386	ltpFR2	22	n/a	n/a	n/a	14	21	4	9	8
1798024	PROB	n/a	LTP386	ltpFR2	22	n/a	n/a	n/a	14	20	7	8	5
1801007	PROB	n/a	LTP386	ltpFR2	22	n/a	n/a	n/a	14	14	9	4	1
1802124	PROB	n/a	LTP386	ltpFR2	22	n/a	n/a	n/a	14	13	4	5	4
1803807	PROB	n/a	LTP386	ltpFR2	22	n/a	n/a	n/a	14	24	9	8	8
1807508	STOP	n/a	LTP386	ltpFR2	22	n/a	n/a	n/a	14	n/a	n/a	n/a	n/a
1808390	WORD	wordpools/wasnorm_wordpool_576.txt	LTP386	ltpFR2	22	9	WORLD	1622	n/a	n/a	0	0	0
1811157	WORD	wordpools/wasnorm_wordpool_576.txt	LTP386	ltpFR2	22	9	GROUND	666	n/a	n/a	0	0	0
1813940	WORD	wordpools/wasnorm_wordpool_576.txt	LTP386	ltpFR2	22	9	BLOUSE	139	n/a	n/a	0	0	0
1816707	WORD	wordpools/wasnorm_wordpool_576.txt	LTP386	ltpFR2	22	9	HOOD	714	n/a	n/a	0	0	0
1819357	WORD	wordpools/wasnorm_wordpool_576.txt	LTP386	ltpFR2	22	9	MEDAL	885	n/a	n/a	0	0	0
1822090	WORD	wordpools/wasnorm_wordpool_576.txt	LTP386	ltpFR2	22	9	WINDOW	1611	n/a	n/a	0	0	0
1824773	WORD	wordpools/wasnorm_wordpool_576.txt	LTP386	ltpFR2	22	9	LIPSTICK	829	n/a	n/a	0	0	0
1827473	WORD	wordpools/wasnorm_wordpool_576.txt	LTP386	ltpFR2	22	9	CONTRACT	368	n/a	n/a	0	0	0
1830123	WORD	wordpools/wasnorm_wordpool_576.txt	LTP386	ltpFR2	22	9	FRANCE	601	n/a	n/a	0	0	0
1832923	WORD	wordpools/wasnorm_wordpool_576.txt	LTP386	ltpFR2	22	9	ICING	732	n/a	n/a	0	0	0
1835524	WORD	wordpools/wasnorm_wordpool_576.txt	LTP386	ltpFR2	22	9	PISTON	1076	n/a	n/a	0	0	0
1838190	WORD	wordpools/wasnorm_wordpool_576.txt	LTP386	ltpFR2	22	9	SUNSET	1408	n/a	n/a	0	0	0
1841006	WORD	wordpools/wasnorm_wordpool_576.txt	LTP386	ltpFR2	22	9	WARDROBE	1587	n/a	n/a	0	0	0
1843541	WORD	wordpools/wasnorm_wordpool_576.txt	LTP386	ltpFR2	22	9	AWARD	63	n/a	n/a	0	0	0
1846140	WORD	wordpools/wasnorm_wordpool_576.txt	LTP386	ltpFR2	22	9	ROBIN	1199	n/a	n/a	0	0	0
1848740	WORD	wordpools/wasnorm_wordpool_576.txt	LTP386	ltpFR2	22	9	CIGAR	308	n/a	n/a	0	0	0
1851290	WORD	wordpools/wasnorm_wordpool_576.txt	LTP386	ltpFR2	22	9	BACKBONE	66	n/a	n/a	0	0	0
1854006	WORD	wordpools/wasnorm_wordpool_576.txt	LTP386	ltpFR2	22	9	PIZZA	1079	n/a	n/a	0	0	0
1856740	WORD	wordpools/wasnorm_wordpool_576.txt	LTP386	ltpFR2	22	9	SAUSAGE	1238	n/a	n/a	0	0	0
1859189	WORD	wordpools/wasnorm_wordpool_576.txt	LTP386	ltpFR2	22	9	MONSTER	912	n/a	n/a	0	0	0
1861823	WORD	wordpools/wasnorm_wordpool_576.txt	LTP386	ltpFR2	22	9	DRINK	498	n/a	n/a	0	0	0
1864289	WORD	wordpools/wasnorm_wordpool_576.txt	LTP386	ltpFR2	22	9	SCOTCH	1251	n/a	n/a	0	0	0
1866723	WORD	wordpools/wasnorm_wordpool_576.txt	LTP386	ltpFR2	22	9	CARROT	249	n/a	n/a	0	0	0
1869389	WORD	wordpools/wasnorm_wordpool_576.txt	LTP386	ltpFR2	22	9	CITRUS	313	n/a	n/a	0	0	0
1871006	START	n/a	LTP386	ltpFR2	22	n/a	n/a	n/a	15	n/a	n/a	n/a	n/a
1871891	DISTRACTOR	n/a	LTP386	ltpFR2	22	9	n/a	n/a	n/a	n/a	0	0	0
1871906	PROB	n/a	LTP386	ltpFR2	22	n/a	n/a	n/a	15	18	8	5	5
1873439	PROB	n/a	LTP386	ltpFR2	22	n/a	n/a	n/a	15	16	6	7	3
1874540	PROB	n/a	LTP386	ltpFR2	22	n/a	n/a	n/a	15	11	3	7	1
1875656	PROB	n/a	LTP386	ltpFR2	22	n/a	n/a	n/a	15	10	6	2	2
1876806	PROB	n/a	LTP386	ltpFR2	22	n/a	n/a	n/a	15	19	9	1	9
1877823	PROB	n/a	LTP386	ltpFR2	22	n/a	n/a	n/a	15	18	8	9	1
1879923	PROB	n/a	LTP386	ltpFR2	22	n/a	n/a	n/a	15	12	5	3	4
1882156	PROB	n/a	LTP386	ltpFR2	22	n/a	n/a	n/a	15	21	7	7	7
1883272	PROB	n/a	LTP386	ltpFR2	22	n/a	n/a	n/a	15	17	7	9	1
1885056	PROB	n/a	LTP386	ltpFR2	22	n/a	n/a	n/a	15	19	3	8	8
1886439	PROB	n/a	LTP386	ltpFR2	22	n/a	n/a	n/a	15	9	4	1	4
1887672	PROB	n/a	LTP386	ltpFR2	22	n/a	n/a	n/a	15	15	6	2	7
1890122	PROB	n/a	LTP386	ltpFR2	22	n/a	n/a	n/a	15	20	8	8	4
1891939	PROB	n/a	LTP386	ltpFR2	22	n/a	n/a	n/a	15	14	3	4	7
1893056	PROB	n/a	LTP386	ltpFR2	22	n/a	n/a	n/a	15	13	3	4	6
1894396	STOP	n/a	LTP386	ltpFR2	22	n/a	n/a	n/a	15	n/a	n/a	n/a	n/a
1896956	REC_START	n/a	LTP386	ltpFR2	22	9	n/a	n/a	n/a	n/a	0	0	0
1897935	REC_WORD	wordpools/wasnorm_wordpool_576.txt	LTP386	ltpFR2	22	9	WORLD	1622	n/a	n/a	0	0	0
1898751	REC_WORD	wordpools/wasnorm_wordpool_576.txt	LTP386	ltpFR2	22	9	GROUND	666	n/a	n/a	0	0	0
1899588	REC_WORD	wordpools/wasnorm_wordpool_576.txt	LTP386	ltpFR2	22	9	MOUSE	925	n/a	n/a	0	0	0
1905392	REC_WORD	wordpools/wasnorm_wordpool_576.txt	LTP386	ltpFR2	22	9	CONTRACT	368	n/a	n/a	0	0	0
1907912	REC_WORD	wordpools/wasnorm_wordpool_576.txt	LTP386	ltpFR2	22	9	HOOD	714	n/a	n/a	0	0	0
1987421	WORD	wordpools/wasnorm_wordpool_576.txt	LTP386	ltpFR2	22	10	DINER	467	n/a	n/a	0	0	0
1990054	WORD	wordpools/wasnorm_wordpool_576.txt	LTP386	ltpFR2	22	10	SKILLET	1317	n/a	n/a	0	0	0
1992522	WORD	wordpools/wasnorm_wordpool_576.txt	LTP386	ltpFR2	22	10	SERVANT	1271	n/a	n/a	0	0	0
1995271	WORD	wordpools/wasnorm_wordpool_576.txt	LTP386	ltpFR2	22	10	HONEY	713	n/a	n/a	0	0	0
1997971	WORD	wordpools/wasnorm_wordpool_576.txt	LTP386	ltpFR2	22	10	DORM	488	n/a	n/a	0	0	0
2000687	WORD	wordpools/wasnorm_wordpool_576.txt	LTP386	ltpFR2	22	10	TOASTER	1472	n/a	n/a	0	0	0
2003204	WORD	wordpools/wasnorm_wordpool_576.txt	LTP386	ltpFR2	22	10	GRILL	661	n/a	n/a	0	0	0
2005821	WORD	wordpools/wasnorm_wordpool_576.txt	LTP386	ltpFR2	22	10	OYSTER	995	n/a	n/a	0	0	0
2008271	WORD	wordpools/wasnorm_wordpool_576.txt	LTP386	ltpFR2	22	10	APRON	35	n/a	n/a	0	0	0
2010971	WORD	wordpools/wasnorm_wordpool_576.txt	LTP386	ltpFR2	22	10	CYCLONE	431	n/a	n/a	0	0	0
2013704	WORD	wordpools/wasnorm_wordpool_576.txt	LTP386	ltpFR2	22	10	OUTLAW	989	n/a	n/a	0	0	0
2016171	WORD	wordpools/wasnorm_wordpool_576.txt	LTP386	ltpFR2	22	10	CORAL	378	n/a	n/a	0	0	0
2018854	WORD	wordpools/wasnorm_wordpool_576.txt	LTP386	ltpFR2	22	10	CANYON	235	n/a	n/a	0	0	0
2021420	WORD	wordpools/wasnorm_wordpool_576.txt	LTP386	ltpFR2	22	10	SUMMIT	1405	n/a	n/a	0	0	0
2023854	WORD	wordpools/wasnorm_wordpool_576.txt	LTP386	ltpFR2	22	10	PERMIT	1051	n/a	n/a	0	0	0
2026470	WORD	wordpools/wasnorm_wordpool_576.txt	LTP386	ltpFR2	22	10	CLAM	315	n/a	n/a	0	0	0
2029154	WORD	wordpools/wasnorm_wordpool_576.txt	LTP386	ltpFR2	22	10	STOMACH	1384	n/a	n/a	0	0	0
2031720	WORD	wordpools/wasnorm_wordpool_576.txt	LTP386	ltpFR2	22	10	BLADE	134	n/a	n/a	0	0	0
2034420	WORD	wordpools/wasnorm_wordpool_576.txt	LTP386	ltpFR2	22	10	SPACE	1345	n/a	n/a	0	0	0
2036903	WORD	wordpools/wasnorm_wordpool_576.txt	LTP386	ltpFR2	22	10	BUCKET	184	n/a	n/a	0	0	0
2039703	WORD	wordpools/wasnorm_wordpool_576.txt	LTP386	ltpFR2	22	10	TWISTER	1530	n/a	n/a	0	0	0
2042470	WORD	wordpools/wasnorm_wordpool_576.txt	LTP386	ltpFR2	22	10	HIKER	708	n/a	n/a	0	0	0
2045203	WORD	wordpools/wasnorm_wordpool_576.txt	LTP386	ltpFR2	22	10	PUPIL	1143	n/a	n/a	0	0	0
2047770	WORD	wordpools/wasnorm_wordpool_576.txt	LTP386	ltpFR2	22	10	TEACHER	1440	n/a	n/a	0	0	0
2049387	START	n/a	LTP386	ltpFR2	22	n/a	n/a	n/a	16	n/a	n/a	n/a	n/a
2050197	DISTRACTOR	n/a	LTP386	ltpFR2	22	10	n/a	n/a	n/a	n/a	0	0	0
2050203	PROB	n/a	LTP386	ltpFR2	22	n/a	n/a	n/a	16	13	3	2	8
2051987	PROB	n/a	LTP386	ltpFR2	22	n/a	n/a	n/a	16	14	2	7	5
2053370	PROB	n/a	LTP386	ltpFR2	22	n/a	n/a	n/a	16	15	3	3	9
2054487	PROB	n/a	LTP386	ltpFR2	22	n/a	n/a	n/a	16	22	7	9	6
2058303	PROB	n/a	LTP386	ltpFR2	22	n/a	n/a	n/a	16	15	9	4	2
2059487	PROB	n/a	LTP386	ltpFR2	22	n/a	n/a	n/a	16	23	8	7	8
2062638	PROB	n/a	LTP386	ltpFR2	22	n/a	n/a	n/a	16	14	8	1	5
2064270	PROB	n/a	LTP386	ltpFR2	22	n/a	n/a	n/a	16	13	2	7	4
2066070	PROB	n/a	LTP386	ltpFR2	22	n/a	n/a	n/a	16	21	6	9	6
2067504	PROB	n/a	LTP386	ltpFR2	22	n/a	n/a	n/a	16	21	7	7	7
2068537	PROB	n/a	LTP386	ltpFR2	22	n/a	n/a	n/a	16	11	4	4	3
2069903	PROB	n/a	LTP386	ltpFR2	22	n/a	n/a	n/a	16	9	6	1	2
2071103	PROB	n/a	LTP386	ltpFR2	22	n/a	n/a	n/a	16	13	3	2	8
2072530	STOP	n/a	LTP386	ltpFR2	22	n/a	n/a	n/a	16	n/a	n/a	n/a	n/a
2075337	REC_START	n/a	LTP386	ltpFR2	22	10	n/a	n/a	n/a	n/a	0	0	0
2077762	REC_WORD	wordpools/wasnorm_wordpool_576.txt	LTP386	ltpFR2	22	10	DINER	467	n/a	n/a	0	0	0
2078510	REC_WORD	wordpools/wasnorm_wordpool_576.txt	LTP386	ltpFR2	22	10	SKILLET	1317	n/a	n/a	0	0	0
2079574	REC_WORD	wordpools/wasnorm_wordpool_576.txt	LTP386	ltpFR2	22	10	SERVANT	1271	n/a	n/a	0	0	0
2080667	REC_WORD	wordpools/wasnorm_wordpool_576.txt	LTP386	ltpFR2	22	10	GRILL	661	n/a	n/a	0	0	0
2082931	REC_WORD	wordpools/wasnorm_wordpool_576.txt	LTP386	ltpFR2	22	10	HONEY	713	n/a	n/a	0	0	0
2092741	REC_WORD	wordpools/wasnorm_wordpool_576.txt	LTP386	ltpFR2	22	10	BLADE	134	n/a	n/a	0	0	0
2165785	WORD	wordpools/wasnorm_wordpool_576.txt	LTP386	ltpFR2	22	11	SCALPEL	1243	n/a	n/a	0	0	0
2168519	WORD	wordpools/wasnorm_wordpool_576.txt	LTP386	ltpFR2	22	11	NURSE	963	n/a	n/a	0	0	0
2171035	WORD	wordpools/wasnorm_wordpool_576.txt	LTP386	ltpFR2	22	11	MACHINE	852	n/a	n/a	0	0	0
2173702	WORD	wordpools/wasnorm_wordpool_576.txt	LTP386	ltpFR2	22	11	ORCHID	982	n/a	n/a	0	0	0
2176335	WORD	wordpools/wasnorm_wordpool_576.txt	LTP386	ltpFR2	22	11	TABLET	1427	n/a	n/a	0	0	0
2179035	WORD	wordpools/wasnorm_wordpool_576.txt	LTP386	ltpFR2	22	11	COUNTY	389	n/a	n/a	0	0	0
2181586	WORD	wordpools/wasnorm_wordpool_576.txt	LTP386	ltpFR2	22	11	MAMMAL	861	n/a	n/a	0	0	0
2184351	WORD	wordpools/wasnorm_wordpool_576.txt	LTP386	ltpFR2	22	11	DRILL	497	n/a	n/a	0	0	0
2186901	WORD	wordpools/wasnorm_wordpool_576.txt	LTP386	ltpFR2	22	11	HOSTESS	723	n/a	n/a	0	0	0
2189502	WORD	wordpools/wasnorm_wordpool_576.txt	LTP386	ltpFR2	22	11	SNACK	1331	n/a	n/a	0	0	0
2191985	WORD	wordpools/wasnorm_wordpool_576.txt	LTP386	ltpFR2	22	11	HAWK	692	n/a	n/a	0	0	0
2194418	WORD	wordpools/wasnorm_wordpool_576.txt	LTP386	ltpFR2	22	11	SILK	1307	n/a	n/a	0	0	0
2197051	WORD	wordpools/wasnorm_wordpool_576.txt	LTP386	ltpFR2	22	11	ORANGE	980	n/a	n/a	0	0	0
2199585	WORD	wordpools/wasnorm_wordpool_576.txt	LTP386	ltpFR2	22	11	SHORTCAKE	1292	n/a	n/a	0	0	0
2202151	WORD	wordpools/wasnorm_wordpool_576.txt	LTP386	ltpFR2	22	11	LEOPARD	812	n/a	n/a	0	0	0
2204834	WORD	wordpools/wasnorm_wordpool_576.txt	LTP386	ltpFR2	22	11	PORTRAIT	1111	n/a	n/a	0	0	0
2207585	WORD	wordpools/wasnorm_wordpool_576.txt	LTP386	ltpFR2	22	11	LUGGAGE	847	n/a	n/a	0	0	0
2210318	WORD	wordpools/wasnorm_wordpool_576.txt	LTP386	ltpFR2	22	11	GARBAGE	622	n/a	n/a	0	0	0
2213001	WORD	wordpools/wasnorm_wordpool_576.txt	LTP386	ltpFR2	22	11	DRAGON	492	n/a	n/a	0	0	0
2215569	WORD	wordpools/wasnorm_wordpool_576.txt	LTP386	ltpFR2	22	11	FRAME	600	n/a	n/a	0	0	0
2218234	WORD	wordpools/wasnorm_wordpool_576.txt	LTP386	ltpFR2	22	11	LUMBER	848	n/a	n/a	0	0	0
2220917	WORD	wordpools/wasnorm_wordpool_576.txt	LTP386	ltpFR2	22	11	TUBA	1515	n/a	n/a	0	0	0
2223701	WORD	wordpools/wasnorm_wordpool_576.txt	LTP386	ltpFR2	22	11	XEROX	1628	n/a	n/a	0	0	0
2226317	WORD	wordpools/wasnorm_wordpool_576.txt	LTP386	ltpFR2	22	11	JELLY	755	n/a	n/a	0	0	0
2227934	START	n/a	LTP386	ltpFR2	22	n/a	n/a	n/a	17	n/a	n/a	n/a	n/a
2228825	DISTRACTOR	n/a	LTP386	ltpFR2	22	11	n/a	n/a	n/a	n/a	0	0	0
2228834	PROB	n/a	LTP386	ltpFR2	22	n/a	n/a	n/a	17	21	8	7	6
2234585	PROB	n/a	LTP386	ltpFR2	22	n/a	n/a	n/a	17	13	5	1	7
2236001	PROB	n/a	LTP386	ltpFR2	22	n/a	n/a	n/a	17	20	5	9	6
2237451	PROB	n/a	LTP386	ltpFR2	22	n/a	n/a	n/a	17	12	2	8	2
2238467	PROB	n/a	LTP386	ltpFR2	22	n/a	n/a	n/a	17	5	1	3	2
2239502	PROB	n/a	LTP386	ltpFR2	22	n/a	n/a	n/a	17	14	8	5	1
2241000	PROB	n/a	LTP386	ltpFR2	22	n/a	n/a	n/a	17	18	7	9	2
2242234	PROB	n/a	LTP386	ltpFR2	22	n/a	n/a	n/a	17	20	6	8	6
2243667	PROB	n/a	LTP386	ltpFR2	22	n/a	n/a	n/a	17	18	8	6	4
2244917	PROB	n/a	LTP386	ltpFR2	22	n/a	n/a	n/a	17	17	6	6	5
2246551	PROB	n/a	LTP386	ltpFR2	22	n/a	n/a	n/a	17	13	8	1	4
2247834	PROB	n/a	LTP386	ltpFR2	22	n/a	n/a	n/a	17	19	2	9	8
2249484	PROB	n/a	LTP386	ltpFR2	22	n/a	n/a	n/a	17	9	3	1	5
2251335	STOP	n/a	LTP386	ltpFR2	22	n/a	n/a	n/a	17	n/a	n/a	n/a	n/a
2253784	REC_START	n/a	LTP386	ltpFR2	22	11	n/a	n/a	n/a	n/a	0	0	0
2254226	REC_WORD	wordpools/wasnorm_wordpool_576.txt	LTP386	ltpFR2	22	11	SCALPEL	1243	n/a	n/a	0	0	0
2255207	REC_WORD	wordpools/wasnorm_wordpool_576.txt	LTP386	ltpFR2	22	11	NURSE	963	n/a	n/a	0	0	0
2256095	REC_WORD	wordpools/wasnorm_wordpool_576.txt	LTP386	ltpFR2	22	11	MACHINE	852	n/a	n/a	0	0	0
2257100	REC_WORD	wordpools/wasnorm_wordpool_576.txt	LTP386	ltpFR2	22	11	ORCHID	982	n/a	n/a	0	0	0
2259517	REC_WORD	wordpools/wasnorm_wordpool_576.txt	LTP386	ltpFR2	22	11	DRAGON	492	n/a	n/a	0	0	0
2344249	WORD	wordpools/wasnorm_wordpool_576.txt	LTP386	ltpFR2	22	12	FEMALE	559	n/a	n/a	0	0	0
2347016	WORD	wordpools/wasnorm_wordpool_576.txt	LTP386	ltpFR2	22	12	SPARROW	1347	n/a	n/a	0	0	0
2349617	WORD	wordpools/wasnorm_wordpool_576.txt	LTP386	ltpFR2	22	12	LOFT	840	n/a	n/a	0	0	0
2352099	WORD	wordpools/wasnorm_wordpool_576.txt	LTP386	ltpFR2	22	12	TAXI	1438	n/a	n/a	0	0	0
2354816	WORD	wordpools/wasnorm_wordpool_576.txt	LTP386	ltpFR2	22	12	LIGHTNING	820	n/a	n/a	0	0	0
2357332	WORD	wordpools/wasnorm_wordpool_576.txt	LTP386	ltpFR2	22	12	QUAIL	1147	n/a	n/a	0	0	0
2359832	WORD	wordpools/wasnorm_wordpool_576.txt	LTP386	ltpFR2	22	12	PILOT	1070	n/a	n/a	0	0	0
2362482	WORD	wordpools/wasnorm_wordpool_576.txt	LTP386	ltpFR2	22	12	AIRPORT	13	n/a	n/a	0	0	0
2364915	WORD	wordpools/wasnorm_wordpool_576.txt	LTP386	ltpFR2	22	12	CASHEW	253	n/a	n/a	0	0	0
2367516	WORD	wordpools/wasnorm_wordpool_576.txt	LTP386	ltpFR2	22	12	YOLK	1633	n/a	n/a	0	0	0
2370265	WORD	wordpools/wasnorm_wordpool_576.txt	LTP386	ltpFR2	22	12	BACON	67	n/a	n/a	0	0	0
2372899	WORD	wordpools/wasnorm_wordpool_576.txt	LTP386	ltpFR2	22	12	PASSAGE	1019	n/a	n/a	0	0	0
2375600	WORD	wordpools/wasnorm_wordpool_576.txt	LTP386	ltpFR2	22	12	DAUGHTER	442	n/a	n/a	0	0	0
2378415	WORD	wordpools/wasnorm_wordpool_576.txt	LTP386	ltpFR2	22	12	FLAG	573	n/a	n/a	0	0	0
2381132	WORD	wordpools/wasnorm_wordpool_576.txt	LTP386	ltpFR2	22	12	KNAPSACK	783	n/a	n/a	0	0	0
2383599	WORD	wordpools/wasnorm_wordpool_576.txt	LTP386	ltpFR2	22	12	PATROL	1027	n/a	n/a	0	0	0
2386032	WORD	wordpools/wasnorm_wordpool_576.txt	LTP386	ltpFR2	22	12	GUARD	667	n/a	n/a	0	0	0
2388832	WORD	wordpools/wasnorm_wordpool_576.txt	LTP386	ltpFR2	22	12	POCKET	1093	n/a	n/a	0	0	0
2391315	WORD	wordpools/wasnorm_wordpool_576.txt	LTP386	ltpFR2	22	12	COURSE	390	n/a	n/a	0	0	0
2393948	WORD	wordpools/wasnorm_wordpool_576.txt	LTP386	ltpFR2	22	12	HANDBAG	684	n/a	n/a	0	0	0
2396365	WORD	wordpools/wasnorm_wordpool_576.txt	LTP386	ltpFR2	22	12	JURY	766	n/a	n/a	0	0	0
2398881	WORD	wordpools/wasnorm_wordpool_576.txt	LTP386	ltpFR2	22	12	HUMAN	726	n/a	n/a	0	0	0
2401465	WORD	wordpools/wasnorm_wordpool_576.txt	LTP386	ltpFR2	22	12	PIGMENT	1066	n/a	n/a	0	0	0
2404148	WORD	wordpools/wasnorm_wordpool_576.txt	LTP386	ltpFR2	22	12	CLOCK	325	n/a	n/a	0	0	0
2405765	START	n/a	LTP386	ltpFR2	22	n/a	n/a	n/a	18	n/a	n/a	n/a	n/a
2406963	DISTRACTOR	n/a	LTP386	ltpFR2	22	12	n/a	n/a	n/a	n/a	0	0	0
2406965	PROB	n/a	LTP386	ltpFR2	22	n/a	n/a	n/a	18	14	5	1	8
2408831	PROB	n/a	LTP386	ltpFR2	22	n/a	n/a	n/a	18	18	2	7	9
2409915	PROB	n/a	LTP386	ltpFR2	22	n/a	n/a	n/a	18	18	6	5	7
2411148	PROB	n/a	LTP386	ltpFR2	22	n/a	n/a	n/a	18	19	5	5	9
2412031	PROB	n/a	LTP386	ltpFR2	22	n/a	n/a	n/a	18	9	1	5	3
2413881	PROB	n/a	LTP386	ltpFR2	22	n/a	n/a	n/a	18	9	3	1	5
2415131	PROB	n/a	LTP386	ltpFR2	22	n/a	n/a	n/a	18	17	4	7	6
2417031	PROB	n/a	LTP386	ltpFR2	22	n/a	n/a	n/a	18	20	7	4	9
2418415	PROB	n/a	LTP386	ltpFR2	22	n/a	n/a	n/a	18	19	7	7	5
2419881	PROB	n/a	LTP386	ltpFR2	22	n/a	n/a	n/a	18	11	7	3	1
2421431	PROB	n/a	LTP386	ltpFR2	22	n/a	n/a	n/a	18	9	5	3	1
2422781	PROB	n/a	LTP386	ltpFR2	22	n/a	n/a	n/a	18	11	6	4	1
2423632	PROB	n/a	LTP386	ltpFR2	22	n/a	n/a	n/a	18	10	4	2	4
2424998	PROB	n/a	LTP386	ltpFR2	22	n/a	n/a	n/a	18	18	7	4	7
2426364	PROB	n/a	LTP386	ltpFR2	22	n/a	n/a	n/a	18	14	6	7	1
2427831	PROB	n/a	LTP386	ltpFR2	22	n/a	n/a	n/a	18	8	4	2	2
2429020	STOP	n/a	LTP386	ltpFR2	22	n/a	n/a	n/a	18	n/a	n/a	n/a	n/a
2431698	REC_START	n/a	LTP386	ltpFR2	22	12	n/a	n/a	n/a	n/a	0	0	0
2432908	REC_WORD	wordpools/wasnorm_wordpool_576.txt	LTP386	ltpFR2	22	12	PILOT	1070	n/a	n/a	0	0	0
2436868	REC_WORD	wordpools/wasnorm_wordpool_576.txt	LTP386	ltpFR2	22	12	AIRPORT	13	n/a	n/a	0	0	0
2437827	REC_WORD	wordpools/wasnorm_wordpool_576.txt	LTP386	ltpFR2	22	12	CASHEW	253	n/a	n/a	0	0	0
2441687	REC_WORD	wordpools/wasnorm_wordpool_576.txt	LTP386	ltpFR2	22	12	TAXI	1438	n/a	n/a	0	0	0
2450045	REC_WORD	wordpools/wasnorm_wordpool_576.txt	LTP386	ltpFR2	22	12	LOFT	840	n/a	n/a	0	0	0
2522180	WORD	wordpools/wasnorm_wordpool_576.txt	LTP386	ltpFR2	22	13	PISTOL	1075	n/a	n/a	0	0	0
2524746	WORD	wordpools/wasnorm_wordpool_576.txt	LTP386	ltpFR2	22	13	TRENCH	1503	n/a	n/a	0	0	0
2527480	WORD	wordpools/wasnorm_wordpool_576.txt	LTP386	ltpFR2	22	13	PARTNER	1017	n/a	n/a	0	0	0
2530063	WORD	wordpools/wasnorm_wordpool_576.txt	LTP386	ltpFR2	22	13	NIGHTGOWN	953	n/a	n/a	0	0	0
2532763	WORD	wordpools/wasnorm_wordpool_576.txt	LTP386	ltpFR2	22	13	PARSLEY	1016	n/a	n/a	0	0	0
2535279	WORD	wordpools/wasnorm_wordpool_576.txt	LTP386	ltpFR2	22	13	RACKET	1155	n/a	n/a	0	0	0
2537963	WORD	wordpools/wasnorm_wordpool_576.txt	LTP386	ltpFR2	22	13	JUGGLER	763	n/a	n/a	0	0	0
2540746	WORD	wordpools/wasnorm_wordpool_576.txt	LTP386	ltpFR2	22	13	HERO	706	n/a	n/a	0	0	0
2543263	WORD	wordpools/wasnorm_wordpool_576.txt	LTP386	ltpFR2	22	13	ANTLER	29	n/a	n/a	0	0	0
2545779	WORD	wordpools/wasnorm_wordpool_576.txt	LTP386	ltpFR2	22	13	GARDEN	623	n/a	n/a	0	0	0
2548279	WORD	wordpools/wasnorm_wordpool_576.txt	LTP386	ltpFR2	22	13	PEPPER	1047	n/a	n/a	0	0	0
2550813	WORD	wordpools/wasnorm_wordpool_576.txt	LTP386	ltpFR2	22	13	GRAVEL	659	n/a	n/a	0	0	0
2553313	WORD	wordpools/wasnorm_wordpool_576.txt	LTP386	ltpFR2	22	13	MATTRESS	879	n/a	n/a	0	0	0
2555879	WORD	wordpools/wasnorm_wordpool_576.txt	LTP386	ltpFR2	22	13	COLONEL	348	n/a	n/a	0	0	0
2558679	WORD	wordpools/wasnorm_wordpool_576.txt	LTP386	ltpFR2	22	13	GAVEL	627	n/a	n/a	0	0	0
2561229	WORD	wordpools/wasnorm_wordpool_576.txt	LTP386	ltpFR2	22	13	QUEEN	1149	n/a	n/a	0	0	0
2563796	WORD	wordpools/wasnorm_wordpool_576.txt	LTP386	ltpFR2	22	13	SHARK	1275	n/a	n/a	0	0	0
2566379	WORD	wordpools/wasnorm_wordpool_576.txt	LTP386	ltpFR2	22	13	SEAGULL	1261	n/a	n/a	0	0	0
2568929	WORD	wordpools/wasnorm_wordpool_576.txt	LTP386	ltpFR2	22	13	MESSAGE	888	n/a	n/a	0	0	0
2571696	WORD	wordpools/wasnorm_wordpool_576.txt	LTP386	ltpFR2	22	13	FIDDLE	561	n/a	n/a	0	0	0
2574179	WORD	wordpools/wasnorm_wordpool_576.txt	LTP386	ltpFR2	22	13	COMET	353	n/a	n/a	0	0	0
2576630	WORD	wordpools/wasnorm_wordpool_576.txt	LTP386	ltpFR2	22	13	OZONE	996	n/a	n/a	0	0	0
2579329	WORD	wordpools/wasnorm_wordpool_576.txt	LTP386	ltpFR2	22	13	FILM	565	n/a	n/a	0	0	0
2582079	WORD	wordpools/wasnorm_wordpool_576.txt	LTP386	ltpFR2	22	13	POPCORN	1104	n/a	n/a	0	0	0
2583696	START	n/a	LTP386	ltpFR2	22	n/a	n/a	n/a	19	n/a	n/a	n/a	n/a
2584848	DISTRACTOR	n/a	LTP386	ltpFR2	22	13	n/a	n/a	n/a	n/a	0	0	0
2584862	PROB	n/a	LTP386	ltpFR2	22	n/a	n/a	n/a	19	18	8	2	8
2586845	PROB	n/a	LTP386	ltpFR2	22	n/a	n/a	n/a	19	24	7	8	9
2588379	PROB	n/a	LTP386	ltpFR2	22	n/a	n/a	n/a	19	17	7	6	4
2589395	PROB	n/a	LTP386	ltpFR2	22	n/a	n/a	n/a	19	7	3	2	2
2590613	PROB	n/a	LTP386	ltpFR2	22	n/a	n/a	n/a	19	14	8	3	3
2591812	PROB	n/a	LTP386	ltpFR2	22	n/a	n/a	n/a	19	18	8	9	1
2592812	PROB	n/a	LTP386	ltpFR2	22	n/a	n/a	n/a	19	16	4	6	6
2593929	PROB	n/a	LTP386	ltpFR2	22	n/a	n/a	n/a	19	8	2	5	1
2595212	PROB	n/a	LTP386	ltpFR2	22	n/a	n/a	n/a	19	11	2	1	8
2596495	PROB	n/a	LTP386	ltpFR2	22	n/a	n/a	n/a	19	13	8	4	1
2598462	PROB	n/a	LTP386	ltpFR2	22	n/a	n/a	n/a	19	18	6	7	5
2599962	PROB	n/a	LTP386	ltpFR2	22	n/a	n/a	n/a	19	13	3	1	9
2601428	PROB	n/a	LTP386	ltpFR2	22	n/a	n/a	n/a	19	9	4	5	1
2603546	PROB	n/a	LTP386	ltpFR2	22	n/a	n/a	n/a	19	14	4	5	5
2605278	PROB	n/a	LTP386	ltpFR2	22	n/a	n/a	n/a	19	13	5	4	4
2607362	STOP	n/a	LTP386	ltpFR2	22	n/a	n/a	n/a	19	n/a	n/a	n/a	n/a
2609546	REC_START	n/a	LTP386	ltpFR2	22	13	n/a	n/a	n/a	n/a	0	0	0
2610601	REC_WORD	wordpools/wasnorm_wordpool_576.txt	LTP386	ltpFR2	22	13	OZONE	996	n/a	n/a	0	0	0
2611539	REC_WORD	wordpools/wasnorm_wordpool_576.txt	LTP386	ltpFR2	22	13	FILM	565	n/a	n/a	0	0	0
2626938	REC_WORD	wordpools/wasnorm_wordpool_576.txt	LTP386	ltpFR2	22	13	GARDEN	623	n/a	n/a	0	0	0
2627653	REC_WORD	wordpools/wasnorm_wordpool_576.txt	LTP386	ltpFR2	22	13	PARSLEY	1016	n/a	n/a	0	0	0
2632738	REC_WORD	wordpools/wasnorm_wordpool_576.txt	LTP386	ltpFR2	22	13	CLOWN	330	n/a	n/a	0	0	0
2699994	DISTRACTOR	n/a	LTP386	ltpFR2	22	14	n/a	n/a	n/a	n/a	0	0	0
2699994	START	n/a	LTP386	ltpFR2	22	n/a	n/a	n/a	20	n/a	n/a	n/a	n/a
2700010	PROB	n/a	LTP386	ltpFR2	22	n/a	n/a	n/a	20	17	8	2	7
2701227	PROB	n/a	LTP386	ltpFR2	22	n/a	n/a	n/a	20	18	6	5	7
2702410	PROB	n/a	LTP386	ltpFR2	22	n/a	n/a	n/a	20	4	2	1	1
2703710	PROB	n/a	LTP386	ltpFR2	22	n/a	n/a	n/a	20	20	9	6	5
2705310	PROB	n/a	LTP386	ltpFR2	22	n/a	n/a	n/a	20	18	6	5	7
2706545	PROB	n/a	LTP386	ltpFR2	22	n/a	n/a	n/a	20	18	5	5	8
2707511	PROB	n/a	LTP386	ltpFR2	22	n/a	n/a	n/a	20	13	6	2	5
2709310	PROB	n/a	LTP386	ltpFR2	22	n/a	n/a	n/a	20	22	8	7	7
2711744	PROB	n/a	LTP386	ltpFR2	22	n/a	n/a	n/a	20	16	7	5	4
2713427	PROB	n/a	LTP386	ltpFR2	22	n/a	n/a	n/a	20	9	3	3	3
2714377	PROB	n/a	LTP386	ltpFR2	22	n/a	n/a	n/a	20	7	2	2	3
2715843	PROB	n/a	LTP386	ltpFR2	22	n/a	n/a	n/a	20	12	4	2	6
2717460	PROB	n/a	LTP386	ltpFR2	22	n/a	n/a	n/a	20	13	5	1	7
2718993	PROB	n/a	LTP386	ltpFR2	22	n/a	n/a	n/a	20	12	1	9	2
2719893	PROB	n/a	LTP386	ltpFR2	22	n/a	n/a	n/a	20	16	3	4	9
2721193	PROB	n/a	LTP386	ltpFR2	22	n/a	n/a	n/a	20	21	8	5	8
2723526	STOP	n/a	LTP386	ltpFR2	22	n/a	n/a	n/a	20	n/a	n/a	n/a	n/a
2725093	WORD	wordpools/wasnorm_wordpool_576.txt	LTP386	ltpFR2	22	14	SUNRISE	1407	n/a	n/a	0	0	0
2727777	WORD	wordpools/wasnorm_wordpool_576.txt	LTP386	ltpFR2	22	14	THREAD	1460	n/a	n/a	0	0	0
2730443	WORD	wordpools/wasnorm_wordpool_576.txt	LTP386	ltpFR2	22	14	SPOOL	1356	n/a	n/a	0	0	0
2733126	WORD	wordpools/wasnorm_wordpool_576.txt	LTP386	ltpFR2	22	14	LAPEL	800	n/a	n/a	0	0	0
2735843	WORD	wordpools/wasnorm_wordpool_576.txt	LTP386	ltpFR2	22	14	CHEMIST	292	n/a	n/a	0	0	0
2738611	WORD	wordpools/wasnorm_wordpool_576.txt	LTP386	ltpFR2	22	14	BATHTUB	100	n/a	n/a	0	0	0
2741193	WORD	wordpools/wasnorm_wordpool_576.txt	LTP386	ltpFR2	22	14	BUGGY	188	n/a	n/a	0	0	0
2743893	WORD	wordpools/wasnorm_wordpool_576.txt	LTP386	ltpFR2	22	14	BOUQUET	157	n/a	n/a	0	0	0
2746660	WORD	wordpools/wasnorm_wordpool_576.txt	LTP386	ltpFR2	22	14	ROOSTER	1209	n/a	n/a	0	0	0
2749126	WORD	wordpools/wasnorm_wordpool_576.txt	LTP386	ltpFR2	22	14	COIN	343	n/a	n/a	0	0	0
2751910	WORD	wordpools/wasnorm_wordpool_576.txt	LTP386	ltpFR2	22	14	SIBLING	1301	n/a	n/a	0	0	0
2754360	WORD	wordpools/wasnorm_wordpool_576.txt	LTP386	ltpFR2	22	14	CATTLE	261	n/a	n/a	0	0	0
2757176	WORD	wordpools/wasnorm_wordpool_576.txt	LTP386	ltpFR2	22	14	FUNGUS	614	n/a	n/a	0	0	0
2759893	WORD	wordpools/wasnorm_wordpool_576.txt	LTP386	ltpFR2	22	14	EGYPT	519	n/a	n/a	0	0	0
2762544	WORD	wordpools/wasnorm_wordpool_576.txt	LTP386	ltpFR2	22	14	ARM	38	n/a	n/a	0	0	0
2765043	WORD	wordpools/wasnorm_wordpool_576.txt	LTP386	ltpFR2	22	14	DIVER	476	n/a	n/a	0	0	0
2767859	WORD	wordpools/wasnorm_wordpool_576.txt	LTP386	ltpFR2	22	14	JUNGLE	764	n/a	n/a	0	0	0
2770476	WORD	wordpools/wasnorm_wordpool_576.txt	LTP386	ltpFR2	22	14	CHIPMUNK	304	n/a	n/a	0	0	0
2773193	WORD	wordpools/wasnorm_wordpool_576.txt	LTP386	ltpFR2	22	14	PROTON	1132	n/a	n/a	0	0	0
2775627	WORD	wordpools/wasnorm_wordpool_576.txt	LTP386	ltpFR2	22	14	LONDON	843	n/a	n/a	0	0	0
2778093	WORD	wordpools/wasnorm_wordpool_576.txt	LTP386	ltpFR2	22	14	EUROPE	541	n/a	n/a	0	0	0
2780659	WORD	wordpools/wasnorm_wordpool_576.txt	LTP386	ltpFR2	22	14	CROSS	413	n/a	n/a	0	0	0
2783259	WORD	wordpools/wasnorm_wordpool_576.txt	LTP386	ltpFR2	22	14	MILDEW	893	n/a	n/a	0	0	0
2785792	WORD	wordpools/wasnorm_wordpool_576.txt	LTP386	ltpFR2	22	14	SWAMP	1416	n/a	n/a	0	0	0
2787409	START	n/a	LTP386	ltpFR2	22	n/a	n/a	n/a	21	n/a	n/a	n/a	n/a
2788362	DISTRACTOR	n/a	LTP386	ltpFR2	22	14	n/a	n/a	n/a	n/a	0	0	0
2788376	PROB	n/a	LTP386	ltpFR2	22	n/a	n/a	n/a	21	9	6	1	2
2789726	PROB	n/a	LTP386	ltpFR2	22	n/a	n/a	n/a	21	22	9	5	8
2792676	PROB	n/a	LTP386	ltpFR2	22	n/a	n/a	n/a	21	21	7	6	8
2794176	PROB	n/a	LTP386	ltpFR2	22	n/a	n/a	n/a	21	23	9	9	5
2796610	PROB	n/a	LTP386	ltpFR2	22	n/a	n/a	n/a	21	17	2	9	6
2798242	PROB	n/a	LTP386	ltpFR2	22	n/a	n/a	n/a	21	15	7	5	3
2799809	PROB	n/a	LTP386	ltpFR2	22	n/a	n/a	n/a	21	14	7	3	4
2800876	PROB	n/a	LTP386	ltpFR2	22	n/a	n/a	n/a	21	23	9	7	7
2802292	PROB	n/a	LTP386	ltpFR2	22	n/a	n/a	n/a	21	9	4	2	3
2804275	PROB	n/a	LTP386	ltpFR2	22	n/a	n/a	n/a	21	14	1	9	4
2805342	PROB	n/a	LTP386	ltpFR2	22	n/a	n/a	n/a	21	14	6	6	2
2806510	PROB	n/a	LTP386	ltpFR2	22	n/a	n/a	n/a	21	11	4	6	1
2807459	PROB	n/a	LTP386	ltpFR2	22	n/a	n/a	n/a	21	18	7	2	9
2808510	PROB	n/a	LTP386	ltpFR2	22	n/a	n/a	n/a	21	25	8	7	8
2811320	STOP	n/a	LTP386	ltpFR2	22	n/a	n/a	n/a	21	n/a	n/a	n/a	n/a
2813192	REC_START	n/a	LTP386	ltpFR2	22	14	n/a	n/a	n/a	n/a	0	0	0
2824378	REC_WORD	wordpools/wasnorm_wordpool_576.txt	LTP386	ltpFR2	22	14	ROOSTER	1209	n/a	n/a	0	0	0
2825225	REC_WORD	wordpools/wasnorm_wordpool_576.txt	LTP386	ltpFR2	22	14	CATTLE	261	n/a	n/a	0	0	0
2827887	REC_WORD	wordpools/wasnorm_wordpool_576.txt	LTP386	ltpFR2	22	14	BOUQUET	157	n/a	n/a	0	0	0
2903657	WORD	wordpools/wasnorm_wordpool_576.txt	LTP386	ltpFR2	22	15	WIDOW	1608	n/a	n/a	0	0	0
2906441	WORD	wordpools/wasnorm_wordpool_576.txt	LTP386	ltpFR2	22	15	CRAB	397	n/a	n/a	0	0	0
2909074	WORD	wordpools/wasnorm_wordpool_576.txt	LTP386	ltpFR2	22	15	PALACE	1006	n/a	n/a	0	0	0
2911724	WORD	wordpools/wasnorm_wordpool_576.txt	LTP386	ltpFR2	22	15	OFFICE	972	n/a	n/a	0	0	0
2914257	WORD	wordpools/wasnorm_wordpool_576.txt	LTP386	ltpFR2	22	15	POLICE	1098	n/a	n/a	0	0	0
2916940	WORD	wordpools/wasnorm_wordpool_576.txt	LTP386	ltpFR2	22	15	THRONE	1461	n/a	n/a	0	0	0
2919674	WORD	wordpools/wasnorm_wordpool_576.txt	LTP386	ltpFR2	22	15	HARP	689	n/a	n/a	0	0	0
2922340	WORD	wordpools/wasnorm_wordpool_576.txt	LTP386	ltpFR2	22	15	BIKE	125	n/a	n/a	0	0	0
2925107	WORD	wordpools/wasnorm_wordpool_576.txt	LTP386	ltpFR2	22	15	DRIVER	499	n/a	n/a	0	0	0
2927625	WORD	wordpools/wasnorm_wordpool_576.txt	LTP386	ltpFR2	22	15	PUPPY	1144	n/a	n/a	0	0	0
2930274	WORD	wordpools/wasnorm_wordpool_576.txt	LTP386	ltpFR2	22	15	BRIEFCASE	175	n/a	n/a	0	0	0
2932757	WORD	wordpools/wasnorm_wordpool_576.txt	LTP386	ltpFR2	22	15	CRITIC	410	n/a	n/a	0	0	0
2935273	WORD	wordpools/wasnorm_wordpool_576.txt	LTP386	ltpFR2	22	15	PACKAGE	997	n/a	n/a	0	0	0
2937940	WORD	wordpools/wasnorm_wordpool_576.txt	LTP386	ltpFR2	22	15	PARENT	1013	n/a	n/a	0	0	0
2940508	WORD	wordpools/wasnorm_wordpool_576.txt	LTP386	ltpFR2	22	15	SCISSORS	1250	n/a	n/a	0	0	0
2943290	WORD	wordpools/wasnorm_wordpool_576.txt	LTP386	ltpFR2	22	15	VIRUS	1572	n/a	n/a	0	0	0
2946073	WORD	wordpools/wasnorm_wordpool_576.txt	LTP386	ltpFR2	22	15	STOVE	1388	n/a	n/a	0	0	0
2948558	WORD	wordpools/wasnorm_wordpool_576.txt	LTP386	ltpFR2	22	15	RIVER	1194	n/a	n/a	0	0	0
2951073	WORD	wordpools/wasnorm_wordpool_576.txt	LTP386	ltpFR2	22	15	VALLEY	1545	n/a	n/a	0	0	0
2953558	WORD	wordpools/wasnorm_wordpool_576.txt	LTP386	ltpFR2	22	15	ACTRESS	6	n/a	n/a	0	0	0
2956090	WORD	wordpools/wasnorm_wordpool_576.txt	LTP386	ltpFR2	22	15	TART	1436	n/a	n/a	0	0	0
2958624	WORD	wordpools/wasnorm_wordpool_576.txt	LTP386	ltpFR2	22	15	TREAT	1501	n/a	n/a	0	0	0
2961456	WORD	wordpools/wasnorm_wordpool_576.txt	LTP386	ltpFR2	22	15	DRESS	495	n/a	n/a	0	0	0
2964106	WORD	wordpools/wasnorm_wordpool_576.txt	LTP386	ltpFR2	22	15	SKIRT	1319	n/a	n/a	0	0	0
2965723	START	n/a	LTP386	ltpFR2	22	n/a	n/a	n/a	22	n/a	n/a	n/a	n/a
2966690	DISTRACTOR	n/a	LTP386	ltpFR2	22	15	n/a	n/a	n/a	n/a	0	0	0
2966706	PROB	n/a	LTP386	ltpFR2	22	n/a	n/a	n/a	22	21	3	9	9
2969356	PROB	n/a	LTP386	ltpFR2	22	n/a	n/a	n/a	22	12	3	2	7
2970524	PROB	n/a	LTP386	ltpFR2	22	n/a	n/a	n/a	22	14	2	7	7
2972323	PROB	n/a	LTP386	ltpFR2	22	n/a	n/a	n/a	22	13	1	9	3
2974373	PROB	n/a	LTP386	ltpFR2	22	n/a	n/a	n/a	22	12	2	2	8
2975456	PROB	n/a	LTP386	ltpFR2	22	n/a	n/a	n/a	22	16	3	5	8
2977856	PROB	n/a	LTP386	ltpFR2	22	n/a	n/a	n/a	22	14	5	7	2
2980289	PROB	n/a	LTP386	ltpFR2	22	n/a	n/a	n/a	22	17	4	5	8
2981789	PROB	n/a	LTP386	ltpFR2	22	n/a	n/a	n/a	22	14	3	3	8
2983290	PROB	n/a	LTP386	ltpFR2	22	n/a	n/a	n/a	22	10	1	5	4
2984789	PROB	n/a	LTP386	ltpFR2	22	n/a	n/a	n/a	22	9	4	2	3
2986389	PROB	n/a	LTP386	ltpFR2	22	n/a	n/a	n/a	22	17	4	5	8
2988189	STOP	n/a	LTP386	ltpFR2	22	n/a	n/a	n/a	22	n/a	n/a	n/a	n/a
2991656	REC_START	n/a	LTP386	ltpFR2	22	15	n/a	n/a	n/a	n/a	0	0	0
2994522	REC_WORD	wordpools/wasnorm_wordpool_576.txt	LTP386	ltpFR2	22	15	PARENT	1013	n/a	n/a	0	0	0
2995528	REC_WORD	wordpools/wasnorm_wordpool_576.txt	LTP386	ltpFR2	22	15	SCISSORS	1250	n/a	n/a	0	0	0
3000559	REC_WORD	wordpools/wasnorm_wordpool_576.txt	LTP386	ltpFR2	22	15	TREAT	1501	n/a	n/a	0	0	0
3001312	REC_WORD	wordpools/wasnorm_wordpool_576.txt	LTP386	ltpFR2	22	15	TART	1436	n/a	n/a	0	0	0
3082121	WORD	wordpools/wasnorm_wordpool_576.txt	LTP386	ltpFR2	22	16	FINGER	567	n/a	n/a	0	0	0
3084805	WORD	wordpools/wasnorm_wordpool_576.txt	LTP386	ltpFR2	22	16	SALMON	1227	n/a	n/a	0	0	0
3087288	WORD	wordpools/wasnorm_wordpool_576.txt	LTP386	ltpFR2	22	16	COUSIN	392	n/a	n/a	0	0	0
3090004	WORD	wordpools/wasnorm_wordpool_576.txt	LTP386	ltpFR2	22	16	FOREHEAD	592	n/a	n/a	0	0	0
3092705	WORD	wordpools/wasnorm_wordpool_576.txt	LTP386	ltpFR2	22	16	COSTUME	383	n/a	n/a	0	0	0
3095171	WORD	wordpools/wasnorm_wordpool_576.txt	LTP386	ltpFR2	22	16	FOX	598	n/a	n/a	0	0	0
3097738	WORD	wordpools/wasnorm_wordpool_576.txt	LTP386	ltpFR2	22	16	ROCKET	1202	n/a	n/a	0	0	0
3100338	WORD	wordpools/wasnorm_wordpool_576.txt	LTP386	ltpFR2	22	16	MISSILE	900	n/a	n/a	0	0	0
3103054	WORD	wordpools/wasnorm_wordpool_576.txt	LTP386	ltpFR2	22	16	MILK	895	n/a	n/a	0	0	0
3105639	WORD	wordpools/wasnorm_wordpool_576.txt	LTP386	ltpFR2	22	16	OMELET	976	n/a	n/a	0	0	0
3108238	WORD	wordpools/wasnorm_wordpool_576.txt	LTP386	ltpFR2	22	16	MATCH	878	n/a	n/a	0	0	0
3110788	WORD	wordpools/wasnorm_wordpool_576.txt	LTP386	ltpFR2	22	16	FRECKLE	602	n/a	n/a	0	0	0
3113589	WORD	wordpools/wasnorm_wordpool_576.txt	LTP386	ltpFR2	22	16	HORSE	719	n/a	n/a	0	0	0
3116121	WORD	wordpools/wasnorm_wordpool_576.txt	LTP386	ltpFR2	22	16	FARMER	553	n/a	n/a	0	0	0
3118588	WORD	wordpools/wasnorm_wordpool_576.txt	LTP386	ltpFR2	22	16	GALLON	618	n/a	n/a	0	0	0
3121387	WORD	wordpools/wasnorm_wordpool_576.txt	LTP386	ltpFR2	22	16	COLLEGE	346	n/a	n/a	0	0	0
3124104	WORD	wordpools/wasnorm_wordpool_576.txt	LTP386	ltpFR2	22	16	SODA	1341	n/a	n/a	0	0	0
3126854	WORD	wordpools/wasnorm_wordpool_576.txt	LTP386	ltpFR2	22	16	VICTIM	1562	n/a	n/a	0	0	0
3129304	WORD	wordpools/wasnorm_wordpool_576.txt	LTP386	ltpFR2	22	16	ROBBER	1197	n/a	n/a	0	0	0
3131804	WORD	wordpools/wasnorm_wordpool_576.txt	LTP386	ltpFR2	22	16	BLENDER	136	n/a	n/a	0	0	0
3134487	WORD	wordpools/wasnorm_wordpool_576.txt	LTP386	ltpFR2	22	16	BALLOON	75	n/a	n/a	0	0	0
3137154	WORD	wordpools/wasnorm_wordpool_576.txt	LTP386	ltpFR2	22	16	BURGLAR	200	n/a	n/a	0	0	0
3139904	WORD	wordpools/wasnorm_wordpool_576.txt	LTP386	ltpFR2	22	16	BANKER	84	n/a	n/a	0	0	0
3142670	WORD	wordpools/wasnorm_wordpool_576.txt	LTP386	ltpFR2	22	16	BANK	83	n/a	n/a	0	0	0
3144287	START	n/a	LTP386	ltpFR2	22	n/a	n/a	n/a	23	n/a	n/a	n/a	n/a
3145374	DISTRACTOR	n/a	LTP386	ltpFR2	22	16	n/a	n/a	n/a	n/a	0	0	0
3145387	PROB	n/a	LTP386	ltpFR2	22	n/a	n/a	n/a	23	10	5	3	2
3146787	PROB	n/a	LTP386	ltpFR2	22	n/a	n/a	n/a	23	20	9	5	6
3148387	PROB	n/a	LTP386	ltpFR2	22	n/a	n/a	n/a	23	11	2	3	6
3149720	PROB	n/a	LTP386	ltpFR2	22	n/a	n/a	n/a	23	17	5	6	6
3150987	PROB	n/a	LTP386	ltpFR2	22	n/a	n/a	n/a	23	17	7	9	1
3152104	PROB	n/a	LTP386	ltpFR2	22	n/a	n/a	n/a	23	22	5	9	8
3154621	PROB	n/a	LTP386	ltpFR2	22	n/a	n/a	n/a	23	17	3	9	5
3156154	PROB	n/a	LTP386	ltpFR2	22	n/a	n/a	n/a	23	18	8	4	7
3157670	PROB	n/a	LTP386	ltpFR2	22	n/a	n/a	n/a	23	10	2	3	5
3159521	PROB	n/a	LTP386	ltpFR2	22	n/a	n/a	n/a	23	21	7	9	6
3162320	PROB	n/a	LTP386	ltpFR2	22	n/a	n/a	n/a	23	16	2	7	7
3163837	PROB	n/a	LTP386	ltpFR2	22	n/a	n/a	n/a	23	16	3	4	9
3165403	PROB	n/a	LTP386	ltpFR2	22	n/a	n/a	n/a	23	9	1	4	4
3168287	STOP	n/a	LTP386	ltpFR2	22	n/a	n/a	n/a	23	n/a	n/a	n/a	n/a
3170104	REC_START	n/a	LTP386	ltpFR2	22	16	n/a	n/a	n/a	n/a	0	0	0
3171372	REC_WORD	wordpools/wasnorm_wordpool_576.txt	LTP386	ltpFR2	22	16	BURGLAR	200	n/a	n/a	0	0	0
3172383	REC_WORD	wordpools/wasnorm_wordpool_576.txt	LTP386	ltpFR2	22	16	BANKER	84	n/a	n/a	0	0	0
3173057	REC_WORD	wordpools/wasnorm_wordpool_576.txt	LTP386	ltpFR2	22	16	BANK	83	n/a	n/a	0	0	0
3246637	REST_REWET	n/a	LTP386	ltpFR2	22	16	n/a	n/a	n/a	n/a	0	0	0
3397133	WORD	wordpools/wasnorm_wordpool_576.txt	LTP386	ltpFR2	22	17	DRESSER	496	n/a	n/a	0	0	0
3399767	WORD	wordpools/wasnorm_wordpool_576.txt	LTP386	ltpFR2	22	17	WITNESS	1618	n/a	n/a	0	0	0
3402383	WORD	wordpools/wasnorm_wordpool_576.txt	LTP386	ltpFR2	22	17	CONVICT	371	n/a	n/a	0	0	0
3404850	WORD	wordpools/wasnorm_wordpool_576.txt	LTP386	ltpFR2	22	17	FREEZER	604	n/a	n/a	0	0	0
3407450	WORD	wordpools/wasnorm_wordpool_576.txt	LTP386	ltpFR2	22	17	CASHIER	254	n/a	n/a	0	0	0
3409983	WORD	wordpools/wasnorm_wordpool_576.txt	LTP386	ltpFR2	22	17	DIME	466	n/a	n/a	0	0	0
3412466	WORD	wordpools/wasnorm_wordpool_576.txt	LTP386	ltpFR2	22	17	BISON	131	n/a	n/a	0	0	0
3415216	WORD	wordpools/wasnorm_wordpool_576.txt	LTP386	ltpFR2	22	17	SCALLOP	1242	n/a	n/a	0	0	0
3417850	WORD	wordpools/wasnorm_wordpool_576.txt	LTP386	ltpFR2	22	17	CHEST	295	n/a	n/a	0	0	0
3420316	WORD	wordpools/wasnorm_wordpool_576.txt	LTP386	ltpFR2	22	17	PICTURE	1061	n/a	n/a	0	0	0
3423033	WORD	wordpools/wasnorm_wordpool_576.txt	LTP386	ltpFR2	22	17	FLEET	578	n/a	n/a	0	0	0
3425483	WORD	wordpools/wasnorm_wordpool_576.txt	LTP386	ltpFR2	22	17	PANTHER	1009	n/a	n/a	0	0	0
3428133	WORD	wordpools/wasnorm_wordpool_576.txt	LTP386	ltpFR2	22	17	AIRPLANE	12	n/a	n/a	0	0	0
3430916	WORD	wordpools/wasnorm_wordpool_576.txt	LTP386	ltpFR2	22	17	CUSTARD	429	n/a	n/a	0	0	0
3433500	WORD	wordpools/wasnorm_wordpool_576.txt	LTP386	ltpFR2	22	17	SHOULDER	1294	n/a	n/a	0	0	0
3436116	WORD	wordpools/wasnorm_wordpool_576.txt	LTP386	ltpFR2	22	17	COTTAGE	384	n/a	n/a	0	0	0
3438683	WORD	wordpools/wasnorm_wordpool_576.txt	LTP386	ltpFR2	22	17	LOVER	846	n/a	n/a	0	0	0
3441316	WORD	wordpools/wasnorm_wordpool_576.txt	LTP386	ltpFR2	22	17	PECAN	1036	n/a	n/a	0	0	0
3443933	WORD	wordpools/wasnorm_wordpool_576.txt	LTP386	ltpFR2	22	17	STICKER	1382	n/a	n/a	0	0	0
3446567	WORD	wordpools/wasnorm_wordpool_576.txt	LTP386	ltpFR2	22	17	FLUTE	585	n/a	n/a	0	0	0
3449032	WORD	wordpools/wasnorm_wordpool_576.txt	LTP386	ltpFR2	22	17	HEDGE	699	n/a	n/a	0	0	0
3451449	WORD	wordpools/wasnorm_wordpool_576.txt	LTP386	ltpFR2	22	17	TWIG	1527	n/a	n/a	0	0	0
3454132	WORD	wordpools/wasnorm_wordpool_576.txt	LTP386	ltpFR2	22	17	BOYFRIEND	162	n/a	n/a	0	0	0
3456799	WORD	wordpools/wasnorm_wordpool_576.txt	LTP386	ltpFR2	22	17	STATUE	1374	n/a	n/a	0	0	0
3458416	START	n/a	LTP386	ltpFR2	22	n/a	n/a	n/a	24	n/a	n/a	n/a	n/a
3459454	DISTRACTOR	n/a	LTP386	ltpFR2	22	17	n/a	n/a	n/a	n/a	0	0	0
3459466	PROB	n/a	LTP386	ltpFR2	22	n/a	n/a	n/a	24	23	8	7	8
3462332	PROB	n/a	LTP386	ltpFR2	22	n/a	n/a	n/a	24	17	6	4	7
3463567	PROB	n/a	LTP386	ltpFR2	22	n/a	n/a	n/a	24	10	3	6	1
3464666	PROB	n/a	LTP386	ltpFR2	22	n/a	n/a	n/a	24	16	4	8	4
3466466	PROB	n/a	LTP386	ltpFR2	22	n/a	n/a	n/a	24	15	1	6	8
3468266	PROB	n/a	LTP386	ltpFR2	22	n/a	n/a	n/a	24	21	5	9	7
3469765	PROB	n/a	LTP386	ltpFR2	22	n/a	n/a	n/a	24	17	7	9	2
3472882	PROB	n/a	LTP386	ltpFR2	22	n/a	n/a	n/a	24	16	1	9	6
3474649	PROB	n/a	LTP386	ltpFR2	22	n/a	n/a	n/a	24	7	2	4	1
3476365	PROB	n/a	LTP386	ltpFR2	22	n/a	n/a	n/a	24	10	2	6	2
3477482	PROB	n/a	LTP386	ltpFR2	22	n/a	n/a	n/a	24	9	1	4	4
3478932	PROB	n/a	LTP386	ltpFR2	22	n/a	n/a	n/a	24	16	6	7	3
3480332	PROB	n/a	LTP386	ltpFR2	22	n/a	n/a	n/a	24	22	7	6	9
3481845	STOP	n/a	LTP386	ltpFR2	22	n/a	n/a	n/a	24	n/a	n/a	n/a	n/a
3484299	REC_START	n/a	LTP386	ltpFR2	22	17	n/a	n/a	n/a	n/a	0	0	0
3527047	REC_WORD_VV	wordpools/wasnorm_wordpool_576.txt	LTP386	ltpFR2	22	17	<>	-1	n/a	n/a	0	0	0
3574747	DISTRACTOR	n/a	LTP386	ltpFR2	22	18	n/a	n/a	n/a	n/a	0	0	0
3574747	START	n/a	LTP386	ltpFR2	22	n/a	n/a	n/a	25	n/a	n/a	n/a	n/a
3574764	PROB	n/a	LTP386	ltpFR2	22	n/a	n/a	n/a	25	14	7	6	1
3576264	PROB	n/a	LTP386	ltpFR2	22	n/a	n/a	n/a	25	20	9	3	8
3577981	PROB	n/a	LTP386	ltpFR2	22	n/a	n/a	n/a	25	12	8	1	3
3579047	PROB	n/a	LTP386	ltpFR2	22	n/a	n/a	n/a	25	11	2	3	6
3580981	PROB	n/a	LTP386	ltpFR2	22	n/a	n/a	n/a	25	14	6	5	3
3582680	PROB	n/a	LTP386	ltpFR2	22	n/a	n/a	n/a	25	10	3	5	2
3584830	PROB	n/a	LTP386	ltpFR2	22	n/a	n/a	n/a	25	20	5	6	9
3586064	PROB	n/a	LTP386	ltpFR2	22	n/a	n/a	n/a	25	12	4	2	6
3587230	PROB	n/a	LTP386	ltpFR2	22	n/a	n/a	n/a	25	14	4	5	5
3588480	PROB	n/a	LTP386	ltpFR2	22	n/a	n/a	n/a	25	18	9	1	8
3589565	PROB	n/a	LTP386	ltpFR2	22	n/a	n/a	n/a	25	6	1	3	2
3591314	PROB	n/a	LTP386	ltpFR2	22	n/a	n/a	n/a	25	19	1	1	7
3592548	PROB	n/a	LTP386	ltpFR2	22	n/a	n/a	n/a	25	13	3	4	6
3593880	PROB	n/a	LTP386	ltpFR2	22	n/a	n/a	n/a	25	10	2	5	3
3595264	PROB	n/a	LTP386	ltpFR2	22	n/a	n/a	n/a	25	12	2	6	4
3596515	PROB	n/a	LTP386	ltpFR2	22	n/a	n/a	n/a	25	22	9	6	7
3597888	STOP	n/a	LTP386	ltpFR2	22	n/a	n/a	n/a	25	n/a	n/a	n/a	n/a
3599964	WORD	wordpools/wasnorm_wordpool_576.txt	LTP386	ltpFR2	22	18	TURKEY	1520	n/a	n/a	0	0	0
3602764	WORD	wordpools/wasnorm_wordpool_576.txt	LTP386	ltpFR2	22	18	BUNNY	198	n/a	n/a	0	0	0
3605247	WORD	wordpools/wasnorm_wordpool_576.txt	LTP386	ltpFR2	22	18	VAGRANT	1544	n/a	n/a	0	0	0
3607730	WORD	wordpools/wasnorm_wordpool_576.txt	LTP386	ltpFR2	22	18	SERVER	1272	n/a	n/a	0	0	0
3610397	WORD	wordpools/wasnorm_wordpool_576.txt	LTP386	ltpFR2	22	18	DONOR	485	n/a	n/a	0	0	0
3613130	WORD	wordpools/wasnorm_wordpool_576.txt	LTP386	ltpFR2	22	18	TRANSPLANT	1496	n/a	n/a	0	0	0
3615847	WORD	wordpools/wasnorm_wordpool_576.txt	LTP386	ltpFR2	22	18	DUSTPAN	509	n/a	n/a	0	0	0
3618531	WORD	wordpools/wasnorm_wordpool_576.txt	LTP386	ltpFR2	22	18	DUST	508	n/a	n/a	0	0	0
3621263	WORD	wordpools/wasnorm_wordpool_576.txt	LTP386	ltpFR2	22	18	SEAL	1262	n/a	n/a	0	0	0
3624013	WORD	wordpools/wasnorm_wordpool_576.txt	LTP386	ltpFR2	22	18	POSSUM	1112	n/a	n/a	0	0	0
3626531	WORD	wordpools/wasnorm_wordpool_576.txt	LTP386	ltpFR2	22	18	LODGE	839	n/a	n/a	0	0	0
3629180	WORD	wordpools/wasnorm_wordpool_576.txt	LTP386	ltpFR2	22	18	POSTAGE	1113	n/a	n/a	0	0	0
3631980	WORD	wordpools/wasnorm_wordpool_576.txt	LTP386	ltpFR2	22	18	HEART	697	n/a	n/a	0	0	0
3634581	WORD	wordpools/wasnorm_wordpool_576.txt	LTP386	ltpFR2	22	18	LETTUCE	814	n/a	n/a	0	0	0
3637013	WORD	wordpools/wasnorm_wordpool_576.txt	LTP386	ltpFR2	22	18	COFFEE	341	n/a	n/a	0	0	0
3639663	WORD	wordpools/wasnorm_wordpool_576.txt	LTP386	ltpFR2	22	18	SCULPTURE	1258	n/a	n/a	0	0	0
3642130	WORD	wordpools/wasnorm_wordpool_576.txt	LTP386	ltpFR2	22	18	PIGEON	1065	n/a	n/a	0	0	0
3644680	WORD	wordpools/wasnorm_wordpool_576.txt	LTP386	ltpFR2	22	18	SADDLE	1221	n/a	n/a	0	0	0
3647196	WORD	wordpools/wasnorm_wordpool_576.txt	LTP386	ltpFR2	22	18	TRACTOR	1493	n/a	n/a	0	0	0
3649680	WORD	wordpools/wasnorm_wordpool_576.txt	LTP386	ltpFR2	22	18	MASK	876	n/a	n/a	0	0	0
3652463	WORD	wordpools/wasnorm_wordpool_576.txt	LTP386	ltpFR2	22	18	YACHT	1629	n/a	n/a	0	0	0
3655029	WORD	wordpools/wasnorm_wordpool_576.txt	LTP386	ltpFR2	22	18	FRAGRANCE	599	n/a	n/a	0	0	0
3657463	WORD	wordpools/wasnorm_wordpool_576.txt	LTP386	ltpFR2	22	18	WAITRESS	1581	n/a	n/a	0	0	0
3660029	WORD	wordpools/wasnorm_wordpool_576.txt	LTP386	ltpFR2	22	18	COOK	372	n/a	n/a	0	0	0
3661631	START	n/a	LTP386	ltpFR2	22	n/a	n/a	n/a	26	n/a	n/a	n/a	n/a
3662596	DISTRACTOR	n/a	LTP386	ltpFR2	22	18	n/a	n/a	n/a	n/a	0	0	0
3662630	PROB	n/a	LTP386	ltpFR2	22	n/a	n/a	n/a	26	9	4	2	3
3664363	PROB	n/a	LTP386	ltpFR2	22	n/a	n/a	n/a	26	17	2	6	9
3665646	PROB	n/a	LTP386	ltpFR2	22	n/a	n/a	n/a	26	7	1	2	4
3667129	PROB	n/a	LTP386	ltpFR2	22	n/a	n/a	n/a	26	21	7	5	9
3668396	PROB	n/a	LTP386	ltpFR2	22	n/a	n/a	n/a	26	14	6	2	6
3669597	PROB	n/a	LTP386	ltpFR2	22	n/a	n/a	n/a	26	14	7	4	3
3670779	PROB	n/a	LTP386	ltpFR2	22	n/a	n/a	n/a	26	8	1	6	1
3671746	PROB	n/a	LTP386	ltpFR2	22	n/a	n/a	n/a	26	15	7	5	3
3673129	PROB	n/a	LTP386	ltpFR2	22	n/a	n/a	n/a	26	23	8	8	7
3675129	PROB	n/a	LTP386	ltpFR2	22	n/a	n/a	n/a	26	20	2	9	9
3676547	PROB	n/a	LTP386	ltpFR2	22	n/a	n/a	n/a	26	14	9	4	1
3677796	PROB	n/a	LTP386	ltpFR2	22	n/a	n/a	n/a	26	8	3	4	1
3679429	PROB	n/a	LTP386	ltpFR2	22	n/a	n/a	n/a	26	17	9	5	3
3680662	PROB	n/a	LTP386	ltpFR2	22	n/a	n/a	n/a	26	8	1	2	4
3682246	PROB	n/a	LTP386	ltpFR2	22	n/a	n/a	n/a	26	13	6	4	3
3683329	PROB	n/a	LTP386	ltpFR2	22	n/a	n/a	n/a	26	10	8	1	1
3684411	STOP	n/a	LTP386	ltpFR2	22	n/a	n/a	n/a	26	n/a	n/a	n/a	n/a
3687463	REC_START	n/a	LTP386	ltpFR2	22	18	n/a	n/a	n/a	n/a	0	0	0
3687711	REC_WORD	wordpools/wasnorm_wordpool_576.txt	LTP386	ltpFR2	22	18	TURKEY	1520	n/a	n/a	0	0	0
3688214	REC_WORD	wordpools/wasnorm_wordpool_576.txt	LTP386	ltpFR2	22	18	BUNNY	198	n/a	n/a	0	0	0
3690494	REC_WORD	wordpools/wasnorm_wordpool_576.txt	LTP386	ltpFR2	22	18	TRANSPLANT	1496	n/a	n/a	0	0	0
3691321	REC_WORD	wordpools/wasnorm_wordpool_576.txt	LTP386	ltpFR2	22	18	VAGRANT	1544	n/a	n/a	0	0	0
3777894	DISTRACTOR	n/a	LTP386	ltpFR2	22	19	n/a	n/a	n/a	n/a	0	0	0
3777894	START	n/a	LTP386	ltpFR2	22	n/a	n/a	n/a	27	n/a	n/a	n/a	n/a
3777911	PROB	n/a	LTP386	ltpFR2	22	n/a	n/a	n/a	27	19	1	9	9
3779512	PROB	n/a	LTP386	ltpFR2	22	n/a	n/a	n/a	27	12	4	3	5
3781178	PROB	n/a	LTP386	ltpFR2	22	n/a	n/a	n/a	27	15	5	6	4
3782194	PROB	n/a	LTP386	ltpFR2	22	n/a	n/a	n/a	27	25	9	8	7
3784028	PROB	n/a	LTP386	ltpFR2	22	n/a	n/a	n/a	27	15	9	2	4
3785629	PROB	n/a	LTP386	ltpFR2	22	n/a	n/a	n/a	27	16	5	9	2
3787478	PROB	n/a	LTP386	ltpFR2	22	n/a	n/a	n/a	27	18	8	8	2
3789361	PROB	n/a	LTP386	ltpFR2	22	n/a	n/a	n/a	27	20	9	6	5
3790944	PROB	n/a	LTP386	ltpFR2	22	n/a	n/a	n/a	27	24	8	8	8
3792211	PROB	n/a	LTP386	ltpFR2	22	n/a	n/a	n/a	27	11	1	9	1
3793027	PROB	n/a	LTP386	ltpFR2	22	n/a	n/a	n/a	27	5	2	2	1
3794211	PROB	n/a	LTP386	ltpFR2	22	n/a	n/a	n/a	27	12	2	2	8
3795612	PROB	n/a	LTP386	ltpFR2	22	n/a	n/a	n/a	27	21	9	3	9
3797227	PROB	n/a	LTP386	ltpFR2	22	n/a	n/a	n/a	27	12	2	1	9
3798461	PROB	n/a	LTP386	ltpFR2	22	n/a	n/a	n/a	27	15	4	5	6
3801894	STOP	n/a	LTP386	ltpFR2	22	n/a	n/a	n/a	27	n/a	n/a	n/a	n/a
3803044	WORD	wordpools/wasnorm_wordpool_576.txt	LTP386	ltpFR2	22	19	STALLION	1369	n/a	n/a	0	0	0
3805761	WORD	wordpools/wasnorm_wordpool_576.txt	LTP386	ltpFR2	22	19	SALT	1229	n/a	n/a	0	0	0
3808244	WORD	wordpools/wasnorm_wordpool_576.txt	LTP386	ltpFR2	22	19	PIANO	1057	n/a	n/a	0	0	0
3810977	WORD	wordpools/wasnorm_wordpool_576.txt	LTP386	ltpFR2	22	19	CARRIAGE	248	n/a	n/a	0	0	0
3813578	WORD	wordpools/wasnorm_wordpool_576.txt	LTP386	ltpFR2	22	19	INFANT	737	n/a	n/a	0	0	0
3816194	WORD	wordpools/wasnorm_wordpool_576.txt	LTP386	ltpFR2	22	19	PLAYGROUND	1087	n/a	n/a	0	0	0
3818910	WORD	wordpools/wasnorm_wordpool_576.txt	LTP386	ltpFR2	22	19	BADGE	68	n/a	n/a	0	0	0
3821611	WORD	wordpools/wasnorm_wordpool_576.txt	LTP386	ltpFR2	22	19	GLOBE	641	n/a	n/a	0	0	0
3824160	WORD	wordpools/wasnorm_wordpool_576.txt	LTP386	ltpFR2	22	19	BODY	145	n/a	n/a	0	0	0
3826893	WORD	wordpools/wasnorm_wordpool_576.txt	LTP386	ltpFR2	22	19	SPOON	1357	n/a	n/a	0	0	0
3829410	WORD	wordpools/wasnorm_wordpool_576.txt	LTP386	ltpFR2	22	19	PERFUME	1049	n/a	n/a	0	0	0
3832010	WORD	wordpools/wasnorm_wordpool_576.txt	LTP386	ltpFR2	22	19	PERCH	1048	n/a	n/a	0	0	0
3834528	WORD	wordpools/wasnorm_wordpool_576.txt	LTP386	ltpFR2	22	19	GHETTO	633	n/a	n/a	0	0	0
3837343	WORD	wordpools/wasnorm_wordpool_576.txt	LTP386	ltpFR2	22	19	LAGOON	795	n/a	n/a	0	0	0
3839943	WORD	wordpools/wasnorm_wordpool_576.txt	LTP386	ltpFR2	22	19	ONION	977	n/a	n/a	0	0	0
3842377	WORD	wordpools/wasnorm_wordpool_576.txt	LTP386	ltpFR2	22	19	ASIA	46	n/a	n/a	0	0	0
3845127	WORD	wordpools/wasnorm_wordpool_576.txt	LTP386	ltpFR2	22	19	BABY	64	n/a	n/a	0	0	0
3847927	WORD	wordpools/wasnorm_wordpool_576.txt	LTP386	ltpFR2	22	19	CRIB	407	n/a	n/a	0	0	0
3850726	WORD	wordpools/wasnorm_wordpool_576.txt	LTP386	ltpFR2	22	19	BLUEPRINT	142	n/a	n/a	0	0	0
3853427	WORD	wordpools/wasnorm_wordpool_576.txt	LTP386	ltpFR2	22	19	LUNCH	849	n/a	n/a	0	0	0
3856043	WORD	wordpools/wasnorm_wordpool_576.txt	LTP386	ltpFR2	22	19	FLESH	579	n/a	n/a	0	0	0
3858693	WORD	wordpools/wasnorm_wordpool_576.txt	LTP386	ltpFR2	22	19	PADDING	999	n/a	n/a	0	0	0
3861410	WORD	wordpools/wasnorm_wordpool_576.txt	LTP386	ltpFR2	22	19	GLASS	639	n/a	n/a	0	0	0
3864010	WORD	wordpools/wasnorm_wordpool_576.txt	LTP386	ltpFR2	22	19	CURTAIN	427	n/a	n/a	0	0	0
3865627	START	n/a	LTP386	ltpFR2	22	n/a	n/a	n/a	28	n/a	n/a	n/a	n/a
3866551	DISTRACTOR	n/a	LTP386	ltpFR2	22	19	n/a	n/a	n/a	n/a	0	0	0
3866561	PROB	n/a	LTP386	ltpFR2	22	n/a	n/a	n/a	28	15	1	9	5
3867926	PROB	n/a	LTP386	ltpFR2	22	n/a	n/a	n/a	28	11	1	2	8
3869594	PROB	n/a	LTP386	ltpFR2	22	n/a	n/a	n/a	28	13	2	9	2
3870860	PROB	n/a	LTP386	ltpFR2	22	n/a	n/a	n/a	28	11	1	3	7
3871810	PROB	n/a	LTP386	ltpFR2	22	n/a	n/a	n/a	28	13	7	2	5
3873660	PROB	n/a	LTP386	ltpFR2	22	n/a	n/a	n/a	28	14	1	7	6
3875510	PROB	n/a	LTP386	ltpFR2	22	n/a	n/a	n/a	28	8	1	2	5
3877193	PROB	n/a	LTP386	ltpFR2	22	n/a	n/a	n/a	28	15	7	4	4
3879393	PROB	n/a	LTP386	ltpFR2	22	n/a	n/a	n/a	28	12	2	2	8
3880809	PROB	n/a	LTP386	ltpFR2	22	n/a	n/a	n/a	28	12	2	7	3
3881793	PROB	n/a	LTP386	ltpFR2	22	n/a	n/a	n/a	28	14	5	5	4
3883293	PROB	n/a	LTP386	ltpFR2	22	n/a	n/a	n/a	28	9	2	2	5
3884693	PROB	n/a	LTP386	ltpFR2	22	n/a	n/a	n/a	28	9	5	3	1
3886993	PROB	n/a	LTP386	ltpFR2	22	n/a	n/a	n/a	28	14	2	9	3
3888434	STOP	n/a	LTP386	ltpFR2	22	n/a	n/a	n/a	28	n/a	n/a	n/a	n/a
3891527	REC_START	n/a	LTP386	ltpFR2	22	19	n/a	n/a	n/a	n/a	0	0	0
3892513	REC_WORD	wordpools/wasnorm_wordpool_576.txt	LTP386	ltpFR2	22	19	STALLION	1369	n/a	n/a	0	0	0
3893322	REC_WORD	wordpools/wasnorm_wordpool_576.txt	LTP386	ltpFR2	22	19	SALT	1229	n/a	n/a	0	0	0
3894108	REC_WORD	wordpools/wasnorm_wordpool_576.txt	LTP386	ltpFR2	22	19	SPOON	1357	n/a	n/a	0	0	0
3981991	WORD	wordpools/wasnorm_wordpool_576.txt	LTP386	ltpFR2	22	20	CEILING	265	n/a	n/a	0	0	0
3984724	WORD	wordpools/wasnorm_wordpool_576.txt	LTP386	ltpFR2	22	20	HOUND	724	n/a	n/a	0	0	0
3987358	WORD	wordpools/wasnorm_wordpool_576.txt	LTP386	ltpFR2	22	20	PARROT	1015	n/a	n/a	0	0	0
3990108	WORD	wordpools/wasnorm_wordpool_576.txt	LTP386	ltpFR2	22	20	SCRIBBLE	1256	n/a	n/a	0	0	0
3992758	WORD	wordpools/wasnorm_wordpool_576.txt	LTP386	ltpFR2	22	20	BEAKER	104	n/a	n/a	0	0	0
3995291	WORD	wordpools/wasnorm_wordpool_576.txt	LTP386	ltpFR2	22	20	TWEEZERS	1526	n/a	n/a	0	0	0
3997758	WORD	wordpools/wasnorm_wordpool_576.txt	LTP386	ltpFR2	22	20	WRENCH	1625	n/a	n/a	0	0	0
4000274	WORD	wordpools/wasnorm_wordpool_576.txt	LTP386	ltpFR2	22	20	OUTDOORS	987	n/a	n/a	0	0	0
4002941	WORD	wordpools/wasnorm_wordpool_576.txt	LTP386	ltpFR2	22	20	BRAKE	166	n/a	n/a	0	0	0
4005575	WORD	wordpools/wasnorm_wordpool_576.txt	LTP386	ltpFR2	22	20	BLOCKADE	137	n/a	n/a	0	0	0
4008124	WORD	wordpools/wasnorm_wordpool_576.txt	LTP386	ltpFR2	22	20	COBRA	336	n/a	n/a	0	0	0
4010891	WORD	wordpools/wasnorm_wordpool_576.txt	LTP386	ltpFR2	22	20	GUITAR	670	n/a	n/a	0	0	0
4013674	WORD	wordpools/wasnorm_wordpool_576.txt	LTP386	ltpFR2	22	20	DONKEY	484	n/a	n/a	0	0	0
4016191	WORD	wordpools/wasnorm_wordpool_576.txt	LTP386	ltpFR2	22	20	CLOUD	328	n/a	n/a	0	0	0
4018674	WORD	wordpools/wasnorm_wordpool_576.txt	LTP386	ltpFR2	22	20	DAISY	435	n/a	n/a	0	0	0
4021407	WORD	wordpools/wasnorm_wordpool_576.txt	LTP386	ltpFR2	22	20	RECORD	1176	n/a	n/a	0	0	0
4024157	WORD	wordpools/wasnorm_wordpool_576.txt	LTP386	ltpFR2	22	20	SHORTS	1293	n/a	n/a	0	0	0
4026691	WORD	wordpools/wasnorm_wordpool_576.txt	LTP386	ltpFR2	22	20	CAPTIVE	240	n/a	n/a	0	0	0
4029457	WORD	wordpools/wasnorm_wordpool_576.txt	LTP386	ltpFR2	22	20	CHILD	299	n/a	n/a	0	0	0
4031907	WORD	wordpools/wasnorm_wordpool_576.txt	LTP386	ltpFR2	22	20	PEANUT	1032	n/a	n/a	0	0	0
4034674	WORD	wordpools/wasnorm_wordpool_576.txt	LTP386	ltpFR2	22	20	FOREST	593	n/a	n/a	0	0	0
4037157	WORD	wordpools/wasnorm_wordpool_576.txt	LTP386	ltpFR2	22	20	LILY	821	n/a	n/a	0	0	0
4039940	WORD	wordpools/wasnorm_wordpool_576.txt	LTP386	ltpFR2	22	20	LASER	801	n/a	n/a	0	0	0
4042490	WORD	wordpools/wasnorm_wordpool_576.txt	LTP386	ltpFR2	22	20	TUNNEL	1519	n/a	n/a	0	0	0
4044107	START	n/a	LTP386	ltpFR2	22	n/a	n/a	n/a	29	n/a	n/a	n/a	n/a
4045249	DISTRACTOR	n/a	LTP386	ltpFR2	22	20	n/a	n/a	n/a	n/a	0	0	0
4045257	PROB	n/a	LTP386	ltpFR2	22	n/a	n/a	n/a	29	17	5	7	5
4046757	PROB	n/a	LTP386	ltpFR2	22	n/a	n/a	n/a	29	10	5	1	4
4049307	PROB	n/a	LTP386	ltpFR2	22	n/a	n/a	n/a	29	13	4	8	1
4050424	PROB	n/a	LTP386	ltpFR2	22	n/a	n/a	n/a	29	21	7	6	8
4053440	PROB	n/a	LTP386	ltpFR2	22	n/a	n/a	n/a	29	11	3	7	1
4054773	PROB	n/a	LTP386	ltpFR2	22	n/a	n/a	n/a	29	16	6	8	2
4056007	PROB	n/a	LTP386	ltpFR2	22	n/a	n/a	n/a	29	15	6	5	4
4058357	PROB	n/a	LTP386	ltpFR2	22	n/a	n/a	n/a	29	18	3	7	8
4059773	PROB	n/a	LTP386	ltpFR2	22	n/a	n/a	n/a	29	11	8	1	1
4060790	PROB	n/a	LTP386	ltpFR2	22	n/a	n/a	n/a	29	15	2	7	6
4063624	PROB	n/a	LTP386	ltpFR2	22	n/a	n/a	n/a	29	21	8	8	3
4065273	PROB	n/a	LTP386	ltpFR2	22	n/a	n/a	n/a	29	11	4	1	6
4066240	PROB	n/a	LTP386	ltpFR2	22	n/a	n/a	n/a	29	12	5	1	6
4067544	STOP	n/a	LTP386	ltpFR2	22	n/a	n/a	n/a	29	n/a	n/a	n/a	n/a
4069990	REC_START	n/a	LTP386	ltpFR2	22	20	n/a	n/a	n/a	n/a	0	0	0
4071022	REC_WORD	wordpools/wasnorm_wordpool_576.txt	LTP386	ltpFR2	22	20	LILY	821	n/a	n/a	0	0	0
4071639	REC_WORD	wordpools/wasnorm_wordpool_576.txt	LTP386	ltpFR2	22	20	TUNNEL	1519	n/a	n/a	0	0	0
4073654	REC_WORD	wordpools/wasnorm_wordpool_576.txt	LTP386	ltpFR2	22	20	TUNNEL	1519	n/a	n/a	0	0	0
4074106	REC_WORD_VV	wordpools/wasnorm_wordpool_576.txt	LTP386	ltpFR2	22	20	<>	-1	n/a	n/a	0	0	0
4160455	WORD	wordpools/wasnorm_wordpool_576.txt	LTP386	ltpFR2	22	21	TILE	1468	n/a	n/a	0	0	0
4162972	WORD	wordpools/wasnorm_wordpool_576.txt	LTP386	ltpFR2	22	21	NEUTRON	947	n/a	n/a	0	0	0
4165655	WORD	wordpools/wasnorm_wordpool_576.txt	LTP386	ltpFR2	22	21	ATOM	55	n/a	n/a	0	0	0
4168388	WORD	wordpools/wasnorm_wordpool_576.txt	LTP386	ltpFR2	22	21	NOMAD	955	n/a	n/a	0	0	0
4171105	WORD	wordpools/wasnorm_wordpool_576.txt	LTP386	ltpFR2	22	21	SNAKE	1333	n/a	n/a	0	0	0
4173573	WORD	wordpools/wasnorm_wordpool_576.txt	LTP386	ltpFR2	22	21	DANDRUFF	439	n/a	n/a	0	0	0
4176305	WORD	wordpools/wasnorm_wordpool_576.txt	LTP386	ltpFR2	22	21	IGLOO	734	n/a	n/a	0	0	0
4179121	WORD	wordpools/wasnorm_wordpool_576.txt	LTP386	ltpFR2	22	21	KLEENEX	782	n/a	n/a	0	0	0
4181671	WORD	wordpools/wasnorm_wordpool_576.txt	LTP386	ltpFR2	22	21	APPLE	33	n/a	n/a	0	0	0
4184472	WORD	wordpools/wasnorm_wordpool_576.txt	LTP386	ltpFR2	22	21	PLAZA	1088	n/a	n/a	0	0	0
4186988	WORD	wordpools/wasnorm_wordpool_576.txt	LTP386	ltpFR2	22	21	HEADBAND	696	n/a	n/a	0	0	0
4189438	WORD	wordpools/wasnorm_wordpool_576.txt	LTP386	ltpFR2	22	21	RAZOR	1171	n/a	n/a	0	0	0
4191921	WORD	wordpools/wasnorm_wordpool_576.txt	LTP386	ltpFR2	22	21	PEACH	1031	n/a	n/a	0	0	0
4194622	WORD	wordpools/wasnorm_wordpool_576.txt	LTP386	ltpFR2	22	21	ZIPPER	1636	n/a	n/a	0	0	0
4197421	WORD	wordpools/wasnorm_wordpool_576.txt	LTP386	ltpFR2	22	21	SWORD	1423	n/a	n/a	0	0	0
4200055	WORD	wordpools/wasnorm_wordpool_576.txt	LTP386	ltpFR2	22	21	COMPASS	358	n/a	n/a	0	0	0
4202755	WORD	wordpools/wasnorm_wordpool_576.txt	LTP386	ltpFR2	22	21	CRAYON	401	n/a	n/a	0	0	0
4205255	WORD	wordpools/wasnorm_wordpool_576.txt	LTP386	ltpFR2	22	21	EYELASH	546	n/a	n/a	0	0	0
4207754	WORD	wordpools/wasnorm_wordpool_576.txt	LTP386	ltpFR2	22	21	MAILMAN	858	n/a	n/a	0	0	0
4210454	WORD	wordpools/wasnorm_wordpool_576.txt	LTP386	ltpFR2	22	21	REBEL	1172	n/a	n/a	0	0	0
4213054	WORD	wordpools/wasnorm_wordpool_576.txt	LTP386	ltpFR2	22	21	MARKET	871	n/a	n/a	0	0	0
4215488	WORD	wordpools/wasnorm_wordpool_576.txt	LTP386	ltpFR2	22	21	PICNIC	1060	n/a	n/a	0	0	0
4218004	WORD	wordpools/wasnorm_wordpool_576.txt	LTP386	ltpFR2	22	21	GYMNAST	675	n/a	n/a	0	0	0
4220639	WORD	wordpools/wasnorm_wordpool_576.txt	LTP386	ltpFR2	22	21	TRIBE	1505	n/a	n/a	0	0	0
4222254	START	n/a	LTP386	ltpFR2	22	n/a	n/a	n/a	30	n/a	n/a	n/a	n/a
4223237	DISTRACTOR	n/a	LTP386	ltpFR2	22	21	n/a	n/a	n/a	n/a	0	0	0
4223254	PROB	n/a	LTP386	ltpFR2	22	n/a	n/a	n/a	30	17	5	8	4
4225154	PROB	n/a	LTP386	ltpFR2	22	n/a	n/a	n/a	30	13	4	7	2
4226821	PROB	n/a	LTP386	ltpFR2	22	n/a	n/a	n/a	30	18	3	8	7
4228254	PROB	n/a	LTP386	ltpFR2	22	n/a	n/a	n/a	30	9	4	1	4
4229404	PROB	n/a	LTP386	ltpFR2	22	n/a	n/a	n/a	30	19	3	9	7
4231104	PROB	n/a	LTP386	ltpFR2	22	n/a	n/a	n/a	30	17	8	4	5
4232687	PROB	n/a	LTP386	ltpFR2	22	n/a	n/a	n/a	30	8	5	1	2
4233837	PROB	n/a	LTP386	ltpFR2	22	n/a	n/a	n/a	30	16	7	2	7
4236137	PROB	n/a	LTP386	ltpFR2	22	n/a	n/a	n/a	30	8	3	1	4
4237171	PROB	n/a	LTP386	ltpFR2	22	n/a	n/a	n/a	30	20	8	5	7
4238622	PROB	n/a	LTP386	ltpFR2	22	n/a	n/a	n/a	30	16	8	6	2
4240804	PROB	n/a	LTP386	ltpFR2	22	n/a	n/a	n/a	30	16	8	7	1
4242087	PROB	n/a	LTP386	ltpFR2	22	n/a	n/a	n/a	30	11	1	3	7
4243121	PROB	n/a	LTP386	ltpFR2	22	n/a	n/a	n/a	30	15	8	3	4
4244772	STOP	n/a	LTP386	ltpFR2	22	n/a	n/a	n/a	30	n/a	n/a	n/a	n/a
4248022	REC_START	n/a	LTP386	ltpFR2	22	21	n/a	n/a	n/a	n/a	0	0	0
4248886	REC_WORD	wordpools/wasnorm_wordpool_576.txt	LTP386	ltpFR2	22	21	IGLOO	734	n/a	n/a	0	0	0
4249579	REC_WORD	wordpools/wasnorm_wordpool_576.txt	LTP386	ltpFR2	22	21	PLAZA	1088	n/a	n/a	0	0	0
4252353	REC_WORD	wordpools/wasnorm_wordpool_576.txt	LTP386	ltpFR2	22	21	PEACH	1031	n/a	n/a	0	0	0
4256155	REC_WORD	wordpools/wasnorm_wordpool_576.txt	LTP386	ltpFR2	22	21	MAILMAN	858	n/a	n/a	0	0	0
4258254	REC_WORD	wordpools/wasnorm_wordpool_576.txt	LTP386	ltpFR2	22	21	REBEL	1172	n/a	n/a	0	0	0
4338469	DISTRACTOR	n/a	LTP386	ltpFR2	22	22	n/a	n/a	n/a	n/a	0	0	0
4338469	START	n/a	LTP386	ltpFR2	22	n/a	n/a	n/a	31	n/a	n/a	n/a	n/a
4338486	PROB	n/a	LTP386	ltpFR2	22	n/a	n/a	n/a	31	12	8	2	2
4339852	PROB	n/a	LTP386	ltpFR2	22	n/a	n/a	n/a	31	17	8	1	8
4341453	PROB	n/a	LTP386	ltpFR2	22	n/a	n/a	n/a	31	12	5	3	4
4343319	PROB	n/a	LTP386	ltpFR2	22	n/a	n/a	n/a	31	10	2	4	4
4344786	PROB	n/a	LTP386	ltpFR2	22	n/a	n/a	n/a	31	16	3	6	7
4346152	PROB	n/a	LTP386	ltpFR2	22	n/a	n/a	n/a	31	12	9	3	1
4347169	PROB	n/a	LTP386	ltpFR2	22	n/a	n/a	n/a	31	18	9	5	4
4348486	PROB	n/a	LTP386	ltpFR2	22	n/a	n/a	n/a	31	14	9	4	1
4349669	PROB	n/a	LTP386	ltpFR2	22	n/a	n/a	n/a	31	19	6	7	6
4351219	PROB	n/a	LTP386	ltpFR2	22	n/a	n/a	n/a	31	12	3	6	3
4352402	PROB	n/a	LTP386	ltpFR2	22	n/a	n/a	n/a	31	20	5	6	9
4353852	PROB	n/a	LTP386	ltpFR2	22	n/a	n/a	n/a	31	15	5	7	3
4355086	PROB	n/a	LTP386	ltpFR2	22	n/a	n/a	n/a	31	10	5	3	2
4356919	PROB	n/a	LTP386	ltpFR2	22	n/a	n/a	n/a	31	15	1	8	6
4358553	PROB	n/a	LTP386	ltpFR2	22	n/a	n/a	n/a	31	21	3	9	9
4359936	PROB	n/a	LTP386	ltpFR2	22	n/a	n/a	n/a	31	11	5	1	5
4360852	PROB	n/a	LTP386	ltpFR2	22	n/a	n/a	n/a	31	16	8	1	7
4362304	STOP	n/a	LTP386	ltpFR2	22	n/a	n/a	n/a	31	n/a	n/a	n/a	n/a
4363570	WORD	wordpools/wasnorm_wordpool_576.txt	LTP386	ltpFR2	22	22	CHAUFFEUR	283	n/a	n/a	0	0	0
4366069	WORD	wordpools/wasnorm_wordpool_576.txt	LTP386	ltpFR2	22	22	AUTHOR	61	n/a	n/a	0	0	0
4368570	WORD	wordpools/wasnorm_wordpool_576.txt	LTP386	ltpFR2	22	22	NOVEL	960	n/a	n/a	0	0	0
4371269	WORD	wordpools/wasnorm_wordpool_576.txt	LTP386	ltpFR2	22	22	DENTIST	447	n/a	n/a	0	0	0
4374085	WORD	wordpools/wasnorm_wordpool_576.txt	LTP386	ltpFR2	22	22	BRACES	164	n/a	n/a	0	0	0
4376735	WORD	wordpools/wasnorm_wordpool_576.txt	LTP386	ltpFR2	22	22	PORK	1108	n/a	n/a	0	0	0
4379252	WORD	wordpools/wasnorm_wordpool_576.txt	LTP386	ltpFR2	22	22	CUPBOARD	425	n/a	n/a	0	0	0
4381852	WORD	wordpools/wasnorm_wordpool_576.txt	LTP386	ltpFR2	22	22	BUG	187	n/a	n/a	0	0	0
4384503	WORD	wordpools/wasnorm_wordpool_576.txt	LTP386	ltpFR2	22	22	COCOON	339	n/a	n/a	0	0	0
4387035	WORD	wordpools/wasnorm_wordpool_576.txt	LTP386	ltpFR2	22	22	COUNTRY	388	n/a	n/a	0	0	0
4389485	WORD	wordpools/wasnorm_wordpool_576.txt	LTP386	ltpFR2	22	22	SHRUB	1299	n/a	n/a	0	0	0
4392285	WORD	wordpools/wasnorm_wordpool_576.txt	LTP386	ltpFR2	22	22	LABEL	790	n/a	n/a	0	0	0
4394785	WORD	wordpools/wasnorm_wordpool_576.txt	LTP386	ltpFR2	22	22	WASP	1593	n/a	n/a	0	0	0
4397503	WORD	wordpools/wasnorm_wordpool_576.txt	LTP386	ltpFR2	22	22	MEAT	883	n/a	n/a	0	0	0
4400335	WORD	wordpools/wasnorm_wordpool_576.txt	LTP386	ltpFR2	22	22	SPOUSE	1358	n/a	n/a	0	0	0
4402902	WORD	wordpools/wasnorm_wordpool_576.txt	LTP386	ltpFR2	22	22	LACE	792	n/a	n/a	0	0	0
4405619	WORD	wordpools/wasnorm_wordpool_576.txt	LTP386	ltpFR2	22	22	SHELF	1280	n/a	n/a	0	0	0
4408302	WORD	wordpools/wasnorm_wordpool_576.txt	LTP386	ltpFR2	22	22	WHISKERS	1605	n/a	n/a	0	0	0
4411001	WORD	wordpools/wasnorm_wordpool_576.txt	LTP386	ltpFR2	22	22	PIMPLE	1071	n/a	n/a	0	0	0
4413768	WORD	wordpools/wasnorm_wordpool_576.txt	LTP386	ltpFR2	22	22	YARN	1631	n/a	n/a	0	0	0
4416218	WORD	wordpools/wasnorm_wordpool_576.txt	LTP386	ltpFR2	22	22	LEADER	807	n/a	n/a	0	0	0
4418968	WORD	wordpools/wasnorm_wordpool_576.txt	LTP386	ltpFR2	22	22	MUMMY	932	n/a	n/a	0	0	0
4421485	WORD	wordpools/wasnorm_wordpool_576.txt	LTP386	ltpFR2	22	22	CLOTHES	327	n/a	n/a	0	0	0
4424168	WORD	wordpools/wasnorm_wordpool_576.txt	LTP386	ltpFR2	22	22	KITCHEN	778	n/a	n/a	0	0	0
4425785	START	n/a	LTP386	ltpFR2	22	n/a	n/a	n/a	32	n/a	n/a	n/a	n/a
4426600	DISTRACTOR	n/a	LTP386	ltpFR2	22	22	n/a	n/a	n/a	n/a	0	0	0
4426602	PROB	n/a	LTP386	ltpFR2	22	n/a	n/a	n/a	32	22	6	9	7
4428968	PROB	n/a	LTP386	ltpFR2	22	n/a	n/a	n/a	32	13	4	5	4
4430734	PROB	n/a	LTP386	ltpFR2	22	n/a	n/a	n/a	32	21	5	8	8
4432701	PROB	n/a	LTP386	ltpFR2	22	n/a	n/a	n/a	32	19	2	8	9
4433918	PROB	n/a	LTP386	ltpFR2	22	n/a	n/a	n/a	32	16	4	5	7
4435384	PROB	n/a	LTP386	ltpFR2	22	n/a	n/a	n/a	32	11	1	8	2
4437084	PROB	n/a	LTP386	ltpFR2	22	n/a	n/a	n/a	32	12	7	3	2
4438218	PROB	n/a	LTP386	ltpFR2	22	n/a	n/a	n/a	32	13	5	5	3
4439268	PROB	n/a	LTP386	ltpFR2	22	n/a	n/a	n/a	32	21	6	8	7
4440984	PROB	n/a	LTP386	ltpFR2	22	n/a	n/a	n/a	32	10	2	4	4
4442184	PROB	n/a	LTP386	ltpFR2	22	n/a	n/a	n/a	32	14	7	6	1
4443784	PROB	n/a	LTP386	ltpFR2	22	n/a	n/a	n/a	32	19	8	7	4
4445585	PROB	n/a	LTP386	ltpFR2	22	n/a	n/a	n/a	32	13	7	1	5
4447118	PROB	n/a	LTP386	ltpFR2	22	n/a	n/a	n/a	32	12	2	3	8
4449130	STOP	n/a	LTP386	ltpFR2	22	n/a	n/a	n/a	32	n/a	n/a	n/a	n/a
4451586	REC_START	n/a	LTP386	ltpFR2	22	22	n/a	n/a	n/a	n/a	0	0	0
4526586	REC_WORD_VV	wordpools/wasnorm_wordpool_576.txt	LTP386	ltpFR2	22	22	<>	-1	n/a	n/a	0	0	0
4542033	DISTRACTOR	n/a	LTP386	ltpFR2	22	23	n/a	n/a	n/a	n/a	0	0	0
4542033	START	n/a	LTP386	ltpFR2	22	n/a	n/a	n/a	33	n/a	n/a	n/a	n/a
4542049	PROB	n/a	LTP386	ltpFR2	22	n/a	n/a	n/a	33	12	5	3	4
4544366	PROB	n/a	LTP386	ltpFR2	22	n/a	n/a	n/a	33	16	7	7	2
4545699	PROB	n/a	LTP386	ltpFR2	22	n/a	n/a	n/a	33	16	3	7	6
4546799	PROB	n/a	LTP386	ltpFR2	22	n/a	n/a	n/a	33	10	1	7	2
4548199	PROB	n/a	LTP386	ltpFR2	22	n/a	n/a	n/a	33	16	6	2	8
4549584	PROB	n/a	LTP386	ltpFR2	22	n/a	n/a	n/a	33	12	1	2	9
4550949	PROB	n/a	LTP386	ltpFR2	22	n/a	n/a	n/a	33	15	3	9	3
4552066	PROB	n/a	LTP386	ltpFR2	22	n/a	n/a	n/a	33	20	6	7	7
4553666	PROB	n/a	LTP386	ltpFR2	22	n/a	n/a	n/a	33	24	8	6	8
4555550	PROB	n/a	LTP386	ltpFR2	22	n/a	n/a	n/a	33	17	4	9	4
4557166	PROB	n/a	LTP386	ltpFR2	22	n/a	n/a	n/a	33	11	1	3	7
4558332	PROB	n/a	LTP386	ltpFR2	22	n/a	n/a	n/a	33	16	9	5	2
4559799	PROB	n/a	LTP386	ltpFR2	22	n/a	n/a	n/a	33	13	2	4	7
4561399	PROB	n/a	LTP386	ltpFR2	22	n/a	n/a	n/a	33	4	2	1	1
4562466	PROB	n/a	LTP386	ltpFR2	22	n/a	n/a	n/a	33	14	4	5	5
4563799	PROB	n/a	LTP386	ltpFR2	22	n/a	n/a	n/a	33	15	2	9	4
4564846	STOP	n/a	LTP386	ltpFR2	22	n/a	n/a	n/a	33	n/a	n/a	n/a	n/a
4567066	WORD	wordpools/wasnorm_wordpool_576.txt	LTP386	ltpFR2	22	23	GRAVE	658	n/a	n/a	0	0	0
4569533	WORD	wordpools/wasnorm_wordpool_576.txt	LTP386	ltpFR2	22	23	BARREL	91	n/a	n/a	0	0	0
4572149	WORD	wordpools/wasnorm_wordpool_576.txt	LTP386	ltpFR2	22	23	CANAL	226	n/a	n/a	0	0	0
4574583	WORD	wordpools/wasnorm_wordpool_576.txt	LTP386	ltpFR2	22	23	CREATURE	403	n/a	n/a	0	0	0
4577382	WORD	wordpools/wasnorm_wordpool_576.txt	LTP386	ltpFR2	22	23	ISLAND	745	n/a	n/a	0	0	0
4580132	WORD	wordpools/wasnorm_wordpool_576.txt	LTP386	ltpFR2	22	23	PASTA	1021	n/a	n/a	0	0	0
4582865	WORD	wordpools/wasnorm_wordpool_576.txt	LTP386	ltpFR2	22	23	COD	340	n/a	n/a	0	0	0
4585550	WORD	wordpools/wasnorm_wordpool_576.txt	LTP386	ltpFR2	22	23	SMOG	1330	n/a	n/a	0	0	0
4588015	WORD	wordpools/wasnorm_wordpool_576.txt	LTP386	ltpFR2	22	23	OX	994	n/a	n/a	0	0	0
4590449	WORD	wordpools/wasnorm_wordpool_576.txt	LTP386	ltpFR2	22	23	SALAD	1224	n/a	n/a	0	0	0
4593049	WORD	wordpools/wasnorm_wordpool_576.txt	LTP386	ltpFR2	22	23	SLUG	1329	n/a	n/a	0	0	0
4595865	WORD	wordpools/wasnorm_wordpool_576.txt	LTP386	ltpFR2	22	23	MONEY	908	n/a	n/a	0	0	0
4598482	WORD	wordpools/wasnorm_wordpool_576.txt	LTP386	ltpFR2	22	23	TOURIST	1488	n/a	n/a	0	0	0
4600999	WORD	wordpools/wasnorm_wordpool_576.txt	LTP386	ltpFR2	22	23	MAPLE	866	n/a	n/a	0	0	0
4603699	WORD	wordpools/wasnorm_wordpool_576.txt	LTP386	ltpFR2	22	23	BRANCH	168	n/a	n/a	0	0	0
4606265	WORD	wordpools/wasnorm_wordpool_576.txt	LTP386	ltpFR2	22	23	EXPERT	543	n/a	n/a	0	0	0
4608932	WORD	wordpools/wasnorm_wordpool_576.txt	LTP386	ltpFR2	22	23	SNAIL	1332	n/a	n/a	0	0	0
4611665	WORD	wordpools/wasnorm_wordpool_576.txt	LTP386	ltpFR2	22	23	TERMITE	1451	n/a	n/a	0	0	0
4614165	WORD	wordpools/wasnorm_wordpool_576.txt	LTP386	ltpFR2	22	23	SPIDER	1351	n/a	n/a	0	0	0
4616665	WORD	wordpools/wasnorm_wordpool_576.txt	LTP386	ltpFR2	22	23	LION	827	n/a	n/a	0	0	0
4619115	WORD	wordpools/wasnorm_wordpool_576.txt	LTP386	ltpFR2	22	23	WOMAN	1620	n/a	n/a	0	0	0
4621765	WORD	wordpools/wasnorm_wordpool_576.txt	LTP386	ltpFR2	22	23	STUDENT	1395	n/a	n/a	0	0	0
4624282	WORD	wordpools/wasnorm_wordpool_576.txt	LTP386	ltpFR2	22	23	LADDER	793	n/a	n/a	0	0	0
4626948	WORD	wordpools/wasnorm_wordpool_576.txt	LTP386	ltpFR2	22	23	MARROW	872	n/a	n/a	0	0	0
4628549	START	n/a	LTP386	ltpFR2	22	n/a	n/a	n/a	34	n/a	n/a	n/a	n/a
4629650	DISTRACTOR	n/a	LTP386	ltpFR2	22	23	n/a	n/a	n/a	n/a	0	0	0
4629665	PROB	n/a	LTP386	ltpFR2	22	n/a	n/a	n/a	34	12	4	4	4
4630998	PROB	n/a	LTP386	ltpFR2	22	n/a	n/a	n/a	34	16	1	6	9
4632065	PROB	n/a	LTP386	ltpFR2	22	n/a	n/a	n/a	34	12	2	6	4
4633098	PROB	n/a	LTP386	ltpFR2	22	n/a	n/a	n/a	34	13	7	1	5
4634398	PROB	n/a	LTP386	ltpFR2	22	n/a	n/a	n/a	34	26	9	8	7
4637131	PROB	n/a	LTP386	ltpFR2	22	n/a	n/a	n/a	34	11	7	2	2
4638248	PROB	n/a	LTP386	ltpFR2	22	n/a	n/a	n/a	34	16	3	5	8
4639665	PROB	n/a	LTP386	ltpFR2	22	n/a	n/a	n/a	34	23	5	9	9
4642549	PROB	n/a	LTP386	ltpFR2	22	n/a	n/a	n/a	34	15	9	4	2
4643731	PROB	n/a	LTP386	ltpFR2	22	n/a	n/a	n/a	34	12	2	5	5
4644715	PROB	n/a	LTP386	ltpFR2	22	n/a	n/a	n/a	34	24	9	9	6
4646499	PROB	n/a	LTP386	ltpFR2	22	n/a	n/a	n/a	34	17	9	1	7
4647715	PROB	n/a	LTP386	ltpFR2	22	n/a	n/a	n/a	34	19	5	7	7
4649248	PROB	n/a	LTP386	ltpFR2	22	n/a	n/a	n/a	34	13	3	1	9
4650298	PROB	n/a	LTP386	ltpFR2	22	n/a	n/a	n/a	34	14	3	6	5
4651737	STOP	n/a	LTP386	ltpFR2	22	n/a	n/a	n/a	34	n/a	n/a	n/a	n/a
4654499	REC_START	n/a	LTP386	ltpFR2	22	23	n/a	n/a	n/a	n/a	0	0	0
4655471	REC_WORD	wordpools/wasnorm_wordpool_576.txt	LTP386	ltpFR2	22	23	GRAVE	658	n/a	n/a	0	0	0
4656112	REC_WORD_VV	wordpools/wasnorm_wordpool_576.txt	LTP386	ltpFR2	22	23	<>	-1	n/a	n/a	0	0	0
4657242	REC_WORD	wordpools/wasnorm_wordpool_576.txt	LTP386	ltpFR2	22	23	BARREL	91	n/a	n/a	0	0	0
4657898	REC_WORD	wordpools/wasnorm_wordpool_576.txt	LTP386	ltpFR2	22	23	CANAL	226	n/a	n/a	0	0	0
4658744	REC_WORD	wordpools/wasnorm_wordpool_576.txt	LTP386	ltpFR2	22	23	SNAIL	1332	n/a	n/a	0	0	0
4659637	REC_WORD	wordpools/wasnorm_wordpool_576.txt	LTP386	ltpFR2	22	23	STUDENT	1395	n/a	n/a	0	0	0
4660637	REC_WORD_VV	wordpools/wasnorm_wordpool_576.txt	LTP386	ltpFR2	22	23	<>	-1	n/a	n/a	0	0	0
4661637	REC_WORD_VV	wordpools/wasnorm_wordpool_576.txt	LTP386	ltpFR2	22	23	<>	-1	n/a	n/a	0	0	0
4662882	REC_WORD	wordpools/wasnorm_wordpool_576.txt	LTP386	ltpFR2	22	23	WOMAN	1620	n/a	n/a	0	0	0
4663787	REC_WORD	wordpools/wasnorm_wordpool_576.txt	LTP386	ltpFR2	22	23	LION	827	n/a	n/a	0	0	0
