mstime	trial_type	stim_file	subject	experiment	session	trial	task	item_name	item_num	recog_resp	recog_conf	resp	answer	test_x	test_y	test_z	color_r	color_g	color_b	case	font
0	SESS_START	n/a	LTP286	ltpFR	9	n/a	n/a	n/a	n/a	1	n/a	n/a	n/a	0	0	0	n/a	n/a	n/a	n/a	n/a
43219	START	n/a	LTP286	ltpFR	9	n/a	n/a	n/a	n/a	n/a	n/a	n/a	n/a	n/a	n/a	n/a	n/a	n/a	n/a	n/a	n/a
43252	PROB	n/a	LTP286	ltpFR	9	n/a	n/a	n/a	n/a	n/a	n/a	n/a	12	6	2	4	n/a	n/a	n/a	n/a	n/a
45316	PROB	n/a	LTP286	ltpFR	9	n/a	n/a	n/a	n/a	n/a	n/a	n/a	18	5	6	5	n/a	n/a	n/a	n/a	n/a
47313	PROB	n/a	LTP286	ltpFR	9	n/a	n/a	n/a	n/a	n/a	n/a	n/a	13	1	3	9	n/a	n/a	n/a	n/a	n/a
49060	PROB	n/a	LTP286	ltpFR	9	n/a	n/a	n/a	n/a	n/a	n/a	n/a	15	8	3	4	n/a	n/a	n/a	n/a	n/a
50840	PROB	n/a	LTP286	ltpFR	9	n/a	n/a	n/a	n/a	n/a	n/a	n/a	17	9	2	6	n/a	n/a	n/a	n/a	n/a
52803	PROB	n/a	LTP286	ltpFR	9	n/a	n/a	n/a	n/a	n/a	n/a	n/a	10	2	7	1	n/a	n/a	n/a	n/a	n/a
54484	PROB	n/a	LTP286	ltpFR	9	n/a	n/a	n/a	n/a	n/a	n/a	n/a	11	5	2	4	n/a	n/a	n/a	n/a	n/a
56100	PROB	n/a	LTP286	ltpFR	9	n/a	n/a	n/a	n/a	n/a	n/a	n/a	19	3	9	7	n/a	n/a	n/a	n/a	n/a
57929	PROB	n/a	LTP286	ltpFR	9	n/a	n/a	n/a	n/a	n/a	n/a	n/a	17	9	5	3	n/a	n/a	n/a	n/a	n/a
59577	PROB	n/a	LTP286	ltpFR	9	n/a	n/a	n/a	n/a	n/a	n/a	n/a	5	2	1	2	n/a	n/a	n/a	n/a	n/a
61342	PROB	n/a	LTP286	ltpFR	9	n/a	n/a	n/a	n/a	n/a	n/a	n/a	16	3	7	6	n/a	n/a	n/a	n/a	n/a
62631	STOP	n/a	LTP286	ltpFR	9	n/a	n/a	n/a	n/a	n/a	n/a	n/a	n/a	n/a	n/a	n/a	n/a	n/a	n/a	n/a	n/a
111400	WORD	wordpools/wasnorm_wordpool_less_exclusions.txt	LTP286	ltpFR	9	1	1	EDITOR	516	n/a	n/a	1	n/a	0	0	0	0.422607421875	0.5869140625	0	lower	amplitud.ttf
115460	WORD	wordpools/wasnorm_wordpool_less_exclusions.txt	LTP286	ltpFR	9	1	1	GUM	672	n/a	n/a	0	n/a	0	0	0	0.422607421875	0.5869140625	0	lower	amplitud.ttf
119637	WORD	wordpools/wasnorm_wordpool_less_exclusions.txt	LTP286	ltpFR	9	1	1	TYPIST	1532	n/a	n/a	1	n/a	0	0	0	0.422607421875	0.5869140625	0	lower	amplitud.ttf
123481	WORD	wordpools/wasnorm_wordpool_less_exclusions.txt	LTP286	ltpFR	9	1	1	COLUMN	350	n/a	n/a	0	n/a	0	0	0	0.422607421875	0.5869140625	0	lower	amplitud.ttf
127327	WORD	wordpools/wasnorm_wordpool_less_exclusions.txt	LTP286	ltpFR	9	1	1	HELICOPTER	701	n/a	n/a	0	n/a	0	0	0	0.422607421875	0.5869140625	0	lower	amplitud.ttf
131204	WORD	wordpools/wasnorm_wordpool_less_exclusions.txt	LTP286	ltpFR	9	1	1	KITE	779	n/a	n/a	0	n/a	0	0	0	0.422607421875	0.5869140625	0	lower	amplitud.ttf
135181	WORD	wordpools/wasnorm_wordpool_less_exclusions.txt	LTP286	ltpFR	9	1	1	DINER	467	n/a	n/a	0	n/a	0	0	0	0.422607421875	0.5869140625	0	lower	amplitud.ttf
139359	WORD	wordpools/wasnorm_wordpool_less_exclusions.txt	LTP286	ltpFR	9	1	1	WAITER	1580	n/a	n/a	1	n/a	0	0	0	0.422607421875	0.5869140625	0	lower	amplitud.ttf
143501	WORD	wordpools/wasnorm_wordpool_less_exclusions.txt	LTP286	ltpFR	9	1	1	RESTAURANT	1187	n/a	n/a	0	n/a	0	0	0	0.422607421875	0.5869140625	0	lower	amplitud.ttf
147462	WORD	wordpools/wasnorm_wordpool_less_exclusions.txt	LTP286	ltpFR	9	1	1	NERVE	944	n/a	n/a	1	n/a	0	0	0	0.422607421875	0.5869140625	0	lower	amplitud.ttf
151673	WORD	wordpools/wasnorm_wordpool_less_exclusions.txt	LTP286	ltpFR	9	1	1	TWIG	1527	n/a	n/a	1	n/a	0	0	0	0.422607421875	0.5869140625	0	lower	amplitud.ttf
155700	WORD	wordpools/wasnorm_wordpool_less_exclusions.txt	LTP286	ltpFR	9	1	1	SUBURB	1399	n/a	n/a	0	n/a	0	0	0	0.422607421875	0.5869140625	0	lower	amplitud.ttf
159710	WORD	wordpools/wasnorm_wordpool_less_exclusions.txt	LTP286	ltpFR	9	1	1	HIKER	708	n/a	n/a	1	n/a	0	0	0	0.422607421875	0.5869140625	0	lower	amplitud.ttf
163771	WORD	wordpools/wasnorm_wordpool_less_exclusions.txt	LTP286	ltpFR	9	1	1	CABIN	211	n/a	n/a	0	n/a	0	0	0	0.422607421875	0.5869140625	0	lower	amplitud.ttf
167632	WORD	wordpools/wasnorm_wordpool_less_exclusions.txt	LTP286	ltpFR	9	1	1	HOUSE	725	n/a	n/a	0	n/a	0	0	0	0.422607421875	0.5869140625	0	lower	amplitud.ttf
171726	WORD	wordpools/wasnorm_wordpool_less_exclusions.txt	LTP286	ltpFR	9	1	1	SHINGLE	1285	n/a	n/a	0	n/a	0	0	0	0.422607421875	0.5869140625	0	lower	amplitud.ttf
174738	START	n/a	LTP286	ltpFR	9	n/a	n/a	n/a	n/a	n/a	n/a	n/a	n/a	n/a	n/a	n/a	n/a	n/a	n/a	n/a	n/a
175936	PROB	n/a	LTP286	ltpFR	9	n/a	n/a	n/a	n/a	n/a	n/a	n/a	15	2	8	5	n/a	n/a	n/a	n/a	n/a
177484	PROB	n/a	LTP286	ltpFR	9	n/a	n/a	n/a	n/a	n/a	n/a	n/a	14	3	5	6	n/a	n/a	n/a	n/a	n/a
179382	PROB	n/a	LTP286	ltpFR	9	n/a	n/a	n/a	n/a	n/a	n/a	n/a	20	4	8	8	n/a	n/a	n/a	n/a	n/a
181176	STOP	n/a	LTP286	ltpFR	9	n/a	n/a	n/a	n/a	n/a	n/a	n/a	n/a	n/a	n/a	n/a	n/a	n/a	n/a	n/a	n/a
184624	REC_START	n/a	LTP286	ltpFR	9	1	n/a	n/a	n/a	n/a	n/a	n/a	n/a	0	0	0	n/a	n/a	n/a	n/a	n/a
187036	REC_WORD	wordpools/wasnorm_wordpool_less_exclusions.txt	LTP286	ltpFR	9	1	1	HIKER	708	n/a	n/a	1	n/a	0	0	0	n/a	n/a	n/a	n/a	n/a
188329	REC_WORD	wordpools/wasnorm_wordpool_less_exclusions.txt	LTP286	ltpFR	9	1	1	SUBURB	1399	n/a	n/a	0	n/a	0	0	0	n/a	n/a	n/a	n/a	n/a
189555	REC_WORD	wordpools/wasnorm_wordpool_less_exclusions.txt	LTP286	ltpFR	9	1	1	HOUSE	725	n/a	n/a	0	n/a	0	0	0	n/a	n/a	n/a	n/a	n/a
190985	REC_WORD	wordpools/wasnorm_wordpool_less_exclusions.txt	LTP286	ltpFR	9	1	1	SHINGLE	1285	n/a	n/a	0	n/a	0	0	0	n/a	n/a	n/a	n/a	n/a
192495	REC_WORD	wordpools/wasnorm_wordpool_less_exclusions.txt	LTP286	ltpFR	9	1	1	TWIG	1527	n/a	n/a	1	n/a	0	0	0	n/a	n/a	n/a	n/a	n/a
193940	REC_WORD	wordpools/wasnorm_wordpool_less_exclusions.txt	LTP286	ltpFR	9	1	1	RESTAURANT	1187	n/a	n/a	0	n/a	0	0	0	n/a	n/a	n/a	n/a	n/a
195503	REC_WORD	wordpools/wasnorm_wordpool_less_exclusions.txt	LTP286	ltpFR	9	1	1	WAITER	1580	n/a	n/a	1	n/a	0	0	0	n/a	n/a	n/a	n/a	n/a
196902	REC_WORD	wordpools/wasnorm_wordpool_less_exclusions.txt	LTP286	ltpFR	9	1	1	HELICOPTER	701	n/a	n/a	0	n/a	0	0	0	n/a	n/a	n/a	n/a	n/a
198650	REC_WORD	wordpools/wasnorm_wordpool_less_exclusions.txt	LTP286	ltpFR	9	1	1	GUM	672	n/a	n/a	0	n/a	0	0	0	n/a	n/a	n/a	n/a	n/a
199897	REC_WORD	wordpools/wasnorm_wordpool_less_exclusions.txt	LTP286	ltpFR	9	1	1	TYPIST	1532	n/a	n/a	1	n/a	0	0	0	n/a	n/a	n/a	n/a	n/a
201321	REC_WORD	wordpools/wasnorm_wordpool_less_exclusions.txt	LTP286	ltpFR	9	1	1	EDITOR	516	n/a	n/a	1	n/a	0	0	0	n/a	n/a	n/a	n/a	n/a
202637	REC_WORD	wordpools/wasnorm_wordpool_less_exclusions.txt	LTP286	ltpFR	9	1	1	COLUMN	350	n/a	n/a	0	n/a	0	0	0	n/a	n/a	n/a	n/a	n/a
203955	REC_WORD	wordpools/wasnorm_wordpool_less_exclusions.txt	LTP286	ltpFR	9	1	1	NERVE	944	n/a	n/a	1	n/a	0	0	0	n/a	n/a	n/a	n/a	n/a
265603	START	n/a	LTP286	ltpFR	9	n/a	n/a	n/a	n/a	n/a	n/a	n/a	n/a	n/a	n/a	n/a	n/a	n/a	n/a	n/a	n/a
267118	PROB	n/a	LTP286	ltpFR	9	n/a	n/a	n/a	n/a	n/a	n/a	n/a	17	9	2	6	n/a	n/a	n/a	n/a	n/a
269896	PROB	n/a	LTP286	ltpFR	9	n/a	n/a	n/a	n/a	n/a	n/a	n/a	12	4	7	1	n/a	n/a	n/a	n/a	n/a
272064	STOP	n/a	LTP286	ltpFR	9	n/a	n/a	n/a	n/a	n/a	n/a	n/a	n/a	n/a	n/a	n/a	n/a	n/a	n/a	n/a	n/a
274672	WORD	wordpools/wasnorm_wordpool_less_exclusions.txt	LTP286	ltpFR	9	2	1	HOSE	720	n/a	n/a	0	n/a	0	0	0	0.422607421875	0.5869140625	0	lower	amplitud.ttf
277685	START	n/a	LTP286	ltpFR	9	n/a	n/a	n/a	n/a	n/a	n/a	n/a	n/a	n/a	n/a	n/a	n/a	n/a	n/a	n/a	n/a
278749	PROB	n/a	LTP286	ltpFR	9	n/a	n/a	n/a	n/a	n/a	n/a	n/a	13	3	1	9	n/a	n/a	n/a	n/a	n/a
280032	PROB	n/a	LTP286	ltpFR	9	n/a	n/a	n/a	n/a	n/a	n/a	n/a	14	5	4	5	n/a	n/a	n/a	n/a	n/a
282262	PROB	n/a	LTP286	ltpFR	9	n/a	n/a	n/a	n/a	n/a	n/a	n/a	26	7	9	9	n/a	n/a	n/a	n/a	n/a
284344	STOP	n/a	LTP286	ltpFR	9	n/a	n/a	n/a	n/a	n/a	n/a	n/a	n/a	n/a	n/a	n/a	n/a	n/a	n/a	n/a	n/a
286538	WORD	wordpools/wasnorm_wordpool_less_exclusions.txt	LTP286	ltpFR	9	2	1	SPRINKLE	1359	n/a	n/a	0	n/a	0	0	0	0.422607421875	0.5869140625	0	lower	amplitud.ttf
289550	START	n/a	LTP286	ltpFR	9	n/a	n/a	n/a	n/a	n/a	n/a	n/a	n/a	n/a	n/a	n/a	n/a	n/a	n/a	n/a	n/a
290615	PROB	n/a	LTP286	ltpFR	9	n/a	n/a	n/a	n/a	n/a	n/a	n/a	10	5	1	4	n/a	n/a	n/a	n/a	n/a
291963	PROB	n/a	LTP286	ltpFR	9	n/a	n/a	n/a	n/a	n/a	n/a	n/a	20	5	7	8	n/a	n/a	n/a	n/a	n/a
293860	PROB	n/a	LTP286	ltpFR	9	n/a	n/a	n/a	n/a	n/a	n/a	n/a	13	2	3	8	n/a	n/a	n/a	n/a	n/a
295441	PROB	n/a	LTP286	ltpFR	9	n/a	n/a	n/a	n/a	n/a	n/a	n/a	14	4	8	2	n/a	n/a	n/a	n/a	n/a
297032	STOP	n/a	LTP286	ltpFR	9	n/a	n/a	n/a	n/a	n/a	n/a	n/a	n/a	n/a	n/a	n/a	n/a	n/a	n/a	n/a	n/a
298653	WORD	wordpools/wasnorm_wordpool_less_exclusions.txt	LTP286	ltpFR	9	2	0	QUEEN	1149	n/a	n/a	1	n/a	0	0	0	0.57763671875	0.412841796875	1	upper	zerothre.ttf
301666	START	n/a	LTP286	ltpFR	9	n/a	n/a	n/a	n/a	n/a	n/a	n/a	n/a	n/a	n/a	n/a	n/a	n/a	n/a	n/a	n/a
302813	PROB	n/a	LTP286	ltpFR	9	n/a	n/a	n/a	n/a	n/a	n/a	n/a	12	4	2	6	n/a	n/a	n/a	n/a	n/a
304944	PROB	n/a	LTP286	ltpFR	9	n/a	n/a	n/a	n/a	n/a	n/a	n/a	24	9	7	6	n/a	n/a	n/a	n/a	n/a
306874	PROB	n/a	LTP286	ltpFR	9	n/a	n/a	n/a	n/a	n/a	n/a	n/a	11	6	3	2	n/a	n/a	n/a	n/a	n/a
308296	STOP	n/a	LTP286	ltpFR	9	n/a	n/a	n/a	n/a	n/a	n/a	n/a	n/a	n/a	n/a	n/a	n/a	n/a	n/a	n/a	n/a
310519	WORD	wordpools/wasnorm_wordpool_less_exclusions.txt	LTP286	ltpFR	9	2	0	SCARECROW	1245	n/a	n/a	1	n/a	0	0	0	0.57763671875	0.412841796875	1	upper	zerothre.ttf
313531	START	n/a	LTP286	ltpFR	9	n/a	n/a	n/a	n/a	n/a	n/a	n/a	n/a	n/a	n/a	n/a	n/a	n/a	n/a	n/a	n/a
314364	PROB	n/a	LTP286	ltpFR	9	n/a	n/a	n/a	n/a	n/a	n/a	n/a	16	6	1	9	n/a	n/a	n/a	n/a	n/a
316826	PROB	n/a	LTP286	ltpFR	9	n/a	n/a	n/a	n/a	n/a	n/a	n/a	12	7	2	3	n/a	n/a	n/a	n/a	n/a
318473	PROB	n/a	LTP286	ltpFR	9	n/a	n/a	n/a	n/a	n/a	n/a	n/a	10	3	6	1	n/a	n/a	n/a	n/a	n/a
319738	PROB	n/a	LTP286	ltpFR	9	n/a	n/a	n/a	n/a	n/a	n/a	n/a	5	1	1	3	n/a	n/a	n/a	n/a	n/a
320959	STOP	n/a	LTP286	ltpFR	9	n/a	n/a	n/a	n/a	n/a	n/a	n/a	n/a	n/a	n/a	n/a	n/a	n/a	n/a	n/a	n/a
322451	WORD	wordpools/wasnorm_wordpool_less_exclusions.txt	LTP286	ltpFR	9	2	0	BOLT	146	n/a	n/a	1	n/a	0	0	0	0.57763671875	0.412841796875	1	upper	zerothre.ttf
325463	START	n/a	LTP286	ltpFR	9	n/a	n/a	n/a	n/a	n/a	n/a	n/a	n/a	n/a	n/a	n/a	n/a	n/a	n/a	n/a	n/a
326329	PROB	n/a	LTP286	ltpFR	9	n/a	n/a	n/a	n/a	n/a	n/a	n/a	10	1	4	5	n/a	n/a	n/a	n/a	n/a
327710	PROB	n/a	LTP286	ltpFR	9	n/a	n/a	n/a	n/a	n/a	n/a	n/a	15	5	4	6	n/a	n/a	n/a	n/a	n/a
329990	PROB	n/a	LTP286	ltpFR	9	n/a	n/a	n/a	n/a	n/a	n/a	n/a	9	2	4	3	n/a	n/a	n/a	n/a	n/a
331920	PROB	n/a	LTP286	ltpFR	9	n/a	n/a	n/a	n/a	n/a	n/a	n/a	3	1	1	1	n/a	n/a	n/a	n/a	n/a
333048	STOP	n/a	LTP286	ltpFR	9	n/a	n/a	n/a	n/a	n/a	n/a	n/a	n/a	n/a	n/a	n/a	n/a	n/a	n/a	n/a	n/a
334466	WORD	wordpools/wasnorm_wordpool_less_exclusions.txt	LTP286	ltpFR	9	2	1	HAMBURGER	679	n/a	n/a	0	n/a	0	0	0	0.422607421875	0.5869140625	0	lower	amplitud.ttf
337479	START	n/a	LTP286	ltpFR	9	n/a	n/a	n/a	n/a	n/a	n/a	n/a	n/a	n/a	n/a	n/a	n/a	n/a	n/a	n/a	n/a
338577	PROB	n/a	LTP286	ltpFR	9	n/a	n/a	n/a	n/a	n/a	n/a	n/a	20	7	6	6	n/a	n/a	n/a	n/a	n/a
340142	PROB	n/a	LTP286	ltpFR	9	n/a	n/a	n/a	n/a	n/a	n/a	n/a	21	6	6	9	n/a	n/a	n/a	n/a	n/a
342887	PROB	n/a	LTP286	ltpFR	9	n/a	n/a	n/a	n/a	n/a	n/a	n/a	13	4	5	4	n/a	n/a	n/a	n/a	n/a
344519	STOP	n/a	LTP286	ltpFR	9	n/a	n/a	n/a	n/a	n/a	n/a	n/a	n/a	n/a	n/a	n/a	n/a	n/a	n/a	n/a	n/a
346615	WORD	wordpools/wasnorm_wordpool_less_exclusions.txt	LTP286	ltpFR	9	2	1	BUG	187	n/a	n/a	1	n/a	0	0	0	0.422607421875	0.5869140625	0	lower	amplitud.ttf
349627	START	n/a	LTP286	ltpFR	9	n/a	n/a	n/a	n/a	n/a	n/a	n/a	n/a	n/a	n/a	n/a	n/a	n/a	n/a	n/a	n/a
350559	PROB	n/a	LTP286	ltpFR	9	n/a	n/a	n/a	n/a	n/a	n/a	n/a	12	6	2	4	n/a	n/a	n/a	n/a	n/a
352357	PROB	n/a	LTP286	ltpFR	9	n/a	n/a	n/a	n/a	n/a	n/a	n/a	25	8	7	8	n/a	n/a	n/a	n/a	n/a
354719	PROB	n/a	LTP286	ltpFR	9	n/a	n/a	n/a	n/a	n/a	n/a	n/a	16	8	6	2	n/a	n/a	n/a	n/a	n/a
356240	STOP	n/a	LTP286	ltpFR	9	n/a	n/a	n/a	n/a	n/a	n/a	n/a	n/a	n/a	n/a	n/a	n/a	n/a	n/a	n/a	n/a
358497	WORD	wordpools/wasnorm_wordpool_less_exclusions.txt	LTP286	ltpFR	9	2	1	MERMAID	887	n/a	n/a	1	n/a	0	0	0	0.422607421875	0.5869140625	0	lower	amplitud.ttf
361510	START	n/a	LTP286	ltpFR	9	n/a	n/a	n/a	n/a	n/a	n/a	n/a	n/a	n/a	n/a	n/a	n/a	n/a	n/a	n/a	n/a
362392	PROB	n/a	LTP286	ltpFR	9	n/a	n/a	n/a	n/a	n/a	n/a	n/a	14	9	1	4	n/a	n/a	n/a	n/a	n/a
363972	PROB	n/a	LTP286	ltpFR	9	n/a	n/a	n/a	n/a	n/a	n/a	n/a	8	2	4	2	n/a	n/a	n/a	n/a	n/a
365770	PROB	n/a	LTP286	ltpFR	9	n/a	n/a	n/a	n/a	n/a	n/a	n/a	22	5	9	8	n/a	n/a	n/a	n/a	n/a
368200	STOP	n/a	LTP286	ltpFR	9	n/a	n/a	n/a	n/a	n/a	n/a	n/a	n/a	n/a	n/a	n/a	n/a	n/a	n/a	n/a	n/a
370646	WORD	wordpools/wasnorm_wordpool_less_exclusions.txt	LTP286	ltpFR	9	2	0	CHART	282	n/a	n/a	0	n/a	0	0	0	0.57763671875	0.412841796875	1	upper	zerothre.ttf
373658	START	n/a	LTP286	ltpFR	9	n/a	n/a	n/a	n/a	n/a	n/a	n/a	n/a	n/a	n/a	n/a	n/a	n/a	n/a	n/a	n/a
374556	PROB	n/a	LTP286	ltpFR	9	n/a	n/a	n/a	n/a	n/a	n/a	n/a	20	3	8	9	n/a	n/a	n/a	n/a	n/a
376637	PROB	n/a	LTP286	ltpFR	9	n/a	n/a	n/a	n/a	n/a	n/a	n/a	13	5	4	4	n/a	n/a	n/a	n/a	n/a
378517	PROB	n/a	LTP286	ltpFR	9	n/a	n/a	n/a	n/a	n/a	n/a	n/a	9	5	1	3	n/a	n/a	n/a	n/a	n/a
380144	STOP	n/a	LTP286	ltpFR	9	n/a	n/a	n/a	n/a	n/a	n/a	n/a	n/a	n/a	n/a	n/a	n/a	n/a	n/a	n/a	n/a
382478	WORD	wordpools/wasnorm_wordpool_less_exclusions.txt	LTP286	ltpFR	9	2	0	GRILL	661	n/a	n/a	1	n/a	0	0	0	0.57763671875	0.412841796875	1	upper	zerothre.ttf
385490	START	n/a	LTP286	ltpFR	9	n/a	n/a	n/a	n/a	n/a	n/a	n/a	n/a	n/a	n/a	n/a	n/a	n/a	n/a	n/a	n/a
386472	PROB	n/a	LTP286	ltpFR	9	n/a	n/a	n/a	n/a	n/a	n/a	n/a	14	9	3	2	n/a	n/a	n/a	n/a	n/a
388087	PROB	n/a	LTP286	ltpFR	9	n/a	n/a	n/a	n/a	n/a	n/a	n/a	14	6	7	1	n/a	n/a	n/a	n/a	n/a
389402	PROB	n/a	LTP286	ltpFR	9	n/a	n/a	n/a	n/a	n/a	n/a	n/a	18	6	9	3	n/a	n/a	n/a	n/a	n/a
391183	PROB	n/a	LTP286	ltpFR	9	n/a	n/a	n/a	n/a	n/a	n/a	n/a	20	6	5	9	n/a	n/a	n/a	n/a	n/a
392999	STOP	n/a	LTP286	ltpFR	9	n/a	n/a	n/a	n/a	n/a	n/a	n/a	n/a	n/a	n/a	n/a	n/a	n/a	n/a	n/a	n/a
394411	WORD	wordpools/wasnorm_wordpool_less_exclusions.txt	LTP286	ltpFR	9	2	0	BUTTERFLY	206	n/a	n/a	0	n/a	0	0	0	0.57763671875	0.412841796875	1	upper	zerothre.ttf
397424	START	n/a	LTP286	ltpFR	9	n/a	n/a	n/a	n/a	n/a	n/a	n/a	n/a	n/a	n/a	n/a	n/a	n/a	n/a	n/a	n/a
398305	PROB	n/a	LTP286	ltpFR	9	n/a	n/a	n/a	n/a	n/a	n/a	n/a	12	6	4	2	n/a	n/a	n/a	n/a	n/a
399552	PROB	n/a	LTP286	ltpFR	9	n/a	n/a	n/a	n/a	n/a	n/a	n/a	13	7	4	2	n/a	n/a	n/a	n/a	n/a
401035	PROB	n/a	LTP286	ltpFR	9	n/a	n/a	n/a	n/a	n/a	n/a	n/a	12	5	3	3	n/a	n/a	n/a	n/a	n/a
402465	PROB	n/a	LTP286	ltpFR	9	n/a	n/a	n/a	n/a	n/a	n/a	n/a	16	7	6	3	n/a	n/a	n/a	n/a	n/a
404431	STOP	n/a	LTP286	ltpFR	9	n/a	n/a	n/a	n/a	n/a	n/a	n/a	n/a	n/a	n/a	n/a	n/a	n/a	n/a	n/a	n/a
406393	WORD	wordpools/wasnorm_wordpool_less_exclusions.txt	LTP286	ltpFR	9	2	0	STOVE	1388	n/a	n/a	1	n/a	0	0	0	0.57763671875	0.412841796875	1	upper	zerothre.ttf
409406	START	n/a	LTP286	ltpFR	9	n/a	n/a	n/a	n/a	n/a	n/a	n/a	n/a	n/a	n/a	n/a	n/a	n/a	n/a	n/a	n/a
410404	PROB	n/a	LTP286	ltpFR	9	n/a	n/a	n/a	n/a	n/a	n/a	n/a	9	4	4	1	n/a	n/a	n/a	n/a	n/a
411901	PROB	n/a	LTP286	ltpFR	9	n/a	n/a	n/a	n/a	n/a	n/a	n/a	5	1	1	6	n/a	n/a	n/a	n/a	n/a
413515	PROB	n/a	LTP286	ltpFR	9	n/a	n/a	n/a	n/a	n/a	n/a	n/a	15	8	4	3	n/a	n/a	n/a	n/a	n/a
415346	PROB	n/a	LTP286	ltpFR	9	n/a	n/a	n/a	n/a	n/a	n/a	n/a	15	4	9	2	n/a	n/a	n/a	n/a	n/a
417023	STOP	n/a	LTP286	ltpFR	9	n/a	n/a	n/a	n/a	n/a	n/a	n/a	n/a	n/a	n/a	n/a	n/a	n/a	n/a	n/a	n/a
418409	WORD	wordpools/wasnorm_wordpool_less_exclusions.txt	LTP286	ltpFR	9	2	0	IRON	744	n/a	n/a	1	n/a	0	0	0	0.57763671875	0.412841796875	1	upper	zerothre.ttf
421421	START	n/a	LTP286	ltpFR	9	n/a	n/a	n/a	n/a	n/a	n/a	n/a	n/a	n/a	n/a	n/a	n/a	n/a	n/a	n/a	n/a
422419	PROB	n/a	LTP286	ltpFR	9	n/a	n/a	n/a	n/a	n/a	n/a	n/a	16	2	6	8	n/a	n/a	n/a	n/a	n/a
424233	PROB	n/a	LTP286	ltpFR	9	n/a	n/a	n/a	n/a	n/a	n/a	n/a	17	5	3	9	n/a	n/a	n/a	n/a	n/a
426114	PROB	n/a	LTP286	ltpFR	9	n/a	n/a	n/a	n/a	n/a	n/a	n/a	20	7	7	6	n/a	n/a	n/a	n/a	n/a
429421	STOP	n/a	LTP286	ltpFR	9	n/a	n/a	n/a	n/a	n/a	n/a	n/a	n/a	n/a	n/a	n/a	n/a	n/a	n/a	n/a	n/a
430540	WORD	wordpools/wasnorm_wordpool_less_exclusions.txt	LTP286	ltpFR	9	2	1	SCENERY	1247	n/a	n/a	0	n/a	0	0	0	0.422607421875	0.5869140625	0	lower	amplitud.ttf
433552	START	n/a	LTP286	ltpFR	9	n/a	n/a	n/a	n/a	n/a	n/a	n/a	n/a	n/a	n/a	n/a	n/a	n/a	n/a	n/a	n/a
434683	PROB	n/a	LTP286	ltpFR	9	n/a	n/a	n/a	n/a	n/a	n/a	n/a	13	5	1	7	n/a	n/a	n/a	n/a	n/a
436332	PROB	n/a	LTP286	ltpFR	9	n/a	n/a	n/a	n/a	n/a	n/a	n/a	13	2	6	5	n/a	n/a	n/a	n/a	n/a
437829	PROB	n/a	LTP286	ltpFR	9	n/a	n/a	n/a	n/a	n/a	n/a	n/a	14	3	2	9	n/a	n/a	n/a	n/a	n/a
439427	PROB	n/a	LTP286	ltpFR	9	n/a	n/a	n/a	n/a	n/a	n/a	n/a	18	8	6	4	n/a	n/a	n/a	n/a	n/a
441360	STOP	n/a	LTP286	ltpFR	9	n/a	n/a	n/a	n/a	n/a	n/a	n/a	n/a	n/a	n/a	n/a	n/a	n/a	n/a	n/a	n/a
442621	WORD	wordpools/wasnorm_wordpool_less_exclusions.txt	LTP286	ltpFR	9	2	1	FRIEND	606	n/a	n/a	1	n/a	0	0	0	0.422607421875	0.5869140625	0	lower	amplitud.ttf
445634	START	n/a	LTP286	ltpFR	9	n/a	n/a	n/a	n/a	n/a	n/a	n/a	n/a	n/a	n/a	n/a	n/a	n/a	n/a	n/a	n/a
446632	PROB	n/a	LTP286	ltpFR	9	n/a	n/a	n/a	n/a	n/a	n/a	n/a	19	9	4	6	n/a	n/a	n/a	n/a	n/a
448629	PROB	n/a	LTP286	ltpFR	9	n/a	n/a	n/a	n/a	n/a	n/a	n/a	12	3	4	5	n/a	n/a	n/a	n/a	n/a
450743	PROB	n/a	LTP286	ltpFR	9	n/a	n/a	n/a	n/a	n/a	n/a	n/a	15	5	1	9	n/a	n/a	n/a	n/a	n/a
452108	PROB	n/a	LTP286	ltpFR	9	n/a	n/a	n/a	n/a	n/a	n/a	n/a	19	4	8	7	n/a	n/a	n/a	n/a	n/a
453607	STOP	n/a	LTP286	ltpFR	9	n/a	n/a	n/a	n/a	n/a	n/a	n/a	n/a	n/a	n/a	n/a	n/a	n/a	n/a	n/a	n/a
454537	WORD	wordpools/wasnorm_wordpool_less_exclusions.txt	LTP286	ltpFR	9	2	1	FOE	587	n/a	n/a	1	n/a	0	0	0	0.422607421875	0.5869140625	0	lower	amplitud.ttf
457549	START	n/a	LTP286	ltpFR	9	n/a	n/a	n/a	n/a	n/a	n/a	n/a	n/a	n/a	n/a	n/a	n/a	n/a	n/a	n/a	n/a
458416	PROB	n/a	LTP286	ltpFR	9	n/a	n/a	n/a	n/a	n/a	n/a	n/a	10	1	8	1	n/a	n/a	n/a	n/a	n/a
459979	PROB	n/a	LTP286	ltpFR	9	n/a	n/a	n/a	n/a	n/a	n/a	n/a	13	4	8	1	n/a	n/a	n/a	n/a	n/a
462143	PROB	n/a	LTP286	ltpFR	9	n/a	n/a	n/a	n/a	n/a	n/a	n/a	14	6	5	3	n/a	n/a	n/a	n/a	n/a
463790	PROB	n/a	LTP286	ltpFR	9	n/a	n/a	n/a	n/a	n/a	n/a	n/a	10	6	3	1	n/a	n/a	n/a	n/a	n/a
465064	STOP	n/a	LTP286	ltpFR	9	n/a	n/a	n/a	n/a	n/a	n/a	n/a	n/a	n/a	n/a	n/a	n/a	n/a	n/a	n/a	n/a
467303	REC_START	n/a	LTP286	ltpFR	9	2	n/a	n/a	n/a	n/a	n/a	n/a	n/a	0	0	0	n/a	n/a	n/a	n/a	n/a
470065	REC_WORD	wordpools/wasnorm_wordpool_less_exclusions.txt	LTP286	ltpFR	9	2	1	FRIEND	606	n/a	n/a	1	n/a	0	0	0	n/a	n/a	n/a	n/a	n/a
471476	REC_WORD	wordpools/wasnorm_wordpool_less_exclusions.txt	LTP286	ltpFR	9	2	1	FOE	587	n/a	n/a	1	n/a	0	0	0	n/a	n/a	n/a	n/a	n/a
475333	REC_WORD	wordpools/wasnorm_wordpool_less_exclusions.txt	LTP286	ltpFR	9	2	0	CHART	282	n/a	n/a	0	n/a	0	0	0	n/a	n/a	n/a	n/a	n/a
476687	REC_WORD	wordpools/wasnorm_wordpool_less_exclusions.txt	LTP286	ltpFR	9	2	0	IRON	744	n/a	n/a	1	n/a	0	0	0	n/a	n/a	n/a	n/a	n/a
478107	REC_WORD	wordpools/wasnorm_wordpool_less_exclusions.txt	LTP286	ltpFR	9	2	0	BUTTERFLY	206	n/a	n/a	0	n/a	0	0	0	n/a	n/a	n/a	n/a	n/a
483122	REC_WORD	wordpools/wasnorm_wordpool_less_exclusions.txt	LTP286	ltpFR	9	2	0	STOVE	1388	n/a	n/a	1	n/a	0	0	0	n/a	n/a	n/a	n/a	n/a
495888	REC_WORD	wordpools/wasnorm_wordpool_less_exclusions.txt	LTP286	ltpFR	9	2	1	MERMAID	887	n/a	n/a	1	n/a	0	0	0	n/a	n/a	n/a	n/a	n/a
502336	REC_WORD	wordpools/wasnorm_wordpool_less_exclusions.txt	LTP286	ltpFR	9	2	1	SCENERY	1247	n/a	n/a	0	n/a	0	0	0	n/a	n/a	n/a	n/a	n/a
512014	REC_WORD	wordpools/wasnorm_wordpool_less_exclusions.txt	LTP286	ltpFR	9	2	0	QUEEN	1149	n/a	n/a	1	n/a	0	0	0	n/a	n/a	n/a	n/a	n/a
548730	WORD	wordpools/wasnorm_wordpool_less_exclusions.txt	LTP286	ltpFR	9	3	1	DRIVEWAY	500	n/a	n/a	0	n/a	0	0	0	0.422607421875	0.5869140625	0	lower	amplitud.ttf
552740	WORD	wordpools/wasnorm_wordpool_less_exclusions.txt	LTP286	ltpFR	9	3	1	COUGAR	387	n/a	n/a	1	n/a	0	0	0	0.422607421875	0.5869140625	0	lower	amplitud.ttf
556951	WORD	wordpools/wasnorm_wordpool_less_exclusions.txt	LTP286	ltpFR	9	3	1	LIMB	822	n/a	n/a	1	n/a	0	0	0	0.422607421875	0.5869140625	0	lower	amplitud.ttf
560928	WORD	wordpools/wasnorm_wordpool_less_exclusions.txt	LTP286	ltpFR	9	3	1	FIG	563	n/a	n/a	1	n/a	0	0	0	0.422607421875	0.5869140625	0	lower	amplitud.ttf
564922	WORD	wordpools/wasnorm_wordpool_less_exclusions.txt	LTP286	ltpFR	9	3	0	LIST	830	n/a	n/a	0	n/a	0	0	0	0.57763671875	0.412841796875	1	upper	zerothre.ttf
568949	WORD	wordpools/wasnorm_wordpool_less_exclusions.txt	LTP286	ltpFR	9	3	0	DENIM	446	n/a	n/a	1	n/a	0	0	0	0.57763671875	0.412841796875	1	upper	zerothre.ttf
573010	WORD	wordpools/wasnorm_wordpool_less_exclusions.txt	LTP286	ltpFR	9	3	0	WEB	1598	n/a	n/a	0	n/a	0	0	0	0.57763671875	0.412841796875	1	upper	zerothre.ttf
577072	WORD	wordpools/wasnorm_wordpool_less_exclusions.txt	LTP286	ltpFR	9	3	1	GRASSHOPPER	656	n/a	n/a	1	n/a	0	0	0	0.422607421875	0.5869140625	0	lower	amplitud.ttf
581215	WORD	wordpools/wasnorm_wordpool_less_exclusions.txt	LTP286	ltpFR	9	3	1	BELT	120	n/a	n/a	0	n/a	0	0	0	0.422607421875	0.5869140625	0	lower	amplitud.ttf
585143	WORD	wordpools/wasnorm_wordpool_less_exclusions.txt	LTP286	ltpFR	9	3	1	SALESMAN	1225	n/a	n/a	1	n/a	0	0	0	0.422607421875	0.5869140625	0	lower	amplitud.ttf
589019	WORD	wordpools/wasnorm_wordpool_less_exclusions.txt	LTP286	ltpFR	9	3	1	CACTUS	215	n/a	n/a	1	n/a	0	0	0	0.422607421875	0.5869140625	0	lower	amplitud.ttf
593214	WORD	wordpools/wasnorm_wordpool_less_exclusions.txt	LTP286	ltpFR	9	3	0	CONCERT	360	n/a	n/a	1	n/a	0	0	0	0.57763671875	0.412841796875	1	upper	zerothre.ttf
597341	WORD	wordpools/wasnorm_wordpool_less_exclusions.txt	LTP286	ltpFR	9	3	0	VIOLA	1570	n/a	n/a	0	n/a	0	0	0	0.57763671875	0.412841796875	1	upper	zerothre.ttf
601484	WORD	wordpools/wasnorm_wordpool_less_exclusions.txt	LTP286	ltpFR	9	3	0	BUFFALO	186	n/a	n/a	1	n/a	0	0	0	0.57763671875	0.412841796875	1	upper	zerothre.ttf
605512	WORD	wordpools/wasnorm_wordpool_less_exclusions.txt	LTP286	ltpFR	9	3	0	PORPOISE	1109	n/a	n/a	0	n/a	0	0	0	0.57763671875	0.412841796875	1	upper	zerothre.ttf
609705	WORD	wordpools/wasnorm_wordpool_less_exclusions.txt	LTP286	ltpFR	9	3	0	FREEWAY	603	n/a	n/a	1	n/a	0	0	0	0.57763671875	0.412841796875	1	upper	zerothre.ttf
615614	REC_START	n/a	LTP286	ltpFR	9	3	n/a	n/a	n/a	n/a	n/a	n/a	n/a	0	0	0	n/a	n/a	n/a	n/a	n/a
617352	REC_WORD	wordpools/wasnorm_wordpool_less_exclusions.txt	LTP286	ltpFR	9	3	0	FREEWAY	603	n/a	n/a	1	n/a	0	0	0	n/a	n/a	n/a	n/a	n/a
618688	REC_WORD	wordpools/wasnorm_wordpool_less_exclusions.txt	LTP286	ltpFR	9	3	1	DRIVEWAY	500	n/a	n/a	0	n/a	0	0	0	n/a	n/a	n/a	n/a	n/a
622809	REC_WORD	wordpools/wasnorm_wordpool_less_exclusions.txt	LTP286	ltpFR	9	3	1	SALESMAN	1225	n/a	n/a	1	n/a	0	0	0	n/a	n/a	n/a	n/a	n/a
625365	REC_WORD	wordpools/wasnorm_wordpool_less_exclusions.txt	LTP286	ltpFR	9	3	1	LIMB	822	n/a	n/a	1	n/a	0	0	0	n/a	n/a	n/a	n/a	n/a
633435	REC_WORD	wordpools/wasnorm_wordpool_less_exclusions.txt	LTP286	ltpFR	9	3	0	PORPOISE	1109	n/a	n/a	0	n/a	0	0	0	n/a	n/a	n/a	n/a	n/a
634778	REC_WORD	wordpools/wasnorm_wordpool_less_exclusions.txt	LTP286	ltpFR	9	3	0	BUFFALO	186	n/a	n/a	1	n/a	0	0	0	n/a	n/a	n/a	n/a	n/a
636251	REC_WORD	wordpools/wasnorm_wordpool_less_exclusions.txt	LTP286	ltpFR	9	3	0	DENIM	446	n/a	n/a	1	n/a	0	0	0	n/a	n/a	n/a	n/a	n/a
652848	REC_WORD	wordpools/wasnorm_wordpool_less_exclusions.txt	LTP286	ltpFR	9	3	0	VIOLA	1570	n/a	n/a	0	n/a	0	0	0	n/a	n/a	n/a	n/a	n/a
655726	REC_WORD	wordpools/wasnorm_wordpool_less_exclusions.txt	LTP286	ltpFR	9	3	0	CONCERT	360	n/a	n/a	1	n/a	0	0	0	n/a	n/a	n/a	n/a	n/a
685212	REC_WORD	wordpools/wasnorm_wordpool_less_exclusions.txt	LTP286	ltpFR	9	3	1	COUGAR	387	n/a	n/a	1	n/a	0	0	0	n/a	n/a	n/a	n/a	n/a
696194	START	n/a	LTP286	ltpFR	9	n/a	n/a	n/a	n/a	n/a	n/a	n/a	n/a	n/a	n/a	n/a	n/a	n/a	n/a	n/a	n/a
697707	PROB	n/a	LTP286	ltpFR	9	n/a	n/a	n/a	n/a	n/a	n/a	n/a	16	6	5	5	n/a	n/a	n/a	n/a	n/a
699272	PROB	n/a	LTP286	ltpFR	9	n/a	n/a	n/a	n/a	n/a	n/a	n/a	16	6	9	2	n/a	n/a	n/a	n/a	n/a
701419	PROB	n/a	LTP286	ltpFR	9	n/a	n/a	n/a	n/a	n/a	n/a	n/a	15	5	5	5	n/a	n/a	n/a	n/a	n/a
704194	STOP	n/a	LTP286	ltpFR	9	n/a	n/a	n/a	n/a	n/a	n/a	n/a	n/a	n/a	n/a	n/a	n/a	n/a	n/a	n/a	n/a
705363	WORD	wordpools/wasnorm_wordpool_less_exclusions.txt	LTP286	ltpFR	9	4	0	NECK	939	n/a	n/a	1	n/a	0	0	0	0.57763671875	0.412841796875	1	upper	zerothre.ttf
708376	START	n/a	LTP286	ltpFR	9	n/a	n/a	n/a	n/a	n/a	n/a	n/a	n/a	n/a	n/a	n/a	n/a	n/a	n/a	n/a	n/a
709308	PROB	n/a	LTP286	ltpFR	9	n/a	n/a	n/a	n/a	n/a	n/a	n/a	12	5	4	3	n/a	n/a	n/a	n/a	n/a
711437	PROB	n/a	LTP286	ltpFR	9	n/a	n/a	n/a	n/a	n/a	n/a	n/a	5	2	3	3	n/a	n/a	n/a	n/a	n/a
713667	PROB	n/a	LTP286	ltpFR	9	n/a	n/a	n/a	n/a	n/a	n/a	n/a	16	8	2	6	n/a	n/a	n/a	n/a	n/a
715216	STOP	n/a	LTP286	ltpFR	9	n/a	n/a	n/a	n/a	n/a	n/a	n/a	n/a	n/a	n/a	n/a	n/a	n/a	n/a	n/a	n/a
717561	WORD	wordpools/wasnorm_wordpool_less_exclusions.txt	LTP286	ltpFR	9	4	0	HEN	703	n/a	n/a	0	n/a	0	0	0	0.57763671875	0.412841796875	1	upper	zerothre.ttf
720574	START	n/a	LTP286	ltpFR	9	n/a	n/a	n/a	n/a	n/a	n/a	n/a	n/a	n/a	n/a	n/a	n/a	n/a	n/a	n/a	n/a
721488	PROB	n/a	LTP286	ltpFR	9	n/a	n/a	n/a	n/a	n/a	n/a	n/a	16	6	4	6	n/a	n/a	n/a	n/a	n/a
722786	PROB	n/a	LTP286	ltpFR	9	n/a	n/a	n/a	n/a	n/a	n/a	n/a	10	3	4	3	n/a	n/a	n/a	n/a	n/a
724451	PROB	n/a	LTP286	ltpFR	9	n/a	n/a	n/a	n/a	n/a	n/a	n/a	13	2	4	7	n/a	n/a	n/a	n/a	n/a
726382	PROB	n/a	LTP286	ltpFR	9	n/a	n/a	n/a	n/a	n/a	n/a	n/a	27	9	9	9	n/a	n/a	n/a	n/a	n/a
728527	STOP	n/a	LTP286	ltpFR	9	n/a	n/a	n/a	n/a	n/a	n/a	n/a	n/a	n/a	n/a	n/a	n/a	n/a	n/a	n/a	n/a
729709	WORD	wordpools/wasnorm_wordpool_less_exclusions.txt	LTP286	ltpFR	9	4	0	WINDSHIELD	1612	n/a	n/a	1	n/a	0	0	0	0.57763671875	0.412841796875	1	upper	zerothre.ttf
732722	START	n/a	LTP286	ltpFR	9	n/a	n/a	n/a	n/a	n/a	n/a	n/a	n/a	n/a	n/a	n/a	n/a	n/a	n/a	n/a	n/a
733903	PROB	n/a	LTP286	ltpFR	9	n/a	n/a	n/a	n/a	n/a	n/a	n/a	4	4	6	7	n/a	n/a	n/a	n/a	n/a
736616	PROB	n/a	LTP286	ltpFR	9	n/a	n/a	n/a	n/a	n/a	n/a	n/a	15	5	6	4	n/a	n/a	n/a	n/a	n/a
740722	STOP	n/a	LTP286	ltpFR	9	n/a	n/a	n/a	n/a	n/a	n/a	n/a	n/a	n/a	n/a	n/a	n/a	n/a	n/a	n/a	n/a
741725	WORD	wordpools/wasnorm_wordpool_less_exclusions.txt	LTP286	ltpFR	9	4	0	GREASE	660	n/a	n/a	0	n/a	0	0	0	0.57763671875	0.412841796875	1	upper	zerothre.ttf
744738	START	n/a	LTP286	ltpFR	9	n/a	n/a	n/a	n/a	n/a	n/a	n/a	n/a	n/a	n/a	n/a	n/a	n/a	n/a	n/a	n/a
745885	PROB	n/a	LTP286	ltpFR	9	n/a	n/a	n/a	n/a	n/a	n/a	n/a	12	2	6	4	n/a	n/a	n/a	n/a	n/a
747733	PROB	n/a	LTP286	ltpFR	9	n/a	n/a	n/a	n/a	n/a	n/a	n/a	17	3	7	7	n/a	n/a	n/a	n/a	n/a
749913	PROB	n/a	LTP286	ltpFR	9	n/a	n/a	n/a	n/a	n/a	n/a	n/a	24	7	9	8	n/a	n/a	n/a	n/a	n/a
752567	STOP	n/a	LTP286	ltpFR	9	n/a	n/a	n/a	n/a	n/a	n/a	n/a	n/a	n/a	n/a	n/a	n/a	n/a	n/a	n/a	n/a
753873	WORD	wordpools/wasnorm_wordpool_less_exclusions.txt	LTP286	ltpFR	9	4	0	OTTER	986	n/a	n/a	0	n/a	0	0	0	0.57763671875	0.412841796875	1	upper	zerothre.ttf
756886	START	n/a	LTP286	ltpFR	9	n/a	n/a	n/a	n/a	n/a	n/a	n/a	n/a	n/a	n/a	n/a	n/a	n/a	n/a	n/a	n/a
757851	PROB	n/a	LTP286	ltpFR	9	n/a	n/a	n/a	n/a	n/a	n/a	n/a	11	6	3	2	n/a	n/a	n/a	n/a	n/a
759582	PROB	n/a	LTP286	ltpFR	9	n/a	n/a	n/a	n/a	n/a	n/a	n/a	13	3	3	7	n/a	n/a	n/a	n/a	n/a
761512	PROB	n/a	LTP286	ltpFR	9	n/a	n/a	n/a	n/a	n/a	n/a	n/a	5	2	2	1	n/a	n/a	n/a	n/a	n/a
762743	PROB	n/a	LTP286	ltpFR	9	n/a	n/a	n/a	n/a	n/a	n/a	n/a	14	9	1	4	n/a	n/a	n/a	n/a	n/a
764216	STOP	n/a	LTP286	ltpFR	9	n/a	n/a	n/a	n/a	n/a	n/a	n/a	n/a	n/a	n/a	n/a	n/a	n/a	n/a	n/a	n/a
765972	WORD	wordpools/wasnorm_wordpool_less_exclusions.txt	LTP286	ltpFR	9	4	0	HOUND	724	n/a	n/a	1	n/a	0	0	0	0.57763671875	0.412841796875	1	upper	zerothre.ttf
768985	START	n/a	LTP286	ltpFR	9	n/a	n/a	n/a	n/a	n/a	n/a	n/a	n/a	n/a	n/a	n/a	n/a	n/a	n/a	n/a	n/a
769966	PROB	n/a	LTP286	ltpFR	9	n/a	n/a	n/a	n/a	n/a	n/a	n/a	11	1	3	7	n/a	n/a	n/a	n/a	n/a
771215	PROB	n/a	LTP286	ltpFR	9	n/a	n/a	n/a	n/a	n/a	n/a	n/a	20	6	7	7	n/a	n/a	n/a	n/a	n/a
772812	PROB	n/a	LTP286	ltpFR	9	n/a	n/a	n/a	n/a	n/a	n/a	n/a	14	2	8	4	n/a	n/a	n/a	n/a	n/a
774144	PROB	n/a	LTP286	ltpFR	9	n/a	n/a	n/a	n/a	n/a	n/a	n/a	12	2	2	8	n/a	n/a	n/a	n/a	n/a
775535	STOP	n/a	LTP286	ltpFR	9	n/a	n/a	n/a	n/a	n/a	n/a	n/a	n/a	n/a	n/a	n/a	n/a	n/a	n/a	n/a	n/a
778155	WORD	wordpools/wasnorm_wordpool_less_exclusions.txt	LTP286	ltpFR	9	4	0	SUIT	1402	n/a	n/a	0	n/a	0	0	0	0.57763671875	0.412841796875	1	upper	zerothre.ttf
781167	START	n/a	LTP286	ltpFR	9	n/a	n/a	n/a	n/a	n/a	n/a	n/a	n/a	n/a	n/a	n/a	n/a	n/a	n/a	n/a	n/a
782249	PROB	n/a	LTP286	ltpFR	9	n/a	n/a	n/a	n/a	n/a	n/a	n/a	6	3	1	2	n/a	n/a	n/a	n/a	n/a
784113	PROB	n/a	LTP286	ltpFR	9	n/a	n/a	n/a	n/a	n/a	n/a	n/a	16	6	6	4	n/a	n/a	n/a	n/a	n/a
785759	PROB	n/a	LTP286	ltpFR	9	n/a	n/a	n/a	n/a	n/a	n/a	n/a	18	9	2	7	n/a	n/a	n/a	n/a	n/a
789167	STOP	n/a	LTP286	ltpFR	9	n/a	n/a	n/a	n/a	n/a	n/a	n/a	n/a	n/a	n/a	n/a	n/a	n/a	n/a	n/a	n/a
790370	WORD	wordpools/wasnorm_wordpool_less_exclusions.txt	LTP286	ltpFR	9	4	0	TRAY	1498	n/a	n/a	0	n/a	0	0	0	0.57763671875	0.412841796875	1	upper	zerothre.ttf
793382	START	n/a	LTP286	ltpFR	9	n/a	n/a	n/a	n/a	n/a	n/a	n/a	n/a	n/a	n/a	n/a	n/a	n/a	n/a	n/a	n/a
794380	PROB	n/a	LTP286	ltpFR	9	n/a	n/a	n/a	n/a	n/a	n/a	n/a	16	7	3	6	n/a	n/a	n/a	n/a	n/a
795794	PROB	n/a	LTP286	ltpFR	9	n/a	n/a	n/a	n/a	n/a	n/a	n/a	14	5	5	4	n/a	n/a	n/a	n/a	n/a
796976	PROB	n/a	LTP286	ltpFR	9	n/a	n/a	n/a	n/a	n/a	n/a	n/a	12	1	5	6	n/a	n/a	n/a	n/a	n/a
798523	PROB	n/a	LTP286	ltpFR	9	n/a	n/a	n/a	n/a	n/a	n/a	n/a	13	8	3	2	n/a	n/a	n/a	n/a	n/a
799967	STOP	n/a	LTP286	ltpFR	9	n/a	n/a	n/a	n/a	n/a	n/a	n/a	n/a	n/a	n/a	n/a	n/a	n/a	n/a	n/a	n/a
802369	WORD	wordpools/wasnorm_wordpool_less_exclusions.txt	LTP286	ltpFR	9	4	0	PATIO	1025	n/a	n/a	1	n/a	0	0	0	0.57763671875	0.412841796875	1	upper	zerothre.ttf
805381	START	n/a	LTP286	ltpFR	9	n/a	n/a	n/a	n/a	n/a	n/a	n/a	n/a	n/a	n/a	n/a	n/a	n/a	n/a	n/a	n/a
806196	PROB	n/a	LTP286	ltpFR	9	n/a	n/a	n/a	n/a	n/a	n/a	n/a	14	5	5	7	n/a	n/a	n/a	n/a	n/a
808575	PROB	n/a	LTP286	ltpFR	9	n/a	n/a	n/a	n/a	n/a	n/a	n/a	16	6	6	4	n/a	n/a	n/a	n/a	n/a
810788	PROB	n/a	LTP286	ltpFR	9	n/a	n/a	n/a	n/a	n/a	n/a	n/a	16	8	7	1	n/a	n/a	n/a	n/a	n/a
812384	STOP	n/a	LTP286	ltpFR	9	n/a	n/a	n/a	n/a	n/a	n/a	n/a	n/a	n/a	n/a	n/a	n/a	n/a	n/a	n/a	n/a
814466	WORD	wordpools/wasnorm_wordpool_less_exclusions.txt	LTP286	ltpFR	9	4	0	LIZARD	834	n/a	n/a	1	n/a	0	0	0	0.57763671875	0.412841796875	1	upper	zerothre.ttf
817479	START	n/a	LTP286	ltpFR	9	n/a	n/a	n/a	n/a	n/a	n/a	n/a	n/a	n/a	n/a	n/a	n/a	n/a	n/a	n/a	n/a
818345	PROB	n/a	LTP286	ltpFR	9	n/a	n/a	n/a	n/a	n/a	n/a	n/a	14	3	5	6	n/a	n/a	n/a	n/a	n/a
819858	PROB	n/a	LTP286	ltpFR	9	n/a	n/a	n/a	n/a	n/a	n/a	n/a	12	2	7	3	n/a	n/a	n/a	n/a	n/a
821439	PROB	n/a	LTP286	ltpFR	9	n/a	n/a	n/a	n/a	n/a	n/a	n/a	19	3	7	9	n/a	n/a	n/a	n/a	n/a
823020	PROB	n/a	LTP286	ltpFR	9	n/a	n/a	n/a	n/a	n/a	n/a	n/a	22	5	8	8	n/a	n/a	n/a	n/a	n/a
824967	STOP	n/a	LTP286	ltpFR	9	n/a	n/a	n/a	n/a	n/a	n/a	n/a	n/a	n/a	n/a	n/a	n/a	n/a	n/a	n/a	n/a
826648	WORD	wordpools/wasnorm_wordpool_less_exclusions.txt	LTP286	ltpFR	9	4	0	SERPENT	1270	n/a	n/a	0	n/a	0	0	0	0.57763671875	0.412841796875	1	upper	zerothre.ttf
829661	START	n/a	LTP286	ltpFR	9	n/a	n/a	n/a	n/a	n/a	n/a	n/a	n/a	n/a	n/a	n/a	n/a	n/a	n/a	n/a	n/a
830725	PROB	n/a	LTP286	ltpFR	9	n/a	n/a	n/a	n/a	n/a	n/a	n/a	13	1	9	3	n/a	n/a	n/a	n/a	n/a
831957	PROB	n/a	LTP286	ltpFR	9	n/a	n/a	n/a	n/a	n/a	n/a	n/a	18	8	6	4	n/a	n/a	n/a	n/a	n/a
834138	PROB	n/a	LTP286	ltpFR	9	n/a	n/a	n/a	n/a	n/a	n/a	n/a	16	3	6	7	n/a	n/a	n/a	n/a	n/a
836136	STOP	n/a	LTP286	ltpFR	9	n/a	n/a	n/a	n/a	n/a	n/a	n/a	n/a	n/a	n/a	n/a	n/a	n/a	n/a	n/a	n/a
838797	WORD	wordpools/wasnorm_wordpool_less_exclusions.txt	LTP286	ltpFR	9	4	0	ARROW	40	n/a	n/a	0	n/a	0	0	0	0.57763671875	0.412841796875	1	upper	zerothre.ttf
841809	START	n/a	LTP286	ltpFR	9	n/a	n/a	n/a	n/a	n/a	n/a	n/a	n/a	n/a	n/a	n/a	n/a	n/a	n/a	n/a	n/a
842741	PROB	n/a	LTP286	ltpFR	9	n/a	n/a	n/a	n/a	n/a	n/a	n/a	14	9	4	1	n/a	n/a	n/a	n/a	n/a
845105	PROB	n/a	LTP286	ltpFR	9	n/a	n/a	n/a	n/a	n/a	n/a	n/a	10	4	2	4	n/a	n/a	n/a	n/a	n/a
846701	PROB	n/a	LTP286	ltpFR	9	n/a	n/a	n/a	n/a	n/a	n/a	n/a	10	5	4	1	n/a	n/a	n/a	n/a	n/a
847866	PROB	n/a	LTP286	ltpFR	9	n/a	n/a	n/a	n/a	n/a	n/a	n/a	11	5	5	1	n/a	n/a	n/a	n/a	n/a
848943	STOP	n/a	LTP286	ltpFR	9	n/a	n/a	n/a	n/a	n/a	n/a	n/a	n/a	n/a	n/a	n/a	n/a	n/a	n/a	n/a	n/a
850745	WORD	wordpools/wasnorm_wordpool_less_exclusions.txt	LTP286	ltpFR	9	4	0	SHIP	1286	n/a	n/a	1	n/a	0	0	0	0.57763671875	0.412841796875	1	upper	zerothre.ttf
853758	START	n/a	LTP286	ltpFR	9	n/a	n/a	n/a	n/a	n/a	n/a	n/a	n/a	n/a	n/a	n/a	n/a	n/a	n/a	n/a	n/a
854839	PROB	n/a	LTP286	ltpFR	9	n/a	n/a	n/a	n/a	n/a	n/a	n/a	15	7	3	5	n/a	n/a	n/a	n/a	n/a
856355	PROB	n/a	LTP286	ltpFR	9	n/a	n/a	n/a	n/a	n/a	n/a	n/a	13	4	7	2	n/a	n/a	n/a	n/a	n/a
857935	PROB	n/a	LTP286	ltpFR	9	n/a	n/a	n/a	n/a	n/a	n/a	n/a	12	1	5	6	n/a	n/a	n/a	n/a	n/a
859234	PROB	n/a	LTP286	ltpFR	9	n/a	n/a	n/a	n/a	n/a	n/a	n/a	18	7	4	7	n/a	n/a	n/a	n/a	n/a
861056	STOP	n/a	LTP286	ltpFR	9	n/a	n/a	n/a	n/a	n/a	n/a	n/a	n/a	n/a	n/a	n/a	n/a	n/a	n/a	n/a	n/a
862594	WORD	wordpools/wasnorm_wordpool_less_exclusions.txt	LTP286	ltpFR	9	4	0	PLATE	1086	n/a	n/a	0	n/a	0	0	0	0.57763671875	0.412841796875	1	upper	zerothre.ttf
865607	START	n/a	LTP286	ltpFR	9	n/a	n/a	n/a	n/a	n/a	n/a	n/a	n/a	n/a	n/a	n/a	n/a	n/a	n/a	n/a	n/a
866455	PROB	n/a	LTP286	ltpFR	9	n/a	n/a	n/a	n/a	n/a	n/a	n/a	11	5	1	5	n/a	n/a	n/a	n/a	n/a
868436	PROB	n/a	LTP286	ltpFR	9	n/a	n/a	n/a	n/a	n/a	n/a	n/a	10	8	1	1	n/a	n/a	n/a	n/a	n/a
870017	PROB	n/a	LTP286	ltpFR	9	n/a	n/a	n/a	n/a	n/a	n/a	n/a	6	4	3	2	n/a	n/a	n/a	n/a	n/a
872711	STOP	n/a	LTP286	ltpFR	9	n/a	n/a	n/a	n/a	n/a	n/a	n/a	n/a	n/a	n/a	n/a	n/a	n/a	n/a	n/a	n/a
874576	WORD	wordpools/wasnorm_wordpool_less_exclusions.txt	LTP286	ltpFR	9	4	0	DUCK	504	n/a	n/a	0	n/a	0	0	0	0.57763671875	0.412841796875	1	upper	zerothre.ttf
877589	START	n/a	LTP286	ltpFR	9	n/a	n/a	n/a	n/a	n/a	n/a	n/a	n/a	n/a	n/a	n/a	n/a	n/a	n/a	n/a	n/a
878787	PROB	n/a	LTP286	ltpFR	9	n/a	n/a	n/a	n/a	n/a	n/a	n/a	19	7	6	6	n/a	n/a	n/a	n/a	n/a
880402	PROB	n/a	LTP286	ltpFR	9	n/a	n/a	n/a	n/a	n/a	n/a	n/a	13	5	2	6	n/a	n/a	n/a	n/a	n/a
882133	PROB	n/a	LTP286	ltpFR	9	n/a	n/a	n/a	n/a	n/a	n/a	n/a	11	1	4	6	n/a	n/a	n/a	n/a	n/a
885583	STOP	n/a	LTP286	ltpFR	9	n/a	n/a	n/a	n/a	n/a	n/a	n/a	n/a	n/a	n/a	n/a	n/a	n/a	n/a	n/a	n/a
886542	WORD	wordpools/wasnorm_wordpool_less_exclusions.txt	LTP286	ltpFR	9	4	0	NEWSPAPER	948	n/a	n/a	0	n/a	0	0	0	0.57763671875	0.412841796875	1	upper	zerothre.ttf
889554	START	n/a	LTP286	ltpFR	9	n/a	n/a	n/a	n/a	n/a	n/a	n/a	n/a	n/a	n/a	n/a	n/a	n/a	n/a	n/a	n/a
890736	PROB	n/a	LTP286	ltpFR	9	n/a	n/a	n/a	n/a	n/a	n/a	n/a	15	6	7	2	n/a	n/a	n/a	n/a	n/a
892450	PROB	n/a	LTP286	ltpFR	9	n/a	n/a	n/a	n/a	n/a	n/a	n/a	24	6	7	9	n/a	n/a	n/a	n/a	n/a
897553	STOP	n/a	LTP286	ltpFR	9	n/a	n/a	n/a	n/a	n/a	n/a	n/a	n/a	n/a	n/a	n/a	n/a	n/a	n/a	n/a	n/a
899374	REC_START	n/a	LTP286	ltpFR	9	4	n/a	n/a	n/a	n/a	n/a	n/a	n/a	0	0	0	n/a	n/a	n/a	n/a	n/a
906829	REC_WORD	wordpools/wasnorm_wordpool_less_exclusions.txt	LTP286	ltpFR	9	4	0	LIZARD	834	n/a	n/a	1	n/a	0	0	0	n/a	n/a	n/a	n/a	n/a
908368	REC_WORD	wordpools/wasnorm_wordpool_less_exclusions.txt	LTP286	ltpFR	9	4	0	SERPENT	1270	n/a	n/a	0	n/a	0	0	0	n/a	n/a	n/a	n/a	n/a
910168	REC_WORD	wordpools/wasnorm_wordpool_less_exclusions.txt	LTP286	ltpFR	9	4	0	ARROW	40	n/a	n/a	0	n/a	0	0	0	n/a	n/a	n/a	n/a	n/a
961131	REC_WORD	wordpools/wasnorm_wordpool_less_exclusions.txt	LTP286	ltpFR	9	4	0	NEWSPAPER	948	n/a	n/a	0	n/a	0	0	0	n/a	n/a	n/a	n/a	n/a
984081	WORD	wordpools/wasnorm_wordpool_less_exclusions.txt	LTP286	ltpFR	9	5	0	BUREAU	199	n/a	n/a	1	n/a	0	0	0	0.57763671875	0.412841796875	1	upper	zerothre.ttf
988174	WORD	wordpools/wasnorm_wordpool_less_exclusions.txt	LTP286	ltpFR	9	5	0	CHIMPANZEE	302	n/a	n/a	1	n/a	0	0	0	0.57763671875	0.412841796875	1	upper	zerothre.ttf
992135	WORD	wordpools/wasnorm_wordpool_less_exclusions.txt	LTP286	ltpFR	9	5	0	FROST	609	n/a	n/a	0	n/a	0	0	0	0.57763671875	0.412841796875	1	upper	zerothre.ttf
996129	WORD	wordpools/wasnorm_wordpool_less_exclusions.txt	LTP286	ltpFR	9	5	0	MAT	877	n/a	n/a	0	n/a	0	0	0	0.57763671875	0.412841796875	1	upper	zerothre.ttf
1000022	WORD	wordpools/wasnorm_wordpool_less_exclusions.txt	LTP286	ltpFR	9	5	0	PRIMATE	1123	n/a	n/a	1	n/a	0	0	0	0.57763671875	0.412841796875	1	upper	zerothre.ttf
1004151	WORD	wordpools/wasnorm_wordpool_less_exclusions.txt	LTP286	ltpFR	9	5	0	DOCK	477	n/a	n/a	1	n/a	0	0	0	0.57763671875	0.412841796875	1	upper	zerothre.ttf
1008245	WORD	wordpools/wasnorm_wordpool_less_exclusions.txt	LTP286	ltpFR	9	5	1	PIRATE	1074	n/a	n/a	1	n/a	0	0	0	0.422607421875	0.5869140625	0	lower	amplitud.ttf
1012205	WORD	wordpools/wasnorm_wordpool_less_exclusions.txt	LTP286	ltpFR	9	5	1	CHEDDAR	286	n/a	n/a	0	n/a	0	0	0	0.422607421875	0.5869140625	0	lower	amplitud.ttf
1016183	WORD	wordpools/wasnorm_wordpool_less_exclusions.txt	LTP286	ltpFR	9	5	0	BABY	64	n/a	n/a	0	n/a	0	0	0	0.57763671875	0.412841796875	1	upper	zerothre.ttf
1020044	WORD	wordpools/wasnorm_wordpool_less_exclusions.txt	LTP286	ltpFR	9	5	0	COCOON	339	n/a	n/a	0	n/a	0	0	0	0.57763671875	0.412841796875	1	upper	zerothre.ttf
1024221	WORD	wordpools/wasnorm_wordpool_less_exclusions.txt	LTP286	ltpFR	9	5	1	DUNE	506	n/a	n/a	0	n/a	0	0	0	0.422607421875	0.5869140625	0	lower	amplitud.ttf
1028430	WORD	wordpools/wasnorm_wordpool_less_exclusions.txt	LTP286	ltpFR	9	5	1	AGENT	10	n/a	n/a	1	n/a	0	0	0	0.422607421875	0.5869140625	0	lower	amplitud.ttf
1032392	WORD	wordpools/wasnorm_wordpool_less_exclusions.txt	LTP286	ltpFR	9	5	1	HOOP	716	n/a	n/a	0	n/a	0	0	0	0.422607421875	0.5869140625	0	lower	amplitud.ttf
1036585	WORD	wordpools/wasnorm_wordpool_less_exclusions.txt	LTP286	ltpFR	9	5	1	RODENT	1204	n/a	n/a	1	n/a	0	0	0	0.422607421875	0.5869140625	0	lower	amplitud.ttf
1040579	WORD	wordpools/wasnorm_wordpool_less_exclusions.txt	LTP286	ltpFR	9	5	1	PAINTER	1004	n/a	n/a	1	n/a	0	0	0	0.422607421875	0.5869140625	0	lower	amplitud.ttf
1044623	WORD	wordpools/wasnorm_wordpool_less_exclusions.txt	LTP286	ltpFR	9	5	1	CANVAS	234	n/a	n/a	0	n/a	0	0	0	0.422607421875	0.5869140625	0	lower	amplitud.ttf
1047635	START	n/a	LTP286	ltpFR	9	n/a	n/a	n/a	n/a	n/a	n/a	n/a	n/a	n/a	n/a	n/a	n/a	n/a	n/a	n/a	n/a
1048633	PROB	n/a	LTP286	ltpFR	9	n/a	n/a	n/a	n/a	n/a	n/a	n/a	14	4	7	3	n/a	n/a	n/a	n/a	n/a
1050099	PROB	n/a	LTP286	ltpFR	9	n/a	n/a	n/a	n/a	n/a	n/a	n/a	20	7	3	9	n/a	n/a	n/a	n/a	n/a
1051878	PROB	n/a	LTP286	ltpFR	9	n/a	n/a	n/a	n/a	n/a	n/a	n/a	6	2	3	1	n/a	n/a	n/a	n/a	n/a
1053809	PROB	n/a	LTP286	ltpFR	9	n/a	n/a	n/a	n/a	n/a	n/a	n/a	12	8	3	1	n/a	n/a	n/a	n/a	n/a
1055058	PROB	n/a	LTP286	ltpFR	9	n/a	n/a	n/a	n/a	n/a	n/a	n/a	16	6	1	9	n/a	n/a	n/a	n/a	n/a
1056754	PROB	n/a	LTP286	ltpFR	9	n/a	n/a	n/a	n/a	n/a	n/a	n/a	17	9	4	4	n/a	n/a	n/a	n/a	n/a
1059035	PROB	n/a	LTP286	ltpFR	9	n/a	n/a	n/a	n/a	n/a	n/a	n/a	20	5	7	8	n/a	n/a	n/a	n/a	n/a
1060832	PROB	n/a	LTP286	ltpFR	9	n/a	n/a	n/a	n/a	n/a	n/a	n/a	17	4	8	7	n/a	n/a	n/a	n/a	n/a
1062727	STOP	n/a	LTP286	ltpFR	9	n/a	n/a	n/a	n/a	n/a	n/a	n/a	n/a	n/a	n/a	n/a	n/a	n/a	n/a	n/a	n/a
1065558	REC_START	n/a	LTP286	ltpFR	9	5	n/a	n/a	n/a	n/a	n/a	n/a	n/a	0	0	0	n/a	n/a	n/a	n/a	n/a
1067675	REC_WORD	wordpools/wasnorm_wordpool_less_exclusions.txt	LTP286	ltpFR	9	5	0	CHIMPANZEE	302	n/a	n/a	1	n/a	0	0	0	n/a	n/a	n/a	n/a	n/a
1069468	REC_WORD	wordpools/wasnorm_wordpool_less_exclusions.txt	LTP286	ltpFR	9	5	0	PRIMATE	1123	n/a	n/a	1	n/a	0	0	0	n/a	n/a	n/a	n/a	n/a
1070949	REC_WORD	wordpools/wasnorm_wordpool_less_exclusions.txt	LTP286	ltpFR	9	5	0	MAT	877	n/a	n/a	0	n/a	0	0	0	n/a	n/a	n/a	n/a	n/a
1072324	REC_WORD	wordpools/wasnorm_wordpool_less_exclusions.txt	LTP286	ltpFR	9	5	0	FROST	609	n/a	n/a	0	n/a	0	0	0	n/a	n/a	n/a	n/a	n/a
1074088	REC_WORD	wordpools/wasnorm_wordpool_less_exclusions.txt	LTP286	ltpFR	9	5	0	DOCK	477	n/a	n/a	1	n/a	0	0	0	n/a	n/a	n/a	n/a	n/a
1094237	REC_WORD	wordpools/wasnorm_wordpool_less_exclusions.txt	LTP286	ltpFR	9	5	1	PAINTER	1004	n/a	n/a	1	n/a	0	0	0	n/a	n/a	n/a	n/a	n/a
1095711	REC_WORD	wordpools/wasnorm_wordpool_less_exclusions.txt	LTP286	ltpFR	9	5	1	CANVAS	234	n/a	n/a	0	n/a	0	0	0	n/a	n/a	n/a	n/a	n/a
1125235	REC_WORD	wordpools/wasnorm_wordpool_less_exclusions.txt	LTP286	ltpFR	9	5	0	BUREAU	199	n/a	n/a	1	n/a	0	0	0	n/a	n/a	n/a	n/a	n/a
1146189	WORD	wordpools/wasnorm_wordpool_less_exclusions.txt	LTP286	ltpFR	9	6	1	CYCLONE	431	n/a	n/a	0	n/a	0	0	0	0.422607421875	0.5869140625	0	lower	amplitud.ttf
1150216	WORD	wordpools/wasnorm_wordpool_less_exclusions.txt	LTP286	ltpFR	9	6	1	MANAGER	863	n/a	n/a	1	n/a	0	0	0	0.422607421875	0.5869140625	0	lower	amplitud.ttf
1154060	WORD	wordpools/wasnorm_wordpool_less_exclusions.txt	LTP286	ltpFR	9	6	0	GLOBE	641	n/a	n/a	1	n/a	0	0	0	0.57763671875	0.412841796875	1	upper	zerothre.ttf
1158187	WORD	wordpools/wasnorm_wordpool_less_exclusions.txt	LTP286	ltpFR	9	6	0	PIER	1063	n/a	n/a	1	n/a	0	0	0	0.57763671875	0.412841796875	1	upper	zerothre.ttf
1162364	WORD	wordpools/wasnorm_wordpool_less_exclusions.txt	LTP286	ltpFR	9	6	0	CLOVE	329	n/a	n/a	0	n/a	0	0	0	0.57763671875	0.412841796875	1	upper	zerothre.ttf
1166457	WORD	wordpools/wasnorm_wordpool_less_exclusions.txt	LTP286	ltpFR	9	6	1	SEED	1266	n/a	n/a	1	n/a	0	0	0	0.422607421875	0.5869140625	0	lower	amplitud.ttf
1170352	WORD	wordpools/wasnorm_wordpool_less_exclusions.txt	LTP286	ltpFR	9	6	1	SWEATER	1419	n/a	n/a	0	n/a	0	0	0	0.422607421875	0.5869140625	0	lower	amplitud.ttf
1174213	WORD	wordpools/wasnorm_wordpool_less_exclusions.txt	LTP286	ltpFR	9	6	0	BUTTON	207	n/a	n/a	0	n/a	0	0	0	0.57763671875	0.412841796875	1	upper	zerothre.ttf
1178241	WORD	wordpools/wasnorm_wordpool_less_exclusions.txt	LTP286	ltpFR	9	6	0	LEVER	815	n/a	n/a	0	n/a	0	0	0	0.57763671875	0.412841796875	1	upper	zerothre.ttf
1182301	WORD	wordpools/wasnorm_wordpool_less_exclusions.txt	LTP286	ltpFR	9	6	0	DIRECTOR	471	n/a	n/a	1	n/a	0	0	0	0.57763671875	0.412841796875	1	upper	zerothre.ttf
1186395	WORD	wordpools/wasnorm_wordpool_less_exclusions.txt	LTP286	ltpFR	9	6	0	ACROBAT	4	n/a	n/a	1	n/a	0	0	0	0.57763671875	0.412841796875	1	upper	zerothre.ttf
1190488	WORD	wordpools/wasnorm_wordpool_less_exclusions.txt	LTP286	ltpFR	9	6	0	SOAP	1337	n/a	n/a	0	n/a	0	0	0	0.57763671875	0.412841796875	1	upper	zerothre.ttf
1194698	WORD	wordpools/wasnorm_wordpool_less_exclusions.txt	LTP286	ltpFR	9	6	1	OYSTER	995	n/a	n/a	1	n/a	0	0	0	0.422607421875	0.5869140625	0	lower	amplitud.ttf
1198559	WORD	wordpools/wasnorm_wordpool_less_exclusions.txt	LTP286	ltpFR	9	6	1	SCALLOP	1242	n/a	n/a	1	n/a	0	0	0	0.422607421875	0.5869140625	0	lower	amplitud.ttf
1202504	WORD	wordpools/wasnorm_wordpool_less_exclusions.txt	LTP286	ltpFR	9	6	1	CIRCUS	311	n/a	n/a	0	n/a	0	0	0	0.422607421875	0.5869140625	0	lower	amplitud.ttf
1206332	WORD	wordpools/wasnorm_wordpool_less_exclusions.txt	LTP286	ltpFR	9	6	1	BATTERY	101	n/a	n/a	0	n/a	0	0	0	0.422607421875	0.5869140625	0	lower	amplitud.ttf
1209344	START	n/a	LTP286	ltpFR	9	n/a	n/a	n/a	n/a	n/a	n/a	n/a	n/a	n/a	n/a	n/a	n/a	n/a	n/a	n/a	n/a
1210492	PROB	n/a	LTP286	ltpFR	9	n/a	n/a	n/a	n/a	n/a	n/a	n/a	15	6	7	2	n/a	n/a	n/a	n/a	n/a
1212257	PROB	n/a	LTP286	ltpFR	9	n/a	n/a	n/a	n/a	n/a	n/a	n/a	18	7	5	5	n/a	n/a	n/a	n/a	n/a
1213970	PROB	n/a	LTP286	ltpFR	9	n/a	n/a	n/a	n/a	n/a	n/a	n/a	26	7	7	8	n/a	n/a	n/a	n/a	n/a
1216400	STOP	n/a	LTP286	ltpFR	9	n/a	n/a	n/a	n/a	n/a	n/a	n/a	n/a	n/a	n/a	n/a	n/a	n/a	n/a	n/a	n/a
1219180	REC_START	n/a	LTP286	ltpFR	9	6	n/a	n/a	n/a	n/a	n/a	n/a	n/a	0	0	0	n/a	n/a	n/a	n/a	n/a
1221049	REC_WORD	wordpools/wasnorm_wordpool_less_exclusions.txt	LTP286	ltpFR	9	6	1	OYSTER	995	n/a	n/a	1	n/a	0	0	0	n/a	n/a	n/a	n/a	n/a
1222368	REC_WORD	wordpools/wasnorm_wordpool_less_exclusions.txt	LTP286	ltpFR	9	6	1	SCALLOP	1242	n/a	n/a	1	n/a	0	0	0	n/a	n/a	n/a	n/a	n/a
1224094	REC_WORD	wordpools/wasnorm_wordpool_less_exclusions.txt	LTP286	ltpFR	9	6	0	PIER	1063	n/a	n/a	1	n/a	0	0	0	n/a	n/a	n/a	n/a	n/a
1230893	REC_WORD	wordpools/wasnorm_wordpool_less_exclusions.txt	LTP286	ltpFR	9	6	1	CYCLONE	431	n/a	n/a	0	n/a	0	0	0	n/a	n/a	n/a	n/a	n/a
1232855	REC_WORD	wordpools/wasnorm_wordpool_less_exclusions.txt	LTP286	ltpFR	9	6	1	SEED	1266	n/a	n/a	1	n/a	0	0	0	n/a	n/a	n/a	n/a	n/a
1244766	REC_WORD	wordpools/wasnorm_wordpool_less_exclusions.txt	LTP286	ltpFR	9	6	1	RODENT	1204	n/a	n/a	1	n/a	0	0	0	n/a	n/a	n/a	n/a	n/a
1271271	REC_WORD	wordpools/wasnorm_wordpool_less_exclusions.txt	LTP286	ltpFR	9	6	0	ACROBAT	4	n/a	n/a	1	n/a	0	0	0	n/a	n/a	n/a	n/a	n/a
1276963	REC_WORD	wordpools/wasnorm_wordpool_less_exclusions.txt	LTP286	ltpFR	9	6	0	DIRECTOR	471	n/a	n/a	1	n/a	0	0	0	n/a	n/a	n/a	n/a	n/a
1294799	REST_REWET	n/a	LTP286	ltpFR	9	6	n/a	n/a	n/a	n/a	n/a	n/a	n/a	0	0	0	n/a	n/a	n/a	n/a	n/a
1686681	START	n/a	LTP286	ltpFR	9	n/a	n/a	n/a	n/a	n/a	n/a	n/a	n/a	n/a	n/a	n/a	n/a	n/a	n/a	n/a	n/a
1688196	PROB	n/a	LTP286	ltpFR	9	n/a	n/a	n/a	n/a	n/a	n/a	n/a	19	9	9	5	n/a	n/a	n/a	n/a	n/a
1689809	PROB	n/a	LTP286	ltpFR	9	n/a	n/a	n/a	n/a	n/a	n/a	n/a	10	1	4	5	n/a	n/a	n/a	n/a	n/a
1691540	PROB	n/a	LTP286	ltpFR	9	n/a	n/a	n/a	n/a	n/a	n/a	n/a	15	9	5	1	n/a	n/a	n/a	n/a	n/a
1693188	PROB	n/a	LTP286	ltpFR	9	n/a	n/a	n/a	n/a	n/a	n/a	n/a	9	4	4	1	n/a	n/a	n/a	n/a	n/a
1694519	PROB	n/a	LTP286	ltpFR	9	n/a	n/a	n/a	n/a	n/a	n/a	n/a	13	7	4	2	n/a	n/a	n/a	n/a	n/a
1695983	PROB	n/a	LTP286	ltpFR	9	n/a	n/a	n/a	n/a	n/a	n/a	n/a	19	6	7	6	n/a	n/a	n/a	n/a	n/a
1697448	PROB	n/a	LTP286	ltpFR	9	n/a	n/a	n/a	n/a	n/a	n/a	n/a	17	5	8	4	n/a	n/a	n/a	n/a	n/a
1699528	PROB	n/a	LTP286	ltpFR	9	n/a	n/a	n/a	n/a	n/a	n/a	n/a	20	9	3	8	n/a	n/a	n/a	n/a	n/a
1701120	STOP	n/a	LTP286	ltpFR	9	n/a	n/a	n/a	n/a	n/a	n/a	n/a	n/a	n/a	n/a	n/a	n/a	n/a	n/a	n/a	n/a
1703622	WORD	wordpools/wasnorm_wordpool_less_exclusions.txt	LTP286	ltpFR	9	7	0	GODDESS	646	n/a	n/a	1	n/a	0	0	0	0.57763671875	0.412841796875	1	upper	zerothre.ttf
1706635	START	n/a	LTP286	ltpFR	9	n/a	n/a	n/a	n/a	n/a	n/a	n/a	n/a	n/a	n/a	n/a	n/a	n/a	n/a	n/a	n/a
1707666	PROB	n/a	LTP286	ltpFR	9	n/a	n/a	n/a	n/a	n/a	n/a	n/a	23	9	5	7	n/a	n/a	n/a	n/a	n/a
1710728	PROB	n/a	LTP286	ltpFR	9	n/a	n/a	n/a	n/a	n/a	n/a	n/a	20	8	3	4	n/a	n/a	n/a	n/a	n/a
1713607	PROB	n/a	LTP286	ltpFR	9	n/a	n/a	n/a	n/a	n/a	n/a	n/a	14	6	2	6	n/a	n/a	n/a	n/a	n/a
1715405	PROB	n/a	LTP286	ltpFR	9	n/a	n/a	n/a	n/a	n/a	n/a	n/a	17	4	5	8	n/a	n/a	n/a	n/a	n/a
1717286	PROB	n/a	LTP286	ltpFR	9	n/a	n/a	n/a	n/a	n/a	n/a	n/a	20	6	8	6	n/a	n/a	n/a	n/a	n/a
1722631	STOP	n/a	LTP286	ltpFR	9	n/a	n/a	n/a	n/a	n/a	n/a	n/a	n/a	n/a	n/a	n/a	n/a	n/a	n/a	n/a	n/a
1723642	WORD	wordpools/wasnorm_wordpool_less_exclusions.txt	LTP286	ltpFR	9	7	0	PADDING	999	n/a	n/a	0	n/a	0	0	0	0.57763671875	0.412841796875	1	upper	zerothre.ttf
1726655	START	n/a	LTP286	ltpFR	9	n/a	n/a	n/a	n/a	n/a	n/a	n/a	n/a	n/a	n/a	n/a	n/a	n/a	n/a	n/a	n/a
1727703	PROB	n/a	LTP286	ltpFR	9	n/a	n/a	n/a	n/a	n/a	n/a	n/a	19	7	8	3	n/a	n/a	n/a	n/a	n/a
1729783	PROB	n/a	LTP286	ltpFR	9	n/a	n/a	n/a	n/a	n/a	n/a	n/a	10	1	3	6	n/a	n/a	n/a	n/a	n/a
1731647	PROB	n/a	LTP286	ltpFR	9	n/a	n/a	n/a	n/a	n/a	n/a	n/a	12	6	3	3	n/a	n/a	n/a	n/a	n/a
1733096	PROB	n/a	LTP286	ltpFR	9	n/a	n/a	n/a	n/a	n/a	n/a	n/a	5	1	2	2	n/a	n/a	n/a	n/a	n/a
1734642	PROB	n/a	LTP286	ltpFR	9	n/a	n/a	n/a	n/a	n/a	n/a	n/a	16	3	4	9	n/a	n/a	n/a	n/a	n/a
1736391	PROB	n/a	LTP286	ltpFR	9	n/a	n/a	n/a	n/a	n/a	n/a	n/a	20	5	8	7	n/a	n/a	n/a	n/a	n/a
1738205	PROB	n/a	LTP286	ltpFR	9	n/a	n/a	n/a	n/a	n/a	n/a	n/a	18	7	3	8	n/a	n/a	n/a	n/a	n/a
1739651	PROB	n/a	LTP286	ltpFR	9	n/a	n/a	n/a	n/a	n/a	n/a	n/a	12	2	3	7	n/a	n/a	n/a	n/a	n/a
1742654	STOP	n/a	LTP286	ltpFR	9	n/a	n/a	n/a	n/a	n/a	n/a	n/a	n/a	n/a	n/a	n/a	n/a	n/a	n/a	n/a	n/a
1743862	WORD	wordpools/wasnorm_wordpool_less_exclusions.txt	LTP286	ltpFR	9	7	1	PLAZA	1088	n/a	n/a	0	n/a	0	0	0	0.422607421875	0.5869140625	0	lower	amplitud.ttf
1746874	START	n/a	LTP286	ltpFR	9	n/a	n/a	n/a	n/a	n/a	n/a	n/a	n/a	n/a	n/a	n/a	n/a	n/a	n/a	n/a	n/a
1748040	PROB	n/a	LTP286	ltpFR	9	n/a	n/a	n/a	n/a	n/a	n/a	n/a	17	1	8	8	n/a	n/a	n/a	n/a	n/a
1749637	PROB	n/a	LTP286	ltpFR	9	n/a	n/a	n/a	n/a	n/a	n/a	n/a	13	8	4	1	n/a	n/a	n/a	n/a	n/a
1751135	PROB	n/a	LTP286	ltpFR	9	n/a	n/a	n/a	n/a	n/a	n/a	n/a	1	4	1	4	n/a	n/a	n/a	n/a	n/a
1753116	PROB	n/a	LTP286	ltpFR	9	n/a	n/a	n/a	n/a	n/a	n/a	n/a	17	6	8	3	n/a	n/a	n/a	n/a	n/a
1755312	PROB	n/a	LTP286	ltpFR	9	n/a	n/a	n/a	n/a	n/a	n/a	n/a	12	5	5	2	n/a	n/a	n/a	n/a	n/a
1756526	PROB	n/a	LTP286	ltpFR	9	n/a	n/a	n/a	n/a	n/a	n/a	n/a	13	5	2	6	n/a	n/a	n/a	n/a	n/a
1758191	PROB	n/a	LTP286	ltpFR	9	n/a	n/a	n/a	n/a	n/a	n/a	n/a	5	1	2	1	n/a	n/a	n/a	n/a	n/a
1759988	PROB	n/a	LTP286	ltpFR	9	n/a	n/a	n/a	n/a	n/a	n/a	n/a	19	9	2	8	n/a	n/a	n/a	n/a	n/a
1762455	STOP	n/a	LTP286	ltpFR	9	n/a	n/a	n/a	n/a	n/a	n/a	n/a	n/a	n/a	n/a	n/a	n/a	n/a	n/a	n/a	n/a
1763699	WORD	wordpools/wasnorm_wordpool_less_exclusions.txt	LTP286	ltpFR	9	7	1	TICKET	1464	n/a	n/a	0	n/a	0	0	0	0.422607421875	0.5869140625	0	lower	amplitud.ttf
1766711	START	n/a	LTP286	ltpFR	9	n/a	n/a	n/a	n/a	n/a	n/a	n/a	n/a	n/a	n/a	n/a	n/a	n/a	n/a	n/a	n/a
1767560	PROB	n/a	LTP286	ltpFR	9	n/a	n/a	n/a	n/a	n/a	n/a	n/a	24	8	7	8	n/a	n/a	n/a	n/a	n/a
1769640	PROB	n/a	LTP286	ltpFR	9	n/a	n/a	n/a	n/a	n/a	n/a	n/a	18	9	5	4	n/a	n/a	n/a	n/a	n/a
1771820	PROB	n/a	LTP286	ltpFR	9	n/a	n/a	n/a	n/a	n/a	n/a	n/a	14	2	6	6	n/a	n/a	n/a	n/a	n/a
1774168	PROB	n/a	LTP286	ltpFR	9	n/a	n/a	n/a	n/a	n/a	n/a	n/a	13	5	2	6	n/a	n/a	n/a	n/a	n/a
1776214	PROB	n/a	LTP286	ltpFR	9	n/a	n/a	n/a	n/a	n/a	n/a	n/a	13	6	5	2	n/a	n/a	n/a	n/a	n/a
1778078	PROB	n/a	LTP286	ltpFR	9	n/a	n/a	n/a	n/a	n/a	n/a	n/a	16	5	6	5	n/a	n/a	n/a	n/a	n/a
1779758	PROB	n/a	LTP286	ltpFR	9	n/a	n/a	n/a	n/a	n/a	n/a	n/a	14	2	5	5	n/a	n/a	n/a	n/a	n/a
1781615	STOP	n/a	LTP286	ltpFR	9	n/a	n/a	n/a	n/a	n/a	n/a	n/a	n/a	n/a	n/a	n/a	n/a	n/a	n/a	n/a	n/a
1783919	WORD	wordpools/wasnorm_wordpool_less_exclusions.txt	LTP286	ltpFR	9	7	1	HUMAN	726	n/a	n/a	1	n/a	0	0	0	0.422607421875	0.5869140625	0	lower	amplitud.ttf
1786931	START	n/a	LTP286	ltpFR	9	n/a	n/a	n/a	n/a	n/a	n/a	n/a	n/a	n/a	n/a	n/a	n/a	n/a	n/a	n/a	n/a
1787846	PROB	n/a	LTP286	ltpFR	9	n/a	n/a	n/a	n/a	n/a	n/a	n/a	12	2	1	9	n/a	n/a	n/a	n/a	n/a
1789510	PROB	n/a	LTP286	ltpFR	9	n/a	n/a	n/a	n/a	n/a	n/a	n/a	18	7	8	3	n/a	n/a	n/a	n/a	n/a
1791375	PROB	n/a	LTP286	ltpFR	9	n/a	n/a	n/a	n/a	n/a	n/a	n/a	17	6	2	9	n/a	n/a	n/a	n/a	n/a
1793571	PROB	n/a	LTP286	ltpFR	9	n/a	n/a	n/a	n/a	n/a	n/a	n/a	10	4	3	3	n/a	n/a	n/a	n/a	n/a
1795601	PROB	n/a	LTP286	ltpFR	9	n/a	n/a	n/a	n/a	n/a	n/a	n/a	23	6	8	9	n/a	n/a	n/a	n/a	n/a
1797648	PROB	n/a	LTP286	ltpFR	9	n/a	n/a	n/a	n/a	n/a	n/a	n/a	13	1	4	7	n/a	n/a	n/a	n/a	n/a
1799230	PROB	n/a	LTP286	ltpFR	9	n/a	n/a	n/a	n/a	n/a	n/a	n/a	17	7	9	1	n/a	n/a	n/a	n/a	n/a
1801061	PROB	n/a	LTP286	ltpFR	9	n/a	n/a	n/a	n/a	n/a	n/a	n/a	9	1	1	7	n/a	n/a	n/a	n/a	n/a
1802815	STOP	n/a	LTP286	ltpFR	9	n/a	n/a	n/a	n/a	n/a	n/a	n/a	n/a	n/a	n/a	n/a	n/a	n/a	n/a	n/a	n/a
1803922	WORD	wordpools/wasnorm_wordpool_less_exclusions.txt	LTP286	ltpFR	9	7	1	PORCUPINE	1107	n/a	n/a	1	n/a	0	0	0	0.422607421875	0.5869140625	0	lower	amplitud.ttf
1806935	START	n/a	LTP286	ltpFR	9	n/a	n/a	n/a	n/a	n/a	n/a	n/a	n/a	n/a	n/a	n/a	n/a	n/a	n/a	n/a	n/a
1807816	PROB	n/a	LTP286	ltpFR	9	n/a	n/a	n/a	n/a	n/a	n/a	n/a	20	3	9	8	n/a	n/a	n/a	n/a	n/a
1809863	PROB	n/a	LTP286	ltpFR	9	n/a	n/a	n/a	n/a	n/a	n/a	n/a	11	6	3	2	n/a	n/a	n/a	n/a	n/a
1811412	PROB	n/a	LTP286	ltpFR	9	n/a	n/a	n/a	n/a	n/a	n/a	n/a	17	8	5	4	n/a	n/a	n/a	n/a	n/a
1812975	PROB	n/a	LTP286	ltpFR	9	n/a	n/a	n/a	n/a	n/a	n/a	n/a	14	6	1	7	n/a	n/a	n/a	n/a	n/a
1814773	PROB	n/a	LTP286	ltpFR	9	n/a	n/a	n/a	n/a	n/a	n/a	n/a	13	3	5	5	n/a	n/a	n/a	n/a	n/a
1816355	PROB	n/a	LTP286	ltpFR	9	n/a	n/a	n/a	n/a	n/a	n/a	n/a	9	1	7	1	n/a	n/a	n/a	n/a	n/a
1818650	PROB	n/a	LTP286	ltpFR	9	n/a	n/a	n/a	n/a	n/a	n/a	n/a	19	5	7	7	n/a	n/a	n/a	n/a	n/a
1820664	PROB	n/a	LTP286	ltpFR	9	n/a	n/a	n/a	n/a	n/a	n/a	n/a	4	2	1	1	n/a	n/a	n/a	n/a	n/a
1822040	STOP	n/a	LTP286	ltpFR	9	n/a	n/a	n/a	n/a	n/a	n/a	n/a	n/a	n/a	n/a	n/a	n/a	n/a	n/a	n/a	n/a
1824143	WORD	wordpools/wasnorm_wordpool_less_exclusions.txt	LTP286	ltpFR	9	7	0	CRITIC	410	n/a	n/a	1	n/a	0	0	0	0.57763671875	0.412841796875	1	upper	zerothre.ttf
1827155	START	n/a	LTP286	ltpFR	9	n/a	n/a	n/a	n/a	n/a	n/a	n/a	n/a	n/a	n/a	n/a	n/a	n/a	n/a	n/a	n/a
1828154	PROB	n/a	LTP286	ltpFR	9	n/a	n/a	n/a	n/a	n/a	n/a	n/a	15	9	3	3	n/a	n/a	n/a	n/a	n/a
1829717	PROB	n/a	LTP286	ltpFR	9	n/a	n/a	n/a	n/a	n/a	n/a	n/a	24	7	9	7	n/a	n/a	n/a	n/a	n/a
1831847	PROB	n/a	LTP286	ltpFR	9	n/a	n/a	n/a	n/a	n/a	n/a	n/a	13	6	4	3	n/a	n/a	n/a	n/a	n/a
1833362	PROB	n/a	LTP286	ltpFR	9	n/a	n/a	n/a	n/a	n/a	n/a	n/a	10	2	5	3	n/a	n/a	n/a	n/a	n/a
1835077	PROB	n/a	LTP286	ltpFR	9	n/a	n/a	n/a	n/a	n/a	n/a	n/a	8	2	4	2	n/a	n/a	n/a	n/a	n/a
1836690	PROB	n/a	LTP286	ltpFR	9	n/a	n/a	n/a	n/a	n/a	n/a	n/a	9	1	1	7	n/a	n/a	n/a	n/a	n/a
1838039	PROB	n/a	LTP286	ltpFR	9	n/a	n/a	n/a	n/a	n/a	n/a	n/a	16	6	4	6	n/a	n/a	n/a	n/a	n/a
1839619	PROB	n/a	LTP286	ltpFR	9	n/a	n/a	n/a	n/a	n/a	n/a	n/a	21	7	6	8	n/a	n/a	n/a	n/a	n/a
1841301	PROB	n/a	LTP286	ltpFR	9	n/a	n/a	n/a	n/a	n/a	n/a	n/a	15	5	1	9	n/a	n/a	n/a	n/a	n/a
1842727	STOP	n/a	LTP286	ltpFR	9	n/a	n/a	n/a	n/a	n/a	n/a	n/a	n/a	n/a	n/a	n/a	n/a	n/a	n/a	n/a	n/a
1844096	WORD	wordpools/wasnorm_wordpool_less_exclusions.txt	LTP286	ltpFR	9	7	0	RULER	1216	n/a	n/a	0	n/a	0	0	0	0.57763671875	0.412841796875	1	upper	zerothre.ttf
1847109	START	n/a	LTP286	ltpFR	9	n/a	n/a	n/a	n/a	n/a	n/a	n/a	n/a	n/a	n/a	n/a	n/a	n/a	n/a	n/a	n/a
1847956	PROB	n/a	LTP286	ltpFR	9	n/a	n/a	n/a	n/a	n/a	n/a	n/a	14	5	8	1	n/a	n/a	n/a	n/a	n/a
1849487	PROB	n/a	LTP286	ltpFR	9	n/a	n/a	n/a	n/a	n/a	n/a	n/a	15	6	7	2	n/a	n/a	n/a	n/a	n/a
1851252	PROB	n/a	LTP286	ltpFR	9	n/a	n/a	n/a	n/a	n/a	n/a	n/a	13	3	7	3	n/a	n/a	n/a	n/a	n/a
1852749	PROB	n/a	LTP286	ltpFR	9	n/a	n/a	n/a	n/a	n/a	n/a	n/a	13	7	3	3	n/a	n/a	n/a	n/a	n/a
1853947	PROB	n/a	LTP286	ltpFR	9	n/a	n/a	n/a	n/a	n/a	n/a	n/a	13	8	1	4	n/a	n/a	n/a	n/a	n/a
1855645	PROB	n/a	LTP286	ltpFR	9	n/a	n/a	n/a	n/a	n/a	n/a	n/a	15	2	7	6	n/a	n/a	n/a	n/a	n/a
1858125	PROB	n/a	LTP286	ltpFR	9	n/a	n/a	n/a	n/a	n/a	n/a	n/a	12	7	3	2	n/a	n/a	n/a	n/a	n/a
1859556	PROB	n/a	LTP286	ltpFR	9	n/a	n/a	n/a	n/a	n/a	n/a	n/a	14	7	6	1	n/a	n/a	n/a	n/a	n/a
1863109	STOP	n/a	LTP286	ltpFR	9	n/a	n/a	n/a	n/a	n/a	n/a	n/a	n/a	n/a	n/a	n/a	n/a	n/a	n/a	n/a	n/a
1864200	WORD	wordpools/wasnorm_wordpool_less_exclusions.txt	LTP286	ltpFR	9	7	0	YOLK	1633	n/a	n/a	0	n/a	0	0	0	0.57763671875	0.412841796875	1	upper	zerothre.ttf
1867212	START	n/a	LTP286	ltpFR	9	n/a	n/a	n/a	n/a	n/a	n/a	n/a	n/a	n/a	n/a	n/a	n/a	n/a	n/a	n/a	n/a
1868294	PROB	n/a	LTP286	ltpFR	9	n/a	n/a	n/a	n/a	n/a	n/a	n/a	21	9	6	6	n/a	n/a	n/a	n/a	n/a
1870241	PROB	n/a	LTP286	ltpFR	9	n/a	n/a	n/a	n/a	n/a	n/a	n/a	13	4	6	3	n/a	n/a	n/a	n/a	n/a
1871671	PROB	n/a	LTP286	ltpFR	9	n/a	n/a	n/a	n/a	n/a	n/a	n/a	20	6	9	5	n/a	n/a	n/a	n/a	n/a
1873701	PROB	n/a	LTP286	ltpFR	9	n/a	n/a	n/a	n/a	n/a	n/a	n/a	11	6	1	4	n/a	n/a	n/a	n/a	n/a
1875200	PROB	n/a	LTP286	ltpFR	9	n/a	n/a	n/a	n/a	n/a	n/a	n/a	17	7	5	4	n/a	n/a	n/a	n/a	n/a
1876647	PROB	n/a	LTP286	ltpFR	9	n/a	n/a	n/a	n/a	n/a	n/a	n/a	16	6	4	6	n/a	n/a	n/a	n/a	n/a
1878229	PROB	n/a	LTP286	ltpFR	9	n/a	n/a	n/a	n/a	n/a	n/a	n/a	16	5	2	9	n/a	n/a	n/a	n/a	n/a
1881506	PROB	n/a	LTP286	ltpFR	9	n/a	n/a	n/a	n/a	n/a	n/a	n/a	15	2	6	7	n/a	n/a	n/a	n/a	n/a
1883096	STOP	n/a	LTP286	ltpFR	9	n/a	n/a	n/a	n/a	n/a	n/a	n/a	n/a	n/a	n/a	n/a	n/a	n/a	n/a	n/a	n/a
1884037	WORD	wordpools/wasnorm_wordpool_less_exclusions.txt	LTP286	ltpFR	9	7	1	BLANKET	135	n/a	n/a	0	n/a	0	0	0	0.422607421875	0.5869140625	0	lower	amplitud.ttf
1887049	START	n/a	LTP286	ltpFR	9	n/a	n/a	n/a	n/a	n/a	n/a	n/a	n/a	n/a	n/a	n/a	n/a	n/a	n/a	n/a	n/a
1888013	PROB	n/a	LTP286	ltpFR	9	n/a	n/a	n/a	n/a	n/a	n/a	n/a	22	7	8	7	n/a	n/a	n/a	n/a	n/a
1889594	PROB	n/a	LTP286	ltpFR	9	n/a	n/a	n/a	n/a	n/a	n/a	n/a	12	5	5	2	n/a	n/a	n/a	n/a	n/a
1891093	PROB	n/a	LTP286	ltpFR	9	n/a	n/a	n/a	n/a	n/a	n/a	n/a	5	4	2	2	n/a	n/a	n/a	n/a	n/a
1893505	PROB	n/a	LTP286	ltpFR	9	n/a	n/a	n/a	n/a	n/a	n/a	n/a	7	4	1	2	n/a	n/a	n/a	n/a	n/a
1895270	PROB	n/a	LTP286	ltpFR	9	n/a	n/a	n/a	n/a	n/a	n/a	n/a	11	7	3	1	n/a	n/a	n/a	n/a	n/a
1896368	PROB	n/a	LTP286	ltpFR	9	n/a	n/a	n/a	n/a	n/a	n/a	n/a	17	8	1	8	n/a	n/a	n/a	n/a	n/a
1898382	PROB	n/a	LTP286	ltpFR	9	n/a	n/a	n/a	n/a	n/a	n/a	n/a	19	5	6	8	n/a	n/a	n/a	n/a	n/a
1900628	PROB	n/a	LTP286	ltpFR	9	n/a	n/a	n/a	n/a	n/a	n/a	n/a	15	4	7	4	n/a	n/a	n/a	n/a	n/a
1902208	STOP	n/a	LTP286	ltpFR	9	n/a	n/a	n/a	n/a	n/a	n/a	n/a	n/a	n/a	n/a	n/a	n/a	n/a	n/a	n/a	n/a
1904023	WORD	wordpools/wasnorm_wordpool_less_exclusions.txt	LTP286	ltpFR	9	7	1	STOCKING	1383	n/a	n/a	0	n/a	0	0	0	0.422607421875	0.5869140625	0	lower	amplitud.ttf
1907036	START	n/a	LTP286	ltpFR	9	n/a	n/a	n/a	n/a	n/a	n/a	n/a	n/a	n/a	n/a	n/a	n/a	n/a	n/a	n/a	n/a
1907867	PROB	n/a	LTP286	ltpFR	9	n/a	n/a	n/a	n/a	n/a	n/a	n/a	16	4	3	9	n/a	n/a	n/a	n/a	n/a
1909548	PROB	n/a	LTP286	ltpFR	9	n/a	n/a	n/a	n/a	n/a	n/a	n/a	26	6	9	8	n/a	n/a	n/a	n/a	n/a
1912859	PROB	n/a	LTP286	ltpFR	9	n/a	n/a	n/a	n/a	n/a	n/a	n/a	15	9	3	3	n/a	n/a	n/a	n/a	n/a
1915041	PROB	n/a	LTP286	ltpFR	9	n/a	n/a	n/a	n/a	n/a	n/a	n/a	21	5	7	8	n/a	n/a	n/a	n/a	n/a
1917038	PROB	n/a	LTP286	ltpFR	9	n/a	n/a	n/a	n/a	n/a	n/a	n/a	9	1	4	4	n/a	n/a	n/a	n/a	n/a
1919500	PROB	n/a	LTP286	ltpFR	9	n/a	n/a	n/a	n/a	n/a	n/a	n/a	18	6	2	8	n/a	n/a	n/a	n/a	n/a
1921591	STOP	n/a	LTP286	ltpFR	9	n/a	n/a	n/a	n/a	n/a	n/a	n/a	n/a	n/a	n/a	n/a	n/a	n/a	n/a	n/a	n/a
1923993	WORD	wordpools/wasnorm_wordpool_less_exclusions.txt	LTP286	ltpFR	9	7	1	REINDEER	1181	n/a	n/a	1	n/a	0	0	0	0.422607421875	0.5869140625	0	lower	amplitud.ttf
1927005	START	n/a	LTP286	ltpFR	9	n/a	n/a	n/a	n/a	n/a	n/a	n/a	n/a	n/a	n/a	n/a	n/a	n/a	n/a	n/a	n/a
1927937	PROB	n/a	LTP286	ltpFR	9	n/a	n/a	n/a	n/a	n/a	n/a	n/a	14	2	8	4	n/a	n/a	n/a	n/a	n/a
1929568	PROB	n/a	LTP286	ltpFR	9	n/a	n/a	n/a	n/a	n/a	n/a	n/a	19	8	5	6	n/a	n/a	n/a	n/a	n/a
1931150	PROB	n/a	LTP286	ltpFR	9	n/a	n/a	n/a	n/a	n/a	n/a	n/a	16	7	3	6	n/a	n/a	n/a	n/a	n/a
1932430	PROB	n/a	LTP286	ltpFR	9	n/a	n/a	n/a	n/a	n/a	n/a	n/a	13	2	8	3	n/a	n/a	n/a	n/a	n/a
1933728	PROB	n/a	LTP286	ltpFR	9	n/a	n/a	n/a	n/a	n/a	n/a	n/a	12	6	2	4	n/a	n/a	n/a	n/a	n/a
1935559	PROB	n/a	LTP286	ltpFR	9	n/a	n/a	n/a	n/a	n/a	n/a	n/a	20	8	5	7	n/a	n/a	n/a	n/a	n/a
1937391	PROB	n/a	LTP286	ltpFR	9	n/a	n/a	n/a	n/a	n/a	n/a	n/a	14	2	5	7	n/a	n/a	n/a	n/a	n/a
1940336	PROB	n/a	LTP286	ltpFR	9	n/a	n/a	n/a	n/a	n/a	n/a	n/a	16	6	3	7	n/a	n/a	n/a	n/a	n/a
1942144	STOP	n/a	LTP286	ltpFR	9	n/a	n/a	n/a	n/a	n/a	n/a	n/a	n/a	n/a	n/a	n/a	n/a	n/a	n/a	n/a	n/a
1944197	WORD	wordpools/wasnorm_wordpool_less_exclusions.txt	LTP286	ltpFR	9	7	1	INVENTOR	743	n/a	n/a	1	n/a	0	0	0	0.422607421875	0.5869140625	0	lower	amplitud.ttf
1947210	START	n/a	LTP286	ltpFR	9	n/a	n/a	n/a	n/a	n/a	n/a	n/a	n/a	n/a	n/a	n/a	n/a	n/a	n/a	n/a	n/a
1948058	PROB	n/a	LTP286	ltpFR	9	n/a	n/a	n/a	n/a	n/a	n/a	n/a	17	3	6	8	n/a	n/a	n/a	n/a	n/a
1949937	PROB	n/a	LTP286	ltpFR	9	n/a	n/a	n/a	n/a	n/a	n/a	n/a	12	2	7	3	n/a	n/a	n/a	n/a	n/a
1951535	PROB	n/a	LTP286	ltpFR	9	n/a	n/a	n/a	n/a	n/a	n/a	n/a	8	2	1	5	n/a	n/a	n/a	n/a	n/a
1953233	PROB	n/a	LTP286	ltpFR	9	n/a	n/a	n/a	n/a	n/a	n/a	n/a	9	6	1	2	n/a	n/a	n/a	n/a	n/a
1954963	PROB	n/a	LTP286	ltpFR	9	n/a	n/a	n/a	n/a	n/a	n/a	n/a	15	8	9	7	n/a	n/a	n/a	n/a	n/a
1957543	PROB	n/a	LTP286	ltpFR	9	n/a	n/a	n/a	n/a	n/a	n/a	n/a	15	8	6	1	n/a	n/a	n/a	n/a	n/a
1959408	PROB	n/a	LTP286	ltpFR	9	n/a	n/a	n/a	n/a	n/a	n/a	n/a	18	3	9	6	n/a	n/a	n/a	n/a	n/a
1963210	STOP	n/a	LTP286	ltpFR	9	n/a	n/a	n/a	n/a	n/a	n/a	n/a	n/a	n/a	n/a	n/a	n/a	n/a	n/a	n/a	n/a
1964350	WORD	wordpools/wasnorm_wordpool_less_exclusions.txt	LTP286	ltpFR	9	7	0	TOENAIL	1474	n/a	n/a	0	n/a	0	0	0	0.57763671875	0.412841796875	1	upper	zerothre.ttf
1967363	START	n/a	LTP286	ltpFR	9	n/a	n/a	n/a	n/a	n/a	n/a	n/a	n/a	n/a	n/a	n/a	n/a	n/a	n/a	n/a	n/a
1968510	PROB	n/a	LTP286	ltpFR	9	n/a	n/a	n/a	n/a	n/a	n/a	n/a	16	8	4	4	n/a	n/a	n/a	n/a	n/a
1970075	PROB	n/a	LTP286	ltpFR	9	n/a	n/a	n/a	n/a	n/a	n/a	n/a	10	1	6	3	n/a	n/a	n/a	n/a	n/a
1971439	PROB	n/a	LTP286	ltpFR	9	n/a	n/a	n/a	n/a	n/a	n/a	n/a	14	7	4	3	n/a	n/a	n/a	n/a	n/a
1973685	PROB	n/a	LTP286	ltpFR	9	n/a	n/a	n/a	n/a	n/a	n/a	n/a	9	1	3	5	n/a	n/a	n/a	n/a	n/a
1975765	PROB	n/a	LTP286	ltpFR	9	n/a	n/a	n/a	n/a	n/a	n/a	n/a	20	5	6	9	n/a	n/a	n/a	n/a	n/a
1977198	PROB	n/a	LTP286	ltpFR	9	n/a	n/a	n/a	n/a	n/a	n/a	n/a	11	1	2	8	n/a	n/a	n/a	n/a	n/a
1978561	PROB	n/a	LTP286	ltpFR	9	n/a	n/a	n/a	n/a	n/a	n/a	n/a	12	2	7	3	n/a	n/a	n/a	n/a	n/a
1980459	PROB	n/a	LTP286	ltpFR	9	n/a	n/a	n/a	n/a	n/a	n/a	n/a	10	6	3	1	n/a	n/a	n/a	n/a	n/a
1981967	STOP	n/a	LTP286	ltpFR	9	n/a	n/a	n/a	n/a	n/a	n/a	n/a	n/a	n/a	n/a	n/a	n/a	n/a	n/a	n/a	n/a
1984552	WORD	wordpools/wasnorm_wordpool_less_exclusions.txt	LTP286	ltpFR	9	7	0	FINGER	567	n/a	n/a	0	n/a	0	0	0	0.57763671875	0.412841796875	1	upper	zerothre.ttf
1987565	START	n/a	LTP286	ltpFR	9	n/a	n/a	n/a	n/a	n/a	n/a	n/a	n/a	n/a	n/a	n/a	n/a	n/a	n/a	n/a	n/a
1988663	PROB	n/a	LTP286	ltpFR	9	n/a	n/a	n/a	n/a	n/a	n/a	n/a	15	9	1	5	n/a	n/a	n/a	n/a	n/a
1989994	PROB	n/a	LTP286	ltpFR	9	n/a	n/a	n/a	n/a	n/a	n/a	n/a	16	5	6	5	n/a	n/a	n/a	n/a	n/a
1991542	PROB	n/a	LTP286	ltpFR	9	n/a	n/a	n/a	n/a	n/a	n/a	n/a	19	8	5	6	n/a	n/a	n/a	n/a	n/a
1993274	PROB	n/a	LTP286	ltpFR	9	n/a	n/a	n/a	n/a	n/a	n/a	n/a	19	8	2	9	n/a	n/a	n/a	n/a	n/a
1994754	PROB	n/a	LTP286	ltpFR	9	n/a	n/a	n/a	n/a	n/a	n/a	n/a	6	3	1	2	n/a	n/a	n/a	n/a	n/a
1997068	PROB	n/a	LTP286	ltpFR	9	n/a	n/a	n/a	n/a	n/a	n/a	n/a	20	9	7	4	n/a	n/a	n/a	n/a	n/a
1999098	PROB	n/a	LTP286	ltpFR	9	n/a	n/a	n/a	n/a	n/a	n/a	n/a	15	6	6	3	n/a	n/a	n/a	n/a	n/a
2001560	PROB	n/a	LTP286	ltpFR	9	n/a	n/a	n/a	n/a	n/a	n/a	n/a	17	7	3	7	n/a	n/a	n/a	n/a	n/a
2002775	STOP	n/a	LTP286	ltpFR	9	n/a	n/a	n/a	n/a	n/a	n/a	n/a	n/a	n/a	n/a	n/a	n/a	n/a	n/a	n/a	n/a
2004739	WORD	wordpools/wasnorm_wordpool_less_exclusions.txt	LTP286	ltpFR	9	7	0	SHOP	1290	n/a	n/a	1	n/a	0	0	0	0.57763671875	0.412841796875	1	upper	zerothre.ttf
2007751	START	n/a	LTP286	ltpFR	9	n/a	n/a	n/a	n/a	n/a	n/a	n/a	n/a	n/a	n/a	n/a	n/a	n/a	n/a	n/a	n/a
2008583	PROB	n/a	LTP286	ltpFR	9	n/a	n/a	n/a	n/a	n/a	n/a	n/a	14	7	5	2	n/a	n/a	n/a	n/a	n/a
2009981	PROB	n/a	LTP286	ltpFR	9	n/a	n/a	n/a	n/a	n/a	n/a	n/a	15	3	7	5	n/a	n/a	n/a	n/a	n/a
2011695	PROB	n/a	LTP286	ltpFR	9	n/a	n/a	n/a	n/a	n/a	n/a	n/a	16	7	7	2	n/a	n/a	n/a	n/a	n/a
2013310	PROB	n/a	LTP286	ltpFR	9	n/a	n/a	n/a	n/a	n/a	n/a	n/a	9	1	3	5	n/a	n/a	n/a	n/a	n/a
2015224	PROB	n/a	LTP286	ltpFR	9	n/a	n/a	n/a	n/a	n/a	n/a	n/a	14	5	1	8	n/a	n/a	n/a	n/a	n/a
2016871	PROB	n/a	LTP286	ltpFR	9	n/a	n/a	n/a	n/a	n/a	n/a	n/a	4	1	1	5	n/a	n/a	n/a	n/a	n/a
2018253	PROB	n/a	LTP286	ltpFR	9	n/a	n/a	n/a	n/a	n/a	n/a	n/a	6	3	2	1	n/a	n/a	n/a	n/a	n/a
2020167	PROB	n/a	LTP286	ltpFR	9	n/a	n/a	n/a	n/a	n/a	n/a	n/a	6	3	1	2	n/a	n/a	n/a	n/a	n/a
2021996	PROB	n/a	LTP286	ltpFR	9	n/a	n/a	n/a	n/a	n/a	n/a	n/a	18	9	3	6	n/a	n/a	n/a	n/a	n/a
2023679	STOP	n/a	LTP286	ltpFR	9	n/a	n/a	n/a	n/a	n/a	n/a	n/a	n/a	n/a	n/a	n/a	n/a	n/a	n/a	n/a	n/a
2025558	REC_START	n/a	LTP286	ltpFR	9	7	n/a	n/a	n/a	n/a	n/a	n/a	n/a	0	0	0	n/a	n/a	n/a	n/a	n/a
2028596	REC_WORD	wordpools/wasnorm_wordpool_less_exclusions.txt	LTP286	ltpFR	9	7	0	SHOP	1290	n/a	n/a	1	n/a	0	0	0	n/a	n/a	n/a	n/a	n/a
2045326	REC_WORD	wordpools/wasnorm_wordpool_less_exclusions.txt	LTP286	ltpFR	9	7	0	TOENAIL	1474	n/a	n/a	0	n/a	0	0	0	n/a	n/a	n/a	n/a	n/a
2046692	REC_WORD	wordpools/wasnorm_wordpool_less_exclusions.txt	LTP286	ltpFR	9	7	0	FINGER	567	n/a	n/a	0	n/a	0	0	0	n/a	n/a	n/a	n/a	n/a
2068374	REC_WORD	wordpools/wasnorm_wordpool_less_exclusions.txt	LTP286	ltpFR	9	7	0	GODDESS	646	n/a	n/a	1	n/a	0	0	0	n/a	n/a	n/a	n/a	n/a
2069815	REC_WORD	wordpools/wasnorm_wordpool_less_exclusions.txt	LTP286	ltpFR	9	7	1	BLANKET	135	n/a	n/a	0	n/a	0	0	0	n/a	n/a	n/a	n/a	n/a
2107469	WORD	wordpools/wasnorm_wordpool_less_exclusions.txt	LTP286	ltpFR	9	8	0	SUGAR	1401	n/a	n/a	0	n/a	0	0	0	0.57763671875	0.412841796875	1	upper	zerothre.ttf
2111331	WORD	wordpools/wasnorm_wordpool_less_exclusions.txt	LTP286	ltpFR	9	8	0	CABBAGE	210	n/a	n/a	0	n/a	0	0	0	0.57763671875	0.412841796875	1	upper	zerothre.ttf
2115523	WORD	wordpools/wasnorm_wordpool_less_exclusions.txt	LTP286	ltpFR	9	8	0	TERMITE	1451	n/a	n/a	0	n/a	0	0	0	0.57763671875	0.412841796875	1	upper	zerothre.ttf
2119551	WORD	wordpools/wasnorm_wordpool_less_exclusions.txt	LTP286	ltpFR	9	8	0	TIMBER	1469	n/a	n/a	1	n/a	0	0	0	0.57763671875	0.412841796875	1	upper	zerothre.ttf
2123462	WORD	wordpools/wasnorm_wordpool_less_exclusions.txt	LTP286	ltpFR	9	8	0	PISTON	1076	n/a	n/a	0	n/a	0	0	0	0.57763671875	0.412841796875	1	upper	zerothre.ttf
2127572	WORD	wordpools/wasnorm_wordpool_less_exclusions.txt	LTP286	ltpFR	9	8	0	MOWER	928	n/a	n/a	1	n/a	0	0	0	0.57763671875	0.412841796875	1	upper	zerothre.ttf
2131401	WORD	wordpools/wasnorm_wordpool_less_exclusions.txt	LTP286	ltpFR	9	8	0	LIPSTICK	829	n/a	n/a	0	n/a	0	0	0	0.57763671875	0.412841796875	1	upper	zerothre.ttf
2135444	WORD	wordpools/wasnorm_wordpool_less_exclusions.txt	LTP286	ltpFR	9	8	0	BEET	115	n/a	n/a	0	n/a	0	0	0	0.57763671875	0.412841796875	1	upper	zerothre.ttf
2139504	WORD	wordpools/wasnorm_wordpool_less_exclusions.txt	LTP286	ltpFR	9	8	0	DAUGHTER	442	n/a	n/a	1	n/a	0	0	0	0.57763671875	0.412841796875	1	upper	zerothre.ttf
2143565	WORD	wordpools/wasnorm_wordpool_less_exclusions.txt	LTP286	ltpFR	9	8	0	OWL	992	n/a	n/a	0	n/a	0	0	0	0.57763671875	0.412841796875	1	upper	zerothre.ttf
2147609	WORD	wordpools/wasnorm_wordpool_less_exclusions.txt	LTP286	ltpFR	9	8	0	MEADOW	881	n/a	n/a	1	n/a	0	0	0	0.57763671875	0.412841796875	1	upper	zerothre.ttf
2151503	WORD	wordpools/wasnorm_wordpool_less_exclusions.txt	LTP286	ltpFR	9	8	0	MUSEUM	933	n/a	n/a	1	n/a	0	0	0	0.57763671875	0.412841796875	1	upper	zerothre.ttf
2155447	WORD	wordpools/wasnorm_wordpool_less_exclusions.txt	LTP286	ltpFR	9	8	0	GARLIC	624	n/a	n/a	0	n/a	0	0	0	0.57763671875	0.412841796875	1	upper	zerothre.ttf
2159376	WORD	wordpools/wasnorm_wordpool_less_exclusions.txt	LTP286	ltpFR	9	8	0	BED	110	n/a	n/a	1	n/a	0	0	0	0.57763671875	0.412841796875	1	upper	zerothre.ttf
2163237	WORD	wordpools/wasnorm_wordpool_less_exclusions.txt	LTP286	ltpFR	9	8	0	LOFT	840	n/a	n/a	1	n/a	0	0	0	0.57763671875	0.412841796875	1	upper	zerothre.ttf
2167247	WORD	wordpools/wasnorm_wordpool_less_exclusions.txt	LTP286	ltpFR	9	8	0	CLAMP	316	n/a	n/a	0	n/a	0	0	0	0.57763671875	0.412841796875	1	upper	zerothre.ttf
2170260	START	n/a	LTP286	ltpFR	9	n/a	n/a	n/a	n/a	n/a	n/a	n/a	n/a	n/a	n/a	n/a	n/a	n/a	n/a	n/a	n/a
2171291	PROB	n/a	LTP286	ltpFR	9	n/a	n/a	n/a	n/a	n/a	n/a	n/a	19	6	6	7	n/a	n/a	n/a	n/a	n/a
2173088	PROB	n/a	LTP286	ltpFR	9	n/a	n/a	n/a	n/a	n/a	n/a	n/a	17	9	7	1	n/a	n/a	n/a	n/a	n/a
2175285	PROB	n/a	LTP286	ltpFR	9	n/a	n/a	n/a	n/a	n/a	n/a	n/a	19	5	7	7	n/a	n/a	n/a	n/a	n/a
2177080	STOP	n/a	LTP286	ltpFR	9	n/a	n/a	n/a	n/a	n/a	n/a	n/a	n/a	n/a	n/a	n/a	n/a	n/a	n/a	n/a	n/a
2180045	REC_START	n/a	LTP286	ltpFR	9	8	n/a	n/a	n/a	n/a	n/a	n/a	n/a	0	0	0	n/a	n/a	n/a	n/a	n/a
2181736	REC_WORD	wordpools/wasnorm_wordpool_less_exclusions.txt	LTP286	ltpFR	9	8	0	CLAMP	316	n/a	n/a	0	n/a	0	0	0	n/a	n/a	n/a	n/a	n/a
2183159	REC_WORD	wordpools/wasnorm_wordpool_less_exclusions.txt	LTP286	ltpFR	9	8	0	MOWER	928	n/a	n/a	1	n/a	0	0	0	n/a	n/a	n/a	n/a	n/a
2184725	REC_WORD	wordpools/wasnorm_wordpool_less_exclusions.txt	LTP286	ltpFR	9	8	0	DAUGHTER	442	n/a	n/a	1	n/a	0	0	0	n/a	n/a	n/a	n/a	n/a
2186099	REC_WORD	wordpools/wasnorm_wordpool_less_exclusions.txt	LTP286	ltpFR	9	8	0	BED	110	n/a	n/a	1	n/a	0	0	0	n/a	n/a	n/a	n/a	n/a
2188266	REC_WORD	wordpools/wasnorm_wordpool_less_exclusions.txt	LTP286	ltpFR	9	8	0	MEADOW	881	n/a	n/a	1	n/a	0	0	0	n/a	n/a	n/a	n/a	n/a
2189864	REC_WORD	wordpools/wasnorm_wordpool_less_exclusions.txt	LTP286	ltpFR	9	8	0	OWL	992	n/a	n/a	0	n/a	0	0	0	n/a	n/a	n/a	n/a	n/a
2191565	REC_WORD	wordpools/wasnorm_wordpool_less_exclusions.txt	LTP286	ltpFR	9	8	0	GARLIC	624	n/a	n/a	0	n/a	0	0	0	n/a	n/a	n/a	n/a	n/a
2192935	REC_WORD	wordpools/wasnorm_wordpool_less_exclusions.txt	LTP286	ltpFR	9	8	0	MUSEUM	933	n/a	n/a	1	n/a	0	0	0	n/a	n/a	n/a	n/a	n/a
2194792	REC_WORD	wordpools/wasnorm_wordpool_less_exclusions.txt	LTP286	ltpFR	9	8	0	BEET	115	n/a	n/a	0	n/a	0	0	0	n/a	n/a	n/a	n/a	n/a
2196219	REC_WORD	wordpools/wasnorm_wordpool_less_exclusions.txt	LTP286	ltpFR	9	8	0	CABBAGE	210	n/a	n/a	0	n/a	0	0	0	n/a	n/a	n/a	n/a	n/a
2200657	REC_WORD	wordpools/wasnorm_wordpool_less_exclusions.txt	LTP286	ltpFR	9	8	0	SUGAR	1401	n/a	n/a	0	n/a	0	0	0	n/a	n/a	n/a	n/a	n/a
2202402	REC_WORD	wordpools/wasnorm_wordpool_less_exclusions.txt	LTP286	ltpFR	9	8	0	TERMITE	1451	n/a	n/a	0	n/a	0	0	0	n/a	n/a	n/a	n/a	n/a
2259492	START	n/a	LTP286	ltpFR	9	n/a	n/a	n/a	n/a	n/a	n/a	n/a	n/a	n/a	n/a	n/a	n/a	n/a	n/a	n/a	n/a
2261006	PROB	n/a	LTP286	ltpFR	9	n/a	n/a	n/a	n/a	n/a	n/a	n/a	163	2	9	2	n/a	n/a	n/a	n/a	n/a
2263121	PROB	n/a	LTP286	ltpFR	9	n/a	n/a	n/a	n/a	n/a	n/a	n/a	16	3	6	7	n/a	n/a	n/a	n/a	n/a
2265035	PROB	n/a	LTP286	ltpFR	9	n/a	n/a	n/a	n/a	n/a	n/a	n/a	9	4	4	1	n/a	n/a	n/a	n/a	n/a
2266515	PROB	n/a	LTP286	ltpFR	9	n/a	n/a	n/a	n/a	n/a	n/a	n/a	16	5	9	2	n/a	n/a	n/a	n/a	n/a
2268047	PROB	n/a	LTP286	ltpFR	9	n/a	n/a	n/a	n/a	n/a	n/a	n/a	19	5	5	9	n/a	n/a	n/a	n/a	n/a
2269510	PROB	n/a	LTP286	ltpFR	9	n/a	n/a	n/a	n/a	n/a	n/a	n/a	7	2	1	4	n/a	n/a	n/a	n/a	n/a
2271441	PROB	n/a	LTP286	ltpFR	9	n/a	n/a	n/a	n/a	n/a	n/a	n/a	13	2	7	4	n/a	n/a	n/a	n/a	n/a
2272955	PROB	n/a	LTP286	ltpFR	9	n/a	n/a	n/a	n/a	n/a	n/a	n/a	14	6	4	4	n/a	n/a	n/a	n/a	n/a
2274160	STOP	n/a	LTP286	ltpFR	9	n/a	n/a	n/a	n/a	n/a	n/a	n/a	n/a	n/a	n/a	n/a	n/a	n/a	n/a	n/a	n/a
2276318	WORD	wordpools/wasnorm_wordpool_less_exclusions.txt	LTP286	ltpFR	9	9	0	CANYON	235	n/a	n/a	1	n/a	0	0	0	0.57763671875	0.412841796875	1	upper	zerothre.ttf
2279330	START	n/a	LTP286	ltpFR	9	n/a	n/a	n/a	n/a	n/a	n/a	n/a	n/a	n/a	n/a	n/a	n/a	n/a	n/a	n/a	n/a
2280278	PROB	n/a	LTP286	ltpFR	9	n/a	n/a	n/a	n/a	n/a	n/a	n/a	13	8	2	3	n/a	n/a	n/a	n/a	n/a
2281775	PROB	n/a	LTP286	ltpFR	9	n/a	n/a	n/a	n/a	n/a	n/a	n/a	8	1	3	4	n/a	n/a	n/a	n/a	n/a
2284089	PROB	n/a	LTP286	ltpFR	9	n/a	n/a	n/a	n/a	n/a	n/a	n/a	23	6	9	8	n/a	n/a	n/a	n/a	n/a
2286884	PROB	n/a	LTP286	ltpFR	9	n/a	n/a	n/a	n/a	n/a	n/a	n/a	6	2	1	3	n/a	n/a	n/a	n/a	n/a
2288400	PROB	n/a	LTP286	ltpFR	9	n/a	n/a	n/a	n/a	n/a	n/a	n/a	18	8	2	8	n/a	n/a	n/a	n/a	n/a
2289730	PROB	n/a	LTP286	ltpFR	9	n/a	n/a	n/a	n/a	n/a	n/a	n/a	15	6	6	3	n/a	n/a	n/a	n/a	n/a
2291412	PROB	n/a	LTP286	ltpFR	9	n/a	n/a	n/a	n/a	n/a	n/a	n/a	9	4	2	3	n/a	n/a	n/a	n/a	n/a
2295330	STOP	n/a	LTP286	ltpFR	9	n/a	n/a	n/a	n/a	n/a	n/a	n/a	n/a	n/a	n/a	n/a	n/a	n/a	n/a	n/a	n/a
2296437	WORD	wordpools/wasnorm_wordpool_less_exclusions.txt	LTP286	ltpFR	9	9	0	STONE	1385	n/a	n/a	1	n/a	0	0	0	0.57763671875	0.412841796875	1	upper	zerothre.ttf
2299449	START	n/a	LTP286	ltpFR	9	n/a	n/a	n/a	n/a	n/a	n/a	n/a	n/a	n/a	n/a	n/a	n/a	n/a	n/a	n/a	n/a
2300597	PROB	n/a	LTP286	ltpFR	9	n/a	n/a	n/a	n/a	n/a	n/a	n/a	13	2	9	2	n/a	n/a	n/a	n/a	n/a
2302063	PROB	n/a	LTP286	ltpFR	9	n/a	n/a	n/a	n/a	n/a	n/a	n/a	15	7	4	4	n/a	n/a	n/a	n/a	n/a
2303859	PROB	n/a	LTP286	ltpFR	9	n/a	n/a	n/a	n/a	n/a	n/a	n/a	16	3	9	4	n/a	n/a	n/a	n/a	n/a
2306306	PROB	n/a	LTP286	ltpFR	9	n/a	n/a	n/a	n/a	n/a	n/a	n/a	13	3	3	7	n/a	n/a	n/a	n/a	n/a
2308003	PROB	n/a	LTP286	ltpFR	9	n/a	n/a	n/a	n/a	n/a	n/a	n/a	12	6	2	4	n/a	n/a	n/a	n/a	n/a
2309534	PROB	n/a	LTP286	ltpFR	9	n/a	n/a	n/a	n/a	n/a	n/a	n/a	14	3	8	3	n/a	n/a	n/a	n/a	n/a
2311149	PROB	n/a	LTP286	ltpFR	9	n/a	n/a	n/a	n/a	n/a	n/a	n/a	19	6	8	5	n/a	n/a	n/a	n/a	n/a
2313196	PROB	n/a	LTP286	ltpFR	9	n/a	n/a	n/a	n/a	n/a	n/a	n/a	23	7	7	9	n/a	n/a	n/a	n/a	n/a
2315408	STOP	n/a	LTP286	ltpFR	9	n/a	n/a	n/a	n/a	n/a	n/a	n/a	n/a	n/a	n/a	n/a	n/a	n/a	n/a	n/a	n/a
2316325	WORD	wordpools/wasnorm_wordpool_less_exclusions.txt	LTP286	ltpFR	9	9	1	HERO	706	n/a	n/a	1	n/a	0	0	0	0.422607421875	0.5869140625	0	lower	amplitud.ttf
2319337	START	n/a	LTP286	ltpFR	9	n/a	n/a	n/a	n/a	n/a	n/a	n/a	n/a	n/a	n/a	n/a	n/a	n/a	n/a	n/a	n/a
2320235	PROB	n/a	LTP286	ltpFR	9	n/a	n/a	n/a	n/a	n/a	n/a	n/a	16	9	1	6	n/a	n/a	n/a	n/a	n/a
2321749	PROB	n/a	LTP286	ltpFR	9	n/a	n/a	n/a	n/a	n/a	n/a	n/a	12	2	4	4	n/a	n/a	n/a	n/a	n/a
2323763	PROB	n/a	LTP286	ltpFR	9	n/a	n/a	n/a	n/a	n/a	n/a	n/a	18	9	8	1	n/a	n/a	n/a	n/a	n/a
2325893	PROB	n/a	LTP286	ltpFR	9	n/a	n/a	n/a	n/a	n/a	n/a	n/a	16	1	9	6	n/a	n/a	n/a	n/a	n/a
2327225	PROB	n/a	LTP286	ltpFR	9	n/a	n/a	n/a	n/a	n/a	n/a	n/a	21	9	5	7	n/a	n/a	n/a	n/a	n/a
2328988	PROB	n/a	LTP286	ltpFR	9	n/a	n/a	n/a	n/a	n/a	n/a	n/a	17	5	9	3	n/a	n/a	n/a	n/a	n/a
2331018	PROB	n/a	LTP286	ltpFR	9	n/a	n/a	n/a	n/a	n/a	n/a	n/a	19	9	2	8	n/a	n/a	n/a	n/a	n/a
2335337	STOP	n/a	LTP286	ltpFR	9	n/a	n/a	n/a	n/a	n/a	n/a	n/a	n/a	n/a	n/a	n/a	n/a	n/a	n/a	n/a	n/a
2336378	WORD	wordpools/wasnorm_wordpool_less_exclusions.txt	LTP286	ltpFR	9	9	1	SLOPE	1328	n/a	n/a	0	n/a	0	0	0	0.422607421875	0.5869140625	0	lower	amplitud.ttf
2339391	START	n/a	LTP286	ltpFR	9	n/a	n/a	n/a	n/a	n/a	n/a	n/a	n/a	n/a	n/a	n/a	n/a	n/a	n/a	n/a	n/a
2340454	PROB	n/a	LTP286	ltpFR	9	n/a	n/a	n/a	n/a	n/a	n/a	n/a	17	5	3	9	n/a	n/a	n/a	n/a	n/a
2344765	PROB	n/a	LTP286	ltpFR	9	n/a	n/a	n/a	n/a	n/a	n/a	n/a	16	6	4	6	n/a	n/a	n/a	n/a	n/a
2346197	PROB	n/a	LTP286	ltpFR	9	n/a	n/a	n/a	n/a	n/a	n/a	n/a	12	7	4	1	n/a	n/a	n/a	n/a	n/a
2347827	PROB	n/a	LTP286	ltpFR	9	n/a	n/a	n/a	n/a	n/a	n/a	n/a	13	5	3	4	n/a	n/a	n/a	n/a	n/a
2349807	PROB	n/a	LTP286	ltpFR	9	n/a	n/a	n/a	n/a	n/a	n/a	n/a	15	9	5	1	n/a	n/a	n/a	n/a	n/a
2351954	PROB	n/a	LTP286	ltpFR	9	n/a	n/a	n/a	n/a	n/a	n/a	n/a	20	6	7	7	n/a	n/a	n/a	n/a	n/a
2353618	PROB	n/a	LTP286	ltpFR	9	n/a	n/a	n/a	n/a	n/a	n/a	n/a	16	6	4	6	n/a	n/a	n/a	n/a	n/a
2354887	STOP	n/a	LTP286	ltpFR	9	n/a	n/a	n/a	n/a	n/a	n/a	n/a	n/a	n/a	n/a	n/a	n/a	n/a	n/a	n/a	n/a
2356315	WORD	wordpools/wasnorm_wordpool_less_exclusions.txt	LTP286	ltpFR	9	9	1	WAVE	1596	n/a	n/a	0	n/a	0	0	0	0.422607421875	0.5869140625	0	lower	amplitud.ttf
2359328	START	n/a	LTP286	ltpFR	9	n/a	n/a	n/a	n/a	n/a	n/a	n/a	n/a	n/a	n/a	n/a	n/a	n/a	n/a	n/a	n/a
2360508	PROB	n/a	LTP286	ltpFR	9	n/a	n/a	n/a	n/a	n/a	n/a	n/a	11	5	2	4	n/a	n/a	n/a	n/a	n/a
2362854	PROB	n/a	LTP286	ltpFR	9	n/a	n/a	n/a	n/a	n/a	n/a	n/a	17	9	2	6	n/a	n/a	n/a	n/a	n/a
2364535	PROB	n/a	LTP286	ltpFR	9	n/a	n/a	n/a	n/a	n/a	n/a	n/a	13	2	5	6	n/a	n/a	n/a	n/a	n/a
2367415	PROB	n/a	LTP286	ltpFR	9	n/a	n/a	n/a	n/a	n/a	n/a	n/a	19	5	6	8	n/a	n/a	n/a	n/a	n/a
2369179	PROB	n/a	LTP286	ltpFR	9	n/a	n/a	n/a	n/a	n/a	n/a	n/a	8	4	1	3	n/a	n/a	n/a	n/a	n/a
2371060	PROB	n/a	LTP286	ltpFR	9	n/a	n/a	n/a	n/a	n/a	n/a	n/a	19	2	9	8	n/a	n/a	n/a	n/a	n/a
2372856	PROB	n/a	LTP286	ltpFR	9	n/a	n/a	n/a	n/a	n/a	n/a	n/a	13	4	4	5	n/a	n/a	n/a	n/a	n/a
2374979	STOP	n/a	LTP286	ltpFR	9	n/a	n/a	n/a	n/a	n/a	n/a	n/a	n/a	n/a	n/a	n/a	n/a	n/a	n/a	n/a	n/a
2376335	WORD	wordpools/wasnorm_wordpool_less_exclusions.txt	LTP286	ltpFR	9	9	1	ATOM	55	n/a	n/a	1	n/a	0	0	0	0.422607421875	0.5869140625	0	lower	amplitud.ttf
2379348	START	n/a	LTP286	ltpFR	9	n/a	n/a	n/a	n/a	n/a	n/a	n/a	n/a	n/a	n/a	n/a	n/a	n/a	n/a	n/a	n/a
2380511	PROB	n/a	LTP286	ltpFR	9	n/a	n/a	n/a	n/a	n/a	n/a	n/a	14	7	1	6	n/a	n/a	n/a	n/a	n/a
2382393	PROB	n/a	LTP286	ltpFR	9	n/a	n/a	n/a	n/a	n/a	n/a	n/a	16	5	7	4	n/a	n/a	n/a	n/a	n/a
2384040	PROB	n/a	LTP286	ltpFR	9	n/a	n/a	n/a	n/a	n/a	n/a	n/a	14	5	2	7	n/a	n/a	n/a	n/a	n/a
2386020	PROB	n/a	LTP286	ltpFR	9	n/a	n/a	n/a	n/a	n/a	n/a	n/a	15	9	2	4	n/a	n/a	n/a	n/a	n/a
2387434	PROB	n/a	LTP286	ltpFR	9	n/a	n/a	n/a	n/a	n/a	n/a	n/a	25	9	8	7	n/a	n/a	n/a	n/a	n/a
2390048	PROB	n/a	LTP286	ltpFR	9	n/a	n/a	n/a	n/a	n/a	n/a	n/a	10	3	3	4	n/a	n/a	n/a	n/a	n/a
2392593	PROB	n/a	LTP286	ltpFR	9	n/a	n/a	n/a	n/a	n/a	n/a	n/a	13	2	7	4	n/a	n/a	n/a	n/a	n/a
2394336	STOP	n/a	LTP286	ltpFR	9	n/a	n/a	n/a	n/a	n/a	n/a	n/a	n/a	n/a	n/a	n/a	n/a	n/a	n/a	n/a	n/a
2396322	WORD	wordpools/wasnorm_wordpool_less_exclusions.txt	LTP286	ltpFR	9	9	1	GOWN	652	n/a	n/a	0	n/a	0	0	0	0.422607421875	0.5869140625	0	lower	amplitud.ttf
2399334	START	n/a	LTP286	ltpFR	9	n/a	n/a	n/a	n/a	n/a	n/a	n/a	n/a	n/a	n/a	n/a	n/a	n/a	n/a	n/a	n/a
2400515	PROB	n/a	LTP286	ltpFR	9	n/a	n/a	n/a	n/a	n/a	n/a	n/a	18	2	9	7	n/a	n/a	n/a	n/a	n/a
2402180	PROB	n/a	LTP286	ltpFR	9	n/a	n/a	n/a	n/a	n/a	n/a	n/a	6	1	2	3	n/a	n/a	n/a	n/a	n/a
2403776	PROB	n/a	LTP286	ltpFR	9	n/a	n/a	n/a	n/a	n/a	n/a	n/a	12	2	4	6	n/a	n/a	n/a	n/a	n/a
2405624	PROB	n/a	LTP286	ltpFR	9	n/a	n/a	n/a	n/a	n/a	n/a	n/a	14	8	2	4	n/a	n/a	n/a	n/a	n/a
2407056	PROB	n/a	LTP286	ltpFR	9	n/a	n/a	n/a	n/a	n/a	n/a	n/a	19	9	8	2	n/a	n/a	n/a	n/a	n/a
2408935	PROB	n/a	LTP286	ltpFR	9	n/a	n/a	n/a	n/a	n/a	n/a	n/a	18	8	6	4	n/a	n/a	n/a	n/a	n/a
2410733	PROB	n/a	LTP286	ltpFR	9	n/a	n/a	n/a	n/a	n/a	n/a	n/a	21	7	9	5	n/a	n/a	n/a	n/a	n/a
2412430	PROB	n/a	LTP286	ltpFR	9	n/a	n/a	n/a	n/a	n/a	n/a	n/a	16	7	3	6	n/a	n/a	n/a	n/a	n/a
2414256	STOP	n/a	LTP286	ltpFR	9	n/a	n/a	n/a	n/a	n/a	n/a	n/a	n/a	n/a	n/a	n/a	n/a	n/a	n/a	n/a	n/a
2416375	WORD	wordpools/wasnorm_wordpool_less_exclusions.txt	LTP286	ltpFR	9	9	0	FROG	608	n/a	n/a	0	n/a	0	0	0	0.57763671875	0.412841796875	1	upper	zerothre.ttf
2419388	START	n/a	LTP286	ltpFR	9	n/a	n/a	n/a	n/a	n/a	n/a	n/a	n/a	n/a	n/a	n/a	n/a	n/a	n/a	n/a	n/a
2420386	PROB	n/a	LTP286	ltpFR	9	n/a	n/a	n/a	n/a	n/a	n/a	n/a	24	7	8	9	n/a	n/a	n/a	n/a	n/a
2423747	PROB	n/a	LTP286	ltpFR	9	n/a	n/a	n/a	n/a	n/a	n/a	n/a	22	7	6	8	n/a	n/a	n/a	n/a	n/a
2425877	PROB	n/a	LTP286	ltpFR	9	n/a	n/a	n/a	n/a	n/a	n/a	n/a	14	1	9	4	n/a	n/a	n/a	n/a	n/a
2427359	PROB	n/a	LTP286	ltpFR	9	n/a	n/a	n/a	n/a	n/a	n/a	n/a	18	7	2	9	n/a	n/a	n/a	n/a	n/a
2429073	PROB	n/a	LTP286	ltpFR	9	n/a	n/a	n/a	n/a	n/a	n/a	n/a	15	2	4	9	n/a	n/a	n/a	n/a	n/a
2430886	PROB	n/a	LTP286	ltpFR	9	n/a	n/a	n/a	n/a	n/a	n/a	n/a	24	8	8	8	n/a	n/a	n/a	n/a	n/a
2432467	PROB	n/a	LTP286	ltpFR	9	n/a	n/a	n/a	n/a	n/a	n/a	n/a	17	9	3	5	n/a	n/a	n/a	n/a	n/a
2435096	STOP	n/a	LTP286	ltpFR	9	n/a	n/a	n/a	n/a	n/a	n/a	n/a	n/a	n/a	n/a	n/a	n/a	n/a	n/a	n/a	n/a
2436528	WORD	wordpools/wasnorm_wordpool_less_exclusions.txt	LTP286	ltpFR	9	9	0	RABBIT	1152	n/a	n/a	0	n/a	0	0	0	0.57763671875	0.412841796875	1	upper	zerothre.ttf
2439540	START	n/a	LTP286	ltpFR	9	n/a	n/a	n/a	n/a	n/a	n/a	n/a	n/a	n/a	n/a	n/a	n/a	n/a	n/a	n/a	n/a
2440538	PROB	n/a	LTP286	ltpFR	9	n/a	n/a	n/a	n/a	n/a	n/a	n/a	17	7	1	9	n/a	n/a	n/a	n/a	n/a
2442685	PROB	n/a	LTP286	ltpFR	9	n/a	n/a	n/a	n/a	n/a	n/a	n/a	9	6	2	1	n/a	n/a	n/a	n/a	n/a
2444715	PROB	n/a	LTP286	ltpFR	9	n/a	n/a	n/a	n/a	n/a	n/a	n/a	19	3	7	9	n/a	n/a	n/a	n/a	n/a
2446064	PROB	n/a	LTP286	ltpFR	9	n/a	n/a	n/a	n/a	n/a	n/a	n/a	20	9	9	2	n/a	n/a	n/a	n/a	n/a
2447644	PROB	n/a	LTP286	ltpFR	9	n/a	n/a	n/a	n/a	n/a	n/a	n/a	18	5	9	4	n/a	n/a	n/a	n/a	n/a
2449226	PROB	n/a	LTP286	ltpFR	9	n/a	n/a	n/a	n/a	n/a	n/a	n/a	12	1	3	8	n/a	n/a	n/a	n/a	n/a
2450939	PROB	n/a	LTP286	ltpFR	9	n/a	n/a	n/a	n/a	n/a	n/a	n/a	17	3	8	6	n/a	n/a	n/a	n/a	n/a
2453237	PROB	n/a	LTP286	ltpFR	9	n/a	n/a	n/a	n/a	n/a	n/a	n/a	10	3	2	5	n/a	n/a	n/a	n/a	n/a
2454663	STOP	n/a	LTP286	ltpFR	9	n/a	n/a	n/a	n/a	n/a	n/a	n/a	n/a	n/a	n/a	n/a	n/a	n/a	n/a	n/a	n/a
2456664	WORD	wordpools/wasnorm_wordpool_less_exclusions.txt	LTP286	ltpFR	9	9	0	CELERY	266	n/a	n/a	0	n/a	0	0	0	0.57763671875	0.412841796875	1	upper	zerothre.ttf
2459677	START	n/a	LTP286	ltpFR	9	n/a	n/a	n/a	n/a	n/a	n/a	n/a	n/a	n/a	n/a	n/a	n/a	n/a	n/a	n/a	n/a
2460791	PROB	n/a	LTP286	ltpFR	9	n/a	n/a	n/a	n/a	n/a	n/a	n/a	21	8	7	6	n/a	n/a	n/a	n/a	n/a
2462772	PROB	n/a	LTP286	ltpFR	9	n/a	n/a	n/a	n/a	n/a	n/a	n/a	16	6	9	1	n/a	n/a	n/a	n/a	n/a
2464254	PROB	n/a	LTP286	ltpFR	9	n/a	n/a	n/a	n/a	n/a	n/a	n/a	6	2	3	1	n/a	n/a	n/a	n/a	n/a
2465900	PROB	n/a	LTP286	ltpFR	9	n/a	n/a	n/a	n/a	n/a	n/a	n/a	12	3	2	7	n/a	n/a	n/a	n/a	n/a
2467515	PROB	n/a	LTP286	ltpFR	9	n/a	n/a	n/a	n/a	n/a	n/a	n/a	17	3	9	5	n/a	n/a	n/a	n/a	n/a
2469363	PROB	n/a	LTP286	ltpFR	9	n/a	n/a	n/a	n/a	n/a	n/a	n/a	16	2	9	5	n/a	n/a	n/a	n/a	n/a
2470876	PROB	n/a	LTP286	ltpFR	9	n/a	n/a	n/a	n/a	n/a	n/a	n/a	14	5	4	5	n/a	n/a	n/a	n/a	n/a
2475677	STOP	n/a	LTP286	ltpFR	9	n/a	n/a	n/a	n/a	n/a	n/a	n/a	n/a	n/a	n/a	n/a	n/a	n/a	n/a	n/a	n/a
2476867	WORD	wordpools/wasnorm_wordpool_less_exclusions.txt	LTP286	ltpFR	9	9	0	IDOL	733	n/a	n/a	1	n/a	0	0	0	0.57763671875	0.412841796875	1	upper	zerothre.ttf
2479880	START	n/a	LTP286	ltpFR	9	n/a	n/a	n/a	n/a	n/a	n/a	n/a	n/a	n/a	n/a	n/a	n/a	n/a	n/a	n/a	n/a
2480712	PROB	n/a	LTP286	ltpFR	9	n/a	n/a	n/a	n/a	n/a	n/a	n/a	17	7	4	6	n/a	n/a	n/a	n/a	n/a
2484241	PROB	n/a	LTP286	ltpFR	9	n/a	n/a	n/a	n/a	n/a	n/a	n/a	16	7	1	8	n/a	n/a	n/a	n/a	n/a
2485671	PROB	n/a	LTP286	ltpFR	9	n/a	n/a	n/a	n/a	n/a	n/a	n/a	20	3	9	8	n/a	n/a	n/a	n/a	n/a
2487253	PROB	n/a	LTP286	ltpFR	9	n/a	n/a	n/a	n/a	n/a	n/a	n/a	18	5	7	6	n/a	n/a	n/a	n/a	n/a
2489864	PROB	n/a	LTP286	ltpFR	9	n/a	n/a	n/a	n/a	n/a	n/a	n/a	19	3	7	9	n/a	n/a	n/a	n/a	n/a
2491214	PROB	n/a	LTP286	ltpFR	9	n/a	n/a	n/a	n/a	n/a	n/a	n/a	14	7	6	1	n/a	n/a	n/a	n/a	n/a
2492527	PROB	n/a	LTP286	ltpFR	9	n/a	n/a	n/a	n/a	n/a	n/a	n/a	16	6	7	3	n/a	n/a	n/a	n/a	n/a
2495719	STOP	n/a	LTP286	ltpFR	9	n/a	n/a	n/a	n/a	n/a	n/a	n/a	n/a	n/a	n/a	n/a	n/a	n/a	n/a	n/a	n/a
2496954	WORD	wordpools/wasnorm_wordpool_less_exclusions.txt	LTP286	ltpFR	9	9	1	TOOL	1480	n/a	n/a	0	n/a	0	0	0	0.422607421875	0.5869140625	0	lower	amplitud.ttf
2499967	START	n/a	LTP286	ltpFR	9	n/a	n/a	n/a	n/a	n/a	n/a	n/a	n/a	n/a	n/a	n/a	n/a	n/a	n/a	n/a	n/a
2500782	PROB	n/a	LTP286	ltpFR	9	n/a	n/a	n/a	n/a	n/a	n/a	n/a	16	6	4	6	n/a	n/a	n/a	n/a	n/a
2502479	PROB	n/a	LTP286	ltpFR	9	n/a	n/a	n/a	n/a	n/a	n/a	n/a	13	8	2	3	n/a	n/a	n/a	n/a	n/a
2503910	PROB	n/a	LTP286	ltpFR	9	n/a	n/a	n/a	n/a	n/a	n/a	n/a	11	6	3	2	n/a	n/a	n/a	n/a	n/a
2505193	PROB	n/a	LTP286	ltpFR	9	n/a	n/a	n/a	n/a	n/a	n/a	n/a	18	5	9	4	n/a	n/a	n/a	n/a	n/a
2506739	PROB	n/a	LTP286	ltpFR	9	n/a	n/a	n/a	n/a	n/a	n/a	n/a	10	3	3	4	n/a	n/a	n/a	n/a	n/a
2508271	PROB	n/a	LTP286	ltpFR	9	n/a	n/a	n/a	n/a	n/a	n/a	n/a	15	4	4	7	n/a	n/a	n/a	n/a	n/a
2509751	PROB	n/a	LTP286	ltpFR	9	n/a	n/a	n/a	n/a	n/a	n/a	n/a	22	5	9	8	n/a	n/a	n/a	n/a	n/a
2512049	PROB	n/a	LTP286	ltpFR	9	n/a	n/a	n/a	n/a	n/a	n/a	n/a	14	6	5	3	n/a	n/a	n/a	n/a	n/a
2514535	STOP	n/a	LTP286	ltpFR	9	n/a	n/a	n/a	n/a	n/a	n/a	n/a	n/a	n/a	n/a	n/a	n/a	n/a	n/a	n/a	n/a
2517092	WORD	wordpools/wasnorm_wordpool_less_exclusions.txt	LTP286	ltpFR	9	9	1	SCREW	1254	n/a	n/a	0	n/a	0	0	0	0.422607421875	0.5869140625	0	lower	amplitud.ttf
2520104	START	n/a	LTP286	ltpFR	9	n/a	n/a	n/a	n/a	n/a	n/a	n/a	n/a	n/a	n/a	n/a	n/a	n/a	n/a	n/a	n/a
2520968	PROB	n/a	LTP286	ltpFR	9	n/a	n/a	n/a	n/a	n/a	n/a	n/a	6	1	3	2	n/a	n/a	n/a	n/a	n/a
2522932	PROB	n/a	LTP286	ltpFR	9	n/a	n/a	n/a	n/a	n/a	n/a	n/a	13	5	6	2	n/a	n/a	n/a	n/a	n/a
2524912	PROB	n/a	LTP286	ltpFR	9	n/a	n/a	n/a	n/a	n/a	n/a	n/a	13	3	2	8	n/a	n/a	n/a	n/a	n/a
2528008	PROB	n/a	LTP286	ltpFR	9	n/a	n/a	n/a	n/a	n/a	n/a	n/a	12	4	1	7	n/a	n/a	n/a	n/a	n/a
2529589	PROB	n/a	LTP286	ltpFR	9	n/a	n/a	n/a	n/a	n/a	n/a	n/a	12	5	1	6	n/a	n/a	n/a	n/a	n/a
2531154	PROB	n/a	LTP286	ltpFR	9	n/a	n/a	n/a	n/a	n/a	n/a	n/a	9	1	7	1	n/a	n/a	n/a	n/a	n/a
2532934	PROB	n/a	LTP286	ltpFR	9	n/a	n/a	n/a	n/a	n/a	n/a	n/a	18	9	2	7	n/a	n/a	n/a	n/a	n/a
2536103	STOP	n/a	LTP286	ltpFR	9	n/a	n/a	n/a	n/a	n/a	n/a	n/a	n/a	n/a	n/a	n/a	n/a	n/a	n/a	n/a	n/a
2537011	WORD	wordpools/wasnorm_wordpool_less_exclusions.txt	LTP286	ltpFR	9	9	1	CLIMBER	323	n/a	n/a	1	n/a	0	0	0	0.422607421875	0.5869140625	0	lower	amplitud.ttf
2540023	START	n/a	LTP286	ltpFR	9	n/a	n/a	n/a	n/a	n/a	n/a	n/a	n/a	n/a	n/a	n/a	n/a	n/a	n/a	n/a	n/a
2541156	PROB	n/a	LTP286	ltpFR	9	n/a	n/a	n/a	n/a	n/a	n/a	n/a	20	7	6	6	n/a	n/a	n/a	n/a	n/a
2542636	PROB	n/a	LTP286	ltpFR	9	n/a	n/a	n/a	n/a	n/a	n/a	n/a	16	7	1	8	n/a	n/a	n/a	n/a	n/a
2544816	PROB	n/a	LTP286	ltpFR	9	n/a	n/a	n/a	n/a	n/a	n/a	n/a	14	9	1	4	n/a	n/a	n/a	n/a	n/a
2546580	PROB	n/a	LTP286	ltpFR	9	n/a	n/a	n/a	n/a	n/a	n/a	n/a	16	3	4	9	n/a	n/a	n/a	n/a	n/a
2548378	PROB	n/a	LTP286	ltpFR	9	n/a	n/a	n/a	n/a	n/a	n/a	n/a	15	3	8	4	n/a	n/a	n/a	n/a	n/a
2550591	PROB	n/a	LTP286	ltpFR	9	n/a	n/a	n/a	n/a	n/a	n/a	n/a	16	5	5	6	n/a	n/a	n/a	n/a	n/a
2551872	PROB	n/a	LTP286	ltpFR	9	n/a	n/a	n/a	n/a	n/a	n/a	n/a	20	4	7	9	n/a	n/a	n/a	n/a	n/a
2553271	PROB	n/a	LTP286	ltpFR	9	n/a	n/a	n/a	n/a	n/a	n/a	n/a	21	5	9	7	n/a	n/a	n/a	n/a	n/a
2555168	STOP	n/a	LTP286	ltpFR	9	n/a	n/a	n/a	n/a	n/a	n/a	n/a	n/a	n/a	n/a	n/a	n/a	n/a	n/a	n/a	n/a
2556964	WORD	wordpools/wasnorm_wordpool_less_exclusions.txt	LTP286	ltpFR	9	9	0	FRIES	607	n/a	n/a	0	n/a	0	0	0	0.57763671875	0.412841796875	1	upper	zerothre.ttf
2559977	START	n/a	LTP286	ltpFR	9	n/a	n/a	n/a	n/a	n/a	n/a	n/a	n/a	n/a	n/a	n/a	n/a	n/a	n/a	n/a	n/a
2560859	PROB	n/a	LTP286	ltpFR	9	n/a	n/a	n/a	n/a	n/a	n/a	n/a	5	2	2	3	n/a	n/a	n/a	n/a	n/a
2563040	PROB	n/a	LTP286	ltpFR	9	n/a	n/a	n/a	n/a	n/a	n/a	n/a	18	8	5	5	n/a	n/a	n/a	n/a	n/a
2565718	PROB	n/a	LTP286	ltpFR	9	n/a	n/a	n/a	n/a	n/a	n/a	n/a	24	8	6	8	n/a	n/a	n/a	n/a	n/a
2568713	PROB	n/a	LTP286	ltpFR	9	n/a	n/a	n/a	n/a	n/a	n/a	n/a	17	8	4	5	n/a	n/a	n/a	n/a	n/a
2570727	PROB	n/a	LTP286	ltpFR	9	n/a	n/a	n/a	n/a	n/a	n/a	n/a	19	3	9	6	n/a	n/a	n/a	n/a	n/a
2572491	PROB	n/a	LTP286	ltpFR	9	n/a	n/a	n/a	n/a	n/a	n/a	n/a	11	2	2	9	n/a	n/a	n/a	n/a	n/a
2574223	PROB	n/a	LTP286	ltpFR	9	n/a	n/a	n/a	n/a	n/a	n/a	n/a	11	6	3	2	n/a	n/a	n/a	n/a	n/a
2575687	STOP	n/a	LTP286	ltpFR	9	n/a	n/a	n/a	n/a	n/a	n/a	n/a	n/a	n/a	n/a	n/a	n/a	n/a	n/a	n/a	n/a
2576835	WORD	wordpools/wasnorm_wordpool_less_exclusions.txt	LTP286	ltpFR	9	9	0	TOWER	1490	n/a	n/a	1	n/a	0	0	0	0.57763671875	0.412841796875	1	upper	zerothre.ttf
2579847	START	n/a	LTP286	ltpFR	9	n/a	n/a	n/a	n/a	n/a	n/a	n/a	n/a	n/a	n/a	n/a	n/a	n/a	n/a	n/a	n/a
2580762	PROB	n/a	LTP286	ltpFR	9	n/a	n/a	n/a	n/a	n/a	n/a	n/a	11	4	4	3	n/a	n/a	n/a	n/a	n/a
2582609	PROB	n/a	LTP286	ltpFR	9	n/a	n/a	n/a	n/a	n/a	n/a	n/a	19	5	6	8	n/a	n/a	n/a	n/a	n/a
2584440	PROB	n/a	LTP286	ltpFR	9	n/a	n/a	n/a	n/a	n/a	n/a	n/a	18	4	8	6	n/a	n/a	n/a	n/a	n/a
2587337	PROB	n/a	LTP286	ltpFR	9	n/a	n/a	n/a	n/a	n/a	n/a	n/a	12	5	5	2	n/a	n/a	n/a	n/a	n/a
2588434	PROB	n/a	LTP286	ltpFR	9	n/a	n/a	n/a	n/a	n/a	n/a	n/a	15	7	6	2	n/a	n/a	n/a	n/a	n/a
2589815	PROB	n/a	LTP286	ltpFR	9	n/a	n/a	n/a	n/a	n/a	n/a	n/a	13	3	8	2	n/a	n/a	n/a	n/a	n/a
2591297	PROB	n/a	LTP286	ltpFR	9	n/a	n/a	n/a	n/a	n/a	n/a	n/a	18	8	8	2	n/a	n/a	n/a	n/a	n/a
2592827	PROB	n/a	LTP286	ltpFR	9	n/a	n/a	n/a	n/a	n/a	n/a	n/a	17	5	8	4	n/a	n/a	n/a	n/a	n/a
2595015	STOP	n/a	LTP286	ltpFR	9	n/a	n/a	n/a	n/a	n/a	n/a	n/a	n/a	n/a	n/a	n/a	n/a	n/a	n/a	n/a	n/a
2597704	REC_START	n/a	LTP286	ltpFR	9	9	n/a	n/a	n/a	n/a	n/a	n/a	n/a	0	0	0	n/a	n/a	n/a	n/a	n/a
2600097	REC_WORD	wordpools/wasnorm_wordpool_less_exclusions.txt	LTP286	ltpFR	9	9	0	TOWER	1490	n/a	n/a	1	n/a	0	0	0	n/a	n/a	n/a	n/a	n/a
2605486	REC_WORD	wordpools/wasnorm_wordpool_less_exclusions.txt	LTP286	ltpFR	9	9	1	TOOL	1480	n/a	n/a	0	n/a	0	0	0	n/a	n/a	n/a	n/a	n/a
2607007	REC_WORD	wordpools/wasnorm_wordpool_less_exclusions.txt	LTP286	ltpFR	9	9	1	SCREW	1254	n/a	n/a	0	n/a	0	0	0	n/a	n/a	n/a	n/a	n/a
2609036	REC_WORD	wordpools/wasnorm_wordpool_less_exclusions.txt	LTP286	ltpFR	9	9	1	CLIMBER	323	n/a	n/a	1	n/a	0	0	0	n/a	n/a	n/a	n/a	n/a
2610715	REC_WORD	wordpools/wasnorm_wordpool_less_exclusions.txt	LTP286	ltpFR	9	9	0	STONE	1385	n/a	n/a	1	n/a	0	0	0	n/a	n/a	n/a	n/a	n/a
2612750	REC_WORD	wordpools/wasnorm_wordpool_less_exclusions.txt	LTP286	ltpFR	9	9	0	CANYON	235	n/a	n/a	1	n/a	0	0	0	n/a	n/a	n/a	n/a	n/a
2617402	REC_WORD	wordpools/wasnorm_wordpool_less_exclusions.txt	LTP286	ltpFR	9	9	1	SLOPE	1328	n/a	n/a	0	n/a	0	0	0	n/a	n/a	n/a	n/a	n/a
2677019	START	n/a	LTP286	ltpFR	9	n/a	n/a	n/a	n/a	n/a	n/a	n/a	n/a	n/a	n/a	n/a	n/a	n/a	n/a	n/a	n/a
2678533	PROB	n/a	LTP286	ltpFR	9	n/a	n/a	n/a	n/a	n/a	n/a	n/a	16	4	7	5	n/a	n/a	n/a	n/a	n/a
2680131	PROB	n/a	LTP286	ltpFR	9	n/a	n/a	n/a	n/a	n/a	n/a	n/a	15	1	9	5	n/a	n/a	n/a	n/a	n/a
2681512	PROB	n/a	LTP286	ltpFR	9	n/a	n/a	n/a	n/a	n/a	n/a	n/a	18	7	6	5	n/a	n/a	n/a	n/a	n/a
2683027	PROB	n/a	LTP286	ltpFR	9	n/a	n/a	n/a	n/a	n/a	n/a	n/a	9	7	1	1	n/a	n/a	n/a	n/a	n/a
2684216	STOP	n/a	LTP286	ltpFR	9	n/a	n/a	n/a	n/a	n/a	n/a	n/a	n/a	n/a	n/a	n/a	n/a	n/a	n/a	n/a	n/a
2685888	WORD	wordpools/wasnorm_wordpool_less_exclusions.txt	LTP286	ltpFR	9	10	1	TUBE	1516	n/a	n/a	0	n/a	0	0	0	0.422607421875	0.5869140625	0	lower	amplitud.ttf
2688901	START	n/a	LTP286	ltpFR	9	n/a	n/a	n/a	n/a	n/a	n/a	n/a	n/a	n/a	n/a	n/a	n/a	n/a	n/a	n/a	n/a
2689816	PROB	n/a	LTP286	ltpFR	9	n/a	n/a	n/a	n/a	n/a	n/a	n/a	22	9	6	7	n/a	n/a	n/a	n/a	n/a
2691398	PROB	n/a	LTP286	ltpFR	9	n/a	n/a	n/a	n/a	n/a	n/a	n/a	20	4	8	8	n/a	n/a	n/a	n/a	n/a
2693527	PROB	n/a	LTP286	ltpFR	9	n/a	n/a	n/a	n/a	n/a	n/a	n/a	22	9	9	4	n/a	n/a	n/a	n/a	n/a
2695109	PROB	n/a	LTP286	ltpFR	9	n/a	n/a	n/a	n/a	n/a	n/a	n/a	16	7	2	6	n/a	n/a	n/a	n/a	n/a
2696575	STOP	n/a	LTP286	ltpFR	9	n/a	n/a	n/a	n/a	n/a	n/a	n/a	n/a	n/a	n/a	n/a	n/a	n/a	n/a	n/a	n/a
2698038	WORD	wordpools/wasnorm_wordpool_less_exclusions.txt	LTP286	ltpFR	9	10	1	LITERATURE	831	n/a	n/a	0	n/a	0	0	0	0.422607421875	0.5869140625	0	lower	amplitud.ttf
2701051	START	n/a	LTP286	ltpFR	9	n/a	n/a	n/a	n/a	n/a	n/a	n/a	n/a	n/a	n/a	n/a	n/a	n/a	n/a	n/a	n/a
2702199	PROB	n/a	LTP286	ltpFR	9	n/a	n/a	n/a	n/a	n/a	n/a	n/a	18	1	8	9	n/a	n/a	n/a	n/a	n/a
2704179	PROB	n/a	LTP286	ltpFR	9	n/a	n/a	n/a	n/a	n/a	n/a	n/a	16	5	7	4	n/a	n/a	n/a	n/a	n/a
2709048	STOP	n/a	LTP286	ltpFR	9	n/a	n/a	n/a	n/a	n/a	n/a	n/a	n/a	n/a	n/a	n/a	n/a	n/a	n/a	n/a	n/a
2710270	WORD	wordpools/wasnorm_wordpool_less_exclusions.txt	LTP286	ltpFR	9	10	1	BRUNETTE	181	n/a	n/a	1	n/a	0	0	0	0.422607421875	0.5869140625	0	lower	amplitud.ttf
2713282	START	n/a	LTP286	ltpFR	9	n/a	n/a	n/a	n/a	n/a	n/a	n/a	n/a	n/a	n/a	n/a	n/a	n/a	n/a	n/a	n/a
2714380	PROB	n/a	LTP286	ltpFR	9	n/a	n/a	n/a	n/a	n/a	n/a	n/a	7	2	4	1	n/a	n/a	n/a	n/a	n/a
2716161	PROB	n/a	LTP286	ltpFR	9	n/a	n/a	n/a	n/a	n/a	n/a	n/a	14	4	1	9	n/a	n/a	n/a	n/a	n/a
2717924	PROB	n/a	LTP286	ltpFR	9	n/a	n/a	n/a	n/a	n/a	n/a	n/a	14	4	4	6	n/a	n/a	n/a	n/a	n/a
2719323	PROB	n/a	LTP286	ltpFR	9	n/a	n/a	n/a	n/a	n/a	n/a	n/a	13	6	4	3	n/a	n/a	n/a	n/a	n/a
2720607	STOP	n/a	LTP286	ltpFR	9	n/a	n/a	n/a	n/a	n/a	n/a	n/a	n/a	n/a	n/a	n/a	n/a	n/a	n/a	n/a	n/a
2722185	WORD	wordpools/wasnorm_wordpool_less_exclusions.txt	LTP286	ltpFR	9	10	1	HURRICANE	727	n/a	n/a	0	n/a	0	0	0	0.422607421875	0.5869140625	0	lower	amplitud.ttf
2725198	START	n/a	LTP286	ltpFR	9	n/a	n/a	n/a	n/a	n/a	n/a	n/a	n/a	n/a	n/a	n/a	n/a	n/a	n/a	n/a	n/a
2726396	PROB	n/a	LTP286	ltpFR	9	n/a	n/a	n/a	n/a	n/a	n/a	n/a	15	4	4	7	n/a	n/a	n/a	n/a	n/a
2727809	PROB	n/a	LTP286	ltpFR	9	n/a	n/a	n/a	n/a	n/a	n/a	n/a	15	7	4	4	n/a	n/a	n/a	n/a	n/a
2729540	PROB	n/a	LTP286	ltpFR	9	n/a	n/a	n/a	n/a	n/a	n/a	n/a	19	3	8	8	n/a	n/a	n/a	n/a	n/a
2731855	STOP	n/a	LTP286	ltpFR	9	n/a	n/a	n/a	n/a	n/a	n/a	n/a	n/a	n/a	n/a	n/a	n/a	n/a	n/a	n/a	n/a
2734201	WORD	wordpools/wasnorm_wordpool_less_exclusions.txt	LTP286	ltpFR	9	10	1	DEER	444	n/a	n/a	1	n/a	0	0	0	0.422607421875	0.5869140625	0	lower	amplitud.ttf
2737213	START	n/a	LTP286	ltpFR	9	n/a	n/a	n/a	n/a	n/a	n/a	n/a	n/a	n/a	n/a	n/a	n/a	n/a	n/a	n/a	n/a
2738078	PROB	n/a	LTP286	ltpFR	9	n/a	n/a	n/a	n/a	n/a	n/a	n/a	16	4	3	9	n/a	n/a	n/a	n/a	n/a
2739741	PROB	n/a	LTP286	ltpFR	9	n/a	n/a	n/a	n/a	n/a	n/a	n/a	14	3	4	7	n/a	n/a	n/a	n/a	n/a
2741390	PROB	n/a	LTP286	ltpFR	9	n/a	n/a	n/a	n/a	n/a	n/a	n/a	19	4	7	8	n/a	n/a	n/a	n/a	n/a
2742953	PROB	n/a	LTP286	ltpFR	9	n/a	n/a	n/a	n/a	n/a	n/a	n/a	7	1	1	5	n/a	n/a	n/a	n/a	n/a
2744455	STOP	n/a	LTP286	ltpFR	9	n/a	n/a	n/a	n/a	n/a	n/a	n/a	n/a	n/a	n/a	n/a	n/a	n/a	n/a	n/a	n/a
2746399	WORD	wordpools/wasnorm_wordpool_less_exclusions.txt	LTP286	ltpFR	9	10	1	RAM	1165	n/a	n/a	1	n/a	0	0	0	0.422607421875	0.5869140625	0	lower	amplitud.ttf
2749412	START	n/a	LTP286	ltpFR	9	n/a	n/a	n/a	n/a	n/a	n/a	n/a	n/a	n/a	n/a	n/a	n/a	n/a	n/a	n/a	n/a
2750243	PROB	n/a	LTP286	ltpFR	9	n/a	n/a	n/a	n/a	n/a	n/a	n/a	14	5	8	1	n/a	n/a	n/a	n/a	n/a
2751823	PROB	n/a	LTP286	ltpFR	9	n/a	n/a	n/a	n/a	n/a	n/a	n/a	14	4	6	4	n/a	n/a	n/a	n/a	n/a
2752955	PROB	n/a	LTP286	ltpFR	9	n/a	n/a	n/a	n/a	n/a	n/a	n/a	15	8	1	6	n/a	n/a	n/a	n/a	n/a
2754636	PROB	n/a	LTP286	ltpFR	9	n/a	n/a	n/a	n/a	n/a	n/a	n/a	20	8	7	7	n/a	n/a	n/a	n/a	n/a
2756192	STOP	n/a	LTP286	ltpFR	9	n/a	n/a	n/a	n/a	n/a	n/a	n/a	n/a	n/a	n/a	n/a	n/a	n/a	n/a	n/a	n/a
2758298	WORD	wordpools/wasnorm_wordpool_less_exclusions.txt	LTP286	ltpFR	9	10	1	TORNADO	1485	n/a	n/a	0	n/a	0	0	0	0.422607421875	0.5869140625	0	lower	amplitud.ttf
2761311	START	n/a	LTP286	ltpFR	9	n/a	n/a	n/a	n/a	n/a	n/a	n/a	n/a	n/a	n/a	n/a	n/a	n/a	n/a	n/a	n/a
2762425	PROB	n/a	LTP286	ltpFR	9	n/a	n/a	n/a	n/a	n/a	n/a	n/a	10	3	4	3	n/a	n/a	n/a	n/a	n/a
2764704	PROB	n/a	LTP286	ltpFR	9	n/a	n/a	n/a	n/a	n/a	n/a	n/a	11	6	3	2	n/a	n/a	n/a	n/a	n/a
2766319	PROB	n/a	LTP286	ltpFR	9	n/a	n/a	n/a	n/a	n/a	n/a	n/a	17	8	6	3	n/a	n/a	n/a	n/a	n/a
2767751	STOP	n/a	LTP286	ltpFR	9	n/a	n/a	n/a	n/a	n/a	n/a	n/a	n/a	n/a	n/a	n/a	n/a	n/a	n/a	n/a	n/a
2770479	WORD	wordpools/wasnorm_wordpool_less_exclusions.txt	LTP286	ltpFR	9	10	1	HEADBAND	696	n/a	n/a	0	n/a	0	0	0	0.422607421875	0.5869140625	0	lower	amplitud.ttf
2773491	START	n/a	LTP286	ltpFR	9	n/a	n/a	n/a	n/a	n/a	n/a	n/a	n/a	n/a	n/a	n/a	n/a	n/a	n/a	n/a	n/a
2774589	PROB	n/a	LTP286	ltpFR	9	n/a	n/a	n/a	n/a	n/a	n/a	n/a	18	9	8	1	n/a	n/a	n/a	n/a	n/a
2776453	PROB	n/a	LTP286	ltpFR	9	n/a	n/a	n/a	n/a	n/a	n/a	n/a	15	6	2	7	n/a	n/a	n/a	n/a	n/a
2778001	PROB	n/a	LTP286	ltpFR	9	n/a	n/a	n/a	n/a	n/a	n/a	n/a	21	9	7	5	n/a	n/a	n/a	n/a	n/a
2779532	PROB	n/a	LTP286	ltpFR	9	n/a	n/a	n/a	n/a	n/a	n/a	n/a	14	2	8	4	n/a	n/a	n/a	n/a	n/a
2780719	STOP	n/a	LTP286	ltpFR	9	n/a	n/a	n/a	n/a	n/a	n/a	n/a	n/a	n/a	n/a	n/a	n/a	n/a	n/a	n/a	n/a
2782395	WORD	wordpools/wasnorm_wordpool_less_exclusions.txt	LTP286	ltpFR	9	10	1	LACE	792	n/a	n/a	0	n/a	0	0	0	0.422607421875	0.5869140625	0	lower	amplitud.ttf
2785408	START	n/a	LTP286	ltpFR	9	n/a	n/a	n/a	n/a	n/a	n/a	n/a	n/a	n/a	n/a	n/a	n/a	n/a	n/a	n/a	n/a
2786306	PROB	n/a	LTP286	ltpFR	9	n/a	n/a	n/a	n/a	n/a	n/a	n/a	16	3	6	7	n/a	n/a	n/a	n/a	n/a
2788203	PROB	n/a	LTP286	ltpFR	9	n/a	n/a	n/a	n/a	n/a	n/a	n/a	19	8	3	8	n/a	n/a	n/a	n/a	n/a
2789750	PROB	n/a	LTP286	ltpFR	9	n/a	n/a	n/a	n/a	n/a	n/a	n/a	20	6	6	8	n/a	n/a	n/a	n/a	n/a
2791448	PROB	n/a	LTP286	ltpFR	9	n/a	n/a	n/a	n/a	n/a	n/a	n/a	24	7	9	8	n/a	n/a	n/a	n/a	n/a
2793128	STOP	n/a	LTP286	ltpFR	9	n/a	n/a	n/a	n/a	n/a	n/a	n/a	n/a	n/a	n/a	n/a	n/a	n/a	n/a	n/a	n/a
2794543	WORD	wordpools/wasnorm_wordpool_less_exclusions.txt	LTP286	ltpFR	9	10	1	COOK	372	n/a	n/a	1	n/a	0	0	0	0.422607421875	0.5869140625	0	lower	amplitud.ttf
2797556	START	n/a	LTP286	ltpFR	9	n/a	n/a	n/a	n/a	n/a	n/a	n/a	n/a	n/a	n/a	n/a	n/a	n/a	n/a	n/a	n/a
2798703	PROB	n/a	LTP286	ltpFR	9	n/a	n/a	n/a	n/a	n/a	n/a	n/a	15	3	2	9	n/a	n/a	n/a	n/a	n/a
2800684	PROB	n/a	LTP286	ltpFR	9	n/a	n/a	n/a	n/a	n/a	n/a	n/a	15	9	2	4	n/a	n/a	n/a	n/a	n/a
2802797	PROB	n/a	LTP286	ltpFR	9	n/a	n/a	n/a	n/a	n/a	n/a	n/a	18	5	4	9	n/a	n/a	n/a	n/a	n/a
2805288	STOP	n/a	LTP286	ltpFR	9	n/a	n/a	n/a	n/a	n/a	n/a	n/a	n/a	n/a	n/a	n/a	n/a	n/a	n/a	n/a	n/a
2806775	WORD	wordpools/wasnorm_wordpool_less_exclusions.txt	LTP286	ltpFR	9	10	1	OVEN	991	n/a	n/a	1	n/a	0	0	0	0.422607421875	0.5869140625	0	lower	amplitud.ttf
2809787	START	n/a	LTP286	ltpFR	9	n/a	n/a	n/a	n/a	n/a	n/a	n/a	n/a	n/a	n/a	n/a	n/a	n/a	n/a	n/a	n/a
2810802	PROB	n/a	LTP286	ltpFR	9	n/a	n/a	n/a	n/a	n/a	n/a	n/a	48	5	4	9	n/a	n/a	n/a	n/a	n/a
2813731	PROB	n/a	LTP286	ltpFR	9	n/a	n/a	n/a	n/a	n/a	n/a	n/a	18	2	8	8	n/a	n/a	n/a	n/a	n/a
2816256	STOP	n/a	LTP286	ltpFR	9	n/a	n/a	n/a	n/a	n/a	n/a	n/a	n/a	n/a	n/a	n/a	n/a	n/a	n/a	n/a	n/a
2818624	WORD	wordpools/wasnorm_wordpool_less_exclusions.txt	LTP286	ltpFR	9	10	1	SCREEN	1253	n/a	n/a	0	n/a	0	0	0	0.422607421875	0.5869140625	0	lower	amplitud.ttf
2821636	START	n/a	LTP286	ltpFR	9	n/a	n/a	n/a	n/a	n/a	n/a	n/a	n/a	n/a	n/a	n/a	n/a	n/a	n/a	n/a	n/a
2822668	PROB	n/a	LTP286	ltpFR	9	n/a	n/a	n/a	n/a	n/a	n/a	n/a	12	6	3	3	n/a	n/a	n/a	n/a	n/a
2824116	PROB	n/a	LTP286	ltpFR	9	n/a	n/a	n/a	n/a	n/a	n/a	n/a	21	9	9	3	n/a	n/a	n/a	n/a	n/a
2825746	PROB	n/a	LTP286	ltpFR	9	n/a	n/a	n/a	n/a	n/a	n/a	n/a	13	5	3	5	n/a	n/a	n/a	n/a	n/a
2827411	PROB	n/a	LTP286	ltpFR	9	n/a	n/a	n/a	n/a	n/a	n/a	n/a	12	2	1	9	n/a	n/a	n/a	n/a	n/a
2829056	STOP	n/a	LTP286	ltpFR	9	n/a	n/a	n/a	n/a	n/a	n/a	n/a	n/a	n/a	n/a	n/a	n/a	n/a	n/a	n/a	n/a
2830739	WORD	wordpools/wasnorm_wordpool_less_exclusions.txt	LTP286	ltpFR	9	10	1	SHOULDER	1294	n/a	n/a	1	n/a	0	0	0	0.422607421875	0.5869140625	0	lower	amplitud.ttf
2833751	START	n/a	LTP286	ltpFR	9	n/a	n/a	n/a	n/a	n/a	n/a	n/a	n/a	n/a	n/a	n/a	n/a	n/a	n/a	n/a	n/a
2834567	PROB	n/a	LTP286	ltpFR	9	n/a	n/a	n/a	n/a	n/a	n/a	n/a	12	4	2	6	n/a	n/a	n/a	n/a	n/a
2836248	PROB	n/a	LTP286	ltpFR	9	n/a	n/a	n/a	n/a	n/a	n/a	n/a	16	7	2	7	n/a	n/a	n/a	n/a	n/a
2837895	PROB	n/a	LTP286	ltpFR	9	n/a	n/a	n/a	n/a	n/a	n/a	n/a	11	1	6	4	n/a	n/a	n/a	n/a	n/a
2839476	PROB	n/a	LTP286	ltpFR	9	n/a	n/a	n/a	n/a	n/a	n/a	n/a	21	9	9	3	n/a	n/a	n/a	n/a	n/a
2841120	STOP	n/a	LTP286	ltpFR	9	n/a	n/a	n/a	n/a	n/a	n/a	n/a	n/a	n/a	n/a	n/a	n/a	n/a	n/a	n/a	n/a
2842738	WORD	wordpools/wasnorm_wordpool_less_exclusions.txt	LTP286	ltpFR	9	10	1	CORAL	378	n/a	n/a	1	n/a	0	0	0	0.422607421875	0.5869140625	0	lower	amplitud.ttf
2845750	START	n/a	LTP286	ltpFR	9	n/a	n/a	n/a	n/a	n/a	n/a	n/a	n/a	n/a	n/a	n/a	n/a	n/a	n/a	n/a	n/a
2846815	PROB	n/a	LTP286	ltpFR	9	n/a	n/a	n/a	n/a	n/a	n/a	n/a	6	2	2	2	n/a	n/a	n/a	n/a	n/a
2848031	PROB	n/a	LTP286	ltpFR	9	n/a	n/a	n/a	n/a	n/a	n/a	n/a	15	5	5	5	n/a	n/a	n/a	n/a	n/a
2849428	PROB	n/a	LTP286	ltpFR	9	n/a	n/a	n/a	n/a	n/a	n/a	n/a	14	7	2	5	n/a	n/a	n/a	n/a	n/a
2850909	PROB	n/a	LTP286	ltpFR	9	n/a	n/a	n/a	n/a	n/a	n/a	n/a	5	2	2	1	n/a	n/a	n/a	n/a	n/a
2852192	STOP	n/a	LTP286	ltpFR	9	n/a	n/a	n/a	n/a	n/a	n/a	n/a	n/a	n/a	n/a	n/a	n/a	n/a	n/a	n/a	n/a
2854720	WORD	wordpools/wasnorm_wordpool_less_exclusions.txt	LTP286	ltpFR	9	10	1	SWITCH	1422	n/a	n/a	0	n/a	0	0	0	0.422607421875	0.5869140625	0	lower	amplitud.ttf
2857732	START	n/a	LTP286	ltpFR	9	n/a	n/a	n/a	n/a	n/a	n/a	n/a	n/a	n/a	n/a	n/a	n/a	n/a	n/a	n/a	n/a
2858647	PROB	n/a	LTP286	ltpFR	9	n/a	n/a	n/a	n/a	n/a	n/a	n/a	18	8	6	4	n/a	n/a	n/a	n/a	n/a
2861826	PROB	n/a	LTP286	ltpFR	9	n/a	n/a	n/a	n/a	n/a	n/a	n/a	19	9	1	9	n/a	n/a	n/a	n/a	n/a
2863291	PROB	n/a	LTP286	ltpFR	9	n/a	n/a	n/a	n/a	n/a	n/a	n/a	10	1	6	3	n/a	n/a	n/a	n/a	n/a
2864735	STOP	n/a	LTP286	ltpFR	9	n/a	n/a	n/a	n/a	n/a	n/a	n/a	n/a	n/a	n/a	n/a	n/a	n/a	n/a	n/a	n/a
2866752	WORD	wordpools/wasnorm_wordpool_less_exclusions.txt	LTP286	ltpFR	9	10	1	LAMP	798	n/a	n/a	0	n/a	0	0	0	0.422607421875	0.5869140625	0	lower	amplitud.ttf
2869764	START	n/a	LTP286	ltpFR	9	n/a	n/a	n/a	n/a	n/a	n/a	n/a	n/a	n/a	n/a	n/a	n/a	n/a	n/a	n/a	n/a
2870829	PROB	n/a	LTP286	ltpFR	9	n/a	n/a	n/a	n/a	n/a	n/a	n/a	16	2	6	8	n/a	n/a	n/a	n/a	n/a
2872311	PROB	n/a	LTP286	ltpFR	9	n/a	n/a	n/a	n/a	n/a	n/a	n/a	13	6	6	1	n/a	n/a	n/a	n/a	n/a
2873691	PROB	n/a	LTP286	ltpFR	9	n/a	n/a	n/a	n/a	n/a	n/a	n/a	15	1	8	6	n/a	n/a	n/a	n/a	n/a
2875157	PROB	n/a	LTP286	ltpFR	9	n/a	n/a	n/a	n/a	n/a	n/a	n/a	14	4	5	5	n/a	n/a	n/a	n/a	n/a
2877104	STOP	n/a	LTP286	ltpFR	9	n/a	n/a	n/a	n/a	n/a	n/a	n/a	n/a	n/a	n/a	n/a	n/a	n/a	n/a	n/a	n/a
2879700	REC_START	n/a	LTP286	ltpFR	9	10	n/a	n/a	n/a	n/a	n/a	n/a	n/a	0	0	0	n/a	n/a	n/a	n/a	n/a
2881342	REC_WORD	wordpools/wasnorm_wordpool_less_exclusions.txt	LTP286	ltpFR	9	10	1	LAMP	798	n/a	n/a	0	n/a	0	0	0	n/a	n/a	n/a	n/a	n/a
2883145	REC_WORD	wordpools/wasnorm_wordpool_less_exclusions.txt	LTP286	ltpFR	9	10	1	SWITCH	1422	n/a	n/a	0	n/a	0	0	0	n/a	n/a	n/a	n/a	n/a
2885152	REC_WORD	wordpools/wasnorm_wordpool_less_exclusions.txt	LTP286	ltpFR	9	10	1	TUBE	1516	n/a	n/a	0	n/a	0	0	0	n/a	n/a	n/a	n/a	n/a
2888976	REC_WORD	wordpools/wasnorm_wordpool_less_exclusions.txt	LTP286	ltpFR	9	10	1	BRUNETTE	181	n/a	n/a	1	n/a	0	0	0	n/a	n/a	n/a	n/a	n/a
2900390	REC_WORD	wordpools/wasnorm_wordpool_less_exclusions.txt	LTP286	ltpFR	9	10	1	SHOULDER	1294	n/a	n/a	1	n/a	0	0	0	n/a	n/a	n/a	n/a	n/a
2963325	WORD	wordpools/wasnorm_wordpool_less_exclusions.txt	LTP286	ltpFR	9	11	0	ALBUM	14	n/a	n/a	0	n/a	0	0	0	0.57763671875	0.412841796875	1	upper	zerothre.ttf
2967269	WORD	wordpools/wasnorm_wordpool_less_exclusions.txt	LTP286	ltpFR	9	11	0	SOFA	1342	n/a	n/a	1	n/a	0	0	0	0.57763671875	0.412841796875	1	upper	zerothre.ttf
2971313	WORD	wordpools/wasnorm_wordpool_less_exclusions.txt	LTP286	ltpFR	9	11	0	SCULPTURE	1258	n/a	n/a	1	n/a	0	0	0	0.57763671875	0.412841796875	1	upper	zerothre.ttf
2975208	WORD	wordpools/wasnorm_wordpool_less_exclusions.txt	LTP286	ltpFR	9	11	0	CITIZEN	312	n/a	n/a	1	n/a	0	0	0	0.57763671875	0.412841796875	1	upper	zerothre.ttf
2979218	WORD	wordpools/wasnorm_wordpool_less_exclusions.txt	LTP286	ltpFR	9	11	0	PAINTING	1005	n/a	n/a	1	n/a	0	0	0	0.57763671875	0.412841796875	1	upper	zerothre.ttf
2983395	WORD	wordpools/wasnorm_wordpool_less_exclusions.txt	LTP286	ltpFR	9	11	0	RECIPE	1175	n/a	n/a	0	n/a	0	0	0	0.57763671875	0.412841796875	1	upper	zerothre.ttf
2987538	WORD	wordpools/wasnorm_wordpool_less_exclusions.txt	LTP286	ltpFR	9	11	0	DASHBOARD	441	n/a	n/a	1	n/a	0	0	0	0.57763671875	0.412841796875	1	upper	zerothre.ttf
2991748	WORD	wordpools/wasnorm_wordpool_less_exclusions.txt	LTP286	ltpFR	9	11	0	TRIBE	1505	n/a	n/a	1	n/a	0	0	0	0.57763671875	0.412841796875	1	upper	zerothre.ttf
2995593	WORD	wordpools/wasnorm_wordpool_less_exclusions.txt	LTP286	ltpFR	9	11	0	WARRIOR	1589	n/a	n/a	1	n/a	0	0	0	0.57763671875	0.412841796875	1	upper	zerothre.ttf
2999687	WORD	wordpools/wasnorm_wordpool_less_exclusions.txt	LTP286	ltpFR	9	11	0	AFRICA	9	n/a	n/a	1	n/a	0	0	0	0.57763671875	0.412841796875	1	upper	zerothre.ttf
3003631	WORD	wordpools/wasnorm_wordpool_less_exclusions.txt	LTP286	ltpFR	9	11	0	TABLET	1427	n/a	n/a	0	n/a	0	0	0	0.57763671875	0.412841796875	1	upper	zerothre.ttf
3007675	WORD	wordpools/wasnorm_wordpool_less_exclusions.txt	LTP286	ltpFR	9	11	0	PILL	1068	n/a	n/a	0	n/a	0	0	0	0.57763671875	0.412841796875	1	upper	zerothre.ttf
3011536	WORD	wordpools/wasnorm_wordpool_less_exclusions.txt	LTP286	ltpFR	9	11	0	DANDRUFF	439	n/a	n/a	0	n/a	0	0	0	0.57763671875	0.412841796875	1	upper	zerothre.ttf
3015446	WORD	wordpools/wasnorm_wordpool_less_exclusions.txt	LTP286	ltpFR	9	11	0	REFRIGERATOR	1179	n/a	n/a	1	n/a	0	0	0	0.57763671875	0.412841796875	1	upper	zerothre.ttf
3019275	WORD	wordpools/wasnorm_wordpool_less_exclusions.txt	LTP286	ltpFR	9	11	0	STAR	1373	n/a	n/a	1	n/a	0	0	0	0.57763671875	0.412841796875	1	upper	zerothre.ttf
3023269	WORD	wordpools/wasnorm_wordpool_less_exclusions.txt	LTP286	ltpFR	9	11	0	CLOUD	328	n/a	n/a	1	n/a	0	0	0	0.57763671875	0.412841796875	1	upper	zerothre.ttf
3026281	START	n/a	LTP286	ltpFR	9	n/a	n/a	n/a	n/a	n/a	n/a	n/a	n/a	n/a	n/a	n/a	n/a	n/a	n/a	n/a	n/a
3027429	PROB	n/a	LTP286	ltpFR	9	n/a	n/a	n/a	n/a	n/a	n/a	n/a	15	2	8	9	n/a	n/a	n/a	n/a	n/a
3029127	PROB	n/a	LTP286	ltpFR	9	n/a	n/a	n/a	n/a	n/a	n/a	n/a	16	2	9	5	n/a	n/a	n/a	n/a	n/a
3031157	PROB	n/a	LTP286	ltpFR	9	n/a	n/a	n/a	n/a	n/a	n/a	n/a	13	3	1	9	n/a	n/a	n/a	n/a	n/a
3032654	PROB	n/a	LTP286	ltpFR	9	n/a	n/a	n/a	n/a	n/a	n/a	n/a	13	6	2	5	n/a	n/a	n/a	n/a	n/a
3034120	PROB	n/a	LTP286	ltpFR	9	n/a	n/a	n/a	n/a	n/a	n/a	n/a	18	2	9	7	n/a	n/a	n/a	n/a	n/a
3036133	PROB	n/a	LTP286	ltpFR	9	n/a	n/a	n/a	n/a	n/a	n/a	n/a	10	4	5	1	n/a	n/a	n/a	n/a	n/a
3037547	PROB	n/a	LTP286	ltpFR	9	n/a	n/a	n/a	n/a	n/a	n/a	n/a	26	9	8	9	n/a	n/a	n/a	n/a	n/a
3041085	STOP	n/a	LTP286	ltpFR	9	n/a	n/a	n/a	n/a	n/a	n/a	n/a	n/a	n/a	n/a	n/a	n/a	n/a	n/a	n/a	n/a
3044172	REC_START	n/a	LTP286	ltpFR	9	11	n/a	n/a	n/a	n/a	n/a	n/a	n/a	0	0	0	n/a	n/a	n/a	n/a	n/a
3046555	REC_WORD	wordpools/wasnorm_wordpool_less_exclusions.txt	LTP286	ltpFR	9	11	0	STAR	1373	n/a	n/a	1	n/a	0	0	0	n/a	n/a	n/a	n/a	n/a
3048067	REC_WORD	wordpools/wasnorm_wordpool_less_exclusions.txt	LTP286	ltpFR	9	11	0	CLOUD	328	n/a	n/a	1	n/a	0	0	0	n/a	n/a	n/a	n/a	n/a
3049687	REC_WORD	wordpools/wasnorm_wordpool_less_exclusions.txt	LTP286	ltpFR	9	11	0	TRIBE	1505	n/a	n/a	1	n/a	0	0	0	n/a	n/a	n/a	n/a	n/a
3051168	REC_WORD	wordpools/wasnorm_wordpool_less_exclusions.txt	LTP286	ltpFR	9	11	0	CITIZEN	312	n/a	n/a	1	n/a	0	0	0	n/a	n/a	n/a	n/a	n/a
3052983	REC_WORD	wordpools/wasnorm_wordpool_less_exclusions.txt	LTP286	ltpFR	9	11	0	WARRIOR	1589	n/a	n/a	1	n/a	0	0	0	n/a	n/a	n/a	n/a	n/a
3054519	REC_WORD	wordpools/wasnorm_wordpool_less_exclusions.txt	LTP286	ltpFR	9	11	0	SOFA	1342	n/a	n/a	1	n/a	0	0	0	n/a	n/a	n/a	n/a	n/a
