onset	duration	trial_type	sample	stim_file	subject	experiment	session	trial	task	item_name	item_num	recog_resp	recog_conf	resp	color_r	color_g	color_b	case	font
223.656	n/a	SESS_START	111828	n/a	LTP098	ltpFR	14	n/a	n/a	n/a	n/a	1	5	n/a	n/a	n/a	n/a	n/a	n/a
267.412	n/a	WORD	133706	wordpools/wasnorm_wordpool.txt	LTP098	ltpFR	14	1	0	SALAD	1224	1	5	0	0.422607421875	0.5869140625	0	lower	amplitud.ttf
271.512	n/a	WORD	135756	wordpools/wasnorm_wordpool.txt	LTP098	ltpFR	14	1	0	HINGE	709	1	n/a	0	0.422607421875	0.5869140625	0	lower	amplitud.ttf
275.662	n/a	WORD	137831	wordpools/wasnorm_wordpool.txt	LTP098	ltpFR	14	1	1	RIVER	1194	n/a	n/a	0	0.57763671875	0.412841796875	1	upper	zerothre.ttf
279.538	n/a	WORD	139769	wordpools/wasnorm_wordpool.txt	LTP098	ltpFR	14	1	1	LEG	809	n/a	n/a	1	0.57763671875	0.412841796875	1	upper	zerothre.ttf
283.412	n/a	WORD	141706	wordpools/wasnorm_wordpool.txt	LTP098	ltpFR	14	1	1	RECIPE	1175	n/a	n/a	0	0.57763671875	0.412841796875	1	upper	zerothre.ttf
287.612	n/a	WORD	143806	wordpools/wasnorm_wordpool.txt	LTP098	ltpFR	14	1	1	CANARY	227	n/a	n/a	1	0.57763671875	0.412841796875	1	upper	zerothre.ttf
291.712	n/a	WORD	145856	wordpools/wasnorm_wordpool.txt	LTP098	ltpFR	14	1	0	ASTEROID	50	n/a	n/a	1	0.422607421875	0.5869140625	0	lower	amplitud.ttf
295.67	n/a	WORD	147835	wordpools/wasnorm_wordpool.txt	LTP098	ltpFR	14	1	0	MOON	914	n/a	n/a	1	0.422607421875	0.5869140625	0	lower	amplitud.ttf
299.872	n/a	WORD	149936	wordpools/wasnorm_wordpool.txt	LTP098	ltpFR	14	1	0	VICTIM	1562	n/a	n/a	1	0.422607421875	0.5869140625	0	lower	amplitud.ttf
303.912	n/a	WORD	151956	wordpools/wasnorm_wordpool.txt	LTP098	ltpFR	14	1	0	TOMB	1477	n/a	n/a	1	0.422607421875	0.5869140625	0	lower	amplitud.ttf
307.996	n/a	WORD	153998	wordpools/wasnorm_wordpool.txt	LTP098	ltpFR	14	1	1	GANG	619	n/a	n/a	0	0.57763671875	0.412841796875	1	upper	zerothre.ttf
311.828	n/a	WORD	155914	wordpools/wasnorm_wordpool.txt	LTP098	ltpFR	14	1	1	CORN	381	n/a	n/a	1	0.57763671875	0.412841796875	1	upper	zerothre.ttf
315.728	n/a	WORD	157864	wordpools/wasnorm_wordpool.txt	LTP098	ltpFR	14	1	1	WRIST	1626	n/a	n/a	1	0.57763671875	0.412841796875	1	upper	zerothre.ttf
319.554	n/a	WORD	159777	wordpools/wasnorm_wordpool.txt	LTP098	ltpFR	14	1	1	QUAIL	1147	n/a	n/a	1	0.57763671875	0.412841796875	1	upper	zerothre.ttf
323.744	n/a	WORD	161872	wordpools/wasnorm_wordpool.txt	LTP098	ltpFR	14	1	0	CUSTOMER	430	n/a	n/a	1	0.422607421875	0.5869140625	0	lower	amplitud.ttf
327.81	n/a	WORD	163905	wordpools/wasnorm_wordpool.txt	LTP098	ltpFR	14	1	0	OWNER	993	n/a	n/a	1	0.422607421875	0.5869140625	0	lower	amplitud.ttf
333.588	n/a	REC_START	166794	n/a	LTP098	ltpFR	14	1	n/a	n/a	n/a	n/a	n/a	n/a	n/a	n/a	n/a	n/a	n/a
334.788	n/a	REC_WORD	167394	wordpools/wasnorm_wordpool.txt	LTP098	ltpFR	14	1	1	WRIST	1626	n/a	n/a	1	n/a	n/a	n/a	n/a	n/a
335.538	n/a	REC_WORD	167769	wordpools/wasnorm_wordpool.txt	LTP098	ltpFR	14	1	1	QUAIL	1147	n/a	n/a	1	n/a	n/a	n/a	n/a	n/a
336.306	n/a	REC_WORD	168153	wordpools/wasnorm_wordpool.txt	LTP098	ltpFR	14	1	0	CUSTOMER	430	n/a	n/a	1	n/a	n/a	n/a	n/a	n/a
337.18	n/a	REC_WORD	168590	wordpools/wasnorm_wordpool.txt	LTP098	ltpFR	14	1	0	OWNER	993	n/a	n/a	1	n/a	n/a	n/a	n/a	n/a
338.442	n/a	REC_WORD	169221	wordpools/wasnorm_wordpool.txt	LTP098	ltpFR	14	1	1	CANARY	227	n/a	n/a	1	n/a	n/a	n/a	n/a	n/a
339.35	n/a	REC_WORD	169675	wordpools/wasnorm_wordpool.txt	LTP098	ltpFR	14	1	0	MOON	914	n/a	n/a	1	n/a	n/a	n/a	n/a	n/a
340.108	n/a	REC_WORD	170054	wordpools/wasnorm_wordpool.txt	LTP098	ltpFR	14	1	0	ASTEROID	50	n/a	n/a	1	n/a	n/a	n/a	n/a	n/a
341.44	n/a	REC_WORD	170720	wordpools/wasnorm_wordpool.txt	LTP098	ltpFR	14	1	0	SALAD	1224	n/a	n/a	0	n/a	n/a	n/a	n/a	n/a
343.06	n/a	REC_WORD	171530	wordpools/wasnorm_wordpool.txt	LTP098	ltpFR	14	1	1	LEG	809	n/a	n/a	1	n/a	n/a	n/a	n/a	n/a
343.71	n/a	REC_WORD	171855	wordpools/wasnorm_wordpool.txt	LTP098	ltpFR	14	1	1	RIVER	1194	n/a	n/a	0	n/a	n/a	n/a	n/a	n/a
344.872	n/a	REC_WORD	172436	wordpools/wasnorm_wordpool.txt	LTP098	ltpFR	14	1	0	HINGE	709	n/a	n/a	0	n/a	n/a	n/a	n/a	n/a
347.64	n/a	REC_WORD	173820	wordpools/wasnorm_wordpool.txt	LTP098	ltpFR	14	1	1	GANG	619	n/a	n/a	0	n/a	n/a	n/a	n/a	n/a
412.186	n/a	WORD	206093	wordpools/wasnorm_wordpool.txt	LTP098	ltpFR	14	2	1	MOTHER	921	n/a	n/a	1	0.57763671875	0.412841796875	1	upper	zerothre.ttf
416.302	n/a	WORD	208151	wordpools/wasnorm_wordpool.txt	LTP098	ltpFR	14	2	1	FREEWAY	603	n/a	n/a	0	0.57763671875	0.412841796875	1	upper	zerothre.ttf
420.476	n/a	WORD	210238	wordpools/wasnorm_wordpool.txt	LTP098	ltpFR	14	2	1	ONION	977	n/a	n/a	1	0.57763671875	0.412841796875	1	upper	zerothre.ttf
424.36	n/a	WORD	212180	wordpools/wasnorm_wordpool.txt	LTP098	ltpFR	14	2	1	BULL	193	n/a	n/a	1	0.57763671875	0.412841796875	1	upper	zerothre.ttf
428.252	n/a	WORD	214126	wordpools/wasnorm_wordpool.txt	LTP098	ltpFR	14	2	0	LIBRARY	816	n/a	n/a	1	0.422607421875	0.5869140625	0	lower	amplitud.ttf
432.352	n/a	WORD	216176	wordpools/wasnorm_wordpool.txt	LTP098	ltpFR	14	2	0	WAGON	1578	n/a	n/a	1	0.422607421875	0.5869140625	0	lower	amplitud.ttf
436.284	n/a	WORD	218142	wordpools/wasnorm_wordpool.txt	LTP098	ltpFR	14	2	1	CAKE	219	n/a	n/a	0	0.57763671875	0.412841796875	1	upper	zerothre.ttf
440.268	n/a	WORD	220134	wordpools/wasnorm_wordpool.txt	LTP098	ltpFR	14	2	1	PIE	1062	n/a	n/a	0	0.57763671875	0.412841796875	1	upper	zerothre.ttf
444.432	n/a	WORD	222216	wordpools/wasnorm_wordpool.txt	LTP098	ltpFR	14	2	0	DASHBOARD	441	n/a	n/a	1	0.422607421875	0.5869140625	0	lower	amplitud.ttf
448.252	n/a	WORD	224126	wordpools/wasnorm_wordpool.txt	LTP098	ltpFR	14	2	0	PISTON	1076	n/a	n/a	0	0.422607421875	0.5869140625	0	lower	amplitud.ttf
452.318	n/a	WORD	226159	wordpools/wasnorm_wordpool.txt	LTP098	ltpFR	14	2	0	MANAGER	863	n/a	n/a	1	0.422607421875	0.5869140625	0	lower	amplitud.ttf
456.508	n/a	WORD	228254	wordpools/wasnorm_wordpool.txt	LTP098	ltpFR	14	2	0	FATHER	554	n/a	n/a	1	0.422607421875	0.5869140625	0	lower	amplitud.ttf
460.7	n/a	WORD	230350	wordpools/wasnorm_wordpool.txt	LTP098	ltpFR	14	2	0	GOAT	644	n/a	n/a	1	0.422607421875	0.5869140625	0	lower	amplitud.ttf
464.516	n/a	WORD	232258	wordpools/wasnorm_wordpool.txt	LTP098	ltpFR	14	2	0	SECRETARY	1265	n/a	n/a	1	0.422607421875	0.5869140625	0	lower	amplitud.ttf
468.708	n/a	WORD	234354	wordpools/wasnorm_wordpool.txt	LTP098	ltpFR	14	2	1	ANKLE	24	n/a	n/a	1	0.57763671875	0.412841796875	1	upper	zerothre.ttf
472.7	n/a	WORD	236350	wordpools/wasnorm_wordpool.txt	LTP098	ltpFR	14	2	1	SLEEVE	1324	n/a	n/a	0	0.57763671875	0.412841796875	1	upper	zerothre.ttf
478.632	n/a	REC_START	239316	n/a	LTP098	ltpFR	14	2	n/a	n/a	n/a	n/a	n/a	n/a	n/a	n/a	n/a	n/a	n/a
479.63	n/a	REC_WORD	239815	wordpools/wasnorm_wordpool.txt	LTP098	ltpFR	14	2	0	GOAT	644	n/a	n/a	1	n/a	n/a	n/a	n/a	n/a
480.054	n/a	REC_WORD	240027	wordpools/wasnorm_wordpool.txt	LTP098	ltpFR	14	2	0	SECRETARY	1265	n/a	n/a	1	n/a	n/a	n/a	n/a	n/a
481.032	n/a	REC_WORD	240516	wordpools/wasnorm_wordpool.txt	LTP098	ltpFR	14	2	1	ANKLE	24	n/a	n/a	1	n/a	n/a	n/a	n/a	n/a
481.612	n/a	REC_WORD	240806	wordpools/wasnorm_wordpool.txt	LTP098	ltpFR	14	2	1	SLEEVE	1324	n/a	n/a	0	n/a	n/a	n/a	n/a	n/a
482.852	n/a	REC_WORD	241426	wordpools/wasnorm_wordpool.txt	LTP098	ltpFR	14	2	1	MOTHER	921	n/a	n/a	1	n/a	n/a	n/a	n/a	n/a
483.646	n/a	REC_WORD	241823	wordpools/wasnorm_wordpool.txt	LTP098	ltpFR	14	2	0	FATHER	554	n/a	n/a	1	n/a	n/a	n/a	n/a	n/a
485.358	n/a	REC_WORD	242679	wordpools/wasnorm_wordpool.txt	LTP098	ltpFR	14	2	1	BULL	193	n/a	n/a	1	n/a	n/a	n/a	n/a	n/a
486.48	n/a	REC_WORD	243240	wordpools/wasnorm_wordpool.txt	LTP098	ltpFR	14	2	1	FREEWAY	603	n/a	n/a	0	n/a	n/a	n/a	n/a	n/a
487.592	n/a	REC_WORD	243796	wordpools/wasnorm_wordpool.txt	LTP098	ltpFR	14	2	1	ONION	977	n/a	n/a	1	n/a	n/a	n/a	n/a	n/a
488.716	n/a	REC_WORD	244358	wordpools/wasnorm_wordpool.txt	LTP098	ltpFR	14	2	0	DASHBOARD	441	n/a	n/a	1	n/a	n/a	n/a	n/a	n/a
495.426	n/a	REC_WORD	247713	wordpools/wasnorm_wordpool.txt	LTP098	ltpFR	14	2	1	ANKLE	24	n/a	n/a	1	n/a	n/a	n/a	n/a	n/a
520.016	n/a	REC_WORD	260008	wordpools/wasnorm_wordpool.txt	LTP098	ltpFR	14	2	0	PISTON	1076	n/a	n/a	0	n/a	n/a	n/a	n/a	n/a
557.68	n/a	WORD	278840	wordpools/wasnorm_wordpool.txt	LTP098	ltpFR	14	3	1	SLIDE	1326	n/a	n/a	0	0.57763671875	0.412841796875	1	upper	zerothre.ttf
561.722	n/a	WORD	280861	wordpools/wasnorm_wordpool.txt	LTP098	ltpFR	14	3	1	POSSUM	1112	n/a	n/a	1	0.57763671875	0.412841796875	1	upper	zerothre.ttf
565.874	n/a	WORD	282937	wordpools/wasnorm_wordpool.txt	LTP098	ltpFR	14	3	1	MOOSE	915	n/a	n/a	1	0.57763671875	0.412841796875	1	upper	zerothre.ttf
569.78	n/a	WORD	284890	wordpools/wasnorm_wordpool.txt	LTP098	ltpFR	14	3	1	FARM	552	n/a	n/a	0	0.57763671875	0.412841796875	1	upper	zerothre.ttf
573.664	n/a	WORD	286832	wordpools/wasnorm_wordpool.txt	LTP098	ltpFR	14	3	0	VAULT	1550	n/a	n/a	1	0.422607421875	0.5869140625	0	lower	amplitud.ttf
577.622	n/a	WORD	288811	wordpools/wasnorm_wordpool.txt	LTP098	ltpFR	14	3	0	EUROPE	541	n/a	n/a	1	0.422607421875	0.5869140625	0	lower	amplitud.ttf
581.688	n/a	WORD	290844	wordpools/wasnorm_wordpool.txt	LTP098	ltpFR	14	3	0	GEM	629	n/a	n/a	0	0.422607421875	0.5869140625	0	lower	amplitud.ttf
585.738	n/a	WORD	292869	wordpools/wasnorm_wordpool.txt	LTP098	ltpFR	14	3	0	ASIA	46	n/a	n/a	1	0.422607421875	0.5869140625	0	lower	amplitud.ttf
589.762	n/a	WORD	294881	wordpools/wasnorm_wordpool.txt	LTP098	ltpFR	14	3	0	PORCUPINE	1107	n/a	n/a	1	0.422607421875	0.5869140625	0	lower	amplitud.ttf
593.654	n/a	WORD	296827	wordpools/wasnorm_wordpool.txt	LTP098	ltpFR	14	3	1	CASHEW	253	n/a	n/a	0	0.57763671875	0.412841796875	1	upper	zerothre.ttf
597.646	n/a	WORD	298823	wordpools/wasnorm_wordpool.txt	LTP098	ltpFR	14	3	1	BOLT	146	n/a	n/a	0	0.57763671875	0.412841796875	1	upper	zerothre.ttf
601.738	n/a	WORD	300869	wordpools/wasnorm_wordpool.txt	LTP098	ltpFR	14	3	0	PIER	1063	n/a	n/a	1	0.422607421875	0.5869140625	0	lower	amplitud.ttf
605.812	n/a	WORD	302906	wordpools/wasnorm_wordpool.txt	LTP098	ltpFR	14	3	0	CONTRACTOR	369	n/a	n/a	1	0.422607421875	0.5869140625	0	lower	amplitud.ttf
609.888	n/a	WORD	304944	wordpools/wasnorm_wordpool.txt	LTP098	ltpFR	14	3	0	MANSION	864	n/a	n/a	1	0.422607421875	0.5869140625	0	lower	amplitud.ttf
613.72	n/a	WORD	306860	wordpools/wasnorm_wordpool.txt	LTP098	ltpFR	14	3	1	OTTER	986	n/a	n/a	1	0.57763671875	0.412841796875	1	upper	zerothre.ttf
617.828	n/a	WORD	308914	wordpools/wasnorm_wordpool.txt	LTP098	ltpFR	14	3	1	DIME	466	n/a	n/a	0	0.57763671875	0.412841796875	1	upper	zerothre.ttf
623.496	n/a	REC_START	311748	n/a	LTP098	ltpFR	14	3	n/a	n/a	n/a	n/a	n/a	n/a	n/a	n/a	n/a	n/a	n/a
624.204	n/a	REC_WORD	312102	wordpools/wasnorm_wordpool.txt	LTP098	ltpFR	14	3	1	CASHEW	253	n/a	n/a	0	n/a	n/a	n/a	n/a	n/a
625.148	n/a	REC_WORD	312574	wordpools/wasnorm_wordpool.txt	LTP098	ltpFR	14	3	1	BOLT	146	n/a	n/a	0	n/a	n/a	n/a	n/a	n/a
625.916	n/a	REC_WORD	312958	wordpools/wasnorm_wordpool.txt	LTP098	ltpFR	14	3	0	PIER	1063	n/a	n/a	1	n/a	n/a	n/a	n/a	n/a
626.888	n/a	REC_WORD	313444	wordpools/wasnorm_wordpool.txt	LTP098	ltpFR	14	3	0	CONTRACTOR	369	n/a	n/a	1	n/a	n/a	n/a	n/a	n/a
627.96	n/a	REC_WORD	313980	wordpools/wasnorm_wordpool.txt	LTP098	ltpFR	14	3	1	DIME	466	n/a	n/a	0	n/a	n/a	n/a	n/a	n/a
629.068	n/a	REC_WORD	314534	wordpools/wasnorm_wordpool.txt	LTP098	ltpFR	14	3	1	POSSUM	1112	n/a	n/a	1	n/a	n/a	n/a	n/a	n/a
630.076	n/a	REC_WORD	315038	wordpools/wasnorm_wordpool.txt	LTP098	ltpFR	14	3	1	MOOSE	915	n/a	n/a	1	n/a	n/a	n/a	n/a	n/a
631.194	n/a	REC_WORD	315597	wordpools/wasnorm_wordpool.txt	LTP098	ltpFR	14	3	1	OTTER	986	n/a	n/a	1	n/a	n/a	n/a	n/a	n/a
633.05	n/a	REC_WORD	316525	wordpools/wasnorm_wordpool.txt	LTP098	ltpFR	14	3	1	SLIDE	1326	n/a	n/a	0	n/a	n/a	n/a	n/a	n/a
634.466	n/a	REC_WORD	317233	wordpools/wasnorm_wordpool.txt	LTP098	ltpFR	14	3	0	VAULT	1550	n/a	n/a	1	n/a	n/a	n/a	n/a	n/a
635.374	n/a	REC_WORD	317687	wordpools/wasnorm_wordpool.txt	LTP098	ltpFR	14	3	0	GEM	629	n/a	n/a	0	n/a	n/a	n/a	n/a	n/a
636.632	n/a	REC_WORD	318316	wordpools/wasnorm_wordpool.txt	LTP098	ltpFR	14	3	0	MANSION	864	n/a	n/a	1	n/a	n/a	n/a	n/a	n/a
637.64	n/a	REC_WORD	318820	wordpools/wasnorm_wordpool.txt	LTP098	ltpFR	14	3	0	EUROPE	541	n/a	n/a	1	n/a	n/a	n/a	n/a	n/a
638.632	n/a	REC_WORD	319316	wordpools/wasnorm_wordpool.txt	LTP098	ltpFR	14	3	0	ASIA	46	n/a	n/a	1	n/a	n/a	n/a	n/a	n/a
640.892	n/a	REC_WORD	320446	wordpools/wasnorm_wordpool.txt	LTP098	ltpFR	14	3	1	FARM	552	n/a	n/a	0	n/a	n/a	n/a	n/a	n/a
875.572	n/a	WORD	437786	wordpools/wasnorm_wordpool.txt	LTP098	ltpFR	14	4	-1	DINER	467	n/a	n/a	-1	1.0	1.0	1	upper	Verdana.ttf
879.714	n/a	WORD	439857	wordpools/wasnorm_wordpool.txt	LTP098	ltpFR	14	4	-1	APRON	35	n/a	n/a	-1	1.0	1.0	1	upper	Verdana.ttf
883.814	n/a	WORD	441907	wordpools/wasnorm_wordpool.txt	LTP098	ltpFR	14	4	-1	RUM	1217	n/a	n/a	-1	1.0	1.0	1	upper	Verdana.ttf
887.956	n/a	WORD	443978	wordpools/wasnorm_wordpool.txt	LTP098	ltpFR	14	4	-1	BEAVER	109	n/a	n/a	-1	1.0	1.0	1	upper	Verdana.ttf
892.124	n/a	WORD	446062	wordpools/wasnorm_wordpool.txt	LTP098	ltpFR	14	4	-1	CONVICT	371	n/a	n/a	-1	1.0	1.0	1	upper	Verdana.ttf
896.056	n/a	WORD	448028	wordpools/wasnorm_wordpool.txt	LTP098	ltpFR	14	4	-1	PRISONER	1128	n/a	n/a	-1	1.0	1.0	1	upper	Verdana.ttf
899.88	n/a	WORD	449940	wordpools/wasnorm_wordpool.txt	LTP098	ltpFR	14	4	-1	STONE	1385	n/a	n/a	-1	1.0	1.0	1	upper	Verdana.ttf
903.872	n/a	WORD	451936	wordpools/wasnorm_wordpool.txt	LTP098	ltpFR	14	4	-1	TIMBER	1469	n/a	n/a	-1	1.0	1.0	1	upper	Verdana.ttf
907.746	n/a	WORD	453873	wordpools/wasnorm_wordpool.txt	LTP098	ltpFR	14	4	-1	CHEF	290	n/a	n/a	-1	1.0	1.0	1	upper	Verdana.ttf
911.564	n/a	WORD	455782	wordpools/wasnorm_wordpool.txt	LTP098	ltpFR	14	4	-1	LION	827	n/a	n/a	-1	1.0	1.0	1	upper	Verdana.ttf
915.764	n/a	WORD	457882	wordpools/wasnorm_wordpool.txt	LTP098	ltpFR	14	4	-1	BEAST	108	n/a	n/a	-1	1.0	1.0	1	upper	Verdana.ttf
919.82	n/a	WORD	459910	wordpools/wasnorm_wordpool.txt	LTP098	ltpFR	14	4	-1	MUFFIN	929	n/a	n/a	-1	1.0	1.0	1	upper	Verdana.ttf
923.638	n/a	WORD	461819	wordpools/wasnorm_wordpool.txt	LTP098	ltpFR	14	4	-1	SODA	1341	n/a	n/a	-1	1.0	1.0	1	upper	Verdana.ttf
927.696	n/a	WORD	463848	wordpools/wasnorm_wordpool.txt	LTP098	ltpFR	14	4	-1	BANANA	77	n/a	n/a	-1	1.0	1.0	1	upper	Verdana.ttf
931.638	n/a	WORD	465819	wordpools/wasnorm_wordpool.txt	LTP098	ltpFR	14	4	-1	DILL	465	n/a	n/a	-1	1.0	1.0	1	upper	Verdana.ttf
935.538	n/a	WORD	467769	wordpools/wasnorm_wordpool.txt	LTP098	ltpFR	14	4	-1	ORCHID	982	n/a	n/a	-1	1.0	1.0	1	upper	Verdana.ttf
941.264	n/a	REC_START	470632	n/a	LTP098	ltpFR	14	4	n/a	n/a	n/a	n/a	n/a	n/a	n/a	n/a	n/a	n/a	n/a
942.212	n/a	REC_WORD	471106	wordpools/wasnorm_wordpool.txt	LTP098	ltpFR	14	4	-1	ORCHID	982	n/a	n/a	-1	n/a	n/a	n/a	n/a	n/a
943.508	n/a	REC_WORD	471754	wordpools/wasnorm_wordpool.txt	LTP098	ltpFR	14	4	-1	MUFFIN	929	n/a	n/a	-1	n/a	n/a	n/a	n/a	n/a
944.586	n/a	REC_WORD	472293	wordpools/wasnorm_wordpool.txt	LTP098	ltpFR	14	4	-1	RUM	1217	n/a	n/a	-1	n/a	n/a	n/a	n/a	n/a
945.774	n/a	REC_WORD	472887	wordpools/wasnorm_wordpool.txt	LTP098	ltpFR	14	4	-1	SODA	1341	n/a	n/a	-1	n/a	n/a	n/a	n/a	n/a
946.96	n/a	REC_WORD	473480	wordpools/wasnorm_wordpool.txt	LTP098	ltpFR	14	4	-1	BANANA	77	n/a	n/a	-1	n/a	n/a	n/a	n/a	n/a
949.282	n/a	REC_WORD	474641	wordpools/wasnorm_wordpool.txt	LTP098	ltpFR	14	4	-1	TIMBER	1469	n/a	n/a	-1	n/a	n/a	n/a	n/a	n/a
950.164	n/a	REC_WORD	475082	wordpools/wasnorm_wordpool.txt	LTP098	ltpFR	14	4	-1	STONE	1385	n/a	n/a	-1	n/a	n/a	n/a	n/a	n/a
951.486	n/a	REC_WORD	475743	wordpools/wasnorm_wordpool.txt	LTP098	ltpFR	14	4	-1	LION	827	n/a	n/a	-1	n/a	n/a	n/a	n/a	n/a
952.744	n/a	REC_WORD	476372	wordpools/wasnorm_wordpool.txt	LTP098	ltpFR	14	4	-1	BEAST	108	n/a	n/a	-1	n/a	n/a	n/a	n/a	n/a
953.81	n/a	REC_WORD	476905	wordpools/wasnorm_wordpool.txt	LTP098	ltpFR	14	4	-1	BEAVER	109	n/a	n/a	-1	n/a	n/a	n/a	n/a	n/a
955.328	n/a	REC_WORD	477664	wordpools/wasnorm_wordpool.txt	LTP098	ltpFR	14	4	-1	CHEF	290	n/a	n/a	-1	n/a	n/a	n/a	n/a	n/a
956.52	n/a	REC_WORD	478260	wordpools/wasnorm_wordpool.txt	LTP098	ltpFR	14	4	-1	DINER	467	n/a	n/a	-1	n/a	n/a	n/a	n/a	n/a
957.812	n/a	REC_WORD	478906	wordpools/wasnorm_wordpool.txt	LTP098	ltpFR	14	4	-1	APRON	35	n/a	n/a	-1	n/a	n/a	n/a	n/a	n/a
1086.692	n/a	WORD	543346	wordpools/wasnorm_wordpool.txt	LTP098	ltpFR	14	5	0	FACTORY	548	n/a	n/a	1	0.422607421875	0.5869140625	0	lower	amplitud.ttf
1090.526	n/a	WORD	545263	wordpools/wasnorm_wordpool.txt	LTP098	ltpFR	14	5	0	WAREHOUSE	1588	n/a	n/a	1	0.422607421875	0.5869140625	0	lower	amplitud.ttf
1094.724	n/a	WORD	547362	wordpools/wasnorm_wordpool.txt	LTP098	ltpFR	14	5	0	STAFF	1365	n/a	n/a	1	0.422607421875	0.5869140625	0	lower	amplitud.ttf
1098.918	n/a	WORD	549459	wordpools/wasnorm_wordpool.txt	LTP098	ltpFR	14	5	0	STUDENT	1395	n/a	n/a	1	0.422607421875	0.5869140625	0	lower	amplitud.ttf
1102.858	n/a	WORD	551429	wordpools/wasnorm_wordpool.txt	LTP098	ltpFR	14	5	0	CAFE	216	n/a	n/a	1	0.422607421875	0.5869140625	0	lower	amplitud.ttf
1106.952	n/a	WORD	553476	wordpools/wasnorm_wordpool.txt	LTP098	ltpFR	14	5	0	LUNG	850	n/a	n/a	0	0.422607421875	0.5869140625	0	lower	amplitud.ttf
1110.992	n/a	WORD	555496	wordpools/wasnorm_wordpool.txt	LTP098	ltpFR	14	5	0	TREAD	1499	n/a	n/a	1	0.422607421875	0.5869140625	0	lower	amplitud.ttf
1114.908	n/a	WORD	557454	wordpools/wasnorm_wordpool.txt	LTP098	ltpFR	14	5	0	COMB	351	n/a	n/a	0	0.422607421875	0.5869140625	0	lower	amplitud.ttf
1118.974	n/a	WORD	559487	wordpools/wasnorm_wordpool.txt	LTP098	ltpFR	14	5	0	BATHTUB	100	n/a	n/a	1	0.422607421875	0.5869140625	0	lower	amplitud.ttf
1122.984	n/a	WORD	561492	wordpools/wasnorm_wordpool.txt	LTP098	ltpFR	14	5	0	VILLAGE	1566	n/a	n/a	1	0.422607421875	0.5869140625	0	lower	amplitud.ttf
1126.958	n/a	WORD	563479	wordpools/wasnorm_wordpool.txt	LTP098	ltpFR	14	5	0	TANK	1432	n/a	n/a	1	0.422607421875	0.5869140625	0	lower	amplitud.ttf
1130.95	n/a	WORD	565475	wordpools/wasnorm_wordpool.txt	LTP098	ltpFR	14	5	0	HEADBAND	696	n/a	n/a	0	0.422607421875	0.5869140625	0	lower	amplitud.ttf
1134.966	n/a	WORD	567483	wordpools/wasnorm_wordpool.txt	LTP098	ltpFR	14	5	0	QUEEN	1149	n/a	n/a	1	0.422607421875	0.5869140625	0	lower	amplitud.ttf
1139.024	n/a	WORD	569512	wordpools/wasnorm_wordpool.txt	LTP098	ltpFR	14	5	0	FLESH	579	n/a	n/a	0	0.422607421875	0.5869140625	0	lower	amplitud.ttf
1143.1	n/a	WORD	571550	wordpools/wasnorm_wordpool.txt	LTP098	ltpFR	14	5	0	BEET	115	n/a	n/a	0	0.422607421875	0.5869140625	0	lower	amplitud.ttf
1147.208	n/a	WORD	573604	wordpools/wasnorm_wordpool.txt	LTP098	ltpFR	14	5	0	STREAM	1392	n/a	n/a	1	0.422607421875	0.5869140625	0	lower	amplitud.ttf
1152.958	n/a	REC_START	576479	n/a	LTP098	ltpFR	14	5	n/a	n/a	n/a	n/a	n/a	n/a	n/a	n/a	n/a	n/a	n/a
1153.572	n/a	REC_WORD	576786	wordpools/wasnorm_wordpool.txt	LTP098	ltpFR	14	5	0	BEET	115	n/a	n/a	0	n/a	n/a	n/a	n/a	n/a
1154.33	n/a	REC_WORD	577165	wordpools/wasnorm_wordpool.txt	LTP098	ltpFR	14	5	0	STREAM	1392	n/a	n/a	1	n/a	n/a	n/a	n/a	n/a
1155.772	n/a	REC_WORD	577886	wordpools/wasnorm_wordpool.txt	LTP098	ltpFR	14	5	0	COMB	351	n/a	n/a	0	n/a	n/a	n/a	n/a	n/a
1156.664	n/a	REC_WORD	578332	wordpools/wasnorm_wordpool.txt	LTP098	ltpFR	14	5	0	VILLAGE	1566	n/a	n/a	1	n/a	n/a	n/a	n/a	n/a
1157.638	n/a	REC_WORD	578819	wordpools/wasnorm_wordpool.txt	LTP098	ltpFR	14	5	0	HEADBAND	696	n/a	n/a	0	n/a	n/a	n/a	n/a	n/a
1158.79	n/a	REC_WORD	579395	wordpools/wasnorm_wordpool.txt	LTP098	ltpFR	14	5	0	QUEEN	1149	n/a	n/a	1	n/a	n/a	n/a	n/a	n/a
1159.752	n/a	REC_WORD	579876	wordpools/wasnorm_wordpool.txt	LTP098	ltpFR	14	5	0	FLESH	579	n/a	n/a	0	n/a	n/a	n/a	n/a	n/a
1160.946	n/a	REC_WORD	580473	wordpools/wasnorm_wordpool.txt	LTP098	ltpFR	14	5	0	FACTORY	548	n/a	n/a	1	n/a	n/a	n/a	n/a	n/a
1162.198	n/a	REC_WORD	581099	wordpools/wasnorm_wordpool.txt	LTP098	ltpFR	14	5	0	WAREHOUSE	1588	n/a	n/a	1	n/a	n/a	n/a	n/a	n/a
1163.23	n/a	REC_WORD	581615	wordpools/wasnorm_wordpool.txt	LTP098	ltpFR	14	5	0	STUDENT	1395	n/a	n/a	1	n/a	n/a	n/a	n/a	n/a
1164.23	n/a	REC_WORD_VV	582115	wordpools/wasnorm_wordpool.txt	LTP098	ltpFR	14	5	n/a	<>	-1	n/a	n/a	n/a	n/a	n/a	n/a	n/a	n/a
1166.972	n/a	REC_WORD	583486	wordpools/wasnorm_wordpool.txt	LTP098	ltpFR	14	5	0	STAFF	1365	n/a	n/a	1	n/a	n/a	n/a	n/a	n/a
1168.234	n/a	REC_WORD	584117	wordpools/wasnorm_wordpool.txt	LTP098	ltpFR	14	5	0	LUNG	850	n/a	n/a	0	n/a	n/a	n/a	n/a	n/a
1169.238	n/a	REC_WORD	584619	wordpools/wasnorm_wordpool.txt	LTP098	ltpFR	14	5	0	TREAD	1499	n/a	n/a	1	n/a	n/a	n/a	n/a	n/a
1213.794	n/a	REC_WORD	606897	wordpools/wasnorm_wordpool.txt	LTP098	ltpFR	14	5	0	VILLAGE	1566	n/a	n/a	1	n/a	n/a	n/a	n/a	n/a
1227.034	n/a	REC_WORD	613517	wordpools/wasnorm_wordpool.txt	LTP098	ltpFR	14	5	0	STUDENT	1395	n/a	n/a	1	n/a	n/a	n/a	n/a	n/a
1332.902	n/a	WORD	666451	wordpools/wasnorm_wordpool.txt	LTP098	ltpFR	14	6	0	PELT	1040	n/a	n/a	0	0.422607421875	0.5869140625	0	lower	amplitud.ttf
1336.87	n/a	WORD	668435	wordpools/wasnorm_wordpool.txt	LTP098	ltpFR	14	6	0	EAGLE	512	n/a	n/a	1	0.422607421875	0.5869140625	0	lower	amplitud.ttf
1340.744	n/a	WORD	670372	wordpools/wasnorm_wordpool.txt	LTP098	ltpFR	14	6	0	GARAGE	621	n/a	n/a	1	0.422607421875	0.5869140625	0	lower	amplitud.ttf
1344.602	n/a	WORD	672301	wordpools/wasnorm_wordpool.txt	LTP098	ltpFR	14	6	0	MAGAZINE	853	n/a	n/a	0	0.422607421875	0.5869140625	0	lower	amplitud.ttf
1348.494	n/a	WORD	674247	wordpools/wasnorm_wordpool.txt	LTP098	ltpFR	14	6	1	DONOR	485	n/a	n/a	1	0.57763671875	0.412841796875	1	upper	zerothre.ttf
1352.46	n/a	WORD	676230	wordpools/wasnorm_wordpool.txt	LTP098	ltpFR	14	6	1	HEART	697	n/a	n/a	1	0.57763671875	0.412841796875	1	upper	zerothre.ttf
1356.576	n/a	WORD	678288	wordpools/wasnorm_wordpool.txt	LTP098	ltpFR	14	6	1	YOKE	1632	n/a	n/a	0	0.57763671875	0.412841796875	1	upper	zerothre.ttf
1360.702	n/a	WORD	680351	wordpools/wasnorm_wordpool.txt	LTP098	ltpFR	14	6	0	NOSE	957	n/a	n/a	0	0.422607421875	0.5869140625	0	lower	amplitud.ttf
1364.892	n/a	WORD	682446	wordpools/wasnorm_wordpool.txt	LTP098	ltpFR	14	6	0	JAW	751	n/a	n/a	0	0.422607421875	0.5869140625	0	lower	amplitud.ttf
1368.784	n/a	WORD	684392	wordpools/wasnorm_wordpool.txt	LTP098	ltpFR	14	6	0	NOTEBOOK	959	n/a	n/a	0	0.422607421875	0.5869140625	0	lower	amplitud.ttf
1372.61	n/a	WORD	686305	wordpools/wasnorm_wordpool.txt	LTP098	ltpFR	14	6	0	ANTEATER	26	n/a	n/a	1	0.422607421875	0.5869140625	0	lower	amplitud.ttf
1376.568	n/a	WORD	688284	wordpools/wasnorm_wordpool.txt	LTP098	ltpFR	14	6	1	BEETLE	116	n/a	n/a	1	0.57763671875	0.412841796875	1	upper	zerothre.ttf
1380.394	n/a	WORD	690197	wordpools/wasnorm_wordpool.txt	LTP098	ltpFR	14	6	1	AUTHOR	61	n/a	n/a	1	0.57763671875	0.412841796875	1	upper	zerothre.ttf
1384.41	n/a	WORD	692205	wordpools/wasnorm_wordpool.txt	LTP098	ltpFR	14	6	1	COMMANDER	354	n/a	n/a	1	0.57763671875	0.412841796875	1	upper	zerothre.ttf
1388.484	n/a	WORD	694242	wordpools/wasnorm_wordpool.txt	LTP098	ltpFR	14	6	1	SEAGULL	1261	n/a	n/a	1	0.57763671875	0.412841796875	1	upper	zerothre.ttf
1392.378	n/a	WORD	696189	wordpools/wasnorm_wordpool.txt	LTP098	ltpFR	14	6	1	COUGAR	387	n/a	n/a	1	0.57763671875	0.412841796875	1	upper	zerothre.ttf
1398.002	n/a	REC_START	699001	n/a	LTP098	ltpFR	14	6	n/a	n/a	n/a	n/a	n/a	n/a	n/a	n/a	n/a	n/a	n/a
1398.402	n/a	REC_WORD	699201	wordpools/wasnorm_wordpool.txt	LTP098	ltpFR	14	6	1	COUGAR	387	n/a	n/a	1	n/a	n/a	n/a	n/a	n/a
1399.244	n/a	REC_WORD	699622	wordpools/wasnorm_wordpool.txt	LTP098	ltpFR	14	6	1	SEAGULL	1261	n/a	n/a	1	n/a	n/a	n/a	n/a	n/a
1400.312	n/a	REC_WORD	700156	wordpools/wasnorm_wordpool.txt	LTP098	ltpFR	14	6	1	HEART	697	n/a	n/a	1	n/a	n/a	n/a	n/a	n/a
1401.818	n/a	REC_WORD	700909	wordpools/wasnorm_wordpool.txt	LTP098	ltpFR	14	6	1	DONOR	485	n/a	n/a	1	n/a	n/a	n/a	n/a	n/a
1403.46	n/a	REC_WORD	701730	wordpools/wasnorm_wordpool.txt	LTP098	ltpFR	14	6	0	MAGAZINE	853	n/a	n/a	0	n/a	n/a	n/a	n/a	n/a
1404.614	n/a	REC_WORD	702307	wordpools/wasnorm_wordpool.txt	LTP098	ltpFR	14	6	0	GARAGE	621	n/a	n/a	1	n/a	n/a	n/a	n/a	n/a
1406.334	n/a	REC_WORD	703167	wordpools/wasnorm_wordpool.txt	LTP098	ltpFR	14	6	n/a	YOLK	1633	n/a	n/a	n/a	n/a	n/a	n/a	n/a	n/a
1435.324	n/a	REC_WORD	717662	wordpools/wasnorm_wordpool.txt	LTP098	ltpFR	14	6	0	ANTEATER	26	n/a	n/a	1	n/a	n/a	n/a	n/a	n/a
1438.976	n/a	REC_WORD	719488	wordpools/wasnorm_wordpool.txt	LTP098	ltpFR	14	6	0	MAGAZINE	853	n/a	n/a	0	n/a	n/a	n/a	n/a	n/a
1442.494	n/a	REC_WORD	721247	wordpools/wasnorm_wordpool.txt	LTP098	ltpFR	14	6	1	HEART	697	n/a	n/a	1	n/a	n/a	n/a	n/a	n/a
1443.396	n/a	REC_WORD	721698	wordpools/wasnorm_wordpool.txt	LTP098	ltpFR	14	6	1	DONOR	485	n/a	n/a	1	n/a	n/a	n/a	n/a	n/a
1476.032	n/a	WORD	738016	wordpools/wasnorm_wordpool.txt	LTP098	ltpFR	14	7	1	FRAGRANCE	599	n/a	n/a	0	0.57763671875	0.412841796875	1	upper	zerothre.ttf
1480.132	n/a	WORD	740066	wordpools/wasnorm_wordpool.txt	LTP098	ltpFR	14	7	1	SPINE	1353	n/a	n/a	1	0.57763671875	0.412841796875	1	upper	zerothre.ttf
1484.174	n/a	WORD	742087	wordpools/wasnorm_wordpool.txt	LTP098	ltpFR	14	7	1	SKI	1316	n/a	n/a	0	0.57763671875	0.412841796875	1	upper	zerothre.ttf
1488.216	n/a	WORD	744108	wordpools/wasnorm_wordpool.txt	LTP098	ltpFR	14	7	1	CONDUCTOR	362	n/a	n/a	1	0.57763671875	0.412841796875	1	upper	zerothre.ttf
1492.158	n/a	WORD	746079	wordpools/wasnorm_wordpool.txt	LTP098	ltpFR	14	7	0	DIVER	476	n/a	n/a	1	0.422607421875	0.5869140625	0	lower	amplitud.ttf
1495.99	n/a	WORD	747995	wordpools/wasnorm_wordpool.txt	LTP098	ltpFR	14	7	0	VALVE	1546	n/a	n/a	0	0.422607421875	0.5869140625	0	lower	amplitud.ttf
1500.124	n/a	WORD	750062	wordpools/wasnorm_wordpool.txt	LTP098	ltpFR	14	7	0	PIANO	1057	n/a	n/a	1	0.422607421875	0.5869140625	0	lower	amplitud.ttf
1504.132	n/a	WORD	752066	wordpools/wasnorm_wordpool.txt	LTP098	ltpFR	14	7	0	ACID	2	n/a	n/a	0	0.422607421875	0.5869140625	0	lower	amplitud.ttf
1508.274	n/a	WORD	754137	wordpools/wasnorm_wordpool.txt	LTP098	ltpFR	14	7	1	SHINGLE	1285	n/a	n/a	0	0.57763671875	0.412841796875	1	upper	zerothre.ttf
1512.416	n/a	WORD	756208	wordpools/wasnorm_wordpool.txt	LTP098	ltpFR	14	7	1	MARBLE	867	n/a	n/a	0	0.57763671875	0.412841796875	1	upper	zerothre.ttf
1516.464	n/a	WORD	758232	wordpools/wasnorm_wordpool.txt	LTP098	ltpFR	14	7	1	BULLY	196	n/a	n/a	1	0.57763671875	0.412841796875	1	upper	zerothre.ttf
1520.48	n/a	WORD	760240	wordpools/wasnorm_wordpool.txt	LTP098	ltpFR	14	7	1	CHEERLEADER	288	n/a	n/a	1	0.57763671875	0.412841796875	1	upper	zerothre.ttf
1524.298	n/a	WORD	762149	wordpools/wasnorm_wordpool.txt	LTP098	ltpFR	14	7	0	FLUTE	585	n/a	n/a	0	0.422607421875	0.5869140625	0	lower	amplitud.ttf
1528.282	n/a	WORD	764141	wordpools/wasnorm_wordpool.txt	LTP098	ltpFR	14	7	0	TRUMPET	1513	n/a	n/a	1	0.422607421875	0.5869140625	0	lower	amplitud.ttf
1532.224	n/a	WORD	766112	wordpools/wasnorm_wordpool.txt	LTP098	ltpFR	14	7	0	ASTRONAUT	51	n/a	n/a	1	0.422607421875	0.5869140625	0	lower	amplitud.ttf
1536.19	n/a	WORD	768095	wordpools/wasnorm_wordpool.txt	LTP098	ltpFR	14	7	0	AUTOMOBILE	62	n/a	n/a	1	0.422607421875	0.5869140625	0	lower	amplitud.ttf
1542.14	n/a	REC_START	771070	n/a	LTP098	ltpFR	14	7	n/a	n/a	n/a	n/a	n/a	n/a	n/a	n/a	n/a	n/a	n/a
1542.832	n/a	REC_WORD	771416	wordpools/wasnorm_wordpool.txt	LTP098	ltpFR	14	7	0	ASTRONAUT	51	n/a	n/a	1	n/a	n/a	n/a	n/a	n/a
1543.87	n/a	REC_WORD	771935	wordpools/wasnorm_wordpool.txt	LTP098	ltpFR	14	7	0	AUTOMOBILE	62	n/a	n/a	1	n/a	n/a	n/a	n/a	n/a
1545.748	n/a	REC_WORD	772874	wordpools/wasnorm_wordpool.txt	LTP098	ltpFR	14	7	0	ACID	2	n/a	n/a	0	n/a	n/a	n/a	n/a	n/a
1547.124	n/a	REC_WORD	773562	wordpools/wasnorm_wordpool.txt	LTP098	ltpFR	14	7	1	SHINGLE	1285	n/a	n/a	0	n/a	n/a	n/a	n/a	n/a
1548.91	n/a	REC_WORD	774455	wordpools/wasnorm_wordpool.txt	LTP098	ltpFR	14	7	1	SKI	1316	n/a	n/a	0	n/a	n/a	n/a	n/a	n/a
1582.844	n/a	REC_WORD	791422	wordpools/wasnorm_wordpool.txt	LTP098	ltpFR	14	7	0	ACID	2	n/a	n/a	0	n/a	n/a	n/a	n/a	n/a
1585.164	n/a	REC_WORD	792582	wordpools/wasnorm_wordpool.txt	LTP098	ltpFR	14	7	1	SHINGLE	1285	n/a	n/a	0	n/a	n/a	n/a	n/a	n/a
1681.286	n/a	WORD	840643	wordpools/wasnorm_wordpool.txt	LTP098	ltpFR	14	8	0	STALLION	1369	n/a	n/a	1	0.422607421875	0.5869140625	0	lower	amplitud.ttf
1685.344	n/a	WORD	842672	wordpools/wasnorm_wordpool.txt	LTP098	ltpFR	14	8	0	PARCEL	1012	n/a	n/a	1	0.422607421875	0.5869140625	0	lower	amplitud.ttf
1689.252	n/a	WORD	844626	wordpools/wasnorm_wordpool.txt	LTP098	ltpFR	14	8	0	FOREHEAD	592	n/a	n/a	0	0.422607421875	0.5869140625	0	lower	amplitud.ttf
1693.46	n/a	WORD	846730	wordpools/wasnorm_wordpool.txt	LTP098	ltpFR	14	8	0	HEAD	695	n/a	n/a	0	0.422607421875	0.5869140625	0	lower	amplitud.ttf
1697.36	n/a	WORD	848680	wordpools/wasnorm_wordpool.txt	LTP098	ltpFR	14	8	0	POSTAGE	1113	n/a	n/a	0	0.422607421875	0.5869140625	0	lower	amplitud.ttf
1701.42	n/a	WORD	850710	wordpools/wasnorm_wordpool.txt	LTP098	ltpFR	14	8	0	SUN	1406	n/a	n/a	1	0.422607421875	0.5869140625	0	lower	amplitud.ttf
1705.236	n/a	WORD	852618	wordpools/wasnorm_wordpool.txt	LTP098	ltpFR	14	8	0	FLORIDA	582	n/a	n/a	1	0.422607421875	0.5869140625	0	lower	amplitud.ttf
1709.336	n/a	WORD	854668	wordpools/wasnorm_wordpool.txt	LTP098	ltpFR	14	8	0	SPONGE	1355	n/a	n/a	0	0.422607421875	0.5869140625	0	lower	amplitud.ttf
1713.286	n/a	WORD	856643	wordpools/wasnorm_wordpool.txt	LTP098	ltpFR	14	8	0	MASK	876	n/a	n/a	0	0.422607421875	0.5869140625	0	lower	amplitud.ttf
1717.21	n/a	WORD	858605	wordpools/wasnorm_wordpool.txt	LTP098	ltpFR	14	8	0	FAMILY	550	n/a	n/a	1	0.422607421875	0.5869140625	0	lower	amplitud.ttf
1721.302	n/a	WORD	860651	wordpools/wasnorm_wordpool.txt	LTP098	ltpFR	14	8	0	TWIN	1528	n/a	n/a	1	0.422607421875	0.5869140625	0	lower	amplitud.ttf
1725.46	n/a	WORD	862730	wordpools/wasnorm_wordpool.txt	LTP098	ltpFR	14	8	0	VILLAIN	1567	n/a	n/a	1	0.422607421875	0.5869140625	0	lower	amplitud.ttf
1729.658	n/a	WORD	864829	wordpools/wasnorm_wordpool.txt	LTP098	ltpFR	14	8	0	PROFESSOR	1131	n/a	n/a	1	0.422607421875	0.5869140625	0	lower	amplitud.ttf
1733.634	n/a	WORD	866817	wordpools/wasnorm_wordpool.txt	LTP098	ltpFR	14	8	0	WASHCLOTH	1591	n/a	n/a	0	0.422607421875	0.5869140625	0	lower	amplitud.ttf
1737.808	n/a	WORD	868904	wordpools/wasnorm_wordpool.txt	LTP098	ltpFR	14	8	0	SNORKEL	1336	n/a	n/a	1	0.422607421875	0.5869140625	0	lower	amplitud.ttf
1741.994	n/a	WORD	870997	wordpools/wasnorm_wordpool.txt	LTP098	ltpFR	14	8	0	JET	756	n/a	n/a	1	0.422607421875	0.5869140625	0	lower	amplitud.ttf
1747.55	n/a	REC_START	873775	n/a	LTP098	ltpFR	14	8	n/a	n/a	n/a	n/a	n/a	n/a	n/a	n/a	n/a	n/a	n/a
1747.68	n/a	REC_WORD	873840	wordpools/wasnorm_wordpool.txt	LTP098	ltpFR	14	8	0	SPONGE	1355	n/a	n/a	0	n/a	n/a	n/a	n/a	n/a
1748.548	n/a	REC_WORD	874274	wordpools/wasnorm_wordpool.txt	LTP098	ltpFR	14	8	0	MASK	876	n/a	n/a	0	n/a	n/a	n/a	n/a	n/a
1749.236	n/a	REC_WORD	874618	wordpools/wasnorm_wordpool.txt	LTP098	ltpFR	14	8	0	FAMILY	550	n/a	n/a	1	n/a	n/a	n/a	n/a	n/a
1750.21	n/a	REC_WORD	875105	wordpools/wasnorm_wordpool.txt	LTP098	ltpFR	14	8	0	TWIN	1528	n/a	n/a	1	n/a	n/a	n/a	n/a	n/a
1752.006	n/a	REC_WORD	876003	wordpools/wasnorm_wordpool.txt	LTP098	ltpFR	14	8	0	JET	756	n/a	n/a	1	n/a	n/a	n/a	n/a	n/a
1752.552	n/a	REC_WORD_VV	876276	wordpools/wasnorm_wordpool.txt	LTP098	ltpFR	14	8	n/a	<>	-1	n/a	n/a	n/a	n/a	n/a	n/a	n/a	n/a
1754.914	n/a	REC_WORD	877457	wordpools/wasnorm_wordpool.txt	LTP098	ltpFR	14	8	1	SKI	1316	n/a	n/a	0	n/a	n/a	n/a	n/a	n/a
1756.524	n/a	REC_WORD	878262	wordpools/wasnorm_wordpool.txt	LTP098	ltpFR	14	8	0	VILLAIN	1567	n/a	n/a	1	n/a	n/a	n/a	n/a	n/a
1761.364	n/a	REC_WORD	880682	wordpools/wasnorm_wordpool.txt	LTP098	ltpFR	14	8	0	STALLION	1369	n/a	n/a	1	n/a	n/a	n/a	n/a	n/a
1762.782	n/a	REC_WORD	881391	wordpools/wasnorm_wordpool.txt	LTP098	ltpFR	14	8	0	HEAD	695	n/a	n/a	0	n/a	n/a	n/a	n/a	n/a
1763.82	n/a	REC_WORD	881910	wordpools/wasnorm_wordpool.txt	LTP098	ltpFR	14	8	0	FOREHEAD	592	n/a	n/a	0	n/a	n/a	n/a	n/a	n/a
1765.126	n/a	REC_WORD	882563	wordpools/wasnorm_wordpool.txt	LTP098	ltpFR	14	8	0	PARCEL	1012	n/a	n/a	1	n/a	n/a	n/a	n/a	n/a
1766.468	n/a	REC_WORD	883234	wordpools/wasnorm_wordpool.txt	LTP098	ltpFR	14	8	0	POSTAGE	1113	n/a	n/a	0	n/a	n/a	n/a	n/a	n/a
1767.596	n/a	REC_WORD	883798	wordpools/wasnorm_wordpool.txt	LTP098	ltpFR	14	8	0	SUN	1406	n/a	n/a	1	n/a	n/a	n/a	n/a	n/a
1768.768	n/a	REC_WORD	884384	wordpools/wasnorm_wordpool.txt	LTP098	ltpFR	14	8	0	FLORIDA	582	n/a	n/a	1	n/a	n/a	n/a	n/a	n/a
1772.63	n/a	REC_WORD	886315	wordpools/wasnorm_wordpool.txt	LTP098	ltpFR	14	8	0	VILLAIN	1567	n/a	n/a	1	n/a	n/a	n/a	n/a	n/a
1777.176	n/a	REC_WORD	888588	wordpools/wasnorm_wordpool.txt	LTP098	ltpFR	14	8	0	PARCEL	1012	n/a	n/a	1	n/a	n/a	n/a	n/a	n/a
1778.282	n/a	REC_WORD	889141	wordpools/wasnorm_wordpool.txt	LTP098	ltpFR	14	8	0	POSTAGE	1113	n/a	n/a	0	n/a	n/a	n/a	n/a	n/a
1836.166	n/a	WORD	918083	wordpools/wasnorm_wordpool.txt	LTP098	ltpFR	14	9	-1	ANT	25	n/a	n/a	-1	1.0	1.0	1	upper	Verdana.ttf
1840.198	n/a	WORD	920099	wordpools/wasnorm_wordpool.txt	LTP098	ltpFR	14	9	-1	STOVE	1388	n/a	n/a	-1	1.0	1.0	1	upper	Verdana.ttf
1844.306	n/a	WORD	922153	wordpools/wasnorm_wordpool.txt	LTP098	ltpFR	14	9	-1	EDITOR	516	n/a	n/a	-1	1.0	1.0	1	upper	Verdana.ttf
1848.148	n/a	WORD	924074	wordpools/wasnorm_wordpool.txt	LTP098	ltpFR	14	9	-1	EMPLOYER	532	n/a	n/a	-1	1.0	1.0	1	upper	Verdana.ttf
1852.332	n/a	WORD	926166	wordpools/wasnorm_wordpool.txt	LTP098	ltpFR	14	9	-1	PATRIOT	1026	n/a	n/a	-1	1.0	1.0	1	upper	Verdana.ttf
1856.306	n/a	WORD	928153	wordpools/wasnorm_wordpool.txt	LTP098	ltpFR	14	9	-1	MAILBOX	857	n/a	n/a	-1	1.0	1.0	1	upper	Verdana.ttf
1860.332	n/a	WORD	930166	wordpools/wasnorm_wordpool.txt	LTP098	ltpFR	14	9	-1	POLYESTER	1100	n/a	n/a	-1	1.0	1.0	1	upper	Verdana.ttf
1864.222	n/a	WORD	932111	wordpools/wasnorm_wordpool.txt	LTP098	ltpFR	14	9	-1	DENIM	446	n/a	n/a	-1	1.0	1.0	1	upper	Verdana.ttf
1868.18	n/a	WORD	934090	wordpools/wasnorm_wordpool.txt	LTP098	ltpFR	14	9	-1	FLAG	573	n/a	n/a	-1	1.0	1.0	1	upper	Verdana.ttf
1872.188	n/a	WORD	936094	wordpools/wasnorm_wordpool.txt	LTP098	ltpFR	14	9	-1	DOCUMENT	479	n/a	n/a	-1	1.0	1.0	1	upper	Verdana.ttf
1876.09	n/a	WORD	938045	wordpools/wasnorm_wordpool.txt	LTP098	ltpFR	14	9	-1	APPLE	33	n/a	n/a	-1	1.0	1.0	1	upper	Verdana.ttf
1880.114	n/a	WORD	940057	wordpools/wasnorm_wordpool.txt	LTP098	ltpFR	14	9	-1	DICTATOR	462	n/a	n/a	-1	1.0	1.0	1	upper	Verdana.ttf
1884.072	n/a	WORD	942036	wordpools/wasnorm_wordpool.txt	LTP098	ltpFR	14	9	-1	JEEP	753	n/a	n/a	-1	1.0	1.0	1	upper	Verdana.ttf
1888.272	n/a	WORD	944136	wordpools/wasnorm_wordpool.txt	LTP098	ltpFR	14	9	-1	WHEEL	1603	n/a	n/a	-1	1.0	1.0	1	upper	Verdana.ttf
1892.272	n/a	WORD	946136	wordpools/wasnorm_wordpool.txt	LTP098	ltpFR	14	9	-1	MOUTH	926	n/a	n/a	-1	1.0	1.0	1	upper	Verdana.ttf
1896.34	n/a	WORD	948170	wordpools/wasnorm_wordpool.txt	LTP098	ltpFR	14	9	-1	LIPSTICK	829	n/a	n/a	-1	1.0	1.0	1	upper	Verdana.ttf
1902.406	n/a	REC_START	951203	n/a	LTP098	ltpFR	14	9	n/a	n/a	n/a	n/a	n/a	n/a	n/a	n/a	n/a	n/a	n/a
1903.03	n/a	REC_WORD	951515	wordpools/wasnorm_wordpool.txt	LTP098	ltpFR	14	9	-1	DICTATOR	462	n/a	n/a	-1	n/a	n/a	n/a	n/a	n/a
1903.822	n/a	REC_WORD	951911	wordpools/wasnorm_wordpool.txt	LTP098	ltpFR	14	9	-1	JEEP	753	n/a	n/a	-1	n/a	n/a	n/a	n/a	n/a
1904.776	n/a	REC_WORD	952388	wordpools/wasnorm_wordpool.txt	LTP098	ltpFR	14	9	-1	WHEEL	1603	n/a	n/a	-1	n/a	n/a	n/a	n/a	n/a
1905.644	n/a	REC_WORD	952822	wordpools/wasnorm_wordpool.txt	LTP098	ltpFR	14	9	-1	MOUTH	926	n/a	n/a	-1	n/a	n/a	n/a	n/a	n/a
1906.556	n/a	REC_WORD	953278	wordpools/wasnorm_wordpool.txt	LTP098	ltpFR	14	9	-1	LIPSTICK	829	n/a	n/a	-1	n/a	n/a	n/a	n/a	n/a
1908.528	n/a	REC_WORD	954264	wordpools/wasnorm_wordpool.txt	LTP098	ltpFR	14	9	-1	EDITOR	516	n/a	n/a	-1	n/a	n/a	n/a	n/a	n/a
1909.94	n/a	REC_WORD	954970	wordpools/wasnorm_wordpool.txt	LTP098	ltpFR	14	9	-1	EMPLOYER	532	n/a	n/a	-1	n/a	n/a	n/a	n/a	n/a
1911.272	n/a	REC_WORD	955636	wordpools/wasnorm_wordpool.txt	LTP098	ltpFR	14	9	-1	MAILBOX	857	n/a	n/a	-1	n/a	n/a	n/a	n/a	n/a
1913.966	n/a	REC_WORD	956983	wordpools/wasnorm_wordpool.txt	LTP098	ltpFR	14	9	-1	DENIM	446	n/a	n/a	-1	n/a	n/a	n/a	n/a	n/a
1914.864	n/a	REC_WORD	957432	wordpools/wasnorm_wordpool.txt	LTP098	ltpFR	14	9	-1	POLYESTER	1100	n/a	n/a	-1	n/a	n/a	n/a	n/a	n/a
1917.692	n/a	REC_WORD	958846	wordpools/wasnorm_wordpool.txt	LTP098	ltpFR	14	9	-1	ANT	25	n/a	n/a	-1	n/a	n/a	n/a	n/a	n/a
1919.07	n/a	REC_WORD	959535	wordpools/wasnorm_wordpool.txt	LTP098	ltpFR	14	9	-1	STOVE	1388	n/a	n/a	-1	n/a	n/a	n/a	n/a	n/a
1922.132	n/a	REC_WORD	961066	wordpools/wasnorm_wordpool.txt	LTP098	ltpFR	14	9	-1	APPLE	33	n/a	n/a	-1	n/a	n/a	n/a	n/a	n/a
1923.244	n/a	REC_WORD	961622	wordpools/wasnorm_wordpool.txt	LTP098	ltpFR	14	9	-1	DOCUMENT	479	n/a	n/a	-1	n/a	n/a	n/a	n/a	n/a
1935.534	n/a	REC_WORD	967767	wordpools/wasnorm_wordpool.txt	LTP098	ltpFR	14	9	-1	APPLE	33	n/a	n/a	-1	n/a	n/a	n/a	n/a	n/a
1936.55	n/a	REC_WORD	968275	wordpools/wasnorm_wordpool.txt	LTP098	ltpFR	14	9	-1	DOCUMENT	479	n/a	n/a	-1	n/a	n/a	n/a	n/a	n/a
1944.458	n/a	REC_WORD	972229	wordpools/wasnorm_wordpool.txt	LTP098	ltpFR	14	9	-1	DICTATOR	462	n/a	n/a	-1	n/a	n/a	n/a	n/a	n/a
1945.526	n/a	REC_WORD	972763	wordpools/wasnorm_wordpool.txt	LTP098	ltpFR	14	9	-1	EMPLOYER	532	n/a	n/a	-1	n/a	n/a	n/a	n/a	n/a
1980.902	n/a	WORD	990451	wordpools/wasnorm_wordpool.txt	LTP098	ltpFR	14	10	-1	MICROWAVE	892	n/a	n/a	-1	1.0	1.0	1	upper	Verdana.ttf
1984.878	n/a	WORD	992439	wordpools/wasnorm_wordpool.txt	LTP098	ltpFR	14	10	-1	CABBAGE	210	n/a	n/a	-1	1.0	1.0	1	upper	Verdana.ttf
1988.986	n/a	WORD	994493	wordpools/wasnorm_wordpool.txt	LTP098	ltpFR	14	10	-1	BONE	148	n/a	n/a	-1	1.0	1.0	1	upper	Verdana.ttf
1993.02	n/a	WORD	996510	wordpools/wasnorm_wordpool.txt	LTP098	ltpFR	14	10	-1	PAW	1029	n/a	n/a	-1	1.0	1.0	1	upper	Verdana.ttf
1997.12	n/a	WORD	998560	wordpools/wasnorm_wordpool.txt	LTP098	ltpFR	14	10	-1	HEDGE	699	n/a	n/a	-1	1.0	1.0	1	upper	Verdana.ttf
2001.278	n/a	WORD	1000639	wordpools/wasnorm_wordpool.txt	LTP098	ltpFR	14	10	-1	SAP	1233	n/a	n/a	-1	1.0	1.0	1	upper	Verdana.ttf
2005.128	n/a	WORD	1002564	wordpools/wasnorm_wordpool.txt	LTP098	ltpFR	14	10	-1	PORTRAIT	1111	n/a	n/a	-1	1.0	1.0	1	upper	Verdana.ttf
2009.304	n/a	WORD	1004652	wordpools/wasnorm_wordpool.txt	LTP098	ltpFR	14	10	-1	SEA	1259	n/a	n/a	-1	1.0	1.0	1	upper	Verdana.ttf
2013.286	n/a	WORD	1006643	wordpools/wasnorm_wordpool.txt	LTP098	ltpFR	14	10	-1	POET	1095	n/a	n/a	-1	1.0	1.0	1	upper	Verdana.ttf
2017.402	n/a	WORD	1008701	wordpools/wasnorm_wordpool.txt	LTP098	ltpFR	14	10	-1	CARDINAL	244	n/a	n/a	-1	1.0	1.0	1	upper	Verdana.ttf
2021.552	n/a	WORD	1010776	wordpools/wasnorm_wordpool.txt	LTP098	ltpFR	14	10	-1	GUITAR	670	n/a	n/a	-1	1.0	1.0	1	upper	Verdana.ttf
2025.368	n/a	WORD	1012684	wordpools/wasnorm_wordpool.txt	LTP098	ltpFR	14	10	-1	VEAL	1551	n/a	n/a	-1	1.0	1.0	1	upper	Verdana.ttf
2029.576	n/a	WORD	1014788	wordpools/wasnorm_wordpool.txt	LTP098	ltpFR	14	10	-1	TELEVISION	1447	n/a	n/a	-1	1.0	1.0	1	upper	Verdana.ttf
2033.418	n/a	WORD	1016709	wordpools/wasnorm_wordpool.txt	LTP098	ltpFR	14	10	-1	TAPE	1433	n/a	n/a	-1	1.0	1.0	1	upper	Verdana.ttf
2037.326	n/a	WORD	1018663	wordpools/wasnorm_wordpool.txt	LTP098	ltpFR	14	10	-1	TYPEWRITER	1531	n/a	n/a	-1	1.0	1.0	1	upper	Verdana.ttf
2041.202	n/a	WORD	1020601	wordpools/wasnorm_wordpool.txt	LTP098	ltpFR	14	10	-1	SHRIMP	1297	n/a	n/a	-1	1.0	1.0	1	upper	Verdana.ttf
2046.994	n/a	REC_START	1023497	n/a	LTP098	ltpFR	14	10	n/a	n/a	n/a	n/a	n/a	n/a	n/a	n/a	n/a	n/a	n/a
2047.288	n/a	REC_WORD	1023644	wordpools/wasnorm_wordpool.txt	LTP098	ltpFR	14	10	-1	SHRIMP	1297	n/a	n/a	-1	n/a	n/a	n/a	n/a	n/a
2048.096	n/a	REC_WORD	1024048	wordpools/wasnorm_wordpool.txt	LTP098	ltpFR	14	10	-1	TYPEWRITER	1531	n/a	n/a	-1	n/a	n/a	n/a	n/a	n/a
2048.944	n/a	REC_WORD	1024472	wordpools/wasnorm_wordpool.txt	LTP098	ltpFR	14	10	-1	TAPE	1433	n/a	n/a	-1	n/a	n/a	n/a	n/a	n/a
2049.604	n/a	REC_WORD	1024802	wordpools/wasnorm_wordpool.txt	LTP098	ltpFR	14	10	-1	GUITAR	670	n/a	n/a	-1	n/a	n/a	n/a	n/a	n/a
2050.462	n/a	REC_WORD	1025231	wordpools/wasnorm_wordpool.txt	LTP098	ltpFR	14	10	-1	VEAL	1551	n/a	n/a	-1	n/a	n/a	n/a	n/a	n/a
2051.46	n/a	REC_WORD	1025730	wordpools/wasnorm_wordpool.txt	LTP098	ltpFR	14	10	-1	PAW	1029	n/a	n/a	-1	n/a	n/a	n/a	n/a	n/a
2052.122	n/a	REC_WORD	1026061	wordpools/wasnorm_wordpool.txt	LTP098	ltpFR	14	10	-1	BONE	148	n/a	n/a	-1	n/a	n/a	n/a	n/a	n/a
2053.136	n/a	REC_WORD	1026568	wordpools/wasnorm_wordpool.txt	LTP098	ltpFR	14	10	-1	MICROWAVE	892	n/a	n/a	-1	n/a	n/a	n/a	n/a	n/a
2054.064	n/a	REC_WORD	1027032	wordpools/wasnorm_wordpool.txt	LTP098	ltpFR	14	10	-1	SAP	1233	n/a	n/a	-1	n/a	n/a	n/a	n/a	n/a
2059.402	n/a	REC_WORD	1029701	wordpools/wasnorm_wordpool.txt	LTP098	ltpFR	14	10	-1	PATRIOT	1026	n/a	n/a	-1	n/a	n/a	n/a	n/a	n/a
2060.508	n/a	REC_WORD	1030254	wordpools/wasnorm_wordpool.txt	LTP098	ltpFR	14	10	-1	FLAG	573	n/a	n/a	-1	n/a	n/a	n/a	n/a	n/a
2064.988	n/a	REC_WORD_VV	1032494	wordpools/wasnorm_wordpool.txt	LTP098	ltpFR	14	10	n/a	<>	-1	n/a	n/a	n/a	n/a	n/a	n/a	n/a	n/a
2074.194	n/a	REC_WORD	1037097	wordpools/wasnorm_wordpool.txt	LTP098	ltpFR	14	10	-1	VEAL	1551	n/a	n/a	-1	n/a	n/a	n/a	n/a	n/a
2075.63	n/a	REC_WORD	1037815	wordpools/wasnorm_wordpool.txt	LTP098	ltpFR	14	10	-1	PAW	1029	n/a	n/a	-1	n/a	n/a	n/a	n/a	n/a
2076.424	n/a	REC_WORD	1038212	wordpools/wasnorm_wordpool.txt	LTP098	ltpFR	14	10	-1	BONE	148	n/a	n/a	-1	n/a	n/a	n/a	n/a	n/a
2080.082	n/a	REC_WORD	1040041	wordpools/wasnorm_wordpool.txt	LTP098	ltpFR	14	10	-1	MICROWAVE	892	n/a	n/a	-1	n/a	n/a	n/a	n/a	n/a
2126.5	n/a	WORD	1063250	wordpools/wasnorm_wordpool.txt	LTP098	ltpFR	14	11	1	CHEST	295	n/a	n/a	1	0.57763671875	0.412841796875	1	upper	zerothre.ttf
2130.666	n/a	WORD	1065333	wordpools/wasnorm_wordpool.txt	LTP098	ltpFR	14	11	1	THUMB	1462	n/a	n/a	1	0.57763671875	0.412841796875	1	upper	zerothre.ttf
2134.848	n/a	WORD	1067424	wordpools/wasnorm_wordpool.txt	LTP098	ltpFR	14	11	1	TOENAIL	1474	n/a	n/a	0	0.57763671875	0.412841796875	1	upper	zerothre.ttf
2138.748	n/a	WORD	1069374	wordpools/wasnorm_wordpool.txt	LTP098	ltpFR	14	11	1	LASER	801	n/a	n/a	0	0.57763671875	0.412841796875	1	upper	zerothre.ttf
2142.832	n/a	WORD	1071416	wordpools/wasnorm_wordpool.txt	LTP098	ltpFR	14	11	1	SCALPEL	1243	n/a	n/a	0	0.57763671875	0.412841796875	1	upper	zerothre.ttf
2146.982	n/a	WORD	1073491	wordpools/wasnorm_wordpool.txt	LTP098	ltpFR	14	11	1	SILK	1307	n/a	n/a	0	0.57763671875	0.412841796875	1	upper	zerothre.ttf
2150.824	n/a	WORD	1075412	wordpools/wasnorm_wordpool.txt	LTP098	ltpFR	14	11	1	MATCH	878	n/a	n/a	0	0.57763671875	0.412841796875	1	upper	zerothre.ttf
2154.79	n/a	WORD	1077395	wordpools/wasnorm_wordpool.txt	LTP098	ltpFR	14	11	1	DOCTOR	478	n/a	n/a	1	0.57763671875	0.412841796875	1	upper	zerothre.ttf
2158.922	n/a	WORD	1079461	wordpools/wasnorm_wordpool.txt	LTP098	ltpFR	14	11	1	ROBBER	1197	n/a	n/a	1	0.57763671875	0.412841796875	1	upper	zerothre.ttf
2162.974	n/a	WORD	1081487	wordpools/wasnorm_wordpool.txt	LTP098	ltpFR	14	11	1	MAN	862	n/a	n/a	1	0.57763671875	0.412841796875	1	upper	zerothre.ttf
2167.108	n/a	WORD	1083554	wordpools/wasnorm_wordpool.txt	LTP098	ltpFR	14	11	1	CALF	222	n/a	n/a	0	0.57763671875	0.412841796875	1	upper	zerothre.ttf
2170.966	n/a	WORD	1085483	wordpools/wasnorm_wordpool.txt	LTP098	ltpFR	14	11	1	MOLECULE	905	n/a	n/a	0	0.57763671875	0.412841796875	1	upper	zerothre.ttf
2174.872	n/a	WORD	1087436	wordpools/wasnorm_wordpool.txt	LTP098	ltpFR	14	11	1	CANDIDATE	228	n/a	n/a	1	0.57763671875	0.412841796875	1	upper	zerothre.ttf
2178.806	n/a	WORD	1089403	wordpools/wasnorm_wordpool.txt	LTP098	ltpFR	14	11	1	PRESIDENT	1121	n/a	n/a	1	0.57763671875	0.412841796875	1	upper	zerothre.ttf
2182.89	n/a	WORD	1091445	wordpools/wasnorm_wordpool.txt	LTP098	ltpFR	14	11	1	MUG	930	n/a	n/a	0	0.57763671875	0.412841796875	1	upper	zerothre.ttf
2186.864	n/a	WORD	1093432	wordpools/wasnorm_wordpool.txt	LTP098	ltpFR	14	11	1	SCOTCH	1251	n/a	n/a	0	0.57763671875	0.412841796875	1	upper	zerothre.ttf
2192.814	n/a	REC_START	1096407	n/a	LTP098	ltpFR	14	11	n/a	n/a	n/a	n/a	n/a	n/a	n/a	n/a	n/a	n/a	n/a
2193.678	n/a	REC_WORD	1096839	wordpools/wasnorm_wordpool.txt	LTP098	ltpFR	14	11	1	MUG	930	n/a	n/a	0	n/a	n/a	n/a	n/a	n/a
2194.166	n/a	REC_WORD	1097083	wordpools/wasnorm_wordpool.txt	LTP098	ltpFR	14	11	1	SCOTCH	1251	n/a	n/a	0	n/a	n/a	n/a	n/a	n/a
2195.03	n/a	REC_WORD	1097515	wordpools/wasnorm_wordpool.txt	LTP098	ltpFR	14	11	1	CALF	222	n/a	n/a	0	n/a	n/a	n/a	n/a	n/a
2196.76	n/a	REC_WORD	1098380	wordpools/wasnorm_wordpool.txt	LTP098	ltpFR	14	11	1	CANDIDATE	228	n/a	n/a	1	n/a	n/a	n/a	n/a	n/a
2201.76	n/a	REC_WORD	1100880	wordpools/wasnorm_wordpool.txt	LTP098	ltpFR	14	11	1	MUG	930	n/a	n/a	0	n/a	n/a	n/a	n/a	n/a
2202.798	n/a	REC_WORD	1101399	wordpools/wasnorm_wordpool.txt	LTP098	ltpFR	14	11	1	PRESIDENT	1121	n/a	n/a	1	n/a	n/a	n/a	n/a	n/a
2206.294	n/a	REC_WORD	1103147	wordpools/wasnorm_wordpool.txt	LTP098	ltpFR	14	11	1	SILK	1307	n/a	n/a	0	n/a	n/a	n/a	n/a	n/a
2208.336	n/a	REC_WORD	1104168	wordpools/wasnorm_wordpool.txt	LTP098	ltpFR	14	11	1	CHEST	295	n/a	n/a	1	n/a	n/a	n/a	n/a	n/a
2209.262	n/a	REC_WORD	1104631	wordpools/wasnorm_wordpool.txt	LTP098	ltpFR	14	11	1	THUMB	1462	n/a	n/a	1	n/a	n/a	n/a	n/a	n/a
2210.136	n/a	REC_WORD	1105068	wordpools/wasnorm_wordpool.txt	LTP098	ltpFR	14	11	1	TOENAIL	1474	n/a	n/a	0	n/a	n/a	n/a	n/a	n/a
2210.984	n/a	REC_WORD	1105492	wordpools/wasnorm_wordpool.txt	LTP098	ltpFR	14	11	1	ROBBER	1197	n/a	n/a	1	n/a	n/a	n/a	n/a	n/a
2211.946	n/a	REC_WORD	1105973	wordpools/wasnorm_wordpool.txt	LTP098	ltpFR	14	11	1	DOCTOR	478	n/a	n/a	1	n/a	n/a	n/a	n/a	n/a
2212.924	n/a	REC_WORD	1106462	wordpools/wasnorm_wordpool.txt	LTP098	ltpFR	14	11	1	MAN	862	n/a	n/a	1	n/a	n/a	n/a	n/a	n/a
2254.528	n/a	REC_WORD	1127264	wordpools/wasnorm_wordpool.txt	LTP098	ltpFR	14	11	1	CALF	222	n/a	n/a	0	n/a	n/a	n/a	n/a	n/a
2260.57	n/a	REC_WORD	1130285	wordpools/wasnorm_wordpool.txt	LTP098	ltpFR	14	11	-1	MICROWAVE	892	n/a	n/a	-1	n/a	n/a	n/a	n/a	n/a
2263.322	n/a	REC_WORD	1131661	wordpools/wasnorm_wordpool.txt	LTP098	ltpFR	14	11	-1	SAP	1233	n/a	n/a	-1	n/a	n/a	n/a	n/a	n/a
2265.688	n/a	REC_WORD	1132844	wordpools/wasnorm_wordpool.txt	LTP098	ltpFR	14	11	-1	STOVE	1388	n/a	n/a	-1	n/a	n/a	n/a	n/a	n/a
2270.988	n/a	WORD	1135494	wordpools/wasnorm_wordpool.txt	LTP098	ltpFR	14	12	1	COACH	331	n/a	n/a	1	0.57763671875	0.412841796875	1	upper	zerothre.ttf
2275.17	n/a	WORD	1137585	wordpools/wasnorm_wordpool.txt	LTP098	ltpFR	14	12	1	CHAMPAGNE	278	n/a	n/a	0	0.57763671875	0.412841796875	1	upper	zerothre.ttf
2279.346	n/a	WORD	1139673	wordpools/wasnorm_wordpool.txt	LTP098	ltpFR	14	12	1	GUM	672	n/a	n/a	0	0.57763671875	0.412841796875	1	upper	zerothre.ttf
2283.32	n/a	WORD	1141660	wordpools/wasnorm_wordpool.txt	LTP098	ltpFR	14	12	1	VEGETABLE	1552	n/a	n/a	1	0.57763671875	0.412841796875	1	upper	zerothre.ttf
2287.338	n/a	WORD	1143669	wordpools/wasnorm_wordpool.txt	LTP098	ltpFR	14	12	1	TIDE	1465	n/a	n/a	0	0.57763671875	0.412841796875	1	upper	zerothre.ttf
2291.454	n/a	WORD	1145727	wordpools/wasnorm_wordpool.txt	LTP098	ltpFR	14	12	1	SURF	1412	n/a	n/a	0	0.57763671875	0.412841796875	1	upper	zerothre.ttf
2295.544	n/a	WORD	1147772	wordpools/wasnorm_wordpool.txt	LTP098	ltpFR	14	12	1	PASSENGER	1020	n/a	n/a	1	0.57763671875	0.412841796875	1	upper	zerothre.ttf
2299.446	n/a	WORD	1149723	wordpools/wasnorm_wordpool.txt	LTP098	ltpFR	14	12	1	DRIVER	499	n/a	n/a	1	0.57763671875	0.412841796875	1	upper	zerothre.ttf
2303.428	n/a	WORD	1151714	wordpools/wasnorm_wordpool.txt	LTP098	ltpFR	14	12	1	LAUNDRY	803	n/a	n/a	0	0.57763671875	0.412841796875	1	upper	zerothre.ttf
2307.502	n/a	WORD	1153751	wordpools/wasnorm_wordpool.txt	LTP098	ltpFR	14	12	1	CHIPMUNK	304	n/a	n/a	1	0.57763671875	0.412841796875	1	upper	zerothre.ttf
2311.428	n/a	WORD	1155714	wordpools/wasnorm_wordpool.txt	LTP098	ltpFR	14	12	1	CATCHER	258	n/a	n/a	1	0.57763671875	0.412841796875	1	upper	zerothre.ttf
2315.544	n/a	WORD	1157772	wordpools/wasnorm_wordpool.txt	LTP098	ltpFR	14	12	1	CUE	422	n/a	n/a	0	0.57763671875	0.412841796875	1	upper	zerothre.ttf
2319.386	n/a	WORD	1159693	wordpools/wasnorm_wordpool.txt	LTP098	ltpFR	14	12	1	RAG	1160	n/a	n/a	0	0.57763671875	0.412841796875	1	upper	zerothre.ttf
2323.578	n/a	WORD	1161789	wordpools/wasnorm_wordpool.txt	LTP098	ltpFR	14	12	1	FORK	594	n/a	n/a	0	0.57763671875	0.412841796875	1	upper	zerothre.ttf
2327.452	n/a	WORD	1163726	wordpools/wasnorm_wordpool.txt	LTP098	ltpFR	14	12	1	WALNUT	1584	n/a	n/a	0	0.57763671875	0.412841796875	1	upper	zerothre.ttf
2331.518	n/a	WORD	1165759	wordpools/wasnorm_wordpool.txt	LTP098	ltpFR	14	12	1	TWIG	1527	n/a	n/a	1	0.57763671875	0.412841796875	1	upper	zerothre.ttf
2337.544	n/a	REC_START	1168772	n/a	LTP098	ltpFR	14	12	n/a	n/a	n/a	n/a	n/a	n/a	n/a	n/a	n/a	n/a	n/a
2338.068	n/a	REC_WORD	1169034	wordpools/wasnorm_wordpool.txt	LTP098	ltpFR	14	12	1	CHIPMUNK	304	n/a	n/a	1	n/a	n/a	n/a	n/a	n/a
2338.942	n/a	REC_WORD	1169471	wordpools/wasnorm_wordpool.txt	LTP098	ltpFR	14	12	1	CATCHER	258	n/a	n/a	1	n/a	n/a	n/a	n/a	n/a
2339.824	n/a	REC_WORD	1169912	wordpools/wasnorm_wordpool.txt	LTP098	ltpFR	14	12	1	CUE	422	n/a	n/a	0	n/a	n/a	n/a	n/a	n/a
2340.896	n/a	REC_WORD	1170448	wordpools/wasnorm_wordpool.txt	LTP098	ltpFR	14	12	1	RAG	1160	n/a	n/a	0	n/a	n/a	n/a	n/a	n/a
2341.79	n/a	REC_WORD	1170895	wordpools/wasnorm_wordpool.txt	LTP098	ltpFR	14	12	1	WALNUT	1584	n/a	n/a	0	n/a	n/a	n/a	n/a	n/a
2345.162	n/a	REC_WORD	1172581	wordpools/wasnorm_wordpool.txt	LTP098	ltpFR	14	12	n/a	RUG	1215	n/a	n/a	n/a	n/a	n/a	n/a	n/a	n/a
2350.534	n/a	REC_WORD	1175267	wordpools/wasnorm_wordpool.txt	LTP098	ltpFR	14	12	1	COACH	331	n/a	n/a	1	n/a	n/a	n/a	n/a	n/a
2351.322	n/a	REC_WORD	1175661	wordpools/wasnorm_wordpool.txt	LTP098	ltpFR	14	12	1	CHAMPAGNE	278	n/a	n/a	0	n/a	n/a	n/a	n/a	n/a
2352.884	n/a	REC_WORD	1176442	wordpools/wasnorm_wordpool.txt	LTP098	ltpFR	14	12	1	VEGETABLE	1552	n/a	n/a	1	n/a	n/a	n/a	n/a	n/a
2354.446	n/a	REC_WORD	1177223	wordpools/wasnorm_wordpool.txt	LTP098	ltpFR	14	12	1	TIDE	1465	n/a	n/a	0	n/a	n/a	n/a	n/a	n/a
2355.934	n/a	REC_WORD	1177967	wordpools/wasnorm_wordpool.txt	LTP098	ltpFR	14	12	n/a	SURFER	-1	n/a	n/a	n/a	n/a	n/a	n/a	n/a	n/a
2361.166	n/a	REC_WORD_VV	1180583	wordpools/wasnorm_wordpool.txt	LTP098	ltpFR	14	12	n/a	<>	-1	n/a	n/a	n/a	n/a	n/a	n/a	n/a	n/a
2361.316	n/a	REC_WORD	1180658	wordpools/wasnorm_wordpool.txt	LTP098	ltpFR	14	12	1	SURF	1412	n/a	n/a	0	n/a	n/a	n/a	n/a	n/a
2413.134	n/a	REST_REWET	1206567	n/a	LTP098	ltpFR	14	12	n/a	n/a	n/a	n/a	n/a	n/a	n/a	n/a	n/a	n/a	n/a
2982.236	n/a	WORD	1491118	wordpools/wasnorm_wordpool.txt	LTP098	ltpFR	14	13	0	BUS	201	n/a	n/a	1	0.422607421875	0.5869140625	0	lower	amplitud.ttf
2986.102	n/a	WORD	1493051	wordpools/wasnorm_wordpool.txt	LTP098	ltpFR	14	13	0	TAXI	1438	n/a	n/a	1	0.422607421875	0.5869140625	0	lower	amplitud.ttf
2990.068	n/a	WORD	1495034	wordpools/wasnorm_wordpool.txt	LTP098	ltpFR	14	13	0	CANAL	226	n/a	n/a	1	0.422607421875	0.5869140625	0	lower	amplitud.ttf
2993.936	n/a	WORD	1496968	wordpools/wasnorm_wordpool.txt	LTP098	ltpFR	14	13	0	GARBAGE	622	n/a	n/a	1	0.422607421875	0.5869140625	0	lower	amplitud.ttf
2997.776	n/a	WORD	1498888	wordpools/wasnorm_wordpool.txt	LTP098	ltpFR	14	13	0	ATOM	55	n/a	n/a	0	0.422607421875	0.5869140625	0	lower	amplitud.ttf
3001.934	n/a	WORD	1500967	wordpools/wasnorm_wordpool.txt	LTP098	ltpFR	14	13	0	FROG	608	n/a	n/a	0	0.422607421875	0.5869140625	0	lower	amplitud.ttf
3005.96	n/a	WORD	1502980	wordpools/wasnorm_wordpool.txt	LTP098	ltpFR	14	13	0	MOP	916	n/a	n/a	1	0.422607421875	0.5869140625	0	lower	amplitud.ttf
3010.134	n/a	WORD	1505067	wordpools/wasnorm_wordpool.txt	LTP098	ltpFR	14	13	0	SKELETON	1314	n/a	n/a	1	0.422607421875	0.5869140625	0	lower	amplitud.ttf
3014.344	n/a	WORD	1507172	wordpools/wasnorm_wordpool.txt	LTP098	ltpFR	14	13	0	BLUEBERRY	140	n/a	n/a	0	0.422607421875	0.5869140625	0	lower	amplitud.ttf
3018.336	n/a	WORD	1509168	wordpools/wasnorm_wordpool.txt	LTP098	ltpFR	14	13	0	MILDEW	893	n/a	n/a	0	0.422607421875	0.5869140625	0	lower	amplitud.ttf
3022.194	n/a	WORD	1511097	wordpools/wasnorm_wordpool.txt	LTP098	ltpFR	14	13	0	SINK	1309	n/a	n/a	1	0.422607421875	0.5869140625	0	lower	amplitud.ttf
3026.168	n/a	WORD	1513084	wordpools/wasnorm_wordpool.txt	LTP098	ltpFR	14	13	0	ATMOSPHERE	54	n/a	n/a	1	0.422607421875	0.5869140625	0	lower	amplitud.ttf
3030.352	n/a	WORD	1515176	wordpools/wasnorm_wordpool.txt	LTP098	ltpFR	14	13	0	BALLOON	75	n/a	n/a	0	0.422607421875	0.5869140625	0	lower	amplitud.ttf
3034.51	n/a	WORD	1517255	wordpools/wasnorm_wordpool.txt	LTP098	ltpFR	14	13	0	SHOWER	1296	n/a	n/a	1	0.422607421875	0.5869140625	0	lower	amplitud.ttf
3038.402	n/a	WORD	1519201	wordpools/wasnorm_wordpool.txt	LTP098	ltpFR	14	13	0	BARK	87	n/a	n/a	0	0.422607421875	0.5869140625	0	lower	amplitud.ttf
3042.468	n/a	WORD	1521234	wordpools/wasnorm_wordpool.txt	LTP098	ltpFR	14	13	0	NUCLEUS	961	n/a	n/a	0	0.422607421875	0.5869140625	0	lower	amplitud.ttf
3048.21	n/a	REC_START	1524105	n/a	LTP098	ltpFR	14	13	n/a	n/a	n/a	n/a	n/a	n/a	n/a	n/a	n/a	n/a	n/a
3048.848	n/a	REC_WORD	1524424	wordpools/wasnorm_wordpool.txt	LTP098	ltpFR	14	13	0	SINK	1309	n/a	n/a	1	n/a	n/a	n/a	n/a	n/a
3050.042	n/a	REC_WORD	1525021	wordpools/wasnorm_wordpool.txt	LTP098	ltpFR	14	13	0	SINK	1309	n/a	n/a	1	n/a	n/a	n/a	n/a	n/a
3050.73	n/a	REC_WORD_VV	1525365	wordpools/wasnorm_wordpool.txt	LTP098	ltpFR	14	13	n/a	<>	-1	n/a	n/a	n/a	n/a	n/a	n/a	n/a	n/a
3052.376	n/a	REC_WORD	1526188	wordpools/wasnorm_wordpool.txt	LTP098	ltpFR	14	13	0	ATMOSPHERE	54	n/a	n/a	1	n/a	n/a	n/a	n/a	n/a
3053.842	n/a	REC_WORD	1526921	wordpools/wasnorm_wordpool.txt	LTP098	ltpFR	14	13	0	BALLOON	75	n/a	n/a	0	n/a	n/a	n/a	n/a	n/a
3055.15	n/a	REC_WORD	1527575	wordpools/wasnorm_wordpool.txt	LTP098	ltpFR	14	13	0	BARK	87	n/a	n/a	0	n/a	n/a	n/a	n/a	n/a
3056.486	n/a	REC_WORD	1528243	wordpools/wasnorm_wordpool.txt	LTP098	ltpFR	14	13	0	ATOM	55	n/a	n/a	0	n/a	n/a	n/a	n/a	n/a
3057.914	n/a	REC_WORD	1528957	wordpools/wasnorm_wordpool.txt	LTP098	ltpFR	14	13	0	NUCLEUS	961	n/a	n/a	0	n/a	n/a	n/a	n/a	n/a
3059.574	n/a	REC_WORD	1529787	wordpools/wasnorm_wordpool.txt	LTP098	ltpFR	14	13	0	GARBAGE	622	n/a	n/a	1	n/a	n/a	n/a	n/a	n/a
3060.692	n/a	REC_WORD	1530346	wordpools/wasnorm_wordpool.txt	LTP098	ltpFR	14	13	0	SKELETON	1314	n/a	n/a	1	n/a	n/a	n/a	n/a	n/a
3062.368	n/a	REC_WORD	1531184	wordpools/wasnorm_wordpool.txt	LTP098	ltpFR	14	13	0	MOP	916	n/a	n/a	1	n/a	n/a	n/a	n/a	n/a
3064.02	n/a	REC_WORD	1532010	wordpools/wasnorm_wordpool.txt	LTP098	ltpFR	14	13	0	BUS	201	n/a	n/a	1	n/a	n/a	n/a	n/a	n/a
3065.416	n/a	REC_WORD	1532708	wordpools/wasnorm_wordpool.txt	LTP098	ltpFR	14	13	0	TAXI	1438	n/a	n/a	1	n/a	n/a	n/a	n/a	n/a
3066.872	n/a	REC_WORD	1533436	wordpools/wasnorm_wordpool.txt	LTP098	ltpFR	14	13	0	CANAL	226	n/a	n/a	1	n/a	n/a	n/a	n/a	n/a
3076.206	n/a	REC_WORD	1538103	wordpools/wasnorm_wordpool.txt	LTP098	ltpFR	14	13	0	CANAL	226	n/a	n/a	1	n/a	n/a	n/a	n/a	n/a
3077.36	n/a	REC_WORD	1538680	wordpools/wasnorm_wordpool.txt	LTP098	ltpFR	14	13	0	BUS	201	n/a	n/a	1	n/a	n/a	n/a	n/a	n/a
3078.308	n/a	REC_WORD	1539154	wordpools/wasnorm_wordpool.txt	LTP098	ltpFR	14	13	0	TAXI	1438	n/a	n/a	1	n/a	n/a	n/a	n/a	n/a
3090.84	n/a	REC_WORD	1545420	wordpools/wasnorm_wordpool.txt	LTP098	ltpFR	14	13	0	SINK	1309	n/a	n/a	1	n/a	n/a	n/a	n/a	n/a
3091.828	n/a	REC_WORD	1545914	wordpools/wasnorm_wordpool.txt	LTP098	ltpFR	14	13	0	ATOM	55	n/a	n/a	0	n/a	n/a	n/a	n/a	n/a
3092.636	n/a	REC_WORD	1546318	wordpools/wasnorm_wordpool.txt	LTP098	ltpFR	14	13	0	NUCLEUS	961	n/a	n/a	0	n/a	n/a	n/a	n/a	n/a
3138.848	n/a	WORD	1569424	wordpools/wasnorm_wordpool.txt	LTP098	ltpFR	14	14	0	YOUTH	1634	n/a	n/a	1	0.422607421875	0.5869140625	0	lower	amplitud.ttf
3142.99	n/a	WORD	1571495	wordpools/wasnorm_wordpool.txt	LTP098	ltpFR	14	14	0	BACK	65	n/a	n/a	1	0.422607421875	0.5869140625	0	lower	amplitud.ttf
3146.89	n/a	WORD	1573445	wordpools/wasnorm_wordpool.txt	LTP098	ltpFR	14	14	0	CRIMINAL	409	n/a	n/a	1	0.422607421875	0.5869140625	0	lower	amplitud.ttf
3150.782	n/a	WORD	1575391	wordpools/wasnorm_wordpool.txt	LTP098	ltpFR	14	14	1	CHAMBER	277	n/a	n/a	0	0.57763671875	0.412841796875	1	upper	zerothre.ttf
3154.848	n/a	WORD	1577424	wordpools/wasnorm_wordpool.txt	LTP098	ltpFR	14	14	1	CLAW	319	n/a	n/a	0	0.57763671875	0.412841796875	1	upper	zerothre.ttf
3158.964	n/a	WORD	1579482	wordpools/wasnorm_wordpool.txt	LTP098	ltpFR	14	14	1	TOILET	1475	n/a	n/a	0	0.57763671875	0.412841796875	1	upper	zerothre.ttf
3162.83	n/a	WORD	1581415	wordpools/wasnorm_wordpool.txt	LTP098	ltpFR	14	14	0	LAWYER	806	n/a	n/a	1	0.422607421875	0.5869140625	0	lower	amplitud.ttf
3166.872	n/a	WORD	1583436	wordpools/wasnorm_wordpool.txt	LTP098	ltpFR	14	14	0	PERCH	1048	n/a	n/a	1	0.422607421875	0.5869140625	0	lower	amplitud.ttf
3170.93	n/a	WORD	1585465	wordpools/wasnorm_wordpool.txt	LTP098	ltpFR	14	14	1	SPARROW	1347	n/a	n/a	1	0.57763671875	0.412841796875	1	upper	zerothre.ttf
3174.906	n/a	WORD	1587453	wordpools/wasnorm_wordpool.txt	LTP098	ltpFR	14	14	1	DOUGHNUT	490	n/a	n/a	0	0.57763671875	0.412841796875	1	upper	zerothre.ttf
3179.03	n/a	WORD	1589515	wordpools/wasnorm_wordpool.txt	LTP098	ltpFR	14	14	1	PARENT	1013	n/a	n/a	1	0.57763671875	0.412841796875	1	upper	zerothre.ttf
3183.198	n/a	WORD	1591599	wordpools/wasnorm_wordpool.txt	LTP098	ltpFR	14	14	1	LIP	828	n/a	n/a	1	0.57763671875	0.412841796875	1	upper	zerothre.ttf
3187.332	n/a	WORD	1593666	wordpools/wasnorm_wordpool.txt	LTP098	ltpFR	14	14	1	CAVITY	264	n/a	n/a	0	0.57763671875	0.412841796875	1	upper	zerothre.ttf
3191.472	n/a	WORD	1595736	wordpools/wasnorm_wordpool.txt	LTP098	ltpFR	14	14	0	JURY	766	n/a	n/a	1	0.422607421875	0.5869140625	0	lower	amplitud.ttf
3195.322	n/a	WORD	1597661	wordpools/wasnorm_wordpool.txt	LTP098	ltpFR	14	14	0	HAY	693	n/a	n/a	0	0.422607421875	0.5869140625	0	lower	amplitud.ttf
3199.422	n/a	WORD	1599711	wordpools/wasnorm_wordpool.txt	LTP098	ltpFR	14	14	0	CACTUS	215	n/a	n/a	1	0.422607421875	0.5869140625	0	lower	amplitud.ttf
3205.356	n/a	REC_START	1602678	n/a	LTP098	ltpFR	14	14	n/a	n/a	n/a	n/a	n/a	n/a	n/a	n/a	n/a	n/a	n/a
3205.95	n/a	REC_WORD	1602975	wordpools/wasnorm_wordpool.txt	LTP098	ltpFR	14	14	1	LIP	828	n/a	n/a	1	n/a	n/a	n/a	n/a	n/a
3206.812	n/a	REC_WORD	1603406	wordpools/wasnorm_wordpool.txt	LTP098	ltpFR	14	14	1	CAVITY	264	n/a	n/a	0	n/a	n/a	n/a	n/a	n/a
3207.68	n/a	REC_WORD	1603840	wordpools/wasnorm_wordpool.txt	LTP098	ltpFR	14	14	0	HAY	693	n/a	n/a	0	n/a	n/a	n/a	n/a	n/a
3208.724	n/a	REC_WORD	1604362	wordpools/wasnorm_wordpool.txt	LTP098	ltpFR	14	14	0	CACTUS	215	n/a	n/a	1	n/a	n/a	n/a	n/a	n/a
3209.606	n/a	REC_WORD	1604803	wordpools/wasnorm_wordpool.txt	LTP098	ltpFR	14	14	0	JURY	766	n/a	n/a	1	n/a	n/a	n/a	n/a	n/a
3210.74	n/a	REC_WORD	1605370	wordpools/wasnorm_wordpool.txt	LTP098	ltpFR	14	14	0	LAWYER	806	n/a	n/a	1	n/a	n/a	n/a	n/a	n/a
3215.528	n/a	REC_WORD	1607764	wordpools/wasnorm_wordpool.txt	LTP098	ltpFR	14	14	0	YOUTH	1634	n/a	n/a	1	n/a	n/a	n/a	n/a	n/a
3216.422	n/a	REC_WORD	1608211	wordpools/wasnorm_wordpool.txt	LTP098	ltpFR	14	14	1	PARENT	1013	n/a	n/a	1	n/a	n/a	n/a	n/a	n/a
3217.992	n/a	REC_WORD	1608996	wordpools/wasnorm_wordpool.txt	LTP098	ltpFR	14	14	0	CRIMINAL	409	n/a	n/a	1	n/a	n/a	n/a	n/a	n/a
3219.13	n/a	REC_WORD	1609565	wordpools/wasnorm_wordpool.txt	LTP098	ltpFR	14	14	1	TOILET	1475	n/a	n/a	0	n/a	n/a	n/a	n/a	n/a
3223.956	n/a	REC_WORD	1611978	wordpools/wasnorm_wordpool.txt	LTP098	ltpFR	14	14	1	TOILET	1475	n/a	n/a	0	n/a	n/a	n/a	n/a	n/a
3226.166	n/a	REC_WORD	1613083	wordpools/wasnorm_wordpool.txt	LTP098	ltpFR	14	14	0	YOUTH	1634	n/a	n/a	1	n/a	n/a	n/a	n/a	n/a
3227.112	n/a	REC_WORD	1613556	wordpools/wasnorm_wordpool.txt	LTP098	ltpFR	14	14	0	CRIMINAL	409	n/a	n/a	1	n/a	n/a	n/a	n/a	n/a
3228.186	n/a	REC_WORD	1614093	wordpools/wasnorm_wordpool.txt	LTP098	ltpFR	14	14	1	PARENT	1013	n/a	n/a	1	n/a	n/a	n/a	n/a	n/a
3272.582	n/a	REC_WORD	1636291	wordpools/wasnorm_wordpool.txt	LTP098	ltpFR	14	14	1	TOILET	1475	n/a	n/a	0	n/a	n/a	n/a	n/a	n/a
3283.82	n/a	WORD	1641910	wordpools/wasnorm_wordpool.txt	LTP098	ltpFR	14	15	-1	GAVEL	627	n/a	n/a	-1	1.0	1.0	1	upper	Verdana.ttf
3287.894	n/a	WORD	1643947	wordpools/wasnorm_wordpool.txt	LTP098	ltpFR	14	15	-1	BUTTERFLY	206	n/a	n/a	-1	1.0	1.0	1	upper	Verdana.ttf
3291.918	n/a	WORD	1645959	wordpools/wasnorm_wordpool.txt	LTP098	ltpFR	14	15	-1	SWATTER	1418	n/a	n/a	-1	1.0	1.0	1	upper	Verdana.ttf
3295.744	n/a	WORD	1647872	wordpools/wasnorm_wordpool.txt	LTP098	ltpFR	14	15	-1	ISLAND	745	n/a	n/a	-1	1.0	1.0	1	upper	Verdana.ttf
3299.778	n/a	WORD	1649889	wordpools/wasnorm_wordpool.txt	LTP098	ltpFR	14	15	-1	PUDDLE	1140	n/a	n/a	-1	1.0	1.0	1	upper	Verdana.ttf
3303.66	n/a	WORD	1651830	wordpools/wasnorm_wordpool.txt	LTP098	ltpFR	14	15	-1	CONSUMER	365	n/a	n/a	-1	1.0	1.0	1	upper	Verdana.ttf
3307.726	n/a	WORD	1653863	wordpools/wasnorm_wordpool.txt	LTP098	ltpFR	14	15	-1	GOWN	652	n/a	n/a	-1	1.0	1.0	1	upper	Verdana.ttf
3311.568	n/a	WORD	1655784	wordpools/wasnorm_wordpool.txt	LTP098	ltpFR	14	15	-1	SUPPER	1411	n/a	n/a	-1	1.0	1.0	1	upper	Verdana.ttf
3315.702	n/a	WORD	1657851	wordpools/wasnorm_wordpool.txt	LTP098	ltpFR	14	15	-1	TRAY	1498	n/a	n/a	-1	1.0	1.0	1	upper	Verdana.ttf
3319.644	n/a	WORD	1659822	wordpools/wasnorm_wordpool.txt	LTP098	ltpFR	14	15	-1	BRIDGE	174	n/a	n/a	-1	1.0	1.0	1	upper	Verdana.ttf
3323.852	n/a	WORD	1661926	wordpools/wasnorm_wordpool.txt	LTP098	ltpFR	14	15	-1	FOUNTAIN	597	n/a	n/a	-1	1.0	1.0	1	upper	Verdana.ttf
3327.744	n/a	WORD	1663872	wordpools/wasnorm_wordpool.txt	LTP098	ltpFR	14	15	-1	COMEDIAN	352	n/a	n/a	-1	1.0	1.0	1	upper	Verdana.ttf
3331.784	n/a	WORD	1665892	wordpools/wasnorm_wordpool.txt	LTP098	ltpFR	14	15	-1	DOLLAR	482	n/a	n/a	-1	1.0	1.0	1	upper	Verdana.ttf
3335.842	n/a	WORD	1667921	wordpools/wasnorm_wordpool.txt	LTP098	ltpFR	14	15	-1	BEGGAR	117	n/a	n/a	-1	1.0	1.0	1	upper	Verdana.ttf
3339.66	n/a	WORD	1669830	wordpools/wasnorm_wordpool.txt	LTP098	ltpFR	14	15	-1	PAVEMENT	1028	n/a	n/a	-1	1.0	1.0	1	upper	Verdana.ttf
3343.518	n/a	WORD	1671759	wordpools/wasnorm_wordpool.txt	LTP098	ltpFR	14	15	-1	CANE	231	n/a	n/a	-1	1.0	1.0	1	upper	Verdana.ttf
3349.228	n/a	REC_START	1674614	n/a	LTP098	ltpFR	14	15	n/a	n/a	n/a	n/a	n/a	n/a	n/a	n/a	n/a	n/a	n/a
3349.692	n/a	REC_WORD	1674846	wordpools/wasnorm_wordpool.txt	LTP098	ltpFR	14	15	-1	CANE	231	n/a	n/a	-1	n/a	n/a	n/a	n/a	n/a
3350.58	n/a	REC_WORD	1675290	wordpools/wasnorm_wordpool.txt	LTP098	ltpFR	14	15	-1	PAVEMENT	1028	n/a	n/a	-1	n/a	n/a	n/a	n/a	n/a
3351.852	n/a	REC_WORD	1675926	wordpools/wasnorm_wordpool.txt	LTP098	ltpFR	14	15	-1	SUPPER	1411	n/a	n/a	-1	n/a	n/a	n/a	n/a	n/a
3352.724	n/a	REC_WORD	1676362	wordpools/wasnorm_wordpool.txt	LTP098	ltpFR	14	15	-1	TRAY	1498	n/a	n/a	-1	n/a	n/a	n/a	n/a	n/a
3353.976	n/a	REC_WORD	1676988	wordpools/wasnorm_wordpool.txt	LTP098	ltpFR	14	15	-1	BRIDGE	174	n/a	n/a	-1	n/a	n/a	n/a	n/a	n/a
3355.388	n/a	REC_WORD	1677694	wordpools/wasnorm_wordpool.txt	LTP098	ltpFR	14	15	-1	FOUNTAIN	597	n/a	n/a	-1	n/a	n/a	n/a	n/a	n/a
3358.352	n/a	REC_WORD	1679176	wordpools/wasnorm_wordpool.txt	LTP098	ltpFR	14	15	-1	ISLAND	745	n/a	n/a	-1	n/a	n/a	n/a	n/a	n/a
3359.19	n/a	REC_WORD	1679595	wordpools/wasnorm_wordpool.txt	LTP098	ltpFR	14	15	-1	PUDDLE	1140	n/a	n/a	-1	n/a	n/a	n/a	n/a	n/a
3364.328	n/a	REC_WORD	1682164	wordpools/wasnorm_wordpool.txt	LTP098	ltpFR	14	15	-1	GAVEL	627	n/a	n/a	-1	n/a	n/a	n/a	n/a	n/a
3365.332	n/a	REC_WORD	1682666	wordpools/wasnorm_wordpool.txt	LTP098	ltpFR	14	15	-1	SWATTER	1418	n/a	n/a	-1	n/a	n/a	n/a	n/a	n/a
3366.538	n/a	REC_WORD	1683269	wordpools/wasnorm_wordpool.txt	LTP098	ltpFR	14	15	-1	GOWN	652	n/a	n/a	-1	n/a	n/a	n/a	n/a	n/a
3367.85	n/a	REC_WORD	1683925	wordpools/wasnorm_wordpool.txt	LTP098	ltpFR	14	15	-1	BUTTERFLY	206	n/a	n/a	-1	n/a	n/a	n/a	n/a	n/a
3374.994	n/a	REC_WORD	1687497	wordpools/wasnorm_wordpool.txt	LTP098	ltpFR	14	15	-1	GAVEL	627	n/a	n/a	-1	n/a	n/a	n/a	n/a	n/a
3376.282	n/a	REC_WORD	1688141	wordpools/wasnorm_wordpool.txt	LTP098	ltpFR	14	15	-1	BUTTERFLY	206	n/a	n/a	-1	n/a	n/a	n/a	n/a	n/a
3377.082	n/a	REC_WORD	1688541	wordpools/wasnorm_wordpool.txt	LTP098	ltpFR	14	15	-1	SWATTER	1418	n/a	n/a	-1	n/a	n/a	n/a	n/a	n/a
3412.686	n/a	REC_WORD	1706343	wordpools/wasnorm_wordpool.txt	LTP098	ltpFR	14	15	-1	GAVEL	627	n/a	n/a	-1	n/a	n/a	n/a	n/a	n/a
3427.598	n/a	WORD	1713799	wordpools/wasnorm_wordpool.txt	LTP098	ltpFR	14	16	1	OVAL	990	n/a	n/a	0	0.57763671875	0.412841796875	1	upper	zerothre.ttf
3431.716	n/a	WORD	1715858	wordpools/wasnorm_wordpool.txt	LTP098	ltpFR	14	16	1	CHICKEN	297	n/a	n/a	1	0.57763671875	0.412841796875	1	upper	zerothre.ttf
3435.616	n/a	WORD	1717808	wordpools/wasnorm_wordpool.txt	LTP098	ltpFR	14	16	1	ACORN	3	n/a	n/a	1	0.57763671875	0.412841796875	1	upper	zerothre.ttf
3439.59	n/a	WORD	1719795	wordpools/wasnorm_wordpool.txt	LTP098	ltpFR	14	16	1	FRANCE	601	n/a	n/a	0	0.57763671875	0.412841796875	1	upper	zerothre.ttf
3443.466	n/a	WORD	1721733	wordpools/wasnorm_wordpool.txt	LTP098	ltpFR	14	16	1	PLANT	1083	n/a	n/a	1	0.57763671875	0.412841796875	1	upper	zerothre.ttf
3447.49	n/a	WORD	1723745	wordpools/wasnorm_wordpool.txt	LTP098	ltpFR	14	16	1	POND	1101	n/a	n/a	0	0.57763671875	0.412841796875	1	upper	zerothre.ttf
3451.648	n/a	WORD	1725824	wordpools/wasnorm_wordpool.txt	LTP098	ltpFR	14	16	1	CORD	379	n/a	n/a	0	0.57763671875	0.412841796875	1	upper	zerothre.ttf
3455.674	n/a	WORD	1727837	wordpools/wasnorm_wordpool.txt	LTP098	ltpFR	14	16	1	SCALE	1241	n/a	n/a	0	0.57763671875	0.412841796875	1	upper	zerothre.ttf
3459.55	n/a	WORD	1729775	wordpools/wasnorm_wordpool.txt	LTP098	ltpFR	14	16	1	MAPLE	866	n/a	n/a	1	0.57763671875	0.412841796875	1	upper	zerothre.ttf
3463.748	n/a	WORD	1731874	wordpools/wasnorm_wordpool.txt	LTP098	ltpFR	14	16	1	PARROT	1015	n/a	n/a	1	0.57763671875	0.412841796875	1	upper	zerothre.ttf
3467.664	n/a	WORD	1733832	wordpools/wasnorm_wordpool.txt	LTP098	ltpFR	14	16	1	GULL	671	n/a	n/a	1	0.57763671875	0.412841796875	1	upper	zerothre.ttf
3471.748	n/a	WORD	1735874	wordpools/wasnorm_wordpool.txt	LTP098	ltpFR	14	16	1	STEM	1376	n/a	n/a	1	0.57763671875	0.412841796875	1	upper	zerothre.ttf
3475.864	n/a	WORD	1737932	wordpools/wasnorm_wordpool.txt	LTP098	ltpFR	14	16	1	CORAL	378	n/a	n/a	1	0.57763671875	0.412841796875	1	upper	zerothre.ttf
3480.006	n/a	WORD	1740003	wordpools/wasnorm_wordpool.txt	LTP098	ltpFR	14	16	1	TABLE	1426	n/a	n/a	0	0.57763671875	0.412841796875	1	upper	zerothre.ttf
3484.032	n/a	WORD	1742016	wordpools/wasnorm_wordpool.txt	LTP098	ltpFR	14	16	1	UNCLE	1536	n/a	n/a	1	0.57763671875	0.412841796875	1	upper	zerothre.ttf
3487.888	n/a	WORD	1743944	wordpools/wasnorm_wordpool.txt	LTP098	ltpFR	14	16	1	NIECE	952	n/a	n/a	1	0.57763671875	0.412841796875	1	upper	zerothre.ttf
3493.706	n/a	REC_START	1746853	n/a	LTP098	ltpFR	14	16	n/a	n/a	n/a	n/a	n/a	n/a	n/a	n/a	n/a	n/a	n/a
3494.026	n/a	REC_WORD	1747013	wordpools/wasnorm_wordpool.txt	LTP098	ltpFR	14	16	1	STEM	1376	n/a	n/a	1	n/a	n/a	n/a	n/a	n/a
3494.998	n/a	REC_WORD	1747499	wordpools/wasnorm_wordpool.txt	LTP098	ltpFR	14	16	1	MAPLE	866	n/a	n/a	1	n/a	n/a	n/a	n/a	n/a
3495.952	n/a	REC_WORD	1747976	wordpools/wasnorm_wordpool.txt	LTP098	ltpFR	14	16	1	CORAL	378	n/a	n/a	1	n/a	n/a	n/a	n/a	n/a
3496.81	n/a	REC_WORD	1748405	wordpools/wasnorm_wordpool.txt	LTP098	ltpFR	14	16	1	TABLE	1426	n/a	n/a	0	n/a	n/a	n/a	n/a	n/a
3497.632	n/a	REC_WORD	1748816	wordpools/wasnorm_wordpool.txt	LTP098	ltpFR	14	16	1	UNCLE	1536	n/a	n/a	1	n/a	n/a	n/a	n/a	n/a
3498.42	n/a	REC_WORD	1749210	wordpools/wasnorm_wordpool.txt	LTP098	ltpFR	14	16	1	NIECE	952	n/a	n/a	1	n/a	n/a	n/a	n/a	n/a
3500.052	n/a	REC_WORD	1750026	wordpools/wasnorm_wordpool.txt	LTP098	ltpFR	14	16	1	OVAL	990	n/a	n/a	0	n/a	n/a	n/a	n/a	n/a
3500.846	n/a	REC_WORD	1750423	wordpools/wasnorm_wordpool.txt	LTP098	ltpFR	14	16	1	CHICKEN	297	n/a	n/a	1	n/a	n/a	n/a	n/a	n/a
3501.598	n/a	REC_WORD	1750799	wordpools/wasnorm_wordpool.txt	LTP098	ltpFR	14	16	1	FRANCE	601	n/a	n/a	0	n/a	n/a	n/a	n/a	n/a
3502.598	n/a	REC_WORD_VV	1751299	wordpools/wasnorm_wordpool.txt	LTP098	ltpFR	14	16	n/a	<>	-1	n/a	n/a	n/a	n/a	n/a	n/a	n/a	n/a
3504.022	n/a	REC_WORD	1752011	wordpools/wasnorm_wordpool.txt	LTP098	ltpFR	14	16	1	POND	1101	n/a	n/a	0	n/a	n/a	n/a	n/a	n/a
3563.306	n/a	REC_WORD	1781653	wordpools/wasnorm_wordpool.txt	LTP098	ltpFR	14	16	1	POND	1101	n/a	n/a	0	n/a	n/a	n/a	n/a	n/a
3566.244	n/a	REC_WORD	1783122	wordpools/wasnorm_wordpool.txt	LTP098	ltpFR	14	16	-1	GAVEL	627	n/a	n/a	-1	n/a	n/a	n/a	n/a	n/a
3567.96	n/a	REC_WORD	1783980	wordpools/wasnorm_wordpool.txt	LTP098	ltpFR	14	16	-1	BUTTERFLY	206	n/a	n/a	-1	n/a	n/a	n/a	n/a	n/a
3593.57	n/a	REC_START	1796785	n/a	LTP098	ltpFR	14	1	n/a	n/a	n/a	n/a	n/a	n/a	n/a	n/a	n/a	n/a	n/a
3593.604	n/a	RECOG_LURE	1796802	n/a	LTP098	ltpFR	14	1	n/a	IRON	744	1	1	n/a	n/a	n/a	n/a	n/a	n/a
3595.336	n/a	RECOG_RESP	1797668	n/a	LTP098	ltpFR	14	1	n/a	IRON	744	1	n/a	n/a	n/a	n/a	n/a	n/a	n/a
3595.91	n/a	RECOG_CONF	1797955	n/a	LTP098	ltpFR	14	1	n/a	IRON	744	n/a	1	n/a	n/a	n/a	n/a	n/a	n/a
3597.312	n/a	RECOG_TARGET	1798656	n/a	LTP098	ltpFR	14	1	0	VILLAGE	1566	1	5	1	n/a	n/a	n/a	n/a	n/a
3598.086	n/a	RECOG_RESP	1799043	n/a	LTP098	ltpFR	14	1	0	VILLAGE	1566	1	n/a	1	n/a	n/a	n/a	n/a	n/a
3598.494	n/a	RECOG_CONF	1799247	n/a	LTP098	ltpFR	14	1	0	VILLAGE	1566	n/a	5	1	n/a	n/a	n/a	n/a	n/a
3599.87	n/a	RECOG_TARGET	1799935	n/a	LTP098	ltpFR	14	1	0	FOREHEAD	592	1	5	0	n/a	n/a	n/a	n/a	n/a
3600.6	n/a	RECOG_RESP	1800300	n/a	LTP098	ltpFR	14	1	0	FOREHEAD	592	1	n/a	0	n/a	n/a	n/a	n/a	n/a
3601.098	n/a	RECOG_CONF	1800549	n/a	LTP098	ltpFR	14	1	0	FOREHEAD	592	n/a	5	0	n/a	n/a	n/a	n/a	n/a
3602.386	n/a	RECOG_TARGET	1801193	n/a	LTP098	ltpFR	14	1	1	SCALPEL	1243	1	5	0	n/a	n/a	n/a	n/a	n/a
3603.038	n/a	RECOG_RESP	1801519	n/a	LTP098	ltpFR	14	1	1	SCALPEL	1243	1	n/a	0	n/a	n/a	n/a	n/a	n/a
3603.572	n/a	RECOG_CONF	1801786	n/a	LTP098	ltpFR	14	1	1	SCALPEL	1243	n/a	5	0	n/a	n/a	n/a	n/a	n/a
3604.828	n/a	RECOG_TARGET	1802414	n/a	LTP098	ltpFR	14	1	1	FRAGRANCE	599	1	5	0	n/a	n/a	n/a	n/a	n/a
3605.364	n/a	RECOG_RESP	1802682	n/a	LTP098	ltpFR	14	1	1	FRAGRANCE	599	1	n/a	0	n/a	n/a	n/a	n/a	n/a
3605.828	n/a	RECOG_CONF	1802914	n/a	LTP098	ltpFR	14	1	1	FRAGRANCE	599	n/a	5	0	n/a	n/a	n/a	n/a	n/a
3607.112	n/a	RECOG_TARGET	1803556	n/a	LTP098	ltpFR	14	1	1	LAUNDRY	803	0	1	0	n/a	n/a	n/a	n/a	n/a
3608.012	n/a	RECOG_RESP	1804006	n/a	LTP098	ltpFR	14	1	1	LAUNDRY	803	0	n/a	0	n/a	n/a	n/a	n/a	n/a
3608.53	n/a	RECOG_CONF	1804265	n/a	LTP098	ltpFR	14	1	1	LAUNDRY	803	n/a	1	0	n/a	n/a	n/a	n/a	n/a
3609.77	n/a	RECOG_LURE	1804885	n/a	LTP098	ltpFR	14	1	n/a	BABY	64	0	1	n/a	n/a	n/a	n/a	n/a	n/a
3610.518	n/a	RECOG_RESP	1805259	n/a	LTP098	ltpFR	14	1	n/a	BABY	64	0	n/a	n/a	n/a	n/a	n/a	n/a	n/a
3610.998	n/a	RECOG_CONF	1805499	n/a	LTP098	ltpFR	14	1	n/a	BABY	64	n/a	1	n/a	n/a	n/a	n/a	n/a	n/a
3612.204	n/a	RECOG_LURE	1806102	n/a	LTP098	ltpFR	14	1	n/a	SUITE	1404	0	1	n/a	n/a	n/a	n/a	n/a	n/a
3613.028	n/a	RECOG_RESP	1806514	n/a	LTP098	ltpFR	14	1	n/a	SUITE	1404	0	n/a	n/a	n/a	n/a	n/a	n/a	n/a
3613.474	n/a	RECOG_CONF	1806737	n/a	LTP098	ltpFR	14	1	n/a	SUITE	1404	n/a	1	n/a	n/a	n/a	n/a	n/a	n/a
3614.76	n/a	RECOG_LURE	1807380	n/a	LTP098	ltpFR	14	1	n/a	MINT	898	0	1	n/a	n/a	n/a	n/a	n/a	n/a
3615.506	n/a	RECOG_RESP	1807753	n/a	LTP098	ltpFR	14	1	n/a	MINT	898	0	n/a	n/a	n/a	n/a	n/a	n/a	n/a
3615.954	n/a	RECOG_CONF	1807977	n/a	LTP098	ltpFR	14	1	n/a	MINT	898	n/a	1	n/a	n/a	n/a	n/a	n/a	n/a
3617.17	n/a	RECOG_TARGET	1808585	n/a	LTP098	ltpFR	14	1	0	PERCH	1048	1	5	1	n/a	n/a	n/a	n/a	n/a
3617.752	n/a	RECOG_RESP	1808876	n/a	LTP098	ltpFR	14	1	0	PERCH	1048	1	n/a	1	n/a	n/a	n/a	n/a	n/a
3618.124	n/a	RECOG_CONF	1809062	n/a	LTP098	ltpFR	14	1	0	PERCH	1048	n/a	5	1	n/a	n/a	n/a	n/a	n/a
3619.378	n/a	RECOG_TARGET	1809689	n/a	LTP098	ltpFR	14	1	0	SALAD	1224	0	1	0	n/a	n/a	n/a	n/a	n/a
3620.854	n/a	RECOG_RESP	1810427	n/a	LTP098	ltpFR	14	1	0	SALAD	1224	0	n/a	0	n/a	n/a	n/a	n/a	n/a
3621.394	n/a	RECOG_CONF	1810697	n/a	LTP098	ltpFR	14	1	0	SALAD	1224	n/a	1	0	n/a	n/a	n/a	n/a	n/a
3622.752	n/a	RECOG_TARGET	1811376	n/a	LTP098	ltpFR	14	1	0	OWNER	993	1	5	1	n/a	n/a	n/a	n/a	n/a
3623.458	n/a	RECOG_RESP	1811729	n/a	LTP098	ltpFR	14	1	0	OWNER	993	1	n/a	1	n/a	n/a	n/a	n/a	n/a
3623.968	n/a	RECOG_CONF	1811984	n/a	LTP098	ltpFR	14	1	0	OWNER	993	n/a	5	1	n/a	n/a	n/a	n/a	n/a
3625.378	n/a	RECOG_LURE	1812689	n/a	LTP098	ltpFR	14	1	n/a	SHOE	1288	0	1	n/a	n/a	n/a	n/a	n/a	n/a
3626.258	n/a	RECOG_RESP	1813129	n/a	LTP098	ltpFR	14	1	n/a	SHOE	1288	0	n/a	n/a	n/a	n/a	n/a	n/a	n/a
3626.75	n/a	RECOG_CONF	1813375	n/a	LTP098	ltpFR	14	1	n/a	SHOE	1288	n/a	1	n/a	n/a	n/a	n/a	n/a	n/a
3627.986	n/a	RECOG_LURE	1813993	n/a	LTP098	ltpFR	14	1	n/a	NURSERY	964	0	1	n/a	n/a	n/a	n/a	n/a	n/a
3628.758	n/a	RECOG_RESP	1814379	n/a	LTP098	ltpFR	14	1	n/a	NURSERY	964	0	n/a	n/a	n/a	n/a	n/a	n/a	n/a
3629.226	n/a	RECOG_CONF	1814613	n/a	LTP098	ltpFR	14	1	n/a	NURSERY	964	n/a	1	n/a	n/a	n/a	n/a	n/a	n/a
3630.47	n/a	RECOG_TARGET	1815235	n/a	LTP098	ltpFR	14	1	0	AUTOMOBILE	62	1	5	1	n/a	n/a	n/a	n/a	n/a
3631.126	n/a	RECOG_RESP	1815563	n/a	LTP098	ltpFR	14	1	0	AUTOMOBILE	62	1	n/a	1	n/a	n/a	n/a	n/a	n/a
3631.532	n/a	RECOG_CONF	1815766	n/a	LTP098	ltpFR	14	1	0	AUTOMOBILE	62	n/a	5	1	n/a	n/a	n/a	n/a	n/a
3632.868	n/a	RECOG_TARGET	1816434	n/a	LTP098	ltpFR	14	1	1	GANG	619	1	5	0	n/a	n/a	n/a	n/a	n/a
3633.666	n/a	RECOG_RESP	1816833	n/a	LTP098	ltpFR	14	1	1	GANG	619	1	n/a	0	n/a	n/a	n/a	n/a	n/a
3634.084	n/a	RECOG_CONF	1817042	n/a	LTP098	ltpFR	14	1	1	GANG	619	n/a	5	0	n/a	n/a	n/a	n/a	n/a
3635.402	n/a	RECOG_TARGET	1817701	n/a	LTP098	ltpFR	14	1	0	NOTEBOOK	959	0	5	0	n/a	n/a	n/a	n/a	n/a
3636.046	n/a	RECOG_RESP	1818023	n/a	LTP098	ltpFR	14	1	0	NOTEBOOK	959	0	n/a	0	n/a	n/a	n/a	n/a	n/a
3636.476	n/a	RECOG_CONF	1818238	n/a	LTP098	ltpFR	14	1	0	NOTEBOOK	959	n/a	5	0	n/a	n/a	n/a	n/a	n/a
3637.668	n/a	RECOG_LURE	1818834	n/a	LTP098	ltpFR	14	1	n/a	ZEBRA	1635	0	1	n/a	n/a	n/a	n/a	n/a	n/a
3638.43	n/a	RECOG_RESP	1819215	n/a	LTP098	ltpFR	14	1	n/a	ZEBRA	1635	0	n/a	n/a	n/a	n/a	n/a	n/a	n/a
3638.874	n/a	RECOG_CONF	1819437	n/a	LTP098	ltpFR	14	1	n/a	ZEBRA	1635	n/a	1	n/a	n/a	n/a	n/a	n/a	n/a
3640.17	n/a	RECOG_TARGET	1820085	n/a	LTP098	ltpFR	14	1	0	ANTEATER	26	1	5	1	n/a	n/a	n/a	n/a	n/a
3640.794	n/a	RECOG_RESP	1820397	n/a	LTP098	ltpFR	14	1	0	ANTEATER	26	1	n/a	1	n/a	n/a	n/a	n/a	n/a
3641.252	n/a	RECOG_CONF	1820626	n/a	LTP098	ltpFR	14	1	0	ANTEATER	26	n/a	5	1	n/a	n/a	n/a	n/a	n/a
3642.552	n/a	RECOG_TARGET	1821276	n/a	LTP098	ltpFR	14	1	1	SEAGULL	1261	1	1	1	n/a	n/a	n/a	n/a	n/a
3643.22	n/a	RECOG_RESP	1821610	n/a	LTP098	ltpFR	14	1	1	SEAGULL	1261	1	n/a	1	n/a	n/a	n/a	n/a	n/a
3643.664	n/a	RECOG_CONF	1821832	n/a	LTP098	ltpFR	14	1	1	SEAGULL	1261	n/a	1	1	n/a	n/a	n/a	n/a	n/a
3646.732	n/a	REC_START	1823366	n/a	LTP098	ltpFR	14	2	n/a	n/a	n/a	n/a	n/a	n/a	n/a	n/a	n/a	n/a	n/a
3646.768	n/a	RECOG_TARGET	1823384	n/a	LTP098	ltpFR	14	2	0	TANK	1432	1	5	1	n/a	n/a	n/a	n/a	n/a
3650.034	n/a	RECOG_RESP	1825017	n/a	LTP098	ltpFR	14	2	0	TANK	1432	1	n/a	1	n/a	n/a	n/a	n/a	n/a
3650.498	n/a	RECOG_CONF	1825249	n/a	LTP098	ltpFR	14	2	0	TANK	1432	n/a	5	1	n/a	n/a	n/a	n/a	n/a
3651.768	n/a	RECOG_TARGET	1825884	n/a	LTP098	ltpFR	14	2	0	NUCLEUS	961	1	5	0	n/a	n/a	n/a	n/a	n/a
3652.318	n/a	RECOG_RESP	1826159	n/a	LTP098	ltpFR	14	2	0	NUCLEUS	961	1	n/a	0	n/a	n/a	n/a	n/a	n/a
3652.696	n/a	RECOG_CONF	1826348	n/a	LTP098	ltpFR	14	2	0	NUCLEUS	961	n/a	5	0	n/a	n/a	n/a	n/a	n/a
3653.884	n/a	RECOG_TARGET	1826942	n/a	LTP098	ltpFR	14	2	1	GUM	672	1	5	0	n/a	n/a	n/a	n/a	n/a
3654.454	n/a	RECOG_RESP	1827227	n/a	LTP098	ltpFR	14	2	1	GUM	672	1	n/a	0	n/a	n/a	n/a	n/a	n/a
3654.772	n/a	RECOG_CONF	1827386	n/a	LTP098	ltpFR	14	2	1	GUM	672	n/a	5	0	n/a	n/a	n/a	n/a	n/a
3655.984	n/a	RECOG_TARGET	1827992	n/a	LTP098	ltpFR	14	2	-1	CABBAGE	210	1	5	-1	n/a	n/a	n/a	n/a	n/a
3656.878	n/a	RECOG_RESP	1828439	n/a	LTP098	ltpFR	14	2	-1	CABBAGE	210	1	n/a	-1	n/a	n/a	n/a	n/a	n/a
3657.306	n/a	RECOG_CONF	1828653	n/a	LTP098	ltpFR	14	2	-1	CABBAGE	210	n/a	5	-1	n/a	n/a	n/a	n/a	n/a
3658.486	n/a	RECOG_TARGET	1829243	n/a	LTP098	ltpFR	14	2	1	SCALE	1241	1	5	0	n/a	n/a	n/a	n/a	n/a
3659.292	n/a	RECOG_RESP	1829646	n/a	LTP098	ltpFR	14	2	1	SCALE	1241	1	n/a	0	n/a	n/a	n/a	n/a	n/a
3659.71	n/a	RECOG_CONF	1829855	n/a	LTP098	ltpFR	14	2	1	SCALE	1241	n/a	5	0	n/a	n/a	n/a	n/a	n/a
3660.984	n/a	RECOG_LURE	1830492	n/a	LTP098	ltpFR	14	2	n/a	DAM	436	0	5	n/a	n/a	n/a	n/a	n/a	n/a
3661.712	n/a	RECOG_RESP	1830856	n/a	LTP098	ltpFR	14	2	n/a	DAM	436	0	n/a	n/a	n/a	n/a	n/a	n/a	n/a
3662.156	n/a	RECOG_CONF	1831078	n/a	LTP098	ltpFR	14	2	n/a	DAM	436	n/a	5	n/a	n/a	n/a	n/a	n/a	n/a
3663.31	n/a	RECOG_LURE	1831655	n/a	LTP098	ltpFR	14	2	n/a	FINGERNAIL	568	1	5	n/a	n/a	n/a	n/a	n/a	n/a
3663.958	n/a	RECOG_RESP	1831979	n/a	LTP098	ltpFR	14	2	n/a	FINGERNAIL	568	1	n/a	n/a	n/a	n/a	n/a	n/a	n/a
3664.38	n/a	RECOG_CONF	1832190	n/a	LTP098	ltpFR	14	2	n/a	FINGERNAIL	568	n/a	5	n/a	n/a	n/a	n/a	n/a	n/a
3665.552	n/a	RECOG_TARGET	1832776	n/a	LTP098	ltpFR	14	2	0	BALLOON	75	1	5	0	n/a	n/a	n/a	n/a	n/a
3666.712	n/a	RECOG_RESP	1833356	n/a	LTP098	ltpFR	14	2	0	BALLOON	75	1	n/a	0	n/a	n/a	n/a	n/a	n/a
3667.122	n/a	RECOG_CONF	1833561	n/a	LTP098	ltpFR	14	2	0	BALLOON	75	n/a	5	0	n/a	n/a	n/a	n/a	n/a
3668.32	n/a	RECOG_TARGET	1834160	n/a	LTP098	ltpFR	14	2	1	MOOSE	915	1	1	1	n/a	n/a	n/a	n/a	n/a
3669.076	n/a	RECOG_RESP	1834538	n/a	LTP098	ltpFR	14	2	1	MOOSE	915	1	n/a	1	n/a	n/a	n/a	n/a	n/a
3669.516	n/a	RECOG_CONF	1834758	n/a	LTP098	ltpFR	14	2	1	MOOSE	915	n/a	1	1	n/a	n/a	n/a	n/a	n/a
3670.752	n/a	RECOG_TARGET	1835376	n/a	LTP098	ltpFR	14	2	-1	SWATTER	1418	1	5	-1	n/a	n/a	n/a	n/a	n/a
3671.482	n/a	RECOG_RESP	1835741	n/a	LTP098	ltpFR	14	2	-1	SWATTER	1418	1	n/a	-1	n/a	n/a	n/a	n/a	n/a
3671.904	n/a	RECOG_CONF	1835952	n/a	LTP098	ltpFR	14	2	-1	SWATTER	1418	n/a	5	-1	n/a	n/a	n/a	n/a	n/a
3673.144	n/a	RECOG_TARGET	1836572	n/a	LTP098	ltpFR	14	2	0	PROFESSOR	1131	1	5	1	n/a	n/a	n/a	n/a	n/a
3673.74	n/a	RECOG_RESP	1836870	n/a	LTP098	ltpFR	14	2	0	PROFESSOR	1131	1	n/a	1	n/a	n/a	n/a	n/a	n/a
3674.188	n/a	RECOG_CONF	1837094	n/a	LTP098	ltpFR	14	2	0	PROFESSOR	1131	n/a	5	1	n/a	n/a	n/a	n/a	n/a
3675.386	n/a	RECOG_TARGET	1837693	n/a	LTP098	ltpFR	14	2	0	STAFF	1365	1	5	1	n/a	n/a	n/a	n/a	n/a
3675.97	n/a	RECOG_RESP	1837985	n/a	LTP098	ltpFR	14	2	0	STAFF	1365	1	n/a	1	n/a	n/a	n/a	n/a	n/a
3676.388	n/a	RECOG_CONF	1838194	n/a	LTP098	ltpFR	14	2	0	STAFF	1365	n/a	5	1	n/a	n/a	n/a	n/a	n/a
3677.618	n/a	RECOG_TARGET	1838809	n/a	LTP098	ltpFR	14	2	0	ASIA	46	1	5	1	n/a	n/a	n/a	n/a	n/a
3678.256	n/a	RECOG_RESP	1839128	n/a	LTP098	ltpFR	14	2	0	ASIA	46	1	n/a	1	n/a	n/a	n/a	n/a	n/a
3678.616	n/a	RECOG_CONF	1839308	n/a	LTP098	ltpFR	14	2	0	ASIA	46	n/a	5	1	n/a	n/a	n/a	n/a	n/a
3679.858	n/a	RECOG_LURE	1839929	n/a	LTP098	ltpFR	14	2	n/a	CAPTAIN	239	1	1	n/a	n/a	n/a	n/a	n/a	n/a
3680.616	n/a	RECOG_RESP	1840308	n/a	LTP098	ltpFR	14	2	n/a	CAPTAIN	239	1	n/a	n/a	n/a	n/a	n/a	n/a	n/a
3681.01	n/a	RECOG_CONF	1840505	n/a	LTP098	ltpFR	14	2	n/a	CAPTAIN	239	n/a	1	n/a	n/a	n/a	n/a	n/a	n/a
3682.342	n/a	RECOG_LURE	1841171	n/a	LTP098	ltpFR	14	2	n/a	WASP	1593	0	4	n/a	n/a	n/a	n/a	n/a	n/a
3683.1	n/a	RECOG_RESP	1841550	n/a	LTP098	ltpFR	14	2	n/a	WASP	1593	0	n/a	n/a	n/a	n/a	n/a	n/a	n/a
3683.546	n/a	RECOG_CONF	1841773	n/a	LTP098	ltpFR	14	2	n/a	WASP	1593	n/a	4	n/a	n/a	n/a	n/a	n/a	n/a
3684.734	n/a	RECOG_TARGET	1842367	n/a	LTP098	ltpFR	14	2	0	STUDENT	1395	1	5	1	n/a	n/a	n/a	n/a	n/a
3685.39	n/a	RECOG_RESP	1842695	n/a	LTP098	ltpFR	14	2	0	STUDENT	1395	1	n/a	1	n/a	n/a	n/a	n/a	n/a
3685.75	n/a	RECOG_CONF	1842875	n/a	LTP098	ltpFR	14	2	0	STUDENT	1395	n/a	5	1	n/a	n/a	n/a	n/a	n/a
3686.992	n/a	RECOG_TARGET	1843496	n/a	LTP098	ltpFR	14	2	1	CLAW	319	1	5	0	n/a	n/a	n/a	n/a	n/a
3687.566	n/a	RECOG_RESP	1843783	n/a	LTP098	ltpFR	14	2	1	CLAW	319	1	n/a	0	n/a	n/a	n/a	n/a	n/a
3688.012	n/a	RECOG_CONF	1844006	n/a	LTP098	ltpFR	14	2	1	CLAW	319	n/a	5	0	n/a	n/a	n/a	n/a	n/a
3689.168	n/a	RECOG_LURE	1844584	n/a	LTP098	ltpFR	14	2	n/a	HAMMOCK	681	0	1	n/a	n/a	n/a	n/a	n/a	n/a
3689.966	n/a	RECOG_RESP	1844983	n/a	LTP098	ltpFR	14	2	n/a	HAMMOCK	681	0	n/a	n/a	n/a	n/a	n/a	n/a	n/a
3690.35	n/a	RECOG_CONF	1845175	n/a	LTP098	ltpFR	14	2	n/a	HAMMOCK	681	n/a	1	n/a	n/a	n/a	n/a	n/a	n/a
3691.568	n/a	RECOG_LURE	1845784	n/a	LTP098	ltpFR	14	2	n/a	SCALLOP	1242	0	1	n/a	n/a	n/a	n/a	n/a	n/a
3692.344	n/a	RECOG_RESP	1846172	n/a	LTP098	ltpFR	14	2	n/a	SCALLOP	1242	0	n/a	n/a	n/a	n/a	n/a	n/a	n/a
3692.764	n/a	RECOG_CONF	1846382	n/a	LTP098	ltpFR	14	2	n/a	SCALLOP	1242	n/a	1	n/a	n/a	n/a	n/a	n/a	n/a
3694.008	n/a	RECOG_TARGET	1847004	n/a	LTP098	ltpFR	14	2	0	SHOWER	1296	1	5	1	n/a	n/a	n/a	n/a	n/a
3694.644	n/a	RECOG_RESP	1847322	n/a	LTP098	ltpFR	14	2	0	SHOWER	1296	1	n/a	1	n/a	n/a	n/a	n/a	n/a
3695.008	n/a	RECOG_CONF	1847504	n/a	LTP098	ltpFR	14	2	0	SHOWER	1296	n/a	5	1	n/a	n/a	n/a	n/a	n/a
3698.288	n/a	REC_START	1849144	n/a	LTP098	ltpFR	14	3	n/a	n/a	n/a	n/a	n/a	n/a	n/a	n/a	n/a	n/a	n/a
3698.326	n/a	RECOG_TARGET	1849163	n/a	LTP098	ltpFR	14	3	-1	GUITAR	670	1	5	-1	n/a	n/a	n/a	n/a	n/a
3698.98	n/a	RECOG_RESP	1849490	n/a	LTP098	ltpFR	14	3	-1	GUITAR	670	1	n/a	-1	n/a	n/a	n/a	n/a	n/a
3699.4	n/a	RECOG_CONF	1849700	n/a	LTP098	ltpFR	14	3	-1	GUITAR	670	n/a	5	-1	n/a	n/a	n/a	n/a	n/a
3700.6	n/a	RECOG_TARGET	1850300	n/a	LTP098	ltpFR	14	3	0	CUSTOMER	430	1	5	1	n/a	n/a	n/a	n/a	n/a
3701.724	n/a	RECOG_RESP	1850862	n/a	LTP098	ltpFR	14	3	0	CUSTOMER	430	1	n/a	1	n/a	n/a	n/a	n/a	n/a
3702.094	n/a	RECOG_CONF	1851047	n/a	LTP098	ltpFR	14	3	0	CUSTOMER	430	n/a	5	1	n/a	n/a	n/a	n/a	n/a
3703.476	n/a	RECOG_TARGET	1851738	n/a	LTP098	ltpFR	14	3	-1	DOCUMENT	479	1	5	-1	n/a	n/a	n/a	n/a	n/a
3704.164	n/a	RECOG_RESP	1852082	n/a	LTP098	ltpFR	14	3	-1	DOCUMENT	479	1	n/a	-1	n/a	n/a	n/a	n/a	n/a
3704.518	n/a	RECOG_CONF	1852259	n/a	LTP098	ltpFR	14	3	-1	DOCUMENT	479	n/a	5	-1	n/a	n/a	n/a	n/a	n/a
3705.826	n/a	RECOG_TARGET	1852913	n/a	LTP098	ltpFR	14	3	0	YOUTH	1634	1	5	1	n/a	n/a	n/a	n/a	n/a
3706.414	n/a	RECOG_RESP	1853207	n/a	LTP098	ltpFR	14	3	0	YOUTH	1634	1	n/a	1	n/a	n/a	n/a	n/a	n/a
3706.748	n/a	RECOG_CONF	1853374	n/a	LTP098	ltpFR	14	3	0	YOUTH	1634	n/a	5	1	n/a	n/a	n/a	n/a	n/a
3708.126	n/a	RECOG_TARGET	1854063	n/a	LTP098	ltpFR	14	3	-1	VEAL	1551	1	5	-1	n/a	n/a	n/a	n/a	n/a
3708.764	n/a	RECOG_RESP	1854382	n/a	LTP098	ltpFR	14	3	-1	VEAL	1551	1	n/a	-1	n/a	n/a	n/a	n/a	n/a
3709.148	n/a	RECOG_CONF	1854574	n/a	LTP098	ltpFR	14	3	-1	VEAL	1551	n/a	5	-1	n/a	n/a	n/a	n/a	n/a
3710.342	n/a	RECOG_TARGET	1855171	n/a	LTP098	ltpFR	14	3	-1	DOLLAR	482	1	1	-1	n/a	n/a	n/a	n/a	n/a
3711.06	n/a	RECOG_RESP	1855530	n/a	LTP098	ltpFR	14	3	-1	DOLLAR	482	1	n/a	-1	n/a	n/a	n/a	n/a	n/a
3711.504	n/a	RECOG_CONF	1855752	n/a	LTP098	ltpFR	14	3	-1	DOLLAR	482	n/a	1	-1	n/a	n/a	n/a	n/a	n/a
3712.734	n/a	RECOG_TARGET	1856367	n/a	LTP098	ltpFR	14	3	0	FLESH	579	1	5	0	n/a	n/a	n/a	n/a	n/a
3713.26	n/a	RECOG_RESP	1856630	n/a	LTP098	ltpFR	14	3	0	FLESH	579	1	n/a	0	n/a	n/a	n/a	n/a	n/a
3713.598	n/a	RECOG_CONF	1856799	n/a	LTP098	ltpFR	14	3	0	FLESH	579	n/a	5	0	n/a	n/a	n/a	n/a	n/a
3714.884	n/a	RECOG_TARGET	1857442	n/a	LTP098	ltpFR	14	3	1	LIP	828	1	5	1	n/a	n/a	n/a	n/a	n/a
3715.404	n/a	RECOG_RESP	1857702	n/a	LTP098	ltpFR	14	3	1	LIP	828	1	n/a	1	n/a	n/a	n/a	n/a	n/a
3715.802	n/a	RECOG_CONF	1857901	n/a	LTP098	ltpFR	14	3	1	LIP	828	n/a	5	1	n/a	n/a	n/a	n/a	n/a
3717.076	n/a	RECOG_TARGET	1858538	n/a	LTP098	ltpFR	14	3	0	STREAM	1392	1	5	1	n/a	n/a	n/a	n/a	n/a
3717.68	n/a	RECOG_RESP	1858840	n/a	LTP098	ltpFR	14	3	0	STREAM	1392	1	n/a	1	n/a	n/a	n/a	n/a	n/a
3718.098	n/a	RECOG_CONF	1859049	n/a	LTP098	ltpFR	14	3	0	STREAM	1392	n/a	5	1	n/a	n/a	n/a	n/a	n/a
3719.358	n/a	RECOG_TARGET	1859679	n/a	LTP098	ltpFR	14	3	1	LEG	809	1	5	1	n/a	n/a	n/a	n/a	n/a
3719.994	n/a	RECOG_RESP	1859997	n/a	LTP098	ltpFR	14	3	1	LEG	809	1	n/a	1	n/a	n/a	n/a	n/a	n/a
3720.412	n/a	RECOG_CONF	1860206	n/a	LTP098	ltpFR	14	3	1	LEG	809	n/a	5	1	n/a	n/a	n/a	n/a	n/a
3721.616	n/a	RECOG_TARGET	1860808	n/a	LTP098	ltpFR	14	3	-1	RUM	1217	1	5	-1	n/a	n/a	n/a	n/a	n/a
3722.662	n/a	RECOG_RESP	1861331	n/a	LTP098	ltpFR	14	3	-1	RUM	1217	1	n/a	-1	n/a	n/a	n/a	n/a	n/a
3723.042	n/a	RECOG_CONF	1861521	n/a	LTP098	ltpFR	14	3	-1	RUM	1217	n/a	5	-1	n/a	n/a	n/a	n/a	n/a
3724.318	n/a	RECOG_TARGET	1862159	n/a	LTP098	ltpFR	14	3	-1	ISLAND	745	1	5	-1	n/a	n/a	n/a	n/a	n/a
3724.848	n/a	RECOG_RESP	1862424	n/a	LTP098	ltpFR	14	3	-1	ISLAND	745	1	n/a	-1	n/a	n/a	n/a	n/a	n/a
3725.168	n/a	RECOG_CONF	1862584	n/a	LTP098	ltpFR	14	3	-1	ISLAND	745	n/a	5	-1	n/a	n/a	n/a	n/a	n/a
3726.476	n/a	RECOG_TARGET	1863238	n/a	LTP098	ltpFR	14	3	1	PLANT	1083	1	5	1	n/a	n/a	n/a	n/a	n/a
3726.974	n/a	RECOG_RESP	1863487	n/a	LTP098	ltpFR	14	3	1	PLANT	1083	1	n/a	1	n/a	n/a	n/a	n/a	n/a
3727.398	n/a	RECOG_CONF	1863699	n/a	LTP098	ltpFR	14	3	1	PLANT	1083	n/a	5	1	n/a	n/a	n/a	n/a	n/a
3728.65	n/a	RECOG_TARGET	1864325	n/a	LTP098	ltpFR	14	3	-1	PAVEMENT	1028	1	5	-1	n/a	n/a	n/a	n/a	n/a
3729.214	n/a	RECOG_RESP	1864607	n/a	LTP098	ltpFR	14	3	-1	PAVEMENT	1028	1	n/a	-1	n/a	n/a	n/a	n/a	n/a
3729.612	n/a	RECOG_CONF	1864806	n/a	LTP098	ltpFR	14	3	-1	PAVEMENT	1028	n/a	5	-1	n/a	n/a	n/a	n/a	n/a
3730.882	n/a	RECOG_TARGET	1865441	n/a	LTP098	ltpFR	14	3	1	THUMB	1462	1	5	1	n/a	n/a	n/a	n/a	n/a
3731.504	n/a	RECOG_RESP	1865752	n/a	LTP098	ltpFR	14	3	1	THUMB	1462	1	n/a	1	n/a	n/a	n/a	n/a	n/a
3731.928	n/a	RECOG_CONF	1865964	n/a	LTP098	ltpFR	14	3	1	THUMB	1462	n/a	5	1	n/a	n/a	n/a	n/a	n/a
3733.192	n/a	RECOG_LURE	1866596	n/a	LTP098	ltpFR	14	3	n/a	THESAURUS	1454	0	1	n/a	n/a	n/a	n/a	n/a	n/a
3733.918	n/a	RECOG_RESP	1866959	n/a	LTP098	ltpFR	14	3	n/a	THESAURUS	1454	0	n/a	n/a	n/a	n/a	n/a	n/a	n/a
3734.406	n/a	RECOG_CONF	1867203	n/a	LTP098	ltpFR	14	3	n/a	THESAURUS	1454	n/a	1	n/a	n/a	n/a	n/a	n/a	n/a
3735.55	n/a	RECOG_TARGET	1867775	n/a	LTP098	ltpFR	14	3	0	JURY	766	0	1	1	n/a	n/a	n/a	n/a	n/a
3736.258	n/a	RECOG_RESP	1868129	n/a	LTP098	ltpFR	14	3	0	JURY	766	0	n/a	1	n/a	n/a	n/a	n/a	n/a
3736.722	n/a	RECOG_RESP_VV	1868361	n/a	LTP098	ltpFR	14	3	0	JURY	766	n/a	1	1	n/a	n/a	n/a	n/a	n/a
3737.456	n/a	RECOG_CONF	1868728	n/a	LTP098	ltpFR	14	3	0	JURY	766	n/a	1	1	n/a	n/a	n/a	n/a	n/a
3738.808	n/a	RECOG_LURE	1869404	n/a	LTP098	ltpFR	14	3	n/a	NURSE	963	0	1	n/a	n/a	n/a	n/a	n/a	n/a
3740.014	n/a	RECOG_RESP	1870007	n/a	LTP098	ltpFR	14	3	n/a	NURSE	963	0	n/a	n/a	n/a	n/a	n/a	n/a	n/a
3740.608	n/a	RECOG_CONF	1870304	n/a	LTP098	ltpFR	14	3	n/a	NURSE	963	n/a	1	n/a	n/a	n/a	n/a	n/a	n/a
3741.882	n/a	RECOG_LURE	1870941	n/a	LTP098	ltpFR	14	3	n/a	LABYRINTH	791	0	4	n/a	n/a	n/a	n/a	n/a	n/a
3742.774	n/a	RECOG_RESP	1871387	n/a	LTP098	ltpFR	14	3	n/a	LABYRINTH	791	0	n/a	n/a	n/a	n/a	n/a	n/a	n/a
3743.294	n/a	RECOG_CONF	1871647	n/a	LTP098	ltpFR	14	3	n/a	LABYRINTH	791	n/a	4	n/a	n/a	n/a	n/a	n/a	n/a
3744.55	n/a	RECOG_LURE	1872275	n/a	LTP098	ltpFR	14	3	n/a	PLUTO	1092	0	5	n/a	n/a	n/a	n/a	n/a	n/a
3745.458	n/a	RECOG_RESP	1872729	n/a	LTP098	ltpFR	14	3	n/a	PLUTO	1092	0	n/a	n/a	n/a	n/a	n/a	n/a	n/a
3745.956	n/a	RECOG_CONF	1872978	n/a	LTP098	ltpFR	14	3	n/a	PLUTO	1092	n/a	5	n/a	n/a	n/a	n/a	n/a	n/a
3750.22	n/a	REC_START	1875110	n/a	LTP098	ltpFR	14	4	n/a	n/a	n/a	n/a	n/a	n/a	n/a	n/a	n/a	n/a	n/a
3750.25	n/a	RECOG_TARGET	1875125	n/a	LTP098	ltpFR	14	4	-1	ANT	25	1	5	-1	n/a	n/a	n/a	n/a	n/a
3751.262	n/a	RECOG_RESP	1875631	n/a	LTP098	ltpFR	14	4	-1	ANT	25	1	n/a	-1	n/a	n/a	n/a	n/a	n/a
3751.728	n/a	RECOG_CONF	1875864	n/a	LTP098	ltpFR	14	4	-1	ANT	25	n/a	5	-1	n/a	n/a	n/a	n/a	n/a
3752.882	n/a	RECOG_LURE	1876441	n/a	LTP098	ltpFR	14	4	n/a	CUPBOARD	425	0	4	n/a	n/a	n/a	n/a	n/a	n/a
3753.516	n/a	RECOG_RESP	1876758	n/a	LTP098	ltpFR	14	4	n/a	CUPBOARD	425	0	n/a	n/a	n/a	n/a	n/a	n/a	n/a
3753.99	n/a	RECOG_CONF	1876995	n/a	LTP098	ltpFR	14	4	n/a	CUPBOARD	425	n/a	4	n/a	n/a	n/a	n/a	n/a	n/a
3755.074	n/a	RECOG_TARGET	1877537	n/a	LTP098	ltpFR	14	4	1	FORK	594	1	5	0	n/a	n/a	n/a	n/a	n/a
3755.676	n/a	RECOG_RESP	1877838	n/a	LTP098	ltpFR	14	4	1	FORK	594	1	n/a	0	n/a	n/a	n/a	n/a	n/a
3756.1	n/a	RECOG_CONF	1878050	n/a	LTP098	ltpFR	14	4	1	FORK	594	n/a	5	0	n/a	n/a	n/a	n/a	n/a
3757.358	n/a	RECOG_TARGET	1878679	n/a	LTP098	ltpFR	14	4	-1	PRISONER	1128	1	5	-1	n/a	n/a	n/a	n/a	n/a
3758.066	n/a	RECOG_RESP	1879033	n/a	LTP098	ltpFR	14	4	-1	PRISONER	1128	1	n/a	-1	n/a	n/a	n/a	n/a	n/a
3758.466	n/a	RECOG_CONF	1879233	n/a	LTP098	ltpFR	14	4	-1	PRISONER	1128	n/a	5	-1	n/a	n/a	n/a	n/a	n/a
3759.648	n/a	RECOG_TARGET	1879824	n/a	LTP098	ltpFR	14	4	1	OTTER	986	1	5	1	n/a	n/a	n/a	n/a	n/a
3760.422	n/a	RECOG_RESP	1880211	n/a	LTP098	ltpFR	14	4	1	OTTER	986	1	n/a	1	n/a	n/a	n/a	n/a	n/a
3760.794	n/a	RECOG_CONF	1880397	n/a	LTP098	ltpFR	14	4	1	OTTER	986	n/a	5	1	n/a	n/a	n/a	n/a	n/a
3762.04	n/a	RECOG_LURE	1881020	n/a	LTP098	ltpFR	14	4	n/a	MASCARA	875	0	4	n/a	n/a	n/a	n/a	n/a	n/a
3762.786	n/a	RECOG_RESP	1881393	n/a	LTP098	ltpFR	14	4	n/a	MASCARA	875	0	n/a	n/a	n/a	n/a	n/a	n/a	n/a
3763.25	n/a	RECOG_CONF	1881625	n/a	LTP098	ltpFR	14	4	n/a	MASCARA	875	n/a	4	n/a	n/a	n/a	n/a	n/a	n/a
3764.384	n/a	RECOG_TARGET	1882192	n/a	LTP098	ltpFR	14	4	1	MAPLE	866	1	5	1	n/a	n/a	n/a	n/a	n/a
3765.162	n/a	RECOG_RESP	1882581	n/a	LTP098	ltpFR	14	4	1	MAPLE	866	1	n/a	1	n/a	n/a	n/a	n/a	n/a
3765.58	n/a	RECOG_CONF	1882790	n/a	LTP098	ltpFR	14	4	1	MAPLE	866	n/a	5	1	n/a	n/a	n/a	n/a	n/a
3766.848	n/a	RECOG_TARGET	1883424	n/a	LTP098	ltpFR	14	4	-1	BEGGAR	117	1	5	-1	n/a	n/a	n/a	n/a	n/a
3767.466	n/a	RECOG_RESP	1883733	n/a	LTP098	ltpFR	14	4	-1	BEGGAR	117	1	n/a	-1	n/a	n/a	n/a	n/a	n/a
3767.862	n/a	RECOG_CONF	1883931	n/a	LTP098	ltpFR	14	4	-1	BEGGAR	117	n/a	5	-1	n/a	n/a	n/a	n/a	n/a
3769.1	n/a	RECOG_TARGET	1884550	n/a	LTP098	ltpFR	14	4	1	DRIVER	499	1	5	1	n/a	n/a	n/a	n/a	n/a
3770.778	n/a	RECOG_RESP	1885389	n/a	LTP098	ltpFR	14	4	1	DRIVER	499	1	n/a	1	n/a	n/a	n/a	n/a	n/a
3771.174	n/a	RECOG_CONF	1885587	n/a	LTP098	ltpFR	14	4	1	DRIVER	499	n/a	5	1	n/a	n/a	n/a	n/a	n/a
3772.416	n/a	RECOG_TARGET	1886208	n/a	LTP098	ltpFR	14	4	0	MILDEW	893	1	5	0	n/a	n/a	n/a	n/a	n/a
3772.964	n/a	RECOG_RESP	1886482	n/a	LTP098	ltpFR	14	4	0	MILDEW	893	1	n/a	0	n/a	n/a	n/a	n/a	n/a
3773.336	n/a	RECOG_CONF	1886668	n/a	LTP098	ltpFR	14	4	0	MILDEW	893	n/a	5	0	n/a	n/a	n/a	n/a	n/a
3774.532	n/a	RECOG_TARGET	1887266	n/a	LTP098	ltpFR	14	4	-1	MAILBOX	857	1	5	-1	n/a	n/a	n/a	n/a	n/a
3776.934	n/a	RECOG_RESP	1888467	n/a	LTP098	ltpFR	14	4	-1	MAILBOX	857	1	n/a	-1	n/a	n/a	n/a	n/a	n/a
3777.33	n/a	RECOG_CONF	1888665	n/a	LTP098	ltpFR	14	4	-1	MAILBOX	857	n/a	5	-1	n/a	n/a	n/a	n/a	n/a
3778.558	n/a	RECOG_TARGET	1889279	n/a	LTP098	ltpFR	14	4	0	PIER	1063	1	5	1	n/a	n/a	n/a	n/a	n/a
3779.2	n/a	RECOG_RESP	1889600	n/a	LTP098	ltpFR	14	4	0	PIER	1063	1	n/a	1	n/a	n/a	n/a	n/a	n/a
3779.534	n/a	RECOG_CONF	1889767	n/a	LTP098	ltpFR	14	4	0	PIER	1063	n/a	5	1	n/a	n/a	n/a	n/a	n/a
3780.79	n/a	RECOG_TARGET	1890395	n/a	LTP098	ltpFR	14	4	-1	FLAG	573	1	5	-1	n/a	n/a	n/a	n/a	n/a
3782.234	n/a	RECOG_RESP	1891117	n/a	LTP098	ltpFR	14	4	-1	FLAG	573	1	n/a	-1	n/a	n/a	n/a	n/a	n/a
3782.582	n/a	RECOG_CONF	1891291	n/a	LTP098	ltpFR	14	4	-1	FLAG	573	n/a	5	-1	n/a	n/a	n/a	n/a	n/a
3783.848	n/a	RECOG_LURE	1891924	n/a	LTP098	ltpFR	14	4	n/a	BOOK	149	0	1	n/a	n/a	n/a	n/a	n/a	n/a
3784.524	n/a	RECOG_RESP	1892262	n/a	LTP098	ltpFR	14	4	n/a	BOOK	149	0	n/a	n/a	n/a	n/a	n/a	n/a	n/a
3784.942	n/a	RECOG_CONF	1892471	n/a	LTP098	ltpFR	14	4	n/a	BOOK	149	n/a	1	n/a	n/a	n/a	n/a	n/a	n/a
3786.158	n/a	RECOG_TARGET	1893079	n/a	LTP098	ltpFR	14	4	0	VICTIM	1562	1	1	1	n/a	n/a	n/a	n/a	n/a
3786.754	n/a	RECOG_RESP	1893377	n/a	LTP098	ltpFR	14	4	0	VICTIM	1562	1	n/a	1	n/a	n/a	n/a	n/a	n/a
3787.18	n/a	RECOG_CONF	1893590	n/a	LTP098	ltpFR	14	4	0	VICTIM	1562	n/a	1	1	n/a	n/a	n/a	n/a	n/a
3788.35	n/a	RECOG_LURE	1894175	n/a	LTP098	ltpFR	14	4	n/a	NOTE	958	0	1	n/a	n/a	n/a	n/a	n/a	n/a
3789.068	n/a	RECOG_RESP	1894534	n/a	LTP098	ltpFR	14	4	n/a	NOTE	958	0	n/a	n/a	n/a	n/a	n/a	n/a	n/a
3789.486	n/a	RECOG_CONF	1894743	n/a	LTP098	ltpFR	14	4	n/a	NOTE	958	n/a	1	n/a	n/a	n/a	n/a	n/a	n/a
3790.664	n/a	RECOG_TARGET	1895332	n/a	LTP098	ltpFR	14	4	-1	TRAY	1498	1	5	-1	n/a	n/a	n/a	n/a	n/a
3793.986	n/a	RECOG_RESP	1896993	n/a	LTP098	ltpFR	14	4	-1	TRAY	1498	1	n/a	-1	n/a	n/a	n/a	n/a	n/a
3794.316	n/a	RECOG_RESP_VV	1897158	n/a	LTP098	ltpFR	14	4	-1	TRAY	1498	n/a	5	-1	n/a	n/a	n/a	n/a	n/a
3795.354	n/a	RECOG_CONF	1897677	n/a	LTP098	ltpFR	14	4	-1	TRAY	1498	n/a	5	-1	n/a	n/a	n/a	n/a	n/a
3796.706	n/a	RECOG_TARGET	1898353	n/a	LTP098	ltpFR	14	4	0	FATHER	554	1	4	1	n/a	n/a	n/a	n/a	n/a
3797.3	n/a	RECOG_RESP	1898650	n/a	LTP098	ltpFR	14	4	0	FATHER	554	1	n/a	1	n/a	n/a	n/a	n/a	n/a
3797.988	n/a	RECOG_CONF	1898994	n/a	LTP098	ltpFR	14	4	0	FATHER	554	n/a	4	1	n/a	n/a	n/a	n/a	n/a
3799.306	n/a	RECOG_LURE	1899653	n/a	LTP098	ltpFR	14	4	n/a	TUBE	1516	0	4	n/a	n/a	n/a	n/a	n/a	n/a
3800.078	n/a	RECOG_RESP	1900039	n/a	LTP098	ltpFR	14	4	n/a	TUBE	1516	0	n/a	n/a	n/a	n/a	n/a	n/a	n/a
3800.472	n/a	RECOG_CONF	1900236	n/a	LTP098	ltpFR	14	4	n/a	TUBE	1516	n/a	4	n/a	n/a	n/a	n/a	n/a	n/a
3801.69	n/a	RECOG_TARGET	1900845	n/a	LTP098	ltpFR	14	4	0	HEADBAND	696	1	5	0	n/a	n/a	n/a	n/a	n/a
3802.26	n/a	RECOG_RESP	1901130	n/a	LTP098	ltpFR	14	4	0	HEADBAND	696	1	n/a	0	n/a	n/a	n/a	n/a	n/a
3802.654	n/a	RECOG_CONF	1901327	n/a	LTP098	ltpFR	14	4	0	HEADBAND	696	n/a	5	0	n/a	n/a	n/a	n/a	n/a
3805.364	n/a	REC_START	1902682	n/a	LTP098	ltpFR	14	5	n/a	n/a	n/a	n/a	n/a	n/a	n/a	n/a	n/a	n/a	n/a
3805.398	n/a	RECOG_TARGET	1902699	n/a	LTP098	ltpFR	14	5	0	MOP	916	1	5	1	n/a	n/a	n/a	n/a	n/a
3806.082	n/a	RECOG_RESP	1903041	n/a	LTP098	ltpFR	14	5	0	MOP	916	1	n/a	1	n/a	n/a	n/a	n/a	n/a
3806.528	n/a	RECOG_CONF	1903264	n/a	LTP098	ltpFR	14	5	0	MOP	916	n/a	5	1	n/a	n/a	n/a	n/a	n/a
3807.59	n/a	RECOG_TARGET	1903795	n/a	LTP098	ltpFR	14	5	1	POND	1101	1	5	0	n/a	n/a	n/a	n/a	n/a
3808.152	n/a	RECOG_RESP	1904076	n/a	LTP098	ltpFR	14	5	1	POND	1101	1	n/a	0	n/a	n/a	n/a	n/a	n/a
3808.546	n/a	RECOG_CONF	1904273	n/a	LTP098	ltpFR	14	5	1	POND	1101	n/a	5	0	n/a	n/a	n/a	n/a	n/a
3809.698	n/a	RECOG_TARGET	1904849	n/a	LTP098	ltpFR	14	5	-1	CARDINAL	244	1	5	-1	n/a	n/a	n/a	n/a	n/a
3810.228	n/a	RECOG_RESP	1905114	n/a	LTP098	ltpFR	14	5	-1	CARDINAL	244	1	n/a	-1	n/a	n/a	n/a	n/a	n/a
3810.6	n/a	RECOG_CONF	1905300	n/a	LTP098	ltpFR	14	5	-1	CARDINAL	244	n/a	5	-1	n/a	n/a	n/a	n/a	n/a
3811.814	n/a	RECOG_LURE	1905907	n/a	LTP098	ltpFR	14	5	n/a	TABLET	1427	0	1	n/a	n/a	n/a	n/a	n/a	n/a
3812.448	n/a	RECOG_RESP	1906224	n/a	LTP098	ltpFR	14	5	n/a	TABLET	1427	0	n/a	n/a	n/a	n/a	n/a	n/a	n/a
3812.866	n/a	RECOG_CONF	1906433	n/a	LTP098	ltpFR	14	5	n/a	TABLET	1427	n/a	1	n/a	n/a	n/a	n/a	n/a	n/a
3814.056	n/a	RECOG_LURE	1907028	n/a	LTP098	ltpFR	14	5	n/a	WAITRESS	1581	0	1	n/a	n/a	n/a	n/a	n/a	n/a
3814.842	n/a	RECOG_RESP	1907421	n/a	LTP098	ltpFR	14	5	n/a	WAITRESS	1581	0	n/a	n/a	n/a	n/a	n/a	n/a	n/a
3815.23	n/a	RECOG_CONF	1907615	n/a	LTP098	ltpFR	14	5	n/a	WAITRESS	1581	n/a	1	n/a	n/a	n/a	n/a	n/a	n/a
3816.432	n/a	RECOG_TARGET	1908216	n/a	LTP098	ltpFR	14	5	0	MANAGER	863	1	1	1	n/a	n/a	n/a	n/a	n/a
3817.556	n/a	RECOG_RESP	1908778	n/a	LTP098	ltpFR	14	5	0	MANAGER	863	1	n/a	1	n/a	n/a	n/a	n/a	n/a
3817.93	n/a	RECOG_CONF	1908965	n/a	LTP098	ltpFR	14	5	0	MANAGER	863	n/a	1	1	n/a	n/a	n/a	n/a	n/a
3819.148	n/a	RECOG_TARGET	1909574	n/a	LTP098	ltpFR	14	5	1	SHINGLE	1285	1	5	0	n/a	n/a	n/a	n/a	n/a
3819.716	n/a	RECOG_RESP	1909858	n/a	LTP098	ltpFR	14	5	1	SHINGLE	1285	1	n/a	0	n/a	n/a	n/a	n/a	n/a
3820.07	n/a	RECOG_CONF	1910035	n/a	LTP098	ltpFR	14	5	1	SHINGLE	1285	n/a	5	0	n/a	n/a	n/a	n/a	n/a
3821.324	n/a	RECOG_LURE	1910662	n/a	LTP098	ltpFR	14	5	n/a	CIGAR	308	0	4	n/a	n/a	n/a	n/a	n/a	n/a
3821.986	n/a	RECOG_RESP	1910993	n/a	LTP098	ltpFR	14	5	n/a	CIGAR	308	0	n/a	n/a	n/a	n/a	n/a	n/a	n/a
3822.386	n/a	RECOG_CONF	1911193	n/a	LTP098	ltpFR	14	5	n/a	CIGAR	308	n/a	4	n/a	n/a	n/a	n/a	n/a	n/a
3823.598	n/a	RECOG_TARGET	1911799	n/a	LTP098	ltpFR	14	5	-1	MOUTH	926	1	5	-1	n/a	n/a	n/a	n/a	n/a
3824.202	n/a	RECOG_RESP	1912101	n/a	LTP098	ltpFR	14	5	-1	MOUTH	926	1	n/a	-1	n/a	n/a	n/a	n/a	n/a
3824.628	n/a	RECOG_CONF	1912314	n/a	LTP098	ltpFR	14	5	-1	MOUTH	926	n/a	5	-1	n/a	n/a	n/a	n/a	n/a
3825.78	n/a	RECOG_TARGET	1912890	n/a	LTP098	ltpFR	14	5	0	BACK	65	1	5	1	n/a	n/a	n/a	n/a	n/a
3826.402	n/a	RECOG_RESP	1913201	n/a	LTP098	ltpFR	14	5	0	BACK	65	1	n/a	1	n/a	n/a	n/a	n/a	n/a
3826.75	n/a	RECOG_CONF	1913375	n/a	LTP098	ltpFR	14	5	0	BACK	65	n/a	5	1	n/a	n/a	n/a	n/a	n/a
3827.988	n/a	RECOG_LURE	1913994	n/a	LTP098	ltpFR	14	5	n/a	POLITICIAN	1099	0	4	n/a	n/a	n/a	n/a	n/a	n/a
3833.106	n/a	RECOG_RESP	1916553	n/a	LTP098	ltpFR	14	5	n/a	POLITICIAN	1099	0	n/a	n/a	n/a	n/a	n/a	n/a	n/a
3833.502	n/a	RECOG_CONF	1916751	n/a	LTP098	ltpFR	14	5	n/a	POLITICIAN	1099	n/a	4	n/a	n/a	n/a	n/a	n/a	n/a
3834.696	n/a	RECOG_LURE	1917348	n/a	LTP098	ltpFR	14	5	n/a	KETCHUP	771	0	4	n/a	n/a	n/a	n/a	n/a	n/a
3835.426	n/a	RECOG_RESP	1917713	n/a	LTP098	ltpFR	14	5	n/a	KETCHUP	771	0	n/a	n/a	n/a	n/a	n/a	n/a	n/a
3835.856	n/a	RECOG_CONF	1917928	n/a	LTP098	ltpFR	14	5	n/a	KETCHUP	771	n/a	4	n/a	n/a	n/a	n/a	n/a	n/a
3836.962	n/a	RECOG_TARGET	1918481	n/a	LTP098	ltpFR	14	5	1	CHAMPAGNE	278	1	1	0	n/a	n/a	n/a	n/a	n/a
3837.736	n/a	RECOG_RESP	1918868	n/a	LTP098	ltpFR	14	5	1	CHAMPAGNE	278	1	n/a	0	n/a	n/a	n/a	n/a	n/a
3838.454	n/a	RECOG_CONF	1919227	n/a	LTP098	ltpFR	14	5	1	CHAMPAGNE	278	n/a	1	0	n/a	n/a	n/a	n/a	n/a
3839.656	n/a	RECOG_TARGET	1919828	n/a	LTP098	ltpFR	14	5	0	PELT	1040	1	5	0	n/a	n/a	n/a	n/a	n/a
3840.39	n/a	RECOG_RESP	1920195	n/a	LTP098	ltpFR	14	5	0	PELT	1040	1	n/a	0	n/a	n/a	n/a	n/a	n/a
3840.79	n/a	RECOG_CONF	1920395	n/a	LTP098	ltpFR	14	5	0	PELT	1040	n/a	5	0	n/a	n/a	n/a	n/a	n/a
3841.98	n/a	RECOG_TARGET	1920990	n/a	LTP098	ltpFR	14	5	0	CAFE	216	1	5	1	n/a	n/a	n/a	n/a	n/a
3842.576	n/a	RECOG_RESP	1921288	n/a	LTP098	ltpFR	14	5	0	CAFE	216	1	n/a	1	n/a	n/a	n/a	n/a	n/a
3842.98	n/a	RECOG_CONF	1921490	n/a	LTP098	ltpFR	14	5	0	CAFE	216	n/a	5	1	n/a	n/a	n/a	n/a	n/a
3844.148	n/a	RECOG_TARGET	1922074	n/a	LTP098	ltpFR	14	5	1	SKI	1316	1	5	0	n/a	n/a	n/a	n/a	n/a
3844.71	n/a	RECOG_RESP	1922355	n/a	LTP098	ltpFR	14	5	1	SKI	1316	1	n/a	0	n/a	n/a	n/a	n/a	n/a
3845.152	n/a	RECOG_CONF	1922576	n/a	LTP098	ltpFR	14	5	1	SKI	1316	n/a	5	0	n/a	n/a	n/a	n/a	n/a
3846.348	n/a	RECOG_LURE	1923174	n/a	LTP098	ltpFR	14	5	n/a	NEEDLE	941	0	1	n/a	n/a	n/a	n/a	n/a	n/a
3851.416	n/a	RECOG_RESP	1925708	n/a	LTP098	ltpFR	14	5	n/a	NEEDLE	941	0	n/a	n/a	n/a	n/a	n/a	n/a	n/a
3851.792	n/a	RECOG_CONF	1925896	n/a	LTP098	ltpFR	14	5	n/a	NEEDLE	941	n/a	1	n/a	n/a	n/a	n/a	n/a	n/a
3853.114	n/a	RECOG_TARGET	1926557	n/a	LTP098	ltpFR	14	5	1	CALF	222	1	5	0	n/a	n/a	n/a	n/a	n/a
3853.81	n/a	RECOG_RESP	1926905	n/a	LTP098	ltpFR	14	5	1	CALF	222	1	n/a	0	n/a	n/a	n/a	n/a	n/a
3854.258	n/a	RECOG_CONF	1927129	n/a	LTP098	ltpFR	14	5	1	CALF	222	n/a	5	0	n/a	n/a	n/a	n/a	n/a
3855.364	n/a	RECOG_TARGET	1927682	n/a	LTP098	ltpFR	14	5	1	CANARY	227	1	5	1	n/a	n/a	n/a	n/a	n/a
3855.92	n/a	RECOG_RESP	1927960	n/a	LTP098	ltpFR	14	5	1	CANARY	227	1	n/a	1	n/a	n/a	n/a	n/a	n/a
3856.268	n/a	RECOG_CONF	1928134	n/a	LTP098	ltpFR	14	5	1	CANARY	227	n/a	5	1	n/a	n/a	n/a	n/a	n/a
3857.456	n/a	RECOG_TARGET	1928728	n/a	LTP098	ltpFR	14	5	1	TABLE	1426	1	1	0	n/a	n/a	n/a	n/a	n/a
3859.218	n/a	RECOG_RESP	1929609	n/a	LTP098	ltpFR	14	5	1	TABLE	1426	1	n/a	0	n/a	n/a	n/a	n/a	n/a
3859.598	n/a	RECOG_CONF	1929799	n/a	LTP098	ltpFR	14	5	1	TABLE	1426	n/a	1	0	n/a	n/a	n/a	n/a	n/a
3863.102	n/a	REC_START	1931551	n/a	LTP098	ltpFR	14	6	n/a	n/a	n/a	n/a	n/a	n/a	n/a	n/a	n/a	n/a	n/a
3863.138	n/a	RECOG_LURE	1931569	n/a	LTP098	ltpFR	14	6	n/a	BLOUSE	139	0	4	n/a	n/a	n/a	n/a	n/a	n/a
3864.328	n/a	RECOG_RESP	1932164	n/a	LTP098	ltpFR	14	6	n/a	BLOUSE	139	0	n/a	n/a	n/a	n/a	n/a	n/a	n/a
3864.648	n/a	RECOG_CONF	1932324	n/a	LTP098	ltpFR	14	6	n/a	BLOUSE	139	n/a	4	n/a	n/a	n/a	n/a	n/a	n/a
3865.922	n/a	RECOG_TARGET	1932961	n/a	LTP098	ltpFR	14	6	1	RAG	1160	1	5	0	n/a	n/a	n/a	n/a	n/a
3866.818	n/a	RECOG_RESP	1933409	n/a	LTP098	ltpFR	14	6	1	RAG	1160	1	n/a	0	n/a	n/a	n/a	n/a	n/a
3867.166	n/a	RECOG_CONF	1933583	n/a	LTP098	ltpFR	14	6	1	RAG	1160	n/a	5	0	n/a	n/a	n/a	n/a	n/a
3868.406	n/a	RECOG_TARGET	1934203	n/a	LTP098	ltpFR	14	6	-1	HEDGE	699	1	5	-1	n/a	n/a	n/a	n/a	n/a
3869.032	n/a	RECOG_RESP	1934516	n/a	LTP098	ltpFR	14	6	-1	HEDGE	699	1	n/a	-1	n/a	n/a	n/a	n/a	n/a
3869.404	n/a	RECOG_CONF	1934702	n/a	LTP098	ltpFR	14	6	-1	HEDGE	699	n/a	5	-1	n/a	n/a	n/a	n/a	n/a
3870.696	n/a	RECOG_TARGET	1935348	n/a	LTP098	ltpFR	14	6	-1	DENIM	446	1	5	-1	n/a	n/a	n/a	n/a	n/a
3871.248	n/a	RECOG_RESP	1935624	n/a	LTP098	ltpFR	14	6	-1	DENIM	446	1	n/a	-1	n/a	n/a	n/a	n/a	n/a
3871.642	n/a	RECOG_RESP_VV	1935821	n/a	LTP098	ltpFR	14	6	-1	DENIM	446	n/a	5	-1	n/a	n/a	n/a	n/a	n/a
3872.4	n/a	RECOG_CONF	1936200	n/a	LTP098	ltpFR	14	6	-1	DENIM	446	n/a	5	-1	n/a	n/a	n/a	n/a	n/a
3873.638	n/a	RECOG_TARGET	1936819	n/a	LTP098	ltpFR	14	6	1	BULLY	196	1	5	1	n/a	n/a	n/a	n/a	n/a
3874.206	n/a	RECOG_RESP	1937103	n/a	LTP098	ltpFR	14	6	1	BULLY	196	1	n/a	1	n/a	n/a	n/a	n/a	n/a
3874.686	n/a	RECOG_CONF	1937343	n/a	LTP098	ltpFR	14	6	1	BULLY	196	n/a	5	1	n/a	n/a	n/a	n/a	n/a
3875.886	n/a	RECOG_TARGET	1937943	n/a	LTP098	ltpFR	14	6	-1	COMEDIAN	352	1	5	-1	n/a	n/a	n/a	n/a	n/a
3876.446	n/a	RECOG_RESP	1938223	n/a	LTP098	ltpFR	14	6	-1	COMEDIAN	352	1	n/a	-1	n/a	n/a	n/a	n/a	n/a
3876.886	n/a	RECOG_CONF	1938443	n/a	LTP098	ltpFR	14	6	-1	COMEDIAN	352	n/a	5	-1	n/a	n/a	n/a	n/a	n/a
3878.08	n/a	RECOG_TARGET	1939040	n/a	LTP098	ltpFR	14	6	0	FLUTE	585	1	5	0	n/a	n/a	n/a	n/a	n/a
3878.656	n/a	RECOG_RESP	1939328	n/a	LTP098	ltpFR	14	6	0	FLUTE	585	1	n/a	0	n/a	n/a	n/a	n/a	n/a
3879.114	n/a	RECOG_CONF	1939557	n/a	LTP098	ltpFR	14	6	0	FLUTE	585	n/a	5	0	n/a	n/a	n/a	n/a	n/a
3880.264	n/a	RECOG_LURE	1940132	n/a	LTP098	ltpFR	14	6	n/a	PROTON	1132	1	1	n/a	n/a	n/a	n/a	n/a	n/a
3880.926	n/a	RECOG_RESP	1940463	n/a	LTP098	ltpFR	14	6	n/a	PROTON	1132	1	n/a	n/a	n/a	n/a	n/a	n/a	n/a
3881.596	n/a	RECOG_CONF	1940798	n/a	LTP098	ltpFR	14	6	n/a	PROTON	1132	n/a	1	n/a	n/a	n/a	n/a	n/a	n/a
3882.88	n/a	RECOG_LURE	1941440	n/a	LTP098	ltpFR	14	6	n/a	NAPKIN	937	0	1	n/a	n/a	n/a	n/a	n/a	n/a
3883.96	n/a	RECOG_RESP	1941980	n/a	LTP098	ltpFR	14	6	n/a	NAPKIN	937	0	n/a	n/a	n/a	n/a	n/a	n/a	n/a
3884.41	n/a	RECOG_CONF	1942205	n/a	LTP098	ltpFR	14	6	n/a	NAPKIN	937	n/a	1	n/a	n/a	n/a	n/a	n/a	n/a
3885.572	n/a	RECOG_LURE	1942786	n/a	LTP098	ltpFR	14	6	n/a	QUARTER	1148	0	1	n/a	n/a	n/a	n/a	n/a	n/a
3886.474	n/a	RECOG_RESP	1943237	n/a	LTP098	ltpFR	14	6	n/a	QUARTER	1148	0	n/a	n/a	n/a	n/a	n/a	n/a	n/a
3886.912	n/a	RECOG_CONF	1943456	n/a	LTP098	ltpFR	14	6	n/a	QUARTER	1148	n/a	1	n/a	n/a	n/a	n/a	n/a	n/a
3888.164	n/a	RECOG_TARGET	1944082	n/a	LTP098	ltpFR	14	6	1	COACH	331	1	5	1	n/a	n/a	n/a	n/a	n/a
3888.76	n/a	RECOG_RESP	1944380	n/a	LTP098	ltpFR	14	6	1	COACH	331	1	n/a	1	n/a	n/a	n/a	n/a	n/a
3889.156	n/a	RECOG_CONF	1944578	n/a	LTP098	ltpFR	14	6	1	COACH	331	n/a	5	1	n/a	n/a	n/a	n/a	n/a
3890.362	n/a	RECOG_TARGET	1945181	n/a	LTP098	ltpFR	14	6	1	POSSUM	1112	1	5	1	n/a	n/a	n/a	n/a	n/a
3890.954	n/a	RECOG_RESP	1945477	n/a	LTP098	ltpFR	14	6	1	POSSUM	1112	1	n/a	1	n/a	n/a	n/a	n/a	n/a
3891.384	n/a	RECOG_CONF	1945692	n/a	LTP098	ltpFR	14	6	1	POSSUM	1112	n/a	5	1	n/a	n/a	n/a	n/a	n/a
3892.572	n/a	RECOG_LURE	1946286	n/a	LTP098	ltpFR	14	6	n/a	SHOP	1290	1	1	n/a	n/a	n/a	n/a	n/a	n/a
