mstime	trial_type	stim_file	subject	experiment	session	trial	task	item_name	item_num	recog_resp	recog_conf	resp	color_r	color_g	color_b	case	font
0	SESS_START	n/a	LTP101	ltpFR	6	n/a	n/a	n/a	n/a	1	5	n/a	n/a	n/a	n/a	n/a	n/a
42851	WORD	wordpools/wasnorm_wordpool.txt	LTP101	ltpFR	6	1	0	EDITORIAL	517	1	n/a	0	0.57763671875	0.412841796875	1	upper	amplitud.ttf
47026	WORD	wordpools/wasnorm_wordpool.txt	LTP101	ltpFR	6	1	0	COLUMN	350	n/a	n/a	0	0.57763671875	0.412841796875	1	upper	amplitud.ttf
50909	WORD	wordpools/wasnorm_wordpool.txt	LTP101	ltpFR	6	1	0	MARKET	871	n/a	n/a	1	0.57763671875	0.412841796875	1	upper	amplitud.ttf
54892	WORD	wordpools/wasnorm_wordpool.txt	LTP101	ltpFR	6	1	0	FEAST	556	n/a	n/a	1	0.57763671875	0.412841796875	1	upper	amplitud.ttf
58791	WORD	wordpools/wasnorm_wordpool.txt	LTP101	ltpFR	6	1	1	ZOO	1637	n/a	n/a	0	0.422607421875	0.5869140625	0	lower	zerothre.ttf
62742	WORD	wordpools/wasnorm_wordpool.txt	LTP101	ltpFR	6	1	1	TRIBE	1505	n/a	n/a	1	0.422607421875	0.5869140625	0	lower	zerothre.ttf
66633	WORD	wordpools/wasnorm_wordpool.txt	LTP101	ltpFR	6	1	0	ACORN	3	n/a	n/a	0	0.57763671875	0.412841796875	1	upper	amplitud.ttf
70558	WORD	wordpools/wasnorm_wordpool.txt	LTP101	ltpFR	6	1	0	PREDATOR	1120	n/a	n/a	1	0.57763671875	0.412841796875	1	upper	amplitud.ttf
74625	WORD	wordpools/wasnorm_wordpool.txt	LTP101	ltpFR	6	1	1	PASSENGER	1020	n/a	n/a	1	0.422607421875	0.5869140625	0	lower	zerothre.ttf
78807	WORD	wordpools/wasnorm_wordpool.txt	LTP101	ltpFR	6	1	1	APPLE	33	n/a	n/a	0	0.422607421875	0.5869140625	0	lower	zerothre.ttf
82773	WORD	wordpools/wasnorm_wordpool.txt	LTP101	ltpFR	6	1	1	PIT	1077	n/a	n/a	0	0.422607421875	0.5869140625	0	lower	zerothre.ttf
86740	WORD	wordpools/wasnorm_wordpool.txt	LTP101	ltpFR	6	1	1	RIDER	1191	n/a	n/a	1	0.422607421875	0.5869140625	0	lower	zerothre.ttf
90657	WORD	wordpools/wasnorm_wordpool.txt	LTP101	ltpFR	6	1	1	HUT	729	n/a	n/a	0	0.422607421875	0.5869140625	0	lower	zerothre.ttf
94748	WORD	wordpools/wasnorm_wordpool.txt	LTP101	ltpFR	6	1	1	YOUTH	1634	n/a	n/a	1	0.422607421875	0.5869140625	0	lower	zerothre.ttf
98830	WORD	wordpools/wasnorm_wordpool.txt	LTP101	ltpFR	6	1	0	POLYESTER	1100	n/a	n/a	1	0.57763671875	0.412841796875	1	upper	amplitud.ttf
102971	WORD	wordpools/wasnorm_wordpool.txt	LTP101	ltpFR	6	1	0	HIGHWAY	707	n/a	n/a	1	0.57763671875	0.412841796875	1	upper	amplitud.ttf
108805	REC_START	n/a	LTP101	ltpFR	6	1	n/a	n/a	n/a	n/a	n/a	n/a	n/a	n/a	n/a	n/a	n/a
109483	REC_WORD	wordpools/wasnorm_wordpool.txt	LTP101	ltpFR	6	1	0	POLYESTER	1100	n/a	n/a	1	n/a	n/a	n/a	n/a	n/a
110552	REC_WORD	wordpools/wasnorm_wordpool.txt	LTP101	ltpFR	6	1	0	HIGHWAY	707	n/a	n/a	1	n/a	n/a	n/a	n/a	n/a
111708	REC_WORD	wordpools/wasnorm_wordpool.txt	LTP101	ltpFR	6	1	0	EDITORIAL	517	n/a	n/a	0	n/a	n/a	n/a	n/a	n/a
112945	REC_WORD	wordpools/wasnorm_wordpool.txt	LTP101	ltpFR	6	1	0	COLUMN	350	n/a	n/a	0	n/a	n/a	n/a	n/a	n/a
114367	REC_WORD	wordpools/wasnorm_wordpool.txt	LTP101	ltpFR	6	1	0	MARKET	871	n/a	n/a	1	n/a	n/a	n/a	n/a	n/a
115779	REC_WORD	wordpools/wasnorm_wordpool.txt	LTP101	ltpFR	6	1	1	PIT	1077	n/a	n/a	0	n/a	n/a	n/a	n/a	n/a
117779	REC_WORD	wordpools/wasnorm_wordpool.txt	LTP101	ltpFR	6	1	1	YOUTH	1634	n/a	n/a	1	n/a	n/a	n/a	n/a	n/a
120149	REC_WORD	wordpools/wasnorm_wordpool.txt	LTP101	ltpFR	6	1	0	FEAST	556	n/a	n/a	1	n/a	n/a	n/a	n/a	n/a
121092	REC_WORD	wordpools/wasnorm_wordpool.txt	LTP101	ltpFR	6	1	1	ZOO	1637	n/a	n/a	0	n/a	n/a	n/a	n/a	n/a
122274	REC_WORD	wordpools/wasnorm_wordpool.txt	LTP101	ltpFR	6	1	1	APPLE	33	n/a	n/a	0	n/a	n/a	n/a	n/a	n/a
123651	REC_WORD	wordpools/wasnorm_wordpool.txt	LTP101	ltpFR	6	1	0	ACORN	3	n/a	n/a	0	n/a	n/a	n/a	n/a	n/a
135659	REC_WORD	wordpools/wasnorm_wordpool.txt	LTP101	ltpFR	6	1	0	POLYESTER	1100	n/a	n/a	1	n/a	n/a	n/a	n/a	n/a
150640	REC_WORD	wordpools/wasnorm_wordpool.txt	LTP101	ltpFR	6	1	1	TRIBE	1505	n/a	n/a	1	n/a	n/a	n/a	n/a	n/a
186099	WORD	wordpools/wasnorm_wordpool.txt	LTP101	ltpFR	6	2	1	MAMMAL	861	n/a	n/a	1	0.422607421875	0.5869140625	0	lower	zerothre.ttf
190299	WORD	wordpools/wasnorm_wordpool.txt	LTP101	ltpFR	6	2	1	COOLER	375	n/a	n/a	0	0.422607421875	0.5869140625	0	lower	zerothre.ttf
194240	WORD	wordpools/wasnorm_wordpool.txt	LTP101	ltpFR	6	2	1	SLIDE	1326	n/a	n/a	0	0.422607421875	0.5869140625	0	lower	zerothre.ttf
198340	WORD	wordpools/wasnorm_wordpool.txt	LTP101	ltpFR	6	2	0	HONEY	713	n/a	n/a	0	0.57763671875	0.412841796875	1	upper	amplitud.ttf
202307	WORD	wordpools/wasnorm_wordpool.txt	LTP101	ltpFR	6	2	0	TAVERN	1437	n/a	n/a	1	0.57763671875	0.412841796875	1	upper	amplitud.ttf
206197	WORD	wordpools/wasnorm_wordpool.txt	LTP101	ltpFR	6	2	0	BAKER	71	n/a	n/a	1	0.57763671875	0.412841796875	1	upper	amplitud.ttf
210130	WORD	wordpools/wasnorm_wordpool.txt	LTP101	ltpFR	6	2	0	STEP	1377	n/a	n/a	1	0.57763671875	0.412841796875	1	upper	amplitud.ttf
214339	WORD	wordpools/wasnorm_wordpool.txt	LTP101	ltpFR	6	2	0	SYRUP	1425	n/a	n/a	0	0.57763671875	0.412841796875	1	upper	amplitud.ttf
218322	WORD	wordpools/wasnorm_wordpool.txt	LTP101	ltpFR	6	2	1	VIKING	1565	n/a	n/a	1	0.422607421875	0.5869140625	0	lower	zerothre.ttf
222488	WORD	wordpools/wasnorm_wordpool.txt	LTP101	ltpFR	6	2	1	YACHT	1629	n/a	n/a	0	0.422607421875	0.5869140625	0	lower	zerothre.ttf
226488	WORD	wordpools/wasnorm_wordpool.txt	LTP101	ltpFR	6	2	0	CABBAGE	210	n/a	n/a	0	0.57763671875	0.412841796875	1	upper	amplitud.ttf
230371	WORD	wordpools/wasnorm_wordpool.txt	LTP101	ltpFR	6	2	0	SILVERWARE	1308	n/a	n/a	0	0.57763671875	0.412841796875	1	upper	amplitud.ttf
234538	WORD	wordpools/wasnorm_wordpool.txt	LTP101	ltpFR	6	2	0	CLAM	315	n/a	n/a	0	0.57763671875	0.412841796875	1	upper	amplitud.ttf
238729	WORD	wordpools/wasnorm_wordpool.txt	LTP101	ltpFR	6	2	1	LOBSTER	837	n/a	n/a	1	0.422607421875	0.5869140625	0	lower	zerothre.ttf
242612	WORD	wordpools/wasnorm_wordpool.txt	LTP101	ltpFR	6	2	1	ASPIRIN	47	n/a	n/a	0	0.422607421875	0.5869140625	0	lower	zerothre.ttf
246553	WORD	wordpools/wasnorm_wordpool.txt	LTP101	ltpFR	6	2	1	WATER	1594	n/a	n/a	0	0.422607421875	0.5869140625	0	lower	zerothre.ttf
252303	REC_START	n/a	LTP101	ltpFR	6	2	n/a	n/a	n/a	n/a	n/a	n/a	n/a	n/a	n/a	n/a	n/a
253106	REC_WORD	wordpools/wasnorm_wordpool.txt	LTP101	ltpFR	6	2	1	WATER	1594	n/a	n/a	0	n/a	n/a	n/a	n/a	n/a
253875	REC_WORD	wordpools/wasnorm_wordpool.txt	LTP101	ltpFR	6	2	1	ASPIRIN	47	n/a	n/a	0	n/a	n/a	n/a	n/a	n/a
254942	REC_WORD	wordpools/wasnorm_wordpool.txt	LTP101	ltpFR	6	2	0	SILVERWARE	1308	n/a	n/a	0	n/a	n/a	n/a	n/a	n/a
256623	REC_WORD	wordpools/wasnorm_wordpool.txt	LTP101	ltpFR	6	2	1	VIKING	1565	n/a	n/a	1	n/a	n/a	n/a	n/a	n/a
264081	REC_WORD	wordpools/wasnorm_wordpool.txt	LTP101	ltpFR	6	2	1	YACHT	1629	n/a	n/a	0	n/a	n/a	n/a	n/a	n/a
266101	REC_WORD	wordpools/wasnorm_wordpool.txt	LTP101	ltpFR	6	2	0	TAVERN	1437	n/a	n/a	1	n/a	n/a	n/a	n/a	n/a
268007	REC_WORD	wordpools/wasnorm_wordpool.txt	LTP101	ltpFR	6	2	1	SLIDE	1326	n/a	n/a	0	n/a	n/a	n/a	n/a	n/a
269978	REC_WORD	wordpools/wasnorm_wordpool.txt	LTP101	ltpFR	6	2	0	HONEY	713	n/a	n/a	0	n/a	n/a	n/a	n/a	n/a
272028	REC_WORD	wordpools/wasnorm_wordpool.txt	LTP101	ltpFR	6	2	1	COOLER	375	n/a	n/a	0	n/a	n/a	n/a	n/a	n/a
274008	REC_WORD	wordpools/wasnorm_wordpool.txt	LTP101	ltpFR	6	2	1	MAMMAL	861	n/a	n/a	1	n/a	n/a	n/a	n/a	n/a
329879	WORD	wordpools/wasnorm_wordpool.txt	LTP101	ltpFR	6	3	-1	SNAKE	1333	n/a	n/a	-1	1.0	1.0	1	upper	Verdana.ttf
333713	WORD	wordpools/wasnorm_wordpool.txt	LTP101	ltpFR	6	3	-1	CHEF	290	n/a	n/a	-1	1.0	1.0	1	upper	Verdana.ttf
337770	WORD	wordpools/wasnorm_wordpool.txt	LTP101	ltpFR	6	3	-1	CUSHION	428	n/a	n/a	-1	1.0	1.0	1	upper	Verdana.ttf
341778	WORD	wordpools/wasnorm_wordpool.txt	LTP101	ltpFR	6	3	-1	SIDEWALK	1303	n/a	n/a	-1	1.0	1.0	1	upper	Verdana.ttf
345953	WORD	wordpools/wasnorm_wordpool.txt	LTP101	ltpFR	6	3	-1	MARINE	869	n/a	n/a	-1	1.0	1.0	1	upper	Verdana.ttf
350128	WORD	wordpools/wasnorm_wordpool.txt	LTP101	ltpFR	6	3	-1	DOCK	477	n/a	n/a	-1	1.0	1.0	1	upper	Verdana.ttf
354261	WORD	wordpools/wasnorm_wordpool.txt	LTP101	ltpFR	6	3	-1	UTENSIL	1542	n/a	n/a	-1	1.0	1.0	1	upper	Verdana.ttf
358094	WORD	wordpools/wasnorm_wordpool.txt	LTP101	ltpFR	6	3	-1	SNACK	1331	n/a	n/a	-1	1.0	1.0	1	upper	Verdana.ttf
362110	WORD	wordpools/wasnorm_wordpool.txt	LTP101	ltpFR	6	3	-1	NEWSPAPER	948	n/a	n/a	-1	1.0	1.0	1	upper	Verdana.ttf
366035	WORD	wordpools/wasnorm_wordpool.txt	LTP101	ltpFR	6	3	-1	LAGOON	795	n/a	n/a	-1	1.0	1.0	1	upper	Verdana.ttf
370018	WORD	wordpools/wasnorm_wordpool.txt	LTP101	ltpFR	6	3	-1	FAUCET	555	n/a	n/a	-1	1.0	1.0	1	upper	Verdana.ttf
373926	WORD	wordpools/wasnorm_wordpool.txt	LTP101	ltpFR	6	3	-1	TABLE	1426	n/a	n/a	-1	1.0	1.0	1	upper	Verdana.ttf
378017	WORD	wordpools/wasnorm_wordpool.txt	LTP101	ltpFR	6	3	-1	TURKEY	1520	n/a	n/a	-1	1.0	1.0	1	upper	Verdana.ttf
382200	WORD	wordpools/wasnorm_wordpool.txt	LTP101	ltpFR	6	3	-1	PUBLISHER	1137	n/a	n/a	-1	1.0	1.0	1	upper	Verdana.ttf
386142	WORD	wordpools/wasnorm_wordpool.txt	LTP101	ltpFR	6	3	-1	DOORBELL	487	n/a	n/a	-1	1.0	1.0	1	upper	Verdana.ttf
389975	WORD	wordpools/wasnorm_wordpool.txt	LTP101	ltpFR	6	3	-1	LOG	841	n/a	n/a	-1	1.0	1.0	1	upper	Verdana.ttf
395593	REC_START	n/a	LTP101	ltpFR	6	3	n/a	n/a	n/a	n/a	n/a	n/a	n/a	n/a	n/a	n/a	n/a
396316	REC_WORD	wordpools/wasnorm_wordpool.txt	LTP101	ltpFR	6	3	-1	DOORBELL	487	n/a	n/a	-1	n/a	n/a	n/a	n/a	n/a
397322	REC_WORD	wordpools/wasnorm_wordpool.txt	LTP101	ltpFR	6	3	-1	LOG	841	n/a	n/a	-1	n/a	n/a	n/a	n/a	n/a
398561	REC_WORD	wordpools/wasnorm_wordpool.txt	LTP101	ltpFR	6	3	-1	PUBLISHER	1137	n/a	n/a	-1	n/a	n/a	n/a	n/a	n/a
401055	REC_WORD	wordpools/wasnorm_wordpool.txt	LTP101	ltpFR	6	3	-1	FAUCET	555	n/a	n/a	-1	n/a	n/a	n/a	n/a	n/a
402886	REC_WORD	wordpools/wasnorm_wordpool.txt	LTP101	ltpFR	6	3	-1	TURKEY	1520	n/a	n/a	-1	n/a	n/a	n/a	n/a	n/a
405311	REC_WORD	wordpools/wasnorm_wordpool.txt	LTP101	ltpFR	6	3	-1	TABLE	1426	n/a	n/a	-1	n/a	n/a	n/a	n/a	n/a
409137	REC_WORD	wordpools/wasnorm_wordpool.txt	LTP101	ltpFR	6	3	-1	DOCK	477	n/a	n/a	-1	n/a	n/a	n/a	n/a	n/a
409940	REC_WORD	wordpools/wasnorm_wordpool.txt	LTP101	ltpFR	6	3	-1	LAGOON	795	n/a	n/a	-1	n/a	n/a	n/a	n/a	n/a
411207	REC_WORD	wordpools/wasnorm_wordpool.txt	LTP101	ltpFR	6	3	-1	MARINE	869	n/a	n/a	-1	n/a	n/a	n/a	n/a	n/a
415812	REC_WORD	wordpools/wasnorm_wordpool.txt	LTP101	ltpFR	6	3	-1	SNAKE	1333	n/a	n/a	-1	n/a	n/a	n/a	n/a	n/a
417792	REC_WORD_VV	wordpools/wasnorm_wordpool.txt	LTP101	ltpFR	6	3	n/a	<>	-1	n/a	n/a	n/a	n/a	n/a	n/a	n/a	n/a
419074	REC_WORD	wordpools/wasnorm_wordpool.txt	LTP101	ltpFR	6	3	-1	UTENSIL	1542	n/a	n/a	-1	n/a	n/a	n/a	n/a	n/a
420910	REC_WORD	wordpools/wasnorm_wordpool.txt	LTP101	ltpFR	6	3	-1	CUSHION	428	n/a	n/a	-1	n/a	n/a	n/a	n/a	n/a
421748	REC_WORD	wordpools/wasnorm_wordpool.txt	LTP101	ltpFR	6	3	-1	CHEF	290	n/a	n/a	-1	n/a	n/a	n/a	n/a	n/a
422985	REC_WORD	wordpools/wasnorm_wordpool.txt	LTP101	ltpFR	6	3	-1	SIDEWALK	1303	n/a	n/a	-1	n/a	n/a	n/a	n/a	n/a
427725	REC_WORD	wordpools/wasnorm_wordpool.txt	LTP101	ltpFR	6	3	-1	NEWSPAPER	948	n/a	n/a	-1	n/a	n/a	n/a	n/a	n/a
429929	REC_WORD	wordpools/wasnorm_wordpool.txt	LTP101	ltpFR	6	3	-1	SNACK	1331	n/a	n/a	-1	n/a	n/a	n/a	n/a	n/a
472885	WORD	wordpools/wasnorm_wordpool.txt	LTP101	ltpFR	6	4	1	PUZZLE	1146	n/a	n/a	0	0.422607421875	0.5869140625	0	lower	zerothre.ttf
476885	WORD	wordpools/wasnorm_wordpool.txt	LTP101	ltpFR	6	4	1	VIOLIN	1571	n/a	n/a	0	0.422607421875	0.5869140625	0	lower	zerothre.ttf
480826	WORD	wordpools/wasnorm_wordpool.txt	LTP101	ltpFR	6	4	1	PRINCE	1124	n/a	n/a	1	0.422607421875	0.5869140625	0	lower	zerothre.ttf
484652	WORD	wordpools/wasnorm_wordpool.txt	LTP101	ltpFR	6	4	1	WALLET	1583	n/a	n/a	0	0.422607421875	0.5869140625	0	lower	zerothre.ttf
488834	WORD	wordpools/wasnorm_wordpool.txt	LTP101	ltpFR	6	4	1	SAXOPHONE	1240	n/a	n/a	0	0.422607421875	0.5869140625	0	lower	zerothre.ttf
492718	WORD	wordpools/wasnorm_wordpool.txt	LTP101	ltpFR	6	4	1	KING	777	n/a	n/a	1	0.422607421875	0.5869140625	0	lower	zerothre.ttf
496701	WORD	wordpools/wasnorm_wordpool.txt	LTP101	ltpFR	6	4	1	SURF	1412	n/a	n/a	0	0.422607421875	0.5869140625	0	lower	zerothre.ttf
500559	WORD	wordpools/wasnorm_wordpool.txt	LTP101	ltpFR	6	4	1	SUBMARINE	1398	n/a	n/a	0	0.422607421875	0.5869140625	0	lower	zerothre.ttf
504692	WORD	wordpools/wasnorm_wordpool.txt	LTP101	ltpFR	6	4	1	CHOCOLATE	306	n/a	n/a	0	0.422607421875	0.5869140625	0	lower	zerothre.ttf
508733	WORD	wordpools/wasnorm_wordpool.txt	LTP101	ltpFR	6	4	1	CABLE	213	n/a	n/a	0	0.422607421875	0.5869140625	0	lower	zerothre.ttf
512550	WORD	wordpools/wasnorm_wordpool.txt	LTP101	ltpFR	6	4	1	ELECTRICIAN	521	n/a	n/a	1	0.422607421875	0.5869140625	0	lower	zerothre.ttf
516516	WORD	wordpools/wasnorm_wordpool.txt	LTP101	ltpFR	6	4	1	STRANGER	1389	n/a	n/a	1	0.422607421875	0.5869140625	0	lower	zerothre.ttf
520499	WORD	wordpools/wasnorm_wordpool.txt	LTP101	ltpFR	6	4	1	COMPANION	357	n/a	n/a	1	0.422607421875	0.5869140625	0	lower	zerothre.ttf
524416	WORD	wordpools/wasnorm_wordpool.txt	LTP101	ltpFR	6	4	1	BELT	120	n/a	n/a	0	0.422607421875	0.5869140625	0	lower	zerothre.ttf
528332	WORD	wordpools/wasnorm_wordpool.txt	LTP101	ltpFR	6	4	1	DENIM	446	n/a	n/a	0	0.422607421875	0.5869140625	0	lower	zerothre.ttf
532465	WORD	wordpools/wasnorm_wordpool.txt	LTP101	ltpFR	6	4	1	KNAPSACK	783	n/a	n/a	0	0.422607421875	0.5869140625	0	lower	zerothre.ttf
538307	REC_START	n/a	LTP101	ltpFR	6	4	n/a	n/a	n/a	n/a	n/a	n/a	n/a	n/a	n/a	n/a	n/a
541026	REC_WORD	wordpools/wasnorm_wordpool.txt	LTP101	ltpFR	6	4	1	PUZZLE	1146	n/a	n/a	0	n/a	n/a	n/a	n/a	n/a
542153	REC_WORD	wordpools/wasnorm_wordpool.txt	LTP101	ltpFR	6	4	1	SAXOPHONE	1240	n/a	n/a	0	n/a	n/a	n/a	n/a	n/a
544358	REC_WORD	wordpools/wasnorm_wordpool.txt	LTP101	ltpFR	6	4	1	VIOLIN	1571	n/a	n/a	0	n/a	n/a	n/a	n/a	n/a
546104	REC_WORD	wordpools/wasnorm_wordpool.txt	LTP101	ltpFR	6	4	1	PRINCE	1124	n/a	n/a	1	n/a	n/a	n/a	n/a	n/a
547491	REC_WORD	wordpools/wasnorm_wordpool.txt	LTP101	ltpFR	6	4	1	KING	777	n/a	n/a	1	n/a	n/a	n/a	n/a	n/a
550754	REC_WORD	wordpools/wasnorm_wordpool.txt	LTP101	ltpFR	6	4	1	SURF	1412	n/a	n/a	0	n/a	n/a	n/a	n/a	n/a
551342	REC_WORD	wordpools/wasnorm_wordpool.txt	LTP101	ltpFR	6	4	n/a	BOARD	143	n/a	n/a	n/a	n/a	n/a	n/a	n/a	n/a
552240	REC_WORD_VV	wordpools/wasnorm_wordpool.txt	LTP101	ltpFR	6	4	n/a	<>	-1	n/a	n/a	n/a	n/a	n/a	n/a	n/a	n/a
552983	REC_WORD	wordpools/wasnorm_wordpool.txt	LTP101	ltpFR	6	4	1	SURF	1412	n/a	n/a	0	n/a	n/a	n/a	n/a	n/a
556286	REC_WORD	wordpools/wasnorm_wordpool.txt	LTP101	ltpFR	6	4	1	SUBMARINE	1398	n/a	n/a	0	n/a	n/a	n/a	n/a	n/a
557907	REC_WORD	wordpools/wasnorm_wordpool.txt	LTP101	ltpFR	6	4	1	CHOCOLATE	306	n/a	n/a	0	n/a	n/a	n/a	n/a	n/a
560940	REC_WORD	wordpools/wasnorm_wordpool.txt	LTP101	ltpFR	6	4	1	CABLE	213	n/a	n/a	0	n/a	n/a	n/a	n/a	n/a
562222	REC_WORD	wordpools/wasnorm_wordpool.txt	LTP101	ltpFR	6	4	1	ELECTRICIAN	521	n/a	n/a	1	n/a	n/a	n/a	n/a	n/a
563914	REC_WORD	wordpools/wasnorm_wordpool.txt	LTP101	ltpFR	6	4	1	COMPANION	357	n/a	n/a	1	n/a	n/a	n/a	n/a	n/a
565565	REC_WORD	wordpools/wasnorm_wordpool.txt	LTP101	ltpFR	6	4	1	BELT	120	n/a	n/a	0	n/a	n/a	n/a	n/a	n/a
567441	REC_WORD	wordpools/wasnorm_wordpool.txt	LTP101	ltpFR	6	4	1	KNAPSACK	783	n/a	n/a	0	n/a	n/a	n/a	n/a	n/a
569281	REC_WORD	wordpools/wasnorm_wordpool.txt	LTP101	ltpFR	6	4	1	DENIM	446	n/a	n/a	0	n/a	n/a	n/a	n/a	n/a
576151	REC_WORD	wordpools/wasnorm_wordpool.txt	LTP101	ltpFR	6	4	1	WALLET	1583	n/a	n/a	0	n/a	n/a	n/a	n/a	n/a
615742	WORD	wordpools/wasnorm_wordpool.txt	LTP101	ltpFR	6	5	0	SIDING	1304	n/a	n/a	1	0.57763671875	0.412841796875	1	upper	amplitud.ttf
619907	WORD	wordpools/wasnorm_wordpool.txt	LTP101	ltpFR	6	5	0	SKI	1316	n/a	n/a	1	0.57763671875	0.412841796875	1	upper	amplitud.ttf
623774	WORD	wordpools/wasnorm_wordpool.txt	LTP101	ltpFR	6	5	0	CLOUD	328	n/a	n/a	1	0.57763671875	0.412841796875	1	upper	amplitud.ttf
627940	WORD	wordpools/wasnorm_wordpool.txt	LTP101	ltpFR	6	5	0	BROOM	178	n/a	n/a	1	0.57763671875	0.412841796875	1	upper	amplitud.ttf
631856	WORD	wordpools/wasnorm_wordpool.txt	LTP101	ltpFR	6	5	0	SEAFOOD	1260	n/a	n/a	0	0.57763671875	0.412841796875	1	upper	amplitud.ttf
635881	WORD	wordpools/wasnorm_wordpool.txt	LTP101	ltpFR	6	5	0	MUSEUM	933	n/a	n/a	1	0.57763671875	0.412841796875	1	upper	amplitud.ttf
640014	WORD	wordpools/wasnorm_wordpool.txt	LTP101	ltpFR	6	5	0	CERAMICS	271	n/a	n/a	1	0.57763671875	0.412841796875	1	upper	amplitud.ttf
644189	WORD	wordpools/wasnorm_wordpool.txt	LTP101	ltpFR	6	5	0	HOME	712	n/a	n/a	1	0.57763671875	0.412841796875	1	upper	amplitud.ttf
648147	WORD	wordpools/wasnorm_wordpool.txt	LTP101	ltpFR	6	5	0	SHRINE	1298	n/a	n/a	1	0.57763671875	0.412841796875	1	upper	amplitud.ttf
652130	WORD	wordpools/wasnorm_wordpool.txt	LTP101	ltpFR	6	5	0	LIP	828	n/a	n/a	0	0.57763671875	0.412841796875	1	upper	amplitud.ttf
656213	WORD	wordpools/wasnorm_wordpool.txt	LTP101	ltpFR	6	5	0	CLARINET	317	n/a	n/a	1	0.57763671875	0.412841796875	1	upper	amplitud.ttf
660154	WORD	wordpools/wasnorm_wordpool.txt	LTP101	ltpFR	6	5	0	SPHINX	1349	n/a	n/a	1	0.57763671875	0.412841796875	1	upper	amplitud.ttf
664196	WORD	wordpools/wasnorm_wordpool.txt	LTP101	ltpFR	6	5	0	HAYSTACK	694	n/a	n/a	1	0.57763671875	0.412841796875	1	upper	amplitud.ttf
668237	WORD	wordpools/wasnorm_wordpool.txt	LTP101	ltpFR	6	5	0	BAND	78	n/a	n/a	1	0.57763671875	0.412841796875	1	upper	amplitud.ttf
672070	WORD	wordpools/wasnorm_wordpool.txt	LTP101	ltpFR	6	5	0	SCREW	1254	n/a	n/a	1	0.57763671875	0.412841796875	1	upper	amplitud.ttf
676195	WORD	wordpools/wasnorm_wordpool.txt	LTP101	ltpFR	6	5	0	PLIERS	1089	n/a	n/a	0	0.57763671875	0.412841796875	1	upper	amplitud.ttf
681946	REC_START	n/a	LTP101	ltpFR	6	5	n/a	n/a	n/a	n/a	n/a	n/a	n/a	n/a	n/a	n/a	n/a
682564	REC_WORD	wordpools/wasnorm_wordpool.txt	LTP101	ltpFR	6	5	0	PLIERS	1089	n/a	n/a	0	n/a	n/a	n/a	n/a	n/a
683365	REC_WORD	wordpools/wasnorm_wordpool.txt	LTP101	ltpFR	6	5	0	SCREW	1254	n/a	n/a	1	n/a	n/a	n/a	n/a	n/a
684255	REC_WORD	wordpools/wasnorm_wordpool.txt	LTP101	ltpFR	6	5	0	SPHINX	1349	n/a	n/a	1	n/a	n/a	n/a	n/a	n/a
685782	REC_WORD	wordpools/wasnorm_wordpool.txt	LTP101	ltpFR	6	5	0	LIP	828	n/a	n/a	0	n/a	n/a	n/a	n/a	n/a
686720	REC_WORD	wordpools/wasnorm_wordpool.txt	LTP101	ltpFR	6	5	0	SHRINE	1298	n/a	n/a	1	n/a	n/a	n/a	n/a	n/a
691409	REC_WORD	wordpools/wasnorm_wordpool.txt	LTP101	ltpFR	6	5	0	SKI	1316	n/a	n/a	1	n/a	n/a	n/a	n/a	n/a
692562	REC_WORD	wordpools/wasnorm_wordpool.txt	LTP101	ltpFR	6	5	0	CLOUD	328	n/a	n/a	1	n/a	n/a	n/a	n/a	n/a
695724	REC_WORD	wordpools/wasnorm_wordpool.txt	LTP101	ltpFR	6	5	0	BROOM	178	n/a	n/a	1	n/a	n/a	n/a	n/a	n/a
697471	REC_WORD	wordpools/wasnorm_wordpool.txt	LTP101	ltpFR	6	5	0	SEAFOOD	1260	n/a	n/a	0	n/a	n/a	n/a	n/a	n/a
698523	REC_WORD	wordpools/wasnorm_wordpool.txt	LTP101	ltpFR	6	5	0	MUSEUM	933	n/a	n/a	1	n/a	n/a	n/a	n/a	n/a
699621	REC_WORD	wordpools/wasnorm_wordpool.txt	LTP101	ltpFR	6	5	0	HOME	712	n/a	n/a	1	n/a	n/a	n/a	n/a	n/a
703352	REC_WORD	wordpools/wasnorm_wordpool.txt	LTP101	ltpFR	6	5	0	SHRINE	1298	n/a	n/a	1	n/a	n/a	n/a	n/a	n/a
759723	WORD	wordpools/wasnorm_wordpool.txt	LTP101	ltpFR	6	6	0	CAULIFLOWER	262	n/a	n/a	1	0.57763671875	0.412841796875	1	upper	amplitud.ttf
763872	WORD	wordpools/wasnorm_wordpool.txt	LTP101	ltpFR	6	6	0	RADISH	1158	n/a	n/a	0	0.57763671875	0.412841796875	1	upper	amplitud.ttf
767771	WORD	wordpools/wasnorm_wordpool.txt	LTP101	ltpFR	6	6	1	BIOLOGIST	128	n/a	n/a	1	0.422607421875	0.5869140625	0	lower	zerothre.ttf
771863	WORD	wordpools/wasnorm_wordpool.txt	LTP101	ltpFR	6	6	1	BOUQUET	157	n/a	n/a	1	0.422607421875	0.5869140625	0	lower	zerothre.ttf
776071	WORD	wordpools/wasnorm_wordpool.txt	LTP101	ltpFR	6	6	1	FOX	598	n/a	n/a	1	0.422607421875	0.5869140625	0	lower	zerothre.ttf
779995	WORD	wordpools/wasnorm_wordpool.txt	LTP101	ltpFR	6	6	0	BEAST	108	n/a	n/a	1	0.57763671875	0.412841796875	1	upper	amplitud.ttf
784103	WORD	wordpools/wasnorm_wordpool.txt	LTP101	ltpFR	6	6	0	HELMET	702	n/a	n/a	0	0.57763671875	0.412841796875	1	upper	amplitud.ttf
788036	WORD	wordpools/wasnorm_wordpool.txt	LTP101	ltpFR	6	6	1	SLEIGH	1325	n/a	n/a	0	0.422607421875	0.5869140625	0	lower	zerothre.ttf
792069	WORD	wordpools/wasnorm_wordpool.txt	LTP101	ltpFR	6	6	1	HAWK	692	n/a	n/a	1	0.422607421875	0.5869140625	0	lower	zerothre.ttf
795969	WORD	wordpools/wasnorm_wordpool.txt	LTP101	ltpFR	6	6	1	TOE	1473	n/a	n/a	0	0.422607421875	0.5869140625	0	lower	zerothre.ttf
799802	WORD	wordpools/wasnorm_wordpool.txt	LTP101	ltpFR	6	6	1	FINGER	567	n/a	n/a	0	0.422607421875	0.5869140625	0	lower	zerothre.ttf
803810	WORD	wordpools/wasnorm_wordpool.txt	LTP101	ltpFR	6	6	1	DESSERT	453	n/a	n/a	0	0.422607421875	0.5869140625	0	lower	zerothre.ttf
807777	WORD	wordpools/wasnorm_wordpool.txt	LTP101	ltpFR	6	6	0	CONVENT	370	n/a	n/a	1	0.57763671875	0.412841796875	1	upper	amplitud.ttf
811627	WORD	wordpools/wasnorm_wordpool.txt	LTP101	ltpFR	6	6	0	CEREAL	272	n/a	n/a	1	0.57763671875	0.412841796875	1	upper	amplitud.ttf
815594	WORD	wordpools/wasnorm_wordpool.txt	LTP101	ltpFR	6	6	0	JELLO	754	n/a	n/a	0	0.57763671875	0.412841796875	1	upper	amplitud.ttf
819668	WORD	wordpools/wasnorm_wordpool.txt	LTP101	ltpFR	6	6	0	PELICAN	1039	n/a	n/a	1	0.57763671875	0.412841796875	1	upper	amplitud.ttf
825310	REC_START	n/a	LTP101	ltpFR	6	6	n/a	n/a	n/a	n/a	n/a	n/a	n/a	n/a	n/a	n/a	n/a
825789	REC_WORD	wordpools/wasnorm_wordpool.txt	LTP101	ltpFR	6	6	0	PELICAN	1039	n/a	n/a	1	n/a	n/a	n/a	n/a	n/a
826732	REC_WORD	wordpools/wasnorm_wordpool.txt	LTP101	ltpFR	6	6	0	JELLO	754	n/a	n/a	0	n/a	n/a	n/a	n/a	n/a
828009	REC_WORD	wordpools/wasnorm_wordpool.txt	LTP101	ltpFR	6	6	0	CAULIFLOWER	262	n/a	n/a	1	n/a	n/a	n/a	n/a	n/a
828969	REC_WORD	wordpools/wasnorm_wordpool.txt	LTP101	ltpFR	6	6	0	RADISH	1158	n/a	n/a	0	n/a	n/a	n/a	n/a	n/a
829715	REC_WORD	wordpools/wasnorm_wordpool.txt	LTP101	ltpFR	6	6	1	BIOLOGIST	128	n/a	n/a	1	n/a	n/a	n/a	n/a	n/a
830857	REC_WORD	wordpools/wasnorm_wordpool.txt	LTP101	ltpFR	6	6	1	BOUQUET	157	n/a	n/a	1	n/a	n/a	n/a	n/a	n/a
832184	REC_WORD	wordpools/wasnorm_wordpool.txt	LTP101	ltpFR	6	6	1	FOX	598	n/a	n/a	1	n/a	n/a	n/a	n/a	n/a
833566	REC_WORD	wordpools/wasnorm_wordpool.txt	LTP101	ltpFR	6	6	1	HAWK	692	n/a	n/a	1	n/a	n/a	n/a	n/a	n/a
842236	REC_WORD	wordpools/wasnorm_wordpool.txt	LTP101	ltpFR	6	6	1	TOE	1473	n/a	n/a	0	n/a	n/a	n/a	n/a	n/a
842935	REC_WORD	wordpools/wasnorm_wordpool.txt	LTP101	ltpFR	6	6	1	FINGER	567	n/a	n/a	0	n/a	n/a	n/a	n/a	n/a
902595	WORD	wordpools/wasnorm_wordpool.txt	LTP101	ltpFR	6	7	0	SWATTER	1418	n/a	n/a	1	0.57763671875	0.412841796875	1	upper	amplitud.ttf
906570	WORD	wordpools/wasnorm_wordpool.txt	LTP101	ltpFR	6	7	0	SWAN	1417	n/a	n/a	1	0.57763671875	0.412841796875	1	upper	amplitud.ttf
910686	WORD	wordpools/wasnorm_wordpool.txt	LTP101	ltpFR	6	7	0	KEEPER	769	n/a	n/a	1	0.57763671875	0.412841796875	1	upper	amplitud.ttf
914661	WORD	wordpools/wasnorm_wordpool.txt	LTP101	ltpFR	6	7	0	COMB	351	n/a	n/a	0	0.57763671875	0.412841796875	1	upper	amplitud.ttf
918860	WORD	wordpools/wasnorm_wordpool.txt	LTP101	ltpFR	6	7	0	SECRETARY	1265	n/a	n/a	1	0.57763671875	0.412841796875	1	upper	amplitud.ttf
922768	WORD	wordpools/wasnorm_wordpool.txt	LTP101	ltpFR	6	7	1	SALT	1229	n/a	n/a	0	0.422607421875	0.5869140625	0	lower	zerothre.ttf
926926	WORD	wordpools/wasnorm_wordpool.txt	LTP101	ltpFR	6	7	1	HURRICANE	727	n/a	n/a	0	0.422607421875	0.5869140625	0	lower	zerothre.ttf
931026	WORD	wordpools/wasnorm_wordpool.txt	LTP101	ltpFR	6	7	1	GLUE	643	n/a	n/a	0	0.422607421875	0.5869140625	0	lower	zerothre.ttf
935034	WORD	wordpools/wasnorm_wordpool.txt	LTP101	ltpFR	6	7	1	TOOTH	1481	n/a	n/a	0	0.422607421875	0.5869140625	0	lower	zerothre.ttf
939233	WORD	wordpools/wasnorm_wordpool.txt	LTP101	ltpFR	6	7	0	ORCHID	982	n/a	n/a	0	0.57763671875	0.412841796875	1	upper	amplitud.ttf
943225	WORD	wordpools/wasnorm_wordpool.txt	LTP101	ltpFR	6	7	0	PASTRY	1022	n/a	n/a	0	0.57763671875	0.412841796875	1	upper	amplitud.ttf
947183	WORD	wordpools/wasnorm_wordpool.txt	LTP101	ltpFR	6	7	0	TART	1436	n/a	n/a	0	0.57763671875	0.412841796875	1	upper	amplitud.ttf
951232	WORD	wordpools/wasnorm_wordpool.txt	LTP101	ltpFR	6	7	1	HEDGE	699	n/a	n/a	0	0.422607421875	0.5869140625	0	lower	zerothre.ttf
955199	WORD	wordpools/wasnorm_wordpool.txt	LTP101	ltpFR	6	7	1	CLERK	321	n/a	n/a	0	0.422607421875	0.5869140625	0	lower	zerothre.ttf
959057	WORD	wordpools/wasnorm_wordpool.txt	LTP101	ltpFR	6	7	1	TUB	1514	n/a	n/a	0	0.422607421875	0.5869140625	0	lower	zerothre.ttf
963165	WORD	wordpools/wasnorm_wordpool.txt	LTP101	ltpFR	6	7	1	SHOWER	1296	n/a	n/a	0	0.422607421875	0.5869140625	0	lower	zerothre.ttf
969057	REC_START	n/a	LTP101	ltpFR	6	7	n/a	n/a	n/a	n/a	n/a	n/a	n/a	n/a	n/a	n/a	n/a
969650	REC_WORD	wordpools/wasnorm_wordpool.txt	LTP101	ltpFR	6	7	1	SHOWER	1296	n/a	n/a	0	n/a	n/a	n/a	n/a	n/a
970783	REC_WORD	wordpools/wasnorm_wordpool.txt	LTP101	ltpFR	6	7	1	TUB	1514	n/a	n/a	0	n/a	n/a	n/a	n/a	n/a
971945	REC_WORD	wordpools/wasnorm_wordpool.txt	LTP101	ltpFR	6	7	0	PASTRY	1022	n/a	n/a	0	n/a	n/a	n/a	n/a	n/a
973078	REC_WORD	wordpools/wasnorm_wordpool.txt	LTP101	ltpFR	6	7	0	TART	1436	n/a	n/a	0	n/a	n/a	n/a	n/a	n/a
974190	REC_WORD	wordpools/wasnorm_wordpool.txt	LTP101	ltpFR	6	7	1	HEDGE	699	n/a	n/a	0	n/a	n/a	n/a	n/a	n/a
976285	REC_WORD	wordpools/wasnorm_wordpool.txt	LTP101	ltpFR	6	7	0	SWAN	1417	n/a	n/a	1	n/a	n/a	n/a	n/a	n/a
977807	REC_WORD	wordpools/wasnorm_wordpool.txt	LTP101	ltpFR	6	7	0	KEEPER	769	n/a	n/a	1	n/a	n/a	n/a	n/a	n/a
978994	REC_WORD	wordpools/wasnorm_wordpool.txt	LTP101	ltpFR	6	7	0	ORCHID	982	n/a	n/a	0	n/a	n/a	n/a	n/a	n/a
980611	REC_WORD	wordpools/wasnorm_wordpool.txt	LTP101	ltpFR	6	7	0	COMB	351	n/a	n/a	0	n/a	n/a	n/a	n/a	n/a
982382	REC_WORD	wordpools/wasnorm_wordpool.txt	LTP101	ltpFR	6	7	1	HURRICANE	727	n/a	n/a	0	n/a	n/a	n/a	n/a	n/a
983728	REC_WORD	wordpools/wasnorm_wordpool.txt	LTP101	ltpFR	6	7	0	SECRETARY	1265	n/a	n/a	1	n/a	n/a	n/a	n/a	n/a
985300	REC_WORD	wordpools/wasnorm_wordpool.txt	LTP101	ltpFR	6	7	1	SALT	1229	n/a	n/a	0	n/a	n/a	n/a	n/a	n/a
1014000	REC_WORD	wordpools/wasnorm_wordpool.txt	LTP101	ltpFR	6	7	1	CLERK	321	n/a	n/a	0	n/a	n/a	n/a	n/a	n/a
1046200	WORD	wordpools/wasnorm_wordpool.txt	LTP101	ltpFR	6	8	0	CASH	252	n/a	n/a	0	0.57763671875	0.412841796875	1	upper	amplitud.ttf
1050225	WORD	wordpools/wasnorm_wordpool.txt	LTP101	ltpFR	6	8	0	VAULT	1550	n/a	n/a	1	0.57763671875	0.412841796875	1	upper	amplitud.ttf
1054200	WORD	wordpools/wasnorm_wordpool.txt	LTP101	ltpFR	6	8	0	PEDAL	1037	n/a	n/a	1	0.57763671875	0.412841796875	1	upper	amplitud.ttf
1058041	WORD	wordpools/wasnorm_wordpool.txt	LTP101	ltpFR	6	8	0	LAKE	796	n/a	n/a	1	0.57763671875	0.412841796875	1	upper	amplitud.ttf
1062007	WORD	wordpools/wasnorm_wordpool.txt	LTP101	ltpFR	6	8	0	SKYSCRAPER	1322	n/a	n/a	1	0.57763671875	0.412841796875	1	upper	amplitud.ttf
1066040	WORD	wordpools/wasnorm_wordpool.txt	LTP101	ltpFR	6	8	0	CUE	422	n/a	n/a	0	0.57763671875	0.412841796875	1	upper	amplitud.ttf
1070023	WORD	wordpools/wasnorm_wordpool.txt	LTP101	ltpFR	6	8	0	CATCHER	258	n/a	n/a	1	0.57763671875	0.412841796875	1	upper	amplitud.ttf
1073956	WORD	wordpools/wasnorm_wordpool.txt	LTP101	ltpFR	6	8	0	COYOTE	396	n/a	n/a	1	0.57763671875	0.412841796875	1	upper	amplitud.ttf
1077906	WORD	wordpools/wasnorm_wordpool.txt	LTP101	ltpFR	6	8	0	HIP	710	n/a	n/a	0	0.57763671875	0.412841796875	1	upper	amplitud.ttf
1081847	WORD	wordpools/wasnorm_wordpool.txt	LTP101	ltpFR	6	8	0	JOINT	758	n/a	n/a	0	0.57763671875	0.412841796875	1	upper	amplitud.ttf
1085856	WORD	wordpools/wasnorm_wordpool.txt	LTP101	ltpFR	6	8	0	WAVE	1596	n/a	n/a	0	0.57763671875	0.412841796875	1	upper	amplitud.ttf
1089715	WORD	wordpools/wasnorm_wordpool.txt	LTP101	ltpFR	6	8	0	SPOON	1357	n/a	n/a	0	0.57763671875	0.412841796875	1	upper	amplitud.ttf
1093539	WORD	wordpools/wasnorm_wordpool.txt	LTP101	ltpFR	6	8	0	TAXI	1438	n/a	n/a	1	0.57763671875	0.412841796875	1	upper	amplitud.ttf
1097364	WORD	wordpools/wasnorm_wordpool.txt	LTP101	ltpFR	6	8	0	WEED	1599	n/a	n/a	0	0.57763671875	0.412841796875	1	upper	amplitud.ttf
1101305	WORD	wordpools/wasnorm_wordpool.txt	LTP101	ltpFR	6	8	0	BUNNY	198	n/a	n/a	1	0.57763671875	0.412841796875	1	upper	amplitud.ttf
1105322	WORD	wordpools/wasnorm_wordpool.txt	LTP101	ltpFR	6	8	0	BUILDING	191	n/a	n/a	1	0.57763671875	0.412841796875	1	upper	amplitud.ttf
1111129	REC_START	n/a	LTP101	ltpFR	6	8	n/a	n/a	n/a	n/a	n/a	n/a	n/a	n/a	n/a	n/a	n/a
1111907	REC_WORD	wordpools/wasnorm_wordpool.txt	LTP101	ltpFR	6	8	0	BUILDING	191	n/a	n/a	1	n/a	n/a	n/a	n/a	n/a
1112980	REC_WORD	wordpools/wasnorm_wordpool.txt	LTP101	ltpFR	6	8	0	BUNNY	198	n/a	n/a	1	n/a	n/a	n/a	n/a	n/a
1114017	REC_WORD	wordpools/wasnorm_wordpool.txt	LTP101	ltpFR	6	8	0	WEED	1599	n/a	n/a	0	n/a	n/a	n/a	n/a	n/a
1115299	REC_WORD	wordpools/wasnorm_wordpool.txt	LTP101	ltpFR	6	8	0	HIP	710	n/a	n/a	0	n/a	n/a	n/a	n/a	n/a
1116392	REC_WORD	wordpools/wasnorm_wordpool.txt	LTP101	ltpFR	6	8	0	JOINT	758	n/a	n/a	0	n/a	n/a	n/a	n/a	n/a
1120503	REC_WORD	wordpools/wasnorm_wordpool.txt	LTP101	ltpFR	6	8	0	PEDAL	1037	n/a	n/a	1	n/a	n/a	n/a	n/a	n/a
1121455	REC_WORD	wordpools/wasnorm_wordpool.txt	LTP101	ltpFR	6	8	0	CASH	252	n/a	n/a	0	n/a	n/a	n/a	n/a	n/a
1122588	REC_WORD	wordpools/wasnorm_wordpool.txt	LTP101	ltpFR	6	8	0	VAULT	1550	n/a	n/a	1	n/a	n/a	n/a	n/a	n/a
1124962	REC_WORD	wordpools/wasnorm_wordpool.txt	LTP101	ltpFR	6	8	0	LAKE	796	n/a	n/a	1	n/a	n/a	n/a	n/a	n/a
1126294	REC_WORD	wordpools/wasnorm_wordpool.txt	LTP101	ltpFR	6	8	0	CUE	422	n/a	n/a	0	n/a	n/a	n/a	n/a	n/a
1188649	WORD	wordpools/wasnorm_wordpool.txt	LTP101	ltpFR	6	9	-1	BAY	102	n/a	n/a	-1	1.0	1.0	1	upper	Verdana.ttf
1192831	WORD	wordpools/wasnorm_wordpool.txt	LTP101	ltpFR	6	9	-1	DRILL	497	n/a	n/a	-1	1.0	1.0	1	upper	Verdana.ttf
1196805	WORD	wordpools/wasnorm_wordpool.txt	LTP101	ltpFR	6	9	-1	WOLF	1619	n/a	n/a	-1	1.0	1.0	1	upper	Verdana.ttf
1200939	WORD	wordpools/wasnorm_wordpool.txt	LTP101	ltpFR	6	9	-1	INFANT	737	n/a	n/a	-1	1.0	1.0	1	upper	Verdana.ttf
1204772	WORD	wordpools/wasnorm_wordpool.txt	LTP101	ltpFR	6	9	-1	CRIB	407	n/a	n/a	-1	1.0	1.0	1	upper	Verdana.ttf
1208631	WORD	wordpools/wasnorm_wordpool.txt	LTP101	ltpFR	6	9	-1	AUTOMOBILE	62	n/a	n/a	-1	1.0	1.0	1	upper	Verdana.ttf
1212697	WORD	wordpools/wasnorm_wordpool.txt	LTP101	ltpFR	6	9	-1	FUNGUS	614	n/a	n/a	-1	1.0	1.0	1	upper	Verdana.ttf
1216730	WORD	wordpools/wasnorm_wordpool.txt	LTP101	ltpFR	6	9	-1	LAUNDRY	803	n/a	n/a	-1	1.0	1.0	1	upper	Verdana.ttf
1220755	WORD	wordpools/wasnorm_wordpool.txt	LTP101	ltpFR	6	9	-1	OCEAN	970	n/a	n/a	-1	1.0	1.0	1	upper	Verdana.ttf
1224596	WORD	wordpools/wasnorm_wordpool.txt	LTP101	ltpFR	6	9	-1	BUS	201	n/a	n/a	-1	1.0	1.0	1	upper	Verdana.ttf
1228612	WORD	wordpools/wasnorm_wordpool.txt	LTP101	ltpFR	6	9	-1	LANDSCAPE	799	n/a	n/a	-1	1.0	1.0	1	upper	Verdana.ttf
1232604	WORD	wordpools/wasnorm_wordpool.txt	LTP101	ltpFR	6	9	-1	CONSOLE	364	n/a	n/a	-1	1.0	1.0	1	upper	Verdana.ttf
1236637	WORD	wordpools/wasnorm_wordpool.txt	LTP101	ltpFR	6	9	-1	POLE	1097	n/a	n/a	-1	1.0	1.0	1	upper	Verdana.ttf
1240844	WORD	wordpools/wasnorm_wordpool.txt	LTP101	ltpFR	6	9	-1	PATRIOT	1026	n/a	n/a	-1	1.0	1.0	1	upper	Verdana.ttf
1244844	WORD	wordpools/wasnorm_wordpool.txt	LTP101	ltpFR	6	9	-1	SCALLOP	1242	n/a	n/a	-1	1.0	1.0	1	upper	Verdana.ttf
1249043	WORD	wordpools/wasnorm_wordpool.txt	LTP101	ltpFR	6	9	-1	WINE	1613	n/a	n/a	-1	1.0	1.0	1	upper	Verdana.ttf
1254893	REC_START	n/a	LTP101	ltpFR	6	9	n/a	n/a	n/a	n/a	n/a	n/a	n/a	n/a	n/a	n/a	n/a
1255336	REC_WORD	wordpools/wasnorm_wordpool.txt	LTP101	ltpFR	6	9	-1	SCALLOP	1242	n/a	n/a	-1	n/a	n/a	n/a	n/a	n/a
1256704	REC_WORD	wordpools/wasnorm_wordpool.txt	LTP101	ltpFR	6	9	-1	WINE	1613	n/a	n/a	-1	n/a	n/a	n/a	n/a	n/a
1258949	REC_WORD	wordpools/wasnorm_wordpool.txt	LTP101	ltpFR	6	9	-1	DRILL	497	n/a	n/a	-1	n/a	n/a	n/a	n/a	n/a
1260006	REC_WORD	wordpools/wasnorm_wordpool.txt	LTP101	ltpFR	6	9	-1	BAY	102	n/a	n/a	-1	n/a	n/a	n/a	n/a	n/a
1260884	REC_WORD	wordpools/wasnorm_wordpool.txt	LTP101	ltpFR	6	9	-1	OCEAN	970	n/a	n/a	-1	n/a	n/a	n/a	n/a	n/a
1262241	REC_WORD	wordpools/wasnorm_wordpool.txt	LTP101	ltpFR	6	9	-1	AUTOMOBILE	62	n/a	n/a	-1	n/a	n/a	n/a	n/a	n/a
1264855	REC_WORD	wordpools/wasnorm_wordpool.txt	LTP101	ltpFR	6	9	-1	WOLF	1619	n/a	n/a	-1	n/a	n/a	n/a	n/a	n/a
1265763	REC_WORD	wordpools/wasnorm_wordpool.txt	LTP101	ltpFR	6	9	-1	INFANT	737	n/a	n/a	-1	n/a	n/a	n/a	n/a	n/a
1266730	REC_WORD	wordpools/wasnorm_wordpool.txt	LTP101	ltpFR	6	9	-1	FUNGUS	614	n/a	n/a	-1	n/a	n/a	n/a	n/a	n/a
1268108	REC_WORD	wordpools/wasnorm_wordpool.txt	LTP101	ltpFR	6	9	-1	CONSOLE	364	n/a	n/a	-1	n/a	n/a	n/a	n/a	n/a
1269195	REC_WORD	wordpools/wasnorm_wordpool.txt	LTP101	ltpFR	6	9	-1	POLE	1097	n/a	n/a	-1	n/a	n/a	n/a	n/a	n/a
1273890	REC_WORD	wordpools/wasnorm_wordpool.txt	LTP101	ltpFR	6	9	n/a	CRADLE	399	n/a	n/a	n/a	n/a	n/a	n/a	n/a	n/a
1275471	REC_WORD	wordpools/wasnorm_wordpool.txt	LTP101	ltpFR	6	9	-1	CRIB	407	n/a	n/a	-1	n/a	n/a	n/a	n/a	n/a
1279223	REC_WORD	wordpools/wasnorm_wordpool.txt	LTP101	ltpFR	6	9	-1	LAUNDRY	803	n/a	n/a	-1	n/a	n/a	n/a	n/a	n/a
1332330	WORD	wordpools/wasnorm_wordpool.txt	LTP101	ltpFR	6	10	1	HEEL	700	n/a	n/a	0	0.422607421875	0.5869140625	0	lower	zerothre.ttf
1336145	WORD	wordpools/wasnorm_wordpool.txt	LTP101	ltpFR	6	10	1	CIRCUS	311	n/a	n/a	0	0.422607421875	0.5869140625	0	lower	zerothre.ttf
1340170	WORD	wordpools/wasnorm_wordpool.txt	LTP101	ltpFR	6	10	1	COLLAR	345	n/a	n/a	0	0.422607421875	0.5869140625	0	lower	zerothre.ttf
1344169	WORD	wordpools/wasnorm_wordpool.txt	LTP101	ltpFR	6	10	1	PORCH	1106	n/a	n/a	1	0.422607421875	0.5869140625	0	lower	zerothre.ttf
1348228	WORD	wordpools/wasnorm_wordpool.txt	LTP101	ltpFR	6	10	0	SWITCH	1422	n/a	n/a	1	0.57763671875	0.412841796875	1	upper	amplitud.ttf
1352328	WORD	wordpools/wasnorm_wordpool.txt	LTP101	ltpFR	6	10	0	SKELETON	1314	n/a	n/a	1	0.57763671875	0.412841796875	1	upper	amplitud.ttf
1356419	WORD	wordpools/wasnorm_wordpool.txt	LTP101	ltpFR	6	10	1	DEER	444	n/a	n/a	1	0.422607421875	0.5869140625	0	lower	zerothre.ttf
1360552	WORD	wordpools/wasnorm_wordpool.txt	LTP101	ltpFR	6	10	1	ESSAY	540	n/a	n/a	0	0.422607421875	0.5869140625	0	lower	zerothre.ttf
1364602	WORD	wordpools/wasnorm_wordpool.txt	LTP101	ltpFR	6	10	1	TAIL	1430	n/a	n/a	0	0.422607421875	0.5869140625	0	lower	zerothre.ttf
1368460	WORD	wordpools/wasnorm_wordpool.txt	LTP101	ltpFR	6	10	1	ANKLE	24	n/a	n/a	0	0.422607421875	0.5869140625	0	lower	zerothre.ttf
1372452	WORD	wordpools/wasnorm_wordpool.txt	LTP101	ltpFR	6	10	0	GENTLEMAN	631	n/a	n/a	1	0.57763671875	0.412841796875	1	upper	amplitud.ttf
1376643	WORD	wordpools/wasnorm_wordpool.txt	LTP101	ltpFR	6	10	0	VITAMIN	1574	n/a	n/a	0	0.57763671875	0.412841796875	1	upper	amplitud.ttf
1380792	WORD	wordpools/wasnorm_wordpool.txt	LTP101	ltpFR	6	10	0	CARDINAL	244	n/a	n/a	0	0.57763671875	0.412841796875	1	upper	amplitud.ttf
1384925	WORD	wordpools/wasnorm_wordpool.txt	LTP101	ltpFR	6	10	0	GULL	671	n/a	n/a	1	0.57763671875	0.412841796875	1	upper	amplitud.ttf
1389033	WORD	wordpools/wasnorm_wordpool.txt	LTP101	ltpFR	6	10	0	MOTHER	921	n/a	n/a	1	0.57763671875	0.412841796875	1	upper	amplitud.ttf
1393149	WORD	wordpools/wasnorm_wordpool.txt	LTP101	ltpFR	6	10	0	BABY	64	n/a	n/a	0	0.57763671875	0.412841796875	1	upper	amplitud.ttf
1398725	REC_START	n/a	LTP101	ltpFR	6	10	n/a	n/a	n/a	n/a	n/a	n/a	n/a	n/a	n/a	n/a	n/a
1399363	REC_WORD	wordpools/wasnorm_wordpool.txt	LTP101	ltpFR	6	10	0	GULL	671	n/a	n/a	1	n/a	n/a	n/a	n/a	n/a
1400022	REC_WORD	wordpools/wasnorm_wordpool.txt	LTP101	ltpFR	6	10	0	MOTHER	921	n/a	n/a	1	n/a	n/a	n/a	n/a	n/a
1401045	REC_WORD	wordpools/wasnorm_wordpool.txt	LTP101	ltpFR	6	10	0	BABY	64	n/a	n/a	0	n/a	n/a	n/a	n/a	n/a
1401913	REC_WORD	wordpools/wasnorm_wordpool.txt	LTP101	ltpFR	6	10	0	CARDINAL	244	n/a	n/a	0	n/a	n/a	n/a	n/a	n/a
1403559	REC_WORD	wordpools/wasnorm_wordpool.txt	LTP101	ltpFR	6	10	1	CIRCUS	311	n/a	n/a	0	n/a	n/a	n/a	n/a	n/a
1404671	REC_WORD	wordpools/wasnorm_wordpool.txt	LTP101	ltpFR	6	10	1	DEER	444	n/a	n/a	1	n/a	n/a	n/a	n/a	n/a
1405534	REC_WORD	wordpools/wasnorm_wordpool.txt	LTP101	ltpFR	6	10	1	ANKLE	24	n/a	n/a	0	n/a	n/a	n/a	n/a	n/a
1406532	REC_WORD	wordpools/wasnorm_wordpool.txt	LTP101	ltpFR	6	10	1	TAIL	1430	n/a	n/a	0	n/a	n/a	n/a	n/a	n/a
1420106	REC_WORD	wordpools/wasnorm_wordpool.txt	LTP101	ltpFR	6	10	1	COLLAR	345	n/a	n/a	0	n/a	n/a	n/a	n/a	n/a
1476460	WORD	wordpools/wasnorm_wordpool.txt	LTP101	ltpFR	6	11	0	GIRAFFE	636	n/a	n/a	1	0.57763671875	0.412841796875	1	upper	amplitud.ttf
1480502	WORD	wordpools/wasnorm_wordpool.txt	LTP101	ltpFR	6	11	0	ALMOND	18	n/a	n/a	0	0.57763671875	0.412841796875	1	upper	amplitud.ttf
1484476	WORD	wordpools/wasnorm_wordpool.txt	LTP101	ltpFR	6	11	0	COW	393	n/a	n/a	1	0.57763671875	0.412841796875	1	upper	amplitud.ttf
1488409	WORD	wordpools/wasnorm_wordpool.txt	LTP101	ltpFR	6	11	0	CHEST	295	n/a	n/a	1	0.57763671875	0.412841796875	1	upper	amplitud.ttf
1492493	WORD	wordpools/wasnorm_wordpool.txt	LTP101	ltpFR	6	11	0	PIGEON	1065	n/a	n/a	0	0.57763671875	0.412841796875	1	upper	amplitud.ttf
1496392	WORD	wordpools/wasnorm_wordpool.txt	LTP101	ltpFR	6	11	0	QUAIL	1147	n/a	n/a	0	0.57763671875	0.412841796875	1	upper	amplitud.ttf
1500409	WORD	wordpools/wasnorm_wordpool.txt	LTP101	ltpFR	6	11	0	SEA	1259	n/a	n/a	1	0.57763671875	0.412841796875	1	upper	amplitud.ttf
1504350	WORD	wordpools/wasnorm_wordpool.txt	LTP101	ltpFR	6	11	0	TREAD	1499	n/a	n/a	1	0.57763671875	0.412841796875	1	upper	amplitud.ttf
1508375	WORD	wordpools/wasnorm_wordpool.txt	LTP101	ltpFR	6	11	0	STATUE	1374	n/a	n/a	1	0.57763671875	0.412841796875	1	upper	amplitud.ttf
1512198	WORD	wordpools/wasnorm_wordpool.txt	LTP101	ltpFR	6	11	0	BODY	145	n/a	n/a	1	0.57763671875	0.412841796875	1	upper	amplitud.ttf
1516206	WORD	wordpools/wasnorm_wordpool.txt	LTP101	ltpFR	6	11	0	BUBBLE	183	n/a	n/a	1	0.57763671875	0.412841796875	1	upper	amplitud.ttf
1520307	WORD	wordpools/wasnorm_wordpool.txt	LTP101	ltpFR	6	11	0	WALNUT	1584	n/a	n/a	0	0.57763671875	0.412841796875	1	upper	amplitud.ttf
1524457	WORD	wordpools/wasnorm_wordpool.txt	LTP101	ltpFR	6	11	0	TELEPHONE	1445	n/a	n/a	1	0.57763671875	0.412841796875	1	upper	amplitud.ttf
1528398	WORD	wordpools/wasnorm_wordpool.txt	LTP101	ltpFR	6	11	0	OX	994	n/a	n/a	1	0.57763671875	0.412841796875	1	upper	amplitud.ttf
1532365	WORD	wordpools/wasnorm_wordpool.txt	LTP101	ltpFR	6	11	0	DEPARTMENT	449	n/a	n/a	1	0.57763671875	0.412841796875	1	upper	amplitud.ttf
1536414	WORD	wordpools/wasnorm_wordpool.txt	LTP101	ltpFR	6	11	0	BUYER	208	n/a	n/a	1	0.57763671875	0.412841796875	1	upper	amplitud.ttf
1542005	REC_START	n/a	LTP101	ltpFR	6	11	n/a	n/a	n/a	n/a	n/a	n/a	n/a	n/a	n/a	n/a	n/a
1542818	REC_WORD	wordpools/wasnorm_wordpool.txt	LTP101	ltpFR	6	11	0	DEPARTMENT	449	n/a	n/a	1	n/a	n/a	n/a	n/a	n/a
1543965	REC_WORD	wordpools/wasnorm_wordpool.txt	LTP101	ltpFR	6	11	0	BUYER	208	n/a	n/a	1	n/a	n/a	n/a	n/a	n/a
1545272	REC_WORD	wordpools/wasnorm_wordpool.txt	LTP101	ltpFR	6	11	0	OX	994	n/a	n/a	1	n/a	n/a	n/a	n/a	n/a
1546390	REC_WORD	wordpools/wasnorm_wordpool.txt	LTP101	ltpFR	6	11	0	COW	393	n/a	n/a	1	n/a	n/a	n/a	n/a	n/a
1548256	REC_WORD	wordpools/wasnorm_wordpool.txt	LTP101	ltpFR	6	11	0	ALMOND	18	n/a	n/a	0	n/a	n/a	n/a	n/a	n/a
1549627	REC_WORD	wordpools/wasnorm_wordpool.txt	LTP101	ltpFR	6	11	0	WALNUT	1584	n/a	n/a	0	n/a	n/a	n/a	n/a	n/a
1551269	REC_WORD	wordpools/wasnorm_wordpool.txt	LTP101	ltpFR	6	11	0	CHEST	295	n/a	n/a	1	n/a	n/a	n/a	n/a	n/a
1552571	REC_WORD	wordpools/wasnorm_wordpool.txt	LTP101	ltpFR	6	11	0	PIGEON	1065	n/a	n/a	0	n/a	n/a	n/a	n/a	n/a
1553848	REC_WORD	wordpools/wasnorm_wordpool.txt	LTP101	ltpFR	6	11	0	QUAIL	1147	n/a	n/a	0	n/a	n/a	n/a	n/a	n/a
1563850	REC_WORD	wordpools/wasnorm_wordpool.txt	LTP101	ltpFR	6	11	0	BUBBLE	183	n/a	n/a	1	n/a	n/a	n/a	n/a	n/a
1566150	REC_WORD	wordpools/wasnorm_wordpool.txt	LTP101	ltpFR	6	11	0	TELEPHONE	1445	n/a	n/a	1	n/a	n/a	n/a	n/a	n/a
1590301	REC_WORD_VV	wordpools/wasnorm_wordpool.txt	LTP101	ltpFR	6	11	n/a	<>	-1	n/a	n/a	n/a	n/a	n/a	n/a	n/a	n/a
1620048	WORD	wordpools/wasnorm_wordpool.txt	LTP101	ltpFR	6	12	1	VALLEY	1545	n/a	n/a	0	0.422607421875	0.5869140625	0	lower	zerothre.ttf
1624248	WORD	wordpools/wasnorm_wordpool.txt	LTP101	ltpFR	6	12	1	POISON	1096	n/a	n/a	0	0.422607421875	0.5869140625	0	lower	zerothre.ttf
1628432	WORD	wordpools/wasnorm_wordpool.txt	LTP101	ltpFR	6	12	1	SKULL	1320	n/a	n/a	0	0.422607421875	0.5869140625	0	lower	zerothre.ttf
1632632	WORD	wordpools/wasnorm_wordpool.txt	LTP101	ltpFR	6	12	1	DOLL	481	n/a	n/a	0	0.422607421875	0.5869140625	0	lower	zerothre.ttf
1636732	WORD	wordpools/wasnorm_wordpool.txt	LTP101	ltpFR	6	12	1	KID	775	n/a	n/a	1	0.422607421875	0.5869140625	0	lower	zerothre.ttf
1640764	WORD	wordpools/wasnorm_wordpool.txt	LTP101	ltpFR	6	12	1	PATIENT	1024	n/a	n/a	1	0.422607421875	0.5869140625	0	lower	zerothre.ttf
1644748	WORD	wordpools/wasnorm_wordpool.txt	LTP101	ltpFR	6	12	1	PHYSICIAN	1056	n/a	n/a	1	0.422607421875	0.5869140625	0	lower	zerothre.ttf
1648722	WORD	wordpools/wasnorm_wordpool.txt	LTP101	ltpFR	6	12	1	MESSAGE	888	n/a	n/a	0	0.422607421875	0.5869140625	0	lower	zerothre.ttf
1652771	WORD	wordpools/wasnorm_wordpool.txt	LTP101	ltpFR	6	12	1	CHAMPAGNE	278	n/a	n/a	0	0.422607421875	0.5869140625	0	lower	zerothre.ttf
1656912	WORD	wordpools/wasnorm_wordpool.txt	LTP101	ltpFR	6	12	1	BULLET	194	n/a	n/a	0	0.422607421875	0.5869140625	0	lower	zerothre.ttf
1661112	WORD	wordpools/wasnorm_wordpool.txt	LTP101	ltpFR	6	12	1	HORIZON	717	n/a	n/a	0	0.422607421875	0.5869140625	0	lower	zerothre.ttf
1664987	WORD	wordpools/wasnorm_wordpool.txt	LTP101	ltpFR	6	12	1	BOOTH	151	n/a	n/a	0	0.422607421875	0.5869140625	0	lower	zerothre.ttf
1669103	WORD	wordpools/wasnorm_wordpool.txt	LTP101	ltpFR	6	12	1	PUB	1135	n/a	n/a	0	0.422607421875	0.5869140625	0	lower	zerothre.ttf
1673128	WORD	wordpools/wasnorm_wordpool.txt	LTP101	ltpFR	6	12	1	OUTLAW	989	n/a	n/a	1	0.422607421875	0.5869140625	0	lower	zerothre.ttf
1677011	WORD	wordpools/wasnorm_wordpool.txt	LTP101	ltpFR	6	12	1	SEAL	1262	n/a	n/a	1	0.422607421875	0.5869140625	0	lower	zerothre.ttf
1680827	WORD	wordpools/wasnorm_wordpool.txt	LTP101	ltpFR	6	12	1	MOAT	903	n/a	n/a	0	0.422607421875	0.5869140625	0	lower	zerothre.ttf
1686712	REC_START	n/a	LTP101	ltpFR	6	12	n/a	n/a	n/a	n/a	n/a	n/a	n/a	n/a	n/a	n/a	n/a
1687595	REC_WORD	wordpools/wasnorm_wordpool.txt	LTP101	ltpFR	6	12	1	SEAL	1262	n/a	n/a	1	n/a	n/a	n/a	n/a	n/a
1688586	REC_WORD	wordpools/wasnorm_wordpool.txt	LTP101	ltpFR	6	12	1	MOAT	903	n/a	n/a	0	n/a	n/a	n/a	n/a	n/a
1689660	REC_WORD	wordpools/wasnorm_wordpool.txt	LTP101	ltpFR	6	12	1	OUTLAW	989	n/a	n/a	1	n/a	n/a	n/a	n/a	n/a
1690728	REC_WORD	wordpools/wasnorm_wordpool.txt	LTP101	ltpFR	6	12	1	PATIENT	1024	n/a	n/a	1	n/a	n/a	n/a	n/a	n/a
1691408	REC_WORD	wordpools/wasnorm_wordpool.txt	LTP101	ltpFR	6	12	1	PHYSICIAN	1056	n/a	n/a	1	n/a	n/a	n/a	n/a	n/a
1693282	REC_WORD	wordpools/wasnorm_wordpool.txt	LTP101	ltpFR	6	12	1	SKULL	1320	n/a	n/a	0	n/a	n/a	n/a	n/a	n/a
1694953	REC_WORD	wordpools/wasnorm_wordpool.txt	LTP101	ltpFR	6	12	1	POISON	1096	n/a	n/a	0	n/a	n/a	n/a	n/a	n/a
1696824	REC_WORD	wordpools/wasnorm_wordpool.txt	LTP101	ltpFR	6	12	1	KID	775	n/a	n/a	1	n/a	n/a	n/a	n/a	n/a
1697941	REC_WORD	wordpools/wasnorm_wordpool.txt	LTP101	ltpFR	6	12	n/a	TOY	1492	n/a	n/a	n/a	n/a	n/a	n/a	n/a	n/a
1699104	REC_WORD	wordpools/wasnorm_wordpool.txt	LTP101	ltpFR	6	12	1	DOLL	481	n/a	n/a	0	n/a	n/a	n/a	n/a	n/a
1702835	REC_WORD	wordpools/wasnorm_wordpool.txt	LTP101	ltpFR	6	12	1	VALLEY	1545	n/a	n/a	0	n/a	n/a	n/a	n/a	n/a
1715352	REC_WORD_VV	wordpools/wasnorm_wordpool.txt	LTP101	ltpFR	6	12	n/a	<>	-1	n/a	n/a	n/a	n/a	n/a	n/a	n/a	n/a
1730368	REC_WORD	wordpools/wasnorm_wordpool.txt	LTP101	ltpFR	6	12	1	CHAMPAGNE	278	n/a	n/a	0	n/a	n/a	n/a	n/a	n/a
1741073	REC_WORD	wordpools/wasnorm_wordpool.txt	LTP101	ltpFR	6	12	1	BULLET	194	n/a	n/a	0	n/a	n/a	n/a	n/a	n/a
1762297	REST_REWET	n/a	LTP101	ltpFR	6	12	n/a	n/a	n/a	n/a	n/a	n/a	n/a	n/a	n/a	n/a	n/a
2355669	WORD	wordpools/wasnorm_wordpool.txt	LTP101	ltpFR	6	13	1	STAPLE	1371	n/a	n/a	0	0.422607421875	0.5869140625	0	lower	zerothre.ttf
2359843	WORD	wordpools/wasnorm_wordpool.txt	LTP101	ltpFR	6	13	1	GENERAL	630	n/a	n/a	1	0.422607421875	0.5869140625	0	lower	zerothre.ttf
2363760	WORD	wordpools/wasnorm_wordpool.txt	LTP101	ltpFR	6	13	1	JEANS	752	n/a	n/a	0	0.422607421875	0.5869140625	0	lower	zerothre.ttf
2367635	WORD	wordpools/wasnorm_wordpool.txt	LTP101	ltpFR	6	13	1	COMPASS	358	n/a	n/a	0	0.422607421875	0.5869140625	0	lower	zerothre.ttf
2371476	WORD	wordpools/wasnorm_wordpool.txt	LTP101	ltpFR	6	13	0	NET	946	n/a	n/a	0	0.57763671875	0.412841796875	1	upper	amplitud.ttf
2375592	WORD	wordpools/wasnorm_wordpool.txt	LTP101	ltpFR	6	13	0	SUMMIT	1405	n/a	n/a	1	0.57763671875	0.412841796875	1	upper	amplitud.ttf
2379492	WORD	wordpools/wasnorm_wordpool.txt	LTP101	ltpFR	6	13	0	DESK	452	n/a	n/a	1	0.57763671875	0.412841796875	1	upper	amplitud.ttf
2383383	WORD	wordpools/wasnorm_wordpool.txt	LTP101	ltpFR	6	13	0	ZEBRA	1635	n/a	n/a	1	0.57763671875	0.412841796875	1	upper	amplitud.ttf
2387533	WORD	wordpools/wasnorm_wordpool.txt	LTP101	ltpFR	6	13	1	NOTEBOOK	959	n/a	n/a	0	0.422607421875	0.5869140625	0	lower	zerothre.ttf
2391483	WORD	wordpools/wasnorm_wordpool.txt	LTP101	ltpFR	6	13	1	DOCUMENT	479	n/a	n/a	0	0.422607421875	0.5869140625	0	lower	zerothre.ttf
2395308	WORD	wordpools/wasnorm_wordpool.txt	LTP101	ltpFR	6	13	0	MAJOR	859	n/a	n/a	1	0.57763671875	0.412841796875	1	upper	amplitud.ttf
2399165	WORD	wordpools/wasnorm_wordpool.txt	LTP101	ltpFR	6	13	0	RIVER	1194	n/a	n/a	1	0.57763671875	0.412841796875	1	upper	amplitud.ttf
2403315	WORD	wordpools/wasnorm_wordpool.txt	LTP101	ltpFR	6	13	0	PIER	1063	n/a	n/a	1	0.57763671875	0.412841796875	1	upper	amplitud.ttf
2407315	WORD	wordpools/wasnorm_wordpool.txt	LTP101	ltpFR	6	13	0	TUNA	1518	n/a	n/a	0	0.57763671875	0.412841796875	1	upper	amplitud.ttf
2411365	WORD	wordpools/wasnorm_wordpool.txt	LTP101	ltpFR	6	13	1	SPINACH	1352	n/a	n/a	0	0.422607421875	0.5869140625	0	lower	zerothre.ttf
2415531	WORD	wordpools/wasnorm_wordpool.txt	LTP101	ltpFR	6	13	1	OTTER	986	n/a	n/a	1	0.422607421875	0.5869140625	0	lower	zerothre.ttf
2421222	REC_START	n/a	LTP101	ltpFR	6	13	n/a	n/a	n/a	n/a	n/a	n/a	n/a	n/a	n/a	n/a	n/a
2421970	REC_WORD	wordpools/wasnorm_wordpool.txt	LTP101	ltpFR	6	13	1	OTTER	986	n/a	n/a	1	n/a	n/a	n/a	n/a	n/a
2422539	REC_WORD	wordpools/wasnorm_wordpool.txt	LTP101	ltpFR	6	13	1	SPINACH	1352	n/a	n/a	0	n/a	n/a	n/a	n/a	n/a
2424689	REC_WORD	wordpools/wasnorm_wordpool.txt	LTP101	ltpFR	6	13	0	RIVER	1194	n/a	n/a	1	n/a	n/a	n/a	n/a	n/a
2426156	REC_WORD	wordpools/wasnorm_wordpool.txt	LTP101	ltpFR	6	13	0	TUNA	1518	n/a	n/a	0	n/a	n/a	n/a	n/a	n/a
2427851	REC_WORD	wordpools/wasnorm_wordpool.txt	LTP101	ltpFR	6	13	0	ZEBRA	1635	n/a	n/a	1	n/a	n/a	n/a	n/a	n/a
2429857	REC_WORD	wordpools/wasnorm_wordpool.txt	LTP101	ltpFR	6	13	1	DOCUMENT	479	n/a	n/a	0	n/a	n/a	n/a	n/a	n/a
2430990	REC_WORD	wordpools/wasnorm_wordpool.txt	LTP101	ltpFR	6	13	1	NOTEBOOK	959	n/a	n/a	0	n/a	n/a	n/a	n/a	n/a
2432830	REC_WORD	wordpools/wasnorm_wordpool.txt	LTP101	ltpFR	6	13	1	GENERAL	630	n/a	n/a	1	n/a	n/a	n/a	n/a	n/a
2434282	REC_WORD	wordpools/wasnorm_wordpool.txt	LTP101	ltpFR	6	13	1	JEANS	752	n/a	n/a	0	n/a	n/a	n/a	n/a	n/a
2435809	REC_WORD	wordpools/wasnorm_wordpool.txt	LTP101	ltpFR	6	13	1	COMPASS	358	n/a	n/a	0	n/a	n/a	n/a	n/a	n/a
2437565	REC_WORD	wordpools/wasnorm_wordpool.txt	LTP101	ltpFR	6	13	0	SUMMIT	1405	n/a	n/a	1	n/a	n/a	n/a	n/a	n/a
2439346	REC_WORD	wordpools/wasnorm_wordpool.txt	LTP101	ltpFR	6	13	0	DESK	452	n/a	n/a	1	n/a	n/a	n/a	n/a	n/a
2469697	REC_WORD	wordpools/wasnorm_wordpool.txt	LTP101	ltpFR	6	13	1	STAPLE	1371	n/a	n/a	0	n/a	n/a	n/a	n/a	n/a
2498625	WORD	wordpools/wasnorm_wordpool.txt	LTP101	ltpFR	6	14	-1	BARTENDER	92	n/a	n/a	-1	1.0	1.0	1	upper	Verdana.ttf
2502666	WORD	wordpools/wasnorm_wordpool.txt	LTP101	ltpFR	6	14	-1	SCOTCH	1251	n/a	n/a	-1	1.0	1.0	1	upper	Verdana.ttf
2506790	WORD	wordpools/wasnorm_wordpool.txt	LTP101	ltpFR	6	14	-1	SLEEVE	1324	n/a	n/a	-1	1.0	1.0	1	upper	Verdana.ttf
2510790	WORD	wordpools/wasnorm_wordpool.txt	LTP101	ltpFR	6	14	-1	SUSPECT	1415	n/a	n/a	-1	1.0	1.0	1	upper	Verdana.ttf
2514848	WORD	wordpools/wasnorm_wordpool.txt	LTP101	ltpFR	6	14	-1	NEPHEW	942	n/a	n/a	-1	1.0	1.0	1	upper	Verdana.ttf
2518997	WORD	wordpools/wasnorm_wordpool.txt	LTP101	ltpFR	6	14	-1	TOWEL	1489	n/a	n/a	-1	1.0	1.0	1	upper	Verdana.ttf
2522889	WORD	wordpools/wasnorm_wordpool.txt	LTP101	ltpFR	6	14	-1	DRIVEWAY	500	n/a	n/a	-1	1.0	1.0	1	upper	Verdana.ttf
2527063	WORD	wordpools/wasnorm_wordpool.txt	LTP101	ltpFR	6	14	-1	GREASE	660	n/a	n/a	-1	1.0	1.0	1	upper	Verdana.ttf
2531130	WORD	wordpools/wasnorm_wordpool.txt	LTP101	ltpFR	6	14	-1	BOX	159	n/a	n/a	-1	1.0	1.0	1	upper	Verdana.ttf
2535330	WORD	wordpools/wasnorm_wordpool.txt	LTP101	ltpFR	6	14	-1	CLAY	320	n/a	n/a	-1	1.0	1.0	1	upper	Verdana.ttf
2539488	WORD	wordpools/wasnorm_wordpool.txt	LTP101	ltpFR	6	14	-1	ASTEROID	50	n/a	n/a	-1	1.0	1.0	1	upper	Verdana.ttf
2543463	WORD	wordpools/wasnorm_wordpool.txt	LTP101	ltpFR	6	14	-1	MICROSCOPE	891	n/a	n/a	-1	1.0	1.0	1	upper	Verdana.ttf
2547354	WORD	wordpools/wasnorm_wordpool.txt	LTP101	ltpFR	6	14	-1	INMATE	738	n/a	n/a	-1	1.0	1.0	1	upper	Verdana.ttf
2551446	WORD	wordpools/wasnorm_wordpool.txt	LTP101	ltpFR	6	14	-1	CANAL	226	n/a	n/a	-1	1.0	1.0	1	upper	Verdana.ttf
2555595	WORD	wordpools/wasnorm_wordpool.txt	LTP101	ltpFR	6	14	-1	PANTS	1010	n/a	n/a	-1	1.0	1.0	1	upper	Verdana.ttf
2559703	WORD	wordpools/wasnorm_wordpool.txt	LTP101	ltpFR	6	14	-1	EYELASH	546	n/a	n/a	-1	1.0	1.0	1	upper	Verdana.ttf
2565479	REC_START	n/a	LTP101	ltpFR	6	14	n/a	n/a	n/a	n/a	n/a	n/a	n/a	n/a	n/a	n/a	n/a
2566152	REC_WORD	wordpools/wasnorm_wordpool.txt	LTP101	ltpFR	6	14	-1	EYELASH	546	n/a	n/a	-1	n/a	n/a	n/a	n/a	n/a
2567230	REC_WORD	wordpools/wasnorm_wordpool.txt	LTP101	ltpFR	6	14	-1	PANTS	1010	n/a	n/a	-1	n/a	n/a	n/a	n/a	n/a
2571400	REC_WORD	wordpools/wasnorm_wordpool.txt	LTP101	ltpFR	6	14	-1	BARTENDER	92	n/a	n/a	-1	n/a	n/a	n/a	n/a	n/a
2572423	REC_WORD	wordpools/wasnorm_wordpool.txt	LTP101	ltpFR	6	14	-1	SCOTCH	1251	n/a	n/a	-1	n/a	n/a	n/a	n/a	n/a
2573895	REC_WORD	wordpools/wasnorm_wordpool.txt	LTP101	ltpFR	6	14	-1	SLEEVE	1324	n/a	n/a	-1	n/a	n/a	n/a	n/a	n/a
2575526	REC_WORD	wordpools/wasnorm_wordpool.txt	LTP101	ltpFR	6	14	-1	TOWEL	1489	n/a	n/a	-1	n/a	n/a	n/a	n/a	n/a
2576928	REC_WORD	wordpools/wasnorm_wordpool.txt	LTP101	ltpFR	6	14	-1	SUSPECT	1415	n/a	n/a	-1	n/a	n/a	n/a	n/a	n/a
2578340	REC_WORD	wordpools/wasnorm_wordpool.txt	LTP101	ltpFR	6	14	-1	INMATE	738	n/a	n/a	-1	n/a	n/a	n/a	n/a	n/a
2579647	REC_WORD	wordpools/wasnorm_wordpool.txt	LTP101	ltpFR	6	14	-1	NEPHEW	942	n/a	n/a	-1	n/a	n/a	n/a	n/a	n/a
2581178	REC_WORD	wordpools/wasnorm_wordpool.txt	LTP101	ltpFR	6	14	-1	DRIVEWAY	500	n/a	n/a	-1	n/a	n/a	n/a	n/a	n/a
2582645	REC_WORD	wordpools/wasnorm_wordpool.txt	LTP101	ltpFR	6	14	-1	GREASE	660	n/a	n/a	-1	n/a	n/a	n/a	n/a	n/a
2584126	REC_WORD	wordpools/wasnorm_wordpool.txt	LTP101	ltpFR	6	14	-1	BOX	159	n/a	n/a	-1	n/a	n/a	n/a	n/a	n/a
2585414	REC_WORD	wordpools/wasnorm_wordpool.txt	LTP101	ltpFR	6	14	-1	CLAY	320	n/a	n/a	-1	n/a	n/a	n/a	n/a	n/a
2586915	REC_WORD	wordpools/wasnorm_wordpool.txt	LTP101	ltpFR	6	14	-1	ASTEROID	50	n/a	n/a	-1	n/a	n/a	n/a	n/a	n/a
2588282	REC_WORD	wordpools/wasnorm_wordpool.txt	LTP101	ltpFR	6	14	-1	MICROSCOPE	891	n/a	n/a	-1	n/a	n/a	n/a	n/a	n/a
2590183	REC_WORD	wordpools/wasnorm_wordpool.txt	LTP101	ltpFR	6	14	-1	CANAL	226	n/a	n/a	-1	n/a	n/a	n/a	n/a	n/a
2642896	WORD	wordpools/wasnorm_wordpool.txt	LTP101	ltpFR	6	15	1	TRENCH	1503	n/a	n/a	0	0.422607421875	0.5869140625	0	lower	zerothre.ttf
2646996	WORD	wordpools/wasnorm_wordpool.txt	LTP101	ltpFR	6	15	1	WALRUS	1585	n/a	n/a	1	0.422607421875	0.5869140625	0	lower	zerothre.ttf
2651162	WORD	wordpools/wasnorm_wordpool.txt	LTP101	ltpFR	6	15	1	UNICORN	1538	n/a	n/a	1	0.422607421875	0.5869140625	0	lower	zerothre.ttf
2655087	WORD	wordpools/wasnorm_wordpool.txt	LTP101	ltpFR	6	15	1	KNIFE	785	n/a	n/a	0	0.422607421875	0.5869140625	0	lower	zerothre.ttf
2658903	WORD	wordpools/wasnorm_wordpool.txt	LTP101	ltpFR	6	15	1	SAUSAGE	1238	n/a	n/a	0	0.422607421875	0.5869140625	0	lower	zerothre.ttf
2662895	WORD	wordpools/wasnorm_wordpool.txt	LTP101	ltpFR	6	15	1	DINNER	468	n/a	n/a	0	0.422607421875	0.5869140625	0	lower	zerothre.ttf
2666769	WORD	wordpools/wasnorm_wordpool.txt	LTP101	ltpFR	6	15	1	POSSUM	1112	n/a	n/a	1	0.422607421875	0.5869140625	0	lower	zerothre.ttf
2670952	WORD	wordpools/wasnorm_wordpool.txt	LTP101	ltpFR	6	15	1	THUMB	1462	n/a	n/a	0	0.422607421875	0.5869140625	0	lower	zerothre.ttf
2675044	WORD	wordpools/wasnorm_wordpool.txt	LTP101	ltpFR	6	15	1	SPIT	1354	n/a	n/a	0	0.422607421875	0.5869140625	0	lower	zerothre.ttf
2679135	WORD	wordpools/wasnorm_wordpool.txt	LTP101	ltpFR	6	15	1	CHEEK	287	n/a	n/a	0	0.422607421875	0.5869140625	0	lower	zerothre.ttf
2683251	WORD	wordpools/wasnorm_wordpool.txt	LTP101	ltpFR	6	15	1	BANANA	77	n/a	n/a	0	0.422607421875	0.5869140625	0	lower	zerothre.ttf
2687427	WORD	wordpools/wasnorm_wordpool.txt	LTP101	ltpFR	6	15	1	PECAN	1036	n/a	n/a	n/a	0.422607421875	0.5869140625	0	lower	zerothre.ttf
2690452	SLOW_MSG	n/a	LTP101	ltpFR	6	15	n/a	n/a	n/a	n/a	n/a	n/a	n/a	n/a	n/a	n/a	n/a
2692959	WORD	wordpools/wasnorm_wordpool.txt	LTP101	ltpFR	6	15	1	STALLION	1369	n/a	n/a	1	0.422607421875	0.5869140625	0	lower	zerothre.ttf
2697117	WORD	wordpools/wasnorm_wordpool.txt	LTP101	ltpFR	6	15	1	GRILL	661	n/a	n/a	0	0.422607421875	0.5869140625	0	lower	zerothre.ttf
2701133	WORD	wordpools/wasnorm_wordpool.txt	LTP101	ltpFR	6	15	1	TIGER	1467	n/a	n/a	1	0.422607421875	0.5869140625	0	lower	zerothre.ttf
2705275	WORD	wordpools/wasnorm_wordpool.txt	LTP101	ltpFR	6	15	1	LION	827	n/a	n/a	1	0.422607421875	0.5869140625	0	lower	zerothre.ttf
2711025	REC_START	n/a	LTP101	ltpFR	6	15	n/a	n/a	n/a	n/a	n/a	n/a	n/a	n/a	n/a	n/a	n/a
2712028	REC_WORD	wordpools/wasnorm_wordpool.txt	LTP101	ltpFR	6	15	1	TIGER	1467	n/a	n/a	1	n/a	n/a	n/a	n/a	n/a
2712879	REC_WORD	wordpools/wasnorm_wordpool.txt	LTP101	ltpFR	6	15	1	LION	827	n/a	n/a	1	n/a	n/a	n/a	n/a	n/a
2716582	REC_WORD	wordpools/wasnorm_wordpool.txt	LTP101	ltpFR	6	15	1	TRENCH	1503	n/a	n/a	0	n/a	n/a	n/a	n/a	n/a
2717675	REC_WORD	wordpools/wasnorm_wordpool.txt	LTP101	ltpFR	6	15	1	WALRUS	1585	n/a	n/a	1	n/a	n/a	n/a	n/a	n/a
2721576	REC_WORD	wordpools/wasnorm_wordpool.txt	LTP101	ltpFR	6	15	1	POSSUM	1112	n/a	n/a	1	n/a	n/a	n/a	n/a	n/a
2722464	REC_WORD	wordpools/wasnorm_wordpool.txt	LTP101	ltpFR	6	15	1	UNICORN	1538	n/a	n/a	1	n/a	n/a	n/a	n/a	n/a
2724568	REC_WORD	wordpools/wasnorm_wordpool.txt	LTP101	ltpFR	6	15	1	STALLION	1369	n/a	n/a	1	n/a	n/a	n/a	n/a	n/a
2728051	REC_WORD	wordpools/wasnorm_wordpool.txt	LTP101	ltpFR	6	15	1	SAUSAGE	1238	n/a	n/a	0	n/a	n/a	n/a	n/a	n/a
2729189	REC_WORD	wordpools/wasnorm_wordpool.txt	LTP101	ltpFR	6	15	1	KNIFE	785	n/a	n/a	0	n/a	n/a	n/a	n/a	n/a
2730585	REC_WORD	wordpools/wasnorm_wordpool.txt	LTP101	ltpFR	6	15	1	SPIT	1354	n/a	n/a	0	n/a	n/a	n/a	n/a	n/a
2731793	REC_WORD	wordpools/wasnorm_wordpool.txt	LTP101	ltpFR	6	15	1	CHEEK	287	n/a	n/a	0	n/a	n/a	n/a	n/a	n/a
2733753	REC_WORD	wordpools/wasnorm_wordpool.txt	LTP101	ltpFR	6	15	1	PECAN	1036	n/a	n/a	n/a	n/a	n/a	n/a	n/a	n/a
2739495	REC_WORD	wordpools/wasnorm_wordpool.txt	LTP101	ltpFR	6	15	1	GRILL	661	n/a	n/a	0	n/a	n/a	n/a	n/a	n/a
2788286	WORD	wordpools/wasnorm_wordpool.txt	LTP101	ltpFR	6	16	-1	CRITIC	410	n/a	n/a	-1	1.0	1.0	1	upper	Verdana.ttf
2792278	WORD	wordpools/wasnorm_wordpool.txt	LTP101	ltpFR	6	16	-1	MOVIE	927	n/a	n/a	-1	1.0	1.0	1	upper	Verdana.ttf
2796461	WORD	wordpools/wasnorm_wordpool.txt	LTP101	ltpFR	6	16	-1	EMPLOYER	532	n/a	n/a	-1	1.0	1.0	1	upper	Verdana.ttf
2800494	WORD	wordpools/wasnorm_wordpool.txt	LTP101	ltpFR	6	16	-1	TYPIST	1532	n/a	n/a	-1	1.0	1.0	1	upper	Verdana.ttf
2804502	WORD	wordpools/wasnorm_wordpool.txt	LTP101	ltpFR	6	16	-1	LENS	811	n/a	n/a	-1	1.0	1.0	1	upper	Verdana.ttf
2808468	WORD	wordpools/wasnorm_wordpool.txt	LTP101	ltpFR	6	16	-1	DRESSER	496	n/a	n/a	-1	1.0	1.0	1	upper	Verdana.ttf
2812326	WORD	wordpools/wasnorm_wordpool.txt	LTP101	ltpFR	6	16	-1	PORTRAIT	1111	n/a	n/a	-1	1.0	1.0	1	upper	Verdana.ttf
2816208	WORD	wordpools/wasnorm_wordpool.txt	LTP101	ltpFR	6	16	-1	POPCORN	1104	n/a	n/a	-1	1.0	1.0	1	upper	Verdana.ttf
2820342	WORD	wordpools/wasnorm_wordpool.txt	LTP101	ltpFR	6	16	-1	STAGE	1366	n/a	n/a	-1	1.0	1.0	1	upper	Verdana.ttf
2824308	WORD	wordpools/wasnorm_wordpool.txt	LTP101	ltpFR	6	16	-1	SHORTS	1293	n/a	n/a	-1	1.0	1.0	1	upper	Verdana.ttf
2828408	WORD	wordpools/wasnorm_wordpool.txt	LTP101	ltpFR	6	16	-1	CYCLONE	431	n/a	n/a	-1	1.0	1.0	1	upper	Verdana.ttf
2832416	WORD	wordpools/wasnorm_wordpool.txt	LTP101	ltpFR	6	16	-1	CANVAS	234	n/a	n/a	-1	1.0	1.0	1	upper	Verdana.ttf
2836491	WORD	wordpools/wasnorm_wordpool.txt	LTP101	ltpFR	6	16	-1	JACKET	747	n/a	n/a	-1	1.0	1.0	1	upper	Verdana.ttf
2840591	WORD	wordpools/wasnorm_wordpool.txt	LTP101	ltpFR	6	16	-1	SCENERY	1247	n/a	n/a	-1	1.0	1.0	1	upper	Verdana.ttf
2844749	WORD	wordpools/wasnorm_wordpool.txt	LTP101	ltpFR	6	16	-1	TORNADO	1485	n/a	n/a	-1	1.0	1.0	1	upper	Verdana.ttf
2848657	WORD	wordpools/wasnorm_wordpool.txt	LTP101	ltpFR	6	16	-1	LIGHTER	819	n/a	n/a	-1	1.0	1.0	1	upper	Verdana.ttf
2854332	REC_START	n/a	LTP101	ltpFR	6	16	n/a	n/a	n/a	n/a	n/a	n/a	n/a	n/a	n/a	n/a	n/a
2857435	REC_WORD	wordpools/wasnorm_wordpool.txt	LTP101	ltpFR	6	16	-1	LIGHTER	819	n/a	n/a	-1	n/a	n/a	n/a	n/a	n/a
2858757	REC_WORD	wordpools/wasnorm_wordpool.txt	LTP101	ltpFR	6	16	-1	CYCLONE	431	n/a	n/a	-1	n/a	n/a	n/a	n/a	n/a
2859605	REC_WORD	wordpools/wasnorm_wordpool.txt	LTP101	ltpFR	6	16	-1	TORNADO	1485	n/a	n/a	-1	n/a	n/a	n/a	n/a	n/a
2860741	REC_WORD	wordpools/wasnorm_wordpool.txt	LTP101	ltpFR	6	16	-1	SCENERY	1247	n/a	n/a	-1	n/a	n/a	n/a	n/a	n/a
2862299	REC_WORD	wordpools/wasnorm_wordpool.txt	LTP101	ltpFR	6	16	n/a	PAINTING	1005	n/a	n/a	n/a	n/a	n/a	n/a	n/a	n/a
2864364	REC_WORD	wordpools/wasnorm_wordpool.txt	LTP101	ltpFR	6	16	-1	CRITIC	410	n/a	n/a	-1	n/a	n/a	n/a	n/a	n/a
2865930	REC_WORD	wordpools/wasnorm_wordpool.txt	LTP101	ltpFR	6	16	-1	JACKET	747	n/a	n/a	-1	n/a	n/a	n/a	n/a	n/a
2867826	REC_WORD	wordpools/wasnorm_wordpool.txt	LTP101	ltpFR	6	16	-1	MOVIE	927	n/a	n/a	-1	n/a	n/a	n/a	n/a	n/a
2870301	REC_WORD	wordpools/wasnorm_wordpool.txt	LTP101	ltpFR	6	16	-1	EMPLOYER	532	n/a	n/a	-1	n/a	n/a	n/a	n/a	n/a
2871887	REC_WORD	wordpools/wasnorm_wordpool.txt	LTP101	ltpFR	6	16	-1	TYPIST	1532	n/a	n/a	-1	n/a	n/a	n/a	n/a	n/a
2874381	REC_WORD	wordpools/wasnorm_wordpool.txt	LTP101	ltpFR	6	16	-1	POPCORN	1104	n/a	n/a	-1	n/a	n/a	n/a	n/a	n/a
2875447	REC_WORD	wordpools/wasnorm_wordpool.txt	LTP101	ltpFR	6	16	-1	STAGE	1366	n/a	n/a	-1	n/a	n/a	n/a	n/a	n/a
2878302	REC_WORD	wordpools/wasnorm_wordpool.txt	LTP101	ltpFR	6	16	-1	LENS	811	n/a	n/a	-1	n/a	n/a	n/a	n/a	n/a
2879774	REC_WORD	wordpools/wasnorm_wordpool.txt	LTP101	ltpFR	6	16	-1	DRESSER	496	n/a	n/a	-1	n/a	n/a	n/a	n/a	n/a
2881301	REC_WORD	wordpools/wasnorm_wordpool.txt	LTP101	ltpFR	6	16	-1	PORTRAIT	1111	n/a	n/a	-1	n/a	n/a	n/a	n/a	n/a
2902218	REC_WORD	wordpools/wasnorm_wordpool.txt	LTP101	ltpFR	6	16	-1	CANVAS	234	n/a	n/a	-1	n/a	n/a	n/a	n/a	n/a
2941284	REC_START	n/a	LTP101	ltpFR	6	n/a	n/a	n/a	n/a	n/a	n/a	n/a	n/a	n/a	n/a	n/a	n/a
2942416	FFR_REC_WORD	wordpools/wasnorm_wordpool.txt	LTP101	ltpFR	6	n/a	-1	CRITIC	410	n/a	n/a	-1	n/a	n/a	n/a	n/a	n/a
2943334	FFR_REC_WORD	wordpools/wasnorm_wordpool.txt	LTP101	ltpFR	6	n/a	-1	JACKET	747	n/a	n/a	-1	n/a	n/a	n/a	n/a	n/a
2944302	FFR_REC_WORD	wordpools/wasnorm_wordpool.txt	LTP101	ltpFR	6	n/a	-1	MOVIE	927	n/a	n/a	-1	n/a	n/a	n/a	n/a	n/a
2945270	FFR_REC_WORD	wordpools/wasnorm_wordpool.txt	LTP101	ltpFR	6	n/a	-1	EMPLOYER	532	n/a	n/a	-1	n/a	n/a	n/a	n/a	n/a
2946492	FFR_REC_WORD	wordpools/wasnorm_wordpool.txt	LTP101	ltpFR	6	n/a	-1	TYPIST	1532	n/a	n/a	-1	n/a	n/a	n/a	n/a	n/a
2949086	FFR_REC_WORD	wordpools/wasnorm_wordpool.txt	LTP101	ltpFR	6	n/a	-1	POPCORN	1104	n/a	n/a	-1	n/a	n/a	n/a	n/a	n/a
2950159	FFR_REC_WORD	wordpools/wasnorm_wordpool.txt	LTP101	ltpFR	6	n/a	-1	LENS	811	n/a	n/a	-1	n/a	n/a	n/a	n/a	n/a
2952424	FFR_REC_WORD	wordpools/wasnorm_wordpool.txt	LTP101	ltpFR	6	n/a	-1	SCENERY	1247	n/a	n/a	-1	n/a	n/a	n/a	n/a	n/a
2953750	FFR_REC_WORD	wordpools/wasnorm_wordpool.txt	LTP101	ltpFR	6	n/a	-1	CANVAS	234	n/a	n/a	-1	n/a	n/a	n/a	n/a	n/a
2954758	FFR_REC_WORD	wordpools/wasnorm_wordpool.txt	LTP101	ltpFR	6	n/a	n/a	PAINTING	1005	n/a	n/a	n/a	n/a	n/a	n/a	n/a	n/a
2955696	FFR_REC_WORD	wordpools/wasnorm_wordpool.txt	LTP101	ltpFR	6	n/a	-1	CYCLONE	431	n/a	n/a	-1	n/a	n/a	n/a	n/a	n/a
2956574	FFR_REC_WORD	wordpools/wasnorm_wordpool.txt	LTP101	ltpFR	6	n/a	-1	TORNADO	1485	n/a	n/a	-1	n/a	n/a	n/a	n/a	n/a
2957981	FFR_REC_WORD	wordpools/wasnorm_wordpool.txt	LTP101	ltpFR	6	n/a	-1	DRESSER	496	n/a	n/a	-1	n/a	n/a	n/a	n/a	n/a
2959617	FFR_REC_WORD	wordpools/wasnorm_wordpool.txt	LTP101	ltpFR	6	n/a	-1	STAGE	1366	n/a	n/a	-1	n/a	n/a	n/a	n/a	n/a
2963828	FFR_REC_WORD	wordpools/wasnorm_wordpool.txt	LTP101	ltpFR	6	n/a	1	LION	827	n/a	n/a	1	n/a	n/a	n/a	n/a	n/a
2964790	FFR_REC_WORD	wordpools/wasnorm_wordpool.txt	LTP101	ltpFR	6	n/a	1	TIGER	1467	n/a	n/a	1	n/a	n/a	n/a	n/a	n/a
2965852	FFR_REC_WORD	wordpools/wasnorm_wordpool.txt	LTP101	ltpFR	6	n/a	1	STALLION	1369	n/a	n/a	1	n/a	n/a	n/a	n/a	n/a
2967350	FFR_REC_WORD	wordpools/wasnorm_wordpool.txt	LTP101	ltpFR	6	n/a	1	WALRUS	1585	n/a	n/a	1	n/a	n/a	n/a	n/a	n/a
2968457	FFR_REC_WORD	wordpools/wasnorm_wordpool.txt	LTP101	ltpFR	6	n/a	1	UNICORN	1538	n/a	n/a	1	n/a	n/a	n/a	n/a	n/a
2969814	FFR_REC_WORD	wordpools/wasnorm_wordpool.txt	LTP101	ltpFR	6	n/a	1	POSSUM	1112	n/a	n/a	1	n/a	n/a	n/a	n/a	n/a
2971201	FFR_REC_WORD	wordpools/wasnorm_wordpool.txt	LTP101	ltpFR	6	n/a	1	KNIFE	785	n/a	n/a	0	n/a	n/a	n/a	n/a	n/a
2973042	FFR_REC_WORD	wordpools/wasnorm_wordpool.txt	LTP101	ltpFR	6	n/a	1	SAUSAGE	1238	n/a	n/a	0	n/a	n/a	n/a	n/a	n/a
2974788	FFR_REC_WORD	wordpools/wasnorm_wordpool.txt	LTP101	ltpFR	6	n/a	1	THUMB	1462	n/a	n/a	0	n/a	n/a	n/a	n/a	n/a
2975810	FFR_REC_WORD	wordpools/wasnorm_wordpool.txt	LTP101	ltpFR	6	n/a	1	SPIT	1354	n/a	n/a	0	n/a	n/a	n/a	n/a	n/a
2977477	FFR_REC_WORD	wordpools/wasnorm_wordpool.txt	LTP101	ltpFR	6	n/a	1	CHEEK	287	n/a	n/a	0	n/a	n/a	n/a	n/a	n/a
2978739	FFR_REC_WORD	wordpools/wasnorm_wordpool.txt	LTP101	ltpFR	6	n/a	1	TOE	1473	n/a	n/a	0	n/a	n/a	n/a	n/a	n/a
2979851	FFR_REC_WORD	wordpools/wasnorm_wordpool.txt	LTP101	ltpFR	6	n/a	1	FINGER	567	n/a	n/a	0	n/a	n/a	n/a	n/a	n/a
2981058	FFR_REC_WORD	wordpools/wasnorm_wordpool.txt	LTP101	ltpFR	6	n/a	1	TRENCH	1503	n/a	n/a	0	n/a	n/a	n/a	n/a	n/a
2982620	FFR_REC_WORD	wordpools/wasnorm_wordpool.txt	LTP101	ltpFR	6	n/a	1	PECAN	1036	n/a	n/a	n/a	n/a	n/a	n/a	n/a	n/a
2983952	FFR_REC_WORD	wordpools/wasnorm_wordpool.txt	LTP101	ltpFR	6	n/a	1	GRILL	661	n/a	n/a	0	n/a	n/a	n/a	n/a	n/a
2991385	FFR_REC_WORD	wordpools/wasnorm_wordpool.txt	LTP101	ltpFR	6	n/a	1	SHOWER	1296	n/a	n/a	0	n/a	n/a	n/a	n/a	n/a
2992667	FFR_REC_WORD	wordpools/wasnorm_wordpool.txt	LTP101	ltpFR	6	n/a	1	TUB	1514	n/a	n/a	0	n/a	n/a	n/a	n/a	n/a
3002839	FFR_REC_WORD	wordpools/wasnorm_wordpool.txt	LTP101	ltpFR	6	n/a	-1	SNAKE	1333	n/a	n/a	-1	n/a	n/a	n/a	n/a	n/a
3004076	FFR_REC_WORD	wordpools/wasnorm_wordpool.txt	LTP101	ltpFR	6	n/a	-1	SNACK	1331	n/a	n/a	-1	n/a	n/a	n/a	n/a	n/a
3005353	FFR_REC_WORD	wordpools/wasnorm_wordpool.txt	LTP101	ltpFR	6	n/a	-1	MARINE	869	n/a	n/a	-1	n/a	n/a	n/a	n/a	n/a
3006600	FFR_REC_WORD	wordpools/wasnorm_wordpool.txt	LTP101	ltpFR	6	n/a	-1	CUSHION	428	n/a	n/a	-1	n/a	n/a	n/a	n/a	n/a
3007728	FFR_REC_WORD	wordpools/wasnorm_wordpool.txt	LTP101	ltpFR	6	n/a	-1	CHEF	290	n/a	n/a	-1	n/a	n/a	n/a	n/a	n/a
3008865	FFR_REC_WORD	wordpools/wasnorm_wordpool.txt	LTP101	ltpFR	6	n/a	-1	UTENSIL	1542	n/a	n/a	-1	n/a	n/a	n/a	n/a	n/a
3010003	FFR_REC_WORD	wordpools/wasnorm_wordpool.txt	LTP101	ltpFR	6	n/a	0	SPOON	1357	n/a	n/a	0	n/a	n/a	n/a	n/a	n/a
3012697	FFR_REC_WORD	wordpools/wasnorm_wordpool.txt	LTP101	ltpFR	6	n/a	0	PIER	1063	n/a	n/a	1	n/a	n/a	n/a	n/a	n/a
3013829	FFR_REC_WORD	wordpools/wasnorm_wordpool.txt	LTP101	ltpFR	6	n/a	-1	DOCK	477	n/a	n/a	-1	n/a	n/a	n/a	n/a	n/a
3014762	FFR_REC_WORD	wordpools/wasnorm_wordpool.txt	LTP101	ltpFR	6	n/a	-1	SIDEWALK	1303	n/a	n/a	-1	n/a	n/a	n/a	n/a	n/a
3016767	FFR_REC_WORD	wordpools/wasnorm_wordpool.txt	LTP101	ltpFR	6	n/a	-1	LAGOON	795	n/a	n/a	-1	n/a	n/a	n/a	n/a	n/a
3017895	FFR_REC_WORD	wordpools/wasnorm_wordpool.txt	LTP101	ltpFR	6	n/a	0	LAKE	796	n/a	n/a	1	n/a	n/a	n/a	n/a	n/a
3019666	FFR_REC_WORD	wordpools/wasnorm_wordpool.txt	LTP101	ltpFR	6	n/a	-1	TABLE	1426	n/a	n/a	-1	n/a	n/a	n/a	n/a	n/a
3021077	FFR_REC_WORD	wordpools/wasnorm_wordpool.txt	LTP101	ltpFR	6	n/a	-1	TURKEY	1520	n/a	n/a	-1	n/a	n/a	n/a	n/a	n/a
3022444	FFR_REC_WORD	wordpools/wasnorm_wordpool.txt	LTP101	ltpFR	6	n/a	-1	FAUCET	555	n/a	n/a	-1	n/a	n/a	n/a	n/a	n/a
3026121	FFR_REC_WORD	wordpools/wasnorm_wordpool.txt	LTP101	ltpFR	6	n/a	0	CUE	422	n/a	n/a	0	n/a	n/a	n/a	n/a	n/a
3027343	FFR_REC_WORD	wordpools/wasnorm_wordpool.txt	LTP101	ltpFR	6	n/a	1	COLLAR	345	n/a	n/a	0	n/a	n/a	n/a	n/a	n/a
3029538	FFR_REC_WORD	wordpools/wasnorm_wordpool.txt	LTP101	ltpFR	6	n/a	0	CASH	252	n/a	n/a	0	n/a	n/a	n/a	n/a	n/a
3030716	FFR_REC_WORD	wordpools/wasnorm_wordpool.txt	LTP101	ltpFR	6	n/a	0	VAULT	1550	n/a	n/a	1	n/a	n/a	n/a	n/a	n/a
3031933	FFR_REC_WORD	wordpools/wasnorm_wordpool.txt	LTP101	ltpFR	6	n/a	0	PEDAL	1037	n/a	n/a	1	n/a	n/a	n/a	n/a	n/a
3034208	FFR_REC_WORD	wordpools/wasnorm_wordpool.txt	LTP101	ltpFR	6	n/a	1	WALLET	1583	n/a	n/a	0	n/a	n/a	n/a	n/a	n/a
3035076	FFR_REC_WORD	wordpools/wasnorm_wordpool.txt	LTP101	ltpFR	6	n/a	1	PRINCE	1124	n/a	n/a	1	n/a	n/a	n/a	n/a	n/a
3036053	FFR_REC_WORD	wordpools/wasnorm_wordpool.txt	LTP101	ltpFR	6	n/a	1	KING	777	n/a	n/a	1	n/a	n/a	n/a	n/a	n/a
3038458	FFR_REC_WORD	wordpools/wasnorm_wordpool.txt	LTP101	ltpFR	6	n/a	1	VIOLIN	1571	n/a	n/a	0	n/a	n/a	n/a	n/a	n/a
3040264	FFR_REC_WORD	wordpools/wasnorm_wordpool.txt	LTP101	ltpFR	6	n/a	1	SAXOPHONE	1240	n/a	n/a	0	n/a	n/a	n/a	n/a	n/a
3042878	FFR_REC_WORD_VV	wordpools/wasnorm_wordpool.txt	LTP101	ltpFR	6	n/a	n/a	<>	-1	n/a	n/a	n/a	n/a	n/a	n/a	n/a	n/a
3043736	FFR_REC_WORD	wordpools/wasnorm_wordpool.txt	LTP101	ltpFR	6	n/a	1	CHOCOLATE	306	n/a	n/a	0	n/a	n/a	n/a	n/a	n/a
3044978	FFR_REC_WORD	wordpools/wasnorm_wordpool.txt	LTP101	ltpFR	6	n/a	1	SURF	1412	n/a	n/a	0	n/a	n/a	n/a	n/a	n/a
3046769	FFR_REC_WORD	wordpools/wasnorm_wordpool.txt	LTP101	ltpFR	6	n/a	1	SUBMARINE	1398	n/a	n/a	0	n/a	n/a	n/a	n/a	n/a
3048964	FFR_REC_WORD	wordpools/wasnorm_wordpool.txt	LTP101	ltpFR	6	n/a	1	WALLET	1583	n/a	n/a	0	n/a	n/a	n/a	n/a	n/a
3053015	FFR_REC_WORD	wordpools/wasnorm_wordpool.txt	LTP101	ltpFR	6	n/a	0	POLYESTER	1100	n/a	n/a	1	n/a	n/a	n/a	n/a	n/a
3056806	FFR_REC_WORD_VV	wordpools/wasnorm_wordpool.txt	LTP101	ltpFR	6	n/a	n/a	<>	-1	n/a	n/a	n/a	n/a	n/a	n/a	n/a	n/a
3059929	FFR_REC_WORD	wordpools/wasnorm_wordpool.txt	LTP101	ltpFR	6	n/a	1	CLERK	321	n/a	n/a	0	n/a	n/a	n/a	n/a	n/a
3069298	FFR_REC_WORD	wordpools/wasnorm_wordpool.txt	LTP101	ltpFR	6	n/a	-1	ASTEROID	50	n/a	n/a	-1	n/a	n/a	n/a	n/a	n/a
3070505	FFR_REC_WORD	wordpools/wasnorm_wordpool.txt	LTP101	ltpFR	6	n/a	-1	MICROSCOPE	891	n/a	n/a	-1	n/a	n/a	n/a	n/a	n/a
3072545	FFR_REC_WORD	wordpools/wasnorm_wordpool.txt	LTP101	ltpFR	6	n/a	-1	DRIVEWAY	500	n/a	n/a	-1	n/a	n/a	n/a	n/a	n/a
3073518	FFR_REC_WORD	wordpools/wasnorm_wordpool.txt	LTP101	ltpFR	6	n/a	-1	GREASE	660	n/a	n/a	-1	n/a	n/a	n/a	n/a	n/a
3074496	FFR_REC_WORD	wordpools/wasnorm_wordpool.txt	LTP101	ltpFR	6	n/a	-1	BOX	159	n/a	n/a	-1	n/a	n/a	n/a	n/a	n/a
3076048	FFR_REC_WORD	wordpools/wasnorm_wordpool.txt	LTP101	ltpFR	6	n/a	-1	CANAL	226	n/a	n/a	-1	n/a	n/a	n/a	n/a	n/a
3078791	FFR_REC_WORD	wordpools/wasnorm_wordpool.txt	LTP101	ltpFR	6	n/a	-1	CLAY	320	n/a	n/a	-1	n/a	n/a	n/a	n/a	n/a
3083266	FFR_REC_WORD	wordpools/wasnorm_wordpool.txt	LTP101	ltpFR	6	n/a	0	HOME	712	n/a	n/a	1	n/a	n/a	n/a	n/a	n/a
3089582	FFR_REC_WORD_VV	wordpools/wasnorm_wordpool.txt	LTP101	ltpFR	6	n/a	n/a	<>	-1	n/a	n/a	n/a	n/a	n/a	n/a	n/a	n/a
3100936	FFR_REC_WORD	wordpools/wasnorm_wordpool.txt	LTP101	ltpFR	6	n/a	0	MUSEUM	933	n/a	n/a	1	n/a	n/a	n/a	n/a	n/a
3103311	FFR_REC_WORD	wordpools/wasnorm_wordpool.txt	LTP101	ltpFR	6	n/a	0	SEAFOOD	1260	n/a	n/a	0	n/a	n/a	n/a	n/a	n/a
3104498	FFR_REC_WORD	wordpools/wasnorm_wordpool.txt	LTP101	ltpFR	6	n/a	0	SKI	1316	n/a	n/a	1	n/a	n/a	n/a	n/a	n/a
3105710	FFR_REC_WORD	wordpools/wasnorm_wordpool.txt	LTP101	ltpFR	6	n/a	0	CLOUD	328	n/a	n/a	1	n/a	n/a	n/a	n/a	n/a
3106683	FFR_REC_WORD	wordpools/wasnorm_wordpool.txt	LTP101	ltpFR	6	n/a	0	BROOM	178	n/a	n/a	1	n/a	n/a	n/a	n/a	n/a
3110599	FFR_REC_WORD	wordpools/wasnorm_wordpool.txt	LTP101	ltpFR	6	n/a	1	DEER	444	n/a	n/a	1	n/a	n/a	n/a	n/a	n/a
3111637	FFR_REC_WORD	wordpools/wasnorm_wordpool.txt	LTP101	ltpFR	6	n/a	1	TAIL	1430	n/a	n/a	0	n/a	n/a	n/a	n/a	n/a
3112889	FFR_REC_WORD	wordpools/wasnorm_wordpool.txt	LTP101	ltpFR	6	n/a	1	ANKLE	24	n/a	n/a	0	n/a	n/a	n/a	n/a	n/a
3114166	FFR_REC_WORD	wordpools/wasnorm_wordpool.txt	LTP101	ltpFR	6	n/a	0	HIP	710	n/a	n/a	0	n/a	n/a	n/a	n/a	n/a
3115064	FFR_REC_WORD	wordpools/wasnorm_wordpool.txt	LTP101	ltpFR	6	n/a	0	JOINT	758	n/a	n/a	0	n/a	n/a	n/a	n/a	n/a
3117828	FFR_REC_WORD	wordpools/wasnorm_wordpool.txt	LTP101	ltpFR	6	n/a	0	WEED	1599	n/a	n/a	0	n/a	n/a	n/a	n/a	n/a
3128233	FFR_REC_WORD	wordpools/wasnorm_wordpool.txt	LTP101	ltpFR	6	n/a	1	STAPLE	1371	n/a	n/a	0	n/a	n/a	n/a	n/a	n/a
3130309	FFR_REC_WORD	wordpools/wasnorm_wordpool.txt	LTP101	ltpFR	6	n/a	1	GENERAL	630	n/a	n/a	1	n/a	n/a	n/a	n/a	n/a
3131866	FFR_REC_WORD	wordpools/wasnorm_wordpool.txt	LTP101	ltpFR	6	n/a	1	COMPASS	358	n/a	n/a	0	n/a	n/a	n/a	n/a	n/a
3133272	FFR_REC_WORD	wordpools/wasnorm_wordpool.txt	LTP101	ltpFR	6	n/a	1	DENIM	446	n/a	n/a	0	n/a	n/a	n/a	n/a	n/a
3134609	FFR_REC_WORD	wordpools/wasnorm_wordpool.txt	LTP101	ltpFR	6	n/a	1	JEANS	752	n/a	n/a	0	n/a	n/a	n/a	n/a	n/a
3136555	FFR_REC_WORD	wordpools/wasnorm_wordpool.txt	LTP101	ltpFR	6	n/a	-1	PANTS	1010	n/a	n/a	-1	n/a	n/a	n/a	n/a	n/a
3138131	FFR_REC_WORD	wordpools/wasnorm_wordpool.txt	LTP101	ltpFR	6	n/a	1	ELECTRICIAN	521	n/a	n/a	1	n/a	n/a	n/a	n/a	n/a
3139708	FFR_REC_WORD	wordpools/wasnorm_wordpool.txt	LTP101	ltpFR	6	n/a	1	COMPANION	357	n/a	n/a	1	n/a	n/a	n/a	n/a	n/a
3141349	FFR_REC_WORD	wordpools/wasnorm_wordpool.txt	LTP101	ltpFR	6	n/a	1	CABLE	213	n/a	n/a	0	n/a	n/a	n/a	n/a	n/a
3143539	FFR_REC_WORD	wordpools/wasnorm_wordpool.txt	LTP101	ltpFR	6	n/a	1	BELT	120	n/a	n/a	0	n/a	n/a	n/a	n/a	n/a
3144527	FFR_REC_WORD	wordpools/wasnorm_wordpool.txt	LTP101	ltpFR	6	n/a	1	KNAPSACK	783	n/a	n/a	0	n/a	n/a	n/a	n/a	n/a
3178365	FFR_REC_WORD	wordpools/wasnorm_wordpool.txt	LTP101	ltpFR	6	n/a	0	TUNA	1518	n/a	n/a	0	n/a	n/a	n/a	n/a	n/a
3179896	FFR_REC_WORD	wordpools/wasnorm_wordpool.txt	LTP101	ltpFR	6	n/a	0	SUMMIT	1405	n/a	n/a	1	n/a	n/a	n/a	n/a	n/a
3181253	FFR_REC_WORD	wordpools/wasnorm_wordpool.txt	LTP101	ltpFR	6	n/a	0	DESK	452	n/a	n/a	1	n/a	n/a	n/a	n/a	n/a
3182416	FFR_REC_WORD	wordpools/wasnorm_wordpool.txt	LTP101	ltpFR	6	n/a	1	DOCUMENT	479	n/a	n/a	0	n/a	n/a	n/a	n/a	n/a
3183877	FFR_REC_WORD	wordpools/wasnorm_wordpool.txt	LTP101	ltpFR	6	n/a	-1	NEWSPAPER	948	n/a	n/a	-1	n/a	n/a	n/a	n/a	n/a
3185524	FFR_REC_WORD	wordpools/wasnorm_wordpool.txt	LTP101	ltpFR	6	n/a	1	NOTEBOOK	959	n/a	n/a	0	n/a	n/a	n/a	n/a	n/a
3186751	FFR_REC_WORD	wordpools/wasnorm_wordpool.txt	LTP101	ltpFR	6	n/a	0	ZEBRA	1635	n/a	n/a	1	n/a	n/a	n/a	n/a	n/a
3188332	FFR_REC_WORD	wordpools/wasnorm_wordpool.txt	LTP101	ltpFR	6	n/a	0	TUNA	1518	n/a	n/a	0	n/a	n/a	n/a	n/a	n/a
3189505	FFR_REC_WORD	wordpools/wasnorm_wordpool.txt	LTP101	ltpFR	6	n/a	0	RIVER	1194	n/a	n/a	1	n/a	n/a	n/a	n/a	n/a
3218658	FFR_REC_WORD_VV	wordpools/wasnorm_wordpool.txt	LTP101	ltpFR	6	n/a	n/a	<>	-1	n/a	n/a	n/a	n/a	n/a	n/a	n/a	n/a
3224819	FFR_REC_WORD	wordpools/wasnorm_wordpool.txt	LTP101	ltpFR	6	n/a	0	CARDINAL	244	n/a	n/a	0	n/a	n/a	n/a	n/a	n/a
3227987	FFR_REC_WORD	wordpools/wasnorm_wordpool.txt	LTP101	ltpFR	6	n/a	n/a	SHIRT	1287	n/a	n/a	n/a	n/a	n/a	n/a	n/a	n/a
3240164	FFR_REC_WORD	wordpools/wasnorm_wordpool.txt	LTP101	ltpFR	6	n/a	1	SKULL	1320	n/a	n/a	0	n/a	n/a	n/a	n/a	n/a
3257477	REC_START	n/a	LTP101	ltpFR	6	1	n/a	n/a	n/a	n/a	n/a	n/a	n/a	n/a	n/a	n/a	n/a
3257509	RECOG_TARGET	n/a	LTP101	ltpFR	6	1	0	MUSEUM	933	1	5	1	n/a	n/a	n/a	n/a	n/a
3260021	RECOG_RESP	n/a	LTP101	ltpFR	6	1	0	MUSEUM	933	1	n/a	1	n/a	n/a	n/a	n/a	n/a
3261403	RECOG_CONF	n/a	LTP101	ltpFR	6	1	0	MUSEUM	933	n/a	5	1	n/a	n/a	n/a	n/a	n/a
3263224	RECOG_TARGET	n/a	LTP101	ltpFR	6	1	0	PASTRY	1022	1	5	0	n/a	n/a	n/a	n/a	n/a
3264256	RECOG_RESP	n/a	LTP101	ltpFR	6	1	0	PASTRY	1022	1	n/a	0	n/a	n/a	n/a	n/a	n/a
3265464	RECOG_CONF	n/a	LTP101	ltpFR	6	1	0	PASTRY	1022	n/a	5	0	n/a	n/a	n/a	n/a	n/a
3267174	RECOG_TARGET	n/a	LTP101	ltpFR	6	1	-1	PORTRAIT	1111	1	5	-1	n/a	n/a	n/a	n/a	n/a
3268043	RECOG_RESP	n/a	LTP101	ltpFR	6	1	-1	PORTRAIT	1111	1	n/a	-1	n/a	n/a	n/a	n/a	n/a
3269305	RECOG_CONF	n/a	LTP101	ltpFR	6	1	-1	PORTRAIT	1111	n/a	5	-1	n/a	n/a	n/a	n/a	n/a
3270932	RECOG_TARGET	n/a	LTP101	ltpFR	6	1	1	ZOO	1637	1	5	0	n/a	n/a	n/a	n/a	n/a
3272223	RECOG_RESP	n/a	LTP101	ltpFR	6	1	1	ZOO	1637	1	n/a	0	n/a	n/a	n/a	n/a	n/a
3273585	RECOG_CONF	n/a	LTP101	ltpFR	6	1	1	ZOO	1637	n/a	5	0	n/a	n/a	n/a	n/a	n/a
3275257	RECOG_LURE	n/a	LTP101	ltpFR	6	1	n/a	COWBOY	395	0	4	n/a	n/a	n/a	n/a	n/a	n/a
3276269	RECOG_RESP	n/a	LTP101	ltpFR	6	1	n/a	COWBOY	395	0	n/a	n/a	n/a	n/a	n/a	n/a	n/a
3277446	RECOG_CONF	n/a	LTP101	ltpFR	6	1	n/a	COWBOY	395	n/a	4	n/a	n/a	n/a	n/a	n/a	n/a
3279040	RECOG_LURE	n/a	LTP101	ltpFR	6	1	n/a	CASKET	255	0	5	n/a	n/a	n/a	n/a	n/a	n/a
3279801	RECOG_RESP	n/a	LTP101	ltpFR	6	1	n/a	CASKET	255	0	n/a	n/a	n/a	n/a	n/a	n/a	n/a
3280759	RECOG_CONF	n/a	LTP101	ltpFR	6	1	n/a	CASKET	255	n/a	5	n/a	n/a	n/a	n/a	n/a	n/a
3282290	RECOG_LURE	n/a	LTP101	ltpFR	6	1	n/a	PASSAGE	1019	0	5	n/a	n/a	n/a	n/a	n/a	n/a
3283104	RECOG_RESP	n/a	LTP101	ltpFR	6	1	n/a	PASSAGE	1019	0	n/a	n/a	n/a	n/a	n/a	n/a	n/a
3284031	RECOG_CONF	n/a	LTP101	ltpFR	6	1	n/a	PASSAGE	1019	n/a	5	n/a	n/a	n/a	n/a	n/a	n/a
3285582	RECOG_LURE	n/a	LTP101	ltpFR	6	1	n/a	MAGAZINE	853	0	5	n/a	n/a	n/a	n/a	n/a	n/a
3286321	RECOG_RESP	n/a	LTP101	ltpFR	6	1	n/a	MAGAZINE	853	0	n/a	n/a	n/a	n/a	n/a	n/a	n/a
3287294	RECOG_CONF	n/a	LTP101	ltpFR	6	1	n/a	MAGAZINE	853	n/a	5	n/a	n/a	n/a	n/a	n/a	n/a
3288922	RECOG_TARGET	n/a	LTP101	ltpFR	6	1	0	CONVENT	370	1	3	1	n/a	n/a	n/a	n/a	n/a
3290322	RECOG_RESP	n/a	LTP101	ltpFR	6	1	0	CONVENT	370	1	n/a	1	n/a	n/a	n/a	n/a	n/a
3291295	RECOG_CONF	n/a	LTP101	ltpFR	6	1	0	CONVENT	370	n/a	3	1	n/a	n/a	n/a	n/a	n/a
3292855	RECOG_TARGET	n/a	LTP101	ltpFR	6	1	0	SHRINE	1298	1	5	1	n/a	n/a	n/a	n/a	n/a
3293590	RECOG_RESP	n/a	LTP101	ltpFR	6	1	0	SHRINE	1298	1	n/a	1	n/a	n/a	n/a	n/a	n/a
3294607	RECOG_CONF	n/a	LTP101	ltpFR	6	1	0	SHRINE	1298	n/a	5	1	n/a	n/a	n/a	n/a	n/a
3296163	RECOG_TARGET	n/a	LTP101	ltpFR	6	1	1	THUMB	1462	1	3	0	n/a	n/a	n/a	n/a	n/a
3296837	RECOG_RESP	n/a	LTP101	ltpFR	6	1	1	THUMB	1462	1	n/a	0	n/a	n/a	n/a	n/a	n/a
3297900	RECOG_CONF	n/a	LTP101	ltpFR	6	1	1	THUMB	1462	n/a	3	0	n/a	n/a	n/a	n/a	n/a
3299464	RECOG_TARGET	n/a	LTP101	ltpFR	6	1	1	GENERAL	630	1	5	1	n/a	n/a	n/a	n/a	n/a
3300105	RECOG_RESP	n/a	LTP101	ltpFR	6	1	1	GENERAL	630	1	n/a	1	n/a	n/a	n/a	n/a	n/a
3301123	RECOG_CONF	n/a	LTP101	ltpFR	6	1	1	GENERAL	630	n/a	5	1	n/a	n/a	n/a	n/a	n/a
3302639	RECOG_TARGET	n/a	LTP101	ltpFR	6	1	0	SWITCH	1422	1	5	1	n/a	n/a	n/a	n/a	n/a
3303482	RECOG_RESP	n/a	LTP101	ltpFR	6	1	0	SWITCH	1422	1	n/a	1	n/a	n/a	n/a	n/a	n/a
3304515	RECOG_CONF	n/a	LTP101	ltpFR	6	1	0	SWITCH	1422	n/a	5	1	n/a	n/a	n/a	n/a	n/a
3306063	RECOG_TARGET	n/a	LTP101	ltpFR	6	1	1	HUT	729	1	2	0	n/a	n/a	n/a	n/a	n/a
3307074	RECOG_RESP	n/a	LTP101	ltpFR	6	1	1	HUT	729	1	n/a	0	n/a	n/a	n/a	n/a	n/a
3308057	RECOG_CONF	n/a	LTP101	ltpFR	6	1	1	HUT	729	n/a	2	0	n/a	n/a	n/a	n/a	n/a
3309497	RECOG_LURE	n/a	LTP101	ltpFR	6	1	n/a	CORAL	378	0	5	n/a	n/a	n/a	n/a	n/a	n/a
3310172	RECOG_RESP	n/a	LTP101	ltpFR	6	1	n/a	CORAL	378	0	n/a	n/a	n/a	n/a	n/a	n/a	n/a
3311140	RECOG_CONF	n/a	LTP101	ltpFR	6	1	n/a	CORAL	378	n/a	5	n/a	n/a	n/a	n/a	n/a	n/a
3312663	RECOG_LURE	n/a	LTP101	ltpFR	6	1	n/a	PLASTER	1085	1	2	n/a	n/a	n/a	n/a	n/a	n/a
3314921	RECOG_RESP	n/a	LTP101	ltpFR	6	1	n/a	PLASTER	1085	1	n/a	n/a	n/a	n/a	n/a	n/a	n/a
3315819	RECOG_CONF	n/a	LTP101	ltpFR	6	1	n/a	PLASTER	1085	n/a	2	n/a	n/a	n/a	n/a	n/a	n/a
3317329	RECOG_TARGET	n/a	LTP101	ltpFR	6	1	1	KING	777	1	5	1	n/a	n/a	n/a	n/a	n/a
3318234	RECOG_RESP_VV	n/a	LTP101	ltpFR	6	1	1	KING	777	0	n/a	1	n/a	n/a	n/a	n/a	n/a
3319102	RECOG_RESP	n/a	LTP101	ltpFR	6	1	1	KING	777	1	n/a	1	n/a	n/a	n/a	n/a	n/a
3320139	RECOG_CONF	n/a	LTP101	ltpFR	6	1	1	KING	777	n/a	5	1	n/a	n/a	n/a	n/a	n/a
3321613	RECOG_TARGET	n/a	LTP101	ltpFR	6	1	1	PRINCE	1124	1	5	1	n/a	n/a	n/a	n/a	n/a
3322170	RECOG_RESP	n/a	LTP101	ltpFR	6	1	1	PRINCE	1124	1	n/a	1	n/a	n/a	n/a	n/a	n/a
3323053	RECOG_CONF	n/a	LTP101	ltpFR	6	1	1	PRINCE	1124	n/a	5	1	n/a	n/a	n/a	n/a	n/a
3324612	RECOG_TARGET	n/a	LTP101	ltpFR	6	1	0	COMB	351	1	5	0	n/a	n/a	n/a	n/a	n/a
3325313	RECOG_RESP	n/a	LTP101	ltpFR	6	1	0	COMB	351	1	n/a	0	n/a	n/a	n/a	n/a	n/a
3326615	RECOG_CONF	n/a	LTP101	ltpFR	6	1	0	COMB	351	n/a	5	0	n/a	n/a	n/a	n/a	n/a
3328978	RECOG_TARGET	n/a	LTP101	ltpFR	6	1	0	STATUE	1374	1	5	1	n/a	n/a	n/a	n/a	n/a
3330122	RECOG_RESP	n/a	LTP101	ltpFR	6	1	0	STATUE	1374	1	n/a	1	n/a	n/a	n/a	n/a	n/a
3331065	RECOG_CONF	n/a	LTP101	ltpFR	6	1	0	STATUE	1374	n/a	5	1	n/a	n/a	n/a	n/a	n/a
3334118	REC_START	n/a	LTP101	ltpFR	6	2	n/a	n/a	n/a	n/a	n/a	n/a	n/a	n/a	n/a	n/a	n/a
3334152	RECOG_TARGET	n/a	LTP101	ltpFR	6	2	1	KNIFE	785	1	5	0	n/a	n/a	n/a	n/a	n/a
3334856	RECOG_RESP	n/a	LTP101	ltpFR	6	2	1	KNIFE	785	1	n/a	0	n/a	n/a	n/a	n/a	n/a
3335759	RECOG_CONF	n/a	LTP101	ltpFR	6	2	1	KNIFE	785	n/a	5	0	n/a	n/a	n/a	n/a	n/a
3337185	RECOG_LURE	n/a	LTP101	ltpFR	6	2	n/a	HEATER	698	0	5	n/a	n/a	n/a	n/a	n/a	n/a
3338014	RECOG_RESP	n/a	LTP101	ltpFR	6	2	n/a	HEATER	698	0	n/a	n/a	n/a	n/a	n/a	n/a	n/a
3338952	RECOG_CONF	n/a	LTP101	ltpFR	6	2	n/a	HEATER	698	n/a	5	n/a	n/a	n/a	n/a	n/a	n/a
3340394	RECOG_LURE	n/a	LTP101	ltpFR	6	2	n/a	FOSSIL	596	0	5	n/a	n/a	n/a	n/a	n/a	n/a
3341142	RECOG_RESP	n/a	LTP101	ltpFR	6	2	n/a	FOSSIL	596	0	n/a	n/a	n/a	n/a	n/a	n/a	n/a
3342065	RECOG_CONF	n/a	LTP101	ltpFR	6	2	n/a	FOSSIL	596	n/a	5	n/a	n/a	n/a	n/a	n/a	n/a
3343478	RECOG_TARGET	n/a	LTP101	ltpFR	6	2	1	PUB	1135	0	5	0	n/a	n/a	n/a	n/a	n/a
3344799	RECOG_RESP	n/a	LTP101	ltpFR	6	2	1	PUB	1135	0	n/a	0	n/a	n/a	n/a	n/a	n/a
3345746	RECOG_CONF	n/a	LTP101	ltpFR	6	2	1	PUB	1135	n/a	5	0	n/a	n/a	n/a	n/a	n/a
3347143	RECOG_TARGET	n/a	LTP101	ltpFR	6	2	1	PATIENT	1024	1	5	1	n/a	n/a	n/a	n/a	n/a
3347862	RECOG_RESP	n/a	LTP101	ltpFR	6	2	1	PATIENT	1024	1	n/a	1	n/a	n/a	n/a	n/a	n/a
3348770	RECOG_CONF	n/a	LTP101	ltpFR	6	2	1	PATIENT	1024	n/a	5	1	n/a	n/a	n/a	n/a	n/a
3350184	RECOG_TARGET	n/a	LTP101	ltpFR	6	2	0	HONEY	713	1	5	0	n/a	n/a	n/a	n/a	n/a
3351029	RECOG_RESP	n/a	LTP101	ltpFR	6	2	0	HONEY	713	1	n/a	0	n/a	n/a	n/a	n/a	n/a
3351962	RECOG_CONF	n/a	LTP101	ltpFR	6	2	0	HONEY	713	n/a	5	0	n/a	n/a	n/a	n/a	n/a
3353327	RECOG_LURE	n/a	LTP101	ltpFR	6	2	n/a	CORN	381	0	5	n/a	n/a	n/a	n/a	n/a	n/a
3353973	RECOG_RESP	n/a	LTP101	ltpFR	6	2	n/a	CORN	381	0	n/a	n/a	n/a	n/a	n/a	n/a	n/a
3354876	RECOG_CONF	n/a	LTP101	ltpFR	6	2	n/a	CORN	381	n/a	5	n/a	n/a	n/a	n/a	n/a	n/a
3356251	RECOG_TARGET	n/a	LTP101	ltpFR	6	2	-1	TYPIST	1532	1	5	-1	n/a	n/a	n/a	n/a	n/a
3356851	RECOG_RESP	n/a	LTP101	ltpFR	6	2	-1	TYPIST	1532	1	n/a	-1	n/a	n/a	n/a	n/a	n/a
3357819	RECOG_CONF	n/a	LTP101	ltpFR	6	2	-1	TYPIST	1532	n/a	5	-1	n/a	n/a	n/a	n/a	n/a
3359167	RECOG_TARGET	n/a	LTP101	ltpFR	6	2	1	HEDGE	699	1	5	0	n/a	n/a	n/a	n/a	n/a
3360054	RECOG_RESP	n/a	LTP101	ltpFR	6	2	1	HEDGE	699	1	n/a	0	n/a	n/a	n/a	n/a	n/a
3361092	RECOG_CONF	n/a	LTP101	ltpFR	6	2	1	HEDGE	699	n/a	5	0	n/a	n/a	n/a	n/a	n/a
3362526	RECOG_TARGET	n/a	LTP101	ltpFR	6	2	0	CERAMICS	271	1	5	1	n/a	n/a	n/a	n/a	n/a
3363157	RECOG_RESP	n/a	LTP101	ltpFR	6	2	0	CERAMICS	271	1	n/a	1	n/a	n/a	n/a	n/a	n/a
3364214	RECOG_CONF	n/a	LTP101	ltpFR	6	2	0	CERAMICS	271	n/a	5	1	n/a	n/a	n/a	n/a	n/a
3365676	RECOG_LURE	n/a	LTP101	ltpFR	6	2	n/a	COIN	343	0	2	n/a	n/a	n/a	n/a	n/a	n/a
3366459	RECOG_RESP	n/a	LTP101	ltpFR	6	2	n/a	COIN	343	0	n/a	n/a	n/a	n/a	n/a	n/a	n/a
3367437	RECOG_CONF	n/a	LTP101	ltpFR	6	2	n/a	COIN	343	n/a	2	n/a	n/a	n/a	n/a	n/a	n/a
3368800	RECOG_LURE	n/a	LTP101	ltpFR	6	2	n/a	BERRY	122	0	2	n/a	n/a	n/a	n/a	n/a	n/a
3369527	RECOG_RESP	n/a	LTP101	ltpFR	6	2	n/a	BERRY	122	0	n/a	n/a	n/a	n/a	n/a	n/a	n/a
3370450	RECOG_CONF	n/a	LTP101	ltpFR	6	2	n/a	BERRY	122	n/a	2	n/a	n/a	n/a	n/a	n/a	n/a
3371933	RECOG_TARGET	n/a	LTP101	ltpFR	6	2	1	APPLE	33	1	5	0	n/a	n/a	n/a	n/a	n/a
3372610	RECOG_RESP	n/a	LTP101	ltpFR	6	2	1	APPLE	33	1	n/a	0	n/a	n/a	n/a	n/a	n/a
3373663	RECOG_CONF	n/a	LTP101	ltpFR	6	2	1	APPLE	33	n/a	5	0	n/a	n/a	n/a	n/a	n/a
3375107	RECOG_TARGET	n/a	LTP101	ltpFR	6	2	1	GLUE	643	1	5	0	n/a	n/a	n/a	n/a	n/a
3375623	RECOG_RESP	n/a	LTP101	ltpFR	6	2	1	GLUE	643	1	n/a	0	n/a	n/a	n/a	n/a	n/a
3376596	RECOG_CONF	n/a	LTP101	ltpFR	6	2	1	GLUE	643	n/a	5	0	n/a	n/a	n/a	n/a	n/a
3378057	RECOG_TARGET	n/a	LTP101	ltpFR	6	2	-1	SLEEVE	1324	1	5	-1	n/a	n/a	n/a	n/a	n/a
3378731	RECOG_RESP	n/a	LTP101	ltpFR	6	2	-1	SLEEVE	1324	1	n/a	-1	n/a	n/a	n/a	n/a	n/a
3379669	RECOG_CONF	n/a	LTP101	ltpFR	6	2	-1	SLEEVE	1324	n/a	5	-1	n/a	n/a	n/a	n/a	n/a
3381082	RECOG_TARGET	n/a	LTP101	ltpFR	6	2	0	SIDING	1304	0	1	1	n/a	n/a	n/a	n/a	n/a
3382119	RECOG_RESP	n/a	LTP101	ltpFR	6	2	0	SIDING	1304	0	n/a	1	n/a	n/a	n/a	n/a	n/a
3383241	RECOG_CONF	n/a	LTP101	ltpFR	6	2	0	SIDING	1304	n/a	1	1	n/a	n/a	n/a	n/a	n/a
3384666	RECOG_LURE	n/a	LTP101	ltpFR	6	2	n/a	PLANET	1082	0	2	n/a	n/a	n/a	n/a	n/a	n/a
3385775	RECOG_RESP	n/a	LTP101	ltpFR	6	2	n/a	PLANET	1082	0	n/a	n/a	n/a	n/a	n/a	n/a	n/a
3386683	RECOG_CONF	n/a	LTP101	ltpFR	6	2	n/a	PLANET	1082	n/a	2	n/a	n/a	n/a	n/a	n/a	n/a
3388148	RECOG_TARGET	n/a	LTP101	ltpFR	6	2	-1	MARINE	869	1	5	-1	n/a	n/a	n/a	n/a	n/a
3388729	RECOG_RESP	n/a	LTP101	ltpFR	6	2	-1	MARINE	869	1	n/a	-1	n/a	n/a	n/a	n/a	n/a
3389756	RECOG_CONF	n/a	LTP101	ltpFR	6	2	-1	MARINE	869	n/a	5	-1	n/a	n/a	n/a	n/a	n/a
3391215	RECOG_LURE	n/a	LTP101	ltpFR	6	2	n/a	FELLOW	558	0	5	n/a	n/a	n/a	n/a	n/a	n/a
3391986	RECOG_RESP	n/a	LTP101	ltpFR	6	2	n/a	FELLOW	558	0	n/a	n/a	n/a	n/a	n/a	n/a	n/a
3392839	RECOG_CONF	n/a	LTP101	ltpFR	6	2	n/a	FELLOW	558	n/a	5	n/a	n/a	n/a	n/a	n/a	n/a
3394231	RECOG_LURE	n/a	LTP101	ltpFR	6	2	n/a	DOCTOR	478	0	5	n/a	n/a	n/a	n/a	n/a	n/a
3394960	RECOG_RESP	n/a	LTP101	ltpFR	6	2	n/a	DOCTOR	478	0	n/a	n/a	n/a	n/a	n/a	n/a	n/a
3395932	RECOG_CONF	n/a	LTP101	ltpFR	6	2	n/a	DOCTOR	478	n/a	5	n/a	n/a	n/a	n/a	n/a	n/a
3398851	REC_START	n/a	LTP101	ltpFR	6	3	n/a	n/a	n/a	n/a	n/a	n/a	n/a	n/a	n/a	n/a	n/a
3398881	RECOG_TARGET	n/a	LTP101	ltpFR	6	3	-1	LOG	841	1	5	-1	n/a	n/a	n/a	n/a	n/a
3399569	RECOG_RESP	n/a	LTP101	ltpFR	6	3	-1	LOG	841	1	n/a	-1	n/a	n/a	n/a	n/a	n/a
3400572	RECOG_CONF	n/a	LTP101	ltpFR	6	3	-1	LOG	841	n/a	5	-1	n/a	n/a	n/a	n/a	n/a
3401930	RECOG_TARGET	n/a	LTP101	ltpFR	6	3	1	SPIT	1354	1	5	0	n/a	n/a	n/a	n/a	n/a
3402498	RECOG_RESP	n/a	LTP101	ltpFR	6	3	1	SPIT	1354	1	n/a	0	n/a	n/a	n/a	n/a	n/a
3403475	RECOG_CONF	n/a	LTP101	ltpFR	6	3	1	SPIT	1354	n/a	5	0	n/a	n/a	n/a	n/a	n/a
3404897	RECOG_TARGET	n/a	LTP101	ltpFR	6	3	1	MAMMAL	861	1	5	1	n/a	n/a	n/a	n/a	n/a
3405421	RECOG_RESP	n/a	LTP101	ltpFR	6	3	1	MAMMAL	861	1	n/a	1	n/a	n/a	n/a	n/a	n/a
3406439	RECOG_CONF	n/a	LTP101	ltpFR	6	3	1	MAMMAL	861	n/a	5	1	n/a	n/a	n/a	n/a	n/a
3407805	RECOG_TARGET	n/a	LTP101	ltpFR	6	3	-1	PUBLISHER	1137	1	2	-1	n/a	n/a	n/a	n/a	n/a
3408574	RECOG_RESP	n/a	LTP101	ltpFR	6	3	-1	PUBLISHER	1137	1	n/a	-1	n/a	n/a	n/a	n/a	n/a
3410849	RECOG_CONF	n/a	LTP101	ltpFR	6	3	-1	PUBLISHER	1137	n/a	2	-1	n/a	n/a	n/a	n/a	n/a
3412281	RECOG_TARGET	n/a	LTP101	ltpFR	6	3	0	BABY	64	1	5	0	n/a	n/a	n/a	n/a	n/a
3413408	RECOG_RESP	n/a	LTP101	ltpFR	6	3	0	BABY	64	1	n/a	0	n/a	n/a	n/a	n/a	n/a
3414361	RECOG_CONF	n/a	LTP101	ltpFR	6	3	0	BABY	64	n/a	5	0	n/a	n/a	n/a	n/a	n/a
3415829	RECOG_TARGET	n/a	LTP101	ltpFR	6	3	0	SEAFOOD	1260	1	5	0	n/a	n/a	n/a	n/a	n/a
3416381	RECOG_RESP	n/a	LTP101	ltpFR	6	3	0	SEAFOOD	1260	1	n/a	0	n/a	n/a	n/a	n/a	n/a
3417374	RECOG_CONF	n/a	LTP101	ltpFR	6	3	0	SEAFOOD	1260	n/a	5	0	n/a	n/a	n/a	n/a	n/a
3418896	RECOG_LURE	n/a	LTP101	ltpFR	6	3	n/a	ISLAND	745	0	5	n/a	n/a	n/a	n/a	n/a	n/a
3419619	RECOG_RESP	n/a	LTP101	ltpFR	6	3	n/a	ISLAND	745	0	n/a	n/a	n/a	n/a	n/a	n/a	n/a
3420467	RECOG_CONF	n/a	LTP101	ltpFR	6	3	n/a	ISLAND	745	n/a	5	n/a	n/a	n/a	n/a	n/a	n/a
3421879	RECOG_TARGET	n/a	LTP101	ltpFR	6	3	0	ACORN	3	1	5	0	n/a	n/a	n/a	n/a	n/a
3422442	RECOG_RESP	n/a	LTP101	ltpFR	6	3	0	ACORN	3	1	n/a	0	n/a	n/a	n/a	n/a	n/a
3423360	RECOG_CONF	n/a	LTP101	ltpFR	6	3	0	ACORN	3	n/a	5	0	n/a	n/a	n/a	n/a	n/a
3424779	RECOG_TARGET	n/a	LTP101	ltpFR	6	3	0	TREAD	1499	1	5	1	n/a	n/a	n/a	n/a	n/a
3425386	RECOG_RESP	n/a	LTP101	ltpFR	6	3	0	TREAD	1499	1	n/a	1	n/a	n/a	n/a	n/a	n/a
3426303	RECOG_CONF	n/a	LTP101	ltpFR	6	3	0	TREAD	1499	n/a	5	1	n/a	n/a	n/a	n/a	n/a
3427679	RECOG_LURE	n/a	LTP101	ltpFR	6	3	n/a	BATH	98	1	5	n/a	n/a	n/a	n/a	n/a	n/a
3428548	RECOG_RESP	n/a	LTP101	ltpFR	6	3	n/a	BATH	98	1	n/a	n/a	n/a	n/a	n/a	n/a	n/a
3429466	RECOG_CONF	n/a	LTP101	ltpFR	6	3	n/a	BATH	98	n/a	5	n/a	n/a	n/a	n/a	n/a	n/a
3430803	RECOG_LURE	n/a	LTP101	ltpFR	6	3	n/a	DANDRUFF	439	0	5	n/a	n/a	n/a	n/a	n/a	n/a
3431477	RECOG_RESP	n/a	LTP101	ltpFR	6	3	n/a	DANDRUFF	439	0	n/a	n/a	n/a	n/a	n/a	n/a	n/a
3432250	RECOG_CONF	n/a	LTP101	ltpFR	6	3	n/a	DANDRUFF	439	n/a	5	n/a	n/a	n/a	n/a	n/a	n/a
3433704	RECOG_TARGET	n/a	LTP101	ltpFR	6	3	1	CHAMPAGNE	278	1	5	0	n/a	n/a	n/a	n/a	n/a
3434365	RECOG_RESP	n/a	LTP101	ltpFR	6	3	1	CHAMPAGNE	278	1	n/a	0	n/a	n/a	n/a	n/a	n/a
3435233	RECOG_CONF	n/a	LTP101	ltpFR	6	3	1	CHAMPAGNE	278	n/a	5	0	n/a	n/a	n/a	n/a	n/a
3436629	RECOG_LURE	n/a	LTP101	ltpFR	6	3	n/a	BEER	114	0	5	n/a	n/a	n/a	n/a	n/a	n/a
3437498	RECOG_RESP	n/a	LTP101	ltpFR	6	3	n/a	BEER	114	0	n/a	n/a	n/a	n/a	n/a	n/a	n/a
3438516	RECOG_CONF	n/a	LTP101	ltpFR	6	3	n/a	BEER	114	n/a	5	n/a	n/a	n/a	n/a	n/a	n/a
3439928	RECOG_TARGET	n/a	LTP101	ltpFR	6	3	-1	SNAKE	1333	1	5	-1	n/a	n/a	n/a	n/a	n/a
3440521	RECOG_RESP	n/a	LTP101	ltpFR	6	3	-1	SNAKE	1333	1	n/a	-1	n/a	n/a	n/a	n/a	n/a
3441479	RECOG_CONF	n/a	LTP101	ltpFR	6	3	-1	SNAKE	1333	n/a	5	-1	n/a	n/a	n/a	n/a	n/a
3442769	RECOG_LURE	n/a	LTP101	ltpFR	6	3	n/a	LONDON	843	0	5	n/a	n/a	n/a	n/a	n/a	n/a
3443449	RECOG_RESP	n/a	LTP101	ltpFR	6	3	n/a	LONDON	843	0	n/a	n/a	n/a	n/a	n/a	n/a	n/a
3444452	RECOG_CONF	n/a	LTP101	ltpFR	6	3	n/a	LONDON	843	n/a	5	n/a	n/a	n/a	n/a	n/a	n/a
3445819	RECOG_TARGET	n/a	LTP101	ltpFR	6	3	0	TAXI	1438	1	5	1	n/a	n/a	n/a	n/a	n/a
3446527	RECOG_RESP	n/a	LTP101	ltpFR	6	3	0	TAXI	1438	1	n/a	1	n/a	n/a	n/a	n/a	n/a
3447435	RECOG_CONF	n/a	LTP101	ltpFR	6	3	0	TAXI	1438	n/a	5	1	n/a	n/a	n/a	n/a	n/a
3448844	RECOG_TARGET	n/a	LTP101	ltpFR	6	3	1	ESSAY	540	1	5	0	n/a	n/a	n/a	n/a	n/a
3449620	RECOG_RESP	n/a	LTP101	ltpFR	6	3	1	ESSAY	540	1	n/a	0	n/a	n/a	n/a	n/a	n/a
3450628	RECOG_CONF	n/a	LTP101	ltpFR	6	3	1	ESSAY	540	n/a	5	0	n/a	n/a	n/a	n/a	n/a
3451952	RECOG_TARGET	n/a	LTP101	ltpFR	6	3	0	CAULIFLOWER	262	1	5	1	n/a	n/a	n/a	n/a	n/a
3452599	RECOG_RESP	n/a	LTP101	ltpFR	6	3	0	CAULIFLOWER	262	1	n/a	1	n/a	n/a	n/a	n/a	n/a
3453701	RECOG_CONF	n/a	LTP101	ltpFR	6	3	0	CAULIFLOWER	262	n/a	5	1	n/a	n/a	n/a	n/a	n/a
3455026	RECOG_LURE	n/a	LTP101	ltpFR	6	3	n/a	GUITAR	670	0	5	n/a	n/a	n/a	n/a	n/a	n/a
3455677	RECOG_RESP	n/a	LTP101	ltpFR	6	3	n/a	GUITAR	670	0	n/a	n/a	n/a	n/a	n/a	n/a	n/a
3457912	RECOG_CONF	n/a	LTP101	ltpFR	6	3	n/a	GUITAR	670	n/a	5	n/a	n/a	n/a	n/a	n/a	n/a
3459251	RECOG_TARGET	n/a	LTP101	ltpFR	6	3	1	SAUSAGE	1238	1	5	0	n/a	n/a	n/a	n/a	n/a
3461104	RECOG_RESP	n/a	LTP101	ltpFR	6	3	1	SAUSAGE	1238	1	n/a	0	n/a	n/a	n/a	n/a	n/a
3461982	RECOG_CONF	n/a	LTP101	ltpFR	6	3	1	SAUSAGE	1238	n/a	5	0	n/a	n/a	n/a	n/a	n/a
3465045	REC_START	n/a	LTP101	ltpFR	6	4	n/a	n/a	n/a	n/a	n/a	n/a	n/a	n/a	n/a	n/a	n/a
3465076	RECOG_LURE	n/a	LTP101	ltpFR	6	4	n/a	TWINE	1529	0	4	n/a	n/a	n/a	n/a	n/a	n/a
3466117	RECOG_RESP	n/a	LTP101	ltpFR	6	4	n/a	TWINE	1529	0	n/a	n/a	n/a	n/a	n/a	n/a	n/a
3466926	RECOG_CONF	n/a	LTP101	ltpFR	6	4	n/a	TWINE	1529	n/a	4	n/a	n/a	n/a	n/a	n/a	n/a
3468275	RECOG_LURE	n/a	LTP101	ltpFR	6	4	n/a	EYE	545	0	4	n/a	n/a	n/a	n/a	n/a	n/a
3469749	RECOG_RESP	n/a	LTP101	ltpFR	6	4	n/a	EYE	545	0	n/a	n/a	n/a	n/a	n/a	n/a	n/a
3470597	RECOG_CONF	n/a	LTP101	ltpFR	6	4	n/a	EYE	545	n/a	4	n/a	n/a	n/a	n/a	n/a	n/a
3471942	RECOG_LURE	n/a	LTP101	ltpFR	6	4	n/a	EARTH	515	0	5	n/a	n/a	n/a	n/a	n/a	n/a
3472712	RECOG_RESP	n/a	LTP101	ltpFR	6	4	n/a	EARTH	515	0	n/a	n/a	n/a	n/a	n/a	n/a	n/a
3473461	RECOG_CONF	n/a	LTP101	ltpFR	6	4	n/a	EARTH	515	n/a	5	n/a	n/a	n/a	n/a	n/a	n/a
3474858	RECOG_TARGET	n/a	LTP101	ltpFR	6	4	0	HOME	712	1	5	1	n/a	n/a	n/a	n/a	n/a
3475431	RECOG_RESP	n/a	LTP101	ltpFR	6	4	0	HOME	712	1	n/a	1	n/a	n/a	n/a	n/a	n/a
3476404	RECOG_CONF	n/a	LTP101	ltpFR	6	4	0	HOME	712	n/a	5	1	n/a	n/a	n/a	n/a	n/a
3477791	RECOG_TARGET	n/a	LTP101	ltpFR	6	4	0	RADISH	1158	1	5	0	n/a	n/a	n/a	n/a	n/a
3478335	RECOG_RESP	n/a	LTP101	ltpFR	6	4	0	RADISH	1158	1	n/a	0	n/a	n/a	n/a	n/a	n/a
3479387	RECOG_CONF	n/a	LTP101	ltpFR	6	4	0	RADISH	1158	n/a	5	0	n/a	n/a	n/a	n/a	n/a
3480983	RECOG_TARGET	n/a	LTP101	ltpFR	6	4	-1	GREASE	660	1	5	-1	n/a	n/a	n/a	n/a	n/a
3481562	RECOG_RESP	n/a	LTP101	ltpFR	6	4	-1	GREASE	660	1	n/a	-1	n/a	n/a	n/a	n/a	n/a
3482460	RECOG_CONF	n/a	LTP101	ltpFR	6	4	-1	GREASE	660	n/a	5	-1	n/a	n/a	n/a	n/a	n/a
3483824	RECOG_LURE	n/a	LTP101	ltpFR	6	4	n/a	PLUM	1090	0	5	n/a	n/a	n/a	n/a	n/a	n/a
3484451	RECOG_RESP	n/a	LTP101	ltpFR	6	4	n/a	PLUM	1090	0	n/a	n/a	n/a	n/a	n/a	n/a	n/a
3485254	RECOG_CONF	n/a	LTP101	ltpFR	6	4	n/a	PLUM	1090	n/a	5	n/a	n/a	n/a	n/a	n/a	n/a
3486575	RECOG_TARGET	n/a	LTP101	ltpFR	6	4	1	MESSAGE	888	1	2	0	n/a	n/a	n/a	n/a	n/a
3488048	RECOG_RESP_VV	n/a	LTP101	ltpFR	6	4	1	MESSAGE	888	0	n/a	0	n/a	n/a	n/a	n/a	n/a
3488856	RECOG_RESP	n/a	LTP101	ltpFR	6	4	1	MESSAGE	888	1	n/a	0	n/a	n/a	n/a	n/a	n/a
3489714	RECOG_CONF	n/a	LTP101	ltpFR	6	4	1	MESSAGE	888	n/a	2	0	n/a	n/a	n/a	n/a	n/a
3491157	RECOG_TARGET	n/a	LTP101	ltpFR	6	4	-1	SCOTCH	1251	1	5	-1	n/a	n/a	n/a	n/a	n/a
3491779	RECOG_RESP	n/a	LTP101	ltpFR	6	4	-1	SCOTCH	1251	1	n/a	-1	n/a	n/a	n/a	n/a	n/a
3492587	RECOG_CONF	n/a	LTP101	ltpFR	6	4	-1	SCOTCH	1251	n/a	5	-1	n/a	n/a	n/a	n/a	n/a
3493998	RECOG_LURE	n/a	LTP101	ltpFR	6	4	n/a	NERVE	944	0	5	n/a	n/a	n/a	n/a	n/a	n/a
3494598	RECOG_RESP	n/a	LTP101	ltpFR	6	4	n/a	NERVE	944	0	n/a	n/a	n/a	n/a	n/a	n/a	n/a
3495381	RECOG_CONF	n/a	LTP101	ltpFR	6	4	n/a	NERVE	944	n/a	5	n/a	n/a	n/a	n/a	n/a	n/a
3496749	RECOG_TARGET	n/a	LTP101	ltpFR	6	4	1	COOLER	375	1	5	0	n/a	n/a	n/a	n/a	n/a
3497421	RECOG_RESP	n/a	LTP101	ltpFR	6	4	1	COOLER	375	1	n/a	0	n/a	n/a	n/a	n/a	n/a
3498224	RECOG_CONF	n/a	LTP101	ltpFR	6	4	1	COOLER	375	n/a	5	0	n/a	n/a	n/a	n/a	n/a
3499624	RECOG_TARGET	n/a	LTP101	ltpFR	6	4	-1	PATRIOT	1026	1	5	-1	n/a	n/a	n/a	n/a	n/a
3500250	RECOG_RESP	n/a	LTP101	ltpFR	6	4	-1	PATRIOT	1026	1	n/a	-1	n/a	n/a	n/a	n/a	n/a
3501088	RECOG_CONF	n/a	LTP101	ltpFR	6	4	-1	PATRIOT	1026	n/a	5	-1	n/a	n/a	n/a	n/a	n/a
3502407	RECOG_TARGET	n/a	LTP101	ltpFR	6	4	-1	BAY	102	1	5	-1	n/a	n/a	n/a	n/a	n/a
3503288	RECOG_RESP	n/a	LTP101	ltpFR	6	4	-1	BAY	102	1	n/a	-1	n/a	n/a	n/a	n/a	n/a
3504141	RECOG_CONF	n/a	LTP101	ltpFR	6	4	-1	BAY	102	n/a	5	-1	n/a	n/a	n/a	n/a	n/a
3505524	RECOG_LURE	n/a	LTP101	ltpFR	6	4	n/a	RADIATOR	1156	0	5	n/a	n/a	n/a	n/a	n/a	n/a
3506271	RECOG_RESP	n/a	LTP101	ltpFR	6	4	n/a	RADIATOR	1156	0	n/a	n/a	n/a	n/a	n/a	n/a	n/a
3507144	RECOG_CONF	n/a	LTP101	ltpFR	6	4	n/a	RADIATOR	1156	n/a	5	n/a	n/a	n/a	n/a	n/a	n/a
3508598	RECOG_TARGET	n/a	LTP101	ltpFR	6	4	0	SUMMIT	1405	1	5	1	n/a	n/a	n/a	n/a	n/a
3509199	RECOG_RESP	n/a	LTP101	ltpFR	6	4	0	SUMMIT	1405	1	n/a	1	n/a	n/a	n/a	n/a	n/a
3510187	RECOG_CONF	n/a	LTP101	ltpFR	6	4	0	SUMMIT	1405	n/a	5	1	n/a	n/a	n/a	n/a	n/a
3511648	RECOG_TARGET	n/a	LTP101	ltpFR	6	4	-1	TURKEY	1520	1	5	-1	n/a	n/a	n/a	n/a	n/a
3512203	RECOG_RESP	n/a	LTP101	ltpFR	6	4	-1	TURKEY	1520	1	n/a	-1	n/a	n/a	n/a	n/a	n/a
3513180	RECOG_CONF	n/a	LTP101	ltpFR	6	4	-1	TURKEY	1520	n/a	5	-1	n/a	n/a	n/a	n/a	n/a
3514598	RECOG_LURE	n/a	LTP101	ltpFR	6	4	n/a	SHACK	1273	0	4	n/a	n/a	n/a	n/a	n/a	n/a
3515131	RECOG_RESP_VV	n/a	LTP101	ltpFR	6	4	n/a	SHACK	1273	1	n/a	n/a	n/a	n/a	n/a	n/a	n/a
3516219	RECOG_RESP	n/a	LTP101	ltpFR	6	4	n/a	SHACK	1273	0	n/a	n/a	n/a	n/a	n/a	n/a	n/a
3517221	RECOG_CONF	n/a	LTP101	ltpFR	6	4	n/a	SHACK	1273	n/a	4	n/a	n/a	n/a	n/a	n/a	n/a
3518623	RECOG_LURE	n/a	LTP101	ltpFR	6	4	n/a	ALBUM	14	0	4	n/a	n/a	n/a	n/a	n/a	n/a
3519676	RECOG_RESP	n/a	LTP101	ltpFR	6	4	n/a	ALBUM	14	0	n/a	n/a	n/a	n/a	n/a	n/a	n/a
3520594	RECOG_CONF	n/a	LTP101	ltpFR	6	4	n/a	ALBUM	14	n/a	4	n/a	n/a	n/a	n/a	n/a	n/a
3522013	RECOG_TARGET	n/a	LTP101	ltpFR	6	4	0	CLAM	315	1	5	0	n/a	n/a	n/a	n/a	n/a
3522664	RECOG_RESP	n/a	LTP101	ltpFR	6	4	0	CLAM	315	1	n/a	0	n/a	n/a	n/a	n/a	n/a
3523617	RECOG_CONF	n/a	LTP101	ltpFR	6	4	0	CLAM	315	n/a	5	0	n/a	n/a	n/a	n/a	n/a
3525088	RECOG_LURE	n/a	LTP101	ltpFR	6	4	n/a	ANCESTOR	20	0	5	n/a	n/a	n/a	n/a	n/a	n/a
3525667	RECOG_RESP	n/a	LTP101	ltpFR	6	4	n/a	ANCESTOR	20	0	n/a	n/a	n/a	n/a	n/a	n/a	n/a
3526540	RECOG_CONF	n/a	LTP101	ltpFR	6	4	n/a	ANCESTOR	20	n/a	5	n/a	n/a	n/a	n/a	n/a	n/a
3529364	REC_START	n/a	LTP101	ltpFR	6	5	n/a	n/a	n/a	n/a	n/a	n/a	n/a	n/a	n/a	n/a	n/a
3529397	RECOG_TARGET	n/a	LTP101	ltpFR	6	5	0	BUYER	208	1	5	1	n/a	n/a	n/a	n/a	n/a
3530327	RECOG_RESP	n/a	LTP101	ltpFR	6	5	0	BUYER	208	1	n/a	1	n/a	n/a	n/a	n/a	n/a
3531165	RECOG_CONF	n/a	LTP101	ltpFR	6	5	0	BUYER	208	n/a	5	1	n/a	n/a	n/a	n/a	n/a
3532480	RECOG_LURE	n/a	LTP101	ltpFR	6	5	n/a	DETECTIVE	454	0	4	n/a	n/a	n/a	n/a	n/a	n/a
3534886	RECOG_RESP	n/a	LTP101	ltpFR	6	5	n/a	DETECTIVE	454	0	n/a	n/a	n/a	n/a	n/a	n/a	n/a
3535625	RECOG_CONF	n/a	LTP101	ltpFR	6	5	n/a	DETECTIVE	454	n/a	4	n/a	n/a	n/a	n/a	n/a	n/a
3537004	RECOG_TARGET	n/a	LTP101	ltpFR	6	5	1	BOOTH	151	0	4	0	n/a	n/a	n/a	n/a	n/a
3538134	RECOG_RESP	n/a	LTP101	ltpFR	6	5	1	BOOTH	151	0	n/a	0	n/a	n/a	n/a	n/a	n/a
3538847	RECOG_CONF	n/a	LTP101	ltpFR	6	5	1	BOOTH	151	n/a	4	0	n/a	n/a	n/a	n/a	n/a
3540329	RECOG_LURE	n/a	LTP101	ltpFR	6	5	n/a	WASHER	1592	0	4	n/a	n/a	n/a	n/a	n/a	n/a
3541267	RECOG_RESP	n/a	LTP101	ltpFR	6	5	n/a	WASHER	1592	0	n/a	n/a	n/a	n/a	n/a	n/a	n/a
3542449	RECOG_CONF	n/a	LTP101	ltpFR	6	5	n/a	WASHER	1592	n/a	4	n/a	n/a	n/a	n/a	n/a	n/a
3543828	RECOG_TARGET	n/a	LTP101	ltpFR	6	5	-1	LANDSCAPE	799	0	4	-1	n/a	n/a	n/a	n/a	n/a
3544435	RECOG_RESP_VV	n/a	LTP101	ltpFR	6	5	-1	LANDSCAPE	799	1	n/a	-1	n/a	n/a	n/a	n/a	n/a
3544834	RECOG_RESP	n/a	LTP101	ltpFR	6	5	-1	LANDSCAPE	799	0	n/a	-1	n/a	n/a	n/a	n/a	n/a
3545782	RECOG_CONF	n/a	LTP101	ltpFR	6	5	-1	LANDSCAPE	799	n/a	4	-1	n/a	n/a	n/a	n/a	n/a
3547228	RECOG_LURE	n/a	LTP101	ltpFR	6	5	n/a	PIZZA	1079	0	5	n/a	n/a	n/a	n/a	n/a	n/a
3547937	RECOG_RESP	n/a	LTP101	ltpFR	6	5	n/a	PIZZA	1079	0	n/a	n/a	n/a	n/a	n/a	n/a	n/a
3548685	RECOG_CONF	n/a	LTP101	ltpFR	6	5	n/a	PIZZA	1079	n/a	5	n/a	n/a	n/a	n/a	n/a	n/a
3550111	RECOG_LURE	n/a	LTP101	ltpFR	6	5	n/a	FATHER	554	0	5	n/a	n/a	n/a	n/a	n/a	n/a
3550900	RECOG_RESP	n/a	LTP101	ltpFR	6	5	n/a	FATHER	554	0	n/a	n/a	n/a	n/a	n/a	n/a	n/a
3551778	RECOG_CONF	n/a	LTP101	ltpFR	6	5	n/a	FATHER	554	n/a	5	n/a	n/a	n/a	n/a	n/a	n/a
3553194	RECOG_TARGET	n/a	LTP101	ltpFR	6	5	0	BUBBLE	183	1	5	1	n/a	n/a	n/a	n/a	n/a
3553803	RECOG_RESP	n/a	LTP101	ltpFR	6	5	0	BUBBLE	183	1	n/a	1	n/a	n/a	n/a	n/a	n/a
3554791	RECOG_CONF	n/a	LTP101	ltpFR	6	5	0	BUBBLE	183	n/a	5	1	n/a	n/a	n/a	n/a	n/a
3556169	RECOG_LURE	n/a	LTP101	ltpFR	6	5	n/a	TOAD	1470	0	5	n/a	n/a	n/a	n/a	n/a	n/a
3556747	RECOG_RESP	n/a	LTP101	ltpFR	6	5	n/a	TOAD	1470	0	n/a	n/a	n/a	n/a	n/a	n/a	n/a
3557575	RECOG_CONF	n/a	LTP101	ltpFR	6	5	n/a	TOAD	1470	n/a	5	n/a	n/a	n/a	n/a	n/a	n/a
3558960	RECOG_TARGET	n/a	LTP101	ltpFR	6	5	-1	WOLF	1619	1	5	-1	n/a	n/a	n/a	n/a	n/a
3559550	RECOG_RESP	n/a	LTP101	ltpFR	6	5	-1	WOLF	1619	1	n/a	-1	n/a	n/a	n/a	n/a	n/a
3560498	RECOG_CONF	n/a	LTP101	ltpFR	6	5	-1	WOLF	1619	n/a	5	-1	n/a	n/a	n/a	n/a	n/a
3561810	RECOG_TARGET	n/a	LTP101	ltpFR	6	5	1	VIKING	1565	1	5	1	n/a	n/a	n/a	n/a	n/a
3562513	RECOG_RESP	n/a	LTP101	ltpFR	6	5	1	VIKING	1565	1	n/a	1	n/a	n/a	n/a	n/a	n/a
3563342	RECOG_CONF	n/a	LTP101	ltpFR	6	5	1	VIKING	1565	n/a	5	1	n/a	n/a	n/a	n/a	n/a
3564736	RECOG_TARGET	n/a	LTP101	ltpFR	6	5	1	PECAN	1036	1	5	n/a	n/a	n/a	n/a	n/a	n/a
3565317	RECOG_RESP	n/a	LTP101	ltpFR	6	5	1	PECAN	1036	1	n/a	n/a	n/a	n/a	n/a	n/a	n/a
3566215	RECOG_CONF	n/a	LTP101	ltpFR	6	5	1	PECAN	1036	n/a	5	n/a	n/a	n/a	n/a	n/a	n/a
3567602	RECOG_LURE	n/a	LTP101	ltpFR	6	5	n/a	BUILDER	190	1	2	n/a	n/a	n/a	n/a	n/a	n/a
3568270	RECOG_RESP	n/a	LTP101	ltpFR	6	5	n/a	BUILDER	190	1	n/a	n/a	n/a	n/a	n/a	n/a	n/a
3569089	RECOG_CONF	n/a	LTP101	ltpFR	6	5	n/a	BUILDER	190	n/a	2	n/a	n/a	n/a	n/a	n/a	n/a
3570444	RECOG_TARGET	n/a	LTP101	ltpFR	6	5	1	POSSUM	1112	1	5	1	n/a	n/a	n/a	n/a	n/a
3571139	RECOG_RESP	n/a	LTP101	ltpFR	6	5	1	POSSUM	1112	1	n/a	1	n/a	n/a	n/a	n/a	n/a
3572092	RECOG_CONF	n/a	LTP101	ltpFR	6	5	1	POSSUM	1112	n/a	5	1	n/a	n/a	n/a	n/a	n/a
3573435	RECOG_LURE	n/a	LTP101	ltpFR	6	5	n/a	ROBOT	1200	0	2	n/a	n/a	n/a	n/a	n/a	n/a
3573863	RECOG_RESP_VV	n/a	LTP101	ltpFR	6	5	n/a	ROBOT	1200	1	n/a	n/a	n/a	n/a	n/a	n/a	n/a
3574262	RECOG_RESP	n/a	LTP101	ltpFR	6	5	n/a	ROBOT	1200	0	n/a	n/a	n/a	n/a	n/a	n/a	n/a
3575035	RECOG_CONF	n/a	LTP101	ltpFR	6	5	n/a	ROBOT	1200	n/a	2	n/a	n/a	n/a	n/a	n/a	n/a
3576435	RECOG_TARGET	n/a	LTP101	ltpFR	6	5	0	BUNNY	198	1	5	1	n/a	n/a	n/a	n/a	n/a
3577095	RECOG_RESP	n/a	LTP101	ltpFR	6	5	0	BUNNY	198	1	n/a	1	n/a	n/a	n/a	n/a	n/a
3577908	RECOG_CONF	n/a	LTP101	ltpFR	6	5	0	BUNNY	198	n/a	5	1	n/a	n/a	n/a	n/a	n/a
3579275	RECOG_TARGET	n/a	LTP101	ltpFR	6	5	-1	DRESSER	496	1	5	-1	n/a	n/a	n/a	n/a	n/a
3579859	RECOG_RESP	n/a	LTP101	ltpFR	6	5	-1	DRESSER	496	1	n/a	-1	n/a	n/a	n/a	n/a	n/a
3580692	RECOG_CONF	n/a	LTP101	ltpFR	6	5	-1	DRESSER	496	n/a	5	-1	n/a	n/a	n/a	n/a	n/a
3582025	RECOG_TARGET	n/a	LTP101	ltpFR	6	5	0	OX	994	1	5	1	n/a	n/a	n/a	n/a	n/a
3582463	RECOG_RESP	n/a	LTP101	ltpFR	6	5	0	OX	994	1	n/a	1	n/a	n/a	n/a	n/a	n/a
3583276	RECOG_CONF	n/a	LTP101	ltpFR	6	5	0	OX	994	n/a	5	1	n/a	n/a	n/a	n/a	n/a
3584568	RECOG_TARGET	n/a	LTP101	ltpFR	6	5	1	NOTEBOOK	959	1	5	0	n/a	n/a	n/a	n/a	n/a
3585092	RECOG_RESP	n/a	LTP101	ltpFR	6	5	1	NOTEBOOK	959	1	n/a	0	n/a	n/a	n/a	n/a	n/a
3586100	RECOG_CONF	n/a	LTP101	ltpFR	6	5	1	NOTEBOOK	959	n/a	5	0	n/a	n/a	n/a	n/a	n/a
3587517	RECOG_TARGET	n/a	LTP101	ltpFR	6	5	-1	BARTENDER	92	1	5	-1	n/a	n/a	n/a	n/a	n/a
3588335	RECOG_RESP	n/a	LTP101	ltpFR	6	5	-1	BARTENDER	92	1	n/a	-1	n/a	n/a	n/a	n/a	n/a
3589273	RECOG_CONF	n/a	LTP101	ltpFR	6	5	-1	BARTENDER	92	n/a	5	-1	n/a	n/a	n/a	n/a	n/a
3592143	REC_START	n/a	LTP101	ltpFR	6	6	n/a	n/a	n/a	n/a	n/a	n/a	n/a	n/a	n/a	n/a	n/a
3592174	RECOG_TARGET	n/a	LTP101	ltpFR	6	6	0	LIP	828	1	5	0	n/a	n/a	n/a	n/a	n/a
3592761	RECOG_RESP	n/a	LTP101	ltpFR	6	6	0	LIP	828	1	n/a	0	n/a	n/a	n/a	n/a	n/a
3593634	RECOG_CONF	n/a	LTP101	ltpFR	6	6	0	LIP	828	n/a	5	0	n/a	n/a	n/a	n/a	n/a
3594958	RECOG_TARGET	n/a	LTP101	ltpFR	6	6	0	HELMET	702	1	5	0	n/a	n/a	n/a	n/a	n/a
3595395	RECOG_RESP	n/a	LTP101	ltpFR	6	6	0	HELMET	702	1	n/a	0	n/a	n/a	n/a	n/a	n/a
3596239	RECOG_CONF	n/a	LTP101	ltpFR	6	6	0	HELMET	702	n/a	5	0	n/a	n/a	n/a	n/a	n/a
3597583	RECOG_TARGET	n/a	LTP101	ltpFR	6	6	1	KID	775	1	5	1	n/a	n/a	n/a	n/a	n/a
3598084	RECOG_RESP	n/a	LTP101	ltpFR	6	6	1	KID	775	1	n/a	1	n/a	n/a	n/a	n/a	n/a
3598972	RECOG_CONF	n/a	LTP101	ltpFR	6	6	1	KID	775	n/a	5	1	n/a	n/a	n/a	n/a	n/a
3600391	RECOG_TARGET	n/a	LTP101	ltpFR	6	6	-1	TOWEL	1489	1	5	-1	n/a	n/a	n/a	n/a	n/a
3600803	RECOG_RESP	n/a	LTP101	ltpFR	6	6	-1	TOWEL	1489	1	n/a	-1	n/a	n/a	n/a	n/a	n/a
3601676	RECOG_CONF	n/a	LTP101	ltpFR	6	6	-1	TOWEL	1489	n/a	5	-1	n/a	n/a	n/a	n/a	n/a
3603065	RECOG_TARGET	n/a	LTP101	ltpFR	6	6	0	SKI	1316	1	5	1	n/a	n/a	n/a	n/a	n/a
3603432	RECOG_RESP	n/a	LTP101	ltpFR	6	6	0	SKI	1316	1	n/a	1	n/a	n/a	n/a	n/a	n/a
3604350	RECOG_CONF	n/a	LTP101	ltpFR	6	6	0	SKI	1316	n/a	5	1	n/a	n/a	n/a	n/a	n/a
3605633	RECOG_TARGET	n/a	LTP101	ltpFR	6	6	0	SKYSCRAPER	1322	1	5	1	n/a	n/a	n/a	n/a	n/a
3606251	RECOG_RESP	n/a	LTP101	ltpFR	6	6	0	SKYSCRAPER	1322	1	n/a	1	n/a	n/a	n/a	n/a	n/a
3607094	RECOG_CONF	n/a	LTP101	ltpFR	6	6	0	SKYSCRAPER	1322	n/a	5	1	n/a	n/a	n/a	n/a	n/a
3608424	RECOG_TARGET	n/a	LTP101	ltpFR	6	6	1	LOBSTER	837	1	5	1	n/a	n/a	n/a	n/a	n/a
3608995	RECOG_RESP	n/a	LTP101	ltpFR	6	6	1	LOBSTER	837	1	n/a	1	n/a	n/a	n/a	n/a	n/a
3609838	RECOG_CONF	n/a	LTP101	ltpFR	6	6	1	LOBSTER	837	n/a	5	1	n/a	n/a	n/a	n/a	n/a
3611282	RECOG_LURE	n/a	LTP101	ltpFR	6	6	n/a	APPLICATION	34	0	5	n/a	n/a	n/a	n/a	n/a	n/a
3612222	RECOG_RESP	n/a	LTP101	ltpFR	6	6	n/a	APPLICATION	34	0	n/a	n/a	n/a	n/a	n/a	n/a	n/a
3613020	RECOG_CONF	n/a	LTP101	ltpFR	6	6	n/a	APPLICATION	34	n/a	5	n/a	n/a	n/a	n/a	n/a	n/a
3614382	RECOG_TARGET	n/a	LTP101	ltpFR	6	6	0	COYOTE	396	0	5	1	n/a	n/a	n/a	n/a	n/a
3615151	RECOG_RESP	n/a	LTP101	ltpFR	6	6	0	COYOTE	396	0	n/a	1	n/a	n/a	n/a	n/a	n/a
3616034	RECOG_CONF	n/a	LTP101	ltpFR	6	6	0	COYOTE	396	n/a	5	1	n/a	n/a	n/a	n/a	n/a
3617415	RECOG_LURE	n/a	LTP101	ltpFR	6	6	n/a	CREW	406	0	2	n/a	n/a	n/a	n/a	n/a	n/a
3618049	RECOG_RESP_VV	n/a	LTP101	ltpFR	6	6	n/a	CREW	406	1	n/a	n/a	n/a	n/a	n/a	n/a	n/a
3618722	RECOG_RESP	n/a	LTP101	ltpFR	6	6	n/a	CREW	406	0	n/a	n/a	n/a	n/a	n/a	n/a	n/a
3619615	RECOG_CONF	n/a	LTP101	ltpFR	6	6	n/a	CREW	406	n/a	2	n/a	n/a	n/a	n/a	n/a	n/a
3621064	RECOG_LURE	n/a	LTP101	ltpFR	6	6	n/a	PENNY	1045	0	2	n/a	n/a	n/a	n/a	n/a	n/a
3621671	RECOG_RESP	n/a	LTP101	ltpFR	6	6	n/a	PENNY	1045	0	n/a	n/a	n/a	n/a	n/a	n/a	n/a
3622359	RECOG_CONF	n/a	LTP101	ltpFR	6	6	n/a	PENNY	1045	n/a	2	n/a	n/a	n/a	n/a	n/a	n/a
3623805	RECOG_TARGET	n/a	LTP101	ltpFR	6	6	1	DINNER	468	1	5	0	n/a	n/a	n/a	n/a	n/a
3624554	RECOG_RESP	n/a	LTP101	ltpFR	6	6	1	DINNER	468	1	n/a	0	n/a	n/a	n/a	n/a	n/a
3625253	RECOG_CONF	n/a	LTP101	ltpFR	6	6	1	DINNER	468	n/a	5	0	n/a	n/a	n/a	n/a	n/a
3626681	RECOG_LURE	n/a	LTP101	ltpFR	6	6	n/a	DRAGON	492	0	5	n/a	n/a	n/a	n/a	n/a	n/a
3627473	RECOG_RESP	n/a	LTP101	ltpFR	6	6	n/a	DRAGON	492	0	n/a	n/a	n/a	n/a	n/a	n/a	n/a
3628256	RECOG_CONF	n/a	LTP101	ltpFR	6	6	n/a	DRAGON	492	n/a	5	n/a	n/a	n/a	n/a	n/a	n/a
3629673	RECOG_TARGET	n/a	LTP101	ltpFR	6	6	-1	SNACK	1331	1	5	-1	n/a	n/a	n/a	n/a	n/a
3630211	RECOG_RESP	n/a	LTP101	ltpFR	6	6	-1	SNACK	1331	1	n/a	-1	n/a	n/a	n/a	n/a	n/a
3630940	RECOG_CONF	n/a	LTP101	ltpFR	6	6	-1	SNACK	1331	n/a	5	-1	n/a	n/a	n/a	n/a	n/a
3632372	RECOG_LURE	n/a	LTP101	ltpFR	6	6	n/a	CRACKER	398	0	5	n/a	n/a	n/a	n/a	n/a	n/a
3632765	RECOG_RESP_VV	n/a	LTP101	ltpFR	6	6	n/a	CRACKER	398	1	n/a	n/a	n/a	n/a	n/a	n/a	n/a
3633135	RECOG_RESP	n/a	LTP101	ltpFR	6	6	n/a	CRACKER	398	0	n/a	n/a	n/a	n/a	n/a	n/a	n/a
3633793	RECOG_CONF	n/a	LTP101	ltpFR	6	6	n/a	CRACKER	398	n/a	5	n/a	n/a	n/a	n/a	n/a	n/a
3635246	RECOG_LURE	n/a	LTP101	ltpFR	6	6	n/a	MACHINE	852	1	4	n/a	n/a	n/a	n/a	n/a	n/a
3635844	RECOG_RESP	n/a	LTP101	ltpFR	6	6	n/a	MACHINE	852	1	n/a	n/a	n/a	n/a	n/a	n/a	n/a
