onset	duration	trial_type	sample	stim_file	subject	experiment	session	trial	item_name	item_num	list	answer	test_x	test_y	test_z
351.375	n/a	SESS_START	719616	n/a	LTP384	ltpFR2	0	n/a	n/a	n/a	n/a	n/a	0	0	0
394.90966796875	n/a	START	808775	n/a	LTP384	ltpFR2	0	n/a	n/a	n/a	-1	n/a	n/a	n/a	n/a
394.94091796875	n/a	PROB	808839	n/a	LTP384	ltpFR2	0	n/a	n/a	n/a	-1	15	8	4	3
406.90966796875	n/a	STOP	833351	n/a	LTP384	ltpFR2	0	n/a	n/a	n/a	-1	n/a	n/a	n/a	n/a
470.70361328125	n/a	DISTRACTOR	964001	n/a	LTP384	ltpFR2	0	1	n/a	n/a	n/a	n/a	0	0	0
470.70458984375	n/a	START	964003	n/a	LTP384	ltpFR2	0	n/a	n/a	n/a	1	n/a	n/a	n/a	n/a
470.720703125	n/a	PROB	964036	n/a	LTP384	ltpFR2	0	n/a	n/a	n/a	1	19	1	9	9
474.17041015625	n/a	PROB	971101	n/a	LTP384	ltpFR2	0	n/a	n/a	n/a	1	11	1	3	7
476.38623046875	n/a	PROB	975639	n/a	LTP384	ltpFR2	0	n/a	n/a	n/a	1	17	4	6	7
478.93701171875	n/a	PROB	980863	n/a	LTP384	ltpFR2	0	n/a	n/a	n/a	1	20	8	4	8
482.93701171875	n/a	PROB	989055	n/a	LTP384	ltpFR2	0	n/a	n/a	n/a	1	11	1	6	4
485.1201171875	n/a	PROB	993526	n/a	LTP384	ltpFR2	0	n/a	n/a	n/a	1	13	6	6	1
487.18603515625	n/a	PROB	997757	n/a	LTP384	ltpFR2	0	n/a	n/a	n/a	1	21	5	7	9
490.90283203125	n/a	PROB	1005369	n/a	LTP384	ltpFR2	0	n/a	n/a	n/a	1	15	6	2	7
493.541015625	n/a	STOP	1010772	n/a	LTP384	ltpFR2	0	n/a	n/a	n/a	1	n/a	n/a	n/a	n/a
495.73583984375	n/a	WORD	1015267	wordpools/wasnorm_wordpool_576.txt	LTP384	ltpFR2	0	1	BASEMENT	94	n/a	n/a	0	0	0
498.4345703125	n/a	WORD	1020794	wordpools/wasnorm_wordpool_576.txt	LTP384	ltpFR2	0	1	CHIPMUNK	304	n/a	n/a	0	0	0
500.9853515625	n/a	WORD	1026018	wordpools/wasnorm_wordpool_576.txt	LTP384	ltpFR2	0	1	TUTU	1524	n/a	n/a	0	0	0
503.552734375	n/a	WORD	1031276	wordpools/wasnorm_wordpool_576.txt	LTP384	ltpFR2	0	1	POSTAGE	1113	n/a	n/a	0	0	0
506.234375	n/a	WORD	1036768	wordpools/wasnorm_wordpool_576.txt	LTP384	ltpFR2	0	1	MUMMY	932	n/a	n/a	0	0	0
508.83544921875	n/a	WORD	1042095	wordpools/wasnorm_wordpool_576.txt	LTP384	ltpFR2	0	1	MATTRESS	879	n/a	n/a	0	0	0
511.568359375	n/a	WORD	1047692	wordpools/wasnorm_wordpool_576.txt	LTP384	ltpFR2	0	1	FOOTBALL	591	n/a	n/a	0	0	0
514.18408203125	n/a	WORD	1053049	wordpools/wasnorm_wordpool_576.txt	LTP384	ltpFR2	0	1	CASHEW	253	n/a	n/a	0	0	0
516.81787109375	n/a	WORD	1058443	wordpools/wasnorm_wordpool_576.txt	LTP384	ltpFR2	0	1	BACKBONE	66	n/a	n/a	0	0	0
519.451171875	n/a	WORD	1063836	wordpools/wasnorm_wordpool_576.txt	LTP384	ltpFR2	0	1	SOFTBALL	1343	n/a	n/a	0	0	0
522.1181640625	n/a	WORD	1069298	wordpools/wasnorm_wordpool_576.txt	LTP384	ltpFR2	0	1	COMPASS	358	n/a	n/a	0	0	0
524.81787109375	n/a	WORD	1074827	wordpools/wasnorm_wordpool_576.txt	LTP384	ltpFR2	0	1	ATLAS	53	n/a	n/a	0	0	0
527.5009765625	n/a	WORD	1080322	wordpools/wasnorm_wordpool_576.txt	LTP384	ltpFR2	0	1	COUNTY	389	n/a	n/a	0	0	0
529.95166015625	n/a	WORD	1085341	wordpools/wasnorm_wordpool_576.txt	LTP384	ltpFR2	0	1	COUNTRY	388	n/a	n/a	0	0	0
532.5673828125	n/a	WORD	1090698	wordpools/wasnorm_wordpool_576.txt	LTP384	ltpFR2	0	1	ASIA	46	n/a	n/a	0	0	0
535.2333984375	n/a	WORD	1096158	wordpools/wasnorm_wordpool_576.txt	LTP384	ltpFR2	0	1	VIRUS	1572	n/a	n/a	0	0	0
537.734375	n/a	WORD	1101280	wordpools/wasnorm_wordpool_576.txt	LTP384	ltpFR2	0	1	LASER	801	n/a	n/a	0	0	0
540.44921875	n/a	WORD	1106840	wordpools/wasnorm_wordpool_576.txt	LTP384	ltpFR2	0	1	POCKET	1093	n/a	n/a	0	0	0
542.93408203125	n/a	WORD	1111929	wordpools/wasnorm_wordpool_576.txt	LTP384	ltpFR2	0	1	SHORTS	1293	n/a	n/a	0	0	0
545.6669921875	n/a	WORD	1117526	wordpools/wasnorm_wordpool_576.txt	LTP384	ltpFR2	0	1	BEAST	108	n/a	n/a	0	0	0
548.283203125	n/a	WORD	1122884	wordpools/wasnorm_wordpool_576.txt	LTP384	ltpFR2	0	1	PACKAGE	997	n/a	n/a	0	0	0
551.0	n/a	WORD	1128448	wordpools/wasnorm_wordpool_576.txt	LTP384	ltpFR2	0	1	CROWN	415	n/a	n/a	0	0	0
553.44873046875	n/a	WORD	1133463	wordpools/wasnorm_wordpool_576.txt	LTP384	ltpFR2	0	1	BRANDY	169	n/a	n/a	0	0	0
555.98291015625	n/a	WORD	1138653	wordpools/wasnorm_wordpool_576.txt	LTP384	ltpFR2	0	1	PISTOL	1075	n/a	n/a	0	0	0
557.599609375	n/a	START	1141964	n/a	LTP384	ltpFR2	0	n/a	n/a	n/a	2	n/a	n/a	n/a	n/a
558.40185546875	n/a	DISTRACTOR	1143607	n/a	LTP384	ltpFR2	0	1	n/a	n/a	n/a	n/a	0	0	0
558.416015625	n/a	PROB	1143636	n/a	LTP384	ltpFR2	0	n/a	n/a	n/a	2	10	2	1	7
562.31591796875	n/a	PROB	1151623	n/a	LTP384	ltpFR2	0	n/a	n/a	n/a	2	12	2	2	8
566.38134765625	n/a	PROB	1159949	n/a	LTP384	ltpFR2	0	n/a	n/a	n/a	2	14	7	4	3
569.71630859375	n/a	PROB	1166779	n/a	LTP384	ltpFR2	0	n/a	n/a	n/a	2	13	4	7	2
572.94921875	n/a	PROB	1173400	n/a	LTP384	ltpFR2	0	n/a	n/a	n/a	2	17	6	3	8
580.533203125	n/a	STOP	1188932	n/a	LTP384	ltpFR2	0	n/a	n/a	n/a	2	n/a	n/a	n/a	n/a
583.4482421875	n/a	REC_START	1194902	n/a	LTP384	ltpFR2	0	1	n/a	n/a	n/a	n/a	0	0	0
592.7255859375	n/a	REC_WORD_VV	1213902	wordpools/wasnorm_wordpool_576.txt	LTP384	ltpFR2	0	1	<>	-1	n/a	n/a	0	0	0
593.71484375	n/a	REC_WORD	1215928	wordpools/wasnorm_wordpool_576.txt	LTP384	ltpFR2	0	1	CHIPMUNK	304	n/a	n/a	0	0	0
594.470703125	n/a	REC_WORD	1217476	wordpools/wasnorm_wordpool_576.txt	LTP384	ltpFR2	0	1	BASEMENT	94	n/a	n/a	0	0	0
595.1865234375	n/a	REC_WORD	1218942	wordpools/wasnorm_wordpool_576.txt	LTP384	ltpFR2	0	1	TUTU	1524	n/a	n/a	0	0	0
597.443359375	n/a	REC_WORD_VV	1223564	wordpools/wasnorm_wordpool_576.txt	LTP384	ltpFR2	0	1	<>	-1	n/a	n/a	0	0	0
597.87744140625	n/a	REC_WORD_VV	1224453	wordpools/wasnorm_wordpool_576.txt	LTP384	ltpFR2	0	1	<>	-1	n/a	n/a	0	0	0
598.16943359375	n/a	REC_WORD	1225051	wordpools/wasnorm_wordpool_576.txt	LTP384	ltpFR2	0	1	FOOTBALL	591	n/a	n/a	0	0	0
598.91357421875	n/a	REC_WORD	1226575	wordpools/wasnorm_wordpool_576.txt	LTP384	ltpFR2	0	1	COUNTRY	388	n/a	n/a	0	0	0
599.6123046875	n/a	REC_WORD	1228006	wordpools/wasnorm_wordpool_576.txt	LTP384	ltpFR2	0	1	COUNTY	389	n/a	n/a	0	0	0
600.5693359375	n/a	REC_WORD	1229966	wordpools/wasnorm_wordpool_576.txt	LTP384	ltpFR2	0	1	ASIA	46	n/a	n/a	0	0	0
604.349609375	n/a	REC_WORD	1237708	wordpools/wasnorm_wordpool_576.txt	LTP384	ltpFR2	0	1	PACKAGE	997	n/a	n/a	0	0	0
605.369140625	n/a	REC_WORD	1239796	wordpools/wasnorm_wordpool_576.txt	LTP384	ltpFR2	0	1	POSTAGE	1113	n/a	n/a	0	0	0
611.87890625	n/a	REC_WORD	1253128	wordpools/wasnorm_wordpool_576.txt	LTP384	ltpFR2	0	1	BEAST	108	n/a	n/a	0	0	0
624.10400390625	n/a	REC_WORD	1278165	wordpools/wasnorm_wordpool_576.txt	LTP384	ltpFR2	0	1	ATLAS	53	n/a	n/a	0	0	0
632.095703125	n/a	REC_WORD	1294532	wordpools/wasnorm_wordpool_576.txt	LTP384	ltpFR2	0	1	CROWN	415	n/a	n/a	0	0	0
633.08056640625	n/a	REC_WORD	1296549	wordpools/wasnorm_wordpool_576.txt	LTP384	ltpFR2	0	1	BRANDY	169	n/a	n/a	0	0	0
637.26220703125	n/a	REC_WORD	1305113	wordpools/wasnorm_wordpool_576.txt	LTP384	ltpFR2	0	1	CASHEW	253	n/a	n/a	0	0	0
699.09326171875	n/a	WORD	1431743	wordpools/wasnorm_wordpool_576.txt	LTP384	ltpFR2	0	2	CRATER	400	n/a	n/a	0	0	0
701.62646484375	n/a	WORD	1436931	wordpools/wasnorm_wordpool_576.txt	LTP384	ltpFR2	0	2	LIGHTNING	820	n/a	n/a	0	0	0
704.2421875	n/a	WORD	1442288	wordpools/wasnorm_wordpool_576.txt	LTP384	ltpFR2	0	2	WAGON	1578	n/a	n/a	0	0	0
706.6591796875	n/a	WORD	1447238	wordpools/wasnorm_wordpool_576.txt	LTP384	ltpFR2	0	2	BARLEY	88	n/a	n/a	0	0	0
709.25830078125	n/a	WORD	1452561	wordpools/wasnorm_wordpool_576.txt	LTP384	ltpFR2	0	2	SCARF	1246	n/a	n/a	0	0	0
711.72607421875	n/a	WORD	1457615	wordpools/wasnorm_wordpool_576.txt	LTP384	ltpFR2	0	2	VIKING	1565	n/a	n/a	0	0	0
714.5078125	n/a	WORD	1463312	wordpools/wasnorm_wordpool_576.txt	LTP384	ltpFR2	0	2	JUGGLER	763	n/a	n/a	0	0	0
717.15869140625	n/a	WORD	1468741	wordpools/wasnorm_wordpool_576.txt	LTP384	ltpFR2	0	2	BALLOON	75	n/a	n/a	0	0	0
719.8427734375	n/a	WORD	1474238	wordpools/wasnorm_wordpool_576.txt	LTP384	ltpFR2	0	2	RECEIPT	1173	n/a	n/a	0	0	0
722.29150390625	n/a	WORD	1479253	wordpools/wasnorm_wordpool_576.txt	LTP384	ltpFR2	0	2	CITRUS	313	n/a	n/a	0	0	0
724.9755859375	n/a	WORD	1484750	wordpools/wasnorm_wordpool_576.txt	LTP384	ltpFR2	0	2	LADDER	793	n/a	n/a	0	0	0
727.54150390625	n/a	WORD	1490005	wordpools/wasnorm_wordpool_576.txt	LTP384	ltpFR2	0	2	ANKLE	24	n/a	n/a	0	0	0
730.00830078125	n/a	WORD	1495057	wordpools/wasnorm_wordpool_576.txt	LTP384	ltpFR2	0	2	CARROT	249	n/a	n/a	0	0	0
732.7412109375	n/a	WORD	1500654	wordpools/wasnorm_wordpool_576.txt	LTP384	ltpFR2	0	2	MISSILE	900	n/a	n/a	0	0	0
735.54150390625	n/a	WORD	1506389	wordpools/wasnorm_wordpool_576.txt	LTP384	ltpFR2	0	2	ROCKET	1202	n/a	n/a	0	0	0
738.22412109375	n/a	WORD	1511883	wordpools/wasnorm_wordpool_576.txt	LTP384	ltpFR2	0	2	ITEM	746	n/a	n/a	0	0	0
740.72509765625	n/a	WORD	1517005	wordpools/wasnorm_wordpool_576.txt	LTP384	ltpFR2	0	2	BURGLAR	200	n/a	n/a	0	0	0
743.45703125	n/a	WORD	1522600	wordpools/wasnorm_wordpool_576.txt	LTP384	ltpFR2	0	2	WINDOW	1611	n/a	n/a	0	0	0
746.041015625	n/a	WORD	1527892	wordpools/wasnorm_wordpool_576.txt	LTP384	ltpFR2	0	2	STOMACH	1384	n/a	n/a	0	0	0
748.791015625	n/a	WORD	1533524	wordpools/wasnorm_wordpool_576.txt	LTP384	ltpFR2	0	2	BELLY	119	n/a	n/a	0	0	0
751.45703125	n/a	WORD	1538984	wordpools/wasnorm_wordpool_576.txt	LTP384	ltpFR2	0	2	OMELET	976	n/a	n/a	0	0	0
754.12353515625	n/a	WORD	1544445	wordpools/wasnorm_wordpool_576.txt	LTP384	ltpFR2	0	2	YACHT	1629	n/a	n/a	0	0	0
756.90771484375	n/a	WORD	1550147	wordpools/wasnorm_wordpool_576.txt	LTP384	ltpFR2	0	2	SKILLET	1317	n/a	n/a	0	0	0
759.42236328125	n/a	WORD	1555297	wordpools/wasnorm_wordpool_576.txt	LTP384	ltpFR2	0	2	GARDEN	623	n/a	n/a	0	0	0
761.0244140625	n/a	START	1558578	n/a	LTP384	ltpFR2	0	n/a	n/a	n/a	3	n/a	n/a	n/a	n/a
761.9697265625	n/a	DISTRACTOR	1560514	n/a	LTP384	ltpFR2	0	2	n/a	n/a	n/a	n/a	0	0	0
761.9736328125	n/a	PROB	1560522	n/a	LTP384	ltpFR2	0	n/a	n/a	n/a	3	15	8	1	6
765.5576171875	n/a	PROB	1567862	n/a	LTP384	ltpFR2	0	n/a	n/a	n/a	3	13	3	5	5
768.7734375	n/a	PROB	1574448	n/a	LTP384	ltpFR2	0	n/a	n/a	n/a	3	19	8	4	7
774.65625	n/a	PROB	1586496	n/a	LTP384	ltpFR2	0	n/a	n/a	n/a	3	13	1	6	6
776.93994140625	n/a	PROB	1591173	n/a	LTP384	ltpFR2	0	n/a	n/a	n/a	3	19	1	9	9
779.38916015625	n/a	PROB	1596189	n/a	LTP384	ltpFR2	0	n/a	n/a	n/a	3	13	9	3	1
781.8056640625	n/a	PROB	1601138	n/a	LTP384	ltpFR2	0	n/a	n/a	n/a	3	9	1	4	4
783.6689453125	n/a	STOP	1604954	n/a	LTP384	ltpFR2	0	n/a	n/a	n/a	3	n/a	n/a	n/a	n/a
786.8896484375	n/a	REC_START	1611550	n/a	LTP384	ltpFR2	0	2	n/a	n/a	n/a	n/a	0	0	0
788.49267578125	n/a	REC_WORD	1614833	wordpools/wasnorm_wordpool_576.txt	LTP384	ltpFR2	0	2	BURGLAR	200	n/a	n/a	0	0	0
790.07861328125	n/a	REC_WORD	1618081	wordpools/wasnorm_wordpool_576.txt	LTP384	ltpFR2	0	2	STOMACH	1384	n/a	n/a	0	0	0
791.216796875	n/a	REC_WORD	1620412	wordpools/wasnorm_wordpool_576.txt	LTP384	ltpFR2	0	2	BELLY	119	n/a	n/a	0	0	0
792.29150390625	n/a	REC_WORD	1622613	wordpools/wasnorm_wordpool_576.txt	LTP384	ltpFR2	0	2	YACHT	1629	n/a	n/a	0	0	0
793.49462890625	n/a	REC_WORD	1625077	wordpools/wasnorm_wordpool_576.txt	LTP384	ltpFR2	0	2	WAGON	1578	n/a	n/a	0	0	0
794.638671875	n/a	REC_WORD	1627420	wordpools/wasnorm_wordpool_576.txt	LTP384	ltpFR2	0	2	CRATER	400	n/a	n/a	0	0	0
795.8232421875	n/a	REC_WORD	1629846	wordpools/wasnorm_wordpool_576.txt	LTP384	ltpFR2	0	2	SCARF	1246	n/a	n/a	0	0	0
797.13427734375	n/a	REC_WORD	1632531	wordpools/wasnorm_wordpool_576.txt	LTP384	ltpFR2	0	2	VIKING	1565	n/a	n/a	0	0	0
798.5771484375	n/a	REC_WORD	1635486	wordpools/wasnorm_wordpool_576.txt	LTP384	ltpFR2	0	2	ITEM	746	n/a	n/a	0	0	0
826.57470703125	n/a	REC_WORD	1692825	wordpools/wasnorm_wordpool_576.txt	LTP384	ltpFR2	0	2	WINDOW	1611	n/a	n/a	0	0	0
828.16064453125	n/a	REC_WORD	1696073	wordpools/wasnorm_wordpool_576.txt	LTP384	ltpFR2	0	2	LADDER	793	n/a	n/a	0	0	0
829.86328125	n/a	REC_WORD	1699560	wordpools/wasnorm_wordpool_576.txt	LTP384	ltpFR2	0	2	BARLEY	88	n/a	n/a	0	0	0
853.6728515625	n/a	REC_WORD	1748322	wordpools/wasnorm_wordpool_576.txt	LTP384	ltpFR2	0	2	JUGGLER	763	n/a	n/a	0	0	0
854.9375	n/a	REC_WORD	1750912	wordpools/wasnorm_wordpool_576.txt	LTP384	ltpFR2	0	2	BALLOON	75	n/a	n/a	0	0	0
877.35107421875	n/a	WORD	1796815	wordpools/wasnorm_wordpool_576.txt	LTP384	ltpFR2	0	3	JAPAN	749	n/a	n/a	0	0	0
880.134765625	n/a	WORD	1802516	wordpools/wasnorm_wordpool_576.txt	LTP384	ltpFR2	0	3	CLAM	315	n/a	n/a	0	0	0
882.7177734375	n/a	WORD	1807806	wordpools/wasnorm_wordpool_576.txt	LTP384	ltpFR2	0	3	DIME	466	n/a	n/a	0	0	0
885.23388671875	n/a	WORD	1812959	wordpools/wasnorm_wordpool_576.txt	LTP384	ltpFR2	0	3	TREAT	1501	n/a	n/a	0	0	0
887.7177734375	n/a	WORD	1818046	wordpools/wasnorm_wordpool_576.txt	LTP384	ltpFR2	0	3	SHRUB	1299	n/a	n/a	0	0	0
890.30029296875	n/a	WORD	1823335	wordpools/wasnorm_wordpool_576.txt	LTP384	ltpFR2	0	3	LEADER	807	n/a	n/a	0	0	0
892.95166015625	n/a	WORD	1828765	wordpools/wasnorm_wordpool_576.txt	LTP384	ltpFR2	0	3	SKETCH	1315	n/a	n/a	0	0	0
895.5341796875	n/a	WORD	1834054	wordpools/wasnorm_wordpool_576.txt	LTP384	ltpFR2	0	3	COLONEL	348	n/a	n/a	0	0	0
898.0341796875	n/a	WORD	1839174	wordpools/wasnorm_wordpool_576.txt	LTP384	ltpFR2	0	3	HEDGE	699	n/a	n/a	0	0	0
900.68408203125	n/a	WORD	1844601	wordpools/wasnorm_wordpool_576.txt	LTP384	ltpFR2	0	3	FOREHEAD	592	n/a	n/a	0	0	0
903.39990234375	n/a	WORD	1850163	wordpools/wasnorm_wordpool_576.txt	LTP384	ltpFR2	0	3	POET	1095	n/a	n/a	0	0	0
905.93408203125	n/a	WORD	1855353	wordpools/wasnorm_wordpool_576.txt	LTP384	ltpFR2	0	3	HARP	689	n/a	n/a	0	0	0
908.416015625	n/a	WORD	1860436	wordpools/wasnorm_wordpool_576.txt	LTP384	ltpFR2	0	3	TWEEZERS	1526	n/a	n/a	0	0	0
911.0498046875	n/a	WORD	1865830	wordpools/wasnorm_wordpool_576.txt	LTP384	ltpFR2	0	3	HANDBAG	684	n/a	n/a	0	0	0
913.78369140625	n/a	WORD	1871429	wordpools/wasnorm_wordpool_576.txt	LTP384	ltpFR2	0	3	BANJO	82	n/a	n/a	0	0	0
916.599609375	n/a	WORD	1877196	wordpools/wasnorm_wordpool_576.txt	LTP384	ltpFR2	0	3	GLASS	639	n/a	n/a	0	0	0
919.06640625	n/a	WORD	1882248	wordpools/wasnorm_wordpool_576.txt	LTP384	ltpFR2	0	3	BLACKBOARD	133	n/a	n/a	0	0	0
921.74951171875	n/a	WORD	1887743	wordpools/wasnorm_wordpool_576.txt	LTP384	ltpFR2	0	3	RELISH	1183	n/a	n/a	0	0	0
924.3486328125	n/a	WORD	1893066	wordpools/wasnorm_wordpool_576.txt	LTP384	ltpFR2	0	3	LUNCH	849	n/a	n/a	0	0	0
926.7666015625	n/a	WORD	1898018	wordpools/wasnorm_wordpool_576.txt	LTP384	ltpFR2	0	3	ORANGE	980	n/a	n/a	0	0	0
929.28125	n/a	WORD	1903168	wordpools/wasnorm_wordpool_576.txt	LTP384	ltpFR2	0	3	FRUIT	610	n/a	n/a	0	0	0
932.0322265625	n/a	WORD	1908802	wordpools/wasnorm_wordpool_576.txt	LTP384	ltpFR2	0	3	NECKLACE	940	n/a	n/a	0	0	0
934.666015625	n/a	WORD	1914196	wordpools/wasnorm_wordpool_576.txt	LTP384	ltpFR2	0	3	MEDAL	885	n/a	n/a	0	0	0
937.43115234375	n/a	WORD	1919859	wordpools/wasnorm_wordpool_576.txt	LTP384	ltpFR2	0	3	HOSTESS	723	n/a	n/a	0	0	0
939.033203125	n/a	START	1923140	n/a	LTP384	ltpFR2	0	n/a	n/a	n/a	4	n/a	n/a	n/a	n/a
940.18798828125	n/a	DISTRACTOR	1925505	n/a	LTP384	ltpFR2	0	3	n/a	n/a	n/a	n/a	0	0	0
940.19775390625	n/a	PROB	1925525	n/a	LTP384	ltpFR2	0	n/a	n/a	n/a	4	16	9	3	4
943.9150390625	n/a	PROB	1933138	n/a	LTP384	ltpFR2	0	n/a	n/a	n/a	4	10	8	1	1
945.86572265625	n/a	PROB	1937133	n/a	LTP384	ltpFR2	0	n/a	n/a	n/a	4	11	1	8	2
947.7158203125	n/a	PROB	1940922	n/a	LTP384	ltpFR2	0	n/a	n/a	n/a	4	11	7	1	3
949.56494140625	n/a	PROB	1944709	n/a	LTP384	ltpFR2	0	n/a	n/a	n/a	4	13	3	2	8
951.74853515625	n/a	PROB	1949181	n/a	LTP384	ltpFR2	0	n/a	n/a	n/a	4	8	3	2	3
953.8984375	n/a	PROB	1953584	n/a	LTP384	ltpFR2	0	n/a	n/a	n/a	4	12	6	3	3
955.69873046875	n/a	PROB	1957271	n/a	LTP384	ltpFR2	0	n/a	n/a	n/a	4	15	5	7	3
957.564453125	n/a	PROB	1961092	n/a	LTP384	ltpFR2	0	n/a	n/a	n/a	4	19	9	4	6
963.0322265625	n/a	STOP	1972290	n/a	LTP384	ltpFR2	0	n/a	n/a	n/a	4	n/a	n/a	n/a	n/a
964.93115234375	n/a	REC_START	1976179	n/a	LTP384	ltpFR2	0	3	n/a	n/a	n/a	n/a	0	0	0
965.8173828125	n/a	REC_WORD	1977994	wordpools/wasnorm_wordpool_576.txt	LTP384	ltpFR2	0	3	CLAM	315	n/a	n/a	0	0	0
966.85498046875	n/a	REC_WORD	1980119	wordpools/wasnorm_wordpool_576.txt	LTP384	ltpFR2	0	3	JAPAN	749	n/a	n/a	0	0	0
968.09716796875	n/a	REC_WORD	1982663	wordpools/wasnorm_wordpool_576.txt	LTP384	ltpFR2	0	3	DIME	466	n/a	n/a	0	0	0
969.5390625	n/a	REC_WORD	1985616	wordpools/wasnorm_wordpool_576.txt	LTP384	ltpFR2	0	3	NECKLACE	940	n/a	n/a	0	0	0
973.48388671875	n/a	REC_WORD	1993695	wordpools/wasnorm_wordpool_576.txt	LTP384	ltpFR2	0	3	TREAT	1501	n/a	n/a	0	0	0
975.373046875	n/a	REC_WORD	1997564	wordpools/wasnorm_wordpool_576.txt	LTP384	ltpFR2	0	3	ORANGE	980	n/a	n/a	0	0	0
976.505859375	n/a	REC_WORD	1999884	wordpools/wasnorm_wordpool_576.txt	LTP384	ltpFR2	0	3	RELISH	1183	n/a	n/a	0	0	0
978.19580078125	n/a	REC_WORD	2003345	wordpools/wasnorm_wordpool_576.txt	LTP384	ltpFR2	0	3	LUNCH	849	n/a	n/a	0	0	0
987.0234375	n/a	REC_WORD	2021424	wordpools/wasnorm_wordpool_576.txt	LTP384	ltpFR2	0	3	LEADER	807	n/a	n/a	0	0	0
993.5615234375	n/a	REC_WORD	2034814	wordpools/wasnorm_wordpool_576.txt	LTP384	ltpFR2	0	3	SHRUB	1299	n/a	n/a	0	0	0
997.51025390625	n/a	REC_WORD	2042901	wordpools/wasnorm_wordpool_576.txt	LTP384	ltpFR2	0	3	BANJO	82	n/a	n/a	0	0	0
1024.0654296875	n/a	REC_WORD	2097286	wordpools/wasnorm_wordpool_576.txt	LTP384	ltpFR2	0	3	HOSTESS	723	n/a	n/a	0	0	0
1028.29248046875	n/a	REC_WORD	2105943	wordpools/wasnorm_wordpool_576.txt	LTP384	ltpFR2	0	3	COLONEL	348	n/a	n/a	0	0	0
1055.392578125	n/a	DISTRACTOR	2161444	n/a	LTP384	ltpFR2	0	4	n/a	n/a	n/a	n/a	0	0	0
1055.392578125	n/a	START	2161444	n/a	LTP384	ltpFR2	0	n/a	n/a	n/a	5	n/a	n/a	n/a	n/a
1055.40966796875	n/a	PROB	2161479	n/a	LTP384	ltpFR2	0	n/a	n/a	n/a	5	15	2	5	8
1060.1923828125	n/a	PROB	2171274	n/a	LTP384	ltpFR2	0	n/a	n/a	n/a	5	12	3	5	4
1063.6259765625	n/a	PROB	2178306	n/a	LTP384	ltpFR2	0	n/a	n/a	n/a	5	20	5	9	6
1066.60986328125	n/a	PROB	2184417	n/a	LTP384	ltpFR2	0	n/a	n/a	n/a	5	10	5	1	2
1070.375	n/a	PROB	2192128	n/a	LTP384	ltpFR2	0	n/a	n/a	n/a	5	6	2	3	1
1073.27490234375	n/a	PROB	2198067	n/a	LTP384	ltpFR2	0	n/a	n/a	n/a	5	13	8	2	3
1075.07568359375	n/a	PROB	2201755	n/a	LTP384	ltpFR2	0	n/a	n/a	n/a	5	20	6	9	5
1079.30859375	n/a	STOP	2210424	n/a	LTP384	ltpFR2	0	n/a	n/a	n/a	5	n/a	n/a	n/a	n/a
1080.3076171875	n/a	WORD	2212470	wordpools/wasnorm_wordpool_576.txt	LTP384	ltpFR2	0	4	PEBBLE	1035	n/a	n/a	0	0	0
1082.8583984375	n/a	WORD	2217694	wordpools/wasnorm_wordpool_576.txt	LTP384	ltpFR2	0	4	GLOBE	641	n/a	n/a	0	0	0
1085.3916015625	n/a	WORD	2222882	wordpools/wasnorm_wordpool_576.txt	LTP384	ltpFR2	0	4	STAMP	1370	n/a	n/a	0	0	0
1087.9921875	n/a	WORD	2228208	wordpools/wasnorm_wordpool_576.txt	LTP384	ltpFR2	0	4	MAILBOX	857	n/a	n/a	0	0	0
1090.775390625	n/a	WORD	2233908	wordpools/wasnorm_wordpool_576.txt	LTP384	ltpFR2	0	4	PLUTO	1092	n/a	n/a	0	0	0
1093.34130859375	n/a	WORD	2239163	wordpools/wasnorm_wordpool_576.txt	LTP384	ltpFR2	0	4	PADDLE	1000	n/a	n/a	0	0	0
1095.92529296875	n/a	WORD	2244455	wordpools/wasnorm_wordpool_576.txt	LTP384	ltpFR2	0	4	WAITRESS	1581	n/a	n/a	0	0	0
1098.69091796875	n/a	WORD	2250119	wordpools/wasnorm_wordpool_576.txt	LTP384	ltpFR2	0	4	GANGSTER	620	n/a	n/a	0	0	0
1101.39013671875	n/a	WORD	2255647	wordpools/wasnorm_wordpool_576.txt	LTP384	ltpFR2	0	4	PICNIC	1060	n/a	n/a	0	0	0
1103.9580078125	n/a	WORD	2260906	wordpools/wasnorm_wordpool_576.txt	LTP384	ltpFR2	0	4	SHOULDER	1294	n/a	n/a	0	0	0
1106.5576171875	n/a	WORD	2266230	wordpools/wasnorm_wordpool_576.txt	LTP384	ltpFR2	0	4	COFFEE	341	n/a	n/a	0	0	0
1109.2236328125	n/a	WORD	2271690	wordpools/wasnorm_wordpool_576.txt	LTP384	ltpFR2	0	4	HERO	706	n/a	n/a	0	0	0
1111.90771484375	n/a	WORD	2277187	wordpools/wasnorm_wordpool_576.txt	LTP384	ltpFR2	0	4	MOTEL	919	n/a	n/a	0	0	0
1114.48974609375	n/a	WORD	2282475	wordpools/wasnorm_wordpool_576.txt	LTP384	ltpFR2	0	4	ARMY	39	n/a	n/a	0	0	0
1117.0244140625	n/a	WORD	2287666	wordpools/wasnorm_wordpool_576.txt	LTP384	ltpFR2	0	4	BINDER	127	n/a	n/a	0	0	0
1119.67333984375	n/a	WORD	2293091	wordpools/wasnorm_wordpool_576.txt	LTP384	ltpFR2	0	4	CUPBOARD	425	n/a	n/a	0	0	0
1122.15625	n/a	WORD	2298176	wordpools/wasnorm_wordpool_576.txt	LTP384	ltpFR2	0	4	RABBIT	1152	n/a	n/a	0	0	0
1124.9404296875	n/a	WORD	2303878	wordpools/wasnorm_wordpool_576.txt	LTP384	ltpFR2	0	4	MISTER	901	n/a	n/a	0	0	0
1127.38916015625	n/a	WORD	2308893	wordpools/wasnorm_wordpool_576.txt	LTP384	ltpFR2	0	4	BRICK	172	n/a	n/a	0	0	0
1130.18896484375	n/a	WORD	2314627	wordpools/wasnorm_wordpool_576.txt	LTP384	ltpFR2	0	4	KEEPER	769	n/a	n/a	0	0	0
1132.623046875	n/a	WORD	2319612	wordpools/wasnorm_wordpool_576.txt	LTP384	ltpFR2	0	4	SHELTER	1282	n/a	n/a	0	0	0
1135.38916015625	n/a	WORD	2325277	wordpools/wasnorm_wordpool_576.txt	LTP384	ltpFR2	0	4	COBRA	336	n/a	n/a	0	0	0
1137.93994140625	n/a	WORD	2330501	wordpools/wasnorm_wordpool_576.txt	LTP384	ltpFR2	0	4	SLIDE	1326	n/a	n/a	0	0	0
1140.6728515625	n/a	WORD	2336098	wordpools/wasnorm_wordpool_576.txt	LTP384	ltpFR2	0	4	LODGE	839	n/a	n/a	0	0	0
1142.28857421875	n/a	START	2339407	n/a	LTP384	ltpFR2	0	n/a	n/a	n/a	6	n/a	n/a	n/a	n/a
1143.298828125	n/a	DISTRACTOR	2341476	n/a	LTP384	ltpFR2	0	4	n/a	n/a	n/a	n/a	0	0	0
1143.3046875	n/a	PROB	2341488	n/a	LTP384	ltpFR2	0	n/a	n/a	n/a	6	24	7	8	9
1149.404296875	n/a	PROB	2353980	n/a	LTP384	ltpFR2	0	n/a	n/a	n/a	6	10	2	2	6
1151.5224609375	n/a	PROB	2358318	n/a	LTP384	ltpFR2	0	n/a	n/a	n/a	6	10	4	5	1
1153.404296875	n/a	PROB	2362172	n/a	LTP384	ltpFR2	0	n/a	n/a	n/a	6	17	9	6	2
1156.404296875	n/a	PROB	2368316	n/a	LTP384	ltpFR2	0	n/a	n/a	n/a	6	17	6	4	7
1158.47119140625	n/a	PROB	2372549	n/a	LTP384	ltpFR2	0	n/a	n/a	n/a	6	13	1	3	9
1160.67236328125	n/a	PROB	2377057	n/a	LTP384	ltpFR2	0	n/a	n/a	n/a	6	14	7	2	5
1163.3212890625	n/a	PROB	2382482	n/a	LTP384	ltpFR2	0	n/a	n/a	n/a	6	19	8	3	8
1165.98876953125	n/a	STOP	2387945	n/a	LTP384	ltpFR2	0	n/a	n/a	n/a	6	n/a	n/a	n/a	n/a
1168.1708984375	n/a	REC_START	2392414	n/a	LTP384	ltpFR2	0	4	n/a	n/a	n/a	n/a	0	0	0
1168.77783203125	n/a	REC_WORD	2393657	wordpools/wasnorm_wordpool_576.txt	LTP384	ltpFR2	0	4	PEBBLE	1035	n/a	n/a	0	0	0
1170.15966796875	n/a	REC_WORD	2396487	wordpools/wasnorm_wordpool_576.txt	LTP384	ltpFR2	0	4	STAMP	1370	n/a	n/a	0	0	0
1171.19091796875	n/a	REC_WORD	2398599	wordpools/wasnorm_wordpool_576.txt	LTP384	ltpFR2	0	4	MAILBOX	857	n/a	n/a	0	0	0
1172.751953125	n/a	REC_WORD	2401796	wordpools/wasnorm_wordpool_576.txt	LTP384	ltpFR2	0	4	COBRA	336	n/a	n/a	0	0	0
1174.69189453125	n/a	REC_WORD	2405769	wordpools/wasnorm_wordpool_576.txt	LTP384	ltpFR2	0	4	GANGSTER	620	n/a	n/a	0	0	0
1175.94775390625	n/a	REC_WORD	2408341	wordpools/wasnorm_wordpool_576.txt	LTP384	ltpFR2	0	4	WAITRESS	1581	n/a	n/a	0	0	0
1177.03076171875	n/a	REC_WORD	2410559	wordpools/wasnorm_wordpool_576.txt	LTP384	ltpFR2	0	4	SHOULDER	1294	n/a	n/a	0	0	0
1178.29248046875	n/a	REC_WORD	2413143	wordpools/wasnorm_wordpool_576.txt	LTP384	ltpFR2	0	4	COFFEE	341	n/a	n/a	0	0	0
1179.50048828125	n/a	REC_WORD	2415617	wordpools/wasnorm_wordpool_576.txt	LTP384	ltpFR2	0	4	PICNIC	1060	n/a	n/a	0	0	0
1180.54931640625	n/a	REC_WORD	2417765	wordpools/wasnorm_wordpool_576.txt	LTP384	ltpFR2	0	4	HERO	706	n/a	n/a	0	0	0
1187.103515625	n/a	REC_WORD	2431188	wordpools/wasnorm_wordpool_576.txt	LTP384	ltpFR2	0	4	LODGE	839	n/a	n/a	0	0	0
1228.05615234375	n/a	REC_WORD	2515059	wordpools/wasnorm_wordpool_576.txt	LTP384	ltpFR2	0	4	GLOBE	641	n/a	n/a	0	0	0
1229.544921875	n/a	REC_WORD	2518108	wordpools/wasnorm_wordpool_576.txt	LTP384	ltpFR2	0	4	PLUTO	1092	n/a	n/a	0	0	0
1258.60107421875	n/a	DISTRACTOR	2577615	n/a	LTP384	ltpFR2	0	5	n/a	n/a	n/a	n/a	0	0	0
1258.60107421875	n/a	START	2577615	n/a	LTP384	ltpFR2	0	n/a	n/a	n/a	7	n/a	n/a	n/a	n/a
1258.6171875	n/a	PROB	2577648	n/a	LTP384	ltpFR2	0	n/a	n/a	n/a	7	18	9	7	2
1262.31591796875	n/a	PROB	2585223	n/a	LTP384	ltpFR2	0	n/a	n/a	n/a	7	11	1	9	9
1264.083984375	n/a	PROB	2588844	n/a	LTP384	ltpFR2	0	n/a	n/a	n/a	7	19	8	7	4
1270.31591796875	n/a	PROB	2601607	n/a	LTP384	ltpFR2	0	n/a	n/a	n/a	7	17	5	4	8
1274.8994140625	n/a	PROB	2610994	n/a	LTP384	ltpFR2	0	n/a	n/a	n/a	7	10	2	5	1
1277.16552734375	n/a	PROB	2615635	n/a	LTP384	ltpFR2	0	n/a	n/a	n/a	7	18	9	5	4
1282.6005859375	n/a	STOP	2626766	n/a	LTP384	ltpFR2	0	n/a	n/a	n/a	7	n/a	n/a	n/a	n/a
1283.6494140625	n/a	WORD	2628914	wordpools/wasnorm_wordpool_576.txt	LTP384	ltpFR2	0	5	TURTLE	1522	n/a	n/a	0	0	0
1286.4482421875	n/a	WORD	2634646	wordpools/wasnorm_wordpool_576.txt	LTP384	ltpFR2	0	5	SLUG	1329	n/a	n/a	0	0	0
1288.88330078125	n/a	WORD	2639633	wordpools/wasnorm_wordpool_576.txt	LTP384	ltpFR2	0	5	SILK	1307	n/a	n/a	0	0	0
1291.6162109375	n/a	WORD	2645230	wordpools/wasnorm_wordpool_576.txt	LTP384	ltpFR2	0	5	WORKER	1621	n/a	n/a	0	0	0
1294.1318359375	n/a	WORD	2650382	wordpools/wasnorm_wordpool_576.txt	LTP384	ltpFR2	0	5	ANTLER	29	n/a	n/a	0	0	0
1296.916015625	n/a	WORD	2656084	wordpools/wasnorm_wordpool_576.txt	LTP384	ltpFR2	0	5	PLASTER	1085	n/a	n/a	0	0	0
1299.681640625	n/a	WORD	2661748	wordpools/wasnorm_wordpool_576.txt	LTP384	ltpFR2	0	5	BEAKER	104	n/a	n/a	0	0	0
1302.24755859375	n/a	WORD	2667003	wordpools/wasnorm_wordpool_576.txt	LTP384	ltpFR2	0	5	PORK	1108	n/a	n/a	0	0	0
1305.03173828125	n/a	WORD	2672705	wordpools/wasnorm_wordpool_576.txt	LTP384	ltpFR2	0	5	GIFT	635	n/a	n/a	0	0	0
1307.798828125	n/a	WORD	2678372	wordpools/wasnorm_wordpool_576.txt	LTP384	ltpFR2	0	5	BOX	159	n/a	n/a	0	0	0
1310.28076171875	n/a	WORD	2683455	wordpools/wasnorm_wordpool_576.txt	LTP384	ltpFR2	0	5	MUSTARD	935	n/a	n/a	0	0	0
1312.78125	n/a	WORD	2688576	wordpools/wasnorm_wordpool_576.txt	LTP384	ltpFR2	0	5	BEEF	113	n/a	n/a	0	0	0
1315.447265625	n/a	WORD	2694036	wordpools/wasnorm_wordpool_576.txt	LTP384	ltpFR2	0	5	LADY	794	n/a	n/a	0	0	0
1318.21337890625	n/a	WORD	2699701	wordpools/wasnorm_wordpool_576.txt	LTP384	ltpFR2	0	5	ZEBRA	1635	n/a	n/a	0	0	0
1320.8310546875	n/a	WORD	2705062	wordpools/wasnorm_wordpool_576.txt	LTP384	ltpFR2	0	5	SNAKE	1333	n/a	n/a	0	0	0
1323.31298828125	n/a	WORD	2710145	wordpools/wasnorm_wordpool_576.txt	LTP384	ltpFR2	0	5	ISLAND	745	n/a	n/a	0	0	0
1325.76416015625	n/a	WORD	2715165	wordpools/wasnorm_wordpool_576.txt	LTP384	ltpFR2	0	5	SANDWICH	1232	n/a	n/a	0	0	0
1328.3798828125	n/a	WORD	2720522	wordpools/wasnorm_wordpool_576.txt	LTP384	ltpFR2	0	5	CHAMPAGNE	278	n/a	n/a	0	0	0
1330.86376953125	n/a	WORD	2725609	wordpools/wasnorm_wordpool_576.txt	LTP384	ltpFR2	0	5	CAFE	216	n/a	n/a	0	0	0
1333.32958984375	n/a	WORD	2730659	wordpools/wasnorm_wordpool_576.txt	LTP384	ltpFR2	0	5	OX	994	n/a	n/a	0	0	0
1336.08056640625	n/a	WORD	2736293	wordpools/wasnorm_wordpool_576.txt	LTP384	ltpFR2	0	5	PISTON	1076	n/a	n/a	0	0	0
1338.8134765625	n/a	WORD	2741890	wordpools/wasnorm_wordpool_576.txt	LTP384	ltpFR2	0	5	CABIN	211	n/a	n/a	0	0	0
1341.4794921875	n/a	WORD	2747350	wordpools/wasnorm_wordpool_576.txt	LTP384	ltpFR2	0	5	TOURIST	1488	n/a	n/a	0	0	0
1344.29541015625	n/a	WORD	2753117	wordpools/wasnorm_wordpool_576.txt	LTP384	ltpFR2	0	5	POISON	1096	n/a	n/a	0	0	0
1345.8974609375	n/a	START	2756398	n/a	LTP384	ltpFR2	0	n/a	n/a	n/a	8	n/a	n/a	n/a	n/a
1347.03759765625	n/a	DISTRACTOR	2758733	n/a	LTP384	ltpFR2	0	5	n/a	n/a	n/a	n/a	0	0	0
1347.04638671875	n/a	PROB	2758751	n/a	LTP384	ltpFR2	0	n/a	n/a	n/a	8	15	5	2	8
1349.98046875	n/a	PROB	2764760	n/a	LTP384	ltpFR2	0	n/a	n/a	n/a	8	14	5	7	2
1351.830078125	n/a	PROB	2768548	n/a	LTP384	ltpFR2	0	n/a	n/a	n/a	8	18	6	8	4
1355.162109375	n/a	PROB	2775372	n/a	LTP384	ltpFR2	0	n/a	n/a	n/a	8	11	7	3	1
1356.74609375	n/a	PROB	2778616	n/a	LTP384	ltpFR2	0	n/a	n/a	n/a	8	9	1	7	1
1358.39501953125	n/a	PROB	2781993	n/a	LTP384	ltpFR2	0	n/a	n/a	n/a	8	10	4	2	4
1362.81298828125	n/a	PROB	2791041	n/a	LTP384	ltpFR2	0	n/a	n/a	n/a	8	17	8	7	2
1365.11279296875	n/a	PROB	2795751	n/a	LTP384	ltpFR2	0	n/a	n/a	n/a	8	7	2	4	1
1367.3779296875	n/a	PROB	2800390	n/a	LTP384	ltpFR2	0	n/a	n/a	n/a	8	18	8	2	8
1369.20361328125	n/a	STOP	2804129	n/a	LTP384	ltpFR2	0	n/a	n/a	n/a	8	n/a	n/a	n/a	n/a
1371.8125	n/a	REC_START	2809472	n/a	LTP384	ltpFR2	0	5	n/a	n/a	n/a	n/a	0	0	0
1372.478515625	n/a	REC_WORD	2810836	wordpools/wasnorm_wordpool_576.txt	LTP384	ltpFR2	0	5	TURTLE	1522	n/a	n/a	0	0	0
1373.2353515625	n/a	REC_WORD	2812386	wordpools/wasnorm_wordpool_576.txt	LTP384	ltpFR2	0	5	TOURIST	1488	n/a	n/a	0	0	0
1374.4375	n/a	REC_WORD	2814848	wordpools/wasnorm_wordpool_576.txt	LTP384	ltpFR2	0	5	SLUG	1329	n/a	n/a	0	0	0
1375.5947265625	n/a	REC_WORD	2817218	wordpools/wasnorm_wordpool_576.txt	LTP384	ltpFR2	0	5	SILK	1307	n/a	n/a	0	0	0
1376.8525390625	n/a	REC_WORD	2819794	wordpools/wasnorm_wordpool_576.txt	LTP384	ltpFR2	0	5	WORKER	1621	n/a	n/a	0	0	0
1377.9736328125	n/a	REC_WORD	2822090	wordpools/wasnorm_wordpool_576.txt	LTP384	ltpFR2	0	5	BEEF	113	n/a	n/a	0	0	0
1378.986328125	n/a	REC_WORD	2824164	wordpools/wasnorm_wordpool_576.txt	LTP384	ltpFR2	0	5	PORK	1108	n/a	n/a	0	0	0
1379.95947265625	n/a	REC_WORD	2826157	wordpools/wasnorm_wordpool_576.txt	LTP384	ltpFR2	0	5	SNAKE	1333	n/a	n/a	0	0	0
1382.1982421875	n/a	REC_WORD	2830742	wordpools/wasnorm_wordpool_576.txt	LTP384	ltpFR2	0	5	ZEBRA	1635	n/a	n/a	0	0	0
1383.9375	n/a	REC_WORD	2834304	wordpools/wasnorm_wordpool_576.txt	LTP384	ltpFR2	0	5	CAFE	216	n/a	n/a	0	0	0
1385.1201171875	n/a	REC_WORD	2836726	wordpools/wasnorm_wordpool_576.txt	LTP384	ltpFR2	0	5	SANDWICH	1232	n/a	n/a	0	0	0
1386.25537109375	n/a	REC_WORD	2839051	wordpools/wasnorm_wordpool_576.txt	LTP384	ltpFR2	0	5	ISLAND	745	n/a	n/a	0	0	0
1387.13330078125	n/a	REC_WORD	2840849	wordpools/wasnorm_wordpool_576.txt	LTP384	ltpFR2	0	5	CHAMPAGNE	278	n/a	n/a	0	0	0
1462.24072265625	n/a	DISTRACTOR	2994669	n/a	LTP384	ltpFR2	0	6	n/a	n/a	n/a	n/a	0	0	0
1462.24072265625	n/a	START	2994669	n/a	LTP384	ltpFR2	0	n/a	n/a	n/a	9	n/a	n/a	n/a	n/a
1462.2568359375	n/a	PROB	2994702	n/a	LTP384	ltpFR2	0	n/a	n/a	n/a	9	10	1	6	3
1464.82470703125	n/a	PROB	2999961	n/a	LTP384	ltpFR2	0	n/a	n/a	n/a	9	12	8	2	2
1466.423828125	n/a	PROB	3003236	n/a	LTP384	ltpFR2	0	n/a	n/a	n/a	9	22	7	9	6
1480.740234375	n/a	PROB	3032556	n/a	LTP384	ltpFR2	0	n/a	n/a	n/a	9	16	6	9	1
1486.240234375	n/a	STOP	3043820	n/a	LTP384	ltpFR2	0	n/a	n/a	n/a	9	n/a	n/a	n/a	n/a
1487.30615234375	n/a	WORD	3046003	wordpools/wasnorm_wordpool_576.txt	LTP384	ltpFR2	0	6	LACE	792	n/a	n/a	0	0	0
1489.83984375	n/a	WORD	3051192	wordpools/wasnorm_wordpool_576.txt	LTP384	ltpFR2	0	6	GRIZZLY	662	n/a	n/a	0	0	0
1492.60693359375	n/a	WORD	3056859	wordpools/wasnorm_wordpool_576.txt	LTP384	ltpFR2	0	6	HELMET	702	n/a	n/a	0	0	0
1495.15576171875	n/a	WORD	3062079	wordpools/wasnorm_wordpool_576.txt	LTP384	ltpFR2	0	6	CONTRACT	368	n/a	n/a	0	0	0
1497.85693359375	n/a	WORD	3067611	wordpools/wasnorm_wordpool_576.txt	LTP384	ltpFR2	0	6	GARLIC	624	n/a	n/a	0	0	0
1500.5068359375	n/a	WORD	3073038	wordpools/wasnorm_wordpool_576.txt	LTP384	ltpFR2	0	6	BANK	83	n/a	n/a	0	0	0
1503.17138671875	n/a	WORD	3078495	wordpools/wasnorm_wordpool_576.txt	LTP384	ltpFR2	0	6	ONION	977	n/a	n/a	0	0	0
1505.62255859375	n/a	WORD	3083515	wordpools/wasnorm_wordpool_576.txt	LTP384	ltpFR2	0	6	FRIAR	605	n/a	n/a	0	0	0
1508.4384765625	n/a	WORD	3089282	wordpools/wasnorm_wordpool_576.txt	LTP384	ltpFR2	0	6	THREAD	1460	n/a	n/a	0	0	0
1511.08935546875	n/a	WORD	3094711	wordpools/wasnorm_wordpool_576.txt	LTP384	ltpFR2	0	6	YARN	1631	n/a	n/a	0	0	0
1513.7724609375	n/a	WORD	3100206	wordpools/wasnorm_wordpool_576.txt	LTP384	ltpFR2	0	6	TAXI	1438	n/a	n/a	0	0	0
1516.572265625	n/a	WORD	3105940	wordpools/wasnorm_wordpool_576.txt	LTP384	ltpFR2	0	6	RUST	1219	n/a	n/a	0	0	0
1519.154296875	n/a	WORD	3111228	wordpools/wasnorm_wordpool_576.txt	LTP384	ltpFR2	0	6	CHAUFFEUR	283	n/a	n/a	0	0	0
1521.705078125	n/a	WORD	3116452	wordpools/wasnorm_wordpool_576.txt	LTP384	ltpFR2	0	6	SPOUSE	1358	n/a	n/a	0	0	0
1524.2041015625	n/a	WORD	3121570	wordpools/wasnorm_wordpool_576.txt	LTP384	ltpFR2	0	6	NOVEL	960	n/a	n/a	0	0	0
1526.98779296875	n/a	WORD	3127271	wordpools/wasnorm_wordpool_576.txt	LTP384	ltpFR2	0	6	MOTOR	922	n/a	n/a	0	0	0
1529.52197265625	n/a	WORD	3132461	wordpools/wasnorm_wordpool_576.txt	LTP384	ltpFR2	0	6	STAR	1373	n/a	n/a	0	0	0
1531.9716796875	n/a	WORD	3137478	wordpools/wasnorm_wordpool_576.txt	LTP384	ltpFR2	0	6	PEPPER	1047	n/a	n/a	0	0	0
1534.521484375	n/a	WORD	3142700	wordpools/wasnorm_wordpool_576.txt	LTP384	ltpFR2	0	6	STATUE	1374	n/a	n/a	0	0	0
1537.08740234375	n/a	WORD	3147955	wordpools/wasnorm_wordpool_576.txt	LTP384	ltpFR2	0	6	PEDAL	1037	n/a	n/a	0	0	0
1539.67138671875	n/a	WORD	3153247	wordpools/wasnorm_wordpool_576.txt	LTP384	ltpFR2	0	6	COIN	343	n/a	n/a	0	0	0
1542.353515625	n/a	WORD	3158740	wordpools/wasnorm_wordpool_576.txt	LTP384	ltpFR2	0	6	DIVER	476	n/a	n/a	0	0	0
1544.9873046875	n/a	WORD	3164134	wordpools/wasnorm_wordpool_576.txt	LTP384	ltpFR2	0	6	PASSAGE	1019	n/a	n/a	0	0	0
1547.7041015625	n/a	WORD	3169698	wordpools/wasnorm_wordpool_576.txt	LTP384	ltpFR2	0	6	CELLAR	267	n/a	n/a	0	0	0
1549.3203125	n/a	START	3173008	n/a	LTP384	ltpFR2	0	n/a	n/a	n/a	10	n/a	n/a	n/a	n/a
1550.35595703125	n/a	DISTRACTOR	3175129	n/a	LTP384	ltpFR2	0	6	n/a	n/a	n/a	n/a	0	0	0
1550.369140625	n/a	PROB	3175156	n/a	LTP384	ltpFR2	0	n/a	n/a	n/a	10	19	4	7	8
1556.10400390625	n/a	PROB	3186901	n/a	LTP384	ltpFR2	0	n/a	n/a	n/a	10	14	9	4	1
1558.52001953125	n/a	PROB	3191849	n/a	LTP384	ltpFR2	0	n/a	n/a	n/a	10	12	7	3	2
1560.0537109375	n/a	PROB	3194990	n/a	LTP384	ltpFR2	0	n/a	n/a	n/a	10	12	6	2	4
1561.75390625	n/a	PROB	3198472	n/a	LTP384	ltpFR2	0	n/a	n/a	n/a	10	11	7	3	1
1563.3525390625	n/a	PROB	3201746	n/a	LTP384	ltpFR2	0	n/a	n/a	n/a	10	19	6	6	7
1566.58642578125	n/a	PROB	3208369	n/a	LTP384	ltpFR2	0	n/a	n/a	n/a	10	14	4	5	5
1569.00244140625	n/a	PROB	3213317	n/a	LTP384	ltpFR2	0	n/a	n/a	n/a	10	20	8	4	8
1572.0693359375	n/a	STOP	3219598	n/a	LTP384	ltpFR2	0	n/a	n/a	n/a	10	n/a	n/a	n/a	n/a
1575.103515625	n/a	REC_START	3225812	n/a	LTP384	ltpFR2	0	6	n/a	n/a	n/a	n/a	0	0	0
1578.875	n/a	REC_WORD	3233536	wordpools/wasnorm_wordpool_576.txt	LTP384	ltpFR2	0	6	CHAUFFEUR	283	n/a	n/a	0	0	0
1580.63232421875	n/a	REC_WORD	3237135	wordpools/wasnorm_wordpool_576.txt	LTP384	ltpFR2	0	6	COIN	343	n/a	n/a	0	0	0
1588.0771484375	n/a	REC_WORD	3252382	wordpools/wasnorm_wordpool_576.txt	LTP384	ltpFR2	0	6	DIVER	476	n/a	n/a	0	0	0
1594.8916015625	n/a	REC_WORD	3266338	wordpools/wasnorm_wordpool_576.txt	LTP384	ltpFR2	0	6	DICE	461	n/a	n/a	0	0	0
1596.0498046875	n/a	REC_WORD	3268710	wordpools/wasnorm_wordpool_576.txt	LTP384	ltpFR2	0	6	CAR	241	n/a	n/a	0	0	0
1602.09130859375	n/a	REC_WORD	3281083	wordpools/wasnorm_wordpool_576.txt	LTP384	ltpFR2	0	6	LACE	792	n/a	n/a	0	0	0
1603.490234375	n/a	REC_WORD	3283948	wordpools/wasnorm_wordpool_576.txt	LTP384	ltpFR2	0	6	GRIZZLY	662	n/a	n/a	0	0	0
1608.76123046875	n/a	REC_WORD	3294743	wordpools/wasnorm_wordpool_576.txt	LTP384	ltpFR2	0	6	CONTRACT	368	n/a	n/a	0	0	0
1613.30419921875	n/a	REC_WORD	3304047	wordpools/wasnorm_wordpool_576.txt	LTP384	ltpFR2	0	6	LEMON	810	n/a	n/a	0	0	0
1629.798828125	n/a	REC_WORD	3337828	wordpools/wasnorm_wordpool_576.txt	LTP384	ltpFR2	0	6	COIN	343	n/a	n/a	0	0	0
1637.51123046875	n/a	REC_WORD	3353623	wordpools/wasnorm_wordpool_576.txt	LTP384	ltpFR2	0	6	ARM	38	n/a	n/a	0	0	0
1646.0771484375	n/a	REC_WORD	3371166	wordpools/wasnorm_wordpool_576.txt	LTP384	ltpFR2	0	6	TWEEZERS	1526	n/a	n/a	0	0	0
1647.6669921875	n/a	REC_WORD	3374422	wordpools/wasnorm_wordpool_576.txt	LTP384	ltpFR2	0	6	HEAD	695	n/a	n/a	0	0	0
1665.5654296875	n/a	DISTRACTOR	3411078	n/a	LTP384	ltpFR2	0	7	n/a	n/a	n/a	n/a	0	0	0
1665.5654296875	n/a	START	3411078	n/a	LTP384	ltpFR2	0	n/a	n/a	n/a	11	n/a	n/a	n/a	n/a
1665.58154296875	n/a	PROB	3411111	n/a	LTP384	ltpFR2	0	n/a	n/a	n/a	11	11	5	3	3
1670.04833984375	n/a	PROB	3420259	n/a	LTP384	ltpFR2	0	n/a	n/a	n/a	11	13	2	8	3
1672.08154296875	n/a	PROB	3424423	n/a	LTP384	ltpFR2	0	n/a	n/a	n/a	11	17	8	5	4
1674.998046875	n/a	PROB	3430396	n/a	LTP384	ltpFR2	0	n/a	n/a	n/a	11	19	8	6	5
1680.34716796875	n/a	PROB	3441351	n/a	LTP384	ltpFR2	0	n/a	n/a	n/a	11	14	2	4	8
1682.56396484375	n/a	PROB	3445891	n/a	LTP384	ltpFR2	0	n/a	n/a	n/a	11	10	4	1	5
1685.630859375	n/a	PROB	3452172	n/a	LTP384	ltpFR2	0	n/a	n/a	n/a	11	14	4	6	4
1687.22998046875	n/a	PROB	3455447	n/a	LTP384	ltpFR2	0	n/a	n/a	n/a	11	19	5	6	8
1689.4599609375	n/a	STOP	3460014	n/a	LTP384	ltpFR2	0	n/a	n/a	n/a	11	n/a	n/a	n/a	n/a
1690.56396484375	n/a	WORD	3462275	wordpools/wasnorm_wordpool_576.txt	LTP384	ltpFR2	0	7	WASP	1593	n/a	n/a	0	0	0
1693.345703125	n/a	WORD	3467972	wordpools/wasnorm_wordpool_576.txt	LTP384	ltpFR2	0	7	SEAFOOD	1260	n/a	n/a	0	0	0
1695.896484375	n/a	WORD	3473196	wordpools/wasnorm_wordpool_576.txt	LTP384	ltpFR2	0	7	SMOG	1330	n/a	n/a	0	0	0
1698.66357421875	n/a	WORD	3478863	wordpools/wasnorm_wordpool_576.txt	LTP384	ltpFR2	0	7	CRICKET	408	n/a	n/a	0	0	0
1701.29541015625	n/a	WORD	3484253	wordpools/wasnorm_wordpool_576.txt	LTP384	ltpFR2	0	7	LUGGAGE	847	n/a	n/a	0	0	0
1704.01318359375	n/a	WORD	3489819	wordpools/wasnorm_wordpool_576.txt	LTP384	ltpFR2	0	7	BRIEFCASE	175	n/a	n/a	0	0	0
1706.73046875	n/a	WORD	3495384	wordpools/wasnorm_wordpool_576.txt	LTP384	ltpFR2	0	7	STOVE	1388	n/a	n/a	0	0	0
1709.17919921875	n/a	WORD	3500399	wordpools/wasnorm_wordpool_576.txt	LTP384	ltpFR2	0	7	BUBBLE	183	n/a	n/a	0	0	0
1711.87890625	n/a	WORD	3505928	wordpools/wasnorm_wordpool_576.txt	LTP384	ltpFR2	0	7	HATCHET	691	n/a	n/a	0	0	0
1714.51318359375	n/a	WORD	3511323	wordpools/wasnorm_wordpool_576.txt	LTP384	ltpFR2	0	7	PARROT	1015	n/a	n/a	0	0	0
1717.162109375	n/a	WORD	3516748	wordpools/wasnorm_wordpool_576.txt	LTP384	ltpFR2	0	7	LILY	821	n/a	n/a	0	0	0
1719.94580078125	n/a	WORD	3522449	wordpools/wasnorm_wordpool_576.txt	LTP384	ltpFR2	0	7	TWIG	1527	n/a	n/a	0	0	0
1722.6787109375	n/a	WORD	3528046	wordpools/wasnorm_wordpool_576.txt	LTP384	ltpFR2	0	7	FREEZER	604	n/a	n/a	0	0	0
1725.3779296875	n/a	WORD	3533574	wordpools/wasnorm_wordpool_576.txt	LTP384	ltpFR2	0	7	IGLOO	734	n/a	n/a	0	0	0
1728.0126953125	n/a	WORD	3538970	wordpools/wasnorm_wordpool_576.txt	LTP384	ltpFR2	0	7	QUAIL	1147	n/a	n/a	0	0	0
1730.8125	n/a	WORD	3544704	wordpools/wasnorm_wordpool_576.txt	LTP384	ltpFR2	0	7	COOKBOOK	373	n/a	n/a	0	0	0
1733.49560546875	n/a	WORD	3550199	wordpools/wasnorm_wordpool_576.txt	LTP384	ltpFR2	0	7	HAMPER	682	n/a	n/a	0	0	0
1735.92822265625	n/a	WORD	3555181	wordpools/wasnorm_wordpool_576.txt	LTP384	ltpFR2	0	7	LUMBER	848	n/a	n/a	0	0	0
1738.67822265625	n/a	WORD	3560813	wordpools/wasnorm_wordpool_576.txt	LTP384	ltpFR2	0	7	JOURNAL	760	n/a	n/a	0	0	0
1741.17724609375	n/a	WORD	3565931	wordpools/wasnorm_wordpool_576.txt	LTP384	ltpFR2	0	7	MESSAGE	888	n/a	n/a	0	0	0
1743.9453125	n/a	WORD	3571600	wordpools/wasnorm_wordpool_576.txt	LTP384	ltpFR2	0	7	LAVA	804	n/a	n/a	0	0	0
1746.47705078125	n/a	WORD	3576785	wordpools/wasnorm_wordpool_576.txt	LTP384	ltpFR2	0	7	PARENT	1013	n/a	n/a	0	0	0
1748.9609375	n/a	WORD	3581872	wordpools/wasnorm_wordpool_576.txt	LTP384	ltpFR2	0	7	AWARD	63	n/a	n/a	0	0	0
1751.64501953125	n/a	WORD	3587369	wordpools/wasnorm_wordpool_576.txt	LTP384	ltpFR2	0	7	EAGLE	512	n/a	n/a	0	0	0
1753.259765625	n/a	START	3590676	n/a	LTP384	ltpFR2	0	n/a	n/a	n/a	12	n/a	n/a	n/a	n/a
1754.28271484375	n/a	DISTRACTOR	3592771	n/a	LTP384	ltpFR2	0	7	n/a	n/a	n/a	n/a	0	0	0
1754.2939453125	n/a	PROB	3592794	n/a	LTP384	ltpFR2	0	n/a	n/a	n/a	12	16	6	8	2
1757.6435546875	n/a	PROB	3599654	n/a	LTP384	ltpFR2	0	n/a	n/a	n/a	12	17	3	6	8
1760.9775390625	n/a	PROB	3606482	n/a	LTP384	ltpFR2	0	n/a	n/a	n/a	12	16	7	5	4
1764.359375	n/a	PROB	3613408	n/a	LTP384	ltpFR2	0	n/a	n/a	n/a	12	24	9	7	6
1769.52734375	n/a	PROB	3623992	n/a	LTP384	ltpFR2	0	n/a	n/a	n/a	12	20	8	3	9
1773.77734375	n/a	PROB	3632696	n/a	LTP384	ltpFR2	0	n/a	n/a	n/a	12	14	1	7	6
1776.05322265625	n/a	STOP	3637357	n/a	LTP384	ltpFR2	0	n/a	n/a	n/a	12	n/a	n/a	n/a	n/a
1779.0771484375	n/a	REC_START	3643550	n/a	LTP384	ltpFR2	0	7	n/a	n/a	n/a	n/a	0	0	0
1780.97216796875	n/a	REC_WORD	3647431	wordpools/wasnorm_wordpool_576.txt	LTP384	ltpFR2	0	7	FREEZER	604	n/a	n/a	0	0	0
1781.98388671875	n/a	REC_WORD	3649503	wordpools/wasnorm_wordpool_576.txt	LTP384	ltpFR2	0	7	QUAIL	1147	n/a	n/a	0	0	0
1782.97900390625	n/a	REC_WORD	3651541	wordpools/wasnorm_wordpool_576.txt	LTP384	ltpFR2	0	7	SEAFOOD	1260	n/a	n/a	0	0	0
1784.27490234375	n/a	REC_WORD	3654195	wordpools/wasnorm_wordpool_576.txt	LTP384	ltpFR2	0	7	WASP	1593	n/a	n/a	0	0	0
1785.1796875	n/a	REC_WORD	3656048	wordpools/wasnorm_wordpool_576.txt	LTP384	ltpFR2	0	7	STOVE	1388	n/a	n/a	0	0	0
1786.86865234375	n/a	REC_WORD	3659507	wordpools/wasnorm_wordpool_576.txt	LTP384	ltpFR2	0	7	MESSAGE	888	n/a	n/a	0	0	0
1787.9248046875	n/a	REC_WORD	3661670	wordpools/wasnorm_wordpool_576.txt	LTP384	ltpFR2	0	7	LAVA	804	n/a	n/a	0	0	0
1789.0595703125	n/a	REC_WORD	3663994	wordpools/wasnorm_wordpool_576.txt	LTP384	ltpFR2	0	7	COOKBOOK	373	n/a	n/a	0	0	0
1790.2216796875	n/a	REC_WORD	3666374	wordpools/wasnorm_wordpool_576.txt	LTP384	ltpFR2	0	7	PARENT	1013	n/a	n/a	0	0	0
1791.31787109375	n/a	REC_WORD	3668619	wordpools/wasnorm_wordpool_576.txt	LTP384	ltpFR2	0	7	AWARD	63	n/a	n/a	0	0	0
1792.8076171875	n/a	REC_WORD	3671670	wordpools/wasnorm_wordpool_576.txt	LTP384	ltpFR2	0	7	JOURNAL	760	n/a	n/a	0	0	0
1796.33056640625	n/a	REC_WORD	3678885	wordpools/wasnorm_wordpool_576.txt	LTP384	ltpFR2	0	7	SMOG	1330	n/a	n/a	0	0	0
1799.2705078125	n/a	REC_WORD	3684906	wordpools/wasnorm_wordpool_576.txt	LTP384	ltpFR2	0	7	IGLOO	734	n/a	n/a	0	0	0
1811.453125	n/a	REC_WORD	3709856	wordpools/wasnorm_wordpool_576.txt	LTP384	ltpFR2	0	7	HATCHET	691	n/a	n/a	0	0	0
1812.7548828125	n/a	REC_WORD	3712522	wordpools/wasnorm_wordpool_576.txt	LTP384	ltpFR2	0	7	PARROT	1015	n/a	n/a	0	0	0
1815.87109375	n/a	REC_WORD	3718904	wordpools/wasnorm_wordpool_576.txt	LTP384	ltpFR2	0	7	HAMPER	682	n/a	n/a	0	0	0
1831.8916015625	n/a	REC_WORD	3751714	wordpools/wasnorm_wordpool_576.txt	LTP384	ltpFR2	0	7	EAGLE	512	n/a	n/a	0	0	0
1842.958984375	n/a	REC_WORD	3774380	wordpools/wasnorm_wordpool_576.txt	LTP384	ltpFR2	0	7	CRICKET	408	n/a	n/a	0	0	0
1843.8779296875	n/a	REC_WORD	3776262	wordpools/wasnorm_wordpool_576.txt	LTP384	ltpFR2	0	7	LILY	821	n/a	n/a	0	0	0
1869.5390625	n/a	WORD	3828816	wordpools/wasnorm_wordpool_576.txt	LTP384	ltpFR2	0	8	DASHBOARD	441	n/a	n/a	0	0	0
1872.2041015625	n/a	WORD	3834274	wordpools/wasnorm_wordpool_576.txt	LTP384	ltpFR2	0	8	COLLEGE	346	n/a	n/a	0	0	0
1874.9892578125	n/a	WORD	3839978	wordpools/wasnorm_wordpool_576.txt	LTP384	ltpFR2	0	8	CRIB	407	n/a	n/a	0	0	0
1877.5390625	n/a	WORD	3845200	wordpools/wasnorm_wordpool_576.txt	LTP384	ltpFR2	0	8	SUITCASE	1403	n/a	n/a	0	0	0
1880.27099609375	n/a	WORD	3850795	wordpools/wasnorm_wordpool_576.txt	LTP384	ltpFR2	0	8	BLOUSE	139	n/a	n/a	0	0	0
1882.8388671875	n/a	WORD	3856054	wordpools/wasnorm_wordpool_576.txt	LTP384	ltpFR2	0	8	SHOVEL	1295	n/a	n/a	0	0	0
1885.353515625	n/a	WORD	3861204	wordpools/wasnorm_wordpool_576.txt	LTP384	ltpFR2	0	8	TUBA	1515	n/a	n/a	0	0	0
1887.87158203125	n/a	WORD	3866361	wordpools/wasnorm_wordpool_576.txt	LTP384	ltpFR2	0	8	NOTEBOOK	959	n/a	n/a	0	0	0
1890.6044921875	n/a	WORD	3871958	wordpools/wasnorm_wordpool_576.txt	LTP384	ltpFR2	0	8	PAPER	1011	n/a	n/a	0	0	0
1893.08740234375	n/a	WORD	3877043	wordpools/wasnorm_wordpool_576.txt	LTP384	ltpFR2	0	8	COCOON	339	n/a	n/a	0	0	0
1895.8212890625	n/a	WORD	3882642	wordpools/wasnorm_wordpool_576.txt	LTP384	ltpFR2	0	8	SPIDER	1351	n/a	n/a	0	0	0
1898.2861328125	n/a	WORD	3887690	wordpools/wasnorm_wordpool_576.txt	LTP384	ltpFR2	0	8	GAVEL	627	n/a	n/a	0	0	0
1900.97119140625	n/a	WORD	3893189	wordpools/wasnorm_wordpool_576.txt	LTP384	ltpFR2	0	8	TABLE	1426	n/a	n/a	0	0	0
1903.7041015625	n/a	WORD	3898786	wordpools/wasnorm_wordpool_576.txt	LTP384	ltpFR2	0	8	SWIMMER	1420	n/a	n/a	0	0	0
1906.369140625	n/a	WORD	3904244	wordpools/wasnorm_wordpool_576.txt	LTP384	ltpFR2	0	8	SEAL	1262	n/a	n/a	0	0	0
1908.919921875	n/a	WORD	3909468	wordpools/wasnorm_wordpool_576.txt	LTP384	ltpFR2	0	8	HUSBAND	728	n/a	n/a	0	0	0
1911.65380859375	n/a	WORD	3915067	wordpools/wasnorm_wordpool_576.txt	LTP384	ltpFR2	0	8	PIMPLE	1071	n/a	n/a	0	0	0
1914.1357421875	n/a	WORD	3920150	wordpools/wasnorm_wordpool_576.txt	LTP384	ltpFR2	0	8	SUSPECT	1415	n/a	n/a	0	0	0
1916.8369140625	n/a	WORD	3925682	wordpools/wasnorm_wordpool_576.txt	LTP384	ltpFR2	0	8	DENIM	446	n/a	n/a	0	0	0
1919.45263671875	n/a	WORD	3931039	wordpools/wasnorm_wordpool_576.txt	LTP384	ltpFR2	0	8	MARS	873	n/a	n/a	0	0	0
1922.11962890625	n/a	WORD	3936501	wordpools/wasnorm_wordpool_576.txt	LTP384	ltpFR2	0	8	BRANCH	168	n/a	n/a	0	0	0
1924.736328125	n/a	WORD	3941860	wordpools/wasnorm_wordpool_576.txt	LTP384	ltpFR2	0	8	CANYON	235	n/a	n/a	0	0	0
1927.16845703125	n/a	WORD	3946841	wordpools/wasnorm_wordpool_576.txt	LTP384	ltpFR2	0	8	CHILD	299	n/a	n/a	0	0	0
1929.90234375	n/a	WORD	3952440	wordpools/wasnorm_wordpool_576.txt	LTP384	ltpFR2	0	8	GUITAR	670	n/a	n/a	0	0	0
1931.51953125	n/a	START	3955752	n/a	LTP384	ltpFR2	0	n/a	n/a	n/a	13	n/a	n/a	n/a	n/a
1932.34619140625	n/a	DISTRACTOR	3957445	n/a	LTP384	ltpFR2	0	8	n/a	n/a	n/a	n/a	0	0	0
1932.35107421875	n/a	PROB	3957455	n/a	LTP384	ltpFR2	0	n/a	n/a	n/a	13	16	6	1	9
1935.28515625	n/a	PROB	3963464	n/a	LTP384	ltpFR2	0	n/a	n/a	n/a	13	7	4	1	2
1937.85205078125	n/a	PROB	3968721	n/a	LTP384	ltpFR2	0	n/a	n/a	n/a	13	22	8	9	5
1945.65185546875	n/a	PROB	3984695	n/a	LTP384	ltpFR2	0	n/a	n/a	n/a	13	22	7	9	6
1955.5185546875	n/a	STOP	4004902	n/a	LTP384	ltpFR2	0	n/a	n/a	n/a	13	n/a	n/a	n/a	n/a
1957.3173828125	n/a	REC_START	4008586	n/a	LTP384	ltpFR2	0	8	n/a	n/a	n/a	n/a	0	0	0
1958.38525390625	n/a	REC_WORD	4010773	wordpools/wasnorm_wordpool_576.txt	LTP384	ltpFR2	0	8	DENIM	446	n/a	n/a	0	0	0
1959.38330078125	n/a	REC_WORD	4012817	wordpools/wasnorm_wordpool_576.txt	LTP384	ltpFR2	0	8	HUSBAND	728	n/a	n/a	0	0	0
1960.232421875	n/a	REC_WORD	4014556	wordpools/wasnorm_wordpool_576.txt	LTP384	ltpFR2	0	8	SWIMMER	1420	n/a	n/a	0	0	0
1961.396484375	n/a	REC_WORD	4016940	wordpools/wasnorm_wordpool_576.txt	LTP384	ltpFR2	0	8	PIMPLE	1071	n/a	n/a	0	0	0
1965.107421875	n/a	REC_WORD	4024540	wordpools/wasnorm_wordpool_576.txt	LTP384	ltpFR2	0	8	COLLEGE	346	n/a	n/a	0	0	0
1966.0732421875	n/a	REC_WORD	4026518	wordpools/wasnorm_wordpool_576.txt	LTP384	ltpFR2	0	8	DASHBOARD	441	n/a	n/a	0	0	0
1967.1630859375	n/a	REC_WORD	4028750	wordpools/wasnorm_wordpool_576.txt	LTP384	ltpFR2	0	8	CRIB	407	n/a	n/a	0	0	0
1968.37939453125	n/a	REC_WORD	4031241	wordpools/wasnorm_wordpool_576.txt	LTP384	ltpFR2	0	8	NOTEBOOK	959	n/a	n/a	0	0	0
1969.41015625	n/a	REC_WORD	4033352	wordpools/wasnorm_wordpool_576.txt	LTP384	ltpFR2	0	8	TABLE	1426	n/a	n/a	0	0	0
1970.5322265625	n/a	REC_WORD	4035650	wordpools/wasnorm_wordpool_576.txt	LTP384	ltpFR2	0	8	GAVEL	627	n/a	n/a	0	0	0
1972.26708984375	n/a	REC_WORD	4039203	wordpools/wasnorm_wordpool_576.txt	LTP384	ltpFR2	0	8	PAPER	1011	n/a	n/a	0	0	0
1974.3740234375	n/a	REC_WORD	4043518	wordpools/wasnorm_wordpool_576.txt	LTP384	ltpFR2	0	8	SHOVEL	1295	n/a	n/a	0	0	0
1981.82080078125	n/a	REC_WORD	4058769	wordpools/wasnorm_wordpool_576.txt	LTP384	ltpFR2	0	8	GUITAR	670	n/a	n/a	0	0	0
2002.76611328125	n/a	REC_WORD	4101665	wordpools/wasnorm_wordpool_576.txt	LTP384	ltpFR2	0	8	MARS	873	n/a	n/a	0	0	0
2033.84814453125	n/a	REST_REWET	4165321	n/a	LTP384	ltpFR2	0	8	n/a	n/a	n/a	n/a	0	0	0
2195.4560546875	n/a	DISTRACTOR	4496294	n/a	LTP384	ltpFR2	0	9	n/a	n/a	n/a	n/a	0	0	0
2195.4560546875	n/a	START	4496294	n/a	LTP384	ltpFR2	0	n/a	n/a	n/a	14	n/a	n/a	n/a	n/a
2195.47314453125	n/a	PROB	4496329	n/a	LTP384	ltpFR2	0	n/a	n/a	n/a	14	20	8	3	9
2202.873046875	n/a	PROB	4511484	n/a	LTP384	ltpFR2	0	n/a	n/a	n/a	14	20	9	7	4
2205.72265625	n/a	PROB	4517320	n/a	LTP384	ltpFR2	0	n/a	n/a	n/a	14	13	6	4	3
2208.45556640625	n/a	PROB	4522917	n/a	LTP384	ltpFR2	0	n/a	n/a	n/a	14	15	1	6	8
2211.90673828125	n/a	PROB	4529985	n/a	LTP384	ltpFR2	0	n/a	n/a	n/a	14	18	5	8	5
2214.23876953125	n/a	PROB	4534761	n/a	LTP384	ltpFR2	0	n/a	n/a	n/a	14	14	1	4	9
2219.45556640625	n/a	STOP	4545445	n/a	LTP384	ltpFR2	0	n/a	n/a	n/a	14	n/a	n/a	n/a	n/a
2220.37158203125	n/a	WORD	4547321	wordpools/wasnorm_wordpool_576.txt	LTP384	ltpFR2	0	9	RIVER	1194	n/a	n/a	0	0	0
2223.03955078125	n/a	WORD	4552785	wordpools/wasnorm_wordpool_576.txt	LTP384	ltpFR2	0	9	SPONGE	1355	n/a	n/a	0	0	0
2225.85546875	n/a	WORD	4558552	wordpools/wasnorm_wordpool_576.txt	LTP384	ltpFR2	0	9	CANAL	226	n/a	n/a	0	0	0
2228.43798828125	n/a	WORD	4563841	wordpools/wasnorm_wordpool_576.txt	LTP384	ltpFR2	0	9	BLUEPRINT	142	n/a	n/a	0	0	0
2231.18798828125	n/a	WORD	4569473	wordpools/wasnorm_wordpool_576.txt	LTP384	ltpFR2	0	9	HAWK	692	n/a	n/a	0	0	0
2233.7890625	n/a	WORD	4574800	wordpools/wasnorm_wordpool_576.txt	LTP384	ltpFR2	0	9	CLOCK	325	n/a	n/a	0	0	0
2236.337890625	n/a	WORD	4580020	wordpools/wasnorm_wordpool_576.txt	LTP384	ltpFR2	0	9	RAFT	1159	n/a	n/a	0	0	0
2239.10498046875	n/a	WORD	4585687	wordpools/wasnorm_wordpool_576.txt	LTP384	ltpFR2	0	9	CIGAR	308	n/a	n/a	0	0	0
2241.587890625	n/a	WORD	4590772	wordpools/wasnorm_wordpool_576.txt	LTP384	ltpFR2	0	9	ROOSTER	1209	n/a	n/a	0	0	0
2244.353515625	n/a	WORD	4596436	wordpools/wasnorm_wordpool_576.txt	LTP384	ltpFR2	0	9	GRAPE	654	n/a	n/a	0	0	0
2247.07177734375	n/a	WORD	4602003	wordpools/wasnorm_wordpool_576.txt	LTP384	ltpFR2	0	9	BUGGY	188	n/a	n/a	0	0	0
2249.83740234375	n/a	WORD	4607667	wordpools/wasnorm_wordpool_576.txt	LTP384	ltpFR2	0	9	TURKEY	1520	n/a	n/a	0	0	0
2252.62158203125	n/a	WORD	4613369	wordpools/wasnorm_wordpool_576.txt	LTP384	ltpFR2	0	9	CATCHER	258	n/a	n/a	0	0	0
2255.30322265625	n/a	WORD	4618861	wordpools/wasnorm_wordpool_576.txt	LTP384	ltpFR2	0	9	CLOUD	328	n/a	n/a	0	0	0
2257.85400390625	n/a	WORD	4624085	wordpools/wasnorm_wordpool_576.txt	LTP384	ltpFR2	0	9	FIREMAN	569	n/a	n/a	0	0	0
2260.4873046875	n/a	WORD	4629478	wordpools/wasnorm_wordpool_576.txt	LTP384	ltpFR2	0	9	FUNGUS	614	n/a	n/a	0	0	0
2263.15283203125	n/a	WORD	4634937	wordpools/wasnorm_wordpool_576.txt	LTP384	ltpFR2	0	9	TROUT	1511	n/a	n/a	0	0	0
2265.90380859375	n/a	WORD	4640571	wordpools/wasnorm_wordpool_576.txt	LTP384	ltpFR2	0	9	HOOK	715	n/a	n/a	0	0	0
2268.6201171875	n/a	WORD	4646134	wordpools/wasnorm_wordpool_576.txt	LTP384	ltpFR2	0	9	APPLE	33	n/a	n/a	0	0	0
2271.3359375	n/a	WORD	4651696	wordpools/wasnorm_wordpool_576.txt	LTP384	ltpFR2	0	9	PUDDLE	1140	n/a	n/a	0	0	0
2273.88671875	n/a	WORD	4656920	wordpools/wasnorm_wordpool_576.txt	LTP384	ltpFR2	0	9	TYPIST	1532	n/a	n/a	0	0	0
2276.3525390625	n/a	WORD	4661970	wordpools/wasnorm_wordpool_576.txt	LTP384	ltpFR2	0	9	SCRIBBLE	1256	n/a	n/a	0	0	0
2279.08642578125	n/a	WORD	4667569	wordpools/wasnorm_wordpool_576.txt	LTP384	ltpFR2	0	9	LAGOON	795	n/a	n/a	0	0	0
2281.75341796875	n/a	WORD	4673031	wordpools/wasnorm_wordpool_576.txt	LTP384	ltpFR2	0	9	DRESSER	496	n/a	n/a	0	0	0
2283.36865234375	n/a	START	4676339	n/a	LTP384	ltpFR2	0	n/a	n/a	n/a	15	n/a	n/a	n/a	n/a
2284.25537109375	n/a	DISTRACTOR	4678155	n/a	LTP384	ltpFR2	0	9	n/a	n/a	n/a	n/a	0	0	0
2284.2685546875	n/a	PROB	4678182	n/a	LTP384	ltpFR2	0	n/a	n/a	n/a	15	16	7	3	6
2287.08642578125	n/a	PROB	4683953	n/a	LTP384	ltpFR2	0	n/a	n/a	n/a	15	11	1	2	8
2289.2353515625	n/a	PROB	4688354	n/a	LTP384	ltpFR2	0	n/a	n/a	n/a	15	17	4	9	4
2293.60205078125	n/a	PROB	4697297	n/a	LTP384	ltpFR2	0	n/a	n/a	n/a	15	17	8	2	7
2295.43505859375	n/a	PROB	4701051	n/a	LTP384	ltpFR2	0	n/a	n/a	n/a	15	10	5	4	1
2297.1181640625	n/a	PROB	4704498	n/a	LTP384	ltpFR2	0	n/a	n/a	n/a	15	22	8	5	9
2301.70166015625	n/a	PROB	4713885	n/a	LTP384	ltpFR2	0	n/a	n/a	n/a	15	7	2	2	3
2303.76904296875	n/a	PROB	4718119	n/a	LTP384	ltpFR2	0	n/a	n/a	n/a	15	15	1	7	7
2305.7685546875	n/a	PROB	4722214	n/a	LTP384	ltpFR2	0	n/a	n/a	n/a	15	4	2	1	1
2307.259765625	n/a	STOP	4725268	n/a	LTP384	ltpFR2	0	n/a	n/a	n/a	15	n/a	n/a	n/a	n/a
2309.3017578125	n/a	REC_START	4729450	n/a	LTP384	ltpFR2	0	9	n/a	n/a	n/a	n/a	0	0	0
2309.970703125	n/a	REC_WORD	4730820	wordpools/wasnorm_wordpool_576.txt	LTP384	ltpFR2	0	9	RIVER	1194	n/a	n/a	0	0	0
2310.5556640625	n/a	REC_WORD	4732018	wordpools/wasnorm_wordpool_576.txt	LTP384	ltpFR2	0	9	CANAL	226	n/a	n/a	0	0	0
2311.2705078125	n/a	REC_WORD	4733482	wordpools/wasnorm_wordpool_576.txt	LTP384	ltpFR2	0	9	LAGOON	795	n/a	n/a	0	0	0
2312.33447265625	n/a	REC_WORD	4735661	wordpools/wasnorm_wordpool_576.txt	LTP384	ltpFR2	0	9	SPONGE	1355	n/a	n/a	0	0	0
2313.931640625	n/a	REC_WORD	4738932	wordpools/wasnorm_wordpool_576.txt	LTP384	ltpFR2	0	9	TROUT	1511	n/a	n/a	0	0	0
2314.98828125	n/a	REC_WORD	4741096	wordpools/wasnorm_wordpool_576.txt	LTP384	ltpFR2	0	9	HOOK	715	n/a	n/a	0	0	0
2315.892578125	n/a	REC_WORD	4742948	wordpools/wasnorm_wordpool_576.txt	LTP384	ltpFR2	0	9	RAFT	1159	n/a	n/a	0	0	0
2317.701171875	n/a	REC_WORD	4746652	wordpools/wasnorm_wordpool_576.txt	LTP384	ltpFR2	0	9	HAWK	692	n/a	n/a	0	0	0
2318.88232421875	n/a	REC_WORD	4749071	wordpools/wasnorm_wordpool_576.txt	LTP384	ltpFR2	0	9	CLOCK	325	n/a	n/a	0	0	0
2322.05126953125	n/a	REC_WORD	4755561	wordpools/wasnorm_wordpool_576.txt	LTP384	ltpFR2	0	9	TURKEY	1520	n/a	n/a	0	0	0
2323.2744140625	n/a	REC_WORD	4758066	wordpools/wasnorm_wordpool_576.txt	LTP384	ltpFR2	0	9	ROOSTER	1209	n/a	n/a	0	0	0
2325.9619140625	n/a	REC_WORD	4763570	wordpools/wasnorm_wordpool_576.txt	LTP384	ltpFR2	0	9	SCRIBBLE	1256	n/a	n/a	0	0	0
2327.17724609375	n/a	REC_WORD	4766059	wordpools/wasnorm_wordpool_576.txt	LTP384	ltpFR2	0	9	TYPIST	1532	n/a	n/a	0	0	0
2328.39306640625	n/a	REC_WORD	4768549	wordpools/wasnorm_wordpool_576.txt	LTP384	ltpFR2	0	9	FIREMAN	569	n/a	n/a	0	0	0
2338.24169921875	n/a	REC_WORD	4788719	wordpools/wasnorm_wordpool_576.txt	LTP384	ltpFR2	0	9	GRAPE	654	n/a	n/a	0	0	0
2339.73291015625	n/a	REC_WORD	4791773	wordpools/wasnorm_wordpool_576.txt	LTP384	ltpFR2	0	9	APPLE	33	n/a	n/a	0	0	0
2399.7138671875	n/a	DISTRACTOR	4914614	n/a	LTP384	ltpFR2	0	10	n/a	n/a	n/a	n/a	0	0	0
2399.71484375	n/a	START	4914616	n/a	LTP384	ltpFR2	0	n/a	n/a	n/a	16	n/a	n/a	n/a	n/a
2399.73095703125	n/a	PROB	4914649	n/a	LTP384	ltpFR2	0	n/a	n/a	n/a	16	21	9	3	9
2404.36279296875	n/a	PROB	4924135	n/a	LTP384	ltpFR2	0	n/a	n/a	n/a	16	14	5	1	8
2406.94775390625	n/a	PROB	4929429	n/a	LTP384	ltpFR2	0	n/a	n/a	n/a	16	16	5	3	8
2409.09765625	n/a	PROB	4933832	n/a	LTP384	ltpFR2	0	n/a	n/a	n/a	16	17	9	5	3
2413.63037109375	n/a	PROB	4943115	n/a	LTP384	ltpFR2	0	n/a	n/a	n/a	16	17	8	2	7
2415.48046875	n/a	PROB	4946904	n/a	LTP384	ltpFR2	0	n/a	n/a	n/a	16	16	5	4	7
2417.8134765625	n/a	PROB	4951682	n/a	LTP384	ltpFR2	0	n/a	n/a	n/a	16	15	7	2	6
2419.93017578125	n/a	PROB	4956017	n/a	LTP384	ltpFR2	0	n/a	n/a	n/a	16	21	9	3	8
2423.7138671875	n/a	STOP	4963766	n/a	LTP384	ltpFR2	0	n/a	n/a	n/a	16	n/a	n/a	n/a	n/a
2424.7958984375	n/a	WORD	4965982	wordpools/wasnorm_wordpool_576.txt	LTP384	ltpFR2	0	10	BIKE	125	n/a	n/a	0	0	0
2427.5791015625	n/a	WORD	4971682	wordpools/wasnorm_wordpool_576.txt	LTP384	ltpFR2	0	10	OYSTER	995	n/a	n/a	0	0	0
2430.12890625	n/a	WORD	4976904	wordpools/wasnorm_wordpool_576.txt	LTP384	ltpFR2	0	10	SCALLOP	1242	n/a	n/a	0	0	0
2432.87890625	n/a	WORD	4982536	wordpools/wasnorm_wordpool_576.txt	LTP384	ltpFR2	0	10	DRUG	501	n/a	n/a	0	0	0
2435.61279296875	n/a	WORD	4988135	wordpools/wasnorm_wordpool_576.txt	LTP384	ltpFR2	0	10	EMPIRE	530	n/a	n/a	0	0	0
2438.427734375	n/a	WORD	4993900	wordpools/wasnorm_wordpool_576.txt	LTP384	ltpFR2	0	10	SADDLE	1221	n/a	n/a	0	0	0
2440.99560546875	n/a	WORD	4999159	wordpools/wasnorm_wordpool_576.txt	LTP384	ltpFR2	0	10	SIBLING	1301	n/a	n/a	0	0	0
2443.478515625	n/a	WORD	5004244	wordpools/wasnorm_wordpool_576.txt	LTP384	ltpFR2	0	10	MONSTER	912	n/a	n/a	0	0	0
2446.0283203125	n/a	WORD	5009466	wordpools/wasnorm_wordpool_576.txt	LTP384	ltpFR2	0	10	SISTER	1312	n/a	n/a	0	0	0
2448.71240234375	n/a	WORD	5014963	wordpools/wasnorm_wordpool_576.txt	LTP384	ltpFR2	0	10	COWBOY	395	n/a	n/a	0	0	0
2451.27734375	n/a	WORD	5020216	wordpools/wasnorm_wordpool_576.txt	LTP384	ltpFR2	0	10	PIANO	1057	n/a	n/a	0	0	0
2453.84521484375	n/a	WORD	5025475	wordpools/wasnorm_wordpool_576.txt	LTP384	ltpFR2	0	10	DRIVER	499	n/a	n/a	0	0	0
2456.35986328125	n/a	WORD	5030625	wordpools/wasnorm_wordpool_576.txt	LTP384	ltpFR2	0	10	BADGE	68	n/a	n/a	0	0	0
2459.16015625	n/a	WORD	5036360	wordpools/wasnorm_wordpool_576.txt	LTP384	ltpFR2	0	10	PRINCE	1124	n/a	n/a	0	0	0
2461.94482421875	n/a	WORD	5042063	wordpools/wasnorm_wordpool_576.txt	LTP384	ltpFR2	0	10	CORAL	378	n/a	n/a	0	0	0
2464.6279296875	n/a	WORD	5047558	wordpools/wasnorm_wordpool_576.txt	LTP384	ltpFR2	0	10	BUNNY	198	n/a	n/a	0	0	0
2467.0947265625	n/a	WORD	5052610	wordpools/wasnorm_wordpool_576.txt	LTP384	ltpFR2	0	10	HIKER	708	n/a	n/a	0	0	0
2469.7275390625	n/a	WORD	5058002	wordpools/wasnorm_wordpool_576.txt	LTP384	ltpFR2	0	10	AIRPLANE	12	n/a	n/a	0	0	0
2472.45947265625	n/a	WORD	5063597	wordpools/wasnorm_wordpool_576.txt	LTP384	ltpFR2	0	10	ZIPPER	1636	n/a	n/a	0	0	0
2475.15966796875	n/a	WORD	5069127	wordpools/wasnorm_wordpool_576.txt	LTP384	ltpFR2	0	10	TROMBONE	1508	n/a	n/a	0	0	0
2477.79345703125	n/a	WORD	5074521	wordpools/wasnorm_wordpool_576.txt	LTP384	ltpFR2	0	10	FARMER	553	n/a	n/a	0	0	0
2480.359375	n/a	WORD	5079776	wordpools/wasnorm_wordpool_576.txt	LTP384	ltpFR2	0	10	SCARECROW	1245	n/a	n/a	0	0	0
2482.97705078125	n/a	WORD	5085137	wordpools/wasnorm_wordpool_576.txt	LTP384	ltpFR2	0	10	RADISH	1158	n/a	n/a	0	0	0
2485.64306640625	n/a	WORD	5090597	wordpools/wasnorm_wordpool_576.txt	LTP384	ltpFR2	0	10	SERVANT	1271	n/a	n/a	0	0	0
2487.25927734375	n/a	START	5093907	n/a	LTP384	ltpFR2	0	n/a	n/a	n/a	17	n/a	n/a	n/a	n/a
2488.18701171875	n/a	DISTRACTOR	5095807	n/a	LTP384	ltpFR2	0	10	n/a	n/a	n/a	n/a	0	0	0
2488.19189453125	n/a	PROB	5095817	n/a	LTP384	ltpFR2	0	n/a	n/a	n/a	17	18	3	8	7
2492.52685546875	n/a	PROB	5104695	n/a	LTP384	ltpFR2	0	n/a	n/a	n/a	17	16	2	7	4
2497.49267578125	n/a	PROB	5114865	n/a	LTP384	ltpFR2	0	n/a	n/a	n/a	17	8	4	2	2
2501.10888671875	n/a	PROB	5122271	n/a	LTP384	ltpFR2	0	n/a	n/a	n/a	17	17	8	4	5
2504.45849609375	n/a	PROB	5129131	n/a	LTP384	ltpFR2	0	n/a	n/a	n/a	17	18	8	1	9
2506.8095703125	n/a	PROB	5133946	n/a	LTP384	ltpFR2	0	n/a	n/a	n/a	17	18	5	5	8
2511.25830078125	n/a	STOP	5143057	n/a	LTP384	ltpFR2	0	n/a	n/a	n/a	17	n/a	n/a	n/a	n/a
2513.0263671875	n/a	REC_START	5146678	n/a	LTP384	ltpFR2	0	10	n/a	n/a	n/a	n/a	0	0	0
2514.7314453125	n/a	REC_WORD	5150170	wordpools/wasnorm_wordpool_576.txt	LTP384	ltpFR2	0	10	BIKE	125	n/a	n/a	0	0	0
2515.6162109375	n/a	REC_WORD	5151982	wordpools/wasnorm_wordpool_576.txt	LTP384	ltpFR2	0	10	HIKER	708	n/a	n/a	0	0	0
2516.443359375	n/a	REC_WORD	5153676	wordpools/wasnorm_wordpool_576.txt	LTP384	ltpFR2	0	10	FARMER	553	n/a	n/a	0	0	0
2517.42822265625	n/a	REC_WORD	5155693	wordpools/wasnorm_wordpool_576.txt	LTP384	ltpFR2	0	10	RADISH	1158	n/a	n/a	0	0	0
2518.2060546875	n/a	REC_WORD	5157286	wordpools/wasnorm_wordpool_576.txt	LTP384	ltpFR2	0	10	SCARECROW	1245	n/a	n/a	0	0	0
2521.037109375	n/a	REC_WORD	5163084	wordpools/wasnorm_wordpool_576.txt	LTP384	ltpFR2	0	10	SADDLE	1221	n/a	n/a	0	0	0
2522.7138671875	n/a	REC_WORD	5166518	wordpools/wasnorm_wordpool_576.txt	LTP384	ltpFR2	0	10	AIRPLANE	12	n/a	n/a	0	0	0
2523.84814453125	n/a	REC_WORD	5168841	wordpools/wasnorm_wordpool_576.txt	LTP384	ltpFR2	0	10	DRIVER	499	n/a	n/a	0	0	0
2525.173828125	n/a	REC_WORD	5171556	wordpools/wasnorm_wordpool_576.txt	LTP384	ltpFR2	0	10	SIBLING	1301	n/a	n/a	0	0	0
2526.384765625	n/a	REC_WORD	5174036	wordpools/wasnorm_wordpool_576.txt	LTP384	ltpFR2	0	10	SISTER	1312	n/a	n/a	0	0	0
2527.52490234375	n/a	REC_WORD	5176371	wordpools/wasnorm_wordpool_576.txt	LTP384	ltpFR2	0	10	PRINCE	1124	n/a	n/a	0	0	0
2528.505859375	n/a	REC_WORD	5178380	wordpools/wasnorm_wordpool_576.txt	LTP384	ltpFR2	0	10	CORAL	378	n/a	n/a	0	0	0
2535.20263671875	n/a	REC_WORD	5192095	wordpools/wasnorm_wordpool_576.txt	LTP384	ltpFR2	0	10	OYSTER	995	n/a	n/a	0	0	0
2536.12548828125	n/a	REC_WORD	5193985	wordpools/wasnorm_wordpool_576.txt	LTP384	ltpFR2	0	10	MONSTER	912	n/a	n/a	0	0	0
2540.75634765625	n/a	REC_WORD	5203469	wordpools/wasnorm_wordpool_576.txt	LTP384	ltpFR2	0	10	SCALLOP	1242	n/a	n/a	0	0	0
2544.4375	n/a	REC_WORD	5211008	wordpools/wasnorm_wordpool_576.txt	LTP384	ltpFR2	0	10	DRUG	501	n/a	n/a	0	0	0
2547.10205078125	n/a	REC_WORD	5216465	wordpools/wasnorm_wordpool_576.txt	LTP384	ltpFR2	0	10	EMPIRE	530	n/a	n/a	0	0	0
2569.1318359375	n/a	REC_WORD	5261582	wordpools/wasnorm_wordpool_576.txt	LTP384	ltpFR2	0	10	TROMBONE	1508	n/a	n/a	0	0	0
2570.228515625	n/a	REC_WORD	5263828	wordpools/wasnorm_wordpool_576.txt	LTP384	ltpFR2	0	10	PIANO	1057	n/a	n/a	0	0	0
2603.4873046875	n/a	WORD	5331942	wordpools/wasnorm_wordpool_576.txt	LTP384	ltpFR2	0	11	CONVICT	371	n/a	n/a	0	0	0
2606.0712890625	n/a	WORD	5337234	wordpools/wasnorm_wordpool_576.txt	LTP384	ltpFR2	0	11	FRIEND	606	n/a	n/a	0	0	0
2608.78759765625	n/a	WORD	5342797	wordpools/wasnorm_wordpool_576.txt	LTP384	ltpFR2	0	11	PECAN	1036	n/a	n/a	0	0	0
2611.50439453125	n/a	WORD	5348361	wordpools/wasnorm_wordpool_576.txt	LTP384	ltpFR2	0	11	POPCORN	1104	n/a	n/a	0	0	0
2614.1533203125	n/a	WORD	5353786	wordpools/wasnorm_wordpool_576.txt	LTP384	ltpFR2	0	11	HOUND	724	n/a	n/a	0	0	0
2616.85400390625	n/a	WORD	5359317	wordpools/wasnorm_wordpool_576.txt	LTP384	ltpFR2	0	11	BLENDER	136	n/a	n/a	0	0	0
2619.3359375	n/a	WORD	5364400	wordpools/wasnorm_wordpool_576.txt	LTP384	ltpFR2	0	11	FRAME	600	n/a	n/a	0	0	0
2621.98681640625	n/a	WORD	5369829	wordpools/wasnorm_wordpool_576.txt	LTP384	ltpFR2	0	11	MILK	895	n/a	n/a	0	0	0
2624.75390625	n/a	WORD	5375496	wordpools/wasnorm_wordpool_576.txt	LTP384	ltpFR2	0	11	FLEET	578	n/a	n/a	0	0	0
2627.48681640625	n/a	WORD	5381093	wordpools/wasnorm_wordpool_576.txt	LTP384	ltpFR2	0	11	QUEEN	1149	n/a	n/a	0	0	0
2630.21875	n/a	WORD	5386688	wordpools/wasnorm_wordpool_576.txt	LTP384	ltpFR2	0	11	PEANUT	1032	n/a	n/a	0	0	0
2632.66943359375	n/a	WORD	5391707	wordpools/wasnorm_wordpool_576.txt	LTP384	ltpFR2	0	11	MUFFIN	929	n/a	n/a	0	0	0
2635.1357421875	n/a	WORD	5396758	wordpools/wasnorm_wordpool_576.txt	LTP384	ltpFR2	0	11	JELLY	755	n/a	n/a	0	0	0
2637.83642578125	n/a	WORD	5402289	wordpools/wasnorm_wordpool_576.txt	LTP384	ltpFR2	0	11	MARROW	872	n/a	n/a	0	0	0
2640.5693359375	n/a	WORD	5407886	wordpools/wasnorm_wordpool_576.txt	LTP384	ltpFR2	0	11	LAKE	796	n/a	n/a	0	0	0
2643.33544921875	n/a	WORD	5413551	wordpools/wasnorm_wordpool_576.txt	LTP384	ltpFR2	0	11	LION	827	n/a	n/a	0	0	0
2645.85205078125	n/a	WORD	5418705	wordpools/wasnorm_wordpool_576.txt	LTP384	ltpFR2	0	11	LEOPARD	812	n/a	n/a	0	0	0
2648.43505859375	n/a	WORD	5423995	wordpools/wasnorm_wordpool_576.txt	LTP384	ltpFR2	0	11	GALLON	618	n/a	n/a	0	0	0
2651.1181640625	n/a	WORD	5429490	wordpools/wasnorm_wordpool_576.txt	LTP384	ltpFR2	0	11	BOYFRIEND	162	n/a	n/a	0	0	0
2653.65185546875	n/a	WORD	5434679	wordpools/wasnorm_wordpool_576.txt	LTP384	ltpFR2	0	11	ROD	1203	n/a	n/a	0	0	0
2656.30078125	n/a	WORD	5440104	wordpools/wasnorm_wordpool_576.txt	LTP384	ltpFR2	0	11	JUDGE	761	n/a	n/a	0	0	0
2658.81884765625	n/a	WORD	5445261	wordpools/wasnorm_wordpool_576.txt	LTP384	ltpFR2	0	11	HORSE	719	n/a	n/a	0	0	0
2661.45068359375	n/a	WORD	5450651	wordpools/wasnorm_wordpool_576.txt	LTP384	ltpFR2	0	11	LOFT	840	n/a	n/a	0	0	0
2664.23388671875	n/a	WORD	5456351	wordpools/wasnorm_wordpool_576.txt	LTP384	ltpFR2	0	11	PICTURE	1061	n/a	n/a	0	0	0
2665.83544921875	n/a	START	5459631	n/a	LTP384	ltpFR2	0	n/a	n/a	n/a	18	n/a	n/a	n/a	n/a
2666.83740234375	n/a	DISTRACTOR	5461683	n/a	LTP384	ltpFR2	0	11	n/a	n/a	n/a	n/a	0	0	0
2666.8515625	n/a	PROB	5461712	n/a	LTP384	ltpFR2	0	n/a	n/a	n/a	18	20	4	9	7
2671.150390625	n/a	PROB	5470516	n/a	LTP384	ltpFR2	0	n/a	n/a	n/a	18	18	7	6	5
2674.38330078125	n/a	PROB	5477137	n/a	LTP384	ltpFR2	0	n/a	n/a	n/a	18	13	5	5	3
2676.150390625	n/a	PROB	5480756	n/a	LTP384	ltpFR2	0	n/a	n/a	n/a	18	8	1	5	2
2678.50146484375	n/a	PROB	5485571	n/a	LTP384	ltpFR2	0	n/a	n/a	n/a	18	13	7	4	2
2683.80126953125	n/a	PROB	5496425	n/a	LTP384	ltpFR2	0	n/a	n/a	n/a	18	12	5	1	6
2686.466796875	n/a	PROB	5501884	n/a	LTP384	ltpFR2	0	n/a	n/a	n/a	18	14	9	3	2
2689.8349609375	n/a	STOP	5508782	n/a	LTP384	ltpFR2	0	n/a	n/a	n/a	18	n/a	n/a	n/a	n/a
2691.78466796875	n/a	REC_START	5512775	n/a	LTP384	ltpFR2	0	11	n/a	n/a	n/a	n/a	0	0	0
2693.76171875	n/a	REC_WORD	5516824	wordpools/wasnorm_wordpool_576.txt	LTP384	ltpFR2	0	11	BOYFRIEND	162	n/a	n/a	0	0	0
2695.70849609375	n/a	REC_WORD	5520811	wordpools/wasnorm_wordpool_576.txt	LTP384	ltpFR2	0	11	JELLY	755	n/a	n/a	0	0	0
2696.6396484375	n/a	REC_WORD	5522718	wordpools/wasnorm_wordpool_576.txt	LTP384	ltpFR2	0	11	MARROW	872	n/a	n/a	0	0	0
2698.7255859375	n/a	REC_WORD	5526990	wordpools/wasnorm_wordpool_576.txt	LTP384	ltpFR2	0	11	MILK	895	n/a	n/a	0	0	0
2699.90234375	n/a	REC_WORD	5529400	wordpools/wasnorm_wordpool_576.txt	LTP384	ltpFR2	0	11	GALLON	618	n/a	n/a	0	0	0
2700.82177734375	n/a	REC_WORD	5531283	wordpools/wasnorm_wordpool_576.txt	LTP384	ltpFR2	0	11	FLEET	578	n/a	n/a	0	0	0
2706.5732421875	n/a	REC_WORD	5543062	wordpools/wasnorm_wordpool_576.txt	LTP384	ltpFR2	0	11	PEANUT	1032	n/a	n/a	0	0	0
2708.0234375	n/a	REC_WORD	5546032	wordpools/wasnorm_wordpool_576.txt	LTP384	ltpFR2	0	11	PECAN	1036	n/a	n/a	0	0	0
2711.17919921875	n/a	REC_WORD	5552495	wordpools/wasnorm_wordpool_576.txt	LTP384	ltpFR2	0	11	LION	827	n/a	n/a	0	0	0
2712.365234375	n/a	REC_WORD	5554924	wordpools/wasnorm_wordpool_576.txt	LTP384	ltpFR2	0	11	LAKE	796	n/a	n/a	0	0	0
2713.5390625	n/a	REC_WORD	5557328	wordpools/wasnorm_wordpool_576.txt	LTP384	ltpFR2	0	11	CONVICT	371	n/a	n/a	0	0	0
2714.8740234375	n/a	REC_WORD	5560062	wordpools/wasnorm_wordpool_576.txt	LTP384	ltpFR2	0	11	HOUND	724	n/a	n/a	0	0	0
2716.19482421875	n/a	REC_WORD	5562767	wordpools/wasnorm_wordpool_576.txt	LTP384	ltpFR2	0	11	FRIEND	606	n/a	n/a	0	0	0
2724.884765625	n/a	REC_WORD	5580564	wordpools/wasnorm_wordpool_576.txt	LTP384	ltpFR2	0	11	MARROW	872	n/a	n/a	0	0	0
2727.2158203125	n/a	REC_WORD	5585338	wordpools/wasnorm_wordpool_576.txt	LTP384	ltpFR2	0	11	POPCORN	1104	n/a	n/a	0	0	0
2765.71240234375	n/a	REC_WORD	5664179	wordpools/wasnorm_wordpool_576.txt	LTP384	ltpFR2	0	11	LEOPARD	812	n/a	n/a	0	0	0
2782.2451171875	n/a	WORD	5698038	wordpools/wasnorm_wordpool_576.txt	LTP384	ltpFR2	0	12	CHAPEL	280	n/a	n/a	0	0	0
2784.69580078125	n/a	WORD	5703057	wordpools/wasnorm_wordpool_576.txt	LTP384	ltpFR2	0	12	AIRPORT	13	n/a	n/a	0	0	0
2787.49609375	n/a	WORD	5708792	wordpools/wasnorm_wordpool_576.txt	LTP384	ltpFR2	0	12	WIFE	1609	n/a	n/a	0	0	0
2789.97900390625	n/a	WORD	5713877	wordpools/wasnorm_wordpool_576.txt	LTP384	ltpFR2	0	12	EGYPT	519	n/a	n/a	0	0	0
2792.62890625	n/a	WORD	5719304	wordpools/wasnorm_wordpool_576.txt	LTP384	ltpFR2	0	12	VENUS	1557	n/a	n/a	0	0	0
2795.14453125	n/a	WORD	5724456	wordpools/wasnorm_wordpool_576.txt	LTP384	ltpFR2	0	12	HORNET	718	n/a	n/a	0	0	0
2797.845703125	n/a	WORD	5729988	wordpools/wasnorm_wordpool_576.txt	LTP384	ltpFR2	0	12	VICTIM	1562	n/a	n/a	0	0	0
2800.6123046875	n/a	WORD	5735654	wordpools/wasnorm_wordpool_576.txt	LTP384	ltpFR2	0	12	GRAVE	658	n/a	n/a	0	0	0
2803.39453125	n/a	WORD	5741352	wordpools/wasnorm_wordpool_576.txt	LTP384	ltpFR2	0	12	FOOT	590	n/a	n/a	0	0	0
2806.22705078125	n/a	WORD	5747153	wordpools/wasnorm_wordpool_576.txt	LTP384	ltpFR2	0	12	CRAYON	401	n/a	n/a	0	0	0
2808.96142578125	n/a	WORD	5752753	wordpools/wasnorm_wordpool_576.txt	LTP384	ltpFR2	0	12	PASTRY	1022	n/a	n/a	0	0	0
2811.5283203125	n/a	WORD	5758010	wordpools/wasnorm_wordpool_576.txt	LTP384	ltpFR2	0	12	ICING	732	n/a	n/a	0	0	0
2814.27685546875	n/a	WORD	5763639	wordpools/wasnorm_wordpool_576.txt	LTP384	ltpFR2	0	12	MARKER	870	n/a	n/a	0	0	0
2816.81103515625	n/a	WORD	5768829	wordpools/wasnorm_wordpool_576.txt	LTP384	ltpFR2	0	12	WASHER	1592	n/a	n/a	0	0	0
2819.6279296875	n/a	WORD	5774598	wordpools/wasnorm_wordpool_576.txt	LTP384	ltpFR2	0	12	WIDOW	1608	n/a	n/a	0	0	0
2822.24365234375	n/a	WORD	5779955	wordpools/wasnorm_wordpool_576.txt	LTP384	ltpFR2	0	12	PILOT	1070	n/a	n/a	0	0	0
2824.7275390625	n/a	WORD	5785042	wordpools/wasnorm_wordpool_576.txt	LTP384	ltpFR2	0	12	ARM	38	n/a	n/a	0	0	0
2827.259765625	n/a	WORD	5790228	wordpools/wasnorm_wordpool_576.txt	LTP384	ltpFR2	0	12	VALLEY	1545	n/a	n/a	0	0	0
2829.87744140625	n/a	WORD	5795589	wordpools/wasnorm_wordpool_576.txt	LTP384	ltpFR2	0	12	SUMMIT	1405	n/a	n/a	0	0	0
2832.42626953125	n/a	WORD	5800809	wordpools/wasnorm_wordpool_576.txt	LTP384	ltpFR2	0	12	FRECKLE	602	n/a	n/a	0	0	0
2834.9931640625	n/a	WORD	5806066	wordpools/wasnorm_wordpool_576.txt	LTP384	ltpFR2	0	12	REBEL	1172	n/a	n/a	0	0	0
2837.7275390625	n/a	WORD	5811666	wordpools/wasnorm_wordpool_576.txt	LTP384	ltpFR2	0	12	SHERIFF	1284	n/a	n/a	0	0	0
2840.208984375	n/a	WORD	5816748	wordpools/wasnorm_wordpool_576.txt	LTP384	ltpFR2	0	12	TEMPLE	1448	n/a	n/a	0	0	0
2842.64306640625	n/a	WORD	5821733	wordpools/wasnorm_wordpool_576.txt	LTP384	ltpFR2	0	12	COTTAGE	384	n/a	n/a	0	0	0
2844.25927734375	n/a	START	5825043	n/a	LTP384	ltpFR2	0	n/a	n/a	n/a	19	n/a	n/a	n/a	n/a
2845.3291015625	n/a	DISTRACTOR	5827234	n/a	LTP384	ltpFR2	0	12	n/a	n/a	n/a	n/a	0	0	0
2845.34228515625	n/a	PROB	5827261	n/a	LTP384	ltpFR2	0	n/a	n/a	n/a	19	10	1	8	1
2847.759765625	n/a	PROB	5832212	n/a	LTP384	ltpFR2	0	n/a	n/a	n/a	19	11	5	1	5
2849.375	n/a	PROB	5835520	n/a	LTP384	ltpFR2	0	n/a	n/a	n/a	19	19	6	6	7
2853.9599609375	n/a	PROB	5844910	n/a	LTP384	ltpFR2	0	n/a	n/a	n/a	19	6	2	2	2
2855.37451171875	n/a	PROB	5847807	n/a	LTP384	ltpFR2	0	n/a	n/a	n/a	19	11	3	4	4
2861.20849609375	n/a	PROB	5859755	n/a	LTP384	ltpFR2	0	n/a	n/a	n/a	19	20	5	7	8
2864.19140625	n/a	PROB	5865864	n/a	LTP384	ltpFR2	0	n/a	n/a	n/a	19	12	1	5	6
2866.98828125	n/a	STOP	5871592	n/a	LTP384	ltpFR2	0	n/a	n/a	n/a	19	n/a	n/a	n/a	n/a
2870.04345703125	n/a	REC_START	5877849	n/a	LTP384	ltpFR2	0	12	n/a	n/a	n/a	n/a	0	0	0
2870.494140625	n/a	REC_WORD	5878772	wordpools/wasnorm_wordpool_576.txt	LTP384	ltpFR2	0	12	COTTAGE	384	n/a	n/a	0	0	0
2872.369140625	n/a	REC_WORD	5882612	wordpools/wasnorm_wordpool_576.txt	LTP384	ltpFR2	0	12	CHAPEL	280	n/a	n/a	0	0	0
2873.6533203125	n/a	REC_WORD	5885242	wordpools/wasnorm_wordpool_576.txt	LTP384	ltpFR2	0	12	AIRPORT	13	n/a	n/a	0	0	0
2874.734375	n/a	REC_WORD	5887456	wordpools/wasnorm_wordpool_576.txt	LTP384	ltpFR2	0	12	WIFE	1609	n/a	n/a	0	0	0
2875.80712890625	n/a	REC_WORD	5889653	wordpools/wasnorm_wordpool_576.txt	LTP384	ltpFR2	0	12	VICTIM	1562	n/a	n/a	0	0	0
2877.11083984375	n/a	REC_WORD	5892323	wordpools/wasnorm_wordpool_576.txt	LTP384	ltpFR2	0	12	WIDOW	1608	n/a	n/a	0	0	0
2879.634765625	n/a	REC_WORD	5897492	wordpools/wasnorm_wordpool_576.txt	LTP384	ltpFR2	0	12	GRAVE	658	n/a	n/a	0	0	0
2880.91015625	n/a	REC_WORD	5900104	wordpools/wasnorm_wordpool_576.txt	LTP384	ltpFR2	0	12	EGYPT	519	n/a	n/a	0	0	0
2882.19775390625	n/a	REC_WORD	5902741	wordpools/wasnorm_wordpool_576.txt	LTP384	ltpFR2	0	12	VENUS	1557	n/a	n/a	0	0	0
2888.37353515625	n/a	REC_WORD	5915389	wordpools/wasnorm_wordpool_576.txt	LTP384	ltpFR2	0	12	HORNET	718	n/a	n/a	0	0	0
2893.12841796875	n/a	REC_WORD	5925127	wordpools/wasnorm_wordpool_576.txt	LTP384	ltpFR2	0	12	SHERIFF	1284	n/a	n/a	0	0	0
2894.49755859375	n/a	REC_WORD	5927931	wordpools/wasnorm_wordpool_576.txt	LTP384	ltpFR2	0	12	REBEL	1172	n/a	n/a	0	0	0
2903.2802734375	n/a	REC_WORD	5945918	wordpools/wasnorm_wordpool_576.txt	LTP384	ltpFR2	0	12	PILOT	1070	n/a	n/a	0	0	0
2907.00634765625	n/a	REC_WORD	5953549	wordpools/wasnorm_wordpool_576.txt	LTP384	ltpFR2	0	12	TEMPLE	1448	n/a	n/a	0	0	0
2960.50439453125	n/a	WORD	6063113	wordpools/wasnorm_wordpool_576.txt	LTP384	ltpFR2	0	13	SPHINX	1349	n/a	n/a	0	0	0
2963.236328125	n/a	WORD	6068708	wordpools/wasnorm_wordpool_576.txt	LTP384	ltpFR2	0	13	EXPERT	543	n/a	n/a	0	0	0
2965.8544921875	n/a	WORD	6074070	wordpools/wasnorm_wordpool_576.txt	LTP384	ltpFR2	0	13	BOUQUET	157	n/a	n/a	0	0	0
2968.521484375	n/a	WORD	6079532	wordpools/wasnorm_wordpool_576.txt	LTP384	ltpFR2	0	13	SAUSAGE	1238	n/a	n/a	0	0	0
2971.3193359375	n/a	WORD	6085262	wordpools/wasnorm_wordpool_576.txt	LTP384	ltpFR2	0	13	POLICE	1098	n/a	n/a	0	0	0
2973.787109375	n/a	WORD	6090316	wordpools/wasnorm_wordpool_576.txt	LTP384	ltpFR2	0	13	AGENT	10	n/a	n/a	0	0	0
2976.2529296875	n/a	WORD	6095366	wordpools/wasnorm_wordpool_576.txt	LTP384	ltpFR2	0	13	MARKET	871	n/a	n/a	0	0	0
2979.06982421875	n/a	WORD	6101135	wordpools/wasnorm_wordpool_576.txt	LTP384	ltpFR2	0	13	PLAZA	1088	n/a	n/a	0	0	0
2981.86962890625	n/a	WORD	6106869	wordpools/wasnorm_wordpool_576.txt	LTP384	ltpFR2	0	13	DANCER	437	n/a	n/a	0	0	0
2984.4697265625	n/a	WORD	6112194	wordpools/wasnorm_wordpool_576.txt	LTP384	ltpFR2	0	13	UNCLE	1536	n/a	n/a	0	0	0
2987.20166015625	n/a	WORD	6117789	wordpools/wasnorm_wordpool_576.txt	LTP384	ltpFR2	0	13	TOMBSTONE	1478	n/a	n/a	0	0	0
2989.88671875	n/a	WORD	6123288	wordpools/wasnorm_wordpool_576.txt	LTP384	ltpFR2	0	13	GARBAGE	622	n/a	n/a	0	0	0
2992.552734375	n/a	WORD	6128748	wordpools/wasnorm_wordpool_576.txt	LTP384	ltpFR2	0	13	MAPLE	866	n/a	n/a	0	0	0
2995.25146484375	n/a	WORD	6134275	wordpools/wasnorm_wordpool_576.txt	LTP384	ltpFR2	0	13	SLOPE	1328	n/a	n/a	0	0	0
2998.01953125	n/a	WORD	6139944	wordpools/wasnorm_wordpool_576.txt	LTP384	ltpFR2	0	13	LIPSTICK	829	n/a	n/a	0	0	0
3000.7861328125	n/a	WORD	6145610	wordpools/wasnorm_wordpool_576.txt	LTP384	ltpFR2	0	13	MASK	876	n/a	n/a	0	0	0
3003.486328125	n/a	WORD	6151140	wordpools/wasnorm_wordpool_576.txt	LTP384	ltpFR2	0	13	ROBBER	1197	n/a	n/a	0	0	0
3006.05224609375	n/a	WORD	6156395	wordpools/wasnorm_wordpool_576.txt	LTP384	ltpFR2	0	13	QUARTER	1148	n/a	n/a	0	0	0
3008.51904296875	n/a	WORD	6161447	wordpools/wasnorm_wordpool_576.txt	LTP384	ltpFR2	0	13	JUNGLE	764	n/a	n/a	0	0	0
3010.9521484375	n/a	WORD	6166430	wordpools/wasnorm_wordpool_576.txt	LTP384	ltpFR2	0	13	PLIERS	1089	n/a	n/a	0	0	0
3013.41796875	n/a	WORD	6171480	wordpools/wasnorm_wordpool_576.txt	LTP384	ltpFR2	0	13	KNIFE	785	n/a	n/a	0	0	0
3016.03466796875	n/a	WORD	6176839	wordpools/wasnorm_wordpool_576.txt	LTP384	ltpFR2	0	13	COUSIN	392	n/a	n/a	0	0	0
3018.81884765625	n/a	WORD	6182541	wordpools/wasnorm_wordpool_576.txt	LTP384	ltpFR2	0	13	GYMNAST	675	n/a	n/a	0	0	0
3021.46875	n/a	WORD	6187968	wordpools/wasnorm_wordpool_576.txt	LTP384	ltpFR2	0	13	DRILL	497	n/a	n/a	0	0	0
3023.08544921875	n/a	START	6191279	n/a	LTP384	ltpFR2	0	n/a	n/a	n/a	20	n/a	n/a	n/a	n/a
3024.25732421875	n/a	DISTRACTOR	6193679	n/a	LTP384	ltpFR2	0	13	n/a	n/a	n/a	n/a	0	0	0
3024.267578125	n/a	PROB	6193700	n/a	LTP384	ltpFR2	0	n/a	n/a	n/a	20	21	5	8	8
3029.7841796875	n/a	PROB	6204998	n/a	LTP384	ltpFR2	0	n/a	n/a	n/a	20	12	5	3	4
3033.00146484375	n/a	PROB	6211587	n/a	LTP384	ltpFR2	0	n/a	n/a	n/a	20	19	2	9	8
3035.484375	n/a	PROB	6216672	n/a	LTP384	ltpFR2	0	n/a	n/a	n/a	20	17	4	7	6
3040.5341796875	n/a	PROB	6227014	n/a	LTP384	ltpFR2	0	n/a	n/a	n/a	20	15	9	2	4
3043.25	n/a	PROB	6232576	n/a	LTP384	ltpFR2	0	n/a	n/a	n/a	20	19	7	4	8
3045.67578125	n/a	STOP	6237544	n/a	LTP384	ltpFR2	0	n/a	n/a	n/a	20	n/a	n/a	n/a	n/a
3048.8837890625	n/a	REC_START	6244114	n/a	LTP384	ltpFR2	0	13	n/a	n/a	n/a	n/a	0	0	0
3049.1845703125	n/a	REC_WORD	6244730	wordpools/wasnorm_wordpool_576.txt	LTP384	ltpFR2	0	13	SPHINX	1349	n/a	n/a	0	0	0
3051.54345703125	n/a	REC_WORD	6249561	wordpools/wasnorm_wordpool_576.txt	LTP384	ltpFR2	0	13	PLIERS	1089	n/a	n/a	0	0	0
3052.8828125	n/a	REC_WORD	6252304	wordpools/wasnorm_wordpool_576.txt	LTP384	ltpFR2	0	13	COUSIN	392	n/a	n/a	0	0	0
3054.0205078125	n/a	REC_WORD	6254634	wordpools/wasnorm_wordpool_576.txt	LTP384	ltpFR2	0	13	POLICE	1098	n/a	n/a	0	0	0
3055.16845703125	n/a	REC_WORD	6256985	wordpools/wasnorm_wordpool_576.txt	LTP384	ltpFR2	0	13	MASK	876	n/a	n/a	0	0	0
3056.33837890625	n/a	REC_WORD	6259381	wordpools/wasnorm_wordpool_576.txt	LTP384	ltpFR2	0	13	ROBBER	1197	n/a	n/a	0	0	0
3057.86328125	n/a	REC_WORD	6262504	wordpools/wasnorm_wordpool_576.txt	LTP384	ltpFR2	0	13	LIPSTICK	829	n/a	n/a	0	0	0
3065.6962890625	n/a	REC_WORD	6278546	wordpools/wasnorm_wordpool_576.txt	LTP384	ltpFR2	0	13	UNCLE	1536	n/a	n/a	0	0	0
3069.01806640625	n/a	REC_WORD	6285349	wordpools/wasnorm_wordpool_576.txt	LTP384	ltpFR2	0	13	EXPERT	543	n/a	n/a	0	0	0
3098.494140625	n/a	REC_WORD	6345716	wordpools/wasnorm_wordpool_576.txt	LTP384	ltpFR2	0	13	GYMNAST	675	n/a	n/a	0	0	0
3103.171875	n/a	REC_WORD	6355296	wordpools/wasnorm_wordpool_576.txt	LTP384	ltpFR2	0	13	KNIFE	785	n/a	n/a	0	0	0
3117.9345703125	n/a	REC_WORD	6385530	wordpools/wasnorm_wordpool_576.txt	LTP384	ltpFR2	0	13	QUARTER	1148	n/a	n/a	0	0	0
3120.12841796875	n/a	REC_WORD	6390023	wordpools/wasnorm_wordpool_576.txt	LTP384	ltpFR2	0	13	JUNGLE	764	n/a	n/a	0	0	0
3139.328125	n/a	DISTRACTOR	6429344	n/a	LTP384	ltpFR2	0	14	n/a	n/a	n/a	n/a	0	0	0
3139.3291015625	n/a	START	6429346	n/a	LTP384	ltpFR2	0	n/a	n/a	n/a	21	n/a	n/a	n/a	n/a
3139.34521484375	n/a	PROB	6429379	n/a	LTP384	ltpFR2	0	n/a	n/a	n/a	21	16	6	5	5
3142.7958984375	n/a	PROB	6436446	n/a	LTP384	ltpFR2	0	n/a	n/a	n/a	21	12	2	7	3
3145.02880859375	n/a	PROB	6441019	n/a	LTP384	ltpFR2	0	n/a	n/a	n/a	21	19	9	7	3
3148.0458984375	n/a	PROB	6447198	n/a	LTP384	ltpFR2	0	n/a	n/a	n/a	21	26	8	9	9
3153.07861328125	n/a	PROB	6457505	n/a	LTP384	ltpFR2	0	n/a	n/a	n/a	21	10	1	1	8
3155.01171875	n/a	PROB	6461464	n/a	LTP384	ltpFR2	0	n/a	n/a	n/a	21	16	3	6	7
3163.328125	n/a	STOP	6478496	n/a	LTP384	ltpFR2	0	n/a	n/a	n/a	21	n/a	n/a	n/a	n/a
3164.17724609375	n/a	WORD	6480235	wordpools/wasnorm_wordpool_576.txt	LTP384	ltpFR2	0	14	DONKEY	484	n/a	n/a	0	0	0
3166.72802734375	n/a	WORD	6485459	wordpools/wasnorm_wordpool_576.txt	LTP384	ltpFR2	0	14	GUARD	667	n/a	n/a	0	0	0
3169.244140625	n/a	WORD	6490612	wordpools/wasnorm_wordpool_576.txt	LTP384	ltpFR2	0	14	COCKTAIL	338	n/a	n/a	0	0	0
3171.927734375	n/a	WORD	6496108	wordpools/wasnorm_wordpool_576.txt	LTP384	ltpFR2	0	14	WRENCH	1625	n/a	n/a	0	0	0
3174.4951171875	n/a	WORD	6501366	wordpools/wasnorm_wordpool_576.txt	LTP384	ltpFR2	0	14	OUTLAW	989	n/a	n/a	0	0	0
3176.9609375	n/a	WORD	6506416	wordpools/wasnorm_wordpool_576.txt	LTP384	ltpFR2	0	14	THIEF	1456	n/a	n/a	0	0	0
3179.6435546875	n/a	WORD	6511910	wordpools/wasnorm_wordpool_576.txt	LTP384	ltpFR2	0	14	DAISY	435	n/a	n/a	0	0	0
3182.15966796875	n/a	WORD	6517063	wordpools/wasnorm_wordpool_576.txt	LTP384	ltpFR2	0	14	INFANT	737	n/a	n/a	0	0	0
3184.8603515625	n/a	WORD	6522594	wordpools/wasnorm_wordpool_576.txt	LTP384	ltpFR2	0	14	BROTHER	179	n/a	n/a	0	0	0
3187.59326171875	n/a	WORD	6528191	wordpools/wasnorm_wordpool_576.txt	LTP384	ltpFR2	0	14	ROBOT	1200	n/a	n/a	0	0	0
3190.4091796875	n/a	WORD	6533958	wordpools/wasnorm_wordpool_576.txt	LTP384	ltpFR2	0	14	CUSTARD	429	n/a	n/a	0	0	0
3193.12646484375	n/a	WORD	6539523	wordpools/wasnorm_wordpool_576.txt	LTP384	ltpFR2	0	14	MACHINE	852	n/a	n/a	0	0	0
3195.76025390625	n/a	WORD	6544917	wordpools/wasnorm_wordpool_576.txt	LTP384	ltpFR2	0	14	SHIRT	1287	n/a	n/a	0	0	0
3198.4931640625	n/a	WORD	6550514	wordpools/wasnorm_wordpool_576.txt	LTP384	ltpFR2	0	14	JEANS	752	n/a	n/a	0	0	0
3201.01025390625	n/a	WORD	6555669	wordpools/wasnorm_wordpool_576.txt	LTP384	ltpFR2	0	14	MAILMAN	858	n/a	n/a	0	0	0
3203.69287109375	n/a	WORD	6561163	wordpools/wasnorm_wordpool_576.txt	LTP384	ltpFR2	0	14	SUPPER	1411	n/a	n/a	0	0	0
3206.208984375	n/a	WORD	6566316	wordpools/wasnorm_wordpool_576.txt	LTP384	ltpFR2	0	14	WAITER	1580	n/a	n/a	0	0	0
3208.8427734375	n/a	WORD	6571710	wordpools/wasnorm_wordpool_576.txt	LTP384	ltpFR2	0	14	PREACHER	1119	n/a	n/a	0	0	0
3211.5595703125	n/a	WORD	6577274	wordpools/wasnorm_wordpool_576.txt	LTP384	ltpFR2	0	14	CROSS	413	n/a	n/a	0	0	0
3214.07568359375	n/a	WORD	6582427	wordpools/wasnorm_wordpool_576.txt	LTP384	ltpFR2	0	14	FLESH	579	n/a	n/a	0	0	0
3216.65966796875	n/a	WORD	6587719	wordpools/wasnorm_wordpool_576.txt	LTP384	ltpFR2	0	14	CARRIAGE	248	n/a	n/a	0	0	0
3219.45849609375	n/a	WORD	6593451	wordpools/wasnorm_wordpool_576.txt	LTP384	ltpFR2	0	14	SCOTCH	1251	n/a	n/a	0	0	0
3222.0751953125	n/a	WORD	6598810	wordpools/wasnorm_wordpool_576.txt	LTP384	ltpFR2	0	14	YOLK	1633	n/a	n/a	0	0	0
3224.80810546875	n/a	WORD	6604407	wordpools/wasnorm_wordpool_576.txt	LTP384	ltpFR2	0	14	TRACTOR	1493	n/a	n/a	0	0	0
3226.42431640625	n/a	START	6607717	n/a	LTP384	ltpFR2	0	n/a	n/a	n/a	22	n/a	n/a	n/a	n/a
3227.451171875	n/a	DISTRACTOR	6609820	n/a	LTP384	ltpFR2	0	14	n/a	n/a	n/a	n/a	0	0	0
3227.4580078125	n/a	PROB	6609834	n/a	LTP384	ltpFR2	0	n/a	n/a	n/a	22	21	8	4	9
3231.9921875	n/a	PROB	6619120	n/a	LTP384	ltpFR2	0	n/a	n/a	n/a	22	13	2	6	5
3236.15673828125	n/a	PROB	6627649	n/a	LTP384	ltpFR2	0	n/a	n/a	n/a	22	22	8	5	9
3240.7919921875	n/a	PROB	6637142	n/a	LTP384	ltpFR2	0	n/a	n/a	n/a	22	12	5	6	1
3243.94091796875	n/a	PROB	6643591	n/a	LTP384	ltpFR2	0	n/a	n/a	n/a	22	19	9	5	5
3246.2236328125	n/a	PROB	6648266	n/a	LTP384	ltpFR2	0	n/a	n/a	n/a	22	16	2	9	5
3249.1865234375	n/a	STOP	6654334	n/a	LTP384	ltpFR2	0	n/a	n/a	n/a	22	n/a	n/a	n/a	n/a
3252.1904296875	n/a	REC_START	6660486	n/a	LTP384	ltpFR2	0	14	n/a	n/a	n/a	n/a	0	0	0
3252.63525390625	n/a	REC_WORD	6661397	wordpools/wasnorm_wordpool_576.txt	LTP384	ltpFR2	0	14	SCOTCH	1251	n/a	n/a	0	0	0
3254.00634765625	n/a	REC_WORD	6664205	wordpools/wasnorm_wordpool_576.txt	LTP384	ltpFR2	0	14	YOLK	1633	n/a	n/a	0	0	0
3256.49853515625	n/a	REC_WORD	6669309	wordpools/wasnorm_wordpool_576.txt	LTP384	ltpFR2	0	14	WRENCH	1625	n/a	n/a	0	0	0
3258.75048828125	n/a	REC_WORD	6673921	wordpools/wasnorm_wordpool_576.txt	LTP384	ltpFR2	0	14	THIEF	1456	n/a	n/a	0	0	0
3264.244140625	n/a	REC_WORD	6685172	wordpools/wasnorm_wordpool_576.txt	LTP384	ltpFR2	0	14	TRACTOR	1493	n/a	n/a	0	0	0
3275.0849609375	n/a	REC_WORD	6707374	wordpools/wasnorm_wordpool_576.txt	LTP384	ltpFR2	0	14	MAILMAN	858	n/a	n/a	0	0	0
3282.025390625	n/a	REC_WORD	6721588	wordpools/wasnorm_wordpool_576.txt	LTP384	ltpFR2	0	14	DONKEY	484	n/a	n/a	0	0	0
3283.17236328125	n/a	REC_WORD	6723937	wordpools/wasnorm_wordpool_576.txt	LTP384	ltpFR2	0	14	DAISY	435	n/a	n/a	0	0	0
3342.61962890625	n/a	WORD	6845685	wordpools/wasnorm_wordpool_576.txt	LTP384	ltpFR2	0	15	HAND	683	n/a	n/a	0	0	0
3345.2685546875	n/a	WORD	6851110	wordpools/wasnorm_wordpool_576.txt	LTP384	ltpFR2	0	15	CHURCH	307	n/a	n/a	0	0	0
3347.70263671875	n/a	WORD	6856095	wordpools/wasnorm_wordpool_576.txt	LTP384	ltpFR2	0	15	IDOL	733	n/a	n/a	0	0	0
3350.33544921875	n/a	WORD	6861487	wordpools/wasnorm_wordpool_576.txt	LTP384	ltpFR2	0	15	SPARROW	1347	n/a	n/a	0	0	0
3353.01953125	n/a	WORD	6866984	wordpools/wasnorm_wordpool_576.txt	LTP384	ltpFR2	0	15	CREATURE	403	n/a	n/a	0	0	0
3355.58642578125	n/a	WORD	6872241	wordpools/wasnorm_wordpool_576.txt	LTP384	ltpFR2	0	15	LIZARD	834	n/a	n/a	0	0	0
3358.201171875	n/a	WORD	6877596	wordpools/wasnorm_wordpool_576.txt	LTP384	ltpFR2	0	15	SHELF	1280	n/a	n/a	0	0	0
3360.80224609375	n/a	WORD	6882923	wordpools/wasnorm_wordpool_576.txt	LTP384	ltpFR2	0	15	AUTHOR	61	n/a	n/a	0	0	0
3363.35107421875	n/a	WORD	6888143	wordpools/wasnorm_wordpool_576.txt	LTP384	ltpFR2	0	15	HEADBAND	696	n/a	n/a	0	0	0
3365.9189453125	n/a	WORD	6893402	wordpools/wasnorm_wordpool_576.txt	LTP384	ltpFR2	0	15	OUTDOORS	987	n/a	n/a	0	0	0
3368.61865234375	n/a	WORD	6898931	wordpools/wasnorm_wordpool_576.txt	LTP384	ltpFR2	0	15	SNACK	1331	n/a	n/a	0	0	0
3371.1337890625	n/a	WORD	6904082	wordpools/wasnorm_wordpool_576.txt	LTP384	ltpFR2	0	15	SHORTCAKE	1292	n/a	n/a	0	0	0
3373.7685546875	n/a	WORD	6909478	wordpools/wasnorm_wordpool_576.txt	LTP384	ltpFR2	0	15	TRENCH	1503	n/a	n/a	0	0	0
3376.36767578125	n/a	WORD	6914801	wordpools/wasnorm_wordpool_576.txt	LTP384	ltpFR2	0	15	TOASTER	1472	n/a	n/a	0	0	0
3378.9345703125	n/a	WORD	6920058	wordpools/wasnorm_wordpool_576.txt	LTP384	ltpFR2	0	15	PUDDING	1139	n/a	n/a	0	0	0
3381.50146484375	n/a	WORD	6925315	wordpools/wasnorm_wordpool_576.txt	LTP384	ltpFR2	0	15	BANQUET	86	n/a	n/a	0	0	0
3384.05126953125	n/a	WORD	6930537	wordpools/wasnorm_wordpool_576.txt	LTP384	ltpFR2	0	15	DORM	488	n/a	n/a	0	0	0
3386.66748046875	n/a	WORD	6935895	wordpools/wasnorm_wordpool_576.txt	LTP384	ltpFR2	0	15	KNAPSACK	783	n/a	n/a	0	0	0
3389.283203125	n/a	WORD	6941252	wordpools/wasnorm_wordpool_576.txt	LTP384	ltpFR2	0	15	INMATE	738	n/a	n/a	0	0	0
3392.05126953125	n/a	WORD	6946921	wordpools/wasnorm_wordpool_576.txt	LTP384	ltpFR2	0	15	TART	1436	n/a	n/a	0	0	0
3394.76708984375	n/a	WORD	6952483	wordpools/wasnorm_wordpool_576.txt	LTP384	ltpFR2	0	15	PIGEON	1065	n/a	n/a	0	0	0
3397.3330078125	n/a	WORD	6957738	wordpools/wasnorm_wordpool_576.txt	LTP384	ltpFR2	0	15	DANDRUFF	439	n/a	n/a	0	0	0
3399.95068359375	n/a	WORD	6963099	wordpools/wasnorm_wordpool_576.txt	LTP384	ltpFR2	0	15	UMPIRE	1535	n/a	n/a	0	0	0
3402.583984375	n/a	WORD	6968492	wordpools/wasnorm_wordpool_576.txt	LTP384	ltpFR2	0	15	HONEY	713	n/a	n/a	0	0	0
3404.19970703125	n/a	START	6971801	n/a	LTP384	ltpFR2	0	n/a	n/a	n/a	23	n/a	n/a	n/a	n/a
3405.27978515625	n/a	DISTRACTOR	6974013	n/a	LTP384	ltpFR2	0	15	n/a	n/a	n/a	n/a	0	0	0
3405.28271484375	n/a	PROB	6974019	n/a	LTP384	ltpFR2	0	n/a	n/a	n/a	23	20	3	9	8
3409.265625	n/a	PROB	6982176	n/a	LTP384	ltpFR2	0	n/a	n/a	n/a	23	12	4	5	3
3412.41552734375	n/a	PROB	6988627	n/a	LTP384	ltpFR2	0	n/a	n/a	n/a	23	21	9	8	4
3416.365234375	n/a	PROB	6996716	n/a	LTP384	ltpFR2	0	n/a	n/a	n/a	23	20	8	7	5
3419.232421875	n/a	PROB	7002588	n/a	LTP384	ltpFR2	0	n/a	n/a	n/a	23	11	2	4	7
3428.19921875	n/a	STOP	7020952	n/a	LTP384	ltpFR2	0	n/a	n/a	n/a	23	n/a	n/a	n/a	n/a
3430.1650390625	n/a	REC_START	7024978	n/a	LTP384	ltpFR2	0	15	n/a	n/a	n/a	n/a	0	0	0
3431.39013671875	n/a	REC_WORD	7027487	wordpools/wasnorm_wordpool_576.txt	LTP384	ltpFR2	0	15	UMPIRE	1535	n/a	n/a	0	0	0
3432.427734375	n/a	REC_WORD	7029612	wordpools/wasnorm_wordpool_576.txt	LTP384	ltpFR2	0	15	DANDRUFF	439	n/a	n/a	0	0	0
3435.90673828125	n/a	REC_WORD	7036737	wordpools/wasnorm_wordpool_576.txt	LTP384	ltpFR2	0	15	KNAPSACK	783	n/a	n/a	0	0	0
3454.6142578125	n/a	REC_WORD	7075050	wordpools/wasnorm_wordpool_576.txt	LTP384	ltpFR2	0	15	SNACK	1331	n/a	n/a	0	0	0
3457.498046875	n/a	REC_WORD	7080956	wordpools/wasnorm_wordpool_576.txt	LTP384	ltpFR2	0	15	SHELF	1280	n/a	n/a	0	0	0
3461.11181640625	n/a	REC_WORD	7088357	wordpools/wasnorm_wordpool_576.txt	LTP384	ltpFR2	0	15	IDOL	733	n/a	n/a	0	0	0
3462.76513671875	n/a	REC_WORD	7091743	wordpools/wasnorm_wordpool_576.txt	LTP384	ltpFR2	0	15	HAND	683	n/a	n/a	0	0	0
3465.77294921875	n/a	REC_WORD	7097903	wordpools/wasnorm_wordpool_576.txt	LTP384	ltpFR2	0	15	LIZARD	834	n/a	n/a	0	0	0
3467.0478515625	n/a	REC_WORD	7100514	wordpools/wasnorm_wordpool_576.txt	LTP384	ltpFR2	0	15	CREATURE	403	n/a	n/a	0	0	0
3469.1396484375	n/a	REC_WORD	7104798	wordpools/wasnorm_wordpool_576.txt	LTP384	ltpFR2	0	15	SPARROW	1347	n/a	n/a	0	0	0
3471.0107421875	n/a	REC_WORD	7108630	wordpools/wasnorm_wordpool_576.txt	LTP384	ltpFR2	0	15	CHURCH	307	n/a	n/a	0	0	0
3473.24072265625	n/a	REC_WORD	7113197	wordpools/wasnorm_wordpool_576.txt	LTP384	ltpFR2	0	15	AUTHOR	61	n/a	n/a	0	0	0
3520.59423828125	n/a	WORD	7210177	wordpools/wasnorm_wordpool_576.txt	LTP384	ltpFR2	0	16	HUMAN	726	n/a	n/a	0	0	0
3523.34423828125	n/a	WORD	7215809	wordpools/wasnorm_wordpool_576.txt	LTP384	ltpFR2	0	16	BODY	145	n/a	n/a	0	0	0
3525.9609375	n/a	WORD	7221168	wordpools/wasnorm_wordpool_576.txt	LTP384	ltpFR2	0	16	FLUTE	585	n/a	n/a	0	0	0
3528.44384765625	n/a	WORD	7226253	wordpools/wasnorm_wordpool_576.txt	LTP384	ltpFR2	0	16	FIDDLE	561	n/a	n/a	0	0	0
3531.15966796875	n/a	WORD	7231815	wordpools/wasnorm_wordpool_576.txt	LTP384	ltpFR2	0	16	FILM	565	n/a	n/a	0	0	0
3533.59375	n/a	WORD	7236800	wordpools/wasnorm_wordpool_576.txt	LTP384	ltpFR2	0	16	DRAWING	494	n/a	n/a	0	0	0
3536.392578125	n/a	WORD	7242532	wordpools/wasnorm_wordpool_576.txt	LTP384	ltpFR2	0	16	WOMAN	1620	n/a	n/a	0	0	0
3538.99365234375	n/a	WORD	7247859	wordpools/wasnorm_wordpool_576.txt	LTP384	ltpFR2	0	16	COD	340	n/a	n/a	0	0	0
3541.59375	n/a	WORD	7253184	wordpools/wasnorm_wordpool_576.txt	LTP384	ltpFR2	0	16	RATTLE	1170	n/a	n/a	0	0	0
3544.359375	n/a	WORD	7258848	wordpools/wasnorm_wordpool_576.txt	LTP384	ltpFR2	0	16	PRINCESS	1125	n/a	n/a	0	0	0
3546.92626953125	n/a	WORD	7264105	wordpools/wasnorm_wordpool_576.txt	LTP384	ltpFR2	0	16	LABEL	790	n/a	n/a	0	0	0
3549.37548828125	n/a	WORD	7269121	wordpools/wasnorm_wordpool_576.txt	LTP384	ltpFR2	0	16	REPORT	1184	n/a	n/a	0	0	0
3552.1591796875	n/a	WORD	7274822	wordpools/wasnorm_wordpool_576.txt	LTP384	ltpFR2	0	16	FEMALE	559	n/a	n/a	0	0	0
3554.9599609375	n/a	WORD	7280558	wordpools/wasnorm_wordpool_576.txt	LTP384	ltpFR2	0	16	TEACHER	1440	n/a	n/a	0	0	0
3557.39208984375	n/a	WORD	7285539	wordpools/wasnorm_wordpool_576.txt	LTP384	ltpFR2	0	16	ELBOW	520	n/a	n/a	0	0	0
3560.009765625	n/a	WORD	7290900	wordpools/wasnorm_wordpool_576.txt	LTP384	ltpFR2	0	16	HIGHWAY	707	n/a	n/a	0	0	0
3562.81005859375	n/a	WORD	7296635	wordpools/wasnorm_wordpool_576.txt	LTP384	ltpFR2	0	16	CABBAGE	210	n/a	n/a	0	0	0
3565.5087890625	n/a	WORD	7302162	wordpools/wasnorm_wordpool_576.txt	LTP384	ltpFR2	0	16	NURSE	963	n/a	n/a	0	0	0
3568.2578125	n/a	WORD	7307792	wordpools/wasnorm_wordpool_576.txt	LTP384	ltpFR2	0	16	SALMON	1227	n/a	n/a	0	0	0
3570.8427734375	n/a	WORD	7313086	wordpools/wasnorm_wordpool_576.txt	LTP384	ltpFR2	0	16	CHEMIST	292	n/a	n/a	0	0	0
3573.40771484375	n/a	WORD	7318339	wordpools/wasnorm_wordpool_576.txt	LTP384	ltpFR2	0	16	MATCH	878	n/a	n/a	0	0	0
3575.87548828125	n/a	WORD	7323393	wordpools/wasnorm_wordpool_576.txt	LTP384	ltpFR2	0	16	MARINE	869	n/a	n/a	0	0	0
3578.32421875	n/a	WORD	7328408	wordpools/wasnorm_wordpool_576.txt	LTP384	ltpFR2	0	16	RECORD	1176	n/a	n/a	0	0	0
3580.79248046875	n/a	WORD	7333463	wordpools/wasnorm_wordpool_576.txt	LTP384	ltpFR2	0	16	ACTOR	5	n/a	n/a	0	0	0
3582.4072265625	n/a	START	7336770	n/a	LTP384	ltpFR2	0	n/a	n/a	n/a	24	n/a	n/a	n/a	n/a
3583.2470703125	n/a	DISTRACTOR	7338490	n/a	LTP384	ltpFR2	0	16	n/a	n/a	n/a	n/a	0	0	0
3583.25732421875	n/a	PROB	7338511	n/a	LTP384	ltpFR2	0	n/a	n/a	n/a	24	22	8	9	5
3588.240234375	n/a	PROB	7348716	n/a	LTP384	ltpFR2	0	n/a	n/a	n/a	24	16	3	6	7
3591.541015625	n/a	PROB	7355476	n/a	LTP384	ltpFR2	0	n/a	n/a	n/a	24	17	6	2	9
3594.4580078125	n/a	PROB	7361450	n/a	LTP384	ltpFR2	0	n/a	n/a	n/a	24	7	1	4	2
3596.99072265625	n/a	PROB	7366637	n/a	LTP384	ltpFR2	0	n/a	n/a	n/a	24	11	1	6	4
3598.890625	n/a	PROB	7370528	n/a	LTP384	ltpFR2	0	n/a	n/a	n/a	24	10	6	1	3
3606.40673828125	n/a	STOP	7385921	n/a	LTP384	ltpFR2	0	n/a	n/a	n/a	24	n/a	n/a	n/a	n/a
3608.17333984375	n/a	REC_START	7389539	n/a	LTP384	ltpFR2	0	16	n/a	n/a	n/a	n/a	0	0	0
3608.6826171875	n/a	REC_WORD	7390582	wordpools/wasnorm_wordpool_576.txt	LTP384	ltpFR2	0	16	HUMAN	726	n/a	n/a	0	0	0
3609.6171875	n/a	REC_WORD	7392496	wordpools/wasnorm_wordpool_576.txt	LTP384	ltpFR2	0	16	BODY	145	n/a	n/a	0	0	0
3610.5166015625	n/a	REC_WORD	7394338	wordpools/wasnorm_wordpool_576.txt	LTP384	ltpFR2	0	16	DRAWING	494	n/a	n/a	0	0	0
3612.7412109375	n/a	REC_WORD	7398894	wordpools/wasnorm_wordpool_576.txt	LTP384	ltpFR2	0	16	COD	340	n/a	n/a	0	0	0
3613.8251953125	n/a	REC_WORD	7401114	wordpools/wasnorm_wordpool_576.txt	LTP384	ltpFR2	0	16	SALMON	1227	n/a	n/a	0	0	0
3616.2734375	n/a	REC_WORD	7406128	wordpools/wasnorm_wordpool_576.txt	LTP384	ltpFR2	0	16	FLUTE	585	n/a	n/a	0	0	0
3617.31103515625	n/a	REC_WORD	7408253	wordpools/wasnorm_wordpool_576.txt	LTP384	ltpFR2	0	16	FIDDLE	561	n/a	n/a	0	0	0
3618.3203125	n/a	REC_WORD	7410320	wordpools/wasnorm_wordpool_576.txt	LTP384	ltpFR2	0	16	RATTLE	1170	n/a	n/a	0	0	0
3620.09423828125	n/a	REC_WORD	7413953	wordpools/wasnorm_wordpool_576.txt	LTP384	ltpFR2	0	16	NURSE	963	n/a	n/a	0	0	0
3621.23828125	n/a	REC_WORD	7416296	wordpools/wasnorm_wordpool_576.txt	LTP384	ltpFR2	0	16	TEACHER	1440	n/a	n/a	0	0	0
3622.30322265625	n/a	REC_WORD	7418477	wordpools/wasnorm_wordpool_576.txt	LTP384	ltpFR2	0	16	MARINE	869	n/a	n/a	0	0	0
3623.44384765625	n/a	REC_WORD	7420813	wordpools/wasnorm_wordpool_576.txt	LTP384	ltpFR2	0	16	CHEMIST	292	n/a	n/a	0	0	0
3624.5439453125	n/a	REC_WORD	7423066	wordpools/wasnorm_wordpool_576.txt	LTP384	ltpFR2	0	16	WOMAN	1620	n/a	n/a	0	0	0
3625.5458984375	n/a	REC_WORD	7425118	wordpools/wasnorm_wordpool_576.txt	LTP384	ltpFR2	0	16	FEMALE	559	n/a	n/a	0	0	0
3628.32763671875	n/a	REC_WORD	7430815	wordpools/wasnorm_wordpool_576.txt	LTP384	ltpFR2	0	16	LABEL	790	n/a	n/a	0	0	0
3629.5419921875	n/a	REC_WORD	7433302	wordpools/wasnorm_wordpool_576.txt	LTP384	ltpFR2	0	16	RECORD	1176	n/a	n/a	0	0	0
3632.56982421875	n/a	REC_WORD	7439503	wordpools/wasnorm_wordpool_576.txt	LTP384	ltpFR2	0	16	MATCH	878	n/a	n/a	0	0	0
3645.88623046875	n/a	REC_WORD	7466775	wordpools/wasnorm_wordpool_576.txt	LTP384	ltpFR2	0	16	ELBOW	520	n/a	n/a	0	0	0
3665.5986328125	n/a	REC_WORD	7507146	wordpools/wasnorm_wordpool_576.txt	LTP384	ltpFR2	0	16	NURSE	963	n/a	n/a	0	0	0
3684.7041015625	n/a	REST_REWET	7546274	n/a	LTP384	ltpFR2	0	16	n/a	n/a	n/a	n/a	0	0	0
3753.60009765625	n/a	WORD	7687373	wordpools/wasnorm_wordpool_576.txt	LTP384	ltpFR2	0	17	PASTA	1021	n/a	n/a	0	0	0
3756.23291015625	n/a	WORD	7692765	wordpools/wasnorm_wordpool_576.txt	LTP384	ltpFR2	0	17	COUCH	386	n/a	n/a	0	0	0
3758.68359375	n/a	WORD	7697784	wordpools/wasnorm_wordpool_576.txt	LTP384	ltpFR2	0	17	ROBIN	1199	n/a	n/a	0	0	0
3761.265625	n/a	WORD	7703072	wordpools/wasnorm_wordpool_576.txt	LTP384	ltpFR2	0	17	MILDEW	893	n/a	n/a	0	0	0
3763.78369140625	n/a	WORD	7708229	wordpools/wasnorm_wordpool_576.txt	LTP384	ltpFR2	0	17	STREAM	1392	n/a	n/a	0	0	0
3766.24853515625	n/a	WORD	7713277	wordpools/wasnorm_wordpool_576.txt	LTP384	ltpFR2	0	17	SPACE	1345	n/a	n/a	0	0	0
3768.982421875	n/a	WORD	7718876	wordpools/wasnorm_wordpool_576.txt	LTP384	ltpFR2	0	17	COMET	353	n/a	n/a	0	0	0
3771.5166015625	n/a	WORD	7724066	wordpools/wasnorm_wordpool_576.txt	LTP384	ltpFR2	0	17	TABLET	1427	n/a	n/a	0	0	0
3773.94921875	n/a	WORD	7729048	wordpools/wasnorm_wordpool_576.txt	LTP384	ltpFR2	0	17	BOARD	143	n/a	n/a	0	0	0
3776.7490234375	n/a	WORD	7734782	wordpools/wasnorm_wordpool_576.txt	LTP384	ltpFR2	0	17	FRAGRANCE	599	n/a	n/a	0	0	0
3779.26513671875	n/a	WORD	7739935	wordpools/wasnorm_wordpool_576.txt	LTP384	ltpFR2	0	17	PORTRAIT	1111	n/a	n/a	0	0	0
3781.83203125	n/a	WORD	7745192	wordpools/wasnorm_wordpool_576.txt	LTP384	ltpFR2	0	17	TRIBE	1505	n/a	n/a	0	0	0
3784.39794921875	n/a	WORD	7750447	wordpools/wasnorm_wordpool_576.txt	LTP384	ltpFR2	0	17	VELVET	1555	n/a	n/a	0	0	0
3786.9990234375	n/a	WORD	7755774	wordpools/wasnorm_wordpool_576.txt	LTP384	ltpFR2	0	17	STAKE	1368	n/a	n/a	0	0	0
3789.73193359375	n/a	WORD	7761371	wordpools/wasnorm_wordpool_576.txt	LTP384	ltpFR2	0	17	DONOR	485	n/a	n/a	0	0	0
3792.49853515625	n/a	WORD	7767037	wordpools/wasnorm_wordpool_576.txt	LTP384	ltpFR2	0	17	NAPKIN	937	n/a	n/a	0	0	0
3795.3134765625	n/a	WORD	7772802	wordpools/wasnorm_wordpool_576.txt	LTP384	ltpFR2	0	17	STAPLE	1371	n/a	n/a	0	0	0
3798.0146484375	n/a	WORD	7778334	wordpools/wasnorm_wordpool_576.txt	LTP384	ltpFR2	0	17	SURVEY	1414	n/a	n/a	0	0	0
3800.69873046875	n/a	WORD	7783831	wordpools/wasnorm_wordpool_576.txt	LTP384	ltpFR2	0	17	BROOK	177	n/a	n/a	0	0	0
3803.1474609375	n/a	WORD	7788846	wordpools/wasnorm_wordpool_576.txt	LTP384	ltpFR2	0	17	DUST	508	n/a	n/a	0	0	0
3805.7314453125	n/a	WORD	7794138	wordpools/wasnorm_wordpool_576.txt	LTP384	ltpFR2	0	17	CRUTCH	417	n/a	n/a	0	0	0
3808.46435546875	n/a	WORD	7799735	wordpools/wasnorm_wordpool_576.txt	LTP384	ltpFR2	0	17	SCULPTURE	1258	n/a	n/a	0	0	0
3810.9970703125	n/a	WORD	7804922	wordpools/wasnorm_wordpool_576.txt	LTP384	ltpFR2	0	17	PERFUME	1049	n/a	n/a	0	0	0
3813.5810546875	n/a	WORD	7810214	wordpools/wasnorm_wordpool_576.txt	LTP384	ltpFR2	0	17	GROUND	666	n/a	n/a	0	0	0
3815.197265625	n/a	START	7813524	n/a	LTP384	ltpFR2	0	n/a	n/a	n/a	25	n/a	n/a	n/a	n/a
3816.31982421875	n/a	DISTRACTOR	7815823	n/a	LTP384	ltpFR2	0	17	n/a	n/a	n/a	n/a	0	0	0
3816.330078125	n/a	PROB	7815844	n/a	LTP384	ltpFR2	0	n/a	n/a	n/a	25	13	3	7	3
3818.73095703125	n/a	PROB	7820761	n/a	LTP384	ltpFR2	0	n/a	n/a	n/a	25	14	5	3	6
3821.94677734375	n/a	PROB	7827347	n/a	LTP384	ltpFR2	0	n/a	n/a	n/a	25	11	2	4	5
3824.212890625	n/a	PROB	7831988	n/a	LTP384	ltpFR2	0	n/a	n/a	n/a	25	19	8	8	3
3826.6796875	n/a	PROB	7837040	n/a	LTP384	ltpFR2	0	n/a	n/a	n/a	25	10	2	6	2
3830.1455078125	n/a	PROB	7844138	n/a	LTP384	ltpFR2	0	n/a	n/a	n/a	25	11	2	2	7
3832.1455078125	n/a	PROB	7848234	n/a	LTP384	ltpFR2	0	n/a	n/a	n/a	25	20	8	8	4
3834.095703125	n/a	PROB	7852228	n/a	LTP384	ltpFR2	0	n/a	n/a	n/a	25	12	4	6	2
3835.8134765625	n/a	PROB	7855746	n/a	LTP384	ltpFR2	0	n/a	n/a	n/a	25	14	4	6	4
3839.1962890625	n/a	STOP	7862674	n/a	LTP384	ltpFR2	0	n/a	n/a	n/a	25	n/a	n/a	n/a	n/a
3841.1455078125	n/a	REC_START	7866666	n/a	LTP384	ltpFR2	0	17	n/a	n/a	n/a	n/a	0	0	0
3842.8193359375	n/a	REC_WORD	7870094	wordpools/wasnorm_wordpool_576.txt	LTP384	ltpFR2	0	17	PASTA	1021	n/a	n/a	0	0	0
3843.89599609375	n/a	REC_WORD	7872299	wordpools/wasnorm_wordpool_576.txt	LTP384	ltpFR2	0	17	COUCH	386	n/a	n/a	0	0	0
3844.96728515625	n/a	REC_WORD	7874493	wordpools/wasnorm_wordpool_576.txt	LTP384	ltpFR2	0	17	ROBIN	1199	n/a	n/a	0	0	0
3845.97021484375	n/a	REC_WORD	7876547	wordpools/wasnorm_wordpool_576.txt	LTP384	ltpFR2	0	17	MILDEW	893	n/a	n/a	0	0	0
3847.02099609375	n/a	REC_WORD	7878699	wordpools/wasnorm_wordpool_576.txt	LTP384	ltpFR2	0	17	FRAGRANCE	599	n/a	n/a	0	0	0
3849.05322265625	n/a	REC_WORD	7882861	wordpools/wasnorm_wordpool_576.txt	LTP384	ltpFR2	0	17	PERFUME	1049	n/a	n/a	0	0	0
3869.28857421875	n/a	REC_WORD	7924303	wordpools/wasnorm_wordpool_576.txt	LTP384	ltpFR2	0	17	TABLET	1427	n/a	n/a	0	0	0
3870.67041015625	n/a	REC_WORD	7927133	wordpools/wasnorm_wordpool_576.txt	LTP384	ltpFR2	0	17	BOARD	143	n/a	n/a	0	0	0
3871.75048828125	n/a	REC_WORD	7929345	wordpools/wasnorm_wordpool_576.txt	LTP384	ltpFR2	0	17	SPACE	1345	n/a	n/a	0	0	0
3873.28125	n/a	REC_WORD	7932480	wordpools/wasnorm_wordpool_576.txt	LTP384	ltpFR2	0	17	COMET	353	n/a	n/a	0	0	0
3931.59130859375	n/a	WORD	8051899	wordpools/wasnorm_wordpool_576.txt	LTP384	ltpFR2	0	18	SEAGULL	1261	n/a	n/a	0	0	0
3934.32421875	n/a	WORD	8057496	wordpools/wasnorm_wordpool_576.txt	LTP384	ltpFR2	0	18	SLIME	1327	n/a	n/a	0	0	0
3937.107421875	n/a	WORD	8063196	wordpools/wasnorm_wordpool_576.txt	LTP384	ltpFR2	0	18	CAPTIVE	240	n/a	n/a	0	0	0
3939.908203125	n/a	WORD	8068932	wordpools/wasnorm_wordpool_576.txt	LTP384	ltpFR2	0	18	DRINK	498	n/a	n/a	0	0	0
3942.3740234375	n/a	WORD	8073982	wordpools/wasnorm_wordpool_576.txt	LTP384	ltpFR2	0	18	BARREL	91	n/a	n/a	0	0	0
3944.9912109375	n/a	WORD	8079342	wordpools/wasnorm_wordpool_576.txt	LTP384	ltpFR2	0	18	DRESS	495	n/a	n/a	0	0	0
3947.5078125	n/a	WORD	8084496	wordpools/wasnorm_wordpool_576.txt	LTP384	ltpFR2	0	18	CAMEL	223	n/a	n/a	0	0	0
3949.94091796875	n/a	WORD	8089479	wordpools/wasnorm_wordpool_576.txt	LTP384	ltpFR2	0	18	CONCERT	360	n/a	n/a	0	0	0
3952.3896484375	n/a	WORD	8094494	wordpools/wasnorm_wordpool_576.txt	LTP384	ltpFR2	0	18	CURTAIN	427	n/a	n/a	0	0	0
3954.94091796875	n/a	WORD	8099719	wordpools/wasnorm_wordpool_576.txt	LTP384	ltpFR2	0	18	GAZELLE	628	n/a	n/a	0	0	0
3957.4228515625	n/a	WORD	8104802	wordpools/wasnorm_wordpool_576.txt	LTP384	ltpFR2	0	18	CLOTHES	327	n/a	n/a	0	0	0
3959.890625	n/a	WORD	8109856	wordpools/wasnorm_wordpool_576.txt	LTP384	ltpFR2	0	18	SALT	1229	n/a	n/a	0	0	0
3962.4736328125	n/a	WORD	8115146	wordpools/wasnorm_wordpool_576.txt	LTP384	ltpFR2	0	18	PARSLEY	1016	n/a	n/a	0	0	0
3965.0576171875	n/a	WORD	8120438	wordpools/wasnorm_wordpool_576.txt	LTP384	ltpFR2	0	18	FLAG	573	n/a	n/a	0	0	0
3967.87353515625	n/a	WORD	8126205	wordpools/wasnorm_wordpool_576.txt	LTP384	ltpFR2	0	18	BATHTUB	100	n/a	n/a	0	0	0
3970.45703125	n/a	WORD	8131496	wordpools/wasnorm_wordpool_576.txt	LTP384	ltpFR2	0	18	MOP	916	n/a	n/a	0	0	0
3973.10498046875	n/a	WORD	8136919	wordpools/wasnorm_wordpool_576.txt	LTP384	ltpFR2	0	18	PANTHER	1009	n/a	n/a	0	0	0
3975.60693359375	n/a	WORD	8142043	wordpools/wasnorm_wordpool_576.txt	LTP384	ltpFR2	0	18	NOMAD	955	n/a	n/a	0	0	0
3978.072265625	n/a	WORD	8147092	wordpools/wasnorm_wordpool_576.txt	LTP384	ltpFR2	0	18	PLATE	1086	n/a	n/a	0	0	0
3980.48974609375	n/a	WORD	8152043	wordpools/wasnorm_wordpool_576.txt	LTP384	ltpFR2	0	18	PIGMENT	1066	n/a	n/a	0	0	0
3983.10498046875	n/a	WORD	8157399	wordpools/wasnorm_wordpool_576.txt	LTP384	ltpFR2	0	18	ICEBERG	731	n/a	n/a	0	0	0
3985.52294921875	n/a	WORD	8162351	wordpools/wasnorm_wordpool_576.txt	LTP384	ltpFR2	0	18	COOK	372	n/a	n/a	0	0	0
3988.3388671875	n/a	WORD	8168118	wordpools/wasnorm_wordpool_576.txt	LTP384	ltpFR2	0	18	APRON	35	n/a	n/a	0	0	0
3991.1044921875	n/a	WORD	8173782	wordpools/wasnorm_wordpool_576.txt	LTP384	ltpFR2	0	18	PERCH	1048	n/a	n/a	0	0	0
3992.70556640625	n/a	START	8177061	n/a	LTP384	ltpFR2	0	n/a	n/a	n/a	26	n/a	n/a	n/a	n/a
3993.86572265625	n/a	DISTRACTOR	8179437	n/a	LTP384	ltpFR2	0	18	n/a	n/a	n/a	n/a	0	0	0
3993.87255859375	n/a	PROB	8179451	n/a	LTP384	ltpFR2	0	n/a	n/a	n/a	26	20	7	4	9
3997.33740234375	n/a	PROB	8186547	n/a	LTP384	ltpFR2	0	n/a	n/a	n/a	26	18	4	6	8
3999.6552734375	n/a	PROB	8191294	n/a	LTP384	ltpFR2	0	n/a	n/a	n/a	26	6	2	1	3
4002.154296875	n/a	PROB	8196412	n/a	LTP384	ltpFR2	0	n/a	n/a	n/a	26	14	4	7	3
4005.52197265625	n/a	PROB	8203309	n/a	LTP384	ltpFR2	0	n/a	n/a	n/a	26	7	4	1	2
4007.85498046875	n/a	PROB	8208087	n/a	LTP384	ltpFR2	0	n/a	n/a	n/a	26	20	7	7	6
4010.63818359375	n/a	PROB	8213787	n/a	LTP384	ltpFR2	0	n/a	n/a	n/a	26	14	5	5	4
4012.25390625	n/a	PROB	8217096	n/a	LTP384	ltpFR2	0	n/a	n/a	n/a	26	10	7	1	2
4016.705078125	n/a	STOP	8226212	n/a	LTP384	ltpFR2	0	n/a	n/a	n/a	26	n/a	n/a	n/a	n/a
4018.60498046875	n/a	REC_START	8230103	n/a	LTP384	ltpFR2	0	18	n/a	n/a	n/a	n/a	0	0	0
4019.69091796875	n/a	REC_WORD	8232327	wordpools/wasnorm_wordpool_576.txt	LTP384	ltpFR2	0	18	SEAGULL	1261	n/a	n/a	0	0	0
4021.2646484375	n/a	REC_WORD	8235550	wordpools/wasnorm_wordpool_576.txt	LTP384	ltpFR2	0	18	CAPTIVE	240	n/a	n/a	0	0	0
4022.37158203125	n/a	REC_WORD	8237817	wordpools/wasnorm_wordpool_576.txt	LTP384	ltpFR2	0	18	SLIME	1327	n/a	n/a	0	0	0
4023.71337890625	n/a	REC_WORD	8240565	wordpools/wasnorm_wordpool_576.txt	LTP384	ltpFR2	0	18	PERCH	1048	n/a	n/a	0	0	0
4025.54150390625	n/a	REC_WORD	8244309	wordpools/wasnorm_wordpool_576.txt	LTP384	ltpFR2	0	18	COOK	372	n/a	n/a	0	0	0
4027.03759765625	n/a	REC_WORD	8247373	wordpools/wasnorm_wordpool_576.txt	LTP384	ltpFR2	0	18	APRON	35	n/a	n/a	0	0	0
4033.93408203125	n/a	REC_WORD	8261497	wordpools/wasnorm_wordpool_576.txt	LTP384	ltpFR2	0	18	ROLL	-1	n/a	n/a	0	0	0
4050.7255859375	n/a	REC_WORD	8295886	wordpools/wasnorm_wordpool_576.txt	LTP384	ltpFR2	0	18	CAPTIVE	240	n/a	n/a	0	0	0
4057.5244140625	n/a	REC_WORD	8309810	wordpools/wasnorm_wordpool_576.txt	LTP384	ltpFR2	0	18	NOMAD	955	n/a	n/a	0	0	0
4060.21044921875	n/a	REC_WORD	8315311	wordpools/wasnorm_wordpool_576.txt	LTP384	ltpFR2	0	18	BATHTUB	100	n/a	n/a	0	0	0
4061.8203125	n/a	REC_WORD	8318608	wordpools/wasnorm_wordpool_576.txt	LTP384	ltpFR2	0	18	DRINK	498	n/a	n/a	0	0	0
4063.12548828125	n/a	REC_WORD	8321281	wordpools/wasnorm_wordpool_576.txt	LTP384	ltpFR2	0	18	PARSLEY	1016	n/a	n/a	0	0	0
4064.50537109375	n/a	REC_WORD	8324107	wordpools/wasnorm_wordpool_576.txt	LTP384	ltpFR2	0	18	SALT	1229	n/a	n/a	0	0	0
4066.783203125	n/a	REC_WORD	8328772	wordpools/wasnorm_wordpool_576.txt	LTP384	ltpFR2	0	18	BARREL	91	n/a	n/a	0	0	0
