onset	duration	trial_type	sample	stim_file	subject	experiment	session	trial	item_name	item_num	list	answer	test_x	test_y	test_z
413.022	n/a	SESS_START	206511	n/a	LTP117	ltpFR2	0	n/a	n/a	n/a	n/a	n/a	0	0	0
451.77	n/a	START	225885	n/a	LTP117	ltpFR2	0	n/a	n/a	n/a	-1	n/a	n/a	n/a	n/a
451.82	n/a	PROB	225910	n/a	LTP117	ltpFR2	0	n/a	n/a	n/a	-1	20	4	9	7
454.882	n/a	PROB	227441	n/a	LTP117	ltpFR2	0	n/a	n/a	n/a	-1	14	2	9	3
456.672	n/a	PROB	228336	n/a	LTP117	ltpFR2	0	n/a	n/a	n/a	-1	13	4	3	6
458.194	n/a	PROB	229097	n/a	LTP117	ltpFR2	0	n/a	n/a	n/a	-1	7	1	1	5
459.298	n/a	PROB	229649	n/a	LTP117	ltpFR2	0	n/a	n/a	n/a	-1	10	1	1	8
460.37	n/a	PROB	230185	n/a	LTP117	ltpFR2	0	n/a	n/a	n/a	-1	7	2	4	1
461.39	n/a	PROB	230695	n/a	LTP117	ltpFR2	0	n/a	n/a	n/a	-1	16	7	3	6
462.536	n/a	STOP	231268	n/a	LTP117	ltpFR2	0	n/a	n/a	n/a	-1	n/a	n/a	n/a	n/a
521.99	n/a	DISTRACTOR	260995	n/a	LTP117	ltpFR2	0	1	n/a	n/a	n/a	n/a	0	0	0
521.99	n/a	START	260995	n/a	LTP117	ltpFR2	0	n/a	n/a	n/a	1	n/a	n/a	n/a	n/a
522.04	n/a	PROB	261020	n/a	LTP117	ltpFR2	0	n/a	n/a	n/a	1	14	2	9	3
523.78	n/a	PROB	261890	n/a	LTP117	ltpFR2	0	n/a	n/a	n/a	1	10	5	1	4
525.002	n/a	PROB	262501	n/a	LTP117	ltpFR2	0	n/a	n/a	n/a	1	10	5	2	3
525.938	n/a	PROB	262969	n/a	LTP117	ltpFR2	0	n/a	n/a	n/a	1	12	2	8	2
527.844	n/a	PROB	263922	n/a	LTP117	ltpFR2	0	n/a	n/a	n/a	1	14	3	6	5
529.2	n/a	PROB	264600	n/a	LTP117	ltpFR2	0	n/a	n/a	n/a	1	21	9	8	4
530.684	n/a	PROB	265342	n/a	LTP117	ltpFR2	0	n/a	n/a	n/a	1	19	6	9	4
532.072	n/a	PROB	266036	n/a	LTP117	ltpFR2	0	n/a	n/a	n/a	1	9	4	3	2
533.55	n/a	PROB	266775	n/a	LTP117	ltpFR2	0	n/a	n/a	n/a	1	16	2	9	5
534.72	n/a	PROB	267360	n/a	LTP117	ltpFR2	0	n/a	n/a	n/a	1	18	3	9	6
537.274	n/a	PROB	268637	n/a	LTP117	ltpFR2	0	n/a	n/a	n/a	1	13	4	7	2
538.502	n/a	PROB	269251	n/a	LTP117	ltpFR2	0	n/a	n/a	n/a	1	17	6	3	8
540.788	n/a	PROB	270394	n/a	LTP117	ltpFR2	0	n/a	n/a	n/a	1	14	1	5	8
542.1	n/a	PROB	271050	n/a	LTP117	ltpFR2	0	n/a	n/a	n/a	1	18	9	4	5
545.992	n/a	STOP	272996	n/a	LTP117	ltpFR2	0	n/a	n/a	n/a	1	n/a	n/a	n/a	n/a
547.134	n/a	WORD	273567	wordpools/wasnorm_wordpool_576.txt	LTP117	ltpFR2	0	1	VALVE	1546	n/a	n/a	0	0	0
549.878	n/a	WORD	274939	wordpools/wasnorm_wordpool_576.txt	LTP117	ltpFR2	0	1	RUST	1219	n/a	n/a	0	0	0
552.638	n/a	WORD	276319	wordpools/wasnorm_wordpool_576.txt	LTP117	ltpFR2	0	1	PASTRY	1022	n/a	n/a	0	0	0
555.366	n/a	WORD	277683	wordpools/wasnorm_wordpool_576.txt	LTP117	ltpFR2	0	1	VALLEY	1545	n/a	n/a	0	0	0
558.126	n/a	WORD	279063	wordpools/wasnorm_wordpool_576.txt	LTP117	ltpFR2	0	1	MILDEW	893	n/a	n/a	0	0	0
560.62	n/a	WORD	280310	wordpools/wasnorm_wordpool_576.txt	LTP117	ltpFR2	0	1	PATROL	1027	n/a	n/a	0	0	0
563.08	n/a	WORD	281540	wordpools/wasnorm_wordpool_576.txt	LTP117	ltpFR2	0	1	CRUTCH	417	n/a	n/a	0	0	0
565.834	n/a	WORD	282917	wordpools/wasnorm_wordpool_576.txt	LTP117	ltpFR2	0	1	SHRUB	1299	n/a	n/a	0	0	0
568.466	n/a	WORD	284233	wordpools/wasnorm_wordpool_576.txt	LTP117	ltpFR2	0	1	GUARD	667	n/a	n/a	0	0	0
571.188	n/a	WORD	285594	wordpools/wasnorm_wordpool_576.txt	LTP117	ltpFR2	0	1	LADDER	793	n/a	n/a	0	0	0
573.698	n/a	WORD	286849	wordpools/wasnorm_wordpool_576.txt	LTP117	ltpFR2	0	1	KETCHUP	771	n/a	n/a	0	0	0
576.146	n/a	WORD	288073	wordpools/wasnorm_wordpool_576.txt	LTP117	ltpFR2	0	1	VAGRANT	1544	n/a	n/a	0	0	0
578.772	n/a	WORD	289386	wordpools/wasnorm_wordpool_576.txt	LTP117	ltpFR2	0	1	CYCLONE	431	n/a	n/a	0	0	0
581.5	n/a	WORD	290750	wordpools/wasnorm_wordpool_576.txt	LTP117	ltpFR2	0	1	FRAME	600	n/a	n/a	0	0	0
583.944	n/a	WORD	291972	wordpools/wasnorm_wordpool_576.txt	LTP117	ltpFR2	0	1	ICING	732	n/a	n/a	0	0	0
586.418	n/a	WORD	293209	wordpools/wasnorm_wordpool_576.txt	LTP117	ltpFR2	0	1	WIFE	1609	n/a	n/a	0	0	0
588.896	n/a	WORD	294448	wordpools/wasnorm_wordpool_576.txt	LTP117	ltpFR2	0	1	GLOBE	641	n/a	n/a	0	0	0
591.666	n/a	WORD	295833	wordpools/wasnorm_wordpool_576.txt	LTP117	ltpFR2	0	1	CELLAR	267	n/a	n/a	0	0	0
594.092	n/a	WORD	297046	wordpools/wasnorm_wordpool_576.txt	LTP117	ltpFR2	0	1	BABY	64	n/a	n/a	0	0	0
596.742	n/a	WORD	298371	wordpools/wasnorm_wordpool_576.txt	LTP117	ltpFR2	0	1	PRINCESS	1125	n/a	n/a	0	0	0
599.552	n/a	WORD	299776	wordpools/wasnorm_wordpool_576.txt	LTP117	ltpFR2	0	1	PORK	1108	n/a	n/a	0	0	0
602.278	n/a	WORD	301139	wordpools/wasnorm_wordpool_576.txt	LTP117	ltpFR2	0	1	BUTCHER	203	n/a	n/a	0	0	0
604.788	n/a	WORD	302394	wordpools/wasnorm_wordpool_576.txt	LTP117	ltpFR2	0	1	DASHBOARD	441	n/a	n/a	0	0	0
607.348	n/a	WORD	303674	wordpools/wasnorm_wordpool_576.txt	LTP117	ltpFR2	0	1	MOTOR	922	n/a	n/a	0	0	0
608.956	n/a	START	304478	n/a	LTP117	ltpFR2	0	n/a	n/a	n/a	2	n/a	n/a	n/a	n/a
609.962	n/a	DISTRACTOR	304981	n/a	LTP117	ltpFR2	0	1	n/a	n/a	n/a	n/a	0	0	0
609.986	n/a	PROB	304993	n/a	LTP117	ltpFR2	0	n/a	n/a	n/a	2	9	5	2	2
611.558	n/a	PROB	305779	n/a	LTP117	ltpFR2	0	n/a	n/a	n/a	2	20	7	9	4
614.236	n/a	PROB	307118	n/a	LTP117	ltpFR2	0	n/a	n/a	n/a	2	18	7	9	2
616.028	n/a	PROB	308014	n/a	LTP117	ltpFR2	0	n/a	n/a	n/a	2	20	8	7	5
617.332	n/a	PROB	308666	n/a	LTP117	ltpFR2	0	n/a	n/a	n/a	2	14	6	3	5
618.72	n/a	PROB	309360	n/a	LTP117	ltpFR2	0	n/a	n/a	n/a	2	9	4	1	4
620.01	n/a	PROB	310005	n/a	LTP117	ltpFR2	0	n/a	n/a	n/a	2	19	9	8	2
621.602	n/a	PROB	310801	n/a	LTP117	ltpFR2	0	n/a	n/a	n/a	2	18	9	3	6
622.986	n/a	PROB	311493	n/a	LTP117	ltpFR2	0	n/a	n/a	n/a	2	26	8	9	8
626.186	n/a	PROB	313093	n/a	LTP117	ltpFR2	0	n/a	n/a	n/a	2	17	2	6	9
628.122	n/a	PROB	314061	n/a	LTP117	ltpFR2	0	n/a	n/a	n/a	2	13	1	6	6
629.528	n/a	PROB	314764	n/a	LTP117	ltpFR2	0	n/a	n/a	n/a	2	11	7	1	3
630.938	n/a	PROB	315469	n/a	LTP117	ltpFR2	0	n/a	n/a	n/a	2	10	3	3	4
632.44	n/a	STOP	316220	n/a	LTP117	ltpFR2	0	n/a	n/a	n/a	2	n/a	n/a	n/a	n/a
634.75	n/a	REC_START	317375	n/a	LTP117	ltpFR2	0	1	n/a	n/a	n/a	n/a	0	0	0
635.478	n/a	REC_WORD	317739	wordpools/wasnorm_wordpool_576.txt	LTP117	ltpFR2	0	1	PRINCESS	1125	n/a	n/a	0	0	0
636.236	n/a	REC_WORD	318118	wordpools/wasnorm_wordpool_576.txt	LTP117	ltpFR2	0	1	PORK	1108	n/a	n/a	0	0	0
636.988	n/a	REC_WORD	318494	wordpools/wasnorm_wordpool_576.txt	LTP117	ltpFR2	0	1	BUTCHER	203	n/a	n/a	0	0	0
637.544	n/a	REC_WORD	318772	wordpools/wasnorm_wordpool_576.txt	LTP117	ltpFR2	0	1	ICING	732	n/a	n/a	0	0	0
638.69	n/a	REC_WORD	319345	wordpools/wasnorm_wordpool_576.txt	LTP117	ltpFR2	0	1	LADDER	793	n/a	n/a	0	0	0
639.762	n/a	REC_WORD	319881	wordpools/wasnorm_wordpool_576.txt	LTP117	ltpFR2	0	1	FRAME	600	n/a	n/a	0	0	0
641.448	n/a	REC_WORD	320724	wordpools/wasnorm_wordpool_576.txt	LTP117	ltpFR2	0	1	VALVE	1546	n/a	n/a	0	0	0
644.836	n/a	REC_WORD_VV	322418	wordpools/wasnorm_wordpool_576.txt	LTP117	ltpFR2	0	1	<>	-1	n/a	n/a	0	0	0
645.252	n/a	REC_WORD	322626	wordpools/wasnorm_wordpool_576.txt	LTP117	ltpFR2	0	1	RUST	1219	n/a	n/a	0	0	0
646.102	n/a	REC_WORD	323051	wordpools/wasnorm_wordpool_576.txt	LTP117	ltpFR2	0	1	MILDEW	893	n/a	n/a	0	0	0
649.584	n/a	REC_WORD	324792	wordpools/wasnorm_wordpool_576.txt	LTP117	ltpFR2	0	1	VALLEY	1545	n/a	n/a	0	0	0
655.35	n/a	REC_WORD	327675	wordpools/wasnorm_wordpool_576.txt	LTP117	ltpFR2	0	1	DASHBOARD	441	n/a	n/a	0	0	0
739.72	n/a	WORD	369860	wordpools/wasnorm_wordpool_576.txt	LTP117	ltpFR2	0	2	ORCHID	982	n/a	n/a	0	0	0
742.23	n/a	WORD	371115	wordpools/wasnorm_wordpool_576.txt	LTP117	ltpFR2	0	2	LAPEL	800	n/a	n/a	0	0	0
745.02	n/a	WORD	372510	wordpools/wasnorm_wordpool_576.txt	LTP117	ltpFR2	0	2	FOOT	590	n/a	n/a	0	0	0
747.518	n/a	WORD	373759	wordpools/wasnorm_wordpool_576.txt	LTP117	ltpFR2	0	2	AIRPLANE	12	n/a	n/a	0	0	0
749.962	n/a	WORD	374981	wordpools/wasnorm_wordpool_576.txt	LTP117	ltpFR2	0	2	GRIZZLY	662	n/a	n/a	0	0	0
752.452	n/a	WORD	376226	wordpools/wasnorm_wordpool_576.txt	LTP117	ltpFR2	0	2	ELBOW	520	n/a	n/a	0	0	0
755.096	n/a	WORD	377548	wordpools/wasnorm_wordpool_576.txt	LTP117	ltpFR2	0	2	CEILING	265	n/a	n/a	0	0	0
757.902	n/a	WORD	378951	wordpools/wasnorm_wordpool_576.txt	LTP117	ltpFR2	0	2	GUITAR	670	n/a	n/a	0	0	0
760.394	n/a	WORD	380197	wordpools/wasnorm_wordpool_576.txt	LTP117	ltpFR2	0	2	TUBA	1515	n/a	n/a	0	0	0
762.944	n/a	WORD	381472	wordpools/wasnorm_wordpool_576.txt	LTP117	ltpFR2	0	2	PLAYGROUND	1087	n/a	n/a	0	0	0
765.72	n/a	WORD	382860	wordpools/wasnorm_wordpool_576.txt	LTP117	ltpFR2	0	2	RECORD	1176	n/a	n/a	0	0	0
768.358	n/a	WORD	384179	wordpools/wasnorm_wordpool_576.txt	LTP117	ltpFR2	0	2	LIGHTNING	820	n/a	n/a	0	0	0
771.074	n/a	WORD	385537	wordpools/wasnorm_wordpool_576.txt	LTP117	ltpFR2	0	2	CLOUD	328	n/a	n/a	0	0	0
773.634	n/a	WORD	386817	wordpools/wasnorm_wordpool_576.txt	LTP117	ltpFR2	0	2	BIKE	125	n/a	n/a	0	0	0
776.21	n/a	WORD	388105	wordpools/wasnorm_wordpool_576.txt	LTP117	ltpFR2	0	2	HIGHWAY	707	n/a	n/a	0	0	0
779.034	n/a	WORD	389517	wordpools/wasnorm_wordpool_576.txt	LTP117	ltpFR2	0	2	MISSILE	900	n/a	n/a	0	0	0
781.81	n/a	WORD	390905	wordpools/wasnorm_wordpool_576.txt	LTP117	ltpFR2	0	2	HAND	683	n/a	n/a	0	0	0
784.492	n/a	WORD	392246	wordpools/wasnorm_wordpool_576.txt	LTP117	ltpFR2	0	2	RABBIT	1152	n/a	n/a	0	0	0
787.214	n/a	WORD	393607	wordpools/wasnorm_wordpool_576.txt	LTP117	ltpFR2	0	2	FIDDLE	561	n/a	n/a	0	0	0
789.896	n/a	WORD	394948	wordpools/wasnorm_wordpool_576.txt	LTP117	ltpFR2	0	2	HELMET	702	n/a	n/a	0	0	0
792.674	n/a	WORD	396337	wordpools/wasnorm_wordpool_576.txt	LTP117	ltpFR2	0	2	BATHTUB	100	n/a	n/a	0	0	0
795.434	n/a	WORD	397717	wordpools/wasnorm_wordpool_576.txt	LTP117	ltpFR2	0	2	KEEPER	769	n/a	n/a	0	0	0
798.088	n/a	WORD	399044	wordpools/wasnorm_wordpool_576.txt	LTP117	ltpFR2	0	2	BLADE	134	n/a	n/a	0	0	0
800.698	n/a	WORD	400349	wordpools/wasnorm_wordpool_576.txt	LTP117	ltpFR2	0	2	PACKAGE	997	n/a	n/a	0	0	0
802.31	n/a	START	401155	n/a	LTP117	ltpFR2	0	n/a	n/a	n/a	3	n/a	n/a	n/a	n/a
803.458	n/a	DISTRACTOR	401729	n/a	LTP117	ltpFR2	0	2	n/a	n/a	n/a	n/a	0	0	0
803.476	n/a	PROB	401738	n/a	LTP117	ltpFR2	0	n/a	n/a	n/a	3	15	5	8	2
805.188	n/a	PROB	402594	n/a	LTP117	ltpFR2	0	n/a	n/a	n/a	3	18	9	3	6
807.29	n/a	PROB	403645	n/a	LTP117	ltpFR2	0	n/a	n/a	n/a	3	11	3	7	1
808.316	n/a	PROB	404158	n/a	LTP117	ltpFR2	0	n/a	n/a	n/a	3	16	8	7	1
809.7	n/a	PROB	404850	n/a	LTP117	ltpFR2	0	n/a	n/a	n/a	3	24	9	9	6
811.006	n/a	PROB	405503	n/a	LTP117	ltpFR2	0	n/a	n/a	n/a	3	14	7	4	3
812.126	n/a	PROB	406063	n/a	LTP117	ltpFR2	0	n/a	n/a	n/a	3	11	2	5	4
813.146	n/a	PROB	406573	n/a	LTP117	ltpFR2	0	n/a	n/a	n/a	3	18	2	7	9
814.34	n/a	PROB	407170	n/a	LTP117	ltpFR2	0	n/a	n/a	n/a	3	7	5	1	1
815.444	n/a	PROB	407722	n/a	LTP117	ltpFR2	0	n/a	n/a	n/a	3	9	2	2	5
816.682	n/a	PROB	408341	n/a	LTP117	ltpFR2	0	n/a	n/a	n/a	3	16	2	6	8
818.016	n/a	PROB	409008	n/a	LTP117	ltpFR2	0	n/a	n/a	n/a	3	15	5	7	3
819.252	n/a	PROB	409626	n/a	LTP117	ltpFR2	0	n/a	n/a	n/a	3	1	5	7	5
822.382	n/a	PROB	411191	n/a	LTP117	ltpFR2	0	n/a	n/a	n/a	3	16	3	6	7
823.754	n/a	PROB	411877	n/a	LTP117	ltpFR2	0	n/a	n/a	n/a	3	14	4	7	3
824.788	n/a	STOP	412394	n/a	LTP117	ltpFR2	0	n/a	n/a	n/a	3	n/a	n/a	n/a	n/a
828.222	n/a	REC_START	414111	n/a	LTP117	ltpFR2	0	2	n/a	n/a	n/a	n/a	0	0	0
829.07	n/a	REC_WORD	414535	wordpools/wasnorm_wordpool_576.txt	LTP117	ltpFR2	0	2	AIRPLANE	12	n/a	n/a	0	0	0
829.704	n/a	REC_WORD	414852	wordpools/wasnorm_wordpool_576.txt	LTP117	ltpFR2	0	2	HAND	683	n/a	n/a	0	0	0
830.666	n/a	REC_WORD	415333	wordpools/wasnorm_wordpool_576.txt	LTP117	ltpFR2	0	2	ELBOW	520	n/a	n/a	0	0	0
831.624	n/a	REC_WORD	415812	wordpools/wasnorm_wordpool_576.txt	LTP117	ltpFR2	0	2	FOOT	590	n/a	n/a	0	0	0
835.37	n/a	REC_WORD	417685	wordpools/wasnorm_wordpool_576.txt	LTP117	ltpFR2	0	2	LAPEL	800	n/a	n/a	0	0	0
838.882	n/a	REC_WORD	419441	wordpools/wasnorm_wordpool_576.txt	LTP117	ltpFR2	0	2	HIGHWAY	707	n/a	n/a	0	0	0
839.886	n/a	REC_WORD	419943	wordpools/wasnorm_wordpool_576.txt	LTP117	ltpFR2	0	2	BIKE	125	n/a	n/a	0	0	0
841.082	n/a	REC_WORD	420541	wordpools/wasnorm_wordpool_576.txt	LTP117	ltpFR2	0	2	HELMET	702	n/a	n/a	0	0	0
843.378	n/a	REC_WORD	421689	wordpools/wasnorm_wordpool_576.txt	LTP117	ltpFR2	0	2	RECORD	1176	n/a	n/a	0	0	0
844.584	n/a	REC_WORD	422292	wordpools/wasnorm_wordpool_576.txt	LTP117	ltpFR2	0	2	LIGHTNING	820	n/a	n/a	0	0	0
848.688	n/a	REC_WORD	424344	wordpools/wasnorm_wordpool_576.txt	LTP117	ltpFR2	0	2	FIDDLE	561	n/a	n/a	0	0	0
850.218	n/a	REC_WORD	425109	wordpools/wasnorm_wordpool_576.txt	LTP117	ltpFR2	0	2	RABBIT	1152	n/a	n/a	0	0	0
856.164	n/a	REC_WORD	428082	wordpools/wasnorm_wordpool_576.txt	LTP117	ltpFR2	0	2	GRIZZLY	662	n/a	n/a	0	0	0
864.016	n/a	REC_WORD	432008	wordpools/wasnorm_wordpool_576.txt	LTP117	ltpFR2	0	2	BIKE	125	n/a	n/a	0	0	0
882.544	n/a	REC_WORD	441272	wordpools/wasnorm_wordpool_576.txt	LTP117	ltpFR2	0	2	CEILING	265	n/a	n/a	0	0	0
901.324	n/a	REC_WORD	450662	wordpools/wasnorm_wordpool_576.txt	LTP117	ltpFR2	0	2	HIGHWAY	707	n/a	n/a	0	0	0
919.302	n/a	WORD	459651	wordpools/wasnorm_wordpool_576.txt	LTP117	ltpFR2	0	3	BLUEPRINT	142	n/a	n/a	0	0	0
921.862	n/a	WORD	460931	wordpools/wasnorm_wordpool_576.txt	LTP117	ltpFR2	0	3	RIVER	1194	n/a	n/a	0	0	0
924.326	n/a	WORD	462163	wordpools/wasnorm_wordpool_576.txt	LTP117	ltpFR2	0	3	FLOWER	584	n/a	n/a	0	0	0
926.92	n/a	WORD	463460	wordpools/wasnorm_wordpool_576.txt	LTP117	ltpFR2	0	3	BRANDY	169	n/a	n/a	0	0	0
929.696	n/a	WORD	464848	wordpools/wasnorm_wordpool_576.txt	LTP117	ltpFR2	0	3	DRESS	495	n/a	n/a	0	0	0
932.368	n/a	WORD	466184	wordpools/wasnorm_wordpool_576.txt	LTP117	ltpFR2	0	3	CRICKET	408	n/a	n/a	0	0	0
935.018	n/a	WORD	467509	wordpools/wasnorm_wordpool_576.txt	LTP117	ltpFR2	0	3	DAISY	435	n/a	n/a	0	0	0
937.712	n/a	WORD	468856	wordpools/wasnorm_wordpool_576.txt	LTP117	ltpFR2	0	3	BLOCKADE	137	n/a	n/a	0	0	0
940.232	n/a	WORD	470116	wordpools/wasnorm_wordpool_576.txt	LTP117	ltpFR2	0	3	BRAKE	166	n/a	n/a	0	0	0
942.814	n/a	WORD	471407	wordpools/wasnorm_wordpool_576.txt	LTP117	ltpFR2	0	3	DONOR	485	n/a	n/a	0	0	0
945.424	n/a	WORD	472712	wordpools/wasnorm_wordpool_576.txt	LTP117	ltpFR2	0	3	PASTA	1021	n/a	n/a	0	0	0
947.978	n/a	WORD	473989	wordpools/wasnorm_wordpool_576.txt	LTP117	ltpFR2	0	3	PLATE	1086	n/a	n/a	0	0	0
950.726	n/a	WORD	475363	wordpools/wasnorm_wordpool_576.txt	LTP117	ltpFR2	0	3	MONEY	908	n/a	n/a	0	0	0
953.538	n/a	WORD	476769	wordpools/wasnorm_wordpool_576.txt	LTP117	ltpFR2	0	3	WORKER	1621	n/a	n/a	0	0	0
955.982	n/a	WORD	477991	wordpools/wasnorm_wordpool_576.txt	LTP117	ltpFR2	0	3	PISTON	1076	n/a	n/a	0	0	0
958.792	n/a	WORD	479396	wordpools/wasnorm_wordpool_576.txt	LTP117	ltpFR2	0	3	SLIME	1327	n/a	n/a	0	0	0
961.234	n/a	WORD	480617	wordpools/wasnorm_wordpool_576.txt	LTP117	ltpFR2	0	3	WORLD	1622	n/a	n/a	0	0	0
963.81	n/a	WORD	481905	wordpools/wasnorm_wordpool_576.txt	LTP117	ltpFR2	0	3	SPACE	1345	n/a	n/a	0	0	0
966.532	n/a	WORD	483266	wordpools/wasnorm_wordpool_576.txt	LTP117	ltpFR2	0	3	JOURNAL	760	n/a	n/a	0	0	0
969.276	n/a	WORD	484638	wordpools/wasnorm_wordpool_576.txt	LTP117	ltpFR2	0	3	SHORTS	1293	n/a	n/a	0	0	0
971.802	n/a	WORD	485901	wordpools/wasnorm_wordpool_576.txt	LTP117	ltpFR2	0	3	HORNET	718	n/a	n/a	0	0	0
974.602	n/a	WORD	487301	wordpools/wasnorm_wordpool_576.txt	LTP117	ltpFR2	0	3	HUMAN	726	n/a	n/a	0	0	0
977.122	n/a	WORD	488561	wordpools/wasnorm_wordpool_576.txt	LTP117	ltpFR2	0	3	COFFEE	341	n/a	n/a	0	0	0
979.9	n/a	WORD	489950	wordpools/wasnorm_wordpool_576.txt	LTP117	ltpFR2	0	3	CAFE	216	n/a	n/a	0	0	0
981.512	n/a	START	490756	n/a	LTP117	ltpFR2	0	n/a	n/a	n/a	4	n/a	n/a	n/a	n/a
982.57	n/a	DISTRACTOR	491285	n/a	LTP117	ltpFR2	0	3	n/a	n/a	n/a	n/a	0	0	0
982.582	n/a	PROB	491291	n/a	LTP117	ltpFR2	0	n/a	n/a	n/a	4	17	7	6	4
984.082	n/a	PROB	492041	n/a	LTP117	ltpFR2	0	n/a	n/a	n/a	4	10	2	6	2
985.158	n/a	PROB	492579	n/a	LTP117	ltpFR2	0	n/a	n/a	n/a	4	20	9	2	9
987.428	n/a	PROB	493714	n/a	LTP117	ltpFR2	0	n/a	n/a	n/a	4	19	8	9	2
988.968	n/a	PROB	494484	n/a	LTP117	ltpFR2	0	n/a	n/a	n/a	4	6	2	2	2
990.206	n/a	PROB	495103	n/a	LTP117	ltpFR2	0	n/a	n/a	n/a	4	20	9	5	6
991.914	n/a	PROB	495957	n/a	LTP117	ltpFR2	0	n/a	n/a	n/a	4	17	3	7	7
993.168	n/a	PROB	496584	n/a	LTP117	ltpFR2	0	n/a	n/a	n/a	4	14	3	4	7
995.342	n/a	PROB	497671	n/a	LTP117	ltpFR2	0	n/a	n/a	n/a	4	17	5	5	7
996.502	n/a	PROB	498251	n/a	LTP117	ltpFR2	0	n/a	n/a	n/a	4	18	6	9	3
998.092	n/a	PROB	499046	n/a	LTP117	ltpFR2	0	n/a	n/a	n/a	4	15	5	3	7
999.424	n/a	PROB	499712	n/a	LTP117	ltpFR2	0	n/a	n/a	n/a	4	18	8	8	4
1001.454	n/a	PROB	500727	n/a	LTP117	ltpFR2	0	n/a	n/a	n/a	4	17	6	9	2
1002.972	n/a	PROB	501486	n/a	LTP117	ltpFR2	0	n/a	n/a	n/a	4	21	9	7	5
1004.1	n/a	STOP	502050	n/a	LTP117	ltpFR2	0	n/a	n/a	n/a	4	n/a	n/a	n/a	n/a
1007.406	n/a	REC_START	503703	n/a	LTP117	ltpFR2	0	3	n/a	n/a	n/a	n/a	0	0	0
1008.226	n/a	REC_WORD	504113	wordpools/wasnorm_wordpool_576.txt	LTP117	ltpFR2	0	3	COFFEE	341	n/a	n/a	0	0	0
1009.006	n/a	REC_WORD	504503	wordpools/wasnorm_wordpool_576.txt	LTP117	ltpFR2	0	3	CAFE	216	n/a	n/a	0	0	0
1009.712	n/a	REC_WORD	504856	wordpools/wasnorm_wordpool_576.txt	LTP117	ltpFR2	0	3	SLIME	1327	n/a	n/a	0	0	0
1011.146	n/a	REC_WORD	505573	wordpools/wasnorm_wordpool_576.txt	LTP117	ltpFR2	0	3	WORLD	1622	n/a	n/a	0	0	0
1011.884	n/a	REC_WORD	505942	wordpools/wasnorm_wordpool_576.txt	LTP117	ltpFR2	0	3	SPACE	1345	n/a	n/a	0	0	0
1012.914	n/a	REC_WORD	506457	wordpools/wasnorm_wordpool_576.txt	LTP117	ltpFR2	0	3	HUMAN	726	n/a	n/a	0	0	0
1015.894	n/a	REC_WORD	507947	wordpools/wasnorm_wordpool_576.txt	LTP117	ltpFR2	0	3	RIVER	1194	n/a	n/a	0	0	0
1016.646	n/a	REC_WORD	508323	wordpools/wasnorm_wordpool_576.txt	LTP117	ltpFR2	0	3	FLOWER	584	n/a	n/a	0	0	0
1017.61	n/a	REC_WORD	508805	wordpools/wasnorm_wordpool_576.txt	LTP117	ltpFR2	0	3	DAISY	435	n/a	n/a	0	0	0
1018.616	n/a	REC_WORD	509308	wordpools/wasnorm_wordpool_576.txt	LTP117	ltpFR2	0	3	SHORTS	1293	n/a	n/a	0	0	0
1021.29	n/a	REC_WORD	510645	wordpools/wasnorm_wordpool_576.txt	LTP117	ltpFR2	0	3	BLOCKADE	137	n/a	n/a	0	0	0
1022.318	n/a	REC_WORD	511159	wordpools/wasnorm_wordpool_576.txt	LTP117	ltpFR2	0	3	WORKER	1621	n/a	n/a	0	0	0
1023.59	n/a	REC_WORD	511795	wordpools/wasnorm_wordpool_576.txt	LTP117	ltpFR2	0	3	PISTON	1076	n/a	n/a	0	0	0
1025.51	n/a	REC_WORD	512755	wordpools/wasnorm_wordpool_576.txt	LTP117	ltpFR2	0	3	HORNET	718	n/a	n/a	0	0	0
1029.018	n/a	REC_WORD	514509	wordpools/wasnorm_wordpool_576.txt	LTP117	ltpFR2	0	3	PASTA	1021	n/a	n/a	0	0	0
1030.878	n/a	REC_WORD	515439	wordpools/wasnorm_wordpool_576.txt	LTP117	ltpFR2	0	3	PLATE	1086	n/a	n/a	0	0	0
1045.278	n/a	REC_WORD	522639	wordpools/wasnorm_wordpool_576.txt	LTP117	ltpFR2	0	3	DAISY	435	n/a	n/a	0	0	0
1073.998	n/a	REC_WORD	536999	wordpools/wasnorm_wordpool_576.txt	LTP117	ltpFR2	0	3	DRESS	495	n/a	n/a	0	0	0
1098.458	n/a	WORD	549229	wordpools/wasnorm_wordpool_576.txt	LTP117	ltpFR2	0	4	LETTUCE	814	n/a	n/a	0	0	0
1101.018	n/a	WORD	550509	wordpools/wasnorm_wordpool_576.txt	LTP117	ltpFR2	0	4	TURNIP	1521	n/a	n/a	0	0	0
1103.64	n/a	WORD	551820	wordpools/wasnorm_wordpool_576.txt	LTP117	ltpFR2	0	4	WOMAN	1620	n/a	n/a	0	0	0
1106.132	n/a	WORD	553066	wordpools/wasnorm_wordpool_576.txt	LTP117	ltpFR2	0	4	CLIMBER	323	n/a	n/a	0	0	0
1108.626	n/a	WORD	554313	wordpools/wasnorm_wordpool_576.txt	LTP117	ltpFR2	0	4	STAKE	1368	n/a	n/a	0	0	0
1111.274	n/a	WORD	555637	wordpools/wasnorm_wordpool_576.txt	LTP117	ltpFR2	0	4	BROOK	177	n/a	n/a	0	0	0
1113.75	n/a	WORD	556875	wordpools/wasnorm_wordpool_576.txt	LTP117	ltpFR2	0	4	PLAZA	1088	n/a	n/a	0	0	0
1116.192	n/a	WORD	558096	wordpools/wasnorm_wordpool_576.txt	LTP117	ltpFR2	0	4	SCISSORS	1250	n/a	n/a	0	0	0
1118.686	n/a	WORD	559343	wordpools/wasnorm_wordpool_576.txt	LTP117	ltpFR2	0	4	TWISTER	1530	n/a	n/a	0	0	0
1121.146	n/a	WORD	560573	wordpools/wasnorm_wordpool_576.txt	LTP117	ltpFR2	0	4	LADY	794	n/a	n/a	0	0	0
1123.604	n/a	WORD	561802	wordpools/wasnorm_wordpool_576.txt	LTP117	ltpFR2	0	4	PUDDLE	1140	n/a	n/a	0	0	0
1126.282	n/a	WORD	563141	wordpools/wasnorm_wordpool_576.txt	LTP117	ltpFR2	0	4	ARM	38	n/a	n/a	0	0	0
1128.992	n/a	WORD	564496	wordpools/wasnorm_wordpool_576.txt	LTP117	ltpFR2	0	4	OFFICE	972	n/a	n/a	0	0	0
1131.468	n/a	WORD	565734	wordpools/wasnorm_wordpool_576.txt	LTP117	ltpFR2	0	4	BACKBONE	66	n/a	n/a	0	0	0
1134.212	n/a	WORD	567106	wordpools/wasnorm_wordpool_576.txt	LTP117	ltpFR2	0	4	JEANS	752	n/a	n/a	0	0	0
1136.75	n/a	WORD	568375	wordpools/wasnorm_wordpool_576.txt	LTP117	ltpFR2	0	4	GOBLIN	645	n/a	n/a	0	0	0
1139.174	n/a	WORD	569587	wordpools/wasnorm_wordpool_576.txt	LTP117	ltpFR2	0	4	CREATURE	403	n/a	n/a	0	0	0
1141.624	n/a	WORD	570812	wordpools/wasnorm_wordpool_576.txt	LTP117	ltpFR2	0	4	SUBWAY	1400	n/a	n/a	0	0	0
1144.234	n/a	WORD	572117	wordpools/wasnorm_wordpool_576.txt	LTP117	ltpFR2	0	4	RAFT	1159	n/a	n/a	0	0	0
1146.844	n/a	WORD	573422	wordpools/wasnorm_wordpool_576.txt	LTP117	ltpFR2	0	4	TEMPLE	1448	n/a	n/a	0	0	0
1149.588	n/a	WORD	574794	wordpools/wasnorm_wordpool_576.txt	LTP117	ltpFR2	0	4	UMPIRE	1535	n/a	n/a	0	0	0
1152.064	n/a	WORD	576032	wordpools/wasnorm_wordpool_576.txt	LTP117	ltpFR2	0	4	CATCHER	258	n/a	n/a	0	0	0
1154.824	n/a	WORD	577412	wordpools/wasnorm_wordpool_576.txt	LTP117	ltpFR2	0	4	LUNCH	849	n/a	n/a	0	0	0
1157.35	n/a	WORD	578675	wordpools/wasnorm_wordpool_576.txt	LTP117	ltpFR2	0	4	SHOULDER	1294	n/a	n/a	0	0	0
1158.958	n/a	START	579479	n/a	LTP117	ltpFR2	0	n/a	n/a	n/a	5	n/a	n/a	n/a	n/a
1159.962	n/a	DISTRACTOR	579981	n/a	LTP117	ltpFR2	0	4	n/a	n/a	n/a	n/a	0	0	0
1159.978	n/a	PROB	579989	n/a	LTP117	ltpFR2	0	n/a	n/a	n/a	5	19	7	8	4
1161.812	n/a	PROB	580906	n/a	LTP117	ltpFR2	0	n/a	n/a	n/a	5	10	1	7	2
1163.056	n/a	PROB	581528	n/a	LTP117	ltpFR2	0	n/a	n/a	n/a	5	20	9	3	8
1165.308	n/a	PROB	582654	n/a	LTP117	ltpFR2	0	n/a	n/a	n/a	5	16	4	7	5
1167.316	n/a	PROB	583658	n/a	LTP117	ltpFR2	0	n/a	n/a	n/a	5	16	8	1	7
1168.47	n/a	PROB	584235	n/a	LTP117	ltpFR2	0	n/a	n/a	n/a	5	17	2	8	7
1169.726	n/a	PROB	584863	n/a	LTP117	ltpFR2	0	n/a	n/a	n/a	5	23	9	8	6
1171.482	n/a	PROB	585741	n/a	LTP117	ltpFR2	0	n/a	n/a	n/a	5	14	1	6	7
1172.788	n/a	PROB	586394	n/a	LTP117	ltpFR2	0	n/a	n/a	n/a	5	14	1	4	9
1173.942	n/a	PROB	586971	n/a	LTP117	ltpFR2	0	n/a	n/a	n/a	5	14	3	9	2
1175.464	n/a	PROB	587732	n/a	LTP117	ltpFR2	0	n/a	n/a	n/a	5	12	5	4	3
1176.606	n/a	PROB	588303	n/a	LTP117	ltpFR2	0	n/a	n/a	n/a	5	22	8	5	9
1178.962	n/a	PROB	589481	n/a	LTP117	ltpFR2	0	n/a	n/a	n/a	5	9	3	4	2
1180.518	n/a	PROB	590259	n/a	LTP117	ltpFR2	0	n/a	n/a	n/a	5	13	5	7	1
1181.686	n/a	STOP	590843	n/a	LTP117	ltpFR2	0	n/a	n/a	n/a	5	n/a	n/a	n/a	n/a
1184.818	n/a	REC_START	592409	n/a	LTP117	ltpFR2	0	4	n/a	n/a	n/a	n/a	0	0	0
1185.806	n/a	REC_WORD	592903	wordpools/wasnorm_wordpool_576.txt	LTP117	ltpFR2	0	4	BROOK	177	n/a	n/a	0	0	0
1186.478	n/a	REC_WORD	593239	wordpools/wasnorm_wordpool_576.txt	LTP117	ltpFR2	0	4	LADY	794	n/a	n/a	0	0	0
1187.636	n/a	REC_WORD	593818	wordpools/wasnorm_wordpool_576.txt	LTP117	ltpFR2	0	4	LUNCH	849	n/a	n/a	0	0	0
1188.668	n/a	REC_WORD	594334	wordpools/wasnorm_wordpool_576.txt	LTP117	ltpFR2	0	4	UMPIRE	1535	n/a	n/a	0	0	0
1191.272	n/a	REC_WORD	595636	wordpools/wasnorm_wordpool_576.txt	LTP117	ltpFR2	0	4	TURNIP	1521	n/a	n/a	0	0	0
1192.042	n/a	REC_WORD	596021	wordpools/wasnorm_wordpool_576.txt	LTP117	ltpFR2	0	4	LETTUCE	814	n/a	n/a	0	0	0
1193.874	n/a	REC_WORD	596937	wordpools/wasnorm_wordpool_576.txt	LTP117	ltpFR2	0	4	GOBLIN	645	n/a	n/a	0	0	0
1194.686	n/a	REC_WORD	597343	wordpools/wasnorm_wordpool_576.txt	LTP117	ltpFR2	0	4	CREATURE	403	n/a	n/a	0	0	0
1203.734	n/a	REC_WORD	601867	wordpools/wasnorm_wordpool_576.txt	LTP117	ltpFR2	0	4	ARM	38	n/a	n/a	0	0	0
1204.404	n/a	REC_WORD	602202	wordpools/wasnorm_wordpool_576.txt	LTP117	ltpFR2	0	4	SHOULDER	1294	n/a	n/a	0	0	0
1205.356	n/a	REC_WORD	602678	wordpools/wasnorm_wordpool_576.txt	LTP117	ltpFR2	0	4	JEANS	752	n/a	n/a	0	0	0
1223.982	n/a	REC_WORD	611991	wordpools/wasnorm_wordpool_576.txt	LTP117	ltpFR2	0	4	TWISTER	1530	n/a	n/a	0	0	0
1230.262	n/a	REC_WORD	615131	wordpools/wasnorm_wordpool_576.txt	LTP117	ltpFR2	0	4	OFFICE	972	n/a	n/a	0	0	0
1275.854	n/a	WORD	637927	wordpools/wasnorm_wordpool_576.txt	LTP117	ltpFR2	0	5	LABEL	790	n/a	n/a	0	0	0
1278.33	n/a	WORD	639165	wordpools/wasnorm_wordpool_576.txt	LTP117	ltpFR2	0	5	SISTER	1312	n/a	n/a	0	0	0
1280.838	n/a	WORD	640419	wordpools/wasnorm_wordpool_576.txt	LTP117	ltpFR2	0	5	FREEZER	604	n/a	n/a	0	0	0
1283.394	n/a	WORD	641697	wordpools/wasnorm_wordpool_576.txt	LTP117	ltpFR2	0	5	COD	340	n/a	n/a	0	0	0
1285.902	n/a	WORD	642951	wordpools/wasnorm_wordpool_576.txt	LTP117	ltpFR2	0	5	CRAB	397	n/a	n/a	0	0	0
1288.596	n/a	WORD	644298	wordpools/wasnorm_wordpool_576.txt	LTP117	ltpFR2	0	5	WITNESS	1618	n/a	n/a	0	0	0
1291.362	n/a	WORD	645681	wordpools/wasnorm_wordpool_576.txt	LTP117	ltpFR2	0	5	CONVICT	371	n/a	n/a	0	0	0
1294.14	n/a	WORD	647070	wordpools/wasnorm_wordpool_576.txt	LTP117	ltpFR2	0	5	NOTEBOOK	959	n/a	n/a	0	0	0
1296.964	n/a	WORD	648482	wordpools/wasnorm_wordpool_576.txt	LTP117	ltpFR2	0	5	TREAT	1501	n/a	n/a	0	0	0
1299.762	n/a	WORD	649881	wordpools/wasnorm_wordpool_576.txt	LTP117	ltpFR2	0	5	CANDY	230	n/a	n/a	0	0	0
1302.232	n/a	WORD	651116	wordpools/wasnorm_wordpool_576.txt	LTP117	ltpFR2	0	5	NOVEL	960	n/a	n/a	0	0	0
1304.96	n/a	WORD	652480	wordpools/wasnorm_wordpool_576.txt	LTP117	ltpFR2	0	5	SODA	1341	n/a	n/a	0	0	0
1307.72	n/a	WORD	653860	wordpools/wasnorm_wordpool_576.txt	LTP117	ltpFR2	0	5	DONKEY	484	n/a	n/a	0	0	0
1310.234	n/a	WORD	655117	wordpools/wasnorm_wordpool_576.txt	LTP117	ltpFR2	0	5	SWORD	1423	n/a	n/a	0	0	0
1313.024	n/a	WORD	656512	wordpools/wasnorm_wordpool_576.txt	LTP117	ltpFR2	0	5	COIN	343	n/a	n/a	0	0	0
1315.454	n/a	WORD	657727	wordpools/wasnorm_wordpool_576.txt	LTP117	ltpFR2	0	5	MILK	895	n/a	n/a	0	0	0
1317.932	n/a	WORD	658966	wordpools/wasnorm_wordpool_576.txt	LTP117	ltpFR2	0	5	MARROW	872	n/a	n/a	0	0	0
1320.618	n/a	WORD	660309	wordpools/wasnorm_wordpool_576.txt	LTP117	ltpFR2	0	5	AIRPORT	13	n/a	n/a	0	0	0
1323.262	n/a	WORD	661631	wordpools/wasnorm_wordpool_576.txt	LTP117	ltpFR2	0	5	CARRIAGE	248	n/a	n/a	0	0	0
1325.71	n/a	WORD	662855	wordpools/wasnorm_wordpool_576.txt	LTP117	ltpFR2	0	5	HANDBAG	684	n/a	n/a	0	0	0
1328.254	n/a	WORD	664127	wordpools/wasnorm_wordpool_576.txt	LTP117	ltpFR2	0	5	CROWN	415	n/a	n/a	0	0	0
1330.774	n/a	WORD	665387	wordpools/wasnorm_wordpool_576.txt	LTP117	ltpFR2	0	5	BREAST	171	n/a	n/a	0	0	0
1333.368	n/a	WORD	666684	wordpools/wasnorm_wordpool_576.txt	LTP117	ltpFR2	0	5	ROBIN	1199	n/a	n/a	0	0	0
1336.196	n/a	WORD	668098	wordpools/wasnorm_wordpool_576.txt	LTP117	ltpFR2	0	5	PALACE	1006	n/a	n/a	0	0	0
1337.806	n/a	START	668903	n/a	LTP117	ltpFR2	0	n/a	n/a	n/a	6	n/a	n/a	n/a	n/a
1338.898	n/a	DISTRACTOR	669449	n/a	LTP117	ltpFR2	0	5	n/a	n/a	n/a	n/a	0	0	0
1338.91	n/a	PROB	669455	n/a	LTP117	ltpFR2	0	n/a	n/a	n/a	6	11	5	5	1
1339.96	n/a	PROB	669980	n/a	LTP117	ltpFR2	0	n/a	n/a	n/a	6	12	4	5	3
1341.13	n/a	PROB	670565	n/a	LTP117	ltpFR2	0	n/a	n/a	n/a	6	21	9	4	8
1342.736	n/a	PROB	671368	n/a	LTP117	ltpFR2	0	n/a	n/a	n/a	6	17	9	7	1
1343.908	n/a	PROB	671954	n/a	LTP117	ltpFR2	0	n/a	n/a	n/a	6	15	6	7	2
1345.38	n/a	PROB	672690	n/a	LTP117	ltpFR2	0	n/a	n/a	n/a	6	15	5	2	8
1346.752	n/a	PROB	673376	n/a	LTP117	ltpFR2	0	n/a	n/a	n/a	6	22	8	6	8
1348.392	n/a	PROB	674196	n/a	LTP117	ltpFR2	0	n/a	n/a	n/a	6	13	5	7	2
1349.698	n/a	PROB	674849	n/a	LTP117	ltpFR2	0	n/a	n/a	n/a	6	18	9	4	5
1351.404	n/a	PROB	675702	n/a	LTP117	ltpFR2	0	n/a	n/a	n/a	6	10	1	3	6
1352.424	n/a	PROB	676212	n/a	LTP117	ltpFR2	0	n/a	n/a	n/a	6	15	4	4	7
1354.148	n/a	PROB	677074	n/a	LTP117	ltpFR2	0	n/a	n/a	n/a	6	11	4	2	5
1355.334	n/a	PROB	677667	n/a	LTP117	ltpFR2	0	n/a	n/a	n/a	6	13	4	1	8
1356.728	n/a	PROB	678364	n/a	LTP117	ltpFR2	0	n/a	n/a	n/a	6	13	4	3	6
1361.808	n/a	STOP	680904	n/a	LTP117	ltpFR2	0	n/a	n/a	n/a	6	n/a	n/a	n/a	n/a
1363.7	n/a	REC_START	681850	n/a	LTP117	ltpFR2	0	5	n/a	n/a	n/a	n/a	0	0	0
1364.766	n/a	REC_WORD	682383	wordpools/wasnorm_wordpool_576.txt	LTP117	ltpFR2	0	5	LABEL	790	n/a	n/a	0	0	0
1365.576	n/a	REC_WORD	682788	wordpools/wasnorm_wordpool_576.txt	LTP117	ltpFR2	0	5	SISTER	1312	n/a	n/a	0	0	0
1366.688	n/a	REC_WORD	683344	wordpools/wasnorm_wordpool_576.txt	LTP117	ltpFR2	0	5	COD	340	n/a	n/a	0	0	0
1367.548	n/a	REC_WORD	683774	wordpools/wasnorm_wordpool_576.txt	LTP117	ltpFR2	0	5	CRAB	397	n/a	n/a	0	0	0
1369.696	n/a	REC_WORD	684848	wordpools/wasnorm_wordpool_576.txt	LTP117	ltpFR2	0	5	TREAT	1501	n/a	n/a	0	0	0
1370.588	n/a	REC_WORD	685294	wordpools/wasnorm_wordpool_576.txt	LTP117	ltpFR2	0	5	CANDY	230	n/a	n/a	0	0	0
1371.762	n/a	REC_WORD	685881	wordpools/wasnorm_wordpool_576.txt	LTP117	ltpFR2	0	5	FREEZER	604	n/a	n/a	0	0	0
1373.852	n/a	REC_WORD	686926	wordpools/wasnorm_wordpool_576.txt	LTP117	ltpFR2	0	5	WITNESS	1618	n/a	n/a	0	0	0
1374.836	n/a	REC_WORD	687418	wordpools/wasnorm_wordpool_576.txt	LTP117	ltpFR2	0	5	CONVICT	371	n/a	n/a	0	0	0
1376.01	n/a	REC_WORD	688005	wordpools/wasnorm_wordpool_576.txt	LTP117	ltpFR2	0	5	CARRIAGE	248	n/a	n/a	0	0	0
1377.532	n/a	REC_WORD	688766	wordpools/wasnorm_wordpool_576.txt	LTP117	ltpFR2	0	5	PALACE	1006	n/a	n/a	0	0	0
1378.48	n/a	REC_WORD	689240	wordpools/wasnorm_wordpool_576.txt	LTP117	ltpFR2	0	5	AIRPORT	13	n/a	n/a	0	0	0
1400.894	n/a	REC_WORD	700447	wordpools/wasnorm_wordpool_576.txt	LTP117	ltpFR2	0	5	CANDY	230	n/a	n/a	0	0	0
1406.658	n/a	REC_WORD	703329	wordpools/wasnorm_wordpool_576.txt	LTP117	ltpFR2	0	5	NOTEBOOK	959	n/a	n/a	0	0	0
1454.72	n/a	DISTRACTOR	727360	n/a	LTP117	ltpFR2	0	6	n/a	n/a	n/a	n/a	0	0	0
1454.72	n/a	START	727360	n/a	LTP117	ltpFR2	0	n/a	n/a	n/a	7	n/a	n/a	n/a	n/a
1454.77	n/a	PROB	727385	n/a	LTP117	ltpFR2	0	n/a	n/a	n/a	7	12	8	3	1
1455.954	n/a	PROB	727977	n/a	LTP117	ltpFR2	0	n/a	n/a	n/a	7	22	9	8	5
1458.814	n/a	PROB	729407	n/a	LTP117	ltpFR2	0	n/a	n/a	n/a	7	13	5	7	2
1460.638	n/a	PROB	730319	n/a	LTP117	ltpFR2	0	n/a	n/a	n/a	7	17	7	4	6
1461.892	n/a	PROB	730946	n/a	LTP117	ltpFR2	0	n/a	n/a	n/a	7	13	3	5	5
1462.83	n/a	PROB	731415	n/a	LTP117	ltpFR2	0	n/a	n/a	n/a	7	19	8	9	2
1464.206	n/a	PROB	732103	n/a	LTP117	ltpFR2	0	n/a	n/a	n/a	7	15	8	5	4
1465.896	n/a	PROB	732948	n/a	LTP117	ltpFR2	0	n/a	n/a	n/a	7	17	8	6	3
1467.314	n/a	PROB	733657	n/a	LTP117	ltpFR2	0	n/a	n/a	n/a	7	16	7	6	3
1469.388	n/a	PROB	734694	n/a	LTP117	ltpFR2	0	n/a	n/a	n/a	7	14	6	3	5
1470.542	n/a	PROB	735271	n/a	LTP117	ltpFR2	0	n/a	n/a	n/a	7	12	3	2	7
1471.702	n/a	PROB	735851	n/a	LTP117	ltpFR2	0	n/a	n/a	n/a	7	18	4	6	8
1473.626	n/a	PROB	736813	n/a	LTP117	ltpFR2	0	n/a	n/a	n/a	7	17	9	4	4
1474.774	n/a	PROB	737387	n/a	LTP117	ltpFR2	0	n/a	n/a	n/a	7	12	3	8	1
1476.08	n/a	PROB	738040	n/a	LTP117	ltpFR2	0	n/a	n/a	n/a	7	13	1	9	3
1477.19	n/a	PROB	738595	n/a	LTP117	ltpFR2	0	n/a	n/a	n/a	7	18	3	7	8
1478.526	n/a	STOP	739263	n/a	LTP117	ltpFR2	0	n/a	n/a	n/a	7	n/a	n/a	n/a	n/a
1479.794	n/a	WORD	739897	wordpools/wasnorm_wordpool_576.txt	LTP117	ltpFR2	0	6	VELVET	1555	n/a	n/a	0	0	0
1482.304	n/a	WORD	741152	wordpools/wasnorm_wordpool_576.txt	LTP117	ltpFR2	0	6	POISON	1096	n/a	n/a	0	0	0
1484.902	n/a	WORD	742451	wordpools/wasnorm_wordpool_576.txt	LTP117	ltpFR2	0	6	PUPPY	1144	n/a	n/a	0	0	0
1487.412	n/a	WORD	743706	wordpools/wasnorm_wordpool_576.txt	LTP117	ltpFR2	0	6	HORSE	719	n/a	n/a	0	0	0
1489.956	n/a	WORD	744978	wordpools/wasnorm_wordpool_576.txt	LTP117	ltpFR2	0	6	ONION	977	n/a	n/a	0	0	0
1492.514	n/a	WORD	746257	wordpools/wasnorm_wordpool_576.txt	LTP117	ltpFR2	0	6	GLOVE	642	n/a	n/a	0	0	0
1495.22	n/a	WORD	747610	wordpools/wasnorm_wordpool_576.txt	LTP117	ltpFR2	0	6	REBEL	1172	n/a	n/a	0	0	0
1497.718	n/a	WORD	748859	wordpools/wasnorm_wordpool_576.txt	LTP117	ltpFR2	0	6	EUROPE	541	n/a	n/a	0	0	0
1500.478	n/a	WORD	750239	wordpools/wasnorm_wordpool_576.txt	LTP117	ltpFR2	0	6	MARINE	869	n/a	n/a	0	0	0
1503.034	n/a	WORD	751517	wordpools/wasnorm_wordpool_576.txt	LTP117	ltpFR2	0	6	APRON	35	n/a	n/a	0	0	0
1505.776	n/a	WORD	752888	wordpools/wasnorm_wordpool_576.txt	LTP117	ltpFR2	0	6	REPORT	1184	n/a	n/a	0	0	0
1508.526	n/a	WORD	754263	wordpools/wasnorm_wordpool_576.txt	LTP117	ltpFR2	0	6	CRIB	407	n/a	n/a	0	0	0
1511.086	n/a	WORD	755543	wordpools/wasnorm_wordpool_576.txt	LTP117	ltpFR2	0	6	BUGGY	188	n/a	n/a	0	0	0
1513.74	n/a	WORD	756870	wordpools/wasnorm_wordpool_576.txt	LTP117	ltpFR2	0	6	FIREPLACE	570	n/a	n/a	0	0	0
1516.356	n/a	WORD	758178	wordpools/wasnorm_wordpool_576.txt	LTP117	ltpFR2	0	6	MUFFIN	929	n/a	n/a	0	0	0
1518.882	n/a	WORD	759441	wordpools/wasnorm_wordpool_576.txt	LTP117	ltpFR2	0	6	PECAN	1036	n/a	n/a	0	0	0
1521.692	n/a	WORD	760846	wordpools/wasnorm_wordpool_576.txt	LTP117	ltpFR2	0	6	CASHEW	253	n/a	n/a	0	0	0
1524.114	n/a	WORD	762057	wordpools/wasnorm_wordpool_576.txt	LTP117	ltpFR2	0	6	CHILD	299	n/a	n/a	0	0	0
1526.556	n/a	WORD	763278	wordpools/wasnorm_wordpool_576.txt	LTP117	ltpFR2	0	6	PARENT	1013	n/a	n/a	0	0	0
1529.154	n/a	WORD	764577	wordpools/wasnorm_wordpool_576.txt	LTP117	ltpFR2	0	6	LILY	821	n/a	n/a	0	0	0
1531.664	n/a	WORD	765832	wordpools/wasnorm_wordpool_576.txt	LTP117	ltpFR2	0	6	SIDEWALK	1303	n/a	n/a	0	0	0
1534.092	n/a	WORD	767046	wordpools/wasnorm_wordpool_576.txt	LTP117	ltpFR2	0	6	FARMER	553	n/a	n/a	0	0	0
1536.734	n/a	WORD	768367	wordpools/wasnorm_wordpool_576.txt	LTP117	ltpFR2	0	6	LONDON	843	n/a	n/a	0	0	0
1539.36	n/a	WORD	769680	wordpools/wasnorm_wordpool_576.txt	LTP117	ltpFR2	0	6	BINDER	127	n/a	n/a	0	0	0
1540.968	n/a	START	770484	n/a	LTP117	ltpFR2	0	n/a	n/a	n/a	8	n/a	n/a	n/a	n/a
1542.084	n/a	DISTRACTOR	771042	n/a	LTP117	ltpFR2	0	6	n/a	n/a	n/a	n/a	0	0	0
1542.1	n/a	PROB	771050	n/a	LTP117	ltpFR2	0	n/a	n/a	n/a	8	13	8	3	2
1544.212	n/a	PROB	772106	n/a	LTP117	ltpFR2	0	n/a	n/a	n/a	8	23	5	9	9
1546.07	n/a	PROB	773035	n/a	LTP117	ltpFR2	0	n/a	n/a	n/a	8	20	9	6	5
1547.904	n/a	PROB	773952	n/a	LTP117	ltpFR2	0	n/a	n/a	n/a	8	12	5	4	3
1548.992	n/a	PROB	774496	n/a	LTP117	ltpFR2	0	n/a	n/a	n/a	8	10	2	2	6
1549.878	n/a	PROB	774939	n/a	LTP117	ltpFR2	0	n/a	n/a	n/a	8	18	9	3	6
1551.066	n/a	PROB	775533	n/a	LTP117	ltpFR2	0	n/a	n/a	n/a	8	22	5	8	9
1553.124	n/a	PROB	776562	n/a	LTP117	ltpFR2	0	n/a	n/a	n/a	8	16	6	4	6
1554.698	n/a	PROB	777349	n/a	LTP117	ltpFR2	0	n/a	n/a	n/a	8	7	6	1	2
1556.254	n/a	PROB	778127	n/a	LTP117	ltpFR2	0	n/a	n/a	n/a	8	19	7	8	4
1558.378	n/a	PROB	779189	n/a	LTP117	ltpFR2	0	n/a	n/a	n/a	8	10	2	7	1
1559.348	n/a	PROB	779674	n/a	LTP117	ltpFR2	0	n/a	n/a	n/a	8	13	6	4	3
1560.72	n/a	PROB	780360	n/a	LTP117	ltpFR2	0	n/a	n/a	n/a	8	7	3	3	1
1561.724	n/a	PROB	780862	n/a	LTP117	ltpFR2	0	n/a	n/a	n/a	8	19	2	8	9
1564.57	n/a	STOP	782285	n/a	LTP117	ltpFR2	0	n/a	n/a	n/a	8	n/a	n/a	n/a	n/a
1566.878	n/a	REC_START	783439	n/a	LTP117	ltpFR2	0	6	n/a	n/a	n/a	n/a	0	0	0
1568.6	n/a	REC_WORD	784300	wordpools/wasnorm_wordpool_576.txt	LTP117	ltpFR2	0	6	ONION	977	n/a	n/a	0	0	0
1569.268	n/a	REC_WORD	784634	wordpools/wasnorm_wordpool_576.txt	LTP117	ltpFR2	0	6	SIDEWALK	1303	n/a	n/a	0	0	0
1570.544	n/a	REC_WORD	785272	wordpools/wasnorm_wordpool_576.txt	LTP117	ltpFR2	0	6	REBEL	1172	n/a	n/a	0	0	0
1571.906	n/a	REC_WORD	785953	wordpools/wasnorm_wordpool_576.txt	LTP117	ltpFR2	0	6	EUROPE	541	n/a	n/a	0	0	0
1572.78	n/a	REC_WORD	786390	wordpools/wasnorm_wordpool_576.txt	LTP117	ltpFR2	0	6	LILY	821	n/a	n/a	0	0	0
1573.554	n/a	REC_WORD	786777	wordpools/wasnorm_wordpool_576.txt	LTP117	ltpFR2	0	6	CHILD	299	n/a	n/a	0	0	0
1574.414	n/a	REC_WORD	787207	wordpools/wasnorm_wordpool_576.txt	LTP117	ltpFR2	0	6	PARENT	1013	n/a	n/a	0	0	0
1575.538	n/a	REC_WORD	787769	wordpools/wasnorm_wordpool_576.txt	LTP117	ltpFR2	0	6	MUFFIN	929	n/a	n/a	0	0	0
1577.87	n/a	REC_WORD	788935	wordpools/wasnorm_wordpool_576.txt	LTP117	ltpFR2	0	6	PECAN	1036	n/a	n/a	0	0	0
1579.816	n/a	REC_WORD	789908	wordpools/wasnorm_wordpool_576.txt	LTP117	ltpFR2	0	6	CASHEW	253	n/a	n/a	0	0	0
1581.132	n/a	REC_WORD	790566	wordpools/wasnorm_wordpool_576.txt	LTP117	ltpFR2	0	6	APRON	35	n/a	n/a	0	0	0
1582.556	n/a	REC_WORD	791278	wordpools/wasnorm_wordpool_576.txt	LTP117	ltpFR2	0	6	FIREPLACE	570	n/a	n/a	0	0	0
1584.804	n/a	REC_WORD	792402	wordpools/wasnorm_wordpool_576.txt	LTP117	ltpFR2	0	6	LILY	821	n/a	n/a	0	0	0
1587.56	n/a	REC_WORD	793780	wordpools/wasnorm_wordpool_576.txt	LTP117	ltpFR2	0	6	GLOVE	642	n/a	n/a	0	0	0
1589.468	n/a	REC_WORD	794734	wordpools/wasnorm_wordpool_576.txt	LTP117	ltpFR2	0	6	REPORT	1184	n/a	n/a	0	0	0
1601.598	n/a	REC_WORD	800799	wordpools/wasnorm_wordpool_576.txt	LTP117	ltpFR2	0	6	FIREPLACE	570	n/a	n/a	0	0	0
1611.058	n/a	REC_WORD	805529	wordpools/wasnorm_wordpool_576.txt	LTP117	ltpFR2	0	6	EUROPE	541	n/a	n/a	0	0	0
1633.228	n/a	REC_WORD	816614	wordpools/wasnorm_wordpool_576.txt	LTP117	ltpFR2	0	6	PARENT	1013	n/a	n/a	0	0	0
1633.614	n/a	REC_WORD	816807	wordpools/wasnorm_wordpool_576.txt	LTP117	ltpFR2	0	6	CHILD	299	n/a	n/a	0	0	0
1637.714	n/a	REC_WORD	818857	wordpools/wasnorm_wordpool_576.txt	LTP117	ltpFR2	0	6	BUGGY	188	n/a	n/a	0	0	0
1657.946	n/a	WORD	828973	wordpools/wasnorm_wordpool_576.txt	LTP117	ltpFR2	0	7	TWEEZERS	1526	n/a	n/a	0	0	0
1660.484	n/a	WORD	830242	wordpools/wasnorm_wordpool_576.txt	LTP117	ltpFR2	0	7	PERMIT	1051	n/a	n/a	0	0	0
1662.95	n/a	WORD	831475	wordpools/wasnorm_wordpool_576.txt	LTP117	ltpFR2	0	7	ROCKET	1202	n/a	n/a	0	0	0
1665.738	n/a	WORD	832869	wordpools/wasnorm_wordpool_576.txt	LTP117	ltpFR2	0	7	PORTRAIT	1111	n/a	n/a	0	0	0
1668.236	n/a	WORD	834118	wordpools/wasnorm_wordpool_576.txt	LTP117	ltpFR2	0	7	SKETCH	1315	n/a	n/a	0	0	0
1670.93	n/a	WORD	835465	wordpools/wasnorm_wordpool_576.txt	LTP117	ltpFR2	0	7	THIEF	1456	n/a	n/a	0	0	0
1673.456	n/a	WORD	836728	wordpools/wasnorm_wordpool_576.txt	LTP117	ltpFR2	0	7	DAUGHTER	442	n/a	n/a	0	0	0
1676.084	n/a	WORD	838042	wordpools/wasnorm_wordpool_576.txt	LTP117	ltpFR2	0	7	BRACES	164	n/a	n/a	0	0	0
1678.726	n/a	WORD	839363	wordpools/wasnorm_wordpool_576.txt	LTP117	ltpFR2	0	7	PIMPLE	1071	n/a	n/a	0	0	0
1681.18	n/a	WORD	840590	wordpools/wasnorm_wordpool_576.txt	LTP117	ltpFR2	0	7	OUTLAW	989	n/a	n/a	0	0	0
1683.946	n/a	WORD	841973	wordpools/wasnorm_wordpool_576.txt	LTP117	ltpFR2	0	7	BEAKER	104	n/a	n/a	0	0	0
1686.556	n/a	WORD	843278	wordpools/wasnorm_wordpool_576.txt	LTP117	ltpFR2	0	7	BUBBLE	183	n/a	n/a	0	0	0
1689.328	n/a	WORD	844664	wordpools/wasnorm_wordpool_576.txt	LTP117	ltpFR2	0	7	FUNGUS	614	n/a	n/a	0	0	0
1691.776	n/a	WORD	845888	wordpools/wasnorm_wordpool_576.txt	LTP117	ltpFR2	0	7	RADISH	1158	n/a	n/a	0	0	0
1694.33	n/a	WORD	847165	wordpools/wasnorm_wordpool_576.txt	LTP117	ltpFR2	0	7	CABBAGE	210	n/a	n/a	0	0	0
1696.924	n/a	WORD	848462	wordpools/wasnorm_wordpool_576.txt	LTP117	ltpFR2	0	7	PEDAL	1037	n/a	n/a	0	0	0
1699.606	n/a	WORD	849803	wordpools/wasnorm_wordpool_576.txt	LTP117	ltpFR2	0	7	SMOG	1330	n/a	n/a	0	0	0
1702.334	n/a	WORD	851167	wordpools/wasnorm_wordpool_576.txt	LTP117	ltpFR2	0	7	BANJO	82	n/a	n/a	0	0	0
1704.938	n/a	WORD	852469	wordpools/wasnorm_wordpool_576.txt	LTP117	ltpFR2	0	7	CHEMIST	292	n/a	n/a	0	0	0
1707.386	n/a	WORD	853693	wordpools/wasnorm_wordpool_576.txt	LTP117	ltpFR2	0	7	FRECKLE	602	n/a	n/a	0	0	0
1709.828	n/a	WORD	854914	wordpools/wasnorm_wordpool_576.txt	LTP117	ltpFR2	0	7	CASHIER	254	n/a	n/a	0	0	0
1712.5	n/a	WORD	856250	wordpools/wasnorm_wordpool_576.txt	LTP117	ltpFR2	0	7	TEACHER	1440	n/a	n/a	0	0	0
1714.966	n/a	WORD	857483	wordpools/wasnorm_wordpool_576.txt	LTP117	ltpFR2	0	7	EXPERT	543	n/a	n/a	0	0	0
1717.72	n/a	WORD	858860	wordpools/wasnorm_wordpool_576.txt	LTP117	ltpFR2	0	7	POWDER	1117	n/a	n/a	0	0	0
1719.332	n/a	START	859666	n/a	LTP117	ltpFR2	0	n/a	n/a	n/a	9	n/a	n/a	n/a	n/a
1720.216	n/a	DISTRACTOR	860108	n/a	LTP117	ltpFR2	0	7	n/a	n/a	n/a	n/a	0	0	0
1720.23	n/a	PROB	860115	n/a	LTP117	ltpFR2	0	n/a	n/a	n/a	9	18	7	9	2
1722.038	n/a	PROB	861019	n/a	LTP117	ltpFR2	0	n/a	n/a	n/a	9	14	6	6	2
1723.358	n/a	PROB	861679	n/a	LTP117	ltpFR2	0	n/a	n/a	n/a	9	17	4	5	8
1724.664	n/a	PROB	862332	n/a	LTP117	ltpFR2	0	n/a	n/a	n/a	9	24	9	9	6
1726.208	n/a	PROB	863104	n/a	LTP117	ltpFR2	0	n/a	n/a	n/a	9	9	4	4	1
1727.19	n/a	PROB	863595	n/a	LTP117	ltpFR2	0	n/a	n/a	n/a	9	16	5	4	7
1728.802	n/a	PROB	864401	n/a	LTP117	ltpFR2	0	n/a	n/a	n/a	9	24	8	9	7
1730.274	n/a	PROB	865137	n/a	LTP117	ltpFR2	0	n/a	n/a	n/a	9	27	8	9	8
1733.614	n/a	PROB	866807	n/a	LTP117	ltpFR2	0	n/a	n/a	n/a	9	9	5	1	5
1734.584	n/a	PROB	867292	n/a	LTP117	ltpFR2	0	n/a	n/a	n/a	9	9	2	6	3
1737.216	n/a	PROB	868608	n/a	LTP117	ltpFR2	0	n/a	n/a	n/a	9	8	1	2	5
1738.532	n/a	PROB	869266	n/a	LTP117	ltpFR2	0	n/a	n/a	n/a	9	10	2	2	6
1739.47	n/a	PROB	869735	n/a	LTP117	ltpFR2	0	n/a	n/a	n/a	9	8	3	2	3
1740.512	n/a	PROB	870256	n/a	LTP117	ltpFR2	0	n/a	n/a	n/a	9	11	1	8	2
1743.334	n/a	STOP	871667	n/a	LTP117	ltpFR2	0	n/a	n/a	n/a	9	n/a	n/a	n/a	n/a
1745.16	n/a	REC_START	872580	n/a	LTP117	ltpFR2	0	7	n/a	n/a	n/a	n/a	0	0	0
1746.448	n/a	REC_WORD	873224	wordpools/wasnorm_wordpool_576.txt	LTP117	ltpFR2	0	7	SKETCH	1315	n/a	n/a	0	0	0
1747.354	n/a	REC_WORD	873677	wordpools/wasnorm_wordpool_576.txt	LTP117	ltpFR2	0	7	PORTRAIT	1111	n/a	n/a	0	0	0
1748.266	n/a	REC_WORD	874133	wordpools/wasnorm_wordpool_576.txt	LTP117	ltpFR2	0	7	DAUGHTER	442	n/a	n/a	0	0	0
1749.076	n/a	REC_WORD	874538	wordpools/wasnorm_wordpool_576.txt	LTP117	ltpFR2	0	7	PIMPLE	1071	n/a	n/a	0	0	0
1749.9	n/a	REC_WORD	874950	wordpools/wasnorm_wordpool_576.txt	LTP117	ltpFR2	0	7	FRECKLE	602	n/a	n/a	0	0	0
1751.744	n/a	REC_WORD	875872	wordpools/wasnorm_wordpool_576.txt	LTP117	ltpFR2	0	7	THIEF	1456	n/a	n/a	0	0	0
1753.88	n/a	REC_WORD	876940	wordpools/wasnorm_wordpool_576.txt	LTP117	ltpFR2	0	7	CABBAGE	210	n/a	n/a	0	0	0
1755.808	n/a	REC_WORD	877904	wordpools/wasnorm_wordpool_576.txt	LTP117	ltpFR2	0	7	TURNIP	1521	n/a	n/a	0	0	0
1758.88	n/a	REC_WORD	879440	wordpools/wasnorm_wordpool_576.txt	LTP117	ltpFR2	0	7	TEACHER	1440	n/a	n/a	0	0	0
1760.246	n/a	REC_WORD	880123	wordpools/wasnorm_wordpool_576.txt	LTP117	ltpFR2	0	7	CASHIER	254	n/a	n/a	0	0	0
1761.676	n/a	REC_WORD	880838	wordpools/wasnorm_wordpool_576.txt	LTP117	ltpFR2	0	7	EXPERT	543	n/a	n/a	0	0	0
1774.162	n/a	REC_WORD	887081	wordpools/wasnorm_wordpool_576.txt	LTP117	ltpFR2	0	7	ROCKET	1202	n/a	n/a	0	0	0
1779.956	n/a	REC_WORD	889978	wordpools/wasnorm_wordpool_576.txt	LTP117	ltpFR2	0	7	FUNGUS	614	n/a	n/a	0	0	0
1780.91	n/a	REC_WORD	890455	wordpools/wasnorm_wordpool_576.txt	LTP117	ltpFR2	0	7	CHEMIST	292	n/a	n/a	0	0	0
1781.878	n/a	REC_WORD	890939	wordpools/wasnorm_wordpool_576.txt	LTP117	ltpFR2	0	7	BEAKER	104	n/a	n/a	0	0	0
1836.196	n/a	WORD	918098	wordpools/wasnorm_wordpool_576.txt	LTP117	ltpFR2	0	8	CRITIC	410	n/a	n/a	0	0	0
1838.856	n/a	WORD	919428	wordpools/wasnorm_wordpool_576.txt	LTP117	ltpFR2	0	8	GREASE	660	n/a	n/a	0	0	0
1841.364	n/a	WORD	920682	wordpools/wasnorm_wordpool_576.txt	LTP117	ltpFR2	0	8	PIGMENT	1066	n/a	n/a	0	0	0
1843.786	n/a	WORD	921893	wordpools/wasnorm_wordpool_576.txt	LTP117	ltpFR2	0	8	BEAVER	109	n/a	n/a	0	0	0
1846.366	n/a	WORD	923183	wordpools/wasnorm_wordpool_576.txt	LTP117	ltpFR2	0	8	SWAMP	1416	n/a	n/a	0	0	0
1848.87	n/a	WORD	924435	wordpools/wasnorm_wordpool_576.txt	LTP117	ltpFR2	0	8	SUNRISE	1407	n/a	n/a	0	0	0
1851.42	n/a	WORD	925710	wordpools/wasnorm_wordpool_576.txt	LTP117	ltpFR2	0	8	NAPKIN	937	n/a	n/a	0	0	0
1853.976	n/a	WORD	926988	wordpools/wasnorm_wordpool_576.txt	LTP117	ltpFR2	0	8	SOFTBALL	1343	n/a	n/a	0	0	0
1856.718	n/a	WORD	928359	wordpools/wasnorm_wordpool_576.txt	LTP117	ltpFR2	0	8	ITEM	746	n/a	n/a	0	0	0
1859.478	n/a	WORD	929739	wordpools/wasnorm_wordpool_576.txt	LTP117	ltpFR2	0	8	TORTOISE	1486	n/a	n/a	0	0	0
1862.072	n/a	WORD	931036	wordpools/wasnorm_wordpool_576.txt	LTP117	ltpFR2	0	8	CONCERT	360	n/a	n/a	0	0	0
1864.682	n/a	WORD	932341	wordpools/wasnorm_wordpool_576.txt	LTP117	ltpFR2	0	8	BOX	159	n/a	n/a	0	0	0
1867.214	n/a	WORD	933607	wordpools/wasnorm_wordpool_576.txt	LTP117	ltpFR2	0	8	CHAPEL	280	n/a	n/a	0	0	0
1870.038	n/a	WORD	935019	wordpools/wasnorm_wordpool_576.txt	LTP117	ltpFR2	0	8	MONSTER	912	n/a	n/a	0	0	0
1872.6	n/a	WORD	936300	wordpools/wasnorm_wordpool_576.txt	LTP117	ltpFR2	0	8	EMPIRE	530	n/a	n/a	0	0	0
1875.24	n/a	WORD	937620	wordpools/wasnorm_wordpool_576.txt	LTP117	ltpFR2	0	8	TABLET	1427	n/a	n/a	0	0	0
1878.034	n/a	WORD	939017	wordpools/wasnorm_wordpool_576.txt	LTP117	ltpFR2	0	8	PAPER	1011	n/a	n/a	0	0	0
1880.732	n/a	WORD	940366	wordpools/wasnorm_wordpool_576.txt	LTP117	ltpFR2	0	8	PIANO	1057	n/a	n/a	0	0	0
1883.526	n/a	WORD	941763	wordpools/wasnorm_wordpool_576.txt	LTP117	ltpFR2	0	8	FRAGRANCE	599	n/a	n/a	0	0	0
1886.348	n/a	WORD	943174	wordpools/wasnorm_wordpool_576.txt	LTP117	ltpFR2	0	8	PERFUME	1049	n/a	n/a	0	0	0
1889.082	n/a	WORD	944541	wordpools/wasnorm_wordpool_576.txt	LTP117	ltpFR2	0	8	FOOTBALL	591	n/a	n/a	0	0	0
1891.686	n/a	WORD	945843	wordpools/wasnorm_wordpool_576.txt	LTP117	ltpFR2	0	8	CRAYON	401	n/a	n/a	0	0	0
1894.4	n/a	WORD	947200	wordpools/wasnorm_wordpool_576.txt	LTP117	ltpFR2	0	8	BOARD	143	n/a	n/a	0	0	0
1897.074	n/a	WORD	948537	wordpools/wasnorm_wordpool_576.txt	LTP117	ltpFR2	0	8	IGLOO	734	n/a	n/a	0	0	0
1898.684	n/a	START	949342	n/a	LTP117	ltpFR2	0	n/a	n/a	n/a	10	n/a	n/a	n/a	n/a
1899.566	n/a	DISTRACTOR	949783	n/a	LTP117	ltpFR2	0	8	n/a	n/a	n/a	n/a	0	0	0
1899.582	n/a	PROB	949791	n/a	LTP117	ltpFR2	0	n/a	n/a	n/a	10	22	9	8	5
1902.342	n/a	PROB	951171	n/a	LTP117	ltpFR2	0	n/a	n/a	n/a	10	21	9	7	5
1903.698	n/a	PROB	951849	n/a	LTP117	ltpFR2	0	n/a	n/a	n/a	10	20	7	7	6
1905.738	n/a	PROB	952869	n/a	LTP117	ltpFR2	0	n/a	n/a	n/a	10	17	8	5	4
1907.182	n/a	PROB	953591	n/a	LTP117	ltpFR2	0	n/a	n/a	n/a	10	1	4	6	2
1908.432	n/a	PROB	954216	n/a	LTP117	ltpFR2	0	n/a	n/a	n/a	10	16	8	5	3
1911.276	n/a	PROB	955638	n/a	LTP117	ltpFR2	0	n/a	n/a	n/a	10	9	7	1	1
1912.218	n/a	PROB	956109	n/a	LTP117	ltpFR2	0	n/a	n/a	n/a	10	8	3	2	2
1913.876	n/a	PROB	956938	n/a	LTP117	ltpFR2	0	n/a	n/a	n/a	10	8	1	4	3
1914.912	n/a	PROB	957456	n/a	LTP117	ltpFR2	0	n/a	n/a	n/a	10	17	7	3	7
1916.262	n/a	PROB	958131	n/a	LTP117	ltpFR2	0	n/a	n/a	n/a	10	19	8	6	5
1917.986	n/a	PROB	958993	n/a	LTP117	ltpFR2	0	n/a	n/a	n/a	10	8	1	1	6
1919.006	n/a	PROB	959503	n/a	LTP117	ltpFR2	0	n/a	n/a	n/a	10	15	7	6	2
1920.378	n/a	PROB	960189	n/a	LTP117	ltpFR2	0	n/a	n/a	n/a	10	16	7	2	7
1921.99	n/a	STOP	960995	n/a	LTP117	ltpFR2	0	n/a	n/a	n/a	10	n/a	n/a	n/a	n/a
1924.584	n/a	REC_START	962292	n/a	LTP117	ltpFR2	0	8	n/a	n/a	n/a	n/a	0	0	0
1925.188	n/a	REC_WORD	962594	wordpools/wasnorm_wordpool_576.txt	LTP117	ltpFR2	0	8	TABLET	1427	n/a	n/a	0	0	0
1926.892	n/a	REC_WORD	963446	wordpools/wasnorm_wordpool_576.txt	LTP117	ltpFR2	0	8	PAPER	1011	n/a	n/a	0	0	0
1930.22	n/a	REC_WORD	965110	wordpools/wasnorm_wordpool_576.txt	LTP117	ltpFR2	0	8	CONCERT	360	n/a	n/a	0	0	0
1931.162	n/a	REC_WORD	965581	wordpools/wasnorm_wordpool_576.txt	LTP117	ltpFR2	0	8	BOX	159	n/a	n/a	0	0	0
1932.046	n/a	REC_WORD	966023	wordpools/wasnorm_wordpool_576.txt	LTP117	ltpFR2	0	8	CHAPEL	280	n/a	n/a	0	0	0
1938.208	n/a	REC_WORD	969104	wordpools/wasnorm_wordpool_576.txt	LTP117	ltpFR2	0	8	MONSTER	912	n/a	n/a	0	0	0
1939.926	n/a	REC_WORD	969963	wordpools/wasnorm_wordpool_576.txt	LTP117	ltpFR2	0	8	EMPIRE	530	n/a	n/a	0	0	0
1994.734	n/a	REC_WORD	997367	wordpools/wasnorm_wordpool_576.txt	LTP117	ltpFR2	0	8	BEAVER	109	n/a	n/a	0	0	0
1996.586	n/a	REC_WORD	998293	wordpools/wasnorm_wordpool_576.txt	LTP117	ltpFR2	0	8	SUNRISE	1407	n/a	n/a	0	0	0
2001.36	n/a	REST_REWET	1000680	n/a	LTP117	ltpFR2	0	8	n/a	n/a	n/a	n/a	0	0	0
2257.538	n/a	DISTRACTOR	1128769	n/a	LTP117	ltpFR2	0	9	n/a	n/a	n/a	n/a	0	0	0
2257.538	n/a	START	1128769	n/a	LTP117	ltpFR2	0	n/a	n/a	n/a	11	n/a	n/a	n/a	n/a
2257.588	n/a	PROB	1128794	n/a	LTP117	ltpFR2	0	n/a	n/a	n/a	11	10	1	4	5
2259.692	n/a	PROB	1129846	n/a	LTP117	ltpFR2	0	n/a	n/a	n/a	11	12	6	5	1
2261.02	n/a	PROB	1130510	n/a	LTP117	ltpFR2	0	n/a	n/a	n/a	11	13	6	2	5
2263.612	n/a	PROB	1131806	n/a	LTP117	ltpFR2	0	n/a	n/a	n/a	11	23	9	6	8
2265.214	n/a	PROB	1132607	n/a	LTP117	ltpFR2	0	n/a	n/a	n/a	11	9	2	6	1
2266.25	n/a	PROB	1133125	n/a	LTP117	ltpFR2	0	n/a	n/a	n/a	11	11	1	5	6
2267.66	n/a	PROB	1133830	n/a	LTP117	ltpFR2	0	n/a	n/a	n/a	11	18	2	7	9
2268.928	n/a	PROB	1134464	n/a	LTP117	ltpFR2	0	n/a	n/a	n/a	11	15	2	4	9
2270.166	n/a	PROB	1135083	n/a	LTP117	ltpFR2	0	n/a	n/a	n/a	11	22	5	9	8
2271.81	n/a	PROB	1135905	n/a	LTP117	ltpFR2	0	n/a	n/a	n/a	11	26	7	9	9
2273.198	n/a	PROB	1136599	n/a	LTP117	ltpFR2	0	n/a	n/a	n/a	11	7	1	4	2
2274.348	n/a	PROB	1137174	n/a	LTP117	ltpFR2	0	n/a	n/a	n/a	11	10	2	5	3
2275.434	n/a	PROB	1137717	n/a	LTP117	ltpFR2	0	n/a	n/a	n/a	11	12	1	9	2
2276.46	n/a	PROB	1138230	n/a	LTP117	ltpFR2	0	n/a	n/a	n/a	11	18	7	9	2
2277.95	n/a	PROB	1138975	n/a	LTP117	ltpFR2	0	n/a	n/a	n/a	11	15	4	4	7
2279.6	n/a	PROB	1139800	n/a	LTP117	ltpFR2	0	n/a	n/a	n/a	11	18	5	6	7
2280.68	n/a	STOP	1140340	n/a	LTP117	ltpFR2	0	n/a	n/a	n/a	11	n/a	n/a	n/a	n/a
2282.686	n/a	WORD	1141343	wordpools/wasnorm_wordpool_576.txt	LTP117	ltpFR2	0	9	CAPTIVE	240	n/a	n/a	0	0	0
2285.328	n/a	WORD	1142664	wordpools/wasnorm_wordpool_576.txt	LTP117	ltpFR2	0	9	LOFT	840	n/a	n/a	0	0	0
2287.954	n/a	WORD	1143977	wordpools/wasnorm_wordpool_576.txt	LTP117	ltpFR2	0	9	DRESSER	496	n/a	n/a	0	0	0
2290.582	n/a	WORD	1145291	wordpools/wasnorm_wordpool_576.txt	LTP117	ltpFR2	0	9	SUSPECT	1415	n/a	n/a	0	0	0
2293.286	n/a	WORD	1146643	wordpools/wasnorm_wordpool_576.txt	LTP117	ltpFR2	0	9	SCALLOP	1242	n/a	n/a	0	0	0
2295.862	n/a	WORD	1147931	wordpools/wasnorm_wordpool_576.txt	LTP117	ltpFR2	0	9	LAKE	796	n/a	n/a	0	0	0
2298.678	n/a	WORD	1149339	wordpools/wasnorm_wordpool_576.txt	LTP117	ltpFR2	0	9	INMATE	738	n/a	n/a	0	0	0
2301.49	n/a	WORD	1150745	wordpools/wasnorm_wordpool_576.txt	LTP117	ltpFR2	0	9	CLOTHES	327	n/a	n/a	0	0	0
2304.068	n/a	WORD	1152034	wordpools/wasnorm_wordpool_576.txt	LTP117	ltpFR2	0	9	COUNTY	389	n/a	n/a	0	0	0
2306.56	n/a	WORD	1153280	wordpools/wasnorm_wordpool_576.txt	LTP117	ltpFR2	0	9	NOMAD	955	n/a	n/a	0	0	0
2308.98	n/a	WORD	1154490	wordpools/wasnorm_wordpool_576.txt	LTP117	ltpFR2	0	9	TYPIST	1532	n/a	n/a	0	0	0
2311.412	n/a	WORD	1155706	wordpools/wasnorm_wordpool_576.txt	LTP117	ltpFR2	0	9	CLOCK	325	n/a	n/a	0	0	0
2313.988	n/a	WORD	1156994	wordpools/wasnorm_wordpool_576.txt	LTP117	ltpFR2	0	9	BUREAU	199	n/a	n/a	0	0	0
2316.782	n/a	WORD	1158391	wordpools/wasnorm_wordpool_576.txt	LTP117	ltpFR2	0	9	COMET	353	n/a	n/a	0	0	0
2319.576	n/a	WORD	1159788	wordpools/wasnorm_wordpool_576.txt	LTP117	ltpFR2	0	9	ROOSTER	1209	n/a	n/a	0	0	0
2322.348	n/a	WORD	1161174	wordpools/wasnorm_wordpool_576.txt	LTP117	ltpFR2	0	9	STALLION	1369	n/a	n/a	0	0	0
2325.082	n/a	WORD	1162541	wordpools/wasnorm_wordpool_576.txt	LTP117	ltpFR2	0	9	FINGER	567	n/a	n/a	0	0	0
2327.74	n/a	WORD	1163870	wordpools/wasnorm_wordpool_576.txt	LTP117	ltpFR2	0	9	WRIST	1626	n/a	n/a	0	0	0
2330.384	n/a	WORD	1165192	wordpools/wasnorm_wordpool_576.txt	LTP117	ltpFR2	0	9	XEROX	1628	n/a	n/a	0	0	0
2332.81	n/a	WORD	1166405	wordpools/wasnorm_wordpool_576.txt	LTP117	ltpFR2	0	9	COUSIN	392	n/a	n/a	0	0	0
2335.552	n/a	WORD	1167776	wordpools/wasnorm_wordpool_576.txt	LTP117	ltpFR2	0	9	UNCLE	1536	n/a	n/a	0	0	0
2338.11	n/a	WORD	1169055	wordpools/wasnorm_wordpool_576.txt	LTP117	ltpFR2	0	9	SAUSAGE	1238	n/a	n/a	0	0	0
2340.674	n/a	WORD	1170337	wordpools/wasnorm_wordpool_576.txt	LTP117	ltpFR2	0	9	PICTURE	1061	n/a	n/a	0	0	0
2343.344	n/a	WORD	1171672	wordpools/wasnorm_wordpool_576.txt	LTP117	ltpFR2	0	9	PLASTER	1085	n/a	n/a	0	0	0
2344.956	n/a	START	1172478	n/a	LTP117	ltpFR2	0	n/a	n/a	n/a	12	n/a	n/a	n/a	n/a
2345.908	n/a	DISTRACTOR	1172954	n/a	LTP117	ltpFR2	0	9	n/a	n/a	n/a	n/a	0	0	0
2345.926	n/a	PROB	1172963	n/a	LTP117	ltpFR2	0	n/a	n/a	n/a	12	14	1	4	9
2347.382	n/a	PROB	1173691	n/a	LTP117	ltpFR2	0	n/a	n/a	n/a	12	12	6	3	3
2348.47	n/a	PROB	1174235	n/a	LTP117	ltpFR2	0	n/a	n/a	n/a	12	15	4	5	6
2350.438	n/a	PROB	1175219	n/a	LTP117	ltpFR2	0	n/a	n/a	n/a	12	9	3	2	4
2352.062	n/a	PROB	1176031	n/a	LTP117	ltpFR2	0	n/a	n/a	n/a	12	11	6	4	1
2353.438	n/a	PROB	1176719	n/a	LTP117	ltpFR2	0	n/a	n/a	n/a	12	9	5	3	1
2354.52	n/a	PROB	1177260	n/a	LTP117	ltpFR2	0	n/a	n/a	n/a	12	10	2	4	4
2355.714	n/a	PROB	1177857	n/a	LTP117	ltpFR2	0	n/a	n/a	n/a	12	23	5	9	9
2357.248	n/a	PROB	1178624	n/a	LTP117	ltpFR2	0	n/a	n/a	n/a	12	15	4	4	7
2359.178	n/a	PROB	1179589	n/a	LTP117	ltpFR2	0	n/a	n/a	n/a	12	16	2	9	5
2360.478	n/a	PROB	1180239	n/a	LTP117	ltpFR2	0	n/a	n/a	n/a	12	13	4	8	1
2361.536	n/a	PROB	1180768	n/a	LTP117	ltpFR2	0	n/a	n/a	n/a	12	11	4	1	6
2362.44	n/a	PROB	1181220	n/a	LTP117	ltpFR2	0	n/a	n/a	n/a	12	6	1	1	4
2363.644	n/a	PROB	1181822	n/a	LTP117	ltpFR2	0	n/a	n/a	n/a	12	11	5	5	1
2364.514	n/a	PROB	1182257	n/a	LTP117	ltpFR2	0	n/a	n/a	n/a	12	20	6	9	5
2366.188	n/a	PROB	1183094	n/a	LTP117	ltpFR2	0	n/a	n/a	n/a	12	14	7	1	6
2367.174	n/a	PROB	1183587	n/a	LTP117	ltpFR2	0	n/a	n/a	n/a	12	14	8	4	2
2368.35	n/a	STOP	1184175	n/a	LTP117	ltpFR2	0	n/a	n/a	n/a	12	n/a	n/a	n/a	n/a
2370.766	n/a	REC_START	1185383	n/a	LTP117	ltpFR2	0	9	n/a	n/a	n/a	n/a	0	0	0
2372.336	n/a	REC_WORD	1186168	wordpools/wasnorm_wordpool_576.txt	LTP117	ltpFR2	0	9	CONVICT	371	n/a	n/a	0	0	0
2373.75	n/a	REC_WORD	1186875	wordpools/wasnorm_wordpool_576.txt	LTP117	ltpFR2	0	9	BUREAU	199	n/a	n/a	0	0	0
2374.794	n/a	REC_WORD	1187397	wordpools/wasnorm_wordpool_576.txt	LTP117	ltpFR2	0	9	LOFT	840	n/a	n/a	0	0	0
2375.786	n/a	REC_WORD	1187893	wordpools/wasnorm_wordpool_576.txt	LTP117	ltpFR2	0	9	DRESSER	496	n/a	n/a	0	0	0
2376.654	n/a	REC_WORD	1188327	wordpools/wasnorm_wordpool_576.txt	LTP117	ltpFR2	0	9	CLOTHES	327	n/a	n/a	0	0	0
2377.714	n/a	REC_WORD	1188857	wordpools/wasnorm_wordpool_576.txt	LTP117	ltpFR2	0	9	UNCLE	1536	n/a	n/a	0	0	0
2378.588	n/a	REC_WORD	1189294	wordpools/wasnorm_wordpool_576.txt	LTP117	ltpFR2	0	9	COUSIN	392	n/a	n/a	0	0	0
2379.52	n/a	REC_WORD	1189760	wordpools/wasnorm_wordpool_576.txt	LTP117	ltpFR2	0	9	FINGER	567	n/a	n/a	0	0	0
2380.674	n/a	REC_WORD	1190337	wordpools/wasnorm_wordpool_576.txt	LTP117	ltpFR2	0	9	WRIST	1626	n/a	n/a	0	0	0
2381.732	n/a	REC_WORD	1190866	wordpools/wasnorm_wordpool_576.txt	LTP117	ltpFR2	0	9	ROOSTER	1209	n/a	n/a	0	0	0
2383.258	n/a	REC_WORD	1191629	wordpools/wasnorm_wordpool_576.txt	LTP117	ltpFR2	0	9	STALLION	1369	n/a	n/a	0	0	0
2387.832	n/a	REC_WORD	1193916	wordpools/wasnorm_wordpool_576.txt	LTP117	ltpFR2	0	9	CLOCK	325	n/a	n/a	0	0	0
2390.136	n/a	REC_WORD	1195068	wordpools/wasnorm_wordpool_576.txt	LTP117	ltpFR2	0	9	TYPIST	1532	n/a	n/a	0	0	0
2391.242	n/a	REC_WORD	1195621	wordpools/wasnorm_wordpool_576.txt	LTP117	ltpFR2	0	9	XEROX	1628	n/a	n/a	0	0	0
2409.678	n/a	REC_WORD	1204839	wordpools/wasnorm_wordpool_576.txt	LTP117	ltpFR2	0	9	NOMAD	955	n/a	n/a	0	0	0
2438.542	n/a	REC_WORD	1219271	wordpools/wasnorm_wordpool_576.txt	LTP117	ltpFR2	0	9	DRESSER	496	n/a	n/a	0	0	0
2461.786	n/a	DISTRACTOR	1230893	n/a	LTP117	ltpFR2	0	10	n/a	n/a	n/a	n/a	0	0	0
2461.786	n/a	START	1230893	n/a	LTP117	ltpFR2	0	n/a	n/a	n/a	13	n/a	n/a	n/a	n/a
2461.836	n/a	PROB	1230918	n/a	LTP117	ltpFR2	0	n/a	n/a	n/a	13	21	5	7	9
2464.458	n/a	PROB	1232229	n/a	LTP117	ltpFR2	0	n/a	n/a	n/a	13	17	8	8	1
2466.132	n/a	PROB	1233066	n/a	LTP117	ltpFR2	0	n/a	n/a	n/a	13	16	5	8	3
2468.004	n/a	PROB	1234002	n/a	LTP117	ltpFR2	0	n/a	n/a	n/a	13	13	2	5	6
2469.026	n/a	PROB	1234513	n/a	LTP117	ltpFR2	0	n/a	n/a	n/a	13	15	3	4	8
2470.486	n/a	PROB	1235243	n/a	LTP117	ltpFR2	0	n/a	n/a	n/a	13	19	2	9	8
2471.718	n/a	PROB	1235859	n/a	LTP117	ltpFR2	0	n/a	n/a	n/a	13	16	5	6	5
2472.744	n/a	PROB	1236372	n/a	LTP117	ltpFR2	0	n/a	n/a	n/a	13	14	1	4	9
2473.848	n/a	PROB	1236924	n/a	LTP117	ltpFR2	0	n/a	n/a	n/a	13	13	2	9	2
2475.534	n/a	PROB	1237767	n/a	LTP117	ltpFR2	0	n/a	n/a	n/a	13	8	5	2	1
2476.62	n/a	PROB	1238310	n/a	LTP117	ltpFR2	0	n/a	n/a	n/a	13	17	9	5	3
2480.374	n/a	PROB	1240187	n/a	LTP117	ltpFR2	0	n/a	n/a	n/a	13	17	4	5	8
2482.832	n/a	PROB	1241416	n/a	LTP117	ltpFR2	0	n/a	n/a	n/a	13	10	5	3	2
2485.788	n/a	STOP	1242894	n/a	LTP117	ltpFR2	0	n/a	n/a	n/a	13	n/a	n/a	n/a	n/a
2486.864	n/a	WORD	1243432	wordpools/wasnorm_wordpool_576.txt	LTP117	ltpFR2	0	10	FOX	598	n/a	n/a	0	0	0
2489.436	n/a	WORD	1244718	wordpools/wasnorm_wordpool_576.txt	LTP117	ltpFR2	0	10	DRUG	501	n/a	n/a	0	0	0
2492.236	n/a	WORD	1246118	wordpools/wasnorm_wordpool_576.txt	LTP117	ltpFR2	0	10	TURKEY	1520	n/a	n/a	0	0	0
2494.858	n/a	WORD	1247429	wordpools/wasnorm_wordpool_576.txt	LTP117	ltpFR2	0	10	YACHT	1629	n/a	n/a	0	0	0
2497.622	n/a	WORD	1248811	wordpools/wasnorm_wordpool_576.txt	LTP117	ltpFR2	0	10	RECEIPT	1173	n/a	n/a	0	0	0
2500.282	n/a	WORD	1250141	wordpools/wasnorm_wordpool_576.txt	LTP117	ltpFR2	0	10	COOK	372	n/a	n/a	0	0	0
2503.094	n/a	WORD	1251547	wordpools/wasnorm_wordpool_576.txt	LTP117	ltpFR2	0	10	OYSTER	995	n/a	n/a	0	0	0
2505.866	n/a	WORD	1252933	wordpools/wasnorm_wordpool_576.txt	LTP117	ltpFR2	0	10	OUTDOORS	987	n/a	n/a	0	0	0
2508.348	n/a	WORD	1254174	wordpools/wasnorm_wordpool_576.txt	LTP117	ltpFR2	0	10	STUDENT	1395	n/a	n/a	0	0	0
2511.092	n/a	WORD	1255546	wordpools/wasnorm_wordpool_576.txt	LTP117	ltpFR2	0	10	WAITRESS	1581	n/a	n/a	0	0	0
2513.628	n/a	WORD	1256814	wordpools/wasnorm_wordpool_576.txt	LTP117	ltpFR2	0	10	JAPAN	749	n/a	n/a	0	0	0
2516.228	n/a	WORD	1258114	wordpools/wasnorm_wordpool_576.txt	LTP117	ltpFR2	0	10	TERMITE	1451	n/a	n/a	0	0	0
2518.72	n/a	WORD	1259360	wordpools/wasnorm_wordpool_576.txt	LTP117	ltpFR2	0	10	COLLEGE	346	n/a	n/a	0	0	0
2521.492	n/a	WORD	1260746	wordpools/wasnorm_wordpool_576.txt	LTP117	ltpFR2	0	10	PERCH	1048	n/a	n/a	0	0	0
2524.108	n/a	WORD	1262054	wordpools/wasnorm_wordpool_576.txt	LTP117	ltpFR2	0	10	PENGUIN	1044	n/a	n/a	0	0	0
2526.634	n/a	WORD	1263317	wordpools/wasnorm_wordpool_576.txt	LTP117	ltpFR2	0	10	TILE	1468	n/a	n/a	0	0	0
2529.362	n/a	WORD	1264681	wordpools/wasnorm_wordpool_576.txt	LTP117	ltpFR2	0	10	PADDING	999	n/a	n/a	0	0	0
2531.82	n/a	WORD	1265910	wordpools/wasnorm_wordpool_576.txt	LTP117	ltpFR2	0	10	MAMMAL	861	n/a	n/a	0	0	0
2534.492	n/a	WORD	1267246	wordpools/wasnorm_wordpool_576.txt	LTP117	ltpFR2	0	10	SEAL	1262	n/a	n/a	0	0	0
2537.24	n/a	WORD	1268620	wordpools/wasnorm_wordpool_576.txt	LTP117	ltpFR2	0	10	STONE	1385	n/a	n/a	0	0	0
2539.996	n/a	WORD	1269998	wordpools/wasnorm_wordpool_576.txt	LTP117	ltpFR2	0	10	EGYPT	519	n/a	n/a	0	0	0
2542.712	n/a	WORD	1271356	wordpools/wasnorm_wordpool_576.txt	LTP117	ltpFR2	0	10	MASK	876	n/a	n/a	0	0	0
2545.14	n/a	WORD	1272570	wordpools/wasnorm_wordpool_576.txt	LTP117	ltpFR2	0	10	FOREHEAD	592	n/a	n/a	0	0	0
2547.882	n/a	WORD	1273941	wordpools/wasnorm_wordpool_576.txt	LTP117	ltpFR2	0	10	COUNTRY	388	n/a	n/a	0	0	0
2549.488	n/a	START	1274744	n/a	LTP117	ltpFR2	0	n/a	n/a	n/a	14	n/a	n/a	n/a	n/a
2550.478	n/a	DISTRACTOR	1275239	n/a	LTP117	ltpFR2	0	10	n/a	n/a	n/a	n/a	0	0	0
2550.492	n/a	PROB	1275246	n/a	LTP117	ltpFR2	0	n/a	n/a	n/a	14	20	8	4	8
2552.734	n/a	PROB	1276367	n/a	LTP117	ltpFR2	0	n/a	n/a	n/a	14	13	7	3	1
2554.636	n/a	PROB	1277318	n/a	LTP117	ltpFR2	0	n/a	n/a	n/a	14	12	3	4	5
2555.84	n/a	PROB	1277920	n/a	LTP117	ltpFR2	0	n/a	n/a	n/a	14	12	5	6	1
2557.028	n/a	PROB	1278514	n/a	LTP117	ltpFR2	0	n/a	n/a	n/a	14	17	9	7	1
2558.388	n/a	PROB	1279194	n/a	LTP117	ltpFR2	0	n/a	n/a	n/a	14	16	1	7	8
2559.442	n/a	PROB	1279721	n/a	LTP117	ltpFR2	0	n/a	n/a	n/a	14	9	5	3	1
2561.044	n/a	PROB	1280522	n/a	LTP117	ltpFR2	0	n/a	n/a	n/a	14	18	3	7	8
2562.834	n/a	PROB	1281417	n/a	LTP117	ltpFR2	0	n/a	n/a	n/a	14	13	1	8	4
2564.156	n/a	PROB	1282078	n/a	LTP117	ltpFR2	0	n/a	n/a	n/a	14	15	6	2	7
2565.428	n/a	PROB	1282714	n/a	LTP117	ltpFR2	0	n/a	n/a	n/a	14	22	9	6	8
2567.156	n/a	PROB	1283578	n/a	LTP117	ltpFR2	0	n/a	n/a	n/a	14	19	5	8	6
2568.862	n/a	PROB	1284431	n/a	LTP117	ltpFR2	0	n/a	n/a	n/a	14	16	8	4	4
2570.05	n/a	PROB	1285025	n/a	LTP117	ltpFR2	0	n/a	n/a	n/a	14	18	8	9	1
2571.618	n/a	PROB	1285809	n/a	LTP117	ltpFR2	0	n/a	n/a	n/a	14	10	6	3	1
2572.56	n/a	STOP	1286280	n/a	LTP117	ltpFR2	0	n/a	n/a	n/a	14	n/a	n/a	n/a	n/a
2575.298	n/a	REC_START	1287649	n/a	LTP117	ltpFR2	0	10	n/a	n/a	n/a	n/a	0	0	0
2575.778	n/a	REC_WORD	1287889	wordpools/wasnorm_wordpool_576.txt	LTP117	ltpFR2	0	10	EGYPT	519	n/a	n/a	0	0	0
2576.494	n/a	REC_WORD	1288247	wordpools/wasnorm_wordpool_576.txt	LTP117	ltpFR2	0	10	MASK	876	n/a	n/a	0	0	0
2577.214	n/a	REC_WORD	1288607	wordpools/wasnorm_wordpool_576.txt	LTP117	ltpFR2	0	10	FOREHEAD	592	n/a	n/a	0	0	0
2578.35	n/a	REC_WORD_VV	1289175	wordpools/wasnorm_wordpool_576.txt	LTP117	ltpFR2	0	10	<>	-1	n/a	n/a	0	0	0
2578.808	n/a	REC_WORD	1289404	wordpools/wasnorm_wordpool_576.txt	LTP117	ltpFR2	0	10	COUNTRY	388	n/a	n/a	0	0	0
2580.164	n/a	REC_WORD	1290082	wordpools/wasnorm_wordpool_576.txt	LTP117	ltpFR2	0	10	OUTDOORS	987	n/a	n/a	0	0	0
2581.194	n/a	REC_WORD	1290597	wordpools/wasnorm_wordpool_576.txt	LTP117	ltpFR2	0	10	RECEIPT	1173	n/a	n/a	0	0	0
2583.548	n/a	REC_WORD	1291774	wordpools/wasnorm_wordpool_576.txt	LTP117	ltpFR2	0	10	JAPAN	749	n/a	n/a	0	0	0
2585.434	n/a	REC_WORD	1292717	wordpools/wasnorm_wordpool_576.txt	LTP117	ltpFR2	0	10	WAITRESS	1581	n/a	n/a	0	0	0
2586.89	n/a	REC_WORD	1293445	wordpools/wasnorm_wordpool_576.txt	LTP117	ltpFR2	0	10	FOX	598	n/a	n/a	0	0	0
2588.066	n/a	REC_WORD	1294033	wordpools/wasnorm_wordpool_576.txt	LTP117	ltpFR2	0	10	TURKEY	1520	n/a	n/a	0	0	0
2592.758	n/a	REC_WORD	1296379	wordpools/wasnorm_wordpool_576.txt	LTP117	ltpFR2	0	10	OYSTER	995	n/a	n/a	0	0	0
2596.948	n/a	REC_WORD	1298474	wordpools/wasnorm_wordpool_576.txt	LTP117	ltpFR2	0	10	WAITRESS	1581	n/a	n/a	0	0	0
2604.764	n/a	REC_WORD	1302382	wordpools/wasnorm_wordpool_576.txt	LTP117	ltpFR2	0	10	PENGUIN	1044	n/a	n/a	0	0	0
2606.08	n/a	REC_WORD	1303040	wordpools/wasnorm_wordpool_576.txt	LTP117	ltpFR2	0	10	PERCH	1048	n/a	n/a	0	0	0
2616.334	n/a	REC_WORD	1308167	wordpools/wasnorm_wordpool_576.txt	LTP117	ltpFR2	0	10	MAMMAL	861	n/a	n/a	0	0	0
2618.042	n/a	REC_WORD	1309021	wordpools/wasnorm_wordpool_576.txt	LTP117	ltpFR2	0	10	CUSHION	428	n/a	n/a	0	0	0
2643.178	n/a	REC_WORD	1321589	wordpools/wasnorm_wordpool_576.txt	LTP117	ltpFR2	0	10	TURKEY	1520	n/a	n/a	0	0	0
2646.082	n/a	REC_WORD	1323041	wordpools/wasnorm_wordpool_576.txt	LTP117	ltpFR2	0	10	YACHT	1629	n/a	n/a	0	0	0
2666.318	n/a	DISTRACTOR	1333159	n/a	LTP117	ltpFR2	0	11	n/a	n/a	n/a	n/a	0	0	0
2666.318	n/a	START	1333159	n/a	LTP117	ltpFR2	0	n/a	n/a	n/a	15	n/a	n/a	n/a	n/a
2666.368	n/a	PROB	1333184	n/a	LTP117	ltpFR2	0	n/a	n/a	n/a	15	14	1	9	4
2667.566	n/a	PROB	1333783	n/a	LTP117	ltpFR2	0	n/a	n/a	n/a	15	21	9	5	7
2670.082	n/a	PROB	1335041	n/a	LTP117	ltpFR2	0	n/a	n/a	n/a	15	15	3	4	8
2671.466	n/a	PROB	1335733	n/a	LTP117	ltpFR2	0	n/a	n/a	n/a	15	16	1	6	9
2672.552	n/a	PROB	1336276	n/a	LTP117	ltpFR2	0	n/a	n/a	n/a	15	9	2	6	1
2673.824	n/a	PROB	1336912	n/a	LTP117	ltpFR2	0	n/a	n/a	n/a	15	15	7	2	4
2675.402	n/a	PROB	1337701	n/a	LTP117	ltpFR2	0	n/a	n/a	n/a	15	17	7	5	5
2676.506	n/a	PROB	1338253	n/a	LTP117	ltpFR2	0	n/a	n/a	n/a	15	21	4	8	9
2677.656	n/a	PROB	1338828	n/a	LTP117	ltpFR2	0	n/a	n/a	n/a	15	15	9	1	5
2678.744	n/a	PROB	1339372	n/a	LTP117	ltpFR2	0	n/a	n/a	n/a	15	18	3	9	6
2679.954	n/a	PROB	1339977	n/a	LTP117	ltpFR2	0	n/a	n/a	n/a	15	4	2	1	1
2680.94	n/a	PROB	1340470	n/a	LTP117	ltpFR2	0	n/a	n/a	n/a	15	8	5	2	1
2682.362	n/a	PROB	1341181	n/a	LTP117	ltpFR2	0	n/a	n/a	n/a	15	13	5	2	6
2683.516	n/a	PROB	1341758	n/a	LTP117	ltpFR2	0	n/a	n/a	n/a	15	13	5	5	3
2684.766	n/a	PROB	1342383	n/a	LTP117	ltpFR2	0	n/a	n/a	n/a	15	12	2	4	6
2686.044	n/a	PROB	1343022	n/a	LTP117	ltpFR2	0	n/a	n/a	n/a	15	18	8	4	6
2687.208	n/a	PROB	1343604	n/a	LTP117	ltpFR2	0	n/a	n/a	n/a	15	19	9	4	6
2688.764	n/a	PROB	1344382	n/a	LTP117	ltpFR2	0	n/a	n/a	n/a	15	13	7	4	2
2689.902	n/a	STOP	1344951	n/a	LTP117	ltpFR2	0	n/a	n/a	n/a	15	n/a	n/a	n/a	n/a
2691.224	n/a	WORD	1345612	wordpools/wasnorm_wordpool_576.txt	LTP117	ltpFR2	0	11	SCALPEL	1243	n/a	n/a	0	0	0
2693.924	n/a	WORD	1346962	wordpools/wasnorm_wordpool_576.txt	LTP117	ltpFR2	0	11	SKIRT	1319	n/a	n/a	0	0	0
2696.478	n/a	WORD	1348239	wordpools/wasnorm_wordpool_576.txt	LTP117	ltpFR2	0	11	WIDOW	1608	n/a	n/a	0	0	0
2699.044	n/a	WORD	1349522	wordpools/wasnorm_wordpool_576.txt	LTP117	ltpFR2	0	11	COBRA	336	n/a	n/a	0	0	0
2701.648	n/a	WORD	1350824	wordpools/wasnorm_wordpool_576.txt	LTP117	ltpFR2	0	11	FIREMAN	569	n/a	n/a	0	0	0
2704.164	n/a	WORD	1352082	wordpools/wasnorm_wordpool_576.txt	LTP117	ltpFR2	0	11	CANAL	226	n/a	n/a	0	0	0
2706.94	n/a	WORD	1353470	wordpools/wasnorm_wordpool_576.txt	LTP117	ltpFR2	0	11	TUTU	1524	n/a	n/a	0	0	0
2709.616	n/a	WORD	1354808	wordpools/wasnorm_wordpool_576.txt	LTP117	ltpFR2	0	11	PEBBLE	1035	n/a	n/a	0	0	0
2712.226	n/a	WORD	1356113	wordpools/wasnorm_wordpool_576.txt	LTP117	ltpFR2	0	11	LEG	809	n/a	n/a	0	0	0
2714.664	n/a	WORD	1357332	wordpools/wasnorm_wordpool_576.txt	LTP117	ltpFR2	0	11	ANKLE	24	n/a	n/a	0	0	0
2717.146	n/a	WORD	1358573	wordpools/wasnorm_wordpool_576.txt	LTP117	ltpFR2	0	11	BANKER	84	n/a	n/a	0	0	0
2719.906	n/a	WORD	1359953	wordpools/wasnorm_wordpool_576.txt	LTP117	ltpFR2	0	11	POET	1095	n/a	n/a	0	0	0
2722.55	n/a	WORD	1361275	wordpools/wasnorm_wordpool_576.txt	LTP117	ltpFR2	0	11	DOUGHNUT	490	n/a	n/a	0	0	0
2725.126	n/a	WORD	1362563	wordpools/wasnorm_wordpool_576.txt	LTP117	ltpFR2	0	11	SLUG	1329	n/a	n/a	0	0	0
2727.936	n/a	WORD	1363968	wordpools/wasnorm_wordpool_576.txt	LTP117	ltpFR2	0	11	BANK	83	n/a	n/a	0	0	0
2730.462	n/a	WORD	1365231	wordpools/wasnorm_wordpool_576.txt	LTP117	ltpFR2	0	11	QUARTER	1148	n/a	n/a	0	0	0
2732.9	n/a	WORD	1366450	wordpools/wasnorm_wordpool_576.txt	LTP117	ltpFR2	0	11	BANQUET	86	n/a	n/a	0	0	0
2735.628	n/a	WORD	1367814	wordpools/wasnorm_wordpool_576.txt	LTP117	ltpFR2	0	11	RATTLE	1170	n/a	n/a	0	0	0
2738.444	n/a	WORD	1369222	wordpools/wasnorm_wordpool_576.txt	LTP117	ltpFR2	0	11	SNAKE	1333	n/a	n/a	0	0	0
2740.902	n/a	WORD	1370451	wordpools/wasnorm_wordpool_576.txt	LTP117	ltpFR2	0	11	KNIFE	785	n/a	n/a	0	0	0
2743.714	n/a	WORD	1371857	wordpools/wasnorm_wordpool_576.txt	LTP117	ltpFR2	0	11	LEADER	807	n/a	n/a	0	0	0
2746.29	n/a	WORD	1373145	wordpools/wasnorm_wordpool_576.txt	LTP117	ltpFR2	0	11	ROBBER	1197	n/a	n/a	0	0	0
2748.95	n/a	WORD	1374475	wordpools/wasnorm_wordpool_576.txt	LTP117	ltpFR2	0	11	PLUTO	1092	n/a	n/a	0	0	0
2751.712	n/a	WORD	1375856	wordpools/wasnorm_wordpool_576.txt	LTP117	ltpFR2	0	11	STAPLE	1371	n/a	n/a	0	0	0
2753.328	n/a	START	1376664	n/a	LTP117	ltpFR2	0	n/a	n/a	n/a	16	n/a	n/a	n/a	n/a
2754.172	n/a	DISTRACTOR	1377086	n/a	LTP117	ltpFR2	0	11	n/a	n/a	n/a	n/a	0	0	0
2754.188	n/a	PROB	1377094	n/a	LTP117	ltpFR2	0	n/a	n/a	n/a	16	14	4	1	9
2755.436	n/a	PROB	1377718	n/a	LTP117	ltpFR2	0	n/a	n/a	n/a	16	12	9	1	2
2756.59	n/a	PROB	1378295	n/a	LTP117	ltpFR2	0	n/a	n/a	n/a	16	14	5	8	1
2757.734	n/a	PROB	1378867	n/a	LTP117	ltpFR2	0	n/a	n/a	n/a	16	15	4	3	8
2759.118	n/a	PROB	1379559	n/a	LTP117	ltpFR2	0	n/a	n/a	n/a	16	121	9	6	6
2761.264	n/a	PROB	1380632	n/a	LTP117	ltpFR2	0	n/a	n/a	n/a	16	18	5	4	9
2763.032	n/a	PROB	1381516	n/a	LTP117	ltpFR2	0	n/a	n/a	n/a	16	15	7	2	8
2764.956	n/a	PROB	1382478	n/a	LTP117	ltpFR2	0	n/a	n/a	n/a	16	18	5	4	9
2766.26	n/a	PROB	1383130	n/a	LTP117	ltpFR2	0	n/a	n/a	n/a	16	10	6	2	2
2767.336	n/a	PROB	1383668	n/a	LTP117	ltpFR2	0	n/a	n/a	n/a	16	20	7	5	9
2771.214	n/a	PROB	1385607	n/a	LTP117	ltpFR2	0	n/a	n/a	n/a	16	20	6	5	9
2772.992	n/a	PROB	1386496	n/a	LTP117	ltpFR2	0	n/a	n/a	n/a	16	10	4	1	5
2773.99	n/a	PROB	1386995	n/a	LTP117	ltpFR2	0	n/a	n/a	n/a	16	19	8	7	4
2775.586	n/a	PROB	1387793	n/a	LTP117	ltpFR2	0	n/a	n/a	n/a	16	13	7	4	2
2776.74	n/a	STOP	1388370	n/a	LTP117	ltpFR2	0	n/a	n/a	n/a	16	n/a	n/a	n/a	n/a
2779.1	n/a	REC_START	1389550	n/a	LTP117	ltpFR2	0	11	n/a	n/a	n/a	n/a	0	0	0
2779.488	n/a	REC_WORD	1389744	wordpools/wasnorm_wordpool_576.txt	LTP117	ltpFR2	0	11	STAPLE	1371	n/a	n/a	0	0	0
2780.738	n/a	REC_WORD	1390369	wordpools/wasnorm_wordpool_576.txt	LTP117	ltpFR2	0	11	ROBBER	1197	n/a	n/a	0	0	0
2782.228	n/a	REC_WORD	1391114	wordpools/wasnorm_wordpool_576.txt	LTP117	ltpFR2	0	11	KNIFE	785	n/a	n/a	0	0	0
2783.18	n/a	REC_WORD	1391590	wordpools/wasnorm_wordpool_576.txt	LTP117	ltpFR2	0	11	RATTLE	1170	n/a	n/a	0	0	0
2784.048	n/a	REC_WORD	1392024	wordpools/wasnorm_wordpool_576.txt	LTP117	ltpFR2	0	11	SNAKE	1333	n/a	n/a	0	0	0
2785.126	n/a	REC_WORD	1392563	wordpools/wasnorm_wordpool_576.txt	LTP117	ltpFR2	0	11	WIDOW	1608	n/a	n/a	0	0	0
2786.044	n/a	REC_WORD	1393022	wordpools/wasnorm_wordpool_576.txt	LTP117	ltpFR2	0	11	TUTU	1524	n/a	n/a	0	0	0
2786.924	n/a	REC_WORD	1393462	wordpools/wasnorm_wordpool_576.txt	LTP117	ltpFR2	0	11	SKIRT	1319	n/a	n/a	0	0	0
2788.056	n/a	REC_WORD	1394028	wordpools/wasnorm_wordpool_576.txt	LTP117	ltpFR2	0	11	POET	1095	n/a	n/a	0	0	0
2790.142	n/a	REC_WORD	1395071	wordpools/wasnorm_wordpool_576.txt	LTP117	ltpFR2	0	11	LEADER	807	n/a	n/a	0	0	0
2790.87	n/a	REC_WORD	1395435	wordpools/wasnorm_wordpool_576.txt	LTP117	ltpFR2	0	11	PLUTO	1092	n/a	n/a	0	0	0
2795.44	n/a	REC_WORD	1397720	wordpools/wasnorm_wordpool_576.txt	LTP117	ltpFR2	0	11	DOUGHNUT	490	n/a	n/a	0	0	0
2801.604	n/a	REC_WORD	1400802	wordpools/wasnorm_wordpool_576.txt	LTP117	ltpFR2	0	11	FIREMAN	569	n/a	n/a	0	0	0
2805.096	n/a	REC_WORD	1402548	wordpools/wasnorm_wordpool_576.txt	LTP117	ltpFR2	0	11	LEG	809	n/a	n/a	0	0	0
2806.09	n/a	REC_WORD	1403045	wordpools/wasnorm_wordpool_576.txt	LTP117	ltpFR2	0	11	ANKLE	24	n/a	n/a	0	0	0
2870.114	n/a	DISTRACTOR	1435057	n/a	LTP117	ltpFR2	0	12	n/a	n/a	n/a	n/a	0	0	0
2870.114	n/a	START	1435057	n/a	LTP117	ltpFR2	0	n/a	n/a	n/a	17	n/a	n/a	n/a	n/a
2870.164	n/a	PROB	1435082	n/a	LTP117	ltpFR2	0	n/a	n/a	n/a	17	13	4	3	6
2871.434	n/a	PROB	1435717	n/a	LTP117	ltpFR2	0	n/a	n/a	n/a	17	16	4	3	9
2874.676	n/a	PROB	1437338	n/a	LTP117	ltpFR2	0	n/a	n/a	n/a	17	13	2	5	6
2875.65	n/a	PROB	1437825	n/a	LTP117	ltpFR2	0	n/a	n/a	n/a	17	18	5	5	8
2876.604	n/a	PROB	1438302	n/a	LTP117	ltpFR2	0	n/a	n/a	n/a	17	22	7	6	9
2877.77	n/a	PROB	1438885	n/a	LTP117	ltpFR2	0	n/a	n/a	n/a	17	14	6	4	1
2878.858	n/a	PROB	1439429	n/a	LTP117	ltpFR2	0	n/a	n/a	n/a	17	11	3	7	1
2880.046	n/a	PROB	1440023	n/a	LTP117	ltpFR2	0	n/a	n/a	n/a	17	17	5	6	6
2882.022	n/a	PROB	1441011	n/a	LTP117	ltpFR2	0	n/a	n/a	n/a	17	15	6	2	7
2884.152	n/a	PROB	1442076	n/a	LTP117	ltpFR2	0	n/a	n/a	n/a	17	12	1	3	8
2885.434	n/a	PROB	1442717	n/a	LTP117	ltpFR2	0	n/a	n/a	n/a	17	14	4	8	2
2886.788	n/a	PROB	1443394	n/a	LTP117	ltpFR2	0	n/a	n/a	n/a	17	16	7	6	3
2888.294	n/a	PROB	1444147	n/a	LTP117	ltpFR2	0	n/a	n/a	n/a	17	22	6	8	6
2890.62	n/a	PROB	1445310	n/a	LTP117	ltpFR2	0	n/a	n/a	n/a	17	16	4	8	4
2892.666	n/a	STOP	1446333	n/a	LTP117	ltpFR2	0	n/a	n/a	n/a	17	n/a	n/a	n/a	n/a
2895.192	n/a	WORD	1447596	wordpools/wasnorm_wordpool_576.txt	LTP117	ltpFR2	0	12	OUTFIT	988	n/a	n/a	0	0	0
2897.902	n/a	WORD	1448951	wordpools/wasnorm_wordpool_576.txt	LTP117	ltpFR2	0	12	BRIEFCASE	175	n/a	n/a	0	0	0
2900.412	n/a	WORD	1450206	wordpools/wasnorm_wordpool_576.txt	LTP117	ltpFR2	0	12	MAILBOX	857	n/a	n/a	0	0	0
2903.174	n/a	WORD	1451587	wordpools/wasnorm_wordpool_576.txt	LTP117	ltpFR2	0	12	HERO	706	n/a	n/a	0	0	0
2905.834	n/a	WORD	1452917	wordpools/wasnorm_wordpool_576.txt	LTP117	ltpFR2	0	12	SCULPTURE	1258	n/a	n/a	0	0	0
2908.36	n/a	WORD	1454180	wordpools/wasnorm_wordpool_576.txt	LTP117	ltpFR2	0	12	GALLON	618	n/a	n/a	0	0	0
2910.868	n/a	WORD	1455434	wordpools/wasnorm_wordpool_576.txt	LTP117	ltpFR2	0	12	COCKTAIL	338	n/a	n/a	0	0	0
2913.478	n/a	WORD	1456739	wordpools/wasnorm_wordpool_576.txt	LTP117	ltpFR2	0	12	SADDLE	1221	n/a	n/a	0	0	0
2915.982	n/a	WORD	1457991	wordpools/wasnorm_wordpool_576.txt	LTP117	ltpFR2	0	12	COWBOY	395	n/a	n/a	0	0	0
2918.716	n/a	WORD	1459358	wordpools/wasnorm_wordpool_576.txt	LTP117	ltpFR2	0	12	SPARROW	1347	n/a	n/a	0	0	0
2921.242	n/a	WORD	1460621	wordpools/wasnorm_wordpool_576.txt	LTP117	ltpFR2	0	12	HIKER	708	n/a	n/a	0	0	0
2924.066	n/a	WORD	1462033	wordpools/wasnorm_wordpool_576.txt	LTP117	ltpFR2	0	12	SWIMMER	1420	n/a	n/a	0	0	0
2926.512	n/a	WORD	1463256	wordpools/wasnorm_wordpool_576.txt	LTP117	ltpFR2	0	12	FLAG	573	n/a	n/a	0	0	0
2929.174	n/a	WORD	1464587	wordpools/wasnorm_wordpool_576.txt	LTP117	ltpFR2	0	12	IDOL	733	n/a	n/a	0	0	0
2931.95	n/a	WORD	1465975	wordpools/wasnorm_wordpool_576.txt	LTP117	ltpFR2	0	12	EAGLE	512	n/a	n/a	0	0	0
2934.71	n/a	WORD	1467355	wordpools/wasnorm_wordpool_576.txt	LTP117	ltpFR2	0	12	LIZARD	834	n/a	n/a	0	0	0
2937.32	n/a	WORD	1468660	wordpools/wasnorm_wordpool_576.txt	LTP117	ltpFR2	0	12	CRATER	400	n/a	n/a	0	0	0
2939.93	n/a	WORD	1469965	wordpools/wasnorm_wordpool_576.txt	LTP117	ltpFR2	0	12	VIKING	1565	n/a	n/a	0	0	0
2942.658	n/a	WORD	1471329	wordpools/wasnorm_wordpool_576.txt	LTP117	ltpFR2	0	12	FEMALE	559	n/a	n/a	0	0	0
2945.118	n/a	WORD	1472559	wordpools/wasnorm_wordpool_576.txt	LTP117	ltpFR2	0	12	PILOT	1070	n/a	n/a	0	0	0
2947.794	n/a	WORD	1473897	wordpools/wasnorm_wordpool_576.txt	LTP117	ltpFR2	0	12	SALMON	1227	n/a	n/a	0	0	0
2950.42	n/a	WORD	1475210	wordpools/wasnorm_wordpool_576.txt	LTP117	ltpFR2	0	12	BEAST	108	n/a	n/a	0	0	0
2952.946	n/a	WORD	1476473	wordpools/wasnorm_wordpool_576.txt	LTP117	ltpFR2	0	12	BISON	131	n/a	n/a	0	0	0
2955.622	n/a	WORD	1477811	wordpools/wasnorm_wordpool_576.txt	LTP117	ltpFR2	0	12	PIZZA	1079	n/a	n/a	0	0	0
2957.23	n/a	START	1478615	n/a	LTP117	ltpFR2	0	n/a	n/a	n/a	18	n/a	n/a	n/a	n/a
2958.326	n/a	DISTRACTOR	1479163	n/a	LTP117	ltpFR2	0	12	n/a	n/a	n/a	n/a	0	0	0
2958.334	n/a	PROB	1479167	n/a	LTP117	ltpFR2	0	n/a	n/a	n/a	18	22	9	9	4
2959.672	n/a	PROB	1479836	n/a	LTP117	ltpFR2	0	n/a	n/a	n/a	18	8	2	5	1
2960.67	n/a	PROB	1480335	n/a	LTP117	ltpFR2	0	n/a	n/a	n/a	18	16	4	5	7
2962.144	n/a	PROB	1481072	n/a	LTP117	ltpFR2	0	n/a	n/a	n/a	18	6	1	4	1
2963.298	n/a	PROB	1481649	n/a	LTP117	ltpFR2	0	n/a	n/a	n/a	18	18	9	4	5
2964.608	n/a	PROB	1482304	n/a	LTP117	ltpFR2	0	n/a	n/a	n/a	18	10	1	2	7
2965.556	n/a	PROB	1482778	n/a	LTP117	ltpFR2	0	n/a	n/a	n/a	18	20	9	5	6
2966.778	n/a	PROB	1483389	n/a	LTP117	ltpFR2	0	n/a	n/a	n/a	18	14	2	7	5
2968.25	n/a	PROB	1484125	n/a	LTP117	ltpFR2	0	n/a	n/a	n/a	18	17	3	9	6
2970.08	n/a	PROB	1485040	n/a	LTP117	ltpFR2	0	n/a	n/a	n/a	18	17	5	5	7
2971.162	n/a	PROB	1485581	n/a	LTP117	ltpFR2	0	n/a	n/a	n/a	18	11	4	2	5
2972.304	n/a	PROB	1486152	n/a	LTP117	ltpFR2	0	n/a	n/a	n/a	18	15	4	7	4
2974.022	n/a	PROB	1487011	n/a	LTP117	ltpFR2	0	n/a	n/a	n/a	18	15	6	6	3
2975.128	n/a	PROB	1487564	n/a	LTP117	ltpFR2	0	n/a	n/a	n/a	18	14	2	8	4
2976.464	n/a	PROB	1488232	n/a	LTP117	ltpFR2	0	n/a	n/a	n/a	18	13	5	4	4
2978.344	n/a	PROB	1489172	n/a	LTP117	ltpFR2	0	n/a	n/a	n/a	18	11	2	2	7
2979.28	n/a	PROB	1489640	n/a	LTP117	ltpFR2	0	n/a	n/a	n/a	18	20	9	2	9
2980.51	n/a	STOP	1490255	n/a	LTP117	ltpFR2	0	n/a	n/a	n/a	18	n/a	n/a	n/a	n/a
2983.058	n/a	REC_START	1491529	n/a	LTP117	ltpFR2	0	12	n/a	n/a	n/a	n/a	0	0	0
2985.122	n/a	REC_WORD	1492561	wordpools/wasnorm_wordpool_576.txt	LTP117	ltpFR2	0	12	EAGLE	512	n/a	n/a	0	0	0
2986.894	n/a	REC_WORD	1493447	wordpools/wasnorm_wordpool_576.txt	LTP117	ltpFR2	0	12	MAILBOX	857	n/a	n/a	0	0	0
2988.282	n/a	REC_WORD	1494141	wordpools/wasnorm_wordpool_576.txt	LTP117	ltpFR2	0	12	IDOL	733	n/a	n/a	0	0	0
2989.284	n/a	REC_WORD	1494642	wordpools/wasnorm_wordpool_576.txt	LTP117	ltpFR2	0	12	HERO	706	n/a	n/a	0	0	0
2990.124	n/a	REC_WORD	1495062	wordpools/wasnorm_wordpool_576.txt	LTP117	ltpFR2	0	12	STATUE	1374	n/a	n/a	0	0	0
2994.892	n/a	REC_WORD	1497446	wordpools/wasnorm_wordpool_576.txt	LTP117	ltpFR2	0	12	MAILBOX	857	n/a	n/a	0	0	0
3000.77	n/a	REC_WORD	1500385	wordpools/wasnorm_wordpool_576.txt	LTP117	ltpFR2	0	12	IDOL	733	n/a	n/a	0	0	0
3006.124	n/a	REC_WORD	1503062	wordpools/wasnorm_wordpool_576.txt	LTP117	ltpFR2	0	12	SALMON	1227	n/a	n/a	0	0	0
3008.44	n/a	REC_WORD	1504220	wordpools/wasnorm_wordpool_576.txt	LTP117	ltpFR2	0	12	COWBOY	395	n/a	n/a	0	0	0
3009.198	n/a	REC_WORD	1504599	wordpools/wasnorm_wordpool_576.txt	LTP117	ltpFR2	0	12	SADDLE	1221	n/a	n/a	0	0	0
3013.206	n/a	REC_WORD	1506603	wordpools/wasnorm_wordpool_576.txt	LTP117	ltpFR2	0	12	FEMALE	559	n/a	n/a	0	0	0
3014.192	n/a	REC_WORD	1507096	wordpools/wasnorm_wordpool_576.txt	LTP117	ltpFR2	0	12	VIKING	1565	n/a	n/a	0	0	0
3028.422	n/a	REC_WORD	1514211	wordpools/wasnorm_wordpool_576.txt	LTP117	ltpFR2	0	12	PILOT	1070	n/a	n/a	0	0	0
3074.078	n/a	DISTRACTOR	1537039	n/a	LTP117	ltpFR2	0	13	n/a	n/a	n/a	n/a	0	0	0
3074.078	n/a	START	1537039	n/a	LTP117	ltpFR2	0	n/a	n/a	n/a	19	n/a	n/a	n/a	n/a
3074.128	n/a	PROB	1537064	n/a	LTP117	ltpFR2	0	n/a	n/a	n/a	19	13	5	2	6
3075.832	n/a	PROB	1537916	n/a	LTP117	ltpFR2	0	n/a	n/a	n/a	19	16	4	4	9
3077.254	n/a	PROB	1538627	n/a	LTP117	ltpFR2	0	n/a	n/a	n/a	19	15	8	4	3
3079.28	n/a	PROB	1539640	n/a	LTP117	ltpFR2	0	n/a	n/a	n/a	19	9	3	5	1
3080.316	n/a	PROB	1540158	n/a	LTP117	ltpFR2	0	n/a	n/a	n/a	19	13	7	4	2
3081.8	n/a	PROB	1540900	n/a	LTP117	ltpFR2	0	n/a	n/a	n/a	19	16	5	5	6
3082.77	n/a	PROB	1541385	n/a	LTP117	ltpFR2	0	n/a	n/a	n/a	19	15	4	3	8
3084.11	n/a	PROB	1542055	n/a	LTP117	ltpFR2	0	n/a	n/a	n/a	19	13	4	4	5
3085.564	n/a	PROB	1542782	n/a	LTP117	ltpFR2	0	n/a	n/a	n/a	19	16	8	4	4
3087.696	n/a	PROB	1543848	n/a	LTP117	ltpFR2	0	n/a	n/a	n/a	19	8	2	5	1
3088.666	n/a	PROB	1544333	n/a	LTP117	ltpFR2	0	n/a	n/a	n/a	19	10	2	5	3
3089.782	n/a	PROB	1544891	n/a	LTP117	ltpFR2	0	n/a	n/a	n/a	19	22	7	8	7
3091.176	n/a	PROB	1545588	n/a	LTP117	ltpFR2	0	n/a	n/a	n/a	19	22	7	9	5
3093.578	n/a	PROB	1546789	n/a	LTP117	ltpFR2	0	n/a	n/a	n/a	19	10	4	3	3
3094.582	n/a	PROB	1547291	n/a	LTP117	ltpFR2	0	n/a	n/a	n/a	19	14	4	5	5
3095.81	n/a	PROB	1547905	n/a	LTP117	ltpFR2	0	n/a	n/a	n/a	19	12	4	6	2
3096.9	n/a	STOP	1548450	n/a	LTP117	ltpFR2	0	n/a	n/a	n/a	19	n/a	n/a	n/a	n/a
3099.156	n/a	WORD	1549578	wordpools/wasnorm_wordpool_576.txt	LTP117	ltpFR2	0	13	CANYON	235	n/a	n/a	0	0	0
3101.66	n/a	WORD	1550830	wordpools/wasnorm_wordpool_576.txt	LTP117	ltpFR2	0	13	GRILL	661	n/a	n/a	0	0	0
3104.158	n/a	WORD	1552079	wordpools/wasnorm_wordpool_576.txt	LTP117	ltpFR2	0	13	TUNNEL	1519	n/a	n/a	0	0	0
3106.936	n/a	WORD	1553468	wordpools/wasnorm_wordpool_576.txt	LTP117	ltpFR2	0	13	WHISTLE	1606	n/a	n/a	0	0	0
3109.628	n/a	WORD	1554814	wordpools/wasnorm_wordpool_576.txt	LTP117	ltpFR2	0	13	POSTAGE	1113	n/a	n/a	0	0	0
3112.29	n/a	WORD	1556145	wordpools/wasnorm_wordpool_576.txt	LTP117	ltpFR2	0	13	STAMP	1370	n/a	n/a	0	0	0
3115.034	n/a	WORD	1557517	wordpools/wasnorm_wordpool_576.txt	LTP117	ltpFR2	0	13	MEAT	883	n/a	n/a	0	0	0
3117.638	n/a	WORD	1558819	wordpools/wasnorm_wordpool_576.txt	LTP117	ltpFR2	0	13	NIGHTGOWN	953	n/a	n/a	0	0	0
3120.23	n/a	WORD	1560115	wordpools/wasnorm_wordpool_576.txt	LTP117	ltpFR2	0	13	OZONE	996	n/a	n/a	0	0	0
3122.862	n/a	WORD	1561431	wordpools/wasnorm_wordpool_576.txt	LTP117	ltpFR2	0	13	PATIENT	1024	n/a	n/a	0	0	0
3125.35	n/a	WORD	1562675	wordpools/wasnorm_wordpool_576.txt	LTP117	ltpFR2	0	13	TRUCK	1512	n/a	n/a	0	0	0
3127.844	n/a	WORD	1563922	wordpools/wasnorm_wordpool_576.txt	LTP117	ltpFR2	0	13	PICNIC	1060	n/a	n/a	0	0	0
3130.576	n/a	WORD	1565288	wordpools/wasnorm_wordpool_576.txt	LTP117	ltpFR2	0	13	SUPPER	1411	n/a	n/a	0	0	0
3133.32	n/a	WORD	1566660	wordpools/wasnorm_wordpool_576.txt	LTP117	ltpFR2	0	13	KLEENEX	782	n/a	n/a	0	0	0
3135.93	n/a	WORD	1567965	wordpools/wasnorm_wordpool_576.txt	LTP117	ltpFR2	0	13	CONTRACT	368	n/a	n/a	0	0	0
3138.534	n/a	WORD	1569267	wordpools/wasnorm_wordpool_576.txt	LTP117	ltpFR2	0	13	SLOPE	1328	n/a	n/a	0	0	0
3141.26	n/a	WORD	1570630	wordpools/wasnorm_wordpool_576.txt	LTP117	ltpFR2	0	13	DANCER	437	n/a	n/a	0	0	0
3143.91	n/a	WORD	1571955	wordpools/wasnorm_wordpool_576.txt	LTP117	ltpFR2	0	13	ACTRESS	6	n/a	n/a	0	0	0
3146.586	n/a	WORD	1573293	wordpools/wasnorm_wordpool_576.txt	LTP117	ltpFR2	0	13	SLIDE	1326	n/a	n/a	0	0	0
3149.398	n/a	WORD	1574699	wordpools/wasnorm_wordpool_576.txt	LTP117	ltpFR2	0	13	BUCKET	184	n/a	n/a	0	0	0
3151.856	n/a	WORD	1575928	wordpools/wasnorm_wordpool_576.txt	LTP117	ltpFR2	0	13	NEUTRON	947	n/a	n/a	0	0	0
3154.378	n/a	WORD	1577189	wordpools/wasnorm_wordpool_576.txt	LTP117	ltpFR2	0	13	SPOON	1357	n/a	n/a	0	0	0
3157.01	n/a	WORD	1578505	wordpools/wasnorm_wordpool_576.txt	LTP117	ltpFR2	0	13	NECKLACE	940	n/a	n/a	0	0	0
3159.814	n/a	WORD	1579907	wordpools/wasnorm_wordpool_576.txt	LTP117	ltpFR2	0	13	ORANGE	980	n/a	n/a	0	0	0
3161.426	n/a	START	1580713	n/a	LTP117	ltpFR2	0	n/a	n/a	n/a	20	n/a	n/a	n/a	n/a
3162.388	n/a	DISTRACTOR	1581194	n/a	LTP117	ltpFR2	0	13	n/a	n/a	n/a	n/a	0	0	0
3162.398	n/a	PROB	1581199	n/a	LTP117	ltpFR2	0	n/a	n/a	n/a	20	13	3	6	4
3163.78	n/a	PROB	1581890	n/a	LTP117	ltpFR2	0	n/a	n/a	n/a	20	18	6	5	7
3166.474	n/a	PROB	1583237	n/a	LTP117	ltpFR2	0	n/a	n/a	n/a	20	12	7	4	1
3167.366	n/a	PROB	1583683	n/a	LTP117	ltpFR2	0	n/a	n/a	n/a	20	12	6	4	2
3168.252	n/a	PROB	1584126	n/a	LTP117	ltpFR2	0	n/a	n/a	n/a	20	11	2	7	2
3169.234	n/a	PROB	1584617	n/a	LTP117	ltpFR2	0	n/a	n/a	n/a	20	16	7	2	5
3171.114	n/a	PROB	1585557	n/a	LTP117	ltpFR2	0	n/a	n/a	n/a	20	9	6	2	1
3172.468	n/a	PROB	1586234	n/a	LTP117	ltpFR2	0	n/a	n/a	n/a	20	10	1	2	7
3173.468	n/a	PROB	1586734	n/a	LTP117	ltpFR2	0	n/a	n/a	n/a	20	12	5	5	2
3174.354	n/a	PROB	1587177	n/a	LTP117	ltpFR2	0	n/a	n/a	n/a	20	14	4	8	2
3175.642	n/a	PROB	1587821	n/a	LTP117	ltpFR2	0	n/a	n/a	n/a	20	14	4	8	2
3176.58	n/a	PROB	1588290	n/a	LTP117	ltpFR2	0	n/a	n/a	n/a	20	16	2	7	7
3177.772	n/a	PROB	1588886	n/a	LTP117	ltpFR2	0	n/a	n/a	n/a	20	7	3	1	3
3178.82	n/a	PROB	1589410	n/a	LTP117	ltpFR2	0	n/a	n/a	n/a	20	19	6	5	8
3180.678	n/a	PROB	1590339	n/a	LTP117	ltpFR2	0	n/a	n/a	n/a	20	20	9	7	4
3182.19	n/a	PROB	1591095	n/a	LTP117	ltpFR2	0	n/a	n/a	n/a	20	10	2	4	4
3183.494	n/a	PROB	1591747	n/a	LTP117	ltpFR2	0	n/a	n/a	n/a	20	21	8	7	9
3185.338	n/a	STOP	1592669	n/a	LTP117	ltpFR2	0	n/a	n/a	n/a	20	n/a	n/a	n/a	n/a
3187.204	n/a	REC_START	1593602	n/a	LTP117	ltpFR2	0	13	n/a	n/a	n/a	n/a	0	0	0
3188.576	n/a	REC_WORD	1594288	wordpools/wasnorm_wordpool_576.txt	LTP117	ltpFR2	0	13	GRILL	661	n/a	n/a	0	0	0
3189.392	n/a	REC_WORD	1594696	wordpools/wasnorm_wordpool_576.txt	LTP117	ltpFR2	0	13	CANYON	235	n/a	n/a	0	0	0
3190.282	n/a	REC_WORD	1595141	wordpools/wasnorm_wordpool_576.txt	LTP117	ltpFR2	0	13	TUNNEL	1519	n/a	n/a	0	0	0
3191.968	n/a	REC_WORD	1595984	wordpools/wasnorm_wordpool_576.txt	LTP117	ltpFR2	0	13	PATIENT	1024	n/a	n/a	0	0	0
3192.65	n/a	REC_WORD	1596325	wordpools/wasnorm_wordpool_576.txt	LTP117	ltpFR2	0	13	SPOON	1357	n/a	n/a	0	0	0
3194.586	n/a	REC_WORD	1597293	wordpools/wasnorm_wordpool_576.txt	LTP117	ltpFR2	0	13	DANCER	437	n/a	n/a	0	0	0
3195.696	n/a	REC_WORD	1597848	wordpools/wasnorm_wordpool_576.txt	LTP117	ltpFR2	0	13	ACTOR	5	n/a	n/a	0	0	0
3200.898	n/a	REC_WORD	1600449	wordpools/wasnorm_wordpool_576.txt	LTP117	ltpFR2	0	13	NIGHTGOWN	953	n/a	n/a	0	0	0
3202.786	n/a	REC_WORD	1601393	wordpools/wasnorm_wordpool_576.txt	LTP117	ltpFR2	0	13	ORANGE	980	n/a	n/a	0	0	0
3203.69	n/a	REC_WORD	1601845	wordpools/wasnorm_wordpool_576.txt	LTP117	ltpFR2	0	13	NEUTRON	947	n/a	n/a	0	0	0
3211.23	n/a	REC_WORD	1605615	wordpools/wasnorm_wordpool_576.txt	LTP117	ltpFR2	0	13	MEAT	883	n/a	n/a	0	0	0
3214.562	n/a	REC_WORD	1607281	wordpools/wasnorm_wordpool_576.txt	LTP117	ltpFR2	0	13	TUNNEL	1519	n/a	n/a	0	0	0
3215.884	n/a	REC_WORD	1607942	wordpools/wasnorm_wordpool_576.txt	LTP117	ltpFR2	0	13	SLIDE	1326	n/a	n/a	0	0	0
3216.932	n/a	REC_WORD	1608466	wordpools/wasnorm_wordpool_576.txt	LTP117	ltpFR2	0	13	SLOPE	1328	n/a	n/a	0	0	0
3218.008	n/a	REC_WORD	1609004	wordpools/wasnorm_wordpool_576.txt	LTP117	ltpFR2	0	13	BUCKET	184	n/a	n/a	0	0	0
3221.83	n/a	REC_WORD	1610915	wordpools/wasnorm_wordpool_576.txt	LTP117	ltpFR2	0	13	TRUCK	1512	n/a	n/a	0	0	0
3278.224	n/a	DISTRACTOR	1639112	n/a	LTP117	ltpFR2	0	14	n/a	n/a	n/a	n/a	0	0	0
3278.224	n/a	START	1639112	n/a	LTP117	ltpFR2	0	n/a	n/a	n/a	21	n/a	n/a	n/a	n/a
3278.274	n/a	PROB	1639137	n/a	LTP117	ltpFR2	0	n/a	n/a	n/a	21	12	3	2	7
3279.378	n/a	PROB	1639689	n/a	LTP117	ltpFR2	0	n/a	n/a	n/a	21	21	3	8	8
3280.51	n/a	PROB	1640255	n/a	LTP117	ltpFR2	0	n/a	n/a	n/a	21	10	2	4	4
3281.53	n/a	PROB	1640765	n/a	LTP117	ltpFR2	0	n/a	n/a	n/a	21	24	6	9	9
3283.288	n/a	PROB	1641644	n/a	LTP117	ltpFR2	0	n/a	n/a	n/a	21	19	8	2	9
3285.652	n/a	PROB	1642826	n/a	LTP117	ltpFR2	0	n/a	n/a	n/a	21	19	5	8	6
3287.058	n/a	PROB	1643529	n/a	LTP117	ltpFR2	0	n/a	n/a	n/a	21	10	7	1	2
3287.954	n/a	PROB	1643977	n/a	LTP117	ltpFR2	0	n/a	n/a	n/a	21	8	4	2	2
3289.794	n/a	PROB	1644897	n/a	LTP117	ltpFR2	0	n/a	n/a	n/a	21	15	7	3	5
3291.084	n/a	PROB	1645542	n/a	LTP117	ltpFR2	0	n/a	n/a	n/a	21	23	8	9	6
3292.94	n/a	PROB	1646470	n/a	LTP117	ltpFR2	0	n/a	n/a	n/a	21	17	9	5	3
3294.698	n/a	PROB	1647349	n/a	LTP117	ltpFR2	0	n/a	n/a	n/a	21	18	9	2	7
3296.442	n/a	PROB	1648221	n/a	LTP117	ltpFR2	0	n/a	n/a	n/a	21	21	9	7	5
3298.21	n/a	PROB	1649105	n/a	LTP117	ltpFR2	0	n/a	n/a	n/a	21	16	7	8	1
3299.42	n/a	PROB	1649710	n/a	LTP117	ltpFR2	0	n/a	n/a	n/a	21	19	4	8	7
3300.72	n/a	PROB	1650360	n/a	LTP117	ltpFR2	0	n/a	n/a	n/a	21	13	6	4	3
3301.944	n/a	STOP	1650972	n/a	LTP117	ltpFR2	0	n/a	n/a	n/a	21	n/a	n/a	n/a	n/a
3303.37	n/a	WORD	1651685	wordpools/wasnorm_wordpool_576.txt	LTP117	ltpFR2	0	14	BLENDER	136	n/a	n/a	0	0	0
3306.074	n/a	WORD	1653037	wordpools/wasnorm_wordpool_576.txt	LTP117	ltpFR2	0	14	PUPIL	1143	n/a	n/a	0	0	0
3308.856	n/a	WORD	1654428	wordpools/wasnorm_wordpool_576.txt	LTP117	ltpFR2	0	14	FLEET	578	n/a	n/a	0	0	0
3311.316	n/a	WORD	1655658	wordpools/wasnorm_wordpool_576.txt	LTP117	ltpFR2	0	14	GHETTO	633	n/a	n/a	0	0	0
3313.792	n/a	WORD	1656896	wordpools/wasnorm_wordpool_576.txt	LTP117	ltpFR2	0	14	FILM	565	n/a	n/a	0	0	0
3316.502	n/a	WORD	1658251	wordpools/wasnorm_wordpool_576.txt	LTP117	ltpFR2	0	14	DANDRUFF	439	n/a	n/a	0	0	0
3318.99	n/a	WORD	1659495	wordpools/wasnorm_wordpool_576.txt	LTP117	ltpFR2	0	14	BODY	145	n/a	n/a	0	0	0
3321.718	n/a	WORD	1660859	wordpools/wasnorm_wordpool_576.txt	LTP117	ltpFR2	0	14	CIGAR	308	n/a	n/a	0	0	0
3324.528	n/a	WORD	1662264	wordpools/wasnorm_wordpool_576.txt	LTP117	ltpFR2	0	14	BRICK	172	n/a	n/a	0	0	0
3327.222	n/a	WORD	1663611	wordpools/wasnorm_wordpool_576.txt	LTP117	ltpFR2	0	14	HARP	689	n/a	n/a	0	0	0
3329.854	n/a	WORD	1664927	wordpools/wasnorm_wordpool_576.txt	LTP117	ltpFR2	0	14	ROD	1203	n/a	n/a	0	0	0
3332.33	n/a	WORD	1666165	wordpools/wasnorm_wordpool_576.txt	LTP117	ltpFR2	0	14	OX	994	n/a	n/a	0	0	0
3335.158	n/a	WORD	1667579	wordpools/wasnorm_wordpool_576.txt	LTP117	ltpFR2	0	14	YOLK	1633	n/a	n/a	0	0	0
3337.612	n/a	WORD	1668806	wordpools/wasnorm_wordpool_576.txt	LTP117	ltpFR2	0	14	BLACKBOARD	133	n/a	n/a	0	0	0
3340.41	n/a	WORD	1670205	wordpools/wasnorm_wordpool_576.txt	LTP117	ltpFR2	0	14	SIBLING	1301	n/a	n/a	0	0	0
3343.216	n/a	WORD	1671608	wordpools/wasnorm_wordpool_576.txt	LTP117	ltpFR2	0	14	BROTHER	179	n/a	n/a	0	0	0
3345.648	n/a	WORD	1672824	wordpools/wasnorm_wordpool_576.txt	LTP117	ltpFR2	0	14	SHERIFF	1284	n/a	n/a	0	0	0
3348.19	n/a	WORD	1674095	wordpools/wasnorm_wordpool_576.txt	LTP117	ltpFR2	0	14	WAGON	1578	n/a	n/a	0	0	0
3350.696	n/a	WORD	1675348	wordpools/wasnorm_wordpool_576.txt	LTP117	ltpFR2	0	14	VENUS	1557	n/a	n/a	0	0	0
3353.41	n/a	WORD	1676705	wordpools/wasnorm_wordpool_576.txt	LTP117	ltpFR2	0	14	DORM	488	n/a	n/a	0	0	0
3355.982	n/a	WORD	1677991	wordpools/wasnorm_wordpool_576.txt	LTP117	ltpFR2	0	14	ARMY	39	n/a	n/a	0	0	0
3358.676	n/a	WORD	1679338	wordpools/wasnorm_wordpool_576.txt	LTP117	ltpFR2	0	14	WRENCH	1625	n/a	n/a	0	0	0
3361.374	n/a	WORD	1680687	wordpools/wasnorm_wordpool_576.txt	LTP117	ltpFR2	0	14	DRILL	497	n/a	n/a	0	0	0
3364.028	n/a	WORD	1682014	wordpools/wasnorm_wordpool_576.txt	LTP117	ltpFR2	0	14	RELISH	1183	n/a	n/a	0	0	0
3365.64	n/a	START	1682820	n/a	LTP117	ltpFR2	0	n/a	n/a	n/a	22	n/a	n/a	n/a	n/a
3366.788	n/a	DISTRACTOR	1683394	n/a	LTP117	ltpFR2	0	14	n/a	n/a	n/a	n/a	0	0	0
3366.794	n/a	PROB	1683397	n/a	LTP117	ltpFR2	0	n/a	n/a	n/a	22	18	7	2	9
3369.384	n/a	PROB	1684692	n/a	LTP117	ltpFR2	0	n/a	n/a	n/a	22	12	2	5	5
3370.56	n/a	PROB	1685280	n/a	LTP117	ltpFR2	0	n/a	n/a	n/a	22	10	2	7	1
3371.708	n/a	PROB	1685854	n/a	LTP117	ltpFR2	0	n/a	n/a	n/a	22	6	1	4	1
3372.752	n/a	PROB	1686376	n/a	LTP117	ltpFR2	0	n/a	n/a	n/a	22	19	7	3	9
3374.742	n/a	PROB	1687371	n/a	LTP117	ltpFR2	0	n/a	n/a	n/a	22	14	7	3	4
3376.098	n/a	PROB	1688049	n/a	LTP117	ltpFR2	0	n/a	n/a	n/a	22	21	6	8	7
3377.882	n/a	PROB	1688941	n/a	LTP117	ltpFR2	0	n/a	n/a	n/a	22	9	1	5	3
3378.924	n/a	PROB	1689462	n/a	LTP117	ltpFR2	0	n/a	n/a	n/a	22	11	1	9	1
3380.682	n/a	PROB	1690341	n/a	LTP117	ltpFR2	0	n/a	n/a	n/a	22	18	9	8	1
3381.898	n/a	PROB	1690949	n/a	LTP117	ltpFR2	0	n/a	n/a	n/a	22	17	4	5	8
3383.904	n/a	PROB	1691952	n/a	LTP117	ltpFR2	0	n/a	n/a	n/a	22	16	3	8	5
3385.376	n/a	PROB	1692688	n/a	LTP117	ltpFR2	0	n/a	n/a	n/a	22	24	8	9	7
3387.034	n/a	PROB	1693517	n/a	LTP117	ltpFR2	0	n/a	n/a	n/a	22	17	2	7	8
3388.356	n/a	STOP	1694178	n/a	LTP117	ltpFR2	0	n/a	n/a	n/a	22	n/a	n/a	n/a	n/a
3391.558	n/a	REC_START	1695779	n/a	LTP117	ltpFR2	0	14	n/a	n/a	n/a	n/a	0	0	0
3392.254	n/a	REC_WORD	1696127	wordpools/wasnorm_wordpool_576.txt	LTP117	ltpFR2	0	14	RELISH	1183	n/a	n/a	0	0	0
3393.356	n/a	REC_WORD	1696678	wordpools/wasnorm_wordpool_576.txt	LTP117	ltpFR2	0	14	DRILL	497	n/a	n/a	0	0	0
3394.276	n/a	REC_WORD	1697138	wordpools/wasnorm_wordpool_576.txt	LTP117	ltpFR2	0	14	WRENCH	1625	n/a	n/a	0	0	0
3395.266	n/a	REC_WORD	1697633	wordpools/wasnorm_wordpool_576.txt	LTP117	ltpFR2	0	14	BLACKBOARD	133	n/a	n/a	0	0	0
3396.274	n/a	REC_WORD	1698137	wordpools/wasnorm_wordpool_576.txt	LTP117	ltpFR2	0	14	ARMY	39	n/a	n/a	0	0	0
3397.206	n/a	REC_WORD	1698603	wordpools/wasnorm_wordpool_576.txt	LTP117	ltpFR2	0	14	BROTHER	179	n/a	n/a	0	0	0
3398.04	n/a	REC_WORD	1699020	wordpools/wasnorm_wordpool_576.txt	LTP117	ltpFR2	0	14	SIBLING	1301	n/a	n/a	0	0	0
3399.206	n/a	REC_WORD	1699603	wordpools/wasnorm_wordpool_576.txt	LTP117	ltpFR2	0	14	YOLK	1633	n/a	n/a	0	0	0
3400.144	n/a	REC_WORD	1700072	wordpools/wasnorm_wordpool_576.txt	LTP117	ltpFR2	0	14	OX	994	n/a	n/a	0	0	0
3402.788	n/a	REC_WORD	1701394	wordpools/wasnorm_wordpool_576.txt	LTP117	ltpFR2	0	14	GHETTO	633	n/a	n/a	0	0	0
3405.686	n/a	REC_WORD	1702843	wordpools/wasnorm_wordpool_576.txt	LTP117	ltpFR2	0	14	SHERIFF	1284	n/a	n/a	0	0	0
3408.336	n/a	REC_WORD	1704168	wordpools/wasnorm_wordpool_576.txt	LTP117	ltpFR2	0	14	BODY	145	n/a	n/a	0	0	0
3410.43	n/a	REC_WORD	1705215	wordpools/wasnorm_wordpool_576.txt	LTP117	ltpFR2	0	14	FILM	565	n/a	n/a	0	0	0
3419.782	n/a	REC_WORD	1709891	wordpools/wasnorm_wordpool_576.txt	LTP117	ltpFR2	0	14	CIGAR	308	n/a	n/a	0	0	0
3422.054	n/a	REC_WORD	1711027	wordpools/wasnorm_wordpool_576.txt	LTP117	ltpFR2	0	14	ROD	1203	n/a	n/a	0	0	0
3444.682	n/a	REC_WORD	1722341	wordpools/wasnorm_wordpool_576.txt	LTP117	ltpFR2	0	14	RELISH	1183	n/a	n/a	0	0	0
3482.588	n/a	WORD	1741294	wordpools/wasnorm_wordpool_576.txt	LTP117	ltpFR2	0	15	SPOOL	1356	n/a	n/a	0	0	0
3485.21	n/a	WORD	1742605	wordpools/wasnorm_wordpool_576.txt	LTP117	ltpFR2	0	15	YARN	1631	n/a	n/a	0	0	0
3487.958	n/a	WORD	1743979	wordpools/wasnorm_wordpool_576.txt	LTP117	ltpFR2	0	15	MATCH	878	n/a	n/a	0	0	0
3490.652	n/a	WORD	1745326	wordpools/wasnorm_wordpool_576.txt	LTP117	ltpFR2	0	15	BOUQUET	157	n/a	n/a	0	0	0
3493.278	n/a	WORD	1746639	wordpools/wasnorm_wordpool_576.txt	LTP117	ltpFR2	0	15	FLUTE	585	n/a	n/a	0	0	0
3495.77	n/a	WORD	1747885	wordpools/wasnorm_wordpool_576.txt	LTP117	ltpFR2	0	15	WASHER	1592	n/a	n/a	0	0	0
3498.28	n/a	WORD	1749140	wordpools/wasnorm_wordpool_576.txt	LTP117	ltpFR2	0	15	SWITCH	1422	n/a	n/a	0	0	0
3500.724	n/a	WORD	1750362	wordpools/wasnorm_wordpool_576.txt	LTP117	ltpFR2	0	15	LAMP	798	n/a	n/a	0	0	0
3503.496	n/a	WORD	1751748	wordpools/wasnorm_wordpool_576.txt	LTP117	ltpFR2	0	15	ANTLER	29	n/a	n/a	0	0	0
3506.006	n/a	WORD	1753003	wordpools/wasnorm_wordpool_576.txt	LTP117	ltpFR2	0	15	ULCER	1533	n/a	n/a	0	0	0
3508.554	n/a	WORD	1754277	wordpools/wasnorm_wordpool_576.txt	LTP117	ltpFR2	0	15	TRANSPLANT	1496	n/a	n/a	0	0	0
3510.996	n/a	WORD	1755498	wordpools/wasnorm_wordpool_576.txt	LTP117	ltpFR2	0	15	JUGGLER	763	n/a	n/a	0	0	0
3513.556	n/a	WORD	1756778	wordpools/wasnorm_wordpool_576.txt	LTP117	ltpFR2	0	15	MEDAL	885	n/a	n/a	0	0	0
3516.35	n/a	WORD	1758175	wordpools/wasnorm_wordpool_576.txt	LTP117	ltpFR2	0	15	JUNGLE	764	n/a	n/a	0	0	0
3519.162	n/a	WORD	1759581	wordpools/wasnorm_wordpool_576.txt	LTP117	ltpFR2	0	15	DRAGON	492	n/a	n/a	0	0	0
3521.9	n/a	WORD	1760950	wordpools/wasnorm_wordpool_576.txt	LTP117	ltpFR2	0	15	HAMPER	682	n/a	n/a	0	0	0
3524.526	n/a	WORD	1762263	wordpools/wasnorm_wordpool_576.txt	LTP117	ltpFR2	0	15	GROUND	666	n/a	n/a	0	0	0
3527.018	n/a	WORD	1763509	wordpools/wasnorm_wordpool_576.txt	LTP117	ltpFR2	0	15	INFANT	737	n/a	n/a	0	0	0
3529.834	n/a	WORD	1764917	wordpools/wasnorm_wordpool_576.txt	LTP117	ltpFR2	0	15	MATTRESS	879	n/a	n/a	0	0	0
3532.344	n/a	WORD	1766172	wordpools/wasnorm_wordpool_576.txt	LTP117	ltpFR2	0	15	CHAMPAGNE	278	n/a	n/a	0	0	0
3534.804	n/a	WORD	1767402	wordpools/wasnorm_wordpool_576.txt	LTP117	ltpFR2	0	15	CHEST	295	n/a	n/a	0	0	0
3537.308	n/a	WORD	1768654	wordpools/wasnorm_wordpool_576.txt	LTP117	ltpFR2	0	15	COURSE	390	n/a	n/a	0	0	0
3539.958	n/a	WORD	1769979	wordpools/wasnorm_wordpool_576.txt	LTP117	ltpFR2	0	15	SHARK	1275	n/a	n/a	0	0	0
3542.494	n/a	WORD	1771247	wordpools/wasnorm_wordpool_576.txt	LTP117	ltpFR2	0	15	SUNSET	1408	n/a	n/a	0	0	0
3544.108	n/a	START	1772054	n/a	LTP117	ltpFR2	0	n/a	n/a	n/a	23	n/a	n/a	n/a	n/a
3545.08	n/a	DISTRACTOR	1772540	n/a	LTP117	ltpFR2	0	15	n/a	n/a	n/a	n/a	0	0	0
3545.094	n/a	PROB	1772547	n/a	LTP117	ltpFR2	0	n/a	n/a	n/a	23	9	2	1	6
3546.21	n/a	PROB	1773105	n/a	LTP117	ltpFR2	0	n/a	n/a	n/a	23	11	1	4	6
3547.502	n/a	PROB	1773751	n/a	LTP117	ltpFR2	0	n/a	n/a	n/a	23	21	8	8	5
3549.304	n/a	PROB	1774652	n/a	LTP117	ltpFR2	0	n/a	n/a	n/a	23	16	2	6	8
3550.832	n/a	PROB	1775416	n/a	LTP117	ltpFR2	0	n/a	n/a	n/a	23	6	1	3	2
3552.148	n/a	PROB	1776074	n/a	LTP117	ltpFR2	0	n/a	n/a	n/a	23	17	5	9	3
3553.686	n/a	PROB	1776843	n/a	LTP117	ltpFR2	0	n/a	n/a	n/a	23	8	2	2	4
3554.808	n/a	PROB	1777404	n/a	LTP117	ltpFR2	0	n/a	n/a	n/a	23	16	6	5	5
3556.052	n/a	PROB	1778026	n/a	LTP117	ltpFR2	0	n/a	n/a	n/a	23	23	8	6	9
3557.736	n/a	PROB	1778868	n/a	LTP117	ltpFR2	0	n/a	n/a	n/a	23	22	8	6	8
3559.594	n/a	PROB	1779797	n/a	LTP117	ltpFR2	0	n/a	n/a	n/a	23	8	1	6	1
3560.57	n/a	PROB	1780285	n/a	LTP117	ltpFR2	0	n/a	n/a	n/a	23	17	6	7	4
3562.138	n/a	PROB	1781069	n/a	LTP117	ltpFR2	0	n/a	n/a	n/a	23	17	4	5	8
3563.508	n/a	PROB	1781754	n/a	LTP117	ltpFR2	0	n/a	n/a	n/a	23	9	4	1	4
3564.914	n/a	PROB	1782457	n/a	LTP117	ltpFR2	0	n/a	n/a	n/a	23	15	1	5	9
3566.102	n/a	PROB	1783051	n/a	LTP117	ltpFR2	0	n/a	n/a	n/a	23	13	3	3	7
3567.134	n/a	STOP	1783567	n/a	LTP117	ltpFR2	0	n/a	n/a	n/a	23	n/a	n/a	n/a	n/a
3569.95	n/a	REC_START	1784975	n/a	LTP117	ltpFR2	0	15	n/a	n/a	n/a	n/a	0	0	0
3570.398	n/a	REC_WORD	1785199	wordpools/wasnorm_wordpool_576.txt	LTP117	ltpFR2	0	15	SPOOL	1356	n/a	n/a	0	0	0
3571.478	n/a	REC_WORD	1785739	wordpools/wasnorm_wordpool_576.txt	LTP117	ltpFR2	0	15	YARN	1631	n/a	n/a	0	0	0
3572.988	n/a	REC_WORD	1786494	wordpools/wasnorm_wordpool_576.txt	LTP117	ltpFR2	0	15	LAMP	798	n/a	n/a	0	0	0
3573.814	n/a	REC_WORD	1786907	wordpools/wasnorm_wordpool_576.txt	LTP117	ltpFR2	0	15	SWITCH	1422	n/a	n/a	0	0	0
3574.92	n/a	REC_WORD	1787460	wordpools/wasnorm_wordpool_576.txt	LTP117	ltpFR2	0	15	MATTRESS	879	n/a	n/a	0	0	0
3576.052	n/a	REC_WORD	1788026	wordpools/wasnorm_wordpool_576.txt	LTP117	ltpFR2	0	15	JUNGLE	764	n/a	n/a	0	0	0
3576.916	n/a	REC_WORD	1788458	wordpools/wasnorm_wordpool_576.txt	LTP117	ltpFR2	0	15	JUGGLER	763	n/a	n/a	0	0	0
3577.834	n/a	REC_WORD	1788917	wordpools/wasnorm_wordpool_576.txt	LTP117	ltpFR2	0	15	MEDAL	885	n/a	n/a	0	0	0
3578.876	n/a	REC_WORD	1789438	wordpools/wasnorm_wordpool_576.txt	LTP117	ltpFR2	0	15	SHARK	1275	n/a	n/a	0	0	0
3589.256	n/a	REC_WORD	1794628	wordpools/wasnorm_wordpool_576.txt	LTP117	ltpFR2	0	15	CHEST	295	n/a	n/a	0	0	0
3615.242	n/a	REC_WORD	1807621	wordpools/wasnorm_wordpool_576.txt	LTP117	ltpFR2	0	15	CHAMPAGNE	278	n/a	n/a	0	0	0
3660.986	n/a	WORD	1830493	wordpools/wasnorm_wordpool_576.txt	LTP117	ltpFR2	0	16	BRANCH	168	n/a	n/a	0	0	0
3663.578	n/a	WORD	1831789	wordpools/wasnorm_wordpool_576.txt	LTP117	ltpFR2	0	16	COOKBOOK	373	n/a	n/a	0	0	0
3666.372	n/a	WORD	1833186	wordpools/wasnorm_wordpool_576.txt	LTP117	ltpFR2	0	16	PEANUT	1032	n/a	n/a	0	0	0
3669.102	n/a	WORD	1834551	wordpools/wasnorm_wordpool_576.txt	LTP117	ltpFR2	0	16	OINTMENT	974	n/a	n/a	0	0	0
3671.56	n/a	WORD	1835780	wordpools/wasnorm_wordpool_576.txt	LTP117	ltpFR2	0	16	SERVANT	1271	n/a	n/a	0	0	0
3674.02	n/a	WORD	1837010	wordpools/wasnorm_wordpool_576.txt	LTP117	ltpFR2	0	16	LAVA	804	n/a	n/a	0	0	0
3676.462	n/a	WORD	1838231	wordpools/wasnorm_wordpool_576.txt	LTP117	ltpFR2	0	16	ROBOT	1200	n/a	n/a	0	0	0
3679.054	n/a	WORD	1839527	wordpools/wasnorm_wordpool_576.txt	LTP117	ltpFR2	0	16	MARKER	870	n/a	n/a	0	0	0
3681.598	n/a	WORD	1840799	wordpools/wasnorm_wordpool_576.txt	LTP117	ltpFR2	0	16	WAITER	1580	n/a	n/a	0	0	0
3684.04	n/a	WORD	1842020	wordpools/wasnorm_wordpool_576.txt	LTP117	ltpFR2	0	16	JELLO	754	n/a	n/a	0	0	0
3686.818	n/a	WORD	1843409	wordpools/wasnorm_wordpool_576.txt	LTP117	ltpFR2	0	16	GARDEN	623	n/a	n/a	0	0	0
3689.294	n/a	WORD	1844647	wordpools/wasnorm_wordpool_576.txt	LTP117	ltpFR2	0	16	LODGE	839	n/a	n/a	0	0	0
3691.754	n/a	WORD	1845877	wordpools/wasnorm_wordpool_576.txt	LTP117	ltpFR2	0	16	MOTEL	919	n/a	n/a	0	0	0
3694.264	n/a	WORD	1847132	wordpools/wasnorm_wordpool_576.txt	LTP117	ltpFR2	0	16	KITCHEN	778	n/a	n/a	0	0	0
3696.99	n/a	WORD	1848495	wordpools/wasnorm_wordpool_576.txt	LTP117	ltpFR2	0	16	HEDGE	699	n/a	n/a	0	0	0
3699.528	n/a	WORD	1849764	wordpools/wasnorm_wordpool_576.txt	LTP117	ltpFR2	0	16	SCRIBBLE	1256	n/a	n/a	0	0	0
3702.178	n/a	WORD	1851089	wordpools/wasnorm_wordpool_576.txt	LTP117	ltpFR2	0	16	SALT	1229	n/a	n/a	0	0	0
3705.004	n/a	WORD	1852502	wordpools/wasnorm_wordpool_576.txt	LTP117	ltpFR2	0	16	BARREL	91	n/a	n/a	0	0	0
3707.766	n/a	WORD	1853883	wordpools/wasnorm_wordpool_576.txt	LTP117	ltpFR2	0	16	COMPASS	358	n/a	n/a	0	0	0
3710.52	n/a	WORD	1855260	wordpools/wasnorm_wordpool_576.txt	LTP117	ltpFR2	0	16	WARDROBE	1587	n/a	n/a	0	0	0
3713.064	n/a	WORD	1856532	wordpools/wasnorm_wordpool_576.txt	LTP117	ltpFR2	0	16	COSTUME	383	n/a	n/a	0	0	0
3715.762	n/a	WORD	1857881	wordpools/wasnorm_wordpool_576.txt	LTP117	ltpFR2	0	16	MACHINE	852	n/a	n/a	0	0	0
3718.25	n/a	WORD	1859125	wordpools/wasnorm_wordpool_576.txt	LTP117	ltpFR2	0	16	DOLPHIN	483	n/a	n/a	0	0	0
3720.998	n/a	WORD	1860499	wordpools/wasnorm_wordpool_576.txt	LTP117	ltpFR2	0	16	WINDOW	1611	n/a	n/a	0	0	0
3722.616	n/a	START	1861308	n/a	LTP117	ltpFR2	0	n/a	n/a	n/a	24	n/a	n/a	n/a	n/a
3723.616	n/a	DISTRACTOR	1861808	n/a	LTP117	ltpFR2	0	16	n/a	n/a	n/a	n/a	0	0	0
3723.624	n/a	PROB	1861812	n/a	LTP117	ltpFR2	0	n/a	n/a	n/a	24	12	7	4	1
3725.066	n/a	PROB	1862533	n/a	LTP117	ltpFR2	0	n/a	n/a	n/a	24	19	9	2	8
3726.498	n/a	PROB	1863249	n/a	LTP117	ltpFR2	0	n/a	n/a	n/a	24	19	9	2	8
3727.418	n/a	PROB	1863709	n/a	LTP117	ltpFR2	0	n/a	n/a	n/a	24	24	8	7	9
3728.84	n/a	PROB	1864420	n/a	LTP117	ltpFR2	0	n/a	n/a	n/a	24	16	8	1	7
3730.012	n/a	PROB	1865006	n/a	LTP117	ltpFR2	0	n/a	n/a	n/a	24	16	7	5	4
3731.54	n/a	PROB	1865770	n/a	LTP117	ltpFR2	0	n/a	n/a	n/a	24	10	5	2	3
3732.554	n/a	PROB	1866277	n/a	LTP117	ltpFR2	0	n/a	n/a	n/a	24	22	9	7	6
3733.86	n/a	PROB	1866930	n/a	LTP117	ltpFR2	0	n/a	n/a	n/a	24	17	2	9	6
3735.264	n/a	PROB	1867632	n/a	LTP117	ltpFR2	0	n/a	n/a	n/a	24	10	1	8	1
3736.202	n/a	PROB	1868101	n/a	LTP117	ltpFR2	0	n/a	n/a	n/a	24	24	9	7	8
3737.924	n/a	PROB	1868962	n/a	LTP117	ltpFR2	0	n/a	n/a	n/a	24	19	7	4	8
3739.798	n/a	PROB	1869899	n/a	LTP117	ltpFR2	0	n/a	n/a	n/a	24	10	5	4	1
3740.652	n/a	PROB	1870326	n/a	LTP117	ltpFR2	0	n/a	n/a	n/a	24	13	3	6	4
3743.636	n/a	PROB	1871818	n/a	LTP117	ltpFR2	0	n/a	n/a	n/a	24	10	6	2	2
3744.434	n/a	PROB	1872217	n/a	LTP117	ltpFR2	0	n/a	n/a	n/a	24	11	5	4	2
3745.216	n/a	STOP	1872608	n/a	LTP117	ltpFR2	0	n/a	n/a	n/a	24	n/a	n/a	n/a	n/a
3748.538	n/a	REC_START	1874269	n/a	LTP117	ltpFR2	0	16	n/a	n/a	n/a	n/a	0	0	0
3751.004	n/a	REC_WORD	1875502	wordpools/wasnorm_wordpool_576.txt	LTP117	ltpFR2	0	16	COOKBOOK	373	n/a	n/a	0	0	0
3753.302	n/a	REC_WORD	1876651	wordpools/wasnorm_wordpool_576.txt	LTP117	ltpFR2	0	16	WAITER	1580	n/a	n/a	0	0	0
3753.964	n/a	REC_WORD	1876982	wordpools/wasnorm_wordpool_576.txt	LTP117	ltpFR2	0	16	SCRIBBLE	1256	n/a	n/a	0	0	0
3757.056	n/a	REC_WORD	1878528	wordpools/wasnorm_wordpool_576.txt	LTP117	ltpFR2	0	16	LODGE	839	n/a	n/a	0	0	0
3759.898	n/a	REC_WORD	1879949	wordpools/wasnorm_wordpool_576.txt	LTP117	ltpFR2	0	16	HEDGE	699	n/a	n/a	0	0	0
3762.372	n/a	REC_WORD	1881186	wordpools/wasnorm_wordpool_576.txt	LTP117	ltpFR2	0	16	COMPASS	358	n/a	n/a	0	0	0
3763.388	n/a	REC_WORD	1881694	wordpools/wasnorm_wordpool_576.txt	LTP117	ltpFR2	0	16	ROBOT	1200	n/a	n/a	0	0	0
3765.544	n/a	REC_WORD	1882772	wordpools/wasnorm_wordpool_576.txt	LTP117	ltpFR2	0	16	LAVA	804	n/a	n/a	0	0	0
3774.67	n/a	REC_WORD	1887335	wordpools/wasnorm_wordpool_576.txt	LTP117	ltpFR2	0	16	PEANUT	1032	n/a	n/a	0	0	0
3775.806	n/a	REC_WORD	1887903	wordpools/wasnorm_wordpool_576.txt	LTP117	ltpFR2	0	16	OINTMENT	974	n/a	n/a	0	0	0
3777.102	n/a	REC_WORD	1888551	wordpools/wasnorm_wordpool_576.txt	LTP117	ltpFR2	0	16	BARREL	91	n/a	n/a	0	0	0
3788.806	n/a	REC_WORD	1894403	wordpools/wasnorm_wordpool_576.txt	LTP117	ltpFR2	0	16	KITCHEN	778	n/a	n/a	0	0	0
3794.608	n/a	REC_WORD	1897304	wordpools/wasnorm_wordpool_576.txt	LTP117	ltpFR2	0	16	WARDROBE	1587	n/a	n/a	0	0	0
3795.638	n/a	REC_WORD	1897819	wordpools/wasnorm_wordpool_576.txt	LTP117	ltpFR2	0	16	DOLPHIN	483	n/a	n/a	0	0	0
3825.298	n/a	REST_REWET	1912649	n/a	LTP117	ltpFR2	0	16	n/a	n/a	n/a	n/a	0	0	0
4120.86	n/a	DISTRACTOR	2060430	n/a	LTP117	ltpFR2	0	17	n/a	n/a	n/a	n/a	0	0	0
4120.86	n/a	START	2060430	n/a	LTP117	ltpFR2	0	n/a	n/a	n/a	25	n/a	n/a	n/a	n/a
4120.91	n/a	PROB	2060455	n/a	LTP117	ltpFR2	0	n/a	n/a	n/a	25	17	7	7	3
4122.512	n/a	PROB	2061256	n/a	LTP117	ltpFR2	0	n/a	n/a	n/a	25	16	6	4	6
4123.804	n/a	PROB	2061902	n/a	LTP117	ltpFR2	0	n/a	n/a	n/a	25	10	3	3	4
4124.72	n/a	PROB	2062360	n/a	LTP117	ltpFR2	0	n/a	n/a	n/a	25	23	5	9	9
4126.024	n/a	PROB	2063012	n/a	LTP117	ltpFR2	0	n/a	n/a	n/a	25	22	8	7	8
4127.714	n/a	PROB	2063857	n/a	LTP117	ltpFR2	0	n/a	n/a	n/a	25	15	1	9	5
4129.104	n/a	PROB	2064552	n/a	LTP117	ltpFR2	0	n/a	n/a	n/a	25	15	6	3	6
4130.274	n/a	PROB	2065137	n/a	LTP117	ltpFR2	0	n/a	n/a	n/a	25	14	8	4	2
4131.428	n/a	PROB	2065714	n/a	LTP117	ltpFR2	0	n/a	n/a	n/a	25	8	4	3	1
4132.5	n/a	PROB	2066250	n/a	LTP117	ltpFR2	0	n/a	n/a	n/a	25	14	3	3	8
4133.67	n/a	PROB	2066835	n/a	LTP117	ltpFR2	0	n/a	n/a	n/a	25	15	8	6	1
4135.21	n/a	PROB	2067605	n/a	LTP117	ltpFR2	0	n/a	n/a	n/a	25	8	2	5	1
4136.298	n/a	PROB	2068149	n/a	LTP117	ltpFR2	0	n/a	n/a	n/a	25	15	8	5	2
4137.888	n/a	PROB	2068944	n/a	LTP117	ltpFR2	0	n/a	n/a	n/a	25	16	1	6	9
4139.08	n/a	PROB	2069540	n/a	LTP117	ltpFR2	0	n/a	n/a	n/a	25	17	8	5	4
4140.246	n/a	PROB	2070123	n/a	LTP117	ltpFR2	0	n/a	n/a	n/a	25	18	4	8	6
4141.652	n/a	PROB	2070826	n/a	LTP117	ltpFR2	0	n/a	n/a	n/a	25	23	9	9	7
4142.978	n/a	PROB	2071489	n/a	LTP117	ltpFR2	0	n/a	n/a	n/a	25	18	9	6	3
4144.756	n/a	STOP	2072378	n/a	LTP117	ltpFR2	0	n/a	n/a	n/a	25	n/a	n/a	n/a	n/a
4146.04	n/a	WORD	2073020	wordpools/wasnorm_wordpool_576.txt	LTP117	ltpFR2	0	17	HEART	697	n/a	n/a	0	0	0
4148.65	n/a	WORD	2074325	wordpools/wasnorm_wordpool_576.txt	LTP117	ltpFR2	0	17	VICTIM	1562	n/a	n/a	0	0	0
4151.088	n/a	WORD	2075544	wordpools/wasnorm_wordpool_576.txt	LTP117	ltpFR2	0	17	ATLAS	53	n/a	n/a	0	0	0
4153.752	n/a	WORD	2076876	wordpools/wasnorm_wordpool_576.txt	LTP117	ltpFR2	0	17	STREAM	1392	n/a	n/a	0	0	0
4156.446	n/a	WORD	2078223	wordpools/wasnorm_wordpool_576.txt	LTP117	ltpFR2	0	17	TOASTER	1472	n/a	n/a	0	0	0
4159.22	n/a	WORD	2079610	wordpools/wasnorm_wordpool_576.txt	LTP117	ltpFR2	0	17	TRIBE	1505	n/a	n/a	0	0	0
