mstime	trial_type	stim_file	subject	experiment	session	trial	task	item_name	item_num	recog_resp	recog_conf	resp	color_r	color_g	color_b	case	font
0	SESS_START	n/a	LTP211	ltpFR	6	n/a	n/a	n/a	n/a	1	5	n/a	n/a	n/a	n/a	n/a	n/a
44729	WORD	wordpools/wasnorm_wordpool_less_exclusions.txt	LTP211	ltpFR	6	1	1	BOYFRIEND	162	1	n/a	1	0.422607421875	0.5869140625	0	upper	zerothre.ttf
48857	WORD	wordpools/wasnorm_wordpool_less_exclusions.txt	LTP211	ltpFR	6	1	1	OX	994	n/a	n/a	1	0.422607421875	0.5869140625	0	upper	zerothre.ttf
53017	WORD	wordpools/wasnorm_wordpool_less_exclusions.txt	LTP211	ltpFR	6	1	1	GUM	672	n/a	n/a	0	0.422607421875	0.5869140625	0	upper	zerothre.ttf
56945	WORD	wordpools/wasnorm_wordpool_less_exclusions.txt	LTP211	ltpFR	6	1	1	DYNAMITE	511	n/a	n/a	0	0.422607421875	0.5869140625	0	upper	zerothre.ttf
60839	WORD	wordpools/wasnorm_wordpool_less_exclusions.txt	LTP211	ltpFR	6	1	1	SHACK	1273	n/a	n/a	0	0.422607421875	0.5869140625	0	upper	zerothre.ttf
65049	WORD	wordpools/wasnorm_wordpool_less_exclusions.txt	LTP211	ltpFR	6	1	1	GROCERIES	663	n/a	n/a	0	0.422607421875	0.5869140625	0	upper	zerothre.ttf
69160	WORD	wordpools/wasnorm_wordpool_less_exclusions.txt	LTP211	ltpFR	6	1	0	CLIPPERS	324	n/a	n/a	0	0.57763671875	0.412841796875	1	lower	amplitud.ttf
73154	WORD	wordpools/wasnorm_wordpool_less_exclusions.txt	LTP211	ltpFR	6	1	0	MEAL	882	n/a	n/a	1	0.57763671875	0.412841796875	1	lower	amplitud.ttf
77348	WORD	wordpools/wasnorm_wordpool_less_exclusions.txt	LTP211	ltpFR	6	1	0	WELL	1600	n/a	n/a	1	0.57763671875	0.412841796875	1	lower	amplitud.ttf
81524	WORD	wordpools/wasnorm_wordpool_less_exclusions.txt	LTP211	ltpFR	6	1	0	BULL	193	n/a	n/a	1	0.57763671875	0.412841796875	1	lower	amplitud.ttf
85420	WORD	wordpools/wasnorm_wordpool_less_exclusions.txt	LTP211	ltpFR	6	1	0	MACHINE	852	n/a	n/a	1	0.57763671875	0.412841796875	1	lower	amplitud.ttf
89347	WORD	wordpools/wasnorm_wordpool_less_exclusions.txt	LTP211	ltpFR	6	1	1	COMPUTER	359	n/a	n/a	0	0.422607421875	0.5869140625	0	upper	zerothre.ttf
93440	WORD	wordpools/wasnorm_wordpool_less_exclusions.txt	LTP211	ltpFR	6	1	1	TURKEY	1520	n/a	n/a	1	0.422607421875	0.5869140625	0	upper	zerothre.ttf
97551	WORD	wordpools/wasnorm_wordpool_less_exclusions.txt	LTP211	ltpFR	6	1	0	MUFFIN	929	n/a	n/a	0	0.57763671875	0.412841796875	1	lower	amplitud.ttf
101711	WORD	wordpools/wasnorm_wordpool_less_exclusions.txt	LTP211	ltpFR	6	1	0	CLAW	319	n/a	n/a	0	0.57763671875	0.412841796875	1	lower	amplitud.ttf
105688	WORD	wordpools/wasnorm_wordpool_less_exclusions.txt	LTP211	ltpFR	6	1	0	COUGAR	387	n/a	n/a	1	0.57763671875	0.412841796875	1	lower	amplitud.ttf
111697	REC_START	n/a	LTP211	ltpFR	6	1	n/a	n/a	n/a	n/a	n/a	n/a	n/a	n/a	n/a	n/a	n/a
112999	REC_WORD	wordpools/wasnorm_wordpool_less_exclusions.txt	LTP211	ltpFR	6	1	1	BOYFRIEND	162	n/a	n/a	1	n/a	n/a	n/a	n/a	n/a
114151	REC_WORD	wordpools/wasnorm_wordpool_less_exclusions.txt	LTP211	ltpFR	6	1	1	OX	994	n/a	n/a	1	n/a	n/a	n/a	n/a	n/a
116641	REC_WORD	wordpools/wasnorm_wordpool_less_exclusions.txt	LTP211	ltpFR	6	1	1	GUM	672	n/a	n/a	0	n/a	n/a	n/a	n/a	n/a
118272	REC_WORD	wordpools/wasnorm_wordpool_less_exclusions.txt	LTP211	ltpFR	6	1	1	DYNAMITE	511	n/a	n/a	0	n/a	n/a	n/a	n/a	n/a
119414	REC_WORD	wordpools/wasnorm_wordpool_less_exclusions.txt	LTP211	ltpFR	6	1	1	SHACK	1273	n/a	n/a	0	n/a	n/a	n/a	n/a	n/a
120861	REC_WORD	wordpools/wasnorm_wordpool_less_exclusions.txt	LTP211	ltpFR	6	1	1	GROCERIES	663	n/a	n/a	0	n/a	n/a	n/a	n/a	n/a
123375	REC_WORD	wordpools/wasnorm_wordpool_less_exclusions.txt	LTP211	ltpFR	6	1	0	CLIPPERS	324	n/a	n/a	0	n/a	n/a	n/a	n/a	n/a
124997	REC_WORD	wordpools/wasnorm_wordpool_less_exclusions.txt	LTP211	ltpFR	6	1	0	MEAL	882	n/a	n/a	1	n/a	n/a	n/a	n/a	n/a
129576	REC_WORD	wordpools/wasnorm_wordpool_less_exclusions.txt	LTP211	ltpFR	6	1	0	WELL	1600	n/a	n/a	1	n/a	n/a	n/a	n/a	n/a
132465	REC_WORD	wordpools/wasnorm_wordpool_less_exclusions.txt	LTP211	ltpFR	6	1	0	BULL	193	n/a	n/a	1	n/a	n/a	n/a	n/a	n/a
134799	REC_WORD	wordpools/wasnorm_wordpool_less_exclusions.txt	LTP211	ltpFR	6	1	0	MACHINE	852	n/a	n/a	1	n/a	n/a	n/a	n/a	n/a
137084	REC_WORD	wordpools/wasnorm_wordpool_less_exclusions.txt	LTP211	ltpFR	6	1	1	COMPUTER	359	n/a	n/a	0	n/a	n/a	n/a	n/a	n/a
138930	REC_WORD	wordpools/wasnorm_wordpool_less_exclusions.txt	LTP211	ltpFR	6	1	1	TURKEY	1520	n/a	n/a	1	n/a	n/a	n/a	n/a	n/a
140556	REC_WORD	wordpools/wasnorm_wordpool_less_exclusions.txt	LTP211	ltpFR	6	1	0	MUFFIN	929	n/a	n/a	0	n/a	n/a	n/a	n/a	n/a
141703	REC_WORD	wordpools/wasnorm_wordpool_less_exclusions.txt	LTP211	ltpFR	6	1	0	CLAW	319	n/a	n/a	0	n/a	n/a	n/a	n/a	n/a
142838	REC_WORD	wordpools/wasnorm_wordpool_less_exclusions.txt	LTP211	ltpFR	6	1	0	COUGAR	387	n/a	n/a	1	n/a	n/a	n/a	n/a	n/a
190878	WORD	wordpools/wasnorm_wordpool_less_exclusions.txt	LTP211	ltpFR	6	2	0	ENVELOPE	537	n/a	n/a	0	0.57763671875	0.412841796875	1	lower	amplitud.ttf
194888	WORD	wordpools/wasnorm_wordpool_less_exclusions.txt	LTP211	ltpFR	6	2	0	MAILBOX	857	n/a	n/a	1	0.57763671875	0.412841796875	1	lower	amplitud.ttf
199049	WORD	wordpools/wasnorm_wordpool_less_exclusions.txt	LTP211	ltpFR	6	2	0	SPATULA	1348	n/a	n/a	0	0.57763671875	0.412841796875	1	lower	amplitud.ttf
202960	WORD	wordpools/wasnorm_wordpool_less_exclusions.txt	LTP211	ltpFR	6	2	0	CURB	426	n/a	n/a	1	0.57763671875	0.412841796875	1	lower	amplitud.ttf
206837	WORD	wordpools/wasnorm_wordpool_less_exclusions.txt	LTP211	ltpFR	6	2	1	SECRETARY	1265	n/a	n/a	1	0.422607421875	0.5869140625	0	upper	zerothre.ttf
210715	WORD	wordpools/wasnorm_wordpool_less_exclusions.txt	LTP211	ltpFR	6	2	1	EMPLOYER	532	n/a	n/a	1	0.422607421875	0.5869140625	0	upper	zerothre.ttf
214809	WORD	wordpools/wasnorm_wordpool_less_exclusions.txt	LTP211	ltpFR	6	2	0	DUNE	506	n/a	n/a	1	0.57763671875	0.412841796875	1	lower	amplitud.ttf
219002	WORD	wordpools/wasnorm_wordpool_less_exclusions.txt	LTP211	ltpFR	6	2	0	RUST	1219	n/a	n/a	1	0.57763671875	0.412841796875	1	lower	amplitud.ttf
223080	WORD	wordpools/wasnorm_wordpool_less_exclusions.txt	LTP211	ltpFR	6	2	0	FOLLOWER	589	n/a	n/a	1	0.57763671875	0.412841796875	1	lower	amplitud.ttf
227074	WORD	wordpools/wasnorm_wordpool_less_exclusions.txt	LTP211	ltpFR	6	2	0	MICROWAVE	892	n/a	n/a	1	0.57763671875	0.412841796875	1	lower	amplitud.ttf
231252	WORD	wordpools/wasnorm_wordpool_less_exclusions.txt	LTP211	ltpFR	6	2	1	IRON	744	n/a	n/a	0	0.422607421875	0.5869140625	0	upper	zerothre.ttf
235162	WORD	wordpools/wasnorm_wordpool_less_exclusions.txt	LTP211	ltpFR	6	2	1	DETECTIVE	454	n/a	n/a	1	0.422607421875	0.5869140625	0	upper	zerothre.ttf
239106	WORD	wordpools/wasnorm_wordpool_less_exclusions.txt	LTP211	ltpFR	6	2	1	BUREAU	199	n/a	n/a	0	0.422607421875	0.5869140625	0	upper	zerothre.ttf
243150	WORD	wordpools/wasnorm_wordpool_less_exclusions.txt	LTP211	ltpFR	6	2	1	LEADER	807	n/a	n/a	1	0.422607421875	0.5869140625	0	upper	zerothre.ttf
247261	WORD	wordpools/wasnorm_wordpool_less_exclusions.txt	LTP211	ltpFR	6	2	1	SICKLE	1302	n/a	n/a	0	0.422607421875	0.5869140625	0	upper	zerothre.ttf
251239	WORD	wordpools/wasnorm_wordpool_less_exclusions.txt	LTP211	ltpFR	6	2	1	RAFT	1159	n/a	n/a	0	0.422607421875	0.5869140625	0	upper	zerothre.ttf
256980	REC_START	n/a	LTP211	ltpFR	6	2	n/a	n/a	n/a	n/a	n/a	n/a	n/a	n/a	n/a	n/a	n/a
259554	REC_WORD	wordpools/wasnorm_wordpool_less_exclusions.txt	LTP211	ltpFR	6	2	0	ENVELOPE	537	n/a	n/a	0	n/a	n/a	n/a	n/a	n/a
260781	REC_WORD	wordpools/wasnorm_wordpool_less_exclusions.txt	LTP211	ltpFR	6	2	0	MAILBOX	857	n/a	n/a	1	n/a	n/a	n/a	n/a	n/a
262098	REC_WORD	wordpools/wasnorm_wordpool_less_exclusions.txt	LTP211	ltpFR	6	2	0	SPATULA	1348	n/a	n/a	0	n/a	n/a	n/a	n/a	n/a
263650	REC_WORD	wordpools/wasnorm_wordpool_less_exclusions.txt	LTP211	ltpFR	6	2	0	CURB	426	n/a	n/a	1	n/a	n/a	n/a	n/a	n/a
265081	REC_WORD	wordpools/wasnorm_wordpool_less_exclusions.txt	LTP211	ltpFR	6	2	1	SECRETARY	1265	n/a	n/a	1	n/a	n/a	n/a	n/a	n/a
266426	REC_WORD	wordpools/wasnorm_wordpool_less_exclusions.txt	LTP211	ltpFR	6	2	1	EMPLOYER	532	n/a	n/a	1	n/a	n/a	n/a	n/a	n/a
268015	REC_WORD	wordpools/wasnorm_wordpool_less_exclusions.txt	LTP211	ltpFR	6	2	0	DUNE	506	n/a	n/a	1	n/a	n/a	n/a	n/a	n/a
269336	REC_WORD	wordpools/wasnorm_wordpool_less_exclusions.txt	LTP211	ltpFR	6	2	0	RUST	1219	n/a	n/a	1	n/a	n/a	n/a	n/a	n/a
271017	REC_WORD	wordpools/wasnorm_wordpool_less_exclusions.txt	LTP211	ltpFR	6	2	0	FOLLOWER	589	n/a	n/a	1	n/a	n/a	n/a	n/a	n/a
272645	REC_WORD	wordpools/wasnorm_wordpool_less_exclusions.txt	LTP211	ltpFR	6	2	0	MICROWAVE	892	n/a	n/a	1	n/a	n/a	n/a	n/a	n/a
274695	REC_WORD	wordpools/wasnorm_wordpool_less_exclusions.txt	LTP211	ltpFR	6	2	1	IRON	744	n/a	n/a	0	n/a	n/a	n/a	n/a	n/a
275891	REC_WORD	wordpools/wasnorm_wordpool_less_exclusions.txt	LTP211	ltpFR	6	2	1	DETECTIVE	454	n/a	n/a	1	n/a	n/a	n/a	n/a	n/a
280152	REC_WORD	wordpools/wasnorm_wordpool_less_exclusions.txt	LTP211	ltpFR	6	2	1	BUREAU	199	n/a	n/a	0	n/a	n/a	n/a	n/a	n/a
282325	REC_WORD	wordpools/wasnorm_wordpool_less_exclusions.txt	LTP211	ltpFR	6	2	1	LEADER	807	n/a	n/a	1	n/a	n/a	n/a	n/a	n/a
284822	REC_WORD	wordpools/wasnorm_wordpool_less_exclusions.txt	LTP211	ltpFR	6	2	1	SICKLE	1302	n/a	n/a	0	n/a	n/a	n/a	n/a	n/a
286737	REC_WORD	wordpools/wasnorm_wordpool_less_exclusions.txt	LTP211	ltpFR	6	2	1	RAFT	1159	n/a	n/a	0	n/a	n/a	n/a	n/a	n/a
335396	WORD	wordpools/wasnorm_wordpool_less_exclusions.txt	LTP211	ltpFR	6	3	0	BUGLE	189	n/a	n/a	0	0.57763671875	0.412841796875	1	lower	amplitud.ttf
339307	WORD	wordpools/wasnorm_wordpool_less_exclusions.txt	LTP211	ltpFR	6	3	0	PUPPY	1144	n/a	n/a	1	0.57763671875	0.412841796875	1	lower	amplitud.ttf
343384	WORD	wordpools/wasnorm_wordpool_less_exclusions.txt	LTP211	ltpFR	6	3	0	AIRPORT	13	n/a	n/a	1	0.57763671875	0.412841796875	1	lower	amplitud.ttf
347494	WORD	wordpools/wasnorm_wordpool_less_exclusions.txt	LTP211	ltpFR	6	3	0	BELLY	119	n/a	n/a	1	0.57763671875	0.412841796875	1	lower	amplitud.ttf
351505	WORD	wordpools/wasnorm_wordpool_less_exclusions.txt	LTP211	ltpFR	6	3	0	ATOM	55	n/a	n/a	0	0.57763671875	0.412841796875	1	lower	amplitud.ttf
355698	WORD	wordpools/wasnorm_wordpool_less_exclusions.txt	LTP211	ltpFR	6	3	0	PAW	1029	n/a	n/a	0	0.57763671875	0.412841796875	1	lower	amplitud.ttf
359609	WORD	wordpools/wasnorm_wordpool_less_exclusions.txt	LTP211	ltpFR	6	3	0	TANGERINE	1431	n/a	n/a	0	0.57763671875	0.412841796875	1	lower	amplitud.ttf
363819	WORD	wordpools/wasnorm_wordpool_less_exclusions.txt	LTP211	ltpFR	6	3	0	CHERRY	293	n/a	n/a	0	0.57763671875	0.412841796875	1	lower	amplitud.ttf
367647	WORD	wordpools/wasnorm_wordpool_less_exclusions.txt	LTP211	ltpFR	6	3	0	WORM	1623	n/a	n/a	0	0.57763671875	0.412841796875	1	lower	amplitud.ttf
371808	WORD	wordpools/wasnorm_wordpool_less_exclusions.txt	LTP211	ltpFR	6	3	0	FIN	566	n/a	n/a	0	0.57763671875	0.412841796875	1	lower	amplitud.ttf
375635	WORD	wordpools/wasnorm_wordpool_less_exclusions.txt	LTP211	ltpFR	6	3	0	ELECTRON	522	n/a	n/a	0	0.57763671875	0.412841796875	1	lower	amplitud.ttf
379496	WORD	wordpools/wasnorm_wordpool_less_exclusions.txt	LTP211	ltpFR	6	3	0	PLIERS	1089	n/a	n/a	0	0.57763671875	0.412841796875	1	lower	amplitud.ttf
383391	WORD	wordpools/wasnorm_wordpool_less_exclusions.txt	LTP211	ltpFR	6	3	0	TOOL	1480	n/a	n/a	0	0.57763671875	0.412841796875	1	lower	amplitud.ttf
387617	WORD	wordpools/wasnorm_wordpool_less_exclusions.txt	LTP211	ltpFR	6	3	0	ZOO	1637	n/a	n/a	1	0.57763671875	0.412841796875	1	lower	amplitud.ttf
391761	WORD	wordpools/wasnorm_wordpool_less_exclusions.txt	LTP211	ltpFR	6	3	0	BANJO	82	n/a	n/a	1	0.57763671875	0.412841796875	1	lower	amplitud.ttf
395722	WORD	wordpools/wasnorm_wordpool_less_exclusions.txt	LTP211	ltpFR	6	3	0	VETERAN	1561	n/a	n/a	1	0.57763671875	0.412841796875	1	lower	amplitud.ttf
401730	REC_START	n/a	LTP211	ltpFR	6	3	n/a	n/a	n/a	n/a	n/a	n/a	n/a	n/a	n/a	n/a	n/a
405691	REC_WORD	wordpools/wasnorm_wordpool_less_exclusions.txt	LTP211	ltpFR	6	3	0	BUGLE	189	n/a	n/a	0	n/a	n/a	n/a	n/a	n/a
406878	REC_WORD	wordpools/wasnorm_wordpool_less_exclusions.txt	LTP211	ltpFR	6	3	0	PUPPY	1144	n/a	n/a	1	n/a	n/a	n/a	n/a	n/a
408440	REC_WORD	wordpools/wasnorm_wordpool_less_exclusions.txt	LTP211	ltpFR	6	3	0	AIRPORT	13	n/a	n/a	1	n/a	n/a	n/a	n/a	n/a
412600	REC_WORD	wordpools/wasnorm_wordpool_less_exclusions.txt	LTP211	ltpFR	6	3	0	BELLY	119	n/a	n/a	1	n/a	n/a	n/a	n/a	n/a
413912	REC_WORD	wordpools/wasnorm_wordpool_less_exclusions.txt	LTP211	ltpFR	6	3	0	ATOM	55	n/a	n/a	0	n/a	n/a	n/a	n/a	n/a
416222	REC_WORD	wordpools/wasnorm_wordpool_less_exclusions.txt	LTP211	ltpFR	6	3	0	PAW	1029	n/a	n/a	0	n/a	n/a	n/a	n/a	n/a
418956	REC_WORD	wordpools/wasnorm_wordpool_less_exclusions.txt	LTP211	ltpFR	6	3	0	TANGERINE	1431	n/a	n/a	0	n/a	n/a	n/a	n/a	n/a
420228	REC_WORD	wordpools/wasnorm_wordpool_less_exclusions.txt	LTP211	ltpFR	6	3	0	CHERRY	293	n/a	n/a	0	n/a	n/a	n/a	n/a	n/a
421310	REC_WORD	wordpools/wasnorm_wordpool_less_exclusions.txt	LTP211	ltpFR	6	3	0	WORM	1623	n/a	n/a	0	n/a	n/a	n/a	n/a	n/a
424189	REC_WORD	wordpools/wasnorm_wordpool_less_exclusions.txt	LTP211	ltpFR	6	3	0	FIN	566	n/a	n/a	0	n/a	n/a	n/a	n/a	n/a
425616	REC_WORD	wordpools/wasnorm_wordpool_less_exclusions.txt	LTP211	ltpFR	6	3	0	ELECTRON	522	n/a	n/a	0	n/a	n/a	n/a	n/a	n/a
426821	REC_WORD	wordpools/wasnorm_wordpool_less_exclusions.txt	LTP211	ltpFR	6	3	0	PLIERS	1089	n/a	n/a	0	n/a	n/a	n/a	n/a	n/a
428584	REC_WORD	wordpools/wasnorm_wordpool_less_exclusions.txt	LTP211	ltpFR	6	3	0	TOOL	1480	n/a	n/a	0	n/a	n/a	n/a	n/a	n/a
431442	REC_WORD	wordpools/wasnorm_wordpool_less_exclusions.txt	LTP211	ltpFR	6	3	0	ZOO	1637	n/a	n/a	1	n/a	n/a	n/a	n/a	n/a
432480	REC_WORD	wordpools/wasnorm_wordpool_less_exclusions.txt	LTP211	ltpFR	6	3	0	BANJO	82	n/a	n/a	1	n/a	n/a	n/a	n/a	n/a
433513	REC_WORD	wordpools/wasnorm_wordpool_less_exclusions.txt	LTP211	ltpFR	6	3	0	VETERAN	1561	n/a	n/a	1	n/a	n/a	n/a	n/a	n/a
484622	WORD	wordpools/wasnorm_wordpool_less_exclusions.txt	LTP211	ltpFR	6	4	0	FIST	572	n/a	n/a	0	0.57763671875	0.412841796875	1	lower	amplitud.ttf
488733	WORD	wordpools/wasnorm_wordpool_less_exclusions.txt	LTP211	ltpFR	6	4	0	BEAVER	109	n/a	n/a	1	0.57763671875	0.412841796875	1	lower	amplitud.ttf
492627	WORD	wordpools/wasnorm_wordpool_less_exclusions.txt	LTP211	ltpFR	6	4	1	CAGE	218	n/a	n/a	0	0.422607421875	0.5869140625	0	upper	zerothre.ttf
496837	WORD	wordpools/wasnorm_wordpool_less_exclusions.txt	LTP211	ltpFR	6	4	1	MAMMAL	861	n/a	n/a	1	0.422607421875	0.5869140625	0	upper	zerothre.ttf
500665	WORD	wordpools/wasnorm_wordpool_less_exclusions.txt	LTP211	ltpFR	6	4	1	PUDDLE	1140	n/a	n/a	0	0.422607421875	0.5869140625	0	upper	zerothre.ttf
504526	WORD	wordpools/wasnorm_wordpool_less_exclusions.txt	LTP211	ltpFR	6	4	1	WALL	1582	n/a	n/a	0	0.422607421875	0.5869140625	0	upper	zerothre.ttf
508388	WORD	wordpools/wasnorm_wordpool_less_exclusions.txt	LTP211	ltpFR	6	4	1	PADDING	999	n/a	n/a	0	0.422607421875	0.5869140625	0	upper	zerothre.ttf
512547	WORD	wordpools/wasnorm_wordpool_less_exclusions.txt	LTP211	ltpFR	6	4	0	COTTON	385	n/a	n/a	0	0.57763671875	0.412841796875	1	lower	amplitud.ttf
516758	WORD	wordpools/wasnorm_wordpool_less_exclusions.txt	LTP211	ltpFR	6	4	0	TRAITOR	1495	n/a	n/a	1	0.57763671875	0.412841796875	1	lower	amplitud.ttf
520951	WORD	wordpools/wasnorm_wordpool_less_exclusions.txt	LTP211	ltpFR	6	4	0	CARPET	247	n/a	n/a	1	0.57763671875	0.412841796875	1	lower	amplitud.ttf
525145	WORD	wordpools/wasnorm_wordpool_less_exclusions.txt	LTP211	ltpFR	6	4	0	TACK	1428	n/a	n/a	0	0.57763671875	0.412841796875	1	lower	amplitud.ttf
528973	WORD	wordpools/wasnorm_wordpool_less_exclusions.txt	LTP211	ltpFR	6	4	1	PELICAN	1039	n/a	n/a	1	0.422607421875	0.5869140625	0	upper	zerothre.ttf
532950	WORD	wordpools/wasnorm_wordpool_less_exclusions.txt	LTP211	ltpFR	6	4	1	BUTTERFLY	206	n/a	n/a	1	0.422607421875	0.5869140625	0	upper	zerothre.ttf
536994	WORD	wordpools/wasnorm_wordpool_less_exclusions.txt	LTP211	ltpFR	6	4	1	CAPTAIN	239	n/a	n/a	1	0.422607421875	0.5869140625	0	upper	zerothre.ttf
541005	WORD	wordpools/wasnorm_wordpool_less_exclusions.txt	LTP211	ltpFR	6	4	0	YACHT	1629	n/a	n/a	1	0.57763671875	0.412841796875	1	lower	amplitud.ttf
544932	WORD	wordpools/wasnorm_wordpool_less_exclusions.txt	LTP211	ltpFR	6	4	0	BROOK	177	n/a	n/a	1	0.57763671875	0.412841796875	1	lower	amplitud.ttf
550891	REC_START	n/a	LTP211	ltpFR	6	4	n/a	n/a	n/a	n/a	n/a	n/a	n/a	n/a	n/a	n/a	n/a
552984	REC_WORD	wordpools/wasnorm_wordpool_less_exclusions.txt	LTP211	ltpFR	6	4	0	FIST	572	n/a	n/a	0	n/a	n/a	n/a	n/a	n/a
554388	REC_WORD	wordpools/wasnorm_wordpool_less_exclusions.txt	LTP211	ltpFR	6	4	0	BEAVER	109	n/a	n/a	1	n/a	n/a	n/a	n/a	n/a
555430	REC_WORD	wordpools/wasnorm_wordpool_less_exclusions.txt	LTP211	ltpFR	6	4	1	CAGE	218	n/a	n/a	0	n/a	n/a	n/a	n/a	n/a
556673	REC_WORD	wordpools/wasnorm_wordpool_less_exclusions.txt	LTP211	ltpFR	6	4	1	MAMMAL	861	n/a	n/a	1	n/a	n/a	n/a	n/a	n/a
557785	REC_WORD	wordpools/wasnorm_wordpool_less_exclusions.txt	LTP211	ltpFR	6	4	1	PUDDLE	1140	n/a	n/a	0	n/a	n/a	n/a	n/a	n/a
559077	REC_WORD	wordpools/wasnorm_wordpool_less_exclusions.txt	LTP211	ltpFR	6	4	1	WALL	1582	n/a	n/a	0	n/a	n/a	n/a	n/a	n/a
560130	REC_WORD	wordpools/wasnorm_wordpool_less_exclusions.txt	LTP211	ltpFR	6	4	1	PADDING	999	n/a	n/a	0	n/a	n/a	n/a	n/a	n/a
561397	REC_WORD	wordpools/wasnorm_wordpool_less_exclusions.txt	LTP211	ltpFR	6	4	0	COTTON	385	n/a	n/a	0	n/a	n/a	n/a	n/a	n/a
563437	REC_WORD	wordpools/wasnorm_wordpool_less_exclusions.txt	LTP211	ltpFR	6	4	0	TRAITOR	1495	n/a	n/a	1	n/a	n/a	n/a	n/a	n/a
570791	REC_WORD	wordpools/wasnorm_wordpool_less_exclusions.txt	LTP211	ltpFR	6	4	0	CARPET	247	n/a	n/a	1	n/a	n/a	n/a	n/a	n/a
572841	REC_WORD	wordpools/wasnorm_wordpool_less_exclusions.txt	LTP211	ltpFR	6	4	0	TACK	1428	n/a	n/a	0	n/a	n/a	n/a	n/a	n/a
574382	REC_WORD	wordpools/wasnorm_wordpool_less_exclusions.txt	LTP211	ltpFR	6	4	1	PELICAN	1039	n/a	n/a	1	n/a	n/a	n/a	n/a	n/a
575919	REC_WORD	wordpools/wasnorm_wordpool_less_exclusions.txt	LTP211	ltpFR	6	4	1	BUTTERFLY	206	n/a	n/a	1	n/a	n/a	n/a	n/a	n/a
577031	REC_WORD	wordpools/wasnorm_wordpool_less_exclusions.txt	LTP211	ltpFR	6	4	1	CAPTAIN	239	n/a	n/a	1	n/a	n/a	n/a	n/a	n/a
578902	REC_WORD	wordpools/wasnorm_wordpool_less_exclusions.txt	LTP211	ltpFR	6	4	0	YACHT	1629	n/a	n/a	1	n/a	n/a	n/a	n/a	n/a
580811	REC_WORD	wordpools/wasnorm_wordpool_less_exclusions.txt	LTP211	ltpFR	6	4	0	BROOK	177	n/a	n/a	1	n/a	n/a	n/a	n/a	n/a
635730	WORD	wordpools/wasnorm_wordpool_less_exclusions.txt	LTP211	ltpFR	6	5	1	SUPERMARKET	1409	n/a	n/a	1	0.422607421875	0.5869140625	0	upper	zerothre.ttf
639940	WORD	wordpools/wasnorm_wordpool_less_exclusions.txt	LTP211	ltpFR	6	5	1	SOFA	1342	n/a	n/a	0	0.422607421875	0.5869140625	0	upper	zerothre.ttf
643918	WORD	wordpools/wasnorm_wordpool_less_exclusions.txt	LTP211	ltpFR	6	5	1	MOON	914	n/a	n/a	0	0.422607421875	0.5869140625	0	upper	zerothre.ttf
647895	WORD	wordpools/wasnorm_wordpool_less_exclusions.txt	LTP211	ltpFR	6	5	1	STAR	1373	n/a	n/a	0	0.422607421875	0.5869140625	0	upper	zerothre.ttf
652006	WORD	wordpools/wasnorm_wordpool_less_exclusions.txt	LTP211	ltpFR	6	5	1	SEAFOOD	1260	n/a	n/a	0	0.422607421875	0.5869140625	0	upper	zerothre.ttf
655983	WORD	wordpools/wasnorm_wordpool_less_exclusions.txt	LTP211	ltpFR	6	5	1	SANDWICH	1232	n/a	n/a	0	0.422607421875	0.5869140625	0	upper	zerothre.ttf
659977	WORD	wordpools/wasnorm_wordpool_less_exclusions.txt	LTP211	ltpFR	6	5	1	RESTAURANT	1187	n/a	n/a	0	0.422607421875	0.5869140625	0	upper	zerothre.ttf
664088	WORD	wordpools/wasnorm_wordpool_less_exclusions.txt	LTP211	ltpFR	6	5	1	DUSTPAN	509	n/a	n/a	0	0.422607421875	0.5869140625	0	upper	zerothre.ttf
668232	WORD	wordpools/wasnorm_wordpool_less_exclusions.txt	LTP211	ltpFR	6	5	1	BARRACUDA	90	n/a	n/a	1	0.422607421875	0.5869140625	0	upper	zerothre.ttf
672410	WORD	wordpools/wasnorm_wordpool_less_exclusions.txt	LTP211	ltpFR	6	5	1	BEARD	107	n/a	n/a	0	0.422607421875	0.5869140625	0	upper	zerothre.ttf
676519	WORD	wordpools/wasnorm_wordpool_less_exclusions.txt	LTP211	ltpFR	6	5	1	HEADBAND	696	n/a	n/a	0	0.422607421875	0.5869140625	0	upper	zerothre.ttf
680613	WORD	wordpools/wasnorm_wordpool_less_exclusions.txt	LTP211	ltpFR	6	5	1	LIVER	833	n/a	n/a	0	0.422607421875	0.5869140625	0	upper	zerothre.ttf
684557	WORD	wordpools/wasnorm_wordpool_less_exclusions.txt	LTP211	ltpFR	6	5	1	SIBLING	1301	n/a	n/a	1	0.422607421875	0.5869140625	0	upper	zerothre.ttf
688668	WORD	wordpools/wasnorm_wordpool_less_exclusions.txt	LTP211	ltpFR	6	5	1	VISITOR	1573	n/a	n/a	1	0.422607421875	0.5869140625	0	upper	zerothre.ttf
692695	WORD	wordpools/wasnorm_wordpool_less_exclusions.txt	LTP211	ltpFR	6	5	1	PARROT	1015	n/a	n/a	0	0.422607421875	0.5869140625	0	upper	zerothre.ttf
696523	WORD	wordpools/wasnorm_wordpool_less_exclusions.txt	LTP211	ltpFR	6	5	1	GRILL	661	n/a	n/a	0	0.422607421875	0.5869140625	0	upper	zerothre.ttf
702498	REC_START	n/a	LTP211	ltpFR	6	5	n/a	n/a	n/a	n/a	n/a	n/a	n/a	n/a	n/a	n/a	n/a
703989	REC_WORD	wordpools/wasnorm_wordpool_less_exclusions.txt	LTP211	ltpFR	6	5	1	SUPERMARKET	1409	n/a	n/a	1	n/a	n/a	n/a	n/a	n/a
705241	REC_WORD	wordpools/wasnorm_wordpool_less_exclusions.txt	LTP211	ltpFR	6	5	1	SOFA	1342	n/a	n/a	0	n/a	n/a	n/a	n/a	n/a
706698	REC_WORD	wordpools/wasnorm_wordpool_less_exclusions.txt	LTP211	ltpFR	6	5	1	MOON	914	n/a	n/a	0	n/a	n/a	n/a	n/a	n/a
707794	REC_WORD	wordpools/wasnorm_wordpool_less_exclusions.txt	LTP211	ltpFR	6	5	1	STAR	1373	n/a	n/a	0	n/a	n/a	n/a	n/a	n/a
709616	REC_WORD	wordpools/wasnorm_wordpool_less_exclusions.txt	LTP211	ltpFR	6	5	1	SEAFOOD	1260	n/a	n/a	0	n/a	n/a	n/a	n/a	n/a
711081	REC_WORD	wordpools/wasnorm_wordpool_less_exclusions.txt	LTP211	ltpFR	6	5	1	SANDWICH	1232	n/a	n/a	0	n/a	n/a	n/a	n/a	n/a
713089	REC_WORD	wordpools/wasnorm_wordpool_less_exclusions.txt	LTP211	ltpFR	6	5	1	RESTAURANT	1187	n/a	n/a	0	n/a	n/a	n/a	n/a	n/a
714885	REC_WORD	wordpools/wasnorm_wordpool_less_exclusions.txt	LTP211	ltpFR	6	5	1	DUSTPAN	509	n/a	n/a	0	n/a	n/a	n/a	n/a	n/a
716860	REC_WORD	wordpools/wasnorm_wordpool_less_exclusions.txt	LTP211	ltpFR	6	5	1	BARRACUDA	90	n/a	n/a	1	n/a	n/a	n/a	n/a	n/a
718751	REC_WORD	wordpools/wasnorm_wordpool_less_exclusions.txt	LTP211	ltpFR	6	5	1	BEARD	107	n/a	n/a	0	n/a	n/a	n/a	n/a	n/a
719798	REC_WORD	wordpools/wasnorm_wordpool_less_exclusions.txt	LTP211	ltpFR	6	5	1	HEADBAND	696	n/a	n/a	0	n/a	n/a	n/a	n/a	n/a
722049	REC_WORD	wordpools/wasnorm_wordpool_less_exclusions.txt	LTP211	ltpFR	6	5	1	SIBLING	1301	n/a	n/a	1	n/a	n/a	n/a	n/a	n/a
724657	REC_WORD	wordpools/wasnorm_wordpool_less_exclusions.txt	LTP211	ltpFR	6	5	1	VISITOR	1573	n/a	n/a	1	n/a	n/a	n/a	n/a	n/a
725680	REC_WORD	wordpools/wasnorm_wordpool_less_exclusions.txt	LTP211	ltpFR	6	5	1	PARROT	1015	n/a	n/a	0	n/a	n/a	n/a	n/a	n/a
728219	REC_WORD	wordpools/wasnorm_wordpool_less_exclusions.txt	LTP211	ltpFR	6	5	1	GRILL	661	n/a	n/a	0	n/a	n/a	n/a	n/a	n/a
754891	REC_WORD	wordpools/wasnorm_wordpool_less_exclusions.txt	LTP211	ltpFR	6	5	1	SIBLING	1301	n/a	n/a	1	n/a	n/a	n/a	n/a	n/a
784441	WORD	wordpools/wasnorm_wordpool_less_exclusions.txt	LTP211	ltpFR	6	6	-1	MINT	898	n/a	n/a	-1	1.0	1.0	1	upper	Verdana.ttf
788618	WORD	wordpools/wasnorm_wordpool_less_exclusions.txt	LTP211	ltpFR	6	6	-1	CALF	222	n/a	n/a	-1	1.0	1.0	1	upper	Verdana.ttf
792562	WORD	wordpools/wasnorm_wordpool_less_exclusions.txt	LTP211	ltpFR	6	6	-1	HIGHWAY	707	n/a	n/a	-1	1.0	1.0	1	upper	Verdana.ttf
796457	WORD	wordpools/wasnorm_wordpool_less_exclusions.txt	LTP211	ltpFR	6	6	-1	BABY	64	n/a	n/a	-1	1.0	1.0	1	upper	Verdana.ttf
800451	WORD	wordpools/wasnorm_wordpool_less_exclusions.txt	LTP211	ltpFR	6	6	-1	DIME	466	n/a	n/a	-1	1.0	1.0	1	upper	Verdana.ttf
804644	WORD	wordpools/wasnorm_wordpool_less_exclusions.txt	LTP211	ltpFR	6	6	-1	CATTLE	261	n/a	n/a	-1	1.0	1.0	1	upper	Verdana.ttf
808672	WORD	wordpools/wasnorm_wordpool_less_exclusions.txt	LTP211	ltpFR	6	6	-1	COUNTRY	388	n/a	n/a	-1	1.0	1.0	1	upper	Verdana.ttf
812865	WORD	wordpools/wasnorm_wordpool_less_exclusions.txt	LTP211	ltpFR	6	6	-1	ANT	25	n/a	n/a	-1	1.0	1.0	1	upper	Verdana.ttf
816843	WORD	wordpools/wasnorm_wordpool_less_exclusions.txt	LTP211	ltpFR	6	6	-1	MOSQUITO	917	n/a	n/a	-1	1.0	1.0	1	upper	Verdana.ttf
820903	WORD	wordpools/wasnorm_wordpool_less_exclusions.txt	LTP211	ltpFR	6	6	-1	ATTORNEY	58	n/a	n/a	-1	1.0	1.0	1	upper	Verdana.ttf
825014	WORD	wordpools/wasnorm_wordpool_less_exclusions.txt	LTP211	ltpFR	6	6	-1	SISTER	1312	n/a	n/a	-1	1.0	1.0	1	upper	Verdana.ttf
829124	WORD	wordpools/wasnorm_wordpool_less_exclusions.txt	LTP211	ltpFR	6	6	-1	BRIEFCASE	175	n/a	n/a	-1	1.0	1.0	1	upper	Verdana.ttf
833152	WORD	wordpools/wasnorm_wordpool_less_exclusions.txt	LTP211	ltpFR	6	6	-1	PAPER	1011	n/a	n/a	-1	1.0	1.0	1	upper	Verdana.ttf
837330	WORD	wordpools/wasnorm_wordpool_less_exclusions.txt	LTP211	ltpFR	6	6	-1	MARKER	870	n/a	n/a	-1	1.0	1.0	1	upper	Verdana.ttf
841523	WORD	wordpools/wasnorm_wordpool_less_exclusions.txt	LTP211	ltpFR	6	6	-1	SCROLL	1257	n/a	n/a	-1	1.0	1.0	1	upper	Verdana.ttf
845716	WORD	wordpools/wasnorm_wordpool_less_exclusions.txt	LTP211	ltpFR	6	6	-1	TART	1436	n/a	n/a	-1	1.0	1.0	1	upper	Verdana.ttf
851592	REC_START	n/a	LTP211	ltpFR	6	6	n/a	n/a	n/a	n/a	n/a	n/a	n/a	n/a	n/a	n/a	n/a
853183	REC_WORD	wordpools/wasnorm_wordpool_less_exclusions.txt	LTP211	ltpFR	6	6	-1	MINT	898	n/a	n/a	-1	n/a	n/a	n/a	n/a	n/a
854650	REC_WORD	wordpools/wasnorm_wordpool_less_exclusions.txt	LTP211	ltpFR	6	6	-1	CALF	222	n/a	n/a	-1	n/a	n/a	n/a	n/a	n/a
855977	REC_WORD	wordpools/wasnorm_wordpool_less_exclusions.txt	LTP211	ltpFR	6	6	-1	HIGHWAY	707	n/a	n/a	-1	n/a	n/a	n/a	n/a	n/a
858775	REC_WORD	wordpools/wasnorm_wordpool_less_exclusions.txt	LTP211	ltpFR	6	6	-1	BABY	64	n/a	n/a	-1	n/a	n/a	n/a	n/a	n/a
860327	REC_WORD	wordpools/wasnorm_wordpool_less_exclusions.txt	LTP211	ltpFR	6	6	-1	DIME	466	n/a	n/a	-1	n/a	n/a	n/a	n/a	n/a
862405	REC_WORD	wordpools/wasnorm_wordpool_less_exclusions.txt	LTP211	ltpFR	6	6	-1	CATTLE	261	n/a	n/a	-1	n/a	n/a	n/a	n/a	n/a
864148	REC_WORD	wordpools/wasnorm_wordpool_less_exclusions.txt	LTP211	ltpFR	6	6	-1	COUNTRY	388	n/a	n/a	-1	n/a	n/a	n/a	n/a	n/a
866508	REC_WORD	wordpools/wasnorm_wordpool_less_exclusions.txt	LTP211	ltpFR	6	6	-1	ANT	25	n/a	n/a	-1	n/a	n/a	n/a	n/a	n/a
867723	REC_WORD	wordpools/wasnorm_wordpool_less_exclusions.txt	LTP211	ltpFR	6	6	-1	MOSQUITO	917	n/a	n/a	-1	n/a	n/a	n/a	n/a	n/a
869820	REC_WORD	wordpools/wasnorm_wordpool_less_exclusions.txt	LTP211	ltpFR	6	6	-1	ATTORNEY	58	n/a	n/a	-1	n/a	n/a	n/a	n/a	n/a
871469	REC_WORD	wordpools/wasnorm_wordpool_less_exclusions.txt	LTP211	ltpFR	6	6	-1	SISTER	1312	n/a	n/a	-1	n/a	n/a	n/a	n/a	n/a
873108	REC_WORD	wordpools/wasnorm_wordpool_less_exclusions.txt	LTP211	ltpFR	6	6	-1	BRIEFCASE	175	n/a	n/a	-1	n/a	n/a	n/a	n/a	n/a
875118	REC_WORD	wordpools/wasnorm_wordpool_less_exclusions.txt	LTP211	ltpFR	6	6	-1	PAPER	1011	n/a	n/a	-1	n/a	n/a	n/a	n/a	n/a
877157	REC_WORD	wordpools/wasnorm_wordpool_less_exclusions.txt	LTP211	ltpFR	6	6	-1	MARKER	870	n/a	n/a	-1	n/a	n/a	n/a	n/a	n/a
878860	REC_WORD	wordpools/wasnorm_wordpool_less_exclusions.txt	LTP211	ltpFR	6	6	-1	SCROLL	1257	n/a	n/a	-1	n/a	n/a	n/a	n/a	n/a
882646	REC_WORD	wordpools/wasnorm_wordpool_less_exclusions.txt	LTP211	ltpFR	6	6	-1	TART	1436	n/a	n/a	-1	n/a	n/a	n/a	n/a	n/a
930590	WORD	wordpools/wasnorm_wordpool_less_exclusions.txt	LTP211	ltpFR	6	7	1	PREACHER	1119	n/a	n/a	1	0.422607421875	0.5869140625	0	upper	zerothre.ttf
934767	WORD	wordpools/wasnorm_wordpool_less_exclusions.txt	LTP211	ltpFR	6	7	1	SCOUT	1252	n/a	n/a	1	0.422607421875	0.5869140625	0	upper	zerothre.ttf
938611	WORD	wordpools/wasnorm_wordpool_less_exclusions.txt	LTP211	ltpFR	6	7	0	AUDIENCE	59	n/a	n/a	1	0.57763671875	0.412841796875	1	lower	amplitud.ttf
942638	WORD	wordpools/wasnorm_wordpool_less_exclusions.txt	LTP211	ltpFR	6	7	0	RIB	1188	n/a	n/a	0	0.57763671875	0.412841796875	1	lower	amplitud.ttf
946666	WORD	wordpools/wasnorm_wordpool_less_exclusions.txt	LTP211	ltpFR	6	7	0	ANIMAL	23	n/a	n/a	1	0.57763671875	0.412841796875	1	lower	amplitud.ttf
950676	WORD	wordpools/wasnorm_wordpool_less_exclusions.txt	LTP211	ltpFR	6	7	0	RUNNER	1218	n/a	n/a	1	0.57763671875	0.412841796875	1	lower	amplitud.ttf
954803	WORD	wordpools/wasnorm_wordpool_less_exclusions.txt	LTP211	ltpFR	6	7	1	ALLEY	15	n/a	n/a	0	0.422607421875	0.5869140625	0	upper	zerothre.ttf
958664	WORD	wordpools/wasnorm_wordpool_less_exclusions.txt	LTP211	ltpFR	6	7	1	MEAT	883	n/a	n/a	0	0.422607421875	0.5869140625	0	upper	zerothre.ttf
962825	WORD	wordpools/wasnorm_wordpool_less_exclusions.txt	LTP211	ltpFR	6	7	0	GLOVE	642	n/a	n/a	0	0.57763671875	0.412841796875	1	lower	amplitud.ttf
966802	WORD	wordpools/wasnorm_wordpool_less_exclusions.txt	LTP211	ltpFR	6	7	0	PARCEL	1012	n/a	n/a	0	0.57763671875	0.412841796875	1	lower	amplitud.ttf
970630	WORD	wordpools/wasnorm_wordpool_less_exclusions.txt	LTP211	ltpFR	6	7	0	SIDEWALK	1303	n/a	n/a	1	0.57763671875	0.412841796875	1	lower	amplitud.ttf
974541	WORD	wordpools/wasnorm_wordpool_less_exclusions.txt	LTP211	ltpFR	6	7	0	TAR	1435	n/a	n/a	1	0.57763671875	0.412841796875	1	lower	amplitud.ttf
978485	WORD	wordpools/wasnorm_wordpool_less_exclusions.txt	LTP211	ltpFR	6	7	1	BANNER	85	n/a	n/a	0	0.422607421875	0.5869140625	0	upper	zerothre.ttf
982462	WORD	wordpools/wasnorm_wordpool_less_exclusions.txt	LTP211	ltpFR	6	7	1	WAVE	1596	n/a	n/a	0	0.422607421875	0.5869140625	0	upper	zerothre.ttf
986622	WORD	wordpools/wasnorm_wordpool_less_exclusions.txt	LTP211	ltpFR	6	7	1	TOENAIL	1474	n/a	n/a	0	0.422607421875	0.5869140625	0	upper	zerothre.ttf
990816	WORD	wordpools/wasnorm_wordpool_less_exclusions.txt	LTP211	ltpFR	6	7	1	DEER	444	n/a	n/a	1	0.422607421875	0.5869140625	0	upper	zerothre.ttf
996841	REC_START	n/a	LTP211	ltpFR	6	7	n/a	n/a	n/a	n/a	n/a	n/a	n/a	n/a	n/a	n/a	n/a
998502	REC_WORD	wordpools/wasnorm_wordpool_less_exclusions.txt	LTP211	ltpFR	6	7	1	PREACHER	1119	n/a	n/a	1	n/a	n/a	n/a	n/a	n/a
999485	REC_WORD	wordpools/wasnorm_wordpool_less_exclusions.txt	LTP211	ltpFR	6	7	1	SCOUT	1252	n/a	n/a	1	n/a	n/a	n/a	n/a	n/a
1001016	REC_WORD	wordpools/wasnorm_wordpool_less_exclusions.txt	LTP211	ltpFR	6	7	0	AUDIENCE	59	n/a	n/a	1	n/a	n/a	n/a	n/a	n/a
1002049	REC_WORD	wordpools/wasnorm_wordpool_less_exclusions.txt	LTP211	ltpFR	6	7	0	RIB	1188	n/a	n/a	0	n/a	n/a	n/a	n/a	n/a
1004114	REC_WORD	wordpools/wasnorm_wordpool_less_exclusions.txt	LTP211	ltpFR	6	7	0	ANIMAL	23	n/a	n/a	1	n/a	n/a	n/a	n/a	n/a
1005785	REC_WORD	wordpools/wasnorm_wordpool_less_exclusions.txt	LTP211	ltpFR	6	7	0	RUNNER	1218	n/a	n/a	1	n/a	n/a	n/a	n/a	n/a
1007380	REC_WORD	wordpools/wasnorm_wordpool_less_exclusions.txt	LTP211	ltpFR	6	7	1	ALLEY	15	n/a	n/a	0	n/a	n/a	n/a	n/a	n/a
1008754	REC_WORD	wordpools/wasnorm_wordpool_less_exclusions.txt	LTP211	ltpFR	6	7	1	MEAT	883	n/a	n/a	0	n/a	n/a	n/a	n/a	n/a
1011502	REC_WORD	wordpools/wasnorm_wordpool_less_exclusions.txt	LTP211	ltpFR	6	7	0	PARCEL	1012	n/a	n/a	0	n/a	n/a	n/a	n/a	n/a
1013139	REC_WORD	wordpools/wasnorm_wordpool_less_exclusions.txt	LTP211	ltpFR	6	7	0	GLOVE	642	n/a	n/a	0	n/a	n/a	n/a	n/a	n/a
1014725	REC_WORD	wordpools/wasnorm_wordpool_less_exclusions.txt	LTP211	ltpFR	6	7	0	SIDEWALK	1303	n/a	n/a	1	n/a	n/a	n/a	n/a	n/a
1016741	REC_WORD	wordpools/wasnorm_wordpool_less_exclusions.txt	LTP211	ltpFR	6	7	1	BANNER	85	n/a	n/a	0	n/a	n/a	n/a	n/a	n/a
1017987	REC_WORD	wordpools/wasnorm_wordpool_less_exclusions.txt	LTP211	ltpFR	6	7	1	WAVE	1596	n/a	n/a	0	n/a	n/a	n/a	n/a	n/a
1020267	REC_WORD	wordpools/wasnorm_wordpool_less_exclusions.txt	LTP211	ltpFR	6	7	1	TOENAIL	1474	n/a	n/a	0	n/a	n/a	n/a	n/a	n/a
1021784	REC_WORD	wordpools/wasnorm_wordpool_less_exclusions.txt	LTP211	ltpFR	6	7	1	DEER	444	n/a	n/a	1	n/a	n/a	n/a	n/a	n/a
1033582	REC_WORD	wordpools/wasnorm_wordpool_less_exclusions.txt	LTP211	ltpFR	6	7	0	TAR	1435	n/a	n/a	1	n/a	n/a	n/a	n/a	n/a
1076555	WORD	wordpools/wasnorm_wordpool_less_exclusions.txt	LTP211	ltpFR	6	8	-1	SQUID	1361	n/a	n/a	-1	1.0	1.0	1	upper	Verdana.ttf
1080732	WORD	wordpools/wasnorm_wordpool_less_exclusions.txt	LTP211	ltpFR	6	8	-1	STAPLE	1371	n/a	n/a	-1	1.0	1.0	1	upper	Verdana.ttf
1084560	WORD	wordpools/wasnorm_wordpool_less_exclusions.txt	LTP211	ltpFR	6	8	-1	LILY	821	n/a	n/a	-1	1.0	1.0	1	upper	Verdana.ttf
1088603	WORD	wordpools/wasnorm_wordpool_less_exclusions.txt	LTP211	ltpFR	6	8	-1	SHELTER	1282	n/a	n/a	-1	1.0	1.0	1	upper	Verdana.ttf
1092531	WORD	wordpools/wasnorm_wordpool_less_exclusions.txt	LTP211	ltpFR	6	8	-1	DORM	488	n/a	n/a	-1	1.0	1.0	1	upper	Verdana.ttf
1096658	WORD	wordpools/wasnorm_wordpool_less_exclusions.txt	LTP211	ltpFR	6	8	-1	SHIP	1286	n/a	n/a	-1	1.0	1.0	1	upper	Verdana.ttf
1100569	WORD	wordpools/wasnorm_wordpool_less_exclusions.txt	LTP211	ltpFR	6	8	-1	VESSEL	1558	n/a	n/a	-1	1.0	1.0	1	upper	Verdana.ttf
1104431	WORD	wordpools/wasnorm_wordpool_less_exclusions.txt	LTP211	ltpFR	6	8	-1	ELEVATOR	524	n/a	n/a	-1	1.0	1.0	1	upper	Verdana.ttf
1108490	WORD	wordpools/wasnorm_wordpool_less_exclusions.txt	LTP211	ltpFR	6	8	-1	SCALPEL	1243	n/a	n/a	-1	1.0	1.0	1	upper	Verdana.ttf
1112651	WORD	wordpools/wasnorm_wordpool_less_exclusions.txt	LTP211	ltpFR	6	8	-1	NEPHEW	942	n/a	n/a	-1	1.0	1.0	1	upper	Verdana.ttf
1116578	WORD	wordpools/wasnorm_wordpool_less_exclusions.txt	LTP211	ltpFR	6	8	-1	DOCUMENT	479	n/a	n/a	-1	1.0	1.0	1	upper	Verdana.ttf
1120424	WORD	wordpools/wasnorm_wordpool_less_exclusions.txt	LTP211	ltpFR	6	8	-1	CHAMBER	277	n/a	n/a	-1	1.0	1.0	1	upper	Verdana.ttf
1124418	WORD	wordpools/wasnorm_wordpool_less_exclusions.txt	LTP211	ltpFR	6	8	-1	STEREO	1378	n/a	n/a	-1	1.0	1.0	1	upper	Verdana.ttf
1128494	WORD	wordpools/wasnorm_wordpool_less_exclusions.txt	LTP211	ltpFR	6	8	-1	STREAM	1392	n/a	n/a	-1	1.0	1.0	1	upper	Verdana.ttf
1132604	WORD	wordpools/wasnorm_wordpool_less_exclusions.txt	LTP211	ltpFR	6	8	-1	PLANT	1083	n/a	n/a	-1	1.0	1.0	1	upper	Verdana.ttf
1136732	WORD	wordpools/wasnorm_wordpool_less_exclusions.txt	LTP211	ltpFR	6	8	-1	BATH	98	n/a	n/a	-1	1.0	1.0	1	upper	Verdana.ttf
1142574	REC_START	n/a	LTP211	ltpFR	6	8	n/a	n/a	n/a	n/a	n/a	n/a	n/a	n/a	n/a	n/a	n/a
1143516	REC_WORD	wordpools/wasnorm_wordpool_less_exclusions.txt	LTP211	ltpFR	6	8	-1	SQUID	1361	n/a	n/a	-1	n/a	n/a	n/a	n/a	n/a
1144977	REC_WORD	wordpools/wasnorm_wordpool_less_exclusions.txt	LTP211	ltpFR	6	8	-1	STAPLE	1371	n/a	n/a	-1	n/a	n/a	n/a	n/a	n/a
1145974	REC_WORD_VV	wordpools/wasnorm_wordpool_less_exclusions.txt	LTP211	ltpFR	6	8	n/a	<>	-1	n/a	n/a	n/a	n/a	n/a	n/a	n/a	n/a
1146575	REC_WORD	wordpools/wasnorm_wordpool_less_exclusions.txt	LTP211	ltpFR	6	8	-1	LILY	821	n/a	n/a	-1	n/a	n/a	n/a	n/a	n/a
1147991	REC_WORD	wordpools/wasnorm_wordpool_less_exclusions.txt	LTP211	ltpFR	6	8	-1	SHELTER	1282	n/a	n/a	-1	n/a	n/a	n/a	n/a	n/a
1150296	REC_WORD	wordpools/wasnorm_wordpool_less_exclusions.txt	LTP211	ltpFR	6	8	-1	DORM	488	n/a	n/a	-1	n/a	n/a	n/a	n/a	n/a
1154063	REC_WORD	wordpools/wasnorm_wordpool_less_exclusions.txt	LTP211	ltpFR	6	8	-1	ELEVATOR	524	n/a	n/a	-1	n/a	n/a	n/a	n/a	n/a
1156177	REC_WORD	wordpools/wasnorm_wordpool_less_exclusions.txt	LTP211	ltpFR	6	8	-1	SCALPEL	1243	n/a	n/a	-1	n/a	n/a	n/a	n/a	n/a
1157769	REC_WORD	wordpools/wasnorm_wordpool_less_exclusions.txt	LTP211	ltpFR	6	8	-1	NEPHEW	942	n/a	n/a	-1	n/a	n/a	n/a	n/a	n/a
1159570	REC_WORD	wordpools/wasnorm_wordpool_less_exclusions.txt	LTP211	ltpFR	6	8	-1	DOCUMENT	479	n/a	n/a	-1	n/a	n/a	n/a	n/a	n/a
1162194	REC_WORD	wordpools/wasnorm_wordpool_less_exclusions.txt	LTP211	ltpFR	6	8	-1	CHAMBER	277	n/a	n/a	-1	n/a	n/a	n/a	n/a	n/a
1164969	REC_WORD	wordpools/wasnorm_wordpool_less_exclusions.txt	LTP211	ltpFR	6	8	-1	STEREO	1378	n/a	n/a	-1	n/a	n/a	n/a	n/a	n/a
1165972	REC_WORD_VV	wordpools/wasnorm_wordpool_less_exclusions.txt	LTP211	ltpFR	6	8	n/a	<>	-1	n/a	n/a	n/a	n/a	n/a	n/a	n/a	n/a
1168151	REC_WORD	wordpools/wasnorm_wordpool_less_exclusions.txt	LTP211	ltpFR	6	8	-1	STREAM	1392	n/a	n/a	-1	n/a	n/a	n/a	n/a	n/a
1173782	REC_WORD	wordpools/wasnorm_wordpool_less_exclusions.txt	LTP211	ltpFR	6	8	-1	PLANT	1083	n/a	n/a	-1	n/a	n/a	n/a	n/a	n/a
1176681	REC_WORD	wordpools/wasnorm_wordpool_less_exclusions.txt	LTP211	ltpFR	6	8	-1	BATH	98	n/a	n/a	-1	n/a	n/a	n/a	n/a	n/a
1203703	REC_WORD	wordpools/wasnorm_wordpool_less_exclusions.txt	LTP211	ltpFR	6	8	-1	NEPHEW	942	n/a	n/a	-1	n/a	n/a	n/a	n/a	n/a
1221938	WORD	wordpools/wasnorm_wordpool_less_exclusions.txt	LTP211	ltpFR	6	9	-1	CAMEL	223	n/a	n/a	-1	1.0	1.0	1	upper	Verdana.ttf
1226015	WORD	wordpools/wasnorm_wordpool_less_exclusions.txt	LTP211	ltpFR	6	9	-1	ROBE	1198	n/a	n/a	-1	1.0	1.0	1	upper	Verdana.ttf
1229859	WORD	wordpools/wasnorm_wordpool_less_exclusions.txt	LTP211	ltpFR	6	9	-1	VALVE	1546	n/a	n/a	-1	1.0	1.0	1	upper	Verdana.ttf
1233970	WORD	wordpools/wasnorm_wordpool_less_exclusions.txt	LTP211	ltpFR	6	9	-1	CANAL	226	n/a	n/a	-1	1.0	1.0	1	upper	Verdana.ttf
1238030	WORD	wordpools/wasnorm_wordpool_less_exclusions.txt	LTP211	ltpFR	6	9	-1	CHIP	303	n/a	n/a	-1	1.0	1.0	1	upper	Verdana.ttf
1242091	WORD	wordpools/wasnorm_wordpool_less_exclusions.txt	LTP211	ltpFR	6	9	-1	PAVEMENT	1028	n/a	n/a	-1	1.0	1.0	1	upper	Verdana.ttf
1246151	WORD	wordpools/wasnorm_wordpool_less_exclusions.txt	LTP211	ltpFR	6	9	-1	ASHTRAY	45	n/a	n/a	-1	1.0	1.0	1	upper	Verdana.ttf
1250196	WORD	wordpools/wasnorm_wordpool_less_exclusions.txt	LTP211	ltpFR	6	9	-1	SALAD	1224	n/a	n/a	-1	1.0	1.0	1	upper	Verdana.ttf
1254390	WORD	wordpools/wasnorm_wordpool_less_exclusions.txt	LTP211	ltpFR	6	9	-1	LINEN	825	n/a	n/a	-1	1.0	1.0	1	upper	Verdana.ttf
1258234	WORD	wordpools/wasnorm_wordpool_less_exclusions.txt	LTP211	ltpFR	6	9	-1	SACK	1220	n/a	n/a	-1	1.0	1.0	1	upper	Verdana.ttf
1262195	WORD	wordpools/wasnorm_wordpool_less_exclusions.txt	LTP211	ltpFR	6	9	-1	BUILDER	190	n/a	n/a	-1	1.0	1.0	1	upper	Verdana.ttf
1266239	WORD	wordpools/wasnorm_wordpool_less_exclusions.txt	LTP211	ltpFR	6	9	-1	BUILDING	191	n/a	n/a	-1	1.0	1.0	1	upper	Verdana.ttf
1270300	WORD	wordpools/wasnorm_wordpool_less_exclusions.txt	LTP211	ltpFR	6	9	-1	SPOOL	1356	n/a	n/a	-1	1.0	1.0	1	upper	Verdana.ttf
1274227	WORD	wordpools/wasnorm_wordpool_less_exclusions.txt	LTP211	ltpFR	6	9	-1	WAND	1586	n/a	n/a	-1	1.0	1.0	1	upper	Verdana.ttf
1278354	WORD	wordpools/wasnorm_wordpool_less_exclusions.txt	LTP211	ltpFR	6	9	-1	BARN	89	n/a	n/a	-1	1.0	1.0	1	upper	Verdana.ttf
1282348	WORD	wordpools/wasnorm_wordpool_less_exclusions.txt	LTP211	ltpFR	6	9	-1	FARMER	553	n/a	n/a	-1	1.0	1.0	1	upper	Verdana.ttf
1288423	REC_START	n/a	LTP211	ltpFR	6	9	n/a	n/a	n/a	n/a	n/a	n/a	n/a	n/a	n/a	n/a	n/a
1291162	REC_WORD	wordpools/wasnorm_wordpool_less_exclusions.txt	LTP211	ltpFR	6	9	-1	CAMEL	223	n/a	n/a	-1	n/a	n/a	n/a	n/a	n/a
1292474	REC_WORD	wordpools/wasnorm_wordpool_less_exclusions.txt	LTP211	ltpFR	6	9	-1	ROBE	1198	n/a	n/a	-1	n/a	n/a	n/a	n/a	n/a
1294943	REC_WORD	wordpools/wasnorm_wordpool_less_exclusions.txt	LTP211	ltpFR	6	9	-1	VALVE	1546	n/a	n/a	-1	n/a	n/a	n/a	n/a	n/a
1296844	REC_WORD	wordpools/wasnorm_wordpool_less_exclusions.txt	LTP211	ltpFR	6	9	-1	CANAL	226	n/a	n/a	-1	n/a	n/a	n/a	n/a	n/a
1299652	REC_WORD	wordpools/wasnorm_wordpool_less_exclusions.txt	LTP211	ltpFR	6	9	-1	CHIP	303	n/a	n/a	-1	n/a	n/a	n/a	n/a	n/a
1301663	REC_WORD	wordpools/wasnorm_wordpool_less_exclusions.txt	LTP211	ltpFR	6	9	-1	PAVEMENT	1028	n/a	n/a	-1	n/a	n/a	n/a	n/a	n/a
1305908	REC_WORD	wordpools/wasnorm_wordpool_less_exclusions.txt	LTP211	ltpFR	6	9	-1	ASHTRAY	45	n/a	n/a	-1	n/a	n/a	n/a	n/a	n/a
1313288	REC_WORD	wordpools/wasnorm_wordpool_less_exclusions.txt	LTP211	ltpFR	6	9	-1	SALAD	1224	n/a	n/a	-1	n/a	n/a	n/a	n/a	n/a
1315626	REC_WORD	wordpools/wasnorm_wordpool_less_exclusions.txt	LTP211	ltpFR	6	9	-1	LINEN	825	n/a	n/a	-1	n/a	n/a	n/a	n/a	n/a
1317162	REC_WORD	wordpools/wasnorm_wordpool_less_exclusions.txt	LTP211	ltpFR	6	9	-1	SACK	1220	n/a	n/a	-1	n/a	n/a	n/a	n/a	n/a
1318943	REC_WORD	wordpools/wasnorm_wordpool_less_exclusions.txt	LTP211	ltpFR	6	9	-1	BUILDER	190	n/a	n/a	-1	n/a	n/a	n/a	n/a	n/a
1320280	REC_WORD	wordpools/wasnorm_wordpool_less_exclusions.txt	LTP211	ltpFR	6	9	-1	BUILDING	191	n/a	n/a	-1	n/a	n/a	n/a	n/a	n/a
1321812	REC_WORD	wordpools/wasnorm_wordpool_less_exclusions.txt	LTP211	ltpFR	6	9	-1	SPOOL	1356	n/a	n/a	-1	n/a	n/a	n/a	n/a	n/a
1330088	REC_WORD	wordpools/wasnorm_wordpool_less_exclusions.txt	LTP211	ltpFR	6	9	-1	BARN	89	n/a	n/a	-1	n/a	n/a	n/a	n/a	n/a
1332423	REC_WORD	wordpools/wasnorm_wordpool_less_exclusions.txt	LTP211	ltpFR	6	9	-1	FARMER	553	n/a	n/a	-1	n/a	n/a	n/a	n/a	n/a
1372779	WORD	wordpools/wasnorm_wordpool_less_exclusions.txt	LTP211	ltpFR	6	10	0	BISCUIT	130	n/a	n/a	0	0.57763671875	0.412841796875	1	lower	amplitud.ttf
1376723	WORD	wordpools/wasnorm_wordpool_less_exclusions.txt	LTP211	ltpFR	6	10	0	THESAURUS	1454	n/a	n/a	1	0.57763671875	0.412841796875	1	lower	amplitud.ttf
1380817	WORD	wordpools/wasnorm_wordpool_less_exclusions.txt	LTP211	ltpFR	6	10	0	WINDSHIELD	1612	n/a	n/a	1	0.57763671875	0.412841796875	1	lower	amplitud.ttf
1384961	WORD	wordpools/wasnorm_wordpool_less_exclusions.txt	LTP211	ltpFR	6	10	0	KEG	770	n/a	n/a	1	0.57763671875	0.412841796875	1	lower	amplitud.ttf
1389055	WORD	wordpools/wasnorm_wordpool_less_exclusions.txt	LTP211	ltpFR	6	10	0	CABINET	212	n/a	n/a	1	0.57763671875	0.412841796875	1	lower	amplitud.ttf
1393049	WORD	wordpools/wasnorm_wordpool_less_exclusions.txt	LTP211	ltpFR	6	10	0	DETERGENT	455	n/a	n/a	1	0.57763671875	0.412841796875	1	lower	amplitud.ttf
1397277	WORD	wordpools/wasnorm_wordpool_less_exclusions.txt	LTP211	ltpFR	6	10	0	CHEF	290	n/a	n/a	1	0.57763671875	0.412841796875	1	lower	amplitud.ttf
1401137	WORD	wordpools/wasnorm_wordpool_less_exclusions.txt	LTP211	ltpFR	6	10	0	FLY	586	n/a	n/a	0	0.57763671875	0.412841796875	1	lower	amplitud.ttf
1405031	WORD	wordpools/wasnorm_wordpool_less_exclusions.txt	LTP211	ltpFR	6	10	0	CRICKET	408	n/a	n/a	0	0.57763671875	0.412841796875	1	lower	amplitud.ttf
1409125	WORD	wordpools/wasnorm_wordpool_less_exclusions.txt	LTP211	ltpFR	6	10	0	MICROSCOPE	891	n/a	n/a	0	0.57763671875	0.412841796875	1	lower	amplitud.ttf
1413220	WORD	wordpools/wasnorm_wordpool_less_exclusions.txt	LTP211	ltpFR	6	10	0	PERISCOPE	1050	n/a	n/a	1	0.57763671875	0.412841796875	1	lower	amplitud.ttf
1417197	WORD	wordpools/wasnorm_wordpool_less_exclusions.txt	LTP211	ltpFR	6	10	0	MUG	930	n/a	n/a	0	0.57763671875	0.412841796875	1	lower	amplitud.ttf
1421274	WORD	wordpools/wasnorm_wordpool_less_exclusions.txt	LTP211	ltpFR	6	10	0	APPLICATION	34	n/a	n/a	0	0.57763671875	0.412841796875	1	lower	amplitud.ttf
1425151	WORD	wordpools/wasnorm_wordpool_less_exclusions.txt	LTP211	ltpFR	6	10	0	WARRIOR	1589	n/a	n/a	1	0.57763671875	0.412841796875	1	lower	amplitud.ttf
1429262	WORD	wordpools/wasnorm_wordpool_less_exclusions.txt	LTP211	ltpFR	6	10	0	CHAUFFEUR	283	n/a	n/a	1	0.57763671875	0.412841796875	1	lower	amplitud.ttf
1433423	WORD	wordpools/wasnorm_wordpool_less_exclusions.txt	LTP211	ltpFR	6	10	0	TUBA	1515	n/a	n/a	1	0.57763671875	0.412841796875	1	lower	amplitud.ttf
1439331	REC_START	n/a	LTP211	ltpFR	6	10	n/a	n/a	n/a	n/a	n/a	n/a	n/a	n/a	n/a	n/a	n/a
1442868	REC_WORD	wordpools/wasnorm_wordpool_less_exclusions.txt	LTP211	ltpFR	6	10	0	BISCUIT	130	n/a	n/a	0	n/a	n/a	n/a	n/a	n/a
1444454	REC_WORD	wordpools/wasnorm_wordpool_less_exclusions.txt	LTP211	ltpFR	6	10	0	THESAURUS	1454	n/a	n/a	1	n/a	n/a	n/a	n/a	n/a
1445980	REC_WORD	wordpools/wasnorm_wordpool_less_exclusions.txt	LTP211	ltpFR	6	10	0	WINDSHIELD	1612	n/a	n/a	1	n/a	n/a	n/a	n/a	n/a
1447562	REC_WORD	wordpools/wasnorm_wordpool_less_exclusions.txt	LTP211	ltpFR	6	10	0	KEG	770	n/a	n/a	1	n/a	n/a	n/a	n/a	n/a
1449049	REC_WORD	wordpools/wasnorm_wordpool_less_exclusions.txt	LTP211	ltpFR	6	10	0	CABINET	212	n/a	n/a	1	n/a	n/a	n/a	n/a	n/a
1450899	REC_WORD	wordpools/wasnorm_wordpool_less_exclusions.txt	LTP211	ltpFR	6	10	0	DETERGENT	455	n/a	n/a	1	n/a	n/a	n/a	n/a	n/a
1454132	REC_WORD	wordpools/wasnorm_wordpool_less_exclusions.txt	LTP211	ltpFR	6	10	0	CHEF	290	n/a	n/a	1	n/a	n/a	n/a	n/a	n/a
1456843	REC_WORD	wordpools/wasnorm_wordpool_less_exclusions.txt	LTP211	ltpFR	6	10	0	FLY	586	n/a	n/a	0	n/a	n/a	n/a	n/a	n/a
1458697	REC_WORD	wordpools/wasnorm_wordpool_less_exclusions.txt	LTP211	ltpFR	6	10	0	CRICKET	408	n/a	n/a	0	n/a	n/a	n/a	n/a	n/a
1460882	REC_WORD	wordpools/wasnorm_wordpool_less_exclusions.txt	LTP211	ltpFR	6	10	0	MICROSCOPE	891	n/a	n/a	0	n/a	n/a	n/a	n/a	n/a
1462987	REC_WORD	wordpools/wasnorm_wordpool_less_exclusions.txt	LTP211	ltpFR	6	10	0	PERISCOPE	1050	n/a	n/a	1	n/a	n/a	n/a	n/a	n/a
1465397	REC_WORD	wordpools/wasnorm_wordpool_less_exclusions.txt	LTP211	ltpFR	6	10	0	MUG	930	n/a	n/a	0	n/a	n/a	n/a	n/a	n/a
1466683	REC_WORD	wordpools/wasnorm_wordpool_less_exclusions.txt	LTP211	ltpFR	6	10	0	APPLICATION	34	n/a	n/a	0	n/a	n/a	n/a	n/a	n/a
1468909	REC_WORD	wordpools/wasnorm_wordpool_less_exclusions.txt	LTP211	ltpFR	6	10	0	WARRIOR	1589	n/a	n/a	1	n/a	n/a	n/a	n/a	n/a
1471153	REC_WORD	wordpools/wasnorm_wordpool_less_exclusions.txt	LTP211	ltpFR	6	10	0	CHAUFFEUR	283	n/a	n/a	1	n/a	n/a	n/a	n/a	n/a
1473114	REC_WORD	wordpools/wasnorm_wordpool_less_exclusions.txt	LTP211	ltpFR	6	10	0	TUBA	1515	n/a	n/a	1	n/a	n/a	n/a	n/a	n/a
1518329	WORD	wordpools/wasnorm_wordpool_less_exclusions.txt	LTP211	ltpFR	6	11	-1	LETTUCE	814	n/a	n/a	-1	1.0	1.0	1	upper	Verdana.ttf
1522156	WORD	wordpools/wasnorm_wordpool_less_exclusions.txt	LTP211	ltpFR	6	11	-1	CUCUMBER	421	n/a	n/a	-1	1.0	1.0	1	upper	Verdana.ttf
1526301	WORD	wordpools/wasnorm_wordpool_less_exclusions.txt	LTP211	ltpFR	6	11	-1	LAUNDRY	803	n/a	n/a	-1	1.0	1.0	1	upper	Verdana.ttf
1530161	WORD	wordpools/wasnorm_wordpool_less_exclusions.txt	LTP211	ltpFR	6	11	-1	WALNUT	1584	n/a	n/a	-1	1.0	1.0	1	upper	Verdana.ttf
1534222	WORD	wordpools/wasnorm_wordpool_less_exclusions.txt	LTP211	ltpFR	6	11	-1	SALIVA	1226	n/a	n/a	-1	1.0	1.0	1	upper	Verdana.ttf
1538316	WORD	wordpools/wasnorm_wordpool_less_exclusions.txt	LTP211	ltpFR	6	11	-1	CUE	422	n/a	n/a	-1	1.0	1.0	1	upper	Verdana.ttf
1542360	WORD	wordpools/wasnorm_wordpool_less_exclusions.txt	LTP211	ltpFR	6	11	-1	CLOSET	326	n/a	n/a	-1	1.0	1.0	1	upper	Verdana.ttf
1546221	WORD	wordpools/wasnorm_wordpool_less_exclusions.txt	LTP211	ltpFR	6	11	-1	RECEIPT	1173	n/a	n/a	-1	1.0	1.0	1	upper	Verdana.ttf
1550147	WORD	wordpools/wasnorm_wordpool_less_exclusions.txt	LTP211	ltpFR	6	11	-1	WEB	1598	n/a	n/a	-1	1.0	1.0	1	upper	Verdana.ttf
1554058	WORD	wordpools/wasnorm_wordpool_less_exclusions.txt	LTP211	ltpFR	6	11	-1	COMMANDER	354	n/a	n/a	-1	1.0	1.0	1	upper	Verdana.ttf
1557952	WORD	wordpools/wasnorm_wordpool_less_exclusions.txt	LTP211	ltpFR	6	11	-1	NICKEL	950	n/a	n/a	-1	1.0	1.0	1	upper	Verdana.ttf
1561913	WORD	wordpools/wasnorm_wordpool_less_exclusions.txt	LTP211	ltpFR	6	11	-1	CHECK	284	n/a	n/a	-1	1.0	1.0	1	upper	Verdana.ttf
1566007	WORD	wordpools/wasnorm_wordpool_less_exclusions.txt	LTP211	ltpFR	6	11	-1	HEAD	695	n/a	n/a	-1	1.0	1.0	1	upper	Verdana.ttf
1569885	WORD	wordpools/wasnorm_wordpool_less_exclusions.txt	LTP211	ltpFR	6	11	-1	CORPORATION	382	n/a	n/a	-1	1.0	1.0	1	upper	Verdana.ttf
1573862	WORD	wordpools/wasnorm_wordpool_less_exclusions.txt	LTP211	ltpFR	6	11	-1	KIDNEY	776	n/a	n/a	-1	1.0	1.0	1	upper	Verdana.ttf
1578039	WORD	wordpools/wasnorm_wordpool_less_exclusions.txt	LTP211	ltpFR	6	11	-1	NERVE	944	n/a	n/a	-1	1.0	1.0	1	upper	Verdana.ttf
1583914	REC_START	n/a	LTP211	ltpFR	6	11	n/a	n/a	n/a	n/a	n/a	n/a	n/a	n/a	n/a	n/a	n/a
1586843	REC_WORD	wordpools/wasnorm_wordpool_less_exclusions.txt	LTP211	ltpFR	6	11	-1	LETTUCE	814	n/a	n/a	-1	n/a	n/a	n/a	n/a	n/a
1588094	REC_WORD	wordpools/wasnorm_wordpool_less_exclusions.txt	LTP211	ltpFR	6	11	-1	CUCUMBER	421	n/a	n/a	-1	n/a	n/a	n/a	n/a	n/a
1589341	REC_WORD	wordpools/wasnorm_wordpool_less_exclusions.txt	LTP211	ltpFR	6	11	-1	LAUNDRY	803	n/a	n/a	-1	n/a	n/a	n/a	n/a	n/a
1590544	REC_WORD	wordpools/wasnorm_wordpool_less_exclusions.txt	LTP211	ltpFR	6	11	-1	WALNUT	1584	n/a	n/a	-1	n/a	n/a	n/a	n/a	n/a
1592229	REC_WORD	wordpools/wasnorm_wordpool_less_exclusions.txt	LTP211	ltpFR	6	11	-1	SALIVA	1226	n/a	n/a	-1	n/a	n/a	n/a	n/a	n/a
1594161	REC_WORD	wordpools/wasnorm_wordpool_less_exclusions.txt	LTP211	ltpFR	6	11	-1	CUE	422	n/a	n/a	-1	n/a	n/a	n/a	n/a	n/a
1595712	REC_WORD	wordpools/wasnorm_wordpool_less_exclusions.txt	LTP211	ltpFR	6	11	-1	CLOSET	326	n/a	n/a	-1	n/a	n/a	n/a	n/a	n/a
1597458	REC_WORD	wordpools/wasnorm_wordpool_less_exclusions.txt	LTP211	ltpFR	6	11	-1	RECEIPT	1173	n/a	n/a	-1	n/a	n/a	n/a	n/a	n/a
1599024	REC_WORD	wordpools/wasnorm_wordpool_less_exclusions.txt	LTP211	ltpFR	6	11	-1	COMMANDER	354	n/a	n/a	-1	n/a	n/a	n/a	n/a	n/a
1600870	REC_WORD	wordpools/wasnorm_wordpool_less_exclusions.txt	LTP211	ltpFR	6	11	-1	NICKEL	950	n/a	n/a	-1	n/a	n/a	n/a	n/a	n/a
1602831	REC_WORD	wordpools/wasnorm_wordpool_less_exclusions.txt	LTP211	ltpFR	6	11	-1	CHECK	284	n/a	n/a	-1	n/a	n/a	n/a	n/a	n/a
1604232	REC_WORD	wordpools/wasnorm_wordpool_less_exclusions.txt	LTP211	ltpFR	6	11	-1	HEAD	695	n/a	n/a	-1	n/a	n/a	n/a	n/a	n/a
1606008	REC_WORD	wordpools/wasnorm_wordpool_less_exclusions.txt	LTP211	ltpFR	6	11	-1	CORPORATION	382	n/a	n/a	-1	n/a	n/a	n/a	n/a	n/a
1607914	REC_WORD	wordpools/wasnorm_wordpool_less_exclusions.txt	LTP211	ltpFR	6	11	-1	KIDNEY	776	n/a	n/a	-1	n/a	n/a	n/a	n/a	n/a
1609985	REC_WORD	wordpools/wasnorm_wordpool_less_exclusions.txt	LTP211	ltpFR	6	11	-1	NERVE	944	n/a	n/a	-1	n/a	n/a	n/a	n/a	n/a
1667872	WORD	wordpools/wasnorm_wordpool_less_exclusions.txt	LTP211	ltpFR	6	12	1	SPRINKLE	1359	n/a	n/a	0	0.422607421875	0.5869140625	0	upper	zerothre.ttf
1672049	WORD	wordpools/wasnorm_wordpool_less_exclusions.txt	LTP211	ltpFR	6	12	1	BATHTUB	100	n/a	n/a	0	0.422607421875	0.5869140625	0	upper	zerothre.ttf
1676227	WORD	wordpools/wasnorm_wordpool_less_exclusions.txt	LTP211	ltpFR	6	12	1	PORK	1108	n/a	n/a	0	0.422607421875	0.5869140625	0	upper	zerothre.ttf
1680221	WORD	wordpools/wasnorm_wordpool_less_exclusions.txt	LTP211	ltpFR	6	12	1	STEM	1376	n/a	n/a	0	0.422607421875	0.5869140625	0	upper	zerothre.ttf
1684114	WORD	wordpools/wasnorm_wordpool_less_exclusions.txt	LTP211	ltpFR	6	12	0	FLESH	579	n/a	n/a	0	0.57763671875	0.412841796875	1	lower	amplitud.ttf
1688325	WORD	wordpools/wasnorm_wordpool_less_exclusions.txt	LTP211	ltpFR	6	12	0	EDITOR	516	n/a	n/a	1	0.57763671875	0.412841796875	1	lower	amplitud.ttf
1692386	WORD	wordpools/wasnorm_wordpool_less_exclusions.txt	LTP211	ltpFR	6	12	0	SPIDER	1351	n/a	n/a	0	0.57763671875	0.412841796875	1	lower	amplitud.ttf
1696413	WORD	wordpools/wasnorm_wordpool_less_exclusions.txt	LTP211	ltpFR	6	12	0	ASSOCIATE	49	n/a	n/a	1	0.57763671875	0.412841796875	1	lower	amplitud.ttf
1700456	WORD	wordpools/wasnorm_wordpool_less_exclusions.txt	LTP211	ltpFR	6	12	1	GUEST	669	n/a	n/a	1	0.422607421875	0.5869140625	0	upper	zerothre.ttf
1704351	WORD	wordpools/wasnorm_wordpool_less_exclusions.txt	LTP211	ltpFR	6	12	1	SKETCH	1315	n/a	n/a	0	0.422607421875	0.5869140625	0	upper	zerothre.ttf
1708395	WORD	wordpools/wasnorm_wordpool_less_exclusions.txt	LTP211	ltpFR	6	12	1	PUMPKIN	1142	n/a	n/a	1	0.422607421875	0.5869140625	0	upper	zerothre.ttf
1712389	WORD	wordpools/wasnorm_wordpool_less_exclusions.txt	LTP211	ltpFR	6	12	1	BANDANNA	80	n/a	n/a	0	0.422607421875	0.5869140625	0	upper	zerothre.ttf
1716284	WORD	wordpools/wasnorm_wordpool_less_exclusions.txt	LTP211	ltpFR	6	12	0	VEGETABLE	1552	n/a	n/a	0	0.57763671875	0.412841796875	1	lower	amplitud.ttf
1720244	WORD	wordpools/wasnorm_wordpool_less_exclusions.txt	LTP211	ltpFR	6	12	0	TERMITE	1451	n/a	n/a	0	0.57763671875	0.412841796875	1	lower	amplitud.ttf
1724121	WORD	wordpools/wasnorm_wordpool_less_exclusions.txt	LTP211	ltpFR	6	12	0	REPORT	1184	n/a	n/a	0	0.57763671875	0.412841796875	1	lower	amplitud.ttf
1728216	WORD	wordpools/wasnorm_wordpool_less_exclusions.txt	LTP211	ltpFR	6	12	0	DIAPER	459	n/a	n/a	0	0.57763671875	0.412841796875	1	lower	amplitud.ttf
1734090	REC_START	n/a	LTP211	ltpFR	6	12	n/a	n/a	n/a	n/a	n/a	n/a	n/a	n/a	n/a	n/a	n/a
1736181	REC_WORD_VV	wordpools/wasnorm_wordpool_less_exclusions.txt	LTP211	ltpFR	6	12	n/a	<>	-1	n/a	n/a	n/a	n/a	n/a	n/a	n/a	n/a
1737006	REC_WORD	wordpools/wasnorm_wordpool_less_exclusions.txt	LTP211	ltpFR	6	12	1	SPRINKLE	1359	n/a	n/a	0	n/a	n/a	n/a	n/a	n/a
1738585	REC_WORD	wordpools/wasnorm_wordpool_less_exclusions.txt	LTP211	ltpFR	6	12	1	BATHTUB	100	n/a	n/a	0	n/a	n/a	n/a	n/a	n/a
1740516	REC_WORD	wordpools/wasnorm_wordpool_less_exclusions.txt	LTP211	ltpFR	6	12	1	PORK	1108	n/a	n/a	0	n/a	n/a	n/a	n/a	n/a
1741483	REC_WORD	wordpools/wasnorm_wordpool_less_exclusions.txt	LTP211	ltpFR	6	12	1	STEM	1376	n/a	n/a	0	n/a	n/a	n/a	n/a	n/a
1742969	REC_WORD	wordpools/wasnorm_wordpool_less_exclusions.txt	LTP211	ltpFR	6	12	0	FLESH	579	n/a	n/a	0	n/a	n/a	n/a	n/a	n/a
1744840	REC_WORD	wordpools/wasnorm_wordpool_less_exclusions.txt	LTP211	ltpFR	6	12	0	EDITOR	516	n/a	n/a	1	n/a	n/a	n/a	n/a	n/a
1745817	REC_WORD	wordpools/wasnorm_wordpool_less_exclusions.txt	LTP211	ltpFR	6	12	0	SPIDER	1351	n/a	n/a	0	n/a	n/a	n/a	n/a	n/a
1747340	REC_WORD	wordpools/wasnorm_wordpool_less_exclusions.txt	LTP211	ltpFR	6	12	0	ASSOCIATE	49	n/a	n/a	1	n/a	n/a	n/a	n/a	n/a
1751026	REC_WORD	wordpools/wasnorm_wordpool_less_exclusions.txt	LTP211	ltpFR	6	12	1	GUEST	669	n/a	n/a	1	n/a	n/a	n/a	n/a	n/a
1753515	REC_WORD	wordpools/wasnorm_wordpool_less_exclusions.txt	LTP211	ltpFR	6	12	1	SKETCH	1315	n/a	n/a	0	n/a	n/a	n/a	n/a	n/a
1756604	REC_WORD	wordpools/wasnorm_wordpool_less_exclusions.txt	LTP211	ltpFR	6	12	1	BANDANNA	80	n/a	n/a	0	n/a	n/a	n/a	n/a	n/a
1759582	REC_WORD	wordpools/wasnorm_wordpool_less_exclusions.txt	LTP211	ltpFR	6	12	1	PUMPKIN	1142	n/a	n/a	1	n/a	n/a	n/a	n/a	n/a
1761916	REC_WORD	wordpools/wasnorm_wordpool_less_exclusions.txt	LTP211	ltpFR	6	12	0	REPORT	1184	n/a	n/a	0	n/a	n/a	n/a	n/a	n/a
1765623	REC_WORD	wordpools/wasnorm_wordpool_less_exclusions.txt	LTP211	ltpFR	6	12	0	TERMITE	1451	n/a	n/a	0	n/a	n/a	n/a	n/a	n/a
1766595	REC_WORD	wordpools/wasnorm_wordpool_less_exclusions.txt	LTP211	ltpFR	6	12	0	VEGETABLE	1552	n/a	n/a	0	n/a	n/a	n/a	n/a	n/a
1768317	REC_WORD	wordpools/wasnorm_wordpool_less_exclusions.txt	LTP211	ltpFR	6	12	0	DIAPER	459	n/a	n/a	0	n/a	n/a	n/a	n/a	n/a
1809693	REST_REWET	n/a	LTP211	ltpFR	6	12	n/a	n/a	n/a	n/a	n/a	n/a	n/a	n/a	n/a	n/a	n/a
2094302	WORD	wordpools/wasnorm_wordpool_less_exclusions.txt	LTP211	ltpFR	6	13	0	TICKET	1464	n/a	n/a	0	0.57763671875	0.412841796875	1	lower	amplitud.ttf
2098429	WORD	wordpools/wasnorm_wordpool_less_exclusions.txt	LTP211	ltpFR	6	13	0	ALLIGATOR	16	n/a	n/a	1	0.57763671875	0.412841796875	1	lower	amplitud.ttf
2102374	WORD	wordpools/wasnorm_wordpool_less_exclusions.txt	LTP211	ltpFR	6	13	0	CELLAR	267	n/a	n/a	1	0.57763671875	0.412841796875	1	lower	amplitud.ttf
2106583	WORD	wordpools/wasnorm_wordpool_less_exclusions.txt	LTP211	ltpFR	6	13	0	CAFE	216	n/a	n/a	1	0.57763671875	0.412841796875	1	lower	amplitud.ttf
2110743	WORD	wordpools/wasnorm_wordpool_less_exclusions.txt	LTP211	ltpFR	6	13	0	OINTMENT	974	n/a	n/a	0	0.57763671875	0.412841796875	1	lower	amplitud.ttf
2114771	WORD	wordpools/wasnorm_wordpool_less_exclusions.txt	LTP211	ltpFR	6	13	0	CALENDAR	221	n/a	n/a	0	0.57763671875	0.412841796875	1	lower	amplitud.ttf
2118798	WORD	wordpools/wasnorm_wordpool_less_exclusions.txt	LTP211	ltpFR	6	13	0	PAINTING	1005	n/a	n/a	0	0.57763671875	0.412841796875	1	lower	amplitud.ttf
2122892	WORD	wordpools/wasnorm_wordpool_less_exclusions.txt	LTP211	ltpFR	6	13	0	LAWYER	806	n/a	n/a	1	0.57763671875	0.412841796875	1	lower	amplitud.ttf
2127036	WORD	wordpools/wasnorm_wordpool_less_exclusions.txt	LTP211	ltpFR	6	13	0	BOULEVARD	156	n/a	n/a	1	0.57763671875	0.412841796875	1	lower	amplitud.ttf
2131096	WORD	wordpools/wasnorm_wordpool_less_exclusions.txt	LTP211	ltpFR	6	13	0	HIKER	708	n/a	n/a	1	0.57763671875	0.412841796875	1	lower	amplitud.ttf
2135090	WORD	wordpools/wasnorm_wordpool_less_exclusions.txt	LTP211	ltpFR	6	13	0	DOOR	486	n/a	n/a	1	0.57763671875	0.412841796875	1	lower	amplitud.ttf
2139268	WORD	wordpools/wasnorm_wordpool_less_exclusions.txt	LTP211	ltpFR	6	13	0	FRECKLE	602	n/a	n/a	0	0.57763671875	0.412841796875	1	lower	amplitud.ttf
2143246	WORD	wordpools/wasnorm_wordpool_less_exclusions.txt	LTP211	ltpFR	6	13	0	WHISKERS	1605	n/a	n/a	0	0.57763671875	0.412841796875	1	lower	amplitud.ttf
2147390	WORD	wordpools/wasnorm_wordpool_less_exclusions.txt	LTP211	ltpFR	6	13	0	TRAY	1498	n/a	n/a	1	0.57763671875	0.412841796875	1	lower	amplitud.ttf
2151466	WORD	wordpools/wasnorm_wordpool_less_exclusions.txt	LTP211	ltpFR	6	13	0	LAGOON	795	n/a	n/a	1	0.57763671875	0.412841796875	1	lower	amplitud.ttf
2155593	WORD	wordpools/wasnorm_wordpool_less_exclusions.txt	LTP211	ltpFR	6	13	0	BAY	102	n/a	n/a	1	0.57763671875	0.412841796875	1	lower	amplitud.ttf
2161468	REC_START	n/a	LTP211	ltpFR	6	13	n/a	n/a	n/a	n/a	n/a	n/a	n/a	n/a	n/a	n/a	n/a
2164551	REC_WORD	wordpools/wasnorm_wordpool_less_exclusions.txt	LTP211	ltpFR	6	13	0	TICKET	1464	n/a	n/a	0	n/a	n/a	n/a	n/a	n/a
2165683	REC_WORD	wordpools/wasnorm_wordpool_less_exclusions.txt	LTP211	ltpFR	6	13	0	ALLIGATOR	16	n/a	n/a	1	n/a	n/a	n/a	n/a	n/a
2167616	REC_WORD	wordpools/wasnorm_wordpool_less_exclusions.txt	LTP211	ltpFR	6	13	0	CELLAR	267	n/a	n/a	1	n/a	n/a	n/a	n/a	n/a
2168916	REC_WORD	wordpools/wasnorm_wordpool_less_exclusions.txt	LTP211	ltpFR	6	13	0	CAFE	216	n/a	n/a	1	n/a	n/a	n/a	n/a	n/a
2170767	REC_WORD	wordpools/wasnorm_wordpool_less_exclusions.txt	LTP211	ltpFR	6	13	0	OINTMENT	974	n/a	n/a	0	n/a	n/a	n/a	n/a	n/a
2172902	REC_WORD	wordpools/wasnorm_wordpool_less_exclusions.txt	LTP211	ltpFR	6	13	0	CALENDAR	221	n/a	n/a	0	n/a	n/a	n/a	n/a	n/a
2175207	REC_WORD	wordpools/wasnorm_wordpool_less_exclusions.txt	LTP211	ltpFR	6	13	0	PAINTING	1005	n/a	n/a	0	n/a	n/a	n/a	n/a	n/a
2177357	REC_WORD	wordpools/wasnorm_wordpool_less_exclusions.txt	LTP211	ltpFR	6	13	0	LAWYER	806	n/a	n/a	1	n/a	n/a	n/a	n/a	n/a
2178744	REC_WORD	wordpools/wasnorm_wordpool_less_exclusions.txt	LTP211	ltpFR	6	13	0	BOULEVARD	156	n/a	n/a	1	n/a	n/a	n/a	n/a	n/a
2179826	REC_WORD	wordpools/wasnorm_wordpool_less_exclusions.txt	LTP211	ltpFR	6	13	0	HIKER	708	n/a	n/a	1	n/a	n/a	n/a	n/a	n/a
2184631	REC_WORD	wordpools/wasnorm_wordpool_less_exclusions.txt	LTP211	ltpFR	6	13	0	FRECKLE	602	n/a	n/a	0	n/a	n/a	n/a	n/a	n/a
2185630	REC_WORD_VV	wordpools/wasnorm_wordpool_less_exclusions.txt	LTP211	ltpFR	6	13	n/a	<>	-1	n/a	n/a	n/a	n/a	n/a	n/a	n/a	n/a
2187638	REC_WORD	wordpools/wasnorm_wordpool_less_exclusions.txt	LTP211	ltpFR	6	13	0	WHISKERS	1605	n/a	n/a	0	n/a	n/a	n/a	n/a	n/a
2190642	REC_WORD	wordpools/wasnorm_wordpool_less_exclusions.txt	LTP211	ltpFR	6	13	0	TRAY	1498	n/a	n/a	1	n/a	n/a	n/a	n/a	n/a
2193176	REC_WORD	wordpools/wasnorm_wordpool_less_exclusions.txt	LTP211	ltpFR	6	13	0	DOOR	486	n/a	n/a	1	n/a	n/a	n/a	n/a	n/a
2195261	REC_WORD	wordpools/wasnorm_wordpool_less_exclusions.txt	LTP211	ltpFR	6	13	0	LAGOON	795	n/a	n/a	1	n/a	n/a	n/a	n/a	n/a
2197940	REC_WORD	wordpools/wasnorm_wordpool_less_exclusions.txt	LTP211	ltpFR	6	13	0	BAY	102	n/a	n/a	1	n/a	n/a	n/a	n/a	n/a
2240649	WORD	wordpools/wasnorm_wordpool_less_exclusions.txt	LTP211	ltpFR	6	14	1	QUILL	1150	n/a	n/a	0	0.422607421875	0.5869140625	0	upper	zerothre.ttf
2244777	WORD	wordpools/wasnorm_wordpool_less_exclusions.txt	LTP211	ltpFR	6	14	1	PENGUIN	1044	n/a	n/a	1	0.422607421875	0.5869140625	0	upper	zerothre.ttf
2248671	WORD	wordpools/wasnorm_wordpool_less_exclusions.txt	LTP211	ltpFR	6	14	1	PRAIRIE	1118	n/a	n/a	0	0.422607421875	0.5869140625	0	upper	zerothre.ttf
2252898	WORD	wordpools/wasnorm_wordpool_less_exclusions.txt	LTP211	ltpFR	6	14	1	PENCIL	1042	n/a	n/a	0	0.422607421875	0.5869140625	0	upper	zerothre.ttf
2257091	WORD	wordpools/wasnorm_wordpool_less_exclusions.txt	LTP211	ltpFR	6	14	1	COAT	333	n/a	n/a	0	0.422607421875	0.5869140625	0	upper	zerothre.ttf
2261002	WORD	wordpools/wasnorm_wordpool_less_exclusions.txt	LTP211	ltpFR	6	14	1	ROBIN	1199	n/a	n/a	1	0.422607421875	0.5869140625	0	upper	zerothre.ttf
2264996	WORD	wordpools/wasnorm_wordpool_less_exclusions.txt	LTP211	ltpFR	6	14	1	SWAN	1417	n/a	n/a	1	0.422607421875	0.5869140625	0	upper	zerothre.ttf
2268974	WORD	wordpools/wasnorm_wordpool_less_exclusions.txt	LTP211	ltpFR	6	14	1	HOUND	724	n/a	n/a	1	0.422607421875	0.5869140625	0	upper	zerothre.ttf
2272818	WORD	wordpools/wasnorm_wordpool_less_exclusions.txt	LTP211	ltpFR	6	14	1	SUIT	1402	n/a	n/a	0	0.422607421875	0.5869140625	0	upper	zerothre.ttf
2276745	WORD	wordpools/wasnorm_wordpool_less_exclusions.txt	LTP211	ltpFR	6	14	1	SAUCER	1237	n/a	n/a	0	0.422607421875	0.5869140625	0	upper	zerothre.ttf
2280690	WORD	wordpools/wasnorm_wordpool_less_exclusions.txt	LTP211	ltpFR	6	14	1	GIRAFFE	636	n/a	n/a	1	0.422607421875	0.5869140625	0	upper	zerothre.ttf
2284867	WORD	wordpools/wasnorm_wordpool_less_exclusions.txt	LTP211	ltpFR	6	14	1	COTTAGE	384	n/a	n/a	0	0.422607421875	0.5869140625	0	upper	zerothre.ttf
2288727	WORD	wordpools/wasnorm_wordpool_less_exclusions.txt	LTP211	ltpFR	6	14	1	PICK	1058	n/a	n/a	0	0.422607421875	0.5869140625	0	upper	zerothre.ttf
2292921	WORD	wordpools/wasnorm_wordpool_less_exclusions.txt	LTP211	ltpFR	6	14	1	BALLOT	76	n/a	n/a	0	0.422607421875	0.5869140625	0	upper	zerothre.ttf
2297115	WORD	wordpools/wasnorm_wordpool_less_exclusions.txt	LTP211	ltpFR	6	14	1	APPLE	33	n/a	n/a	0	0.422607421875	0.5869140625	0	upper	zerothre.ttf
2301293	WORD	wordpools/wasnorm_wordpool_less_exclusions.txt	LTP211	ltpFR	6	14	1	PLUM	1090	n/a	n/a	0	0.422607421875	0.5869140625	0	upper	zerothre.ttf
2307268	REC_START	n/a	LTP211	ltpFR	6	14	n/a	n/a	n/a	n/a	n/a	n/a	n/a	n/a	n/a	n/a	n/a
2309423	REC_WORD	wordpools/wasnorm_wordpool_less_exclusions.txt	LTP211	ltpFR	6	14	1	QUILL	1150	n/a	n/a	0	n/a	n/a	n/a	n/a	n/a
2310426	REC_WORD	wordpools/wasnorm_wordpool_less_exclusions.txt	LTP211	ltpFR	6	14	1	PENGUIN	1044	n/a	n/a	1	n/a	n/a	n/a	n/a	n/a
2311658	REC_WORD	wordpools/wasnorm_wordpool_less_exclusions.txt	LTP211	ltpFR	6	14	1	PRAIRIE	1118	n/a	n/a	0	n/a	n/a	n/a	n/a	n/a
2320757	REC_WORD	wordpools/wasnorm_wordpool_less_exclusions.txt	LTP211	ltpFR	6	14	1	SWAN	1417	n/a	n/a	1	n/a	n/a	n/a	n/a	n/a
2324628	REC_WORD	wordpools/wasnorm_wordpool_less_exclusions.txt	LTP211	ltpFR	6	14	1	HOUND	724	n/a	n/a	1	n/a	n/a	n/a	n/a	n/a
2326484	REC_WORD	wordpools/wasnorm_wordpool_less_exclusions.txt	LTP211	ltpFR	6	14	1	GIRAFFE	636	n/a	n/a	1	n/a	n/a	n/a	n/a	n/a
2330615	REC_WORD	wordpools/wasnorm_wordpool_less_exclusions.txt	LTP211	ltpFR	6	14	n/a	DOVE	491	n/a	n/a	n/a	n/a	n/a	n/a	n/a	n/a
2335588	REC_WORD	wordpools/wasnorm_wordpool_less_exclusions.txt	LTP211	ltpFR	6	14	1	SAUCER	1237	n/a	n/a	0	n/a	n/a	n/a	n/a	n/a
2336910	REC_WORD	wordpools/wasnorm_wordpool_less_exclusions.txt	LTP211	ltpFR	6	14	1	COAT	333	n/a	n/a	0	n/a	n/a	n/a	n/a	n/a
2338183	REC_WORD	wordpools/wasnorm_wordpool_less_exclusions.txt	LTP211	ltpFR	6	14	1	PENCIL	1042	n/a	n/a	0	n/a	n/a	n/a	n/a	n/a
2340911	REC_WORD	wordpools/wasnorm_wordpool_less_exclusions.txt	LTP211	ltpFR	6	14	1	PICK	1058	n/a	n/a	0	n/a	n/a	n/a	n/a	n/a
2342124	REC_WORD	wordpools/wasnorm_wordpool_less_exclusions.txt	LTP211	ltpFR	6	14	1	APPLE	33	n/a	n/a	0	n/a	n/a	n/a	n/a	n/a
2343391	REC_WORD	wordpools/wasnorm_wordpool_less_exclusions.txt	LTP211	ltpFR	6	14	1	BALLOT	76	n/a	n/a	0	n/a	n/a	n/a	n/a	n/a
2344640	REC_WORD	wordpools/wasnorm_wordpool_less_exclusions.txt	LTP211	ltpFR	6	14	1	PLUM	1090	n/a	n/a	0	n/a	n/a	n/a	n/a	n/a
2347202	REC_WORD	wordpools/wasnorm_wordpool_less_exclusions.txt	LTP211	ltpFR	6	14	1	COTTAGE	384	n/a	n/a	0	n/a	n/a	n/a	n/a	n/a
2352839	REC_WORD	wordpools/wasnorm_wordpool_less_exclusions.txt	LTP211	ltpFR	6	14	1	SUIT	1402	n/a	n/a	0	n/a	n/a	n/a	n/a	n/a
2388029	WORD	wordpools/wasnorm_wordpool_less_exclusions.txt	LTP211	ltpFR	6	15	0	DAUGHTER	442	n/a	n/a	1	0.57763671875	0.412841796875	1	lower	amplitud.ttf
2392056	WORD	wordpools/wasnorm_wordpool_less_exclusions.txt	LTP211	ltpFR	6	15	0	COW	393	n/a	n/a	1	0.57763671875	0.412841796875	1	lower	amplitud.ttf
2396117	WORD	wordpools/wasnorm_wordpool_less_exclusions.txt	LTP211	ltpFR	6	15	0	ELBOW	520	n/a	n/a	1	0.57763671875	0.412841796875	1	lower	amplitud.ttf
2399945	WORD	wordpools/wasnorm_wordpool_less_exclusions.txt	LTP211	ltpFR	6	15	0	FACE	547	n/a	n/a	1	0.57763671875	0.412841796875	1	lower	amplitud.ttf
2403856	WORD	wordpools/wasnorm_wordpool_less_exclusions.txt	LTP211	ltpFR	6	15	1	COIN	343	n/a	n/a	0	0.422607421875	0.5869140625	0	upper	zerothre.ttf
2408066	WORD	wordpools/wasnorm_wordpool_less_exclusions.txt	LTP211	ltpFR	6	15	1	QUARTER	1148	n/a	n/a	0	0.422607421875	0.5869140625	0	upper	zerothre.ttf
2412244	WORD	wordpools/wasnorm_wordpool_less_exclusions.txt	LTP211	ltpFR	6	15	1	QUEEN	1149	n/a	n/a	1	0.422607421875	0.5869140625	0	upper	zerothre.ttf
2416238	WORD	wordpools/wasnorm_wordpool_less_exclusions.txt	LTP211	ltpFR	6	15	1	CRYSTAL	418	n/a	n/a	0	0.422607421875	0.5869140625	0	upper	zerothre.ttf
2420182	WORD	wordpools/wasnorm_wordpool_less_exclusions.txt	LTP211	ltpFR	6	15	1	FINGERNAIL	568	n/a	n/a	0	0.422607421875	0.5869140625	0	upper	zerothre.ttf
2424209	WORD	wordpools/wasnorm_wordpool_less_exclusions.txt	LTP211	ltpFR	6	15	1	BEAST	108	n/a	n/a	1	0.422607421875	0.5869140625	0	upper	zerothre.ttf
2428337	WORD	wordpools/wasnorm_wordpool_less_exclusions.txt	LTP211	ltpFR	6	15	0	LION	827	n/a	n/a	1	0.57763671875	0.412841796875	1	lower	amplitud.ttf
2432381	WORD	wordpools/wasnorm_wordpool_less_exclusions.txt	LTP211	ltpFR	6	15	0	THRONE	1461	n/a	n/a	1	0.57763671875	0.412841796875	1	lower	amplitud.ttf
2436507	WORD	wordpools/wasnorm_wordpool_less_exclusions.txt	LTP211	ltpFR	6	15	0	ANKLE	24	n/a	n/a	0	0.57763671875	0.412841796875	1	lower	amplitud.ttf
2440335	WORD	wordpools/wasnorm_wordpool_less_exclusions.txt	LTP211	ltpFR	6	15	0	REFEREE	1178	n/a	n/a	1	0.57763671875	0.412841796875	1	lower	amplitud.ttf
2444429	WORD	wordpools/wasnorm_wordpool_less_exclusions.txt	LTP211	ltpFR	6	15	1	HELMET	702	n/a	n/a	0	0.422607421875	0.5869140625	0	upper	zerothre.ttf
2448489	WORD	wordpools/wasnorm_wordpool_less_exclusions.txt	LTP211	ltpFR	6	15	1	SCRIBBLE	1256	n/a	n/a	0	0.422607421875	0.5869140625	0	upper	zerothre.ttf
2454480	REC_START	n/a	LTP211	ltpFR	6	15	n/a	n/a	n/a	n/a	n/a	n/a	n/a	n/a	n/a	n/a	n/a
2456730	REC_WORD	wordpools/wasnorm_wordpool_less_exclusions.txt	LTP211	ltpFR	6	15	0	DAUGHTER	442	n/a	n/a	1	n/a	n/a	n/a	n/a	n/a
2457932	REC_WORD	wordpools/wasnorm_wordpool_less_exclusions.txt	LTP211	ltpFR	6	15	0	COW	393	n/a	n/a	1	n/a	n/a	n/a	n/a	n/a
2459194	REC_WORD	wordpools/wasnorm_wordpool_less_exclusions.txt	LTP211	ltpFR	6	15	0	ELBOW	520	n/a	n/a	1	n/a	n/a	n/a	n/a	n/a
2460716	REC_WORD	wordpools/wasnorm_wordpool_less_exclusions.txt	LTP211	ltpFR	6	15	1	COIN	343	n/a	n/a	0	n/a	n/a	n/a	n/a	n/a
2461808	REC_WORD	wordpools/wasnorm_wordpool_less_exclusions.txt	LTP211	ltpFR	6	15	0	FACE	547	n/a	n/a	1	n/a	n/a	n/a	n/a	n/a
2463730	REC_WORD	wordpools/wasnorm_wordpool_less_exclusions.txt	LTP211	ltpFR	6	15	1	QUARTER	1148	n/a	n/a	0	n/a	n/a	n/a	n/a	n/a
2465220	REC_WORD	wordpools/wasnorm_wordpool_less_exclusions.txt	LTP211	ltpFR	6	15	1	QUEEN	1149	n/a	n/a	1	n/a	n/a	n/a	n/a	n/a
2468952	REC_WORD	wordpools/wasnorm_wordpool_less_exclusions.txt	LTP211	ltpFR	6	15	1	CRYSTAL	418	n/a	n/a	0	n/a	n/a	n/a	n/a	n/a
2470388	REC_WORD	wordpools/wasnorm_wordpool_less_exclusions.txt	LTP211	ltpFR	6	15	1	FINGERNAIL	568	n/a	n/a	0	n/a	n/a	n/a	n/a	n/a
2472688	REC_WORD	wordpools/wasnorm_wordpool_less_exclusions.txt	LTP211	ltpFR	6	15	1	BEAST	108	n/a	n/a	1	n/a	n/a	n/a	n/a	n/a
2474115	REC_WORD	wordpools/wasnorm_wordpool_less_exclusions.txt	LTP211	ltpFR	6	15	0	LION	827	n/a	n/a	1	n/a	n/a	n/a	n/a	n/a
2476113	REC_WORD	wordpools/wasnorm_wordpool_less_exclusions.txt	LTP211	ltpFR	6	15	0	THRONE	1461	n/a	n/a	1	n/a	n/a	n/a	n/a	n/a
2477961	REC_WORD	wordpools/wasnorm_wordpool_less_exclusions.txt	LTP211	ltpFR	6	15	0	ANKLE	24	n/a	n/a	0	n/a	n/a	n/a	n/a	n/a
2479353	REC_WORD	wordpools/wasnorm_wordpool_less_exclusions.txt	LTP211	ltpFR	6	15	0	REFEREE	1178	n/a	n/a	1	n/a	n/a	n/a	n/a	n/a
2480974	REC_WORD	wordpools/wasnorm_wordpool_less_exclusions.txt	LTP211	ltpFR	6	15	1	HELMET	702	n/a	n/a	0	n/a	n/a	n/a	n/a	n/a
2482516	REC_WORD	wordpools/wasnorm_wordpool_less_exclusions.txt	LTP211	ltpFR	6	15	1	SCRIBBLE	1256	n/a	n/a	0	n/a	n/a	n/a	n/a	n/a
2534976	WORD	wordpools/wasnorm_wordpool_less_exclusions.txt	LTP211	ltpFR	6	16	1	FOOTBALL	591	n/a	n/a	0	0.422607421875	0.5869140625	0	upper	zerothre.ttf
2539020	WORD	wordpools/wasnorm_wordpool_less_exclusions.txt	LTP211	ltpFR	6	16	1	SWITCH	1422	n/a	n/a	0	0.422607421875	0.5869140625	0	upper	zerothre.ttf
2543031	WORD	wordpools/wasnorm_wordpool_less_exclusions.txt	LTP211	ltpFR	6	16	1	EYELASH	546	n/a	n/a	0	0.422607421875	0.5869140625	0	upper	zerothre.ttf
2547108	WORD	wordpools/wasnorm_wordpool_less_exclusions.txt	LTP211	ltpFR	6	16	1	NEPTUNE	943	n/a	n/a	0	0.422607421875	0.5869140625	0	upper	zerothre.ttf
2551052	WORD	wordpools/wasnorm_wordpool_less_exclusions.txt	LTP211	ltpFR	6	16	1	DISH	474	n/a	n/a	0	0.422607421875	0.5869140625	0	upper	zerothre.ttf
2554897	WORD	wordpools/wasnorm_wordpool_less_exclusions.txt	LTP211	ltpFR	6	16	1	JUG	762	n/a	n/a	0	0.422607421875	0.5869140625	0	upper	zerothre.ttf
2558874	WORD	wordpools/wasnorm_wordpool_less_exclusions.txt	LTP211	ltpFR	6	16	1	CHEERLEADER	288	n/a	n/a	1	0.422607421875	0.5869140625	0	upper	zerothre.ttf
2562885	WORD	wordpools/wasnorm_wordpool_less_exclusions.txt	LTP211	ltpFR	6	16	1	ORNAMENT	985	n/a	n/a	0	0.422607421875	0.5869140625	0	upper	zerothre.ttf
2566912	WORD	wordpools/wasnorm_wordpool_less_exclusions.txt	LTP211	ltpFR	6	16	1	PHILOSOPHER	1054	n/a	n/a	n/a	0.422607421875	0.5869140625	0	upper	zerothre.ttf
2569941	SLOW_MSG	n/a	LTP211	ltpFR	6	16	n/a	n/a	n/a	n/a	n/a	n/a	n/a	n/a	n/a	n/a	n/a
2572554	WORD	wordpools/wasnorm_wordpool_less_exclusions.txt	LTP211	ltpFR	6	16	1	INVENTOR	743	n/a	n/a	1	0.422607421875	0.5869140625	0	upper	zerothre.ttf
2576531	WORD	wordpools/wasnorm_wordpool_less_exclusions.txt	LTP211	ltpFR	6	16	1	BRIDGE	174	n/a	n/a	0	0.422607421875	0.5869140625	0	upper	zerothre.ttf
2580393	WORD	wordpools/wasnorm_wordpool_less_exclusions.txt	LTP211	ltpFR	6	16	1	SNORKEL	1336	n/a	n/a	0	0.422607421875	0.5869140625	0	upper	zerothre.ttf
2584354	WORD	wordpools/wasnorm_wordpool_less_exclusions.txt	LTP211	ltpFR	6	16	1	KIWI	781	n/a	n/a	1	0.422607421875	0.5869140625	0	upper	zerothre.ttf
2588248	WORD	wordpools/wasnorm_wordpool_less_exclusions.txt	LTP211	ltpFR	6	16	1	COLT	349	n/a	n/a	1	0.422607421875	0.5869140625	0	upper	zerothre.ttf
2592225	WORD	wordpools/wasnorm_wordpool_less_exclusions.txt	LTP211	ltpFR	6	16	1	UNIVERSE	1540	n/a	n/a	0	0.422607421875	0.5869140625	0	upper	zerothre.ttf
2596419	WORD	wordpools/wasnorm_wordpool_less_exclusions.txt	LTP211	ltpFR	6	16	1	CANARY	227	n/a	n/a	1	0.422607421875	0.5869140625	0	upper	zerothre.ttf
2602277	REC_START	n/a	LTP211	ltpFR	6	16	n/a	n/a	n/a	n/a	n/a	n/a	n/a	n/a	n/a	n/a	n/a
2605524	REC_WORD	wordpools/wasnorm_wordpool_less_exclusions.txt	LTP211	ltpFR	6	16	1	FOOTBALL	591	n/a	n/a	0	n/a	n/a	n/a	n/a	n/a
2606581	REC_WORD	wordpools/wasnorm_wordpool_less_exclusions.txt	LTP211	ltpFR	6	16	1	SWITCH	1422	n/a	n/a	0	n/a	n/a	n/a	n/a	n/a
2607944	REC_WORD	wordpools/wasnorm_wordpool_less_exclusions.txt	LTP211	ltpFR	6	16	n/a	ISLAND	745	n/a	n/a	n/a	n/a	n/a	n/a	n/a	n/a
2610847	REC_WORD	wordpools/wasnorm_wordpool_less_exclusions.txt	LTP211	ltpFR	6	16	1	NEPTUNE	943	n/a	n/a	0	n/a	n/a	n/a	n/a	n/a
2615317	REC_WORD	wordpools/wasnorm_wordpool_less_exclusions.txt	LTP211	ltpFR	6	16	1	DISH	474	n/a	n/a	0	n/a	n/a	n/a	n/a	n/a
2617318	REC_WORD	wordpools/wasnorm_wordpool_less_exclusions.txt	LTP211	ltpFR	6	16	1	JUG	762	n/a	n/a	0	n/a	n/a	n/a	n/a	n/a
2618804	REC_WORD	wordpools/wasnorm_wordpool_less_exclusions.txt	LTP211	ltpFR	6	16	1	CHEERLEADER	288	n/a	n/a	1	n/a	n/a	n/a	n/a	n/a
2624735	REC_WORD	wordpools/wasnorm_wordpool_less_exclusions.txt	LTP211	ltpFR	6	16	1	PHILOSOPHER	1054	n/a	n/a	n/a	n/a	n/a	n/a	n/a	n/a
2625637	REC_WORD	wordpools/wasnorm_wordpool_less_exclusions.txt	LTP211	ltpFR	6	16	1	INVENTOR	743	n/a	n/a	1	n/a	n/a	n/a	n/a	n/a
2626807	REC_WORD	wordpools/wasnorm_wordpool_less_exclusions.txt	LTP211	ltpFR	6	16	1	BRIDGE	174	n/a	n/a	0	n/a	n/a	n/a	n/a	n/a
2632343	REC_WORD	wordpools/wasnorm_wordpool_less_exclusions.txt	LTP211	ltpFR	6	16	1	COLT	349	n/a	n/a	1	n/a	n/a	n/a	n/a	n/a
2634803	REC_WORD	wordpools/wasnorm_wordpool_less_exclusions.txt	LTP211	ltpFR	6	16	1	CANARY	227	n/a	n/a	1	n/a	n/a	n/a	n/a	n/a
2635691	REC_WORD	wordpools/wasnorm_wordpool_less_exclusions.txt	LTP211	ltpFR	6	16	1	KIWI	781	n/a	n/a	1	n/a	n/a	n/a	n/a	n/a
2639901	REC_WORD	wordpools/wasnorm_wordpool_less_exclusions.txt	LTP211	ltpFR	6	16	1	UNIVERSE	1540	n/a	n/a	0	n/a	n/a	n/a	n/a	n/a
2705839	REC_START	n/a	LTP211	ltpFR	6	1	n/a	n/a	n/a	n/a	n/a	n/a	n/a	n/a	n/a	n/a	n/a
2705871	RECOG_TARGET	n/a	LTP211	ltpFR	6	1	-1	CANAL	226	1	5	-1	n/a	n/a	n/a	n/a	n/a
2706988	RECOG_RESP	n/a	LTP211	ltpFR	6	1	-1	CANAL	226	1	n/a	-1	n/a	n/a	n/a	n/a	n/a
2708223	RECOG_CONF	n/a	LTP211	ltpFR	6	1	-1	CANAL	226	n/a	5	-1	n/a	n/a	n/a	n/a	n/a
2710166	RECOG_LURE	n/a	LTP211	ltpFR	6	1	n/a	FRAME	600	0	5	n/a	n/a	n/a	n/a	n/a	n/a
2710878	RECOG_RESP	n/a	LTP211	ltpFR	6	1	n/a	FRAME	600	0	n/a	n/a	n/a	n/a	n/a	n/a	n/a
2711805	RECOG_CONF	n/a	LTP211	ltpFR	6	1	n/a	FRAME	600	n/a	5	n/a	n/a	n/a	n/a	n/a	n/a
2713626	RECOG_TARGET	n/a	LTP211	ltpFR	6	1	1	PENGUIN	1044	1	5	1	n/a	n/a	n/a	n/a	n/a
2714274	RECOG_RESP	n/a	LTP211	ltpFR	6	1	1	PENGUIN	1044	1	n/a	1	n/a	n/a	n/a	n/a	n/a
2715179	RECOG_CONF	n/a	LTP211	ltpFR	6	1	1	PENGUIN	1044	n/a	5	1	n/a	n/a	n/a	n/a	n/a
2716855	RECOG_TARGET	n/a	LTP211	ltpFR	6	1	0	MICROWAVE	892	1	5	1	n/a	n/a	n/a	n/a	n/a
2717580	RECOG_RESP	n/a	LTP211	ltpFR	6	1	0	MICROWAVE	892	1	n/a	1	n/a	n/a	n/a	n/a	n/a
2718585	RECOG_CONF	n/a	LTP211	ltpFR	6	1	0	MICROWAVE	892	n/a	5	1	n/a	n/a	n/a	n/a	n/a
2720317	RECOG_TARGET	n/a	LTP211	ltpFR	6	1	1	STAR	1373	1	4	0	n/a	n/a	n/a	n/a	n/a
2721348	RECOG_RESP	n/a	LTP211	ltpFR	6	1	1	STAR	1373	1	n/a	0	n/a	n/a	n/a	n/a	n/a
2722181	RECOG_CONF	n/a	LTP211	ltpFR	6	1	1	STAR	1373	n/a	4	0	n/a	n/a	n/a	n/a	n/a
2724061	RECOG_TARGET	n/a	LTP211	ltpFR	6	1	-1	SACK	1220	1	4	-1	n/a	n/a	n/a	n/a	n/a
2724645	RECOG_RESP	n/a	LTP211	ltpFR	6	1	-1	SACK	1220	1	n/a	-1	n/a	n/a	n/a	n/a	n/a
2725447	RECOG_CONF	n/a	LTP211	ltpFR	6	1	-1	SACK	1220	n/a	4	-1	n/a	n/a	n/a	n/a	n/a
2727224	RECOG_TARGET	n/a	LTP211	ltpFR	6	1	-1	NERVE	944	1	5	-1	n/a	n/a	n/a	n/a	n/a
2727925	RECOG_RESP	n/a	LTP211	ltpFR	6	1	-1	NERVE	944	1	n/a	-1	n/a	n/a	n/a	n/a	n/a
2728752	RECOG_CONF	n/a	LTP211	ltpFR	6	1	-1	NERVE	944	n/a	5	-1	n/a	n/a	n/a	n/a	n/a
2730568	RECOG_TARGET	n/a	LTP211	ltpFR	6	1	-1	DIME	466	1	5	-1	n/a	n/a	n/a	n/a	n/a
2731192	RECOG_RESP	n/a	LTP211	ltpFR	6	1	-1	DIME	466	1	n/a	-1	n/a	n/a	n/a	n/a	n/a
2731908	RECOG_CONF	n/a	LTP211	ltpFR	6	1	-1	DIME	466	n/a	5	-1	n/a	n/a	n/a	n/a	n/a
2733896	RECOG_TARGET	n/a	LTP211	ltpFR	6	1	0	CELLAR	267	1	5	1	n/a	n/a	n/a	n/a	n/a
2734521	RECOG_RESP	n/a	LTP211	ltpFR	6	1	0	CELLAR	267	1	n/a	1	n/a	n/a	n/a	n/a	n/a
2735427	RECOG_CONF	n/a	LTP211	ltpFR	6	1	0	CELLAR	267	n/a	5	1	n/a	n/a	n/a	n/a	n/a
2737058	RECOG_TARGET	n/a	LTP211	ltpFR	6	1	1	SUIT	1402	1	5	0	n/a	n/a	n/a	n/a	n/a
2737713	RECOG_RESP	n/a	LTP211	ltpFR	6	1	1	SUIT	1402	1	n/a	0	n/a	n/a	n/a	n/a	n/a
2738489	RECOG_CONF	n/a	LTP211	ltpFR	6	1	1	SUIT	1402	n/a	5	0	n/a	n/a	n/a	n/a	n/a
2740321	RECOG_TARGET	n/a	LTP211	ltpFR	6	1	0	LION	827	1	5	1	n/a	n/a	n/a	n/a	n/a
2740931	RECOG_RESP	n/a	LTP211	ltpFR	6	1	0	LION	827	1	n/a	1	n/a	n/a	n/a	n/a	n/a
2741662	RECOG_CONF	n/a	LTP211	ltpFR	6	1	0	LION	827	n/a	5	1	n/a	n/a	n/a	n/a	n/a
2743482	RECOG_TARGET	n/a	LTP211	ltpFR	6	1	-1	ATTORNEY	58	1	4	-1	n/a	n/a	n/a	n/a	n/a
2744153	RECOG_RESP	n/a	LTP211	ltpFR	6	1	-1	ATTORNEY	58	1	n/a	-1	n/a	n/a	n/a	n/a	n/a
2744855	RECOG_CONF	n/a	LTP211	ltpFR	6	1	-1	ATTORNEY	58	n/a	4	-1	n/a	n/a	n/a	n/a	n/a
2746710	RECOG_TARGET	n/a	LTP211	ltpFR	6	1	0	FIN	566	1	5	0	n/a	n/a	n/a	n/a	n/a
2747355	RECOG_RESP	n/a	LTP211	ltpFR	6	1	0	FIN	566	1	n/a	0	n/a	n/a	n/a	n/a	n/a
2748134	RECOG_CONF	n/a	LTP211	ltpFR	6	1	0	FIN	566	n/a	5	0	n/a	n/a	n/a	n/a	n/a
2749972	RECOG_TARGET	n/a	LTP211	ltpFR	6	1	0	DIAPER	459	1	5	0	n/a	n/a	n/a	n/a	n/a
2750555	RECOG_RESP	n/a	LTP211	ltpFR	6	1	0	DIAPER	459	1	n/a	0	n/a	n/a	n/a	n/a	n/a
2751430	RECOG_CONF	n/a	LTP211	ltpFR	6	1	0	DIAPER	459	n/a	5	0	n/a	n/a	n/a	n/a	n/a
2753084	RECOG_TARGET	n/a	LTP211	ltpFR	6	1	0	CURB	426	1	5	1	n/a	n/a	n/a	n/a	n/a
2753635	RECOG_RESP	n/a	LTP211	ltpFR	6	1	0	CURB	426	1	n/a	1	n/a	n/a	n/a	n/a	n/a
2754463	RECOG_CONF	n/a	LTP211	ltpFR	6	1	0	CURB	426	n/a	5	1	n/a	n/a	n/a	n/a	n/a
2756214	RECOG_LURE	n/a	LTP211	ltpFR	6	1	n/a	TELESCOPE	1446	0	5	n/a	n/a	n/a	n/a	n/a	n/a
2756924	RECOG_RESP	n/a	LTP211	ltpFR	6	1	n/a	TELESCOPE	1446	0	n/a	n/a	n/a	n/a	n/a	n/a	n/a
2757692	RECOG_CONF	n/a	LTP211	ltpFR	6	1	n/a	TELESCOPE	1446	n/a	5	n/a	n/a	n/a	n/a	n/a	n/a
2759641	RECOG_TARGET	n/a	LTP211	ltpFR	6	1	0	COW	393	1	5	1	n/a	n/a	n/a	n/a	n/a
2760164	RECOG_RESP	n/a	LTP211	ltpFR	6	1	0	COW	393	1	n/a	1	n/a	n/a	n/a	n/a	n/a
2761038	RECOG_CONF	n/a	LTP211	ltpFR	6	1	0	COW	393	n/a	5	1	n/a	n/a	n/a	n/a	n/a
2762636	RECOG_TARGET	n/a	LTP211	ltpFR	6	1	0	SPATULA	1348	1	5	0	n/a	n/a	n/a	n/a	n/a
2763229	RECOG_RESP	n/a	LTP211	ltpFR	6	1	0	SPATULA	1348	1	n/a	0	n/a	n/a	n/a	n/a	n/a
2764071	RECOG_CONF	n/a	LTP211	ltpFR	6	1	0	SPATULA	1348	n/a	5	0	n/a	n/a	n/a	n/a	n/a
2765865	RECOG_TARGET	n/a	LTP211	ltpFR	6	1	1	TOENAIL	1474	0	4	0	n/a	n/a	n/a	n/a	n/a
2766766	RECOG_RESP	n/a	LTP211	ltpFR	6	1	1	TOENAIL	1474	0	n/a	0	n/a	n/a	n/a	n/a	n/a
2768148	RECOG_CONF	n/a	LTP211	ltpFR	6	1	1	TOENAIL	1474	n/a	4	0	n/a	n/a	n/a	n/a	n/a
2769875	RECOG_LURE	n/a	LTP211	ltpFR	6	1	n/a	DANDRUFF	439	0	5	n/a	n/a	n/a	n/a	n/a	n/a
2770774	RECOG_RESP	n/a	LTP211	ltpFR	6	1	n/a	DANDRUFF	439	0	n/a	n/a	n/a	n/a	n/a	n/a	n/a
2771542	RECOG_CONF	n/a	LTP211	ltpFR	6	1	n/a	DANDRUFF	439	n/a	5	n/a	n/a	n/a	n/a	n/a	n/a
2776811	REC_START	n/a	LTP211	ltpFR	6	2	n/a	n/a	n/a	n/a	n/a	n/a	n/a	n/a	n/a	n/a	n/a
2776848	RECOG_TARGET	n/a	LTP211	ltpFR	6	2	0	ATOM	55	1	5	0	n/a	n/a	n/a	n/a	n/a
2777711	RECOG_RESP	n/a	LTP211	ltpFR	6	2	0	ATOM	55	1	n/a	0	n/a	n/a	n/a	n/a	n/a
2778562	RECOG_CONF	n/a	LTP211	ltpFR	6	2	0	ATOM	55	n/a	5	0	n/a	n/a	n/a	n/a	n/a
2780094	RECOG_TARGET	n/a	LTP211	ltpFR	6	2	1	BRIDGE	174	1	5	0	n/a	n/a	n/a	n/a	n/a
2780714	RECOG_RESP	n/a	LTP211	ltpFR	6	2	1	BRIDGE	174	1	n/a	0	n/a	n/a	n/a	n/a	n/a
2781525	RECOG_CONF	n/a	LTP211	ltpFR	6	2	1	BRIDGE	174	n/a	5	0	n/a	n/a	n/a	n/a	n/a
2783223	RECOG_TARGET	n/a	LTP211	ltpFR	6	2	0	REFEREE	1178	1	5	1	n/a	n/a	n/a	n/a	n/a
2783831	RECOG_RESP	n/a	LTP211	ltpFR	6	2	0	REFEREE	1178	1	n/a	1	n/a	n/a	n/a	n/a	n/a
2784566	RECOG_CONF	n/a	LTP211	ltpFR	6	2	0	REFEREE	1178	n/a	5	1	n/a	n/a	n/a	n/a	n/a
2786369	RECOG_TARGET	n/a	LTP211	ltpFR	6	2	0	FLY	586	1	4	0	n/a	n/a	n/a	n/a	n/a
2786985	RECOG_RESP	n/a	LTP211	ltpFR	6	2	0	FLY	586	1	n/a	0	n/a	n/a	n/a	n/a	n/a
2787744	RECOG_CONF	n/a	LTP211	ltpFR	6	2	0	FLY	586	n/a	4	0	n/a	n/a	n/a	n/a	n/a
2789513	RECOG_TARGET	n/a	LTP211	ltpFR	6	2	1	RAFT	1159	1	4	0	n/a	n/a	n/a	n/a	n/a
2790129	RECOG_RESP	n/a	LTP211	ltpFR	6	2	1	RAFT	1159	1	n/a	0	n/a	n/a	n/a	n/a	n/a
2790921	RECOG_CONF	n/a	LTP211	ltpFR	6	2	1	RAFT	1159	n/a	4	0	n/a	n/a	n/a	n/a	n/a
2792725	RECOG_TARGET	n/a	LTP211	ltpFR	6	2	0	DAUGHTER	442	1	5	1	n/a	n/a	n/a	n/a	n/a
2793300	RECOG_RESP	n/a	LTP211	ltpFR	6	2	0	DAUGHTER	442	1	n/a	1	n/a	n/a	n/a	n/a	n/a
2794156	RECOG_CONF	n/a	LTP211	ltpFR	6	2	0	DAUGHTER	442	n/a	5	1	n/a	n/a	n/a	n/a	n/a
2796036	RECOG_TARGET	n/a	LTP211	ltpFR	6	2	0	RUST	1219	1	5	1	n/a	n/a	n/a	n/a	n/a
2796651	RECOG_RESP	n/a	LTP211	ltpFR	6	2	0	RUST	1219	1	n/a	1	n/a	n/a	n/a	n/a	n/a
2797364	RECOG_CONF	n/a	LTP211	ltpFR	6	2	0	RUST	1219	n/a	5	1	n/a	n/a	n/a	n/a	n/a
2799249	RECOG_TARGET	n/a	LTP211	ltpFR	6	2	1	PENCIL	1042	1	5	0	n/a	n/a	n/a	n/a	n/a
2799818	RECOG_RESP	n/a	LTP211	ltpFR	6	2	1	PENCIL	1042	1	n/a	0	n/a	n/a	n/a	n/a	n/a
2800692	RECOG_CONF	n/a	LTP211	ltpFR	6	2	1	PENCIL	1042	n/a	5	0	n/a	n/a	n/a	n/a	n/a
2802395	RECOG_TARGET	n/a	LTP211	ltpFR	6	2	-1	SCALPEL	1243	1	5	-1	n/a	n/a	n/a	n/a	n/a
2803097	RECOG_RESP	n/a	LTP211	ltpFR	6	2	-1	SCALPEL	1243	1	n/a	-1	n/a	n/a	n/a	n/a	n/a
2803924	RECOG_CONF	n/a	LTP211	ltpFR	6	2	-1	SCALPEL	1243	n/a	5	-1	n/a	n/a	n/a	n/a	n/a
2805655	RECOG_LURE	n/a	LTP211	ltpFR	6	2	n/a	BATHROOM	99	0	1	n/a	n/a	n/a	n/a	n/a	n/a
2807543	RECOG_RESP_VV	n/a	LTP211	ltpFR	6	2	n/a	BATHROOM	99	1	n/a	n/a	n/a	n/a	n/a	n/a	n/a
2808871	RECOG_RESP	n/a	LTP211	ltpFR	6	2	n/a	BATHROOM	99	0	n/a	n/a	n/a	n/a	n/a	n/a	n/a
2809883	RECOG_CONF	n/a	LTP211	ltpFR	6	2	n/a	BATHROOM	99	n/a	1	n/a	n/a	n/a	n/a	n/a	n/a
2811530	RECOG_TARGET	n/a	LTP211	ltpFR	6	2	-1	SISTER	1312	1	5	-1	n/a	n/a	n/a	n/a	n/a
2812231	RECOG_RESP	n/a	LTP211	ltpFR	6	2	-1	SISTER	1312	1	n/a	-1	n/a	n/a	n/a	n/a	n/a
2813223	RECOG_CONF	n/a	LTP211	ltpFR	6	2	-1	SISTER	1312	n/a	5	-1	n/a	n/a	n/a	n/a	n/a
2814958	RECOG_LURE	n/a	LTP211	ltpFR	6	2	n/a	DRUG	501	0	5	n/a	n/a	n/a	n/a	n/a	n/a
2815762	RECOG_RESP	n/a	LTP211	ltpFR	6	2	n/a	DRUG	501	0	n/a	n/a	n/a	n/a	n/a	n/a	n/a
2816557	RECOG_CONF	n/a	LTP211	ltpFR	6	2	n/a	DRUG	501	n/a	5	n/a	n/a	n/a	n/a	n/a	n/a
2818387	RECOG_LURE	n/a	LTP211	ltpFR	6	2	n/a	OFFICE	972	0	3	n/a	n/a	n/a	n/a	n/a	n/a
2819241	RECOG_RESP	n/a	LTP211	ltpFR	6	2	n/a	OFFICE	972	0	n/a	n/a	n/a	n/a	n/a	n/a	n/a
2819974	RECOG_CONF	n/a	LTP211	ltpFR	6	2	n/a	OFFICE	972	n/a	3	n/a	n/a	n/a	n/a	n/a	n/a
2821848	RECOG_TARGET	n/a	LTP211	ltpFR	6	2	0	CHEF	290	1	4	1	n/a	n/a	n/a	n/a	n/a
2822538	RECOG_RESP	n/a	LTP211	ltpFR	6	2	0	CHEF	290	1	n/a	1	n/a	n/a	n/a	n/a	n/a
2823215	RECOG_CONF	n/a	LTP211	ltpFR	6	2	0	CHEF	290	n/a	4	1	n/a	n/a	n/a	n/a	n/a
2824993	RECOG_TARGET	n/a	LTP211	ltpFR	6	2	1	BATHTUB	100	1	5	0	n/a	n/a	n/a	n/a	n/a
2825576	RECOG_RESP	n/a	LTP211	ltpFR	6	2	1	BATHTUB	100	1	n/a	0	n/a	n/a	n/a	n/a	n/a
2826363	RECOG_CONF	n/a	LTP211	ltpFR	6	2	1	BATHTUB	100	n/a	5	0	n/a	n/a	n/a	n/a	n/a
2828155	RECOG_TARGET	n/a	LTP211	ltpFR	6	2	1	SEAFOOD	1260	1	5	0	n/a	n/a	n/a	n/a	n/a
2828827	RECOG_RESP	n/a	LTP211	ltpFR	6	2	1	SEAFOOD	1260	1	n/a	0	n/a	n/a	n/a	n/a	n/a
2829656	RECOG_CONF	n/a	LTP211	ltpFR	6	2	1	SEAFOOD	1260	n/a	5	0	n/a	n/a	n/a	n/a	n/a
2831435	RECOG_TARGET	n/a	LTP211	ltpFR	6	2	0	WINDSHIELD	1612	1	5	1	n/a	n/a	n/a	n/a	n/a
2832025	RECOG_RESP	n/a	LTP211	ltpFR	6	2	0	WINDSHIELD	1612	1	n/a	1	n/a	n/a	n/a	n/a	n/a
2832838	RECOG_CONF	n/a	LTP211	ltpFR	6	2	0	WINDSHIELD	1612	n/a	5	1	n/a	n/a	n/a	n/a	n/a
2834596	RECOG_TARGET	n/a	LTP211	ltpFR	6	2	-1	ANT	25	1	5	-1	n/a	n/a	n/a	n/a	n/a
2835125	RECOG_RESP	n/a	LTP211	ltpFR	6	2	-1	ANT	25	1	n/a	-1	n/a	n/a	n/a	n/a	n/a
2835880	RECOG_CONF	n/a	LTP211	ltpFR	6	2	-1	ANT	25	n/a	5	-1	n/a	n/a	n/a	n/a	n/a
2837658	RECOG_LURE	n/a	LTP211	ltpFR	6	2	n/a	VALLEY	1545	0	4	n/a	n/a	n/a	n/a	n/a	n/a
2838316	RECOG_RESP	n/a	LTP211	ltpFR	6	2	n/a	VALLEY	1545	0	n/a	n/a	n/a	n/a	n/a	n/a	n/a
2839036	RECOG_CONF	n/a	LTP211	ltpFR	6	2	n/a	VALLEY	1545	n/a	4	n/a	n/a	n/a	n/a	n/a	n/a
2840886	RECOG_TARGET	n/a	LTP211	ltpFR	6	2	0	MUG	930	1	5	0	n/a	n/a	n/a	n/a	n/a
2841491	RECOG_RESP	n/a	LTP211	ltpFR	6	2	0	MUG	930	1	n/a	0	n/a	n/a	n/a	n/a	n/a
2842327	RECOG_CONF	n/a	LTP211	ltpFR	6	2	0	MUG	930	n/a	5	0	n/a	n/a	n/a	n/a	n/a
2851935	REC_START	n/a	LTP211	ltpFR	6	3	n/a	n/a	n/a	n/a	n/a	n/a	n/a	n/a	n/a	n/a	n/a
2851970	RECOG_TARGET	n/a	LTP211	ltpFR	6	3	0	RUNNER	1218	1	4	1	n/a	n/a	n/a	n/a	n/a
2852758	RECOG_RESP	n/a	LTP211	ltpFR	6	3	0	RUNNER	1218	1	n/a	1	n/a	n/a	n/a	n/a	n/a
2853780	RECOG_CONF	n/a	LTP211	ltpFR	6	3	0	RUNNER	1218	n/a	4	1	n/a	n/a	n/a	n/a	n/a
2855714	RECOG_TARGET	n/a	LTP211	ltpFR	6	3	-1	BRIEFCASE	175	1	5	-1	n/a	n/a	n/a	n/a	n/a
2856312	RECOG_RESP	n/a	LTP211	ltpFR	6	3	-1	BRIEFCASE	175	1	n/a	-1	n/a	n/a	n/a	n/a	n/a
2857061	RECOG_CONF	n/a	LTP211	ltpFR	6	3	-1	BRIEFCASE	175	n/a	5	-1	n/a	n/a	n/a	n/a	n/a
2858776	RECOG_TARGET	n/a	LTP211	ltpFR	6	3	1	DETECTIVE	454	1	5	1	n/a	n/a	n/a	n/a	n/a
2859448	RECOG_RESP	n/a	LTP211	ltpFR	6	3	1	DETECTIVE	454	1	n/a	1	n/a	n/a	n/a	n/a	n/a
2860221	RECOG_CONF	n/a	LTP211	ltpFR	6	3	1	DETECTIVE	454	n/a	5	1	n/a	n/a	n/a	n/a	n/a
2861921	RECOG_LURE	n/a	LTP211	ltpFR	6	3	n/a	CELERY	266	0	5	n/a	n/a	n/a	n/a	n/a	n/a
2862617	RECOG_RESP	n/a	LTP211	ltpFR	6	3	n/a	CELERY	266	0	n/a	n/a	n/a	n/a	n/a	n/a	n/a
2863270	RECOG_CONF	n/a	LTP211	ltpFR	6	3	n/a	CELERY	266	n/a	5	n/a	n/a	n/a	n/a	n/a	n/a
2865050	RECOG_TARGET	n/a	LTP211	ltpFR	6	3	1	SKETCH	1315	1	4	0	n/a	n/a	n/a	n/a	n/a
2865963	RECOG_RESP	n/a	LTP211	ltpFR	6	3	1	SKETCH	1315	1	n/a	0	n/a	n/a	n/a	n/a	n/a
2866586	RECOG_CONF	n/a	LTP211	ltpFR	6	3	1	SKETCH	1315	n/a	4	0	n/a	n/a	n/a	n/a	n/a
2868329	RECOG_TARGET	n/a	LTP211	ltpFR	6	3	-1	LILY	821	1	5	-1	n/a	n/a	n/a	n/a	n/a
2868928	RECOG_RESP	n/a	LTP211	ltpFR	6	3	-1	LILY	821	1	n/a	-1	n/a	n/a	n/a	n/a	n/a
2869719	RECOG_CONF	n/a	LTP211	ltpFR	6	3	-1	LILY	821	n/a	5	-1	n/a	n/a	n/a	n/a	n/a
2871325	RECOG_TARGET	n/a	LTP211	ltpFR	6	3	0	ASSOCIATE	49	1	5	1	n/a	n/a	n/a	n/a	n/a
2872325	RECOG_RESP	n/a	LTP211	ltpFR	6	3	0	ASSOCIATE	49	1	n/a	1	n/a	n/a	n/a	n/a	n/a
2873561	RECOG_CONF	n/a	LTP211	ltpFR	6	3	0	ASSOCIATE	49	n/a	5	1	n/a	n/a	n/a	n/a	n/a
2875269	RECOG_TARGET	n/a	LTP211	ltpFR	6	3	1	OX	994	1	5	1	n/a	n/a	n/a	n/a	n/a
2876547	RECOG_RESP	n/a	LTP211	ltpFR	6	3	1	OX	994	1	n/a	1	n/a	n/a	n/a	n/a	n/a
2877392	RECOG_CONF	n/a	LTP211	ltpFR	6	3	1	OX	994	n/a	5	1	n/a	n/a	n/a	n/a	n/a
2879213	RECOG_LURE	n/a	LTP211	ltpFR	6	3	n/a	RUBY	1214	0	5	n/a	n/a	n/a	n/a	n/a	n/a
2879898	RECOG_RESP	n/a	LTP211	ltpFR	6	3	n/a	RUBY	1214	0	n/a	n/a	n/a	n/a	n/a	n/a	n/a
2880675	RECOG_CONF	n/a	LTP211	ltpFR	6	3	n/a	RUBY	1214	n/a	5	n/a	n/a	n/a	n/a	n/a	n/a
2882474	RECOG_TARGET	n/a	LTP211	ltpFR	6	3	1	PLUM	1090	1	5	0	n/a	n/a	n/a	n/a	n/a
2883289	RECOG_RESP	n/a	LTP211	ltpFR	6	3	1	PLUM	1090	1	n/a	0	n/a	n/a	n/a	n/a	n/a
2884107	RECOG_CONF	n/a	LTP211	ltpFR	6	3	1	PLUM	1090	n/a	5	0	n/a	n/a	n/a	n/a	n/a
2885852	RECOG_TARGET	n/a	LTP211	ltpFR	6	3	1	SHACK	1273	1	5	0	n/a	n/a	n/a	n/a	n/a
2886471	RECOG_RESP	n/a	LTP211	ltpFR	6	3	1	SHACK	1273	1	n/a	0	n/a	n/a	n/a	n/a	n/a
2887349	RECOG_CONF	n/a	LTP211	ltpFR	6	3	1	SHACK	1273	n/a	5	0	n/a	n/a	n/a	n/a	n/a
2888931	RECOG_TARGET	n/a	LTP211	ltpFR	6	3	1	APPLE	33	1	5	0	n/a	n/a	n/a	n/a	n/a
2889558	RECOG_RESP	n/a	LTP211	ltpFR	6	3	1	APPLE	33	1	n/a	0	n/a	n/a	n/a	n/a	n/a
2890412	RECOG_CONF	n/a	LTP211	ltpFR	6	3	1	APPLE	33	n/a	5	0	n/a	n/a	n/a	n/a	n/a
2892093	RECOG_LURE	n/a	LTP211	ltpFR	6	3	n/a	TRIBE	1505	0	5	n/a	n/a	n/a	n/a	n/a	n/a
2892815	RECOG_RESP	n/a	LTP211	ltpFR	6	3	n/a	TRIBE	1505	0	n/a	n/a	n/a	n/a	n/a	n/a	n/a
2893605	RECOG_CONF	n/a	LTP211	ltpFR	6	3	n/a	TRIBE	1505	n/a	5	n/a	n/a	n/a	n/a	n/a	n/a
2895356	RECOG_TARGET	n/a	LTP211	ltpFR	6	3	1	DYNAMITE	511	1	5	0	n/a	n/a	n/a	n/a	n/a
2896222	RECOG_RESP	n/a	LTP211	ltpFR	6	3	1	DYNAMITE	511	1	n/a	0	n/a	n/a	n/a	n/a	n/a
2896921	RECOG_CONF	n/a	LTP211	ltpFR	6	3	1	DYNAMITE	511	n/a	5	0	n/a	n/a	n/a	n/a	n/a
2898733	RECOG_LURE	n/a	LTP211	ltpFR	6	3	n/a	ARM	38	0	2	n/a	n/a	n/a	n/a	n/a	n/a
2899617	RECOG_RESP	n/a	LTP211	ltpFR	6	3	n/a	ARM	38	0	n/a	n/a	n/a	n/a	n/a	n/a	n/a
2901570	RECOG_CONF	n/a	LTP211	ltpFR	6	3	n/a	ARM	38	n/a	2	n/a	n/a	n/a	n/a	n/a	n/a
2903360	RECOG_TARGET	n/a	LTP211	ltpFR	6	3	1	BUREAU	199	1	5	0	n/a	n/a	n/a	n/a	n/a
2904058	RECOG_RESP	n/a	LTP211	ltpFR	6	3	1	BUREAU	199	1	n/a	0	n/a	n/a	n/a	n/a	n/a
2904793	RECOG_CONF	n/a	LTP211	ltpFR	6	3	1	BUREAU	199	n/a	5	0	n/a	n/a	n/a	n/a	n/a
2906655	RECOG_TARGET	n/a	LTP211	ltpFR	6	3	-1	NEPHEW	942	1	5	-1	n/a	n/a	n/a	n/a	n/a
2907388	RECOG_RESP	n/a	LTP211	ltpFR	6	3	-1	NEPHEW	942	1	n/a	-1	n/a	n/a	n/a	n/a	n/a
2908140	RECOG_CONF	n/a	LTP211	ltpFR	6	3	-1	NEPHEW	942	n/a	5	-1	n/a	n/a	n/a	n/a	n/a
2909900	RECOG_LURE	n/a	LTP211	ltpFR	6	3	n/a	ROAD	1196	0	4	n/a	n/a	n/a	n/a	n/a	n/a
2910805	RECOG_RESP	n/a	LTP211	ltpFR	6	3	n/a	ROAD	1196	0	n/a	n/a	n/a	n/a	n/a	n/a	n/a
2912249	RECOG_CONF	n/a	LTP211	ltpFR	6	3	n/a	ROAD	1196	n/a	4	n/a	n/a	n/a	n/a	n/a	n/a
2914044	RECOG_TARGET	n/a	LTP211	ltpFR	6	3	1	CAPTAIN	239	1	5	1	n/a	n/a	n/a	n/a	n/a
2914734	RECOG_RESP	n/a	LTP211	ltpFR	6	3	1	CAPTAIN	239	1	n/a	1	n/a	n/a	n/a	n/a	n/a
2915534	RECOG_CONF	n/a	LTP211	ltpFR	6	3	1	CAPTAIN	239	n/a	5	1	n/a	n/a	n/a	n/a	n/a
2917173	RECOG_LURE	n/a	LTP211	ltpFR	6	3	n/a	JUGGLER	763	0	5	n/a	n/a	n/a	n/a	n/a	n/a
2917957	RECOG_RESP	n/a	LTP211	ltpFR	6	3	n/a	JUGGLER	763	0	n/a	n/a	n/a	n/a	n/a	n/a	n/a
2918718	RECOG_CONF	n/a	LTP211	ltpFR	6	3	n/a	JUGGLER	763	n/a	5	n/a	n/a	n/a	n/a	n/a	n/a
2927764	REC_START	n/a	LTP211	ltpFR	6	4	n/a	n/a	n/a	n/a	n/a	n/a	n/a	n/a	n/a	n/a	n/a
2927790	RECOG_TARGET	n/a	LTP211	ltpFR	6	4	1	DEER	444	1	5	1	n/a	n/a	n/a	n/a	n/a
2928473	RECOG_RESP	n/a	LTP211	ltpFR	6	4	1	DEER	444	1	n/a	1	n/a	n/a	n/a	n/a	n/a
2929325	RECOG_CONF	n/a	LTP211	ltpFR	6	4	1	DEER	444	n/a	5	1	n/a	n/a	n/a	n/a	n/a
2930935	RECOG_TARGET	n/a	LTP211	ltpFR	6	4	1	SICKLE	1302	1	5	0	n/a	n/a	n/a	n/a	n/a
2931827	RECOG_RESP	n/a	LTP211	ltpFR	6	4	1	SICKLE	1302	1	n/a	0	n/a	n/a	n/a	n/a	n/a
2932555	RECOG_CONF	n/a	LTP211	ltpFR	6	4	1	SICKLE	1302	n/a	5	0	n/a	n/a	n/a	n/a	n/a
2934198	RECOG_TARGET	n/a	LTP211	ltpFR	6	4	0	SPIDER	1351	1	5	0	n/a	n/a	n/a	n/a	n/a
2934912	RECOG_RESP	n/a	LTP211	ltpFR	6	4	0	SPIDER	1351	1	n/a	0	n/a	n/a	n/a	n/a	n/a
2935701	RECOG_CONF	n/a	LTP211	ltpFR	6	4	0	SPIDER	1351	n/a	5	0	n/a	n/a	n/a	n/a	n/a
2937360	RECOG_TARGET	n/a	LTP211	ltpFR	6	4	-1	LINEN	825	1	5	-1	n/a	n/a	n/a	n/a	n/a
2938080	RECOG_RESP	n/a	LTP211	ltpFR	6	4	-1	LINEN	825	1	n/a	-1	n/a	n/a	n/a	n/a	n/a
2938853	RECOG_CONF	n/a	LTP211	ltpFR	6	4	-1	LINEN	825	n/a	5	-1	n/a	n/a	n/a	n/a	n/a
2940587	RECOG_TARGET	n/a	LTP211	ltpFR	6	4	-1	VESSEL	1558	1	5	-1	n/a	n/a	n/a	n/a	n/a
2941256	RECOG_RESP	n/a	LTP211	ltpFR	6	4	-1	VESSEL	1558	1	n/a	-1	n/a	n/a	n/a	n/a	n/a
2942080	RECOG_CONF	n/a	LTP211	ltpFR	6	4	-1	VESSEL	1558	n/a	5	-1	n/a	n/a	n/a	n/a	n/a
2943899	RECOG_TARGET	n/a	LTP211	ltpFR	6	4	0	ENVELOPE	537	1	5	0	n/a	n/a	n/a	n/a	n/a
2944552	RECOG_RESP	n/a	LTP211	ltpFR	6	4	0	ENVELOPE	537	1	n/a	0	n/a	n/a	n/a	n/a	n/a
2945359	RECOG_CONF	n/a	LTP211	ltpFR	6	4	0	ENVELOPE	537	n/a	5	0	n/a	n/a	n/a	n/a	n/a
2946994	RECOG_TARGET	n/a	LTP211	ltpFR	6	4	-1	PLANT	1083	1	5	-1	n/a	n/a	n/a	n/a	n/a
2947596	RECOG_RESP	n/a	LTP211	ltpFR	6	4	-1	PLANT	1083	1	n/a	-1	n/a	n/a	n/a	n/a	n/a
2948372	RECOG_CONF	n/a	LTP211	ltpFR	6	4	-1	PLANT	1083	n/a	5	-1	n/a	n/a	n/a	n/a	n/a
2950040	RECOG_TARGET	n/a	LTP211	ltpFR	6	4	1	PELICAN	1039	1	5	1	n/a	n/a	n/a	n/a	n/a
2950720	RECOG_RESP	n/a	LTP211	ltpFR	6	4	1	PELICAN	1039	1	n/a	1	n/a	n/a	n/a	n/a	n/a
2951425	RECOG_CONF	n/a	LTP211	ltpFR	6	4	1	PELICAN	1039	n/a	5	1	n/a	n/a	n/a	n/a	n/a
2953269	RECOG_LURE	n/a	LTP211	ltpFR	6	4	n/a	FUNERAL	613	0	5	n/a	n/a	n/a	n/a	n/a	n/a
2953949	RECOG_RESP	n/a	LTP211	ltpFR	6	4	n/a	FUNERAL	613	0	n/a	n/a	n/a	n/a	n/a	n/a	n/a
2954757	RECOG_CONF	n/a	LTP211	ltpFR	6	4	n/a	FUNERAL	613	n/a	5	n/a	n/a	n/a	n/a	n/a	n/a
2956415	RECOG_TARGET	n/a	LTP211	ltpFR	6	4	0	FOLLOWER	589	1	4	1	n/a	n/a	n/a	n/a	n/a
2957259	RECOG_RESP	n/a	LTP211	ltpFR	6	4	0	FOLLOWER	589	1	n/a	1	n/a	n/a	n/a	n/a	n/a
2957941	RECOG_CONF	n/a	LTP211	ltpFR	6	4	0	FOLLOWER	589	n/a	4	1	n/a	n/a	n/a	n/a	n/a
2959742	RECOG_TARGET	n/a	LTP211	ltpFR	6	4	1	INVENTOR	743	1	5	1	n/a	n/a	n/a	n/a	n/a
2960274	RECOG_RESP	n/a	LTP211	ltpFR	6	4	1	INVENTOR	743	1	n/a	1	n/a	n/a	n/a	n/a	n/a
2961054	RECOG_CONF	n/a	LTP211	ltpFR	6	4	1	INVENTOR	743	n/a	5	1	n/a	n/a	n/a	n/a	n/a
2962804	RECOG_TARGET	n/a	LTP211	ltpFR	6	4	0	RIB	1188	1	5	0	n/a	n/a	n/a	n/a	n/a
2963408	RECOG_RESP	n/a	LTP211	ltpFR	6	4	0	RIB	1188	1	n/a	0	n/a	n/a	n/a	n/a	n/a
2964196	RECOG_CONF	n/a	LTP211	ltpFR	6	4	0	RIB	1188	n/a	5	0	n/a	n/a	n/a	n/a	n/a
2965949	RECOG_LURE	n/a	LTP211	ltpFR	6	4	n/a	CLAY	320	0	5	n/a	n/a	n/a	n/a	n/a	n/a
2966636	RECOG_RESP	n/a	LTP211	ltpFR	6	4	n/a	CLAY	320	0	n/a	n/a	n/a	n/a	n/a	n/a	n/a
2967450	RECOG_CONF	n/a	LTP211	ltpFR	6	4	n/a	CLAY	320	n/a	5	n/a	n/a	n/a	n/a	n/a	n/a
2969145	RECOG_TARGET	n/a	LTP211	ltpFR	6	4	-1	STAPLE	1371	1	5	-1	n/a	n/a	n/a	n/a	n/a
2969895	RECOG_RESP	n/a	LTP211	ltpFR	6	4	-1	STAPLE	1371	1	n/a	-1	n/a	n/a	n/a	n/a	n/a
2970631	RECOG_CONF	n/a	LTP211	ltpFR	6	4	-1	STAPLE	1371	n/a	5	-1	n/a	n/a	n/a	n/a	n/a
2972456	RECOG_TARGET	n/a	LTP211	ltpFR	6	4	-1	ROBE	1198	1	5	-1	n/a	n/a	n/a	n/a	n/a
2973049	RECOG_RESP	n/a	LTP211	ltpFR	6	4	-1	ROBE	1198	1	n/a	-1	n/a	n/a	n/a	n/a	n/a
2973820	RECOG_CONF	n/a	LTP211	ltpFR	6	4	-1	ROBE	1198	n/a	5	-1	n/a	n/a	n/a	n/a	n/a
2975518	RECOG_TARGET	n/a	LTP211	ltpFR	6	4	1	BANNER	85	1	5	0	n/a	n/a	n/a	n/a	n/a
2976128	RECOG_RESP	n/a	LTP211	ltpFR	6	4	1	BANNER	85	1	n/a	0	n/a	n/a	n/a	n/a	n/a
2976907	RECOG_CONF	n/a	LTP211	ltpFR	6	4	1	BANNER	85	n/a	5	0	n/a	n/a	n/a	n/a	n/a
2978514	RECOG_TARGET	n/a	LTP211	ltpFR	6	4	-1	STREAM	1392	1	5	-1	n/a	n/a	n/a	n/a	n/a
2979127	RECOG_RESP	n/a	LTP211	ltpFR	6	4	-1	STREAM	1392	1	n/a	-1	n/a	n/a	n/a	n/a	n/a
2979818	RECOG_CONF	n/a	LTP211	ltpFR	6	4	-1	STREAM	1392	n/a	5	-1	n/a	n/a	n/a	n/a	n/a
2981493	RECOG_TARGET	n/a	LTP211	ltpFR	6	4	-1	ASHTRAY	45	1	5	-1	n/a	n/a	n/a	n/a	n/a
2982140	RECOG_RESP	n/a	LTP211	ltpFR	6	4	-1	ASHTRAY	45	1	n/a	-1	n/a	n/a	n/a	n/a	n/a
2982828	RECOG_CONF	n/a	LTP211	ltpFR	6	4	-1	ASHTRAY	45	n/a	5	-1	n/a	n/a	n/a	n/a	n/a
2984771	RECOG_TARGET	n/a	LTP211	ltpFR	6	4	0	YACHT	1629	1	5	1	n/a	n/a	n/a	n/a	n/a
2985386	RECOG_RESP	n/a	LTP211	ltpFR	6	4	0	YACHT	1629	1	n/a	1	n/a	n/a	n/a	n/a	n/a
2986204	RECOG_CONF	n/a	LTP211	ltpFR	6	4	0	YACHT	1629	n/a	5	1	n/a	n/a	n/a	n/a	n/a
2988033	RECOG_TARGET	n/a	LTP211	ltpFR	6	4	0	FACE	547	1	5	1	n/a	n/a	n/a	n/a	n/a
2988675	RECOG_RESP	n/a	LTP211	ltpFR	6	4	0	FACE	547	1	n/a	1	n/a	n/a	n/a	n/a	n/a
2989335	RECOG_CONF	n/a	LTP211	ltpFR	6	4	0	FACE	547	n/a	5	1	n/a	n/a	n/a	n/a	n/a
2998464	REC_START	n/a	LTP211	ltpFR	6	5	n/a	n/a	n/a	n/a	n/a	n/a	n/a	n/a	n/a	n/a	n/a
2998501	RECOG_TARGET	n/a	LTP211	ltpFR	6	5	-1	COMMANDER	354	1	4	-1	n/a	n/a	n/a	n/a	n/a
2999262	RECOG_RESP	n/a	LTP211	ltpFR	6	5	-1	COMMANDER	354	1	n/a	-1	n/a	n/a	n/a	n/a	n/a
3000054	RECOG_CONF	n/a	LTP211	ltpFR	6	5	-1	COMMANDER	354	n/a	4	-1	n/a	n/a	n/a	n/a	n/a
3001679	RECOG_TARGET	n/a	LTP211	ltpFR	6	5	1	IRON	744	1	4	0	n/a	n/a	n/a	n/a	n/a
3002243	RECOG_RESP	n/a	LTP211	ltpFR	6	5	1	IRON	744	1	n/a	0	n/a	n/a	n/a	n/a	n/a
3002954	RECOG_CONF	n/a	LTP211	ltpFR	6	5	1	IRON	744	n/a	4	0	n/a	n/a	n/a	n/a	n/a
3004791	RECOG_TARGET	n/a	LTP211	ltpFR	6	5	0	EDITOR	516	1	5	1	n/a	n/a	n/a	n/a	n/a
3005243	RECOG_RESP	n/a	LTP211	ltpFR	6	5	0	EDITOR	516	1	n/a	1	n/a	n/a	n/a	n/a	n/a
3006161	RECOG_CONF	n/a	LTP211	ltpFR	6	5	0	EDITOR	516	n/a	5	1	n/a	n/a	n/a	n/a	n/a
3007887	RECOG_TARGET	n/a	LTP211	ltpFR	6	5	-1	WEB	1598	1	5	-1	n/a	n/a	n/a	n/a	n/a
3008489	RECOG_RESP	n/a	LTP211	ltpFR	6	5	-1	WEB	1598	1	n/a	-1	n/a	n/a	n/a	n/a	n/a
3009918	RECOG_CONF	n/a	LTP211	ltpFR	6	5	-1	WEB	1598	n/a	5	-1	n/a	n/a	n/a	n/a	n/a
3011714	RECOG_TARGET	n/a	LTP211	ltpFR	6	5	1	COMPUTER	359	1	4	0	n/a	n/a	n/a	n/a	n/a
3012864	RECOG_RESP	n/a	LTP211	ltpFR	6	5	1	COMPUTER	359	1	n/a	0	n/a	n/a	n/a	n/a	n/a
3013774	RECOG_CONF	n/a	LTP211	ltpFR	6	5	1	COMPUTER	359	n/a	4	0	n/a	n/a	n/a	n/a	n/a
3015393	RECOG_TARGET	n/a	LTP211	ltpFR	6	5	1	GROCERIES	663	1	5	0	n/a	n/a	n/a	n/a	n/a
3016037	RECOG_RESP	n/a	LTP211	ltpFR	6	5	1	GROCERIES	663	1	n/a	0	n/a	n/a	n/a	n/a	n/a
3016792	RECOG_CONF	n/a	LTP211	ltpFR	6	5	1	GROCERIES	663	n/a	5	0	n/a	n/a	n/a	n/a	n/a
3018454	RECOG_TARGET	n/a	LTP211	ltpFR	6	5	-1	NICKEL	950	0	3	-1	n/a	n/a	n/a	n/a	n/a
3019509	RECOG_RESP	n/a	LTP211	ltpFR	6	5	-1	NICKEL	950	0	n/a	-1	n/a	n/a	n/a	n/a	n/a
3020443	RECOG_CONF	n/a	LTP211	ltpFR	6	5	-1	NICKEL	950	n/a	3	-1	n/a	n/a	n/a	n/a	n/a
3022283	RECOG_TARGET	n/a	LTP211	ltpFR	6	5	1	EMPLOYER	532	1	5	1	n/a	n/a	n/a	n/a	n/a
3023502	RECOG_RESP	n/a	LTP211	ltpFR	6	5	1	EMPLOYER	532	1	n/a	1	n/a	n/a	n/a	n/a	n/a
3024317	RECOG_CONF	n/a	LTP211	ltpFR	6	5	1	EMPLOYER	532	n/a	5	1	n/a	n/a	n/a	n/a	n/a
3026093	RECOG_TARGET	n/a	LTP211	ltpFR	6	5	1	SCRIBBLE	1256	1	5	0	n/a	n/a	n/a	n/a	n/a
3026747	RECOG_RESP	n/a	LTP211	ltpFR	6	5	1	SCRIBBLE	1256	1	n/a	0	n/a	n/a	n/a	n/a	n/a
3027662	RECOG_CONF	n/a	LTP211	ltpFR	6	5	1	SCRIBBLE	1256	n/a	5	0	n/a	n/a	n/a	n/a	n/a
3029239	RECOG_TARGET	n/a	LTP211	ltpFR	6	5	-1	SPOOL	1356	1	5	-1	n/a	n/a	n/a	n/a	n/a
3029895	RECOG_RESP	n/a	LTP211	ltpFR	6	5	-1	SPOOL	1356	1	n/a	-1	n/a	n/a	n/a	n/a	n/a
3030735	RECOG_CONF	n/a	LTP211	ltpFR	6	5	-1	SPOOL	1356	n/a	5	-1	n/a	n/a	n/a	n/a	n/a
3032351	RECOG_LURE	n/a	LTP211	ltpFR	6	5	n/a	SANDPAPER	1231	0	5	n/a	n/a	n/a	n/a	n/a	n/a
3033130	RECOG_RESP	n/a	LTP211	ltpFR	6	5	n/a	SANDPAPER	1231	0	n/a	n/a	n/a	n/a	n/a	n/a	n/a
3033978	RECOG_CONF	n/a	LTP211	ltpFR	6	5	n/a	SANDPAPER	1231	n/a	5	n/a	n/a	n/a	n/a	n/a	n/a
3035778	RECOG_LURE	n/a	LTP211	ltpFR	6	5	n/a	JURY	766	0	5	n/a	n/a	n/a	n/a	n/a	n/a
3036445	RECOG_RESP	n/a	LTP211	ltpFR	6	5	n/a	JURY	766	0	n/a	n/a	n/a	n/a	n/a	n/a	n/a
3037340	RECOG_CONF	n/a	LTP211	ltpFR	6	5	n/a	JURY	766	n/a	5	n/a	n/a	n/a	n/a	n/a	n/a
3038990	RECOG_TARGET	n/a	LTP211	ltpFR	6	5	-1	CHAMBER	277	1	5	-1	n/a	n/a	n/a	n/a	n/a
3039750	RECOG_RESP	n/a	LTP211	ltpFR	6	5	-1	CHAMBER	277	1	n/a	-1	n/a	n/a	n/a	n/a	n/a
3040623	RECOG_CONF	n/a	LTP211	ltpFR	6	5	-1	CHAMBER	277	n/a	5	-1	n/a	n/a	n/a	n/a	n/a
3042468	RECOG_TARGET	n/a	LTP211	ltpFR	6	5	0	ELECTRON	522	1	4	0	n/a	n/a	n/a	n/a	n/a
3043131	RECOG_RESP	n/a	LTP211	ltpFR	6	5	0	ELECTRON	522	1	n/a	0	n/a	n/a	n/a	n/a	n/a
3043985	RECOG_CONF	n/a	LTP211	ltpFR	6	5	0	ELECTRON	522	n/a	4	0	n/a	n/a	n/a	n/a	n/a
3045730	RECOG_TARGET	n/a	LTP211	ltpFR	6	5	0	CARPET	247	1	4	1	n/a	n/a	n/a	n/a	n/a
3046348	RECOG_RESP	n/a	LTP211	ltpFR	6	5	0	CARPET	247	1	n/a	1	n/a	n/a	n/a	n/a	n/a
3047248	RECOG_CONF	n/a	LTP211	ltpFR	6	5	0	CARPET	247	n/a	4	1	n/a	n/a	n/a	n/a	n/a
3048842	RECOG_LURE	n/a	LTP211	ltpFR	6	5	n/a	EDITORIAL	517	0	4	n/a	n/a	n/a	n/a	n/a	n/a
3049768	RECOG_RESP	n/a	LTP211	ltpFR	6	5	n/a	EDITORIAL	517	0	n/a	n/a	n/a	n/a	n/a	n/a	n/a
3051218	RECOG_CONF	n/a	LTP211	ltpFR	6	5	n/a	EDITORIAL	517	n/a	4	n/a	n/a	n/a	n/a	n/a	n/a
3052919	RECOG_TARGET	n/a	LTP211	ltpFR	6	5	1	VISITOR	1573	1	5	1	n/a	n/a	n/a	n/a	n/a
3053605	RECOG_RESP	n/a	LTP211	ltpFR	6	5	1	VISITOR	1573	1	n/a	1	n/a	n/a	n/a	n/a	n/a
3054651	RECOG_CONF	n/a	LTP211	ltpFR	6	5	1	VISITOR	1573	n/a	5	1	n/a	n/a	n/a	n/a	n/a
3056514	RECOG_LURE	n/a	LTP211	ltpFR	6	5	n/a	RING	1193	0	5	n/a	n/a	n/a	n/a	n/a	n/a
3057213	RECOG_RESP	n/a	LTP211	ltpFR	6	5	n/a	RING	1193	0	n/a	n/a	n/a	n/a	n/a	n/a	n/a
3057900	RECOG_CONF	n/a	LTP211	ltpFR	6	5	n/a	RING	1193	n/a	5	n/a	n/a	n/a	n/a	n/a	n/a
3059809	RECOG_TARGET	n/a	LTP211	ltpFR	6	5	1	SPRINKLE	1359	1	5	0	n/a	n/a	n/a	n/a	n/a
3060510	RECOG_RESP	n/a	LTP211	ltpFR	6	5	1	SPRINKLE	1359	1	n/a	0	n/a	n/a	n/a	n/a	n/a
3061456	RECOG_CONF	n/a	LTP211	ltpFR	6	5	1	SPRINKLE	1359	n/a	5	0	n/a	n/a	n/a	n/a	n/a
3063088	RECOG_TARGET	n/a	LTP211	ltpFR	6	5	-1	LETTUCE	814	1	5	-1	n/a	n/a	n/a	n/a	n/a
3063786	RECOG_RESP	n/a	LTP211	ltpFR	6	5	-1	LETTUCE	814	1	n/a	-1	n/a	n/a	n/a	n/a	n/a
3064698	RECOG_CONF	n/a	LTP211	ltpFR	6	5	-1	LETTUCE	814	n/a	5	-1	n/a	n/a	n/a	n/a	n/a
3068601	REC_START	n/a	LTP211	ltpFR	6	6	n/a	n/a	n/a	n/a	n/a	n/a	n/a	n/a	n/a	n/a	n/a
3068629	RECOG_TARGET	n/a	LTP211	ltpFR	6	6	0	TERMITE	1451	1	5	0	n/a	n/a	n/a	n/a	n/a
3069256	RECOG_RESP	n/a	LTP211	ltpFR	6	6	0	TERMITE	1451	1	n/a	0	n/a	n/a	n/a	n/a	n/a
3070252	RECOG_CONF	n/a	LTP211	ltpFR	6	6	0	TERMITE	1451	n/a	5	0	n/a	n/a	n/a	n/a	n/a
3072024	RECOG_LURE	n/a	LTP211	ltpFR	6	6	n/a	GORILLA	650	0	5	n/a	n/a	n/a	n/a	n/a	n/a
3072627	RECOG_RESP	n/a	LTP211	ltpFR	6	6	n/a	GORILLA	650	0	n/a	n/a	n/a	n/a	n/a	n/a	n/a
3073455	RECOG_CONF	n/a	LTP211	ltpFR	6	6	n/a	GORILLA	650	n/a	5	n/a	n/a	n/a	n/a	n/a	n/a
3075220	RECOG_TARGET	n/a	LTP211	ltpFR	6	6	0	REPORT	1184	1	4	0	n/a	n/a	n/a	n/a	n/a
3075972	RECOG_RESP	n/a	LTP211	ltpFR	6	6	0	REPORT	1184	1	n/a	0	n/a	n/a	n/a	n/a	n/a
3076683	RECOG_CONF	n/a	LTP211	ltpFR	6	6	0	REPORT	1184	n/a	4	0	n/a	n/a	n/a	n/a	n/a
3078481	RECOG_TARGET	n/a	LTP211	ltpFR	6	6	0	BAY	102	1	5	1	n/a	n/a	n/a	n/a	n/a
3079025	RECOG_RESP	n/a	LTP211	ltpFR	6	6	0	BAY	102	1	n/a	1	n/a	n/a	n/a	n/a	n/a
3079700	RECOG_CONF	n/a	LTP211	ltpFR	6	6	0	BAY	102	n/a	5	1	n/a	n/a	n/a	n/a	n/a
3081527	RECOG_TARGET	n/a	LTP211	ltpFR	6	6	1	PARROT	1015	1	5	0	n/a	n/a	n/a	n/a	n/a
3082085	RECOG_RESP	n/a	LTP211	ltpFR	6	6	1	PARROT	1015	1	n/a	0	n/a	n/a	n/a	n/a	n/a
3082877	RECOG_CONF	n/a	LTP211	ltpFR	6	6	1	PARROT	1015	n/a	5	0	n/a	n/a	n/a	n/a	n/a
3084605	RECOG_TARGET	n/a	LTP211	ltpFR	6	6	1	SOFA	1342	1	5	0	n/a	n/a	n/a	n/a	n/a
3085126	RECOG_RESP	n/a	LTP211	ltpFR	6	6	1	SOFA	1342	1	n/a	0	n/a	n/a	n/a	n/a	n/a
3085956	RECOG_CONF	n/a	LTP211	ltpFR	6	6	1	SOFA	1342	n/a	5	0	n/a	n/a	n/a	n/a	n/a
3087484	RECOG_TARGET	n/a	LTP211	ltpFR	6	6	-1	CHIP	303	1	4	-1	n/a	n/a	n/a	n/a	n/a
3088229	RECOG_RESP	n/a	LTP211	ltpFR	6	6	-1	CHIP	303	1	n/a	-1	n/a	n/a	n/a	n/a	n/a
3089030	RECOG_CONF	n/a	LTP211	ltpFR	6	6	-1	CHIP	303	n/a	4	-1	n/a	n/a	n/a	n/a	n/a
3090829	RECOG_LURE	n/a	LTP211	ltpFR	6	6	n/a	BEDROOM	111	0	3	n/a	n/a	n/a	n/a	n/a	n/a
3091728	RECOG_RESP	n/a	LTP211	ltpFR	6	6	n/a	BEDROOM	111	0	n/a	n/a	n/a	n/a	n/a	n/a	n/a
3092647	RECOG_CONF	n/a	LTP211	ltpFR	6	6	n/a	BEDROOM	111	n/a	3	n/a	n/a	n/a	n/a	n/a	n/a
3094359	RECOG_TARGET	n/a	LTP211	ltpFR	6	6	-1	MARKER	870	1	5	-1	n/a	n/a	n/a	n/a	n/a
3094985	RECOG_RESP	n/a	LTP211	ltpFR	6	6	-1	MARKER	870	1	n/a	-1	n/a	n/a	n/a	n/a	n/a
3095834	RECOG_CONF	n/a	LTP211	ltpFR	6	6	-1	MARKER	870	n/a	5	-1	n/a	n/a	n/a	n/a	n/a
3097503	RECOG_TARGET	n/a	LTP211	ltpFR	6	6	0	MUFFIN	929	1	5	0	n/a	n/a	n/a	n/a	n/a
3098037	RECOG_RESP	n/a	LTP211	ltpFR	6	6	0	MUFFIN	929	1	n/a	0	n/a	n/a	n/a	n/a	n/a
3098834	RECOG_CONF	n/a	LTP211	ltpFR	6	6	0	MUFFIN	929	n/a	5	0	n/a	n/a	n/a	n/a	n/a
3100548	RECOG_TARGET	n/a	LTP211	ltpFR	6	6	1	BEARD	107	1	5	0	n/a	n/a	n/a	n/a	n/a
3101112	RECOG_RESP	n/a	LTP211	ltpFR	6	6	1	BEARD	107	1	n/a	0	n/a	n/a	n/a	n/a	n/a
3101920	RECOG_CONF	n/a	LTP211	ltpFR	6	6	1	BEARD	107	n/a	5	0	n/a	n/a	n/a	n/a	n/a
3103444	RECOG_TARGET	n/a	LTP211	ltpFR	6	6	-1	CUCUMBER	421	1	5	-1	n/a	n/a	n/a	n/a	n/a
3103968	RECOG_RESP	n/a	LTP211	ltpFR	6	6	-1	CUCUMBER	421	1	n/a	-1	n/a	n/a	n/a	n/a	n/a
3104714	RECOG_CONF	n/a	LTP211	ltpFR	6	6	-1	CUCUMBER	421	n/a	5	-1	n/a	n/a	n/a	n/a	n/a
3106456	RECOG_LURE	n/a	LTP211	ltpFR	6	6	n/a	SERGEANT	1269	0	4	n/a	n/a	n/a	n/a	n/a	n/a
3107181	RECOG_RESP	n/a	LTP211	ltpFR	6	6	n/a	SERGEANT	1269	0	n/a	n/a	n/a	n/a	n/a	n/a	n/a
3108156	RECOG_CONF	n/a	LTP211	ltpFR	6	6	n/a	SERGEANT	1269	n/a	4	n/a	n/a	n/a	n/a	n/a	n/a
3109868	RECOG_TARGET	n/a	LTP211	ltpFR	6	6	0	CABINET	212	1	5	1	n/a	n/a	n/a	n/a	n/a
3110332	RECOG_RESP	n/a	LTP211	ltpFR	6	6	0	CABINET	212	1	n/a	1	n/a	n/a	n/a	n/a	n/a
3111126	RECOG_CONF	n/a	LTP211	ltpFR	6	6	0	CABINET	212	n/a	5	1	n/a	n/a	n/a	n/a	n/a
3112863	RECOG_TARGET	n/a	LTP211	ltpFR	6	6	0	FLESH	579	1	5	0	n/a	n/a	n/a	n/a	n/a
3113439	RECOG_RESP	n/a	LTP211	ltpFR	6	6	0	FLESH	579	1	n/a	0	n/a	n/a	n/a	n/a	n/a
3114221	RECOG_CONF	n/a	LTP211	ltpFR	6	6	0	FLESH	579	n/a	5	0	n/a	n/a	n/a	n/a	n/a
3116042	RECOG_TARGET	n/a	LTP211	ltpFR	6	6	-1	PAVEMENT	1028	1	4	-1	n/a	n/a	n/a	n/a	n/a
3116673	RECOG_RESP	n/a	LTP211	ltpFR	6	6	-1	PAVEMENT	1028	1	n/a	-1	n/a	n/a	n/a	n/a	n/a
3117535	RECOG_CONF	n/a	LTP211	ltpFR	6	6	-1	PAVEMENT	1028	n/a	4	-1	n/a	n/a	n/a	n/a	n/a
