mstime	trial_type	stim_file	subject	experiment	session	trial	task	item_name	item_num	recog_conf	resp	color_b	color_g	color_r	case	font
0	SESS_START	n/a	LTP256	ltpFR	4	n/a	n/a	n/a	n/a	5	n/a	n/a	n/a	n/a	n/a	n/a
36781	WORD	wordpools/wasnorm_wordpool_less_exclusions.txt	LTP256	ltpFR	4	1	1	TELEVISION	1447	n/a	0	0	0.5869140625	0.422607421875	upper	../fonts/zerothre.ttf
40657	WORD	wordpools/wasnorm_wordpool_less_exclusions.txt	LTP256	ltpFR	4	1	1	CONTRACT	368	n/a	0	0	0.5869140625	0.422607421875	upper	../fonts/zerothre.ttf
44802	WORD	wordpools/wasnorm_wordpool_less_exclusions.txt	LTP256	ltpFR	4	1	1	HALL	677	n/a	0	0	0.5869140625	0.422607421875	upper	../fonts/zerothre.ttf
48963	WORD	wordpools/wasnorm_wordpool_less_exclusions.txt	LTP256	ltpFR	4	1	1	COLONEL	348	n/a	1	0	0.5869140625	0.422607421875	upper	../fonts/zerothre.ttf
53123	WORD	wordpools/wasnorm_wordpool_less_exclusions.txt	LTP256	ltpFR	4	1	0	WRITER	1627	n/a	1	1	0.412841796875	0.57763671875	lower	../fonts/amplitud.ttf
57101	WORD	wordpools/wasnorm_wordpool_less_exclusions.txt	LTP256	ltpFR	4	1	0	WORM	1623	n/a	0	1	0.412841796875	0.57763671875	lower	../fonts/amplitud.ttf
61011	WORD	wordpools/wasnorm_wordpool_less_exclusions.txt	LTP256	ltpFR	4	1	0	STRAWBERRY	1391	n/a	0	1	0.412841796875	0.57763671875	lower	../fonts/amplitud.ttf
65072	WORD	wordpools/wasnorm_wordpool_less_exclusions.txt	LTP256	ltpFR	4	1	0	FRUIT	610	n/a	0	1	0.412841796875	0.57763671875	lower	../fonts/amplitud.ttf
68999	WORD	wordpools/wasnorm_wordpool_less_exclusions.txt	LTP256	ltpFR	4	1	1	CASH	252	n/a	0	0	0.5869140625	0.422607421875	upper	../fonts/zerothre.ttf
72960	WORD	wordpools/wasnorm_wordpool_less_exclusions.txt	LTP256	ltpFR	4	1	1	CREATURE	403	n/a	1	0	0.5869140625	0.422607421875	upper	../fonts/zerothre.ttf
76921	WORD	wordpools/wasnorm_wordpool_less_exclusions.txt	LTP256	ltpFR	4	1	1	MONSTER	912	n/a	1	0	0.5869140625	0.422607421875	upper	../fonts/zerothre.ttf
80898	WORD	wordpools/wasnorm_wordpool_less_exclusions.txt	LTP256	ltpFR	4	1	1	CAP	236	n/a	0	0	0.5869140625	0.422607421875	upper	../fonts/zerothre.ttf
84759	WORD	wordpools/wasnorm_wordpool_less_exclusions.txt	LTP256	ltpFR	4	1	0	CIGARETTE	309	n/a	0	1	0.412841796875	0.57763671875	lower	../fonts/amplitud.ttf
88903	WORD	wordpools/wasnorm_wordpool_less_exclusions.txt	LTP256	ltpFR	4	1	0	EYELASH	546	n/a	0	1	0.412841796875	0.57763671875	lower	../fonts/amplitud.ttf
92781	WORD	wordpools/wasnorm_wordpool_less_exclusions.txt	LTP256	ltpFR	4	1	0	JACKET	747	n/a	1	1	0.412841796875	0.57763671875	lower	../fonts/amplitud.ttf
96758	WORD	wordpools/wasnorm_wordpool_less_exclusions.txt	LTP256	ltpFR	4	1	0	ASHTRAY	45	n/a	0	1	0.412841796875	0.57763671875	lower	../fonts/amplitud.ttf
102533	REC_START	n/a	LTP256	ltpFR	4	1	n/a	n/a	n/a	n/a	n/a	n/a	n/a	n/a	n/a	n/a
103214	REC_WORD	wordpools/wasnorm_wordpool_less_exclusions.txt	LTP256	ltpFR	4	1	0	CIGARETTE	309	n/a	0	n/a	n/a	n/a	n/a	n/a
104500	REC_WORD	wordpools/wasnorm_wordpool_less_exclusions.txt	LTP256	ltpFR	4	1	0	ASHTRAY	45	n/a	0	n/a	n/a	n/a	n/a	n/a
105805	REC_WORD	wordpools/wasnorm_wordpool_less_exclusions.txt	LTP256	ltpFR	4	1	1	COLONEL	348	n/a	1	n/a	n/a	n/a	n/a	n/a
106854	REC_WORD	wordpools/wasnorm_wordpool_less_exclusions.txt	LTP256	ltpFR	4	1	1	HALL	677	n/a	0	n/a	n/a	n/a	n/a	n/a
108546	REC_WORD	wordpools/wasnorm_wordpool_less_exclusions.txt	LTP256	ltpFR	4	1	0	FRUIT	610	n/a	0	n/a	n/a	n/a	n/a	n/a
109523	REC_WORD	wordpools/wasnorm_wordpool_less_exclusions.txt	LTP256	ltpFR	4	1	0	STRAWBERRY	1391	n/a	0	n/a	n/a	n/a	n/a	n/a
110890	REC_WORD	wordpools/wasnorm_wordpool_less_exclusions.txt	LTP256	ltpFR	4	1	0	WORM	1623	n/a	0	n/a	n/a	n/a	n/a	n/a
113086	REC_WORD	wordpools/wasnorm_wordpool_less_exclusions.txt	LTP256	ltpFR	4	1	1	CREATURE	403	n/a	1	n/a	n/a	n/a	n/a	n/a
114227	REC_WORD	wordpools/wasnorm_wordpool_less_exclusions.txt	LTP256	ltpFR	4	1	1	MONSTER	912	n/a	1	n/a	n/a	n/a	n/a	n/a
115444	REC_WORD	wordpools/wasnorm_wordpool_less_exclusions.txt	LTP256	ltpFR	4	1	0	EYELASH	546	n/a	0	n/a	n/a	n/a	n/a	n/a
182280	WORD	wordpools/wasnorm_wordpool_less_exclusions.txt	LTP256	ltpFR	4	2	0	POSSUM	1112	n/a	0	1	0.412841796875	0.57763671875	lower	../fonts/amplitud.ttf
186224	WORD	wordpools/wasnorm_wordpool_less_exclusions.txt	LTP256	ltpFR	4	2	0	RACCOON	1153	n/a	1	1	0.412841796875	0.57763671875	lower	../fonts/amplitud.ttf
190335	WORD	wordpools/wasnorm_wordpool_less_exclusions.txt	LTP256	ltpFR	4	2	0	TWIG	1527	n/a	0	1	0.412841796875	0.57763671875	lower	../fonts/amplitud.ttf
194162	WORD	wordpools/wasnorm_wordpool_less_exclusions.txt	LTP256	ltpFR	4	2	0	WITCH	1617	n/a	1	1	0.412841796875	0.57763671875	lower	../fonts/amplitud.ttf
197990	WORD	wordpools/wasnorm_wordpool_less_exclusions.txt	LTP256	ltpFR	4	2	1	HEADBAND	696	n/a	0	0	0.5869140625	0.422607421875	upper	../fonts/zerothre.ttf
202051	WORD	wordpools/wasnorm_wordpool_less_exclusions.txt	LTP256	ltpFR	4	2	1	DOLPHIN	483	n/a	1	0	0.5869140625	0.422607421875	upper	../fonts/zerothre.ttf
206028	WORD	wordpools/wasnorm_wordpool_less_exclusions.txt	LTP256	ltpFR	4	2	1	SQUID	1361	n/a	1	0	0.5869140625	0.422607421875	upper	../fonts/zerothre.ttf
210172	WORD	wordpools/wasnorm_wordpool_less_exclusions.txt	LTP256	ltpFR	4	2	0	MANSION	864	n/a	1	1	0.412841796875	0.57763671875	lower	../fonts/amplitud.ttf
214316	WORD	wordpools/wasnorm_wordpool_less_exclusions.txt	LTP256	ltpFR	4	2	0	TYPEWRITER	1531	n/a	1	1	0.412841796875	0.57763671875	lower	../fonts/amplitud.ttf
218293	WORD	wordpools/wasnorm_wordpool_less_exclusions.txt	LTP256	ltpFR	4	2	1	SHEET	1279	n/a	0	0	0.5869140625	0.422607421875	upper	../fonts/zerothre.ttf
222470	WORD	wordpools/wasnorm_wordpool_less_exclusions.txt	LTP256	ltpFR	4	2	1	COCOON	339	n/a	0	0	0.5869140625	0.422607421875	upper	../fonts/zerothre.ttf
226546	WORD	wordpools/wasnorm_wordpool_less_exclusions.txt	LTP256	ltpFR	4	2	1	PARSLEY	1016	n/a	0	0	0.5869140625	0.422607421875	upper	../fonts/zerothre.ttf
230607	WORD	wordpools/wasnorm_wordpool_less_exclusions.txt	LTP256	ltpFR	4	2	1	BULB	192	n/a	0	0	0.5869140625	0.422607421875	upper	../fonts/zerothre.ttf
234584	WORD	wordpools/wasnorm_wordpool_less_exclusions.txt	LTP256	ltpFR	4	2	1	TREE	1502	n/a	1	0	0.5869140625	0.422607421875	upper	../fonts/zerothre.ttf
238812	WORD	wordpools/wasnorm_wordpool_less_exclusions.txt	LTP256	ltpFR	4	2	0	BROCCOLI	176	n/a	0	1	0.412841796875	0.57763671875	lower	../fonts/amplitud.ttf
242806	WORD	wordpools/wasnorm_wordpool_less_exclusions.txt	LTP256	ltpFR	4	2	0	THICKET	1455	n/a	1	1	0.412841796875	0.57763671875	lower	../fonts/amplitud.ttf
248564	REC_START	n/a	LTP256	ltpFR	4	2	n/a	n/a	n/a	n/a	n/a	n/a	n/a	n/a	n/a	n/a
249607	REC_WORD	wordpools/wasnorm_wordpool_less_exclusions.txt	LTP256	ltpFR	4	2	0	THICKET	1455	n/a	1	n/a	n/a	n/a	n/a	n/a
250616	REC_WORD_VV	wordpools/wasnorm_wordpool_less_exclusions.txt	LTP256	ltpFR	4	2	n/a	<>	-1	n/a	n/a	n/a	n/a	n/a	n/a	n/a
251209	REC_WORD	wordpools/wasnorm_wordpool_less_exclusions.txt	LTP256	ltpFR	4	2	0	BROCCOLI	176	n/a	0	n/a	n/a	n/a	n/a	n/a
252695	REC_WORD	wordpools/wasnorm_wordpool_less_exclusions.txt	LTP256	ltpFR	4	2	0	TWIG	1527	n/a	0	n/a	n/a	n/a	n/a	n/a
254015	REC_WORD	wordpools/wasnorm_wordpool_less_exclusions.txt	LTP256	ltpFR	4	2	1	TREE	1502	n/a	1	n/a	n/a	n/a	n/a	n/a
255229	REC_WORD	wordpools/wasnorm_wordpool_less_exclusions.txt	LTP256	ltpFR	4	2	0	WITCH	1617	n/a	1	n/a	n/a	n/a	n/a	n/a
256300	REC_WORD	wordpools/wasnorm_wordpool_less_exclusions.txt	LTP256	ltpFR	4	2	0	POSSUM	1112	n/a	0	n/a	n/a	n/a	n/a	n/a
257343	REC_WORD	wordpools/wasnorm_wordpool_less_exclusions.txt	LTP256	ltpFR	4	2	0	RACCOON	1153	n/a	1	n/a	n/a	n/a	n/a	n/a
258731	REC_WORD	wordpools/wasnorm_wordpool_less_exclusions.txt	LTP256	ltpFR	4	2	0	MANSION	864	n/a	1	n/a	n/a	n/a	n/a	n/a
260949	REC_WORD	wordpools/wasnorm_wordpool_less_exclusions.txt	LTP256	ltpFR	4	2	1	BULB	192	n/a	0	n/a	n/a	n/a	n/a	n/a
264602	REC_WORD	wordpools/wasnorm_wordpool_less_exclusions.txt	LTP256	ltpFR	4	2	1	DOLPHIN	483	n/a	1	n/a	n/a	n/a	n/a	n/a
270681	REC_WORD	wordpools/wasnorm_wordpool_less_exclusions.txt	LTP256	ltpFR	4	2	1	HEADBAND	696	n/a	0	n/a	n/a	n/a	n/a	n/a
327413	WORD	wordpools/wasnorm_wordpool_less_exclusions.txt	LTP256	ltpFR	4	3	1	SPONGE	1355	n/a	0	0	0.5869140625	0.422607421875	upper	../fonts/zerothre.ttf
331308	WORD	wordpools/wasnorm_wordpool_less_exclusions.txt	LTP256	ltpFR	4	3	1	BARK	87	n/a	0	0	0.5869140625	0.422607421875	upper	../fonts/zerothre.ttf
335485	WORD	wordpools/wasnorm_wordpool_less_exclusions.txt	LTP256	ltpFR	4	3	1	PUBLISHER	1137	n/a	1	0	0.5869140625	0.422607421875	upper	../fonts/zerothre.ttf
339594	WORD	wordpools/wasnorm_wordpool_less_exclusions.txt	LTP256	ltpFR	4	3	1	AUTHOR	61	n/a	1	0	0.5869140625	0.422607421875	upper	../fonts/zerothre.ttf
343423	WORD	wordpools/wasnorm_wordpool_less_exclusions.txt	LTP256	ltpFR	4	3	1	INSECT	740	n/a	1	0	0.5869140625	0.422607421875	upper	../fonts/zerothre.ttf
347599	WORD	wordpools/wasnorm_wordpool_less_exclusions.txt	LTP256	ltpFR	4	3	1	RUNNER	1218	n/a	1	0	0.5869140625	0.422607421875	upper	../fonts/zerothre.ttf
351477	WORD	wordpools/wasnorm_wordpool_less_exclusions.txt	LTP256	ltpFR	4	3	1	SWIMMER	1420	n/a	1	0	0.5869140625	0.422607421875	upper	../fonts/zerothre.ttf
355670	WORD	wordpools/wasnorm_wordpool_less_exclusions.txt	LTP256	ltpFR	4	3	1	SIDING	1304	n/a	0	0	0.5869140625	0.422607421875	upper	../fonts/zerothre.ttf
359732	WORD	wordpools/wasnorm_wordpool_less_exclusions.txt	LTP256	ltpFR	4	3	1	BLUEPRINT	142	n/a	0	0	0.5869140625	0.422607421875	upper	../fonts/zerothre.ttf
363592	WORD	wordpools/wasnorm_wordpool_less_exclusions.txt	LTP256	ltpFR	4	3	1	MOON	914	n/a	0	0	0.5869140625	0.422607421875	upper	../fonts/zerothre.ttf
367536	WORD	wordpools/wasnorm_wordpool_less_exclusions.txt	LTP256	ltpFR	4	3	1	BIOLOGIST	128	n/a	1	0	0.5869140625	0.422607421875	upper	../fonts/zerothre.ttf
371498	WORD	wordpools/wasnorm_wordpool_less_exclusions.txt	LTP256	ltpFR	4	3	1	BIBLE	124	n/a	0	0	0.5869140625	0.422607421875	upper	../fonts/zerothre.ttf
375359	WORD	wordpools/wasnorm_wordpool_less_exclusions.txt	LTP256	ltpFR	4	3	1	LIBRARY	816	n/a	0	0	0.5869140625	0.422607421875	upper	../fonts/zerothre.ttf
379386	WORD	wordpools/wasnorm_wordpool_less_exclusions.txt	LTP256	ltpFR	4	3	1	DOG	480	n/a	1	0	0.5869140625	0.422607421875	upper	../fonts/zerothre.ttf
383330	WORD	wordpools/wasnorm_wordpool_less_exclusions.txt	LTP256	ltpFR	4	3	1	SAPPHIRE	1234	n/a	0	0	0.5869140625	0.422607421875	upper	../fonts/zerothre.ttf
387257	WORD	wordpools/wasnorm_wordpool_less_exclusions.txt	LTP256	ltpFR	4	3	1	DIAMOND	458	n/a	0	0	0.5869140625	0.422607421875	upper	../fonts/zerothre.ttf
393149	REC_START	n/a	LTP256	ltpFR	4	3	n/a	n/a	n/a	n/a	n/a	n/a	n/a	n/a	n/a	n/a
393657	REC_WORD	wordpools/wasnorm_wordpool_less_exclusions.txt	LTP256	ltpFR	4	3	1	SAPPHIRE	1234	n/a	0	n/a	n/a	n/a	n/a	n/a
395028	REC_WORD	wordpools/wasnorm_wordpool_less_exclusions.txt	LTP256	ltpFR	4	3	1	DIAMOND	458	n/a	0	n/a	n/a	n/a	n/a	n/a
398037	REC_WORD	wordpools/wasnorm_wordpool_less_exclusions.txt	LTP256	ltpFR	4	3	1	PUBLISHER	1137	n/a	1	n/a	n/a	n/a	n/a	n/a
399446	REC_WORD	wordpools/wasnorm_wordpool_less_exclusions.txt	LTP256	ltpFR	4	3	0	WRITER	1627	n/a	1	n/a	n/a	n/a	n/a	n/a
401881	REC_WORD	wordpools/wasnorm_wordpool_less_exclusions.txt	LTP256	ltpFR	4	3	1	RUNNER	1218	n/a	1	n/a	n/a	n/a	n/a	n/a
404066	REC_WORD	wordpools/wasnorm_wordpool_less_exclusions.txt	LTP256	ltpFR	4	3	1	SWIMMER	1420	n/a	1	n/a	n/a	n/a	n/a	n/a
410975	REC_WORD	wordpools/wasnorm_wordpool_less_exclusions.txt	LTP256	ltpFR	4	3	1	MOON	914	n/a	0	n/a	n/a	n/a	n/a	n/a
416883	REC_WORD	wordpools/wasnorm_wordpool_less_exclusions.txt	LTP256	ltpFR	4	3	1	BIOLOGIST	128	n/a	1	n/a	n/a	n/a	n/a	n/a
418291	REC_WORD	wordpools/wasnorm_wordpool_less_exclusions.txt	LTP256	ltpFR	4	3	1	BIBLE	124	n/a	0	n/a	n/a	n/a	n/a	n/a
419551	REC_WORD	wordpools/wasnorm_wordpool_less_exclusions.txt	LTP256	ltpFR	4	3	1	LIBRARY	816	n/a	0	n/a	n/a	n/a	n/a	n/a
421358	REC_WORD	wordpools/wasnorm_wordpool_less_exclusions.txt	LTP256	ltpFR	4	3	1	DOG	480	n/a	1	n/a	n/a	n/a	n/a	n/a
428758	REC_WORD	wordpools/wasnorm_wordpool_less_exclusions.txt	LTP256	ltpFR	4	3	1	BARK	87	n/a	0	n/a	n/a	n/a	n/a	n/a
430201	REC_WORD	wordpools/wasnorm_wordpool_less_exclusions.txt	LTP256	ltpFR	4	3	1	SPONGE	1355	n/a	0	n/a	n/a	n/a	n/a	n/a
431641	REC_WORD	wordpools/wasnorm_wordpool_less_exclusions.txt	LTP256	ltpFR	4	3	1	INSECT	740	n/a	1	n/a	n/a	n/a	n/a	n/a
442616	REC_WORD	wordpools/wasnorm_wordpool_less_exclusions.txt	LTP256	ltpFR	4	3	1	SIDING	1304	n/a	0	n/a	n/a	n/a	n/a	n/a
472197	WORD	wordpools/wasnorm_wordpool_less_exclusions.txt	LTP256	ltpFR	4	4	0	MAYONNAISE	880	n/a	0	1	0.412841796875	0.57763671875	lower	../fonts/amplitud.ttf
476191	WORD	wordpools/wasnorm_wordpool_less_exclusions.txt	LTP256	ltpFR	4	4	0	ROBIN	1199	n/a	0	1	0.412841796875	0.57763671875	lower	../fonts/amplitud.ttf
480102	WORD	wordpools/wasnorm_wordpool_less_exclusions.txt	LTP256	ltpFR	4	4	0	DETERGENT	455	n/a	1	1	0.412841796875	0.57763671875	lower	../fonts/amplitud.ttf
484113	WORD	wordpools/wasnorm_wordpool_less_exclusions.txt	LTP256	ltpFR	4	4	0	LAKE	796	n/a	1	1	0.412841796875	0.57763671875	lower	../fonts/amplitud.ttf
488057	WORD	wordpools/wasnorm_wordpool_less_exclusions.txt	LTP256	ltpFR	4	4	0	CUE	422	n/a	1	1	0.412841796875	0.57763671875	lower	../fonts/amplitud.ttf
491984	WORD	wordpools/wasnorm_wordpool_less_exclusions.txt	LTP256	ltpFR	4	4	0	KITCHEN	778	n/a	1	1	0.412841796875	0.57763671875	lower	../fonts/amplitud.ttf
496128	WORD	wordpools/wasnorm_wordpool_less_exclusions.txt	LTP256	ltpFR	4	4	0	LANDSCAPE	799	n/a	1	1	0.412841796875	0.57763671875	lower	../fonts/amplitud.ttf
500255	WORD	wordpools/wasnorm_wordpool_less_exclusions.txt	LTP256	ltpFR	4	4	0	WASHCLOTH	1591	n/a	0	1	0.412841796875	0.57763671875	lower	../fonts/amplitud.ttf
504216	WORD	wordpools/wasnorm_wordpool_less_exclusions.txt	LTP256	ltpFR	4	4	0	BONE	148	n/a	0	1	0.412841796875	0.57763671875	lower	../fonts/amplitud.ttf
508360	WORD	wordpools/wasnorm_wordpool_less_exclusions.txt	LTP256	ltpFR	4	4	0	TAIL	1430	n/a	0	1	0.412841796875	0.57763671875	lower	../fonts/amplitud.ttf
512371	WORD	wordpools/wasnorm_wordpool_less_exclusions.txt	LTP256	ltpFR	4	4	0	CUCUMBER	421	n/a	0	1	0.412841796875	0.57763671875	lower	../fonts/amplitud.ttf
516232	WORD	wordpools/wasnorm_wordpool_less_exclusions.txt	LTP256	ltpFR	4	4	0	REFEREE	1178	n/a	1	1	0.412841796875	0.57763671875	lower	../fonts/amplitud.ttf
520359	WORD	wordpools/wasnorm_wordpool_less_exclusions.txt	LTP256	ltpFR	4	4	0	FRIES	607	n/a	0	1	0.412841796875	0.57763671875	lower	../fonts/amplitud.ttf
524236	WORD	wordpools/wasnorm_wordpool_less_exclusions.txt	LTP256	ltpFR	4	4	0	CARAVAN	242	n/a	1	1	0.412841796875	0.57763671875	lower	../fonts/amplitud.ttf
528130	WORD	wordpools/wasnorm_wordpool_less_exclusions.txt	LTP256	ltpFR	4	4	0	CAB	209	n/a	1	1	0.412841796875	0.57763671875	lower	../fonts/amplitud.ttf
532274	WORD	wordpools/wasnorm_wordpool_less_exclusions.txt	LTP256	ltpFR	4	4	0	BANQUET	86	n/a	1	1	0.412841796875	0.57763671875	lower	../fonts/amplitud.ttf
538149	REC_START	n/a	LTP256	ltpFR	4	4	n/a	n/a	n/a	n/a	n/a	n/a	n/a	n/a	n/a	n/a
538829	REC_WORD	wordpools/wasnorm_wordpool_less_exclusions.txt	LTP256	ltpFR	4	4	0	BANQUET	86	n/a	1	n/a	n/a	n/a	n/a	n/a
539663	REC_WORD	wordpools/wasnorm_wordpool_less_exclusions.txt	LTP256	ltpFR	4	4	0	CAB	209	n/a	1	n/a	n/a	n/a	n/a	n/a
540706	REC_WORD	wordpools/wasnorm_wordpool_less_exclusions.txt	LTP256	ltpFR	4	4	0	CARAVAN	242	n/a	1	n/a	n/a	n/a	n/a	n/a
541883	REC_WORD	wordpools/wasnorm_wordpool_less_exclusions.txt	LTP256	ltpFR	4	4	0	LANDSCAPE	799	n/a	1	n/a	n/a	n/a	n/a	n/a
543147	REC_WORD	wordpools/wasnorm_wordpool_less_exclusions.txt	LTP256	ltpFR	4	4	0	LAKE	796	n/a	1	n/a	n/a	n/a	n/a	n/a
545032	REC_WORD	wordpools/wasnorm_wordpool_less_exclusions.txt	LTP256	ltpFR	4	4	0	KITCHEN	778	n/a	1	n/a	n/a	n/a	n/a	n/a
546171	REC_WORD	wordpools/wasnorm_wordpool_less_exclusions.txt	LTP256	ltpFR	4	4	0	CUCUMBER	421	n/a	0	n/a	n/a	n/a	n/a	n/a
547480	REC_WORD	wordpools/wasnorm_wordpool_less_exclusions.txt	LTP256	ltpFR	4	4	0	BONE	148	n/a	0	n/a	n/a	n/a	n/a	n/a
551948	REC_WORD	wordpools/wasnorm_wordpool_less_exclusions.txt	LTP256	ltpFR	4	4	0	BANQUET	86	n/a	1	n/a	n/a	n/a	n/a	n/a
560568	REC_WORD	wordpools/wasnorm_wordpool_less_exclusions.txt	LTP256	ltpFR	4	4	0	MAYONNAISE	880	n/a	0	n/a	n/a	n/a	n/a	n/a
616948	WORD	wordpools/wasnorm_wordpool_less_exclusions.txt	LTP256	ltpFR	4	5	1	ESCALATOR	539	n/a	0	0	0.5869140625	0.422607421875	upper	../fonts/zerothre.ttf
620892	WORD	wordpools/wasnorm_wordpool_less_exclusions.txt	LTP256	ltpFR	4	5	1	STAIRS	1367	n/a	0	0	0.5869140625	0.422607421875	upper	../fonts/zerothre.ttf
625052	WORD	wordpools/wasnorm_wordpool_less_exclusions.txt	LTP256	ltpFR	4	5	1	CLAW	319	n/a	0	0	0.5869140625	0.422607421875	upper	../fonts/zerothre.ttf
629096	WORD	wordpools/wasnorm_wordpool_less_exclusions.txt	LTP256	ltpFR	4	5	1	SENATE	1267	n/a	1	0	0.5869140625	0.422607421875	upper	../fonts/zerothre.ttf
632974	WORD	wordpools/wasnorm_wordpool_less_exclusions.txt	LTP256	ltpFR	4	5	0	MICROWAVE	892	n/a	1	1	0.412841796875	0.57763671875	lower	../fonts/amplitud.ttf
637134	WORD	wordpools/wasnorm_wordpool_less_exclusions.txt	LTP256	ltpFR	4	5	0	DEER	444	n/a	1	1	0.412841796875	0.57763671875	lower	../fonts/amplitud.ttf
641028	WORD	wordpools/wasnorm_wordpool_less_exclusions.txt	LTP256	ltpFR	4	5	0	BRIEFCASE	175	n/a	1	1	0.412841796875	0.57763671875	lower	../fonts/amplitud.ttf
645006	WORD	wordpools/wasnorm_wordpool_less_exclusions.txt	LTP256	ltpFR	4	5	1	POLICE	1098	n/a	1	0	0.5869140625	0.422607421875	upper	../fonts/zerothre.ttf
648900	WORD	wordpools/wasnorm_wordpool_less_exclusions.txt	LTP256	ltpFR	4	5	1	SERGEANT	1269	n/a	1	0	0.5869140625	0.422607421875	upper	../fonts/zerothre.ttf
653060	WORD	wordpools/wasnorm_wordpool_less_exclusions.txt	LTP256	ltpFR	4	5	1	ELECTRICIAN	521	n/a	1	0	0.5869140625	0.422607421875	upper	../fonts/zerothre.ttf
657221	WORD	wordpools/wasnorm_wordpool_less_exclusions.txt	LTP256	ltpFR	4	5	1	CROW	414	n/a	1	0	0.5869140625	0.422607421875	upper	../fonts/zerothre.ttf
661365	WORD	wordpools/wasnorm_wordpool_less_exclusions.txt	LTP256	ltpFR	4	5	0	DRIVEWAY	500	n/a	1	1	0.412841796875	0.57763671875	lower	../fonts/amplitud.ttf
665507	WORD	wordpools/wasnorm_wordpool_less_exclusions.txt	LTP256	ltpFR	4	5	0	GREASE	660	n/a	1	1	0.412841796875	0.57763671875	lower	../fonts/amplitud.ttf
669736	WORD	wordpools/wasnorm_wordpool_less_exclusions.txt	LTP256	ltpFR	4	5	0	CARDINAL	244	n/a	0	1	0.412841796875	0.57763671875	lower	../fonts/amplitud.ttf
673695	WORD	wordpools/wasnorm_wordpool_less_exclusions.txt	LTP256	ltpFR	4	5	0	EARRING	514	n/a	0	1	0.412841796875	0.57763671875	lower	../fonts/amplitud.ttf
677639	WORD	wordpools/wasnorm_wordpool_less_exclusions.txt	LTP256	ltpFR	4	5	0	WHISKERS	1605	n/a	0	1	0.412841796875	0.57763671875	lower	../fonts/amplitud.ttf
683332	REC_START	n/a	LTP256	ltpFR	4	5	n/a	n/a	n/a	n/a	n/a	n/a	n/a	n/a	n/a	n/a
684007	REC_WORD	wordpools/wasnorm_wordpool_less_exclusions.txt	LTP256	ltpFR	4	5	0	WHISKERS	1605	n/a	0	n/a	n/a	n/a	n/a	n/a
685242	REC_WORD	wordpools/wasnorm_wordpool_less_exclusions.txt	LTP256	ltpFR	4	5	0	EARRING	514	n/a	0	n/a	n/a	n/a	n/a	n/a
689489	REC_WORD	wordpools/wasnorm_wordpool_less_exclusions.txt	LTP256	ltpFR	4	5	1	STAIRS	1367	n/a	0	n/a	n/a	n/a	n/a	n/a
690843	REC_WORD	wordpools/wasnorm_wordpool_less_exclusions.txt	LTP256	ltpFR	4	5	1	ESCALATOR	539	n/a	0	n/a	n/a	n/a	n/a	n/a
691991	REC_WORD	wordpools/wasnorm_wordpool_less_exclusions.txt	LTP256	ltpFR	4	5	1	POLICE	1098	n/a	1	n/a	n/a	n/a	n/a	n/a
693056	REC_WORD	wordpools/wasnorm_wordpool_less_exclusions.txt	LTP256	ltpFR	4	5	1	SERGEANT	1269	n/a	1	n/a	n/a	n/a	n/a	n/a
699435	REC_WORD	wordpools/wasnorm_wordpool_less_exclusions.txt	LTP256	ltpFR	4	5	1	CLAW	319	n/a	0	n/a	n/a	n/a	n/a	n/a
706504	REC_WORD	wordpools/wasnorm_wordpool_less_exclusions.txt	LTP256	ltpFR	4	5	1	SENATE	1267	n/a	1	n/a	n/a	n/a	n/a	n/a
714636	REC_WORD	wordpools/wasnorm_wordpool_less_exclusions.txt	LTP256	ltpFR	4	5	1	CROW	414	n/a	1	n/a	n/a	n/a	n/a	n/a
716226	REC_WORD	wordpools/wasnorm_wordpool_less_exclusions.txt	LTP256	ltpFR	4	5	0	CARDINAL	244	n/a	0	n/a	n/a	n/a	n/a	n/a
743223	REC_WORD	wordpools/wasnorm_wordpool_less_exclusions.txt	LTP256	ltpFR	4	5	1	ELECTRICIAN	521	n/a	1	n/a	n/a	n/a	n/a	n/a
762114	WORD	wordpools/wasnorm_wordpool_less_exclusions.txt	LTP256	ltpFR	4	6	1	POTTERY	1116	n/a	0	0	0.5869140625	0.422607421875	upper	../fonts/zerothre.ttf
766142	WORD	wordpools/wasnorm_wordpool_less_exclusions.txt	LTP256	ltpFR	4	6	1	LEOPARD	812	n/a	1	0	0.5869140625	0.422607421875	upper	../fonts/zerothre.ttf
770136	WORD	wordpools/wasnorm_wordpool_less_exclusions.txt	LTP256	ltpFR	4	6	1	CARD	243	n/a	0	0	0.5869140625	0.422607421875	upper	../fonts/zerothre.ttf
774296	WORD	wordpools/wasnorm_wordpool_less_exclusions.txt	LTP256	ltpFR	4	6	1	TOY	1492	n/a	0	0	0.5869140625	0.422607421875	upper	../fonts/zerothre.ttf
778440	WORD	wordpools/wasnorm_wordpool_less_exclusions.txt	LTP256	ltpFR	4	6	1	SIGNATURE	1306	n/a	0	0	0.5869140625	0.422607421875	upper	../fonts/zerothre.ttf
782284	WORD	wordpools/wasnorm_wordpool_less_exclusions.txt	LTP256	ltpFR	4	6	1	BEAR	106	n/a	1	0	0.5869140625	0.422607421875	upper	../fonts/zerothre.ttf
786345	WORD	wordpools/wasnorm_wordpool_less_exclusions.txt	LTP256	ltpFR	4	6	1	SPRINKLE	1359	n/a	0	0	0.5869140625	0.422607421875	upper	../fonts/zerothre.ttf
790322	WORD	wordpools/wasnorm_wordpool_less_exclusions.txt	LTP256	ltpFR	4	6	1	BEETLE	116	n/a	1	0	0.5869140625	0.422607421875	upper	../fonts/zerothre.ttf
794466	WORD	wordpools/wasnorm_wordpool_less_exclusions.txt	LTP256	ltpFR	4	6	1	MOTH	920	n/a	1	0	0.5869140625	0.422607421875	upper	../fonts/zerothre.ttf
798609	WORD	wordpools/wasnorm_wordpool_less_exclusions.txt	LTP256	ltpFR	4	6	1	BLOSSOM	138	n/a	1	0	0.5869140625	0.422607421875	upper	../fonts/zerothre.ttf
802669	WORD	wordpools/wasnorm_wordpool_less_exclusions.txt	LTP256	ltpFR	4	6	1	SHORTCAKE	1292	n/a	0	0	0.5869140625	0.422607421875	upper	../fonts/zerothre.ttf
806580	WORD	wordpools/wasnorm_wordpool_less_exclusions.txt	LTP256	ltpFR	4	6	1	NUN	962	n/a	1	0	0.5869140625	0.422607421875	upper	../fonts/zerothre.ttf
810775	WORD	wordpools/wasnorm_wordpool_less_exclusions.txt	LTP256	ltpFR	4	6	1	SKI	1316	n/a	0	0	0.5869140625	0.422607421875	upper	../fonts/zerothre.ttf
814852	WORD	wordpools/wasnorm_wordpool_less_exclusions.txt	LTP256	ltpFR	4	6	1	TURNIP	1521	n/a	1	0	0.5869140625	0.422607421875	upper	../fonts/zerothre.ttf
818730	WORD	wordpools/wasnorm_wordpool_less_exclusions.txt	LTP256	ltpFR	4	6	1	VINE	1568	n/a	1	0	0.5869140625	0.422607421875	upper	../fonts/zerothre.ttf
822724	WORD	wordpools/wasnorm_wordpool_less_exclusions.txt	LTP256	ltpFR	4	6	1	CORK	380	n/a	0	0	0.5869140625	0.422607421875	upper	../fonts/zerothre.ttf
828565	REC_START	n/a	LTP256	ltpFR	4	6	n/a	n/a	n/a	n/a	n/a	n/a	n/a	n/a	n/a	n/a
829165	REC_WORD	wordpools/wasnorm_wordpool_less_exclusions.txt	LTP256	ltpFR	4	6	1	VINE	1568	n/a	1	n/a	n/a	n/a	n/a	n/a
830210	REC_WORD	wordpools/wasnorm_wordpool_less_exclusions.txt	LTP256	ltpFR	4	6	1	CORK	380	n/a	0	n/a	n/a	n/a	n/a	n/a
831295	REC_WORD	wordpools/wasnorm_wordpool_less_exclusions.txt	LTP256	ltpFR	4	6	1	SKI	1316	n/a	0	n/a	n/a	n/a	n/a	n/a
832562	REC_WORD	wordpools/wasnorm_wordpool_less_exclusions.txt	LTP256	ltpFR	4	6	1	NUN	962	n/a	1	n/a	n/a	n/a	n/a	n/a
833848	REC_WORD	wordpools/wasnorm_wordpool_less_exclusions.txt	LTP256	ltpFR	4	6	1	BEAR	106	n/a	1	n/a	n/a	n/a	n/a	n/a
834891	REC_WORD	wordpools/wasnorm_wordpool_less_exclusions.txt	LTP256	ltpFR	4	6	1	MOTH	920	n/a	1	n/a	n/a	n/a	n/a	n/a
836230	REC_WORD	wordpools/wasnorm_wordpool_less_exclusions.txt	LTP256	ltpFR	4	6	1	BEETLE	116	n/a	1	n/a	n/a	n/a	n/a	n/a
837351	REC_WORD	wordpools/wasnorm_wordpool_less_exclusions.txt	LTP256	ltpFR	4	6	1	POTTERY	1116	n/a	0	n/a	n/a	n/a	n/a	n/a
858839	REC_WORD	wordpools/wasnorm_wordpool_less_exclusions.txt	LTP256	ltpFR	4	6	1	SIGNATURE	1306	n/a	0	n/a	n/a	n/a	n/a	n/a
860033	REC_WORD	wordpools/wasnorm_wordpool_less_exclusions.txt	LTP256	ltpFR	4	6	1	CARD	243	n/a	0	n/a	n/a	n/a	n/a	n/a
868977	REC_WORD	wordpools/wasnorm_wordpool_less_exclusions.txt	LTP256	ltpFR	4	6	1	TOY	1492	n/a	0	n/a	n/a	n/a	n/a	n/a
882045	REC_WORD	wordpools/wasnorm_wordpool_less_exclusions.txt	LTP256	ltpFR	4	6	1	SPRINKLE	1359	n/a	0	n/a	n/a	n/a	n/a	n/a
906998	WORD	wordpools/wasnorm_wordpool_less_exclusions.txt	LTP256	ltpFR	4	7	0	LASER	801	n/a	1	1	0.412841796875	0.57763671875	lower	../fonts/amplitud.ttf
911009	WORD	wordpools/wasnorm_wordpool_less_exclusions.txt	LTP256	ltpFR	4	7	0	PENNY	1045	n/a	0	1	0.412841796875	0.57763671875	lower	../fonts/amplitud.ttf
914919	WORD	wordpools/wasnorm_wordpool_less_exclusions.txt	LTP256	ltpFR	4	7	0	OATS	968	n/a	0	1	0.412841796875	0.57763671875	lower	../fonts/amplitud.ttf
918913	WORD	wordpools/wasnorm_wordpool_less_exclusions.txt	LTP256	ltpFR	4	7	0	COACH	331	n/a	1	1	0.412841796875	0.57763671875	lower	../fonts/amplitud.ttf
923124	WORD	wordpools/wasnorm_wordpool_less_exclusions.txt	LTP256	ltpFR	4	7	0	COLESLAW	344	n/a	0	1	0.412841796875	0.57763671875	lower	../fonts/amplitud.ttf
927301	WORD	wordpools/wasnorm_wordpool_less_exclusions.txt	LTP256	ltpFR	4	7	0	PAINTING	1005	n/a	1	1	0.412841796875	0.57763671875	lower	../fonts/amplitud.ttf
931445	WORD	wordpools/wasnorm_wordpool_less_exclusions.txt	LTP256	ltpFR	4	7	0	STICKER	1382	n/a	0	1	0.412841796875	0.57763671875	lower	../fonts/amplitud.ttf
935355	WORD	wordpools/wasnorm_wordpool_less_exclusions.txt	LTP256	ltpFR	4	7	0	CRUMB	416	n/a	0	1	0.412841796875	0.57763671875	lower	../fonts/amplitud.ttf
939548	WORD	wordpools/wasnorm_wordpool_less_exclusions.txt	LTP256	ltpFR	4	7	0	PAWN	1030	n/a	0	1	0.412841796875	0.57763671875	lower	../fonts/amplitud.ttf
943393	WORD	wordpools/wasnorm_wordpool_less_exclusions.txt	LTP256	ltpFR	4	7	0	VAULT	1550	n/a	1	1	0.412841796875	0.57763671875	lower	../fonts/amplitud.ttf
947503	WORD	wordpools/wasnorm_wordpool_less_exclusions.txt	LTP256	ltpFR	4	7	0	REFRIGERATOR	1179	n/a	1	1	0.412841796875	0.57763671875	lower	../fonts/amplitud.ttf
951332	WORD	wordpools/wasnorm_wordpool_less_exclusions.txt	LTP256	ltpFR	4	7	0	PORTRAIT	1111	n/a	1	1	0.412841796875	0.57763671875	lower	../fonts/amplitud.ttf
955176	WORD	wordpools/wasnorm_wordpool_less_exclusions.txt	LTP256	ltpFR	4	7	0	BED	110	n/a	1	1	0.412841796875	0.57763671875	lower	../fonts/amplitud.ttf
959037	WORD	wordpools/wasnorm_wordpool_less_exclusions.txt	LTP256	ltpFR	4	7	0	PAINT	1003	n/a	1	1	0.412841796875	0.57763671875	lower	../fonts/amplitud.ttf
963097	WORD	wordpools/wasnorm_wordpool_less_exclusions.txt	LTP256	ltpFR	4	7	0	OREGANO	983	n/a	0	1	0.412841796875	0.57763671875	lower	../fonts/amplitud.ttf
967241	WORD	wordpools/wasnorm_wordpool_less_exclusions.txt	LTP256	ltpFR	4	7	0	GARLIC	624	n/a	0	1	0.412841796875	0.57763671875	lower	../fonts/amplitud.ttf
973133	REC_START	n/a	LTP256	ltpFR	4	7	n/a	n/a	n/a	n/a	n/a	n/a	n/a	n/a	n/a	n/a
973914	REC_WORD	wordpools/wasnorm_wordpool_less_exclusions.txt	LTP256	ltpFR	4	7	0	OREGANO	983	n/a	0	n/a	n/a	n/a	n/a	n/a
975002	REC_WORD	wordpools/wasnorm_wordpool_less_exclusions.txt	LTP256	ltpFR	4	7	0	GARLIC	624	n/a	0	n/a	n/a	n/a	n/a	n/a
976085	REC_WORD	wordpools/wasnorm_wordpool_less_exclusions.txt	LTP256	ltpFR	4	7	0	OATS	968	n/a	0	n/a	n/a	n/a	n/a	n/a
977197	REC_WORD	wordpools/wasnorm_wordpool_less_exclusions.txt	LTP256	ltpFR	4	7	0	LASER	801	n/a	1	n/a	n/a	n/a	n/a	n/a
978333	REC_WORD	wordpools/wasnorm_wordpool_less_exclusions.txt	LTP256	ltpFR	4	7	0	PENNY	1045	n/a	0	n/a	n/a	n/a	n/a	n/a
979291	REC_WORD	wordpools/wasnorm_wordpool_less_exclusions.txt	LTP256	ltpFR	4	7	0	PAINTING	1005	n/a	1	n/a	n/a	n/a	n/a	n/a
980453	REC_WORD	wordpools/wasnorm_wordpool_less_exclusions.txt	LTP256	ltpFR	4	7	0	PAINT	1003	n/a	1	n/a	n/a	n/a	n/a	n/a
981547	REC_WORD	wordpools/wasnorm_wordpool_less_exclusions.txt	LTP256	ltpFR	4	7	0	PORTRAIT	1111	n/a	1	n/a	n/a	n/a	n/a	n/a
1004222	REC_WORD	wordpools/wasnorm_wordpool_less_exclusions.txt	LTP256	ltpFR	4	7	0	BED	110	n/a	1	n/a	n/a	n/a	n/a	n/a
1057872	WORD	wordpools/wasnorm_wordpool_less_exclusions.txt	LTP256	ltpFR	4	8	1	POET	1095	n/a	1	0	0.5869140625	0.422607421875	upper	../fonts/zerothre.ttf
1062033	WORD	wordpools/wasnorm_wordpool_less_exclusions.txt	LTP256	ltpFR	4	8	1	CAFE	216	n/a	0	0	0.5869140625	0.422607421875	upper	../fonts/zerothre.ttf
1066260	WORD	wordpools/wasnorm_wordpool_less_exclusions.txt	LTP256	ltpFR	4	8	0	LOAF	835	n/a	0	1	0.412841796875	0.57763671875	lower	../fonts/amplitud.ttf
1070304	WORD	wordpools/wasnorm_wordpool_less_exclusions.txt	LTP256	ltpFR	4	8	0	BOOK	149	n/a	0	1	0.412841796875	0.57763671875	lower	../fonts/amplitud.ttf
1074398	WORD	wordpools/wasnorm_wordpool_less_exclusions.txt	LTP256	ltpFR	4	8	1	COUGAR	387	n/a	1	0	0.5869140625	0.422607421875	upper	../fonts/zerothre.ttf
1078409	WORD	wordpools/wasnorm_wordpool_less_exclusions.txt	LTP256	ltpFR	4	8	1	CALENDAR	221	n/a	0	0	0.5869140625	0.422607421875	upper	../fonts/zerothre.ttf
1082501	WORD	wordpools/wasnorm_wordpool_less_exclusions.txt	LTP256	ltpFR	4	8	1	COTTON	385	n/a	0	0	0.5869140625	0.422607421875	upper	../fonts/zerothre.ttf
1086380	WORD	wordpools/wasnorm_wordpool_less_exclusions.txt	LTP256	ltpFR	4	8	1	BARTENDER	92	n/a	1	0	0.5869140625	0.422607421875	upper	../fonts/zerothre.ttf
1090457	WORD	wordpools/wasnorm_wordpool_less_exclusions.txt	LTP256	ltpFR	4	8	0	TOAST	1471	n/a	0	1	0.412841796875	0.57763671875	lower	../fonts/amplitud.ttf
1094401	WORD	wordpools/wasnorm_wordpool_less_exclusions.txt	LTP256	ltpFR	4	8	0	TAG	1429	n/a	0	1	0.412841796875	0.57763671875	lower	../fonts/amplitud.ttf
1098445	WORD	wordpools/wasnorm_wordpool_less_exclusions.txt	LTP256	ltpFR	4	8	0	CHECK	284	n/a	0	1	0.412841796875	0.57763671875	lower	../fonts/amplitud.ttf
1102306	WORD	wordpools/wasnorm_wordpool_less_exclusions.txt	LTP256	ltpFR	4	8	0	NICKEL	950	n/a	0	1	0.412841796875	0.57763671875	lower	../fonts/amplitud.ttf
1106267	WORD	wordpools/wasnorm_wordpool_less_exclusions.txt	LTP256	ltpFR	4	8	0	DINNER	468	n/a	1	1	0.412841796875	0.57763671875	lower	../fonts/amplitud.ttf
1110344	WORD	wordpools/wasnorm_wordpool_less_exclusions.txt	LTP256	ltpFR	4	8	0	WAITRESS	1581	n/a	1	1	0.412841796875	0.57763671875	lower	../fonts/amplitud.ttf
1114488	WORD	wordpools/wasnorm_wordpool_less_exclusions.txt	LTP256	ltpFR	4	8	1	UMPIRE	1535	n/a	1	0	0.5869140625	0.422607421875	upper	../fonts/zerothre.ttf
1118316	WORD	wordpools/wasnorm_wordpool_less_exclusions.txt	LTP256	ltpFR	4	8	1	DICE	461	n/a	0	0	0.5869140625	0.422607421875	upper	../fonts/zerothre.ttf
1124124	REC_START	n/a	LTP256	ltpFR	4	8	n/a	n/a	n/a	n/a	n/a	n/a	n/a	n/a	n/a	n/a
1125350	REC_WORD	wordpools/wasnorm_wordpool_less_exclusions.txt	LTP256	ltpFR	4	8	1	UMPIRE	1535	n/a	1	n/a	n/a	n/a	n/a	n/a
1126344	REC_WORD	wordpools/wasnorm_wordpool_less_exclusions.txt	LTP256	ltpFR	4	8	1	DICE	461	n/a	0	n/a	n/a	n/a	n/a	n/a
1127502	REC_WORD	wordpools/wasnorm_wordpool_less_exclusions.txt	LTP256	ltpFR	4	8	0	WAITRESS	1581	n/a	1	n/a	n/a	n/a	n/a	n/a
1128760	REC_WORD	wordpools/wasnorm_wordpool_less_exclusions.txt	LTP256	ltpFR	4	8	0	DINNER	468	n/a	1	n/a	n/a	n/a	n/a	n/a
1130514	REC_WORD	wordpools/wasnorm_wordpool_less_exclusions.txt	LTP256	ltpFR	4	8	0	CHECK	284	n/a	0	n/a	n/a	n/a	n/a	n/a
1131560	REC_WORD	wordpools/wasnorm_wordpool_less_exclusions.txt	LTP256	ltpFR	4	8	0	NICKEL	950	n/a	0	n/a	n/a	n/a	n/a	n/a
1132851	REC_WORD	wordpools/wasnorm_wordpool_less_exclusions.txt	LTP256	ltpFR	4	8	1	CAFE	216	n/a	0	n/a	n/a	n/a	n/a	n/a
1134168	REC_WORD	wordpools/wasnorm_wordpool_less_exclusions.txt	LTP256	ltpFR	4	8	1	COUGAR	387	n/a	1	n/a	n/a	n/a	n/a	n/a
1136110	REC_WORD	wordpools/wasnorm_wordpool_less_exclusions.txt	LTP256	ltpFR	4	8	1	POET	1095	n/a	1	n/a	n/a	n/a	n/a	n/a
1140195	REC_WORD	wordpools/wasnorm_wordpool_less_exclusions.txt	LTP256	ltpFR	4	8	0	TAG	1429	n/a	0	n/a	n/a	n/a	n/a	n/a
1161495	REC_WORD	wordpools/wasnorm_wordpool_less_exclusions.txt	LTP256	ltpFR	4	8	1	BARTENDER	92	n/a	1	n/a	n/a	n/a	n/a	n/a
1166864	REC_WORD	wordpools/wasnorm_wordpool_less_exclusions.txt	LTP256	ltpFR	4	8	0	TOAST	1471	n/a	0	n/a	n/a	n/a	n/a	n/a
1169711	REC_WORD	wordpools/wasnorm_wordpool_less_exclusions.txt	LTP256	ltpFR	4	8	0	LOAF	835	n/a	0	n/a	n/a	n/a	n/a	n/a
1179061	REC_WORD	wordpools/wasnorm_wordpool_less_exclusions.txt	LTP256	ltpFR	4	8	1	CALENDAR	221	n/a	0	n/a	n/a	n/a	n/a	n/a
1204320	WORD	wordpools/wasnorm_wordpool_less_exclusions.txt	LTP256	ltpFR	4	9	0	AGENT	10	n/a	1	1	0.412841796875	0.57763671875	lower	../fonts/amplitud.ttf
1208331	WORD	wordpools/wasnorm_wordpool_less_exclusions.txt	LTP256	ltpFR	4	9	0	RECEIPT	1173	n/a	0	1	0.412841796875	0.57763671875	lower	../fonts/amplitud.ttf
1212225	WORD	wordpools/wasnorm_wordpool_less_exclusions.txt	LTP256	ltpFR	4	9	0	LINT	826	n/a	0	1	0.412841796875	0.57763671875	lower	../fonts/amplitud.ttf
1216086	WORD	wordpools/wasnorm_wordpool_less_exclusions.txt	LTP256	ltpFR	4	9	0	CLOSET	326	n/a	1	1	0.412841796875	0.57763671875	lower	../fonts/amplitud.ttf
1220247	WORD	wordpools/wasnorm_wordpool_less_exclusions.txt	LTP256	ltpFR	4	9	1	GIRL	637	n/a	1	0	0.5869140625	0.422607421875	upper	../fonts/zerothre.ttf
1224340	WORD	wordpools/wasnorm_wordpool_less_exclusions.txt	LTP256	ltpFR	4	9	1	CANARY	227	n/a	1	0	0.5869140625	0.422607421875	upper	../fonts/zerothre.ttf
1228368	WORD	wordpools/wasnorm_wordpool_less_exclusions.txt	LTP256	ltpFR	4	9	1	SICKLE	1302	n/a	0	0	0.5869140625	0.422607421875	upper	../fonts/zerothre.ttf
1232379	WORD	wordpools/wasnorm_wordpool_less_exclusions.txt	LTP256	ltpFR	4	9	1	BRUNETTE	181	n/a	1	0	0.5869140625	0.422607421875	upper	../fonts/zerothre.ttf
1236356	WORD	wordpools/wasnorm_wordpool_less_exclusions.txt	LTP256	ltpFR	4	9	1	VEGETABLE	1552	n/a	0	0	0.5869140625	0.422607421875	upper	../fonts/zerothre.ttf
1240417	WORD	wordpools/wasnorm_wordpool_less_exclusions.txt	LTP256	ltpFR	4	9	1	LADY	794	n/a	1	0	0.5869140625	0.422607421875	upper	../fonts/zerothre.ttf
1244394	WORD	wordpools/wasnorm_wordpool_less_exclusions.txt	LTP256	ltpFR	4	9	0	BANANA	77	n/a	0	1	0.412841796875	0.57763671875	lower	../fonts/amplitud.ttf
1248355	WORD	wordpools/wasnorm_wordpool_less_exclusions.txt	LTP256	ltpFR	4	9	0	PLUM	1090	n/a	0	1	0.412841796875	0.57763671875	lower	../fonts/amplitud.ttf
1252482	WORD	wordpools/wasnorm_wordpool_less_exclusions.txt	LTP256	ltpFR	4	9	0	CHOCOLATE	306	n/a	0	1	0.412841796875	0.57763671875	lower	../fonts/amplitud.ttf
1256658	WORD	wordpools/wasnorm_wordpool_less_exclusions.txt	LTP256	ltpFR	4	9	0	FEATHER	557	n/a	0	1	0.412841796875	0.57763671875	lower	../fonts/amplitud.ttf
1260502	WORD	wordpools/wasnorm_wordpool_less_exclusions.txt	LTP256	ltpFR	4	9	1	WRENCH	1625	n/a	0	0	0.5869140625	0.422607421875	upper	../fonts/zerothre.ttf
1264730	WORD	wordpools/wasnorm_wordpool_less_exclusions.txt	LTP256	ltpFR	4	9	1	OX	994	n/a	1	0	0.5869140625	0.422607421875	upper	../fonts/zerothre.ttf
1270772	REC_START	n/a	LTP256	ltpFR	4	9	n/a	n/a	n/a	n/a	n/a	n/a	n/a	n/a	n/a	n/a
1271456	REC_WORD	wordpools/wasnorm_wordpool_less_exclusions.txt	LTP256	ltpFR	4	9	1	WRENCH	1625	n/a	0	n/a	n/a	n/a	n/a	n/a
1272515	REC_WORD	wordpools/wasnorm_wordpool_less_exclusions.txt	LTP256	ltpFR	4	9	1	OX	994	n/a	1	n/a	n/a	n/a	n/a	n/a
1273641	REC_WORD	wordpools/wasnorm_wordpool_less_exclusions.txt	LTP256	ltpFR	4	9	1	GIRL	637	n/a	1	n/a	n/a	n/a	n/a	n/a
1274590	REC_WORD	wordpools/wasnorm_wordpool_less_exclusions.txt	LTP256	ltpFR	4	9	1	LADY	794	n/a	1	n/a	n/a	n/a	n/a	n/a
1275642	REC_WORD	wordpools/wasnorm_wordpool_less_exclusions.txt	LTP256	ltpFR	4	9	0	CLOSET	326	n/a	1	n/a	n/a	n/a	n/a	n/a
1276711	REC_WORD	wordpools/wasnorm_wordpool_less_exclusions.txt	LTP256	ltpFR	4	9	1	BRUNETTE	181	n/a	1	n/a	n/a	n/a	n/a	n/a
1282941	REC_WORD	wordpools/wasnorm_wordpool_less_exclusions.txt	LTP256	ltpFR	4	9	0	AGENT	10	n/a	1	n/a	n/a	n/a	n/a	n/a
1284193	REC_WORD	wordpools/wasnorm_wordpool_less_exclusions.txt	LTP256	ltpFR	4	9	0	RECEIPT	1173	n/a	0	n/a	n/a	n/a	n/a	n/a
1285388	REC_WORD	wordpools/wasnorm_wordpool_less_exclusions.txt	LTP256	ltpFR	4	9	0	LINT	826	n/a	0	n/a	n/a	n/a	n/a	n/a
1294235	REC_WORD	wordpools/wasnorm_wordpool_less_exclusions.txt	LTP256	ltpFR	4	9	1	OX	994	n/a	1	n/a	n/a	n/a	n/a	n/a
1296831	REC_WORD	wordpools/wasnorm_wordpool_less_exclusions.txt	LTP256	ltpFR	4	9	1	WRENCH	1625	n/a	0	n/a	n/a	n/a	n/a	n/a
1302858	REC_WORD	wordpools/wasnorm_wordpool_less_exclusions.txt	LTP256	ltpFR	4	9	1	CANARY	227	n/a	1	n/a	n/a	n/a	n/a	n/a
1305126	REC_WORD	wordpools/wasnorm_wordpool_less_exclusions.txt	LTP256	ltpFR	4	9	0	PLUM	1090	n/a	0	n/a	n/a	n/a	n/a	n/a
1306480	REC_WORD	wordpools/wasnorm_wordpool_less_exclusions.txt	LTP256	ltpFR	4	9	0	CHOCOLATE	306	n/a	0	n/a	n/a	n/a	n/a	n/a
1322078	REC_WORD	wordpools/wasnorm_wordpool_less_exclusions.txt	LTP256	ltpFR	4	9	0	FEATHER	557	n/a	0	n/a	n/a	n/a	n/a	n/a
1349719	WORD	wordpools/wasnorm_wordpool_less_exclusions.txt	LTP256	ltpFR	4	10	-1	TRICYCLE	1506	n/a	-1	1	1.0	1.0	upper	../fonts/Verdana.ttf
1353764	WORD	wordpools/wasnorm_wordpool_less_exclusions.txt	LTP256	ltpFR	4	10	-1	RACK	1154	n/a	-1	1	1.0	1.0	upper	../fonts/Verdana.ttf
1357974	WORD	wordpools/wasnorm_wordpool_less_exclusions.txt	LTP256	ltpFR	4	10	-1	APE	31	n/a	-1	1	1.0	1.0	upper	../fonts/Verdana.ttf
1361985	WORD	wordpools/wasnorm_wordpool_less_exclusions.txt	LTP256	ltpFR	4	10	-1	JUNGLE	764	n/a	-1	1	1.0	1.0	upper	../fonts/Verdana.ttf
1365929	WORD	wordpools/wasnorm_wordpool_less_exclusions.txt	LTP256	ltpFR	4	10	-1	ELK	526	n/a	-1	1	1.0	1.0	upper	../fonts/Verdana.ttf
1370040	WORD	wordpools/wasnorm_wordpool_less_exclusions.txt	LTP256	ltpFR	4	10	-1	OFFICE	972	n/a	-1	1	1.0	1.0	upper	../fonts/Verdana.ttf
1374134	WORD	wordpools/wasnorm_wordpool_less_exclusions.txt	LTP256	ltpFR	4	10	-1	BRACELET	163	n/a	-1	1	1.0	1.0	upper	../fonts/Verdana.ttf
1378227	WORD	wordpools/wasnorm_wordpool_less_exclusions.txt	LTP256	ltpFR	4	10	-1	COUNTY	389	n/a	-1	1	1.0	1.0	upper	../fonts/Verdana.ttf
1382288	WORD	wordpools/wasnorm_wordpool_less_exclusions.txt	LTP256	ltpFR	4	10	-1	ANTLER	29	n/a	-1	1	1.0	1.0	upper	../fonts/Verdana.ttf
1386349	WORD	wordpools/wasnorm_wordpool_less_exclusions.txt	LTP256	ltpFR	4	10	-1	CASHIER	254	n/a	-1	1	1.0	1.0	upper	../fonts/Verdana.ttf
1390359	WORD	wordpools/wasnorm_wordpool_less_exclusions.txt	LTP256	ltpFR	4	10	-1	MUG	930	n/a	-1	1	1.0	1.0	upper	../fonts/Verdana.ttf
1394353	WORD	wordpools/wasnorm_wordpool_less_exclusions.txt	LTP256	ltpFR	4	10	-1	GEM	629	n/a	-1	1	1.0	1.0	upper	../fonts/Verdana.ttf
1398497	WORD	wordpools/wasnorm_wordpool_less_exclusions.txt	LTP256	ltpFR	4	10	-1	OPERA	978	n/a	-1	1	1.0	1.0	upper	../fonts/Verdana.ttf
1402391	WORD	wordpools/wasnorm_wordpool_less_exclusions.txt	LTP256	ltpFR	4	10	-1	HARP	689	n/a	-1	1	1.0	1.0	upper	../fonts/Verdana.ttf
1406501	WORD	wordpools/wasnorm_wordpool_less_exclusions.txt	LTP256	ltpFR	4	10	-1	GALLON	618	n/a	-1	1	1.0	1.0	upper	../fonts/Verdana.ttf
1410711	WORD	wordpools/wasnorm_wordpool_less_exclusions.txt	LTP256	ltpFR	4	10	-1	BIKE	125	n/a	-1	1	1.0	1.0	upper	../fonts/Verdana.ttf
1416620	REC_START	n/a	LTP256	ltpFR	4	10	n/a	n/a	n/a	n/a	n/a	n/a	n/a	n/a	n/a	n/a
1417186	REC_WORD	wordpools/wasnorm_wordpool_less_exclusions.txt	LTP256	ltpFR	4	10	-1	GALLON	618	n/a	-1	n/a	n/a	n/a	n/a	n/a
1418124	REC_WORD	wordpools/wasnorm_wordpool_less_exclusions.txt	LTP256	ltpFR	4	10	-1	BIKE	125	n/a	-1	n/a	n/a	n/a	n/a	n/a
1419166	REC_WORD	wordpools/wasnorm_wordpool_less_exclusions.txt	LTP256	ltpFR	4	10	-1	RACK	1154	n/a	-1	n/a	n/a	n/a	n/a	n/a
1420620	REC_WORD	wordpools/wasnorm_wordpool_less_exclusions.txt	LTP256	ltpFR	4	10	-1	APE	31	n/a	-1	n/a	n/a	n/a	n/a	n/a
1421791	REC_WORD	wordpools/wasnorm_wordpool_less_exclusions.txt	LTP256	ltpFR	4	10	-1	JUNGLE	764	n/a	-1	n/a	n/a	n/a	n/a	n/a
1423071	REC_WORD	wordpools/wasnorm_wordpool_less_exclusions.txt	LTP256	ltpFR	4	10	-1	TRICYCLE	1506	n/a	-1	n/a	n/a	n/a	n/a	n/a
1427895	REC_WORD	wordpools/wasnorm_wordpool_less_exclusions.txt	LTP256	ltpFR	4	10	-1	OFFICE	972	n/a	-1	n/a	n/a	n/a	n/a	n/a
1428970	REC_WORD	wordpools/wasnorm_wordpool_less_exclusions.txt	LTP256	ltpFR	4	10	-1	GEM	629	n/a	-1	n/a	n/a	n/a	n/a	n/a
1430042	REC_WORD	wordpools/wasnorm_wordpool_less_exclusions.txt	LTP256	ltpFR	4	10	-1	CASHIER	254	n/a	-1	n/a	n/a	n/a	n/a	n/a
1431258	REC_WORD	wordpools/wasnorm_wordpool_less_exclusions.txt	LTP256	ltpFR	4	10	-1	OPERA	978	n/a	-1	n/a	n/a	n/a	n/a	n/a
1432159	REC_WORD	wordpools/wasnorm_wordpool_less_exclusions.txt	LTP256	ltpFR	4	10	-1	HARP	689	n/a	-1	n/a	n/a	n/a	n/a	n/a
1438089	REC_WORD	wordpools/wasnorm_wordpool_less_exclusions.txt	LTP256	ltpFR	4	10	-1	COUNTY	389	n/a	-1	n/a	n/a	n/a	n/a	n/a
1439420	REC_WORD	wordpools/wasnorm_wordpool_less_exclusions.txt	LTP256	ltpFR	4	10	-1	ELK	526	n/a	-1	n/a	n/a	n/a	n/a	n/a
1440431	REC_WORD	wordpools/wasnorm_wordpool_less_exclusions.txt	LTP256	ltpFR	4	10	-1	ANTLER	29	n/a	-1	n/a	n/a	n/a	n/a	n/a
1454049	REC_WORD	wordpools/wasnorm_wordpool_less_exclusions.txt	LTP256	ltpFR	4	10	-1	BRACELET	163	n/a	-1	n/a	n/a	n/a	n/a	n/a
1464742	REC_WORD	wordpools/wasnorm_wordpool_less_exclusions.txt	LTP256	ltpFR	4	10	-1	MUG	930	n/a	-1	n/a	n/a	n/a	n/a	n/a
1495336	WORD	wordpools/wasnorm_wordpool_less_exclusions.txt	LTP256	ltpFR	4	11	-1	FRIAR	605	n/a	-1	1	1.0	1.0	upper	../fonts/Verdana.ttf
1499380	WORD	wordpools/wasnorm_wordpool_less_exclusions.txt	LTP256	ltpFR	4	11	-1	CHAIN	273	n/a	-1	1	1.0	1.0	upper	../fonts/Verdana.ttf
1503539	WORD	wordpools/wasnorm_wordpool_less_exclusions.txt	LTP256	ltpFR	4	11	-1	STAPLER	1372	n/a	-1	1	1.0	1.0	upper	../fonts/Verdana.ttf
1507418	WORD	wordpools/wasnorm_wordpool_less_exclusions.txt	LTP256	ltpFR	4	11	-1	CAT	257	n/a	-1	1	1.0	1.0	upper	../fonts/Verdana.ttf
1511561	WORD	wordpools/wasnorm_wordpool_less_exclusions.txt	LTP256	ltpFR	4	11	-1	VET	1560	n/a	-1	1	1.0	1.0	upper	../fonts/Verdana.ttf
1515489	WORD	wordpools/wasnorm_wordpool_less_exclusions.txt	LTP256	ltpFR	4	11	-1	CLERK	321	n/a	-1	1	1.0	1.0	upper	../fonts/Verdana.ttf
1519599	WORD	wordpools/wasnorm_wordpool_less_exclusions.txt	LTP256	ltpFR	4	11	-1	STAKE	1368	n/a	-1	1	1.0	1.0	upper	../fonts/Verdana.ttf
1523509	WORD	wordpools/wasnorm_wordpool_less_exclusions.txt	LTP256	ltpFR	4	11	-1	DRILL	497	n/a	-1	1	1.0	1.0	upper	../fonts/Verdana.ttf
1527438	WORD	wordpools/wasnorm_wordpool_less_exclusions.txt	LTP256	ltpFR	4	11	-1	STRING	1394	n/a	-1	1	1.0	1.0	upper	../fonts/Verdana.ttf
1531664	WORD	wordpools/wasnorm_wordpool_less_exclusions.txt	LTP256	ltpFR	4	11	-1	STORE	1387	n/a	-1	1	1.0	1.0	upper	../fonts/Verdana.ttf
1535792	WORD	wordpools/wasnorm_wordpool_less_exclusions.txt	LTP256	ltpFR	4	11	-1	SAUSAGE	1238	n/a	-1	1	1.0	1.0	upper	../fonts/Verdana.ttf
1539986	WORD	wordpools/wasnorm_wordpool_less_exclusions.txt	LTP256	ltpFR	4	11	-1	DOCUMENT	479	n/a	-1	1	1.0	1.0	upper	../fonts/Verdana.ttf
1544030	WORD	wordpools/wasnorm_wordpool_less_exclusions.txt	LTP256	ltpFR	4	11	-1	RATTLE	1170	n/a	-1	1	1.0	1.0	upper	../fonts/Verdana.ttf
1548074	WORD	wordpools/wasnorm_wordpool_less_exclusions.txt	LTP256	ltpFR	4	11	-1	INSTRUCTOR	741	n/a	-1	1	1.0	1.0	upper	../fonts/Verdana.ttf
1552084	WORD	wordpools/wasnorm_wordpool_less_exclusions.txt	LTP256	ltpFR	4	11	-1	LAWN	805	n/a	-1	1	1.0	1.0	upper	../fonts/Verdana.ttf
1556262	WORD	wordpools/wasnorm_wordpool_less_exclusions.txt	LTP256	ltpFR	4	11	-1	WEED	1599	n/a	-1	1	1.0	1.0	upper	../fonts/Verdana.ttf
1561970	REC_START	n/a	LTP256	ltpFR	4	11	n/a	n/a	n/a	n/a	n/a	n/a	n/a	n/a	n/a	n/a
1562891	REC_WORD	wordpools/wasnorm_wordpool_less_exclusions.txt	LTP256	ltpFR	4	11	-1	LAWN	805	n/a	-1	n/a	n/a	n/a	n/a	n/a
1563708	REC_WORD	wordpools/wasnorm_wordpool_less_exclusions.txt	LTP256	ltpFR	4	11	-1	WEED	1599	n/a	-1	n/a	n/a	n/a	n/a	n/a
1564583	REC_WORD	wordpools/wasnorm_wordpool_less_exclusions.txt	LTP256	ltpFR	4	11	-1	INSTRUCTOR	741	n/a	-1	n/a	n/a	n/a	n/a	n/a
1565878	REC_WORD	wordpools/wasnorm_wordpool_less_exclusions.txt	LTP256	ltpFR	4	11	-1	FRIAR	605	n/a	-1	n/a	n/a	n/a	n/a	n/a
1568535	REC_WORD	wordpools/wasnorm_wordpool_less_exclusions.txt	LTP256	ltpFR	4	11	-1	DOCUMENT	479	n/a	-1	n/a	n/a	n/a	n/a	n/a
1569590	REC_WORD	wordpools/wasnorm_wordpool_less_exclusions.txt	LTP256	ltpFR	4	11	-1	STAPLER	1372	n/a	-1	n/a	n/a	n/a	n/a	n/a
1570872	REC_WORD	wordpools/wasnorm_wordpool_less_exclusions.txt	LTP256	ltpFR	4	11	-1	CHAIN	273	n/a	-1	n/a	n/a	n/a	n/a	n/a
1572085	REC_WORD	wordpools/wasnorm_wordpool_less_exclusions.txt	LTP256	ltpFR	4	11	-1	STRING	1394	n/a	-1	n/a	n/a	n/a	n/a	n/a
1578064	REC_WORD	wordpools/wasnorm_wordpool_less_exclusions.txt	LTP256	ltpFR	4	11	-1	STAKE	1368	n/a	-1	n/a	n/a	n/a	n/a	n/a
1582539	REC_WORD	wordpools/wasnorm_wordpool_less_exclusions.txt	LTP256	ltpFR	4	11	-1	STORE	1387	n/a	-1	n/a	n/a	n/a	n/a	n/a
1583942	REC_WORD	wordpools/wasnorm_wordpool_less_exclusions.txt	LTP256	ltpFR	4	11	-1	SAUSAGE	1238	n/a	-1	n/a	n/a	n/a	n/a	n/a
1641201	WORD	wordpools/wasnorm_wordpool_less_exclusions.txt	LTP256	ltpFR	4	12	0	DONKEY	484	n/a	1	1	0.412841796875	0.57763671875	lower	../fonts/amplitud.ttf
1645112	WORD	wordpools/wasnorm_wordpool_less_exclusions.txt	LTP256	ltpFR	4	12	0	CEILING	265	n/a	1	1	0.412841796875	0.57763671875	lower	../fonts/amplitud.ttf
1649156	WORD	wordpools/wasnorm_wordpool_less_exclusions.txt	LTP256	ltpFR	4	12	0	CAFETERIA	217	n/a	1	1	0.412841796875	0.57763671875	lower	../fonts/amplitud.ttf
1653183	WORD	wordpools/wasnorm_wordpool_less_exclusions.txt	LTP256	ltpFR	4	12	0	PAGE	1001	n/a	0	1	0.412841796875	0.57763671875	lower	../fonts/amplitud.ttf
1657161	WORD	wordpools/wasnorm_wordpool_less_exclusions.txt	LTP256	ltpFR	4	12	0	DICTIONARY	463	n/a	1	1	0.412841796875	0.57763671875	lower	../fonts/amplitud.ttf
1661321	WORD	wordpools/wasnorm_wordpool_less_exclusions.txt	LTP256	ltpFR	4	12	0	RICE	1190	n/a	0	1	0.412841796875	0.57763671875	lower	../fonts/amplitud.ttf
1665349	WORD	wordpools/wasnorm_wordpool_less_exclusions.txt	LTP256	ltpFR	4	12	0	COLT	349	n/a	1	1	0.412841796875	0.57763671875	lower	../fonts/amplitud.ttf
1669176	WORD	wordpools/wasnorm_wordpool_less_exclusions.txt	LTP256	ltpFR	4	12	0	DOVE	491	n/a	0	1	0.412841796875	0.57763671875	lower	../fonts/amplitud.ttf
1673353	WORD	wordpools/wasnorm_wordpool_less_exclusions.txt	LTP256	ltpFR	4	12	0	TABLET	1427	n/a	0	1	0.412841796875	0.57763671875	lower	../fonts/amplitud.ttf
1677546	WORD	wordpools/wasnorm_wordpool_less_exclusions.txt	LTP256	ltpFR	4	12	0	SCROLL	1257	n/a	0	1	0.412841796875	0.57763671875	lower	../fonts/amplitud.ttf
1681724	WORD	wordpools/wasnorm_wordpool_less_exclusions.txt	LTP256	ltpFR	4	12	0	GAVEL	627	n/a	0	1	0.412841796875	0.57763671875	lower	../fonts/amplitud.ttf
1685551	WORD	wordpools/wasnorm_wordpool_less_exclusions.txt	LTP256	ltpFR	4	12	0	DAISY	435	n/a	0	1	0.412841796875	0.57763671875	lower	../fonts/amplitud.ttf
1689578	WORD	wordpools/wasnorm_wordpool_less_exclusions.txt	LTP256	ltpFR	4	12	0	FLASK	576	n/a	0	1	0.412841796875	0.57763671875	lower	../fonts/amplitud.ttf
1693740	WORD	wordpools/wasnorm_wordpool_less_exclusions.txt	LTP256	ltpFR	4	12	0	BEAKER	104	n/a	0	1	0.412841796875	0.57763671875	lower	../fonts/amplitud.ttf
1697850	WORD	wordpools/wasnorm_wordpool_less_exclusions.txt	LTP256	ltpFR	4	12	0	BATHTUB	100	n/a	1	1	0.412841796875	0.57763671875	lower	../fonts/amplitud.ttf
1701894	WORD	wordpools/wasnorm_wordpool_less_exclusions.txt	LTP256	ltpFR	4	12	0	WALLET	1583	n/a	0	1	0.412841796875	0.57763671875	lower	../fonts/amplitud.ttf
1707919	REC_START	n/a	LTP256	ltpFR	4	12	n/a	n/a	n/a	n/a	n/a	n/a	n/a	n/a	n/a	n/a
1708661	REC_WORD	wordpools/wasnorm_wordpool_less_exclusions.txt	LTP256	ltpFR	4	12	0	BATHTUB	100	n/a	1	n/a	n/a	n/a	n/a	n/a
1709864	REC_WORD	wordpools/wasnorm_wordpool_less_exclusions.txt	LTP256	ltpFR	4	12	0	WALLET	1583	n/a	0	n/a	n/a	n/a	n/a	n/a
1710832	REC_WORD	wordpools/wasnorm_wordpool_less_exclusions.txt	LTP256	ltpFR	4	12	0	PAGE	1001	n/a	0	n/a	n/a	n/a	n/a	n/a
1711992	REC_WORD	wordpools/wasnorm_wordpool_less_exclusions.txt	LTP256	ltpFR	4	12	0	DICTIONARY	463	n/a	1	n/a	n/a	n/a	n/a	n/a
1713161	REC_WORD	wordpools/wasnorm_wordpool_less_exclusions.txt	LTP256	ltpFR	4	12	0	CAFETERIA	217	n/a	1	n/a	n/a	n/a	n/a	n/a
1717190	REC_WORD	wordpools/wasnorm_wordpool_less_exclusions.txt	LTP256	ltpFR	4	12	0	CEILING	265	n/a	1	n/a	n/a	n/a	n/a	n/a
1721327	REC_WORD	wordpools/wasnorm_wordpool_less_exclusions.txt	LTP256	ltpFR	4	12	0	DONKEY	484	n/a	1	n/a	n/a	n/a	n/a	n/a
1724017	REC_WORD	wordpools/wasnorm_wordpool_less_exclusions.txt	LTP256	ltpFR	4	12	0	DOVE	491	n/a	0	n/a	n/a	n/a	n/a	n/a
1730048	REC_WORD	wordpools/wasnorm_wordpool_less_exclusions.txt	LTP256	ltpFR	4	12	0	SCROLL	1257	n/a	0	n/a	n/a	n/a	n/a	n/a
1731432	REC_WORD	wordpools/wasnorm_wordpool_less_exclusions.txt	LTP256	ltpFR	4	12	0	TABLET	1427	n/a	0	n/a	n/a	n/a	n/a	n/a
1744691	REC_WORD	wordpools/wasnorm_wordpool_less_exclusions.txt	LTP256	ltpFR	4	12	0	GAVEL	627	n/a	0	n/a	n/a	n/a	n/a	n/a
1783521	REST_REWET	n/a	LTP256	ltpFR	4	12	n/a	n/a	n/a	n/a	n/a	n/a	n/a	n/a	n/a	n/a
2117407	WORD	wordpools/wasnorm_wordpool_less_exclusions.txt	LTP256	ltpFR	4	13	-1	HELMET	702	n/a	-1	1	1.0	1.0	upper	../fonts/Verdana.ttf
2121401	WORD	wordpools/wasnorm_wordpool_less_exclusions.txt	LTP256	ltpFR	4	13	-1	WAGON	1578	n/a	-1	1	1.0	1.0	upper	../fonts/Verdana.ttf
2125577	WORD	wordpools/wasnorm_wordpool_less_exclusions.txt	LTP256	ltpFR	4	13	-1	DISH	474	n/a	-1	1	1.0	1.0	upper	../fonts/Verdana.ttf
2129755	WORD	wordpools/wasnorm_wordpool_less_exclusions.txt	LTP256	ltpFR	4	13	-1	SALAD	1224	n/a	-1	1	1.0	1.0	upper	../fonts/Verdana.ttf
2133766	WORD	wordpools/wasnorm_wordpool_less_exclusions.txt	LTP256	ltpFR	4	13	-1	NOMAD	955	n/a	-1	1	1.0	1.0	upper	../fonts/Verdana.ttf
2137843	WORD	wordpools/wasnorm_wordpool_less_exclusions.txt	LTP256	ltpFR	4	13	-1	BOWL	158	n/a	-1	1	1.0	1.0	upper	../fonts/Verdana.ttf
2141837	WORD	wordpools/wasnorm_wordpool_less_exclusions.txt	LTP256	ltpFR	4	13	-1	BEAN	105	n/a	-1	1	1.0	1.0	upper	../fonts/Verdana.ttf
2145848	WORD	wordpools/wasnorm_wordpool_less_exclusions.txt	LTP256	ltpFR	4	13	-1	FATHER	554	n/a	-1	1	1.0	1.0	upper	../fonts/Verdana.ttf
2149925	WORD	wordpools/wasnorm_wordpool_less_exclusions.txt	LTP256	ltpFR	4	13	-1	CLOVE	329	n/a	-1	1	1.0	1.0	upper	../fonts/Verdana.ttf
2153985	WORD	wordpools/wasnorm_wordpool_less_exclusions.txt	LTP256	ltpFR	4	13	-1	SALOON	1228	n/a	-1	1	1.0	1.0	upper	../fonts/Verdana.ttf
2158113	WORD	wordpools/wasnorm_wordpool_less_exclusions.txt	LTP256	ltpFR	4	13	-1	JUG	762	n/a	-1	1	1.0	1.0	upper	../fonts/Verdana.ttf
2162140	WORD	wordpools/wasnorm_wordpool_less_exclusions.txt	LTP256	ltpFR	4	13	-1	STREAM	1392	n/a	-1	1	1.0	1.0	upper	../fonts/Verdana.ttf
2166334	WORD	wordpools/wasnorm_wordpool_less_exclusions.txt	LTP256	ltpFR	4	13	-1	PAIL	1002	n/a	-1	1	1.0	1.0	upper	../fonts/Verdana.ttf
2170278	WORD	wordpools/wasnorm_wordpool_less_exclusions.txt	LTP256	ltpFR	4	13	-1	VINEGAR	1569	n/a	-1	1	1.0	1.0	upper	../fonts/Verdana.ttf
2174288	WORD	wordpools/wasnorm_wordpool_less_exclusions.txt	LTP256	ltpFR	4	13	-1	OINTMENT	974	n/a	-1	1	1.0	1.0	upper	../fonts/Verdana.ttf
2178199	WORD	wordpools/wasnorm_wordpool_less_exclusions.txt	LTP256	ltpFR	4	13	-1	WHISTLE	1606	n/a	-1	1	1.0	1.0	upper	../fonts/Verdana.ttf
2184141	REC_START	n/a	LTP256	ltpFR	4	13	n/a	n/a	n/a	n/a	n/a	n/a	n/a	n/a	n/a	n/a
2185306	REC_WORD	wordpools/wasnorm_wordpool_less_exclusions.txt	LTP256	ltpFR	4	13	-1	WHISTLE	1606	n/a	-1	n/a	n/a	n/a	n/a	n/a
2188342	REC_WORD	wordpools/wasnorm_wordpool_less_exclusions.txt	LTP256	ltpFR	4	13	-1	PAIL	1002	n/a	-1	n/a	n/a	n/a	n/a	n/a
2189339	REC_WORD	wordpools/wasnorm_wordpool_less_exclusions.txt	LTP256	ltpFR	4	13	-1	VINEGAR	1569	n/a	-1	n/a	n/a	n/a	n/a	n/a
2190641	REC_WORD	wordpools/wasnorm_wordpool_less_exclusions.txt	LTP256	ltpFR	4	13	-1	JUG	762	n/a	-1	n/a	n/a	n/a	n/a	n/a
2191476	REC_WORD	wordpools/wasnorm_wordpool_less_exclusions.txt	LTP256	ltpFR	4	13	-1	STREAM	1392	n/a	-1	n/a	n/a	n/a	n/a	n/a
2192836	REC_WORD	wordpools/wasnorm_wordpool_less_exclusions.txt	LTP256	ltpFR	4	13	-1	DISH	474	n/a	-1	n/a	n/a	n/a	n/a	n/a
2193748	REC_WORD	wordpools/wasnorm_wordpool_less_exclusions.txt	LTP256	ltpFR	4	13	-1	SALAD	1224	n/a	-1	n/a	n/a	n/a	n/a	n/a
2194814	REC_WORD	wordpools/wasnorm_wordpool_less_exclusions.txt	LTP256	ltpFR	4	13	-1	BOWL	158	n/a	-1	n/a	n/a	n/a	n/a	n/a
2195986	REC_WORD	wordpools/wasnorm_wordpool_less_exclusions.txt	LTP256	ltpFR	4	13	-1	BEAN	105	n/a	-1	n/a	n/a	n/a	n/a	n/a
2197090	REC_WORD	wordpools/wasnorm_wordpool_less_exclusions.txt	LTP256	ltpFR	4	13	-1	FATHER	554	n/a	-1	n/a	n/a	n/a	n/a	n/a
2198378	REC_WORD	wordpools/wasnorm_wordpool_less_exclusions.txt	LTP256	ltpFR	4	13	-1	NOMAD	955	n/a	-1	n/a	n/a	n/a	n/a	n/a
2199592	REC_WORD	wordpools/wasnorm_wordpool_less_exclusions.txt	LTP256	ltpFR	4	13	-1	WAGON	1578	n/a	-1	n/a	n/a	n/a	n/a	n/a
2200755	REC_WORD	wordpools/wasnorm_wordpool_less_exclusions.txt	LTP256	ltpFR	4	13	-1	HELMET	702	n/a	-1	n/a	n/a	n/a	n/a	n/a
2203692	REC_WORD	wordpools/wasnorm_wordpool_less_exclusions.txt	LTP256	ltpFR	4	13	-1	OINTMENT	974	n/a	-1	n/a	n/a	n/a	n/a	n/a
2206174	REC_WORD	wordpools/wasnorm_wordpool_less_exclusions.txt	LTP256	ltpFR	4	13	-1	SALOON	1228	n/a	-1	n/a	n/a	n/a	n/a	n/a
2262622	WORD	wordpools/wasnorm_wordpool_less_exclusions.txt	LTP256	ltpFR	4	14	1	OYSTER	995	n/a	1	0	0.5869140625	0.422607421875	upper	../fonts/zerothre.ttf
2266516	WORD	wordpools/wasnorm_wordpool_less_exclusions.txt	LTP256	ltpFR	4	14	1	BUN	197	n/a	1	0	0.5869140625	0.422607421875	upper	../fonts/zerothre.ttf
2270644	WORD	wordpools/wasnorm_wordpool_less_exclusions.txt	LTP256	ltpFR	4	14	1	RADIO	1157	n/a	0	0	0.5869140625	0.422607421875	upper	../fonts/zerothre.ttf
2274554	WORD	wordpools/wasnorm_wordpool_less_exclusions.txt	LTP256	ltpFR	4	14	1	DISC	473	n/a	0	0	0.5869140625	0.422607421875	upper	../fonts/zerothre.ttf
2278615	WORD	wordpools/wasnorm_wordpool_less_exclusions.txt	LTP256	ltpFR	4	14	1	STRAW	1390	n/a	0	0	0.5869140625	0.422607421875	upper	../fonts/zerothre.ttf
2282642	WORD	wordpools/wasnorm_wordpool_less_exclusions.txt	LTP256	ltpFR	4	14	1	KLEENEX	782	n/a	0	0	0.5869140625	0.422607421875	upper	../fonts/zerothre.ttf
2286686	WORD	wordpools/wasnorm_wordpool_less_exclusions.txt	LTP256	ltpFR	4	14	1	TELEPHONE	1445	n/a	0	0	0.5869140625	0.422607421875	upper	../fonts/zerothre.ttf
2290514	WORD	wordpools/wasnorm_wordpool_less_exclusions.txt	LTP256	ltpFR	4	14	1	KETCHUP	771	n/a	0	0	0.5869140625	0.422607421875	upper	../fonts/zerothre.ttf
2294658	WORD	wordpools/wasnorm_wordpool_less_exclusions.txt	LTP256	ltpFR	4	14	1	BURGLAR	200	n/a	1	0	0.5869140625	0.422607421875	upper	../fonts/zerothre.ttf
2298836	WORD	wordpools/wasnorm_wordpool_less_exclusions.txt	LTP256	ltpFR	4	14	1	CROOK	412	n/a	1	0	0.5869140625	0.422607421875	upper	../fonts/zerothre.ttf
2302763	WORD	wordpools/wasnorm_wordpool_less_exclusions.txt	LTP256	ltpFR	4	14	1	QUARTER	1148	n/a	0	0	0.5869140625	0.422607421875	upper	../fonts/zerothre.ttf
2306623	WORD	wordpools/wasnorm_wordpool_less_exclusions.txt	LTP256	ltpFR	4	14	1	DIAL	457	n/a	0	0	0.5869140625	0.422607421875	upper	../fonts/zerothre.ttf
2310717	WORD	wordpools/wasnorm_wordpool_less_exclusions.txt	LTP256	ltpFR	4	14	1	DOORBELL	487	n/a	0	0	0.5869140625	0.422607421875	upper	../fonts/zerothre.ttf
2314746	WORD	wordpools/wasnorm_wordpool_less_exclusions.txt	LTP256	ltpFR	4	14	1	CENT	270	n/a	0	0	0.5869140625	0.422607421875	upper	../fonts/zerothre.ttf
2318655	WORD	wordpools/wasnorm_wordpool_less_exclusions.txt	LTP256	ltpFR	4	14	1	HAWK	692	n/a	1	0	0.5869140625	0.422607421875	upper	../fonts/zerothre.ttf
2322533	WORD	wordpools/wasnorm_wordpool_less_exclusions.txt	LTP256	ltpFR	4	14	1	BUTTERFLY	206	n/a	1	0	0.5869140625	0.422607421875	upper	../fonts/zerothre.ttf
2328242	REC_START	n/a	LTP256	ltpFR	4	14	n/a	n/a	n/a	n/a	n/a	n/a	n/a	n/a	n/a	n/a
2328981	REC_WORD	wordpools/wasnorm_wordpool_less_exclusions.txt	LTP256	ltpFR	4	14	1	HAWK	692	n/a	1	n/a	n/a	n/a	n/a	n/a
2330290	REC_WORD	wordpools/wasnorm_wordpool_less_exclusions.txt	LTP256	ltpFR	4	14	1	BUTTERFLY	206	n/a	1	n/a	n/a	n/a	n/a	n/a
2331527	REC_WORD	wordpools/wasnorm_wordpool_less_exclusions.txt	LTP256	ltpFR	4	14	1	BURGLAR	200	n/a	1	n/a	n/a	n/a	n/a	n/a
2332694	REC_WORD	wordpools/wasnorm_wordpool_less_exclusions.txt	LTP256	ltpFR	4	14	1	CROOK	412	n/a	1	n/a	n/a	n/a	n/a	n/a
2334252	REC_WORD	wordpools/wasnorm_wordpool_less_exclusions.txt	LTP256	ltpFR	4	14	1	RADIO	1157	n/a	0	n/a	n/a	n/a	n/a	n/a
2335533	REC_WORD	wordpools/wasnorm_wordpool_less_exclusions.txt	LTP256	ltpFR	4	14	1	DISC	473	n/a	0	n/a	n/a	n/a	n/a	n/a
2337083	REC_WORD	wordpools/wasnorm_wordpool_less_exclusions.txt	LTP256	ltpFR	4	14	1	DIAL	457	n/a	0	n/a	n/a	n/a	n/a	n/a
2338208	REC_WORD	wordpools/wasnorm_wordpool_less_exclusions.txt	LTP256	ltpFR	4	14	1	TELEPHONE	1445	n/a	0	n/a	n/a	n/a	n/a	n/a
2340419	REC_WORD	wordpools/wasnorm_wordpool_less_exclusions.txt	LTP256	ltpFR	4	14	1	DOORBELL	487	n/a	0	n/a	n/a	n/a	n/a	n/a
2349173	REC_WORD	wordpools/wasnorm_wordpool_less_exclusions.txt	LTP256	ltpFR	4	14	1	KLEENEX	782	n/a	0	n/a	n/a	n/a	n/a	n/a
2406874	WORD	wordpools/wasnorm_wordpool_less_exclusions.txt	LTP256	ltpFR	4	15	0	SHRINE	1298	n/a	1	1	0.412841796875	0.57763671875	lower	../fonts/amplitud.ttf
2410968	WORD	wordpools/wasnorm_wordpool_less_exclusions.txt	LTP256	ltpFR	4	15	0	CHAPEL	280	n/a	1	1	0.412841796875	0.57763671875	lower	../fonts/amplitud.ttf
2414946	WORD	wordpools/wasnorm_wordpool_less_exclusions.txt	LTP256	ltpFR	4	15	1	PEBBLE	1035	n/a	0	0	0.5869140625	0.422607421875	upper	../fonts/zerothre.ttf
2419090	WORD	wordpools/wasnorm_wordpool_less_exclusions.txt	LTP256	ltpFR	4	15	1	SPARROW	1347	n/a	1	0	0.5869140625	0.422607421875	upper	../fonts/zerothre.ttf
2423117	WORD	wordpools/wasnorm_wordpool_less_exclusions.txt	LTP256	ltpFR	4	15	1	FOLDER	588	n/a	0	0	0.5869140625	0.422607421875	upper	../fonts/zerothre.ttf
2427277	WORD	wordpools/wasnorm_wordpool_less_exclusions.txt	LTP256	ltpFR	4	15	0	SKIN	1318	n/a	1	1	0.412841796875	0.57763671875	lower	../fonts/amplitud.ttf
2431205	WORD	wordpools/wasnorm_wordpool_less_exclusions.txt	LTP256	ltpFR	4	15	0	BEEF	113	n/a	1	1	0.412841796875	0.57763671875	lower	../fonts/amplitud.ttf
2435299	WORD	wordpools/wasnorm_wordpool_less_exclusions.txt	LTP256	ltpFR	4	15	0	CAGE	218	n/a	1	1	0.412841796875	0.57763671875	lower	../fonts/amplitud.ttf
2439508	WORD	wordpools/wasnorm_wordpool_less_exclusions.txt	LTP256	ltpFR	4	15	1	EAGLE	512	n/a	1	0	0.5869140625	0.422607421875	upper	../fonts/zerothre.ttf
2443552	WORD	wordpools/wasnorm_wordpool_less_exclusions.txt	LTP256	ltpFR	4	15	1	MAT	877	n/a	0	0	0.5869140625	0.422607421875	upper	../fonts/zerothre.ttf
2447613	WORD	wordpools/wasnorm_wordpool_less_exclusions.txt	LTP256	ltpFR	4	15	1	PIGEON	1065	n/a	1	0	0.5869140625	0.422607421875	upper	../fonts/zerothre.ttf
2451791	WORD	wordpools/wasnorm_wordpool_less_exclusions.txt	LTP256	ltpFR	4	15	1	PELICAN	1039	n/a	1	0	0.5869140625	0.422607421875	upper	../fonts/zerothre.ttf
2455818	WORD	wordpools/wasnorm_wordpool_less_exclusions.txt	LTP256	ltpFR	4	15	1	LOCK	838	n/a	0	0	0.5869140625	0.422607421875	upper	../fonts/zerothre.ttf
2459895	WORD	wordpools/wasnorm_wordpool_less_exclusions.txt	LTP256	ltpFR	4	15	0	KIDNEY	776	n/a	0	1	0.412841796875	0.57763671875	lower	../fonts/amplitud.ttf
2464056	WORD	wordpools/wasnorm_wordpool_less_exclusions.txt	LTP256	ltpFR	4	15	0	GOBLIN	645	n/a	1	1	0.412841796875	0.57763671875	lower	../fonts/amplitud.ttf
2468100	WORD	wordpools/wasnorm_wordpool_less_exclusions.txt	LTP256	ltpFR	4	15	0	PRINTER	1126	n/a	1	1	0.412841796875	0.57763671875	lower	../fonts/amplitud.ttf
2473875	REC_START	n/a	LTP256	ltpFR	4	15	n/a	n/a	n/a	n/a	n/a	n/a	n/a	n/a	n/a	n/a
2475046	REC_WORD	wordpools/wasnorm_wordpool_less_exclusions.txt	LTP256	ltpFR	4	15	0	PRINTER	1126	n/a	1	n/a	n/a	n/a	n/a	n/a
2476302	REC_WORD	wordpools/wasnorm_wordpool_less_exclusions.txt	LTP256	ltpFR	4	15	0	KIDNEY	776	n/a	0	n/a	n/a	n/a	n/a	n/a
2477435	REC_WORD	wordpools/wasnorm_wordpool_less_exclusions.txt	LTP256	ltpFR	4	15	0	GOBLIN	645	n/a	1	n/a	n/a	n/a	n/a	n/a
2478755	REC_WORD	wordpools/wasnorm_wordpool_less_exclusions.txt	LTP256	ltpFR	4	15	0	CAGE	218	n/a	1	n/a	n/a	n/a	n/a	n/a
2479964	REC_WORD	wordpools/wasnorm_wordpool_less_exclusions.txt	LTP256	ltpFR	4	15	1	LOCK	838	n/a	0	n/a	n/a	n/a	n/a	n/a
2481207	REC_WORD	wordpools/wasnorm_wordpool_less_exclusions.txt	LTP256	ltpFR	4	15	1	MAT	877	n/a	0	n/a	n/a	n/a	n/a	n/a
2484101	REC_WORD	wordpools/wasnorm_wordpool_less_exclusions.txt	LTP256	ltpFR	4	15	0	BEEF	113	n/a	1	n/a	n/a	n/a	n/a	n/a
2485772	REC_WORD	wordpools/wasnorm_wordpool_less_exclusions.txt	LTP256	ltpFR	4	15	0	SKIN	1318	n/a	1	n/a	n/a	n/a	n/a	n/a
2489436	REC_WORD	wordpools/wasnorm_wordpool_less_exclusions.txt	LTP256	ltpFR	4	15	0	CHAPEL	280	n/a	1	n/a	n/a	n/a	n/a	n/a
2490750	REC_WORD	wordpools/wasnorm_wordpool_less_exclusions.txt	LTP256	ltpFR	4	15	0	SHRINE	1298	n/a	1	n/a	n/a	n/a	n/a	n/a
2497025	REC_WORD	wordpools/wasnorm_wordpool_less_exclusions.txt	LTP256	ltpFR	4	15	1	EAGLE	512	n/a	1	n/a	n/a	n/a	n/a	n/a
2498122	REC_WORD	wordpools/wasnorm_wordpool_less_exclusions.txt	LTP256	ltpFR	4	15	1	PELICAN	1039	n/a	1	n/a	n/a	n/a	n/a	n/a
2501572	REC_WORD	wordpools/wasnorm_wordpool_less_exclusions.txt	LTP256	ltpFR	4	15	1	PIGEON	1065	n/a	1	n/a	n/a	n/a	n/a	n/a
2552589	WORD	wordpools/wasnorm_wordpool_less_exclusions.txt	LTP256	ltpFR	4	16	-1	RAFT	1159	n/a	-1	1	1.0	1.0	upper	../fonts/Verdana.ttf
2556600	WORD	wordpools/wasnorm_wordpool_less_exclusions.txt	LTP256	ltpFR	4	16	-1	CORD	379	n/a	-1	1	1.0	1.0	upper	../fonts/Verdana.ttf
2560544	WORD	wordpools/wasnorm_wordpool_less_exclusions.txt	LTP256	ltpFR	4	16	-1	SHED	1277	n/a	-1	1	1.0	1.0	upper	../fonts/Verdana.ttf
2564456	WORD	wordpools/wasnorm_wordpool_less_exclusions.txt	LTP256	ltpFR	4	16	-1	UNIVERSE	1540	n/a	-1	1	1.0	1.0	upper	../fonts/Verdana.ttf
2568649	WORD	wordpools/wasnorm_wordpool_less_exclusions.txt	LTP256	ltpFR	4	16	-1	HAY	693	n/a	-1	1	1.0	1.0	upper	../fonts/Verdana.ttf
2572709	WORD	wordpools/wasnorm_wordpool_less_exclusions.txt	LTP256	ltpFR	4	16	-1	PAVEMENT	1028	n/a	-1	1	1.0	1.0	upper	../fonts/Verdana.ttf
2576821	WORD	wordpools/wasnorm_wordpool_less_exclusions.txt	LTP256	ltpFR	4	16	-1	STREET	1393	n/a	-1	1	1.0	1.0	upper	../fonts/Verdana.ttf
2580781	WORD	wordpools/wasnorm_wordpool_less_exclusions.txt	LTP256	ltpFR	4	16	-1	PALM	1007	n/a	-1	1	1.0	1.0	upper	../fonts/Verdana.ttf
2584825	WORD	wordpools/wasnorm_wordpool_less_exclusions.txt	LTP256	ltpFR	4	16	-1	SADDLE	1221	n/a	-1	1	1.0	1.0	upper	../fonts/Verdana.ttf
2588736	WORD	wordpools/wasnorm_wordpool_less_exclusions.txt	LTP256	ltpFR	4	16	-1	GENTLEMAN	631	n/a	-1	1	1.0	1.0	upper	../fonts/Verdana.ttf
2592629	WORD	wordpools/wasnorm_wordpool_less_exclusions.txt	LTP256	ltpFR	4	16	-1	CHEST	295	n/a	-1	1	1.0	1.0	upper	../fonts/Verdana.ttf
2596741	WORD	wordpools/wasnorm_wordpool_less_exclusions.txt	LTP256	ltpFR	4	16	-1	SHORE	1291	n/a	-1	1	1.0	1.0	upper	../fonts/Verdana.ttf
2600818	WORD	wordpools/wasnorm_wordpool_less_exclusions.txt	LTP256	ltpFR	4	16	-1	VOLLEYBALL	1576	n/a	-1	1	1.0	1.0	upper	../fonts/Verdana.ttf
2604729	WORD	wordpools/wasnorm_wordpool_less_exclusions.txt	LTP256	ltpFR	4	16	-1	FLESH	579	n/a	-1	1	1.0	1.0	upper	../fonts/Verdana.ttf
2608639	WORD	wordpools/wasnorm_wordpool_less_exclusions.txt	LTP256	ltpFR	4	16	-1	CHEDDAR	286	n/a	-1	1	1.0	1.0	upper	../fonts/Verdana.ttf
2612516	WORD	wordpools/wasnorm_wordpool_less_exclusions.txt	LTP256	ltpFR	4	16	-1	WRIST	1626	n/a	-1	1	1.0	1.0	upper	../fonts/Verdana.ttf
2618209	REC_START	n/a	LTP256	ltpFR	4	16	n/a	n/a	n/a	n/a	n/a	n/a	n/a	n/a	n/a	n/a
2618928	REC_WORD	wordpools/wasnorm_wordpool_less_exclusions.txt	LTP256	ltpFR	4	16	-1	CHEDDAR	286	n/a	-1	n/a	n/a	n/a	n/a	n/a
2620058	REC_WORD	wordpools/wasnorm_wordpool_less_exclusions.txt	LTP256	ltpFR	4	16	-1	WRIST	1626	n/a	-1	n/a	n/a	n/a	n/a	n/a
2621160	REC_WORD	wordpools/wasnorm_wordpool_less_exclusions.txt	LTP256	ltpFR	4	16	-1	SHORE	1291	n/a	-1	n/a	n/a	n/a	n/a	n/a
2622555	REC_WORD	wordpools/wasnorm_wordpool_less_exclusions.txt	LTP256	ltpFR	4	16	-1	RAFT	1159	n/a	-1	n/a	n/a	n/a	n/a	n/a
2623928	REC_WORD	wordpools/wasnorm_wordpool_less_exclusions.txt	LTP256	ltpFR	4	16	-1	CORD	379	n/a	-1	n/a	n/a	n/a	n/a	n/a
2626474	REC_WORD	wordpools/wasnorm_wordpool_less_exclusions.txt	LTP256	ltpFR	4	16	-1	PAVEMENT	1028	n/a	-1	n/a	n/a	n/a	n/a	n/a
2627440	REC_WORD	wordpools/wasnorm_wordpool_less_exclusions.txt	LTP256	ltpFR	4	16	-1	STREET	1393	n/a	-1	n/a	n/a	n/a	n/a	n/a
2629538	REC_WORD	wordpools/wasnorm_wordpool_less_exclusions.txt	LTP256	ltpFR	4	16	-1	CHEST	295	n/a	-1	n/a	n/a	n/a	n/a	n/a
2631191	REC_WORD	wordpools/wasnorm_wordpool_less_exclusions.txt	LTP256	ltpFR	4	16	-1	GENTLEMAN	631	n/a	-1	n/a	n/a	n/a	n/a	n/a
2632268	REC_WORD	wordpools/wasnorm_wordpool_less_exclusions.txt	LTP256	ltpFR	4	16	-1	SADDLE	1221	n/a	-1	n/a	n/a	n/a	n/a	n/a
2636124	REC_WORD	wordpools/wasnorm_wordpool_less_exclusions.txt	LTP256	ltpFR	4	16	-1	UNIVERSE	1540	n/a	-1	n/a	n/a	n/a	n/a	n/a
2638766	REC_WORD	wordpools/wasnorm_wordpool_less_exclusions.txt	LTP256	ltpFR	4	16	-1	PALM	1007	n/a	-1	n/a	n/a	n/a	n/a	n/a
2724151	REC_START	n/a	LTP256	ltpFR	4	1	n/a	n/a	n/a	n/a	n/a	n/a	n/a	n/a	n/a	n/a
2724184	RECOG_TARGET	n/a	LTP256	ltpFR	4	1	0	WASHCLOTH	1591	4	0	n/a	n/a	n/a	n/a	n/a
2726590	RECOG_RESP	n/a	LTP256	ltpFR	4	1	0	WASHCLOTH	1591	n/a	0	n/a	n/a	n/a	n/a	n/a
2728316	RECOG_CONF	n/a	LTP256	ltpFR	4	1	0	WASHCLOTH	1591	4	0	n/a	n/a	n/a	n/a	n/a
2730358	RECOG_TARGET	n/a	LTP256	ltpFR	4	1	0	LANDSCAPE	799	5	1	n/a	n/a	n/a	n/a	n/a
2730985	RECOG_RESP	n/a	LTP256	ltpFR	4	1	0	LANDSCAPE	799	n/a	1	n/a	n/a	n/a	n/a	n/a
2732367	RECOG_CONF	n/a	LTP256	ltpFR	4	1	0	LANDSCAPE	799	5	1	n/a	n/a	n/a	n/a	n/a
2734136	RECOG_TARGET	n/a	LTP256	ltpFR	4	1	-1	SALAD	1224	5	-1	n/a	n/a	n/a	n/a	n/a
2734891	RECOG_RESP	n/a	LTP256	ltpFR	4	1	-1	SALAD	1224	n/a	-1	n/a	n/a	n/a	n/a	n/a
2736238	RECOG_CONF	n/a	LTP256	ltpFR	4	1	-1	SALAD	1224	5	-1	n/a	n/a	n/a	n/a	n/a
2738113	RECOG_LURE	n/a	LTP256	ltpFR	4	1	n/a	TORNADO	1485	3	n/a	n/a	n/a	n/a	n/a	n/a
2738773	RECOG_RESP	n/a	LTP256	ltpFR	4	1	n/a	TORNADO	1485	n/a	n/a	n/a	n/a	n/a	n/a	n/a
2740020	RECOG_CONF	n/a	LTP256	ltpFR	4	1	n/a	TORNADO	1485	3	n/a	n/a	n/a	n/a	n/a	n/a
2741824	RECOG_LURE	n/a	LTP256	ltpFR	4	1	n/a	DOCTOR	478	4	n/a	n/a	n/a	n/a	n/a	n/a
2742534	RECOG_RESP	n/a	LTP256	ltpFR	4	1	n/a	DOCTOR	478	n/a	n/a	n/a	n/a	n/a	n/a	n/a
2743861	RECOG_CONF	n/a	LTP256	ltpFR	4	1	n/a	DOCTOR	478	4	n/a	n/a	n/a	n/a	n/a	n/a
2745518	RECOG_TARGET	n/a	LTP256	ltpFR	4	1	1	SIGNATURE	1306	4	0	n/a	n/a	n/a	n/a	n/a
2746141	RECOG_RESP	n/a	LTP256	ltpFR	4	1	1	SIGNATURE	1306	n/a	0	n/a	n/a	n/a	n/a	n/a
2747413	RECOG_CONF	n/a	LTP256	ltpFR	4	1	1	SIGNATURE	1306	4	0	n/a	n/a	n/a	n/a	n/a
2749130	RECOG_TARGET	n/a	LTP256	ltpFR	4	1	1	DIAL	457	4	0	n/a	n/a	n/a	n/a	n/a
2749822	RECOG_RESP	n/a	LTP256	ltpFR	4	1	1	DIAL	457	n/a	0	n/a	n/a	n/a	n/a	n/a
2751194	RECOG_CONF	n/a	LTP256	ltpFR	4	1	1	DIAL	457	4	0	n/a	n/a	n/a	n/a	n/a
2752891	RECOG_TARGET	n/a	LTP256	ltpFR	4	1	0	CHECK	284	5	0	n/a	n/a	n/a	n/a	n/a
2753419	RECOG_RESP	n/a	LTP256	ltpFR	4	1	0	CHECK	284	n/a	0	n/a	n/a	n/a	n/a	n/a
2754686	RECOG_CONF	n/a	LTP256	ltpFR	4	1	0	CHECK	284	5	0	n/a	n/a	n/a	n/a	n/a
2756618	RECOG_TARGET	n/a	LTP256	ltpFR	4	1	-1	PAVEMENT	1028	5	-1	n/a	n/a	n/a	n/a	n/a
2757191	RECOG_RESP	n/a	LTP256	ltpFR	4	1	-1	PAVEMENT	1028	n/a	-1	n/a	n/a	n/a	n/a	n/a
2758338	RECOG_CONF	n/a	LTP256	ltpFR	4	1	-1	PAVEMENT	1028	5	-1	n/a	n/a	n/a	n/a	n/a
2760180	RECOG_TARGET	n/a	LTP256	ltpFR	4	1	1	PEBBLE	1035	2	0	n/a	n/a	n/a	n/a	n/a
2762105	RECOG_RESP	n/a	LTP256	ltpFR	4	1	1	PEBBLE	1035	n/a	0	n/a	n/a	n/a	n/a	n/a
2763317	RECOG_CONF	n/a	LTP256	ltpFR	4	1	1	PEBBLE	1035	2	0	n/a	n/a	n/a	n/a	n/a
2765173	RECOG_TARGET	n/a	LTP256	ltpFR	4	1	1	PUBLISHER	1137	3	1	n/a	n/a	n/a	n/a	n/a
2765811	RECOG_RESP	n/a	LTP256	ltpFR	4	1	1	PUBLISHER	1137	n/a	1	n/a	n/a	n/a	n/a	n/a
2767148	RECOG_CONF	n/a	LTP256	ltpFR	4	1	1	PUBLISHER	1137	3	1	n/a	n/a	n/a	n/a	n/a
2768867	RECOG_TARGET	n/a	LTP256	ltpFR	4	1	-1	JUNGLE	764	5	-1	n/a	n/a	n/a	n/a	n/a
2769423	RECOG_RESP	n/a	LTP256	ltpFR	4	1	-1	JUNGLE	764	n/a	-1	n/a	n/a	n/a	n/a	n/a
2770810	RECOG_CONF	n/a	LTP256	ltpFR	4	1	-1	JUNGLE	764	5	-1	n/a	n/a	n/a	n/a	n/a
2772594	RECOG_LURE	n/a	LTP256	ltpFR	4	1	n/a	MULE	931	4	n/a	n/a	n/a	n/a	n/a	n/a
2773554	RECOG_RESP	n/a	LTP256	ltpFR	4	1	n/a	MULE	931	n/a	n/a	n/a	n/a	n/a	n/a	n/a
2774980	RECOG_CONF	n/a	LTP256	ltpFR	4	1	n/a	MULE	931	4	n/a	n/a	n/a	n/a	n/a	n/a
2776755	RECOG_TARGET	n/a	LTP256	ltpFR	4	1	0	CAFETERIA	217	5	1	n/a	n/a	n/a	n/a	n/a
2777305	RECOG_RESP	n/a	LTP256	ltpFR	4	1	0	CAFETERIA	217	n/a	1	n/a	n/a	n/a	n/a	n/a
2778502	RECOG_CONF	n/a	LTP256	ltpFR	4	1	0	CAFETERIA	217	5	1	n/a	n/a	n/a	n/a	n/a
2780217	RECOG_TARGET	n/a	LTP256	ltpFR	4	1	1	BIOLOGIST	128	2	1	n/a	n/a	n/a	n/a	n/a
2781111	RECOG_RESP	n/a	LTP256	ltpFR	4	1	1	BIOLOGIST	128	n/a	1	n/a	n/a	n/a	n/a	n/a
2782344	RECOG_CONF	n/a	LTP256	ltpFR	4	1	1	BIOLOGIST	128	2	1	n/a	n/a	n/a	n/a	n/a
2784194	RECOG_TARGET	n/a	LTP256	ltpFR	4	1	0	GREASE	660	4	1	n/a	n/a	n/a	n/a	n/a
2784798	RECOG_RESP	n/a	LTP256	ltpFR	4	1	0	GREASE	660	n/a	1	n/a	n/a	n/a	n/a	n/a
2786075	RECOG_CONF	n/a	LTP256	ltpFR	4	1	0	GREASE	660	4	1	n/a	n/a	n/a	n/a	n/a
2787705	RECOG_TARGET	n/a	LTP256	ltpFR	4	1	1	CLAW	319	5	0	n/a	n/a	n/a	n/a	n/a
2788180	RECOG_RESP	n/a	LTP256	ltpFR	4	1	1	CLAW	319	n/a	0	n/a	n/a	n/a	n/a	n/a
2789398	RECOG_CONF	n/a	LTP256	ltpFR	4	1	1	CLAW	319	5	0	n/a	n/a	n/a	n/a	n/a
2791167	RECOG_LURE	n/a	LTP256	ltpFR	4	1	n/a	STADIUM	1364	2	n/a	n/a	n/a	n/a	n/a	n/a
2791742	RECOG_RESP	n/a	LTP256	ltpFR	4	1	n/a	STADIUM	1364	n/a	n/a	n/a	n/a	n/a	n/a	n/a
2793099	RECOG_CONF	n/a	LTP256	ltpFR	4	1	n/a	STADIUM	1364	2	n/a	n/a	n/a	n/a	n/a	n/a
2794845	RECOG_TARGET	n/a	LTP256	ltpFR	4	1	1	SQUID	1361	1	1	n/a	n/a	n/a	n/a	n/a
2795534	RECOG_RESP_VV	n/a	LTP256	ltpFR	4	1	1	SQUID	1361	n/a	1	n/a	n/a	n/a	n/a	n/a
2796801	RECOG_RESP	n/a	LTP256	ltpFR	4	1	1	SQUID	1361	n/a	1	n/a	n/a	n/a	n/a	n/a
2798447	RECOG_CONF	n/a	LTP256	ltpFR	4	1	1	SQUID	1361	1	1	n/a	n/a	n/a	n/a	n/a
2800170	RECOG_TARGET	n/a	LTP256	ltpFR	4	1	0	GARLIC	624	3	0	n/a	n/a	n/a	n/a	n/a
2800682	RECOG_RESP	n/a	LTP256	ltpFR	4	1	0	GARLIC	624	n/a	0	n/a	n/a	n/a	n/a	n/a
2802178	RECOG_CONF	n/a	LTP256	ltpFR	4	1	0	GARLIC	624	3	0	n/a	n/a	n/a	n/a	n/a
2805783	REC_START	n/a	LTP256	ltpFR	4	2	n/a	n/a	n/a	n/a	n/a	n/a	n/a	n/a	n/a	n/a
2805812	RECOG_TARGET	n/a	LTP256	ltpFR	4	2	1	COLONEL	348	5	1	n/a	n/a	n/a	n/a	n/a
2806456	RECOG_RESP	n/a	LTP256	ltpFR	4	2	1	COLONEL	348	n/a	1	n/a	n/a	n/a	n/a	n/a
2807614	RECOG_CONF	n/a	LTP256	ltpFR	4	2	1	COLONEL	348	5	1	n/a	n/a	n/a	n/a	n/a
2809473	RECOG_TARGET	n/a	LTP256	ltpFR	4	2	0	CAB	209	5	1	n/a	n/a	n/a	n/a	n/a
2809993	RECOG_RESP	n/a	LTP256	ltpFR	4	2	0	CAB	209	n/a	1	n/a	n/a	n/a	n/a	n/a
2811086	RECOG_CONF	n/a	LTP256	ltpFR	4	2	0	CAB	209	5	1	n/a	n/a	n/a	n/a	n/a
2812901	RECOG_TARGET	n/a	LTP256	ltpFR	4	2	1	TELEPHONE	1445	4	0	n/a	n/a	n/a	n/a	n/a
2813480	RECOG_RESP	n/a	LTP256	ltpFR	4	2	1	TELEPHONE	1445	n/a	0	n/a	n/a	n/a	n/a	n/a
2814618	RECOG_CONF	n/a	LTP256	ltpFR	4	2	1	TELEPHONE	1445	4	0	n/a	n/a	n/a	n/a	n/a
2816313	RECOG_TARGET	n/a	LTP256	ltpFR	4	2	0	REFRIGERATOR	1179	3	1	n/a	n/a	n/a	n/a	n/a
2817950	RECOG_RESP	n/a	LTP256	ltpFR	4	2	0	REFRIGERATOR	1179	n/a	1	n/a	n/a	n/a	n/a	n/a
2819108	RECOG_CONF	n/a	LTP256	ltpFR	4	2	0	REFRIGERATOR	1179	3	1	n/a	n/a	n/a	n/a	n/a
2820889	RECOG_TARGET	n/a	LTP256	ltpFR	4	2	-1	ANTLER	29	3	-1	n/a	n/a	n/a	n/a	n/a
2821532	RECOG_RESP	n/a	LTP256	ltpFR	4	2	-1	ANTLER	29	n/a	-1	n/a	n/a	n/a	n/a	n/a
2822849	RECOG_CONF	n/a	LTP256	ltpFR	4	2	-1	ANTLER	29	3	-1	n/a	n/a	n/a	n/a	n/a
2824633	RECOG_TARGET	n/a	LTP256	ltpFR	4	2	0	CHOCOLATE	306	5	0	n/a	n/a	n/a	n/a	n/a
2825244	RECOG_RESP	n/a	LTP256	ltpFR	4	2	0	CHOCOLATE	306	n/a	0	n/a	n/a	n/a	n/a	n/a
2826511	RECOG_CONF	n/a	LTP256	ltpFR	4	2	0	CHOCOLATE	306	5	0	n/a	n/a	n/a	n/a	n/a
2828378	RECOG_LURE	n/a	LTP256	ltpFR	4	2	n/a	CREW	406	2	n/a	n/a	n/a	n/a	n/a	n/a
2830073	RECOG_RESP	n/a	LTP256	ltpFR	4	2	n/a	CREW	406	n/a	n/a	n/a	n/a	n/a	n/a	n/a
2831250	RECOG_CONF	n/a	LTP256	ltpFR	4	2	n/a	CREW	406	2	n/a	n/a	n/a	n/a	n/a	n/a
2833238	RECOG_TARGET	n/a	LTP256	ltpFR	4	2	0	BATHTUB	100	4	1	n/a	n/a	n/a	n/a	n/a
2833964	RECOG_RESP	n/a	LTP256	ltpFR	4	2	0	BATHTUB	100	n/a	1	n/a	n/a	n/a	n/a	n/a
2835101	RECOG_CONF	n/a	LTP256	ltpFR	4	2	0	BATHTUB	100	4	1	n/a	n/a	n/a	n/a	n/a
2836849	RECOG_LURE	n/a	LTP256	ltpFR	4	2	n/a	ASSISTANT	48	3	n/a	n/a	n/a	n/a	n/a	n/a
2837576	RECOG_RESP	n/a	LTP256	ltpFR	4	2	n/a	ASSISTANT	48	n/a	n/a	n/a	n/a	n/a	n/a	n/a
2838833	RECOG_CONF	n/a	LTP256	ltpFR	4	2	n/a	ASSISTANT	48	3	n/a	n/a	n/a	n/a	n/a	n/a
2840609	RECOG_TARGET	n/a	LTP256	ltpFR	4	2	-1	TRICYCLE	1506	5	-1	n/a	n/a	n/a	n/a	n/a
2841237	RECOG_RESP	n/a	LTP256	ltpFR	4	2	-1	TRICYCLE	1506	n/a	-1	n/a	n/a	n/a	n/a	n/a
2842474	RECOG_CONF	n/a	LTP256	ltpFR	4	2	-1	TRICYCLE	1506	5	-1	n/a	n/a	n/a	n/a	n/a
2844321	RECOG_TARGET	n/a	LTP256	ltpFR	4	2	0	BRIEFCASE	175	5	1	n/a	n/a	n/a	n/a	n/a
2844969	RECOG_RESP	n/a	LTP256	ltpFR	4	2	0	BRIEFCASE	175	n/a	1	n/a	n/a	n/a	n/a	n/a
2846166	RECOG_CONF	n/a	LTP256	ltpFR	4	2	0	BRIEFCASE	175	5	1	n/a	n/a	n/a	n/a	n/a
2847966	RECOG_TARGET	n/a	LTP256	ltpFR	4	2	1	SAPPHIRE	1234	5	0	n/a	n/a	n/a	n/a	n/a
2848670	RECOG_RESP	n/a	LTP256	ltpFR	4	2	1	SAPPHIRE	1234	n/a	0	n/a	n/a	n/a	n/a	n/a
2850027	RECOG_CONF	n/a	LTP256	ltpFR	4	2	1	SAPPHIRE	1234	5	0	n/a	n/a	n/a	n/a	n/a
2851910	RECOG_TARGET	n/a	LTP256	ltpFR	4	2	1	VEGETABLE	1552	4	0	n/a	n/a	n/a	n/a	n/a
2852601	RECOG_RESP	n/a	LTP256	ltpFR	4	2	1	VEGETABLE	1552	n/a	0	n/a	n/a	n/a	n/a	n/a
2853938	RECOG_CONF	n/a	LTP256	ltpFR	4	2	1	VEGETABLE	1552	4	0	n/a	n/a	n/a	n/a	n/a
2855737	RECOG_LURE	n/a	LTP256	ltpFR	4	2	n/a	MEAT	883	2	n/a	n/a	n/a	n/a	n/a	n/a
2856937	RECOG_RESP	n/a	LTP256	ltpFR	4	2	n/a	MEAT	883	n/a	n/a	n/a	n/a	n/a	n/a	n/a
2858288	RECOG_CONF	n/a	LTP256	ltpFR	4	2	n/a	MEAT	883	2	n/a	n/a	n/a	n/a	n/a	n/a
2860164	RECOG_TARGET	n/a	LTP256	ltpFR	4	2	0	FLASK	576	3	0	n/a	n/a	n/a	n/a	n/a
2860982	RECOG_RESP_VV	n/a	LTP256	ltpFR	4	2	0	FLASK	576	n/a	0	n/a	n/a	n/a	n/a	n/a
2862329	RECOG_RESP	n/a	LTP256	ltpFR	4	2	0	FLASK	576	n/a	0	n/a	n/a	n/a	n/a	n/a
2863686	RECOG_CONF	n/a	LTP256	ltpFR	4	2	0	FLASK	576	3	0	n/a	n/a	n/a	n/a	n/a
2865423	RECOG_TARGET	n/a	LTP256	ltpFR	4	2	0	RECEIPT	1173	3	0	n/a	n/a	n/a	n/a	n/a
2866121	RECOG_RESP	n/a	LTP256	ltpFR	4	2	0	RECEIPT	1173	n/a	0	n/a	n/a	n/a	n/a	n/a
2867657	RECOG_CONF	n/a	LTP256	ltpFR	4	2	0	RECEIPT	1173	3	0	n/a	n/a	n/a	n/a	n/a
2869467	RECOG_TARGET	n/a	LTP256	ltpFR	4	2	-1	SADDLE	1221	5	-1	n/a	n/a	n/a	n/a	n/a
2870037	RECOG_RESP	n/a	LTP256	ltpFR	4	2	-1	SADDLE	1221	n/a	-1	n/a	n/a	n/a	n/a	n/a
2871558	RECOG_CONF	n/a	LTP256	ltpFR	4	2	-1	SADDLE	1221	5	-1	n/a	n/a	n/a	n/a	n/a
2873510	RECOG_TARGET	n/a	LTP256	ltpFR	4	2	1	SPONGE	1355	4	0	n/a	n/a	n/a	n/a	n/a
2874083	RECOG_RESP	n/a	LTP256	ltpFR	4	2	1	SPONGE	1355	n/a	0	n/a	n/a	n/a	n/a	n/a
2875619	RECOG_CONF	n/a	LTP256	ltpFR	4	2	1	SPONGE	1355	4	0	n/a	n/a	n/a	n/a	n/a
2877604	RECOG_TARGET	n/a	LTP256	ltpFR	4	2	0	COLT	349	4	1	n/a	n/a	n/a	n/a	n/a
2878557	RECOG_RESP	n/a	LTP256	ltpFR	4	2	0	COLT	349	n/a	1	n/a	n/a	n/a	n/a	n/a
2880089	RECOG_CONF	n/a	LTP256	ltpFR	4	2	0	COLT	349	4	1	n/a	n/a	n/a	n/a	n/a
2881948	RECOG_TARGET	n/a	LTP256	ltpFR	4	2	1	SHORTCAKE	1292	4	0	n/a	n/a	n/a	n/a	n/a
2882723	RECOG_RESP	n/a	LTP256	ltpFR	4	2	1	SHORTCAKE	1292	n/a	0	n/a	n/a	n/a	n/a	n/a
2884399	RECOG_CONF	n/a	LTP256	ltpFR	4	2	1	SHORTCAKE	1292	4	0	n/a	n/a	n/a	n/a	n/a
2887966	REC_START	n/a	LTP256	ltpFR	4	3	n/a	n/a	n/a	n/a	n/a	n/a	n/a	n/a	n/a	n/a
2888006	RECOG_TARGET	n/a	LTP256	ltpFR	4	3	-1	VOLLEYBALL	1576	1	-1	n/a	n/a	n/a	n/a	n/a
2889088	RECOG_RESP_VV	n/a	LTP256	ltpFR	4	3	-1	VOLLEYBALL	1576	n/a	-1	n/a	n/a	n/a	n/a	n/a
2890615	RECOG_RESP	n/a	LTP256	ltpFR	4	3	-1	VOLLEYBALL	1576	n/a	-1	n/a	n/a	n/a	n/a	n/a
2892052	RECOG_CONF	n/a	LTP256	ltpFR	4	3	-1	VOLLEYBALL	1576	1	-1	n/a	n/a	n/a	n/a	n/a
2893947	RECOG_TARGET	n/a	LTP256	ltpFR	4	3	0	AGENT	10	5	1	n/a	n/a	n/a	n/a	n/a
2894885	RECOG_RESP	n/a	LTP256	ltpFR	4	3	0	AGENT	10	n/a	1	n/a	n/a	n/a	n/a	n/a
2896282	RECOG_CONF	n/a	LTP256	ltpFR	4	3	0	AGENT	10	5	1	n/a	n/a	n/a	n/a	n/a
2898191	RECOG_LURE	n/a	LTP256	ltpFR	4	3	n/a	DUNGEON	507	2	n/a	n/a	n/a	n/a	n/a	n/a
2899390	RECOG_RESP	n/a	LTP256	ltpFR	4	3	n/a	DUNGEON	507	n/a	n/a	n/a	n/a	n/a	n/a	n/a
2900792	RECOG_CONF	n/a	LTP256	ltpFR	4	3	n/a	DUNGEON	507	2	n/a	n/a	n/a	n/a	n/a	n/a
2902700	RECOG_TARGET	n/a	LTP256	ltpFR	4	3	1	SHEET	1279	3	0	n/a	n/a	n/a	n/a	n/a
2903456	RECOG_RESP_VV	n/a	LTP256	ltpFR	4	3	1	SHEET	1279	n/a	0	n/a	n/a	n/a	n/a	n/a
2904478	RECOG_RESP	n/a	LTP256	ltpFR	4	3	1	SHEET	1279	n/a	0	n/a	n/a	n/a	n/a	n/a
2906030	RECOG_CONF	n/a	LTP256	ltpFR	4	3	1	SHEET	1279	3	0	n/a	n/a	n/a	n/a	n/a
2907959	RECOG_TARGET	n/a	LTP256	ltpFR	4	3	1	CROW	414	5	1	n/a	n/a	n/a	n/a	n/a
2908803	RECOG_RESP	n/a	LTP256	ltpFR	4	3	1	CROW	414	n/a	1	n/a	n/a	n/a	n/a	n/a
2910240	RECOG_CONF	n/a	LTP256	ltpFR	4	3	1	CROW	414	5	1	n/a	n/a	n/a	n/a	n/a
2912037	RECOG_TARGET	n/a	LTP256	ltpFR	4	3	-1	CASHIER	254	4	-1	n/a	n/a	n/a	n/a	n/a
2912610	RECOG_RESP	n/a	LTP256	ltpFR	4	3	-1	CASHIER	254	n/a	-1	n/a	n/a	n/a	n/a	n/a
2914022	RECOG_CONF	n/a	LTP256	ltpFR	4	3	-1	CASHIER	254	4	-1	n/a	n/a	n/a	n/a	n/a
2915748	RECOG_TARGET	n/a	LTP256	ltpFR	4	3	0	CLOSET	326	5	1	n/a	n/a	n/a	n/a	n/a
2916301	RECOG_RESP	n/a	LTP256	ltpFR	4	3	0	CLOSET	326	n/a	1	n/a	n/a	n/a	n/a	n/a
2917673	RECOG_CONF	n/a	LTP256	ltpFR	4	3	0	CLOSET	326	5	1	n/a	n/a	n/a	n/a	n/a
2919608	RECOG_TARGET	n/a	LTP256	ltpFR	4	3	1	AUTHOR	61	4	1	n/a	n/a	n/a	n/a	n/a
2920237	RECOG_RESP	n/a	LTP256	ltpFR	4	3	1	AUTHOR	61	n/a	1	n/a	n/a	n/a	n/a	n/a
2921774	RECOG_CONF	n/a	LTP256	ltpFR	4	3	1	AUTHOR	61	4	1	n/a	n/a	n/a	n/a	n/a
2923753	RECOG_TARGET	n/a	LTP256	ltpFR	4	3	0	SCROLL	1257	5	0	n/a	n/a	n/a	n/a	n/a
2924423	RECOG_RESP	n/a	LTP256	ltpFR	4	3	0	SCROLL	1257	n/a	0	n/a	n/a	n/a	n/a	n/a
2925735	RECOG_CONF	n/a	LTP256	ltpFR	4	3	0	SCROLL	1257	5	0	n/a	n/a	n/a	n/a	n/a
2927712	RECOG_LURE	n/a	LTP256	ltpFR	4	3	n/a	PREDATOR	1120	5	n/a	n/a	n/a	n/a	n/a	n/a
2928489	RECOG_RESP	n/a	LTP256	ltpFR	4	3	n/a	PREDATOR	1120	n/a	n/a	n/a	n/a	n/a	n/a	n/a
2929696	RECOG_CONF	n/a	LTP256	ltpFR	4	3	n/a	PREDATOR	1120	5	n/a	n/a	n/a	n/a	n/a	n/a
2931491	RECOG_TARGET	n/a	LTP256	ltpFR	4	3	1	BUTTERFLY	206	5	1	n/a	n/a	n/a	n/a	n/a
2932120	RECOG_RESP	n/a	LTP256	ltpFR	4	3	1	BUTTERFLY	206	n/a	1	n/a	n/a	n/a	n/a	n/a
2933388	RECOG_CONF	n/a	LTP256	ltpFR	4	3	1	BUTTERFLY	206	5	1	n/a	n/a	n/a	n/a	n/a
2935435	RECOG_LURE	n/a	LTP256	ltpFR	4	3	n/a	SKIRT	1319	3	n/a	n/a	n/a	n/a	n/a	n/a
2936276	RECOG_RESP	n/a	LTP256	ltpFR	4	3	n/a	SKIRT	1319	n/a	n/a	n/a	n/a	n/a	n/a	n/a
2937558	RECOG_CONF	n/a	LTP256	ltpFR	4	3	n/a	SKIRT	1319	3	n/a	n/a	n/a	n/a	n/a	n/a
2939413	RECOG_TARGET	n/a	LTP256	ltpFR	4	3	1	CASH	252	2	0	n/a	n/a	n/a	n/a	n/a
2940791	RECOG_RESP	n/a	LTP256	ltpFR	4	3	1	CASH	252	n/a	0	n/a	n/a	n/a	n/a	n/a
2942138	RECOG_CONF	n/a	LTP256	ltpFR	4	3	1	CASH	252	2	0	n/a	n/a	n/a	n/a	n/a
2944089	RECOG_TARGET	n/a	LTP256	ltpFR	4	3	-1	SHORE	1291	2	-1	n/a	n/a	n/a	n/a	n/a
2944802	RECOG_RESP	n/a	LTP256	ltpFR	4	3	-1	SHORE	1291	n/a	-1	n/a	n/a	n/a	n/a	n/a
2946228	RECOG_CONF	n/a	LTP256	ltpFR	4	3	-1	SHORE	1291	2	-1	n/a	n/a	n/a	n/a	n/a
2948166	RECOG_TARGET	n/a	LTP256	ltpFR	4	3	1	STRAW	1390	4	0	n/a	n/a	n/a	n/a	n/a
2948982	RECOG_RESP	n/a	LTP256	ltpFR	4	3	1	STRAW	1390	n/a	0	n/a	n/a	n/a	n/a	n/a
2950269	RECOG_CONF	n/a	LTP256	ltpFR	4	3	1	STRAW	1390	4	0	n/a	n/a	n/a	n/a	n/a
2952110	RECOG_LURE	n/a	LTP256	ltpFR	4	3	n/a	PUPPY	1144	5	n/a	n/a	n/a	n/a	n/a	n/a
2952858	RECOG_RESP	n/a	LTP256	ltpFR	4	3	n/a	PUPPY	1144	n/a	n/a	n/a	n/a	n/a	n/a	n/a
2954210	RECOG_CONF	n/a	LTP256	ltpFR	4	3	n/a	PUPPY	1144	5	n/a	n/a	n/a	n/a	n/a	n/a
2956021	RECOG_TARGET	n/a	LTP256	ltpFR	4	3	-1	DISH	474	5	-1	n/a	n/a	n/a	n/a	n/a
2956660	RECOG_RESP	n/a	LTP256	ltpFR	4	3	-1	DISH	474	n/a	-1	n/a	n/a	n/a	n/a	n/a
2957972	RECOG_CONF	n/a	LTP256	ltpFR	4	3	-1	DISH	474	5	-1	n/a	n/a	n/a	n/a	n/a
2959849	RECOG_TARGET	n/a	LTP256	ltpFR	4	3	-1	STRING	1394	5	-1	n/a	n/a	n/a	n/a	n/a
2960516	RECOG_RESP	n/a	LTP256	ltpFR	4	3	-1	STRING	1394	n/a	-1	n/a	n/a	n/a	n/a	n/a
2961713	RECOG_CONF	n/a	LTP256	ltpFR	4	3	-1	STRING	1394	5	-1	n/a	n/a	n/a	n/a	n/a
2963559	RECOG_TARGET	n/a	LTP256	ltpFR	4	3	1	RADIO	1157	4	0	n/a	n/a	n/a	n/a	n/a
2964337	RECOG_RESP	n/a	LTP256	ltpFR	4	3	1	RADIO	1157	n/a	0	n/a	n/a	n/a	n/a	n/a
2965714	RECOG_CONF	n/a	LTP256	ltpFR	4	3	1	RADIO	1157	4	0	n/a	n/a	n/a	n/a	n/a
2967569	RECOG_TARGET	n/a	LTP256	ltpFR	4	3	0	PAWN	1030	5	0	n/a	n/a	n/a	n/a	n/a
2968263	RECOG_RESP	n/a	LTP256	ltpFR	4	3	0	PAWN	1030	n/a	0	n/a	n/a	n/a	n/a	n/a
2969625	RECOG_CONF	n/a	LTP256	ltpFR	4	3	0	PAWN	1030	5	0	n/a	n/a	n/a	n/a	n/a
2972834	REC_START	n/a	LTP256	ltpFR	4	4	n/a	n/a	n/a	n/a	n/a	n/a	n/a	n/a	n/a	n/a
2972863	RECOG_TARGET	n/a	LTP256	ltpFR	4	4	0	EARRING	514	5	0	n/a	n/a	n/a	n/a	n/a
2973567	RECOG_RESP	n/a	LTP256	ltpFR	4	4	0	EARRING	514	n/a	0	n/a	n/a	n/a	n/a	n/a
2974994	RECOG_CONF	n/a	LTP256	ltpFR	4	4	0	EARRING	514	5	0	n/a	n/a	n/a	n/a	n/a
2976773	RECOG_TARGET	n/a	LTP256	ltpFR	4	4	-1	NOMAD	955	5	-1	n/a	n/a	n/a	n/a	n/a
2977373	RECOG_RESP	n/a	LTP256	ltpFR	4	4	-1	NOMAD	955	n/a	-1	n/a	n/a	n/a	n/a	n/a
2978775	RECOG_CONF	n/a	LTP256	ltpFR	4	4	-1	NOMAD	955	5	-1	n/a	n/a	n/a	n/a	n/a
2980667	RECOG_TARGET	n/a	LTP256	ltpFR	4	4	1	SKI	1316	3	0	n/a	n/a	n/a	n/a	n/a
2981993	RECOG_RESP	n/a	LTP256	ltpFR	4	4	1	SKI	1316	n/a	0	n/a	n/a	n/a	n/a	n/a
2983265	RECOG_CONF	n/a	LTP256	ltpFR	4	4	1	SKI	1316	3	0	n/a	n/a	n/a	n/a	n/a
2985161	RECOG_TARGET	n/a	LTP256	ltpFR	4	4	1	LOCK	838	4	0	n/a	n/a	n/a	n/a	n/a
2985989	RECOG_RESP	n/a	LTP256	ltpFR	4	4	1	LOCK	838	n/a	0	n/a	n/a	n/a	n/a	n/a
2987515	RECOG_CONF	n/a	LTP256	ltpFR	4	4	1	LOCK	838	4	0	n/a	n/a	n/a	n/a	n/a
2989371	RECOG_TARGET	n/a	LTP256	ltpFR	4	4	0	PAINT	1003	2	1	n/a	n/a	n/a	n/a	n/a
2990040	RECOG_RESP	n/a	LTP256	ltpFR	4	4	0	PAINT	1003	n/a	1	n/a	n/a	n/a	n/a	n/a
2991397	RECOG_CONF	n/a	LTP256	ltpFR	4	4	0	PAINT	1003	2	1	n/a	n/a	n/a	n/a	n/a
2993232	RECOG_TARGET	n/a	LTP256	ltpFR	4	4	1	MONSTER	912	5	1	n/a	n/a	n/a	n/a	n/a
2995173	RECOG_RESP	n/a	LTP256	ltpFR	4	4	1	MONSTER	912	n/a	1	n/a	n/a	n/a	n/a	n/a
2996555	RECOG_CONF	n/a	LTP256	ltpFR	4	4	1	MONSTER	912	5	1	n/a	n/a	n/a	n/a	n/a
2998441	RECOG_LURE	n/a	LTP256	ltpFR	4	4	n/a	SOAP	1337	2	n/a	n/a	n/a	n/a	n/a	n/a
2999334	RECOG_RESP	n/a	LTP256	ltpFR	4	4	n/a	SOAP	1337	n/a	n/a	n/a	n/a	n/a	n/a	n/a
3000566	RECOG_CONF	n/a	LTP256	ltpFR	4	4	n/a	SOAP	1337	2	n/a	n/a	n/a	n/a	n/a	n/a
3002517	RECOG_LURE	n/a	LTP256	ltpFR	4	4	n/a	ELECTRON	522	5	n/a	n/a	n/a	n/a	n/a	n/a
3003419	RECOG_RESP	n/a	LTP256	ltpFR	4	4	n/a	ELECTRON	522	n/a	n/a	n/a	n/a	n/a	n/a	n/a
3004736	RECOG_CONF	n/a	LTP256	ltpFR	4	4	n/a	ELECTRON	522	5	n/a	n/a	n/a	n/a	n/a	n/a
3006644	RECOG_TARGET	n/a	LTP256	ltpFR	4	4	0	MICROWAVE	892	2	1	n/a	n/a	n/a	n/a	n/a
3007759	RECOG_RESP	n/a	LTP256	ltpFR	4	4	0	MICROWAVE	892	n/a	1	n/a	n/a	n/a	n/a	n/a
3009186	RECOG_CONF	n/a	LTP256	ltpFR	4	4	0	MICROWAVE	892	2	1	n/a	n/a	n/a	n/a	n/a
3011305	RECOG_TARGET	n/a	LTP256	ltpFR	4	4	1	DIAMOND	458	5	0	n/a	n/a	n/a	n/a	n/a
3011940	RECOG_RESP	n/a	LTP256	ltpFR	4	4	1	DIAMOND	458	n/a	0	n/a	n/a	n/a	n/a	n/a
3013227	RECOG_CONF	n/a	LTP256	ltpFR	4	4	1	DIAMOND	458	5	0	n/a	n/a	n/a	n/a	n/a
3015050	RECOG_TARGET	n/a	LTP256	ltpFR	4	4	0	TAIL	1430	5	0	n/a	n/a	n/a	n/a	n/a
3015886	RECOG_RESP	n/a	LTP256	ltpFR	4	4	0	TAIL	1430	n/a	0	n/a	n/a	n/a	n/a	n/a
3017218	RECOG_CONF	n/a	LTP256	ltpFR	4	4	0	TAIL	1430	5	0	n/a	n/a	n/a	n/a	n/a
3019260	RECOG_TARGET	n/a	LTP256	ltpFR	4	4	1	KETCHUP	771	5	0	n/a	n/a	n/a	n/a	n/a
3020017	RECOG_RESP	n/a	LTP256	ltpFR	4	4	1	KETCHUP	771	n/a	0	n/a	n/a	n/a	n/a	n/a
3021349	RECOG_CONF	n/a	LTP256	ltpFR	4	4	1	KETCHUP	771	5	0	n/a	n/a	n/a	n/a	n/a
3023237	RECOG_TARGET	n/a	LTP256	ltpFR	4	4	0	FRUIT	610	1	0	n/a	n/a	n/a	n/a	n/a
3024875	RECOG_RESP	n/a	LTP256	ltpFR	4	4	0	FRUIT	610	n/a	0	n/a	n/a	n/a	n/a	n/a
3026397	RECOG_CONF	n/a	LTP256	ltpFR	4	4	0	FRUIT	610	1	0	n/a	n/a	n/a	n/a	n/a
3028346	RECOG_LURE	n/a	LTP256	ltpFR	4	4	n/a	SOFA	1342	2	n/a	n/a	n/a	n/a	n/a	n/a
3029360	RECOG_RESP	n/a	LTP256	ltpFR	4	4	n/a	SOFA	1342	n/a	n/a	n/a	n/a	n/a	n/a	n/a
3031106	RECOG_CONF	n/a	LTP256	ltpFR	4	4	n/a	SOFA	1342	2	n/a	n/a	n/a	n/a	n/a	n/a
3032939	RECOG_TARGET	n/a	LTP256	ltpFR	4	4	0	TWIG	1527	5	0	n/a	n/a	n/a	n/a	n/a
3033626	RECOG_RESP	n/a	LTP256	ltpFR	4	4	0	TWIG	1527	n/a	0	n/a	n/a	n/a	n/a	n/a
3034938	RECOG_CONF	n/a	LTP256	ltpFR	4	4	0	TWIG	1527	5	0	n/a	n/a	n/a	n/a	n/a
3036800	RECOG_TARGET	n/a	LTP256	ltpFR	4	4	-1	OPERA	978	5	-1	n/a	n/a	n/a	n/a	n/a
3037357	RECOG_RESP	n/a	LTP256	ltpFR	4	4	-1	OPERA	978	n/a	-1	n/a	n/a	n/a	n/a	n/a
3038779	RECOG_CONF	n/a	LTP256	ltpFR	4	4	-1	OPERA	978	5	-1	n/a	n/a	n/a	n/a	n/a
3040694	RECOG_TARGET	n/a	LTP256	ltpFR	4	4	0	PORTRAIT	1111	5	1	n/a	n/a	n/a	n/a	n/a
3041453	RECOG_RESP	n/a	LTP256	ltpFR	4	4	0	PORTRAIT	1111	n/a	1	n/a	n/a	n/a	n/a	n/a
3042780	RECOG_CONF	n/a	LTP256	ltpFR	4	4	0	PORTRAIT	1111	5	1	n/a	n/a	n/a	n/a	n/a
3044688	RECOG_TARGET	n/a	LTP256	ltpFR	4	4	1	CREATURE	403	4	1	n/a	n/a	n/a	n/a	n/a
3045294	RECOG_RESP	n/a	LTP256	ltpFR	4	4	1	CREATURE	403	n/a	1	n/a	n/a	n/a	n/a	n/a
3046641	RECOG_CONF	n/a	LTP256	ltpFR	4	4	1	CREATURE	403	4	1	n/a	n/a	n/a	n/a	n/a
3048548	RECOG_TARGET	n/a	LTP256	ltpFR	4	4	0	PRINTER	1126	4	1	n/a	n/a	n/a	n/a	n/a
3049654	RECOG_RESP	n/a	LTP256	ltpFR	4	4	0	PRINTER	1126	n/a	1	n/a	n/a	n/a	n/a	n/a
3051061	RECOG_CONF	n/a	LTP256	ltpFR	4	4	0	PRINTER	1126	4	1	n/a	n/a	n/a	n/a	n/a
3052976	RECOG_TARGET	n/a	LTP256	ltpFR	4	4	1	BLOSSOM	138	3	1	n/a	n/a	n/a	n/a	n/a
3053765	RECOG_RESP	n/a	LTP256	ltpFR	4	4	1	BLOSSOM	138	n/a	1	n/a	n/a	n/a	n/a	n/a
3055102	RECOG_CONF	n/a	LTP256	ltpFR	4	4	1	BLOSSOM	138	3	1	n/a	n/a	n/a	n/a	n/a
3058380	REC_START	n/a	LTP256	ltpFR	4	5	n/a	n/a	n/a	n/a	n/a	n/a	n/a	n/a	n/a	n/a
3058418	RECOG_TARGET	n/a	LTP256	ltpFR	4	5	-1	RAFT	1159	5	-1	n/a	n/a	n/a	n/a	n/a
3059313	RECOG_RESP	n/a	LTP256	ltpFR	4	5	-1	RAFT	1159	n/a	-1	n/a	n/a	n/a	n/a	n/a
3060590	RECOG_CONF	n/a	LTP256	ltpFR	4	5	-1	RAFT	1159	5	-1	n/a	n/a	n/a	n/a	n/a
3062661	RECOG_TARGET	n/a	LTP256	ltpFR	4	5	1	BEAR	106	5	1	n/a	n/a	n/a	n/a	n/a
3063204	RECOG_RESP	n/a	LTP256	ltpFR	4	5	1	BEAR	106	n/a	1	n/a	n/a	n/a	n/a	n/a
3064371	RECOG_CONF	n/a	LTP256	ltpFR	4	5	1	BEAR	106	5	1	n/a	n/a	n/a	n/a	n/a
3066273	RECOG_TARGET	n/a	LTP256	ltpFR	4	5	0	BONE	148	5	0	n/a	n/a	n/a	n/a	n/a
3066841	RECOG_RESP	n/a	LTP256	ltpFR	4	5	0	BONE	148	n/a	0	n/a	n/a	n/a	n/a	n/a
3067953	RECOG_CONF	n/a	LTP256	ltpFR	4	5	0	BONE	148	5	0	n/a	n/a	n/a	n/a	n/a
3069984	RECOG_LURE	n/a	LTP256	ltpFR	4	5	n/a	HATCHET	691	4	n/a	n/a	n/a	n/a	n/a	n/a
3070687	RECOG_RESP	n/a	LTP256	ltpFR	4	5	n/a	HATCHET	691	n/a	n/a	n/a	n/a	n/a	n/a	n/a
3071874	RECOG_CONF	n/a	LTP256	ltpFR	4	5	n/a	HATCHET	691	4	n/a	n/a	n/a	n/a	n/a	n/a
3073729	RECOG_TARGET	n/a	LTP256	ltpFR	4	5	-1	PAIL	1002	4	-1	n/a	n/a	n/a	n/a	n/a
3074688	RECOG_RESP	n/a	LTP256	ltpFR	4	5	-1	PAIL	1002	n/a	-1	n/a	n/a	n/a	n/a	n/a
3076115	RECOG_CONF	n/a	LTP256	ltpFR	4	5	-1	PAIL	1002	4	-1	n/a	n/a	n/a	n/a	n/a
3078039	RECOG_TARGET	n/a	LTP256	ltpFR	4	5	1	PIGEON	1065	5	1	n/a	n/a	n/a	n/a	n/a
3078664	RECOG_RESP	n/a	LTP256	ltpFR	4	5	1	PIGEON	1065	n/a	1	n/a	n/a	n/a	n/a	n/a
3079876	RECOG_CONF	n/a	LTP256	ltpFR	4	5	1	PIGEON	1065	5	1	n/a	n/a	n/a	n/a	n/a
3081583	RECOG_TARGET	n/a	LTP256	ltpFR	4	5	-1	CLERK	321	3	-1	n/a	n/a	n/a	n/a	n/a
3082186	RECOG_RESP	n/a	LTP256	ltpFR	4	5	-1	CLERK	321	n/a	-1	n/a	n/a	n/a	n/a	n/a
3083518	RECOG_CONF	n/a	LTP256	ltpFR	4	5	-1	CLERK	321	3	-1	n/a	n/a	n/a	n/a	n/a
3085378	RECOG_LURE	n/a	LTP256	ltpFR	4	5	n/a	COAT	333	2	n/a	n/a	n/a	n/a	n/a	n/a
3086376	RECOG_RESP	n/a	LTP256	ltpFR	4	5	n/a	COAT	333	n/a	n/a	n/a	n/a	n/a	n/a	n/a
3087559	RECOG_CONF	n/a	LTP256	ltpFR	4	5	n/a	COAT	333	2	n/a	n/a	n/a	n/a	n/a	n/a
3089389	RECOG_TARGET	n/a	LTP256	ltpFR	4	5	1	MOON	914	4	0	n/a	n/a	n/a	n/a	n/a
3090083	RECOG_RESP	n/a	LTP256	ltpFR	4	5	1	MOON	914	n/a	0	n/a	n/a	n/a	n/a	n/a
3091370	RECOG_CONF	n/a	LTP256	ltpFR	4	5	1	MOON	914	4	0	n/a	n/a	n/a	n/a	n/a
3093216	RECOG_TARGET	n/a	LTP256	ltpFR	4	5	0	MANSION	864	5	1	n/a	n/a	n/a	n/a	n/a
3093804	RECOG_RESP	n/a	LTP256	ltpFR	4	5	0	MANSION	864	n/a	1	n/a	n/a	n/a	n/a	n/a
3095051	RECOG_CONF	n/a	LTP256	ltpFR	4	5	0	MANSION	864	5	1	n/a	n/a	n/a	n/a	n/a
3096994	RECOG_TARGET	n/a	LTP256	ltpFR	4	5	0	JACKET	747	1	1	n/a	n/a	n/a	n/a	n/a
3098987	RECOG_RESP	n/a	LTP256	ltpFR	4	5	0	JACKET	747	n/a	1	n/a	n/a	n/a	n/a	n/a
3100220	RECOG_CONF	n/a	LTP256	ltpFR	4	5	0	JACKET	747	1	1	n/a	n/a	n/a	n/a	n/a
3101986	RECOG_TARGET	n/a	LTP256	ltpFR	4	5	-1	CHEDDAR	286	4	-1	n/a	n/a	n/a	n/a	n/a
3102614	RECOG_RESP	n/a	LTP256	ltpFR	4	5	-1	CHEDDAR	286	n/a	-1	n/a	n/a	n/a	n/a	n/a
3104061	RECOG_CONF	n/a	LTP256	ltpFR	4	5	-1	CHEDDAR	286	4	-1	n/a	n/a	n/a	n/a	n/a
3105864	RECOG_TARGET	n/a	LTP256	ltpFR	4	5	-1	HELMET	702	4	-1	n/a	n/a	n/a	n/a	n/a
3106989	RECOG_RESP	n/a	LTP256	ltpFR	4	5	-1	HELMET	702	n/a	-1	n/a	n/a	n/a	n/a	n/a
3108491	RECOG_CONF	n/a	LTP256	ltpFR	4	5	-1	HELMET	702	4	-1	n/a	n/a	n/a	n/a	n/a
3110440	RECOG_TARGET	n/a	LTP256	ltpFR	4	5	0	TYPEWRITER	1531	4	1	n/a	n/a	n/a	n/a	n/a
3111155	RECOG_RESP	n/a	LTP256	ltpFR	4	5	0	TYPEWRITER	1531	n/a	1	n/a	n/a	n/a	n/a	n/a
3112612	RECOG_CONF	n/a	LTP256	ltpFR	4	5	0	TYPEWRITER	1531	4	1	n/a	n/a	n/a	n/a	n/a
3114385	RECOG_TARGET	n/a	LTP256	ltpFR	4	5	-1	BIKE	125	5	-1	n/a	n/a	n/a	n/a	n/a
3115370	RECOG_RESP	n/a	LTP256	ltpFR	4	5	-1	BIKE	125	n/a	-1	n/a	n/a	n/a	n/a	n/a
3116563	RECOG_CONF	n/a	LTP256	ltpFR	4	5	-1	BIKE	125	5	-1	n/a	n/a	n/a	n/a	n/a
3118478	RECOG_LURE	n/a	LTP256	ltpFR	4	5	n/a	GENERAL	630	2	n/a	n/a	n/a	n/a	n/a	n/a
3119531	RECOG_RESP	n/a	LTP256	ltpFR	4	5	n/a	GENERAL	630	n/a	n/a	n/a	n/a	n/a	n/a	n/a
3120743	RECOG_CONF	n/a	LTP256	ltpFR	4	5	n/a	GENERAL	630	2	n/a	n/a	n/a	n/a	n/a	n/a
3122755	RECOG_TARGET	n/a	LTP256	ltpFR	4	5	0	BED	110	5	1	n/a	n/a	n/a	n/a	n/a
3123327	RECOG_RESP	n/a	LTP256	ltpFR	4	5	0	BED	110	n/a	1	n/a	n/a	n/a	n/a	n/a
3124465	RECOG_CONF	n/a	LTP256	ltpFR	4	5	0	BED	110	5	1	n/a	n/a	n/a	n/a	n/a
3126200	RECOG_LURE	n/a	LTP256	ltpFR	4	5	n/a	VASE	1549	5	n/a	n/a	n/a	n/a	n/a	n/a
3126894	RECOG_RESP	n/a	LTP256	ltpFR	4	5	n/a	VASE	1549	n/a	n/a	n/a	n/a	n/a	n/a	n/a
3128116	RECOG_CONF	n/a	LTP256	ltpFR	4	5	n/a	VASE	1549	5	n/a	n/a	n/a	n/a	n/a	n/a
3130028	RECOG_LURE	n/a	LTP256	ltpFR	4	5	n/a	CHISEL	305	4	n/a	n/a	n/a	n/a	n/a	n/a
3130945	RECOG_RESP_VV	n/a	LTP256	ltpFR	4	5	n/a	CHISEL	305	n/a	n/a	n/a	n/a	n/a	n/a	n/a
3132412	RECOG_RESP	n/a	LTP256	ltpFR	4	5	n/a	CHISEL	305	n/a	n/a	n/a	n/a	n/a	n/a	n/a
3133724	RECOG_CONF	n/a	LTP256	ltpFR	4	5	n/a	CHISEL	305	4	n/a	n/a	n/a	n/a	n/a	n/a
3135769	RECOG_TARGET	n/a	LTP256	ltpFR	4	5	-1	HAY	693	5	-1	n/a	n/a	n/a	n/a	n/a
3136457	RECOG_RESP	n/a	LTP256	ltpFR	4	5	-1	HAY	693	n/a	-1	n/a	n/a	n/a	n/a	n/a
3137655	RECOG_CONF	n/a	LTP256	ltpFR	4	5	-1	HAY	693	5	-1	n/a	n/a	n/a	n/a	n/a
3140956	REC_START	n/a	LTP256	ltpFR	4	6	n/a	n/a	n/a	n/a	n/a	n/a	n/a	n/a	n/a	n/a
3140995	RECOG_TARGET	n/a	LTP256	ltpFR	4	6	-1	WRIST	1626	1	-1	n/a	n/a	n/a	n/a	n/a
3143126	RECOG_RESP	n/a	LTP256	ltpFR	4	6	-1	WRIST	1626	n/a	-1	n/a	n/a	n/a	n/a	n/a
3144473	RECOG_CONF	n/a	LTP256	ltpFR	4	6	-1	WRIST	1626	1	-1	n/a	n/a	n/a	n/a	n/a
3146254	RECOG_TARGET	n/a	LTP256	ltpFR	4	6	0	DOVE	491	5	0	n/a	n/a	n/a	n/a	n/a
3146812	RECOG_RESP	n/a	LTP256	ltpFR	4	6	0	DOVE	491	n/a	0	n/a	n/a	n/a	n/a	n/a
3148005	RECOG_CONF	n/a	LTP256	ltpFR	4	6	0	DOVE	491	5	0	n/a	n/a	n/a	n/a	n/a
3149765	RECOG_TARGET	n/a	LTP256	ltpFR	4	6	1	LEOPARD	812	2	1	n/a	n/a	n/a	n/a	n/a
3151552	RECOG_RESP	n/a	LTP256	ltpFR	4	6	1	LEOPARD	812	n/a	1	n/a	n/a	n/a	n/a	n/a
3152874	RECOG_CONF	n/a	LTP256	ltpFR	4	6	1	LEOPARD	812	2	1	n/a	n/a	n/a	n/a	n/a
3154590	RECOG_TARGET	n/a	LTP256	ltpFR	4	6	1	TELEVISION	1447	1	0	n/a	n/a	n/a	n/a	n/a
3155193	RECOG_RESP	n/a	LTP256	ltpFR	4	6	1	TELEVISION	1447	n/a	0	n/a	n/a	n/a	n/a	n/a
3156426	RECOG_CONF	n/a	LTP256	ltpFR	4	6	1	TELEVISION	1447	1	0	n/a	n/a	n/a	n/a	n/a
3158302	RECOG_TARGET	n/a	LTP256	ltpFR	4	6	1	SERGEANT	1269	5	1	n/a	n/a	n/a	n/a	n/a
3159788	RECOG_RESP_VV	n/a	LTP256	ltpFR	4	6	1	SERGEANT	1269	n/a	1	n/a	n/a	n/a	n/a	n/a
3161075	RECOG_RESP	n/a	LTP256	ltpFR	4	6	1	SERGEANT	1269	n/a	1	n/a	n/a	n/a	n/a	n/a
3162332	RECOG_CONF	n/a	LTP256	ltpFR	4	6	1	SERGEANT	1269	5	1	n/a	n/a	n/a	n/a	n/a
3164327	RECOG_LURE	n/a	LTP256	ltpFR	4	6	n/a	ANTELOPE	27	2	n/a	n/a	n/a	n/a	n/a	n/a
3165749	RECOG_RESP	n/a	LTP256	ltpFR	4	6	n/a	ANTELOPE	27	n/a	n/a	n/a	n/a	n/a	n/a	n/a
3167042	RECOG_CONF	n/a	LTP256	ltpFR	4	6	n/a	ANTELOPE	27	2	n/a	n/a	n/a	n/a	n/a	n/a
3168970	RECOG_TARGET	n/a	LTP256	ltpFR	4	6	0	FRIES	607	5	0	n/a	n/a	n/a	n/a	n/a
3169930	RECOG_RESP	n/a	LTP256	ltpFR	4	6	0	FRIES	607	n/a	0	n/a	n/a	n/a	n/a	n/a
3171192	RECOG_CONF	n/a	LTP256	ltpFR	4	6	0	FRIES	607	5	0	n/a	n/a	n/a	n/a	n/a
3173047	RECOG_TARGET	n/a	LTP256	ltpFR	4	6	1	DICE	461	5	0	n/a	n/a	n/a	n/a	n/a
3173641	RECOG_RESP	n/a	LTP256	ltpFR	4	6	1	DICE	461	n/a	0	n/a	n/a	n/a	n/a	n/a
3174964	RECOG_CONF	n/a	LTP256	ltpFR	4	6	1	DICE	461	5	0	n/a	n/a	n/a	n/a	n/a
3176758	RECOG_TARGET	n/a	LTP256	ltpFR	4	6	-1	OFFICE	972	4	-1	n/a	n/a	n/a	n/a	n/a
3177358	RECOG_RESP	n/a	LTP256	ltpFR	4	6	-1	OFFICE	972	n/a	-1	n/a	n/a	n/a	n/a	n/a
3178575	RECOG_CONF	n/a	LTP256	ltpFR	4	6	-1	OFFICE	972	4	-1	n/a	n/a	n/a	n/a	n/a
3180419	RECOG_TARGET	n/a	LTP256	ltpFR	4	6	1	SPRINKLE	1359	5	0	n/a	n/a	n/a	n/a	n/a
3181040	RECOG_RESP	n/a	LTP256	ltpFR	4	6	1	SPRINKLE	1359	n/a	0	n/a	n/a	n/a	n/a	n/a
3182327	RECOG_CONF	n/a	LTP256	ltpFR	4	6	1	SPRINKLE	1359	5	0	n/a	n/a	n/a	n/a	n/a
3184147	RECOG_TARGET	n/a	LTP256	ltpFR	4	6	1	WRENCH	1625	4	0	n/a	n/a	n/a	n/a	n/a
3184671	RECOG_RESP	n/a	LTP256	ltpFR	4	6	1	WRENCH	1625	n/a	0	n/a	n/a	n/a	n/a	n/a
3186028	RECOG_CONF	n/a	LTP256	ltpFR	4	6	1	WRENCH	1625	4	0	n/a	n/a	n/a	n/a	n/a
3187941	RECOG_TARGET	n/a	LTP256	ltpFR	4	6	0	WORM	1623	4	0	n/a	n/a	n/a	n/a	n/a
3188882	RECOG_RESP	n/a	LTP256	ltpFR	4	6	0	WORM	1623	n/a	0	n/a	n/a	n/a	n/a	n/a
3190279	RECOG_CONF	n/a	LTP256	ltpFR	4	6	0	WORM	1623	4	0	n/a	n/a	n/a	n/a	n/a
3192168	RECOG_TARGET	n/a	LTP256	ltpFR	4	6	-1	LAWN	805	5	-1	n/a	n/a	n/a	n/a	n/a
3192698	RECOG_RESP	n/a	LTP256	ltpFR	4	6	-1	LAWN	805	n/a	-1	n/a	n/a	n/a	n/a	n/a
3194050	RECOG_CONF	n/a	LTP256	ltpFR	4	6	-1	LAWN	805	5	-1	n/a	n/a	n/a	n/a	n/a
3195796	RECOG_TARGET	n/a	LTP256	ltpFR	4	6	1	RUNNER	1218	5	1	n/a	n/a	n/a	n/a	n/a
3196410	RECOG_RESP	n/a	LTP256	ltpFR	4	6	1	RUNNER	1218	n/a	1	n/a	n/a	n/a	n/a	n/a
3197622	RECOG_CONF	n/a	LTP256	ltpFR	4	6	1	RUNNER	1218	5	1	n/a	n/a	n/a	n/a	n/a
3199540	RECOG_LURE	n/a	LTP256	ltpFR	4	6	n/a	VISITOR	1573	2	n/a	n/a	n/a	n/a	n/a	n/a
3200595	RECOG_RESP	n/a	LTP256	ltpFR	4	6	n/a	VISITOR	1573	n/a	n/a	n/a	n/a	n/a	n/a	n/a
3201852	RECOG_CONF	n/a	LTP256	ltpFR	4	6	n/a	VISITOR	1573	2	n/a	n/a	n/a	n/a	n/a	n/a
3203667	RECOG_TARGET	n/a	LTP256	ltpFR	4	6	1	BARK	87	4	0	n/a	n/a	n/a	n/a	n/a
3204287	RECOG_RESP	n/a	LTP256	ltpFR	4	6	1	BARK	87	n/a	0	n/a	n/a	n/a	n/a	n/a
3205554	RECOG_CONF	n/a	LTP256	ltpFR	4	6	1	BARK	87	4	0	n/a	n/a	n/a	n/a	n/a
3207561	RECOG_TARGET	n/a	LTP256	ltpFR	4	6	0	BEEF	113	4	1	n/a	n/a	n/a	n/a	n/a
3208168	RECOG_RESP	n/a	LTP256	ltpFR	4	6	0	BEEF	113	n/a	1	n/a	n/a	n/a	n/a	n/a
3209535	RECOG_CONF	n/a	LTP256	ltpFR	4	6	0	BEEF	113	4	1	n/a	n/a	n/a	n/a	n/a
3211505	RECOG_LURE	n/a	LTP256	ltpFR	4	6	n/a	CORAL	378	5	n/a	n/a	n/a	n/a	n/a	n/a
3212458	RECOG_RESP	n/a	LTP256	ltpFR	4	6	n/a	CORAL	378	n/a	n/a	n/a	n/a	n/a	n/a	n/a
3213815	RECOG_CONF	n/a	LTP256	ltpFR	4	6	n/a	CORAL	378	5	n/a	n/a	n/a	n/a	n/a	n/a
3215699	RECOG_LURE	n/a	LTP256	ltpFR	4	6	n/a	RAIL	1161	2	n/a	n/a	n/a	n/a	n/a	n/a
3217068	RECOG_RESP	n/a	LTP256	ltpFR	4	6	n/a	RAIL	1161	n/a	n/a	n/a	n/a	n/a	n/a	n/a
3218385	RECOG_CONF	n/a	LTP256	ltpFR	4	6	n/a	RAIL	1161	2	n/a	n/a	n/a	n/a	n/a	n/a
3220226	RECOG_TARGET	n/a	LTP256	ltpFR	4	6	1	SPARROW	1347	1	1	n/a	n/a	n/a	n/a	n/a
3221323	RECOG_RESP	n/a	LTP256	ltpFR	4	6	1	SPARROW	1347	n/a	1	n/a	n/a	n/a	n/a	n/a
3222615	RECOG_CONF	n/a	LTP256	ltpFR	4	6	1	SPARROW	1347	1	1	n/a	n/a	n/a	n/a	n/a
3225847	REC_START	n/a	LTP256	ltpFR	4	7	n/a	n/a	n/a	n/a	n/a	n/a	n/a	n/a	n/a	n/a
3225885	RECOG_TARGET	n/a	LTP256	ltpFR	4	7	-1	VINEGAR	1569	5	-1	n/a	n/a	n/a	n/a	n/a
3226540	RECOG_RESP	n/a	LTP256	ltpFR	4	7	-1	VINEGAR	1569	n/a	-1	n/a	n/a	n/a	n/a	n/a
3227827	RECOG_CONF	n/a	LTP256	ltpFR	4	7	-1	VINEGAR	1569	5	-1	n/a	n/a	n/a	n/a	n/a
3229812	RECOG_TARGET	n/a	LTP256	ltpFR	4	7	1	VINE	1568	5	1	n/a	n/a	n/a	n/a	n/a
3230362	RECOG_RESP	n/a	LTP256	ltpFR	4	7	1	VINE	1568	n/a	1	n/a	n/a	n/a	n/a	n/a
3231469	RECOG_CONF	n/a	LTP256	ltpFR	4	7	1	VINE	1568	5	1	n/a	n/a	n/a	n/a	n/a
3233357	RECOG_TARGET	n/a	LTP256	ltpFR	4	7	1	FOLDER	588	4	0	n/a	n/a	n/a	n/a	n/a
3233928	RECOG_RESP	n/a	LTP256	ltpFR	4	7	1	FOLDER	588	n/a	0	n/a	n/a	n/a	n/a	n/a
3235021	RECOG_CONF	n/a	LTP256	ltpFR	4	7	1	FOLDER	588	4	0	n/a	n/a	n/a	n/a	n/a
3236868	RECOG_LURE	n/a	LTP256	ltpFR	4	7	n/a	BRUISE	180	3	n/a	n/a	n/a	n/a	n/a	n/a
3237655	RECOG_RESP	n/a	LTP256	ltpFR	4	7	n/a	BRUISE	180	n/a	n/a	n/a	n/a	n/a	n/a	n/a
3238762	RECOG_CONF	n/a	LTP256	ltpFR	4	7	n/a	BRUISE	180	3	n/a	n/a	n/a	n/a	n/a	n/a
3240512	RECOG_TARGET	n/a	LTP256	ltpFR	4	7	1	CARD	243	4	0	n/a	n/a	n/a	n/a	n/a
3241347	RECOG_RESP	n/a	LTP256	ltpFR	4	7	1	CARD	243	n/a	0	n/a	n/a	n/a	n/a	n/a
3242554	RECOG_CONF	n/a	LTP256	ltpFR	4	7	1	CARD	243	4	0	n/a	n/a	n/a	n/a	n/a
3244257	RECOG_LURE	n/a	LTP256	ltpFR	4	7	n/a	SHEPHERD	1283	5	n/a	n/a	n/a	n/a	n/a	n/a
3245043	RECOG_RESP	n/a	LTP256	ltpFR	4	7	n/a	SHEPHERD	1283	n/a	n/a	n/a	n/a	n/a	n/a	n/a
3246176	RECOG_CONF	n/a	LTP256	ltpFR	4	7	n/a	SHEPHERD	1283	5	n/a	n/a	n/a	n/a	n/a	n/a
3247935	RECOG_TARGET	n/a	LTP256	ltpFR	4	7	0	SHRINE	1298	2	1	n/a	n/a	n/a	n/a	n/a
3248750	RECOG_RESP	n/a	LTP256	ltpFR	4	7	0	SHRINE	1298	n/a	1	n/a	n/a	n/a	n/a	n/a
3249877	RECOG_CONF	n/a	LTP256	ltpFR	4	7	0	SHRINE	1298	2	1	n/a	n/a	n/a	n/a	n/a
3251712	RECOG_TARGET	n/a	LTP256	ltpFR	4	7	0	GOBLIN	645	3	1	n/a	n/a	n/a	n/a	n/a
3252371	RECOG_RESP	n/a	LTP256	ltpFR	4	7	0	GOBLIN	645	n/a	1	n/a	n/a	n/a	n/a	n/a
3253629	RECOG_CONF	n/a	LTP256	ltpFR	4	7	0	GOBLIN	645	3	1	n/a	n/a	n/a	n/a	n/a
3255457	RECOG_TARGET	n/a	LTP256	ltpFR	4	7	0	CUE	422	5	1	n/a	n/a	n/a	n/a	n/a
3256073	RECOG_RESP	n/a	LTP256	ltpFR	4	7	0	CUE	422	n/a	1	n/a	n/a	n/a	n/a	n/a
3257171	RECOG_CONF	n/a	LTP256	ltpFR	4	7	0	CUE	422	5	1	n/a	n/a	n/a	n/a	n/a
3259035	RECOG_TARGET	n/a	LTP256	ltpFR	4	7	1	BARTENDER	92	5	1	n/a	n/a	n/a	n/a	n/a
3259670	RECOG_RESP	n/a	LTP256	ltpFR	4	7	1	BARTENDER	92	n/a	1	n/a	n/a	n/a	n/a	n/a
3260892	RECOG_CONF	n/a	LTP256	ltpFR	4	7	1	BARTENDER	92	5	1	n/a	n/a	n/a	n/a	n/a
3262712	RECOG_LURE	n/a	LTP256	ltpFR	4	7	n/a	ANKLE	24	2	n/a	n/a	n/a	n/a	n/a	n/a
3264409	RECOG_RESP	n/a	LTP256	ltpFR	4	7	n/a	ANKLE	24	n/a	n/a	n/a	n/a	n/a	n/a	n/a
3265661	RECOG_CONF	n/a	LTP256	ltpFR	4	7	n/a	ANKLE	24	2	n/a	n/a	n/a	n/a	n/a	n/a
3267489	RECOG_LURE	n/a	LTP256	ltpFR	4	7	n/a	ARMY	39	4	n/a	n/a	n/a	n/a	n/a	n/a
3268215	RECOG_RESP	n/a	LTP256	ltpFR	4	7	n/a	ARMY	39	n/a	n/a	n/a	n/a	n/a	n/a	n/a
3269393	RECOG_CONF	n/a	LTP256	ltpFR	4	7	n/a	ARMY	39	4	n/a	n/a	n/a	n/a	n/a	n/a
3271217	RECOG_TARGET	n/a	LTP256	ltpFR	4	7	0	DINNER	468	3	1	n/a	n/a	n/a	n/a	n/a
3271807	RECOG_RESP	n/a	LTP256	ltpFR	4	7	0	DINNER	468	n/a	1	n/a	n/a	n/a	n/a	n/a
3273107	RECOG_CONF	n/a	LTP256	ltpFR	4	7	0	DINNER	468	3	1	n/a	n/a	n/a	n/a	n/a
3274795	RECOG_LURE	n/a	LTP256	ltpFR	4	7	n/a	EMPIRE	530	5	n/a	n/a	n/a	n/a	n/a	n/a
3275619	RECOG_RESP	n/a	LTP256	ltpFR	4	7	n/a	EMPIRE	530	n/a	n/a	n/a	n/a	n/a	n/a	n/a
3276796	RECOG_CONF	n/a	LTP256	ltpFR	4	7	n/a	EMPIRE	530	5	n/a	n/a	n/a	n/a	n/a	n/a
3278588	RECOG_TARGET	n/a	LTP256	ltpFR	4	7	-1	WAGON	1578	5	-1	n/a	n/a	n/a	n/a	n/a
3279565	RECOG_RESP	n/a	LTP256	ltpFR	4	7	-1	WAGON	1578	n/a	-1	n/a	n/a	n/a	n/a	n/a
3280787	RECOG_CONF	n/a	LTP256	ltpFR	4	7	-1	WAGON	1578	5	-1	n/a	n/a	n/a	n/a	n/a
3282599	RECOG_TARGET	n/a	LTP256	ltpFR	4	7	1	BUN	197	4	1	n/a	n/a	n/a	n/a	n/a
3283820	RECOG_RESP	n/a	LTP256	ltpFR	4	7	1	BUN	197	n/a	1	n/a	n/a	n/a	n/a	n/a
3285067	RECOG_CONF	n/a	LTP256	ltpFR	4	7	1	BUN	197	4	1	n/a	n/a	n/a	n/a	n/a
3286894	RECOG_TARGET	n/a	LTP256	ltpFR	4	7	1	BRUNETTE	181	5	1	n/a	n/a	n/a	n/a	n/a
3287502	RECOG_RESP	n/a	LTP256	ltpFR	4	7	1	BRUNETTE	181	n/a	1	n/a	n/a	n/a	n/a	n/a
3288889	RECOG_CONF	n/a	LTP256	ltpFR	4	7	1	BRUNETTE	181	5	1	n/a	n/a	n/a	n/a	n/a
3290704	RECOG_TARGET	n/a	LTP256	ltpFR	4	7	1	COUGAR	387	5	1	n/a	n/a	n/a	n/a	n/a
3291363	RECOG_RESP	n/a	LTP256	ltpFR	4	7	1	COUGAR	387	n/a	1	n/a	n/a	n/a	n/a	n/a
3292690	RECOG_CONF	n/a	LTP256	ltpFR	4	7	1	COUGAR	387	5	1	n/a	n/a	n/a	n/a	n/a
3294449	RECOG_TARGET	n/a	LTP256	ltpFR	4	7	1	TURNIP	1521	5	1	n/a	n/a	n/a	n/a	n/a
3295064	RECOG_RESP	n/a	LTP256	ltpFR	4	7	1	TURNIP	1521	n/a	1	n/a	n/a	n/a	n/a	n/a
3296322	RECOG_CONF	n/a	LTP256	ltpFR	4	7	1	TURNIP	1521	5	1	n/a	n/a	n/a	n/a	n/a
3298193	RECOG_TARGET	n/a	LTP256	ltpFR	4	7	-1	STORE	1387	5	-1	n/a	n/a	n/a	n/a	n/a
3298911	RECOG_RESP	n/a	LTP256	ltpFR	4	7	-1	STORE	1387	n/a	-1	n/a	n/a	n/a	n/a	n/a
3300223	RECOG_CONF	n/a	LTP256	ltpFR	4	7	-1	STORE	1387	5	-1	n/a	n/a	n/a	n/a	n/a
3304447	REC_START	n/a	LTP256	ltpFR	4	8	n/a	n/a	n/a	n/a	n/a	n/a	n/a	n/a	n/a	n/a
3304484	RECOG_TARGET	n/a	LTP256	ltpFR	4	8	1	POLICE	1098	5	1	n/a	n/a	n/a	n/a	n/a
3305090	RECOG_RESP	n/a	LTP256	ltpFR	4	8	1	POLICE	1098	n/a	1	n/a	n/a	n/a	n/a	n/a
3306278	RECOG_CONF	n/a	LTP256	ltpFR	4	8	1	POLICE	1098	5	1	n/a	n/a	n/a	n/a	n/a
3308029	RECOG_TARGET	n/a	LTP256	ltpFR	4	8	0	STICKER	1382	5	0	n/a	n/a	n/a	n/a	n/a
3308550	RECOG_RESP	n/a	LTP256	ltpFR	4	8	0	STICKER	1382	n/a	0	n/a	n/a	n/a	n/a	n/a
3309690	RECOG_CONF	n/a	LTP256	ltpFR	4	8	0	STICKER	1382	5	0	n/a	n/a	n/a	n/a	n/a
3311440	RECOG_TARGET	n/a	LTP256	ltpFR	4	8	0	PLUM	1090	5	0	n/a	n/a	n/a	n/a	n/a
3312079	RECOG_RESP	n/a	LTP256	ltpFR	4	8	0	PLUM	1090	n/a	0	n/a	n/a	n/a	n/a	n/a
3313232	RECOG_CONF	n/a	LTP256	ltpFR	4	8	0	PLUM	1090	5	0	n/a	n/a	n/a	n/a	n/a
3315135	RECOG_TARGET	n/a	LTP256	ltpFR	4	8	0	BROCCOLI	176	5	0	n/a	n/a	n/a	n/a	n/a
3315706	RECOG_RESP	n/a	LTP256	ltpFR	4	8	0	BROCCOLI	176	n/a	0	n/a	n/a	n/a	n/a	n/a
3316854	RECOG_CONF	n/a	LTP256	ltpFR	4	8	0	BROCCOLI	176	5	0	n/a	n/a	n/a	n/a	n/a
3318662	RECOG_TARGET	n/a	LTP256	ltpFR	4	8	1	DOORBELL	487	5	0	n/a	n/a	n/a	n/a	n/a
3319687	RECOG_RESP	n/a	LTP256	ltpFR	4	8	1	DOORBELL	487	n/a	0	n/a	n/a	n/a	n/a	n/a
3320795	RECOG_CONF	n/a	LTP256	ltpFR	4	8	1	DOORBELL	487	5	0	n/a	n/a	n/a	n/a	n/a
3322506	RECOG_LURE	n/a	LTP256	ltpFR	4	8	n/a	MILITARY	894	4	n/a	n/a	n/a	n/a	n/a	n/a
3323319	RECOG_RESP	n/a	LTP256	ltpFR	4	8	n/a	MILITARY	894	n/a	n/a	n/a	n/a	n/a	n/a	n/a
3324486	RECOG_CONF	n/a	LTP256	ltpFR	4	8	n/a	MILITARY	894	4	n/a	n/a	n/a	n/a	n/a	n/a
3326318	RECOG_TARGET	n/a	LTP256	ltpFR	4	8	1	OYSTER	995	5	1	n/a	n/a	n/a	n/a	n/a
3326936	RECOG_RESP	n/a	LTP256	ltpFR	4	8	1	OYSTER	995	n/a	1	n/a	n/a	n/a	n/a	n/a
3328058	RECOG_CONF	n/a	LTP256	ltpFR	4	8	1	OYSTER	995	5	1	n/a	n/a	n/a	n/a	n/a
3329746	RECOG_TARGET	n/a	LTP256	ltpFR	4	8	-1	UNIVERSE	1540	5	-1	n/a	n/a	n/a	n/a	n/a
