onset	duration	trial_type	sample	stim_file	subject	experiment	session	trial	task	item_name	item_num	recog_resp	recog_conf	resp	color_r	color_g	color_b	case	font
245.902	n/a	SESS_START	122951	n/a	LTP273	ltpFR	18	n/a	n/a	n/a	n/a	1	2	n/a	n/a	n/a	n/a	n/a	n/a
316.686	n/a	WORD	158343	wordpools/wasnorm_wordpool_less_exclusions.txt	LTP273	ltpFR	18	1	0	LOAF	835	0	n/a	1	0.422607421875	0.5869140625	0	upper	zerothre.ttf
320.902	n/a	WORD	160451	wordpools/wasnorm_wordpool_less_exclusions.txt	LTP273	ltpFR	18	1	0	BUTTER	205	n/a	n/a	0	0.422607421875	0.5869140625	0	upper	zerothre.ttf
324.916	n/a	WORD	162458	wordpools/wasnorm_wordpool_less_exclusions.txt	LTP273	ltpFR	18	1	0	PEDESTRIAN	1038	n/a	n/a	1	0.422607421875	0.5869140625	0	upper	zerothre.ttf
328.864	n/a	WORD	164432	wordpools/wasnorm_wordpool_less_exclusions.txt	LTP273	ltpFR	18	1	0	SIDEWALK	1303	n/a	n/a	1	0.422607421875	0.5869140625	0	upper	zerothre.ttf
332.78	n/a	WORD	166390	wordpools/wasnorm_wordpool_less_exclusions.txt	LTP273	ltpFR	18	1	1	EWE	542	n/a	n/a	1	0.57763671875	0.412841796875	1	lower	amplitud.ttf
336.946	n/a	WORD	168473	wordpools/wasnorm_wordpool_less_exclusions.txt	LTP273	ltpFR	18	1	1	DOLPHIN	483	n/a	n/a	1	0.57763671875	0.412841796875	1	lower	amplitud.ttf
340.81	n/a	WORD	170405	wordpools/wasnorm_wordpool_less_exclusions.txt	LTP273	ltpFR	18	1	1	MOSQUITO	917	n/a	n/a	1	0.57763671875	0.412841796875	1	lower	amplitud.ttf
344.81	n/a	WORD	172405	wordpools/wasnorm_wordpool_less_exclusions.txt	LTP273	ltpFR	18	1	1	DISH	474	n/a	n/a	0	0.57763671875	0.412841796875	1	lower	amplitud.ttf
348.706	n/a	WORD	174353	wordpools/wasnorm_wordpool_less_exclusions.txt	LTP273	ltpFR	18	1	0	FEAST	556	n/a	n/a	0	0.422607421875	0.5869140625	0	upper	zerothre.ttf
352.822	n/a	WORD	176411	wordpools/wasnorm_wordpool_less_exclusions.txt	LTP273	ltpFR	18	1	0	FOX	598	n/a	n/a	1	0.422607421875	0.5869140625	0	upper	zerothre.ttf
356.872	n/a	WORD	178436	wordpools/wasnorm_wordpool_less_exclusions.txt	LTP273	ltpFR	18	1	1	LIEUTENANT	818	n/a	n/a	1	0.57763671875	0.412841796875	1	lower	amplitud.ttf
360.838	n/a	WORD	180419	wordpools/wasnorm_wordpool_less_exclusions.txt	LTP273	ltpFR	18	1	1	CREAM	402	n/a	n/a	0	0.57763671875	0.412841796875	1	lower	amplitud.ttf
364.97	n/a	WORD	182485	wordpools/wasnorm_wordpool_less_exclusions.txt	LTP273	ltpFR	18	1	1	BROOM	178	n/a	n/a	1	0.57763671875	0.412841796875	1	lower	amplitud.ttf
368.918	n/a	WORD	184459	wordpools/wasnorm_wordpool_less_exclusions.txt	LTP273	ltpFR	18	1	1	BADGE	68	n/a	n/a	0	0.57763671875	0.412841796875	1	lower	amplitud.ttf
372.848	n/a	WORD	186424	wordpools/wasnorm_wordpool_less_exclusions.txt	LTP273	ltpFR	18	1	0	ICE	730	n/a	n/a	0	0.422607421875	0.5869140625	0	upper	zerothre.ttf
376.948	n/a	WORD	188474	wordpools/wasnorm_wordpool_less_exclusions.txt	LTP273	ltpFR	18	1	0	BEAST	108	n/a	n/a	1	0.422607421875	0.5869140625	0	upper	zerothre.ttf
382.838	n/a	REC_START	191419	n/a	LTP273	ltpFR	18	1	n/a	n/a	n/a	n/a	n/a	n/a	n/a	n/a	n/a	n/a	n/a
384.582	n/a	REC_WORD	192291	wordpools/wasnorm_wordpool_less_exclusions.txt	LTP273	ltpFR	18	1	0	SIDEWALK	1303	n/a	n/a	1	n/a	n/a	n/a	n/a	n/a
385.912	n/a	REC_WORD	192956	wordpools/wasnorm_wordpool_less_exclusions.txt	LTP273	ltpFR	18	1	0	BEAST	108	n/a	n/a	1	n/a	n/a	n/a	n/a	n/a
386.826	n/a	REC_WORD	193413	wordpools/wasnorm_wordpool_less_exclusions.txt	LTP273	ltpFR	18	1	0	ICE	730	n/a	n/a	0	n/a	n/a	n/a	n/a	n/a
387.97	n/a	REC_WORD	193985	wordpools/wasnorm_wordpool_less_exclusions.txt	LTP273	ltpFR	18	1	0	PEDESTRIAN	1038	n/a	n/a	1	n/a	n/a	n/a	n/a	n/a
391.152	n/a	REC_WORD	195576	wordpools/wasnorm_wordpool_less_exclusions.txt	LTP273	ltpFR	18	1	0	BUTTER	205	n/a	n/a	0	n/a	n/a	n/a	n/a	n/a
393.046	n/a	REC_WORD	196523	wordpools/wasnorm_wordpool_less_exclusions.txt	LTP273	ltpFR	18	1	0	LOAF	835	n/a	n/a	1	n/a	n/a	n/a	n/a	n/a
395.78	n/a	REC_WORD	197890	wordpools/wasnorm_wordpool_less_exclusions.txt	LTP273	ltpFR	18	1	1	LIEUTENANT	818	n/a	n/a	1	n/a	n/a	n/a	n/a	n/a
400.506	n/a	REC_WORD	200253	wordpools/wasnorm_wordpool_less_exclusions.txt	LTP273	ltpFR	18	1	0	FEAST	556	n/a	n/a	0	n/a	n/a	n/a	n/a	n/a
429.93	n/a	REC_WORD	214965	wordpools/wasnorm_wordpool_less_exclusions.txt	LTP273	ltpFR	18	1	1	DOLPHIN	483	n/a	n/a	1	n/a	n/a	n/a	n/a	n/a
432.458	n/a	REC_WORD	216229	wordpools/wasnorm_wordpool_less_exclusions.txt	LTP273	ltpFR	18	1	1	MOSQUITO	917	n/a	n/a	1	n/a	n/a	n/a	n/a	n/a
470.774	n/a	WORD	235387	wordpools/wasnorm_wordpool_less_exclusions.txt	LTP273	ltpFR	18	2	1	SCREW	1254	n/a	n/a	0	0.57763671875	0.412841796875	1	lower	amplitud.ttf
474.706	n/a	WORD	237353	wordpools/wasnorm_wordpool_less_exclusions.txt	LTP273	ltpFR	18	2	1	BLACKBERRY	132	n/a	n/a	0	0.57763671875	0.412841796875	1	lower	amplitud.ttf
478.77	n/a	WORD	239385	wordpools/wasnorm_wordpool_less_exclusions.txt	LTP273	ltpFR	18	2	0	TWIN	1528	n/a	n/a	1	0.422607421875	0.5869140625	0	upper	zerothre.ttf
482.97	n/a	WORD	241485	wordpools/wasnorm_wordpool_less_exclusions.txt	LTP273	ltpFR	18	2	0	CORK	380	n/a	n/a	0	0.422607421875	0.5869140625	0	upper	zerothre.ttf
486.868	n/a	WORD	243434	wordpools/wasnorm_wordpool_less_exclusions.txt	LTP273	ltpFR	18	2	0	CINNAMON	310	n/a	n/a	0	0.422607421875	0.5869140625	0	upper	zerothre.ttf
491.018	n/a	WORD	245509	wordpools/wasnorm_wordpool_less_exclusions.txt	LTP273	ltpFR	18	2	0	MONUMENT	913	n/a	n/a	1	0.422607421875	0.5869140625	0	upper	zerothre.ttf
495.232	n/a	WORD	247616	wordpools/wasnorm_wordpool_less_exclusions.txt	LTP273	ltpFR	18	2	0	MERMAID	887	n/a	n/a	1	0.422607421875	0.5869140625	0	upper	zerothre.ttf
499.266	n/a	WORD	249633	wordpools/wasnorm_wordpool_less_exclusions.txt	LTP273	ltpFR	18	2	1	OZONE	996	n/a	n/a	0	0.57763671875	0.412841796875	1	lower	amplitud.ttf
503.364	n/a	WORD	251682	wordpools/wasnorm_wordpool_less_exclusions.txt	LTP273	ltpFR	18	2	1	PASTRY	1022	n/a	n/a	0	0.57763671875	0.412841796875	1	lower	amplitud.ttf
507.564	n/a	WORD	253782	wordpools/wasnorm_wordpool_less_exclusions.txt	LTP273	ltpFR	18	2	1	PEAR	1033	n/a	n/a	0	0.57763671875	0.412841796875	1	lower	amplitud.ttf
511.596	n/a	WORD	255798	wordpools/wasnorm_wordpool_less_exclusions.txt	LTP273	ltpFR	18	2	1	RIVER	1194	n/a	n/a	0	0.57763671875	0.412841796875	1	lower	amplitud.ttf
515.526	n/a	WORD	257763	wordpools/wasnorm_wordpool_less_exclusions.txt	LTP273	ltpFR	18	2	0	GUITAR	670	n/a	n/a	1	0.422607421875	0.5869140625	0	upper	zerothre.ttf
519.526	n/a	WORD	259763	wordpools/wasnorm_wordpool_less_exclusions.txt	LTP273	ltpFR	18	2	0	LAKE	796	n/a	n/a	0	0.422607421875	0.5869140625	0	upper	zerothre.ttf
523.726	n/a	WORD	261863	wordpools/wasnorm_wordpool_less_exclusions.txt	LTP273	ltpFR	18	2	0	MARINE	869	n/a	n/a	1	0.422607421875	0.5869140625	0	upper	zerothre.ttf
527.926	n/a	WORD	263963	wordpools/wasnorm_wordpool_less_exclusions.txt	LTP273	ltpFR	18	2	1	KITE	779	n/a	n/a	0	0.57763671875	0.412841796875	1	lower	amplitud.ttf
531.758	n/a	WORD	265879	wordpools/wasnorm_wordpool_less_exclusions.txt	LTP273	ltpFR	18	2	1	BEETLE	116	n/a	n/a	0	0.57763671875	0.412841796875	1	lower	amplitud.ttf
537.546	n/a	REC_START	268773	n/a	LTP273	ltpFR	18	2	n/a	n/a	n/a	n/a	n/a	n/a	n/a	n/a	n/a	n/a	n/a
538.48	n/a	REC_WORD	269240	wordpools/wasnorm_wordpool_less_exclusions.txt	LTP273	ltpFR	18	2	1	PEAR	1033	n/a	n/a	0	n/a	n/a	n/a	n/a	n/a
539.216	n/a	REC_WORD	269608	wordpools/wasnorm_wordpool_less_exclusions.txt	LTP273	ltpFR	18	2	1	BEETLE	116	n/a	n/a	0	n/a	n/a	n/a	n/a	n/a
540.322	n/a	REC_WORD	270161	wordpools/wasnorm_wordpool_less_exclusions.txt	LTP273	ltpFR	18	2	1	KITE	779	n/a	n/a	0	n/a	n/a	n/a	n/a	n/a
554.348	n/a	REC_WORD	277174	wordpools/wasnorm_wordpool_less_exclusions.txt	LTP273	ltpFR	18	2	0	LAKE	796	n/a	n/a	0	n/a	n/a	n/a	n/a	n/a
569.128	n/a	REC_WORD	284564	wordpools/wasnorm_wordpool_less_exclusions.txt	LTP273	ltpFR	18	2	1	RIVER	1194	n/a	n/a	0	n/a	n/a	n/a	n/a	n/a
644.89	n/a	WORD	322445	wordpools/wasnorm_wordpool_less_exclusions.txt	LTP273	ltpFR	18	3	-1	BLOUSE	139	n/a	n/a	-1	1.0	1.0	1	upper	Verdana.ttf
648.82	n/a	WORD	324410	wordpools/wasnorm_wordpool_less_exclusions.txt	LTP273	ltpFR	18	3	-1	CONCRETE	361	n/a	n/a	-1	1.0	1.0	1	upper	Verdana.ttf
652.768	n/a	WORD	326384	wordpools/wasnorm_wordpool_less_exclusions.txt	LTP273	ltpFR	18	3	-1	OYSTER	995	n/a	n/a	-1	1.0	1.0	1	upper	Verdana.ttf
656.97	n/a	WORD	328485	wordpools/wasnorm_wordpool_less_exclusions.txt	LTP273	ltpFR	18	3	-1	PLAID	1080	n/a	n/a	-1	1.0	1.0	1	upper	Verdana.ttf
661.002	n/a	WORD	330501	wordpools/wasnorm_wordpool_less_exclusions.txt	LTP273	ltpFR	18	3	-1	JOKER	759	n/a	n/a	-1	1.0	1.0	1	upper	Verdana.ttf
664.916	n/a	WORD	332458	wordpools/wasnorm_wordpool_less_exclusions.txt	LTP273	ltpFR	18	3	-1	CARD	243	n/a	n/a	-1	1.0	1.0	1	upper	Verdana.ttf
668.864	n/a	WORD	334432	wordpools/wasnorm_wordpool_less_exclusions.txt	LTP273	ltpFR	18	3	-1	CYCLONE	431	n/a	n/a	-1	1.0	1.0	1	upper	Verdana.ttf
672.846	n/a	WORD	336423	wordpools/wasnorm_wordpool_less_exclusions.txt	LTP273	ltpFR	18	3	-1	VINEGAR	1569	n/a	n/a	-1	1.0	1.0	1	upper	Verdana.ttf
676.712	n/a	WORD	338356	wordpools/wasnorm_wordpool_less_exclusions.txt	LTP273	ltpFR	18	3	-1	PORT	1110	n/a	n/a	-1	1.0	1.0	1	upper	Verdana.ttf
680.81	n/a	WORD	340405	wordpools/wasnorm_wordpool_less_exclusions.txt	LTP273	ltpFR	18	3	-1	GOLD	647	n/a	n/a	-1	1.0	1.0	1	upper	Verdana.ttf
684.708	n/a	WORD	342354	wordpools/wasnorm_wordpool_less_exclusions.txt	LTP273	ltpFR	18	3	-1	BEAD	103	n/a	n/a	-1	1.0	1.0	1	upper	Verdana.ttf
688.84	n/a	WORD	344420	wordpools/wasnorm_wordpool_less_exclusions.txt	LTP273	ltpFR	18	3	-1	COURSE	390	n/a	n/a	-1	1.0	1.0	1	upper	Verdana.ttf
692.872	n/a	WORD	346436	wordpools/wasnorm_wordpool_less_exclusions.txt	LTP273	ltpFR	18	3	-1	SEAFOOD	1260	n/a	n/a	-1	1.0	1.0	1	upper	Verdana.ttf
696.938	n/a	WORD	348469	wordpools/wasnorm_wordpool_less_exclusions.txt	LTP273	ltpFR	18	3	-1	WOMAN	1620	n/a	n/a	-1	1.0	1.0	1	upper	Verdana.ttf
700.77	n/a	WORD	350385	wordpools/wasnorm_wordpool_less_exclusions.txt	LTP273	ltpFR	18	3	-1	SUPERMARKET	1409	n/a	n/a	-1	1.0	1.0	1	upper	Verdana.ttf
704.734	n/a	WORD	352367	wordpools/wasnorm_wordpool_less_exclusions.txt	LTP273	ltpFR	18	3	-1	STAKE	1368	n/a	n/a	-1	1.0	1.0	1	upper	Verdana.ttf
710.708	n/a	REC_START	355354	n/a	LTP273	ltpFR	18	3	n/a	n/a	n/a	n/a	n/a	n/a	n/a	n/a	n/a	n/a	n/a
711.514	n/a	REC_WORD	355757	wordpools/wasnorm_wordpool_less_exclusions.txt	LTP273	ltpFR	18	3	-1	STAKE	1368	n/a	n/a	-1	n/a	n/a	n/a	n/a	n/a
712.106	n/a	REC_WORD	356053	wordpools/wasnorm_wordpool_less_exclusions.txt	LTP273	ltpFR	18	3	-1	SUPERMARKET	1409	n/a	n/a	-1	n/a	n/a	n/a	n/a	n/a
713.13	n/a	REC_WORD	356565	wordpools/wasnorm_wordpool_less_exclusions.txt	LTP273	ltpFR	18	3	-1	BLOUSE	139	n/a	n/a	-1	n/a	n/a	n/a	n/a	n/a
713.826	n/a	REC_WORD	356913	wordpools/wasnorm_wordpool_less_exclusions.txt	LTP273	ltpFR	18	3	-1	WOMAN	1620	n/a	n/a	-1	n/a	n/a	n/a	n/a	n/a
714.882	n/a	REC_WORD	357441	wordpools/wasnorm_wordpool_less_exclusions.txt	LTP273	ltpFR	18	3	-1	OYSTER	995	n/a	n/a	-1	n/a	n/a	n/a	n/a	n/a
720.882	n/a	REC_WORD	360441	wordpools/wasnorm_wordpool_less_exclusions.txt	LTP273	ltpFR	18	3	n/a	CEMENT	-1	n/a	n/a	n/a	n/a	n/a	n/a	n/a	n/a
740.932	n/a	REC_WORD	370466	wordpools/wasnorm_wordpool_less_exclusions.txt	LTP273	ltpFR	18	3	-1	PLAID	1080	n/a	n/a	-1	n/a	n/a	n/a	n/a	n/a
829.06	n/a	WORD	414530	wordpools/wasnorm_wordpool_less_exclusions.txt	LTP273	ltpFR	18	4	1	MICROPHONE	890	n/a	n/a	0	0.57763671875	0.412841796875	1	lower	amplitud.ttf
833.142	n/a	WORD	416571	wordpools/wasnorm_wordpool_less_exclusions.txt	LTP273	ltpFR	18	4	1	ALBUM	14	n/a	n/a	0	0.57763671875	0.412841796875	1	lower	amplitud.ttf
837.006	n/a	WORD	418503	wordpools/wasnorm_wordpool_less_exclusions.txt	LTP273	ltpFR	18	4	1	LAGOON	795	n/a	n/a	0	0.57763671875	0.412841796875	1	lower	amplitud.ttf
840.972	n/a	WORD	420486	wordpools/wasnorm_wordpool_less_exclusions.txt	LTP273	ltpFR	18	4	1	TONGUE	1479	n/a	n/a	0	0.57763671875	0.412841796875	1	lower	amplitud.ttf
844.886	n/a	WORD	422443	wordpools/wasnorm_wordpool_less_exclusions.txt	LTP273	ltpFR	18	4	1	SURF	1412	n/a	n/a	0	0.57763671875	0.412841796875	1	lower	amplitud.ttf
848.902	n/a	WORD	424451	wordpools/wasnorm_wordpool_less_exclusions.txt	LTP273	ltpFR	18	4	1	ARM	38	n/a	n/a	0	0.57763671875	0.412841796875	1	lower	amplitud.ttf
852.75	n/a	WORD	426375	wordpools/wasnorm_wordpool_less_exclusions.txt	LTP273	ltpFR	18	4	1	BASKETBALL	96	n/a	n/a	0	0.57763671875	0.412841796875	1	lower	amplitud.ttf
856.748	n/a	WORD	428374	wordpools/wasnorm_wordpool_less_exclusions.txt	LTP273	ltpFR	18	4	1	CHECKERS	285	n/a	n/a	0	0.57763671875	0.412841796875	1	lower	amplitud.ttf
860.596	n/a	WORD	430298	wordpools/wasnorm_wordpool_less_exclusions.txt	LTP273	ltpFR	18	4	1	BAY	102	n/a	n/a	0	0.57763671875	0.412841796875	1	lower	amplitud.ttf
864.496	n/a	WORD	432248	wordpools/wasnorm_wordpool_less_exclusions.txt	LTP273	ltpFR	18	4	1	MOAT	903	n/a	n/a	0	0.57763671875	0.412841796875	1	lower	amplitud.ttf
868.644	n/a	WORD	434322	wordpools/wasnorm_wordpool_less_exclusions.txt	LTP273	ltpFR	18	4	1	FISH	571	n/a	n/a	1	0.57763671875	0.412841796875	1	lower	amplitud.ttf
872.828	n/a	WORD	436414	wordpools/wasnorm_wordpool_less_exclusions.txt	LTP273	ltpFR	18	4	1	TUBE	1516	n/a	n/a	0	0.57763671875	0.412841796875	1	lower	amplitud.ttf
876.706	n/a	WORD	438353	wordpools/wasnorm_wordpool_less_exclusions.txt	LTP273	ltpFR	18	4	1	LAMB	797	n/a	n/a	0	0.57763671875	0.412841796875	1	lower	amplitud.ttf
880.858	n/a	WORD	440429	wordpools/wasnorm_wordpool_less_exclusions.txt	LTP273	ltpFR	18	4	1	KNEE	784	n/a	n/a	1	0.57763671875	0.412841796875	1	lower	amplitud.ttf
884.94	n/a	WORD	442470	wordpools/wasnorm_wordpool_less_exclusions.txt	LTP273	ltpFR	18	4	1	TIE	1466	n/a	n/a	0	0.57763671875	0.412841796875	1	lower	amplitud.ttf
888.754	n/a	WORD	444377	wordpools/wasnorm_wordpool_less_exclusions.txt	LTP273	ltpFR	18	4	1	FATHER	554	n/a	n/a	1	0.57763671875	0.412841796875	1	lower	amplitud.ttf
894.646	n/a	REC_START	447323	n/a	LTP273	ltpFR	18	4	n/a	n/a	n/a	n/a	n/a	n/a	n/a	n/a	n/a	n/a	n/a
898.854	n/a	REC_WORD	449427	wordpools/wasnorm_wordpool_less_exclusions.txt	LTP273	ltpFR	18	4	1	LAMB	797	n/a	n/a	0	n/a	n/a	n/a	n/a	n/a
899.72	n/a	REC_WORD	449860	wordpools/wasnorm_wordpool_less_exclusions.txt	LTP273	ltpFR	18	4	n/a	TEA	1439	n/a	n/a	n/a	n/a	n/a	n/a	n/a	n/a
900.436	n/a	REC_WORD	450218	wordpools/wasnorm_wordpool_less_exclusions.txt	LTP273	ltpFR	18	4	1	FATHER	554	n/a	n/a	1	n/a	n/a	n/a	n/a	n/a
901.512	n/a	REC_WORD	450756	wordpools/wasnorm_wordpool_less_exclusions.txt	LTP273	ltpFR	18	4	1	LAGOON	795	n/a	n/a	0	n/a	n/a	n/a	n/a	n/a
902.8	n/a	REC_WORD	451400	wordpools/wasnorm_wordpool_less_exclusions.txt	LTP273	ltpFR	18	4	1	FISH	571	n/a	n/a	1	n/a	n/a	n/a	n/a	n/a
904.892	n/a	REC_WORD	452446	wordpools/wasnorm_wordpool_less_exclusions.txt	LTP273	ltpFR	18	4	1	KNEE	784	n/a	n/a	1	n/a	n/a	n/a	n/a	n/a
906.83	n/a	REC_WORD	453415	wordpools/wasnorm_wordpool_less_exclusions.txt	LTP273	ltpFR	18	4	1	ARM	38	n/a	n/a	0	n/a	n/a	n/a	n/a	n/a
1035.5	n/a	WORD	517750	wordpools/wasnorm_wordpool_less_exclusions.txt	LTP273	ltpFR	18	5	1	BRUSH	182	n/a	n/a	0	0.57763671875	0.412841796875	1	lower	amplitud.ttf
1039.548	n/a	WORD	519774	wordpools/wasnorm_wordpool_less_exclusions.txt	LTP273	ltpFR	18	5	1	BOYFRIEND	162	n/a	n/a	1	0.57763671875	0.412841796875	1	lower	amplitud.ttf
1043.78	n/a	WORD	521890	wordpools/wasnorm_wordpool_less_exclusions.txt	LTP273	ltpFR	18	5	1	FRIEND	606	n/a	n/a	1	0.57763671875	0.412841796875	1	lower	amplitud.ttf
1047.912	n/a	WORD	523956	wordpools/wasnorm_wordpool_less_exclusions.txt	LTP273	ltpFR	18	5	1	ATTIRE	57	n/a	n/a	0	0.57763671875	0.412841796875	1	lower	amplitud.ttf
1052.062	n/a	WORD	526031	wordpools/wasnorm_wordpool_less_exclusions.txt	LTP273	ltpFR	18	5	1	WARDROBE	1587	n/a	n/a	0	0.57763671875	0.412841796875	1	lower	amplitud.ttf
1055.942	n/a	WORD	527971	wordpools/wasnorm_wordpool_less_exclusions.txt	LTP273	ltpFR	18	5	1	VISITOR	1573	n/a	n/a	0	0.57763671875	0.412841796875	1	lower	amplitud.ttf
1059.876	n/a	WORD	529938	wordpools/wasnorm_wordpool_less_exclusions.txt	LTP273	ltpFR	18	5	1	DRYER	503	n/a	n/a	0	0.57763671875	0.412841796875	1	lower	amplitud.ttf
1064.092	n/a	WORD	532046	wordpools/wasnorm_wordpool_less_exclusions.txt	LTP273	ltpFR	18	5	1	XEROX	1628	n/a	n/a	0	0.57763671875	0.412841796875	1	lower	amplitud.ttf
1068.29	n/a	WORD	534145	wordpools/wasnorm_wordpool_less_exclusions.txt	LTP273	ltpFR	18	5	1	ROOMMATE	1207	n/a	n/a	1	0.57763671875	0.412841796875	1	lower	amplitud.ttf
1072.372	n/a	WORD	536186	wordpools/wasnorm_wordpool_less_exclusions.txt	LTP273	ltpFR	18	5	1	WINGS	1614	n/a	n/a	0	0.57763671875	0.412841796875	1	lower	amplitud.ttf
1076.272	n/a	WORD	538136	wordpools/wasnorm_wordpool_less_exclusions.txt	LTP273	ltpFR	18	5	1	SCARECROW	1245	n/a	n/a	0	0.57763671875	0.412841796875	1	lower	amplitud.ttf
1080.438	n/a	WORD	540219	wordpools/wasnorm_wordpool_less_exclusions.txt	LTP273	ltpFR	18	5	1	STATUE	1374	n/a	n/a	0	0.57763671875	0.412841796875	1	lower	amplitud.ttf
1084.57	n/a	WORD	542285	wordpools/wasnorm_wordpool_less_exclusions.txt	LTP273	ltpFR	18	5	1	BISON	131	n/a	n/a	1	0.57763671875	0.412841796875	1	lower	amplitud.ttf
1088.766	n/a	WORD	544383	wordpools/wasnorm_wordpool_less_exclusions.txt	LTP273	ltpFR	18	5	1	CHEST	295	n/a	n/a	1	0.57763671875	0.412841796875	1	lower	amplitud.ttf
1092.752	n/a	WORD	546376	wordpools/wasnorm_wordpool_less_exclusions.txt	LTP273	ltpFR	18	5	1	DANCER	437	n/a	n/a	0	0.57763671875	0.412841796875	1	lower	amplitud.ttf
1096.866	n/a	WORD	548433	wordpools/wasnorm_wordpool_less_exclusions.txt	LTP273	ltpFR	18	5	1	PRIMATE	1123	n/a	n/a	1	0.57763671875	0.412841796875	1	lower	amplitud.ttf
1102.806	n/a	REC_START	551403	n/a	LTP273	ltpFR	18	5	n/a	n/a	n/a	n/a	n/a	n/a	n/a	n/a	n/a	n/a	n/a
1104.18	n/a	REC_WORD	552090	wordpools/wasnorm_wordpool_less_exclusions.txt	LTP273	ltpFR	18	5	1	BISON	131	n/a	n/a	1	n/a	n/a	n/a	n/a	n/a
1105.402	n/a	REC_WORD	552701	wordpools/wasnorm_wordpool_less_exclusions.txt	LTP273	ltpFR	18	5	1	PRIMATE	1123	n/a	n/a	1	n/a	n/a	n/a	n/a	n/a
1155.126	n/a	REC_WORD	577563	wordpools/wasnorm_wordpool_less_exclusions.txt	LTP273	ltpFR	18	5	1	CHEST	295	n/a	n/a	1	n/a	n/a	n/a	n/a	n/a
1166.908	n/a	REC_WORD	583454	wordpools/wasnorm_wordpool_less_exclusions.txt	LTP273	ltpFR	18	5	1	ATTIRE	57	n/a	n/a	0	n/a	n/a	n/a	n/a	n/a
1184.552	n/a	WORD	592276	wordpools/wasnorm_wordpool_less_exclusions.txt	LTP273	ltpFR	18	6	0	SAUSAGE	1238	n/a	n/a	0	0.422607421875	0.5869140625	0	upper	zerothre.ttf
1188.752	n/a	WORD	594376	wordpools/wasnorm_wordpool_less_exclusions.txt	LTP273	ltpFR	18	6	0	STEW	1380	n/a	n/a	0	0.422607421875	0.5869140625	0	upper	zerothre.ttf
1192.95	n/a	WORD	596475	wordpools/wasnorm_wordpool_less_exclusions.txt	LTP273	ltpFR	18	6	0	DECK	443	n/a	n/a	0	0.422607421875	0.5869140625	0	upper	zerothre.ttf
1197.082	n/a	WORD	598541	wordpools/wasnorm_wordpool_less_exclusions.txt	LTP273	ltpFR	18	6	0	RAFT	1159	n/a	n/a	1	0.422607421875	0.5869140625	0	upper	zerothre.ttf
1201.298	n/a	WORD	600649	wordpools/wasnorm_wordpool_less_exclusions.txt	LTP273	ltpFR	18	6	0	SCREWDRIVER	1255	n/a	n/a	1	0.422607421875	0.5869140625	0	upper	zerothre.ttf
1205.196	n/a	WORD	602598	wordpools/wasnorm_wordpool_less_exclusions.txt	LTP273	ltpFR	18	6	0	MONGOOSE	909	n/a	n/a	1	0.422607421875	0.5869140625	0	upper	zerothre.ttf
1209.296	n/a	WORD	604648	wordpools/wasnorm_wordpool_less_exclusions.txt	LTP273	ltpFR	18	6	0	PERCH	1048	n/a	n/a	0	0.422607421875	0.5869140625	0	upper	zerothre.ttf
1213.344	n/a	WORD	606672	wordpools/wasnorm_wordpool_less_exclusions.txt	LTP273	ltpFR	18	6	0	FROST	609	n/a	n/a	0	0.422607421875	0.5869140625	0	upper	zerothre.ttf
1217.36	n/a	WORD	608680	wordpools/wasnorm_wordpool_less_exclusions.txt	LTP273	ltpFR	18	6	0	LILY	821	n/a	n/a	0	0.422607421875	0.5869140625	0	upper	zerothre.ttf
1221.39	n/a	WORD	610695	wordpools/wasnorm_wordpool_less_exclusions.txt	LTP273	ltpFR	18	6	0	BED	110	n/a	n/a	0	0.422607421875	0.5869140625	0	upper	zerothre.ttf
1225.34	n/a	WORD	612670	wordpools/wasnorm_wordpool_less_exclusions.txt	LTP273	ltpFR	18	6	0	TACK	1428	n/a	n/a	0	0.422607421875	0.5869140625	0	upper	zerothre.ttf
1229.172	n/a	WORD	614586	wordpools/wasnorm_wordpool_less_exclusions.txt	LTP273	ltpFR	18	6	0	NERVE	944	n/a	n/a	0	0.422607421875	0.5869140625	0	upper	zerothre.ttf
1233.02	n/a	WORD	616510	wordpools/wasnorm_wordpool_less_exclusions.txt	LTP273	ltpFR	18	6	0	TOILET	1475	n/a	n/a	1	0.422607421875	0.5869140625	0	upper	zerothre.ttf
1237.186	n/a	WORD	618593	wordpools/wasnorm_wordpool_less_exclusions.txt	LTP273	ltpFR	18	6	0	ROOT	1210	n/a	n/a	1	0.422607421875	0.5869140625	0	upper	zerothre.ttf
1241.368	n/a	WORD	620684	wordpools/wasnorm_wordpool_less_exclusions.txt	LTP273	ltpFR	18	6	0	WASHER	1592	n/a	n/a	1	0.422607421875	0.5869140625	0	upper	zerothre.ttf
1245.384	n/a	WORD	622692	wordpools/wasnorm_wordpool_less_exclusions.txt	LTP273	ltpFR	18	6	0	ICEBERG	731	n/a	n/a	0	0.422607421875	0.5869140625	0	upper	zerothre.ttf
1251.14	n/a	REC_START	625570	n/a	LTP273	ltpFR	18	6	n/a	n/a	n/a	n/a	n/a	n/a	n/a	n/a	n/a	n/a	n/a
1253.356	n/a	REC_WORD	626678	wordpools/wasnorm_wordpool_less_exclusions.txt	LTP273	ltpFR	18	6	0	WASHER	1592	n/a	n/a	1	n/a	n/a	n/a	n/a	n/a
1254.496	n/a	REC_WORD	627248	wordpools/wasnorm_wordpool_less_exclusions.txt	LTP273	ltpFR	18	6	0	ICEBERG	731	n/a	n/a	0	n/a	n/a	n/a	n/a	n/a
1256.228	n/a	REC_WORD	628114	wordpools/wasnorm_wordpool_less_exclusions.txt	LTP273	ltpFR	18	6	0	ROOT	1210	n/a	n/a	1	n/a	n/a	n/a	n/a	n/a
1271.086	n/a	REC_WORD	635543	wordpools/wasnorm_wordpool_less_exclusions.txt	LTP273	ltpFR	18	6	0	STEW	1380	n/a	n/a	0	n/a	n/a	n/a	n/a	n/a
1378.862	n/a	WORD	689431	wordpools/wasnorm_wordpool_less_exclusions.txt	LTP273	ltpFR	18	7	0	CARROT	249	n/a	n/a	0	0.422607421875	0.5869140625	0	upper	zerothre.ttf
1383.078	n/a	WORD	691539	wordpools/wasnorm_wordpool_less_exclusions.txt	LTP273	ltpFR	18	7	0	RADISH	1158	n/a	n/a	0	0.422607421875	0.5869140625	0	upper	zerothre.ttf
1386.924	n/a	WORD	693462	wordpools/wasnorm_wordpool_less_exclusions.txt	LTP273	ltpFR	18	7	1	LIVER	833	n/a	n/a	0	0.57763671875	0.412841796875	1	lower	amplitud.ttf
1391.106	n/a	WORD	695553	wordpools/wasnorm_wordpool_less_exclusions.txt	LTP273	ltpFR	18	7	1	KITTEN	780	n/a	n/a	1	0.57763671875	0.412841796875	1	lower	amplitud.ttf
1395.02	n/a	WORD	697510	wordpools/wasnorm_wordpool_less_exclusions.txt	LTP273	ltpFR	18	7	1	ATTORNEY	58	n/a	n/a	1	0.57763671875	0.412841796875	1	lower	amplitud.ttf
1399.038	n/a	WORD	699519	wordpools/wasnorm_wordpool_less_exclusions.txt	LTP273	ltpFR	18	7	1	LITTER	832	n/a	n/a	0	0.57763671875	0.412841796875	1	lower	amplitud.ttf
1402.986	n/a	WORD	701493	wordpools/wasnorm_wordpool_less_exclusions.txt	LTP273	ltpFR	18	7	0	TIGER	1467	n/a	n/a	1	0.422607421875	0.5869140625	0	upper	zerothre.ttf
1407.068	n/a	WORD	703534	wordpools/wasnorm_wordpool_less_exclusions.txt	LTP273	ltpFR	18	7	0	AUTHOR	61	n/a	n/a	1	0.422607421875	0.5869140625	0	upper	zerothre.ttf
1410.9	n/a	WORD	705450	wordpools/wasnorm_wordpool_less_exclusions.txt	LTP273	ltpFR	18	7	0	DIAMOND	458	n/a	n/a	0	0.422607421875	0.5869140625	0	upper	zerothre.ttf
1414.982	n/a	WORD	707491	wordpools/wasnorm_wordpool_less_exclusions.txt	LTP273	ltpFR	18	7	0	CLIMBER	323	n/a	n/a	1	0.422607421875	0.5869140625	0	upper	zerothre.ttf
1418.898	n/a	WORD	709449	wordpools/wasnorm_wordpool_less_exclusions.txt	LTP273	ltpFR	18	7	1	CABIN	211	n/a	n/a	1	0.57763671875	0.412841796875	1	lower	amplitud.ttf
1423.062	n/a	WORD	711531	wordpools/wasnorm_wordpool_less_exclusions.txt	LTP273	ltpFR	18	7	1	CHEF	290	n/a	n/a	1	0.57763671875	0.412841796875	1	lower	amplitud.ttf
1427.246	n/a	WORD	713623	wordpools/wasnorm_wordpool_less_exclusions.txt	LTP273	ltpFR	18	7	1	COUCH	386	n/a	n/a	0	0.57763671875	0.412841796875	1	lower	amplitud.ttf
1431.178	n/a	WORD	715589	wordpools/wasnorm_wordpool_less_exclusions.txt	LTP273	ltpFR	18	7	1	SEAT	1264	n/a	n/a	0	0.57763671875	0.412841796875	1	lower	amplitud.ttf
1435.144	n/a	WORD	717572	wordpools/wasnorm_wordpool_less_exclusions.txt	LTP273	ltpFR	18	7	0	TRASH	1497	n/a	n/a	3	0.422607421875	0.5869140625	0	upper	zerothre.ttf
1437.82	n/a	KEY_MSG	718910	n/a	LTP273	ltpFR	18	7	n/a	n/a	n/a	n/a	n/a	n/a	n/a	n/a	n/a	n/a	n/a
1440.464	n/a	WORD	720232	wordpools/wasnorm_wordpool_less_exclusions.txt	LTP273	ltpFR	18	7	0	CUFF	423	n/a	n/a	0	0.422607421875	0.5869140625	0	upper	zerothre.ttf
1446.336	n/a	REC_START	723168	n/a	LTP273	ltpFR	18	7	n/a	n/a	n/a	n/a	n/a	n/a	n/a	n/a	n/a	n/a	n/a
1447.306	n/a	REC_WORD	723653	wordpools/wasnorm_wordpool_less_exclusions.txt	LTP273	ltpFR	18	7	1	SEAT	1264	n/a	n/a	0	n/a	n/a	n/a	n/a	n/a
1448.448	n/a	REC_WORD	724224	wordpools/wasnorm_wordpool_less_exclusions.txt	LTP273	ltpFR	18	7	0	CUFF	423	n/a	n/a	0	n/a	n/a	n/a	n/a	n/a
1449.486	n/a	REC_WORD	724743	wordpools/wasnorm_wordpool_less_exclusions.txt	LTP273	ltpFR	18	7	0	RADISH	1158	n/a	n/a	0	n/a	n/a	n/a	n/a	n/a
1452.81	n/a	REC_WORD	726405	wordpools/wasnorm_wordpool_less_exclusions.txt	LTP273	ltpFR	18	7	0	CARROT	249	n/a	n/a	0	n/a	n/a	n/a	n/a	n/a
1455.374	n/a	REC_WORD	727687	wordpools/wasnorm_wordpool_less_exclusions.txt	LTP273	ltpFR	18	7	1	KITTEN	780	n/a	n/a	1	n/a	n/a	n/a	n/a	n/a
1688.828	n/a	WORD	844414	wordpools/wasnorm_wordpool_less_exclusions.txt	LTP273	ltpFR	18	8	1	RAZOR	1171	n/a	n/a	0	0.57763671875	0.412841796875	1	lower	amplitud.ttf
1692.676	n/a	WORD	846338	wordpools/wasnorm_wordpool_less_exclusions.txt	LTP273	ltpFR	18	8	1	FORK	594	n/a	n/a	0	0.57763671875	0.412841796875	1	lower	amplitud.ttf
1696.758	n/a	WORD	848379	wordpools/wasnorm_wordpool_less_exclusions.txt	LTP273	ltpFR	18	8	1	SHRUB	1299	n/a	n/a	1	0.57763671875	0.412841796875	1	lower	amplitud.ttf
1700.774	n/a	WORD	850387	wordpools/wasnorm_wordpool_less_exclusions.txt	LTP273	ltpFR	18	8	1	BEEF	113	n/a	n/a	0	0.57763671875	0.412841796875	1	lower	amplitud.ttf
1704.69	n/a	WORD	852345	wordpools/wasnorm_wordpool_less_exclusions.txt	LTP273	ltpFR	18	8	1	BIRD	129	n/a	n/a	1	0.57763671875	0.412841796875	1	lower	amplitud.ttf
1708.806	n/a	WORD	854403	wordpools/wasnorm_wordpool_less_exclusions.txt	LTP273	ltpFR	18	8	0	VEGETABLE	1552	n/a	n/a	0	0.422607421875	0.5869140625	0	upper	zerothre.ttf
1712.67	n/a	WORD	856335	wordpools/wasnorm_wordpool_less_exclusions.txt	LTP273	ltpFR	18	8	0	BREAST	171	n/a	n/a	1	0.422607421875	0.5869140625	0	upper	zerothre.ttf
1716.534	n/a	WORD	858267	wordpools/wasnorm_wordpool_less_exclusions.txt	LTP273	ltpFR	18	8	1	ROOSTER	1209	n/a	n/a	0	0.57763671875	0.412841796875	1	lower	amplitud.ttf
1720.7	n/a	WORD	860350	wordpools/wasnorm_wordpool_less_exclusions.txt	LTP273	ltpFR	18	8	1	CUPBOARD	425	n/a	n/a	0	0.57763671875	0.412841796875	1	lower	amplitud.ttf
1724.898	n/a	WORD	862449	wordpools/wasnorm_wordpool_less_exclusions.txt	LTP273	ltpFR	18	8	1	ELEPHANT	523	n/a	n/a	1	0.57763671875	0.412841796875	1	lower	amplitud.ttf
1728.764	n/a	WORD	864382	wordpools/wasnorm_wordpool_less_exclusions.txt	LTP273	ltpFR	18	8	0	SUITE	1404	n/a	n/a	0	0.422607421875	0.5869140625	0	upper	zerothre.ttf
1732.814	n/a	WORD	866407	wordpools/wasnorm_wordpool_less_exclusions.txt	LTP273	ltpFR	18	8	0	OTTER	986	n/a	n/a	1	0.422607421875	0.5869140625	0	upper	zerothre.ttf
1736.878	n/a	WORD	868439	wordpools/wasnorm_wordpool_less_exclusions.txt	LTP273	ltpFR	18	8	0	SCAPEGOAT	1244	n/a	n/a	1	0.422607421875	0.5869140625	0	upper	zerothre.ttf
1740.944	n/a	WORD	870472	wordpools/wasnorm_wordpool_less_exclusions.txt	LTP273	ltpFR	18	8	0	NEST	945	n/a	n/a	1	0.422607421875	0.5869140625	0	upper	zerothre.ttf
1744.776	n/a	WORD	872388	wordpools/wasnorm_wordpool_less_exclusions.txt	LTP273	ltpFR	18	8	0	SWATTER	1418	n/a	n/a	0	0.422607421875	0.5869140625	0	upper	zerothre.ttf
1748.624	n/a	WORD	874312	wordpools/wasnorm_wordpool_less_exclusions.txt	LTP273	ltpFR	18	8	0	CHAMBER	277	n/a	n/a	1	0.422607421875	0.5869140625	0	upper	zerothre.ttf
1754.446	n/a	REC_START	877223	n/a	LTP273	ltpFR	18	8	n/a	n/a	n/a	n/a	n/a	n/a	n/a	n/a	n/a	n/a	n/a
1756.074	n/a	REC_WORD	878037	wordpools/wasnorm_wordpool_less_exclusions.txt	LTP273	ltpFR	18	8	0	CHAMBER	277	n/a	n/a	1	n/a	n/a	n/a	n/a	n/a
1756.744	n/a	REC_WORD	878372	wordpools/wasnorm_wordpool_less_exclusions.txt	LTP273	ltpFR	18	8	0	SWATTER	1418	n/a	n/a	0	n/a	n/a	n/a	n/a	n/a
1772.06	n/a	REC_WORD	886030	wordpools/wasnorm_wordpool_less_exclusions.txt	LTP273	ltpFR	18	8	1	BEEF	113	n/a	n/a	0	n/a	n/a	n/a	n/a	n/a
1830.102	n/a	REST_REWET	915051	n/a	LTP273	ltpFR	18	8	n/a	n/a	n/a	n/a	n/a	n/a	n/a	n/a	n/a	n/a	n/a
2244.218	n/a	WORD	1122109	wordpools/wasnorm_wordpool_less_exclusions.txt	LTP273	ltpFR	18	9	1	PAD	998	n/a	n/a	0	0.57763671875	0.412841796875	1	lower	amplitud.ttf
2248.332	n/a	WORD	1124166	wordpools/wasnorm_wordpool_less_exclusions.txt	LTP273	ltpFR	18	9	1	PAPER	1011	n/a	n/a	0	0.57763671875	0.412841796875	1	lower	amplitud.ttf
2252.534	n/a	WORD	1126267	wordpools/wasnorm_wordpool_less_exclusions.txt	LTP273	ltpFR	18	9	1	BLOCKADE	137	n/a	n/a	1	0.57763671875	0.412841796875	1	lower	amplitud.ttf
2256.566	n/a	WORD	1128283	wordpools/wasnorm_wordpool_less_exclusions.txt	LTP273	ltpFR	18	9	1	RACKET	1155	n/a	n/a	0	0.57763671875	0.412841796875	1	lower	amplitud.ttf
2260.596	n/a	WORD	1130298	wordpools/wasnorm_wordpool_less_exclusions.txt	LTP273	ltpFR	18	9	0	ANT	25	n/a	n/a	0	0.422607421875	0.5869140625	0	upper	zerothre.ttf
2264.512	n/a	WORD	1132256	wordpools/wasnorm_wordpool_less_exclusions.txt	LTP273	ltpFR	18	9	0	COMPASS	358	n/a	n/a	0	0.422607421875	0.5869140625	0	upper	zerothre.ttf
2268.476	n/a	WORD	1134238	wordpools/wasnorm_wordpool_less_exclusions.txt	LTP273	ltpFR	18	9	0	SIREN	1310	n/a	n/a	0	0.422607421875	0.5869140625	0	upper	zerothre.ttf
2272.442	n/a	WORD	1136221	wordpools/wasnorm_wordpool_less_exclusions.txt	LTP273	ltpFR	18	9	0	SPY	1360	n/a	n/a	1	0.422607421875	0.5869140625	0	upper	zerothre.ttf
2276.34	n/a	WORD	1138170	wordpools/wasnorm_wordpool_less_exclusions.txt	LTP273	ltpFR	18	9	0	SIGN	1305	n/a	n/a	0	0.422607421875	0.5869140625	0	upper	zerothre.ttf
2280.256	n/a	WORD	1140128	wordpools/wasnorm_wordpool_less_exclusions.txt	LTP273	ltpFR	18	9	0	PIER	1063	n/a	n/a	0	0.422607421875	0.5869140625	0	upper	zerothre.ttf
2284.472	n/a	WORD	1142236	wordpools/wasnorm_wordpool_less_exclusions.txt	LTP273	ltpFR	18	9	1	SIGNATURE	1306	n/a	n/a	0	0.57763671875	0.412841796875	1	lower	amplitud.ttf
2288.452	n/a	WORD	1144226	wordpools/wasnorm_wordpool_less_exclusions.txt	LTP273	ltpFR	18	9	1	OCEAN	970	n/a	n/a	1	0.57763671875	0.412841796875	1	lower	amplitud.ttf
2292.302	n/a	WORD	1146151	wordpools/wasnorm_wordpool_less_exclusions.txt	LTP273	ltpFR	18	9	0	PORPOISE	1109	n/a	n/a	1	0.422607421875	0.5869140625	0	upper	zerothre.ttf
2296.484	n/a	WORD	1148242	wordpools/wasnorm_wordpool_less_exclusions.txt	LTP273	ltpFR	18	9	0	GIRAFFE	636	n/a	n/a	1	0.422607421875	0.5869140625	0	upper	zerothre.ttf
2300.33	n/a	WORD	1150165	wordpools/wasnorm_wordpool_less_exclusions.txt	LTP273	ltpFR	18	9	1	SWIMMER	1420	n/a	n/a	1	0.57763671875	0.412841796875	1	lower	amplitud.ttf
2304.446	n/a	WORD	1152223	wordpools/wasnorm_wordpool_less_exclusions.txt	LTP273	ltpFR	18	9	1	SCROLL	1257	n/a	n/a	0	0.57763671875	0.412841796875	1	lower	amplitud.ttf
2310.488	n/a	REC_START	1155244	n/a	LTP273	ltpFR	18	9	n/a	n/a	n/a	n/a	n/a	n/a	n/a	n/a	n/a	n/a	n/a
2311.5	n/a	REC_WORD	1155750	wordpools/wasnorm_wordpool_less_exclusions.txt	LTP273	ltpFR	18	9	1	SWIMMER	1420	n/a	n/a	1	n/a	n/a	n/a	n/a	n/a
2312.202	n/a	REC_WORD	1156101	wordpools/wasnorm_wordpool_less_exclusions.txt	LTP273	ltpFR	18	9	1	SCROLL	1257	n/a	n/a	0	n/a	n/a	n/a	n/a	n/a
2314.874	n/a	REC_WORD	1157437	wordpools/wasnorm_wordpool_less_exclusions.txt	LTP273	ltpFR	18	9	0	PORPOISE	1109	n/a	n/a	1	n/a	n/a	n/a	n/a	n/a
2331.358	n/a	REC_WORD	1165679	wordpools/wasnorm_wordpool_less_exclusions.txt	LTP273	ltpFR	18	9	1	PAD	998	n/a	n/a	0	n/a	n/a	n/a	n/a	n/a
2333.378	n/a	REC_WORD	1166689	wordpools/wasnorm_wordpool_less_exclusions.txt	LTP273	ltpFR	18	9	1	PAPER	1011	n/a	n/a	0	n/a	n/a	n/a	n/a	n/a
2336.924	n/a	REC_WORD	1168462	wordpools/wasnorm_wordpool_less_exclusions.txt	LTP273	ltpFR	18	9	1	RACKET	1155	n/a	n/a	0	n/a	n/a	n/a	n/a	n/a
2492.032	n/a	WORD	1246016	wordpools/wasnorm_wordpool_less_exclusions.txt	LTP273	ltpFR	18	10	-1	RUNNER	1218	n/a	n/a	-1	1.0	1.0	1	upper	Verdana.ttf
2496.212	n/a	WORD	1248106	wordpools/wasnorm_wordpool_less_exclusions.txt	LTP273	ltpFR	18	10	-1	RIBBON	1189	n/a	n/a	-1	1.0	1.0	1	upper	Verdana.ttf
2500.096	n/a	WORD	1250048	wordpools/wasnorm_wordpool_less_exclusions.txt	LTP273	ltpFR	18	10	-1	STEM	1376	n/a	n/a	-1	1.0	1.0	1	upper	Verdana.ttf
2504.212	n/a	WORD	1252106	wordpools/wasnorm_wordpool_less_exclusions.txt	LTP273	ltpFR	18	10	-1	BUTTON	207	n/a	n/a	-1	1.0	1.0	1	upper	Verdana.ttf
2508.326	n/a	WORD	1254163	wordpools/wasnorm_wordpool_less_exclusions.txt	LTP273	ltpFR	18	10	-1	VINE	1568	n/a	n/a	-1	1.0	1.0	1	upper	Verdana.ttf
2512.406	n/a	WORD	1256203	wordpools/wasnorm_wordpool_less_exclusions.txt	LTP273	ltpFR	18	10	-1	PEACH	1031	n/a	n/a	-1	1.0	1.0	1	upper	Verdana.ttf
2516.558	n/a	WORD	1258279	wordpools/wasnorm_wordpool_less_exclusions.txt	LTP273	ltpFR	18	10	-1	FARMER	553	n/a	n/a	-1	1.0	1.0	1	upper	Verdana.ttf
2520.59	n/a	WORD	1260295	wordpools/wasnorm_wordpool_less_exclusions.txt	LTP273	ltpFR	18	10	-1	CAULIFLOWER	262	n/a	n/a	-1	1.0	1.0	1	upper	Verdana.ttf
2524.69	n/a	WORD	1262345	wordpools/wasnorm_wordpool_less_exclusions.txt	LTP273	ltpFR	18	10	-1	CHAMPION	279	n/a	n/a	-1	1.0	1.0	1	upper	Verdana.ttf
2528.672	n/a	WORD	1264336	wordpools/wasnorm_wordpool_less_exclusions.txt	LTP273	ltpFR	18	10	-1	HOME	712	n/a	n/a	-1	1.0	1.0	1	upper	Verdana.ttf
2532.502	n/a	WORD	1266251	wordpools/wasnorm_wordpool_less_exclusions.txt	LTP273	ltpFR	18	10	-1	SWEATER	1419	n/a	n/a	-1	1.0	1.0	1	upper	Verdana.ttf
2536.602	n/a	WORD	1268301	wordpools/wasnorm_wordpool_less_exclusions.txt	LTP273	ltpFR	18	10	-1	BRICK	172	n/a	n/a	-1	1.0	1.0	1	upper	Verdana.ttf
2540.5	n/a	WORD	1270250	wordpools/wasnorm_wordpool_less_exclusions.txt	LTP273	ltpFR	18	10	-1	FRUIT	610	n/a	n/a	-1	1.0	1.0	1	upper	Verdana.ttf
2544.43	n/a	WORD	1272215	wordpools/wasnorm_wordpool_less_exclusions.txt	LTP273	ltpFR	18	10	-1	PRUNE	1134	n/a	n/a	-1	1.0	1.0	1	upper	Verdana.ttf
2548.614	n/a	WORD	1274307	wordpools/wasnorm_wordpool_less_exclusions.txt	LTP273	ltpFR	18	10	-1	APARTMENT	30	n/a	n/a	-1	1.0	1.0	1	upper	Verdana.ttf
2552.63	n/a	WORD	1276315	wordpools/wasnorm_wordpool_less_exclusions.txt	LTP273	ltpFR	18	10	-1	APRON	35	n/a	n/a	-1	1.0	1.0	1	upper	Verdana.ttf
2558.52	n/a	REC_START	1279260	n/a	LTP273	ltpFR	18	10	n/a	n/a	n/a	n/a	n/a	n/a	n/a	n/a	n/a	n/a	n/a
2561.994	n/a	REC_WORD	1280997	wordpools/wasnorm_wordpool_less_exclusions.txt	LTP273	ltpFR	18	10	-1	RUNNER	1218	n/a	n/a	-1	n/a	n/a	n/a	n/a	n/a
2563.624	n/a	REC_WORD	1281812	wordpools/wasnorm_wordpool_less_exclusions.txt	LTP273	ltpFR	18	10	-1	PRUNE	1134	n/a	n/a	-1	n/a	n/a	n/a	n/a	n/a
2572.046	n/a	REC_WORD	1286023	wordpools/wasnorm_wordpool_less_exclusions.txt	LTP273	ltpFR	18	10	-1	RIBBON	1189	n/a	n/a	-1	n/a	n/a	n/a	n/a	n/a
2683.062	n/a	WORD	1341531	wordpools/wasnorm_wordpool_less_exclusions.txt	LTP273	ltpFR	18	11	0	PAGE	1001	n/a	n/a	0	0.422607421875	0.5869140625	0	upper	zerothre.ttf
2687.126	n/a	WORD	1343563	wordpools/wasnorm_wordpool_less_exclusions.txt	LTP273	ltpFR	18	11	0	BILL	126	n/a	n/a	0	0.422607421875	0.5869140625	0	upper	zerothre.ttf
2691.342	n/a	WORD	1345671	wordpools/wasnorm_wordpool_less_exclusions.txt	LTP273	ltpFR	18	11	0	CASH	252	n/a	n/a	0	0.422607421875	0.5869140625	0	upper	zerothre.ttf
2695.508	n/a	WORD	1347754	wordpools/wasnorm_wordpool_less_exclusions.txt	LTP273	ltpFR	18	11	0	SOCIETY	1338	n/a	n/a	1	0.422607421875	0.5869140625	0	upper	zerothre.ttf
2699.574	n/a	WORD	1349787	wordpools/wasnorm_wordpool_less_exclusions.txt	LTP273	ltpFR	18	11	0	ROBE	1198	n/a	n/a	1	0.422607421875	0.5869140625	0	upper	zerothre.ttf
2703.59	n/a	WORD	1351795	wordpools/wasnorm_wordpool_less_exclusions.txt	LTP273	ltpFR	18	11	0	NOTEBOOK	959	n/a	n/a	0	0.422607421875	0.5869140625	0	upper	zerothre.ttf
2707.656	n/a	WORD	1353828	wordpools/wasnorm_wordpool_less_exclusions.txt	LTP273	ltpFR	18	11	0	CHEMIST	292	n/a	n/a	1	0.422607421875	0.5869140625	0	upper	zerothre.ttf
2711.638	n/a	WORD	1355819	wordpools/wasnorm_wordpool_less_exclusions.txt	LTP273	ltpFR	18	11	0	HANGER	687	n/a	n/a	0	0.422607421875	0.5869140625	0	upper	zerothre.ttf
2715.6	n/a	WORD	1357800	wordpools/wasnorm_wordpool_less_exclusions.txt	LTP273	ltpFR	18	11	0	COTTON	385	n/a	n/a	0	0.422607421875	0.5869140625	0	upper	zerothre.ttf
2719.584	n/a	WORD	1359792	wordpools/wasnorm_wordpool_less_exclusions.txt	LTP273	ltpFR	18	11	0	FRIAR	605	n/a	n/a	1	0.422607421875	0.5869140625	0	upper	zerothre.ttf
2723.732	n/a	WORD	1361866	wordpools/wasnorm_wordpool_less_exclusions.txt	LTP273	ltpFR	18	11	0	MOON	914	n/a	n/a	1	0.422607421875	0.5869140625	0	upper	zerothre.ttf
2727.782	n/a	WORD	1363891	wordpools/wasnorm_wordpool_less_exclusions.txt	LTP273	ltpFR	18	11	0	PERISCOPE	1050	n/a	n/a	1	0.422607421875	0.5869140625	0	upper	zerothre.ttf
2731.832	n/a	WORD	1365916	wordpools/wasnorm_wordpool_less_exclusions.txt	LTP273	ltpFR	18	11	0	CLOSET	326	n/a	n/a	0	0.422607421875	0.5869140625	0	upper	zerothre.ttf
2735.696	n/a	WORD	1367848	wordpools/wasnorm_wordpool_less_exclusions.txt	LTP273	ltpFR	18	11	0	SILK	1307	n/a	n/a	0	0.422607421875	0.5869140625	0	upper	zerothre.ttf
2739.526	n/a	WORD	1369763	wordpools/wasnorm_wordpool_less_exclusions.txt	LTP273	ltpFR	18	11	0	ATOM	55	n/a	n/a	0	0.422607421875	0.5869140625	0	upper	zerothre.ttf
2743.526	n/a	WORD	1371763	wordpools/wasnorm_wordpool_less_exclusions.txt	LTP273	ltpFR	18	11	0	SPOON	1357	n/a	n/a	0	0.422607421875	0.5869140625	0	upper	zerothre.ttf
2749.532	n/a	REC_START	1374766	n/a	LTP273	ltpFR	18	11	n/a	n/a	n/a	n/a	n/a	n/a	n/a	n/a	n/a	n/a	n/a
2751.654	n/a	REC_WORD	1375827	wordpools/wasnorm_wordpool_less_exclusions.txt	LTP273	ltpFR	18	11	0	ATOM	55	n/a	n/a	0	n/a	n/a	n/a	n/a	n/a
2752.7	n/a	REC_WORD	1376350	wordpools/wasnorm_wordpool_less_exclusions.txt	LTP273	ltpFR	18	11	0	SPOON	1357	n/a	n/a	0	n/a	n/a	n/a	n/a	n/a
2754.244	n/a	REC_WORD	1377122	wordpools/wasnorm_wordpool_less_exclusions.txt	LTP273	ltpFR	18	11	0	PERISCOPE	1050	n/a	n/a	1	n/a	n/a	n/a	n/a	n/a
2755.64	n/a	REC_WORD	1377820	wordpools/wasnorm_wordpool_less_exclusions.txt	LTP273	ltpFR	18	11	1	PAPER	1011	n/a	n/a	0	n/a	n/a	n/a	n/a	n/a
2988.696	n/a	WORD	1494348	wordpools/wasnorm_wordpool_less_exclusions.txt	LTP273	ltpFR	18	12	1	COLESLAW	344	n/a	n/a	0	0.57763671875	0.412841796875	1	lower	amplitud.ttf
2992.728	n/a	WORD	1496364	wordpools/wasnorm_wordpool_less_exclusions.txt	LTP273	ltpFR	18	12	1	CREVICE	405	n/a	n/a	1	0.57763671875	0.412841796875	1	lower	amplitud.ttf
2996.56	n/a	WORD	1498280	wordpools/wasnorm_wordpool_less_exclusions.txt	LTP273	ltpFR	18	12	1	SCOUT	1252	n/a	n/a	1	0.57763671875	0.412841796875	1	lower	amplitud.ttf
3000.692	n/a	WORD	1500346	wordpools/wasnorm_wordpool_less_exclusions.txt	LTP273	ltpFR	18	12	1	POLITICIAN	1099	n/a	n/a	0	0.57763671875	0.412841796875	1	lower	amplitud.ttf
3004.556	n/a	WORD	1502278	wordpools/wasnorm_wordpool_less_exclusions.txt	LTP273	ltpFR	18	12	1	BOSS	152	n/a	n/a	0	0.57763671875	0.412841796875	1	lower	amplitud.ttf
3008.572	n/a	WORD	1504286	wordpools/wasnorm_wordpool_less_exclusions.txt	LTP273	ltpFR	18	12	1	BANDANNA	80	n/a	n/a	0	0.57763671875	0.412841796875	1	lower	amplitud.ttf
3012.502	n/a	WORD	1506251	wordpools/wasnorm_wordpool_less_exclusions.txt	LTP273	ltpFR	18	12	1	SPIT	1354	n/a	n/a	1	0.57763671875	0.412841796875	1	lower	amplitud.ttf
3016.45	n/a	WORD	1508225	wordpools/wasnorm_wordpool_less_exclusions.txt	LTP273	ltpFR	18	12	1	COLONEL	348	n/a	n/a	0	0.57763671875	0.412841796875	1	lower	amplitud.ttf
3020.518	n/a	WORD	1510259	wordpools/wasnorm_wordpool_less_exclusions.txt	LTP273	ltpFR	18	12	1	GENERAL	630	n/a	n/a	0	0.57763671875	0.412841796875	1	lower	amplitud.ttf
3024.65	n/a	WORD	1512325	wordpools/wasnorm_wordpool_less_exclusions.txt	LTP273	ltpFR	18	12	1	CORPORATION	382	n/a	n/a	0	0.57763671875	0.412841796875	1	lower	amplitud.ttf
3028.632	n/a	WORD	1514316	wordpools/wasnorm_wordpool_less_exclusions.txt	LTP273	ltpFR	18	12	1	STORE	1387	n/a	n/a	0	0.57763671875	0.412841796875	1	lower	amplitud.ttf
3032.514	n/a	WORD	1516257	wordpools/wasnorm_wordpool_less_exclusions.txt	LTP273	ltpFR	18	12	1	SALAD	1224	n/a	n/a	0	0.57763671875	0.412841796875	1	lower	amplitud.ttf
3036.546	n/a	WORD	1518273	wordpools/wasnorm_wordpool_less_exclusions.txt	LTP273	ltpFR	18	12	1	MARKET	871	n/a	n/a	1	0.57763671875	0.412841796875	1	lower	amplitud.ttf
3040.744	n/a	WORD	1520372	wordpools/wasnorm_wordpool_less_exclusions.txt	LTP273	ltpFR	18	12	1	DISC	473	n/a	n/a	0	0.57763671875	0.412841796875	1	lower	amplitud.ttf
3044.726	n/a	WORD	1522363	wordpools/wasnorm_wordpool_less_exclusions.txt	LTP273	ltpFR	18	12	1	ROBOT	1200	n/a	n/a	0	0.57763671875	0.412841796875	1	lower	amplitud.ttf
3048.858	n/a	WORD	1524429	wordpools/wasnorm_wordpool_less_exclusions.txt	LTP273	ltpFR	18	12	1	SALIVA	1226	n/a	n/a	0	0.57763671875	0.412841796875	1	lower	amplitud.ttf
3054.732	n/a	REC_START	1527366	n/a	LTP273	ltpFR	18	12	n/a	n/a	n/a	n/a	n/a	n/a	n/a	n/a	n/a	n/a	n/a
3055.076	n/a	REC_WORD	1527538	wordpools/wasnorm_wordpool_less_exclusions.txt	LTP273	ltpFR	18	12	1	ROBOT	1200	n/a	n/a	0	n/a	n/a	n/a	n/a	n/a
3055.83	n/a	REC_WORD	1527915	wordpools/wasnorm_wordpool_less_exclusions.txt	LTP273	ltpFR	18	12	1	SALIVA	1226	n/a	n/a	0	n/a	n/a	n/a	n/a	n/a
3057.036	n/a	REC_WORD	1528518	wordpools/wasnorm_wordpool_less_exclusions.txt	LTP273	ltpFR	18	12	1	DISC	473	n/a	n/a	0	n/a	n/a	n/a	n/a	n/a
3096.45	n/a	REC_WORD	1548225	wordpools/wasnorm_wordpool_less_exclusions.txt	LTP273	ltpFR	18	12	1	COLESLAW	344	n/a	n/a	0	n/a	n/a	n/a	n/a	n/a
3172.716	n/a	WORD	1586358	wordpools/wasnorm_wordpool_less_exclusions.txt	LTP273	ltpFR	18	13	-1	ENGINE	535	n/a	n/a	-1	1.0	1.0	1	upper	Verdana.ttf
3176.564	n/a	WORD	1588282	wordpools/wasnorm_wordpool_less_exclusions.txt	LTP273	ltpFR	18	13	-1	CAFE	216	n/a	n/a	-1	1.0	1.0	1	upper	Verdana.ttf
3180.494	n/a	WORD	1590247	wordpools/wasnorm_wordpool_less_exclusions.txt	LTP273	ltpFR	18	13	-1	SHORTCAKE	1292	n/a	n/a	-1	1.0	1.0	1	upper	Verdana.ttf
3184.326	n/a	WORD	1592163	wordpools/wasnorm_wordpool_less_exclusions.txt	LTP273	ltpFR	18	13	-1	STOCKING	1383	n/a	n/a	-1	1.0	1.0	1	upper	Verdana.ttf
3188.506	n/a	WORD	1594253	wordpools/wasnorm_wordpool_less_exclusions.txt	LTP273	ltpFR	18	13	-1	OLIVE	975	n/a	n/a	-1	1.0	1.0	1	upper	Verdana.ttf
3192.49	n/a	WORD	1596245	wordpools/wasnorm_wordpool_less_exclusions.txt	LTP273	ltpFR	18	13	-1	YARN	1631	n/a	n/a	-1	1.0	1.0	1	upper	Verdana.ttf
3196.488	n/a	WORD	1598244	wordpools/wasnorm_wordpool_less_exclusions.txt	LTP273	ltpFR	18	13	-1	SHEEP	1278	n/a	n/a	-1	1.0	1.0	1	upper	Verdana.ttf
3200.454	n/a	WORD	1600227	wordpools/wasnorm_wordpool_less_exclusions.txt	LTP273	ltpFR	18	13	-1	PIPE	1073	n/a	n/a	-1	1.0	1.0	1	upper	Verdana.ttf
3204.37	n/a	WORD	1602185	wordpools/wasnorm_wordpool_less_exclusions.txt	LTP273	ltpFR	18	13	-1	CHIMNEY	301	n/a	n/a	-1	1.0	1.0	1	upper	Verdana.ttf
3208.35	n/a	WORD	1604175	wordpools/wasnorm_wordpool_less_exclusions.txt	LTP273	ltpFR	18	13	-1	NOSE	957	n/a	n/a	-1	1.0	1.0	1	upper	Verdana.ttf
3212.316	n/a	WORD	1606158	wordpools/wasnorm_wordpool_less_exclusions.txt	LTP273	ltpFR	18	13	-1	COOKBOOK	373	n/a	n/a	-1	1.0	1.0	1	upper	Verdana.ttf
3216.316	n/a	WORD	1608158	wordpools/wasnorm_wordpool_less_exclusions.txt	LTP273	ltpFR	18	13	-1	PIZZA	1079	n/a	n/a	-1	1.0	1.0	1	upper	Verdana.ttf
3220.328	n/a	WORD	1610164	wordpools/wasnorm_wordpool_less_exclusions.txt	LTP273	ltpFR	18	13	-1	TOOTHBRUSH	1482	n/a	n/a	-1	1.0	1.0	1	upper	Verdana.ttf
3224.278	n/a	WORD	1612139	wordpools/wasnorm_wordpool_less_exclusions.txt	LTP273	ltpFR	18	13	-1	CRUMB	416	n/a	n/a	-1	1.0	1.0	1	upper	Verdana.ttf
3228.378	n/a	WORD	1614189	wordpools/wasnorm_wordpool_less_exclusions.txt	LTP273	ltpFR	18	13	-1	TRAY	1498	n/a	n/a	-1	1.0	1.0	1	upper	Verdana.ttf
3232.36	n/a	WORD	1616180	wordpools/wasnorm_wordpool_less_exclusions.txt	LTP273	ltpFR	18	13	-1	RESTAURANT	1187	n/a	n/a	-1	1.0	1.0	1	upper	Verdana.ttf
3238.3	n/a	REC_START	1619150	n/a	LTP273	ltpFR	18	13	n/a	n/a	n/a	n/a	n/a	n/a	n/a	n/a	n/a	n/a	n/a
3239.436	n/a	REC_WORD	1619718	wordpools/wasnorm_wordpool_less_exclusions.txt	LTP273	ltpFR	18	13	-1	RESTAURANT	1187	n/a	n/a	-1	n/a	n/a	n/a	n/a	n/a
3240.582	n/a	REC_WORD	1620291	wordpools/wasnorm_wordpool_less_exclusions.txt	LTP273	ltpFR	18	13	-1	CHIMNEY	301	n/a	n/a	-1	n/a	n/a	n/a	n/a	n/a
3241.524	n/a	REC_WORD	1620762	wordpools/wasnorm_wordpool_less_exclusions.txt	LTP273	ltpFR	18	13	-1	NOSE	957	n/a	n/a	-1	n/a	n/a	n/a	n/a	n/a
3242.764	n/a	REC_WORD	1621382	wordpools/wasnorm_wordpool_less_exclusions.txt	LTP273	ltpFR	18	13	-1	COOKBOOK	373	n/a	n/a	-1	n/a	n/a	n/a	n/a	n/a
3243.826	n/a	REC_WORD	1621913	wordpools/wasnorm_wordpool_less_exclusions.txt	LTP273	ltpFR	18	13	-1	TRAY	1498	n/a	n/a	-1	n/a	n/a	n/a	n/a	n/a
3264.306	n/a	REC_WORD	1632153	wordpools/wasnorm_wordpool_less_exclusions.txt	LTP273	ltpFR	18	13	-1	ENGINE	535	n/a	n/a	-1	n/a	n/a	n/a	n/a	n/a
3279.264	n/a	REC_WORD	1639632	wordpools/wasnorm_wordpool_less_exclusions.txt	LTP273	ltpFR	18	13	1	STORE	1387	n/a	n/a	0	n/a	n/a	n/a	n/a	n/a
3404.752	n/a	WORD	1702376	wordpools/wasnorm_wordpool_less_exclusions.txt	LTP273	ltpFR	18	14	0	GLACIER	638	n/a	n/a	1	0.422607421875	0.5869140625	0	upper	zerothre.ttf
3408.734	n/a	WORD	1704367	wordpools/wasnorm_wordpool_less_exclusions.txt	LTP273	ltpFR	18	14	0	SHOE	1288	n/a	n/a	0	0.422607421875	0.5869140625	0	upper	zerothre.ttf
3412.682	n/a	WORD	1706341	wordpools/wasnorm_wordpool_less_exclusions.txt	LTP273	ltpFR	18	14	0	WHISKERS	1605	n/a	n/a	0	0.422607421875	0.5869140625	0	upper	zerothre.ttf
3416.598	n/a	WORD	1708299	wordpools/wasnorm_wordpool_less_exclusions.txt	LTP273	ltpFR	18	14	0	BEARD	107	n/a	n/a	0	0.422607421875	0.5869140625	0	upper	zerothre.ttf
3420.444	n/a	WORD	1710222	wordpools/wasnorm_wordpool_less_exclusions.txt	LTP273	ltpFR	18	14	0	TOAST	1471	n/a	n/a	1	0.422607421875	0.5869140625	0	upper	zerothre.ttf
3424.428	n/a	WORD	1712214	wordpools/wasnorm_wordpool_less_exclusions.txt	LTP273	ltpFR	18	14	0	ROAD	1196	n/a	n/a	1	0.422607421875	0.5869140625	0	upper	zerothre.ttf
3428.358	n/a	WORD	1714179	wordpools/wasnorm_wordpool_less_exclusions.txt	LTP273	ltpFR	18	14	0	RAIL	1161	n/a	n/a	0	0.422607421875	0.5869140625	0	upper	zerothre.ttf
3432.524	n/a	WORD	1716262	wordpools/wasnorm_wordpool_less_exclusions.txt	LTP273	ltpFR	18	14	0	TUBA	1515	n/a	n/a	1	0.422607421875	0.5869140625	0	upper	zerothre.ttf
3436.506	n/a	WORD	1718253	wordpools/wasnorm_wordpool_less_exclusions.txt	LTP273	ltpFR	18	14	0	TOE	1473	n/a	n/a	0	0.422607421875	0.5869140625	0	upper	zerothre.ttf
3440.438	n/a	WORD	1720219	wordpools/wasnorm_wordpool_less_exclusions.txt	LTP273	ltpFR	18	14	0	BACON	67	n/a	n/a	0	0.422607421875	0.5869140625	0	upper	zerothre.ttf
3444.336	n/a	WORD	1722168	wordpools/wasnorm_wordpool_less_exclusions.txt	LTP273	ltpFR	18	14	0	JELLY	755	n/a	n/a	1	0.422607421875	0.5869140625	0	upper	zerothre.ttf
3448.334	n/a	WORD	1724167	wordpools/wasnorm_wordpool_less_exclusions.txt	LTP273	ltpFR	18	14	0	GALAXY	617	n/a	n/a	1	0.422607421875	0.5869140625	0	upper	zerothre.ttf
3452.168	n/a	WORD	1726084	wordpools/wasnorm_wordpool_less_exclusions.txt	LTP273	ltpFR	18	14	0	DART	440	n/a	n/a	0	0.422607421875	0.5869140625	0	upper	zerothre.ttf
3455.998	n/a	WORD	1727999	wordpools/wasnorm_wordpool_less_exclusions.txt	LTP273	ltpFR	18	14	0	TOWER	1490	n/a	n/a	1	0.422607421875	0.5869140625	0	upper	zerothre.ttf
3460.03	n/a	WORD	1730015	wordpools/wasnorm_wordpool_less_exclusions.txt	LTP273	ltpFR	18	14	0	BELL	118	n/a	n/a	0	0.422607421875	0.5869140625	0	upper	zerothre.ttf
3464.028	n/a	WORD	1732014	wordpools/wasnorm_wordpool_less_exclusions.txt	LTP273	ltpFR	18	14	0	EARTH	515	n/a	n/a	1	0.422607421875	0.5869140625	0	upper	zerothre.ttf
3469.836	n/a	REC_START	1734918	n/a	LTP273	ltpFR	18	14	n/a	n/a	n/a	n/a	n/a	n/a	n/a	n/a	n/a	n/a	n/a
3474.784	n/a	REC_WORD	1737392	wordpools/wasnorm_wordpool_less_exclusions.txt	LTP273	ltpFR	18	14	0	EARTH	515	n/a	n/a	1	n/a	n/a	n/a	n/a	n/a
3476.108	n/a	REC_WORD	1738054	wordpools/wasnorm_wordpool_less_exclusions.txt	LTP273	ltpFR	18	14	n/a	DIRT	472	n/a	n/a	n/a	n/a	n/a	n/a	n/a	n/a
3478.422	n/a	REC_WORD	1739211	wordpools/wasnorm_wordpool_less_exclusions.txt	LTP273	ltpFR	18	14	0	RAIL	1161	n/a	n/a	0	n/a	n/a	n/a	n/a	n/a
3502.72	n/a	REC_WORD	1751360	wordpools/wasnorm_wordpool_less_exclusions.txt	LTP273	ltpFR	18	14	0	WHISKERS	1605	n/a	n/a	0	n/a	n/a	n/a	n/a	n/a
3629.93	n/a	WORD	1814965	wordpools/wasnorm_wordpool_less_exclusions.txt	LTP273	ltpFR	18	15	-1	FLIPPER	580	n/a	n/a	-1	1.0	1.0	1	upper	Verdana.ttf
3634.078	n/a	WORD	1817039	wordpools/wasnorm_wordpool_less_exclusions.txt	LTP273	ltpFR	18	15	-1	BAKER	71	n/a	n/a	-1	1.0	1.0	1	upper	Verdana.ttf
3638.226	n/a	WORD	1819113	wordpools/wasnorm_wordpool_less_exclusions.txt	LTP273	ltpFR	18	15	-1	SLUG	1329	n/a	n/a	-1	1.0	1.0	1	upper	Verdana.ttf
3642.294	n/a	WORD	1821147	wordpools/wasnorm_wordpool_less_exclusions.txt	LTP273	ltpFR	18	15	-1	DUNGEON	507	n/a	n/a	-1	1.0	1.0	1	upper	Verdana.ttf
3646.292	n/a	WORD	1823146	wordpools/wasnorm_wordpool_less_exclusions.txt	LTP273	ltpFR	18	15	-1	HOUSE	725	n/a	n/a	-1	1.0	1.0	1	upper	Verdana.ttf
3650.206	n/a	WORD	1825103	wordpools/wasnorm_wordpool_less_exclusions.txt	LTP273	ltpFR	18	15	-1	THESAURUS	1454	n/a	n/a	-1	1.0	1.0	1	upper	Verdana.ttf
3654.104	n/a	WORD	1827052	wordpools/wasnorm_wordpool_less_exclusions.txt	LTP273	ltpFR	18	15	-1	CHART	282	n/a	n/a	-1	1.0	1.0	1	upper	Verdana.ttf
3658.204	n/a	WORD	1829102	wordpools/wasnorm_wordpool_less_exclusions.txt	LTP273	ltpFR	18	15	-1	MAGAZINE	853	n/a	n/a	-1	1.0	1.0	1	upper	Verdana.ttf
3662.304	n/a	WORD	1831152	wordpools/wasnorm_wordpool_less_exclusions.txt	LTP273	ltpFR	18	15	-1	SNAIL	1332	n/a	n/a	-1	1.0	1.0	1	upper	Verdana.ttf
3666.502	n/a	WORD	1833251	wordpools/wasnorm_wordpool_less_exclusions.txt	LTP273	ltpFR	18	15	-1	HEDGE	699	n/a	n/a	-1	1.0	1.0	1	upper	Verdana.ttf
3670.668	n/a	WORD	1835334	wordpools/wasnorm_wordpool_less_exclusions.txt	LTP273	ltpFR	18	15	-1	SARDINE	1235	n/a	n/a	-1	1.0	1.0	1	upper	Verdana.ttf
3674.768	n/a	WORD	1837384	wordpools/wasnorm_wordpool_less_exclusions.txt	LTP273	ltpFR	18	15	-1	DICTIONARY	463	n/a	n/a	-1	1.0	1.0	1	upper	Verdana.ttf
3678.95	n/a	WORD	1839475	wordpools/wasnorm_wordpool_less_exclusions.txt	LTP273	ltpFR	18	15	-1	FEATHER	557	n/a	n/a	-1	1.0	1.0	1	upper	Verdana.ttf
3683.166	n/a	WORD	1841583	wordpools/wasnorm_wordpool_less_exclusions.txt	LTP273	ltpFR	18	15	-1	SPARROW	1347	n/a	n/a	-1	1.0	1.0	1	upper	Verdana.ttf
3686.998	n/a	WORD	1843499	wordpools/wasnorm_wordpool_less_exclusions.txt	LTP273	ltpFR	18	15	-1	TOMATO	1476	n/a	n/a	-1	1.0	1.0	1	upper	Verdana.ttf
3690.928	n/a	WORD	1845464	wordpools/wasnorm_wordpool_less_exclusions.txt	LTP273	ltpFR	18	15	-1	MAYONNAISE	880	n/a	n/a	-1	1.0	1.0	1	upper	Verdana.ttf
3696.87	n/a	REC_START	1848435	n/a	LTP273	ltpFR	18	15	n/a	n/a	n/a	n/a	n/a	n/a	n/a	n/a	n/a	n/a	n/a
3697.954	n/a	REC_WORD	1848977	wordpools/wasnorm_wordpool_less_exclusions.txt	LTP273	ltpFR	18	15	-1	MAYONNAISE	880	n/a	n/a	-1	n/a	n/a	n/a	n/a	n/a
3698.85	n/a	REC_WORD	1849425	wordpools/wasnorm_wordpool_less_exclusions.txt	LTP273	ltpFR	18	15	-1	SPARROW	1347	n/a	n/a	-1	n/a	n/a	n/a	n/a	n/a
3700.036	n/a	REC_WORD_VV	1850018	wordpools/wasnorm_wordpool_less_exclusions.txt	LTP273	ltpFR	18	15	n/a	<>	-1	n/a	n/a	n/a	n/a	n/a	n/a	n/a	n/a
3705.07	n/a	REC_WORD	1852535	wordpools/wasnorm_wordpool_less_exclusions.txt	LTP273	ltpFR	18	15	-1	FLIPPER	580	n/a	n/a	-1	n/a	n/a	n/a	n/a	n/a
3707.006	n/a	REC_WORD	1853503	wordpools/wasnorm_wordpool_less_exclusions.txt	LTP273	ltpFR	18	15	-1	BAKER	71	n/a	n/a	-1	n/a	n/a	n/a	n/a	n/a
3748.854	n/a	REC_WORD	1874427	wordpools/wasnorm_wordpool_less_exclusions.txt	LTP273	ltpFR	18	15	-1	DUNGEON	507	n/a	n/a	-1	n/a	n/a	n/a	n/a	n/a
3838.76	n/a	WORD	1919380	wordpools/wasnorm_wordpool_less_exclusions.txt	LTP273	ltpFR	18	16	0	PAVEMENT	1028	n/a	n/a	1	0.422607421875	0.5869140625	0	upper	zerothre.ttf
3842.76	n/a	WORD	1921380	wordpools/wasnorm_wordpool_less_exclusions.txt	LTP273	ltpFR	18	16	0	VACUUM	1543	n/a	n/a	1	0.422607421875	0.5869140625	0	upper	zerothre.ttf
3846.942	n/a	WORD	1923471	wordpools/wasnorm_wordpool_less_exclusions.txt	LTP273	ltpFR	18	16	0	TOWEL	1489	n/a	n/a	0	0.422607421875	0.5869140625	0	upper	zerothre.ttf
3850.974	n/a	WORD	1925487	wordpools/wasnorm_wordpool_less_exclusions.txt	LTP273	ltpFR	18	16	0	ONION	977	n/a	n/a	0	0.422607421875	0.5869140625	0	upper	zerothre.ttf
3854.872	n/a	WORD	1927436	wordpools/wasnorm_wordpool_less_exclusions.txt	LTP273	ltpFR	18	16	0	PORCUPINE	1107	n/a	n/a	1	0.422607421875	0.5869140625	0	upper	zerothre.ttf
3858.752	n/a	WORD	1929376	wordpools/wasnorm_wordpool_less_exclusions.txt	LTP273	ltpFR	18	16	1	PIGEON	1065	n/a	n/a	0	0.57763671875	0.412841796875	1	lower	amplitud.ttf
3862.836	n/a	WORD	1931418	wordpools/wasnorm_wordpool_less_exclusions.txt	LTP273	ltpFR	18	16	1	ROBIN	1199	n/a	n/a	1	0.57763671875	0.412841796875	1	lower	amplitud.ttf
3867.02	n/a	WORD	1933510	wordpools/wasnorm_wordpool_less_exclusions.txt	LTP273	ltpFR	18	16	1	MESSAGE	888	n/a	n/a	1	0.57763671875	0.412841796875	1	lower	amplitud.ttf
3871.102	n/a	WORD	1935551	wordpools/wasnorm_wordpool_less_exclusions.txt	LTP273	ltpFR	18	16	1	BULL	193	n/a	n/a	0	0.57763671875	0.412841796875	1	lower	amplitud.ttf
3875.25	n/a	WORD	1937625	wordpools/wasnorm_wordpool_less_exclusions.txt	LTP273	ltpFR	18	16	1	CAFETERIA	217	n/a	n/a	0	0.57763671875	0.412841796875	1	lower	amplitud.ttf
3879.232	n/a	WORD	1939616	wordpools/wasnorm_wordpool_less_exclusions.txt	LTP273	ltpFR	18	16	1	COP	376	n/a	n/a	1	0.57763671875	0.412841796875	1	lower	amplitud.ttf
3883.346	n/a	WORD	1941673	wordpools/wasnorm_wordpool_less_exclusions.txt	LTP273	ltpFR	18	16	0	HERD	705	n/a	n/a	1	0.422607421875	0.5869140625	0	upper	zerothre.ttf
3887.28	n/a	WORD	1943640	wordpools/wasnorm_wordpool_less_exclusions.txt	LTP273	ltpFR	18	16	0	PERFUME	1049	n/a	n/a	0	0.422607421875	0.5869140625	0	upper	zerothre.ttf
3891.126	n/a	WORD	1945563	wordpools/wasnorm_wordpool_less_exclusions.txt	LTP273	ltpFR	18	16	0	GROUND	666	n/a	n/a	0	0.422607421875	0.5869140625	0	upper	zerothre.ttf
3895.024	n/a	WORD	1947512	wordpools/wasnorm_wordpool_less_exclusions.txt	LTP273	ltpFR	18	16	1	BLADE	134	n/a	n/a	0	0.57763671875	0.412841796875	1	lower	amplitud.ttf
3898.888	n/a	WORD	1949444	wordpools/wasnorm_wordpool_less_exclusions.txt	LTP273	ltpFR	18	16	1	MOWER	928	n/a	n/a	0	0.57763671875	0.412841796875	1	lower	amplitud.ttf
3904.796	n/a	REC_START	1952398	n/a	LTP273	ltpFR	18	16	n/a	n/a	n/a	n/a	n/a	n/a	n/a	n/a	n/a	n/a	n/a
3907.682	n/a	REC_WORD	1953841	wordpools/wasnorm_wordpool_less_exclusions.txt	LTP273	ltpFR	18	16	n/a	MOLAR	-1	n/a	n/a	n/a	n/a	n/a	n/a	n/a	n/a
4470.928	n/a	REC_START	2235464	n/a	LTP273	ltpFR	18	1	n/a	n/a	n/a	n/a	n/a	n/a	n/a	n/a	n/a	n/a	n/a
4470.994	n/a	RECOG_TARGET	2235497	n/a	LTP273	ltpFR	18	1	-1	SHORTCAKE	1292	1	2	-1	n/a	n/a	n/a	n/a	n/a
4472.532	n/a	RECOG_RESP	2236266	n/a	LTP273	ltpFR	18	1	-1	SHORTCAKE	1292	1	n/a	-1	n/a	n/a	n/a	n/a	n/a
4473.198	n/a	RECOG_CONF	2236599	n/a	LTP273	ltpFR	18	1	-1	SHORTCAKE	1292	n/a	2	-1	n/a	n/a	n/a	n/a	n/a
4474.89	n/a	RECOG_TARGET	2237445	n/a	LTP273	ltpFR	18	1	1	CAFETERIA	217	1	1	0	n/a	n/a	n/a	n/a	n/a
4475.284	n/a	RECOG_RESP	2237642	n/a	LTP273	ltpFR	18	1	1	CAFETERIA	217	1	n/a	0	n/a	n/a	n/a	n/a	n/a
4475.838	n/a	RECOG_CONF	2237919	n/a	LTP273	ltpFR	18	1	1	CAFETERIA	217	n/a	1	0	n/a	n/a	n/a	n/a	n/a
4477.5	n/a	RECOG_TARGET	2238750	n/a	LTP273	ltpFR	18	1	1	RAZOR	1171	1	4	0	n/a	n/a	n/a	n/a	n/a
4477.904	n/a	RECOG_RESP	2238952	n/a	LTP273	ltpFR	18	1	1	RAZOR	1171	1	n/a	0	n/a	n/a	n/a	n/a	n/a
4478.508	n/a	RECOG_CONF	2239254	n/a	LTP273	ltpFR	18	1	1	RAZOR	1171	n/a	4	0	n/a	n/a	n/a	n/a	n/a
4479.994	n/a	RECOG_TARGET	2239997	n/a	LTP273	ltpFR	18	1	-1	STOCKING	1383	1	2	-1	n/a	n/a	n/a	n/a	n/a
4481.028	n/a	RECOG_RESP	2240514	n/a	LTP273	ltpFR	18	1	-1	STOCKING	1383	1	n/a	-1	n/a	n/a	n/a	n/a	n/a
4481.438	n/a	RECOG_CONF	2240719	n/a	LTP273	ltpFR	18	1	-1	STOCKING	1383	n/a	2	-1	n/a	n/a	n/a	n/a	n/a
4483.072	n/a	RECOG_TARGET	2241536	n/a	LTP273	ltpFR	18	1	1	SHRUB	1299	1	5	1	n/a	n/a	n/a	n/a	n/a
4483.704	n/a	RECOG_RESP	2241852	n/a	LTP273	ltpFR	18	1	1	SHRUB	1299	1	n/a	1	n/a	n/a	n/a	n/a	n/a
4484.088	n/a	RECOG_CONF	2242044	n/a	LTP273	ltpFR	18	1	1	SHRUB	1299	n/a	5	1	n/a	n/a	n/a	n/a	n/a
4485.716	n/a	RECOG_TARGET	2242858	n/a	LTP273	ltpFR	18	1	0	BREAST	171	1	5	1	n/a	n/a	n/a	n/a	n/a
4486.234	n/a	RECOG_RESP	2243117	n/a	LTP273	ltpFR	18	1	0	BREAST	171	1	n/a	1	n/a	n/a	n/a	n/a	n/a
4486.628	n/a	RECOG_CONF	2243314	n/a	LTP273	ltpFR	18	1	0	BREAST	171	n/a	5	1	n/a	n/a	n/a	n/a	n/a
4488.376	n/a	RECOG_TARGET	2244188	n/a	LTP273	ltpFR	18	1	0	DECK	443	1	3	0	n/a	n/a	n/a	n/a	n/a
4488.854	n/a	RECOG_RESP	2244427	n/a	LTP273	ltpFR	18	1	0	DECK	443	1	n/a	0	n/a	n/a	n/a	n/a	n/a
4489.358	n/a	RECOG_CONF	2244679	n/a	LTP273	ltpFR	18	1	0	DECK	443	n/a	3	0	n/a	n/a	n/a	n/a	n/a
4490.95	n/a	RECOG_LURE	2245475	n/a	LTP273	ltpFR	18	1	n/a	RAT	1169	0	2	n/a	n/a	n/a	n/a	n/a	n/a
4491.6	n/a	RECOG_RESP	2245800	n/a	LTP273	ltpFR	18	1	n/a	RAT	1169	0	n/a	n/a	n/a	n/a	n/a	n/a	n/a
4492.078	n/a	RECOG_CONF	2246039	n/a	LTP273	ltpFR	18	1	n/a	RAT	1169	n/a	2	n/a	n/a	n/a	n/a	n/a	n/a
4493.496	n/a	RECOG_TARGET	2246748	n/a	LTP273	ltpFR	18	1	1	ARM	38	1	4	0	n/a	n/a	n/a	n/a	n/a
4494.078	n/a	RECOG_RESP	2247039	n/a	LTP273	ltpFR	18	1	1	ARM	38	1	n/a	0	n/a	n/a	n/a	n/a	n/a
4494.47	n/a	RECOG_CONF	2247235	n/a	LTP273	ltpFR	18	1	1	ARM	38	n/a	4	0	n/a	n/a	n/a	n/a	n/a
4496.022	n/a	RECOG_TARGET	2248011	n/a	LTP273	ltpFR	18	1	1	MESSAGE	888	1	2	1	n/a	n/a	n/a	n/a	n/a
4496.534	n/a	RECOG_RESP	2248267	n/a	LTP273	ltpFR	18	1	1	MESSAGE	888	1	n/a	1	n/a	n/a	n/a	n/a	n/a
4497.13	n/a	RECOG_CONF	2248565	n/a	LTP273	ltpFR	18	1	1	MESSAGE	888	n/a	2	1	n/a	n/a	n/a	n/a	n/a
4498.564	n/a	RECOG_LURE	2249282	n/a	LTP273	ltpFR	18	1	n/a	CLOWN	330	1	1	n/a	n/a	n/a	n/a	n/a	n/a
4498.944	n/a	RECOG_RESP	2249472	n/a	LTP273	ltpFR	18	1	n/a	CLOWN	330	1	n/a	n/a	n/a	n/a	n/a	n/a	n/a
4499.5	n/a	RECOG_CONF	2249750	n/a	LTP273	ltpFR	18	1	n/a	CLOWN	330	n/a	1	n/a	n/a	n/a	n/a	n/a	n/a
4501.04	n/a	RECOG_LURE	2250520	n/a	LTP273	ltpFR	18	1	n/a	CANYON	235	0	3	n/a	n/a	n/a	n/a	n/a	n/a
4501.744	n/a	RECOG_RESP	2250872	n/a	LTP273	ltpFR	18	1	n/a	CANYON	235	0	n/a	n/a	n/a	n/a	n/a	n/a	n/a
4502.18	n/a	RECOG_CONF	2251090	n/a	LTP273	ltpFR	18	1	n/a	CANYON	235	n/a	3	n/a	n/a	n/a	n/a	n/a	n/a
4503.634	n/a	RECOG_LURE	2251817	n/a	LTP273	ltpFR	18	1	n/a	DINER	467	1	2	n/a	n/a	n/a	n/a	n/a	n/a
4504.194	n/a	RECOG_RESP	2252097	n/a	LTP273	ltpFR	18	1	n/a	DINER	467	1	n/a	n/a	n/a	n/a	n/a	n/a	n/a
4504.66	n/a	RECOG_CONF	2252330	n/a	LTP273	ltpFR	18	1	n/a	DINER	467	n/a	2	n/a	n/a	n/a	n/a	n/a	n/a
4506.194	n/a	RECOG_TARGET	2253097	n/a	LTP273	ltpFR	18	1	0	GIRAFFE	636	1	5	1	n/a	n/a	n/a	n/a	n/a
4506.89	n/a	RECOG_RESP	2253445	n/a	LTP273	ltpFR	18	1	0	GIRAFFE	636	1	n/a	1	n/a	n/a	n/a	n/a	n/a
4507.26	n/a	RECOG_CONF	2253630	n/a	LTP273	ltpFR	18	1	0	GIRAFFE	636	n/a	5	1	n/a	n/a	n/a	n/a	n/a
4508.972	n/a	RECOG_TARGET	2254486	n/a	LTP273	ltpFR	18	1	0	BED	110	1	1	0	n/a	n/a	n/a	n/a	n/a
4510.78	n/a	RECOG_RESP	2255390	n/a	LTP273	ltpFR	18	1	0	BED	110	1	n/a	0	n/a	n/a	n/a	n/a	n/a
4512.11	n/a	RECOG_CONF	2256055	n/a	LTP273	ltpFR	18	1	0	BED	110	n/a	1	0	n/a	n/a	n/a	n/a	n/a
4513.774	n/a	RECOG_TARGET	2256887	n/a	LTP273	ltpFR	18	1	0	CUFF	423	1	3	0	n/a	n/a	n/a	n/a	n/a
4514.35	n/a	RECOG_RESP	2257175	n/a	LTP273	ltpFR	18	1	0	CUFF	423	1	n/a	0	n/a	n/a	n/a	n/a	n/a
4514.82	n/a	RECOG_CONF	2257410	n/a	LTP273	ltpFR	18	1	0	CUFF	423	n/a	3	0	n/a	n/a	n/a	n/a	n/a
4516.35	n/a	RECOG_TARGET	2258175	n/a	LTP273	ltpFR	18	1	-1	PEACH	1031	1	4	-1	n/a	n/a	n/a	n/a	n/a
4516.876	n/a	RECOG_RESP	2258438	n/a	LTP273	ltpFR	18	1	-1	PEACH	1031	1	n/a	-1	n/a	n/a	n/a	n/a	n/a
4517.31	n/a	RECOG_CONF	2258655	n/a	LTP273	ltpFR	18	1	-1	PEACH	1031	n/a	4	-1	n/a	n/a	n/a	n/a	n/a
4518.876	n/a	RECOG_TARGET	2259438	n/a	LTP273	ltpFR	18	1	-1	SEAFOOD	1260	1	2	-1	n/a	n/a	n/a	n/a	n/a
4519.216	n/a	RECOG_RESP	2259608	n/a	LTP273	ltpFR	18	1	-1	SEAFOOD	1260	1	n/a	-1	n/a	n/a	n/a	n/a	n/a
4519.61	n/a	RECOG_CONF	2259805	n/a	LTP273	ltpFR	18	1	-1	SEAFOOD	1260	n/a	2	-1	n/a	n/a	n/a	n/a	n/a
4521.202	n/a	RECOG_TARGET	2260601	n/a	LTP273	ltpFR	18	1	1	FISH	571	1	4	1	n/a	n/a	n/a	n/a	n/a
4521.72	n/a	RECOG_RESP	2260860	n/a	LTP273	ltpFR	18	1	1	FISH	571	1	n/a	1	n/a	n/a	n/a	n/a	n/a
4522.17	n/a	RECOG_CONF	2261085	n/a	LTP273	ltpFR	18	1	1	FISH	571	n/a	4	1	n/a	n/a	n/a	n/a	n/a
4523.762	n/a	RECOG_TARGET	2261881	n/a	LTP273	ltpFR	18	1	0	NERVE	944	1	3	0	n/a	n/a	n/a	n/a	n/a
4524.216	n/a	RECOG_RESP	2262108	n/a	LTP273	ltpFR	18	1	0	NERVE	944	1	n/a	0	n/a	n/a	n/a	n/a	n/a
4524.64	n/a	RECOG_CONF	2262320	n/a	LTP273	ltpFR	18	1	0	NERVE	944	n/a	3	0	n/a	n/a	n/a	n/a	n/a
4551.978	n/a	REC_START	2275989	n/a	LTP273	ltpFR	18	2	n/a	n/a	n/a	n/a	n/a	n/a	n/a	n/a	n/a	n/a	n/a
4552.02	n/a	RECOG_TARGET	2276010	n/a	LTP273	ltpFR	18	2	1	BEETLE	116	1	1	0	n/a	n/a	n/a	n/a	n/a
4554.112	n/a	RECOG_RESP	2277056	n/a	LTP273	ltpFR	18	2	1	BEETLE	116	1	n/a	0	n/a	n/a	n/a	n/a	n/a
4554.528	n/a	RECOG_CONF	2277264	n/a	LTP273	ltpFR	18	2	1	BEETLE	116	n/a	1	0	n/a	n/a	n/a	n/a	n/a
4556.186	n/a	RECOG_TARGET	2278093	n/a	LTP273	ltpFR	18	2	1	DOLPHIN	483	1	3	1	n/a	n/a	n/a	n/a	n/a
4558.078	n/a	RECOG_RESP	2279039	n/a	LTP273	ltpFR	18	2	1	DOLPHIN	483	1	n/a	1	n/a	n/a	n/a	n/a	n/a
4558.558	n/a	RECOG_CONF	2279279	n/a	LTP273	ltpFR	18	2	1	DOLPHIN	483	n/a	3	1	n/a	n/a	n/a	n/a	n/a
4560.05	n/a	RECOG_LURE	2280025	n/a	LTP273	ltpFR	18	2	n/a	CHEEK	287	0	2	n/a	n/a	n/a	n/a	n/a	n/a
4564.642	n/a	RECOG_RESP	2282321	n/a	LTP273	ltpFR	18	2	n/a	CHEEK	287	0	n/a	n/a	n/a	n/a	n/a	n/a	n/a
4565.098	n/a	RECOG_CONF	2282549	n/a	LTP273	ltpFR	18	2	n/a	CHEEK	287	n/a	2	n/a	n/a	n/a	n/a	n/a	n/a
4566.708	n/a	RECOG_LURE	2283354	n/a	LTP273	ltpFR	18	2	n/a	TAG	1429	1	1	n/a	n/a	n/a	n/a	n/a	n/a
4567.402	n/a	RECOG_RESP	2283701	n/a	LTP273	ltpFR	18	2	n/a	TAG	1429	1	n/a	n/a	n/a	n/a	n/a	n/a	n/a
4567.778	n/a	RECOG_CONF	2283889	n/a	LTP273	ltpFR	18	2	n/a	TAG	1429	n/a	1	n/a	n/a	n/a	n/a	n/a	n/a
4569.62	n/a	RECOG_TARGET	2284810	n/a	LTP273	ltpFR	18	2	-1	SPARROW	1347	1	3	-1	n/a	n/a	n/a	n/a	n/a
4570.444	n/a	RECOG_RESP	2285222	n/a	LTP273	ltpFR	18	2	-1	SPARROW	1347	1	n/a	-1	n/a	n/a	n/a	n/a	n/a
4570.908	n/a	RECOG_CONF	2285454	n/a	LTP273	ltpFR	18	2	-1	SPARROW	1347	n/a	3	-1	n/a	n/a	n/a	n/a	n/a
4572.414	n/a	RECOG_TARGET	2286207	n/a	LTP273	ltpFR	18	2	1	ALBUM	14	1	2	0	n/a	n/a	n/a	n/a	n/a
4572.878	n/a	RECOG_RESP	2286439	n/a	LTP273	ltpFR	18	2	1	ALBUM	14	1	n/a	0	n/a	n/a	n/a	n/a	n/a
4573.268	n/a	RECOG_CONF	2286634	n/a	LTP273	ltpFR	18	2	1	ALBUM	14	n/a	2	0	n/a	n/a	n/a	n/a	n/a
4574.824	n/a	RECOG_TARGET	2287412	n/a	LTP273	ltpFR	18	2	1	LIVER	833	1	3	0	n/a	n/a	n/a	n/a	n/a
4575.374	n/a	RECOG_RESP	2287687	n/a	LTP273	ltpFR	18	2	1	LIVER	833	1	n/a	0	n/a	n/a	n/a	n/a	n/a
4575.948	n/a	RECOG_CONF	2287974	n/a	LTP273	ltpFR	18	2	1	LIVER	833	n/a	3	0	n/a	n/a	n/a	n/a	n/a
4577.466	n/a	RECOG_TARGET	2288733	n/a	LTP273	ltpFR	18	2	0	VACUUM	1543	1	4	1	n/a	n/a	n/a	n/a	n/a
4577.868	n/a	RECOG_RESP	2288934	n/a	LTP273	ltpFR	18	2	0	VACUUM	1543	1	n/a	1	n/a	n/a	n/a	n/a	n/a
4578.328	n/a	RECOG_CONF	2289164	n/a	LTP273	ltpFR	18	2	0	VACUUM	1543	n/a	4	1	n/a	n/a	n/a	n/a	n/a
4579.86	n/a	RECOG_LURE	2289930	n/a	LTP273	ltpFR	18	2	n/a	THERMOMETER	1453	0	5	n/a	n/a	n/a	n/a	n/a	n/a
4580.578	n/a	RECOG_RESP	2290289	n/a	LTP273	ltpFR	18	2	n/a	THERMOMETER	1453	0	n/a	n/a	n/a	n/a	n/a	n/a	n/a
4580.978	n/a	RECOG_CONF	2290489	n/a	LTP273	ltpFR	18	2	n/a	THERMOMETER	1453	n/a	5	n/a	n/a	n/a	n/a	n/a	n/a
4582.602	n/a	RECOG_LURE	2291301	n/a	LTP273	ltpFR	18	2	n/a	TECHNICIAN	1443	1	1	n/a	n/a	n/a	n/a	n/a	n/a
4583.088	n/a	RECOG_RESP	2291544	n/a	LTP273	ltpFR	18	2	n/a	TECHNICIAN	1443	1	n/a	n/a	n/a	n/a	n/a	n/a	n/a
4583.458	n/a	RECOG_CONF	2291729	n/a	LTP273	ltpFR	18	2	n/a	TECHNICIAN	1443	n/a	1	n/a	n/a	n/a	n/a	n/a	n/a
4585.196	n/a	RECOG_TARGET	2292598	n/a	LTP273	ltpFR	18	2	1	POLITICIAN	1099	0	2	0	n/a	n/a	n/a	n/a	n/a
4586.384	n/a	RECOG_RESP	2293192	n/a	LTP273	ltpFR	18	2	1	POLITICIAN	1099	0	n/a	0	n/a	n/a	n/a	n/a	n/a
4586.838	n/a	RECOG_CONF	2293419	n/a	LTP273	ltpFR	18	2	1	POLITICIAN	1099	n/a	2	0	n/a	n/a	n/a	n/a	n/a
4588.342	n/a	RECOG_TARGET	2294171	n/a	LTP273	ltpFR	18	2	-1	DUNGEON	507	1	4	-1	n/a	n/a	n/a	n/a	n/a
4588.918	n/a	RECOG_RESP	2294459	n/a	LTP273	ltpFR	18	2	-1	DUNGEON	507	1	n/a	-1	n/a	n/a	n/a	n/a	n/a
4589.29	n/a	RECOG_CONF	2294645	n/a	LTP273	ltpFR	18	2	-1	DUNGEON	507	n/a	4	-1	n/a	n/a	n/a	n/a	n/a
4590.768	n/a	RECOG_TARGET	2295384	n/a	LTP273	ltpFR	18	2	0	RAIL	1161	1	5	0	n/a	n/a	n/a	n/a	n/a
4591.25	n/a	RECOG_RESP	2295625	n/a	LTP273	ltpFR	18	2	0	RAIL	1161	1	n/a	0	n/a	n/a	n/a	n/a	n/a
4591.61	n/a	RECOG_CONF	2295805	n/a	LTP273	ltpFR	18	2	0	RAIL	1161	n/a	5	0	n/a	n/a	n/a	n/a	n/a
4593.126	n/a	RECOG_LURE	2296563	n/a	LTP273	ltpFR	18	2	n/a	WAIST	1579	1	3	n/a	n/a	n/a	n/a	n/a	n/a
4593.554	n/a	RECOG_RESP	2296777	n/a	LTP273	ltpFR	18	2	n/a	WAIST	1579	1	n/a	n/a	n/a	n/a	n/a	n/a	n/a
4593.94	n/a	RECOG_CONF	2296970	n/a	LTP273	ltpFR	18	2	n/a	WAIST	1579	n/a	3	n/a	n/a	n/a	n/a	n/a	n/a
4595.536	n/a	RECOG_TARGET	2297768	n/a	LTP273	ltpFR	18	2	0	HANGER	687	1	4	0	n/a	n/a	n/a	n/a	n/a
4596.12	n/a	RECOG_RESP	2298060	n/a	LTP273	ltpFR	18	2	0	HANGER	687	1	n/a	0	n/a	n/a	n/a	n/a	n/a
4596.47	n/a	RECOG_CONF	2298235	n/a	LTP273	ltpFR	18	2	0	HANGER	687	n/a	4	0	n/a	n/a	n/a	n/a	n/a
4598.012	n/a	RECOG_TARGET	2299006	n/a	LTP273	ltpFR	18	2	-1	HEDGE	699	1	2	-1	n/a	n/a	n/a	n/a	n/a
4598.504	n/a	RECOG_RESP	2299252	n/a	LTP273	ltpFR	18	2	-1	HEDGE	699	1	n/a	-1	n/a	n/a	n/a	n/a	n/a
4598.89	n/a	RECOG_CONF	2299445	n/a	LTP273	ltpFR	18	2	-1	HEDGE	699	n/a	2	-1	n/a	n/a	n/a	n/a	n/a
4600.404	n/a	RECOG_TARGET	2300202	n/a	LTP273	ltpFR	18	2	0	PAVEMENT	1028	1	3	1	n/a	n/a	n/a	n/a	n/a
4601.014	n/a	RECOG_RESP	2300507	n/a	LTP273	ltpFR	18	2	0	PAVEMENT	1028	1	n/a	1	n/a	n/a	n/a	n/a	n/a
4601.42	n/a	RECOG_CONF	2300710	n/a	LTP273	ltpFR	18	2	0	PAVEMENT	1028	n/a	3	1	n/a	n/a	n/a	n/a	n/a
4603.048	n/a	RECOG_TARGET	2301524	n/a	LTP273	ltpFR	18	2	1	SEAT	1264	1	1	0	n/a	n/a	n/a	n/a	n/a
4603.564	n/a	RECOG_RESP	2301782	n/a	LTP273	ltpFR	18	2	1	SEAT	1264	1	n/a	0	n/a	n/a	n/a	n/a	n/a
4603.99	n/a	RECOG_CONF	2301995	n/a	LTP273	ltpFR	18	2	1	SEAT	1264	n/a	1	0	n/a	n/a	n/a	n/a	n/a
4605.49	n/a	RECOG_TARGET	2302745	n/a	LTP273	ltpFR	18	2	-1	DICTIONARY	463	0	2	-1	n/a	n/a	n/a	n/a	n/a
4606.22	n/a	RECOG_RESP	2303110	n/a	LTP273	ltpFR	18	2	-1	DICTIONARY	463	0	n/a	-1	n/a	n/a	n/a	n/a	n/a
4606.53	n/a	RECOG_CONF	2303265	n/a	LTP273	ltpFR	18	2	-1	DICTIONARY	463	n/a	2	-1	n/a	n/a	n/a	n/a	n/a
4608.15	n/a	RECOG_TARGET	2304075	n/a	LTP273	ltpFR	18	2	0	ROAD	1196	1	1	1	n/a	n/a	n/a	n/a	n/a
4608.646	n/a	RECOG_RESP	2304323	n/a	LTP273	ltpFR	18	2	0	ROAD	1196	1	n/a	1	n/a	n/a	n/a	n/a	n/a
4609.05	n/a	RECOG_CONF	2304525	n/a	LTP273	ltpFR	18	2	0	ROAD	1196	n/a	1	1	n/a	n/a	n/a	n/a	n/a
4612.434	n/a	REC_START	2306217	n/a	LTP273	ltpFR	18	3	n/a	n/a	n/a	n/a	n/a	n/a	n/a	n/a	n/a	n/a	n/a
4612.484	n/a	RECOG_TARGET	2306242	n/a	LTP273	ltpFR	18	3	1	LITTER	832	1	3	0	n/a	n/a	n/a	n/a	n/a
4613.214	n/a	RECOG_RESP	2306607	n/a	LTP273	ltpFR	18	3	1	LITTER	832	1	n/a	0	n/a	n/a	n/a	n/a	n/a
4613.664	n/a	RECOG_CONF	2306832	n/a	LTP273	ltpFR	18	3	1	LITTER	832	n/a	3	0	n/a	n/a	n/a	n/a	n/a
4615.176	n/a	RECOG_TARGET	2307588	n/a	LTP273	ltpFR	18	3	-1	CHIMNEY	301	1	4	-1	n/a	n/a	n/a	n/a	n/a
4615.734	n/a	RECOG_RESP	2307867	n/a	LTP273	ltpFR	18	3	-1	CHIMNEY	301	1	n/a	-1	n/a	n/a	n/a	n/a	n/a
4616.094	n/a	RECOG_CONF	2308047	n/a	LTP273	ltpFR	18	3	-1	CHIMNEY	301	n/a	4	-1	n/a	n/a	n/a	n/a	n/a
4617.636	n/a	RECOG_TARGET	2308818	n/a	LTP273	ltpFR	18	3	-1	CYCLONE	431	0	4	-1	n/a	n/a	n/a	n/a	n/a
4618.268	n/a	RECOG_RESP	2309134	n/a	LTP273	ltpFR	18	3	-1	CYCLONE	431	0	n/a	-1	n/a	n/a	n/a	n/a	n/a
4618.564	n/a	RECOG_CONF	2309282	n/a	LTP273	ltpFR	18	3	-1	CYCLONE	431	n/a	4	-1	n/a	n/a	n/a	n/a	n/a
4620.112	n/a	RECOG_TARGET	2310056	n/a	LTP273	ltpFR	18	3	-1	APARTMENT	30	1	1	-1	n/a	n/a	n/a	n/a	n/a
4620.658	n/a	RECOG_RESP	2310329	n/a	LTP273	ltpFR	18	3	-1	APARTMENT	30	1	n/a	-1	n/a	n/a	n/a	n/a	n/a
4620.994	n/a	RECOG_CONF	2310497	n/a	LTP273	ltpFR	18	3	-1	APARTMENT	30	n/a	1	-1	n/a	n/a	n/a	n/a	n/a
4622.588	n/a	RECOG_TARGET	2311294	n/a	LTP273	ltpFR	18	3	0	CLOSET	326	1	2	0	n/a	n/a	n/a	n/a	n/a
4623.154	n/a	RECOG_RESP	2311577	n/a	LTP273	ltpFR	18	3	0	CLOSET	326	1	n/a	0	n/a	n/a	n/a	n/a	n/a
4623.554	n/a	RECOG_CONF	2311777	n/a	LTP273	ltpFR	18	3	0	CLOSET	326	n/a	2	0	n/a	n/a	n/a	n/a	n/a
4625.216	n/a	RECOG_TARGET	2312608	n/a	LTP273	ltpFR	18	3	1	FORK	594	0	3	0	n/a	n/a	n/a	n/a	n/a
4625.784	n/a	RECOG_RESP	2312892	n/a	LTP273	ltpFR	18	3	1	FORK	594	0	n/a	0	n/a	n/a	n/a	n/a	n/a
4626.264	n/a	RECOG_RESP_VV	2313132	n/a	LTP273	ltpFR	18	3	1	FORK	594	n/a	3	0	n/a	n/a	n/a	n/a	n/a
4627.114	n/a	RECOG_CONF	2313557	n/a	LTP273	ltpFR	18	3	1	FORK	594	n/a	3	0	n/a	n/a	n/a	n/a	n/a
4628.714	n/a	RECOG_TARGET	2314357	n/a	LTP273	ltpFR	18	3	0	SWATTER	1418	0	2	0	n/a	n/a	n/a	n/a	n/a
4631.304	n/a	RECOG_RESP	2315652	n/a	LTP273	ltpFR	18	3	0	SWATTER	1418	0	n/a	0	n/a	n/a	n/a	n/a	n/a
4631.784	n/a	RECOG_CONF	2315892	n/a	LTP273	ltpFR	18	3	0	SWATTER	1418	n/a	2	0	n/a	n/a	n/a	n/a	n/a
4633.514	n/a	RECOG_TARGET	2316757	n/a	LTP273	ltpFR	18	3	1	ROBIN	1199	1	1	1	n/a	n/a	n/a	n/a	n/a
4634.164	n/a	RECOG_RESP	2317082	n/a	LTP273	ltpFR	18	3	1	ROBIN	1199	1	n/a	1	n/a	n/a	n/a	n/a	n/a
4634.514	n/a	RECOG_CONF	2317257	n/a	LTP273	ltpFR	18	3	1	ROBIN	1199	n/a	1	1	n/a	n/a	n/a	n/a	n/a
4636.158	n/a	RECOG_LURE	2318079	n/a	LTP273	ltpFR	18	3	n/a	RASPBERRY	1168	0	2	n/a	n/a	n/a	n/a	n/a	n/a
4637.444	n/a	RECOG_RESP	2318722	n/a	LTP273	ltpFR	18	3	n/a	RASPBERRY	1168	0	n/a	n/a	n/a	n/a	n/a	n/a	n/a
4638.704	n/a	RECOG_CONF	2319352	n/a	LTP273	ltpFR	18	3	n/a	RASPBERRY	1168	n/a	2	n/a	n/a	n/a	n/a	n/a	n/a
4640.424	n/a	RECOG_TARGET	2320212	n/a	LTP273	ltpFR	18	3	1	SCROLL	1257	1	2	0	n/a	n/a	n/a	n/a	n/a
4641.11	n/a	RECOG_RESP	2320555	n/a	LTP273	ltpFR	18	3	1	SCROLL	1257	1	n/a	0	n/a	n/a	n/a	n/a	n/a
4641.644	n/a	RECOG_CONF	2320822	n/a	LTP273	ltpFR	18	3	1	SCROLL	1257	n/a	2	0	n/a	n/a	n/a	n/a	n/a
4643.1	n/a	RECOG_LURE	2321550	n/a	LTP273	ltpFR	18	3	n/a	ORANGE	980	0	4	n/a	n/a	n/a	n/a	n/a	n/a
4643.71	n/a	RECOG_RESP	2321855	n/a	LTP273	ltpFR	18	3	n/a	ORANGE	980	0	n/a	n/a	n/a	n/a	n/a	n/a	n/a
4643.994	n/a	RECOG_CONF	2321997	n/a	LTP273	ltpFR	18	3	n/a	ORANGE	980	n/a	4	n/a	n/a	n/a	n/a	n/a	n/a
4645.694	n/a	RECOG_TARGET	2322847	n/a	LTP273	ltpFR	18	3	0	FEAST	556	1	5	0	n/a	n/a	n/a	n/a	n/a
4646.256	n/a	RECOG_RESP	2323128	n/a	LTP273	ltpFR	18	3	0	FEAST	556	1	n/a	0	n/a	n/a	n/a	n/a	n/a
4646.636	n/a	RECOG_CONF	2323318	n/a	LTP273	ltpFR	18	3	0	FEAST	556	n/a	5	0	n/a	n/a	n/a	n/a	n/a
4648.254	n/a	RECOG_LURE	2324127	n/a	LTP273	ltpFR	18	3	n/a	NEPTUNE	943	1	1	n/a	n/a	n/a	n/a	n/a	n/a
4648.63	n/a	RECOG_RESP	2324315	n/a	LTP273	ltpFR	18	3	n/a	NEPTUNE	943	1	n/a	n/a	n/a	n/a	n/a	n/a	n/a
4649.026	n/a	RECOG_CONF	2324513	n/a	LTP273	ltpFR	18	3	n/a	NEPTUNE	943	n/a	1	n/a	n/a	n/a	n/a	n/a	n/a
4650.596	n/a	RECOG_TARGET	2325298	n/a	LTP273	ltpFR	18	3	1	BULL	193	0	2	0	n/a	n/a	n/a	n/a	n/a
4651.15	n/a	RECOG_RESP	2325575	n/a	LTP273	ltpFR	18	3	1	BULL	193	0	n/a	0	n/a	n/a	n/a	n/a	n/a
4651.586	n/a	RECOG_CONF	2325793	n/a	LTP273	ltpFR	18	3	1	BULL	193	n/a	2	0	n/a	n/a	n/a	n/a	n/a
4653.09	n/a	RECOG_LURE	2326545	n/a	LTP273	ltpFR	18	3	n/a	KNAPSACK	783	0	4	n/a	n/a	n/a	n/a	n/a	n/a
4654.296	n/a	RECOG_RESP	2327148	n/a	LTP273	ltpFR	18	3	n/a	KNAPSACK	783	0	n/a	n/a	n/a	n/a	n/a	n/a	n/a
4654.676	n/a	RECOG_CONF	2327338	n/a	LTP273	ltpFR	18	3	n/a	KNAPSACK	783	n/a	4	n/a	n/a	n/a	n/a	n/a	n/a
4656.434	n/a	RECOG_TARGET	2328217	n/a	LTP273	ltpFR	18	3	0	ATOM	55	1	3	0	n/a	n/a	n/a	n/a	n/a
4657.036	n/a	RECOG_RESP	2328518	n/a	LTP273	ltpFR	18	3	0	ATOM	55	1	n/a	0	n/a	n/a	n/a	n/a	n/a
4657.576	n/a	RECOG_CONF	2328788	n/a	LTP273	ltpFR	18	3	0	ATOM	55	n/a	3	0	n/a	n/a	n/a	n/a	n/a
4659.128	n/a	RECOG_TARGET	2329564	n/a	LTP273	ltpFR	18	3	-1	SARDINE	1235	1	2	-1	n/a	n/a	n/a	n/a	n/a
4659.8	n/a	RECOG_RESP	2329900	n/a	LTP273	ltpFR	18	3	-1	SARDINE	1235	1	n/a	-1	n/a	n/a	n/a	n/a	n/a
4660.206	n/a	RECOG_CONF	2330103	n/a	LTP273	ltpFR	18	3	-1	SARDINE	1235	n/a	2	-1	n/a	n/a	n/a	n/a	n/a
4661.788	n/a	RECOG_TARGET	2330894	n/a	LTP273	ltpFR	18	3	0	NEST	945	1	3	1	n/a	n/a	n/a	n/a	n/a
4662.356	n/a	RECOG_RESP	2331178	n/a	LTP273	ltpFR	18	3	0	NEST	945	1	n/a	1	n/a	n/a	n/a	n/a	n/a
4662.786	n/a	RECOG_CONF	2331393	n/a	LTP273	ltpFR	18	3	0	NEST	945	n/a	3	1	n/a	n/a	n/a	n/a	n/a
4664.396	n/a	RECOG_LURE	2332198	n/a	LTP273	ltpFR	18	3	n/a	TIDE	1465	1	2	n/a	n/a	n/a	n/a	n/a	n/a
4665.026	n/a	RECOG_RESP	2332513	n/a	LTP273	ltpFR	18	3	n/a	TIDE	1465	1	n/a	n/a	n/a	n/a	n/a	n/a	n/a
4665.426	n/a	RECOG_CONF	2332713	n/a	LTP273	ltpFR	18	3	n/a	TIDE	1465	n/a	2	n/a	n/a	n/a	n/a	n/a	n/a
4667.076	n/a	RECOG_TARGET	2333538	n/a	LTP273	ltpFR	18	3	0	SCREWDRIVER	1255	1	4	1	n/a	n/a	n/a	n/a	n/a
4667.652	n/a	RECOG_RESP	2333826	n/a	LTP273	ltpFR	18	3	0	SCREWDRIVER	1255	1	n/a	1	n/a	n/a	n/a	n/a	n/a
4668.046	n/a	RECOG_CONF	2334023	n/a	LTP273	ltpFR	18	3	0	SCREWDRIVER	1255	n/a	4	1	n/a	n/a	n/a	n/a	n/a
4685.18	n/a	REC_START	2342590	n/a	LTP273	ltpFR	18	4	n/a	n/a	n/a	n/a	n/a	n/a	n/a	n/a	n/a	n/a	n/a
4685.23	n/a	RECOG_TARGET	2342615	n/a	LTP273	ltpFR	18	4	0	TOWEL	1489	1	3	0	n/a	n/a	n/a	n/a	n/a
4685.764	n/a	RECOG_RESP	2342882	n/a	LTP273	ltpFR	18	4	0	TOWEL	1489	1	n/a	0	n/a	n/a	n/a	n/a	n/a
4686.2	n/a	RECOG_CONF	2343100	n/a	LTP273	ltpFR	18	4	0	TOWEL	1489	n/a	3	0	n/a	n/a	n/a	n/a	n/a
4687.804	n/a	RECOG_LURE	2343902	n/a	LTP273	ltpFR	18	4	n/a	NEPHEW	942	1	2	n/a	n/a	n/a	n/a	n/a	n/a
4688.09	n/a	RECOG_RESP	2344045	n/a	LTP273	ltpFR	18	4	n/a	NEPHEW	942	1	n/a	n/a	n/a	n/a	n/a	n/a	n/a
4688.45	n/a	RECOG_CONF	2344225	n/a	LTP273	ltpFR	18	4	n/a	NEPHEW	942	n/a	2	n/a	n/a	n/a	n/a	n/a	n/a
4690.114	n/a	RECOG_LURE	2345057	n/a	LTP273	ltpFR	18	4	n/a	MOSS	918	1	1	n/a	n/a	n/a	n/a	n/a	n/a
4690.49	n/a	RECOG_RESP	2345245	n/a	LTP273	ltpFR	18	4	n/a	MOSS	918	1	n/a	n/a	n/a	n/a	n/a	n/a	n/a
4690.87	n/a	RECOG_CONF	2345435	n/a	LTP273	ltpFR	18	4	n/a	MOSS	918	n/a	1	n/a	n/a	n/a	n/a	n/a	n/a
4692.64	n/a	RECOG_LURE	2346320	n/a	LTP273	ltpFR	18	4	n/a	DIGGER	464	0	3	n/a	n/a	n/a	n/a	n/a	n/a
4693.14	n/a	RECOG_RESP	2346570	n/a	LTP273	ltpFR	18	4	n/a	DIGGER	464	0	n/a	n/a	n/a	n/a	n/a	n/a	n/a
4693.61	n/a	RECOG_CONF	2346805	n/a	LTP273	ltpFR	18	4	n/a	DIGGER	464	n/a	3	n/a	n/a	n/a	n/a	n/a	n/a
4695.182	n/a	RECOG_TARGET	2347591	n/a	LTP273	ltpFR	18	4	-1	FRUIT	610	0	4	-1	n/a	n/a	n/a	n/a	n/a
4695.694	n/a	RECOG_RESP	2347847	n/a	LTP273	ltpFR	18	4	-1	FRUIT	610	0	n/a	-1	n/a	n/a	n/a	n/a	n/a
4696.09	n/a	RECOG_CONF	2348045	n/a	LTP273	ltpFR	18	4	-1	FRUIT	610	n/a	4	-1	n/a	n/a	n/a	n/a	n/a
4697.592	n/a	RECOG_LURE	2348796	n/a	LTP273	ltpFR	18	4	n/a	ADOLESCENT	7	0	5	n/a	n/a	n/a	n/a	n/a	n/a
4698.134	n/a	RECOG_RESP	2349067	n/a	LTP273	ltpFR	18	4	n/a	ADOLESCENT	7	0	n/a	n/a	n/a	n/a	n/a	n/a	n/a
4698.64	n/a	RECOG_CONF	2349320	n/a	LTP273	ltpFR	18	4	n/a	ADOLESCENT	7	n/a	5	n/a	n/a	n/a	n/a	n/a	n/a
4700.184	n/a	RECOG_TARGET	2350092	n/a	LTP273	ltpFR	18	4	0	DART	440	1	2	0	n/a	n/a	n/a	n/a	n/a
4700.6	n/a	RECOG_RESP	2350300	n/a	LTP273	ltpFR	18	4	0	DART	440	1	n/a	0	n/a	n/a	n/a	n/a	n/a
4701.13	n/a	RECOG_CONF	2350565	n/a	LTP273	ltpFR	18	4	0	DART	440	n/a	2	0	n/a	n/a	n/a	n/a	n/a
4702.662	n/a	RECOG_LURE	2351331	n/a	LTP273	ltpFR	18	4	n/a	MARBLE	867	0	3	n/a	n/a	n/a	n/a	n/a	n/a
4703.236	n/a	RECOG_RESP	2351618	n/a	LTP273	ltpFR	18	4	n/a	MARBLE	867	0	n/a	n/a	n/a	n/a	n/a	n/a	n/a
4703.69	n/a	RECOG_CONF	2351845	n/a	LTP273	ltpFR	18	4	n/a	MARBLE	867	n/a	3	n/a	n/a	n/a	n/a	n/a	n/a
4705.256	n/a	RECOG_LURE	2352628	n/a	LTP273	ltpFR	18	4	n/a	CITRUS	313	0	2	n/a	n/a	n/a	n/a	n/a	n/a
4705.81	n/a	RECOG_RESP	2352905	n/a	LTP273	ltpFR	18	4	n/a	CITRUS	313	0	n/a	n/a	n/a	n/a	n/a	n/a	n/a
4706.28	n/a	RECOG_CONF	2353140	n/a	LTP273	ltpFR	18	4	n/a	CITRUS	313	n/a	2	n/a	n/a	n/a	n/a	n/a	n/a
4707.816	n/a	RECOG_LURE	2353908	n/a	LTP273	ltpFR	18	4	n/a	BOOT	150	0	4	n/a	n/a	n/a	n/a	n/a	n/a
4708.35	n/a	RECOG_RESP	2354175	n/a	LTP273	ltpFR	18	4	n/a	BOOT	150	0	n/a	n/a	n/a	n/a	n/a	n/a	n/a
4708.67	n/a	RECOG_CONF	2354335	n/a	LTP273	ltpFR	18	4	n/a	BOOT	150	n/a	4	n/a	n/a	n/a	n/a	n/a	n/a
4710.274	n/a	RECOG_LURE	2355137	n/a	LTP273	ltpFR	18	4	n/a	CRYSTAL	418	0	3	n/a	n/a	n/a	n/a	n/a	n/a
4710.82	n/a	RECOG_RESP	2355410	n/a	LTP273	ltpFR	18	4	n/a	CRYSTAL	418	0	n/a	n/a	n/a	n/a	n/a	n/a	n/a
4711.33	n/a	RECOG_CONF	2355665	n/a	LTP273	ltpFR	18	4	n/a	CRYSTAL	418	n/a	3	n/a	n/a	n/a	n/a	n/a	n/a
4712.952	n/a	RECOG_TARGET	2356476	n/a	LTP273	ltpFR	18	4	1	SURF	1412	1	3	0	n/a	n/a	n/a	n/a	n/a
4713.516	n/a	RECOG_RESP	2356758	n/a	LTP273	ltpFR	18	4	1	SURF	1412	1	n/a	0	n/a	n/a	n/a	n/a	n/a
4714.0	n/a	RECOG_CONF	2357000	n/a	LTP273	ltpFR	18	4	1	SURF	1412	n/a	3	0	n/a	n/a	n/a	n/a	n/a
4715.61	n/a	RECOG_TARGET	2357805	n/a	LTP273	ltpFR	18	4	-1	BUTTON	207	1	2	-1	n/a	n/a	n/a	n/a	n/a
4716.6	n/a	RECOG_RESP	2358300	n/a	LTP273	ltpFR	18	4	-1	BUTTON	207	1	n/a	-1	n/a	n/a	n/a	n/a	n/a
4717.12	n/a	RECOG_CONF	2358560	n/a	LTP273	ltpFR	18	4	-1	BUTTON	207	n/a	2	-1	n/a	n/a	n/a	n/a	n/a
4718.756	n/a	RECOG_TARGET	2359378	n/a	LTP273	ltpFR	18	4	1	CREVICE	405	1	4	1	n/a	n/a	n/a	n/a	n/a
4719.356	n/a	RECOG_RESP	2359678	n/a	LTP273	ltpFR	18	4	1	CREVICE	405	1	n/a	1	n/a	n/a	n/a	n/a	n/a
4719.8	n/a	RECOG_CONF	2359900	n/a	LTP273	ltpFR	18	4	1	CREVICE	405	n/a	4	1	n/a	n/a	n/a	n/a	n/a
4721.282	n/a	RECOG_TARGET	2360641	n/a	LTP273	ltpFR	18	4	1	BEEF	113	1	5	0	n/a	n/a	n/a	n/a	n/a
4721.686	n/a	RECOG_RESP	2360843	n/a	LTP273	ltpFR	18	4	1	BEEF	113	1	n/a	0	n/a	n/a	n/a	n/a	n/a
4722.08	n/a	RECOG_CONF	2361040	n/a	LTP273	ltpFR	18	4	1	BEEF	113	n/a	5	0	n/a	n/a	n/a	n/a	n/a
4723.66	n/a	RECOG_TARGET	2361830	n/a	LTP273	ltpFR	18	4	-1	MAYONNAISE	880	1	5	-1	n/a	n/a	n/a	n/a	n/a
4724.192	n/a	RECOG_RESP	2362096	n/a	LTP273	ltpFR	18	4	-1	MAYONNAISE	880	1	n/a	-1	n/a	n/a	n/a	n/a	n/a
4724.572	n/a	RECOG_CONF	2362286	n/a	LTP273	ltpFR	18	4	-1	MAYONNAISE	880	n/a	5	-1	n/a	n/a	n/a	n/a	n/a
4726.034	n/a	RECOG_LURE	2363017	n/a	LTP273	ltpFR	18	4	n/a	PAINTER	1004	1	2	n/a	n/a	n/a	n/a	n/a	n/a
4726.746	n/a	RECOG_RESP	2363373	n/a	LTP273	ltpFR	18	4	n/a	PAINTER	1004	1	n/a	n/a	n/a	n/a	n/a	n/a	n/a
4727.202	n/a	RECOG_CONF	2363601	n/a	LTP273	ltpFR	18	4	n/a	PAINTER	1004	n/a	2	n/a	n/a	n/a	n/a	n/a	n/a
4728.746	n/a	RECOG_LURE	2364373	n/a	LTP273	ltpFR	18	4	n/a	SHACK	1273	0	3	n/a	n/a	n/a	n/a	n/a	n/a
4729.416	n/a	RECOG_RESP	2364708	n/a	LTP273	ltpFR	18	4	n/a	SHACK	1273	0	n/a	n/a	n/a	n/a	n/a	n/a	n/a
4729.922	n/a	RECOG_CONF	2364961	n/a	LTP273	ltpFR	18	4	n/a	SHACK	1273	n/a	3	n/a	n/a	n/a	n/a	n/a	n/a
4731.488	n/a	RECOG_TARGET	2365744	n/a	LTP273	ltpFR	18	4	-1	CHAMPION	279	0	2	-1	n/a	n/a	n/a	n/a	n/a
4732.086	n/a	RECOG_RESP	2366043	n/a	LTP273	ltpFR	18	4	-1	CHAMPION	279	0	n/a	-1	n/a	n/a	n/a	n/a	n/a
4732.562	n/a	RECOG_CONF	2366281	n/a	LTP273	ltpFR	18	4	-1	CHAMPION	279	n/a	2	-1	n/a	n/a	n/a	n/a	n/a
4734.216	n/a	RECOG_TARGET	2367108	n/a	LTP273	ltpFR	18	4	0	FOX	598	1	3	1	n/a	n/a	n/a	n/a	n/a
4734.716	n/a	RECOG_RESP	2367358	n/a	LTP273	ltpFR	18	4	0	FOX	598	1	n/a	1	n/a	n/a	n/a	n/a	n/a
4735.292	n/a	RECOG_CONF	2367646	n/a	LTP273	ltpFR	18	4	0	FOX	598	n/a	3	1	n/a	n/a	n/a	n/a	n/a
4738.58	n/a	REC_START	2369290	n/a	LTP273	ltpFR	18	5	n/a	n/a	n/a	n/a	n/a	n/a	n/a	n/a	n/a	n/a	n/a
4738.632	n/a	RECOG_LURE	2369316	n/a	LTP273	ltpFR	18	5	n/a	POLE	1097	1	1	n/a	n/a	n/a	n/a	n/a	n/a
4739.28	n/a	RECOG_RESP	2369640	n/a	LTP273	ltpFR	18	5	n/a	POLE	1097	1	n/a	n/a	n/a	n/a	n/a	n/a	n/a
4739.76	n/a	RECOG_CONF	2369880	n/a	LTP273	ltpFR	18	5	n/a	POLE	1097	n/a	1	n/a	n/a	n/a	n/a	n/a	n/a
4741.31	n/a	RECOG_LURE	2370655	n/a	LTP273	ltpFR	18	5	n/a	HELMET	702	0	2	n/a	n/a	n/a	n/a	n/a	n/a
4742.226	n/a	RECOG_RESP	2371113	n/a	LTP273	ltpFR	18	5	n/a	HELMET	702	0	n/a	n/a	n/a	n/a	n/a	n/a	n/a
4742.762	n/a	RECOG_CONF	2371381	n/a	LTP273	ltpFR	18	5	n/a	HELMET	702	n/a	2	n/a	n/a	n/a	n/a	n/a	n/a
4744.304	n/a	RECOG_TARGET	2372152	n/a	LTP273	ltpFR	18	5	0	COMPASS	358	1	4	0	n/a	n/a	n/a	n/a	n/a
4744.986	n/a	RECOG_RESP	2372493	n/a	LTP273	ltpFR	18	5	0	COMPASS	358	1	n/a	0	n/a	n/a	n/a	n/a	n/a
4745.392	n/a	RECOG_CONF	2372696	n/a	LTP273	ltpFR	18	5	0	COMPASS	358	n/a	4	0	n/a	n/a	n/a	n/a	n/a
4747.03	n/a	RECOG_TARGET	2373515	n/a	LTP273	ltpFR	18	5	1	XEROX	1628	1	3	0	n/a	n/a	n/a	n/a	n/a
4747.522	n/a	RECOG_RESP	2373761	n/a	LTP273	ltpFR	18	5	1	XEROX	1628	1	n/a	0	n/a	n/a	n/a	n/a	n/a
4747.972	n/a	RECOG_CONF	2373986	n/a	LTP273	ltpFR	18	5	1	XEROX	1628	n/a	3	0	n/a	n/a	n/a	n/a	n/a
4749.608	n/a	RECOG_TARGET	2374804	n/a	LTP273	ltpFR	18	5	0	ROBE	1198	1	5	1	n/a	n/a	n/a	n/a	n/a
4750.212	n/a	RECOG_RESP	2375106	n/a	LTP273	ltpFR	18	5	0	ROBE	1198	1	n/a	1	n/a	n/a	n/a	n/a	n/a
4750.602	n/a	RECOG_CONF	2375301	n/a	LTP273	ltpFR	18	5	0	ROBE	1198	n/a	5	1	n/a	n/a	n/a	n/a	n/a
4752.218	n/a	RECOG_LURE	2376109	n/a	LTP273	ltpFR	18	5	n/a	WOUND	1624	1	2	n/a	n/a	n/a	n/a	n/a	n/a
4752.622	n/a	RECOG_RESP	2376311	n/a	LTP273	ltpFR	18	5	n/a	WOUND	1624	1	n/a	n/a	n/a	n/a	n/a	n/a	n/a
4752.992	n/a	RECOG_CONF	2376496	n/a	LTP273	ltpFR	18	5	n/a	WOUND	1624	n/a	2	n/a	n/a	n/a	n/a	n/a	n/a
4754.558	n/a	RECOG_TARGET	2377279	n/a	LTP273	ltpFR	18	5	-1	VINEGAR	1569	0	3	-1	n/a	n/a	n/a	n/a	n/a
4755.186	n/a	RECOG_RESP	2377593	n/a	LTP273	ltpFR	18	5	-1	VINEGAR	1569	0	n/a	-1	n/a	n/a	n/a	n/a	n/a
4755.682	n/a	RECOG_CONF	2377841	n/a	LTP273	ltpFR	18	5	-1	VINEGAR	1569	n/a	3	-1	n/a	n/a	n/a	n/a	n/a
4757.186	n/a	RECOG_LURE	2378593	n/a	LTP273	ltpFR	18	5	n/a	SUPPER	1411	0	4	n/a	n/a	n/a	n/a	n/a	n/a
4757.842	n/a	RECOG_RESP	2378921	n/a	LTP273	ltpFR	18	5	n/a	SUPPER	1411	0	n/a	n/a	n/a	n/a	n/a	n/a	n/a
4758.262	n/a	RECOG_CONF	2379131	n/a	LTP273	ltpFR	18	5	n/a	SUPPER	1411	n/a	4	n/a	n/a	n/a	n/a	n/a	n/a
4759.78	n/a	RECOG_LURE	2379890	n/a	LTP273	ltpFR	18	5	n/a	MAILBOX	857	0	3	n/a	n/a	n/a	n/a	n/a	n/a
4760.292	n/a	RECOG_RESP	2380146	n/a	LTP273	ltpFR	18	5	n/a	MAILBOX	857	0	n/a	n/a	n/a	n/a	n/a	n/a	n/a
4760.772	n/a	RECOG_CONF	2380386	n/a	LTP273	ltpFR	18	5	n/a	MAILBOX	857	n/a	3	n/a	n/a	n/a	n/a	n/a	n/a
4762.338	n/a	RECOG_TARGET	2381169	n/a	LTP273	ltpFR	18	5	-1	BEAD	103	0	5	-1	n/a	n/a	n/a	n/a	n/a
4762.908	n/a	RECOG_RESP	2381454	n/a	LTP273	ltpFR	18	5	-1	BEAD	103	0	n/a	-1	n/a	n/a	n/a	n/a	n/a
4763.372	n/a	RECOG_CONF	2381686	n/a	LTP273	ltpFR	18	5	-1	BEAD	103	n/a	5	-1	n/a	n/a	n/a	n/a	n/a
4764.966	n/a	RECOG_LURE	2382483	n/a	LTP273	ltpFR	18	5	n/a	ROCK	1201	1	2	n/a	n/a	n/a	n/a	n/a	n/a
4765.452	n/a	RECOG_RESP	2382726	n/a	LTP273	ltpFR	18	5	n/a	ROCK	1201	1	n/a	n/a	n/a	n/a	n/a	n/a	n/a
4765.852	n/a	RECOG_CONF	2382926	n/a	LTP273	ltpFR	18	5	n/a	ROCK	1201	n/a	2	n/a	n/a	n/a	n/a	n/a	n/a
4767.51	n/a	RECOG_LURE	2383755	n/a	LTP273	ltpFR	18	5	n/a	SKUNK	1321	0	5	n/a	n/a	n/a	n/a	n/a	n/a
4768.108	n/a	RECOG_RESP	2384054	n/a	LTP273	ltpFR	18	5	n/a	SKUNK	1321	0	n/a	n/a	n/a	n/a	n/a	n/a	n/a
4768.562	n/a	RECOG_CONF	2384281	n/a	LTP273	ltpFR	18	5	n/a	SKUNK	1321	n/a	5	n/a	n/a	n/a	n/a	n/a	n/a
4770.002	n/a	RECOG_LURE	2385001	n/a	LTP273	ltpFR	18	5	n/a	PENNY	1045	0	2	n/a	n/a	n/a	n/a	n/a	n/a
4770.732	n/a	RECOG_RESP	2385366	n/a	LTP273	ltpFR	18	5	n/a	PENNY	1045	0	n/a	n/a	n/a	n/a	n/a	n/a	n/a
4771.282	n/a	RECOG_CONF	2385641	n/a	LTP273	ltpFR	18	5	n/a	PENNY	1045	n/a	2	n/a	n/a	n/a	n/a	n/a	n/a
4772.896	n/a	RECOG_TARGET	2386448	n/a	LTP273	ltpFR	18	5	0	TACK	1428	0	3	0	n/a	n/a	n/a	n/a	n/a
4773.398	n/a	RECOG_RESP	2386699	n/a	LTP273	ltpFR	18	5	0	TACK	1428	0	n/a	0	n/a	n/a	n/a	n/a	n/a
4773.892	n/a	RECOG_CONF	2386946	n/a	LTP273	ltpFR	18	5	0	TACK	1428	n/a	3	0	n/a	n/a	n/a	n/a	n/a
4775.474	n/a	RECOG_TARGET	2387737	n/a	LTP273	ltpFR	18	5	1	BROOM	178	1	2	1	n/a	n/a	n/a	n/a	n/a
4775.958	n/a	RECOG_RESP	2387979	n/a	LTP273	ltpFR	18	5	1	BROOM	178	1	n/a	1	n/a	n/a	n/a	n/a	n/a
4776.452	n/a	RECOG_CONF	2388226	n/a	LTP273	ltpFR	18	5	1	BROOM	178	n/a	2	1	n/a	n/a	n/a	n/a	n/a
4778.116	n/a	RECOG_TARGET	2389058	n/a	LTP273	ltpFR	18	5	-1	BAKER	71	1	4	-1	n/a	n/a	n/a	n/a	n/a
4778.552	n/a	RECOG_RESP	2389276	n/a	LTP273	ltpFR	18	5	-1	BAKER	71	1	n/a	-1	n/a	n/a	n/a	n/a	n/a
4779.032	n/a	RECOG_CONF	2389516	n/a	LTP273	ltpFR	18	5	-1	BAKER	71	n/a	4	-1	n/a	n/a	n/a	n/a	n/a
4780.644	n/a	RECOG_TARGET	2390322	n/a	LTP273	ltpFR	18	5	0	AUTHOR	61	1	3	1	n/a	n/a	n/a	n/a	n/a
4781.028	n/a	RECOG_RESP	2390514	n/a	LTP273	ltpFR	18	5	0	AUTHOR	61	1	n/a	1	n/a	n/a	n/a	n/a	n/a
4781.484	n/a	RECOG_CONF	2390742	n/a	LTP273	ltpFR	18	5	0	AUTHOR	61	n/a	3	1	n/a	n/a	n/a	n/a	n/a
4783.036	n/a	RECOG_LURE	2391518	n/a	LTP273	ltpFR	18	5	n/a	STOMACH	1384	1	2	n/a	n/a	n/a	n/a	n/a	n/a
4783.448	n/a	RECOG_RESP	2391724	n/a	LTP273	ltpFR	18	5	n/a	STOMACH	1384	1	n/a	n/a	n/a	n/a	n/a	n/a	n/a
4783.804	n/a	RECOG_CONF	2391902	n/a	LTP273	ltpFR	18	5	n/a	STOMACH	1384	n/a	2	n/a	n/a	n/a	n/a	n/a	n/a
4785.462	n/a	RECOG_TARGET	2392731	n/a	LTP273	ltpFR	18	5	-1	OLIVE	975	1	1	-1	n/a	n/a	n/a	n/a	n/a
4786.044	n/a	RECOG_RESP	2393022	n/a	LTP273	ltpFR	18	5	-1	OLIVE	975	1	n/a	-1	n/a	n/a	n/a	n/a	n/a
4786.534	n/a	RECOG_CONF	2393267	n/a	LTP273	ltpFR	18	5	-1	OLIVE	975	n/a	1	-1	n/a	n/a	n/a	n/a	n/a
4788.188	n/a	RECOG_TARGET	2394094	n/a	LTP273	ltpFR	18	5	-1	SWEATER	1419	1	3	-1	n/a	n/a	n/a	n/a	n/a
4788.738	n/a	RECOG_RESP	2394369	n/a	LTP273	ltpFR	18	5	-1	SWEATER	1419	1	n/a	-1	n/a	n/a	n/a	n/a	n/a
4789.234	n/a	RECOG_CONF	2394617	n/a	LTP273	ltpFR	18	5	-1	SWEATER	1419	n/a	3	-1	n/a	n/a	n/a	n/a	n/a
4792.806	n/a	REC_START	2396403	n/a	LTP273	ltpFR	18	6	n/a	n/a	n/a	n/a	n/a	n/a	n/a	n/a	n/a	n/a	n/a
4792.856	n/a	RECOG_TARGET	2396428	n/a	LTP273	ltpFR	18	6	1	BAY	102	1	2	0	n/a	n/a	n/a	n/a	n/a
4793.49	n/a	RECOG_RESP	2396745	n/a	LTP273	ltpFR	18	6	1	BAY	102	1	n/a	0	n/a	n/a	n/a	n/a	n/a
4793.996	n/a	RECOG_CONF	2396998	n/a	LTP273	ltpFR	18	6	1	BAY	102	n/a	2	0	n/a	n/a	n/a	n/a	n/a
4795.668	n/a	RECOG_TARGET	2397834	n/a	LTP273	ltpFR	18	6	1	FATHER	554	1	4	1	n/a	n/a	n/a	n/a	n/a
4796.236	n/a	RECOG_RESP	2398118	n/a	LTP273	ltpFR	18	6	1	FATHER	554	1	n/a	1	n/a	n/a	n/a	n/a	n/a
4796.736	n/a	RECOG_CONF	2398368	n/a	LTP273	ltpFR	18	6	1	FATHER	554	n/a	4	1	n/a	n/a	n/a	n/a	n/a
4798.194	n/a	RECOG_LURE	2399097	n/a	LTP273	ltpFR	18	6	n/a	STALLION	1369	0	4	n/a	n/a	n/a	n/a	n/a	n/a
4798.856	n/a	RECOG_RESP	2399428	n/a	LTP273	ltpFR	18	6	n/a	STALLION	1369	0	n/a	n/a	n/a	n/a	n/a	n/a	n/a
4799.376	n/a	RECOG_CONF	2399688	n/a	LTP273	ltpFR	18	6	n/a	STALLION	1369	n/a	4	n/a	n/a	n/a	n/a	n/a	n/a
4800.854	n/a	RECOG_TARGET	2400427	n/a	LTP273	ltpFR	18	6	1	BASKETBALL	96	1	3	0	n/a	n/a	n/a	n/a	n/a
4801.312	n/a	RECOG_RESP	2400656	n/a	LTP273	ltpFR	18	6	1	BASKETBALL	96	1	n/a	0	n/a	n/a	n/a	n/a	n/a
4801.806	n/a	RECOG_CONF	2400903	n/a	LTP273	ltpFR	18	6	1	BASKETBALL	96	n/a	3	0	n/a	n/a	n/a	n/a	n/a
4803.398	n/a	RECOG_TARGET	2401699	n/a	LTP273	ltpFR	18	6	1	WINGS	1614	1	5	0	n/a	n/a	n/a	n/a	n/a
4803.922	n/a	RECOG_RESP	2401961	n/a	LTP273	ltpFR	18	6	1	WINGS	1614	1	n/a	0	n/a	n/a	n/a	n/a	n/a
4804.406	n/a	RECOG_CONF	2402203	n/a	LTP273	ltpFR	18	6	1	WINGS	1614	n/a	5	0	n/a	n/a	n/a	n/a	n/a
4805.874	n/a	RECOG_TARGET	2402937	n/a	LTP273	ltpFR	18	6	-1	HOME	712	0	2	-1	n/a	n/a	n/a	n/a	n/a
4806.526	n/a	RECOG_RESP	2403263	n/a	LTP273	ltpFR	18	6	-1	HOME	712	0	n/a	-1	n/a	n/a	n/a	n/a	n/a
4806.986	n/a	RECOG_CONF	2403493	n/a	LTP273	ltpFR	18	6	-1	HOME	712	n/a	2	-1	n/a	n/a	n/a	n/a	n/a
4808.616	n/a	RECOG_LURE	2404308	n/a	LTP273	ltpFR	18	6	n/a	HAND	683	1	3	n/a	n/a	n/a	n/a	n/a	n/a
4809.076	n/a	RECOG_RESP	2404538	n/a	LTP273	ltpFR	18	6	n/a	HAND	683	1	n/a	n/a	n/a	n/a	n/a	n/a	n/a
4809.566	n/a	RECOG_CONF	2404783	n/a	LTP273	ltpFR	18	6	n/a	HAND	683	n/a	3	n/a	n/a	n/a	n/a	n/a	n/a
4811.224	n/a	RECOG_LURE	2405612	n/a	LTP273	ltpFR	18	6	n/a	ULCER	1533	0	4	n/a	n/a	n/a	n/a	n/a	n/a
4811.822	n/a	RECOG_RESP	2405911	n/a	LTP273	ltpFR	18	6	n/a	ULCER	1533	0	n/a	n/a	n/a	n/a	n/a	n/a	n/a
4812.236	n/a	RECOG_CONF	2406118	n/a	LTP273	ltpFR	18	6	n/a	ULCER	1533	n/a	4	n/a	n/a	n/a	n/a	n/a	n/a
4813.954	n/a	RECOG_LURE	2406977	n/a	LTP273	ltpFR	18	6	n/a	SHELTER	1282	0	2	n/a	n/a	n/a	n/a	n/a	n/a
4814.472	n/a	RECOG_RESP	2407236	n/a	LTP273	ltpFR	18	6	n/a	SHELTER	1282	0	n/a	n/a	n/a	n/a	n/a	n/a	n/a
4814.786	n/a	RECOG_CONF	2407393	n/a	LTP273	ltpFR	18	6	n/a	SHELTER	1282	n/a	2	n/a	n/a	n/a	n/a	n/a	n/a
4816.496	n/a	RECOG_LURE	2408248	n/a	LTP273	ltpFR	18	6	n/a	HEATER	698	0	5	n/a	n/a	n/a	n/a	n/a	n/a
4817.036	n/a	RECOG_RESP	2408518	n/a	LTP273	ltpFR	18	6	n/a	HEATER	698	0	n/a	n/a	n/a	n/a	n/a	n/a	n/a
4817.498	n/a	RECOG_CONF	2408749	n/a	LTP273	ltpFR	18	6	n/a	HEATER	698	n/a	5	n/a	n/a	n/a	n/a	n/a	n/a
4819.024	n/a	RECOG_TARGET	2409512	n/a	LTP273	ltpFR	18	6	-1	RESTAURANT	1187	1	4	-1	n/a	n/a	n/a	n/a	n/a
4819.928	n/a	RECOG_RESP	2409964	n/a	LTP273	ltpFR	18	6	-1	RESTAURANT	1187	1	n/a	-1	n/a	n/a	n/a	n/a	n/a
4820.448	n/a	RECOG_CONF	2410224	n/a	LTP273	ltpFR	18	6	-1	RESTAURANT	1187	n/a	4	-1	n/a	n/a	n/a	n/a	n/a
4822.086	n/a	RECOG_LURE	2411043	n/a	LTP273	ltpFR	18	6	n/a	HARP	689	0	3	n/a	n/a	n/a	n/a	n/a	n/a
4822.672	n/a	RECOG_RESP	2411336	n/a	LTP273	ltpFR	18	6	n/a	HARP	689	0	n/a	n/a	n/a	n/a	n/a	n/a	n/a
4823.158	n/a	RECOG_CONF	2411579	n/a	LTP273	ltpFR	18	6	n/a	HARP	689	n/a	3	n/a	n/a	n/a	n/a	n/a	n/a
4824.796	n/a	RECOG_TARGET	2412398	n/a	LTP273	ltpFR	18	6	1	SALIVA	1226	1	2	0	n/a	n/a	n/a	n/a	n/a
4825.372	n/a	RECOG_RESP	2412686	n/a	LTP273	ltpFR	18	6	1	SALIVA	1226	1	n/a	0	n/a	n/a	n/a	n/a	n/a
4825.748	n/a	RECOG_CONF	2412874	n/a	LTP273	ltpFR	18	6	1	SALIVA	1226	n/a	2	0	n/a	n/a	n/a	n/a	n/a
4827.506	n/a	RECOG_TARGET	2413753	n/a	LTP273	ltpFR	18	6	0	PIER	1063	1	1	0	n/a	n/a	n/a	n/a	n/a
4828.062	n/a	RECOG_RESP	2414031	n/a	LTP273	ltpFR	18	6	0	PIER	1063	1	n/a	0	n/a	n/a	n/a	n/a	n/a
4828.608	n/a	RECOG_CONF	2414304	n/a	LTP273	ltpFR	18	6	0	PIER	1063	n/a	1	0	n/a	n/a	n/a	n/a	n/a
4830.148	n/a	RECOG_TARGET	2415074	n/a	LTP273	ltpFR	18	6	1	KITE	779	1	3	0	n/a	n/a	n/a	n/a	n/a
4830.602	n/a	RECOG_RESP	2415301	n/a	LTP273	ltpFR	18	6	1	KITE	779	1	n/a	0	n/a	n/a	n/a	n/a	n/a
4831.108	n/a	RECOG_CONF	2415554	n/a	LTP273	ltpFR	18	6	1	KITE	779	n/a	3	0	n/a	n/a	n/a	n/a	n/a
4832.54	n/a	RECOG_TARGET	2416270	n/a	LTP273	ltpFR	18	6	-1	ENGINE	535	1	2	-1	n/a	n/a	n/a	n/a	n/a
4833.142	n/a	RECOG_RESP	2416571	n/a	LTP273	ltpFR	18	6	-1	ENGINE	535	1	n/a	-1	n/a	n/a	n/a	n/a	n/a
4833.508	n/a	RECOG_CONF	2416754	n/a	LTP273	ltpFR	18	6	-1	ENGINE	535	n/a	2	-1	n/a	n/a	n/a	n/a	n/a
4835.218	n/a	RECOG_LURE	2417609	n/a	LTP273	ltpFR	18	6	n/a	BLUEJAY	141	1	2	n/a	n/a	n/a	n/a	n/a	n/a
4835.852	n/a	RECOG_RESP	2417926	n/a	LTP273	ltpFR	18	6	n/a	BLUEJAY	141	1	n/a	n/a	n/a	n/a	n/a	n/a	n/a
4836.348	n/a	RECOG_CONF	2418174	n/a	LTP273	ltpFR	18	6	n/a	BLUEJAY	141	n/a	2	n/a	n/a	n/a	n/a	n/a	n/a
4837.828	n/a	RECOG_TARGET	2418914	n/a	LTP273	ltpFR	18	6	0	PORPOISE	1109	1	5	1	n/a	n/a	n/a	n/a	n/a
4838.374	n/a	RECOG_RESP	2419187	n/a	LTP273	ltpFR	18	6	0	PORPOISE	1109	1	n/a	1	n/a	n/a	n/a	n/a	n/a
4838.858	n/a	RECOG_CONF	2419429	n/a	LTP273	ltpFR	18	6	0	PORPOISE	1109	n/a	5	1	n/a	n/a	n/a	n/a	n/a
4840.406	n/a	RECOG_LURE	2420203	n/a	LTP273	ltpFR	18	6	n/a	LAWYER	806	1	3	n/a	n/a	n/a	n/a	n/a	n/a
4840.884	n/a	RECOG_RESP	2420442	n/a	LTP273	ltpFR	18	6	n/a	LAWYER	806	1	n/a	n/a	n/a	n/a	n/a	n/a	n/a
4841.348	n/a	RECOG_CONF	2420674	n/a	LTP273	ltpFR	18	6	n/a	LAWYER	806	n/a	3	n/a	n/a	n/a	n/a	n/a	n/a
4842.832	n/a	RECOG_LURE	2421416	n/a	LTP273	ltpFR	18	6	n/a	BEVERAGE	123	0	2	n/a	n/a	n/a	n/a	n/a	n/a
4843.478	n/a	RECOG_RESP	2421739	n/a	LTP273	ltpFR	18	6	n/a	BEVERAGE	123	0	n/a	n/a	n/a	n/a	n/a	n/a	n/a
4843.998	n/a	RECOG_CONF	2421999	n/a	LTP273	ltpFR	18	6	n/a	BEVERAGE	123	n/a	2	n/a	n/a	n/a	n/a	n/a	n/a
4847.344	n/a	REC_START	2423672	n/a	LTP273	ltpFR	18	7	n/a	n/a	n/a	n/a	n/a	n/a	n/a	n/a	n/a	n/a	n/a
4847.396	n/a	RECOG_TARGET	2423698	n/a	LTP273	ltpFR	18	7	1	KNEE	784	1	3	1	n/a	n/a	n/a	n/a	n/a
4847.924	n/a	RECOG_RESP	2423962	n/a	LTP273	ltpFR	18	7	1	KNEE	784	1	n/a	1	n/a	n/a	n/a	n/a	n/a
4848.464	n/a	RECOG_CONF	2424232	n/a	LTP273	ltpFR	18	7	1	KNEE	784	n/a	3	1	n/a	n/a	n/a	n/a	n/a
4850.042	n/a	RECOG_TARGET	2425021	n/a	LTP273	ltpFR	18	7	1	SWIMMER	1420	1	4	1	n/a	n/a	n/a	n/a	n/a
4850.474	n/a	RECOG_RESP	2425237	n/a	LTP273	ltpFR	18	7	1	SWIMMER	1420	1	n/a	1	n/a	n/a	n/a	n/a	n/a
4850.964	n/a	RECOG_CONF	2425482	n/a	LTP273	ltpFR	18	7	1	SWIMMER	1420	n/a	4	1	n/a	n/a	n/a	n/a	n/a
4852.484	n/a	RECOG_TARGET	2426242	n/a	LTP273	ltpFR	18	7	0	ROOT	1210	1	2	1	n/a	n/a	n/a	n/a	n/a
4852.888	n/a	RECOG_RESP	2426444	n/a	LTP273	ltpFR	18	7	0	ROOT	1210	1	n/a	1	n/a	n/a	n/a	n/a	n/a
4853.404	n/a	RECOG_CONF	2426702	n/a	LTP273	ltpFR	18	7	0	ROOT	1210	n/a	2	1	n/a	n/a	n/a	n/a	n/a
4854.894	n/a	RECOG_TARGET	2427447	n/a	LTP273	ltpFR	18	7	0	OTTER	986	1	5	1	n/a	n/a	n/a	n/a	n/a
4855.32	n/a	RECOG_RESP	2427660	n/a	LTP273	ltpFR	18	7	0	OTTER	986	1	n/a	1	n/a	n/a	n/a	n/a	n/a
4855.854	n/a	RECOG_CONF	2427927	n/a	LTP273	ltpFR	18	7	0	OTTER	986	n/a	5	1	n/a	n/a	n/a	n/a	n/a
4857.454	n/a	RECOG_TARGET	2428727	n/a	LTP273	ltpFR	18	7	0	SIDEWALK	1303	1	3	1	n/a	n/a	n/a	n/a	n/a
4857.894	n/a	RECOG_RESP	2428947	n/a	LTP273	ltpFR	18	7	0	SIDEWALK	1303	1	n/a	1	n/a	n/a	n/a	n/a	n/a
4858.414	n/a	RECOG_CONF	2429207	n/a	LTP273	ltpFR	18	7	0	SIDEWALK	1303	n/a	3	1	n/a	n/a	n/a	n/a	n/a
4859.914	n/a	RECOG_TARGET	2429957	n/a	LTP273	ltpFR	18	7	0	GUITAR	670	1	2	1	n/a	n/a	n/a	n/a	n/a
4860.564	n/a	RECOG_RESP	2430282	n/a	LTP273	ltpFR	18	7	0	GUITAR	670	1	n/a	1	n/a	n/a	n/a	n/a	n/a
4860.944	n/a	RECOG_CONF	2430472	n/a	LTP273	ltpFR	18	7	0	GUITAR	670	n/a	2	1	n/a	n/a	n/a	n/a	n/a
4862.674	n/a	RECOG_LURE	2431337	n/a	LTP273	ltpFR	18	7	n/a	BRAKE	166	1	1	n/a	n/a	n/a	n/a	n/a	n/a
4863.064	n/a	RECOG_RESP	2431532	n/a	LTP273	ltpFR	18	7	n/a	BRAKE	166	1	n/a	n/a	n/a	n/a	n/a	n/a	n/a
4863.654	n/a	RECOG_CONF	2431827	n/a	LTP273	ltpFR	18	7	n/a	BRAKE	166	n/a	1	n/a	n/a	n/a	n/a	n/a	n/a
4865.216	n/a	RECOG_TARGET	2432608	n/a	LTP273	ltpFR	18	7	0	SHOE	1288	1	2	0	n/a	n/a	n/a	n/a	n/a
4865.684	n/a	RECOG_RESP	2432842	n/a	LTP273	ltpFR	18	7	0	SHOE	1288	1	n/a	0	n/a	n/a	n/a	n/a	n/a
4866.204	n/a	RECOG_CONF	2433102	n/a	LTP273	ltpFR	18	7	0	SHOE	1288	n/a	2	0	n/a	n/a	n/a	n/a	n/a
4867.658	n/a	RECOG_TARGET	2433829	n/a	LTP273	ltpFR	18	7	0	PAGE	1001	1	4	0	n/a	n/a	n/a	n/a	n/a
4868.19	n/a	RECOG_RESP	2434095	n/a	LTP273	ltpFR	18	7	0	PAGE	1001	1	n/a	0	n/a	n/a	n/a	n/a	n/a
4868.604	n/a	RECOG_CONF	2434302	n/a	LTP273	ltpFR	18	7	0	PAGE	1001	n/a	4	0	n/a	n/a	n/a	n/a	n/a
4870.186	n/a	RECOG_TARGET	2435093	n/a	LTP273	ltpFR	18	7	-1	CARD	243	1	1	-1	n/a	n/a	n/a	n/a	n/a
4870.53	n/a	RECOG_RESP	2435265	n/a	LTP273	ltpFR	18	7	-1	CARD	243	1	n/a	-1	n/a	n/a	n/a	n/a	n/a
4870.934	n/a	RECOG_CONF	2435467	n/a	LTP273	ltpFR	18	7	-1	CARD	243	n/a	1	-1	n/a	n/a	n/a	n/a	n/a
4872.594	n/a	RECOG_LURE	2436297	n/a	LTP273	ltpFR	18	7	n/a	EARRING	514	0	2	n/a	n/a	n/a	n/a	n/a	n/a
4873.174	n/a	RECOG_RESP	2436587	n/a	LTP273	ltpFR	18	7	n/a	EARRING	514	0	n/a	n/a	n/a	n/a	n/a	n/a	n/a
4873.344	n/a	RECOG_CONF	2436672	n/a	LTP273	ltpFR	18	7	n/a	EARRING	514	n/a	2	n/a	n/a	n/a	n/a	n/a	n/a
4875.256	n/a	RECOG_LURE	2437628	n/a	LTP273	ltpFR	18	7	n/a	SOFTBALL	1343	1	1	n/a	n/a	n/a	n/a	n/a	n/a
4875.73	n/a	RECOG_RESP	2437865	n/a	LTP273	ltpFR	18	7	n/a	SOFTBALL	1343	1	n/a	n/a	n/a	n/a	n/a	n/a	n/a
4876.256	n/a	RECOG_CONF	2438128	n/a	LTP273	ltpFR	18	7	n/a	SOFTBALL	1343	n/a	1	n/a	n/a	n/a	n/a	n/a	n/a
4877.898	n/a	RECOG_LURE	2438949	n/a	LTP273	ltpFR	18	7	n/a	WINE	1613	0	3	n/a	n/a	n/a	n/a	n/a	n/a
4879.196	n/a	RECOG_RESP	2439598	n/a	LTP273	ltpFR	18	7	n/a	WINE	1613	0	n/a	n/a	n/a	n/a	n/a	n/a	n/a
4879.726	n/a	RECOG_CONF	2439863	n/a	LTP273	ltpFR	18	7	n/a	WINE	1613	n/a	3	n/a	n/a	n/a	n/a	n/a	n/a
4881.262	n/a	RECOG_TARGET	2440631	n/a	LTP273	ltpFR	18	7	0	PERISCOPE	1050	1	5	1	n/a	n/a	n/a	n/a	n/a
4882.116	n/a	RECOG_RESP	2441058	n/a	LTP273	ltpFR	18	7	0	PERISCOPE	1050	1	n/a	1	n/a	n/a	n/a	n/a	n/a
4882.686	n/a	RECOG_CONF	2441343	n/a	LTP273	ltpFR	18	7	0	PERISCOPE	1050	n/a	5	1	n/a	n/a	n/a	n/a	n/a
4884.49	n/a	RECOG_TARGET	2442245	n/a	LTP273	ltpFR	18	7	0	SOCIETY	1338	1	2	1	n/a	n/a	n/a	n/a	n/a
4885.106	n/a	RECOG_RESP	2442553	n/a	LTP273	ltpFR	18	7	0	SOCIETY	1338	1	n/a	1	n/a	n/a	n/a	n/a	n/a
4885.596	n/a	RECOG_CONF	2442798	n/a	LTP273	ltpFR	18	7	0	SOCIETY	1338	n/a	2	1	n/a	n/a	n/a	n/a	n/a
4887.15	n/a	RECOG_LURE	2443575	n/a	LTP273	ltpFR	18	7	n/a	RABBIT	1152	0	3	n/a	n/a	n/a	n/a	n/a	n/a
4888.02	n/a	RECOG_RESP	2444010	n/a	LTP273	ltpFR	18	7	n/a	RABBIT	1152	0	n/a	n/a	n/a	n/a	n/a	n/a	n/a
4888.666	n/a	RECOG_CONF	2444333	n/a	LTP273	ltpFR	18	7	n/a	RABBIT	1152	n/a	3	n/a	n/a	n/a	n/a	n/a	n/a
4890.262	n/a	RECOG_TARGET	2445131	n/a	LTP273	ltpFR	18	7	1	OCEAN	970	1	2	1	n/a	n/a	n/a	n/a	n/a
4891.42	n/a	RECOG_RESP	2445710	n/a	LTP273	ltpFR	18	7	1	OCEAN	970	1	n/a	1	n/a	n/a	n/a	n/a	n/a
4892.316	n/a	RECOG_CONF	2446158	n/a	LTP273	ltpFR	18	7	1	OCEAN	970	n/a	2	1	n/a	n/a	n/a	n/a	n/a
4894.01	n/a	RECOG_LURE	2447005	n/a	LTP273	ltpFR	18	7	n/a	JOURNAL	760	0	3	n/a	n/a	n/a	n/a	n/a	n/a
4894.782	n/a	RECOG_RESP	2447391	n/a	LTP273	ltpFR	18	7	n/a	JOURNAL	760	0	n/a	n/a	n/a	n/a	n/a	n/a	n/a
4895.276	n/a	RECOG_CONF	2447638	n/a	LTP273	ltpFR	18	7	n/a	JOURNAL	760	n/a	3	n/a	n/a	n/a	n/a	n/a	n/a
4896.854	n/a	RECOG_LURE	2448427	n/a	LTP273	ltpFR	18	7	n/a	VIDEO	1564	1	1	n/a	n/a	n/a	n/a	n/a	n/a
4897.326	n/a	RECOG_RESP	2448663	n/a	LTP273	ltpFR	18	7	n/a	VIDEO	1564	1	n/a	n/a	n/a	n/a	n/a	n/a	n/a
4898.186	n/a	RECOG_CONF	2449093	n/a	LTP273	ltpFR	18	7	n/a	VIDEO	1564	n/a	1	n/a	n/a	n/a	n/a	n/a	n/a
4899.648	n/a	RECOG_TARGET	2449824	n/a	LTP273	ltpFR	18	7	-1	YARN	1631	0	4	-1	n/a	n/a	n/a	n/a	n/a
4900.236	n/a	RECOG_RESP	2450118	n/a	LTP273	ltpFR	18	7	-1	YARN	1631	0	n/a	-1	n/a	n/a	n/a	n/a	n/a
4900.736	n/a	RECOG_CONF	2450368	n/a	LTP273	ltpFR	18	7	-1	YARN	1631	n/a	4	-1	n/a	n/a	n/a	n/a	n/a
4904.034	n/a	REC_START	2452017	n/a	LTP273	ltpFR	18	8	n/a	n/a	n/a	n/a	n/a	n/a	n/a	n/a	n/a	n/a	n/a
4904.082	n/a	RECOG_LURE	2452041	n/a	LTP273	ltpFR	18	8	n/a	POPE	1105	1	1	n/a	n/a	n/a	n/a	n/a	n/a
4904.62	n/a	RECOG_RESP	2452310	n/a	LTP273	ltpFR	18	8	n/a	POPE	1105	1	n/a	n/a	n/a	n/a	n/a	n/a	n/a
4905.354	n/a	RECOG_CONF	2452677	n/a	LTP273	ltpFR	18	8	n/a	POPE	1105	n/a	1	n/a	n/a	n/a	n/a	n/a	n/a
4907.01	n/a	RECOG_LURE	2453505	n/a	LTP273	ltpFR	18	8	n/a	CONSOLE	364	0	2	n/a	n/a	n/a	n/a	n/a	n/a
4907.9	n/a	RECOG_RESP	2453950	n/a	LTP273	ltpFR	18	8	n/a	CONSOLE	364	0	n/a	n/a	n/a	n/a	n/a	n/a	n/a
4908.284	n/a	RECOG_CONF	2454142	n/a	LTP273	ltpFR	18	8	n/a	CONSOLE	364	n/a	2	n/a	n/a	n/a	n/a	n/a	n/a
4909.954	n/a	RECOG_TARGET	2454977	n/a	LTP273	ltpFR	18	8	0	CINNAMON	310	1	4	0	n/a	n/a	n/a	n/a	n/a
4910.6	n/a	RECOG_RESP	2455300	n/a	LTP273	ltpFR	18	8	0	CINNAMON	310	1	n/a	0	n/a	n/a	n/a	n/a	n/a
4911.094	n/a	RECOG_CONF	2455547	n/a	LTP273	ltpFR	18	8	0	CINNAMON	310	n/a	4	0	n/a	n/a	n/a	n/a	n/a
4912.546	n/a	RECOG_TARGET	2456273	n/a	LTP273	ltpFR	18	8	1	COP	376	1	3	1	n/a	n/a	n/a	n/a	n/a
4913.11	n/a	RECOG_RESP	2456555	n/a	LTP273	ltpFR	18	8	1	COP	376	1	n/a	1	n/a	n/a	n/a	n/a	n/a
4913.566	n/a	RECOG_CONF	2456783	n/a	LTP273	ltpFR	18	8	1	COP	376	n/a	3	1	n/a	n/a	n/a	n/a	n/a
4915.058	n/a	RECOG_TARGET	2457529	n/a	LTP273	ltpFR	18	8	1	SCARECROW	1245	1	4	0	n/a	n/a	n/a	n/a	n/a
4915.516	n/a	RECOG_RESP	2457758	n/a	LTP273	ltpFR	18	8	1	SCARECROW	1245	1	n/a	0	n/a	n/a	n/a	n/a	n/a
4916.056	n/a	RECOG_CONF	2458028	n/a	LTP273	ltpFR	18	8	1	SCARECROW	1245	n/a	4	0	n/a	n/a	n/a	n/a	n/a
4917.684	n/a	RECOG_TARGET	2458842	n/a	LTP273	ltpFR	18	8	1	COLESLAW	344	1	3	0	n/a	n/a	n/a	n/a	n/a
4918.126	n/a	RECOG_RESP	2459063	n/a	LTP273	ltpFR	18	8	1	COLESLAW	344	1	n/a	0	n/a	n/a	n/a	n/a	n/a
4918.626	n/a	RECOG_CONF	2459313	n/a	LTP273	ltpFR	18	8	1	COLESLAW	344	n/a	3	0	n/a	n/a	n/a	n/a	n/a
4920.244	n/a	RECOG_LURE	2460122	n/a	LTP273	ltpFR	18	8	n/a	TICKET	1464	1	2	n/a	n/a	n/a	n/a	n/a	n/a
4920.866	n/a	RECOG_RESP	2460433	n/a	LTP273	ltpFR	18	8	n/a	TICKET	1464	1	n/a	n/a	n/a	n/a	n/a	n/a	n/a
4921.236	n/a	RECOG_CONF	2460618	n/a	LTP273	ltpFR	18	8	n/a	TICKET	1464	n/a	2	n/a	n/a	n/a	n/a	n/a	n/a
4922.988	n/a	RECOG_TARGET	2461494	n/a	LTP273	ltpFR	18	8	0	RADISH	1158	1	1	0	n/a	n/a	n/a	n/a	n/a
4923.49	n/a	RECOG_RESP	2461745	n/a	LTP273	ltpFR	18	8	0	RADISH	1158	1	n/a	0	n/a	n/a	n/a	n/a	n/a
4923.916	n/a	RECOG_CONF	2461958	n/a	LTP273	ltpFR	18	8	0	RADISH	1158	n/a	1	0	n/a	n/a	n/a	n/a	n/a
4925.664	n/a	RECOG_LURE	2462832	n/a	LTP273	ltpFR	18	8	n/a	SHIRT	1287	1	1	n/a	n/a	n/a	n/a	n/a	n/a
4926.04	n/a	RECOG_RESP	2463020	n/a	LTP273	ltpFR	18	8	n/a	SHIRT	1287	1	n/a	n/a	n/a	n/a	n/a	n/a	n/a
4926.576	n/a	RECOG_CONF	2463288	n/a	LTP273	ltpFR	18	8	n/a	SHIRT	1287	n/a	1	n/a	n/a	n/a	n/a	n/a	n/a
4928.072	n/a	RECOG_TARGET	2464036	n/a	LTP273	ltpFR	18	8	1	CHEF	290	1	3	1	n/a	n/a	n/a	n/a	n/a
4928.996	n/a	RECOG_RESP	2464498	n/a	LTP273	ltpFR	18	8	1	CHEF	290	1	n/a	1	n/a	n/a	n/a	n/a	n/a
4929.546	n/a	RECOG_CONF	2464773	n/a	LTP273	ltpFR	18	8	1	CHEF	290	n/a	3	1	n/a	n/a	n/a	n/a	n/a
4931.05	n/a	RECOG_TARGET	2465525	n/a	LTP273	ltpFR	18	8	1	CORPORATION	382	1	5	0	n/a	n/a	n/a	n/a	n/a
4931.726	n/a	RECOG_RESP	2465863	n/a	LTP273	ltpFR	18	8	1	CORPORATION	382	1	n/a	0	n/a	n/a	n/a	n/a	n/a
4932.196	n/a	RECOG_CONF	2466098	n/a	LTP273	ltpFR	18	8	1	CORPORATION	382	n/a	5	0	n/a	n/a	n/a	n/a	n/a
4933.796	n/a	RECOG_TARGET	2466898	n/a	LTP273	ltpFR	18	8	-1	SHEEP	1278	1	5	-1	n/a	n/a	n/a	n/a	n/a
4934.332	n/a	RECOG_RESP	2467166	n/a	LTP273	ltpFR	18	8	-1	SHEEP	1278	1	n/a	-1	n/a	n/a	n/a	n/a	n/a
4934.836	n/a	RECOG_CONF	2467418	n/a	LTP273	ltpFR	18	8	-1	SHEEP	1278	n/a	5	-1	n/a	n/a	n/a	n/a	n/a
4936.472	n/a	RECOG_LURE	2468236	n/a	LTP273	ltpFR	18	8	n/a	FIELD	562	0	3	n/a	n/a	n/a	n/a	n/a	n/a
4937.156	n/a	RECOG_RESP	2468578	n/a	LTP273	ltpFR	18	8	n/a	FIELD	562	0	n/a	n/a	n/a	n/a	n/a	n/a	n/a
4937.616	n/a	RECOG_CONF	2468808	n/a	LTP273	ltpFR	18	8	n/a	FIELD	562	n/a	3	n/a	n/a	n/a	n/a	n/a	n/a
4939.15	n/a	RECOG_LURE	2469575	n/a	LTP273	ltpFR	18	8	n/a	CAGE	218	1	2	n/a	n/a	n/a	n/a	n/a	n/a
4939.672	n/a	RECOG_RESP	2469836	n/a	LTP273	ltpFR	18	8	n/a	CAGE	218	1	n/a	n/a	n/a	n/a	n/a	n/a	n/a
4940.176	n/a	RECOG_CONF	2470088	n/a	LTP273	ltpFR	18	8	n/a	CAGE	218	n/a	2	n/a	n/a	n/a	n/a	n/a	n/a
4941.792	n/a	RECOG_TARGET	2470896	n/a	LTP273	ltpFR	18	8	0	BUTTER	205	1	4	0	n/a	n/a	n/a	n/a	n/a
4942.356	n/a	RECOG_RESP	2471178	n/a	LTP273	ltpFR	18	8	0	BUTTER	205	1	n/a	0	n/a	n/a	n/a	n/a	n/a
4942.906	n/a	RECOG_CONF	2471453	n/a	LTP273	ltpFR	18	8	0	BUTTER	205	n/a	4	0	n/a	n/a	n/a	n/a	n/a
4944.486	n/a	RECOG_LURE	2472243	n/a	LTP273	ltpFR	18	8	n/a	CHECK	284	1	3	n/a	n/a	n/a	n/a	n/a	n/a
4945.042	n/a	RECOG_RESP	2472521	n/a	LTP273	ltpFR	18	8	n/a	CHECK	284	1	n/a	n/a	n/a	n/a	n/a	n/a	n/a
4945.506	n/a	RECOG_CONF	2472753	n/a	LTP273	ltpFR	18	8	n/a	CHECK	284	n/a	3	n/a	n/a	n/a	n/a	n/a	n/a
4947.112	n/a	RECOG_LURE	2473556	n/a	LTP273	ltpFR	18	8	n/a	LIPSTICK	829	0	3	n/a	n/a	n/a	n/a	n/a	n/a
4947.742	n/a	RECOG_RESP	2473871	n/a	LTP273	ltpFR	18	8	n/a	LIPSTICK	829	0	n/a	n/a	n/a	n/a	n/a	n/a	n/a
4948.246	n/a	RECOG_CONF	2474123	n/a	LTP273	ltpFR	18	8	n/a	LIPSTICK	829	n/a	3	n/a	n/a	n/a	n/a	n/a	n/a
