mstime	trial_type	stim_file	subject	experiment	session	trial	task	item_name	item_num	recog_conf	resp	color_b	color_g	color_r	case	font
0	SESS_START	n/a	LTP264	ltpFR	2	n/a	n/a	n/a	n/a	3	n/a	n/a	n/a	n/a	n/a	n/a
45126	WORD	wordpools/wasnorm_wordpool_less_exclusions.txt	LTP264	ltpFR	2	1	0	DRYER	503	5	1	0	0.5869140625	0.422607421875	upper	../fonts/zerothre.ttf
49175	WORD	wordpools/wasnorm_wordpool_less_exclusions.txt	LTP264	ltpFR	2	1	0	PISTON	1076	n/a	0	0	0.5869140625	0.422607421875	upper	../fonts/zerothre.ttf
53223	WORD	wordpools/wasnorm_wordpool_less_exclusions.txt	LTP264	ltpFR	2	1	0	RADIATOR	1156	n/a	1	0	0.5869140625	0.422607421875	upper	../fonts/zerothre.ttf
57438	WORD	wordpools/wasnorm_wordpool_less_exclusions.txt	LTP264	ltpFR	2	1	1	ANTENNA	28	n/a	0	1	0.412841796875	0.57763671875	lower	../fonts/amplitud.ttf
61453	WORD	wordpools/wasnorm_wordpool_less_exclusions.txt	LTP264	ltpFR	2	1	1	TABLE	1426	n/a	1	1	0.412841796875	0.57763671875	lower	../fonts/amplitud.ttf
65552	WORD	wordpools/wasnorm_wordpool_less_exclusions.txt	LTP264	ltpFR	2	1	1	LIMOUSINE	824	n/a	0	1	0.412841796875	0.57763671875	lower	../fonts/amplitud.ttf
69433	WORD	wordpools/wasnorm_wordpool_less_exclusions.txt	LTP264	ltpFR	2	1	0	ATHLETE	52	n/a	1	0	0.5869140625	0.422607421875	upper	../fonts/zerothre.ttf
73499	WORD	wordpools/wasnorm_wordpool_less_exclusions.txt	LTP264	ltpFR	2	1	0	WICK	1607	n/a	1	0	0.5869140625	0.422607421875	upper	../fonts/zerothre.ttf
77480	WORD	wordpools/wasnorm_wordpool_less_exclusions.txt	LTP264	ltpFR	2	1	0	LACE	792	n/a	0	0	0.5869140625	0.422607421875	upper	../fonts/zerothre.ttf
81529	WORD	wordpools/wasnorm_wordpool_less_exclusions.txt	LTP264	ltpFR	2	1	1	EAGLE	512	n/a	1	1	0.412841796875	0.57763671875	lower	../fonts/amplitud.ttf
85527	WORD	wordpools/wasnorm_wordpool_less_exclusions.txt	LTP264	ltpFR	2	1	1	CROW	414	n/a	1	1	0.412841796875	0.57763671875	lower	../fonts/amplitud.ttf
89610	WORD	wordpools/wasnorm_wordpool_less_exclusions.txt	LTP264	ltpFR	2	1	1	COMB	351	n/a	0	1	0.412841796875	0.57763671875	lower	../fonts/amplitud.ttf
93558	WORD	wordpools/wasnorm_wordpool_less_exclusions.txt	LTP264	ltpFR	2	1	1	FOREHEAD	592	n/a	1	1	0.412841796875	0.57763671875	lower	../fonts/amplitud.ttf
97573	WORD	wordpools/wasnorm_wordpool_less_exclusions.txt	LTP264	ltpFR	2	1	1	DESIGNER	451	n/a	1	1	0.412841796875	0.57763671875	lower	../fonts/amplitud.ttf
101772	WORD	wordpools/wasnorm_wordpool_less_exclusions.txt	LTP264	ltpFR	2	1	0	OUTFIT	988	n/a	1	0	0.5869140625	0.422607421875	upper	../fonts/zerothre.ttf
105653	WORD	wordpools/wasnorm_wordpool_less_exclusions.txt	LTP264	ltpFR	2	1	0	SALMON	1227	n/a	1	0	0.5869140625	0.422607421875	upper	../fonts/zerothre.ttf
111577	REC_START	n/a	LTP264	ltpFR	2	1	n/a	n/a	n/a	n/a	n/a	n/a	n/a	n/a	n/a	n/a
112160	REC_WORD	wordpools/wasnorm_wordpool_less_exclusions.txt	LTP264	ltpFR	2	1	1	DESIGNER	451	n/a	1	n/a	n/a	n/a	n/a	n/a
112963	REC_WORD	wordpools/wasnorm_wordpool_less_exclusions.txt	LTP264	ltpFR	2	1	0	SALMON	1227	n/a	1	n/a	n/a	n/a	n/a	n/a
113928	REC_WORD	wordpools/wasnorm_wordpool_less_exclusions.txt	LTP264	ltpFR	2	1	0	OUTFIT	988	n/a	1	n/a	n/a	n/a	n/a	n/a
114694	REC_WORD	wordpools/wasnorm_wordpool_less_exclusions.txt	LTP264	ltpFR	2	1	0	PISTON	1076	n/a	0	n/a	n/a	n/a	n/a	n/a
115446	REC_WORD	wordpools/wasnorm_wordpool_less_exclusions.txt	LTP264	ltpFR	2	1	0	RADIATOR	1156	n/a	1	n/a	n/a	n/a	n/a	n/a
116766	REC_WORD	wordpools/wasnorm_wordpool_less_exclusions.txt	LTP264	ltpFR	2	1	0	DRYER	503	n/a	1	n/a	n/a	n/a	n/a	n/a
117689	REC_WORD	wordpools/wasnorm_wordpool_less_exclusions.txt	LTP264	ltpFR	2	1	1	EAGLE	512	n/a	1	n/a	n/a	n/a	n/a	n/a
118267	REC_WORD	wordpools/wasnorm_wordpool_less_exclusions.txt	LTP264	ltpFR	2	1	1	CROW	414	n/a	1	n/a	n/a	n/a	n/a	n/a
119117	REC_WORD	wordpools/wasnorm_wordpool_less_exclusions.txt	LTP264	ltpFR	2	1	1	COMB	351	n/a	0	n/a	n/a	n/a	n/a	n/a
120022	REC_WORD	wordpools/wasnorm_wordpool_less_exclusions.txt	LTP264	ltpFR	2	1	0	WICK	1607	n/a	1	n/a	n/a	n/a	n/a	n/a
120766	REC_WORD	wordpools/wasnorm_wordpool_less_exclusions.txt	LTP264	ltpFR	2	1	0	LACE	792	n/a	0	n/a	n/a	n/a	n/a	n/a
123284	REC_WORD	wordpools/wasnorm_wordpool_less_exclusions.txt	LTP264	ltpFR	2	1	0	ATHLETE	52	n/a	1	n/a	n/a	n/a	n/a	n/a
124997	REC_WORD	wordpools/wasnorm_wordpool_less_exclusions.txt	LTP264	ltpFR	2	1	1	FOREHEAD	592	n/a	1	n/a	n/a	n/a	n/a	n/a
193201	WORD	wordpools/wasnorm_wordpool_less_exclusions.txt	LTP264	ltpFR	2	2	1	SIDING	1304	n/a	0	1	0.412841796875	0.57763671875	lower	../fonts/amplitud.ttf
197149	WORD	wordpools/wasnorm_wordpool_less_exclusions.txt	LTP264	ltpFR	2	2	1	PRESIDENT	1121	n/a	1	1	0.412841796875	0.57763671875	lower	../fonts/amplitud.ttf
201195	WORD	wordpools/wasnorm_wordpool_less_exclusions.txt	LTP264	ltpFR	2	2	1	LEADER	807	n/a	1	1	0.412841796875	0.57763671875	lower	../fonts/amplitud.ttf
205263	WORD	wordpools/wasnorm_wordpool_less_exclusions.txt	LTP264	ltpFR	2	2	0	PENCIL	1042	n/a	1	0	0.5869140625	0.422607421875	upper	../fonts/zerothre.ttf
209428	WORD	wordpools/wasnorm_wordpool_less_exclusions.txt	LTP264	ltpFR	2	2	0	DOVE	491	n/a	0	0	0.5869140625	0.422607421875	upper	../fonts/zerothre.ttf
213360	WORD	wordpools/wasnorm_wordpool_less_exclusions.txt	LTP264	ltpFR	2	2	0	SWIMMER	1420	n/a	1	0	0.5869140625	0.422607421875	upper	../fonts/zerothre.ttf
217558	WORD	wordpools/wasnorm_wordpool_less_exclusions.txt	LTP264	ltpFR	2	2	0	SCREEN	1253	n/a	1	0	0.5869140625	0.422607421875	upper	../fonts/zerothre.ttf
221406	WORD	wordpools/wasnorm_wordpool_less_exclusions.txt	LTP264	ltpFR	2	2	1	DOOR	486	n/a	1	1	0.412841796875	0.57763671875	lower	../fonts/amplitud.ttf
225622	WORD	wordpools/wasnorm_wordpool_less_exclusions.txt	LTP264	ltpFR	2	2	1	NECKLACE	940	n/a	0	1	0.412841796875	0.57763671875	lower	../fonts/amplitud.ttf
229484	WORD	wordpools/wasnorm_wordpool_less_exclusions.txt	LTP264	ltpFR	2	2	0	PAINT	1003	n/a	0	0	0.5869140625	0.422607421875	upper	../fonts/zerothre.ttf
233435	WORD	wordpools/wasnorm_wordpool_less_exclusions.txt	LTP264	ltpFR	2	2	0	SQUID	1361	n/a	1	0	0.5869140625	0.422607421875	upper	../fonts/zerothre.ttf
237351	WORD	wordpools/wasnorm_wordpool_less_exclusions.txt	LTP264	ltpFR	2	2	0	POCKETBOOK	1094	n/a	0	0	0.5869140625	0.422607421875	upper	../fonts/zerothre.ttf
241482	WORD	wordpools/wasnorm_wordpool_less_exclusions.txt	LTP264	ltpFR	2	2	0	RUBY	1214	n/a	1	0	0.5869140625	0.422607421875	upper	../fonts/zerothre.ttf
245664	WORD	wordpools/wasnorm_wordpool_less_exclusions.txt	LTP264	ltpFR	2	2	1	NET	946	n/a	0	1	0.412841796875	0.57763671875	lower	../fonts/amplitud.ttf
249646	WORD	wordpools/wasnorm_wordpool_less_exclusions.txt	LTP264	ltpFR	2	2	1	STREAM	1392	n/a	0	1	0.412841796875	0.57763671875	lower	../fonts/amplitud.ttf
253527	WORD	wordpools/wasnorm_wordpool_less_exclusions.txt	LTP264	ltpFR	2	2	1	LAKE	796	n/a	0	1	0.412841796875	0.57763671875	lower	../fonts/amplitud.ttf
259587	REC_START	n/a	LTP264	ltpFR	2	2	n/a	n/a	n/a	n/a	n/a	n/a	n/a	n/a	n/a	n/a
261578	REC_WORD	wordpools/wasnorm_wordpool_less_exclusions.txt	LTP264	ltpFR	2	2	1	STREAM	1392	n/a	0	n/a	n/a	n/a	n/a	n/a
262571	REC_WORD	wordpools/wasnorm_wordpool_less_exclusions.txt	LTP264	ltpFR	2	2	1	LAKE	796	n/a	0	n/a	n/a	n/a	n/a	n/a
262953	REC_WORD	wordpools/wasnorm_wordpool_less_exclusions.txt	LTP264	ltpFR	2	2	1	PRESIDENT	1121	n/a	1	n/a	n/a	n/a	n/a	n/a
263528	REC_WORD	wordpools/wasnorm_wordpool_less_exclusions.txt	LTP264	ltpFR	2	2	1	SIDING	1304	n/a	0	n/a	n/a	n/a	n/a	n/a
264327	REC_WORD	wordpools/wasnorm_wordpool_less_exclusions.txt	LTP264	ltpFR	2	2	0	PENCIL	1042	n/a	1	n/a	n/a	n/a	n/a	n/a
265177	REC_WORD	wordpools/wasnorm_wordpool_less_exclusions.txt	LTP264	ltpFR	2	2	0	DOVE	491	n/a	0	n/a	n/a	n/a	n/a	n/a
266971	REC_WORD	wordpools/wasnorm_wordpool_less_exclusions.txt	LTP264	ltpFR	2	2	0	SQUID	1361	n/a	1	n/a	n/a	n/a	n/a	n/a
267623	REC_WORD	wordpools/wasnorm_wordpool_less_exclusions.txt	LTP264	ltpFR	2	2	0	POCKETBOOK	1094	n/a	0	n/a	n/a	n/a	n/a	n/a
268564	REC_WORD	wordpools/wasnorm_wordpool_less_exclusions.txt	LTP264	ltpFR	2	2	0	RUBY	1214	n/a	1	n/a	n/a	n/a	n/a	n/a
301051	REC_WORD	wordpools/wasnorm_wordpool_less_exclusions.txt	LTP264	ltpFR	2	2	1	SIDING	1304	n/a	0	n/a	n/a	n/a	n/a	n/a
302480	REC_WORD	wordpools/wasnorm_wordpool_less_exclusions.txt	LTP264	ltpFR	2	2	1	NET	946	n/a	0	n/a	n/a	n/a	n/a	n/a
303577	REC_WORD	wordpools/wasnorm_wordpool_less_exclusions.txt	LTP264	ltpFR	2	2	1	NECKLACE	940	n/a	0	n/a	n/a	n/a	n/a	n/a
305519	REC_WORD	wordpools/wasnorm_wordpool_less_exclusions.txt	LTP264	ltpFR	2	2	0	PAINT	1003	n/a	0	n/a	n/a	n/a	n/a	n/a
320827	REC_WORD	wordpools/wasnorm_wordpool_less_exclusions.txt	LTP264	ltpFR	2	2	1	DOOR	486	n/a	1	n/a	n/a	n/a	n/a	n/a
328375	REC_WORD	wordpools/wasnorm_wordpool_less_exclusions.txt	LTP264	ltpFR	2	2	1	NET	946	n/a	0	n/a	n/a	n/a	n/a	n/a
330656	REC_WORD	wordpools/wasnorm_wordpool_less_exclusions.txt	LTP264	ltpFR	2	2	0	SCREEN	1253	n/a	1	n/a	n/a	n/a	n/a	n/a
341092	WORD	wordpools/wasnorm_wordpool_less_exclusions.txt	LTP264	ltpFR	2	3	0	LIBRARY	816	n/a	1	0	0.5869140625	0.422607421875	upper	../fonts/zerothre.ttf
345053	WORD	wordpools/wasnorm_wordpool_less_exclusions.txt	LTP264	ltpFR	2	3	0	ACROBAT	4	n/a	1	0	0.5869140625	0.422607421875	upper	../fonts/zerothre.ttf
348955	WORD	wordpools/wasnorm_wordpool_less_exclusions.txt	LTP264	ltpFR	2	3	0	COLESLAW	344	n/a	0	0	0.5869140625	0.422607421875	upper	../fonts/zerothre.ttf
352953	WORD	wordpools/wasnorm_wordpool_less_exclusions.txt	LTP264	ltpFR	2	3	0	NOTE	958	n/a	1	0	0.5869140625	0.422607421875	upper	../fonts/zerothre.ttf
356932	WORD	wordpools/wasnorm_wordpool_less_exclusions.txt	LTP264	ltpFR	2	3	1	CONVENT	370	n/a	0	1	0.412841796875	0.57763671875	lower	../fonts/amplitud.ttf
360950	WORD	wordpools/wasnorm_wordpool_less_exclusions.txt	LTP264	ltpFR	2	3	1	SHORTCAKE	1292	n/a	0	1	0.412841796875	0.57763671875	lower	../fonts/amplitud.ttf
365112	WORD	wordpools/wasnorm_wordpool_less_exclusions.txt	LTP264	ltpFR	2	3	1	PICNIC	1060	n/a	0	1	0.412841796875	0.57763671875	lower	../fonts/amplitud.ttf
369195	WORD	wordpools/wasnorm_wordpool_less_exclusions.txt	LTP264	ltpFR	2	3	0	DONKEY	484	n/a	1	0	0.5869140625	0.422607421875	upper	../fonts/zerothre.ttf
373409	WORD	wordpools/wasnorm_wordpool_less_exclusions.txt	LTP264	ltpFR	2	3	0	HORSE	719	n/a	1	0	0.5869140625	0.422607421875	upper	../fonts/zerothre.ttf
377378	WORD	wordpools/wasnorm_wordpool_less_exclusions.txt	LTP264	ltpFR	2	3	0	JOINT	758	n/a	1	0	0.5869140625	0.422607421875	upper	../fonts/zerothre.ttf
381526	WORD	wordpools/wasnorm_wordpool_less_exclusions.txt	LTP264	ltpFR	2	3	0	GANG	619	n/a	1	0	0.5869140625	0.422607421875	upper	../fonts/zerothre.ttf
385491	WORD	wordpools/wasnorm_wordpool_less_exclusions.txt	LTP264	ltpFR	2	3	1	PEOPLE	1046	n/a	1	1	0.412841796875	0.57763671875	lower	../fonts/amplitud.ttf
389640	WORD	wordpools/wasnorm_wordpool_less_exclusions.txt	LTP264	ltpFR	2	3	1	HOUND	724	n/a	1	1	0.412841796875	0.57763671875	lower	../fonts/amplitud.ttf
393522	WORD	wordpools/wasnorm_wordpool_less_exclusions.txt	LTP264	ltpFR	2	3	1	PORTRAIT	1111	n/a	0	1	0.412841796875	0.57763671875	lower	../fonts/amplitud.ttf
397453	WORD	wordpools/wasnorm_wordpool_less_exclusions.txt	LTP264	ltpFR	2	3	1	CAULIFLOWER	262	n/a	1	1	0.412841796875	0.57763671875	lower	../fonts/amplitud.ttf
401452	WORD	wordpools/wasnorm_wordpool_less_exclusions.txt	LTP264	ltpFR	2	3	1	CHURCH	307	n/a	1	1	0.412841796875	0.57763671875	lower	../fonts/amplitud.ttf
407408	REC_START	n/a	LTP264	ltpFR	2	3	n/a	n/a	n/a	n/a	n/a	n/a	n/a	n/a	n/a	n/a
408681	REC_WORD	wordpools/wasnorm_wordpool_less_exclusions.txt	LTP264	ltpFR	2	3	0	LIBRARY	816	n/a	1	n/a	n/a	n/a	n/a	n/a
409787	REC_WORD	wordpools/wasnorm_wordpool_less_exclusions.txt	LTP264	ltpFR	2	3	0	ACROBAT	4	n/a	1	n/a	n/a	n/a	n/a	n/a
410843	REC_WORD	wordpools/wasnorm_wordpool_less_exclusions.txt	LTP264	ltpFR	2	3	0	COLESLAW	344	n/a	0	n/a	n/a	n/a	n/a	n/a
412457	REC_WORD	wordpools/wasnorm_wordpool_less_exclusions.txt	LTP264	ltpFR	2	3	1	CONVENT	370	n/a	0	n/a	n/a	n/a	n/a	n/a
413855	REC_WORD	wordpools/wasnorm_wordpool_less_exclusions.txt	LTP264	ltpFR	2	3	0	HORSE	719	n/a	1	n/a	n/a	n/a	n/a	n/a
414993	REC_WORD	wordpools/wasnorm_wordpool_less_exclusions.txt	LTP264	ltpFR	2	3	0	DONKEY	484	n/a	1	n/a	n/a	n/a	n/a	n/a
417356	REC_WORD	wordpools/wasnorm_wordpool_less_exclusions.txt	LTP264	ltpFR	2	3	0	JOINT	758	n/a	1	n/a	n/a	n/a	n/a	n/a
422634	REC_WORD	wordpools/wasnorm_wordpool_less_exclusions.txt	LTP264	ltpFR	2	3	1	PICNIC	1060	n/a	0	n/a	n/a	n/a	n/a	n/a
425405	REC_WORD	wordpools/wasnorm_wordpool_less_exclusions.txt	LTP264	ltpFR	2	3	1	CHURCH	307	n/a	1	n/a	n/a	n/a	n/a	n/a
426622	REC_WORD	wordpools/wasnorm_wordpool_less_exclusions.txt	LTP264	ltpFR	2	3	0	GANG	619	n/a	1	n/a	n/a	n/a	n/a	n/a
427503	REC_WORD	wordpools/wasnorm_wordpool_less_exclusions.txt	LTP264	ltpFR	2	3	1	PEOPLE	1046	n/a	1	n/a	n/a	n/a	n/a	n/a
433979	REC_WORD	wordpools/wasnorm_wordpool_less_exclusions.txt	LTP264	ltpFR	2	3	1	CAULIFLOWER	262	n/a	1	n/a	n/a	n/a	n/a	n/a
434787	REC_WORD	wordpools/wasnorm_wordpool_less_exclusions.txt	LTP264	ltpFR	2	3	1	PORTRAIT	1111	n/a	0	n/a	n/a	n/a	n/a	n/a
493482	WORD	wordpools/wasnorm_wordpool_less_exclusions.txt	LTP264	ltpFR	2	4	0	OBOE	969	n/a	0	0	0.5869140625	0.422607421875	upper	../fonts/zerothre.ttf
497681	WORD	wordpools/wasnorm_wordpool_less_exclusions.txt	LTP264	ltpFR	2	4	0	WAITRESS	1581	n/a	1	0	0.5869140625	0.422607421875	upper	../fonts/zerothre.ttf
501763	WORD	wordpools/wasnorm_wordpool_less_exclusions.txt	LTP264	ltpFR	2	4	0	BLANKET	135	n/a	1	0	0.5869140625	0.422607421875	upper	../fonts/zerothre.ttf
505930	WORD	wordpools/wasnorm_wordpool_less_exclusions.txt	LTP264	ltpFR	2	4	0	WHEEL	1603	n/a	1	0	0.5869140625	0.422607421875	upper	../fonts/zerothre.ttf
510112	WORD	wordpools/wasnorm_wordpool_less_exclusions.txt	LTP264	ltpFR	2	4	0	BALCONY	72	n/a	1	0	0.5869140625	0.422607421875	upper	../fonts/zerothre.ttf
514144	WORD	wordpools/wasnorm_wordpool_less_exclusions.txt	LTP264	ltpFR	2	4	0	PAGE	1001	n/a	1	0	0.5869140625	0.422607421875	upper	../fonts/zerothre.ttf
518276	WORD	wordpools/wasnorm_wordpool_less_exclusions.txt	LTP264	ltpFR	2	4	0	BUS	201	n/a	1	0	0.5869140625	0.422607421875	upper	../fonts/zerothre.ttf
522325	WORD	wordpools/wasnorm_wordpool_less_exclusions.txt	LTP264	ltpFR	2	4	0	SHEPHERD	1283	n/a	1	0	0.5869140625	0.422607421875	upper	../fonts/zerothre.ttf
526439	WORD	wordpools/wasnorm_wordpool_less_exclusions.txt	LTP264	ltpFR	2	4	0	SHEEP	1278	n/a	1	0	0.5869140625	0.422607421875	upper	../fonts/zerothre.ttf
530622	WORD	wordpools/wasnorm_wordpool_less_exclusions.txt	LTP264	ltpFR	2	4	0	SAXOPHONE	1240	n/a	1	0	0.5869140625	0.422607421875	upper	../fonts/zerothre.ttf
534553	WORD	wordpools/wasnorm_wordpool_less_exclusions.txt	LTP264	ltpFR	2	4	0	COURSE	390	n/a	0	0	0.5869140625	0.422607421875	upper	../fonts/zerothre.ttf
538602	WORD	wordpools/wasnorm_wordpool_less_exclusions.txt	LTP264	ltpFR	2	4	0	CLIFF	322	n/a	1	0	0.5869140625	0.422607421875	upper	../fonts/zerothre.ttf
542617	WORD	wordpools/wasnorm_wordpool_less_exclusions.txt	LTP264	ltpFR	2	4	0	MESSAGE	888	n/a	1	0	0.5869140625	0.422607421875	upper	../fonts/zerothre.ttf
546465	WORD	wordpools/wasnorm_wordpool_less_exclusions.txt	LTP264	ltpFR	2	4	0	BILL	126	n/a	0	0	0.5869140625	0.422607421875	upper	../fonts/zerothre.ttf
550513	WORD	wordpools/wasnorm_wordpool_less_exclusions.txt	LTP264	ltpFR	2	4	0	POWDER	1117	n/a	0	0	0.5869140625	0.422607421875	upper	../fonts/zerothre.ttf
554712	WORD	wordpools/wasnorm_wordpool_less_exclusions.txt	LTP264	ltpFR	2	4	0	GLASSES	640	n/a	1	0	0.5869140625	0.422607421875	upper	../fonts/zerothre.ttf
560468	REC_START	n/a	LTP264	ltpFR	2	4	n/a	n/a	n/a	n/a	n/a	n/a	n/a	n/a	n/a	n/a
561579	REC_WORD	wordpools/wasnorm_wordpool_less_exclusions.txt	LTP264	ltpFR	2	4	0	MESSAGE	888	n/a	1	n/a	n/a	n/a	n/a	n/a
562567	REC_WORD	wordpools/wasnorm_wordpool_less_exclusions.txt	LTP264	ltpFR	2	4	0	BILL	126	n/a	0	n/a	n/a	n/a	n/a	n/a
563193	REC_WORD	wordpools/wasnorm_wordpool_less_exclusions.txt	LTP264	ltpFR	2	4	0	POWDER	1117	n/a	0	n/a	n/a	n/a	n/a	n/a
563976	REC_WORD	wordpools/wasnorm_wordpool_less_exclusions.txt	LTP264	ltpFR	2	4	0	GLASSES	640	n/a	1	n/a	n/a	n/a	n/a	n/a
564910	REC_WORD	wordpools/wasnorm_wordpool_less_exclusions.txt	LTP264	ltpFR	2	4	0	WAITRESS	1581	n/a	1	n/a	n/a	n/a	n/a	n/a
565674	REC_WORD	wordpools/wasnorm_wordpool_less_exclusions.txt	LTP264	ltpFR	2	4	0	BLANKET	135	n/a	1	n/a	n/a	n/a	n/a	n/a
566392	REC_WORD	wordpools/wasnorm_wordpool_less_exclusions.txt	LTP264	ltpFR	2	4	0	OBOE	969	n/a	0	n/a	n/a	n/a	n/a	n/a
567079	REC_WORD	wordpools/wasnorm_wordpool_less_exclusions.txt	LTP264	ltpFR	2	4	0	BALCONY	72	n/a	1	n/a	n/a	n/a	n/a	n/a
568150	REC_WORD	wordpools/wasnorm_wordpool_less_exclusions.txt	LTP264	ltpFR	2	4	0	SHEPHERD	1283	n/a	1	n/a	n/a	n/a	n/a	n/a
568900	REC_WORD	wordpools/wasnorm_wordpool_less_exclusions.txt	LTP264	ltpFR	2	4	0	SHEEP	1278	n/a	1	n/a	n/a	n/a	n/a	n/a
569510	REC_WORD	wordpools/wasnorm_wordpool_less_exclusions.txt	LTP264	ltpFR	2	4	0	SAXOPHONE	1240	n/a	1	n/a	n/a	n/a	n/a	n/a
570437	REC_WORD	wordpools/wasnorm_wordpool_less_exclusions.txt	LTP264	ltpFR	2	4	0	BUS	201	n/a	1	n/a	n/a	n/a	n/a	n/a
571039	REC_WORD	wordpools/wasnorm_wordpool_less_exclusions.txt	LTP264	ltpFR	2	4	0	PAGE	1001	n/a	1	n/a	n/a	n/a	n/a	n/a
576412	REC_WORD	wordpools/wasnorm_wordpool_less_exclusions.txt	LTP264	ltpFR	2	4	0	BILL	126	n/a	0	n/a	n/a	n/a	n/a	n/a
603300	REC_WORD	wordpools/wasnorm_wordpool_less_exclusions.txt	LTP264	ltpFR	2	4	0	CLIFF	322	n/a	1	n/a	n/a	n/a	n/a	n/a
647312	WORD	wordpools/wasnorm_wordpool_less_exclusions.txt	LTP264	ltpFR	2	5	-1	BARLEY	88	n/a	-1	1	1.0	1.0	upper	../fonts/Verdana.ttf
651160	WORD	wordpools/wasnorm_wordpool_less_exclusions.txt	LTP264	ltpFR	2	5	-1	ROOSTER	1209	n/a	-1	1	1.0	1.0	upper	../fonts/Verdana.ttf
655008	WORD	wordpools/wasnorm_wordpool_less_exclusions.txt	LTP264	ltpFR	2	5	-1	KITE	779	n/a	-1	1	1.0	1.0	upper	../fonts/Verdana.ttf
659154	WORD	wordpools/wasnorm_wordpool_less_exclusions.txt	LTP264	ltpFR	2	5	-1	PEAR	1033	n/a	-1	1	1.0	1.0	upper	../fonts/Verdana.ttf
663119	WORD	wordpools/wasnorm_wordpool_less_exclusions.txt	LTP264	ltpFR	2	5	-1	TOWN	1491	n/a	-1	1	1.0	1.0	upper	../fonts/Verdana.ttf
667154	WORD	wordpools/wasnorm_wordpool_less_exclusions.txt	LTP264	ltpFR	2	5	-1	JEWEL	757	n/a	-1	1	1.0	1.0	upper	../fonts/Verdana.ttf
671002	WORD	wordpools/wasnorm_wordpool_less_exclusions.txt	LTP264	ltpFR	2	5	-1	RING	1193	n/a	-1	1	1.0	1.0	upper	../fonts/Verdana.ttf
675100	WORD	wordpools/wasnorm_wordpool_less_exclusions.txt	LTP264	ltpFR	2	5	-1	RAZOR	1171	n/a	-1	1	1.0	1.0	upper	../fonts/Verdana.ttf
679146	WORD	wordpools/wasnorm_wordpool_less_exclusions.txt	LTP264	ltpFR	2	5	-1	SHEARS	1276	n/a	-1	1	1.0	1.0	upper	../fonts/Verdana.ttf
683081	WORD	wordpools/wasnorm_wordpool_less_exclusions.txt	LTP264	ltpFR	2	5	-1	MOTEL	919	n/a	-1	1	1.0	1.0	upper	../fonts/Verdana.ttf
687146	WORD	wordpools/wasnorm_wordpool_less_exclusions.txt	LTP264	ltpFR	2	5	-1	NEWSPAPER	948	n/a	-1	1	1.0	1.0	upper	../fonts/Verdana.ttf
691175	WORD	wordpools/wasnorm_wordpool_less_exclusions.txt	LTP264	ltpFR	2	5	-1	SEAGULL	1261	n/a	-1	1	1.0	1.0	upper	../fonts/Verdana.ttf
695093	WORD	wordpools/wasnorm_wordpool_less_exclusions.txt	LTP264	ltpFR	2	5	-1	SMOG	1330	n/a	-1	1	1.0	1.0	upper	../fonts/Verdana.ttf
699208	WORD	wordpools/wasnorm_wordpool_less_exclusions.txt	LTP264	ltpFR	2	5	-1	SUITE	1404	n/a	-1	1	1.0	1.0	upper	../fonts/Verdana.ttf
703307	WORD	wordpools/wasnorm_wordpool_less_exclusions.txt	LTP264	ltpFR	2	5	-1	PLANET	1082	n/a	-1	1	1.0	1.0	upper	../fonts/Verdana.ttf
707421	WORD	wordpools/wasnorm_wordpool_less_exclusions.txt	LTP264	ltpFR	2	5	-1	CLOUD	328	n/a	-1	1	1.0	1.0	upper	../fonts/Verdana.ttf
713529	REC_START	n/a	LTP264	ltpFR	2	5	n/a	n/a	n/a	n/a	n/a	n/a	n/a	n/a	n/a	n/a
715186	REC_WORD	wordpools/wasnorm_wordpool_less_exclusions.txt	LTP264	ltpFR	2	5	-1	SUITE	1404	n/a	-1	n/a	n/a	n/a	n/a	n/a
716174	REC_WORD	wordpools/wasnorm_wordpool_less_exclusions.txt	LTP264	ltpFR	2	5	-1	PLANET	1082	n/a	-1	n/a	n/a	n/a	n/a	n/a
717117	REC_WORD	wordpools/wasnorm_wordpool_less_exclusions.txt	LTP264	ltpFR	2	5	-1	CLOUD	328	n/a	-1	n/a	n/a	n/a	n/a	n/a
719445	REC_WORD	wordpools/wasnorm_wordpool_less_exclusions.txt	LTP264	ltpFR	2	5	-1	JEWEL	757	n/a	-1	n/a	n/a	n/a	n/a	n/a
720439	REC_WORD	wordpools/wasnorm_wordpool_less_exclusions.txt	LTP264	ltpFR	2	5	-1	RING	1193	n/a	-1	n/a	n/a	n/a	n/a	n/a
721449	REC_WORD	wordpools/wasnorm_wordpool_less_exclusions.txt	LTP264	ltpFR	2	5	-1	NEWSPAPER	948	n/a	-1	n/a	n/a	n/a	n/a	n/a
722507	REC_WORD	wordpools/wasnorm_wordpool_less_exclusions.txt	LTP264	ltpFR	2	5	-1	SHEARS	1276	n/a	-1	n/a	n/a	n/a	n/a	n/a
723754	REC_WORD	wordpools/wasnorm_wordpool_less_exclusions.txt	LTP264	ltpFR	2	5	-1	MOTEL	919	n/a	-1	n/a	n/a	n/a	n/a	n/a
724964	REC_WORD	wordpools/wasnorm_wordpool_less_exclusions.txt	LTP264	ltpFR	2	5	-1	ROOSTER	1209	n/a	-1	n/a	n/a	n/a	n/a	n/a
725778	REC_WORD	wordpools/wasnorm_wordpool_less_exclusions.txt	LTP264	ltpFR	2	5	-1	PEAR	1033	n/a	-1	n/a	n/a	n/a	n/a	n/a
726881	REC_WORD	wordpools/wasnorm_wordpool_less_exclusions.txt	LTP264	ltpFR	2	5	-1	KITE	779	n/a	-1	n/a	n/a	n/a	n/a	n/a
727795	REC_WORD	wordpools/wasnorm_wordpool_less_exclusions.txt	LTP264	ltpFR	2	5	-1	BARLEY	88	n/a	-1	n/a	n/a	n/a	n/a	n/a
744484	REC_WORD	wordpools/wasnorm_wordpool_less_exclusions.txt	LTP264	ltpFR	2	5	-1	SMOG	1330	n/a	-1	n/a	n/a	n/a	n/a	n/a
758065	REC_WORD	wordpools/wasnorm_wordpool_less_exclusions.txt	LTP264	ltpFR	2	5	-1	TOWN	1491	n/a	-1	n/a	n/a	n/a	n/a	n/a
759269	REC_WORD	wordpools/wasnorm_wordpool_less_exclusions.txt	LTP264	ltpFR	2	5	-1	NEWSPAPER	948	n/a	-1	n/a	n/a	n/a	n/a	n/a
798215	WORD	wordpools/wasnorm_wordpool_less_exclusions.txt	LTP264	ltpFR	2	6	1	SHELL	1281	n/a	0	1	0.412841796875	0.57763671875	lower	../fonts/amplitud.ttf
802263	WORD	wordpools/wasnorm_wordpool_less_exclusions.txt	LTP264	ltpFR	2	6	1	CAGE	218	n/a	0	1	0.412841796875	0.57763671875	lower	../fonts/amplitud.ttf
806278	WORD	wordpools/wasnorm_wordpool_less_exclusions.txt	LTP264	ltpFR	2	6	1	FIELD	562	n/a	1	1	0.412841796875	0.57763671875	lower	../fonts/amplitud.ttf
810476	WORD	wordpools/wasnorm_wordpool_less_exclusions.txt	LTP264	ltpFR	2	6	1	COACH	331	n/a	0	1	0.412841796875	0.57763671875	lower	../fonts/amplitud.ttf
814441	WORD	wordpools/wasnorm_wordpool_less_exclusions.txt	LTP264	ltpFR	2	6	0	SEED	1266	n/a	0	0	0.5869140625	0.422607421875	upper	../fonts/zerothre.ttf
818574	WORD	wordpools/wasnorm_wordpool_less_exclusions.txt	LTP264	ltpFR	2	6	0	VEST	1559	n/a	0	0	0.5869140625	0.422607421875	upper	../fonts/zerothre.ttf
822572	WORD	wordpools/wasnorm_wordpool_less_exclusions.txt	LTP264	ltpFR	2	6	1	MIRROR	899	n/a	0	1	0.412841796875	0.57763671875	lower	../fonts/amplitud.ttf
826701	WORD	wordpools/wasnorm_wordpool_less_exclusions.txt	LTP264	ltpFR	2	6	1	FEMALE	559	n/a	1	1	0.412841796875	0.57763671875	lower	../fonts/amplitud.ttf
830786	WORD	wordpools/wasnorm_wordpool_less_exclusions.txt	LTP264	ltpFR	2	6	0	UMPIRE	1535	n/a	1	0	0.5869140625	0.422607421875	upper	../fonts/zerothre.ttf
834836	WORD	wordpools/wasnorm_wordpool_less_exclusions.txt	LTP264	ltpFR	2	6	0	TICKET	1464	n/a	1	0	0.5869140625	0.422607421875	upper	../fonts/zerothre.ttf
838818	WORD	wordpools/wasnorm_wordpool_less_exclusions.txt	LTP264	ltpFR	2	6	0	TWISTER	1530	n/a	1	0	0.5869140625	0.422607421875	upper	../fonts/zerothre.ttf
842796	WORD	wordpools/wasnorm_wordpool_less_exclusions.txt	LTP264	ltpFR	2	6	0	QUAIL	1147	n/a	0	0	0.5869140625	0.422607421875	upper	../fonts/zerothre.ttf
846777	WORD	wordpools/wasnorm_wordpool_less_exclusions.txt	LTP264	ltpFR	2	6	0	PLANT	1083	n/a	0	0	0.5869140625	0.422607421875	upper	../fonts/zerothre.ttf
850977	WORD	wordpools/wasnorm_wordpool_less_exclusions.txt	LTP264	ltpFR	2	6	0	SNAKE	1333	n/a	1	0	0.5869140625	0.422607421875	upper	../fonts/zerothre.ttf
854895	WORD	wordpools/wasnorm_wordpool_less_exclusions.txt	LTP264	ltpFR	2	6	1	SERPENT	1270	n/a	0	1	0.412841796875	0.57763671875	lower	../fonts/amplitud.ttf
859010	WORD	wordpools/wasnorm_wordpool_less_exclusions.txt	LTP264	ltpFR	2	6	1	SHOELACE	1289	n/a	1	1	0.412841796875	0.57763671875	lower	../fonts/amplitud.ttf
864749	REC_START	n/a	LTP264	ltpFR	2	6	n/a	n/a	n/a	n/a	n/a	n/a	n/a	n/a	n/a	n/a
865994	REC_WORD	wordpools/wasnorm_wordpool_less_exclusions.txt	LTP264	ltpFR	2	6	0	SNAKE	1333	n/a	1	n/a	n/a	n/a	n/a	n/a
866715	REC_WORD	wordpools/wasnorm_wordpool_less_exclusions.txt	LTP264	ltpFR	2	6	1	SERPENT	1270	n/a	0	n/a	n/a	n/a	n/a	n/a
867801	REC_WORD	wordpools/wasnorm_wordpool_less_exclusions.txt	LTP264	ltpFR	2	6	1	SHOELACE	1289	n/a	1	n/a	n/a	n/a	n/a	n/a
868784	REC_WORD	wordpools/wasnorm_wordpool_less_exclusions.txt	LTP264	ltpFR	2	6	1	FIELD	562	n/a	1	n/a	n/a	n/a	n/a	n/a
870036	REC_WORD	wordpools/wasnorm_wordpool_less_exclusions.txt	LTP264	ltpFR	2	6	1	CAGE	218	n/a	0	n/a	n/a	n/a	n/a	n/a
870677	REC_WORD	wordpools/wasnorm_wordpool_less_exclusions.txt	LTP264	ltpFR	2	6	1	SHELL	1281	n/a	0	n/a	n/a	n/a	n/a	n/a
871395	REC_WORD	wordpools/wasnorm_wordpool_less_exclusions.txt	LTP264	ltpFR	2	6	1	MIRROR	899	n/a	0	n/a	n/a	n/a	n/a	n/a
872278	REC_WORD	wordpools/wasnorm_wordpool_less_exclusions.txt	LTP264	ltpFR	2	6	1	FEMALE	559	n/a	1	n/a	n/a	n/a	n/a	n/a
873756	REC_WORD	wordpools/wasnorm_wordpool_less_exclusions.txt	LTP264	ltpFR	2	6	0	UMPIRE	1535	n/a	1	n/a	n/a	n/a	n/a	n/a
875999	REC_WORD	wordpools/wasnorm_wordpool_less_exclusions.txt	LTP264	ltpFR	2	6	1	COACH	331	n/a	0	n/a	n/a	n/a	n/a	n/a
878291	REC_WORD	wordpools/wasnorm_wordpool_less_exclusions.txt	LTP264	ltpFR	2	6	0	SEED	1266	n/a	0	n/a	n/a	n/a	n/a	n/a
879186	REC_WORD	wordpools/wasnorm_wordpool_less_exclusions.txt	LTP264	ltpFR	2	6	0	VEST	1559	n/a	0	n/a	n/a	n/a	n/a	n/a
882767	REC_WORD	wordpools/wasnorm_wordpool_less_exclusions.txt	LTP264	ltpFR	2	6	0	TWISTER	1530	n/a	1	n/a	n/a	n/a	n/a	n/a
883695	REC_WORD	wordpools/wasnorm_wordpool_less_exclusions.txt	LTP264	ltpFR	2	6	0	QUAIL	1147	n/a	0	n/a	n/a	n/a	n/a	n/a
943528	WORD	wordpools/wasnorm_wordpool_less_exclusions.txt	LTP264	ltpFR	2	7	-1	BAND	78	n/a	-1	1	1.0	1.0	upper	../fonts/Verdana.ttf
947657	WORD	wordpools/wasnorm_wordpool_less_exclusions.txt	LTP264	ltpFR	2	7	-1	PIANO	1057	n/a	-1	1	1.0	1.0	upper	../fonts/Verdana.ttf
951608	WORD	wordpools/wasnorm_wordpool_less_exclusions.txt	LTP264	ltpFR	2	7	-1	BEEF	113	n/a	-1	1	1.0	1.0	upper	../fonts/Verdana.ttf
955825	WORD	wordpools/wasnorm_wordpool_less_exclusions.txt	LTP264	ltpFR	2	7	-1	HERD	705	n/a	-1	1	1.0	1.0	upper	../fonts/Verdana.ttf
959756	WORD	wordpools/wasnorm_wordpool_less_exclusions.txt	LTP264	ltpFR	2	7	-1	BAKER	71	n/a	-1	1	1.0	1.0	upper	../fonts/Verdana.ttf
963855	WORD	wordpools/wasnorm_wordpool_less_exclusions.txt	LTP264	ltpFR	2	7	-1	TORCH	1484	n/a	-1	1	1.0	1.0	upper	../fonts/Verdana.ttf
967736	WORD	wordpools/wasnorm_wordpool_less_exclusions.txt	LTP264	ltpFR	2	7	-1	VACUUM	1543	n/a	-1	1	1.0	1.0	upper	../fonts/Verdana.ttf
971647	WORD	wordpools/wasnorm_wordpool_less_exclusions.txt	LTP264	ltpFR	2	7	-1	APPENDAGE	32	n/a	-1	1	1.0	1.0	upper	../fonts/Verdana.ttf
975482	WORD	wordpools/wasnorm_wordpool_less_exclusions.txt	LTP264	ltpFR	2	7	-1	BISCUIT	130	n/a	-1	1	1.0	1.0	upper	../fonts/Verdana.ttf
979430	WORD	wordpools/wasnorm_wordpool_less_exclusions.txt	LTP264	ltpFR	2	7	-1	SPACE	1345	n/a	-1	1	1.0	1.0	upper	../fonts/Verdana.ttf
983342	WORD	wordpools/wasnorm_wordpool_less_exclusions.txt	LTP264	ltpFR	2	7	-1	BOX	159	n/a	-1	1	1.0	1.0	upper	../fonts/Verdana.ttf
987361	WORD	wordpools/wasnorm_wordpool_less_exclusions.txt	LTP264	ltpFR	2	7	-1	DRAGON	492	n/a	-1	1	1.0	1.0	upper	../fonts/Verdana.ttf
991542	WORD	wordpools/wasnorm_wordpool_less_exclusions.txt	LTP264	ltpFR	2	7	-1	WITCH	1617	n/a	-1	1	1.0	1.0	upper	../fonts/Verdana.ttf
995624	WORD	wordpools/wasnorm_wordpool_less_exclusions.txt	LTP264	ltpFR	2	7	-1	GOBLIN	645	n/a	-1	1	1.0	1.0	upper	../fonts/Verdana.ttf
999805	WORD	wordpools/wasnorm_wordpool_less_exclusions.txt	LTP264	ltpFR	2	7	-1	SHOWER	1296	n/a	-1	1	1.0	1.0	upper	../fonts/Verdana.ttf
1003788	WORD	wordpools/wasnorm_wordpool_less_exclusions.txt	LTP264	ltpFR	2	7	-1	DOUGHNUT	490	n/a	-1	1	1.0	1.0	upper	../fonts/Verdana.ttf
1009745	REC_START	n/a	LTP264	ltpFR	2	7	n/a	n/a	n/a	n/a	n/a	n/a	n/a	n/a	n/a	n/a
1010846	REC_WORD	wordpools/wasnorm_wordpool_less_exclusions.txt	LTP264	ltpFR	2	7	-1	SHOWER	1296	n/a	-1	n/a	n/a	n/a	n/a	n/a
1011920	REC_WORD	wordpools/wasnorm_wordpool_less_exclusions.txt	LTP264	ltpFR	2	7	-1	DOUGHNUT	490	n/a	-1	n/a	n/a	n/a	n/a	n/a
1012551	REC_WORD	wordpools/wasnorm_wordpool_less_exclusions.txt	LTP264	ltpFR	2	7	-1	DRAGON	492	n/a	-1	n/a	n/a	n/a	n/a	n/a
1013461	REC_WORD	wordpools/wasnorm_wordpool_less_exclusions.txt	LTP264	ltpFR	2	7	-1	WITCH	1617	n/a	-1	n/a	n/a	n/a	n/a	n/a
1014046	REC_WORD	wordpools/wasnorm_wordpool_less_exclusions.txt	LTP264	ltpFR	2	7	-1	GOBLIN	645	n/a	-1	n/a	n/a	n/a	n/a	n/a
1015953	REC_WORD	wordpools/wasnorm_wordpool_less_exclusions.txt	LTP264	ltpFR	2	7	-1	BAKER	71	n/a	-1	n/a	n/a	n/a	n/a	n/a
1018001	REC_WORD	wordpools/wasnorm_wordpool_less_exclusions.txt	LTP264	ltpFR	2	7	-1	PIANO	1057	n/a	-1	n/a	n/a	n/a	n/a	n/a
1019919	REC_WORD	wordpools/wasnorm_wordpool_less_exclusions.txt	LTP264	ltpFR	2	7	-1	BEEF	113	n/a	-1	n/a	n/a	n/a	n/a	n/a
1022301	REC_WORD	wordpools/wasnorm_wordpool_less_exclusions.txt	LTP264	ltpFR	2	7	-1	VACUUM	1543	n/a	-1	n/a	n/a	n/a	n/a	n/a
1023630	REC_WORD	wordpools/wasnorm_wordpool_less_exclusions.txt	LTP264	ltpFR	2	7	-1	BAND	78	n/a	-1	n/a	n/a	n/a	n/a	n/a
1026923	REC_WORD	wordpools/wasnorm_wordpool_less_exclusions.txt	LTP264	ltpFR	2	7	-1	SPACE	1345	n/a	-1	n/a	n/a	n/a	n/a	n/a
1028881	REC_WORD	wordpools/wasnorm_wordpool_less_exclusions.txt	LTP264	ltpFR	2	7	-1	BISCUIT	130	n/a	-1	n/a	n/a	n/a	n/a	n/a
1030826	REC_WORD	wordpools/wasnorm_wordpool_less_exclusions.txt	LTP264	ltpFR	2	7	-1	BOX	159	n/a	-1	n/a	n/a	n/a	n/a	n/a
1094714	WORD	wordpools/wasnorm_wordpool_less_exclusions.txt	LTP264	ltpFR	2	8	-1	FRAME	600	n/a	-1	1	1.0	1.0	upper	../fonts/Verdana.ttf
1098612	WORD	wordpools/wasnorm_wordpool_less_exclusions.txt	LTP264	ltpFR	2	8	-1	SKETCH	1315	n/a	-1	1	1.0	1.0	upper	../fonts/Verdana.ttf
1102644	WORD	wordpools/wasnorm_wordpool_less_exclusions.txt	LTP264	ltpFR	2	8	-1	TAIL	1430	n/a	-1	1	1.0	1.0	upper	../fonts/Verdana.ttf
1106542	WORD	wordpools/wasnorm_wordpool_less_exclusions.txt	LTP264	ltpFR	2	8	-1	MOTOR	922	n/a	-1	1	1.0	1.0	upper	../fonts/Verdana.ttf
1110474	WORD	wordpools/wasnorm_wordpool_less_exclusions.txt	LTP264	ltpFR	2	8	-1	TRUCK	1512	n/a	-1	1	1.0	1.0	upper	../fonts/Verdana.ttf
1114656	WORD	wordpools/wasnorm_wordpool_less_exclusions.txt	LTP264	ltpFR	2	8	-1	HORIZON	717	n/a	-1	1	1.0	1.0	upper	../fonts/Verdana.ttf
1118839	WORD	wordpools/wasnorm_wordpool_less_exclusions.txt	LTP264	ltpFR	2	8	-1	WITNESS	1618	n/a	-1	1	1.0	1.0	upper	../fonts/Verdana.ttf
1123055	WORD	wordpools/wasnorm_wordpool_less_exclusions.txt	LTP264	ltpFR	2	8	-1	ESSAY	540	n/a	-1	1	1.0	1.0	upper	../fonts/Verdana.ttf
1127238	WORD	wordpools/wasnorm_wordpool_less_exclusions.txt	LTP264	ltpFR	2	8	-1	CRATER	400	n/a	-1	1	1.0	1.0	upper	../fonts/Verdana.ttf
1131419	WORD	wordpools/wasnorm_wordpool_less_exclusions.txt	LTP264	ltpFR	2	8	-1	ALMOND	18	n/a	-1	1	1.0	1.0	upper	../fonts/Verdana.ttf
1135268	WORD	wordpools/wasnorm_wordpool_less_exclusions.txt	LTP264	ltpFR	2	8	-1	SKUNK	1321	n/a	-1	1	1.0	1.0	upper	../fonts/Verdana.ttf
1139183	WORD	wordpools/wasnorm_wordpool_less_exclusions.txt	LTP264	ltpFR	2	8	-1	FOX	598	n/a	-1	1	1.0	1.0	upper	../fonts/Verdana.ttf
1143215	WORD	wordpools/wasnorm_wordpool_less_exclusions.txt	LTP264	ltpFR	2	8	-1	MOUNTAIN	924	n/a	-1	1	1.0	1.0	upper	../fonts/Verdana.ttf
1147313	WORD	wordpools/wasnorm_wordpool_less_exclusions.txt	LTP264	ltpFR	2	8	-1	BOLT	146	n/a	-1	1	1.0	1.0	upper	../fonts/Verdana.ttf
1151145	WORD	wordpools/wasnorm_wordpool_less_exclusions.txt	LTP264	ltpFR	2	8	-1	BARN	89	n/a	-1	1	1.0	1.0	upper	../fonts/Verdana.ttf
1155023	WORD	wordpools/wasnorm_wordpool_less_exclusions.txt	LTP264	ltpFR	2	8	-1	GAZELLE	628	n/a	-1	1	1.0	1.0	upper	../fonts/Verdana.ttf
1161116	REC_START	n/a	LTP264	ltpFR	2	8	n/a	n/a	n/a	n/a	n/a	n/a	n/a	n/a	n/a	n/a
1162612	REC_WORD	wordpools/wasnorm_wordpool_less_exclusions.txt	LTP264	ltpFR	2	8	-1	BOLT	146	n/a	-1	n/a	n/a	n/a	n/a	n/a
1163505	REC_WORD	wordpools/wasnorm_wordpool_less_exclusions.txt	LTP264	ltpFR	2	8	-1	BARN	89	n/a	-1	n/a	n/a	n/a	n/a	n/a
1164354	REC_WORD	wordpools/wasnorm_wordpool_less_exclusions.txt	LTP264	ltpFR	2	8	-1	GAZELLE	628	n/a	-1	n/a	n/a	n/a	n/a	n/a
1165398	REC_WORD	wordpools/wasnorm_wordpool_less_exclusions.txt	LTP264	ltpFR	2	8	-1	ALMOND	18	n/a	-1	n/a	n/a	n/a	n/a	n/a
1165950	REC_WORD	wordpools/wasnorm_wordpool_less_exclusions.txt	LTP264	ltpFR	2	8	-1	FOX	598	n/a	-1	n/a	n/a	n/a	n/a	n/a
1170524	REC_WORD	wordpools/wasnorm_wordpool_less_exclusions.txt	LTP264	ltpFR	2	8	-1	ESSAY	540	n/a	-1	n/a	n/a	n/a	n/a	n/a
1173632	REC_WORD	wordpools/wasnorm_wordpool_less_exclusions.txt	LTP264	ltpFR	2	8	-1	WITNESS	1618	n/a	-1	n/a	n/a	n/a	n/a	n/a
1175832	REC_WORD	wordpools/wasnorm_wordpool_less_exclusions.txt	LTP264	ltpFR	2	8	-1	TRUCK	1512	n/a	-1	n/a	n/a	n/a	n/a	n/a
1177872	REC_WORD	wordpools/wasnorm_wordpool_less_exclusions.txt	LTP264	ltpFR	2	8	-1	FRAME	600	n/a	-1	n/a	n/a	n/a	n/a	n/a
1178529	REC_WORD	wordpools/wasnorm_wordpool_less_exclusions.txt	LTP264	ltpFR	2	8	-1	SKETCH	1315	n/a	-1	n/a	n/a	n/a	n/a	n/a
1186480	REC_WORD	wordpools/wasnorm_wordpool_less_exclusions.txt	LTP264	ltpFR	2	8	-1	CRATER	400	n/a	-1	n/a	n/a	n/a	n/a	n/a
1189788	REC_WORD	wordpools/wasnorm_wordpool_less_exclusions.txt	LTP264	ltpFR	2	8	-1	ALMOND	18	n/a	-1	n/a	n/a	n/a	n/a	n/a
1193854	REC_WORD	wordpools/wasnorm_wordpool_less_exclusions.txt	LTP264	ltpFR	2	8	-1	MOUNTAIN	924	n/a	-1	n/a	n/a	n/a	n/a	n/a
1228019	REC_WORD	wordpools/wasnorm_wordpool_less_exclusions.txt	LTP264	ltpFR	2	8	-1	GAZELLE	628	n/a	-1	n/a	n/a	n/a	n/a	n/a
1240664	WORD	wordpools/wasnorm_wordpool_less_exclusions.txt	LTP264	ltpFR	2	9	1	PEPPER	1047	n/a	0	1	0.412841796875	0.57763671875	lower	../fonts/amplitud.ttf
1244814	WORD	wordpools/wasnorm_wordpool_less_exclusions.txt	LTP264	ltpFR	2	9	1	GARDEN	623	n/a	1	1	0.412841796875	0.57763671875	lower	../fonts/amplitud.ttf
1248980	WORD	wordpools/wasnorm_wordpool_less_exclusions.txt	LTP264	ltpFR	2	9	1	MONARCH	906	n/a	1	1	0.412841796875	0.57763671875	lower	../fonts/amplitud.ttf
1253129	WORD	wordpools/wasnorm_wordpool_less_exclusions.txt	LTP264	ltpFR	2	9	1	LINT	826	n/a	1	1	0.412841796875	0.57763671875	lower	../fonts/amplitud.ttf
1257178	WORD	wordpools/wasnorm_wordpool_less_exclusions.txt	LTP264	ltpFR	2	9	1	SECRETARY	1265	n/a	1	1	0.412841796875	0.57763671875	lower	../fonts/amplitud.ttf
1261159	WORD	wordpools/wasnorm_wordpool_less_exclusions.txt	LTP264	ltpFR	2	9	1	OPERATOR	979	n/a	1	1	0.412841796875	0.57763671875	lower	../fonts/amplitud.ttf
1265241	WORD	wordpools/wasnorm_wordpool_less_exclusions.txt	LTP264	ltpFR	2	9	1	CUP	424	n/a	0	1	0.412841796875	0.57763671875	lower	../fonts/amplitud.ttf
1269390	WORD	wordpools/wasnorm_wordpool_less_exclusions.txt	LTP264	ltpFR	2	9	1	SCRIBBLE	1256	n/a	0	1	0.412841796875	0.57763671875	lower	../fonts/amplitud.ttf
1273288	WORD	wordpools/wasnorm_wordpool_less_exclusions.txt	LTP264	ltpFR	2	9	1	EMPEROR	529	n/a	1	1	0.412841796875	0.57763671875	lower	../fonts/amplitud.ttf
1277370	WORD	wordpools/wasnorm_wordpool_less_exclusions.txt	LTP264	ltpFR	2	9	1	CRACKER	398	n/a	0	1	0.412841796875	0.57763671875	lower	../fonts/amplitud.ttf
1281569	WORD	wordpools/wasnorm_wordpool_less_exclusions.txt	LTP264	ltpFR	2	9	1	MEADOW	881	n/a	1	1	0.412841796875	0.57763671875	lower	../fonts/amplitud.ttf
1285450	WORD	wordpools/wasnorm_wordpool_less_exclusions.txt	LTP264	ltpFR	2	9	1	LENS	811	n/a	0	1	0.412841796875	0.57763671875	lower	../fonts/amplitud.ttf
1289582	WORD	wordpools/wasnorm_wordpool_less_exclusions.txt	LTP264	ltpFR	2	9	1	CREATURE	403	n/a	1	1	0.412841796875	0.57763671875	lower	../fonts/amplitud.ttf
1293628	WORD	wordpools/wasnorm_wordpool_less_exclusions.txt	LTP264	ltpFR	2	9	1	ANTEATER	26	n/a	0	1	0.412841796875	0.57763671875	lower	../fonts/amplitud.ttf
1297797	WORD	wordpools/wasnorm_wordpool_less_exclusions.txt	LTP264	ltpFR	2	9	1	BISON	131	n/a	1	1	0.412841796875	0.57763671875	lower	../fonts/amplitud.ttf
1301980	WORD	wordpools/wasnorm_wordpool_less_exclusions.txt	LTP264	ltpFR	2	9	1	CATTLE	261	n/a	1	1	0.412841796875	0.57763671875	lower	../fonts/amplitud.ttf
1307785	REC_START	n/a	LTP264	ltpFR	2	9	n/a	n/a	n/a	n/a	n/a	n/a	n/a	n/a	n/a	n/a
1309082	REC_WORD	wordpools/wasnorm_wordpool_less_exclusions.txt	LTP264	ltpFR	2	9	1	BISON	131	n/a	1	n/a	n/a	n/a	n/a	n/a
1309815	REC_WORD	wordpools/wasnorm_wordpool_less_exclusions.txt	LTP264	ltpFR	2	9	1	ANTEATER	26	n/a	0	n/a	n/a	n/a	n/a	n/a
1310587	REC_WORD	wordpools/wasnorm_wordpool_less_exclusions.txt	LTP264	ltpFR	2	9	1	CATTLE	261	n/a	1	n/a	n/a	n/a	n/a	n/a
1311542	REC_WORD	wordpools/wasnorm_wordpool_less_exclusions.txt	LTP264	ltpFR	2	9	1	MEADOW	881	n/a	1	n/a	n/a	n/a	n/a	n/a
1312842	REC_WORD	wordpools/wasnorm_wordpool_less_exclusions.txt	LTP264	ltpFR	2	9	1	EMPEROR	529	n/a	1	n/a	n/a	n/a	n/a	n/a
1313565	REC_WORD	wordpools/wasnorm_wordpool_less_exclusions.txt	LTP264	ltpFR	2	9	1	CRACKER	398	n/a	0	n/a	n/a	n/a	n/a	n/a
1319931	REC_WORD	wordpools/wasnorm_wordpool_less_exclusions.txt	LTP264	ltpFR	2	9	1	MONARCH	906	n/a	1	n/a	n/a	n/a	n/a	n/a
1320509	REC_WORD	wordpools/wasnorm_wordpool_less_exclusions.txt	LTP264	ltpFR	2	9	1	SECRETARY	1265	n/a	1	n/a	n/a	n/a	n/a	n/a
1321708	REC_WORD	wordpools/wasnorm_wordpool_less_exclusions.txt	LTP264	ltpFR	2	9	1	OPERATOR	979	n/a	1	n/a	n/a	n/a	n/a	n/a
1322486	REC_WORD	wordpools/wasnorm_wordpool_less_exclusions.txt	LTP264	ltpFR	2	9	1	CUP	424	n/a	0	n/a	n/a	n/a	n/a	n/a
1324949	REC_WORD	wordpools/wasnorm_wordpool_less_exclusions.txt	LTP264	ltpFR	2	9	1	GARDEN	623	n/a	1	n/a	n/a	n/a	n/a	n/a
1325825	REC_WORD	wordpools/wasnorm_wordpool_less_exclusions.txt	LTP264	ltpFR	2	9	1	PEPPER	1047	n/a	0	n/a	n/a	n/a	n/a	n/a
1335872	REC_WORD	wordpools/wasnorm_wordpool_less_exclusions.txt	LTP264	ltpFR	2	9	1	BISON	131	n/a	1	n/a	n/a	n/a	n/a	n/a
1387887	WORD	wordpools/wasnorm_wordpool_less_exclusions.txt	LTP264	ltpFR	2	10	1	OUTLAW	989	n/a	1	1	0.412841796875	0.57763671875	lower	../fonts/amplitud.ttf
1391916	WORD	wordpools/wasnorm_wordpool_less_exclusions.txt	LTP264	ltpFR	2	10	1	DEPUTY	450	n/a	1	1	0.412841796875	0.57763671875	lower	../fonts/amplitud.ttf
1395749	WORD	wordpools/wasnorm_wordpool_less_exclusions.txt	LTP264	ltpFR	2	10	1	PALACE	1006	n/a	1	1	0.412841796875	0.57763671875	lower	../fonts/amplitud.ttf
1399580	WORD	wordpools/wasnorm_wordpool_less_exclusions.txt	LTP264	ltpFR	2	10	1	BEETLE	116	n/a	1	1	0.412841796875	0.57763671875	lower	../fonts/amplitud.ttf
1403511	WORD	wordpools/wasnorm_wordpool_less_exclusions.txt	LTP264	ltpFR	2	10	1	RECIPE	1175	n/a	0	1	0.412841796875	0.57763671875	lower	../fonts/amplitud.ttf
1407694	WORD	wordpools/wasnorm_wordpool_less_exclusions.txt	LTP264	ltpFR	2	10	1	ROAD	1196	n/a	0	1	0.412841796875	0.57763671875	lower	../fonts/amplitud.ttf
1411759	WORD	wordpools/wasnorm_wordpool_less_exclusions.txt	LTP264	ltpFR	2	10	1	FREEWAY	603	n/a	1	1	0.412841796875	0.57763671875	lower	../fonts/amplitud.ttf
1415640	WORD	wordpools/wasnorm_wordpool_less_exclusions.txt	LTP264	ltpFR	2	10	1	PLAID	1080	n/a	0	1	0.412841796875	0.57763671875	lower	../fonts/amplitud.ttf
1419622	WORD	wordpools/wasnorm_wordpool_less_exclusions.txt	LTP264	ltpFR	2	10	1	FLANNEL	574	n/a	0	1	0.412841796875	0.57763671875	lower	../fonts/amplitud.ttf
1423668	WORD	wordpools/wasnorm_wordpool_less_exclusions.txt	LTP264	ltpFR	2	10	1	PASTRY	1022	n/a	1	1	0.412841796875	0.57763671875	lower	../fonts/amplitud.ttf
1427888	WORD	wordpools/wasnorm_wordpool_less_exclusions.txt	LTP264	ltpFR	2	10	1	FLY	586	n/a	0	1	0.412841796875	0.57763671875	lower	../fonts/amplitud.ttf
1431970	WORD	wordpools/wasnorm_wordpool_less_exclusions.txt	LTP264	ltpFR	2	10	1	FUGITIVE	612	n/a	1	1	0.412841796875	0.57763671875	lower	../fonts/amplitud.ttf
1435801	WORD	wordpools/wasnorm_wordpool_less_exclusions.txt	LTP264	ltpFR	2	10	1	DRIVER	499	n/a	1	1	0.412841796875	0.57763671875	lower	../fonts/amplitud.ttf
1439661	WORD	wordpools/wasnorm_wordpool_less_exclusions.txt	LTP264	ltpFR	2	10	1	TURKEY	1520	n/a	1	1	0.412841796875	0.57763671875	lower	../fonts/amplitud.ttf
1443529	WORD	wordpools/wasnorm_wordpool_less_exclusions.txt	LTP264	ltpFR	2	10	1	CROWN	415	n/a	0	1	0.412841796875	0.57763671875	lower	../fonts/amplitud.ttf
1447644	WORD	wordpools/wasnorm_wordpool_less_exclusions.txt	LTP264	ltpFR	2	10	1	BUGLE	189	n/a	1	1	0.412841796875	0.57763671875	lower	../fonts/amplitud.ttf
1453501	REC_START	n/a	LTP264	ltpFR	2	10	n/a	n/a	n/a	n/a	n/a	n/a	n/a	n/a	n/a	n/a
1454528	REC_WORD	wordpools/wasnorm_wordpool_less_exclusions.txt	LTP264	ltpFR	2	10	1	CROWN	415	n/a	0	n/a	n/a	n/a	n/a	n/a
1456071	REC_WORD	wordpools/wasnorm_wordpool_less_exclusions.txt	LTP264	ltpFR	2	10	1	BUGLE	189	n/a	1	n/a	n/a	n/a	n/a	n/a
1458038	REC_WORD	wordpools/wasnorm_wordpool_less_exclusions.txt	LTP264	ltpFR	2	10	1	FREEWAY	603	n/a	1	n/a	n/a	n/a	n/a	n/a
1459121	REC_WORD	wordpools/wasnorm_wordpool_less_exclusions.txt	LTP264	ltpFR	2	10	1	ROAD	1196	n/a	0	n/a	n/a	n/a	n/a	n/a
1459975	REC_WORD	wordpools/wasnorm_wordpool_less_exclusions.txt	LTP264	ltpFR	2	10	1	PLAID	1080	n/a	0	n/a	n/a	n/a	n/a	n/a
1461120	REC_WORD	wordpools/wasnorm_wordpool_less_exclusions.txt	LTP264	ltpFR	2	10	1	PASTRY	1022	n/a	1	n/a	n/a	n/a	n/a	n/a
1463220	REC_WORD	wordpools/wasnorm_wordpool_less_exclusions.txt	LTP264	ltpFR	2	10	1	OUTLAW	989	n/a	1	n/a	n/a	n/a	n/a	n/a
1463863	REC_WORD	wordpools/wasnorm_wordpool_less_exclusions.txt	LTP264	ltpFR	2	10	1	DEPUTY	450	n/a	1	n/a	n/a	n/a	n/a	n/a
1464465	REC_WORD	wordpools/wasnorm_wordpool_less_exclusions.txt	LTP264	ltpFR	2	10	1	PALACE	1006	n/a	1	n/a	n/a	n/a	n/a	n/a
1469995	REC_WORD	wordpools/wasnorm_wordpool_less_exclusions.txt	LTP264	ltpFR	2	10	1	FUGITIVE	612	n/a	1	n/a	n/a	n/a	n/a	n/a
1470997	REC_WORD	wordpools/wasnorm_wordpool_less_exclusions.txt	LTP264	ltpFR	2	10	1	DRIVER	499	n/a	1	n/a	n/a	n/a	n/a	n/a
1472960	REC_WORD	wordpools/wasnorm_wordpool_less_exclusions.txt	LTP264	ltpFR	2	10	1	TURKEY	1520	n/a	1	n/a	n/a	n/a	n/a	n/a
1534105	WORD	wordpools/wasnorm_wordpool_less_exclusions.txt	LTP264	ltpFR	2	11	0	ELEPHANT	523	n/a	1	0	0.5869140625	0.422607421875	upper	../fonts/zerothre.ttf
1538237	WORD	wordpools/wasnorm_wordpool_less_exclusions.txt	LTP264	ltpFR	2	11	0	SIBLING	1301	n/a	1	0	0.5869140625	0.422607421875	upper	../fonts/zerothre.ttf
1542302	WORD	wordpools/wasnorm_wordpool_less_exclusions.txt	LTP264	ltpFR	2	11	1	MUFFIN	929	n/a	0	1	0.412841796875	0.57763671875	lower	../fonts/amplitud.ttf
1546217	WORD	wordpools/wasnorm_wordpool_less_exclusions.txt	LTP264	ltpFR	2	11	1	POLE	1097	n/a	0	1	0.412841796875	0.57763671875	lower	../fonts/amplitud.ttf
1550132	WORD	wordpools/wasnorm_wordpool_less_exclusions.txt	LTP264	ltpFR	2	11	0	BULL	193	n/a	1	0	0.5869140625	0.422607421875	upper	../fonts/zerothre.ttf
1554194	WORD	wordpools/wasnorm_wordpool_less_exclusions.txt	LTP264	ltpFR	2	11	0	BROOK	177	n/a	0	0	0.5869140625	0.422607421875	upper	../fonts/zerothre.ttf
1558313	WORD	wordpools/wasnorm_wordpool_less_exclusions.txt	LTP264	ltpFR	2	11	0	MONUMENT	913	n/a	1	0	0.5869140625	0.422607421875	upper	../fonts/zerothre.ttf
1562194	WORD	wordpools/wasnorm_wordpool_less_exclusions.txt	LTP264	ltpFR	2	11	1	ARCHITECT	36	n/a	1	1	0.412841796875	0.57763671875	lower	../fonts/amplitud.ttf
1566323	WORD	wordpools/wasnorm_wordpool_less_exclusions.txt	LTP264	ltpFR	2	11	1	MAGNET	855	n/a	0	1	0.412841796875	0.57763671875	lower	../fonts/amplitud.ttf
1570541	WORD	wordpools/wasnorm_wordpool_less_exclusions.txt	LTP264	ltpFR	2	11	1	BUFFALO	186	n/a	1	1	0.412841796875	0.57763671875	lower	../fonts/amplitud.ttf
1574556	WORD	wordpools/wasnorm_wordpool_less_exclusions.txt	LTP264	ltpFR	2	11	1	TOOTHBRUSH	1482	n/a	0	1	0.412841796875	0.57763671875	lower	../fonts/amplitud.ttf
1578471	WORD	wordpools/wasnorm_wordpool_less_exclusions.txt	LTP264	ltpFR	2	11	1	TOOTHPASTE	1483	n/a	0	1	0.412841796875	0.57763671875	lower	../fonts/amplitud.ttf
1582486	WORD	wordpools/wasnorm_wordpool_less_exclusions.txt	LTP264	ltpFR	2	11	1	COOKBOOK	373	n/a	1	1	0.412841796875	0.57763671875	lower	../fonts/amplitud.ttf
1586535	WORD	wordpools/wasnorm_wordpool_less_exclusions.txt	LTP264	ltpFR	2	11	0	SAUSAGE	1238	n/a	1	0	0.5869140625	0.422607421875	upper	../fonts/zerothre.ttf
1590400	WORD	wordpools/wasnorm_wordpool_less_exclusions.txt	LTP264	ltpFR	2	11	0	CREEK	404	n/a	1	0	0.5869140625	0.422607421875	upper	../fonts/zerothre.ttf
1594582	WORD	wordpools/wasnorm_wordpool_less_exclusions.txt	LTP264	ltpFR	2	11	0	SUPERMARKET	1409	n/a	1	0	0.5869140625	0.422607421875	upper	../fonts/zerothre.ttf
1600589	REC_START	n/a	LTP264	ltpFR	2	11	n/a	n/a	n/a	n/a	n/a	n/a	n/a	n/a	n/a	n/a
1602411	REC_WORD	wordpools/wasnorm_wordpool_less_exclusions.txt	LTP264	ltpFR	2	11	0	ELEPHANT	523	n/a	1	n/a	n/a	n/a	n/a	n/a
1603086	REC_WORD	wordpools/wasnorm_wordpool_less_exclusions.txt	LTP264	ltpFR	2	11	0	SIBLING	1301	n/a	1	n/a	n/a	n/a	n/a	n/a
1604415	REC_WORD	wordpools/wasnorm_wordpool_less_exclusions.txt	LTP264	ltpFR	2	11	1	MUFFIN	929	n/a	0	n/a	n/a	n/a	n/a	n/a
1606053	REC_WORD	wordpools/wasnorm_wordpool_less_exclusions.txt	LTP264	ltpFR	2	11	1	POLE	1097	n/a	0	n/a	n/a	n/a	n/a	n/a
1610332	REC_WORD	wordpools/wasnorm_wordpool_less_exclusions.txt	LTP264	ltpFR	2	11	0	SUPERMARKET	1409	n/a	1	n/a	n/a	n/a	n/a	n/a
1679017	WORD	wordpools/wasnorm_wordpool_less_exclusions.txt	LTP264	ltpFR	2	12	0	STOOL	1386	n/a	1	0	0.5869140625	0.422607421875	upper	../fonts/zerothre.ttf
1682865	WORD	wordpools/wasnorm_wordpool_less_exclusions.txt	LTP264	ltpFR	2	12	0	CREVICE	405	n/a	1	0	0.5869140625	0.422607421875	upper	../fonts/zerothre.ttf
1686897	WORD	wordpools/wasnorm_wordpool_less_exclusions.txt	LTP264	ltpFR	2	12	0	CURB	426	n/a	1	0	0.5869140625	0.422607421875	upper	../fonts/zerothre.ttf
1690812	WORD	wordpools/wasnorm_wordpool_less_exclusions.txt	LTP264	ltpFR	2	12	0	VALLEY	1545	n/a	1	0	0.5869140625	0.422607421875	upper	../fonts/zerothre.ttf
1694659	WORD	wordpools/wasnorm_wordpool_less_exclusions.txt	LTP264	ltpFR	2	12	0	ANKLE	24	n/a	1	0	0.5869140625	0.422607421875	upper	../fonts/zerothre.ttf
1698791	WORD	wordpools/wasnorm_wordpool_less_exclusions.txt	LTP264	ltpFR	2	12	0	SUIT	1402	n/a	1	0	0.5869140625	0.422607421875	upper	../fonts/zerothre.ttf
1702854	WORD	wordpools/wasnorm_wordpool_less_exclusions.txt	LTP264	ltpFR	2	12	0	DANDELION	438	n/a	1	0	0.5869140625	0.422607421875	upper	../fonts/zerothre.ttf
1707056	WORD	wordpools/wasnorm_wordpool_less_exclusions.txt	LTP264	ltpFR	2	12	0	DRINK	498	n/a	1	0	0.5869140625	0.422607421875	upper	../fonts/zerothre.ttf
1710954	WORD	wordpools/wasnorm_wordpool_less_exclusions.txt	LTP264	ltpFR	2	12	0	LOUNGE	845	n/a	1	0	0.5869140625	0.422607421875	upper	../fonts/zerothre.ttf
1714903	WORD	wordpools/wasnorm_wordpool_less_exclusions.txt	LTP264	ltpFR	2	12	0	BANANA	77	n/a	1	0	0.5869140625	0.422607421875	upper	../fonts/zerothre.ttf
1718780	WORD	wordpools/wasnorm_wordpool_less_exclusions.txt	LTP264	ltpFR	2	12	0	STRAWBERRY	1391	n/a	1	0	0.5869140625	0.422607421875	upper	../fonts/zerothre.ttf
1722916	WORD	wordpools/wasnorm_wordpool_less_exclusions.txt	LTP264	ltpFR	2	12	0	PEDAL	1037	n/a	0	0	0.5869140625	0.422607421875	upper	../fonts/zerothre.ttf
1726797	WORD	wordpools/wasnorm_wordpool_less_exclusions.txt	LTP264	ltpFR	2	12	0	ROD	1203	n/a	1	0	0.5869140625	0.422607421875	upper	../fonts/zerothre.ttf
1730628	WORD	wordpools/wasnorm_wordpool_less_exclusions.txt	LTP264	ltpFR	2	12	0	RUNNER	1218	n/a	1	0	0.5869140625	0.422607421875	upper	../fonts/zerothre.ttf
1734609	WORD	wordpools/wasnorm_wordpool_less_exclusions.txt	LTP264	ltpFR	2	12	0	CLIMBER	323	n/a	1	0	0.5869140625	0.422607421875	upper	../fonts/zerothre.ttf
1738809	WORD	wordpools/wasnorm_wordpool_less_exclusions.txt	LTP264	ltpFR	2	12	0	SNEAKER	1334	n/a	1	0	0.5869140625	0.422607421875	upper	../fonts/zerothre.ttf
1744581	REC_START	n/a	LTP264	ltpFR	2	12	n/a	n/a	n/a	n/a	n/a	n/a	n/a	n/a	n/a	n/a
1746998	REC_WORD	wordpools/wasnorm_wordpool_less_exclusions.txt	LTP264	ltpFR	2	12	0	RUNNER	1218	n/a	1	n/a	n/a	n/a	n/a	n/a
1747944	REC_WORD	wordpools/wasnorm_wordpool_less_exclusions.txt	LTP264	ltpFR	2	12	0	CLIMBER	323	n/a	1	n/a	n/a	n/a	n/a	n/a
1748410	REC_WORD	wordpools/wasnorm_wordpool_less_exclusions.txt	LTP264	ltpFR	2	12	0	SNEAKER	1334	n/a	1	n/a	n/a	n/a	n/a	n/a
1749654	REC_WORD	wordpools/wasnorm_wordpool_less_exclusions.txt	LTP264	ltpFR	2	12	0	LOUNGE	845	n/a	1	n/a	n/a	n/a	n/a	n/a
1750901	REC_WORD	wordpools/wasnorm_wordpool_less_exclusions.txt	LTP264	ltpFR	2	12	0	VALLEY	1545	n/a	1	n/a	n/a	n/a	n/a	n/a
1751411	REC_WORD	wordpools/wasnorm_wordpool_less_exclusions.txt	LTP264	ltpFR	2	12	0	STOOL	1386	n/a	1	n/a	n/a	n/a	n/a	n/a
1752394	REC_WORD	wordpools/wasnorm_wordpool_less_exclusions.txt	LTP264	ltpFR	2	12	0	CURB	426	n/a	1	n/a	n/a	n/a	n/a	n/a
1759510	REC_WORD	wordpools/wasnorm_wordpool_less_exclusions.txt	LTP264	ltpFR	2	12	0	SAUSAGE	1238	n/a	1	n/a	n/a	n/a	n/a	n/a
1780385	REC_WORD	wordpools/wasnorm_wordpool_less_exclusions.txt	LTP264	ltpFR	2	12	0	SUIT	1402	n/a	1	n/a	n/a	n/a	n/a	n/a
1791341	REC_WORD	wordpools/wasnorm_wordpool_less_exclusions.txt	LTP264	ltpFR	2	12	0	BANANA	77	n/a	1	n/a	n/a	n/a	n/a	n/a
1791767	REC_WORD	wordpools/wasnorm_wordpool_less_exclusions.txt	LTP264	ltpFR	2	12	0	STRAWBERRY	1391	n/a	1	n/a	n/a	n/a	n/a	n/a
1820233	REST_REWET	n/a	LTP264	ltpFR	2	12	n/a	n/a	n/a	n/a	n/a	n/a	n/a	n/a	n/a	n/a
2144404	WORD	wordpools/wasnorm_wordpool_less_exclusions.txt	LTP264	ltpFR	2	13	1	CAMERA	224	n/a	0	1	0.412841796875	0.57763671875	lower	../fonts/amplitud.ttf
2148316	WORD	wordpools/wasnorm_wordpool_less_exclusions.txt	LTP264	ltpFR	2	13	1	PARENT	1013	n/a	1	1	0.412841796875	0.57763671875	lower	../fonts/amplitud.ttf
2152385	WORD	wordpools/wasnorm_wordpool_less_exclusions.txt	LTP264	ltpFR	2	13	1	DAD	433	n/a	1	1	0.412841796875	0.57763671875	lower	../fonts/amplitud.ttf
2156432	WORD	wordpools/wasnorm_wordpool_less_exclusions.txt	LTP264	ltpFR	2	13	1	TOTE	1487	n/a	0	1	0.412841796875	0.57763671875	lower	../fonts/amplitud.ttf
2160565	WORD	wordpools/wasnorm_wordpool_less_exclusions.txt	LTP264	ltpFR	2	13	1	MECHANIC	884	n/a	1	1	0.412841796875	0.57763671875	lower	../fonts/amplitud.ttf
2164677	WORD	wordpools/wasnorm_wordpool_less_exclusions.txt	LTP264	ltpFR	2	13	1	WORLD	1622	n/a	1	1	0.412841796875	0.57763671875	lower	../fonts/amplitud.ttf
2168612	WORD	wordpools/wasnorm_wordpool_less_exclusions.txt	LTP264	ltpFR	2	13	1	RECORD	1176	n/a	1	1	0.412841796875	0.57763671875	lower	../fonts/amplitud.ttf
2172795	WORD	wordpools/wasnorm_wordpool_less_exclusions.txt	LTP264	ltpFR	2	13	1	ENGINEER	536	n/a	1	1	0.412841796875	0.57763671875	lower	../fonts/amplitud.ttf
2176824	WORD	wordpools/wasnorm_wordpool_less_exclusions.txt	LTP264	ltpFR	2	13	1	CAP	236	n/a	1	1	0.412841796875	0.57763671875	lower	../fonts/amplitud.ttf
2180892	WORD	wordpools/wasnorm_wordpool_less_exclusions.txt	LTP264	ltpFR	2	13	1	BASKETBALL	96	n/a	0	1	0.412841796875	0.57763671875	lower	../fonts/amplitud.ttf
2184924	WORD	wordpools/wasnorm_wordpool_less_exclusions.txt	LTP264	ltpFR	2	13	1	PRODUCER	1129	n/a	1	1	0.412841796875	0.57763671875	lower	../fonts/amplitud.ttf
2188939	WORD	wordpools/wasnorm_wordpool_less_exclusions.txt	LTP264	ltpFR	2	13	1	DIRECTOR	471	n/a	1	1	0.412841796875	0.57763671875	lower	../fonts/amplitud.ttf
2192971	WORD	wordpools/wasnorm_wordpool_less_exclusions.txt	LTP264	ltpFR	2	13	1	KETTLE	772	n/a	0	1	0.412841796875	0.57763671875	lower	../fonts/amplitud.ttf
2197170	WORD	wordpools/wasnorm_wordpool_less_exclusions.txt	LTP264	ltpFR	2	13	1	HANDBAG	684	n/a	0	1	0.412841796875	0.57763671875	lower	../fonts/amplitud.ttf
2201319	WORD	wordpools/wasnorm_wordpool_less_exclusions.txt	LTP264	ltpFR	2	13	1	GLACIER	638	n/a	1	1	0.412841796875	0.57763671875	lower	../fonts/amplitud.ttf
2205234	WORD	wordpools/wasnorm_wordpool_less_exclusions.txt	LTP264	ltpFR	2	13	1	DRUM	502	n/a	1	1	0.412841796875	0.57763671875	lower	../fonts/amplitud.ttf
2211006	REC_START	n/a	LTP264	ltpFR	2	13	n/a	n/a	n/a	n/a	n/a	n/a	n/a	n/a	n/a	n/a
2212515	REC_WORD	wordpools/wasnorm_wordpool_less_exclusions.txt	LTP264	ltpFR	2	13	1	DRUM	502	n/a	1	n/a	n/a	n/a	n/a	n/a
2213500	REC_WORD	wordpools/wasnorm_wordpool_less_exclusions.txt	LTP264	ltpFR	2	13	1	GLACIER	638	n/a	1	n/a	n/a	n/a	n/a	n/a
2214697	REC_WORD	wordpools/wasnorm_wordpool_less_exclusions.txt	LTP264	ltpFR	2	13	1	DIRECTOR	471	n/a	1	n/a	n/a	n/a	n/a	n/a
2215814	REC_WORD	wordpools/wasnorm_wordpool_less_exclusions.txt	LTP264	ltpFR	2	13	1	TOTE	1487	n/a	0	n/a	n/a	n/a	n/a	n/a
2217544	REC_WORD	wordpools/wasnorm_wordpool_less_exclusions.txt	LTP264	ltpFR	2	13	1	TOTE	1487	n/a	0	n/a	n/a	n/a	n/a	n/a
2217799	REC_WORD	wordpools/wasnorm_wordpool_less_exclusions.txt	LTP264	ltpFR	2	13	n/a	BAG	69	n/a	n/a	n/a	n/a	n/a	n/a	n/a
2220762	REC_WORD	wordpools/wasnorm_wordpool_less_exclusions.txt	LTP264	ltpFR	2	13	1	ENGINEER	536	n/a	1	n/a	n/a	n/a	n/a	n/a
2221387	REC_WORD	wordpools/wasnorm_wordpool_less_exclusions.txt	LTP264	ltpFR	2	13	1	CAP	236	n/a	1	n/a	n/a	n/a	n/a	n/a
2222027	REC_WORD	wordpools/wasnorm_wordpool_less_exclusions.txt	LTP264	ltpFR	2	13	1	BASKETBALL	96	n/a	0	n/a	n/a	n/a	n/a	n/a
2225529	REC_WORD	wordpools/wasnorm_wordpool_less_exclusions.txt	LTP264	ltpFR	2	13	1	MECHANIC	884	n/a	1	n/a	n/a	n/a	n/a	n/a
2228080	REC_WORD	wordpools/wasnorm_wordpool_less_exclusions.txt	LTP264	ltpFR	2	13	1	RECORD	1176	n/a	1	n/a	n/a	n/a	n/a	n/a
2229189	REC_WORD	wordpools/wasnorm_wordpool_less_exclusions.txt	LTP264	ltpFR	2	13	1	WORLD	1622	n/a	1	n/a	n/a	n/a	n/a	n/a
2234683	REC_WORD	wordpools/wasnorm_wordpool_less_exclusions.txt	LTP264	ltpFR	2	13	1	PARENT	1013	n/a	1	n/a	n/a	n/a	n/a	n/a
2235791	REC_WORD	wordpools/wasnorm_wordpool_less_exclusions.txt	LTP264	ltpFR	2	13	1	DAD	433	n/a	1	n/a	n/a	n/a	n/a	n/a
2237664	REC_WORD	wordpools/wasnorm_wordpool_less_exclusions.txt	LTP264	ltpFR	2	13	1	CAMERA	224	n/a	0	n/a	n/a	n/a	n/a	n/a
2290873	WORD	wordpools/wasnorm_wordpool_less_exclusions.txt	LTP264	ltpFR	2	14	-1	SIRLOIN	1311	n/a	-1	1	1.0	1.0	upper	../fonts/Verdana.ttf
2295072	WORD	wordpools/wasnorm_wordpool_less_exclusions.txt	LTP264	ltpFR	2	14	-1	DRESS	495	n/a	-1	1	1.0	1.0	upper	../fonts/Verdana.ttf
2299221	WORD	wordpools/wasnorm_wordpool_less_exclusions.txt	LTP264	ltpFR	2	14	-1	RUST	1219	n/a	-1	1	1.0	1.0	upper	../fonts/Verdana.ttf
2303069	WORD	wordpools/wasnorm_wordpool_less_exclusions.txt	LTP264	ltpFR	2	14	-1	RECEPTIONIST	1174	n/a	-1	1	1.0	1.0	upper	../fonts/Verdana.ttf
2307252	WORD	wordpools/wasnorm_wordpool_less_exclusions.txt	LTP264	ltpFR	2	14	-1	WORKER	1621	n/a	-1	1	1.0	1.0	upper	../fonts/Verdana.ttf
2311233	WORD	wordpools/wasnorm_wordpool_less_exclusions.txt	LTP264	ltpFR	2	14	-1	WINDSHIELD	1612	n/a	-1	1	1.0	1.0	upper	../fonts/Verdana.ttf
2315282	WORD	wordpools/wasnorm_wordpool_less_exclusions.txt	LTP264	ltpFR	2	14	-1	HOOP	716	n/a	-1	1	1.0	1.0	upper	../fonts/Verdana.ttf
2319430	WORD	wordpools/wasnorm_wordpool_less_exclusions.txt	LTP264	ltpFR	2	14	-1	MASK	876	n/a	-1	1	1.0	1.0	upper	../fonts/Verdana.ttf
2323562	WORD	wordpools/wasnorm_wordpool_less_exclusions.txt	LTP264	ltpFR	2	14	-1	SHELTER	1282	n/a	-1	1	1.0	1.0	upper	../fonts/Verdana.ttf
2327742	WORD	wordpools/wasnorm_wordpool_less_exclusions.txt	LTP264	ltpFR	2	14	-1	DICE	461	n/a	-1	1	1.0	1.0	upper	../fonts/Verdana.ttf
2331609	WORD	wordpools/wasnorm_wordpool_less_exclusions.txt	LTP264	ltpFR	2	14	-1	STADIUM	1364	n/a	-1	1	1.0	1.0	upper	../fonts/Verdana.ttf
2335557	WORD	wordpools/wasnorm_wordpool_less_exclusions.txt	LTP264	ltpFR	2	14	-1	DOCK	477	n/a	-1	1	1.0	1.0	upper	../fonts/Verdana.ttf
2339472	WORD	wordpools/wasnorm_wordpool_less_exclusions.txt	LTP264	ltpFR	2	14	-1	CAPTAIN	239	n/a	-1	1	1.0	1.0	upper	../fonts/Verdana.ttf
2343521	WORD	wordpools/wasnorm_wordpool_less_exclusions.txt	LTP264	ltpFR	2	14	-1	SILK	1307	n/a	-1	1	1.0	1.0	upper	../fonts/Verdana.ttf
2347616	WORD	wordpools/wasnorm_wordpool_less_exclusions.txt	LTP264	ltpFR	2	14	-1	HOUSE	725	n/a	-1	1	1.0	1.0	upper	../fonts/Verdana.ttf
2351584	WORD	wordpools/wasnorm_wordpool_less_exclusions.txt	LTP264	ltpFR	2	14	-1	LAPEL	800	n/a	-1	1	1.0	1.0	upper	../fonts/Verdana.ttf
2357692	REC_START	n/a	LTP264	ltpFR	2	14	n/a	n/a	n/a	n/a	n/a	n/a	n/a	n/a	n/a	n/a
2358647	REC_WORD	wordpools/wasnorm_wordpool_less_exclusions.txt	LTP264	ltpFR	2	14	-1	CAPTAIN	239	n/a	-1	n/a	n/a	n/a	n/a	n/a
2359250	REC_WORD	wordpools/wasnorm_wordpool_less_exclusions.txt	LTP264	ltpFR	2	14	-1	HOUSE	725	n/a	-1	n/a	n/a	n/a	n/a	n/a
2360143	REC_WORD	wordpools/wasnorm_wordpool_less_exclusions.txt	LTP264	ltpFR	2	14	-1	LAPEL	800	n/a	-1	n/a	n/a	n/a	n/a	n/a
2360730	REC_WORD	wordpools/wasnorm_wordpool_less_exclusions.txt	LTP264	ltpFR	2	14	-1	STADIUM	1364	n/a	-1	n/a	n/a	n/a	n/a	n/a
2361571	REC_WORD	wordpools/wasnorm_wordpool_less_exclusions.txt	LTP264	ltpFR	2	14	n/a	SHACK	1273	n/a	n/a	n/a	n/a	n/a	n/a	n/a
2363724	REC_WORD	wordpools/wasnorm_wordpool_less_exclusions.txt	LTP264	ltpFR	2	14	-1	RECEPTIONIST	1174	n/a	-1	n/a	n/a	n/a	n/a	n/a
2365196	REC_WORD	wordpools/wasnorm_wordpool_less_exclusions.txt	LTP264	ltpFR	2	14	-1	WORKER	1621	n/a	-1	n/a	n/a	n/a	n/a	n/a
2365992	REC_WORD	wordpools/wasnorm_wordpool_less_exclusions.txt	LTP264	ltpFR	2	14	-1	SIRLOIN	1311	n/a	-1	n/a	n/a	n/a	n/a	n/a
2366896	REC_WORD	wordpools/wasnorm_wordpool_less_exclusions.txt	LTP264	ltpFR	2	14	-1	DRESS	495	n/a	-1	n/a	n/a	n/a	n/a	n/a
2368099	REC_WORD	wordpools/wasnorm_wordpool_less_exclusions.txt	LTP264	ltpFR	2	14	-1	RUST	1219	n/a	-1	n/a	n/a	n/a	n/a	n/a
2372639	REC_WORD	wordpools/wasnorm_wordpool_less_exclusions.txt	LTP264	ltpFR	2	14	-1	DOCK	477	n/a	-1	n/a	n/a	n/a	n/a	n/a
2375174	REC_WORD	wordpools/wasnorm_wordpool_less_exclusions.txt	LTP264	ltpFR	2	14	-1	HOUSE	725	n/a	-1	n/a	n/a	n/a	n/a	n/a
2439432	WORD	wordpools/wasnorm_wordpool_less_exclusions.txt	LTP264	ltpFR	2	15	1	BEARD	107	n/a	0	1	0.412841796875	0.57763671875	lower	../fonts/amplitud.ttf
2443345	WORD	wordpools/wasnorm_wordpool_less_exclusions.txt	LTP264	ltpFR	2	15	1	CORAL	378	n/a	0	1	0.412841796875	0.57763671875	lower	../fonts/amplitud.ttf
2447380	WORD	wordpools/wasnorm_wordpool_less_exclusions.txt	LTP264	ltpFR	2	15	1	SENATOR	1268	n/a	1	1	0.412841796875	0.57763671875	lower	../fonts/amplitud.ttf
2451411	WORD	wordpools/wasnorm_wordpool_less_exclusions.txt	LTP264	ltpFR	2	15	1	BATH	98	n/a	0	1	0.412841796875	0.57763671875	lower	../fonts/amplitud.ttf
2455590	WORD	wordpools/wasnorm_wordpool_less_exclusions.txt	LTP264	ltpFR	2	15	0	LAUNDRY	803	n/a	1	0	0.5869140625	0.422607421875	upper	../fonts/zerothre.ttf
2459441	WORD	wordpools/wasnorm_wordpool_less_exclusions.txt	LTP264	ltpFR	2	15	0	DONOR	485	n/a	1	0	0.5869140625	0.422607421875	upper	../fonts/zerothre.ttf
2463373	WORD	wordpools/wasnorm_wordpool_less_exclusions.txt	LTP264	ltpFR	2	15	0	POLITICIAN	1099	n/a	1	0	0.5869140625	0.422607421875	upper	../fonts/zerothre.ttf
2467255	WORD	wordpools/wasnorm_wordpool_less_exclusions.txt	LTP264	ltpFR	2	15	0	DOLL	481	n/a	1	0	0.5869140625	0.422607421875	upper	../fonts/zerothre.ttf
2471384	WORD	wordpools/wasnorm_wordpool_less_exclusions.txt	LTP264	ltpFR	2	15	0	SHOULDER	1294	n/a	1	0	0.5869140625	0.422607421875	upper	../fonts/zerothre.ttf
2475585	WORD	wordpools/wasnorm_wordpool_less_exclusions.txt	LTP264	ltpFR	2	15	0	THUMB	1462	n/a	1	0	0.5869140625	0.422607421875	upper	../fonts/zerothre.ttf
2479466	WORD	wordpools/wasnorm_wordpool_less_exclusions.txt	LTP264	ltpFR	2	15	1	BEAVER	109	n/a	1	1	0.412841796875	0.57763671875	lower	../fonts/amplitud.ttf
2483365	WORD	wordpools/wasnorm_wordpool_less_exclusions.txt	LTP264	ltpFR	2	15	1	TANK	1432	n/a	1	1	0.412841796875	0.57763671875	lower	../fonts/amplitud.ttf
2487446	WORD	wordpools/wasnorm_wordpool_less_exclusions.txt	LTP264	ltpFR	2	15	1	ESCALATOR	539	n/a	0	1	0.412841796875	0.57763671875	lower	../fonts/amplitud.ttf
2491326	WORD	wordpools/wasnorm_wordpool_less_exclusions.txt	LTP264	ltpFR	2	15	1	STEP	1377	n/a	0	1	0.412841796875	0.57763671875	lower	../fonts/amplitud.ttf
2495344	WORD	wordpools/wasnorm_wordpool_less_exclusions.txt	LTP264	ltpFR	2	15	0	CRAB	397	n/a	1	0	0.5869140625	0.422607421875	upper	../fonts/zerothre.ttf
2499542	WORD	wordpools/wasnorm_wordpool_less_exclusions.txt	LTP264	ltpFR	2	15	0	CHEST	295	n/a	1	0	0.5869140625	0.422607421875	upper	../fonts/zerothre.ttf
2505582	REC_START	n/a	LTP264	ltpFR	2	15	n/a	n/a	n/a	n/a	n/a	n/a	n/a	n/a	n/a	n/a
2507189	REC_WORD	wordpools/wasnorm_wordpool_less_exclusions.txt	LTP264	ltpFR	2	15	0	CRAB	397	n/a	1	n/a	n/a	n/a	n/a	n/a
2508187	REC_WORD	wordpools/wasnorm_wordpool_less_exclusions.txt	LTP264	ltpFR	2	15	0	CHEST	295	n/a	1	n/a	n/a	n/a	n/a	n/a
2509199	REC_WORD	wordpools/wasnorm_wordpool_less_exclusions.txt	LTP264	ltpFR	2	15	1	SENATOR	1268	n/a	1	n/a	n/a	n/a	n/a	n/a
2510198	REC_WORD	wordpools/wasnorm_wordpool_less_exclusions.txt	LTP264	ltpFR	2	15	1	CORAL	378	n/a	0	n/a	n/a	n/a	n/a	n/a
2511319	REC_WORD	wordpools/wasnorm_wordpool_less_exclusions.txt	LTP264	ltpFR	2	15	1	BEARD	107	n/a	0	n/a	n/a	n/a	n/a	n/a
2512983	REC_WORD	wordpools/wasnorm_wordpool_less_exclusions.txt	LTP264	ltpFR	2	15	0	POLITICIAN	1099	n/a	1	n/a	n/a	n/a	n/a	n/a
2515003	REC_WORD	wordpools/wasnorm_wordpool_less_exclusions.txt	LTP264	ltpFR	2	15	0	DONOR	485	n/a	1	n/a	n/a	n/a	n/a	n/a
2515849	REC_WORD	wordpools/wasnorm_wordpool_less_exclusions.txt	LTP264	ltpFR	2	15	1	BATH	98	n/a	0	n/a	n/a	n/a	n/a	n/a
2517721	REC_WORD	wordpools/wasnorm_wordpool_less_exclusions.txt	LTP264	ltpFR	2	15	1	ESCALATOR	539	n/a	0	n/a	n/a	n/a	n/a	n/a
2518571	REC_WORD	wordpools/wasnorm_wordpool_less_exclusions.txt	LTP264	ltpFR	2	15	1	STEP	1377	n/a	0	n/a	n/a	n/a	n/a	n/a
2520122	REC_WORD	wordpools/wasnorm_wordpool_less_exclusions.txt	LTP264	ltpFR	2	15	1	TANK	1432	n/a	1	n/a	n/a	n/a	n/a	n/a
2520757	REC_WORD	wordpools/wasnorm_wordpool_less_exclusions.txt	LTP264	ltpFR	2	15	1	BEAVER	109	n/a	1	n/a	n/a	n/a	n/a	n/a
2521368	REC_WORD	wordpools/wasnorm_wordpool_less_exclusions.txt	LTP264	ltpFR	2	15	0	THUMB	1462	n/a	1	n/a	n/a	n/a	n/a	n/a
2522593	REC_WORD	wordpools/wasnorm_wordpool_less_exclusions.txt	LTP264	ltpFR	2	15	0	SHOULDER	1294	n/a	1	n/a	n/a	n/a	n/a	n/a
2587809	WORD	wordpools/wasnorm_wordpool_less_exclusions.txt	LTP264	ltpFR	2	16	0	RECEIPT	1173	n/a	0	0	0.5869140625	0.422607421875	upper	../fonts/zerothre.ttf
2591955	WORD	wordpools/wasnorm_wordpool_less_exclusions.txt	LTP264	ltpFR	2	16	0	CABBAGE	210	n/a	0	0	0.5869140625	0.422607421875	upper	../fonts/zerothre.ttf
2595839	WORD	wordpools/wasnorm_wordpool_less_exclusions.txt	LTP264	ltpFR	2	16	0	CORK	380	n/a	0	0	0.5869140625	0.422607421875	upper	../fonts/zerothre.ttf
2599700	WORD	wordpools/wasnorm_wordpool_less_exclusions.txt	LTP264	ltpFR	2	16	0	RAKE	1164	n/a	0	0	0.5869140625	0.422607421875	upper	../fonts/zerothre.ttf
2603685	WORD	wordpools/wasnorm_wordpool_less_exclusions.txt	LTP264	ltpFR	2	16	0	SHRIMP	1297	n/a	0	0	0.5869140625	0.422607421875	upper	../fonts/zerothre.ttf
2607546	WORD	wordpools/wasnorm_wordpool_less_exclusions.txt	LTP264	ltpFR	2	16	0	SHARK	1275	n/a	1	0	0.5869140625	0.422607421875	upper	../fonts/zerothre.ttf
2611698	WORD	wordpools/wasnorm_wordpool_less_exclusions.txt	LTP264	ltpFR	2	16	0	BROTHER	179	n/a	1	0	0.5869140625	0.422607421875	upper	../fonts/zerothre.ttf
2615730	WORD	wordpools/wasnorm_wordpool_less_exclusions.txt	LTP264	ltpFR	2	16	0	VISITOR	1573	n/a	1	0	0.5869140625	0.422607421875	upper	../fonts/zerothre.ttf
2619897	WORD	wordpools/wasnorm_wordpool_less_exclusions.txt	LTP264	ltpFR	2	16	0	DIME	466	n/a	0	0	0.5869140625	0.422607421875	upper	../fonts/zerothre.ttf
2623842	WORD	wordpools/wasnorm_wordpool_less_exclusions.txt	LTP264	ltpFR	2	16	0	BROOM	178	n/a	0	0	0.5869140625	0.422607421875	upper	../fonts/zerothre.ttf
2627941	WORD	wordpools/wasnorm_wordpool_less_exclusions.txt	LTP264	ltpFR	2	16	0	TURNIP	1521	n/a	0	0	0.5869140625	0.422607421875	upper	../fonts/zerothre.ttf
2631808	WORD	wordpools/wasnorm_wordpool_less_exclusions.txt	LTP264	ltpFR	2	16	0	TAVERN	1437	n/a	1	0	0.5869140625	0.422607421875	upper	../fonts/zerothre.ttf
2635739	WORD	wordpools/wasnorm_wordpool_less_exclusions.txt	LTP264	ltpFR	2	16	0	CUFF	423	n/a	1	0	0.5869140625	0.422607421875	upper	../fonts/zerothre.ttf
2639754	WORD	wordpools/wasnorm_wordpool_less_exclusions.txt	LTP264	ltpFR	2	16	0	JACKET	747	n/a	1	0	0.5869140625	0.422607421875	upper	../fonts/zerothre.ttf
2643635	WORD	wordpools/wasnorm_wordpool_less_exclusions.txt	LTP264	ltpFR	2	16	0	SNOB	1335	n/a	1	0	0.5869140625	0.422607421875	upper	../fonts/zerothre.ttf
2647617	WORD	wordpools/wasnorm_wordpool_less_exclusions.txt	LTP264	ltpFR	2	16	0	SHOVEL	1295	n/a	0	0	0.5869140625	0.422607421875	upper	../fonts/zerothre.ttf
2653657	REC_START	n/a	LTP264	ltpFR	2	16	n/a	n/a	n/a	n/a	n/a	n/a	n/a	n/a	n/a	n/a
2656232	REC_WORD	wordpools/wasnorm_wordpool_less_exclusions.txt	LTP264	ltpFR	2	16	0	SHOVEL	1295	n/a	0	n/a	n/a	n/a	n/a	n/a
2657336	REC_WORD	wordpools/wasnorm_wordpool_less_exclusions.txt	LTP264	ltpFR	2	16	0	BROTHER	179	n/a	1	n/a	n/a	n/a	n/a	n/a
2658416	REC_WORD	wordpools/wasnorm_wordpool_less_exclusions.txt	LTP264	ltpFR	2	16	0	VISITOR	1573	n/a	1	n/a	n/a	n/a	n/a	n/a
2661502	REC_WORD	wordpools/wasnorm_wordpool_less_exclusions.txt	LTP264	ltpFR	2	16	0	CUFF	423	n/a	1	n/a	n/a	n/a	n/a	n/a
2663480	REC_WORD	wordpools/wasnorm_wordpool_less_exclusions.txt	LTP264	ltpFR	2	16	0	JACKET	747	n/a	1	n/a	n/a	n/a	n/a	n/a
2666893	REC_WORD	wordpools/wasnorm_wordpool_less_exclusions.txt	LTP264	ltpFR	2	16	0	CABBAGE	210	n/a	0	n/a	n/a	n/a	n/a	n/a
2668964	REC_WORD	wordpools/wasnorm_wordpool_less_exclusions.txt	LTP264	ltpFR	2	16	0	RAKE	1164	n/a	0	n/a	n/a	n/a	n/a	n/a
2669807	REC_WORD	wordpools/wasnorm_wordpool_less_exclusions.txt	LTP264	ltpFR	2	16	0	BROOM	178	n/a	0	n/a	n/a	n/a	n/a	n/a
2672604	REC_WORD	wordpools/wasnorm_wordpool_less_exclusions.txt	LTP264	ltpFR	2	16	0	CORK	380	n/a	0	n/a	n/a	n/a	n/a	n/a
2674699	REC_WORD	wordpools/wasnorm_wordpool_less_exclusions.txt	LTP264	ltpFR	2	16	0	RECEIPT	1173	n/a	0	n/a	n/a	n/a	n/a	n/a
2678788	REC_WORD	wordpools/wasnorm_wordpool_less_exclusions.txt	LTP264	ltpFR	2	16	0	TAVERN	1437	n/a	1	n/a	n/a	n/a	n/a	n/a
2752412	REC_START	n/a	LTP264	ltpFR	2	n/a	n/a	n/a	n/a	n/a	n/a	n/a	n/a	n/a	n/a	n/a
2753140	FFR_REC_WORD	wordpools/wasnorm_wordpool_less_exclusions.txt	LTP264	ltpFR	2	n/a	1	SIDING	1304	n/a	0	n/a	n/a	n/a	n/a	n/a
2754243	FFR_REC_WORD	wordpools/wasnorm_wordpool_less_exclusions.txt	LTP264	ltpFR	2	n/a	1	PRESIDENT	1121	n/a	1	n/a	n/a	n/a	n/a	n/a
2755440	FFR_REC_WORD	wordpools/wasnorm_wordpool_less_exclusions.txt	LTP264	ltpFR	2	n/a	0	POLITICIAN	1099	n/a	1	n/a	n/a	n/a	n/a	n/a
2756263	FFR_REC_WORD	wordpools/wasnorm_wordpool_less_exclusions.txt	LTP264	ltpFR	2	n/a	1	SENATOR	1268	n/a	1	n/a	n/a	n/a	n/a	n/a
2757296	FFR_REC_WORD	wordpools/wasnorm_wordpool_less_exclusions.txt	LTP264	ltpFR	2	n/a	1	BEARD	107	n/a	0	n/a	n/a	n/a	n/a	n/a
2758129	FFR_REC_WORD	wordpools/wasnorm_wordpool_less_exclusions.txt	LTP264	ltpFR	2	n/a	1	CORAL	378	n/a	0	n/a	n/a	n/a	n/a	n/a
2759585	FFR_REC_WORD	wordpools/wasnorm_wordpool_less_exclusions.txt	LTP264	ltpFR	2	n/a	1	BATH	98	n/a	0	n/a	n/a	n/a	n/a	n/a
2760119	FFR_REC_WORD	wordpools/wasnorm_wordpool_less_exclusions.txt	LTP264	ltpFR	2	n/a	1	ESCALATOR	539	n/a	0	n/a	n/a	n/a	n/a	n/a
2762190	FFR_REC_WORD	wordpools/wasnorm_wordpool_less_exclusions.txt	LTP264	ltpFR	2	n/a	0	BROOM	178	n/a	0	n/a	n/a	n/a	n/a	n/a
2763172	FFR_REC_WORD	wordpools/wasnorm_wordpool_less_exclusions.txt	LTP264	ltpFR	2	n/a	0	RAKE	1164	n/a	0	n/a	n/a	n/a	n/a	n/a
2764125	FFR_REC_WORD	wordpools/wasnorm_wordpool_less_exclusions.txt	LTP264	ltpFR	2	n/a	0	CABBAGE	210	n/a	0	n/a	n/a	n/a	n/a	n/a
2768740	FFR_REC_WORD	wordpools/wasnorm_wordpool_less_exclusions.txt	LTP264	ltpFR	2	n/a	0	CORK	380	n/a	0	n/a	n/a	n/a	n/a	n/a
2769508	FFR_REC_WORD	wordpools/wasnorm_wordpool_less_exclusions.txt	LTP264	ltpFR	2	n/a	0	TAVERN	1437	n/a	1	n/a	n/a	n/a	n/a	n/a
2770311	FFR_REC_WORD	wordpools/wasnorm_wordpool_less_exclusions.txt	LTP264	ltpFR	2	n/a	0	BROTHER	179	n/a	1	n/a	n/a	n/a	n/a	n/a
2771129	FFR_REC_WORD	wordpools/wasnorm_wordpool_less_exclusions.txt	LTP264	ltpFR	2	n/a	0	SIBLING	1301	n/a	1	n/a	n/a	n/a	n/a	n/a
2771718	FFR_REC_WORD_VV	wordpools/wasnorm_wordpool_less_exclusions.txt	LTP264	ltpFR	2	n/a	n/a	<>	-1	n/a	n/a	n/a	n/a	n/a	n/a	n/a
2772771	FFR_REC_WORD	wordpools/wasnorm_wordpool_less_exclusions.txt	LTP264	ltpFR	2	n/a	1	PARENT	1013	n/a	1	n/a	n/a	n/a	n/a	n/a
2773499	FFR_REC_WORD	wordpools/wasnorm_wordpool_less_exclusions.txt	LTP264	ltpFR	2	n/a	1	DAD	433	n/a	1	n/a	n/a	n/a	n/a	n/a
2774088	FFR_REC_WORD	wordpools/wasnorm_wordpool_less_exclusions.txt	LTP264	ltpFR	2	n/a	1	CAMERA	224	n/a	0	n/a	n/a	n/a	n/a	n/a
2774826	FFR_REC_WORD	wordpools/wasnorm_wordpool_less_exclusions.txt	LTP264	ltpFR	2	n/a	1	LENS	811	n/a	0	n/a	n/a	n/a	n/a	n/a
2775444	FFR_REC_WORD	wordpools/wasnorm_wordpool_less_exclusions.txt	LTP264	ltpFR	2	n/a	1	MEADOW	881	n/a	1	n/a	n/a	n/a	n/a	n/a
2776662	FFR_REC_WORD	wordpools/wasnorm_wordpool_less_exclusions.txt	LTP264	ltpFR	2	n/a	1	LAKE	796	n/a	0	n/a	n/a	n/a	n/a	n/a
2777280	FFR_REC_WORD	wordpools/wasnorm_wordpool_less_exclusions.txt	LTP264	ltpFR	2	n/a	1	STREAM	1392	n/a	0	n/a	n/a	n/a	n/a	n/a
2780174	FFR_REC_WORD	wordpools/wasnorm_wordpool_less_exclusions.txt	LTP264	ltpFR	2	n/a	1	SIDING	1304	n/a	0	n/a	n/a	n/a	n/a	n/a
2782608	FFR_REC_WORD	wordpools/wasnorm_wordpool_less_exclusions.txt	LTP264	ltpFR	2	n/a	1	EAGLE	512	n/a	1	n/a	n/a	n/a	n/a	n/a
2783297	FFR_REC_WORD	wordpools/wasnorm_wordpool_less_exclusions.txt	LTP264	ltpFR	2	n/a	1	CROW	414	n/a	1	n/a	n/a	n/a	n/a	n/a
2784274	FFR_REC_WORD	wordpools/wasnorm_wordpool_less_exclusions.txt	LTP264	ltpFR	2	n/a	1	COMB	351	n/a	0	n/a	n/a	n/a	n/a	n/a
2787811	FFR_REC_WORD	wordpools/wasnorm_wordpool_less_exclusions.txt	LTP264	ltpFR	2	n/a	n/a	WASHER	1592	n/a	n/a	n/a	n/a	n/a	n/a	n/a
2788575	FFR_REC_WORD	wordpools/wasnorm_wordpool_less_exclusions.txt	LTP264	ltpFR	2	n/a	0	DRYER	503	n/a	1	n/a	n/a	n/a	n/a	n/a
2791194	FFR_REC_WORD	wordpools/wasnorm_wordpool_less_exclusions.txt	LTP264	ltpFR	2	n/a	0	PISTON	1076	n/a	0	n/a	n/a	n/a	n/a	n/a
2792356	FFR_REC_WORD	wordpools/wasnorm_wordpool_less_exclusions.txt	LTP264	ltpFR	2	n/a	0	RADIATOR	1156	n/a	1	n/a	n/a	n/a	n/a	n/a
2794835	FFR_REC_WORD	wordpools/wasnorm_wordpool_less_exclusions.txt	LTP264	ltpFR	2	n/a	-1	TAIL	1430	n/a	-1	n/a	n/a	n/a	n/a	n/a
2795773	FFR_REC_WORD	wordpools/wasnorm_wordpool_less_exclusions.txt	LTP264	ltpFR	2	n/a	-1	FRAME	600	n/a	-1	n/a	n/a	n/a	n/a	n/a
2796636	FFR_REC_WORD	wordpools/wasnorm_wordpool_less_exclusions.txt	LTP264	ltpFR	2	n/a	-1	SKETCH	1315	n/a	-1	n/a	n/a	n/a	n/a	n/a
2797684	FFR_REC_WORD	wordpools/wasnorm_wordpool_less_exclusions.txt	LTP264	ltpFR	2	n/a	-1	TRUCK	1512	n/a	-1	n/a	n/a	n/a	n/a	n/a
2798742	FFR_REC_WORD	wordpools/wasnorm_wordpool_less_exclusions.txt	LTP264	ltpFR	2	n/a	-1	MOTOR	922	n/a	-1	n/a	n/a	n/a	n/a	n/a
2801236	FFR_REC_WORD	wordpools/wasnorm_wordpool_less_exclusions.txt	LTP264	ltpFR	2	n/a	1	FIELD	562	n/a	1	n/a	n/a	n/a	n/a	n/a
2802702	FFR_REC_WORD	wordpools/wasnorm_wordpool_less_exclusions.txt	LTP264	ltpFR	2	n/a	1	CAGE	218	n/a	0	n/a	n/a	n/a	n/a	n/a
2803361	FFR_REC_WORD	wordpools/wasnorm_wordpool_less_exclusions.txt	LTP264	ltpFR	2	n/a	1	SHELL	1281	n/a	0	n/a	n/a	n/a	n/a	n/a
2810111	FFR_REC_WORD	wordpools/wasnorm_wordpool_less_exclusions.txt	LTP264	ltpFR	2	n/a	0	SAUSAGE	1238	n/a	1	n/a	n/a	n/a	n/a	n/a
2812191	FFR_REC_WORD	wordpools/wasnorm_wordpool_less_exclusions.txt	LTP264	ltpFR	2	n/a	n/a	TORNADO	1485	n/a	n/a	n/a	n/a	n/a	n/a	n/a
2813000	FFR_REC_WORD	wordpools/wasnorm_wordpool_less_exclusions.txt	LTP264	ltpFR	2	n/a	0	QUAIL	1147	n/a	0	n/a	n/a	n/a	n/a	n/a
2823455	FFR_REC_WORD	wordpools/wasnorm_wordpool_less_exclusions.txt	LTP264	ltpFR	2	n/a	-1	LAPEL	800	n/a	-1	n/a	n/a	n/a	n/a	n/a
2824278	FFR_REC_WORD	wordpools/wasnorm_wordpool_less_exclusions.txt	LTP264	ltpFR	2	n/a	-1	HOUSE	725	n/a	-1	n/a	n/a	n/a	n/a	n/a
2826723	FFR_REC_WORD	wordpools/wasnorm_wordpool_less_exclusions.txt	LTP264	ltpFR	2	n/a	-1	CAPTAIN	239	n/a	-1	n/a	n/a	n/a	n/a	n/a
2827302	FFR_REC_WORD	wordpools/wasnorm_wordpool_less_exclusions.txt	LTP264	ltpFR	2	n/a	-1	STADIUM	1364	n/a	-1	n/a	n/a	n/a	n/a	n/a
2828040	FFR_REC_WORD	wordpools/wasnorm_wordpool_less_exclusions.txt	LTP264	ltpFR	2	n/a	n/a	SHACK	1273	n/a	n/a	n/a	n/a	n/a	n/a	n/a
2828738	FFR_REC_WORD	wordpools/wasnorm_wordpool_less_exclusions.txt	LTP264	ltpFR	2	n/a	-1	WINDSHIELD	1612	n/a	-1	n/a	n/a	n/a	n/a	n/a
2829626	FFR_REC_WORD	wordpools/wasnorm_wordpool_less_exclusions.txt	LTP264	ltpFR	2	n/a	n/a	TICK	1463	n/a	n/a	n/a	n/a	n/a	n/a	n/a
2832290	FFR_REC_WORD	wordpools/wasnorm_wordpool_less_exclusions.txt	LTP264	ltpFR	2	n/a	-1	RUST	1219	n/a	-1	n/a	n/a	n/a	n/a	n/a
2832999	FFR_REC_WORD	wordpools/wasnorm_wordpool_less_exclusions.txt	LTP264	ltpFR	2	n/a	-1	SIRLOIN	1311	n/a	-1	n/a	n/a	n/a	n/a	n/a
2833912	FFR_REC_WORD	wordpools/wasnorm_wordpool_less_exclusions.txt	LTP264	ltpFR	2	n/a	-1	RECEPTIONIST	1174	n/a	-1	n/a	n/a	n/a	n/a	n/a
2834944	FFR_REC_WORD	wordpools/wasnorm_wordpool_less_exclusions.txt	LTP264	ltpFR	2	n/a	-1	WORKER	1621	n/a	-1	n/a	n/a	n/a	n/a	n/a
2838845	FFR_REC_WORD	wordpools/wasnorm_wordpool_less_exclusions.txt	LTP264	ltpFR	2	n/a	-1	DRESS	495	n/a	-1	n/a	n/a	n/a	n/a	n/a
2840586	FFR_REC_WORD	wordpools/wasnorm_wordpool_less_exclusions.txt	LTP264	ltpFR	2	n/a	0	SUIT	1402	n/a	1	n/a	n/a	n/a	n/a	n/a
2845994	FFR_REC_WORD	wordpools/wasnorm_wordpool_less_exclusions.txt	LTP264	ltpFR	2	n/a	n/a	[???]	-1	n/a	n/a	n/a	n/a	n/a	n/a	n/a
2846802	FFR_REC_WORD	wordpools/wasnorm_wordpool_less_exclusions.txt	LTP264	ltpFR	2	n/a	0	VALLEY	1545	n/a	1	n/a	n/a	n/a	n/a	n/a
2850105	FFR_REC_WORD	wordpools/wasnorm_wordpool_less_exclusions.txt	LTP264	ltpFR	2	n/a	0	STOOL	1386	n/a	1	n/a	n/a	n/a	n/a	n/a
2851018	FFR_REC_WORD	wordpools/wasnorm_wordpool_less_exclusions.txt	LTP264	ltpFR	2	n/a	0	CURB	426	n/a	1	n/a	n/a	n/a	n/a	n/a
2857628	FFR_REC_WORD	wordpools/wasnorm_wordpool_less_exclusions.txt	LTP264	ltpFR	2	n/a	1	BISON	131	n/a	1	n/a	n/a	n/a	n/a	n/a
2860371	FFR_REC_WORD_VV	wordpools/wasnorm_wordpool_less_exclusions.txt	LTP264	ltpFR	2	n/a	n/a	<>	-1	n/a	n/a	n/a	n/a	n/a	n/a	n/a
2861371	FFR_REC_WORD_VV	wordpools/wasnorm_wordpool_less_exclusions.txt	LTP264	ltpFR	2	n/a	n/a	<>	-1	n/a	n/a	n/a	n/a	n/a	n/a	n/a
2862371	FFR_REC_WORD_VV	wordpools/wasnorm_wordpool_less_exclusions.txt	LTP264	ltpFR	2	n/a	n/a	<>	-1	n/a	n/a	n/a	n/a	n/a	n/a	n/a
2864262	FFR_REC_WORD	wordpools/wasnorm_wordpool_less_exclusions.txt	LTP264	ltpFR	2	n/a	0	STRAWBERRY	1391	n/a	1	n/a	n/a	n/a	n/a	n/a
2865235	FFR_REC_WORD	wordpools/wasnorm_wordpool_less_exclusions.txt	LTP264	ltpFR	2	n/a	0	BANANA	77	n/a	1	n/a	n/a	n/a	n/a	n/a
2869241	FFR_REC_WORD	wordpools/wasnorm_wordpool_less_exclusions.txt	LTP264	ltpFR	2	n/a	1	DIRECTOR	471	n/a	1	n/a	n/a	n/a	n/a	n/a
2872688	FFR_REC_WORD	wordpools/wasnorm_wordpool_less_exclusions.txt	LTP264	ltpFR	2	n/a	1	POLE	1097	n/a	0	n/a	n/a	n/a	n/a	n/a
2874574	FFR_REC_WORD	wordpools/wasnorm_wordpool_less_exclusions.txt	LTP264	ltpFR	2	n/a	0	TURNIP	1521	n/a	0	n/a	n/a	n/a	n/a	n/a
2881868	FFR_REC_WORD	wordpools/wasnorm_wordpool_less_exclusions.txt	LTP264	ltpFR	2	n/a	1	MUFFIN	929	n/a	0	n/a	n/a	n/a	n/a	n/a
2884327	FFR_REC_WORD	wordpools/wasnorm_wordpool_less_exclusions.txt	LTP264	ltpFR	2	n/a	0	BROTHER	179	n/a	1	n/a	n/a	n/a	n/a	n/a
2930737	FFR_REC_WORD	wordpools/wasnorm_wordpool_less_exclusions.txt	LTP264	ltpFR	2	n/a	1	ENGINEER	536	n/a	1	n/a	n/a	n/a	n/a	n/a
2931574	FFR_REC_WORD	wordpools/wasnorm_wordpool_less_exclusions.txt	LTP264	ltpFR	2	n/a	1	MECHANIC	884	n/a	1	n/a	n/a	n/a	n/a	n/a
2957640	FFR_REC_WORD	wordpools/wasnorm_wordpool_less_exclusions.txt	LTP264	ltpFR	2	n/a	0	SQUID	1361	n/a	1	n/a	n/a	n/a	n/a	n/a
2960807	FFR_REC_WORD	wordpools/wasnorm_wordpool_less_exclusions.txt	LTP264	ltpFR	2	n/a	n/a	ADDRESS	-1	n/a	n/a	n/a	n/a	n/a	n/a	n/a
2961351	FFR_REC_WORD	wordpools/wasnorm_wordpool_less_exclusions.txt	LTP264	ltpFR	2	n/a	n/a	BOOK	149	n/a	n/a	n/a	n/a	n/a	n/a	n/a
2966161	FFR_REC_WORD	wordpools/wasnorm_wordpool_less_exclusions.txt	LTP264	ltpFR	2	n/a	1	ANTEATER	26	n/a	0	n/a	n/a	n/a	n/a	n/a
2971329	FFR_REC_WORD	wordpools/wasnorm_wordpool_less_exclusions.txt	LTP264	ltpFR	2	n/a	-1	FOX	598	n/a	-1	n/a	n/a	n/a	n/a	n/a
2973050	FFR_REC_WORD	wordpools/wasnorm_wordpool_less_exclusions.txt	LTP264	ltpFR	2	n/a	-1	ALMOND	18	n/a	-1	n/a	n/a	n/a	n/a	n/a
2973823	FFR_REC_WORD	wordpools/wasnorm_wordpool_less_exclusions.txt	LTP264	ltpFR	2	n/a	-1	CRATER	400	n/a	-1	n/a	n/a	n/a	n/a	n/a
2976039	FFR_REC_WORD	wordpools/wasnorm_wordpool_less_exclusions.txt	LTP264	ltpFR	2	n/a	-1	MOUNTAIN	924	n/a	-1	n/a	n/a	n/a	n/a	n/a
3001690	FFR_REC_WORD	wordpools/wasnorm_wordpool_less_exclusions.txt	LTP264	ltpFR	2	n/a	1	CHURCH	307	n/a	1	n/a	n/a	n/a	n/a	n/a
3002942	FFR_REC_WORD	wordpools/wasnorm_wordpool_less_exclusions.txt	LTP264	ltpFR	2	n/a	0	LIBRARY	816	n/a	1	n/a	n/a	n/a	n/a	n/a
3003885	FFR_REC_WORD	wordpools/wasnorm_wordpool_less_exclusions.txt	LTP264	ltpFR	2	n/a	0	ACROBAT	4	n/a	1	n/a	n/a	n/a	n/a	n/a
3007552	FFR_REC_WORD	wordpools/wasnorm_wordpool_less_exclusions.txt	LTP264	ltpFR	2	n/a	0	COLESLAW	344	n/a	0	n/a	n/a	n/a	n/a	n/a
3008395	FFR_REC_WORD	wordpools/wasnorm_wordpool_less_exclusions.txt	LTP264	ltpFR	2	n/a	1	CONVENT	370	n/a	0	n/a	n/a	n/a	n/a	n/a
3009323	FFR_REC_WORD	wordpools/wasnorm_wordpool_less_exclusions.txt	LTP264	ltpFR	2	n/a	1	PICNIC	1060	n/a	0	n/a	n/a	n/a	n/a	n/a
3010041	FFR_REC_WORD	wordpools/wasnorm_wordpool_less_exclusions.txt	LTP264	ltpFR	2	n/a	0	HORSE	719	n/a	1	n/a	n/a	n/a	n/a	n/a
3011353	FFR_REC_WORD	wordpools/wasnorm_wordpool_less_exclusions.txt	LTP264	ltpFR	2	n/a	n/a	MULE	931	n/a	n/a	n/a	n/a	n/a	n/a	n/a
3013179	FFR_REC_WORD	wordpools/wasnorm_wordpool_less_exclusions.txt	LTP264	ltpFR	2	n/a	1	CHURCH	307	n/a	1	n/a	n/a	n/a	n/a	n/a
3014860	FFR_REC_WORD	wordpools/wasnorm_wordpool_less_exclusions.txt	LTP264	ltpFR	2	n/a	1	PEOPLE	1046	n/a	1	n/a	n/a	n/a	n/a	n/a
3015888	FFR_REC_WORD	wordpools/wasnorm_wordpool_less_exclusions.txt	LTP264	ltpFR	2	n/a	0	GANG	619	n/a	1	n/a	n/a	n/a	n/a	n/a
3018178	FFR_REC_WORD	wordpools/wasnorm_wordpool_less_exclusions.txt	LTP264	ltpFR	2	n/a	0	JOINT	758	n/a	1	n/a	n/a	n/a	n/a	n/a
3026464	FFR_REC_WORD	wordpools/wasnorm_wordpool_less_exclusions.txt	LTP264	ltpFR	2	n/a	1	PALACE	1006	n/a	1	n/a	n/a	n/a	n/a	n/a
3028220	FFR_REC_WORD	wordpools/wasnorm_wordpool_less_exclusions.txt	LTP264	ltpFR	2	n/a	1	OUTLAW	989	n/a	1	n/a	n/a	n/a	n/a	n/a
3028993	FFR_REC_WORD	wordpools/wasnorm_wordpool_less_exclusions.txt	LTP264	ltpFR	2	n/a	1	DEPUTY	450	n/a	1	n/a	n/a	n/a	n/a	n/a
3037883	FFR_REC_WORD	wordpools/wasnorm_wordpool_less_exclusions.txt	LTP264	ltpFR	2	n/a	1	FUGITIVE	612	n/a	1	n/a	n/a	n/a	n/a	n/a
3049092	FFR_REC_WORD	wordpools/wasnorm_wordpool_less_exclusions.txt	LTP264	ltpFR	2	n/a	1	FUGITIVE	612	n/a	1	n/a	n/a	n/a	n/a	n/a
3082724	REC_START	n/a	LTP264	ltpFR	2	1	n/a	n/a	n/a	n/a	n/a	n/a	n/a	n/a	n/a	n/a
3082787	RECOG_TARGET	n/a	LTP264	ltpFR	2	1	0	STRAWBERRY	1391	5	1	n/a	n/a	n/a	n/a	n/a
3083816	RECOG_RESP	n/a	LTP264	ltpFR	2	1	0	STRAWBERRY	1391	n/a	1	n/a	n/a	n/a	n/a	n/a
3084854	RECOG_CONF	n/a	LTP264	ltpFR	2	1	0	STRAWBERRY	1391	5	1	n/a	n/a	n/a	n/a	n/a
3086702	RECOG_TARGET	n/a	LTP264	ltpFR	2	1	-1	KITE	779	5	-1	n/a	n/a	n/a	n/a	n/a
3087543	RECOG_RESP	n/a	LTP264	ltpFR	2	1	-1	KITE	779	n/a	-1	n/a	n/a	n/a	n/a	n/a
3088496	RECOG_CONF	n/a	LTP264	ltpFR	2	1	-1	KITE	779	5	-1	n/a	n/a	n/a	n/a	n/a
3090085	RECOG_TARGET	n/a	LTP264	ltpFR	2	1	-1	SIRLOIN	1311	5	-1	n/a	n/a	n/a	n/a	n/a
3090616	RECOG_RESP	n/a	LTP264	ltpFR	2	1	-1	SIRLOIN	1311	n/a	-1	n/a	n/a	n/a	n/a	n/a
3091619	RECOG_CONF	n/a	LTP264	ltpFR	2	1	-1	SIRLOIN	1311	5	-1	n/a	n/a	n/a	n/a	n/a
3093430	RECOG_TARGET	n/a	LTP264	ltpFR	2	1	1	TOTE	1487	5	0	n/a	n/a	n/a	n/a	n/a
3094098	RECOG_RESP	n/a	LTP264	ltpFR	2	1	1	TOTE	1487	n/a	0	n/a	n/a	n/a	n/a	n/a
3095021	RECOG_CONF	n/a	LTP264	ltpFR	2	1	1	TOTE	1487	5	0	n/a	n/a	n/a	n/a	n/a
3096776	RECOG_TARGET	n/a	LTP264	ltpFR	2	1	-1	TORCH	1484	5	-1	n/a	n/a	n/a	n/a	n/a
3097256	RECOG_RESP	n/a	LTP264	ltpFR	2	1	-1	TORCH	1484	n/a	-1	n/a	n/a	n/a	n/a	n/a
3098214	RECOG_CONF	n/a	LTP264	ltpFR	2	1	-1	TORCH	1484	5	-1	n/a	n/a	n/a	n/a	n/a
3100023	RECOG_LURE	n/a	LTP264	ltpFR	2	1	n/a	VOLLEYBALL	1576	3	n/a	n/a	n/a	n/a	n/a	n/a
3102474	RECOG_RESP	n/a	LTP264	ltpFR	2	1	n/a	VOLLEYBALL	1576	n/a	n/a	n/a	n/a	n/a	n/a	n/a
3103621	RECOG_CONF	n/a	LTP264	ltpFR	2	1	n/a	VOLLEYBALL	1576	3	n/a	n/a	n/a	n/a	n/a	n/a
3105259	RECOG_LURE	n/a	LTP264	ltpFR	2	1	n/a	DOLPHIN	483	3	n/a	n/a	n/a	n/a	n/a	n/a
3107592	RECOG_RESP	n/a	LTP264	ltpFR	2	1	n/a	DOLPHIN	483	n/a	n/a	n/a	n/a	n/a	n/a	n/a
3108590	RECOG_CONF	n/a	LTP264	ltpFR	2	1	n/a	DOLPHIN	483	3	n/a	n/a	n/a	n/a	n/a	n/a
3110428	RECOG_TARGET	n/a	LTP264	ltpFR	2	1	1	LIMOUSINE	824	5	0	n/a	n/a	n/a	n/a	n/a
3111803	RECOG_RESP	n/a	LTP264	ltpFR	2	1	1	LIMOUSINE	824	n/a	0	n/a	n/a	n/a	n/a	n/a
3112621	RECOG_CONF	n/a	LTP264	ltpFR	2	1	1	LIMOUSINE	824	5	0	n/a	n/a	n/a	n/a	n/a
3114260	RECOG_LURE	n/a	LTP264	ltpFR	2	1	n/a	BERRY	122	1	n/a	n/a	n/a	n/a	n/a	n/a
3115958	RECOG_RESP	n/a	LTP264	ltpFR	2	1	n/a	BERRY	122	n/a	n/a	n/a	n/a	n/a	n/a	n/a
3117699	RECOG_CONF	n/a	LTP264	ltpFR	2	1	n/a	BERRY	122	1	n/a	n/a	n/a	n/a	n/a	n/a
3119425	RECOG_TARGET	n/a	LTP264	ltpFR	2	1	0	UMPIRE	1535	5	1	n/a	n/a	n/a	n/a	n/a
3120214	RECOG_RESP	n/a	LTP264	ltpFR	2	1	0	UMPIRE	1535	n/a	1	n/a	n/a	n/a	n/a	n/a
3121022	RECOG_CONF	n/a	LTP264	ltpFR	2	1	0	UMPIRE	1535	5	1	n/a	n/a	n/a	n/a	n/a
3122657	RECOG_LURE	n/a	LTP264	ltpFR	2	1	n/a	NEEDLE	941	2	n/a	n/a	n/a	n/a	n/a	n/a
3125437	RECOG_RESP	n/a	LTP264	ltpFR	2	1	n/a	NEEDLE	941	n/a	n/a	n/a	n/a	n/a	n/a	n/a
3126779	RECOG_CONF	n/a	LTP264	ltpFR	2	1	n/a	NEEDLE	941	2	n/a	n/a	n/a	n/a	n/a	n/a
3128496	RECOG_LURE	n/a	LTP264	ltpFR	2	1	n/a	CARNIVAL	245	3	n/a	n/a	n/a	n/a	n/a	n/a
3129542	RECOG_RESP	n/a	LTP264	ltpFR	2	1	n/a	CARNIVAL	245	n/a	n/a	n/a	n/a	n/a	n/a	n/a
3130440	RECOG_CONF	n/a	LTP264	ltpFR	2	1	n/a	CARNIVAL	245	3	n/a	n/a	n/a	n/a	n/a	n/a
3132191	RECOG_LURE	n/a	LTP264	ltpFR	2	1	n/a	DUMP	505	3	n/a	n/a	n/a	n/a	n/a	n/a
3133174	RECOG_RESP	n/a	LTP264	ltpFR	2	1	n/a	DUMP	505	n/a	n/a	n/a	n/a	n/a	n/a	n/a
3134461	RECOG_CONF	n/a	LTP264	ltpFR	2	1	n/a	DUMP	505	3	n/a	n/a	n/a	n/a	n/a	n/a
3136209	RECOG_TARGET	n/a	LTP264	ltpFR	2	1	0	POWDER	1117	5	0	n/a	n/a	n/a	n/a	n/a
3136941	RECOG_RESP	n/a	LTP264	ltpFR	2	1	0	POWDER	1117	n/a	0	n/a	n/a	n/a	n/a	n/a
3137893	RECOG_CONF	n/a	LTP264	ltpFR	2	1	0	POWDER	1117	5	0	n/a	n/a	n/a	n/a	n/a
3139638	RECOG_TARGET	n/a	LTP264	ltpFR	2	1	0	SNEAKER	1334	5	1	n/a	n/a	n/a	n/a	n/a
3140328	RECOG_RESP	n/a	LTP264	ltpFR	2	1	0	SNEAKER	1334	n/a	1	n/a	n/a	n/a	n/a	n/a
3141246	RECOG_CONF	n/a	LTP264	ltpFR	2	1	0	SNEAKER	1334	5	1	n/a	n/a	n/a	n/a	n/a
3142901	RECOG_LURE	n/a	LTP264	ltpFR	2	1	n/a	GRASSHOPPER	656	3	n/a	n/a	n/a	n/a	n/a	n/a
3146703	RECOG_RESP	n/a	LTP264	ltpFR	2	1	n/a	GRASSHOPPER	656	n/a	n/a	n/a	n/a	n/a	n/a	n/a
3147502	RECOG_CONF	n/a	LTP264	ltpFR	2	1	n/a	GRASSHOPPER	656	3	n/a	n/a	n/a	n/a	n/a	n/a
3149309	RECOG_LURE	n/a	LTP264	ltpFR	2	1	n/a	DICTIONARY	463	5	n/a	n/a	n/a	n/a	n/a	n/a
3150136	RECOG_RESP	n/a	LTP264	ltpFR	2	1	n/a	DICTIONARY	463	n/a	n/a	n/a	n/a	n/a	n/a	n/a
3150934	RECOG_CONF	n/a	LTP264	ltpFR	2	1	n/a	DICTIONARY	463	5	n/a	n/a	n/a	n/a	n/a	n/a
3152620	RECOG_TARGET	n/a	LTP264	ltpFR	2	1	0	POCKETBOOK	1094	5	0	n/a	n/a	n/a	n/a	n/a
3153358	RECOG_RESP	n/a	LTP264	ltpFR	2	1	0	POCKETBOOK	1094	n/a	0	n/a	n/a	n/a	n/a	n/a
3154246	RECOG_CONF	n/a	LTP264	ltpFR	2	1	0	POCKETBOOK	1094	5	0	n/a	n/a	n/a	n/a	n/a
3155934	RECOG_LURE	n/a	LTP264	ltpFR	2	1	n/a	FLASK	576	5	n/a	n/a	n/a	n/a	n/a	n/a
3157000	RECOG_RESP	n/a	LTP264	ltpFR	2	1	n/a	FLASK	576	n/a	n/a	n/a	n/a	n/a	n/a	n/a
3157868	RECOG_CONF	n/a	LTP264	ltpFR	2	1	n/a	FLASK	576	5	n/a	n/a	n/a	n/a	n/a	n/a
3159627	RECOG_TARGET	n/a	LTP264	ltpFR	2	1	-1	SHOWER	1296	3	-1	n/a	n/a	n/a	n/a	n/a
3161001	RECOG_RESP	n/a	LTP264	ltpFR	2	1	-1	SHOWER	1296	n/a	-1	n/a	n/a	n/a	n/a	n/a
3161979	RECOG_CONF	n/a	LTP264	ltpFR	2	1	-1	SHOWER	1296	3	-1	n/a	n/a	n/a	n/a	n/a
3165859	REC_START	n/a	LTP264	ltpFR	2	2	n/a	n/a	n/a	n/a	n/a	n/a	n/a	n/a	n/a	n/a
3165904	RECOG_LURE	n/a	LTP264	ltpFR	2	2	n/a	TRUMPET	1513	3	n/a	n/a	n/a	n/a	n/a	n/a
3166976	RECOG_RESP	n/a	LTP264	ltpFR	2	2	n/a	TRUMPET	1513	n/a	n/a	n/a	n/a	n/a	n/a	n/a
3168119	RECOG_CONF	n/a	LTP264	ltpFR	2	2	n/a	TRUMPET	1513	3	n/a	n/a	n/a	n/a	n/a	n/a
3169933	RECOG_TARGET	n/a	LTP264	ltpFR	2	2	1	CUP	424	5	0	n/a	n/a	n/a	n/a	n/a
3171032	RECOG_RESP	n/a	LTP264	ltpFR	2	2	1	CUP	424	n/a	0	n/a	n/a	n/a	n/a	n/a
3171900	RECOG_CONF	n/a	LTP264	ltpFR	2	2	1	CUP	424	5	0	n/a	n/a	n/a	n/a	n/a
3173663	RECOG_TARGET	n/a	LTP264	ltpFR	2	2	1	TURKEY	1520	5	1	n/a	n/a	n/a	n/a	n/a
3174843	RECOG_RESP	n/a	LTP264	ltpFR	2	2	1	TURKEY	1520	n/a	1	n/a	n/a	n/a	n/a	n/a
3175721	RECOG_CONF	n/a	LTP264	ltpFR	2	2	1	TURKEY	1520	5	1	n/a	n/a	n/a	n/a	n/a
3177547	RECOG_LURE	n/a	LTP264	ltpFR	2	2	n/a	BACK	65	3	n/a	n/a	n/a	n/a	n/a	n/a
3178819	RECOG_RESP	n/a	LTP264	ltpFR	2	2	n/a	BACK	65	n/a	n/a	n/a	n/a	n/a	n/a	n/a
3179722	RECOG_CONF	n/a	LTP264	ltpFR	2	2	n/a	BACK	65	3	n/a	n/a	n/a	n/a	n/a	n/a
3181379	RECOG_TARGET	n/a	LTP264	ltpFR	2	2	1	BEARD	107	5	0	n/a	n/a	n/a	n/a	n/a
3182037	RECOG_RESP	n/a	LTP264	ltpFR	2	2	1	BEARD	107	n/a	0	n/a	n/a	n/a	n/a	n/a
3182825	RECOG_CONF	n/a	LTP264	ltpFR	2	2	1	BEARD	107	5	0	n/a	n/a	n/a	n/a	n/a
3184554	RECOG_TARGET	n/a	LTP264	ltpFR	2	2	0	VISITOR	1573	5	1	n/a	n/a	n/a	n/a	n/a
3185354	RECOG_RESP	n/a	LTP264	ltpFR	2	2	0	VISITOR	1573	n/a	1	n/a	n/a	n/a	n/a	n/a
3186138	RECOG_CONF	n/a	LTP264	ltpFR	2	2	0	VISITOR	1573	5	1	n/a	n/a	n/a	n/a	n/a
3187971	RECOG_TARGET	n/a	LTP264	ltpFR	2	2	1	NET	946	5	0	n/a	n/a	n/a	n/a	n/a
3188951	RECOG_RESP	n/a	LTP264	ltpFR	2	2	1	NET	946	n/a	0	n/a	n/a	n/a	n/a	n/a
3189819	RECOG_CONF	n/a	LTP264	ltpFR	2	2	1	NET	946	5	0	n/a	n/a	n/a	n/a	n/a
3191530	RECOG_TARGET	n/a	LTP264	ltpFR	2	2	0	TURNIP	1521	5	0	n/a	n/a	n/a	n/a	n/a
3192194	RECOG_RESP	n/a	LTP264	ltpFR	2	2	0	TURNIP	1521	n/a	0	n/a	n/a	n/a	n/a	n/a
3193012	RECOG_CONF	n/a	LTP264	ltpFR	2	2	0	TURNIP	1521	5	0	n/a	n/a	n/a	n/a	n/a
3194762	RECOG_TARGET	n/a	LTP264	ltpFR	2	2	0	SEED	1266	5	0	n/a	n/a	n/a	n/a	n/a
3195975	RECOG_RESP	n/a	LTP264	ltpFR	2	2	0	SEED	1266	n/a	0	n/a	n/a	n/a	n/a	n/a
3196744	RECOG_CONF	n/a	LTP264	ltpFR	2	2	0	SEED	1266	5	0	n/a	n/a	n/a	n/a	n/a
3198459	RECOG_TARGET	n/a	LTP264	ltpFR	2	2	0	DRINK	498	3	1	n/a	n/a	n/a	n/a	n/a
3202441	RECOG_RESP	n/a	LTP264	ltpFR	2	2	0	DRINK	498	n/a	1	n/a	n/a	n/a	n/a	n/a
3203289	RECOG_CONF	n/a	LTP264	ltpFR	2	2	0	DRINK	498	3	1	n/a	n/a	n/a	n/a	n/a
3205116	RECOG_TARGET	n/a	LTP264	ltpFR	2	2	1	POLE	1097	5	0	n/a	n/a	n/a	n/a	n/a
3206162	RECOG_RESP	n/a	LTP264	ltpFR	2	2	1	POLE	1097	n/a	0	n/a	n/a	n/a	n/a	n/a
3207010	RECOG_CONF	n/a	LTP264	ltpFR	2	2	1	POLE	1097	5	0	n/a	n/a	n/a	n/a	n/a
3208648	RECOG_LURE	n/a	LTP264	ltpFR	2	2	n/a	TEACHER	1440	3	n/a	n/a	n/a	n/a	n/a	n/a
3209275	RECOG_RESP	n/a	LTP264	ltpFR	2	2	n/a	TEACHER	1440	n/a	n/a	n/a	n/a	n/a	n/a	n/a
3210452	RECOG_CONF	n/a	LTP264	ltpFR	2	2	n/a	TEACHER	1440	3	n/a	n/a	n/a	n/a	n/a	n/a
3212162	RECOG_TARGET	n/a	LTP264	ltpFR	2	2	0	NOTE	958	5	1	n/a	n/a	n/a	n/a	n/a
3213915	RECOG_RESP	n/a	LTP264	ltpFR	2	2	0	NOTE	958	n/a	1	n/a	n/a	n/a	n/a	n/a
3214713	RECOG_CONF	n/a	LTP264	ltpFR	2	2	0	NOTE	958	5	1	n/a	n/a	n/a	n/a	n/a
3216458	RECOG_LURE	n/a	LTP264	ltpFR	2	2	n/a	MASCARA	875	5	n/a	n/a	n/a	n/a	n/a	n/a
3217267	RECOG_RESP	n/a	LTP264	ltpFR	2	2	n/a	MASCARA	875	n/a	n/a	n/a	n/a	n/a	n/a	n/a
3218075	RECOG_CONF	n/a	LTP264	ltpFR	2	2	n/a	MASCARA	875	5	n/a	n/a	n/a	n/a	n/a	n/a
3219706	RECOG_TARGET	n/a	LTP264	ltpFR	2	2	1	MAGNET	855	5	0	n/a	n/a	n/a	n/a	n/a
3220919	RECOG_RESP	n/a	LTP264	ltpFR	2	2	1	MAGNET	855	n/a	0	n/a	n/a	n/a	n/a	n/a
3221717	RECOG_CONF	n/a	LTP264	ltpFR	2	2	1	MAGNET	855	5	0	n/a	n/a	n/a	n/a	n/a
3223268	RECOG_TARGET	n/a	LTP264	ltpFR	2	2	-1	SMOG	1330	5	-1	n/a	n/a	n/a	n/a	n/a
3223922	RECOG_RESP	n/a	LTP264	ltpFR	2	2	-1	SMOG	1330	n/a	-1	n/a	n/a	n/a	n/a	n/a
3224600	RECOG_CONF	n/a	LTP264	ltpFR	2	2	-1	SMOG	1330	5	-1	n/a	n/a	n/a	n/a	n/a
3226312	RECOG_LURE	n/a	LTP264	ltpFR	2	2	n/a	PEARL	1034	3	n/a	n/a	n/a	n/a	n/a	n/a
3227374	RECOG_RESP	n/a	LTP264	ltpFR	2	2	n/a	PEARL	1034	n/a	n/a	n/a	n/a	n/a	n/a	n/a
3228192	RECOG_CONF	n/a	LTP264	ltpFR	2	2	n/a	PEARL	1034	3	n/a	n/a	n/a	n/a	n/a	n/a
3229829	RECOG_LURE	n/a	LTP264	ltpFR	2	2	n/a	FORK	594	5	n/a	n/a	n/a	n/a	n/a	n/a
3230826	RECOG_RESP	n/a	LTP264	ltpFR	2	2	n/a	FORK	594	n/a	n/a	n/a	n/a	n/a	n/a	n/a
3231974	RECOG_CONF	n/a	LTP264	ltpFR	2	2	n/a	FORK	594	5	n/a	n/a	n/a	n/a	n/a	n/a
3233642	RECOG_LURE	n/a	LTP264	ltpFR	2	2	n/a	FUNGUS	614	5	n/a	n/a	n/a	n/a	n/a	n/a
3234428	RECOG_RESP	n/a	LTP264	ltpFR	2	2	n/a	FUNGUS	614	n/a	n/a	n/a	n/a	n/a	n/a	n/a
3235186	RECOG_CONF	n/a	LTP264	ltpFR	2	2	n/a	FUNGUS	614	5	n/a	n/a	n/a	n/a	n/a	n/a
3236720	RECOG_TARGET	n/a	LTP264	ltpFR	2	2	0	RUNNER	1218	3	1	n/a	n/a	n/a	n/a	n/a
3237890	RECOG_RESP	n/a	LTP264	ltpFR	2	2	0	RUNNER	1218	n/a	1	n/a	n/a	n/a	n/a	n/a
3238838	RECOG_CONF	n/a	LTP264	ltpFR	2	2	0	RUNNER	1218	3	1	n/a	n/a	n/a	n/a	n/a
3242191	REC_START	n/a	LTP264	ltpFR	2	3	n/a	n/a	n/a	n/a	n/a	n/a	n/a	n/a	n/a	n/a
3242242	RECOG_LURE	n/a	LTP264	ltpFR	2	3	n/a	VELVET	1555	3	n/a	n/a	n/a	n/a	n/a	n/a
3243603	RECOG_RESP	n/a	LTP264	ltpFR	2	3	n/a	VELVET	1555	n/a	n/a	n/a	n/a	n/a	n/a	n/a
3244421	RECOG_CONF	n/a	LTP264	ltpFR	2	3	n/a	VELVET	1555	3	n/a	n/a	n/a	n/a	n/a	n/a
3245973	RECOG_LURE	n/a	LTP264	ltpFR	2	3	n/a	DAM	436	5	n/a	n/a	n/a	n/a	n/a	n/a
3246755	RECOG_RESP	n/a	LTP264	ltpFR	2	3	n/a	DAM	436	n/a	n/a	n/a	n/a	n/a	n/a	n/a
3247494	RECOG_CONF	n/a	LTP264	ltpFR	2	3	n/a	DAM	436	5	n/a	n/a	n/a	n/a	n/a	n/a
3249218	RECOG_TARGET	n/a	LTP264	ltpFR	2	3	0	CUFF	423	5	1	n/a	n/a	n/a	n/a	n/a
3249828	RECOG_RESP	n/a	LTP264	ltpFR	2	3	0	CUFF	423	n/a	1	n/a	n/a	n/a	n/a	n/a
3250607	RECOG_CONF	n/a	LTP264	ltpFR	2	3	0	CUFF	423	5	1	n/a	n/a	n/a	n/a	n/a
3252364	RECOG_TARGET	n/a	LTP264	ltpFR	2	3	0	ACROBAT	4	5	1	n/a	n/a	n/a	n/a	n/a
3253011	RECOG_RESP	n/a	LTP264	ltpFR	2	3	0	ACROBAT	4	n/a	1	n/a	n/a	n/a	n/a	n/a
3253720	RECOG_CONF	n/a	LTP264	ltpFR	2	3	0	ACROBAT	4	5	1	n/a	n/a	n/a	n/a	n/a
3255404	RECOG_TARGET	n/a	LTP264	ltpFR	2	3	0	WAITRESS	1581	5	1	n/a	n/a	n/a	n/a	n/a
3256064	RECOG_RESP	n/a	LTP264	ltpFR	2	3	0	WAITRESS	1581	n/a	1	n/a	n/a	n/a	n/a	n/a
3256872	RECOG_CONF	n/a	LTP264	ltpFR	2	3	0	WAITRESS	1581	5	1	n/a	n/a	n/a	n/a	n/a
3258469	RECOG_LURE	n/a	LTP264	ltpFR	2	3	n/a	BASKET	95	3	n/a	n/a	n/a	n/a	n/a	n/a
3259312	RECOG_RESP	n/a	LTP264	ltpFR	2	3	n/a	BASKET	95	n/a	n/a	n/a	n/a	n/a	n/a	n/a
3260045	RECOG_CONF	n/a	LTP264	ltpFR	2	3	n/a	BASKET	95	3	n/a	n/a	n/a	n/a	n/a	n/a
3261648	RECOG_LURE	n/a	LTP264	ltpFR	2	3	n/a	FROG	608	5	n/a	n/a	n/a	n/a	n/a	n/a
3262809	RECOG_RESP	n/a	LTP264	ltpFR	2	3	n/a	FROG	608	n/a	n/a	n/a	n/a	n/a	n/a	n/a
3263547	RECOG_CONF	n/a	LTP264	ltpFR	2	3	n/a	FROG	608	5	n/a	n/a	n/a	n/a	n/a	n/a
3265212	RECOG_TARGET	n/a	LTP264	ltpFR	2	3	0	JOINT	758	5	1	n/a	n/a	n/a	n/a	n/a
3266136	RECOG_RESP	n/a	LTP264	ltpFR	2	3	0	JOINT	758	n/a	1	n/a	n/a	n/a	n/a	n/a
3267059	RECOG_CONF	n/a	LTP264	ltpFR	2	3	0	JOINT	758	5	1	n/a	n/a	n/a	n/a	n/a
3268741	RECOG_TARGET	n/a	LTP264	ltpFR	2	3	1	TOOTHPASTE	1483	5	0	n/a	n/a	n/a	n/a	n/a
3269494	RECOG_RESP	n/a	LTP264	ltpFR	2	3	1	TOOTHPASTE	1483	n/a	0	n/a	n/a	n/a	n/a	n/a
3270262	RECOG_CONF	n/a	LTP264	ltpFR	2	3	1	TOOTHPASTE	1483	5	0	n/a	n/a	n/a	n/a	n/a
3272018	RECOG_TARGET	n/a	LTP264	ltpFR	2	3	-1	BEEF	113	5	-1	n/a	n/a	n/a	n/a	n/a
3272816	RECOG_RESP	n/a	LTP264	ltpFR	2	3	-1	BEEF	113	n/a	-1	n/a	n/a	n/a	n/a	n/a
3273634	RECOG_CONF	n/a	LTP264	ltpFR	2	3	-1	BEEF	113	5	-1	n/a	n/a	n/a	n/a	n/a
3275333	RECOG_TARGET	n/a	LTP264	ltpFR	2	3	0	LOUNGE	845	5	1	n/a	n/a	n/a	n/a	n/a
3275979	RECOG_RESP	n/a	LTP264	ltpFR	2	3	0	LOUNGE	845	n/a	1	n/a	n/a	n/a	n/a	n/a
3276787	RECOG_CONF	n/a	LTP264	ltpFR	2	3	0	LOUNGE	845	5	1	n/a	n/a	n/a	n/a	n/a
3278494	RECOG_TARGET	n/a	LTP264	ltpFR	2	3	-1	JEWEL	757	5	-1	n/a	n/a	n/a	n/a	n/a
3279112	RECOG_RESP	n/a	LTP264	ltpFR	2	3	-1	JEWEL	757	n/a	-1	n/a	n/a	n/a	n/a	n/a
3279900	RECOG_CONF	n/a	LTP264	ltpFR	2	3	-1	JEWEL	757	5	-1	n/a	n/a	n/a	n/a	n/a
3281656	RECOG_TARGET	n/a	LTP264	ltpFR	2	3	1	GLACIER	638	5	1	n/a	n/a	n/a	n/a	n/a
3282285	RECOG_RESP	n/a	LTP264	ltpFR	2	3	1	GLACIER	638	n/a	1	n/a	n/a	n/a	n/a	n/a
3283103	RECOG_CONF	n/a	LTP264	ltpFR	2	3	1	GLACIER	638	5	1	n/a	n/a	n/a	n/a	n/a
3284718	RECOG_TARGET	n/a	LTP264	ltpFR	2	3	1	COOKBOOK	373	5	1	n/a	n/a	n/a	n/a	n/a
3285378	RECOG_RESP	n/a	LTP264	ltpFR	2	3	1	COOKBOOK	373	n/a	1	n/a	n/a	n/a	n/a	n/a
3286136	RECOG_CONF	n/a	LTP264	ltpFR	2	3	1	COOKBOOK	373	5	1	n/a	n/a	n/a	n/a	n/a
3287797	RECOG_LURE	n/a	LTP264	ltpFR	2	3	n/a	SLIME	1327	3	n/a	n/a	n/a	n/a	n/a	n/a
3288920	RECOG_RESP	n/a	LTP264	ltpFR	2	3	n/a	SLIME	1327	n/a	n/a	n/a	n/a	n/a	n/a	n/a
3289708	RECOG_CONF	n/a	LTP264	ltpFR	2	3	n/a	SLIME	1327	3	n/a	n/a	n/a	n/a	n/a	n/a
3291527	RECOG_LURE	n/a	LTP264	ltpFR	2	3	n/a	ICEBERG	731	4	n/a	n/a	n/a	n/a	n/a	n/a
3292501	RECOG_RESP	n/a	LTP264	ltpFR	2	3	n/a	ICEBERG	731	n/a	n/a	n/a	n/a	n/a	n/a	n/a
3293519	RECOG_CONF	n/a	LTP264	ltpFR	2	3	n/a	ICEBERG	731	4	n/a	n/a	n/a	n/a	n/a	n/a
3295208	RECOG_LURE	n/a	LTP264	ltpFR	2	3	n/a	HANDCUFFS	685	5	n/a	n/a	n/a	n/a	n/a	n/a
3296413	RECOG_RESP	n/a	LTP264	ltpFR	2	3	n/a	HANDCUFFS	685	n/a	n/a	n/a	n/a	n/a	n/a	n/a
3297221	RECOG_CONF	n/a	LTP264	ltpFR	2	3	n/a	HANDCUFFS	685	5	n/a	n/a	n/a	n/a	n/a	n/a
3299087	RECOG_LURE	n/a	LTP264	ltpFR	2	3	n/a	MEDICINE	886	3	n/a	n/a	n/a	n/a	n/a	n/a
3300169	RECOG_RESP_VV	n/a	LTP264	ltpFR	2	3	n/a	MEDICINE	886	n/a	n/a	n/a	n/a	n/a	n/a	n/a
3300992	RECOG_RESP	n/a	LTP264	ltpFR	2	3	n/a	MEDICINE	886	n/a	n/a	n/a	n/a	n/a	n/a	n/a
3301910	RECOG_CONF	n/a	LTP264	ltpFR	2	3	n/a	MEDICINE	886	3	n/a	n/a	n/a	n/a	n/a	n/a
3303472	RECOG_TARGET	n/a	LTP264	ltpFR	2	3	1	SHORTCAKE	1292	3	0	n/a	n/a	n/a	n/a	n/a
3304444	RECOG_RESP	n/a	LTP264	ltpFR	2	3	1	SHORTCAKE	1292	n/a	0	n/a	n/a	n/a	n/a	n/a
3305352	RECOG_CONF	n/a	LTP264	ltpFR	2	3	1	SHORTCAKE	1292	3	0	n/a	n/a	n/a	n/a	n/a
3307020	RECOG_LURE	n/a	LTP264	ltpFR	2	3	n/a	EMERALD	528	5	n/a	n/a	n/a	n/a	n/a	n/a
3307847	RECOG_RESP	n/a	LTP264	ltpFR	2	3	n/a	EMERALD	528	n/a	n/a	n/a	n/a	n/a	n/a	n/a
3308555	RECOG_CONF	n/a	LTP264	ltpFR	2	3	n/a	EMERALD	528	5	n/a	n/a	n/a	n/a	n/a	n/a
3312157	REC_START	n/a	LTP264	ltpFR	2	4	n/a	n/a	n/a	n/a	n/a	n/a	n/a	n/a	n/a	n/a
3312206	RECOG_LURE	n/a	LTP264	ltpFR	2	4	n/a	MOP	916	3	n/a	n/a	n/a	n/a	n/a	n/a
3314182	RECOG_RESP	n/a	LTP264	ltpFR	2	4	n/a	MOP	916	n/a	n/a	n/a	n/a	n/a	n/a	n/a
3315035	RECOG_CONF	n/a	LTP264	ltpFR	2	4	n/a	MOP	916	3	n/a	n/a	n/a	n/a	n/a	n/a
3316739	RECOG_LURE	n/a	LTP264	ltpFR	2	4	n/a	SKATE	1313	5	n/a	n/a	n/a	n/a	n/a	n/a
3317649	RECOG_RESP	n/a	LTP264	ltpFR	2	4	n/a	SKATE	1313	n/a	n/a	n/a	n/a	n/a	n/a	n/a
3318448	RECOG_CONF	n/a	LTP264	ltpFR	2	4	n/a	SKATE	1313	5	n/a	n/a	n/a	n/a	n/a	n/a
3320019	RECOG_LURE	n/a	LTP264	ltpFR	2	4	n/a	BEE	112	3	n/a	n/a	n/a	n/a	n/a	n/a
3320952	RECOG_RESP	n/a	LTP264	ltpFR	2	4	n/a	BEE	112	n/a	n/a	n/a	n/a	n/a	n/a	n/a
3321890	RECOG_CONF	n/a	LTP264	ltpFR	2	4	n/a	BEE	112	3	n/a	n/a	n/a	n/a	n/a	n/a
3323581	RECOG_LURE	n/a	LTP264	ltpFR	2	4	n/a	KEYBOARD	774	5	n/a	n/a	n/a	n/a	n/a	n/a
3325631	RECOG_RESP	n/a	LTP264	ltpFR	2	4	n/a	KEYBOARD	774	n/a	n/a	n/a	n/a	n/a	n/a	n/a
3326759	RECOG_CONF	n/a	LTP264	ltpFR	2	4	n/a	KEYBOARD	774	5	n/a	n/a	n/a	n/a	n/a	n/a
3328483	RECOG_LURE	n/a	LTP264	ltpFR	2	4	n/a	CABLE	213	3	n/a	n/a	n/a	n/a	n/a	n/a
3329537	RECOG_RESP	n/a	LTP264	ltpFR	2	4	n/a	CABLE	213	n/a	n/a	n/a	n/a	n/a	n/a	n/a
3330331	RECOG_CONF	n/a	LTP264	ltpFR	2	4	n/a	CABLE	213	3	n/a	n/a	n/a	n/a	n/a	n/a
3331980	RECOG_TARGET	n/a	LTP264	ltpFR	2	4	0	SALMON	1227	5	1	n/a	n/a	n/a	n/a	n/a
3332670	RECOG_RESP	n/a	LTP264	ltpFR	2	4	0	SALMON	1227	n/a	1	n/a	n/a	n/a	n/a	n/a
3333384	RECOG_CONF	n/a	LTP264	ltpFR	2	4	0	SALMON	1227	5	1	n/a	n/a	n/a	n/a	n/a
3335142	RECOG_LURE	n/a	LTP264	ltpFR	2	4	n/a	BARK	87	5	n/a	n/a	n/a	n/a	n/a	n/a
3336202	RECOG_RESP	n/a	LTP264	ltpFR	2	4	n/a	BARK	87	n/a	n/a	n/a	n/a	n/a	n/a	n/a
3337035	RECOG_CONF	n/a	LTP264	ltpFR	2	4	n/a	BARK	87	5	n/a	n/a	n/a	n/a	n/a	n/a
3338705	RECOG_TARGET	n/a	LTP264	ltpFR	2	4	-1	SUITE	1404	5	-1	n/a	n/a	n/a	n/a	n/a
3339430	RECOG_RESP	n/a	LTP264	ltpFR	2	4	-1	SUITE	1404	n/a	-1	n/a	n/a	n/a	n/a	n/a
3340248	RECOG_CONF	n/a	LTP264	ltpFR	2	4	-1	SUITE	1404	5	-1	n/a	n/a	n/a	n/a	n/a
3342001	RECOG_LURE	n/a	LTP264	ltpFR	2	4	n/a	MALL	860	5	n/a	n/a	n/a	n/a	n/a	n/a
3342702	RECOG_RESP_VV	n/a	LTP264	ltpFR	2	4	n/a	MALL	860	n/a	n/a	n/a	n/a	n/a	n/a	n/a
3343356	RECOG_RESP	n/a	LTP264	ltpFR	2	4	n/a	MALL	860	n/a	n/a	n/a	n/a	n/a	n/a	n/a
3344299	RECOG_CONF	n/a	LTP264	ltpFR	2	4	n/a	MALL	860	5	n/a	n/a	n/a	n/a	n/a	n/a
3346033	RECOG_TARGET	n/a	LTP264	ltpFR	2	4	0	CHEST	295	5	1	n/a	n/a	n/a	n/a	n/a
3347726	RECOG_RESP	n/a	LTP264	ltpFR	2	4	0	CHEST	295	n/a	1	n/a	n/a	n/a	n/a	n/a
3348649	RECOG_CONF	n/a	LTP264	ltpFR	2	4	0	CHEST	295	5	1	n/a	n/a	n/a	n/a	n/a
3350316	RECOG_LURE	n/a	LTP264	ltpFR	2	4	n/a	SHAMPOO	1274	5	n/a	n/a	n/a	n/a	n/a	n/a
3351223	RECOG_RESP	n/a	LTP264	ltpFR	2	4	n/a	SHAMPOO	1274	n/a	n/a	n/a	n/a	n/a	n/a	n/a
3352021	RECOG_CONF	n/a	LTP264	ltpFR	2	4	n/a	SHAMPOO	1274	5	n/a	n/a	n/a	n/a	n/a	n/a
3353661	RECOG_LURE	n/a	LTP264	ltpFR	2	4	n/a	CHARCOAL	281	3	n/a	n/a	n/a	n/a	n/a	n/a
3355084	RECOG_RESP	n/a	LTP264	ltpFR	2	4	n/a	CHARCOAL	281	n/a	n/a	n/a	n/a	n/a	n/a	n/a
3356142	RECOG_CONF	n/a	LTP264	ltpFR	2	4	n/a	CHARCOAL	281	3	n/a	n/a	n/a	n/a	n/a	n/a
3357841	RECOG_TARGET	n/a	LTP264	ltpFR	2	4	-1	DRESS	495	5	-1	n/a	n/a	n/a	n/a	n/a
3358591	RECOG_RESP	n/a	LTP264	ltpFR	2	4	-1	DRESS	495	n/a	-1	n/a	n/a	n/a	n/a	n/a
3359404	RECOG_CONF	n/a	LTP264	ltpFR	2	4	-1	DRESS	495	5	-1	n/a	n/a	n/a	n/a	n/a
3361070	RECOG_LURE	n/a	LTP264	ltpFR	2	4	n/a	GRATE	657	3	n/a	n/a	n/a	n/a	n/a	n/a
3362522	RECOG_RESP	n/a	LTP264	ltpFR	2	4	n/a	GRATE	657	n/a	n/a	n/a	n/a	n/a	n/a	n/a
3363445	RECOG_CONF	n/a	LTP264	ltpFR	2	4	n/a	GRATE	657	3	n/a	n/a	n/a	n/a	n/a	n/a
3365289	RECOG_LURE	n/a	LTP264	ltpFR	2	4	n/a	SODA	1341	5	n/a	n/a	n/a	n/a	n/a	n/a
3365950	RECOG_RESP	n/a	LTP264	ltpFR	2	4	n/a	SODA	1341	n/a	n/a	n/a	n/a	n/a	n/a	n/a
3366738	RECOG_CONF	n/a	LTP264	ltpFR	2	4	n/a	SODA	1341	5	n/a	n/a	n/a	n/a	n/a	n/a
3368398	RECOG_TARGET	n/a	LTP264	ltpFR	2	4	-1	BARLEY	88	5	-1	n/a	n/a	n/a	n/a	n/a
3369581	RECOG_RESP	n/a	LTP264	ltpFR	2	4	-1	BARLEY	88	n/a	-1	n/a	n/a	n/a	n/a	n/a
3370330	RECOG_CONF	n/a	LTP264	ltpFR	2	4	-1	BARLEY	88	5	-1	n/a	n/a	n/a	n/a	n/a
3372098	RECOG_LURE	n/a	LTP264	ltpFR	2	4	n/a	TICK	1463	5	n/a	n/a	n/a	n/a	n/a	n/a
3372934	RECOG_RESP	n/a	LTP264	ltpFR	2	4	n/a	TICK	1463	n/a	n/a	n/a	n/a	n/a	n/a	n/a
3373802	RECOG_CONF	n/a	LTP264	ltpFR	2	4	n/a	TICK	1463	5	n/a	n/a	n/a	n/a	n/a	n/a
3375577	RECOG_LURE	n/a	LTP264	ltpFR	2	4	n/a	CATHEDRAL	260	5	n/a	n/a	n/a	n/a	n/a	n/a
3376446	RECOG_RESP	n/a	LTP264	ltpFR	2	4	n/a	CATHEDRAL	260	n/a	n/a	n/a	n/a	n/a	n/a	n/a
3377344	RECOG_CONF	n/a	LTP264	ltpFR	2	4	n/a	CATHEDRAL	260	5	n/a	n/a	n/a	n/a	n/a	n/a
3379122	RECOG_TARGET	n/a	LTP264	ltpFR	2	4	1	MUFFIN	929	5	0	n/a	n/a	n/a	n/a	n/a
3380077	RECOG_RESP	n/a	LTP264	ltpFR	2	4	1	MUFFIN	929	n/a	0	n/a	n/a	n/a	n/a	n/a
3380866	RECOG_CONF	n/a	LTP264	ltpFR	2	4	1	MUFFIN	929	5	0	n/a	n/a	n/a	n/a	n/a
3382470	RECOG_LURE	n/a	LTP264	ltpFR	2	4	n/a	ANTLER	29	3	n/a	n/a	n/a	n/a	n/a	n/a
3383959	RECOG_RESP	n/a	LTP264	ltpFR	2	4	n/a	ANTLER	29	n/a	n/a	n/a	n/a	n/a	n/a	n/a
3384747	RECOG_CONF	n/a	LTP264	ltpFR	2	4	n/a	ANTLER	29	3	n/a	n/a	n/a	n/a	n/a	n/a
3388437	REC_START	n/a	LTP264	ltpFR	2	5	n/a	n/a	n/a	n/a	n/a	n/a	n/a	n/a	n/a	n/a
3388492	RECOG_LURE	n/a	LTP264	ltpFR	2	5	n/a	SHORE	1291	3	n/a	n/a	n/a	n/a	n/a	n/a
3389784	RECOG_RESP	n/a	LTP264	ltpFR	2	5	n/a	SHORE	1291	n/a	n/a	n/a	n/a	n/a	n/a	n/a
3390717	RECOG_CONF	n/a	LTP264	ltpFR	2	5	n/a	SHORE	1291	3	n/a	n/a	n/a	n/a	n/a	n/a
3392457	RECOG_TARGET	n/a	LTP264	ltpFR	2	5	-1	WINDSHIELD	1612	5	-1	n/a	n/a	n/a	n/a	n/a
3393361	RECOG_RESP	n/a	LTP264	ltpFR	2	5	-1	WINDSHIELD	1612	n/a	-1	n/a	n/a	n/a	n/a	n/a
3394029	RECOG_CONF	n/a	LTP264	ltpFR	2	5	-1	WINDSHIELD	1612	5	-1	n/a	n/a	n/a	n/a	n/a
3395586	RECOG_LURE	n/a	LTP264	ltpFR	2	5	n/a	SEAFOOD	1260	3	n/a	n/a	n/a	n/a	n/a	n/a
3399741	RECOG_RESP	n/a	LTP264	ltpFR	2	5	n/a	SEAFOOD	1260	n/a	n/a	n/a	n/a	n/a	n/a	n/a
3400484	RECOG_CONF	n/a	LTP264	ltpFR	2	5	n/a	SEAFOOD	1260	3	n/a	n/a	n/a	n/a	n/a	n/a
3402192	RECOG_LURE	n/a	LTP264	ltpFR	2	5	n/a	PAW	1029	5	n/a	n/a	n/a	n/a	n/a	n/a
3403388	RECOG_RESP	n/a	LTP264	ltpFR	2	5	n/a	PAW	1029	n/a	n/a	n/a	n/a	n/a	n/a	n/a
3404196	RECOG_CONF	n/a	LTP264	ltpFR	2	5	n/a	PAW	1029	5	n/a	n/a	n/a	n/a	n/a	n/a
3405856	RECOG_TARGET	n/a	LTP264	ltpFR	2	5	-1	SKETCH	1315	5	-1	n/a	n/a	n/a	n/a	n/a
3406491	RECOG_RESP	n/a	LTP264	ltpFR	2	5	-1	SKETCH	1315	n/a	-1	n/a	n/a	n/a	n/a	n/a
3407299	RECOG_CONF	n/a	LTP264	ltpFR	2	5	-1	SKETCH	1315	5	-1	n/a	n/a	n/a	n/a	n/a
3408920	RECOG_LURE	n/a	LTP264	ltpFR	2	5	n/a	VIKING	1565	3	n/a	n/a	n/a	n/a	n/a	n/a
3409703	RECOG_RESP	n/a	LTP264	ltpFR	2	5	n/a	VIKING	1565	n/a	n/a	n/a	n/a	n/a	n/a	n/a
3410552	RECOG_CONF	n/a	LTP264	ltpFR	2	5	n/a	VIKING	1565	3	n/a	n/a	n/a	n/a	n/a	n/a
3412196	RECOG_TARGET	n/a	LTP264	ltpFR	2	5	1	SHELL	1281	5	0	n/a	n/a	n/a	n/a	n/a
3412712	RECOG_RESP	n/a	LTP264	ltpFR	2	5	1	SHELL	1281	n/a	0	n/a	n/a	n/a	n/a	n/a
3413515	RECOG_CONF	n/a	LTP264	ltpFR	2	5	1	SHELL	1281	5	0	n/a	n/a	n/a	n/a	n/a
3415127	RECOG_LURE	n/a	LTP264	ltpFR	2	5	n/a	STONE	1385	3	n/a	n/a	n/a	n/a	n/a	n/a
3416298	RECOG_RESP	n/a	LTP264	ltpFR	2	5	n/a	STONE	1385	n/a	n/a	n/a	n/a	n/a	n/a	n/a
3417087	RECOG_CONF	n/a	LTP264	ltpFR	2	5	n/a	STONE	1385	3	n/a	n/a	n/a	n/a	n/a	n/a
3418689	RECOG_LURE	n/a	LTP264	ltpFR	2	5	n/a	OWL	992	5	n/a	n/a	n/a	n/a	n/a	n/a
3419581	RECOG_RESP	n/a	LTP264	ltpFR	2	5	n/a	OWL	992	n/a	n/a	n/a	n/a	n/a	n/a	n/a
3420489	RECOG_CONF	n/a	LTP264	ltpFR	2	5	n/a	OWL	992	5	n/a	n/a	n/a	n/a	n/a	n/a
3422070	RECOG_LURE	n/a	LTP264	ltpFR	2	5	n/a	MOTHER	921	3	n/a	n/a	n/a	n/a	n/a	n/a
3423367	RECOG_RESP	n/a	LTP264	ltpFR	2	5	n/a	MOTHER	921	n/a	n/a	n/a	n/a	n/a	n/a	n/a
3424201	RECOG_CONF	n/a	LTP264	ltpFR	2	5	n/a	MOTHER	921	3	n/a	n/a	n/a	n/a	n/a	n/a
3425982	RECOG_TARGET	n/a	LTP264	ltpFR	2	5	1	BUGLE	189	5	1	n/a	n/a	n/a	n/a	n/a
3427298	RECOG_RESP	n/a	LTP264	ltpFR	2	5	1	BUGLE	189	n/a	1	n/a	n/a	n/a	n/a	n/a
3428092	RECOG_CONF	n/a	LTP264	ltpFR	2	5	1	BUGLE	189	5	1	n/a	n/a	n/a	n/a	n/a
3429829	RECOG_TARGET	n/a	LTP264	ltpFR	2	5	1	LINT	826	5	1	n/a	n/a	n/a	n/a	n/a
3430707	RECOG_RESP	n/a	LTP264	ltpFR	2	5	1	LINT	826	n/a	1	n/a	n/a	n/a	n/a	n/a
3431484	RECOG_CONF	n/a	LTP264	ltpFR	2	5	1	LINT	826	5	1	n/a	n/a	n/a	n/a	n/a
