onset	duration	trial_type	sample	stim_file	subject	experiment	session	trial	task	item_name	item_num	recog_conf	resp	answer	test_x	test_y	test_z	color_b	color_g	color_r	case	font
311.596	n/a	SESS_START	155798	n/a	LTP265	ltpFR	9	n/a	n/a	n/a	n/a	n/a	n/a	n/a	0	0	0	n/a	n/a	n/a	n/a	n/a
348.126	n/a	START	174063	n/a	LTP265	ltpFR	9	n/a	n/a	n/a	n/a	n/a	n/a	n/a	n/a	n/a	n/a	n/a	n/a	n/a	n/a	n/a
348.176	n/a	PROB	174088	n/a	LTP265	ltpFR	9	n/a	n/a	n/a	n/a	n/a	n/a	14	3	5	6	n/a	n/a	n/a	n/a	n/a
351.07	n/a	PROB	175535	n/a	LTP265	ltpFR	9	n/a	n/a	n/a	n/a	n/a	n/a	18	2	9	7	n/a	n/a	n/a	n/a	n/a
352.784	n/a	PROB	176392	n/a	LTP265	ltpFR	9	n/a	n/a	n/a	n/a	n/a	n/a	19	8	3	8	n/a	n/a	n/a	n/a	n/a
354.734	n/a	PROB	177367	n/a	LTP265	ltpFR	9	n/a	n/a	n/a	n/a	n/a	n/a	27	9	9	9	n/a	n/a	n/a	n/a	n/a
356.608	n/a	PROB	178304	n/a	LTP265	ltpFR	9	n/a	n/a	n/a	n/a	n/a	n/a	18	2	7	9	n/a	n/a	n/a	n/a	n/a
358.354	n/a	PROB	179177	n/a	LTP265	ltpFR	9	n/a	n/a	n/a	n/a	n/a	n/a	16	5	3	8	n/a	n/a	n/a	n/a	n/a
360.004	n/a	PROB	180002	n/a	LTP265	ltpFR	9	n/a	n/a	n/a	n/a	n/a	n/a	12	4	4	4	n/a	n/a	n/a	n/a	n/a
361.426	n/a	PROB	180713	n/a	LTP265	ltpFR	9	n/a	n/a	n/a	n/a	n/a	n/a	12	4	6	2	n/a	n/a	n/a	n/a	n/a
363.084	n/a	PROB	181542	n/a	LTP265	ltpFR	9	n/a	n/a	n/a	n/a	n/a	n/a	10	6	1	3	n/a	n/a	n/a	n/a	n/a
365.392	n/a	PROB	182696	n/a	LTP265	ltpFR	9	n/a	n/a	n/a	n/a	n/a	n/a	16	3	7	6	n/a	n/a	n/a	n/a	n/a
366.788	n/a	STOP	183394	n/a	LTP265	ltpFR	9	n/a	n/a	n/a	n/a	n/a	n/a	n/a	n/a	n/a	n/a	n/a	n/a	n/a	n/a	n/a
408.43	n/a	START	204215	n/a	LTP265	ltpFR	9	n/a	n/a	n/a	n/a	n/a	n/a	n/a	n/a	n/a	n/a	n/a	n/a	n/a	n/a	n/a
409.946	n/a	PROB	204973	n/a	LTP265	ltpFR	9	n/a	n/a	n/a	n/a	n/a	n/a	13	6	2	5	n/a	n/a	n/a	n/a	n/a
412.354	n/a	PROB	206177	n/a	LTP265	ltpFR	9	n/a	n/a	n/a	n/a	n/a	n/a	14	6	2	6	n/a	n/a	n/a	n/a	n/a
414.294	n/a	PROB	207147	n/a	LTP265	ltpFR	9	n/a	n/a	n/a	n/a	n/a	n/a	11	8	1	2	n/a	n/a	n/a	n/a	n/a
415.806	n/a	STOP	207903	n/a	LTP265	ltpFR	9	n/a	n/a	n/a	n/a	n/a	n/a	n/a	n/a	n/a	n/a	n/a	n/a	n/a	n/a	n/a
417.414	n/a	WORD	208707	wordpools/wasnorm_wordpool_less_exclusions.txt	LTP265	ltpFR	9	1	1	HOOK	715	n/a	0	n/a	0	0	0	0	0.5869140625	0.422607421875	upper	../fonts/zerothre.ttf
420.426	n/a	START	210213	n/a	LTP265	ltpFR	9	n/a	n/a	n/a	n/a	n/a	n/a	n/a	n/a	n/a	n/a	n/a	n/a	n/a	n/a	n/a
421.44	n/a	PROB	210720	n/a	LTP265	ltpFR	9	n/a	n/a	n/a	n/a	n/a	n/a	22	9	5	8	n/a	n/a	n/a	n/a	n/a
424.006	n/a	PROB	212003	n/a	LTP265	ltpFR	9	n/a	n/a	n/a	n/a	n/a	n/a	20	4	8	8	n/a	n/a	n/a	n/a	n/a
426.398	n/a	PROB	213199	n/a	LTP265	ltpFR	9	n/a	n/a	n/a	n/a	n/a	n/a	21	5	8	8	n/a	n/a	n/a	n/a	n/a
428.358	n/a	STOP	214179	n/a	LTP265	ltpFR	9	n/a	n/a	n/a	n/a	n/a	n/a	n/a	n/a	n/a	n/a	n/a	n/a	n/a	n/a	n/a
429.436	n/a	WORD	214718	wordpools/wasnorm_wordpool_less_exclusions.txt	LTP265	ltpFR	9	1	1	REEF	1177	n/a	1	n/a	0	0	0	0	0.5869140625	0.422607421875	upper	../fonts/zerothre.ttf
432.448	n/a	START	216224	n/a	LTP265	ltpFR	9	n/a	n/a	n/a	n/a	n/a	n/a	n/a	n/a	n/a	n/a	n/a	n/a	n/a	n/a	n/a
433.61	n/a	PROB	216805	n/a	LTP265	ltpFR	9	n/a	n/a	n/a	n/a	n/a	n/a	11	3	5	3	n/a	n/a	n/a	n/a	n/a
435.176	n/a	PROB	217588	n/a	LTP265	ltpFR	9	n/a	n/a	n/a	n/a	n/a	n/a	11	7	2	2	n/a	n/a	n/a	n/a	n/a
437.206	n/a	PROB	218603	n/a	LTP265	ltpFR	9	n/a	n/a	n/a	n/a	n/a	n/a	15	1	7	7	n/a	n/a	n/a	n/a	n/a
439.022	n/a	STOP	219511	n/a	LTP265	ltpFR	9	n/a	n/a	n/a	n/a	n/a	n/a	n/a	n/a	n/a	n/a	n/a	n/a	n/a	n/a	n/a
441.316	n/a	WORD	220658	wordpools/wasnorm_wordpool_less_exclusions.txt	LTP265	ltpFR	9	1	0	HIGHWAY	707	n/a	1	n/a	0	0	0	1	0.412841796875	0.57763671875	lower	../fonts/amplitud.ttf
444.328	n/a	START	222164	n/a	LTP265	ltpFR	9	n/a	n/a	n/a	n/a	n/a	n/a	n/a	n/a	n/a	n/a	n/a	n/a	n/a	n/a	n/a
445.336	n/a	PROB	222668	n/a	LTP265	ltpFR	9	n/a	n/a	n/a	n/a	n/a	n/a	16	1	6	9	n/a	n/a	n/a	n/a	n/a
447.656	n/a	PROB	223828	n/a	LTP265	ltpFR	9	n/a	n/a	n/a	n/a	n/a	n/a	21	9	4	9	n/a	n/a	n/a	n/a	n/a
450.484	n/a	PROB	225242	n/a	LTP265	ltpFR	9	n/a	n/a	n/a	n/a	n/a	n/a	13	3	1	9	n/a	n/a	n/a	n/a	n/a
452.262	n/a	STOP	226131	n/a	LTP265	ltpFR	9	n/a	n/a	n/a	n/a	n/a	n/a	n/a	n/a	n/a	n/a	n/a	n/a	n/a	n/a	n/a
453.58	n/a	WORD	226790	wordpools/wasnorm_wordpool_less_exclusions.txt	LTP265	ltpFR	9	1	0	ARTERY	41	n/a	0	n/a	0	0	0	1	0.412841796875	0.57763671875	lower	../fonts/amplitud.ttf
456.598	n/a	START	228299	n/a	LTP265	ltpFR	9	n/a	n/a	n/a	n/a	n/a	n/a	n/a	n/a	n/a	n/a	n/a	n/a	n/a	n/a	n/a
457.45	n/a	PROB	228725	n/a	LTP265	ltpFR	9	n/a	n/a	n/a	n/a	n/a	n/a	17	3	9	5	n/a	n/a	n/a	n/a	n/a
460.462	n/a	PROB	230231	n/a	LTP265	ltpFR	9	n/a	n/a	n/a	n/a	n/a	n/a	19	4	9	6	n/a	n/a	n/a	n/a	n/a
462.452	n/a	PROB	231226	n/a	LTP265	ltpFR	9	n/a	n/a	n/a	n/a	n/a	n/a	16	6	8	2	n/a	n/a	n/a	n/a	n/a
464.048	n/a	STOP	232024	n/a	LTP265	ltpFR	9	n/a	n/a	n/a	n/a	n/a	n/a	n/a	n/a	n/a	n/a	n/a	n/a	n/a	n/a	n/a
465.474	n/a	WORD	232737	wordpools/wasnorm_wordpool_less_exclusions.txt	LTP265	ltpFR	9	1	0	DILL	465	n/a	0	n/a	0	0	0	1	0.412841796875	0.57763671875	lower	../fonts/amplitud.ttf
468.486	n/a	START	234243	n/a	LTP265	ltpFR	9	n/a	n/a	n/a	n/a	n/a	n/a	n/a	n/a	n/a	n/a	n/a	n/a	n/a	n/a	n/a
469.648	n/a	PROB	234824	n/a	LTP265	ltpFR	9	n/a	n/a	n/a	n/a	n/a	n/a	11	2	1	8	n/a	n/a	n/a	n/a	n/a
471.33	n/a	PROB	235665	n/a	LTP265	ltpFR	9	n/a	n/a	n/a	n/a	n/a	n/a	21	6	8	7	n/a	n/a	n/a	n/a	n/a
473.528	n/a	PROB	236764	n/a	LTP265	ltpFR	9	n/a	n/a	n/a	n/a	n/a	n/a	15	5	5	5	n/a	n/a	n/a	n/a	n/a
474.828	n/a	PROB	237414	n/a	LTP265	ltpFR	9	n/a	n/a	n/a	n/a	n/a	n/a	15	2	6	7	n/a	n/a	n/a	n/a	n/a
476.344	n/a	STOP	238172	n/a	LTP265	ltpFR	9	n/a	n/a	n/a	n/a	n/a	n/a	n/a	n/a	n/a	n/a	n/a	n/a	n/a	n/a	n/a
477.604	n/a	WORD	238802	wordpools/wasnorm_wordpool_less_exclusions.txt	LTP265	ltpFR	9	1	0	CUCUMBER	421	n/a	0	n/a	0	0	0	1	0.412841796875	0.57763671875	lower	../fonts/amplitud.ttf
480.618	n/a	START	240309	n/a	LTP265	ltpFR	9	n/a	n/a	n/a	n/a	n/a	n/a	n/a	n/a	n/a	n/a	n/a	n/a	n/a	n/a	n/a
481.694	n/a	PROB	240847	n/a	LTP265	ltpFR	9	n/a	n/a	n/a	n/a	n/a	n/a	18	1	9	8	n/a	n/a	n/a	n/a	n/a
483.896	n/a	PROB	241948	n/a	LTP265	ltpFR	9	n/a	n/a	n/a	n/a	n/a	n/a	23	8	9	6	n/a	n/a	n/a	n/a	n/a
485.936	n/a	PROB	242968	n/a	LTP265	ltpFR	9	n/a	n/a	n/a	n/a	n/a	n/a	10	4	4	2	n/a	n/a	n/a	n/a	n/a
488.52	n/a	STOP	244260	n/a	LTP265	ltpFR	9	n/a	n/a	n/a	n/a	n/a	n/a	n/a	n/a	n/a	n/a	n/a	n/a	n/a	n/a	n/a
489.674	n/a	WORD	244837	wordpools/wasnorm_wordpool_less_exclusions.txt	LTP265	ltpFR	9	1	0	SWATTER	1418	n/a	0	n/a	0	0	0	1	0.412841796875	0.57763671875	lower	../fonts/amplitud.ttf
492.686	n/a	START	246343	n/a	LTP265	ltpFR	9	n/a	n/a	n/a	n/a	n/a	n/a	n/a	n/a	n/a	n/a	n/a	n/a	n/a	n/a	n/a
493.64	n/a	PROB	246820	n/a	LTP265	ltpFR	9	n/a	n/a	n/a	n/a	n/a	n/a	5	1	1	3	n/a	n/a	n/a	n/a	n/a
494.904	n/a	PROB	247452	n/a	LTP265	ltpFR	9	n/a	n/a	n/a	n/a	n/a	n/a	14	6	3	5	n/a	n/a	n/a	n/a	n/a
496.634	n/a	PROB	248317	n/a	LTP265	ltpFR	9	n/a	n/a	n/a	n/a	n/a	n/a	14	5	8	1	n/a	n/a	n/a	n/a	n/a
499.02	n/a	PROB	249510	n/a	LTP265	ltpFR	9	n/a	n/a	n/a	n/a	n/a	n/a	7	1	5	1	n/a	n/a	n/a	n/a	n/a
500.386	n/a	STOP	250193	n/a	LTP265	ltpFR	9	n/a	n/a	n/a	n/a	n/a	n/a	n/a	n/a	n/a	n/a	n/a	n/a	n/a	n/a	n/a
501.704	n/a	WORD	250852	wordpools/wasnorm_wordpool_less_exclusions.txt	LTP265	ltpFR	9	1	1	FOREST	593	n/a	1	n/a	0	0	0	0	0.5869140625	0.422607421875	upper	../fonts/zerothre.ttf
504.716	n/a	START	252358	n/a	LTP265	ltpFR	9	n/a	n/a	n/a	n/a	n/a	n/a	n/a	n/a	n/a	n/a	n/a	n/a	n/a	n/a	n/a
505.618	n/a	PROB	252809	n/a	LTP265	ltpFR	9	n/a	n/a	n/a	n/a	n/a	n/a	14	1	9	4	n/a	n/a	n/a	n/a	n/a
507.316	n/a	PROB	253658	n/a	LTP265	ltpFR	9	n/a	n/a	n/a	n/a	n/a	n/a	18	6	5	7	n/a	n/a	n/a	n/a	n/a
509.04	n/a	PROB	254520	n/a	LTP265	ltpFR	9	n/a	n/a	n/a	n/a	n/a	n/a	10	1	8	1	n/a	n/a	n/a	n/a	n/a
512.7	n/a	STOP	256350	n/a	LTP265	ltpFR	9	n/a	n/a	n/a	n/a	n/a	n/a	n/a	n/a	n/a	n/a	n/a	n/a	n/a	n/a	n/a
513.934	n/a	WORD	256967	wordpools/wasnorm_wordpool_less_exclusions.txt	LTP265	ltpFR	9	1	1	SHRUB	1299	n/a	1	n/a	0	0	0	0	0.5869140625	0.422607421875	upper	../fonts/zerothre.ttf
516.946	n/a	START	258473	n/a	LTP265	ltpFR	9	n/a	n/a	n/a	n/a	n/a	n/a	n/a	n/a	n/a	n/a	n/a	n/a	n/a	n/a	n/a
518.132	n/a	PROB	259066	n/a	LTP265	ltpFR	9	n/a	n/a	n/a	n/a	n/a	n/a	12	2	1	9	n/a	n/a	n/a	n/a	n/a
519.982	n/a	PROB	259991	n/a	LTP265	ltpFR	9	n/a	n/a	n/a	n/a	n/a	n/a	15	4	8	2	n/a	n/a	n/a	n/a	n/a
522.508	n/a	PROB	261254	n/a	LTP265	ltpFR	9	n/a	n/a	n/a	n/a	n/a	n/a	13	2	8	3	n/a	n/a	n/a	n/a	n/a
524.628	n/a	STOP	262314	n/a	LTP265	ltpFR	9	n/a	n/a	n/a	n/a	n/a	n/a	n/a	n/a	n/a	n/a	n/a	n/a	n/a	n/a	n/a
525.806	n/a	WORD	262903	wordpools/wasnorm_wordpool_less_exclusions.txt	LTP265	ltpFR	9	1	1	SCISSORS	1250	n/a	0	n/a	0	0	0	0	0.5869140625	0.422607421875	upper	../fonts/zerothre.ttf
528.818	n/a	START	264409	n/a	LTP265	ltpFR	9	n/a	n/a	n/a	n/a	n/a	n/a	n/a	n/a	n/a	n/a	n/a	n/a	n/a	n/a	n/a
530.028	n/a	PROB	265014	n/a	LTP265	ltpFR	9	n/a	n/a	n/a	n/a	n/a	n/a	15	7	7	1	n/a	n/a	n/a	n/a	n/a
531.612	n/a	PROB	265806	n/a	LTP265	ltpFR	9	n/a	n/a	n/a	n/a	n/a	n/a	13	4	6	3	n/a	n/a	n/a	n/a	n/a
533.05	n/a	PROB	266525	n/a	LTP265	ltpFR	9	n/a	n/a	n/a	n/a	n/a	n/a	17	7	7	3	n/a	n/a	n/a	n/a	n/a
536.818	n/a	STOP	268409	n/a	LTP265	ltpFR	9	n/a	n/a	n/a	n/a	n/a	n/a	n/a	n/a	n/a	n/a	n/a	n/a	n/a	n/a	n/a
537.886	n/a	WORD	268943	wordpools/wasnorm_wordpool_less_exclusions.txt	LTP265	ltpFR	9	1	0	LITTER	832	n/a	0	n/a	0	0	0	1	0.412841796875	0.57763671875	lower	../fonts/amplitud.ttf
540.898	n/a	START	270449	n/a	LTP265	ltpFR	9	n/a	n/a	n/a	n/a	n/a	n/a	n/a	n/a	n/a	n/a	n/a	n/a	n/a	n/a	n/a
541.924	n/a	PROB	270962	n/a	LTP265	ltpFR	9	n/a	n/a	n/a	n/a	n/a	n/a	5	1	1	3	n/a	n/a	n/a	n/a	n/a
543.63	n/a	PROB	271815	n/a	LTP265	ltpFR	9	n/a	n/a	n/a	n/a	n/a	n/a	21	7	8	6	n/a	n/a	n/a	n/a	n/a
545.804	n/a	PROB	272902	n/a	LTP265	ltpFR	9	n/a	n/a	n/a	n/a	n/a	n/a	10	5	2	3	n/a	n/a	n/a	n/a	n/a
547.436	n/a	STOP	273718	n/a	LTP265	ltpFR	9	n/a	n/a	n/a	n/a	n/a	n/a	n/a	n/a	n/a	n/a	n/a	n/a	n/a	n/a	n/a
549.798	n/a	WORD	274899	wordpools/wasnorm_wordpool_less_exclusions.txt	LTP265	ltpFR	9	1	0	FOOTBALL	591	n/a	0	n/a	0	0	0	1	0.412841796875	0.57763671875	lower	../fonts/amplitud.ttf
552.81	n/a	START	276405	n/a	LTP265	ltpFR	9	n/a	n/a	n/a	n/a	n/a	n/a	n/a	n/a	n/a	n/a	n/a	n/a	n/a	n/a	n/a
553.786	n/a	PROB	276893	n/a	LTP265	ltpFR	9	n/a	n/a	n/a	n/a	n/a	n/a	14	3	2	9	n/a	n/a	n/a	n/a	n/a
555.676	n/a	PROB	277838	n/a	LTP265	ltpFR	9	n/a	n/a	n/a	n/a	n/a	n/a	14	5	7	2	n/a	n/a	n/a	n/a	n/a
557.466	n/a	PROB	278733	n/a	LTP265	ltpFR	9	n/a	n/a	n/a	n/a	n/a	n/a	13	4	2	7	n/a	n/a	n/a	n/a	n/a
559.048	n/a	PROB	279524	n/a	LTP265	ltpFR	9	n/a	n/a	n/a	n/a	n/a	n/a	8	3	4	1	n/a	n/a	n/a	n/a	n/a
560.582	n/a	STOP	280291	n/a	LTP265	ltpFR	9	n/a	n/a	n/a	n/a	n/a	n/a	n/a	n/a	n/a	n/a	n/a	n/a	n/a	n/a	n/a
561.9	n/a	WORD	280950	wordpools/wasnorm_wordpool_less_exclusions.txt	LTP265	ltpFR	9	1	0	SPIDER	1351	n/a	0	n/a	0	0	0	1	0.412841796875	0.57763671875	lower	../fonts/amplitud.ttf
564.912	n/a	START	282456	n/a	LTP265	ltpFR	9	n/a	n/a	n/a	n/a	n/a	n/a	n/a	n/a	n/a	n/a	n/a	n/a	n/a	n/a	n/a
565.798	n/a	PROB	282899	n/a	LTP265	ltpFR	9	n/a	n/a	n/a	n/a	n/a	n/a	13	6	4	3	n/a	n/a	n/a	n/a	n/a
567.37	n/a	PROB	283685	n/a	LTP265	ltpFR	9	n/a	n/a	n/a	n/a	n/a	n/a	15	3	3	9	n/a	n/a	n/a	n/a	n/a
570.064	n/a	PROB	285032	n/a	LTP265	ltpFR	9	n/a	n/a	n/a	n/a	n/a	n/a	14	3	3	8	n/a	n/a	n/a	n/a	n/a
572.214	n/a	STOP	286107	n/a	LTP265	ltpFR	9	n/a	n/a	n/a	n/a	n/a	n/a	n/a	n/a	n/a	n/a	n/a	n/a	n/a	n/a	n/a
573.772	n/a	WORD	286886	wordpools/wasnorm_wordpool_less_exclusions.txt	LTP265	ltpFR	9	1	1	GOAT	644	n/a	1	n/a	0	0	0	0	0.5869140625	0.422607421875	upper	../fonts/zerothre.ttf
576.784	n/a	START	288392	n/a	LTP265	ltpFR	9	n/a	n/a	n/a	n/a	n/a	n/a	n/a	n/a	n/a	n/a	n/a	n/a	n/a	n/a	n/a
577.676	n/a	PROB	288838	n/a	LTP265	ltpFR	9	n/a	n/a	n/a	n/a	n/a	n/a	11	1	9	1	n/a	n/a	n/a	n/a	n/a
579.176	n/a	PROB	289588	n/a	LTP265	ltpFR	9	n/a	n/a	n/a	n/a	n/a	n/a	7	3	3	1	n/a	n/a	n/a	n/a	n/a
580.604	n/a	PROB	290302	n/a	LTP265	ltpFR	9	n/a	n/a	n/a	n/a	n/a	n/a	16	9	5	2	n/a	n/a	n/a	n/a	n/a
582.494	n/a	PROB	291247	n/a	LTP265	ltpFR	9	n/a	n/a	n/a	n/a	n/a	n/a	18	8	5	5	n/a	n/a	n/a	n/a	n/a
584.11	n/a	STOP	292055	n/a	LTP265	ltpFR	9	n/a	n/a	n/a	n/a	n/a	n/a	n/a	n/a	n/a	n/a	n/a	n/a	n/a	n/a	n/a
585.776	n/a	WORD	292888	wordpools/wasnorm_wordpool_less_exclusions.txt	LTP265	ltpFR	9	1	1	HEDGE	699	n/a	1	n/a	0	0	0	0	0.5869140625	0.422607421875	upper	../fonts/zerothre.ttf
588.788	n/a	START	294394	n/a	LTP265	ltpFR	9	n/a	n/a	n/a	n/a	n/a	n/a	n/a	n/a	n/a	n/a	n/a	n/a	n/a	n/a	n/a
589.806	n/a	PROB	294903	n/a	LTP265	ltpFR	9	n/a	n/a	n/a	n/a	n/a	n/a	15	1	5	9	n/a	n/a	n/a	n/a	n/a
591.556	n/a	PROB	295778	n/a	LTP265	ltpFR	9	n/a	n/a	n/a	n/a	n/a	n/a	11	5	5	1	n/a	n/a	n/a	n/a	n/a
592.902	n/a	PROB	296451	n/a	LTP265	ltpFR	9	n/a	n/a	n/a	n/a	n/a	n/a	12	1	2	9	n/a	n/a	n/a	n/a	n/a
594.434	n/a	PROB	297217	n/a	LTP265	ltpFR	9	n/a	n/a	n/a	n/a	n/a	n/a	14	6	4	4	n/a	n/a	n/a	n/a	n/a
595.822	n/a	STOP	297911	n/a	LTP265	ltpFR	9	n/a	n/a	n/a	n/a	n/a	n/a	n/a	n/a	n/a	n/a	n/a	n/a	n/a	n/a	n/a
597.904	n/a	WORD	298952	wordpools/wasnorm_wordpool_less_exclusions.txt	LTP265	ltpFR	9	1	1	COACH	331	n/a	1	n/a	0	0	0	0	0.5869140625	0.422607421875	upper	../fonts/zerothre.ttf
600.916	n/a	START	300458	n/a	LTP265	ltpFR	9	n/a	n/a	n/a	n/a	n/a	n/a	n/a	n/a	n/a	n/a	n/a	n/a	n/a	n/a	n/a
601.912	n/a	PROB	300956	n/a	LTP265	ltpFR	9	n/a	n/a	n/a	n/a	n/a	n/a	14	7	2	5	n/a	n/a	n/a	n/a	n/a
604.086	n/a	PROB	302043	n/a	LTP265	ltpFR	9	n/a	n/a	n/a	n/a	n/a	n/a	15	2	5	8	n/a	n/a	n/a	n/a	n/a
605.6	n/a	PROB	302800	n/a	LTP265	ltpFR	9	n/a	n/a	n/a	n/a	n/a	n/a	14	8	5	1	n/a	n/a	n/a	n/a	n/a
608.16	n/a	STOP	304080	n/a	LTP265	ltpFR	9	n/a	n/a	n/a	n/a	n/a	n/a	n/a	n/a	n/a	n/a	n/a	n/a	n/a	n/a	n/a
610.798	n/a	REC_START	305399	n/a	LTP265	ltpFR	9	1	n/a	n/a	n/a	n/a	n/a	n/a	0	0	0	n/a	n/a	n/a	n/a	n/a
611.968	n/a	REC_WORD	305984	wordpools/wasnorm_wordpool_less_exclusions.txt	LTP265	ltpFR	9	1	1	HEDGE	699	n/a	1	n/a	0	0	0	n/a	n/a	n/a	n/a	n/a
613.256	n/a	REC_WORD	306628	wordpools/wasnorm_wordpool_less_exclusions.txt	LTP265	ltpFR	9	1	1	GOAT	644	n/a	1	n/a	0	0	0	n/a	n/a	n/a	n/a	n/a
614.346	n/a	REC_WORD	307173	wordpools/wasnorm_wordpool_less_exclusions.txt	LTP265	ltpFR	9	1	1	COACH	331	n/a	1	n/a	0	0	0	n/a	n/a	n/a	n/a	n/a
615.626	n/a	REC_WORD	307813	wordpools/wasnorm_wordpool_less_exclusions.txt	LTP265	ltpFR	9	1	1	FOREST	593	n/a	1	n/a	0	0	0	n/a	n/a	n/a	n/a	n/a
616.822	n/a	REC_WORD	308411	wordpools/wasnorm_wordpool_less_exclusions.txt	LTP265	ltpFR	9	1	1	SCISSORS	1250	n/a	0	n/a	0	0	0	n/a	n/a	n/a	n/a	n/a
618.236	n/a	REC_WORD	309118	wordpools/wasnorm_wordpool_less_exclusions.txt	LTP265	ltpFR	9	1	1	HOOK	715	n/a	0	n/a	0	0	0	n/a	n/a	n/a	n/a	n/a
619.408	n/a	REC_WORD	309704	wordpools/wasnorm_wordpool_less_exclusions.txt	LTP265	ltpFR	9	1	1	REEF	1177	n/a	1	n/a	0	0	0	n/a	n/a	n/a	n/a	n/a
621.482	n/a	REC_WORD	310741	wordpools/wasnorm_wordpool_less_exclusions.txt	LTP265	ltpFR	9	1	0	FOOTBALL	591	n/a	0	n/a	0	0	0	n/a	n/a	n/a	n/a	n/a
622.556	n/a	REC_WORD	311278	wordpools/wasnorm_wordpool_less_exclusions.txt	LTP265	ltpFR	9	1	0	SPIDER	1351	n/a	0	n/a	0	0	0	n/a	n/a	n/a	n/a	n/a
625.408	n/a	REC_WORD	312704	wordpools/wasnorm_wordpool_less_exclusions.txt	LTP265	ltpFR	9	1	0	HIGHWAY	707	n/a	1	n/a	0	0	0	n/a	n/a	n/a	n/a	n/a
646.08	n/a	REC_WORD	323040	wordpools/wasnorm_wordpool_less_exclusions.txt	LTP265	ltpFR	9	1	0	CUCUMBER	421	n/a	0	n/a	0	0	0	n/a	n/a	n/a	n/a	n/a
647.034	n/a	REC_WORD	323517	wordpools/wasnorm_wordpool_less_exclusions.txt	LTP265	ltpFR	9	1	0	DILL	465	n/a	0	n/a	0	0	0	n/a	n/a	n/a	n/a	n/a
698.046	n/a	WORD	349023	wordpools/wasnorm_wordpool_less_exclusions.txt	LTP265	ltpFR	9	2	1	PAPER	1011	n/a	0	n/a	0	0	0	0	0.5869140625	0.422607421875	upper	../fonts/zerothre.ttf
701.968	n/a	WORD	350984	wordpools/wasnorm_wordpool_less_exclusions.txt	LTP265	ltpFR	9	2	1	BAKER	71	n/a	1	n/a	0	0	0	0	0.5869140625	0.422607421875	upper	../fonts/zerothre.ttf
705.968	n/a	WORD	352984	wordpools/wasnorm_wordpool_less_exclusions.txt	LTP265	ltpFR	9	2	0	TYPIST	1532	n/a	1	n/a	0	0	0	1	0.412841796875	0.57763671875	lower	../fonts/amplitud.ttf
710.048	n/a	WORD	355024	wordpools/wasnorm_wordpool_less_exclusions.txt	LTP265	ltpFR	9	2	0	INN	739	n/a	1	n/a	0	0	0	1	0.412841796875	0.57763671875	lower	../fonts/amplitud.ttf
713.942	n/a	WORD	356971	wordpools/wasnorm_wordpool_less_exclusions.txt	LTP265	ltpFR	9	2	0	NIGHTGOWN	953	n/a	1	n/a	0	0	0	1	0.412841796875	0.57763671875	lower	../fonts/amplitud.ttf
718.164	n/a	WORD	359082	wordpools/wasnorm_wordpool_less_exclusions.txt	LTP265	ltpFR	9	2	0	WEB	1598	n/a	1	n/a	0	0	0	1	0.412841796875	0.57763671875	lower	../fonts/amplitud.ttf
722.38	n/a	WORD	361190	wordpools/wasnorm_wordpool_less_exclusions.txt	LTP265	ltpFR	9	2	1	JOURNAL	760	n/a	0	n/a	0	0	0	0	0.5869140625	0.422607421875	upper	../fonts/zerothre.ttf
726.578	n/a	WORD	363289	wordpools/wasnorm_wordpool_less_exclusions.txt	LTP265	ltpFR	9	2	1	VENT	1556	n/a	0	n/a	0	0	0	0	0.5869140625	0.422607421875	upper	../fonts/zerothre.ttf
730.644	n/a	WORD	365322	wordpools/wasnorm_wordpool_less_exclusions.txt	LTP265	ltpFR	9	2	0	LUNG	850	n/a	0	n/a	0	0	0	1	0.412841796875	0.57763671875	lower	../fonts/amplitud.ttf
734.81	n/a	WORD	367405	wordpools/wasnorm_wordpool_less_exclusions.txt	LTP265	ltpFR	9	2	0	NOVEL	960	n/a	0	n/a	0	0	0	1	0.412841796875	0.57763671875	lower	../fonts/amplitud.ttf
738.86	n/a	WORD	369430	wordpools/wasnorm_wordpool_less_exclusions.txt	LTP265	ltpFR	9	2	0	TEAPOT	1442	n/a	1	n/a	0	0	0	1	0.412841796875	0.57763671875	lower	../fonts/amplitud.ttf
742.926	n/a	WORD	371463	wordpools/wasnorm_wordpool_less_exclusions.txt	LTP265	ltpFR	9	2	0	DISH	474	n/a	1	n/a	0	0	0	1	0.412841796875	0.57763671875	lower	../fonts/amplitud.ttf
746.85	n/a	WORD	373425	wordpools/wasnorm_wordpool_less_exclusions.txt	LTP265	ltpFR	9	2	1	SUPERVISOR	1410	n/a	1	n/a	0	0	0	0	0.5869140625	0.422607421875	upper	../fonts/zerothre.ttf
750.838	n/a	WORD	375419	wordpools/wasnorm_wordpool_less_exclusions.txt	LTP265	ltpFR	9	2	1	GARLIC	624	n/a	1	n/a	0	0	0	0	0.5869140625	0.422607421875	upper	../fonts/zerothre.ttf
754.814	n/a	WORD	377407	wordpools/wasnorm_wordpool_less_exclusions.txt	LTP265	ltpFR	9	2	1	MOSS	918	n/a	1	n/a	0	0	0	0	0.5869140625	0.422607421875	upper	../fonts/zerothre.ttf
759.02	n/a	WORD	379510	wordpools/wasnorm_wordpool_less_exclusions.txt	LTP265	ltpFR	9	2	1	BUILDER	190	n/a	1	n/a	0	0	0	0	0.5869140625	0.422607421875	upper	../fonts/zerothre.ttf
762.03	n/a	START	381015	n/a	LTP265	ltpFR	9	n/a	n/a	n/a	n/a	n/a	n/a	n/a	n/a	n/a	n/a	n/a	n/a	n/a	n/a	n/a
763.112	n/a	PROB	381556	n/a	LTP265	ltpFR	9	n/a	n/a	n/a	n/a	n/a	n/a	9	4	2	3	n/a	n/a	n/a	n/a	n/a
764.902	n/a	PROB	382451	n/a	LTP265	ltpFR	9	n/a	n/a	n/a	n/a	n/a	n/a	10	4	5	1	n/a	n/a	n/a	n/a	n/a
766.44	n/a	PROB	383220	n/a	LTP265	ltpFR	9	n/a	n/a	n/a	n/a	n/a	n/a	17	7	4	6	n/a	n/a	n/a	n/a	n/a
768.17	n/a	PROB	384085	n/a	LTP265	ltpFR	9	n/a	n/a	n/a	n/a	n/a	n/a	21	9	9	3	n/a	n/a	n/a	n/a	n/a
769.888	n/a	STOP	384944	n/a	LTP265	ltpFR	9	n/a	n/a	n/a	n/a	n/a	n/a	n/a	n/a	n/a	n/a	n/a	n/a	n/a	n/a	n/a
771.914	n/a	REC_START	385957	n/a	LTP265	ltpFR	9	2	n/a	n/a	n/a	n/a	n/a	n/a	0	0	0	n/a	n/a	n/a	n/a	n/a
773.02	n/a	REC_WORD	386510	wordpools/wasnorm_wordpool_less_exclusions.txt	LTP265	ltpFR	9	2	0	TYPIST	1532	n/a	1	n/a	0	0	0	n/a	n/a	n/a	n/a	n/a
774.136	n/a	REC_WORD	387068	wordpools/wasnorm_wordpool_less_exclusions.txt	LTP265	ltpFR	9	2	1	SUPERVISOR	1410	n/a	1	n/a	0	0	0	n/a	n/a	n/a	n/a	n/a
782.356	n/a	REC_WORD	391178	wordpools/wasnorm_wordpool_less_exclusions.txt	LTP265	ltpFR	9	2	1	PAPER	1011	n/a	0	n/a	0	0	0	n/a	n/a	n/a	n/a	n/a
783.502	n/a	REC_WORD	391751	wordpools/wasnorm_wordpool_less_exclusions.txt	LTP265	ltpFR	9	2	0	NOVEL	960	n/a	0	n/a	0	0	0	n/a	n/a	n/a	n/a	n/a
784.67	n/a	REC_WORD	392335	wordpools/wasnorm_wordpool_less_exclusions.txt	LTP265	ltpFR	9	2	1	JOURNAL	760	n/a	0	n/a	0	0	0	n/a	n/a	n/a	n/a	n/a
788.012	n/a	REC_WORD	394006	wordpools/wasnorm_wordpool_less_exclusions.txt	LTP265	ltpFR	9	2	0	NIGHTGOWN	953	n/a	1	n/a	0	0	0	n/a	n/a	n/a	n/a	n/a
789.044	n/a	REC_WORD	394522	wordpools/wasnorm_wordpool_less_exclusions.txt	LTP265	ltpFR	9	2	0	INN	739	n/a	1	n/a	0	0	0	n/a	n/a	n/a	n/a	n/a
829.24	n/a	REC_WORD	414620	wordpools/wasnorm_wordpool_less_exclusions.txt	LTP265	ltpFR	9	2	0	WEB	1598	n/a	1	n/a	0	0	0	n/a	n/a	n/a	n/a	n/a
851.29	n/a	START	425645	n/a	LTP265	ltpFR	9	n/a	n/a	n/a	n/a	n/a	n/a	n/a	n/a	n/a	n/a	n/a	n/a	n/a	n/a	n/a
852.806	n/a	PROB	426403	n/a	LTP265	ltpFR	9	n/a	n/a	n/a	n/a	n/a	n/a	18	7	6	5	n/a	n/a	n/a	n/a	n/a
855.432	n/a	PROB	427716	n/a	LTP265	ltpFR	9	n/a	n/a	n/a	n/a	n/a	n/a	12	5	6	1	n/a	n/a	n/a	n/a	n/a
856.954	n/a	PROB	428477	n/a	LTP265	ltpFR	9	n/a	n/a	n/a	n/a	n/a	n/a	16	5	3	8	n/a	n/a	n/a	n/a	n/a
858.358	n/a	PROB	429179	n/a	LTP265	ltpFR	9	n/a	n/a	n/a	n/a	n/a	n/a	13	1	5	7	n/a	n/a	n/a	n/a	n/a
860.188	n/a	PROB	430094	n/a	LTP265	ltpFR	9	n/a	n/a	n/a	n/a	n/a	n/a	14	1	8	5	n/a	n/a	n/a	n/a	n/a
862.374	n/a	PROB	431187	n/a	LTP265	ltpFR	9	n/a	n/a	n/a	n/a	n/a	n/a	21	8	8	5	n/a	n/a	n/a	n/a	n/a
864.522	n/a	PROB	432261	n/a	LTP265	ltpFR	9	n/a	n/a	n/a	n/a	n/a	n/a	16	7	7	2	n/a	n/a	n/a	n/a	n/a
866.252	n/a	STOP	433126	n/a	LTP265	ltpFR	9	n/a	n/a	n/a	n/a	n/a	n/a	n/a	n/a	n/a	n/a	n/a	n/a	n/a	n/a	n/a
868.404	n/a	WORD	434202	wordpools/wasnorm_wordpool_less_exclusions.txt	LTP265	ltpFR	9	3	0	CAULIFLOWER	262	n/a	0	n/a	0	0	0	1	0.412841796875	0.57763671875	lower	../fonts/amplitud.ttf
871.416	n/a	START	435708	n/a	LTP265	ltpFR	9	n/a	n/a	n/a	n/a	n/a	n/a	n/a	n/a	n/a	n/a	n/a	n/a	n/a	n/a	n/a
872.47	n/a	PROB	436235	n/a	LTP265	ltpFR	9	n/a	n/a	n/a	n/a	n/a	n/a	13	4	1	8	n/a	n/a	n/a	n/a	n/a
874.588	n/a	PROB	437294	n/a	LTP265	ltpFR	9	n/a	n/a	n/a	n/a	n/a	n/a	10	4	3	3	n/a	n/a	n/a	n/a	n/a
876.15	n/a	PROB	438075	n/a	LTP265	ltpFR	9	n/a	n/a	n/a	n/a	n/a	n/a	8	1	4	3	n/a	n/a	n/a	n/a	n/a
878.576	n/a	PROB	439288	n/a	LTP265	ltpFR	9	n/a	n/a	n/a	n/a	n/a	n/a	15	2	5	8	n/a	n/a	n/a	n/a	n/a
880.166	n/a	PROB	440083	n/a	LTP265	ltpFR	9	n/a	n/a	n/a	n/a	n/a	n/a	8	1	3	4	n/a	n/a	n/a	n/a	n/a
881.716	n/a	PROB	440858	n/a	LTP265	ltpFR	9	n/a	n/a	n/a	n/a	n/a	n/a	16	4	6	6	n/a	n/a	n/a	n/a	n/a
883.494	n/a	PROB	441747	n/a	LTP265	ltpFR	9	n/a	n/a	n/a	n/a	n/a	n/a	19	4	7	8	n/a	n/a	n/a	n/a	n/a
887.416	n/a	STOP	443708	n/a	LTP265	ltpFR	9	n/a	n/a	n/a	n/a	n/a	n/a	n/a	n/a	n/a	n/a	n/a	n/a	n/a	n/a	n/a
888.43	n/a	WORD	444215	wordpools/wasnorm_wordpool_less_exclusions.txt	LTP265	ltpFR	9	3	0	SALAD	1224	n/a	0	n/a	0	0	0	1	0.412841796875	0.57763671875	lower	../fonts/amplitud.ttf
891.442	n/a	START	445721	n/a	LTP265	ltpFR	9	n/a	n/a	n/a	n/a	n/a	n/a	n/a	n/a	n/a	n/a	n/a	n/a	n/a	n/a	n/a
892.362	n/a	PROB	446181	n/a	LTP265	ltpFR	9	n/a	n/a	n/a	n/a	n/a	n/a	14	2	8	4	n/a	n/a	n/a	n/a	n/a
893.818	n/a	PROB	446909	n/a	LTP265	ltpFR	9	n/a	n/a	n/a	n/a	n/a	n/a	16	9	6	1	n/a	n/a	n/a	n/a	n/a
895.408	n/a	PROB	447704	n/a	LTP265	ltpFR	9	n/a	n/a	n/a	n/a	n/a	n/a	9	4	4	1	n/a	n/a	n/a	n/a	n/a
897.174	n/a	PROB	448587	n/a	LTP265	ltpFR	9	n/a	n/a	n/a	n/a	n/a	n/a	16	5	4	6	n/a	n/a	n/a	n/a	n/a
901.112	n/a	PROB	450556	n/a	LTP265	ltpFR	9	n/a	n/a	n/a	n/a	n/a	n/a	21	6	7	8	n/a	n/a	n/a	n/a	n/a
903.706	n/a	PROB	451853	n/a	LTP265	ltpFR	9	n/a	n/a	n/a	n/a	n/a	n/a	11	8	2	1	n/a	n/a	n/a	n/a	n/a
905.238	n/a	PROB	452619	n/a	LTP265	ltpFR	9	n/a	n/a	n/a	n/a	n/a	n/a	17	3	7	7	n/a	n/a	n/a	n/a	n/a
906.856	n/a	STOP	453428	n/a	LTP265	ltpFR	9	n/a	n/a	n/a	n/a	n/a	n/a	n/a	n/a	n/a	n/a	n/a	n/a	n/a	n/a	n/a
908.558	n/a	WORD	454279	wordpools/wasnorm_wordpool_less_exclusions.txt	LTP265	ltpFR	9	3	0	CROWN	415	n/a	0	n/a	0	0	0	1	0.412841796875	0.57763671875	lower	../fonts/amplitud.ttf
911.57	n/a	START	455785	n/a	LTP265	ltpFR	9	n/a	n/a	n/a	n/a	n/a	n/a	n/a	n/a	n/a	n/a	n/a	n/a	n/a	n/a	n/a
912.532	n/a	PROB	456266	n/a	LTP265	ltpFR	9	n/a	n/a	n/a	n/a	n/a	n/a	19	9	7	3	n/a	n/a	n/a	n/a	n/a
914.848	n/a	PROB	457424	n/a	LTP265	ltpFR	9	n/a	n/a	n/a	n/a	n/a	n/a	23	8	7	8	n/a	n/a	n/a	n/a	n/a
917.358	n/a	PROB	458679	n/a	LTP265	ltpFR	9	n/a	n/a	n/a	n/a	n/a	n/a	15	1	9	5	n/a	n/a	n/a	n/a	n/a
918.746	n/a	PROB	459373	n/a	LTP265	ltpFR	9	n/a	n/a	n/a	n/a	n/a	n/a	20	6	5	9	n/a	n/a	n/a	n/a	n/a
920.922	n/a	PROB	460461	n/a	LTP265	ltpFR	9	n/a	n/a	n/a	n/a	n/a	n/a	14	3	2	9	n/a	n/a	n/a	n/a	n/a
922.728	n/a	PROB	461364	n/a	LTP265	ltpFR	9	n/a	n/a	n/a	n/a	n/a	n/a	14	2	6	6	n/a	n/a	n/a	n/a	n/a
926.56	n/a	STOP	463280	n/a	LTP265	ltpFR	9	n/a	n/a	n/a	n/a	n/a	n/a	n/a	n/a	n/a	n/a	n/a	n/a	n/a	n/a	n/a
928.528	n/a	WORD	464264	wordpools/wasnorm_wordpool_less_exclusions.txt	LTP265	ltpFR	9	3	0	JEWEL	757	n/a	0	n/a	0	0	0	1	0.412841796875	0.57763671875	lower	../fonts/amplitud.ttf
931.54	n/a	START	465770	n/a	LTP265	ltpFR	9	n/a	n/a	n/a	n/a	n/a	n/a	n/a	n/a	n/a	n/a	n/a	n/a	n/a	n/a	n/a
932.51	n/a	PROB	466255	n/a	LTP265	ltpFR	9	n/a	n/a	n/a	n/a	n/a	n/a	17	8	5	4	n/a	n/a	n/a	n/a	n/a
935.242	n/a	PROB	467621	n/a	LTP265	ltpFR	9	n/a	n/a	n/a	n/a	n/a	n/a	15	7	5	3	n/a	n/a	n/a	n/a	n/a
937.394	n/a	PROB	468697	n/a	LTP265	ltpFR	9	n/a	n/a	n/a	n/a	n/a	n/a	18	9	4	5	n/a	n/a	n/a	n/a	n/a
939.854	n/a	PROB	469927	n/a	LTP265	ltpFR	9	n/a	n/a	n/a	n/a	n/a	n/a	10	1	6	3	n/a	n/a	n/a	n/a	n/a
941.618	n/a	PROB	470809	n/a	LTP265	ltpFR	9	n/a	n/a	n/a	n/a	n/a	n/a	13	9	1	3	n/a	n/a	n/a	n/a	n/a
943.132	n/a	PROB	471566	n/a	LTP265	ltpFR	9	n/a	n/a	n/a	n/a	n/a	n/a	14	4	3	7	n/a	n/a	n/a	n/a	n/a
944.864	n/a	PROB	472432	n/a	LTP265	ltpFR	9	n/a	n/a	n/a	n/a	n/a	n/a	10	6	2	2	n/a	n/a	n/a	n/a	n/a
946.658	n/a	STOP	473329	n/a	LTP265	ltpFR	9	n/a	n/a	n/a	n/a	n/a	n/a	n/a	n/a	n/a	n/a	n/a	n/a	n/a	n/a	n/a
948.662	n/a	WORD	474331	wordpools/wasnorm_wordpool_less_exclusions.txt	LTP265	ltpFR	9	3	0	PARROT	1015	n/a	0	n/a	0	0	0	1	0.412841796875	0.57763671875	lower	../fonts/amplitud.ttf
951.674	n/a	START	475837	n/a	LTP265	ltpFR	9	n/a	n/a	n/a	n/a	n/a	n/a	n/a	n/a	n/a	n/a	n/a	n/a	n/a	n/a	n/a
952.794	n/a	PROB	476397	n/a	LTP265	ltpFR	9	n/a	n/a	n/a	n/a	n/a	n/a	23	6	9	8	n/a	n/a	n/a	n/a	n/a
955.48	n/a	PROB	477740	n/a	LTP265	ltpFR	9	n/a	n/a	n/a	n/a	n/a	n/a	11	3	6	2	n/a	n/a	n/a	n/a	n/a
957.388	n/a	PROB	478694	n/a	LTP265	ltpFR	9	n/a	n/a	n/a	n/a	n/a	n/a	19	4	7	8	n/a	n/a	n/a	n/a	n/a
959.294	n/a	PROB	479647	n/a	LTP265	ltpFR	9	n/a	n/a	n/a	n/a	n/a	n/a	18	6	7	5	n/a	n/a	n/a	n/a	n/a
960.958	n/a	PROB	480479	n/a	LTP265	ltpFR	9	n/a	n/a	n/a	n/a	n/a	n/a	6	1	1	4	n/a	n/a	n/a	n/a	n/a
962.206	n/a	PROB	481103	n/a	LTP265	ltpFR	9	n/a	n/a	n/a	n/a	n/a	n/a	23	9	6	8	n/a	n/a	n/a	n/a	n/a
964.064	n/a	PROB	482032	n/a	LTP265	ltpFR	9	n/a	n/a	n/a	n/a	n/a	n/a	11	1	4	6	n/a	n/a	n/a	n/a	n/a
967.66	n/a	STOP	483830	n/a	LTP265	ltpFR	9	n/a	n/a	n/a	n/a	n/a	n/a	n/a	n/a	n/a	n/a	n/a	n/a	n/a	n/a	n/a
968.648	n/a	WORD	484324	wordpools/wasnorm_wordpool_less_exclusions.txt	LTP265	ltpFR	9	3	0	MULE	931	n/a	1	n/a	0	0	0	1	0.412841796875	0.57763671875	lower	../fonts/amplitud.ttf
971.66	n/a	START	485830	n/a	LTP265	ltpFR	9	n/a	n/a	n/a	n/a	n/a	n/a	n/a	n/a	n/a	n/a	n/a	n/a	n/a	n/a	n/a
972.814	n/a	PROB	486407	n/a	LTP265	ltpFR	9	n/a	n/a	n/a	n/a	n/a	n/a	5	3	1	1	n/a	n/a	n/a	n/a	n/a
974.452	n/a	PROB	487226	n/a	LTP265	ltpFR	9	n/a	n/a	n/a	n/a	n/a	n/a	18	2	8	8	n/a	n/a	n/a	n/a	n/a
976.092	n/a	PROB	488046	n/a	LTP265	ltpFR	9	n/a	n/a	n/a	n/a	n/a	n/a	12	8	1	3	n/a	n/a	n/a	n/a	n/a
977.916	n/a	PROB	488958	n/a	LTP265	ltpFR	9	n/a	n/a	n/a	n/a	n/a	n/a	10	2	1	7	n/a	n/a	n/a	n/a	n/a
979.588	n/a	PROB	489794	n/a	LTP265	ltpFR	9	n/a	n/a	n/a	n/a	n/a	n/a	13	9	3	1	n/a	n/a	n/a	n/a	n/a
981.386	n/a	PROB	490693	n/a	LTP265	ltpFR	9	n/a	n/a	n/a	n/a	n/a	n/a	14	4	3	7	n/a	n/a	n/a	n/a	n/a
983.092	n/a	PROB	491546	n/a	LTP265	ltpFR	9	n/a	n/a	n/a	n/a	n/a	n/a	19	7	9	3	n/a	n/a	n/a	n/a	n/a
985.15	n/a	PROB	492575	n/a	LTP265	ltpFR	9	n/a	n/a	n/a	n/a	n/a	n/a	5	2	1	2	n/a	n/a	n/a	n/a	n/a
987.204	n/a	STOP	493602	n/a	LTP265	ltpFR	9	n/a	n/a	n/a	n/a	n/a	n/a	n/a	n/a	n/a	n/a	n/a	n/a	n/a	n/a	n/a
988.614	n/a	WORD	494307	wordpools/wasnorm_wordpool_less_exclusions.txt	LTP265	ltpFR	9	3	0	POLYESTER	1100	n/a	1	n/a	0	0	0	1	0.412841796875	0.57763671875	lower	../fonts/amplitud.ttf
991.626	n/a	START	495813	n/a	LTP265	ltpFR	9	n/a	n/a	n/a	n/a	n/a	n/a	n/a	n/a	n/a	n/a	n/a	n/a	n/a	n/a	n/a
992.63	n/a	PROB	496315	n/a	LTP265	ltpFR	9	n/a	n/a	n/a	n/a	n/a	n/a	13	6	1	6	n/a	n/a	n/a	n/a	n/a
995.216	n/a	PROB	497608	n/a	LTP265	ltpFR	9	n/a	n/a	n/a	n/a	n/a	n/a	20	9	8	3	n/a	n/a	n/a	n/a	n/a
996.922	n/a	PROB	498461	n/a	LTP265	ltpFR	9	n/a	n/a	n/a	n/a	n/a	n/a	17	6	7	4	n/a	n/a	n/a	n/a	n/a
998.886	n/a	PROB	499443	n/a	LTP265	ltpFR	9	n/a	n/a	n/a	n/a	n/a	n/a	14	4	1	9	n/a	n/a	n/a	n/a	n/a
1001.256	n/a	PROB	500628	n/a	LTP265	ltpFR	9	n/a	n/a	n/a	n/a	n/a	n/a	8	2	2	4	n/a	n/a	n/a	n/a	n/a
1004.066	n/a	PROB	502033	n/a	LTP265	ltpFR	9	n/a	n/a	n/a	n/a	n/a	n/a	18	6	4	8	n/a	n/a	n/a	n/a	n/a
1005.572	n/a	PROB	502786	n/a	LTP265	ltpFR	9	n/a	n/a	n/a	n/a	n/a	n/a	12	4	6	2	n/a	n/a	n/a	n/a	n/a
1007.212	n/a	STOP	503606	n/a	LTP265	ltpFR	9	n/a	n/a	n/a	n/a	n/a	n/a	n/a	n/a	n/a	n/a	n/a	n/a	n/a	n/a	n/a
1008.824	n/a	WORD	504412	wordpools/wasnorm_wordpool_less_exclusions.txt	LTP265	ltpFR	9	3	0	BINDER	127	n/a	0	n/a	0	0	0	1	0.412841796875	0.57763671875	lower	../fonts/amplitud.ttf
1011.836	n/a	START	505918	n/a	LTP265	ltpFR	9	n/a	n/a	n/a	n/a	n/a	n/a	n/a	n/a	n/a	n/a	n/a	n/a	n/a	n/a	n/a
1012.856	n/a	PROB	506428	n/a	LTP265	ltpFR	9	n/a	n/a	n/a	n/a	n/a	n/a	11	4	6	1	n/a	n/a	n/a	n/a	n/a
1014.406	n/a	PROB	507203	n/a	LTP265	ltpFR	9	n/a	n/a	n/a	n/a	n/a	n/a	14	1	7	6	n/a	n/a	n/a	n/a	n/a
1016.128	n/a	PROB	508064	n/a	LTP265	ltpFR	9	n/a	n/a	n/a	n/a	n/a	n/a	15	1	9	5	n/a	n/a	n/a	n/a	n/a
1017.936	n/a	PROB	508968	n/a	LTP265	ltpFR	9	n/a	n/a	n/a	n/a	n/a	n/a	9	5	3	1	n/a	n/a	n/a	n/a	n/a
1019.61	n/a	PROB	509805	n/a	LTP265	ltpFR	9	n/a	n/a	n/a	n/a	n/a	n/a	11	2	4	5	n/a	n/a	n/a	n/a	n/a
1021.438	n/a	PROB	510719	n/a	LTP265	ltpFR	9	n/a	n/a	n/a	n/a	n/a	n/a	18	2	8	8	n/a	n/a	n/a	n/a	n/a
1023.122	n/a	PROB	511561	n/a	LTP265	ltpFR	9	n/a	n/a	n/a	n/a	n/a	n/a	20	7	5	8	n/a	n/a	n/a	n/a	n/a
1025.18	n/a	PROB	512590	n/a	LTP265	ltpFR	9	n/a	n/a	n/a	n/a	n/a	n/a	8	3	2	3	n/a	n/a	n/a	n/a	n/a
1026.822	n/a	STOP	513411	n/a	LTP265	ltpFR	9	n/a	n/a	n/a	n/a	n/a	n/a	n/a	n/a	n/a	n/a	n/a	n/a	n/a	n/a	n/a
1028.734	n/a	WORD	514367	wordpools/wasnorm_wordpool_less_exclusions.txt	LTP265	ltpFR	9	3	0	DIARY	460	n/a	0	n/a	0	0	0	1	0.412841796875	0.57763671875	lower	../fonts/amplitud.ttf
1031.746	n/a	START	515873	n/a	LTP265	ltpFR	9	n/a	n/a	n/a	n/a	n/a	n/a	n/a	n/a	n/a	n/a	n/a	n/a	n/a	n/a	n/a
1032.95	n/a	PROB	516475	n/a	LTP265	ltpFR	9	n/a	n/a	n/a	n/a	n/a	n/a	11	2	6	3	n/a	n/a	n/a	n/a	n/a
1035.024	n/a	PROB	517512	n/a	LTP265	ltpFR	9	n/a	n/a	n/a	n/a	n/a	n/a	22	9	8	5	n/a	n/a	n/a	n/a	n/a
1037.082	n/a	PROB	518541	n/a	LTP265	ltpFR	9	n/a	n/a	n/a	n/a	n/a	n/a	13	3	2	8	n/a	n/a	n/a	n/a	n/a
1038.866	n/a	PROB	519433	n/a	LTP265	ltpFR	9	n/a	n/a	n/a	n/a	n/a	n/a	11	8	1	2	n/a	n/a	n/a	n/a	n/a
1040.572	n/a	PROB	520286	n/a	LTP265	ltpFR	9	n/a	n/a	n/a	n/a	n/a	n/a	10	7	2	1	n/a	n/a	n/a	n/a	n/a
1043.032	n/a	PROB	521516	n/a	LTP265	ltpFR	9	n/a	n/a	n/a	n/a	n/a	n/a	9	2	6	1	n/a	n/a	n/a	n/a	n/a
1044.612	n/a	PROB	522306	n/a	LTP265	ltpFR	9	n/a	n/a	n/a	n/a	n/a	n/a	13	5	3	5	n/a	n/a	n/a	n/a	n/a
1046.206	n/a	STOP	523103	n/a	LTP265	ltpFR	9	n/a	n/a	n/a	n/a	n/a	n/a	n/a	n/a	n/a	n/a	n/a	n/a	n/a	n/a	n/a
1048.778	n/a	WORD	524389	wordpools/wasnorm_wordpool_less_exclusions.txt	LTP265	ltpFR	9	3	0	SHRINE	1298	n/a	1	n/a	0	0	0	1	0.412841796875	0.57763671875	lower	../fonts/amplitud.ttf
1051.79	n/a	START	525895	n/a	LTP265	ltpFR	9	n/a	n/a	n/a	n/a	n/a	n/a	n/a	n/a	n/a	n/a	n/a	n/a	n/a	n/a	n/a
1052.82	n/a	PROB	526410	n/a	LTP265	ltpFR	9	n/a	n/a	n/a	n/a	n/a	n/a	18	8	5	5	n/a	n/a	n/a	n/a	n/a
1054.666	n/a	PROB	527333	n/a	LTP265	ltpFR	9	n/a	n/a	n/a	n/a	n/a	n/a	11	1	1	9	n/a	n/a	n/a	n/a	n/a
1055.998	n/a	PROB	527999	n/a	LTP265	ltpFR	9	n/a	n/a	n/a	n/a	n/a	n/a	7	2	2	3	n/a	n/a	n/a	n/a	n/a
1059.2	n/a	PROB	529600	n/a	LTP265	ltpFR	9	n/a	n/a	n/a	n/a	n/a	n/a	17	5	9	3	n/a	n/a	n/a	n/a	n/a
1062.256	n/a	PROB	531128	n/a	LTP265	ltpFR	9	n/a	n/a	n/a	n/a	n/a	n/a	19	8	8	3	n/a	n/a	n/a	n/a	n/a
1063.952	n/a	PROB	531976	n/a	LTP265	ltpFR	9	n/a	n/a	n/a	n/a	n/a	n/a	22	9	7	6	n/a	n/a	n/a	n/a	n/a
1066.416	n/a	STOP	533208	n/a	LTP265	ltpFR	9	n/a	n/a	n/a	n/a	n/a	n/a	n/a	n/a	n/a	n/a	n/a	n/a	n/a	n/a	n/a
1068.972	n/a	WORD	534486	wordpools/wasnorm_wordpool_less_exclusions.txt	LTP265	ltpFR	9	3	0	MONK	910	n/a	1	n/a	0	0	0	1	0.412841796875	0.57763671875	lower	../fonts/amplitud.ttf
1071.984	n/a	START	535992	n/a	LTP265	ltpFR	9	n/a	n/a	n/a	n/a	n/a	n/a	n/a	n/a	n/a	n/a	n/a	n/a	n/a	n/a	n/a
1072.986	n/a	PROB	536493	n/a	LTP265	ltpFR	9	n/a	n/a	n/a	n/a	n/a	n/a	12	8	2	2	n/a	n/a	n/a	n/a	n/a
1074.334	n/a	PROB	537167	n/a	LTP265	ltpFR	9	n/a	n/a	n/a	n/a	n/a	n/a	20	5	6	9	n/a	n/a	n/a	n/a	n/a
1076.332	n/a	PROB	538166	n/a	LTP265	ltpFR	9	n/a	n/a	n/a	n/a	n/a	n/a	14	1	7	6	n/a	n/a	n/a	n/a	n/a
1078.14	n/a	PROB	539070	n/a	LTP265	ltpFR	9	n/a	n/a	n/a	n/a	n/a	n/a	15	9	5	1	n/a	n/a	n/a	n/a	n/a
1080.598	n/a	PROB	540299	n/a	LTP265	ltpFR	9	n/a	n/a	n/a	n/a	n/a	n/a	12	6	4	2	n/a	n/a	n/a	n/a	n/a
1082.03	n/a	PROB	541015	n/a	LTP265	ltpFR	9	n/a	n/a	n/a	n/a	n/a	n/a	11	3	2	6	n/a	n/a	n/a	n/a	n/a
1084.172	n/a	PROB	542086	n/a	LTP265	ltpFR	9	n/a	n/a	n/a	n/a	n/a	n/a	18	5	7	6	n/a	n/a	n/a	n/a	n/a
1087.984	n/a	STOP	543992	n/a	LTP265	ltpFR	9	n/a	n/a	n/a	n/a	n/a	n/a	n/a	n/a	n/a	n/a	n/a	n/a	n/a	n/a	n/a
1089.08	n/a	WORD	544540	wordpools/wasnorm_wordpool_less_exclusions.txt	LTP265	ltpFR	9	3	0	PERISCOPE	1050	n/a	1	n/a	0	0	0	1	0.412841796875	0.57763671875	lower	../fonts/amplitud.ttf
1092.092	n/a	START	546046	n/a	LTP265	ltpFR	9	n/a	n/a	n/a	n/a	n/a	n/a	n/a	n/a	n/a	n/a	n/a	n/a	n/a	n/a	n/a
1093.012	n/a	PROB	546506	n/a	LTP265	ltpFR	9	n/a	n/a	n/a	n/a	n/a	n/a	17	3	8	6	n/a	n/a	n/a	n/a	n/a
1095.314	n/a	PROB	547657	n/a	LTP265	ltpFR	9	n/a	n/a	n/a	n/a	n/a	n/a	16	7	3	6	n/a	n/a	n/a	n/a	n/a
1096.888	n/a	PROB	548444	n/a	LTP265	ltpFR	9	n/a	n/a	n/a	n/a	n/a	n/a	17	7	9	1	n/a	n/a	n/a	n/a	n/a
1098.93	n/a	PROB	549465	n/a	LTP265	ltpFR	9	n/a	n/a	n/a	n/a	n/a	n/a	12	3	2	7	n/a	n/a	n/a	n/a	n/a
1100.4	n/a	PROB	550200	n/a	LTP265	ltpFR	9	n/a	n/a	n/a	n/a	n/a	n/a	16	6	3	7	n/a	n/a	n/a	n/a	n/a
1102.074	n/a	PROB	551037	n/a	LTP265	ltpFR	9	n/a	n/a	n/a	n/a	n/a	n/a	14	9	4	1	n/a	n/a	n/a	n/a	n/a
1104.382	n/a	PROB	552191	n/a	LTP265	ltpFR	9	n/a	n/a	n/a	n/a	n/a	n/a	18	5	6	7	n/a	n/a	n/a	n/a	n/a
1106.546	n/a	STOP	553273	n/a	LTP265	ltpFR	9	n/a	n/a	n/a	n/a	n/a	n/a	n/a	n/a	n/a	n/a	n/a	n/a	n/a	n/a	n/a
1109.218	n/a	WORD	554609	wordpools/wasnorm_wordpool_less_exclusions.txt	LTP265	ltpFR	9	3	0	ARM	38	n/a	1	n/a	0	0	0	1	0.412841796875	0.57763671875	lower	../fonts/amplitud.ttf
1112.23	n/a	START	556115	n/a	LTP265	ltpFR	9	n/a	n/a	n/a	n/a	n/a	n/a	n/a	n/a	n/a	n/a	n/a	n/a	n/a	n/a	n/a
1113.35	n/a	PROB	556675	n/a	LTP265	ltpFR	9	n/a	n/a	n/a	n/a	n/a	n/a	13	1	6	6	n/a	n/a	n/a	n/a	n/a
1115.558	n/a	PROB	557779	n/a	LTP265	ltpFR	9	n/a	n/a	n/a	n/a	n/a	n/a	20	9	6	6	n/a	n/a	n/a	n/a	n/a
1118.152	n/a	PROB	559076	n/a	LTP265	ltpFR	9	n/a	n/a	n/a	n/a	n/a	n/a	20	8	3	9	n/a	n/a	n/a	n/a	n/a
1120.814	n/a	PROB	560407	n/a	LTP265	ltpFR	9	n/a	n/a	n/a	n/a	n/a	n/a	26	9	8	9	n/a	n/a	n/a	n/a	n/a
1125.286	n/a	PROB	562643	n/a	LTP265	ltpFR	9	n/a	n/a	n/a	n/a	n/a	n/a	14	4	9	1	n/a	n/a	n/a	n/a	n/a
1127.98	n/a	STOP	563990	n/a	LTP265	ltpFR	9	n/a	n/a	n/a	n/a	n/a	n/a	n/a	n/a	n/a	n/a	n/a	n/a	n/a	n/a	n/a
1129.15	n/a	WORD	564575	wordpools/wasnorm_wordpool_less_exclusions.txt	LTP265	ltpFR	9	3	0	AUTHOR	61	n/a	1	n/a	0	0	0	1	0.412841796875	0.57763671875	lower	../fonts/amplitud.ttf
1132.162	n/a	START	566081	n/a	LTP265	ltpFR	9	n/a	n/a	n/a	n/a	n/a	n/a	n/a	n/a	n/a	n/a	n/a	n/a	n/a	n/a	n/a
1133.366	n/a	PROB	566683	n/a	LTP265	ltpFR	9	n/a	n/a	n/a	n/a	n/a	n/a	12	6	1	5	n/a	n/a	n/a	n/a	n/a
1135.234	n/a	PROB	567617	n/a	LTP265	ltpFR	9	n/a	n/a	n/a	n/a	n/a	n/a	15	7	6	2	n/a	n/a	n/a	n/a	n/a
1137.014	n/a	PROB	568507	n/a	LTP265	ltpFR	9	n/a	n/a	n/a	n/a	n/a	n/a	11	2	8	1	n/a	n/a	n/a	n/a	n/a
1138.554	n/a	PROB	569277	n/a	LTP265	ltpFR	9	n/a	n/a	n/a	n/a	n/a	n/a	10	2	5	3	n/a	n/a	n/a	n/a	n/a
1140.538	n/a	PROB	570269	n/a	LTP265	ltpFR	9	n/a	n/a	n/a	n/a	n/a	n/a	8	5	1	2	n/a	n/a	n/a	n/a	n/a
1142.518	n/a	PROB	571259	n/a	LTP265	ltpFR	9	n/a	n/a	n/a	n/a	n/a	n/a	10	3	3	4	n/a	n/a	n/a	n/a	n/a
1144.318	n/a	PROB	572159	n/a	LTP265	ltpFR	9	n/a	n/a	n/a	n/a	n/a	n/a	21	4	9	8	n/a	n/a	n/a	n/a	n/a
1148.162	n/a	STOP	574081	n/a	LTP265	ltpFR	9	n/a	n/a	n/a	n/a	n/a	n/a	n/a	n/a	n/a	n/a	n/a	n/a	n/a	n/a	n/a
1149.026	n/a	WORD	574513	wordpools/wasnorm_wordpool_less_exclusions.txt	LTP265	ltpFR	9	3	0	PAGE	1001	n/a	0	n/a	0	0	0	1	0.412841796875	0.57763671875	lower	../fonts/amplitud.ttf
1152.038	n/a	START	576019	n/a	LTP265	ltpFR	9	n/a	n/a	n/a	n/a	n/a	n/a	n/a	n/a	n/a	n/a	n/a	n/a	n/a	n/a	n/a
1153.108	n/a	PROB	576554	n/a	LTP265	ltpFR	9	n/a	n/a	n/a	n/a	n/a	n/a	22	6	9	7	n/a	n/a	n/a	n/a	n/a
1155.584	n/a	PROB	577792	n/a	LTP265	ltpFR	9	n/a	n/a	n/a	n/a	n/a	n/a	22	8	7	7	n/a	n/a	n/a	n/a	n/a
1158.774	n/a	PROB	579387	n/a	LTP265	ltpFR	9	n/a	n/a	n/a	n/a	n/a	n/a	14	3	5	6	n/a	n/a	n/a	n/a	n/a
1160.688	n/a	PROB	580344	n/a	LTP265	ltpFR	9	n/a	n/a	n/a	n/a	n/a	n/a	15	4	8	3	n/a	n/a	n/a	n/a	n/a
1162.572	n/a	PROB	581286	n/a	LTP265	ltpFR	9	n/a	n/a	n/a	n/a	n/a	n/a	17	7	5	5	n/a	n/a	n/a	n/a	n/a
1164.864	n/a	PROB	582432	n/a	LTP265	ltpFR	9	n/a	n/a	n/a	n/a	n/a	n/a	17	3	7	7	n/a	n/a	n/a	n/a	n/a
1166.524	n/a	STOP	583262	n/a	LTP265	ltpFR	9	n/a	n/a	n/a	n/a	n/a	n/a	n/a	n/a	n/a	n/a	n/a	n/a	n/a	n/a	n/a
1169.162	n/a	WORD	584581	wordpools/wasnorm_wordpool_less_exclusions.txt	LTP265	ltpFR	9	3	0	NITROGEN	954	n/a	0	n/a	0	0	0	1	0.412841796875	0.57763671875	lower	../fonts/amplitud.ttf
1172.176	n/a	START	586088	n/a	LTP265	ltpFR	9	n/a	n/a	n/a	n/a	n/a	n/a	n/a	n/a	n/a	n/a	n/a	n/a	n/a	n/a	n/a
1173.246	n/a	PROB	586623	n/a	LTP265	ltpFR	9	n/a	n/a	n/a	n/a	n/a	n/a	14	6	3	5	n/a	n/a	n/a	n/a	n/a
1175.32	n/a	PROB	587660	n/a	LTP265	ltpFR	9	n/a	n/a	n/a	n/a	n/a	n/a	11	7	2	2	n/a	n/a	n/a	n/a	n/a
1178.868	n/a	PROB	589434	n/a	LTP265	ltpFR	9	n/a	n/a	n/a	n/a	n/a	n/a	18	6	5	7	n/a	n/a	n/a	n/a	n/a
1180.766	n/a	PROB	590383	n/a	LTP265	ltpFR	9	n/a	n/a	n/a	n/a	n/a	n/a	14	8	1	4	n/a	n/a	n/a	n/a	n/a
1183.022	n/a	PROB	591511	n/a	LTP265	ltpFR	9	n/a	n/a	n/a	n/a	n/a	n/a	21	9	5	7	n/a	n/a	n/a	n/a	n/a
1186.468	n/a	PROB	593234	n/a	LTP265	ltpFR	9	n/a	n/a	n/a	n/a	n/a	n/a	18	3	7	8	n/a	n/a	n/a	n/a	n/a
1187.896	n/a	STOP	593948	n/a	LTP265	ltpFR	9	n/a	n/a	n/a	n/a	n/a	n/a	n/a	n/a	n/a	n/a	n/a	n/a	n/a	n/a	n/a
1189.984	n/a	REC_START	594992	n/a	LTP265	ltpFR	9	3	n/a	n/a	n/a	n/a	n/a	n/a	0	0	0	n/a	n/a	n/a	n/a	n/a
1191.948	n/a	REC_WORD	595974	wordpools/wasnorm_wordpool_less_exclusions.txt	LTP265	ltpFR	9	3	0	NITROGEN	954	n/a	0	n/a	0	0	0	n/a	n/a	n/a	n/a	n/a
1193.412	n/a	REC_WORD	596706	wordpools/wasnorm_wordpool_less_exclusions.txt	LTP265	ltpFR	9	3	0	JEWEL	757	n/a	0	n/a	0	0	0	n/a	n/a	n/a	n/a	n/a
1194.274	n/a	REC_WORD	597137	wordpools/wasnorm_wordpool_less_exclusions.txt	LTP265	ltpFR	9	3	0	CROWN	415	n/a	0	n/a	0	0	0	n/a	n/a	n/a	n/a	n/a
1195.328	n/a	REC_WORD	597664	wordpools/wasnorm_wordpool_less_exclusions.txt	LTP265	ltpFR	9	3	0	SHRINE	1298	n/a	1	n/a	0	0	0	n/a	n/a	n/a	n/a	n/a
1205.596	n/a	REC_WORD	602798	wordpools/wasnorm_wordpool_less_exclusions.txt	LTP265	ltpFR	9	3	0	AUTHOR	61	n/a	1	n/a	0	0	0	n/a	n/a	n/a	n/a	n/a
1207.47	n/a	REC_WORD	603735	wordpools/wasnorm_wordpool_less_exclusions.txt	LTP265	ltpFR	9	3	0	DIARY	460	n/a	0	n/a	0	0	0	n/a	n/a	n/a	n/a	n/a
1208.57	n/a	REC_WORD	604285	wordpools/wasnorm_wordpool_less_exclusions.txt	LTP265	ltpFR	9	3	0	PAGE	1001	n/a	0	n/a	0	0	0	n/a	n/a	n/a	n/a	n/a
1217.594	n/a	REC_WORD	608797	wordpools/wasnorm_wordpool_less_exclusions.txt	LTP265	ltpFR	9	3	0	POLYESTER	1100	n/a	1	n/a	0	0	0	n/a	n/a	n/a	n/a	n/a
1259.36	n/a	REC_WORD	629680	wordpools/wasnorm_wordpool_less_exclusions.txt	LTP265	ltpFR	9	3	0	PERISCOPE	1050	n/a	1	n/a	0	0	0	n/a	n/a	n/a	n/a	n/a
1274.266	n/a	WORD	637133	wordpools/wasnorm_wordpool_less_exclusions.txt	LTP265	ltpFR	9	4	0	PLAID	1080	n/a	0	n/a	0	0	0	1	0.412841796875	0.57763671875	lower	../fonts/amplitud.ttf
1278.18	n/a	WORD	639090	wordpools/wasnorm_wordpool_less_exclusions.txt	LTP265	ltpFR	9	4	0	WILDERNESS	1610	n/a	1	n/a	0	0	0	1	0.412841796875	0.57763671875	lower	../fonts/amplitud.ttf
1282.27	n/a	WORD	641135	wordpools/wasnorm_wordpool_less_exclusions.txt	LTP265	ltpFR	9	4	0	ANIMAL	23	n/a	1	n/a	0	0	0	1	0.412841796875	0.57763671875	lower	../fonts/amplitud.ttf
1286.396	n/a	WORD	643198	wordpools/wasnorm_wordpool_less_exclusions.txt	LTP265	ltpFR	9	4	0	ZIPPER	1636	n/a	0	n/a	0	0	0	1	0.412841796875	0.57763671875	lower	../fonts/amplitud.ttf
1290.4	n/a	WORD	645200	wordpools/wasnorm_wordpool_less_exclusions.txt	LTP265	ltpFR	9	4	0	BANKER	84	n/a	1	n/a	0	0	0	1	0.412841796875	0.57763671875	lower	../fonts/amplitud.ttf
1294.542	n/a	WORD	647271	wordpools/wasnorm_wordpool_less_exclusions.txt	LTP265	ltpFR	9	4	0	PENNY	1045	n/a	0	n/a	0	0	0	1	0.412841796875	0.57763671875	lower	../fonts/amplitud.ttf
1298.38	n/a	WORD	649190	wordpools/wasnorm_wordpool_less_exclusions.txt	LTP265	ltpFR	9	4	1	LIVER	833	n/a	1	n/a	0	0	0	0	0.5869140625	0.422607421875	upper	../fonts/zerothre.ttf
1302.362	n/a	WORD	651181	wordpools/wasnorm_wordpool_less_exclusions.txt	LTP265	ltpFR	9	4	1	HEART	697	n/a	1	n/a	0	0	0	0	0.5869140625	0.422607421875	upper	../fonts/zerothre.ttf
1306.31	n/a	WORD	653155	wordpools/wasnorm_wordpool_less_exclusions.txt	LTP265	ltpFR	9	4	0	BACK	65	n/a	1	n/a	0	0	0	1	0.412841796875	0.57763671875	lower	../fonts/amplitud.ttf
1310.376	n/a	WORD	655188	wordpools/wasnorm_wordpool_less_exclusions.txt	LTP265	ltpFR	9	4	0	SEAGULL	1261	n/a	1	n/a	0	0	0	1	0.412841796875	0.57763671875	lower	../fonts/amplitud.ttf
1314.258	n/a	WORD	657129	wordpools/wasnorm_wordpool_less_exclusions.txt	LTP265	ltpFR	9	4	1	CAR	241	n/a	0	n/a	0	0	0	0	0.5869140625	0.422607421875	upper	../fonts/zerothre.ttf
1318.272	n/a	WORD	659136	wordpools/wasnorm_wordpool_less_exclusions.txt	LTP265	ltpFR	9	4	1	BOULEVARD	156	n/a	n/a	n/a	0	0	0	0	0.5869140625	0.422607421875	upper	../fonts/zerothre.ttf
1321.318	n/a	SLOW_MSG	660659	n/a	LTP265	ltpFR	9	4	n/a	n/a	n/a	n/a	n/a	n/a	0	0	0	n/a	n/a	n/a	n/a	n/a
1323.79	n/a	WORD	661895	wordpools/wasnorm_wordpool_less_exclusions.txt	LTP265	ltpFR	9	4	1	SLACKS	1323	n/a	0	n/a	0	0	0	0	0.5869140625	0.422607421875	upper	../fonts/zerothre.ttf
1327.928	n/a	WORD	663964	wordpools/wasnorm_wordpool_less_exclusions.txt	LTP265	ltpFR	9	4	1	MACARONI	851	n/a	0	n/a	0	0	0	0	0.5869140625	0.422607421875	upper	../fonts/zerothre.ttf
1332.052	n/a	WORD	666026	wordpools/wasnorm_wordpool_less_exclusions.txt	LTP265	ltpFR	9	4	1	OX	994	n/a	1	n/a	0	0	0	0	0.5869140625	0.422607421875	upper	../fonts/zerothre.ttf
1335.902	n/a	WORD	667951	wordpools/wasnorm_wordpool_less_exclusions.txt	LTP265	ltpFR	9	4	1	TERRITORY	1452	n/a	1	n/a	0	0	0	0	0.5869140625	0.422607421875	upper	../fonts/zerothre.ttf
1341.524	n/a	REC_START	670762	n/a	LTP265	ltpFR	9	4	n/a	n/a	n/a	n/a	n/a	n/a	0	0	0	n/a	n/a	n/a	n/a	n/a
1342.996	n/a	REC_WORD	671498	wordpools/wasnorm_wordpool_less_exclusions.txt	LTP265	ltpFR	9	4	1	TERRITORY	1452	n/a	1	n/a	0	0	0	n/a	n/a	n/a	n/a	n/a
1343.938	n/a	REC_WORD	671969	wordpools/wasnorm_wordpool_less_exclusions.txt	LTP265	ltpFR	9	4	1	OX	994	n/a	1	n/a	0	0	0	n/a	n/a	n/a	n/a	n/a
1344.62	n/a	REC_WORD	672310	wordpools/wasnorm_wordpool_less_exclusions.txt	LTP265	ltpFR	9	4	1	HEART	697	n/a	1	n/a	0	0	0	n/a	n/a	n/a	n/a	n/a
1345.458	n/a	REC_WORD	672729	wordpools/wasnorm_wordpool_less_exclusions.txt	LTP265	ltpFR	9	4	1	LIVER	833	n/a	1	n/a	0	0	0	n/a	n/a	n/a	n/a	n/a
1350.634	n/a	REC_WORD	675317	wordpools/wasnorm_wordpool_less_exclusions.txt	LTP265	ltpFR	9	4	0	SEAGULL	1261	n/a	1	n/a	0	0	0	n/a	n/a	n/a	n/a	n/a
1370.082	n/a	REC_WORD	685041	wordpools/wasnorm_wordpool_less_exclusions.txt	LTP265	ltpFR	9	4	0	BACK	65	n/a	1	n/a	0	0	0	n/a	n/a	n/a	n/a	n/a
1374.82	n/a	REC_WORD	687410	wordpools/wasnorm_wordpool_less_exclusions.txt	LTP265	ltpFR	9	4	0	PLAID	1080	n/a	0	n/a	0	0	0	n/a	n/a	n/a	n/a	n/a
1377.746	n/a	REC_WORD	688873	wordpools/wasnorm_wordpool_less_exclusions.txt	LTP265	ltpFR	9	4	1	CAR	241	n/a	0	n/a	0	0	0	n/a	n/a	n/a	n/a	n/a
1426.178	n/a	WORD	713089	wordpools/wasnorm_wordpool_less_exclusions.txt	LTP265	ltpFR	9	5	0	PUPPY	1144	n/a	0	n/a	0	0	0	1	0.412841796875	0.57763671875	lower	../fonts/amplitud.ttf
1430.352	n/a	WORD	715176	wordpools/wasnorm_wordpool_less_exclusions.txt	LTP265	ltpFR	9	5	0	ROOSTER	1209	n/a	1	n/a	0	0	0	1	0.412841796875	0.57763671875	lower	../fonts/amplitud.ttf
1434.544	n/a	WORD	717272	wordpools/wasnorm_wordpool_less_exclusions.txt	LTP265	ltpFR	9	5	0	LAKE	796	n/a	1	n/a	0	0	0	1	0.412841796875	0.57763671875	lower	../fonts/amplitud.ttf
1438.55	n/a	WORD	719275	wordpools/wasnorm_wordpool_less_exclusions.txt	LTP265	ltpFR	9	5	0	REPORT	1184	n/a	1	n/a	0	0	0	1	0.412841796875	0.57763671875	lower	../fonts/amplitud.ttf
1442.726	n/a	WORD	721363	wordpools/wasnorm_wordpool_less_exclusions.txt	LTP265	ltpFR	9	5	0	TRAY	1498	n/a	1	n/a	0	0	0	1	0.412841796875	0.57763671875	lower	../fonts/amplitud.ttf
1446.674	n/a	WORD	723337	wordpools/wasnorm_wordpool_less_exclusions.txt	LTP265	ltpFR	9	5	0	SACK	1220	n/a	0	n/a	0	0	0	1	0.412841796875	0.57763671875	lower	../fonts/amplitud.ttf
1450.68	n/a	WORD	725340	wordpools/wasnorm_wordpool_less_exclusions.txt	LTP265	ltpFR	9	5	1	SHELL	1281	n/a	0	n/a	0	0	0	0	0.5869140625	0.422607421875	upper	../fonts/zerothre.ttf
1454.722	n/a	WORD	727361	wordpools/wasnorm_wordpool_less_exclusions.txt	LTP265	ltpFR	9	5	1	TRIGGER	1507	n/a	0	n/a	0	0	0	0	0.5869140625	0.422607421875	upper	../fonts/zerothre.ttf
1458.71	n/a	WORD	729355	wordpools/wasnorm_wordpool_less_exclusions.txt	LTP265	ltpFR	9	5	1	BAY	102	n/a	1	n/a	0	0	0	0	0.5869140625	0.422607421875	upper	../fonts/zerothre.ttf
1462.786	n/a	WORD	731393	wordpools/wasnorm_wordpool_less_exclusions.txt	LTP265	ltpFR	9	5	1	ATHLETE	52	n/a	1	n/a	0	0	0	0	0.5869140625	0.422607421875	upper	../fonts/zerothre.ttf
1466.624	n/a	WORD	733312	wordpools/wasnorm_wordpool_less_exclusions.txt	LTP265	ltpFR	9	5	0	ARENA	37	n/a	1	n/a	0	0	0	1	0.412841796875	0.57763671875	lower	../fonts/amplitud.ttf
1470.582	n/a	WORD	735291	wordpools/wasnorm_wordpool_less_exclusions.txt	LTP265	ltpFR	9	5	0	YOLK	1633	n/a	0	n/a	0	0	0	1	0.412841796875	0.57763671875	lower	../fonts/amplitud.ttf
1474.564	n/a	WORD	737282	wordpools/wasnorm_wordpool_less_exclusions.txt	LTP265	ltpFR	9	5	1	SHEPHERD	1283	n/a	1	n/a	0	0	0	0	0.5869140625	0.422607421875	upper	../fonts/zerothre.ttf
1478.636	n/a	WORD	739318	wordpools/wasnorm_wordpool_less_exclusions.txt	LTP265	ltpFR	9	5	1	THESAURUS	1454	n/a	0	n/a	0	0	0	0	0.5869140625	0.422607421875	upper	../fonts/zerothre.ttf
1482.686	n/a	WORD	741343	wordpools/wasnorm_wordpool_less_exclusions.txt	LTP265	ltpFR	9	5	1	CRICKET	408	n/a	1	n/a	0	0	0	0	0.5869140625	0.422607421875	upper	../fonts/zerothre.ttf
1486.762	n/a	WORD	743381	wordpools/wasnorm_wordpool_less_exclusions.txt	LTP265	ltpFR	9	5	1	COCOON	339	n/a	0	n/a	0	0	0	0	0.5869140625	0.422607421875	upper	../fonts/zerothre.ttf
1489.774	n/a	START	744887	n/a	LTP265	ltpFR	9	n/a	n/a	n/a	n/a	n/a	n/a	n/a	n/a	n/a	n/a	n/a	n/a	n/a	n/a	n/a
1490.734	n/a	PROB	745367	n/a	LTP265	ltpFR	9	n/a	n/a	n/a	n/a	n/a	n/a	9	2	5	2	n/a	n/a	n/a	n/a	n/a
1492.45	n/a	PROB	746225	n/a	LTP265	ltpFR	9	n/a	n/a	n/a	n/a	n/a	n/a	13	2	4	7	n/a	n/a	n/a	n/a	n/a
1494.362	n/a	PROB	747181	n/a	LTP265	ltpFR	9	n/a	n/a	n/a	n/a	n/a	n/a	14	2	3	9	n/a	n/a	n/a	n/a	n/a
1497.0	n/a	PROB	748500	n/a	LTP265	ltpFR	9	n/a	n/a	n/a	n/a	n/a	n/a	15	2	7	6	n/a	n/a	n/a	n/a	n/a
1498.858	n/a	PROB	749429	n/a	LTP265	ltpFR	9	n/a	n/a	n/a	n/a	n/a	n/a	8	1	1	6	n/a	n/a	n/a	n/a	n/a
1500.144	n/a	PROB	750072	n/a	LTP265	ltpFR	9	n/a	n/a	n/a	n/a	n/a	n/a	14	5	8	1	n/a	n/a	n/a	n/a	n/a
1501.842	n/a	PROB	750921	n/a	LTP265	ltpFR	9	n/a	n/a	n/a	n/a	n/a	n/a	8	2	2	4	n/a	n/a	n/a	n/a	n/a
1503.498	n/a	PROB	751749	n/a	LTP265	ltpFR	9	n/a	n/a	n/a	n/a	n/a	n/a	10	2	3	5	n/a	n/a	n/a	n/a	n/a
1505.078	n/a	STOP	752539	n/a	LTP265	ltpFR	9	n/a	n/a	n/a	n/a	n/a	n/a	n/a	n/a	n/a	n/a	n/a	n/a	n/a	n/a	n/a
1507.556	n/a	REC_START	753778	n/a	LTP265	ltpFR	9	5	n/a	n/a	n/a	n/a	n/a	n/a	0	0	0	n/a	n/a	n/a	n/a	n/a
1508.768	n/a	REC_WORD	754384	wordpools/wasnorm_wordpool_less_exclusions.txt	LTP265	ltpFR	9	5	1	THESAURUS	1454	n/a	0	n/a	0	0	0	n/a	n/a	n/a	n/a	n/a
1509.534	n/a	REC_WORD	754767	wordpools/wasnorm_wordpool_less_exclusions.txt	LTP265	ltpFR	9	5	1	COCOON	339	n/a	0	n/a	0	0	0	n/a	n/a	n/a	n/a	n/a
1510.46	n/a	REC_WORD	755230	wordpools/wasnorm_wordpool_less_exclusions.txt	LTP265	ltpFR	9	5	1	CRICKET	408	n/a	1	n/a	0	0	0	n/a	n/a	n/a	n/a	n/a
1515.066	n/a	REC_WORD	757533	wordpools/wasnorm_wordpool_less_exclusions.txt	LTP265	ltpFR	9	5	1	ATHLETE	52	n/a	1	n/a	0	0	0	n/a	n/a	n/a	n/a	n/a
1526.538	n/a	REC_WORD	763269	wordpools/wasnorm_wordpool_less_exclusions.txt	LTP265	ltpFR	9	5	0	WILDERNESS	1610	n/a	1	n/a	0	0	0	n/a	n/a	n/a	n/a	n/a
1555.792	n/a	REC_WORD	777896	wordpools/wasnorm_wordpool_less_exclusions.txt	LTP265	ltpFR	9	5	0	REPORT	1184	n/a	1	n/a	0	0	0	n/a	n/a	n/a	n/a	n/a
1558.646	n/a	REC_WORD	779323	wordpools/wasnorm_wordpool_less_exclusions.txt	LTP265	ltpFR	9	5	0	PUPPY	1144	n/a	0	n/a	0	0	0	n/a	n/a	n/a	n/a	n/a
1576.116	n/a	REC_WORD	788058	wordpools/wasnorm_wordpool_less_exclusions.txt	LTP265	ltpFR	9	5	1	BAY	102	n/a	1	n/a	0	0	0	n/a	n/a	n/a	n/a	n/a
1586.264	n/a	START	793132	n/a	LTP265	ltpFR	9	n/a	n/a	n/a	n/a	n/a	n/a	n/a	n/a	n/a	n/a	n/a	n/a	n/a	n/a	n/a
1587.782	n/a	PROB	793891	n/a	LTP265	ltpFR	9	n/a	n/a	n/a	n/a	n/a	n/a	11	2	1	8	n/a	n/a	n/a	n/a	n/a
1589.31	n/a	PROB	794655	n/a	LTP265	ltpFR	9	n/a	n/a	n/a	n/a	n/a	n/a	17	7	3	7	n/a	n/a	n/a	n/a	n/a
1591.026	n/a	PROB	795513	n/a	LTP265	ltpFR	9	n/a	n/a	n/a	n/a	n/a	n/a	12	1	4	7	n/a	n/a	n/a	n/a	n/a
1592.47	n/a	PROB	796235	n/a	LTP265	ltpFR	9	n/a	n/a	n/a	n/a	n/a	n/a	10	5	3	2	n/a	n/a	n/a	n/a	n/a
1593.748	n/a	STOP	796874	n/a	LTP265	ltpFR	9	n/a	n/a	n/a	n/a	n/a	n/a	n/a	n/a	n/a	n/a	n/a	n/a	n/a	n/a	n/a
1595.132	n/a	WORD	797566	wordpools/wasnorm_wordpool_less_exclusions.txt	LTP265	ltpFR	9	6	0	BEE	112	n/a	0	n/a	0	0	0	1	0.412841796875	0.57763671875	lower	../fonts/amplitud.ttf
1598.144	n/a	START	799072	n/a	LTP265	ltpFR	9	n/a	n/a	n/a	n/a	n/a	n/a	n/a	n/a	n/a	n/a	n/a	n/a	n/a	n/a	n/a
1598.974	n/a	PROB	799487	n/a	LTP265	ltpFR	9	n/a	n/a	n/a	n/a	n/a	n/a	19	7	8	4	n/a	n/a	n/a	n/a	n/a
1600.646	n/a	PROB	800323	n/a	LTP265	ltpFR	9	n/a	n/a	n/a	n/a	n/a	n/a	13	2	2	9	n/a	n/a	n/a	n/a	n/a
1602.486	n/a	PROB	801243	n/a	LTP265	ltpFR	9	n/a	n/a	n/a	n/a	n/a	n/a	13	6	6	1	n/a	n/a	n/a	n/a	n/a
1604.1	n/a	PROB	802050	n/a	LTP265	ltpFR	9	n/a	n/a	n/a	n/a	n/a	n/a	16	6	4	6	n/a	n/a	n/a	n/a	n/a
1605.276	n/a	STOP	802638	n/a	LTP265	ltpFR	9	n/a	n/a	n/a	n/a	n/a	n/a	n/a	n/a	n/a	n/a	n/a	n/a	n/a	n/a	n/a
1607.21	n/a	WORD	803605	wordpools/wasnorm_wordpool_less_exclusions.txt	LTP265	ltpFR	9	6	0	STOVE	1388	n/a	1	n/a	0	0	0	1	0.412841796875	0.57763671875	lower	../fonts/amplitud.ttf
1610.222	n/a	START	805111	n/a	LTP265	ltpFR	9	n/a	n/a	n/a	n/a	n/a	n/a	n/a	n/a	n/a	n/a	n/a	n/a	n/a	n/a	n/a
1611.31	n/a	PROB	805655	n/a	LTP265	ltpFR	9	n/a	n/a	n/a	n/a	n/a	n/a	18	9	2	7	n/a	n/a	n/a	n/a	n/a
1612.876	n/a	PROB	806438	n/a	LTP265	ltpFR	9	n/a	n/a	n/a	n/a	n/a	n/a	19	6	7	6	n/a	n/a	n/a	n/a	n/a
1614.616	n/a	PROB	807308	n/a	LTP265	ltpFR	9	n/a	n/a	n/a	n/a	n/a	n/a	11	3	3	5	n/a	n/a	n/a	n/a	n/a
1618.222	n/a	STOP	809111	n/a	LTP265	ltpFR	9	n/a	n/a	n/a	n/a	n/a	n/a	n/a	n/a	n/a	n/a	n/a	n/a	n/a	n/a	n/a
1619.34	n/a	WORD	809670	wordpools/wasnorm_wordpool_less_exclusions.txt	LTP265	ltpFR	9	6	0	MUFFIN	929	n/a	0	n/a	0	0	0	1	0.412841796875	0.57763671875	lower	../fonts/amplitud.ttf
1622.352	n/a	START	811176	n/a	LTP265	ltpFR	9	n/a	n/a	n/a	n/a	n/a	n/a	n/a	n/a	n/a	n/a	n/a	n/a	n/a	n/a	n/a
1623.422	n/a	PROB	811711	n/a	LTP265	ltpFR	9	n/a	n/a	n/a	n/a	n/a	n/a	22	5	9	8	n/a	n/a	n/a	n/a	n/a
1625.926	n/a	PROB	812963	n/a	LTP265	ltpFR	9	n/a	n/a	n/a	n/a	n/a	n/a	18	5	7	6	n/a	n/a	n/a	n/a	n/a
1627.974	n/a	PROB	813987	n/a	LTP265	ltpFR	9	n/a	n/a	n/a	n/a	n/a	n/a	17	9	1	7	n/a	n/a	n/a	n/a	n/a
1629.414	n/a	STOP	814707	n/a	LTP265	ltpFR	9	n/a	n/a	n/a	n/a	n/a	n/a	n/a	n/a	n/a	n/a	n/a	n/a	n/a	n/a	n/a
1631.186	n/a	WORD	815593	wordpools/wasnorm_wordpool_less_exclusions.txt	LTP265	ltpFR	9	6	0	OLIVE	975	n/a	0	n/a	0	0	0	1	0.412841796875	0.57763671875	lower	../fonts/amplitud.ttf
1634.198	n/a	START	817099	n/a	LTP265	ltpFR	9	n/a	n/a	n/a	n/a	n/a	n/a	n/a	n/a	n/a	n/a	n/a	n/a	n/a	n/a	n/a
1635.118	n/a	PROB	817559	n/a	LTP265	ltpFR	9	n/a	n/a	n/a	n/a	n/a	n/a	13	6	2	5	n/a	n/a	n/a	n/a	n/a
1638.088	n/a	PROB	819044	n/a	LTP265	ltpFR	9	n/a	n/a	n/a	n/a	n/a	n/a	11	3	3	5	n/a	n/a	n/a	n/a	n/a
1642.198	n/a	STOP	821099	n/a	LTP265	ltpFR	9	n/a	n/a	n/a	n/a	n/a	n/a	n/a	n/a	n/a	n/a	n/a	n/a	n/a	n/a	n/a
1643.082	n/a	WORD	821541	wordpools/wasnorm_wordpool_less_exclusions.txt	LTP265	ltpFR	9	6	0	LIBRARY	816	n/a	1	n/a	0	0	0	1	0.412841796875	0.57763671875	lower	../fonts/amplitud.ttf
1646.094	n/a	START	823047	n/a	LTP265	ltpFR	9	n/a	n/a	n/a	n/a	n/a	n/a	n/a	n/a	n/a	n/a	n/a	n/a	n/a	n/a	n/a
1647.29	n/a	PROB	823645	n/a	LTP265	ltpFR	9	n/a	n/a	n/a	n/a	n/a	n/a	13	8	3	2	n/a	n/a	n/a	n/a	n/a
1649.79	n/a	PROB	824895	n/a	LTP265	ltpFR	9	n/a	n/a	n/a	n/a	n/a	n/a	16	9	4	3	n/a	n/a	n/a	n/a	n/a
1654.092	n/a	STOP	827046	n/a	LTP265	ltpFR	9	n/a	n/a	n/a	n/a	n/a	n/a	n/a	n/a	n/a	n/a	n/a	n/a	n/a	n/a	n/a
1654.97	n/a	WORD	827485	wordpools/wasnorm_wordpool_less_exclusions.txt	LTP265	ltpFR	9	6	0	ACTRESS	6	n/a	1	n/a	0	0	0	1	0.412841796875	0.57763671875	lower	../fonts/amplitud.ttf
1657.982	n/a	START	828991	n/a	LTP265	ltpFR	9	n/a	n/a	n/a	n/a	n/a	n/a	n/a	n/a	n/a	n/a	n/a	n/a	n/a	n/a	n/a
1658.842	n/a	PROB	829421	n/a	LTP265	ltpFR	9	n/a	n/a	n/a	n/a	n/a	n/a	9	6	2	1	n/a	n/a	n/a	n/a	n/a
1660.542	n/a	PROB	830271	n/a	LTP265	ltpFR	9	n/a	n/a	n/a	n/a	n/a	n/a	19	9	2	8	n/a	n/a	n/a	n/a	n/a
1662.264	n/a	PROB	831132	n/a	LTP265	ltpFR	9	n/a	n/a	n/a	n/a	n/a	n/a	21	8	4	9	n/a	n/a	n/a	n/a	n/a
1664.006	n/a	PROB	832003	n/a	LTP265	ltpFR	9	n/a	n/a	n/a	n/a	n/a	n/a	17	6	4	7	n/a	n/a	n/a	n/a	n/a
1665.432	n/a	STOP	832716	n/a	LTP265	ltpFR	9	n/a	n/a	n/a	n/a	n/a	n/a	n/a	n/a	n/a	n/a	n/a	n/a	n/a	n/a	n/a
1666.916	n/a	WORD	833458	wordpools/wasnorm_wordpool_less_exclusions.txt	LTP265	ltpFR	9	6	0	NAPKIN	937	n/a	0	n/a	0	0	0	1	0.412841796875	0.57763671875	lower	../fonts/amplitud.ttf
1669.928	n/a	START	834964	n/a	LTP265	ltpFR	9	n/a	n/a	n/a	n/a	n/a	n/a	n/a	n/a	n/a	n/a	n/a	n/a	n/a	n/a	n/a
1671.114	n/a	PROB	835557	n/a	LTP265	ltpFR	9	n/a	n/a	n/a	n/a	n/a	n/a	13	9	2	2	n/a	n/a	n/a	n/a	n/a
1672.644	n/a	PROB	836322	n/a	LTP265	ltpFR	9	n/a	n/a	n/a	n/a	n/a	n/a	9	1	3	5	n/a	n/a	n/a	n/a	n/a
1674.814	n/a	PROB	837407	n/a	LTP265	ltpFR	9	n/a	n/a	n/a	n/a	n/a	n/a	13	1	7	5	n/a	n/a	n/a	n/a	n/a
1676.976	n/a	STOP	838488	n/a	LTP265	ltpFR	9	n/a	n/a	n/a	n/a	n/a	n/a	n/a	n/a	n/a	n/a	n/a	n/a	n/a	n/a	n/a
1678.88	n/a	WORD	839440	wordpools/wasnorm_wordpool_less_exclusions.txt	LTP265	ltpFR	9	6	0	LIGHTNING	820	n/a	1	n/a	0	0	0	1	0.412841796875	0.57763671875	lower	../fonts/amplitud.ttf
1681.892	n/a	START	840946	n/a	LTP265	ltpFR	9	n/a	n/a	n/a	n/a	n/a	n/a	n/a	n/a	n/a	n/a	n/a	n/a	n/a	n/a	n/a
1682.744	n/a	PROB	841372	n/a	LTP265	ltpFR	9	n/a	n/a	n/a	n/a	n/a	n/a	17	6	8	3	n/a	n/a	n/a	n/a	n/a
1684.59	n/a	PROB	842295	n/a	LTP265	ltpFR	9	n/a	n/a	n/a	n/a	n/a	n/a	26	9	8	9	n/a	n/a	n/a	n/a	n/a
1686.692	n/a	PROB	843346	n/a	LTP265	ltpFR	9	n/a	n/a	n/a	n/a	n/a	n/a	20	8	7	5	n/a	n/a	n/a	n/a	n/a
1688.32	n/a	STOP	844160	n/a	LTP265	ltpFR	9	n/a	n/a	n/a	n/a	n/a	n/a	n/a	n/a	n/a	n/a	n/a	n/a	n/a	n/a	n/a
1691.026	n/a	WORD	845513	wordpools/wasnorm_wordpool_less_exclusions.txt	LTP265	ltpFR	9	6	0	SPRINKLE	1359	n/a	0	n/a	0	0	0	1	0.412841796875	0.57763671875	lower	../fonts/amplitud.ttf
1694.038	n/a	START	847019	n/a	LTP265	ltpFR	9	n/a	n/a	n/a	n/a	n/a	n/a	n/a	n/a	n/a	n/a	n/a	n/a	n/a	n/a	n/a
1695.23	n/a	PROB	847615	n/a	LTP265	ltpFR	9	n/a	n/a	n/a	n/a	n/a	n/a	23	6	8	9	n/a	n/a	n/a	n/a	n/a
1697.718	n/a	PROB	848859	n/a	LTP265	ltpFR	9	n/a	n/a	n/a	n/a	n/a	n/a	22	9	8	5	n/a	n/a	n/a	n/a	n/a
1699.414	n/a	PROB	849707	n/a	LTP265	ltpFR	9	n/a	n/a	n/a	n/a	n/a	n/a	21	8	7	6	n/a	n/a	n/a	n/a	n/a
1701.338	n/a	STOP	850669	n/a	LTP265	ltpFR	9	n/a	n/a	n/a	n/a	n/a	n/a	n/a	n/a	n/a	n/a	n/a	n/a	n/a	n/a	n/a
1702.878	n/a	WORD	851439	wordpools/wasnorm_wordpool_less_exclusions.txt	LTP265	ltpFR	9	6	0	TORCH	1484	n/a	1	n/a	0	0	0	1	0.412841796875	0.57763671875	lower	../fonts/amplitud.ttf
1705.89	n/a	START	852945	n/a	LTP265	ltpFR	9	n/a	n/a	n/a	n/a	n/a	n/a	n/a	n/a	n/a	n/a	n/a	n/a	n/a	n/a	n/a
1706.992	n/a	PROB	853496	n/a	LTP265	ltpFR	9	n/a	n/a	n/a	n/a	n/a	n/a	8	5	1	2	n/a	n/a	n/a	n/a	n/a
1708.76	n/a	PROB	854380	n/a	LTP265	ltpFR	9	n/a	n/a	n/a	n/a	n/a	n/a	11	9	1	1	n/a	n/a	n/a	n/a	n/a
1710.104	n/a	PROB	855052	n/a	LTP265	ltpFR	9	n/a	n/a	n/a	n/a	n/a	n/a	19	8	2	9	n/a	n/a	n/a	n/a	n/a
1711.912	n/a	PROB	855956	n/a	LTP265	ltpFR	9	n/a	n/a	n/a	n/a	n/a	n/a	7	3	1	3	n/a	n/a	n/a	n/a	n/a
1713.77	n/a	STOP	856885	n/a	LTP265	ltpFR	9	n/a	n/a	n/a	n/a	n/a	n/a	n/a	n/a	n/a	n/a	n/a	n/a	n/a	n/a	n/a
1714.9	n/a	WORD	857450	wordpools/wasnorm_wordpool_less_exclusions.txt	LTP265	ltpFR	9	6	0	DRILL	497	n/a	0	n/a	0	0	0	1	0.412841796875	0.57763671875	lower	../fonts/amplitud.ttf
1717.912	n/a	START	858956	n/a	LTP265	ltpFR	9	n/a	n/a	n/a	n/a	n/a	n/a	n/a	n/a	n/a	n/a	n/a	n/a	n/a	n/a	n/a
1718.922	n/a	PROB	859461	n/a	LTP265	ltpFR	9	n/a	n/a	n/a	n/a	n/a	n/a	17	5	8	4	n/a	n/a	n/a	n/a	n/a
1721.112	n/a	PROB	860556	n/a	LTP265	ltpFR	9	n/a	n/a	n/a	n/a	n/a	n/a	11	4	5	2	n/a	n/a	n/a	n/a	n/a
1722.68	n/a	PROB	861340	n/a	LTP265	ltpFR	9	n/a	n/a	n/a	n/a	n/a	n/a	14	2	9	3	n/a	n/a	n/a	n/a	n/a
1724.386	n/a	PROB	862193	n/a	LTP265	ltpFR	9	n/a	n/a	n/a	n/a	n/a	n/a	10	8	1	1	n/a	n/a	n/a	n/a	n/a
1725.868	n/a	STOP	862934	n/a	LTP265	ltpFR	9	n/a	n/a	n/a	n/a	n/a	n/a	n/a	n/a	n/a	n/a	n/a	n/a	n/a	n/a	n/a
1726.768	n/a	WORD	863384	wordpools/wasnorm_wordpool_less_exclusions.txt	LTP265	ltpFR	9	6	0	CLOUD	328	n/a	1	n/a	0	0	0	1	0.412841796875	0.57763671875	lower	../fonts/amplitud.ttf
1729.78	n/a	START	864890	n/a	LTP265	ltpFR	9	n/a	n/a	n/a	n/a	n/a	n/a	n/a	n/a	n/a	n/a	n/a	n/a	n/a	n/a	n/a
1730.8	n/a	PROB	865400	n/a	LTP265	ltpFR	9	n/a	n/a	n/a	n/a	n/a	n/a	14	4	2	8	n/a	n/a	n/a	n/a	n/a
1732.684	n/a	PROB	866342	n/a	LTP265	ltpFR	9	n/a	n/a	n/a	n/a	n/a	n/a	17	7	9	1	n/a	n/a	n/a	n/a	n/a
1734.448	n/a	PROB	867224	n/a	LTP265	ltpFR	9	n/a	n/a	n/a	n/a	n/a	n/a	12	4	5	3	n/a	n/a	n/a	n/a	n/a
1736.004	n/a	PROB	868002	n/a	LTP265	ltpFR	9	n/a	n/a	n/a	n/a	n/a	n/a	15	3	3	9	n/a	n/a	n/a	n/a	n/a
1737.484	n/a	STOP	868742	n/a	LTP265	ltpFR	9	n/a	n/a	n/a	n/a	n/a	n/a	n/a	n/a	n/a	n/a	n/a	n/a	n/a	n/a	n/a
1738.932	n/a	WORD	869466	wordpools/wasnorm_wordpool_less_exclusions.txt	LTP265	ltpFR	9	6	0	PALM	1007	n/a	0	n/a	0	0	0	1	0.412841796875	0.57763671875	lower	../fonts/amplitud.ttf
1741.944	n/a	START	870972	n/a	LTP265	ltpFR	9	n/a	n/a	n/a	n/a	n/a	n/a	n/a	n/a	n/a	n/a	n/a	n/a	n/a	n/a	n/a
1743.124	n/a	PROB	871562	n/a	LTP265	ltpFR	9	n/a	n/a	n/a	n/a	n/a	n/a	9	2	1	6	n/a	n/a	n/a	n/a	n/a
1745.438	n/a	PROB	872719	n/a	LTP265	ltpFR	9	n/a	n/a	n/a	n/a	n/a	n/a	18	7	2	9	n/a	n/a	n/a	n/a	n/a
1747.38	n/a	PROB	873690	n/a	LTP265	ltpFR	9	n/a	n/a	n/a	n/a	n/a	n/a	16	9	2	5	n/a	n/a	n/a	n/a	n/a
1748.732	n/a	STOP	874366	n/a	LTP265	ltpFR	9	n/a	n/a	n/a	n/a	n/a	n/a	n/a	n/a	n/a	n/a	n/a	n/a	n/a	n/a	n/a
1750.776	n/a	WORD	875388	wordpools/wasnorm_wordpool_less_exclusions.txt	LTP265	ltpFR	9	6	0	KNUCKLE	789	n/a	0	n/a	0	0	0	1	0.412841796875	0.57763671875	lower	../fonts/amplitud.ttf
1753.79	n/a	START	876895	n/a	LTP265	ltpFR	9	n/a	n/a	n/a	n/a	n/a	n/a	n/a	n/a	n/a	n/a	n/a	n/a	n/a	n/a	n/a
1754.76	n/a	PROB	877380	n/a	LTP265	ltpFR	9	n/a	n/a	n/a	n/a	n/a	n/a	7	1	5	1	n/a	n/a	n/a	n/a	n/a
1758.752	n/a	PROB	879376	n/a	LTP265	ltpFR	9	n/a	n/a	n/a	n/a	n/a	n/a	9	2	3	4	n/a	n/a	n/a	n/a	n/a
1760.412	n/a	STOP	880206	n/a	LTP265	ltpFR	9	n/a	n/a	n/a	n/a	n/a	n/a	n/a	n/a	n/a	n/a	n/a	n/a	n/a	n/a	n/a
1762.784	n/a	WORD	881392	wordpools/wasnorm_wordpool_less_exclusions.txt	LTP265	ltpFR	9	6	0	HONEY	713	n/a	0	n/a	0	0	0	1	0.412841796875	0.57763671875	lower	../fonts/amplitud.ttf
1765.802	n/a	START	882901	n/a	LTP265	ltpFR	9	n/a	n/a	n/a	n/a	n/a	n/a	n/a	n/a	n/a	n/a	n/a	n/a	n/a	n/a	n/a
1766.854	n/a	PROB	883427	n/a	LTP265	ltpFR	9	n/a	n/a	n/a	n/a	n/a	n/a	12	2	5	5	n/a	n/a	n/a	n/a	n/a
1769.458	n/a	PROB	884729	n/a	LTP265	ltpFR	9	n/a	n/a	n/a	n/a	n/a	n/a	24	8	8	8	n/a	n/a	n/a	n/a	n/a
1773.802	n/a	STOP	886901	n/a	LTP265	ltpFR	9	n/a	n/a	n/a	n/a	n/a	n/a	n/a	n/a	n/a	n/a	n/a	n/a	n/a	n/a	n/a
1774.718	n/a	WORD	887359	wordpools/wasnorm_wordpool_less_exclusions.txt	LTP265	ltpFR	9	6	0	TIDE	1465	n/a	1	n/a	0	0	0	1	0.412841796875	0.57763671875	lower	../fonts/amplitud.ttf
1777.73	n/a	START	888865	n/a	LTP265	ltpFR	9	n/a	n/a	n/a	n/a	n/a	n/a	n/a	n/a	n/a	n/a	n/a	n/a	n/a	n/a	n/a
1778.576	n/a	PROB	889288	n/a	LTP265	ltpFR	9	n/a	n/a	n/a	n/a	n/a	n/a	11	5	5	1	n/a	n/a	n/a	n/a	n/a
1780.858	n/a	PROB	890429	n/a	LTP265	ltpFR	9	n/a	n/a	n/a	n/a	n/a	n/a	26	9	8	9	n/a	n/a	n/a	n/a	n/a
1785.73	n/a	STOP	892865	n/a	LTP265	ltpFR	9	n/a	n/a	n/a	n/a	n/a	n/a	n/a	n/a	n/a	n/a	n/a	n/a	n/a	n/a	n/a
1787.6	n/a	REC_START	893800	n/a	LTP265	ltpFR	9	6	n/a	n/a	n/a	n/a	n/a	n/a	0	0	0	n/a	n/a	n/a	n/a	n/a
1789.606	n/a	REC_WORD	894803	wordpools/wasnorm_wordpool_less_exclusions.txt	LTP265	ltpFR	9	6	0	TIDE	1465	n/a	1	n/a	0	0	0	n/a	n/a	n/a	n/a	n/a
1791.724	n/a	REC_WORD	895862	wordpools/wasnorm_wordpool_less_exclusions.txt	LTP265	ltpFR	9	6	0	KNUCKLE	789	n/a	0	n/a	0	0	0	n/a	n/a	n/a	n/a	n/a
1792.5	n/a	REC_WORD	896250	wordpools/wasnorm_wordpool_less_exclusions.txt	LTP265	ltpFR	9	6	0	PALM	1007	n/a	0	n/a	0	0	0	n/a	n/a	n/a	n/a	n/a
1794.242	n/a	REC_WORD	897121	wordpools/wasnorm_wordpool_less_exclusions.txt	LTP265	ltpFR	9	6	0	SPRINKLE	1359	n/a	0	n/a	0	0	0	n/a	n/a	n/a	n/a	n/a
1795.24	n/a	REC_WORD	897620	wordpools/wasnorm_wordpool_less_exclusions.txt	LTP265	ltpFR	9	6	0	MUFFIN	929	n/a	0	n/a	0	0	0	n/a	n/a	n/a	n/a	n/a
1796.742	n/a	REC_WORD	898371	wordpools/wasnorm_wordpool_less_exclusions.txt	LTP265	ltpFR	9	6	0	NAPKIN	937	n/a	0	n/a	0	0	0	n/a	n/a	n/a	n/a	n/a
1799.542	n/a	REC_WORD	899771	wordpools/wasnorm_wordpool_less_exclusions.txt	LTP265	ltpFR	9	6	0	STOVE	1388	n/a	1	n/a	0	0	0	n/a	n/a	n/a	n/a	n/a
1802.264	n/a	REC_WORD	901132	wordpools/wasnorm_wordpool_less_exclusions.txt	LTP265	ltpFR	9	6	0	BEE	112	n/a	0	n/a	0	0	0	n/a	n/a	n/a	n/a	n/a
1803.02	n/a	REC_WORD	901510	wordpools/wasnorm_wordpool_less_exclusions.txt	LTP265	ltpFR	9	6	0	HONEY	713	n/a	0	n/a	0	0	0	n/a	n/a	n/a	n/a	n/a
1807.228	n/a	REC_WORD	903614	wordpools/wasnorm_wordpool_less_exclusions.txt	LTP265	ltpFR	9	6	0	LIGHTNING	820	n/a	1	n/a	0	0	0	n/a	n/a	n/a	n/a	n/a
1807.876	n/a	REC_WORD	903938	wordpools/wasnorm_wordpool_less_exclusions.txt	LTP265	ltpFR	9	6	0	CLOUD	328	n/a	1	n/a	0	0	0	n/a	n/a	n/a	n/a	n/a
1881.838	n/a	WORD	940919	wordpools/wasnorm_wordpool_less_exclusions.txt	LTP265	ltpFR	9	7	0	FREEWAY	603	n/a	1	n/a	0	0	0	1	0.412841796875	0.57763671875	lower	../fonts/amplitud.ttf
1885.894	n/a	WORD	942947	wordpools/wasnorm_wordpool_less_exclusions.txt	LTP265	ltpFR	9	7	0	TANK	1432	n/a	1	n/a	0	0	0	1	0.412841796875	0.57763671875	lower	../fonts/amplitud.ttf
1889.826	n/a	WORD	944913	wordpools/wasnorm_wordpool_less_exclusions.txt	LTP265	ltpFR	9	7	0	COLONEL	348	n/a	1	n/a	0	0	0	1	0.412841796875	0.57763671875	lower	../fonts/amplitud.ttf
1893.774	n/a	WORD	946887	wordpools/wasnorm_wordpool_less_exclusions.txt	LTP265	ltpFR	9	7	1	SHED	1277	n/a	0	n/a	0	0	0	0	0.5869140625	0.422607421875	upper	../fonts/zerothre.ttf
1897.99	n/a	WORD	948995	wordpools/wasnorm_wordpool_less_exclusions.txt	LTP265	ltpFR	9	7	1	BARRACUDA	90	n/a	1	n/a	0	0	0	0	0.5869140625	0.422607421875	upper	../fonts/zerothre.ttf
1902.022	n/a	WORD	951011	wordpools/wasnorm_wordpool_less_exclusions.txt	LTP265	ltpFR	9	7	1	FIN	566	n/a	0	n/a	0	0	0	0	0.5869140625	0.422607421875	upper	../fonts/zerothre.ttf
1905.87	n/a	WORD	952935	wordpools/wasnorm_wordpool_less_exclusions.txt	LTP265	ltpFR	9	7	1	CHAMPAGNE	278	n/a	0	n/a	0	0	0	0	0.5869140625	0.422607421875	upper	../fonts/zerothre.ttf
1910.086	n/a	WORD	955043	wordpools/wasnorm_wordpool_less_exclusions.txt	LTP265	ltpFR	9	7	0	FARMER	553	n/a	1	n/a	0	0	0	1	0.412841796875	0.57763671875	lower	../fonts/amplitud.ttf
1914.16	n/a	WORD	957080	wordpools/wasnorm_wordpool_less_exclusions.txt	LTP265	ltpFR	9	7	0	SHORTCAKE	1292	n/a	0	n/a	0	0	0	1	0.412841796875	0.57763671875	lower	../fonts/amplitud.ttf
1918.126	n/a	WORD	959063	wordpools/wasnorm_wordpool_less_exclusions.txt	LTP265	ltpFR	9	7	1	AUTOMOBILE	62	n/a	0	n/a	0	0	0	0	0.5869140625	0.422607421875	upper	../fonts/zerothre.ttf
1922.198	n/a	WORD	961099	wordpools/wasnorm_wordpool_less_exclusions.txt	LTP265	ltpFR	9	7	1	WATER	1594	n/a	0	n/a	0	0	0	0	0.5869140625	0.422607421875	upper	../fonts/zerothre.ttf
1926.18	n/a	WORD	963090	wordpools/wasnorm_wordpool_less_exclusions.txt	LTP265	ltpFR	9	7	1	DESK	452	n/a	0	n/a	0	0	0	0	0.5869140625	0.422607421875	upper	../fonts/zerothre.ttf
1930.138	n/a	WORD	965069	wordpools/wasnorm_wordpool_less_exclusions.txt	LTP265	ltpFR	9	7	1	PROTRACTOR	1133	n/a	0	n/a	0	0	0	0	0.5869140625	0.422607421875	upper	../fonts/zerothre.ttf
1933.97	n/a	WORD	966985	wordpools/wasnorm_wordpool_less_exclusions.txt	LTP265	ltpFR	9	7	0	PLANT	1083	n/a	1	n/a	0	0	0	1	0.412841796875	0.57763671875	lower	../fonts/amplitud.ttf
1937.976	n/a	WORD	968988	wordpools/wasnorm_wordpool_less_exclusions.txt	LTP265	ltpFR	9	7	0	CHEST	295	n/a	1	n/a	0	0	0	1	0.412841796875	0.57763671875	lower	../fonts/amplitud.ttf
1942.168	n/a	WORD	971084	wordpools/wasnorm_wordpool_less_exclusions.txt	LTP265	ltpFR	9	7	0	CHIPMUNK	304	n/a	0	n/a	0	0	0	1	0.412841796875	0.57763671875	lower	../fonts/amplitud.ttf
1945.18	n/a	START	972590	n/a	LTP265	ltpFR	9	n/a	n/a	n/a	n/a	n/a	n/a	n/a	n/a	n/a	n/a	n/a	n/a	n/a	n/a	n/a
1946.172	n/a	PROB	973086	n/a	LTP265	ltpFR	9	n/a	n/a	n/a	n/a	n/a	n/a	16	6	9	1	n/a	n/a	n/a	n/a	n/a
1948.214	n/a	PROB	974107	n/a	LTP265	ltpFR	9	n/a	n/a	n/a	n/a	n/a	n/a	11	6	1	4	n/a	n/a	n/a	n/a	n/a
1950.388	n/a	PROB	975194	n/a	LTP265	ltpFR	9	n/a	n/a	n/a	n/a	n/a	n/a	14	3	8	3	n/a	n/a	n/a	n/a	n/a
1952.478	n/a	STOP	976239	n/a	LTP265	ltpFR	9	n/a	n/a	n/a	n/a	n/a	n/a	n/a	n/a	n/a	n/a	n/a	n/a	n/a	n/a	n/a
1955.018	n/a	REC_START	977509	n/a	LTP265	ltpFR	9	7	n/a	n/a	n/a	n/a	n/a	n/a	0	0	0	n/a	n/a	n/a	n/a	n/a
1956.54	n/a	REC_WORD	978270	wordpools/wasnorm_wordpool_less_exclusions.txt	LTP265	ltpFR	9	7	0	CHIPMUNK	304	n/a	0	n/a	0	0	0	n/a	n/a	n/a	n/a	n/a
1974.478	n/a	REC_WORD	987239	wordpools/wasnorm_wordpool_less_exclusions.txt	LTP265	ltpFR	9	7	0	FREEWAY	603	n/a	1	n/a	0	0	0	n/a	n/a	n/a	n/a	n/a
1990.53	n/a	REC_WORD	995265	wordpools/wasnorm_wordpool_less_exclusions.txt	LTP265	ltpFR	9	7	1	FIN	566	n/a	0	n/a	0	0	0	n/a	n/a	n/a	n/a	n/a
1991.562	n/a	REC_WORD	995781	wordpools/wasnorm_wordpool_less_exclusions.txt	LTP265	ltpFR	9	7	1	BARRACUDA	90	n/a	1	n/a	0	0	0	n/a	n/a	n/a	n/a	n/a
1994.018	n/a	REC_WORD	997009	wordpools/wasnorm_wordpool_less_exclusions.txt	LTP265	ltpFR	9	7	1	WATER	1594	n/a	0	n/a	0	0	0	n/a	n/a	n/a	n/a	n/a
2014.378	n/a	REC_WORD	1007189	wordpools/wasnorm_wordpool_less_exclusions.txt	LTP265	ltpFR	9	7	1	DESK	452	n/a	0	n/a	0	0	0	n/a	n/a	n/a	n/a	n/a
2058.922	n/a	START	1029461	n/a	LTP265	ltpFR	9	n/a	n/a	n/a	n/a	n/a	n/a	n/a	n/a	n/a	n/a	n/a	n/a	n/a	n/a	n/a
2060.436	n/a	PROB	1030218	n/a	LTP265	ltpFR	9	n/a	n/a	n/a	n/a	n/a	n/a	23	5	9	9	n/a	n/a	n/a	n/a	n/a
2063.498	n/a	PROB	1031749	n/a	LTP265	ltpFR	9	n/a	n/a	n/a	n/a	n/a	n/a	12	2	4	6	n/a	n/a	n/a	n/a	n/a
2065.244	n/a	PROB	1032622	n/a	LTP265	ltpFR	9	n/a	n/a	n/a	n/a	n/a	n/a	17	1	7	9	n/a	n/a	n/a	n/a	n/a
2067.212	n/a	PROB	1033606	n/a	LTP265	ltpFR	9	n/a	n/a	n/a	n/a	n/a	n/a	21	4	8	9	n/a	n/a	n/a	n/a	n/a
2069.37	n/a	PROB	1034685	n/a	LTP265	ltpFR	9	n/a	n/a	n/a	n/a	n/a	n/a	17	2	7	8	n/a	n/a	n/a	n/a	n/a
2071.11	n/a	PROB	1035555	n/a	LTP265	ltpFR	9	n/a	n/a	n/a	n/a	n/a	n/a	11	4	2	5	n/a	n/a	n/a	n/a	n/a
2072.666	n/a	PROB	1036333	n/a	LTP265	ltpFR	9	n/a	n/a	n/a	n/a	n/a	n/a	15	6	2	7	n/a	n/a	n/a	n/a	n/a
2074.23	n/a	STOP	1037115	n/a	LTP265	ltpFR	9	n/a	n/a	n/a	n/a	n/a	n/a	n/a	n/a	n/a	n/a	n/a	n/a	n/a	n/a	n/a
2075.802	n/a	WORD	1037901	wordpools/wasnorm_wordpool_less_exclusions.txt	LTP265	ltpFR	9	8	1	JUG	762	n/a	0	n/a	0	0	0	0	0.5869140625	0.422607421875	upper	../fonts/zerothre.ttf
2078.814	n/a	START	1039407	n/a	LTP265	ltpFR	9	n/a	n/a	n/a	n/a	n/a	n/a	n/a	n/a	n/a	n/a	n/a	n/a	n/a	n/a	n/a
2079.734	n/a	PROB	1039867	n/a	LTP265	ltpFR	9	n/a	n/a	n/a	n/a	n/a	n/a	11	6	1	4	n/a	n/a	n/a	n/a	n/a
2081.826	n/a	PROB	1040913	n/a	LTP265	ltpFR	9	n/a	n/a	n/a	n/a	n/a	n/a	9	3	2	4	n/a	n/a	n/a	n/a	n/a
2083.358	n/a	PROB	1041679	n/a	LTP265	ltpFR	9	n/a	n/a	n/a	n/a	n/a	n/a	10	2	1	7	n/a	n/a	n/a	n/a	n/a
2084.87	n/a	PROB	1042435	n/a	LTP265	ltpFR	9	n/a	n/a	n/a	n/a	n/a	n/a	17	9	6	2	n/a	n/a	n/a	n/a	n/a
2086.652	n/a	PROB	1043326	n/a	LTP265	ltpFR	9	n/a	n/a	n/a	n/a	n/a	n/a	11	4	4	3	n/a	n/a	n/a	n/a	n/a
2088.074	n/a	PROB	1044037	n/a	LTP265	ltpFR	9	n/a	n/a	n/a	n/a	n/a	n/a	22	7	6	9	n/a	n/a	n/a	n/a	n/a
2090.106	n/a	PROB	1045053	n/a	LTP265	ltpFR	9	n/a	n/a	n/a	n/a	n/a	n/a	17	4	8	5	n/a	n/a	n/a	n/a	n/a
2091.946	n/a	PROB	1045973	n/a	LTP265	ltpFR	9	n/a	n/a	n/a	n/a	n/a	n/a	6	1	1	4	n/a	n/a	n/a	n/a	n/a
2094.816	n/a	STOP	1047408	n/a	LTP265	ltpFR	9	n/a	n/a	n/a	n/a	n/a	n/a	n/a	n/a	n/a	n/a	n/a	n/a	n/a	n/a	n/a
2095.746	n/a	WORD	1047873	wordpools/wasnorm_wordpool_less_exclusions.txt	LTP265	ltpFR	9	8	1	JOKER	759	n/a	0	n/a	0	0	0	0	0.5869140625	0.422607421875	upper	../fonts/zerothre.ttf
2098.758	n/a	START	1049379	n/a	LTP265	ltpFR	9	n/a	n/a	n/a	n/a	n/a	n/a	n/a	n/a	n/a	n/a	n/a	n/a	n/a	n/a	n/a
2099.778	n/a	PROB	1049889	n/a	LTP265	ltpFR	9	n/a	n/a	n/a	n/a	n/a	n/a	13	2	4	7	n/a	n/a	n/a	n/a	n/a
2102.18	n/a	PROB	1051090	n/a	LTP265	ltpFR	9	n/a	n/a	n/a	n/a	n/a	n/a	16	5	2	9	n/a	n/a	n/a	n/a	n/a
2104.326	n/a	PROB	1052163	n/a	LTP265	ltpFR	9	n/a	n/a	n/a	n/a	n/a	n/a	18	8	6	4	n/a	n/a	n/a	n/a	n/a
2106.536	n/a	PROB	1053268	n/a	LTP265	ltpFR	9	n/a	n/a	n/a	n/a	n/a	n/a	18	4	9	5	n/a	n/a	n/a	n/a	n/a
2109.49	n/a	PROB	1054745	n/a	LTP265	ltpFR	9	n/a	n/a	n/a	n/a	n/a	n/a	18	4	9	5	n/a	n/a	n/a	n/a	n/a
2111.136	n/a	PROB	1055568	n/a	LTP265	ltpFR	9	n/a	n/a	n/a	n/a	n/a	n/a	14	3	9	2	n/a	n/a	n/a	n/a	n/a
2113.184	n/a	STOP	1056592	n/a	LTP265	ltpFR	9	n/a	n/a	n/a	n/a	n/a	n/a	n/a	n/a	n/a	n/a	n/a	n/a	n/a	n/a	n/a
2115.866	n/a	WORD	1057933	wordpools/wasnorm_wordpool_less_exclusions.txt	LTP265	ltpFR	9	8	1	LETTER	813	n/a	0	n/a	0	0	0	0	0.5869140625	0.422607421875	upper	../fonts/zerothre.ttf
2118.878	n/a	START	1059439	n/a	LTP265	ltpFR	9	n/a	n/a	n/a	n/a	n/a	n/a	n/a	n/a	n/a	n/a	n/a	n/a	n/a	n/a	n/a
2120.088	n/a	PROB	1060044	n/a	LTP265	ltpFR	9	n/a	n/a	n/a	n/a	n/a	n/a	12	5	2	5	n/a	n/a	n/a	n/a	n/a
2122.228	n/a	PROB	1061114	n/a	LTP265	ltpFR	9	n/a	n/a	n/a	n/a	n/a	n/a	10	2	3	5	n/a	n/a	n/a	n/a	n/a
2124.046	n/a	PROB	1062023	n/a	LTP265	ltpFR	9	n/a	n/a	n/a	n/a	n/a	n/a	8	3	4	1	n/a	n/a	n/a	n/a	n/a
2125.524	n/a	PROB	1062762	n/a	LTP265	ltpFR	9	n/a	n/a	n/a	n/a	n/a	n/a	13	7	4	2	n/a	n/a	n/a	n/a	n/a
2127.032	n/a	PROB	1063516	n/a	LTP265	ltpFR	9	n/a	n/a	n/a	n/a	n/a	n/a	25	8	9	8	n/a	n/a	n/a	n/a	n/a
2129.836	n/a	PROB	1064918	n/a	LTP265	ltpFR	9	n/a	n/a	n/a	n/a	n/a	n/a	20	9	8	3	n/a	n/a	n/a	n/a	n/a
2134.878	n/a	STOP	1067439	n/a	LTP265	ltpFR	9	n/a	n/a	n/a	n/a	n/a	n/a	n/a	n/a	n/a	n/a	n/a	n/a	n/a	n/a	n/a
2136.082	n/a	WORD	1068041	wordpools/wasnorm_wordpool_less_exclusions.txt	LTP265	ltpFR	9	8	1	ASSISTANT	48	n/a	1	n/a	0	0	0	0	0.5869140625	0.422607421875	upper	../fonts/zerothre.ttf
2139.094	n/a	START	1069547	n/a	LTP265	ltpFR	9	n/a	n/a	n/a	n/a	n/a	n/a	n/a	n/a	n/a	n/a	n/a	n/a	n/a	n/a	n/a
2139.992	n/a	PROB	1069996	n/a	LTP265	ltpFR	9	n/a	n/a	n/a	n/a	n/a	n/a	21	6	8	7	n/a	n/a	n/a	n/a	n/a
2141.948	n/a	PROB	1070974	n/a	LTP265	ltpFR	9	n/a	n/a	n/a	n/a	n/a	n/a	10	1	2	7	n/a	n/a	n/a	n/a	n/a
2143.696	n/a	PROB	1071848	n/a	LTP265	ltpFR	9	n/a	n/a	n/a	n/a	n/a	n/a	14	3	2	9	n/a	n/a	n/a	n/a	n/a
2145.328	n/a	PROB	1072664	n/a	LTP265	ltpFR	9	n/a	n/a	n/a	n/a	n/a	n/a	19	6	4	9	n/a	n/a	n/a	n/a	n/a
2146.7	n/a	PROB	1073350	n/a	LTP265	ltpFR	9	n/a	n/a	n/a	n/a	n/a	n/a	10	7	2	1	n/a	n/a	n/a	n/a	n/a
2148.304	n/a	PROB	1074152	n/a	LTP265	ltpFR	9	n/a	n/a	n/a	n/a	n/a	n/a	12	6	1	5	n/a	n/a	n/a	n/a	n/a
2150.43	n/a	PROB	1075215	n/a	LTP265	ltpFR	9	n/a	n/a	n/a	n/a	n/a	n/a	21	9	3	9	n/a	n/a	n/a	n/a	n/a
2155.094	n/a	STOP	1077547	n/a	LTP265	ltpFR	9	n/a	n/a	n/a	n/a	n/a	n/a	n/a	n/a	n/a	n/a	n/a	n/a	n/a	n/a	n/a
2156.226	n/a	WORD	1078113	wordpools/wasnorm_wordpool_less_exclusions.txt	LTP265	ltpFR	9	8	1	PIER	1063	n/a	0	n/a	0	0	0	0	0.5869140625	0.422607421875	upper	../fonts/zerothre.ttf
2159.238	n/a	START	1079619	n/a	LTP265	ltpFR	9	n/a	n/a	n/a	n/a	n/a	n/a	n/a	n/a	n/a	n/a	n/a	n/a	n/a	n/a	n/a
2160.302	n/a	PROB	1080151	n/a	LTP265	ltpFR	9	n/a	n/a	n/a	n/a	n/a	n/a	16	7	5	4	n/a	n/a	n/a	n/a	n/a
2162.192	n/a	PROB	1081096	n/a	LTP265	ltpFR	9	n/a	n/a	n/a	n/a	n/a	n/a	8	5	2	1	n/a	n/a	n/a	n/a	n/a
2163.596	n/a	PROB	1081798	n/a	LTP265	ltpFR	9	n/a	n/a	n/a	n/a	n/a	n/a	21	3	9	9	n/a	n/a	n/a	n/a	n/a
2166.214	n/a	PROB	1083107	n/a	LTP265	ltpFR	9	n/a	n/a	n/a	n/a	n/a	n/a	20	7	9	4	n/a	n/a	n/a	n/a	n/a
2168.918	n/a	PROB	1084459	n/a	LTP265	ltpFR	9	n/a	n/a	n/a	n/a	n/a	n/a	13	2	2	9	n/a	n/a	n/a	n/a	n/a
2171.4	n/a	PROB	1085700	n/a	LTP265	ltpFR	9	n/a	n/a	n/a	n/a	n/a	n/a	14	1	8	5	n/a	n/a	n/a	n/a	n/a
2173.452	n/a	PROB	1086726	n/a	LTP265	ltpFR	9	n/a	n/a	n/a	n/a	n/a	n/a	12	9	1	2	n/a	n/a	n/a	n/a	n/a
2175.204	n/a	STOP	1087602	n/a	LTP265	ltpFR	9	n/a	n/a	n/a	n/a	n/a	n/a	n/a	n/a	n/a	n/a	n/a	n/a	n/a	n/a	n/a
2176.37	n/a	WORD	1088185	wordpools/wasnorm_wordpool_less_exclusions.txt	LTP265	ltpFR	9	8	1	RACCOON	1153	n/a	1	n/a	0	0	0	0	0.5869140625	0.422607421875	upper	../fonts/zerothre.ttf
2179.382	n/a	START	1089691	n/a	LTP265	ltpFR	9	n/a	n/a	n/a	n/a	n/a	n/a	n/a	n/a	n/a	n/a	n/a	n/a	n/a	n/a	n/a
2180.334	n/a	PROB	1090167	n/a	LTP265	ltpFR	9	n/a	n/a	n/a	n/a	n/a	n/a	19	8	3	8	n/a	n/a	n/a	n/a	n/a
2182.052	n/a	PROB	1091026	n/a	LTP265	ltpFR	9	n/a	n/a	n/a	n/a	n/a	n/a	12	2	1	9	n/a	n/a	n/a	n/a	n/a
2183.522	n/a	PROB	1091761	n/a	LTP265	ltpFR	9	n/a	n/a	n/a	n/a	n/a	n/a	14	6	2	5	n/a	n/a	n/a	n/a	n/a
2185.498	n/a	PROB	1092749	n/a	LTP265	ltpFR	9	n/a	n/a	n/a	n/a	n/a	n/a	16	7	5	4	n/a	n/a	n/a	n/a	n/a
2187.59	n/a	PROB	1093795	n/a	LTP265	ltpFR	9	n/a	n/a	n/a	n/a	n/a	n/a	20	8	7	5	n/a	n/a	n/a	n/a	n/a
2189.262	n/a	PROB	1094631	n/a	LTP265	ltpFR	9	n/a	n/a	n/a	n/a	n/a	n/a	11	4	1	6	n/a	n/a	n/a	n/a	n/a
2190.82	n/a	PROB	1095410	n/a	LTP265	ltpFR	9	n/a	n/a	n/a	n/a	n/a	n/a	9	1	3	5	n/a	n/a	n/a	n/a	n/a
2195.38	n/a	STOP	1097690	n/a	LTP265	ltpFR	9	n/a	n/a	n/a	n/a	n/a	n/a	n/a	n/a	n/a	n/a	n/a	n/a	n/a	n/a	n/a
2196.328	n/a	WORD	1098164	wordpools/wasnorm_wordpool_less_exclusions.txt	LTP265	ltpFR	9	8	0	TUBE	1516	n/a	0	n/a	0	0	0	1	0.412841796875	0.57763671875	lower	../fonts/amplitud.ttf
2199.34	n/a	START	1099670	n/a	LTP265	ltpFR	9	n/a	n/a	n/a	n/a	n/a	n/a	n/a	n/a	n/a	n/a	n/a	n/a	n/a	n/a	n/a
2200.16	n/a	PROB	1100080	n/a	LTP265	ltpFR	9	n/a	n/a	n/a	n/a	n/a	n/a	27	9	9	9	n/a	n/a	n/a	n/a	n/a
2202.044	n/a	PROB	1101022	n/a	LTP265	ltpFR	9	n/a	n/a	n/a	n/a	n/a	n/a	10	1	2	7	n/a	n/a	n/a	n/a	n/a
2203.398	n/a	PROB	1101699	n/a	LTP265	ltpFR	9	n/a	n/a	n/a	n/a	n/a	n/a	15	4	2	9	n/a	n/a	n/a	n/a	n/a
2205.058	n/a	PROB	1102529	n/a	LTP265	ltpFR	9	n/a	n/a	n/a	n/a	n/a	n/a	15	4	2	9	n/a	n/a	n/a	n/a	n/a
2206.344	n/a	PROB	1103172	n/a	LTP265	ltpFR	9	n/a	n/a	n/a	n/a	n/a	n/a	15	7	5	3	n/a	n/a	n/a	n/a	n/a
2209.072	n/a	PROB	1104536	n/a	LTP265	ltpFR	9	n/a	n/a	n/a	n/a	n/a	n/a	19	8	6	5	n/a	n/a	n/a	n/a	n/a
2211.102	n/a	PROB	1105551	n/a	LTP265	ltpFR	9	n/a	n/a	n/a	n/a	n/a	n/a	11	8	2	1	n/a	n/a	n/a	n/a	n/a
2212.86	n/a	PROB	1106430	n/a	LTP265	ltpFR	9	n/a	n/a	n/a	n/a	n/a	n/a	19	5	5	9	n/a	n/a	n/a	n/a	n/a
2214.158	n/a	STOP	1107079	n/a	LTP265	ltpFR	9	n/a	n/a	n/a	n/a	n/a	n/a	n/a	n/a	n/a	n/a	n/a	n/a	n/a	n/a	n/a
2216.406	n/a	WORD	1108203	wordpools/wasnorm_wordpool_less_exclusions.txt	LTP265	ltpFR	9	8	0	HOOD	714	n/a	0	n/a	0	0	0	1	0.412841796875	0.57763671875	lower	../fonts/amplitud.ttf
2219.418	n/a	START	1109709	n/a	LTP265	ltpFR	9	n/a	n/a	n/a	n/a	n/a	n/a	n/a	n/a	n/a	n/a	n/a	n/a	n/a	n/a	n/a
2220.38	n/a	PROB	1110190	n/a	LTP265	ltpFR	9	n/a	n/a	n/a	n/a	n/a	n/a	1	3	6	2	n/a	n/a	n/a	n/a	n/a
2222.64	n/a	PROB	1111320	n/a	LTP265	ltpFR	9	n/a	n/a	n/a	n/a	n/a	n/a	19	7	6	6	n/a	n/a	n/a	n/a	n/a
2225.54	n/a	PROB	1112770	n/a	LTP265	ltpFR	9	n/a	n/a	n/a	n/a	n/a	n/a	18	9	2	7	n/a	n/a	n/a	n/a	n/a
2227.258	n/a	PROB	1113629	n/a	LTP265	ltpFR	9	n/a	n/a	n/a	n/a	n/a	n/a	21	7	6	8	n/a	n/a	n/a	n/a	n/a
2228.914	n/a	PROB	1114457	n/a	LTP265	ltpFR	9	n/a	n/a	n/a	n/a	n/a	n/a	13	3	5	5	n/a	n/a	n/a	n/a	n/a
2230.636	n/a	PROB	1115318	n/a	LTP265	ltpFR	9	n/a	n/a	n/a	n/a	n/a	n/a	20	8	3	9	n/a	n/a	n/a	n/a	n/a
2232.87	n/a	PROB	1116435	n/a	LTP265	ltpFR	9	n/a	n/a	n/a	n/a	n/a	n/a	19	6	8	5	n/a	n/a	n/a	n/a	n/a
2234.702	n/a	STOP	1117351	n/a	LTP265	ltpFR	9	n/a	n/a	n/a	n/a	n/a	n/a	n/a	n/a	n/a	n/a	n/a	n/a	n/a	n/a	n/a
2236.392	n/a	WORD	1118196	wordpools/wasnorm_wordpool_less_exclusions.txt	LTP265	ltpFR	9	8	0	PIGEON	1065	n/a	0	n/a	0	0	0	1	0.412841796875	0.57763671875	lower	../fonts/amplitud.ttf
2239.404	n/a	START	1119702	n/a	LTP265	ltpFR	9	n/a	n/a	n/a	n/a	n/a	n/a	n/a	n/a	n/a	n/a	n/a	n/a	n/a	n/a	n/a
2240.514	n/a	PROB	1120257	n/a	LTP265	ltpFR	9	n/a	n/a	n/a	n/a	n/a	n/a	27	9	9	9	n/a	n/a	n/a	n/a	n/a
2242.064	n/a	PROB	1121032	n/a	LTP265	ltpFR	9	n/a	n/a	n/a	n/a	n/a	n/a	9	3	2	4	n/a	n/a	n/a	n/a	n/a
2243.526	n/a	PROB	1121763	n/a	LTP265	ltpFR	9	n/a	n/a	n/a	n/a	n/a	n/a	9	1	3	5	n/a	n/a	n/a	n/a	n/a
2245.06	n/a	PROB	1122530	n/a	LTP265	ltpFR	9	n/a	n/a	n/a	n/a	n/a	n/a	21	6	7	8	n/a	n/a	n/a	n/a	n/a
2247.602	n/a	PROB	1123801	n/a	LTP265	ltpFR	9	n/a	n/a	n/a	n/a	n/a	n/a	13	3	9	1	n/a	n/a	n/a	n/a	n/a
2249.71	n/a	PROB	1124855	n/a	LTP265	ltpFR	9	n/a	n/a	n/a	n/a	n/a	n/a	12	3	6	3	n/a	n/a	n/a	n/a	n/a
2251.702	n/a	PROB	1125851	n/a	LTP265	ltpFR	9	n/a	n/a	n/a	n/a	n/a	n/a	15	3	1	8	n/a	n/a	n/a	n/a	n/a
2255.404	n/a	STOP	1127702	n/a	LTP265	ltpFR	9	n/a	n/a	n/a	n/a	n/a	n/a	n/a	n/a	n/a	n/a	n/a	n/a	n/a	n/a	n/a
2256.318	n/a	WORD	1128159	wordpools/wasnorm_wordpool_less_exclusions.txt	LTP265	ltpFR	9	8	0	ROBIN	1199	n/a	0	n/a	0	0	0	1	0.412841796875	0.57763671875	lower	../fonts/amplitud.ttf
2259.33	n/a	START	1129665	n/a	LTP265	ltpFR	9	n/a	n/a	n/a	n/a	n/a	n/a	n/a	n/a	n/a	n/a	n/a	n/a	n/a	n/a	n/a
2260.484	n/a	PROB	1130242	n/a	LTP265	ltpFR	9	n/a	n/a	n/a	n/a	n/a	n/a	23	7	9	7	n/a	n/a	n/a	n/a	n/a
2263.144	n/a	PROB	1131572	n/a	LTP265	ltpFR	9	n/a	n/a	n/a	n/a	n/a	n/a	11	7	2	2	n/a	n/a	n/a	n/a	n/a
2264.902	n/a	PROB	1132451	n/a	LTP265	ltpFR	9	n/a	n/a	n/a	n/a	n/a	n/a	19	5	6	8	n/a	n/a	n/a	n/a	n/a
2266.648	n/a	PROB	1133324	n/a	LTP265	ltpFR	9	n/a	n/a	n/a	n/a	n/a	n/a	6	4	1	1	n/a	n/a	n/a	n/a	n/a
2267.88	n/a	PROB	1133940	n/a	LTP265	ltpFR	9	n/a	n/a	n/a	n/a	n/a	n/a	8	1	1	6	n/a	n/a	n/a	n/a	n/a
2269.268	n/a	PROB	1134634	n/a	LTP265	ltpFR	9	n/a	n/a	n/a	n/a	n/a	n/a	17	5	4	8	n/a	n/a	n/a	n/a	n/a
2271.198	n/a	PROB	1135599	n/a	LTP265	ltpFR	9	n/a	n/a	n/a	n/a	n/a	n/a	15	1	7	7	n/a	n/a	n/a	n/a	n/a
2272.832	n/a	PROB	1136416	n/a	LTP265	ltpFR	9	n/a	n/a	n/a	n/a	n/a	n/a	6	1	2	3	n/a	n/a	n/a	n/a	n/a
2274.28	n/a	STOP	1137140	n/a	LTP265	ltpFR	9	n/a	n/a	n/a	n/a	n/a	n/a	n/a	n/a	n/a	n/a	n/a	n/a	n/a	n/a	n/a
2276.318	n/a	WORD	1138159	wordpools/wasnorm_wordpool_less_exclusions.txt	LTP265	ltpFR	9	8	1	QUILT	1151	n/a	0	n/a	0	0	0	0	0.5869140625	0.422607421875	upper	../fonts/zerothre.ttf
2279.33	n/a	START	1139665	n/a	LTP265	ltpFR	9	n/a	n/a	n/a	n/a	n/a	n/a	n/a	n/a	n/a	n/a	n/a	n/a	n/a	n/a	n/a
2280.444	n/a	PROB	1140222	n/a	LTP265	ltpFR	9	n/a	n/a	n/a	n/a	n/a	n/a	18	9	8	1	n/a	n/a	n/a	n/a	n/a
2281.968	n/a	PROB	1140984	n/a	LTP265	ltpFR	9	n/a	n/a	n/a	n/a	n/a	n/a	14	3	4	4	n/a	n/a	n/a	n/a	n/a
2283.78	n/a	PROB	1141890	n/a	LTP265	ltpFR	9	n/a	n/a	n/a	n/a	n/a	n/a	7	1	5	1	n/a	n/a	n/a	n/a	n/a
2287.16	n/a	PROB	1143580	n/a	LTP265	ltpFR	9	n/a	n/a	n/a	n/a	n/a	n/a	14	6	5	3	n/a	n/a	n/a	n/a	n/a
2288.844	n/a	PROB	1144422	n/a	LTP265	ltpFR	9	n/a	n/a	n/a	n/a	n/a	n/a	6	1	1	4	n/a	n/a	n/a	n/a	n/a
2289.982	n/a	PROB	1144991	n/a	LTP265	ltpFR	9	n/a	n/a	n/a	n/a	n/a	n/a	22	8	9	5	n/a	n/a	n/a	n/a	n/a
2291.71	n/a	PROB	1145855	n/a	LTP265	ltpFR	9	n/a	n/a	n/a	n/a	n/a	n/a	8	4	2	2	n/a	n/a	n/a	n/a	n/a
2293.476	n/a	PROB	1146738	n/a	LTP265	ltpFR	9	n/a	n/a	n/a	n/a	n/a	n/a	13	3	8	2	n/a	n/a	n/a	n/a	n/a
2294.978	n/a	STOP	1147489	n/a	LTP265	ltpFR	9	n/a	n/a	n/a	n/a	n/a	n/a	n/a	n/a	n/a	n/a	n/a	n/a	n/a	n/a	n/a
2296.186	n/a	WORD	1148093	wordpools/wasnorm_wordpool_less_exclusions.txt	LTP265	ltpFR	9	8	1	NOTE	958	n/a	0	n/a	0	0	0	0	0.5869140625	0.422607421875	upper	../fonts/zerothre.ttf
2299.2	n/a	START	1149600	n/a	LTP265	ltpFR	9	n/a	n/a	n/a	n/a	n/a	n/a	n/a	n/a	n/a	n/a	n/a	n/a	n/a	n/a	n/a
2300.02	n/a	PROB	1150010	n/a	LTP265	ltpFR	9	n/a	n/a	n/a	n/a	n/a	n/a	14	6	3	5	n/a	n/a	n/a	n/a	n/a
2301.876	n/a	PROB	1150938	n/a	LTP265	ltpFR	9	n/a	n/a	n/a	n/a	n/a	n/a	20	9	7	4	n/a	n/a	n/a	n/a	n/a
2304.286	n/a	PROB	1152143	n/a	LTP265	ltpFR	9	n/a	n/a	n/a	n/a	n/a	n/a	7	3	1	3	n/a	n/a	n/a	n/a	n/a
2306.176	n/a	PROB	1153088	n/a	LTP265	ltpFR	9	n/a	n/a	n/a	n/a	n/a	n/a	13	9	3	1	n/a	n/a	n/a	n/a	n/a
2309.204	n/a	PROB	1154602	n/a	LTP265	ltpFR	9	n/a	n/a	n/a	n/a	n/a	n/a	21	6	8	7	n/a	n/a	n/a	n/a	n/a
2311.178	n/a	PROB	1155589	n/a	LTP265	ltpFR	9	n/a	n/a	n/a	n/a	n/a	n/a	19	9	9	1	n/a	n/a	n/a	n/a	n/a
2312.734	n/a	PROB	1156367	n/a	LTP265	ltpFR	9	n/a	n/a	n/a	n/a	n/a	n/a	13	5	6	2	n/a	n/a	n/a	n/a	n/a
2314.458	n/a	STOP	1157229	n/a	LTP265	ltpFR	9	n/a	n/a	n/a	n/a	n/a	n/a	n/a	n/a	n/a	n/a	n/a	n/a	n/a	n/a	n/a
2316.086	n/a	WORD	1158043	wordpools/wasnorm_wordpool_less_exclusions.txt	LTP265	ltpFR	9	8	0	CLARINET	317	n/a	n/a	n/a	0	0	0	1	0.412841796875	0.57763671875	lower	../fonts/amplitud.ttf
2319.132	n/a	SLOW_MSG	1159566	n/a	LTP265	ltpFR	9	8	n/a	n/a	n/a	n/a	n/a	n/a	0	0	0	n/a	n/a	n/a	n/a	n/a
2320.666	n/a	START	1160333	n/a	LTP265	ltpFR	9	n/a	n/a	n/a	n/a	n/a	n/a	n/a	n/a	n/a	n/a	n/a	n/a	n/a	n/a	n/a
2321.584	n/a	PROB	1160792	n/a	LTP265	ltpFR	9	n/a	n/a	n/a	n/a	n/a	n/a	21	8	4	9	n/a	n/a	n/a	n/a	n/a
2323.542	n/a	PROB	1161771	n/a	LTP265	ltpFR	9	n/a	n/a	n/a	n/a	n/a	n/a	18	7	5	6	n/a	n/a	n/a	n/a	n/a
2326.61	n/a	PROB	1163305	n/a	LTP265	ltpFR	9	n/a	n/a	n/a	n/a	n/a	n/a	18	6	6	6	n/a	n/a	n/a	n/a	n/a
2327.976	n/a	PROB	1163988	n/a	LTP265	ltpFR	9	n/a	n/a	n/a	n/a	n/a	n/a	15	9	3	3	n/a	n/a	n/a	n/a	n/a
2332.064	n/a	PROB	1166032	n/a	LTP265	ltpFR	9	n/a	n/a	n/a	n/a	n/a	n/a	10	4	4	2	n/a	n/a	n/a	n/a	n/a
2333.888	n/a	PROB	1166944	n/a	LTP265	ltpFR	9	n/a	n/a	n/a	n/a	n/a	n/a	14	1	9	4	n/a	n/a	n/a	n/a	n/a
2335.346	n/a	STOP	1167673	n/a	LTP265	ltpFR	9	n/a	n/a	n/a	n/a	n/a	n/a	n/a	n/a	n/a	n/a	n/a	n/a	n/a	n/a	n/a
2337.552	n/a	WORD	1168776	wordpools/wasnorm_wordpool_less_exclusions.txt	LTP265	ltpFR	9	8	0	PEDESTRIAN	1038	n/a	1	n/a	0	0	0	1	0.412841796875	0.57763671875	lower	../fonts/amplitud.ttf
2340.564	n/a	START	1170282	n/a	LTP265	ltpFR	9	n/a	n/a	n/a	n/a	n/a	n/a	n/a	n/a	n/a	n/a	n/a	n/a	n/a	n/a	n/a
2341.484	n/a	PROB	1170742	n/a	LTP265	ltpFR	9	n/a	n/a	n/a	n/a	n/a	n/a	14	3	5	6	n/a	n/a	n/a	n/a	n/a
2343.384	n/a	PROB	1171692	n/a	LTP265	ltpFR	9	n/a	n/a	n/a	n/a	n/a	n/a	18	4	9	5	n/a	n/a	n/a	n/a	n/a
2346.352	n/a	PROB	1173176	n/a	LTP265	ltpFR	9	n/a	n/a	n/a	n/a	n/a	n/a	20	2	9	9	n/a	n/a	n/a	n/a	n/a
2350.594	n/a	PROB	1175297	n/a	LTP265	ltpFR	9	n/a	n/a	n/a	n/a	n/a	n/a	18	6	9	3	n/a	n/a	n/a	n/a	n/a
2352.704	n/a	PROB	1176352	n/a	LTP265	ltpFR	9	n/a	n/a	n/a	n/a	n/a	n/a	17	1	9	7	n/a	n/a	n/a	n/a	n/a
2355.436	n/a	STOP	1177718	n/a	LTP265	ltpFR	9	n/a	n/a	n/a	n/a	n/a	n/a	n/a	n/a	n/a	n/a	n/a	n/a	n/a	n/a	n/a
2357.662	n/a	WORD	1178831	wordpools/wasnorm_wordpool_less_exclusions.txt	LTP265	ltpFR	9	8	0	CREATURE	403	n/a	1	n/a	0	0	0	1	0.412841796875	0.57763671875	lower	../fonts/amplitud.ttf
2360.676	n/a	START	1180338	n/a	LTP265	ltpFR	9	n/a	n/a	n/a	n/a	n/a	n/a	n/a	n/a	n/a	n/a	n/a	n/a	n/a	n/a	n/a
2361.654	n/a	PROB	1180827	n/a	LTP265	ltpFR	9	n/a	n/a	n/a	n/a	n/a	n/a	14	4	9	1	n/a	n/a	n/a	n/a	n/a
2363.512	n/a	PROB	1181756	n/a	LTP265	ltpFR	9	n/a	n/a	n/a	n/a	n/a	n/a	14	2	9	3	n/a	n/a	n/a	n/a	n/a
2365.576	n/a	PROB	1182788	n/a	LTP265	ltpFR	9	n/a	n/a	n/a	n/a	n/a	n/a	15	9	1	5	n/a	n/a	n/a	n/a	n/a
2367.198	n/a	PROB	1183599	n/a	LTP265	ltpFR	9	n/a	n/a	n/a	n/a	n/a	n/a	16	7	1	8	n/a	n/a	n/a	n/a	n/a
2369.77	n/a	PROB	1184885	n/a	LTP265	ltpFR	9	n/a	n/a	n/a	n/a	n/a	n/a	19	7	4	8	n/a	n/a	n/a	n/a	n/a
2372.312	n/a	PROB	1186156	n/a	LTP265	ltpFR	9	n/a	n/a	n/a	n/a	n/a	n/a	14	8	1	5	n/a	n/a	n/a	n/a	n/a
2374.638	n/a	PROB	1187319	n/a	LTP265	ltpFR	9	n/a	n/a	n/a	n/a	n/a	n/a	20	8	8	4	n/a	n/a	n/a	n/a	n/a
2376.502	n/a	STOP	1188251	n/a	LTP265	ltpFR	9	n/a	n/a	n/a	n/a	n/a	n/a	n/a	n/a	n/a	n/a	n/a	n/a	n/a	n/a	n/a
2377.582	n/a	WORD	1188791	wordpools/wasnorm_wordpool_less_exclusions.txt	LTP265	ltpFR	9	8	0	RECEPTIONIST	1174	n/a	1	n/a	0	0	0	1	0.412841796875	0.57763671875	lower	../fonts/amplitud.ttf
2380.6	n/a	START	1190300	n/a	LTP265	ltpFR	9	n/a	n/a	n/a	n/a	n/a	n/a	n/a	n/a	n/a	n/a	n/a	n/a	n/a	n/a	n/a
2381.756	n/a	PROB	1190878	n/a	LTP265	ltpFR	9	n/a	n/a	n/a	n/a	n/a	n/a	13	7	1	5	n/a	n/a	n/a	n/a	n/a
2383.488	n/a	PROB	1191744	n/a	LTP265	ltpFR	9	n/a	n/a	n/a	n/a	n/a	n/a	16	5	7	4	n/a	n/a	n/a	n/a	n/a
2385.126	n/a	PROB	1192563	n/a	LTP265	ltpFR	9	n/a	n/a	n/a	n/a	n/a	n/a	13	2	9	1	n/a	n/a	n/a	n/a	n/a
2386.75	n/a	PROB	1193375	n/a	LTP265	ltpFR	9	n/a	n/a	n/a	n/a	n/a	n/a	24	8	7	9	n/a	n/a	n/a	n/a	n/a
2389.248	n/a	PROB	1194624	n/a	LTP265	ltpFR	9	n/a	n/a	n/a	n/a	n/a	n/a	24	9	7	8	n/a	n/a	n/a	n/a	n/a
2391.752	n/a	PROB	1195876	n/a	LTP265	ltpFR	9	n/a	n/a	n/a	n/a	n/a	n/a	6	3	3	7	n/a	n/a	n/a	n/a	n/a
2393.292	n/a	PROB	1196646	n/a	LTP265	ltpFR	9	n/a	n/a	n/a	n/a	n/a	n/a	19	3	7	9	n/a	n/a	n/a	n/a	n/a
2395.928	n/a	STOP	1197964	n/a	LTP265	ltpFR	9	n/a	n/a	n/a	n/a	n/a	n/a	n/a	n/a	n/a	n/a	n/a	n/a	n/a	n/a	n/a
2398.428	n/a	REC_START	1199214	n/a	LTP265	ltpFR	9	8	n/a	n/a	n/a	n/a	n/a	n/a	0	0	0	n/a	n/a	n/a	n/a	n/a
2399.904	n/a	REC_WORD	1199952	wordpools/wasnorm_wordpool_less_exclusions.txt	LTP265	ltpFR	9	8	0	RECEPTIONIST	1174	n/a	1	n/a	0	0	0	n/a	n/a	n/a	n/a	n/a
2400.92	n/a	REC_WORD	1200460	wordpools/wasnorm_wordpool_less_exclusions.txt	LTP265	ltpFR	9	8	1	QUILT	1151	n/a	0	n/a	0	0	0	n/a	n/a	n/a	n/a	n/a
2406.222	n/a	REC_WORD	1203111	wordpools/wasnorm_wordpool_less_exclusions.txt	LTP265	ltpFR	9	8	0	ROBIN	1199	n/a	0	n/a	0	0	0	n/a	n/a	n/a	n/a	n/a
2410.26	n/a	REC_WORD	1205130	wordpools/wasnorm_wordpool_less_exclusions.txt	LTP265	ltpFR	9	8	1	ASSISTANT	48	n/a	1	n/a	0	0	0	n/a	n/a	n/a	n/a	n/a
2413.806	n/a	REC_WORD	1206903	wordpools/wasnorm_wordpool_less_exclusions.txt	LTP265	ltpFR	9	8	1	NOTE	958	n/a	0	n/a	0	0	0	n/a	n/a	n/a	n/a	n/a
2417.172	n/a	REC_WORD	1208586	wordpools/wasnorm_wordpool_less_exclusions.txt	LTP265	ltpFR	9	8	1	LETTER	813	n/a	0	n/a	0	0	0	n/a	n/a	n/a	n/a	n/a
2430.278	n/a	REC_WORD	1215139	wordpools/wasnorm_wordpool_less_exclusions.txt	LTP265	ltpFR	9	8	0	CLARINET	317	n/a	n/a	n/a	0	0	0	n/a	n/a	n/a	n/a	n/a
2435.568	n/a	REC_WORD	1217784	wordpools/wasnorm_wordpool_less_exclusions.txt	LTP265	ltpFR	9	8	0	TUBE	1516	n/a	0	n/a	0	0	0	n/a	n/a	n/a	n/a	n/a
2470.998	n/a	REC_WORD	1235499	wordpools/wasnorm_wordpool_less_exclusions.txt	LTP265	ltpFR	9	8	0	CREATURE	403	n/a	1	n/a	0	0	0	n/a	n/a	n/a	n/a	n/a
2501.964	n/a	WORD	1250982	wordpools/wasnorm_wordpool_less_exclusions.txt	LTP265	ltpFR	9	9	1	CYCLONE	431	n/a	0	n/a	0	0	0	0	0.5869140625	0.422607421875	upper	../fonts/zerothre.ttf
2505.896	n/a	WORD	1252948	wordpools/wasnorm_wordpool_less_exclusions.txt	LTP265	ltpFR	9	9	1	TWISTER	1530	n/a	0	n/a	0	0	0	0	0.5869140625	0.422607421875	upper	../fonts/zerothre.ttf
2509.828	n/a	WORD	1254914	wordpools/wasnorm_wordpool_less_exclusions.txt	LTP265	ltpFR	9	9	1	DRESS	495	n/a	0	n/a	0	0	0	0	0.5869140625	0.422607421875	upper	../fonts/zerothre.ttf
2513.82	n/a	WORD	1256910	wordpools/wasnorm_wordpool_less_exclusions.txt	LTP265	ltpFR	9	9	1	PRESIDENT	1121	n/a	1	n/a	0	0	0	0	0.5869140625	0.422607421875	upper	../fonts/zerothre.ttf
2517.656	n/a	WORD	1258828	wordpools/wasnorm_wordpool_less_exclusions.txt	LTP265	ltpFR	9	9	1	REGISTER	1180	n/a	0	n/a	0	0	0	0	0.5869140625	0.422607421875	upper	../fonts/zerothre.ttf
2521.824	n/a	WORD	1260912	wordpools/wasnorm_wordpool_less_exclusions.txt	LTP265	ltpFR	9	9	1	WASHCLOTH	1591	n/a	0	n/a	0	0	0	0	0.5869140625	0.422607421875	upper	../fonts/zerothre.ttf
2525.756	n/a	WORD	1262878	wordpools/wasnorm_wordpool_less_exclusions.txt	LTP265	ltpFR	9	9	1	TOURIST	1488	n/a	1	n/a	0	0	0	0	0.5869140625	0.422607421875	upper	../fonts/zerothre.ttf
2529.67	n/a	WORD	1264835	wordpools/wasnorm_wordpool_less_exclusions.txt	LTP265	ltpFR	9	9	1	BABY	64	n/a	1	n/a	0	0	0	0	0.5869140625	0.422607421875	upper	../fonts/zerothre.ttf
2533.668	n/a	WORD	1266834	wordpools/wasnorm_wordpool_less_exclusions.txt	LTP265	ltpFR	9	9	1	DINER	467	n/a	0	n/a	0	0	0	0	0.5869140625	0.422607421875	upper	../fonts/zerothre.ttf
2537.818	n/a	WORD	1268909	wordpools/wasnorm_wordpool_less_exclusions.txt	LTP265	ltpFR	9	9	1	VACUUM	1543	n/a	0	n/a	0	0	0	0	0.5869140625	0.422607421875	upper	../fonts/zerothre.ttf
2541.934	n/a	WORD	1270967	wordpools/wasnorm_wordpool_less_exclusions.txt	LTP265	ltpFR	9	9	1	VISITOR	1573	n/a	1	n/a	0	0	0	0	0.5869140625	0.422607421875	upper	../fonts/zerothre.ttf
2546.016	n/a	WORD	1273008	wordpools/wasnorm_wordpool_less_exclusions.txt	LTP265	ltpFR	9	9	1	DINNER	468	n/a	0	n/a	0	0	0	0	0.5869140625	0.422607421875	upper	../fonts/zerothre.ttf
2550.158	n/a	WORD	1275079	wordpools/wasnorm_wordpool_less_exclusions.txt	LTP265	ltpFR	9	9	1	FRECKLE	602	n/a	0	n/a	0	0	0	0	0.5869140625	0.422607421875	upper	../fonts/zerothre.ttf
2554.314	n/a	WORD	1277157	wordpools/wasnorm_wordpool_less_exclusions.txt	LTP265	ltpFR	9	9	1	HEAD	695	n/a	0	n/a	0	0	0	0	0.5869140625	0.422607421875	upper	../fonts/zerothre.ttf
2558.53	n/a	WORD	1279265	wordpools/wasnorm_wordpool_less_exclusions.txt	LTP265	ltpFR	9	9	1	CLIPPERS	324	n/a	0	n/a	0	0	0	0	0.5869140625	0.422607421875	upper	../fonts/zerothre.ttf
2562.494	n/a	WORD	1281247	wordpools/wasnorm_wordpool_less_exclusions.txt	LTP265	ltpFR	9	9	1	FUGITIVE	612	n/a	1	n/a	0	0	0	0	0.5869140625	0.422607421875	upper	../fonts/zerothre.ttf
2565.508	n/a	START	1282754	n/a	LTP265	ltpFR	9	n/a	n/a	n/a	n/a	n/a	n/a	n/a	n/a	n/a	n/a	n/a	n/a	n/a	n/a	n/a
2566.554	n/a	PROB	1283277	n/a	LTP265	ltpFR	9	n/a	n/a	n/a	n/a	n/a	n/a	13	3	6	4	n/a	n/a	n/a	n/a	n/a
2568.618	n/a	PROB	1284309	n/a	LTP265	ltpFR	9	n/a	n/a	n/a	n/a	n/a	n/a	14	3	8	3	n/a	n/a	n/a	n/a	n/a
2570.302	n/a	PROB	1285151	n/a	LTP265	ltpFR	9	n/a	n/a	n/a	n/a	n/a	n/a	15	9	4	2	n/a	n/a	n/a	n/a	n/a
2572.684	n/a	PROB	1286342	n/a	LTP265	ltpFR	9	n/a	n/a	n/a	n/a	n/a	n/a	14	1	4	9	n/a	n/a	n/a	n/a	n/a
2575.304	n/a	PROB	1287652	n/a	LTP265	ltpFR	9	n/a	n/a	n/a	n/a	n/a	n/a	14	2	9	3	n/a	n/a	n/a	n/a	n/a
2577.012	n/a	PROB	1288506	n/a	LTP265	ltpFR	9	n/a	n/a	n/a	n/a	n/a	n/a	9	6	2	1	n/a	n/a	n/a	n/a	n/a
2578.808	n/a	PROB	1289404	n/a	LTP265	ltpFR	9	n/a	n/a	n/a	n/a	n/a	n/a	23	8	8	7	n/a	n/a	n/a	n/a	n/a
2580.85	n/a	STOP	1290425	n/a	LTP265	ltpFR	9	n/a	n/a	n/a	n/a	n/a	n/a	n/a	n/a	n/a	n/a	n/a	n/a	n/a	n/a	n/a
2583.46	n/a	REC_START	1291730	n/a	LTP265	ltpFR	9	9	n/a	n/a	n/a	n/a	n/a	n/a	0	0	0	n/a	n/a	n/a	n/a	n/a
2584.356	n/a	REC_WORD	1292178	wordpools/wasnorm_wordpool_less_exclusions.txt	LTP265	ltpFR	9	9	1	FUGITIVE	612	n/a	1	n/a	0	0	0	n/a	n/a	n/a	n/a	n/a
2585.364	n/a	REC_WORD	1292682	wordpools/wasnorm_wordpool_less_exclusions.txt	LTP265	ltpFR	9	9	1	PRESIDENT	1121	n/a	1	n/a	0	0	0	n/a	n/a	n/a	n/a	n/a
2586.694	n/a	REC_WORD	1293347	wordpools/wasnorm_wordpool_less_exclusions.txt	LTP265	ltpFR	9	9	1	TOURIST	1488	n/a	1	n/a	0	0	0	n/a	n/a	n/a	n/a	n/a
2588.066	n/a	REC_WORD	1294033	wordpools/wasnorm_wordpool_less_exclusions.txt	LTP265	ltpFR	9	9	1	BABY	64	n/a	1	n/a	0	0	0	n/a	n/a	n/a	n/a	n/a
2589.14	n/a	REC_WORD	1294570	wordpools/wasnorm_wordpool_less_exclusions.txt	LTP265	ltpFR	9	9	1	DINER	467	n/a	0	n/a	0	0	0	n/a	n/a	n/a	n/a	n/a
2590.22	n/a	REC_WORD	1295110	wordpools/wasnorm_wordpool_less_exclusions.txt	LTP265	ltpFR	9	9	1	DINNER	468	n/a	0	n/a	0	0	0	n/a	n/a	n/a	n/a	n/a
2592.278	n/a	REC_WORD	1296139	wordpools/wasnorm_wordpool_less_exclusions.txt	LTP265	ltpFR	9	9	1	VISITOR	1573	n/a	1	n/a	0	0	0	n/a	n/a	n/a	n/a	n/a
2598.306	n/a	REC_WORD	1299153	wordpools/wasnorm_wordpool_less_exclusions.txt	LTP265	ltpFR	9	9	1	CYCLONE	431	n/a	0	n/a	0	0	0	n/a	n/a	n/a	n/a	n/a
2602.134	n/a	REC_WORD	1301067	wordpools/wasnorm_wordpool_less_exclusions.txt	LTP265	ltpFR	9	9	1	TWISTER	1530	n/a	0	n/a	0	0	0	n/a	n/a	n/a	n/a	n/a
2604.806	n/a	REC_WORD	1302403	wordpools/wasnorm_wordpool_less_exclusions.txt	LTP265	ltpFR	9	9	1	DRESS	495	n/a	0	n/a	0	0	0	n/a	n/a	n/a	n/a	n/a
2631.132	n/a	REC_WORD	1315566	wordpools/wasnorm_wordpool_less_exclusions.txt	LTP265	ltpFR	9	9	1	FRECKLE	602	n/a	0	n/a	0	0	0	n/a	n/a	n/a	n/a	n/a
2632.37	n/a	REC_WORD	1316185	wordpools/wasnorm_wordpool_less_exclusions.txt	LTP265	ltpFR	9	9	1	HEAD	695	n/a	0	n/a	0	0	0	n/a	n/a	n/a	n/a	n/a
2664.26	n/a	WORD	1332130	wordpools/wasnorm_wordpool_less_exclusions.txt	LTP265	ltpFR	9	10	0	BUCKLE	185	n/a	0	n/a	0	0	0	1	0.412841796875	0.57763671875	lower	../fonts/amplitud.ttf
2668.392	n/a	WORD	1334196	wordpools/wasnorm_wordpool_less_exclusions.txt	LTP265	ltpFR	9	10	0	COP	376	n/a	1	n/a	0	0	0	1	0.412841796875	0.57763671875	lower	../fonts/amplitud.ttf
2672.548	n/a	WORD	1336274	wordpools/wasnorm_wordpool_less_exclusions.txt	LTP265	ltpFR	9	10	0	THICKET	1455	n/a	1	n/a	0	0	0	1	0.412841796875	0.57763671875	lower	../fonts/amplitud.ttf
2676.43	n/a	WORD	1338215	wordpools/wasnorm_wordpool_less_exclusions.txt	LTP265	ltpFR	9	10	0	KITTEN	780	n/a	0	n/a	0	0	0	1	0.412841796875	0.57763671875	lower	../fonts/amplitud.ttf
2680.422	n/a	WORD	1340211	wordpools/wasnorm_wordpool_less_exclusions.txt	LTP265	ltpFR	9	10	0	ROUGE	1213	n/a	0	n/a	0	0	0	1	0.412841796875	0.57763671875	lower	../fonts/amplitud.ttf
2684.628	n/a	WORD	1342314	wordpools/wasnorm_wordpool_less_exclusions.txt	LTP265	ltpFR	9	10	0	VELVET	1555	n/a	0	n/a	0	0	0	1	0.412841796875	0.57763671875	lower	../fonts/amplitud.ttf
2688.778	n/a	WORD	1344389	wordpools/wasnorm_wordpool_less_exclusions.txt	LTP265	ltpFR	9	10	0	ANT	25	n/a	0	n/a	0	0	0	1	0.412841796875	0.57763671875	lower	../fonts/amplitud.ttf
2692.626	n/a	WORD	1346313	wordpools/wasnorm_wordpool_less_exclusions.txt	LTP265	ltpFR	9	10	0	BELT	120	n/a	0	n/a	0	0	0	1	0.412841796875	0.57763671875	lower	../fonts/amplitud.ttf
2696.602	n/a	WORD	1348301	wordpools/wasnorm_wordpool_less_exclusions.txt	LTP265	ltpFR	9	10	0	MOUSE	925	n/a	0	n/a	0	0	0	1	0.412841796875	0.57763671875	lower	../fonts/amplitud.ttf
2700.758	n/a	WORD	1350379	wordpools/wasnorm_wordpool_less_exclusions.txt	LTP265	ltpFR	9	10	0	ACORN	3	n/a	0	n/a	0	0	0	1	0.412841796875	0.57763671875	lower	../fonts/amplitud.ttf
2704.722	n/a	WORD	1352361	wordpools/wasnorm_wordpool_less_exclusions.txt	LTP265	ltpFR	9	10	0	STUMP	1396	n/a	0	n/a	0	0	0	1	0.412841796875	0.57763671875	lower	../fonts/amplitud.ttf
2708.602	n/a	WORD	1354301	wordpools/wasnorm_wordpool_less_exclusions.txt	LTP265	ltpFR	9	10	0	POLICE	1098	n/a	1	n/a	0	0	0	1	0.412841796875	0.57763671875	lower	../fonts/amplitud.ttf
2712.5	n/a	WORD	1356250	wordpools/wasnorm_wordpool_less_exclusions.txt	LTP265	ltpFR	9	10	0	FARM	552	n/a	1	n/a	0	0	0	1	0.412841796875	0.57763671875	lower	../fonts/amplitud.ttf
2716.434	n/a	WORD	1358217	wordpools/wasnorm_wordpool_less_exclusions.txt	LTP265	ltpFR	9	10	0	CRATER	400	n/a	1	n/a	0	0	0	1	0.412841796875	0.57763671875	lower	../fonts/amplitud.ttf
2720.56	n/a	WORD	1360280	wordpools/wasnorm_wordpool_less_exclusions.txt	LTP265	ltpFR	9	10	0	SPACE	1345	n/a	1	n/a	0	0	0	1	0.412841796875	0.57763671875	lower	../fonts/amplitud.ttf
2724.614	n/a	WORD	1362307	wordpools/wasnorm_wordpool_less_exclusions.txt	LTP265	ltpFR	9	10	0	KING	777	n/a	1	n/a	0	0	0	1	0.412841796875	0.57763671875	lower	../fonts/amplitud.ttf
2730.314	n/a	REC_START	1365157	n/a	LTP265	ltpFR	9	10	n/a	n/a	n/a	n/a	n/a	n/a	0	0	0	n/a	n/a	n/a	n/a	n/a
2731.656	n/a	REC_WORD	1365828	wordpools/wasnorm_wordpool_less_exclusions.txt	LTP265	ltpFR	9	10	0	KING	777	n/a	1	n/a	0	0	0	n/a	n/a	n/a	n/a	n/a
2732.554	n/a	REC_WORD	1366277	wordpools/wasnorm_wordpool_less_exclusions.txt	LTP265	ltpFR	9	10	0	SPACE	1345	n/a	1	n/a	0	0	0	n/a	n/a	n/a	n/a	n/a
2733.552	n/a	REC_WORD	1366776	wordpools/wasnorm_wordpool_less_exclusions.txt	LTP265	ltpFR	9	10	0	THICKET	1455	n/a	1	n/a	0	0	0	n/a	n/a	n/a	n/a	n/a
2734.778	n/a	REC_WORD	1367389	wordpools/wasnorm_wordpool_less_exclusions.txt	LTP265	ltpFR	9	10	0	KITTEN	780	n/a	0	n/a	0	0	0	n/a	n/a	n/a	n/a	n/a
2736.222	n/a	REC_WORD	1368111	wordpools/wasnorm_wordpool_less_exclusions.txt	LTP265	ltpFR	9	10	0	MOUSE	925	n/a	0	n/a	0	0	0	n/a	n/a	n/a	n/a	n/a
2737.286	n/a	REC_WORD	1368643	wordpools/wasnorm_wordpool_less_exclusions.txt	LTP265	ltpFR	9	10	0	COP	376	n/a	1	n/a	0	0	0	n/a	n/a	n/a	n/a	n/a
2738.092	n/a	REC_WORD	1369046	wordpools/wasnorm_wordpool_less_exclusions.txt	LTP265	ltpFR	9	10	0	POLICE	1098	n/a	1	n/a	0	0	0	n/a	n/a	n/a	n/a	n/a
2739.264	n/a	REC_WORD	1369632	wordpools/wasnorm_wordpool_less_exclusions.txt	LTP265	ltpFR	9	10	0	BELT	120	n/a	0	n/a	0	0	0	n/a	n/a	n/a	n/a	n/a
2740.152	n/a	REC_WORD	1370076	wordpools/wasnorm_wordpool_less_exclusions.txt	LTP265	ltpFR	9	10	0	BUCKLE	185	n/a	0	n/a	0	0	0	n/a	n/a	n/a	n/a	n/a
2747.114	n/a	REC_WORD	1373557	wordpools/wasnorm_wordpool_less_exclusions.txt	LTP265	ltpFR	9	10	0	VELVET	1555	n/a	0	n/a	0	0	0	n/a	n/a	n/a	n/a	n/a
2748.048	n/a	REC_WORD	1374024	wordpools/wasnorm_wordpool_less_exclusions.txt	LTP265	ltpFR	9	10	0	ANT	25	n/a	0	n/a	0	0	0	n/a	n/a	n/a	n/a	n/a
2748.92	n/a	REC_WORD	1374460	wordpools/wasnorm_wordpool_less_exclusions.txt	LTP265	ltpFR	9	10	0	ACORN	3	n/a	0	n/a	0	0	0	n/a	n/a	n/a	n/a	n/a
2769.392	n/a	REC_WORD	1384696	wordpools/wasnorm_wordpool_less_exclusions.txt	LTP265	ltpFR	9	10	0	CRATER	400	n/a	1	n/a	0	0	0	n/a	n/a	n/a	n/a	n/a
2771.08	n/a	REC_WORD	1385540	wordpools/wasnorm_wordpool_less_exclusions.txt	LTP265	ltpFR	9	10	0	STUMP	1396	n/a	0	n/a	0	0	0	n/a	n/a	n/a	n/a	n/a
2771.79	n/a	REC_WORD	1385895	wordpools/wasnorm_wordpool_less_exclusions.txt	LTP265	ltpFR	9	10	0	FARM	552	n/a	1	n/a	0	0	0	n/a	n/a	n/a	n/a	n/a
2805.96	n/a	REST_REWET	1402980	n/a	LTP265	ltpFR	9	10	n/a	n/a	n/a	n/a	n/a	n/a	0	0	0	n/a	n/a	n/a	n/a	n/a
3249.8	n/a	WORD	1624900	wordpools/wasnorm_wordpool_less_exclusions.txt	LTP265	ltpFR	9	11	1	SCRIBBLE	1256	n/a	0	n/a	0	0	0	0	0.5869140625	0.422607421875	upper	../fonts/zerothre.ttf
3253.754	n/a	WORD	1626877	wordpools/wasnorm_wordpool_less_exclusions.txt	LTP265	ltpFR	9	11	1	KETTLE	772	n/a	0	n/a	0	0	0	0	0.5869140625	0.422607421875	upper	../fonts/zerothre.ttf
3257.98	n/a	WORD	1628990	wordpools/wasnorm_wordpool_less_exclusions.txt	LTP265	ltpFR	9	11	1	POTATO	1115	n/a	1	n/a	0	0	0	0	0.5869140625	0.422607421875	upper	../fonts/zerothre.ttf
3262.07	n/a	WORD	1631035	wordpools/wasnorm_wordpool_less_exclusions.txt	LTP265	ltpFR	9	11	1	CROSS	413	n/a	0	n/a	0	0	0	0	0.5869140625	0.422607421875	upper	../fonts/zerothre.ttf
3265.95	n/a	WORD	1632975	wordpools/wasnorm_wordpool_less_exclusions.txt	LTP265	ltpFR	9	11	1	BAIT	70	n/a	0	n/a	0	0	0	0	0.5869140625	0.422607421875	upper	../fonts/zerothre.ttf
3269.86	n/a	WORD	1634930	wordpools/wasnorm_wordpool_less_exclusions.txt	LTP265	ltpFR	9	11	1	SHRIMP	1297	n/a	1	n/a	0	0	0	0	0.5869140625	0.422607421875	upper	../fonts/zerothre.ttf
3274.064	n/a	WORD	1637032	wordpools/wasnorm_wordpool_less_exclusions.txt	LTP265	ltpFR	9	11	1	PADDING	999	n/a	0	n/a	0	0	0	0	0.5869140625	0.422607421875	upper	../fonts/zerothre.ttf
3278.114	n/a	WORD	1639057	wordpools/wasnorm_wordpool_less_exclusions.txt	LTP265	ltpFR	9	11	1	BEETLE	116	n/a	1	n/a	0	0	0	0	0.5869140625	0.422607421875	upper	../fonts/zerothre.ttf
3282.138	n/a	WORD	1641069	wordpools/wasnorm_wordpool_less_exclusions.txt	LTP265	ltpFR	9	11	1	SAUCER	1237	n/a	0	n/a	0	0	0	0	0.5869140625	0.422607421875	upper	../fonts/zerothre.ttf
3286.16	n/a	WORD	1643080	wordpools/wasnorm_wordpool_less_exclusions.txt	LTP265	ltpFR	9	11	1	WHALE	1601	n/a	1	n/a	0	0	0	0	0.5869140625	0.422607421875	upper	../fonts/zerothre.ttf
3290.042	n/a	WORD	1645021	wordpools/wasnorm_wordpool_less_exclusions.txt	LTP265	ltpFR	9	11	1	SEA	1259	n/a	1	n/a	0	0	0	0	0.5869140625	0.422607421875	upper	../fonts/zerothre.ttf
3293.924	n/a	WORD	1646962	wordpools/wasnorm_wordpool_less_exclusions.txt	LTP265	ltpFR	9	11	1	COCKTAIL	338	n/a	0	n/a	0	0	0	0	0.5869140625	0.422607421875	upper	../fonts/zerothre.ttf
3297.8	n/a	WORD	1648900	wordpools/wasnorm_wordpool_less_exclusions.txt	LTP265	ltpFR	9	11	1	BLENDER	136	n/a	0	n/a	0	0	0	0	0.5869140625	0.422607421875	upper	../fonts/zerothre.ttf
3301.654	n/a	WORD	1650827	wordpools/wasnorm_wordpool_less_exclusions.txt	LTP265	ltpFR	9	11	1	BUTTERFLY	206	n/a	1	n/a	0	0	0	0	0.5869140625	0.422607421875	upper	../fonts/zerothre.ttf
3305.634	n/a	WORD	1652817	wordpools/wasnorm_wordpool_less_exclusions.txt	LTP265	ltpFR	9	11	1	LADDER	793	n/a	0	n/a	0	0	0	0	0.5869140625	0.422607421875	upper	../fonts/zerothre.ttf
3309.532	n/a	WORD	1654766	wordpools/wasnorm_wordpool_less_exclusions.txt	LTP265	ltpFR	9	11	1	SERPENT	1270	n/a	1	n/a	0	0	0	0	0.5869140625	0.422607421875	upper	../fonts/zerothre.ttf
3312.544	n/a	START	1656272	n/a	LTP265	ltpFR	9	n/a	n/a	n/a	n/a	n/a	n/a	n/a	n/a	n/a	n/a	n/a	n/a	n/a	n/a	n/a
3313.648	n/a	PROB	1656824	n/a	LTP265	ltpFR	9	n/a	n/a	n/a	n/a	n/a	n/a	9	5	2	2	n/a	n/a	n/a	n/a	n/a
3315.466	n/a	PROB	1657733	n/a	LTP265	ltpFR	9	n/a	n/a	n/a	n/a	n/a	n/a	8	3	3	2	n/a	n/a	n/a	n/a	n/a
3317.792	n/a	PROB	1658896	n/a	LTP265	ltpFR	9	n/a	n/a	n/a	n/a	n/a	n/a	23	9	7	9	n/a	n/a	n/a	n/a	n/a
3319.786	n/a	STOP	1659893	n/a	LTP265	ltpFR	9	n/a	n/a	n/a	n/a	n/a	n/a	n/a	n/a	n/a	n/a	n/a	n/a	n/a	n/a	n/a
3322.41	n/a	REC_START	1661205	n/a	LTP265	ltpFR	9	11	n/a	n/a	n/a	n/a	n/a	n/a	0	0	0	n/a	n/a	n/a	n/a	n/a
3323.758	n/a	REC_WORD	1661879	wordpools/wasnorm_wordpool_less_exclusions.txt	LTP265	ltpFR	9	11	1	SERPENT	1270	n/a	1	n/a	0	0	0	n/a	n/a	n/a	n/a	n/a
3325.346	n/a	REC_WORD	1662673	wordpools/wasnorm_wordpool_less_exclusions.txt	LTP265	ltpFR	9	11	1	WHALE	1601	n/a	1	n/a	0	0	0	n/a	n/a	n/a	n/a	n/a
3326.37	n/a	REC_WORD	1663185	wordpools/wasnorm_wordpool_less_exclusions.txt	LTP265	ltpFR	9	11	1	LADDER	793	n/a	0	n/a	0	0	0	n/a	n/a	n/a	n/a	n/a
3335.406	n/a	REC_WORD	1667703	wordpools/wasnorm_wordpool_less_exclusions.txt	LTP265	ltpFR	9	11	1	SEA	1259	n/a	1	n/a	0	0	0	n/a	n/a	n/a	n/a	n/a
3336.886	n/a	REC_WORD	1668443	wordpools/wasnorm_wordpool_less_exclusions.txt	LTP265	ltpFR	9	11	1	SHRIMP	1297	n/a	1	n/a	0	0	0	n/a	n/a	n/a	n/a	n/a
3338.774	n/a	REC_WORD	1669387	wordpools/wasnorm_wordpool_less_exclusions.txt	LTP265	ltpFR	9	11	1	BEETLE	116	n/a	1	n/a	0	0	0	n/a	n/a	n/a	n/a	n/a
3339.62	n/a	REC_WORD	1669810	wordpools/wasnorm_wordpool_less_exclusions.txt	LTP265	ltpFR	9	11	1	BUTTERFLY	206	n/a	1	n/a	0	0	0	n/a	n/a	n/a	n/a	n/a
3347.244	n/a	REC_WORD	1673622	wordpools/wasnorm_wordpool_less_exclusions.txt	LTP265	ltpFR	9	11	1	BAIT	70	n/a	0	n/a	0	0	0	n/a	n/a	n/a	n/a	n/a
3371.85	n/a	REC_WORD	1685925	wordpools/wasnorm_wordpool_less_exclusions.txt	LTP265	ltpFR	9	11	1	KETTLE	772	n/a	0	n/a	0	0	0	n/a	n/a	n/a	n/a	n/a
3374.516	n/a	REC_WORD	1687258	wordpools/wasnorm_wordpool_less_exclusions.txt	LTP265	ltpFR	9	11	1	COCKTAIL	338	n/a	0	n/a	0	0	0	n/a	n/a	n/a	n/a	n/a
