mstime	trial_type	stim_file	subject	experiment	session	trial	item_name	item_num	list	answer	test_x	test_y	test_z
0	SESS_START	n/a	LTP348	ltpFR2	6	n/a	n/a	n/a	n/a	n/a	0	0	0
15328	START	n/a	LTP348	ltpFR2	6	n/a	n/a	n/a	-1	n/a	n/a	n/a	n/a
15359	PROB	n/a	LTP348	ltpFR2	6	n/a	n/a	n/a	-1	18	5	5	8
17708	PROB	n/a	LTP348	ltpFR2	6	n/a	n/a	n/a	-1	13	5	4	4
21356	PROB	n/a	LTP348	ltpFR2	6	n/a	n/a	n/a	-1	12	5	6	1
27328	STOP	n/a	LTP348	ltpFR2	6	n/a	n/a	n/a	-1	n/a	n/a	n/a	n/a
58738	WORD	wordpools/wasnorm_wordpool_576.txt	LTP348	ltpFR2	6	1	COOKBOOK	373	n/a	n/a	0	0	0
61303	WORD	wordpools/wasnorm_wordpool_576.txt	LTP348	ltpFR2	6	1	CHEST	295	n/a	n/a	0	0	0
63818	WORD	wordpools/wasnorm_wordpool_576.txt	LTP348	ltpFR2	6	1	MOP	916	n/a	n/a	0	0	0
66333	WORD	wordpools/wasnorm_wordpool_576.txt	LTP348	ltpFR2	6	1	JELLY	755	n/a	n/a	0	0	0
69115	WORD	wordpools/wasnorm_wordpool_576.txt	LTP348	ltpFR2	6	1	ICING	732	n/a	n/a	0	0	0
71897	WORD	wordpools/wasnorm_wordpool_576.txt	LTP348	ltpFR2	6	1	BUCKET	184	n/a	n/a	0	0	0
74646	WORD	wordpools/wasnorm_wordpool_576.txt	LTP348	ltpFR2	6	1	SKIRT	1319	n/a	n/a	0	0	0
77211	WORD	wordpools/wasnorm_wordpool_576.txt	LTP348	ltpFR2	6	1	KNAPSACK	783	n/a	n/a	0	0	0
80010	WORD	wordpools/wasnorm_wordpool_576.txt	LTP348	ltpFR2	6	1	SUNRISE	1407	n/a	n/a	0	0	0
82459	WORD	wordpools/wasnorm_wordpool_576.txt	LTP348	ltpFR2	6	1	OYSTER	995	n/a	n/a	0	0	0
84924	WORD	wordpools/wasnorm_wordpool_576.txt	LTP348	ltpFR2	6	1	LAPEL	800	n/a	n/a	0	0	0
87739	WORD	wordpools/wasnorm_wordpool_576.txt	LTP348	ltpFR2	6	1	DANDRUFF	439	n/a	n/a	0	0	0
90288	WORD	wordpools/wasnorm_wordpool_576.txt	LTP348	ltpFR2	6	1	CHAPEL	280	n/a	n/a	0	0	0
92904	WORD	wordpools/wasnorm_wordpool_576.txt	LTP348	ltpFR2	6	1	BUTCHER	203	n/a	n/a	0	0	0
95569	WORD	wordpools/wasnorm_wordpool_576.txt	LTP348	ltpFR2	6	1	DINER	467	n/a	n/a	0	0	0
98351	WORD	wordpools/wasnorm_wordpool_576.txt	LTP348	ltpFR2	6	1	JURY	766	n/a	n/a	0	0	0
100866	WORD	wordpools/wasnorm_wordpool_576.txt	LTP348	ltpFR2	6	1	WITNESS	1618	n/a	n/a	0	0	0
103682	WORD	wordpools/wasnorm_wordpool_576.txt	LTP348	ltpFR2	6	1	BLENDER	136	n/a	n/a	0	0	0
106280	WORD	wordpools/wasnorm_wordpool_576.txt	LTP348	ltpFR2	6	1	SISTER	1312	n/a	n/a	0	0	0
109079	WORD	wordpools/wasnorm_wordpool_576.txt	LTP348	ltpFR2	6	1	PARTNER	1017	n/a	n/a	0	0	0
111578	WORD	wordpools/wasnorm_wordpool_576.txt	LTP348	ltpFR2	6	1	WARDROBE	1587	n/a	n/a	0	0	0
114276	WORD	wordpools/wasnorm_wordpool_576.txt	LTP348	ltpFR2	6	1	ANKLE	24	n/a	n/a	0	0	0
117058	WORD	wordpools/wasnorm_wordpool_576.txt	LTP348	ltpFR2	6	1	CRUTCH	417	n/a	n/a	0	0	0
119557	WORD	wordpools/wasnorm_wordpool_576.txt	LTP348	ltpFR2	6	1	SHORTS	1293	n/a	n/a	0	0	0
121173	START	n/a	LTP348	ltpFR2	6	n/a	n/a	n/a	1	n/a	n/a	n/a	n/a
122265	DISTRACTOR	n/a	LTP348	ltpFR2	6	1	n/a	n/a	n/a	n/a	0	0	0
122272	PROB	n/a	LTP348	ltpFR2	6	n/a	n/a	n/a	1	14	1	5	8
127037	PROB	n/a	LTP348	ltpFR2	6	n/a	n/a	n/a	1	18	3	6	9
129969	PROB	n/a	LTP348	ltpFR2	6	n/a	n/a	n/a	1	16	6	9	1
131768	PROB	n/a	LTP348	ltpFR2	6	n/a	n/a	n/a	1	13	7	4	2
135516	PROB	n/a	LTP348	ltpFR2	6	n/a	n/a	n/a	1	17	5	3	9
141446	PROB	n/a	LTP348	ltpFR2	6	n/a	n/a	n/a	1	25	9	8	8
144272	STOP	n/a	LTP348	ltpFR2	6	n/a	n/a	n/a	1	n/a	n/a	n/a	n/a
147111	REC_START	n/a	LTP348	ltpFR2	6	1	n/a	n/a	n/a	n/a	0	0	0
147558	REC_WORD	wordpools/wasnorm_wordpool_576.txt	LTP348	ltpFR2	6	1	COOKBOOK	373	n/a	n/a	0	0	0
148285	REC_WORD	wordpools/wasnorm_wordpool_576.txt	LTP348	ltpFR2	6	1	CHEST	295	n/a	n/a	0	0	0
148996	REC_WORD	wordpools/wasnorm_wordpool_576.txt	LTP348	ltpFR2	6	1	SISTER	1312	n/a	n/a	0	0	0
150723	REC_WORD	wordpools/wasnorm_wordpool_576.txt	LTP348	ltpFR2	6	1	BLENDER	136	n/a	n/a	0	0	0
153459	REC_WORD	wordpools/wasnorm_wordpool_576.txt	LTP348	ltpFR2	6	1	PRINCESS	1125	n/a	n/a	0	0	0
154142	REC_WORD	wordpools/wasnorm_wordpool_576.txt	LTP348	ltpFR2	6	1	SKIRT	1319	n/a	n/a	0	0	0
155384	REC_WORD	wordpools/wasnorm_wordpool_576.txt	LTP348	ltpFR2	6	1	WITNESS	1618	n/a	n/a	0	0	0
163302	REC_WORD	wordpools/wasnorm_wordpool_576.txt	LTP348	ltpFR2	6	1	POPCORN	1104	n/a	n/a	0	0	0
170611	REC_WORD	wordpools/wasnorm_wordpool_576.txt	LTP348	ltpFR2	6	1	SHIRT	1287	n/a	n/a	0	0	0
237548	DISTRACTOR	n/a	LTP348	ltpFR2	6	2	n/a	n/a	n/a	n/a	0	0	0
237549	START	n/a	LTP348	ltpFR2	6	n/a	n/a	n/a	2	n/a	n/a	n/a	n/a
237565	PROB	n/a	LTP348	ltpFR2	6	n/a	n/a	n/a	2	13	4	3	6
240280	PROB	n/a	LTP348	ltpFR2	6	n/a	n/a	n/a	2	12	1	8	4
243096	PROB	n/a	LTP348	ltpFR2	6	n/a	n/a	n/a	2	16	1	9	6
244778	PROB	n/a	LTP348	ltpFR2	6	n/a	n/a	n/a	2	19	7	3	9
246960	PROB	n/a	LTP348	ltpFR2	6	n/a	n/a	n/a	2	17	8	2	7
248959	PROB	n/a	LTP348	ltpFR2	6	n/a	n/a	n/a	2	16	7	3	6
251208	PROB	n/a	LTP348	ltpFR2	6	n/a	n/a	n/a	2	17	7	4	6
253024	PROB	n/a	LTP348	ltpFR2	6	n/a	n/a	n/a	2	17	5	5	7
254440	PROB	n/a	LTP348	ltpFR2	6	n/a	n/a	n/a	2	23	7	9	7
257072	PROB	n/a	LTP348	ltpFR2	6	n/a	n/a	n/a	2	13	6	3	4
261548	STOP	n/a	LTP348	ltpFR2	6	n/a	n/a	n/a	2	n/a	n/a	n/a	n/a
262553	WORD	wordpools/wasnorm_wordpool_576.txt	LTP348	ltpFR2	6	2	OFFICE	972	n/a	n/a	0	0	0
265201	WORD	wordpools/wasnorm_wordpool_576.txt	LTP348	ltpFR2	6	2	PEDAL	1037	n/a	n/a	0	0	0
267950	WORD	wordpools/wasnorm_wordpool_576.txt	LTP348	ltpFR2	6	2	BIKE	125	n/a	n/a	0	0	0
270399	WORD	wordpools/wasnorm_wordpool_576.txt	LTP348	ltpFR2	6	2	BATHTUB	100	n/a	n/a	0	0	0
273031	WORD	wordpools/wasnorm_wordpool_576.txt	LTP348	ltpFR2	6	2	DOLPHIN	483	n/a	n/a	0	0	0
275579	WORD	wordpools/wasnorm_wordpool_576.txt	LTP348	ltpFR2	6	2	ZEBRA	1635	n/a	n/a	0	0	0
278378	WORD	wordpools/wasnorm_wordpool_576.txt	LTP348	ltpFR2	6	2	RATTLE	1170	n/a	n/a	0	0	0
280910	WORD	wordpools/wasnorm_wordpool_576.txt	LTP348	ltpFR2	6	2	BEEF	113	n/a	n/a	0	0	0
283642	WORD	wordpools/wasnorm_wordpool_576.txt	LTP348	ltpFR2	6	2	INMATE	738	n/a	n/a	0	0	0
286374	WORD	wordpools/wasnorm_wordpool_576.txt	LTP348	ltpFR2	6	2	LEOPARD	812	n/a	n/a	0	0	0
289156	WORD	wordpools/wasnorm_wordpool_576.txt	LTP348	ltpFR2	6	2	WIDOW	1608	n/a	n/a	0	0	0
291838	WORD	wordpools/wasnorm_wordpool_576.txt	LTP348	ltpFR2	6	2	FOOTBALL	591	n/a	n/a	0	0	0
294403	WORD	wordpools/wasnorm_wordpool_576.txt	LTP348	ltpFR2	6	2	PERCH	1048	n/a	n/a	0	0	0
296902	WORD	wordpools/wasnorm_wordpool_576.txt	LTP348	ltpFR2	6	2	HOOK	715	n/a	n/a	0	0	0
299418	WORD	wordpools/wasnorm_wordpool_576.txt	LTP348	ltpFR2	6	2	CLIMBER	323	n/a	n/a	0	0	0
302016	WORD	wordpools/wasnorm_wordpool_576.txt	LTP348	ltpFR2	6	2	SUMMIT	1405	n/a	n/a	0	0	0
304565	WORD	wordpools/wasnorm_wordpool_576.txt	LTP348	ltpFR2	6	2	MARKET	871	n/a	n/a	0	0	0
307047	WORD	wordpools/wasnorm_wordpool_576.txt	LTP348	ltpFR2	6	2	PANTHER	1009	n/a	n/a	0	0	0
309696	WORD	wordpools/wasnorm_wordpool_576.txt	LTP348	ltpFR2	6	2	HUSBAND	728	n/a	n/a	0	0	0
312511	WORD	wordpools/wasnorm_wordpool_576.txt	LTP348	ltpFR2	6	2	WORKER	1621	n/a	n/a	0	0	0
315077	WORD	wordpools/wasnorm_wordpool_576.txt	LTP348	ltpFR2	6	2	PIGEON	1065	n/a	n/a	0	0	0
317509	WORD	wordpools/wasnorm_wordpool_576.txt	LTP348	ltpFR2	6	2	RUG	1215	n/a	n/a	0	0	0
320207	WORD	wordpools/wasnorm_wordpool_576.txt	LTP348	ltpFR2	6	2	PASTA	1021	n/a	n/a	0	0	0
322856	WORD	wordpools/wasnorm_wordpool_576.txt	LTP348	ltpFR2	6	2	LAKE	796	n/a	n/a	0	0	0
324472	START	n/a	LTP348	ltpFR2	6	n/a	n/a	n/a	3	n/a	n/a	n/a	n/a
325639	DISTRACTOR	n/a	LTP348	ltpFR2	6	2	n/a	n/a	n/a	n/a	0	0	0
325655	PROB	n/a	LTP348	ltpFR2	6	n/a	n/a	n/a	3	9	1	7	1
327437	PROB	n/a	LTP348	ltpFR2	6	n/a	n/a	n/a	3	25	9	7	9
333351	PROB	n/a	LTP348	ltpFR2	6	n/a	n/a	n/a	3	16	6	9	1
335300	PROB	n/a	LTP348	ltpFR2	6	n/a	n/a	n/a	3	18	5	9	4
338182	PROB	n/a	LTP348	ltpFR2	6	n/a	n/a	n/a	3	12	2	4	6
341280	PROB	n/a	LTP348	ltpFR2	6	n/a	n/a	n/a	3	7	3	2	2
343429	PROB	n/a	LTP348	ltpFR2	6	n/a	n/a	n/a	3	8	4	1	3
348471	STOP	n/a	LTP348	ltpFR2	6	n/a	n/a	n/a	3	n/a	n/a	n/a	n/a
350310	REC_START	n/a	LTP348	ltpFR2	6	2	n/a	n/a	n/a	n/a	0	0	0
350556	REC_WORD	wordpools/wasnorm_wordpool_576.txt	LTP348	ltpFR2	6	2	ROCK	1201	n/a	n/a	0	0	0
354408	REC_WORD	wordpools/wasnorm_wordpool_576.txt	LTP348	ltpFR2	6	2	SISTER	1312	n/a	n/a	0	0	0
360860	REC_WORD	wordpools/wasnorm_wordpool_576.txt	LTP348	ltpFR2	6	2	PASTA	1021	n/a	n/a	0	0	0
372299	REC_WORD_VV	wordpools/wasnorm_wordpool_576.txt	LTP348	ltpFR2	6	2	<>	-1	n/a	n/a	0	0	0
382259	REC_WORD	wordpools/wasnorm_wordpool_576.txt	LTP348	ltpFR2	6	2	PIGEON	1065	n/a	n/a	0	0	0
393471	REC_WORD	wordpools/wasnorm_wordpool_576.txt	LTP348	ltpFR2	6	2	PEDAL	1037	n/a	n/a	0	0	0
402199	REC_WORD	wordpools/wasnorm_wordpool_576.txt	LTP348	ltpFR2	6	2	LADLE	-1	n/a	n/a	0	0	0
424359	REC_WORD_VV	wordpools/wasnorm_wordpool_576.txt	LTP348	ltpFR2	6	2	<>	-1	n/a	n/a	0	0	0
440764	WORD	wordpools/wasnorm_wordpool_576.txt	LTP348	ltpFR2	6	3	SEAFOOD	1260	n/a	n/a	0	0	0
443563	WORD	wordpools/wasnorm_wordpool_576.txt	LTP348	ltpFR2	6	3	EXPERT	543	n/a	n/a	0	0	0
446028	WORD	wordpools/wasnorm_wordpool_576.txt	LTP348	ltpFR2	6	3	MILK	895	n/a	n/a	0	0	0
448827	WORD	wordpools/wasnorm_wordpool_576.txt	LTP348	ltpFR2	6	3	BRICK	172	n/a	n/a	0	0	0
451425	WORD	wordpools/wasnorm_wordpool_576.txt	LTP348	ltpFR2	6	3	NOMAD	955	n/a	n/a	0	0	0
454141	WORD	wordpools/wasnorm_wordpool_576.txt	LTP348	ltpFR2	6	3	WINDOW	1611	n/a	n/a	0	0	0
456839	WORD	wordpools/wasnorm_wordpool_576.txt	LTP348	ltpFR2	6	3	GLASS	639	n/a	n/a	0	0	0
459405	WORD	wordpools/wasnorm_wordpool_576.txt	LTP348	ltpFR2	6	3	FIREPLACE	570	n/a	n/a	0	0	0
461854	WORD	wordpools/wasnorm_wordpool_576.txt	LTP348	ltpFR2	6	3	TUTU	1524	n/a	n/a	0	0	0
464319	WORD	wordpools/wasnorm_wordpool_576.txt	LTP348	ltpFR2	6	3	PRINCESS	1125	n/a	n/a	0	0	0
466835	WORD	wordpools/wasnorm_wordpool_576.txt	LTP348	ltpFR2	6	3	GUARD	667	n/a	n/a	0	0	0
469333	WORD	wordpools/wasnorm_wordpool_576.txt	LTP348	ltpFR2	6	3	MUMMY	932	n/a	n/a	0	0	0
471932	WORD	wordpools/wasnorm_wordpool_576.txt	LTP348	ltpFR2	6	3	EGYPT	519	n/a	n/a	0	0	0
474714	WORD	wordpools/wasnorm_wordpool_576.txt	LTP348	ltpFR2	6	3	JOURNAL	760	n/a	n/a	0	0	0
477479	WORD	wordpools/wasnorm_wordpool_576.txt	LTP348	ltpFR2	6	3	HAMPER	682	n/a	n/a	0	0	0
480145	WORD	wordpools/wasnorm_wordpool_576.txt	LTP348	ltpFR2	6	3	ORANGE	980	n/a	n/a	0	0	0
482610	WORD	wordpools/wasnorm_wordpool_576.txt	LTP348	ltpFR2	6	3	BRIEFCASE	175	n/a	n/a	0	0	0
485059	WORD	wordpools/wasnorm_wordpool_576.txt	LTP348	ltpFR2	6	3	DANCER	437	n/a	n/a	0	0	0
487774	WORD	wordpools/wasnorm_wordpool_576.txt	LTP348	ltpFR2	6	3	PALACE	1006	n/a	n/a	0	0	0
490273	WORD	wordpools/wasnorm_wordpool_576.txt	LTP348	ltpFR2	6	3	KNIFE	785	n/a	n/a	0	0	0
493005	WORD	wordpools/wasnorm_wordpool_576.txt	LTP348	ltpFR2	6	3	KITCHEN	778	n/a	n/a	0	0	0
495637	WORD	wordpools/wasnorm_wordpool_576.txt	LTP348	ltpFR2	6	3	ARM	38	n/a	n/a	0	0	0
498419	WORD	wordpools/wasnorm_wordpool_576.txt	LTP348	ltpFR2	6	3	SCRIBBLE	1256	n/a	n/a	0	0	0
501101	WORD	wordpools/wasnorm_wordpool_576.txt	LTP348	ltpFR2	6	3	MISTER	901	n/a	n/a	0	0	0
502717	START	n/a	LTP348	ltpFR2	6	n/a	n/a	n/a	4	n/a	n/a	n/a	n/a
503657	DISTRACTOR	n/a	LTP348	ltpFR2	6	3	n/a	n/a	n/a	n/a	0	0	0
503666	PROB	n/a	LTP348	ltpFR2	6	n/a	n/a	n/a	4	11	7	2	2
507414	PROB	n/a	LTP348	ltpFR2	6	n/a	n/a	n/a	4	13	2	6	5
510979	PROB	n/a	LTP348	ltpFR2	6	n/a	n/a	n/a	4	17	7	6	4
514344	PROB	n/a	LTP348	ltpFR2	6	n/a	n/a	n/a	4	8	3	4	1
516793	PROB	n/a	LTP348	ltpFR2	6	n/a	n/a	n/a	4	11	1	8	2
518625	PROB	n/a	LTP348	ltpFR2	6	n/a	n/a	n/a	4	16	2	8	6
520558	PROB	n/a	LTP348	ltpFR2	6	n/a	n/a	n/a	4	20	6	8	6
523073	PROB	n/a	LTP348	ltpFR2	6	n/a	n/a	n/a	4	19	7	9	3
525392	STOP	n/a	LTP348	ltpFR2	6	n/a	n/a	n/a	4	n/a	n/a	n/a	n/a
528638	REC_START	n/a	LTP348	ltpFR2	6	3	n/a	n/a	n/a	n/a	0	0	0
529313	REC_WORD	wordpools/wasnorm_wordpool_576.txt	LTP348	ltpFR2	6	3	PRINCESS	1125	n/a	n/a	0	0	0
530298	REC_WORD	wordpools/wasnorm_wordpool_576.txt	LTP348	ltpFR2	6	3	KITCHEN	778	n/a	n/a	0	0	0
531107	REC_WORD	wordpools/wasnorm_wordpool_576.txt	LTP348	ltpFR2	6	3	SEAFOOD	1260	n/a	n/a	0	0	0
533686	REC_WORD	wordpools/wasnorm_wordpool_576.txt	LTP348	ltpFR2	6	3	MUMMY	932	n/a	n/a	0	0	0
569048	REC_WORD	wordpools/wasnorm_wordpool_576.txt	LTP348	ltpFR2	6	3	ACTOR	5	n/a	n/a	0	0	0
570591	REC_WORD	wordpools/wasnorm_wordpool_576.txt	LTP348	ltpFR2	6	3	ACTRESS	6	n/a	n/a	0	0	0
571532	REC_WORD	wordpools/wasnorm_wordpool_576.txt	LTP348	ltpFR2	6	3	WAITER	1580	n/a	n/a	0	0	0
572121	REC_WORD	wordpools/wasnorm_wordpool_576.txt	LTP348	ltpFR2	6	3	SERVER	1272	n/a	n/a	0	0	0
619092	WORD	wordpools/wasnorm_wordpool_576.txt	LTP348	ltpFR2	6	4	DENTIST	447	n/a	n/a	0	0	0
621641	WORD	wordpools/wasnorm_wordpool_576.txt	LTP348	ltpFR2	6	4	FLASHLIGHT	575	n/a	n/a	0	0	0
624406	WORD	wordpools/wasnorm_wordpool_576.txt	LTP348	ltpFR2	6	4	GRIZZLY	662	n/a	n/a	0	0	0
627105	WORD	wordpools/wasnorm_wordpool_576.txt	LTP348	ltpFR2	6	4	STUDENT	1395	n/a	n/a	0	0	0
629570	WORD	wordpools/wasnorm_wordpool_576.txt	LTP348	ltpFR2	6	4	PUPIL	1143	n/a	n/a	0	0	0
632202	WORD	wordpools/wasnorm_wordpool_576.txt	LTP348	ltpFR2	6	4	POLICE	1098	n/a	n/a	0	0	0
634835	WORD	wordpools/wasnorm_wordpool_576.txt	LTP348	ltpFR2	6	4	TRANSPLANT	1496	n/a	n/a	0	0	0
637550	WORD	wordpools/wasnorm_wordpool_576.txt	LTP348	ltpFR2	6	4	LETTUCE	814	n/a	n/a	0	0	0
640198	WORD	wordpools/wasnorm_wordpool_576.txt	LTP348	ltpFR2	6	4	AIRPLANE	12	n/a	n/a	0	0	0
642814	WORD	wordpools/wasnorm_wordpool_576.txt	LTP348	ltpFR2	6	4	BRANCH	168	n/a	n/a	0	0	0
645563	WORD	wordpools/wasnorm_wordpool_576.txt	LTP348	ltpFR2	6	4	BARREL	91	n/a	n/a	0	0	0
648244	WORD	wordpools/wasnorm_wordpool_576.txt	LTP348	ltpFR2	6	4	LASER	801	n/a	n/a	0	0	0
650727	WORD	wordpools/wasnorm_wordpool_576.txt	LTP348	ltpFR2	6	4	MATCH	878	n/a	n/a	0	0	0
653475	WORD	wordpools/wasnorm_wordpool_576.txt	LTP348	ltpFR2	6	4	VIRUS	1572	n/a	n/a	0	0	0
655941	WORD	wordpools/wasnorm_wordpool_576.txt	LTP348	ltpFR2	6	4	FOREST	593	n/a	n/a	0	0	0
658739	WORD	wordpools/wasnorm_wordpool_576.txt	LTP348	ltpFR2	6	4	CHAMPAGNE	278	n/a	n/a	0	0	0
661271	WORD	wordpools/wasnorm_wordpool_576.txt	LTP348	ltpFR2	6	4	DRILL	497	n/a	n/a	0	0	0
664037	WORD	wordpools/wasnorm_wordpool_576.txt	LTP348	ltpFR2	6	4	LAVA	804	n/a	n/a	0	0	0
666552	WORD	wordpools/wasnorm_wordpool_576.txt	LTP348	ltpFR2	6	4	BUG	187	n/a	n/a	0	0	0
669001	WORD	wordpools/wasnorm_wordpool_576.txt	LTP348	ltpFR2	6	4	COCOON	339	n/a	n/a	0	0	0
671699	WORD	wordpools/wasnorm_wordpool_576.txt	LTP348	ltpFR2	6	4	FOREHEAD	592	n/a	n/a	0	0	0
674132	WORD	wordpools/wasnorm_wordpool_576.txt	LTP348	ltpFR2	6	4	SERVANT	1271	n/a	n/a	0	0	0
676780	WORD	wordpools/wasnorm_wordpool_576.txt	LTP348	ltpFR2	6	4	GHETTO	633	n/a	n/a	0	0	0
679479	WORD	wordpools/wasnorm_wordpool_576.txt	LTP348	ltpFR2	6	4	CONCERT	360	n/a	n/a	0	0	0
681095	START	n/a	LTP348	ltpFR2	6	n/a	n/a	n/a	5	n/a	n/a	n/a	n/a
681938	DISTRACTOR	n/a	LTP348	ltpFR2	6	4	n/a	n/a	n/a	n/a	0	0	0
681944	PROB	n/a	LTP348	ltpFR2	6	n/a	n/a	n/a	5	13	3	4	6
684160	PROB	n/a	LTP348	ltpFR2	6	n/a	n/a	n/a	5	7	2	2	3
687125	PROB	n/a	LTP348	ltpFR2	6	n/a	n/a	n/a	5	17	4	7	6
689807	PROB	n/a	LTP348	ltpFR2	6	n/a	n/a	n/a	5	15	4	3	8
696670	PROB	n/a	LTP348	ltpFR2	6	n/a	n/a	n/a	5	19	9	7	3
705095	STOP	n/a	LTP348	ltpFR2	6	n/a	n/a	n/a	5	n/a	n/a	n/a	n/a
706999	REC_START	n/a	LTP348	ltpFR2	6	4	n/a	n/a	n/a	n/a	0	0	0
707493	REC_WORD	wordpools/wasnorm_wordpool_576.txt	LTP348	ltpFR2	6	4	GRIZZLY	662	n/a	n/a	0	0	0
708650	REC_WORD	wordpools/wasnorm_wordpool_576.txt	LTP348	ltpFR2	6	4	BUG	187	n/a	n/a	0	0	0
709363	REC_WORD	wordpools/wasnorm_wordpool_576.txt	LTP348	ltpFR2	6	4	FLASHLIGHT	575	n/a	n/a	0	0	0
711625	REC_WORD	wordpools/wasnorm_wordpool_576.txt	LTP348	ltpFR2	6	4	CONCERT	360	n/a	n/a	0	0	0
716172	REC_WORD	wordpools/wasnorm_wordpool_576.txt	LTP348	ltpFR2	6	4	GHETTO	633	n/a	n/a	0	0	0
720227	REC_WORD	wordpools/wasnorm_wordpool_576.txt	LTP348	ltpFR2	6	4	SERVANT	1271	n/a	n/a	0	0	0
797454	WORD	wordpools/wasnorm_wordpool_576.txt	LTP348	ltpFR2	6	5	CANYON	235	n/a	n/a	0	0	0
800152	WORD	wordpools/wasnorm_wordpool_576.txt	LTP348	ltpFR2	6	5	HIKER	708	n/a	n/a	0	0	0
802801	WORD	wordpools/wasnorm_wordpool_576.txt	LTP348	ltpFR2	6	5	SWIMMER	1420	n/a	n/a	0	0	0
805383	WORD	wordpools/wasnorm_wordpool_576.txt	LTP348	ltpFR2	6	5	JEANS	752	n/a	n/a	0	0	0
808082	WORD	wordpools/wasnorm_wordpool_576.txt	LTP348	ltpFR2	6	5	WAITRESS	1581	n/a	n/a	0	0	0
810514	WORD	wordpools/wasnorm_wordpool_576.txt	LTP348	ltpFR2	6	5	PLAZA	1088	n/a	n/a	0	0	0
813013	WORD	wordpools/wasnorm_wordpool_576.txt	LTP348	ltpFR2	6	5	DENIM	446	n/a	n/a	0	0	0
815828	WORD	wordpools/wasnorm_wordpool_576.txt	LTP348	ltpFR2	6	5	EMPIRE	530	n/a	n/a	0	0	0
818327	WORD	wordpools/wasnorm_wordpool_576.txt	LTP348	ltpFR2	6	5	GOBLIN	645	n/a	n/a	0	0	0
820942	WORD	wordpools/wasnorm_wordpool_576.txt	LTP348	ltpFR2	6	5	CREATURE	403	n/a	n/a	0	0	0
823557	WORD	wordpools/wasnorm_wordpool_576.txt	LTP348	ltpFR2	6	5	CROWN	415	n/a	n/a	0	0	0
826173	WORD	wordpools/wasnorm_wordpool_576.txt	LTP348	ltpFR2	6	5	JUNGLE	764	n/a	n/a	0	0	0
828855	WORD	wordpools/wasnorm_wordpool_576.txt	LTP348	ltpFR2	6	5	MAMMAL	861	n/a	n/a	0	0	0
831337	WORD	wordpools/wasnorm_wordpool_576.txt	LTP348	ltpFR2	6	5	PARENT	1013	n/a	n/a	0	0	0
834085	WORD	wordpools/wasnorm_wordpool_576.txt	LTP348	ltpFR2	6	5	BREAST	171	n/a	n/a	0	0	0
836701	WORD	wordpools/wasnorm_wordpool_576.txt	LTP348	ltpFR2	6	5	MAILBOX	857	n/a	n/a	0	0	0
839450	WORD	wordpools/wasnorm_wordpool_576.txt	LTP348	ltpFR2	6	5	OX	994	n/a	n/a	0	0	0
842048	WORD	wordpools/wasnorm_wordpool_576.txt	LTP348	ltpFR2	6	5	FRIAR	605	n/a	n/a	0	0	0
844830	WORD	wordpools/wasnorm_wordpool_576.txt	LTP348	ltpFR2	6	5	TREAT	1501	n/a	n/a	0	0	0
847396	WORD	wordpools/wasnorm_wordpool_576.txt	LTP348	ltpFR2	6	5	SAUSAGE	1238	n/a	n/a	0	0	0
850178	WORD	wordpools/wasnorm_wordpool_576.txt	LTP348	ltpFR2	6	5	YARN	1631	n/a	n/a	0	0	0
852776	WORD	wordpools/wasnorm_wordpool_576.txt	LTP348	ltpFR2	6	5	PUPPY	1144	n/a	n/a	0	0	0
855542	WORD	wordpools/wasnorm_wordpool_576.txt	LTP348	ltpFR2	6	5	HERO	706	n/a	n/a	0	0	0
858290	WORD	wordpools/wasnorm_wordpool_576.txt	LTP348	ltpFR2	6	5	IDOL	733	n/a	n/a	0	0	0
859906	START	n/a	LTP348	ltpFR2	6	n/a	n/a	n/a	6	n/a	n/a	n/a	n/a
860944	DISTRACTOR	n/a	LTP348	ltpFR2	6	5	n/a	n/a	n/a	n/a	0	0	0
860955	PROB	n/a	LTP348	ltpFR2	6	n/a	n/a	n/a	6	16	7	7	2
862988	PROB	n/a	LTP348	ltpFR2	6	n/a	n/a	n/a	6	14	3	5	6
871434	PROB	n/a	LTP348	ltpFR2	6	n/a	n/a	n/a	6	17	6	3	8
876831	PROB	n/a	LTP348	ltpFR2	6	n/a	n/a	n/a	6	25	9	9	7
883906	STOP	n/a	LTP348	ltpFR2	6	n/a	n/a	n/a	6	n/a	n/a	n/a	n/a
885845	REC_START	n/a	LTP348	ltpFR2	6	5	n/a	n/a	n/a	n/a	0	0	0
886291	REC_WORD	wordpools/wasnorm_wordpool_576.txt	LTP348	ltpFR2	6	5	YARN	1631	n/a	n/a	0	0	0
887172	REC_WORD	wordpools/wasnorm_wordpool_576.txt	LTP348	ltpFR2	6	5	HIKER	708	n/a	n/a	0	0	0
888857	REC_WORD	wordpools/wasnorm_wordpool_576.txt	LTP348	ltpFR2	6	5	ACTRESS	6	n/a	n/a	0	0	0
889857	REC_WORD_VV	wordpools/wasnorm_wordpool_576.txt	LTP348	ltpFR2	6	5	<>	-1	n/a	n/a	0	0	0
890737	REC_WORD	wordpools/wasnorm_wordpool_576.txt	LTP348	ltpFR2	6	5	WAITRESS	1581	n/a	n/a	0	0	0
900056	REC_WORD	wordpools/wasnorm_wordpool_576.txt	LTP348	ltpFR2	6	5	IDOL	733	n/a	n/a	0	0	0
903816	REC_WORD	wordpools/wasnorm_wordpool_576.txt	LTP348	ltpFR2	6	5	TREAT	1501	n/a	n/a	0	0	0
909705	REC_WORD	wordpools/wasnorm_wordpool_576.txt	LTP348	ltpFR2	6	5	SAUSAGE	1238	n/a	n/a	0	0	0
949292	REC_WORD	wordpools/wasnorm_wordpool_576.txt	LTP348	ltpFR2	6	5	CHAIR	274	n/a	n/a	0	0	0
976298	WORD	wordpools/wasnorm_wordpool_576.txt	LTP348	ltpFR2	6	6	PRINCE	1124	n/a	n/a	0	0	0
978914	WORD	wordpools/wasnorm_wordpool_576.txt	LTP348	ltpFR2	6	6	OMELET	976	n/a	n/a	0	0	0
981396	WORD	wordpools/wasnorm_wordpool_576.txt	LTP348	ltpFR2	6	6	FRAME	600	n/a	n/a	0	0	0
983994	WORD	wordpools/wasnorm_wordpool_576.txt	LTP348	ltpFR2	6	6	STICKER	1382	n/a	n/a	0	0	0
986710	WORD	wordpools/wasnorm_wordpool_576.txt	LTP348	ltpFR2	6	6	TROMBONE	1508	n/a	n/a	0	0	0
989425	WORD	wordpools/wasnorm_wordpool_576.txt	LTP348	ltpFR2	6	6	FLAG	573	n/a	n/a	0	0	0
992090	WORD	wordpools/wasnorm_wordpool_576.txt	LTP348	ltpFR2	6	6	SKETCH	1315	n/a	n/a	0	0	0
994706	WORD	wordpools/wasnorm_wordpool_576.txt	LTP348	ltpFR2	6	6	PLUTO	1092	n/a	n/a	0	0	0
997504	WORD	wordpools/wasnorm_wordpool_576.txt	LTP348	ltpFR2	6	6	RIFLE	1192	n/a	n/a	0	0	0
1000286	WORD	wordpools/wasnorm_wordpool_576.txt	LTP348	ltpFR2	6	6	MOTEL	919	n/a	n/a	0	0	0
1002852	WORD	wordpools/wasnorm_wordpool_576.txt	LTP348	ltpFR2	6	6	BEAKER	104	n/a	n/a	0	0	0
1005650	WORD	wordpools/wasnorm_wordpool_576.txt	LTP348	ltpFR2	6	6	OZONE	996	n/a	n/a	0	0	0
1008349	WORD	wordpools/wasnorm_wordpool_576.txt	LTP348	ltpFR2	6	6	SWITCH	1422	n/a	n/a	0	0	0
1010914	WORD	wordpools/wasnorm_wordpool_576.txt	LTP348	ltpFR2	6	6	LAMP	798	n/a	n/a	0	0	0
1013447	WORD	wordpools/wasnorm_wordpool_576.txt	LTP348	ltpFR2	6	6	CHEMIST	292	n/a	n/a	0	0	0
1016145	WORD	wordpools/wasnorm_wordpool_576.txt	LTP348	ltpFR2	6	6	VIKING	1565	n/a	n/a	0	0	0
1018844	WORD	wordpools/wasnorm_wordpool_576.txt	LTP348	ltpFR2	6	6	PISTON	1076	n/a	n/a	0	0	0
1021609	WORD	wordpools/wasnorm_wordpool_576.txt	LTP348	ltpFR2	6	6	TAXI	1438	n/a	n/a	0	0	0
1024341	WORD	wordpools/wasnorm_wordpool_576.txt	LTP348	ltpFR2	6	6	MONEY	908	n/a	n/a	0	0	0
1026973	WORD	wordpools/wasnorm_wordpool_576.txt	LTP348	ltpFR2	6	6	TOURIST	1488	n/a	n/a	0	0	0
1029472	WORD	wordpools/wasnorm_wordpool_576.txt	LTP348	ltpFR2	6	6	RABBIT	1152	n/a	n/a	0	0	0
1032237	WORD	wordpools/wasnorm_wordpool_576.txt	LTP348	ltpFR2	6	6	PUDDING	1139	n/a	n/a	0	0	0
1034752	WORD	wordpools/wasnorm_wordpool_576.txt	LTP348	ltpFR2	6	6	COOK	372	n/a	n/a	0	0	0
1037201	WORD	wordpools/wasnorm_wordpool_576.txt	LTP348	ltpFR2	6	6	HAWK	692	n/a	n/a	0	0	0
1038817	START	n/a	LTP348	ltpFR2	6	n/a	n/a	n/a	7	n/a	n/a	n/a	n/a
1039946	DISTRACTOR	n/a	LTP348	ltpFR2	6	6	n/a	n/a	n/a	n/a	0	0	0
1039950	PROB	n/a	LTP348	ltpFR2	6	n/a	n/a	n/a	7	18	8	6	4
1041866	PROB	n/a	LTP348	ltpFR2	6	n/a	n/a	n/a	7	12	7	3	2
1043981	PROB	n/a	LTP348	ltpFR2	6	n/a	n/a	n/a	7	17	5	7	5
1046380	PROB	n/a	LTP348	ltpFR2	6	n/a	n/a	n/a	7	15	6	2	7
1049379	PROB	n/a	LTP348	ltpFR2	6	n/a	n/a	n/a	7	18	1	8	9
1051844	PROB	n/a	LTP348	ltpFR2	6	n/a	n/a	n/a	7	6	1	1	4
1053710	PROB	n/a	LTP348	ltpFR2	6	n/a	n/a	n/a	7	19	1	9	9
1055859	PROB	n/a	LTP348	ltpFR2	6	n/a	n/a	n/a	7	20	6	8	6
1058008	PROB	n/a	LTP348	ltpFR2	6	n/a	n/a	n/a	7	20	9	9	2
1060240	PROB	n/a	LTP348	ltpFR2	6	n/a	n/a	n/a	7	14	4	5	5
1061936	STOP	n/a	LTP348	ltpFR2	6	n/a	n/a	n/a	7	n/a	n/a	n/a	n/a
1064622	REC_START	n/a	LTP348	ltpFR2	6	6	n/a	n/a	n/a	n/a	0	0	0
1065030	REC_WORD	wordpools/wasnorm_wordpool_576.txt	LTP348	ltpFR2	6	6	COOK	372	n/a	n/a	0	0	0
1065719	REC_WORD	wordpools/wasnorm_wordpool_576.txt	LTP348	ltpFR2	6	6	PISTON	1076	n/a	n/a	0	0	0
1066452	REC_WORD	wordpools/wasnorm_wordpool_576.txt	LTP348	ltpFR2	6	6	RIFLE	1192	n/a	n/a	0	0	0
1067504	REC_WORD	wordpools/wasnorm_wordpool_576.txt	LTP348	ltpFR2	6	6	PRINCE	1124	n/a	n/a	0	0	0
1070671	REC_WORD	wordpools/wasnorm_wordpool_576.txt	LTP348	ltpFR2	6	6	OMELET	976	n/a	n/a	0	0	0
1081328	REC_WORD	wordpools/wasnorm_wordpool_576.txt	LTP348	ltpFR2	6	6	DIVER	476	n/a	n/a	0	0	0
1113552	REC_WORD	wordpools/wasnorm_wordpool_576.txt	LTP348	ltpFR2	6	6	LAGOON	795	n/a	n/a	0	0	0
1138122	REC_WORD	wordpools/wasnorm_wordpool_576.txt	LTP348	ltpFR2	6	6	TROMBONE	1508	n/a	n/a	0	0	0
1155059	DISTRACTOR	n/a	LTP348	ltpFR2	6	7	n/a	n/a	n/a	n/a	0	0	0
1155060	START	n/a	LTP348	ltpFR2	6	n/a	n/a	n/a	8	n/a	n/a	n/a	n/a
1155076	PROB	n/a	LTP348	ltpFR2	6	n/a	n/a	n/a	8	17	7	5	5
1156775	PROB	n/a	LTP348	ltpFR2	6	n/a	n/a	n/a	8	14	3	6	5
1159757	PROB	n/a	LTP348	ltpFR2	6	n/a	n/a	n/a	8	18	7	4	7
1162439	PROB	n/a	LTP348	ltpFR2	6	n/a	n/a	n/a	8	16	8	4	4
1164471	PROB	n/a	LTP348	ltpFR2	6	n/a	n/a	n/a	8	13	2	7	4
1166587	PROB	n/a	LTP348	ltpFR2	6	n/a	n/a	n/a	8	15	6	5	4
1170918	PROB	n/a	LTP348	ltpFR2	6	n/a	n/a	n/a	8	11	4	3	4
1174317	PROB	n/a	LTP348	ltpFR2	6	n/a	n/a	n/a	8	14	4	8	2
1179060	STOP	n/a	LTP348	ltpFR2	6	n/a	n/a	n/a	8	n/a	n/a	n/a	n/a
1179947	WORD	wordpools/wasnorm_wordpool_576.txt	LTP348	ltpFR2	6	7	SUSPECT	1415	n/a	n/a	0	0	0
1182413	WORD	wordpools/wasnorm_wordpool_576.txt	LTP348	ltpFR2	6	7	SCALPEL	1243	n/a	n/a	0	0	0
1185028	WORD	wordpools/wasnorm_wordpool_576.txt	LTP348	ltpFR2	6	7	COUNTY	389	n/a	n/a	0	0	0
1187477	WORD	wordpools/wasnorm_wordpool_576.txt	LTP348	ltpFR2	6	7	YOLK	1633	n/a	n/a	0	0	0
1189909	WORD	wordpools/wasnorm_wordpool_576.txt	LTP348	ltpFR2	6	7	ROOSTER	1209	n/a	n/a	0	0	0
1192408	WORD	wordpools/wasnorm_wordpool_576.txt	LTP348	ltpFR2	6	7	ATOM	55	n/a	n/a	0	0	0
1195040	WORD	wordpools/wasnorm_wordpool_576.txt	LTP348	ltpFR2	6	7	BRANDY	169	n/a	n/a	0	0	0
1197688	WORD	wordpools/wasnorm_wordpool_576.txt	LTP348	ltpFR2	6	7	WAITER	1580	n/a	n/a	0	0	0
1200504	WORD	wordpools/wasnorm_wordpool_576.txt	LTP348	ltpFR2	6	7	LIVER	833	n/a	n/a	0	0	0
1202969	WORD	wordpools/wasnorm_wordpool_576.txt	LTP348	ltpFR2	6	7	KIDNEY	776	n/a	n/a	0	0	0
1205501	WORD	wordpools/wasnorm_wordpool_576.txt	LTP348	ltpFR2	6	7	BOUQUET	157	n/a	n/a	0	0	0
1208000	WORD	wordpools/wasnorm_wordpool_576.txt	LTP348	ltpFR2	6	7	BLOUSE	139	n/a	n/a	0	0	0
1210715	WORD	wordpools/wasnorm_wordpool_576.txt	LTP348	ltpFR2	6	7	HOOD	714	n/a	n/a	0	0	0
1213397	WORD	wordpools/wasnorm_wordpool_576.txt	LTP348	ltpFR2	6	7	SUBWAY	1400	n/a	n/a	0	0	0
1216063	WORD	wordpools/wasnorm_wordpool_576.txt	LTP348	ltpFR2	6	7	DAISY	435	n/a	n/a	0	0	0
1218611	WORD	wordpools/wasnorm_wordpool_576.txt	LTP348	ltpFR2	6	7	VICTIM	1562	n/a	n/a	0	0	0
1221243	WORD	wordpools/wasnorm_wordpool_576.txt	LTP348	ltpFR2	6	7	SALAD	1224	n/a	n/a	0	0	0
1223725	WORD	wordpools/wasnorm_wordpool_576.txt	LTP348	ltpFR2	6	7	LEADER	807	n/a	n/a	0	0	0
1226491	WORD	wordpools/wasnorm_wordpool_576.txt	LTP348	ltpFR2	6	7	POCKET	1093	n/a	n/a	0	0	0
1229106	WORD	wordpools/wasnorm_wordpool_576.txt	LTP348	ltpFR2	6	7	FLOWER	584	n/a	n/a	0	0	0
1231788	WORD	wordpools/wasnorm_wordpool_576.txt	LTP348	ltpFR2	6	7	CAMEL	223	n/a	n/a	0	0	0
1234437	WORD	wordpools/wasnorm_wordpool_576.txt	LTP348	ltpFR2	6	7	BALLOON	75	n/a	n/a	0	0	0
1236919	WORD	wordpools/wasnorm_wordpool_576.txt	LTP348	ltpFR2	6	7	SNAIL	1332	n/a	n/a	0	0	0
1239651	WORD	wordpools/wasnorm_wordpool_576.txt	LTP348	ltpFR2	6	7	DRAWING	494	n/a	n/a	0	0	0
1241267	START	n/a	LTP348	ltpFR2	6	n/a	n/a	n/a	9	n/a	n/a	n/a	n/a
1242221	DISTRACTOR	n/a	LTP348	ltpFR2	6	7	n/a	n/a	n/a	n/a	0	0	0
1242233	PROB	n/a	LTP348	ltpFR2	6	n/a	n/a	n/a	9	15	3	8	4
1246464	PROB	n/a	LTP348	ltpFR2	6	n/a	n/a	n/a	9	10	6	3	1
1248880	PROB	n/a	LTP348	ltpFR2	6	n/a	n/a	n/a	9	7	5	1	1
1250545	PROB	n/a	LTP348	ltpFR2	6	n/a	n/a	n/a	9	18	8	5	5
1252145	PROB	n/a	LTP348	ltpFR2	6	n/a	n/a	n/a	9	23	9	7	6
1265267	STOP	n/a	LTP348	ltpFR2	6	n/a	n/a	n/a	9	n/a	n/a	n/a	n/a
1267121	REC_START	n/a	LTP348	ltpFR2	6	7	n/a	n/a	n/a	n/a	0	0	0
1268423	REC_WORD	wordpools/wasnorm_wordpool_576.txt	LTP348	ltpFR2	6	7	VICTIM	1562	n/a	n/a	0	0	0
1269345	REC_WORD	wordpools/wasnorm_wordpool_576.txt	LTP348	ltpFR2	6	7	LADDER	793	n/a	n/a	0	0	0
1270103	REC_WORD	wordpools/wasnorm_wordpool_576.txt	LTP348	ltpFR2	6	7	LEADER	807	n/a	n/a	0	0	0
1272563	REC_WORD	wordpools/wasnorm_wordpool_576.txt	LTP348	ltpFR2	6	7	BOUQUET	157	n/a	n/a	0	0	0
1273433	REC_WORD	wordpools/wasnorm_wordpool_576.txt	LTP348	ltpFR2	6	7	FLOWER	584	n/a	n/a	0	0	0
1274023	REC_WORD	wordpools/wasnorm_wordpool_576.txt	LTP348	ltpFR2	6	7	SNAIL	1332	n/a	n/a	0	0	0
1279266	REC_WORD	wordpools/wasnorm_wordpool_576.txt	LTP348	ltpFR2	6	7	CAMEL	223	n/a	n/a	0	0	0
1280277	REC_WORD	wordpools/wasnorm_wordpool_576.txt	LTP348	ltpFR2	6	7	MAMMAL	861	n/a	n/a	0	0	0
1341542	REC_WORD	wordpools/wasnorm_wordpool_576.txt	LTP348	ltpFR2	6	7	MEDICINE	886	n/a	n/a	0	0	0
1357592	WORD	wordpools/wasnorm_wordpool_576.txt	LTP348	ltpFR2	6	8	CASKET	255	n/a	n/a	0	0	0
1360091	WORD	wordpools/wasnorm_wordpool_576.txt	LTP348	ltpFR2	6	8	POISON	1096	n/a	n/a	0	0	0
1362790	WORD	wordpools/wasnorm_wordpool_576.txt	LTP348	ltpFR2	6	8	ITEM	746	n/a	n/a	0	0	0
1365222	WORD	wordpools/wasnorm_wordpool_576.txt	LTP348	ltpFR2	6	8	DUST	508	n/a	n/a	0	0	0
1367870	WORD	wordpools/wasnorm_wordpool_576.txt	LTP348	ltpFR2	6	8	SALT	1229	n/a	n/a	0	0	0
1370686	WORD	wordpools/wasnorm_wordpool_576.txt	LTP348	ltpFR2	6	8	DIVER	476	n/a	n/a	0	0	0
1373284	WORD	wordpools/wasnorm_wordpool_576.txt	LTP348	ltpFR2	6	8	POPCORN	1104	n/a	n/a	0	0	0
1375734	WORD	wordpools/wasnorm_wordpool_576.txt	LTP348	ltpFR2	6	8	BINDER	127	n/a	n/a	0	0	0
1378249	WORD	wordpools/wasnorm_wordpool_576.txt	LTP348	ltpFR2	6	8	LADY	794	n/a	n/a	0	0	0
1380981	WORD	wordpools/wasnorm_wordpool_576.txt	LTP348	ltpFR2	6	8	WOMAN	1620	n/a	n/a	0	0	0
1383496	WORD	wordpools/wasnorm_wordpool_576.txt	LTP348	ltpFR2	6	8	BURGLAR	200	n/a	n/a	0	0	0
1386178	WORD	wordpools/wasnorm_wordpool_576.txt	LTP348	ltpFR2	6	8	CRICKET	408	n/a	n/a	0	0	0
1388610	WORD	wordpools/wasnorm_wordpool_576.txt	LTP348	ltpFR2	6	8	QUARTER	1148	n/a	n/a	0	0	0
1391092	WORD	wordpools/wasnorm_wordpool_576.txt	LTP348	ltpFR2	6	8	BRACES	164	n/a	n/a	0	0	0
1393858	WORD	wordpools/wasnorm_wordpool_576.txt	LTP348	ltpFR2	6	8	CURTAIN	427	n/a	n/a	0	0	0
1396473	WORD	wordpools/wasnorm_wordpool_576.txt	LTP348	ltpFR2	6	8	CRITIC	410	n/a	n/a	0	0	0
1399088	WORD	wordpools/wasnorm_wordpool_576.txt	LTP348	ltpFR2	6	8	GYMNAST	675	n/a	n/a	0	0	0
1401554	WORD	wordpools/wasnorm_wordpool_576.txt	LTP348	ltpFR2	6	8	BOYFRIEND	162	n/a	n/a	0	0	0
1404136	WORD	wordpools/wasnorm_wordpool_576.txt	LTP348	ltpFR2	6	8	FLASK	576	n/a	n/a	0	0	0
1406868	WORD	wordpools/wasnorm_wordpool_576.txt	LTP348	ltpFR2	6	8	ISLAND	745	n/a	n/a	0	0	0
1409366	WORD	wordpools/wasnorm_wordpool_576.txt	LTP348	ltpFR2	6	8	BEAVER	109	n/a	n/a	0	0	0
1411865	WORD	wordpools/wasnorm_wordpool_576.txt	LTP348	ltpFR2	6	8	SCULPTURE	1258	n/a	n/a	0	0	0
1414297	WORD	wordpools/wasnorm_wordpool_576.txt	LTP348	ltpFR2	6	8	PORTRAIT	1111	n/a	n/a	0	0	0
1416863	WORD	wordpools/wasnorm_wordpool_576.txt	LTP348	ltpFR2	6	8	SUNSET	1408	n/a	n/a	0	0	0
1418479	START	n/a	LTP348	ltpFR2	6	n/a	n/a	n/a	10	n/a	n/a	n/a	n/a
1419326	DISTRACTOR	n/a	LTP348	ltpFR2	6	8	n/a	n/a	n/a	n/a	0	0	0
1419328	PROB	n/a	LTP348	ltpFR2	6	n/a	n/a	n/a	10	13	4	3	6
1421560	PROB	n/a	LTP348	ltpFR2	6	n/a	n/a	n/a	10	12	5	6	1
1423676	PROB	n/a	LTP348	ltpFR2	6	n/a	n/a	n/a	10	13	6	1	6
1425758	PROB	n/a	LTP348	ltpFR2	6	n/a	n/a	n/a	10	11	5	4	2
1429623	PROB	n/a	LTP348	ltpFR2	6	n/a	n/a	n/a	10	20	6	7	7
1432039	PROB	n/a	LTP348	ltpFR2	6	n/a	n/a	n/a	10	12	2	2	8
1434921	PROB	n/a	LTP348	ltpFR2	6	n/a	n/a	n/a	10	14	1	9	4
1436420	PROB	n/a	LTP348	ltpFR2	6	n/a	n/a	n/a	10	14	3	2	9
1440268	PROB	n/a	LTP348	ltpFR2	6	n/a	n/a	n/a	10	13	6	3	4
1442056	STOP	n/a	LTP348	ltpFR2	6	n/a	n/a	n/a	10	n/a	n/a	n/a	n/a
1444266	REC_START	n/a	LTP348	ltpFR2	6	8	n/a	n/a	n/a	n/a	0	0	0
1444597	REC_WORD	wordpools/wasnorm_wordpool_576.txt	LTP348	ltpFR2	6	8	WOMAN	1620	n/a	n/a	0	0	0
1445174	REC_WORD	wordpools/wasnorm_wordpool_576.txt	LTP348	ltpFR2	6	8	LADY	794	n/a	n/a	0	0	0
1446046	REC_WORD	wordpools/wasnorm_wordpool_576.txt	LTP348	ltpFR2	6	8	DIVER	476	n/a	n/a	0	0	0
1449160	REC_WORD	wordpools/wasnorm_wordpool_576.txt	LTP348	ltpFR2	6	8	POPCORN	1104	n/a	n/a	0	0	0
1454694	REC_WORD	wordpools/wasnorm_wordpool_576.txt	LTP348	ltpFR2	6	8	WAITER	1580	n/a	n/a	0	0	0
1455792	REC_WORD	wordpools/wasnorm_wordpool_576.txt	LTP348	ltpFR2	6	8	ACTRESS	6	n/a	n/a	0	0	0
1456690	REC_WORD	wordpools/wasnorm_wordpool_576.txt	LTP348	ltpFR2	6	8	PRINCESS	1125	n/a	n/a	0	0	0
1485101	REC_WORD	wordpools/wasnorm_wordpool_576.txt	LTP348	ltpFR2	6	8	TUTU	1524	n/a	n/a	0	0	0
1493396	REC_WORD	wordpools/wasnorm_wordpool_576.txt	LTP348	ltpFR2	6	8	CASKET	255	n/a	n/a	0	0	0
1520811	REST_REWET	n/a	LTP348	ltpFR2	6	8	n/a	n/a	n/a	n/a	0	0	0
1856095	WORD	wordpools/wasnorm_wordpool_576.txt	LTP348	ltpFR2	6	9	SCALLOP	1242	n/a	n/a	0	0	0
1858610	WORD	wordpools/wasnorm_wordpool_576.txt	LTP348	ltpFR2	6	9	BISON	131	n/a	n/a	0	0	0
1861292	WORD	wordpools/wasnorm_wordpool_576.txt	LTP348	ltpFR2	6	9	ROBOT	1200	n/a	n/a	0	0	0
1863774	WORD	wordpools/wasnorm_wordpool_576.txt	LTP348	ltpFR2	6	9	BLACKBOARD	133	n/a	n/a	0	0	0
1866340	WORD	wordpools/wasnorm_wordpool_576.txt	LTP348	ltpFR2	6	9	CRATER	400	n/a	n/a	0	0	0
1869155	WORD	wordpools/wasnorm_wordpool_576.txt	LTP348	ltpFR2	6	9	FOX	598	n/a	n/a	0	0	0
1871937	WORD	wordpools/wasnorm_wordpool_576.txt	LTP348	ltpFR2	6	9	FLUTE	585	n/a	n/a	0	0	0
1874519	WORD	wordpools/wasnorm_wordpool_576.txt	LTP348	ltpFR2	6	9	WHISTLE	1606	n/a	n/a	0	0	0
1877301	WORD	wordpools/wasnorm_wordpool_576.txt	LTP348	ltpFR2	6	9	NOVEL	960	n/a	n/a	0	0	0
1880116	WORD	wordpools/wasnorm_wordpool_576.txt	LTP348	ltpFR2	6	9	BOX	159	n/a	n/a	0	0	0
1882698	WORD	wordpools/wasnorm_wordpool_576.txt	LTP348	ltpFR2	6	9	SHOVEL	1295	n/a	n/a	0	0	0
1885214	WORD	wordpools/wasnorm_wordpool_576.txt	LTP348	ltpFR2	6	9	HORNET	718	n/a	n/a	0	0	0
1887979	WORD	wordpools/wasnorm_wordpool_576.txt	LTP348	ltpFR2	6	9	WASP	1593	n/a	n/a	0	0	0
1890611	WORD	wordpools/wasnorm_wordpool_576.txt	LTP348	ltpFR2	6	9	PLAYGROUND	1087	n/a	n/a	0	0	0
1893393	WORD	wordpools/wasnorm_wordpool_576.txt	LTP348	ltpFR2	6	9	ACTOR	5	n/a	n/a	0	0	0
1895975	WORD	wordpools/wasnorm_wordpool_576.txt	LTP348	ltpFR2	6	9	SWAMP	1416	n/a	n/a	0	0	0
1898524	WORD	wordpools/wasnorm_wordpool_576.txt	LTP348	ltpFR2	6	9	QUAIL	1147	n/a	n/a	0	0	0
1901056	WORD	wordpools/wasnorm_wordpool_576.txt	LTP348	ltpFR2	6	9	CLAM	315	n/a	n/a	0	0	0
1903854	WORD	wordpools/wasnorm_wordpool_576.txt	LTP348	ltpFR2	6	9	CRAB	397	n/a	n/a	0	0	0
1906670	WORD	wordpools/wasnorm_wordpool_576.txt	LTP348	ltpFR2	6	9	MARSH	874	n/a	n/a	0	0	0
1909452	WORD	wordpools/wasnorm_wordpool_576.txt	LTP348	ltpFR2	6	9	SLOPE	1328	n/a	n/a	0	0	0
1912150	WORD	wordpools/wasnorm_wordpool_576.txt	LTP348	ltpFR2	6	9	BOARD	143	n/a	n/a	0	0	0
1914915	WORD	wordpools/wasnorm_wordpool_576.txt	LTP348	ltpFR2	6	9	POET	1095	n/a	n/a	0	0	0
1917614	WORD	wordpools/wasnorm_wordpool_576.txt	LTP348	ltpFR2	6	9	TABLET	1427	n/a	n/a	0	0	0
1919230	START	n/a	LTP348	ltpFR2	6	n/a	n/a	n/a	11	n/a	n/a	n/a	n/a
1920046	DISTRACTOR	n/a	LTP348	ltpFR2	6	9	n/a	n/a	n/a	n/a	0	0	0
1920063	PROB	n/a	LTP348	ltpFR2	6	n/a	n/a	n/a	11	10	1	3	6
1923411	PROB	n/a	LTP348	ltpFR2	6	n/a	n/a	n/a	11	18	7	9	2
1927159	PROB	n/a	LTP348	ltpFR2	6	n/a	n/a	n/a	11	13	5	2	6
1931057	PROB	n/a	LTP348	ltpFR2	6	n/a	n/a	n/a	11	14	4	7	3
1934889	PROB	n/a	LTP348	ltpFR2	6	n/a	n/a	n/a	11	13	5	2	6
1937188	PROB	n/a	LTP348	ltpFR2	6	n/a	n/a	n/a	11	14	9	1	4
1938637	PROB	n/a	LTP348	ltpFR2	6	n/a	n/a	n/a	11	11	3	3	5
1943229	STOP	n/a	LTP348	ltpFR2	6	n/a	n/a	n/a	11	n/a	n/a	n/a	n/a
1945118	REC_START	n/a	LTP348	ltpFR2	6	9	n/a	n/a	n/a	n/a	0	0	0
1945863	REC_WORD	wordpools/wasnorm_wordpool_576.txt	LTP348	ltpFR2	6	9	QUAIL	1147	n/a	n/a	0	0	0
1946892	REC_WORD	wordpools/wasnorm_wordpool_576.txt	LTP348	ltpFR2	6	9	BISON	131	n/a	n/a	0	0	0
1948306	REC_WORD	wordpools/wasnorm_wordpool_576.txt	LTP348	ltpFR2	6	9	OX	994	n/a	n/a	0	0	0
1952341	REC_WORD	wordpools/wasnorm_wordpool_576.txt	LTP348	ltpFR2	6	9	PLAYGROUND	1087	n/a	n/a	0	0	0
1960515	REC_WORD	wordpools/wasnorm_wordpool_576.txt	LTP348	ltpFR2	6	9	ACTOR	5	n/a	n/a	0	0	0
1967856	REC_WORD	wordpools/wasnorm_wordpool_576.txt	LTP348	ltpFR2	6	9	LADLE	-1	n/a	n/a	0	0	0
1975688	REC_WORD	wordpools/wasnorm_wordpool_576.txt	LTP348	ltpFR2	6	9	HORNET	718	n/a	n/a	0	0	0
1985776	REC_WORD	wordpools/wasnorm_wordpool_576.txt	LTP348	ltpFR2	6	9	PRINCE	1124	n/a	n/a	0	0	0
1991660	REC_WORD	wordpools/wasnorm_wordpool_576.txt	LTP348	ltpFR2	6	9	KNOB	787	n/a	n/a	0	0	0
2000894	REC_WORD	wordpools/wasnorm_wordpool_576.txt	LTP348	ltpFR2	6	9	ATOM	55	n/a	n/a	0	0	0
2017698	REC_WORD	wordpools/wasnorm_wordpool_576.txt	LTP348	ltpFR2	6	9	FLUTE	585	n/a	n/a	0	0	0
2035572	DISTRACTOR	n/a	LTP348	ltpFR2	6	10	n/a	n/a	n/a	n/a	0	0	0
2035572	START	n/a	LTP348	ltpFR2	6	n/a	n/a	n/a	12	n/a	n/a	n/a	n/a
2035589	PROB	n/a	LTP348	ltpFR2	6	n/a	n/a	n/a	12	16	9	5	2
2039087	PROB	n/a	LTP348	ltpFR2	6	n/a	n/a	n/a	12	11	1	6	4
2040903	PROB	n/a	LTP348	ltpFR2	6	n/a	n/a	n/a	12	10	1	1	8
2042619	PROB	n/a	LTP348	ltpFR2	6	n/a	n/a	n/a	12	22	8	5	9
2048982	PROB	n/a	LTP348	ltpFR2	6	n/a	n/a	n/a	12	23	8	6	7
2059571	STOP	n/a	LTP348	ltpFR2	6	n/a	n/a	n/a	12	n/a	n/a	n/a	n/a
2060643	WORD	wordpools/wasnorm_wordpool_576.txt	LTP348	ltpFR2	6	10	HARP	689	n/a	n/a	0	0	0
2063175	WORD	wordpools/wasnorm_wordpool_576.txt	LTP348	ltpFR2	6	10	SHIRT	1287	n/a	n/a	0	0	0
2065774	WORD	wordpools/wasnorm_wordpool_576.txt	LTP348	ltpFR2	6	10	DRESS	495	n/a	n/a	0	0	0
2068239	WORD	wordpools/wasnorm_wordpool_576.txt	LTP348	ltpFR2	6	10	UNCLE	1536	n/a	n/a	0	0	0
2070721	WORD	wordpools/wasnorm_wordpool_576.txt	LTP348	ltpFR2	6	10	COUSIN	392	n/a	n/a	0	0	0
2073420	WORD	wordpools/wasnorm_wordpool_576.txt	LTP348	ltpFR2	6	10	CARRIAGE	248	n/a	n/a	0	0	0
2076052	WORD	wordpools/wasnorm_wordpool_576.txt	LTP348	ltpFR2	6	10	BARLEY	88	n/a	n/a	0	0	0
2078518	WORD	wordpools/wasnorm_wordpool_576.txt	LTP348	ltpFR2	6	10	SLIDE	1326	n/a	n/a	0	0	0
2081100	WORD	wordpools/wasnorm_wordpool_576.txt	LTP348	ltpFR2	6	10	POSSUM	1112	n/a	n/a	0	0	0
2083815	WORD	wordpools/wasnorm_wordpool_576.txt	LTP348	ltpFR2	6	10	OUTLAW	989	n/a	n/a	0	0	0
2086297	WORD	wordpools/wasnorm_wordpool_576.txt	LTP348	ltpFR2	6	10	CHAUFFEUR	283	n/a	n/a	0	0	0
2089129	WORD	wordpools/wasnorm_wordpool_576.txt	LTP348	ltpFR2	6	10	SCARF	1246	n/a	n/a	0	0	0
2091661	WORD	wordpools/wasnorm_wordpool_576.txt	LTP348	ltpFR2	6	10	ROD	1203	n/a	n/a	0	0	0
2094193	WORD	wordpools/wasnorm_wordpool_576.txt	LTP348	ltpFR2	6	10	PEPPER	1047	n/a	n/a	0	0	0
2096709	WORD	wordpools/wasnorm_wordpool_576.txt	LTP348	ltpFR2	6	10	EYELASH	546	n/a	n/a	0	0	0
2099474	WORD	wordpools/wasnorm_wordpool_576.txt	LTP348	ltpFR2	6	10	TORTOISE	1486	n/a	n/a	0	0	0
2102122	WORD	wordpools/wasnorm_wordpool_576.txt	LTP348	ltpFR2	6	10	SURVEY	1414	n/a	n/a	0	0	0
2104938	WORD	wordpools/wasnorm_wordpool_576.txt	LTP348	ltpFR2	6	10	ROBBER	1197	n/a	n/a	0	0	0
2107737	WORD	wordpools/wasnorm_wordpool_576.txt	LTP348	ltpFR2	6	10	NAPKIN	937	n/a	n/a	0	0	0
2110268	WORD	wordpools/wasnorm_wordpool_576.txt	LTP348	ltpFR2	6	10	RUST	1219	n/a	n/a	0	0	0
2112884	WORD	wordpools/wasnorm_wordpool_576.txt	LTP348	ltpFR2	6	10	FARMER	553	n/a	n/a	0	0	0
2115349	WORD	wordpools/wasnorm_wordpool_576.txt	LTP348	ltpFR2	6	10	PADDING	999	n/a	n/a	0	0	0
2117815	WORD	wordpools/wasnorm_wordpool_576.txt	LTP348	ltpFR2	6	10	BODY	145	n/a	n/a	0	0	0
2120413	WORD	wordpools/wasnorm_wordpool_576.txt	LTP348	ltpFR2	6	10	PARSLEY	1016	n/a	n/a	0	0	0
2122030	START	n/a	LTP348	ltpFR2	6	n/a	n/a	n/a	13	n/a	n/a	n/a	n/a
2122942	DISTRACTOR	n/a	LTP348	ltpFR2	6	10	n/a	n/a	n/a	n/a	0	0	0
2122945	PROB	n/a	LTP348	ltpFR2	6	n/a	n/a	n/a	13	17	5	7	5
2125361	PROB	n/a	LTP348	ltpFR2	6	n/a	n/a	n/a	13	17	6	8	3
2129959	PROB	n/a	LTP348	ltpFR2	6	n/a	n/a	n/a	13	9	6	2	1
2133007	PROB	n/a	LTP348	ltpFR2	6	n/a	n/a	n/a	13	17	7	4	6
2135123	PROB	n/a	LTP348	ltpFR2	6	n/a	n/a	n/a	13	6	2	3	1
2137505	PROB	n/a	LTP348	ltpFR2	6	n/a	n/a	n/a	13	16	1	6	9
2140503	PROB	n/a	LTP348	ltpFR2	6	n/a	n/a	n/a	13	11	2	6	5
2146030	STOP	n/a	LTP348	ltpFR2	6	n/a	n/a	n/a	13	n/a	n/a	n/a	n/a
2147918	REC_START	n/a	LTP348	ltpFR2	6	10	n/a	n/a	n/a	n/a	0	0	0
2148362	REC_WORD	wordpools/wasnorm_wordpool_576.txt	LTP348	ltpFR2	6	10	ROD	1203	n/a	n/a	0	0	0
2149069	REC_WORD	wordpools/wasnorm_wordpool_576.txt	LTP348	ltpFR2	6	10	PARSLEY	1016	n/a	n/a	0	0	0
2155153	REC_WORD	wordpools/wasnorm_wordpool_576.txt	LTP348	ltpFR2	6	10	SKIRT	1319	n/a	n/a	0	0	0
2155865	REC_WORD	wordpools/wasnorm_wordpool_576.txt	LTP348	ltpFR2	6	10	SHIRT	1287	n/a	n/a	0	0	0
2182630	REC_WORD	wordpools/wasnorm_wordpool_576.txt	LTP348	ltpFR2	6	10	DRESS	495	n/a	n/a	0	0	0
2186808	REC_WORD	wordpools/wasnorm_wordpool_576.txt	LTP348	ltpFR2	6	10	TORTOISE	1486	n/a	n/a	0	0	0
2216521	REC_WORD	wordpools/wasnorm_wordpool_576.txt	LTP348	ltpFR2	6	10	SNAIL	1332	n/a	n/a	0	0	0
2238372	WORD	wordpools/wasnorm_wordpool_576.txt	LTP348	ltpFR2	6	11	MISSILE	900	n/a	n/a	0	0	0
2241187	WORD	wordpools/wasnorm_wordpool_576.txt	LTP348	ltpFR2	6	11	CASHEW	253	n/a	n/a	0	0	0
2243852	WORD	wordpools/wasnorm_wordpool_576.txt	LTP348	ltpFR2	6	11	MONSTER	912	n/a	n/a	0	0	0
2246451	WORD	wordpools/wasnorm_wordpool_576.txt	LTP348	ltpFR2	6	11	MAILMAN	858	n/a	n/a	0	0	0
2249199	WORD	wordpools/wasnorm_wordpool_576.txt	LTP348	ltpFR2	6	11	ATLAS	53	n/a	n/a	0	0	0
2251698	WORD	wordpools/wasnorm_wordpool_576.txt	LTP348	ltpFR2	6	11	BLADE	134	n/a	n/a	0	0	0
2254314	WORD	wordpools/wasnorm_wordpool_576.txt	LTP348	ltpFR2	6	11	HONEY	713	n/a	n/a	0	0	0
2256862	WORD	wordpools/wasnorm_wordpool_576.txt	LTP348	ltpFR2	6	11	CEILING	265	n/a	n/a	0	0	0
2259344	WORD	wordpools/wasnorm_wordpool_576.txt	LTP348	ltpFR2	6	11	GROUND	666	n/a	n/a	0	0	0
2261810	WORD	wordpools/wasnorm_wordpool_576.txt	LTP348	ltpFR2	6	11	COBRA	336	n/a	n/a	0	0	0
2264492	WORD	wordpools/wasnorm_wordpool_576.txt	LTP348	ltpFR2	6	11	BANKER	84	n/a	n/a	0	0	0
2267224	WORD	wordpools/wasnorm_wordpool_576.txt	LTP348	ltpFR2	6	11	COIN	343	n/a	n/a	0	0	0
2269972	WORD	wordpools/wasnorm_wordpool_576.txt	LTP348	ltpFR2	6	11	CHIPMUNK	304	n/a	n/a	0	0	0
2272488	WORD	wordpools/wasnorm_wordpool_576.txt	LTP348	ltpFR2	6	11	WORLD	1622	n/a	n/a	0	0	0
2275303	WORD	wordpools/wasnorm_wordpool_576.txt	LTP348	ltpFR2	6	11	RIVER	1194	n/a	n/a	0	0	0
2277869	WORD	wordpools/wasnorm_wordpool_576.txt	LTP348	ltpFR2	6	11	BASEMENT	94	n/a	n/a	0	0	0
2280484	WORD	wordpools/wasnorm_wordpool_576.txt	LTP348	ltpFR2	6	11	ICEBERG	731	n/a	n/a	0	0	0
2283249	WORD	wordpools/wasnorm_wordpool_576.txt	LTP348	ltpFR2	6	11	HOSTESS	723	n/a	n/a	0	0	0
2285681	WORD	wordpools/wasnorm_wordpool_576.txt	LTP348	ltpFR2	6	11	SUPPER	1411	n/a	n/a	0	0	0
2288297	WORD	wordpools/wasnorm_wordpool_576.txt	LTP348	ltpFR2	6	11	CELLAR	267	n/a	n/a	0	0	0
2291012	WORD	wordpools/wasnorm_wordpool_576.txt	LTP348	ltpFR2	6	11	PIZZA	1079	n/a	n/a	0	0	0
2293461	WORD	wordpools/wasnorm_wordpool_576.txt	LTP348	ltpFR2	6	11	DOUGHNUT	490	n/a	n/a	0	0	0
2296060	WORD	wordpools/wasnorm_wordpool_576.txt	LTP348	ltpFR2	6	11	GUITAR	670	n/a	n/a	0	0	0
2298692	WORD	wordpools/wasnorm_wordpool_576.txt	LTP348	ltpFR2	6	11	CRAYON	401	n/a	n/a	0	0	0
2300308	START	n/a	LTP348	ltpFR2	6	n/a	n/a	n/a	14	n/a	n/a	n/a	n/a
2301156	DISTRACTOR	n/a	LTP348	ltpFR2	6	11	n/a	n/a	n/a	n/a	0	0	0
2301174	PROB	n/a	LTP348	ltpFR2	6	n/a	n/a	n/a	14	16	8	4	4
2303872	PROB	n/a	LTP348	ltpFR2	6	n/a	n/a	n/a	14	13	4	2	7
2310136	PROB	n/a	LTP348	ltpFR2	6	n/a	n/a	n/a	14	17	7	9	1
2312035	PROB	n/a	LTP348	ltpFR2	6	n/a	n/a	n/a	14	10	1	7	2
2313951	PROB	n/a	LTP348	ltpFR2	6	n/a	n/a	n/a	14	17	5	5	7
2315533	PROB	n/a	LTP348	ltpFR2	6	n/a	n/a	n/a	14	16	6	1	9
2318382	PROB	n/a	LTP348	ltpFR2	6	n/a	n/a	n/a	14	20	8	3	9
2323224	STOP	n/a	LTP348	ltpFR2	6	n/a	n/a	n/a	14	n/a	n/a	n/a	n/a
2326129	REC_START	n/a	LTP348	ltpFR2	6	11	n/a	n/a	n/a	n/a	0	0	0
2332189	REC_WORD	wordpools/wasnorm_wordpool_576.txt	LTP348	ltpFR2	6	11	DOUGHNUT	490	n/a	n/a	0	0	0
2334129	REC_WORD	wordpools/wasnorm_wordpool_576.txt	LTP348	ltpFR2	6	11	PIZZA	1079	n/a	n/a	0	0	0
2338364	REC_WORD	wordpools/wasnorm_wordpool_576.txt	LTP348	ltpFR2	6	11	BANKER	84	n/a	n/a	0	0	0
2341037	REC_WORD	wordpools/wasnorm_wordpool_576.txt	LTP348	ltpFR2	6	11	MONSTER	912	n/a	n/a	0	0	0
2346269	REC_WORD	wordpools/wasnorm_wordpool_576.txt	LTP348	ltpFR2	6	11	SHELTER	1282	n/a	n/a	0	0	0
2352360	REC_WORD	wordpools/wasnorm_wordpool_576.txt	LTP348	ltpFR2	6	11	ROBBER	1197	n/a	n/a	0	0	0
2361965	REC_WORD	wordpools/wasnorm_wordpool_576.txt	LTP348	ltpFR2	6	11	ATLAS	53	n/a	n/a	0	0	0
2362561	REC_WORD	wordpools/wasnorm_wordpool_576.txt	LTP348	ltpFR2	6	11	WORLD	1622	n/a	n/a	0	0	0
2365795	REC_WORD	wordpools/wasnorm_wordpool_576.txt	LTP348	ltpFR2	6	11	WARDROBE	1587	n/a	n/a	0	0	0
2379240	REC_WORD	wordpools/wasnorm_wordpool_576.txt	LTP348	ltpFR2	6	11	HAMPER	682	n/a	n/a	0	0	0
2416566	DISTRACTOR	n/a	LTP348	ltpFR2	6	12	n/a	n/a	n/a	n/a	0	0	0
2416566	START	n/a	LTP348	ltpFR2	6	n/a	n/a	n/a	15	n/a	n/a	n/a	n/a
2416583	PROB	n/a	LTP348	ltpFR2	6	n/a	n/a	n/a	15	14	5	8	1
2420181	PROB	n/a	LTP348	ltpFR2	6	n/a	n/a	n/a	15	16	2	5	9
2424179	PROB	n/a	LTP348	ltpFR2	6	n/a	n/a	n/a	15	13	3	2	8
2428261	PROB	n/a	LTP348	ltpFR2	6	n/a	n/a	n/a	15	12	9	2	1
2430093	PROB	n/a	LTP348	ltpFR2	6	n/a	n/a	n/a	15	7	3	1	3
2431892	PROB	n/a	LTP348	ltpFR2	6	n/a	n/a	n/a	15	16	7	5	9
2436073	PROB	n/a	LTP348	ltpFR2	6	n/a	n/a	n/a	15	9	2	2	5
2438322	PROB	n/a	LTP348	ltpFR2	6	n/a	n/a	n/a	15	11	7	2	2
2440216	STOP	n/a	LTP348	ltpFR2	6	n/a	n/a	n/a	15	n/a	n/a	n/a	n/a
2441770	WORD	wordpools/wasnorm_wordpool_576.txt	LTP348	ltpFR2	6	12	BELLY	119	n/a	n/a	0	0	0
2444586	WORD	wordpools/wasnorm_wordpool_576.txt	LTP348	ltpFR2	6	12	PAIL	1002	n/a	n/a	0	0	0
2447218	WORD	wordpools/wasnorm_wordpool_576.txt	LTP348	ltpFR2	6	12	MARS	873	n/a	n/a	0	0	0
2450016	WORD	wordpools/wasnorm_wordpool_576.txt	LTP348	ltpFR2	6	12	PORK	1108	n/a	n/a	0	0	0
2452565	WORD	wordpools/wasnorm_wordpool_576.txt	LTP348	ltpFR2	6	12	MASK	876	n/a	n/a	0	0	0
2455314	WORD	wordpools/wasnorm_wordpool_576.txt	LTP348	ltpFR2	6	12	GAZELLE	628	n/a	n/a	0	0	0
2457846	WORD	wordpools/wasnorm_wordpool_576.txt	LTP348	ltpFR2	6	12	ANTLER	29	n/a	n/a	0	0	0
2460428	WORD	wordpools/wasnorm_wordpool_576.txt	LTP348	ltpFR2	6	12	TURTLE	1522	n/a	n/a	0	0	0
2463243	WORD	wordpools/wasnorm_wordpool_576.txt	LTP348	ltpFR2	6	12	CUPBOARD	425	n/a	n/a	0	0	0
2465825	WORD	wordpools/wasnorm_wordpool_576.txt	LTP348	ltpFR2	6	12	TRACTOR	1493	n/a	n/a	0	0	0
2468291	WORD	wordpools/wasnorm_wordpool_576.txt	LTP348	ltpFR2	6	12	TWEEZERS	1526	n/a	n/a	0	0	0
2470739	WORD	wordpools/wasnorm_wordpool_576.txt	LTP348	ltpFR2	6	12	CATTLE	261	n/a	n/a	0	0	0
2473288	WORD	wordpools/wasnorm_wordpool_576.txt	LTP348	ltpFR2	6	12	FRUIT	610	n/a	n/a	0	0	0
2475937	WORD	wordpools/wasnorm_wordpool_576.txt	LTP348	ltpFR2	6	12	GRAPE	654	n/a	n/a	0	0	0
2478486	WORD	wordpools/wasnorm_wordpool_576.txt	LTP348	ltpFR2	6	12	KETCHUP	771	n/a	n/a	0	0	0
2481151	WORD	wordpools/wasnorm_wordpool_576.txt	LTP348	ltpFR2	6	12	DORM	488	n/a	n/a	0	0	0
2483734	WORD	wordpools/wasnorm_wordpool_576.txt	LTP348	ltpFR2	6	12	BUNNY	198	n/a	n/a	0	0	0
2486415	WORD	wordpools/wasnorm_wordpool_576.txt	LTP348	ltpFR2	6	12	CAFE	216	n/a	n/a	0	0	0
2489197	WORD	wordpools/wasnorm_wordpool_576.txt	LTP348	ltpFR2	6	12	CANDY	230	n/a	n/a	0	0	0
2491879	WORD	wordpools/wasnorm_wordpool_576.txt	LTP348	ltpFR2	6	12	STOMACH	1384	n/a	n/a	0	0	0
2494611	WORD	wordpools/wasnorm_wordpool_576.txt	LTP348	ltpFR2	6	12	SPONGE	1355	n/a	n/a	0	0	0
2497393	WORD	wordpools/wasnorm_wordpool_576.txt	LTP348	ltpFR2	6	12	COTTAGE	384	n/a	n/a	0	0	0
2500092	WORD	wordpools/wasnorm_wordpool_576.txt	LTP348	ltpFR2	6	12	COFFEE	341	n/a	n/a	0	0	0
2502707	WORD	wordpools/wasnorm_wordpool_576.txt	LTP348	ltpFR2	6	12	TOMBSTONE	1478	n/a	n/a	0	0	0
2504323	START	n/a	LTP348	ltpFR2	6	n/a	n/a	n/a	16	n/a	n/a	n/a	n/a
2505175	DISTRACTOR	n/a	LTP348	ltpFR2	6	12	n/a	n/a	n/a	n/a	0	0	0
2505189	PROB	n/a	LTP348	ltpFR2	6	n/a	n/a	n/a	16	15	5	5	5
2506871	PROB	n/a	LTP348	ltpFR2	6	n/a	n/a	n/a	16	16	5	3	8
2509953	PROB	n/a	LTP348	ltpFR2	6	n/a	n/a	n/a	16	20	9	3	8
2513785	PROB	n/a	LTP348	ltpFR2	6	n/a	n/a	n/a	16	17	5	7	5
2515601	PROB	n/a	LTP348	ltpFR2	6	n/a	n/a	n/a	16	6	2	3	1
2517416	PROB	n/a	LTP348	ltpFR2	6	n/a	n/a	n/a	16	12	5	2	5
2519382	PROB	n/a	LTP348	ltpFR2	6	n/a	n/a	n/a	16	13	7	3	3
2522614	PROB	n/a	LTP348	ltpFR2	6	n/a	n/a	n/a	16	14	7	3	4
2524330	PROB	n/a	LTP348	ltpFR2	6	n/a	n/a	n/a	16	18	3	8	7
2526595	PROB	n/a	LTP348	ltpFR2	6	n/a	n/a	n/a	16	15	5	9	1
2528144	STOP	n/a	LTP348	ltpFR2	6	n/a	n/a	n/a	16	n/a	n/a	n/a	n/a
2530127	REC_START	n/a	LTP348	ltpFR2	6	12	n/a	n/a	n/a	n/a	0	0	0
2535422	REC_WORD_VV	wordpools/wasnorm_wordpool_576.txt	LTP348	ltpFR2	6	12	<>	-1	n/a	n/a	0	0	0
2545098	REC_WORD	wordpools/wasnorm_wordpool_576.txt	LTP348	ltpFR2	6	12	SERVER	1272	n/a	n/a	0	0	0
2551206	REC_WORD	wordpools/wasnorm_wordpool_576.txt	LTP348	ltpFR2	6	12	PAIL	1002	n/a	n/a	0	0	0
2568160	REC_WORD	wordpools/wasnorm_wordpool_576.txt	LTP348	ltpFR2	6	12	SCARF	1246	n/a	n/a	0	0	0
2583064	REC_WORD	wordpools/wasnorm_wordpool_576.txt	LTP348	ltpFR2	6	12	TOMBSTONE	1478	n/a	n/a	0	0	0
2589035	REC_WORD	wordpools/wasnorm_wordpool_576.txt	LTP348	ltpFR2	6	12	TURTLE	1522	n/a	n/a	0	0	0
2598471	REC_WORD	wordpools/wasnorm_wordpool_576.txt	LTP348	ltpFR2	6	12	SEAGULL	1261	n/a	n/a	0	0	0
2620565	DISTRACTOR	n/a	LTP348	ltpFR2	6	13	n/a	n/a	n/a	n/a	0	0	0
2620565	START	n/a	LTP348	ltpFR2	6	n/a	n/a	n/a	17	n/a	n/a	n/a	n/a
2620582	PROB	n/a	LTP348	ltpFR2	6	n/a	n/a	n/a	17	18	5	4	9
2625063	PROB	n/a	LTP348	ltpFR2	6	n/a	n/a	n/a	17	12	3	6	3
2627545	PROB	n/a	LTP348	ltpFR2	6	n/a	n/a	n/a	17	16	7	8	1
2630660	PROB	n/a	LTP348	ltpFR2	6	n/a	n/a	n/a	17	17	7	4	6
2632492	PROB	n/a	LTP348	ltpFR2	6	n/a	n/a	n/a	17	7	1	4	2
2634608	PROB	n/a	LTP348	ltpFR2	6	n/a	n/a	n/a	17	12	6	2	4
2636890	PROB	n/a	LTP348	ltpFR2	6	n/a	n/a	n/a	17	17	3	6	8
2644565	STOP	n/a	LTP348	ltpFR2	6	n/a	n/a	n/a	17	n/a	n/a	n/a	n/a
2645536	WORD	wordpools/wasnorm_wordpool_576.txt	LTP348	ltpFR2	6	13	SHARK	1275	n/a	n/a	0	0	0
2648335	WORD	wordpools/wasnorm_wordpool_576.txt	LTP348	ltpFR2	6	13	TURNIP	1521	n/a	n/a	0	0	0
2650917	WORD	wordpools/wasnorm_wordpool_576.txt	LTP348	ltpFR2	6	13	ONION	977	n/a	n/a	0	0	0
2653432	WORD	wordpools/wasnorm_wordpool_576.txt	LTP348	ltpFR2	6	13	IGLOO	734	n/a	n/a	0	0	0
2656131	WORD	wordpools/wasnorm_wordpool_576.txt	LTP348	ltpFR2	6	13	TROUT	1511	n/a	n/a	0	0	0
2658596	WORD	wordpools/wasnorm_wordpool_576.txt	LTP348	ltpFR2	6	13	TOASTER	1472	n/a	n/a	0	0	0
2661345	WORD	wordpools/wasnorm_wordpool_576.txt	LTP348	ltpFR2	6	13	BLUEPRINT	142	n/a	n/a	0	0	0
2664160	WORD	wordpools/wasnorm_wordpool_576.txt	LTP348	ltpFR2	6	13	WHISKERS	1605	n/a	n/a	0	0	0
2666925	WORD	wordpools/wasnorm_wordpool_576.txt	LTP348	ltpFR2	6	13	CIGAR	308	n/a	n/a	0	0	0
2669707	WORD	wordpools/wasnorm_wordpool_576.txt	LTP348	ltpFR2	6	13	COUCH	386	n/a	n/a	0	0	0
2672289	WORD	wordpools/wasnorm_wordpool_576.txt	LTP348	ltpFR2	6	13	HIGHWAY	707	n/a	n/a	0	0	0
2675055	WORD	wordpools/wasnorm_wordpool_576.txt	LTP348	ltpFR2	6	13	SIDEWALK	1303	n/a	n/a	0	0	0
2677520	WORD	wordpools/wasnorm_wordpool_576.txt	LTP348	ltpFR2	6	13	COWBOY	395	n/a	n/a	0	0	0
2680002	WORD	wordpools/wasnorm_wordpool_576.txt	LTP348	ltpFR2	6	13	SPOUSE	1358	n/a	n/a	0	0	0
2682667	WORD	wordpools/wasnorm_wordpool_576.txt	LTP348	ltpFR2	6	13	LOVER	846	n/a	n/a	0	0	0
2685216	WORD	wordpools/wasnorm_wordpool_576.txt	LTP348	ltpFR2	6	13	PEANUT	1032	n/a	n/a	0	0	0
2687898	WORD	wordpools/wasnorm_wordpool_576.txt	LTP348	ltpFR2	6	13	MUFFIN	929	n/a	n/a	0	0	0
2690430	WORD	wordpools/wasnorm_wordpool_576.txt	LTP348	ltpFR2	6	13	TWISTER	1530	n/a	n/a	0	0	0
2693146	WORD	wordpools/wasnorm_wordpool_576.txt	LTP348	ltpFR2	6	13	CABIN	211	n/a	n/a	0	0	0
2695978	WORD	wordpools/wasnorm_wordpool_576.txt	LTP348	ltpFR2	6	13	LEG	809	n/a	n/a	0	0	0
2698626	WORD	wordpools/wasnorm_wordpool_576.txt	LTP348	ltpFR2	6	13	LABEL	790	n/a	n/a	0	0	0
2701358	WORD	wordpools/wasnorm_wordpool_576.txt	LTP348	ltpFR2	6	13	BUGGY	188	n/a	n/a	0	0	0
2703807	WORD	wordpools/wasnorm_wordpool_576.txt	LTP348	ltpFR2	6	13	FRAGRANCE	599	n/a	n/a	0	0	0
2706622	WORD	wordpools/wasnorm_wordpool_576.txt	LTP348	ltpFR2	6	13	RECORD	1176	n/a	n/a	0	0	0
2708238	START	n/a	LTP348	ltpFR2	6	n/a	n/a	n/a	18	n/a	n/a	n/a	n/a
2709132	DISTRACTOR	n/a	LTP348	ltpFR2	6	13	n/a	n/a	n/a	n/a	0	0	0
2709138	PROB	n/a	LTP348	ltpFR2	6	n/a	n/a	n/a	18	15	2	4	9
2713369	PROB	n/a	LTP348	ltpFR2	6	n/a	n/a	n/a	18	19	2	8	9
2718666	PROB	n/a	LTP348	ltpFR2	6	n/a	n/a	n/a	18	20	5	6	9
2723414	PROB	n/a	LTP348	ltpFR2	6	n/a	n/a	n/a	18	17	3	7	7
2725563	PROB	n/a	LTP348	ltpFR2	6	n/a	n/a	n/a	18	17	2	7	8
2732238	STOP	n/a	LTP348	ltpFR2	6	n/a	n/a	n/a	18	n/a	n/a	n/a	n/a
2734093	REC_START	n/a	LTP348	ltpFR2	6	13	n/a	n/a	n/a	n/a	0	0	0
2734749	REC_WORD	wordpools/wasnorm_wordpool_576.txt	LTP348	ltpFR2	6	13	SHARK	1275	n/a	n/a	0	0	0
2735961	REC_WORD	wordpools/wasnorm_wordpool_576.txt	LTP348	ltpFR2	6	13	BUGGY	188	n/a	n/a	0	0	0
2747260	REC_WORD	wordpools/wasnorm_wordpool_576.txt	LTP348	ltpFR2	6	13	BLUEPRINT	142	n/a	n/a	0	0	0
2748448	REC_WORD	wordpools/wasnorm_wordpool_576.txt	LTP348	ltpFR2	6	13	CHAUFFEUR	283	n/a	n/a	0	0	0
2787275	REC_WORD	wordpools/wasnorm_wordpool_576.txt	LTP348	ltpFR2	6	13	COWBOY	395	n/a	n/a	0	0	0
2824547	DISTRACTOR	n/a	LTP348	ltpFR2	6	14	n/a	n/a	n/a	n/a	0	0	0
2824547	START	n/a	LTP348	ltpFR2	6	n/a	n/a	n/a	19	n/a	n/a	n/a	n/a
2824564	PROB	n/a	LTP348	ltpFR2	6	n/a	n/a	n/a	19	18	9	6	3
2829611	PROB	n/a	LTP348	ltpFR2	6	n/a	n/a	n/a	19	17	7	2	8
2832327	PROB	n/a	LTP348	ltpFR2	6	n/a	n/a	n/a	19	21	5	9	7
2838940	PROB	n/a	LTP348	ltpFR2	6	n/a	n/a	n/a	19	18	9	4	4
2843938	PROB	n/a	LTP348	ltpFR2	6	n/a	n/a	n/a	19	15	5	3	7
2848547	STOP	n/a	LTP348	ltpFR2	6	n/a	n/a	n/a	19	n/a	n/a	n/a	n/a
2849535	WORD	wordpools/wasnorm_wordpool_576.txt	LTP348	ltpFR2	6	14	RAZOR	1171	n/a	n/a	0	0	0
2852200	WORD	wordpools/wasnorm_wordpool_576.txt	LTP348	ltpFR2	6	14	GIRL	637	n/a	n/a	0	0	0
2854832	WORD	wordpools/wasnorm_wordpool_576.txt	LTP348	ltpFR2	6	14	STONE	1385	n/a	n/a	0	0	0
2857364	WORD	wordpools/wasnorm_wordpool_576.txt	LTP348	ltpFR2	6	14	ORCHID	982	n/a	n/a	0	0	0
2859963	WORD	wordpools/wasnorm_wordpool_576.txt	LTP348	ltpFR2	6	14	PADDLE	1000	n/a	n/a	0	0	0
2862745	WORD	wordpools/wasnorm_wordpool_576.txt	LTP348	ltpFR2	6	14	ACTRESS	6	n/a	n/a	0	0	0
2865260	WORD	wordpools/wasnorm_wordpool_576.txt	LTP348	ltpFR2	6	14	CLOUD	328	n/a	n/a	0	0	0
2867959	WORD	wordpools/wasnorm_wordpool_576.txt	LTP348	ltpFR2	6	14	HELMET	702	n/a	n/a	0	0	0
2870458	WORD	wordpools/wasnorm_wordpool_576.txt	LTP348	ltpFR2	6	14	KEEPER	769	n/a	n/a	0	0	0
2873090	WORD	wordpools/wasnorm_wordpool_576.txt	LTP348	ltpFR2	6	14	CHILD	299	n/a	n/a	0	0	0
2875555	WORD	wordpools/wasnorm_wordpool_576.txt	LTP348	ltpFR2	6	14	LACE	792	n/a	n/a	0	0	0
2878054	WORD	wordpools/wasnorm_wordpool_576.txt	LTP348	ltpFR2	6	14	MUSTARD	935	n/a	n/a	0	0	0
2880686	WORD	wordpools/wasnorm_wordpool_576.txt	LTP348	ltpFR2	6	14	HUMAN	726	n/a	n/a	0	0	0
2883151	WORD	wordpools/wasnorm_wordpool_576.txt	LTP348	ltpFR2	6	14	BANQUET	86	n/a	n/a	0	0	0
2885683	WORD	wordpools/wasnorm_wordpool_576.txt	LTP348	ltpFR2	6	14	SERVER	1272	n/a	n/a	0	0	0
2888166	WORD	wordpools/wasnorm_wordpool_576.txt	LTP348	ltpFR2	6	14	LION	827	n/a	n/a	0	0	0
2890681	WORD	wordpools/wasnorm_wordpool_576.txt	LTP348	ltpFR2	6	14	SEAGULL	1261	n/a	n/a	0	0	0
2893346	WORD	wordpools/wasnorm_wordpool_576.txt	LTP348	ltpFR2	6	14	GIFT	635	n/a	n/a	0	0	0
2895895	WORD	wordpools/wasnorm_wordpool_576.txt	LTP348	ltpFR2	6	14	FIDDLE	561	n/a	n/a	0	0	0
2898710	WORD	wordpools/wasnorm_wordpool_576.txt	LTP348	ltpFR2	6	14	TUBA	1515	n/a	n/a	0	0	0
2901159	WORD	wordpools/wasnorm_wordpool_576.txt	LTP348	ltpFR2	6	14	FILM	565	n/a	n/a	0	0	0
2903974	WORD	wordpools/wasnorm_wordpool_576.txt	LTP348	ltpFR2	6	14	LILY	821	n/a	n/a	0	0	0
2906806	WORD	wordpools/wasnorm_wordpool_576.txt	LTP348	ltpFR2	6	14	LAGOON	795	n/a	n/a	0	0	0
2909455	WORD	wordpools/wasnorm_wordpool_576.txt	LTP348	ltpFR2	6	14	TURKEY	1520	n/a	n/a	0	0	0
2911071	START	n/a	LTP348	ltpFR2	6	n/a	n/a	n/a	20	n/a	n/a	n/a	n/a
2912025	DISTRACTOR	n/a	LTP348	ltpFR2	6	14	n/a	n/a	n/a	n/a	0	0	0
2912037	PROB	n/a	LTP348	ltpFR2	6	n/a	n/a	n/a	20	20	9	2	9
2914952	PROB	n/a	LTP348	ltpFR2	6	n/a	n/a	n/a	20	19	5	7	7
2917418	PROB	n/a	LTP348	ltpFR2	6	n/a	n/a	n/a	20	13	3	7	3
2919017	PROB	n/a	LTP348	ltpFR2	6	n/a	n/a	n/a	20	14	1	9	4
2920749	PROB	n/a	LTP348	ltpFR2	6	n/a	n/a	n/a	20	15	5	7	3
2923798	PROB	n/a	LTP348	ltpFR2	6	n/a	n/a	n/a	20	24	7	9	8
2930178	PROB	n/a	LTP348	ltpFR2	6	n/a	n/a	n/a	20	18	6	3	9
2935071	STOP	n/a	LTP348	ltpFR2	6	n/a	n/a	n/a	20	n/a	n/a	n/a	n/a
2936875	REC_START	n/a	LTP348	ltpFR2	6	14	n/a	n/a	n/a	n/a	0	0	0
2937275	REC_WORD	wordpools/wasnorm_wordpool_576.txt	LTP348	ltpFR2	6	14	ORCHARD	-1	n/a	n/a	0	0	0
2938152	REC_WORD	wordpools/wasnorm_wordpool_576.txt	LTP348	ltpFR2	6	14	LILY	821	n/a	n/a	0	0	0
2941412	REC_WORD	wordpools/wasnorm_wordpool_576.txt	LTP348	ltpFR2	6	14	LAGOON	795	n/a	n/a	0	0	0
2944702	REC_WORD	wordpools/wasnorm_wordpool_576.txt	LTP348	ltpFR2	6	14	ACTOR	5	n/a	n/a	0	0	0
2948771	REC_WORD	wordpools/wasnorm_wordpool_576.txt	LTP348	ltpFR2	6	14	CLOUD	328	n/a	n/a	0	0	0
2963145	REC_WORD	wordpools/wasnorm_wordpool_576.txt	LTP348	ltpFR2	6	14	PIGEON	1065	n/a	n/a	0	0	0
2980095	REC_WORD	wordpools/wasnorm_wordpool_576.txt	LTP348	ltpFR2	6	14	PUDDING	1139	n/a	n/a	0	0	0
3027330	WORD	wordpools/wasnorm_wordpool_576.txt	LTP348	ltpFR2	6	15	WASHER	1592	n/a	n/a	0	0	0
3029962	WORD	wordpools/wasnorm_wordpool_576.txt	LTP348	ltpFR2	6	15	STOVE	1388	n/a	n/a	0	0	0
3032727	WORD	wordpools/wasnorm_wordpool_576.txt	LTP348	ltpFR2	6	15	SNACK	1331	n/a	n/a	0	0	0
3035359	WORD	wordpools/wasnorm_wordpool_576.txt	LTP348	ltpFR2	6	15	SANDWICH	1232	n/a	n/a	0	0	0
3037858	WORD	wordpools/wasnorm_wordpool_576.txt	LTP348	ltpFR2	6	15	RAFT	1159	n/a	n/a	0	0	0
3040573	WORD	wordpools/wasnorm_wordpool_576.txt	LTP348	ltpFR2	6	15	MOTOR	922	n/a	n/a	0	0	0
3043239	WORD	wordpools/wasnorm_wordpool_576.txt	LTP348	ltpFR2	6	15	REBEL	1172	n/a	n/a	0	0	0
3045787	WORD	wordpools/wasnorm_wordpool_576.txt	LTP348	ltpFR2	6	15	OUTFIT	988	n/a	n/a	0	0	0
3048336	WORD	wordpools/wasnorm_wordpool_576.txt	LTP348	ltpFR2	6	15	SODA	1341	n/a	n/a	0	0	0
3051135	WORD	wordpools/wasnorm_wordpool_576.txt	LTP348	ltpFR2	6	15	DAUGHTER	442	n/a	n/a	0	0	0
3053700	WORD	wordpools/wasnorm_wordpool_576.txt	LTP348	ltpFR2	6	15	LIPSTICK	829	n/a	n/a	0	0	0
3056415	WORD	wordpools/wasnorm_wordpool_576.txt	LTP348	ltpFR2	6	15	TILE	1468	n/a	n/a	0	0	0
3059197	WORD	wordpools/wasnorm_wordpool_576.txt	LTP348	ltpFR2	6	15	THREAD	1460	n/a	n/a	0	0	0
3061863	WORD	wordpools/wasnorm_wordpool_576.txt	LTP348	ltpFR2	6	15	DASHBOARD	441	n/a	n/a	0	0	0
3064595	WORD	wordpools/wasnorm_wordpool_576.txt	LTP348	ltpFR2	6	15	VALVE	1546	n/a	n/a	0	0	0
3067310	WORD	wordpools/wasnorm_wordpool_576.txt	LTP348	ltpFR2	6	15	GARDEN	623	n/a	n/a	0	0	0
3069775	WORD	wordpools/wasnorm_wordpool_576.txt	LTP348	ltpFR2	6	15	APRON	35	n/a	n/a	0	0	0
3072324	WORD	wordpools/wasnorm_wordpool_576.txt	LTP348	ltpFR2	6	15	BULLET	194	n/a	n/a	0	0	0
3075106	WORD	wordpools/wasnorm_wordpool_576.txt	LTP348	ltpFR2	6	15	POWDER	1117	n/a	n/a	0	0	0
3077555	WORD	wordpools/wasnorm_wordpool_576.txt	LTP348	ltpFR2	6	15	PATIENT	1024	n/a	n/a	0	0	0
3080253	WORD	wordpools/wasnorm_wordpool_576.txt	LTP348	ltpFR2	6	15	DIME	466	n/a	n/a	0	0	0
3082952	WORD	wordpools/wasnorm_wordpool_576.txt	LTP348	ltpFR2	6	15	EUROPE	541	n/a	n/a	0	0	0
3085751	WORD	wordpools/wasnorm_wordpool_576.txt	LTP348	ltpFR2	6	15	DUSTPAN	509	n/a	n/a	0	0	0
3088533	WORD	wordpools/wasnorm_wordpool_576.txt	LTP348	ltpFR2	6	15	SHELF	1280	n/a	n/a	0	0	0
3090149	START	n/a	LTP348	ltpFR2	6	n/a	n/a	n/a	21	n/a	n/a	n/a	n/a
3091069	DISTRACTOR	n/a	LTP348	ltpFR2	6	15	n/a	n/a	n/a	n/a	0	0	0
3091081	PROB	n/a	LTP348	ltpFR2	6	n/a	n/a	n/a	21	11	1	4	6
3093380	PROB	n/a	LTP348	ltpFR2	6	n/a	n/a	n/a	21	15	3	6	6
3095713	PROB	n/a	LTP348	ltpFR2	6	n/a	n/a	n/a	21	19	8	6	5
3098828	PROB	n/a	LTP348	ltpFR2	6	n/a	n/a	n/a	21	19	7	3	9
3102526	PROB	n/a	LTP348	ltpFR2	6	n/a	n/a	n/a	21	18	5	8	5
3104092	PROB	n/a	LTP348	ltpFR2	6	n/a	n/a	n/a	21	11	6	1	4
3105824	PROB	n/a	LTP348	ltpFR2	6	n/a	n/a	n/a	21	19	8	9	2
3109056	PROB	n/a	LTP348	ltpFR2	6	n/a	n/a	n/a	21	21	5	8	8
3114149	STOP	n/a	LTP348	ltpFR2	6	n/a	n/a	n/a	21	n/a	n/a	n/a	n/a
3115970	REC_START	n/a	LTP348	ltpFR2	6	15	n/a	n/a	n/a	n/a	0	0	0
3116633	REC_WORD	wordpools/wasnorm_wordpool_576.txt	LTP348	ltpFR2	6	15	REBEL	1172	n/a	n/a	0	0	0
3117389	REC_WORD	wordpools/wasnorm_wordpool_576.txt	LTP348	ltpFR2	6	15	WASHER	1592	n/a	n/a	0	0	0
3126801	REC_WORD	wordpools/wasnorm_wordpool_576.txt	LTP348	ltpFR2	6	15	LIPSTICK	829	n/a	n/a	0	0	0
3129054	REC_WORD	wordpools/wasnorm_wordpool_576.txt	LTP348	ltpFR2	6	15	CUPBOARD	425	n/a	n/a	0	0	0
3134039	REC_WORD	wordpools/wasnorm_wordpool_576.txt	LTP348	ltpFR2	6	15	DIME	466	n/a	n/a	0	0	0
3139893	REC_WORD	wordpools/wasnorm_wordpool_576.txt	LTP348	ltpFR2	6	15	SERVER	1272	n/a	n/a	0	0	0
3152081	REC_WORD	wordpools/wasnorm_wordpool_576.txt	LTP348	ltpFR2	6	15	WORLD	1622	n/a	n/a	0	0	0
3162083	REC_WORD	wordpools/wasnorm_wordpool_576.txt	LTP348	ltpFR2	6	15	SALT	1229	n/a	n/a	0	0	0
3171534	REC_WORD	wordpools/wasnorm_wordpool_576.txt	LTP348	ltpFR2	6	15	LAGOON	795	n/a	n/a	0	0	0
3177571	REC_WORD	wordpools/wasnorm_wordpool_576.txt	LTP348	ltpFR2	6	15	CHILD	299	n/a	n/a	0	0	0
3206424	WORD	wordpools/wasnorm_wordpool_576.txt	LTP348	ltpFR2	6	16	GARLIC	624	n/a	n/a	0	0	0
3208856	WORD	wordpools/wasnorm_wordpool_576.txt	LTP348	ltpFR2	6	16	SNAKE	1333	n/a	n/a	0	0	0
3211472	WORD	wordpools/wasnorm_wordpool_576.txt	LTP348	ltpFR2	6	16	SPARROW	1347	n/a	n/a	0	0	0
3214070	WORD	wordpools/wasnorm_wordpool_576.txt	LTP348	ltpFR2	6	16	PLASTER	1085	n/a	n/a	0	0	0
3216869	WORD	wordpools/wasnorm_wordpool_576.txt	LTP348	ltpFR2	6	16	COURSE	390	n/a	n/a	0	0	0
3219501	WORD	wordpools/wasnorm_wordpool_576.txt	LTP348	ltpFR2	6	16	SCARECROW	1245	n/a	n/a	0	0	0
3222066	WORD	wordpools/wasnorm_wordpool_576.txt	LTP348	ltpFR2	6	16	PERFUME	1049	n/a	n/a	0	0	0
3224649	WORD	wordpools/wasnorm_wordpool_576.txt	LTP348	ltpFR2	6	16	AWARD	63	n/a	n/a	0	0	0
3227214	WORD	wordpools/wasnorm_wordpool_576.txt	LTP348	ltpFR2	6	16	BABY	64	n/a	n/a	0	0	0
3229913	WORD	wordpools/wasnorm_wordpool_576.txt	LTP348	ltpFR2	6	16	CONVICT	371	n/a	n/a	0	0	0
3232728	WORD	wordpools/wasnorm_wordpool_576.txt	LTP348	ltpFR2	6	16	CAPTIVE	240	n/a	n/a	0	0	0
3235293	WORD	wordpools/wasnorm_wordpool_576.txt	LTP348	ltpFR2	6	16	PRIMATE	1123	n/a	n/a	0	0	0
3237809	WORD	wordpools/wasnorm_wordpool_576.txt	LTP348	ltpFR2	6	16	CRIB	407	n/a	n/a	0	0	0
3240474	WORD	wordpools/wasnorm_wordpool_576.txt	LTP348	ltpFR2	6	16	JUDGE	761	n/a	n/a	0	0	0
3242923	WORD	wordpools/wasnorm_wordpool_576.txt	LTP348	ltpFR2	6	16	HANDBAG	684	n/a	n/a	0	0	0
3245521	WORD	wordpools/wasnorm_wordpool_576.txt	LTP348	ltpFR2	6	16	PENGUIN	1044	n/a	n/a	0	0	0
3248320	WORD	wordpools/wasnorm_wordpool_576.txt	LTP348	ltpFR2	6	16	SIBLING	1301	n/a	n/a	0	0	0
3251135	WORD	wordpools/wasnorm_wordpool_576.txt	LTP348	ltpFR2	6	16	SEAL	1262	n/a	n/a	0	0	0
3253767	WORD	wordpools/wasnorm_wordpool_576.txt	LTP348	ltpFR2	6	16	STAMP	1370	n/a	n/a	0	0	0
3256349	WORD	wordpools/wasnorm_wordpool_576.txt	LTP348	ltpFR2	6	16	PICTURE	1061	n/a	n/a	0	0	0
3259098	WORD	wordpools/wasnorm_wordpool_576.txt	LTP348	ltpFR2	6	16	COSTUME	383	n/a	n/a	0	0	0
3261530	WORD	wordpools/wasnorm_wordpool_576.txt	LTP348	ltpFR2	6	16	PARROT	1015	n/a	n/a	0	0	0
3263962	WORD	wordpools/wasnorm_wordpool_576.txt	LTP348	ltpFR2	6	16	DRESSER	496	n/a	n/a	0	0	0
3266494	WORD	wordpools/wasnorm_wordpool_576.txt	LTP348	ltpFR2	6	16	NOTEBOOK	959	n/a	n/a	0	0	0
3268110	START	n/a	LTP348	ltpFR2	6	n/a	n/a	n/a	22	n/a	n/a	n/a	n/a
3269004	DISTRACTOR	n/a	LTP348	ltpFR2	6	16	n/a	n/a	n/a	n/a	0	0	0
3269010	PROB	n/a	LTP348	ltpFR2	6	n/a	n/a	n/a	22	22	9	5	8
3274274	PROB	n/a	LTP348	ltpFR2	6	n/a	n/a	n/a	22	12	3	7	2
3276056	PROB	n/a	LTP348	ltpFR2	6	n/a	n/a	n/a	22	7	3	1	3
3277822	PROB	n/a	LTP348	ltpFR2	6	n/a	n/a	n/a	22	12	5	4	3
3280738	PROB	n/a	LTP348	ltpFR2	6	n/a	n/a	n/a	22	10	1	5	4
3283236	PROB	n/a	LTP348	ltpFR2	6	n/a	n/a	n/a	22	8	1	3	4
3285135	PROB	n/a	LTP348	ltpFR2	6	n/a	n/a	n/a	22	13	5	6	2
3288250	PROB	n/a	LTP348	ltpFR2	6	n/a	n/a	n/a	22	13	4	4	5
3290568	STOP	n/a	LTP348	ltpFR2	6	n/a	n/a	n/a	22	n/a	n/a	n/a	n/a
3293931	REC_START	n/a	LTP348	ltpFR2	6	16	n/a	n/a	n/a	n/a	0	0	0
3294360	REC_WORD	wordpools/wasnorm_wordpool_576.txt	LTP348	ltpFR2	6	16	DRESSER	496	n/a	n/a	0	0	0
3300596	REC_WORD	wordpools/wasnorm_wordpool_576.txt	LTP348	ltpFR2	6	16	PENGUIN	1044	n/a	n/a	0	0	0
3324312	REC_WORD	wordpools/wasnorm_wordpool_576.txt	LTP348	ltpFR2	6	16	LAGOON	795	n/a	n/a	0	0	0
3327505	REC_WORD	wordpools/wasnorm_wordpool_576.txt	LTP348	ltpFR2	6	16	RIVER	1194	n/a	n/a	0	0	0
3361398	REC_WORD	wordpools/wasnorm_wordpool_576.txt	LTP348	ltpFR2	6	16	SCARECROW	1245	n/a	n/a	0	0	0
3370476	REST_REWET	n/a	LTP348	ltpFR2	6	16	n/a	n/a	n/a	n/a	0	0	0
3519519	DISTRACTOR	n/a	LTP348	ltpFR2	6	17	n/a	n/a	n/a	n/a	0	0	0
3519519	START	n/a	LTP348	ltpFR2	6	n/a	n/a	n/a	23	n/a	n/a	n/a	n/a
3519535	PROB	n/a	LTP348	ltpFR2	6	n/a	n/a	n/a	23	17	5	4	8
3524250	PROB	n/a	LTP348	ltpFR2	6	n/a	n/a	n/a	23	14	6	5	3
3528131	PROB	n/a	LTP348	ltpFR2	6	n/a	n/a	n/a	23	21	7	9	4
3533678	PROB	n/a	LTP348	ltpFR2	6	n/a	n/a	n/a	23	15	8	1	6
3537760	PROB	n/a	LTP348	ltpFR2	6	n/a	n/a	n/a	23	14	2	9	2
3543519	STOP	n/a	LTP348	ltpFR2	6	n/a	n/a	n/a	23	n/a	n/a	n/a	n/a
3544423	WORD	wordpools/wasnorm_wordpool_576.txt	LTP348	ltpFR2	6	17	CHURCH	307	n/a	n/a	0	0	0
3546922	WORD	wordpools/wasnorm_wordpool_576.txt	LTP348	ltpFR2	6	17	TRIBE	1505	n/a	n/a	0	0	0
3549604	WORD	wordpools/wasnorm_wordpool_576.txt	LTP348	ltpFR2	6	17	STAKE	1368	n/a	n/a	0	0	0
3552069	WORD	wordpools/wasnorm_wordpool_576.txt	LTP348	ltpFR2	6	17	PICNIC	1060	n/a	n/a	0	0	0
3554585	WORD	wordpools/wasnorm_wordpool_576.txt	LTP348	ltpFR2	6	17	LUNCH	849	n/a	n/a	0	0	0
3557300	WORD	wordpools/wasnorm_wordpool_576.txt	LTP348	ltpFR2	6	17	FREEZER	604	n/a	n/a	0	0	0
3559982	WORD	wordpools/wasnorm_wordpool_576.txt	LTP348	ltpFR2	6	17	CROSS	413	n/a	n/a	0	0	0
3562464	WORD	wordpools/wasnorm_wordpool_576.txt	LTP348	ltpFR2	6	17	HEADBAND	696	n/a	n/a	0	0	0
3565163	WORD	wordpools/wasnorm_wordpool_576.txt	LTP348	ltpFR2	6	17	RADISH	1158	n/a	n/a	0	0	0
3567895	WORD	wordpools/wasnorm_wordpool_576.txt	LTP348	ltpFR2	6	17	CYCLONE	431	n/a	n/a	0	0	0
3570543	WORD	wordpools/wasnorm_wordpool_576.txt	LTP348	ltpFR2	6	17	WRENCH	1625	n/a	n/a	0	0	0
3573342	WORD	wordpools/wasnorm_wordpool_576.txt	LTP348	ltpFR2	6	17	MEAT	883	n/a	n/a	0	0	0
3575924	WORD	wordpools/wasnorm_wordpool_576.txt	LTP348	ltpFR2	6	17	PATROL	1027	n/a	n/a	0	0	0
3578523	WORD	wordpools/wasnorm_wordpool_576.txt	LTP348	ltpFR2	6	17	AGENT	10	n/a	n/a	0	0	0
3581121	WORD	wordpools/wasnorm_wordpool_576.txt	LTP348	ltpFR2	6	17	STALLION	1369	n/a	n/a	0	0	0
3583637	WORD	wordpools/wasnorm_wordpool_576.txt	LTP348	ltpFR2	6	17	SADDLE	1221	n/a	n/a	0	0	0
3586452	WORD	wordpools/wasnorm_wordpool_576.txt	LTP348	ltpFR2	6	17	MATTRESS	879	n/a	n/a	0	0	0
3589101	WORD	wordpools/wasnorm_wordpool_576.txt	LTP348	ltpFR2	6	17	SILK	1307	n/a	n/a	0	0	0
3591783	WORD	wordpools/wasnorm_wordpool_576.txt	LTP348	ltpFR2	6	17	PEACH	1031	n/a	n/a	0	0	0
3594465	WORD	wordpools/wasnorm_wordpool_576.txt	LTP348	ltpFR2	6	17	CABBAGE	210	n/a	n/a	0	0	0
3597280	WORD	wordpools/wasnorm_wordpool_576.txt	LTP348	ltpFR2	6	17	LOFT	840	n/a	n/a	0	0	0
3599879	WORD	wordpools/wasnorm_wordpool_576.txt	LTP348	ltpFR2	6	17	KLEENEX	782	n/a	n/a	0	0	0
3602594	WORD	wordpools/wasnorm_wordpool_576.txt	LTP348	ltpFR2	6	17	TYPIST	1532	n/a	n/a	0	0	0
3605409	WORD	wordpools/wasnorm_wordpool_576.txt	LTP348	ltpFR2	6	17	QUEEN	1149	n/a	n/a	0	0	0
3607025	START	n/a	LTP348	ltpFR2	6	n/a	n/a	n/a	24	n/a	n/a	n/a	n/a
3607841	DISTRACTOR	n/a	LTP348	ltpFR2	6	17	n/a	n/a	n/a	n/a	0	0	0
3607858	PROB	n/a	LTP348	ltpFR2	6	n/a	n/a	n/a	24	18	9	7	2
3612972	PROB	n/a	LTP348	ltpFR2	6	n/a	n/a	n/a	24	13	7	1	5
3617170	PROB	n/a	LTP348	ltpFR2	6	n/a	n/a	n/a	24	19	8	2	9
3619436	PROB	n/a	LTP348	ltpFR2	6	n/a	n/a	n/a	24	11	5	5	1
3620718	PROB	n/a	LTP348	ltpFR2	6	n/a	n/a	n/a	24	19	7	4	8
3624000	PROB	n/a	LTP348	ltpFR2	6	n/a	n/a	n/a	24	9	1	6	2
3626466	PROB	n/a	LTP348	ltpFR2	6	n/a	n/a	n/a	24	18	9	4	5
3628998	PROB	n/a	LTP348	ltpFR2	6	n/a	n/a	n/a	24	12	5	2	5
3630528	STOP	n/a	LTP348	ltpFR2	6	n/a	n/a	n/a	24	n/a	n/a	n/a	n/a
3632830	REC_START	n/a	LTP348	ltpFR2	6	17	n/a	n/a	n/a	n/a	0	0	0
3633276	REC_WORD	wordpools/wasnorm_wordpool_576.txt	LTP348	ltpFR2	6	17	RADISH	1158	n/a	n/a	0	0	0
3633991	REC_WORD	wordpools/wasnorm_wordpool_576.txt	LTP348	ltpFR2	6	17	STAKE	1368	n/a	n/a	0	0	0
3636469	REC_WORD	wordpools/wasnorm_wordpool_576.txt	LTP348	ltpFR2	6	17	SILK	1307	n/a	n/a	0	0	0
3643958	REC_WORD	wordpools/wasnorm_wordpool_576.txt	LTP348	ltpFR2	6	17	MEAT	883	n/a	n/a	0	0	0
3671012	REC_WORD	wordpools/wasnorm_wordpool_576.txt	LTP348	ltpFR2	6	17	PENGUIN	1044	n/a	n/a	0	0	0
3706850	REC_WORD	wordpools/wasnorm_wordpool_576.txt	LTP348	ltpFR2	6	17	HORSE	719	n/a	n/a	0	0	0
3723284	WORD	wordpools/wasnorm_wordpool_576.txt	LTP348	ltpFR2	6	18	SWORD	1423	n/a	n/a	0	0	0
3725833	WORD	wordpools/wasnorm_wordpool_576.txt	LTP348	ltpFR2	6	18	TRENCH	1503	n/a	n/a	0	0	0
3728315	WORD	wordpools/wasnorm_wordpool_576.txt	LTP348	ltpFR2	6	18	DRINK	498	n/a	n/a	0	0	0
3730747	WORD	wordpools/wasnorm_wordpool_576.txt	LTP348	ltpFR2	6	18	MACHINE	852	n/a	n/a	0	0	0
3733329	WORD	wordpools/wasnorm_wordpool_576.txt	LTP348	ltpFR2	6	18	FRANCE	601	n/a	n/a	0	0	0
3735878	WORD	wordpools/wasnorm_wordpool_576.txt	LTP348	ltpFR2	6	18	DONKEY	484	n/a	n/a	0	0	0
3738460	WORD	wordpools/wasnorm_wordpool_576.txt	LTP348	ltpFR2	6	18	SHORTCAKE	1292	n/a	n/a	0	0	0
3740959	WORD	wordpools/wasnorm_wordpool_576.txt	LTP348	ltpFR2	6	18	SALMON	1227	n/a	n/a	0	0	0
3743741	WORD	wordpools/wasnorm_wordpool_576.txt	LTP348	ltpFR2	6	18	NURSE	963	n/a	n/a	0	0	0
3746289	WORD	wordpools/wasnorm_wordpool_576.txt	LTP348	ltpFR2	6	18	FOOT	590	n/a	n/a	0	0	0
3748805	WORD	wordpools/wasnorm_wordpool_576.txt	LTP348	ltpFR2	6	18	JAPAN	749	n/a	n/a	0	0	0
3751537	WORD	wordpools/wasnorm_wordpool_576.txt	LTP348	ltpFR2	6	18	STAR	1373	n/a	n/a	0	0	0
3754036	WORD	wordpools/wasnorm_wordpool_576.txt	LTP348	ltpFR2	6	18	HOUND	724	n/a	n/a	0	0	0
3756851	WORD	wordpools/wasnorm_wordpool_576.txt	LTP348	ltpFR2	6	18	PIMPLE	1071	n/a	n/a	0	0	0
3759566	WORD	wordpools/wasnorm_wordpool_576.txt	LTP348	ltpFR2	6	18	FRECKLE	602	n/a	n/a	0	0	0
3762065	WORD	wordpools/wasnorm_wordpool_576.txt	LTP348	ltpFR2	6	18	OUTDOORS	987	n/a	n/a	0	0	0
3764497	WORD	wordpools/wasnorm_wordpool_576.txt	LTP348	ltpFR2	6	18	DONOR	485	n/a	n/a	0	0	0
3767179	WORD	wordpools/wasnorm_wordpool_576.txt	LTP348	ltpFR2	6	18	COD	340	n/a	n/a	0	0	0
3769911	WORD	wordpools/wasnorm_wordpool_576.txt	LTP348	ltpFR2	6	18	CATCHER	258	n/a	n/a	0	0	0
3772343	WORD	wordpools/wasnorm_wordpool_576.txt	LTP348	ltpFR2	6	18	SOFTBALL	1343	n/a	n/a	0	0	0
3774792	WORD	wordpools/wasnorm_wordpool_576.txt	LTP348	ltpFR2	6	18	CORAL	378	n/a	n/a	0	0	0
3777607	WORD	wordpools/wasnorm_wordpool_576.txt	LTP348	ltpFR2	6	18	WIFE	1609	n/a	n/a	0	0	0
3780372	WORD	wordpools/wasnorm_wordpool_576.txt	LTP348	ltpFR2	6	18	COMPASS	358	n/a	n/a	0	0	0
3782988	WORD	wordpools/wasnorm_wordpool_576.txt	LTP348	ltpFR2	6	18	XEROX	1628	n/a	n/a	0	0	0
3784604	START	n/a	LTP348	ltpFR2	6	n/a	n/a	n/a	25	n/a	n/a	n/a	n/a
3785793	DISTRACTOR	n/a	LTP348	ltpFR2	6	18	n/a	n/a	n/a	n/a	0	0	0
3785803	PROB	n/a	LTP348	ltpFR2	6	n/a	n/a	n/a	25	13	9	3	1
3788069	PROB	n/a	LTP348	ltpFR2	6	n/a	n/a	n/a	25	21	5	8	8
3790484	PROB	n/a	LTP348	ltpFR2	6	n/a	n/a	n/a	25	11	1	9	1
3792117	PROB	n/a	LTP348	ltpFR2	6	n/a	n/a	n/a	25	9	3	5	1
3794965	PROB	n/a	LTP348	ltpFR2	6	n/a	n/a	n/a	25	19	9	5	5
3796464	PROB	n/a	LTP348	ltpFR2	6	n/a	n/a	n/a	25	9	5	2	2
3798380	PROB	n/a	LTP348	ltpFR2	6	n/a	n/a	n/a	25	21	6	6	9
3801845	PROB	n/a	LTP348	ltpFR2	6	n/a	n/a	n/a	25	18	7	3	8
3803578	PROB	n/a	LTP348	ltpFR2	6	n/a	n/a	n/a	25	16	5	8	3
3807632	STOP	n/a	LTP348	ltpFR2	6	n/a	n/a	n/a	25	n/a	n/a	n/a	n/a
3810408	REC_START	n/a	LTP348	ltpFR2	6	18	n/a	n/a	n/a	n/a	0	0	0
3810924	REC_WORD	wordpools/wasnorm_wordpool_576.txt	LTP348	ltpFR2	6	18	XEROX	1628	n/a	n/a	0	0	0
3812379	REC_WORD	wordpools/wasnorm_wordpool_576.txt	LTP348	ltpFR2	6	18	FRANCE	601	n/a	n/a	0	0	0
3821001	REC_WORD	wordpools/wasnorm_wordpool_576.txt	LTP348	ltpFR2	6	18	FOOT	590	n/a	n/a	0	0	0
3822188	REC_WORD	wordpools/wasnorm_wordpool_576.txt	LTP348	ltpFR2	6	18	NURSE	963	n/a	n/a	0	0	0
3828606	REC_WORD	wordpools/wasnorm_wordpool_576.txt	LTP348	ltpFR2	6	18	ANKLE	24	n/a	n/a	0	0	0
3838609	REC_WORD	wordpools/wasnorm_wordpool_576.txt	LTP348	ltpFR2	6	18	PEACH	1031	n/a	n/a	0	0	0
3846623	REC_WORD	wordpools/wasnorm_wordpool_576.txt	LTP348	ltpFR2	6	18	QUAIL	1147	n/a	n/a	0	0	0
3883136	REC_WORD	wordpools/wasnorm_wordpool_576.txt	LTP348	ltpFR2	6	18	GIRL	637	n/a	n/a	0	0	0
3883612	REC_WORD	wordpools/wasnorm_wordpool_576.txt	LTP348	ltpFR2	6	18	WIFE	1609	n/a	n/a	0	0	0
3900846	DISTRACTOR	n/a	LTP348	ltpFR2	6	19	n/a	n/a	n/a	n/a	0	0	0
3900846	START	n/a	LTP348	ltpFR2	6	n/a	n/a	n/a	26	n/a	n/a	n/a	n/a
3900863	PROB	n/a	LTP348	ltpFR2	6	n/a	n/a	n/a	26	9	1	4	4
3902479	PROB	n/a	LTP348	ltpFR2	6	n/a	n/a	n/a	26	11	3	3	5
3904294	PROB	n/a	LTP348	ltpFR2	6	n/a	n/a	n/a	26	21	8	5	8
3906476	PROB	n/a	LTP348	ltpFR2	6	n/a	n/a	n/a	26	8	2	5	1
3908526	PROB	n/a	LTP348	ltpFR2	6	n/a	n/a	n/a	26	13	5	7	1
3911824	PROB	n/a	LTP348	ltpFR2	6	n/a	n/a	n/a	26	15	4	8	3
3915822	PROB	n/a	LTP348	ltpFR2	6	n/a	n/a	n/a	26	13	4	8	5
3918720	PROB	n/a	LTP348	ltpFR2	6	n/a	n/a	n/a	26	8	1	4	3
3921269	PROB	n/a	LTP348	ltpFR2	6	n/a	n/a	n/a	26	5	1	1	3
3924846	STOP	n/a	LTP348	ltpFR2	6	n/a	n/a	n/a	26	n/a	n/a	n/a	n/a
3925667	WORD	wordpools/wasnorm_wordpool_576.txt	LTP348	ltpFR2	6	19	COCKTAIL	338	n/a	n/a	0	0	0
3928282	WORD	wordpools/wasnorm_wordpool_576.txt	LTP348	ltpFR2	6	19	GREASE	660	n/a	n/a	0	0	0
3930998	WORD	wordpools/wasnorm_wordpool_576.txt	LTP348	ltpFR2	6	19	YACHT	1629	n/a	n/a	0	0	0
3933463	WORD	wordpools/wasnorm_wordpool_576.txt	LTP348	ltpFR2	6	19	CREVICE	405	n/a	n/a	0	0	0
3936145	WORD	wordpools/wasnorm_wordpool_576.txt	LTP348	ltpFR2	6	19	STREAM	1392	n/a	n/a	0	0	0
3938594	WORD	wordpools/wasnorm_wordpool_576.txt	LTP348	ltpFR2	6	19	CUSTARD	429	n/a	n/a	0	0	0
3941193	WORD	wordpools/wasnorm_wordpool_576.txt	LTP348	ltpFR2	6	19	HATCHET	691	n/a	n/a	0	0	0
3943725	WORD	wordpools/wasnorm_wordpool_576.txt	LTP348	ltpFR2	6	19	PISTOL	1075	n/a	n/a	0	0	0
3946523	WORD	wordpools/wasnorm_wordpool_576.txt	LTP348	ltpFR2	6	19	STAPLE	1371	n/a	n/a	0	0	0
3949155	WORD	wordpools/wasnorm_wordpool_576.txt	LTP348	ltpFR2	6	19	PREACHER	1119	n/a	n/a	0	0	0
3951971	WORD	wordpools/wasnorm_wordpool_576.txt	LTP348	ltpFR2	6	19	DRUG	501	n/a	n/a	0	0	0
3954469	WORD	wordpools/wasnorm_wordpool_576.txt	LTP348	ltpFR2	6	19	TUNNEL	1519	n/a	n/a	0	0	0
3957068	WORD	wordpools/wasnorm_wordpool_576.txt	LTP348	ltpFR2	6	19	WAGON	1578	n/a	n/a	0	0	0
3959533	WORD	wordpools/wasnorm_wordpool_576.txt	LTP348	ltpFR2	6	19	SPOON	1357	n/a	n/a	0	0	0
3962132	WORD	wordpools/wasnorm_wordpool_576.txt	LTP348	ltpFR2	6	19	TABLE	1426	n/a	n/a	0	0	0
3964681	WORD	wordpools/wasnorm_wordpool_576.txt	LTP348	ltpFR2	6	19	JELLO	754	n/a	n/a	0	0	0
3967463	WORD	wordpools/wasnorm_wordpool_576.txt	LTP348	ltpFR2	6	19	GALLON	618	n/a	n/a	0	0	0
3970195	WORD	wordpools/wasnorm_wordpool_576.txt	LTP348	ltpFR2	6	19	BACON	67	n/a	n/a	0	0	0
3972977	WORD	wordpools/wasnorm_wordpool_576.txt	LTP348	ltpFR2	6	19	PECAN	1036	n/a	n/a	0	0	0
3975576	WORD	wordpools/wasnorm_wordpool_576.txt	LTP348	ltpFR2	6	19	VAGRANT	1544	n/a	n/a	0	0	0
3978324	WORD	wordpools/wasnorm_wordpool_576.txt	LTP348	ltpFR2	6	19	PLIERS	1089	n/a	n/a	0	0	0
3980940	WORD	wordpools/wasnorm_wordpool_576.txt	LTP348	ltpFR2	6	19	BANJO	82	n/a	n/a	0	0	0
3983388	WORD	wordpools/wasnorm_wordpool_576.txt	LTP348	ltpFR2	6	19	PIANO	1057	n/a	n/a	0	0	0
3986204	WORD	wordpools/wasnorm_wordpool_576.txt	LTP348	ltpFR2	6	19	AIRPORT	13	n/a	n/a	0	0	0
3987820	START	n/a	LTP348	ltpFR2	6	n/a	n/a	n/a	27	n/a	n/a	n/a	n/a
3988642	DISTRACTOR	n/a	LTP348	ltpFR2	6	19	n/a	n/a	n/a	n/a	0	0	0
3988652	PROB	n/a	LTP348	ltpFR2	6	n/a	n/a	n/a	27	13	2	8	3
3990901	PROB	n/a	LTP348	ltpFR2	6	n/a	n/a	n/a	27	8	1	3	4
3992717	PROB	n/a	LTP348	ltpFR2	6	n/a	n/a	n/a	27	20	7	6	7
3994499	PROB	n/a	LTP348	ltpFR2	6	n/a	n/a	n/a	27	5	2	2	1
3996265	PROB	n/a	LTP348	ltpFR2	6	n/a	n/a	n/a	27	12	9	2	1
3999414	PROB	n/a	LTP348	ltpFR2	6	n/a	n/a	n/a	27	12	9	2	1
4000663	PROB	n/a	LTP348	ltpFR2	6	n/a	n/a	n/a	27	15	5	9	1
4002995	PROB	n/a	LTP348	ltpFR2	6	n/a	n/a	n/a	27	8	1	3	4
4004778	PROB	n/a	LTP348	ltpFR2	6	n/a	n/a	n/a	27	11	2	7	2
4007526	PROB	n/a	LTP348	ltpFR2	6	n/a	n/a	n/a	27	20	3	8	9
4011016	STOP	n/a	LTP348	ltpFR2	6	n/a	n/a	n/a	27	n/a	n/a	n/a	n/a
4013658	REC_START	n/a	LTP348	ltpFR2	6	19	n/a	n/a	n/a	n/a	0	0	0
4013883	REC_WORD	wordpools/wasnorm_wordpool_576.txt	LTP348	ltpFR2	6	19	VAGRANT	1544	n/a	n/a	0	0	0
4014755	REC_WORD	wordpools/wasnorm_wordpool_576.txt	LTP348	ltpFR2	6	19	PERFUME	1049	n/a	n/a	0	0	0
4104095	DISTRACTOR	n/a	LTP348	ltpFR2	6	20	n/a	n/a	n/a	n/a	0	0	0
4104095	START	n/a	LTP348	ltpFR2	6	n/a	n/a	n/a	28	n/a	n/a	n/a	n/a
4104112	PROB	n/a	LTP348	ltpFR2	6	n/a	n/a	n/a	28	17	6	6	5
4108909	PROB	n/a	LTP348	ltpFR2	6	n/a	n/a	n/a	28	11	6	2	3
4112341	PROB	n/a	LTP348	ltpFR2	6	n/a	n/a	n/a	28	10	2	6	2
4114490	PROB	n/a	LTP348	ltpFR2	6	n/a	n/a	n/a	28	17	3	7	7
4117488	PROB	n/a	LTP348	ltpFR2	6	n/a	n/a	n/a	28	16	5	5	6
4118954	PROB	n/a	LTP348	ltpFR2	6	n/a	n/a	n/a	28	25	8	8	7
4124385	PROB	n/a	LTP348	ltpFR2	6	n/a	n/a	n/a	28	22	4	9	9
4127760	STOP	n/a	LTP348	ltpFR2	6	n/a	n/a	n/a	28	n/a	n/a	n/a	n/a
4129133	WORD	wordpools/wasnorm_wordpool_576.txt	LTP348	ltpFR2	6	20	SLUG	1329	n/a	n/a	0	0	0
4131798	WORD	wordpools/wasnorm_wordpool_576.txt	LTP348	ltpFR2	6	20	ARMY	39	n/a	n/a	0	0	0
4134330	WORD	wordpools/wasnorm_wordpool_576.txt	LTP348	ltpFR2	6	20	SCOTCH	1251	n/a	n/a	0	0	0
4136962	WORD	wordpools/wasnorm_wordpool_576.txt	LTP348	ltpFR2	6	20	ZIPPER	1636	n/a	n/a	0	0	0
4139411	WORD	wordpools/wasnorm_wordpool_576.txt	LTP348	ltpFR2	6	20	PLAID	1080	n/a	n/a	0	0	0
4142143	WORD	wordpools/wasnorm_wordpool_576.txt	LTP348	ltpFR2	6	20	PLATE	1086	n/a	n/a	0	0	0
4144758	WORD	wordpools/wasnorm_wordpool_576.txt	LTP348	ltpFR2	6	20	TERMITE	1451	n/a	n/a	0	0	0
4147274	WORD	wordpools/wasnorm_wordpool_576.txt	LTP348	ltpFR2	6	20	SPIDER	1351	n/a	n/a	0	0	0
4149839	WORD	wordpools/wasnorm_wordpool_576.txt	LTP348	ltpFR2	6	20	MARINE	869	n/a	n/a	0	0	0
4152404	WORD	wordpools/wasnorm_wordpool_576.txt	LTP348	ltpFR2	6	20	ULCER	1533	n/a	n/a	0	0	0
4155186	WORD	wordpools/wasnorm_wordpool_576.txt	LTP348	ltpFR2	6	20	OINTMENT	974	n/a	n/a	0	0	0
4157885	WORD	wordpools/wasnorm_wordpool_576.txt	LTP348	ltpFR2	6	20	SPACE	1345	n/a	n/a	0	0	0
4160550	WORD	wordpools/wasnorm_wordpool_576.txt	LTP348	ltpFR2	6	20	LUMBER	848	n/a	n/a	0	0	0
4163366	WORD	wordpools/wasnorm_wordpool_576.txt	LTP348	ltpFR2	6	20	COMET	353	n/a	n/a	0	0	0
4165848	WORD	wordpools/wasnorm_wordpool_576.txt	LTP348	ltpFR2	6	20	THRONE	1461	n/a	n/a	0	0	0
4168280	WORD	wordpools/wasnorm_wordpool_576.txt	LTP348	ltpFR2	6	20	MESSAGE	888	n/a	n/a	0	0	0
4171062	WORD	wordpools/wasnorm_wordpool_576.txt	LTP348	ltpFR2	6	20	HORSE	719	n/a	n/a	0	0	0
4173694	WORD	wordpools/wasnorm_wordpool_576.txt	LTP348	ltpFR2	6	20	LONDON	843	n/a	n/a	0	0	0
4176343	WORD	wordpools/wasnorm_wordpool_576.txt	LTP348	ltpFR2	6	20	BEAST	108	n/a	n/a	0	0	0
4178991	WORD	wordpools/wasnorm_wordpool_576.txt	LTP348	ltpFR2	6	20	CANAL	226	n/a	n/a	0	0	0
4181740	WORD	wordpools/wasnorm_wordpool_576.txt	LTP348	ltpFR2	6	20	ROCKET	1202	n/a	n/a	0	0	0
4184405	WORD	wordpools/wasnorm_wordpool_576.txt	LTP348	ltpFR2	6	20	POSTAGE	1113	n/a	n/a	0	0	0
4187054	WORD	wordpools/wasnorm_wordpool_576.txt	LTP348	ltpFR2	6	20	PILOT	1070	n/a	n/a	0	0	0
4189869	WORD	wordpools/wasnorm_wordpool_576.txt	LTP348	ltpFR2	6	20	ELBOW	520	n/a	n/a	0	0	0
4191485	START	n/a	LTP348	ltpFR2	6	n/a	n/a	n/a	29	n/a	n/a	n/a	n/a
4192575	DISTRACTOR	n/a	LTP348	ltpFR2	6	20	n/a	n/a	n/a	n/a	0	0	0
4192584	PROB	n/a	LTP348	ltpFR2	6	n/a	n/a	n/a	29	17	9	6	2
4197682	PROB	n/a	LTP348	ltpFR2	6	n/a	n/a	n/a	29	9	3	1	5
4200264	PROB	n/a	LTP348	ltpFR2	6	n/a	n/a	n/a	29	16	2	6	8
4203046	PROB	n/a	LTP348	ltpFR2	6	n/a	n/a	n/a	29	16	9	5	2
4206494	PROB	n/a	LTP348	ltpFR2	6	n/a	n/a	n/a	29	18	5	5	8
4208027	PROB	n/a	LTP348	ltpFR2	6	n/a	n/a	n/a	29	16	6	8	2
4210859	PROB	n/a	LTP348	ltpFR2	6	n/a	n/a	n/a	29	15	4	7	4
4215485	STOP	n/a	LTP348	ltpFR2	6	n/a	n/a	n/a	29	n/a	n/a	n/a	n/a
4217339	REC_START	n/a	LTP348	ltpFR2	6	20	n/a	n/a	n/a	n/a	0	0	0
4217647	REC_WORD	wordpools/wasnorm_wordpool_576.txt	LTP348	ltpFR2	6	20	ELBOW	520	n/a	n/a	0	0	0
4218392	REC_WORD	wordpools/wasnorm_wordpool_576.txt	LTP348	ltpFR2	6	20	SLUG	1329	n/a	n/a	0	0	0
4219344	REC_WORD	wordpools/wasnorm_wordpool_576.txt	LTP348	ltpFR2	6	20	ROCKET	1202	n/a	n/a	0	0	0
4228138	REC_WORD	wordpools/wasnorm_wordpool_576.txt	LTP348	ltpFR2	6	20	CLOUD	328	n/a	n/a	0	0	0
4230040	REC_WORD	wordpools/wasnorm_wordpool_576.txt	LTP348	ltpFR2	6	20	ACTOR	5	n/a	n/a	0	0	0
4235750	REC_WORD	wordpools/wasnorm_wordpool_576.txt	LTP348	ltpFR2	6	20	PLAID	1080	n/a	n/a	0	0	0
4238021	REC_WORD	wordpools/wasnorm_wordpool_576.txt	LTP348	ltpFR2	6	20	PAIL	1002	n/a	n/a	0	0	0
4246079	REC_WORD	wordpools/wasnorm_wordpool_576.txt	LTP348	ltpFR2	6	20	HORSE	719	n/a	n/a	0	0	0
4272462	REC_WORD	wordpools/wasnorm_wordpool_576.txt	LTP348	ltpFR2	6	20	VAGRANT	1544	n/a	n/a	0	0	0
4307777	DISTRACTOR	n/a	LTP348	ltpFR2	6	21	n/a	n/a	n/a	n/a	0	0	0
4307777	START	n/a	LTP348	ltpFR2	6	n/a	n/a	n/a	30	n/a	n/a	n/a	n/a
4307794	PROB	n/a	LTP348	ltpFR2	6	n/a	n/a	n/a	30	16	5	2	9
4311259	PROB	n/a	LTP348	ltpFR2	6	n/a	n/a	n/a	30	15	4	8	6
4315007	PROB	n/a	LTP348	ltpFR2	6	n/a	n/a	n/a	30	16	1	9	6
4317206	PROB	n/a	LTP348	ltpFR2	6	n/a	n/a	n/a	30	15	7	7	1
4318988	PROB	n/a	LTP348	ltpFR2	6	n/a	n/a	n/a	30	6	3	2	1
4321954	PROB	n/a	LTP348	ltpFR2	6	n/a	n/a	n/a	30	26	5	8	9
4326335	PROB	n/a	LTP348	ltpFR2	6	n/a	n/a	n/a	30	17	8	6	3
4330992	STOP	n/a	LTP348	ltpFR2	6	n/a	n/a	n/a	30	n/a	n/a	n/a	n/a
4332732	WORD	wordpools/wasnorm_wordpool_576.txt	LTP348	ltpFR2	6	21	MARKER	870	n/a	n/a	0	0	0
4335197	WORD	wordpools/wasnorm_wordpool_576.txt	LTP348	ltpFR2	6	21	GAVEL	627	n/a	n/a	0	0	0
4337829	WORD	wordpools/wasnorm_wordpool_576.txt	LTP348	ltpFR2	6	21	BANK	83	n/a	n/a	0	0	0
4340428	WORD	wordpools/wasnorm_wordpool_576.txt	LTP348	ltpFR2	6	21	SLIME	1327	n/a	n/a	0	0	0
4342960	WORD	wordpools/wasnorm_wordpool_576.txt	LTP348	ltpFR2	6	21	CLAMP	316	n/a	n/a	0	0	0
4345725	WORD	wordpools/wasnorm_wordpool_576.txt	LTP348	ltpFR2	6	21	ROBIN	1199	n/a	n/a	0	0	0
4348424	WORD	wordpools/wasnorm_wordpool_576.txt	LTP348	ltpFR2	6	21	CLOTHES	327	n/a	n/a	0	0	0
4351006	WORD	wordpools/wasnorm_wordpool_576.txt	LTP348	ltpFR2	6	21	BUREAU	199	n/a	n/a	0	0	0
4353571	WORD	wordpools/wasnorm_wordpool_576.txt	LTP348	ltpFR2	6	21	APPLE	33	n/a	n/a	0	0	0
4356003	WORD	wordpools/wasnorm_wordpool_576.txt	LTP348	ltpFR2	6	21	ASIA	46	n/a	n/a	0	0	0
4358469	WORD	wordpools/wasnorm_wordpool_576.txt	LTP348	ltpFR2	6	21	VALLEY	1545	n/a	n/a	0	0	0
4361001	WORD	wordpools/wasnorm_wordpool_576.txt	LTP348	ltpFR2	6	21	PERMIT	1051	n/a	n/a	0	0	0
4363483	WORD	wordpools/wasnorm_wordpool_576.txt	LTP348	ltpFR2	6	21	BUBBLE	183	n/a	n/a	0	0	0
4366148	WORD	wordpools/wasnorm_wordpool_576.txt	LTP348	ltpFR2	6	21	COLONEL	348	n/a	n/a	0	0	0
4368814	WORD	wordpools/wasnorm_wordpool_576.txt	LTP348	ltpFR2	6	21	FLEET	578	n/a	n/a	0	0	0
4371596	WORD	wordpools/wasnorm_wordpool_576.txt	LTP348	ltpFR2	6	21	FIREMAN	569	n/a	n/a	0	0	0
4374111	WORD	wordpools/wasnorm_wordpool_576.txt	LTP348	ltpFR2	6	21	BADGE	68	n/a	n/a	0	0	0
4376543	WORD	wordpools/wasnorm_wordpool_576.txt	LTP348	ltpFR2	6	21	LUGGAGE	847	n/a	n/a	0	0	0
4379125	WORD	wordpools/wasnorm_wordpool_576.txt	LTP348	ltpFR2	6	21	PAPER	1011	n/a	n/a	0	0	0
4381657	WORD	wordpools/wasnorm_wordpool_576.txt	LTP348	ltpFR2	6	21	PACKAGE	997	n/a	n/a	0	0	0
4384106	WORD	wordpools/wasnorm_wordpool_576.txt	LTP348	ltpFR2	6	21	LODGE	839	n/a	n/a	0	0	0
4386688	WORD	wordpools/wasnorm_wordpool_576.txt	LTP348	ltpFR2	6	21	PIGMENT	1066	n/a	n/a	0	0	0
4389370	WORD	wordpools/wasnorm_wordpool_576.txt	LTP348	ltpFR2	6	21	SHERIFF	1284	n/a	n/a	0	0	0
4391819	WORD	wordpools/wasnorm_wordpool_576.txt	LTP348	ltpFR2	6	21	SKILLET	1317	n/a	n/a	0	0	0
4393435	START	n/a	LTP348	ltpFR2	6	n/a	n/a	n/a	31	n/a	n/a	n/a	n/a
4394336	DISTRACTOR	n/a	LTP348	ltpFR2	6	21	n/a	n/a	n/a	n/a	0	0	0
4394351	PROB	n/a	LTP348	ltpFR2	6	n/a	n/a	n/a	31	12	3	2	7
4399248	PROB	n/a	LTP348	ltpFR2	6	n/a	n/a	n/a	31	17	2	6	9
4403196	PROB	n/a	LTP348	ltpFR2	6	n/a	n/a	n/a	31	13	5	3	5
4405179	PROB	n/a	LTP348	ltpFR2	6	n/a	n/a	n/a	31	14	7	8	2
4407494	PROB	n/a	LTP348	ltpFR2	6	n/a	n/a	n/a	31	21	3	9	9
4410926	PROB	n/a	LTP348	ltpFR2	6	n/a	n/a	n/a	31	18	3	7	8
4417434	STOP	n/a	LTP348	ltpFR2	6	n/a	n/a	n/a	31	n/a	n/a	n/a	n/a
4419189	REC_START	n/a	LTP348	ltpFR2	6	21	n/a	n/a	n/a	n/a	0	0	0
4419787	REC_WORD	wordpools/wasnorm_wordpool_576.txt	LTP348	ltpFR2	6	21	SKILLET	1317	n/a	n/a	0	0	0
4422359	REC_WORD	wordpools/wasnorm_wordpool_576.txt	LTP348	ltpFR2	6	21	CHAUFFEUR	283	n/a	n/a	0	0	0
4423827	REC_WORD	wordpools/wasnorm_wordpool_576.txt	LTP348	ltpFR2	6	21	BUREAU	199	n/a	n/a	0	0	0
4425648	REC_WORD	wordpools/wasnorm_wordpool_576.txt	LTP348	ltpFR2	6	21	DAISY	435	n/a	n/a	0	0	0
4428144	REC_WORD	wordpools/wasnorm_wordpool_576.txt	LTP348	ltpFR2	6	21	ROBIN	1199	n/a	n/a	0	0	0
4432487	REC_WORD	wordpools/wasnorm_wordpool_576.txt	LTP348	ltpFR2	6	21	CLOTHES	327	n/a	n/a	0	0	0
4439044	REC_WORD	wordpools/wasnorm_wordpool_576.txt	LTP348	ltpFR2	6	21	AIRPLANE	12	n/a	n/a	0	0	0
4439828	REC_WORD	wordpools/wasnorm_wordpool_576.txt	LTP348	ltpFR2	6	21	AIRPORT	13	n/a	n/a	0	0	0
4441457	REC_WORD	wordpools/wasnorm_wordpool_576.txt	LTP348	ltpFR2	6	21	ASIA	46	n/a	n/a	0	0	0
4442330	REC_WORD	wordpools/wasnorm_wordpool_576.txt	LTP348	ltpFR2	6	21	EUROPE	541	n/a	n/a	0	0	0
4465397	REC_WORD	wordpools/wasnorm_wordpool_576.txt	LTP348	ltpFR2	6	21	COCKTAIL	338	n/a	n/a	0	0	0
4469349	REC_WORD	wordpools/wasnorm_wordpool_576.txt	LTP348	ltpFR2	6	21	HUMAN	726	n/a	n/a	0	0	0
4509627	DISTRACTOR	n/a	LTP348	ltpFR2	6	22	n/a	n/a	n/a	n/a	0	0	0
4509627	START	n/a	LTP348	ltpFR2	6	n/a	n/a	n/a	32	n/a	n/a	n/a	n/a
4509644	PROB	n/a	LTP348	ltpFR2	6	n/a	n/a	n/a	32	6	1	2	3
4512092	PROB	n/a	LTP348	ltpFR2	6	n/a	n/a	n/a	32	13	9	2	2
4516590	PROB	n/a	LTP348	ltpFR2	6	n/a	n/a	n/a	32	12	2	2	8
4519006	PROB	n/a	LTP348	ltpFR2	6	n/a	n/a	n/a	32	20	3	8	9
4524686	PROB	n/a	LTP348	ltpFR2	6	n/a	n/a	n/a	32	11	3	1	7
4526935	PROB	n/a	LTP348	ltpFR2	6	n/a	n/a	n/a	32	17	5	8	6
4533088	STOP	n/a	LTP348	ltpFR2	6	n/a	n/a	n/a	32	n/a	n/a	n/a	n/a
4534465	WORD	wordpools/wasnorm_wordpool_576.txt	LTP348	ltpFR2	6	22	GANGSTER	620	n/a	n/a	0	0	0
4536963	WORD	wordpools/wasnorm_wordpool_576.txt	LTP348	ltpFR2	6	22	REPORT	1184	n/a	n/a	0	0	0
4539512	WORD	wordpools/wasnorm_wordpool_576.txt	LTP348	ltpFR2	6	22	BACKBONE	66	n/a	n/a	0	0	0
4542277	WORD	wordpools/wasnorm_wordpool_576.txt	LTP348	ltpFR2	6	22	BLOCKADE	137	n/a	n/a	0	0	0
4545093	WORD	wordpools/wasnorm_wordpool_576.txt	LTP348	ltpFR2	6	22	BRAKE	166	n/a	n/a	0	0	0
4547658	WORD	wordpools/wasnorm_wordpool_576.txt	LTP348	ltpFR2	6	22	FEMALE	559	n/a	n/a	0	0	0
4550423	WORD	wordpools/wasnorm_wordpool_576.txt	LTP348	ltpFR2	6	22	STATUE	1374	n/a	n/a	0	0	0
4553005	WORD	wordpools/wasnorm_wordpool_576.txt	LTP348	ltpFR2	6	22	PASTRY	1022	n/a	n/a	0	0	0
4555671	WORD	wordpools/wasnorm_wordpool_576.txt	LTP348	ltpFR2	6	22	COLLEGE	346	n/a	n/a	0	0	0
4558469	WORD	wordpools/wasnorm_wordpool_576.txt	LTP348	ltpFR2	6	22	FRIEND	606	n/a	n/a	0	0	0
4561035	WORD	wordpools/wasnorm_wordpool_576.txt	LTP348	ltpFR2	6	22	RECEIPT	1173	n/a	n/a	0	0	0
4563534	WORD	wordpools/wasnorm_wordpool_576.txt	LTP348	ltpFR2	6	22	BROOK	177	n/a	n/a	0	0	0
4566232	WORD	wordpools/wasnorm_wordpool_576.txt	LTP348	ltpFR2	6	22	MARROW	872	n/a	n/a	0	0	0
4568831	WORD	wordpools/wasnorm_wordpool_576.txt	LTP348	ltpFR2	6	22	TART	1436	n/a	n/a	0	0	0
4571396	WORD	wordpools/wasnorm_wordpool_576.txt	LTP348	ltpFR2	6	22	CITRUS	313	n/a	n/a	0	0	0
4573962	WORD	wordpools/wasnorm_wordpool_576.txt	LTP348	ltpFR2	6	22	NECKLACE	940	n/a	n/a	0	0	0
4576544	WORD	wordpools/wasnorm_wordpool_576.txt	LTP348	ltpFR2	6	22	MEDAL	885	n/a	n/a	0	0	0
4579176	WORD	wordpools/wasnorm_wordpool_576.txt	LTP348	ltpFR2	6	22	BROTHER	179	n/a	n/a	0	0	0
4581958	WORD	wordpools/wasnorm_wordpool_576.txt	LTP348	ltpFR2	6	22	DRAGON	492	n/a	n/a	0	0	0
4584706	WORD	wordpools/wasnorm_wordpool_576.txt	LTP348	ltpFR2	6	22	CLOCK	325	n/a	n/a	0	0	0
4587222	WORD	wordpools/wasnorm_wordpool_576.txt	LTP348	ltpFR2	6	22	VENUS	1557	n/a	n/a	0	0	0
4589671	WORD	wordpools/wasnorm_wordpool_576.txt	LTP348	ltpFR2	6	22	PUDDLE	1140	n/a	n/a	0	0	0
4592419	WORD	wordpools/wasnorm_wordpool_576.txt	LTP348	ltpFR2	6	22	SHELTER	1282	n/a	n/a	0	0	0
4595085	WORD	wordpools/wasnorm_wordpool_576.txt	LTP348	ltpFR2	6	22	INFANT	737	n/a	n/a	0	0	0
4596701	START	n/a	LTP348	ltpFR2	6	n/a	n/a	n/a	33	n/a	n/a	n/a	n/a
4597683	DISTRACTOR	n/a	LTP348	ltpFR2	6	22	n/a	n/a	n/a	n/a	0	0	0
4597700	PROB	n/a	LTP348	ltpFR2	6	n/a	n/a	n/a	33	16	9	3	4
4603664	PROB	n/a	LTP348	ltpFR2	6	n/a	n/a	n/a	33	14	2	5	7
4607512	PROB	n/a	LTP348	ltpFR2	6	n/a	n/a	n/a	33	17	2	6	9
4612776	PROB	n/a	LTP348	ltpFR2	6	n/a	n/a	n/a	33	13	4	5	4
4620701	STOP	n/a	LTP348	ltpFR2	6	n/a	n/a	n/a	33	n/a	n/a	n/a	n/a
4622538	REC_START	n/a	LTP348	ltpFR2	6	22	n/a	n/a	n/a	n/a	0	0	0
4623299	REC_WORD	wordpools/wasnorm_wordpool_576.txt	LTP348	ltpFR2	6	22	GANGSTER	620	n/a	n/a	0	0	0
4623959	REC_WORD	wordpools/wasnorm_wordpool_576.txt	LTP348	ltpFR2	6	22	NECKLACE	940	n/a	n/a	0	0	0
4624765	REC_WORD	wordpools/wasnorm_wordpool_576.txt	LTP348	ltpFR2	6	22	MEDAL	885	n/a	n/a	0	0	0
4627018	REC_WORD	wordpools/wasnorm_wordpool_576.txt	LTP348	ltpFR2	6	22	BACKBONE	66	n/a	n/a	0	0	0
4627857	REC_WORD	wordpools/wasnorm_wordpool_576.txt	LTP348	ltpFR2	6	22	BROOK	177	n/a	n/a	0	0	0
4628509	REC_WORD	wordpools/wasnorm_wordpool_576.txt	LTP348	ltpFR2	6	22	BONE	148	n/a	n/a	0	0	0
4629503	REC_WORD	wordpools/wasnorm_wordpool_576.txt	LTP348	ltpFR2	6	22	BRAKE	166	n/a	n/a	0	0	0
4651657	REC_WORD	wordpools/wasnorm_wordpool_576.txt	LTP348	ltpFR2	6	22	MONEY	908	n/a	n/a	0	0	0
4656382	REC_WORD	wordpools/wasnorm_wordpool_576.txt	LTP348	ltpFR2	6	22	RIVER	1194	n/a	n/a	0	0	0
4661418	REC_WORD	wordpools/wasnorm_wordpool_576.txt	LTP348	ltpFR2	6	22	HORSE	719	n/a	n/a	0	0	0
4662402	REC_WORD	wordpools/wasnorm_wordpool_576.txt	LTP348	ltpFR2	6	22	OWL	992	n/a	n/a	0	0	0
4664542	REC_WORD	wordpools/wasnorm_wordpool_576.txt	LTP348	ltpFR2	6	22	TART	1436	n/a	n/a	0	0	0
4665132	REC_WORD	wordpools/wasnorm_wordpool_576.txt	LTP348	ltpFR2	6	22	CITRUS	313	n/a	n/a	0	0	0
4692595	REC_WORD	wordpools/wasnorm_wordpool_576.txt	LTP348	ltpFR2	6	22	WAGON	1578	n/a	n/a	0	0	0
4712993	WORD	wordpools/wasnorm_wordpool_576.txt	LTP348	ltpFR2	6	23	VELVET	1555	n/a	n/a	0	0	0
4715541	WORD	wordpools/wasnorm_wordpool_576.txt	LTP348	ltpFR2	6	23	PASSAGE	1019	n/a	n/a	0	0	0
4718290	WORD	wordpools/wasnorm_wordpool_576.txt	LTP348	ltpFR2	6	23	TEMPLE	1448	n/a	n/a	0	0	0
4721039	WORD	wordpools/wasnorm_wordpool_576.txt	LTP348	ltpFR2	6	23	SMOG	1330	n/a	n/a	0	0	0
4723837	WORD	wordpools/wasnorm_wordpool_576.txt	LTP348	ltpFR2	6	23	NIGHTGOWN	953	n/a	n/a	0	0	0
4726586	WORD	wordpools/wasnorm_wordpool_576.txt	LTP348	ltpFR2	6	23	COUNTRY	388	n/a	n/a	0	0	0
4729285	WORD	wordpools/wasnorm_wordpool_576.txt	LTP348	ltpFR2	6	23	GLOBE	641	n/a	n/a	0	0	0
4731883	WORD	wordpools/wasnorm_wordpool_576.txt	LTP348	ltpFR2	6	23	RELISH	1183	n/a	n/a	0	0	0
4734332	WORD	wordpools/wasnorm_wordpool_576.txt	LTP348	ltpFR2	6	23	GRILL	661	n/a	n/a	0	0	0
4737097	WORD	wordpools/wasnorm_wordpool_576.txt	LTP348	ltpFR2	6	23	TRUCK	1512	n/a	n/a	0	0	0
4739863	WORD	wordpools/wasnorm_wordpool_576.txt	LTP348	ltpFR2	6	23	FUNGUS	614	n/a	n/a	0	0	0
4742661	WORD	wordpools/wasnorm_wordpool_576.txt	LTP348	ltpFR2	6	23	MILDEW	893	n/a	n/a	0	0	0
4745277	WORD	wordpools/wasnorm_wordpool_576.txt	LTP348	ltpFR2	6	23	CASHIER	254	n/a	n/a	0	0	0
4748075	WORD	wordpools/wasnorm_wordpool_576.txt	LTP348	ltpFR2	6	23	GLOVE	642	n/a	n/a	0	0	0
4750524	WORD	wordpools/wasnorm_wordpool_576.txt	LTP348	ltpFR2	6	23	RACKET	1155	n/a	n/a	0	0	0
4752956	WORD	wordpools/wasnorm_wordpool_576.txt	LTP348	ltpFR2	6	23	JUGGLER	763	n/a	n/a	0	0	0
4755622	WORD	wordpools/wasnorm_wordpool_576.txt	LTP348	ltpFR2	6	23	CARROT	249	n/a	n/a	0	0	0
4758337	WORD	wordpools/wasnorm_wordpool_576.txt	LTP348	ltpFR2	6	23	AUTHOR	61	n/a	n/a	0	0	0
4761069	WORD	wordpools/wasnorm_wordpool_576.txt	LTP348	ltpFR2	6	23	FINGER	567	n/a	n/a	0	0	0
4763884	WORD	wordpools/wasnorm_wordpool_576.txt	LTP348	ltpFR2	6	23	GARBAGE	622	n/a	n/a	0	0	0
4766699	WORD	wordpools/wasnorm_wordpool_576.txt	LTP348	ltpFR2	6	23	THIEF	1456	n/a	n/a	0	0	0
4769381	WORD	wordpools/wasnorm_wordpool_576.txt	LTP348	ltpFR2	6	23	HEDGE	699	n/a	n/a	0	0	0
4771897	WORD	wordpools/wasnorm_wordpool_576.txt	LTP348	ltpFR2	6	23	LIGHTNING	820	n/a	n/a	0	0	0
4774695	WORD	wordpools/wasnorm_wordpool_576.txt	LTP348	ltpFR2	6	23	HAND	683	n/a	n/a	0	0	0
4776312	START	n/a	LTP348	ltpFR2	6	n/a	n/a	n/a	34	n/a	n/a	n/a	n/a
4777497	DISTRACTOR	n/a	LTP348	ltpFR2	6	23	n/a	n/a	n/a	n/a	0	0	0
4777511	PROB	n/a	LTP348	ltpFR2	6	n/a	n/a	n/a	34	20	3	8	9
4782658	PROB	n/a	LTP348	ltpFR2	6	n/a	n/a	n/a	34	14	8	5	1
4786856	PROB	n/a	LTP348	ltpFR2	6	n/a	n/a	n/a	34	15	1	7	5
4790604	PROB	n/a	LTP348	ltpFR2	6	n/a	n/a	n/a	34	14	9	2	3
4793669	PROB	n/a	LTP348	ltpFR2	6	n/a	n/a	n/a	34	8	3	2	3
4796584	PROB	n/a	LTP348	ltpFR2	6	n/a	n/a	n/a	34	9	3	3	3
4800311	STOP	n/a	LTP348	ltpFR2	6	n/a	n/a	n/a	34	n/a	n/a	n/a	n/a
4802199	REC_START	n/a	LTP348	ltpFR2	6	23	n/a	n/a	n/a	n/a	0	0	0
4802199	REC_WORD	wordpools/wasnorm_wordpool_576.txt	LTP348	ltpFR2	6	23	THIEF	1456	n/a	n/a	0	0	0
4804002	REC_WORD	wordpools/wasnorm_wordpool_576.txt	LTP348	ltpFR2	6	23	NIGHTGOWN	953	n/a	n/a	0	0	0
4805987	REC_WORD	wordpools/wasnorm_wordpool_576.txt	LTP348	ltpFR2	6	23	VELVET	1555	n/a	n/a	0	0	0
4813369	REC_WORD	wordpools/wasnorm_wordpool_576.txt	LTP348	ltpFR2	6	23	BURGLAR	200	n/a	n/a	0	0	0
4829936	REC_WORD	wordpools/wasnorm_wordpool_576.txt	LTP348	ltpFR2	6	23	ROBBER	1197	n/a	n/a	0	0	0
4831401	REC_WORD_VV	wordpools/wasnorm_wordpool_576.txt	LTP348	ltpFR2	6	23	<>	-1	n/a	n/a	0	0	0
4855527	REC_WORD_VV	wordpools/wasnorm_wordpool_576.txt	LTP348	ltpFR2	6	23	<>	-1	n/a	n/a	0	0	0
4874909	REC_WORD	wordpools/wasnorm_wordpool_576.txt	LTP348	ltpFR2	6	23	RADIO	1157	n/a	n/a	0	0	0
4892637	DISTRACTOR	n/a	LTP348	ltpFR2	6	24	n/a	n/a	n/a	n/a	0	0	0
4892637	START	n/a	LTP348	ltpFR2	6	n/a	n/a	n/a	35	n/a	n/a	n/a	n/a
4892653	PROB	n/a	LTP348	ltpFR2	6	n/a	n/a	n/a	35	22	6	7	9
4900500	PROB	n/a	LTP348	ltpFR2	6	n/a	n/a	n/a	35	14	6	5	3
4905247	PROB	n/a	LTP348	ltpFR2	6	n/a	n/a	n/a	35	23	8	9	7
4910844	PROB	n/a	LTP348	ltpFR2	6	n/a	n/a	n/a	35	12	4	1	7
4916636	STOP	n/a	LTP348	ltpFR2	6	n/a	n/a	n/a	35	n/a	n/a	n/a	n/a
4917541	WORD	wordpools/wasnorm_wordpool_576.txt	LTP348	ltpFR2	6	24	HEART	697	n/a	n/a	0	0	0
4919973	WORD	wordpools/wasnorm_wordpool_576.txt	LTP348	ltpFR2	6	24	FLESH	579	n/a	n/a	0	0	0
4922572	WORD	wordpools/wasnorm_wordpool_576.txt	LTP348	ltpFR2	6	24	TEACHER	1440	n/a	n/a	0	0	0
4925287	WORD	wordpools/wasnorm_wordpool_576.txt	LTP348	ltpFR2	6	24	PEBBLE	1035	n/a	n/a	0	0	0
4927753	WORD	wordpools/wasnorm_wordpool_576.txt	LTP348	ltpFR2	6	24	SCISSORS	1250	n/a	n/a	0	0	0
4930335	WORD	wordpools/wasnorm_wordpool_576.txt	LTP348	ltpFR2	6	24	SUITCASE	1403	n/a	n/a	0	0	0
4932983	WORD	wordpools/wasnorm_wordpool_576.txt	LTP348	ltpFR2	6	24	LADDER	793	n/a	n/a	0	0	0
4935665	WORD	wordpools/wasnorm_wordpool_576.txt	LTP348	ltpFR2	6	24	SPOOL	1356	n/a	n/a	0	0	0
4938381	WORD	wordpools/wasnorm_wordpool_576.txt	LTP348	ltpFR2	6	24	GRAVEL	659	n/a	n/a	0	0	0
4941163	WORD	wordpools/wasnorm_wordpool_576.txt	LTP348	ltpFR2	6	24	SHRUB	1299	n/a	n/a	0	0	0
4943811	WORD	wordpools/wasnorm_wordpool_576.txt	LTP348	ltpFR2	6	24	UMPIRE	1535	n/a	n/a	0	0	0
4946293	WORD	wordpools/wasnorm_wordpool_576.txt	LTP348	ltpFR2	6	24	EAGLE	512	n/a	n/a	0	0	0
4948992	WORD	wordpools/wasnorm_wordpool_576.txt	LTP348	ltpFR2	6	24	CONTRACT	368	n/a	n/a	0	0	0
4951524	WORD	wordpools/wasnorm_wordpool_576.txt	LTP348	ltpFR2	6	24	DRIVER	499	n/a	n/a	0	0	0
4954290	WORD	wordpools/wasnorm_wordpool_576.txt	LTP348	ltpFR2	6	24	FLIPPER	580	n/a	n/a	0	0	0
4956988	WORD	wordpools/wasnorm_wordpool_576.txt	LTP348	ltpFR2	6	24	LIZARD	834	n/a	n/a	0	0	0
4959587	WORD	wordpools/wasnorm_wordpool_576.txt	LTP348	ltpFR2	6	24	GRAVE	658	n/a	n/a	0	0	0
4962352	WORD	wordpools/wasnorm_wordpool_576.txt	LTP348	ltpFR2	6	24	SPHINX	1349	n/a	n/a	0	0	0
4964834	WORD	wordpools/wasnorm_wordpool_576.txt	LTP348	ltpFR2	6	24	TWIG	1527	n/a	n/a	0	0	0
4967383	WORD	wordpools/wasnorm_wordpool_576.txt	LTP348	ltpFR2	6	24	WRIST	1626	n/a	n/a	0	0	0
4970215	WORD	wordpools/wasnorm_wordpool_576.txt	LTP348	ltpFR2	6	24	MAPLE	866	n/a	n/a	0	0	0
4972647	WORD	wordpools/wasnorm_wordpool_576.txt	LTP348	ltpFR2	6	24	NEUTRON	947	n/a	n/a	0	0	0
4975379	WORD	wordpools/wasnorm_wordpool_576.txt	LTP348	ltpFR2	6	24	PROTON	1132	n/a	n/a	0	0	0
4977911	WORD	wordpools/wasnorm_wordpool_576.txt	LTP348	ltpFR2	6	24	SHOULDER	1294	n/a	n/a	0	0	0
4979527	START	n/a	LTP348	ltpFR2	6	n/a	n/a	n/a	36	n/a	n/a	n/a	n/a
4980601	DISTRACTOR	n/a	LTP348	ltpFR2	6	24	n/a	n/a	n/a	n/a	0	0	0
4980610	PROB	n/a	LTP348	ltpFR2	6	n/a	n/a	n/a	36	20	5	9	6
4984991	PROB	n/a	LTP348	ltpFR2	6	n/a	n/a	n/a	36	22	4	9	9
4987040	PROB	n/a	LTP348	ltpFR2	6	n/a	n/a	n/a	36	22	7	5	9
4991438	PROB	n/a	LTP348	ltpFR2	6	n/a	n/a	n/a	36	15	8	2	5
4993637	PROB	n/a	LTP348	ltpFR2	6	n/a	n/a	n/a	36	19	1	9	9
4995836	PROB	n/a	LTP348	ltpFR2	6	n/a	n/a	n/a	36	12	4	5	3
5000034	PROB	n/a	LTP348	ltpFR2	6	n/a	n/a	n/a	36	20	6	6	8
5003526	STOP	n/a	LTP348	ltpFR2	6	n/a	n/a	n/a	36	n/a	n/a	n/a	n/a
5005481	REC_START	n/a	LTP348	ltpFR2	6	24	n/a	n/a	n/a	n/a	0	0	0
5005684	REC_WORD	wordpools/wasnorm_wordpool_576.txt	LTP348	ltpFR2	6	24	SHOULDER	1294	n/a	n/a	0	0	0
5006433	REC_WORD	wordpools/wasnorm_wordpool_576.txt	LTP348	ltpFR2	6	24	SHOVEL	1295	n/a	n/a	0	0	0
5007405	REC_WORD	wordpools/wasnorm_wordpool_576.txt	LTP348	ltpFR2	6	24	GRAVEL	659	n/a	n/a	0	0	0
5016795	REC_WORD	wordpools/wasnorm_wordpool_576.txt	LTP348	ltpFR2	6	24	ANKLE	24	n/a	n/a	0	0	0
5041254	REC_WORD	wordpools/wasnorm_wordpool_576.txt	LTP348	ltpFR2	6	24	TRAVEL	-1	n/a	n/a	0	0	0
5056388	REC_WORD	wordpools/wasnorm_wordpool_576.txt	LTP348	ltpFR2	6	24	NURSE	963	n/a	n/a	0	0	0
5063003	REC_WORD	wordpools/wasnorm_wordpool_576.txt	LTP348	ltpFR2	6	24	PISTOL	1075	n/a	n/a	0	0	0
5063820	REC_WORD	wordpools/wasnorm_wordpool_576.txt	LTP348	ltpFR2	6	24	RIFLE	1192	n/a	n/a	0	0	0
5065911	REC_WORD	wordpools/wasnorm_wordpool_576.txt	LTP348	ltpFR2	6	24	PISTON	1076	n/a	n/a	0	0	0
5068354	REC_WORD_VV	wordpools/wasnorm_wordpool_576.txt	LTP348	ltpFR2	6	24	<>	-1	n/a	n/a	0	0	0
5088290	SESS_END	n/a	LTP348	ltpFR2	6	24	n/a	n/a	n/a	n/a	0	0	0
