mstime	trial_type	stim_file	subject	experiment	session	trial	task	item_name	item_num	recog_conf	resp	answer	test_x	test_y	test_z	color_b	color_g	color_r	case	font
0	SESS_START	n/a	LTP197	ltpFR	7	n/a	n/a	n/a	n/a	4	n/a	n/a	0	0	0	n/a	n/a	n/a	n/a	n/a
138473	START	n/a	LTP197	ltpFR	7	n/a	n/a	n/a	n/a	n/a	n/a	n/a	n/a	n/a	n/a	n/a	n/a	n/a	n/a	n/a
138522	PROB	n/a	LTP197	ltpFR	7	n/a	n/a	n/a	n/a	n/a	n/a	15	8	5	2	n/a	n/a	n/a	n/a	n/a
144177	PROB	n/a	LTP197	ltpFR	7	n/a	n/a	n/a	n/a	n/a	n/a	22	9	9	4	n/a	n/a	n/a	n/a	n/a
148935	PROB	n/a	LTP197	ltpFR	7	n/a	n/a	n/a	n/a	n/a	n/a	22	9	9	4	n/a	n/a	n/a	n/a	n/a
152916	PROB	n/a	LTP197	ltpFR	7	n/a	n/a	n/a	n/a	n/a	n/a	7	1	4	2	n/a	n/a	n/a	n/a	n/a
155460	PROB	n/a	LTP197	ltpFR	7	n/a	n/a	n/a	n/a	n/a	n/a	20	6	6	8	n/a	n/a	n/a	n/a	n/a
157961	STOP	n/a	LTP197	ltpFR	7	n/a	n/a	n/a	n/a	n/a	n/a	n/a	n/a	n/a	n/a	n/a	n/a	n/a	n/a	n/a
266662	START	n/a	LTP197	ltpFR	7	n/a	n/a	n/a	n/a	n/a	n/a	n/a	n/a	n/a	n/a	n/a	n/a	n/a	n/a	n/a
268178	PROB	n/a	LTP197	ltpFR	7	n/a	n/a	n/a	n/a	n/a	n/a	4	1	2	1	n/a	n/a	n/a	n/a	n/a
271497	PROB	n/a	LTP197	ltpFR	7	n/a	n/a	n/a	n/a	n/a	n/a	9	3	3	3	n/a	n/a	n/a	n/a	n/a
273442	STOP	n/a	LTP197	ltpFR	7	n/a	n/a	n/a	n/a	n/a	n/a	n/a	n/a	n/a	n/a	n/a	n/a	n/a	n/a	n/a
275489	WORD	wordpools/wasnorm_wordpool_less_exclusions.txt	LTP197	ltpFR	7	1	0	BUCKLE	185	n/a	0	n/a	0	0	0	0	0.5869140625	0.422607421875	upper	../fonts/amplitud.ttf
278500	START	n/a	LTP197	ltpFR	7	n/a	n/a	n/a	n/a	n/a	n/a	n/a	n/a	n/a	n/a	n/a	n/a	n/a	n/a	n/a
279461	PROB	n/a	LTP197	ltpFR	7	n/a	n/a	n/a	n/a	n/a	n/a	17	5	6	6	n/a	n/a	n/a	n/a	n/a
282672	PROB	n/a	LTP197	ltpFR	7	n/a	n/a	n/a	n/a	n/a	n/a	23	9	7	7	n/a	n/a	n/a	n/a	n/a
285945	STOP	n/a	LTP197	ltpFR	7	n/a	n/a	n/a	n/a	n/a	n/a	n/a	n/a	n/a	n/a	n/a	n/a	n/a	n/a	n/a
287418	WORD	wordpools/wasnorm_wordpool_less_exclusions.txt	LTP197	ltpFR	7	1	0	BOAT	144	n/a	1	n/a	0	0	0	0	0.5869140625	0.422607421875	upper	../fonts/amplitud.ttf
290430	START	n/a	LTP197	ltpFR	7	n/a	n/a	n/a	n/a	n/a	n/a	n/a	n/a	n/a	n/a	n/a	n/a	n/a	n/a	n/a
291333	PROB	n/a	LTP197	ltpFR	7	n/a	n/a	n/a	n/a	n/a	n/a	12	1	2	9	n/a	n/a	n/a	n/a	n/a
293707	PROB	n/a	LTP197	ltpFR	7	n/a	n/a	n/a	n/a	n/a	n/a	14	6	5	3	n/a	n/a	n/a	n/a	n/a
298430	STOP	n/a	LTP197	ltpFR	7	n/a	n/a	n/a	n/a	n/a	n/a	n/a	n/a	n/a	n/a	n/a	n/a	n/a	n/a	n/a
299285	WORD	wordpools/wasnorm_wordpool_less_exclusions.txt	LTP197	ltpFR	7	1	0	INSECT	740	n/a	0	n/a	0	0	0	0	0.5869140625	0.422607421875	upper	../fonts/amplitud.ttf
302297	START	n/a	LTP197	ltpFR	7	n/a	n/a	n/a	n/a	n/a	n/a	n/a	n/a	n/a	n/a	n/a	n/a	n/a	n/a	n/a
303301	PROB	n/a	LTP197	ltpFR	7	n/a	n/a	n/a	n/a	n/a	n/a	19	4	7	8	n/a	n/a	n/a	n/a	n/a
306757	PROB	n/a	LTP197	ltpFR	7	n/a	n/a	n/a	n/a	n/a	n/a	11	6	4	1	n/a	n/a	n/a	n/a	n/a
308430	PROB	n/a	LTP197	ltpFR	7	n/a	n/a	n/a	n/a	n/a	n/a	19	1	9	9	n/a	n/a	n/a	n/a	n/a
310185	STOP	n/a	LTP197	ltpFR	7	n/a	n/a	n/a	n/a	n/a	n/a	n/a	n/a	n/a	n/a	n/a	n/a	n/a	n/a	n/a
311246	WORD	wordpools/wasnorm_wordpool_less_exclusions.txt	LTP197	ltpFR	7	1	0	BREAD	170	n/a	0	n/a	0	0	0	0	0.5869140625	0.422607421875	upper	../fonts/amplitud.ttf
314258	START	n/a	LTP197	ltpFR	7	n/a	n/a	n/a	n/a	n/a	n/a	n/a	n/a	n/a	n/a	n/a	n/a	n/a	n/a	n/a
315446	PROB	n/a	LTP197	ltpFR	7	n/a	n/a	n/a	n/a	n/a	n/a	15	7	2	6	n/a	n/a	n/a	n/a	n/a
318808	PROB	n/a	LTP197	ltpFR	7	n/a	n/a	n/a	n/a	n/a	n/a	16	8	5	3	n/a	n/a	n/a	n/a	n/a
321657	STOP	n/a	LTP197	ltpFR	7	n/a	n/a	n/a	n/a	n/a	n/a	n/a	n/a	n/a	n/a	n/a	n/a	n/a	n/a	n/a
323158	WORD	wordpools/wasnorm_wordpool_less_exclusions.txt	LTP197	ltpFR	7	1	0	BELLY	119	n/a	1	n/a	0	0	0	0	0.5869140625	0.422607421875	upper	../fonts/amplitud.ttf
326170	START	n/a	LTP197	ltpFR	7	n/a	n/a	n/a	n/a	n/a	n/a	n/a	n/a	n/a	n/a	n/a	n/a	n/a	n/a	n/a
327156	PROB	n/a	LTP197	ltpFR	7	n/a	n/a	n/a	n/a	n/a	n/a	14	2	4	8	n/a	n/a	n/a	n/a	n/a
329460	PROB	n/a	LTP197	ltpFR	7	n/a	n/a	n/a	n/a	n/a	n/a	7	1	2	4	n/a	n/a	n/a	n/a	n/a
331282	PROB	n/a	LTP197	ltpFR	7	n/a	n/a	n/a	n/a	n/a	n/a	18	2	8	8	n/a	n/a	n/a	n/a	n/a
333489	STOP	n/a	LTP197	ltpFR	7	n/a	n/a	n/a	n/a	n/a	n/a	n/a	n/a	n/a	n/a	n/a	n/a	n/a	n/a	n/a
335355	WORD	wordpools/wasnorm_wordpool_less_exclusions.txt	LTP197	ltpFR	7	1	0	HEART	697	n/a	0	n/a	0	0	0	0	0.5869140625	0.422607421875	upper	../fonts/amplitud.ttf
338377	START	n/a	LTP197	ltpFR	7	n/a	n/a	n/a	n/a	n/a	n/a	n/a	n/a	n/a	n/a	n/a	n/a	n/a	n/a	n/a
339536	PROB	n/a	LTP197	ltpFR	7	n/a	n/a	n/a	n/a	n/a	n/a	17	8	5	4	n/a	n/a	n/a	n/a	n/a
341661	PROB	n/a	LTP197	ltpFR	7	n/a	n/a	n/a	n/a	n/a	n/a	15	1	8	6	n/a	n/a	n/a	n/a	n/a
343435	PROB	n/a	LTP197	ltpFR	7	n/a	n/a	n/a	n/a	n/a	n/a	14	4	6	4	n/a	n/a	n/a	n/a	n/a
344904	STOP	n/a	LTP197	ltpFR	7	n/a	n/a	n/a	n/a	n/a	n/a	n/a	n/a	n/a	n/a	n/a	n/a	n/a	n/a	n/a
347461	WORD	wordpools/wasnorm_wordpool_less_exclusions.txt	LTP197	ltpFR	7	1	0	HUT	729	n/a	1	n/a	0	0	0	0	0.5869140625	0.422607421875	upper	../fonts/amplitud.ttf
350472	START	n/a	LTP197	ltpFR	7	n/a	n/a	n/a	n/a	n/a	n/a	n/a	n/a	n/a	n/a	n/a	n/a	n/a	n/a	n/a
351432	PROB	n/a	LTP197	ltpFR	7	n/a	n/a	n/a	n/a	n/a	n/a	10	4	3	3	n/a	n/a	n/a	n/a	n/a
353974	PROB	n/a	LTP197	ltpFR	7	n/a	n/a	n/a	n/a	n/a	n/a	17	8	2	7	n/a	n/a	n/a	n/a	n/a
358471	STOP	n/a	LTP197	ltpFR	7	n/a	n/a	n/a	n/a	n/a	n/a	n/a	n/a	n/a	n/a	n/a	n/a	n/a	n/a	n/a
359322	WORD	wordpools/wasnorm_wordpool_less_exclusions.txt	LTP197	ltpFR	7	1	0	PALACE	1006	n/a	1	n/a	0	0	0	0	0.5869140625	0.422607421875	upper	../fonts/amplitud.ttf
362334	START	n/a	LTP197	ltpFR	7	n/a	n/a	n/a	n/a	n/a	n/a	n/a	n/a	n/a	n/a	n/a	n/a	n/a	n/a	n/a
363276	PROB	n/a	LTP197	ltpFR	7	n/a	n/a	n/a	n/a	n/a	n/a	19	9	9	1	n/a	n/a	n/a	n/a	n/a
365635	PROB	n/a	LTP197	ltpFR	7	n/a	n/a	n/a	n/a	n/a	n/a	16	3	7	6	n/a	n/a	n/a	n/a	n/a
367525	PROB	n/a	LTP197	ltpFR	7	n/a	n/a	n/a	n/a	n/a	n/a	13	3	7	3	n/a	n/a	n/a	n/a	n/a
369298	STOP	n/a	LTP197	ltpFR	7	n/a	n/a	n/a	n/a	n/a	n/a	n/a	n/a	n/a	n/a	n/a	n/a	n/a	n/a	n/a
371458	WORD	wordpools/wasnorm_wordpool_less_exclusions.txt	LTP197	ltpFR	7	1	0	DICE	461	n/a	0	n/a	0	0	0	0	0.5869140625	0.422607421875	upper	../fonts/amplitud.ttf
374468	START	n/a	LTP197	ltpFR	7	n/a	n/a	n/a	n/a	n/a	n/a	n/a	n/a	n/a	n/a	n/a	n/a	n/a	n/a	n/a
375482	PROB	n/a	LTP197	ltpFR	7	n/a	n/a	n/a	n/a	n/a	n/a	21	9	6	6	n/a	n/a	n/a	n/a	n/a
378243	PROB	n/a	LTP197	ltpFR	7	n/a	n/a	n/a	n/a	n/a	n/a	16	7	5	4	n/a	n/a	n/a	n/a	n/a
382468	STOP	n/a	LTP197	ltpFR	7	n/a	n/a	n/a	n/a	n/a	n/a	n/a	n/a	n/a	n/a	n/a	n/a	n/a	n/a	n/a
383653	WORD	wordpools/wasnorm_wordpool_less_exclusions.txt	LTP197	ltpFR	7	1	0	CHESS	294	n/a	0	n/a	0	0	0	0	0.5869140625	0.422607421875	upper	../fonts/amplitud.ttf
386665	START	n/a	LTP197	ltpFR	7	n/a	n/a	n/a	n/a	n/a	n/a	n/a	n/a	n/a	n/a	n/a	n/a	n/a	n/a	n/a
387634	PROB	n/a	LTP197	ltpFR	7	n/a	n/a	n/a	n/a	n/a	n/a	15	7	3	5	n/a	n/a	n/a	n/a	n/a
389937	PROB	n/a	LTP197	ltpFR	7	n/a	n/a	n/a	n/a	n/a	n/a	25	9	5	9	n/a	n/a	n/a	n/a	n/a
393458	STOP	n/a	LTP197	ltpFR	7	n/a	n/a	n/a	n/a	n/a	n/a	n/a	n/a	n/a	n/a	n/a	n/a	n/a	n/a	n/a
395798	WORD	wordpools/wasnorm_wordpool_less_exclusions.txt	LTP197	ltpFR	7	1	0	WHISKERS	1605	n/a	0	n/a	0	0	0	0	0.5869140625	0.422607421875	upper	../fonts/amplitud.ttf
398810	START	n/a	LTP197	ltpFR	7	n/a	n/a	n/a	n/a	n/a	n/a	n/a	n/a	n/a	n/a	n/a	n/a	n/a	n/a	n/a
399707	PROB	n/a	LTP197	ltpFR	7	n/a	n/a	n/a	n/a	n/a	n/a	12	6	2	4	n/a	n/a	n/a	n/a	n/a
402072	PROB	n/a	LTP197	ltpFR	7	n/a	n/a	n/a	n/a	n/a	n/a	18	6	7	5	n/a	n/a	n/a	n/a	n/a
405330	STOP	n/a	LTP197	ltpFR	7	n/a	n/a	n/a	n/a	n/a	n/a	n/a	n/a	n/a	n/a	n/a	n/a	n/a	n/a	n/a
407888	WORD	wordpools/wasnorm_wordpool_less_exclusions.txt	LTP197	ltpFR	7	1	0	FRECKLE	602	n/a	0	n/a	0	0	0	0	0.5869140625	0.422607421875	upper	../fonts/amplitud.ttf
410906	START	n/a	LTP197	ltpFR	7	n/a	n/a	n/a	n/a	n/a	n/a	n/a	n/a	n/a	n/a	n/a	n/a	n/a	n/a	n/a
411819	PROB	n/a	LTP197	ltpFR	7	n/a	n/a	n/a	n/a	n/a	n/a	8	2	3	3	n/a	n/a	n/a	n/a	n/a
413927	PROB	n/a	LTP197	ltpFR	7	n/a	n/a	n/a	n/a	n/a	n/a	19	4	7	8	n/a	n/a	n/a	n/a	n/a
418536	STOP	n/a	LTP197	ltpFR	7	n/a	n/a	n/a	n/a	n/a	n/a	n/a	n/a	n/a	n/a	n/a	n/a	n/a	n/a	n/a
420033	WORD	wordpools/wasnorm_wordpool_less_exclusions.txt	LTP197	ltpFR	7	1	0	SUBMARINE	1398	n/a	1	n/a	0	0	0	0	0.5869140625	0.422607421875	upper	../fonts/amplitud.ttf
423045	START	n/a	LTP197	ltpFR	7	n/a	n/a	n/a	n/a	n/a	n/a	n/a	n/a	n/a	n/a	n/a	n/a	n/a	n/a	n/a
424122	PROB	n/a	LTP197	ltpFR	7	n/a	n/a	n/a	n/a	n/a	n/a	23	8	8	7	n/a	n/a	n/a	n/a	n/a
430601	STOP	n/a	LTP197	ltpFR	7	n/a	n/a	n/a	n/a	n/a	n/a	n/a	n/a	n/a	n/a	n/a	n/a	n/a	n/a	n/a
432001	WORD	wordpools/wasnorm_wordpool_less_exclusions.txt	LTP197	ltpFR	7	1	0	WORM	1623	n/a	0	n/a	0	0	0	0	0.5869140625	0.422607421875	upper	../fonts/amplitud.ttf
435013	START	n/a	LTP197	ltpFR	7	n/a	n/a	n/a	n/a	n/a	n/a	n/a	n/a	n/a	n/a	n/a	n/a	n/a	n/a	n/a
435966	PROB	n/a	LTP197	ltpFR	7	n/a	n/a	n/a	n/a	n/a	n/a	16	7	2	7	n/a	n/a	n/a	n/a	n/a
438225	PROB	n/a	LTP197	ltpFR	7	n/a	n/a	n/a	n/a	n/a	n/a	7	2	3	2	n/a	n/a	n/a	n/a	n/a
440260	PROB	n/a	LTP197	ltpFR	7	n/a	n/a	n/a	n/a	n/a	n/a	7	2	2	3	n/a	n/a	n/a	n/a	n/a
442673	STOP	n/a	LTP197	ltpFR	7	n/a	n/a	n/a	n/a	n/a	n/a	n/a	n/a	n/a	n/a	n/a	n/a	n/a	n/a	n/a
444114	WORD	wordpools/wasnorm_wordpool_less_exclusions.txt	LTP197	ltpFR	7	1	0	BUN	197	n/a	0	n/a	0	0	0	0	0.5869140625	0.422607421875	upper	../fonts/amplitud.ttf
447126	START	n/a	LTP197	ltpFR	7	n/a	n/a	n/a	n/a	n/a	n/a	n/a	n/a	n/a	n/a	n/a	n/a	n/a	n/a	n/a
447945	PROB	n/a	LTP197	ltpFR	7	n/a	n/a	n/a	n/a	n/a	n/a	19	5	5	9	n/a	n/a	n/a	n/a	n/a
449846	PROB	n/a	LTP197	ltpFR	7	n/a	n/a	n/a	n/a	n/a	n/a	16	9	5	2	n/a	n/a	n/a	n/a	n/a
455126	STOP	n/a	LTP197	ltpFR	7	n/a	n/a	n/a	n/a	n/a	n/a	n/a	n/a	n/a	n/a	n/a	n/a	n/a	n/a	n/a
456253	WORD	wordpools/wasnorm_wordpool_less_exclusions.txt	LTP197	ltpFR	7	1	0	CABBAGE	210	n/a	0	n/a	0	0	0	0	0.5869140625	0.422607421875	upper	../fonts/amplitud.ttf
459265	START	n/a	LTP197	ltpFR	7	n/a	n/a	n/a	n/a	n/a	n/a	n/a	n/a	n/a	n/a	n/a	n/a	n/a	n/a	n/a
460403	PROB	n/a	LTP197	ltpFR	7	n/a	n/a	n/a	n/a	n/a	n/a	14	7	2	5	n/a	n/a	n/a	n/a	n/a
462828	PROB	n/a	LTP197	ltpFR	7	n/a	n/a	n/a	n/a	n/a	n/a	18	5	5	8	n/a	n/a	n/a	n/a	n/a
464652	PROB	n/a	LTP197	ltpFR	7	n/a	n/a	n/a	n/a	n/a	n/a	16	7	4	5	n/a	n/a	n/a	n/a	n/a
466378	STOP	n/a	LTP197	ltpFR	7	n/a	n/a	n/a	n/a	n/a	n/a	n/a	n/a	n/a	n/a	n/a	n/a	n/a	n/a	n/a
469203	REC_START	n/a	LTP197	ltpFR	7	1	n/a	n/a	n/a	n/a	n/a	n/a	0	0	0	n/a	n/a	n/a	n/a	n/a
471637	REC_WORD	wordpools/wasnorm_wordpool_less_exclusions.txt	LTP197	ltpFR	7	1	0	SUBMARINE	1398	n/a	1	n/a	0	0	0	n/a	n/a	n/a	n/a	n/a
472637	REC_WORD_VV	wordpools/wasnorm_wordpool_less_exclusions.txt	LTP197	ltpFR	7	1	n/a	<>	-1	n/a	n/a	n/a	0	0	0	n/a	n/a	n/a	n/a	n/a
473269	REC_WORD	wordpools/wasnorm_wordpool_less_exclusions.txt	LTP197	ltpFR	7	1	0	BOAT	144	n/a	1	n/a	0	0	0	n/a	n/a	n/a	n/a	n/a
474591	REC_WORD	wordpools/wasnorm_wordpool_less_exclusions.txt	LTP197	ltpFR	7	1	0	FRECKLE	602	n/a	0	n/a	0	0	0	n/a	n/a	n/a	n/a	n/a
475668	REC_WORD	wordpools/wasnorm_wordpool_less_exclusions.txt	LTP197	ltpFR	7	1	0	INSECT	740	n/a	0	n/a	0	0	0	n/a	n/a	n/a	n/a	n/a
476915	REC_WORD	wordpools/wasnorm_wordpool_less_exclusions.txt	LTP197	ltpFR	7	1	0	BREAD	170	n/a	0	n/a	0	0	0	n/a	n/a	n/a	n/a	n/a
477808	REC_WORD	wordpools/wasnorm_wordpool_less_exclusions.txt	LTP197	ltpFR	7	1	0	BELLY	119	n/a	1	n/a	0	0	0	n/a	n/a	n/a	n/a	n/a
481051	REC_WORD	wordpools/wasnorm_wordpool_less_exclusions.txt	LTP197	ltpFR	7	1	0	DICE	461	n/a	0	n/a	0	0	0	n/a	n/a	n/a	n/a	n/a
481874	REC_WORD	wordpools/wasnorm_wordpool_less_exclusions.txt	LTP197	ltpFR	7	1	0	CHESS	294	n/a	0	n/a	0	0	0	n/a	n/a	n/a	n/a	n/a
484722	REC_WORD	wordpools/wasnorm_wordpool_less_exclusions.txt	LTP197	ltpFR	7	1	0	WHISKERS	1605	n/a	0	n/a	0	0	0	n/a	n/a	n/a	n/a	n/a
485648	REC_WORD	wordpools/wasnorm_wordpool_less_exclusions.txt	LTP197	ltpFR	7	1	0	PALACE	1006	n/a	1	n/a	0	0	0	n/a	n/a	n/a	n/a	n/a
487870	REC_WORD	wordpools/wasnorm_wordpool_less_exclusions.txt	LTP197	ltpFR	7	1	0	HUT	729	n/a	1	n/a	0	0	0	n/a	n/a	n/a	n/a	n/a
488489	REC_WORD	wordpools/wasnorm_wordpool_less_exclusions.txt	LTP197	ltpFR	7	1	0	CABBAGE	210	n/a	0	n/a	0	0	0	n/a	n/a	n/a	n/a	n/a
495797	REC_WORD	wordpools/wasnorm_wordpool_less_exclusions.txt	LTP197	ltpFR	7	1	0	FRECKLE	602	n/a	0	n/a	0	0	0	n/a	n/a	n/a	n/a	n/a
551703	WORD	wordpools/wasnorm_wordpool_less_exclusions.txt	LTP197	ltpFR	7	2	1	TUBE	1516	n/a	0	n/a	0	0	0	1	0.412841796875	0.57763671875	lower	../fonts/zerothre.ttf
555868	WORD	wordpools/wasnorm_wordpool_less_exclusions.txt	LTP197	ltpFR	7	2	1	ESSAY	540	n/a	0	n/a	0	0	0	1	0.412841796875	0.57763671875	lower	../fonts/zerothre.ttf
559883	WORD	wordpools/wasnorm_wordpool_less_exclusions.txt	LTP197	ltpFR	7	2	1	MOSS	918	n/a	1	n/a	0	0	0	1	0.412841796875	0.57763671875	lower	../fonts/zerothre.ttf
564009	WORD	wordpools/wasnorm_wordpool_less_exclusions.txt	LTP197	ltpFR	7	2	1	HEDGE	699	n/a	1	n/a	0	0	0	1	0.412841796875	0.57763671875	lower	../fonts/zerothre.ttf
568142	WORD	wordpools/wasnorm_wordpool_less_exclusions.txt	LTP197	ltpFR	7	2	1	OBOE	969	n/a	0	n/a	0	0	0	1	0.412841796875	0.57763671875	lower	../fonts/zerothre.ttf
572113	WORD	wordpools/wasnorm_wordpool_less_exclusions.txt	LTP197	ltpFR	7	2	1	STREAM	1392	n/a	1	n/a	0	0	0	1	0.412841796875	0.57763671875	lower	../fonts/zerothre.ttf
576178	WORD	wordpools/wasnorm_wordpool_less_exclusions.txt	LTP197	ltpFR	7	2	1	PAW	1029	n/a	1	n/a	0	0	0	1	0.412841796875	0.57763671875	lower	../fonts/zerothre.ttf
580220	WORD	wordpools/wasnorm_wordpool_less_exclusions.txt	LTP197	ltpFR	7	2	1	OX	994	n/a	1	n/a	0	0	0	1	0.412841796875	0.57763671875	lower	../fonts/zerothre.ttf
584370	WORD	wordpools/wasnorm_wordpool_less_exclusions.txt	LTP197	ltpFR	7	2	1	KETCHUP	771	n/a	0	n/a	0	0	0	1	0.412841796875	0.57763671875	lower	../fonts/zerothre.ttf
588525	WORD	wordpools/wasnorm_wordpool_less_exclusions.txt	LTP197	ltpFR	7	2	1	TRUMPET	1513	n/a	0	n/a	0	0	0	1	0.412841796875	0.57763671875	lower	../fonts/zerothre.ttf
592367	WORD	wordpools/wasnorm_wordpool_less_exclusions.txt	LTP197	ltpFR	7	2	1	NOVEL	960	n/a	0	n/a	0	0	0	1	0.412841796875	0.57763671875	lower	../fonts/zerothre.ttf
596338	WORD	wordpools/wasnorm_wordpool_less_exclusions.txt	LTP197	ltpFR	7	2	1	YARD	1630	n/a	1	n/a	0	0	0	1	0.412841796875	0.57763671875	lower	../fonts/zerothre.ttf
600486	WORD	wordpools/wasnorm_wordpool_less_exclusions.txt	LTP197	ltpFR	7	2	1	MAID	856	n/a	1	n/a	0	0	0	1	0.412841796875	0.57763671875	lower	../fonts/zerothre.ttf
604663	WORD	wordpools/wasnorm_wordpool_less_exclusions.txt	LTP197	ltpFR	7	2	1	NOTEBOOK	959	n/a	0	n/a	0	0	0	1	0.412841796875	0.57763671875	lower	../fonts/zerothre.ttf
608550	WORD	wordpools/wasnorm_wordpool_less_exclusions.txt	LTP197	ltpFR	7	2	1	PERSON	1052	n/a	1	n/a	0	0	0	1	0.412841796875	0.57763671875	lower	../fonts/zerothre.ttf
612526	WORD	wordpools/wasnorm_wordpool_less_exclusions.txt	LTP197	ltpFR	7	2	1	SIGNATURE	1306	n/a	0	n/a	0	0	0	1	0.412841796875	0.57763671875	lower	../fonts/zerothre.ttf
615543	START	n/a	LTP197	ltpFR	7	n/a	n/a	n/a	n/a	n/a	n/a	n/a	n/a	n/a	n/a	n/a	n/a	n/a	n/a	n/a
616374	PROB	n/a	LTP197	ltpFR	7	n/a	n/a	n/a	n/a	n/a	n/a	9	1	6	2	n/a	n/a	n/a	n/a	n/a
618872	PROB	n/a	LTP197	ltpFR	7	n/a	n/a	n/a	n/a	n/a	n/a	19	3	8	8	n/a	n/a	n/a	n/a	n/a
622193	STOP	n/a	LTP197	ltpFR	7	n/a	n/a	n/a	n/a	n/a	n/a	n/a	n/a	n/a	n/a	n/a	n/a	n/a	n/a	n/a
625342	REC_START	n/a	LTP197	ltpFR	7	2	n/a	n/a	n/a	n/a	n/a	n/a	0	0	0	n/a	n/a	n/a	n/a	n/a
627921	REC_WORD	wordpools/wasnorm_wordpool_less_exclusions.txt	LTP197	ltpFR	7	2	1	TUBE	1516	n/a	0	n/a	0	0	0	n/a	n/a	n/a	n/a	n/a
629158	REC_WORD	wordpools/wasnorm_wordpool_less_exclusions.txt	LTP197	ltpFR	7	2	1	MOSS	918	n/a	1	n/a	0	0	0	n/a	n/a	n/a	n/a	n/a
630355	REC_WORD	wordpools/wasnorm_wordpool_less_exclusions.txt	LTP197	ltpFR	7	2	1	ESSAY	540	n/a	0	n/a	0	0	0	n/a	n/a	n/a	n/a	n/a
631208	REC_WORD	wordpools/wasnorm_wordpool_less_exclusions.txt	LTP197	ltpFR	7	2	1	NOVEL	960	n/a	0	n/a	0	0	0	n/a	n/a	n/a	n/a	n/a
632400	REC_WORD	wordpools/wasnorm_wordpool_less_exclusions.txt	LTP197	ltpFR	7	2	1	SIGNATURE	1306	n/a	0	n/a	0	0	0	n/a	n/a	n/a	n/a	n/a
633400	REC_WORD_VV	wordpools/wasnorm_wordpool_less_exclusions.txt	LTP197	ltpFR	7	2	n/a	<>	-1	n/a	n/a	n/a	0	0	0	n/a	n/a	n/a	n/a	n/a
634112	REC_WORD	wordpools/wasnorm_wordpool_less_exclusions.txt	LTP197	ltpFR	7	2	1	NOTEBOOK	959	n/a	0	n/a	0	0	0	n/a	n/a	n/a	n/a	n/a
635948	REC_WORD	wordpools/wasnorm_wordpool_less_exclusions.txt	LTP197	ltpFR	7	2	1	HEDGE	699	n/a	1	n/a	0	0	0	n/a	n/a	n/a	n/a	n/a
636746	REC_WORD	wordpools/wasnorm_wordpool_less_exclusions.txt	LTP197	ltpFR	7	2	1	OBOE	969	n/a	0	n/a	0	0	0	n/a	n/a	n/a	n/a	n/a
637494	REC_WORD	wordpools/wasnorm_wordpool_less_exclusions.txt	LTP197	ltpFR	7	2	1	TRUMPET	1513	n/a	0	n/a	0	0	0	n/a	n/a	n/a	n/a	n/a
638232	REC_WORD	wordpools/wasnorm_wordpool_less_exclusions.txt	LTP197	ltpFR	7	2	1	STREAM	1392	n/a	1	n/a	0	0	0	n/a	n/a	n/a	n/a	n/a
639405	REC_WORD	wordpools/wasnorm_wordpool_less_exclusions.txt	LTP197	ltpFR	7	2	1	OX	994	n/a	1	n/a	0	0	0	n/a	n/a	n/a	n/a	n/a
640273	REC_WORD	wordpools/wasnorm_wordpool_less_exclusions.txt	LTP197	ltpFR	7	2	1	PAW	1029	n/a	1	n/a	0	0	0	n/a	n/a	n/a	n/a	n/a
641705	REC_WORD	wordpools/wasnorm_wordpool_less_exclusions.txt	LTP197	ltpFR	7	2	1	KETCHUP	771	n/a	0	n/a	0	0	0	n/a	n/a	n/a	n/a	n/a
643286	REC_WORD	wordpools/wasnorm_wordpool_less_exclusions.txt	LTP197	ltpFR	7	2	1	YARD	1630	n/a	1	n/a	0	0	0	n/a	n/a	n/a	n/a	n/a
645446	REC_WORD	wordpools/wasnorm_wordpool_less_exclusions.txt	LTP197	ltpFR	7	2	1	MAID	856	n/a	1	n/a	0	0	0	n/a	n/a	n/a	n/a	n/a
646354	REC_WORD	wordpools/wasnorm_wordpool_less_exclusions.txt	LTP197	ltpFR	7	2	1	PERSON	1052	n/a	1	n/a	0	0	0	n/a	n/a	n/a	n/a	n/a
708304	WORD	wordpools/wasnorm_wordpool_less_exclusions.txt	LTP197	ltpFR	7	3	0	TURNIP	1521	n/a	0	n/a	0	0	0	0	0.5869140625	0.422607421875	upper	../fonts/amplitud.ttf
712502	WORD	wordpools/wasnorm_wordpool_less_exclusions.txt	LTP197	ltpFR	7	3	0	SOCKET	1340	n/a	0	n/a	0	0	0	0	0.5869140625	0.422607421875	upper	../fonts/amplitud.ttf
716435	WORD	wordpools/wasnorm_wordpool_less_exclusions.txt	LTP197	ltpFR	7	3	0	DOLLAR	482	n/a	0	n/a	0	0	0	0	0.5869140625	0.422607421875	upper	../fonts/amplitud.ttf
720599	WORD	wordpools/wasnorm_wordpool_less_exclusions.txt	LTP197	ltpFR	7	3	0	NEWSPAPER	948	n/a	0	n/a	0	0	0	0	0.5869140625	0.422607421875	upper	../fonts/amplitud.ttf
724438	WORD	wordpools/wasnorm_wordpool_less_exclusions.txt	LTP197	ltpFR	7	3	0	SEAT	1264	n/a	1	n/a	0	0	0	0	0.5869140625	0.422607421875	upper	../fonts/amplitud.ttf
728636	WORD	wordpools/wasnorm_wordpool_less_exclusions.txt	LTP197	ltpFR	7	3	0	DRIVER	499	n/a	1	n/a	0	0	0	0	0.5869140625	0.422607421875	upper	../fonts/amplitud.ttf
732611	WORD	wordpools/wasnorm_wordpool_less_exclusions.txt	LTP197	ltpFR	7	3	0	CONSOLE	364	n/a	1	n/a	0	0	0	0	0.5869140625	0.422607421875	upper	../fonts/amplitud.ttf
736733	WORD	wordpools/wasnorm_wordpool_less_exclusions.txt	LTP197	ltpFR	7	3	0	CENT	270	n/a	0	n/a	0	0	0	0	0.5869140625	0.422607421875	upper	../fonts/amplitud.ttf
740748	WORD	wordpools/wasnorm_wordpool_less_exclusions.txt	LTP197	ltpFR	7	3	0	PERCH	1048	n/a	1	n/a	0	0	0	0	0.5869140625	0.422607421875	upper	../fonts/amplitud.ttf
744690	WORD	wordpools/wasnorm_wordpool_less_exclusions.txt	LTP197	ltpFR	7	3	0	PHOTO	1055	n/a	0	n/a	0	0	0	0	0.5869140625	0.422607421875	upper	../fonts/amplitud.ttf
748845	WORD	wordpools/wasnorm_wordpool_less_exclusions.txt	LTP197	ltpFR	7	3	0	FRAME	600	n/a	0	n/a	0	0	0	0	0.5869140625	0.422607421875	upper	../fonts/amplitud.ttf
753011	WORD	wordpools/wasnorm_wordpool_less_exclusions.txt	LTP197	ltpFR	7	3	0	BASKET	95	n/a	0	n/a	0	0	0	0	0.5869140625	0.422607421875	upper	../fonts/amplitud.ttf
757204	WORD	wordpools/wasnorm_wordpool_less_exclusions.txt	LTP197	ltpFR	7	3	0	SPHINX	1349	n/a	1	n/a	0	0	0	0	0.5869140625	0.422607421875	upper	../fonts/amplitud.ttf
761075	WORD	wordpools/wasnorm_wordpool_less_exclusions.txt	LTP197	ltpFR	7	3	0	BEAVER	109	n/a	1	n/a	0	0	0	0	0.5869140625	0.422607421875	upper	../fonts/amplitud.ttf
765224	WORD	wordpools/wasnorm_wordpool_less_exclusions.txt	LTP197	ltpFR	7	3	0	PELT	1040	n/a	1	n/a	0	0	0	0	0.5869140625	0.422607421875	upper	../fonts/amplitud.ttf
769216	WORD	wordpools/wasnorm_wordpool_less_exclusions.txt	LTP197	ltpFR	7	3	0	FOLDER	588	n/a	0	n/a	0	0	0	0	0.5869140625	0.422607421875	upper	../fonts/amplitud.ttf
772228	START	n/a	LTP197	ltpFR	7	n/a	n/a	n/a	n/a	n/a	n/a	n/a	n/a	n/a	n/a	n/a	n/a	n/a	n/a	n/a
773047	PROB	n/a	LTP197	ltpFR	7	n/a	n/a	n/a	n/a	n/a	n/a	15	3	5	7	n/a	n/a	n/a	n/a	n/a
776493	PROB	n/a	LTP197	ltpFR	7	n/a	n/a	n/a	n/a	n/a	n/a	11	3	2	6	n/a	n/a	n/a	n/a	n/a
778817	STOP	n/a	LTP197	ltpFR	7	n/a	n/a	n/a	n/a	n/a	n/a	n/a	n/a	n/a	n/a	n/a	n/a	n/a	n/a	n/a
782082	REC_START	n/a	LTP197	ltpFR	7	3	n/a	n/a	n/a	n/a	n/a	n/a	0	0	0	n/a	n/a	n/a	n/a	n/a
783967	REC_WORD	wordpools/wasnorm_wordpool_less_exclusions.txt	LTP197	ltpFR	7	3	0	SPHINX	1349	n/a	1	n/a	0	0	0	n/a	n/a	n/a	n/a	n/a
786018	REC_WORD	wordpools/wasnorm_wordpool_less_exclusions.txt	LTP197	ltpFR	7	3	0	BEAVER	109	n/a	1	n/a	0	0	0	n/a	n/a	n/a	n/a	n/a
786781	REC_WORD	wordpools/wasnorm_wordpool_less_exclusions.txt	LTP197	ltpFR	7	3	0	PELT	1040	n/a	1	n/a	0	0	0	n/a	n/a	n/a	n/a	n/a
789130	REC_WORD	wordpools/wasnorm_wordpool_less_exclusions.txt	LTP197	ltpFR	7	3	0	FOLDER	588	n/a	0	n/a	0	0	0	n/a	n/a	n/a	n/a	n/a
791001	REC_WORD	wordpools/wasnorm_wordpool_less_exclusions.txt	LTP197	ltpFR	7	3	0	BASKET	95	n/a	0	n/a	0	0	0	n/a	n/a	n/a	n/a	n/a
791630	REC_WORD	wordpools/wasnorm_wordpool_less_exclusions.txt	LTP197	ltpFR	7	3	0	FRAME	600	n/a	0	n/a	0	0	0	n/a	n/a	n/a	n/a	n/a
793176	REC_WORD	wordpools/wasnorm_wordpool_less_exclusions.txt	LTP197	ltpFR	7	3	0	PHOTO	1055	n/a	0	n/a	0	0	0	n/a	n/a	n/a	n/a	n/a
795970	REC_WORD	wordpools/wasnorm_wordpool_less_exclusions.txt	LTP197	ltpFR	7	3	0	DRIVER	499	n/a	1	n/a	0	0	0	n/a	n/a	n/a	n/a	n/a
796583	REC_WORD	wordpools/wasnorm_wordpool_less_exclusions.txt	LTP197	ltpFR	7	3	0	SEAT	1264	n/a	1	n/a	0	0	0	n/a	n/a	n/a	n/a	n/a
797327	REC_WORD	wordpools/wasnorm_wordpool_less_exclusions.txt	LTP197	ltpFR	7	3	0	CONSOLE	364	n/a	1	n/a	0	0	0	n/a	n/a	n/a	n/a	n/a
798230	REC_WORD	wordpools/wasnorm_wordpool_less_exclusions.txt	LTP197	ltpFR	7	3	0	PERCH	1048	n/a	1	n/a	0	0	0	n/a	n/a	n/a	n/a	n/a
800150	REC_WORD	wordpools/wasnorm_wordpool_less_exclusions.txt	LTP197	ltpFR	7	3	0	SOCKET	1340	n/a	0	n/a	0	0	0	n/a	n/a	n/a	n/a	n/a
800859	REC_WORD	wordpools/wasnorm_wordpool_less_exclusions.txt	LTP197	ltpFR	7	3	0	TURNIP	1521	n/a	0	n/a	0	0	0	n/a	n/a	n/a	n/a	n/a
801493	REC_WORD	wordpools/wasnorm_wordpool_less_exclusions.txt	LTP197	ltpFR	7	3	0	DOLLAR	482	n/a	0	n/a	0	0	0	n/a	n/a	n/a	n/a	n/a
802076	REC_WORD	wordpools/wasnorm_wordpool_less_exclusions.txt	LTP197	ltpFR	7	3	0	CENT	270	n/a	0	n/a	0	0	0	n/a	n/a	n/a	n/a	n/a
806042	REC_WORD	wordpools/wasnorm_wordpool_less_exclusions.txt	LTP197	ltpFR	7	3	0	NEWSPAPER	948	n/a	0	n/a	0	0	0	n/a	n/a	n/a	n/a	n/a
897969	START	n/a	LTP197	ltpFR	7	n/a	n/a	n/a	n/a	n/a	n/a	n/a	n/a	n/a	n/a	n/a	n/a	n/a	n/a	n/a
899480	PROB	n/a	LTP197	ltpFR	7	n/a	n/a	n/a	n/a	n/a	n/a	12	7	1	4	n/a	n/a	n/a	n/a	n/a
902442	PROB	n/a	LTP197	ltpFR	7	n/a	n/a	n/a	n/a	n/a	n/a	13	6	5	2	n/a	n/a	n/a	n/a	n/a
904473	STOP	n/a	LTP197	ltpFR	7	n/a	n/a	n/a	n/a	n/a	n/a	n/a	n/a	n/a	n/a	n/a	n/a	n/a	n/a	n/a
906902	WORD	wordpools/wasnorm_wordpool_less_exclusions.txt	LTP197	ltpFR	7	4	1	WAITER	1580	n/a	1	n/a	0	0	0	1	0.412841796875	0.57763671875	lower	../fonts/zerothre.ttf
909920	START	n/a	LTP197	ltpFR	7	n/a	n/a	n/a	n/a	n/a	n/a	n/a	n/a	n/a	n/a	n/a	n/a	n/a	n/a	n/a
910789	PROB	n/a	LTP197	ltpFR	7	n/a	n/a	n/a	n/a	n/a	n/a	12	1	7	4	n/a	n/a	n/a	n/a	n/a
913282	PROB	n/a	LTP197	ltpFR	7	n/a	n/a	n/a	n/a	n/a	n/a	15	3	9	3	n/a	n/a	n/a	n/a	n/a
917920	STOP	n/a	LTP197	ltpFR	7	n/a	n/a	n/a	n/a	n/a	n/a	n/a	n/a	n/a	n/a	n/a	n/a	n/a	n/a	n/a
919003	WORD	wordpools/wasnorm_wordpool_less_exclusions.txt	LTP197	ltpFR	7	4	1	BUGLE	189	n/a	3	n/a	0	0	0	1	0.412841796875	0.57763671875	lower	../fonts/zerothre.ttf
921697	KEY_MSG	n/a	LTP197	ltpFR	7	4	n/a	n/a	n/a	n/a	n/a	n/a	0	0	0	n/a	n/a	n/a	n/a	n/a
923230	START	n/a	LTP197	ltpFR	7	n/a	n/a	n/a	n/a	n/a	n/a	n/a	n/a	n/a	n/a	n/a	n/a	n/a	n/a	n/a
924190	PROB	n/a	LTP197	ltpFR	7	n/a	n/a	n/a	n/a	n/a	n/a	20	8	9	3	n/a	n/a	n/a	n/a	n/a
927663	PROB	n/a	LTP197	ltpFR	7	n/a	n/a	n/a	n/a	n/a	n/a	16	3	6	7	n/a	n/a	n/a	n/a	n/a
931230	STOP	n/a	LTP197	ltpFR	7	n/a	n/a	n/a	n/a	n/a	n/a	n/a	n/a	n/a	n/a	n/a	n/a	n/a	n/a	n/a
932399	WORD	wordpools/wasnorm_wordpool_less_exclusions.txt	LTP197	ltpFR	7	4	1	THERMOMETER	1453	n/a	0	n/a	0	0	0	1	0.412841796875	0.57763671875	lower	../fonts/zerothre.ttf
935417	START	n/a	LTP197	ltpFR	7	n/a	n/a	n/a	n/a	n/a	n/a	n/a	n/a	n/a	n/a	n/a	n/a	n/a	n/a	n/a
936420	PROB	n/a	LTP197	ltpFR	7	n/a	n/a	n/a	n/a	n/a	n/a	16	6	5	5	n/a	n/a	n/a	n/a	n/a
938487	PROB	n/a	LTP197	ltpFR	7	n/a	n/a	n/a	n/a	n/a	n/a	14	8	2	4	n/a	n/a	n/a	n/a	n/a
940963	PROB	n/a	LTP197	ltpFR	7	n/a	n/a	n/a	n/a	n/a	n/a	18	9	2	7	n/a	n/a	n/a	n/a	n/a
942889	STOP	n/a	LTP197	ltpFR	7	n/a	n/a	n/a	n/a	n/a	n/a	n/a	n/a	n/a	n/a	n/a	n/a	n/a	n/a	n/a
944350	WORD	wordpools/wasnorm_wordpool_less_exclusions.txt	LTP197	ltpFR	7	4	1	BRACES	164	n/a	0	n/a	0	0	0	1	0.412841796875	0.57763671875	lower	../fonts/zerothre.ttf
947362	START	n/a	LTP197	ltpFR	7	n/a	n/a	n/a	n/a	n/a	n/a	n/a	n/a	n/a	n/a	n/a	n/a	n/a	n/a	n/a
948264	PROB	n/a	LTP197	ltpFR	7	n/a	n/a	n/a	n/a	n/a	n/a	19	4	6	9	n/a	n/a	n/a	n/a	n/a
949997	PROB	n/a	LTP197	ltpFR	7	n/a	n/a	n/a	n/a	n/a	n/a	13	2	7	4	n/a	n/a	n/a	n/a	n/a
952072	PROB	n/a	LTP197	ltpFR	7	n/a	n/a	n/a	n/a	n/a	n/a	21	5	9	7	n/a	n/a	n/a	n/a	n/a
955033	STOP	n/a	LTP197	ltpFR	7	n/a	n/a	n/a	n/a	n/a	n/a	n/a	n/a	n/a	n/a	n/a	n/a	n/a	n/a	n/a
956445	WORD	wordpools/wasnorm_wordpool_less_exclusions.txt	LTP197	ltpFR	7	4	1	SHERIFF	1284	n/a	1	n/a	0	0	0	1	0.412841796875	0.57763671875	lower	../fonts/zerothre.ttf
959457	START	n/a	LTP197	ltpFR	7	n/a	n/a	n/a	n/a	n/a	n/a	n/a	n/a	n/a	n/a	n/a	n/a	n/a	n/a	n/a
960411	PROB	n/a	LTP197	ltpFR	7	n/a	n/a	n/a	n/a	n/a	n/a	24	9	8	7	n/a	n/a	n/a	n/a	n/a
963632	PROB	n/a	LTP197	ltpFR	7	n/a	n/a	n/a	n/a	n/a	n/a	11	1	5	5	n/a	n/a	n/a	n/a	n/a
965406	PROB	n/a	LTP197	ltpFR	7	n/a	n/a	n/a	n/a	n/a	n/a	19	8	2	9	n/a	n/a	n/a	n/a	n/a
967290	STOP	n/a	LTP197	ltpFR	7	n/a	n/a	n/a	n/a	n/a	n/a	n/a	n/a	n/a	n/a	n/a	n/a	n/a	n/a	n/a
968390	WORD	wordpools/wasnorm_wordpool_less_exclusions.txt	LTP197	ltpFR	7	4	1	CELERY	266	n/a	1	n/a	0	0	0	1	0.412841796875	0.57763671875	lower	../fonts/zerothre.ttf
971402	START	n/a	LTP197	ltpFR	7	n/a	n/a	n/a	n/a	n/a	n/a	n/a	n/a	n/a	n/a	n/a	n/a	n/a	n/a	n/a
972582	PROB	n/a	LTP197	ltpFR	7	n/a	n/a	n/a	n/a	n/a	n/a	14	8	5	1	n/a	n/a	n/a	n/a	n/a
974774	PROB	n/a	LTP197	ltpFR	7	n/a	n/a	n/a	n/a	n/a	n/a	11	9	1	1	n/a	n/a	n/a	n/a	n/a
976236	PROB	n/a	LTP197	ltpFR	7	n/a	n/a	n/a	n/a	n/a	n/a	16	9	5	3	n/a	n/a	n/a	n/a	n/a
978689	STOP	n/a	LTP197	ltpFR	7	n/a	n/a	n/a	n/a	n/a	n/a	n/a	n/a	n/a	n/a	n/a	n/a	n/a	n/a	n/a
980336	WORD	wordpools/wasnorm_wordpool_less_exclusions.txt	LTP197	ltpFR	7	4	1	BLUEBERRY	140	n/a	0	n/a	0	0	0	1	0.412841796875	0.57763671875	lower	../fonts/zerothre.ttf
983347	START	n/a	LTP197	ltpFR	7	n/a	n/a	n/a	n/a	n/a	n/a	n/a	n/a	n/a	n/a	n/a	n/a	n/a	n/a	n/a
984176	PROB	n/a	LTP197	ltpFR	7	n/a	n/a	n/a	n/a	n/a	n/a	13	7	1	7	n/a	n/a	n/a	n/a	n/a
987254	PROB	n/a	LTP197	ltpFR	7	n/a	n/a	n/a	n/a	n/a	n/a	18	8	8	2	n/a	n/a	n/a	n/a	n/a
989353	PROB	n/a	LTP197	ltpFR	7	n/a	n/a	n/a	n/a	n/a	n/a	9	1	7	1	n/a	n/a	n/a	n/a	n/a
990681	STOP	n/a	LTP197	ltpFR	7	n/a	n/a	n/a	n/a	n/a	n/a	n/a	n/a	n/a	n/a	n/a	n/a	n/a	n/a	n/a
992196	WORD	wordpools/wasnorm_wordpool_less_exclusions.txt	LTP197	ltpFR	7	4	1	CACTUS	215	n/a	1	n/a	0	0	0	1	0.412841796875	0.57763671875	lower	../fonts/zerothre.ttf
995208	START	n/a	LTP197	ltpFR	7	n/a	n/a	n/a	n/a	n/a	n/a	n/a	n/a	n/a	n/a	n/a	n/a	n/a	n/a	n/a
996272	PROB	n/a	LTP197	ltpFR	7	n/a	n/a	n/a	n/a	n/a	n/a	13	6	3	4	n/a	n/a	n/a	n/a	n/a
998145	PROB	n/a	LTP197	ltpFR	7	n/a	n/a	n/a	n/a	n/a	n/a	23	6	9	8	n/a	n/a	n/a	n/a	n/a
1003208	STOP	n/a	LTP197	ltpFR	7	n/a	n/a	n/a	n/a	n/a	n/a	n/a	n/a	n/a	n/a	n/a	n/a	n/a	n/a	n/a
1004353	WORD	wordpools/wasnorm_wordpool_less_exclusions.txt	LTP197	ltpFR	7	4	1	SAUSAGE	1238	n/a	0	n/a	0	0	0	1	0.412841796875	0.57763671875	lower	../fonts/zerothre.ttf
1007365	START	n/a	LTP197	ltpFR	7	n/a	n/a	n/a	n/a	n/a	n/a	n/a	n/a	n/a	n/a	n/a	n/a	n/a	n/a	n/a
1008568	PROB	n/a	LTP197	ltpFR	7	n/a	n/a	n/a	n/a	n/a	n/a	6	3	2	1	n/a	n/a	n/a	n/a	n/a
1010716	PROB	n/a	LTP197	ltpFR	7	n/a	n/a	n/a	n/a	n/a	n/a	16	6	7	3	n/a	n/a	n/a	n/a	n/a
1012417	PROB	n/a	LTP197	ltpFR	7	n/a	n/a	n/a	n/a	n/a	n/a	10	2	2	6	n/a	n/a	n/a	n/a	n/a
1013993	STOP	n/a	LTP197	ltpFR	7	n/a	n/a	n/a	n/a	n/a	n/a	n/a	n/a	n/a	n/a	n/a	n/a	n/a	n/a	n/a
1016270	WORD	wordpools/wasnorm_wordpool_less_exclusions.txt	LTP197	ltpFR	7	4	1	VEAL	1551	n/a	1	n/a	0	0	0	1	0.412841796875	0.57763671875	lower	../fonts/zerothre.ttf
1019282	START	n/a	LTP197	ltpFR	7	n/a	n/a	n/a	n/a	n/a	n/a	n/a	n/a	n/a	n/a	n/a	n/a	n/a	n/a	n/a
1020297	PROB	n/a	LTP197	ltpFR	7	n/a	n/a	n/a	n/a	n/a	n/a	12	5	5	2	n/a	n/a	n/a	n/a	n/a
1021801	PROB	n/a	LTP197	ltpFR	7	n/a	n/a	n/a	n/a	n/a	n/a	15	5	3	7	n/a	n/a	n/a	n/a	n/a
1023331	PROB	n/a	LTP197	ltpFR	7	n/a	n/a	n/a	n/a	n/a	n/a	19	5	7	7	n/a	n/a	n/a	n/a	n/a
1025355	PROB	n/a	LTP197	ltpFR	7	n/a	n/a	n/a	n/a	n/a	n/a	9	3	3	3	n/a	n/a	n/a	n/a	n/a
1026561	STOP	n/a	LTP197	ltpFR	7	n/a	n/a	n/a	n/a	n/a	n/a	n/a	n/a	n/a	n/a	n/a	n/a	n/a	n/a	n/a
1028476	WORD	wordpools/wasnorm_wordpool_less_exclusions.txt	LTP197	ltpFR	7	4	1	FIST	572	n/a	1	n/a	0	0	0	1	0.412841796875	0.57763671875	lower	../fonts/zerothre.ttf
1031488	START	n/a	LTP197	ltpFR	7	n/a	n/a	n/a	n/a	n/a	n/a	n/a	n/a	n/a	n/a	n/a	n/a	n/a	n/a	n/a
1032365	PROB	n/a	LTP197	ltpFR	7	n/a	n/a	n/a	n/a	n/a	n/a	15	8	5	2	n/a	n/a	n/a	n/a	n/a
1034306	PROB	n/a	LTP197	ltpFR	7	n/a	n/a	n/a	n/a	n/a	n/a	7	3	2	2	n/a	n/a	n/a	n/a	n/a
1036898	PROB	n/a	LTP197	ltpFR	7	n/a	n/a	n/a	n/a	n/a	n/a	11	6	2	3	n/a	n/a	n/a	n/a	n/a
1038346	STOP	n/a	LTP197	ltpFR	7	n/a	n/a	n/a	n/a	n/a	n/a	n/a	n/a	n/a	n/a	n/a	n/a	n/a	n/a	n/a
1040472	WORD	wordpools/wasnorm_wordpool_less_exclusions.txt	LTP197	ltpFR	7	4	1	FIREMAN	569	n/a	1	n/a	0	0	0	1	0.412841796875	0.57763671875	lower	../fonts/zerothre.ttf
1043490	START	n/a	LTP197	ltpFR	7	n/a	n/a	n/a	n/a	n/a	n/a	n/a	n/a	n/a	n/a	n/a	n/a	n/a	n/a	n/a
1044610	PROB	n/a	LTP197	ltpFR	7	n/a	n/a	n/a	n/a	n/a	n/a	11	1	7	3	n/a	n/a	n/a	n/a	n/a
1045965	PROB	n/a	LTP197	ltpFR	7	n/a	n/a	n/a	n/a	n/a	n/a	15	2	9	4	n/a	n/a	n/a	n/a	n/a
1051490	STOP	n/a	LTP197	ltpFR	7	n/a	n/a	n/a	n/a	n/a	n/a	n/a	n/a	n/a	n/a	n/a	n/a	n/a	n/a	n/a
1052340	WORD	wordpools/wasnorm_wordpool_less_exclusions.txt	LTP197	ltpFR	7	4	1	TORCH	1484	n/a	0	n/a	0	0	0	1	0.412841796875	0.57763671875	lower	../fonts/zerothre.ttf
1055352	START	n/a	LTP197	ltpFR	7	n/a	n/a	n/a	n/a	n/a	n/a	n/a	n/a	n/a	n/a	n/a	n/a	n/a	n/a	n/a
1056505	PROB	n/a	LTP197	ltpFR	7	n/a	n/a	n/a	n/a	n/a	n/a	14	5	1	8	n/a	n/a	n/a	n/a	n/a
1058306	PROB	n/a	LTP197	ltpFR	7	n/a	n/a	n/a	n/a	n/a	n/a	9	2	5	2	n/a	n/a	n/a	n/a	n/a
1059851	PROB	n/a	LTP197	ltpFR	7	n/a	n/a	n/a	n/a	n/a	n/a	23	7	7	9	n/a	n/a	n/a	n/a	n/a
1063352	STOP	n/a	LTP197	ltpFR	7	n/a	n/a	n/a	n/a	n/a	n/a	n/a	n/a	n/a	n/a	n/a	n/a	n/a	n/a	n/a
1064396	WORD	wordpools/wasnorm_wordpool_less_exclusions.txt	LTP197	ltpFR	7	4	1	VAMPIRE	1547	n/a	1	n/a	0	0	0	1	0.412841796875	0.57763671875	lower	../fonts/zerothre.ttf
1067408	START	n/a	LTP197	ltpFR	7	n/a	n/a	n/a	n/a	n/a	n/a	n/a	n/a	n/a	n/a	n/a	n/a	n/a	n/a	n/a
1068344	PROB	n/a	LTP197	ltpFR	7	n/a	n/a	n/a	n/a	n/a	n/a	13	5	2	6	n/a	n/a	n/a	n/a	n/a
1069972	PROB	n/a	LTP197	ltpFR	7	n/a	n/a	n/a	n/a	n/a	n/a	11	2	1	8	n/a	n/a	n/a	n/a	n/a
1071907	PROB	n/a	LTP197	ltpFR	7	n/a	n/a	n/a	n/a	n/a	n/a	13	3	5	5	n/a	n/a	n/a	n/a	n/a
1073753	PROB	n/a	LTP197	ltpFR	7	n/a	n/a	n/a	n/a	n/a	n/a	16	7	2	7	n/a	n/a	n/a	n/a	n/a
1075217	STOP	n/a	LTP197	ltpFR	7	n/a	n/a	n/a	n/a	n/a	n/a	n/a	n/a	n/a	n/a	n/a	n/a	n/a	n/a	n/a
1076381	WORD	wordpools/wasnorm_wordpool_less_exclusions.txt	LTP197	ltpFR	7	4	1	DEPUTY	450	n/a	1	n/a	0	0	0	1	0.412841796875	0.57763671875	lower	../fonts/zerothre.ttf
1079393	START	n/a	LTP197	ltpFR	7	n/a	n/a	n/a	n/a	n/a	n/a	n/a	n/a	n/a	n/a	n/a	n/a	n/a	n/a	n/a
1080546	PROB	n/a	LTP197	ltpFR	7	n/a	n/a	n/a	n/a	n/a	n/a	17	6	9	2	n/a	n/a	n/a	n/a	n/a
1082921	PROB	n/a	LTP197	ltpFR	7	n/a	n/a	n/a	n/a	n/a	n/a	16	4	4	8	n/a	n/a	n/a	n/a	n/a
1085029	PROB	n/a	LTP197	ltpFR	7	n/a	n/a	n/a	n/a	n/a	n/a	12	4	2	6	n/a	n/a	n/a	n/a	n/a
1086801	STOP	n/a	LTP197	ltpFR	7	n/a	n/a	n/a	n/a	n/a	n/a	n/a	n/a	n/a	n/a	n/a	n/a	n/a	n/a	n/a
1088386	WORD	wordpools/wasnorm_wordpool_less_exclusions.txt	LTP197	ltpFR	7	4	1	GALAXY	617	n/a	1	n/a	0	0	0	1	0.412841796875	0.57763671875	lower	../fonts/zerothre.ttf
1091398	START	n/a	LTP197	ltpFR	7	n/a	n/a	n/a	n/a	n/a	n/a	n/a	n/a	n/a	n/a	n/a	n/a	n/a	n/a	n/a
1092223	PROB	n/a	LTP197	ltpFR	7	n/a	n/a	n/a	n/a	n/a	n/a	18	4	6	8	n/a	n/a	n/a	n/a	n/a
1093929	PROB	n/a	LTP197	ltpFR	7	n/a	n/a	n/a	n/a	n/a	n/a	16	8	3	5	n/a	n/a	n/a	n/a	n/a
1096138	PROB	n/a	LTP197	ltpFR	7	n/a	n/a	n/a	n/a	n/a	n/a	11	6	2	3	n/a	n/a	n/a	n/a	n/a
1099398	STOP	n/a	LTP197	ltpFR	7	n/a	n/a	n/a	n/a	n/a	n/a	n/a	n/a	n/a	n/a	n/a	n/a	n/a	n/a	n/a
1101326	REC_START	n/a	LTP197	ltpFR	7	4	n/a	n/a	n/a	n/a	n/a	n/a	0	0	0	n/a	n/a	n/a	n/a	n/a
1104334	REC_WORD	wordpools/wasnorm_wordpool_less_exclusions.txt	LTP197	ltpFR	7	4	1	SHERIFF	1284	n/a	1	n/a	0	0	0	n/a	n/a	n/a	n/a	n/a
1105334	REC_WORD_VV	wordpools/wasnorm_wordpool_less_exclusions.txt	LTP197	ltpFR	7	4	n/a	<>	-1	n/a	n/a	n/a	0	0	0	n/a	n/a	n/a	n/a	n/a
1105641	REC_WORD	wordpools/wasnorm_wordpool_less_exclusions.txt	LTP197	ltpFR	7	4	1	DEPUTY	450	n/a	1	n/a	0	0	0	n/a	n/a	n/a	n/a	n/a
1106444	REC_WORD	wordpools/wasnorm_wordpool_less_exclusions.txt	LTP197	ltpFR	7	4	1	BUGLE	189	n/a	3	n/a	0	0	0	n/a	n/a	n/a	n/a	n/a
1107282	REC_WORD	wordpools/wasnorm_wordpool_less_exclusions.txt	LTP197	ltpFR	7	4	1	CELERY	266	n/a	1	n/a	0	0	0	n/a	n/a	n/a	n/a	n/a
1108282	REC_WORD_VV	wordpools/wasnorm_wordpool_less_exclusions.txt	LTP197	ltpFR	7	4	n/a	<>	-1	n/a	n/a	n/a	0	0	0	n/a	n/a	n/a	n/a	n/a
1112585	REC_WORD	wordpools/wasnorm_wordpool_less_exclusions.txt	LTP197	ltpFR	7	4	1	SAUSAGE	1238	n/a	0	n/a	0	0	0	n/a	n/a	n/a	n/a	n/a
1113585	REC_WORD_VV	wordpools/wasnorm_wordpool_less_exclusions.txt	LTP197	ltpFR	7	4	n/a	<>	-1	n/a	n/a	n/a	0	0	0	n/a	n/a	n/a	n/a	n/a
1130634	REC_WORD	wordpools/wasnorm_wordpool_less_exclusions.txt	LTP197	ltpFR	7	4	1	GALAXY	617	n/a	1	n/a	0	0	0	n/a	n/a	n/a	n/a	n/a
1138127	REC_WORD	wordpools/wasnorm_wordpool_less_exclusions.txt	LTP197	ltpFR	7	4	1	BLUEBERRY	140	n/a	0	n/a	0	0	0	n/a	n/a	n/a	n/a	n/a
1189300	WORD	wordpools/wasnorm_wordpool_less_exclusions.txt	LTP197	ltpFR	7	5	1	SNOB	1335	n/a	1	n/a	0	0	0	1	0.412841796875	0.57763671875	lower	../fonts/zerothre.ttf
1193305	WORD	wordpools/wasnorm_wordpool_less_exclusions.txt	LTP197	ltpFR	7	5	1	LIME	823	n/a	1	n/a	0	0	0	1	0.412841796875	0.57763671875	lower	../fonts/zerothre.ttf
1197285	WORD	wordpools/wasnorm_wordpool_less_exclusions.txt	LTP197	ltpFR	7	5	1	LEMON	810	n/a	1	n/a	0	0	0	1	0.412841796875	0.57763671875	lower	../fonts/zerothre.ttf
1201501	WORD	wordpools/wasnorm_wordpool_less_exclusions.txt	LTP197	ltpFR	7	5	1	SHELF	1280	n/a	0	n/a	0	0	0	1	0.412841796875	0.57763671875	lower	../fonts/zerothre.ttf
1205493	WORD	wordpools/wasnorm_wordpool_less_exclusions.txt	LTP197	ltpFR	7	5	1	EAR	513	n/a	1	n/a	0	0	0	1	0.412841796875	0.57763671875	lower	../fonts/zerothre.ttf
1209599	WORD	wordpools/wasnorm_wordpool_less_exclusions.txt	LTP197	ltpFR	7	5	1	PELICAN	1039	n/a	1	n/a	0	0	0	1	0.412841796875	0.57763671875	lower	../fonts/zerothre.ttf
1213658	WORD	wordpools/wasnorm_wordpool_less_exclusions.txt	LTP197	ltpFR	7	5	1	GREASE	660	n/a	0	n/a	0	0	0	1	0.412841796875	0.57763671875	lower	../fonts/zerothre.ttf
1217512	WORD	wordpools/wasnorm_wordpool_less_exclusions.txt	LTP197	ltpFR	7	5	1	PORPOISE	1109	n/a	1	n/a	0	0	0	1	0.412841796875	0.57763671875	lower	../fonts/zerothre.ttf
1221677	WORD	wordpools/wasnorm_wordpool_less_exclusions.txt	LTP197	ltpFR	7	5	1	TORTOISE	1486	n/a	1	n/a	0	0	0	1	0.412841796875	0.57763671875	lower	../fonts/zerothre.ttf
1225887	WORD	wordpools/wasnorm_wordpool_less_exclusions.txt	LTP197	ltpFR	7	5	1	BILL	126	n/a	0	n/a	0	0	0	1	0.412841796875	0.57763671875	lower	../fonts/zerothre.ttf
1230002	WORD	wordpools/wasnorm_wordpool_less_exclusions.txt	LTP197	ltpFR	7	5	1	BOOTH	151	n/a	0	n/a	0	0	0	1	0.412841796875	0.57763671875	lower	../fonts/zerothre.ttf
1233857	WORD	wordpools/wasnorm_wordpool_less_exclusions.txt	LTP197	ltpFR	7	5	1	PEARL	1034	n/a	0	n/a	0	0	0	1	0.412841796875	0.57763671875	lower	../fonts/zerothre.ttf
1237849	WORD	wordpools/wasnorm_wordpool_less_exclusions.txt	LTP197	ltpFR	7	5	1	FOX	598	n/a	1	n/a	0	0	0	1	0.412841796875	0.57763671875	lower	../fonts/zerothre.ttf
1241920	WORD	wordpools/wasnorm_wordpool_less_exclusions.txt	LTP197	ltpFR	7	5	1	PRINCESS	1125	n/a	1	n/a	0	0	0	1	0.412841796875	0.57763671875	lower	../fonts/zerothre.ttf
1246019	WORD	wordpools/wasnorm_wordpool_less_exclusions.txt	LTP197	ltpFR	7	5	1	VINEGAR	1569	n/a	0	n/a	0	0	0	1	0.412841796875	0.57763671875	lower	../fonts/zerothre.ttf
1249884	WORD	wordpools/wasnorm_wordpool_less_exclusions.txt	LTP197	ltpFR	7	5	1	BLUEJAY	141	n/a	1	n/a	0	0	0	1	0.412841796875	0.57763671875	lower	../fonts/zerothre.ttf
1255800	REC_START	n/a	LTP197	ltpFR	7	5	n/a	n/a	n/a	n/a	n/a	n/a	0	0	0	n/a	n/a	n/a	n/a	n/a
1258718	REC_WORD	wordpools/wasnorm_wordpool_less_exclusions.txt	LTP197	ltpFR	7	5	1	SHELF	1280	n/a	0	n/a	0	0	0	n/a	n/a	n/a	n/a	n/a
1259880	REC_WORD	wordpools/wasnorm_wordpool_less_exclusions.txt	LTP197	ltpFR	7	5	1	GREASE	660	n/a	0	n/a	0	0	0	n/a	n/a	n/a	n/a	n/a
1260673	REC_WORD	wordpools/wasnorm_wordpool_less_exclusions.txt	LTP197	ltpFR	7	5	1	SNOB	1335	n/a	1	n/a	0	0	0	n/a	n/a	n/a	n/a	n/a
1261756	REC_WORD	wordpools/wasnorm_wordpool_less_exclusions.txt	LTP197	ltpFR	7	5	1	EAR	513	n/a	1	n/a	0	0	0	n/a	n/a	n/a	n/a	n/a
1262894	REC_WORD	wordpools/wasnorm_wordpool_less_exclusions.txt	LTP197	ltpFR	7	5	1	LEMON	810	n/a	1	n/a	0	0	0	n/a	n/a	n/a	n/a	n/a
1263614	REC_WORD	wordpools/wasnorm_wordpool_less_exclusions.txt	LTP197	ltpFR	7	5	1	LIME	823	n/a	1	n/a	0	0	0	n/a	n/a	n/a	n/a	n/a
1266420	REC_WORD	wordpools/wasnorm_wordpool_less_exclusions.txt	LTP197	ltpFR	7	5	1	TORTOISE	1486	n/a	1	n/a	0	0	0	n/a	n/a	n/a	n/a	n/a
1269917	REC_WORD	wordpools/wasnorm_wordpool_less_exclusions.txt	LTP197	ltpFR	7	5	1	PORPOISE	1109	n/a	1	n/a	0	0	0	n/a	n/a	n/a	n/a	n/a
1272522	REC_WORD	wordpools/wasnorm_wordpool_less_exclusions.txt	LTP197	ltpFR	7	5	1	PELICAN	1039	n/a	1	n/a	0	0	0	n/a	n/a	n/a	n/a	n/a
1276019	REC_WORD	wordpools/wasnorm_wordpool_less_exclusions.txt	LTP197	ltpFR	7	5	1	SHELF	1280	n/a	0	n/a	0	0	0	n/a	n/a	n/a	n/a	n/a
1277012	REC_WORD	wordpools/wasnorm_wordpool_less_exclusions.txt	LTP197	ltpFR	7	5	1	BOOTH	151	n/a	0	n/a	0	0	0	n/a	n/a	n/a	n/a	n/a
1277949	REC_WORD	wordpools/wasnorm_wordpool_less_exclusions.txt	LTP197	ltpFR	7	5	1	BILL	126	n/a	0	n/a	0	0	0	n/a	n/a	n/a	n/a	n/a
1278568	REC_WORD	wordpools/wasnorm_wordpool_less_exclusions.txt	LTP197	ltpFR	7	5	1	FOX	598	n/a	1	n/a	0	0	0	n/a	n/a	n/a	n/a	n/a
1293778	REC_WORD	wordpools/wasnorm_wordpool_less_exclusions.txt	LTP197	ltpFR	7	5	1	PRINCESS	1125	n/a	1	n/a	0	0	0	n/a	n/a	n/a	n/a	n/a
1336428	START	n/a	LTP197	ltpFR	7	n/a	n/a	n/a	n/a	n/a	n/a	n/a	n/a	n/a	n/a	n/a	n/a	n/a	n/a	n/a
1337943	PROB	n/a	LTP197	ltpFR	7	n/a	n/a	n/a	n/a	n/a	n/a	18	3	7	8	n/a	n/a	n/a	n/a	n/a
1339800	PROB	n/a	LTP197	ltpFR	7	n/a	n/a	n/a	n/a	n/a	n/a	15	4	2	9	n/a	n/a	n/a	n/a	n/a
1344427	STOP	n/a	LTP197	ltpFR	7	n/a	n/a	n/a	n/a	n/a	n/a	n/a	n/a	n/a	n/a	n/a	n/a	n/a	n/a	n/a
1345321	WORD	wordpools/wasnorm_wordpool_less_exclusions.txt	LTP197	ltpFR	7	6	1	FRIAR	605	n/a	1	n/a	0	0	0	1	0.412841796875	0.57763671875	lower	../fonts/zerothre.ttf
1348333	START	n/a	LTP197	ltpFR	7	n/a	n/a	n/a	n/a	n/a	n/a	n/a	n/a	n/a	n/a	n/a	n/a	n/a	n/a	n/a
1349526	PROB	n/a	LTP197	ltpFR	7	n/a	n/a	n/a	n/a	n/a	n/a	11	5	2	4	n/a	n/a	n/a	n/a	n/a
1352715	PROB	n/a	LTP197	ltpFR	7	n/a	n/a	n/a	n/a	n/a	n/a	18	9	4	5	n/a	n/a	n/a	n/a	n/a
1354977	STOP	n/a	LTP197	ltpFR	7	n/a	n/a	n/a	n/a	n/a	n/a	n/a	n/a	n/a	n/a	n/a	n/a	n/a	n/a	n/a
1357188	WORD	wordpools/wasnorm_wordpool_less_exclusions.txt	LTP197	ltpFR	7	6	1	BANK	83	n/a	0	n/a	0	0	0	1	0.412841796875	0.57763671875	lower	../fonts/zerothre.ttf
1360200	START	n/a	LTP197	ltpFR	7	n/a	n/a	n/a	n/a	n/a	n/a	n/a	n/a	n/a	n/a	n/a	n/a	n/a	n/a	n/a
1361130	PROB	n/a	LTP197	ltpFR	7	n/a	n/a	n/a	n/a	n/a	n/a	15	7	7	1	n/a	n/a	n/a	n/a	n/a
1362625	PROB	n/a	LTP197	ltpFR	7	n/a	n/a	n/a	n/a	n/a	n/a	14	4	7	3	n/a	n/a	n/a	n/a	n/a
1364041	PROB	n/a	LTP197	ltpFR	7	n/a	n/a	n/a	n/a	n/a	n/a	13	4	5	4	n/a	n/a	n/a	n/a	n/a
1365747	PROB	n/a	LTP197	ltpFR	7	n/a	n/a	n/a	n/a	n/a	n/a	20	4	9	7	n/a	n/a	n/a	n/a	n/a
1368153	STOP	n/a	LTP197	ltpFR	7	n/a	n/a	n/a	n/a	n/a	n/a	n/a	n/a	n/a	n/a	n/a	n/a	n/a	n/a	n/a
1369395	WORD	wordpools/wasnorm_wordpool_less_exclusions.txt	LTP197	ltpFR	7	6	1	CAPTAIN	239	n/a	1	n/a	0	0	0	1	0.412841796875	0.57763671875	lower	../fonts/zerothre.ttf
1372408	START	n/a	LTP197	ltpFR	7	n/a	n/a	n/a	n/a	n/a	n/a	n/a	n/a	n/a	n/a	n/a	n/a	n/a	n/a	n/a
1373394	PROB	n/a	LTP197	ltpFR	7	n/a	n/a	n/a	n/a	n/a	n/a	20	7	4	9	n/a	n/a	n/a	n/a	n/a
1375635	PROB	n/a	LTP197	ltpFR	7	n/a	n/a	n/a	n/a	n/a	n/a	15	2	5	8	n/a	n/a	n/a	n/a	n/a
1377649	PROB	n/a	LTP197	ltpFR	7	n/a	n/a	n/a	n/a	n/a	n/a	18	9	6	3	n/a	n/a	n/a	n/a	n/a
1379394	STOP	n/a	LTP197	ltpFR	7	n/a	n/a	n/a	n/a	n/a	n/a	n/a	n/a	n/a	n/a	n/a	n/a	n/a	n/a	n/a
1381597	WORD	wordpools/wasnorm_wordpool_less_exclusions.txt	LTP197	ltpFR	7	6	1	DRAWING	494	n/a	0	n/a	0	0	0	1	0.412841796875	0.57763671875	lower	../fonts/zerothre.ttf
1384609	START	n/a	LTP197	ltpFR	7	n/a	n/a	n/a	n/a	n/a	n/a	n/a	n/a	n/a	n/a	n/a	n/a	n/a	n/a	n/a
1385606	PROB	n/a	LTP197	ltpFR	7	n/a	n/a	n/a	n/a	n/a	n/a	18	6	8	4	n/a	n/a	n/a	n/a	n/a
1387931	PROB	n/a	LTP197	ltpFR	7	n/a	n/a	n/a	n/a	n/a	n/a	12	5	1	6	n/a	n/a	n/a	n/a	n/a
1389844	PROB	n/a	LTP197	ltpFR	7	n/a	n/a	n/a	n/a	n/a	n/a	15	8	3	4	n/a	n/a	n/a	n/a	n/a
1391466	STOP	n/a	LTP197	ltpFR	7	n/a	n/a	n/a	n/a	n/a	n/a	n/a	n/a	n/a	n/a	n/a	n/a	n/a	n/a	n/a
1393502	WORD	wordpools/wasnorm_wordpool_less_exclusions.txt	LTP197	ltpFR	7	6	1	PEANUT	1032	n/a	0	n/a	0	0	0	1	0.412841796875	0.57763671875	lower	../fonts/zerothre.ttf
1396514	START	n/a	LTP197	ltpFR	7	n/a	n/a	n/a	n/a	n/a	n/a	n/a	n/a	n/a	n/a	n/a	n/a	n/a	n/a	n/a
1397574	PROB	n/a	LTP197	ltpFR	7	n/a	n/a	n/a	n/a	n/a	n/a	16	9	6	5	n/a	n/a	n/a	n/a	n/a
1399224	PROB	n/a	LTP197	ltpFR	7	n/a	n/a	n/a	n/a	n/a	n/a	11	7	2	2	n/a	n/a	n/a	n/a	n/a
1402185	PROB	n/a	LTP197	ltpFR	7	n/a	n/a	n/a	n/a	n/a	n/a	11	5	4	2	n/a	n/a	n/a	n/a	n/a
1403745	STOP	n/a	LTP197	ltpFR	7	n/a	n/a	n/a	n/a	n/a	n/a	n/a	n/a	n/a	n/a	n/a	n/a	n/a	n/a	n/a
1405431	WORD	wordpools/wasnorm_wordpool_less_exclusions.txt	LTP197	ltpFR	7	6	1	BAKER	71	n/a	1	n/a	0	0	0	1	0.412841796875	0.57763671875	lower	../fonts/zerothre.ttf
1408443	START	n/a	LTP197	ltpFR	7	n/a	n/a	n/a	n/a	n/a	n/a	n/a	n/a	n/a	n/a	n/a	n/a	n/a	n/a	n/a
1409585	PROB	n/a	LTP197	ltpFR	7	n/a	n/a	n/a	n/a	n/a	n/a	15	9	5	1	n/a	n/a	n/a	n/a	n/a
1412597	PROB	n/a	LTP197	ltpFR	7	n/a	n/a	n/a	n/a	n/a	n/a	22	9	9	3	n/a	n/a	n/a	n/a	n/a
1415033	STOP	n/a	LTP197	ltpFR	7	n/a	n/a	n/a	n/a	n/a	n/a	n/a	n/a	n/a	n/a	n/a	n/a	n/a	n/a	n/a
1417332	WORD	wordpools/wasnorm_wordpool_less_exclusions.txt	LTP197	ltpFR	7	6	1	POOL	1103	n/a	1	n/a	0	0	0	1	0.412841796875	0.57763671875	lower	../fonts/zerothre.ttf
1420344	START	n/a	LTP197	ltpFR	7	n/a	n/a	n/a	n/a	n/a	n/a	n/a	n/a	n/a	n/a	n/a	n/a	n/a	n/a	n/a
1421314	PROB	n/a	LTP197	ltpFR	7	n/a	n/a	n/a	n/a	n/a	n/a	15	9	2	4	n/a	n/a	n/a	n/a	n/a
1423649	PROB	n/a	LTP197	ltpFR	7	n/a	n/a	n/a	n/a	n/a	n/a	14	6	1	7	n/a	n/a	n/a	n/a	n/a
1425780	PROB	n/a	LTP197	ltpFR	7	n/a	n/a	n/a	n/a	n/a	n/a	17	5	6	6	n/a	n/a	n/a	n/a	n/a
1427841	STOP	n/a	LTP197	ltpFR	7	n/a	n/a	n/a	n/a	n/a	n/a	n/a	n/a	n/a	n/a	n/a	n/a	n/a	n/a	n/a
1429394	WORD	wordpools/wasnorm_wordpool_less_exclusions.txt	LTP197	ltpFR	7	6	1	BRIDGE	174	n/a	0	n/a	0	0	0	1	0.412841796875	0.57763671875	lower	../fonts/zerothre.ttf
1432406	START	n/a	LTP197	ltpFR	7	n/a	n/a	n/a	n/a	n/a	n/a	n/a	n/a	n/a	n/a	n/a	n/a	n/a	n/a	n/a
1433258	PROB	n/a	LTP197	ltpFR	7	n/a	n/a	n/a	n/a	n/a	n/a	13	1	7	5	n/a	n/a	n/a	n/a	n/a
1435082	PROB	n/a	LTP197	ltpFR	7	n/a	n/a	n/a	n/a	n/a	n/a	12	1	7	4	n/a	n/a	n/a	n/a	n/a
1436939	PROB	n/a	LTP197	ltpFR	7	n/a	n/a	n/a	n/a	n/a	n/a	18	4	5	9	n/a	n/a	n/a	n/a	n/a
1439017	STOP	n/a	LTP197	ltpFR	7	n/a	n/a	n/a	n/a	n/a	n/a	n/a	n/a	n/a	n/a	n/a	n/a	n/a	n/a	n/a
1441255	WORD	wordpools/wasnorm_wordpool_less_exclusions.txt	LTP197	ltpFR	7	6	1	DOLPHIN	483	n/a	0	n/a	0	0	0	1	0.412841796875	0.57763671875	lower	../fonts/zerothre.ttf
1444267	START	n/a	LTP197	ltpFR	7	n/a	n/a	n/a	n/a	n/a	n/a	n/a	n/a	n/a	n/a	n/a	n/a	n/a	n/a	n/a
1445247	PROB	n/a	LTP197	ltpFR	7	n/a	n/a	n/a	n/a	n/a	n/a	10	4	3	3	n/a	n/a	n/a	n/a	n/a
1447177	PROB	n/a	LTP197	ltpFR	7	n/a	n/a	n/a	n/a	n/a	n/a	14	4	7	3	n/a	n/a	n/a	n/a	n/a
1448777	PROB	n/a	LTP197	ltpFR	7	n/a	n/a	n/a	n/a	n/a	n/a	15	1	9	5	n/a	n/a	n/a	n/a	n/a
1452257	STOP	n/a	LTP197	ltpFR	7	n/a	n/a	n/a	n/a	n/a	n/a	n/a	n/a	n/a	n/a	n/a	n/a	n/a	n/a	n/a
1453177	WORD	wordpools/wasnorm_wordpool_less_exclusions.txt	LTP197	ltpFR	7	6	1	FIN	566	n/a	1	n/a	0	0	0	1	0.412841796875	0.57763671875	lower	../fonts/zerothre.ttf
1456189	START	n/a	LTP197	ltpFR	7	n/a	n/a	n/a	n/a	n/a	n/a	n/a	n/a	n/a	n/a	n/a	n/a	n/a	n/a	n/a
1457031	PROB	n/a	LTP197	ltpFR	7	n/a	n/a	n/a	n/a	n/a	n/a	18	8	8	5	n/a	n/a	n/a	n/a	n/a
1459049	PROB	n/a	LTP197	ltpFR	7	n/a	n/a	n/a	n/a	n/a	n/a	13	1	9	3	n/a	n/a	n/a	n/a	n/a
1460605	PROB	n/a	LTP197	ltpFR	7	n/a	n/a	n/a	n/a	n/a	n/a	13	6	1	6	n/a	n/a	n/a	n/a	n/a
1464189	STOP	n/a	LTP197	ltpFR	7	n/a	n/a	n/a	n/a	n/a	n/a	n/a	n/a	n/a	n/a	n/a	n/a	n/a	n/a	n/a
1465374	WORD	wordpools/wasnorm_wordpool_less_exclusions.txt	LTP197	ltpFR	7	6	1	CHART	282	n/a	0	n/a	0	0	0	1	0.412841796875	0.57763671875	lower	../fonts/zerothre.ttf
1468386	START	n/a	LTP197	ltpFR	7	n/a	n/a	n/a	n/a	n/a	n/a	n/a	n/a	n/a	n/a	n/a	n/a	n/a	n/a	n/a
1469488	PROB	n/a	LTP197	ltpFR	7	n/a	n/a	n/a	n/a	n/a	n/a	16	7	4	5	n/a	n/a	n/a	n/a	n/a
1471302	PROB	n/a	LTP197	ltpFR	7	n/a	n/a	n/a	n/a	n/a	n/a	14	6	6	4	n/a	n/a	n/a	n/a	n/a
1472700	PROB	n/a	LTP197	ltpFR	7	n/a	n/a	n/a	n/a	n/a	n/a	19	6	5	7	n/a	n/a	n/a	n/a	n/a
1476057	STOP	n/a	LTP197	ltpFR	7	n/a	n/a	n/a	n/a	n/a	n/a	n/a	n/a	n/a	n/a	n/a	n/a	n/a	n/a	n/a
1477491	WORD	wordpools/wasnorm_wordpool_less_exclusions.txt	LTP197	ltpFR	7	6	1	PREACHER	1119	n/a	1	n/a	0	0	0	1	0.412841796875	0.57763671875	lower	../fonts/zerothre.ttf
1480503	START	n/a	LTP197	ltpFR	7	n/a	n/a	n/a	n/a	n/a	n/a	n/a	n/a	n/a	n/a	n/a	n/a	n/a	n/a	n/a
1481718	PROB	n/a	LTP197	ltpFR	7	n/a	n/a	n/a	n/a	n/a	n/a	22	9	6	7	n/a	n/a	n/a	n/a	n/a
1484535	PROB	n/a	LTP197	ltpFR	7	n/a	n/a	n/a	n/a	n/a	n/a	17	5	7	5	n/a	n/a	n/a	n/a	n/a
1487322	STOP	n/a	LTP197	ltpFR	7	n/a	n/a	n/a	n/a	n/a	n/a	n/a	n/a	n/a	n/a	n/a	n/a	n/a	n/a	n/a
1489387	WORD	wordpools/wasnorm_wordpool_less_exclusions.txt	LTP197	ltpFR	7	6	1	MINT	898	n/a	0	n/a	0	0	0	1	0.412841796875	0.57763671875	lower	../fonts/zerothre.ttf
1492399	START	n/a	LTP197	ltpFR	7	n/a	n/a	n/a	n/a	n/a	n/a	n/a	n/a	n/a	n/a	n/a	n/a	n/a	n/a	n/a
1493512	PROB	n/a	LTP197	ltpFR	7	n/a	n/a	n/a	n/a	n/a	n/a	16	4	6	6	n/a	n/a	n/a	n/a	n/a
1494968	PROB	n/a	LTP197	ltpFR	7	n/a	n/a	n/a	n/a	n/a	n/a	24	8	8	8	n/a	n/a	n/a	n/a	n/a
1497243	PROB	n/a	LTP197	ltpFR	7	n/a	n/a	n/a	n/a	n/a	n/a	22	6	8	8	n/a	n/a	n/a	n/a	n/a
1500346	STOP	n/a	LTP197	ltpFR	7	n/a	n/a	n/a	n/a	n/a	n/a	n/a	n/a	n/a	n/a	n/a	n/a	n/a	n/a	n/a
1501416	WORD	wordpools/wasnorm_wordpool_less_exclusions.txt	LTP197	ltpFR	7	6	1	WHEAT	1602	n/a	0	n/a	0	0	0	1	0.412841796875	0.57763671875	lower	../fonts/zerothre.ttf
1504428	START	n/a	LTP197	ltpFR	7	n/a	n/a	n/a	n/a	n/a	n/a	n/a	n/a	n/a	n/a	n/a	n/a	n/a	n/a	n/a
1505391	PROB	n/a	LTP197	ltpFR	7	n/a	n/a	n/a	n/a	n/a	n/a	22	9	7	6	n/a	n/a	n/a	n/a	n/a
1508067	PROB	n/a	LTP197	ltpFR	7	n/a	n/a	n/a	n/a	n/a	n/a	11	3	4	3	n/a	n/a	n/a	n/a	n/a
1511338	STOP	n/a	LTP197	ltpFR	7	n/a	n/a	n/a	n/a	n/a	n/a	n/a	n/a	n/a	n/a	n/a	n/a	n/a	n/a	n/a
1513276	WORD	wordpools/wasnorm_wordpool_less_exclusions.txt	LTP197	ltpFR	7	6	1	STAMP	1370	n/a	0	n/a	0	0	0	1	0.412841796875	0.57763671875	lower	../fonts/zerothre.ttf
1516289	START	n/a	LTP197	ltpFR	7	n/a	n/a	n/a	n/a	n/a	n/a	n/a	n/a	n/a	n/a	n/a	n/a	n/a	n/a	n/a
1517376	PROB	n/a	LTP197	ltpFR	7	n/a	n/a	n/a	n/a	n/a	n/a	12	1	2	9	n/a	n/a	n/a	n/a	n/a
1518941	PROB	n/a	LTP197	ltpFR	7	n/a	n/a	n/a	n/a	n/a	n/a	13	1	6	6	n/a	n/a	n/a	n/a	n/a
1520320	PROB	n/a	LTP197	ltpFR	7	n/a	n/a	n/a	n/a	n/a	n/a	17	3	9	5	n/a	n/a	n/a	n/a	n/a
1522412	PROB	n/a	LTP197	ltpFR	7	n/a	n/a	n/a	n/a	n/a	n/a	22	8	8	6	n/a	n/a	n/a	n/a	n/a
1524065	STOP	n/a	LTP197	ltpFR	7	n/a	n/a	n/a	n/a	n/a	n/a	n/a	n/a	n/a	n/a	n/a	n/a	n/a	n/a	n/a
1525367	WORD	wordpools/wasnorm_wordpool_less_exclusions.txt	LTP197	ltpFR	7	6	1	CATCHER	258	n/a	1	n/a	0	0	0	1	0.412841796875	0.57763671875	lower	../fonts/zerothre.ttf
1528384	START	n/a	LTP197	ltpFR	7	n/a	n/a	n/a	n/a	n/a	n/a	n/a	n/a	n/a	n/a	n/a	n/a	n/a	n/a	n/a
1529321	PROB	n/a	LTP197	ltpFR	7	n/a	n/a	n/a	n/a	n/a	n/a	16	6	4	3	n/a	n/a	n/a	n/a	n/a
1530792	PROB	n/a	LTP197	ltpFR	7	n/a	n/a	n/a	n/a	n/a	n/a	16	1	6	9	n/a	n/a	n/a	n/a	n/a
1533603	PROB	n/a	LTP197	ltpFR	7	n/a	n/a	n/a	n/a	n/a	n/a	5	3	1	1	n/a	n/a	n/a	n/a	n/a
1536145	STOP	n/a	LTP197	ltpFR	7	n/a	n/a	n/a	n/a	n/a	n/a	n/a	n/a	n/a	n/a	n/a	n/a	n/a	n/a	n/a
1538204	REC_START	n/a	LTP197	ltpFR	7	6	n/a	n/a	n/a	n/a	n/a	n/a	0	0	0	n/a	n/a	n/a	n/a	n/a
1541012	REC_WORD	wordpools/wasnorm_wordpool_less_exclusions.txt	LTP197	ltpFR	7	6	1	BANK	83	n/a	0	n/a	0	0	0	n/a	n/a	n/a	n/a	n/a
1541741	REC_WORD	wordpools/wasnorm_wordpool_less_exclusions.txt	LTP197	ltpFR	7	6	1	PREACHER	1119	n/a	1	n/a	0	0	0	n/a	n/a	n/a	n/a	n/a
1542978	REC_WORD	wordpools/wasnorm_wordpool_less_exclusions.txt	LTP197	ltpFR	7	6	1	FRIAR	605	n/a	1	n/a	0	0	0	n/a	n/a	n/a	n/a	n/a
1544799	REC_WORD	wordpools/wasnorm_wordpool_less_exclusions.txt	LTP197	ltpFR	7	6	1	BAKER	71	n/a	1	n/a	0	0	0	n/a	n/a	n/a	n/a	n/a
1547053	REC_WORD	wordpools/wasnorm_wordpool_less_exclusions.txt	LTP197	ltpFR	7	6	1	PEANUT	1032	n/a	0	n/a	0	0	0	n/a	n/a	n/a	n/a	n/a
1548106	REC_WORD	wordpools/wasnorm_wordpool_less_exclusions.txt	LTP197	ltpFR	7	6	1	POOL	1103	n/a	1	n/a	0	0	0	n/a	n/a	n/a	n/a	n/a
1548989	REC_WORD	wordpools/wasnorm_wordpool_less_exclusions.txt	LTP197	ltpFR	7	6	1	BRIDGE	174	n/a	0	n/a	0	0	0	n/a	n/a	n/a	n/a	n/a
1550880	REC_WORD	wordpools/wasnorm_wordpool_less_exclusions.txt	LTP197	ltpFR	7	6	1	DOLPHIN	483	n/a	0	n/a	0	0	0	n/a	n/a	n/a	n/a	n/a
1553334	REC_WORD	wordpools/wasnorm_wordpool_less_exclusions.txt	LTP197	ltpFR	7	6	1	DRAWING	494	n/a	0	n/a	0	0	0	n/a	n/a	n/a	n/a	n/a
1620408	WORD	wordpools/wasnorm_wordpool_less_exclusions.txt	LTP197	ltpFR	7	7	0	TAXI	1438	n/a	1	n/a	0	0	0	0	0.5869140625	0.422607421875	upper	../fonts/amplitud.ttf
1624312	WORD	wordpools/wasnorm_wordpool_less_exclusions.txt	LTP197	ltpFR	7	7	0	JEEP	753	n/a	1	n/a	0	0	0	0	0.5869140625	0.422607421875	upper	../fonts/amplitud.ttf
1628186	WORD	wordpools/wasnorm_wordpool_less_exclusions.txt	LTP197	ltpFR	7	7	0	LAGOON	795	n/a	1	n/a	0	0	0	0	0.5869140625	0.422607421875	upper	../fonts/amplitud.ttf
1632107	WORD	wordpools/wasnorm_wordpool_less_exclusions.txt	LTP197	ltpFR	7	7	0	RAG	1160	n/a	0	n/a	0	0	0	0	0.5869140625	0.422607421875	upper	../fonts/amplitud.ttf
1636318	WORD	wordpools/wasnorm_wordpool_less_exclusions.txt	LTP197	ltpFR	7	7	0	CHIEF	298	n/a	1	n/a	0	0	0	0	0.5869140625	0.422607421875	upper	../fonts/amplitud.ttf
1640373	WORD	wordpools/wasnorm_wordpool_less_exclusions.txt	LTP197	ltpFR	7	7	0	BACK	65	n/a	1	n/a	0	0	0	0	0.5869140625	0.422607421875	upper	../fonts/amplitud.ttf
1644471	WORD	wordpools/wasnorm_wordpool_less_exclusions.txt	LTP197	ltpFR	7	7	0	BOTTLE	153	n/a	0	n/a	0	0	0	0	0.5869140625	0.422607421875	upper	../fonts/amplitud.ttf
1648636	WORD	wordpools/wasnorm_wordpool_less_exclusions.txt	LTP197	ltpFR	7	7	0	CORK	380	n/a	0	n/a	0	0	0	0	0.5869140625	0.422607421875	upper	../fonts/amplitud.ttf
1652585	WORD	wordpools/wasnorm_wordpool_less_exclusions.txt	LTP197	ltpFR	7	7	0	LUGGAGE	847	n/a	1	n/a	0	0	0	0	0.5869140625	0.422607421875	upper	../fonts/amplitud.ttf
1656450	WORD	wordpools/wasnorm_wordpool_less_exclusions.txt	LTP197	ltpFR	7	7	0	SKI	1316	n/a	n/a	n/a	0	0	0	0	0.5869140625	0.422607421875	upper	../fonts/amplitud.ttf
1659494	SLOW_MSG	n/a	LTP197	ltpFR	7	7	n/a	n/a	n/a	n/a	n/a	n/a	0	0	0	n/a	n/a	n/a	n/a	n/a
1662003	WORD	wordpools/wasnorm_wordpool_less_exclusions.txt	LTP197	ltpFR	7	7	0	WASHCLOTH	1591	n/a	0	n/a	0	0	0	0	0.5869140625	0.422607421875	upper	../fonts/amplitud.ttf
1665935	WORD	wordpools/wasnorm_wordpool_less_exclusions.txt	LTP197	ltpFR	7	7	0	FAN	551	n/a	1	n/a	0	0	0	0	0.5869140625	0.422607421875	upper	../fonts/amplitud.ttf
1669816	WORD	wordpools/wasnorm_wordpool_less_exclusions.txt	LTP197	ltpFR	7	7	0	MICROPHONE	890	n/a	1	n/a	0	0	0	0	0.5869140625	0.422607421875	upper	../fonts/amplitud.ttf
1673808	WORD	wordpools/wasnorm_wordpool_less_exclusions.txt	LTP197	ltpFR	7	7	0	ORCHESTRA	981	n/a	1	n/a	0	0	0	0	0.5869140625	0.422607421875	upper	../fonts/amplitud.ttf
1677646	WORD	wordpools/wasnorm_wordpool_less_exclusions.txt	LTP197	ltpFR	7	7	0	WATER	1594	n/a	1	n/a	0	0	0	0	0.5869140625	0.422607421875	upper	../fonts/amplitud.ttf
1681721	WORD	wordpools/wasnorm_wordpool_less_exclusions.txt	LTP197	ltpFR	7	7	0	SWAN	1417	n/a	1	n/a	0	0	0	0	0.5869140625	0.422607421875	upper	../fonts/amplitud.ttf
1684733	START	n/a	LTP197	ltpFR	7	n/a	n/a	n/a	n/a	n/a	n/a	n/a	n/a	n/a	n/a	n/a	n/a	n/a	n/a	n/a
1685720	PROB	n/a	LTP197	ltpFR	7	n/a	n/a	n/a	n/a	n/a	n/a	18	6	5	7	n/a	n/a	n/a	n/a	n/a
1688263	PROB	n/a	LTP197	ltpFR	7	n/a	n/a	n/a	n/a	n/a	n/a	21	9	4	8	n/a	n/a	n/a	n/a	n/a
1692579	PROB	n/a	LTP197	ltpFR	7	n/a	n/a	n/a	n/a	n/a	n/a	18	9	2	7	n/a	n/a	n/a	n/a	n/a
1695858	PROB	n/a	LTP197	ltpFR	7	n/a	n/a	n/a	n/a	n/a	n/a	19	6	4	9	n/a	n/a	n/a	n/a	n/a
1697421	PROB	n/a	LTP197	ltpFR	7	n/a	n/a	n/a	n/a	n/a	n/a	18	9	3	6	n/a	n/a	n/a	n/a	n/a
1699488	STOP	n/a	LTP197	ltpFR	7	n/a	n/a	n/a	n/a	n/a	n/a	n/a	n/a	n/a	n/a	n/a	n/a	n/a	n/a	n/a
1702668	REC_START	n/a	LTP197	ltpFR	7	7	n/a	n/a	n/a	n/a	n/a	n/a	0	0	0	n/a	n/a	n/a	n/a	n/a
1704519	REC_WORD	wordpools/wasnorm_wordpool_less_exclusions.txt	LTP197	ltpFR	7	7	0	JEEP	753	n/a	1	n/a	0	0	0	n/a	n/a	n/a	n/a	n/a
1705352	REC_WORD	wordpools/wasnorm_wordpool_less_exclusions.txt	LTP197	ltpFR	7	7	0	TAXI	1438	n/a	1	n/a	0	0	0	n/a	n/a	n/a	n/a	n/a
1706240	REC_WORD	wordpools/wasnorm_wordpool_less_exclusions.txt	LTP197	ltpFR	7	7	0	LUGGAGE	847	n/a	1	n/a	0	0	0	n/a	n/a	n/a	n/a	n/a
1707008	REC_WORD	wordpools/wasnorm_wordpool_less_exclusions.txt	LTP197	ltpFR	7	7	0	FAN	551	n/a	1	n/a	0	0	0	n/a	n/a	n/a	n/a	n/a
1707800	REC_WORD	wordpools/wasnorm_wordpool_less_exclusions.txt	LTP197	ltpFR	7	7	0	SKI	1316	n/a	n/a	n/a	0	0	0	n/a	n/a	n/a	n/a	n/a
1710565	REC_WORD	wordpools/wasnorm_wordpool_less_exclusions.txt	LTP197	ltpFR	7	7	0	LAGOON	795	n/a	1	n/a	0	0	0	n/a	n/a	n/a	n/a	n/a
1715189	REC_WORD	wordpools/wasnorm_wordpool_less_exclusions.txt	LTP197	ltpFR	7	7	0	WATER	1594	n/a	1	n/a	0	0	0	n/a	n/a	n/a	n/a	n/a
1715707	REC_WORD	wordpools/wasnorm_wordpool_less_exclusions.txt	LTP197	ltpFR	7	7	0	SWAN	1417	n/a	1	n/a	0	0	0	n/a	n/a	n/a	n/a	n/a
1717998	REC_WORD	wordpools/wasnorm_wordpool_less_exclusions.txt	LTP197	ltpFR	7	7	0	WASHCLOTH	1591	n/a	0	n/a	0	0	0	n/a	n/a	n/a	n/a	n/a
1718891	REC_WORD	wordpools/wasnorm_wordpool_less_exclusions.txt	LTP197	ltpFR	7	7	n/a	BAG	69	n/a	n/a	n/a	0	0	0	n/a	n/a	n/a	n/a	n/a
1719644	REC_WORD	wordpools/wasnorm_wordpool_less_exclusions.txt	LTP197	ltpFR	7	7	0	CHIEF	298	n/a	1	n/a	0	0	0	n/a	n/a	n/a	n/a	n/a
1720772	REC_WORD	wordpools/wasnorm_wordpool_less_exclusions.txt	LTP197	ltpFR	7	7	0	BACK	65	n/a	1	n/a	0	0	0	n/a	n/a	n/a	n/a	n/a
1723900	REC_WORD	wordpools/wasnorm_wordpool_less_exclusions.txt	LTP197	ltpFR	7	7	0	BOTTLE	153	n/a	0	n/a	0	0	0	n/a	n/a	n/a	n/a	n/a
1724473	REC_WORD	wordpools/wasnorm_wordpool_less_exclusions.txt	LTP197	ltpFR	7	7	0	CORK	380	n/a	0	n/a	0	0	0	n/a	n/a	n/a	n/a	n/a
1782123	START	n/a	LTP197	ltpFR	7	n/a	n/a	n/a	n/a	n/a	n/a	n/a	n/a	n/a	n/a	n/a	n/a	n/a	n/a	n/a
1783639	PROB	n/a	LTP197	ltpFR	7	n/a	n/a	n/a	n/a	n/a	n/a	7	3	2	2	n/a	n/a	n/a	n/a	n/a
1786081	PROB	n/a	LTP197	ltpFR	7	n/a	n/a	n/a	n/a	n/a	n/a	15	4	2	9	n/a	n/a	n/a	n/a	n/a
1787738	PROB	n/a	LTP197	ltpFR	7	n/a	n/a	n/a	n/a	n/a	n/a	21	6	9	6	n/a	n/a	n/a	n/a	n/a
1790036	PROB	n/a	LTP197	ltpFR	7	n/a	n/a	n/a	n/a	n/a	n/a	12	1	7	4	n/a	n/a	n/a	n/a	n/a
1791575	PROB	n/a	LTP197	ltpFR	7	n/a	n/a	n/a	n/a	n/a	n/a	18	5	6	9	n/a	n/a	n/a	n/a	n/a
1794285	PROB	n/a	LTP197	ltpFR	7	n/a	n/a	n/a	n/a	n/a	n/a	20	9	4	7	n/a	n/a	n/a	n/a	n/a
1796785	STOP	n/a	LTP197	ltpFR	7	n/a	n/a	n/a	n/a	n/a	n/a	n/a	n/a	n/a	n/a	n/a	n/a	n/a	n/a	n/a
1799349	WORD	wordpools/wasnorm_wordpool_less_exclusions.txt	LTP197	ltpFR	7	8	1	ANGEL	22	n/a	1	n/a	0	0	0	1	0.412841796875	0.57763671875	lower	../fonts/zerothre.ttf
1802361	START	n/a	LTP197	ltpFR	7	n/a	n/a	n/a	n/a	n/a	n/a	n/a	n/a	n/a	n/a	n/a	n/a	n/a	n/a	n/a
1803398	PROB	n/a	LTP197	ltpFR	7	n/a	n/a	n/a	n/a	n/a	n/a	11	1	6	4	n/a	n/a	n/a	n/a	n/a
1805322	PROB	n/a	LTP197	ltpFR	7	n/a	n/a	n/a	n/a	n/a	n/a	24	8	9	7	n/a	n/a	n/a	n/a	n/a
1809108	PROB	n/a	LTP197	ltpFR	7	n/a	n/a	n/a	n/a	n/a	n/a	17	7	5	5	n/a	n/a	n/a	n/a	n/a
1811584	PROB	n/a	LTP197	ltpFR	7	n/a	n/a	n/a	n/a	n/a	n/a	16	9	2	5	n/a	n/a	n/a	n/a	n/a
1813369	PROB	n/a	LTP197	ltpFR	7	n/a	n/a	n/a	n/a	n/a	n/a	17	5	7	5	n/a	n/a	n/a	n/a	n/a
1815666	PROB	n/a	LTP197	ltpFR	7	n/a	n/a	n/a	n/a	n/a	n/a	14	8	7	1	n/a	n/a	n/a	n/a	n/a
1818001	STOP	n/a	LTP197	ltpFR	7	n/a	n/a	n/a	n/a	n/a	n/a	n/a	n/a	n/a	n/a	n/a	n/a	n/a	n/a	n/a
1819564	WORD	wordpools/wasnorm_wordpool_less_exclusions.txt	LTP197	ltpFR	7	8	1	BLANKET	135	n/a	0	n/a	0	0	0	1	0.412841796875	0.57763671875	lower	../fonts/zerothre.ttf
1822576	START	n/a	LTP197	ltpFR	7	n/a	n/a	n/a	n/a	n/a	n/a	n/a	n/a	n/a	n/a	n/a	n/a	n/a	n/a	n/a
1823780	PROB	n/a	LTP197	ltpFR	7	n/a	n/a	n/a	n/a	n/a	n/a	12	5	1	6	n/a	n/a	n/a	n/a	n/a
1825603	PROB	n/a	LTP197	ltpFR	7	n/a	n/a	n/a	n/a	n/a	n/a	18	6	7	5	n/a	n/a	n/a	n/a	n/a
1827527	PROB	n/a	LTP197	ltpFR	7	n/a	n/a	n/a	n/a	n/a	n/a	17	3	8	6	n/a	n/a	n/a	n/a	n/a
1829368	PROB	n/a	LTP197	ltpFR	7	n/a	n/a	n/a	n/a	n/a	n/a	14	9	1	4	n/a	n/a	n/a	n/a	n/a
1830884	PROB	n/a	LTP197	ltpFR	7	n/a	n/a	n/a	n/a	n/a	n/a	12	2	5	5	n/a	n/a	n/a	n/a	n/a
1832245	PROB	n/a	LTP197	ltpFR	7	n/a	n/a	n/a	n/a	n/a	n/a	12	6	4	2	n/a	n/a	n/a	n/a	n/a
1833650	PROB	n/a	LTP197	ltpFR	7	n/a	n/a	n/a	n/a	n/a	n/a	17	7	9	1	n/a	n/a	n/a	n/a	n/a
1835156	PROB	n/a	LTP197	ltpFR	7	n/a	n/a	n/a	n/a	n/a	n/a	9	5	3	1	n/a	n/a	n/a	n/a	n/a
1836705	PROB	n/a	LTP197	ltpFR	7	n/a	n/a	n/a	n/a	n/a	n/a	18	8	2	8	n/a	n/a	n/a	n/a	n/a
1838273	STOP	n/a	LTP197	ltpFR	7	n/a	n/a	n/a	n/a	n/a	n/a	n/a	n/a	n/a	n/a	n/a	n/a	n/a	n/a	n/a
1839740	WORD	wordpools/wasnorm_wordpool_less_exclusions.txt	LTP197	ltpFR	7	8	1	LOFT	840	n/a	0	n/a	0	0	0	1	0.412841796875	0.57763671875	lower	../fonts/zerothre.ttf
1842752	START	n/a	LTP197	ltpFR	7	n/a	n/a	n/a	n/a	n/a	n/a	n/a	n/a	n/a	n/a	n/a	n/a	n/a	n/a	n/a
1843899	PROB	n/a	LTP197	ltpFR	7	n/a	n/a	n/a	n/a	n/a	n/a	11	8	4	1	n/a	n/a	n/a	n/a	n/a
1845171	PROB	n/a	LTP197	ltpFR	7	n/a	n/a	n/a	n/a	n/a	n/a	14	3	5	8	n/a	n/a	n/a	n/a	n/a
1848149	PROB	n/a	LTP197	ltpFR	7	n/a	n/a	n/a	n/a	n/a	n/a	13	4	1	8	n/a	n/a	n/a	n/a	n/a
1850106	PROB	n/a	LTP197	ltpFR	7	n/a	n/a	n/a	n/a	n/a	n/a	22	7	9	6	n/a	n/a	n/a	n/a	n/a
1854228	PROB	n/a	LTP197	ltpFR	7	n/a	n/a	n/a	n/a	n/a	n/a	17	6	8	3	n/a	n/a	n/a	n/a	n/a
1856135	PROB	n/a	LTP197	ltpFR	7	n/a	n/a	n/a	n/a	n/a	n/a	8	6	1	1	n/a	n/a	n/a	n/a	n/a
1857489	STOP	n/a	LTP197	ltpFR	7	n/a	n/a	n/a	n/a	n/a	n/a	n/a	n/a	n/a	n/a	n/a	n/a	n/a	n/a	n/a
1859815	WORD	wordpools/wasnorm_wordpool_less_exclusions.txt	LTP197	ltpFR	7	8	1	PEN	1041	n/a	0	n/a	0	0	0	1	0.412841796875	0.57763671875	lower	../fonts/zerothre.ttf
1862827	START	n/a	LTP197	ltpFR	7	n/a	n/a	n/a	n/a	n/a	n/a	n/a	n/a	n/a	n/a	n/a	n/a	n/a	n/a	n/a
1863707	PROB	n/a	LTP197	ltpFR	7	n/a	n/a	n/a	n/a	n/a	n/a	13	3	8	2	n/a	n/a	n/a	n/a	n/a
1865604	PROB	n/a	LTP197	ltpFR	7	n/a	n/a	n/a	n/a	n/a	n/a	13	5	2	6	n/a	n/a	n/a	n/a	n/a
1867739	PROB	n/a	LTP197	ltpFR	7	n/a	n/a	n/a	n/a	n/a	n/a	15	4	3	8	n/a	n/a	n/a	n/a	n/a
1869797	PROB	n/a	LTP197	ltpFR	7	n/a	n/a	n/a	n/a	n/a	n/a	13	1	4	8	n/a	n/a	n/a	n/a	n/a
1871526	PROB	n/a	LTP197	ltpFR	7	n/a	n/a	n/a	n/a	n/a	n/a	18	4	9	5	n/a	n/a	n/a	n/a	n/a
1874080	PROB	n/a	LTP197	ltpFR	7	n/a	n/a	n/a	n/a	n/a	n/a	17	4	6	7	n/a	n/a	n/a	n/a	n/a
1875876	PROB	n/a	LTP197	ltpFR	7	n/a	n/a	n/a	n/a	n/a	n/a	15	9	4	2	n/a	n/a	n/a	n/a	n/a
1877657	STOP	n/a	LTP197	ltpFR	7	n/a	n/a	n/a	n/a	n/a	n/a	n/a	n/a	n/a	n/a	n/a	n/a	n/a	n/a	n/a
1879768	WORD	wordpools/wasnorm_wordpool_less_exclusions.txt	LTP197	ltpFR	7	8	1	TWIG	1527	n/a	0	n/a	0	0	0	1	0.412841796875	0.57763671875	lower	../fonts/zerothre.ttf
1882786	START	n/a	LTP197	ltpFR	7	n/a	n/a	n/a	n/a	n/a	n/a	n/a	n/a	n/a	n/a	n/a	n/a	n/a	n/a	n/a
1883789	PROB	n/a	LTP197	ltpFR	7	n/a	n/a	n/a	n/a	n/a	n/a	16	7	1	8	n/a	n/a	n/a	n/a	n/a
1885663	PROB	n/a	LTP197	ltpFR	7	n/a	n/a	n/a	n/a	n/a	n/a	20	8	8	4	n/a	n/a	n/a	n/a	n/a
1887530	PROB	n/a	LTP197	ltpFR	7	n/a	n/a	n/a	n/a	n/a	n/a	15	5	1	9	n/a	n/a	n/a	n/a	n/a
1889555	PROB	n/a	LTP197	ltpFR	7	n/a	n/a	n/a	n/a	n/a	n/a	7	1	5	1	n/a	n/a	n/a	n/a	n/a
1891194	PROB	n/a	LTP197	ltpFR	7	n/a	n/a	n/a	n/a	n/a	n/a	19	5	5	9	n/a	n/a	n/a	n/a	n/a
1892516	PROB	n/a	LTP197	ltpFR	7	n/a	n/a	n/a	n/a	n/a	n/a	25	9	8	8	n/a	n/a	n/a	n/a	n/a
1895075	PROB	n/a	LTP197	ltpFR	7	n/a	n/a	n/a	n/a	n/a	n/a	15	4	6	5	n/a	n/a	n/a	n/a	n/a
1898786	STOP	n/a	LTP197	ltpFR	7	n/a	n/a	n/a	n/a	n/a	n/a	n/a	n/a	n/a	n/a	n/a	n/a	n/a	n/a	n/a
1899783	WORD	wordpools/wasnorm_wordpool_less_exclusions.txt	LTP197	ltpFR	7	8	1	MAN	862	n/a	1	n/a	0	0	0	1	0.412841796875	0.57763671875	lower	../fonts/zerothre.ttf
1902795	START	n/a	LTP197	ltpFR	7	n/a	n/a	n/a	n/a	n/a	n/a	n/a	n/a	n/a	n/a	n/a	n/a	n/a	n/a	n/a
1903731	PROB	n/a	LTP197	ltpFR	7	n/a	n/a	n/a	n/a	n/a	n/a	21	6	9	6	n/a	n/a	n/a	n/a	n/a
1908460	PROB	n/a	LTP197	ltpFR	7	n/a	n/a	n/a	n/a	n/a	n/a	12	5	5	2	n/a	n/a	n/a	n/a	n/a
1909747	PROB	n/a	LTP197	ltpFR	7	n/a	n/a	n/a	n/a	n/a	n/a	10	1	4	5	n/a	n/a	n/a	n/a	n/a
1911989	PROB	n/a	LTP197	ltpFR	7	n/a	n/a	n/a	n/a	n/a	n/a	5	1	3	1	n/a	n/a	n/a	n/a	n/a
1913362	PROB	n/a	LTP197	ltpFR	7	n/a	n/a	n/a	n/a	n/a	n/a	16	4	9	3	n/a	n/a	n/a	n/a	n/a
1915971	PROB	n/a	LTP197	ltpFR	7	n/a	n/a	n/a	n/a	n/a	n/a	9	5	3	1	n/a	n/a	n/a	n/a	n/a
1917929	STOP	n/a	LTP197	ltpFR	7	n/a	n/a	n/a	n/a	n/a	n/a	n/a	n/a	n/a	n/a	n/a	n/a	n/a	n/a	n/a
1919708	WORD	wordpools/wasnorm_wordpool_less_exclusions.txt	LTP197	ltpFR	7	8	1	SWAMP	1416	n/a	0	n/a	0	0	0	1	0.412841796875	0.57763671875	lower	../fonts/zerothre.ttf
1922720	START	n/a	LTP197	ltpFR	7	n/a	n/a	n/a	n/a	n/a	n/a	n/a	n/a	n/a	n/a	n/a	n/a	n/a	n/a	n/a
1923740	PROB	n/a	LTP197	ltpFR	7	n/a	n/a	n/a	n/a	n/a	n/a	11	5	5	1	n/a	n/a	n/a	n/a	n/a
1924938	PROB	n/a	LTP197	ltpFR	7	n/a	n/a	n/a	n/a	n/a	n/a	21	8	9	4	n/a	n/a	n/a	n/a	n/a
1927682	PROB	n/a	LTP197	ltpFR	7	n/a	n/a	n/a	n/a	n/a	n/a	22	9	5	8	n/a	n/a	n/a	n/a	n/a
1930030	PROB	n/a	LTP197	ltpFR	7	n/a	n/a	n/a	n/a	n/a	n/a	19	8	2	9	n/a	n/a	n/a	n/a	n/a
1931981	PROB	n/a	LTP197	ltpFR	7	n/a	n/a	n/a	n/a	n/a	n/a	14	8	1	5	n/a	n/a	n/a	n/a	n/a
1933821	PROB	n/a	LTP197	ltpFR	7	n/a	n/a	n/a	n/a	n/a	n/a	13	2	9	2	n/a	n/a	n/a	n/a	n/a
1935501	PROB	n/a	LTP197	ltpFR	7	n/a	n/a	n/a	n/a	n/a	n/a	3	1	2	4	n/a	n/a	n/a	n/a	n/a
1937585	STOP	n/a	LTP197	ltpFR	7	n/a	n/a	n/a	n/a	n/a	n/a	n/a	n/a	n/a	n/a	n/a	n/a	n/a	n/a	n/a
1939850	WORD	wordpools/wasnorm_wordpool_less_exclusions.txt	LTP197	ltpFR	7	8	1	UMBRELLA	1534	n/a	0	n/a	0	0	0	1	0.412841796875	0.57763671875	lower	../fonts/zerothre.ttf
1942862	START	n/a	LTP197	ltpFR	7	n/a	n/a	n/a	n/a	n/a	n/a	n/a	n/a	n/a	n/a	n/a	n/a	n/a	n/a	n/a
1943966	PROB	n/a	LTP197	ltpFR	7	n/a	n/a	n/a	n/a	n/a	n/a	13	2	2	9	n/a	n/a	n/a	n/a	n/a
1946710	PROB	n/a	LTP197	ltpFR	7	n/a	n/a	n/a	n/a	n/a	n/a	11	1	1	9	n/a	n/a	n/a	n/a	n/a
1948031	PROB	n/a	LTP197	ltpFR	7	n/a	n/a	n/a	n/a	n/a	n/a	13	2	2	9	n/a	n/a	n/a	n/a	n/a
1949872	PROB	n/a	LTP197	ltpFR	7	n/a	n/a	n/a	n/a	n/a	n/a	16	5	8	3	n/a	n/a	n/a	n/a	n/a
1952933	PROB	n/a	LTP197	ltpFR	7	n/a	n/a	n/a	n/a	n/a	n/a	9	2	1	7	n/a	n/a	n/a	n/a	n/a
1954700	PROB	n/a	LTP197	ltpFR	7	n/a	n/a	n/a	n/a	n/a	n/a	13	4	5	4	n/a	n/a	n/a	n/a	n/a
1958862	STOP	n/a	LTP197	ltpFR	7	n/a	n/a	n/a	n/a	n/a	n/a	n/a	n/a	n/a	n/a	n/a	n/a	n/a	n/a	n/a
1960060	WORD	wordpools/wasnorm_wordpool_less_exclusions.txt	LTP197	ltpFR	7	8	1	SOFTBALL	1343	n/a	0	n/a	0	0	0	1	0.412841796875	0.57763671875	lower	../fonts/zerothre.ttf
1963072	START	n/a	LTP197	ltpFR	7	n/a	n/a	n/a	n/a	n/a	n/a	n/a	n/a	n/a	n/a	n/a	n/a	n/a	n/a	n/a
1964008	PROB	n/a	LTP197	ltpFR	7	n/a	n/a	n/a	n/a	n/a	n/a	20	4	7	9	n/a	n/a	n/a	n/a	n/a
1967086	PROB	n/a	LTP197	ltpFR	7	n/a	n/a	n/a	n/a	n/a	n/a	15	4	6	5	n/a	n/a	n/a	n/a	n/a
1969111	PROB	n/a	LTP197	ltpFR	7	n/a	n/a	n/a	n/a	n/a	n/a	11	9	1	1	n/a	n/a	n/a	n/a	n/a
1970583	PROB	n/a	LTP197	ltpFR	7	n/a	n/a	n/a	n/a	n/a	n/a	18	8	8	2	n/a	n/a	n/a	n/a	n/a
1972239	PROB	n/a	LTP197	ltpFR	7	n/a	n/a	n/a	n/a	n/a	n/a	15	2	6	7	n/a	n/a	n/a	n/a	n/a
1974615	PROB	n/a	LTP197	ltpFR	7	n/a	n/a	n/a	n/a	n/a	n/a	9	4	2	3	n/a	n/a	n/a	n/a	n/a
1976739	PROB	n/a	LTP197	ltpFR	7	n/a	n/a	n/a	n/a	n/a	n/a	11	7	3	1	n/a	n/a	n/a	n/a	n/a
1978041	STOP	n/a	LTP197	ltpFR	7	n/a	n/a	n/a	n/a	n/a	n/a	n/a	n/a	n/a	n/a	n/a	n/a	n/a	n/a	n/a
1980236	WORD	wordpools/wasnorm_wordpool_less_exclusions.txt	LTP197	ltpFR	7	8	1	SHACK	1273	n/a	0	n/a	0	0	0	1	0.412841796875	0.57763671875	lower	../fonts/zerothre.ttf
1983248	START	n/a	LTP197	ltpFR	7	n/a	n/a	n/a	n/a	n/a	n/a	n/a	n/a	n/a	n/a	n/a	n/a	n/a	n/a	n/a
1984234	PROB	n/a	LTP197	ltpFR	7	n/a	n/a	n/a	n/a	n/a	n/a	16	7	6	3	n/a	n/a	n/a	n/a	n/a
1986269	PROB	n/a	LTP197	ltpFR	7	n/a	n/a	n/a	n/a	n/a	n/a	8	3	1	4	n/a	n/a	n/a	n/a	n/a
1988412	PROB	n/a	LTP197	ltpFR	7	n/a	n/a	n/a	n/a	n/a	n/a	14	4	5	5	n/a	n/a	n/a	n/a	n/a
1990134	PROB	n/a	LTP197	ltpFR	7	n/a	n/a	n/a	n/a	n/a	n/a	10	1	6	3	n/a	n/a	n/a	n/a	n/a
1992175	PROB	n/a	LTP197	ltpFR	7	n/a	n/a	n/a	n/a	n/a	n/a	21	6	6	9	n/a	n/a	n/a	n/a	n/a
1994851	PROB	n/a	LTP197	ltpFR	7	n/a	n/a	n/a	n/a	n/a	n/a	13	3	5	5	n/a	n/a	n/a	n/a	n/a
1997200	PROB	n/a	LTP197	ltpFR	7	n/a	n/a	n/a	n/a	n/a	n/a	19	9	5	5	n/a	n/a	n/a	n/a	n/a
1999168	STOP	n/a	LTP197	ltpFR	7	n/a	n/a	n/a	n/a	n/a	n/a	n/a	n/a	n/a	n/a	n/a	n/a	n/a	n/a	n/a
2000390	WORD	wordpools/wasnorm_wordpool_less_exclusions.txt	LTP197	ltpFR	7	8	1	CABIN	211	n/a	0	n/a	0	0	0	1	0.412841796875	0.57763671875	lower	../fonts/zerothre.ttf
2003402	START	n/a	LTP197	ltpFR	7	n/a	n/a	n/a	n/a	n/a	n/a	n/a	n/a	n/a	n/a	n/a	n/a	n/a	n/a	n/a
2004462	PROB	n/a	LTP197	ltpFR	7	n/a	n/a	n/a	n/a	n/a	n/a	8	2	2	3	n/a	n/a	n/a	n/a	n/a
2006413	PROB	n/a	LTP197	ltpFR	7	n/a	n/a	n/a	n/a	n/a	n/a	11	1	6	4	n/a	n/a	n/a	n/a	n/a
2008001	PROB	n/a	LTP197	ltpFR	7	n/a	n/a	n/a	n/a	n/a	n/a	14	6	7	1	n/a	n/a	n/a	n/a	n/a
2009714	PROB	n/a	LTP197	ltpFR	7	n/a	n/a	n/a	n/a	n/a	n/a	15	7	1	7	n/a	n/a	n/a	n/a	n/a
2011715	PROB	n/a	LTP197	ltpFR	7	n/a	n/a	n/a	n/a	n/a	n/a	13	3	4	6	n/a	n/a	n/a	n/a	n/a
2013406	PROB	n/a	LTP197	ltpFR	7	n/a	n/a	n/a	n/a	n/a	n/a	12	4	2	6	n/a	n/a	n/a	n/a	n/a
2015369	PROB	n/a	LTP197	ltpFR	7	n/a	n/a	n/a	n/a	n/a	n/a	17	5	9	3	n/a	n/a	n/a	n/a	n/a
2017677	PROB	n/a	LTP197	ltpFR	7	n/a	n/a	n/a	n/a	n/a	n/a	6	3	2	1	n/a	n/a	n/a	n/a	n/a
2019145	STOP	n/a	LTP197	ltpFR	7	n/a	n/a	n/a	n/a	n/a	n/a	n/a	n/a	n/a	n/a	n/a	n/a	n/a	n/a	n/a
2020338	WORD	wordpools/wasnorm_wordpool_less_exclusions.txt	LTP197	ltpFR	7	8	1	UMPIRE	1535	n/a	1	n/a	0	0	0	1	0.412841796875	0.57763671875	lower	../fonts/zerothre.ttf
2023350	START	n/a	LTP197	ltpFR	7	n/a	n/a	n/a	n/a	n/a	n/a	n/a	n/a	n/a	n/a	n/a	n/a	n/a	n/a	n/a
2024536	PROB	n/a	LTP197	ltpFR	7	n/a	n/a	n/a	n/a	n/a	n/a	14	8	5	1	n/a	n/a	n/a	n/a	n/a
2026169	PROB	n/a	LTP197	ltpFR	7	n/a	n/a	n/a	n/a	n/a	n/a	16	2	5	9	n/a	n/a	n/a	n/a	n/a
2028301	PROB	n/a	LTP197	ltpFR	7	n/a	n/a	n/a	n/a	n/a	n/a	20	5	8	7	n/a	n/a	n/a	n/a	n/a
2030988	PROB	n/a	LTP197	ltpFR	7	n/a	n/a	n/a	n/a	n/a	n/a	24	7	8	9	n/a	n/a	n/a	n/a	n/a
2034267	PROB	n/a	LTP197	ltpFR	7	n/a	n/a	n/a	n/a	n/a	n/a	13	1	7	5	n/a	n/a	n/a	n/a	n/a
2036409	PROB	n/a	LTP197	ltpFR	7	n/a	n/a	n/a	n/a	n/a	n/a	13	7	3	5	n/a	n/a	n/a	n/a	n/a
2037841	STOP	n/a	LTP197	ltpFR	7	n/a	n/a	n/a	n/a	n/a	n/a	n/a	n/a	n/a	n/a	n/a	n/a	n/a	n/a	n/a
2040262	WORD	wordpools/wasnorm_wordpool_less_exclusions.txt	LTP197	ltpFR	7	8	1	FLEA	577	n/a	1	n/a	0	0	0	1	0.412841796875	0.57763671875	lower	../fonts/zerothre.ttf
2043274	START	n/a	LTP197	ltpFR	7	n/a	n/a	n/a	n/a	n/a	n/a	n/a	n/a	n/a	n/a	n/a	n/a	n/a	n/a	n/a
2044478	PROB	n/a	LTP197	ltpFR	7	n/a	n/a	n/a	n/a	n/a	n/a	6	4	1	1	n/a	n/a	n/a	n/a	n/a
2045867	PROB	n/a	LTP197	ltpFR	7	n/a	n/a	n/a	n/a	n/a	n/a	20	6	7	7	n/a	n/a	n/a	n/a	n/a
2048219	PROB	n/a	LTP197	ltpFR	7	n/a	n/a	n/a	n/a	n/a	n/a	15	1	7	7	n/a	n/a	n/a	n/a	n/a
2049725	PROB	n/a	LTP197	ltpFR	7	n/a	n/a	n/a	n/a	n/a	n/a	14	5	3	6	n/a	n/a	n/a	n/a	n/a
2052234	PROB	n/a	LTP197	ltpFR	7	n/a	n/a	n/a	n/a	n/a	n/a	15	5	9	1	n/a	n/a	n/a	n/a	n/a
2053740	PROB	n/a	LTP197	ltpFR	7	n/a	n/a	n/a	n/a	n/a	n/a	10	6	3	1	n/a	n/a	n/a	n/a	n/a
2055262	PROB	n/a	LTP197	ltpFR	7	n/a	n/a	n/a	n/a	n/a	n/a	11	1	1	9	n/a	n/a	n/a	n/a	n/a
2056735	PROB	n/a	LTP197	ltpFR	7	n/a	n/a	n/a	n/a	n/a	n/a	14	2	2	9	n/a	n/a	n/a	n/a	n/a
2058905	STOP	n/a	LTP197	ltpFR	7	n/a	n/a	n/a	n/a	n/a	n/a	n/a	n/a	n/a	n/a	n/a	n/a	n/a	n/a	n/a
2060254	WORD	wordpools/wasnorm_wordpool_less_exclusions.txt	LTP197	ltpFR	7	8	1	ERASER	538	n/a	0	n/a	0	0	0	1	0.412841796875	0.57763671875	lower	../fonts/zerothre.ttf
2063266	START	n/a	LTP197	ltpFR	7	n/a	n/a	n/a	n/a	n/a	n/a	n/a	n/a	n/a	n/a	n/a	n/a	n/a	n/a	n/a
2064202	PROB	n/a	LTP197	ltpFR	7	n/a	n/a	n/a	n/a	n/a	n/a	13	4	8	1	n/a	n/a	n/a	n/a	n/a
2065708	PROB	n/a	LTP197	ltpFR	7	n/a	n/a	n/a	n/a	n/a	n/a	15	7	1	7	n/a	n/a	n/a	n/a	n/a
2067676	PROB	n/a	LTP197	ltpFR	7	n/a	n/a	n/a	n/a	n/a	n/a	16	3	6	7	n/a	n/a	n/a	n/a	n/a
2069440	PROB	n/a	LTP197	ltpFR	7	n/a	n/a	n/a	n/a	n/a	n/a	14	6	3	5	n/a	n/a	n/a	n/a	n/a
2071624	PROB	n/a	LTP197	ltpFR	7	n/a	n/a	n/a	n/a	n/a	n/a	15	1	8	6	n/a	n/a	n/a	n/a	n/a
2073671	PROB	n/a	LTP197	ltpFR	7	n/a	n/a	n/a	n/a	n/a	n/a	10	4	5	1	n/a	n/a	n/a	n/a	n/a
2075796	PROB	n/a	LTP197	ltpFR	7	n/a	n/a	n/a	n/a	n/a	n/a	6	2	3	1	n/a	n/a	n/a	n/a	n/a
2077212	PROB	n/a	LTP197	ltpFR	7	n/a	n/a	n/a	n/a	n/a	n/a	23	6	9	8	n/a	n/a	n/a	n/a	n/a
2079129	STOP	n/a	LTP197	ltpFR	7	n/a	n/a	n/a	n/a	n/a	n/a	n/a	n/a	n/a	n/a	n/a	n/a	n/a	n/a	n/a
2080364	WORD	wordpools/wasnorm_wordpool_less_exclusions.txt	LTP197	ltpFR	7	8	1	BOXER	160	n/a	0	n/a	0	0	0	1	0.412841796875	0.57763671875	lower	../fonts/zerothre.ttf
2083376	START	n/a	LTP197	ltpFR	7	n/a	n/a	n/a	n/a	n/a	n/a	n/a	n/a	n/a	n/a	n/a	n/a	n/a	n/a	n/a
2084573	PROB	n/a	LTP197	ltpFR	7	n/a	n/a	n/a	n/a	n/a	n/a	15	4	2	9	n/a	n/a	n/a	n/a	n/a
2086162	PROB	n/a	LTP197	ltpFR	7	n/a	n/a	n/a	n/a	n/a	n/a	24	7	9	8	n/a	n/a	n/a	n/a	n/a
2088338	PROB	n/a	LTP197	ltpFR	7	n/a	n/a	n/a	n/a	n/a	n/a	22	9	9	2	n/a	n/a	n/a	n/a	n/a
2090044	PROB	n/a	LTP197	ltpFR	7	n/a	n/a	n/a	n/a	n/a	n/a	6	1	2	3	n/a	n/a	n/a	n/a	n/a
2091482	PROB	n/a	LTP197	ltpFR	7	n/a	n/a	n/a	n/a	n/a	n/a	15	8	6	1	n/a	n/a	n/a	n/a	n/a
2092927	PROB	n/a	LTP197	ltpFR	7	n/a	n/a	n/a	n/a	n/a	n/a	14	8	2	4	n/a	n/a	n/a	n/a	n/a
2094962	PROB	n/a	LTP197	ltpFR	7	n/a	n/a	n/a	n/a	n/a	n/a	14	8	4	2	n/a	n/a	n/a	n/a	n/a
2099375	STOP	n/a	LTP197	ltpFR	7	n/a	n/a	n/a	n/a	n/a	n/a	n/a	n/a	n/a	n/a	n/a	n/a	n/a	n/a	n/a
2100383	WORD	wordpools/wasnorm_wordpool_less_exclusions.txt	LTP197	ltpFR	7	8	1	PUPPY	1144	n/a	1	n/a	0	0	0	1	0.412841796875	0.57763671875	lower	../fonts/zerothre.ttf
2103395	START	n/a	LTP197	ltpFR	7	n/a	n/a	n/a	n/a	n/a	n/a	n/a	n/a	n/a	n/a	n/a	n/a	n/a	n/a	n/a
2104422	PROB	n/a	LTP197	ltpFR	7	n/a	n/a	n/a	n/a	n/a	n/a	14	2	7	5	n/a	n/a	n/a	n/a	n/a
2106295	PROB	n/a	LTP197	ltpFR	7	n/a	n/a	n/a	n/a	n/a	n/a	15	4	8	3	n/a	n/a	n/a	n/a	n/a
2107710	PROB	n/a	LTP197	ltpFR	7	n/a	n/a	n/a	n/a	n/a	n/a	16	6	3	7	n/a	n/a	n/a	n/a	n/a
2109172	PROB	n/a	LTP197	ltpFR	7	n/a	n/a	n/a	n/a	n/a	n/a	20	9	7	4	n/a	n/a	n/a	n/a	n/a
2111079	PROB	n/a	LTP197	ltpFR	7	n/a	n/a	n/a	n/a	n/a	n/a	13	1	4	8	n/a	n/a	n/a	n/a	n/a
2113332	PROB	n/a	LTP197	ltpFR	7	n/a	n/a	n/a	n/a	n/a	n/a	15	3	8	4	n/a	n/a	n/a	n/a	n/a
2115724	PROB	n/a	LTP197	ltpFR	7	n/a	n/a	n/a	n/a	n/a	n/a	17	4	9	4	n/a	n/a	n/a	n/a	n/a
2117857	STOP	n/a	LTP197	ltpFR	7	n/a	n/a	n/a	n/a	n/a	n/a	n/a	n/a	n/a	n/a	n/a	n/a	n/a	n/a	n/a
2121151	REC_START	n/a	LTP197	ltpFR	7	8	n/a	n/a	n/a	n/a	n/a	n/a	0	0	0	n/a	n/a	n/a	n/a	n/a
2124708	REC_WORD	wordpools/wasnorm_wordpool_less_exclusions.txt	LTP197	ltpFR	7	8	1	ANGEL	22	n/a	1	n/a	0	0	0	n/a	n/a	n/a	n/a	n/a
2125740	REC_WORD	wordpools/wasnorm_wordpool_less_exclusions.txt	LTP197	ltpFR	7	8	1	BLANKET	135	n/a	0	n/a	0	0	0	n/a	n/a	n/a	n/a	n/a
2126518	REC_WORD	wordpools/wasnorm_wordpool_less_exclusions.txt	LTP197	ltpFR	7	8	1	TWIG	1527	n/a	0	n/a	0	0	0	n/a	n/a	n/a	n/a	n/a
2127227	REC_WORD	wordpools/wasnorm_wordpool_less_exclusions.txt	LTP197	ltpFR	7	8	1	PEN	1041	n/a	0	n/a	0	0	0	n/a	n/a	n/a	n/a	n/a
2128105	REC_WORD	wordpools/wasnorm_wordpool_less_exclusions.txt	LTP197	ltpFR	7	8	1	MAN	862	n/a	1	n/a	0	0	0	n/a	n/a	n/a	n/a	n/a
2129087	REC_WORD	wordpools/wasnorm_wordpool_less_exclusions.txt	LTP197	ltpFR	7	8	0	LAGOON	795	n/a	1	n/a	0	0	0	n/a	n/a	n/a	n/a	n/a
2131153	REC_WORD	wordpools/wasnorm_wordpool_less_exclusions.txt	LTP197	ltpFR	7	8	1	SWAMP	1416	n/a	0	n/a	0	0	0	n/a	n/a	n/a	n/a	n/a
2132400	REC_WORD	wordpools/wasnorm_wordpool_less_exclusions.txt	LTP197	ltpFR	7	8	1	CABIN	211	n/a	0	n/a	0	0	0	n/a	n/a	n/a	n/a	n/a
2133597	REC_WORD	wordpools/wasnorm_wordpool_less_exclusions.txt	LTP197	ltpFR	7	8	1	FLEA	577	n/a	1	n/a	0	0	0	n/a	n/a	n/a	n/a	n/a
2144757	REC_WORD	wordpools/wasnorm_wordpool_less_exclusions.txt	LTP197	ltpFR	7	8	1	PUPPY	1144	n/a	1	n/a	0	0	0	n/a	n/a	n/a	n/a	n/a
2202885	WORD	wordpools/wasnorm_wordpool_less_exclusions.txt	LTP197	ltpFR	7	9	0	SALOON	1228	n/a	1	n/a	0	0	0	0	0.5869140625	0.422607421875	upper	../fonts/amplitud.ttf
2207057	WORD	wordpools/wasnorm_wordpool_less_exclusions.txt	LTP197	ltpFR	7	9	0	BEARD	107	n/a	0	n/a	0	0	0	0	0.5869140625	0.422607421875	upper	../fonts/amplitud.ttf
2211200	WORD	wordpools/wasnorm_wordpool_less_exclusions.txt	LTP197	ltpFR	7	9	0	SNORKEL	1336	n/a	0	n/a	0	0	0	0	0.5869140625	0.422607421875	upper	../fonts/amplitud.ttf
2215148	WORD	wordpools/wasnorm_wordpool_less_exclusions.txt	LTP197	ltpFR	7	9	0	BABY	64	n/a	0	n/a	0	0	0	0	0.5869140625	0.422607421875	upper	../fonts/amplitud.ttf
2219053	WORD	wordpools/wasnorm_wordpool_less_exclusions.txt	LTP197	ltpFR	7	9	0	GRAPE	654	n/a	0	n/a	0	0	0	0	0.5869140625	0.422607421875	upper	../fonts/amplitud.ttf
2222877	WORD	wordpools/wasnorm_wordpool_less_exclusions.txt	LTP197	ltpFR	7	9	0	HOOD	714	n/a	0	n/a	0	0	0	0	0.5869140625	0.422607421875	upper	../fonts/amplitud.ttf
2226909	WORD	wordpools/wasnorm_wordpool_less_exclusions.txt	LTP197	ltpFR	7	9	0	PATH	1023	n/a	0	n/a	0	0	0	0	0.5869140625	0.422607421875	upper	../fonts/amplitud.ttf
2230814	WORD	wordpools/wasnorm_wordpool_less_exclusions.txt	LTP197	ltpFR	7	9	0	TOENAIL	1474	n/a	0	n/a	0	0	0	0	0.5869140625	0.422607421875	upper	../fonts/amplitud.ttf
2234929	WORD	wordpools/wasnorm_wordpool_less_exclusions.txt	LTP197	ltpFR	7	9	0	VISITOR	1573	n/a	1	n/a	0	0	0	0	0.5869140625	0.422607421875	upper	../fonts/amplitud.ttf
2238854	WORD	wordpools/wasnorm_wordpool_less_exclusions.txt	LTP197	ltpFR	7	9	0	FELLOW	558	n/a	1	n/a	0	0	0	0	0.5869140625	0.422607421875	upper	../fonts/amplitud.ttf
2242819	WORD	wordpools/wasnorm_wordpool_less_exclusions.txt	LTP197	ltpFR	7	9	0	BOMB	147	n/a	1	n/a	0	0	0	0	0.5869140625	0.422607421875	upper	../fonts/amplitud.ttf
2246857	WORD	wordpools/wasnorm_wordpool_less_exclusions.txt	LTP197	ltpFR	7	9	0	MISSILE	900	n/a	1	n/a	0	0	0	0	0.5869140625	0.422607421875	upper	../fonts/amplitud.ttf
2251006	WORD	wordpools/wasnorm_wordpool_less_exclusions.txt	LTP197	ltpFR	7	9	0	FOOT	590	n/a	1	n/a	0	0	0	0	0.5869140625	0.422607421875	upper	../fonts/amplitud.ttf
2255216	WORD	wordpools/wasnorm_wordpool_less_exclusions.txt	LTP197	ltpFR	7	9	0	JAR	750	n/a	0	n/a	0	0	0	0	0.5869140625	0.422607421875	upper	../fonts/amplitud.ttf
2259170	WORD	wordpools/wasnorm_wordpool_less_exclusions.txt	LTP197	ltpFR	7	9	0	HORSE	719	n/a	1	n/a	0	0	0	0	0.5869140625	0.422607421875	upper	../fonts/amplitud.ttf
2263096	WORD	wordpools/wasnorm_wordpool_less_exclusions.txt	LTP197	ltpFR	7	9	0	BUGGY	188	n/a	1	n/a	0	0	0	0	0.5869140625	0.422607421875	upper	../fonts/amplitud.ttf
2266107	START	n/a	LTP197	ltpFR	7	n/a	n/a	n/a	n/a	n/a	n/a	n/a	n/a	n/a	n/a	n/a	n/a	n/a	n/a	n/a
2267217	PROB	n/a	LTP197	ltpFR	7	n/a	n/a	n/a	n/a	n/a	n/a	14	9	1	4	n/a	n/a	n/a	n/a	n/a
2270028	PROB	n/a	LTP197	ltpFR	7	n/a	n/a	n/a	n/a	n/a	n/a	17	8	6	3	n/a	n/a	n/a	n/a	n/a
2271868	PROB	n/a	LTP197	ltpFR	7	n/a	n/a	n/a	n/a	n/a	n/a	14	1	8	5	n/a	n/a	n/a	n/a	n/a
2273713	STOP	n/a	LTP197	ltpFR	7	n/a	n/a	n/a	n/a	n/a	n/a	n/a	n/a	n/a	n/a	n/a	n/a	n/a	n/a	n/a
2275995	REC_START	n/a	LTP197	ltpFR	7	9	n/a	n/a	n/a	n/a	n/a	n/a	0	0	0	n/a	n/a	n/a	n/a	n/a
2278085	REC_WORD	wordpools/wasnorm_wordpool_less_exclusions.txt	LTP197	ltpFR	7	9	0	SALOON	1228	n/a	1	n/a	0	0	0	n/a	n/a	n/a	n/a	n/a
2279587	REC_WORD	wordpools/wasnorm_wordpool_less_exclusions.txt	LTP197	ltpFR	7	9	0	BEARD	107	n/a	0	n/a	0	0	0	n/a	n/a	n/a	n/a	n/a
2280529	REC_WORD	wordpools/wasnorm_wordpool_less_exclusions.txt	LTP197	ltpFR	7	9	0	SNORKEL	1336	n/a	0	n/a	0	0	0	n/a	n/a	n/a	n/a	n/a
2282465	REC_WORD	wordpools/wasnorm_wordpool_less_exclusions.txt	LTP197	ltpFR	7	9	0	BABY	64	n/a	0	n/a	0	0	0	n/a	n/a	n/a	n/a	n/a
2283343	REC_WORD	wordpools/wasnorm_wordpool_less_exclusions.txt	LTP197	ltpFR	7	9	0	GRAPE	654	n/a	0	n/a	0	0	0	n/a	n/a	n/a	n/a	n/a
2284480	REC_WORD	wordpools/wasnorm_wordpool_less_exclusions.txt	LTP197	ltpFR	7	9	0	HOOD	714	n/a	0	n/a	0	0	0	n/a	n/a	n/a	n/a	n/a
2288521	REC_WORD	wordpools/wasnorm_wordpool_less_exclusions.txt	LTP197	ltpFR	7	9	0	TOENAIL	1474	n/a	0	n/a	0	0	0	n/a	n/a	n/a	n/a	n/a
2289853	REC_WORD	wordpools/wasnorm_wordpool_less_exclusions.txt	LTP197	ltpFR	7	9	0	PATH	1023	n/a	0	n/a	0	0	0	n/a	n/a	n/a	n/a	n/a
2290491	REC_WORD	wordpools/wasnorm_wordpool_less_exclusions.txt	LTP197	ltpFR	7	9	0	VISITOR	1573	n/a	1	n/a	0	0	0	n/a	n/a	n/a	n/a	n/a
2291170	REC_WORD	wordpools/wasnorm_wordpool_less_exclusions.txt	LTP197	ltpFR	7	9	0	FELLOW	558	n/a	1	n/a	0	0	0	n/a	n/a	n/a	n/a	n/a
2293290	REC_WORD	wordpools/wasnorm_wordpool_less_exclusions.txt	LTP197	ltpFR	7	9	0	BOMB	147	n/a	1	n/a	0	0	0	n/a	n/a	n/a	n/a	n/a
2294109	REC_WORD	wordpools/wasnorm_wordpool_less_exclusions.txt	LTP197	ltpFR	7	9	0	MISSILE	900	n/a	1	n/a	0	0	0	n/a	n/a	n/a	n/a	n/a
2294912	REC_WORD	wordpools/wasnorm_wordpool_less_exclusions.txt	LTP197	ltpFR	7	9	0	JAR	750	n/a	0	n/a	0	0	0	n/a	n/a	n/a	n/a	n/a
2298314	REC_WORD	wordpools/wasnorm_wordpool_less_exclusions.txt	LTP197	ltpFR	7	9	0	FOOT	590	n/a	1	n/a	0	0	0	n/a	n/a	n/a	n/a	n/a
2299781	REC_WORD	wordpools/wasnorm_wordpool_less_exclusions.txt	LTP197	ltpFR	7	9	0	HORSE	719	n/a	1	n/a	0	0	0	n/a	n/a	n/a	n/a	n/a
2300524	REC_WORD	wordpools/wasnorm_wordpool_less_exclusions.txt	LTP197	ltpFR	7	9	0	BUGGY	188	n/a	1	n/a	0	0	0	n/a	n/a	n/a	n/a	n/a
2356765	WORD	wordpools/wasnorm_wordpool_less_exclusions.txt	LTP197	ltpFR	7	10	1	ELBOW	520	n/a	1	n/a	0	0	0	1	0.412841796875	0.57763671875	lower	../fonts/zerothre.ttf
2360619	WORD	wordpools/wasnorm_wordpool_less_exclusions.txt	LTP197	ltpFR	7	10	1	PASTRY	1022	n/a	0	n/a	0	0	0	1	0.412841796875	0.57763671875	lower	../fonts/zerothre.ttf
2364812	WORD	wordpools/wasnorm_wordpool_less_exclusions.txt	LTP197	ltpFR	7	10	1	LOLLIPOP	842	n/a	0	n/a	0	0	0	1	0.412841796875	0.57763671875	lower	../fonts/zerothre.ttf
2368817	WORD	wordpools/wasnorm_wordpool_less_exclusions.txt	LTP197	ltpFR	7	10	1	ENEMY	534	n/a	1	n/a	0	0	0	1	0.412841796875	0.57763671875	lower	../fonts/zerothre.ttf
2372715	WORD	wordpools/wasnorm_wordpool_less_exclusions.txt	LTP197	ltpFR	7	10	1	FAMILY	550	n/a	1	n/a	0	0	0	1	0.412841796875	0.57763671875	lower	../fonts/zerothre.ttf
2376613	WORD	wordpools/wasnorm_wordpool_less_exclusions.txt	LTP197	ltpFR	7	10	1	ANTENNA	28	n/a	1	n/a	0	0	0	1	0.412841796875	0.57763671875	lower	../fonts/zerothre.ttf
2380572	WORD	wordpools/wasnorm_wordpool_less_exclusions.txt	LTP197	ltpFR	7	10	1	PASSENGER	1020	n/a	1	n/a	0	0	0	1	0.412841796875	0.57763671875	lower	../fonts/zerothre.ttf
2384604	WORD	wordpools/wasnorm_wordpool_less_exclusions.txt	LTP197	ltpFR	7	10	1	BUILDING	191	n/a	0	n/a	0	0	0	1	0.412841796875	0.57763671875	lower	../fonts/zerothre.ttf
2388792	WORD	wordpools/wasnorm_wordpool_less_exclusions.txt	LTP197	ltpFR	7	10	1	TOOTHBRUSH	1482	n/a	0	n/a	0	0	0	1	0.412841796875	0.57763671875	lower	../fonts/zerothre.ttf
2392807	WORD	wordpools/wasnorm_wordpool_less_exclusions.txt	LTP197	ltpFR	7	10	1	CHAIN	273	n/a	0	n/a	0	0	0	1	0.412841796875	0.57763671875	lower	../fonts/zerothre.ttf
2396823	WORD	wordpools/wasnorm_wordpool_less_exclusions.txt	LTP197	ltpFR	7	10	1	CHAPEL	280	n/a	0	n/a	0	0	0	1	0.412841796875	0.57763671875	lower	../fonts/zerothre.ttf
2400698	WORD	wordpools/wasnorm_wordpool_less_exclusions.txt	LTP197	ltpFR	7	10	1	MONASTERY	907	n/a	0	n/a	0	0	0	1	0.412841796875	0.57763671875	lower	../fonts/zerothre.ttf
2404880	WORD	wordpools/wasnorm_wordpool_less_exclusions.txt	LTP197	ltpFR	7	10	1	GENERAL	630	n/a	1	n/a	0	0	0	1	0.412841796875	0.57763671875	lower	../fonts/zerothre.ttf
2408734	WORD	wordpools/wasnorm_wordpool_less_exclusions.txt	LTP197	ltpFR	7	10	1	SHOULDER	1294	n/a	1	n/a	0	0	0	1	0.412841796875	0.57763671875	lower	../fonts/zerothre.ttf
2412917	WORD	wordpools/wasnorm_wordpool_less_exclusions.txt	LTP197	ltpFR	7	10	1	TREASURE	1500	n/a	0	n/a	0	0	0	1	0.412841796875	0.57763671875	lower	../fonts/zerothre.ttf
2416898	WORD	wordpools/wasnorm_wordpool_less_exclusions.txt	LTP197	ltpFR	7	10	1	FLY	586	n/a	1	n/a	0	0	0	1	0.412841796875	0.57763671875	lower	../fonts/zerothre.ttf
2419910	START	n/a	LTP197	ltpFR	7	n/a	n/a	n/a	n/a	n/a	n/a	n/a	n/a	n/a	n/a	n/a	n/a	n/a	n/a	n/a
2420863	PROB	n/a	LTP197	ltpFR	7	n/a	n/a	n/a	n/a	n/a	n/a	15	4	3	8	n/a	n/a	n/a	n/a	n/a
2424544	PROB	n/a	LTP197	ltpFR	7	n/a	n/a	n/a	n/a	n/a	n/a	14	2	6	7	n/a	n/a	n/a	n/a	n/a
2426595	PROB	n/a	LTP197	ltpFR	7	n/a	n/a	n/a	n/a	n/a	n/a	13	5	6	2	n/a	n/a	n/a	n/a	n/a
2429128	PROB	n/a	LTP197	ltpFR	7	n/a	n/a	n/a	n/a	n/a	n/a	15	5	8	2	n/a	n/a	n/a	n/a	n/a
2430610	PROB	n/a	LTP197	ltpFR	7	n/a	n/a	n/a	n/a	n/a	n/a	14	3	8	2	n/a	n/a	n/a	n/a	n/a
2432591	PROB	n/a	LTP197	ltpFR	7	n/a	n/a	n/a	n/a	n/a	n/a	20	4	7	9	n/a	n/a	n/a	n/a	n/a
2434977	STOP	n/a	LTP197	ltpFR	7	n/a	n/a	n/a	n/a	n/a	n/a	n/a	n/a	n/a	n/a	n/a	n/a	n/a	n/a	n/a
2437671	REC_START	n/a	LTP197	ltpFR	7	10	n/a	n/a	n/a	n/a	n/a	n/a	0	0	0	n/a	n/a	n/a	n/a	n/a
2439821	REC_WORD	wordpools/wasnorm_wordpool_less_exclusions.txt	LTP197	ltpFR	7	10	1	ELBOW	520	n/a	1	n/a	0	0	0	n/a	n/a	n/a	n/a	n/a
2440844	REC_WORD	wordpools/wasnorm_wordpool_less_exclusions.txt	LTP197	ltpFR	7	10	1	PASTRY	1022	n/a	0	n/a	0	0	0	n/a	n/a	n/a	n/a	n/a
2441844	REC_WORD_VV	wordpools/wasnorm_wordpool_less_exclusions.txt	LTP197	ltpFR	7	10	n/a	<>	-1	n/a	n/a	n/a	0	0	0	n/a	n/a	n/a	n/a	n/a
2445194	REC_WORD	wordpools/wasnorm_wordpool_less_exclusions.txt	LTP197	ltpFR	7	10	1	ENEMY	534	n/a	1	n/a	0	0	0	n/a	n/a	n/a	n/a	n/a
2445817	REC_WORD	wordpools/wasnorm_wordpool_less_exclusions.txt	LTP197	ltpFR	7	10	1	FAMILY	550	n/a	1	n/a	0	0	0	n/a	n/a	n/a	n/a	n/a
2447005	REC_WORD	wordpools/wasnorm_wordpool_less_exclusions.txt	LTP197	ltpFR	7	10	1	PASSENGER	1020	n/a	1	n/a	0	0	0	n/a	n/a	n/a	n/a	n/a
2448005	REC_WORD_VV	wordpools/wasnorm_wordpool_less_exclusions.txt	LTP197	ltpFR	7	10	n/a	<>	-1	n/a	n/a	n/a	0	0	0	n/a	n/a	n/a	n/a	n/a
2448721	REC_WORD	wordpools/wasnorm_wordpool_less_exclusions.txt	LTP197	ltpFR	7	10	1	ANTENNA	28	n/a	1	n/a	0	0	0	n/a	n/a	n/a	n/a	n/a
2450411	REC_WORD	wordpools/wasnorm_wordpool_less_exclusions.txt	LTP197	ltpFR	7	10	1	FLY	586	n/a	1	n/a	0	0	0	n/a	n/a	n/a	n/a	n/a
2452702	REC_WORD	wordpools/wasnorm_wordpool_less_exclusions.txt	LTP197	ltpFR	7	10	1	BUILDING	191	n/a	0	n/a	0	0	0	n/a	n/a	n/a	n/a	n/a
2454767	REC_WORD	wordpools/wasnorm_wordpool_less_exclusions.txt	LTP197	ltpFR	7	10	1	MONASTERY	907	n/a	0	n/a	0	0	0	n/a	n/a	n/a	n/a	n/a
2455715	REC_WORD	wordpools/wasnorm_wordpool_less_exclusions.txt	LTP197	ltpFR	7	10	1	CHAPEL	280	n/a	0	n/a	0	0	0	n/a	n/a	n/a	n/a	n/a
2457103	REC_WORD	wordpools/wasnorm_wordpool_less_exclusions.txt	LTP197	ltpFR	7	10	1	GENERAL	630	n/a	1	n/a	0	0	0	n/a	n/a	n/a	n/a	n/a
2459606	REC_WORD	wordpools/wasnorm_wordpool_less_exclusions.txt	LTP197	ltpFR	7	10	1	TREASURE	1500	n/a	0	n/a	0	0	0	n/a	n/a	n/a	n/a	n/a
2513296	REST_REWET	n/a	LTP197	ltpFR	7	10	n/a	n/a	n/a	n/a	n/a	n/a	0	0	0	n/a	n/a	n/a	n/a	n/a
2920105	WORD	wordpools/wasnorm_wordpool_less_exclusions.txt	LTP197	ltpFR	7	11	0	ATTIRE	57	n/a	1	n/a	0	0	0	0	0.5869140625	0.422607421875	upper	../fonts/amplitud.ttf
2924009	WORD	wordpools/wasnorm_wordpool_less_exclusions.txt	LTP197	ltpFR	7	11	0	ELEVATOR	524	n/a	1	n/a	0	0	0	0	0.5869140625	0.422607421875	upper	../fonts/amplitud.ttf
2928085	WORD	wordpools/wasnorm_wordpool_less_exclusions.txt	LTP197	ltpFR	7	11	0	HAMBURGER	679	n/a	0	n/a	0	0	0	0	0.5869140625	0.422607421875	upper	../fonts/amplitud.ttf
2931966	WORD	wordpools/wasnorm_wordpool_less_exclusions.txt	LTP197	ltpFR	7	11	0	STEW	1380	n/a	0	n/a	0	0	0	0	0.5869140625	0.422607421875	upper	../fonts/amplitud.ttf
2935998	WORD	wordpools/wasnorm_wordpool_less_exclusions.txt	LTP197	ltpFR	7	11	0	DRESSER	496	n/a	1	n/a	0	0	0	0	0.5869140625	0.422607421875	upper	../fonts/amplitud.ttf
2940130	WORD	wordpools/wasnorm_wordpool_less_exclusions.txt	LTP197	ltpFR	7	11	0	TUBA	1515	n/a	1	n/a	0	0	0	0	0.5869140625	0.422607421875	upper	../fonts/amplitud.ttf
2944028	WORD	wordpools/wasnorm_wordpool_less_exclusions.txt	LTP197	ltpFR	7	11	0	ATTORNEY	58	n/a	1	n/a	0	0	0	0	0.5869140625	0.422607421875	upper	../fonts/amplitud.ttf
2947866	WORD	wordpools/wasnorm_wordpool_less_exclusions.txt	LTP197	ltpFR	7	11	0	GAVEL	627	n/a	0	n/a	0	0	0	0	0.5869140625	0.422607421875	upper	../fonts/amplitud.ttf
2951898	WORD	wordpools/wasnorm_wordpool_less_exclusions.txt	LTP197	ltpFR	7	11	0	CONTINENT	367	n/a	1	n/a	0	0	0	0	0.5869140625	0.422607421875	upper	../fonts/amplitud.ttf
2955980	WORD	wordpools/wasnorm_wordpool_less_exclusions.txt	LTP197	ltpFR	7	11	0	DISC	473	n/a	1	n/a	0	0	0	0	0.5869140625	0.422607421875	upper	../fonts/amplitud.ttf
2960072	WORD	wordpools/wasnorm_wordpool_less_exclusions.txt	LTP197	ltpFR	7	11	0	CAFE	216	n/a	1	n/a	0	0	0	0	0.5869140625	0.422607421875	upper	../fonts/amplitud.ttf
2964278	WORD	wordpools/wasnorm_wordpool_less_exclusions.txt	LTP197	ltpFR	7	11	0	MICROWAVE	892	n/a	1	n/a	0	0	0	0	0.5869140625	0.422607421875	upper	../fonts/amplitud.ttf
2968444	WORD	wordpools/wasnorm_wordpool_less_exclusions.txt	LTP197	ltpFR	7	11	0	CANYON	235	n/a	1	n/a	0	0	0	0	0.5869140625	0.422607421875	upper	../fonts/amplitud.ttf
2972486	WORD	wordpools/wasnorm_wordpool_less_exclusions.txt	LTP197	ltpFR	7	11	0	KITE	779	n/a	1	n/a	0	0	0	0	0.5869140625	0.422607421875	upper	../fonts/amplitud.ttf
2976708	WORD	wordpools/wasnorm_wordpool_less_exclusions.txt	LTP197	ltpFR	7	11	0	PLATE	1086	n/a	0	n/a	0	0	0	0	0.5869140625	0.422607421875	upper	../fonts/amplitud.ttf
2980740	WORD	wordpools/wasnorm_wordpool_less_exclusions.txt	LTP197	ltpFR	7	11	0	TELESCOPE	1446	n/a	1	n/a	0	0	0	0	0.5869140625	0.422607421875	upper	../fonts/amplitud.ttf
2986440	REC_START	n/a	LTP197	ltpFR	7	11	n/a	n/a	n/a	n/a	n/a	n/a	0	0	0	n/a	n/a	n/a	n/a	n/a
2988934	REC_WORD	wordpools/wasnorm_wordpool_less_exclusions.txt	LTP197	ltpFR	7	11	0	TELESCOPE	1446	n/a	1	n/a	0	0	0	n/a	n/a	n/a	n/a	n/a
2989912	REC_WORD	wordpools/wasnorm_wordpool_less_exclusions.txt	LTP197	ltpFR	7	11	0	CANYON	235	n/a	1	n/a	0	0	0	n/a	n/a	n/a	n/a	n/a
2990949	REC_WORD	wordpools/wasnorm_wordpool_less_exclusions.txt	LTP197	ltpFR	7	11	0	CONTINENT	367	n/a	1	n/a	0	0	0	n/a	n/a	n/a	n/a	n/a
2992127	REC_WORD	wordpools/wasnorm_wordpool_less_exclusions.txt	LTP197	ltpFR	7	11	0	CAFE	216	n/a	1	n/a	0	0	0	n/a	n/a	n/a	n/a	n/a
2993439	REC_WORD	wordpools/wasnorm_wordpool_less_exclusions.txt	LTP197	ltpFR	7	11	0	ATTORNEY	58	n/a	1	n/a	0	0	0	n/a	n/a	n/a	n/a	n/a
2994422	REC_WORD	wordpools/wasnorm_wordpool_less_exclusions.txt	LTP197	ltpFR	7	11	0	GAVEL	627	n/a	0	n/a	0	0	0	n/a	n/a	n/a	n/a	n/a
2995439	REC_WORD	wordpools/wasnorm_wordpool_less_exclusions.txt	LTP197	ltpFR	7	11	0	DISC	473	n/a	1	n/a	0	0	0	n/a	n/a	n/a	n/a	n/a
2997545	REC_WORD	wordpools/wasnorm_wordpool_less_exclusions.txt	LTP197	ltpFR	7	11	0	KITE	779	n/a	1	n/a	0	0	0	n/a	n/a	n/a	n/a	n/a
2998393	REC_WORD	wordpools/wasnorm_wordpool_less_exclusions.txt	LTP197	ltpFR	7	11	0	ELEVATOR	524	n/a	1	n/a	0	0	0	n/a	n/a	n/a	n/a	n/a
2999734	REC_WORD	wordpools/wasnorm_wordpool_less_exclusions.txt	LTP197	ltpFR	7	11	0	ATTIRE	57	n/a	1	n/a	0	0	0	n/a	n/a	n/a	n/a	n/a
3000732	REC_WORD	wordpools/wasnorm_wordpool_less_exclusions.txt	LTP197	ltpFR	7	11	0	DRESSER	496	n/a	1	n/a	0	0	0	n/a	n/a	n/a	n/a	n/a
3001585	REC_WORD	wordpools/wasnorm_wordpool_less_exclusions.txt	LTP197	ltpFR	7	11	0	TUBA	1515	n/a	1	n/a	0	0	0	n/a	n/a	n/a	n/a	n/a
3003077	REC_WORD	wordpools/wasnorm_wordpool_less_exclusions.txt	LTP197	ltpFR	7	11	0	PLATE	1086	n/a	0	n/a	0	0	0	n/a	n/a	n/a	n/a	n/a
3003755	REC_WORD	wordpools/wasnorm_wordpool_less_exclusions.txt	LTP197	ltpFR	7	11	0	MICROWAVE	892	n/a	1	n/a	0	0	0	n/a	n/a	n/a	n/a	n/a
3004967	REC_WORD	wordpools/wasnorm_wordpool_less_exclusions.txt	LTP197	ltpFR	7	11	0	STEW	1380	n/a	0	n/a	0	0	0	n/a	n/a	n/a	n/a	n/a
3005860	REC_WORD	wordpools/wasnorm_wordpool_less_exclusions.txt	LTP197	ltpFR	7	11	0	HAMBURGER	679	n/a	0	n/a	0	0	0	n/a	n/a	n/a	n/a	n/a
3069056	WORD	wordpools/wasnorm_wordpool_less_exclusions.txt	LTP197	ltpFR	7	12	1	CHICK	296	n/a	1	n/a	0	0	0	1	0.412841796875	0.57763671875	lower	../fonts/zerothre.ttf
3072987	WORD	wordpools/wasnorm_wordpool_less_exclusions.txt	LTP197	ltpFR	7	12	1	CANARY	227	n/a	1	n/a	0	0	0	1	0.412841796875	0.57763671875	lower	../fonts/zerothre.ttf
3077180	WORD	wordpools/wasnorm_wordpool_less_exclusions.txt	LTP197	ltpFR	7	12	1	FROG	608	n/a	1	n/a	0	0	0	1	0.412841796875	0.57763671875	lower	../fonts/zerothre.ttf
3081364	WORD	wordpools/wasnorm_wordpool_less_exclusions.txt	LTP197	ltpFR	7	12	1	TUB	1514	n/a	0	n/a	0	0	0	1	0.412841796875	0.57763671875	lower	../fonts/zerothre.ttf
3085484	WORD	wordpools/wasnorm_wordpool_less_exclusions.txt	LTP197	ltpFR	7	12	1	HOSE	720	n/a	1	n/a	0	0	0	1	0.412841796875	0.57763671875	lower	../fonts/zerothre.ttf
3089566	WORD	wordpools/wasnorm_wordpool_less_exclusions.txt	LTP197	ltpFR	7	12	1	JELLY	755	n/a	1	n/a	0	0	0	1	0.412841796875	0.57763671875	lower	../fonts/zerothre.ttf
3093399	WORD	wordpools/wasnorm_wordpool_less_exclusions.txt	LTP197	ltpFR	7	12	1	GIRL	637	n/a	1	n/a	0	0	0	1	0.412841796875	0.57763671875	lower	../fonts/zerothre.ttf
3097324	WORD	wordpools/wasnorm_wordpool_less_exclusions.txt	LTP197	ltpFR	7	12	1	NITROGEN	954	n/a	0	n/a	0	0	0	1	0.412841796875	0.57763671875	lower	../fonts/zerothre.ttf
3101322	WORD	wordpools/wasnorm_wordpool_less_exclusions.txt	LTP197	ltpFR	7	12	1	MOON	914	n/a	0	n/a	0	0	0	1	0.412841796875	0.57763671875	lower	../fonts/zerothre.ttf
3105461	WORD	wordpools/wasnorm_wordpool_less_exclusions.txt	LTP197	ltpFR	7	12	1	SUNRISE	1407	n/a	0	n/a	0	0	0	1	0.412841796875	0.57763671875	lower	../fonts/zerothre.ttf
3109558	WORD	wordpools/wasnorm_wordpool_less_exclusions.txt	LTP197	ltpFR	7	12	1	SADDLE	1221	n/a	0	n/a	0	0	0	1	0.412841796875	0.57763671875	lower	../fonts/zerothre.ttf
3113634	WORD	wordpools/wasnorm_wordpool_less_exclusions.txt	LTP197	ltpFR	7	12	1	RANCH	1166	n/a	0	n/a	0	0	0	1	0.412841796875	0.57763671875	lower	../fonts/zerothre.ttf
3117488	WORD	wordpools/wasnorm_wordpool_less_exclusions.txt	LTP197	ltpFR	7	12	1	CHAMPAGNE	278	n/a	0	n/a	0	0	0	1	0.412841796875	0.57763671875	lower	../fonts/zerothre.ttf
3121604	WORD	wordpools/wasnorm_wordpool_less_exclusions.txt	LTP197	ltpFR	7	12	1	MARINE	869	n/a	0	n/a	0	0	0	1	0.412841796875	0.57763671875	lower	../fonts/zerothre.ttf
3125703	WORD	wordpools/wasnorm_wordpool_less_exclusions.txt	LTP197	ltpFR	7	12	1	KETTLE	772	n/a	0	n/a	0	0	0	1	0.412841796875	0.57763671875	lower	../fonts/zerothre.ttf
3129918	WORD	wordpools/wasnorm_wordpool_less_exclusions.txt	LTP197	ltpFR	7	12	1	KEG	770	n/a	0	n/a	0	0	0	1	0.412841796875	0.57763671875	lower	../fonts/zerothre.ttf
3132930	START	n/a	LTP197	ltpFR	7	n/a	n/a	n/a	n/a	n/a	n/a	n/a	n/a	n/a	n/a	n/a	n/a	n/a	n/a	n/a
3133760	PROB	n/a	LTP197	ltpFR	7	n/a	n/a	n/a	n/a	n/a	n/a	15	8	1	6	n/a	n/a	n/a	n/a	n/a
3136203	PROB	n/a	LTP197	ltpFR	7	n/a	n/a	n/a	n/a	n/a	n/a	15	5	2	8	n/a	n/a	n/a	n/a	n/a
3137909	PROB	n/a	LTP197	ltpFR	7	n/a	n/a	n/a	n/a	n/a	n/a	9	1	2	6	n/a	n/a	n/a	n/a	n/a
3139553	STOP	n/a	LTP197	ltpFR	7	n/a	n/a	n/a	n/a	n/a	n/a	n/a	n/a	n/a	n/a	n/a	n/a	n/a	n/a	n/a
3142845	REC_START	n/a	LTP197	ltpFR	7	12	n/a	n/a	n/a	n/a	n/a	n/a	0	0	0	n/a	n/a	n/a	n/a	n/a
3144975	REC_WORD	wordpools/wasnorm_wordpool_less_exclusions.txt	LTP197	ltpFR	7	12	1	CHICK	296	n/a	1	n/a	0	0	0	n/a	n/a	n/a	n/a	n/a
3145559	REC_WORD	wordpools/wasnorm_wordpool_less_exclusions.txt	LTP197	ltpFR	7	12	1	CANARY	227	n/a	1	n/a	0	0	0	n/a	n/a	n/a	n/a	n/a
3146286	REC_WORD	wordpools/wasnorm_wordpool_less_exclusions.txt	LTP197	ltpFR	7	12	1	FROG	608	n/a	1	n/a	0	0	0	n/a	n/a	n/a	n/a	n/a
3147265	REC_WORD	wordpools/wasnorm_wordpool_less_exclusions.txt	LTP197	ltpFR	7	12	1	TUB	1514	n/a	0	n/a	0	0	0	n/a	n/a	n/a	n/a	n/a
3147943	REC_WORD	wordpools/wasnorm_wordpool_less_exclusions.txt	LTP197	ltpFR	7	12	1	HOSE	720	n/a	1	n/a	0	0	0	n/a	n/a	n/a	n/a	n/a
3149734	REC_WORD	wordpools/wasnorm_wordpool_less_exclusions.txt	LTP197	ltpFR	7	12	1	KETTLE	772	n/a	0	n/a	0	0	0	n/a	n/a	n/a	n/a	n/a
3150423	REC_WORD	wordpools/wasnorm_wordpool_less_exclusions.txt	LTP197	ltpFR	7	12	1	KEG	770	n/a	0	n/a	0	0	0	n/a	n/a	n/a	n/a	n/a
3151914	REC_WORD	wordpools/wasnorm_wordpool_less_exclusions.txt	LTP197	ltpFR	7	12	1	NITROGEN	954	n/a	0	n/a	0	0	0	n/a	n/a	n/a	n/a	n/a
3153096	REC_WORD	wordpools/wasnorm_wordpool_less_exclusions.txt	LTP197	ltpFR	7	12	1	MOON	914	n/a	0	n/a	0	0	0	n/a	n/a	n/a	n/a	n/a
3153700	REC_WORD	wordpools/wasnorm_wordpool_less_exclusions.txt	LTP197	ltpFR	7	12	1	SUNRISE	1407	n/a	0	n/a	0	0	0	n/a	n/a	n/a	n/a	n/a
3154710	REC_WORD	wordpools/wasnorm_wordpool_less_exclusions.txt	LTP197	ltpFR	7	12	1	SADDLE	1221	n/a	0	n/a	0	0	0	n/a	n/a	n/a	n/a	n/a
3155521	REC_WORD	wordpools/wasnorm_wordpool_less_exclusions.txt	LTP197	ltpFR	7	12	1	RANCH	1166	n/a	0	n/a	0	0	0	n/a	n/a	n/a	n/a	n/a
3229395	START	n/a	LTP197	ltpFR	7	n/a	n/a	n/a	n/a	n/a	n/a	n/a	n/a	n/a	n/a	n/a	n/a	n/a	n/a	n/a
3230909	PROB	n/a	LTP197	ltpFR	7	n/a	n/a	n/a	n/a	n/a	n/a	11	2	3	6	n/a	n/a	n/a	n/a	n/a
3233084	PROB	n/a	LTP197	ltpFR	7	n/a	n/a	n/a	n/a	n/a	n/a	13	3	9	1	n/a	n/a	n/a	n/a	n/a
3235025	PROB	n/a	LTP197	ltpFR	7	n/a	n/a	n/a	n/a	n/a	n/a	19	4	9	6	n/a	n/a	n/a	n/a	n/a
3236817	STOP	n/a	LTP197	ltpFR	7	n/a	n/a	n/a	n/a	n/a	n/a	n/a	n/a	n/a	n/a	n/a	n/a	n/a	n/a	n/a
3238412	WORD	wordpools/wasnorm_wordpool_less_exclusions.txt	LTP197	ltpFR	7	13	0	COTTAGE	384	n/a	1	n/a	0	0	0	0	0.5869140625	0.422607421875	upper	../fonts/amplitud.ttf
3241424	START	n/a	LTP197	ltpFR	7	n/a	n/a	n/a	n/a	n/a	n/a	n/a	n/a	n/a	n/a	n/a	n/a	n/a	n/a	n/a
3242486	PROB	n/a	LTP197	ltpFR	7	n/a	n/a	n/a	n/a	n/a	n/a	21	7	7	7	n/a	n/a	n/a	n/a	n/a
3244445	PROB	n/a	LTP197	ltpFR	7	n/a	n/a	n/a	n/a	n/a	n/a	15	8	2	5	n/a	n/a	n/a	n/a	n/a
3246190	PROB	n/a	LTP197	ltpFR	7	n/a	n/a	n/a	n/a	n/a	n/a	15	6	1	8	n/a	n/a	n/a	n/a	n/a
3248298	STOP	n/a	LTP197	ltpFR	7	n/a	n/a	n/a	n/a	n/a	n/a	n/a	n/a	n/a	n/a	n/a	n/a	n/a	n/a	n/a
3250651	WORD	wordpools/wasnorm_wordpool_less_exclusions.txt	LTP197	ltpFR	7	13	0	BROCCOLI	176	n/a	0	n/a	0	0	0	0	0.5869140625	0.422607421875	upper	../fonts/amplitud.ttf
3253669	START	n/a	LTP197	ltpFR	7	n/a	n/a	n/a	n/a	n/a	n/a	n/a	n/a	n/a	n/a	n/a	n/a	n/a	n/a	n/a
3254572	PROB	n/a	LTP197	ltpFR	7	n/a	n/a	n/a	n/a	n/a	n/a	18	9	7	2	n/a	n/a	n/a	n/a	n/a
3256891	PROB	n/a	LTP197	ltpFR	7	n/a	n/a	n/a	n/a	n/a	n/a	12	4	1	7	n/a	n/a	n/a	n/a	n/a
3259133	PROB	n/a	LTP197	ltpFR	7	n/a	n/a	n/a	n/a	n/a	n/a	15	6	1	8	n/a	n/a	n/a	n/a	n/a
3261161	STOP	n/a	LTP197	ltpFR	7	n/a	n/a	n/a	n/a	n/a	n/a	n/a	n/a	n/a	n/a	n/a	n/a	n/a	n/a	n/a
3262719	WORD	wordpools/wasnorm_wordpool_less_exclusions.txt	LTP197	ltpFR	7	13	0	SURF	1412	n/a	1	n/a	0	0	0	0	0.5869140625	0.422607421875	upper	../fonts/amplitud.ttf
3265731	START	n/a	LTP197	ltpFR	7	n/a	n/a	n/a	n/a	n/a	n/a	n/a	n/a	n/a	n/a	n/a	n/a	n/a	n/a	n/a
3266834	PROB	n/a	LTP197	ltpFR	7	n/a	n/a	n/a	n/a	n/a	n/a	16	3	7	6	n/a	n/a	n/a	n/a	n/a
3268435	PROB	n/a	LTP197	ltpFR	7	n/a	n/a	n/a	n/a	n/a	n/a	9	6	1	2	n/a	n/a	n/a	n/a	n/a
3271117	PROB	n/a	LTP197	ltpFR	7	n/a	n/a	n/a	n/a	n/a	n/a	17	3	7	7	n/a	n/a	n/a	n/a	n/a
3273113	STOP	n/a	LTP197	ltpFR	7	n/a	n/a	n/a	n/a	n/a	n/a	n/a	n/a	n/a	n/a	n/a	n/a	n/a	n/a	n/a
3274714	WORD	wordpools/wasnorm_wordpool_less_exclusions.txt	LTP197	ltpFR	7	13	0	FILM	565	n/a	0	n/a	0	0	0	0	0.5869140625	0.422607421875	upper	../fonts/amplitud.ttf
3277726	START	n/a	LTP197	ltpFR	7	n/a	n/a	n/a	n/a	n/a	n/a	n/a	n/a	n/a	n/a	n/a	n/a	n/a	n/a	n/a
3278623	PROB	n/a	LTP197	ltpFR	7	n/a	n/a	n/a	n/a	n/a	n/a	16	2	7	8	n/a	n/a	n/a	n/a	n/a
3280754	PROB	n/a	LTP197	ltpFR	7	n/a	n/a	n/a	n/a	n/a	n/a	12	4	4	4	n/a	n/a	n/a	n/a	n/a
3285725	STOP	n/a	LTP197	ltpFR	7	n/a	n/a	n/a	n/a	n/a	n/a	n/a	n/a	n/a	n/a	n/a	n/a	n/a	n/a	n/a
3286960	WORD	wordpools/wasnorm_wordpool_less_exclusions.txt	LTP197	ltpFR	7	13	0	FIELD	562	n/a	1	n/a	0	0	0	0	0.5869140625	0.422607421875	upper	../fonts/amplitud.ttf
3289972	START	n/a	LTP197	ltpFR	7	n/a	n/a	n/a	n/a	n/a	n/a	n/a	n/a	n/a	n/a	n/a	n/a	n/a	n/a	n/a
3291019	PROB	n/a	LTP197	ltpFR	7	n/a	n/a	n/a	n/a	n/a	n/a	15	2	4	9	n/a	n/a	n/a	n/a	n/a
3293278	PROB	n/a	LTP197	ltpFR	7	n/a	n/a	n/a	n/a	n/a	n/a	13	4	8	1	n/a	n/a	n/a	n/a	n/a
3294884	PROB	n/a	LTP197	ltpFR	7	n/a	n/a	n/a	n/a	n/a	n/a	10	3	3	4	n/a	n/a	n/a	n/a	n/a
3297249	STOP	n/a	LTP197	ltpFR	7	n/a	n/a	n/a	n/a	n/a	n/a	n/a	n/a	n/a	n/a	n/a	n/a	n/a	n/a	n/a
3299089	WORD	wordpools/wasnorm_wordpool_less_exclusions.txt	LTP197	ltpFR	7	13	0	SCENERY	1247	n/a	1	n/a	0	0	0	0	0.5869140625	0.422607421875	upper	../fonts/amplitud.ttf
3302101	START	n/a	LTP197	ltpFR	7	n/a	n/a	n/a	n/a	n/a	n/a	n/a	n/a	n/a	n/a	n/a	n/a	n/a	n/a	n/a
3303021	PROB	n/a	LTP197	ltpFR	7	n/a	n/a	n/a	n/a	n/a	n/a	2	6	9	8	n/a	n/a	n/a	n/a	n/a
3306578	PROB	n/a	LTP197	ltpFR	7	n/a	n/a	n/a	n/a	n/a	n/a	13	1	4	8	n/a	n/a	n/a	n/a	n/a
3310101	STOP	n/a	LTP197	ltpFR	7	n/a	n/a	n/a	n/a	n/a	n/a	n/a	n/a	n/a	n/a	n/a	n/a	n/a	n/a	n/a
3311168	WORD	wordpools/wasnorm_wordpool_less_exclusions.txt	LTP197	ltpFR	7	13	0	LAPEL	800	n/a	0	n/a	0	0	0	0	0.5869140625	0.422607421875	upper	../fonts/amplitud.ttf
3314180	START	n/a	LTP197	ltpFR	7	n/a	n/a	n/a	n/a	n/a	n/a	n/a	n/a	n/a	n/a	n/a	n/a	n/a	n/a	n/a
3315150	PROB	n/a	LTP197	ltpFR	7	n/a	n/a	n/a	n/a	n/a	n/a	19	9	3	7	n/a	n/a	n/a	n/a	n/a
3317051	PROB	n/a	LTP197	ltpFR	7	n/a	n/a	n/a	n/a	n/a	n/a	24	8	8	8	n/a	n/a	n/a	n/a	n/a
3318891	PROB	n/a	LTP197	ltpFR	7	n/a	n/a	n/a	n/a	n/a	n/a	15	6	7	2	n/a	n/a	n/a	n/a	n/a
3320705	STOP	n/a	LTP197	ltpFR	7	n/a	n/a	n/a	n/a	n/a	n/a	n/a	n/a	n/a	n/a	n/a	n/a	n/a	n/a	n/a
3323174	WORD	wordpools/wasnorm_wordpool_less_exclusions.txt	LTP197	ltpFR	7	13	0	SLEEVE	1324	n/a	1	n/a	0	0	0	0	0.5869140625	0.422607421875	upper	../fonts/amplitud.ttf
3326186	START	n/a	LTP197	ltpFR	7	n/a	n/a	n/a	n/a	n/a	n/a	n/a	n/a	n/a	n/a	n/a	n/a	n/a	n/a	n/a
3327038	PROB	n/a	LTP197	ltpFR	7	n/a	n/a	n/a	n/a	n/a	n/a	17	5	6	6	n/a	n/a	n/a	n/a	n/a
3329197	PROB	n/a	LTP197	ltpFR	7	n/a	n/a	n/a	n/a	n/a	n/a	18	9	1	8	n/a	n/a	n/a	n/a	n/a
3330524	PROB	n/a	LTP197	ltpFR	7	n/a	n/a	n/a	n/a	n/a	n/a	13	7	2	4	n/a	n/a	n/a	n/a	n/a
3332057	PROB	n/a	LTP197	ltpFR	7	n/a	n/a	n/a	n/a	n/a	n/a	13	2	7	4	n/a	n/a	n/a	n/a	n/a
3333497	STOP	n/a	LTP197	ltpFR	7	n/a	n/a	n/a	n/a	n/a	n/a	n/a	n/a	n/a	n/a	n/a	n/a	n/a	n/a	n/a
3335058	WORD	wordpools/wasnorm_wordpool_less_exclusions.txt	LTP197	ltpFR	7	13	0	CUFF	423	n/a	0	n/a	0	0	0	0	0.5869140625	0.422607421875	upper	../fonts/amplitud.ttf
3338070	START	n/a	LTP197	ltpFR	7	n/a	n/a	n/a	n/a	n/a	n/a	n/a	n/a	n/a	n/a	n/a	n/a	n/a	n/a	n/a
3338923	PROB	n/a	LTP197	ltpFR	7	n/a	n/a	n/a	n/a	n/a	n/a	18	8	4	6	n/a	n/a	n/a	n/a	n/a
3340523	PROB	n/a	LTP197	ltpFR	7	n/a	n/a	n/a	n/a	n/a	n/a	15	8	1	6	n/a	n/a	n/a	n/a	n/a
3342051	PROB	n/a	LTP197	ltpFR	7	n/a	n/a	n/a	n/a	n/a	n/a	8	6	1	1	n/a	n/a	n/a	n/a	n/a
3343368	PROB	n/a	LTP197	ltpFR	7	n/a	n/a	n/a	n/a	n/a	n/a	16	8	2	6	n/a	n/a	n/a	n/a	n/a
3344665	STOP	n/a	LTP197	ltpFR	7	n/a	n/a	n/a	n/a	n/a	n/a	n/a	n/a	n/a	n/a	n/a	n/a	n/a	n/a	n/a
3347299	WORD	wordpools/wasnorm_wordpool_less_exclusions.txt	LTP197	ltpFR	7	13	0	COLESLAW	344	n/a	0	n/a	0	0	0	0	0.5869140625	0.422607421875	upper	../fonts/amplitud.ttf
3350311	START	n/a	LTP197	ltpFR	7	n/a	n/a	n/a	n/a	n/a	n/a	n/a	n/a	n/a	n/a	n/a	n/a	n/a	n/a	n/a
3351202	PROB	n/a	LTP197	ltpFR	7	n/a	n/a	n/a	n/a	n/a	n/a	13	6	4	3	n/a	n/a	n/a	n/a	n/a
3353237	PROB	n/a	LTP197	ltpFR	7	n/a	n/a	n/a	n/a	n/a	n/a	17	7	5	6	n/a	n/a	n/a	n/a	n/a
3355144	PROB	n/a	LTP197	ltpFR	7	n/a	n/a	n/a	n/a	n/a	n/a	17	2	9	6	n/a	n/a	n/a	n/a	n/a
3357513	STOP	n/a	LTP197	ltpFR	7	n/a	n/a	n/a	n/a	n/a	n/a	n/a	n/a	n/a	n/a	n/a	n/a	n/a	n/a	n/a
3359511	WORD	wordpools/wasnorm_wordpool_less_exclusions.txt	LTP197	ltpFR	7	13	0	BAY	102	n/a	1	n/a	0	0	0	0	0.5869140625	0.422607421875	upper	../fonts/amplitud.ttf
3362523	START	n/a	LTP197	ltpFR	7	n/a	n/a	n/a	n/a	n/a	n/a	n/a	n/a	n/a	n/a	n/a	n/a	n/a	n/a	n/a
3363532	PROB	n/a	LTP197	ltpFR	7	n/a	n/a	n/a	n/a	n/a	n/a	12	5	3	4	n/a	n/a	n/a	n/a	n/a
3365065	PROB	n/a	LTP197	ltpFR	7	n/a	n/a	n/a	n/a	n/a	n/a	11	3	5	3	n/a	n/a	n/a	n/a	n/a
3367123	PROB	n/a	LTP197	ltpFR	7	n/a	n/a	n/a	n/a	n/a	n/a	14	2	8	4	n/a	n/a	n/a	n/a	n/a
3369073	STOP	n/a	LTP197	ltpFR	7	n/a	n/a	n/a	n/a	n/a	n/a	n/a	n/a	n/a	n/a	n/a	n/a	n/a	n/a	n/a
3371440	WORD	wordpools/wasnorm_wordpool_less_exclusions.txt	LTP197	ltpFR	7	13	0	PACKAGE	997	n/a	1	n/a	0	0	0	0	0.5869140625	0.422607421875	upper	../fonts/amplitud.ttf
3374452	START	n/a	LTP197	ltpFR	7	n/a	n/a	n/a	n/a	n/a	n/a	n/a	n/a	n/a	n/a	n/a	n/a	n/a	n/a	n/a
3375594	PROB	n/a	LTP197	ltpFR	7	n/a	n/a	n/a	n/a	n/a	n/a	19	8	9	2	n/a	n/a	n/a	n/a	n/a
3377385	PROB	n/a	LTP197	ltpFR	7	n/a	n/a	n/a	n/a	n/a	n/a	15	7	2	6	n/a	n/a	n/a	n/a	n/a
3379337	PROB	n/a	LTP197	ltpFR	7	n/a	n/a	n/a	n/a	n/a	n/a	21	9	6	6	n/a	n/a	n/a	n/a	n/a
3381513	STOP	n/a	LTP197	ltpFR	7	n/a	n/a	n/a	n/a	n/a	n/a	n/a	n/a	n/a	n/a	n/a	n/a	n/a	n/a	n/a
3383585	WORD	wordpools/wasnorm_wordpool_less_exclusions.txt	LTP197	ltpFR	7	13	0	PAINTING	1005	n/a	1	n/a	0	0	0	0	0.5869140625	0.422607421875	upper	../fonts/amplitud.ttf
3386597	START	n/a	LTP197	ltpFR	7	n/a	n/a	n/a	n/a	n/a	n/a	n/a	n/a	n/a	n/a	n/a	n/a	n/a	n/a	n/a
3387690	PROB	n/a	LTP197	ltpFR	7	n/a	n/a	n/a	n/a	n/a	n/a	19	7	3	9	n/a	n/a	n/a	n/a	n/a
3389122	PROB	n/a	LTP197	ltpFR	7	n/a	n/a	n/a	n/a	n/a	n/a	11	4	5	2	n/a	n/a	n/a	n/a	n/a
3390695	PROB	n/a	LTP197	ltpFR	7	n/a	n/a	n/a	n/a	n/a	n/a	17	6	3	8	n/a	n/a	n/a	n/a	n/a
3392369	PROB	n/a	LTP197	ltpFR	7	n/a	n/a	n/a	n/a	n/a	n/a	7	2	4	1	n/a	n/a	n/a	n/a	n/a
