mstime	trial_type	stim_file	subject	experiment	session	trial	item_name	item_num	list	answer	test_x	test_y	test_z
0	SESS_START	n/a	LTP346	ltpFR2	10	n/a	n/a	n/a	n/a	n/a	0	0	0
17160	START	n/a	LTP346	ltpFR2	10	n/a	n/a	n/a	-1	n/a	n/a	n/a	n/a
17190	PROB	n/a	LTP346	ltpFR2	10	n/a	n/a	n/a	-1	17	9	3	5
20222	PROB	n/a	LTP346	ltpFR2	10	n/a	n/a	n/a	-1	19	6	4	9
21755	PROB	n/a	LTP346	ltpFR2	10	n/a	n/a	n/a	-1	20	4	8	8
23320	PROB	n/a	LTP346	ltpFR2	10	n/a	n/a	n/a	-1	10	2	4	4
24621	PROB	n/a	LTP346	ltpFR2	10	n/a	n/a	n/a	-1	11	3	5	3
29159	STOP	n/a	LTP346	ltpFR2	10	n/a	n/a	n/a	-1	n/a	n/a	n/a	n/a
98800	WORD	wordpools/wasnorm_wordpool_576.txt	LTP346	ltpFR2	10	1	GUITAR	670	n/a	n/a	0	0	0
101616	WORD	wordpools/wasnorm_wordpool_576.txt	LTP346	ltpFR2	10	1	BEEF	113	n/a	n/a	0	0	0
104347	WORD	wordpools/wasnorm_wordpool_576.txt	LTP346	ltpFR2	10	1	SCOTCH	1251	n/a	n/a	0	0	0
107046	WORD	wordpools/wasnorm_wordpool_576.txt	LTP346	ltpFR2	10	1	SLIDE	1326	n/a	n/a	0	0	0
109828	WORD	wordpools/wasnorm_wordpool_576.txt	LTP346	ltpFR2	10	1	STALLION	1369	n/a	n/a	0	0	0
112326	WORD	wordpools/wasnorm_wordpool_576.txt	LTP346	ltpFR2	10	1	HARP	689	n/a	n/a	0	0	0
114776	WORD	wordpools/wasnorm_wordpool_576.txt	LTP346	ltpFR2	10	1	CAPTIVE	240	n/a	n/a	0	0	0
117340	WORD	wordpools/wasnorm_wordpool_576.txt	LTP346	ltpFR2	10	1	FLEET	578	n/a	n/a	0	0	0
119940	WORD	wordpools/wasnorm_wordpool_576.txt	LTP346	ltpFR2	10	1	RIVER	1194	n/a	n/a	0	0	0
122689	WORD	wordpools/wasnorm_wordpool_576.txt	LTP346	ltpFR2	10	1	UNCLE	1536	n/a	n/a	0	0	0
125120	WORD	wordpools/wasnorm_wordpool_576.txt	LTP346	ltpFR2	10	1	MARINE	869	n/a	n/a	0	0	0
127836	WORD	wordpools/wasnorm_wordpool_576.txt	LTP346	ltpFR2	10	1	FIREPLACE	570	n/a	n/a	0	0	0
130484	WORD	wordpools/wasnorm_wordpool_576.txt	LTP346	ltpFR2	10	1	SUNSET	1408	n/a	n/a	0	0	0
133182	WORD	wordpools/wasnorm_wordpool_576.txt	LTP346	ltpFR2	10	1	BOUQUET	157	n/a	n/a	0	0	0
135615	WORD	wordpools/wasnorm_wordpool_576.txt	LTP346	ltpFR2	10	1	LAKE	796	n/a	n/a	0	0	0
138163	WORD	wordpools/wasnorm_wordpool_576.txt	LTP346	ltpFR2	10	1	SPOOL	1356	n/a	n/a	0	0	0
140963	WORD	wordpools/wasnorm_wordpool_576.txt	LTP346	ltpFR2	10	1	FOREHEAD	592	n/a	n/a	0	0	0
143695	WORD	wordpools/wasnorm_wordpool_576.txt	LTP346	ltpFR2	10	1	SCARF	1246	n/a	n/a	0	0	0
146442	WORD	wordpools/wasnorm_wordpool_576.txt	LTP346	ltpFR2	10	1	ARMY	39	n/a	n/a	0	0	0
149141	WORD	wordpools/wasnorm_wordpool_576.txt	LTP346	ltpFR2	10	1	BULLET	194	n/a	n/a	0	0	0
151924	WORD	wordpools/wasnorm_wordpool_576.txt	LTP346	ltpFR2	10	1	BLOCKADE	137	n/a	n/a	0	0	0
154522	WORD	wordpools/wasnorm_wordpool_576.txt	LTP346	ltpFR2	10	1	BRAKE	166	n/a	n/a	0	0	0
157187	WORD	wordpools/wasnorm_wordpool_576.txt	LTP346	ltpFR2	10	1	THREAD	1460	n/a	n/a	0	0	0
159737	WORD	wordpools/wasnorm_wordpool_576.txt	LTP346	ltpFR2	10	1	SPONGE	1355	n/a	n/a	0	0	0
161352	START	n/a	LTP346	ltpFR2	10	n/a	n/a	n/a	1	n/a	n/a	n/a	n/a
162507	DISTRACTOR	n/a	LTP346	ltpFR2	10	1	n/a	n/a	n/a	n/a	0	0	0
162518	PROB	n/a	LTP346	ltpFR2	10	n/a	n/a	n/a	1	16	6	1	9
165117	PROB	n/a	LTP346	ltpFR2	10	n/a	n/a	n/a	1	11	4	4	3
166733	PROB	n/a	LTP346	ltpFR2	10	n/a	n/a	n/a	1	19	3	8	8
168699	PROB	n/a	LTP346	ltpFR2	10	n/a	n/a	n/a	1	16	4	7	5
170414	PROB	n/a	LTP346	ltpFR2	10	n/a	n/a	n/a	1	12	2	7	3
171747	PROB	n/a	LTP346	ltpFR2	10	n/a	n/a	n/a	1	19	6	5	8
173262	PROB	n/a	LTP346	ltpFR2	10	n/a	n/a	n/a	1	21	8	9	4
175596	PROB	n/a	LTP346	ltpFR2	10	n/a	n/a	n/a	1	13	4	2	7
177012	PROB	n/a	LTP346	ltpFR2	10	n/a	n/a	n/a	1	17	5	7	5
178460	PROB	n/a	LTP346	ltpFR2	10	n/a	n/a	n/a	1	11	2	6	3
179960	PROB	n/a	LTP346	ltpFR2	10	n/a	n/a	n/a	1	13	9	1	3
181026	PROB	n/a	LTP346	ltpFR2	10	n/a	n/a	n/a	1	26	9	7	9
182942	PROB	n/a	LTP346	ltpFR2	10	n/a	n/a	n/a	1	15	3	7	5
184027	STOP	n/a	LTP346	ltpFR2	10	n/a	n/a	n/a	1	n/a	n/a	n/a	n/a
187174	REC_START	n/a	LTP346	ltpFR2	10	1	n/a	n/a	n/a	n/a	0	0	0
187554	REC_WORD	wordpools/wasnorm_wordpool_576.txt	LTP346	ltpFR2	10	1	BRAKE	166	n/a	n/a	0	0	0
188172	REC_WORD	wordpools/wasnorm_wordpool_576.txt	LTP346	ltpFR2	10	1	THREAD	1460	n/a	n/a	0	0	0
189096	REC_WORD	wordpools/wasnorm_wordpool_576.txt	LTP346	ltpFR2	10	1	SPONGE	1355	n/a	n/a	0	0	0
193128	REC_WORD	wordpools/wasnorm_wordpool_576.txt	LTP346	ltpFR2	10	1	SLIDE	1326	n/a	n/a	0	0	0
194024	REC_WORD	wordpools/wasnorm_wordpool_576.txt	LTP346	ltpFR2	10	1	STALLION	1369	n/a	n/a	0	0	0
198198	REC_WORD	wordpools/wasnorm_wordpool_576.txt	LTP346	ltpFR2	10	1	HARP	689	n/a	n/a	0	0	0
198871	REC_WORD	wordpools/wasnorm_wordpool_576.txt	LTP346	ltpFR2	10	1	FLEET	578	n/a	n/a	0	0	0
200577	REC_WORD	wordpools/wasnorm_wordpool_576.txt	LTP346	ltpFR2	10	1	CAPTIVE	240	n/a	n/a	0	0	0
203379	REC_WORD	wordpools/wasnorm_wordpool_576.txt	LTP346	ltpFR2	10	1	UNCLE	1536	n/a	n/a	0	0	0
204113	REC_WORD	wordpools/wasnorm_wordpool_576.txt	LTP346	ltpFR2	10	1	MARINE	869	n/a	n/a	0	0	0
207020	REC_WORD	wordpools/wasnorm_wordpool_576.txt	LTP346	ltpFR2	10	1	ARMY	39	n/a	n/a	0	0	0
207918	REC_WORD	wordpools/wasnorm_wordpool_576.txt	LTP346	ltpFR2	10	1	BULLET	194	n/a	n/a	0	0	0
211012	REC_WORD	wordpools/wasnorm_wordpool_576.txt	LTP346	ltpFR2	10	1	FOREHEAD	592	n/a	n/a	0	0	0
211839	REC_WORD	wordpools/wasnorm_wordpool_576.txt	LTP346	ltpFR2	10	1	SCARF	1246	n/a	n/a	0	0	0
213541	REC_WORD	wordpools/wasnorm_wordpool_576.txt	LTP346	ltpFR2	10	1	LAKE	796	n/a	n/a	0	0	0
214404	REC_WORD	wordpools/wasnorm_wordpool_576.txt	LTP346	ltpFR2	10	1	SUNSET	1408	n/a	n/a	0	0	0
215338	REC_WORD	wordpools/wasnorm_wordpool_576.txt	LTP346	ltpFR2	10	1	FIREPLACE	570	n/a	n/a	0	0	0
217052	REC_WORD	wordpools/wasnorm_wordpool_576.txt	LTP346	ltpFR2	10	1	RIVER	1194	n/a	n/a	0	0	0
227769	REC_WORD	wordpools/wasnorm_wordpool_576.txt	LTP346	ltpFR2	10	1	BEEF	113	n/a	n/a	0	0	0
228430	REC_WORD	wordpools/wasnorm_wordpool_576.txt	LTP346	ltpFR2	10	1	SCOTCH	1251	n/a	n/a	0	0	0
277628	DISTRACTOR	n/a	LTP346	ltpFR2	10	2	n/a	n/a	n/a	n/a	0	0	0
277629	START	n/a	LTP346	ltpFR2	10	n/a	n/a	n/a	2	n/a	n/a	n/a	n/a
277645	PROB	n/a	LTP346	ltpFR2	10	n/a	n/a	n/a	2	14	7	4	3
279293	PROB	n/a	LTP346	ltpFR2	10	n/a	n/a	n/a	2	13	2	8	3
280777	PROB	n/a	LTP346	ltpFR2	10	n/a	n/a	n/a	2	22	8	7	7
282776	PROB	n/a	LTP346	ltpFR2	10	n/a	n/a	n/a	2	14	7	1	6
284641	PROB	n/a	LTP346	ltpFR2	10	n/a	n/a	n/a	2	15	4	5	6
286123	PROB	n/a	LTP346	ltpFR2	10	n/a	n/a	n/a	2	20	6	8	6
289188	PROB	n/a	LTP346	ltpFR2	10	n/a	n/a	n/a	2	12	1	8	3
290622	PROB	n/a	LTP346	ltpFR2	10	n/a	n/a	n/a	2	12	2	7	3
291871	PROB	n/a	LTP346	ltpFR2	10	n/a	n/a	n/a	2	13	1	9	3
293054	PROB	n/a	LTP346	ltpFR2	10	n/a	n/a	n/a	2	8	2	1	5
294536	PROB	n/a	LTP346	ltpFR2	10	n/a	n/a	n/a	2	23	8	9	6
297118	PROB	n/a	LTP346	ltpFR2	10	n/a	n/a	n/a	2	14	2	7	5
299133	PROB	n/a	LTP346	ltpFR2	10	n/a	n/a	n/a	2	10	2	4	4
300250	STOP	n/a	LTP346	ltpFR2	10	n/a	n/a	n/a	2	n/a	n/a	n/a	n/a
302733	WORD	wordpools/wasnorm_wordpool_576.txt	LTP346	ltpFR2	10	2	CHILD	299	n/a	n/a	0	0	0
305280	WORD	wordpools/wasnorm_wordpool_576.txt	LTP346	ltpFR2	10	2	SUNRISE	1407	n/a	n/a	0	0	0
307863	WORD	wordpools/wasnorm_wordpool_576.txt	LTP346	ltpFR2	10	2	MUMMY	932	n/a	n/a	0	0	0
310344	WORD	wordpools/wasnorm_wordpool_576.txt	LTP346	ltpFR2	10	2	DANCER	437	n/a	n/a	0	0	0
313160	WORD	wordpools/wasnorm_wordpool_576.txt	LTP346	ltpFR2	10	2	MAMMAL	861	n/a	n/a	0	0	0
315743	WORD	wordpools/wasnorm_wordpool_576.txt	LTP346	ltpFR2	10	2	FLIPPER	580	n/a	n/a	0	0	0
318241	WORD	wordpools/wasnorm_wordpool_576.txt	LTP346	ltpFR2	10	2	TOMBSTONE	1478	n/a	n/a	0	0	0
320773	WORD	wordpools/wasnorm_wordpool_576.txt	LTP346	ltpFR2	10	2	PASTA	1021	n/a	n/a	0	0	0
323371	WORD	wordpools/wasnorm_wordpool_576.txt	LTP346	ltpFR2	10	2	WIFE	1609	n/a	n/a	0	0	0
326103	WORD	wordpools/wasnorm_wordpool_576.txt	LTP346	ltpFR2	10	2	LOVER	846	n/a	n/a	0	0	0
328853	WORD	wordpools/wasnorm_wordpool_576.txt	LTP346	ltpFR2	10	2	BOYFRIEND	162	n/a	n/a	0	0	0
331317	WORD	wordpools/wasnorm_wordpool_576.txt	LTP346	ltpFR2	10	2	ISLAND	745	n/a	n/a	0	0	0
334083	WORD	wordpools/wasnorm_wordpool_576.txt	LTP346	ltpFR2	10	2	CARRIAGE	248	n/a	n/a	0	0	0
336548	WORD	wordpools/wasnorm_wordpool_576.txt	LTP346	ltpFR2	10	2	SHORTS	1293	n/a	n/a	0	0	0
339263	WORD	wordpools/wasnorm_wordpool_576.txt	LTP346	ltpFR2	10	2	KNAPSACK	783	n/a	n/a	0	0	0
342013	WORD	wordpools/wasnorm_wordpool_576.txt	LTP346	ltpFR2	10	2	STREAM	1392	n/a	n/a	0	0	0
344628	WORD	wordpools/wasnorm_wordpool_576.txt	LTP346	ltpFR2	10	2	PORK	1108	n/a	n/a	0	0	0
347176	WORD	wordpools/wasnorm_wordpool_576.txt	LTP346	ltpFR2	10	2	CANAL	226	n/a	n/a	0	0	0
349792	WORD	wordpools/wasnorm_wordpool_576.txt	LTP346	ltpFR2	10	2	DIVER	476	n/a	n/a	0	0	0
352407	WORD	wordpools/wasnorm_wordpool_576.txt	LTP346	ltpFR2	10	2	LADY	794	n/a	n/a	0	0	0
354857	WORD	wordpools/wasnorm_wordpool_576.txt	LTP346	ltpFR2	10	2	EMPIRE	530	n/a	n/a	0	0	0
357589	WORD	wordpools/wasnorm_wordpool_576.txt	LTP346	ltpFR2	10	2	VIKING	1565	n/a	n/a	0	0	0
360286	WORD	wordpools/wasnorm_wordpool_576.txt	LTP346	ltpFR2	10	2	STONE	1385	n/a	n/a	0	0	0
362869	WORD	wordpools/wasnorm_wordpool_576.txt	LTP346	ltpFR2	10	2	KIDNEY	776	n/a	n/a	0	0	0
364484	START	n/a	LTP346	ltpFR2	10	n/a	n/a	n/a	3	n/a	n/a	n/a	n/a
365418	DISTRACTOR	n/a	LTP346	ltpFR2	10	2	n/a	n/a	n/a	n/a	0	0	0
365434	PROB	n/a	LTP346	ltpFR2	10	n/a	n/a	n/a	3	11	1	5	5
366684	PROB	n/a	LTP346	ltpFR2	10	n/a	n/a	n/a	3	16	9	6	1
368116	PROB	n/a	LTP346	ltpFR2	10	n/a	n/a	n/a	3	18	1	9	8
369482	PROB	n/a	LTP346	ltpFR2	10	n/a	n/a	n/a	3	14	5	7	2
372397	PROB	n/a	LTP346	ltpFR2	10	n/a	n/a	n/a	3	9	6	1	2
374196	PROB	n/a	LTP346	ltpFR2	10	n/a	n/a	n/a	3	15	3	7	6
376145	PROB	n/a	LTP346	ltpFR2	10	n/a	n/a	n/a	3	12	6	3	3
377779	PROB	n/a	LTP346	ltpFR2	10	n/a	n/a	n/a	3	15	3	3	9
379578	PROB	n/a	LTP346	ltpFR2	10	n/a	n/a	n/a	3	14	3	3	8
381143	PROB	n/a	LTP346	ltpFR2	10	n/a	n/a	n/a	3	15	9	1	5
382275	PROB	n/a	LTP346	ltpFR2	10	n/a	n/a	n/a	3	17	7	5	5
383776	PROB	n/a	LTP346	ltpFR2	10	n/a	n/a	n/a	3	12	3	7	2
385608	PROB	n/a	LTP346	ltpFR2	10	n/a	n/a	n/a	3	17	7	6	4
388354	STOP	n/a	LTP346	ltpFR2	10	n/a	n/a	n/a	3	n/a	n/a	n/a	n/a
390239	REC_START	n/a	LTP346	ltpFR2	10	2	n/a	n/a	n/a	n/a	0	0	0
390539	REC_WORD_VV	wordpools/wasnorm_wordpool_576.txt	LTP346	ltpFR2	10	2	<>	-1	n/a	n/a	0	0	0
392626	REC_WORD	wordpools/wasnorm_wordpool_576.txt	LTP346	ltpFR2	10	2	KIDNEY	776	n/a	n/a	0	0	0
393063	REC_WORD	wordpools/wasnorm_wordpool_576.txt	LTP346	ltpFR2	10	2	STONE	1385	n/a	n/a	0	0	0
396739	REC_WORD	wordpools/wasnorm_wordpool_576.txt	LTP346	ltpFR2	10	2	LADY	794	n/a	n/a	0	0	0
397237	REC_WORD	wordpools/wasnorm_wordpool_576.txt	LTP346	ltpFR2	10	2	EMPIRE	530	n/a	n/a	0	0	0
398734	REC_WORD	wordpools/wasnorm_wordpool_576.txt	LTP346	ltpFR2	10	2	STREAM	1392	n/a	n/a	0	0	0
399671	REC_WORD	wordpools/wasnorm_wordpool_576.txt	LTP346	ltpFR2	10	2	CANAL	226	n/a	n/a	0	0	0
400387	REC_WORD	wordpools/wasnorm_wordpool_576.txt	LTP346	ltpFR2	10	2	PORK	1108	n/a	n/a	0	0	0
403974	REC_WORD	wordpools/wasnorm_wordpool_576.txt	LTP346	ltpFR2	10	2	SUNRISE	1407	n/a	n/a	0	0	0
404974	REC_WORD_VV	wordpools/wasnorm_wordpool_576.txt	LTP346	ltpFR2	10	2	<>	-1	n/a	n/a	0	0	0
406637	REC_WORD	wordpools/wasnorm_wordpool_576.txt	LTP346	ltpFR2	10	2	CHILD	299	n/a	n/a	0	0	0
411042	REC_WORD	wordpools/wasnorm_wordpool_576.txt	LTP346	ltpFR2	10	2	MUMMY	932	n/a	n/a	0	0	0
411887	REC_WORD	wordpools/wasnorm_wordpool_576.txt	LTP346	ltpFR2	10	2	DANCER	437	n/a	n/a	0	0	0
417039	REC_WORD	wordpools/wasnorm_wordpool_576.txt	LTP346	ltpFR2	10	2	MAMMAL	861	n/a	n/a	0	0	0
417704	REC_WORD	wordpools/wasnorm_wordpool_576.txt	LTP346	ltpFR2	10	2	FLIPPER	580	n/a	n/a	0	0	0
422854	REC_WORD	wordpools/wasnorm_wordpool_576.txt	LTP346	ltpFR2	10	2	DIVER	476	n/a	n/a	0	0	0
432578	REC_WORD	wordpools/wasnorm_wordpool_576.txt	LTP346	ltpFR2	10	2	BOYFRIEND	162	n/a	n/a	0	0	0
433467	REC_WORD	wordpools/wasnorm_wordpool_576.txt	LTP346	ltpFR2	10	2	LOVER	846	n/a	n/a	0	0	0
438393	REC_WORD	wordpools/wasnorm_wordpool_576.txt	LTP346	ltpFR2	10	2	SHORTS	1293	n/a	n/a	0	0	0
439578	REC_WORD	wordpools/wasnorm_wordpool_576.txt	LTP346	ltpFR2	10	2	CARRIAGE	248	n/a	n/a	0	0	0
448975	REC_WORD	wordpools/wasnorm_wordpool_576.txt	LTP346	ltpFR2	10	2	ISLAND	745	n/a	n/a	0	0	0
516442	DISTRACTOR	n/a	LTP346	ltpFR2	10	3	n/a	n/a	n/a	n/a	0	0	0
516442	START	n/a	LTP346	ltpFR2	10	n/a	n/a	n/a	4	n/a	n/a	n/a	n/a
516459	PROB	n/a	LTP346	ltpFR2	10	n/a	n/a	n/a	4	17	5	4	8
518076	PROB	n/a	LTP346	ltpFR2	10	n/a	n/a	n/a	4	7	4	2	1
519641	PROB	n/a	LTP346	ltpFR2	10	n/a	n/a	n/a	4	15	8	2	5
520891	PROB	n/a	LTP346	ltpFR2	10	n/a	n/a	n/a	4	11	6	1	4
521940	PROB	n/a	LTP346	ltpFR2	10	n/a	n/a	n/a	4	24	8	7	9
523172	PROB	n/a	LTP346	ltpFR2	10	n/a	n/a	n/a	4	16	8	1	7
524756	PROB	n/a	LTP346	ltpFR2	10	n/a	n/a	n/a	4	14	6	3	5
526404	PROB	n/a	LTP346	ltpFR2	10	n/a	n/a	n/a	4	20	5	6	9
528037	PROB	n/a	LTP346	ltpFR2	10	n/a	n/a	n/a	4	18	2	8	8
529369	PROB	n/a	LTP346	ltpFR2	10	n/a	n/a	n/a	4	10	7	2	1
530552	PROB	n/a	LTP346	ltpFR2	10	n/a	n/a	n/a	4	14	4	2	8
532251	PROB	n/a	LTP346	ltpFR2	10	n/a	n/a	n/a	4	13	2	8	3
533951	PROB	n/a	LTP346	ltpFR2	10	n/a	n/a	n/a	4	21	6	9	6
536216	PROB	n/a	LTP346	ltpFR2	10	n/a	n/a	n/a	4	15	4	4	7
537599	PROB	n/a	LTP346	ltpFR2	10	n/a	n/a	n/a	4	24	9	9	5
538987	STOP	n/a	LTP346	ltpFR2	10	n/a	n/a	n/a	4	n/a	n/a	n/a	n/a
541346	WORD	wordpools/wasnorm_wordpool_576.txt	LTP346	ltpFR2	10	3	CORAL	378	n/a	n/a	0	0	0
543913	WORD	wordpools/wasnorm_wordpool_576.txt	LTP346	ltpFR2	10	3	WINDOW	1611	n/a	n/a	0	0	0
546377	WORD	wordpools/wasnorm_wordpool_576.txt	LTP346	ltpFR2	10	3	CRITIC	410	n/a	n/a	0	0	0
548993	WORD	wordpools/wasnorm_wordpool_576.txt	LTP346	ltpFR2	10	3	BARREL	91	n/a	n/a	0	0	0
551458	WORD	wordpools/wasnorm_wordpool_576.txt	LTP346	ltpFR2	10	3	SALT	1229	n/a	n/a	0	0	0
553991	WORD	wordpools/wasnorm_wordpool_576.txt	LTP346	ltpFR2	10	3	PARSLEY	1016	n/a	n/a	0	0	0
556806	WORD	wordpools/wasnorm_wordpool_576.txt	LTP346	ltpFR2	10	3	CURTAIN	427	n/a	n/a	0	0	0
559287	WORD	wordpools/wasnorm_wordpool_576.txt	LTP346	ltpFR2	10	3	ATOM	55	n/a	n/a	0	0	0
561904	WORD	wordpools/wasnorm_wordpool_576.txt	LTP346	ltpFR2	10	3	CELLAR	267	n/a	n/a	0	0	0
564402	WORD	wordpools/wasnorm_wordpool_576.txt	LTP346	ltpFR2	10	3	RATTLE	1170	n/a	n/a	0	0	0
567167	WORD	wordpools/wasnorm_wordpool_576.txt	LTP346	ltpFR2	10	3	CREATURE	403	n/a	n/a	0	0	0
569683	WORD	wordpools/wasnorm_wordpool_576.txt	LTP346	ltpFR2	10	3	WASHER	1592	n/a	n/a	0	0	0
572497	WORD	wordpools/wasnorm_wordpool_576.txt	LTP346	ltpFR2	10	3	HAMPER	682	n/a	n/a	0	0	0
575081	WORD	wordpools/wasnorm_wordpool_576.txt	LTP346	ltpFR2	10	3	AGENT	10	n/a	n/a	0	0	0
577512	WORD	wordpools/wasnorm_wordpool_576.txt	LTP346	ltpFR2	10	3	SKETCH	1315	n/a	n/a	0	0	0
580110	WORD	wordpools/wasnorm_wordpool_576.txt	LTP346	ltpFR2	10	3	PEBBLE	1035	n/a	n/a	0	0	0
582910	WORD	wordpools/wasnorm_wordpool_576.txt	LTP346	ltpFR2	10	3	PLUTO	1092	n/a	n/a	0	0	0
585358	WORD	wordpools/wasnorm_wordpool_576.txt	LTP346	ltpFR2	10	3	CRATER	400	n/a	n/a	0	0	0
588123	WORD	wordpools/wasnorm_wordpool_576.txt	LTP346	ltpFR2	10	3	TEACHER	1440	n/a	n/a	0	0	0
590555	WORD	wordpools/wasnorm_wordpool_576.txt	LTP346	ltpFR2	10	3	ANKLE	24	n/a	n/a	0	0	0
593354	WORD	wordpools/wasnorm_wordpool_576.txt	LTP346	ltpFR2	10	3	MAILMAN	858	n/a	n/a	0	0	0
596070	WORD	wordpools/wasnorm_wordpool_576.txt	LTP346	ltpFR2	10	3	NEUTRON	947	n/a	n/a	0	0	0
598586	WORD	wordpools/wasnorm_wordpool_576.txt	LTP346	ltpFR2	10	3	HIKER	708	n/a	n/a	0	0	0
601183	WORD	wordpools/wasnorm_wordpool_576.txt	LTP346	ltpFR2	10	3	HIGHWAY	707	n/a	n/a	0	0	0
602800	START	n/a	LTP346	ltpFR2	10	n/a	n/a	n/a	5	n/a	n/a	n/a	n/a
603674	DISTRACTOR	n/a	LTP346	ltpFR2	10	3	n/a	n/a	n/a	n/a	0	0	0
603683	PROB	n/a	LTP346	ltpFR2	10	n/a	n/a	n/a	5	10	5	1	4
604999	PROB	n/a	LTP346	ltpFR2	10	n/a	n/a	n/a	5	18	3	9	6
606615	PROB	n/a	LTP346	ltpFR2	10	n/a	n/a	n/a	5	14	6	3	5
608246	PROB	n/a	LTP346	ltpFR2	10	n/a	n/a	n/a	5	16	6	5	5
609546	PROB	n/a	LTP346	ltpFR2	10	n/a	n/a	n/a	5	14	5	2	7
611195	PROB	n/a	LTP346	ltpFR2	10	n/a	n/a	n/a	5	15	1	6	8
612795	PROB	n/a	LTP346	ltpFR2	10	n/a	n/a	n/a	5	11	1	9	1
613845	PROB	n/a	LTP346	ltpFR2	10	n/a	n/a	n/a	5	15	2	9	4
615594	PROB	n/a	LTP346	ltpFR2	10	n/a	n/a	n/a	5	11	5	4	2
617192	PROB	n/a	LTP346	ltpFR2	10	n/a	n/a	n/a	5	17	1	8	8
618642	PROB	n/a	LTP346	ltpFR2	10	n/a	n/a	n/a	5	16	6	1	9
620490	PROB	n/a	LTP346	ltpFR2	10	n/a	n/a	n/a	5	11	2	5	4
621841	PROB	n/a	LTP346	ltpFR2	10	n/a	n/a	n/a	5	10	1	8	1
622840	PROB	n/a	LTP346	ltpFR2	10	n/a	n/a	n/a	5	19	7	6	6
624355	PROB	n/a	LTP346	ltpFR2	10	n/a	n/a	n/a	5	18	3	8	7
626027	STOP	n/a	LTP346	ltpFR2	10	n/a	n/a	n/a	5	n/a	n/a	n/a	n/a
628638	REC_START	n/a	LTP346	ltpFR2	10	3	n/a	n/a	n/a	n/a	0	0	0
629216	REC_WORD	wordpools/wasnorm_wordpool_576.txt	LTP346	ltpFR2	10	3	CORAL	378	n/a	n/a	0	0	0
629960	REC_WORD	wordpools/wasnorm_wordpool_576.txt	LTP346	ltpFR2	10	3	WINDOW	1611	n/a	n/a	0	0	0
631405	REC_WORD_VV	wordpools/wasnorm_wordpool_576.txt	LTP346	ltpFR2	10	3	<>	-1	n/a	n/a	0	0	0
632427	REC_WORD	wordpools/wasnorm_wordpool_576.txt	LTP346	ltpFR2	10	3	BARREL	91	n/a	n/a	0	0	0
632896	REC_WORD	wordpools/wasnorm_wordpool_576.txt	LTP346	ltpFR2	10	3	CRITIC	410	n/a	n/a	0	0	0
634121	REC_WORD	wordpools/wasnorm_wordpool_576.txt	LTP346	ltpFR2	10	3	SALT	1229	n/a	n/a	0	0	0
634814	REC_WORD	wordpools/wasnorm_wordpool_576.txt	LTP346	ltpFR2	10	3	PARSLEY	1016	n/a	n/a	0	0	0
639280	REC_WORD	wordpools/wasnorm_wordpool_576.txt	LTP346	ltpFR2	10	3	ATOM	55	n/a	n/a	0	0	0
640447	REC_WORD	wordpools/wasnorm_wordpool_576.txt	LTP346	ltpFR2	10	3	CURTAIN	427	n/a	n/a	0	0	0
654023	REC_WORD	wordpools/wasnorm_wordpool_576.txt	LTP346	ltpFR2	10	3	TEACHER	1440	n/a	n/a	0	0	0
654852	REC_WORD	wordpools/wasnorm_wordpool_576.txt	LTP346	ltpFR2	10	3	ANKLE	24	n/a	n/a	0	0	0
655839	REC_WORD	wordpools/wasnorm_wordpool_576.txt	LTP346	ltpFR2	10	3	MAILMAN	858	n/a	n/a	0	0	0
656894	REC_WORD	wordpools/wasnorm_wordpool_576.txt	LTP346	ltpFR2	10	3	HIKER	708	n/a	n/a	0	0	0
657764	REC_WORD	wordpools/wasnorm_wordpool_576.txt	LTP346	ltpFR2	10	3	HIGHWAY	707	n/a	n/a	0	0	0
701658	REC_WORD	wordpools/wasnorm_wordpool_576.txt	LTP346	ltpFR2	10	3	CREATURE	403	n/a	n/a	0	0	0
702164	REC_WORD	wordpools/wasnorm_wordpool_576.txt	LTP346	ltpFR2	10	3	RATTLE	1170	n/a	n/a	0	0	0
702555	REC_WORD	wordpools/wasnorm_wordpool_576.txt	LTP346	ltpFR2	10	3	CELLAR	267	n/a	n/a	0	0	0
719092	WORD	wordpools/wasnorm_wordpool_576.txt	LTP346	ltpFR2	10	4	FRUIT	610	n/a	n/a	0	0	0
721708	WORD	wordpools/wasnorm_wordpool_576.txt	LTP346	ltpFR2	10	4	PEACH	1031	n/a	n/a	0	0	0
724455	WORD	wordpools/wasnorm_wordpool_576.txt	LTP346	ltpFR2	10	4	MACHINE	852	n/a	n/a	0	0	0
727022	WORD	wordpools/wasnorm_wordpool_576.txt	LTP346	ltpFR2	10	4	TILE	1468	n/a	n/a	0	0	0
729453	WORD	wordpools/wasnorm_wordpool_576.txt	LTP346	ltpFR2	10	4	PADDING	999	n/a	n/a	0	0	0
731969	WORD	wordpools/wasnorm_wordpool_576.txt	LTP346	ltpFR2	10	4	ROBOT	1200	n/a	n/a	0	0	0
734685	WORD	wordpools/wasnorm_wordpool_576.txt	LTP346	ltpFR2	10	4	SHELTER	1282	n/a	n/a	0	0	0
737316	WORD	wordpools/wasnorm_wordpool_576.txt	LTP346	ltpFR2	10	4	JELLO	754	n/a	n/a	0	0	0
740032	WORD	wordpools/wasnorm_wordpool_576.txt	LTP346	ltpFR2	10	4	TAXI	1438	n/a	n/a	0	0	0
742797	WORD	wordpools/wasnorm_wordpool_576.txt	LTP346	ltpFR2	10	4	TRACTOR	1493	n/a	n/a	0	0	0
745229	WORD	wordpools/wasnorm_wordpool_576.txt	LTP346	ltpFR2	10	4	DONKEY	484	n/a	n/a	0	0	0
747778	WORD	wordpools/wasnorm_wordpool_576.txt	LTP346	ltpFR2	10	4	TROMBONE	1508	n/a	n/a	0	0	0
750493	WORD	wordpools/wasnorm_wordpool_576.txt	LTP346	ltpFR2	10	4	RECORD	1176	n/a	n/a	0	0	0
752942	WORD	wordpools/wasnorm_wordpool_576.txt	LTP346	ltpFR2	10	4	DAUGHTER	442	n/a	n/a	0	0	0
755624	WORD	wordpools/wasnorm_wordpool_576.txt	LTP346	ltpFR2	10	4	SUITCASE	1403	n/a	n/a	0	0	0
758405	WORD	wordpools/wasnorm_wordpool_576.txt	LTP346	ltpFR2	10	4	GRILL	661	n/a	n/a	0	0	0
761187	WORD	wordpools/wasnorm_wordpool_576.txt	LTP346	ltpFR2	10	4	COTTAGE	384	n/a	n/a	0	0	0
763987	WORD	wordpools/wasnorm_wordpool_576.txt	LTP346	ltpFR2	10	4	XEROX	1628	n/a	n/a	0	0	0
766669	WORD	wordpools/wasnorm_wordpool_576.txt	LTP346	ltpFR2	10	4	GLASS	639	n/a	n/a	0	0	0
769450	WORD	wordpools/wasnorm_wordpool_576.txt	LTP346	ltpFR2	10	4	RACKET	1155	n/a	n/a	0	0	0
772232	WORD	wordpools/wasnorm_wordpool_576.txt	LTP346	ltpFR2	10	4	POSTAGE	1113	n/a	n/a	0	0	0
775031	WORD	wordpools/wasnorm_wordpool_576.txt	LTP346	ltpFR2	10	4	PLIERS	1089	n/a	n/a	0	0	0
777763	WORD	wordpools/wasnorm_wordpool_576.txt	LTP346	ltpFR2	10	4	CLAMP	316	n/a	n/a	0	0	0
780579	WORD	wordpools/wasnorm_wordpool_576.txt	LTP346	ltpFR2	10	4	BRICK	172	n/a	n/a	0	0	0
782194	START	n/a	LTP346	ltpFR2	10	n/a	n/a	n/a	6	n/a	n/a	n/a	n/a
783229	DISTRACTOR	n/a	LTP346	ltpFR2	10	4	n/a	n/a	n/a	n/a	0	0	0
783243	PROB	n/a	LTP346	ltpFR2	10	n/a	n/a	n/a	6	13	4	8	1
785010	PROB	n/a	LTP346	ltpFR2	10	n/a	n/a	n/a	6	6	1	1	4
786291	PROB	n/a	LTP346	ltpFR2	10	n/a	n/a	n/a	6	16	9	1	6
787992	PROB	n/a	LTP346	ltpFR2	10	n/a	n/a	n/a	6	12	1	9	2
789273	PROB	n/a	LTP346	ltpFR2	10	n/a	n/a	n/a	6	17	8	3	6
790840	PROB	n/a	LTP346	ltpFR2	10	n/a	n/a	n/a	6	18	4	6	8
792522	PROB	n/a	LTP346	ltpFR2	10	n/a	n/a	n/a	6	7	1	1	5
793655	PROB	n/a	LTP346	ltpFR2	10	n/a	n/a	n/a	6	17	7	4	6
795487	PROB	n/a	LTP346	ltpFR2	10	n/a	n/a	n/a	6	17	7	2	8
798435	PROB	n/a	LTP346	ltpFR2	10	n/a	n/a	n/a	6	22	9	5	8
800284	PROB	n/a	LTP346	ltpFR2	10	n/a	n/a	n/a	6	15	2	6	7
802601	PROB	n/a	LTP346	ltpFR2	10	n/a	n/a	n/a	6	9	3	5	1
804050	PROB	n/a	LTP346	ltpFR2	10	n/a	n/a	n/a	6	12	3	4	5
805715	STOP	n/a	LTP346	ltpFR2	10	n/a	n/a	n/a	6	n/a	n/a	n/a	n/a
807999	REC_START	n/a	LTP346	ltpFR2	10	4	n/a	n/a	n/a	n/a	0	0	0
808235	REC_WORD	wordpools/wasnorm_wordpool_576.txt	LTP346	ltpFR2	10	4	POSTAGE	1113	n/a	n/a	0	0	0
808930	REC_WORD	wordpools/wasnorm_wordpool_576.txt	LTP346	ltpFR2	10	4	PLIERS	1089	n/a	n/a	0	0	0
810074	REC_WORD	wordpools/wasnorm_wordpool_576.txt	LTP346	ltpFR2	10	4	CLAMP	316	n/a	n/a	0	0	0
810875	REC_WORD	wordpools/wasnorm_wordpool_576.txt	LTP346	ltpFR2	10	4	BRICK	172	n/a	n/a	0	0	0
812106	REC_WORD	wordpools/wasnorm_wordpool_576.txt	LTP346	ltpFR2	10	4	FRUIT	610	n/a	n/a	0	0	0
812885	REC_WORD	wordpools/wasnorm_wordpool_576.txt	LTP346	ltpFR2	10	4	PEACH	1031	n/a	n/a	0	0	0
816689	REC_WORD	wordpools/wasnorm_wordpool_576.txt	LTP346	ltpFR2	10	4	MACHINE	852	n/a	n/a	0	0	0
817379	REC_WORD	wordpools/wasnorm_wordpool_576.txt	LTP346	ltpFR2	10	4	ROBOT	1200	n/a	n/a	0	0	0
818022	REC_WORD	wordpools/wasnorm_wordpool_576.txt	LTP346	ltpFR2	10	4	TILE	1468	n/a	n/a	0	0	0
818539	REC_WORD	wordpools/wasnorm_wordpool_576.txt	LTP346	ltpFR2	10	4	PADDING	999	n/a	n/a	0	0	0
818987	REC_WORD	wordpools/wasnorm_wordpool_576.txt	LTP346	ltpFR2	10	4	SHELTER	1282	n/a	n/a	0	0	0
827108	REC_WORD	wordpools/wasnorm_wordpool_576.txt	LTP346	ltpFR2	10	4	DAUGHTER	442	n/a	n/a	0	0	0
828529	REC_WORD	wordpools/wasnorm_wordpool_576.txt	LTP346	ltpFR2	10	4	SUITCASE	1403	n/a	n/a	0	0	0
829510	REC_WORD	wordpools/wasnorm_wordpool_576.txt	LTP346	ltpFR2	10	4	GRILL	661	n/a	n/a	0	0	0
832620	REC_WORD	wordpools/wasnorm_wordpool_576.txt	LTP346	ltpFR2	10	4	COTTAGE	384	n/a	n/a	0	0	0
845205	REC_WORD	wordpools/wasnorm_wordpool_576.txt	LTP346	ltpFR2	10	4	XEROX	1628	n/a	n/a	0	0	0
847156	REC_WORD	wordpools/wasnorm_wordpool_576.txt	LTP346	ltpFR2	10	4	GLASS	639	n/a	n/a	0	0	0
848005	REC_WORD	wordpools/wasnorm_wordpool_576.txt	LTP346	ltpFR2	10	4	RACKET	1155	n/a	n/a	0	0	0
849003	REC_WORD	wordpools/wasnorm_wordpool_576.txt	LTP346	ltpFR2	10	4	POSTAGE	1113	n/a	n/a	0	0	0
898436	DISTRACTOR	n/a	LTP346	ltpFR2	10	5	n/a	n/a	n/a	n/a	0	0	0
898436	START	n/a	LTP346	ltpFR2	10	n/a	n/a	n/a	7	n/a	n/a	n/a	n/a
898452	PROB	n/a	LTP346	ltpFR2	10	n/a	n/a	n/a	7	23	8	6	9
900235	PROB	n/a	LTP346	ltpFR2	10	n/a	n/a	n/a	7	17	3	5	9
902250	PROB	n/a	LTP346	ltpFR2	10	n/a	n/a	n/a	7	11	6	4	1
903283	PROB	n/a	LTP346	ltpFR2	10	n/a	n/a	n/a	7	13	2	5	6
905099	PROB	n/a	LTP346	ltpFR2	10	n/a	n/a	n/a	7	11	4	1	6
906082	PROB	n/a	LTP346	ltpFR2	10	n/a	n/a	n/a	7	13	6	3	4
907765	PROB	n/a	LTP346	ltpFR2	10	n/a	n/a	n/a	7	12	7	3	2
908882	PROB	n/a	LTP346	ltpFR2	10	n/a	n/a	n/a	7	12	2	4	6
910197	PROB	n/a	LTP346	ltpFR2	10	n/a	n/a	n/a	7	14	2	9	3
912229	PROB	n/a	LTP346	ltpFR2	10	n/a	n/a	n/a	7	14	3	5	6
913862	PROB	n/a	LTP346	ltpFR2	10	n/a	n/a	n/a	7	22	9	4	8
915961	PROB	n/a	LTP346	ltpFR2	10	n/a	n/a	n/a	7	1	5	8	2
917827	PROB	n/a	LTP346	ltpFR2	10	n/a	n/a	n/a	7	13	3	6	4
920175	PROB	n/a	LTP346	ltpFR2	10	n/a	n/a	n/a	7	17	3	6	8
921707	STOP	n/a	LTP346	ltpFR2	10	n/a	n/a	n/a	7	n/a	n/a	n/a	n/a
923507	WORD	wordpools/wasnorm_wordpool_576.txt	LTP346	ltpFR2	10	5	COUNTRY	388	n/a	n/a	0	0	0
926155	WORD	wordpools/wasnorm_wordpool_576.txt	LTP346	ltpFR2	10	5	PROTON	1132	n/a	n/a	0	0	0
928772	WORD	wordpools/wasnorm_wordpool_576.txt	LTP346	ltpFR2	10	5	ATLAS	53	n/a	n/a	0	0	0
931503	WORD	wordpools/wasnorm_wordpool_576.txt	LTP346	ltpFR2	10	5	PORTRAIT	1111	n/a	n/a	0	0	0
934285	WORD	wordpools/wasnorm_wordpool_576.txt	LTP346	ltpFR2	10	5	FRAME	600	n/a	n/a	0	0	0
936934	WORD	wordpools/wasnorm_wordpool_576.txt	LTP346	ltpFR2	10	5	GLOBE	641	n/a	n/a	0	0	0
939600	WORD	wordpools/wasnorm_wordpool_576.txt	LTP346	ltpFR2	10	5	WORLD	1622	n/a	n/a	0	0	0
942281	WORD	wordpools/wasnorm_wordpool_576.txt	LTP346	ltpFR2	10	5	GAZELLE	628	n/a	n/a	0	0	0
944980	WORD	wordpools/wasnorm_wordpool_576.txt	LTP346	ltpFR2	10	5	GRIZZLY	662	n/a	n/a	0	0	0
947646	WORD	wordpools/wasnorm_wordpool_576.txt	LTP346	ltpFR2	10	5	SALAD	1224	n/a	n/a	0	0	0
950460	WORD	wordpools/wasnorm_wordpool_576.txt	LTP346	ltpFR2	10	5	JAPAN	749	n/a	n/a	0	0	0
953076	WORD	wordpools/wasnorm_wordpool_576.txt	LTP346	ltpFR2	10	5	BOX	159	n/a	n/a	0	0	0
955708	WORD	wordpools/wasnorm_wordpool_576.txt	LTP346	ltpFR2	10	5	GIFT	635	n/a	n/a	0	0	0
958273	WORD	wordpools/wasnorm_wordpool_576.txt	LTP346	ltpFR2	10	5	LUNCH	849	n/a	n/a	0	0	0
960922	WORD	wordpools/wasnorm_wordpool_576.txt	LTP346	ltpFR2	10	5	MISTER	901	n/a	n/a	0	0	0
963503	WORD	wordpools/wasnorm_wordpool_576.txt	LTP346	ltpFR2	10	5	OX	994	n/a	n/a	0	0	0
966302	WORD	wordpools/wasnorm_wordpool_576.txt	LTP346	ltpFR2	10	5	RABBIT	1152	n/a	n/a	0	0	0
969068	WORD	wordpools/wasnorm_wordpool_576.txt	LTP346	ltpFR2	10	5	COUNTY	389	n/a	n/a	0	0	0
971684	WORD	wordpools/wasnorm_wordpool_576.txt	LTP346	ltpFR2	10	5	SPOUSE	1358	n/a	n/a	0	0	0
974365	WORD	wordpools/wasnorm_wordpool_576.txt	LTP346	ltpFR2	10	5	RECEIPT	1173	n/a	n/a	0	0	0
976798	WORD	wordpools/wasnorm_wordpool_576.txt	LTP346	ltpFR2	10	5	FREEZER	604	n/a	n/a	0	0	0
979296	WORD	wordpools/wasnorm_wordpool_576.txt	LTP346	ltpFR2	10	5	SNACK	1331	n/a	n/a	0	0	0
982045	WORD	wordpools/wasnorm_wordpool_576.txt	LTP346	ltpFR2	10	5	PAPER	1011	n/a	n/a	0	0	0
984526	WORD	wordpools/wasnorm_wordpool_576.txt	LTP346	ltpFR2	10	5	FOOT	590	n/a	n/a	0	0	0
986142	START	n/a	LTP346	ltpFR2	10	n/a	n/a	n/a	8	n/a	n/a	n/a	n/a
987198	DISTRACTOR	n/a	LTP346	ltpFR2	10	5	n/a	n/a	n/a	n/a	0	0	0
987208	PROB	n/a	LTP346	ltpFR2	10	n/a	n/a	n/a	8	7	2	4	1
989307	PROB	n/a	LTP346	ltpFR2	10	n/a	n/a	n/a	8	12	5	4	3
990907	PROB	n/a	LTP346	ltpFR2	10	n/a	n/a	n/a	8	14	3	3	8
992156	PROB	n/a	LTP346	ltpFR2	10	n/a	n/a	n/a	8	14	4	2	8
993472	PROB	n/a	LTP346	ltpFR2	10	n/a	n/a	n/a	8	15	4	4	7
995121	PROB	n/a	LTP346	ltpFR2	10	n/a	n/a	n/a	8	19	4	7	8
996955	PROB	n/a	LTP346	ltpFR2	10	n/a	n/a	n/a	8	18	6	6	6
998153	PROB	n/a	LTP346	ltpFR2	10	n/a	n/a	n/a	8	16	6	2	8
999637	PROB	n/a	LTP346	ltpFR2	10	n/a	n/a	n/a	8	16	9	4	3
1001101	PROB	n/a	LTP346	ltpFR2	10	n/a	n/a	n/a	8	11	1	7	3
1002168	PROB	n/a	LTP346	ltpFR2	10	n/a	n/a	n/a	8	19	2	9	8
1003585	PROB	n/a	LTP346	ltpFR2	10	n/a	n/a	n/a	8	23	8	9	6
1004967	PROB	n/a	LTP346	ltpFR2	10	n/a	n/a	n/a	8	14	4	4	6
1006249	PROB	n/a	LTP346	ltpFR2	10	n/a	n/a	n/a	8	11	7	3	1
1007315	PROB	n/a	LTP346	ltpFR2	10	n/a	n/a	n/a	8	10	4	4	2
1008548	PROB	n/a	LTP346	ltpFR2	10	n/a	n/a	n/a	8	6	1	2	3
1009699	STOP	n/a	LTP346	ltpFR2	10	n/a	n/a	n/a	8	n/a	n/a	n/a	n/a
1012014	REC_START	n/a	LTP346	ltpFR2	10	5	n/a	n/a	n/a	n/a	0	0	0
1012430	REC_WORD	wordpools/wasnorm_wordpool_576.txt	LTP346	ltpFR2	10	5	FOOT	590	n/a	n/a	0	0	0
1015634	REC_WORD	wordpools/wasnorm_wordpool_576.txt	LTP346	ltpFR2	10	5	COUNTY	389	n/a	n/a	0	0	0
1016432	REC_WORD	wordpools/wasnorm_wordpool_576.txt	LTP346	ltpFR2	10	5	COUNTRY	388	n/a	n/a	0	0	0
1017444	REC_WORD	wordpools/wasnorm_wordpool_576.txt	LTP346	ltpFR2	10	5	ATLAS	53	n/a	n/a	0	0	0
1018700	REC_WORD	wordpools/wasnorm_wordpool_576.txt	LTP346	ltpFR2	10	5	WORLD	1622	n/a	n/a	0	0	0
1019483	REC_WORD	wordpools/wasnorm_wordpool_576.txt	LTP346	ltpFR2	10	5	GLOBE	641	n/a	n/a	0	0	0
1021996	REC_WORD	wordpools/wasnorm_wordpool_576.txt	LTP346	ltpFR2	10	5	PROTON	1132	n/a	n/a	0	0	0
1024953	REC_WORD	wordpools/wasnorm_wordpool_576.txt	LTP346	ltpFR2	10	5	SALAD	1224	n/a	n/a	0	0	0
1025793	REC_WORD	wordpools/wasnorm_wordpool_576.txt	LTP346	ltpFR2	10	5	LUNCH	849	n/a	n/a	0	0	0
1028854	REC_WORD	wordpools/wasnorm_wordpool_576.txt	LTP346	ltpFR2	10	5	MISTER	901	n/a	n/a	0	0	0
1029625	REC_WORD	wordpools/wasnorm_wordpool_576.txt	LTP346	ltpFR2	10	5	OX	994	n/a	n/a	0	0	0
1030823	REC_WORD	wordpools/wasnorm_wordpool_576.txt	LTP346	ltpFR2	10	5	RABBIT	1152	n/a	n/a	0	0	0
1033076	REC_WORD	wordpools/wasnorm_wordpool_576.txt	LTP346	ltpFR2	10	5	GRIZZLY	662	n/a	n/a	0	0	0
1033826	REC_WORD	wordpools/wasnorm_wordpool_576.txt	LTP346	ltpFR2	10	5	GAZELLE	628	n/a	n/a	0	0	0
1035683	REC_WORD	wordpools/wasnorm_wordpool_576.txt	LTP346	ltpFR2	10	5	PORTRAIT	1111	n/a	n/a	0	0	0
1036351	REC_WORD	wordpools/wasnorm_wordpool_576.txt	LTP346	ltpFR2	10	5	FRAME	600	n/a	n/a	0	0	0
1041376	REC_WORD	wordpools/wasnorm_wordpool_576.txt	LTP346	ltpFR2	10	5	SPOUSE	1358	n/a	n/a	0	0	0
1042058	REC_WORD	wordpools/wasnorm_wordpool_576.txt	LTP346	ltpFR2	10	5	RECEIPT	1173	n/a	n/a	0	0	0
1042975	REC_WORD	wordpools/wasnorm_wordpool_576.txt	LTP346	ltpFR2	10	5	FREEZER	604	n/a	n/a	0	0	0
1050545	REC_WORD	wordpools/wasnorm_wordpool_576.txt	LTP346	ltpFR2	10	5	SNACK	1331	n/a	n/a	0	0	0
1052775	REC_WORD	wordpools/wasnorm_wordpool_576.txt	LTP346	ltpFR2	10	5	PAPER	1011	n/a	n/a	0	0	0
1102468	WORD	wordpools/wasnorm_wordpool_576.txt	LTP346	ltpFR2	10	6	SERVANT	1271	n/a	n/a	0	0	0
1105001	WORD	wordpools/wasnorm_wordpool_576.txt	LTP346	ltpFR2	10	6	LIPSTICK	829	n/a	n/a	0	0	0
1107766	WORD	wordpools/wasnorm_wordpool_576.txt	LTP346	ltpFR2	10	6	YACHT	1629	n/a	n/a	0	0	0
1110197	WORD	wordpools/wasnorm_wordpool_576.txt	LTP346	ltpFR2	10	6	COMET	353	n/a	n/a	0	0	0
1112730	WORD	wordpools/wasnorm_wordpool_576.txt	LTP346	ltpFR2	10	6	SNAKE	1333	n/a	n/a	0	0	0
1115411	WORD	wordpools/wasnorm_wordpool_576.txt	LTP346	ltpFR2	10	6	STAKE	1368	n/a	n/a	0	0	0
1118061	WORD	wordpools/wasnorm_wordpool_576.txt	LTP346	ltpFR2	10	6	SEAL	1262	n/a	n/a	0	0	0
1120542	WORD	wordpools/wasnorm_wordpool_576.txt	LTP346	ltpFR2	10	6	MEAT	883	n/a	n/a	0	0	0
1123357	WORD	wordpools/wasnorm_wordpool_576.txt	LTP346	ltpFR2	10	6	JELLY	755	n/a	n/a	0	0	0
1126040	WORD	wordpools/wasnorm_wordpool_576.txt	LTP346	ltpFR2	10	6	PRINCESS	1125	n/a	n/a	0	0	0
1128505	WORD	wordpools/wasnorm_wordpool_576.txt	LTP346	ltpFR2	10	6	JEANS	752	n/a	n/a	0	0	0
1130971	WORD	wordpools/wasnorm_wordpool_576.txt	LTP346	ltpFR2	10	6	COOKBOOK	373	n/a	n/a	0	0	0
1133703	WORD	wordpools/wasnorm_wordpool_576.txt	LTP346	ltpFR2	10	6	TUBA	1515	n/a	n/a	0	0	0
1136368	WORD	wordpools/wasnorm_wordpool_576.txt	LTP346	ltpFR2	10	6	WHISTLE	1606	n/a	n/a	0	0	0
1139034	WORD	wordpools/wasnorm_wordpool_576.txt	LTP346	ltpFR2	10	6	OUTDOORS	987	n/a	n/a	0	0	0
1141749	WORD	wordpools/wasnorm_wordpool_576.txt	LTP346	ltpFR2	10	6	THRONE	1461	n/a	n/a	0	0	0
1144464	WORD	wordpools/wasnorm_wordpool_576.txt	LTP346	ltpFR2	10	6	QUEEN	1149	n/a	n/a	0	0	0
1146980	WORD	wordpools/wasnorm_wordpool_576.txt	LTP346	ltpFR2	10	6	CASKET	255	n/a	n/a	0	0	0
1149478	WORD	wordpools/wasnorm_wordpool_576.txt	LTP346	ltpFR2	10	6	SKIRT	1319	n/a	n/a	0	0	0
1152126	WORD	wordpools/wasnorm_wordpool_576.txt	LTP346	ltpFR2	10	6	NECKLACE	940	n/a	n/a	0	0	0
1154826	WORD	wordpools/wasnorm_wordpool_576.txt	LTP346	ltpFR2	10	6	MEDAL	885	n/a	n/a	0	0	0
1157424	WORD	wordpools/wasnorm_wordpool_576.txt	LTP346	ltpFR2	10	6	STAMP	1370	n/a	n/a	0	0	0
1160239	WORD	wordpools/wasnorm_wordpool_576.txt	LTP346	ltpFR2	10	6	ROCKET	1202	n/a	n/a	0	0	0
1162905	WORD	wordpools/wasnorm_wordpool_576.txt	LTP346	ltpFR2	10	6	BUTCHER	203	n/a	n/a	0	0	0
1164521	START	n/a	LTP346	ltpFR2	10	n/a	n/a	n/a	9	n/a	n/a	n/a	n/a
1165367	DISTRACTOR	n/a	LTP346	ltpFR2	10	6	n/a	n/a	n/a	n/a	0	0	0
1165370	PROB	n/a	LTP346	ltpFR2	10	n/a	n/a	n/a	9	24	7	8	9
1166987	PROB	n/a	LTP346	ltpFR2	10	n/a	n/a	n/a	9	19	5	9	5
1168603	PROB	n/a	LTP346	ltpFR2	10	n/a	n/a	n/a	9	25	8	9	8
1172651	PROB	n/a	LTP346	ltpFR2	10	n/a	n/a	n/a	9	9	3	4	2
1174149	PROB	n/a	LTP346	ltpFR2	10	n/a	n/a	n/a	9	18	8	3	7
1175632	PROB	n/a	LTP346	ltpFR2	10	n/a	n/a	n/a	9	17	7	1	9
1177314	PROB	n/a	LTP346	ltpFR2	10	n/a	n/a	n/a	9	24	5	9	9
1179047	PROB	n/a	LTP346	ltpFR2	10	n/a	n/a	n/a	9	15	4	2	9
1181562	PROB	n/a	LTP346	ltpFR2	10	n/a	n/a	n/a	9	7	2	3	2
1183211	PROB	n/a	LTP346	ltpFR2	10	n/a	n/a	n/a	9	17	7	6	4
1185110	PROB	n/a	LTP346	ltpFR2	10	n/a	n/a	n/a	9	16	3	4	9
1186810	PROB	n/a	LTP346	ltpFR2	10	n/a	n/a	n/a	9	10	2	5	3
1188370	STOP	n/a	LTP346	ltpFR2	10	n/a	n/a	n/a	9	n/a	n/a	n/a	n/a
1190275	REC_START	n/a	LTP346	ltpFR2	10	6	n/a	n/a	n/a	n/a	0	0	0
1190402	REC_WORD	wordpools/wasnorm_wordpool_576.txt	LTP346	ltpFR2	10	6	STAMP	1370	n/a	n/a	0	0	0
1191223	REC_WORD	wordpools/wasnorm_wordpool_576.txt	LTP346	ltpFR2	10	6	ROCKET	1202	n/a	n/a	0	0	0
1191943	REC_WORD	wordpools/wasnorm_wordpool_576.txt	LTP346	ltpFR2	10	6	BUTCHER	203	n/a	n/a	0	0	0
1196603	REC_WORD	wordpools/wasnorm_wordpool_576.txt	LTP346	ltpFR2	10	6	SERVANT	1271	n/a	n/a	0	0	0
1197185	REC_WORD	wordpools/wasnorm_wordpool_576.txt	LTP346	ltpFR2	10	6	LIPSTICK	829	n/a	n/a	0	0	0
1197899	REC_WORD	wordpools/wasnorm_wordpool_576.txt	LTP346	ltpFR2	10	6	YACHT	1629	n/a	n/a	0	0	0
1198675	REC_WORD	wordpools/wasnorm_wordpool_576.txt	LTP346	ltpFR2	10	6	COMET	353	n/a	n/a	0	0	0
1199128	REC_WORD	wordpools/wasnorm_wordpool_576.txt	LTP346	ltpFR2	10	6	SNAKE	1333	n/a	n/a	0	0	0
1203559	REC_WORD	wordpools/wasnorm_wordpool_576.txt	LTP346	ltpFR2	10	6	SEAL	1262	n/a	n/a	0	0	0
1204527	REC_WORD	wordpools/wasnorm_wordpool_576.txt	LTP346	ltpFR2	10	6	STAKE	1368	n/a	n/a	0	0	0
1205363	REC_WORD	wordpools/wasnorm_wordpool_576.txt	LTP346	ltpFR2	10	6	MEAT	883	n/a	n/a	0	0	0
1210132	REC_WORD	wordpools/wasnorm_wordpool_576.txt	LTP346	ltpFR2	10	6	PRINCESS	1125	n/a	n/a	0	0	0
1214525	REC_WORD	wordpools/wasnorm_wordpool_576.txt	LTP346	ltpFR2	10	6	QUEEN	1149	n/a	n/a	0	0	0
1215055	REC_WORD	wordpools/wasnorm_wordpool_576.txt	LTP346	ltpFR2	10	6	THRONE	1461	n/a	n/a	0	0	0
1219230	REC_WORD	wordpools/wasnorm_wordpool_576.txt	LTP346	ltpFR2	10	6	JELLY	755	n/a	n/a	0	0	0
1219975	REC_WORD	wordpools/wasnorm_wordpool_576.txt	LTP346	ltpFR2	10	6	COOKBOOK	373	n/a	n/a	0	0	0
1223418	REC_WORD	wordpools/wasnorm_wordpool_576.txt	LTP346	ltpFR2	10	6	CASKET	255	n/a	n/a	0	0	0
1224027	REC_WORD	wordpools/wasnorm_wordpool_576.txt	LTP346	ltpFR2	10	6	NECKLACE	940	n/a	n/a	0	0	0
1224701	REC_WORD	wordpools/wasnorm_wordpool_576.txt	LTP346	ltpFR2	10	6	SKIRT	1319	n/a	n/a	0	0	0
1249484	REC_WORD	wordpools/wasnorm_wordpool_576.txt	LTP346	ltpFR2	10	6	TUBA	1515	n/a	n/a	0	0	0
1249996	REC_WORD	wordpools/wasnorm_wordpool_576.txt	LTP346	ltpFR2	10	6	WHISTLE	1606	n/a	n/a	0	0	0
1251331	REC_WORD	wordpools/wasnorm_wordpool_576.txt	LTP346	ltpFR2	10	6	OUTDOORS	987	n/a	n/a	0	0	0
1280730	DISTRACTOR	n/a	LTP346	ltpFR2	10	7	n/a	n/a	n/a	n/a	0	0	0
1280730	START	n/a	LTP346	ltpFR2	10	n/a	n/a	n/a	10	n/a	n/a	n/a	n/a
1280747	PROB	n/a	LTP346	ltpFR2	10	n/a	n/a	n/a	10	17	5	4	8
1282713	PROB	n/a	LTP346	ltpFR2	10	n/a	n/a	n/a	10	22	7	6	9
1285444	PROB	n/a	LTP346	ltpFR2	10	n/a	n/a	n/a	10	16	6	1	9
1287644	PROB	n/a	LTP346	ltpFR2	10	n/a	n/a	n/a	10	14	8	3	3
1289842	PROB	n/a	LTP346	ltpFR2	10	n/a	n/a	n/a	10	10	6	2	2
1291108	PROB	n/a	LTP346	ltpFR2	10	n/a	n/a	n/a	10	12	7	3	2
1292224	PROB	n/a	LTP346	ltpFR2	10	n/a	n/a	n/a	10	17	9	5	3
1293974	PROB	n/a	LTP346	ltpFR2	10	n/a	n/a	n/a	10	17	8	2	7
1295355	PROB	n/a	LTP346	ltpFR2	10	n/a	n/a	n/a	10	15	2	4	9
1296906	PROB	n/a	LTP346	ltpFR2	10	n/a	n/a	n/a	10	22	8	8	6
1298204	PROB	n/a	LTP346	ltpFR2	10	n/a	n/a	n/a	10	19	6	5	7
1300820	PROB	n/a	LTP346	ltpFR2	10	n/a	n/a	n/a	10	13	2	6	5
1302753	PROB	n/a	LTP346	ltpFR2	10	n/a	n/a	n/a	10	12	3	6	3
1304651	STOP	n/a	LTP346	ltpFR2	10	n/a	n/a	n/a	10	n/a	n/a	n/a	n/a
1305768	WORD	wordpools/wasnorm_wordpool_576.txt	LTP346	ltpFR2	10	7	BATHTUB	100	n/a	n/a	0	0	0
1308532	WORD	wordpools/wasnorm_wordpool_576.txt	LTP346	ltpFR2	10	7	SMOG	1330	n/a	n/a	0	0	0
1311181	WORD	wordpools/wasnorm_wordpool_576.txt	LTP346	ltpFR2	10	7	VALLEY	1545	n/a	n/a	0	0	0
1313714	WORD	wordpools/wasnorm_wordpool_576.txt	LTP346	ltpFR2	10	7	BUCKET	184	n/a	n/a	0	0	0
1316445	WORD	wordpools/wasnorm_wordpool_576.txt	LTP346	ltpFR2	10	7	CHAMPAGNE	278	n/a	n/a	0	0	0
1319078	WORD	wordpools/wasnorm_wordpool_576.txt	LTP346	ltpFR2	10	7	LIZARD	834	n/a	n/a	0	0	0
1321526	WORD	wordpools/wasnorm_wordpool_576.txt	LTP346	ltpFR2	10	7	MOTEL	919	n/a	n/a	0	0	0
1324158	WORD	wordpools/wasnorm_wordpool_576.txt	LTP346	ltpFR2	10	7	WRIST	1626	n/a	n/a	0	0	0
1326674	WORD	wordpools/wasnorm_wordpool_576.txt	LTP346	ltpFR2	10	7	MONEY	908	n/a	n/a	0	0	0
1329205	WORD	wordpools/wasnorm_wordpool_576.txt	LTP346	ltpFR2	10	7	HANDBAG	684	n/a	n/a	0	0	0
1331688	WORD	wordpools/wasnorm_wordpool_576.txt	LTP346	ltpFR2	10	7	GLOVE	642	n/a	n/a	0	0	0
1334253	WORD	wordpools/wasnorm_wordpool_576.txt	LTP346	ltpFR2	10	7	FINGER	567	n/a	n/a	0	0	0
1337002	WORD	wordpools/wasnorm_wordpool_576.txt	LTP346	ltpFR2	10	7	HELMET	702	n/a	n/a	0	0	0
1339550	WORD	wordpools/wasnorm_wordpool_576.txt	LTP346	ltpFR2	10	7	PREACHER	1119	n/a	n/a	0	0	0
1342115	WORD	wordpools/wasnorm_wordpool_576.txt	LTP346	ltpFR2	10	7	CROSS	413	n/a	n/a	0	0	0
1344849	WORD	wordpools/wasnorm_wordpool_576.txt	LTP346	ltpFR2	10	7	RAFT	1159	n/a	n/a	0	0	0
1347513	WORD	wordpools/wasnorm_wordpool_576.txt	LTP346	ltpFR2	10	7	DUSTPAN	509	n/a	n/a	0	0	0
1350145	WORD	wordpools/wasnorm_wordpool_576.txt	LTP346	ltpFR2	10	7	HUSBAND	728	n/a	n/a	0	0	0
1352695	WORD	wordpools/wasnorm_wordpool_576.txt	LTP346	ltpFR2	10	7	TORTOISE	1486	n/a	n/a	0	0	0
1355176	WORD	wordpools/wasnorm_wordpool_576.txt	LTP346	ltpFR2	10	7	CARROT	249	n/a	n/a	0	0	0
1357609	WORD	wordpools/wasnorm_wordpool_576.txt	LTP346	ltpFR2	10	7	HAND	683	n/a	n/a	0	0	0
1360290	WORD	wordpools/wasnorm_wordpool_576.txt	LTP346	ltpFR2	10	7	SOFTBALL	1343	n/a	n/a	0	0	0
1362840	WORD	wordpools/wasnorm_wordpool_576.txt	LTP346	ltpFR2	10	7	BELLY	119	n/a	n/a	0	0	0
1365504	WORD	wordpools/wasnorm_wordpool_576.txt	LTP346	ltpFR2	10	7	TWISTER	1530	n/a	n/a	0	0	0
1367120	START	n/a	LTP346	ltpFR2	10	n/a	n/a	n/a	11	n/a	n/a	n/a	n/a
1368181	DISTRACTOR	n/a	LTP346	ltpFR2	10	7	n/a	n/a	n/a	n/a	0	0	0
1368186	PROB	n/a	LTP346	ltpFR2	10	n/a	n/a	n/a	11	18	5	7	6
1371351	PROB	n/a	LTP346	ltpFR2	10	n/a	n/a	n/a	11	11	1	4	6
1372751	PROB	n/a	LTP346	ltpFR2	10	n/a	n/a	n/a	11	11	1	2	8
1375600	PROB	n/a	LTP346	ltpFR2	10	n/a	n/a	n/a	11	15	1	6	8
1378431	PROB	n/a	LTP346	ltpFR2	10	n/a	n/a	n/a	11	8	5	2	1
1379731	PROB	n/a	LTP346	ltpFR2	10	n/a	n/a	n/a	11	12	2	5	5
1380831	PROB	n/a	LTP346	ltpFR2	10	n/a	n/a	n/a	11	17	2	9	6
1382212	PROB	n/a	LTP346	ltpFR2	10	n/a	n/a	n/a	11	15	6	6	9
1384062	PROB	n/a	LTP346	ltpFR2	10	n/a	n/a	n/a	11	10	3	6	1
1386944	PROB	n/a	LTP346	ltpFR2	10	n/a	n/a	n/a	11	14	8	3	3
1389542	PROB	n/a	LTP346	ltpFR2	10	n/a	n/a	n/a	11	18	4	6	8
1390907	STOP	n/a	LTP346	ltpFR2	10	n/a	n/a	n/a	11	n/a	n/a	n/a	n/a
1392975	REC_START	n/a	LTP346	ltpFR2	10	7	n/a	n/a	n/a	n/a	0	0	0
1393231	REC_WORD	wordpools/wasnorm_wordpool_576.txt	LTP346	ltpFR2	10	7	SOFTBALL	1343	n/a	n/a	0	0	0
1394195	REC_WORD	wordpools/wasnorm_wordpool_576.txt	LTP346	ltpFR2	10	7	TWISTER	1530	n/a	n/a	0	0	0
1394726	REC_WORD	wordpools/wasnorm_wordpool_576.txt	LTP346	ltpFR2	10	7	STOMACH	1384	n/a	n/a	0	0	0
1400013	REC_WORD	wordpools/wasnorm_wordpool_576.txt	LTP346	ltpFR2	10	7	BATHTUB	100	n/a	n/a	0	0	0
1400745	REC_WORD	wordpools/wasnorm_wordpool_576.txt	LTP346	ltpFR2	10	7	BUCKET	184	n/a	n/a	0	0	0
1401540	REC_WORD	wordpools/wasnorm_wordpool_576.txt	LTP346	ltpFR2	10	7	SMOG	1330	n/a	n/a	0	0	0
1403782	REC_WORD	wordpools/wasnorm_wordpool_576.txt	LTP346	ltpFR2	10	7	VALLEY	1545	n/a	n/a	0	0	0
1407466	REC_WORD	wordpools/wasnorm_wordpool_576.txt	LTP346	ltpFR2	10	7	LIZARD	834	n/a	n/a	0	0	0
1408173	REC_WORD	wordpools/wasnorm_wordpool_576.txt	LTP346	ltpFR2	10	7	WRIST	1626	n/a	n/a	0	0	0
1408765	REC_WORD	wordpools/wasnorm_wordpool_576.txt	LTP346	ltpFR2	10	7	MOTEL	919	n/a	n/a	0	0	0
1410348	REC_WORD	wordpools/wasnorm_wordpool_576.txt	LTP346	ltpFR2	10	7	MONEY	908	n/a	n/a	0	0	0
1411177	REC_WORD	wordpools/wasnorm_wordpool_576.txt	LTP346	ltpFR2	10	7	HANDBAG	684	n/a	n/a	0	0	0
1412873	REC_WORD	wordpools/wasnorm_wordpool_576.txt	LTP346	ltpFR2	10	7	GLOVE	642	n/a	n/a	0	0	0
1414119	REC_WORD	wordpools/wasnorm_wordpool_576.txt	LTP346	ltpFR2	10	7	FINGER	567	n/a	n/a	0	0	0
1421007	REC_WORD	wordpools/wasnorm_wordpool_576.txt	LTP346	ltpFR2	10	7	HUSBAND	728	n/a	n/a	0	0	0
1421775	REC_WORD	wordpools/wasnorm_wordpool_576.txt	LTP346	ltpFR2	10	7	DUSTPAN	509	n/a	n/a	0	0	0
1424408	REC_WORD	wordpools/wasnorm_wordpool_576.txt	LTP346	ltpFR2	10	7	HUSBAND	728	n/a	n/a	0	0	0
1424782	REC_WORD	wordpools/wasnorm_wordpool_576.txt	LTP346	ltpFR2	10	7	DUSTPAN	509	n/a	n/a	0	0	0
1427077	REC_WORD	wordpools/wasnorm_wordpool_576.txt	LTP346	ltpFR2	10	7	RAFT	1159	n/a	n/a	0	0	0
1428765	REC_WORD	wordpools/wasnorm_wordpool_576.txt	LTP346	ltpFR2	10	7	HAND	683	n/a	n/a	0	0	0
1430254	REC_WORD	wordpools/wasnorm_wordpool_576.txt	LTP346	ltpFR2	10	7	TORTOISE	1486	n/a	n/a	0	0	0
1431686	REC_WORD	wordpools/wasnorm_wordpool_576.txt	LTP346	ltpFR2	10	7	CARROT	249	n/a	n/a	0	0	0
1434762	REC_WORD	wordpools/wasnorm_wordpool_576.txt	LTP346	ltpFR2	10	7	PREACHER	1119	n/a	n/a	0	0	0
1435880	REC_WORD	wordpools/wasnorm_wordpool_576.txt	LTP346	ltpFR2	10	7	CROSS	413	n/a	n/a	0	0	0
1436785	REC_WORD	wordpools/wasnorm_wordpool_576.txt	LTP346	ltpFR2	10	7	HELMET	702	n/a	n/a	0	0	0
1483429	WORD	wordpools/wasnorm_wordpool_576.txt	LTP346	ltpFR2	10	8	BANQUET	86	n/a	n/a	0	0	0
1485962	WORD	wordpools/wasnorm_wordpool_576.txt	LTP346	ltpFR2	10	8	CITRUS	313	n/a	n/a	0	0	0
1488677	WORD	wordpools/wasnorm_wordpool_576.txt	LTP346	ltpFR2	10	8	AUTHOR	61	n/a	n/a	0	0	0
1491375	WORD	wordpools/wasnorm_wordpool_576.txt	LTP346	ltpFR2	10	8	BRACES	164	n/a	n/a	0	0	0
1493958	WORD	wordpools/wasnorm_wordpool_576.txt	LTP346	ltpFR2	10	8	DENTIST	447	n/a	n/a	0	0	0
1496723	WORD	wordpools/wasnorm_wordpool_576.txt	LTP346	ltpFR2	10	8	SHORTCAKE	1292	n/a	n/a	0	0	0
1499237	WORD	wordpools/wasnorm_wordpool_576.txt	LTP346	ltpFR2	10	8	PLASTER	1085	n/a	n/a	0	0	0
1502020	WORD	wordpools/wasnorm_wordpool_576.txt	LTP346	ltpFR2	10	8	PAIL	1002	n/a	n/a	0	0	0
1504836	WORD	wordpools/wasnorm_wordpool_576.txt	LTP346	ltpFR2	10	8	VAGRANT	1544	n/a	n/a	0	0	0
1507517	WORD	wordpools/wasnorm_wordpool_576.txt	LTP346	ltpFR2	10	8	TURNIP	1521	n/a	n/a	0	0	0
1510299	WORD	wordpools/wasnorm_wordpool_576.txt	LTP346	ltpFR2	10	8	RADISH	1158	n/a	n/a	0	0	0
1512748	WORD	wordpools/wasnorm_wordpool_576.txt	LTP346	ltpFR2	10	8	DRILL	497	n/a	n/a	0	0	0
1515429	WORD	wordpools/wasnorm_wordpool_576.txt	LTP346	ltpFR2	10	8	FRECKLE	602	n/a	n/a	0	0	0
1517979	WORD	wordpools/wasnorm_wordpool_576.txt	LTP346	ltpFR2	10	8	FRAGRANCE	599	n/a	n/a	0	0	0
1520544	WORD	wordpools/wasnorm_wordpool_576.txt	LTP346	ltpFR2	10	8	SAUSAGE	1238	n/a	n/a	0	0	0
1523342	WORD	wordpools/wasnorm_wordpool_576.txt	LTP346	ltpFR2	10	8	DINER	467	n/a	n/a	0	0	0
1526107	WORD	wordpools/wasnorm_wordpool_576.txt	LTP346	ltpFR2	10	8	BLOUSE	139	n/a	n/a	0	0	0
1528924	WORD	wordpools/wasnorm_wordpool_576.txt	LTP346	ltpFR2	10	8	SCRIBBLE	1256	n/a	n/a	0	0	0
1531388	WORD	wordpools/wasnorm_wordpool_576.txt	LTP346	ltpFR2	10	8	SEAGULL	1261	n/a	n/a	0	0	0
1533905	WORD	wordpools/wasnorm_wordpool_576.txt	LTP346	ltpFR2	10	8	SCARECROW	1245	n/a	n/a	0	0	0
1536703	WORD	wordpools/wasnorm_wordpool_576.txt	LTP346	ltpFR2	10	8	BROOK	177	n/a	n/a	0	0	0
1539201	WORD	wordpools/wasnorm_wordpool_576.txt	LTP346	ltpFR2	10	8	STUDENT	1395	n/a	n/a	0	0	0
1542017	WORD	wordpools/wasnorm_wordpool_576.txt	LTP346	ltpFR2	10	8	WIDOW	1608	n/a	n/a	0	0	0
1544649	WORD	wordpools/wasnorm_wordpool_576.txt	LTP346	ltpFR2	10	8	SCISSORS	1250	n/a	n/a	0	0	0
1546264	START	n/a	LTP346	ltpFR2	10	n/a	n/a	n/a	12	n/a	n/a	n/a	n/a
1547085	DISTRACTOR	n/a	LTP346	ltpFR2	10	8	n/a	n/a	n/a	n/a	0	0	0
1547097	PROB	n/a	LTP346	ltpFR2	10	n/a	n/a	n/a	12	21	8	4	9
1549496	PROB	n/a	LTP346	ltpFR2	10	n/a	n/a	n/a	12	12	2	3	7
1550680	PROB	n/a	LTP346	ltpFR2	10	n/a	n/a	n/a	12	16	4	3	9
1552561	PROB	n/a	LTP346	ltpFR2	10	n/a	n/a	n/a	12	16	4	8	4
1554194	PROB	n/a	LTP346	ltpFR2	10	n/a	n/a	n/a	12	2	8	9	9
1557909	PROB	n/a	LTP346	ltpFR2	10	n/a	n/a	n/a	12	18	9	4	5
1562007	PROB	n/a	LTP346	ltpFR2	10	n/a	n/a	n/a	12	9	2	2	5
1563773	PROB	n/a	LTP346	ltpFR2	10	n/a	n/a	n/a	12	19	7	6	6
1566022	PROB	n/a	LTP346	ltpFR2	10	n/a	n/a	n/a	12	12	1	3	8
1567420	PROB	n/a	LTP346	ltpFR2	10	n/a	n/a	n/a	12	15	7	5	3
1570264	STOP	n/a	LTP346	ltpFR2	10	n/a	n/a	n/a	12	n/a	n/a	n/a	n/a
1572202	REC_START	n/a	LTP346	ltpFR2	10	8	n/a	n/a	n/a	n/a	0	0	0
1572202	REC_WORD	wordpools/wasnorm_wordpool_576.txt	LTP346	ltpFR2	10	8	STUDENT	1395	n/a	n/a	0	0	0
1572919	REC_WORD	wordpools/wasnorm_wordpool_576.txt	LTP346	ltpFR2	10	8	WIDOW	1608	n/a	n/a	0	0	0
1573367	REC_WORD	wordpools/wasnorm_wordpool_576.txt	LTP346	ltpFR2	10	8	SCISSORS	1250	n/a	n/a	0	0	0
1577759	REC_WORD	wordpools/wasnorm_wordpool_576.txt	LTP346	ltpFR2	10	8	AUTHOR	61	n/a	n/a	0	0	0
1578375	REC_WORD	wordpools/wasnorm_wordpool_576.txt	LTP346	ltpFR2	10	8	BANQUET	86	n/a	n/a	0	0	0
1579895	REC_WORD	wordpools/wasnorm_wordpool_576.txt	LTP346	ltpFR2	10	8	CITRUS	313	n/a	n/a	0	0	0
1580895	REC_WORD_VV	wordpools/wasnorm_wordpool_576.txt	LTP346	ltpFR2	10	8	<>	-1	n/a	n/a	0	0	0
1582271	REC_WORD	wordpools/wasnorm_wordpool_576.txt	LTP346	ltpFR2	10	8	BRACES	164	n/a	n/a	0	0	0
1583635	REC_WORD	wordpools/wasnorm_wordpool_576.txt	LTP346	ltpFR2	10	8	DENTIST	447	n/a	n/a	0	0	0
1587933	REC_WORD	wordpools/wasnorm_wordpool_576.txt	LTP346	ltpFR2	10	8	PAIL	1002	n/a	n/a	0	0	0
1589513	REC_WORD	wordpools/wasnorm_wordpool_576.txt	LTP346	ltpFR2	10	8	SHORTCAKE	1292	n/a	n/a	0	0	0
1590357	REC_WORD	wordpools/wasnorm_wordpool_576.txt	LTP346	ltpFR2	10	8	PLASTER	1085	n/a	n/a	0	0	0
1590985	REC_WORD	wordpools/wasnorm_wordpool_576.txt	LTP346	ltpFR2	10	8	VAGRANT	1544	n/a	n/a	0	0	0
1591675	REC_WORD	wordpools/wasnorm_wordpool_576.txt	LTP346	ltpFR2	10	8	TURNIP	1521	n/a	n/a	0	0	0
1597009	REC_WORD	wordpools/wasnorm_wordpool_576.txt	LTP346	ltpFR2	10	8	DRILL	497	n/a	n/a	0	0	0
1597449	REC_WORD	wordpools/wasnorm_wordpool_576.txt	LTP346	ltpFR2	10	8	FRECKLE	602	n/a	n/a	0	0	0
1600233	REC_WORD	wordpools/wasnorm_wordpool_576.txt	LTP346	ltpFR2	10	8	SAUSAGE	1238	n/a	n/a	0	0	0
1600954	REC_WORD	wordpools/wasnorm_wordpool_576.txt	LTP346	ltpFR2	10	8	FRAGRANCE	599	n/a	n/a	0	0	0
1601690	REC_WORD	wordpools/wasnorm_wordpool_576.txt	LTP346	ltpFR2	10	8	DINER	467	n/a	n/a	0	0	0
1602236	REC_WORD	wordpools/wasnorm_wordpool_576.txt	LTP346	ltpFR2	10	8	BLOUSE	139	n/a	n/a	0	0	0
1648748	REST_REWET	n/a	LTP346	ltpFR2	10	8	n/a	n/a	n/a	n/a	0	0	0
1782197	DISTRACTOR	n/a	LTP346	ltpFR2	10	9	n/a	n/a	n/a	n/a	0	0	0
1782197	START	n/a	LTP346	ltpFR2	10	n/a	n/a	n/a	13	n/a	n/a	n/a	n/a
1782214	PROB	n/a	LTP346	ltpFR2	10	n/a	n/a	n/a	13	21	9	5	7
1784513	PROB	n/a	LTP346	ltpFR2	10	n/a	n/a	n/a	13	12	9	2	1
1786862	PROB	n/a	LTP346	ltpFR2	10	n/a	n/a	n/a	13	15	3	6	6
1788177	PROB	n/a	LTP346	ltpFR2	10	n/a	n/a	n/a	13	15	5	8	2
1789761	PROB	n/a	LTP346	ltpFR2	10	n/a	n/a	n/a	13	11	6	2	3
1792275	PROB	n/a	LTP346	ltpFR2	10	n/a	n/a	n/a	13	12	5	5	2
1793391	PROB	n/a	LTP346	ltpFR2	10	n/a	n/a	n/a	13	11	5	3	3
1794842	PROB	n/a	LTP346	ltpFR2	10	n/a	n/a	n/a	13	16	9	4	3
1796457	PROB	n/a	LTP346	ltpFR2	10	n/a	n/a	n/a	13	13	2	5	6
1798607	PROB	n/a	LTP346	ltpFR2	10	n/a	n/a	n/a	13	8	2	2	4
1800022	PROB	n/a	LTP346	ltpFR2	10	n/a	n/a	n/a	13	5	1	1	3
1801204	PROB	n/a	LTP346	ltpFR2	10	n/a	n/a	n/a	13	10	1	6	3
1802487	PROB	n/a	LTP346	ltpFR2	10	n/a	n/a	n/a	13	23	9	8	6
1806196	STOP	n/a	LTP346	ltpFR2	10	n/a	n/a	n/a	13	n/a	n/a	n/a	n/a
1807052	WORD	wordpools/wasnorm_wordpool_576.txt	LTP346	ltpFR2	10	9	POISON	1096	n/a	n/a	0	0	0
1809517	WORD	wordpools/wasnorm_wordpool_576.txt	LTP346	ltpFR2	10	9	CIGAR	308	n/a	n/a	0	0	0
1812265	WORD	wordpools/wasnorm_wordpool_576.txt	LTP346	ltpFR2	10	9	POSSUM	1112	n/a	n/a	0	0	0
1814748	WORD	wordpools/wasnorm_wordpool_576.txt	LTP346	ltpFR2	10	9	STATUE	1374	n/a	n/a	0	0	0
1817429	WORD	wordpools/wasnorm_wordpool_576.txt	LTP346	ltpFR2	10	9	COD	340	n/a	n/a	0	0	0
1820145	WORD	wordpools/wasnorm_wordpool_576.txt	LTP346	ltpFR2	10	9	FLUTE	585	n/a	n/a	0	0	0
1822728	WORD	wordpools/wasnorm_wordpool_576.txt	LTP346	ltpFR2	10	9	PIANO	1057	n/a	n/a	0	0	0
1825159	WORD	wordpools/wasnorm_wordpool_576.txt	LTP346	ltpFR2	10	9	BEAST	108	n/a	n/a	0	0	0
1827642	WORD	wordpools/wasnorm_wordpool_576.txt	LTP346	ltpFR2	10	9	COCOON	339	n/a	n/a	0	0	0
1830423	WORD	wordpools/wasnorm_wordpool_576.txt	LTP346	ltpFR2	10	9	ORANGE	980	n/a	n/a	0	0	0
1832939	WORD	wordpools/wasnorm_wordpool_576.txt	LTP346	ltpFR2	10	9	POPCORN	1104	n/a	n/a	0	0	0
1835487	WORD	wordpools/wasnorm_wordpool_576.txt	LTP346	ltpFR2	10	9	OUTLAW	989	n/a	n/a	0	0	0
1838004	WORD	wordpools/wasnorm_wordpool_576.txt	LTP346	ltpFR2	10	9	HOSTESS	723	n/a	n/a	0	0	0
1840602	WORD	wordpools/wasnorm_wordpool_576.txt	LTP346	ltpFR2	10	9	ACTRESS	6	n/a	n/a	0	0	0
1843117	WORD	wordpools/wasnorm_wordpool_576.txt	LTP346	ltpFR2	10	9	BEAKER	104	n/a	n/a	0	0	0
1845566	WORD	wordpools/wasnorm_wordpool_576.txt	LTP346	ltpFR2	10	9	SURVEY	1414	n/a	n/a	0	0	0
1848049	WORD	wordpools/wasnorm_wordpool_576.txt	LTP346	ltpFR2	10	9	ACTOR	5	n/a	n/a	0	0	0
1850681	WORD	wordpools/wasnorm_wordpool_576.txt	LTP346	ltpFR2	10	9	COURSE	390	n/a	n/a	0	0	0
1853278	WORD	wordpools/wasnorm_wordpool_576.txt	LTP346	ltpFR2	10	9	DRINK	498	n/a	n/a	0	0	0
1855945	WORD	wordpools/wasnorm_wordpool_576.txt	LTP346	ltpFR2	10	9	BUNNY	198	n/a	n/a	0	0	0
1858727	WORD	wordpools/wasnorm_wordpool_576.txt	LTP346	ltpFR2	10	9	MAPLE	866	n/a	n/a	0	0	0
1861208	WORD	wordpools/wasnorm_wordpool_576.txt	LTP346	ltpFR2	10	9	BRANCH	168	n/a	n/a	0	0	0
1864024	WORD	wordpools/wasnorm_wordpool_576.txt	LTP346	ltpFR2	10	9	GROUND	666	n/a	n/a	0	0	0
1866639	WORD	wordpools/wasnorm_wordpool_576.txt	LTP346	ltpFR2	10	9	PIMPLE	1071	n/a	n/a	0	0	0
1868254	START	n/a	LTP346	ltpFR2	10	n/a	n/a	n/a	14	n/a	n/a	n/a	n/a
1869192	DISTRACTOR	n/a	LTP346	ltpFR2	10	9	n/a	n/a	n/a	n/a	0	0	0
1869204	PROB	n/a	LTP346	ltpFR2	10	n/a	n/a	n/a	14	12	6	5	1
1870553	PROB	n/a	LTP346	ltpFR2	10	n/a	n/a	n/a	14	11	1	5	5
1871553	PROB	n/a	LTP346	ltpFR2	10	n/a	n/a	n/a	14	13	8	2	3
1873102	PROB	n/a	LTP346	ltpFR2	10	n/a	n/a	n/a	14	24	5	9	9
1874619	PROB	n/a	LTP346	ltpFR2	10	n/a	n/a	n/a	14	25	9	8	8
1877817	PROB	n/a	LTP346	ltpFR2	10	n/a	n/a	n/a	14	20	8	6	6
1880033	PROB	n/a	LTP346	ltpFR2	10	n/a	n/a	n/a	14	11	2	4	5
1881564	PROB	n/a	LTP346	ltpFR2	10	n/a	n/a	n/a	14	17	4	5	8
1883097	PROB	n/a	LTP346	ltpFR2	10	n/a	n/a	n/a	14	16	9	2	5
1884430	PROB	n/a	LTP346	ltpFR2	10	n/a	n/a	n/a	14	11	9	1	1
1885680	PROB	n/a	LTP346	ltpFR2	10	n/a	n/a	n/a	14	17	8	6	3
1887195	PROB	n/a	LTP346	ltpFR2	10	n/a	n/a	n/a	14	23	9	7	6
1888745	PROB	n/a	LTP346	ltpFR2	10	n/a	n/a	n/a	14	18	2	8	8
1890677	PROB	n/a	LTP346	ltpFR2	10	n/a	n/a	n/a	14	10	1	1	8
1891746	STOP	n/a	LTP346	ltpFR2	10	n/a	n/a	n/a	14	n/a	n/a	n/a	n/a
1894045	REC_START	n/a	LTP346	ltpFR2	10	9	n/a	n/a	n/a	n/a	0	0	0
1894270	REC_WORD	wordpools/wasnorm_wordpool_576.txt	LTP346	ltpFR2	10	9	PIMPLE	1071	n/a	n/a	0	0	0
1895145	REC_WORD_VV	wordpools/wasnorm_wordpool_576.txt	LTP346	ltpFR2	10	9	<>	-1	n/a	n/a	0	0	0
1895639	REC_WORD	wordpools/wasnorm_wordpool_576.txt	LTP346	ltpFR2	10	9	MAPLE	866	n/a	n/a	0	0	0
1896427	REC_WORD	wordpools/wasnorm_wordpool_576.txt	LTP346	ltpFR2	10	9	BRANCH	168	n/a	n/a	0	0	0
1897169	REC_WORD	wordpools/wasnorm_wordpool_576.txt	LTP346	ltpFR2	10	9	GROUND	666	n/a	n/a	0	0	0
1899226	REC_WORD	wordpools/wasnorm_wordpool_576.txt	LTP346	ltpFR2	10	9	CIGAR	308	n/a	n/a	0	0	0
1899841	REC_WORD	wordpools/wasnorm_wordpool_576.txt	LTP346	ltpFR2	10	9	POISON	1096	n/a	n/a	0	0	0
1901541	REC_WORD	wordpools/wasnorm_wordpool_576.txt	LTP346	ltpFR2	10	9	POSSUM	1112	n/a	n/a	0	0	0
1902024	REC_WORD	wordpools/wasnorm_wordpool_576.txt	LTP346	ltpFR2	10	9	STATUE	1374	n/a	n/a	0	0	0
1902730	REC_WORD	wordpools/wasnorm_wordpool_576.txt	LTP346	ltpFR2	10	9	COD	340	n/a	n/a	0	0	0
1907617	REC_WORD	wordpools/wasnorm_wordpool_576.txt	LTP346	ltpFR2	10	9	FLUTE	585	n/a	n/a	0	0	0
1908174	REC_WORD	wordpools/wasnorm_wordpool_576.txt	LTP346	ltpFR2	10	9	PIMPLE	1071	n/a	n/a	0	0	0
1908762	REC_WORD	wordpools/wasnorm_wordpool_576.txt	LTP346	ltpFR2	10	9	BEAST	108	n/a	n/a	0	0	0
1922411	REC_WORD	wordpools/wasnorm_wordpool_576.txt	LTP346	ltpFR2	10	9	OUTLAW	989	n/a	n/a	0	0	0
1924830	REC_WORD	wordpools/wasnorm_wordpool_576.txt	LTP346	ltpFR2	10	9	ACTRESS	6	n/a	n/a	0	0	0
1925675	REC_WORD	wordpools/wasnorm_wordpool_576.txt	LTP346	ltpFR2	10	9	ACTOR	5	n/a	n/a	0	0	0
1927547	REC_WORD	wordpools/wasnorm_wordpool_576.txt	LTP346	ltpFR2	10	9	HOSTESS	723	n/a	n/a	0	0	0
1928700	REC_WORD	wordpools/wasnorm_wordpool_576.txt	LTP346	ltpFR2	10	9	COURSE	390	n/a	n/a	0	0	0
1929541	REC_WORD	wordpools/wasnorm_wordpool_576.txt	LTP346	ltpFR2	10	9	DRINK	498	n/a	n/a	0	0	0
1930997	REC_WORD	wordpools/wasnorm_wordpool_576.txt	LTP346	ltpFR2	10	9	BUNNY	198	n/a	n/a	0	0	0
1984513	DISTRACTOR	n/a	LTP346	ltpFR2	10	10	n/a	n/a	n/a	n/a	0	0	0
1984513	START	n/a	LTP346	ltpFR2	10	n/a	n/a	n/a	15	n/a	n/a	n/a	n/a
1984530	PROB	n/a	LTP346	ltpFR2	10	n/a	n/a	n/a	15	13	2	5	6
1986146	PROB	n/a	LTP346	ltpFR2	10	n/a	n/a	n/a	15	19	9	5	5
1987696	PROB	n/a	LTP346	ltpFR2	10	n/a	n/a	n/a	15	15	8	5	2
1989178	PROB	n/a	LTP346	ltpFR2	10	n/a	n/a	n/a	15	12	3	7	2
1990277	PROB	n/a	LTP346	ltpFR2	10	n/a	n/a	n/a	15	13	1	8	4
1991794	PROB	n/a	LTP346	ltpFR2	10	n/a	n/a	n/a	15	18	6	9	3
1993425	PROB	n/a	LTP346	ltpFR2	10	n/a	n/a	n/a	15	11	2	5	4
1995391	PROB	n/a	LTP346	ltpFR2	10	n/a	n/a	n/a	15	18	5	6	7
1998090	PROB	n/a	LTP346	ltpFR2	10	n/a	n/a	n/a	15	10	1	8	1
1999173	PROB	n/a	LTP346	ltpFR2	10	n/a	n/a	n/a	15	18	6	8	4
2000756	PROB	n/a	LTP346	ltpFR2	10	n/a	n/a	n/a	15	20	8	9	3
2003771	PROB	n/a	LTP346	ltpFR2	10	n/a	n/a	n/a	15	26	9	9	8
2005620	PROB	n/a	LTP346	ltpFR2	10	n/a	n/a	n/a	15	16	6	1	9
2007611	STOP	n/a	LTP346	ltpFR2	10	n/a	n/a	n/a	15	n/a	n/a	n/a	n/a
2009652	WORD	wordpools/wasnorm_wordpool_576.txt	LTP346	ltpFR2	10	10	STICKER	1382	n/a	n/a	0	0	0
2012166	WORD	wordpools/wasnorm_wordpool_576.txt	LTP346	ltpFR2	10	10	GRAVE	658	n/a	n/a	0	0	0
2014616	WORD	wordpools/wasnorm_wordpool_576.txt	LTP346	ltpFR2	10	10	TABLE	1426	n/a	n/a	0	0	0
2017297	WORD	wordpools/wasnorm_wordpool_576.txt	LTP346	ltpFR2	10	10	GANGSTER	620	n/a	n/a	0	0	0
2019780	WORD	wordpools/wasnorm_wordpool_576.txt	LTP346	ltpFR2	10	10	LEOPARD	812	n/a	n/a	0	0	0
2022579	WORD	wordpools/wasnorm_wordpool_576.txt	LTP346	ltpFR2	10	10	MOTOR	922	n/a	n/a	0	0	0
2025044	WORD	wordpools/wasnorm_wordpool_576.txt	LTP346	ltpFR2	10	10	TRUCK	1512	n/a	n/a	0	0	0
2027626	WORD	wordpools/wasnorm_wordpool_576.txt	LTP346	ltpFR2	10	10	HATCHET	691	n/a	n/a	0	0	0
2030307	WORD	wordpools/wasnorm_wordpool_576.txt	LTP346	ltpFR2	10	10	OYSTER	995	n/a	n/a	0	0	0
2032924	WORD	wordpools/wasnorm_wordpool_576.txt	LTP346	ltpFR2	10	10	LOFT	840	n/a	n/a	0	0	0
2035505	WORD	wordpools/wasnorm_wordpool_576.txt	LTP346	ltpFR2	10	10	MUFFIN	929	n/a	n/a	0	0	0
2038237	WORD	wordpools/wasnorm_wordpool_576.txt	LTP346	ltpFR2	10	10	CRAYON	401	n/a	n/a	0	0	0
2041003	WORD	wordpools/wasnorm_wordpool_576.txt	LTP346	ltpFR2	10	10	FLESH	579	n/a	n/a	0	0	0
2043668	WORD	wordpools/wasnorm_wordpool_576.txt	LTP346	ltpFR2	10	10	MARROW	872	n/a	n/a	0	0	0
2046432	WORD	wordpools/wasnorm_wordpool_576.txt	LTP346	ltpFR2	10	10	GALLON	618	n/a	n/a	0	0	0
2049148	WORD	wordpools/wasnorm_wordpool_576.txt	LTP346	ltpFR2	10	10	CHEMIST	292	n/a	n/a	0	0	0
2051897	WORD	wordpools/wasnorm_wordpool_576.txt	LTP346	ltpFR2	10	10	CHAUFFEUR	283	n/a	n/a	0	0	0
2054412	WORD	wordpools/wasnorm_wordpool_576.txt	LTP346	ltpFR2	10	10	CHIPMUNK	304	n/a	n/a	0	0	0
2057012	WORD	wordpools/wasnorm_wordpool_576.txt	LTP346	ltpFR2	10	10	MATTRESS	879	n/a	n/a	0	0	0
2059744	WORD	wordpools/wasnorm_wordpool_576.txt	LTP346	ltpFR2	10	10	NIGHTGOWN	953	n/a	n/a	0	0	0
2062541	WORD	wordpools/wasnorm_wordpool_576.txt	LTP346	ltpFR2	10	10	RUG	1215	n/a	n/a	0	0	0
2065058	WORD	wordpools/wasnorm_wordpool_576.txt	LTP346	ltpFR2	10	10	SODA	1341	n/a	n/a	0	0	0
2067840	WORD	wordpools/wasnorm_wordpool_576.txt	LTP346	ltpFR2	10	10	PERMIT	1051	n/a	n/a	0	0	0
2070504	WORD	wordpools/wasnorm_wordpool_576.txt	LTP346	ltpFR2	10	10	COUCH	386	n/a	n/a	0	0	0
2072120	START	n/a	LTP346	ltpFR2	10	n/a	n/a	n/a	16	n/a	n/a	n/a	n/a
2073222	DISTRACTOR	n/a	LTP346	ltpFR2	10	10	n/a	n/a	n/a	n/a	0	0	0
2073236	PROB	n/a	LTP346	ltpFR2	10	n/a	n/a	n/a	16	11	1	4	6
2074519	PROB	n/a	LTP346	ltpFR2	10	n/a	n/a	n/a	16	26	9	8	9
2076384	PROB	n/a	LTP346	ltpFR2	10	n/a	n/a	n/a	16	15	5	1	9
2078801	PROB	n/a	LTP346	ltpFR2	10	n/a	n/a	n/a	16	17	9	2	6
2081016	PROB	n/a	LTP346	ltpFR2	10	n/a	n/a	n/a	16	22	8	9	5
2083015	PROB	n/a	LTP346	ltpFR2	10	n/a	n/a	n/a	16	21	7	6	8
2085530	PROB	n/a	LTP346	ltpFR2	10	n/a	n/a	n/a	16	8	4	2	2
2087013	PROB	n/a	LTP346	ltpFR2	10	n/a	n/a	n/a	16	7	4	2	1
2088495	PROB	n/a	LTP346	ltpFR2	10	n/a	n/a	n/a	16	20	9	9	2
2089995	PROB	n/a	LTP346	ltpFR2	10	n/a	n/a	n/a	16	16	1	8	7
2091244	PROB	n/a	LTP346	ltpFR2	10	n/a	n/a	n/a	16	16	6	2	8
2092543	PROB	n/a	LTP346	ltpFR2	10	n/a	n/a	n/a	16	12	4	7	1
2093760	PROB	n/a	LTP346	ltpFR2	10	n/a	n/a	n/a	16	19	9	6	4
2095051	STOP	n/a	LTP346	ltpFR2	10	n/a	n/a	n/a	16	n/a	n/a	n/a	n/a
2097892	REC_START	n/a	LTP346	ltpFR2	10	10	n/a	n/a	n/a	n/a	0	0	0
2100075	REC_WORD	wordpools/wasnorm_wordpool_576.txt	LTP346	ltpFR2	10	10	STICKER	1382	n/a	n/a	0	0	0
2101041	REC_WORD	wordpools/wasnorm_wordpool_576.txt	LTP346	ltpFR2	10	10	GRAVE	658	n/a	n/a	0	0	0
2106650	REC_WORD	wordpools/wasnorm_wordpool_576.txt	LTP346	ltpFR2	10	10	GANGSTER	620	n/a	n/a	0	0	0
2107501	REC_WORD	wordpools/wasnorm_wordpool_576.txt	LTP346	ltpFR2	10	10	LEOPARD	812	n/a	n/a	0	0	0
2111501	REC_WORD	wordpools/wasnorm_wordpool_576.txt	LTP346	ltpFR2	10	10	LOFT	840	n/a	n/a	0	0	0
2112897	REC_WORD	wordpools/wasnorm_wordpool_576.txt	LTP346	ltpFR2	10	10	MUFFIN	929	n/a	n/a	0	0	0
2113977	REC_WORD	wordpools/wasnorm_wordpool_576.txt	LTP346	ltpFR2	10	10	CRAYON	401	n/a	n/a	0	0	0
2120283	REC_WORD	wordpools/wasnorm_wordpool_576.txt	LTP346	ltpFR2	10	10	PERMIT	1051	n/a	n/a	0	0	0
2120853	REC_WORD	wordpools/wasnorm_wordpool_576.txt	LTP346	ltpFR2	10	10	SODA	1341	n/a	n/a	0	0	0
2121692	REC_WORD	wordpools/wasnorm_wordpool_576.txt	LTP346	ltpFR2	10	10	COUCH	386	n/a	n/a	0	0	0
2122968	REC_WORD	wordpools/wasnorm_wordpool_576.txt	LTP346	ltpFR2	10	10	TABLE	1426	n/a	n/a	0	0	0
2131122	REC_WORD	wordpools/wasnorm_wordpool_576.txt	LTP346	ltpFR2	10	10	CHAUFFEUR	283	n/a	n/a	0	0	0
2131900	REC_WORD	wordpools/wasnorm_wordpool_576.txt	LTP346	ltpFR2	10	10	CHEMIST	292	n/a	n/a	0	0	0
2132425	REC_WORD	wordpools/wasnorm_wordpool_576.txt	LTP346	ltpFR2	10	10	CHIPMUNK	304	n/a	n/a	0	0	0
2133074	REC_WORD	wordpools/wasnorm_wordpool_576.txt	LTP346	ltpFR2	10	10	MATTRESS	879	n/a	n/a	0	0	0
2134151	REC_WORD	wordpools/wasnorm_wordpool_576.txt	LTP346	ltpFR2	10	10	NIGHTGOWN	953	n/a	n/a	0	0	0
2134870	REC_WORD	wordpools/wasnorm_wordpool_576.txt	LTP346	ltpFR2	10	10	RUG	1215	n/a	n/a	0	0	0
2138536	REC_WORD	wordpools/wasnorm_wordpool_576.txt	LTP346	ltpFR2	10	10	GALLON	618	n/a	n/a	0	0	0
2139155	REC_WORD	wordpools/wasnorm_wordpool_576.txt	LTP346	ltpFR2	10	10	MARROW	872	n/a	n/a	0	0	0
2139853	REC_WORD	wordpools/wasnorm_wordpool_576.txt	LTP346	ltpFR2	10	10	FLESH	579	n/a	n/a	0	0	0
2188362	WORD	wordpools/wasnorm_wordpool_576.txt	LTP346	ltpFR2	10	11	VELVET	1555	n/a	n/a	0	0	0
2191012	WORD	wordpools/wasnorm_wordpool_576.txt	LTP346	ltpFR2	10	11	WRENCH	1625	n/a	n/a	0	0	0
2193644	WORD	wordpools/wasnorm_wordpool_576.txt	LTP346	ltpFR2	10	11	BALLOON	75	n/a	n/a	0	0	0
2196125	WORD	wordpools/wasnorm_wordpool_576.txt	LTP346	ltpFR2	10	11	NOMAD	955	n/a	n/a	0	0	0
2198824	WORD	wordpools/wasnorm_wordpool_576.txt	LTP346	ltpFR2	10	11	TRIBE	1505	n/a	n/a	0	0	0
2201489	WORD	wordpools/wasnorm_wordpool_576.txt	LTP346	ltpFR2	10	11	DRESSER	496	n/a	n/a	0	0	0
2204204	WORD	wordpools/wasnorm_wordpool_576.txt	LTP346	ltpFR2	10	11	OUTFIT	988	n/a	n/a	0	0	0
2206887	WORD	wordpools/wasnorm_wordpool_576.txt	LTP346	ltpFR2	10	11	WITNESS	1618	n/a	n/a	0	0	0
2209619	WORD	wordpools/wasnorm_wordpool_576.txt	LTP346	ltpFR2	10	11	BOARD	143	n/a	n/a	0	0	0
2212350	WORD	wordpools/wasnorm_wordpool_576.txt	LTP346	ltpFR2	10	11	ICING	732	n/a	n/a	0	0	0
2214883	WORD	wordpools/wasnorm_wordpool_576.txt	LTP346	ltpFR2	10	11	STOVE	1388	n/a	n/a	0	0	0
2217582	WORD	wordpools/wasnorm_wordpool_576.txt	LTP346	ltpFR2	10	11	MUSTARD	935	n/a	n/a	0	0	0
2220047	WORD	wordpools/wasnorm_wordpool_576.txt	LTP346	ltpFR2	10	11	PLAID	1080	n/a	n/a	0	0	0
2222495	WORD	wordpools/wasnorm_wordpool_576.txt	LTP346	ltpFR2	10	11	TWEEZERS	1526	n/a	n/a	0	0	0
2224978	WORD	wordpools/wasnorm_wordpool_576.txt	LTP346	ltpFR2	10	11	BACON	67	n/a	n/a	0	0	0
2227610	WORD	wordpools/wasnorm_wordpool_576.txt	LTP346	ltpFR2	10	11	TWIG	1527	n/a	n/a	0	0	0
2230125	WORD	wordpools/wasnorm_wordpool_576.txt	LTP346	ltpFR2	10	11	PUDDLE	1140	n/a	n/a	0	0	0
2232741	WORD	wordpools/wasnorm_wordpool_576.txt	LTP346	ltpFR2	10	11	FOOTBALL	591	n/a	n/a	0	0	0
2235289	WORD	wordpools/wasnorm_wordpool_576.txt	LTP346	ltpFR2	10	11	OMELET	976	n/a	n/a	0	0	0
2237838	WORD	wordpools/wasnorm_wordpool_576.txt	LTP346	ltpFR2	10	11	PUPIL	1143	n/a	n/a	0	0	0
2240303	WORD	wordpools/wasnorm_wordpool_576.txt	LTP346	ltpFR2	10	11	COLLEGE	346	n/a	n/a	0	0	0
2242919	WORD	wordpools/wasnorm_wordpool_576.txt	LTP346	ltpFR2	10	11	ZEBRA	1635	n/a	n/a	0	0	0
2245400	WORD	wordpools/wasnorm_wordpool_576.txt	LTP346	ltpFR2	10	11	HOUND	724	n/a	n/a	0	0	0
2247967	WORD	wordpools/wasnorm_wordpool_576.txt	LTP346	ltpFR2	10	11	GARBAGE	622	n/a	n/a	0	0	0
2249583	START	n/a	LTP346	ltpFR2	10	n/a	n/a	n/a	17	n/a	n/a	n/a	n/a
2250684	DISTRACTOR	n/a	LTP346	ltpFR2	10	11	n/a	n/a	n/a	n/a	0	0	0
2250699	PROB	n/a	LTP346	ltpFR2	10	n/a	n/a	n/a	17	17	5	9	3
2254462	PROB	n/a	LTP346	ltpFR2	10	n/a	n/a	n/a	17	20	9	6	5
2256512	PROB	n/a	LTP346	ltpFR2	10	n/a	n/a	n/a	17	21	9	4	8
2259527	PROB	n/a	LTP346	ltpFR2	10	n/a	n/a	n/a	17	17	2	6	9
2261577	PROB	n/a	LTP346	ltpFR2	10	n/a	n/a	n/a	17	11	5	4	2
2262909	PROB	n/a	LTP346	ltpFR2	10	n/a	n/a	n/a	17	12	1	7	4
2265008	PROB	n/a	LTP346	ltpFR2	10	n/a	n/a	n/a	17	11	2	6	3
2266557	PROB	n/a	LTP346	ltpFR2	10	n/a	n/a	n/a	17	17	1	8	8
2267907	PROB	n/a	LTP346	ltpFR2	10	n/a	n/a	n/a	17	9	3	4	2
2269455	PROB	n/a	LTP346	ltpFR2	10	n/a	n/a	n/a	17	17	8	3	6
2270922	PROB	n/a	LTP346	ltpFR2	10	n/a	n/a	n/a	17	6	1	1	4
2272138	STOP	n/a	LTP346	ltpFR2	10	n/a	n/a	n/a	17	n/a	n/a	n/a	n/a
2275403	REC_START	n/a	LTP346	ltpFR2	10	11	n/a	n/a	n/a	n/a	0	0	0
2275408	REC_WORD	wordpools/wasnorm_wordpool_576.txt	LTP346	ltpFR2	10	11	HOUND	724	n/a	n/a	0	0	0
2275937	REC_WORD	wordpools/wasnorm_wordpool_576.txt	LTP346	ltpFR2	10	11	GARBAGE	622	n/a	n/a	0	0	0
2276416	REC_WORD	wordpools/wasnorm_wordpool_576.txt	LTP346	ltpFR2	10	11	ZEBRA	1635	n/a	n/a	0	0	0
2277194	REC_WORD	wordpools/wasnorm_wordpool_576.txt	LTP346	ltpFR2	10	11	PUPIL	1143	n/a	n/a	0	0	0
2278780	REC_WORD	wordpools/wasnorm_wordpool_576.txt	LTP346	ltpFR2	10	11	FOOTBALL	591	n/a	n/a	0	0	0
2279561	REC_WORD	wordpools/wasnorm_wordpool_576.txt	LTP346	ltpFR2	10	11	OMELET	976	n/a	n/a	0	0	0
2280706	REC_WORD	wordpools/wasnorm_wordpool_576.txt	LTP346	ltpFR2	10	11	COLLEGE	346	n/a	n/a	0	0	0
2288924	REC_WORD	wordpools/wasnorm_wordpool_576.txt	LTP346	ltpFR2	10	11	VELVET	1555	n/a	n/a	0	0	0
2289590	REC_WORD	wordpools/wasnorm_wordpool_576.txt	LTP346	ltpFR2	10	11	WRENCH	1625	n/a	n/a	0	0	0
2290967	REC_WORD	wordpools/wasnorm_wordpool_576.txt	LTP346	ltpFR2	10	11	BALLOON	75	n/a	n/a	0	0	0
2291654	REC_WORD	wordpools/wasnorm_wordpool_576.txt	LTP346	ltpFR2	10	11	NOMAD	955	n/a	n/a	0	0	0
2292381	REC_WORD	wordpools/wasnorm_wordpool_576.txt	LTP346	ltpFR2	10	11	TRIBE	1505	n/a	n/a	0	0	0
2292905	REC_WORD	wordpools/wasnorm_wordpool_576.txt	LTP346	ltpFR2	10	11	WITNESS	1618	n/a	n/a	0	0	0
2294639	REC_WORD	wordpools/wasnorm_wordpool_576.txt	LTP346	ltpFR2	10	11	BOARD	143	n/a	n/a	0	0	0
2295159	REC_WORD	wordpools/wasnorm_wordpool_576.txt	LTP346	ltpFR2	10	11	ICING	732	n/a	n/a	0	0	0
2296089	REC_WORD	wordpools/wasnorm_wordpool_576.txt	LTP346	ltpFR2	10	11	MUSTARD	935	n/a	n/a	0	0	0
2296657	REC_WORD	wordpools/wasnorm_wordpool_576.txt	LTP346	ltpFR2	10	11	STOVE	1388	n/a	n/a	0	0	0
2304554	REC_WORD	wordpools/wasnorm_wordpool_576.txt	LTP346	ltpFR2	10	11	TWEEZERS	1526	n/a	n/a	0	0	0
2305493	REC_WORD	wordpools/wasnorm_wordpool_576.txt	LTP346	ltpFR2	10	11	BACON	67	n/a	n/a	0	0	0
2314280	REC_WORD	wordpools/wasnorm_wordpool_576.txt	LTP346	ltpFR2	10	11	PUDDLE	1140	n/a	n/a	0	0	0
2314770	REC_WORD	wordpools/wasnorm_wordpool_576.txt	LTP346	ltpFR2	10	11	TWIG	1527	n/a	n/a	0	0	0
2330942	REC_WORD	wordpools/wasnorm_wordpool_576.txt	LTP346	ltpFR2	10	11	DRESSER	496	n/a	n/a	0	0	0
2331698	REC_WORD	wordpools/wasnorm_wordpool_576.txt	LTP346	ltpFR2	10	11	OUTFIT	988	n/a	n/a	0	0	0
2341552	REC_WORD	wordpools/wasnorm_wordpool_576.txt	LTP346	ltpFR2	10	11	PLAID	1080	n/a	n/a	0	0	0
2365858	WORD	wordpools/wasnorm_wordpool_576.txt	LTP346	ltpFR2	10	12	SLOPE	1328	n/a	n/a	0	0	0
2368523	WORD	wordpools/wasnorm_wordpool_576.txt	LTP346	ltpFR2	10	12	PATROL	1027	n/a	n/a	0	0	0
2371288	WORD	wordpools/wasnorm_wordpool_576.txt	LTP346	ltpFR2	10	12	CLOCK	325	n/a	n/a	0	0	0
2373738	WORD	wordpools/wasnorm_wordpool_576.txt	LTP346	ltpFR2	10	12	TERMITE	1451	n/a	n/a	0	0	0
2376519	WORD	wordpools/wasnorm_wordpool_576.txt	LTP346	ltpFR2	10	12	TOASTER	1472	n/a	n/a	0	0	0
2379117	WORD	wordpools/wasnorm_wordpool_576.txt	LTP346	ltpFR2	10	12	MILDEW	893	n/a	n/a	0	0	0
2381650	WORD	wordpools/wasnorm_wordpool_576.txt	LTP346	ltpFR2	10	12	FIREMAN	569	n/a	n/a	0	0	0
2384365	WORD	wordpools/wasnorm_wordpool_576.txt	LTP346	ltpFR2	10	12	MATCH	878	n/a	n/a	0	0	0
2386998	WORD	wordpools/wasnorm_wordpool_576.txt	LTP346	ltpFR2	10	12	SUSPECT	1415	n/a	n/a	0	0	0
2389580	WORD	wordpools/wasnorm_wordpool_576.txt	LTP346	ltpFR2	10	12	SCULPTURE	1258	n/a	n/a	0	0	0
2392327	WORD	wordpools/wasnorm_wordpool_576.txt	LTP346	ltpFR2	10	12	SCALLOP	1242	n/a	n/a	0	0	0
2395011	WORD	wordpools/wasnorm_wordpool_576.txt	LTP346	ltpFR2	10	12	TUTU	1524	n/a	n/a	0	0	0
2397525	WORD	wordpools/wasnorm_wordpool_576.txt	LTP346	ltpFR2	10	12	PATIENT	1024	n/a	n/a	0	0	0
2400274	WORD	wordpools/wasnorm_wordpool_576.txt	LTP346	ltpFR2	10	12	SCALPEL	1243	n/a	n/a	0	0	0
2403023	WORD	wordpools/wasnorm_wordpool_576.txt	LTP346	ltpFR2	10	12	APPLE	33	n/a	n/a	0	0	0
2405738	WORD	wordpools/wasnorm_wordpool_576.txt	LTP346	ltpFR2	10	12	PERFUME	1049	n/a	n/a	0	0	0
2408369	WORD	wordpools/wasnorm_wordpool_576.txt	LTP346	ltpFR2	10	12	LION	827	n/a	n/a	0	0	0
2410803	WORD	wordpools/wasnorm_wordpool_576.txt	LTP346	ltpFR2	10	12	FILM	565	n/a	n/a	0	0	0
2413601	WORD	wordpools/wasnorm_wordpool_576.txt	LTP346	ltpFR2	10	12	PIGEON	1065	n/a	n/a	0	0	0
2416099	WORD	wordpools/wasnorm_wordpool_576.txt	LTP346	ltpFR2	10	12	DORM	488	n/a	n/a	0	0	0
2418749	WORD	wordpools/wasnorm_wordpool_576.txt	LTP346	ltpFR2	10	12	PANTHER	1009	n/a	n/a	0	0	0
2421213	WORD	wordpools/wasnorm_wordpool_576.txt	LTP346	ltpFR2	10	12	BURGLAR	200	n/a	n/a	0	0	0
2423713	WORD	wordpools/wasnorm_wordpool_576.txt	LTP346	ltpFR2	10	12	CONVICT	371	n/a	n/a	0	0	0
2426161	WORD	wordpools/wasnorm_wordpool_576.txt	LTP346	ltpFR2	10	12	POLICE	1098	n/a	n/a	0	0	0
2427778	START	n/a	LTP346	ltpFR2	10	n/a	n/a	n/a	18	n/a	n/a	n/a	n/a
2428844	DISTRACTOR	n/a	LTP346	ltpFR2	10	12	n/a	n/a	n/a	n/a	0	0	0
2428860	PROB	n/a	LTP346	ltpFR2	10	n/a	n/a	n/a	18	17	9	1	7
2430709	PROB	n/a	LTP346	ltpFR2	10	n/a	n/a	n/a	18	13	5	4	4
2433791	PROB	n/a	LTP346	ltpFR2	10	n/a	n/a	n/a	18	16	2	7	7
2436489	PROB	n/a	LTP346	ltpFR2	10	n/a	n/a	n/a	18	8	2	3	3
2439271	PROB	n/a	LTP346	ltpFR2	10	n/a	n/a	n/a	18	10	2	5	3
2441004	PROB	n/a	LTP346	ltpFR2	10	n/a	n/a	n/a	18	10	3	5	2
2442054	PROB	n/a	LTP346	ltpFR2	10	n/a	n/a	n/a	18	6	1	2	3
2443670	PROB	n/a	LTP346	ltpFR2	10	n/a	n/a	n/a	18	11	8	1	2
2445135	PROB	n/a	LTP346	ltpFR2	10	n/a	n/a	n/a	18	20	9	5	7
2447433	PROB	n/a	LTP346	ltpFR2	10	n/a	n/a	n/a	18	12	3	5	4
2449633	PROB	n/a	LTP346	ltpFR2	10	n/a	n/a	n/a	18	12	3	7	2
2450835	STOP	n/a	LTP346	ltpFR2	10	n/a	n/a	n/a	18	n/a	n/a	n/a	n/a
2453582	REC_START	n/a	LTP346	ltpFR2	10	12	n/a	n/a	n/a	n/a	0	0	0
2453768	REC_WORD	wordpools/wasnorm_wordpool_576.txt	LTP346	ltpFR2	10	12	BURGLAR	200	n/a	n/a	0	0	0
2454358	REC_WORD	wordpools/wasnorm_wordpool_576.txt	LTP346	ltpFR2	10	12	CONVICT	371	n/a	n/a	0	0	0
2455089	REC_WORD	wordpools/wasnorm_wordpool_576.txt	LTP346	ltpFR2	10	12	POLICE	1098	n/a	n/a	0	0	0
2462932	REC_WORD	wordpools/wasnorm_wordpool_576.txt	LTP346	ltpFR2	10	12	SUSPECT	1415	n/a	n/a	0	0	0
2463707	REC_WORD	wordpools/wasnorm_wordpool_576.txt	LTP346	ltpFR2	10	12	STATUE	1374	n/a	n/a	0	0	0
2484155	REC_WORD	wordpools/wasnorm_wordpool_576.txt	LTP346	ltpFR2	10	12	DORM	488	n/a	n/a	0	0	0
2485187	REC_WORD	wordpools/wasnorm_wordpool_576.txt	LTP346	ltpFR2	10	12	PIGEON	1065	n/a	n/a	0	0	0
2485858	REC_WORD	wordpools/wasnorm_wordpool_576.txt	LTP346	ltpFR2	10	12	PANTHER	1009	n/a	n/a	0	0	0
2544036	DISTRACTOR	n/a	LTP346	ltpFR2	10	13	n/a	n/a	n/a	n/a	0	0	0
2544037	START	n/a	LTP346	ltpFR2	10	n/a	n/a	n/a	19	n/a	n/a	n/a	n/a
2544053	PROB	n/a	LTP346	ltpFR2	10	n/a	n/a	n/a	19	12	2	9	1
2545568	PROB	n/a	LTP346	ltpFR2	10	n/a	n/a	n/a	19	12	5	1	6
2547868	PROB	n/a	LTP346	ltpFR2	10	n/a	n/a	n/a	19	19	7	4	8
2549634	PROB	n/a	LTP346	ltpFR2	10	n/a	n/a	n/a	19	13	6	2	5
2550983	PROB	n/a	LTP346	ltpFR2	10	n/a	n/a	n/a	19	19	6	8	5
2553181	PROB	n/a	LTP346	ltpFR2	10	n/a	n/a	n/a	19	18	9	7	2
2554981	PROB	n/a	LTP346	ltpFR2	10	n/a	n/a	n/a	19	12	3	3	6
2556064	PROB	n/a	LTP346	ltpFR2	10	n/a	n/a	n/a	19	12	2	4	6
2557162	PROB	n/a	LTP346	ltpFR2	10	n/a	n/a	n/a	19	11	2	7	2
2558779	PROB	n/a	LTP346	ltpFR2	10	n/a	n/a	n/a	19	18	5	7	6
2560561	PROB	n/a	LTP346	ltpFR2	10	n/a	n/a	n/a	19	22	8	6	8
2561911	PROB	n/a	LTP346	ltpFR2	10	n/a	n/a	n/a	19	7	3	2	2
2563326	PROB	n/a	LTP346	ltpFR2	10	n/a	n/a	n/a	19	13	1	8	4
2568027	STOP	n/a	LTP346	ltpFR2	10	n/a	n/a	n/a	19	n/a	n/a	n/a	n/a
2569041	WORD	wordpools/wasnorm_wordpool_576.txt	LTP346	ltpFR2	10	13	CLAM	315	n/a	n/a	0	0	0
2571606	WORD	wordpools/wasnorm_wordpool_576.txt	LTP346	ltpFR2	10	13	WAITRESS	1581	n/a	n/a	0	0	0
2574137	WORD	wordpools/wasnorm_wordpool_576.txt	LTP346	ltpFR2	10	13	SUBWAY	1400	n/a	n/a	0	0	0
2576604	WORD	wordpools/wasnorm_wordpool_576.txt	LTP346	ltpFR2	10	13	WAGON	1578	n/a	n/a	0	0	0
2579085	WORD	wordpools/wasnorm_wordpool_576.txt	LTP346	ltpFR2	10	13	VIRUS	1572	n/a	n/a	0	0	0
2581868	WORD	wordpools/wasnorm_wordpool_576.txt	LTP346	ltpFR2	10	13	YOLK	1633	n/a	n/a	0	0	0
2584465	WORD	wordpools/wasnorm_wordpool_576.txt	LTP346	ltpFR2	10	13	BLACKBOARD	133	n/a	n/a	0	0	0
2587114	WORD	wordpools/wasnorm_wordpool_576.txt	LTP346	ltpFR2	10	13	GHETTO	633	n/a	n/a	0	0	0
2589880	WORD	wordpools/wasnorm_wordpool_576.txt	LTP346	ltpFR2	10	13	PISTOL	1075	n/a	n/a	0	0	0
2592328	WORD	wordpools/wasnorm_wordpool_576.txt	LTP346	ltpFR2	10	13	KETCHUP	771	n/a	n/a	0	0	0
2594761	WORD	wordpools/wasnorm_wordpool_576.txt	LTP346	ltpFR2	10	13	INFANT	737	n/a	n/a	0	0	0
2597577	WORD	wordpools/wasnorm_wordpool_576.txt	LTP346	ltpFR2	10	13	POET	1095	n/a	n/a	0	0	0
2600391	WORD	wordpools/wasnorm_wordpool_576.txt	LTP346	ltpFR2	10	13	PARTNER	1017	n/a	n/a	0	0	0
2602957	WORD	wordpools/wasnorm_wordpool_576.txt	LTP346	ltpFR2	10	13	COUSIN	392	n/a	n/a	0	0	0
2605589	WORD	wordpools/wasnorm_wordpool_576.txt	LTP346	ltpFR2	10	13	TURTLE	1522	n/a	n/a	0	0	0
2608353	WORD	wordpools/wasnorm_wordpool_576.txt	LTP346	ltpFR2	10	13	PLATE	1086	n/a	n/a	0	0	0
2610870	WORD	wordpools/wasnorm_wordpool_576.txt	LTP346	ltpFR2	10	13	MARKET	871	n/a	n/a	0	0	0
2613418	WORD	wordpools/wasnorm_wordpool_576.txt	LTP346	ltpFR2	10	13	PLAZA	1088	n/a	n/a	0	0	0
2616034	WORD	wordpools/wasnorm_wordpool_576.txt	LTP346	ltpFR2	10	13	FOREST	593	n/a	n/a	0	0	0
2618649	WORD	wordpools/wasnorm_wordpool_576.txt	LTP346	ltpFR2	10	13	WAITER	1580	n/a	n/a	0	0	0
2621114	WORD	wordpools/wasnorm_wordpool_576.txt	LTP346	ltpFR2	10	13	PUDDING	1139	n/a	n/a	0	0	0
2623597	WORD	wordpools/wasnorm_wordpool_576.txt	LTP346	ltpFR2	10	13	UMPIRE	1535	n/a	n/a	0	0	0
2626161	WORD	wordpools/wasnorm_wordpool_576.txt	LTP346	ltpFR2	10	13	SALMON	1227	n/a	n/a	0	0	0
2628794	WORD	wordpools/wasnorm_wordpool_576.txt	LTP346	ltpFR2	10	13	RIFLE	1192	n/a	n/a	0	0	0
2630411	START	n/a	LTP346	ltpFR2	10	n/a	n/a	n/a	20	n/a	n/a	n/a	n/a
2631442	DISTRACTOR	n/a	LTP346	ltpFR2	10	13	n/a	n/a	n/a	n/a	0	0	0
2631459	PROB	n/a	LTP346	ltpFR2	10	n/a	n/a	n/a	20	23	9	8	6
2634658	PROB	n/a	LTP346	ltpFR2	10	n/a	n/a	n/a	20	16	6	5	5
2636373	PROB	n/a	LTP346	ltpFR2	10	n/a	n/a	n/a	20	19	5	7	7
2639521	PROB	n/a	LTP346	ltpFR2	10	n/a	n/a	n/a	20	17	7	5	5
2641888	PROB	n/a	LTP346	ltpFR2	10	n/a	n/a	n/a	20	11	2	1	8
2643203	PROB	n/a	LTP346	ltpFR2	10	n/a	n/a	n/a	20	15	6	3	6
2645169	PROB	n/a	LTP346	ltpFR2	10	n/a	n/a	n/a	20	10	7	2	1
2646418	PROB	n/a	LTP346	ltpFR2	10	n/a	n/a	n/a	20	9	1	6	2
2648267	PROB	n/a	LTP346	ltpFR2	10	n/a	n/a	n/a	20	11	2	3	6
2650233	PROB	n/a	LTP346	ltpFR2	10	n/a	n/a	n/a	20	16	7	5	4
2651883	PROB	n/a	LTP346	ltpFR2	10	n/a	n/a	n/a	20	15	7	2	6
2653723	STOP	n/a	LTP346	ltpFR2	10	n/a	n/a	n/a	20	n/a	n/a	n/a	n/a
2656247	REC_START	n/a	LTP346	ltpFR2	10	13	n/a	n/a	n/a	n/a	0	0	0
2657152	REC_WORD	wordpools/wasnorm_wordpool_576.txt	LTP346	ltpFR2	10	13	UMPIRE	1535	n/a	n/a	0	0	0
2657942	REC_WORD	wordpools/wasnorm_wordpool_576.txt	LTP346	ltpFR2	10	13	SALMON	1227	n/a	n/a	0	0	0
2659931	REC_WORD	wordpools/wasnorm_wordpool_576.txt	LTP346	ltpFR2	10	13	PLATE	1086	n/a	n/a	0	0	0
2660373	REC_WORD	wordpools/wasnorm_wordpool_576.txt	LTP346	ltpFR2	10	13	PLAZA	1088	n/a	n/a	0	0	0
2662713	REC_WORD	wordpools/wasnorm_wordpool_576.txt	LTP346	ltpFR2	10	13	POET	1095	n/a	n/a	0	0	0
2663226	REC_WORD	wordpools/wasnorm_wordpool_576.txt	LTP346	ltpFR2	10	13	KETCHUP	771	n/a	n/a	0	0	0
2663738	REC_WORD	wordpools/wasnorm_wordpool_576.txt	LTP346	ltpFR2	10	13	INFANT	737	n/a	n/a	0	0	0
2670944	REC_WORD	wordpools/wasnorm_wordpool_576.txt	LTP346	ltpFR2	10	13	BLACKBOARD	133	n/a	n/a	0	0	0
2671744	REC_WORD	wordpools/wasnorm_wordpool_576.txt	LTP346	ltpFR2	10	13	GHETTO	633	n/a	n/a	0	0	0
2672284	REC_WORD	wordpools/wasnorm_wordpool_576.txt	LTP346	ltpFR2	10	13	PISTOL	1075	n/a	n/a	0	0	0
2674750	REC_WORD	wordpools/wasnorm_wordpool_576.txt	LTP346	ltpFR2	10	13	VIRUS	1572	n/a	n/a	0	0	0
2676770	REC_WORD	wordpools/wasnorm_wordpool_576.txt	LTP346	ltpFR2	10	13	YOLK	1633	n/a	n/a	0	0	0
2776170	DISTRACTOR	n/a	LTP346	ltpFR2	10	14	n/a	n/a	n/a	n/a	0	0	0
2776170	START	n/a	LTP346	ltpFR2	10	n/a	n/a	n/a	21	n/a	n/a	n/a	n/a
2776187	PROB	n/a	LTP346	ltpFR2	10	n/a	n/a	n/a	21	12	7	1	4
2778452	PROB	n/a	LTP346	ltpFR2	10	n/a	n/a	n/a	21	13	2	2	9
2779986	PROB	n/a	LTP346	ltpFR2	10	n/a	n/a	n/a	21	7	2	4	1
2781551	PROB	n/a	LTP346	ltpFR2	10	n/a	n/a	n/a	21	13	9	2	2
2784067	PROB	n/a	LTP346	ltpFR2	10	n/a	n/a	n/a	21	15	2	3	8
2786666	PROB	n/a	LTP346	ltpFR2	10	n/a	n/a	n/a	21	15	3	3	9
2788481	PROB	n/a	LTP346	ltpFR2	10	n/a	n/a	n/a	21	11	2	1	8
2789964	PROB	n/a	LTP346	ltpFR2	10	n/a	n/a	n/a	21	19	9	7	3
2792013	PROB	n/a	LTP346	ltpFR2	10	n/a	n/a	n/a	21	17	2	6	9
2793729	PROB	n/a	LTP346	ltpFR2	10	n/a	n/a	n/a	21	10	1	6	3
2795045	PROB	n/a	LTP346	ltpFR2	10	n/a	n/a	n/a	21	11	1	4	6
2796110	PROB	n/a	LTP346	ltpFR2	10	n/a	n/a	n/a	21	6	1	3	2
2798077	PROB	n/a	LTP346	ltpFR2	10	n/a	n/a	n/a	21	14	5	4	5
2799130	STOP	n/a	LTP346	ltpFR2	10	n/a	n/a	n/a	21	n/a	n/a	n/a	n/a
2801341	WORD	wordpools/wasnorm_wordpool_576.txt	LTP346	ltpFR2	10	14	LAGOON	795	n/a	n/a	0	0	0
2803891	WORD	wordpools/wasnorm_wordpool_576.txt	LTP346	ltpFR2	10	14	NOVEL	960	n/a	n/a	0	0	0
2806639	WORD	wordpools/wasnorm_wordpool_576.txt	LTP346	ltpFR2	10	14	CLOUD	328	n/a	n/a	0	0	0
2809187	WORD	wordpools/wasnorm_wordpool_576.txt	LTP346	ltpFR2	10	14	RELISH	1183	n/a	n/a	0	0	0
2811870	WORD	wordpools/wasnorm_wordpool_576.txt	LTP346	ltpFR2	10	14	IDOL	733	n/a	n/a	0	0	0
2814551	WORD	wordpools/wasnorm_wordpool_576.txt	LTP346	ltpFR2	10	14	BADGE	68	n/a	n/a	0	0	0
2817333	WORD	wordpools/wasnorm_wordpool_576.txt	LTP346	ltpFR2	10	14	GUARD	667	n/a	n/a	0	0	0
2819916	WORD	wordpools/wasnorm_wordpool_576.txt	LTP346	ltpFR2	10	14	SPHINX	1349	n/a	n/a	0	0	0
2822464	WORD	wordpools/wasnorm_wordpool_576.txt	LTP346	ltpFR2	10	14	EYELASH	546	n/a	n/a	0	0	0
2825229	WORD	wordpools/wasnorm_wordpool_576.txt	LTP346	ltpFR2	10	14	MARSH	874	n/a	n/a	0	0	0
2827779	WORD	wordpools/wasnorm_wordpool_576.txt	LTP346	ltpFR2	10	14	LEADER	807	n/a	n/a	0	0	0
2830243	WORD	wordpools/wasnorm_wordpool_576.txt	LTP346	ltpFR2	10	14	COBRA	336	n/a	n/a	0	0	0
2833060	WORD	wordpools/wasnorm_wordpool_576.txt	LTP346	ltpFR2	10	14	EUROPE	541	n/a	n/a	0	0	0
2835808	WORD	wordpools/wasnorm_wordpool_576.txt	LTP346	ltpFR2	10	14	SHELF	1280	n/a	n/a	0	0	0
2838356	WORD	wordpools/wasnorm_wordpool_576.txt	LTP346	ltpFR2	10	14	SPIDER	1351	n/a	n/a	0	0	0
2841121	WORD	wordpools/wasnorm_wordpool_576.txt	LTP346	ltpFR2	10	14	CRICKET	408	n/a	n/a	0	0	0
2843654	WORD	wordpools/wasnorm_wordpool_576.txt	LTP346	ltpFR2	10	14	BACKBONE	66	n/a	n/a	0	0	0
2846102	WORD	wordpools/wasnorm_wordpool_576.txt	LTP346	ltpFR2	10	14	BODY	145	n/a	n/a	0	0	0
2848534	WORD	wordpools/wasnorm_wordpool_576.txt	LTP346	ltpFR2	10	14	CHAPEL	280	n/a	n/a	0	0	0
2851166	WORD	wordpools/wasnorm_wordpool_576.txt	LTP346	ltpFR2	10	14	SWAMP	1416	n/a	n/a	0	0	0
2853766	WORD	wordpools/wasnorm_wordpool_576.txt	LTP346	ltpFR2	10	14	PLAYGROUND	1087	n/a	n/a	0	0	0
2856480	WORD	wordpools/wasnorm_wordpool_576.txt	LTP346	ltpFR2	10	14	CUSTARD	429	n/a	n/a	0	0	0
2858947	WORD	wordpools/wasnorm_wordpool_576.txt	LTP346	ltpFR2	10	14	MISSILE	900	n/a	n/a	0	0	0
2861561	WORD	wordpools/wasnorm_wordpool_576.txt	LTP346	ltpFR2	10	14	LIGHTNING	820	n/a	n/a	0	0	0
2863177	START	n/a	LTP346	ltpFR2	10	n/a	n/a	n/a	22	n/a	n/a	n/a	n/a
2864120	DISTRACTOR	n/a	LTP346	ltpFR2	10	14	n/a	n/a	n/a	n/a	0	0	0
2864127	PROB	n/a	LTP346	ltpFR2	10	n/a	n/a	n/a	22	12	6	1	5
2867342	PROB	n/a	LTP346	ltpFR2	10	n/a	n/a	n/a	22	14	3	9	2
2869591	PROB	n/a	LTP346	ltpFR2	10	n/a	n/a	n/a	22	16	8	2	4
2871924	PROB	n/a	LTP346	ltpFR2	10	n/a	n/a	n/a	22	22	6	9	9
2873823	PROB	n/a	LTP346	ltpFR2	10	n/a	n/a	n/a	22	19	7	8	4
2876104	PROB	n/a	LTP346	ltpFR2	10	n/a	n/a	n/a	22	11	8	2	1
2877503	PROB	n/a	LTP346	ltpFR2	10	n/a	n/a	n/a	22	18	7	2	9
2879552	PROB	n/a	LTP346	ltpFR2	10	n/a	n/a	n/a	22	20	7	8	5
2882218	PROB	n/a	LTP346	ltpFR2	10	n/a	n/a	n/a	22	18	1	9	8
2883434	PROB	n/a	LTP346	ltpFR2	10	n/a	n/a	n/a	22	13	3	5	5
2885366	PROB	n/a	LTP346	ltpFR2	10	n/a	n/a	n/a	22	15	5	7	3
2886691	STOP	n/a	LTP346	ltpFR2	10	n/a	n/a	n/a	22	n/a	n/a	n/a	n/a
2888999	REC_START	n/a	LTP346	ltpFR2	10	14	n/a	n/a	n/a	n/a	0	0	0
2890259	REC_WORD	wordpools/wasnorm_wordpool_576.txt	LTP346	ltpFR2	10	14	LIGHTNING	820	n/a	n/a	0	0	0
2890789	REC_WORD	wordpools/wasnorm_wordpool_576.txt	LTP346	ltpFR2	10	14	MISSILE	900	n/a	n/a	0	0	0
2891409	REC_WORD	wordpools/wasnorm_wordpool_576.txt	LTP346	ltpFR2	10	14	PLAYGROUND	1087	n/a	n/a	0	0	0
2892125	REC_WORD	wordpools/wasnorm_wordpool_576.txt	LTP346	ltpFR2	10	14	CUSTARD	429	n/a	n/a	0	0	0
2894804	REC_WORD	wordpools/wasnorm_wordpool_576.txt	LTP346	ltpFR2	10	14	LAGOON	795	n/a	n/a	0	0	0
2895577	REC_WORD	wordpools/wasnorm_wordpool_576.txt	LTP346	ltpFR2	10	14	CLOUD	328	n/a	n/a	0	0	0
2897936	REC_WORD	wordpools/wasnorm_wordpool_576.txt	LTP346	ltpFR2	10	14	NOVEL	960	n/a	n/a	0	0	0
2898544	REC_WORD	wordpools/wasnorm_wordpool_576.txt	LTP346	ltpFR2	10	14	RELISH	1183	n/a	n/a	0	0	0
2899309	REC_WORD	wordpools/wasnorm_wordpool_576.txt	LTP346	ltpFR2	10	14	IDOL	733	n/a	n/a	0	0	0
2900342	REC_WORD	wordpools/wasnorm_wordpool_576.txt	LTP346	ltpFR2	10	14	BADGE	68	n/a	n/a	0	0	0
2900997	REC_WORD	wordpools/wasnorm_wordpool_576.txt	LTP346	ltpFR2	10	14	GUARD	667	n/a	n/a	0	0	0
2901670	REC_WORD	wordpools/wasnorm_wordpool_576.txt	LTP346	ltpFR2	10	14	SPHINX	1349	n/a	n/a	0	0	0
2902572	REC_WORD	wordpools/wasnorm_wordpool_576.txt	LTP346	ltpFR2	10	14	EYELASH	546	n/a	n/a	0	0	0
2913279	REC_WORD	wordpools/wasnorm_wordpool_576.txt	LTP346	ltpFR2	10	14	SPIDER	1351	n/a	n/a	0	0	0
2913948	REC_WORD	wordpools/wasnorm_wordpool_576.txt	LTP346	ltpFR2	10	14	CRICKET	408	n/a	n/a	0	0	0
2914426	REC_WORD	wordpools/wasnorm_wordpool_576.txt	LTP346	ltpFR2	10	14	SHELF	1280	n/a	n/a	0	0	0
2920930	REC_WORD	wordpools/wasnorm_wordpool_576.txt	LTP346	ltpFR2	10	14	BACKBONE	66	n/a	n/a	0	0	0
2921601	REC_WORD	wordpools/wasnorm_wordpool_576.txt	LTP346	ltpFR2	10	14	BODY	145	n/a	n/a	0	0	0
2922134	REC_WORD	wordpools/wasnorm_wordpool_576.txt	LTP346	ltpFR2	10	14	CHAPEL	280	n/a	n/a	0	0	0
2923681	REC_WORD	wordpools/wasnorm_wordpool_576.txt	LTP346	ltpFR2	10	14	SWAMP	1416	n/a	n/a	0	0	0
2979469	WORD	wordpools/wasnorm_wordpool_576.txt	LTP346	ltpFR2	10	15	BISON	131	n/a	n/a	0	0	0
2981902	WORD	wordpools/wasnorm_wordpool_576.txt	LTP346	ltpFR2	10	15	LETTUCE	814	n/a	n/a	0	0	0
2984601	WORD	wordpools/wasnorm_wordpool_576.txt	LTP346	ltpFR2	10	15	DOLPHIN	483	n/a	n/a	0	0	0
2987149	WORD	wordpools/wasnorm_wordpool_576.txt	LTP346	ltpFR2	10	15	PARROT	1015	n/a	n/a	0	0	0
2989832	WORD	wordpools/wasnorm_wordpool_576.txt	LTP346	ltpFR2	10	15	CABBAGE	210	n/a	n/a	0	0	0
2992664	WORD	wordpools/wasnorm_wordpool_576.txt	LTP346	ltpFR2	10	15	PEPPER	1047	n/a	n/a	0	0	0
2995361	WORD	wordpools/wasnorm_wordpool_576.txt	LTP346	ltpFR2	10	15	BREAST	171	n/a	n/a	0	0	0
2997928	WORD	wordpools/wasnorm_wordpool_576.txt	LTP346	ltpFR2	10	15	BANJO	82	n/a	n/a	0	0	0
3000476	WORD	wordpools/wasnorm_wordpool_576.txt	LTP346	ltpFR2	10	15	PIZZA	1079	n/a	n/a	0	0	0
3002942	WORD	wordpools/wasnorm_wordpool_576.txt	LTP346	ltpFR2	10	15	MAILBOX	857	n/a	n/a	0	0	0
3005691	WORD	wordpools/wasnorm_wordpool_576.txt	LTP346	ltpFR2	10	15	PEANUT	1032	n/a	n/a	0	0	0
3008138	WORD	wordpools/wasnorm_wordpool_576.txt	LTP346	ltpFR2	10	15	ROBIN	1199	n/a	n/a	0	0	0
3010921	WORD	wordpools/wasnorm_wordpool_576.txt	LTP346	ltpFR2	10	15	PACKAGE	997	n/a	n/a	0	0	0
3013670	WORD	wordpools/wasnorm_wordpool_576.txt	LTP346	ltpFR2	10	15	POCKET	1093	n/a	n/a	0	0	0
3016484	WORD	wordpools/wasnorm_wordpool_576.txt	LTP346	ltpFR2	10	15	YARN	1631	n/a	n/a	0	0	0
3018967	WORD	wordpools/wasnorm_wordpool_576.txt	LTP346	ltpFR2	10	15	FRANCE	601	n/a	n/a	0	0	0
3021583	WORD	wordpools/wasnorm_wordpool_576.txt	LTP346	ltpFR2	10	15	LONDON	843	n/a	n/a	0	0	0
3024230	WORD	wordpools/wasnorm_wordpool_576.txt	LTP346	ltpFR2	10	15	WOMAN	1620	n/a	n/a	0	0	0
3026880	WORD	wordpools/wasnorm_wordpool_576.txt	LTP346	ltpFR2	10	15	FEMALE	559	n/a	n/a	0	0	0
3029561	WORD	wordpools/wasnorm_wordpool_576.txt	LTP346	ltpFR2	10	15	STAR	1373	n/a	n/a	0	0	0
3032027	WORD	wordpools/wasnorm_wordpool_576.txt	LTP346	ltpFR2	10	15	BANKER	84	n/a	n/a	0	0	0
3034743	WORD	wordpools/wasnorm_wordpool_576.txt	LTP346	ltpFR2	10	15	AIRPLANE	12	n/a	n/a	0	0	0
3037224	WORD	wordpools/wasnorm_wordpool_576.txt	LTP346	ltpFR2	10	15	ZIPPER	1636	n/a	n/a	0	0	0
3039890	WORD	wordpools/wasnorm_wordpool_576.txt	LTP346	ltpFR2	10	15	COMPASS	358	n/a	n/a	0	0	0
3041505	START	n/a	LTP346	ltpFR2	10	n/a	n/a	n/a	23	n/a	n/a	n/a	n/a
3042529	DISTRACTOR	n/a	LTP346	ltpFR2	10	15	n/a	n/a	n/a	n/a	0	0	0
3042538	PROB	n/a	LTP346	ltpFR2	10	n/a	n/a	n/a	23	17	8	5	4
3046286	PROB	n/a	LTP346	ltpFR2	10	n/a	n/a	n/a	23	18	6	6	6
3047670	PROB	n/a	LTP346	ltpFR2	10	n/a	n/a	n/a	23	19	2	8	9
3049785	PROB	n/a	LTP346	ltpFR2	10	n/a	n/a	n/a	23	21	7	8	6
3051651	PROB	n/a	LTP346	ltpFR2	10	n/a	n/a	n/a	23	4	1	1	2
3053199	PROB	n/a	LTP346	ltpFR2	10	n/a	n/a	n/a	23	10	1	4	5
3054933	PROB	n/a	LTP346	ltpFR2	10	n/a	n/a	n/a	23	17	3	7	7
3057397	PROB	n/a	LTP346	ltpFR2	10	n/a	n/a	n/a	23	14	6	3	5
3059346	PROB	n/a	LTP346	ltpFR2	10	n/a	n/a	n/a	23	10	1	7	2
3061395	PROB	n/a	LTP346	ltpFR2	10	n/a	n/a	n/a	23	8	1	6	1
3062596	PROB	n/a	LTP346	ltpFR2	10	n/a	n/a	n/a	23	12	2	2	8
3065505	STOP	n/a	LTP346	ltpFR2	10	n/a	n/a	n/a	23	n/a	n/a	n/a	n/a
3067444	REC_START	n/a	LTP346	ltpFR2	10	15	n/a	n/a	n/a	n/a	0	0	0
3067539	REC_WORD	wordpools/wasnorm_wordpool_576.txt	LTP346	ltpFR2	10	15	AIRPLANE	12	n/a	n/a	0	0	0
3068192	REC_WORD	wordpools/wasnorm_wordpool_576.txt	LTP346	ltpFR2	10	15	ZIPPER	1636	n/a	n/a	0	0	0
3069006	REC_WORD	wordpools/wasnorm_wordpool_576.txt	LTP346	ltpFR2	10	15	COMPASS	358	n/a	n/a	0	0	0
3074373	REC_WORD	wordpools/wasnorm_wordpool_576.txt	LTP346	ltpFR2	10	15	LETTUCE	814	n/a	n/a	0	0	0
3074872	REC_WORD	wordpools/wasnorm_wordpool_576.txt	LTP346	ltpFR2	10	15	CABBAGE	210	n/a	n/a	0	0	0
3077374	REC_WORD	wordpools/wasnorm_wordpool_576.txt	LTP346	ltpFR2	10	15	BISON	131	n/a	n/a	0	0	0
3077972	REC_WORD	wordpools/wasnorm_wordpool_576.txt	LTP346	ltpFR2	10	15	PARROT	1015	n/a	n/a	0	0	0
3079164	REC_WORD	wordpools/wasnorm_wordpool_576.txt	LTP346	ltpFR2	10	15	DOLPHIN	483	n/a	n/a	0	0	0
3087265	REC_WORD	wordpools/wasnorm_wordpool_576.txt	LTP346	ltpFR2	10	15	FEMALE	559	n/a	n/a	0	0	0
3089426	REC_WORD	wordpools/wasnorm_wordpool_576.txt	LTP346	ltpFR2	10	15	WOMAN	1620	n/a	n/a	0	0	0
3090726	REC_WORD	wordpools/wasnorm_wordpool_576.txt	LTP346	ltpFR2	10	15	STAR	1373	n/a	n/a	0	0	0
3091422	REC_WORD	wordpools/wasnorm_wordpool_576.txt	LTP346	ltpFR2	10	15	BANKER	84	n/a	n/a	0	0	0
3091974	REC_WORD	wordpools/wasnorm_wordpool_576.txt	LTP346	ltpFR2	10	15	AIRPLANE	12	n/a	n/a	0	0	0
3092636	REC_WORD	wordpools/wasnorm_wordpool_576.txt	LTP346	ltpFR2	10	15	ZIPPER	1636	n/a	n/a	0	0	0
3157898	DISTRACTOR	n/a	LTP346	ltpFR2	10	16	n/a	n/a	n/a	n/a	0	0	0
3157899	START	n/a	LTP346	ltpFR2	10	n/a	n/a	n/a	24	n/a	n/a	n/a	n/a
3157915	PROB	n/a	LTP346	ltpFR2	10	n/a	n/a	n/a	24	19	6	6	7
3159631	PROB	n/a	LTP346	ltpFR2	10	n/a	n/a	n/a	24	10	1	4	5
3160880	PROB	n/a	LTP346	ltpFR2	10	n/a	n/a	n/a	24	14	5	2	7
3162145	PROB	n/a	LTP346	ltpFR2	10	n/a	n/a	n/a	24	12	3	6	3
3163295	PROB	n/a	LTP346	ltpFR2	10	n/a	n/a	n/a	24	11	5	3	3
3165110	PROB	n/a	LTP346	ltpFR2	10	n/a	n/a	n/a	24	9	3	1	5
3166644	PROB	n/a	LTP346	ltpFR2	10	n/a	n/a	n/a	24	6	3	2	1
3168109	PROB	n/a	LTP346	ltpFR2	10	n/a	n/a	n/a	24	17	2	8	7
3169442	PROB	n/a	LTP346	ltpFR2	10	n/a	n/a	n/a	24	12	5	2	5
3170508	PROB	n/a	LTP346	ltpFR2	10	n/a	n/a	n/a	24	14	5	3	6
3171875	PROB	n/a	LTP346	ltpFR2	10	n/a	n/a	n/a	24	14	3	7	4
3173156	PROB	n/a	LTP346	ltpFR2	10	n/a	n/a	n/a	24	16	4	6	6
3174957	PROB	n/a	LTP346	ltpFR2	10	n/a	n/a	n/a	24	19	4	7	8
3176505	PROB	n/a	LTP346	ltpFR2	10	n/a	n/a	n/a	24	17	2	8	7
3177755	PROB	n/a	LTP346	ltpFR2	10	n/a	n/a	n/a	24	17	8	4	3
3179170	PROB	n/a	LTP346	ltpFR2	10	n/a	n/a	n/a	24	10	2	6	2
3180843	STOP	n/a	LTP346	ltpFR2	10	n/a	n/a	n/a	24	n/a	n/a	n/a	n/a
3183003	WORD	wordpools/wasnorm_wordpool_576.txt	LTP346	ltpFR2	10	16	SWIMMER	1420	n/a	n/a	0	0	0
3185618	WORD	wordpools/wasnorm_wordpool_576.txt	LTP346	ltpFR2	10	16	DRESS	495	n/a	n/a	0	0	0
3188299	WORD	wordpools/wasnorm_wordpool_576.txt	LTP346	ltpFR2	10	16	WARDROBE	1587	n/a	n/a	0	0	0
3191049	WORD	wordpools/wasnorm_wordpool_576.txt	LTP346	ltpFR2	10	16	TRENCH	1503	n/a	n/a	0	0	0
3193496	WORD	wordpools/wasnorm_wordpool_576.txt	LTP346	ltpFR2	10	16	LAPEL	800	n/a	n/a	0	0	0
3196212	WORD	wordpools/wasnorm_wordpool_576.txt	LTP346	ltpFR2	10	16	ORCHID	982	n/a	n/a	0	0	0
3198678	WORD	wordpools/wasnorm_wordpool_576.txt	LTP346	ltpFR2	10	16	QUARTER	1148	n/a	n/a	0	0	0
3201326	WORD	wordpools/wasnorm_wordpool_576.txt	LTP346	ltpFR2	10	16	SILK	1307	n/a	n/a	0	0	0
3203926	WORD	wordpools/wasnorm_wordpool_576.txt	LTP346	ltpFR2	10	16	OINTMENT	974	n/a	n/a	0	0	0
3206624	WORD	wordpools/wasnorm_wordpool_576.txt	LTP346	ltpFR2	10	16	CAMEL	223	n/a	n/a	0	0	0
3209322	WORD	wordpools/wasnorm_wordpool_576.txt	LTP346	ltpFR2	10	16	HONEY	713	n/a	n/a	0	0	0
3212104	WORD	wordpools/wasnorm_wordpool_576.txt	LTP346	ltpFR2	10	16	DENIM	446	n/a	n/a	0	0	0
3214920	WORD	wordpools/wasnorm_wordpool_576.txt	LTP346	ltpFR2	10	16	PALACE	1006	n/a	n/a	0	0	0
3217485	WORD	wordpools/wasnorm_wordpool_576.txt	LTP346	ltpFR2	10	16	KITCHEN	778	n/a	n/a	0	0	0
3220166	WORD	wordpools/wasnorm_wordpool_576.txt	LTP346	ltpFR2	10	16	COOK	372	n/a	n/a	0	0	0
3222733	WORD	wordpools/wasnorm_wordpool_576.txt	LTP346	ltpFR2	10	16	CROWN	415	n/a	n/a	0	0	0
3225547	WORD	wordpools/wasnorm_wordpool_576.txt	LTP346	ltpFR2	10	16	GRAPE	654	n/a	n/a	0	0	0
3227997	WORD	wordpools/wasnorm_wordpool_576.txt	LTP346	ltpFR2	10	16	TABLET	1427	n/a	n/a	0	0	0
3230445	WORD	wordpools/wasnorm_wordpool_576.txt	LTP346	ltpFR2	10	16	GOBLIN	645	n/a	n/a	0	0	0
3233061	WORD	wordpools/wasnorm_wordpool_576.txt	LTP346	ltpFR2	10	16	LAMP	798	n/a	n/a	0	0	0
3235760	WORD	wordpools/wasnorm_wordpool_576.txt	LTP346	ltpFR2	10	16	BLENDER	136	n/a	n/a	0	0	0
3238474	WORD	wordpools/wasnorm_wordpool_576.txt	LTP346	ltpFR2	10	16	COCKTAIL	338	n/a	n/a	0	0	0
3241206	WORD	wordpools/wasnorm_wordpool_576.txt	LTP346	ltpFR2	10	16	SHIRT	1287	n/a	n/a	0	0	0
3243806	WORD	wordpools/wasnorm_wordpool_576.txt	LTP346	ltpFR2	10	16	PICTURE	1061	n/a	n/a	0	0	0
3245421	START	n/a	LTP346	ltpFR2	10	n/a	n/a	n/a	25	n/a	n/a	n/a	n/a
3246383	DISTRACTOR	n/a	LTP346	ltpFR2	10	16	n/a	n/a	n/a	n/a	0	0	0
3246387	PROB	n/a	LTP346	ltpFR2	10	n/a	n/a	n/a	25	9	1	3	5
3248236	PROB	n/a	LTP346	ltpFR2	10	n/a	n/a	n/a	25	20	9	8	3
3249886	PROB	n/a	LTP346	ltpFR2	10	n/a	n/a	n/a	25	16	7	5	4
3251852	PROB	n/a	LTP346	ltpFR2	10	n/a	n/a	n/a	25	21	5	7	9
3253667	PROB	n/a	LTP346	ltpFR2	10	n/a	n/a	n/a	25	13	8	4	1
3255067	PROB	n/a	LTP346	ltpFR2	10	n/a	n/a	n/a	25	13	6	3	4
3257415	PROB	n/a	LTP346	ltpFR2	10	n/a	n/a	n/a	25	18	9	6	3
3259214	PROB	n/a	LTP346	ltpFR2	10	n/a	n/a	n/a	25	21	3	9	9
3260814	PROB	n/a	LTP346	ltpFR2	10	n/a	n/a	n/a	25	19	9	5	5
3262630	PROB	n/a	LTP346	ltpFR2	10	n/a	n/a	n/a	25	12	2	6	4
3265277	PROB	n/a	LTP346	ltpFR2	10	n/a	n/a	n/a	25	18	6	3	9
3268090	STOP	n/a	LTP346	ltpFR2	10	n/a	n/a	n/a	25	n/a	n/a	n/a	n/a
3271225	REC_START	n/a	LTP346	ltpFR2	10	16	n/a	n/a	n/a	n/a	0	0	0
3273686	REC_WORD	wordpools/wasnorm_wordpool_576.txt	LTP346	ltpFR2	10	16	BLENDER	136	n/a	n/a	0	0	0
3274294	REC_WORD	wordpools/wasnorm_wordpool_576.txt	LTP346	ltpFR2	10	16	COCKTAIL	338	n/a	n/a	0	0	0
3276533	REC_WORD	wordpools/wasnorm_wordpool_576.txt	LTP346	ltpFR2	10	16	SHIRT	1287	n/a	n/a	0	0	0
3279851	REC_WORD	wordpools/wasnorm_wordpool_576.txt	LTP346	ltpFR2	10	16	SWIMMER	1420	n/a	n/a	0	0	0
3280552	REC_WORD	wordpools/wasnorm_wordpool_576.txt	LTP346	ltpFR2	10	16	TRENCH	1503	n/a	n/a	0	0	0
3291466	REC_WORD	wordpools/wasnorm_wordpool_576.txt	LTP346	ltpFR2	10	16	WARDROBE	1587	n/a	n/a	0	0	0
3296244	REC_WORD	wordpools/wasnorm_wordpool_576.txt	LTP346	ltpFR2	10	16	DRESS	495	n/a	n/a	0	0	0
3311920	REC_WORD	wordpools/wasnorm_wordpool_576.txt	LTP346	ltpFR2	10	16	LAMP	798	n/a	n/a	0	0	0
3313587	REC_WORD	wordpools/wasnorm_wordpool_576.txt	LTP346	ltpFR2	10	16	TABLET	1427	n/a	n/a	0	0	0
3314287	REC_WORD	wordpools/wasnorm_wordpool_576.txt	LTP346	ltpFR2	10	16	GOBLIN	645	n/a	n/a	0	0	0
3319582	REC_WORD	wordpools/wasnorm_wordpool_576.txt	LTP346	ltpFR2	10	16	PALACE	1006	n/a	n/a	0	0	0
3321380	REC_WORD	wordpools/wasnorm_wordpool_576.txt	LTP346	ltpFR2	10	16	KITCHEN	778	n/a	n/a	0	0	0
3323071	REC_WORD	wordpools/wasnorm_wordpool_576.txt	LTP346	ltpFR2	10	16	COOK	372	n/a	n/a	0	0	0
3324308	REC_WORD	wordpools/wasnorm_wordpool_576.txt	LTP346	ltpFR2	10	16	GRAPE	654	n/a	n/a	0	0	0
3325419	REC_WORD	wordpools/wasnorm_wordpool_576.txt	LTP346	ltpFR2	10	16	CROWN	415	n/a	n/a	0	0	0
3334069	REC_WORD	wordpools/wasnorm_wordpool_576.txt	LTP346	ltpFR2	10	16	HONEY	713	n/a	n/a	0	0	0
3335210	REC_WORD	wordpools/wasnorm_wordpool_576.txt	LTP346	ltpFR2	10	16	QUARTER	1148	n/a	n/a	0	0	0
3335672	REC_WORD	wordpools/wasnorm_wordpool_576.txt	LTP346	ltpFR2	10	16	SILK	1307	n/a	n/a	0	0	0
3336574	REC_WORD	wordpools/wasnorm_wordpool_576.txt	LTP346	ltpFR2	10	16	CAMEL	223	n/a	n/a	0	0	0
3337181	REC_WORD	wordpools/wasnorm_wordpool_576.txt	LTP346	ltpFR2	10	16	OINTMENT	974	n/a	n/a	0	0	0
3347771	REST_REWET	n/a	LTP346	ltpFR2	10	16	n/a	n/a	n/a	n/a	0	0	0
3426431	WORD	wordpools/wasnorm_wordpool_576.txt	LTP346	ltpFR2	10	17	LUGGAGE	847	n/a	n/a	0	0	0
3428930	WORD	wordpools/wasnorm_wordpool_576.txt	LTP346	ltpFR2	10	17	BANK	83	n/a	n/a	0	0	0
3431378	WORD	wordpools/wasnorm_wordpool_576.txt	LTP346	ltpFR2	10	17	MESSAGE	888	n/a	n/a	0	0	0
3433911	WORD	wordpools/wasnorm_wordpool_576.txt	LTP346	ltpFR2	10	17	EAGLE	512	n/a	n/a	0	0	0
3436660	WORD	wordpools/wasnorm_wordpool_576.txt	LTP346	ltpFR2	10	17	TRANSPLANT	1496	n/a	n/a	0	0	0
3439208	WORD	wordpools/wasnorm_wordpool_576.txt	LTP346	ltpFR2	10	17	HEART	697	n/a	n/a	0	0	0
3441708	WORD	wordpools/wasnorm_wordpool_576.txt	LTP346	ltpFR2	10	17	PILOT	1070	n/a	n/a	0	0	0
3444222	WORD	wordpools/wasnorm_wordpool_576.txt	LTP346	ltpFR2	10	17	GREASE	660	n/a	n/a	0	0	0
3446822	WORD	wordpools/wasnorm_wordpool_576.txt	LTP346	ltpFR2	10	17	DOUGHNUT	490	n/a	n/a	0	0	0
3449469	WORD	wordpools/wasnorm_wordpool_576.txt	LTP346	ltpFR2	10	17	TYPIST	1532	n/a	n/a	0	0	0
3452268	WORD	wordpools/wasnorm_wordpool_576.txt	LTP346	ltpFR2	10	17	TREAT	1501	n/a	n/a	0	0	0
3455018	WORD	wordpools/wasnorm_wordpool_576.txt	LTP346	ltpFR2	10	17	EXPERT	543	n/a	n/a	0	0	0
3457616	WORD	wordpools/wasnorm_wordpool_576.txt	LTP346	ltpFR2	10	17	MARS	873	n/a	n/a	0	0	0
3460197	WORD	wordpools/wasnorm_wordpool_576.txt	LTP346	ltpFR2	10	17	BUREAU	199	n/a	n/a	0	0	0
3462947	WORD	wordpools/wasnorm_wordpool_576.txt	LTP346	ltpFR2	10	17	COLONEL	348	n/a	n/a	0	0	0
3465561	WORD	wordpools/wasnorm_wordpool_576.txt	LTP346	ltpFR2	10	17	LABEL	790	n/a	n/a	0	0	0
3468093	WORD	wordpools/wasnorm_wordpool_576.txt	LTP346	ltpFR2	10	17	LODGE	839	n/a	n/a	0	0	0
3470860	WORD	wordpools/wasnorm_wordpool_576.txt	LTP346	ltpFR2	10	17	CABIN	211	n/a	n/a	0	0	0
3473474	WORD	wordpools/wasnorm_wordpool_576.txt	LTP346	ltpFR2	10	17	BABY	64	n/a	n/a	0	0	0
3475924	WORD	wordpools/wasnorm_wordpool_576.txt	LTP346	ltpFR2	10	17	BUGGY	188	n/a	n/a	0	0	0
3478522	WORD	wordpools/wasnorm_wordpool_576.txt	LTP346	ltpFR2	10	17	CLOTHES	327	n/a	n/a	0	0	0
3481021	WORD	wordpools/wasnorm_wordpool_576.txt	LTP346	ltpFR2	10	17	DIME	466	n/a	n/a	0	0	0
3483552	WORD	wordpools/wasnorm_wordpool_576.txt	LTP346	ltpFR2	10	17	SHARK	1275	n/a	n/a	0	0	0
3486118	WORD	wordpools/wasnorm_wordpool_576.txt	LTP346	ltpFR2	10	17	TUNNEL	1519	n/a	n/a	0	0	0
3487735	START	n/a	LTP346	ltpFR2	10	n/a	n/a	n/a	26	n/a	n/a	n/a	n/a
3488601	DISTRACTOR	n/a	LTP346	ltpFR2	10	17	n/a	n/a	n/a	n/a	0	0	0
3488617	PROB	n/a	LTP346	ltpFR2	10	n/a	n/a	n/a	26	14	5	5	4
3491033	PROB	n/a	LTP346	ltpFR2	10	n/a	n/a	n/a	26	22	8	5	9
3494631	PROB	n/a	LTP346	ltpFR2	10	n/a	n/a	n/a	26	24	8	9	7
3495897	PROB	n/a	LTP346	ltpFR2	10	n/a	n/a	n/a	26	19	3	9	7
3498495	PROB	n/a	LTP346	ltpFR2	10	n/a	n/a	n/a	26	15	1	9	5
3500895	PROB	n/a	LTP346	ltpFR2	10	n/a	n/a	n/a	26	11	3	2	6
3504027	PROB	n/a	LTP346	ltpFR2	10	n/a	n/a	n/a	26	15	8	1	6
3505592	PROB	n/a	LTP346	ltpFR2	10	n/a	n/a	n/a	26	15	6	2	7
3507575	PROB	n/a	LTP346	ltpFR2	10	n/a	n/a	n/a	26	17	4	4	9
3509857	PROB	n/a	LTP346	ltpFR2	10	n/a	n/a	n/a	26	14	8	3	3
3511466	STOP	n/a	LTP346	ltpFR2	10	n/a	n/a	n/a	26	n/a	n/a	n/a	n/a
3513639	REC_START	n/a	LTP346	ltpFR2	10	17	n/a	n/a	n/a	n/a	0	0	0
3513639	REC_WORD	wordpools/wasnorm_wordpool_576.txt	LTP346	ltpFR2	10	17	SHARK	1275	n/a	n/a	0	0	0
3514422	REC_WORD	wordpools/wasnorm_wordpool_576.txt	LTP346	ltpFR2	10	17	DIME	466	n/a	n/a	0	0	0
3514974	REC_WORD	wordpools/wasnorm_wordpool_576.txt	LTP346	ltpFR2	10	17	TUNNEL	1519	n/a	n/a	0	0	0
3517171	REC_WORD	wordpools/wasnorm_wordpool_576.txt	LTP346	ltpFR2	10	17	LUGGAGE	847	n/a	n/a	0	0	0
3519143	REC_WORD	wordpools/wasnorm_wordpool_576.txt	LTP346	ltpFR2	10	17	BANK	83	n/a	n/a	0	0	0
3519616	REC_WORD	wordpools/wasnorm_wordpool_576.txt	LTP346	ltpFR2	10	17	MESSAGE	888	n/a	n/a	0	0	0
3520558	REC_WORD	wordpools/wasnorm_wordpool_576.txt	LTP346	ltpFR2	10	17	PILOT	1070	n/a	n/a	0	0	0
3523330	REC_WORD	wordpools/wasnorm_wordpool_576.txt	LTP346	ltpFR2	10	17	EAGLE	512	n/a	n/a	0	0	0
3524335	REC_WORD	wordpools/wasnorm_wordpool_576.txt	LTP346	ltpFR2	10	17	HEART	697	n/a	n/a	0	0	0
3524941	REC_WORD	wordpools/wasnorm_wordpool_576.txt	LTP346	ltpFR2	10	17	TRANSPLANT	1496	n/a	n/a	0	0	0
3531580	REC_WORD	wordpools/wasnorm_wordpool_576.txt	LTP346	ltpFR2	10	17	GREASE	660	n/a	n/a	0	0	0
3532410	REC_WORD	wordpools/wasnorm_wordpool_576.txt	LTP346	ltpFR2	10	17	DOUGHNUT	490	n/a	n/a	0	0	0
3544775	REC_WORD	wordpools/wasnorm_wordpool_576.txt	LTP346	ltpFR2	10	17	EXPERT	543	n/a	n/a	0	0	0
3549887	REC_WORD	wordpools/wasnorm_wordpool_576.txt	LTP346	ltpFR2	10	17	MARS	873	n/a	n/a	0	0	0
3560614	REC_WORD	wordpools/wasnorm_wordpool_576.txt	LTP346	ltpFR2	10	17	COLONEL	348	n/a	n/a	0	0	0
3563904	REC_WORD	wordpools/wasnorm_wordpool_576.txt	LTP346	ltpFR2	10	17	BUREAU	199	n/a	n/a	0	0	0
3565816	REC_WORD	wordpools/wasnorm_wordpool_576.txt	LTP346	ltpFR2	10	17	LABEL	790	n/a	n/a	0	0	0
3567285	REC_WORD	wordpools/wasnorm_wordpool_576.txt	LTP346	ltpFR2	10	17	LODGE	839	n/a	n/a	0	0	0
3569602	REC_WORD	wordpools/wasnorm_wordpool_576.txt	LTP346	ltpFR2	10	17	CABIN	211	n/a	n/a	0	0	0
3604077	DISTRACTOR	n/a	LTP346	ltpFR2	10	18	n/a	n/a	n/a	n/a	0	0	0
3604077	START	n/a	LTP346	ltpFR2	10	n/a	n/a	n/a	27	n/a	n/a	n/a	n/a
3604092	PROB	n/a	LTP346	ltpFR2	10	n/a	n/a	n/a	27	17	8	7	2
3606059	PROB	n/a	LTP346	ltpFR2	10	n/a	n/a	n/a	27	17	3	5	9
3607808	PROB	n/a	LTP346	ltpFR2	10	n/a	n/a	n/a	27	15	6	3	6
3609423	PROB	n/a	LTP346	ltpFR2	10	n/a	n/a	n/a	27	16	2	5	9
3611306	PROB	n/a	LTP346	ltpFR2	10	n/a	n/a	n/a	27	20	9	5	6
3612939	PROB	n/a	LTP346	ltpFR2	10	n/a	n/a	n/a	27	21	5	8	8
3615005	PROB	n/a	LTP346	ltpFR2	10	n/a	n/a	n/a	27	12	4	2	6
3616220	PROB	n/a	LTP346	ltpFR2	10	n/a	n/a	n/a	27	24	6	9	9
3618686	PROB	n/a	LTP346	ltpFR2	10	n/a	n/a	n/a	27	13	9	2	2
3620235	PROB	n/a	LTP346	ltpFR2	10	n/a	n/a	n/a	27	13	7	3	3
3621451	PROB	n/a	LTP346	ltpFR2	10	n/a	n/a	n/a	27	18	5	6	7
3623116	PROB	n/a	LTP346	ltpFR2	10	n/a	n/a	n/a	27	8	1	1	6
3624449	PROB	n/a	LTP346	ltpFR2	10	n/a	n/a	n/a	27	12	6	3	3
3626431	PROB	n/a	LTP346	ltpFR2	10	n/a	n/a	n/a	27	10	1	8	1
3627587	STOP	n/a	LTP346	ltpFR2	10	n/a	n/a	n/a	27	n/a	n/a	n/a	n/a
3629014	WORD	wordpools/wasnorm_wordpool_576.txt	LTP346	ltpFR2	10	18	TROUT	1511	n/a	n/a	0	0	0
3631680	WORD	wordpools/wasnorm_wordpool_576.txt	LTP346	ltpFR2	10	18	GRAVEL	659	n/a	n/a	0	0	0
3634211	WORD	wordpools/wasnorm_wordpool_576.txt	LTP346	ltpFR2	10	18	MASK	876	n/a	n/a	0	0	0
3636844	WORD	wordpools/wasnorm_wordpool_576.txt	LTP346	ltpFR2	10	18	JUNGLE	764	n/a	n/a	0	0	0
3639392	WORD	wordpools/wasnorm_wordpool_576.txt	LTP346	ltpFR2	10	18	FRIAR	605	n/a	n/a	0	0	0
3642157	WORD	wordpools/wasnorm_wordpool_576.txt	LTP346	ltpFR2	10	18	CEILING	265	n/a	n/a	0	0	0
3644673	WORD	wordpools/wasnorm_wordpool_576.txt	LTP346	ltpFR2	10	18	FLOWER	584	n/a	n/a	0	0	0
3647371	WORD	wordpools/wasnorm_wordpool_576.txt	LTP346	ltpFR2	10	18	LILY	821	n/a	n/a	0	0	0
3650136	WORD	wordpools/wasnorm_wordpool_576.txt	LTP346	ltpFR2	10	18	JUDGE	761	n/a	n/a	0	0	0
3652919	WORD	wordpools/wasnorm_wordpool_576.txt	LTP346	ltpFR2	10	18	JURY	766	n/a	n/a	0	0	0
3655718	WORD	wordpools/wasnorm_wordpool_576.txt	LTP346	ltpFR2	10	18	SIDEWALK	1303	n/a	n/a	0	0	0
3658516	WORD	wordpools/wasnorm_wordpool_576.txt	LTP346	ltpFR2	10	18	CHURCH	307	n/a	n/a	0	0	0
3660965	WORD	wordpools/wasnorm_wordpool_576.txt	LTP346	ltpFR2	10	18	FIDDLE	561	n/a	n/a	0	0	0
3663413	WORD	wordpools/wasnorm_wordpool_576.txt	LTP346	ltpFR2	10	18	GAVEL	627	n/a	n/a	0	0	0
3666013	WORD	wordpools/wasnorm_wordpool_576.txt	LTP346	ltpFR2	10	18	BRIEFCASE	175	n/a	n/a	0	0	0
3668444	WORD	wordpools/wasnorm_wordpool_576.txt	LTP346	ltpFR2	10	18	COWBOY	395	n/a	n/a	0	0	0
3671243	WORD	wordpools/wasnorm_wordpool_576.txt	LTP346	ltpFR2	10	18	CATCHER	258	n/a	n/a	0	0	0
3673809	WORD	wordpools/wasnorm_wordpool_576.txt	LTP346	ltpFR2	10	18	BROTHER	179	n/a	n/a	0	0	0
3676540	WORD	wordpools/wasnorm_wordpool_576.txt	LTP346	ltpFR2	10	18	RUST	1219	n/a	n/a	0	0	0
3679205	WORD	wordpools/wasnorm_wordpool_576.txt	LTP346	ltpFR2	10	18	VALVE	1546	n/a	n/a	0	0	0
3681755	WORD	wordpools/wasnorm_wordpool_576.txt	LTP346	ltpFR2	10	18	PISTON	1076	n/a	n/a	0	0	0
3684286	WORD	wordpools/wasnorm_wordpool_576.txt	LTP346	ltpFR2	10	18	JOURNAL	760	n/a	n/a	0	0	0
3686902	WORD	wordpools/wasnorm_wordpool_576.txt	LTP346	ltpFR2	10	18	CRAB	397	n/a	n/a	0	0	0
3689601	WORD	wordpools/wasnorm_wordpool_576.txt	LTP346	ltpFR2	10	18	CAFE	216	n/a	n/a	0	0	0
3691216	START	n/a	LTP346	ltpFR2	10	n/a	n/a	n/a	28	n/a	n/a	n/a	n/a
3692197	DISTRACTOR	n/a	LTP346	ltpFR2	10	18	n/a	n/a	n/a	n/a	0	0	0
3692199	PROB	n/a	LTP346	ltpFR2	10	n/a	n/a	n/a	28	9	5	3	1
3696447	PROB	n/a	LTP346	ltpFR2	10	n/a	n/a	n/a	28	22	7	7	8
3698896	PROB	n/a	LTP346	ltpFR2	10	n/a	n/a	n/a	28	11	3	1	7
3700545	PROB	n/a	LTP346	ltpFR2	10	n/a	n/a	n/a	28	25	8	8	9
3704977	PROB	n/a	LTP346	ltpFR2	10	n/a	n/a	n/a	28	4	2	1	1
3707358	PROB	n/a	LTP346	ltpFR2	10	n/a	n/a	n/a	28	19	6	4	9
3709791	PROB	n/a	LTP346	ltpFR2	10	n/a	n/a	n/a	28	12	5	1	6
3710924	PROB	n/a	LTP346	ltpFR2	10	n/a	n/a	n/a	28	16	7	2	7
3712389	PROB	n/a	LTP346	ltpFR2	10	n/a	n/a	n/a	28	17	9	2	6
3713803	STOP	n/a	LTP346	ltpFR2	10	n/a	n/a	n/a	28	n/a	n/a	n/a	n/a
3717021	REC_START	n/a	LTP346	ltpFR2	10	18	n/a	n/a	n/a	n/a	0	0	0
3717277	REC_WORD	wordpools/wasnorm_wordpool_576.txt	LTP346	ltpFR2	10	18	JOURNAL	760	n/a	n/a	0	0	0
3717889	REC_WORD	wordpools/wasnorm_wordpool_576.txt	LTP346	ltpFR2	10	18	CRAB	397	n/a	n/a	0	0	0
3718652	REC_WORD	wordpools/wasnorm_wordpool_576.txt	LTP346	ltpFR2	10	18	PISTON	1076	n/a	n/a	0	0	0
3719367	REC_WORD	wordpools/wasnorm_wordpool_576.txt	LTP346	ltpFR2	10	18	CAFE	216	n/a	n/a	0	0	0
3722930	REC_WORD	wordpools/wasnorm_wordpool_576.txt	LTP346	ltpFR2	10	18	CATCHER	258	n/a	n/a	0	0	0
3723566	REC_WORD	wordpools/wasnorm_wordpool_576.txt	LTP346	ltpFR2	10	18	BROTHER	179	n/a	n/a	0	0	0
3724111	REC_WORD	wordpools/wasnorm_wordpool_576.txt	LTP346	ltpFR2	10	18	RUBY	1214	n/a	n/a	0	0	0
3724773	REC_WORD	wordpools/wasnorm_wordpool_576.txt	LTP346	ltpFR2	10	18	VALVE	1546	n/a	n/a	0	0	0
3754265	REC_WORD	wordpools/wasnorm_wordpool_576.txt	LTP346	ltpFR2	10	18	JUDGE	761	n/a	n/a	0	0	0
3754833	REC_WORD	wordpools/wasnorm_wordpool_576.txt	LTP346	ltpFR2	10	18	JURY	766	n/a	n/a	0	0	0
3756335	REC_WORD	wordpools/wasnorm_wordpool_576.txt	LTP346	ltpFR2	10	18	GAVEL	627	n/a	n/a	0	0	0
3759571	REC_WORD	wordpools/wasnorm_wordpool_576.txt	LTP346	ltpFR2	10	18	TROUT	1511	n/a	n/a	0	0	0
3762935	REC_WORD	wordpools/wasnorm_wordpool_576.txt	LTP346	ltpFR2	10	18	GRAVEL	659	n/a	n/a	0	0	0
3764095	REC_WORD	wordpools/wasnorm_wordpool_576.txt	LTP346	ltpFR2	10	18	SIDEWALK	1303	n/a	n/a	0	0	0
3764933	REC_WORD	wordpools/wasnorm_wordpool_576.txt	LTP346	ltpFR2	10	18	CHURCH	307	n/a	n/a	0	0	0
