mstime	trial_type	stim_file	subject	experiment	session	trial	task	item_name	item_num	recog_resp	recog_conf	resp	color_r	color_g	color_b	case	font
0	SESS_START	n/a	LTP231	ltpFR	5	n/a	n/a	n/a	n/a	1	4	n/a	n/a	n/a	n/a	n/a	n/a
98817	WORD	wordpools/wasnorm_wordpool_less_exclusions.txt	LTP231	ltpFR	5	1	0	CURTAIN	427	1	n/a	1	0.57763671875	0.412841796875	1	upper	amplitud.ttf
102896	WORD	wordpools/wasnorm_wordpool_less_exclusions.txt	LTP231	ltpFR	5	1	0	MOSS	918	n/a	n/a	0	0.57763671875	0.412841796875	1	upper	amplitud.ttf
106789	WORD	wordpools/wasnorm_wordpool_less_exclusions.txt	LTP231	ltpFR	5	1	1	ACORN	3	n/a	n/a	1	0.422607421875	0.5869140625	0	lower	zerothre.ttf
110866	WORD	wordpools/wasnorm_wordpool_less_exclusions.txt	LTP231	ltpFR	5	1	1	COOKBOOK	373	n/a	n/a	0	0.422607421875	0.5869140625	0	lower	zerothre.ttf
114694	WORD	wordpools/wasnorm_wordpool_less_exclusions.txt	LTP231	ltpFR	5	1	1	LEADER	807	n/a	n/a	1	0.422607421875	0.5869140625	0	lower	zerothre.ttf
118922	WORD	wordpools/wasnorm_wordpool_less_exclusions.txt	LTP231	ltpFR	5	1	1	COLONEL	348	n/a	n/a	1	0.422607421875	0.5869140625	0	lower	zerothre.ttf
122848	WORD	wordpools/wasnorm_wordpool_less_exclusions.txt	LTP231	ltpFR	5	1	1	ANT	25	n/a	n/a	1	0.422607421875	0.5869140625	0	lower	zerothre.ttf
127060	WORD	wordpools/wasnorm_wordpool_less_exclusions.txt	LTP231	ltpFR	5	1	1	LINEN	825	n/a	n/a	0	0.422607421875	0.5869140625	0	lower	zerothre.ttf
130887	WORD	wordpools/wasnorm_wordpool_less_exclusions.txt	LTP231	ltpFR	5	1	0	ZUCCHINI	1638	n/a	n/a	0	0.57763671875	0.412841796875	1	upper	amplitud.ttf
134780	WORD	wordpools/wasnorm_wordpool_less_exclusions.txt	LTP231	ltpFR	5	1	0	RIB	1188	n/a	n/a	0	0.57763671875	0.412841796875	1	upper	amplitud.ttf
138641	WORD	wordpools/wasnorm_wordpool_less_exclusions.txt	LTP231	ltpFR	5	1	0	BUTTERFLY	206	n/a	n/a	0	0.57763671875	0.412841796875	1	upper	amplitud.ttf
142768	WORD	wordpools/wasnorm_wordpool_less_exclusions.txt	LTP231	ltpFR	5	1	1	PLASTER	1085	n/a	n/a	0	0.422607421875	0.5869140625	0	lower	zerothre.ttf
146729	WORD	wordpools/wasnorm_wordpool_less_exclusions.txt	LTP231	ltpFR	5	1	1	PARIS	1014	n/a	n/a	0	0.422607421875	0.5869140625	0	lower	zerothre.ttf
150823	WORD	wordpools/wasnorm_wordpool_less_exclusions.txt	LTP231	ltpFR	5	1	0	SERVANT	1271	n/a	n/a	1	0.57763671875	0.412841796875	1	upper	amplitud.ttf
155018	WORD	wordpools/wasnorm_wordpool_less_exclusions.txt	LTP231	ltpFR	5	1	0	GROCERIES	663	n/a	n/a	1	0.57763671875	0.412841796875	1	upper	amplitud.ttf
158895	WORD	wordpools/wasnorm_wordpool_less_exclusions.txt	LTP231	ltpFR	5	1	0	FLANNEL	574	n/a	n/a	0	0.57763671875	0.412841796875	1	upper	amplitud.ttf
164786	REC_START	n/a	LTP231	ltpFR	5	1	n/a	n/a	n/a	n/a	n/a	n/a	n/a	n/a	n/a	n/a	n/a
165838	REC_WORD	wordpools/wasnorm_wordpool_less_exclusions.txt	LTP231	ltpFR	5	1	0	FLANNEL	574	n/a	n/a	0	n/a	n/a	n/a	n/a	n/a
166866	REC_WORD	wordpools/wasnorm_wordpool_less_exclusions.txt	LTP231	ltpFR	5	1	0	CURTAIN	427	n/a	n/a	1	n/a	n/a	n/a	n/a	n/a
167953	REC_WORD	wordpools/wasnorm_wordpool_less_exclusions.txt	LTP231	ltpFR	5	1	0	MOSS	918	n/a	n/a	0	n/a	n/a	n/a	n/a	n/a
170628	REC_WORD	wordpools/wasnorm_wordpool_less_exclusions.txt	LTP231	ltpFR	5	1	1	COLONEL	348	n/a	n/a	1	n/a	n/a	n/a	n/a	n/a
171395	REC_WORD	wordpools/wasnorm_wordpool_less_exclusions.txt	LTP231	ltpFR	5	1	1	LEADER	807	n/a	n/a	1	n/a	n/a	n/a	n/a	n/a
172049	REC_WORD	wordpools/wasnorm_wordpool_less_exclusions.txt	LTP231	ltpFR	5	1	0	SERVANT	1271	n/a	n/a	1	n/a	n/a	n/a	n/a	n/a
174389	REC_WORD	wordpools/wasnorm_wordpool_less_exclusions.txt	LTP231	ltpFR	5	1	1	LINEN	825	n/a	n/a	0	n/a	n/a	n/a	n/a	n/a
175531	REC_WORD	wordpools/wasnorm_wordpool_less_exclusions.txt	LTP231	ltpFR	5	1	1	PLASTER	1085	n/a	n/a	0	n/a	n/a	n/a	n/a	n/a
176439	REC_WORD	wordpools/wasnorm_wordpool_less_exclusions.txt	LTP231	ltpFR	5	1	1	PARIS	1014	n/a	n/a	0	n/a	n/a	n/a	n/a	n/a
198973	REC_WORD	wordpools/wasnorm_wordpool_less_exclusions.txt	LTP231	ltpFR	5	1	0	BUTTERFLY	206	n/a	n/a	0	n/a	n/a	n/a	n/a	n/a
199778	REC_WORD	wordpools/wasnorm_wordpool_less_exclusions.txt	LTP231	ltpFR	5	1	0	RIB	1188	n/a	n/a	0	n/a	n/a	n/a	n/a	n/a
201383	REC_WORD	wordpools/wasnorm_wordpool_less_exclusions.txt	LTP231	ltpFR	5	1	0	GROCERIES	663	n/a	n/a	1	n/a	n/a	n/a	n/a	n/a
278500	WORD	wordpools/wasnorm_wordpool_less_exclusions.txt	LTP231	ltpFR	5	2	1	VAN	1548	n/a	n/a	0	0.422607421875	0.5869140625	0	lower	zerothre.ttf
282543	WORD	wordpools/wasnorm_wordpool_less_exclusions.txt	LTP231	ltpFR	5	2	1	WATER	1594	n/a	n/a	0	0.422607421875	0.5869140625	0	lower	zerothre.ttf
286604	WORD	wordpools/wasnorm_wordpool_less_exclusions.txt	LTP231	ltpFR	5	2	1	PACKAGE	997	n/a	n/a	0	0.422607421875	0.5869140625	0	lower	zerothre.ttf
290482	WORD	wordpools/wasnorm_wordpool_less_exclusions.txt	LTP231	ltpFR	5	2	1	MAILMAN	858	n/a	n/a	1	0.422607421875	0.5869140625	0	lower	zerothre.ttf
294410	WORD	wordpools/wasnorm_wordpool_less_exclusions.txt	LTP231	ltpFR	5	2	0	TICK	1463	n/a	n/a	0	0.57763671875	0.412841796875	1	upper	amplitud.ttf
298354	WORD	wordpools/wasnorm_wordpool_less_exclusions.txt	LTP231	ltpFR	5	2	0	CAN	225	n/a	n/a	0	0.57763671875	0.412841796875	1	upper	amplitud.ttf
302364	WORD	wordpools/wasnorm_wordpool_less_exclusions.txt	LTP231	ltpFR	5	2	0	PAIL	1002	n/a	n/a	0	0.57763671875	0.412841796875	1	upper	amplitud.ttf
306392	WORD	wordpools/wasnorm_wordpool_less_exclusions.txt	LTP231	ltpFR	5	2	0	JURY	766	n/a	n/a	1	0.57763671875	0.412841796875	1	upper	amplitud.ttf
310336	WORD	wordpools/wasnorm_wordpool_less_exclusions.txt	LTP231	ltpFR	5	2	0	ANIMAL	23	n/a	n/a	1	0.57763671875	0.412841796875	1	upper	amplitud.ttf
314164	WORD	wordpools/wasnorm_wordpool_less_exclusions.txt	LTP231	ltpFR	5	2	1	INSECT	740	n/a	n/a	1	0.422607421875	0.5869140625	0	lower	zerothre.ttf
318041	WORD	wordpools/wasnorm_wordpool_less_exclusions.txt	LTP231	ltpFR	5	2	1	ENEMY	534	n/a	n/a	1	0.422607421875	0.5869140625	0	lower	zerothre.ttf
322068	WORD	wordpools/wasnorm_wordpool_less_exclusions.txt	LTP231	ltpFR	5	2	0	GUEST	669	n/a	n/a	1	0.57763671875	0.412841796875	1	upper	amplitud.ttf
325913	WORD	wordpools/wasnorm_wordpool_less_exclusions.txt	LTP231	ltpFR	5	2	0	NIGHTGOWN	953	n/a	n/a	0	0.57763671875	0.412841796875	1	upper	amplitud.ttf
329872	WORD	wordpools/wasnorm_wordpool_less_exclusions.txt	LTP231	ltpFR	5	2	0	HIKER	708	n/a	n/a	1	0.57763671875	0.412841796875	1	upper	amplitud.ttf
333917	WORD	wordpools/wasnorm_wordpool_less_exclusions.txt	LTP231	ltpFR	5	2	1	POTATO	1115	n/a	n/a	0	0.422607421875	0.5869140625	0	lower	zerothre.ttf
337978	WORD	wordpools/wasnorm_wordpool_less_exclusions.txt	LTP231	ltpFR	5	2	1	PIE	1062	n/a	n/a	0	0.422607421875	0.5869140625	0	lower	zerothre.ttf
343936	REC_START	n/a	LTP231	ltpFR	5	2	n/a	n/a	n/a	n/a	n/a	n/a	n/a	n/a	n/a	n/a	n/a
345283	REC_WORD	wordpools/wasnorm_wordpool_less_exclusions.txt	LTP231	ltpFR	5	2	1	POTATO	1115	n/a	n/a	0	n/a	n/a	n/a	n/a	n/a
346136	REC_WORD	wordpools/wasnorm_wordpool_less_exclusions.txt	LTP231	ltpFR	5	2	1	PIE	1062	n/a	n/a	0	n/a	n/a	n/a	n/a	n/a
347193	REC_WORD	wordpools/wasnorm_wordpool_less_exclusions.txt	LTP231	ltpFR	5	2	0	GUEST	669	n/a	n/a	1	n/a	n/a	n/a	n/a	n/a
353923	REC_WORD	wordpools/wasnorm_wordpool_less_exclusions.txt	LTP231	ltpFR	5	2	0	NIGHTGOWN	953	n/a	n/a	0	n/a	n/a	n/a	n/a	n/a
354923	REC_WORD_VV	wordpools/wasnorm_wordpool_less_exclusions.txt	LTP231	ltpFR	5	2	n/a	<>	-1	n/a	n/a	n/a	n/a	n/a	n/a	n/a	n/a
391113	REC_WORD	wordpools/wasnorm_wordpool_less_exclusions.txt	LTP231	ltpFR	5	2	1	WATER	1594	n/a	n/a	0	n/a	n/a	n/a	n/a	n/a
422767	WORD	wordpools/wasnorm_wordpool_less_exclusions.txt	LTP231	ltpFR	5	3	1	FLOWER	584	n/a	n/a	1	0.422607421875	0.5869140625	0	lower	zerothre.ttf
426661	WORD	wordpools/wasnorm_wordpool_less_exclusions.txt	LTP231	ltpFR	5	3	1	RIVER	1194	n/a	n/a	0	0.422607421875	0.5869140625	0	lower	zerothre.ttf
430522	WORD	wordpools/wasnorm_wordpool_less_exclusions.txt	LTP231	ltpFR	5	3	1	SPONGE	1355	n/a	n/a	0	0.422607421875	0.5869140625	0	lower	zerothre.ttf
434566	WORD	wordpools/wasnorm_wordpool_less_exclusions.txt	LTP231	ltpFR	5	3	1	RAKE	1164	n/a	n/a	0	0.422607421875	0.5869140625	0	lower	zerothre.ttf
438395	WORD	wordpools/wasnorm_wordpool_less_exclusions.txt	LTP231	ltpFR	5	3	1	WART	1590	n/a	n/a	0	0.422607421875	0.5869140625	0	lower	zerothre.ttf
442389	WORD	wordpools/wasnorm_wordpool_less_exclusions.txt	LTP231	ltpFR	5	3	1	FROG	608	n/a	n/a	1	0.422607421875	0.5869140625	0	lower	zerothre.ttf
446333	WORD	wordpools/wasnorm_wordpool_less_exclusions.txt	LTP231	ltpFR	5	3	1	MALL	860	n/a	n/a	0	0.422607421875	0.5869140625	0	lower	zerothre.ttf
450542	WORD	wordpools/wasnorm_wordpool_less_exclusions.txt	LTP231	ltpFR	5	3	1	LIST	830	n/a	n/a	0	0.422607421875	0.5869140625	0	lower	zerothre.ttf
454421	WORD	wordpools/wasnorm_wordpool_less_exclusions.txt	LTP231	ltpFR	5	3	1	CAR	241	n/a	n/a	0	0.422607421875	0.5869140625	0	lower	zerothre.ttf
458465	WORD	wordpools/wasnorm_wordpool_less_exclusions.txt	LTP231	ltpFR	5	3	1	TOAD	1470	n/a	n/a	1	0.422607421875	0.5869140625	0	lower	zerothre.ttf
462524	WORD	wordpools/wasnorm_wordpool_less_exclusions.txt	LTP231	ltpFR	5	3	1	YOLK	1633	n/a	n/a	0	0.422607421875	0.5869140625	0	lower	zerothre.ttf
466386	WORD	wordpools/wasnorm_wordpool_less_exclusions.txt	LTP231	ltpFR	5	3	1	PASSENGER	1020	n/a	n/a	1	0.422607421875	0.5869140625	0	lower	zerothre.ttf
470380	WORD	wordpools/wasnorm_wordpool_less_exclusions.txt	LTP231	ltpFR	5	3	1	SEED	1266	n/a	n/a	0	0.422607421875	0.5869140625	0	lower	zerothre.ttf
474291	WORD	wordpools/wasnorm_wordpool_less_exclusions.txt	LTP231	ltpFR	5	3	1	BUNNY	198	n/a	n/a	1	0.422607421875	0.5869140625	0	lower	zerothre.ttf
478368	WORD	wordpools/wasnorm_wordpool_less_exclusions.txt	LTP231	ltpFR	5	3	1	LIZARD	834	n/a	n/a	1	0.422607421875	0.5869140625	0	lower	zerothre.ttf
482213	WORD	wordpools/wasnorm_wordpool_less_exclusions.txt	LTP231	ltpFR	5	3	1	ARTICLE	42	n/a	n/a	0	0.422607421875	0.5869140625	0	lower	zerothre.ttf
487921	REC_START	n/a	LTP231	ltpFR	5	3	n/a	n/a	n/a	n/a	n/a	n/a	n/a	n/a	n/a	n/a	n/a
490575	REC_WORD	wordpools/wasnorm_wordpool_less_exclusions.txt	LTP231	ltpFR	5	3	1	ARTICLE	42	n/a	n/a	0	n/a	n/a	n/a	n/a	n/a
491578	REC_WORD	wordpools/wasnorm_wordpool_less_exclusions.txt	LTP231	ltpFR	5	3	1	BUNNY	198	n/a	n/a	1	n/a	n/a	n/a	n/a	n/a
494745	REC_WORD	wordpools/wasnorm_wordpool_less_exclusions.txt	LTP231	ltpFR	5	3	1	RIVER	1194	n/a	n/a	0	n/a	n/a	n/a	n/a	n/a
495858	REC_WORD	wordpools/wasnorm_wordpool_less_exclusions.txt	LTP231	ltpFR	5	3	1	LIZARD	834	n/a	n/a	1	n/a	n/a	n/a	n/a	n/a
496858	REC_WORD_VV	wordpools/wasnorm_wordpool_less_exclusions.txt	LTP231	ltpFR	5	3	n/a	<>	-1	n/a	n/a	n/a	n/a	n/a	n/a	n/a	n/a
499344	REC_WORD	wordpools/wasnorm_wordpool_less_exclusions.txt	LTP231	ltpFR	5	3	1	FLOWER	584	n/a	n/a	1	n/a	n/a	n/a	n/a	n/a
500438	REC_WORD	wordpools/wasnorm_wordpool_less_exclusions.txt	LTP231	ltpFR	5	3	1	SEED	1266	n/a	n/a	0	n/a	n/a	n/a	n/a	n/a
568101	WORD	wordpools/wasnorm_wordpool_less_exclusions.txt	LTP231	ltpFR	5	4	0	POLYESTER	1100	n/a	n/a	0	0.57763671875	0.412841796875	1	upper	amplitud.ttf
572178	WORD	wordpools/wasnorm_wordpool_less_exclusions.txt	LTP231	ltpFR	5	4	0	DRYER	503	n/a	n/a	1	0.57763671875	0.412841796875	1	upper	amplitud.ttf
576172	WORD	wordpools/wasnorm_wordpool_less_exclusions.txt	LTP231	ltpFR	5	4	0	CHIPMUNK	304	n/a	n/a	0	0.57763671875	0.412841796875	1	upper	amplitud.ttf
580366	WORD	wordpools/wasnorm_wordpool_less_exclusions.txt	LTP231	ltpFR	5	4	0	CACTUS	215	n/a	n/a	1	0.57763671875	0.412841796875	1	upper	amplitud.ttf
584343	WORD	wordpools/wasnorm_wordpool_less_exclusions.txt	LTP231	ltpFR	5	4	0	TURKEY	1520	n/a	n/a	1	0.57763671875	0.412841796875	1	upper	amplitud.ttf
588337	WORD	wordpools/wasnorm_wordpool_less_exclusions.txt	LTP231	ltpFR	5	4	0	DINER	467	n/a	n/a	1	0.57763671875	0.412841796875	1	upper	amplitud.ttf
592398	WORD	wordpools/wasnorm_wordpool_less_exclusions.txt	LTP231	ltpFR	5	4	0	HOUSE	725	n/a	n/a	1	0.57763671875	0.412841796875	1	upper	amplitud.ttf
596359	WORD	wordpools/wasnorm_wordpool_less_exclusions.txt	LTP231	ltpFR	5	4	0	MACHINE	852	n/a	n/a	1	0.57763671875	0.412841796875	1	upper	amplitud.ttf
600386	WORD	wordpools/wasnorm_wordpool_less_exclusions.txt	LTP231	ltpFR	5	4	0	COMPUTER	359	n/a	n/a	1	0.57763671875	0.412841796875	1	upper	amplitud.ttf
604397	WORD	wordpools/wasnorm_wordpool_less_exclusions.txt	LTP231	ltpFR	5	4	0	COMPANION	357	n/a	n/a	1	0.57763671875	0.412841796875	1	upper	amplitud.ttf
608424	WORD	wordpools/wasnorm_wordpool_less_exclusions.txt	LTP231	ltpFR	5	4	0	CHEST	295	n/a	n/a	1	0.57763671875	0.412841796875	1	upper	amplitud.ttf
612351	WORD	wordpools/wasnorm_wordpool_less_exclusions.txt	LTP231	ltpFR	5	4	0	BUCKLE	185	n/a	n/a	0	0.57763671875	0.412841796875	1	upper	amplitud.ttf
616412	WORD	wordpools/wasnorm_wordpool_less_exclusions.txt	LTP231	ltpFR	5	4	0	LOBSTER	837	n/a	n/a	0	0.57763671875	0.412841796875	1	upper	amplitud.ttf
620588	WORD	wordpools/wasnorm_wordpool_less_exclusions.txt	LTP231	ltpFR	5	4	0	BRICK	172	n/a	n/a	0	0.57763671875	0.412841796875	1	upper	amplitud.ttf
624500	WORD	wordpools/wasnorm_wordpool_less_exclusions.txt	LTP231	ltpFR	5	4	0	PEN	1041	n/a	n/a	0	0.57763671875	0.412841796875	1	upper	amplitud.ttf
628626	WORD	wordpools/wasnorm_wordpool_less_exclusions.txt	LTP231	ltpFR	5	4	0	RADISH	1158	n/a	n/a	0	0.57763671875	0.412841796875	1	upper	amplitud.ttf
634219	REC_START	n/a	LTP231	ltpFR	5	4	n/a	n/a	n/a	n/a	n/a	n/a	n/a	n/a	n/a	n/a	n/a
634997	REC_WORD	wordpools/wasnorm_wordpool_less_exclusions.txt	LTP231	ltpFR	5	4	0	RADISH	1158	n/a	n/a	0	n/a	n/a	n/a	n/a	n/a
635920	REC_WORD	wordpools/wasnorm_wordpool_less_exclusions.txt	LTP231	ltpFR	5	4	0	LOBSTER	837	n/a	n/a	0	n/a	n/a	n/a	n/a	n/a
636920	REC_WORD_VV	wordpools/wasnorm_wordpool_less_exclusions.txt	LTP231	ltpFR	5	4	n/a	<>	-1	n/a	n/a	n/a	n/a	n/a	n/a	n/a	n/a
638110	REC_WORD	wordpools/wasnorm_wordpool_less_exclusions.txt	LTP231	ltpFR	5	4	0	BRICK	172	n/a	n/a	0	n/a	n/a	n/a	n/a	n/a
640933	REC_WORD	wordpools/wasnorm_wordpool_less_exclusions.txt	LTP231	ltpFR	5	4	0	MACHINE	852	n/a	n/a	1	n/a	n/a	n/a	n/a	n/a
641933	REC_WORD_VV	wordpools/wasnorm_wordpool_less_exclusions.txt	LTP231	ltpFR	5	4	n/a	<>	-1	n/a	n/a	n/a	n/a	n/a	n/a	n/a	n/a
642310	REC_WORD	wordpools/wasnorm_wordpool_less_exclusions.txt	LTP231	ltpFR	5	4	0	DRYER	503	n/a	n/a	1	n/a	n/a	n/a	n/a	n/a
643310	REC_WORD_VV	wordpools/wasnorm_wordpool_less_exclusions.txt	LTP231	ltpFR	5	4	n/a	<>	-1	n/a	n/a	n/a	n/a	n/a	n/a	n/a	n/a
675001	REC_WORD	wordpools/wasnorm_wordpool_less_exclusions.txt	LTP231	ltpFR	5	4	0	CHIPMUNK	304	n/a	n/a	0	n/a	n/a	n/a	n/a	n/a
679316	REC_WORD	wordpools/wasnorm_wordpool_less_exclusions.txt	LTP231	ltpFR	5	4	0	CHEST	295	n/a	n/a	1	n/a	n/a	n/a	n/a	n/a
684025	REC_WORD	wordpools/wasnorm_wordpool_less_exclusions.txt	LTP231	ltpFR	5	4	0	COMPANION	357	n/a	n/a	1	n/a	n/a	n/a	n/a	n/a
716463	WORD	wordpools/wasnorm_wordpool_less_exclusions.txt	LTP231	ltpFR	5	5	1	COLUMN	350	n/a	n/a	0	0.422607421875	0.5869140625	0	lower	zerothre.ttf
720290	WORD	wordpools/wasnorm_wordpool_less_exclusions.txt	LTP231	ltpFR	5	5	1	SAUSAGE	1238	n/a	n/a	0	0.422607421875	0.5869140625	0	lower	zerothre.ttf
724467	WORD	wordpools/wasnorm_wordpool_less_exclusions.txt	LTP231	ltpFR	5	5	0	BACON	67	n/a	n/a	0	0.57763671875	0.412841796875	1	upper	amplitud.ttf
728560	WORD	wordpools/wasnorm_wordpool_less_exclusions.txt	LTP231	ltpFR	5	5	0	BOOK	149	n/a	n/a	0	0.57763671875	0.412841796875	1	upper	amplitud.ttf
732455	WORD	wordpools/wasnorm_wordpool_less_exclusions.txt	LTP231	ltpFR	5	5	1	ANKLE	24	n/a	n/a	0	0.422607421875	0.5869140625	0	lower	zerothre.ttf
736615	WORD	wordpools/wasnorm_wordpool_less_exclusions.txt	LTP231	ltpFR	5	5	1	ALLEY	15	n/a	n/a	1	0.422607421875	0.5869140625	0	lower	zerothre.ttf
740477	WORD	wordpools/wasnorm_wordpool_less_exclusions.txt	LTP231	ltpFR	5	5	0	WAGON	1578	n/a	n/a	1	0.57763671875	0.412841796875	1	upper	amplitud.ttf
744553	WORD	wordpools/wasnorm_wordpool_less_exclusions.txt	LTP231	ltpFR	5	5	0	SCROLL	1257	n/a	n/a	0	0.57763671875	0.412841796875	1	upper	amplitud.ttf
748747	WORD	wordpools/wasnorm_wordpool_less_exclusions.txt	LTP231	ltpFR	5	5	0	PRINTER	1126	n/a	n/a	1	0.57763671875	0.412841796875	1	upper	amplitud.ttf
752641	WORD	wordpools/wasnorm_wordpool_less_exclusions.txt	LTP231	ltpFR	5	5	0	TIGER	1467	n/a	n/a	1	0.57763671875	0.412841796875	1	upper	amplitud.ttf
756718	WORD	wordpools/wasnorm_wordpool_less_exclusions.txt	LTP231	ltpFR	5	5	0	HARE	688	n/a	n/a	0	0.57763671875	0.412841796875	1	upper	amplitud.ttf
760812	WORD	wordpools/wasnorm_wordpool_less_exclusions.txt	LTP231	ltpFR	5	5	0	BRIDE	173	n/a	n/a	1	0.57763671875	0.412841796875	1	upper	amplitud.ttf
764756	WORD	wordpools/wasnorm_wordpool_less_exclusions.txt	LTP231	ltpFR	5	5	1	FREEWAY	603	n/a	n/a	0	0.422607421875	0.5869140625	0	lower	zerothre.ttf
768951	WORD	wordpools/wasnorm_wordpool_less_exclusions.txt	LTP231	ltpFR	5	5	1	OTTER	986	n/a	n/a	1	0.422607421875	0.5869140625	0	lower	zerothre.ttf
772895	WORD	wordpools/wasnorm_wordpool_less_exclusions.txt	LTP231	ltpFR	5	5	1	BEAVER	109	n/a	n/a	1	0.422607421875	0.5869140625	0	lower	zerothre.ttf
776871	WORD	wordpools/wasnorm_wordpool_less_exclusions.txt	LTP231	ltpFR	5	5	1	TOE	1473	n/a	n/a	0	0.422607421875	0.5869140625	0	lower	zerothre.ttf
782747	REC_START	n/a	LTP231	ltpFR	5	5	n/a	n/a	n/a	n/a	n/a	n/a	n/a	n/a	n/a	n/a	n/a
783769	REC_WORD	wordpools/wasnorm_wordpool_less_exclusions.txt	LTP231	ltpFR	5	5	1	TOE	1473	n/a	n/a	0	n/a	n/a	n/a	n/a	n/a
784847	REC_WORD	wordpools/wasnorm_wordpool_less_exclusions.txt	LTP231	ltpFR	5	5	1	BEAVER	109	n/a	n/a	1	n/a	n/a	n/a	n/a	n/a
785847	REC_WORD_VV	wordpools/wasnorm_wordpool_less_exclusions.txt	LTP231	ltpFR	5	5	n/a	<>	-1	n/a	n/a	n/a	n/a	n/a	n/a	n/a	n/a
808333	REC_WORD	wordpools/wasnorm_wordpool_less_exclusions.txt	LTP231	ltpFR	5	5	1	FREEWAY	603	n/a	n/a	0	n/a	n/a	n/a	n/a	n/a
809333	REC_WORD_VV	wordpools/wasnorm_wordpool_less_exclusions.txt	LTP231	ltpFR	5	5	n/a	<>	-1	n/a	n/a	n/a	n/a	n/a	n/a	n/a	n/a
810179	REC_WORD	wordpools/wasnorm_wordpool_less_exclusions.txt	LTP231	ltpFR	5	5	1	ALLEY	15	n/a	n/a	1	n/a	n/a	n/a	n/a	n/a
817278	REC_WORD	wordpools/wasnorm_wordpool_less_exclusions.txt	LTP231	ltpFR	5	5	0	TIGER	1467	n/a	n/a	1	n/a	n/a	n/a	n/a	n/a
817936	REC_WORD	wordpools/wasnorm_wordpool_less_exclusions.txt	LTP231	ltpFR	5	5	0	HARE	688	n/a	n/a	0	n/a	n/a	n/a	n/a	n/a
820282	REC_WORD	wordpools/wasnorm_wordpool_less_exclusions.txt	LTP231	ltpFR	5	5	0	PRINTER	1126	n/a	n/a	1	n/a	n/a	n/a	n/a	n/a
845611	REC_WORD_VV	wordpools/wasnorm_wordpool_less_exclusions.txt	LTP231	ltpFR	5	5	n/a	<>	-1	n/a	n/a	n/a	n/a	n/a	n/a	n/a	n/a
863976	WORD	wordpools/wasnorm_wordpool_less_exclusions.txt	LTP231	ltpFR	5	6	0	CHIMNEY	301	n/a	n/a	1	0.57763671875	0.412841796875	1	upper	amplitud.ttf
868003	WORD	wordpools/wasnorm_wordpool_less_exclusions.txt	LTP231	ltpFR	5	6	0	PENGUIN	1044	n/a	n/a	0	0.57763671875	0.412841796875	1	upper	amplitud.ttf
872114	WORD	wordpools/wasnorm_wordpool_less_exclusions.txt	LTP231	ltpFR	5	6	0	DRESS	495	n/a	n/a	0	0.57763671875	0.412841796875	1	upper	amplitud.ttf
876324	WORD	wordpools/wasnorm_wordpool_less_exclusions.txt	LTP231	ltpFR	5	6	0	WRIST	1626	n/a	n/a	0	0.57763671875	0.412841796875	1	upper	amplitud.ttf
880235	WORD	wordpools/wasnorm_wordpool_less_exclusions.txt	LTP231	ltpFR	5	6	0	PEARL	1034	n/a	n/a	0	0.57763671875	0.412841796875	1	upper	amplitud.ttf
884129	WORD	wordpools/wasnorm_wordpool_less_exclusions.txt	LTP231	ltpFR	5	6	1	SLEIGH	1325	n/a	n/a	0	0.422607421875	0.5869140625	0	lower	zerothre.ttf
888040	WORD	wordpools/wasnorm_wordpool_less_exclusions.txt	LTP231	ltpFR	5	6	1	PRINCESS	1125	n/a	n/a	1	0.422607421875	0.5869140625	0	lower	zerothre.ttf
892183	WORD	wordpools/wasnorm_wordpool_less_exclusions.txt	LTP231	ltpFR	5	6	1	PARROT	1015	n/a	n/a	1	0.422607421875	0.5869140625	0	lower	zerothre.ttf
896194	WORD	wordpools/wasnorm_wordpool_less_exclusions.txt	LTP231	ltpFR	5	6	1	DANCER	437	n/a	n/a	1	0.422607421875	0.5869140625	0	lower	zerothre.ttf
900338	WORD	wordpools/wasnorm_wordpool_less_exclusions.txt	LTP231	ltpFR	5	6	1	SWAMP	1416	n/a	n/a	0	0.422607421875	0.5869140625	0	lower	zerothre.ttf
904266	WORD	wordpools/wasnorm_wordpool_less_exclusions.txt	LTP231	ltpFR	5	6	1	LUMBER	848	n/a	n/a	0	0.422607421875	0.5869140625	0	lower	zerothre.ttf
908309	WORD	wordpools/wasnorm_wordpool_less_exclusions.txt	LTP231	ltpFR	5	6	0	ROOT	1210	n/a	n/a	0	0.57763671875	0.412841796875	1	upper	amplitud.ttf
912253	WORD	wordpools/wasnorm_wordpool_less_exclusions.txt	LTP231	ltpFR	5	6	0	ENVELOPE	537	n/a	n/a	1	0.57763671875	0.412841796875	1	upper	amplitud.ttf
916148	WORD	wordpools/wasnorm_wordpool_less_exclusions.txt	LTP231	ltpFR	5	6	0	CATHEDRAL	260	n/a	n/a	1	0.57763671875	0.412841796875	1	upper	amplitud.ttf
920142	WORD	wordpools/wasnorm_wordpool_less_exclusions.txt	LTP231	ltpFR	5	6	1	PICNIC	1060	n/a	n/a	0	0.422607421875	0.5869140625	0	lower	zerothre.ttf
924352	WORD	wordpools/wasnorm_wordpool_less_exclusions.txt	LTP231	ltpFR	5	6	1	DINNER	468	n/a	n/a	0	0.422607421875	0.5869140625	0	lower	zerothre.ttf
929961	REC_START	n/a	LTP231	ltpFR	5	6	n/a	n/a	n/a	n/a	n/a	n/a	n/a	n/a	n/a	n/a	n/a
931552	REC_WORD	wordpools/wasnorm_wordpool_less_exclusions.txt	LTP231	ltpFR	5	6	1	DINNER	468	n/a	n/a	0	n/a	n/a	n/a	n/a	n/a
932320	REC_WORD	wordpools/wasnorm_wordpool_less_exclusions.txt	LTP231	ltpFR	5	6	1	PICNIC	1060	n/a	n/a	0	n/a	n/a	n/a	n/a	n/a
933293	REC_WORD	wordpools/wasnorm_wordpool_less_exclusions.txt	LTP231	ltpFR	5	6	0	PEARL	1034	n/a	n/a	0	n/a	n/a	n/a	n/a	n/a
934063	REC_WORD	wordpools/wasnorm_wordpool_less_exclusions.txt	LTP231	ltpFR	5	6	0	WRIST	1626	n/a	n/a	0	n/a	n/a	n/a	n/a	n/a
935063	REC_WORD_VV	wordpools/wasnorm_wordpool_less_exclusions.txt	LTP231	ltpFR	5	6	n/a	<>	-1	n/a	n/a	n/a	n/a	n/a	n/a	n/a	n/a
947371	REC_WORD	wordpools/wasnorm_wordpool_less_exclusions.txt	LTP231	ltpFR	5	6	0	ENVELOPE	537	n/a	n/a	1	n/a	n/a	n/a	n/a	n/a
1024153	WORD	wordpools/wasnorm_wordpool_less_exclusions.txt	LTP231	ltpFR	5	7	-1	PLAID	1080	n/a	n/a	-1	1.0	1.0	1	upper	Verdana.ttf
1028247	WORD	wordpools/wasnorm_wordpool_less_exclusions.txt	LTP231	ltpFR	5	7	-1	COBRA	336	n/a	n/a	-1	1.0	1.0	1	upper	Verdana.ttf
1032308	WORD	wordpools/wasnorm_wordpool_less_exclusions.txt	LTP231	ltpFR	5	7	-1	NOTEBOOK	959	n/a	n/a	-1	1.0	1.0	1	upper	Verdana.ttf
1036368	WORD	wordpools/wasnorm_wordpool_less_exclusions.txt	LTP231	ltpFR	5	7	-1	LASER	801	n/a	n/a	-1	1.0	1.0	1	upper	Verdana.ttf
1040279	WORD	wordpools/wasnorm_wordpool_less_exclusions.txt	LTP231	ltpFR	5	7	-1	RATTLE	1170	n/a	n/a	-1	1.0	1.0	1	upper	Verdana.ttf
1044173	WORD	wordpools/wasnorm_wordpool_less_exclusions.txt	LTP231	ltpFR	5	7	-1	SCARECROW	1245	n/a	n/a	-1	1.0	1.0	1	upper	Verdana.ttf
1048034	WORD	wordpools/wasnorm_wordpool_less_exclusions.txt	LTP231	ltpFR	5	7	-1	SWAN	1417	n/a	n/a	-1	1.0	1.0	1	upper	Verdana.ttf
1052011	WORD	wordpools/wasnorm_wordpool_less_exclusions.txt	LTP231	ltpFR	5	7	-1	CABLE	213	n/a	n/a	-1	1.0	1.0	1	upper	Verdana.ttf
1056072	WORD	wordpools/wasnorm_wordpool_less_exclusions.txt	LTP231	ltpFR	5	7	-1	DOCUMENT	479	n/a	n/a	-1	1.0	1.0	1	upper	Verdana.ttf
1060049	WORD	wordpools/wasnorm_wordpool_less_exclusions.txt	LTP231	ltpFR	5	7	-1	COOK	372	n/a	n/a	-1	1.0	1.0	1	upper	Verdana.ttf
1064093	WORD	wordpools/wasnorm_wordpool_less_exclusions.txt	LTP231	ltpFR	5	7	-1	RECIPE	1175	n/a	n/a	-1	1.0	1.0	1	upper	Verdana.ttf
1068287	WORD	wordpools/wasnorm_wordpool_less_exclusions.txt	LTP231	ltpFR	5	7	-1	KNAPSACK	783	n/a	n/a	-1	1.0	1.0	1	upper	Verdana.ttf
1072448	WORD	wordpools/wasnorm_wordpool_less_exclusions.txt	LTP231	ltpFR	5	7	-1	FLASHLIGHT	575	n/a	n/a	-1	1.0	1.0	1	upper	Verdana.ttf
1076540	WORD	wordpools/wasnorm_wordpool_less_exclusions.txt	LTP231	ltpFR	5	7	-1	COPIER	377	n/a	n/a	-1	1.0	1.0	1	upper	Verdana.ttf
1080618	WORD	wordpools/wasnorm_wordpool_less_exclusions.txt	LTP231	ltpFR	5	7	-1	FLASK	576	n/a	n/a	-1	1.0	1.0	1	upper	Verdana.ttf
1084463	WORD	wordpools/wasnorm_wordpool_less_exclusions.txt	LTP231	ltpFR	5	7	-1	PUB	1135	n/a	n/a	-1	1.0	1.0	1	upper	Verdana.ttf
1090271	REC_START	n/a	LTP231	ltpFR	5	7	n/a	n/a	n/a	n/a	n/a	n/a	n/a	n/a	n/a	n/a	n/a
1096357	REC_WORD	wordpools/wasnorm_wordpool_less_exclusions.txt	LTP231	ltpFR	5	7	-1	PLAID	1080	n/a	n/a	-1	n/a	n/a	n/a	n/a	n/a
1097694	REC_WORD	wordpools/wasnorm_wordpool_less_exclusions.txt	LTP231	ltpFR	5	7	-1	COBRA	336	n/a	n/a	-1	n/a	n/a	n/a	n/a	n/a
1101834	REC_WORD	wordpools/wasnorm_wordpool_less_exclusions.txt	LTP231	ltpFR	5	7	-1	RATTLE	1170	n/a	n/a	-1	n/a	n/a	n/a	n/a	n/a
1109082	REC_WORD	wordpools/wasnorm_wordpool_less_exclusions.txt	LTP231	ltpFR	5	7	-1	SCARECROW	1245	n/a	n/a	-1	n/a	n/a	n/a	n/a	n/a
1110082	REC_WORD_VV	wordpools/wasnorm_wordpool_less_exclusions.txt	LTP231	ltpFR	5	7	n/a	<>	-1	n/a	n/a	n/a	n/a	n/a	n/a	n/a	n/a
1111213	REC_WORD	wordpools/wasnorm_wordpool_less_exclusions.txt	LTP231	ltpFR	5	7	-1	SWAN	1417	n/a	n/a	-1	n/a	n/a	n/a	n/a	n/a
1113269	REC_WORD	wordpools/wasnorm_wordpool_less_exclusions.txt	LTP231	ltpFR	5	7	-1	DOCUMENT	479	n/a	n/a	-1	n/a	n/a	n/a	n/a	n/a
1114269	REC_WORD_VV	wordpools/wasnorm_wordpool_less_exclusions.txt	LTP231	ltpFR	5	7	n/a	<>	-1	n/a	n/a	n/a	n/a	n/a	n/a	n/a	n/a
1114605	REC_WORD	wordpools/wasnorm_wordpool_less_exclusions.txt	LTP231	ltpFR	5	7	n/a	CHEF	290	n/a	n/a	n/a	n/a	n/a	n/a	n/a	n/a
1115873	REC_WORD	wordpools/wasnorm_wordpool_less_exclusions.txt	LTP231	ltpFR	5	7	-1	RECIPE	1175	n/a	n/a	-1	n/a	n/a	n/a	n/a	n/a
1116873	REC_WORD_VV	wordpools/wasnorm_wordpool_less_exclusions.txt	LTP231	ltpFR	5	7	n/a	<>	-1	n/a	n/a	n/a	n/a	n/a	n/a	n/a	n/a
1117883	REC_WORD	wordpools/wasnorm_wordpool_less_exclusions.txt	LTP231	ltpFR	5	7	n/a	HUB	-1	n/a	n/a	n/a	n/a	n/a	n/a	n/a	n/a
1121230	REC_WORD	wordpools/wasnorm_wordpool_less_exclusions.txt	LTP231	ltpFR	5	7	-1	KNAPSACK	783	n/a	n/a	-1	n/a	n/a	n/a	n/a	n/a
1122230	REC_WORD_VV	wordpools/wasnorm_wordpool_less_exclusions.txt	LTP231	ltpFR	5	7	n/a	<>	-1	n/a	n/a	n/a	n/a	n/a	n/a	n/a	n/a
1124163	REC_WORD	wordpools/wasnorm_wordpool_less_exclusions.txt	LTP231	ltpFR	5	7	-1	FLASK	576	n/a	n/a	-1	n/a	n/a	n/a	n/a	n/a
1125163	REC_WORD_VV	wordpools/wasnorm_wordpool_less_exclusions.txt	LTP231	ltpFR	5	7	n/a	<>	-1	n/a	n/a	n/a	n/a	n/a	n/a	n/a	n/a
1126693	REC_WORD	wordpools/wasnorm_wordpool_less_exclusions.txt	LTP231	ltpFR	5	7	-1	COPIER	377	n/a	n/a	-1	n/a	n/a	n/a	n/a	n/a
1129137	REC_WORD	wordpools/wasnorm_wordpool_less_exclusions.txt	LTP231	ltpFR	5	7	-1	FLASHLIGHT	575	n/a	n/a	-1	n/a	n/a	n/a	n/a	n/a
1130137	REC_WORD_VV	wordpools/wasnorm_wordpool_less_exclusions.txt	LTP231	ltpFR	5	7	n/a	<>	-1	n/a	n/a	n/a	n/a	n/a	n/a	n/a	n/a
1132635	REC_WORD	wordpools/wasnorm_wordpool_less_exclusions.txt	LTP231	ltpFR	5	7	-1	PUB	1135	n/a	n/a	-1	n/a	n/a	n/a	n/a	n/a
1177789	WORD	wordpools/wasnorm_wordpool_less_exclusions.txt	LTP231	ltpFR	5	8	0	FUGITIVE	612	n/a	n/a	1	0.57763671875	0.412841796875	1	upper	amplitud.ttf
1181833	WORD	wordpools/wasnorm_wordpool_less_exclusions.txt	LTP231	ltpFR	5	8	0	VETERAN	1561	n/a	n/a	1	0.57763671875	0.412841796875	1	upper	amplitud.ttf
1185928	WORD	wordpools/wasnorm_wordpool_less_exclusions.txt	LTP231	ltpFR	5	8	0	FOOTBALL	591	n/a	n/a	0	0.57763671875	0.412841796875	1	upper	amplitud.ttf
1190022	WORD	wordpools/wasnorm_wordpool_less_exclusions.txt	LTP231	ltpFR	5	8	1	CONE	363	n/a	n/a	0	0.422607421875	0.5869140625	0	lower	zerothre.ttf
1193949	WORD	wordpools/wasnorm_wordpool_less_exclusions.txt	LTP231	ltpFR	5	8	1	FUDGE	611	n/a	n/a	0	0.422607421875	0.5869140625	0	lower	zerothre.ttf
1197826	WORD	wordpools/wasnorm_wordpool_less_exclusions.txt	LTP231	ltpFR	5	8	1	LAGOON	795	n/a	n/a	0	0.422607421875	0.5869140625	0	lower	zerothre.ttf
1201654	WORD	wordpools/wasnorm_wordpool_less_exclusions.txt	LTP231	ltpFR	5	8	1	JELLY	755	n/a	n/a	0	0.422607421875	0.5869140625	0	lower	zerothre.ttf
1205581	WORD	wordpools/wasnorm_wordpool_less_exclusions.txt	LTP231	ltpFR	5	8	1	TEAM	1441	n/a	n/a	0	0.422607421875	0.5869140625	0	lower	zerothre.ttf
1209608	WORD	wordpools/wasnorm_wordpool_less_exclusions.txt	LTP231	ltpFR	5	8	1	CROCODILE	411	n/a	n/a	0	0.422607421875	0.5869140625	0	lower	zerothre.ttf
1213536	WORD	wordpools/wasnorm_wordpool_less_exclusions.txt	LTP231	ltpFR	5	8	0	WOLF	1619	n/a	n/a	1	0.57763671875	0.412841796875	1	upper	amplitud.ttf
1217481	WORD	wordpools/wasnorm_wordpool_less_exclusions.txt	LTP231	ltpFR	5	8	0	MOVIE	927	n/a	n/a	0	0.57763671875	0.412841796875	1	upper	amplitud.ttf
1221707	WORD	wordpools/wasnorm_wordpool_less_exclusions.txt	LTP231	ltpFR	5	8	1	ROCK	1201	n/a	n/a	0	0.422607421875	0.5869140625	0	lower	zerothre.ttf
1225601	WORD	wordpools/wasnorm_wordpool_less_exclusions.txt	LTP231	ltpFR	5	8	1	KIDNEY	776	n/a	n/a	2	0.422607421875	0.5869140625	0	lower	zerothre.ttf
1227715	KEY_MSG	n/a	LTP231	ltpFR	5	8	n/a	n/a	n/a	n/a	n/a	n/a	n/a	n/a	n/a	n/a	n/a
1230378	WORD	wordpools/wasnorm_wordpool_less_exclusions.txt	LTP231	ltpFR	5	8	0	TOAST	1471	n/a	n/a	0	0.57763671875	0.412841796875	1	upper	amplitud.ttf
1234456	WORD	wordpools/wasnorm_wordpool_less_exclusions.txt	LTP231	ltpFR	5	8	0	PIPE	1073	n/a	n/a	0	0.57763671875	0.412841796875	1	upper	amplitud.ttf
1238283	WORD	wordpools/wasnorm_wordpool_less_exclusions.txt	LTP231	ltpFR	5	8	0	OATS	968	n/a	n/a	0	0.57763671875	0.412841796875	1	upper	amplitud.ttf
1244325	REC_START	n/a	LTP231	ltpFR	5	8	n/a	n/a	n/a	n/a	n/a	n/a	n/a	n/a	n/a	n/a	n/a
1245572	REC_WORD	wordpools/wasnorm_wordpool_less_exclusions.txt	LTP231	ltpFR	5	8	0	OATS	968	n/a	n/a	0	n/a	n/a	n/a	n/a	n/a
1246899	REC_WORD	wordpools/wasnorm_wordpool_less_exclusions.txt	LTP231	ltpFR	5	8	1	KIDNEY	776	n/a	n/a	2	n/a	n/a	n/a	n/a	n/a
1247899	REC_WORD_VV	wordpools/wasnorm_wordpool_less_exclusions.txt	LTP231	ltpFR	5	8	n/a	<>	-1	n/a	n/a	n/a	n/a	n/a	n/a	n/a	n/a
1249199	REC_WORD	wordpools/wasnorm_wordpool_less_exclusions.txt	LTP231	ltpFR	5	8	0	TOAST	1471	n/a	n/a	0	n/a	n/a	n/a	n/a	n/a
1326019	WORD	wordpools/wasnorm_wordpool_less_exclusions.txt	LTP231	ltpFR	5	9	0	WOMAN	1620	n/a	n/a	1	0.57763671875	0.412841796875	1	upper	amplitud.ttf
1330013	WORD	wordpools/wasnorm_wordpool_less_exclusions.txt	LTP231	ltpFR	5	9	0	LADY	794	n/a	n/a	1	0.57763671875	0.412841796875	1	upper	amplitud.ttf
1334007	WORD	wordpools/wasnorm_wordpool_less_exclusions.txt	LTP231	ltpFR	5	9	0	TAVERN	1437	n/a	n/a	1	0.57763671875	0.412841796875	1	upper	amplitud.ttf
1337867	WORD	wordpools/wasnorm_wordpool_less_exclusions.txt	LTP231	ltpFR	5	9	0	TELEVISION	1447	n/a	n/a	1	0.57763671875	0.412841796875	1	upper	amplitud.ttf
1341694	WORD	wordpools/wasnorm_wordpool_less_exclusions.txt	LTP231	ltpFR	5	9	0	LIME	823	n/a	n/a	0	0.57763671875	0.412841796875	1	upper	amplitud.ttf
1345906	WORD	wordpools/wasnorm_wordpool_less_exclusions.txt	LTP231	ltpFR	5	9	0	BULB	192	n/a	n/a	0	0.57763671875	0.412841796875	1	upper	amplitud.ttf
1349933	WORD	wordpools/wasnorm_wordpool_less_exclusions.txt	LTP231	ltpFR	5	9	0	CANAL	226	n/a	n/a	1	0.57763671875	0.412841796875	1	upper	amplitud.ttf
1353826	WORD	wordpools/wasnorm_wordpool_less_exclusions.txt	LTP231	ltpFR	5	9	0	DEPARTMENT	449	n/a	n/a	1	0.57763671875	0.412841796875	1	upper	amplitud.ttf
1357804	WORD	wordpools/wasnorm_wordpool_less_exclusions.txt	LTP231	ltpFR	5	9	0	PIRATE	1074	n/a	n/a	1	0.57763671875	0.412841796875	1	upper	amplitud.ttf
1362015	WORD	wordpools/wasnorm_wordpool_less_exclusions.txt	LTP231	ltpFR	5	9	0	MEADOW	881	n/a	n/a	1	0.57763671875	0.412841796875	1	upper	amplitud.ttf
1365992	WORD	wordpools/wasnorm_wordpool_less_exclusions.txt	LTP231	ltpFR	5	9	0	GRASSHOPPER	656	n/a	n/a	0	0.57763671875	0.412841796875	1	upper	amplitud.ttf
1369887	WORD	wordpools/wasnorm_wordpool_less_exclusions.txt	LTP231	ltpFR	5	9	0	TORCH	1484	n/a	n/a	0	0.57763671875	0.412841796875	1	upper	amplitud.ttf
1373830	WORD	wordpools/wasnorm_wordpool_less_exclusions.txt	LTP231	ltpFR	5	9	0	ISLAND	745	n/a	n/a	1	0.57763671875	0.412841796875	1	upper	amplitud.ttf
1378041	WORD	wordpools/wasnorm_wordpool_less_exclusions.txt	LTP231	ltpFR	5	9	0	DAM	436	n/a	n/a	1	0.57763671875	0.412841796875	1	upper	amplitud.ttf
1382235	WORD	wordpools/wasnorm_wordpool_less_exclusions.txt	LTP231	ltpFR	5	9	0	WIRE	1616	n/a	n/a	0	0.57763671875	0.412841796875	1	upper	amplitud.ttf
1386462	WORD	wordpools/wasnorm_wordpool_less_exclusions.txt	LTP231	ltpFR	5	9	0	BEER	114	n/a	n/a	0	0.57763671875	0.412841796875	1	upper	amplitud.ttf
1392237	REC_START	n/a	LTP231	ltpFR	5	9	n/a	n/a	n/a	n/a	n/a	n/a	n/a	n/a	n/a	n/a	n/a
1393509	REC_WORD	wordpools/wasnorm_wordpool_less_exclusions.txt	LTP231	ltpFR	5	9	0	BEER	114	n/a	n/a	0	n/a	n/a	n/a	n/a	n/a
1394038	REC_WORD	wordpools/wasnorm_wordpool_less_exclusions.txt	LTP231	ltpFR	5	9	0	LADY	794	n/a	n/a	1	n/a	n/a	n/a	n/a	n/a
1394666	REC_WORD	wordpools/wasnorm_wordpool_less_exclusions.txt	LTP231	ltpFR	5	9	0	WOMAN	1620	n/a	n/a	1	n/a	n/a	n/a	n/a	n/a
1396771	REC_WORD	wordpools/wasnorm_wordpool_less_exclusions.txt	LTP231	ltpFR	5	9	0	TAVERN	1437	n/a	n/a	1	n/a	n/a	n/a	n/a	n/a
1405212	REC_WORD	wordpools/wasnorm_wordpool_less_exclusions.txt	LTP231	ltpFR	5	9	0	LIME	823	n/a	n/a	0	n/a	n/a	n/a	n/a	n/a
1461135	REC_WORD	wordpools/wasnorm_wordpool_less_exclusions.txt	LTP231	ltpFR	5	9	0	WIRE	1616	n/a	n/a	0	n/a	n/a	n/a	n/a	n/a
1478092	WORD	wordpools/wasnorm_wordpool_less_exclusions.txt	LTP231	ltpFR	5	10	-1	SALOON	1228	n/a	n/a	-1	1.0	1.0	1	upper	Verdana.ttf
1482235	WORD	wordpools/wasnorm_wordpool_less_exclusions.txt	LTP231	ltpFR	5	10	-1	MUG	930	n/a	n/a	-1	1.0	1.0	1	upper	Verdana.ttf
1486213	WORD	wordpools/wasnorm_wordpool_less_exclusions.txt	LTP231	ltpFR	5	10	-1	LAKE	796	n/a	n/a	-1	1.0	1.0	1	upper	Verdana.ttf
1490340	WORD	wordpools/wasnorm_wordpool_less_exclusions.txt	LTP231	ltpFR	5	10	-1	TOMATO	1476	n/a	n/a	-1	1.0	1.0	1	upper	Verdana.ttf
1494500	WORD	wordpools/wasnorm_wordpool_less_exclusions.txt	LTP231	ltpFR	5	10	-1	APPLE	33	n/a	n/a	-1	1.0	1.0	1	upper	Verdana.ttf
1498660	WORD	wordpools/wasnorm_wordpool_less_exclusions.txt	LTP231	ltpFR	5	10	-1	SCENERY	1247	n/a	n/a	-1	1.0	1.0	1	upper	Verdana.ttf
1502754	WORD	wordpools/wasnorm_wordpool_less_exclusions.txt	LTP231	ltpFR	5	10	-1	MATCH	878	n/a	n/a	-1	1.0	1.0	1	upper	Verdana.ttf
1506915	WORD	wordpools/wasnorm_wordpool_less_exclusions.txt	LTP231	ltpFR	5	10	-1	CHERRY	293	n/a	n/a	-1	1.0	1.0	1	upper	Verdana.ttf
1510759	WORD	wordpools/wasnorm_wordpool_less_exclusions.txt	LTP231	ltpFR	5	10	-1	CAMERA	224	n/a	n/a	-1	1.0	1.0	1	upper	Verdana.ttf
1514937	WORD	wordpools/wasnorm_wordpool_less_exclusions.txt	LTP231	ltpFR	5	10	-1	DILL	465	n/a	n/a	-1	1.0	1.0	1	upper	Verdana.ttf
1518947	WORD	wordpools/wasnorm_wordpool_less_exclusions.txt	LTP231	ltpFR	5	10	-1	SUPPER	1411	n/a	n/a	-1	1.0	1.0	1	upper	Verdana.ttf
1522807	WORD	wordpools/wasnorm_wordpool_less_exclusions.txt	LTP231	ltpFR	5	10	-1	PASTRY	1022	n/a	n/a	-1	1.0	1.0	1	upper	Verdana.ttf
1526635	WORD	wordpools/wasnorm_wordpool_less_exclusions.txt	LTP231	ltpFR	5	10	-1	CANDY	230	n/a	n/a	-1	1.0	1.0	1	upper	Verdana.ttf
1530729	WORD	wordpools/wasnorm_wordpool_less_exclusions.txt	LTP231	ltpFR	5	10	-1	LOUNGE	845	n/a	n/a	-1	1.0	1.0	1	upper	Verdana.ttf
1534839	WORD	wordpools/wasnorm_wordpool_less_exclusions.txt	LTP231	ltpFR	5	10	-1	NEUTRON	947	n/a	n/a	-1	1.0	1.0	1	upper	Verdana.ttf
1538750	WORD	wordpools/wasnorm_wordpool_less_exclusions.txt	LTP231	ltpFR	5	10	-1	PROTON	1132	n/a	n/a	-1	1.0	1.0	1	upper	Verdana.ttf
1544559	REC_START	n/a	LTP231	ltpFR	5	10	n/a	n/a	n/a	n/a	n/a	n/a	n/a	n/a	n/a	n/a	n/a
1546430	REC_WORD	wordpools/wasnorm_wordpool_less_exclusions.txt	LTP231	ltpFR	5	10	-1	PROTON	1132	n/a	n/a	-1	n/a	n/a	n/a	n/a	n/a
1547247	REC_WORD	wordpools/wasnorm_wordpool_less_exclusions.txt	LTP231	ltpFR	5	10	-1	NEUTRON	947	n/a	n/a	-1	n/a	n/a	n/a	n/a	n/a
1548884	REC_WORD	wordpools/wasnorm_wordpool_less_exclusions.txt	LTP231	ltpFR	5	10	0	TAVERN	1437	n/a	n/a	1	n/a	n/a	n/a	n/a	n/a
1549686	REC_WORD	wordpools/wasnorm_wordpool_less_exclusions.txt	LTP231	ltpFR	5	10	-1	MUG	930	n/a	n/a	-1	n/a	n/a	n/a	n/a	n/a
1551019	REC_WORD	wordpools/wasnorm_wordpool_less_exclusions.txt	LTP231	ltpFR	5	10	-1	LAKE	796	n/a	n/a	-1	n/a	n/a	n/a	n/a	n/a
1551722	REC_WORD	wordpools/wasnorm_wordpool_less_exclusions.txt	LTP231	ltpFR	5	10	-1	TOMATO	1476	n/a	n/a	-1	n/a	n/a	n/a	n/a	n/a
1552635	REC_WORD	wordpools/wasnorm_wordpool_less_exclusions.txt	LTP231	ltpFR	5	10	-1	APPLE	33	n/a	n/a	-1	n/a	n/a	n/a	n/a	n/a
1624906	WORD	wordpools/wasnorm_wordpool_less_exclusions.txt	LTP231	ltpFR	5	11	-1	FIDDLE	561	n/a	n/a	-1	1.0	1.0	1	upper	Verdana.ttf
1629116	WORD	wordpools/wasnorm_wordpool_less_exclusions.txt	LTP231	ltpFR	5	11	-1	SANDWICH	1232	n/a	n/a	-1	1.0	1.0	1	upper	Verdana.ttf
1633160	WORD	wordpools/wasnorm_wordpool_less_exclusions.txt	LTP231	ltpFR	5	11	-1	BEAN	105	n/a	n/a	-1	1.0	1.0	1	upper	Verdana.ttf
1637171	WORD	wordpools/wasnorm_wordpool_less_exclusions.txt	LTP231	ltpFR	5	11	-1	CAFETERIA	217	n/a	n/a	-1	1.0	1.0	1	upper	Verdana.ttf
1640998	WORD	wordpools/wasnorm_wordpool_less_exclusions.txt	LTP231	ltpFR	5	11	-1	BAND	78	n/a	n/a	-1	1.0	1.0	1	upper	Verdana.ttf
1644842	WORD	wordpools/wasnorm_wordpool_less_exclusions.txt	LTP231	ltpFR	5	11	-1	SUPERMARKET	1409	n/a	n/a	-1	1.0	1.0	1	upper	Verdana.ttf
1648852	WORD	wordpools/wasnorm_wordpool_less_exclusions.txt	LTP231	ltpFR	5	11	-1	HAMBURGER	679	n/a	n/a	-1	1.0	1.0	1	upper	Verdana.ttf
1652914	WORD	wordpools/wasnorm_wordpool_less_exclusions.txt	LTP231	ltpFR	5	11	-1	STEREO	1378	n/a	n/a	-1	1.0	1.0	1	upper	Verdana.ttf
1657074	WORD	wordpools/wasnorm_wordpool_less_exclusions.txt	LTP231	ltpFR	5	11	-1	SURVEY	1414	n/a	n/a	-1	1.0	1.0	1	upper	Verdana.ttf
1660919	WORD	wordpools/wasnorm_wordpool_less_exclusions.txt	LTP231	ltpFR	5	11	-1	PAWN	1030	n/a	n/a	-1	1.0	1.0	1	upper	Verdana.ttf
1664979	WORD	wordpools/wasnorm_wordpool_less_exclusions.txt	LTP231	ltpFR	5	11	-1	GRAVEL	659	n/a	n/a	-1	1.0	1.0	1	upper	Verdana.ttf
1668940	WORD	wordpools/wasnorm_wordpool_less_exclusions.txt	LTP231	ltpFR	5	11	-1	PERMIT	1051	n/a	n/a	-1	1.0	1.0	1	upper	Verdana.ttf
1673134	WORD	wordpools/wasnorm_wordpool_less_exclusions.txt	LTP231	ltpFR	5	11	-1	FEAST	556	n/a	n/a	-1	1.0	1.0	1	upper	Verdana.ttf
1677294	WORD	wordpools/wasnorm_wordpool_less_exclusions.txt	LTP231	ltpFR	5	11	-1	REFRIGERATOR	1179	n/a	n/a	-1	1.0	1.0	1	upper	Verdana.ttf
1681355	WORD	wordpools/wasnorm_wordpool_less_exclusions.txt	LTP231	ltpFR	5	11	-1	BINDER	127	n/a	n/a	-1	1.0	1.0	1	upper	Verdana.ttf
1685266	WORD	wordpools/wasnorm_wordpool_less_exclusions.txt	LTP231	ltpFR	5	11	-1	WORM	1623	n/a	n/a	-1	1.0	1.0	1	upper	Verdana.ttf
1691024	REC_START	n/a	LTP231	ltpFR	5	11	n/a	n/a	n/a	n/a	n/a	n/a	n/a	n/a	n/a	n/a	n/a
1692720	REC_WORD	wordpools/wasnorm_wordpool_less_exclusions.txt	LTP231	ltpFR	5	11	-1	WORM	1623	n/a	n/a	-1	n/a	n/a	n/a	n/a	n/a
1693837	REC_WORD	wordpools/wasnorm_wordpool_less_exclusions.txt	LTP231	ltpFR	5	11	-1	BINDER	127	n/a	n/a	-1	n/a	n/a	n/a	n/a	n/a
1694601	REC_WORD	wordpools/wasnorm_wordpool_less_exclusions.txt	LTP231	ltpFR	5	11	-1	REFRIGERATOR	1179	n/a	n/a	-1	n/a	n/a	n/a	n/a	n/a
1695601	REC_WORD_VV	wordpools/wasnorm_wordpool_less_exclusions.txt	LTP231	ltpFR	5	11	n/a	<>	-1	n/a	n/a	n/a	n/a	n/a	n/a	n/a	n/a
1698691	REC_WORD	wordpools/wasnorm_wordpool_less_exclusions.txt	LTP231	ltpFR	5	11	-1	CAFETERIA	217	n/a	n/a	-1	n/a	n/a	n/a	n/a	n/a
1699691	REC_WORD_VV	wordpools/wasnorm_wordpool_less_exclusions.txt	LTP231	ltpFR	5	11	n/a	<>	-1	n/a	n/a	n/a	n/a	n/a	n/a	n/a	n/a
1700012	REC_WORD	wordpools/wasnorm_wordpool_less_exclusions.txt	LTP231	ltpFR	5	11	-1	SUPERMARKET	1409	n/a	n/a	-1	n/a	n/a	n/a	n/a	n/a
1701256	REC_WORD	wordpools/wasnorm_wordpool_less_exclusions.txt	LTP231	ltpFR	5	11	-1	BAND	78	n/a	n/a	-1	n/a	n/a	n/a	n/a	n/a
1704742	REC_WORD	wordpools/wasnorm_wordpool_less_exclusions.txt	LTP231	ltpFR	5	11	-1	SURVEY	1414	n/a	n/a	-1	n/a	n/a	n/a	n/a	n/a
1719583	REC_WORD	wordpools/wasnorm_wordpool_less_exclusions.txt	LTP231	ltpFR	5	11	-1	FIDDLE	561	n/a	n/a	-1	n/a	n/a	n/a	n/a	n/a
1778376	WORD	wordpools/wasnorm_wordpool_less_exclusions.txt	LTP231	ltpFR	5	12	0	VET	1560	n/a	n/a	1	0.57763671875	0.412841796875	1	upper	amplitud.ttf
1782221	WORD	wordpools/wasnorm_wordpool_less_exclusions.txt	LTP231	ltpFR	5	12	0	JUNGLE	764	n/a	n/a	1	0.57763671875	0.412841796875	1	upper	amplitud.ttf
1786331	WORD	wordpools/wasnorm_wordpool_less_exclusions.txt	LTP231	ltpFR	5	12	0	CHAPEL	280	n/a	n/a	1	0.57763671875	0.412841796875	1	upper	amplitud.ttf
1790275	WORD	wordpools/wasnorm_wordpool_less_exclusions.txt	LTP231	ltpFR	5	12	0	RUBY	1214	n/a	n/a	0	0.57763671875	0.412841796875	1	upper	amplitud.ttf
1794453	WORD	wordpools/wasnorm_wordpool_less_exclusions.txt	LTP231	ltpFR	5	12	0	CHIP	303	n/a	n/a	0	0.57763671875	0.412841796875	1	upper	amplitud.ttf
1798529	WORD	wordpools/wasnorm_wordpool_less_exclusions.txt	LTP231	ltpFR	5	12	0	MAPLE	866	n/a	n/a	1	0.57763671875	0.412841796875	1	upper	amplitud.ttf
1802539	WORD	wordpools/wasnorm_wordpool_less_exclusions.txt	LTP231	ltpFR	5	12	0	EMPEROR	529	n/a	n/a	1	0.57763671875	0.412841796875	1	upper	amplitud.ttf
1806750	WORD	wordpools/wasnorm_wordpool_less_exclusions.txt	LTP231	ltpFR	5	12	0	DETECTIVE	454	n/a	n/a	1	0.57763671875	0.412841796875	1	upper	amplitud.ttf
1810594	WORD	wordpools/wasnorm_wordpool_less_exclusions.txt	LTP231	ltpFR	5	12	0	LEAF	808	n/a	n/a	0	0.57763671875	0.412841796875	1	upper	amplitud.ttf
1814721	WORD	wordpools/wasnorm_wordpool_less_exclusions.txt	LTP231	ltpFR	5	12	0	RACK	1154	n/a	n/a	1	0.57763671875	0.412841796875	1	upper	amplitud.ttf
1818665	WORD	wordpools/wasnorm_wordpool_less_exclusions.txt	LTP231	ltpFR	5	12	0	MOTORCYCLE	923	n/a	n/a	1	0.57763671875	0.412841796875	1	upper	amplitud.ttf
1822543	WORD	wordpools/wasnorm_wordpool_less_exclusions.txt	LTP231	ltpFR	5	12	0	PALACE	1006	n/a	n/a	1	0.57763671875	0.412841796875	1	upper	amplitud.ttf
1826737	WORD	wordpools/wasnorm_wordpool_less_exclusions.txt	LTP231	ltpFR	5	12	0	DIARY	460	n/a	n/a	0	0.57763671875	0.412841796875	1	upper	amplitud.ttf
1830664	WORD	wordpools/wasnorm_wordpool_less_exclusions.txt	LTP231	ltpFR	5	12	0	MOON	914	n/a	n/a	1	0.57763671875	0.412841796875	1	upper	amplitud.ttf
1834808	WORD	wordpools/wasnorm_wordpool_less_exclusions.txt	LTP231	ltpFR	5	12	0	PENNY	1045	n/a	n/a	0	0.57763671875	0.412841796875	1	upper	amplitud.ttf
1838903	WORD	wordpools/wasnorm_wordpool_less_exclusions.txt	LTP231	ltpFR	5	12	0	RECEIPT	1173	n/a	n/a	0	0.57763671875	0.412841796875	1	upper	amplitud.ttf
1844727	REC_START	n/a	LTP231	ltpFR	5	12	n/a	n/a	n/a	n/a	n/a	n/a	n/a	n/a	n/a	n/a	n/a
1845470	REC_WORD	wordpools/wasnorm_wordpool_less_exclusions.txt	LTP231	ltpFR	5	12	0	PENNY	1045	n/a	n/a	0	n/a	n/a	n/a	n/a	n/a
1846214	REC_WORD	wordpools/wasnorm_wordpool_less_exclusions.txt	LTP231	ltpFR	5	12	0	RECEIPT	1173	n/a	n/a	0	n/a	n/a	n/a	n/a	n/a
1847301	REC_WORD	wordpools/wasnorm_wordpool_less_exclusions.txt	LTP231	ltpFR	5	12	0	MOON	914	n/a	n/a	1	n/a	n/a	n/a	n/a	n/a
1857109	REC_WORD	wordpools/wasnorm_wordpool_less_exclusions.txt	LTP231	ltpFR	5	12	0	PALACE	1006	n/a	n/a	1	n/a	n/a	n/a	n/a	n/a
1857992	REC_WORD	wordpools/wasnorm_wordpool_less_exclusions.txt	LTP231	ltpFR	5	12	0	EMPEROR	529	n/a	n/a	1	n/a	n/a	n/a	n/a	n/a
1876968	REC_WORD	wordpools/wasnorm_wordpool_less_exclusions.txt	LTP231	ltpFR	5	12	0	LEAF	808	n/a	n/a	0	n/a	n/a	n/a	n/a	n/a
1888946	REC_WORD	wordpools/wasnorm_wordpool_less_exclusions.txt	LTP231	ltpFR	5	12	0	VET	1560	n/a	n/a	1	n/a	n/a	n/a	n/a	n/a
1920331	REST_REWET	n/a	LTP231	ltpFR	5	12	n/a	n/a	n/a	n/a	n/a	n/a	n/a	n/a	n/a	n/a	n/a
2198564	WORD	wordpools/wasnorm_wordpool_less_exclusions.txt	LTP231	ltpFR	5	13	1	CREW	406	n/a	n/a	0	0.422607421875	0.5869140625	0	lower	zerothre.ttf
2202575	WORD	wordpools/wasnorm_wordpool_less_exclusions.txt	LTP231	ltpFR	5	13	1	PERSONNEL	1053	n/a	n/a	1	0.422607421875	0.5869140625	0	lower	zerothre.ttf
2206669	WORD	wordpools/wasnorm_wordpool_less_exclusions.txt	LTP231	ltpFR	5	13	1	FACTORY	548	n/a	n/a	0	0.422607421875	0.5869140625	0	lower	zerothre.ttf
2210763	WORD	wordpools/wasnorm_wordpool_less_exclusions.txt	LTP231	ltpFR	5	13	1	CORPORATION	382	n/a	n/a	0	0.422607421875	0.5869140625	0	lower	zerothre.ttf
2214607	WORD	wordpools/wasnorm_wordpool_less_exclusions.txt	LTP231	ltpFR	5	13	1	PEPPER	1047	n/a	n/a	0	0.422607421875	0.5869140625	0	lower	zerothre.ttf
2218551	WORD	wordpools/wasnorm_wordpool_less_exclusions.txt	LTP231	ltpFR	5	13	1	SHRIMP	1297	n/a	n/a	1	0.422607421875	0.5869140625	0	lower	zerothre.ttf
2222762	WORD	wordpools/wasnorm_wordpool_less_exclusions.txt	LTP231	ltpFR	5	13	1	EYELASH	546	n/a	n/a	0	0.422607421875	0.5869140625	0	lower	zerothre.ttf
2226890	WORD	wordpools/wasnorm_wordpool_less_exclusions.txt	LTP231	ltpFR	5	13	1	SPATULA	1348	n/a	n/a	0	0.422607421875	0.5869140625	0	lower	zerothre.ttf
2231000	WORD	wordpools/wasnorm_wordpool_less_exclusions.txt	LTP231	ltpFR	5	13	1	DUNGEON	507	n/a	n/a	0	0.422607421875	0.5869140625	0	lower	zerothre.ttf
2235111	WORD	wordpools/wasnorm_wordpool_less_exclusions.txt	LTP231	ltpFR	5	13	1	WALRUS	1585	n/a	n/a	1	0.422607421875	0.5869140625	0	lower	zerothre.ttf
2239022	WORD	wordpools/wasnorm_wordpool_less_exclusions.txt	LTP231	ltpFR	5	13	1	EDITOR	516	n/a	n/a	1	0.422607421875	0.5869140625	0	lower	zerothre.ttf
2243182	WORD	wordpools/wasnorm_wordpool_less_exclusions.txt	LTP231	ltpFR	5	13	1	TROUT	1511	n/a	n/a	1	0.422607421875	0.5869140625	0	lower	zerothre.ttf
2247193	WORD	wordpools/wasnorm_wordpool_less_exclusions.txt	LTP231	ltpFR	5	13	1	FIREMAN	569	n/a	n/a	1	0.422607421875	0.5869140625	0	lower	zerothre.ttf
2251120	WORD	wordpools/wasnorm_wordpool_less_exclusions.txt	LTP231	ltpFR	5	13	1	NOSE	957	n/a	n/a	0	0.422607421875	0.5869140625	0	lower	zerothre.ttf
2255297	WORD	wordpools/wasnorm_wordpool_less_exclusions.txt	LTP231	ltpFR	5	13	1	DOORBELL	487	n/a	n/a	0	0.422607421875	0.5869140625	0	lower	zerothre.ttf
2259458	WORD	wordpools/wasnorm_wordpool_less_exclusions.txt	LTP231	ltpFR	5	13	1	GEM	629	n/a	n/a	0	0.422607421875	0.5869140625	0	lower	zerothre.ttf
2265416	REC_START	n/a	LTP231	ltpFR	5	13	n/a	n/a	n/a	n/a	n/a	n/a	n/a	n/a	n/a	n/a	n/a
2266882	REC_WORD	wordpools/wasnorm_wordpool_less_exclusions.txt	LTP231	ltpFR	5	13	1	GEM	629	n/a	n/a	0	n/a	n/a	n/a	n/a	n/a
2267535	REC_WORD	wordpools/wasnorm_wordpool_less_exclusions.txt	LTP231	ltpFR	5	13	1	FIREMAN	569	n/a	n/a	1	n/a	n/a	n/a	n/a	n/a
2268535	REC_WORD_VV	wordpools/wasnorm_wordpool_less_exclusions.txt	LTP231	ltpFR	5	13	n/a	<>	-1	n/a	n/a	n/a	n/a	n/a	n/a	n/a	n/a
2277563	REC_WORD	wordpools/wasnorm_wordpool_less_exclusions.txt	LTP231	ltpFR	5	13	1	SHRIMP	1297	n/a	n/a	1	n/a	n/a	n/a	n/a	n/a
2281232	REC_WORD_VV	wordpools/wasnorm_wordpool_less_exclusions.txt	LTP231	ltpFR	5	13	n/a	<>	-1	n/a	n/a	n/a	n/a	n/a	n/a	n/a	n/a
2282232	REC_WORD_VV	wordpools/wasnorm_wordpool_less_exclusions.txt	LTP231	ltpFR	5	13	n/a	<>	-1	n/a	n/a	n/a	n/a	n/a	n/a	n/a	n/a
2283125	REC_WORD	wordpools/wasnorm_wordpool_less_exclusions.txt	LTP231	ltpFR	5	13	1	CORPORATION	382	n/a	n/a	0	n/a	n/a	n/a	n/a	n/a
2284125	REC_WORD_VV	wordpools/wasnorm_wordpool_less_exclusions.txt	LTP231	ltpFR	5	13	n/a	<>	-1	n/a	n/a	n/a	n/a	n/a	n/a	n/a	n/a
2284931	REC_WORD	wordpools/wasnorm_wordpool_less_exclusions.txt	LTP231	ltpFR	5	13	1	CREW	406	n/a	n/a	0	n/a	n/a	n/a	n/a	n/a
2286881	REC_WORD	wordpools/wasnorm_wordpool_less_exclusions.txt	LTP231	ltpFR	5	13	1	PERSONNEL	1053	n/a	n/a	1	n/a	n/a	n/a	n/a	n/a
2345446	WORD	wordpools/wasnorm_wordpool_less_exclusions.txt	LTP231	ltpFR	5	14	1	PADDLE	1000	n/a	n/a	0	0.422607421875	0.5869140625	0	lower	zerothre.ttf
2349274	WORD	wordpools/wasnorm_wordpool_less_exclusions.txt	LTP231	ltpFR	5	14	1	MULE	931	n/a	n/a	1	0.422607421875	0.5869140625	0	lower	zerothre.ttf
2353201	WORD	wordpools/wasnorm_wordpool_less_exclusions.txt	LTP231	ltpFR	5	14	1	GAZELLE	628	n/a	n/a	1	0.422607421875	0.5869140625	0	lower	zerothre.ttf
2357312	WORD	wordpools/wasnorm_wordpool_less_exclusions.txt	LTP231	ltpFR	5	14	0	BOARD	143	n/a	n/a	0	0.57763671875	0.412841796875	1	upper	amplitud.ttf
2361206	WORD	wordpools/wasnorm_wordpool_less_exclusions.txt	LTP231	ltpFR	5	14	0	CORK	380	n/a	n/a	0	0.57763671875	0.412841796875	1	upper	amplitud.ttf
2365033	WORD	wordpools/wasnorm_wordpool_less_exclusions.txt	LTP231	ltpFR	5	14	0	SHED	1277	n/a	n/a	0	0.57763671875	0.412841796875	1	upper	amplitud.ttf
2368978	WORD	wordpools/wasnorm_wordpool_less_exclusions.txt	LTP231	ltpFR	5	14	0	SEAGULL	1261	n/a	n/a	0	0.57763671875	0.412841796875	1	upper	amplitud.ttf
2372922	WORD	wordpools/wasnorm_wordpool_less_exclusions.txt	LTP231	ltpFR	5	14	1	CROW	414	n/a	n/a	1	0.422607421875	0.5869140625	0	lower	zerothre.ttf
2376966	WORD	wordpools/wasnorm_wordpool_less_exclusions.txt	LTP231	ltpFR	5	14	1	ANCHOR	21	n/a	n/a	0	0.422607421875	0.5869140625	0	lower	zerothre.ttf
2381126	WORD	wordpools/wasnorm_wordpool_less_exclusions.txt	LTP231	ltpFR	5	14	1	SALMON	1227	n/a	n/a	1	0.422607421875	0.5869140625	0	lower	zerothre.ttf
2385104	WORD	wordpools/wasnorm_wordpool_less_exclusions.txt	LTP231	ltpFR	5	14	1	PAW	1029	n/a	n/a	0	0.422607421875	0.5869140625	0	lower	zerothre.ttf
2389281	WORD	wordpools/wasnorm_wordpool_less_exclusions.txt	LTP231	ltpFR	5	14	1	MOTH	920	n/a	n/a	1	0.422607421875	0.5869140625	0	lower	zerothre.ttf
2393325	WORD	wordpools/wasnorm_wordpool_less_exclusions.txt	LTP231	ltpFR	5	14	0	ANTEATER	26	n/a	n/a	0	0.57763671875	0.412841796875	1	upper	amplitud.ttf
2397202	WORD	wordpools/wasnorm_wordpool_less_exclusions.txt	LTP231	ltpFR	5	14	0	CARPENTER	246	n/a	n/a	1	0.57763671875	0.412841796875	1	upper	amplitud.ttf
2401329	WORD	wordpools/wasnorm_wordpool_less_exclusions.txt	LTP231	ltpFR	5	14	0	MIRROR	899	n/a	n/a	0	0.57763671875	0.412841796875	1	upper	amplitud.ttf
2405190	WORD	wordpools/wasnorm_wordpool_less_exclusions.txt	LTP231	ltpFR	5	14	0	STAGE	1366	n/a	n/a	1	0.57763671875	0.412841796875	1	upper	amplitud.ttf
2410882	REC_START	n/a	LTP231	ltpFR	5	14	n/a	n/a	n/a	n/a	n/a	n/a	n/a	n/a	n/a	n/a	n/a
2412472	REC_WORD	wordpools/wasnorm_wordpool_less_exclusions.txt	LTP231	ltpFR	5	14	0	STAGE	1366	n/a	n/a	1	n/a	n/a	n/a	n/a	n/a
2413472	REC_WORD_VV	wordpools/wasnorm_wordpool_less_exclusions.txt	LTP231	ltpFR	5	14	n/a	<>	-1	n/a	n/a	n/a	n/a	n/a	n/a	n/a	n/a
2414898	REC_WORD	wordpools/wasnorm_wordpool_less_exclusions.txt	LTP231	ltpFR	5	14	0	MIRROR	899	n/a	n/a	0	n/a	n/a	n/a	n/a	n/a
2415898	REC_WORD_VV	wordpools/wasnorm_wordpool_less_exclusions.txt	LTP231	ltpFR	5	14	n/a	<>	-1	n/a	n/a	n/a	n/a	n/a	n/a	n/a	n/a
2416544	REC_WORD	wordpools/wasnorm_wordpool_less_exclusions.txt	LTP231	ltpFR	5	14	1	MOTH	920	n/a	n/a	1	n/a	n/a	n/a	n/a	n/a
2437297	REC_WORD	wordpools/wasnorm_wordpool_less_exclusions.txt	LTP231	ltpFR	5	14	1	MULE	931	n/a	n/a	1	n/a	n/a	n/a	n/a	n/a
2438459	REC_WORD	wordpools/wasnorm_wordpool_less_exclusions.txt	LTP231	ltpFR	5	14	1	GAZELLE	628	n/a	n/a	1	n/a	n/a	n/a	n/a	n/a
2447119	REC_WORD	wordpools/wasnorm_wordpool_less_exclusions.txt	LTP231	ltpFR	5	14	0	CORK	380	n/a	n/a	0	n/a	n/a	n/a	n/a	n/a
2448436	REC_WORD	wordpools/wasnorm_wordpool_less_exclusions.txt	LTP231	ltpFR	5	14	0	BOARD	143	n/a	n/a	0	n/a	n/a	n/a	n/a	n/a
2502694	WORD	wordpools/wasnorm_wordpool_less_exclusions.txt	LTP231	ltpFR	5	15	-1	LETTUCE	814	n/a	n/a	-1	1.0	1.0	1	upper	Verdana.ttf
2506654	WORD	wordpools/wasnorm_wordpool_less_exclusions.txt	LTP231	ltpFR	5	15	-1	MUSEUM	933	n/a	n/a	-1	1.0	1.0	1	upper	Verdana.ttf
2510815	WORD	wordpools/wasnorm_wordpool_less_exclusions.txt	LTP231	ltpFR	5	15	-1	PEOPLE	1046	n/a	n/a	-1	1.0	1.0	1	upper	Verdana.ttf
2515009	WORD	wordpools/wasnorm_wordpool_less_exclusions.txt	LTP231	ltpFR	5	15	-1	SATURN	1236	n/a	n/a	-1	1.0	1.0	1	upper	Verdana.ttf
2519170	WORD	wordpools/wasnorm_wordpool_less_exclusions.txt	LTP231	ltpFR	5	15	-1	PLIERS	1089	n/a	n/a	-1	1.0	1.0	1	upper	Verdana.ttf
2523147	WORD	wordpools/wasnorm_wordpool_less_exclusions.txt	LTP231	ltpFR	5	15	-1	CHISEL	305	n/a	n/a	-1	1.0	1.0	1	upper	Verdana.ttf
2527175	WORD	wordpools/wasnorm_wordpool_less_exclusions.txt	LTP231	ltpFR	5	15	-1	CERAMICS	271	n/a	n/a	-1	1.0	1.0	1	upper	Verdana.ttf
2531302	WORD	wordpools/wasnorm_wordpool_less_exclusions.txt	LTP231	ltpFR	5	15	-1	PEDESTRIAN	1038	n/a	n/a	-1	1.0	1.0	1	upper	Verdana.ttf
2535462	WORD	wordpools/wasnorm_wordpool_less_exclusions.txt	LTP231	ltpFR	5	15	-1	ATTIRE	57	n/a	n/a	-1	1.0	1.0	1	upper	Verdana.ttf
2539588	WORD	wordpools/wasnorm_wordpool_less_exclusions.txt	LTP231	ltpFR	5	15	-1	TUXEDO	1525	n/a	n/a	-1	1.0	1.0	1	upper	Verdana.ttf
2543500	WORD	wordpools/wasnorm_wordpool_less_exclusions.txt	LTP231	ltpFR	5	15	-1	PHOTO	1055	n/a	n/a	-1	1.0	1.0	1	upper	Verdana.ttf
2547660	WORD	wordpools/wasnorm_wordpool_less_exclusions.txt	LTP231	ltpFR	5	15	-1	BED	110	n/a	n/a	-1	1.0	1.0	1	upper	Verdana.ttf
2551837	WORD	wordpools/wasnorm_wordpool_less_exclusions.txt	LTP231	ltpFR	5	15	-1	BABY	64	n/a	n/a	-1	1.0	1.0	1	upper	Verdana.ttf
2555948	WORD	wordpools/wasnorm_wordpool_less_exclusions.txt	LTP231	ltpFR	5	15	-1	NAPKIN	937	n/a	n/a	-1	1.0	1.0	1	upper	Verdana.ttf
2560059	WORD	wordpools/wasnorm_wordpool_less_exclusions.txt	LTP231	ltpFR	5	15	-1	TABLET	1427	n/a	n/a	-1	1.0	1.0	1	upper	Verdana.ttf
2564020	WORD	wordpools/wasnorm_wordpool_less_exclusions.txt	LTP231	ltpFR	5	15	-1	SALAD	1224	n/a	n/a	-1	1.0	1.0	1	upper	Verdana.ttf
2569978	REC_START	n/a	LTP231	ltpFR	5	15	n/a	n/a	n/a	n/a	n/a	n/a	n/a	n/a	n/a	n/a	n/a
2571878	REC_WORD	wordpools/wasnorm_wordpool_less_exclusions.txt	LTP231	ltpFR	5	15	-1	SALAD	1224	n/a	n/a	-1	n/a	n/a	n/a	n/a	n/a
2573006	REC_WORD	wordpools/wasnorm_wordpool_less_exclusions.txt	LTP231	ltpFR	5	15	-1	TABLET	1427	n/a	n/a	-1	n/a	n/a	n/a	n/a	n/a
2574193	REC_WORD	wordpools/wasnorm_wordpool_less_exclusions.txt	LTP231	ltpFR	5	15	-1	BABY	64	n/a	n/a	-1	n/a	n/a	n/a	n/a	n/a
2575760	REC_WORD	wordpools/wasnorm_wordpool_less_exclusions.txt	LTP231	ltpFR	5	15	-1	NAPKIN	937	n/a	n/a	-1	n/a	n/a	n/a	n/a	n/a
2577401	REC_WORD	wordpools/wasnorm_wordpool_less_exclusions.txt	LTP231	ltpFR	5	15	-1	BED	110	n/a	n/a	-1	n/a	n/a	n/a	n/a	n/a
2581490	REC_WORD	wordpools/wasnorm_wordpool_less_exclusions.txt	LTP231	ltpFR	5	15	-1	SATURN	1236	n/a	n/a	-1	n/a	n/a	n/a	n/a	n/a
2582754	REC_WORD	wordpools/wasnorm_wordpool_less_exclusions.txt	LTP231	ltpFR	5	15	-1	MUSEUM	933	n/a	n/a	-1	n/a	n/a	n/a	n/a	n/a
2584111	REC_WORD	wordpools/wasnorm_wordpool_less_exclusions.txt	LTP231	ltpFR	5	15	-1	LETTUCE	814	n/a	n/a	-1	n/a	n/a	n/a	n/a	n/a
2585956	REC_WORD	wordpools/wasnorm_wordpool_less_exclusions.txt	LTP231	ltpFR	5	15	-1	PEOPLE	1046	n/a	n/a	-1	n/a	n/a	n/a	n/a	n/a
2587064	REC_WORD	wordpools/wasnorm_wordpool_less_exclusions.txt	LTP231	ltpFR	5	15	-1	ATTIRE	57	n/a	n/a	-1	n/a	n/a	n/a	n/a	n/a
2588236	REC_WORD	wordpools/wasnorm_wordpool_less_exclusions.txt	LTP231	ltpFR	5	15	-1	TUXEDO	1525	n/a	n/a	-1	n/a	n/a	n/a	n/a	n/a
2589786	REC_WORD_VV	wordpools/wasnorm_wordpool_less_exclusions.txt	LTP231	ltpFR	5	15	n/a	<>	-1	n/a	n/a	n/a	n/a	n/a	n/a	n/a	n/a
2590755	REC_WORD	wordpools/wasnorm_wordpool_less_exclusions.txt	LTP231	ltpFR	5	15	-1	PEDESTRIAN	1038	n/a	n/a	-1	n/a	n/a	n/a	n/a	n/a
2598797	REC_WORD	wordpools/wasnorm_wordpool_less_exclusions.txt	LTP231	ltpFR	5	15	-1	PLIERS	1089	n/a	n/a	-1	n/a	n/a	n/a	n/a	n/a
2599895	REC_WORD	wordpools/wasnorm_wordpool_less_exclusions.txt	LTP231	ltpFR	5	15	-1	CHISEL	305	n/a	n/a	-1	n/a	n/a	n/a	n/a	n/a
2601965	REC_WORD	wordpools/wasnorm_wordpool_less_exclusions.txt	LTP231	ltpFR	5	15	-1	CERAMICS	271	n/a	n/a	-1	n/a	n/a	n/a	n/a	n/a
2602965	REC_WORD_VV	wordpools/wasnorm_wordpool_less_exclusions.txt	LTP231	ltpFR	5	15	n/a	<>	-1	n/a	n/a	n/a	n/a	n/a	n/a	n/a	n/a
2658661	WORD	wordpools/wasnorm_wordpool_less_exclusions.txt	LTP231	ltpFR	5	16	1	BUG	187	n/a	n/a	1	0.422607421875	0.5869140625	0	lower	zerothre.ttf
2662538	WORD	wordpools/wasnorm_wordpool_less_exclusions.txt	LTP231	ltpFR	5	16	1	SPIDER	1351	n/a	n/a	1	0.422607421875	0.5869140625	0	lower	zerothre.ttf
2666582	WORD	wordpools/wasnorm_wordpool_less_exclusions.txt	LTP231	ltpFR	5	16	1	SHIRT	1287	n/a	n/a	0	0.422607421875	0.5869140625	0	lower	zerothre.ttf
2670643	WORD	wordpools/wasnorm_wordpool_less_exclusions.txt	LTP231	ltpFR	5	16	1	BRIDGE	174	n/a	n/a	0	0.422607421875	0.5869140625	0	lower	zerothre.ttf
2674737	WORD	wordpools/wasnorm_wordpool_less_exclusions.txt	LTP231	ltpFR	5	16	1	LIPSTICK	829	n/a	n/a	0	0.422607421875	0.5869140625	0	lower	zerothre.ttf
2678898	WORD	wordpools/wasnorm_wordpool_less_exclusions.txt	LTP231	ltpFR	5	16	1	SACK	1220	n/a	n/a	0	0.422607421875	0.5869140625	0	lower	zerothre.ttf
2683075	WORD	wordpools/wasnorm_wordpool_less_exclusions.txt	LTP231	ltpFR	5	16	1	CLOWN	330	n/a	n/a	1	0.422607421875	0.5869140625	0	lower	zerothre.ttf
2686919	WORD	wordpools/wasnorm_wordpool_less_exclusions.txt	LTP231	ltpFR	5	16	1	EWE	542	n/a	n/a	1	0.422607421875	0.5869140625	0	lower	zerothre.ttf
2691113	WORD	wordpools/wasnorm_wordpool_less_exclusions.txt	LTP231	ltpFR	5	16	1	HERD	705	n/a	n/a	0	0.422607421875	0.5869140625	0	lower	zerothre.ttf
2695007	WORD	wordpools/wasnorm_wordpool_less_exclusions.txt	LTP231	ltpFR	5	16	1	COMMUNITY	356	n/a	n/a	0	0.422607421875	0.5869140625	0	lower	zerothre.ttf
2699184	WORD	wordpools/wasnorm_wordpool_less_exclusions.txt	LTP231	ltpFR	5	16	1	SHORTCAKE	1292	n/a	n/a	0	0.422607421875	0.5869140625	0	lower	zerothre.ttf
2703029	WORD	wordpools/wasnorm_wordpool_less_exclusions.txt	LTP231	ltpFR	5	16	1	POCKET	1093	n/a	n/a	0	0.422607421875	0.5869140625	0	lower	zerothre.ttf
2707106	WORD	wordpools/wasnorm_wordpool_less_exclusions.txt	LTP231	ltpFR	5	16	1	COLLAR	345	n/a	n/a	0	0.422607421875	0.5869140625	0	lower	zerothre.ttf
2711150	WORD	wordpools/wasnorm_wordpool_less_exclusions.txt	LTP231	ltpFR	5	16	1	CINNAMON	310	n/a	n/a	0	0.422607421875	0.5869140625	0	lower	zerothre.ttf
2715294	WORD	wordpools/wasnorm_wordpool_less_exclusions.txt	LTP231	ltpFR	5	16	1	PICKLE	1059	n/a	n/a	0	0.422607421875	0.5869140625	0	lower	zerothre.ttf
2719121	WORD	wordpools/wasnorm_wordpool_less_exclusions.txt	LTP231	ltpFR	5	16	1	ARCHITECT	36	n/a	n/a	0	0.422607421875	0.5869140625	0	lower	zerothre.ttf
2725047	REC_START	n/a	LTP231	ltpFR	5	16	n/a	n/a	n/a	n/a	n/a	n/a	n/a	n/a	n/a	n/a	n/a
2725980	REC_WORD	wordpools/wasnorm_wordpool_less_exclusions.txt	LTP231	ltpFR	5	16	1	ARCHITECT	36	n/a	n/a	0	n/a	n/a	n/a	n/a	n/a
2728039	REC_WORD	wordpools/wasnorm_wordpool_less_exclusions.txt	LTP231	ltpFR	5	16	1	PICKLE	1059	n/a	n/a	0	n/a	n/a	n/a	n/a	n/a
2730264	REC_WORD	wordpools/wasnorm_wordpool_less_exclusions.txt	LTP231	ltpFR	5	16	1	SPIDER	1351	n/a	n/a	1	n/a	n/a	n/a	n/a	n/a
2731567	REC_WORD	wordpools/wasnorm_wordpool_less_exclusions.txt	LTP231	ltpFR	5	16	1	BUG	187	n/a	n/a	1	n/a	n/a	n/a	n/a	n/a
2733607	REC_WORD	wordpools/wasnorm_wordpool_less_exclusions.txt	LTP231	ltpFR	5	16	1	EWE	542	n/a	n/a	1	n/a	n/a	n/a	n/a	n/a
2735403	REC_WORD	wordpools/wasnorm_wordpool_less_exclusions.txt	LTP231	ltpFR	5	16	1	HERD	705	n/a	n/a	0	n/a	n/a	n/a	n/a	n/a
2737159	REC_WORD	wordpools/wasnorm_wordpool_less_exclusions.txt	LTP231	ltpFR	5	16	1	COMMUNITY	356	n/a	n/a	0	n/a	n/a	n/a	n/a	n/a
2841805	REC_START	n/a	LTP231	ltpFR	5	1	n/a	n/a	n/a	n/a	n/a	n/a	n/a	n/a	n/a	n/a	n/a
2841837	RECOG_TARGET	n/a	LTP231	ltpFR	5	1	0	BUTTERFLY	206	1	5	0	n/a	n/a	n/a	n/a	n/a
2843565	RECOG_RESP	n/a	LTP231	ltpFR	5	1	0	BUTTERFLY	206	1	n/a	0	n/a	n/a	n/a	n/a	n/a
2845731	RECOG_CONF	n/a	LTP231	ltpFR	5	1	0	BUTTERFLY	206	n/a	5	0	n/a	n/a	n/a	n/a	n/a
2848212	RECOG_LURE	n/a	LTP231	ltpFR	5	1	n/a	CHAIN	273	0	3	n/a	n/a	n/a	n/a	n/a	n/a
2849624	RECOG_RESP	n/a	LTP231	ltpFR	5	1	n/a	CHAIN	273	0	n/a	n/a	n/a	n/a	n/a	n/a	n/a
2851667	RECOG_CONF	n/a	LTP231	ltpFR	5	1	n/a	CHAIN	273	n/a	3	n/a	n/a	n/a	n/a	n/a	n/a
2854120	RECOG_LURE	n/a	LTP231	ltpFR	5	1	n/a	SEAFOOD	1260	0	4	n/a	n/a	n/a	n/a	n/a	n/a
2855784	RECOG_RESP	n/a	LTP231	ltpFR	5	1	n/a	SEAFOOD	1260	0	n/a	n/a	n/a	n/a	n/a	n/a	n/a
2857414	RECOG_CONF	n/a	LTP231	ltpFR	5	1	n/a	SEAFOOD	1260	n/a	4	n/a	n/a	n/a	n/a	n/a	n/a
2860910	RECOG_TARGET	n/a	LTP231	ltpFR	5	1	0	LOBSTER	837	1	5	0	n/a	n/a	n/a	n/a	n/a
2861904	RECOG_RESP	n/a	LTP231	ltpFR	5	1	0	LOBSTER	837	1	n/a	0	n/a	n/a	n/a	n/a	n/a
2863770	RECOG_CONF	n/a	LTP231	ltpFR	5	1	0	LOBSTER	837	n/a	5	0	n/a	n/a	n/a	n/a	n/a
2866035	RECOG_LURE	n/a	LTP231	ltpFR	5	1	n/a	SHARK	1275	0	3	n/a	n/a	n/a	n/a	n/a	n/a
2868823	RECOG_RESP	n/a	LTP231	ltpFR	5	1	n/a	SHARK	1275	0	n/a	n/a	n/a	n/a	n/a	n/a	n/a
2870793	RECOG_CONF	n/a	LTP231	ltpFR	5	1	n/a	SHARK	1275	n/a	3	n/a	n/a	n/a	n/a	n/a	n/a
2873075	RECOG_LURE	n/a	LTP231	ltpFR	5	1	n/a	DICTATOR	462	0	2	n/a	n/a	n/a	n/a	n/a	n/a
2876249	RECOG_RESP	n/a	LTP231	ltpFR	5	1	n/a	DICTATOR	462	0	n/a	n/a	n/a	n/a	n/a	n/a	n/a
2877908	RECOG_CONF	n/a	LTP231	ltpFR	5	1	n/a	DICTATOR	462	n/a	2	n/a	n/a	n/a	n/a	n/a	n/a
2880148	RECOG_LURE	n/a	LTP231	ltpFR	5	1	n/a	BALLERINA	74	0	5	n/a	n/a	n/a	n/a	n/a	n/a
2881379	RECOG_RESP	n/a	LTP231	ltpFR	5	1	n/a	BALLERINA	74	0	n/a	n/a	n/a	n/a	n/a	n/a	n/a
2882886	RECOG_CONF	n/a	LTP231	ltpFR	5	1	n/a	BALLERINA	74	n/a	5	n/a	n/a	n/a	n/a	n/a	n/a
2885157	RECOG_LURE	n/a	LTP231	ltpFR	5	1	n/a	SHAMPOO	1274	0	3	n/a	n/a	n/a	n/a	n/a	n/a
2887720	RECOG_RESP	n/a	LTP231	ltpFR	5	1	n/a	SHAMPOO	1274	0	n/a	n/a	n/a	n/a	n/a	n/a	n/a
2889871	RECOG_CONF	n/a	LTP231	ltpFR	5	1	n/a	SHAMPOO	1274	n/a	3	n/a	n/a	n/a	n/a	n/a	n/a
2892046	RECOG_LURE	n/a	LTP231	ltpFR	5	1	n/a	CUCUMBER	421	0	4	n/a	n/a	n/a	n/a	n/a	n/a
2893188	RECOG_RESP	n/a	LTP231	ltpFR	5	1	n/a	CUCUMBER	421	0	n/a	n/a	n/a	n/a	n/a	n/a	n/a
2895288	RECOG_CONF	n/a	LTP231	ltpFR	5	1	n/a	CUCUMBER	421	n/a	4	n/a	n/a	n/a	n/a	n/a	n/a
2897988	RECOG_TARGET	n/a	LTP231	ltpFR	5	1	1	LIZARD	834	1	5	1	n/a	n/a	n/a	n/a	n/a
2899053	RECOG_RESP	n/a	LTP231	ltpFR	5	1	1	LIZARD	834	1	n/a	1	n/a	n/a	n/a	n/a	n/a
2901045	RECOG_CONF	n/a	LTP231	ltpFR	5	1	1	LIZARD	834	n/a	5	1	n/a	n/a	n/a	n/a	n/a
2903479	RECOG_LURE	n/a	LTP231	ltpFR	5	1	n/a	SNEAKER	1334	0	3	n/a	n/a	n/a	n/a	n/a	n/a
2904460	RECOG_RESP	n/a	LTP231	ltpFR	5	1	n/a	SNEAKER	1334	0	n/a	n/a	n/a	n/a	n/a	n/a	n/a
2906246	RECOG_CONF	n/a	LTP231	ltpFR	5	1	n/a	SNEAKER	1334	n/a	3	n/a	n/a	n/a	n/a	n/a	n/a
2908355	RECOG_TARGET	n/a	LTP231	ltpFR	5	1	-1	KNAPSACK	783	1	4	-1	n/a	n/a	n/a	n/a	n/a
2909790	RECOG_RESP	n/a	LTP231	ltpFR	5	1	-1	KNAPSACK	783	1	n/a	-1	n/a	n/a	n/a	n/a	n/a
2911796	RECOG_CONF	n/a	LTP231	ltpFR	5	1	-1	KNAPSACK	783	n/a	4	-1	n/a	n/a	n/a	n/a	n/a
2914330	RECOG_TARGET	n/a	LTP231	ltpFR	5	1	-1	CANDY	230	1	1	-1	n/a	n/a	n/a	n/a	n/a
2918742	RECOG_RESP	n/a	LTP231	ltpFR	5	1	-1	CANDY	230	1	n/a	-1	n/a	n/a	n/a	n/a	n/a
2920480	RECOG_CONF	n/a	LTP231	ltpFR	5	1	-1	CANDY	230	n/a	1	-1	n/a	n/a	n/a	n/a	n/a
2923150	RECOG_TARGET	n/a	LTP231	ltpFR	5	1	0	DINER	467	1	3	1	n/a	n/a	n/a	n/a	n/a
2927605	RECOG_RESP	n/a	LTP231	ltpFR	5	1	0	DINER	467	1	n/a	1	n/a	n/a	n/a	n/a	n/a
2930388	RECOG_CONF	n/a	LTP231	ltpFR	5	1	0	DINER	467	n/a	3	1	n/a	n/a	n/a	n/a	n/a
2932768	RECOG_TARGET	n/a	LTP231	ltpFR	5	1	0	EMPEROR	529	1	4	1	n/a	n/a	n/a	n/a	n/a
2933907	RECOG_RESP	n/a	LTP231	ltpFR	5	1	0	EMPEROR	529	1	n/a	1	n/a	n/a	n/a	n/a	n/a
2936774	RECOG_CONF	n/a	LTP231	ltpFR	5	1	0	EMPEROR	529	n/a	4	1	n/a	n/a	n/a	n/a	n/a
2938993	RECOG_LURE	n/a	LTP231	ltpFR	5	1	n/a	CRITIC	410	0	3	n/a	n/a	n/a	n/a	n/a	n/a
2940517	RECOG_RESP	n/a	LTP231	ltpFR	5	1	n/a	CRITIC	410	0	n/a	n/a	n/a	n/a	n/a	n/a	n/a
2944387	RECOG_CONF	n/a	LTP231	ltpFR	5	1	n/a	CRITIC	410	n/a	3	n/a	n/a	n/a	n/a	n/a	n/a
2947579	RECOG_TARGET	n/a	LTP231	ltpFR	5	1	0	BRIDE	173	1	2	1	n/a	n/a	n/a	n/a	n/a
2949782	RECOG_RESP	n/a	LTP231	ltpFR	5	1	0	BRIDE	173	1	n/a	1	n/a	n/a	n/a	n/a	n/a
2952355	RECOG_CONF	n/a	LTP231	ltpFR	5	1	0	BRIDE	173	n/a	2	1	n/a	n/a	n/a	n/a	n/a
2954669	RECOG_LURE	n/a	LTP231	ltpFR	5	1	n/a	TOOTH	1481	0	3	n/a	n/a	n/a	n/a	n/a	n/a
2955666	RECOG_RESP	n/a	LTP231	ltpFR	5	1	n/a	TOOTH	1481	0	n/a	n/a	n/a	n/a	n/a	n/a	n/a
2957527	RECOG_CONF	n/a	LTP231	ltpFR	5	1	n/a	TOOTH	1481	n/a	3	n/a	n/a	n/a	n/a	n/a	n/a
2959895	RECOG_TARGET	n/a	LTP231	ltpFR	5	1	-1	SUPPER	1411	1	3	-1	n/a	n/a	n/a	n/a	n/a
2960964	RECOG_RESP	n/a	LTP231	ltpFR	5	1	-1	SUPPER	1411	1	n/a	-1	n/a	n/a	n/a	n/a	n/a
2963587	RECOG_CONF	n/a	LTP231	ltpFR	5	1	-1	SUPPER	1411	n/a	3	-1	n/a	n/a	n/a	n/a	n/a
2965735	RECOG_TARGET	n/a	LTP231	ltpFR	5	1	0	CURTAIN	427	1	3	1	n/a	n/a	n/a	n/a	n/a
2968213	RECOG_RESP	n/a	LTP231	ltpFR	5	1	0	CURTAIN	427	1	n/a	1	n/a	n/a	n/a	n/a	n/a
2970627	RECOG_CONF	n/a	LTP231	ltpFR	5	1	0	CURTAIN	427	n/a	3	1	n/a	n/a	n/a	n/a	n/a
2978894	REC_START	n/a	LTP231	ltpFR	5	2	n/a	n/a	n/a	n/a	n/a	n/a	n/a	n/a	n/a	n/a	n/a
2978933	RECOG_TARGET	n/a	LTP231	ltpFR	5	2	-1	HAMBURGER	679	0	3	-1	n/a	n/a	n/a	n/a	n/a
2980496	RECOG_RESP	n/a	LTP231	ltpFR	5	2	-1	HAMBURGER	679	0	n/a	-1	n/a	n/a	n/a	n/a	n/a
2982590	RECOG_CONF	n/a	LTP231	ltpFR	5	2	-1	HAMBURGER	679	n/a	3	-1	n/a	n/a	n/a	n/a	n/a
2984974	RECOG_LURE	n/a	LTP231	ltpFR	5	2	n/a	SAND	1230	0	4	n/a	n/a	n/a	n/a	n/a	n/a
2988761	RECOG_RESP	n/a	LTP231	ltpFR	5	2	n/a	SAND	1230	0	n/a	n/a	n/a	n/a	n/a	n/a	n/a
2990523	RECOG_CONF	n/a	LTP231	ltpFR	5	2	n/a	SAND	1230	n/a	4	n/a	n/a	n/a	n/a	n/a	n/a
2993212	RECOG_TARGET	n/a	LTP231	ltpFR	5	2	1	DUNGEON	507	0	3	0	n/a	n/a	n/a	n/a	n/a
2994557	RECOG_RESP	n/a	LTP231	ltpFR	5	2	1	DUNGEON	507	0	n/a	0	n/a	n/a	n/a	n/a	n/a
2996655	RECOG_CONF	n/a	LTP231	ltpFR	5	2	1	DUNGEON	507	n/a	3	0	n/a	n/a	n/a	n/a	n/a
2999003	RECOG_TARGET	n/a	LTP231	ltpFR	5	2	-1	FIDDLE	561	1	4	-1	n/a	n/a	n/a	n/a	n/a
3001221	RECOG_RESP	n/a	LTP231	ltpFR	5	2	-1	FIDDLE	561	1	n/a	-1	n/a	n/a	n/a	n/a	n/a
3003130	RECOG_CONF	n/a	LTP231	ltpFR	5	2	-1	FIDDLE	561	n/a	4	-1	n/a	n/a	n/a	n/a	n/a
3005543	RECOG_LURE	n/a	LTP231	ltpFR	5	2	n/a	CASHEW	253	0	5	n/a	n/a	n/a	n/a	n/a	n/a
3006721	RECOG_RESP	n/a	LTP231	ltpFR	5	2	n/a	CASHEW	253	0	n/a	n/a	n/a	n/a	n/a	n/a	n/a
3008638	RECOG_CONF	n/a	LTP231	ltpFR	5	2	n/a	CASHEW	253	n/a	5	n/a	n/a	n/a	n/a	n/a	n/a
3011085	RECOG_LURE	n/a	LTP231	ltpFR	5	2	n/a	JACKET	747	0	3	n/a	n/a	n/a	n/a	n/a	n/a
3013888	RECOG_RESP	n/a	LTP231	ltpFR	5	2	n/a	JACKET	747	0	n/a	n/a	n/a	n/a	n/a	n/a	n/a
3015506	RECOG_CONF	n/a	LTP231	ltpFR	5	2	n/a	JACKET	747	n/a	3	n/a	n/a	n/a	n/a	n/a	n/a
3017908	RECOG_TARGET	n/a	LTP231	ltpFR	5	2	-1	NOTEBOOK	959	1	4	-1	n/a	n/a	n/a	n/a	n/a
3019444	RECOG_RESP	n/a	LTP231	ltpFR	5	2	-1	NOTEBOOK	959	1	n/a	-1	n/a	n/a	n/a	n/a	n/a
3021901	RECOG_CONF	n/a	LTP231	ltpFR	5	2	-1	NOTEBOOK	959	n/a	4	-1	n/a	n/a	n/a	n/a	n/a
3024266	RECOG_LURE	n/a	LTP231	ltpFR	5	2	n/a	ACTOR	5	0	3	n/a	n/a	n/a	n/a	n/a	n/a
3029202	RECOG_RESP	n/a	LTP231	ltpFR	5	2	n/a	ACTOR	5	0	n/a	n/a	n/a	n/a	n/a	n/a	n/a
3031534	RECOG_CONF	n/a	LTP231	ltpFR	5	2	n/a	ACTOR	5	n/a	3	n/a	n/a	n/a	n/a	n/a	n/a
3034151	RECOG_TARGET	n/a	LTP231	ltpFR	5	2	-1	COPIER	377	1	5	-1	n/a	n/a	n/a	n/a	n/a
3035236	RECOG_RESP	n/a	LTP231	ltpFR	5	2	-1	COPIER	377	1	n/a	-1	n/a	n/a	n/a	n/a	n/a
3037705	RECOG_CONF	n/a	LTP231	ltpFR	5	2	-1	COPIER	377	n/a	5	-1	n/a	n/a	n/a	n/a	n/a
3040225	RECOG_LURE	n/a	LTP231	ltpFR	5	2	n/a	AIRPORT	13	0	3	n/a	n/a	n/a	n/a	n/a	n/a
3041403	RECOG_RESP	n/a	LTP231	ltpFR	5	2	n/a	AIRPORT	13	0	n/a	n/a	n/a	n/a	n/a	n/a	n/a
3043893	RECOG_CONF	n/a	LTP231	ltpFR	5	2	n/a	AIRPORT	13	n/a	3	n/a	n/a	n/a	n/a	n/a	n/a
3046150	RECOG_TARGET	n/a	LTP231	ltpFR	5	2	0	CHIP	303	0	2	0	n/a	n/a	n/a	n/a	n/a
3047348	RECOG_RESP	n/a	LTP231	ltpFR	5	2	0	CHIP	303	0	n/a	0	n/a	n/a	n/a	n/a	n/a
3049967	RECOG_CONF	n/a	LTP231	ltpFR	5	2	0	CHIP	303	n/a	2	0	n/a	n/a	n/a	n/a	n/a
3052207	RECOG_TARGET	n/a	LTP231	ltpFR	5	2	1	FROG	608	1	5	1	n/a	n/a	n/a	n/a	n/a
3053161	RECOG_RESP	n/a	LTP231	ltpFR	5	2	1	FROG	608	1	n/a	1	n/a	n/a	n/a	n/a	n/a
3055155	RECOG_CONF	n/a	LTP231	ltpFR	5	2	1	FROG	608	n/a	5	1	n/a	n/a	n/a	n/a	n/a
3057532	RECOG_TARGET	n/a	LTP231	ltpFR	5	2	1	COLONEL	348	1	5	1	n/a	n/a	n/a	n/a	n/a
3058536	RECOG_RESP	n/a	LTP231	ltpFR	5	2	1	COLONEL	348	1	n/a	1	n/a	n/a	n/a	n/a	n/a
3060343	RECOG_CONF	n/a	LTP231	ltpFR	5	2	1	COLONEL	348	n/a	5	1	n/a	n/a	n/a	n/a	n/a
3063108	RECOG_TARGET	n/a	LTP231	ltpFR	5	2	-1	FLASHLIGHT	575	1	4	-1	n/a	n/a	n/a	n/a	n/a
3063948	RECOG_RESP	n/a	LTP231	ltpFR	5	2	-1	FLASHLIGHT	575	1	n/a	-1	n/a	n/a	n/a	n/a	n/a
3065399	RECOG_CONF	n/a	LTP231	ltpFR	5	2	-1	FLASHLIGHT	575	n/a	4	-1	n/a	n/a	n/a	n/a	n/a
3067833	RECOG_LURE	n/a	LTP231	ltpFR	5	2	n/a	COURSE	390	0	3	n/a	n/a	n/a	n/a	n/a	n/a
3068762	RECOG_RESP	n/a	LTP231	ltpFR	5	2	n/a	COURSE	390	0	n/a	n/a	n/a	n/a	n/a	n/a	n/a
3070558	RECOG_CONF	n/a	LTP231	ltpFR	5	2	n/a	COURSE	390	n/a	3	n/a	n/a	n/a	n/a	n/a	n/a
3073259	RECOG_TARGET	n/a	LTP231	ltpFR	5	2	1	TEAM	1441	0	2	0	n/a	n/a	n/a	n/a	n/a
3075392	RECOG_RESP	n/a	LTP231	ltpFR	5	2	1	TEAM	1441	0	n/a	0	n/a	n/a	n/a	n/a	n/a
3077777	RECOG_CONF	n/a	LTP231	ltpFR	5	2	1	TEAM	1441	n/a	2	0	n/a	n/a	n/a	n/a	n/a
3080199	RECOG_LURE	n/a	LTP231	ltpFR	5	2	n/a	ARROW	40	0	5	n/a	n/a	n/a	n/a	n/a	n/a
3081195	RECOG_RESP	n/a	LTP231	ltpFR	5	2	n/a	ARROW	40	0	n/a	n/a	n/a	n/a	n/a	n/a	n/a
3082891	RECOG_CONF	n/a	LTP231	ltpFR	5	2	n/a	ARROW	40	n/a	5	n/a	n/a	n/a	n/a	n/a	n/a
3084892	RECOG_TARGET	n/a	LTP231	ltpFR	5	2	1	LIST	830	1	2	0	n/a	n/a	n/a	n/a	n/a
3086039	RECOG_RESP	n/a	LTP231	ltpFR	5	2	1	LIST	830	1	n/a	0	n/a	n/a	n/a	n/a	n/a
3087542	RECOG_CONF	n/a	LTP231	ltpFR	5	2	1	LIST	830	n/a	2	0	n/a	n/a	n/a	n/a	n/a
3089901	RECOG_TARGET	n/a	LTP231	ltpFR	5	2	1	PERSONNEL	1053	1	4	1	n/a	n/a	n/a	n/a	n/a
3090869	RECOG_RESP	n/a	LTP231	ltpFR	5	2	1	PERSONNEL	1053	1	n/a	1	n/a	n/a	n/a	n/a	n/a
3092650	RECOG_CONF	n/a	LTP231	ltpFR	5	2	1	PERSONNEL	1053	n/a	4	1	n/a	n/a	n/a	n/a	n/a
3094576	RECOG_TARGET	n/a	LTP231	ltpFR	5	2	0	DRESS	495	0	3	0	n/a	n/a	n/a	n/a	n/a
3095564	RECOG_RESP	n/a	LTP231	ltpFR	5	2	0	DRESS	495	0	n/a	0	n/a	n/a	n/a	n/a	n/a
3097300	RECOG_CONF	n/a	LTP231	ltpFR	5	2	0	DRESS	495	n/a	3	0	n/a	n/a	n/a	n/a	n/a
3111605	REC_START	n/a	LTP231	ltpFR	5	3	n/a	n/a	n/a	n/a	n/a	n/a	n/a	n/a	n/a	n/a	n/a
3111634	RECOG_TARGET	n/a	LTP231	ltpFR	5	3	1	PAW	1029	1	4	0	n/a	n/a	n/a	n/a	n/a
3112688	RECOG_RESP	n/a	LTP231	ltpFR	5	3	1	PAW	1029	1	n/a	0	n/a	n/a	n/a	n/a	n/a
3115152	RECOG_CONF	n/a	LTP231	ltpFR	5	3	1	PAW	1029	n/a	4	0	n/a	n/a	n/a	n/a	n/a
3117427	RECOG_TARGET	n/a	LTP231	ltpFR	5	3	1	SPIDER	1351	1	4	1	n/a	n/a	n/a	n/a	n/a
3118338	RECOG_RESP	n/a	LTP231	ltpFR	5	3	1	SPIDER	1351	1	n/a	1	n/a	n/a	n/a	n/a	n/a
3120592	RECOG_CONF	n/a	LTP231	ltpFR	5	3	1	SPIDER	1351	n/a	4	1	n/a	n/a	n/a	n/a	n/a
3125498	RECOG_LURE	n/a	LTP231	ltpFR	5	3	n/a	NOTE	958	0	3	n/a	n/a	n/a	n/a	n/a	n/a
3127085	RECOG_RESP	n/a	LTP231	ltpFR	5	3	n/a	NOTE	958	0	n/a	n/a	n/a	n/a	n/a	n/a	n/a
3129398	RECOG_CONF	n/a	LTP231	ltpFR	5	3	n/a	NOTE	958	n/a	3	n/a	n/a	n/a	n/a	n/a	n/a
3132204	RECOG_LURE	n/a	LTP231	ltpFR	5	3	n/a	PIMPLE	1071	0	5	n/a	n/a	n/a	n/a	n/a	n/a
3133254	RECOG_RESP	n/a	LTP231	ltpFR	5	3	n/a	PIMPLE	1071	0	n/a	n/a	n/a	n/a	n/a	n/a	n/a
3135121	RECOG_CONF	n/a	LTP231	ltpFR	5	3	n/a	PIMPLE	1071	n/a	5	n/a	n/a	n/a	n/a	n/a	n/a
3137878	RECOG_TARGET	n/a	LTP231	ltpFR	5	3	-1	SCARECROW	1245	1	5	-1	n/a	n/a	n/a	n/a	n/a
3138834	RECOG_RESP	n/a	LTP231	ltpFR	5	3	-1	SCARECROW	1245	1	n/a	-1	n/a	n/a	n/a	n/a	n/a
3140714	RECOG_CONF	n/a	LTP231	ltpFR	5	3	-1	SCARECROW	1245	n/a	5	-1	n/a	n/a	n/a	n/a	n/a
3143205	RECOG_LURE	n/a	LTP231	ltpFR	5	3	n/a	PONY	1102	0	3	n/a	n/a	n/a	n/a	n/a	n/a
3144256	RECOG_RESP	n/a	LTP231	ltpFR	5	3	n/a	PONY	1102	0	n/a	n/a	n/a	n/a	n/a	n/a	n/a
3146483	RECOG_CONF	n/a	LTP231	ltpFR	5	3	n/a	PONY	1102	n/a	3	n/a	n/a	n/a	n/a	n/a	n/a
3148913	RECOG_LURE	n/a	LTP231	ltpFR	5	3	n/a	GENTLEMAN	631	0	4	n/a	n/a	n/a	n/a	n/a	n/a
3150697	RECOG_RESP	n/a	LTP231	ltpFR	5	3	n/a	GENTLEMAN	631	0	n/a	n/a	n/a	n/a	n/a	n/a	n/a
3153327	RECOG_CONF	n/a	LTP231	ltpFR	5	3	n/a	GENTLEMAN	631	n/a	4	n/a	n/a	n/a	n/a	n/a	n/a
3156219	RECOG_TARGET	n/a	LTP231	ltpFR	5	3	1	PASSENGER	1020	1	4	1	n/a	n/a	n/a	n/a	n/a
3157336	RECOG_RESP	n/a	LTP231	ltpFR	5	3	1	PASSENGER	1020	1	n/a	1	n/a	n/a	n/a	n/a	n/a
3159381	RECOG_CONF	n/a	LTP231	ltpFR	5	3	1	PASSENGER	1020	n/a	4	1	n/a	n/a	n/a	n/a	n/a
3161793	RECOG_LURE	n/a	LTP231	ltpFR	5	3	n/a	REINDEER	1181	0	5	n/a	n/a	n/a	n/a	n/a	n/a
3162744	RECOG_RESP	n/a	LTP231	ltpFR	5	3	n/a	REINDEER	1181	0	n/a	n/a	n/a	n/a	n/a	n/a	n/a
3164258	RECOG_CONF	n/a	LTP231	ltpFR	5	3	n/a	REINDEER	1181	n/a	5	n/a	n/a	n/a	n/a	n/a	n/a
3166852	RECOG_TARGET	n/a	LTP231	ltpFR	5	3	0	JUNGLE	764	1	4	1	n/a	n/a	n/a	n/a	n/a
3167714	RECOG_RESP	n/a	LTP231	ltpFR	5	3	0	JUNGLE	764	1	n/a	1	n/a	n/a	n/a	n/a	n/a
3169653	RECOG_CONF	n/a	LTP231	ltpFR	5	3	0	JUNGLE	764	n/a	4	1	n/a	n/a	n/a	n/a	n/a
3171962	RECOG_TARGET	n/a	LTP231	ltpFR	5	3	0	CANAL	226	1	3	1	n/a	n/a	n/a	n/a	n/a
3173292	RECOG_RESP	n/a	LTP231	ltpFR	5	3	0	CANAL	226	1	n/a	1	n/a	n/a	n/a	n/a	n/a
3175167	RECOG_CONF	n/a	LTP231	ltpFR	5	3	0	CANAL	226	n/a	3	1	n/a	n/a	n/a	n/a	n/a
3177337	RECOG_TARGET	n/a	LTP231	ltpFR	5	3	1	DOORBELL	487	0	2	0	n/a	n/a	n/a	n/a	n/a
3178335	RECOG_RESP	n/a	LTP231	ltpFR	5	3	1	DOORBELL	487	0	n/a	0	n/a	n/a	n/a	n/a	n/a
3179954	RECOG_CONF	n/a	LTP231	ltpFR	5	3	1	DOORBELL	487	n/a	2	0	n/a	n/a	n/a	n/a	n/a
3181963	RECOG_TARGET	n/a	LTP231	ltpFR	5	3	0	HIKER	708	0	1	1	n/a	n/a	n/a	n/a	n/a
3183178	RECOG_RESP	n/a	LTP231	ltpFR	5	3	0	HIKER	708	0	n/a	1	n/a	n/a	n/a	n/a	n/a
3184922	RECOG_CONF	n/a	LTP231	ltpFR	5	3	0	HIKER	708	n/a	1	1	n/a	n/a	n/a	n/a	n/a
3187073	RECOG_LURE	n/a	LTP231	ltpFR	5	3	n/a	SHEPHERD	1283	0	2	n/a	n/a	n/a	n/a	n/a	n/a
3188006	RECOG_RESP	n/a	LTP231	ltpFR	5	3	n/a	SHEPHERD	1283	0	n/a	n/a	n/a	n/a	n/a	n/a	n/a
3189554	RECOG_CONF	n/a	LTP231	ltpFR	5	3	n/a	SHEPHERD	1283	n/a	2	n/a	n/a	n/a	n/a	n/a	n/a
3191581	RECOG_TARGET	n/a	LTP231	ltpFR	5	3	0	MEADOW	881	1	4	1	n/a	n/a	n/a	n/a	n/a
3192506	RECOG_RESP	n/a	LTP231	ltpFR	5	3	0	MEADOW	881	1	n/a	1	n/a	n/a	n/a	n/a	n/a
3194032	RECOG_CONF	n/a	LTP231	ltpFR	5	3	0	MEADOW	881	n/a	4	1	n/a	n/a	n/a	n/a	n/a
3196459	RECOG_TARGET	n/a	LTP231	ltpFR	5	3	1	SWAMP	1416	1	4	0	n/a	n/a	n/a	n/a	n/a
3197295	RECOG_RESP	n/a	LTP231	ltpFR	5	3	1	SWAMP	1416	1	n/a	0	n/a	n/a	n/a	n/a	n/a
3199221	RECOG_CONF	n/a	LTP231	ltpFR	5	3	1	SWAMP	1416	n/a	4	0	n/a	n/a	n/a	n/a	n/a
3201118	RECOG_TARGET	n/a	LTP231	ltpFR	5	3	0	TAVERN	1437	1	4	1	n/a	n/a	n/a	n/a	n/a
3204021	RECOG_RESP	n/a	LTP231	ltpFR	5	3	0	TAVERN	1437	1	n/a	1	n/a	n/a	n/a	n/a	n/a
3205570	RECOG_CONF	n/a	LTP231	ltpFR	5	3	0	TAVERN	1437	n/a	4	1	n/a	n/a	n/a	n/a	n/a
3208108	RECOG_TARGET	n/a	LTP231	ltpFR	5	3	1	KIDNEY	776	1	5	2	n/a	n/a	n/a	n/a	n/a
3208978	RECOG_RESP	n/a	LTP231	ltpFR	5	3	1	KIDNEY	776	1	n/a	2	n/a	n/a	n/a	n/a	n/a
3210384	RECOG_CONF	n/a	LTP231	ltpFR	5	3	1	KIDNEY	776	n/a	5	2	n/a	n/a	n/a	n/a	n/a
3212617	RECOG_LURE	n/a	LTP231	ltpFR	5	3	n/a	POLICE	1098	0	3	n/a	n/a	n/a	n/a	n/a	n/a
3213551	RECOG_RESP	n/a	LTP231	ltpFR	5	3	n/a	POLICE	1098	0	n/a	n/a	n/a	n/a	n/a	n/a	n/a
3215129	RECOG_CONF	n/a	LTP231	ltpFR	5	3	n/a	POLICE	1098	n/a	3	n/a	n/a	n/a	n/a	n/a	n/a
3217742	RECOG_TARGET	n/a	LTP231	ltpFR	5	3	0	ANIMAL	23	1	4	1	n/a	n/a	n/a	n/a	n/a
3218644	RECOG_RESP	n/a	LTP231	ltpFR	5	3	0	ANIMAL	23	1	n/a	1	n/a	n/a	n/a	n/a	n/a
3220413	RECOG_CONF	n/a	LTP231	ltpFR	5	3	0	ANIMAL	23	n/a	4	1	n/a	n/a	n/a	n/a	n/a
3248126	REC_START	n/a	LTP231	ltpFR	5	4	n/a	n/a	n/a	n/a	n/a	n/a	n/a	n/a	n/a	n/a	n/a
3248165	RECOG_TARGET	n/a	LTP231	ltpFR	5	4	1	EWE	542	1	5	1	n/a	n/a	n/a	n/a	n/a
3249430	RECOG_RESP	n/a	LTP231	ltpFR	5	4	1	EWE	542	1	n/a	1	n/a	n/a	n/a	n/a	n/a
3252132	RECOG_CONF	n/a	LTP231	ltpFR	5	4	1	EWE	542	n/a	5	1	n/a	n/a	n/a	n/a	n/a
3254587	RECOG_TARGET	n/a	LTP231	ltpFR	5	4	1	SPONGE	1355	1	5	0	n/a	n/a	n/a	n/a	n/a
3255483	RECOG_RESP	n/a	LTP231	ltpFR	5	4	1	SPONGE	1355	1	n/a	0	n/a	n/a	n/a	n/a	n/a
3258181	RECOG_CONF	n/a	LTP231	ltpFR	5	4	1	SPONGE	1355	n/a	5	0	n/a	n/a	n/a	n/a	n/a
3260578	RECOG_TARGET	n/a	LTP231	ltpFR	5	4	0	JURY	766	1	5	1	n/a	n/a	n/a	n/a	n/a
3261798	RECOG_RESP	n/a	LTP231	ltpFR	5	4	0	JURY	766	1	n/a	1	n/a	n/a	n/a	n/a	n/a
3263805	RECOG_CONF	n/a	LTP231	ltpFR	5	4	0	JURY	766	n/a	5	1	n/a	n/a	n/a	n/a	n/a
3266454	RECOG_LURE	n/a	LTP231	ltpFR	5	4	n/a	GUM	672	0	3	n/a	n/a	n/a	n/a	n/a	n/a
3267498	RECOG_RESP	n/a	LTP231	ltpFR	5	4	n/a	GUM	672	0	n/a	n/a	n/a	n/a	n/a	n/a	n/a
3269610	RECOG_CONF	n/a	LTP231	ltpFR	5	4	n/a	GUM	672	n/a	3	n/a	n/a	n/a	n/a	n/a	n/a
3271862	RECOG_LURE	n/a	LTP231	ltpFR	5	4	n/a	DWARF	510	0	3	n/a	n/a	n/a	n/a	n/a	n/a
3272742	RECOG_RESP	n/a	LTP231	ltpFR	5	4	n/a	DWARF	510	0	n/a	n/a	n/a	n/a	n/a	n/a	n/a
3274803	RECOG_CONF	n/a	LTP231	ltpFR	5	4	n/a	DWARF	510	n/a	3	n/a	n/a	n/a	n/a	n/a	n/a
3277155	RECOG_TARGET	n/a	LTP231	ltpFR	5	4	1	LEADER	807	1	4	1	n/a	n/a	n/a	n/a	n/a
3278437	RECOG_RESP	n/a	LTP231	ltpFR	5	4	1	LEADER	807	1	n/a	1	n/a	n/a	n/a	n/a	n/a
3280077	RECOG_CONF	n/a	LTP231	ltpFR	5	4	1	LEADER	807	n/a	4	1	n/a	n/a	n/a	n/a	n/a
3282314	RECOG_TARGET	n/a	LTP231	ltpFR	5	4	0	CHAPEL	280	1	4	1	n/a	n/a	n/a	n/a	n/a
3283277	RECOG_RESP	n/a	LTP231	ltpFR	5	4	0	CHAPEL	280	1	n/a	1	n/a	n/a	n/a	n/a	n/a
3285576	RECOG_CONF	n/a	LTP231	ltpFR	5	4	0	CHAPEL	280	n/a	4	1	n/a	n/a	n/a	n/a	n/a
3287754	RECOG_TARGET	n/a	LTP231	ltpFR	5	4	0	WOMAN	1620	1	3	1	n/a	n/a	n/a	n/a	n/a
3289050	RECOG_RESP	n/a	LTP231	ltpFR	5	4	0	WOMAN	1620	1	n/a	1	n/a	n/a	n/a	n/a	n/a
3291542	RECOG_CONF	n/a	LTP231	ltpFR	5	4	0	WOMAN	1620	n/a	3	1	n/a	n/a	n/a	n/a	n/a
3293862	RECOG_TARGET	n/a	LTP231	ltpFR	5	4	-1	CERAMICS	271	1	3	-1	n/a	n/a	n/a	n/a	n/a
3294814	RECOG_RESP	n/a	LTP231	ltpFR	5	4	-1	CERAMICS	271	1	n/a	-1	n/a	n/a	n/a	n/a	n/a
3296780	RECOG_CONF	n/a	LTP231	ltpFR	5	4	-1	CERAMICS	271	n/a	3	-1	n/a	n/a	n/a	n/a	n/a
3299005	RECOG_LURE	n/a	LTP231	ltpFR	5	4	n/a	BLADE	134	0	2	n/a	n/a	n/a	n/a	n/a	n/a
3299924	RECOG_RESP	n/a	LTP231	ltpFR	5	4	n/a	BLADE	134	0	n/a	n/a	n/a	n/a	n/a	n/a	n/a
3302809	RECOG_CONF	n/a	LTP231	ltpFR	5	4	n/a	BLADE	134	n/a	2	n/a	n/a	n/a	n/a	n/a	n/a
3305561	RECOG_TARGET	n/a	LTP231	ltpFR	5	4	0	TELEVISION	1447	1	3	1	n/a	n/a	n/a	n/a	n/a
3306763	RECOG_RESP	n/a	LTP231	ltpFR	5	4	0	TELEVISION	1447	1	n/a	1	n/a	n/a	n/a	n/a	n/a
3308808	RECOG_CONF	n/a	LTP231	ltpFR	5	4	0	TELEVISION	1447	n/a	3	1	n/a	n/a	n/a	n/a	n/a
3311404	RECOG_TARGET	n/a	LTP231	ltpFR	5	4	0	LADY	794	1	4	1	n/a	n/a	n/a	n/a	n/a
3313257	RECOG_RESP	n/a	LTP231	ltpFR	5	4	0	LADY	794	1	n/a	1	n/a	n/a	n/a	n/a	n/a
3315244	RECOG_CONF	n/a	LTP231	ltpFR	5	4	0	LADY	794	n/a	4	1	n/a	n/a	n/a	n/a	n/a
3317793	RECOG_TARGET	n/a	LTP231	ltpFR	5	4	1	SHRIMP	1297	1	4	1	n/a	n/a	n/a	n/a	n/a
3318665	RECOG_RESP	n/a	LTP231	ltpFR	5	4	1	SHRIMP	1297	1	n/a	1	n/a	n/a	n/a	n/a	n/a
3321473	RECOG_CONF	n/a	LTP231	ltpFR	5	4	1	SHRIMP	1297	n/a	4	1	n/a	n/a	n/a	n/a	n/a
3324051	RECOG_TARGET	n/a	LTP231	ltpFR	5	4	1	FREEWAY	603	1	4	0	n/a	n/a	n/a	n/a	n/a
3325088	RECOG_RESP	n/a	LTP231	ltpFR	5	4	1	FREEWAY	603	1	n/a	0	n/a	n/a	n/a	n/a	n/a
3327674	RECOG_CONF	n/a	LTP231	ltpFR	5	4	1	FREEWAY	603	n/a	4	0	n/a	n/a	n/a	n/a	n/a
3329709	RECOG_TARGET	n/a	LTP231	ltpFR	5	4	0	CHIPMUNK	304	1	4	0	n/a	n/a	n/a	n/a	n/a
3331023	RECOG_RESP	n/a	LTP231	ltpFR	5	4	0	CHIPMUNK	304	1	n/a	0	n/a	n/a	n/a	n/a	n/a
3333408	RECOG_CONF	n/a	LTP231	ltpFR	5	4	0	CHIPMUNK	304	n/a	4	0	n/a	n/a	n/a	n/a	n/a
3335933	RECOG_TARGET	n/a	LTP231	ltpFR	5	4	-1	SURVEY	1414	1	4	-1	n/a	n/a	n/a	n/a	n/a
3337170	RECOG_RESP	n/a	LTP231	ltpFR	5	4	-1	SURVEY	1414	1	n/a	-1	n/a	n/a	n/a	n/a	n/a
3339034	RECOG_CONF	n/a	LTP231	ltpFR	5	4	-1	SURVEY	1414	n/a	4	-1	n/a	n/a	n/a	n/a	n/a
3341325	RECOG_TARGET	n/a	LTP231	ltpFR	5	4	1	SLEIGH	1325	0	2	0	n/a	n/a	n/a	n/a	n/a
3342262	RECOG_RESP	n/a	LTP231	ltpFR	5	4	1	SLEIGH	1325	0	n/a	0	n/a	n/a	n/a	n/a	n/a
3345621	RECOG_CONF	n/a	LTP231	ltpFR	5	4	1	SLEIGH	1325	n/a	2	0	n/a	n/a	n/a	n/a	n/a
3348931	RECOG_TARGET	n/a	LTP231	ltpFR	5	4	-1	BEAN	105	0	3	-1	n/a	n/a	n/a	n/a	n/a
3350049	RECOG_RESP	n/a	LTP231	ltpFR	5	4	-1	BEAN	105	0	n/a	-1	n/a	n/a	n/a	n/a	n/a
3352828	RECOG_CONF	n/a	LTP231	ltpFR	5	4	-1	BEAN	105	n/a	3	-1	n/a	n/a	n/a	n/a	n/a
3355255	RECOG_TARGET	n/a	LTP231	ltpFR	5	4	1	PICNIC	1060	1	4	0	n/a	n/a	n/a	n/a	n/a
3356240	RECOG_RESP	n/a	LTP231	ltpFR	5	4	1	PICNIC	1060	1	n/a	0	n/a	n/a	n/a	n/a	n/a
3358405	RECOG_CONF	n/a	LTP231	ltpFR	5	4	1	PICNIC	1060	n/a	4	0	n/a	n/a	n/a	n/a	n/a
3360480	RECOG_LURE	n/a	LTP231	ltpFR	5	4	n/a	ATMOSPHERE	54	0	3	n/a	n/a	n/a	n/a	n/a	n/a
3361463	RECOG_RESP	n/a	LTP231	ltpFR	5	4	n/a	ATMOSPHERE	54	0	n/a	n/a	n/a	n/a	n/a	n/a	n/a
3363360	RECOG_CONF	n/a	LTP231	ltpFR	5	4	n/a	ATMOSPHERE	54	n/a	3	n/a	n/a	n/a	n/a	n/a	n/a
3379536	REC_START	n/a	LTP231	ltpFR	5	5	n/a	n/a	n/a	n/a	n/a	n/a	n/a	n/a	n/a	n/a	n/a
3379567	RECOG_TARGET	n/a	LTP231	ltpFR	5	5	0	WRIST	1626	1	4	0	n/a	n/a	n/a	n/a	n/a
3380895	RECOG_RESP	n/a	LTP231	ltpFR	5	5	0	WRIST	1626	1	n/a	0	n/a	n/a	n/a	n/a	n/a
3383002	RECOG_CONF	n/a	LTP231	ltpFR	5	5	0	WRIST	1626	n/a	4	0	n/a	n/a	n/a	n/a	n/a
3385260	RECOG_LURE	n/a	LTP231	ltpFR	5	5	n/a	METEOR	889	0	5	n/a	n/a	n/a	n/a	n/a	n/a
3386266	RECOG_RESP	n/a	LTP231	ltpFR	5	5	n/a	METEOR	889	0	n/a	n/a	n/a	n/a	n/a	n/a	n/a
3387940	RECOG_CONF	n/a	LTP231	ltpFR	5	5	n/a	METEOR	889	n/a	5	n/a	n/a	n/a	n/a	n/a	n/a
3390485	RECOG_LURE	n/a	LTP231	ltpFR	5	5	n/a	BLANKET	135	0	2	n/a	n/a	n/a	n/a	n/a	n/a
3392894	RECOG_RESP	n/a	LTP231	ltpFR	5	5	n/a	BLANKET	135	0	n/a	n/a	n/a	n/a	n/a	n/a	n/a
3394595	RECOG_CONF	n/a	LTP231	ltpFR	5	5	n/a	BLANKET	135	n/a	2	n/a	n/a	n/a	n/a	n/a	n/a
3397991	RECOG_TARGET	n/a	LTP231	ltpFR	5	5	0	ISLAND	745	1	5	1	n/a	n/a	n/a	n/a	n/a
3399251	RECOG_RESP	n/a	LTP231	ltpFR	5	5	0	ISLAND	745	1	n/a	1	n/a	n/a	n/a	n/a	n/a
3404005	RECOG_CONF	n/a	LTP231	ltpFR	5	5	0	ISLAND	745	n/a	5	1	n/a	n/a	n/a	n/a	n/a
3406012	RECOG_LURE	n/a	LTP231	ltpFR	5	5	n/a	BUBBLE	183	0	4	n/a	n/a	n/a	n/a	n/a	n/a
3407033	RECOG_RESP	n/a	LTP231	ltpFR	5	5	n/a	BUBBLE	183	0	n/a	n/a	n/a	n/a	n/a	n/a	n/a
3408731	RECOG_CONF	n/a	LTP231	ltpFR	5	5	n/a	BUBBLE	183	n/a	4	n/a	n/a	n/a	n/a	n/a	n/a
3411536	RECOG_TARGET	n/a	LTP231	ltpFR	5	5	1	ENEMY	534	1	3	1	n/a	n/a	n/a	n/a	n/a
3412415	RECOG_RESP	n/a	LTP231	ltpFR	5	5	1	ENEMY	534	1	n/a	1	n/a	n/a	n/a	n/a	n/a
3414305	RECOG_CONF	n/a	LTP231	ltpFR	5	5	1	ENEMY	534	n/a	3	1	n/a	n/a	n/a	n/a	n/a
3416612	RECOG_TARGET	n/a	LTP231	ltpFR	5	5	1	FACTORY	548	1	2	0	n/a	n/a	n/a	n/a	n/a
3418436	RECOG_RESP	n/a	LTP231	ltpFR	5	5	1	FACTORY	548	1	n/a	0	n/a	n/a	n/a	n/a	n/a
3420216	RECOG_CONF	n/a	LTP231	ltpFR	5	5	1	FACTORY	548	n/a	2	0	n/a	n/a	n/a	n/a	n/a
3422338	RECOG_TARGET	n/a	LTP231	ltpFR	5	5	-1	PUB	1135	1	5	-1	n/a	n/a	n/a	n/a	n/a
3423152	RECOG_RESP	n/a	LTP231	ltpFR	5	5	-1	PUB	1135	1	n/a	-1	n/a	n/a	n/a	n/a	n/a
3424988	RECOG_CONF	n/a	LTP231	ltpFR	5	5	-1	PUB	1135	n/a	5	-1	n/a	n/a	n/a	n/a	n/a
3427264	RECOG_LURE	n/a	LTP231	ltpFR	5	5	n/a	CAVITY	264	0	3	n/a	n/a	n/a	n/a	n/a	n/a
3428221	RECOG_RESP	n/a	LTP231	ltpFR	5	5	n/a	CAVITY	264	0	n/a	n/a	n/a	n/a	n/a	n/a	n/a
3430140	RECOG_CONF	n/a	LTP231	ltpFR	5	5	n/a	CAVITY	264	n/a	3	n/a	n/a	n/a	n/a	n/a	n/a
3432588	RECOG_TARGET	n/a	LTP231	ltpFR	5	5	-1	BED	110	1	5	-1	n/a	n/a	n/a	n/a	n/a
3433698	RECOG_RESP	n/a	LTP231	ltpFR	5	5	-1	BED	110	1	n/a	-1	n/a	n/a	n/a	n/a	n/a
3435464	RECOG_CONF	n/a	LTP231	ltpFR	5	5	-1	BED	110	n/a	5	-1	n/a	n/a	n/a	n/a	n/a
3437881	RECOG_TARGET	n/a	LTP231	ltpFR	5	5	1	COOKBOOK	373	1	5	0	n/a	n/a	n/a	n/a	n/a
3438800	RECOG_RESP	n/a	LTP231	ltpFR	5	5	1	COOKBOOK	373	1	n/a	0	n/a	n/a	n/a	n/a	n/a
3440712	RECOG_CONF	n/a	LTP231	ltpFR	5	5	1	COOKBOOK	373	n/a	5	0	n/a	n/a	n/a	n/a	n/a
3443040	RECOG_TARGET	n/a	LTP231	ltpFR	5	5	-1	REFRIGERATOR	1179	1	2	-1	n/a	n/a	n/a	n/a	n/a
3444762	RECOG_RESP	n/a	LTP231	ltpFR	5	5	-1	REFRIGERATOR	1179	1	n/a	-1	n/a	n/a	n/a	n/a	n/a
3447080	RECOG_CONF	n/a	LTP231	ltpFR	5	5	-1	REFRIGERATOR	1179	n/a	2	-1	n/a	n/a	n/a	n/a	n/a
3449481	RECOG_LURE	n/a	LTP231	ltpFR	5	5	n/a	MILITARY	894	0	3	n/a	n/a	n/a	n/a	n/a	n/a
3450592	RECOG_RESP	n/a	LTP231	ltpFR	5	5	n/a	MILITARY	894	0	n/a	n/a	n/a	n/a	n/a	n/a	n/a
3454156	RECOG_CONF	n/a	LTP231	ltpFR	5	5	n/a	MILITARY	894	n/a	3	n/a	n/a	n/a	n/a	n/a	n/a
3456237	RECOG_TARGET	n/a	LTP231	ltpFR	5	5	0	DEPARTMENT	449	1	2	1	n/a	n/a	n/a	n/a	n/a
3457611	RECOG_RESP	n/a	LTP231	ltpFR	5	5	0	DEPARTMENT	449	1	n/a	1	n/a	n/a	n/a	n/a	n/a
3459580	RECOG_CONF	n/a	LTP231	ltpFR	5	5	0	DEPARTMENT	449	n/a	2	1	n/a	n/a	n/a	n/a	n/a
3462012	RECOG_LURE	n/a	LTP231	ltpFR	5	5	n/a	JUVENILE	767	0	3	n/a	n/a	n/a	n/a	n/a	n/a
3463532	RECOG_RESP	n/a	LTP231	ltpFR	5	5	n/a	JUVENILE	767	0	n/a	n/a	n/a	n/a	n/a	n/a	n/a
3465957	RECOG_CONF	n/a	LTP231	ltpFR	5	5	n/a	JUVENILE	767	n/a	3	n/a	n/a	n/a	n/a	n/a	n/a
3468402	RECOG_TARGET	n/a	LTP231	ltpFR	5	5	0	BOARD	143	1	4	0	n/a	n/a	n/a	n/a	n/a
3470543	RECOG_RESP	n/a	LTP231	ltpFR	5	5	0	BOARD	143	1	n/a	0	n/a	n/a	n/a	n/a	n/a
3473208	RECOG_CONF	n/a	LTP231	ltpFR	5	5	0	BOARD	143	n/a	4	0	n/a	n/a	n/a	n/a	n/a
3476324	RECOG_TARGET	n/a	LTP231	ltpFR	5	5	1	RAKE	1164	1	2	0	n/a	n/a	n/a	n/a	n/a
3478124	RECOG_RESP	n/a	LTP231	ltpFR	5	5	1	RAKE	1164	1	n/a	0	n/a	n/a	n/a	n/a	n/a
3480355	RECOG_CONF	n/a	LTP231	ltpFR	5	5	1	RAKE	1164	n/a	2	0	n/a	n/a	n/a	n/a	n/a
3482763	RECOG_TARGET	n/a	LTP231	ltpFR	5	5	-1	LAKE	796	1	5	-1	n/a	n/a	n/a	n/a	n/a
3483631	RECOG_RESP	n/a	LTP231	ltpFR	5	5	-1	LAKE	796	1	n/a	-1	n/a	n/a	n/a	n/a	n/a
3485590	RECOG_CONF	n/a	LTP231	ltpFR	5	5	-1	LAKE	796	n/a	5	-1	n/a	n/a	n/a	n/a	n/a
3488040	RECOG_TARGET	n/a	LTP231	ltpFR	5	5	1	PIE	1062	1	3	0	n/a	n/a	n/a	n/a	n/a
3488738	RECOG_RESP	n/a	LTP231	ltpFR	5	5	1	PIE	1062	1	n/a	0	n/a	n/a	n/a	n/a	n/a
3490788	RECOG_CONF	n/a	LTP231	ltpFR	5	5	1	PIE	1062	n/a	3	0	n/a	n/a	n/a	n/a	n/a
3493199	RECOG_LURE	n/a	LTP231	ltpFR	5	5	n/a	GANG	619	0	1	n/a	n/a	n/a	n/a	n/a	n/a
3494304	RECOG_RESP	n/a	LTP231	ltpFR	5	5	n/a	GANG	619	0	n/a	n/a	n/a	n/a	n/a	n/a	n/a
3496713	RECOG_CONF	n/a	LTP231	ltpFR	5	5	n/a	GANG	619	n/a	1	n/a	n/a	n/a	n/a	n/a	n/a
3509939	REC_START	n/a	LTP231	ltpFR	5	6	n/a	n/a	n/a	n/a	n/a	n/a	n/a	n/a	n/a	n/a	n/a
3509974	RECOG_TARGET	n/a	LTP231	ltpFR	5	6	0	RADISH	1158	1	5	0	n/a	n/a	n/a	n/a	n/a
3511045	RECOG_RESP	n/a	LTP231	ltpFR	5	6	0	RADISH	1158	1	n/a	0	n/a	n/a	n/a	n/a	n/a
3512581	RECOG_CONF	n/a	LTP231	ltpFR	5	6	0	RADISH	1158	n/a	5	0	n/a	n/a	n/a	n/a	n/a
3514983	RECOG_TARGET	n/a	LTP231	ltpFR	5	6	1	CROCODILE	411	1	5	0	n/a	n/a	n/a	n/a	n/a
3516274	RECOG_RESP	n/a	LTP231	ltpFR	5	6	1	CROCODILE	411	1	n/a	0	n/a	n/a	n/a	n/a	n/a
3518584	RECOG_CONF	n/a	LTP231	ltpFR	5	6	1	CROCODILE	411	n/a	5	0	n/a	n/a	n/a	n/a	n/a
3521357	RECOG_TARGET	n/a	LTP231	ltpFR	5	6	0	MAPLE	866	1	5	1	n/a	n/a	n/a	n/a	n/a
3522415	RECOG_RESP	n/a	LTP231	ltpFR	5	6	0	MAPLE	866	1	n/a	1	n/a	n/a	n/a	n/a	n/a
3524391	RECOG_CONF	n/a	LTP231	ltpFR	5	6	0	MAPLE	866	n/a	5	1	n/a	n/a	n/a	n/a	n/a
3526814	RECOG_LURE	n/a	LTP231	ltpFR	5	6	n/a	HUSBAND	728	0	3	n/a	n/a	n/a	n/a	n/a	n/a
3527693	RECOG_RESP	n/a	LTP231	ltpFR	5	6	n/a	HUSBAND	728	0	n/a	n/a	n/a	n/a	n/a	n/a	n/a
3529357	RECOG_CONF	n/a	LTP231	ltpFR	5	6	n/a	HUSBAND	728	n/a	3	n/a	n/a	n/a	n/a	n/a	n/a
3531690	RECOG_TARGET	n/a	LTP231	ltpFR	5	6	1	POCKET	1093	1	1	0	n/a	n/a	n/a	n/a	n/a
3533858	RECOG_RESP	n/a	LTP231	ltpFR	5	6	1	POCKET	1093	1	n/a	0	n/a	n/a	n/a	n/a	n/a
3535434	RECOG_CONF	n/a	LTP231	ltpFR	5	6	1	POCKET	1093	n/a	1	0	n/a	n/a	n/a	n/a	n/a
3537748	RECOG_LURE	n/a	LTP231	ltpFR	5	6	n/a	MINK	897	0	3	n/a	n/a	n/a	n/a	n/a	n/a
3539178	RECOG_RESP	n/a	LTP231	ltpFR	5	6	n/a	MINK	897	0	n/a	n/a	n/a	n/a	n/a	n/a	n/a
3540648	RECOG_CONF	n/a	LTP231	ltpFR	5	6	n/a	MINK	897	n/a	3	n/a	n/a	n/a	n/a	n/a	n/a
3543041	RECOG_TARGET	n/a	LTP231	ltpFR	5	6	0	RUBY	1214	1	5	0	n/a	n/a	n/a	n/a	n/a
3543969	RECOG_RESP	n/a	LTP231	ltpFR	5	6	0	RUBY	1214	1	n/a	0	n/a	n/a	n/a	n/a	n/a
3545523	RECOG_CONF	n/a	LTP231	ltpFR	5	6	0	RUBY	1214	n/a	5	0	n/a	n/a	n/a	n/a	n/a
3547950	RECOG_TARGET	n/a	LTP231	ltpFR	5	6	0	CARPENTER	246	1	2	1	n/a	n/a	n/a	n/a	n/a
3549326	RECOG_RESP	n/a	LTP231	ltpFR	5	6	0	CARPENTER	246	1	n/a	1	n/a	n/a	n/a	n/a	n/a
3550841	RECOG_CONF	n/a	LTP231	ltpFR	5	6	0	CARPENTER	246	n/a	2	1	n/a	n/a	n/a	n/a	n/a
3553459	RECOG_LURE	n/a	LTP231	ltpFR	5	6	n/a	WASHCLOTH	1591	0	3	n/a	n/a	n/a	n/a	n/a	n/a
3555046	RECOG_RESP	n/a	LTP231	ltpFR	5	6	n/a	WASHCLOTH	1591	0	n/a	n/a	n/a	n/a	n/a	n/a	n/a
3556607	RECOG_CONF	n/a	LTP231	ltpFR	5	6	n/a	WASHCLOTH	1591	n/a	3	n/a	n/a	n/a	n/a	n/a	n/a
3558816	RECOG_LURE	n/a	LTP231	ltpFR	5	6	n/a	JUDGE	761	0	3	n/a	n/a	n/a	n/a	n/a	n/a
3560253	RECOG_RESP	n/a	LTP231	ltpFR	5	6	n/a	JUDGE	761	0	n/a	n/a	n/a	n/a	n/a	n/a	n/a
3561790	RECOG_CONF	n/a	LTP231	ltpFR	5	6	n/a	JUDGE	761	n/a	3	n/a	n/a	n/a	n/a	n/a	n/a
3563926	RECOG_TARGET	n/a	LTP231	ltpFR	5	6	-1	CAMERA	224	0	4	-1	n/a	n/a	n/a	n/a	n/a
3565215	RECOG_RESP	n/a	LTP231	ltpFR	5	6	-1	CAMERA	224	0	n/a	-1	n/a	n/a	n/a	n/a	n/a
3566456	RECOG_CONF	n/a	LTP231	ltpFR	5	6	-1	CAMERA	224	n/a	4	-1	n/a	n/a	n/a	n/a	n/a
3569368	RECOG_TARGET	n/a	LTP231	ltpFR	5	6	0	TURKEY	1520	1	2	1	n/a	n/a	n/a	n/a	n/a
3571299	RECOG_RESP	n/a	LTP231	ltpFR	5	6	0	TURKEY	1520	1	n/a	1	n/a	n/a	n/a	n/a	n/a
3573378	RECOG_CONF	n/a	LTP231	ltpFR	5	6	0	TURKEY	1520	n/a	2	1	n/a	n/a	n/a	n/a	n/a
3575874	RECOG_TARGET	n/a	LTP231	ltpFR	5	6	-1	PHOTO	1055	1	1	-1	n/a	n/a	n/a	n/a	n/a
3576980	RECOG_RESP	n/a	LTP231	ltpFR	5	6	-1	PHOTO	1055	1	n/a	-1	n/a	n/a	n/a	n/a	n/a
3578523	RECOG_CONF	n/a	LTP231	ltpFR	5	6	-1	PHOTO	1055	n/a	1	-1	n/a	n/a	n/a	n/a	n/a
3580734	RECOG_TARGET	n/a	LTP231	ltpFR	5	6	0	WOLF	1619	1	3	1	n/a	n/a	n/a	n/a	n/a
3581569	RECOG_RESP	n/a	LTP231	ltpFR	5	6	0	WOLF	1619	1	n/a	1	n/a	n/a	n/a	n/a	n/a
3582839	RECOG_CONF	n/a	LTP231	ltpFR	5	6	0	WOLF	1619	n/a	3	1	n/a	n/a	n/a	n/a	n/a
3585062	RECOG_LURE	n/a	LTP231	ltpFR	5	6	n/a	CHESS	294	0	4	n/a	n/a	n/a	n/a	n/a	n/a
3585976	RECOG_RESP	n/a	LTP231	ltpFR	5	6	n/a	CHESS	294	0	n/a	n/a	n/a	n/a	n/a	n/a	n/a
3587408	RECOG_CONF	n/a	LTP231	ltpFR	5	6	n/a	CHESS	294	n/a	4	n/a	n/a	n/a	n/a	n/a	n/a
3589472	RECOG_TARGET	n/a	LTP231	ltpFR	5	6	-1	SWAN	1417	1	5	-1	n/a	n/a	n/a	n/a	n/a
3590387	RECOG_RESP	n/a	LTP231	ltpFR	5	6	-1	SWAN	1417	1	n/a	-1	n/a	n/a	n/a	n/a	n/a
3591628	RECOG_CONF	n/a	LTP231	ltpFR	5	6	-1	SWAN	1417	n/a	5	-1	n/a	n/a	n/a	n/a	n/a
3593948	RECOG_TARGET	n/a	LTP231	ltpFR	5	6	1	WART	1590	1	5	0	n/a	n/a	n/a	n/a	n/a
3594830	RECOG_RESP	n/a	LTP231	ltpFR	5	6	1	WART	1590	1	n/a	0	n/a	n/a	n/a	n/a	n/a
3595888	RECOG_CONF	n/a	LTP231	ltpFR	5	6	1	WART	1590	n/a	5	0	n/a	n/a	n/a	n/a	n/a
3598275	RECOG_TARGET	n/a	LTP231	ltpFR	5	6	1	GAZELLE	628	1	5	1	n/a	n/a	n/a	n/a	n/a
3599236	RECOG_RESP	n/a	LTP231	ltpFR	5	6	1	GAZELLE	628	1	n/a	1	n/a	n/a	n/a	n/a	n/a
3600618	RECOG_CONF	n/a	LTP231	ltpFR	5	6	1	GAZELLE	628	n/a	5	1	n/a	n/a	n/a	n/a	n/a
3602968	RECOG_LURE	n/a	LTP231	ltpFR	5	6	n/a	COP	376	0	2	n/a	n/a	n/a	n/a	n/a	n/a
3603821	RECOG_RESP	n/a	LTP231	ltpFR	5	6	n/a	COP	376	0	n/a	n/a	n/a	n/a	n/a	n/a	n/a
3605158	RECOG_CONF	n/a	LTP231	ltpFR	5	6	n/a	COP	376	n/a	2	n/a	n/a	n/a	n/a	n/a	n/a
3607278	RECOG_TARGET	n/a	LTP231	ltpFR	5	6	-1	ATTIRE	57	1	5	-1	n/a	n/a	n/a	n/a	n/a
3608290	RECOG_RESP	n/a	LTP231	ltpFR	5	6	-1	ATTIRE	57	1	n/a	-1	n/a	n/a	n/a	n/a	n/a
3609468	RECOG_CONF	n/a	LTP231	ltpFR	5	6	-1	ATTIRE	57	n/a	5	-1	n/a	n/a	n/a	n/a	n/a
3628474	REC_START	n/a	LTP231	ltpFR	5	7	n/a	n/a	n/a	n/a	n/a	n/a	n/a	n/a	n/a	n/a	n/a
3628513	RECOG_TARGET	n/a	LTP231	ltpFR	5	7	0	LIME	823	1	3	0	n/a	n/a	n/a	n/a	n/a
3629689	RECOG_RESP	n/a	LTP231	ltpFR	5	7	0	LIME	823	1	n/a	0	n/a	n/a	n/a	n/a	n/a
3631232	RECOG_CONF	n/a	LTP231	ltpFR	5	7	0	LIME	823	n/a	3	0	n/a	n/a	n/a	n/a	n/a
3633389	RECOG_TARGET	n/a	LTP231	ltpFR	5	7	0	SHED	1277	1	4	0	n/a	n/a	n/a	n/a	n/a
3637094	RECOG_RESP	n/a	LTP231	ltpFR	5	7	0	SHED	1277	1	n/a	0	n/a	n/a	n/a	n/a	n/a
3638826	RECOG_CONF	n/a	LTP231	ltpFR	5	7	0	SHED	1277	n/a	4	0	n/a	n/a	n/a	n/a	n/a
3641726	RECOG_TARGET	n/a	LTP231	ltpFR	5	7	1	WATER	1594	1	2	0	n/a	n/a	n/a	n/a	n/a
3643601	RECOG_RESP_VV	n/a	LTP231	ltpFR	5	7	1	WATER	1594	0	n/a	0	n/a	n/a	n/a	n/a	n/a
3644672	RECOG_RESP	n/a	LTP231	ltpFR	5	7	1	WATER	1594	1	n/a	0	n/a	n/a	n/a	n/a	n/a
3646441	RECOG_CONF	n/a	LTP231	ltpFR	5	7	1	WATER	1594	n/a	2	0	n/a	n/a	n/a	n/a	n/a
3648949	RECOG_TARGET	n/a	LTP231	ltpFR	5	7	1	SHIRT	1287	0	4	0	n/a	n/a	n/a	n/a	n/a
3654264	RECOG_RESP	n/a	LTP231	ltpFR	5	7	1	SHIRT	1287	0	n/a	0	n/a	n/a	n/a	n/a	n/a
3657037	RECOG_CONF	n/a	LTP231	ltpFR	5	7	1	SHIRT	1287	n/a	4	0	n/a	n/a	n/a	n/a	n/a
3660416	RECOG_TARGET	n/a	LTP231	ltpFR	5	7	1	PARIS	1014	1	3	0	n/a	n/a	n/a	n/a	n/a
3661860	RECOG_RESP	n/a	LTP231	ltpFR	5	7	1	PARIS	1014	1	n/a	0	n/a	n/a	n/a	n/a	n/a
3664912	RECOG_RESP_VV	n/a	LTP231	ltpFR	5	7	1	PARIS	1014	n/a	3	0	n/a	n/a	n/a	n/a	n/a
3669977	RECOG_CONF	n/a	LTP231	ltpFR	5	7	1	PARIS	1014	n/a	3	0	n/a	n/a	n/a	n/a	n/a
3672381	RECOG_TARGET	n/a	LTP231	ltpFR	5	7	-1	SALOON	1228	1	3	-1	n/a	n/a	n/a	n/a	n/a
3673395	RECOG_RESP	n/a	LTP231	ltpFR	5	7	-1	SALOON	1228	1	n/a	-1	n/a	n/a	n/a	n/a	n/a
3675359	RECOG_CONF	n/a	LTP231	ltpFR	5	7	-1	SALOON	1228	n/a	3	-1	n/a	n/a	n/a	n/a	n/a
3677457	RECOG_TARGET	n/a	LTP231	ltpFR	5	7	1	ACORN	3	1	5	1	n/a	n/a	n/a	n/a	n/a
3678461	RECOG_RESP	n/a	LTP231	ltpFR	5	7	1	ACORN	3	1	n/a	1	n/a	n/a	n/a	n/a	n/a
3679840	RECOG_CONF	n/a	LTP231	ltpFR	5	7	1	ACORN	3	n/a	5	1	n/a	n/a	n/a	n/a	n/a
3682466	RECOG_LURE	n/a	LTP231	ltpFR	5	7	n/a	SKILLET	1317	0	3	n/a	n/a	n/a	n/a	n/a	n/a
3685369	RECOG_RESP	n/a	LTP231	ltpFR	5	7	n/a	SKILLET	1317	0	n/a	n/a	n/a	n/a	n/a	n/a	n/a
3687165	RECOG_CONF	n/a	LTP231	ltpFR	5	7	n/a	SKILLET	1317	n/a	3	n/a	n/a	n/a	n/a	n/a	n/a
3690371	RECOG_TARGET	n/a	LTP231	ltpFR	5	7	-1	SALAD	1224	0	4	-1	n/a	n/a	n/a	n/a	n/a
3691975	RECOG_RESP	n/a	LTP231	ltpFR	5	7	-1	SALAD	1224	0	n/a	-1	n/a	n/a	n/a	n/a	n/a
3693531	RECOG_CONF	n/a	LTP231	ltpFR	5	7	-1	SALAD	1224	n/a	4	-1	n/a	n/a	n/a	n/a	n/a
3696644	RECOG_LURE	n/a	LTP231	ltpFR	5	7	n/a	SWITCH	1422	0	2	n/a	n/a	n/a	n/a	n/a	n/a
3697877	RECOG_RESP	n/a	LTP231	ltpFR	5	7	n/a	SWITCH	1422	0	n/a	n/a	n/a	n/a	n/a	n/a	n/a
3700465	RECOG_CONF	n/a	LTP231	ltpFR	5	7	n/a	SWITCH	1422	n/a	2	n/a	n/a	n/a	n/a	n/a	n/a
3702851	RECOG_TARGET	n/a	LTP231	ltpFR	5	7	1	MULE	931	1	4	1	n/a	n/a	n/a	n/a	n/a
3703904	RECOG_RESP	n/a	LTP231	ltpFR	5	7	1	MULE	931	1	n/a	1	n/a	n/a	n/a	n/a	n/a
3705753	RECOG_CONF	n/a	LTP231	ltpFR	5	7	1	MULE	931	n/a	4	1	n/a	n/a	n/a	n/a	n/a
3708044	RECOG_TARGET	n/a	LTP231	ltpFR	5	7	-1	LOUNGE	845	1	5	-1	n/a	n/a	n/a	n/a	n/a
3711122	RECOG_RESP	n/a	LTP231	ltpFR	5	7	-1	LOUNGE	845	1	n/a	-1	n/a	n/a	n/a	n/a	n/a
3712545	RECOG_CONF	n/a	LTP231	ltpFR	5	7	-1	LOUNGE	845	n/a	5	-1	n/a	n/a	n/a	n/a	n/a
3714884	RECOG_TARGET	n/a	LTP231	ltpFR	5	7	1	YOLK	1633	1	5	0	n/a	n/a	n/a	n/a	n/a
3715885	RECOG_RESP	n/a	LTP231	ltpFR	5	7	1	YOLK	1633	1	n/a	0	n/a	n/a	n/a	n/a	n/a
3717617	RECOG_CONF	n/a	LTP231	ltpFR	5	7	1	YOLK	1633	n/a	5	0	n/a	n/a	n/a	n/a	n/a
3719977	RECOG_TARGET	n/a	LTP231	ltpFR	5	7	0	PIPE	1073	1	3	0	n/a	n/a	n/a	n/a	n/a
3722989	RECOG_RESP	n/a	LTP231	ltpFR	5	7	0	PIPE	1073	1	n/a	0	n/a	n/a	n/a	n/a	n/a
3724722	RECOG_CONF	n/a	LTP231	ltpFR	5	7	0	PIPE	1073	n/a	3	0	n/a	n/a	n/a	n/a	n/a
3726832	RECOG_TARGET	n/a	LTP231	ltpFR	5	7	0	PENGUIN	1044	1	5	0	n/a	n/a	n/a	n/a	n/a
3728353	RECOG_RESP	n/a	LTP231	ltpFR	5	7	0	PENGUIN	1044	1	n/a	0	n/a	n/a	n/a	n/a	n/a
3729987	RECOG_CONF	n/a	LTP231	ltpFR	5	7	0	PENGUIN	1044	n/a	5	0	n/a	n/a	n/a	n/a	n/a
3732391	RECOG_TARGET	n/a	LTP231	ltpFR	5	7	1	FLOWER	584	1	4	1	n/a	n/a	n/a	n/a	n/a
3734698	RECOG_RESP	n/a	LTP231	ltpFR	5	7	1	FLOWER	584	1	n/a	1	n/a	n/a	n/a	n/a	n/a
3736248	RECOG_CONF	n/a	LTP231	ltpFR	5	7	1	FLOWER	584	n/a	4	1	n/a	n/a	n/a	n/a	n/a
3738382	RECOG_LURE	n/a	LTP231	ltpFR	5	7	n/a	COMMANDER	354	0	5	n/a	n/a	n/a	n/a	n/a	n/a
3739509	RECOG_RESP	n/a	LTP231	ltpFR	5	7	n/a	COMMANDER	354	0	n/a	n/a	n/a	n/a	n/a	n/a	n/a
3740826	RECOG_CONF	n/a	LTP231	ltpFR	5	7	n/a	COMMANDER	354	n/a	5	n/a	n/a	n/a	n/a	n/a	n/a
3743009	RECOG_TARGET	n/a	LTP231	ltpFR	5	7	1	MALL	860	1	4	0	n/a	n/a	n/a	n/a	n/a
3743979	RECOG_RESP	n/a	LTP231	ltpFR	5	7	1	MALL	860	1	n/a	0	n/a	n/a	n/a	n/a	n/a
3745206	RECOG_CONF	n/a	LTP231	ltpFR	5	7	1	MALL	860	n/a	4	0	n/a	n/a	n/a	n/a	n/a
3747369	RECOG_TARGET	n/a	LTP231	ltpFR	5	7	0	MIRROR	899	1	5	0	n/a	n/a	n/a	n/a	n/a
3750950	RECOG_RESP	n/a	LTP231	ltpFR	5	7	0	MIRROR	899	1	n/a	0	n/a	n/a	n/a	n/a	n/a
3752221	RECOG_CONF	n/a	LTP231	ltpFR	5	7	0	MIRROR	899	n/a	5	0	n/a	n/a	n/a	n/a	n/a
3754375	RECOG_TARGET	n/a	LTP231	ltpFR	5	7	0	RIB	1188	1	5	0	n/a	n/a	n/a	n/a	n/a
3760714	RECOG_RESP	n/a	LTP231	ltpFR	5	7	0	RIB	1188	1	n/a	0	n/a	n/a	n/a	n/a	n/a
3763125	RECOG_CONF	n/a	LTP231	ltpFR	5	7	0	RIB	1188	n/a	5	0	n/a	n/a	n/a	n/a	n/a
3774923	REC_START	n/a	LTP231	ltpFR	5	8	n/a	n/a	n/a	n/a	n/a	n/a	n/a	n/a	n/a	n/a	n/a
3774961	RECOG_TARGET	n/a	LTP231	ltpFR	5	8	1	PARROT	1015	1	4	1	n/a	n/a	n/a	n/a	n/a
3776009	RECOG_RESP	n/a	LTP231	ltpFR	5	8	1	PARROT	1015	1	n/a	1	n/a	n/a	n/a	n/a	n/a
3777626	RECOG_CONF	n/a	LTP231	ltpFR	5	8	1	PARROT	1015	n/a	4	1	n/a	n/a	n/a	n/a	n/a
3779587	RECOG_LURE	n/a	LTP231	ltpFR	5	8	n/a	LAWYER	806	0	2	n/a	n/a	n/a	n/a	n/a	n/a
3781795	RECOG_RESP	n/a	LTP231	ltpFR	5	8	n/a	LAWYER	806	0	n/a	n/a	n/a	n/a	n/a	n/a	n/a
3782917	RECOG_CONF	n/a	LTP231	ltpFR	5	8	n/a	LAWYER	806	n/a	2	n/a	n/a	n/a	n/a	n/a	n/a
3785013	RECOG_TARGET	n/a	LTP231	ltpFR	5	8	1	DANCER	437	1	4	1	n/a	n/a	n/a	n/a	n/a
3786112	RECOG_RESP	n/a	LTP231	ltpFR	5	8	1	DANCER	437	1	n/a	1	n/a	n/a	n/a	n/a	n/a
3787291	RECOG_CONF	n/a	LTP231	ltpFR	5	8	1	DANCER	437	n/a	4	1	n/a	n/a	n/a	n/a	n/a
3789406	RECOG_TARGET	n/a	LTP231	ltpFR	5	8	0	DRYER	503	1	2	1	n/a	n/a	n/a	n/a	n/a
3792870	RECOG_RESP	n/a	LTP231	ltpFR	5	8	0	DRYER	503	1	n/a	1	n/a	n/a	n/a	n/a	n/a
3794584	RECOG_CONF	n/a	LTP231	ltpFR	5	8	0	DRYER	503	n/a	2	1	n/a	n/a	n/a	n/a	n/a
3797012	RECOG_TARGET	n/a	LTP231	ltpFR	5	8	-1	CABLE	213	1	4	-1	n/a	n/a	n/a	n/a	n/a
3798592	RECOG_RESP	n/a	LTP231	ltpFR	5	8	-1	CABLE	213	1	n/a	-1	n/a	n/a	n/a	n/a	n/a
3800801	RECOG_CONF	n/a	LTP231	ltpFR	5	8	-1	CABLE	213	n/a	4	-1	n/a	n/a	n/a	n/a	n/a
3803502	RECOG_LURE	n/a	LTP231	ltpFR	5	8	n/a	LAVA	804	0	3	n/a	n/a	n/a	n/a	n/a	n/a
3804610	RECOG_RESP	n/a	LTP231	ltpFR	5	8	n/a	LAVA	804	0	n/a	n/a	n/a	n/a	n/a	n/a	n/a
3806147	RECOG_CONF	n/a	LTP231	ltpFR	5	8	n/a	LAVA	804	n/a	3	n/a	n/a	n/a	n/a	n/a	n/a
3808311	RECOG_TARGET	n/a	LTP231	ltpFR	5	8	1	VAN	1548	1	4	0	n/a	n/a	n/a	n/a	n/a
3815002	RECOG_RESP	n/a	LTP231	ltpFR	5	8	1	VAN	1548	1	n/a	0	n/a	n/a	n/a	n/a	n/a
3816404	RECOG_CONF	n/a	LTP231	ltpFR	5	8	1	VAN	1548	n/a	4	0	n/a	n/a	n/a	n/a	n/a
3818861	RECOG_LURE	n/a	LTP231	ltpFR	5	8	n/a	SKIRT	1319	1	4	n/a	n/a	n/a	n/a	n/a	n/a
3821147	RECOG_RESP	n/a	LTP231	ltpFR	5	8	n/a	SKIRT	1319	1	n/a	n/a	n/a	n/a	n/a	n/a	n/a
3822489	RECOG_CONF	n/a	LTP231	ltpFR	5	8	n/a	SKIRT	1319	n/a	4	n/a	n/a	n/a	n/a	n/a	n/a
3824404	RECOG_TARGET	n/a	LTP231	ltpFR	5	8	-1	SANDWICH	1232	1	3	-1	n/a	n/a	n/a	n/a	n/a
3827902	RECOG_RESP	n/a	LTP231	ltpFR	5	8	-1	SANDWICH	1232	1	n/a	-1	n/a	n/a	n/a	n/a	n/a
3829409	RECOG_CONF	n/a	LTP231	ltpFR	5	8	-1	SANDWICH	1232	n/a	3	-1	n/a	n/a	n/a	n/a	n/a
3831893	RECOG_LURE	n/a	LTP231	ltpFR	5	8	n/a	PLAQUE	1084	0	5	n/a	n/a	n/a	n/a	n/a	n/a
3833309	RECOG_RESP	n/a	LTP231	ltpFR	5	8	n/a	PLAQUE	1084	0	n/a	n/a	n/a	n/a	n/a	n/a	n/a
3834623	RECOG_CONF	n/a	LTP231	ltpFR	5	8	n/a	PLAQUE	1084	n/a	5	n/a	n/a	n/a	n/a	n/a	n/a
3837235	RECOG_LURE	n/a	LTP231	ltpFR	5	8	n/a	ROAD	1196	0	3	n/a	n/a	n/a	n/a	n/a	n/a
3838737	RECOG_RESP	n/a	LTP231	ltpFR	5	8	n/a	ROAD	1196	0	n/a	n/a	n/a	n/a	n/a	n/a	n/a
3840147	RECOG_CONF	n/a	LTP231	ltpFR	5	8	n/a	ROAD	1196	n/a	3	n/a	n/a	n/a	n/a	n/a	n/a
3842294	RECOG_TARGET	n/a	LTP231	ltpFR	5	8	1	TOAD	1470	1	4	1	n/a	n/a	n/a	n/a	n/a
3843417	RECOG_RESP	n/a	LTP231	ltpFR	5	8	1	TOAD	1470	1	n/a	1	n/a	n/a	n/a	n/a	n/a
3844799	RECOG_CONF	n/a	LTP231	ltpFR	5	8	1	TOAD	1470	n/a	4	1	n/a	n/a	n/a	n/a	n/a
3846970	RECOG_TARGET	n/a	LTP231	ltpFR	5	8	-1	APPLE	33	1	4	-1	n/a	n/a	n/a	n/a	n/a
3848010	RECOG_RESP	n/a	LTP231	ltpFR	5	8	-1	APPLE	33	1	n/a	-1	n/a	n/a	n/a	n/a	n/a
3849642	RECOG_CONF	n/a	LTP231	ltpFR	5	8	-1	APPLE	33	n/a	4	-1	n/a	n/a	n/a	n/a	n/a
3851913	RECOG_TARGET	n/a	LTP231	ltpFR	5	8	1	PADDLE	1000	1	4	0	n/a	n/a	n/a	n/a	n/a
3855395	RECOG_RESP	n/a	LTP231	ltpFR	5	8	1	PADDLE	1000	1	n/a	0	n/a	n/a	n/a	n/a	n/a
3857301	RECOG_CONF	n/a	LTP231	ltpFR	5	8	1	PADDLE	1000	n/a	4	0	n/a	n/a	n/a	n/a	n/a
3859385	RECOG_LURE	n/a	LTP231	ltpFR	5	8	n/a	AFRICA	9	1	1	n/a	n/a	n/a	n/a	n/a	n/a
3860598	RECOG_RESP	n/a	LTP231	ltpFR	5	8	n/a	AFRICA	9	1	n/a	n/a	n/a	n/a	n/a	n/a	n/a
3862509	RECOG_CONF	n/a	LTP231	ltpFR	5	8	n/a	AFRICA	9	n/a	1	n/a	n/a	n/a	n/a	n/a	n/a
3864693	RECOG_TARGET	n/a	LTP231	ltpFR	5	8	-1	PEDESTRIAN	1038	1	4	-1	n/a	n/a	n/a	n/a	n/a
3867193	RECOG_RESP	n/a	LTP231	ltpFR	5	8	-1	PEDESTRIAN	1038	1	n/a	-1	n/a	n/a	n/a	n/a	n/a
3869818	RECOG_CONF	n/a	LTP231	ltpFR	5	8	-1	PEDESTRIAN	1038	n/a	4	-1	n/a	n/a	n/a	n/a	n/a
3872416	RECOG_TARGET	n/a	LTP231	ltpFR	5	8	0	CHEST	295	1	4	1	n/a	n/a	n/a	n/a	n/a
3873757	RECOG_RESP	n/a	LTP231	ltpFR	5	8	0	CHEST	295	1	n/a	1	n/a	n/a	n/a	n/a	n/a
3875892	RECOG_CONF	n/a	LTP231	ltpFR	5	8	0	CHEST	295	n/a	4	1	n/a	n/a	n/a	n/a	n/a
3878490	RECOG_TARGET	n/a	LTP231	ltpFR	5	8	0	ANTEATER	26	1	4	0	n/a	n/a	n/a	n/a	n/a
3880338	RECOG_RESP	n/a	LTP231	ltpFR	5	8	0	ANTEATER	26	1	n/a	0	n/a	n/a	n/a	n/a	n/a
3882015	RECOG_CONF	n/a	LTP231	ltpFR	5	8	0	ANTEATER	26	n/a	4	0	n/a	n/a	n/a	n/a	n/a
3884813	RECOG_LURE	n/a	LTP231	ltpFR	5	8	n/a	BEVERAGE	123	0	3	n/a	n/a	n/a	n/a	n/a	n/a
3886648	RECOG_RESP	n/a	LTP231	ltpFR	5	8	n/a	BEVERAGE	123	0	n/a	n/a	n/a	n/a	n/a	n/a	n/a
3888492	RECOG_CONF	n/a	LTP231	ltpFR	5	8	n/a	BEVERAGE	123	n/a	3	n/a	n/a	n/a	n/a	n/a	n/a
3891121	RECOG_TARGET	n/a	LTP231	ltpFR	5	8	1	COLUMN	350	1	4	0	n/a	n/a	n/a	n/a	n/a
3893312	RECOG_RESP	n/a	LTP231	ltpFR	5	8	1	COLUMN	350	1	n/a	0	n/a	n/a	n/a	n/a	n/a
3895397	RECOG_CONF	n/a	LTP231	ltpFR	5	8	1	COLUMN	350	n/a	4	0	n/a	n/a	n/a	n/a	n/a
3900939	REC_START	n/a	LTP231	ltpFR	5	9	n/a	n/a	n/a	n/a	n/a	n/a	n/a	n/a	n/a	n/a	n/a
3900973	RECOG_LURE	n/a	LTP231	ltpFR	5	9	n/a	FIN	566	0	2	n/a	n/a	n/a	n/a	n/a	n/a
3904091	RECOG_RESP	n/a	LTP231	ltpFR	5	9	n/a	FIN	566	0	n/a	n/a	n/a	n/a	n/a	n/a	n/a
3905467	RECOG_CONF	n/a	LTP231	ltpFR	5	9	n/a	FIN	566	n/a	2	n/a	n/a	n/a	n/a	n/a	n/a
3907845	RECOG_TARGET	n/a	LTP231	ltpFR	5	9	1	TOE	1473	1	4	0	n/a	n/a	n/a	n/a	n/a
3909884	RECOG_RESP	n/a	LTP231	ltpFR	5	9	1	TOE	1473	1	n/a	0	n/a	n/a	n/a	n/a	n/a
3911646	RECOG_CONF	n/a	LTP231	ltpFR	5	9	1	TOE	1473	n/a	4	0	n/a	n/a	n/a	n/a	n/a
3913970	RECOG_LURE	n/a	LTP231	ltpFR	5	9	n/a	ANCESTOR	20	0	3	n/a	n/a	n/a	n/a	n/a	n/a
3916701	RECOG_RESP	n/a	LTP231	ltpFR	5	9	n/a	ANCESTOR	20	0	n/a	n/a	n/a	n/a	n/a	n/a	n/a
3918115	RECOG_CONF	n/a	LTP231	ltpFR	5	9	n/a	ANCESTOR	20	n/a	3	n/a	n/a	n/a	n/a	n/a	n/a
3920028	RECOG_TARGET	n/a	LTP231	ltpFR	5	9	-1	NAPKIN	937	1	4	-1	n/a	n/a	n/a	n/a	n/a
3922343	RECOG_RESP	n/a	LTP231	ltpFR	5	9	-1	NAPKIN	937	1	n/a	-1	n/a	n/a	n/a	n/a	n/a
3923623	RECOG_CONF	n/a	LTP231	ltpFR	5	9	-1	NAPKIN	937	n/a	4	-1	n/a	n/a	n/a	n/a	n/a
3925986	RECOG_LURE	n/a	LTP231	ltpFR	5	9	n/a	ASIA	46	0	2	n/a	n/a	n/a	n/a	n/a	n/a
3927214	RECOG_RESP	n/a	LTP231	ltpFR	5	9	n/a	ASIA	46	0	n/a	n/a	n/a	n/a	n/a	n/a	n/a
3928476	RECOG_CONF	n/a	LTP231	ltpFR	5	9	n/a	ASIA	46	n/a	2	n/a	n/a	n/a	n/a	n/a	n/a
3930711	RECOG_TARGET	n/a	LTP231	ltpFR	5	9	0	DIARY	460	1	4	0	n/a	n/a	n/a	n/a	n/a
3931629	RECOG_RESP	n/a	LTP231	ltpFR	5	9	0	DIARY	460	1	n/a	0	n/a	n/a	n/a	n/a	n/a
3933647	RECOG_CONF	n/a	LTP231	ltpFR	5	9	0	DIARY	460	n/a	4	0	n/a	n/a	n/a	n/a	n/a
3936137	RECOG_TARGET	n/a	LTP231	ltpFR	5	9	-1	PAWN	1030	1	3	-1	n/a	n/a	n/a	n/a	n/a
3937962	RECOG_RESP	n/a	LTP231	ltpFR	5	9	-1	PAWN	1030	1	n/a	-1	n/a	n/a	n/a	n/a	n/a
3939957	RECOG_CONF	n/a	LTP231	ltpFR	5	9	-1	PAWN	1030	n/a	3	-1	n/a	n/a	n/a	n/a	n/a
3942045	RECOG_LURE	n/a	LTP231	ltpFR	5	9	n/a	HOME	712	0	4	n/a	n/a	n/a	n/a	n/a	n/a
3943268	RECOG_RESP	n/a	LTP231	ltpFR	5	9	n/a	HOME	712	0	n/a	n/a	n/a	n/a	n/a	n/a	n/a
3945014	RECOG_CONF	n/a	LTP231	ltpFR	5	9	n/a	HOME	712	n/a	4	n/a	n/a	n/a	n/a	n/a	n/a
