mstime	trial_type	stim_file	subject	experiment	session	trial	item_name	item_num	list	answer	test_x	test_y	test_z
0	SESS_START	n/a	LTP373	ltpFR2	9	n/a	n/a	n/a	n/a	n/a	0	0	0
12664	START	n/a	LTP373	ltpFR2	9	n/a	n/a	n/a	-1	n/a	n/a	n/a	n/a
12694	PROB	n/a	LTP373	ltpFR2	9	n/a	n/a	n/a	-1	9	5	3	1
14310	PROB	n/a	LTP373	ltpFR2	9	n/a	n/a	n/a	-1	10	6	2	2
15693	PROB	n/a	LTP373	ltpFR2	9	n/a	n/a	n/a	-1	16	8	5	3
17409	PROB	n/a	LTP373	ltpFR2	9	n/a	n/a	n/a	-1	13	5	4	4
20174	PROB	n/a	LTP373	ltpFR2	9	n/a	n/a	n/a	-1	19	2	9	8
21457	PROB	n/a	LTP373	ltpFR2	9	n/a	n/a	n/a	-1	17	8	8	1
23544	STOP	n/a	LTP373	ltpFR2	9	n/a	n/a	n/a	-1	n/a	n/a	n/a	n/a
55008	WORD	wordpools/wasnorm_wordpool_576.txt	LTP373	ltpFR2	9	1	CAPTIVE	240	n/a	n/a	0	0	0
57707	WORD	wordpools/wasnorm_wordpool_576.txt	LTP373	ltpFR2	9	1	LADDER	793	n/a	n/a	0	0	0
60489	WORD	wordpools/wasnorm_wordpool_576.txt	LTP373	ltpFR2	9	1	HAWK	692	n/a	n/a	0	0	0
63121	WORD	wordpools/wasnorm_wordpool_576.txt	LTP373	ltpFR2	9	1	CRUTCH	417	n/a	n/a	0	0	0
65886	WORD	wordpools/wasnorm_wordpool_576.txt	LTP373	ltpFR2	9	1	ELBOW	520	n/a	n/a	0	0	0
68602	WORD	wordpools/wasnorm_wordpool_576.txt	LTP373	ltpFR2	9	1	SHOULDER	1294	n/a	n/a	0	0	0
71384	WORD	wordpools/wasnorm_wordpool_576.txt	LTP373	ltpFR2	9	1	FLASK	576	n/a	n/a	0	0	0
74049	WORD	wordpools/wasnorm_wordpool_576.txt	LTP373	ltpFR2	9	1	SHELF	1280	n/a	n/a	0	0	0
76515	WORD	wordpools/wasnorm_wordpool_576.txt	LTP373	ltpFR2	9	1	CLOTHES	327	n/a	n/a	0	0	0
79164	WORD	wordpools/wasnorm_wordpool_576.txt	LTP373	ltpFR2	9	1	ROOSTER	1209	n/a	n/a	0	0	0
81729	WORD	wordpools/wasnorm_wordpool_576.txt	LTP373	ltpFR2	9	1	SHOVEL	1295	n/a	n/a	0	0	0
84445	WORD	wordpools/wasnorm_wordpool_576.txt	LTP373	ltpFR2	9	1	JELLY	755	n/a	n/a	0	0	0
87010	WORD	wordpools/wasnorm_wordpool_576.txt	LTP373	ltpFR2	9	1	SOFTBALL	1343	n/a	n/a	0	0	0
89525	WORD	wordpools/wasnorm_wordpool_576.txt	LTP373	ltpFR2	9	1	DRESSER	496	n/a	n/a	0	0	0
91991	WORD	wordpools/wasnorm_wordpool_576.txt	LTP373	ltpFR2	9	1	LION	827	n/a	n/a	0	0	0
94723	WORD	wordpools/wasnorm_wordpool_576.txt	LTP373	ltpFR2	9	1	SWAMP	1416	n/a	n/a	0	0	0
97255	WORD	wordpools/wasnorm_wordpool_576.txt	LTP373	ltpFR2	9	1	CATCHER	258	n/a	n/a	0	0	0
99821	WORD	wordpools/wasnorm_wordpool_576.txt	LTP373	ltpFR2	9	1	RACKET	1155	n/a	n/a	0	0	0
102370	WORD	wordpools/wasnorm_wordpool_576.txt	LTP373	ltpFR2	9	1	EAGLE	512	n/a	n/a	0	0	0
105018	WORD	wordpools/wasnorm_wordpool_576.txt	LTP373	ltpFR2	9	1	NEUTRON	947	n/a	n/a	0	0	0
107450	WORD	wordpools/wasnorm_wordpool_576.txt	LTP373	ltpFR2	9	1	RAZOR	1171	n/a	n/a	0	0	0
110116	WORD	wordpools/wasnorm_wordpool_576.txt	LTP373	ltpFR2	9	1	SCALPEL	1243	n/a	n/a	0	0	0
112881	WORD	wordpools/wasnorm_wordpool_576.txt	LTP373	ltpFR2	9	1	THREAD	1460	n/a	n/a	0	0	0
115380	WORD	wordpools/wasnorm_wordpool_576.txt	LTP373	ltpFR2	9	1	YARN	1631	n/a	n/a	0	0	0
116996	START	n/a	LTP373	ltpFR2	9	n/a	n/a	n/a	1	n/a	n/a	n/a	n/a
118118	DISTRACTOR	n/a	LTP373	ltpFR2	9	1	n/a	n/a	n/a	n/a	0	0	0
118129	PROB	n/a	LTP373	ltpFR2	9	n/a	n/a	n/a	1	19	8	3	8
120145	PROB	n/a	LTP373	ltpFR2	9	n/a	n/a	n/a	1	19	6	6	7
122144	PROB	n/a	LTP373	ltpFR2	9	n/a	n/a	n/a	1	16	7	7	2
123610	PROB	n/a	LTP373	ltpFR2	9	n/a	n/a	n/a	1	16	5	8	3
125209	PROB	n/a	LTP373	ltpFR2	9	n/a	n/a	n/a	1	21	8	5	9
127241	PROB	n/a	LTP373	ltpFR2	9	n/a	n/a	n/a	1	20	5	8	7
129474	PROB	n/a	LTP373	ltpFR2	9	n/a	n/a	n/a	1	16	8	6	2
131173	PROB	n/a	LTP373	ltpFR2	9	n/a	n/a	n/a	1	14	4	9	1
132822	PROB	n/a	LTP373	ltpFR2	9	n/a	n/a	n/a	1	16	6	7	3
134138	PROB	n/a	LTP373	ltpFR2	9	n/a	n/a	n/a	1	18	9	8	1
135671	PROB	n/a	LTP373	ltpFR2	9	n/a	n/a	n/a	1	19	9	7	3
136937	PROB	n/a	LTP373	ltpFR2	9	n/a	n/a	n/a	1	13	1	9	3
138120	PROB	n/a	LTP373	ltpFR2	9	n/a	n/a	n/a	1	20	8	6	6
139940	STOP	n/a	LTP373	ltpFR2	9	n/a	n/a	n/a	1	n/a	n/a	n/a	n/a
142835	REC_START	n/a	LTP373	ltpFR2	9	1	n/a	n/a	n/a	n/a	0	0	0
143886	REC_WORD	wordpools/wasnorm_wordpool_576.txt	LTP373	ltpFR2	9	1	CAPTIVE	240	n/a	n/a	0	0	0
145460	REC_WORD	wordpools/wasnorm_wordpool_576.txt	LTP373	ltpFR2	9	1	LADDER	793	n/a	n/a	0	0	0
148355	REC_WORD	wordpools/wasnorm_wordpool_576.txt	LTP373	ltpFR2	9	1	HAWK	692	n/a	n/a	0	0	0
149843	REC_WORD	wordpools/wasnorm_wordpool_576.txt	LTP373	ltpFR2	9	1	EAGLE	512	n/a	n/a	0	0	0
151031	REC_WORD	wordpools/wasnorm_wordpool_576.txt	LTP373	ltpFR2	9	1	ROOSTER	1209	n/a	n/a	0	0	0
152434	REC_WORD	wordpools/wasnorm_wordpool_576.txt	LTP373	ltpFR2	9	1	CRUTCH	417	n/a	n/a	0	0	0
154339	REC_WORD	wordpools/wasnorm_wordpool_576.txt	LTP373	ltpFR2	9	1	SHOULDER	1294	n/a	n/a	0	0	0
155805	REC_WORD	wordpools/wasnorm_wordpool_576.txt	LTP373	ltpFR2	9	1	ELBOW	520	n/a	n/a	0	0	0
158047	REC_WORD	wordpools/wasnorm_wordpool_576.txt	LTP373	ltpFR2	9	1	RAZOR	1171	n/a	n/a	0	0	0
159403	REC_WORD	wordpools/wasnorm_wordpool_576.txt	LTP373	ltpFR2	9	1	SCALPEL	1243	n/a	n/a	0	0	0
161360	REC_WORD	wordpools/wasnorm_wordpool_576.txt	LTP373	ltpFR2	9	1	THREAD	1460	n/a	n/a	0	0	0
162692	REC_WORD	wordpools/wasnorm_wordpool_576.txt	LTP373	ltpFR2	9	1	YARN	1631	n/a	n/a	0	0	0
166061	REC_WORD	wordpools/wasnorm_wordpool_576.txt	LTP373	ltpFR2	9	1	LION	827	n/a	n/a	0	0	0
167436	REC_WORD	wordpools/wasnorm_wordpool_576.txt	LTP373	ltpFR2	9	1	JELLY	755	n/a	n/a	0	0	0
172904	REC_WORD	wordpools/wasnorm_wordpool_576.txt	LTP373	ltpFR2	9	1	NEUTRON	947	n/a	n/a	0	0	0
176593	REC_WORD	wordpools/wasnorm_wordpool_576.txt	LTP373	ltpFR2	9	1	DRESSER	496	n/a	n/a	0	0	0
178090	REC_WORD	wordpools/wasnorm_wordpool_576.txt	LTP373	ltpFR2	9	1	CATCHER	258	n/a	n/a	0	0	0
179370	REC_WORD	wordpools/wasnorm_wordpool_576.txt	LTP373	ltpFR2	9	1	SOFTBALL	1343	n/a	n/a	0	0	0
233259	DISTRACTOR	n/a	LTP373	ltpFR2	9	2	n/a	n/a	n/a	n/a	0	0	0
233259	START	n/a	LTP373	ltpFR2	9	n/a	n/a	n/a	2	n/a	n/a	n/a	n/a
233276	PROB	n/a	LTP373	ltpFR2	9	n/a	n/a	n/a	2	15	3	6	6
234841	PROB	n/a	LTP373	ltpFR2	9	n/a	n/a	n/a	2	6	2	1	3
235991	PROB	n/a	LTP373	ltpFR2	9	n/a	n/a	n/a	2	21	3	9	9
237424	PROB	n/a	LTP373	ltpFR2	9	n/a	n/a	n/a	2	12	1	3	8
238623	PROB	n/a	LTP373	ltpFR2	9	n/a	n/a	n/a	2	25	9	7	9
240522	PROB	n/a	LTP373	ltpFR2	9	n/a	n/a	n/a	2	18	3	7	8
241905	PROB	n/a	LTP373	ltpFR2	9	n/a	n/a	n/a	2	15	9	4	2
243621	PROB	n/a	LTP373	ltpFR2	9	n/a	n/a	n/a	2	19	3	8	8
244953	PROB	n/a	LTP373	ltpFR2	9	n/a	n/a	n/a	2	12	5	2	5
246286	PROB	n/a	LTP373	ltpFR2	9	n/a	n/a	n/a	2	15	6	7	2
248469	PROB	n/a	LTP373	ltpFR2	9	n/a	n/a	n/a	2	10	5	3	2
249934	PROB	n/a	LTP373	ltpFR2	9	n/a	n/a	n/a	2	14	6	2	6
251517	PROB	n/a	LTP373	ltpFR2	9	n/a	n/a	n/a	2	14	4	3	7
252900	PROB	n/a	LTP373	ltpFR2	9	n/a	n/a	n/a	2	6	3	2	1
255598	PROB	n/a	LTP373	ltpFR2	9	n/a	n/a	n/a	2	21	8	8	5
256880	STOP	n/a	LTP373	ltpFR2	9	n/a	n/a	n/a	2	n/a	n/a	n/a	n/a
258264	WORD	wordpools/wasnorm_wordpool_576.txt	LTP373	ltpFR2	9	2	BACKBONE	66	n/a	n/a	0	0	0
260896	WORD	wordpools/wasnorm_wordpool_576.txt	LTP373	ltpFR2	9	2	FILM	565	n/a	n/a	0	0	0
263595	WORD	wordpools/wasnorm_wordpool_576.txt	LTP373	ltpFR2	9	2	HIKER	708	n/a	n/a	0	0	0
266294	WORD	wordpools/wasnorm_wordpool_576.txt	LTP373	ltpFR2	9	2	BEEF	113	n/a	n/a	0	0	0
268909	WORD	wordpools/wasnorm_wordpool_576.txt	LTP373	ltpFR2	9	2	KEEPER	769	n/a	n/a	0	0	0
271624	WORD	wordpools/wasnorm_wordpool_576.txt	LTP373	ltpFR2	9	2	PLATE	1086	n/a	n/a	0	0	0
274190	WORD	wordpools/wasnorm_wordpool_576.txt	LTP373	ltpFR2	9	2	RUG	1215	n/a	n/a	0	0	0
276872	WORD	wordpools/wasnorm_wordpool_576.txt	LTP373	ltpFR2	9	2	OX	994	n/a	n/a	0	0	0
279338	WORD	wordpools/wasnorm_wordpool_576.txt	LTP373	ltpFR2	9	2	CASHEW	253	n/a	n/a	0	0	0
282120	WORD	wordpools/wasnorm_wordpool_576.txt	LTP373	ltpFR2	9	2	TILE	1468	n/a	n/a	0	0	0
284702	WORD	wordpools/wasnorm_wordpool_576.txt	LTP373	ltpFR2	9	2	ISLAND	745	n/a	n/a	0	0	0
287151	WORD	wordpools/wasnorm_wordpool_576.txt	LTP373	ltpFR2	9	2	NOMAD	955	n/a	n/a	0	0	0
289633	WORD	wordpools/wasnorm_wordpool_576.txt	LTP373	ltpFR2	9	2	MOTOR	922	n/a	n/a	0	0	0
292182	WORD	wordpools/wasnorm_wordpool_576.txt	LTP373	ltpFR2	9	2	MAMMAL	861	n/a	n/a	0	0	0
294947	WORD	wordpools/wasnorm_wordpool_576.txt	LTP373	ltpFR2	9	2	FLIPPER	580	n/a	n/a	0	0	0
297746	WORD	wordpools/wasnorm_wordpool_576.txt	LTP373	ltpFR2	9	2	FLESH	579	n/a	n/a	0	0	0
300444	WORD	wordpools/wasnorm_wordpool_576.txt	LTP373	ltpFR2	9	2	PADDLE	1000	n/a	n/a	0	0	0
302877	WORD	wordpools/wasnorm_wordpool_576.txt	LTP373	ltpFR2	9	2	SNACK	1331	n/a	n/a	0	0	0
305609	WORD	wordpools/wasnorm_wordpool_576.txt	LTP373	ltpFR2	9	2	SERVER	1272	n/a	n/a	0	0	0
308324	WORD	wordpools/wasnorm_wordpool_576.txt	LTP373	ltpFR2	9	2	RAFT	1159	n/a	n/a	0	0	0
311006	WORD	wordpools/wasnorm_wordpool_576.txt	LTP373	ltpFR2	9	2	TURKEY	1520	n/a	n/a	0	0	0
313522	WORD	wordpools/wasnorm_wordpool_576.txt	LTP373	ltpFR2	9	2	BREAST	171	n/a	n/a	0	0	0
315954	WORD	wordpools/wasnorm_wordpool_576.txt	LTP373	ltpFR2	9	2	HAND	683	n/a	n/a	0	0	0
318769	WORD	wordpools/wasnorm_wordpool_576.txt	LTP373	ltpFR2	9	2	PAIL	1002	n/a	n/a	0	0	0
320385	START	n/a	LTP373	ltpFR2	9	n/a	n/a	n/a	3	n/a	n/a	n/a	n/a
321298	DISTRACTOR	n/a	LTP373	ltpFR2	9	2	n/a	n/a	n/a	n/a	0	0	0
321301	PROB	n/a	LTP373	ltpFR2	9	n/a	n/a	n/a	3	22	4	9	9
323550	PROB	n/a	LTP373	ltpFR2	9	n/a	n/a	n/a	3	13	8	1	4
325616	PROB	n/a	LTP373	ltpFR2	9	n/a	n/a	n/a	3	17	2	7	8
327265	PROB	n/a	LTP373	ltpFR2	9	n/a	n/a	n/a	3	18	4	8	6
328881	PROB	n/a	LTP373	ltpFR2	9	n/a	n/a	n/a	3	12	4	5	3
330680	PROB	n/a	LTP373	ltpFR2	9	n/a	n/a	n/a	3	8	1	5	2
331896	PROB	n/a	LTP373	ltpFR2	9	n/a	n/a	n/a	3	15	9	4	2
333412	PROB	n/a	LTP373	ltpFR2	9	n/a	n/a	n/a	3	22	4	9	9
335362	PROB	n/a	LTP373	ltpFR2	9	n/a	n/a	n/a	3	15	4	5	6
336744	PROB	n/a	LTP373	ltpFR2	9	n/a	n/a	n/a	3	18	4	7	7
337994	PROB	n/a	LTP373	ltpFR2	9	n/a	n/a	n/a	3	12	8	3	1
339993	PROB	n/a	LTP373	ltpFR2	9	n/a	n/a	n/a	3	17	8	1	8
341776	PROB	n/a	LTP373	ltpFR2	9	n/a	n/a	n/a	3	16	5	9	2
343259	STOP	n/a	LTP373	ltpFR2	9	n/a	n/a	n/a	3	n/a	n/a	n/a	n/a
346224	REC_START	n/a	LTP373	ltpFR2	9	2	n/a	n/a	n/a	n/a	0	0	0
347679	REC_WORD	wordpools/wasnorm_wordpool_576.txt	LTP373	ltpFR2	9	2	BACKBONE	66	n/a	n/a	0	0	0
348916	REC_WORD	wordpools/wasnorm_wordpool_576.txt	LTP373	ltpFR2	9	2	FILM	565	n/a	n/a	0	0	0
350330	REC_WORD	wordpools/wasnorm_wordpool_576.txt	LTP373	ltpFR2	9	2	HIKER	708	n/a	n/a	0	0	0
351707	REC_WORD	wordpools/wasnorm_wordpool_576.txt	LTP373	ltpFR2	9	2	NOMAD	955	n/a	n/a	0	0	0
355044	REC_WORD	wordpools/wasnorm_wordpool_576.txt	LTP373	ltpFR2	9	2	ISLAND	745	n/a	n/a	0	0	0
356467	REC_WORD	wordpools/wasnorm_wordpool_576.txt	LTP373	ltpFR2	9	2	PADDLE	1000	n/a	n/a	0	0	0
360066	REC_WORD	wordpools/wasnorm_wordpool_576.txt	LTP373	ltpFR2	9	2	PAIL	1002	n/a	n/a	0	0	0
361520	REC_WORD	wordpools/wasnorm_wordpool_576.txt	LTP373	ltpFR2	9	2	RAFT	1159	n/a	n/a	0	0	0
366117	REC_WORD	wordpools/wasnorm_wordpool_576.txt	LTP373	ltpFR2	9	2	SNACK	1331	n/a	n/a	0	0	0
367966	REC_WORD	wordpools/wasnorm_wordpool_576.txt	LTP373	ltpFR2	9	2	CASHEW	253	n/a	n/a	0	0	0
369717	REC_WORD	wordpools/wasnorm_wordpool_576.txt	LTP373	ltpFR2	9	2	OX	994	n/a	n/a	0	0	0
373425	REC_WORD	wordpools/wasnorm_wordpool_576.txt	LTP373	ltpFR2	9	2	BEEF	113	n/a	n/a	0	0	0
374964	REC_WORD	wordpools/wasnorm_wordpool_576.txt	LTP373	ltpFR2	9	2	FLESH	579	n/a	n/a	0	0	0
376679	REC_WORD	wordpools/wasnorm_wordpool_576.txt	LTP373	ltpFR2	9	2	BREAST	171	n/a	n/a	0	0	0
383956	REC_WORD	wordpools/wasnorm_wordpool_576.txt	LTP373	ltpFR2	9	2	RUG	1215	n/a	n/a	0	0	0
385237	REC_WORD	wordpools/wasnorm_wordpool_576.txt	LTP373	ltpFR2	9	2	TILE	1468	n/a	n/a	0	0	0
402626	REC_WORD	wordpools/wasnorm_wordpool_576.txt	LTP373	ltpFR2	9	2	ISLAND	745	n/a	n/a	0	0	0
436664	WORD	wordpools/wasnorm_wordpool_576.txt	LTP373	ltpFR2	9	3	MILDEW	893	n/a	n/a	0	0	0
439097	WORD	wordpools/wasnorm_wordpool_576.txt	LTP373	ltpFR2	9	3	SNAKE	1333	n/a	n/a	0	0	0
441612	WORD	wordpools/wasnorm_wordpool_576.txt	LTP373	ltpFR2	9	3	CREATURE	403	n/a	n/a	0	0	0
444244	WORD	wordpools/wasnorm_wordpool_576.txt	LTP373	ltpFR2	9	3	HAMPER	682	n/a	n/a	0	0	0
446810	WORD	wordpools/wasnorm_wordpool_576.txt	LTP373	ltpFR2	9	3	BUREAU	199	n/a	n/a	0	0	0
449359	WORD	wordpools/wasnorm_wordpool_576.txt	LTP373	ltpFR2	9	3	FLUTE	585	n/a	n/a	0	0	0
451792	WORD	wordpools/wasnorm_wordpool_576.txt	LTP373	ltpFR2	9	3	TURNIP	1521	n/a	n/a	0	0	0
454573	WORD	wordpools/wasnorm_wordpool_576.txt	LTP373	ltpFR2	9	3	DAISY	435	n/a	n/a	0	0	0
457122	WORD	wordpools/wasnorm_wordpool_576.txt	LTP373	ltpFR2	9	3	POLICE	1098	n/a	n/a	0	0	0
459704	WORD	wordpools/wasnorm_wordpool_576.txt	LTP373	ltpFR2	9	3	ICING	732	n/a	n/a	0	0	0
462519	WORD	wordpools/wasnorm_wordpool_576.txt	LTP373	ltpFR2	9	3	SNAIL	1332	n/a	n/a	0	0	0
465185	WORD	wordpools/wasnorm_wordpool_576.txt	LTP373	ltpFR2	9	3	LIVER	833	n/a	n/a	0	0	0
467684	WORD	wordpools/wasnorm_wordpool_576.txt	LTP373	ltpFR2	9	3	HANDBAG	684	n/a	n/a	0	0	0
470382	WORD	wordpools/wasnorm_wordpool_576.txt	LTP373	ltpFR2	9	3	QUEEN	1149	n/a	n/a	0	0	0
473198	WORD	wordpools/wasnorm_wordpool_576.txt	LTP373	ltpFR2	9	3	PORTRAIT	1111	n/a	n/a	0	0	0
475746	WORD	wordpools/wasnorm_wordpool_576.txt	LTP373	ltpFR2	9	3	OUTDOORS	987	n/a	n/a	0	0	0
478445	WORD	wordpools/wasnorm_wordpool_576.txt	LTP373	ltpFR2	9	3	WORKER	1621	n/a	n/a	0	0	0
481127	WORD	wordpools/wasnorm_wordpool_576.txt	LTP373	ltpFR2	9	3	WIFE	1609	n/a	n/a	0	0	0
483859	WORD	wordpools/wasnorm_wordpool_576.txt	LTP373	ltpFR2	9	3	CAMEL	223	n/a	n/a	0	0	0
486525	WORD	wordpools/wasnorm_wordpool_576.txt	LTP373	ltpFR2	9	3	SUNSET	1408	n/a	n/a	0	0	0
488974	WORD	wordpools/wasnorm_wordpool_576.txt	LTP373	ltpFR2	9	3	SUNRISE	1407	n/a	n/a	0	0	0
491589	WORD	wordpools/wasnorm_wordpool_576.txt	LTP373	ltpFR2	9	3	ORCHID	982	n/a	n/a	0	0	0
494171	WORD	wordpools/wasnorm_wordpool_576.txt	LTP373	ltpFR2	9	3	CABBAGE	210	n/a	n/a	0	0	0
496953	WORD	wordpools/wasnorm_wordpool_576.txt	LTP373	ltpFR2	9	3	BASEMENT	94	n/a	n/a	0	0	0
498569	START	n/a	LTP373	ltpFR2	9	n/a	n/a	n/a	4	n/a	n/a	n/a	n/a
499596	DISTRACTOR	n/a	LTP373	ltpFR2	9	3	n/a	n/a	n/a	n/a	0	0	0
499602	PROB	n/a	LTP373	ltpFR2	9	n/a	n/a	n/a	4	7	1	2	4
501418	PROB	n/a	LTP373	ltpFR2	9	n/a	n/a	n/a	4	22	7	8	7
504467	PROB	n/a	LTP373	ltpFR2	9	n/a	n/a	n/a	4	14	7	6	1
505749	PROB	n/a	LTP373	ltpFR2	9	n/a	n/a	n/a	4	13	2	7	4
508765	PROB	n/a	LTP373	ltpFR2	9	n/a	n/a	n/a	4	17	6	3	8
511846	PROB	n/a	LTP373	ltpFR2	9	n/a	n/a	n/a	4	15	1	7	7
513562	PROB	n/a	LTP373	ltpFR2	9	n/a	n/a	n/a	4	14	3	7	4
515078	PROB	n/a	LTP373	ltpFR2	9	n/a	n/a	n/a	4	15	4	7	4
516827	PROB	n/a	LTP373	ltpFR2	9	n/a	n/a	n/a	4	24	7	6	9
518860	PROB	n/a	LTP373	ltpFR2	9	n/a	n/a	n/a	4	16	6	2	8
520209	PROB	n/a	LTP373	ltpFR2	9	n/a	n/a	n/a	4	9	2	4	3
522080	STOP	n/a	LTP373	ltpFR2	9	n/a	n/a	n/a	4	n/a	n/a	n/a	n/a
524358	REC_START	n/a	LTP373	ltpFR2	9	3	n/a	n/a	n/a	n/a	0	0	0
526357	REC_WORD	wordpools/wasnorm_wordpool_576.txt	LTP373	ltpFR2	9	3	MILDEW	893	n/a	n/a	0	0	0
527533	REC_WORD	wordpools/wasnorm_wordpool_576.txt	LTP373	ltpFR2	9	3	SNAKE	1333	n/a	n/a	0	0	0
528865	REC_WORD	wordpools/wasnorm_wordpool_576.txt	LTP373	ltpFR2	9	3	SNAIL	1332	n/a	n/a	0	0	0
530362	REC_WORD	wordpools/wasnorm_wordpool_576.txt	LTP373	ltpFR2	9	3	FLUTE	585	n/a	n/a	0	0	0
531849	REC_WORD	wordpools/wasnorm_wordpool_576.txt	LTP373	ltpFR2	9	3	DAISY	435	n/a	n/a	0	0	0
533199	REC_WORD	wordpools/wasnorm_wordpool_576.txt	LTP373	ltpFR2	9	3	ORCHID	982	n/a	n/a	0	0	0
534382	REC_WORD	wordpools/wasnorm_wordpool_576.txt	LTP373	ltpFR2	9	3	QUEEN	1149	n/a	n/a	0	0	0
535653	REC_WORD	wordpools/wasnorm_wordpool_576.txt	LTP373	ltpFR2	9	3	WIFE	1609	n/a	n/a	0	0	0
536986	REC_WORD	wordpools/wasnorm_wordpool_576.txt	LTP373	ltpFR2	9	3	PORTRAIT	1111	n/a	n/a	0	0	0
538236	REC_WORD	wordpools/wasnorm_wordpool_576.txt	LTP373	ltpFR2	9	3	HANDBAG	684	n/a	n/a	0	0	0
539506	REC_WORD	wordpools/wasnorm_wordpool_576.txt	LTP373	ltpFR2	9	3	POLICE	1098	n/a	n/a	0	0	0
540752	REC_WORD	wordpools/wasnorm_wordpool_576.txt	LTP373	ltpFR2	9	3	WORKER	1621	n/a	n/a	0	0	0
542032	REC_WORD	wordpools/wasnorm_wordpool_576.txt	LTP373	ltpFR2	9	3	BUREAU	199	n/a	n/a	0	0	0
543377	REC_WORD	wordpools/wasnorm_wordpool_576.txt	LTP373	ltpFR2	9	3	ICING	732	n/a	n/a	0	0	0
549101	REC_WORD	wordpools/wasnorm_wordpool_576.txt	LTP373	ltpFR2	9	3	HAMPER	682	n/a	n/a	0	0	0
555853	REC_WORD	wordpools/wasnorm_wordpool_576.txt	LTP373	ltpFR2	9	3	SUNSET	1408	n/a	n/a	0	0	0
556969	REC_WORD	wordpools/wasnorm_wordpool_576.txt	LTP373	ltpFR2	9	3	SUNRISE	1407	n/a	n/a	0	0	0
563465	REC_WORD	wordpools/wasnorm_wordpool_576.txt	LTP373	ltpFR2	9	3	OUTDOORS	987	n/a	n/a	0	0	0
614815	DISTRACTOR	n/a	LTP373	ltpFR2	9	4	n/a	n/a	n/a	n/a	0	0	0
614816	START	n/a	LTP373	ltpFR2	9	n/a	n/a	n/a	5	n/a	n/a	n/a	n/a
614832	PROB	n/a	LTP373	ltpFR2	9	n/a	n/a	n/a	5	16	9	3	4
616898	PROB	n/a	LTP373	ltpFR2	9	n/a	n/a	n/a	5	10	2	6	2
618930	PROB	n/a	LTP373	ltpFR2	9	n/a	n/a	n/a	5	15	7	2	6
620996	PROB	n/a	LTP373	ltpFR2	9	n/a	n/a	n/a	5	22	8	9	7
624511	PROB	n/a	LTP373	ltpFR2	9	n/a	n/a	n/a	5	19	9	4	6
625960	PROB	n/a	LTP373	ltpFR2	9	n/a	n/a	n/a	5	14	4	5	5
627060	PROB	n/a	LTP373	ltpFR2	9	n/a	n/a	n/a	5	23	9	8	7
631757	PROB	n/a	LTP373	ltpFR2	9	n/a	n/a	n/a	5	7	4	2	1
633840	PROB	n/a	LTP373	ltpFR2	9	n/a	n/a	n/a	5	11	2	3	6
635073	PROB	n/a	LTP373	ltpFR2	9	n/a	n/a	n/a	5	15	5	4	6
636822	PROB	n/a	LTP373	ltpFR2	9	n/a	n/a	n/a	5	14	1	9	4
637924	STOP	n/a	LTP373	ltpFR2	9	n/a	n/a	n/a	5	n/a	n/a	n/a	n/a
639720	WORD	wordpools/wasnorm_wordpool_576.txt	LTP373	ltpFR2	9	4	INMATE	738	n/a	n/a	0	0	0
642319	WORD	wordpools/wasnorm_wordpool_576.txt	LTP373	ltpFR2	9	4	SHELTER	1282	n/a	n/a	0	0	0
644885	WORD	wordpools/wasnorm_wordpool_576.txt	LTP373	ltpFR2	9	4	EUROPE	541	n/a	n/a	0	0	0
647483	WORD	wordpools/wasnorm_wordpool_576.txt	LTP373	ltpFR2	9	4	CROSS	413	n/a	n/a	0	0	0
650049	WORD	wordpools/wasnorm_wordpool_576.txt	LTP373	ltpFR2	9	4	BLOUSE	139	n/a	n/a	0	0	0
652831	WORD	wordpools/wasnorm_wordpool_576.txt	LTP373	ltpFR2	9	4	PIZZA	1079	n/a	n/a	0	0	0
655580	WORD	wordpools/wasnorm_wordpool_576.txt	LTP373	ltpFR2	9	4	SAUSAGE	1238	n/a	n/a	0	0	0
658112	WORD	wordpools/wasnorm_wordpool_576.txt	LTP373	ltpFR2	9	4	HEART	697	n/a	n/a	0	0	0
660811	WORD	wordpools/wasnorm_wordpool_576.txt	LTP373	ltpFR2	9	4	LABEL	790	n/a	n/a	0	0	0
663493	WORD	wordpools/wasnorm_wordpool_576.txt	LTP373	ltpFR2	9	4	EMPIRE	530	n/a	n/a	0	0	0
666108	WORD	wordpools/wasnorm_wordpool_576.txt	LTP373	ltpFR2	9	4	SPOON	1357	n/a	n/a	0	0	0
668540	WORD	wordpools/wasnorm_wordpool_576.txt	LTP373	ltpFR2	9	4	BOARD	143	n/a	n/a	0	0	0
671006	WORD	wordpools/wasnorm_wordpool_576.txt	LTP373	ltpFR2	9	4	PICTURE	1061	n/a	n/a	0	0	0
673821	WORD	wordpools/wasnorm_wordpool_576.txt	LTP373	ltpFR2	9	4	PUPIL	1143	n/a	n/a	0	0	0
676370	WORD	wordpools/wasnorm_wordpool_576.txt	LTP373	ltpFR2	9	4	CARROT	249	n/a	n/a	0	0	0
679185	WORD	wordpools/wasnorm_wordpool_576.txt	LTP373	ltpFR2	9	4	KNAPSACK	783	n/a	n/a	0	0	0
681684	WORD	wordpools/wasnorm_wordpool_576.txt	LTP373	ltpFR2	9	4	CEILING	265	n/a	n/a	0	0	0
684316	WORD	wordpools/wasnorm_wordpool_576.txt	LTP373	ltpFR2	9	4	DUSTPAN	509	n/a	n/a	0	0	0
687065	WORD	wordpools/wasnorm_wordpool_576.txt	LTP373	ltpFR2	9	4	ITEM	746	n/a	n/a	0	0	0
689847	WORD	wordpools/wasnorm_wordpool_576.txt	LTP373	ltpFR2	9	4	CLAM	315	n/a	n/a	0	0	0
692313	WORD	wordpools/wasnorm_wordpool_576.txt	LTP373	ltpFR2	9	4	SCALLOP	1242	n/a	n/a	0	0	0
694796	WORD	wordpools/wasnorm_wordpool_576.txt	LTP373	ltpFR2	9	4	STAKE	1368	n/a	n/a	0	0	0
697394	WORD	wordpools/wasnorm_wordpool_576.txt	LTP373	ltpFR2	9	4	ORANGE	980	n/a	n/a	0	0	0
700192	WORD	wordpools/wasnorm_wordpool_576.txt	LTP373	ltpFR2	9	4	CABIN	211	n/a	n/a	0	0	0
701808	START	n/a	LTP373	ltpFR2	9	n/a	n/a	n/a	6	n/a	n/a	n/a	n/a
702793	DISTRACTOR	n/a	LTP373	ltpFR2	9	4	n/a	n/a	n/a	n/a	0	0	0
702808	PROB	n/a	LTP373	ltpFR2	9	n/a	n/a	n/a	6	14	2	7	5
705390	PROB	n/a	LTP373	ltpFR2	9	n/a	n/a	n/a	6	13	8	1	4
706790	PROB	n/a	LTP373	ltpFR2	9	n/a	n/a	n/a	6	19	9	8	2
708339	PROB	n/a	LTP373	ltpFR2	9	n/a	n/a	n/a	6	15	1	5	9
710654	PROB	n/a	LTP373	ltpFR2	9	n/a	n/a	n/a	6	9	3	1	5
712803	PROB	n/a	LTP373	ltpFR2	9	n/a	n/a	n/a	6	12	5	6	1
714203	PROB	n/a	LTP373	ltpFR2	9	n/a	n/a	n/a	6	7	3	3	1
715435	PROB	n/a	LTP373	ltpFR2	9	n/a	n/a	n/a	6	8	4	2	2
716985	PROB	n/a	LTP373	ltpFR2	9	n/a	n/a	n/a	6	16	6	4	6
718151	PROB	n/a	LTP373	ltpFR2	9	n/a	n/a	n/a	6	19	6	6	7
719883	PROB	n/a	LTP373	ltpFR2	9	n/a	n/a	n/a	6	16	4	3	9
721532	PROB	n/a	LTP373	ltpFR2	9	n/a	n/a	n/a	6	21	8	9	4
723398	PROB	n/a	LTP373	ltpFR2	9	n/a	n/a	n/a	6	13	7	5	1
724663	STOP	n/a	LTP373	ltpFR2	9	n/a	n/a	n/a	6	n/a	n/a	n/a	n/a
727680	REC_START	n/a	LTP373	ltpFR2	9	4	n/a	n/a	n/a	n/a	0	0	0
729347	REC_WORD	wordpools/wasnorm_wordpool_576.txt	LTP373	ltpFR2	9	4	INMATE	738	n/a	n/a	0	0	0
730493	REC_WORD	wordpools/wasnorm_wordpool_576.txt	LTP373	ltpFR2	9	4	SHELTER	1282	n/a	n/a	0	0	0
731851	REC_WORD	wordpools/wasnorm_wordpool_576.txt	LTP373	ltpFR2	9	4	CABIN	211	n/a	n/a	0	0	0
733132	REC_WORD	wordpools/wasnorm_wordpool_576.txt	LTP373	ltpFR2	9	4	EMPIRE	530	n/a	n/a	0	0	0
734217	REC_WORD	wordpools/wasnorm_wordpool_576.txt	LTP373	ltpFR2	9	4	EUROPE	541	n/a	n/a	0	0	0
737917	REC_WORD	wordpools/wasnorm_wordpool_576.txt	LTP373	ltpFR2	9	4	CROSS	413	n/a	n/a	0	0	0
739017	REC_WORD	wordpools/wasnorm_wordpool_576.txt	LTP373	ltpFR2	9	4	STAKE	1368	n/a	n/a	0	0	0
741337	REC_WORD	wordpools/wasnorm_wordpool_576.txt	LTP373	ltpFR2	9	4	ITEM	746	n/a	n/a	0	0	0
744517	REC_WORD	wordpools/wasnorm_wordpool_576.txt	LTP373	ltpFR2	9	4	PICTURE	1061	n/a	n/a	0	0	0
745811	REC_WORD	wordpools/wasnorm_wordpool_576.txt	LTP373	ltpFR2	9	4	DUSTPAN	509	n/a	n/a	0	0	0
749268	REC_WORD	wordpools/wasnorm_wordpool_576.txt	LTP373	ltpFR2	9	4	PUPIL	1143	n/a	n/a	0	0	0
755274	REC_WORD	wordpools/wasnorm_wordpool_576.txt	LTP373	ltpFR2	9	4	SPOON	1357	n/a	n/a	0	0	0
756647	REC_WORD	wordpools/wasnorm_wordpool_576.txt	LTP373	ltpFR2	9	4	SCALLOP	1242	n/a	n/a	0	0	0
758007	REC_WORD	wordpools/wasnorm_wordpool_576.txt	LTP373	ltpFR2	9	4	CLAM	315	n/a	n/a	0	0	0
759350	REC_WORD	wordpools/wasnorm_wordpool_576.txt	LTP373	ltpFR2	9	4	ORANGE	980	n/a	n/a	0	0	0
762557	REC_WORD	wordpools/wasnorm_wordpool_576.txt	LTP373	ltpFR2	9	4	SAUSAGE	1238	n/a	n/a	0	0	0
768262	REC_WORD	wordpools/wasnorm_wordpool_576.txt	LTP373	ltpFR2	9	4	PIZZA	1079	n/a	n/a	0	0	0
797781	REC_WORD	wordpools/wasnorm_wordpool_576.txt	LTP373	ltpFR2	9	4	CEILING	265	n/a	n/a	0	0	0
818121	DISTRACTOR	n/a	LTP373	ltpFR2	9	5	n/a	n/a	n/a	n/a	0	0	0
818121	START	n/a	LTP373	ltpFR2	9	n/a	n/a	n/a	7	n/a	n/a	n/a	n/a
818138	PROB	n/a	LTP373	ltpFR2	9	n/a	n/a	n/a	7	15	1	7	7
819570	PROB	n/a	LTP373	ltpFR2	9	n/a	n/a	n/a	7	17	7	2	8
820903	PROB	n/a	LTP373	ltpFR2	9	n/a	n/a	n/a	7	13	2	7	4
822787	PROB	n/a	LTP373	ltpFR2	9	n/a	n/a	n/a	7	16	2	8	6
823935	PROB	n/a	LTP373	ltpFR2	9	n/a	n/a	n/a	7	8	4	3	1
825234	PROB	n/a	LTP373	ltpFR2	9	n/a	n/a	n/a	7	19	9	6	4
826500	PROB	n/a	LTP373	ltpFR2	9	n/a	n/a	n/a	7	14	5	5	4
827500	PROB	n/a	LTP373	ltpFR2	9	n/a	n/a	n/a	7	15	9	2	4
829266	PROB	n/a	LTP373	ltpFR2	9	n/a	n/a	n/a	7	13	2	2	9
830648	PROB	n/a	LTP373	ltpFR2	9	n/a	n/a	n/a	7	16	7	6	5
832281	PROB	n/a	LTP373	ltpFR2	9	n/a	n/a	n/a	7	14	4	7	3
833614	PROB	n/a	LTP373	ltpFR2	9	n/a	n/a	n/a	7	19	8	4	7
834947	PROB	n/a	LTP373	ltpFR2	9	n/a	n/a	n/a	7	21	8	8	5
836346	PROB	n/a	LTP373	ltpFR2	9	n/a	n/a	n/a	7	14	6	5	3
838245	PROB	n/a	LTP373	ltpFR2	9	n/a	n/a	n/a	7	15	5	4	6
839544	PROB	n/a	LTP373	ltpFR2	9	n/a	n/a	n/a	7	18	8	5	5
840627	STOP	n/a	LTP373	ltpFR2	9	n/a	n/a	n/a	7	n/a	n/a	n/a	n/a
843176	WORD	wordpools/wasnorm_wordpool_576.txt	LTP373	ltpFR2	9	5	STATUE	1374	n/a	n/a	0	0	0
845608	WORD	wordpools/wasnorm_wordpool_576.txt	LTP373	ltpFR2	9	5	AIRPLANE	12	n/a	n/a	0	0	0
848240	WORD	wordpools/wasnorm_wordpool_576.txt	LTP373	ltpFR2	9	5	VALVE	1546	n/a	n/a	0	0	0
850739	WORD	wordpools/wasnorm_wordpool_576.txt	LTP373	ltpFR2	9	5	CLIMBER	323	n/a	n/a	0	0	0
853355	WORD	wordpools/wasnorm_wordpool_576.txt	LTP373	ltpFR2	9	5	LIGHTNING	820	n/a	n/a	0	0	0
856170	WORD	wordpools/wasnorm_wordpool_576.txt	LTP373	ltpFR2	9	5	SPOUSE	1358	n/a	n/a	0	0	0
858786	WORD	wordpools/wasnorm_wordpool_576.txt	LTP373	ltpFR2	9	5	HUSBAND	728	n/a	n/a	0	0	0
861551	WORD	wordpools/wasnorm_wordpool_576.txt	LTP373	ltpFR2	9	5	RECEIPT	1173	n/a	n/a	0	0	0
864083	WORD	wordpools/wasnorm_wordpool_576.txt	LTP373	ltpFR2	9	5	MOP	916	n/a	n/a	0	0	0
866565	WORD	wordpools/wasnorm_wordpool_576.txt	LTP373	ltpFR2	9	5	PERMIT	1051	n/a	n/a	0	0	0
869214	WORD	wordpools/wasnorm_wordpool_576.txt	LTP373	ltpFR2	9	5	MATTRESS	879	n/a	n/a	0	0	0
871913	WORD	wordpools/wasnorm_wordpool_576.txt	LTP373	ltpFR2	9	5	WOMAN	1620	n/a	n/a	0	0	0
874728	WORD	wordpools/wasnorm_wordpool_576.txt	LTP373	ltpFR2	9	5	SKILLET	1317	n/a	n/a	0	0	0
877177	WORD	wordpools/wasnorm_wordpool_576.txt	LTP373	ltpFR2	9	5	SUSPECT	1415	n/a	n/a	0	0	0
879892	WORD	wordpools/wasnorm_wordpool_576.txt	LTP373	ltpFR2	9	5	VALLEY	1545	n/a	n/a	0	0	0
882474	WORD	wordpools/wasnorm_wordpool_576.txt	LTP373	ltpFR2	9	5	WASHER	1592	n/a	n/a	0	0	0
885073	WORD	wordpools/wasnorm_wordpool_576.txt	LTP373	ltpFR2	9	5	CHEST	295	n/a	n/a	0	0	0
887589	WORD	wordpools/wasnorm_wordpool_576.txt	LTP373	ltpFR2	9	5	SCULPTURE	1258	n/a	n/a	0	0	0
890204	WORD	wordpools/wasnorm_wordpool_576.txt	LTP373	ltpFR2	9	5	SALMON	1227	n/a	n/a	0	0	0
892636	WORD	wordpools/wasnorm_wordpool_576.txt	LTP373	ltpFR2	9	5	DOLPHIN	483	n/a	n/a	0	0	0
895352	WORD	wordpools/wasnorm_wordpool_576.txt	LTP373	ltpFR2	9	5	BLENDER	136	n/a	n/a	0	0	0
898151	WORD	wordpools/wasnorm_wordpool_576.txt	LTP373	ltpFR2	9	5	SLOPE	1328	n/a	n/a	0	0	0
900599	WORD	wordpools/wasnorm_wordpool_576.txt	LTP373	ltpFR2	9	5	PICNIC	1060	n/a	n/a	0	0	0
903098	WORD	wordpools/wasnorm_wordpool_576.txt	LTP373	ltpFR2	9	5	HELMET	702	n/a	n/a	0	0	0
904714	START	n/a	LTP373	ltpFR2	9	n/a	n/a	n/a	8	n/a	n/a	n/a	n/a
905647	DISTRACTOR	n/a	LTP373	ltpFR2	9	5	n/a	n/a	n/a	n/a	0	0	0
905664	PROB	n/a	LTP373	ltpFR2	9	n/a	n/a	n/a	8	19	8	4	7
907413	PROB	n/a	LTP373	ltpFR2	9	n/a	n/a	n/a	8	7	4	2	1
909095	PROB	n/a	LTP373	ltpFR2	9	n/a	n/a	n/a	8	13	8	2	3
910378	PROB	n/a	LTP373	ltpFR2	9	n/a	n/a	n/a	8	14	5	2	7
911744	PROB	n/a	LTP373	ltpFR2	9	n/a	n/a	n/a	8	12	6	2	4
913094	PROB	n/a	LTP373	ltpFR2	9	n/a	n/a	n/a	8	24	8	7	9
914843	PROB	n/a	LTP373	ltpFR2	9	n/a	n/a	n/a	8	22	8	8	6
916242	PROB	n/a	LTP373	ltpFR2	9	n/a	n/a	n/a	8	14	3	9	2
917758	PROB	n/a	LTP373	ltpFR2	9	n/a	n/a	n/a	8	16	4	5	7
919058	PROB	n/a	LTP373	ltpFR2	9	n/a	n/a	n/a	8	14	3	4	7
920407	PROB	n/a	LTP373	ltpFR2	9	n/a	n/a	n/a	8	12	3	5	4
921806	PROB	n/a	LTP373	ltpFR2	9	n/a	n/a	n/a	8	16	6	9	1
923839	PROB	n/a	LTP373	ltpFR2	9	n/a	n/a	n/a	8	18	1	8	9
925405	PROB	n/a	LTP373	ltpFR2	9	n/a	n/a	n/a	8	11	3	1	7
928710	STOP	n/a	LTP373	ltpFR2	9	n/a	n/a	n/a	8	n/a	n/a	n/a	n/a
930653	REC_START	n/a	LTP373	ltpFR2	9	5	n/a	n/a	n/a	n/a	0	0	0
939653	REC_WORD	wordpools/wasnorm_wordpool_576.txt	LTP373	ltpFR2	9	5	AIRPLANE	12	n/a	n/a	0	0	0
940670	REC_WORD	wordpools/wasnorm_wordpool_576.txt	LTP373	ltpFR2	9	5	STATUE	1374	n/a	n/a	0	0	0
941920	REC_WORD	wordpools/wasnorm_wordpool_576.txt	LTP373	ltpFR2	9	5	SCULPTURE	1258	n/a	n/a	0	0	0
943325	REC_WORD	wordpools/wasnorm_wordpool_576.txt	LTP373	ltpFR2	9	5	VALVE	1546	n/a	n/a	0	0	0
944796	REC_WORD	wordpools/wasnorm_wordpool_576.txt	LTP373	ltpFR2	9	5	CLIMBER	323	n/a	n/a	0	0	0
946127	REC_WORD	wordpools/wasnorm_wordpool_576.txt	LTP373	ltpFR2	9	5	LIGHTNING	820	n/a	n/a	0	0	0
959800	REC_WORD	wordpools/wasnorm_wordpool_576.txt	LTP373	ltpFR2	9	5	HELMET	702	n/a	n/a	0	0	0
962599	REC_WORD	wordpools/wasnorm_wordpool_576.txt	LTP373	ltpFR2	9	5	HUSBAND	728	n/a	n/a	0	0	0
965283	REC_WORD	wordpools/wasnorm_wordpool_576.txt	LTP373	ltpFR2	9	5	WOMAN	1620	n/a	n/a	0	0	0
969618	REC_WORD	wordpools/wasnorm_wordpool_576.txt	LTP373	ltpFR2	9	5	CHEST	295	n/a	n/a	0	0	0
971160	REC_WORD	wordpools/wasnorm_wordpool_576.txt	LTP373	ltpFR2	9	5	WASHER	1592	n/a	n/a	0	0	0
972644	REC_WORD	wordpools/wasnorm_wordpool_576.txt	LTP373	ltpFR2	9	5	SUSPECT	1415	n/a	n/a	0	0	0
974977	REC_WORD	wordpools/wasnorm_wordpool_576.txt	LTP373	ltpFR2	9	5	VALLEY	1545	n/a	n/a	0	0	0
978642	REC_WORD	wordpools/wasnorm_wordpool_576.txt	LTP373	ltpFR2	9	5	DOLPHIN	483	n/a	n/a	0	0	0
1021093	WORD	wordpools/wasnorm_wordpool_576.txt	LTP373	ltpFR2	9	6	PLAZA	1088	n/a	n/a	0	0	0
1023692	WORD	wordpools/wasnorm_wordpool_576.txt	LTP373	ltpFR2	9	6	PARROT	1015	n/a	n/a	0	0	0
1026125	WORD	wordpools/wasnorm_wordpool_576.txt	LTP373	ltpFR2	9	6	RADISH	1158	n/a	n/a	0	0	0
1028890	WORD	wordpools/wasnorm_wordpool_576.txt	LTP373	ltpFR2	9	6	PROTON	1132	n/a	n/a	0	0	0
1031705	WORD	wordpools/wasnorm_wordpool_576.txt	LTP373	ltpFR2	9	6	SUMMIT	1405	n/a	n/a	0	0	0
1034254	WORD	wordpools/wasnorm_wordpool_576.txt	LTP373	ltpFR2	9	6	VENUS	1557	n/a	n/a	0	0	0
1036886	WORD	wordpools/wasnorm_wordpool_576.txt	LTP373	ltpFR2	9	6	CANDY	230	n/a	n/a	0	0	0
1039652	WORD	wordpools/wasnorm_wordpool_576.txt	LTP373	ltpFR2	9	6	MONEY	908	n/a	n/a	0	0	0
1042450	WORD	wordpools/wasnorm_wordpool_576.txt	LTP373	ltpFR2	9	6	CANYON	235	n/a	n/a	0	0	0
1045032	WORD	wordpools/wasnorm_wordpool_576.txt	LTP373	ltpFR2	9	6	JUGGLER	763	n/a	n/a	0	0	0
1047465	WORD	wordpools/wasnorm_wordpool_576.txt	LTP373	ltpFR2	9	6	NIGHTGOWN	953	n/a	n/a	0	0	0
1050230	WORD	wordpools/wasnorm_wordpool_576.txt	LTP373	ltpFR2	9	6	GARDEN	623	n/a	n/a	0	0	0
1052662	WORD	wordpools/wasnorm_wordpool_576.txt	LTP373	ltpFR2	9	6	HIGHWAY	707	n/a	n/a	0	0	0
1055428	WORD	wordpools/wasnorm_wordpool_576.txt	LTP373	ltpFR2	9	6	PACKAGE	997	n/a	n/a	0	0	0
1058126	WORD	wordpools/wasnorm_wordpool_576.txt	LTP373	ltpFR2	9	6	OYSTER	995	n/a	n/a	0	0	0
1060609	WORD	wordpools/wasnorm_wordpool_576.txt	LTP373	ltpFR2	9	6	BEAST	108	n/a	n/a	0	0	0
1063391	WORD	wordpools/wasnorm_wordpool_576.txt	LTP373	ltpFR2	9	6	PEBBLE	1035	n/a	n/a	0	0	0
1066056	WORD	wordpools/wasnorm_wordpool_576.txt	LTP373	ltpFR2	9	6	CORAL	378	n/a	n/a	0	0	0
1068821	WORD	wordpools/wasnorm_wordpool_576.txt	LTP373	ltpFR2	9	6	CYCLONE	431	n/a	n/a	0	0	0
1071354	WORD	wordpools/wasnorm_wordpool_576.txt	LTP373	ltpFR2	9	6	TWISTER	1530	n/a	n/a	0	0	0
1073952	WORD	wordpools/wasnorm_wordpool_576.txt	LTP373	ltpFR2	9	6	STREAM	1392	n/a	n/a	0	0	0
1076584	WORD	wordpools/wasnorm_wordpool_576.txt	LTP373	ltpFR2	9	6	TART	1436	n/a	n/a	0	0	0
1079183	WORD	wordpools/wasnorm_wordpool_576.txt	LTP373	ltpFR2	9	6	STOMACH	1384	n/a	n/a	0	0	0
1081732	WORD	wordpools/wasnorm_wordpool_576.txt	LTP373	ltpFR2	9	6	DINER	467	n/a	n/a	0	0	0
1083348	START	n/a	LTP373	ltpFR2	9	n/a	n/a	n/a	9	n/a	n/a	n/a	n/a
1084418	DISTRACTOR	n/a	LTP373	ltpFR2	9	6	n/a	n/a	n/a	n/a	0	0	0
1084431	PROB	n/a	LTP373	ltpFR2	9	n/a	n/a	n/a	9	23	9	9	5
1086213	PROB	n/a	LTP373	ltpFR2	9	n/a	n/a	n/a	9	19	9	8	2
1087696	PROB	n/a	LTP373	ltpFR2	9	n/a	n/a	n/a	9	18	8	8	2
1088929	PROB	n/a	LTP373	ltpFR2	9	n/a	n/a	n/a	9	23	6	8	9
1090911	PROB	n/a	LTP373	ltpFR2	9	n/a	n/a	n/a	9	10	4	1	5
1092261	PROB	n/a	LTP373	ltpFR2	9	n/a	n/a	n/a	9	17	2	8	7
1093460	PROB	n/a	LTP373	ltpFR2	9	n/a	n/a	n/a	9	18	5	4	9
1095226	PROB	n/a	LTP373	ltpFR2	9	n/a	n/a	n/a	9	4	2	1	1
1096325	PROB	n/a	LTP373	ltpFR2	9	n/a	n/a	n/a	9	22	7	7	8
1098075	PROB	n/a	LTP373	ltpFR2	9	n/a	n/a	n/a	9	10	8	1	1
1099407	PROB	n/a	LTP373	ltpFR2	9	n/a	n/a	n/a	9	3	1	1	1
1100857	PROB	n/a	LTP373	ltpFR2	9	n/a	n/a	n/a	9	11	1	2	8
1102606	PROB	n/a	LTP373	ltpFR2	9	n/a	n/a	n/a	9	19	9	7	3
1104521	PROB	n/a	LTP373	ltpFR2	9	n/a	n/a	n/a	9	16	8	2	6
1105771	PROB	n/a	LTP373	ltpFR2	9	n/a	n/a	n/a	9	15	4	2	9
1107035	STOP	n/a	LTP373	ltpFR2	9	n/a	n/a	n/a	9	n/a	n/a	n/a	n/a
1109303	REC_START	n/a	LTP373	ltpFR2	9	6	n/a	n/a	n/a	n/a	0	0	0
1110183	REC_WORD	wordpools/wasnorm_wordpool_576.txt	LTP373	ltpFR2	9	6	PLAZA	1088	n/a	n/a	0	0	0
1111481	REC_WORD	wordpools/wasnorm_wordpool_576.txt	LTP373	ltpFR2	9	6	PARROT	1015	n/a	n/a	0	0	0
1112782	REC_WORD	wordpools/wasnorm_wordpool_576.txt	LTP373	ltpFR2	9	6	PROTON	1132	n/a	n/a	0	0	0
1114053	REC_WORD	wordpools/wasnorm_wordpool_576.txt	LTP373	ltpFR2	9	6	GARDEN	623	n/a	n/a	0	0	0
1115282	REC_WORD	wordpools/wasnorm_wordpool_576.txt	LTP373	ltpFR2	9	6	NIGHTGOWN	953	n/a	n/a	0	0	0
1116543	REC_WORD	wordpools/wasnorm_wordpool_576.txt	LTP373	ltpFR2	9	6	SUMMIT	1405	n/a	n/a	0	0	0
1117794	REC_WORD	wordpools/wasnorm_wordpool_576.txt	LTP373	ltpFR2	9	6	VENUS	1557	n/a	n/a	0	0	0
1120892	REC_WORD	wordpools/wasnorm_wordpool_576.txt	LTP373	ltpFR2	9	6	CANYON	235	n/a	n/a	0	0	0
1121980	REC_WORD	wordpools/wasnorm_wordpool_576.txt	LTP373	ltpFR2	9	6	CYCLONE	431	n/a	n/a	0	0	0
1123915	REC_WORD	wordpools/wasnorm_wordpool_576.txt	LTP373	ltpFR2	9	6	TWISTER	1530	n/a	n/a	0	0	0
1126006	REC_WORD	wordpools/wasnorm_wordpool_576.txt	LTP373	ltpFR2	9	6	PEBBLE	1035	n/a	n/a	0	0	0
1128517	REC_WORD	wordpools/wasnorm_wordpool_576.txt	LTP373	ltpFR2	9	6	MONEY	908	n/a	n/a	0	0	0
1199761	DISTRACTOR	n/a	LTP373	ltpFR2	9	7	n/a	n/a	n/a	n/a	0	0	0
1199761	START	n/a	LTP373	ltpFR2	9	n/a	n/a	n/a	10	n/a	n/a	n/a	n/a
1199778	PROB	n/a	LTP373	ltpFR2	9	n/a	n/a	n/a	10	18	8	5	5
1201343	PROB	n/a	LTP373	ltpFR2	9	n/a	n/a	n/a	10	10	7	1	2
1203159	PROB	n/a	LTP373	ltpFR2	9	n/a	n/a	n/a	10	11	7	3	1
1204325	PROB	n/a	LTP373	ltpFR2	9	n/a	n/a	n/a	10	9	4	4	1
1205458	PROB	n/a	LTP373	ltpFR2	9	n/a	n/a	n/a	10	11	6	2	3
1207191	PROB	n/a	LTP373	ltpFR2	9	n/a	n/a	n/a	10	13	8	1	4
1208623	PROB	n/a	LTP373	ltpFR2	9	n/a	n/a	n/a	10	10	3	2	5
1209889	PROB	n/a	LTP373	ltpFR2	9	n/a	n/a	n/a	10	20	9	7	4
1211855	PROB	n/a	LTP373	ltpFR2	9	n/a	n/a	n/a	10	9	1	5	3
1213254	PROB	n/a	LTP373	ltpFR2	9	n/a	n/a	n/a	10	13	9	2	2
1214504	PROB	n/a	LTP373	ltpFR2	9	n/a	n/a	n/a	10	13	8	1	4
1215887	PROB	n/a	LTP373	ltpFR2	9	n/a	n/a	n/a	10	16	8	6	2
1217669	PROB	n/a	LTP373	ltpFR2	9	n/a	n/a	n/a	10	25	8	9	8
1220534	PROB	n/a	LTP373	ltpFR2	9	n/a	n/a	n/a	10	13	9	3	1
1222375	STOP	n/a	LTP373	ltpFR2	9	n/a	n/a	n/a	10	n/a	n/a	n/a	n/a
1224783	WORD	wordpools/wasnorm_wordpool_576.txt	LTP373	ltpFR2	9	7	AUTHOR	61	n/a	n/a	0	0	0
1227565	WORD	wordpools/wasnorm_wordpool_576.txt	LTP373	ltpFR2	9	7	TWEEZERS	1526	n/a	n/a	0	0	0
1230396	WORD	wordpools/wasnorm_wordpool_576.txt	LTP373	ltpFR2	9	7	ICEBERG	731	n/a	n/a	0	0	0
1232995	WORD	wordpools/wasnorm_wordpool_576.txt	LTP373	ltpFR2	9	7	DENTIST	447	n/a	n/a	0	0	0
1235677	WORD	wordpools/wasnorm_wordpool_576.txt	LTP373	ltpFR2	9	7	BEAVER	109	n/a	n/a	0	0	0
1238293	WORD	wordpools/wasnorm_wordpool_576.txt	LTP373	ltpFR2	9	7	IGLOO	734	n/a	n/a	0	0	0
1240858	WORD	wordpools/wasnorm_wordpool_576.txt	LTP373	ltpFR2	9	7	STOVE	1388	n/a	n/a	0	0	0
1243640	WORD	wordpools/wasnorm_wordpool_576.txt	LTP373	ltpFR2	9	7	SCISSORS	1250	n/a	n/a	0	0	0
1246389	WORD	wordpools/wasnorm_wordpool_576.txt	LTP373	ltpFR2	9	7	GRAVE	658	n/a	n/a	0	0	0
1249054	WORD	wordpools/wasnorm_wordpool_576.txt	LTP373	ltpFR2	9	7	SCARECROW	1245	n/a	n/a	0	0	0
1251770	WORD	wordpools/wasnorm_wordpool_576.txt	LTP373	ltpFR2	9	7	PASSAGE	1019	n/a	n/a	0	0	0
1254319	WORD	wordpools/wasnorm_wordpool_576.txt	LTP373	ltpFR2	9	7	LOFT	840	n/a	n/a	0	0	0
1257051	WORD	wordpools/wasnorm_wordpool_576.txt	LTP373	ltpFR2	9	7	FOREST	593	n/a	n/a	0	0	0
1259566	WORD	wordpools/wasnorm_wordpool_576.txt	LTP373	ltpFR2	9	7	GUITAR	670	n/a	n/a	0	0	0
1262265	WORD	wordpools/wasnorm_wordpool_576.txt	LTP373	ltpFR2	9	7	PIANO	1057	n/a	n/a	0	0	0
1264931	WORD	wordpools/wasnorm_wordpool_576.txt	LTP373	ltpFR2	9	7	LILY	821	n/a	n/a	0	0	0
1267613	WORD	wordpools/wasnorm_wordpool_576.txt	LTP373	ltpFR2	9	7	OINTMENT	974	n/a	n/a	0	0	0
1270395	WORD	wordpools/wasnorm_wordpool_576.txt	LTP373	ltpFR2	9	7	VELVET	1555	n/a	n/a	0	0	0
1273060	WORD	wordpools/wasnorm_wordpool_576.txt	LTP373	ltpFR2	9	7	OMELET	976	n/a	n/a	0	0	0
1275526	WORD	wordpools/wasnorm_wordpool_576.txt	LTP373	ltpFR2	9	7	SCARF	1246	n/a	n/a	0	0	0
1278274	WORD	wordpools/wasnorm_wordpool_576.txt	LTP373	ltpFR2	9	7	FLOWER	584	n/a	n/a	0	0	0
1280940	WORD	wordpools/wasnorm_wordpool_576.txt	LTP373	ltpFR2	9	7	PARENT	1013	n/a	n/a	0	0	0
1283455	WORD	wordpools/wasnorm_wordpool_576.txt	LTP373	ltpFR2	9	7	RECORD	1176	n/a	n/a	0	0	0
1285937	WORD	wordpools/wasnorm_wordpool_576.txt	LTP373	ltpFR2	9	7	TROMBONE	1508	n/a	n/a	0	0	0
1287554	START	n/a	LTP373	ltpFR2	9	n/a	n/a	n/a	11	n/a	n/a	n/a	n/a
1288381	DISTRACTOR	n/a	LTP373	ltpFR2	9	7	n/a	n/a	n/a	n/a	0	0	0
1288386	PROB	n/a	LTP373	ltpFR2	9	n/a	n/a	n/a	11	20	8	6	6
1290052	PROB	n/a	LTP373	ltpFR2	9	n/a	n/a	n/a	11	14	5	5	4
1291218	PROB	n/a	LTP373	ltpFR2	9	n/a	n/a	n/a	11	16	3	7	6
1292434	PROB	n/a	LTP373	ltpFR2	9	n/a	n/a	n/a	11	17	2	6	9
1294000	PROB	n/a	LTP373	ltpFR2	9	n/a	n/a	n/a	11	11	7	3	1
1295166	PROB	n/a	LTP373	ltpFR2	9	n/a	n/a	n/a	11	13	4	2	7
1297115	PROB	n/a	LTP373	ltpFR2	9	n/a	n/a	n/a	11	13	7	5	1
1298582	PROB	n/a	LTP373	ltpFR2	9	n/a	n/a	n/a	11	19	9	1	9
1299681	PROB	n/a	LTP373	ltpFR2	9	n/a	n/a	n/a	11	16	2	6	8
1300914	PROB	n/a	LTP373	ltpFR2	9	n/a	n/a	n/a	11	11	1	2	8
1302163	PROB	n/a	LTP373	ltpFR2	9	n/a	n/a	n/a	11	12	5	4	3
1303612	PROB	n/a	LTP373	ltpFR2	9	n/a	n/a	n/a	11	17	5	5	7
1304679	PROB	n/a	LTP373	ltpFR2	9	n/a	n/a	n/a	11	19	3	9	7
1306045	PROB	n/a	LTP373	ltpFR2	9	n/a	n/a	n/a	11	11	5	4	2
1309010	PROB	n/a	LTP373	ltpFR2	9	n/a	n/a	n/a	11	13	4	1	8
1310122	STOP	n/a	LTP373	ltpFR2	9	n/a	n/a	n/a	11	n/a	n/a	n/a	n/a
1313359	REC_START	n/a	LTP373	ltpFR2	9	7	n/a	n/a	n/a	n/a	0	0	0
1314606	REC_WORD	wordpools/wasnorm_wordpool_576.txt	LTP373	ltpFR2	9	7	AUTHOR	61	n/a	n/a	0	0	0
1316745	REC_WORD	wordpools/wasnorm_wordpool_576.txt	LTP373	ltpFR2	9	7	GUITAR	670	n/a	n/a	0	0	0
1318915	REC_WORD	wordpools/wasnorm_wordpool_576.txt	LTP373	ltpFR2	9	7	TROMBONE	1508	n/a	n/a	0	0	0
1320849	REC_WORD	wordpools/wasnorm_wordpool_576.txt	LTP373	ltpFR2	9	7	PIANO	1057	n/a	n/a	0	0	0
1322033	REC_WORD	wordpools/wasnorm_wordpool_576.txt	LTP373	ltpFR2	9	7	PARENT	1013	n/a	n/a	0	0	0
1323330	REC_WORD	wordpools/wasnorm_wordpool_576.txt	LTP373	ltpFR2	9	7	DENTIST	447	n/a	n/a	0	0	0
1324383	REC_WORD	wordpools/wasnorm_wordpool_576.txt	LTP373	ltpFR2	9	7	TWEEZERS	1526	n/a	n/a	0	0	0
1325517	REC_WORD	wordpools/wasnorm_wordpool_576.txt	LTP373	ltpFR2	9	7	SCISSORS	1250	n/a	n/a	0	0	0
1326880	REC_WORD	wordpools/wasnorm_wordpool_576.txt	LTP373	ltpFR2	9	7	BEAVER	109	n/a	n/a	0	0	0
1328050	REC_WORD	wordpools/wasnorm_wordpool_576.txt	LTP373	ltpFR2	9	7	ICEBERG	731	n/a	n/a	0	0	0
1329196	REC_WORD	wordpools/wasnorm_wordpool_576.txt	LTP373	ltpFR2	9	7	IGLOO	734	n/a	n/a	0	0	0
1330216	REC_WORD	wordpools/wasnorm_wordpool_576.txt	LTP373	ltpFR2	9	7	STOVE	1388	n/a	n/a	0	0	0
1331712	REC_WORD	wordpools/wasnorm_wordpool_576.txt	LTP373	ltpFR2	9	7	VELVET	1555	n/a	n/a	0	0	0
1333013	REC_WORD	wordpools/wasnorm_wordpool_576.txt	LTP373	ltpFR2	9	7	OMELET	976	n/a	n/a	0	0	0
1349304	REC_WORD	wordpools/wasnorm_wordpool_576.txt	LTP373	ltpFR2	9	7	OINTMENT	974	n/a	n/a	0	0	0
1364737	REC_WORD	wordpools/wasnorm_wordpool_576.txt	LTP373	ltpFR2	9	7	SCARF	1246	n/a	n/a	0	0	0
1373654	REC_WORD	wordpools/wasnorm_wordpool_576.txt	LTP373	ltpFR2	9	7	FOREST	593	n/a	n/a	0	0	0
1375762	REC_WORD	wordpools/wasnorm_wordpool_576.txt	LTP373	ltpFR2	9	7	LILY	821	n/a	n/a	0	0	0
1383241	REC_WORD	wordpools/wasnorm_wordpool_576.txt	LTP373	ltpFR2	9	7	GARDEN	623	n/a	n/a	0	0	0
1403799	DISTRACTOR	n/a	LTP373	ltpFR2	9	8	n/a	n/a	n/a	n/a	0	0	0
1403800	START	n/a	LTP373	ltpFR2	9	n/a	n/a	n/a	12	n/a	n/a	n/a	n/a
1403816	PROB	n/a	LTP373	ltpFR2	9	n/a	n/a	n/a	12	12	1	6	5
1405982	PROB	n/a	LTP373	ltpFR2	9	n/a	n/a	n/a	12	14	4	3	7
1407248	PROB	n/a	LTP373	ltpFR2	9	n/a	n/a	n/a	12	19	9	1	9
1408381	PROB	n/a	LTP373	ltpFR2	9	n/a	n/a	n/a	12	10	4	1	5
1409647	PROB	n/a	LTP373	ltpFR2	9	n/a	n/a	n/a	12	11	8	2	1
1410630	PROB	n/a	LTP373	ltpFR2	9	n/a	n/a	n/a	12	13	1	8	4
1412062	PROB	n/a	LTP373	ltpFR2	9	n/a	n/a	n/a	12	13	6	6	1
1413095	PROB	n/a	LTP373	ltpFR2	9	n/a	n/a	n/a	12	20	6	9	5
1416677	PROB	n/a	LTP373	ltpFR2	9	n/a	n/a	n/a	12	18	8	2	8
1417826	PROB	n/a	LTP373	ltpFR2	9	n/a	n/a	n/a	12	16	8	1	7
1419375	PROB	n/a	LTP373	ltpFR2	9	n/a	n/a	n/a	12	13	4	6	3
1420475	PROB	n/a	LTP373	ltpFR2	9	n/a	n/a	n/a	12	10	1	7	2
1422741	PROB	n/a	LTP373	ltpFR2	9	n/a	n/a	n/a	12	16	2	8	6
1423973	PROB	n/a	LTP373	ltpFR2	9	n/a	n/a	n/a	12	21	9	8	4
1425473	PROB	n/a	LTP373	ltpFR2	9	n/a	n/a	n/a	12	10	1	6	2
1426750	STOP	n/a	LTP373	ltpFR2	9	n/a	n/a	n/a	12	n/a	n/a	n/a	n/a
1428971	WORD	wordpools/wasnorm_wordpool_576.txt	LTP373	ltpFR2	9	8	CHAMPAGNE	278	n/a	n/a	0	0	0
1431653	WORD	wordpools/wasnorm_wordpool_576.txt	LTP373	ltpFR2	9	8	COCOON	339	n/a	n/a	0	0	0
1434085	WORD	wordpools/wasnorm_wordpool_576.txt	LTP373	ltpFR2	9	8	HUMAN	726	n/a	n/a	0	0	0
1436751	WORD	wordpools/wasnorm_wordpool_576.txt	LTP373	ltpFR2	9	8	GRAPE	654	n/a	n/a	0	0	0
1439366	WORD	wordpools/wasnorm_wordpool_576.txt	LTP373	ltpFR2	9	8	GROUND	666	n/a	n/a	0	0	0
1442082	WORD	wordpools/wasnorm_wordpool_576.txt	LTP373	ltpFR2	9	8	PUDDLE	1140	n/a	n/a	0	0	0
1444798	WORD	wordpools/wasnorm_wordpool_576.txt	LTP373	ltpFR2	9	8	FRAGRANCE	599	n/a	n/a	0	0	0
1447462	WORD	wordpools/wasnorm_wordpool_576.txt	LTP373	ltpFR2	9	8	TRENCH	1503	n/a	n/a	0	0	0
1450028	WORD	wordpools/wasnorm_wordpool_576.txt	LTP373	ltpFR2	9	8	PORK	1108	n/a	n/a	0	0	0
1452693	WORD	wordpools/wasnorm_wordpool_576.txt	LTP373	ltpFR2	9	8	FEMALE	559	n/a	n/a	0	0	0
1455226	WORD	wordpools/wasnorm_wordpool_576.txt	LTP373	ltpFR2	9	8	DENIM	446	n/a	n/a	0	0	0
1457924	WORD	wordpools/wasnorm_wordpool_576.txt	LTP373	ltpFR2	9	8	SHRUB	1299	n/a	n/a	0	0	0
1460623	WORD	wordpools/wasnorm_wordpool_576.txt	LTP373	ltpFR2	9	8	MISTER	901	n/a	n/a	0	0	0
1463322	WORD	wordpools/wasnorm_wordpool_576.txt	LTP373	ltpFR2	9	8	CRITIC	410	n/a	n/a	0	0	0
1465971	WORD	wordpools/wasnorm_wordpool_576.txt	LTP373	ltpFR2	9	8	LEG	809	n/a	n/a	0	0	0
1468419	WORD	wordpools/wasnorm_wordpool_576.txt	LTP373	ltpFR2	9	8	WRIST	1626	n/a	n/a	0	0	0
1471152	WORD	wordpools/wasnorm_wordpool_576.txt	LTP373	ltpFR2	9	8	CRIB	407	n/a	n/a	0	0	0
1473834	WORD	wordpools/wasnorm_wordpool_576.txt	LTP373	ltpFR2	9	8	COUSIN	392	n/a	n/a	0	0	0
1476316	WORD	wordpools/wasnorm_wordpool_576.txt	LTP373	ltpFR2	9	8	UNCLE	1536	n/a	n/a	0	0	0
1479064	WORD	wordpools/wasnorm_wordpool_576.txt	LTP373	ltpFR2	9	8	FRAME	600	n/a	n/a	0	0	0
1481781	WORD	wordpools/wasnorm_wordpool_576.txt	LTP373	ltpFR2	9	8	SHORTCAKE	1292	n/a	n/a	0	0	0
1484495	WORD	wordpools/wasnorm_wordpool_576.txt	LTP373	ltpFR2	9	8	PERFUME	1049	n/a	n/a	0	0	0
1486994	WORD	wordpools/wasnorm_wordpool_576.txt	LTP373	ltpFR2	9	8	LAGOON	795	n/a	n/a	0	0	0
1489726	WORD	wordpools/wasnorm_wordpool_576.txt	LTP373	ltpFR2	9	8	ATLAS	53	n/a	n/a	0	0	0
1491342	START	n/a	LTP373	ltpFR2	9	n/a	n/a	n/a	13	n/a	n/a	n/a	n/a
1492392	DISTRACTOR	n/a	LTP373	ltpFR2	9	8	n/a	n/a	n/a	n/a	0	0	0
1492408	PROB	n/a	LTP373	ltpFR2	9	n/a	n/a	n/a	13	7	4	1	2
1494191	PROB	n/a	LTP373	ltpFR2	9	n/a	n/a	n/a	13	8	3	2	3
1497756	PROB	n/a	LTP373	ltpFR2	9	n/a	n/a	n/a	13	20	8	5	7
1500555	PROB	n/a	LTP373	ltpFR2	9	n/a	n/a	n/a	13	7	4	2	1
1502104	PROB	n/a	LTP373	ltpFR2	9	n/a	n/a	n/a	13	20	4	7	9
1505919	PROB	n/a	LTP373	ltpFR2	9	n/a	n/a	n/a	13	10	1	2	7
1507368	PROB	n/a	LTP373	ltpFR2	9	n/a	n/a	n/a	13	19	9	9	1
1508551	PROB	n/a	LTP373	ltpFR2	9	n/a	n/a	n/a	13	16	6	2	8
1509767	PROB	n/a	LTP373	ltpFR2	9	n/a	n/a	n/a	13	15	3	4	8
1511016	PROB	n/a	LTP373	ltpFR2	9	n/a	n/a	n/a	13	21	8	8	5
1512232	PROB	n/a	LTP373	ltpFR2	9	n/a	n/a	n/a	13	13	4	6	3
1515233	STOP	n/a	LTP373	ltpFR2	9	n/a	n/a	n/a	13	n/a	n/a	n/a	n/a
1517114	REC_START	n/a	LTP373	ltpFR2	9	8	n/a	n/a	n/a	n/a	0	0	0
1520259	REC_WORD	wordpools/wasnorm_wordpool_576.txt	LTP373	ltpFR2	9	8	CHAMPAGNE	278	n/a	n/a	0	0	0
1521994	REC_WORD	wordpools/wasnorm_wordpool_576.txt	LTP373	ltpFR2	9	8	GRAPE	654	n/a	n/a	0	0	0
1523108	REC_WORD	wordpools/wasnorm_wordpool_576.txt	LTP373	ltpFR2	9	8	FRAGRANCE	599	n/a	n/a	0	0	0
1524426	REC_WORD	wordpools/wasnorm_wordpool_576.txt	LTP373	ltpFR2	9	8	PERFUME	1049	n/a	n/a	0	0	0
1526252	REC_WORD	wordpools/wasnorm_wordpool_576.txt	LTP373	ltpFR2	9	8	TRENCH	1503	n/a	n/a	0	0	0
1527777	REC_WORD	wordpools/wasnorm_wordpool_576.txt	LTP373	ltpFR2	9	8	PUDDLE	1140	n/a	n/a	0	0	0
1531781	REC_WORD	wordpools/wasnorm_wordpool_576.txt	LTP373	ltpFR2	9	8	HUMAN	726	n/a	n/a	0	0	0
1533065	REC_WORD	wordpools/wasnorm_wordpool_576.txt	LTP373	ltpFR2	9	8	COCOON	339	n/a	n/a	0	0	0
1534455	REC_WORD	wordpools/wasnorm_wordpool_576.txt	LTP373	ltpFR2	9	8	LAGOON	795	n/a	n/a	0	0	0
1535995	REC_WORD	wordpools/wasnorm_wordpool_576.txt	LTP373	ltpFR2	9	8	WIFE	1609	n/a	n/a	0	0	0
1537733	REC_WORD	wordpools/wasnorm_wordpool_576.txt	LTP373	ltpFR2	9	8	WOMAN	1620	n/a	n/a	0	0	0
1539056	REC_WORD	wordpools/wasnorm_wordpool_576.txt	LTP373	ltpFR2	9	8	MISTER	901	n/a	n/a	0	0	0
1540473	REC_WORD	wordpools/wasnorm_wordpool_576.txt	LTP373	ltpFR2	9	8	UNCLE	1536	n/a	n/a	0	0	0
1541743	REC_WORD	wordpools/wasnorm_wordpool_576.txt	LTP373	ltpFR2	9	8	COUSIN	392	n/a	n/a	0	0	0
1555954	REC_WORD	wordpools/wasnorm_wordpool_576.txt	LTP373	ltpFR2	9	8	DENIM	446	n/a	n/a	0	0	0
1570772	REC_WORD	wordpools/wasnorm_wordpool_576.txt	LTP373	ltpFR2	9	8	CRITIC	410	n/a	n/a	0	0	0
1593645	REST_REWET	n/a	LTP373	ltpFR2	9	8	n/a	n/a	n/a	n/a	0	0	0
1688018	WORD	wordpools/wasnorm_wordpool_576.txt	LTP373	ltpFR2	9	9	MESSAGE	888	n/a	n/a	0	0	0
1690700	WORD	wordpools/wasnorm_wordpool_576.txt	LTP373	ltpFR2	9	9	UMPIRE	1535	n/a	n/a	0	0	0
1693299	WORD	wordpools/wasnorm_wordpool_576.txt	LTP373	ltpFR2	9	9	STAPLE	1371	n/a	n/a	0	0	0
1695914	WORD	wordpools/wasnorm_wordpool_576.txt	LTP373	ltpFR2	9	9	WINDOW	1611	n/a	n/a	0	0	0
1698579	WORD	wordpools/wasnorm_wordpool_576.txt	LTP373	ltpFR2	9	9	MARS	873	n/a	n/a	0	0	0
1701078	WORD	wordpools/wasnorm_wordpool_576.txt	LTP373	ltpFR2	9	9	SWORD	1423	n/a	n/a	0	0	0
1703660	WORD	wordpools/wasnorm_wordpool_576.txt	LTP373	ltpFR2	9	9	BUTCHER	203	n/a	n/a	0	0	0
1706176	WORD	wordpools/wasnorm_wordpool_576.txt	LTP373	ltpFR2	9	9	WRENCH	1625	n/a	n/a	0	0	0
1708891	WORD	wordpools/wasnorm_wordpool_576.txt	LTP373	ltpFR2	9	9	PLIERS	1089	n/a	n/a	0	0	0
1711573	WORD	wordpools/wasnorm_wordpool_576.txt	LTP373	ltpFR2	9	9	WIDOW	1608	n/a	n/a	0	0	0
1714305	WORD	wordpools/wasnorm_wordpool_576.txt	LTP373	ltpFR2	9	9	GYMNAST	675	n/a	n/a	0	0	0
1717104	WORD	wordpools/wasnorm_wordpool_576.txt	LTP373	ltpFR2	9	9	HEDGE	699	n/a	n/a	0	0	0
1719720	WORD	wordpools/wasnorm_wordpool_576.txt	LTP373	ltpFR2	9	9	SPARROW	1347	n/a	n/a	0	0	0
1722385	WORD	wordpools/wasnorm_wordpool_576.txt	LTP373	ltpFR2	9	9	FOOTBALL	591	n/a	n/a	0	0	0
1724884	WORD	wordpools/wasnorm_wordpool_576.txt	LTP373	ltpFR2	9	9	PAPER	1011	n/a	n/a	0	0	0
1727416	WORD	wordpools/wasnorm_wordpool_576.txt	LTP373	ltpFR2	9	9	CHILD	299	n/a	n/a	0	0	0
1730082	WORD	wordpools/wasnorm_wordpool_576.txt	LTP373	ltpFR2	9	9	PISTON	1076	n/a	n/a	0	0	0
1732630	WORD	wordpools/wasnorm_wordpool_576.txt	LTP373	ltpFR2	9	9	SCOTCH	1251	n/a	n/a	0	0	0
1735179	WORD	wordpools/wasnorm_wordpool_576.txt	LTP373	ltpFR2	9	9	FUNGUS	614	n/a	n/a	0	0	0
1737761	WORD	wordpools/wasnorm_wordpool_576.txt	LTP373	ltpFR2	9	9	PARSLEY	1016	n/a	n/a	0	0	0
1740277	WORD	wordpools/wasnorm_wordpool_576.txt	LTP373	ltpFR2	9	9	SURVEY	1414	n/a	n/a	0	0	0
1742992	WORD	wordpools/wasnorm_wordpool_576.txt	LTP373	ltpFR2	9	9	WAITRESS	1581	n/a	n/a	0	0	0
1745724	WORD	wordpools/wasnorm_wordpool_576.txt	LTP373	ltpFR2	9	9	TOMBSTONE	1478	n/a	n/a	0	0	0
1748540	WORD	wordpools/wasnorm_wordpool_576.txt	LTP373	ltpFR2	9	9	PILOT	1070	n/a	n/a	0	0	0
1750156	START	n/a	LTP373	ltpFR2	9	n/a	n/a	n/a	14	n/a	n/a	n/a	n/a
1751076	DISTRACTOR	n/a	LTP373	ltpFR2	9	9	n/a	n/a	n/a	n/a	0	0	0
1751088	PROB	n/a	LTP373	ltpFR2	9	n/a	n/a	n/a	14	16	5	2	9
1752871	PROB	n/a	LTP373	ltpFR2	9	n/a	n/a	n/a	14	18	5	8	5
1754320	PROB	n/a	LTP373	ltpFR2	9	n/a	n/a	n/a	14	8	2	1	5
1755486	PROB	n/a	LTP373	ltpFR2	9	n/a	n/a	n/a	14	14	3	3	8
1756969	PROB	n/a	LTP373	ltpFR2	9	n/a	n/a	n/a	14	22	9	8	7
1763849	PROB	n/a	LTP373	ltpFR2	9	n/a	n/a	n/a	14	6	2	3	1
1765265	PROB	n/a	LTP373	ltpFR2	9	n/a	n/a	n/a	14	15	2	9	4
1767364	PROB	n/a	LTP373	ltpFR2	9	n/a	n/a	n/a	14	18	9	8	3
1768997	PROB	n/a	LTP373	ltpFR2	9	n/a	n/a	n/a	14	18	3	8	7
1770679	PROB	n/a	LTP373	ltpFR2	9	n/a	n/a	n/a	14	17	6	5	6
1774041	STOP	n/a	LTP373	ltpFR2	9	n/a	n/a	n/a	14	n/a	n/a	n/a	n/a
1775944	REC_START	n/a	LTP373	ltpFR2	9	9	n/a	n/a	n/a	n/a	0	0	0
1776858	REC_WORD	wordpools/wasnorm_wordpool_576.txt	LTP373	ltpFR2	9	9	PAPER	1011	n/a	n/a	0	0	0
1777962	REC_WORD	wordpools/wasnorm_wordpool_576.txt	LTP373	ltpFR2	9	9	MESSAGE	888	n/a	n/a	0	0	0
1779119	REC_WORD	wordpools/wasnorm_wordpool_576.txt	LTP373	ltpFR2	9	9	FOOTBALL	591	n/a	n/a	0	0	0
1780540	REC_WORD	wordpools/wasnorm_wordpool_576.txt	LTP373	ltpFR2	9	9	UMPIRE	1535	n/a	n/a	0	0	0
1781662	REC_WORD	wordpools/wasnorm_wordpool_576.txt	LTP373	ltpFR2	9	9	SURVEY	1414	n/a	n/a	0	0	0
1786869	REC_WORD	wordpools/wasnorm_wordpool_576.txt	LTP373	ltpFR2	9	9	STAPLE	1371	n/a	n/a	0	0	0
1793826	REC_WORD	wordpools/wasnorm_wordpool_576.txt	LTP373	ltpFR2	9	9	BUTCHER	203	n/a	n/a	0	0	0
1794802	REC_WORD	wordpools/wasnorm_wordpool_576.txt	LTP373	ltpFR2	9	9	PLIERS	1089	n/a	n/a	0	0	0
1795915	REC_WORD	wordpools/wasnorm_wordpool_576.txt	LTP373	ltpFR2	9	9	SWORD	1423	n/a	n/a	0	0	0
1800458	REC_WORD	wordpools/wasnorm_wordpool_576.txt	LTP373	ltpFR2	9	9	WRENCH	1625	n/a	n/a	0	0	0
1801770	REC_WORD	wordpools/wasnorm_wordpool_576.txt	LTP373	ltpFR2	9	9	WAITRESS	1581	n/a	n/a	0	0	0
1803093	REC_WORD	wordpools/wasnorm_wordpool_576.txt	LTP373	ltpFR2	9	9	PILOT	1070	n/a	n/a	0	0	0
1808891	REC_WORD	wordpools/wasnorm_wordpool_576.txt	LTP373	ltpFR2	9	9	WINDOW	1611	n/a	n/a	0	0	0
1809927	REC_WORD	wordpools/wasnorm_wordpool_576.txt	LTP373	ltpFR2	9	9	WIDOW	1608	n/a	n/a	0	0	0
1811131	REC_WORD	wordpools/wasnorm_wordpool_576.txt	LTP373	ltpFR2	9	9	MARS	873	n/a	n/a	0	0	0
1829479	REC_WORD	wordpools/wasnorm_wordpool_576.txt	LTP373	ltpFR2	9	9	PARSLEY	1016	n/a	n/a	0	0	0
1836384	REC_WORD	wordpools/wasnorm_wordpool_576.txt	LTP373	ltpFR2	9	9	FUNGUS	614	n/a	n/a	0	0	0
1866402	WORD	wordpools/wasnorm_wordpool_576.txt	LTP373	ltpFR2	9	10	TEACHER	1440	n/a	n/a	0	0	0
1868851	WORD	wordpools/wasnorm_wordpool_576.txt	LTP373	ltpFR2	9	10	EXPERT	543	n/a	n/a	0	0	0
1871316	WORD	wordpools/wasnorm_wordpool_576.txt	LTP373	ltpFR2	9	10	MAILBOX	857	n/a	n/a	0	0	0
1873965	WORD	wordpools/wasnorm_wordpool_576.txt	LTP373	ltpFR2	9	10	TOASTER	1472	n/a	n/a	0	0	0
1876480	WORD	wordpools/wasnorm_wordpool_576.txt	LTP373	ltpFR2	9	10	THRONE	1461	n/a	n/a	0	0	0
1879146	WORD	wordpools/wasnorm_wordpool_576.txt	LTP373	ltpFR2	9	10	COIN	343	n/a	n/a	0	0	0
1881795	WORD	wordpools/wasnorm_wordpool_576.txt	LTP373	ltpFR2	9	10	JURY	766	n/a	n/a	0	0	0
1884277	WORD	wordpools/wasnorm_wordpool_576.txt	LTP373	ltpFR2	9	10	BUBBLE	183	n/a	n/a	0	0	0
1887092	WORD	wordpools/wasnorm_wordpool_576.txt	LTP373	ltpFR2	9	10	GRIZZLY	662	n/a	n/a	0	0	0
1889724	WORD	wordpools/wasnorm_wordpool_576.txt	LTP373	ltpFR2	9	10	MATCH	878	n/a	n/a	0	0	0
1892523	WORD	wordpools/wasnorm_wordpool_576.txt	LTP373	ltpFR2	9	10	PRINCE	1124	n/a	n/a	0	0	0
1895255	WORD	wordpools/wasnorm_wordpool_576.txt	LTP373	ltpFR2	9	10	PREACHER	1119	n/a	n/a	0	0	0
1898020	WORD	wordpools/wasnorm_wordpool_576.txt	LTP373	ltpFR2	9	10	CHAPEL	280	n/a	n/a	0	0	0
1900752	WORD	wordpools/wasnorm_wordpool_576.txt	LTP373	ltpFR2	9	10	MARROW	872	n/a	n/a	0	0	0
1903501	WORD	wordpools/wasnorm_wordpool_576.txt	LTP373	ltpFR2	9	10	BANK	83	n/a	n/a	0	0	0
1906050	WORD	wordpools/wasnorm_wordpool_576.txt	LTP373	ltpFR2	9	10	COD	340	n/a	n/a	0	0	0
1908649	WORD	wordpools/wasnorm_wordpool_576.txt	LTP373	ltpFR2	9	10	PRINCESS	1125	n/a	n/a	0	0	0
1911164	WORD	wordpools/wasnorm_wordpool_576.txt	LTP373	ltpFR2	9	10	BIKE	125	n/a	n/a	0	0	0
1913913	WORD	wordpools/wasnorm_wordpool_576.txt	LTP373	ltpFR2	9	10	DONOR	485	n/a	n/a	0	0	0
1916628	WORD	wordpools/wasnorm_wordpool_576.txt	LTP373	ltpFR2	9	10	BOX	159	n/a	n/a	0	0	0
1919210	WORD	wordpools/wasnorm_wordpool_576.txt	LTP373	ltpFR2	9	10	CHURCH	307	n/a	n/a	0	0	0
1921959	WORD	wordpools/wasnorm_wordpool_576.txt	LTP373	ltpFR2	9	10	CRAYON	401	n/a	n/a	0	0	0
1924774	WORD	wordpools/wasnorm_wordpool_576.txt	LTP373	ltpFR2	9	10	FIREMAN	569	n/a	n/a	0	0	0
1927390	WORD	wordpools/wasnorm_wordpool_576.txt	LTP373	ltpFR2	9	10	DRILL	497	n/a	n/a	0	0	0
1929006	START	n/a	LTP373	ltpFR2	9	n/a	n/a	n/a	15	n/a	n/a	n/a	n/a
1930139	DISTRACTOR	n/a	LTP373	ltpFR2	9	10	n/a	n/a	n/a	n/a	0	0	0
1930155	PROB	n/a	LTP373	ltpFR2	9	n/a	n/a	n/a	15	15	2	7	6
1933754	PROB	n/a	LTP373	ltpFR2	9	n/a	n/a	n/a	15	18	6	7	5
1935336	PROB	n/a	LTP373	ltpFR2	9	n/a	n/a	n/a	15	19	9	9	1
1937219	PROB	n/a	LTP373	ltpFR2	9	n/a	n/a	n/a	15	10	3	5	2
1939201	PROB	n/a	LTP373	ltpFR2	9	n/a	n/a	n/a	15	10	2	6	2
1940517	PROB	n/a	LTP373	ltpFR2	9	n/a	n/a	n/a	15	3	1	1	1
1941467	PROB	n/a	LTP373	ltpFR2	9	n/a	n/a	n/a	15	13	1	8	3
1943349	PROB	n/a	LTP373	ltpFR2	9	n/a	n/a	n/a	15	15	4	9	2
1946581	PROB	n/a	LTP373	ltpFR2	9	n/a	n/a	n/a	15	12	1	5	6
1948247	PROB	n/a	LTP373	ltpFR2	9	n/a	n/a	n/a	15	13	5	7	1
1953006	STOP	n/a	LTP373	ltpFR2	9	n/a	n/a	n/a	15	n/a	n/a	n/a	n/a
1954795	REC_START	n/a	LTP373	ltpFR2	9	10	n/a	n/a	n/a	n/a	0	0	0
1959045	REC_WORD	wordpools/wasnorm_wordpool_576.txt	LTP373	ltpFR2	9	10	TEACHER	1440	n/a	n/a	0	0	0
1960301	REC_WORD	wordpools/wasnorm_wordpool_576.txt	LTP373	ltpFR2	9	10	EXPERT	543	n/a	n/a	0	0	0
1961428	REC_WORD	wordpools/wasnorm_wordpool_576.txt	LTP373	ltpFR2	9	10	PREACHER	1119	n/a	n/a	0	0	0
1962719	REC_WORD	wordpools/wasnorm_wordpool_576.txt	LTP373	ltpFR2	9	10	CHAPEL	280	n/a	n/a	0	0	0
1965930	REC_WORD	wordpools/wasnorm_wordpool_576.txt	LTP373	ltpFR2	9	10	TEMPLE	1448	n/a	n/a	0	0	0
1967353	REC_WORD	wordpools/wasnorm_wordpool_576.txt	LTP373	ltpFR2	9	10	GRIZZLY	662	n/a	n/a	0	0	0
1985942	REC_WORD	wordpools/wasnorm_wordpool_576.txt	LTP373	ltpFR2	9	10	BANK	83	n/a	n/a	0	0	0
1987058	REC_WORD	wordpools/wasnorm_wordpool_576.txt	LTP373	ltpFR2	9	10	COIN	343	n/a	n/a	0	0	0
1988697	REC_WORD	wordpools/wasnorm_wordpool_576.txt	LTP373	ltpFR2	9	10	TOASTER	1472	n/a	n/a	0	0	0
1990898	REC_WORD	wordpools/wasnorm_wordpool_576.txt	LTP373	ltpFR2	9	10	MAILBOX	857	n/a	n/a	0	0	0
1992653	REC_WORD	wordpools/wasnorm_wordpool_576.txt	LTP373	ltpFR2	9	10	BOX	159	n/a	n/a	0	0	0
2002912	REC_WORD	wordpools/wasnorm_wordpool_576.txt	LTP373	ltpFR2	9	10	COD	340	n/a	n/a	0	0	0
2016979	REC_WORD	wordpools/wasnorm_wordpool_576.txt	LTP373	ltpFR2	9	10	PRINCE	1124	n/a	n/a	0	0	0
2018154	REC_WORD	wordpools/wasnorm_wordpool_576.txt	LTP373	ltpFR2	9	10	PRINCESS	1125	n/a	n/a	0	0	0
2021145	REC_WORD	wordpools/wasnorm_wordpool_576.txt	LTP373	ltpFR2	9	10	THRONE	1461	n/a	n/a	0	0	0
2045252	WORD	wordpools/wasnorm_wordpool_576.txt	LTP373	ltpFR2	9	11	CRATER	400	n/a	n/a	0	0	0
2047867	WORD	wordpools/wasnorm_wordpool_576.txt	LTP373	ltpFR2	9	11	SHERIFF	1284	n/a	n/a	0	0	0
2050666	WORD	wordpools/wasnorm_wordpool_576.txt	LTP373	ltpFR2	9	11	PEDAL	1037	n/a	n/a	0	0	0
2053298	WORD	wordpools/wasnorm_wordpool_576.txt	LTP373	ltpFR2	9	11	PISTOL	1075	n/a	n/a	0	0	0
2056064	WORD	wordpools/wasnorm_wordpool_576.txt	LTP373	ltpFR2	9	11	CUPBOARD	425	n/a	n/a	0	0	0
2058646	WORD	wordpools/wasnorm_wordpool_576.txt	LTP373	ltpFR2	9	11	LONDON	843	n/a	n/a	0	0	0
2061395	WORD	wordpools/wasnorm_wordpool_576.txt	LTP373	ltpFR2	9	11	KNIFE	785	n/a	n/a	0	0	0
2063910	WORD	wordpools/wasnorm_wordpool_576.txt	LTP373	ltpFR2	9	11	CHAUFFEUR	283	n/a	n/a	0	0	0
2066376	WORD	wordpools/wasnorm_wordpool_576.txt	LTP373	ltpFR2	9	11	WAGON	1578	n/a	n/a	0	0	0
2069091	WORD	wordpools/wasnorm_wordpool_576.txt	LTP373	ltpFR2	9	11	RABBIT	1152	n/a	n/a	0	0	0
2071890	WORD	wordpools/wasnorm_wordpool_576.txt	LTP373	ltpFR2	9	11	ARMY	39	n/a	n/a	0	0	0
2074488	WORD	wordpools/wasnorm_wordpool_576.txt	LTP373	ltpFR2	9	11	GIFT	635	n/a	n/a	0	0	0
2077287	WORD	wordpools/wasnorm_wordpool_576.txt	LTP373	ltpFR2	9	11	COOKBOOK	373	n/a	n/a	0	0	0
2079853	WORD	wordpools/wasnorm_wordpool_576.txt	LTP373	ltpFR2	9	11	CATTLE	261	n/a	n/a	0	0	0
2082518	WORD	wordpools/wasnorm_wordpool_576.txt	LTP373	ltpFR2	9	11	MEAT	883	n/a	n/a	0	0	0
2085300	WORD	wordpools/wasnorm_wordpool_576.txt	LTP373	ltpFR2	9	11	HARP	689	n/a	n/a	0	0	0
2087783	WORD	wordpools/wasnorm_wordpool_576.txt	LTP373	ltpFR2	9	11	BLOCKADE	137	n/a	n/a	0	0	0
2090298	WORD	wordpools/wasnorm_wordpool_576.txt	LTP373	ltpFR2	9	11	AGENT	10	n/a	n/a	0	0	0
2092830	WORD	wordpools/wasnorm_wordpool_576.txt	LTP373	ltpFR2	9	11	CLAMP	316	n/a	n/a	0	0	0
2095645	WORD	wordpools/wasnorm_wordpool_576.txt	LTP373	ltpFR2	9	11	DASHBOARD	441	n/a	n/a	0	0	0
2098394	WORD	wordpools/wasnorm_wordpool_576.txt	LTP373	ltpFR2	9	11	CAFE	216	n/a	n/a	0	0	0
2101159	WORD	wordpools/wasnorm_wordpool_576.txt	LTP373	ltpFR2	9	11	REPORT	1184	n/a	n/a	0	0	0
2103708	WORD	wordpools/wasnorm_wordpool_576.txt	LTP373	ltpFR2	9	11	NOTEBOOK	959	n/a	n/a	0	0	0
2106307	WORD	wordpools/wasnorm_wordpool_576.txt	LTP373	ltpFR2	9	11	SHARK	1275	n/a	n/a	0	0	0
2107923	START	n/a	LTP373	ltpFR2	9	n/a	n/a	n/a	16	n/a	n/a	n/a	n/a
2108973	DISTRACTOR	n/a	LTP373	ltpFR2	9	11	n/a	n/a	n/a	n/a	0	0	0
2108989	PROB	n/a	LTP373	ltpFR2	9	n/a	n/a	n/a	16	14	8	1	5
2112687	PROB	n/a	LTP373	ltpFR2	9	n/a	n/a	n/a	16	19	6	9	4
2114520	PROB	n/a	LTP373	ltpFR2	9	n/a	n/a	n/a	16	13	1	5	7
2115853	PROB	n/a	LTP373	ltpFR2	9	n/a	n/a	n/a	16	19	8	6	5
2118651	PROB	n/a	LTP373	ltpFR2	9	n/a	n/a	n/a	16	14	3	2	9
2120167	PROB	n/a	LTP373	ltpFR2	9	n/a	n/a	n/a	16	11	3	5	3
2122183	PROB	n/a	LTP373	ltpFR2	9	n/a	n/a	n/a	16	17	7	4	6
2125565	PROB	n/a	LTP373	ltpFR2	9	n/a	n/a	n/a	16	14	3	8	3
2127064	PROB	n/a	LTP373	ltpFR2	9	n/a	n/a	n/a	16	25	8	8	9
2129797	PROB	n/a	LTP373	ltpFR2	9	n/a	n/a	n/a	16	12	2	4	6
2131357	STOP	n/a	LTP373	ltpFR2	9	n/a	n/a	n/a	16	n/a	n/a	n/a	n/a
2133712	REC_START	n/a	LTP373	ltpFR2	9	11	n/a	n/a	n/a	n/a	0	0	0
2134797	REC_WORD	wordpools/wasnorm_wordpool_576.txt	LTP373	ltpFR2	9	11	SHERIFF	1284	n/a	n/a	0	0	0
2136162	REC_WORD	wordpools/wasnorm_wordpool_576.txt	LTP373	ltpFR2	9	11	PISTOL	1075	n/a	n/a	0	0	0
2137277	REC_WORD	wordpools/wasnorm_wordpool_576.txt	LTP373	ltpFR2	9	11	KNIFE	785	n/a	n/a	0	0	0
2138625	REC_WORD	wordpools/wasnorm_wordpool_576.txt	LTP373	ltpFR2	9	11	PEDAL	1037	n/a	n/a	0	0	0
2139696	REC_WORD	wordpools/wasnorm_wordpool_576.txt	LTP373	ltpFR2	9	11	WAGON	1578	n/a	n/a	0	0	0
2140977	REC_WORD	wordpools/wasnorm_wordpool_576.txt	LTP373	ltpFR2	9	11	CRATER	400	n/a	n/a	0	0	0
2149112	REC_WORD	wordpools/wasnorm_wordpool_576.txt	LTP373	ltpFR2	9	11	COOKBOOK	373	n/a	n/a	0	0	0
2150778	REC_WORD	wordpools/wasnorm_wordpool_576.txt	LTP373	ltpFR2	9	11	NOTEBOOK	959	n/a	n/a	0	0	0
2152304	REC_WORD	wordpools/wasnorm_wordpool_576.txt	LTP373	ltpFR2	9	11	CATTLE	261	n/a	n/a	0	0	0
2153576	REC_WORD	wordpools/wasnorm_wordpool_576.txt	LTP373	ltpFR2	9	11	MEAT	883	n/a	n/a	0	0	0
2158512	REC_WORD	wordpools/wasnorm_wordpool_576.txt	LTP373	ltpFR2	9	11	CUPBOARD	425	n/a	n/a	0	0	0
2164829	REC_WORD	wordpools/wasnorm_wordpool_576.txt	LTP373	ltpFR2	9	11	DASHBOARD	441	n/a	n/a	0	0	0
2168236	REC_WORD	wordpools/wasnorm_wordpool_576.txt	LTP373	ltpFR2	9	11	CAFE	216	n/a	n/a	0	0	0
2199916	REC_WORD	wordpools/wasnorm_wordpool_576.txt	LTP373	ltpFR2	9	11	HARP	689	n/a	n/a	0	0	0
2224169	WORD	wordpools/wasnorm_wordpool_576.txt	LTP373	ltpFR2	9	12	LAMP	798	n/a	n/a	0	0	0
2226918	WORD	wordpools/wasnorm_wordpool_576.txt	LTP373	ltpFR2	9	12	LASER	801	n/a	n/a	0	0	0
2229700	WORD	wordpools/wasnorm_wordpool_576.txt	LTP373	ltpFR2	9	12	PASTRY	1022	n/a	n/a	0	0	0
2232482	WORD	wordpools/wasnorm_wordpool_576.txt	LTP373	ltpFR2	9	12	ROD	1203	n/a	n/a	0	0	0
2235247	WORD	wordpools/wasnorm_wordpool_576.txt	LTP373	ltpFR2	9	12	HOOD	714	n/a	n/a	0	0	0
2237996	WORD	wordpools/wasnorm_wordpool_576.txt	LTP373	ltpFR2	9	12	FRUIT	610	n/a	n/a	0	0	0
2240678	WORD	wordpools/wasnorm_wordpool_576.txt	LTP373	ltpFR2	9	12	BOYFRIEND	162	n/a	n/a	0	0	0
2243360	WORD	wordpools/wasnorm_wordpool_576.txt	LTP373	ltpFR2	9	12	RUST	1219	n/a	n/a	0	0	0
2246109	WORD	wordpools/wasnorm_wordpool_576.txt	LTP373	ltpFR2	9	12	JAPAN	749	n/a	n/a	0	0	0
2248874	WORD	wordpools/wasnorm_wordpool_576.txt	LTP373	ltpFR2	9	12	SIBLING	1301	n/a	n/a	0	0	0
2251340	WORD	wordpools/wasnorm_wordpool_576.txt	LTP373	ltpFR2	9	12	PERCH	1048	n/a	n/a	0	0	0
2253839	WORD	wordpools/wasnorm_wordpool_576.txt	LTP373	ltpFR2	9	12	BLACKBOARD	133	n/a	n/a	0	0	0
2256654	WORD	wordpools/wasnorm_wordpool_576.txt	LTP373	ltpFR2	9	12	STUDENT	1395	n/a	n/a	0	0	0
2259320	WORD	wordpools/wasnorm_wordpool_576.txt	LTP373	ltpFR2	9	12	STAR	1373	n/a	n/a	0	0	0
2261786	WORD	wordpools/wasnorm_wordpool_576.txt	LTP373	ltpFR2	9	12	PUDDING	1139	n/a	n/a	0	0	0
2264367	WORD	wordpools/wasnorm_wordpool_576.txt	LTP373	ltpFR2	9	12	SPONGE	1355	n/a	n/a	0	0	0
2266999	WORD	wordpools/wasnorm_wordpool_576.txt	LTP373	ltpFR2	9	12	PADDING	999	n/a	n/a	0	0	0
2269548	WORD	wordpools/wasnorm_wordpool_576.txt	LTP373	ltpFR2	9	12	CELLAR	267	n/a	n/a	0	0	0
2272030	WORD	wordpools/wasnorm_wordpool_576.txt	LTP373	ltpFR2	9	12	TWIG	1527	n/a	n/a	0	0	0
2274596	WORD	wordpools/wasnorm_wordpool_576.txt	LTP373	ltpFR2	9	12	RIVER	1194	n/a	n/a	0	0	0
2277211	WORD	wordpools/wasnorm_wordpool_576.txt	LTP373	ltpFR2	9	12	LOVER	846	n/a	n/a	0	0	0
2279927	WORD	wordpools/wasnorm_wordpool_576.txt	LTP373	ltpFR2	9	12	DIME	466	n/a	n/a	0	0	0
2282559	WORD	wordpools/wasnorm_wordpool_576.txt	LTP373	ltpFR2	9	12	JOURNAL	760	n/a	n/a	0	0	0
2285124	WORD	wordpools/wasnorm_wordpool_576.txt	LTP373	ltpFR2	9	12	SCRIBBLE	1256	n/a	n/a	0	0	0
2286740	START	n/a	LTP373	ltpFR2	9	n/a	n/a	n/a	17	n/a	n/a	n/a	n/a
2287814	DISTRACTOR	n/a	LTP373	ltpFR2	9	12	n/a	n/a	n/a	n/a	0	0	0
2287823	PROB	n/a	LTP373	ltpFR2	9	n/a	n/a	n/a	17	18	4	6	8
2290555	PROB	n/a	LTP373	ltpFR2	9	n/a	n/a	n/a	17	7	1	3	3
2292138	PROB	n/a	LTP373	ltpFR2	9	n/a	n/a	n/a	17	10	2	6	2
2293554	PROB	n/a	LTP373	ltpFR2	9	n/a	n/a	n/a	17	17	2	8	7
2294986	PROB	n/a	LTP373	ltpFR2	9	n/a	n/a	n/a	17	12	8	1	3
2296619	PROB	n/a	LTP373	ltpFR2	9	n/a	n/a	n/a	17	9	1	6	2
2299434	PROB	n/a	LTP373	ltpFR2	9	n/a	n/a	n/a	17	20	6	5	9
2301467	PROB	n/a	LTP373	ltpFR2	9	n/a	n/a	n/a	17	24	9	9	6
2302899	PROB	n/a	LTP373	ltpFR2	9	n/a	n/a	n/a	17	15	3	7	5
2304065	PROB	n/a	LTP373	ltpFR2	9	n/a	n/a	n/a	17	15	2	6	7
2305815	PROB	n/a	LTP373	ltpFR2	9	n/a	n/a	n/a	17	17	4	9	4
2307630	PROB	n/a	LTP373	ltpFR2	9	n/a	n/a	n/a	17	19	2	8	9
2308730	PROB	n/a	LTP373	ltpFR2	9	n/a	n/a	n/a	17	13	9	1	3
2309771	STOP	n/a	LTP373	ltpFR2	9	n/a	n/a	n/a	17	n/a	n/a	n/a	n/a
2312562	REC_START	n/a	LTP373	ltpFR2	9	12	n/a	n/a	n/a	n/a	0	0	0
2313905	REC_WORD	wordpools/wasnorm_wordpool_576.txt	LTP373	ltpFR2	9	12	PUDDING	1139	n/a	n/a	0	0	0
2315336	REC_WORD	wordpools/wasnorm_wordpool_576.txt	LTP373	ltpFR2	9	12	PADDING	999	n/a	n/a	0	0	0
2316822	REC_WORD	wordpools/wasnorm_wordpool_576.txt	LTP373	ltpFR2	9	12	SPONGE	1355	n/a	n/a	0	0	0
2322864	REC_WORD	wordpools/wasnorm_wordpool_576.txt	LTP373	ltpFR2	9	12	JAPAN	749	n/a	n/a	0	0	0
2324268	REC_WORD	wordpools/wasnorm_wordpool_576.txt	LTP373	ltpFR2	9	12	STREAM	1392	n/a	n/a	0	0	0
2326340	REC_WORD	wordpools/wasnorm_wordpool_576.txt	LTP373	ltpFR2	9	12	STUDENT	1395	n/a	n/a	0	0	0
2354827	REC_WORD	wordpools/wasnorm_wordpool_576.txt	LTP373	ltpFR2	9	12	DIME	466	n/a	n/a	0	0	0
2358517	REC_WORD	wordpools/wasnorm_wordpool_576.txt	LTP373	ltpFR2	9	12	LAMP	798	n/a	n/a	0	0	0
2359702	REC_WORD	wordpools/wasnorm_wordpool_576.txt	LTP373	ltpFR2	9	12	LASER	801	n/a	n/a	0	0	0
2361793	REC_WORD	wordpools/wasnorm_wordpool_576.txt	LTP373	ltpFR2	9	12	ROD	1203	n/a	n/a	0	0	0
2403003	DISTRACTOR	n/a	LTP373	ltpFR2	9	13	n/a	n/a	n/a	n/a	0	0	0
2403003	START	n/a	LTP373	ltpFR2	9	n/a	n/a	n/a	18	n/a	n/a	n/a	n/a
2403019	PROB	n/a	LTP373	ltpFR2	9	n/a	n/a	n/a	18	12	8	2	2
2404685	PROB	n/a	LTP373	ltpFR2	9	n/a	n/a	n/a	18	22	9	7	6
2406818	PROB	n/a	LTP373	ltpFR2	9	n/a	n/a	n/a	18	16	1	9	6
2407901	PROB	n/a	LTP373	ltpFR2	9	n/a	n/a	n/a	18	24	9	9	6
2409683	PROB	n/a	LTP373	ltpFR2	9	n/a	n/a	n/a	18	12	1	7	4
2411282	PROB	n/a	LTP373	ltpFR2	9	n/a	n/a	n/a	18	15	5	1	9
2412882	PROB	n/a	LTP373	ltpFR2	9	n/a	n/a	n/a	18	15	7	4	4
2414681	PROB	n/a	LTP373	ltpFR2	9	n/a	n/a	n/a	18	22	9	6	8
2416597	PROB	n/a	LTP373	ltpFR2	9	n/a	n/a	n/a	18	11	3	7	1
2418379	PROB	n/a	LTP373	ltpFR2	9	n/a	n/a	n/a	18	11	5	1	5
2419995	PROB	n/a	LTP373	ltpFR2	9	n/a	n/a	n/a	18	9	5	2	2
2421411	PROB	n/a	LTP373	ltpFR2	9	n/a	n/a	n/a	18	23	7	8	8
2425026	PROB	n/a	LTP373	ltpFR2	9	n/a	n/a	n/a	18	17	2	6	9
2426559	STOP	n/a	LTP373	ltpFR2	9	n/a	n/a	n/a	18	n/a	n/a	n/a	n/a
2427925	WORD	wordpools/wasnorm_wordpool_576.txt	LTP373	ltpFR2	9	13	TUNNEL	1519	n/a	n/a	0	0	0
2430407	WORD	wordpools/wasnorm_wordpool_576.txt	LTP373	ltpFR2	9	13	QUARTER	1148	n/a	n/a	0	0	0
2432906	WORD	wordpools/wasnorm_wordpool_576.txt	LTP373	ltpFR2	9	13	HERO	706	n/a	n/a	0	0	0
2435421	WORD	wordpools/wasnorm_wordpool_576.txt	LTP373	ltpFR2	9	13	BRANCH	168	n/a	n/a	0	0	0
2438103	WORD	wordpools/wasnorm_wordpool_576.txt	LTP373	ltpFR2	9	13	MAPLE	866	n/a	n/a	0	0	0
2440902	WORD	wordpools/wasnorm_wordpool_576.txt	LTP373	ltpFR2	9	13	JELLO	754	n/a	n/a	0	0	0
2443351	WORD	wordpools/wasnorm_wordpool_576.txt	LTP373	ltpFR2	9	13	STICKER	1382	n/a	n/a	0	0	0
2445866	WORD	wordpools/wasnorm_wordpool_576.txt	LTP373	ltpFR2	9	13	INFANT	737	n/a	n/a	0	0	0
2448365	WORD	wordpools/wasnorm_wordpool_576.txt	LTP373	ltpFR2	9	13	BUGGY	188	n/a	n/a	0	0	0
2450964	WORD	wordpools/wasnorm_wordpool_576.txt	LTP373	ltpFR2	9	13	COOK	372	n/a	n/a	0	0	0
2453396	WORD	wordpools/wasnorm_wordpool_576.txt	LTP373	ltpFR2	9	13	COMPASS	358	n/a	n/a	0	0	0
2456012	WORD	wordpools/wasnorm_wordpool_576.txt	LTP373	ltpFR2	9	13	SPHINX	1349	n/a	n/a	0	0	0
2458827	WORD	wordpools/wasnorm_wordpool_576.txt	LTP373	ltpFR2	9	13	SADDLE	1221	n/a	n/a	0	0	0
2461626	WORD	wordpools/wasnorm_wordpool_576.txt	LTP373	ltpFR2	9	13	LETTUCE	814	n/a	n/a	0	0	0
2464191	WORD	wordpools/wasnorm_wordpool_576.txt	LTP373	ltpFR2	9	13	SILK	1307	n/a	n/a	0	0	0
2466707	WORD	wordpools/wasnorm_wordpool_576.txt	LTP373	ltpFR2	9	13	VIKING	1565	n/a	n/a	0	0	0
2469289	WORD	wordpools/wasnorm_wordpool_576.txt	LTP373	ltpFR2	9	13	YACHT	1629	n/a	n/a	0	0	0
2471971	WORD	wordpools/wasnorm_wordpool_576.txt	LTP373	ltpFR2	9	13	POPCORN	1104	n/a	n/a	0	0	0
2474653	WORD	wordpools/wasnorm_wordpool_576.txt	LTP373	ltpFR2	9	13	APRON	35	n/a	n/a	0	0	0
2477102	WORD	wordpools/wasnorm_wordpool_576.txt	LTP373	ltpFR2	9	13	SALAD	1224	n/a	n/a	0	0	0
2479684	WORD	wordpools/wasnorm_wordpool_576.txt	LTP373	ltpFR2	9	13	PEANUT	1032	n/a	n/a	0	0	0
2482349	WORD	wordpools/wasnorm_wordpool_576.txt	LTP373	ltpFR2	9	13	OUTFIT	988	n/a	n/a	0	0	0
2485165	WORD	wordpools/wasnorm_wordpool_576.txt	LTP373	ltpFR2	9	13	BANQUET	86	n/a	n/a	0	0	0
2487813	WORD	wordpools/wasnorm_wordpool_576.txt	LTP373	ltpFR2	9	13	COWBOY	395	n/a	n/a	0	0	0
2489430	START	n/a	LTP373	ltpFR2	9	n/a	n/a	n/a	19	n/a	n/a	n/a	n/a
2490444	DISTRACTOR	n/a	LTP373	ltpFR2	9	13	n/a	n/a	n/a	n/a	0	0	0
2490446	PROB	n/a	LTP373	ltpFR2	9	n/a	n/a	n/a	19	12	2	6	4
2492495	PROB	n/a	LTP373	ltpFR2	9	n/a	n/a	n/a	19	16	6	3	7
2494727	PROB	n/a	LTP373	ltpFR2	9	n/a	n/a	n/a	19	11	5	4	2
2496260	PROB	n/a	LTP373	ltpFR2	9	n/a	n/a	n/a	19	5	2	1	2
2498609	PROB	n/a	LTP373	ltpFR2	9	n/a	n/a	n/a	19	24	9	9	6
2499958	PROB	n/a	LTP373	ltpFR2	9	n/a	n/a	n/a	19	16	7	1	8
2501257	PROB	n/a	LTP373	ltpFR2	9	n/a	n/a	n/a	19	19	5	6	8
2503090	PROB	n/a	LTP373	ltpFR2	9	n/a	n/a	n/a	19	11	1	1	9
2504472	PROB	n/a	LTP373	ltpFR2	9	n/a	n/a	n/a	19	14	7	5	2
2506188	PROB	n/a	LTP373	ltpFR2	9	n/a	n/a	n/a	19	12	3	5	4
2507571	PROB	n/a	LTP373	ltpFR2	9	n/a	n/a	n/a	19	8	6	1	1
2508837	PROB	n/a	LTP373	ltpFR2	9	n/a	n/a	n/a	19	13	1	8	4
2513430	STOP	n/a	LTP373	ltpFR2	9	n/a	n/a	n/a	19	n/a	n/a	n/a	n/a
2515218	REC_START	n/a	LTP373	ltpFR2	9	13	n/a	n/a	n/a	n/a	0	0	0
2516969	REC_WORD	wordpools/wasnorm_wordpool_576.txt	LTP373	ltpFR2	9	13	COWBOY	395	n/a	n/a	0	0	0
2518327	REC_WORD	wordpools/wasnorm_wordpool_576.txt	LTP373	ltpFR2	9	13	SADDLE	1221	n/a	n/a	0	0	0
2520082	REC_WORD	wordpools/wasnorm_wordpool_576.txt	LTP373	ltpFR2	9	13	TUNNEL	1519	n/a	n/a	0	0	0
2521912	REC_WORD	wordpools/wasnorm_wordpool_576.txt	LTP373	ltpFR2	9	13	SPHINX	1349	n/a	n/a	0	0	0
2523705	REC_WORD	wordpools/wasnorm_wordpool_576.txt	LTP373	ltpFR2	9	13	HERO	706	n/a	n/a	0	0	0
2541517	REC_WORD	wordpools/wasnorm_wordpool_576.txt	LTP373	ltpFR2	9	13	JELLY	755	n/a	n/a	0	0	0
2549460	REC_WORD	wordpools/wasnorm_wordpool_576.txt	LTP373	ltpFR2	9	13	OUTFIT	988	n/a	n/a	0	0	0
2560388	REC_WORD	wordpools/wasnorm_wordpool_576.txt	LTP373	ltpFR2	9	13	BANQUET	86	n/a	n/a	0	0	0
2605676	WORD	wordpools/wasnorm_wordpool_576.txt	LTP373	ltpFR2	9	14	BUCKET	184	n/a	n/a	0	0	0
2608408	WORD	wordpools/wasnorm_wordpool_576.txt	LTP373	ltpFR2	9	14	KLEENEX	782	n/a	n/a	0	0	0
2610973	WORD	wordpools/wasnorm_wordpool_576.txt	LTP373	ltpFR2	9	14	PASTA	1021	n/a	n/a	0	0	0
2613638	WORD	wordpools/wasnorm_wordpool_576.txt	LTP373	ltpFR2	9	14	TRIBE	1505	n/a	n/a	0	0	0
2616271	WORD	wordpools/wasnorm_wordpool_576.txt	LTP373	ltpFR2	9	14	COTTAGE	384	n/a	n/a	0	0	0
2619019	WORD	wordpools/wasnorm_wordpool_576.txt	LTP373	ltpFR2	9	14	DORM	488	n/a	n/a	0	0	0
2621501	WORD	wordpools/wasnorm_wordpool_576.txt	LTP373	ltpFR2	9	14	CITRUS	313	n/a	n/a	0	0	0
2623950	WORD	wordpools/wasnorm_wordpool_576.txt	LTP373	ltpFR2	9	14	STALLION	1369	n/a	n/a	0	0	0
2626466	WORD	wordpools/wasnorm_wordpool_576.txt	LTP373	ltpFR2	9	14	KETCHUP	771	n/a	n/a	0	0	0
2628965	WORD	wordpools/wasnorm_wordpool_576.txt	LTP373	ltpFR2	9	14	MUSTARD	935	n/a	n/a	0	0	0
2631697	WORD	wordpools/wasnorm_wordpool_576.txt	LTP373	ltpFR2	9	14	WASP	1593	n/a	n/a	0	0	0
2634279	WORD	wordpools/wasnorm_wordpool_576.txt	LTP373	ltpFR2	9	14	SERVANT	1271	n/a	n/a	0	0	0
2636961	WORD	wordpools/wasnorm_wordpool_576.txt	LTP373	ltpFR2	9	14	FREEZER	604	n/a	n/a	0	0	0
2639543	WORD	wordpools/wasnorm_wordpool_576.txt	LTP373	ltpFR2	9	14	GLOBE	641	n/a	n/a	0	0	0
2642092	WORD	wordpools/wasnorm_wordpool_576.txt	LTP373	ltpFR2	9	14	SPACE	1345	n/a	n/a	0	0	0
2644591	WORD	wordpools/wasnorm_wordpool_576.txt	LTP373	ltpFR2	9	14	PIGMENT	1066	n/a	n/a	0	0	0
2647306	WORD	wordpools/wasnorm_wordpool_576.txt	LTP373	ltpFR2	9	14	CASKET	255	n/a	n/a	0	0	0
2650038	WORD	wordpools/wasnorm_wordpool_576.txt	LTP373	ltpFR2	9	14	HONEY	713	n/a	n/a	0	0	0
2652587	WORD	wordpools/wasnorm_wordpool_576.txt	LTP373	ltpFR2	9	14	NECKLACE	940	n/a	n/a	0	0	0
2655253	WORD	wordpools/wasnorm_wordpool_576.txt	LTP373	ltpFR2	9	14	VICTIM	1562	n/a	n/a	0	0	0
2657768	WORD	wordpools/wasnorm_wordpool_576.txt	LTP373	ltpFR2	9	14	SWITCH	1422	n/a	n/a	0	0	0
2660533	WORD	wordpools/wasnorm_wordpool_576.txt	LTP373	ltpFR2	9	14	SEAFOOD	1260	n/a	n/a	0	0	0
2663149	WORD	wordpools/wasnorm_wordpool_576.txt	LTP373	ltpFR2	9	14	LODGE	839	n/a	n/a	0	0	0
2665748	WORD	wordpools/wasnorm_wordpool_576.txt	LTP373	ltpFR2	9	14	MARKER	870	n/a	n/a	0	0	0
2667364	START	n/a	LTP373	ltpFR2	9	n/a	n/a	n/a	20	n/a	n/a	n/a	n/a
2668193	DISTRACTOR	n/a	LTP373	ltpFR2	9	14	n/a	n/a	n/a	n/a	0	0	0
2668197	PROB	n/a	LTP373	ltpFR2	9	n/a	n/a	n/a	20	12	1	7	4
2670679	PROB	n/a	LTP373	ltpFR2	9	n/a	n/a	n/a	20	15	7	3	5
2673261	PROB	n/a	LTP373	ltpFR2	9	n/a	n/a	n/a	20	16	7	5	4
2674927	PROB	n/a	LTP373	ltpFR2	9	n/a	n/a	n/a	20	6	1	1	4
2676093	PROB	n/a	LTP373	ltpFR2	9	n/a	n/a	n/a	20	8	1	6	1
2677542	PROB	n/a	LTP373	ltpFR2	9	n/a	n/a	n/a	20	17	3	9	5
2680557	PROB	n/a	LTP373	ltpFR2	9	n/a	n/a	n/a	20	19	7	9	3
2682007	PROB	n/a	LTP373	ltpFR2	9	n/a	n/a	n/a	20	4	2	1	2
2683190	PROB	n/a	LTP373	ltpFR2	9	n/a	n/a	n/a	20	4	1	2	1
2684739	PROB	n/a	LTP373	ltpFR2	9	n/a	n/a	n/a	20	13	3	8	4
2686538	PROB	n/a	LTP373	ltpFR2	9	n/a	n/a	n/a	20	14	3	8	3
2688654	PROB	n/a	LTP373	ltpFR2	9	n/a	n/a	n/a	20	8	3	1	4
2690151	STOP	n/a	LTP373	ltpFR2	9	n/a	n/a	n/a	20	n/a	n/a	n/a	n/a
2693169	REC_START	n/a	LTP373	ltpFR2	9	14	n/a	n/a	n/a	n/a	0	0	0
2695938	REC_WORD	wordpools/wasnorm_wordpool_576.txt	LTP373	ltpFR2	9	14	BUCKET	184	n/a	n/a	0	0	0
2701226	REC_WORD	wordpools/wasnorm_wordpool_576.txt	LTP373	ltpFR2	9	14	PASTA	1021	n/a	n/a	0	0	0
2702610	REC_WORD	wordpools/wasnorm_wordpool_576.txt	LTP373	ltpFR2	9	14	TRIBE	1505	n/a	n/a	0	0	0
2704832	REC_WORD	wordpools/wasnorm_wordpool_576.txt	LTP373	ltpFR2	9	14	COTTAGE	384	n/a	n/a	0	0	0
2706103	REC_WORD	wordpools/wasnorm_wordpool_576.txt	LTP373	ltpFR2	9	14	LODGE	839	n/a	n/a	0	0	0
2707730	REC_WORD	wordpools/wasnorm_wordpool_576.txt	LTP373	ltpFR2	9	14	DORM	488	n/a	n/a	0	0	0
2717396	REC_WORD	wordpools/wasnorm_wordpool_576.txt	LTP373	ltpFR2	9	14	FREEZER	604	n/a	n/a	0	0	0
2721202	REC_WORD	wordpools/wasnorm_wordpool_576.txt	LTP373	ltpFR2	9	14	KLEENEX	782	n/a	n/a	0	0	0
2722347	REC_WORD	wordpools/wasnorm_wordpool_576.txt	LTP373	ltpFR2	9	14	MUSTARD	935	n/a	n/a	0	0	0
2723686	REC_WORD	wordpools/wasnorm_wordpool_576.txt	LTP373	ltpFR2	9	14	KETCHUP	771	n/a	n/a	0	0	0
2756204	REC_WORD	wordpools/wasnorm_wordpool_576.txt	LTP373	ltpFR2	9	14	GLOBE	641	n/a	n/a	0	0	0
2757270	REC_WORD	wordpools/wasnorm_wordpool_576.txt	LTP373	ltpFR2	9	14	PIGMENT	1066	n/a	n/a	0	0	0
2758025	REC_WORD	wordpools/wasnorm_wordpool_576.txt	LTP373	ltpFR2	9	14	SPACE	1345	n/a	n/a	0	0	0
2783626	DISTRACTOR	n/a	LTP373	ltpFR2	9	15	n/a	n/a	n/a	n/a	0	0	0
2783626	START	n/a	LTP373	ltpFR2	9	n/a	n/a	n/a	21	n/a	n/a	n/a	n/a
2783643	PROB	n/a	LTP373	ltpFR2	9	n/a	n/a	n/a	21	19	2	9	8
2785326	PROB	n/a	LTP373	ltpFR2	9	n/a	n/a	n/a	21	21	9	7	5
2787308	PROB	n/a	LTP373	ltpFR2	9	n/a	n/a	n/a	21	13	5	4	4
2788707	PROB	n/a	LTP373	ltpFR2	9	n/a	n/a	n/a	21	18	8	2	8
2789840	PROB	n/a	LTP373	ltpFR2	9	n/a	n/a	n/a	21	17	5	6	6
2792272	PROB	n/a	LTP373	ltpFR2	9	n/a	n/a	n/a	21	11	2	4	5
2793755	PROB	n/a	LTP373	ltpFR2	9	n/a	n/a	n/a	21	25	7	9	9
2796004	PROB	n/a	LTP373	ltpFR2	9	n/a	n/a	n/a	21	12	5	6	1
2797320	PROB	n/a	LTP373	ltpFR2	9	n/a	n/a	n/a	21	7	1	4	2
2798986	PROB	n/a	LTP373	ltpFR2	9	n/a	n/a	n/a	21	11	1	3	7
2800668	PROB	n/a	LTP373	ltpFR2	9	n/a	n/a	n/a	21	19	5	8	6
2804417	PROB	n/a	LTP373	ltpFR2	9	n/a	n/a	n/a	21	16	5	8	3
2806179	STOP	n/a	LTP373	ltpFR2	9	n/a	n/a	n/a	21	n/a	n/a	n/a	n/a
2808631	WORD	wordpools/wasnorm_wordpool_576.txt	LTP373	ltpFR2	9	15	HATCHET	691	n/a	n/a	0	0	0
2811313	WORD	wordpools/wasnorm_wordpool_576.txt	LTP373	ltpFR2	9	15	MASK	876	n/a	n/a	0	0	0
2813812	WORD	wordpools/wasnorm_wordpool_576.txt	LTP373	ltpFR2	9	15	CHIPMUNK	304	n/a	n/a	0	0	0
2816461	WORD	wordpools/wasnorm_wordpool_576.txt	LTP373	ltpFR2	9	15	GAZELLE	628	n/a	n/a	0	0	0
2818910	WORD	wordpools/wasnorm_wordpool_576.txt	LTP373	ltpFR2	9	15	ANTLER	29	n/a	n/a	0	0	0
2821709	WORD	wordpools/wasnorm_wordpool_576.txt	LTP373	ltpFR2	9	15	POET	1095	n/a	n/a	0	0	0
2824224	WORD	wordpools/wasnorm_wordpool_576.txt	LTP373	ltpFR2	9	15	NURSE	963	n/a	n/a	0	0	0
2826856	WORD	wordpools/wasnorm_wordpool_576.txt	LTP373	ltpFR2	9	15	SPOOL	1356	n/a	n/a	0	0	0
2829338	WORD	wordpools/wasnorm_wordpool_576.txt	LTP373	ltpFR2	9	15	BRICK	172	n/a	n/a	0	0	0
2831971	WORD	wordpools/wasnorm_wordpool_576.txt	LTP373	ltpFR2	9	15	EGYPT	519	n/a	n/a	0	0	0
2834569	WORD	wordpools/wasnorm_wordpool_576.txt	LTP373	ltpFR2	9	15	SKIRT	1319	n/a	n/a	0	0	0
2837285	WORD	wordpools/wasnorm_wordpool_576.txt	LTP373	ltpFR2	9	15	COSTUME	383	n/a	n/a	0	0	0
2839950	WORD	wordpools/wasnorm_wordpool_576.txt	LTP373	ltpFR2	9	15	EYELASH	546	n/a	n/a	0	0	0
2842599	WORD	wordpools/wasnorm_wordpool_576.txt	LTP373	ltpFR2	9	15	SHORTS	1293	n/a	n/a	0	0	0
2845031	WORD	wordpools/wasnorm_wordpool_576.txt	LTP373	ltpFR2	9	15	POCKET	1093	n/a	n/a	0	0	0
2847713	WORD	wordpools/wasnorm_wordpool_576.txt	LTP373	ltpFR2	9	15	LADY	794	n/a	n/a	0	0	0
2850412	WORD	wordpools/wasnorm_wordpool_576.txt	LTP373	ltpFR2	9	15	CONVICT	371	n/a	n/a	0	0	0
2853044	WORD	wordpools/wasnorm_wordpool_576.txt	LTP373	ltpFR2	9	15	GARLIC	624	n/a	n/a	0	0	0
2855809	WORD	wordpools/wasnorm_wordpool_576.txt	LTP373	ltpFR2	9	15	POSSUM	1112	n/a	n/a	0	0	0
2858475	WORD	wordpools/wasnorm_wordpool_576.txt	LTP373	ltpFR2	9	15	BLUEPRINT	142	n/a	n/a	0	0	0
2861124	WORD	wordpools/wasnorm_wordpool_576.txt	LTP373	ltpFR2	9	15	NOVEL	960	n/a	n/a	0	0	0
2863756	WORD	wordpools/wasnorm_wordpool_576.txt	LTP373	ltpFR2	9	15	HOSTESS	723	n/a	n/a	0	0	0
2866571	WORD	wordpools/wasnorm_wordpool_576.txt	LTP373	ltpFR2	9	15	JUDGE	761	n/a	n/a	0	0	0
2869053	WORD	wordpools/wasnorm_wordpool_576.txt	LTP373	ltpFR2	9	15	TREAT	1501	n/a	n/a	0	0	0
2870669	START	n/a	LTP373	ltpFR2	9	n/a	n/a	n/a	22	n/a	n/a	n/a	n/a
2871716	DISTRACTOR	n/a	LTP373	ltpFR2	9	15	n/a	n/a	n/a	n/a	0	0	0
2871719	PROB	n/a	LTP373	ltpFR2	9	n/a	n/a	n/a	22	15	9	4	2
2873884	PROB	n/a	LTP373	ltpFR2	9	n/a	n/a	n/a	22	20	3	8	9
2875584	PROB	n/a	LTP373	ltpFR2	9	n/a	n/a	n/a	22	16	7	1	8
2876883	PROB	n/a	LTP373	ltpFR2	9	n/a	n/a	n/a	22	16	7	7	2
2878149	PROB	n/a	LTP373	ltpFR2	9	n/a	n/a	n/a	22	15	2	5	8
2879465	PROB	n/a	LTP373	ltpFR2	9	n/a	n/a	n/a	22	10	3	5	2
2880931	PROB	n/a	LTP373	ltpFR2	9	n/a	n/a	n/a	22	20	7	5	8
2882697	PROB	n/a	LTP373	ltpFR2	9	n/a	n/a	n/a	22	14	1	7	6
2884413	PROB	n/a	LTP373	ltpFR2	9	n/a	n/a	n/a	22	13	8	4	1
2886578	PROB	n/a	LTP373	ltpFR2	9	n/a	n/a	n/a	22	13	9	1	3
2887628	PROB	n/a	LTP373	ltpFR2	9	n/a	n/a	n/a	22	7	5	1	1
2888795	PROB	n/a	LTP373	ltpFR2	9	n/a	n/a	n/a	22	14	7	5	2
2890843	PROB	n/a	LTP373	ltpFR2	9	n/a	n/a	n/a	22	21	7	5	9
2892592	PROB	n/a	LTP373	ltpFR2	9	n/a	n/a	n/a	22	19	3	8	8
2893966	STOP	n/a	LTP373	ltpFR2	9	n/a	n/a	n/a	22	n/a	n/a	n/a	n/a
2896524	REC_START	n/a	LTP373	ltpFR2	9	15	n/a	n/a	n/a	n/a	0	0	0
2897232	REC_WORD	wordpools/wasnorm_wordpool_576.txt	LTP373	ltpFR2	9	15	HATCHET	691	n/a	n/a	0	0	0
2899196	REC_WORD	wordpools/wasnorm_wordpool_576.txt	LTP373	ltpFR2	9	15	CHIPMUNK	304	n/a	n/a	0	0	0
2914387	REC_WORD	wordpools/wasnorm_wordpool_576.txt	LTP373	ltpFR2	9	15	ANTLER	29	n/a	n/a	0	0	0
2916493	REC_WORD	wordpools/wasnorm_wordpool_576.txt	LTP373	ltpFR2	9	15	EYELASH	546	n/a	n/a	0	0	0
2922260	REC_WORD	wordpools/wasnorm_wordpool_576.txt	LTP373	ltpFR2	9	15	JUDGE	761	n/a	n/a	0	0	0
2923540	REC_WORD	wordpools/wasnorm_wordpool_576.txt	LTP373	ltpFR2	9	15	TREAT	1501	n/a	n/a	0	0	0
2925038	REC_WORD	wordpools/wasnorm_wordpool_576.txt	LTP373	ltpFR2	9	15	CONVICT	371	n/a	n/a	0	0	0
2926452	REC_WORD	wordpools/wasnorm_wordpool_576.txt	LTP373	ltpFR2	9	15	LADY	794	n/a	n/a	0	0	0
2943571	REC_WORD	wordpools/wasnorm_wordpool_576.txt	LTP373	ltpFR2	9	15	SHORTS	1293	n/a	n/a	0	0	0
2945152	REC_WORD	wordpools/wasnorm_wordpool_576.txt	LTP373	ltpFR2	9	15	POCKET	1093	n/a	n/a	0	0	0
2969748	REC_WORD	wordpools/wasnorm_wordpool_576.txt	LTP373	ltpFR2	9	15	GARLIC	624	n/a	n/a	0	0	0
2986998	WORD	wordpools/wasnorm_wordpool_576.txt	LTP373	ltpFR2	9	16	CREVICE	405	n/a	n/a	0	0	0
2989531	WORD	wordpools/wasnorm_wordpool_576.txt	LTP373	ltpFR2	9	16	CRICKET	408	n/a	n/a	0	0	0
2992146	WORD	wordpools/wasnorm_wordpool_576.txt	LTP373	ltpFR2	9	16	LAKE	796	n/a	n/a	0	0	0
2994961	WORD	wordpools/wasnorm_wordpool_576.txt	LTP373	ltpFR2	9	16	MUMMY	932	n/a	n/a	0	0	0
2997477	WORD	wordpools/wasnorm_wordpool_576.txt	LTP373	ltpFR2	9	16	TEMPLE	1448	n/a	n/a	0	0	0
3000126	WORD	wordpools/wasnorm_wordpool_576.txt	LTP373	ltpFR2	9	16	TERMITE	1451	n/a	n/a	0	0	0
3002774	WORD	wordpools/wasnorm_wordpool_576.txt	LTP373	ltpFR2	9	16	BANKER	84	n/a	n/a	0	0	0
3005323	WORD	wordpools/wasnorm_wordpool_576.txt	LTP373	ltpFR2	9	16	FIDDLE	561	n/a	n/a	0	0	0
3007889	WORD	wordpools/wasnorm_wordpool_576.txt	LTP373	ltpFR2	9	16	ZIPPER	1636	n/a	n/a	0	0	0
3010471	WORD	wordpools/wasnorm_wordpool_576.txt	LTP373	ltpFR2	9	16	FLAG	573	n/a	n/a	0	0	0
3013236	WORD	wordpools/wasnorm_wordpool_576.txt	LTP373	ltpFR2	9	16	DRUG	501	n/a	n/a	0	0	0
3016035	WORD	wordpools/wasnorm_wordpool_576.txt	LTP373	ltpFR2	9	16	BULLET	194	n/a	n/a	0	0	0
3018684	WORD	wordpools/wasnorm_wordpool_576.txt	LTP373	ltpFR2	9	16	RIFLE	1192	n/a	n/a	0	0	0
3021332	WORD	wordpools/wasnorm_wordpool_576.txt	LTP373	ltpFR2	9	16	SIDEWALK	1303	n/a	n/a	0	0	0
3024081	WORD	wordpools/wasnorm_wordpool_576.txt	LTP373	ltpFR2	9	16	DANDRUFF	439	n/a	n/a	0	0	0
3026530	WORD	wordpools/wasnorm_wordpool_576.txt	LTP373	ltpFR2	9	16	ROBIN	1199	n/a	n/a	0	0	0
3029062	WORD	wordpools/wasnorm_wordpool_576.txt	LTP373	ltpFR2	9	16	FARMER	553	n/a	n/a	0	0	0
3031861	WORD	wordpools/wasnorm_wordpool_576.txt	LTP373	ltpFR2	9	16	BRACES	164	n/a	n/a	0	0	0
3034626	WORD	wordpools/wasnorm_wordpool_576.txt	LTP373	ltpFR2	9	16	AWARD	63	n/a	n/a	0	0	0
3037125	WORD	wordpools/wasnorm_wordpool_576.txt	LTP373	ltpFR2	9	16	BURGLAR	200	n/a	n/a	0	0	0
3039857	WORD	wordpools/wasnorm_wordpool_576.txt	LTP373	ltpFR2	9	16	GOBLIN	645	n/a	n/a	0	0	0
3042306	WORD	wordpools/wasnorm_wordpool_576.txt	LTP373	ltpFR2	9	16	ASIA	46	n/a	n/a	0	0	0
3044805	WORD	wordpools/wasnorm_wordpool_576.txt	LTP373	ltpFR2	9	16	GLASS	639	n/a	n/a	0	0	0
3047337	WORD	wordpools/wasnorm_wordpool_576.txt	LTP373	ltpFR2	9	16	MOTEL	919	n/a	n/a	0	0	0
3048953	START	n/a	LTP373	ltpFR2	9	n/a	n/a	n/a	23	n/a	n/a	n/a	n/a
3050027	DISTRACTOR	n/a	LTP373	ltpFR2	9	16	n/a	n/a	n/a	n/a	0	0	0
3050036	PROB	n/a	LTP373	ltpFR2	9	n/a	n/a	n/a	23	13	2	5	6
3053867	PROB	n/a	LTP373	ltpFR2	9	n/a	n/a	n/a	23	14	5	4	5
3056016	PROB	n/a	LTP373	ltpFR2	9	n/a	n/a	n/a	23	14	6	6	2
3057949	PROB	n/a	LTP373	ltpFR2	9	n/a	n/a	n/a	23	16	1	7	8
3059432	PROB	n/a	LTP373	ltpFR2	9	n/a	n/a	n/a	23	16	2	5	9
3061081	PROB	n/a	LTP373	ltpFR2	9	n/a	n/a	n/a	23	15	3	8	4
3062563	PROB	n/a	LTP373	ltpFR2	9	n/a	n/a	n/a	23	15	3	9	3
3064296	PROB	n/a	LTP373	ltpFR2	9	n/a	n/a	n/a	23	18	6	9	3
3066012	PROB	n/a	LTP373	ltpFR2	9	n/a	n/a	n/a	23	13	2	5	4
3068027	PROB	n/a	LTP373	ltpFR2	9	n/a	n/a	n/a	23	11	6	2	3
3070043	PROB	n/a	LTP373	ltpFR2	9	n/a	n/a	n/a	23	15	6	2	7
3071523	STOP	n/a	LTP373	ltpFR2	9	n/a	n/a	n/a	23	n/a	n/a	n/a	n/a
3074842	REC_START	n/a	LTP373	ltpFR2	9	16	n/a	n/a	n/a	n/a	0	0	0
3099378	REC_WORD	wordpools/wasnorm_wordpool_576.txt	LTP373	ltpFR2	9	16	ZIPPER	1636	n/a	n/a	0	0	0
3104008	REC_WORD	wordpools/wasnorm_wordpool_576.txt	LTP373	ltpFR2	9	16	BULLET	194	n/a	n/a	0	0	0
3108556	REC_WORD	wordpools/wasnorm_wordpool_576.txt	LTP373	ltpFR2	9	16	RIFLE	1192	n/a	n/a	0	0	0
3151389	REST_REWET	n/a	LTP373	ltpFR2	9	16	n/a	n/a	n/a	n/a	0	0	0
3254491	DISTRACTOR	n/a	LTP373	ltpFR2	9	17	n/a	n/a	n/a	n/a	0	0	0
3254491	START	n/a	LTP373	ltpFR2	9	n/a	n/a	n/a	24	n/a	n/a	n/a	n/a
3254508	PROB	n/a	LTP373	ltpFR2	9	n/a	n/a	n/a	24	16	3	4	9
3256357	PROB	n/a	LTP373	ltpFR2	9	n/a	n/a	n/a	24	11	4	5	2
3257973	PROB	n/a	LTP373	ltpFR2	9	n/a	n/a	n/a	24	25	8	8	9
3260138	PROB	n/a	LTP373	ltpFR2	9	n/a	n/a	n/a	24	10	5	4	1
3261837	PROB	n/a	LTP373	ltpFR2	9	n/a	n/a	n/a	24	18	8	8	2
3263070	PROB	n/a	LTP373	ltpFR2	9	n/a	n/a	n/a	24	16	4	6	6
3265787	PROB	n/a	LTP373	ltpFR2	9	n/a	n/a	n/a	24	21	4	9	8
3267302	PROB	n/a	LTP373	ltpFR2	9	n/a	n/a	n/a	24	14	2	8	4
3268501	PROB	n/a	LTP373	ltpFR2	9	n/a	n/a	n/a	24	17	7	3	7
3269817	PROB	n/a	LTP373	ltpFR2	9	n/a	n/a	n/a	24	22	7	6	9
3273982	PROB	n/a	LTP373	ltpFR2	9	n/a	n/a	n/a	24	24	6	9	9
3275531	PROB	n/a	LTP373	ltpFR2	9	n/a	n/a	n/a	24	11	1	4	6
3276597	PROB	n/a	LTP373	ltpFR2	9	n/a	n/a	n/a	24	13	8	1	5
3277546	STOP	n/a	LTP373	ltpFR2	9	n/a	n/a	n/a	24	n/a	n/a	n/a	n/a
3279563	WORD	wordpools/wasnorm_wordpool_576.txt	LTP373	ltpFR2	9	17	MACHINE	852	n/a	n/a	0	0	0
3282245	WORD	wordpools/wasnorm_wordpool_576.txt	LTP373	ltpFR2	9	17	XEROX	1628	n/a	n/a	0	0	0
3285060	WORD	wordpools/wasnorm_wordpool_576.txt	LTP373	ltpFR2	9	17	ROBOT	1200	n/a	n/a	0	0	0
3287492	WORD	wordpools/wasnorm_wordpool_576.txt	LTP373	ltpFR2	9	17	MEDAL	885	n/a	n/a	0	0	0
3290158	WORD	wordpools/wasnorm_wordpool_576.txt	LTP373	ltpFR2	9	17	GRILL	661	n/a	n/a	0	0	0
3292723	WORD	wordpools/wasnorm_wordpool_576.txt	LTP373	ltpFR2	9	17	ONION	977	n/a	n/a	0	0	0
3295305	WORD	wordpools/wasnorm_wordpool_576.txt	LTP373	ltpFR2	9	17	PENGUIN	1044	n/a	n/a	0	0	0
3297904	WORD	wordpools/wasnorm_wordpool_576.txt	LTP373	ltpFR2	9	17	LUGGAGE	847	n/a	n/a	0	0	0
3300569	WORD	wordpools/wasnorm_wordpool_576.txt	LTP373	ltpFR2	9	17	BODY	145	n/a	n/a	0	0	0
3303202	WORD	wordpools/wasnorm_wordpool_576.txt	LTP373	ltpFR2	9	17	GARBAGE	622	n/a	n/a	0	0	0
3305967	WORD	wordpools/wasnorm_wordpool_576.txt	LTP373	ltpFR2	9	17	TOURIST	1488	n/a	n/a	0	0	0
3308699	WORD	wordpools/wasnorm_wordpool_576.txt	LTP373	ltpFR2	9	17	BABY	64	n/a	n/a	0	0	0
3311531	WORD	wordpools/wasnorm_wordpool_576.txt	LTP373	ltpFR2	9	17	BEAKER	104	n/a	n/a	0	0	0
3314013	WORD	wordpools/wasnorm_wordpool_576.txt	LTP373	ltpFR2	9	17	CHEMIST	292	n/a	n/a	0	0	0
3316612	WORD	wordpools/wasnorm_wordpool_576.txt	LTP373	ltpFR2	9	17	BATHTUB	100	n/a	n/a	0	0	0
3319128	WORD	wordpools/wasnorm_wordpool_576.txt	LTP373	ltpFR2	9	17	DIVER	476	n/a	n/a	0	0	0
3321693	WORD	wordpools/wasnorm_wordpool_576.txt	LTP373	ltpFR2	9	17	DRINK	498	n/a	n/a	0	0	0
3324375	WORD	wordpools/wasnorm_wordpool_576.txt	LTP373	ltpFR2	9	17	WORLD	1622	n/a	n/a	0	0	0
3327124	WORD	wordpools/wasnorm_wordpool_576.txt	LTP373	ltpFR2	9	17	VAGRANT	1544	n/a	n/a	0	0	0
3329606	WORD	wordpools/wasnorm_wordpool_576.txt	LTP373	ltpFR2	9	17	ARM	38	n/a	n/a	0	0	0
3332205	WORD	wordpools/wasnorm_wordpool_576.txt	LTP373	ltpFR2	9	17	COCKTAIL	338	n/a	n/a	0	0	0
3334970	WORD	wordpools/wasnorm_wordpool_576.txt	LTP373	ltpFR2	9	17	BALLOON	75	n/a	n/a	0	0	0
3337769	WORD	wordpools/wasnorm_wordpool_576.txt	LTP373	ltpFR2	9	17	ROBBER	1197	n/a	n/a	0	0	0
3340251	WORD	wordpools/wasnorm_wordpool_576.txt	LTP373	ltpFR2	9	17	CURTAIN	427	n/a	n/a	0	0	0
3341867	START	n/a	LTP373	ltpFR2	9	n/a	n/a	n/a	25	n/a	n/a	n/a	n/a
3342810	DISTRACTOR	n/a	LTP373	ltpFR2	9	17	n/a	n/a	n/a	n/a	0	0	0
3342817	PROB	n/a	LTP373	ltpFR2	9	n/a	n/a	n/a	25	18	8	4	6
3344982	PROB	n/a	LTP373	ltpFR2	9	n/a	n/a	n/a	25	16	4	4	8
3346298	PROB	n/a	LTP373	ltpFR2	9	n/a	n/a	n/a	25	25	9	7	9
3347964	PROB	n/a	LTP373	ltpFR2	9	n/a	n/a	n/a	25	12	2	5	5
3349547	PROB	n/a	LTP373	ltpFR2	9	n/a	n/a	n/a	25	18	3	6	9
3350696	PROB	n/a	LTP373	ltpFR2	9	n/a	n/a	n/a	25	15	6	3	4
3352962	PROB	n/a	LTP373	ltpFR2	9	n/a	n/a	n/a	25	14	4	5	5
3354195	PROB	n/a	LTP373	ltpFR2	9	n/a	n/a	n/a	25	17	7	7	3
3355611	PROB	n/a	LTP373	ltpFR2	9	n/a	n/a	n/a	25	13	7	4	2
3358409	PROB	n/a	LTP373	ltpFR2	9	n/a	n/a	n/a	25	21	9	5	7
3361458	PROB	n/a	LTP373	ltpFR2	9	n/a	n/a	n/a	25	13	3	3	7
3362741	PROB	n/a	LTP373	ltpFR2	9	n/a	n/a	n/a	25	14	4	7	3
3364741	STOP	n/a	LTP373	ltpFR2	9	n/a	n/a	n/a	25	n/a	n/a	n/a	n/a
3367739	REC_START	n/a	LTP373	ltpFR2	9	17	n/a	n/a	n/a	n/a	0	0	0
3369601	REC_WORD	wordpools/wasnorm_wordpool_576.txt	LTP373	ltpFR2	9	17	ROBBER	1197	n/a	n/a	0	0	0
3370854	REC_WORD	wordpools/wasnorm_wordpool_576.txt	LTP373	ltpFR2	9	17	GRILL	661	n/a	n/a	0	0	0
3373192	REC_WORD	wordpools/wasnorm_wordpool_576.txt	LTP373	ltpFR2	9	17	ONION	977	n/a	n/a	0	0	0
3375931	REC_WORD	wordpools/wasnorm_wordpool_576.txt	LTP373	ltpFR2	9	17	GARBAGE	622	n/a	n/a	0	0	0
3377241	REC_WORD	wordpools/wasnorm_wordpool_576.txt	LTP373	ltpFR2	9	17	COCKTAIL	338	n/a	n/a	0	0	0
3378447	REC_WORD	wordpools/wasnorm_wordpool_576.txt	LTP373	ltpFR2	9	17	DRINK	498	n/a	n/a	0	0	0
3379803	REC_WORD	wordpools/wasnorm_wordpool_576.txt	LTP373	ltpFR2	9	17	TOURIST	1488	n/a	n/a	0	0	0
3381217	REC_WORD	wordpools/wasnorm_wordpool_576.txt	LTP373	ltpFR2	9	17	BABY	64	n/a	n/a	0	0	0
3382461	REC_WORD	wordpools/wasnorm_wordpool_576.txt	LTP373	ltpFR2	9	17	PENGUIN	1044	n/a	n/a	0	0	0
3385950	REC_WORD	wordpools/wasnorm_wordpool_576.txt	LTP373	ltpFR2	9	17	CHEMIST	292	n/a	n/a	0	0	0
3387402	REC_WORD	wordpools/wasnorm_wordpool_576.txt	LTP373	ltpFR2	9	17	BEAKER	104	n/a	n/a	0	0	0
3389881	REC_WORD	wordpools/wasnorm_wordpool_576.txt	LTP373	ltpFR2	9	17	XEROX	1628	n/a	n/a	0	0	0
3391002	REC_WORD	wordpools/wasnorm_wordpool_576.txt	LTP373	ltpFR2	9	17	MACHINE	852	n/a	n/a	0	0	0
3392374	REC_WORD	wordpools/wasnorm_wordpool_576.txt	LTP373	ltpFR2	9	17	ROBOT	1200	n/a	n/a	0	0	0
3393568	REC_WORD	wordpools/wasnorm_wordpool_576.txt	LTP373	ltpFR2	9	17	MEDAL	885	n/a	n/a	0	0	0
3409335	REC_WORD	wordpools/wasnorm_wordpool_576.txt	LTP373	ltpFR2	9	17	BALLOON	75	n/a	n/a	0	0	0
3458180	DISTRACTOR	n/a	LTP373	ltpFR2	9	18	n/a	n/a	n/a	n/a	0	0	0
3458180	START	n/a	LTP373	ltpFR2	9	n/a	n/a	n/a	26	n/a	n/a	n/a	n/a
3458196	PROB	n/a	LTP373	ltpFR2	9	n/a	n/a	n/a	26	18	6	5	7
3460229	PROB	n/a	LTP373	ltpFR2	9	n/a	n/a	n/a	26	18	3	7	8
3461461	PROB	n/a	LTP373	ltpFR2	9	n/a	n/a	n/a	26	17	8	2	7
3463627	PROB	n/a	LTP373	ltpFR2	9	n/a	n/a	n/a	26	8	2	1	5
3464760	PROB	n/a	LTP373	ltpFR2	9	n/a	n/a	n/a	26	17	7	7	3
3466193	PROB	n/a	LTP373	ltpFR2	9	n/a	n/a	n/a	26	21	7	7	7
3467509	PROB	n/a	LTP373	ltpFR2	9	n/a	n/a	n/a	26	13	3	2	8
3469458	PROB	n/a	LTP373	ltpFR2	9	n/a	n/a	n/a	26	11	2	5	4
3471973	PROB	n/a	LTP373	ltpFR2	9	n/a	n/a	n/a	26	12	7	3	2
3473306	PROB	n/a	LTP373	ltpFR2	9	n/a	n/a	n/a	26	17	1	9	7
3474489	PROB	n/a	LTP373	ltpFR2	9	n/a	n/a	n/a	26	2	4	6	8
3476055	PROB	n/a	LTP373	ltpFR2	9	n/a	n/a	n/a	26	5	3	1	1
3477621	PROB	n/a	LTP373	ltpFR2	9	n/a	n/a	n/a	26	7	1	5	1
3478887	PROB	n/a	LTP373	ltpFR2	9	n/a	n/a	n/a	26	16	5	3	8
3480086	PROB	n/a	LTP373	ltpFR2	9	n/a	n/a	n/a	26	15	5	6	4
3481881	STOP	n/a	LTP373	ltpFR2	9	n/a	n/a	n/a	26	n/a	n/a	n/a	n/a
3483301	WORD	wordpools/wasnorm_wordpool_576.txt	LTP373	ltpFR2	9	18	POWDER	1117	n/a	n/a	0	0	0
3485967	WORD	wordpools/wasnorm_wordpool_576.txt	LTP373	ltpFR2	9	18	DUST	508	n/a	n/a	0	0	0
3488699	WORD	wordpools/wasnorm_wordpool_576.txt	LTP373	ltpFR2	9	18	HOUND	724	n/a	n/a	0	0	0
3491214	WORD	wordpools/wasnorm_wordpool_576.txt	LTP373	ltpFR2	9	18	TRACTOR	1493	n/a	n/a	0	0	0
3494013	WORD	wordpools/wasnorm_wordpool_576.txt	LTP373	ltpFR2	9	18	COUNTRY	388	n/a	n/a	0	0	0
3496678	WORD	wordpools/wasnorm_wordpool_576.txt	LTP373	ltpFR2	9	18	BRAKE	166	n/a	n/a	0	0	0
3499144	WORD	wordpools/wasnorm_wordpool_576.txt	LTP373	ltpFR2	9	18	TRUCK	1512	n/a	n/a	0	0	0
3501893	WORD	wordpools/wasnorm_wordpool_576.txt	LTP373	ltpFR2	9	18	HORNET	718	n/a	n/a	0	0	0
3504375	WORD	wordpools/wasnorm_wordpool_576.txt	LTP373	ltpFR2	9	18	AIRPORT	13	n/a	n/a	0	0	0
3507190	WORD	wordpools/wasnorm_wordpool_576.txt	LTP373	ltpFR2	9	18	PEPPER	1047	n/a	n/a	0	0	0
3509972	WORD	wordpools/wasnorm_wordpool_576.txt	LTP373	ltpFR2	9	18	PATIENT	1024	n/a	n/a	0	0	0
3512521	WORD	wordpools/wasnorm_wordpool_576.txt	LTP373	ltpFR2	9	18	FOX	598	n/a	n/a	0	0	0
3514953	WORD	wordpools/wasnorm_wordpool_576.txt	LTP373	ltpFR2	9	18	FRECKLE	602	n/a	n/a	0	0	0
3517719	WORD	wordpools/wasnorm_wordpool_576.txt	LTP373	ltpFR2	9	18	ATOM	55	n/a	n/a	0	0	0
3520367	WORD	wordpools/wasnorm_wordpool_576.txt	LTP373	ltpFR2	9	18	HORSE	719	n/a	n/a	0	0	0
3522949	WORD	wordpools/wasnorm_wordpool_576.txt	LTP373	ltpFR2	9	18	WHISKERS	1605	n/a	n/a	0	0	0
3525465	WORD	wordpools/wasnorm_wordpool_576.txt	LTP373	ltpFR2	9	18	KIDNEY	776	n/a	n/a	0	0	0
3528014	WORD	wordpools/wasnorm_wordpool_576.txt	LTP373	ltpFR2	9	18	TRANSPLANT	1496	n/a	n/a	0	0	0
3530479	WORD	wordpools/wasnorm_wordpool_576.txt	LTP373	ltpFR2	9	18	SALT	1229	n/a	n/a	0	0	0
3533095	WORD	wordpools/wasnorm_wordpool_576.txt	LTP373	ltpFR2	9	18	GLOVE	642	n/a	n/a	0	0	0
3535760	WORD	wordpools/wasnorm_wordpool_576.txt	LTP373	ltpFR2	9	18	TAXI	1438	n/a	n/a	0	0	0
3538292	WORD	wordpools/wasnorm_wordpool_576.txt	LTP373	ltpFR2	9	18	FLEET	578	n/a	n/a	0	0	0
3540808	WORD	wordpools/wasnorm_wordpool_576.txt	LTP373	ltpFR2	9	18	WHISTLE	1606	n/a	n/a	0	0	0
3543357	WORD	wordpools/wasnorm_wordpool_576.txt	LTP373	ltpFR2	9	18	CIGAR	308	n/a	n/a	0	0	0
3544973	START	n/a	LTP373	ltpFR2	9	n/a	n/a	n/a	27	n/a	n/a	n/a	n/a
3546069	DISTRACTOR	n/a	LTP373	ltpFR2	9	18	n/a	n/a	n/a	n/a	0	0	0
3546072	PROB	n/a	LTP373	ltpFR2	9	n/a	n/a	n/a	27	13	5	6	3
3548354	PROB	n/a	LTP373	ltpFR2	9	n/a	n/a	n/a	27	18	7	5	6
3550587	PROB	n/a	LTP373	ltpFR2	9	n/a	n/a	n/a	27	14	3	7	4
3553535	PROB	n/a	LTP373	ltpFR2	9	n/a	n/a	n/a	27	20	7	9	4
3555934	PROB	n/a	LTP373	ltpFR2	9	n/a	n/a	n/a	27	15	4	4	7
3557733	PROB	n/a	LTP373	ltpFR2	9	n/a	n/a	n/a	27	13	3	5	5
3559016	PROB	n/a	LTP373	ltpFR2	9	n/a	n/a	n/a	27	20	4	9	8
3561715	PROB	n/a	LTP373	ltpFR2	9	n/a	n/a	n/a	27	20	3	9	8
3563964	PROB	n/a	LTP373	ltpFR2	9	n/a	n/a	n/a	27	17	1	7	9
3565513	PROB	n/a	LTP373	ltpFR2	9	n/a	n/a	n/a	27	20	9	8	3
3567435	STOP	n/a	LTP373	ltpFR2	9	n/a	n/a	n/a	27	n/a	n/a	n/a	n/a
3570779	REC_START	n/a	LTP373	ltpFR2	9	18	n/a	n/a	n/a	n/a	0	0	0
3572151	REC_WORD	wordpools/wasnorm_wordpool_576.txt	LTP373	ltpFR2	9	18	COUNTRY	388	n/a	n/a	0	0	0
3574310	REC_WORD	wordpools/wasnorm_wordpool_576.txt	LTP373	ltpFR2	9	18	TRACTOR	1493	n/a	n/a	0	0	0
3575437	REC_WORD	wordpools/wasnorm_wordpool_576.txt	LTP373	ltpFR2	9	18	TRUCK	1512	n/a	n/a	0	0	0
3576626	REC_WORD	wordpools/wasnorm_wordpool_576.txt	LTP373	ltpFR2	9	18	TAXI	1438	n/a	n/a	0	0	0
3577622	REC_WORD	wordpools/wasnorm_wordpool_576.txt	LTP373	ltpFR2	9	18	FLEET	578	n/a	n/a	0	0	0
3579052	REC_WORD	wordpools/wasnorm_wordpool_576.txt	LTP373	ltpFR2	9	18	BRAKE	166	n/a	n/a	0	0	0
3582560	REC_WORD	wordpools/wasnorm_wordpool_576.txt	LTP373	ltpFR2	9	18	DUST	508	n/a	n/a	0	0	0
3583907	REC_WORD	wordpools/wasnorm_wordpool_576.txt	LTP373	ltpFR2	9	18	POWDER	1117	n/a	n/a	0	0	0
3587207	REC_WORD	wordpools/wasnorm_wordpool_576.txt	LTP373	ltpFR2	9	18	HOUND	724	n/a	n/a	0	0	0
3588420	REC_WORD	wordpools/wasnorm_wordpool_576.txt	LTP373	ltpFR2	9	18	FOX	598	n/a	n/a	0	0	0
3591729	REC_WORD	wordpools/wasnorm_wordpool_576.txt	LTP373	ltpFR2	9	18	SALT	1229	n/a	n/a	0	0	0
3593192	REC_WORD	wordpools/wasnorm_wordpool_576.txt	LTP373	ltpFR2	9	18	PEPPER	1047	n/a	n/a	0	0	0
3596463	REC_WORD	wordpools/wasnorm_wordpool_576.txt	LTP373	ltpFR2	9	18	WHISKERS	1605	n/a	n/a	0	0	0
3618769	REC_WORD	wordpools/wasnorm_wordpool_576.txt	LTP373	ltpFR2	9	18	AIRPLANE	12	n/a	n/a	0	0	0
3621162	REC_WORD	wordpools/wasnorm_wordpool_576.txt	LTP373	ltpFR2	9	18	PILOT	1070	n/a	n/a	0	0	0
3637871	REC_WORD	wordpools/wasnorm_wordpool_576.txt	LTP373	ltpFR2	9	18	COUNTRY	388	n/a	n/a	0	0	0
3661235	WORD	wordpools/wasnorm_wordpool_576.txt	LTP373	ltpFR2	9	19	DOUGHNUT	490	n/a	n/a	0	0	0
3663668	WORD	wordpools/wasnorm_wordpool_576.txt	LTP373	ltpFR2	9	19	PLASTER	1085	n/a	n/a	0	0	0
3666216	WORD	wordpools/wasnorm_wordpool_576.txt	LTP373	ltpFR2	9	19	TABLE	1426	n/a	n/a	0	0	0
3668665	WORD	wordpools/wasnorm_wordpool_576.txt	LTP373	ltpFR2	9	19	DAUGHTER	442	n/a	n/a	0	0	0
3671147	WORD	wordpools/wasnorm_wordpool_576.txt	LTP373	ltpFR2	9	19	BARLEY	88	n/a	n/a	0	0	0
3673596	WORD	wordpools/wasnorm_wordpool_576.txt	LTP373	ltpFR2	9	19	BROOK	177	n/a	n/a	0	0	0
3676278	WORD	wordpools/wasnorm_wordpool_576.txt	LTP373	ltpFR2	9	19	MARINE	869	n/a	n/a	0	0	0
3678844	WORD	wordpools/wasnorm_wordpool_576.txt	LTP373	ltpFR2	9	19	FRIEND	606	n/a	n/a	0	0	0
3681559	WORD	wordpools/wasnorm_wordpool_576.txt	LTP373	ltpFR2	9	19	PARTNER	1017	n/a	n/a	0	0	0
3684308	WORD	wordpools/wasnorm_wordpool_576.txt	LTP373	ltpFR2	9	19	KITCHEN	778	n/a	n/a	0	0	0
3686773	WORD	wordpools/wasnorm_wordpool_576.txt	LTP373	ltpFR2	9	19	SUBWAY	1400	n/a	n/a	0	0	0
3689489	WORD	wordpools/wasnorm_wordpool_576.txt	LTP373	ltpFR2	9	19	QUAIL	1147	n/a	n/a	0	0	0
3691921	WORD	wordpools/wasnorm_wordpool_576.txt	LTP373	ltpFR2	9	19	COUNTY	389	n/a	n/a	0	0	0
3694720	WORD	wordpools/wasnorm_wordpool_576.txt	LTP373	ltpFR2	9	19	FRANCE	601	n/a	n/a	0	0	0
3697452	WORD	wordpools/wasnorm_wordpool_576.txt	LTP373	ltpFR2	9	19	PATROL	1027	n/a	n/a	0	0	0
3699984	WORD	wordpools/wasnorm_wordpool_576.txt	LTP373	ltpFR2	9	19	WAITER	1580	n/a	n/a	0	0	0
3702599	WORD	wordpools/wasnorm_wordpool_576.txt	LTP373	ltpFR2	9	19	SUITCASE	1403	n/a	n/a	0	0	0
3705298	WORD	wordpools/wasnorm_wordpool_576.txt	LTP373	ltpFR2	9	19	LUNCH	849	n/a	n/a	0	0	0
3707930	WORD	wordpools/wasnorm_wordpool_576.txt	LTP373	ltpFR2	9	19	VIRUS	1572	n/a	n/a	0	0	0
3710662	WORD	wordpools/wasnorm_wordpool_576.txt	LTP373	ltpFR2	9	19	BUNNY	198	n/a	n/a	0	0	0
3713411	WORD	wordpools/wasnorm_wordpool_576.txt	LTP373	ltpFR2	9	19	SODA	1341	n/a	n/a	0	0	0
3716010	WORD	wordpools/wasnorm_wordpool_576.txt	LTP373	ltpFR2	9	19	BRIEFCASE	175	n/a	n/a	0	0	0
3718659	WORD	wordpools/wasnorm_wordpool_576.txt	LTP373	ltpFR2	9	19	COUCH	386	n/a	n/a	0	0	0
3721124	WORD	wordpools/wasnorm_wordpool_576.txt	LTP373	ltpFR2	9	19	CLOCK	325	n/a	n/a	0	0	0
3722740	START	n/a	LTP373	ltpFR2	9	n/a	n/a	n/a	28	n/a	n/a	n/a	n/a
3723725	DISTRACTOR	n/a	LTP373	ltpFR2	9	19	n/a	n/a	n/a	n/a	0	0	0
3723740	PROB	n/a	LTP373	ltpFR2	9	n/a	n/a	n/a	28	12	5	5	2
3725472	PROB	n/a	LTP373	ltpFR2	9	n/a	n/a	n/a	28	19	8	7	4
3729437	PROB	n/a	LTP373	ltpFR2	9	n/a	n/a	n/a	28	10	7	1	2
3730803	PROB	n/a	LTP373	ltpFR2	9	n/a	n/a	n/a	28	15	3	9	3
3732969	PROB	n/a	LTP373	ltpFR2	9	n/a	n/a	n/a	28	16	2	5	9
3734451	PROB	n/a	LTP373	ltpFR2	9	n/a	n/a	n/a	28	12	8	2	2
3735834	PROB	n/a	LTP373	ltpFR2	9	n/a	n/a	n/a	28	13	8	2	3
3738266	PROB	n/a	LTP373	ltpFR2	9	n/a	n/a	n/a	28	7	4	1	2
3740132	PROB	n/a	LTP373	ltpFR2	9	n/a	n/a	n/a	28	16	6	2	8
3741365	PROB	n/a	LTP373	ltpFR2	9	n/a	n/a	n/a	28	17	7	6	4
3742964	PROB	n/a	LTP373	ltpFR2	9	n/a	n/a	n/a	28	13	4	8	1
3746740	STOP	n/a	LTP373	ltpFR2	9	n/a	n/a	n/a	28	n/a	n/a	n/a	n/a
3748529	REC_START	n/a	LTP373	ltpFR2	9	19	n/a	n/a	n/a	n/a	0	0	0
3751692	REC_WORD	wordpools/wasnorm_wordpool_576.txt	LTP373	ltpFR2	9	19	COUCH	386	n/a	n/a	0	0	0
3759245	REC_WORD	wordpools/wasnorm_wordpool_576.txt	LTP373	ltpFR2	9	19	FRANCE	601	n/a	n/a	0	0	0
3769134	REC_WORD	wordpools/wasnorm_wordpool_576.txt	LTP373	ltpFR2	9	19	KITCHEN	778	n/a	n/a	0	0	0
3772694	REC_WORD	wordpools/wasnorm_wordpool_576.txt	LTP373	ltpFR2	9	19	QUAIL	1147	n/a	n/a	0	0	0
3774005	REC_WORD	wordpools/wasnorm_wordpool_576.txt	LTP373	ltpFR2	9	19	DOUGHNUT	490	n/a	n/a	0	0	0
3775278	REC_WORD	wordpools/wasnorm_wordpool_576.txt	LTP373	ltpFR2	9	19	BARLEY	88	n/a	n/a	0	0	0
3786044	REC_WORD	wordpools/wasnorm_wordpool_576.txt	LTP373	ltpFR2	9	19	LUNCH	849	n/a	n/a	0	0	0
3799507	REC_WORD	wordpools/wasnorm_wordpool_576.txt	LTP373	ltpFR2	9	19	TABLE	1426	n/a	n/a	0	0	0
3802259	REC_WORD	wordpools/wasnorm_wordpool_576.txt	LTP373	ltpFR2	9	19	PLASTER	1085	n/a	n/a	0	0	0
3817836	REC_WORD	wordpools/wasnorm_wordpool_576.txt	LTP373	ltpFR2	9	19	DINER	467	n/a	n/a	0	0	0
3822293	REC_WORD	wordpools/wasnorm_wordpool_576.txt	LTP373	ltpFR2	9	19	WAITRESS	1581	n/a	n/a	0	0	0
3838986	WORD	wordpools/wasnorm_wordpool_576.txt	LTP373	ltpFR2	9	20	BADGE	68	n/a	n/a	0	0	0
3841435	WORD	wordpools/wasnorm_wordpool_576.txt	LTP373	ltpFR2	9	20	GUARD	667	n/a	n/a	0	0	0
3844250	WORD	wordpools/wasnorm_wordpool_576.txt	LTP373	ltpFR2	9	20	SLIDE	1326	n/a	n/a	0	0	0
3846882	WORD	wordpools/wasnorm_wordpool_576.txt	LTP373	ltpFR2	9	20	NAPKIN	937	n/a	n/a	0	0	0
3849598	WORD	wordpools/wasnorm_wordpool_576.txt	LTP373	ltpFR2	9	20	BLADE	134	n/a	n/a	0	0	0
3852197	WORD	wordpools/wasnorm_wordpool_576.txt	LTP373	ltpFR2	9	20	BACON	67	n/a	n/a	0	0	0
3854762	WORD	wordpools/wasnorm_wordpool_576.txt	LTP373	ltpFR2	9	20	POSTAGE	1113	n/a	n/a	0	0	0
3857478	WORD	wordpools/wasnorm_wordpool_576.txt	LTP373	ltpFR2	9	20	ACTRESS	6	n/a	n/a	0	0	0
3860276	WORD	wordpools/wasnorm_wordpool_576.txt	LTP373	ltpFR2	9	20	PECAN	1036	n/a	n/a	0	0	0
3863042	WORD	wordpools/wasnorm_wordpool_576.txt	LTP373	ltpFR2	9	20	SLIME	1327	n/a	n/a	0	0	0
3865624	WORD	wordpools/wasnorm_wordpool_576.txt	LTP373	ltpFR2	9	20	RATTLE	1170	n/a	n/a	0	0	0
3868239	WORD	wordpools/wasnorm_wordpool_576.txt	LTP373	ltpFR2	9	20	POISON	1096	n/a	n/a	0	0	0
3870688	WORD	wordpools/wasnorm_wordpool_576.txt	LTP373	ltpFR2	9	20	JUNGLE	764	n/a	n/a	0	0	0
3873320	WORD	wordpools/wasnorm_wordpool_576.txt	LTP373	ltpFR2	9	20	GREASE	660	n/a	n/a	0	0	0
3876052	WORD	wordpools/wasnorm_wordpool_576.txt	LTP373	ltpFR2	9	20	STAMP	1370	n/a	n/a	0	0	0
3878584	WORD	wordpools/wasnorm_wordpool_576.txt	LTP373	ltpFR2	9	20	LIPSTICK	829	n/a	n/a	0	0	0
3881017	WORD	wordpools/wasnorm_wordpool_576.txt	LTP373	ltpFR2	9	20	PANTHER	1009	n/a	n/a	0	0	0
3883549	WORD	wordpools/wasnorm_wordpool_576.txt	LTP373	ltpFR2	9	20	LEOPARD	812	n/a	n/a	0	0	0
3886164	WORD	wordpools/wasnorm_wordpool_576.txt	LTP373	ltpFR2	9	20	FINGER	567	n/a	n/a	0	0	0
3888896	WORD	wordpools/wasnorm_wordpool_576.txt	LTP373	ltpFR2	9	20	LIZARD	834	n/a	n/a	0	0	0
3891478	WORD	wordpools/wasnorm_wordpool_576.txt	LTP373	ltpFR2	9	20	TROUT	1511	n/a	n/a	0	0	0
3894244	WORD	wordpools/wasnorm_wordpool_576.txt	LTP373	ltpFR2	9	20	CUSTARD	429	n/a	n/a	0	0	0
3897059	WORD	wordpools/wasnorm_wordpool_576.txt	LTP373	ltpFR2	9	20	DANCER	437	n/a	n/a	0	0	0
3899724	WORD	wordpools/wasnorm_wordpool_576.txt	LTP373	ltpFR2	9	20	SHIRT	1287	n/a	n/a	0	0	0
3901341	START	n/a	LTP373	ltpFR2	9	n/a	n/a	n/a	29	n/a	n/a	n/a	n/a
3902499	DISTRACTOR	n/a	LTP373	ltpFR2	9	20	n/a	n/a	n/a	n/a	0	0	0
3902507	PROB	n/a	LTP373	ltpFR2	9	n/a	n/a	n/a	29	21	9	5	7
3904889	PROB	n/a	LTP373	ltpFR2	9	n/a	n/a	n/a	29	15	6	6	3
3906205	PROB	n/a	LTP373	ltpFR2	9	n/a	n/a	n/a	29	14	1	9	4
3907438	PROB	n/a	LTP373	ltpFR2	9	n/a	n/a	n/a	29	17	1	8	8
3909187	PROB	n/a	LTP373	ltpFR2	9	n/a	n/a	n/a	29	25	9	6	8
3911336	PROB	n/a	LTP373	ltpFR2	9	n/a	n/a	n/a	29	16	7	4	5
3912702	PROB	n/a	LTP373	ltpFR2	9	n/a	n/a	n/a	29	10	6	3	1
3914035	PROB	n/a	LTP373	ltpFR2	9	n/a	n/a	n/a	29	6	4	1	1
3915134	PROB	n/a	LTP373	ltpFR2	9	n/a	n/a	n/a	29	8	3	2	3
3917133	PROB	n/a	LTP373	ltpFR2	9	n/a	n/a	n/a	29	13	9	2	2
3918616	PROB	n/a	LTP373	ltpFR2	9	n/a	n/a	n/a	29	5	1	2	2
3920782	PROB	n/a	LTP373	ltpFR2	9	n/a	n/a	n/a	29	6	4	1	1
3921831	PROB	n/a	LTP373	ltpFR2	9	n/a	n/a	n/a	29	22	8	8	6
3923943	STOP	n/a	LTP373	ltpFR2	9	n/a	n/a	n/a	29	n/a	n/a	n/a	n/a
3927146	REC_START	n/a	LTP373	ltpFR2	9	20	n/a	n/a	n/a	n/a	0	0	0
3927931	REC_WORD	wordpools/wasnorm_wordpool_576.txt	LTP373	ltpFR2	9	20	PANTHER	1009	n/a	n/a	0	0	0
3929198	REC_WORD	wordpools/wasnorm_wordpool_576.txt	LTP373	ltpFR2	9	20	LEOPARD	812	n/a	n/a	0	0	0
3930295	REC_WORD	wordpools/wasnorm_wordpool_576.txt	LTP373	ltpFR2	9	20	LIZARD	834	n/a	n/a	0	0	0
3931499	REC_WORD	wordpools/wasnorm_wordpool_576.txt	LTP373	ltpFR2	9	20	TROUT	1511	n/a	n/a	0	0	0
3932899	REC_WORD	wordpools/wasnorm_wordpool_576.txt	LTP373	ltpFR2	9	20	JUNGLE	764	n/a	n/a	0	0	0
3934485	REC_WORD	wordpools/wasnorm_wordpool_576.txt	LTP373	ltpFR2	9	20	GUARD	667	n/a	n/a	0	0	0
3935811	REC_WORD	wordpools/wasnorm_wordpool_576.txt	LTP373	ltpFR2	9	20	BADGE	68	n/a	n/a	0	0	0
3937066	REC_WORD	wordpools/wasnorm_wordpool_576.txt	LTP373	ltpFR2	9	20	BLADE	134	n/a	n/a	0	0	0
3941027	REC_WORD	wordpools/wasnorm_wordpool_576.txt	LTP373	ltpFR2	9	20	POSTAGE	1113	n/a	n/a	0	0	0
3943998	REC_WORD	wordpools/wasnorm_wordpool_576.txt	LTP373	ltpFR2	9	20	STAMP	1370	n/a	n/a	0	0	0
3949148	REC_WORD	wordpools/wasnorm_wordpool_576.txt	LTP373	ltpFR2	9	20	NAPKIN	937	n/a	n/a	0	0	0
3950283	REC_WORD	wordpools/wasnorm_wordpool_576.txt	LTP373	ltpFR2	9	20	SLIDE	1326	n/a	n/a	0	0	0
3961368	REC_WORD	wordpools/wasnorm_wordpool_576.txt	LTP373	ltpFR2	9	20	ACTRESS	6	n/a	n/a	0	0	0
3962658	REC_WORD	wordpools/wasnorm_wordpool_576.txt	LTP373	ltpFR2	9	20	LIPSTICK	829	n/a	n/a	0	0	0
3965646	REC_WORD	wordpools/wasnorm_wordpool_576.txt	LTP373	ltpFR2	9	20	DANCER	437	n/a	n/a	0	0	0
3980239	REC_WORD	wordpools/wasnorm_wordpool_576.txt	LTP373	ltpFR2	9	20	BACON	67	n/a	n/a	0	0	0
3981671	REC_WORD	wordpools/wasnorm_wordpool_576.txt	LTP373	ltpFR2	9	20	PECAN	1036	n/a	n/a	0	0	0
3982504	REC_WORD	wordpools/wasnorm_wordpool_576.txt	LTP373	ltpFR2	9	20	SLIME	1327	n/a	n/a	0	0	0
3985097	REC_WORD	wordpools/wasnorm_wordpool_576.txt	LTP373	ltpFR2	9	20	GREASE	660	n/a	n/a	0	0	0
4017603	DISTRACTOR	n/a	LTP373	ltpFR2	9	21	n/a	n/a	n/a	n/a	0	0	0
4017603	START	n/a	LTP373	ltpFR2	9	n/a	n/a	n/a	30	n/a	n/a	n/a	n/a
4017620	PROB	n/a	LTP373	ltpFR2	9	n/a	n/a	n/a	30	15	6	8	1
4019619	PROB	n/a	LTP373	ltpFR2	9	n/a	n/a	n/a	30	16	7	6	3
4020902	PROB	n/a	LTP373	ltpFR2	9	n/a	n/a	n/a	30	15	8	5	2
4022434	PROB	n/a	LTP373	ltpFR2	9	n/a	n/a	n/a	30	17	6	9	2
4024067	PROB	n/a	LTP373	ltpFR2	9	n/a	n/a	n/a	30	16	1	7	8
4025250	PROB	n/a	LTP373	ltpFR2	9	n/a	n/a	n/a	30	11	1	6	4
4027532	PROB	n/a	LTP373	ltpFR2	9	n/a	n/a	n/a	30	15	3	5	7
4028898	PROB	n/a	LTP373	ltpFR2	9	n/a	n/a	n/a	30	11	3	4	4
4031713	PROB	n/a	LTP373	ltpFR2	9	n/a	n/a	n/a	30	13	7	4	2
