mstime	trial_type	stim_file	subject	experiment	session	trial	task	item_name	item_num	recog_resp	recog_conf	resp	answer	test_x	test_y	test_z	color_r	color_g	color_b	case	font
0	SESS_START	n/a	LTP105	ltpFR	9	n/a	n/a	n/a	n/a	0	5	n/a	n/a	0	0	0	n/a	n/a	n/a	n/a	n/a
24788	START	n/a	LTP105	ltpFR	9	n/a	n/a	n/a	n/a	n/a	n/a	n/a	n/a	n/a	n/a	n/a	n/a	n/a	n/a	n/a	n/a
24813	PROB	n/a	LTP105	ltpFR	9	n/a	n/a	n/a	n/a	n/a	n/a	n/a	20	7	5	8	n/a	n/a	n/a	n/a	n/a
27563	PROB	n/a	LTP105	ltpFR	9	n/a	n/a	n/a	n/a	n/a	n/a	n/a	13	4	1	9	n/a	n/a	n/a	n/a	n/a
30037	PROB	n/a	LTP105	ltpFR	9	n/a	n/a	n/a	n/a	n/a	n/a	n/a	16	2	5	9	n/a	n/a	n/a	n/a	n/a
33312	PROB	n/a	LTP105	ltpFR	9	n/a	n/a	n/a	n/a	n/a	n/a	n/a	12	3	8	1	n/a	n/a	n/a	n/a	n/a
34721	PROB	n/a	LTP105	ltpFR	9	n/a	n/a	n/a	n/a	n/a	n/a	n/a	13	3	7	3	n/a	n/a	n/a	n/a	n/a
35778	PROB	n/a	LTP105	ltpFR	9	n/a	n/a	n/a	n/a	n/a	n/a	n/a	10	1	6	3	n/a	n/a	n/a	n/a	n/a
37037	PROB	n/a	LTP105	ltpFR	9	n/a	n/a	n/a	n/a	n/a	n/a	n/a	16	5	9	2	n/a	n/a	n/a	n/a	n/a
38554	PROB	n/a	LTP105	ltpFR	9	n/a	n/a	n/a	n/a	n/a	n/a	n/a	6	1	1	4	n/a	n/a	n/a	n/a	n/a
39554	PROB	n/a	LTP105	ltpFR	9	n/a	n/a	n/a	n/a	n/a	n/a	n/a	13	2	5	6	n/a	n/a	n/a	n/a	n/a
40912	PROB	n/a	LTP105	ltpFR	9	n/a	n/a	n/a	n/a	n/a	n/a	n/a	7	1	4	2	n/a	n/a	n/a	n/a	n/a
44788	STOP	n/a	LTP105	ltpFR	9	n/a	n/a	n/a	n/a	n/a	n/a	n/a	n/a	n/a	n/a	n/a	n/a	n/a	n/a	n/a	n/a
65468	WORD	wordpools/wasnorm_wordpool.txt	LTP105	ltpFR	9	1	1	TRUCK	1512	1	3	0	n/a	0	0	0	0.422607421875	0.5869140625	0	upper	amplitud.ttf
69334	WORD	wordpools/wasnorm_wordpool.txt	LTP105	ltpFR	9	1	1	CAB	209	1	n/a	0	n/a	0	0	0	0.422607421875	0.5869140625	0	upper	amplitud.ttf
73251	WORD	wordpools/wasnorm_wordpool.txt	LTP105	ltpFR	9	1	1	PATROL	1027	n/a	n/a	0	n/a	0	0	0	0.422607421875	0.5869140625	0	upper	amplitud.ttf
77100	WORD	wordpools/wasnorm_wordpool.txt	LTP105	ltpFR	9	1	1	ENGINEER	536	n/a	n/a	1	n/a	0	0	0	0.422607421875	0.5869140625	0	upper	amplitud.ttf
81300	WORD	wordpools/wasnorm_wordpool.txt	LTP105	ltpFR	9	1	1	CUFF	423	n/a	n/a	0	n/a	0	0	0	0.422607421875	0.5869140625	0	upper	amplitud.ttf
85366	WORD	wordpools/wasnorm_wordpool.txt	LTP105	ltpFR	9	1	1	CRUMB	416	n/a	n/a	0	n/a	0	0	0	0.422607421875	0.5869140625	0	upper	amplitud.ttf
89416	WORD	wordpools/wasnorm_wordpool.txt	LTP105	ltpFR	9	1	1	MILDEW	893	n/a	n/a	1	n/a	0	0	0	0.422607421875	0.5869140625	0	upper	amplitud.ttf
93391	WORD	wordpools/wasnorm_wordpool.txt	LTP105	ltpFR	9	1	1	DRESS	495	n/a	n/a	0	n/a	0	0	0	0.422607421875	0.5869140625	0	upper	amplitud.ttf
97424	WORD	wordpools/wasnorm_wordpool.txt	LTP105	ltpFR	9	1	1	FIREPLACE	570	n/a	n/a	0	n/a	0	0	0	0.422607421875	0.5869140625	0	upper	amplitud.ttf
101282	WORD	wordpools/wasnorm_wordpool.txt	LTP105	ltpFR	9	1	1	CRAB	397	n/a	n/a	1	n/a	0	0	0	0.422607421875	0.5869140625	0	upper	amplitud.ttf
105331	WORD	wordpools/wasnorm_wordpool.txt	LTP105	ltpFR	9	1	1	REBEL	1172	n/a	n/a	1	n/a	0	0	0	0.422607421875	0.5869140625	0	upper	amplitud.ttf
109273	WORD	wordpools/wasnorm_wordpool.txt	LTP105	ltpFR	9	1	1	WAGON	1578	n/a	n/a	0	n/a	0	0	0	0.422607421875	0.5869140625	0	upper	amplitud.ttf
113431	WORD	wordpools/wasnorm_wordpool.txt	LTP105	ltpFR	9	1	1	MECHANIC	884	n/a	n/a	1	n/a	0	0	0	0.422607421875	0.5869140625	0	upper	amplitud.ttf
117331	WORD	wordpools/wasnorm_wordpool.txt	LTP105	ltpFR	9	1	1	SARDINE	1235	n/a	n/a	1	n/a	0	0	0	0.422607421875	0.5869140625	0	upper	amplitud.ttf
121372	WORD	wordpools/wasnorm_wordpool.txt	LTP105	ltpFR	9	1	1	LACE	792	n/a	n/a	n/a	n/a	0	0	0	0.422607421875	0.5869140625	0	upper	amplitud.ttf
124397	SLOW_MSG	n/a	LTP105	ltpFR	9	1	n/a	n/a	n/a	n/a	n/a	n/a	n/a	0	0	0	n/a	n/a	n/a	n/a	n/a
126830	WORD	wordpools/wasnorm_wordpool.txt	LTP105	ltpFR	9	1	1	DYNAMITE	511	n/a	n/a	0	n/a	0	0	0	0.422607421875	0.5869140625	0	upper	amplitud.ttf
129838	START	n/a	LTP105	ltpFR	9	n/a	n/a	n/a	n/a	n/a	n/a	n/a	n/a	n/a	n/a	n/a	n/a	n/a	n/a	n/a	n/a
130680	PROB	n/a	LTP105	ltpFR	9	n/a	n/a	n/a	n/a	n/a	n/a	n/a	8	6	1	1	n/a	n/a	n/a	n/a	n/a
132371	PROB	n/a	LTP105	ltpFR	9	n/a	n/a	n/a	n/a	n/a	n/a	n/a	22	8	5	9	n/a	n/a	n/a	n/a	n/a
135655	PROB	n/a	LTP105	ltpFR	9	n/a	n/a	n/a	n/a	n/a	n/a	n/a	19	7	7	5	n/a	n/a	n/a	n/a	n/a
137557	STOP	n/a	LTP105	ltpFR	9	n/a	n/a	n/a	n/a	n/a	n/a	n/a	n/a	n/a	n/a	n/a	n/a	n/a	n/a	n/a	n/a
139689	REC_START	n/a	LTP105	ltpFR	9	1	n/a	n/a	n/a	n/a	n/a	n/a	n/a	0	0	0	n/a	n/a	n/a	n/a	n/a
141694	REC_WORD	wordpools/wasnorm_wordpool.txt	LTP105	ltpFR	9	1	1	DYNAMITE	511	n/a	n/a	0	n/a	0	0	0	n/a	n/a	n/a	n/a	n/a
142817	REC_WORD	wordpools/wasnorm_wordpool.txt	LTP105	ltpFR	9	1	1	LACE	792	n/a	n/a	n/a	n/a	0	0	0	n/a	n/a	n/a	n/a	n/a
144174	REC_WORD	wordpools/wasnorm_wordpool.txt	LTP105	ltpFR	9	1	1	WAGON	1578	n/a	n/a	0	n/a	0	0	0	n/a	n/a	n/a	n/a	n/a
145102	REC_WORD	wordpools/wasnorm_wordpool.txt	LTP105	ltpFR	9	1	1	SARDINE	1235	n/a	n/a	1	n/a	0	0	0	n/a	n/a	n/a	n/a	n/a
147795	REC_WORD	wordpools/wasnorm_wordpool.txt	LTP105	ltpFR	9	1	1	MECHANIC	884	n/a	n/a	1	n/a	0	0	0	n/a	n/a	n/a	n/a	n/a
149651	REC_WORD	wordpools/wasnorm_wordpool.txt	LTP105	ltpFR	9	1	1	REBEL	1172	n/a	n/a	1	n/a	0	0	0	n/a	n/a	n/a	n/a	n/a
150838	REC_WORD	wordpools/wasnorm_wordpool.txt	LTP105	ltpFR	9	1	1	CRAB	397	n/a	n/a	1	n/a	0	0	0	n/a	n/a	n/a	n/a	n/a
152460	REC_WORD	wordpools/wasnorm_wordpool.txt	LTP105	ltpFR	9	1	1	DRESS	495	n/a	n/a	0	n/a	0	0	0	n/a	n/a	n/a	n/a	n/a
154430	REC_WORD	wordpools/wasnorm_wordpool.txt	LTP105	ltpFR	9	1	n/a	CHIMNEY	301	n/a	n/a	n/a	n/a	0	0	0	n/a	n/a	n/a	n/a	n/a
158611	REC_WORD	wordpools/wasnorm_wordpool.txt	LTP105	ltpFR	9	1	1	ENGINEER	536	n/a	n/a	1	n/a	0	0	0	n/a	n/a	n/a	n/a	n/a
160960	REC_WORD	wordpools/wasnorm_wordpool.txt	LTP105	ltpFR	9	1	1	CUFF	423	n/a	n/a	0	n/a	0	0	0	n/a	n/a	n/a	n/a	n/a
162128	REC_WORD	wordpools/wasnorm_wordpool.txt	LTP105	ltpFR	9	1	1	CRUMB	416	n/a	n/a	0	n/a	0	0	0	n/a	n/a	n/a	n/a	n/a
163210	REC_WORD	wordpools/wasnorm_wordpool.txt	LTP105	ltpFR	9	1	1	MILDEW	893	n/a	n/a	1	n/a	0	0	0	n/a	n/a	n/a	n/a	n/a
164298	REC_WORD	wordpools/wasnorm_wordpool.txt	LTP105	ltpFR	9	1	1	CAB	209	n/a	n/a	0	n/a	0	0	0	n/a	n/a	n/a	n/a	n/a
165346	REC_WORD	wordpools/wasnorm_wordpool.txt	LTP105	ltpFR	9	1	1	PATROL	1027	n/a	n/a	0	n/a	0	0	0	n/a	n/a	n/a	n/a	n/a
166633	REC_WORD	wordpools/wasnorm_wordpool.txt	LTP105	ltpFR	9	1	1	TRUCK	1512	n/a	n/a	0	n/a	0	0	0	n/a	n/a	n/a	n/a	n/a
216082	START	n/a	LTP105	ltpFR	9	n/a	n/a	n/a	n/a	n/a	n/a	n/a	n/a	n/a	n/a	n/a	n/a	n/a	n/a	n/a	n/a
217582	PROB	n/a	LTP105	ltpFR	9	n/a	n/a	n/a	n/a	n/a	n/a	n/a	20	6	5	9	n/a	n/a	n/a	n/a	n/a
219632	PROB	n/a	LTP105	ltpFR	9	n/a	n/a	n/a	n/a	n/a	n/a	n/a	16	5	5	6	n/a	n/a	n/a	n/a	n/a
220831	PROB	n/a	LTP105	ltpFR	9	n/a	n/a	n/a	n/a	n/a	n/a	n/a	9	2	2	5	n/a	n/a	n/a	n/a	n/a
222064	PROB	n/a	LTP105	ltpFR	9	n/a	n/a	n/a	n/a	n/a	n/a	n/a	6	1	2	3	n/a	n/a	n/a	n/a	n/a
223252	STOP	n/a	LTP105	ltpFR	9	n/a	n/a	n/a	n/a	n/a	n/a	n/a	n/a	n/a	n/a	n/a	n/a	n/a	n/a	n/a	n/a
225022	WORD	wordpools/wasnorm_wordpool.txt	LTP105	ltpFR	9	2	1	DESIGNER	451	n/a	n/a	1	n/a	0	0	0	0.422607421875	0.5869140625	0	upper	amplitud.ttf
228031	START	n/a	LTP105	ltpFR	9	n/a	n/a	n/a	n/a	n/a	n/a	n/a	n/a	n/a	n/a	n/a	n/a	n/a	n/a	n/a	n/a
228855	PROB	n/a	LTP105	ltpFR	9	n/a	n/a	n/a	n/a	n/a	n/a	n/a	16	6	7	3	n/a	n/a	n/a	n/a	n/a
230314	PROB	n/a	LTP105	ltpFR	9	n/a	n/a	n/a	n/a	n/a	n/a	n/a	17	1	9	7	n/a	n/a	n/a	n/a	n/a
231764	PROB	n/a	LTP105	ltpFR	9	n/a	n/a	n/a	n/a	n/a	n/a	n/a	18	6	5	7	n/a	n/a	n/a	n/a	n/a
232913	PROB	n/a	LTP105	ltpFR	9	n/a	n/a	n/a	n/a	n/a	n/a	n/a	19	9	6	4	n/a	n/a	n/a	n/a	n/a
234780	STOP	n/a	LTP105	ltpFR	9	n/a	n/a	n/a	n/a	n/a	n/a	n/a	n/a	n/a	n/a	n/a	n/a	n/a	n/a	n/a	n/a
237013	WORD	wordpools/wasnorm_wordpool.txt	LTP105	ltpFR	9	2	1	CANAL	226	n/a	n/a	0	n/a	0	0	0	0.422607421875	0.5869140625	0	upper	amplitud.ttf
240022	START	n/a	LTP105	ltpFR	9	n/a	n/a	n/a	n/a	n/a	n/a	n/a	n/a	n/a	n/a	n/a	n/a	n/a	n/a	n/a	n/a
241188	PROB	n/a	LTP105	ltpFR	9	n/a	n/a	n/a	n/a	n/a	n/a	n/a	20	9	2	9	n/a	n/a	n/a	n/a	n/a
243454	PROB	n/a	LTP105	ltpFR	9	n/a	n/a	n/a	n/a	n/a	n/a	n/a	19	9	8	2	n/a	n/a	n/a	n/a	n/a
245096	PROB	n/a	LTP105	ltpFR	9	n/a	n/a	n/a	n/a	n/a	n/a	n/a	10	2	5	3	n/a	n/a	n/a	n/a	n/a
246279	PROB	n/a	LTP105	ltpFR	9	n/a	n/a	n/a	n/a	n/a	n/a	n/a	9	3	1	5	n/a	n/a	n/a	n/a	n/a
247324	STOP	n/a	LTP105	ltpFR	9	n/a	n/a	n/a	n/a	n/a	n/a	n/a	n/a	n/a	n/a	n/a	n/a	n/a	n/a	n/a	n/a
249095	WORD	wordpools/wasnorm_wordpool.txt	LTP105	ltpFR	9	2	0	CLOVE	329	n/a	n/a	0	n/a	0	0	0	0.57763671875	0.412841796875	1	lower	zerothre.ttf
252096	START	n/a	LTP105	ltpFR	9	n/a	n/a	n/a	n/a	n/a	n/a	n/a	n/a	n/a	n/a	n/a	n/a	n/a	n/a	n/a	n/a
252987	PROB	n/a	LTP105	ltpFR	9	n/a	n/a	n/a	n/a	n/a	n/a	n/a	17	6	3	8	n/a	n/a	n/a	n/a	n/a
255128	PROB	n/a	LTP105	ltpFR	9	n/a	n/a	n/a	n/a	n/a	n/a	n/a	18	8	1	9	n/a	n/a	n/a	n/a	n/a
256295	PROB	n/a	LTP105	ltpFR	9	n/a	n/a	n/a	n/a	n/a	n/a	n/a	13	3	5	5	n/a	n/a	n/a	n/a	n/a
257861	PROB	n/a	LTP105	ltpFR	9	n/a	n/a	n/a	n/a	n/a	n/a	n/a	18	6	3	7	n/a	n/a	n/a	n/a	n/a
260012	STOP	n/a	LTP105	ltpFR	9	n/a	n/a	n/a	n/a	n/a	n/a	n/a	n/a	n/a	n/a	n/a	n/a	n/a	n/a	n/a	n/a
261044	WORD	wordpools/wasnorm_wordpool.txt	LTP105	ltpFR	9	2	0	ELM	527	n/a	n/a	1	n/a	0	0	0	0.57763671875	0.412841796875	1	lower	zerothre.ttf
264045	START	n/a	LTP105	ltpFR	9	n/a	n/a	n/a	n/a	n/a	n/a	n/a	n/a	n/a	n/a	n/a	n/a	n/a	n/a	n/a	n/a
265244	PROB	n/a	LTP105	ltpFR	9	n/a	n/a	n/a	n/a	n/a	n/a	n/a	16	3	6	7	n/a	n/a	n/a	n/a	n/a
268319	PROB	n/a	LTP105	ltpFR	9	n/a	n/a	n/a	n/a	n/a	n/a	n/a	13	8	3	2	n/a	n/a	n/a	n/a	n/a
269570	PROB	n/a	LTP105	ltpFR	9	n/a	n/a	n/a	n/a	n/a	n/a	n/a	14	4	2	8	n/a	n/a	n/a	n/a	n/a
271788	STOP	n/a	LTP105	ltpFR	9	n/a	n/a	n/a	n/a	n/a	n/a	n/a	n/a	n/a	n/a	n/a	n/a	n/a	n/a	n/a	n/a
272869	WORD	wordpools/wasnorm_wordpool.txt	LTP105	ltpFR	9	2	0	ORNAMENT	985	n/a	n/a	0	n/a	0	0	0	0.57763671875	0.412841796875	1	lower	zerothre.ttf
275877	START	n/a	LTP105	ltpFR	9	n/a	n/a	n/a	n/a	n/a	n/a	n/a	n/a	n/a	n/a	n/a	n/a	n/a	n/a	n/a	n/a
276868	PROB	n/a	LTP105	ltpFR	9	n/a	n/a	n/a	n/a	n/a	n/a	n/a	10	6	3	1	n/a	n/a	n/a	n/a	n/a
278143	PROB	n/a	LTP105	ltpFR	9	n/a	n/a	n/a	n/a	n/a	n/a	n/a	20	8	6	8	n/a	n/a	n/a	n/a	n/a
280611	PROB	n/a	LTP105	ltpFR	9	n/a	n/a	n/a	n/a	n/a	n/a	n/a	9	2	2	5	n/a	n/a	n/a	n/a	n/a
282043	PROB	n/a	LTP105	ltpFR	9	n/a	n/a	n/a	n/a	n/a	n/a	n/a	13	1	3	9	n/a	n/a	n/a	n/a	n/a
283380	STOP	n/a	LTP105	ltpFR	9	n/a	n/a	n/a	n/a	n/a	n/a	n/a	n/a	n/a	n/a	n/a	n/a	n/a	n/a	n/a	n/a
284752	WORD	wordpools/wasnorm_wordpool.txt	LTP105	ltpFR	9	2	0	GULL	671	n/a	n/a	1	n/a	0	0	0	0.57763671875	0.412841796875	1	lower	zerothre.ttf
287761	START	n/a	LTP105	ltpFR	9	n/a	n/a	n/a	n/a	n/a	n/a	n/a	n/a	n/a	n/a	n/a	n/a	n/a	n/a	n/a	n/a
288610	PROB	n/a	LTP105	ltpFR	9	n/a	n/a	n/a	n/a	n/a	n/a	n/a	14	8	5	1	n/a	n/a	n/a	n/a	n/a
290017	PROB	n/a	LTP105	ltpFR	9	n/a	n/a	n/a	n/a	n/a	n/a	n/a	16	7	1	9	n/a	n/a	n/a	n/a	n/a
292175	PROB	n/a	LTP105	ltpFR	9	n/a	n/a	n/a	n/a	n/a	n/a	n/a	14	2	9	3	n/a	n/a	n/a	n/a	n/a
293934	PROB	n/a	LTP105	ltpFR	9	n/a	n/a	n/a	n/a	n/a	n/a	n/a	9	2	3	4	n/a	n/a	n/a	n/a	n/a
295060	STOP	n/a	LTP105	ltpFR	9	n/a	n/a	n/a	n/a	n/a	n/a	n/a	n/a	n/a	n/a	n/a	n/a	n/a	n/a	n/a	n/a
296626	WORD	wordpools/wasnorm_wordpool.txt	LTP105	ltpFR	9	2	1	POISON	1096	n/a	n/a	0	n/a	0	0	0	0.422607421875	0.5869140625	0	upper	amplitud.ttf
299635	START	n/a	LTP105	ltpFR	9	n/a	n/a	n/a	n/a	n/a	n/a	n/a	n/a	n/a	n/a	n/a	n/a	n/a	n/a	n/a	n/a
300551	PROB	n/a	LTP105	ltpFR	9	n/a	n/a	n/a	n/a	n/a	n/a	n/a	18	2	9	7	n/a	n/a	n/a	n/a	n/a
302525	PROB	n/a	LTP105	ltpFR	9	n/a	n/a	n/a	n/a	n/a	n/a	n/a	16	1	8	7	n/a	n/a	n/a	n/a	n/a
303900	PROB	n/a	LTP105	ltpFR	9	n/a	n/a	n/a	n/a	n/a	n/a	n/a	15	7	7	1	n/a	n/a	n/a	n/a	n/a
307635	STOP	n/a	LTP105	ltpFR	9	n/a	n/a	n/a	n/a	n/a	n/a	n/a	n/a	n/a	n/a	n/a	n/a	n/a	n/a	n/a	n/a
308584	WORD	wordpools/wasnorm_wordpool.txt	LTP105	ltpFR	9	2	1	PAINTER	1004	n/a	n/a	3	n/a	0	0	0	0.422607421875	0.5869140625	0	upper	amplitud.ttf
310257	KEY_MSG	n/a	LTP105	ltpFR	9	2	n/a	n/a	n/a	n/a	n/a	n/a	n/a	0	0	0	n/a	n/a	n/a	n/a	n/a
311767	START	n/a	LTP105	ltpFR	9	n/a	n/a	n/a	n/a	n/a	n/a	n/a	n/a	n/a	n/a	n/a	n/a	n/a	n/a	n/a	n/a
312957	PROB	n/a	LTP105	ltpFR	9	n/a	n/a	n/a	n/a	n/a	n/a	n/a	17	8	8	1	n/a	n/a	n/a	n/a	n/a
314758	PROB	n/a	LTP105	ltpFR	9	n/a	n/a	n/a	n/a	n/a	n/a	n/a	14	3	2	9	n/a	n/a	n/a	n/a	n/a
316215	PROB	n/a	LTP105	ltpFR	9	n/a	n/a	n/a	n/a	n/a	n/a	n/a	16	2	7	7	n/a	n/a	n/a	n/a	n/a
318132	PROB	n/a	LTP105	ltpFR	9	n/a	n/a	n/a	n/a	n/a	n/a	n/a	15	9	4	2	n/a	n/a	n/a	n/a	n/a
319613	STOP	n/a	LTP105	ltpFR	9	n/a	n/a	n/a	n/a	n/a	n/a	n/a	n/a	n/a	n/a	n/a	n/a	n/a	n/a	n/a	n/a
320633	WORD	wordpools/wasnorm_wordpool.txt	LTP105	ltpFR	9	2	1	SCRIBBLE	1256	n/a	n/a	0	n/a	0	0	0	0.422607421875	0.5869140625	0	upper	amplitud.ttf
323641	START	n/a	LTP105	ltpFR	9	n/a	n/a	n/a	n/a	n/a	n/a	n/a	n/a	n/a	n/a	n/a	n/a	n/a	n/a	n/a	n/a
324599	PROB	n/a	LTP105	ltpFR	9	n/a	n/a	n/a	n/a	n/a	n/a	n/a	15	7	2	6	n/a	n/a	n/a	n/a	n/a
327031	PROB	n/a	LTP105	ltpFR	9	n/a	n/a	n/a	n/a	n/a	n/a	n/a	16	6	6	4	n/a	n/a	n/a	n/a	n/a
331641	STOP	n/a	LTP105	ltpFR	9	n/a	n/a	n/a	n/a	n/a	n/a	n/a	n/a	n/a	n/a	n/a	n/a	n/a	n/a	n/a	n/a
332723	WORD	wordpools/wasnorm_wordpool.txt	LTP105	ltpFR	9	2	1	CONCRETE	361	n/a	n/a	0	n/a	0	0	0	0.422607421875	0.5869140625	0	upper	amplitud.ttf
335724	START	n/a	LTP105	ltpFR	9	n/a	n/a	n/a	n/a	n/a	n/a	n/a	n/a	n/a	n/a	n/a	n/a	n/a	n/a	n/a	n/a
336573	PROB	n/a	LTP105	ltpFR	9	n/a	n/a	n/a	n/a	n/a	n/a	n/a	15	4	4	7	n/a	n/a	n/a	n/a	n/a
337964	PROB	n/a	LTP105	ltpFR	9	n/a	n/a	n/a	n/a	n/a	n/a	n/a	11	4	2	5	n/a	n/a	n/a	n/a	n/a
339238	PROB	n/a	LTP105	ltpFR	9	n/a	n/a	n/a	n/a	n/a	n/a	n/a	16	4	7	5	n/a	n/a	n/a	n/a	n/a
341163	PROB	n/a	LTP105	ltpFR	9	n/a	n/a	n/a	n/a	n/a	n/a	n/a	18	3	8	7	n/a	n/a	n/a	n/a	n/a
342436	STOP	n/a	LTP105	ltpFR	9	n/a	n/a	n/a	n/a	n/a	n/a	n/a	n/a	n/a	n/a	n/a	n/a	n/a	n/a	n/a	n/a
344689	WORD	wordpools/wasnorm_wordpool.txt	LTP105	ltpFR	9	2	0	PIER	1063	n/a	n/a	1	n/a	0	0	0	0.57763671875	0.412841796875	1	lower	zerothre.ttf
347698	START	n/a	LTP105	ltpFR	9	n/a	n/a	n/a	n/a	n/a	n/a	n/a	n/a	n/a	n/a	n/a	n/a	n/a	n/a	n/a	n/a
348622	PROB	n/a	LTP105	ltpFR	9	n/a	n/a	n/a	n/a	n/a	n/a	n/a	25	8	8	9	n/a	n/a	n/a	n/a	n/a
350438	PROB	n/a	LTP105	ltpFR	9	n/a	n/a	n/a	n/a	n/a	n/a	n/a	15	7	1	7	n/a	n/a	n/a	n/a	n/a
351812	PROB	n/a	LTP105	ltpFR	9	n/a	n/a	n/a	n/a	n/a	n/a	n/a	18	4	8	6	n/a	n/a	n/a	n/a	n/a
355698	STOP	n/a	LTP105	ltpFR	9	n/a	n/a	n/a	n/a	n/a	n/a	n/a	n/a	n/a	n/a	n/a	n/a	n/a	n/a	n/a	n/a
356538	WORD	wordpools/wasnorm_wordpool.txt	LTP105	ltpFR	9	2	0	COWARD	394	n/a	n/a	1	n/a	0	0	0	0.57763671875	0.412841796875	1	lower	zerothre.ttf
359547	START	n/a	LTP105	ltpFR	9	n/a	n/a	n/a	n/a	n/a	n/a	n/a	n/a	n/a	n/a	n/a	n/a	n/a	n/a	n/a	n/a
360613	PROB	n/a	LTP105	ltpFR	9	n/a	n/a	n/a	n/a	n/a	n/a	n/a	19	6	6	7	n/a	n/a	n/a	n/a	n/a
363763	PROB	n/a	LTP105	ltpFR	9	n/a	n/a	n/a	n/a	n/a	n/a	n/a	11	4	3	4	n/a	n/a	n/a	n/a	n/a
365370	PROB	n/a	LTP105	ltpFR	9	n/a	n/a	n/a	n/a	n/a	n/a	n/a	13	5	7	1	n/a	n/a	n/a	n/a	n/a
366460	STOP	n/a	LTP105	ltpFR	9	n/a	n/a	n/a	n/a	n/a	n/a	n/a	n/a	n/a	n/a	n/a	n/a	n/a	n/a	n/a	n/a
368671	WORD	wordpools/wasnorm_wordpool.txt	LTP105	ltpFR	9	2	0	BACON	67	n/a	n/a	0	n/a	0	0	0	0.57763671875	0.412841796875	1	lower	zerothre.ttf
371679	START	n/a	LTP105	ltpFR	9	n/a	n/a	n/a	n/a	n/a	n/a	n/a	n/a	n/a	n/a	n/a	n/a	n/a	n/a	n/a	n/a
372645	PROB	n/a	LTP105	ltpFR	9	n/a	n/a	n/a	n/a	n/a	n/a	n/a	17	3	8	6	n/a	n/a	n/a	n/a	n/a
374177	PROB	n/a	LTP105	ltpFR	9	n/a	n/a	n/a	n/a	n/a	n/a	n/a	13	6	6	1	n/a	n/a	n/a	n/a	n/a
375336	PROB	n/a	LTP105	ltpFR	9	n/a	n/a	n/a	n/a	n/a	n/a	n/a	15	7	4	4	n/a	n/a	n/a	n/a	n/a
376637	PROB	n/a	LTP105	ltpFR	9	n/a	n/a	n/a	n/a	n/a	n/a	n/a	16	8	2	6	n/a	n/a	n/a	n/a	n/a
377961	PROB	n/a	LTP105	ltpFR	9	n/a	n/a	n/a	n/a	n/a	n/a	n/a	12	5	4	3	n/a	n/a	n/a	n/a	n/a
379212	STOP	n/a	LTP105	ltpFR	9	n/a	n/a	n/a	n/a	n/a	n/a	n/a	n/a	n/a	n/a	n/a	n/a	n/a	n/a	n/a	n/a
380877	WORD	wordpools/wasnorm_wordpool.txt	LTP105	ltpFR	9	2	0	OMELET	976	n/a	n/a	0	n/a	0	0	0	0.57763671875	0.412841796875	1	lower	zerothre.ttf
383885	START	n/a	LTP105	ltpFR	9	n/a	n/a	n/a	n/a	n/a	n/a	n/a	n/a	n/a	n/a	n/a	n/a	n/a	n/a	n/a	n/a
384777	PROB	n/a	LTP105	ltpFR	9	n/a	n/a	n/a	n/a	n/a	n/a	n/a	14	7	3	4	n/a	n/a	n/a	n/a	n/a
386085	PROB	n/a	LTP105	ltpFR	9	n/a	n/a	n/a	n/a	n/a	n/a	n/a	13	2	7	4	n/a	n/a	n/a	n/a	n/a
387960	PROB	n/a	LTP105	ltpFR	9	n/a	n/a	n/a	n/a	n/a	n/a	n/a	26	9	7	7	n/a	n/a	n/a	n/a	n/a
391885	STOP	n/a	LTP105	ltpFR	9	n/a	n/a	n/a	n/a	n/a	n/a	n/a	n/a	n/a	n/a	n/a	n/a	n/a	n/a	n/a	n/a
392744	WORD	wordpools/wasnorm_wordpool.txt	LTP105	ltpFR	9	2	1	FORT	595	n/a	n/a	0	n/a	0	0	0	0.422607421875	0.5869140625	0	upper	amplitud.ttf
395752	START	n/a	LTP105	ltpFR	9	n/a	n/a	n/a	n/a	n/a	n/a	n/a	n/a	n/a	n/a	n/a	n/a	n/a	n/a	n/a	n/a
396660	PROB	n/a	LTP105	ltpFR	9	n/a	n/a	n/a	n/a	n/a	n/a	n/a	16	7	5	4	n/a	n/a	n/a	n/a	n/a
398426	PROB	n/a	LTP105	ltpFR	9	n/a	n/a	n/a	n/a	n/a	n/a	n/a	18	9	5	4	n/a	n/a	n/a	n/a	n/a
400909	PROB	n/a	LTP105	ltpFR	9	n/a	n/a	n/a	n/a	n/a	n/a	n/a	9	1	2	6	n/a	n/a	n/a	n/a	n/a
402308	STOP	n/a	LTP105	ltpFR	9	n/a	n/a	n/a	n/a	n/a	n/a	n/a	n/a	n/a	n/a	n/a	n/a	n/a	n/a	n/a	n/a
404618	WORD	wordpools/wasnorm_wordpool.txt	LTP105	ltpFR	9	2	1	CINNAMON	310	n/a	n/a	0	n/a	0	0	0	0.422607421875	0.5869140625	0	upper	amplitud.ttf
407626	START	n/a	LTP105	ltpFR	9	n/a	n/a	n/a	n/a	n/a	n/a	n/a	n/a	n/a	n/a	n/a	n/a	n/a	n/a	n/a	n/a
408559	PROB	n/a	LTP105	ltpFR	9	n/a	n/a	n/a	n/a	n/a	n/a	n/a	15	3	3	6	n/a	n/a	n/a	n/a	n/a
410233	PROB	n/a	LTP105	ltpFR	9	n/a	n/a	n/a	n/a	n/a	n/a	n/a	14	4	8	2	n/a	n/a	n/a	n/a	n/a
412709	PROB	n/a	LTP105	ltpFR	9	n/a	n/a	n/a	n/a	n/a	n/a	n/a	17	4	6	7	n/a	n/a	n/a	n/a	n/a
414924	STOP	n/a	LTP105	ltpFR	9	n/a	n/a	n/a	n/a	n/a	n/a	n/a	n/a	n/a	n/a	n/a	n/a	n/a	n/a	n/a	n/a
417383	REC_START	n/a	LTP105	ltpFR	9	2	n/a	n/a	n/a	n/a	n/a	n/a	n/a	0	0	0	n/a	n/a	n/a	n/a	n/a
419752	REC_WORD	wordpools/wasnorm_wordpool.txt	LTP105	ltpFR	9	2	1	FORT	595	n/a	n/a	0	n/a	0	0	0	n/a	n/a	n/a	n/a	n/a
420640	REC_WORD	wordpools/wasnorm_wordpool.txt	LTP105	ltpFR	9	2	1	CINNAMON	310	n/a	n/a	0	n/a	0	0	0	n/a	n/a	n/a	n/a	n/a
421967	REC_WORD	wordpools/wasnorm_wordpool.txt	LTP105	ltpFR	9	2	0	BACON	67	n/a	n/a	0	n/a	0	0	0	n/a	n/a	n/a	n/a	n/a
422905	REC_WORD	wordpools/wasnorm_wordpool.txt	LTP105	ltpFR	9	2	0	OMELET	976	n/a	n/a	0	n/a	0	0	0	n/a	n/a	n/a	n/a	n/a
424217	REC_WORD	wordpools/wasnorm_wordpool.txt	LTP105	ltpFR	9	2	0	PIER	1063	n/a	n/a	1	n/a	0	0	0	n/a	n/a	n/a	n/a	n/a
429939	REC_WORD	wordpools/wasnorm_wordpool.txt	LTP105	ltpFR	9	2	n/a	TERROR	-1	n/a	n/a	n/a	n/a	0	0	0	n/a	n/a	n/a	n/a	n/a
432773	REC_WORD	wordpools/wasnorm_wordpool.txt	LTP105	ltpFR	9	2	1	CONCRETE	361	n/a	n/a	0	n/a	0	0	0	n/a	n/a	n/a	n/a	n/a
433621	REC_WORD	wordpools/wasnorm_wordpool.txt	LTP105	ltpFR	9	2	1	SCRIBBLE	1256	n/a	n/a	0	n/a	0	0	0	n/a	n/a	n/a	n/a	n/a
434639	REC_WORD	wordpools/wasnorm_wordpool.txt	LTP105	ltpFR	9	2	1	PAINTER	1004	n/a	n/a	3	n/a	0	0	0	n/a	n/a	n/a	n/a	n/a
435666	REC_WORD	wordpools/wasnorm_wordpool.txt	LTP105	ltpFR	9	2	0	GULL	671	n/a	n/a	1	n/a	0	0	0	n/a	n/a	n/a	n/a	n/a
436664	REC_WORD	wordpools/wasnorm_wordpool.txt	LTP105	ltpFR	9	2	1	POISON	1096	n/a	n/a	0	n/a	0	0	0	n/a	n/a	n/a	n/a	n/a
437826	REC_WORD	wordpools/wasnorm_wordpool.txt	LTP105	ltpFR	9	2	0	ORNAMENT	985	n/a	n/a	0	n/a	0	0	0	n/a	n/a	n/a	n/a	n/a
438779	REC_WORD	wordpools/wasnorm_wordpool.txt	LTP105	ltpFR	9	2	n/a	TREE	1502	n/a	n/a	n/a	n/a	0	0	0	n/a	n/a	n/a	n/a	n/a
493502	START	n/a	LTP105	ltpFR	9	n/a	n/a	n/a	n/a	n/a	n/a	n/a	n/a	n/a	n/a	n/a	n/a	n/a	n/a	n/a	n/a
495010	PROB	n/a	LTP105	ltpFR	9	n/a	n/a	n/a	n/a	n/a	n/a	n/a	13	5	6	2	n/a	n/a	n/a	n/a	n/a
497301	PROB	n/a	LTP105	ltpFR	9	n/a	n/a	n/a	n/a	n/a	n/a	n/a	14	5	3	6	n/a	n/a	n/a	n/a	n/a
498669	PROB	n/a	LTP105	ltpFR	9	n/a	n/a	n/a	n/a	n/a	n/a	n/a	16	3	5	8	n/a	n/a	n/a	n/a	n/a
499868	PROB	n/a	LTP105	ltpFR	9	n/a	n/a	n/a	n/a	n/a	n/a	n/a	5	3	1	1	n/a	n/a	n/a	n/a	n/a
501252	STOP	n/a	LTP105	ltpFR	9	n/a	n/a	n/a	n/a	n/a	n/a	n/a	n/a	n/a	n/a	n/a	n/a	n/a	n/a	n/a	n/a
502409	WORD	wordpools/wasnorm_wordpool.txt	LTP105	ltpFR	9	3	1	INSTRUCTOR	741	n/a	n/a	1	n/a	0	0	0	0.422607421875	0.5869140625	0	upper	amplitud.ttf
505418	START	n/a	LTP105	ltpFR	9	n/a	n/a	n/a	n/a	n/a	n/a	n/a	n/a	n/a	n/a	n/a	n/a	n/a	n/a	n/a	n/a
506568	PROB	n/a	LTP105	ltpFR	9	n/a	n/a	n/a	n/a	n/a	n/a	n/a	12	1	7	4	n/a	n/a	n/a	n/a	n/a
508042	PROB	n/a	LTP105	ltpFR	9	n/a	n/a	n/a	n/a	n/a	n/a	n/a	13	9	2	1	n/a	n/a	n/a	n/a	n/a
509284	PROB	n/a	LTP105	ltpFR	9	n/a	n/a	n/a	n/a	n/a	n/a	n/a	9	1	6	2	n/a	n/a	n/a	n/a	n/a
512228	STOP	n/a	LTP105	ltpFR	9	n/a	n/a	n/a	n/a	n/a	n/a	n/a	n/a	n/a	n/a	n/a	n/a	n/a	n/a	n/a	n/a
514392	WORD	wordpools/wasnorm_wordpool.txt	LTP105	ltpFR	9	3	1	CAFE	216	n/a	n/a	0	n/a	0	0	0	0.422607421875	0.5869140625	0	upper	amplitud.ttf
517400	START	n/a	LTP105	ltpFR	9	n/a	n/a	n/a	n/a	n/a	n/a	n/a	n/a	n/a	n/a	n/a	n/a	n/a	n/a	n/a	n/a
518491	PROB	n/a	LTP105	ltpFR	9	n/a	n/a	n/a	n/a	n/a	n/a	n/a	11	5	1	5	n/a	n/a	n/a	n/a	n/a
519642	PROB	n/a	LTP105	ltpFR	9	n/a	n/a	n/a	n/a	n/a	n/a	n/a	9	7	1	1	n/a	n/a	n/a	n/a	n/a
521174	PROB	n/a	LTP105	ltpFR	9	n/a	n/a	n/a	n/a	n/a	n/a	n/a	11	4	1	6	n/a	n/a	n/a	n/a	n/a
522634	PROB	n/a	LTP105	ltpFR	9	n/a	n/a	n/a	n/a	n/a	n/a	n/a	6	2	3	1	n/a	n/a	n/a	n/a	n/a
523783	PROB	n/a	LTP105	ltpFR	9	n/a	n/a	n/a	n/a	n/a	n/a	n/a	12	5	5	2	n/a	n/a	n/a	n/a	n/a
524860	STOP	n/a	LTP105	ltpFR	9	n/a	n/a	n/a	n/a	n/a	n/a	n/a	n/a	n/a	n/a	n/a	n/a	n/a	n/a	n/a	n/a
526516	WORD	wordpools/wasnorm_wordpool.txt	LTP105	ltpFR	9	3	0	RAM	1165	n/a	n/a	1	n/a	0	0	0	0.57763671875	0.412841796875	1	lower	zerothre.ttf
529524	START	n/a	LTP105	ltpFR	9	n/a	n/a	n/a	n/a	n/a	n/a	n/a	n/a	n/a	n/a	n/a	n/a	n/a	n/a	n/a	n/a
530465	PROB	n/a	LTP105	ltpFR	9	n/a	n/a	n/a	n/a	n/a	n/a	n/a	12	6	5	1	n/a	n/a	n/a	n/a	n/a
531815	PROB	n/a	LTP105	ltpFR	9	n/a	n/a	n/a	n/a	n/a	n/a	n/a	15	7	3	5	n/a	n/a	n/a	n/a	n/a
532865	PROB	n/a	LTP105	ltpFR	9	n/a	n/a	n/a	n/a	n/a	n/a	n/a	11	2	2	7	n/a	n/a	n/a	n/a	n/a
534649	PROB	n/a	LTP105	ltpFR	9	n/a	n/a	n/a	n/a	n/a	n/a	n/a	7	2	4	1	n/a	n/a	n/a	n/a	n/a
536372	STOP	n/a	LTP105	ltpFR	9	n/a	n/a	n/a	n/a	n/a	n/a	n/a	n/a	n/a	n/a	n/a	n/a	n/a	n/a	n/a	n/a
538624	WORD	wordpools/wasnorm_wordpool.txt	LTP105	ltpFR	9	3	0	DIGGER	464	n/a	n/a	0	n/a	0	0	0	0.57763671875	0.412841796875	1	lower	zerothre.ttf
541633	START	n/a	LTP105	ltpFR	9	n/a	n/a	n/a	n/a	n/a	n/a	n/a	n/a	n/a	n/a	n/a	n/a	n/a	n/a	n/a	n/a
542674	PROB	n/a	LTP105	ltpFR	9	n/a	n/a	n/a	n/a	n/a	n/a	n/a	13	5	7	1	n/a	n/a	n/a	n/a	n/a
544198	PROB	n/a	LTP105	ltpFR	9	n/a	n/a	n/a	n/a	n/a	n/a	n/a	17	4	9	4	n/a	n/a	n/a	n/a	n/a
546114	PROB	n/a	LTP105	ltpFR	9	n/a	n/a	n/a	n/a	n/a	n/a	n/a	11	5	4	2	n/a	n/a	n/a	n/a	n/a
547548	PROB	n/a	LTP105	ltpFR	9	n/a	n/a	n/a	n/a	n/a	n/a	n/a	19	8	6	5	n/a	n/a	n/a	n/a	n/a
548868	STOP	n/a	LTP105	ltpFR	9	n/a	n/a	n/a	n/a	n/a	n/a	n/a	n/a	n/a	n/a	n/a	n/a	n/a	n/a	n/a	n/a
550648	WORD	wordpools/wasnorm_wordpool.txt	LTP105	ltpFR	9	3	0	GREASE	660	n/a	n/a	0	n/a	0	0	0	0.57763671875	0.412841796875	1	lower	zerothre.ttf
553657	START	n/a	LTP105	ltpFR	9	n/a	n/a	n/a	n/a	n/a	n/a	n/a	n/a	n/a	n/a	n/a	n/a	n/a	n/a	n/a	n/a
554615	PROB	n/a	LTP105	ltpFR	9	n/a	n/a	n/a	n/a	n/a	n/a	n/a	14	9	3	2	n/a	n/a	n/a	n/a	n/a
557080	PROB	n/a	LTP105	ltpFR	9	n/a	n/a	n/a	n/a	n/a	n/a	n/a	20	6	8	6	n/a	n/a	n/a	n/a	n/a
558397	PROB	n/a	LTP105	ltpFR	9	n/a	n/a	n/a	n/a	n/a	n/a	n/a	15	3	5	7	n/a	n/a	n/a	n/a	n/a
559672	PROB	n/a	LTP105	ltpFR	9	n/a	n/a	n/a	n/a	n/a	n/a	n/a	11	7	2	4	n/a	n/a	n/a	n/a	n/a
561364	STOP	n/a	LTP105	ltpFR	9	n/a	n/a	n/a	n/a	n/a	n/a	n/a	n/a	n/a	n/a	n/a	n/a	n/a	n/a	n/a	n/a
562531	WORD	wordpools/wasnorm_wordpool.txt	LTP105	ltpFR	9	3	1	ASHTRAY	45	n/a	n/a	0	n/a	0	0	0	0.422607421875	0.5869140625	0	upper	amplitud.ttf
565539	START	n/a	LTP105	ltpFR	9	n/a	n/a	n/a	n/a	n/a	n/a	n/a	n/a	n/a	n/a	n/a	n/a	n/a	n/a	n/a	n/a
566396	PROB	n/a	LTP105	ltpFR	9	n/a	n/a	n/a	n/a	n/a	n/a	n/a	18	8	5	5	n/a	n/a	n/a	n/a	n/a
568705	PROB	n/a	LTP105	ltpFR	9	n/a	n/a	n/a	n/a	n/a	n/a	n/a	8	5	1	2	n/a	n/a	n/a	n/a	n/a
569871	PROB	n/a	LTP105	ltpFR	9	n/a	n/a	n/a	n/a	n/a	n/a	n/a	12	7	4	1	n/a	n/a	n/a	n/a	n/a
571371	PROB	n/a	LTP105	ltpFR	9	n/a	n/a	n/a	n/a	n/a	n/a	n/a	10	2	5	3	n/a	n/a	n/a	n/a	n/a
572661	STOP	n/a	LTP105	ltpFR	9	n/a	n/a	n/a	n/a	n/a	n/a	n/a	n/a	n/a	n/a	n/a	n/a	n/a	n/a	n/a	n/a
574730	WORD	wordpools/wasnorm_wordpool.txt	LTP105	ltpFR	9	3	1	CUBE	420	n/a	n/a	0	n/a	0	0	0	0.422607421875	0.5869140625	0	upper	amplitud.ttf
577738	START	n/a	LTP105	ltpFR	9	n/a	n/a	n/a	n/a	n/a	n/a	n/a	n/a	n/a	n/a	n/a	n/a	n/a	n/a	n/a	n/a
578870	PROB	n/a	LTP105	ltpFR	9	n/a	n/a	n/a	n/a	n/a	n/a	n/a	8	6	1	1	n/a	n/a	n/a	n/a	n/a
580679	PROB	n/a	LTP105	ltpFR	9	n/a	n/a	n/a	n/a	n/a	n/a	n/a	20	6	5	9	n/a	n/a	n/a	n/a	n/a
582537	PROB	n/a	LTP105	ltpFR	9	n/a	n/a	n/a	n/a	n/a	n/a	n/a	7	2	2	3	n/a	n/a	n/a	n/a	n/a
585557	STOP	n/a	LTP105	ltpFR	9	n/a	n/a	n/a	n/a	n/a	n/a	n/a	n/a	n/a	n/a	n/a	n/a	n/a	n/a	n/a	n/a
586587	WORD	wordpools/wasnorm_wordpool.txt	LTP105	ltpFR	9	3	1	TORTOISE	1486	n/a	n/a	1	n/a	0	0	0	0.422607421875	0.5869140625	0	upper	amplitud.ttf
589596	START	n/a	LTP105	ltpFR	9	n/a	n/a	n/a	n/a	n/a	n/a	n/a	n/a	n/a	n/a	n/a	n/a	n/a	n/a	n/a	n/a
590419	PROB	n/a	LTP105	ltpFR	9	n/a	n/a	n/a	n/a	n/a	n/a	n/a	17	7	9	1	n/a	n/a	n/a	n/a	n/a
592687	PROB	n/a	LTP105	ltpFR	9	n/a	n/a	n/a	n/a	n/a	n/a	n/a	8	4	1	3	n/a	n/a	n/a	n/a	n/a
594260	PROB	n/a	LTP105	ltpFR	9	n/a	n/a	n/a	n/a	n/a	n/a	n/a	13	5	5	3	n/a	n/a	n/a	n/a	n/a
595344	PROB	n/a	LTP105	ltpFR	9	n/a	n/a	n/a	n/a	n/a	n/a	n/a	16	6	5	5	n/a	n/a	n/a	n/a	n/a
596533	STOP	n/a	LTP105	ltpFR	9	n/a	n/a	n/a	n/a	n/a	n/a	n/a	n/a	n/a	n/a	n/a	n/a	n/a	n/a	n/a	n/a
598444	WORD	wordpools/wasnorm_wordpool.txt	LTP105	ltpFR	9	3	0	SHEEP	1278	n/a	n/a	1	n/a	0	0	0	0.57763671875	0.412841796875	1	lower	zerothre.ttf
601452	START	n/a	LTP105	ltpFR	9	n/a	n/a	n/a	n/a	n/a	n/a	n/a	n/a	n/a	n/a	n/a	n/a	n/a	n/a	n/a	n/a
602460	PROB	n/a	LTP105	ltpFR	9	n/a	n/a	n/a	n/a	n/a	n/a	n/a	18	6	7	5	n/a	n/a	n/a	n/a	n/a
604093	PROB	n/a	LTP105	ltpFR	9	n/a	n/a	n/a	n/a	n/a	n/a	n/a	15	2	5	8	n/a	n/a	n/a	n/a	n/a
605686	PROB	n/a	LTP105	ltpFR	9	n/a	n/a	n/a	n/a	n/a	n/a	n/a	13	1	6	6	n/a	n/a	n/a	n/a	n/a
608380	STOP	n/a	LTP105	ltpFR	9	n/a	n/a	n/a	n/a	n/a	n/a	n/a	n/a	n/a	n/a	n/a	n/a	n/a	n/a	n/a	n/a
610334	WORD	wordpools/wasnorm_wordpool.txt	LTP105	ltpFR	9	3	0	SHEPHERD	1283	n/a	n/a	1	n/a	0	0	0	0.57763671875	0.412841796875	1	lower	zerothre.ttf
613343	START	n/a	LTP105	ltpFR	9	n/a	n/a	n/a	n/a	n/a	n/a	n/a	n/a	n/a	n/a	n/a	n/a	n/a	n/a	n/a	n/a
614501	PROB	n/a	LTP105	ltpFR	9	n/a	n/a	n/a	n/a	n/a	n/a	n/a	21	6	7	8	n/a	n/a	n/a	n/a	n/a
617184	PROB	n/a	LTP105	ltpFR	9	n/a	n/a	n/a	n/a	n/a	n/a	n/a	14	8	5	1	n/a	n/a	n/a	n/a	n/a
621343	STOP	n/a	LTP105	ltpFR	9	n/a	n/a	n/a	n/a	n/a	n/a	n/a	n/a	n/a	n/a	n/a	n/a	n/a	n/a	n/a	n/a
622342	WORD	wordpools/wasnorm_wordpool.txt	LTP105	ltpFR	9	3	0	PIPE	1073	n/a	n/a	0	n/a	0	0	0	0.57763671875	0.412841796875	1	lower	zerothre.ttf
625350	START	n/a	LTP105	ltpFR	9	n/a	n/a	n/a	n/a	n/a	n/a	n/a	n/a	n/a	n/a	n/a	n/a	n/a	n/a	n/a	n/a
626283	PROB	n/a	LTP105	ltpFR	9	n/a	n/a	n/a	n/a	n/a	n/a	n/a	16	2	8	6	n/a	n/a	n/a	n/a	n/a
627751	PROB	n/a	LTP105	ltpFR	9	n/a	n/a	n/a	n/a	n/a	n/a	n/a	9	4	2	3	n/a	n/a	n/a	n/a	n/a
629158	PROB	n/a	LTP105	ltpFR	9	n/a	n/a	n/a	n/a	n/a	n/a	n/a	11	5	2	2	n/a	n/a	n/a	n/a	n/a
633350	STOP	n/a	LTP105	ltpFR	9	n/a	n/a	n/a	n/a	n/a	n/a	n/a	n/a	n/a	n/a	n/a	n/a	n/a	n/a	n/a	n/a
634266	WORD	wordpools/wasnorm_wordpool.txt	LTP105	ltpFR	9	3	0	PUPPY	1144	n/a	n/a	1	n/a	0	0	0	0.57763671875	0.412841796875	1	lower	zerothre.ttf
637274	START	n/a	LTP105	ltpFR	9	n/a	n/a	n/a	n/a	n/a	n/a	n/a	n/a	n/a	n/a	n/a	n/a	n/a	n/a	n/a	n/a
638165	PROB	n/a	LTP105	ltpFR	9	n/a	n/a	n/a	n/a	n/a	n/a	n/a	17	7	1	9	n/a	n/a	n/a	n/a	n/a
639949	PROB	n/a	LTP105	ltpFR	9	n/a	n/a	n/a	n/a	n/a	n/a	n/a	15	6	4	5	n/a	n/a	n/a	n/a	n/a
641332	PROB	n/a	LTP105	ltpFR	9	n/a	n/a	n/a	n/a	n/a	n/a	n/a	15	9	5	1	n/a	n/a	n/a	n/a	n/a
643190	PROB	n/a	LTP105	ltpFR	9	n/a	n/a	n/a	n/a	n/a	n/a	n/a	15	9	4	2	n/a	n/a	n/a	n/a	n/a
644796	STOP	n/a	LTP105	ltpFR	9	n/a	n/a	n/a	n/a	n/a	n/a	n/a	n/a	n/a	n/a	n/a	n/a	n/a	n/a	n/a	n/a
646365	WORD	wordpools/wasnorm_wordpool.txt	LTP105	ltpFR	9	3	0	SANDWICH	1232	n/a	n/a	0	n/a	0	0	0	0.57763671875	0.412841796875	1	lower	zerothre.ttf
649373	START	n/a	LTP105	ltpFR	9	n/a	n/a	n/a	n/a	n/a	n/a	n/a	n/a	n/a	n/a	n/a	n/a	n/a	n/a	n/a	n/a
650514	PROB	n/a	LTP105	ltpFR	9	n/a	n/a	n/a	n/a	n/a	n/a	n/a	11	2	1	8	n/a	n/a	n/a	n/a	n/a
651923	PROB	n/a	LTP105	ltpFR	9	n/a	n/a	n/a	n/a	n/a	n/a	n/a	22	9	7	6	n/a	n/a	n/a	n/a	n/a
654906	PROB	n/a	LTP105	ltpFR	9	n/a	n/a	n/a	n/a	n/a	n/a	n/a	11	4	4	3	n/a	n/a	n/a	n/a	n/a
656076	STOP	n/a	LTP105	ltpFR	9	n/a	n/a	n/a	n/a	n/a	n/a	n/a	n/a	n/a	n/a	n/a	n/a	n/a	n/a	n/a	n/a
658439	WORD	wordpools/wasnorm_wordpool.txt	LTP105	ltpFR	9	3	1	MAMMAL	861	n/a	n/a	1	n/a	0	0	0	0.422607421875	0.5869140625	0	upper	amplitud.ttf
661447	START	n/a	LTP105	ltpFR	9	n/a	n/a	n/a	n/a	n/a	n/a	n/a	n/a	n/a	n/a	n/a	n/a	n/a	n/a	n/a	n/a
662472	PROB	n/a	LTP105	ltpFR	9	n/a	n/a	n/a	n/a	n/a	n/a	n/a	17	3	9	2	n/a	n/a	n/a	n/a	n/a
664097	PROB	n/a	LTP105	ltpFR	9	n/a	n/a	n/a	n/a	n/a	n/a	n/a	17	9	7	1	n/a	n/a	n/a	n/a	n/a
666564	PROB	n/a	LTP105	ltpFR	9	n/a	n/a	n/a	n/a	n/a	n/a	n/a	14	4	8	2	n/a	n/a	n/a	n/a	n/a
667924	STOP	n/a	LTP105	ltpFR	9	n/a	n/a	n/a	n/a	n/a	n/a	n/a	n/a	n/a	n/a	n/a	n/a	n/a	n/a	n/a	n/a
670589	WORD	wordpools/wasnorm_wordpool.txt	LTP105	ltpFR	9	3	1	BEAST	108	n/a	n/a	1	n/a	0	0	0	0.422607421875	0.5869140625	0	upper	amplitud.ttf
673598	START	n/a	LTP105	ltpFR	9	n/a	n/a	n/a	n/a	n/a	n/a	n/a	n/a	n/a	n/a	n/a	n/a	n/a	n/a	n/a	n/a
674689	PROB	n/a	LTP105	ltpFR	9	n/a	n/a	n/a	n/a	n/a	n/a	n/a	12	1	7	4	n/a	n/a	n/a	n/a	n/a
675988	PROB	n/a	LTP105	ltpFR	9	n/a	n/a	n/a	n/a	n/a	n/a	n/a	21	7	8	6	n/a	n/a	n/a	n/a	n/a
677538	PROB	n/a	LTP105	ltpFR	9	n/a	n/a	n/a	n/a	n/a	n/a	n/a	17	7	4	6	n/a	n/a	n/a	n/a	n/a
679237	PROB	n/a	LTP105	ltpFR	9	n/a	n/a	n/a	n/a	n/a	n/a	n/a	18	8	4	6	n/a	n/a	n/a	n/a	n/a
680557	STOP	n/a	LTP105	ltpFR	9	n/a	n/a	n/a	n/a	n/a	n/a	n/a	n/a	n/a	n/a	n/a	n/a	n/a	n/a	n/a	n/a
682746	WORD	wordpools/wasnorm_wordpool.txt	LTP105	ltpFR	9	3	1	JAR	750	n/a	n/a	0	n/a	0	0	0	0.422607421875	0.5869140625	0	upper	amplitud.ttf
685746	START	n/a	LTP105	ltpFR	9	n/a	n/a	n/a	n/a	n/a	n/a	n/a	n/a	n/a	n/a	n/a	n/a	n/a	n/a	n/a	n/a
686596	PROB	n/a	LTP105	ltpFR	9	n/a	n/a	n/a	n/a	n/a	n/a	n/a	4	1	1	2	n/a	n/a	n/a	n/a	n/a
687604	PROB	n/a	LTP105	ltpFR	9	n/a	n/a	n/a	n/a	n/a	n/a	n/a	7	3	1	3	n/a	n/a	n/a	n/a	n/a
689020	PROB	n/a	LTP105	ltpFR	9	n/a	n/a	n/a	n/a	n/a	n/a	n/a	17	7	9	1	n/a	n/a	n/a	n/a	n/a
690746	PROB	n/a	LTP105	ltpFR	9	n/a	n/a	n/a	n/a	n/a	n/a	n/a	6	4	1	2	n/a	n/a	n/a	n/a	n/a
693746	STOP	n/a	LTP105	ltpFR	9	n/a	n/a	n/a	n/a	n/a	n/a	n/a	n/a	n/a	n/a	n/a	n/a	n/a	n/a	n/a	n/a
695538	REC_START	n/a	LTP105	ltpFR	9	3	n/a	n/a	n/a	n/a	n/a	n/a	n/a	0	0	0	n/a	n/a	n/a	n/a	n/a
698022	REC_WORD	wordpools/wasnorm_wordpool.txt	LTP105	ltpFR	9	3	1	MAMMAL	861	n/a	n/a	1	n/a	0	0	0	n/a	n/a	n/a	n/a	n/a
699135	REC_WORD	wordpools/wasnorm_wordpool.txt	LTP105	ltpFR	9	3	1	BEAST	108	n/a	n/a	1	n/a	0	0	0	n/a	n/a	n/a	n/a	n/a
700212	REC_WORD	wordpools/wasnorm_wordpool.txt	LTP105	ltpFR	9	3	0	PUPPY	1144	n/a	n/a	1	n/a	0	0	0	n/a	n/a	n/a	n/a	n/a
701380	REC_WORD	wordpools/wasnorm_wordpool.txt	LTP105	ltpFR	9	3	0	SANDWICH	1232	n/a	n/a	0	n/a	0	0	0	n/a	n/a	n/a	n/a	n/a
710209	REC_WORD	wordpools/wasnorm_wordpool.txt	LTP105	ltpFR	9	3	0	RAM	1165	n/a	n/a	1	n/a	0	0	0	n/a	n/a	n/a	n/a	n/a
711322	REC_WORD	wordpools/wasnorm_wordpool.txt	LTP105	ltpFR	9	3	0	DIGGER	464	n/a	n/a	0	n/a	0	0	0	n/a	n/a	n/a	n/a	n/a
712210	REC_WORD	wordpools/wasnorm_wordpool.txt	LTP105	ltpFR	9	3	0	GREASE	660	n/a	n/a	0	n/a	0	0	0	n/a	n/a	n/a	n/a	n/a
713143	REC_WORD	wordpools/wasnorm_wordpool.txt	LTP105	ltpFR	9	3	0	SHEEP	1278	n/a	n/a	1	n/a	0	0	0	n/a	n/a	n/a	n/a	n/a
714111	REC_WORD	wordpools/wasnorm_wordpool.txt	LTP105	ltpFR	9	3	0	SHEPHERD	1283	n/a	n/a	1	n/a	0	0	0	n/a	n/a	n/a	n/a	n/a
715333	REC_WORD	wordpools/wasnorm_wordpool.txt	LTP105	ltpFR	9	3	0	PIPE	1073	n/a	n/a	0	n/a	0	0	0	n/a	n/a	n/a	n/a	n/a
716575	REC_WORD	wordpools/wasnorm_wordpool.txt	LTP105	ltpFR	9	3	1	CUBE	420	n/a	n/a	0	n/a	0	0	0	n/a	n/a	n/a	n/a	n/a
728927	REC_WORD	wordpools/wasnorm_wordpool.txt	LTP105	ltpFR	9	3	1	INSTRUCTOR	741	n/a	n/a	1	n/a	0	0	0	n/a	n/a	n/a	n/a	n/a
730249	REC_WORD	wordpools/wasnorm_wordpool.txt	LTP105	ltpFR	9	3	1	CAFE	216	n/a	n/a	0	n/a	0	0	0	n/a	n/a	n/a	n/a	n/a
779155	WORD	wordpools/wasnorm_wordpool.txt	LTP105	ltpFR	9	4	0	SCROLL	1257	n/a	n/a	1	n/a	0	0	0	0.57763671875	0.412841796875	1	lower	zerothre.ttf
783171	WORD	wordpools/wasnorm_wordpool.txt	LTP105	ltpFR	9	4	0	NECKLACE	940	n/a	n/a	0	n/a	0	0	0	0.57763671875	0.412841796875	1	lower	zerothre.ttf
787004	WORD	wordpools/wasnorm_wordpool.txt	LTP105	ltpFR	9	4	0	CLAMP	316	n/a	n/a	0	n/a	0	0	0	0.57763671875	0.412841796875	1	lower	zerothre.ttf
791112	WORD	wordpools/wasnorm_wordpool.txt	LTP105	ltpFR	9	4	1	FLESH	579	n/a	n/a	0	n/a	0	0	0	0.422607421875	0.5869140625	0	upper	amplitud.ttf
795053	WORD	wordpools/wasnorm_wordpool.txt	LTP105	ltpFR	9	4	1	SWAN	1417	n/a	n/a	1	n/a	0	0	0	0.422607421875	0.5869140625	0	upper	amplitud.ttf
799028	WORD	wordpools/wasnorm_wordpool.txt	LTP105	ltpFR	9	4	1	ROBIN	1199	n/a	n/a	1	n/a	0	0	0	0.422607421875	0.5869140625	0	upper	amplitud.ttf
803169	WORD	wordpools/wasnorm_wordpool.txt	LTP105	ltpFR	9	4	1	BANKER	84	n/a	n/a	0	n/a	0	0	0	0.422607421875	0.5869140625	0	upper	amplitud.ttf
807352	WORD	wordpools/wasnorm_wordpool.txt	LTP105	ltpFR	9	4	1	NICKEL	950	n/a	n/a	0	n/a	0	0	0	0.422607421875	0.5869140625	0	upper	amplitud.ttf
811519	WORD	wordpools/wasnorm_wordpool.txt	LTP105	ltpFR	9	4	0	CARRIAGE	248	n/a	n/a	1	n/a	0	0	0	0.57763671875	0.412841796875	1	lower	zerothre.ttf
815427	WORD	wordpools/wasnorm_wordpool.txt	LTP105	ltpFR	9	4	0	MASK	876	n/a	n/a	0	n/a	0	0	0	0.57763671875	0.412841796875	1	lower	zerothre.ttf
819426	WORD	wordpools/wasnorm_wordpool.txt	LTP105	ltpFR	9	4	0	LIPSTICK	829	n/a	n/a	0	n/a	0	0	0	0.57763671875	0.412841796875	1	lower	zerothre.ttf
823435	WORD	wordpools/wasnorm_wordpool.txt	LTP105	ltpFR	9	4	1	DUCK	504	n/a	n/a	1	n/a	0	0	0	0.422607421875	0.5869140625	0	upper	amplitud.ttf
827384	WORD	wordpools/wasnorm_wordpool.txt	LTP105	ltpFR	9	4	1	PITCHFORK	1078	n/a	n/a	0	n/a	0	0	0	0.422607421875	0.5869140625	0	upper	amplitud.ttf
831593	WORD	wordpools/wasnorm_wordpool.txt	LTP105	ltpFR	9	4	1	SAPPHIRE	1234	n/a	n/a	1	n/a	0	0	0	0.422607421875	0.5869140625	0	upper	amplitud.ttf
835610	WORD	wordpools/wasnorm_wordpool.txt	LTP105	ltpFR	9	4	0	HEART	697	n/a	n/a	0	n/a	0	0	0	0.57763671875	0.412841796875	1	lower	zerothre.ttf
839651	WORD	wordpools/wasnorm_wordpool.txt	LTP105	ltpFR	9	4	0	HORSE	719	n/a	n/a	1	n/a	0	0	0	0.57763671875	0.412841796875	1	lower	zerothre.ttf
845568	REC_START	n/a	LTP105	ltpFR	9	4	n/a	n/a	n/a	n/a	n/a	n/a	n/a	0	0	0	n/a	n/a	n/a	n/a	n/a
847528	REC_WORD	wordpools/wasnorm_wordpool.txt	LTP105	ltpFR	9	4	0	HORSE	719	n/a	n/a	1	n/a	0	0	0	n/a	n/a	n/a	n/a	n/a
849304	REC_WORD	wordpools/wasnorm_wordpool.txt	LTP105	ltpFR	9	4	1	PITCHFORK	1078	n/a	n/a	0	n/a	0	0	0	n/a	n/a	n/a	n/a	n/a
850741	REC_WORD	wordpools/wasnorm_wordpool.txt	LTP105	ltpFR	9	4	1	SAPPHIRE	1234	n/a	n/a	1	n/a	0	0	0	n/a	n/a	n/a	n/a	n/a
852228	REC_WORD	wordpools/wasnorm_wordpool.txt	LTP105	ltpFR	9	4	0	MASK	876	n/a	n/a	0	n/a	0	0	0	n/a	n/a	n/a	n/a	n/a
853634	REC_WORD	wordpools/wasnorm_wordpool.txt	LTP105	ltpFR	9	4	0	CARRIAGE	248	n/a	n/a	1	n/a	0	0	0	n/a	n/a	n/a	n/a	n/a
855381	REC_WORD	wordpools/wasnorm_wordpool.txt	LTP105	ltpFR	9	4	1	ROBIN	1199	n/a	n/a	1	n/a	0	0	0	n/a	n/a	n/a	n/a	n/a
856977	REC_WORD	wordpools/wasnorm_wordpool.txt	LTP105	ltpFR	9	4	1	SWAN	1417	n/a	n/a	1	n/a	0	0	0	n/a	n/a	n/a	n/a	n/a
858513	REC_WORD	wordpools/wasnorm_wordpool.txt	LTP105	ltpFR	9	4	1	FLESH	579	n/a	n/a	0	n/a	0	0	0	n/a	n/a	n/a	n/a	n/a
860175	REC_WORD	wordpools/wasnorm_wordpool.txt	LTP105	ltpFR	9	4	0	CLAMP	316	n/a	n/a	0	n/a	0	0	0	n/a	n/a	n/a	n/a	n/a
861776	REC_WORD	wordpools/wasnorm_wordpool.txt	LTP105	ltpFR	9	4	0	NECKLACE	940	n/a	n/a	0	n/a	0	0	0	n/a	n/a	n/a	n/a	n/a
863153	REC_WORD	wordpools/wasnorm_wordpool.txt	LTP105	ltpFR	9	4	0	SCROLL	1257	n/a	n/a	1	n/a	0	0	0	n/a	n/a	n/a	n/a	n/a
864849	REC_WORD	wordpools/wasnorm_wordpool.txt	LTP105	ltpFR	9	4	0	LIPSTICK	829	n/a	n/a	0	n/a	0	0	0	n/a	n/a	n/a	n/a	n/a
871654	REC_WORD	wordpools/wasnorm_wordpool.txt	LTP105	ltpFR	9	4	1	BANKER	84	n/a	n/a	0	n/a	0	0	0	n/a	n/a	n/a	n/a	n/a
932034	WORD	wordpools/wasnorm_wordpool.txt	LTP105	ltpFR	9	5	1	SALESMAN	1225	n/a	n/a	1	n/a	0	0	0	0.422607421875	0.5869140625	0	upper	amplitud.ttf
936159	WORD	wordpools/wasnorm_wordpool.txt	LTP105	ltpFR	9	5	1	FAIRY	549	n/a	n/a	1	n/a	0	0	0	0.422607421875	0.5869140625	0	upper	amplitud.ttf
940100	WORD	wordpools/wasnorm_wordpool.txt	LTP105	ltpFR	9	5	1	MINT	898	n/a	n/a	0	n/a	0	0	0	0.422607421875	0.5869140625	0	upper	amplitud.ttf
944217	WORD	wordpools/wasnorm_wordpool.txt	LTP105	ltpFR	9	5	1	CHIP	303	n/a	n/a	0	n/a	0	0	0	0.422607421875	0.5869140625	0	upper	amplitud.ttf
948225	WORD	wordpools/wasnorm_wordpool.txt	LTP105	ltpFR	9	5	1	BALLOON	75	n/a	n/a	0	n/a	0	0	0	0.422607421875	0.5869140625	0	upper	amplitud.ttf
952225	WORD	wordpools/wasnorm_wordpool.txt	LTP105	ltpFR	9	5	0	CRIMINAL	409	n/a	n/a	1	n/a	0	0	0	0.57763671875	0.412841796875	1	lower	zerothre.ttf
956266	WORD	wordpools/wasnorm_wordpool.txt	LTP105	ltpFR	9	5	0	TOOTH	1481	n/a	n/a	0	n/a	0	0	0	0.57763671875	0.412841796875	1	lower	zerothre.ttf
960241	WORD	wordpools/wasnorm_wordpool.txt	LTP105	ltpFR	9	5	1	STRING	1394	n/a	n/a	2	n/a	0	0	0	0.422607421875	0.5869140625	0	upper	amplitud.ttf
962691	KEY_MSG	n/a	LTP105	ltpFR	9	5	n/a	n/a	n/a	n/a	n/a	n/a	n/a	0	0	0	n/a	n/a	n/a	n/a	n/a
965357	WORD	wordpools/wasnorm_wordpool.txt	LTP105	ltpFR	9	5	1	GLOBE	641	n/a	n/a	0	n/a	0	0	0	0.422607421875	0.5869140625	0	upper	amplitud.ttf
969398	WORD	wordpools/wasnorm_wordpool.txt	LTP105	ltpFR	9	5	1	CLIFF	322	n/a	n/a	0	n/a	0	0	0	0.422607421875	0.5869140625	0	upper	amplitud.ttf
973582	WORD	wordpools/wasnorm_wordpool.txt	LTP105	ltpFR	9	5	0	TREAD	1499	n/a	n/a	1	n/a	0	0	0	0.57763671875	0.412841796875	1	lower	zerothre.ttf
977715	WORD	wordpools/wasnorm_wordpool.txt	LTP105	ltpFR	9	5	0	STREAM	1392	n/a	n/a	1	n/a	0	0	0	0.57763671875	0.412841796875	1	lower	zerothre.ttf
981690	WORD	wordpools/wasnorm_wordpool.txt	LTP105	ltpFR	9	5	0	GAZELLE	628	n/a	n/a	1	n/a	0	0	0	0.57763671875	0.412841796875	1	lower	zerothre.ttf
985540	WORD	wordpools/wasnorm_wordpool.txt	LTP105	ltpFR	9	5	0	GIRAFFE	636	n/a	n/a	1	n/a	0	0	0	0.57763671875	0.412841796875	1	lower	zerothre.ttf
989388	WORD	wordpools/wasnorm_wordpool.txt	LTP105	ltpFR	9	5	0	CONSUMER	365	n/a	n/a	1	n/a	0	0	0	0.57763671875	0.412841796875	1	lower	zerothre.ttf
993363	WORD	wordpools/wasnorm_wordpool.txt	LTP105	ltpFR	9	5	0	SODA	1341	n/a	n/a	0	n/a	0	0	0	0.57763671875	0.412841796875	1	lower	zerothre.ttf
996371	START	n/a	LTP105	ltpFR	9	n/a	n/a	n/a	n/a	n/a	n/a	n/a	n/a	n/a	n/a	n/a	n/a	n/a	n/a	n/a	n/a
997304	PROB	n/a	LTP105	ltpFR	9	n/a	n/a	n/a	n/a	n/a	n/a	n/a	16	6	8	5	n/a	n/a	n/a	n/a	n/a
1000238	PROB	n/a	LTP105	ltpFR	9	n/a	n/a	n/a	n/a	n/a	n/a	n/a	18	9	5	4	n/a	n/a	n/a	n/a	n/a
1002412	PROB	n/a	LTP105	ltpFR	9	n/a	n/a	n/a	n/a	n/a	n/a	n/a	11	6	1	4	n/a	n/a	n/a	n/a	n/a
1003565	STOP	n/a	LTP105	ltpFR	9	n/a	n/a	n/a	n/a	n/a	n/a	n/a	n/a	n/a	n/a	n/a	n/a	n/a	n/a	n/a	n/a
1006163	REC_START	n/a	LTP105	ltpFR	9	5	n/a	n/a	n/a	n/a	n/a	n/a	n/a	0	0	0	n/a	n/a	n/a	n/a	n/a
1007964	REC_WORD	wordpools/wasnorm_wordpool.txt	LTP105	ltpFR	9	5	0	SODA	1341	n/a	n/a	0	n/a	0	0	0	n/a	n/a	n/a	n/a	n/a
1009570	REC_WORD	wordpools/wasnorm_wordpool.txt	LTP105	ltpFR	9	5	0	GAZELLE	628	n/a	n/a	1	n/a	0	0	0	n/a	n/a	n/a	n/a	n/a
1012763	REC_WORD	wordpools/wasnorm_wordpool.txt	LTP105	ltpFR	9	5	0	GIRAFFE	636	n/a	n/a	1	n/a	0	0	0	n/a	n/a	n/a	n/a	n/a
1015716	REC_WORD	wordpools/wasnorm_wordpool.txt	LTP105	ltpFR	9	5	n/a	CUSTOMER	430	n/a	n/a	n/a	n/a	0	0	0	n/a	n/a	n/a	n/a	n/a
1083740	WORD	wordpools/wasnorm_wordpool.txt	LTP105	ltpFR	9	6	0	MARKET	871	n/a	n/a	0	n/a	0	0	0	0.57763671875	0.412841796875	1	lower	zerothre.ttf
1087598	WORD	wordpools/wasnorm_wordpool.txt	LTP105	ltpFR	9	6	0	BOAT	144	n/a	n/a	1	n/a	0	0	0	0.57763671875	0.412841796875	1	lower	zerothre.ttf
1091723	WORD	wordpools/wasnorm_wordpool.txt	LTP105	ltpFR	9	6	0	LAUNDRY	803	n/a	n/a	1	n/a	0	0	0	0.57763671875	0.412841796875	1	lower	zerothre.ttf
1095689	WORD	wordpools/wasnorm_wordpool.txt	LTP105	ltpFR	9	6	0	OUTFIT	988	n/a	n/a	1	n/a	0	0	0	0.57763671875	0.412841796875	1	lower	zerothre.ttf
1099821	WORD	wordpools/wasnorm_wordpool.txt	LTP105	ltpFR	9	6	0	HALL	677	n/a	n/a	0	n/a	0	0	0	0.57763671875	0.412841796875	1	lower	zerothre.ttf
1103672	WORD	wordpools/wasnorm_wordpool.txt	LTP105	ltpFR	9	6	0	VEGETABLE	1552	n/a	n/a	0	n/a	0	0	0	0.57763671875	0.412841796875	1	lower	zerothre.ttf
1107714	WORD	wordpools/wasnorm_wordpool.txt	LTP105	ltpFR	9	6	0	CARPET	247	n/a	n/a	0	n/a	0	0	0	0.57763671875	0.412841796875	1	lower	zerothre.ttf
1111613	WORD	wordpools/wasnorm_wordpool.txt	LTP105	ltpFR	9	6	0	COMMANDER	354	n/a	n/a	1	n/a	0	0	0	0.57763671875	0.412841796875	1	lower	zerothre.ttf
1115563	WORD	wordpools/wasnorm_wordpool.txt	LTP105	ltpFR	9	6	0	POLITICIAN	1099	n/a	n/a	1	n/a	0	0	0	0.57763671875	0.412841796875	1	lower	zerothre.ttf
1119428	WORD	wordpools/wasnorm_wordpool.txt	LTP105	ltpFR	9	6	0	SKULL	1320	n/a	n/a	0	n/a	0	0	0	0.57763671875	0.412841796875	1	lower	zerothre.ttf
1123529	WORD	wordpools/wasnorm_wordpool.txt	LTP105	ltpFR	9	6	0	RICE	1190	n/a	n/a	0	n/a	0	0	0	0.57763671875	0.412841796875	1	lower	zerothre.ttf
1127695	WORD	wordpools/wasnorm_wordpool.txt	LTP105	ltpFR	9	6	0	PASSAGE	1019	n/a	n/a	0	n/a	0	0	0	0.57763671875	0.412841796875	1	lower	zerothre.ttf
1131519	WORD	wordpools/wasnorm_wordpool.txt	LTP105	ltpFR	9	6	0	ARTIST	43	n/a	n/a	0	n/a	0	0	0	0.57763671875	0.412841796875	1	lower	zerothre.ttf
1135686	WORD	wordpools/wasnorm_wordpool.txt	LTP105	ltpFR	9	6	0	CONTAINER	366	n/a	n/a	1	n/a	0	0	0	0.57763671875	0.412841796875	1	lower	zerothre.ttf
1139777	WORD	wordpools/wasnorm_wordpool.txt	LTP105	ltpFR	9	6	0	BOX	159	n/a	n/a	0	n/a	0	0	0	0.57763671875	0.412841796875	1	lower	zerothre.ttf
1143744	WORD	wordpools/wasnorm_wordpool.txt	LTP105	ltpFR	9	6	0	PICTURE	1061	n/a	n/a	0	n/a	0	0	0	0.57763671875	0.412841796875	1	lower	zerothre.ttf
1146752	START	n/a	LTP105	ltpFR	9	n/a	n/a	n/a	n/a	n/a	n/a	n/a	n/a	n/a	n/a	n/a	n/a	n/a	n/a	n/a	n/a
1147818	PROB	n/a	LTP105	ltpFR	9	n/a	n/a	n/a	n/a	n/a	n/a	n/a	13	6	6	1	n/a	n/a	n/a	n/a	n/a
1149401	PROB	n/a	LTP105	ltpFR	9	n/a	n/a	n/a	n/a	n/a	n/a	n/a	18	7	5	6	n/a	n/a	n/a	n/a	n/a
1150710	PROB	n/a	LTP105	ltpFR	9	n/a	n/a	n/a	n/a	n/a	n/a	n/a	17	7	9	1	n/a	n/a	n/a	n/a	n/a
1152702	PROB	n/a	LTP105	ltpFR	9	n/a	n/a	n/a	n/a	n/a	n/a	n/a	17	4	7	6	n/a	n/a	n/a	n/a	n/a
1154426	PROB	n/a	LTP105	ltpFR	9	n/a	n/a	n/a	n/a	n/a	n/a	n/a	13	1	5	7	n/a	n/a	n/a	n/a	n/a
1155727	PROB	n/a	LTP105	ltpFR	9	n/a	n/a	n/a	n/a	n/a	n/a	n/a	16	7	7	2	n/a	n/a	n/a	n/a	n/a
1156942	PROB	n/a	LTP105	ltpFR	9	n/a	n/a	n/a	n/a	n/a	n/a	n/a	8	2	2	6	n/a	n/a	n/a	n/a	n/a
1158159	PROB	n/a	LTP105	ltpFR	9	n/a	n/a	n/a	n/a	n/a	n/a	n/a	1	8	6	5	n/a	n/a	n/a	n/a	n/a
1159967	PROB	n/a	LTP105	ltpFR	9	n/a	n/a	n/a	n/a	n/a	n/a	n/a	11	2	4	5	n/a	n/a	n/a	n/a	n/a
1161597	STOP	n/a	LTP105	ltpFR	9	n/a	n/a	n/a	n/a	n/a	n/a	n/a	n/a	n/a	n/a	n/a	n/a	n/a	n/a	n/a	n/a
1164660	REC_START	n/a	LTP105	ltpFR	9	6	n/a	n/a	n/a	n/a	n/a	n/a	n/a	0	0	0	n/a	n/a	n/a	n/a	n/a
1167538	REC_WORD	wordpools/wasnorm_wordpool.txt	LTP105	ltpFR	9	6	0	CONTAINER	366	n/a	n/a	1	n/a	0	0	0	n/a	n/a	n/a	n/a	n/a
1168636	REC_WORD	wordpools/wasnorm_wordpool.txt	LTP105	ltpFR	9	6	0	BOX	159	n/a	n/a	0	n/a	0	0	0	n/a	n/a	n/a	n/a	n/a
1169818	REC_WORD	wordpools/wasnorm_wordpool.txt	LTP105	ltpFR	9	6	0	PICTURE	1061	n/a	n/a	0	n/a	0	0	0	n/a	n/a	n/a	n/a	n/a
1242819	START	n/a	LTP105	ltpFR	9	n/a	n/a	n/a	n/a	n/a	n/a	n/a	n/a	n/a	n/a	n/a	n/a	n/a	n/a	n/a	n/a
1244327	PROB	n/a	LTP105	ltpFR	9	n/a	n/a	n/a	n/a	n/a	n/a	n/a	16	7	7	2	n/a	n/a	n/a	n/a	n/a
1245628	PROB	n/a	LTP105	ltpFR	9	n/a	n/a	n/a	n/a	n/a	n/a	n/a	20	9	6	5	n/a	n/a	n/a	n/a	n/a
1247394	PROB	n/a	LTP105	ltpFR	9	n/a	n/a	n/a	n/a	n/a	n/a	n/a	14	4	2	8	n/a	n/a	n/a	n/a	n/a
1248802	PROB	n/a	LTP105	ltpFR	9	n/a	n/a	n/a	n/a	n/a	n/a	n/a	8	5	2	1	n/a	n/a	n/a	n/a	n/a
1250102	PROB	n/a	LTP105	ltpFR	9	n/a	n/a	n/a	n/a	n/a	n/a	n/a	13	1	6	6	n/a	n/a	n/a	n/a	n/a
1251285	PROB	n/a	LTP105	ltpFR	9	n/a	n/a	n/a	n/a	n/a	n/a	n/a	15	5	9	6	n/a	n/a	n/a	n/a	n/a
1254510	PROB	n/a	LTP105	ltpFR	9	n/a	n/a	n/a	n/a	n/a	n/a	n/a	22	8	8	6	n/a	n/a	n/a	n/a	n/a
1257300	STOP	n/a	LTP105	ltpFR	9	n/a	n/a	n/a	n/a	n/a	n/a	n/a	n/a	n/a	n/a	n/a	n/a	n/a	n/a	n/a	n/a
1259669	WORD	wordpools/wasnorm_wordpool.txt	LTP105	ltpFR	9	7	0	OYSTER	995	n/a	n/a	0	n/a	0	0	0	0.57763671875	0.412841796875	1	lower	zerothre.ttf
1262677	START	n/a	LTP105	ltpFR	9	n/a	n/a	n/a	n/a	n/a	n/a	n/a	n/a	n/a	n/a	n/a	n/a	n/a	n/a	n/a	n/a
1263702	PROB	n/a	LTP105	ltpFR	9	n/a	n/a	n/a	n/a	n/a	n/a	n/a	11	2	4	5	n/a	n/a	n/a	n/a	n/a
1265025	PROB	n/a	LTP105	ltpFR	9	n/a	n/a	n/a	n/a	n/a	n/a	n/a	14	3	7	4	n/a	n/a	n/a	n/a	n/a
1266242	PROB	n/a	LTP105	ltpFR	9	n/a	n/a	n/a	n/a	n/a	n/a	n/a	20	7	5	8	n/a	n/a	n/a	n/a	n/a
1267693	PROB	n/a	LTP105	ltpFR	9	n/a	n/a	n/a	n/a	n/a	n/a	n/a	19	8	3	8	n/a	n/a	n/a	n/a	n/a
1269158	PROB	n/a	LTP105	ltpFR	9	n/a	n/a	n/a	n/a	n/a	n/a	n/a	14	6	4	4	n/a	n/a	n/a	n/a	n/a
1270383	PROB	n/a	LTP105	ltpFR	9	n/a	n/a	n/a	n/a	n/a	n/a	n/a	13	5	5	3	n/a	n/a	n/a	n/a	n/a
1271425	PROB	n/a	LTP105	ltpFR	9	n/a	n/a	n/a	n/a	n/a	n/a	n/a	17	6	6	5	n/a	n/a	n/a	n/a	n/a
1273058	PROB	n/a	LTP105	ltpFR	9	n/a	n/a	n/a	n/a	n/a	n/a	n/a	18	5	5	8	n/a	n/a	n/a	n/a	n/a
1274216	PROB	n/a	LTP105	ltpFR	9	n/a	n/a	n/a	n/a	n/a	n/a	n/a	21	9	5	7	n/a	n/a	n/a	n/a	n/a
1277637	STOP	n/a	LTP105	ltpFR	9	n/a	n/a	n/a	n/a	n/a	n/a	n/a	n/a	n/a	n/a	n/a	n/a	n/a	n/a	n/a	n/a
1279866	WORD	wordpools/wasnorm_wordpool.txt	LTP105	ltpFR	9	7	0	SWEATER	1419	n/a	n/a	1	n/a	0	0	0	0.57763671875	0.412841796875	1	lower	zerothre.ttf
1282875	START	n/a	LTP105	ltpFR	9	n/a	n/a	n/a	n/a	n/a	n/a	n/a	n/a	n/a	n/a	n/a	n/a	n/a	n/a	n/a	n/a
1283841	PROB	n/a	LTP105	ltpFR	9	n/a	n/a	n/a	n/a	n/a	n/a	n/a	18	7	2	9	n/a	n/a	n/a	n/a	n/a
1286032	PROB	n/a	LTP105	ltpFR	9	n/a	n/a	n/a	n/a	n/a	n/a	n/a	18	8	3	7	n/a	n/a	n/a	n/a	n/a
1287357	PROB	n/a	LTP105	ltpFR	9	n/a	n/a	n/a	n/a	n/a	n/a	n/a	8	3	2	3	n/a	n/a	n/a	n/a	n/a
1288924	PROB	n/a	LTP105	ltpFR	9	n/a	n/a	n/a	n/a	n/a	n/a	n/a	16	6	4	6	n/a	n/a	n/a	n/a	n/a
1292015	PROB	n/a	LTP105	ltpFR	9	n/a	n/a	n/a	n/a	n/a	n/a	n/a	11	7	3	1	n/a	n/a	n/a	n/a	n/a
1293090	PROB	n/a	LTP105	ltpFR	9	n/a	n/a	n/a	n/a	n/a	n/a	n/a	23	7	8	8	n/a	n/a	n/a	n/a	n/a
1296557	PROB	n/a	LTP105	ltpFR	9	n/a	n/a	n/a	n/a	n/a	n/a	n/a	15	4	3	8	n/a	n/a	n/a	n/a	n/a
1297796	STOP	n/a	LTP105	ltpFR	9	n/a	n/a	n/a	n/a	n/a	n/a	n/a	n/a	n/a	n/a	n/a	n/a	n/a	n/a	n/a	n/a
1299757	WORD	wordpools/wasnorm_wordpool.txt	LTP105	ltpFR	9	7	0	BEEF	113	n/a	n/a	0	n/a	0	0	0	0.57763671875	0.412841796875	1	lower	zerothre.ttf
1302766	START	n/a	LTP105	ltpFR	9	n/a	n/a	n/a	n/a	n/a	n/a	n/a	n/a	n/a	n/a	n/a	n/a	n/a	n/a	n/a	n/a
1303931	PROB	n/a	LTP105	ltpFR	9	n/a	n/a	n/a	n/a	n/a	n/a	n/a	19	6	9	4	n/a	n/a	n/a	n/a	n/a
1307181	PROB	n/a	LTP105	ltpFR	9	n/a	n/a	n/a	n/a	n/a	n/a	n/a	11	2	2	7	n/a	n/a	n/a	n/a	n/a
1308814	PROB	n/a	LTP105	ltpFR	9	n/a	n/a	n/a	n/a	n/a	n/a	n/a	10	3	6	1	n/a	n/a	n/a	n/a	n/a
1310255	PROB	n/a	LTP105	ltpFR	9	n/a	n/a	n/a	n/a	n/a	n/a	n/a	20	9	4	7	n/a	n/a	n/a	n/a	n/a
1312297	PROB	n/a	LTP105	ltpFR	9	n/a	n/a	n/a	n/a	n/a	n/a	n/a	12	9	2	1	n/a	n/a	n/a	n/a	n/a
1313805	PROB	n/a	LTP105	ltpFR	9	n/a	n/a	n/a	n/a	n/a	n/a	n/a	7	5	1	1	n/a	n/a	n/a	n/a	n/a
1315330	PROB	n/a	LTP105	ltpFR	9	n/a	n/a	n/a	n/a	n/a	n/a	n/a	13	1	4	8	n/a	n/a	n/a	n/a	n/a
1316598	PROB	n/a	LTP105	ltpFR	9	n/a	n/a	n/a	n/a	n/a	n/a	n/a	19	7	6	6	n/a	n/a	n/a	n/a	n/a
1318156	STOP	n/a	LTP105	ltpFR	9	n/a	n/a	n/a	n/a	n/a	n/a	n/a	n/a	n/a	n/a	n/a	n/a	n/a	n/a	n/a	n/a
1319656	WORD	wordpools/wasnorm_wordpool.txt	LTP105	ltpFR	9	7	0	STORE	1387	n/a	n/a	1	n/a	0	0	0	0.57763671875	0.412841796875	1	lower	zerothre.ttf
1322664	START	n/a	LTP105	ltpFR	9	n/a	n/a	n/a	n/a	n/a	n/a	n/a	n/a	n/a	n/a	n/a	n/a	n/a	n/a	n/a	n/a
1323755	PROB	n/a	LTP105	ltpFR	9	n/a	n/a	n/a	n/a	n/a	n/a	n/a	14	5	5	4	n/a	n/a	n/a	n/a	n/a
1325446	PROB	n/a	LTP105	ltpFR	9	n/a	n/a	n/a	n/a	n/a	n/a	n/a	13	1	7	5	n/a	n/a	n/a	n/a	n/a
1326638	PROB	n/a	LTP105	ltpFR	9	n/a	n/a	n/a	n/a	n/a	n/a	n/a	17	7	2	8	n/a	n/a	n/a	n/a	n/a
1328112	PROB	n/a	LTP105	ltpFR	9	n/a	n/a	n/a	n/a	n/a	n/a	n/a	11	2	1	8	n/a	n/a	n/a	n/a	n/a
1329270	PROB	n/a	LTP105	ltpFR	9	n/a	n/a	n/a	n/a	n/a	n/a	n/a	15	6	3	6	n/a	n/a	n/a	n/a	n/a
1330795	PROB	n/a	LTP105	ltpFR	9	n/a	n/a	n/a	n/a	n/a	n/a	n/a	23	7	8	8	n/a	n/a	n/a	n/a	n/a
1332962	PROB	n/a	LTP105	ltpFR	9	n/a	n/a	n/a	n/a	n/a	n/a	n/a	14	5	2	7	n/a	n/a	n/a	n/a	n/a
1334345	PROB	n/a	LTP105	ltpFR	9	n/a	n/a	n/a	n/a	n/a	n/a	n/a	10	1	1	8	n/a	n/a	n/a	n/a	n/a
1335445	PROB	n/a	LTP105	ltpFR	9	n/a	n/a	n/a	n/a	n/a	n/a	n/a	15	6	5	5	n/a	n/a	n/a	n/a	n/a
1338664	STOP	n/a	LTP105	ltpFR	9	n/a	n/a	n/a	n/a	n/a	n/a	n/a	n/a	n/a	n/a	n/a	n/a	n/a	n/a	n/a	n/a
1339546	WORD	wordpools/wasnorm_wordpool.txt	LTP105	ltpFR	9	7	0	FOLDER	588	n/a	n/a	0	n/a	0	0	0	0.57763671875	0.412841796875	1	lower	zerothre.ttf
1342554	START	n/a	LTP105	ltpFR	9	n/a	n/a	n/a	n/a	n/a	n/a	n/a	n/a	n/a	n/a	n/a	n/a	n/a	n/a	n/a	n/a
1343419	PROB	n/a	LTP105	ltpFR	9	n/a	n/a	n/a	n/a	n/a	n/a	n/a	16	8	2	6	n/a	n/a	n/a	n/a	n/a
1345011	PROB	n/a	LTP105	ltpFR	9	n/a	n/a	n/a	n/a	n/a	n/a	n/a	22	6	8	8	n/a	n/a	n/a	n/a	n/a
1346894	PROB	n/a	LTP105	ltpFR	9	n/a	n/a	n/a	n/a	n/a	n/a	n/a	13	7	4	2	n/a	n/a	n/a	n/a	n/a
1348111	PROB	n/a	LTP105	ltpFR	9	n/a	n/a	n/a	n/a	n/a	n/a	n/a	16	3	8	5	n/a	n/a	n/a	n/a	n/a
1349252	PROB	n/a	LTP105	ltpFR	9	n/a	n/a	n/a	n/a	n/a	n/a	n/a	7	2	1	4	n/a	n/a	n/a	n/a	n/a
1350410	PROB	n/a	LTP105	ltpFR	9	n/a	n/a	n/a	n/a	n/a	n/a	n/a	12	4	6	2	n/a	n/a	n/a	n/a	n/a
1351377	PROB	n/a	LTP105	ltpFR	9	n/a	n/a	n/a	n/a	n/a	n/a	n/a	16	8	3	4	n/a	n/a	n/a	n/a	n/a
1352502	PROB	n/a	LTP105	ltpFR	9	n/a	n/a	n/a	n/a	n/a	n/a	n/a	23	9	7	7	n/a	n/a	n/a	n/a	n/a
1355493	PROB	n/a	LTP105	ltpFR	9	n/a	n/a	n/a	n/a	n/a	n/a	n/a	8	1	1	6	n/a	n/a	n/a	n/a	n/a
1356518	PROB	n/a	LTP105	ltpFR	9	n/a	n/a	n/a	n/a	n/a	n/a	n/a	10	5	3	2	n/a	n/a	n/a	n/a	n/a
1357701	STOP	n/a	LTP105	ltpFR	9	n/a	n/a	n/a	n/a	n/a	n/a	n/a	n/a	n/a	n/a	n/a	n/a	n/a	n/a	n/a	n/a
1359602	WORD	wordpools/wasnorm_wordpool.txt	LTP105	ltpFR	9	7	0	CHEF	290	n/a	n/a	1	n/a	0	0	0	0.57763671875	0.412841796875	1	lower	zerothre.ttf
1362611	START	n/a	LTP105	ltpFR	9	n/a	n/a	n/a	n/a	n/a	n/a	n/a	n/a	n/a	n/a	n/a	n/a	n/a	n/a	n/a	n/a
1363644	PROB	n/a	LTP105	ltpFR	9	n/a	n/a	n/a	n/a	n/a	n/a	n/a	12	1	3	8	n/a	n/a	n/a	n/a	n/a
1365201	PROB	n/a	LTP105	ltpFR	9	n/a	n/a	n/a	n/a	n/a	n/a	n/a	12	5	2	5	n/a	n/a	n/a	n/a	n/a
1366459	PROB	n/a	LTP105	ltpFR	9	n/a	n/a	n/a	n/a	n/a	n/a	n/a	13	7	2	4	n/a	n/a	n/a	n/a	n/a
1367976	PROB	n/a	LTP105	ltpFR	9	n/a	n/a	n/a	n/a	n/a	n/a	n/a	13	7	2	4	n/a	n/a	n/a	n/a	n/a
1369092	PROB	n/a	LTP105	ltpFR	9	n/a	n/a	n/a	n/a	n/a	n/a	n/a	17	5	7	5	n/a	n/a	n/a	n/a	n/a
1370685	PROB	n/a	LTP105	ltpFR	9	n/a	n/a	n/a	n/a	n/a	n/a	n/a	15	2	9	4	n/a	n/a	n/a	n/a	n/a
1372517	PROB	n/a	LTP105	ltpFR	9	n/a	n/a	n/a	n/a	n/a	n/a	n/a	11	2	1	8	n/a	n/a	n/a	n/a	n/a
1373842	PROB	n/a	LTP105	ltpFR	9	n/a	n/a	n/a	n/a	n/a	n/a	n/a	23	9	8	6	n/a	n/a	n/a	n/a	n/a
1375735	PROB	n/a	LTP105	ltpFR	9	n/a	n/a	n/a	n/a	n/a	n/a	n/a	15	3	9	3	n/a	n/a	n/a	n/a	n/a
1377116	STOP	n/a	LTP105	ltpFR	9	n/a	n/a	n/a	n/a	n/a	n/a	n/a	n/a	n/a	n/a	n/a	n/a	n/a	n/a	n/a	n/a
1379734	WORD	wordpools/wasnorm_wordpool.txt	LTP105	ltpFR	9	7	0	LOFT	840	n/a	n/a	0	n/a	0	0	0	0.57763671875	0.412841796875	1	lower	zerothre.ttf
1382743	START	n/a	LTP105	ltpFR	9	n/a	n/a	n/a	n/a	n/a	n/a	n/a	n/a	n/a	n/a	n/a	n/a	n/a	n/a	n/a	n/a
1383816	PROB	n/a	LTP105	ltpFR	9	n/a	n/a	n/a	n/a	n/a	n/a	n/a	8	3	4	1	n/a	n/a	n/a	n/a	n/a
1385258	PROB	n/a	LTP105	ltpFR	9	n/a	n/a	n/a	n/a	n/a	n/a	n/a	12	6	1	5	n/a	n/a	n/a	n/a	n/a
1386550	PROB	n/a	LTP105	ltpFR	9	n/a	n/a	n/a	n/a	n/a	n/a	n/a	9	2	3	4	n/a	n/a	n/a	n/a	n/a
1387808	PROB	n/a	LTP105	ltpFR	9	n/a	n/a	n/a	n/a	n/a	n/a	n/a	11	8	1	2	n/a	n/a	n/a	n/a	n/a
1389899	PROB	n/a	LTP105	ltpFR	9	n/a	n/a	n/a	n/a	n/a	n/a	n/a	11	2	4	5	n/a	n/a	n/a	n/a	n/a
1391316	PROB	n/a	LTP105	ltpFR	9	n/a	n/a	n/a	n/a	n/a	n/a	n/a	17	8	4	5	n/a	n/a	n/a	n/a	n/a
1392982	PROB	n/a	LTP105	ltpFR	9	n/a	n/a	n/a	n/a	n/a	n/a	n/a	13	4	4	5	n/a	n/a	n/a	n/a	n/a
1394666	PROB	n/a	LTP105	ltpFR	9	n/a	n/a	n/a	n/a	n/a	n/a	n/a	17	2	9	6	n/a	n/a	n/a	n/a	n/a
1396190	PROB	n/a	LTP105	ltpFR	9	n/a	n/a	n/a	n/a	n/a	n/a	n/a	19	4	8	7	n/a	n/a	n/a	n/a	n/a
1397820	STOP	n/a	LTP105	ltpFR	9	n/a	n/a	n/a	n/a	n/a	n/a	n/a	n/a	n/a	n/a	n/a	n/a	n/a	n/a	n/a	n/a
1399566	WORD	wordpools/wasnorm_wordpool.txt	LTP105	ltpFR	9	7	0	FARM	552	n/a	n/a	0	n/a	0	0	0	0.57763671875	0.412841796875	1	lower	zerothre.ttf
1402575	START	n/a	LTP105	ltpFR	9	n/a	n/a	n/a	n/a	n/a	n/a	n/a	n/a	n/a	n/a	n/a	n/a	n/a	n/a	n/a	n/a
1403666	PROB	n/a	LTP105	ltpFR	9	n/a	n/a	n/a	n/a	n/a	n/a	n/a	8	2	3	3	n/a	n/a	n/a	n/a	n/a
1406599	PROB	n/a	LTP105	ltpFR	9	n/a	n/a	n/a	n/a	n/a	n/a	n/a	11	8	1	2	n/a	n/a	n/a	n/a	n/a
1408106	PROB	n/a	LTP105	ltpFR	9	n/a	n/a	n/a	n/a	n/a	n/a	n/a	9	2	5	2	n/a	n/a	n/a	n/a	n/a
1409298	PROB	n/a	LTP105	ltpFR	9	n/a	n/a	n/a	n/a	n/a	n/a	n/a	21	8	7	6	n/a	n/a	n/a	n/a	n/a
1411056	PROB	n/a	LTP105	ltpFR	9	n/a	n/a	n/a	n/a	n/a	n/a	n/a	11	2	4	5	n/a	n/a	n/a	n/a	n/a
1412231	PROB	n/a	LTP105	ltpFR	9	n/a	n/a	n/a	n/a	n/a	n/a	n/a	17	1	7	9	n/a	n/a	n/a	n/a	n/a
1414456	PROB	n/a	LTP105	ltpFR	9	n/a	n/a	n/a	n/a	n/a	n/a	n/a	12	3	5	4	n/a	n/a	n/a	n/a	n/a
1415830	PROB	n/a	LTP105	ltpFR	9	n/a	n/a	n/a	n/a	n/a	n/a	n/a	23	7	7	9	n/a	n/a	n/a	n/a	n/a
1417308	STOP	n/a	LTP105	ltpFR	9	n/a	n/a	n/a	n/a	n/a	n/a	n/a	n/a	n/a	n/a	n/a	n/a	n/a	n/a	n/a	n/a
1419590	WORD	wordpools/wasnorm_wordpool.txt	LTP105	ltpFR	9	7	0	DAM	436	n/a	n/a	1	n/a	0	0	0	0.57763671875	0.412841796875	1	lower	zerothre.ttf
1422598	START	n/a	LTP105	ltpFR	9	n/a	n/a	n/a	n/a	n/a	n/a	n/a	n/a	n/a	n/a	n/a	n/a	n/a	n/a	n/a	n/a
1423648	PROB	n/a	LTP105	ltpFR	9	n/a	n/a	n/a	n/a	n/a	n/a	n/a	17	4	5	8	n/a	n/a	n/a	n/a	n/a
1425180	PROB	n/a	LTP105	ltpFR	9	n/a	n/a	n/a	n/a	n/a	n/a	n/a	9	5	2	2	n/a	n/a	n/a	n/a	n/a
1426888	PROB	n/a	LTP105	ltpFR	9	n/a	n/a	n/a	n/a	n/a	n/a	n/a	20	3	9	8	n/a	n/a	n/a	n/a	n/a
1428396	PROB	n/a	LTP105	ltpFR	9	n/a	n/a	n/a	n/a	n/a	n/a	n/a	8	1	3	4	n/a	n/a	n/a	n/a	n/a
1429564	PROB	n/a	LTP105	ltpFR	9	n/a	n/a	n/a	n/a	n/a	n/a	n/a	16	3	4	9	n/a	n/a	n/a	n/a	n/a
1431021	PROB	n/a	LTP105	ltpFR	9	n/a	n/a	n/a	n/a	n/a	n/a	n/a	9	3	4	2	n/a	n/a	n/a	n/a	n/a
1432854	PROB	n/a	LTP105	ltpFR	9	n/a	n/a	n/a	n/a	n/a	n/a	n/a	17	8	7	2	n/a	n/a	n/a	n/a	n/a
1435563	PROB	n/a	LTP105	ltpFR	9	n/a	n/a	n/a	n/a	n/a	n/a	n/a	21	4	8	9	n/a	n/a	n/a	n/a	n/a
1437204	STOP	n/a	LTP105	ltpFR	9	n/a	n/a	n/a	n/a	n/a	n/a	n/a	n/a	n/a	n/a	n/a	n/a	n/a	n/a	n/a	n/a
1439462	WORD	wordpools/wasnorm_wordpool.txt	LTP105	ltpFR	9	7	0	OTTER	986	n/a	n/a	1	n/a	0	0	0	0.57763671875	0.412841796875	1	lower	zerothre.ttf
1442471	START	n/a	LTP105	ltpFR	9	n/a	n/a	n/a	n/a	n/a	n/a	n/a	n/a	n/a	n/a	n/a	n/a	n/a	n/a	n/a	n/a
1443478	PROB	n/a	LTP105	ltpFR	9	n/a	n/a	n/a	n/a	n/a	n/a	n/a	13	5	5	3	n/a	n/a	n/a	n/a	n/a
1444546	PROB	n/a	LTP105	ltpFR	9	n/a	n/a	n/a	n/a	n/a	n/a	n/a	25	9	7	9	n/a	n/a	n/a	n/a	n/a
1447186	PROB	n/a	LTP105	ltpFR	9	n/a	n/a	n/a	n/a	n/a	n/a	n/a	20	6	8	6	n/a	n/a	n/a	n/a	n/a
1449495	PROB	n/a	LTP105	ltpFR	9	n/a	n/a	n/a	n/a	n/a	n/a	n/a	21	8	8	5	n/a	n/a	n/a	n/a	n/a
1451411	PROB	n/a	LTP105	ltpFR	9	n/a	n/a	n/a	n/a	n/a	n/a	n/a	8	4	1	3	n/a	n/a	n/a	n/a	n/a
1453094	PROB	n/a	LTP105	ltpFR	9	n/a	n/a	n/a	n/a	n/a	n/a	n/a	15	6	7	2	n/a	n/a	n/a	n/a	n/a
1454503	PROB	n/a	LTP105	ltpFR	9	n/a	n/a	n/a	n/a	n/a	n/a	n/a	16	4	5	7	n/a	n/a	n/a	n/a	n/a
1455861	PROB	n/a	LTP105	ltpFR	9	n/a	n/a	n/a	n/a	n/a	n/a	n/a	11	8	1	2	n/a	n/a	n/a	n/a	n/a
1457236	STOP	n/a	LTP105	ltpFR	9	n/a	n/a	n/a	n/a	n/a	n/a	n/a	n/a	n/a	n/a	n/a	n/a	n/a	n/a	n/a	n/a
1459344	WORD	wordpools/wasnorm_wordpool.txt	LTP105	ltpFR	9	7	0	SHIRT	1287	n/a	n/a	1	n/a	0	0	0	0.57763671875	0.412841796875	1	lower	zerothre.ttf
1462352	START	n/a	LTP105	ltpFR	9	n/a	n/a	n/a	n/a	n/a	n/a	n/a	n/a	n/a	n/a	n/a	n/a	n/a	n/a	n/a	n/a
1463460	PROB	n/a	LTP105	ltpFR	9	n/a	n/a	n/a	n/a	n/a	n/a	n/a	21	7	5	9	n/a	n/a	n/a	n/a	n/a
1466268	PROB	n/a	LTP105	ltpFR	9	n/a	n/a	n/a	n/a	n/a	n/a	n/a	6	2	2	4	n/a	n/a	n/a	n/a	n/a
1467310	PROB	n/a	LTP105	ltpFR	9	n/a	n/a	n/a	n/a	n/a	n/a	n/a	15	7	6	2	n/a	n/a	n/a	n/a	n/a
1469185	PROB	n/a	LTP105	ltpFR	9	n/a	n/a	n/a	n/a	n/a	n/a	n/a	17	2	6	9	n/a	n/a	n/a	n/a	n/a
1470536	PROB	n/a	LTP105	ltpFR	9	n/a	n/a	n/a	n/a	n/a	n/a	n/a	21	8	6	7	n/a	n/a	n/a	n/a	n/a
1472544	PROB	n/a	LTP105	ltpFR	9	n/a	n/a	n/a	n/a	n/a	n/a	n/a	17	2	8	7	n/a	n/a	n/a	n/a	n/a
1473768	PROB	n/a	LTP105	ltpFR	9	n/a	n/a	n/a	n/a	n/a	n/a	n/a	12	6	1	5	n/a	n/a	n/a	n/a	n/a
1475268	PROB	n/a	LTP105	ltpFR	9	n/a	n/a	n/a	n/a	n/a	n/a	n/a	15	8	5	2	n/a	n/a	n/a	n/a	n/a
1476685	PROB	n/a	LTP105	ltpFR	9	n/a	n/a	n/a	n/a	n/a	n/a	n/a	18	3	6	9	n/a	n/a	n/a	n/a	n/a
1478084	STOP	n/a	LTP105	ltpFR	9	n/a	n/a	n/a	n/a	n/a	n/a	n/a	n/a	n/a	n/a	n/a	n/a	n/a	n/a	n/a	n/a
1479552	WORD	wordpools/wasnorm_wordpool.txt	LTP105	ltpFR	9	7	0	EMPIRE	530	n/a	n/a	n/a	n/a	0	0	0	0.57763671875	0.412841796875	1	lower	zerothre.ttf
1482576	SLOW_MSG	n/a	LTP105	ltpFR	9	7	n/a	n/a	n/a	n/a	n/a	n/a	n/a	0	0	0	n/a	n/a	n/a	n/a	n/a
1484092	START	n/a	LTP105	ltpFR	9	n/a	n/a	n/a	n/a	n/a	n/a	n/a	n/a	n/a	n/a	n/a	n/a	n/a	n/a	n/a	n/a
1484908	PROB	n/a	LTP105	ltpFR	9	n/a	n/a	n/a	n/a	n/a	n/a	n/a	16	7	7	2	n/a	n/a	n/a	n/a	n/a
1486576	PROB	n/a	LTP105	ltpFR	9	n/a	n/a	n/a	n/a	n/a	n/a	n/a	16	3	6	7	n/a	n/a	n/a	n/a	n/a
1488701	PROB	n/a	LTP105	ltpFR	9	n/a	n/a	n/a	n/a	n/a	n/a	n/a	18	8	4	6	n/a	n/a	n/a	n/a	n/a
1489983	PROB	n/a	LTP105	ltpFR	9	n/a	n/a	n/a	n/a	n/a	n/a	n/a	17	1	7	9	n/a	n/a	n/a	n/a	n/a
1491458	PROB	n/a	LTP105	ltpFR	9	n/a	n/a	n/a	n/a	n/a	n/a	n/a	15	6	1	8	n/a	n/a	n/a	n/a	n/a
1492659	PROB	n/a	LTP105	ltpFR	9	n/a	n/a	n/a	n/a	n/a	n/a	n/a	13	1	7	5	n/a	n/a	n/a	n/a	n/a
1495324	PROB	n/a	LTP105	ltpFR	9	n/a	n/a	n/a	n/a	n/a	n/a	n/a	11	7	3	1	n/a	n/a	n/a	n/a	n/a
1496374	PROB	n/a	LTP105	ltpFR	9	n/a	n/a	n/a	n/a	n/a	n/a	n/a	18	7	9	2	n/a	n/a	n/a	n/a	n/a
1498274	PROB	n/a	LTP105	ltpFR	9	n/a	n/a	n/a	n/a	n/a	n/a	n/a	21	8	4	9	n/a	n/a	n/a	n/a	n/a
1499717	STOP	n/a	LTP105	ltpFR	9	n/a	n/a	n/a	n/a	n/a	n/a	n/a	n/a	n/a	n/a	n/a	n/a	n/a	n/a	n/a	n/a
1501257	WORD	wordpools/wasnorm_wordpool.txt	LTP105	ltpFR	9	7	0	SOFTBALL	1343	n/a	n/a	1	n/a	0	0	0	0.57763671875	0.412841796875	1	lower	zerothre.ttf
1504266	START	n/a	LTP105	ltpFR	9	n/a	n/a	n/a	n/a	n/a	n/a	n/a	n/a	n/a	n/a	n/a	n/a	n/a	n/a	n/a	n/a
1505382	PROB	n/a	LTP105	ltpFR	9	n/a	n/a	n/a	n/a	n/a	n/a	n/a	11	1	1	9	n/a	n/a	n/a	n/a	n/a
1506625	PROB	n/a	LTP105	ltpFR	9	n/a	n/a	n/a	n/a	n/a	n/a	n/a	19	6	5	8	n/a	n/a	n/a	n/a	n/a
1508148	PROB	n/a	LTP105	ltpFR	9	n/a	n/a	n/a	n/a	n/a	n/a	n/a	9	3	3	3	n/a	n/a	n/a	n/a	n/a
1510340	PROB	n/a	LTP105	ltpFR	9	n/a	n/a	n/a	n/a	n/a	n/a	n/a	11	2	6	3	n/a	n/a	n/a	n/a	n/a
1511948	PROB	n/a	LTP105	ltpFR	9	n/a	n/a	n/a	n/a	n/a	n/a	n/a	13	6	3	4	n/a	n/a	n/a	n/a	n/a
1513699	PROB	n/a	LTP105	ltpFR	9	n/a	n/a	n/a	n/a	n/a	n/a	n/a	14	1	5	8	n/a	n/a	n/a	n/a	n/a
1515306	PROB	n/a	LTP105	ltpFR	9	n/a	n/a	n/a	n/a	n/a	n/a	n/a	6	1	1	4	n/a	n/a	n/a	n/a	n/a
1516323	PROB	n/a	LTP105	ltpFR	9	n/a	n/a	n/a	n/a	n/a	n/a	n/a	20	6	5	9	n/a	n/a	n/a	n/a	n/a
1517881	PROB	n/a	LTP105	ltpFR	9	n/a	n/a	n/a	n/a	n/a	n/a	n/a	17	5	3	9	n/a	n/a	n/a	n/a	n/a
1519108	STOP	n/a	LTP105	ltpFR	9	n/a	n/a	n/a	n/a	n/a	n/a	n/a	n/a	n/a	n/a	n/a	n/a	n/a	n/a	n/a	n/a
1521214	WORD	wordpools/wasnorm_wordpool.txt	LTP105	ltpFR	9	7	0	TWIG	1527	n/a	n/a	0	n/a	0	0	0	0.57763671875	0.412841796875	1	lower	zerothre.ttf
1524223	START	n/a	LTP105	ltpFR	9	n/a	n/a	n/a	n/a	n/a	n/a	n/a	n/a	n/a	n/a	n/a	n/a	n/a	n/a	n/a	n/a
1525372	PROB	n/a	LTP105	ltpFR	9	n/a	n/a	n/a	n/a	n/a	n/a	n/a	22	7	9	6	n/a	n/a	n/a	n/a	n/a
1528347	PROB	n/a	LTP105	ltpFR	9	n/a	n/a	n/a	n/a	n/a	n/a	n/a	18	6	5	7	n/a	n/a	n/a	n/a	n/a
1529897	PROB	n/a	LTP105	ltpFR	9	n/a	n/a	n/a	n/a	n/a	n/a	n/a	1	8	5	3	n/a	n/a	n/a	n/a	n/a
1531430	PROB	n/a	LTP105	ltpFR	9	n/a	n/a	n/a	n/a	n/a	n/a	n/a	9	6	1	2	n/a	n/a	n/a	n/a	n/a
1533280	PROB	n/a	LTP105	ltpFR	9	n/a	n/a	n/a	n/a	n/a	n/a	n/a	17	4	4	9	n/a	n/a	n/a	n/a	n/a
1535046	PROB	n/a	LTP105	ltpFR	9	n/a	n/a	n/a	n/a	n/a	n/a	n/a	21	5	8	9	n/a	n/a	n/a	n/a	n/a
1536722	PROB	n/a	LTP105	ltpFR	9	n/a	n/a	n/a	n/a	n/a	n/a	n/a	15	5	3	7	n/a	n/a	n/a	n/a	n/a
1538547	PROB	n/a	LTP105	ltpFR	9	n/a	n/a	n/a	n/a	n/a	n/a	n/a	5	2	1	2	n/a	n/a	n/a	n/a	n/a
1539860	STOP	n/a	LTP105	ltpFR	9	n/a	n/a	n/a	n/a	n/a	n/a	n/a	n/a	n/a	n/a	n/a	n/a	n/a	n/a	n/a	n/a
1541163	WORD	wordpools/wasnorm_wordpool.txt	LTP105	ltpFR	9	7	0	TREE	1502	n/a	n/a	1	n/a	0	0	0	0.57763671875	0.412841796875	1	lower	zerothre.ttf
1544171	START	n/a	LTP105	ltpFR	9	n/a	n/a	n/a	n/a	n/a	n/a	n/a	n/a	n/a	n/a	n/a	n/a	n/a	n/a	n/a	n/a
1545187	PROB	n/a	LTP105	ltpFR	9	n/a	n/a	n/a	n/a	n/a	n/a	n/a	20	5	9	6	n/a	n/a	n/a	n/a	n/a
1547212	PROB	n/a	LTP105	ltpFR	9	n/a	n/a	n/a	n/a	n/a	n/a	n/a	8	3	3	2	n/a	n/a	n/a	n/a	n/a
1548979	PROB	n/a	LTP105	ltpFR	9	n/a	n/a	n/a	n/a	n/a	n/a	n/a	13	7	5	1	n/a	n/a	n/a	n/a	n/a
1550145	PROB	n/a	LTP105	ltpFR	9	n/a	n/a	n/a	n/a	n/a	n/a	n/a	17	8	2	7	n/a	n/a	n/a	n/a	n/a
1551403	PROB	n/a	LTP105	ltpFR	9	n/a	n/a	n/a	n/a	n/a	n/a	n/a	5	1	1	3	n/a	n/a	n/a	n/a	n/a
1552345	PROB	n/a	LTP105	ltpFR	9	n/a	n/a	n/a	n/a	n/a	n/a	n/a	12	1	4	7	n/a	n/a	n/a	n/a	n/a
1553837	PROB	n/a	LTP105	ltpFR	9	n/a	n/a	n/a	n/a	n/a	n/a	n/a	15	4	2	9	n/a	n/a	n/a	n/a	n/a
1555303	PROB	n/a	LTP105	ltpFR	9	n/a	n/a	n/a	n/a	n/a	n/a	n/a	13	4	6	3	n/a	n/a	n/a	n/a	n/a
1556495	PROB	n/a	LTP105	ltpFR	9	n/a	n/a	n/a	n/a	n/a	n/a	n/a	12	1	9	2	n/a	n/a	n/a	n/a	n/a
1557612	PROB	n/a	LTP105	ltpFR	9	n/a	n/a	n/a	n/a	n/a	n/a	n/a	24	9	8	7	n/a	n/a	n/a	n/a	n/a
1559308	STOP	n/a	LTP105	ltpFR	9	n/a	n/a	n/a	n/a	n/a	n/a	n/a	n/a	n/a	n/a	n/a	n/a	n/a	n/a	n/a	n/a
1561144	WORD	wordpools/wasnorm_wordpool.txt	LTP105	ltpFR	9	7	0	SHOP	1290	n/a	n/a	0	n/a	0	0	0	0.57763671875	0.412841796875	1	lower	zerothre.ttf
1564144	START	n/a	LTP105	ltpFR	9	n/a	n/a	n/a	n/a	n/a	n/a	n/a	n/a	n/a	n/a	n/a	n/a	n/a	n/a	n/a	n/a
1565177	PROB	n/a	LTP105	ltpFR	9	n/a	n/a	n/a	n/a	n/a	n/a	n/a	19	8	2	9	n/a	n/a	n/a	n/a	n/a
1566662	PROB	n/a	LTP105	ltpFR	9	n/a	n/a	n/a	n/a	n/a	n/a	n/a	15	4	5	6	n/a	n/a	n/a	n/a	n/a
1568085	PROB	n/a	LTP105	ltpFR	9	n/a	n/a	n/a	n/a	n/a	n/a	n/a	11	1	9	1	n/a	n/a	n/a	n/a	n/a
1569427	PROB	n/a	LTP105	ltpFR	9	n/a	n/a	n/a	n/a	n/a	n/a	n/a	8	6	1	1	n/a	n/a	n/a	n/a	n/a
1570844	PROB	n/a	LTP105	ltpFR	9	n/a	n/a	n/a	n/a	n/a	n/a	n/a	20	5	6	9	n/a	n/a	n/a	n/a	n/a
1572135	PROB	n/a	LTP105	ltpFR	9	n/a	n/a	n/a	n/a	n/a	n/a	n/a	24	8	9	8	n/a	n/a	n/a	n/a	n/a
1574068	PROB	n/a	LTP105	ltpFR	9	n/a	n/a	n/a	n/a	n/a	n/a	n/a	15	4	6	5	n/a	n/a	n/a	n/a	n/a
1575669	PROB	n/a	LTP105	ltpFR	9	n/a	n/a	n/a	n/a	n/a	n/a	n/a	8	5	1	2	n/a	n/a	n/a	n/a	n/a
1576910	PROB	n/a	LTP105	ltpFR	9	n/a	n/a	n/a	n/a	n/a	n/a	n/a	16	4	4	8	n/a	n/a	n/a	n/a	n/a
1578669	STOP	n/a	LTP105	ltpFR	9	n/a	n/a	n/a	n/a	n/a	n/a	n/a	n/a	n/a	n/a	n/a	n/a	n/a	n/a	n/a	n/a
1582035	REC_START	n/a	LTP105	ltpFR	9	7	n/a	n/a	n/a	n/a	n/a	n/a	n/a	0	0	0	n/a	n/a	n/a	n/a	n/a
1584260	REC_WORD	wordpools/wasnorm_wordpool.txt	LTP105	ltpFR	9	7	0	TREE	1502	n/a	n/a	1	n/a	0	0	0	n/a	n/a	n/a	n/a	n/a
1618442	REC_WORD	wordpools/wasnorm_wordpool.txt	LTP105	ltpFR	9	7	0	DAM	436	n/a	n/a	1	n/a	0	0	0	n/a	n/a	n/a	n/a	n/a
1636701	REC_WORD	wordpools/wasnorm_wordpool.txt	LTP105	ltpFR	9	7	0	OTTER	986	n/a	n/a	1	n/a	0	0	0	n/a	n/a	n/a	n/a	n/a
1660003	WORD	wordpools/wasnorm_wordpool.txt	LTP105	ltpFR	9	8	1	HOSTAGE	722	n/a	n/a	1	n/a	0	0	0	0.422607421875	0.5869140625	0	upper	amplitud.ttf
1664128	WORD	wordpools/wasnorm_wordpool.txt	LTP105	ltpFR	9	8	1	TACK	1428	n/a	n/a	0	n/a	0	0	0	0.422607421875	0.5869140625	0	upper	amplitud.ttf
1668019	WORD	wordpools/wasnorm_wordpool.txt	LTP105	ltpFR	9	8	1	NAIL	936	n/a	n/a	1	n/a	0	0	0	0.422607421875	0.5869140625	0	upper	amplitud.ttf
1671961	WORD	wordpools/wasnorm_wordpool.txt	LTP105	ltpFR	9	8	1	BARN	89	n/a	n/a	0	n/a	0	0	0	0.422607421875	0.5869140625	0	upper	amplitud.ttf
1676152	WORD	wordpools/wasnorm_wordpool.txt	LTP105	ltpFR	9	8	1	OLIVE	975	n/a	n/a	0	n/a	0	0	0	0.422607421875	0.5869140625	0	upper	amplitud.ttf
1680144	WORD	wordpools/wasnorm_wordpool.txt	LTP105	ltpFR	9	8	1	BOXER	160	n/a	n/a	1	n/a	0	0	0	0.422607421875	0.5869140625	0	upper	amplitud.ttf
1683977	WORD	wordpools/wasnorm_wordpool.txt	LTP105	ltpFR	9	8	1	PASTA	1021	n/a	n/a	1	n/a	0	0	0	0.422607421875	0.5869140625	0	upper	amplitud.ttf
1687918	WORD	wordpools/wasnorm_wordpool.txt	LTP105	ltpFR	9	8	1	ANGEL	22	n/a	n/a	0	n/a	0	0	0	0.422607421875	0.5869140625	0	upper	amplitud.ttf
1691893	WORD	wordpools/wasnorm_wordpool.txt	LTP105	ltpFR	9	8	1	STRAW	1390	n/a	n/a	n/a	n/a	0	0	0	0.422607421875	0.5869140625	0	upper	amplitud.ttf
1694917	SLOW_MSG	n/a	LTP105	ltpFR	9	8	n/a	n/a	n/a	n/a	n/a	n/a	n/a	0	0	0	n/a	n/a	n/a	n/a	n/a
1697425	WORD	wordpools/wasnorm_wordpool.txt	LTP105	ltpFR	9	8	1	CONVICT	371	n/a	n/a	1	n/a	0	0	0	0.422607421875	0.5869140625	0	upper	amplitud.ttf
1701392	WORD	wordpools/wasnorm_wordpool.txt	LTP105	ltpFR	9	8	1	PISTON	1076	n/a	n/a	0	n/a	0	0	0	0.422607421875	0.5869140625	0	upper	amplitud.ttf
1705267	WORD	wordpools/wasnorm_wordpool.txt	LTP105	ltpFR	9	8	1	SEA	1259	n/a	n/a	1	n/a	0	0	0	0.422607421875	0.5869140625	0	upper	amplitud.ttf
1709175	WORD	wordpools/wasnorm_wordpool.txt	LTP105	ltpFR	9	8	1	SCALLOP	1242	n/a	n/a	1	n/a	0	0	0	0.422607421875	0.5869140625	0	upper	amplitud.ttf
1713083	WORD	wordpools/wasnorm_wordpool.txt	LTP105	ltpFR	9	8	1	LIEUTENANT	818	n/a	n/a	1	n/a	0	0	0	0.422607421875	0.5869140625	0	upper	amplitud.ttf
1717049	WORD	wordpools/wasnorm_wordpool.txt	LTP105	ltpFR	9	8	1	FROST	609	n/a	n/a	1	n/a	0	0	0	0.422607421875	0.5869140625	0	upper	amplitud.ttf
1721240	WORD	wordpools/wasnorm_wordpool.txt	LTP105	ltpFR	9	8	1	COAT	333	n/a	n/a	0	n/a	0	0	0	0.422607421875	0.5869140625	0	upper	amplitud.ttf
1727174	REC_START	n/a	LTP105	ltpFR	9	8	n/a	n/a	n/a	n/a	n/a	n/a	n/a	0	0	0	n/a	n/a	n/a	n/a	n/a
1729314	REC_WORD	wordpools/wasnorm_wordpool.txt	LTP105	ltpFR	9	8	1	COAT	333	n/a	n/a	0	n/a	0	0	0	n/a	n/a	n/a	n/a	n/a
1730641	REC_WORD	wordpools/wasnorm_wordpool.txt	LTP105	ltpFR	9	8	1	FROST	609	n/a	n/a	1	n/a	0	0	0	n/a	n/a	n/a	n/a	n/a
1732257	REC_WORD	wordpools/wasnorm_wordpool.txt	LTP105	ltpFR	9	8	1	LIEUTENANT	818	n/a	n/a	1	n/a	0	0	0	n/a	n/a	n/a	n/a	n/a
1733784	REC_WORD	wordpools/wasnorm_wordpool.txt	LTP105	ltpFR	9	8	1	SEA	1259	n/a	n/a	1	n/a	0	0	0	n/a	n/a	n/a	n/a	n/a
1735370	REC_WORD	wordpools/wasnorm_wordpool.txt	LTP105	ltpFR	9	8	1	SCALLOP	1242	n/a	n/a	1	n/a	0	0	0	n/a	n/a	n/a	n/a	n/a
1815366	WORD	wordpools/wasnorm_wordpool.txt	LTP105	ltpFR	9	9	1	SIDEWALK	1303	n/a	n/a	0	n/a	0	0	0	0.422607421875	0.5869140625	0	upper	amplitud.ttf
1819458	WORD	wordpools/wasnorm_wordpool.txt	LTP105	ltpFR	9	9	1	PEDESTRIAN	1038	n/a	n/a	1	n/a	0	0	0	0.422607421875	0.5869140625	0	upper	amplitud.ttf
1823642	WORD	wordpools/wasnorm_wordpool.txt	LTP105	ltpFR	9	9	1	CHAUFFEUR	283	n/a	n/a	1	n/a	0	0	0	0.422607421875	0.5869140625	0	upper	amplitud.ttf
1827700	WORD	wordpools/wasnorm_wordpool.txt	LTP105	ltpFR	9	9	1	COLLAR	345	n/a	n/a	0	n/a	0	0	0	0.422607421875	0.5869140625	0	upper	amplitud.ttf
1831823	WORD	wordpools/wasnorm_wordpool.txt	LTP105	ltpFR	9	9	1	BUTTON	207	n/a	n/a	0	n/a	0	0	0	0.422607421875	0.5869140625	0	upper	amplitud.ttf
1835724	WORD	wordpools/wasnorm_wordpool.txt	LTP105	ltpFR	9	9	1	SERVER	1272	n/a	n/a	1	n/a	0	0	0	0.422607421875	0.5869140625	0	upper	amplitud.ttf
1839757	WORD	wordpools/wasnorm_wordpool.txt	LTP105	ltpFR	9	9	1	ASTRONAUT	51	n/a	n/a	1	n/a	0	0	0	0.422607421875	0.5869140625	0	upper	amplitud.ttf
1843599	WORD	wordpools/wasnorm_wordpool.txt	LTP105	ltpFR	9	9	1	RUNNER	1218	n/a	n/a	1	n/a	0	0	0	0.422607421875	0.5869140625	0	upper	amplitud.ttf
1847557	WORD	wordpools/wasnorm_wordpool.txt	LTP105	ltpFR	9	9	1	BUS	201	n/a	n/a	0	n/a	0	0	0	0.422607421875	0.5869140625	0	upper	amplitud.ttf
1851489	WORD	wordpools/wasnorm_wordpool.txt	LTP105	ltpFR	9	9	1	FOX	598	n/a	n/a	0	n/a	0	0	0	0.422607421875	0.5869140625	0	upper	amplitud.ttf
1855372	WORD	wordpools/wasnorm_wordpool.txt	LTP105	ltpFR	9	9	1	TURTLE	1522	n/a	n/a	1	n/a	0	0	0	0.422607421875	0.5869140625	0	upper	amplitud.ttf
1859380	WORD	wordpools/wasnorm_wordpool.txt	LTP105	ltpFR	9	9	1	SUPPER	1411	n/a	n/a	0	n/a	0	0	0	0.422607421875	0.5869140625	0	upper	amplitud.ttf
1863371	WORD	wordpools/wasnorm_wordpool.txt	LTP105	ltpFR	9	9	1	HIGHWAY	707	n/a	n/a	0	n/a	0	0	0	0.422607421875	0.5869140625	0	upper	amplitud.ttf
1867504	WORD	wordpools/wasnorm_wordpool.txt	LTP105	ltpFR	9	9	1	HOUSE	725	n/a	n/a	0	n/a	0	0	0	0.422607421875	0.5869140625	0	upper	amplitud.ttf
1871655	WORD	wordpools/wasnorm_wordpool.txt	LTP105	ltpFR	9	9	1	APE	31	n/a	n/a	1	n/a	0	0	0	0.422607421875	0.5869140625	0	upper	amplitud.ttf
1875746	WORD	wordpools/wasnorm_wordpool.txt	LTP105	ltpFR	9	9	1	THUMB	1462	n/a	n/a	0	n/a	0	0	0	0.422607421875	0.5869140625	0	upper	amplitud.ttf
1878754	START	n/a	LTP105	ltpFR	9	n/a	n/a	n/a	n/a	n/a	n/a	n/a	n/a	n/a	n/a	n/a	n/a	n/a	n/a	n/a	n/a
1879721	PROB	n/a	LTP105	ltpFR	9	n/a	n/a	n/a	n/a	n/a	n/a	n/a	10	2	3	5	n/a	n/a	n/a	n/a	n/a
1883011	PROB	n/a	LTP105	ltpFR	9	n/a	n/a	n/a	n/a	n/a	n/a	n/a	8	3	3	2	n/a	n/a	n/a	n/a	n/a
1884754	PROB	n/a	LTP105	ltpFR	9	n/a	n/a	n/a	n/a	n/a	n/a	n/a	17	6	4	7	n/a	n/a	n/a	n/a	n/a
1886036	PROB	n/a	LTP105	ltpFR	9	n/a	n/a	n/a	n/a	n/a	n/a	n/a	14	5	8	1	n/a	n/a	n/a	n/a	n/a
1887303	PROB	n/a	LTP105	ltpFR	9	n/a	n/a	n/a	n/a	n/a	n/a	n/a	3	2	3	8	n/a	n/a	n/a	n/a	n/a
1888852	PROB	n/a	LTP105	ltpFR	9	n/a	n/a	n/a	n/a	n/a	n/a	n/a	17	3	5	9	n/a	n/a	n/a	n/a	n/a
1890553	PROB	n/a	LTP105	ltpFR	9	n/a	n/a	n/a	n/a	n/a	n/a	n/a	14	8	4	2	n/a	n/a	n/a	n/a	n/a
1891927	PROB	n/a	LTP105	ltpFR	9	n/a	n/a	n/a	n/a	n/a	n/a	n/a	7	1	1	5	n/a	n/a	n/a	n/a	n/a
1892977	PROB	n/a	LTP105	ltpFR	9	n/a	n/a	n/a	n/a	n/a	n/a	n/a	18	8	2	8	n/a	n/a	n/a	n/a	n/a
1894500	STOP	n/a	LTP105	ltpFR	9	n/a	n/a	n/a	n/a	n/a	n/a	n/a	n/a	n/a	n/a	n/a	n/a	n/a	n/a	n/a	n/a
1896637	REC_START	n/a	LTP105	ltpFR	9	9	n/a	n/a	n/a	n/a	n/a	n/a	n/a	0	0	0	n/a	n/a	n/a	n/a	n/a
1898019	REC_WORD	wordpools/wasnorm_wordpool.txt	LTP105	ltpFR	9	9	1	THUMB	1462	n/a	n/a	0	n/a	0	0	0	n/a	n/a	n/a	n/a	n/a
1899116	REC_WORD	wordpools/wasnorm_wordpool.txt	LTP105	ltpFR	9	9	1	HOUSE	725	n/a	n/a	0	n/a	0	0	0	n/a	n/a	n/a	n/a	n/a
1900453	REC_WORD	wordpools/wasnorm_wordpool.txt	LTP105	ltpFR	9	9	1	HIGHWAY	707	n/a	n/a	0	n/a	0	0	0	n/a	n/a	n/a	n/a	n/a
1904235	REC_WORD	wordpools/wasnorm_wordpool.txt	LTP105	ltpFR	9	9	1	SIDEWALK	1303	n/a	n/a	0	n/a	0	0	0	n/a	n/a	n/a	n/a	n/a
1906639	REC_WORD	wordpools/wasnorm_wordpool.txt	LTP105	ltpFR	9	9	1	PEDESTRIAN	1038	n/a	n/a	1	n/a	0	0	0	n/a	n/a	n/a	n/a	n/a
1907936	REC_WORD	wordpools/wasnorm_wordpool.txt	LTP105	ltpFR	9	9	1	CHAUFFEUR	283	n/a	n/a	1	n/a	0	0	0	n/a	n/a	n/a	n/a	n/a
1909153	REC_WORD	wordpools/wasnorm_wordpool.txt	LTP105	ltpFR	9	9	1	COLLAR	345	n/a	n/a	0	n/a	0	0	0	n/a	n/a	n/a	n/a	n/a
1910371	REC_WORD	wordpools/wasnorm_wordpool.txt	LTP105	ltpFR	9	9	1	BUTTON	207	n/a	n/a	0	n/a	0	0	0	n/a	n/a	n/a	n/a	n/a
1911787	REC_WORD	wordpools/wasnorm_wordpool.txt	LTP105	ltpFR	9	9	1	SERVER	1272	n/a	n/a	1	n/a	0	0	0	n/a	n/a	n/a	n/a	n/a
1930186	REC_WORD	wordpools/wasnorm_wordpool.txt	LTP105	ltpFR	9	9	1	APE	31	n/a	n/a	1	n/a	0	0	0	n/a	n/a	n/a	n/a	n/a
1976146	START	n/a	LTP105	ltpFR	9	n/a	n/a	n/a	n/a	n/a	n/a	n/a	n/a	n/a	n/a	n/a	n/a	n/a	n/a	n/a	n/a
1977655	PROB	n/a	LTP105	ltpFR	9	n/a	n/a	n/a	n/a	n/a	n/a	n/a	15	3	5	7	n/a	n/a	n/a	n/a	n/a
1979379	PROB	n/a	LTP105	ltpFR	9	n/a	n/a	n/a	n/a	n/a	n/a	n/a	11	3	4	4	n/a	n/a	n/a	n/a	n/a
1980646	PROB	n/a	LTP105	ltpFR	9	n/a	n/a	n/a	n/a	n/a	n/a	n/a	19	6	7	6	n/a	n/a	n/a	n/a	n/a
1982145	PROB	n/a	LTP105	ltpFR	9	n/a	n/a	n/a	n/a	n/a	n/a	n/a	5	3	1	1	n/a	n/a	n/a	n/a	n/a
1983157	STOP	n/a	LTP105	ltpFR	9	n/a	n/a	n/a	n/a	n/a	n/a	n/a	n/a	n/a	n/a	n/a	n/a	n/a	n/a	n/a	n/a
1985345	WORD	wordpools/wasnorm_wordpool.txt	LTP105	ltpFR	9	10	0	EDITORIAL	517	n/a	n/a	1	n/a	0	0	0	0.57763671875	0.412841796875	1	lower	zerothre.ttf
1988354	START	n/a	LTP105	ltpFR	9	n/a	n/a	n/a	n/a	n/a	n/a	n/a	n/a	n/a	n/a	n/a	n/a	n/a	n/a	n/a	n/a
1989328	PROB	n/a	LTP105	ltpFR	9	n/a	n/a	n/a	n/a	n/a	n/a	n/a	14	3	9	1	n/a	n/a	n/a	n/a	n/a
1990637	PROB	n/a	LTP105	ltpFR	9	n/a	n/a	n/a	n/a	n/a	n/a	n/a	13	3	7	3	n/a	n/a	n/a	n/a	n/a
1992444	PROB	n/a	LTP105	ltpFR	9	n/a	n/a	n/a	n/a	n/a	n/a	n/a	19	6	5	8	n/a	n/a	n/a	n/a	n/a
1996353	STOP	n/a	LTP105	ltpFR	9	n/a	n/a	n/a	n/a	n/a	n/a	n/a	n/a	n/a	n/a	n/a	n/a	n/a	n/a	n/a	n/a
1997477	WORD	wordpools/wasnorm_wordpool.txt	LTP105	ltpFR	9	10	0	TOILET	1475	n/a	n/a	0	n/a	0	0	0	0.57763671875	0.412841796875	1	lower	zerothre.ttf
2000486	START	n/a	LTP105	ltpFR	9	n/a	n/a	n/a	n/a	n/a	n/a	n/a	n/a	n/a	n/a	n/a	n/a	n/a	n/a	n/a	n/a
2001595	PROB	n/a	LTP105	ltpFR	9	n/a	n/a	n/a	n/a	n/a	n/a	n/a	8	1	2	5	n/a	n/a	n/a	n/a	n/a
2003169	PROB	n/a	LTP105	ltpFR	9	n/a	n/a	n/a	n/a	n/a	n/a	n/a	14	8	7	2	n/a	n/a	n/a	n/a	n/a
2004728	PROB	n/a	LTP105	ltpFR	9	n/a	n/a	n/a	n/a	n/a	n/a	n/a	19	7	5	7	n/a	n/a	n/a	n/a	n/a
2007517	STOP	n/a	LTP105	ltpFR	9	n/a	n/a	n/a	n/a	n/a	n/a	n/a	n/a	n/a	n/a	n/a	n/a	n/a	n/a	n/a	n/a
2009326	WORD	wordpools/wasnorm_wordpool.txt	LTP105	ltpFR	9	10	0	ROOM	1206	n/a	n/a	0	n/a	0	0	0	0.57763671875	0.412841796875	1	lower	zerothre.ttf
2012327	START	n/a	LTP105	ltpFR	9	n/a	n/a	n/a	n/a	n/a	n/a	n/a	n/a	n/a	n/a	n/a	n/a	n/a	n/a	n/a	n/a
2013143	PROB	n/a	LTP105	ltpFR	9	n/a	n/a	n/a	n/a	n/a	n/a	n/a	22	9	9	4	n/a	n/a	n/a	n/a	n/a
2014993	PROB	n/a	LTP105	ltpFR	9	n/a	n/a	n/a	n/a	n/a	n/a	n/a	17	3	6	8	n/a	n/a	n/a	n/a	n/a
2016901	PROB	n/a	LTP105	ltpFR	9	n/a	n/a	n/a	n/a	n/a	n/a	n/a	16	8	2	6	n/a	n/a	n/a	n/a	n/a
2018209	PROB	n/a	LTP105	ltpFR	9	n/a	n/a	n/a	n/a	n/a	n/a	n/a	14	3	3	8	n/a	n/a	n/a	n/a	n/a
2019469	STOP	n/a	LTP105	ltpFR	9	n/a	n/a	n/a	n/a	n/a	n/a	n/a	n/a	n/a	n/a	n/a	n/a	n/a	n/a	n/a	n/a
2021334	WORD	wordpools/wasnorm_wordpool.txt	LTP105	ltpFR	9	10	0	IRON	744	n/a	n/a	0	n/a	0	0	0	0.57763671875	0.412841796875	1	lower	zerothre.ttf
2024342	START	n/a	LTP105	ltpFR	9	n/a	n/a	n/a	n/a	n/a	n/a	n/a	n/a	n/a	n/a	n/a	n/a	n/a	n/a	n/a	n/a
2025209	PROB	n/a	LTP105	ltpFR	9	n/a	n/a	n/a	n/a	n/a	n/a	n/a	13	5	5	3	n/a	n/a	n/a	n/a	n/a
2026475	PROB	n/a	LTP105	ltpFR	9	n/a	n/a	n/a	n/a	n/a	n/a	n/a	8	2	2	4	n/a	n/a	n/a	n/a	n/a
2028058	PROB	n/a	LTP105	ltpFR	9	n/a	n/a	n/a	n/a	n/a	n/a	n/a	15	4	8	3	n/a	n/a	n/a	n/a	n/a
2029275	PROB	n/a	LTP105	ltpFR	9	n/a	n/a	n/a	n/a	n/a	n/a	n/a	16	1	6	9	n/a	n/a	n/a	n/a	n/a
2031109	STOP	n/a	LTP105	ltpFR	9	n/a	n/a	n/a	n/a	n/a	n/a	n/a	n/a	n/a	n/a	n/a	n/a	n/a	n/a	n/a	n/a
2033466	WORD	wordpools/wasnorm_wordpool.txt	LTP105	ltpFR	9	10	0	CASHIER	254	n/a	n/a	1	n/a	0	0	0	0.57763671875	0.412841796875	1	lower	zerothre.ttf
2036466	START	n/a	LTP105	ltpFR	9	n/a	n/a	n/a	n/a	n/a	n/a	n/a	n/a	n/a	n/a	n/a	n/a	n/a	n/a	n/a	n/a
2037659	PROB	n/a	LTP105	ltpFR	9	n/a	n/a	n/a	n/a	n/a	n/a	n/a	20	4	9	7	n/a	n/a	n/a	n/a	n/a
2039257	PROB	n/a	LTP105	ltpFR	9	n/a	n/a	n/a	n/a	n/a	n/a	n/a	19	9	8	2	n/a	n/a	n/a	n/a	n/a
2040583	PROB	n/a	LTP105	ltpFR	9	n/a	n/a	n/a	n/a	n/a	n/a	n/a	6	1	4	1	n/a	n/a	n/a	n/a	n/a
2042575	PROB	n/a	LTP105	ltpFR	9	n/a	n/a	n/a	n/a	n/a	n/a	n/a	10	6	2	2	n/a	n/a	n/a	n/a	n/a
2044093	STOP	n/a	LTP105	ltpFR	9	n/a	n/a	n/a	n/a	n/a	n/a	n/a	n/a	n/a	n/a	n/a	n/a	n/a	n/a	n/a	n/a
2045524	WORD	wordpools/wasnorm_wordpool.txt	LTP105	ltpFR	9	10	0	EGG	518	n/a	n/a	0	n/a	0	0	0	0.57763671875	0.412841796875	1	lower	zerothre.ttf
2048533	START	n/a	LTP105	ltpFR	9	n/a	n/a	n/a	n/a	n/a	n/a	n/a	n/a	n/a	n/a	n/a	n/a	n/a	n/a	n/a	n/a
2049407	PROB	n/a	LTP105	ltpFR	9	n/a	n/a	n/a	n/a	n/a	n/a	n/a	18	4	6	8	n/a	n/a	n/a	n/a	n/a
2051790	PROB	n/a	LTP105	ltpFR	9	n/a	n/a	n/a	n/a	n/a	n/a	n/a	9	3	2	4	n/a	n/a	n/a	n/a	n/a
2053181	PROB	n/a	LTP105	ltpFR	9	n/a	n/a	n/a	n/a	n/a	n/a	n/a	13	3	5	5	n/a	n/a	n/a	n/a	n/a
2055221	STOP	n/a	LTP105	ltpFR	9	n/a	n/a	n/a	n/a	n/a	n/a	n/a	n/a	n/a	n/a	n/a	n/a	n/a	n/a	n/a	n/a
2057715	WORD	wordpools/wasnorm_wordpool.txt	LTP105	ltpFR	9	10	0	SKILLET	1317	n/a	n/a	1	n/a	0	0	0	0.57763671875	0.412841796875	1	lower	zerothre.ttf
2060716	START	n/a	LTP105	ltpFR	9	n/a	n/a	n/a	n/a	n/a	n/a	n/a	n/a	n/a	n/a	n/a	n/a	n/a	n/a	n/a	n/a
2061872	PROB	n/a	LTP105	ltpFR	9	n/a	n/a	n/a	n/a	n/a	n/a	n/a	17	9	5	3	n/a	n/a	n/a	n/a	n/a
2063573	PROB	n/a	LTP105	ltpFR	9	n/a	n/a	n/a	n/a	n/a	n/a	n/a	16	7	3	6	n/a	n/a	n/a	n/a	n/a
2064640	PROB	n/a	LTP105	ltpFR	9	n/a	n/a	n/a	n/a	n/a	n/a	n/a	17	9	1	7	n/a	n/a	n/a	n/a	n/a
2066205	PROB	n/a	LTP105	ltpFR	9	n/a	n/a	n/a	n/a	n/a	n/a	n/a	11	5	1	5	n/a	n/a	n/a	n/a	n/a
2068085	STOP	n/a	LTP105	ltpFR	9	n/a	n/a	n/a	n/a	n/a	n/a	n/a	n/a	n/a	n/a	n/a	n/a	n/a	n/a	n/a	n/a
2069839	WORD	wordpools/wasnorm_wordpool.txt	LTP105	ltpFR	9	10	0	COLESLAW	344	n/a	n/a	0	n/a	0	0	0	0.57763671875	0.412841796875	1	lower	zerothre.ttf
2072847	START	n/a	LTP105	ltpFR	9	n/a	n/a	n/a	n/a	n/a	n/a	n/a	n/a	n/a	n/a	n/a	n/a	n/a	n/a	n/a	n/a
2073788	PROB	n/a	LTP105	ltpFR	9	n/a	n/a	n/a	n/a	n/a	n/a	n/a	6	1	2	3	n/a	n/a	n/a	n/a	n/a
2074955	PROB	n/a	LTP105	ltpFR	9	n/a	n/a	n/a	n/a	n/a	n/a	n/a	13	7	2	4	n/a	n/a	n/a	n/a	n/a
2076471	PROB	n/a	LTP105	ltpFR	9	n/a	n/a	n/a	n/a	n/a	n/a	n/a	17	6	2	9	n/a	n/a	n/a	n/a	n/a
2078121	PROB	n/a	LTP105	ltpFR	9	n/a	n/a	n/a	n/a	n/a	n/a	n/a	19	6	9	4	n/a	n/a	n/a	n/a	n/a
2079781	STOP	n/a	LTP105	ltpFR	9	n/a	n/a	n/a	n/a	n/a	n/a	n/a	n/a	n/a	n/a	n/a	n/a	n/a	n/a	n/a	n/a
2082013	WORD	wordpools/wasnorm_wordpool.txt	LTP105	ltpFR	9	10	0	CHECK	284	n/a	n/a	0	n/a	0	0	0	0.57763671875	0.412841796875	1	lower	zerothre.ttf
2085021	START	n/a	LTP105	ltpFR	9	n/a	n/a	n/a	n/a	n/a	n/a	n/a	n/a	n/a	n/a	n/a	n/a	n/a	n/a	n/a	n/a
2085862	PROB	n/a	LTP105	ltpFR	9	n/a	n/a	n/a	n/a	n/a	n/a	n/a	18	6	8	4	n/a	n/a	n/a	n/a	n/a
2087345	PROB	n/a	LTP105	ltpFR	9	n/a	n/a	n/a	n/a	n/a	n/a	n/a	15	4	5	6	n/a	n/a	n/a	n/a	n/a
2089104	PROB	n/a	LTP105	ltpFR	9	n/a	n/a	n/a	n/a	n/a	n/a	n/a	12	1	8	3	n/a	n/a	n/a	n/a	n/a
2090362	PROB	n/a	LTP105	ltpFR	9	n/a	n/a	n/a	n/a	n/a	n/a	n/a	21	7	5	9	n/a	n/a	n/a	n/a	n/a
2092037	STOP	n/a	LTP105	ltpFR	9	n/a	n/a	n/a	n/a	n/a	n/a	n/a	n/a	n/a	n/a	n/a	n/a	n/a	n/a	n/a	n/a
2094012	WORD	wordpools/wasnorm_wordpool.txt	LTP105	ltpFR	9	10	0	NOMAD	955	n/a	n/a	0	n/a	0	0	0	0.57763671875	0.412841796875	1	lower	zerothre.ttf
2097020	START	n/a	LTP105	ltpFR	9	n/a	n/a	n/a	n/a	n/a	n/a	n/a	n/a	n/a	n/a	n/a	n/a	n/a	n/a	n/a	n/a
2097995	PROB	n/a	LTP105	ltpFR	9	n/a	n/a	n/a	n/a	n/a	n/a	n/a	17	4	9	4	n/a	n/a	n/a	n/a	n/a
2100419	PROB	n/a	LTP105	ltpFR	9	n/a	n/a	n/a	n/a	n/a	n/a	n/a	14	2	7	5	n/a	n/a	n/a	n/a	n/a
2105020	STOP	n/a	LTP105	ltpFR	9	n/a	n/a	n/a	n/a	n/a	n/a	n/a	n/a	n/a	n/a	n/a	n/a	n/a	n/a	n/a	n/a
2106144	WORD	wordpools/wasnorm_wordpool.txt	LTP105	ltpFR	9	10	0	REFRIGERATOR	1179	n/a	n/a	1	n/a	0	0	0	0.57763671875	0.412841796875	1	lower	zerothre.ttf
2109153	START	n/a	LTP105	ltpFR	9	n/a	n/a	n/a	n/a	n/a	n/a	n/a	n/a	n/a	n/a	n/a	n/a	n/a	n/a	n/a	n/a
2110144	PROB	n/a	LTP105	ltpFR	9	n/a	n/a	n/a	n/a	n/a	n/a	n/a	25	9	8	9	n/a	n/a	n/a	n/a	n/a
2112027	PROB	n/a	LTP105	ltpFR	9	n/a	n/a	n/a	n/a	n/a	n/a	n/a	20	9	9	2	n/a	n/a	n/a	n/a	n/a
2113611	PROB	n/a	LTP105	ltpFR	9	n/a	n/a	n/a	n/a	n/a	n/a	n/a	23	7	8	8	n/a	n/a	n/a	n/a	n/a
2115611	PROB	n/a	LTP105	ltpFR	9	n/a	n/a	n/a	n/a	n/a	n/a	n/a	14	9	3	2	n/a	n/a	n/a	n/a	n/a
2116877	STOP	n/a	LTP105	ltpFR	9	n/a	n/a	n/a	n/a	n/a	n/a	n/a	n/a	n/a	n/a	n/a	n/a	n/a	n/a	n/a	n/a
2118035	WORD	wordpools/wasnorm_wordpool.txt	LTP105	ltpFR	9	10	0	DRYER	503	n/a	n/a	1	n/a	0	0	0	0.57763671875	0.412841796875	1	lower	zerothre.ttf
2121043	START	n/a	LTP105	ltpFR	9	n/a	n/a	n/a	n/a	n/a	n/a	n/a	n/a	n/a	n/a	n/a	n/a	n/a	n/a	n/a	n/a
2121993	PROB	n/a	LTP105	ltpFR	9	n/a	n/a	n/a	n/a	n/a	n/a	n/a	9	7	1	1	n/a	n/a	n/a	n/a	n/a
2123259	PROB	n/a	LTP105	ltpFR	9	n/a	n/a	n/a	n/a	n/a	n/a	n/a	10	5	2	3	n/a	n/a	n/a	n/a	n/a
2124594	PROB	n/a	LTP105	ltpFR	9	n/a	n/a	n/a	n/a	n/a	n/a	n/a	16	7	4	5	n/a	n/a	n/a	n/a	n/a
2126076	PROB	n/a	LTP105	ltpFR	9	n/a	n/a	n/a	n/a	n/a	n/a	n/a	17	4	5	8	n/a	n/a	n/a	n/a	n/a
2127517	PROB	n/a	LTP105	ltpFR	9	n/a	n/a	n/a	n/a	n/a	n/a	n/a	13	4	1	8	n/a	n/a	n/a	n/a	n/a
2128853	STOP	n/a	LTP105	ltpFR	9	n/a	n/a	n/a	n/a	n/a	n/a	n/a	n/a	n/a	n/a	n/a	n/a	n/a	n/a	n/a	n/a
2130192	WORD	wordpools/wasnorm_wordpool.txt	LTP105	ltpFR	9	10	0	RAIL	1161	n/a	n/a	1	n/a	0	0	0	0.57763671875	0.412841796875	1	lower	zerothre.ttf
2133201	START	n/a	LTP105	ltpFR	9	n/a	n/a	n/a	n/a	n/a	n/a	n/a	n/a	n/a	n/a	n/a	n/a	n/a	n/a	n/a	n/a
2134109	PROB	n/a	LTP105	ltpFR	9	n/a	n/a	n/a	n/a	n/a	n/a	n/a	19	6	5	8	n/a	n/a	n/a	n/a	n/a
2135559	PROB	n/a	LTP105	ltpFR	9	n/a	n/a	n/a	n/a	n/a	n/a	n/a	14	2	7	5	n/a	n/a	n/a	n/a	n/a
2136950	PROB	n/a	LTP105	ltpFR	9	n/a	n/a	n/a	n/a	n/a	n/a	n/a	23	6	8	9	n/a	n/a	n/a	n/a	n/a
2138701	PROB	n/a	LTP105	ltpFR	9	n/a	n/a	n/a	n/a	n/a	n/a	n/a	11	5	5	1	n/a	n/a	n/a	n/a	n/a
2139694	STOP	n/a	LTP105	ltpFR	9	n/a	n/a	n/a	n/a	n/a	n/a	n/a	n/a	n/a	n/a	n/a	n/a	n/a	n/a	n/a	n/a
2142066	WORD	wordpools/wasnorm_wordpool.txt	LTP105	ltpFR	9	10	0	STREET	1393	n/a	n/a	1	n/a	0	0	0	0.57763671875	0.412841796875	1	lower	zerothre.ttf
2145075	START	n/a	LTP105	ltpFR	9	n/a	n/a	n/a	n/a	n/a	n/a	n/a	n/a	n/a	n/a	n/a	n/a	n/a	n/a	n/a	n/a
2146249	PROB	n/a	LTP105	ltpFR	9	n/a	n/a	n/a	n/a	n/a	n/a	n/a	22	9	6	7	n/a	n/a	n/a	n/a	n/a
2148916	PROB	n/a	LTP105	ltpFR	9	n/a	n/a	n/a	n/a	n/a	n/a	n/a	18	7	8	3	n/a	n/a	n/a	n/a	n/a
2150391	PROB	n/a	LTP105	ltpFR	9	n/a	n/a	n/a	n/a	n/a	n/a	n/a	6	2	3	1	n/a	n/a	n/a	n/a	n/a
2151925	STOP	n/a	LTP105	ltpFR	9	n/a	n/a	n/a	n/a	n/a	n/a	n/a	n/a	n/a	n/a	n/a	n/a	n/a	n/a	n/a	n/a
2154232	WORD	wordpools/wasnorm_wordpool.txt	LTP105	ltpFR	9	10	0	SAP	1233	n/a	n/a	0	n/a	0	0	0	0.57763671875	0.412841796875	1	lower	zerothre.ttf
2157240	START	n/a	LTP105	ltpFR	9	n/a	n/a	n/a	n/a	n/a	n/a	n/a	n/a	n/a	n/a	n/a	n/a	n/a	n/a	n/a	n/a
2158265	PROB	n/a	LTP105	ltpFR	9	n/a	n/a	n/a	n/a	n/a	n/a	n/a	5	3	1	1	n/a	n/a	n/a	n/a	n/a
2159490	PROB	n/a	LTP105	ltpFR	9	n/a	n/a	n/a	n/a	n/a	n/a	n/a	20	8	7	5	n/a	n/a	n/a	n/a	n/a
2160815	PROB	n/a	LTP105	ltpFR	9	n/a	n/a	n/a	n/a	n/a	n/a	n/a	2	8	8	8	n/a	n/a	n/a	n/a	n/a
2165240	STOP	n/a	LTP105	ltpFR	9	n/a	n/a	n/a	n/a	n/a	n/a	n/a	n/a	n/a	n/a	n/a	n/a	n/a	n/a	n/a	n/a
2166206	WORD	wordpools/wasnorm_wordpool.txt	LTP105	ltpFR	9	10	0	HOE	711	n/a	n/a	0	n/a	0	0	0	0.57763671875	0.412841796875	1	lower	zerothre.ttf
2169214	START	n/a	LTP105	ltpFR	9	n/a	n/a	n/a	n/a	n/a	n/a	n/a	n/a	n/a	n/a	n/a	n/a	n/a	n/a	n/a	n/a
2170322	PROB	n/a	LTP105	ltpFR	9	n/a	n/a	n/a	n/a	n/a	n/a	n/a	14	2	7	5	n/a	n/a	n/a	n/a	n/a
2172022	PROB	n/a	LTP105	ltpFR	9	n/a	n/a	n/a	n/a	n/a	n/a	n/a	15	5	3	7	n/a	n/a	n/a	n/a	n/a
2173331	PROB	n/a	LTP105	ltpFR	9	n/a	n/a	n/a	n/a	n/a	n/a	n/a	12	1	5	6	n/a	n/a	n/a	n/a	n/a
2174522	PROB	n/a	LTP105	ltpFR	9	n/a	n/a	n/a	n/a	n/a	n/a	n/a	21	8	4	9	n/a	n/a	n/a	n/a	n/a
2176045	STOP	n/a	LTP105	ltpFR	9	n/a	n/a	n/a	n/a	n/a	n/a	n/a	n/a	n/a	n/a	n/a	n/a	n/a	n/a	n/a	n/a
2179056	REC_START	n/a	LTP105	ltpFR	9	10	n/a	n/a	n/a	n/a	n/a	n/a	n/a	0	0	0	n/a	n/a	n/a	n/a	n/a
2180947	REC_WORD	wordpools/wasnorm_wordpool.txt	LTP105	ltpFR	9	10	0	SAP	1233	n/a	n/a	0	n/a	0	0	0	n/a	n/a	n/a	n/a	n/a
2182762	REC_WORD	wordpools/wasnorm_wordpool.txt	LTP105	ltpFR	9	10	0	STREET	1393	n/a	n/a	1	n/a	0	0	0	n/a	n/a	n/a	n/a	n/a
2184628	REC_WORD	wordpools/wasnorm_wordpool.txt	LTP105	ltpFR	9	10	0	REFRIGERATOR	1179	n/a	n/a	1	n/a	0	0	0	n/a	n/a	n/a	n/a	n/a
2186384	REC_WORD	wordpools/wasnorm_wordpool.txt	LTP105	ltpFR	9	10	0	NOMAD	955	n/a	n/a	0	n/a	0	0	0	n/a	n/a	n/a	n/a	n/a
2187991	REC_WORD	wordpools/wasnorm_wordpool.txt	LTP105	ltpFR	9	10	0	DRYER	503	n/a	n/a	1	n/a	0	0	0	n/a	n/a	n/a	n/a	n/a
2254650	REST_REWET	n/a	LTP105	ltpFR	9	10	n/a	n/a	n/a	n/a	n/a	n/a	n/a	0	0	0	n/a	n/a	n/a	n/a	n/a
2604947	WORD	wordpools/wasnorm_wordpool.txt	LTP105	ltpFR	9	11	0	MATCH	878	n/a	n/a	0	n/a	0	0	0	0.57763671875	0.412841796875	1	lower	zerothre.ttf
2609030	WORD	wordpools/wasnorm_wordpool.txt	LTP105	ltpFR	9	11	0	EXPLOSION	544	n/a	n/a	1	n/a	0	0	0	0.57763671875	0.412841796875	1	lower	zerothre.ttf
2613130	WORD	wordpools/wasnorm_wordpool.txt	LTP105	ltpFR	9	11	1	POPCORN	1104	n/a	n/a	0	n/a	0	0	0	0.422607421875	0.5869140625	0	upper	amplitud.ttf
2617238	WORD	wordpools/wasnorm_wordpool.txt	LTP105	ltpFR	9	11	1	CHEMICAL	291	n/a	n/a	0	n/a	0	0	0	0.422607421875	0.5869140625	0	upper	amplitud.ttf
2621446	WORD	wordpools/wasnorm_wordpool.txt	LTP105	ltpFR	9	11	1	ASTEROID	50	n/a	n/a	1	n/a	0	0	0	0.422607421875	0.5869140625	0	upper	amplitud.ttf
2625429	WORD	wordpools/wasnorm_wordpool.txt	LTP105	ltpFR	9	11	1	ORANGE	980	n/a	n/a	1	n/a	0	0	0	0.422607421875	0.5869140625	0	upper	amplitud.ttf
2629304	WORD	wordpools/wasnorm_wordpool.txt	LTP105	ltpFR	9	11	1	CHIPMUNK	304	n/a	n/a	1	n/a	0	0	0	0.422607421875	0.5869140625	0	upper	amplitud.ttf
2633503	WORD	wordpools/wasnorm_wordpool.txt	LTP105	ltpFR	9	11	1	COLLEGE	346	n/a	n/a	0	n/a	0	0	0	0.422607421875	0.5869140625	0	upper	amplitud.ttf
2637403	WORD	wordpools/wasnorm_wordpool.txt	LTP105	ltpFR	9	11	0	PICKLE	1059	n/a	n/a	1	n/a	0	0	0	0.57763671875	0.412841796875	1	lower	zerothre.ttf
2641236	WORD	wordpools/wasnorm_wordpool.txt	LTP105	ltpFR	9	11	0	GALAXY	617	n/a	n/a	1	n/a	0	0	0	0.57763671875	0.412841796875	1	lower	zerothre.ttf
2645161	WORD	wordpools/wasnorm_wordpool.txt	LTP105	ltpFR	9	11	0	VET	1560	n/a	n/a	1	n/a	0	0	0	0.57763671875	0.412841796875	1	lower	zerothre.ttf
2649211	WORD	wordpools/wasnorm_wordpool.txt	LTP105	ltpFR	9	11	0	GOAT	644	n/a	n/a	1	n/a	0	0	0	0.57763671875	0.412841796875	1	lower	zerothre.ttf
2653035	WORD	wordpools/wasnorm_wordpool.txt	LTP105	ltpFR	9	11	1	HERD	705	n/a	n/a	1	n/a	0	0	0	0.422607421875	0.5869140625	0	upper	amplitud.ttf
2656868	WORD	wordpools/wasnorm_wordpool.txt	LTP105	ltpFR	9	11	1	MANSION	864	n/a	n/a	0	n/a	0	0	0	0.422607421875	0.5869140625	0	upper	amplitud.ttf
2660826	WORD	wordpools/wasnorm_wordpool.txt	LTP105	ltpFR	9	11	0	APARTMENT	30	n/a	n/a	1	n/a	0	0	0	0.57763671875	0.412841796875	1	lower	zerothre.ttf
2664968	WORD	wordpools/wasnorm_wordpool.txt	LTP105	ltpFR	9	11	0	SNAKE	1333	n/a	n/a	1	n/a	0	0	0	0.57763671875	0.412841796875	1	lower	zerothre.ttf
2667976	START	n/a	LTP105	ltpFR	9	n/a	n/a	n/a	n/a	n/a	n/a	n/a	n/a	n/a	n/a	n/a	n/a	n/a	n/a	n/a	n/a
2669076	PROB	n/a	LTP105	ltpFR	9	n/a	n/a	n/a	n/a	n/a	n/a	n/a	14	7	3	4	n/a	n/a	n/a	n/a	n/a
2671342	PROB	n/a	LTP105	ltpFR	9	n/a	n/a	n/a	n/a	n/a	n/a	n/a	7	2	4	1	n/a	n/a	n/a	n/a	n/a
2672551	PROB	n/a	LTP105	ltpFR	9	n/a	n/a	n/a	n/a	n/a	n/a	n/a	14	9	2	3	n/a	n/a	n/a	n/a	n/a
2674167	PROB	n/a	LTP105	ltpFR	9	n/a	n/a	n/a	n/a	n/a	n/a	n/a	13	3	4	6	n/a	n/a	n/a	n/a	n/a
2675357	STOP	n/a	LTP105	ltpFR	9	n/a	n/a	n/a	n/a	n/a	n/a	n/a	n/a	n/a	n/a	n/a	n/a	n/a	n/a	n/a	n/a
2677876	REC_START	n/a	LTP105	ltpFR	9	11	n/a	n/a	n/a	n/a	n/a	n/a	n/a	0	0	0	n/a	n/a	n/a	n/a	n/a
2679706	REC_WORD	wordpools/wasnorm_wordpool.txt	LTP105	ltpFR	9	11	0	APARTMENT	30	n/a	n/a	1	n/a	0	0	0	n/a	n/a	n/a	n/a	n/a
2680664	REC_WORD	wordpools/wasnorm_wordpool.txt	LTP105	ltpFR	9	11	0	SNAKE	1333	n/a	n/a	1	n/a	0	0	0	n/a	n/a	n/a	n/a	n/a
2681597	REC_WORD	wordpools/wasnorm_wordpool.txt	LTP105	ltpFR	9	11	1	MANSION	864	n/a	n/a	0	n/a	0	0	0	n/a	n/a	n/a	n/a	n/a
2682560	REC_WORD	wordpools/wasnorm_wordpool.txt	LTP105	ltpFR	9	11	0	GOAT	644	n/a	n/a	1	n/a	0	0	0	n/a	n/a	n/a	n/a	n/a
2683538	REC_WORD	wordpools/wasnorm_wordpool.txt	LTP105	ltpFR	9	11	1	HERD	705	n/a	n/a	1	n/a	0	0	0	n/a	n/a	n/a	n/a	n/a
2689464	REC_WORD	wordpools/wasnorm_wordpool.txt	LTP105	ltpFR	9	11	0	PICKLE	1059	n/a	n/a	1	n/a	0	0	0	n/a	n/a	n/a	n/a	n/a
2690372	REC_WORD	wordpools/wasnorm_wordpool.txt	LTP105	ltpFR	9	11	0	GALAXY	617	n/a	n/a	1	n/a	0	0	0	n/a	n/a	n/a	n/a	n/a
2691934	REC_WORD	wordpools/wasnorm_wordpool.txt	LTP105	ltpFR	9	11	1	COLLEGE	346	n/a	n/a	0	n/a	0	0	0	n/a	n/a	n/a	n/a	n/a
2693475	REC_WORD	wordpools/wasnorm_wordpool.txt	LTP105	ltpFR	9	11	1	CHIPMUNK	304	n/a	n/a	1	n/a	0	0	0	n/a	n/a	n/a	n/a	n/a
2694603	REC_WORD	wordpools/wasnorm_wordpool.txt	LTP105	ltpFR	9	11	1	ORANGE	980	n/a	n/a	1	n/a	0	0	0	n/a	n/a	n/a	n/a	n/a
2695760	REC_WORD	wordpools/wasnorm_wordpool.txt	LTP105	ltpFR	9	11	1	ASTEROID	50	n/a	n/a	1	n/a	0	0	0	n/a	n/a	n/a	n/a	n/a
2702345	REC_WORD	wordpools/wasnorm_wordpool.txt	LTP105	ltpFR	9	11	1	CHEMICAL	291	n/a	n/a	0	n/a	0	0	0	n/a	n/a	n/a	n/a	n/a
2703173	REC_WORD	wordpools/wasnorm_wordpool.txt	LTP105	ltpFR	9	11	1	POPCORN	1104	n/a	n/a	0	n/a	0	0	0	n/a	n/a	n/a	n/a	n/a
2704071	REC_WORD	wordpools/wasnorm_wordpool.txt	LTP105	ltpFR	9	11	0	EXPLOSION	544	n/a	n/a	1	n/a	0	0	0	n/a	n/a	n/a	n/a	n/a
2706775	REC_WORD	wordpools/wasnorm_wordpool.txt	LTP105	ltpFR	9	11	0	MATCH	878	n/a	n/a	0	n/a	0	0	0	n/a	n/a	n/a	n/a	n/a
2765570	START	n/a	LTP105	ltpFR	9	n/a	n/a	n/a	n/a	n/a	n/a	n/a	n/a	n/a	n/a	n/a	n/a	n/a	n/a	n/a	n/a
2767077	PROB	n/a	LTP105	ltpFR	9	n/a	n/a	n/a	n/a	n/a	n/a	n/a	21	9	5	7	n/a	n/a	n/a	n/a	n/a
2769060	PROB	n/a	LTP105	ltpFR	9	n/a	n/a	n/a	n/a	n/a	n/a	n/a	10	3	5	2	n/a	n/a	n/a	n/a	n/a
2770686	PROB	n/a	LTP105	ltpFR	9	n/a	n/a	n/a	n/a	n/a	n/a	n/a	9	2	4	3	n/a	n/a	n/a	n/a	n/a
2771993	PROB	n/a	LTP105	ltpFR	9	n/a	n/a	n/a	n/a	n/a	n/a	n/a	20	8	3	9	n/a	n/a	n/a	n/a	n/a
2773443	PROB	n/a	LTP105	ltpFR	9	n/a	n/a	n/a	n/a	n/a	n/a	n/a	6	1	1	4	n/a	n/a	n/a	n/a	n/a
2774493	PROB	n/a	LTP105	ltpFR	9	n/a	n/a	n/a	n/a	n/a	n/a	n/a	19	8	6	5	n/a	n/a	n/a	n/a	n/a
2777627	PROB	n/a	LTP105	ltpFR	9	n/a	n/a	n/a	n/a	n/a	n/a	n/a	11	5	1	5	n/a	n/a	n/a	n/a	n/a
2778901	PROB	n/a	LTP105	ltpFR	9	n/a	n/a	n/a	n/a	n/a	n/a	n/a	20	7	8	5	n/a	n/a	n/a	n/a	n/a
2780365	STOP	n/a	LTP105	ltpFR	9	n/a	n/a	n/a	n/a	n/a	n/a	n/a	n/a	n/a	n/a	n/a	n/a	n/a	n/a	n/a	n/a
2782400	WORD	wordpools/wasnorm_wordpool.txt	LTP105	ltpFR	9	12	0	NOOSE	956	n/a	n/a	0	n/a	0	0	0	0.57763671875	0.412841796875	1	lower	zerothre.ttf
2785409	START	n/a	LTP105	ltpFR	9	n/a	n/a	n/a	n/a	n/a	n/a	n/a	n/a	n/a	n/a	n/a	n/a	n/a	n/a	n/a	n/a
2786283	PROB	n/a	LTP105	ltpFR	9	n/a	n/a	n/a	n/a	n/a	n/a	n/a	17	8	8	1	n/a	n/a	n/a	n/a	n/a
2787892	PROB	n/a	LTP105	ltpFR	9	n/a	n/a	n/a	n/a	n/a	n/a	n/a	17	3	7	7	n/a	n/a	n/a	n/a	n/a
2789183	PROB	n/a	LTP105	ltpFR	9	n/a	n/a	n/a	n/a	n/a	n/a	n/a	15	8	2	5	n/a	n/a	n/a	n/a	n/a
2790833	PROB	n/a	LTP105	ltpFR	9	n/a	n/a	n/a	n/a	n/a	n/a	n/a	14	5	2	7	n/a	n/a	n/a	n/a	n/a
2792116	PROB	n/a	LTP105	ltpFR	9	n/a	n/a	n/a	n/a	n/a	n/a	n/a	13	3	3	7	n/a	n/a	n/a	n/a	n/a
2793899	PROB	n/a	LTP105	ltpFR	9	n/a	n/a	n/a	n/a	n/a	n/a	n/a	15	9	2	4	n/a	n/a	n/a	n/a	n/a
2795049	PROB	n/a	LTP105	ltpFR	9	n/a	n/a	n/a	n/a	n/a	n/a	n/a	14	5	7	2	n/a	n/a	n/a	n/a	n/a
2796274	PROB	n/a	LTP105	ltpFR	9	n/a	n/a	n/a	n/a	n/a	n/a	n/a	14	5	7	2	n/a	n/a	n/a	n/a	n/a
2797399	PROB	n/a	LTP105	ltpFR	9	n/a	n/a	n/a	n/a	n/a	n/a	n/a	10	1	1	8	n/a	n/a	n/a	n/a	n/a
2798466	PROB	n/a	LTP105	ltpFR	9	n/a	n/a	n/a	n/a	n/a	n/a	n/a	10	5	2	3	n/a	n/a	n/a	n/a	n/a
2799725	PROB	n/a	LTP105	ltpFR	9	n/a	n/a	n/a	n/a	n/a	n/a	n/a	17	8	7	2	n/a	n/a	n/a	n/a	n/a
2800997	STOP	n/a	LTP105	ltpFR	9	n/a	n/a	n/a	n/a	n/a	n/a	n/a	n/a	n/a	n/a	n/a	n/a	n/a	n/a	n/a	n/a
2802390	WORD	wordpools/wasnorm_wordpool.txt	LTP105	ltpFR	9	12	0	COMB	351	n/a	n/a	0	n/a	0	0	0	0.57763671875	0.412841796875	1	lower	zerothre.ttf
2805399	START	n/a	LTP105	ltpFR	9	n/a	n/a	n/a	n/a	n/a	n/a	n/a	n/a	n/a	n/a	n/a	n/a	n/a	n/a	n/a	n/a
2806600	PROB	n/a	LTP105	ltpFR	9	n/a	n/a	n/a	n/a	n/a	n/a	n/a	22	5	8	9	n/a	n/a	n/a	n/a	n/a
2809015	PROB	n/a	LTP105	ltpFR	9	n/a	n/a	n/a	n/a	n/a	n/a	n/a	9	3	3	6	n/a	n/a	n/a	n/a	n/a
2810282	PROB	n/a	LTP105	ltpFR	9	n/a	n/a	n/a	n/a	n/a	n/a	n/a	15	2	5	8	n/a	n/a	n/a	n/a	n/a
2812148	PROB	n/a	LTP105	ltpFR	9	n/a	n/a	n/a	n/a	n/a	n/a	n/a	17	2	7	8	n/a	n/a	n/a	n/a	n/a
2813948	PROB	n/a	LTP105	ltpFR	9	n/a	n/a	n/a	n/a	n/a	n/a	n/a	16	4	9	3	n/a	n/a	n/a	n/a	n/a
2815814	PROB	n/a	LTP105	ltpFR	9	n/a	n/a	n/a	n/a	n/a	n/a	n/a	12	3	7	2	n/a	n/a	n/a	n/a	n/a
2818031	PROB	n/a	LTP105	ltpFR	9	n/a	n/a	n/a	n/a	n/a	n/a	n/a	14	8	3	3	n/a	n/a	n/a	n/a	n/a
2819306	PROB	n/a	LTP105	ltpFR	9	n/a	n/a	n/a	n/a	n/a	n/a	n/a	14	6	2	6	n/a	n/a	n/a	n/a	n/a
2820630	STOP	n/a	LTP105	ltpFR	9	n/a	n/a	n/a	n/a	n/a	n/a	n/a	n/a	n/a	n/a	n/a	n/a	n/a	n/a	n/a	n/a
2822548	WORD	wordpools/wasnorm_wordpool.txt	LTP105	ltpFR	9	12	0	HAWK	692	n/a	n/a	1	n/a	0	0	0	0.57763671875	0.412841796875	1	lower	zerothre.ttf
2825557	START	n/a	LTP105	ltpFR	9	n/a	n/a	n/a	n/a	n/a	n/a	n/a	n/a	n/a	n/a	n/a	n/a	n/a	n/a	n/a	n/a
2826364	PROB	n/a	LTP105	ltpFR	9	n/a	n/a	n/a	n/a	n/a	n/a	n/a	12	2	2	8	n/a	n/a	n/a	n/a	n/a
2828214	PROB	n/a	LTP105	ltpFR	9	n/a	n/a	n/a	n/a	n/a	n/a	n/a	20	5	7	8	n/a	n/a	n/a	n/a	n/a
2830430	PROB	n/a	LTP105	ltpFR	9	n/a	n/a	n/a	n/a	n/a	n/a	n/a	13	4	8	1	n/a	n/a	n/a	n/a	n/a
2831589	PROB	n/a	LTP105	ltpFR	9	n/a	n/a	n/a	n/a	n/a	n/a	n/a	16	4	7	5	n/a	n/a	n/a	n/a	n/a
2833055	PROB	n/a	LTP105	ltpFR	9	n/a	n/a	n/a	n/a	n/a	n/a	n/a	13	3	6	4	n/a	n/a	n/a	n/a	n/a
2834531	PROB	n/a	LTP105	ltpFR	9	n/a	n/a	n/a	n/a	n/a	n/a	n/a	20	5	9	6	n/a	n/a	n/a	n/a	n/a
2836556	PROB	n/a	LTP105	ltpFR	9	n/a	n/a	n/a	n/a	n/a	n/a	n/a	18	4	8	6	n/a	n/a	n/a	n/a	n/a
2837863	PROB	n/a	LTP105	ltpFR	9	n/a	n/a	n/a	n/a	n/a	n/a	n/a	18	5	4	9	n/a	n/a	n/a	n/a	n/a
2841556	STOP	n/a	LTP105	ltpFR	9	n/a	n/a	n/a	n/a	n/a	n/a	n/a	n/a	n/a	n/a	n/a	n/a	n/a	n/a	n/a	n/a
2842563	WORD	wordpools/wasnorm_wordpool.txt	LTP105	ltpFR	9	12	1	PELICAN	1039	n/a	n/a	1	n/a	0	0	0	0.422607421875	0.5869140625	0	upper	amplitud.ttf
2845572	START	n/a	LTP105	ltpFR	9	n/a	n/a	n/a	n/a	n/a	n/a	n/a	n/a	n/a	n/a	n/a	n/a	n/a	n/a	n/a	n/a
2846379	PROB	n/a	LTP105	ltpFR	9	n/a	n/a	n/a	n/a	n/a	n/a	n/a	16	8	4	4	n/a	n/a	n/a	n/a	n/a
2847770	PROB	n/a	LTP105	ltpFR	9	n/a	n/a	n/a	n/a	n/a	n/a	n/a	15	5	5	5	n/a	n/a	n/a	n/a	n/a
2848945	PROB	n/a	LTP105	ltpFR	9	n/a	n/a	n/a	n/a	n/a	n/a	n/a	3	1	1	1	n/a	n/a	n/a	n/a	n/a
2849879	PROB	n/a	LTP105	ltpFR	9	n/a	n/a	n/a	n/a	n/a	n/a	n/a	11	4	6	1	n/a	n/a	n/a	n/a	n/a
2851395	PROB	n/a	LTP105	ltpFR	9	n/a	n/a	n/a	n/a	n/a	n/a	n/a	15	2	9	4	n/a	n/a	n/a	n/a	n/a
2852787	PROB	n/a	LTP105	ltpFR	9	n/a	n/a	n/a	n/a	n/a	n/a	n/a	17	3	7	7	n/a	n/a	n/a	n/a	n/a
2853928	PROB	n/a	LTP105	ltpFR	9	n/a	n/a	n/a	n/a	n/a	n/a	n/a	21	4	9	8	n/a	n/a	n/a	n/a	n/a
2855679	PROB	n/a	LTP105	ltpFR	9	n/a	n/a	n/a	n/a	n/a	n/a	n/a	7	2	2	5	n/a	n/a	n/a	n/a	n/a
2856903	PROB	n/a	LTP105	ltpFR	9	n/a	n/a	n/a	n/a	n/a	n/a	n/a	20	7	9	4	n/a	n/a	n/a	n/a	n/a
2859353	PROB	n/a	LTP105	ltpFR	9	n/a	n/a	n/a	n/a	n/a	n/a	n/a	8	3	2	3	n/a	n/a	n/a	n/a	n/a
2860837	STOP	n/a	LTP105	ltpFR	9	n/a	n/a	n/a	n/a	n/a	n/a	n/a	n/a	n/a	n/a	n/a	n/a	n/a	n/a	n/a	n/a
2862386	WORD	wordpools/wasnorm_wordpool.txt	LTP105	ltpFR	9	12	1	HARP	689	n/a	n/a	0	n/a	0	0	0	0.422607421875	0.5869140625	0	upper	amplitud.ttf
2865394	START	n/a	LTP105	ltpFR	9	n/a	n/a	n/a	n/a	n/a	n/a	n/a	n/a	n/a	n/a	n/a	n/a	n/a	n/a	n/a	n/a
2866595	PROB	n/a	LTP105	ltpFR	9	n/a	n/a	n/a	n/a	n/a	n/a	n/a	20	9	4	7	n/a	n/a	n/a	n/a	n/a
2868077	PROB	n/a	LTP105	ltpFR	9	n/a	n/a	n/a	n/a	n/a	n/a	n/a	20	9	4	7	n/a	n/a	n/a	n/a	n/a
2869827	PROB	n/a	LTP105	ltpFR	9	n/a	n/a	n/a	n/a	n/a	n/a	n/a	12	1	3	8	n/a	n/a	n/a	n/a	n/a
2871227	PROB	n/a	LTP105	ltpFR	9	n/a	n/a	n/a	n/a	n/a	n/a	n/a	1	3	9	2	n/a	n/a	n/a	n/a	n/a
2872843	PROB	n/a	LTP105	ltpFR	9	n/a	n/a	n/a	n/a	n/a	n/a	n/a	7	3	8	6	n/a	n/a	n/a	n/a	n/a
2875027	PROB	n/a	LTP105	ltpFR	9	n/a	n/a	n/a	n/a	n/a	n/a	n/a	18	7	3	8	n/a	n/a	n/a	n/a	n/a
2877085	PROB	n/a	LTP105	ltpFR	9	n/a	n/a	n/a	n/a	n/a	n/a	n/a	11	4	6	1	n/a	n/a	n/a	n/a	n/a
2878426	PROB	n/a	LTP105	ltpFR	9	n/a	n/a	n/a	n/a	n/a	n/a	n/a	13	7	2	4	n/a	n/a	n/a	n/a	n/a
2879761	PROB	n/a	LTP105	ltpFR	9	n/a	n/a	n/a	n/a	n/a	n/a	n/a	9	1	2	6	n/a	n/a	n/a	n/a	n/a
2880853	STOP	n/a	LTP105	ltpFR	9	n/a	n/a	n/a	n/a	n/a	n/a	n/a	n/a	n/a	n/a	n/a	n/a	n/a	n/a	n/a	n/a
2882284	WORD	wordpools/wasnorm_wordpool.txt	LTP105	ltpFR	9	12	1	ANTENNA	28	n/a	n/a	3	n/a	0	0	0	0.422607421875	0.5869140625	0	upper	amplitud.ttf
2884368	KEY_MSG	n/a	LTP105	ltpFR	9	12	n/a	n/a	n/a	n/a	n/a	n/a	n/a	0	0	0	n/a	n/a	n/a	n/a	n/a
2885884	START	n/a	LTP105	ltpFR	9	n/a	n/a	n/a	n/a	n/a	n/a	n/a	n/a	n/a	n/a	n/a	n/a	n/a	n/a	n/a	n/a
2886685	PROB	n/a	LTP105	ltpFR	9	n/a	n/a	n/a	n/a	n/a	n/a	n/a	14	6	3	5	n/a	n/a	n/a	n/a	n/a
2888142	PROB	n/a	LTP105	ltpFR	9	n/a	n/a	n/a	n/a	n/a	n/a	n/a	7	3	3	1	n/a	n/a	n/a	n/a	n/a
2889425	PROB	n/a	LTP105	ltpFR	9	n/a	n/a	n/a	n/a	n/a	n/a	n/a	12	6	4	2	n/a	n/a	n/a	n/a	n/a
2890492	PROB	n/a	LTP105	ltpFR	9	n/a	n/a	n/a	n/a	n/a	n/a	n/a	17	4	7	6	n/a	n/a	n/a	n/a	n/a
2891925	PROB	n/a	LTP105	ltpFR	9	n/a	n/a	n/a	n/a	n/a	n/a	n/a	11	3	4	4	n/a	n/a	n/a	n/a	n/a
2893375	PROB	n/a	LTP105	ltpFR	9	n/a	n/a	n/a	n/a	n/a	n/a	n/a	8	1	6	1	n/a	n/a	n/a	n/a	n/a
2896108	PROB	n/a	LTP105	ltpFR	9	n/a	n/a	n/a	n/a	n/a	n/a	n/a	21	9	3	9	n/a	n/a	n/a	n/a	n/a
2897892	PROB	n/a	LTP105	ltpFR	9	n/a	n/a	n/a	n/a	n/a	n/a	n/a	20	5	9	6	n/a	n/a	n/a	n/a	n/a
2899617	PROB	n/a	LTP105	ltpFR	9	n/a	n/a	n/a	n/a	n/a	n/a	n/a	15	6	6	3	n/a	n/a	n/a	n/a	n/a
2900901	STOP	n/a	LTP105	ltpFR	9	n/a	n/a	n/a	n/a	n/a	n/a	n/a	n/a	n/a	n/a	n/a	n/a	n/a	n/a	n/a	n/a
2902742	WORD	wordpools/wasnorm_wordpool.txt	LTP105	ltpFR	9	12	1	BRICK	172	n/a	n/a	2	n/a	0	0	0	0.422607421875	0.5869140625	0	upper	amplitud.ttf
2904550	KEY_MSG	n/a	LTP105	ltpFR	9	12	n/a	n/a	n/a	n/a	n/a	n/a	n/a	0	0	0	n/a	n/a	n/a	n/a	n/a
2906066	START	n/a	LTP105	ltpFR	9	n/a	n/a	n/a	n/a	n/a	n/a	n/a	n/a	n/a	n/a	n/a	n/a	n/a	n/a	n/a	n/a
2907082	PROB	n/a	LTP105	ltpFR	9	n/a	n/a	n/a	n/a	n/a	n/a	n/a	13	9	3	1	n/a	n/a	n/a	n/a	n/a
2908841	PROB	n/a	LTP105	ltpFR	9	n/a	n/a	n/a	n/a	n/a	n/a	n/a	14	1	7	6	n/a	n/a	n/a	n/a	n/a
2910575	PROB	n/a	LTP105	ltpFR	9	n/a	n/a	n/a	n/a	n/a	n/a	n/a	9	7	1	1	n/a	n/a	n/a	n/a	n/a
2912807	PROB	n/a	LTP105	ltpFR	9	n/a	n/a	n/a	n/a	n/a	n/a	n/a	14	1	9	4	n/a	n/a	n/a	n/a	n/a
2914725	PROB	n/a	LTP105	ltpFR	9	n/a	n/a	n/a	n/a	n/a	n/a	n/a	11	3	4	4	n/a	n/a	n/a	n/a	n/a
2916515	PROB	n/a	LTP105	ltpFR	9	n/a	n/a	n/a	n/a	n/a	n/a	n/a	19	9	2	8	n/a	n/a	n/a	n/a	n/a
2917990	PROB	n/a	LTP105	ltpFR	9	n/a	n/a	n/a	n/a	n/a	n/a	n/a	21	7	6	9	n/a	n/a	n/a	n/a	n/a
2919507	PROB	n/a	LTP105	ltpFR	9	n/a	n/a	n/a	n/a	n/a	n/a	n/a	12	5	3	4	n/a	n/a	n/a	n/a	n/a
2921221	STOP	n/a	LTP105	ltpFR	9	n/a	n/a	n/a	n/a	n/a	n/a	n/a	n/a	n/a	n/a	n/a	n/a	n/a	n/a	n/a	n/a
2923181	WORD	wordpools/wasnorm_wordpool.txt	LTP105	ltpFR	9	12	1	POSSUM	1112	n/a	n/a	1	n/a	0	0	0	0.422607421875	0.5869140625	0	upper	amplitud.ttf
2926190	START	n/a	LTP105	ltpFR	9	n/a	n/a	n/a	n/a	n/a	n/a	n/a	n/a	n/a	n/a	n/a	n/a	n/a	n/a	n/a	n/a
2927131	PROB	n/a	LTP105	ltpFR	9	n/a	n/a	n/a	n/a	n/a	n/a	n/a	7	1	4	2	n/a	n/a	n/a	n/a	n/a
2929331	PROB	n/a	LTP105	ltpFR	9	n/a	n/a	n/a	n/a	n/a	n/a	n/a	14	1	6	7	n/a	n/a	n/a	n/a	n/a
2931056	PROB	n/a	LTP105	ltpFR	9	n/a	n/a	n/a	n/a	n/a	n/a	n/a	16	8	2	6	n/a	n/a	n/a	n/a	n/a
2932122	PROB	n/a	LTP105	ltpFR	9	n/a	n/a	n/a	n/a	n/a	n/a	n/a	16	7	1	8	n/a	n/a	n/a	n/a	n/a
2934430	PROB	n/a	LTP105	ltpFR	9	n/a	n/a	n/a	n/a	n/a	n/a	n/a	17	7	5	5	n/a	n/a	n/a	n/a	n/a
2936005	PROB	n/a	LTP105	ltpFR	9	n/a	n/a	n/a	n/a	n/a	n/a	n/a	16	4	6	6	n/a	n/a	n/a	n/a	n/a
2937222	PROB	n/a	LTP105	ltpFR	9	n/a	n/a	n/a	n/a	n/a	n/a	n/a	20	8	3	9	n/a	n/a	n/a	n/a	n/a
2938930	PROB	n/a	LTP105	ltpFR	9	n/a	n/a	n/a	n/a	n/a	n/a	n/a	9	5	1	3	n/a	n/a	n/a	n/a	n/a
2941077	STOP	n/a	LTP105	ltpFR	9	n/a	n/a	n/a	n/a	n/a	n/a	n/a	n/a	n/a	n/a	n/a	n/a	n/a	n/a	n/a	n/a
2943246	WORD	wordpools/wasnorm_wordpool.txt	LTP105	ltpFR	9	12	1	BRUSH	182	n/a	n/a	0	n/a	0	0	0	0.422607421875	0.5869140625	0	upper	amplitud.ttf
2946255	START	n/a	LTP105	ltpFR	9	n/a	n/a	n/a	n/a	n/a	n/a	n/a	n/a	n/a	n/a	n/a	n/a	n/a	n/a	n/a	n/a
2947271	PROB	n/a	LTP105	ltpFR	9	n/a	n/a	n/a	n/a	n/a	n/a	n/a	16	4	3	9	n/a	n/a	n/a	n/a	n/a
2948755	PROB	n/a	LTP105	ltpFR	9	n/a	n/a	n/a	n/a	n/a	n/a	n/a	12	5	5	2	n/a	n/a	n/a	n/a	n/a
2949796	PROB	n/a	LTP105	ltpFR	9	n/a	n/a	n/a	n/a	n/a	n/a	n/a	20	8	6	6	n/a	n/a	n/a	n/a	n/a
2951071	PROB	n/a	LTP105	ltpFR	9	n/a	n/a	n/a	n/a	n/a	n/a	n/a	11	5	5	1	n/a	n/a	n/a	n/a	n/a
2952154	PROB	n/a	LTP105	ltpFR	9	n/a	n/a	n/a	n/a	n/a	n/a	n/a	19	3	8	8	n/a	n/a	n/a	n/a	n/a
2953722	PROB	n/a	LTP105	ltpFR	9	n/a	n/a	n/a	n/a	n/a	n/a	n/a	11	2	2	7	n/a	n/a	n/a	n/a	n/a
2955779	PROB	n/a	LTP105	ltpFR	9	n/a	n/a	n/a	n/a	n/a	n/a	n/a	13	9	1	3	n/a	n/a	n/a	n/a	n/a
2956779	PROB	n/a	LTP105	ltpFR	9	n/a	n/a	n/a	n/a	n/a	n/a	n/a	6	1	3	2	n/a	n/a	n/a	n/a	n/a
2957870	PROB	n/a	LTP105	ltpFR	9	n/a	n/a	n/a	n/a	n/a	n/a	n/a	13	5	5	3	n/a	n/a	n/a	n/a	n/a
2959020	PROB	n/a	LTP105	ltpFR	9	n/a	n/a	n/a	n/a	n/a	n/a	n/a	18	4	8	6	n/a	n/a	n/a	n/a	n/a
2960262	PROB	n/a	LTP105	ltpFR	9	n/a	n/a	n/a	n/a	n/a	n/a	n/a	6	2	1	3	n/a	n/a	n/a	n/a	n/a
2961646	STOP	n/a	LTP105	ltpFR	9	n/a	n/a	n/a	n/a	n/a	n/a	n/a	n/a	n/a	n/a	n/a	n/a	n/a	n/a	n/a	n/a
2963286	WORD	wordpools/wasnorm_wordpool.txt	LTP105	ltpFR	9	12	0	CONTRACTOR	369	n/a	n/a	3	n/a	0	0	0	0.57763671875	0.412841796875	1	lower	zerothre.ttf
2964986	KEY_MSG	n/a	LTP105	ltpFR	9	12	n/a	n/a	n/a	n/a	n/a	n/a	n/a	0	0	0	n/a	n/a	n/a	n/a	n/a
2966495	START	n/a	LTP105	ltpFR	9	n/a	n/a	n/a	n/a	n/a	n/a	n/a	n/a	n/a	n/a	n/a	n/a	n/a	n/a	n/a	n/a
2967353	PROB	n/a	LTP105	ltpFR	9	n/a	n/a	n/a	n/a	n/a	n/a	n/a	22	9	8	5	n/a	n/a	n/a	n/a	n/a
2969936	PROB	n/a	LTP105	ltpFR	9	n/a	n/a	n/a	n/a	n/a	n/a	n/a	16	6	9	1	n/a	n/a	n/a	n/a	n/a
2972144	PROB	n/a	LTP105	ltpFR	9	n/a	n/a	n/a	n/a	n/a	n/a	n/a	15	5	5	5	n/a	n/a	n/a	n/a	n/a
2973152	PROB	n/a	LTP105	ltpFR	9	n/a	n/a	n/a	n/a	n/a	n/a	n/a	14	5	3	6	n/a	n/a	n/a	n/a	n/a
2975786	PROB	n/a	LTP105	ltpFR	9	n/a	n/a	n/a	n/a	n/a	n/a	n/a	12	2	8	2	n/a	n/a	n/a	n/a	n/a
2976935	PROB	n/a	LTP105	ltpFR	9	n/a	n/a	n/a	n/a	n/a	n/a	n/a	17	8	4	5	n/a	n/a	n/a	n/a	n/a
2979010	PROB	n/a	LTP105	ltpFR	9	n/a	n/a	n/a	n/a	n/a	n/a	n/a	23	6	8	9	n/a	n/a	n/a	n/a	n/a
2981309	STOP	n/a	LTP105	ltpFR	9	n/a	n/a	n/a	n/a	n/a	n/a	n/a	n/a	n/a	n/a	n/a	n/a	n/a	n/a	n/a	n/a
2983603	WORD	wordpools/wasnorm_wordpool.txt	LTP105	ltpFR	9	12	0	RIBBON	1189	n/a	n/a	0	n/a	0	0	0	0.57763671875	0.412841796875	1	lower	zerothre.ttf
2986611	START	n/a	LTP105	ltpFR	9	n/a	n/a	n/a	n/a	n/a	n/a	n/a	n/a	n/a	n/a	n/a	n/a	n/a	n/a	n/a	n/a
2987761	PROB	n/a	LTP105	ltpFR	9	n/a	n/a	n/a	n/a	n/a	n/a	n/a	14	2	7	5	n/a	n/a	n/a	n/a	n/a
2989209	PROB	n/a	LTP105	ltpFR	9	n/a	n/a	n/a	n/a	n/a	n/a	n/a	12	5	3	4	n/a	n/a	n/a	n/a	n/a
2990544	PROB	n/a	LTP105	ltpFR	9	n/a	n/a	n/a	n/a	n/a	n/a	n/a	22	4	6	8	n/a	n/a	n/a	n/a	n/a
2994009	PROB	n/a	LTP105	ltpFR	9	n/a	n/a	n/a	n/a	n/a	n/a	n/a	11	4	2	5	n/a	n/a	n/a	n/a	n/a
2995643	PROB	n/a	LTP105	ltpFR	9	n/a	n/a	n/a	n/a	n/a	n/a	n/a	13	6	2	5	n/a	n/a	n/a	n/a	n/a
2997051	PROB	n/a	LTP105	ltpFR	9	n/a	n/a	n/a	n/a	n/a	n/a	n/a	21	9	6	6	n/a	n/a	n/a	n/a	n/a
2999267	PROB	n/a	LTP105	ltpFR	9	n/a	n/a	n/a	n/a	n/a	n/a	n/a	15	6	1	8	n/a	n/a	n/a	n/a	n/a
3000525	PROB	n/a	LTP105	ltpFR	9	n/a	n/a	n/a	n/a	n/a	n/a	n/a	23	9	9	5	n/a	n/a	n/a	n/a	n/a
3001837	STOP	n/a	LTP105	ltpFR	9	n/a	n/a	n/a	n/a	n/a	n/a	n/a	n/a	n/a	n/a	n/a	n/a	n/a	n/a	n/a	n/a
3003601	WORD	wordpools/wasnorm_wordpool.txt	LTP105	ltpFR	9	12	0	HANDCUFFS	685	n/a	n/a	0	n/a	0	0	0	0.57763671875	0.412841796875	1	lower	zerothre.ttf
3006610	START	n/a	LTP105	ltpFR	9	n/a	n/a	n/a	n/a	n/a	n/a	n/a	n/a	n/a	n/a	n/a	n/a	n/a	n/a	n/a	n/a
3007759	PROB	n/a	LTP105	ltpFR	9	n/a	n/a	n/a	n/a	n/a	n/a	n/a	13	6	4	3	n/a	n/a	n/a	n/a	n/a
3009066	PROB	n/a	LTP105	ltpFR	9	n/a	n/a	n/a	n/a	n/a	n/a	n/a	9	1	5	3	n/a	n/a	n/a	n/a	n/a
3010791	PROB	n/a	LTP105	ltpFR	9	n/a	n/a	n/a	n/a	n/a	n/a	n/a	13	4	4	5	n/a	n/a	n/a	n/a	n/a
3012291	PROB	n/a	LTP105	ltpFR	9	n/a	n/a	n/a	n/a	n/a	n/a	n/a	12	8	1	4	n/a	n/a	n/a	n/a	n/a
3013617	PROB	n/a	LTP105	ltpFR	9	n/a	n/a	n/a	n/a	n/a	n/a	n/a	18	8	1	9	n/a	n/a	n/a	n/a	n/a
3015658	PROB	n/a	LTP105	ltpFR	9	n/a	n/a	n/a	n/a	n/a	n/a	n/a	14	4	7	3	n/a	n/a	n/a	n/a	n/a
3017074	PROB	n/a	LTP105	ltpFR	9	n/a	n/a	n/a	n/a	n/a	n/a	n/a	10	3	3	4	n/a	n/a	n/a	n/a	n/a
3018583	PROB	n/a	LTP105	ltpFR	9	n/a	n/a	n/a	n/a	n/a	n/a	n/a	15	6	1	8	n/a	n/a	n/a	n/a	n/a
