onset	duration	trial_type	sample	stim_file	subject	experiment	session	trial	task	item_name	item_num	recog_resp	recog_conf	resp	color_r	color_g	color_b	case	font
435.534	n/a	SESS_START	217767	n/a	LTP149	ltpFR	1	n/a	n/a	n/a	n/a	1	4	n/a	n/a	n/a	n/a	n/a	n/a
521.364	n/a	WORD	260682	wordpools/wasnorm_wordpool.txt	LTP149	ltpFR	1	1	1	YARN	1631	0	n/a	0	0.422607421875	0.5869140625	0	lower	amplitud.ttf
525.538	n/a	WORD	262769	wordpools/wasnorm_wordpool.txt	LTP149	ltpFR	1	1	1	SUITCASE	1403	n/a	n/a	0	0.422607421875	0.5869140625	0	lower	amplitud.ttf
529.646	n/a	WORD	264823	wordpools/wasnorm_wordpool.txt	LTP149	ltpFR	1	1	1	MONKEY	911	n/a	n/a	1	0.422607421875	0.5869140625	0	lower	amplitud.ttf
533.504	n/a	WORD	266752	wordpools/wasnorm_wordpool.txt	LTP149	ltpFR	1	1	1	CONTINENT	367	n/a	n/a	0	0.422607421875	0.5869140625	0	lower	amplitud.ttf
537.668	n/a	WORD	268834	wordpools/wasnorm_wordpool.txt	LTP149	ltpFR	1	1	0	REFRIGERATOR	1179	n/a	n/a	1	0.57763671875	0.412841796875	1	upper	zerothre.ttf
541.65	n/a	WORD	270825	wordpools/wasnorm_wordpool.txt	LTP149	ltpFR	1	1	0	QUAIL	1147	n/a	n/a	0	0.57763671875	0.412841796875	1	upper	zerothre.ttf
545.516	n/a	WORD	272758	wordpools/wasnorm_wordpool.txt	LTP149	ltpFR	1	1	0	AFRICA	9	n/a	n/a	1	0.57763671875	0.412841796875	1	upper	zerothre.ttf
549.598	n/a	WORD	274799	wordpools/wasnorm_wordpool.txt	LTP149	ltpFR	1	1	0	STUMP	1396	n/a	n/a	1	0.57763671875	0.412841796875	1	upper	zerothre.ttf
553.538	n/a	WORD	276769	wordpools/wasnorm_wordpool.txt	LTP149	ltpFR	1	1	0	JEANS	752	n/a	n/a	0	0.57763671875	0.412841796875	1	upper	zerothre.ttf
557.478	n/a	WORD	278739	wordpools/wasnorm_wordpool.txt	LTP149	ltpFR	1	1	1	SHORTS	1293	n/a	n/a	0	0.422607421875	0.5869140625	0	lower	amplitud.ttf
561.56	n/a	WORD	280780	wordpools/wasnorm_wordpool.txt	LTP149	ltpFR	1	1	1	BUNNY	198	n/a	n/a	1	0.422607421875	0.5869140625	0	lower	amplitud.ttf
565.51	n/a	WORD	282755	wordpools/wasnorm_wordpool.txt	LTP149	ltpFR	1	1	1	RABBIT	1152	n/a	n/a	1	0.422607421875	0.5869140625	0	lower	amplitud.ttf
569.466	n/a	WORD	284733	wordpools/wasnorm_wordpool.txt	LTP149	ltpFR	1	1	1	SKULL	1320	n/a	n/a	0	0.422607421875	0.5869140625	0	lower	amplitud.ttf
573.482	n/a	WORD	286741	wordpools/wasnorm_wordpool.txt	LTP149	ltpFR	1	1	0	WHISKERS	1605	n/a	n/a	0	0.57763671875	0.412841796875	1	upper	zerothre.ttf
577.664	n/a	WORD	288832	wordpools/wasnorm_wordpool.txt	LTP149	ltpFR	1	1	0	BROCCOLI	176	n/a	n/a	0	0.57763671875	0.412841796875	1	upper	zerothre.ttf
581.53	n/a	WORD	290765	wordpools/wasnorm_wordpool.txt	LTP149	ltpFR	1	1	0	PLANT	1083	n/a	n/a	0	0.57763671875	0.412841796875	1	upper	zerothre.ttf
587.336	n/a	REC_START	293668	n/a	LTP149	ltpFR	1	1	n/a	n/a	n/a	n/a	n/a	n/a	n/a	n/a	n/a	n/a	n/a
588.798	n/a	REC_WORD	294399	wordpools/wasnorm_wordpool.txt	LTP149	ltpFR	1	1	0	PLANT	1083	n/a	n/a	0	n/a	n/a	n/a	n/a	n/a
590.516	n/a	REC_WORD	295258	wordpools/wasnorm_wordpool.txt	LTP149	ltpFR	1	1	0	WHISKERS	1605	n/a	n/a	0	n/a	n/a	n/a	n/a	n/a
592.37	n/a	REC_WORD	296185	wordpools/wasnorm_wordpool.txt	LTP149	ltpFR	1	1	0	BROCCOLI	176	n/a	n/a	0	n/a	n/a	n/a	n/a	n/a
594.402	n/a	REC_WORD	297201	wordpools/wasnorm_wordpool.txt	LTP149	ltpFR	1	1	1	MONKEY	911	n/a	n/a	1	n/a	n/a	n/a	n/a	n/a
596.776	n/a	REC_WORD	298388	wordpools/wasnorm_wordpool.txt	LTP149	ltpFR	1	1	1	YARN	1631	n/a	n/a	0	n/a	n/a	n/a	n/a	n/a
598.626	n/a	REC_WORD	299313	wordpools/wasnorm_wordpool.txt	LTP149	ltpFR	1	1	1	SUITCASE	1403	n/a	n/a	0	n/a	n/a	n/a	n/a	n/a
600.826	n/a	REC_WORD	300413	wordpools/wasnorm_wordpool.txt	LTP149	ltpFR	1	1	0	PLANT	1083	n/a	n/a	0	n/a	n/a	n/a	n/a	n/a
603.192	n/a	REC_WORD	301596	wordpools/wasnorm_wordpool.txt	LTP149	ltpFR	1	1	0	JEANS	752	n/a	n/a	0	n/a	n/a	n/a	n/a	n/a
612.212	n/a	REC_WORD	306106	wordpools/wasnorm_wordpool.txt	LTP149	ltpFR	1	1	0	QUAIL	1147	n/a	n/a	0	n/a	n/a	n/a	n/a	n/a
616.162	n/a	REC_WORD	308081	wordpools/wasnorm_wordpool.txt	LTP149	ltpFR	1	1	0	STUMP	1396	n/a	n/a	1	n/a	n/a	n/a	n/a	n/a
623.136	n/a	REC_WORD	311568	wordpools/wasnorm_wordpool.txt	LTP149	ltpFR	1	1	1	SKULL	1320	n/a	n/a	0	n/a	n/a	n/a	n/a	n/a
626.07	n/a	REC_WORD	313035	wordpools/wasnorm_wordpool.txt	LTP149	ltpFR	1	1	1	RABBIT	1152	n/a	n/a	1	n/a	n/a	n/a	n/a	n/a
658.384	n/a	REC_WORD	329192	wordpools/wasnorm_wordpool.txt	LTP149	ltpFR	1	1	0	REFRIGERATOR	1179	n/a	n/a	1	n/a	n/a	n/a	n/a	n/a
672.46	n/a	WORD	336230	wordpools/wasnorm_wordpool.txt	LTP149	ltpFR	1	2	0	ARTICLE	42	n/a	n/a	0	0.57763671875	0.412841796875	1	upper	zerothre.ttf
676.592	n/a	WORD	338296	wordpools/wasnorm_wordpool.txt	LTP149	ltpFR	1	2	0	GARLIC	624	n/a	n/a	0	0.57763671875	0.412841796875	1	upper	zerothre.ttf
680.608	n/a	WORD	340304	wordpools/wasnorm_wordpool.txt	LTP149	ltpFR	1	2	1	SALT	1229	n/a	n/a	0	0.422607421875	0.5869140625	0	lower	amplitud.ttf
684.708	n/a	WORD	342354	wordpools/wasnorm_wordpool.txt	LTP149	ltpFR	1	2	1	MITTEN	902	n/a	n/a	0	0.422607421875	0.5869140625	0	lower	amplitud.ttf
688.83	n/a	WORD	344415	wordpools/wasnorm_wordpool.txt	LTP149	ltpFR	1	2	1	SCHOOL	1248	n/a	n/a	0	0.422607421875	0.5869140625	0	lower	amplitud.ttf
692.712	n/a	WORD	346356	wordpools/wasnorm_wordpool.txt	LTP149	ltpFR	1	2	1	SERGEANT	1269	n/a	n/a	1	0.422607421875	0.5869140625	0	lower	amplitud.ttf
696.778	n/a	WORD	348389	wordpools/wasnorm_wordpool.txt	LTP149	ltpFR	1	2	0	COLONEL	348	n/a	n/a	1	0.57763671875	0.412841796875	1	upper	zerothre.ttf
700.818	n/a	WORD	350409	wordpools/wasnorm_wordpool.txt	LTP149	ltpFR	1	2	0	BOARD	143	n/a	n/a	1	0.57763671875	0.412841796875	1	upper	zerothre.ttf
704.726	n/a	WORD	352363	wordpools/wasnorm_wordpool.txt	LTP149	ltpFR	1	2	1	LIP	828	n/a	n/a	1	0.422607421875	0.5869140625	0	lower	amplitud.ttf
708.592	n/a	WORD	354296	wordpools/wasnorm_wordpool.txt	LTP149	ltpFR	1	2	1	UNCLE	1536	n/a	n/a	1	0.422607421875	0.5869140625	0	lower	amplitud.ttf
712.664	n/a	WORD	356332	wordpools/wasnorm_wordpool.txt	LTP149	ltpFR	1	2	1	GUM	672	n/a	n/a	0	0.422607421875	0.5869140625	0	lower	amplitud.ttf
716.572	n/a	WORD	358286	wordpools/wasnorm_wordpool.txt	LTP149	ltpFR	1	2	1	MAGNET	855	n/a	n/a	0	0.422607421875	0.5869140625	0	lower	amplitud.ttf
720.47	n/a	WORD	360235	wordpools/wasnorm_wordpool.txt	LTP149	ltpFR	1	2	0	NEPHEW	942	n/a	n/a	1	0.57763671875	0.412841796875	1	upper	zerothre.ttf
724.528	n/a	WORD	362264	wordpools/wasnorm_wordpool.txt	LTP149	ltpFR	1	2	0	EDITORIAL	517	n/a	n/a	0	0.57763671875	0.412841796875	1	upper	zerothre.ttf
728.56	n/a	WORD	364280	wordpools/wasnorm_wordpool.txt	LTP149	ltpFR	1	2	0	JUGGLER	763	n/a	n/a	1	0.57763671875	0.412841796875	1	upper	zerothre.ttf
732.526	n/a	WORD	366263	wordpools/wasnorm_wordpool.txt	LTP149	ltpFR	1	2	0	CONTRACT	368	n/a	n/a	0	0.57763671875	0.412841796875	1	upper	zerothre.ttf
738.548	n/a	REC_START	369274	n/a	LTP149	ltpFR	1	2	n/a	n/a	n/a	n/a	n/a	n/a	n/a	n/a	n/a	n/a	n/a
740.184	n/a	REC_WORD	370092	wordpools/wasnorm_wordpool.txt	LTP149	ltpFR	1	2	0	CONTRACT	368	n/a	n/a	0	n/a	n/a	n/a	n/a	n/a
741.956	n/a	REC_WORD	370978	wordpools/wasnorm_wordpool.txt	LTP149	ltpFR	1	2	0	EDITORIAL	517	n/a	n/a	0	n/a	n/a	n/a	n/a	n/a
743.698	n/a	REC_WORD	371849	wordpools/wasnorm_wordpool.txt	LTP149	ltpFR	1	2	0	JUGGLER	763	n/a	n/a	1	n/a	n/a	n/a	n/a	n/a
745.504	n/a	REC_WORD	372752	wordpools/wasnorm_wordpool.txt	LTP149	ltpFR	1	2	1	SERGEANT	1269	n/a	n/a	1	n/a	n/a	n/a	n/a	n/a
747.25	n/a	REC_WORD	373625	wordpools/wasnorm_wordpool.txt	LTP149	ltpFR	1	2	1	MITTEN	902	n/a	n/a	0	n/a	n/a	n/a	n/a	n/a
755.16	n/a	REC_WORD	377580	wordpools/wasnorm_wordpool.txt	LTP149	ltpFR	1	2	1	SCHOOL	1248	n/a	n/a	0	n/a	n/a	n/a	n/a	n/a
759.382	n/a	REC_WORD	379691	wordpools/wasnorm_wordpool.txt	LTP149	ltpFR	1	2	0	GARLIC	624	n/a	n/a	0	n/a	n/a	n/a	n/a	n/a
762.61	n/a	REC_WORD	381305	wordpools/wasnorm_wordpool.txt	LTP149	ltpFR	1	2	0	ARTICLE	42	n/a	n/a	0	n/a	n/a	n/a	n/a	n/a
771.76	n/a	REC_WORD	385880	wordpools/wasnorm_wordpool.txt	LTP149	ltpFR	1	2	0	JUGGLER	763	n/a	n/a	1	n/a	n/a	n/a	n/a	n/a
833.62	n/a	WORD	416810	wordpools/wasnorm_wordpool.txt	LTP149	ltpFR	1	3	1	CHICK	296	n/a	n/a	1	0.422607421875	0.5869140625	0	lower	amplitud.ttf
837.728	n/a	WORD	418864	wordpools/wasnorm_wordpool.txt	LTP149	ltpFR	1	3	1	LOVER	846	n/a	n/a	1	0.422607421875	0.5869140625	0	lower	amplitud.ttf
841.718	n/a	WORD	420859	wordpools/wasnorm_wordpool.txt	LTP149	ltpFR	1	3	1	NURSERY	964	n/a	n/a	0	0.422607421875	0.5869140625	0	lower	amplitud.ttf
845.8	n/a	WORD	422900	wordpools/wasnorm_wordpool.txt	LTP149	ltpFR	1	3	1	FLASK	576	n/a	n/a	0	0.422607421875	0.5869140625	0	lower	amplitud.ttf
849.648	n/a	WORD	424824	wordpools/wasnorm_wordpool.txt	LTP149	ltpFR	1	3	1	CEREAL	272	n/a	n/a	0	0.422607421875	0.5869140625	0	lower	amplitud.ttf
853.638	n/a	WORD	426819	wordpools/wasnorm_wordpool.txt	LTP149	ltpFR	1	3	1	GROCERIES	663	n/a	n/a	0	0.422607421875	0.5869140625	0	lower	amplitud.ttf
857.53	n/a	WORD	428765	wordpools/wasnorm_wordpool.txt	LTP149	ltpFR	1	3	1	FRIEND	606	n/a	n/a	1	0.422607421875	0.5869140625	0	lower	amplitud.ttf
861.546	n/a	WORD	430773	wordpools/wasnorm_wordpool.txt	LTP149	ltpFR	1	3	1	DOLL	481	n/a	n/a	0	0.422607421875	0.5869140625	0	lower	amplitud.ttf
865.578	n/a	WORD	432789	wordpools/wasnorm_wordpool.txt	LTP149	ltpFR	1	3	1	KEG	770	n/a	n/a	0	0.422607421875	0.5869140625	0	lower	amplitud.ttf
869.65	n/a	WORD	434825	wordpools/wasnorm_wordpool.txt	LTP149	ltpFR	1	3	1	RACCOON	1153	n/a	n/a	1	0.422607421875	0.5869140625	0	lower	amplitud.ttf
873.55	n/a	WORD	436775	wordpools/wasnorm_wordpool.txt	LTP149	ltpFR	1	3	1	CLOTHES	327	n/a	n/a	0	0.422607421875	0.5869140625	0	lower	amplitud.ttf
877.716	n/a	WORD	438858	wordpools/wasnorm_wordpool.txt	LTP149	ltpFR	1	3	1	CLOSET	326	n/a	n/a	0	0.422607421875	0.5869140625	0	lower	amplitud.ttf
881.73	n/a	WORD	440865	wordpools/wasnorm_wordpool.txt	LTP149	ltpFR	1	3	1	CRADLE	399	n/a	n/a	0	0.422607421875	0.5869140625	0	lower	amplitud.ttf
885.63	n/a	WORD	442815	wordpools/wasnorm_wordpool.txt	LTP149	ltpFR	1	3	1	DONKEY	484	n/a	n/a	1	0.422607421875	0.5869140625	0	lower	amplitud.ttf
889.77	n/a	WORD	444885	wordpools/wasnorm_wordpool.txt	LTP149	ltpFR	1	3	1	VITAMIN	1574	n/a	n/a	0	0.422607421875	0.5869140625	0	lower	amplitud.ttf
893.826	n/a	WORD	446913	wordpools/wasnorm_wordpool.txt	LTP149	ltpFR	1	3	1	MILK	895	n/a	n/a	0	0.422607421875	0.5869140625	0	lower	amplitud.ttf
899.484	n/a	REC_START	449742	n/a	LTP149	ltpFR	1	3	n/a	n/a	n/a	n/a	n/a	n/a	n/a	n/a	n/a	n/a	n/a
901.424	n/a	REC_WORD	450712	wordpools/wasnorm_wordpool.txt	LTP149	ltpFR	1	3	1	MILK	895	n/a	n/a	0	n/a	n/a	n/a	n/a	n/a
902.972	n/a	REC_WORD	451486	wordpools/wasnorm_wordpool.txt	LTP149	ltpFR	1	3	1	VITAMIN	1574	n/a	n/a	0	n/a	n/a	n/a	n/a	n/a
905.166	n/a	REC_WORD	452583	wordpools/wasnorm_wordpool.txt	LTP149	ltpFR	1	3	1	CRADLE	399	n/a	n/a	0	n/a	n/a	n/a	n/a	n/a
906.418	n/a	REC_WORD	453209	wordpools/wasnorm_wordpool.txt	LTP149	ltpFR	1	3	1	NURSERY	964	n/a	n/a	0	n/a	n/a	n/a	n/a	n/a
908.274	n/a	REC_WORD	454137	wordpools/wasnorm_wordpool.txt	LTP149	ltpFR	1	3	n/a	CRATER	400	n/a	n/a	n/a	n/a	n/a	n/a	n/a	n/a
910.22	n/a	REC_WORD	455110	wordpools/wasnorm_wordpool.txt	LTP149	ltpFR	1	3	1	FRIEND	606	n/a	n/a	1	n/a	n/a	n/a	n/a	n/a
912.854	n/a	REC_WORD	456427	wordpools/wasnorm_wordpool.txt	LTP149	ltpFR	1	3	1	CHICK	296	n/a	n/a	1	n/a	n/a	n/a	n/a	n/a
918.742	n/a	REC_WORD	459371	wordpools/wasnorm_wordpool.txt	LTP149	ltpFR	1	3	1	FLASK	576	n/a	n/a	0	n/a	n/a	n/a	n/a	n/a
925.996	n/a	REC_WORD	462998	wordpools/wasnorm_wordpool.txt	LTP149	ltpFR	1	3	1	MILK	895	n/a	n/a	0	n/a	n/a	n/a	n/a	n/a
996.13	n/a	WORD	498065	wordpools/wasnorm_wordpool.txt	LTP149	ltpFR	1	4	-1	ALBUM	14	n/a	n/a	-1	1.0	1.0	1	upper	Verdana.ttf
1000.294	n/a	WORD	500147	wordpools/wasnorm_wordpool.txt	LTP149	ltpFR	1	4	-1	BOX	159	n/a	n/a	-1	1.0	1.0	1	upper	Verdana.ttf
1004.476	n/a	WORD	502238	wordpools/wasnorm_wordpool.txt	LTP149	ltpFR	1	4	-1	BANKER	84	n/a	n/a	-1	1.0	1.0	1	upper	Verdana.ttf
1008.492	n/a	WORD	504246	wordpools/wasnorm_wordpool.txt	LTP149	ltpFR	1	4	-1	NICKEL	950	n/a	n/a	-1	1.0	1.0	1	upper	Verdana.ttf
1012.616	n/a	WORD	506308	wordpools/wasnorm_wordpool.txt	LTP149	ltpFR	1	4	-1	BUN	197	n/a	n/a	-1	1.0	1.0	1	upper	Verdana.ttf
1016.44	n/a	WORD	508220	wordpools/wasnorm_wordpool.txt	LTP149	ltpFR	1	4	-1	EGG	518	n/a	n/a	-1	1.0	1.0	1	upper	Verdana.ttf
1020.58	n/a	WORD	510290	wordpools/wasnorm_wordpool.txt	LTP149	ltpFR	1	4	-1	DINNER	468	n/a	n/a	-1	1.0	1.0	1	upper	Verdana.ttf
1024.47	n/a	WORD	512235	wordpools/wasnorm_wordpool.txt	LTP149	ltpFR	1	4	-1	PASTRY	1022	n/a	n/a	-1	1.0	1.0	1	upper	Verdana.ttf
1028.636	n/a	WORD	514318	wordpools/wasnorm_wordpool.txt	LTP149	ltpFR	1	4	-1	BUCKLE	185	n/a	n/a	-1	1.0	1.0	1	upper	Verdana.ttf
1032.76	n/a	WORD	516380	wordpools/wasnorm_wordpool.txt	LTP149	ltpFR	1	4	-1	THRONE	1461	n/a	n/a	-1	1.0	1.0	1	upper	Verdana.ttf
1036.616	n/a	WORD	518308	wordpools/wasnorm_wordpool.txt	LTP149	ltpFR	1	4	-1	BAND	78	n/a	n/a	-1	1.0	1.0	1	upper	Verdana.ttf
1040.432	n/a	WORD	520216	wordpools/wasnorm_wordpool.txt	LTP149	ltpFR	1	4	-1	DRIVER	499	n/a	n/a	-1	1.0	1.0	1	upper	Verdana.ttf
1044.506	n/a	WORD	522253	wordpools/wasnorm_wordpool.txt	LTP149	ltpFR	1	4	-1	SALESMAN	1225	n/a	n/a	-1	1.0	1.0	1	upper	Verdana.ttf
1048.596	n/a	WORD	524298	wordpools/wasnorm_wordpool.txt	LTP149	ltpFR	1	4	-1	PREDATOR	1120	n/a	n/a	-1	1.0	1.0	1	upper	Verdana.ttf
1052.478	n/a	WORD	526239	wordpools/wasnorm_wordpool.txt	LTP149	ltpFR	1	4	-1	DUMP	505	n/a	n/a	-1	1.0	1.0	1	upper	Verdana.ttf
1056.402	n/a	WORD	528201	wordpools/wasnorm_wordpool.txt	LTP149	ltpFR	1	4	-1	LOAF	835	n/a	n/a	-1	1.0	1.0	1	upper	Verdana.ttf
1062.078	n/a	REC_START	531039	n/a	LTP149	ltpFR	1	4	n/a	n/a	n/a	n/a	n/a	n/a	n/a	n/a	n/a	n/a	n/a
1063.844	n/a	REC_WORD	531922	wordpools/wasnorm_wordpool.txt	LTP149	ltpFR	1	4	-1	LOAF	835	n/a	n/a	-1	n/a	n/a	n/a	n/a	n/a
1065.814	n/a	REC_WORD	532907	wordpools/wasnorm_wordpool.txt	LTP149	ltpFR	1	4	-1	BUN	197	n/a	n/a	-1	n/a	n/a	n/a	n/a	n/a
1067.54	n/a	REC_WORD	533770	wordpools/wasnorm_wordpool.txt	LTP149	ltpFR	1	4	-1	EGG	518	n/a	n/a	-1	n/a	n/a	n/a	n/a	n/a
1074.506	n/a	REC_WORD	537253	wordpools/wasnorm_wordpool.txt	LTP149	ltpFR	1	4	-1	BANKER	84	n/a	n/a	-1	n/a	n/a	n/a	n/a	n/a
1078.222	n/a	REC_WORD	539111	wordpools/wasnorm_wordpool.txt	LTP149	ltpFR	1	4	-1	BOX	159	n/a	n/a	-1	n/a	n/a	n/a	n/a	n/a
1079.598	n/a	REC_WORD	539799	wordpools/wasnorm_wordpool.txt	LTP149	ltpFR	1	4	-1	ALBUM	14	n/a	n/a	-1	n/a	n/a	n/a	n/a	n/a
1081.748	n/a	REC_WORD	540874	wordpools/wasnorm_wordpool.txt	LTP149	ltpFR	1	4	-1	NICKEL	950	n/a	n/a	-1	n/a	n/a	n/a	n/a	n/a
1085.146	n/a	REC_WORD	542573	wordpools/wasnorm_wordpool.txt	LTP149	ltpFR	1	4	-1	SALESMAN	1225	n/a	n/a	-1	n/a	n/a	n/a	n/a	n/a
1087.052	n/a	REC_WORD	543526	wordpools/wasnorm_wordpool.txt	LTP149	ltpFR	1	4	-1	DRIVER	499	n/a	n/a	-1	n/a	n/a	n/a	n/a	n/a
1089.072	n/a	REC_WORD	544536	wordpools/wasnorm_wordpool.txt	LTP149	ltpFR	1	4	-1	PREDATOR	1120	n/a	n/a	-1	n/a	n/a	n/a	n/a	n/a
1091.398	n/a	REC_WORD	545699	wordpools/wasnorm_wordpool.txt	LTP149	ltpFR	1	4	-1	DUMP	505	n/a	n/a	-1	n/a	n/a	n/a	n/a	n/a
1105.326	n/a	REC_WORD	552663	wordpools/wasnorm_wordpool.txt	LTP149	ltpFR	1	4	-1	BUCKLE	185	n/a	n/a	-1	n/a	n/a	n/a	n/a	n/a
1121.236	n/a	REC_WORD	560618	wordpools/wasnorm_wordpool.txt	LTP149	ltpFR	1	4	-1	BAND	78	n/a	n/a	-1	n/a	n/a	n/a	n/a	n/a
1149.158	n/a	WORD	574579	wordpools/wasnorm_wordpool.txt	LTP149	ltpFR	1	5	0	TURTLE	1522	n/a	n/a	0	0.57763671875	0.412841796875	1	upper	zerothre.ttf
1153.256	n/a	WORD	576628	wordpools/wasnorm_wordpool.txt	LTP149	ltpFR	1	5	0	ASTEROID	50	n/a	n/a	1	0.57763671875	0.412841796875	1	upper	zerothre.ttf
1157.38	n/a	WORD	578690	wordpools/wasnorm_wordpool.txt	LTP149	ltpFR	1	5	0	OPERA	978	n/a	n/a	1	0.57763671875	0.412841796875	1	upper	zerothre.ttf
1161.488	n/a	WORD	580744	wordpools/wasnorm_wordpool.txt	LTP149	ltpFR	1	5	0	DUNE	506	n/a	n/a	1	0.57763671875	0.412841796875	1	upper	zerothre.ttf
1165.644	n/a	WORD	582822	wordpools/wasnorm_wordpool.txt	LTP149	ltpFR	1	5	0	PERISCOPE	1050	n/a	n/a	0	0.57763671875	0.412841796875	1	upper	zerothre.ttf
1169.768	n/a	WORD	584884	wordpools/wasnorm_wordpool.txt	LTP149	ltpFR	1	5	0	DASHBOARD	441	n/a	n/a	1	0.57763671875	0.412841796875	1	upper	zerothre.ttf
1173.716	n/a	WORD	586858	wordpools/wasnorm_wordpool.txt	LTP149	ltpFR	1	5	0	PLUTO	1092	n/a	n/a	1	0.57763671875	0.412841796875	1	upper	zerothre.ttf
1177.808	n/a	WORD	588904	wordpools/wasnorm_wordpool.txt	LTP149	ltpFR	1	5	0	UNIVERSE	1540	n/a	n/a	1	0.57763671875	0.412841796875	1	upper	zerothre.ttf
1181.99	n/a	WORD	590995	wordpools/wasnorm_wordpool.txt	LTP149	ltpFR	1	5	0	GODDESS	646	n/a	n/a	0	0.57763671875	0.412841796875	1	upper	zerothre.ttf
1185.838	n/a	WORD	592919	wordpools/wasnorm_wordpool.txt	LTP149	ltpFR	1	5	0	SCENERY	1247	n/a	n/a	1	0.57763671875	0.412841796875	1	upper	zerothre.ttf
1189.788	n/a	WORD	594894	wordpools/wasnorm_wordpool.txt	LTP149	ltpFR	1	5	0	BADGE	68	n/a	n/a	0	0.57763671875	0.412841796875	1	upper	zerothre.ttf
1193.978	n/a	WORD	596989	wordpools/wasnorm_wordpool.txt	LTP149	ltpFR	1	5	0	LINEN	825	n/a	n/a	0	0.57763671875	0.412841796875	1	upper	zerothre.ttf
1198.194	n/a	WORD	599097	wordpools/wasnorm_wordpool.txt	LTP149	ltpFR	1	5	0	DRIVEWAY	500	n/a	n/a	1	0.57763671875	0.412841796875	1	upper	zerothre.ttf
1202.152	n/a	WORD	601076	wordpools/wasnorm_wordpool.txt	LTP149	ltpFR	1	5	0	BRAKE	166	n/a	n/a	0	0.57763671875	0.412841796875	1	upper	zerothre.ttf
1206.216	n/a	WORD	603108	wordpools/wasnorm_wordpool.txt	LTP149	ltpFR	1	5	0	PELICAN	1039	n/a	n/a	0	0.57763671875	0.412841796875	1	upper	zerothre.ttf
1210.056	n/a	WORD	605028	wordpools/wasnorm_wordpool.txt	LTP149	ltpFR	1	5	0	CROW	414	n/a	n/a	0	0.57763671875	0.412841796875	1	upper	zerothre.ttf
1215.804	n/a	REC_START	607902	n/a	LTP149	ltpFR	1	5	n/a	n/a	n/a	n/a	n/a	n/a	n/a	n/a	n/a	n/a	n/a
1217.38	n/a	REC_WORD	608690	wordpools/wasnorm_wordpool.txt	LTP149	ltpFR	1	5	0	PELICAN	1039	n/a	n/a	0	n/a	n/a	n/a	n/a	n/a
1219.122	n/a	REC_WORD	609561	wordpools/wasnorm_wordpool.txt	LTP149	ltpFR	1	5	0	CROW	414	n/a	n/a	0	n/a	n/a	n/a	n/a	n/a
1220.994	n/a	REC_WORD	610497	wordpools/wasnorm_wordpool.txt	LTP149	ltpFR	1	5	0	DRIVEWAY	500	n/a	n/a	1	n/a	n/a	n/a	n/a	n/a
1223.164	n/a	REC_WORD	611582	wordpools/wasnorm_wordpool.txt	LTP149	ltpFR	1	5	0	DASHBOARD	441	n/a	n/a	1	n/a	n/a	n/a	n/a	n/a
1225.702	n/a	REC_WORD	612851	wordpools/wasnorm_wordpool.txt	LTP149	ltpFR	1	5	0	SCENERY	1247	n/a	n/a	1	n/a	n/a	n/a	n/a	n/a
1227.544	n/a	REC_WORD	613772	wordpools/wasnorm_wordpool.txt	LTP149	ltpFR	1	5	0	GODDESS	646	n/a	n/a	0	n/a	n/a	n/a	n/a	n/a
1230.846	n/a	REC_WORD	615423	wordpools/wasnorm_wordpool.txt	LTP149	ltpFR	1	5	0	ASTEROID	50	n/a	n/a	1	n/a	n/a	n/a	n/a	n/a
1233.63	n/a	REC_WORD	616815	wordpools/wasnorm_wordpool.txt	LTP149	ltpFR	1	5	0	PELICAN	1039	n/a	n/a	0	n/a	n/a	n/a	n/a	n/a
1234.678	n/a	REC_WORD	617339	wordpools/wasnorm_wordpool.txt	LTP149	ltpFR	1	5	0	CROW	414	n/a	n/a	0	n/a	n/a	n/a	n/a	n/a
1236.568	n/a	REC_WORD	618284	wordpools/wasnorm_wordpool.txt	LTP149	ltpFR	1	5	0	LINEN	825	n/a	n/a	0	n/a	n/a	n/a	n/a	n/a
1239.642	n/a	REC_WORD	619821	wordpools/wasnorm_wordpool.txt	LTP149	ltpFR	1	5	0	DUNE	506	n/a	n/a	1	n/a	n/a	n/a	n/a	n/a
1245.494	n/a	REC_WORD	622747	wordpools/wasnorm_wordpool.txt	LTP149	ltpFR	1	5	0	OPERA	978	n/a	n/a	1	n/a	n/a	n/a	n/a	n/a
1259.324	n/a	REC_WORD	629662	wordpools/wasnorm_wordpool.txt	LTP149	ltpFR	1	5	0	PERISCOPE	1050	n/a	n/a	0	n/a	n/a	n/a	n/a	n/a
1299.93	n/a	WORD	649965	wordpools/wasnorm_wordpool.txt	LTP149	ltpFR	1	6	1	CIGARETTE	309	n/a	n/a	0	0.422607421875	0.5869140625	0	lower	amplitud.ttf
1304.054	n/a	WORD	652027	wordpools/wasnorm_wordpool.txt	LTP149	ltpFR	1	6	1	HOE	711	n/a	n/a	0	0.422607421875	0.5869140625	0	lower	amplitud.ttf
1308.168	n/a	WORD	654084	wordpools/wasnorm_wordpool.txt	LTP149	ltpFR	1	6	1	CHILD	299	n/a	n/a	1	0.422607421875	0.5869140625	0	lower	amplitud.ttf
1312.208	n/a	WORD	656104	wordpools/wasnorm_wordpool.txt	LTP149	ltpFR	1	6	1	MINK	897	n/a	n/a	1	0.422607421875	0.5869140625	0	lower	amplitud.ttf
1316.4	n/a	WORD	658200	wordpools/wasnorm_wordpool.txt	LTP149	ltpFR	1	6	0	QUILT	1151	n/a	n/a	0	0.57763671875	0.412841796875	1	upper	zerothre.ttf
1320.29	n/a	WORD	660145	wordpools/wasnorm_wordpool.txt	LTP149	ltpFR	1	6	0	TREE	1502	n/a	n/a	1	0.57763671875	0.412841796875	1	upper	zerothre.ttf
1324.422	n/a	WORD	662211	wordpools/wasnorm_wordpool.txt	LTP149	ltpFR	1	6	0	NICOTINE	951	n/a	n/a	0	0.57763671875	0.412841796875	1	upper	zerothre.ttf
1328.47	n/a	WORD	664235	wordpools/wasnorm_wordpool.txt	LTP149	ltpFR	1	6	0	TOENAIL	1474	n/a	n/a	0	0.57763671875	0.412841796875	1	upper	zerothre.ttf
1332.31	n/a	WORD	666155	wordpools/wasnorm_wordpool.txt	LTP149	ltpFR	1	6	0	BABY	64	n/a	n/a	0	0.57763671875	0.412841796875	1	upper	zerothre.ttf
1336.228	n/a	WORD	668114	wordpools/wasnorm_wordpool.txt	LTP149	ltpFR	1	6	0	PENGUIN	1044	n/a	n/a	0	0.57763671875	0.412841796875	1	upper	zerothre.ttf
1340.068	n/a	WORD	670034	wordpools/wasnorm_wordpool.txt	LTP149	ltpFR	1	6	1	CANARY	227	n/a	n/a	1	0.422607421875	0.5869140625	0	lower	amplitud.ttf
1343.95	n/a	WORD	671975	wordpools/wasnorm_wordpool.txt	LTP149	ltpFR	1	6	1	LOFT	840	n/a	n/a	0	0.422607421875	0.5869140625	0	lower	amplitud.ttf
1347.772	n/a	WORD	673886	wordpools/wasnorm_wordpool.txt	LTP149	ltpFR	1	6	1	ANTENNA	28	n/a	n/a	0	0.422607421875	0.5869140625	0	lower	amplitud.ttf
1351.598	n/a	WORD	675799	wordpools/wasnorm_wordpool.txt	LTP149	ltpFR	1	6	1	WINGS	1614	n/a	n/a	0	0.422607421875	0.5869140625	0	lower	amplitud.ttf
1355.546	n/a	WORD	677773	wordpools/wasnorm_wordpool.txt	LTP149	ltpFR	1	6	0	PEARL	1034	n/a	n/a	0	0.57763671875	0.412841796875	1	upper	zerothre.ttf
1359.586	n/a	WORD	679793	wordpools/wasnorm_wordpool.txt	LTP149	ltpFR	1	6	0	DOORBELL	487	n/a	n/a	0	0.57763671875	0.412841796875	1	upper	zerothre.ttf
1365.518	n/a	REC_START	682759	n/a	LTP149	ltpFR	1	6	n/a	n/a	n/a	n/a	n/a	n/a	n/a	n/a	n/a	n/a	n/a
1367.128	n/a	REC_WORD	683564	wordpools/wasnorm_wordpool.txt	LTP149	ltpFR	1	6	0	DOORBELL	487	n/a	n/a	0	n/a	n/a	n/a	n/a	n/a
1368.96	n/a	REC_WORD	684480	wordpools/wasnorm_wordpool.txt	LTP149	ltpFR	1	6	0	PEARL	1034	n/a	n/a	0	n/a	n/a	n/a	n/a	n/a
1372.288	n/a	REC_WORD	686144	wordpools/wasnorm_wordpool.txt	LTP149	ltpFR	1	6	1	CANARY	227	n/a	n/a	1	n/a	n/a	n/a	n/a	n/a
1375.934	n/a	REC_WORD	687967	wordpools/wasnorm_wordpool.txt	LTP149	ltpFR	1	6	1	CHILD	299	n/a	n/a	1	n/a	n/a	n/a	n/a	n/a
1378.104	n/a	REC_WORD	689052	wordpools/wasnorm_wordpool.txt	LTP149	ltpFR	1	6	1	MINK	897	n/a	n/a	1	n/a	n/a	n/a	n/a	n/a
1380.53	n/a	REC_WORD	690265	wordpools/wasnorm_wordpool.txt	LTP149	ltpFR	1	6	1	HOE	711	n/a	n/a	0	n/a	n/a	n/a	n/a	n/a
1385.922	n/a	REC_WORD	692961	wordpools/wasnorm_wordpool.txt	LTP149	ltpFR	1	6	0	TOENAIL	1474	n/a	n/a	0	n/a	n/a	n/a	n/a	n/a
1388.346	n/a	REC_WORD	694173	wordpools/wasnorm_wordpool.txt	LTP149	ltpFR	1	6	0	BABY	64	n/a	n/a	0	n/a	n/a	n/a	n/a	n/a
1392.572	n/a	REC_WORD	696286	wordpools/wasnorm_wordpool.txt	LTP149	ltpFR	1	6	0	QUILT	1151	n/a	n/a	0	n/a	n/a	n/a	n/a	n/a
1463.67	n/a	WORD	731835	wordpools/wasnorm_wordpool.txt	LTP149	ltpFR	1	7	0	ANCHOR	21	n/a	n/a	1	0.57763671875	0.412841796875	1	upper	zerothre.ttf
1467.628	n/a	WORD	733814	wordpools/wasnorm_wordpool.txt	LTP149	ltpFR	1	7	0	KEEPER	769	n/a	n/a	1	0.57763671875	0.412841796875	1	upper	zerothre.ttf
1471.818	n/a	WORD	735909	wordpools/wasnorm_wordpool.txt	LTP149	ltpFR	1	7	0	UTENSIL	1542	n/a	n/a	0	0.57763671875	0.412841796875	1	upper	zerothre.ttf
1475.742	n/a	WORD	737871	wordpools/wasnorm_wordpool.txt	LTP149	ltpFR	1	7	0	CHISEL	305	n/a	n/a	0	0.57763671875	0.412841796875	1	upper	zerothre.ttf
1479.874	n/a	WORD	739937	wordpools/wasnorm_wordpool.txt	LTP149	ltpFR	1	7	0	WATERFALL	1595	n/a	n/a	1	0.57763671875	0.412841796875	1	upper	zerothre.ttf
1483.698	n/a	WORD	741849	wordpools/wasnorm_wordpool.txt	LTP149	ltpFR	1	7	0	LAWYER	806	n/a	n/a	1	0.57763671875	0.412841796875	1	upper	zerothre.ttf
1487.514	n/a	WORD	743757	wordpools/wasnorm_wordpool.txt	LTP149	ltpFR	1	7	0	POSSUM	1112	n/a	n/a	0	0.57763671875	0.412841796875	1	upper	zerothre.ttf
1491.47	n/a	WORD	745735	wordpools/wasnorm_wordpool.txt	LTP149	ltpFR	1	7	0	CREATURE	403	n/a	n/a	1	0.57763671875	0.412841796875	1	upper	zerothre.ttf
1495.57	n/a	WORD	747785	wordpools/wasnorm_wordpool.txt	LTP149	ltpFR	1	7	0	ATTORNEY	58	n/a	n/a	1	0.57763671875	0.412841796875	1	upper	zerothre.ttf
1499.526	n/a	WORD	749763	wordpools/wasnorm_wordpool.txt	LTP149	ltpFR	1	7	0	RAT	1169	n/a	n/a	0	0.57763671875	0.412841796875	1	upper	zerothre.ttf
1503.716	n/a	WORD	751858	wordpools/wasnorm_wordpool.txt	LTP149	ltpFR	1	7	0	SURF	1412	n/a	n/a	1	0.57763671875	0.412841796875	1	upper	zerothre.ttf
1507.6	n/a	WORD	753800	wordpools/wasnorm_wordpool.txt	LTP149	ltpFR	1	7	0	SLIME	1327	n/a	n/a	0	0.57763671875	0.412841796875	1	upper	zerothre.ttf
1511.798	n/a	WORD	755899	wordpools/wasnorm_wordpool.txt	LTP149	ltpFR	1	7	0	ROBOT	1200	n/a	n/a	1	0.57763671875	0.412841796875	1	upper	zerothre.ttf
1515.904	n/a	WORD	757952	wordpools/wasnorm_wordpool.txt	LTP149	ltpFR	1	7	0	APPLICATION	34	n/a	n/a	0	0.57763671875	0.412841796875	1	upper	zerothre.ttf
1520.012	n/a	WORD	760006	wordpools/wasnorm_wordpool.txt	LTP149	ltpFR	1	7	0	SUPERVISOR	1410	n/a	n/a	1	0.57763671875	0.412841796875	1	upper	zerothre.ttf
1523.844	n/a	WORD	761922	wordpools/wasnorm_wordpool.txt	LTP149	ltpFR	1	7	0	SEED	1266	n/a	n/a	0	0.57763671875	0.412841796875	1	upper	zerothre.ttf
1529.868	n/a	REC_START	764934	n/a	LTP149	ltpFR	1	7	n/a	n/a	n/a	n/a	n/a	n/a	n/a	n/a	n/a	n/a	n/a
1531.908	n/a	REC_WORD	765954	wordpools/wasnorm_wordpool.txt	LTP149	ltpFR	1	7	0	SEED	1266	n/a	n/a	0	n/a	n/a	n/a	n/a	n/a
1535.596	n/a	REC_WORD	767798	wordpools/wasnorm_wordpool.txt	LTP149	ltpFR	1	7	0	APPLICATION	34	n/a	n/a	0	n/a	n/a	n/a	n/a	n/a
1539.7	n/a	REC_WORD	769850	wordpools/wasnorm_wordpool.txt	LTP149	ltpFR	1	7	0	LAWYER	806	n/a	n/a	1	n/a	n/a	n/a	n/a	n/a
1540.848	n/a	REC_WORD	770424	wordpools/wasnorm_wordpool.txt	LTP149	ltpFR	1	7	0	ATTORNEY	58	n/a	n/a	1	n/a	n/a	n/a	n/a	n/a
1542.954	n/a	REC_WORD	771477	wordpools/wasnorm_wordpool.txt	LTP149	ltpFR	1	7	0	WATERFALL	1595	n/a	n/a	1	n/a	n/a	n/a	n/a	n/a
1545.932	n/a	REC_WORD	772966	wordpools/wasnorm_wordpool.txt	LTP149	ltpFR	1	7	0	KEEPER	769	n/a	n/a	1	n/a	n/a	n/a	n/a	n/a
1548.352	n/a	REC_WORD	774176	wordpools/wasnorm_wordpool.txt	LTP149	ltpFR	1	7	0	POSSUM	1112	n/a	n/a	0	n/a	n/a	n/a	n/a	n/a
1549.38	n/a	REC_WORD	774690	wordpools/wasnorm_wordpool.txt	LTP149	ltpFR	1	7	0	RAT	1169	n/a	n/a	0	n/a	n/a	n/a	n/a	n/a
1551.22	n/a	REC_WORD	775610	wordpools/wasnorm_wordpool.txt	LTP149	ltpFR	1	7	0	CHISEL	305	n/a	n/a	0	n/a	n/a	n/a	n/a	n/a
1552.292	n/a	REC_WORD	776146	wordpools/wasnorm_wordpool.txt	LTP149	ltpFR	1	7	0	UTENSIL	1542	n/a	n/a	0	n/a	n/a	n/a	n/a	n/a
1559.232	n/a	REC_WORD	779616	wordpools/wasnorm_wordpool.txt	LTP149	ltpFR	1	7	0	SEED	1266	n/a	n/a	0	n/a	n/a	n/a	n/a	n/a
1561.468	n/a	REC_WORD	780734	wordpools/wasnorm_wordpool.txt	LTP149	ltpFR	1	7	0	SURF	1412	n/a	n/a	1	n/a	n/a	n/a	n/a	n/a
1597.054	n/a	REC_WORD	798527	wordpools/wasnorm_wordpool.txt	LTP149	ltpFR	1	7	0	TREE	1502	n/a	n/a	1	n/a	n/a	n/a	n/a	n/a
1618.474	n/a	WORD	809237	wordpools/wasnorm_wordpool.txt	LTP149	ltpFR	1	8	0	BASEBALL	93	n/a	n/a	0	0.57763671875	0.412841796875	1	upper	zerothre.ttf
1622.632	n/a	WORD	811316	wordpools/wasnorm_wordpool.txt	LTP149	ltpFR	1	8	0	SICKLE	1302	n/a	n/a	0	0.57763671875	0.412841796875	1	upper	zerothre.ttf
1626.688	n/a	WORD	813344	wordpools/wasnorm_wordpool.txt	LTP149	ltpFR	1	8	0	COOK	372	n/a	n/a	1	0.57763671875	0.412841796875	1	upper	zerothre.ttf
1630.854	n/a	WORD	815427	wordpools/wasnorm_wordpool.txt	LTP149	ltpFR	1	8	1	DOVE	491	n/a	n/a	1	0.422607421875	0.5869140625	0	lower	amplitud.ttf
1634.936	n/a	WORD	817468	wordpools/wasnorm_wordpool.txt	LTP149	ltpFR	1	8	1	CARDINAL	244	n/a	n/a	1	0.422607421875	0.5869140625	0	lower	amplitud.ttf
1638.768	n/a	WORD	819384	wordpools/wasnorm_wordpool.txt	LTP149	ltpFR	1	8	1	PALM	1007	n/a	n/a	1	0.422607421875	0.5869140625	0	lower	amplitud.ttf
1642.716	n/a	WORD	821358	wordpools/wasnorm_wordpool.txt	LTP149	ltpFR	1	8	0	THERMOMETER	1453	n/a	n/a	0	0.57763671875	0.412841796875	1	upper	zerothre.ttf
1646.79	n/a	WORD	823395	wordpools/wasnorm_wordpool.txt	LTP149	ltpFR	1	8	0	CALF	222	n/a	n/a	1	0.57763671875	0.412841796875	1	upper	zerothre.ttf
1650.84	n/a	WORD	825420	wordpools/wasnorm_wordpool.txt	LTP149	ltpFR	1	8	0	TRIGGER	1507	n/a	n/a	0	0.57763671875	0.412841796875	1	upper	zerothre.ttf
1654.92	n/a	WORD	827460	wordpools/wasnorm_wordpool.txt	LTP149	ltpFR	1	8	1	MALL	860	n/a	n/a	0	0.422607421875	0.5869140625	0	lower	amplitud.ttf
1658.946	n/a	WORD	829473	wordpools/wasnorm_wordpool.txt	LTP149	ltpFR	1	8	1	CART	250	n/a	n/a	0	0.422607421875	0.5869140625	0	lower	amplitud.ttf
1663.036	n/a	WORD	831518	wordpools/wasnorm_wordpool.txt	LTP149	ltpFR	1	8	1	PITCHFORK	1078	n/a	n/a	0	0.422607421875	0.5869140625	0	lower	amplitud.ttf
1667.11	n/a	WORD	833555	wordpools/wasnorm_wordpool.txt	LTP149	ltpFR	1	8	1	ELM	527	n/a	n/a	1	0.422607421875	0.5869140625	0	lower	amplitud.ttf
1671.008	n/a	WORD	835504	wordpools/wasnorm_wordpool.txt	LTP149	ltpFR	1	8	1	CHEF	290	n/a	n/a	1	0.422607421875	0.5869140625	0	lower	amplitud.ttf
1674.974	n/a	WORD	837487	wordpools/wasnorm_wordpool.txt	LTP149	ltpFR	1	8	0	BALCONY	72	n/a	n/a	1	0.57763671875	0.412841796875	1	upper	zerothre.ttf
1678.93	n/a	WORD	839465	wordpools/wasnorm_wordpool.txt	LTP149	ltpFR	1	8	0	PRAIRIE	1118	n/a	n/a	1	0.57763671875	0.412841796875	1	upper	zerothre.ttf
1684.988	n/a	REC_START	842494	n/a	LTP149	ltpFR	1	8	n/a	n/a	n/a	n/a	n/a	n/a	n/a	n/a	n/a	n/a	n/a
1687.214	n/a	REC_WORD	843607	wordpools/wasnorm_wordpool.txt	LTP149	ltpFR	1	8	0	PRAIRIE	1118	n/a	n/a	1	n/a	n/a	n/a	n/a	n/a
1688.206	n/a	REC_WORD	844103	wordpools/wasnorm_wordpool.txt	LTP149	ltpFR	1	8	0	BALCONY	72	n/a	n/a	1	n/a	n/a	n/a	n/a	n/a
1690.52	n/a	REC_WORD	845260	wordpools/wasnorm_wordpool.txt	LTP149	ltpFR	1	8	1	CHEF	290	n/a	n/a	1	n/a	n/a	n/a	n/a	n/a
1692.406	n/a	REC_WORD	846203	wordpools/wasnorm_wordpool.txt	LTP149	ltpFR	1	8	0	COOK	372	n/a	n/a	1	n/a	n/a	n/a	n/a	n/a
1694.252	n/a	REC_WORD	847126	wordpools/wasnorm_wordpool.txt	LTP149	ltpFR	1	8	0	BASEBALL	93	n/a	n/a	0	n/a	n/a	n/a	n/a	n/a
1695.208	n/a	REC_WORD	847604	wordpools/wasnorm_wordpool.txt	LTP149	ltpFR	1	8	0	SICKLE	1302	n/a	n/a	0	n/a	n/a	n/a	n/a	n/a
1700.374	n/a	REC_WORD	850187	wordpools/wasnorm_wordpool.txt	LTP149	ltpFR	1	8	1	PITCHFORK	1078	n/a	n/a	0	n/a	n/a	n/a	n/a	n/a
1730.696	n/a	REC_WORD	865348	wordpools/wasnorm_wordpool.txt	LTP149	ltpFR	1	8	1	CARDINAL	244	n/a	n/a	1	n/a	n/a	n/a	n/a	n/a
1775.012	n/a	WORD	887506	wordpools/wasnorm_wordpool.txt	LTP149	ltpFR	1	9	0	PLATE	1086	n/a	n/a	0	0.57763671875	0.412841796875	1	upper	zerothre.ttf
1779.126	n/a	WORD	889563	wordpools/wasnorm_wordpool.txt	LTP149	ltpFR	1	9	0	DINER	467	n/a	n/a	1	0.57763671875	0.412841796875	1	upper	zerothre.ttf
1783.008	n/a	WORD	891504	wordpools/wasnorm_wordpool.txt	LTP149	ltpFR	1	9	0	CARPET	247	n/a	n/a	1	0.57763671875	0.412841796875	1	upper	zerothre.ttf
1786.914	n/a	WORD	893457	wordpools/wasnorm_wordpool.txt	LTP149	ltpFR	1	9	0	PARSLEY	1016	n/a	n/a	0	0.57763671875	0.412841796875	1	upper	zerothre.ttf
1791.09	n/a	WORD	895545	wordpools/wasnorm_wordpool.txt	LTP149	ltpFR	1	9	0	ZUCCHINI	1638	n/a	n/a	0	0.57763671875	0.412841796875	1	upper	zerothre.ttf
1795.164	n/a	WORD	897582	wordpools/wasnorm_wordpool.txt	LTP149	ltpFR	1	9	0	TOASTER	1472	n/a	n/a	1	0.57763671875	0.412841796875	1	upper	zerothre.ttf
1799.17	n/a	WORD	899585	wordpools/wasnorm_wordpool.txt	LTP149	ltpFR	1	9	0	HAYSTACK	694	n/a	n/a	1	0.57763671875	0.412841796875	1	upper	zerothre.ttf
1803.218	n/a	WORD	901609	wordpools/wasnorm_wordpool.txt	LTP149	ltpFR	1	9	0	TURKEY	1520	n/a	n/a	1	0.57763671875	0.412841796875	1	upper	zerothre.ttf
1807.034	n/a	WORD	903517	wordpools/wasnorm_wordpool.txt	LTP149	ltpFR	1	9	0	PEPPER	1047	n/a	n/a	0	0.57763671875	0.412841796875	1	upper	zerothre.ttf
1811.068	n/a	WORD	905534	wordpools/wasnorm_wordpool.txt	LTP149	ltpFR	1	9	0	CHEST	295	n/a	n/a	1	0.57763671875	0.412841796875	1	upper	zerothre.ttf
1815.024	n/a	WORD	907512	wordpools/wasnorm_wordpool.txt	LTP149	ltpFR	1	9	0	RUG	1215	n/a	n/a	1	0.57763671875	0.412841796875	1	upper	zerothre.ttf
1818.888	n/a	WORD	909444	wordpools/wasnorm_wordpool.txt	LTP149	ltpFR	1	9	0	SUPPER	1411	n/a	n/a	0	0.57763671875	0.412841796875	1	upper	zerothre.ttf
1822.828	n/a	WORD	911414	wordpools/wasnorm_wordpool.txt	LTP149	ltpFR	1	9	0	KLEENEX	782	n/a	n/a	0	0.57763671875	0.412841796875	1	upper	zerothre.ttf
1826.818	n/a	WORD	913409	wordpools/wasnorm_wordpool.txt	LTP149	ltpFR	1	9	0	VEAL	1551	n/a	n/a	0	0.57763671875	0.412841796875	1	upper	zerothre.ttf
1830.744	n/a	WORD	915372	wordpools/wasnorm_wordpool.txt	LTP149	ltpFR	1	9	0	RAM	1165	n/a	n/a	1	0.57763671875	0.412841796875	1	upper	zerothre.ttf
1834.892	n/a	WORD	917446	wordpools/wasnorm_wordpool.txt	LTP149	ltpFR	1	9	0	LASH	802	n/a	n/a	0	0.57763671875	0.412841796875	1	upper	zerothre.ttf
1840.782	n/a	REC_START	920391	n/a	LTP149	ltpFR	1	9	n/a	n/a	n/a	n/a	n/a	n/a	n/a	n/a	n/a	n/a	n/a
1842.568	n/a	REC_WORD	921284	wordpools/wasnorm_wordpool.txt	LTP149	ltpFR	1	9	0	LASH	802	n/a	n/a	0	n/a	n/a	n/a	n/a	n/a
1844.638	n/a	REC_WORD	922319	wordpools/wasnorm_wordpool.txt	LTP149	ltpFR	1	9	0	RAM	1165	n/a	n/a	1	n/a	n/a	n/a	n/a	n/a
1846.25	n/a	REC_WORD	923125	wordpools/wasnorm_wordpool.txt	LTP149	ltpFR	1	9	0	VEAL	1551	n/a	n/a	0	n/a	n/a	n/a	n/a	n/a
1848.626	n/a	REC_WORD	924313	wordpools/wasnorm_wordpool.txt	LTP149	ltpFR	1	9	0	DINER	467	n/a	n/a	1	n/a	n/a	n/a	n/a	n/a
1850.356	n/a	REC_WORD	925178	wordpools/wasnorm_wordpool.txt	LTP149	ltpFR	1	9	0	PLATE	1086	n/a	n/a	0	n/a	n/a	n/a	n/a	n/a
1851.274	n/a	REC_WORD	925637	wordpools/wasnorm_wordpool.txt	LTP149	ltpFR	1	9	0	SUPPER	1411	n/a	n/a	0	n/a	n/a	n/a	n/a	n/a
1854.816	n/a	REC_WORD	927408	wordpools/wasnorm_wordpool.txt	LTP149	ltpFR	1	9	0	ZUCCHINI	1638	n/a	n/a	0	n/a	n/a	n/a	n/a	n/a
1856.128	n/a	REC_WORD	928064	wordpools/wasnorm_wordpool.txt	LTP149	ltpFR	1	9	0	PARSLEY	1016	n/a	n/a	0	n/a	n/a	n/a	n/a	n/a
1863.86	n/a	REC_WORD	931930	wordpools/wasnorm_wordpool.txt	LTP149	ltpFR	1	9	0	KLEENEX	782	n/a	n/a	0	n/a	n/a	n/a	n/a	n/a
1865.152	n/a	REC_WORD	932576	wordpools/wasnorm_wordpool.txt	LTP149	ltpFR	1	9	0	HAYSTACK	694	n/a	n/a	1	n/a	n/a	n/a	n/a	n/a
1868.726	n/a	REC_WORD	934363	wordpools/wasnorm_wordpool.txt	LTP149	ltpFR	1	9	0	CHEST	295	n/a	n/a	1	n/a	n/a	n/a	n/a	n/a
1870.722	n/a	REC_WORD	935361	wordpools/wasnorm_wordpool.txt	LTP149	ltpFR	1	9	0	TOASTER	1472	n/a	n/a	1	n/a	n/a	n/a	n/a	n/a
1899.512	n/a	REC_WORD	949756	wordpools/wasnorm_wordpool.txt	LTP149	ltpFR	1	9	n/a	PLOW	-1	n/a	n/a	n/a	n/a	n/a	n/a	n/a	n/a
1934.804	n/a	WORD	967402	wordpools/wasnorm_wordpool.txt	LTP149	ltpFR	1	10	-1	BOTTLE	153	n/a	n/a	-1	1.0	1.0	1	upper	Verdana.ttf
1938.836	n/a	WORD	969418	wordpools/wasnorm_wordpool.txt	LTP149	ltpFR	1	10	-1	LITERATURE	831	n/a	n/a	-1	1.0	1.0	1	upper	Verdana.ttf
1942.676	n/a	WORD	971338	wordpools/wasnorm_wordpool.txt	LTP149	ltpFR	1	10	-1	FEAST	556	n/a	n/a	-1	1.0	1.0	1	upper	Verdana.ttf
1946.642	n/a	WORD	973321	wordpools/wasnorm_wordpool.txt	LTP149	ltpFR	1	10	-1	WICK	1607	n/a	n/a	-1	1.0	1.0	1	upper	Verdana.ttf
1950.532	n/a	WORD	975266	wordpools/wasnorm_wordpool.txt	LTP149	ltpFR	1	10	-1	FIREPLACE	570	n/a	n/a	-1	1.0	1.0	1	upper	Verdana.ttf
1954.522	n/a	WORD	977261	wordpools/wasnorm_wordpool.txt	LTP149	ltpFR	1	10	-1	MASK	876	n/a	n/a	-1	1.0	1.0	1	upper	Verdana.ttf
1958.38	n/a	WORD	979190	wordpools/wasnorm_wordpool.txt	LTP149	ltpFR	1	10	-1	HIKER	708	n/a	n/a	-1	1.0	1.0	1	upper	Verdana.ttf
1962.222	n/a	WORD	981111	wordpools/wasnorm_wordpool.txt	LTP149	ltpFR	1	10	-1	BRAIN	165	n/a	n/a	-1	1.0	1.0	1	upper	Verdana.ttf
1966.368	n/a	WORD	983184	wordpools/wasnorm_wordpool.txt	LTP149	ltpFR	1	10	-1	BINDER	127	n/a	n/a	-1	1.0	1.0	1	upper	Verdana.ttf
1970.36	n/a	WORD	985180	wordpools/wasnorm_wordpool.txt	LTP149	ltpFR	1	10	-1	WRITER	1627	n/a	n/a	-1	1.0	1.0	1	upper	Verdana.ttf
1974.492	n/a	WORD	987246	wordpools/wasnorm_wordpool.txt	LTP149	ltpFR	1	10	-1	STREET	1393	n/a	n/a	-1	1.0	1.0	1	upper	Verdana.ttf
1978.556	n/a	WORD	989278	wordpools/wasnorm_wordpool.txt	LTP149	ltpFR	1	10	-1	BOULEVARD	156	n/a	n/a	-1	1.0	1.0	1	upper	Verdana.ttf
1982.556	n/a	WORD	991278	wordpools/wasnorm_wordpool.txt	LTP149	ltpFR	1	10	-1	STAPLER	1372	n/a	n/a	-1	1.0	1.0	1	upper	Verdana.ttf
1986.604	n/a	WORD	993302	wordpools/wasnorm_wordpool.txt	LTP149	ltpFR	1	10	-1	LABEL	790	n/a	n/a	-1	1.0	1.0	1	upper	Verdana.ttf
1990.428	n/a	WORD	995214	wordpools/wasnorm_wordpool.txt	LTP149	ltpFR	1	10	-1	BILL	126	n/a	n/a	-1	1.0	1.0	1	upper	Verdana.ttf
1994.568	n/a	WORD	997284	wordpools/wasnorm_wordpool.txt	LTP149	ltpFR	1	10	-1	RECEIPT	1173	n/a	n/a	-1	1.0	1.0	1	upper	Verdana.ttf
2000.168	n/a	REC_START	1000084	n/a	LTP149	ltpFR	1	10	n/a	n/a	n/a	n/a	n/a	n/a	n/a	n/a	n/a	n/a	n/a
2002.014	n/a	REC_WORD	1001007	wordpools/wasnorm_wordpool.txt	LTP149	ltpFR	1	10	-1	BILL	126	n/a	n/a	-1	n/a	n/a	n/a	n/a	n/a
2002.702	n/a	REC_WORD	1001351	wordpools/wasnorm_wordpool.txt	LTP149	ltpFR	1	10	-1	RECEIPT	1173	n/a	n/a	-1	n/a	n/a	n/a	n/a	n/a
2004.768	n/a	REC_WORD	1002384	wordpools/wasnorm_wordpool.txt	LTP149	ltpFR	1	10	-1	LITERATURE	831	n/a	n/a	-1	n/a	n/a	n/a	n/a	n/a
2006.15	n/a	REC_WORD	1003075	wordpools/wasnorm_wordpool.txt	LTP149	ltpFR	1	10	-1	BOTTLE	153	n/a	n/a	-1	n/a	n/a	n/a	n/a	n/a
2006.988	n/a	REC_WORD	1003494	wordpools/wasnorm_wordpool.txt	LTP149	ltpFR	1	10	-1	FEAST	556	n/a	n/a	-1	n/a	n/a	n/a	n/a	n/a
2009.122	n/a	REC_WORD	1004561	wordpools/wasnorm_wordpool.txt	LTP149	ltpFR	1	10	-1	WICK	1607	n/a	n/a	-1	n/a	n/a	n/a	n/a	n/a
2011.816	n/a	REC_WORD	1005908	wordpools/wasnorm_wordpool.txt	LTP149	ltpFR	1	10	n/a	HITCH	-1	n/a	n/a	n/a	n/a	n/a	n/a	n/a	n/a
2012.152	n/a	REC_WORD	1006076	wordpools/wasnorm_wordpool.txt	LTP149	ltpFR	1	10	-1	HIKER	708	n/a	n/a	-1	n/a	n/a	n/a	n/a	n/a
2013.956	n/a	REC_WORD	1006978	wordpools/wasnorm_wordpool.txt	LTP149	ltpFR	1	10	-1	STREET	1393	n/a	n/a	-1	n/a	n/a	n/a	n/a	n/a
2015.054	n/a	REC_WORD	1007527	wordpools/wasnorm_wordpool.txt	LTP149	ltpFR	1	10	-1	BOULEVARD	156	n/a	n/a	-1	n/a	n/a	n/a	n/a	n/a
2017.794	n/a	REC_WORD	1008897	wordpools/wasnorm_wordpool.txt	LTP149	ltpFR	1	10	-1	BRAIN	165	n/a	n/a	-1	n/a	n/a	n/a	n/a	n/a
2019.72	n/a	REC_WORD	1009860	wordpools/wasnorm_wordpool.txt	LTP149	ltpFR	1	10	-1	BINDER	127	n/a	n/a	-1	n/a	n/a	n/a	n/a	n/a
2020.698	n/a	REC_WORD	1010349	wordpools/wasnorm_wordpool.txt	LTP149	ltpFR	1	10	-1	STAPLER	1372	n/a	n/a	-1	n/a	n/a	n/a	n/a	n/a
2022.17	n/a	REC_WORD	1011085	wordpools/wasnorm_wordpool.txt	LTP149	ltpFR	1	10	-1	WRITER	1627	n/a	n/a	-1	n/a	n/a	n/a	n/a	n/a
2024.134	n/a	REC_WORD	1012067	wordpools/wasnorm_wordpool.txt	LTP149	ltpFR	1	10	-1	LABEL	790	n/a	n/a	-1	n/a	n/a	n/a	n/a	n/a
2086.174	n/a	WORD	1043087	wordpools/wasnorm_wordpool.txt	LTP149	ltpFR	1	11	-1	CASH	252	n/a	n/a	-1	1.0	1.0	1	upper	Verdana.ttf
2090.198	n/a	WORD	1045099	wordpools/wasnorm_wordpool.txt	LTP149	ltpFR	1	11	-1	SIGNATURE	1306	n/a	n/a	-1	1.0	1.0	1	upper	Verdana.ttf
2094.106	n/a	WORD	1047053	wordpools/wasnorm_wordpool.txt	LTP149	ltpFR	1	11	-1	VOLLEYBALL	1576	n/a	n/a	-1	1.0	1.0	1	upper	Verdana.ttf
2098.28	n/a	WORD	1049140	wordpools/wasnorm_wordpool.txt	LTP149	ltpFR	1	11	-1	CHESS	294	n/a	n/a	-1	1.0	1.0	1	upper	Verdana.ttf
2102.394	n/a	WORD	1051197	wordpools/wasnorm_wordpool.txt	LTP149	ltpFR	1	11	-1	PERSON	1052	n/a	n/a	-1	1.0	1.0	1	upper	Verdana.ttf
2106.376	n/a	WORD	1053188	wordpools/wasnorm_wordpool.txt	LTP149	ltpFR	1	11	-1	CORPORATION	382	n/a	n/a	-1	1.0	1.0	1	upper	Verdana.ttf
2110.324	n/a	WORD	1055162	wordpools/wasnorm_wordpool.txt	LTP149	ltpFR	1	11	-1	PENNY	1045	n/a	n/a	-1	1.0	1.0	1	upper	Verdana.ttf
2114.192	n/a	WORD	1057096	wordpools/wasnorm_wordpool.txt	LTP149	ltpFR	1	11	-1	RIVER	1194	n/a	n/a	-1	1.0	1.0	1	upper	Verdana.ttf
2118.116	n/a	WORD	1059058	wordpools/wasnorm_wordpool.txt	LTP149	ltpFR	1	11	-1	TICK	1463	n/a	n/a	-1	1.0	1.0	1	upper	Verdana.ttf
2122.006	n/a	WORD	1061003	wordpools/wasnorm_wordpool.txt	LTP149	ltpFR	1	11	-1	REPORT	1184	n/a	n/a	-1	1.0	1.0	1	upper	Verdana.ttf
2125.946	n/a	WORD	1062973	wordpools/wasnorm_wordpool.txt	LTP149	ltpFR	1	11	-1	FOLDER	588	n/a	n/a	-1	1.0	1.0	1	upper	Verdana.ttf
2130.004	n/a	WORD	1065002	wordpools/wasnorm_wordpool.txt	LTP149	ltpFR	1	11	-1	SPONGE	1355	n/a	n/a	-1	1.0	1.0	1	upper	Verdana.ttf
2133.894	n/a	WORD	1066947	wordpools/wasnorm_wordpool.txt	LTP149	ltpFR	1	11	-1	RELATIVE	1182	n/a	n/a	-1	1.0	1.0	1	upper	Verdana.ttf
2137.942	n/a	WORD	1068971	wordpools/wasnorm_wordpool.txt	LTP149	ltpFR	1	11	-1	STY	1397	n/a	n/a	-1	1.0	1.0	1	upper	Verdana.ttf
2142.016	n/a	WORD	1071008	wordpools/wasnorm_wordpool.txt	LTP149	ltpFR	1	11	-1	NOVEL	960	n/a	n/a	-1	1.0	1.0	1	upper	Verdana.ttf
2145.922	n/a	WORD	1072961	wordpools/wasnorm_wordpool.txt	LTP149	ltpFR	1	11	-1	VICTOR	1563	n/a	n/a	-1	1.0	1.0	1	upper	Verdana.ttf
2151.788	n/a	REC_START	1075894	n/a	LTP149	ltpFR	1	11	n/a	n/a	n/a	n/a	n/a	n/a	n/a	n/a	n/a	n/a	n/a
2154.218	n/a	REC_WORD	1077109	wordpools/wasnorm_wordpool.txt	LTP149	ltpFR	1	11	-1	VICTOR	1563	n/a	n/a	-1	n/a	n/a	n/a	n/a	n/a
2156.372	n/a	REC_WORD	1078186	wordpools/wasnorm_wordpool.txt	LTP149	ltpFR	1	11	-1	NOVEL	960	n/a	n/a	-1	n/a	n/a	n/a	n/a	n/a
2157.674	n/a	REC_WORD	1078837	wordpools/wasnorm_wordpool.txt	LTP149	ltpFR	1	11	-1	STY	1397	n/a	n/a	-1	n/a	n/a	n/a	n/a	n/a
2162.548	n/a	REC_WORD	1081274	wordpools/wasnorm_wordpool.txt	LTP149	ltpFR	1	11	-1	RIVER	1194	n/a	n/a	-1	n/a	n/a	n/a	n/a	n/a
2164.3	n/a	REC_WORD	1082150	wordpools/wasnorm_wordpool.txt	LTP149	ltpFR	1	11	-1	VOLLEYBALL	1576	n/a	n/a	-1	n/a	n/a	n/a	n/a	n/a
2166.166	n/a	REC_WORD	1083083	wordpools/wasnorm_wordpool.txt	LTP149	ltpFR	1	11	-1	CHESS	294	n/a	n/a	-1	n/a	n/a	n/a	n/a	n/a
2168.186	n/a	REC_WORD	1084093	wordpools/wasnorm_wordpool.txt	LTP149	ltpFR	1	11	-1	SIGNATURE	1306	n/a	n/a	-1	n/a	n/a	n/a	n/a	n/a
2169.468	n/a	REC_WORD	1084734	wordpools/wasnorm_wordpool.txt	LTP149	ltpFR	1	11	-1	FOLDER	588	n/a	n/a	-1	n/a	n/a	n/a	n/a	n/a
2171.724	n/a	REC_WORD	1085862	wordpools/wasnorm_wordpool.txt	LTP149	ltpFR	1	11	-1	CASH	252	n/a	n/a	-1	n/a	n/a	n/a	n/a	n/a
2173.864	n/a	REC_WORD	1086932	wordpools/wasnorm_wordpool.txt	LTP149	ltpFR	1	11	-1	PENNY	1045	n/a	n/a	-1	n/a	n/a	n/a	n/a	n/a
2176.344	n/a	REC_WORD	1088172	wordpools/wasnorm_wordpool.txt	LTP149	ltpFR	1	11	-1	PERSON	1052	n/a	n/a	-1	n/a	n/a	n/a	n/a	n/a
2178.274	n/a	REC_WORD	1089137	wordpools/wasnorm_wordpool.txt	LTP149	ltpFR	1	11	-1	CORPORATION	382	n/a	n/a	-1	n/a	n/a	n/a	n/a	n/a
2182.324	n/a	REC_WORD	1091162	wordpools/wasnorm_wordpool.txt	LTP149	ltpFR	1	11	-1	TICK	1463	n/a	n/a	-1	n/a	n/a	n/a	n/a	n/a
2185.388	n/a	REC_WORD	1092694	wordpools/wasnorm_wordpool.txt	LTP149	ltpFR	1	11	-1	RELATIVE	1182	n/a	n/a	-1	n/a	n/a	n/a	n/a	n/a
2191.126	n/a	REC_WORD	1095563	wordpools/wasnorm_wordpool.txt	LTP149	ltpFR	1	11	-1	SPONGE	1355	n/a	n/a	-1	n/a	n/a	n/a	n/a	n/a
2247.286	n/a	WORD	1123643	wordpools/wasnorm_wordpool.txt	LTP149	ltpFR	1	12	1	DRAWER	493	n/a	n/a	0	0.422607421875	0.5869140625	0	lower	amplitud.ttf
2251.374	n/a	WORD	1125687	wordpools/wasnorm_wordpool.txt	LTP149	ltpFR	1	12	1	SUSPECT	1415	n/a	n/a	1	0.422607421875	0.5869140625	0	lower	amplitud.ttf
2255.24	n/a	WORD	1127620	wordpools/wasnorm_wordpool.txt	LTP149	ltpFR	1	12	1	SALAD	1224	n/a	n/a	0	0.422607421875	0.5869140625	0	lower	amplitud.ttf
2259.08	n/a	WORD	1129540	wordpools/wasnorm_wordpool.txt	LTP149	ltpFR	1	12	1	FELLOW	558	n/a	n/a	1	0.422607421875	0.5869140625	0	lower	amplitud.ttf
2263.038	n/a	WORD	1131519	wordpools/wasnorm_wordpool.txt	LTP149	ltpFR	1	12	1	COMPANION	357	n/a	n/a	1	0.422607421875	0.5869140625	0	lower	amplitud.ttf
2267.188	n/a	WORD	1133594	wordpools/wasnorm_wordpool.txt	LTP149	ltpFR	1	12	1	MACARONI	851	n/a	n/a	0	0.422607421875	0.5869140625	0	lower	amplitud.ttf
2271.384	n/a	WORD	1135692	wordpools/wasnorm_wordpool.txt	LTP149	ltpFR	1	12	1	NUCLEUS	961	n/a	n/a	1	0.422607421875	0.5869140625	0	lower	amplitud.ttf
2275.252	n/a	WORD	1137626	wordpools/wasnorm_wordpool.txt	LTP149	ltpFR	1	12	1	TAIL	1430	n/a	n/a	0	0.422607421875	0.5869140625	0	lower	amplitud.ttf
2279.332	n/a	WORD	1139666	wordpools/wasnorm_wordpool.txt	LTP149	ltpFR	1	12	1	SURVEY	1414	n/a	n/a	0	0.422607421875	0.5869140625	0	lower	amplitud.ttf
2283.314	n/a	WORD	1141657	wordpools/wasnorm_wordpool.txt	LTP149	ltpFR	1	12	1	OLIVE	975	n/a	n/a	1	0.422607421875	0.5869140625	0	lower	amplitud.ttf
2287.456	n/a	WORD	1143728	wordpools/wasnorm_wordpool.txt	LTP149	ltpFR	1	12	1	BRIEFCASE	175	n/a	n/a	0	0.422607421875	0.5869140625	0	lower	amplitud.ttf
2291.662	n/a	WORD	1145831	wordpools/wasnorm_wordpool.txt	LTP149	ltpFR	1	12	1	INMATE	738	n/a	n/a	1	0.422607421875	0.5869140625	0	lower	amplitud.ttf
2295.51	n/a	WORD	1147755	wordpools/wasnorm_wordpool.txt	LTP149	ltpFR	1	12	1	CAT	257	n/a	n/a	1	0.422607421875	0.5869140625	0	lower	amplitud.ttf
2299.51	n/a	WORD	1149755	wordpools/wasnorm_wordpool.txt	LTP149	ltpFR	1	12	1	RODENT	1204	n/a	n/a	1	0.422607421875	0.5869140625	0	lower	amplitud.ttf
2303.516	n/a	WORD	1151758	wordpools/wasnorm_wordpool.txt	LTP149	ltpFR	1	12	1	CHEMICAL	291	n/a	n/a	0	0.422607421875	0.5869140625	0	lower	amplitud.ttf
2307.332	n/a	WORD	1153666	wordpools/wasnorm_wordpool.txt	LTP149	ltpFR	1	12	1	PUMP	1141	n/a	n/a	0	0.422607421875	0.5869140625	0	lower	amplitud.ttf
2313.33	n/a	REC_START	1156665	n/a	LTP149	ltpFR	1	12	n/a	n/a	n/a	n/a	n/a	n/a	n/a	n/a	n/a	n/a	n/a
2314.822	n/a	REC_WORD	1157411	wordpools/wasnorm_wordpool.txt	LTP149	ltpFR	1	12	1	PUMP	1141	n/a	n/a	0	n/a	n/a	n/a	n/a	n/a
2316.318	n/a	REC_WORD	1158159	wordpools/wasnorm_wordpool.txt	LTP149	ltpFR	1	12	1	CHEMICAL	291	n/a	n/a	0	n/a	n/a	n/a	n/a	n/a
2318.614	n/a	REC_WORD	1159307	wordpools/wasnorm_wordpool.txt	LTP149	ltpFR	1	12	1	CAT	257	n/a	n/a	1	n/a	n/a	n/a	n/a	n/a
2319.646	n/a	REC_WORD	1159823	wordpools/wasnorm_wordpool.txt	LTP149	ltpFR	1	12	0	RAT	1169	n/a	n/a	0	n/a	n/a	n/a	n/a	n/a
2321.452	n/a	REC_WORD	1160726	wordpools/wasnorm_wordpool.txt	LTP149	ltpFR	1	12	1	INMATE	738	n/a	n/a	1	n/a	n/a	n/a	n/a	n/a
2323.592	n/a	REC_WORD	1161796	wordpools/wasnorm_wordpool.txt	LTP149	ltpFR	1	12	1	DRAWER	493	n/a	n/a	0	n/a	n/a	n/a	n/a	n/a
2325.134	n/a	REC_WORD	1162567	wordpools/wasnorm_wordpool.txt	LTP149	ltpFR	1	12	n/a	THIEF	1456	n/a	n/a	n/a	n/a	n/a	n/a	n/a	n/a
2326.73	n/a	REC_WORD	1163365	wordpools/wasnorm_wordpool.txt	LTP149	ltpFR	1	12	1	SALAD	1224	n/a	n/a	0	n/a	n/a	n/a	n/a	n/a
2329.604	n/a	REC_WORD	1164802	wordpools/wasnorm_wordpool.txt	LTP149	ltpFR	1	12	1	FELLOW	558	n/a	n/a	1	n/a	n/a	n/a	n/a	n/a
2330.606	n/a	REC_WORD	1165303	wordpools/wasnorm_wordpool.txt	LTP149	ltpFR	1	12	1	COMPANION	357	n/a	n/a	1	n/a	n/a	n/a	n/a	n/a
2333.894	n/a	REC_WORD	1166947	wordpools/wasnorm_wordpool.txt	LTP149	ltpFR	1	12	1	TAIL	1430	n/a	n/a	0	n/a	n/a	n/a	n/a	n/a
2388.94	n/a	REST_REWET	1194470	n/a	LTP149	ltpFR	1	12	n/a	n/a	n/a	n/a	n/a	n/a	n/a	n/a	n/a	n/a	n/a
2735.436	n/a	WORD	1367718	wordpools/wasnorm_wordpool.txt	LTP149	ltpFR	1	13	0	PUDDING	1139	n/a	n/a	0	0.57763671875	0.412841796875	1	upper	zerothre.ttf
2739.568	n/a	WORD	1369784	wordpools/wasnorm_wordpool.txt	LTP149	ltpFR	1	13	0	POISON	1096	n/a	n/a	0	0.57763671875	0.412841796875	1	upper	zerothre.ttf
2743.584	n/a	WORD	1371792	wordpools/wasnorm_wordpool.txt	LTP149	ltpFR	1	13	1	HATCHET	691	n/a	n/a	0	0.422607421875	0.5869140625	0	lower	amplitud.ttf
2747.766	n/a	WORD	1373883	wordpools/wasnorm_wordpool.txt	LTP149	ltpFR	1	13	1	HEDGE	699	n/a	n/a	1	0.422607421875	0.5869140625	0	lower	amplitud.ttf
2751.756	n/a	WORD	1375878	wordpools/wasnorm_wordpool.txt	LTP149	ltpFR	1	13	0	PAD	998	n/a	n/a	0	0.57763671875	0.412841796875	1	upper	zerothre.ttf
2755.762	n/a	WORD	1377881	wordpools/wasnorm_wordpool.txt	LTP149	ltpFR	1	13	0	PAPER	1011	n/a	n/a	0	0.57763671875	0.412841796875	1	upper	zerothre.ttf
2759.82	n/a	WORD	1379910	wordpools/wasnorm_wordpool.txt	LTP149	ltpFR	1	13	0	ELBOW	520	n/a	n/a	0	0.57763671875	0.412841796875	1	upper	zerothre.ttf
2763.986	n/a	WORD	1381993	wordpools/wasnorm_wordpool.txt	LTP149	ltpFR	1	13	0	IDOL	733	n/a	n/a	0	0.57763671875	0.412841796875	1	upper	zerothre.ttf
2768.06	n/a	WORD	1384030	wordpools/wasnorm_wordpool.txt	LTP149	ltpFR	1	13	0	WORM	1623	n/a	n/a	0	0.57763671875	0.412841796875	1	upper	zerothre.ttf
2772.108	n/a	WORD	1386054	wordpools/wasnorm_wordpool.txt	LTP149	ltpFR	1	13	0	LIMB	822	n/a	n/a	n/a	0.57763671875	0.412841796875	1	upper	zerothre.ttf
2775.132	n/a	SLOW_MSG	1387566	n/a	LTP149	ltpFR	1	13	n/a	n/a	n/a	n/a	n/a	n/a	n/a	n/a	n/a	n/a	n/a
2777.472	n/a	WORD	1388736	wordpools/wasnorm_wordpool.txt	LTP149	ltpFR	1	13	1	ASHTRAY	45	n/a	n/a	1	0.422607421875	0.5869140625	0	lower	amplitud.ttf
2781.656	n/a	WORD	1390828	wordpools/wasnorm_wordpool.txt	LTP149	ltpFR	1	13	1	CROSS	413	n/a	n/a	0	0.422607421875	0.5869140625	0	lower	amplitud.ttf
2785.77	n/a	WORD	1392885	wordpools/wasnorm_wordpool.txt	LTP149	ltpFR	1	13	1	EMPLOYER	532	n/a	n/a	1	0.422607421875	0.5869140625	0	lower	amplitud.ttf
2789.67	n/a	WORD	1394835	wordpools/wasnorm_wordpool.txt	LTP149	ltpFR	1	13	1	ASSISTANT	48	n/a	n/a	1	0.422607421875	0.5869140625	0	lower	amplitud.ttf
2793.868	n/a	WORD	1396934	wordpools/wasnorm_wordpool.txt	LTP149	ltpFR	1	13	1	SHELTER	1282	n/a	n/a	0	0.422607421875	0.5869140625	0	lower	amplitud.ttf
2798.06	n/a	WORD	1399030	wordpools/wasnorm_wordpool.txt	LTP149	ltpFR	1	13	1	CONDUCTOR	362	n/a	n/a	1	0.422607421875	0.5869140625	0	lower	amplitud.ttf
2803.932	n/a	REC_START	1401966	n/a	LTP149	ltpFR	1	13	n/a	n/a	n/a	n/a	n/a	n/a	n/a	n/a	n/a	n/a	n/a
2805.748	n/a	REC_WORD	1402874	wordpools/wasnorm_wordpool.txt	LTP149	ltpFR	1	13	1	CONDUCTOR	362	n/a	n/a	1	n/a	n/a	n/a	n/a	n/a
2807.514	n/a	REC_WORD	1403757	wordpools/wasnorm_wordpool.txt	LTP149	ltpFR	1	13	1	ASSISTANT	48	n/a	n/a	1	n/a	n/a	n/a	n/a	n/a
2809.464	n/a	REC_WORD	1404732	wordpools/wasnorm_wordpool.txt	LTP149	ltpFR	1	13	1	HEDGE	699	n/a	n/a	1	n/a	n/a	n/a	n/a	n/a
2810.528	n/a	REC_WORD	1405264	wordpools/wasnorm_wordpool.txt	LTP149	ltpFR	1	13	1	HATCHET	691	n/a	n/a	0	n/a	n/a	n/a	n/a	n/a
2813.706	n/a	REC_WORD	1406853	wordpools/wasnorm_wordpool.txt	LTP149	ltpFR	1	13	1	SHELTER	1282	n/a	n/a	0	n/a	n/a	n/a	n/a	n/a
2819.318	n/a	REC_WORD	1409659	wordpools/wasnorm_wordpool.txt	LTP149	ltpFR	1	13	0	ELBOW	520	n/a	n/a	0	n/a	n/a	n/a	n/a	n/a
2820.83	n/a	REC_WORD	1410415	wordpools/wasnorm_wordpool.txt	LTP149	ltpFR	1	13	0	LIMB	822	n/a	n/a	n/a	n/a	n/a	n/a	n/a	n/a
2823.714	n/a	REC_WORD	1411857	wordpools/wasnorm_wordpool.txt	LTP149	ltpFR	1	13	0	IDOL	733	n/a	n/a	0	n/a	n/a	n/a	n/a	n/a
2826.332	n/a	REC_WORD	1413166	wordpools/wasnorm_wordpool.txt	LTP149	ltpFR	1	13	0	WORM	1623	n/a	n/a	0	n/a	n/a	n/a	n/a	n/a
2828.592	n/a	REC_WORD	1414296	wordpools/wasnorm_wordpool.txt	LTP149	ltpFR	1	13	0	PUDDING	1139	n/a	n/a	0	n/a	n/a	n/a	n/a	n/a
2830.562	n/a	REC_WORD	1415281	wordpools/wasnorm_wordpool.txt	LTP149	ltpFR	1	13	0	POISON	1096	n/a	n/a	0	n/a	n/a	n/a	n/a	n/a
2833.182	n/a	REC_WORD	1416591	wordpools/wasnorm_wordpool.txt	LTP149	ltpFR	1	13	1	ASHTRAY	45	n/a	n/a	1	n/a	n/a	n/a	n/a	n/a
2864.064	n/a	REC_WORD	1432032	wordpools/wasnorm_wordpool.txt	LTP149	ltpFR	1	13	1	ASSISTANT	48	n/a	n/a	1	n/a	n/a	n/a	n/a	n/a
2867.016	n/a	REC_WORD	1433508	wordpools/wasnorm_wordpool.txt	LTP149	ltpFR	1	13	1	CONDUCTOR	362	n/a	n/a	1	n/a	n/a	n/a	n/a	n/a
2889.164	n/a	WORD	1444582	wordpools/wasnorm_wordpool.txt	LTP149	ltpFR	1	14	1	TONGUE	1479	n/a	n/a	1	0.422607421875	0.5869140625	0	lower	amplitud.ttf
2893.188	n/a	WORD	1446594	wordpools/wasnorm_wordpool.txt	LTP149	ltpFR	1	14	1	PLUM	1090	n/a	n/a	1	0.422607421875	0.5869140625	0	lower	amplitud.ttf
2897.28	n/a	WORD	1448640	wordpools/wasnorm_wordpool.txt	LTP149	ltpFR	1	14	1	BELL	118	n/a	n/a	0	0.422607421875	0.5869140625	0	lower	amplitud.ttf
2901.418	n/a	WORD	1450709	wordpools/wasnorm_wordpool.txt	LTP149	ltpFR	1	14	1	SPIT	1354	n/a	n/a	0	0.422607421875	0.5869140625	0	lower	amplitud.ttf
2905.626	n/a	WORD	1452813	wordpools/wasnorm_wordpool.txt	LTP149	ltpFR	1	14	1	HANDCUFFS	685	n/a	n/a	0	0.422607421875	0.5869140625	0	lower	amplitud.ttf
2909.5	n/a	WORD	1454750	wordpools/wasnorm_wordpool.txt	LTP149	ltpFR	1	14	1	PENDULUM	1043	n/a	n/a	0	0.422607421875	0.5869140625	0	lower	amplitud.ttf
2913.514	n/a	WORD	1456757	wordpools/wasnorm_wordpool.txt	LTP149	ltpFR	1	14	1	POOL	1103	n/a	n/a	0	0.422607421875	0.5869140625	0	lower	amplitud.ttf
2917.448	n/a	WORD	1458724	wordpools/wasnorm_wordpool.txt	LTP149	ltpFR	1	14	1	KID	775	n/a	n/a	1	0.422607421875	0.5869140625	0	lower	amplitud.ttf
2921.264	n/a	WORD	1460632	wordpools/wasnorm_wordpool.txt	LTP149	ltpFR	1	14	1	YOUTH	1634	n/a	n/a	1	0.422607421875	0.5869140625	0	lower	amplitud.ttf
2925.23	n/a	WORD	1462615	wordpools/wasnorm_wordpool.txt	LTP149	ltpFR	1	14	1	PRISON	1127	n/a	n/a	1	0.422607421875	0.5869140625	0	lower	amplitud.ttf
2929.262	n/a	WORD	1464631	wordpools/wasnorm_wordpool.txt	LTP149	ltpFR	1	14	1	ARCHITECT	36	n/a	n/a	1	0.422607421875	0.5869140625	0	lower	amplitud.ttf
2933.392	n/a	WORD	1466696	wordpools/wasnorm_wordpool.txt	LTP149	ltpFR	1	14	1	FACTORY	548	n/a	n/a	0	0.422607421875	0.5869140625	0	lower	amplitud.ttf
2937.31	n/a	WORD	1468655	wordpools/wasnorm_wordpool.txt	LTP149	ltpFR	1	14	1	DESSERT	453	n/a	n/a	n/a	0.422607421875	0.5869140625	0	lower	amplitud.ttf
2940.334	n/a	SLOW_MSG	1470167	n/a	LTP149	ltpFR	1	14	n/a	n/a	n/a	n/a	n/a	n/a	n/a	n/a	n/a	n/a	n/a
2942.764	n/a	WORD	1471382	wordpools/wasnorm_wordpool.txt	LTP149	ltpFR	1	14	1	SERVER	1272	n/a	n/a	1	0.422607421875	0.5869140625	0	lower	amplitud.ttf
2946.638	n/a	WORD	1473319	wordpools/wasnorm_wordpool.txt	LTP149	ltpFR	1	14	1	KITCHEN	778	n/a	n/a	0	0.422607421875	0.5869140625	0	lower	amplitud.ttf
2950.596	n/a	WORD	1475298	wordpools/wasnorm_wordpool.txt	LTP149	ltpFR	1	14	1	BOULDER	155	n/a	n/a	0	0.422607421875	0.5869140625	0	lower	amplitud.ttf
2956.386	n/a	REC_START	1478193	n/a	LTP149	ltpFR	1	14	n/a	n/a	n/a	n/a	n/a	n/a	n/a	n/a	n/a	n/a	n/a
2959.564	n/a	REC_WORD	1479782	wordpools/wasnorm_wordpool.txt	LTP149	ltpFR	1	14	1	KITCHEN	778	n/a	n/a	0	n/a	n/a	n/a	n/a	n/a
2961.266	n/a	REC_WORD	1480633	wordpools/wasnorm_wordpool.txt	LTP149	ltpFR	1	14	1	SERVER	1272	n/a	n/a	1	n/a	n/a	n/a	n/a	n/a
2963.29	n/a	REC_WORD	1481645	wordpools/wasnorm_wordpool.txt	LTP149	ltpFR	1	14	1	ARCHITECT	36	n/a	n/a	1	n/a	n/a	n/a	n/a	n/a
2966.722	n/a	REC_WORD	1483361	wordpools/wasnorm_wordpool.txt	LTP149	ltpFR	1	14	1	DESSERT	453	n/a	n/a	n/a	n/a	n/a	n/a	n/a	n/a
2968.694	n/a	REC_WORD	1484347	wordpools/wasnorm_wordpool.txt	LTP149	ltpFR	1	14	1	FACTORY	548	n/a	n/a	0	n/a	n/a	n/a	n/a	n/a
2970.694	n/a	REC_WORD	1485347	wordpools/wasnorm_wordpool.txt	LTP149	ltpFR	1	14	1	PRISON	1127	n/a	n/a	1	n/a	n/a	n/a	n/a	n/a
2976.182	n/a	REC_WORD	1488091	wordpools/wasnorm_wordpool.txt	LTP149	ltpFR	1	14	1	PLUM	1090	n/a	n/a	1	n/a	n/a	n/a	n/a	n/a
2977.648	n/a	REC_WORD	1488824	wordpools/wasnorm_wordpool.txt	LTP149	ltpFR	1	14	1	TONGUE	1479	n/a	n/a	1	n/a	n/a	n/a	n/a	n/a
2980.164	n/a	REC_WORD	1490082	wordpools/wasnorm_wordpool.txt	LTP149	ltpFR	1	14	1	BELL	118	n/a	n/a	0	n/a	n/a	n/a	n/a	n/a
2981.684	n/a	REC_WORD	1490842	wordpools/wasnorm_wordpool.txt	LTP149	ltpFR	1	14	1	SPIT	1354	n/a	n/a	0	n/a	n/a	n/a	n/a	n/a
2984.822	n/a	REC_WORD	1492411	wordpools/wasnorm_wordpool.txt	LTP149	ltpFR	1	14	1	HANDCUFFS	685	n/a	n/a	0	n/a	n/a	n/a	n/a	n/a
2989.882	n/a	REC_WORD	1494941	wordpools/wasnorm_wordpool.txt	LTP149	ltpFR	1	14	1	PENDULUM	1043	n/a	n/a	0	n/a	n/a	n/a	n/a	n/a
2996.108	n/a	REC_WORD	1498054	wordpools/wasnorm_wordpool.txt	LTP149	ltpFR	1	14	1	POOL	1103	n/a	n/a	0	n/a	n/a	n/a	n/a	n/a
2998.812	n/a	REC_WORD	1499406	wordpools/wasnorm_wordpool.txt	LTP149	ltpFR	1	14	1	YOUTH	1634	n/a	n/a	1	n/a	n/a	n/a	n/a	n/a
3006.126	n/a	REC_WORD	1503063	wordpools/wasnorm_wordpool.txt	LTP149	ltpFR	1	14	1	CHILD	299	n/a	n/a	1	n/a	n/a	n/a	n/a	n/a
3043.302	n/a	WORD	1521651	wordpools/wasnorm_wordpool.txt	LTP149	ltpFR	1	15	1	ARM	38	n/a	n/a	1	0.422607421875	0.5869140625	0	lower	amplitud.ttf
3047.15	n/a	WORD	1523575	wordpools/wasnorm_wordpool.txt	LTP149	ltpFR	1	15	1	CORK	380	n/a	n/a	0	0.422607421875	0.5869140625	0	lower	amplitud.ttf
3051.124	n/a	WORD	1525562	wordpools/wasnorm_wordpool.txt	LTP149	ltpFR	1	15	0	TUNA	1518	n/a	n/a	1	0.57763671875	0.412841796875	1	upper	zerothre.ttf
3055.182	n/a	WORD	1527591	wordpools/wasnorm_wordpool.txt	LTP149	ltpFR	1	15	0	MUSHROOM	934	n/a	n/a	1	0.57763671875	0.412841796875	1	upper	zerothre.ttf
3059.322	n/a	WORD	1529661	wordpools/wasnorm_wordpool.txt	LTP149	ltpFR	1	15	0	SPINACH	1352	n/a	n/a	1	0.57763671875	0.412841796875	1	upper	zerothre.ttf
3063.402	n/a	WORD	1531701	wordpools/wasnorm_wordpool.txt	LTP149	ltpFR	1	15	0	ELK	526	n/a	n/a	1	0.57763671875	0.412841796875	1	upper	zerothre.ttf
3067.428	n/a	WORD	1533714	wordpools/wasnorm_wordpool.txt	LTP149	ltpFR	1	15	1	EWE	542	n/a	n/a	0	0.422607421875	0.5869140625	0	lower	amplitud.ttf
3071.268	n/a	WORD	1535634	wordpools/wasnorm_wordpool.txt	LTP149	ltpFR	1	15	1	FIST	572	n/a	n/a	0	0.422607421875	0.5869140625	0	lower	amplitud.ttf
3075.442	n/a	WORD	1537721	wordpools/wasnorm_wordpool.txt	LTP149	ltpFR	1	15	1	WEED	1599	n/a	n/a	1	0.422607421875	0.5869140625	0	lower	amplitud.ttf
3079.44	n/a	WORD	1539720	wordpools/wasnorm_wordpool.txt	LTP149	ltpFR	1	15	1	CALCULATOR	220	n/a	n/a	0	0.422607421875	0.5869140625	0	lower	amplitud.ttf
3083.572	n/a	WORD	1541786	wordpools/wasnorm_wordpool.txt	LTP149	ltpFR	1	15	0	CEILING	265	n/a	n/a	1	0.57763671875	0.412841796875	1	upper	zerothre.ttf
3087.572	n/a	WORD	1543786	wordpools/wasnorm_wordpool.txt	LTP149	ltpFR	1	15	0	MERMAID	887	n/a	n/a	1	0.57763671875	0.412841796875	1	upper	zerothre.ttf
3091.552	n/a	WORD	1545776	wordpools/wasnorm_wordpool.txt	LTP149	ltpFR	1	15	0	FLOWER	584	n/a	n/a	0	0.57763671875	0.412841796875	1	upper	zerothre.ttf
3095.426	n/a	WORD	1547713	wordpools/wasnorm_wordpool.txt	LTP149	ltpFR	1	15	0	COURSE	390	n/a	n/a	1	0.57763671875	0.412841796875	1	upper	zerothre.ttf
3099.276	n/a	WORD	1549638	wordpools/wasnorm_wordpool.txt	LTP149	ltpFR	1	15	1	WALLET	1583	n/a	n/a	0	0.422607421875	0.5869140625	0	lower	amplitud.ttf
3103.108	n/a	WORD	1551554	wordpools/wasnorm_wordpool.txt	LTP149	ltpFR	1	15	1	COIN	343	n/a	n/a	0	0.422607421875	0.5869140625	0	lower	amplitud.ttf
3108.782	n/a	REC_START	1554391	n/a	LTP149	ltpFR	1	15	n/a	n/a	n/a	n/a	n/a	n/a	n/a	n/a	n/a	n/a	n/a
3110.322	n/a	REC_WORD	1555161	wordpools/wasnorm_wordpool.txt	LTP149	ltpFR	1	15	1	WALLET	1583	n/a	n/a	0	n/a	n/a	n/a	n/a	n/a
3111.2	n/a	REC_WORD	1555600	wordpools/wasnorm_wordpool.txt	LTP149	ltpFR	1	15	1	COIN	343	n/a	n/a	0	n/a	n/a	n/a	n/a	n/a
3113.596	n/a	REC_WORD	1556798	wordpools/wasnorm_wordpool.txt	LTP149	ltpFR	1	15	0	COURSE	390	n/a	n/a	1	n/a	n/a	n/a	n/a	n/a
3116.184	n/a	REC_WORD	1558092	wordpools/wasnorm_wordpool.txt	LTP149	ltpFR	1	15	1	CORK	380	n/a	n/a	0	n/a	n/a	n/a	n/a	n/a
3117.286	n/a	REC_WORD	1558643	wordpools/wasnorm_wordpool.txt	LTP149	ltpFR	1	15	1	ARM	38	n/a	n/a	1	n/a	n/a	n/a	n/a	n/a
3118.988	n/a	REC_WORD	1559494	wordpools/wasnorm_wordpool.txt	LTP149	ltpFR	1	15	0	SPINACH	1352	n/a	n/a	1	n/a	n/a	n/a	n/a	n/a
3120.14	n/a	REC_WORD	1560070	wordpools/wasnorm_wordpool.txt	LTP149	ltpFR	1	15	0	MUSHROOM	934	n/a	n/a	1	n/a	n/a	n/a	n/a	n/a
3122.34	n/a	REC_WORD	1561170	wordpools/wasnorm_wordpool.txt	LTP149	ltpFR	1	15	1	WEED	1599	n/a	n/a	1	n/a	n/a	n/a	n/a	n/a
3128.812	n/a	REC_WORD	1564406	wordpools/wasnorm_wordpool.txt	LTP149	ltpFR	1	15	0	FLOWER	584	n/a	n/a	0	n/a	n/a	n/a	n/a	n/a
3136.968	n/a	REC_WORD	1568484	wordpools/wasnorm_wordpool.txt	LTP149	ltpFR	1	15	1	WALLET	1583	n/a	n/a	0	n/a	n/a	n/a	n/a	n/a
3137.732	n/a	REC_WORD	1568866	wordpools/wasnorm_wordpool.txt	LTP149	ltpFR	1	15	1	COIN	343	n/a	n/a	0	n/a	n/a	n/a	n/a	n/a
3141.808	n/a	REC_WORD	1570904	wordpools/wasnorm_wordpool.txt	LTP149	ltpFR	1	15	0	MERMAID	887	n/a	n/a	1	n/a	n/a	n/a	n/a	n/a
3152.908	n/a	REC_WORD	1576454	wordpools/wasnorm_wordpool.txt	LTP149	ltpFR	1	15	0	TUNA	1518	n/a	n/a	1	n/a	n/a	n/a	n/a	n/a
3174.844	n/a	REC_WORD	1587422	wordpools/wasnorm_wordpool.txt	LTP149	ltpFR	1	15	1	FIST	572	n/a	n/a	0	n/a	n/a	n/a	n/a	n/a
3190.174	n/a	WORD	1595087	wordpools/wasnorm_wordpool.txt	LTP149	ltpFR	1	16	-1	SLIDE	1326	n/a	n/a	-1	1.0	1.0	1	upper	Verdana.ttf
3194.014	n/a	WORD	1597007	wordpools/wasnorm_wordpool.txt	LTP149	ltpFR	1	16	-1	KEY	773	n/a	n/a	-1	1.0	1.0	1	upper	Verdana.ttf
3197.978	n/a	WORD	1598989	wordpools/wasnorm_wordpool.txt	LTP149	ltpFR	1	16	-1	SKELETON	1314	n/a	n/a	-1	1.0	1.0	1	upper	Verdana.ttf
3201.994	n/a	WORD	1600997	wordpools/wasnorm_wordpool.txt	LTP149	ltpFR	1	16	-1	ROBE	1198	n/a	n/a	-1	1.0	1.0	1	upper	Verdana.ttf
3206.002	n/a	WORD	1603001	wordpools/wasnorm_wordpool.txt	LTP149	ltpFR	1	16	-1	COCOON	339	n/a	n/a	-1	1.0	1.0	1	upper	Verdana.ttf
3209.95	n/a	WORD	1604975	wordpools/wasnorm_wordpool.txt	LTP149	ltpFR	1	16	-1	KNIGHT	786	n/a	n/a	-1	1.0	1.0	1	upper	Verdana.ttf
3214.024	n/a	WORD	1607012	wordpools/wasnorm_wordpool.txt	LTP149	ltpFR	1	16	-1	BROOK	177	n/a	n/a	-1	1.0	1.0	1	upper	Verdana.ttf
3217.898	n/a	WORD	1608949	wordpools/wasnorm_wordpool.txt	LTP149	ltpFR	1	16	-1	VENT	1556	n/a	n/a	-1	1.0	1.0	1	upper	Verdana.ttf
3222.04	n/a	WORD	1611020	wordpools/wasnorm_wordpool.txt	LTP149	ltpFR	1	16	-1	DICE	461	n/a	n/a	-1	1.0	1.0	1	upper	Verdana.ttf
3226.214	n/a	WORD	1613107	wordpools/wasnorm_wordpool.txt	LTP149	ltpFR	1	16	-1	SEA	1259	n/a	n/a	-1	1.0	1.0	1	upper	Verdana.ttf
3230.36	n/a	WORD	1615180	wordpools/wasnorm_wordpool.txt	LTP149	ltpFR	1	16	-1	SWIMMER	1420	n/a	n/a	-1	1.0	1.0	1	upper	Verdana.ttf
3234.368	n/a	WORD	1617184	wordpools/wasnorm_wordpool.txt	LTP149	ltpFR	1	16	-1	SWORD	1423	n/a	n/a	-1	1.0	1.0	1	upper	Verdana.ttf
3238.326	n/a	WORD	1619163	wordpools/wasnorm_wordpool.txt	LTP149	ltpFR	1	16	-1	LUNG	850	n/a	n/a	-1	1.0	1.0	1	upper	Verdana.ttf
3242.4	n/a	WORD	1621200	wordpools/wasnorm_wordpool.txt	LTP149	ltpFR	1	16	-1	PIER	1063	n/a	n/a	-1	1.0	1.0	1	upper	Verdana.ttf
3246.456	n/a	WORD	1623228	wordpools/wasnorm_wordpool.txt	LTP149	ltpFR	1	16	-1	STUDENT	1395	n/a	n/a	-1	1.0	1.0	1	upper	Verdana.ttf
3250.462	n/a	WORD	1625231	wordpools/wasnorm_wordpool.txt	LTP149	ltpFR	1	16	-1	INSTRUCTOR	741	n/a	n/a	-1	1.0	1.0	1	upper	Verdana.ttf
3256.28	n/a	REC_START	1628140	n/a	LTP149	ltpFR	1	16	n/a	n/a	n/a	n/a	n/a	n/a	n/a	n/a	n/a	n/a	n/a
3258.45	n/a	REC_WORD	1629225	wordpools/wasnorm_wordpool.txt	LTP149	ltpFR	1	16	-1	INSTRUCTOR	741	n/a	n/a	-1	n/a	n/a	n/a	n/a	n/a
3259.628	n/a	REC_WORD	1629814	wordpools/wasnorm_wordpool.txt	LTP149	ltpFR	1	16	-1	STUDENT	1395	n/a	n/a	-1	n/a	n/a	n/a	n/a	n/a
3261.354	n/a	REC_WORD	1630677	wordpools/wasnorm_wordpool.txt	LTP149	ltpFR	1	16	-1	PIER	1063	n/a	n/a	-1	n/a	n/a	n/a	n/a	n/a
3263.498	n/a	REC_WORD	1631749	wordpools/wasnorm_wordpool.txt	LTP149	ltpFR	1	16	-1	SEA	1259	n/a	n/a	-1	n/a	n/a	n/a	n/a	n/a
3266.986	n/a	REC_WORD	1633493	wordpools/wasnorm_wordpool.txt	LTP149	ltpFR	1	16	-1	KEY	773	n/a	n/a	-1	n/a	n/a	n/a	n/a	n/a
3268.108	n/a	REC_WORD	1634054	wordpools/wasnorm_wordpool.txt	LTP149	ltpFR	1	16	-1	SLIDE	1326	n/a	n/a	-1	n/a	n/a	n/a	n/a	n/a
3276.084	n/a	REC_WORD	1638042	wordpools/wasnorm_wordpool.txt	LTP149	ltpFR	1	16	-1	SKELETON	1314	n/a	n/a	-1	n/a	n/a	n/a	n/a	n/a
3277.922	n/a	REC_WORD	1638961	wordpools/wasnorm_wordpool.txt	LTP149	ltpFR	1	16	-1	ROBE	1198	n/a	n/a	-1	n/a	n/a	n/a	n/a	n/a
3279.828	n/a	REC_WORD	1639914	wordpools/wasnorm_wordpool.txt	LTP149	ltpFR	1	16	-1	COCOON	339	n/a	n/a	-1	n/a	n/a	n/a	n/a	n/a
3282.92	n/a	REC_WORD	1641460	wordpools/wasnorm_wordpool.txt	LTP149	ltpFR	1	16	-1	KNIGHT	786	n/a	n/a	-1	n/a	n/a	n/a	n/a	n/a
3285.016	n/a	REC_WORD	1642508	wordpools/wasnorm_wordpool.txt	LTP149	ltpFR	1	16	-1	VENT	1556	n/a	n/a	-1	n/a	n/a	n/a	n/a	n/a
3289.894	n/a	REC_WORD	1644947	wordpools/wasnorm_wordpool.txt	LTP149	ltpFR	1	16	-1	SEA	1259	n/a	n/a	-1	n/a	n/a	n/a	n/a	n/a
3293.69	n/a	REC_WORD	1646845	wordpools/wasnorm_wordpool.txt	LTP149	ltpFR	1	16	-1	SWIMMER	1420	n/a	n/a	-1	n/a	n/a	n/a	n/a	n/a
3298.118	n/a	REC_WORD	1649059	wordpools/wasnorm_wordpool.txt	LTP149	ltpFR	1	16	-1	LUNG	850	n/a	n/a	-1	n/a	n/a	n/a	n/a	n/a
3372.886	n/a	REC_START	1686443	n/a	LTP149	ltpFR	1	1	n/a	n/a	n/a	n/a	n/a	n/a	n/a	n/a	n/a	n/a	n/a
3372.918	n/a	RECOG_LURE	1686459	n/a	LTP149	ltpFR	1	1	n/a	WINDOW	1611	0	2	n/a	n/a	n/a	n/a	n/a	n/a
3374.424	n/a	RECOG_RESP	1687212	n/a	LTP149	ltpFR	1	1	n/a	WINDOW	1611	0	n/a	n/a	n/a	n/a	n/a	n/a	n/a
3376.442	n/a	RECOG_CONF	1688221	n/a	LTP149	ltpFR	1	1	n/a	WINDOW	1611	n/a	2	n/a	n/a	n/a	n/a	n/a	n/a
3377.958	n/a	RECOG_TARGET	1688979	n/a	LTP149	ltpFR	1	1	0	ASTEROID	50	1	4	1	n/a	n/a	n/a	n/a	n/a
3379.05	n/a	RECOG_RESP	1689525	n/a	LTP149	ltpFR	1	1	0	ASTEROID	50	1	n/a	1	n/a	n/a	n/a	n/a	n/a
3380.928	n/a	RECOG_CONF	1690464	n/a	LTP149	ltpFR	1	1	0	ASTEROID	50	n/a	4	1	n/a	n/a	n/a	n/a	n/a
3382.464	n/a	RECOG_LURE	1691232	n/a	LTP149	ltpFR	1	1	n/a	OWNER	993	0	3	n/a	n/a	n/a	n/a	n/a	n/a
3383.34	n/a	RECOG_RESP	1691670	n/a	LTP149	ltpFR	1	1	n/a	OWNER	993	0	n/a	n/a	n/a	n/a	n/a	n/a	n/a
3385.26	n/a	RECOG_CONF	1692630	n/a	LTP149	ltpFR	1	1	n/a	OWNER	993	n/a	3	n/a	n/a	n/a	n/a	n/a	n/a
3386.98	n/a	RECOG_LURE	1693490	n/a	LTP149	ltpFR	1	1	n/a	REGISTER	1180	0	3	n/a	n/a	n/a	n/a	n/a	n/a
3387.884	n/a	RECOG_RESP	1693942	n/a	LTP149	ltpFR	1	1	n/a	REGISTER	1180	0	n/a	n/a	n/a	n/a	n/a	n/a	n/a
3389.184	n/a	RECOG_CONF	1694592	n/a	LTP149	ltpFR	1	1	n/a	REGISTER	1180	n/a	3	n/a	n/a	n/a	n/a	n/a	n/a
3390.83	n/a	RECOG_LURE	1695415	n/a	LTP149	ltpFR	1	1	n/a	SPINE	1353	0	5	n/a	n/a	n/a	n/a	n/a	n/a
3391.792	n/a	RECOG_RESP	1695896	n/a	LTP149	ltpFR	1	1	n/a	SPINE	1353	0	n/a	n/a	n/a	n/a	n/a	n/a	n/a
3393.204	n/a	RECOG_CONF	1696602	n/a	LTP149	ltpFR	1	1	n/a	SPINE	1353	n/a	5	n/a	n/a	n/a	n/a	n/a	n/a
3394.886	n/a	RECOG_TARGET	1697443	n/a	LTP149	ltpFR	1	1	1	DESSERT	453	1	5	n/a	n/a	n/a	n/a	n/a	n/a
3395.914	n/a	RECOG_RESP	1697957	n/a	LTP149	ltpFR	1	1	1	DESSERT	453	1	n/a	n/a	n/a	n/a	n/a	n/a	n/a
3397.162	n/a	RECOG_CONF	1698581	n/a	LTP149	ltpFR	1	1	1	DESSERT	453	n/a	5	n/a	n/a	n/a	n/a	n/a	n/a
3398.744	n/a	RECOG_LURE	1699372	n/a	LTP149	ltpFR	1	1	n/a	TEMPLE	1448	0	3	n/a	n/a	n/a	n/a	n/a	n/a
3399.66	n/a	RECOG_RESP	1699830	n/a	LTP149	ltpFR	1	1	n/a	TEMPLE	1448	0	n/a	n/a	n/a	n/a	n/a	n/a	n/a
3401.068	n/a	RECOG_CONF	1700534	n/a	LTP149	ltpFR	1	1	n/a	TEMPLE	1448	n/a	3	n/a	n/a	n/a	n/a	n/a	n/a
3402.742	n/a	RECOG_TARGET	1701371	n/a	LTP149	ltpFR	1	1	1	PALM	1007	1	5	1	n/a	n/a	n/a	n/a	n/a
3403.722	n/a	RECOG_RESP	1701861	n/a	LTP149	ltpFR	1	1	1	PALM	1007	1	n/a	1	n/a	n/a	n/a	n/a	n/a
3404.946	n/a	RECOG_CONF	1702473	n/a	LTP149	ltpFR	1	1	1	PALM	1007	n/a	5	1	n/a	n/a	n/a	n/a	n/a
3406.724	n/a	RECOG_LURE	1703362	n/a	LTP149	ltpFR	1	1	n/a	CREVICE	405	0	5	n/a	n/a	n/a	n/a	n/a	n/a
3407.61	n/a	RECOG_RESP	1703805	n/a	LTP149	ltpFR	1	1	n/a	CREVICE	405	0	n/a	n/a	n/a	n/a	n/a	n/a	n/a
3408.752	n/a	RECOG_CONF	1704376	n/a	LTP149	ltpFR	1	1	n/a	CREVICE	405	n/a	5	n/a	n/a	n/a	n/a	n/a	n/a
3410.416	n/a	RECOG_TARGET	1705208	n/a	LTP149	ltpFR	1	1	0	KLEENEX	782	1	5	0	n/a	n/a	n/a	n/a	n/a
3411.218	n/a	RECOG_RESP	1705609	n/a	LTP149	ltpFR	1	1	0	KLEENEX	782	1	n/a	0	n/a	n/a	n/a	n/a	n/a
3412.412	n/a	RECOG_CONF	1706206	n/a	LTP149	ltpFR	1	1	0	KLEENEX	782	n/a	5	0	n/a	n/a	n/a	n/a	n/a
3414.09	n/a	RECOG_TARGET	1707045	n/a	LTP149	ltpFR	1	1	1	CALCULATOR	220	0	2	0	n/a	n/a	n/a	n/a	n/a
3414.828	n/a	RECOG_RESP	1707414	n/a	LTP149	ltpFR	1	1	1	CALCULATOR	220	0	n/a	0	n/a	n/a	n/a	n/a	n/a
3416.164	n/a	RECOG_CONF	1708082	n/a	LTP149	ltpFR	1	1	1	CALCULATOR	220	n/a	2	0	n/a	n/a	n/a	n/a	n/a
3417.688	n/a	RECOG_TARGET	1708844	n/a	LTP149	ltpFR	1	1	1	PENDULUM	1043	1	5	0	n/a	n/a	n/a	n/a	n/a
3418.522	n/a	RECOG_RESP	1709261	n/a	LTP149	ltpFR	1	1	1	PENDULUM	1043	1	n/a	0	n/a	n/a	n/a	n/a	n/a
3419.582	n/a	RECOG_CONF	1709791	n/a	LTP149	ltpFR	1	1	1	PENDULUM	1043	n/a	5	0	n/a	n/a	n/a	n/a	n/a
3421.22	n/a	RECOG_LURE	1710610	n/a	LTP149	ltpFR	1	1	n/a	VACUUM	1543	0	5	n/a	n/a	n/a	n/a	n/a	n/a
3421.942	n/a	RECOG_RESP	1710971	n/a	LTP149	ltpFR	1	1	n/a	VACUUM	1543	0	n/a	n/a	n/a	n/a	n/a	n/a	n/a
3423.832	n/a	RECOG_CONF	1711916	n/a	LTP149	ltpFR	1	1	n/a	VACUUM	1543	n/a	5	n/a	n/a	n/a	n/a	n/a	n/a
3425.494	n/a	RECOG_LURE	1712747	n/a	LTP149	ltpFR	1	1	n/a	PALACE	1006	1	3	n/a	n/a	n/a	n/a	n/a	n/a
3427.352	n/a	RECOG_RESP	1713676	n/a	LTP149	ltpFR	1	1	n/a	PALACE	1006	1	n/a	n/a	n/a	n/a	n/a	n/a	n/a
3428.94	n/a	RECOG_CONF	1714470	n/a	LTP149	ltpFR	1	1	n/a	PALACE	1006	n/a	3	n/a	n/a	n/a	n/a	n/a	n/a
3430.508	n/a	RECOG_TARGET	1715254	n/a	LTP149	ltpFR	1	1	-1	STREET	1393	0	2	-1	n/a	n/a	n/a	n/a	n/a
3431.888	n/a	RECOG_RESP	1715944	n/a	LTP149	ltpFR	1	1	-1	STREET	1393	0	n/a	-1	n/a	n/a	n/a	n/a	n/a
3433.324	n/a	RECOG_CONF	1716662	n/a	LTP149	ltpFR	1	1	-1	STREET	1393	n/a	2	-1	n/a	n/a	n/a	n/a	n/a
3434.79	n/a	RECOG_TARGET	1717395	n/a	LTP149	ltpFR	1	1	-1	REPORT	1184	1	5	-1	n/a	n/a	n/a	n/a	n/a
3435.954	n/a	RECOG_RESP	1717977	n/a	LTP149	ltpFR	1	1	-1	REPORT	1184	1	n/a	-1	n/a	n/a	n/a	n/a	n/a
3437.054	n/a	RECOG_CONF	1718527	n/a	LTP149	ltpFR	1	1	-1	REPORT	1184	n/a	5	-1	n/a	n/a	n/a	n/a	n/a
3438.664	n/a	RECOG_TARGET	1719332	n/a	LTP149	ltpFR	1	1	1	RODENT	1204	0	3	1	n/a	n/a	n/a	n/a	n/a
3439.964	n/a	RECOG_RESP	1719982	n/a	LTP149	ltpFR	1	1	1	RODENT	1204	0	n/a	1	n/a	n/a	n/a	n/a	n/a
3441.578	n/a	RECOG_CONF	1720789	n/a	LTP149	ltpFR	1	1	1	RODENT	1204	n/a	3	1	n/a	n/a	n/a	n/a	n/a
3443.056	n/a	RECOG_TARGET	1721528	n/a	LTP149	ltpFR	1	1	1	OLIVE	975	1	5	1	n/a	n/a	n/a	n/a	n/a
3443.706	n/a	RECOG_RESP	1721853	n/a	LTP149	ltpFR	1	1	1	OLIVE	975	1	n/a	1	n/a	n/a	n/a	n/a	n/a
3444.758	n/a	RECOG_CONF	1722379	n/a	LTP149	ltpFR	1	1	1	OLIVE	975	n/a	5	1	n/a	n/a	n/a	n/a	n/a
3446.394	n/a	RECOG_LURE	1723197	n/a	LTP149	ltpFR	1	1	n/a	COUSIN	392	0	5	n/a	n/a	n/a	n/a	n/a	n/a
3447.126	n/a	RECOG_RESP	1723563	n/a	LTP149	ltpFR	1	1	n/a	COUSIN	392	0	n/a	n/a	n/a	n/a	n/a	n/a	n/a
3448.1	n/a	RECOG_CONF	1724050	n/a	LTP149	ltpFR	1	1	n/a	COUSIN	392	n/a	5	n/a	n/a	n/a	n/a	n/a	n/a
3449.77	n/a	RECOG_LURE	1724885	n/a	LTP149	ltpFR	1	1	n/a	PACKAGE	997	0	2	n/a	n/a	n/a	n/a	n/a	n/a
3451.058	n/a	RECOG_RESP	1725529	n/a	LTP149	ltpFR	1	1	n/a	PACKAGE	997	0	n/a	n/a	n/a	n/a	n/a	n/a	n/a
3452.292	n/a	RECOG_CONF	1726146	n/a	LTP149	ltpFR	1	1	n/a	PACKAGE	997	n/a	2	n/a	n/a	n/a	n/a	n/a	n/a
3461.132	n/a	REC_START	1730566	n/a	LTP149	ltpFR	1	2	n/a	n/a	n/a	n/a	n/a	n/a	n/a	n/a	n/a	n/a	n/a
3461.166	n/a	RECOG_TARGET	1730583	n/a	LTP149	ltpFR	1	2	0	OPERA	978	1	5	1	n/a	n/a	n/a	n/a	n/a
3462.46	n/a	RECOG_RESP	1731230	n/a	LTP149	ltpFR	1	2	0	OPERA	978	1	n/a	1	n/a	n/a	n/a	n/a	n/a
3463.67	n/a	RECOG_CONF	1731835	n/a	LTP149	ltpFR	1	2	0	OPERA	978	n/a	5	1	n/a	n/a	n/a	n/a	n/a
3465.348	n/a	RECOG_LURE	1732674	n/a	LTP149	ltpFR	1	2	n/a	DETECTIVE	454	0	2	n/a	n/a	n/a	n/a	n/a	n/a
3466.256	n/a	RECOG_RESP	1733128	n/a	LTP149	ltpFR	1	2	n/a	DETECTIVE	454	0	n/a	n/a	n/a	n/a	n/a	n/a	n/a
3467.836	n/a	RECOG_CONF	1733918	n/a	LTP149	ltpFR	1	2	n/a	DETECTIVE	454	n/a	2	n/a	n/a	n/a	n/a	n/a	n/a
3469.324	n/a	RECOG_TARGET	1734662	n/a	LTP149	ltpFR	1	2	1	GROCERIES	663	1	5	0	n/a	n/a	n/a	n/a	n/a
3470.152	n/a	RECOG_RESP	1735076	n/a	LTP149	ltpFR	1	2	1	GROCERIES	663	1	n/a	0	n/a	n/a	n/a	n/a	n/a
3471.284	n/a	RECOG_CONF	1735642	n/a	LTP149	ltpFR	1	2	1	GROCERIES	663	n/a	5	0	n/a	n/a	n/a	n/a	n/a
3473.122	n/a	RECOG_TARGET	1736561	n/a	LTP149	ltpFR	1	2	0	WHISKERS	1605	0	2	0	n/a	n/a	n/a	n/a	n/a
3473.974	n/a	RECOG_RESP	1736987	n/a	LTP149	ltpFR	1	2	0	WHISKERS	1605	0	n/a	0	n/a	n/a	n/a	n/a	n/a
3475.51	n/a	RECOG_CONF	1737755	n/a	LTP149	ltpFR	1	2	0	WHISKERS	1605	n/a	2	0	n/a	n/a	n/a	n/a	n/a
3477.138	n/a	RECOG_TARGET	1738569	n/a	LTP149	ltpFR	1	2	1	SPIT	1354	1	5	0	n/a	n/a	n/a	n/a	n/a
3478.098	n/a	RECOG_RESP	1739049	n/a	LTP149	ltpFR	1	2	1	SPIT	1354	1	n/a	0	n/a	n/a	n/a	n/a	n/a
3479.236	n/a	RECOG_CONF	1739618	n/a	LTP149	ltpFR	1	2	1	SPIT	1354	n/a	5	0	n/a	n/a	n/a	n/a	n/a
3480.76	n/a	RECOG_TARGET	1740380	n/a	LTP149	ltpFR	1	2	0	CEILING	265	1	5	1	n/a	n/a	n/a	n/a	n/a
3481.69	n/a	RECOG_RESP	1740845	n/a	LTP149	ltpFR	1	2	0	CEILING	265	1	n/a	1	n/a	n/a	n/a	n/a	n/a
3482.758	n/a	RECOG_CONF	1741379	n/a	LTP149	ltpFR	1	2	0	CEILING	265	n/a	5	1	n/a	n/a	n/a	n/a	n/a
3484.516	n/a	RECOG_TARGET	1742258	n/a	LTP149	ltpFR	1	2	1	RACCOON	1153	0	4	1	n/a	n/a	n/a	n/a	n/a
3485.818	n/a	RECOG_RESP	1742909	n/a	LTP149	ltpFR	1	2	1	RACCOON	1153	0	n/a	1	n/a	n/a	n/a	n/a	n/a
3486.922	n/a	RECOG_CONF	1743461	n/a	LTP149	ltpFR	1	2	1	RACCOON	1153	n/a	4	1	n/a	n/a	n/a	n/a	n/a
3488.582	n/a	RECOG_LURE	1744291	n/a	LTP149	ltpFR	1	2	n/a	HEADBAND	696	1	1	n/a	n/a	n/a	n/a	n/a	n/a
3489.53	n/a	RECOG_RESP	1744765	n/a	LTP149	ltpFR	1	2	n/a	HEADBAND	696	1	n/a	n/a	n/a	n/a	n/a	n/a	n/a
3491.39	n/a	RECOG_CONF	1745695	n/a	LTP149	ltpFR	1	2	n/a	HEADBAND	696	n/a	1	n/a	n/a	n/a	n/a	n/a	n/a
3492.948	n/a	RECOG_LURE	1746474	n/a	LTP149	ltpFR	1	2	n/a	RACK	1154	0	1	n/a	n/a	n/a	n/a	n/a	n/a
3494.528	n/a	RECOG_RESP	1747264	n/a	LTP149	ltpFR	1	2	n/a	RACK	1154	0	n/a	n/a	n/a	n/a	n/a	n/a	n/a
3496.07	n/a	RECOG_CONF	1748035	n/a	LTP149	ltpFR	1	2	n/a	RACK	1154	n/a	1	n/a	n/a	n/a	n/a	n/a	n/a
3497.538	n/a	RECOG_LURE	1748769	n/a	LTP149	ltpFR	1	2	n/a	SAW	1239	0	3	n/a	n/a	n/a	n/a	n/a	n/a
3498.93	n/a	RECOG_RESP	1749465	n/a	LTP149	ltpFR	1	2	n/a	SAW	1239	0	n/a	n/a	n/a	n/a	n/a	n/a	n/a
3499.948	n/a	RECOG_CONF	1749974	n/a	LTP149	ltpFR	1	2	n/a	SAW	1239	n/a	3	n/a	n/a	n/a	n/a	n/a	n/a
3501.662	n/a	RECOG_TARGET	1750831	n/a	LTP149	ltpFR	1	2	0	POSSUM	1112	1	5	0	n/a	n/a	n/a	n/a	n/a
3502.62	n/a	RECOG_RESP	1751310	n/a	LTP149	ltpFR	1	2	0	POSSUM	1112	1	n/a	0	n/a	n/a	n/a	n/a	n/a
3503.692	n/a	RECOG_CONF	1751846	n/a	LTP149	ltpFR	1	2	0	POSSUM	1112	n/a	5	0	n/a	n/a	n/a	n/a	n/a
3505.502	n/a	RECOG_LURE	1752751	n/a	LTP149	ltpFR	1	2	n/a	LADY	794	0	5	n/a	n/a	n/a	n/a	n/a	n/a
3506.534	n/a	RECOG_RESP	1753267	n/a	LTP149	ltpFR	1	2	n/a	LADY	794	0	n/a	n/a	n/a	n/a	n/a	n/a	n/a
3507.706	n/a	RECOG_CONF	1753853	n/a	LTP149	ltpFR	1	2	n/a	LADY	794	n/a	5	n/a	n/a	n/a	n/a	n/a	n/a
3509.244	n/a	RECOG_TARGET	1754622	n/a	LTP149	ltpFR	1	2	-1	STAPLER	1372	1	5	-1	n/a	n/a	n/a	n/a	n/a
3509.984	n/a	RECOG_RESP	1754992	n/a	LTP149	ltpFR	1	2	-1	STAPLER	1372	1	n/a	-1	n/a	n/a	n/a	n/a	n/a
3511.048	n/a	RECOG_CONF	1755524	n/a	LTP149	ltpFR	1	2	-1	STAPLER	1372	n/a	5	-1	n/a	n/a	n/a	n/a	n/a
3512.592	n/a	RECOG_TARGET	1756296	n/a	LTP149	ltpFR	1	2	-1	PREDATOR	1120	1	5	-1	n/a	n/a	n/a	n/a	n/a
3513.388	n/a	RECOG_RESP	1756694	n/a	LTP149	ltpFR	1	2	-1	PREDATOR	1120	1	n/a	-1	n/a	n/a	n/a	n/a	n/a
3514.452	n/a	RECOG_CONF	1757226	n/a	LTP149	ltpFR	1	2	-1	PREDATOR	1120	n/a	5	-1	n/a	n/a	n/a	n/a	n/a
3516.058	n/a	RECOG_TARGET	1758029	n/a	LTP149	ltpFR	1	2	1	PLUM	1090	1	5	1	n/a	n/a	n/a	n/a	n/a
3516.768	n/a	RECOG_RESP	1758384	n/a	LTP149	ltpFR	1	2	1	PLUM	1090	1	n/a	1	n/a	n/a	n/a	n/a	n/a
3517.75	n/a	RECOG_CONF	1758875	n/a	LTP149	ltpFR	1	2	1	PLUM	1090	n/a	5	1	n/a	n/a	n/a	n/a	n/a
3519.548	n/a	RECOG_LURE	1759774	n/a	LTP149	ltpFR	1	2	n/a	MONK	910	0	5	n/a	n/a	n/a	n/a	n/a	n/a
3520.268	n/a	RECOG_RESP	1760134	n/a	LTP149	ltpFR	1	2	n/a	MONK	910	0	n/a	n/a	n/a	n/a	n/a	n/a	n/a
3521.206	n/a	RECOG_CONF	1760603	n/a	LTP149	ltpFR	1	2	n/a	MONK	910	n/a	5	n/a	n/a	n/a	n/a	n/a	n/a
3523.014	n/a	RECOG_LURE	1761507	n/a	LTP149	ltpFR	1	2	n/a	VENUS	1557	0	5	n/a	n/a	n/a	n/a	n/a	n/a
3524.126	n/a	RECOG_RESP	1762063	n/a	LTP149	ltpFR	1	2	n/a	VENUS	1557	0	n/a	n/a	n/a	n/a	n/a	n/a	n/a
3525.194	n/a	RECOG_CONF	1762597	n/a	LTP149	ltpFR	1	2	n/a	VENUS	1557	n/a	5	n/a	n/a	n/a	n/a	n/a	n/a
3526.904	n/a	RECOG_LURE	1763452	n/a	LTP149	ltpFR	1	2	n/a	MOVIE	927	0	3	n/a	n/a	n/a	n/a	n/a	n/a
3527.93	n/a	RECOG_RESP	1763965	n/a	LTP149	ltpFR	1	2	n/a	MOVIE	927	0	n/a	n/a	n/a	n/a	n/a	n/a	n/a
3529.284	n/a	RECOG_CONF	1764642	n/a	LTP149	ltpFR	1	2	n/a	MOVIE	927	n/a	3	n/a	n/a	n/a	n/a	n/a	n/a
3530.944	n/a	RECOG_LURE	1765472	n/a	LTP149	ltpFR	1	2	n/a	BRACES	164	0	5	n/a	n/a	n/a	n/a	n/a	n/a
3531.878	n/a	RECOG_RESP	1765939	n/a	LTP149	ltpFR	1	2	n/a	BRACES	164	0	n/a	n/a	n/a	n/a	n/a	n/a	n/a
3532.826	n/a	RECOG_CONF	1766413	n/a	LTP149	ltpFR	1	2	n/a	BRACES	164	n/a	5	n/a	n/a	n/a	n/a	n/a	n/a
3534.494	n/a	RECOG_TARGET	1767247	n/a	LTP149	ltpFR	1	2	1	SALAD	1224	1	5	0	n/a	n/a	n/a	n/a	n/a
3535.398	n/a	RECOG_RESP	1767699	n/a	LTP149	ltpFR	1	2	1	SALAD	1224	1	n/a	0	n/a	n/a	n/a	n/a	n/a
3536.438	n/a	RECOG_CONF	1768219	n/a	LTP149	ltpFR	1	2	1	SALAD	1224	n/a	5	0	n/a	n/a	n/a	n/a	n/a
3548.528	n/a	REC_START	1774264	n/a	LTP149	ltpFR	1	3	n/a	n/a	n/a	n/a	n/a	n/a	n/a	n/a	n/a	n/a	n/a
3548.564	n/a	RECOG_TARGET	1774282	n/a	LTP149	ltpFR	1	3	0	BRAKE	166	0	3	0	n/a	n/a	n/a	n/a	n/a
3549.452	n/a	RECOG_RESP	1774726	n/a	LTP149	ltpFR	1	3	0	BRAKE	166	0	n/a	0	n/a	n/a	n/a	n/a	n/a
3551.536	n/a	RECOG_CONF	1775768	n/a	LTP149	ltpFR	1	3	0	BRAKE	166	n/a	3	0	n/a	n/a	n/a	n/a	n/a
3553.048	n/a	RECOG_LURE	1776524	n/a	LTP149	ltpFR	1	3	n/a	VALLEY	1545	0	5	n/a	n/a	n/a	n/a	n/a	n/a
3554.198	n/a	RECOG_RESP	1777099	n/a	LTP149	ltpFR	1	3	n/a	VALLEY	1545	0	n/a	n/a	n/a	n/a	n/a	n/a	n/a
3555.144	n/a	RECOG_CONF	1777572	n/a	LTP149	ltpFR	1	3	n/a	VALLEY	1545	n/a	5	n/a	n/a	n/a	n/a	n/a	n/a
3556.728	n/a	RECOG_TARGET	1778364	n/a	LTP149	ltpFR	1	3	0	ANCHOR	21	1	5	1	n/a	n/a	n/a	n/a	n/a
3557.698	n/a	RECOG_RESP	1778849	n/a	LTP149	ltpFR	1	3	0	ANCHOR	21	1	n/a	1	n/a	n/a	n/a	n/a	n/a
3558.798	n/a	RECOG_CONF	1779399	n/a	LTP149	ltpFR	1	3	0	ANCHOR	21	n/a	5	1	n/a	n/a	n/a	n/a	n/a
3560.568	n/a	RECOG_LURE	1780284	n/a	LTP149	ltpFR	1	3	n/a	CAPTIVE	240	0	5	n/a	n/a	n/a	n/a	n/a	n/a
3561.548	n/a	RECOG_RESP	1780774	n/a	LTP149	ltpFR	1	3	n/a	CAPTIVE	240	0	n/a	n/a	n/a	n/a	n/a	n/a	n/a
3562.554	n/a	RECOG_CONF	1781277	n/a	LTP149	ltpFR	1	3	n/a	CAPTIVE	240	n/a	5	n/a	n/a	n/a	n/a	n/a	n/a
3564.152	n/a	RECOG_TARGET	1782076	n/a	LTP149	ltpFR	1	3	-1	FEAST	556	1	5	-1	n/a	n/a	n/a	n/a	n/a
3564.906	n/a	RECOG_RESP	1782453	n/a	LTP149	ltpFR	1	3	-1	FEAST	556	1	n/a	-1	n/a	n/a	n/a	n/a	n/a
3565.984	n/a	RECOG_CONF	1782992	n/a	LTP149	ltpFR	1	3	-1	FEAST	556	n/a	5	-1	n/a	n/a	n/a	n/a	n/a
3567.718	n/a	RECOG_TARGET	1783859	n/a	LTP149	ltpFR	1	3	-1	SPONGE	1355	1	5	-1	n/a	n/a	n/a	n/a	n/a
3568.506	n/a	RECOG_RESP	1784253	n/a	LTP149	ltpFR	1	3	-1	SPONGE	1355	1	n/a	-1	n/a	n/a	n/a	n/a	n/a
3569.47	n/a	RECOG_CONF	1784735	n/a	LTP149	ltpFR	1	3	-1	SPONGE	1355	n/a	5	-1	n/a	n/a	n/a	n/a	n/a
3571.032	n/a	RECOG_TARGET	1785516	n/a	LTP149	ltpFR	1	3	1	FLASK	576	1	5	0	n/a	n/a	n/a	n/a	n/a
3572.194	n/a	RECOG_RESP	1786097	n/a	LTP149	ltpFR	1	3	1	FLASK	576	1	n/a	0	n/a	n/a	n/a	n/a	n/a
3573.248	n/a	RECOG_CONF	1786624	n/a	LTP149	ltpFR	1	3	1	FLASK	576	n/a	5	0	n/a	n/a	n/a	n/a	n/a
3574.89	n/a	RECOG_TARGET	1787445	n/a	LTP149	ltpFR	1	3	0	CROW	414	1	5	0	n/a	n/a	n/a	n/a	n/a
3575.796	n/a	RECOG_RESP	1787898	n/a	LTP149	ltpFR	1	3	0	CROW	414	1	n/a	0	n/a	n/a	n/a	n/a	n/a
3576.87	n/a	RECOG_CONF	1788435	n/a	LTP149	ltpFR	1	3	0	CROW	414	n/a	5	0	n/a	n/a	n/a	n/a	n/a
3578.372	n/a	RECOG_TARGET	1789186	n/a	LTP149	ltpFR	1	3	-1	CASH	252	1	5	-1	n/a	n/a	n/a	n/a	n/a
3579.23	n/a	RECOG_RESP	1789615	n/a	LTP149	ltpFR	1	3	-1	CASH	252	1	n/a	-1	n/a	n/a	n/a	n/a	n/a
3580.3	n/a	RECOG_CONF	1790150	n/a	LTP149	ltpFR	1	3	-1	CASH	252	n/a	5	-1	n/a	n/a	n/a	n/a	n/a
3581.938	n/a	RECOG_LURE	1790969	n/a	LTP149	ltpFR	1	3	n/a	OUTDOORS	987	0	5	n/a	n/a	n/a	n/a	n/a	n/a
3582.69	n/a	RECOG_RESP	1791345	n/a	LTP149	ltpFR	1	3	n/a	OUTDOORS	987	0	n/a	n/a	n/a	n/a	n/a	n/a	n/a
3583.74	n/a	RECOG_CONF	1791870	n/a	LTP149	ltpFR	1	3	n/a	OUTDOORS	987	n/a	5	n/a	n/a	n/a	n/a	n/a	n/a
3585.386	n/a	RECOG_LURE	1792693	n/a	LTP149	ltpFR	1	3	n/a	CANDY	230	0	4	n/a	n/a	n/a	n/a	n/a	n/a
3586.678	n/a	RECOG_RESP	1793339	n/a	LTP149	ltpFR	1	3	n/a	CANDY	230	0	n/a	n/a	n/a	n/a	n/a	n/a	n/a
3587.756	n/a	RECOG_CONF	1793878	n/a	LTP149	ltpFR	1	3	n/a	CANDY	230	n/a	4	n/a	n/a	n/a	n/a	n/a	n/a
3589.46	n/a	RECOG_TARGET	1794730	n/a	LTP149	ltpFR	1	3	-1	SWIMMER	1420	1	5	-1	n/a	n/a	n/a	n/a	n/a
3590.226	n/a	RECOG_RESP	1795113	n/a	LTP149	ltpFR	1	3	-1	SWIMMER	1420	1	n/a	-1	n/a	n/a	n/a	n/a	n/a
3591.378	n/a	RECOG_CONF	1795689	n/a	LTP149	ltpFR	1	3	-1	SWIMMER	1420	n/a	5	-1	n/a	n/a	n/a	n/a	n/a
3593.194	n/a	RECOG_LURE	1796597	n/a	LTP149	ltpFR	1	3	n/a	WIFE	1609	0	5	n/a	n/a	n/a	n/a	n/a	n/a
3593.916	n/a	RECOG_RESP	1796958	n/a	LTP149	ltpFR	1	3	n/a	WIFE	1609	0	n/a	n/a	n/a	n/a	n/a	n/a	n/a
3594.896	n/a	RECOG_CONF	1797448	n/a	LTP149	ltpFR	1	3	n/a	WIFE	1609	n/a	5	n/a	n/a	n/a	n/a	n/a	n/a
3596.558	n/a	RECOG_TARGET	1798279	n/a	LTP149	ltpFR	1	3	-1	FIREPLACE	570	0	5	-1	n/a	n/a	n/a	n/a	n/a
3597.552	n/a	RECOG_RESP	1798776	n/a	LTP149	ltpFR	1	3	-1	FIREPLACE	570	0	n/a	-1	n/a	n/a	n/a	n/a	n/a
3598.578	n/a	RECOG_CONF	1799289	n/a	LTP149	ltpFR	1	3	-1	FIREPLACE	570	n/a	5	-1	n/a	n/a	n/a	n/a	n/a
3600.308	n/a	RECOG_TARGET	1800154	n/a	LTP149	ltpFR	1	3	1	CARDINAL	244	1	5	1	n/a	n/a	n/a	n/a	n/a
3601.408	n/a	RECOG_RESP	1800704	n/a	LTP149	ltpFR	1	3	1	CARDINAL	244	1	n/a	1	n/a	n/a	n/a	n/a	n/a
3602.496	n/a	RECOG_CONF	1801248	n/a	LTP149	ltpFR	1	3	1	CARDINAL	244	n/a	5	1	n/a	n/a	n/a	n/a	n/a
3604.066	n/a	RECOG_LURE	1802033	n/a	LTP149	ltpFR	1	3	n/a	JUVENILE	767	0	3	n/a	n/a	n/a	n/a	n/a	n/a
3604.946	n/a	RECOG_RESP	1802473	n/a	LTP149	ltpFR	1	3	n/a	JUVENILE	767	0	n/a	n/a	n/a	n/a	n/a	n/a	n/a
3606.25	n/a	RECOG_CONF	1803125	n/a	LTP149	ltpFR	1	3	n/a	JUVENILE	767	n/a	3	n/a	n/a	n/a	n/a	n/a	n/a
3607.78	n/a	RECOG_LURE	1803890	n/a	LTP149	ltpFR	1	3	n/a	CEMETERY	269	0	4	n/a	n/a	n/a	n/a	n/a	n/a
3608.936	n/a	RECOG_RESP	1804468	n/a	LTP149	ltpFR	1	3	n/a	CEMETERY	269	0	n/a	n/a	n/a	n/a	n/a	n/a	n/a
3609.972	n/a	RECOG_CONF	1804986	n/a	LTP149	ltpFR	1	3	n/a	CEMETERY	269	n/a	4	n/a	n/a	n/a	n/a	n/a	n/a
3611.596	n/a	RECOG_TARGET	1805798	n/a	LTP149	ltpFR	1	3	0	THERMOMETER	1453	0	4	0	n/a	n/a	n/a	n/a	n/a
3612.844	n/a	RECOG_RESP	1806422	n/a	LTP149	ltpFR	1	3	0	THERMOMETER	1453	0	n/a	0	n/a	n/a	n/a	n/a	n/a
3614.602	n/a	RECOG_CONF	1807301	n/a	LTP149	ltpFR	1	3	0	THERMOMETER	1453	n/a	4	0	n/a	n/a	n/a	n/a	n/a
3616.336	n/a	RECOG_TARGET	1808168	n/a	LTP149	ltpFR	1	3	0	PEARL	1034	1	5	0	n/a	n/a	n/a	n/a	n/a
3617.868	n/a	RECOG_RESP	1808934	n/a	LTP149	ltpFR	1	3	0	PEARL	1034	1	n/a	0	n/a	n/a	n/a	n/a	n/a
3618.818	n/a	RECOG_CONF	1809409	n/a	LTP149	ltpFR	1	3	0	PEARL	1034	n/a	5	0	n/a	n/a	n/a	n/a	n/a
3620.576	n/a	RECOG_LURE	1810288	n/a	LTP149	ltpFR	1	3	n/a	MOWER	928	0	5	n/a	n/a	n/a	n/a	n/a	n/a
3621.432	n/a	RECOG_RESP	1810716	n/a	LTP149	ltpFR	1	3	n/a	MOWER	928	0	n/a	n/a	n/a	n/a	n/a	n/a	n/a
3622.414	n/a	RECOG_CONF	1811207	n/a	LTP149	ltpFR	1	3	n/a	MOWER	928	n/a	5	n/a	n/a	n/a	n/a	n/a	n/a
3631.134	n/a	REC_START	1815567	n/a	LTP149	ltpFR	1	4	n/a	n/a	n/a	n/a	n/a	n/a	n/a	n/a	n/a	n/a	n/a
3631.166	n/a	RECOG_LURE	1815583	n/a	LTP149	ltpFR	1	4	n/a	CITY	314	0	4	n/a	n/a	n/a	n/a	n/a	n/a
3632.012	n/a	RECOG_RESP	1816006	n/a	LTP149	ltpFR	1	4	n/a	CITY	314	0	n/a	n/a	n/a	n/a	n/a	n/a	n/a
3633.118	n/a	RECOG_CONF	1816559	n/a	LTP149	ltpFR	1	4	n/a	CITY	314	n/a	4	n/a	n/a	n/a	n/a	n/a	n/a
3634.754	n/a	RECOG_LURE	1817377	n/a	LTP149	ltpFR	1	4	n/a	ICE	730	0	4	n/a	n/a	n/a	n/a	n/a	n/a
3635.518	n/a	RECOG_RESP	1817759	n/a	LTP149	ltpFR	1	4	n/a	ICE	730	0	n/a	n/a	n/a	n/a	n/a	n/a	n/a
3636.506	n/a	RECOG_CONF	1818253	n/a	LTP149	ltpFR	1	4	n/a	ICE	730	n/a	4	n/a	n/a	n/a	n/a	n/a	n/a
3638.154	n/a	RECOG_TARGET	1819077	n/a	LTP149	ltpFR	1	4	0	TUNA	1518	1	5	1	n/a	n/a	n/a	n/a	n/a
3638.89	n/a	RECOG_RESP	1819445	n/a	LTP149	ltpFR	1	4	0	TUNA	1518	1	n/a	1	n/a	n/a	n/a	n/a	n/a
3640.0	n/a	RECOG_CONF	1820000	n/a	LTP149	ltpFR	1	4	0	TUNA	1518	n/a	5	1	n/a	n/a	n/a	n/a	n/a
3641.536	n/a	RECOG_TARGET	1820768	n/a	LTP149	ltpFR	1	4	0	PERISCOPE	1050	1	5	0	n/a	n/a	n/a	n/a	n/a
3642.364	n/a	RECOG_RESP	1821182	n/a	LTP149	ltpFR	1	4	0	PERISCOPE	1050	1	n/a	0	n/a	n/a	n/a	n/a	n/a
3643.336	n/a	RECOG_CONF	1821668	n/a	LTP149	ltpFR	1	4	0	PERISCOPE	1050	n/a	5	0	n/a	n/a	n/a	n/a	n/a
3645.018	n/a	RECOG_LURE	1822509	n/a	LTP149	ltpFR	1	4	n/a	HANGER	687	0	4	n/a	n/a	n/a	n/a	n/a	n/a
3645.864	n/a	RECOG_RESP	1822932	n/a	LTP149	ltpFR	1	4	n/a	HANGER	687	0	n/a	n/a	n/a	n/a	n/a	n/a	n/a
3646.896	n/a	RECOG_CONF	1823448	n/a	LTP149	ltpFR	1	4	n/a	HANGER	687	n/a	4	n/a	n/a	n/a	n/a	n/a	n/a
3648.41	n/a	RECOG_LURE	1824205	n/a	LTP149	ltpFR	1	4	n/a	OFFICE	972	0	2	n/a	n/a	n/a	n/a	n/a	n/a
3649.328	n/a	RECOG_RESP	1824664	n/a	LTP149	ltpFR	1	4	n/a	OFFICE	972	0	n/a	n/a	n/a	n/a	n/a	n/a	n/a
3650.426	n/a	RECOG_CONF	1825213	n/a	LTP149	ltpFR	1	4	n/a	OFFICE	972	n/a	2	n/a	n/a	n/a	n/a	n/a	n/a
3651.942	n/a	RECOG_LURE	1825971	n/a	LTP149	ltpFR	1	4	n/a	RESTAURANT	1187	1	2	n/a	n/a	n/a	n/a	n/a	n/a
3653.55	n/a	RECOG_RESP	1826775	n/a	LTP149	ltpFR	1	4	n/a	RESTAURANT	1187	1	n/a	n/a	n/a	n/a	n/a	n/a	n/a
3655.21	n/a	RECOG_CONF	1827605	n/a	LTP149	ltpFR	1	4	n/a	RESTAURANT	1187	n/a	2	n/a	n/a	n/a	n/a	n/a	n/a
3656.748	n/a	RECOG_LURE	1828374	n/a	LTP149	ltpFR	1	4	n/a	LADDER	793	1	5	n/a	n/a	n/a	n/a	n/a	n/a
3658.216	n/a	RECOG_RESP	1829108	n/a	LTP149	ltpFR	1	4	n/a	LADDER	793	1	n/a	n/a	n/a	n/a	n/a	n/a	n/a
3659.228	n/a	RECOG_CONF	1829614	n/a	LTP149	ltpFR	1	4	n/a	LADDER	793	n/a	5	n/a	n/a	n/a	n/a	n/a	n/a
3660.74	n/a	RECOG_LURE	1830370	n/a	LTP149	ltpFR	1	4	n/a	PIKE	1067	0	4	n/a	n/a	n/a	n/a	n/a	n/a
3661.976	n/a	RECOG_RESP	1830988	n/a	LTP149	ltpFR	1	4	n/a	PIKE	1067	0	n/a	n/a	n/a	n/a	n/a	n/a	n/a
3663.108	n/a	RECOG_CONF	1831554	n/a	LTP149	ltpFR	1	4	n/a	PIKE	1067	n/a	4	n/a	n/a	n/a	n/a	n/a	n/a
3664.704	n/a	RECOG_TARGET	1832352	n/a	LTP149	ltpFR	1	4	-1	NICKEL	950	0	1	-1	n/a	n/a	n/a	n/a	n/a
3666.34	n/a	RECOG_RESP	1833170	n/a	LTP149	ltpFR	1	4	-1	NICKEL	950	0	n/a	-1	n/a	n/a	n/a	n/a	n/a
3667.846	n/a	RECOG_CONF	1833923	n/a	LTP149	ltpFR	1	4	-1	NICKEL	950	n/a	1	-1	n/a	n/a	n/a	n/a	n/a
3669.312	n/a	RECOG_TARGET	1834656	n/a	LTP149	ltpFR	1	4	-1	PASTRY	1022	1	5	-1	n/a	n/a	n/a	n/a	n/a
3670.65	n/a	RECOG_RESP	1835325	n/a	LTP149	ltpFR	1	4	-1	PASTRY	1022	1	n/a	-1	n/a	n/a	n/a	n/a	n/a
3671.734	n/a	RECOG_CONF	1835867	n/a	LTP149	ltpFR	1	4	-1	PASTRY	1022	n/a	5	-1	n/a	n/a	n/a	n/a	n/a
3673.302	n/a	RECOG_TARGET	1836651	n/a	LTP149	ltpFR	1	4	0	CREATURE	403	1	5	1	n/a	n/a	n/a	n/a	n/a
3674.058	n/a	RECOG_RESP	1837029	n/a	LTP149	ltpFR	1	4	0	CREATURE	403	1	n/a	1	n/a	n/a	n/a	n/a	n/a
3675.13	n/a	RECOG_CONF	1837565	n/a	LTP149	ltpFR	1	4	0	CREATURE	403	n/a	5	1	n/a	n/a	n/a	n/a	n/a
3676.742	n/a	RECOG_TARGET	1838371	n/a	LTP149	ltpFR	1	4	1	GUM	672	1	5	0	n/a	n/a	n/a	n/a	n/a
3677.672	n/a	RECOG_RESP	1838836	n/a	LTP149	ltpFR	1	4	1	GUM	672	1	n/a	0	n/a	n/a	n/a	n/a	n/a
3678.662	n/a	RECOG_CONF	1839331	n/a	LTP149	ltpFR	1	4	1	GUM	672	n/a	5	0	n/a	n/a	n/a	n/a	n/a
3680.26	n/a	RECOG_LURE	1840130	n/a	LTP149	ltpFR	1	4	n/a	BURGLAR	200	0	4	n/a	n/a	n/a	n/a	n/a	n/a
3681.74	n/a	RECOG_RESP	1840870	n/a	LTP149	ltpFR	1	4	n/a	BURGLAR	200	0	n/a	n/a	n/a	n/a	n/a	n/a	n/a
3682.972	n/a	RECOG_CONF	1841486	n/a	LTP149	ltpFR	1	4	n/a	BURGLAR	200	n/a	4	n/a	n/a	n/a	n/a	n/a	n/a
3684.424	n/a	RECOG_TARGET	1842212	n/a	LTP149	ltpFR	1	4	0	LINEN	825	1	5	0	n/a	n/a	n/a	n/a	n/a
3685.208	n/a	RECOG_RESP	1842604	n/a	LTP149	ltpFR	1	4	0	LINEN	825	1	n/a	0	n/a	n/a	n/a	n/a	n/a
3686.266	n/a	RECOG_CONF	1843133	n/a	LTP149	ltpFR	1	4	0	LINEN	825	n/a	5	0	n/a	n/a	n/a	n/a	n/a
3687.898	n/a	RECOG_TARGET	1843949	n/a	LTP149	ltpFR	1	4	0	EDITORIAL	517	1	5	0	n/a	n/a	n/a	n/a	n/a
3688.688	n/a	RECOG_RESP	1844344	n/a	LTP149	ltpFR	1	4	0	EDITORIAL	517	1	n/a	0	n/a	n/a	n/a	n/a	n/a
3690.14	n/a	RECOG_CONF	1845070	n/a	LTP149	ltpFR	1	4	0	EDITORIAL	517	n/a	5	0	n/a	n/a	n/a	n/a	n/a
3691.73	n/a	RECOG_TARGET	1845865	n/a	LTP149	ltpFR	1	4	1	FRIEND	606	1	5	1	n/a	n/a	n/a	n/a	n/a
3692.366	n/a	RECOG_RESP	1846183	n/a	LTP149	ltpFR	1	4	1	FRIEND	606	1	n/a	1	n/a	n/a	n/a	n/a	n/a
3693.434	n/a	RECOG_CONF	1846717	n/a	LTP149	ltpFR	1	4	1	FRIEND	606	n/a	5	1	n/a	n/a	n/a	n/a	n/a
3695.07	n/a	RECOG_LURE	1847535	n/a	LTP149	ltpFR	1	4	n/a	TRIBE	1505	0	5	n/a	n/a	n/a	n/a	n/a	n/a
3695.81	n/a	RECOG_RESP	1847905	n/a	LTP149	ltpFR	1	4	n/a	TRIBE	1505	0	n/a	n/a	n/a	n/a	n/a	n/a	n/a
3696.738	n/a	RECOG_CONF	1848369	n/a	LTP149	ltpFR	1	4	n/a	TRIBE	1505	n/a	5	n/a	n/a	n/a	n/a	n/a	n/a
3698.204	n/a	RECOG_LURE	1849102	n/a	LTP149	ltpFR	1	4	n/a	NEEDLE	941	0	5	n/a	n/a	n/a	n/a	n/a	n/a
3699.072	n/a	RECOG_RESP	1849536	n/a	LTP149	ltpFR	1	4	n/a	NEEDLE	941	0	n/a	n/a	n/a	n/a	n/a	n/a	n/a
3699.988	n/a	RECOG_CONF	1849994	n/a	LTP149	ltpFR	1	4	n/a	NEEDLE	941	n/a	5	n/a	n/a	n/a	n/a	n/a	n/a
3701.594	n/a	RECOG_TARGET	1850797	n/a	LTP149	ltpFR	1	4	-1	STUDENT	1395	1	5	-1	n/a	n/a	n/a	n/a	n/a
3702.304	n/a	RECOG_RESP	1851152	n/a	LTP149	ltpFR	1	4	-1	STUDENT	1395	1	n/a	-1	n/a	n/a	n/a	n/a	n/a
3703.416	n/a	RECOG_CONF	1851708	n/a	LTP149	ltpFR	1	4	-1	STUDENT	1395	n/a	5	-1	n/a	n/a	n/a	n/a	n/a
3713.454	n/a	REC_START	1856727	n/a	LTP149	ltpFR	1	5	n/a	n/a	n/a	n/a	n/a	n/a	n/a	n/a	n/a	n/a	n/a
3713.488	n/a	RECOG_LURE	1856744	n/a	LTP149	ltpFR	1	5	n/a	INTESTINE	742	0	5	n/a	n/a	n/a	n/a	n/a	n/a
3714.418	n/a	RECOG_RESP	1857209	n/a	LTP149	ltpFR	1	5	n/a	INTESTINE	742	0	n/a	n/a	n/a	n/a	n/a	n/a	n/a
3715.484	n/a	RECOG_CONF	1857742	n/a	LTP149	ltpFR	1	5	n/a	INTESTINE	742	n/a	5	n/a	n/a	n/a	n/a	n/a	n/a
3717.082	n/a	RECOG_LURE	1858541	n/a	LTP149	ltpFR	1	5	n/a	PICTURE	1061	0	2	n/a	n/a	n/a	n/a	n/a	n/a
3718.262	n/a	RECOG_RESP	1859131	n/a	LTP149	ltpFR	1	5	n/a	PICTURE	1061	0	n/a	n/a	n/a	n/a	n/a	n/a	n/a
3719.43	n/a	RECOG_CONF	1859715	n/a	LTP149	ltpFR	1	5	n/a	PICTURE	1061	n/a	2	n/a	n/a	n/a	n/a	n/a	n/a
3721.096	n/a	RECOG_LURE	1860548	n/a	LTP149	ltpFR	1	5	n/a	CERAMICS	271	0	5	n/a	n/a	n/a	n/a	n/a	n/a
3722.112	n/a	RECOG_RESP	1861056	n/a	LTP149	ltpFR	1	5	n/a	CERAMICS	271	0	n/a	n/a	n/a	n/a	n/a	n/a	n/a
3723.138	n/a	RECOG_CONF	1861569	n/a	LTP149	ltpFR	1	5	n/a	CERAMICS	271	n/a	5	n/a	n/a	n/a	n/a	n/a	n/a
3724.836	n/a	RECOG_LURE	1862418	n/a	LTP149	ltpFR	1	5	n/a	STOOL	1386	1	2	n/a	n/a	n/a	n/a	n/a	n/a
3726.438	n/a	RECOG_RESP	1863219	n/a	LTP149	ltpFR	1	5	n/a	STOOL	1386	1	n/a	n/a	n/a	n/a	n/a	n/a	n/a
3727.702	n/a	RECOG_CONF	1863851	n/a	LTP149	ltpFR	1	5	n/a	STOOL	1386	n/a	2	n/a	n/a	n/a	n/a	n/a	n/a
3729.468	n/a	RECOG_TARGET	1864734	n/a	LTP149	ltpFR	1	5	0	PRAIRIE	1118	1	5	1	n/a	n/a	n/a	n/a	n/a
3730.754	n/a	RECOG_RESP	1865377	n/a	LTP149	ltpFR	1	5	0	PRAIRIE	1118	1	n/a	1	n/a	n/a	n/a	n/a	n/a
3731.788	n/a	RECOG_CONF	1865894	n/a	LTP149	ltpFR	1	5	0	PRAIRIE	1118	n/a	5	1	n/a	n/a	n/a	n/a	n/a
3733.658	n/a	RECOG_LURE	1866829	n/a	LTP149	ltpFR	1	5	n/a	FUGITIVE	612	0	4	n/a	n/a	n/a	n/a	n/a	n/a
3734.728	n/a	RECOG_RESP	1867364	n/a	LTP149	ltpFR	1	5	n/a	FUGITIVE	612	0	n/a	n/a	n/a	n/a	n/a	n/a	n/a
3735.732	n/a	RECOG_CONF	1867866	n/a	LTP149	ltpFR	1	5	n/a	FUGITIVE	612	n/a	4	n/a	n/a	n/a	n/a	n/a	n/a
3737.316	n/a	RECOG_TARGET	1868658	n/a	LTP149	ltpFR	1	5	1	CIGARETTE	309	1	5	0	n/a	n/a	n/a	n/a	n/a
3738.198	n/a	RECOG_RESP	1869099	n/a	LTP149	ltpFR	1	5	1	CIGARETTE	309	1	n/a	0	n/a	n/a	n/a	n/a	n/a
3739.202	n/a	RECOG_CONF	1869601	n/a	LTP149	ltpFR	1	5	1	CIGARETTE	309	n/a	5	0	n/a	n/a	n/a	n/a	n/a
3740.648	n/a	RECOG_TARGET	1870324	n/a	LTP149	ltpFR	1	5	1	VITAMIN	1574	1	5	0	n/a	n/a	n/a	n/a	n/a
3741.646	n/a	RECOG_RESP	1870823	n/a	LTP149	ltpFR	1	5	1	VITAMIN	1574	1	n/a	0	n/a	n/a	n/a	n/a	n/a
3742.734	n/a	RECOG_CONF	1871367	n/a	LTP149	ltpFR	1	5	1	VITAMIN	1574	n/a	5	0	n/a	n/a	n/a	n/a	n/a
3744.364	n/a	RECOG_TARGET	1872182	n/a	LTP149	ltpFR	1	5	0	UTENSIL	1542	1	5	0	n/a	n/a	n/a	n/a	n/a
3745.06	n/a	RECOG_RESP	1872530	n/a	LTP149	ltpFR	1	5	0	UTENSIL	1542	1	n/a	0	n/a	n/a	n/a	n/a	n/a
3746.258	n/a	RECOG_CONF	1873129	n/a	LTP149	ltpFR	1	5	0	UTENSIL	1542	n/a	5	0	n/a	n/a	n/a	n/a	n/a
3747.646	n/a	RECOG_LURE	1873823	n/a	LTP149	ltpFR	1	5	n/a	SKATE	1313	0	2	n/a	n/a	n/a	n/a	n/a	n/a
3748.586	n/a	RECOG_RESP	1874293	n/a	LTP149	ltpFR	1	5	n/a	SKATE	1313	0	n/a	n/a	n/a	n/a	n/a	n/a	n/a
3749.842	n/a	RECOG_CONF	1874921	n/a	LTP149	ltpFR	1	5	n/a	SKATE	1313	n/a	2	n/a	n/a	n/a	n/a	n/a	n/a
3751.212	n/a	RECOG_TARGET	1875606	n/a	LTP149	ltpFR	1	5	1	SHELTER	1282	1	5	0	n/a	n/a	n/a	n/a	n/a
3752.132	n/a	RECOG_RESP	1876066	n/a	LTP149	ltpFR	1	5	1	SHELTER	1282	1	n/a	0	n/a	n/a	n/a	n/a	n/a
3753.214	n/a	RECOG_CONF	1876607	n/a	LTP149	ltpFR	1	5	1	SHELTER	1282	n/a	5	0	n/a	n/a	n/a	n/a	n/a
3754.894	n/a	RECOG_LURE	1877447	n/a	LTP149	ltpFR	1	5	n/a	CUSTOMER	430	0	3	n/a	n/a	n/a	n/a	n/a	n/a
3756.07	n/a	RECOG_RESP	1878035	n/a	LTP149	ltpFR	1	5	n/a	CUSTOMER	430	0	n/a	n/a	n/a	n/a	n/a	n/a	n/a
3757.354	n/a	RECOG_CONF	1878677	n/a	LTP149	ltpFR	1	5	n/a	CUSTOMER	430	n/a	3	n/a	n/a	n/a	n/a	n/a	n/a
3758.91	n/a	RECOG_TARGET	1879455	n/a	LTP149	ltpFR	1	5	-1	ROBE	1198	1	5	-1	n/a	n/a	n/a	n/a	n/a
3759.708	n/a	RECOG_RESP	1879854	n/a	LTP149	ltpFR	1	5	-1	ROBE	1198	1	n/a	-1	n/a	n/a	n/a	n/a	n/a
3760.768	n/a	RECOG_CONF	1880384	n/a	LTP149	ltpFR	1	5	-1	ROBE	1198	n/a	5	-1	n/a	n/a	n/a	n/a	n/a
3762.482	n/a	RECOG_TARGET	1881241	n/a	LTP149	ltpFR	1	5	1	INMATE	738	1	5	1	n/a	n/a	n/a	n/a	n/a
3763.532	n/a	RECOG_RESP	1881766	n/a	LTP149	ltpFR	1	5	1	INMATE	738	1	n/a	1	n/a	n/a	n/a	n/a	n/a
3764.694	n/a	RECOG_CONF	1882347	n/a	LTP149	ltpFR	1	5	1	INMATE	738	n/a	5	1	n/a	n/a	n/a	n/a	n/a
3766.232	n/a	RECOG_LURE	1883116	n/a	LTP149	ltpFR	1	5	n/a	SUIT	1402	0	1	n/a	n/a	n/a	n/a	n/a	n/a
3767.748	n/a	RECOG_RESP	1883874	n/a	LTP149	ltpFR	1	5	n/a	SUIT	1402	0	n/a	n/a	n/a	n/a	n/a	n/a	n/a
3769.028	n/a	RECOG_CONF	1884514	n/a	LTP149	ltpFR	1	5	n/a	SUIT	1402	n/a	1	n/a	n/a	n/a	n/a	n/a	n/a
3770.538	n/a	RECOG_TARGET	1885269	n/a	LTP149	ltpFR	1	5	-1	INSTRUCTOR	741	1	5	-1	n/a	n/a	n/a	n/a	n/a
3771.388	n/a	RECOG_RESP	1885694	n/a	LTP149	ltpFR	1	5	-1	INSTRUCTOR	741	1	n/a	-1	n/a	n/a	n/a	n/a	n/a
3772.658	n/a	RECOG_CONF	1886329	n/a	LTP149	ltpFR	1	5	-1	INSTRUCTOR	741	n/a	5	-1	n/a	n/a	n/a	n/a	n/a
3774.248	n/a	RECOG_LURE	1887124	n/a	LTP149	ltpFR	1	5	n/a	BEVERAGE	123	0	4	n/a	n/a	n/a	n/a	n/a	n/a
3775.292	n/a	RECOG_RESP	1887646	n/a	LTP149	ltpFR	1	5	n/a	BEVERAGE	123	0	n/a	n/a	n/a	n/a	n/a	n/a	n/a
3776.32	n/a	RECOG_CONF	1888160	n/a	LTP149	ltpFR	1	5	n/a	BEVERAGE	123	n/a	4	n/a	n/a	n/a	n/a	n/a	n/a
3777.978	n/a	RECOG_LURE	1888989	n/a	LTP149	ltpFR	1	5	n/a	CLOUD	328	0	5	n/a	n/a	n/a	n/a	n/a	n/a
3778.922	n/a	RECOG_RESP	1889461	n/a	LTP149	ltpFR	1	5	n/a	CLOUD	328	0	n/a	n/a	n/a	n/a	n/a	n/a	n/a
3779.996	n/a	RECOG_CONF	1889998	n/a	LTP149	ltpFR	1	5	n/a	CLOUD	328	n/a	5	n/a	n/a	n/a	n/a	n/a	n/a
3781.544	n/a	RECOG_TARGET	1890772	n/a	LTP149	ltpFR	1	5	1	CAT	257	1	5	1	n/a	n/a	n/a	n/a	n/a
3782.51	n/a	RECOG_RESP	1891255	n/a	LTP149	ltpFR	1	5	1	CAT	257	1	n/a	1	n/a	n/a	n/a	n/a	n/a
3783.662	n/a	RECOG_CONF	1891831	n/a	LTP149	ltpFR	1	5	1	CAT	257	n/a	5	1	n/a	n/a	n/a	n/a	n/a
3785.286	n/a	RECOG_LURE	1892643	n/a	LTP149	ltpFR	1	5	n/a	PIPE	1073	0	4	n/a	n/a	n/a	n/a	n/a	n/a
3786.27	n/a	RECOG_RESP	1893135	n/a	LTP149	ltpFR	1	5	n/a	PIPE	1073	0	n/a	n/a	n/a	n/a	n/a	n/a	n/a
3787.45	n/a	RECOG_CONF	1893725	n/a	LTP149	ltpFR	1	5	n/a	PIPE	1073	n/a	4	n/a	n/a	n/a	n/a	n/a	n/a
3799.414	n/a	REC_START	1899707	n/a	LTP149	ltpFR	1	6	n/a	n/a	n/a	n/a	n/a	n/a	n/a	n/a	n/a	n/a	n/a
3799.446	n/a	RECOG_LURE	1899723	n/a	LTP149	ltpFR	1	6	n/a	SACK	1220	0	3	n/a	n/a	n/a	n/a	n/a	n/a
3800.41	n/a	RECOG_RESP	1900205	n/a	LTP149	ltpFR	1	6	n/a	SACK	1220	0	n/a	n/a	n/a	n/a	n/a	n/a	n/a
3801.884	n/a	RECOG_CONF	1900942	n/a	LTP149	ltpFR	1	6	n/a	SACK	1220	n/a	3	n/a	n/a	n/a	n/a	n/a	n/a
3803.38	n/a	RECOG_TARGET	1901690	n/a	LTP149	ltpFR	1	6	1	YOUTH	1634	1	5	1	n/a	n/a	n/a	n/a	n/a
3804.142	n/a	RECOG_RESP	1902071	n/a	LTP149	ltpFR	1	6	1	YOUTH	1634	1	n/a	1	n/a	n/a	n/a	n/a	n/a
3805.356	n/a	RECOG_CONF	1902678	n/a	LTP149	ltpFR	1	6	1	YOUTH	1634	n/a	5	1	n/a	n/a	n/a	n/a	n/a
3806.936	n/a	RECOG_LURE	1903468	n/a	LTP149	ltpFR	1	6	n/a	MOUNTAIN	924	1	3	n/a	n/a	n/a	n/a	n/a	n/a
3808.94	n/a	RECOG_RESP	1904470	n/a	LTP149	ltpFR	1	6	n/a	MOUNTAIN	924	1	n/a	n/a	n/a	n/a	n/a	n/a	n/a
3810.126	n/a	RECOG_CONF	1905063	n/a	LTP149	ltpFR	1	6	n/a	MOUNTAIN	924	n/a	3	n/a	n/a	n/a	n/a	n/a	n/a
3811.518	n/a	RECOG_TARGET	1905759	n/a	LTP149	ltpFR	1	6	1	MITTEN	902	1	5	0	n/a	n/a	n/a	n/a	n/a
3813.006	n/a	RECOG_RESP	1906503	n/a	LTP149	ltpFR	1	6	1	MITTEN	902	1	n/a	0	n/a	n/a	n/a	n/a	n/a
3814.108	n/a	RECOG_CONF	1907054	n/a	LTP149	ltpFR	1	6	1	MITTEN	902	n/a	5	0	n/a	n/a	n/a	n/a	n/a
3817.466	n/a	RECOG_TARGET	1908733	n/a	LTP149	ltpFR	1	6	1	ANTENNA	28	1	5	0	n/a	n/a	n/a	n/a	n/a
3819.006	n/a	RECOG_RESP	1909503	n/a	LTP149	ltpFR	1	6	1	ANTENNA	28	1	n/a	0	n/a	n/a	n/a	n/a	n/a
3820.124	n/a	RECOG_CONF	1910062	n/a	LTP149	ltpFR	1	6	1	ANTENNA	28	n/a	5	0	n/a	n/a	n/a	n/a	n/a
3821.824	n/a	RECOG_TARGET	1910912	n/a	LTP149	ltpFR	1	6	1	MAGNET	855	1	5	0	n/a	n/a	n/a	n/a	n/a
3823.304	n/a	RECOG_RESP	1911652	n/a	LTP149	ltpFR	1	6	1	MAGNET	855	1	n/a	0	n/a	n/a	n/a	n/a	n/a
3824.374	n/a	RECOG_CONF	1912187	n/a	LTP149	ltpFR	1	6	1	MAGNET	855	n/a	5	0	n/a	n/a	n/a	n/a	n/a
3826.064	n/a	RECOG_TARGET	1913032	n/a	LTP149	ltpFR	1	6	-1	RELATIVE	1182	1	5	-1	n/a	n/a	n/a	n/a	n/a
3827.136	n/a	RECOG_RESP	1913568	n/a	LTP149	ltpFR	1	6	-1	RELATIVE	1182	1	n/a	-1	n/a	n/a	n/a	n/a	n/a
3828.358	n/a	RECOG_CONF	1914179	n/a	LTP149	ltpFR	1	6	-1	RELATIVE	1182	n/a	5	-1	n/a	n/a	n/a	n/a	n/a
3830.314	n/a	RECOG_TARGET	1915157	n/a	LTP149	ltpFR	1	6	1	SUSPECT	1415	1	5	1	n/a	n/a	n/a	n/a	n/a
3831.626	n/a	RECOG_RESP	1915813	n/a	LTP149	ltpFR	1	6	1	SUSPECT	1415	1	n/a	1	n/a	n/a	n/a	n/a	n/a
3832.806	n/a	RECOG_CONF	1916403	n/a	LTP149	ltpFR	1	6	1	SUSPECT	1415	n/a	5	1	n/a	n/a	n/a	n/a	n/a
3834.652	n/a	RECOG_TARGET	1917326	n/a	LTP149	ltpFR	1	6	1	BRIEFCASE	175	1	5	0	n/a	n/a	n/a	n/a	n/a
3835.684	n/a	RECOG_RESP	1917842	n/a	LTP149	ltpFR	1	6	1	BRIEFCASE	175	1	n/a	0	n/a	n/a	n/a	n/a	n/a
3836.968	n/a	RECOG_CONF	1918484	n/a	LTP149	ltpFR	1	6	1	BRIEFCASE	175	n/a	5	0	n/a	n/a	n/a	n/a	n/a
3838.826	n/a	RECOG_LURE	1919413	n/a	LTP149	ltpFR	1	6	n/a	PORK	1108	0	5	n/a	n/a	n/a	n/a	n/a	n/a
3839.648	n/a	RECOG_RESP	1919824	n/a	LTP149	ltpFR	1	6	n/a	PORK	1108	0	n/a	n/a	n/a	n/a	n/a	n/a	n/a
3841.066	n/a	RECOG_CONF	1920533	n/a	LTP149	ltpFR	1	6	n/a	PORK	1108	n/a	5	n/a	n/a	n/a	n/a	n/a	n/a
3842.576	n/a	RECOG_TARGET	1921288	n/a	LTP149	ltpFR	1	6	0	BABY	64	1	5	0	n/a	n/a	n/a	n/a	n/a
3843.396	n/a	RECOG_RESP	1921698	n/a	LTP149	ltpFR	1	6	0	BABY	64	1	n/a	0	n/a	n/a	n/a	n/a	n/a
3844.734	n/a	RECOG_CONF	1922367	n/a	LTP149	ltpFR	1	6	0	BABY	64	n/a	5	0	n/a	n/a	n/a	n/a	n/a
3846.54	n/a	RECOG_TARGET	1923270	n/a	LTP149	ltpFR	1	6	0	PAPER	1011	1	5	0	n/a	n/a	n/a	n/a	n/a
3847.838	n/a	RECOG_RESP	1923919	n/a	LTP149	ltpFR	1	6	0	PAPER	1011	1	n/a	0	n/a	n/a	n/a	n/a	n/a
3849.244	n/a	RECOG_CONF	1924622	n/a	LTP149	ltpFR	1	6	0	PAPER	1011	n/a	5	0	n/a	n/a	n/a	n/a	n/a
3851.024	n/a	RECOG_LURE	1925512	n/a	LTP149	ltpFR	1	6	n/a	ITEM	746	0	5	n/a	n/a	n/a	n/a	n/a	n/a
3852.442	n/a	RECOG_RESP	1926221	n/a	LTP149	ltpFR	1	6	n/a	ITEM	746	0	n/a	n/a	n/a	n/a	n/a	n/a	n/a
3853.48	n/a	RECOG_CONF	1926740	n/a	LTP149	ltpFR	1	6	n/a	ITEM	746	n/a	5	n/a	n/a	n/a	n/a	n/a	n/a
3855.206	n/a	RECOG_LURE	1927603	n/a	LTP149	ltpFR	1	6	n/a	BRAN	167	0	5	n/a	n/a	n/a	n/a	n/a	n/a
3856.54	n/a	RECOG_RESP	1928270	n/a	LTP149	ltpFR	1	6	n/a	BRAN	167	0	n/a	n/a	n/a	n/a	n/a	n/a	n/a
3857.648	n/a	RECOG_CONF	1928824	n/a	LTP149	ltpFR	1	6	n/a	BRAN	167	n/a	5	n/a	n/a	n/a	n/a	n/a	n/a
3861.436	n/a	RECOG_LURE	1930718	n/a	LTP149	ltpFR	1	6	n/a	DICTATOR	462	1	2	n/a	n/a	n/a	n/a	n/a	n/a
3863.466	n/a	RECOG_RESP_VV	1931733	n/a	LTP149	ltpFR	1	6	n/a	DICTATOR	462	1	n/a	n/a	n/a	n/a	n/a	n/a	n/a
3863.476	n/a	RECOG_RESP	1931738	n/a	LTP149	ltpFR	1	6	n/a	DICTATOR	462	1	n/a	n/a	n/a	n/a	n/a	n/a	n/a
3865.376	n/a	RECOG_CONF	1932688	n/a	LTP149	ltpFR	1	6	n/a	DICTATOR	462	n/a	2	n/a	n/a	n/a	n/a	n/a	n/a
3866.992	n/a	RECOG_LURE	1933496	n/a	LTP149	ltpFR	1	6	n/a	PERMIT	1051	0	4	n/a	n/a	n/a	n/a	n/a	n/a
3868.302	n/a	RECOG_RESP	1934151	n/a	LTP149	ltpFR	1	6	n/a	PERMIT	1051	0	n/a	n/a	n/a	n/a	n/a	n/a	n/a
3869.784	n/a	RECOG_CONF	1934892	n/a	LTP149	ltpFR	1	6	n/a	PERMIT	1051	n/a	4	n/a	n/a	n/a	n/a	n/a	n/a
3871.4	n/a	RECOG_TARGET	1935700	n/a	LTP149	ltpFR	1	6	1	WALLET	1583	1	5	0	n/a	n/a	n/a	n/a	n/a
3872.418	n/a	RECOG_RESP	1936209	n/a	LTP149	ltpFR	1	6	1	WALLET	1583	1	n/a	0	n/a	n/a	n/a	n/a	n/a
3873.504	n/a	RECOG_CONF	1936752	n/a	LTP149	ltpFR	1	6	1	WALLET	1583	n/a	5	0	n/a	n/a	n/a	n/a	n/a
3875.582	n/a	RECOG_TARGET	1937791	n/a	LTP149	ltpFR	1	6	0	STUMP	1396	1	5	1	n/a	n/a	n/a	n/a	n/a
3876.61	n/a	RECOG_RESP	1938305	n/a	LTP149	ltpFR	1	6	0	STUMP	1396	1	n/a	1	n/a	n/a	n/a	n/a	n/a
3878.144	n/a	RECOG_CONF	1939072	n/a	LTP149	ltpFR	1	6	0	STUMP	1396	n/a	5	1	n/a	n/a	n/a	n/a	n/a
3879.78	n/a	RECOG_TARGET	1939890	n/a	LTP149	ltpFR	1	6	-1	PENNY	1045	1	5	-1	n/a	n/a	n/a	n/a	n/a
3880.852	n/a	RECOG_RESP	1940426	n/a	LTP149	ltpFR	1	6	-1	PENNY	1045	1	n/a	-1	n/a	n/a	n/a	n/a	n/a
3881.968	n/a	RECOG_CONF	1940984	n/a	LTP149	ltpFR	1	6	-1	PENNY	1045	n/a	5	-1	n/a	n/a	n/a	n/a	n/a
3883.746	n/a	RECOG_LURE	1941873	n/a	LTP149	ltpFR	1	6	n/a	TOWN	1491	0	5	n/a	n/a	n/a	n/a	n/a	n/a
3884.618	n/a	RECOG_RESP	1942309	n/a	LTP149	ltpFR	1	6	n/a	TOWN	1491	0	n/a	n/a	n/a	n/a	n/a	n/a	n/a
3885.684	n/a	RECOG_CONF	1942842	n/a	LTP149	ltpFR	1	6	n/a	TOWN	1491	n/a	5	n/a	n/a	n/a	n/a	n/a	n/a
3948.236	n/a	REC_START	1974118	n/a	LTP149	ltpFR	1	7	n/a	n/a	n/a	n/a	n/a	n/a	n/a	n/a	n/a	n/a	n/a
3948.27	n/a	RECOG_LURE	1974135	n/a	LTP149	ltpFR	1	7	n/a	VIOLA	1570	0	5	n/a	n/a	n/a	n/a	n/a	n/a
3949.042	n/a	RECOG_RESP	1974521	n/a	LTP149	ltpFR	1	7	n/a	VIOLA	1570	0	n/a	n/a	n/a	n/a	n/a	n/a	n/a
3950.056	n/a	RECOG_CONF	1975028	n/a	LTP149	ltpFR	1	7	n/a	VIOLA	1570	n/a	5	n/a	n/a	n/a	n/a	n/a	n/a
3951.542	n/a	RECOG_TARGET	1975771	n/a	LTP149	ltpFR	1	7	0	HAYSTACK	694	1	5	1	n/a	n/a	n/a	n/a	n/a
3952.352	n/a	RECOG_RESP	1976176	n/a	LTP149	ltpFR	1	7	0	HAYSTACK	694	1	n/a	1	n/a	n/a	n/a	n/a	n/a
3953.448	n/a	RECOG_CONF	1976724	n/a	LTP149	ltpFR	1	7	0	HAYSTACK	694	n/a	5	1	n/a	n/a	n/a	n/a	n/a
3954.974	n/a	RECOG_TARGET	1977487	n/a	LTP149	ltpFR	1	7	0	BALCONY	72	1	5	1	n/a	n/a	n/a	n/a	n/a
3955.792	n/a	RECOG_RESP	1977896	n/a	LTP149	ltpFR	1	7	0	BALCONY	72	1	n/a	1	n/a	n/a	n/a	n/a	n/a
3956.874	n/a	RECOG_CONF	1978437	n/a	LTP149	ltpFR	1	7	0	BALCONY	72	n/a	5	1	n/a	n/a	n/a	n/a	n/a
3958.44	n/a	RECOG_TARGET	1979220	n/a	LTP149	ltpFR	1	7	0	DUNE	506	1	5	1	n/a	n/a	n/a	n/a	n/a
3959.204	n/a	RECOG_RESP	1979602	n/a	LTP149	ltpFR	1	7	0	DUNE	506	1	n/a	1	n/a	n/a	n/a	n/a	n/a
3960.24	n/a	RECOG_CONF	1980120	n/a	LTP149	ltpFR	1	7	0	DUNE	506	n/a	5	1	n/a	n/a	n/a	n/a	n/a
3961.848	n/a	RECOG_LURE	1980924	n/a	LTP149	ltpFR	1	7	n/a	ORGAN	984	1	3	n/a	n/a	n/a	n/a	n/a	n/a
3962.778	n/a	RECOG_RESP	1981389	n/a	LTP149	ltpFR	1	7	n/a	ORGAN	984	1	n/a	n/a	n/a	n/a	n/a	n/a	n/a
3964.008	n/a	RECOG_CONF	1982004	n/a	LTP149	ltpFR	1	7	n/a	ORGAN	984	n/a	3	n/a	n/a	n/a	n/a	n/a	n/a
3965.39	n/a	RECOG_LURE	1982695	n/a	LTP149	ltpFR	1	7	n/a	INN	739	0	5	n/a	n/a	n/a	n/a	n/a	n/a
3966.256	n/a	RECOG_RESP	1983128	n/a	LTP149	ltpFR	1	7	n/a	INN	739	0	n/a	n/a	n/a	n/a	n/a	n/a	n/a
3967.118	n/a	RECOG_CONF	1983559	n/a	LTP149	ltpFR	1	7	n/a	INN	739	n/a	5	n/a	n/a	n/a	n/a	n/a	n/a
3968.67	n/a	RECOG_TARGET	1984335	n/a	LTP149	ltpFR	1	7	-1	KNIGHT	786	1	5	-1	n/a	n/a	n/a	n/a	n/a
3969.456	n/a	RECOG_RESP	1984728	n/a	LTP149	ltpFR	1	7	-1	KNIGHT	786	1	n/a	-1	n/a	n/a	n/a	n/a	n/a
3970.44	n/a	RECOG_CONF	1985220	n/a	LTP149	ltpFR	1	7	-1	KNIGHT	786	n/a	5	-1	n/a	n/a	n/a	n/a	n/a
3971.962	n/a	RECOG_LURE	1985981	n/a	LTP149	ltpFR	1	7	n/a	CRYSTAL	418	1	5	n/a	n/a	n/a	n/a	n/a	n/a
3973.098	n/a	RECOG_RESP	1986549	n/a	LTP149	ltpFR	1	7	n/a	CRYSTAL	418	1	n/a	n/a	n/a	n/a	n/a	n/a	n/a
