onset	duration	trial_type	sample	stim_file	subject	experiment	session	trial	item_name	item_num	list	answer	test_x	test_y	test_z
205.29	n/a	SESS_START	102645	n/a	LTP306	ltpFR2	13	n/a	n/a	n/a	n/a	n/a	0	0	0
219.604	n/a	START	109802	n/a	LTP306	ltpFR2	13	n/a	n/a	n/a	-1	n/a	n/a	n/a	n/a
219.618	n/a	PROB	109809	n/a	LTP306	ltpFR2	13	n/a	n/a	n/a	-1	18	7	2	9
221.668	n/a	PROB	110834	n/a	LTP306	ltpFR2	13	n/a	n/a	n/a	-1	24	8	9	8
224.038	n/a	PROB	112019	n/a	LTP306	ltpFR2	13	n/a	n/a	n/a	-1	17	2	8	7
225.588	n/a	PROB	112794	n/a	LTP306	ltpFR2	13	n/a	n/a	n/a	-1	13	2	3	8
227.024	n/a	PROB	113512	n/a	LTP306	ltpFR2	13	n/a	n/a	n/a	-1	12	5	5	2
228.392	n/a	PROB	114196	n/a	LTP306	ltpFR2	13	n/a	n/a	n/a	-1	17	3	9	5
230.158	n/a	STOP	115079	n/a	LTP306	ltpFR2	13	n/a	n/a	n/a	-1	n/a	n/a	n/a	n/a
263.27	n/a	DISTRACTOR	131635	n/a	LTP306	ltpFR2	13	1	n/a	n/a	n/a	n/a	0	0	0
263.27	n/a	START	131635	n/a	LTP306	ltpFR2	13	n/a	n/a	n/a	1	n/a	n/a	n/a	n/a
263.284	n/a	PROB	131642	n/a	LTP306	ltpFR2	13	n/a	n/a	n/a	1	16	4	5	7
267.154	n/a	PROB	133577	n/a	LTP306	ltpFR2	13	n/a	n/a	n/a	1	14	1	4	9
268.34	n/a	PROB	134170	n/a	LTP306	ltpFR2	13	n/a	n/a	n/a	1	16	8	1	7
269.74	n/a	PROB	134870	n/a	LTP306	ltpFR2	13	n/a	n/a	n/a	1	8	2	2	4
271.192	n/a	PROB	135596	n/a	LTP306	ltpFR2	13	n/a	n/a	n/a	1	21	5	7	9
273.692	n/a	PROB	136846	n/a	LTP306	ltpFR2	13	n/a	n/a	n/a	1	14	4	2	8
275.01	n/a	PROB	137505	n/a	LTP306	ltpFR2	13	n/a	n/a	n/a	1	16	4	7	5
276.478	n/a	PROB	138239	n/a	LTP306	ltpFR2	13	n/a	n/a	n/a	1	23	8	6	9
279.346	n/a	PROB	139673	n/a	LTP306	ltpFR2	13	n/a	n/a	n/a	1	15	2	8	5
280.446	n/a	PROB	140223	n/a	LTP306	ltpFR2	13	n/a	n/a	n/a	1	25	7	9	9
282.066	n/a	PROB	141033	n/a	LTP306	ltpFR2	13	n/a	n/a	n/a	1	9	2	4	3
283.934	n/a	PROB	141967	n/a	LTP306	ltpFR2	13	n/a	n/a	n/a	1	10	4	5	1
285.234	n/a	PROB	142617	n/a	LTP306	ltpFR2	13	n/a	n/a	n/a	1	12	8	2	2
286.194	n/a	STOP	143097	n/a	LTP306	ltpFR2	13	n/a	n/a	n/a	1	n/a	n/a	n/a	n/a
288.26	n/a	WORD	144130	wordpools/wasnorm_wordpool_576.txt	LTP306	ltpFR2	13	1	MATTRESS	879	n/a	n/a	0	0	0
290.812	n/a	WORD	145406	wordpools/wasnorm_wordpool_576.txt	LTP306	ltpFR2	13	1	LOFT	840	n/a	n/a	0	0	0
293.382	n/a	WORD	146691	wordpools/wasnorm_wordpool_576.txt	LTP306	ltpFR2	13	1	BASEMENT	94	n/a	n/a	0	0	0
295.876	n/a	WORD	147938	wordpools/wasnorm_wordpool_576.txt	LTP306	ltpFR2	13	1	QUEEN	1149	n/a	n/a	0	0	0
298.43	n/a	WORD	149215	wordpools/wasnorm_wordpool_576.txt	LTP306	ltpFR2	13	1	PRINCESS	1125	n/a	n/a	0	0	0
300.914	n/a	WORD	150457	wordpools/wasnorm_wordpool_576.txt	LTP306	ltpFR2	13	1	OINTMENT	974	n/a	n/a	0	0	0
303.422	n/a	WORD	151711	wordpools/wasnorm_wordpool_576.txt	LTP306	ltpFR2	13	1	CANAL	226	n/a	n/a	0	0	0
305.936	n/a	WORD	152968	wordpools/wasnorm_wordpool_576.txt	LTP306	ltpFR2	13	1	PLATE	1086	n/a	n/a	0	0	0
308.704	n/a	WORD	154352	wordpools/wasnorm_wordpool_576.txt	LTP306	ltpFR2	13	1	SERVANT	1271	n/a	n/a	0	0	0
311.33	n/a	WORD	155665	wordpools/wasnorm_wordpool_576.txt	LTP306	ltpFR2	13	1	SCRIBBLE	1256	n/a	n/a	0	0	0
314.092	n/a	WORD	157046	wordpools/wasnorm_wordpool_576.txt	LTP306	ltpFR2	13	1	BEAST	108	n/a	n/a	0	0	0
316.826	n/a	WORD	158413	wordpools/wasnorm_wordpool_576.txt	LTP306	ltpFR2	13	1	FIREPLACE	570	n/a	n/a	0	0	0
319.27	n/a	WORD	159635	wordpools/wasnorm_wordpool_576.txt	LTP306	ltpFR2	13	1	SEAL	1262	n/a	n/a	0	0	0
321.848	n/a	WORD	160924	wordpools/wasnorm_wordpool_576.txt	LTP306	ltpFR2	13	1	MACHINE	852	n/a	n/a	0	0	0
324.29	n/a	WORD	162145	wordpools/wasnorm_wordpool_576.txt	LTP306	ltpFR2	13	1	DRILL	497	n/a	n/a	0	0	0
326.784	n/a	WORD	163392	wordpools/wasnorm_wordpool_576.txt	LTP306	ltpFR2	13	1	CLAMP	316	n/a	n/a	0	0	0
329.47	n/a	WORD	164735	wordpools/wasnorm_wordpool_576.txt	LTP306	ltpFR2	13	1	LAVA	804	n/a	n/a	0	0	0
332.13	n/a	WORD	166065	wordpools/wasnorm_wordpool_576.txt	LTP306	ltpFR2	13	1	LAMP	798	n/a	n/a	0	0	0
334.79	n/a	WORD	167395	wordpools/wasnorm_wordpool_576.txt	LTP306	ltpFR2	13	1	PAIL	1002	n/a	n/a	0	0	0
337.586	n/a	WORD	168793	wordpools/wasnorm_wordpool_576.txt	LTP306	ltpFR2	13	1	RACKET	1155	n/a	n/a	0	0	0
340.154	n/a	WORD	170077	wordpools/wasnorm_wordpool_576.txt	LTP306	ltpFR2	13	1	BODY	145	n/a	n/a	0	0	0
342.624	n/a	WORD	171312	wordpools/wasnorm_wordpool_576.txt	LTP306	ltpFR2	13	1	BROOK	177	n/a	n/a	0	0	0
345.382	n/a	WORD	172691	wordpools/wasnorm_wordpool_576.txt	LTP306	ltpFR2	13	1	SUSPECT	1415	n/a	n/a	0	0	0
347.818	n/a	WORD	173909	wordpools/wasnorm_wordpool_576.txt	LTP306	ltpFR2	13	1	JURY	766	n/a	n/a	0	0	0
349.43	n/a	START	174715	n/a	LTP306	ltpFR2	13	n/a	n/a	n/a	2	n/a	n/a	n/a	n/a
350.606	n/a	DISTRACTOR	175303	n/a	LTP306	ltpFR2	13	1	n/a	n/a	n/a	n/a	0	0	0
350.614	n/a	PROB	175307	n/a	LTP306	ltpFR2	13	n/a	n/a	n/a	2	14	4	1	9
351.87	n/a	PROB	175935	n/a	LTP306	ltpFR2	13	n/a	n/a	n/a	2	11	6	4	1
353.088	n/a	PROB	176544	n/a	LTP306	ltpFR2	13	n/a	n/a	n/a	2	17	6	5	6
355.008	n/a	PROB	177504	n/a	LTP306	ltpFR2	13	n/a	n/a	n/a	2	16	6	5	5
356.306	n/a	PROB	178153	n/a	LTP306	ltpFR2	13	n/a	n/a	n/a	2	14	2	7	5
357.842	n/a	PROB	178921	n/a	LTP306	ltpFR2	13	n/a	n/a	n/a	2	8	1	2	5
359.228	n/a	PROB	179614	n/a	LTP306	ltpFR2	13	n/a	n/a	n/a	2	22	5	9	8
361.326	n/a	PROB	180663	n/a	LTP306	ltpFR2	13	n/a	n/a	n/a	2	13	5	7	1
363.278	n/a	PROB	181639	n/a	LTP306	ltpFR2	13	n/a	n/a	n/a	2	22	9	4	8
364.812	n/a	PROB	182406	n/a	LTP306	ltpFR2	13	n/a	n/a	n/a	2	9	2	1	6
367.198	n/a	PROB	183599	n/a	LTP306	ltpFR2	13	n/a	n/a	n/a	2	6	2	2	2
368.166	n/a	PROB	184083	n/a	LTP306	ltpFR2	13	n/a	n/a	n/a	2	19	4	7	8
370.284	n/a	PROB	185142	n/a	LTP306	ltpFR2	13	n/a	n/a	n/a	2	9	2	5	2
372.818	n/a	STOP	186409	n/a	LTP306	ltpFR2	13	n/a	n/a	n/a	2	n/a	n/a	n/a	n/a
375.19	n/a	REC_START	187595	n/a	LTP306	ltpFR2	13	1	n/a	n/a	n/a	n/a	0	0	0
376.894	n/a	REC_WORD	188447	wordpools/wasnorm_wordpool_576.txt	LTP306	ltpFR2	13	1	BROOK	177	n/a	n/a	0	0	0
377.718	n/a	REC_WORD	188859	wordpools/wasnorm_wordpool_576.txt	LTP306	ltpFR2	13	1	SUSPECT	1415	n/a	n/a	0	0	0
378.218	n/a	REC_WORD_VV	189109	wordpools/wasnorm_wordpool_576.txt	LTP306	ltpFR2	13	1	<>	-1	n/a	n/a	0	0	0
378.904	n/a	REC_WORD	189452	wordpools/wasnorm_wordpool_576.txt	LTP306	ltpFR2	13	1	JURY	766	n/a	n/a	0	0	0
381.072	n/a	REC_WORD	190536	wordpools/wasnorm_wordpool_576.txt	LTP306	ltpFR2	13	1	MATTRESS	879	n/a	n/a	0	0	0
382.118	n/a	REC_WORD	191059	wordpools/wasnorm_wordpool_576.txt	LTP306	ltpFR2	13	1	LOFT	840	n/a	n/a	0	0	0
383.172	n/a	REC_WORD	191586	wordpools/wasnorm_wordpool_576.txt	LTP306	ltpFR2	13	1	BASEMENT	94	n/a	n/a	0	0	0
384.88	n/a	REC_WORD	192440	wordpools/wasnorm_wordpool_576.txt	LTP306	ltpFR2	13	1	QUEEN	1149	n/a	n/a	0	0	0
385.85	n/a	REC_WORD	192925	wordpools/wasnorm_wordpool_576.txt	LTP306	ltpFR2	13	1	PRINCESS	1125	n/a	n/a	0	0	0
386.924	n/a	REC_WORD	193462	wordpools/wasnorm_wordpool_576.txt	LTP306	ltpFR2	13	1	OINTMENT	974	n/a	n/a	0	0	0
388.55	n/a	REC_WORD	194275	wordpools/wasnorm_wordpool_576.txt	LTP306	ltpFR2	13	1	BEAST	108	n/a	n/a	0	0	0
389.32	n/a	REC_WORD	194660	wordpools/wasnorm_wordpool_576.txt	LTP306	ltpFR2	13	1	SCRIBBLE	1256	n/a	n/a	0	0	0
390.342	n/a	REC_WORD	195171	wordpools/wasnorm_wordpool_576.txt	LTP306	ltpFR2	13	1	FIREPLACE	570	n/a	n/a	0	0	0
392.234	n/a	REC_WORD	196117	wordpools/wasnorm_wordpool_576.txt	LTP306	ltpFR2	13	1	SEAL	1262	n/a	n/a	0	0	0
393.222	n/a	REC_WORD	196611	wordpools/wasnorm_wordpool_576.txt	LTP306	ltpFR2	13	1	MACHINE	852	n/a	n/a	0	0	0
394.712	n/a	REC_WORD	197356	wordpools/wasnorm_wordpool_576.txt	LTP306	ltpFR2	13	1	DRILL	497	n/a	n/a	0	0	0
400.224	n/a	REC_WORD	200112	wordpools/wasnorm_wordpool_576.txt	LTP306	ltpFR2	13	1	CLAMP	316	n/a	n/a	0	0	0
401.156	n/a	REC_WORD	200578	wordpools/wasnorm_wordpool_576.txt	LTP306	ltpFR2	13	1	LAVA	804	n/a	n/a	0	0	0
402.11	n/a	REC_WORD	201055	wordpools/wasnorm_wordpool_576.txt	LTP306	ltpFR2	13	1	LAMP	798	n/a	n/a	0	0	0
403.636	n/a	REC_WORD	201818	wordpools/wasnorm_wordpool_576.txt	LTP306	ltpFR2	13	1	PAIL	1002	n/a	n/a	0	0	0
404.95	n/a	REC_WORD	202475	wordpools/wasnorm_wordpool_576.txt	LTP306	ltpFR2	13	1	BODY	145	n/a	n/a	0	0	0
465.642	n/a	WORD	232821	wordpools/wasnorm_wordpool_576.txt	LTP306	ltpFR2	13	2	HELMET	702	n/a	n/a	0	0	0
468.246	n/a	WORD	234123	wordpools/wasnorm_wordpool_576.txt	LTP306	ltpFR2	13	2	KITCHEN	778	n/a	n/a	0	0	0
471.048	n/a	WORD	235524	wordpools/wasnorm_wordpool_576.txt	LTP306	ltpFR2	13	2	CRICKET	408	n/a	n/a	0	0	0
473.75	n/a	WORD	236875	wordpools/wasnorm_wordpool_576.txt	LTP306	ltpFR2	13	2	RECORD	1176	n/a	n/a	0	0	0
476.202	n/a	WORD	238101	wordpools/wasnorm_wordpool_576.txt	LTP306	ltpFR2	13	2	CLIMBER	323	n/a	n/a	0	0	0
478.704	n/a	WORD	239352	wordpools/wasnorm_wordpool_576.txt	LTP306	ltpFR2	13	2	PARSLEY	1016	n/a	n/a	0	0	0
481.188	n/a	WORD	240594	wordpools/wasnorm_wordpool_576.txt	LTP306	ltpFR2	13	2	GARLIC	624	n/a	n/a	0	0	0
483.958	n/a	WORD	241979	wordpools/wasnorm_wordpool_576.txt	LTP306	ltpFR2	13	2	CANYON	235	n/a	n/a	0	0	0
486.56	n/a	WORD	243280	wordpools/wasnorm_wordpool_576.txt	LTP306	ltpFR2	13	2	FRAME	600	n/a	n/a	0	0	0
489.36	n/a	WORD	244680	wordpools/wasnorm_wordpool_576.txt	LTP306	ltpFR2	13	2	SWITCH	1422	n/a	n/a	0	0	0
492.05	n/a	WORD	246025	wordpools/wasnorm_wordpool_576.txt	LTP306	ltpFR2	13	2	PASTRY	1022	n/a	n/a	0	0	0
494.486	n/a	WORD	247243	wordpools/wasnorm_wordpool_576.txt	LTP306	ltpFR2	13	2	GARBAGE	622	n/a	n/a	0	0	0
497.132	n/a	WORD	248566	wordpools/wasnorm_wordpool_576.txt	LTP306	ltpFR2	13	2	TRACTOR	1493	n/a	n/a	0	0	0
499.852	n/a	WORD	249926	wordpools/wasnorm_wordpool_576.txt	LTP306	ltpFR2	13	2	ICING	732	n/a	n/a	0	0	0
502.522	n/a	WORD	251261	wordpools/wasnorm_wordpool_576.txt	LTP306	ltpFR2	13	2	TOASTER	1472	n/a	n/a	0	0	0
505.04	n/a	WORD	252520	wordpools/wasnorm_wordpool_576.txt	LTP306	ltpFR2	13	2	MEDAL	885	n/a	n/a	0	0	0
507.576	n/a	WORD	253788	wordpools/wasnorm_wordpool_576.txt	LTP306	ltpFR2	13	2	STAPLE	1371	n/a	n/a	0	0	0
510.35	n/a	WORD	255175	wordpools/wasnorm_wordpool_576.txt	LTP306	ltpFR2	13	2	DRESS	495	n/a	n/a	0	0	0
512.784	n/a	WORD	256392	wordpools/wasnorm_wordpool_576.txt	LTP306	ltpFR2	13	2	SCALPEL	1243	n/a	n/a	0	0	0
515.398	n/a	WORD	257699	wordpools/wasnorm_wordpool_576.txt	LTP306	ltpFR2	13	2	CHURCH	307	n/a	n/a	0	0	0
518.116	n/a	WORD	259058	wordpools/wasnorm_wordpool_576.txt	LTP306	ltpFR2	13	2	PREACHER	1119	n/a	n/a	0	0	0
520.59	n/a	WORD	260295	wordpools/wasnorm_wordpool_576.txt	LTP306	ltpFR2	13	2	PEACH	1031	n/a	n/a	0	0	0
523.394	n/a	WORD	261697	wordpools/wasnorm_wordpool_576.txt	LTP306	ltpFR2	13	2	PIANO	1057	n/a	n/a	0	0	0
526.022	n/a	WORD	263011	wordpools/wasnorm_wordpool_576.txt	LTP306	ltpFR2	13	2	FRIEND	606	n/a	n/a	0	0	0
527.63	n/a	START	263815	n/a	LTP306	ltpFR2	13	n/a	n/a	n/a	3	n/a	n/a	n/a	n/a
528.732	n/a	DISTRACTOR	264366	n/a	LTP306	ltpFR2	13	2	n/a	n/a	n/a	n/a	0	0	0
528.742	n/a	PROB	264371	n/a	LTP306	ltpFR2	13	n/a	n/a	n/a	3	12	9	1	2
529.91	n/a	PROB	264955	n/a	LTP306	ltpFR2	13	n/a	n/a	n/a	3	19	2	8	9
531.042	n/a	PROB	265521	n/a	LTP306	ltpFR2	13	n/a	n/a	n/a	3	13	9	1	3
532.21	n/a	PROB	266105	n/a	LTP306	ltpFR2	13	n/a	n/a	n/a	3	12	8	1	3
533.912	n/a	PROB	266956	n/a	LTP306	ltpFR2	13	n/a	n/a	n/a	3	15	1	7	7
535.064	n/a	PROB	267532	n/a	LTP306	ltpFR2	13	n/a	n/a	n/a	3	12	2	7	3
536.63	n/a	PROB	268315	n/a	LTP306	ltpFR2	13	n/a	n/a	n/a	3	18	5	4	9
537.914	n/a	PROB	268957	n/a	LTP306	ltpFR2	13	n/a	n/a	n/a	3	13	2	3	8
539.332	n/a	PROB	269666	n/a	LTP306	ltpFR2	13	n/a	n/a	n/a	3	11	6	3	2
541.132	n/a	PROB	270566	n/a	LTP306	ltpFR2	13	n/a	n/a	n/a	3	10	1	3	6
542.468	n/a	PROB	271234	n/a	LTP306	ltpFR2	13	n/a	n/a	n/a	3	12	7	3	2
543.502	n/a	PROB	271751	n/a	LTP306	ltpFR2	13	n/a	n/a	n/a	3	17	9	1	7
544.738	n/a	PROB	272369	n/a	LTP306	ltpFR2	13	n/a	n/a	n/a	3	19	5	5	9
545.804	n/a	PROB	272902	n/a	LTP306	ltpFR2	13	n/a	n/a	n/a	3	21	4	8	9
548.206	n/a	PROB	274103	n/a	LTP306	ltpFR2	13	n/a	n/a	n/a	3	12	7	3	2
549.174	n/a	PROB	274587	n/a	LTP306	ltpFR2	13	n/a	n/a	n/a	3	17	8	8	1
550.566	n/a	STOP	275283	n/a	LTP306	ltpFR2	13	n/a	n/a	n/a	3	n/a	n/a	n/a	n/a
553.394	n/a	REC_START	276697	n/a	LTP306	ltpFR2	13	2	n/a	n/a	n/a	n/a	0	0	0
557.634	n/a	REC_WORD	278817	wordpools/wasnorm_wordpool_576.txt	LTP306	ltpFR2	13	2	SWITCH	1422	n/a	n/a	0	0	0
558.868	n/a	REC_WORD	279434	wordpools/wasnorm_wordpool_576.txt	LTP306	ltpFR2	13	2	PASTRY	1022	n/a	n/a	0	0	0
559.748	n/a	REC_WORD	279874	wordpools/wasnorm_wordpool_576.txt	LTP306	ltpFR2	13	2	MEDAL	885	n/a	n/a	0	0	0
561.224	n/a	REC_WORD	280612	wordpools/wasnorm_wordpool_576.txt	LTP306	ltpFR2	13	2	PEACH	1031	n/a	n/a	0	0	0
562.158	n/a	REC_WORD	281079	wordpools/wasnorm_wordpool_576.txt	LTP306	ltpFR2	13	2	PIANO	1057	n/a	n/a	0	0	0
562.946	n/a	REC_WORD	281473	wordpools/wasnorm_wordpool_576.txt	LTP306	ltpFR2	13	2	FRIEND	606	n/a	n/a	0	0	0
564.718	n/a	REC_WORD	282359	wordpools/wasnorm_wordpool_576.txt	LTP306	ltpFR2	13	2	GARLIC	624	n/a	n/a	0	0	0
566.006	n/a	REC_WORD	283003	wordpools/wasnorm_wordpool_576.txt	LTP306	ltpFR2	13	2	CANYON	235	n/a	n/a	0	0	0
567.158	n/a	REC_WORD	283579	wordpools/wasnorm_wordpool_576.txt	LTP306	ltpFR2	13	2	FRAME	600	n/a	n/a	0	0	0
568.584	n/a	REC_WORD	284292	wordpools/wasnorm_wordpool_576.txt	LTP306	ltpFR2	13	2	RECORD	1176	n/a	n/a	0	0	0
569.816	n/a	REC_WORD	284908	wordpools/wasnorm_wordpool_576.txt	LTP306	ltpFR2	13	2	CLIMBER	323	n/a	n/a	0	0	0
571.14	n/a	REC_WORD	285570	wordpools/wasnorm_wordpool_576.txt	LTP306	ltpFR2	13	2	PARSLEY	1016	n/a	n/a	0	0	0
574.908	n/a	REC_WORD	287454	wordpools/wasnorm_wordpool_576.txt	LTP306	ltpFR2	13	2	ICING	732	n/a	n/a	0	0	0
575.89	n/a	REC_WORD	287945	wordpools/wasnorm_wordpool_576.txt	LTP306	ltpFR2	13	2	TRACTOR	1493	n/a	n/a	0	0	0
577.034	n/a	REC_WORD	288517	wordpools/wasnorm_wordpool_576.txt	LTP306	ltpFR2	13	2	TOASTER	1472	n/a	n/a	0	0	0
643.832	n/a	DISTRACTOR	321916	n/a	LTP306	ltpFR2	13	3	n/a	n/a	n/a	n/a	0	0	0
643.832	n/a	START	321916	n/a	LTP306	ltpFR2	13	n/a	n/a	n/a	4	n/a	n/a	n/a	n/a
643.848	n/a	PROB	321924	n/a	LTP306	ltpFR2	13	n/a	n/a	n/a	4	22	4	9	9
645.198	n/a	PROB	322599	n/a	LTP306	ltpFR2	13	n/a	n/a	n/a	4	18	5	9	4
646.866	n/a	PROB	323433	n/a	LTP306	ltpFR2	13	n/a	n/a	n/a	4	15	5	9	1
648.0	n/a	PROB	324000	n/a	LTP306	ltpFR2	13	n/a	n/a	n/a	4	14	2	5	7
649.52	n/a	PROB	324760	n/a	LTP306	ltpFR2	13	n/a	n/a	n/a	4	18	8	2	8
650.6	n/a	PROB	325300	n/a	LTP306	ltpFR2	13	n/a	n/a	n/a	4	17	7	3	7
651.704	n/a	PROB	325852	n/a	LTP306	ltpFR2	13	n/a	n/a	n/a	4	16	4	7	5
653.486	n/a	PROB	326743	n/a	LTP306	ltpFR2	13	n/a	n/a	n/a	4	8	5	2	1
654.608	n/a	PROB	327304	n/a	LTP306	ltpFR2	13	n/a	n/a	n/a	4	14	9	3	2
656.288	n/a	PROB	328144	n/a	LTP306	ltpFR2	13	n/a	n/a	n/a	4	14	2	9	3
657.79	n/a	PROB	328895	n/a	LTP306	ltpFR2	13	n/a	n/a	n/a	4	11	4	1	6
659.074	n/a	PROB	329537	n/a	LTP306	ltpFR2	13	n/a	n/a	n/a	4	14	5	7	2
660.896	n/a	PROB	330448	n/a	LTP306	ltpFR2	13	n/a	n/a	n/a	4	20	9	6	5
662.88	n/a	PROB	331440	n/a	LTP306	ltpFR2	13	n/a	n/a	n/a	4	7	1	3	3
664.03	n/a	PROB	332015	n/a	LTP306	ltpFR2	13	n/a	n/a	n/a	4	20	7	4	9
665.432	n/a	PROB	332716	n/a	LTP306	ltpFR2	13	n/a	n/a	n/a	4	12	5	5	2
666.408	n/a	STOP	333204	n/a	LTP306	ltpFR2	13	n/a	n/a	n/a	4	n/a	n/a	n/a	n/a
668.934	n/a	WORD	334467	wordpools/wasnorm_wordpool_576.txt	LTP306	ltpFR2	13	3	CEILING	265	n/a	n/a	0	0	0
671.702	n/a	WORD	335851	wordpools/wasnorm_wordpool_576.txt	LTP306	ltpFR2	13	3	HOOD	714	n/a	n/a	0	0	0
674.17	n/a	WORD	337085	wordpools/wasnorm_wordpool_576.txt	LTP306	ltpFR2	13	3	CUPBOARD	425	n/a	n/a	0	0	0
676.606	n/a	WORD	338303	wordpools/wasnorm_wordpool_576.txt	LTP306	ltpFR2	13	3	SPARROW	1347	n/a	n/a	0	0	0
679.426	n/a	WORD	339713	wordpools/wasnorm_wordpool_576.txt	LTP306	ltpFR2	13	3	CITRUS	313	n/a	n/a	0	0	0
681.928	n/a	WORD	340964	wordpools/wasnorm_wordpool_576.txt	LTP306	ltpFR2	13	3	DORM	488	n/a	n/a	0	0	0
684.63	n/a	WORD	342315	wordpools/wasnorm_wordpool_576.txt	LTP306	ltpFR2	13	3	CHEST	295	n/a	n/a	0	0	0
687.2	n/a	WORD	343600	wordpools/wasnorm_wordpool_576.txt	LTP306	ltpFR2	13	3	GRILL	661	n/a	n/a	0	0	0
689.784	n/a	WORD	344892	wordpools/wasnorm_wordpool_576.txt	LTP306	ltpFR2	13	3	YACHT	1629	n/a	n/a	0	0	0
692.42	n/a	WORD	346210	wordpools/wasnorm_wordpool_576.txt	LTP306	ltpFR2	13	3	DIME	466	n/a	n/a	0	0	0
695.138	n/a	WORD	347569	wordpools/wasnorm_wordpool_576.txt	LTP306	ltpFR2	13	3	PADDING	999	n/a	n/a	0	0	0
697.908	n/a	WORD	348954	wordpools/wasnorm_wordpool_576.txt	LTP306	ltpFR2	13	3	SLIDE	1326	n/a	n/a	0	0	0
700.676	n/a	WORD	350338	wordpools/wasnorm_wordpool_576.txt	LTP306	ltpFR2	13	3	DIVER	476	n/a	n/a	0	0	0
703.196	n/a	WORD	351598	wordpools/wasnorm_wordpool_576.txt	LTP306	ltpFR2	13	3	PICTURE	1061	n/a	n/a	0	0	0
705.996	n/a	WORD	352998	wordpools/wasnorm_wordpool_576.txt	LTP306	ltpFR2	13	3	DRAWING	494	n/a	n/a	0	0	0
708.616	n/a	WORD	354308	wordpools/wasnorm_wordpool_576.txt	LTP306	ltpFR2	13	3	PLASTER	1085	n/a	n/a	0	0	0
711.068	n/a	WORD	355534	wordpools/wasnorm_wordpool_576.txt	LTP306	ltpFR2	13	3	COLONEL	348	n/a	n/a	0	0	0
713.62	n/a	WORD	356810	wordpools/wasnorm_wordpool_576.txt	LTP306	ltpFR2	13	3	SKETCH	1315	n/a	n/a	0	0	0
716.12	n/a	WORD	358060	wordpools/wasnorm_wordpool_576.txt	LTP306	ltpFR2	13	3	CASHIER	254	n/a	n/a	0	0	0
718.772	n/a	WORD	359386	wordpools/wasnorm_wordpool_576.txt	LTP306	ltpFR2	13	3	MONSTER	912	n/a	n/a	0	0	0
721.408	n/a	WORD	360704	wordpools/wasnorm_wordpool_576.txt	LTP306	ltpFR2	13	3	KNAPSACK	783	n/a	n/a	0	0	0
723.86	n/a	WORD	361930	wordpools/wasnorm_wordpool_576.txt	LTP306	ltpFR2	13	3	PICNIC	1060	n/a	n/a	0	0	0
726.346	n/a	WORD	363173	wordpools/wasnorm_wordpool_576.txt	LTP306	ltpFR2	13	3	WASHER	1592	n/a	n/a	0	0	0
729.032	n/a	WORD	364516	wordpools/wasnorm_wordpool_576.txt	LTP306	ltpFR2	13	3	FLEET	578	n/a	n/a	0	0	0
730.636	n/a	START	365318	n/a	LTP306	ltpFR2	13	n/a	n/a	n/a	5	n/a	n/a	n/a	n/a
731.772	n/a	DISTRACTOR	365886	n/a	LTP306	ltpFR2	13	3	n/a	n/a	n/a	n/a	0	0	0
731.784	n/a	PROB	365892	n/a	LTP306	ltpFR2	13	n/a	n/a	n/a	5	10	5	1	4
733.168	n/a	PROB	366584	n/a	LTP306	ltpFR2	13	n/a	n/a	n/a	5	11	3	4	4
735.068	n/a	PROB	367534	n/a	LTP306	ltpFR2	13	n/a	n/a	n/a	5	21	8	9	4
737.686	n/a	PROB	368843	n/a	LTP306	ltpFR2	13	n/a	n/a	n/a	5	12	4	2	6
739.138	n/a	PROB	369569	n/a	LTP306	ltpFR2	13	n/a	n/a	n/a	5	10	3	1	6
740.372	n/a	PROB	370186	n/a	LTP306	ltpFR2	13	n/a	n/a	n/a	5	23	9	8	6
742.408	n/a	PROB	371204	n/a	LTP306	ltpFR2	13	n/a	n/a	n/a	5	4	1	2	1
743.392	n/a	PROB	371696	n/a	LTP306	ltpFR2	13	n/a	n/a	n/a	5	14	6	1	7
745.178	n/a	PROB	372589	n/a	LTP306	ltpFR2	13	n/a	n/a	n/a	5	12	1	9	2
746.21	n/a	PROB	373105	n/a	LTP306	ltpFR2	13	n/a	n/a	n/a	5	9	2	1	6
748.16	n/a	PROB	374080	n/a	LTP306	ltpFR2	13	n/a	n/a	n/a	5	16	7	2	7
749.596	n/a	PROB	374798	n/a	LTP306	ltpFR2	13	n/a	n/a	n/a	5	19	8	5	6
751.48	n/a	PROB	375740	n/a	LTP306	ltpFR2	13	n/a	n/a	n/a	5	15	4	7	4
753.066	n/a	PROB	376533	n/a	LTP306	ltpFR2	13	n/a	n/a	n/a	5	16	7	3	6
754.176	n/a	STOP	377088	n/a	LTP306	ltpFR2	13	n/a	n/a	n/a	5	n/a	n/a	n/a	n/a
756.468	n/a	REC_START	378234	n/a	LTP306	ltpFR2	13	3	n/a	n/a	n/a	n/a	0	0	0
757.74	n/a	REC_WORD	378870	wordpools/wasnorm_wordpool_576.txt	LTP306	ltpFR2	13	3	CEILING	265	n/a	n/a	0	0	0
758.9	n/a	REC_WORD	379450	wordpools/wasnorm_wordpool_576.txt	LTP306	ltpFR2	13	3	HOOD	714	n/a	n/a	0	0	0
759.814	n/a	REC_WORD	379907	wordpools/wasnorm_wordpool_576.txt	LTP306	ltpFR2	13	3	CUPBOARD	425	n/a	n/a	0	0	0
761.122	n/a	REC_WORD	380561	wordpools/wasnorm_wordpool_576.txt	LTP306	ltpFR2	13	3	SPARROW	1347	n/a	n/a	0	0	0
762.508	n/a	REC_WORD	381254	wordpools/wasnorm_wordpool_576.txt	LTP306	ltpFR2	13	3	CITRUS	313	n/a	n/a	0	0	0
763.008	n/a	REC_WORD_VV	381504	wordpools/wasnorm_wordpool_576.txt	LTP306	ltpFR2	13	3	<>	-1	n/a	n/a	0	0	0
763.508	n/a	REC_WORD_VV	381754	wordpools/wasnorm_wordpool_576.txt	LTP306	ltpFR2	13	3	<>	-1	n/a	n/a	0	0	0
764.104	n/a	REC_WORD	382052	wordpools/wasnorm_wordpool_576.txt	LTP306	ltpFR2	13	3	DORM	488	n/a	n/a	0	0	0
766.144	n/a	REC_WORD	383072	wordpools/wasnorm_wordpool_576.txt	LTP306	ltpFR2	13	3	DIVER	476	n/a	n/a	0	0	0
767.502	n/a	REC_WORD	383751	wordpools/wasnorm_wordpool_576.txt	LTP306	ltpFR2	13	3	DRAWING	494	n/a	n/a	0	0	0
768.644	n/a	REC_WORD	384322	wordpools/wasnorm_wordpool_576.txt	LTP306	ltpFR2	13	3	PICTURE	1061	n/a	n/a	0	0	0
770.256	n/a	REC_WORD	385128	wordpools/wasnorm_wordpool_576.txt	LTP306	ltpFR2	13	3	COLONEL	348	n/a	n/a	0	0	0
771.292	n/a	REC_WORD	385646	wordpools/wasnorm_wordpool_576.txt	LTP306	ltpFR2	13	3	PLASTER	1085	n/a	n/a	0	0	0
772.24	n/a	REC_WORD	386120	wordpools/wasnorm_wordpool_576.txt	LTP306	ltpFR2	13	3	SKETCH	1315	n/a	n/a	0	0	0
804.6	n/a	REC_WORD	402300	wordpools/wasnorm_wordpool_576.txt	LTP306	ltpFR2	13	3	DIME	466	n/a	n/a	0	0	0
805.578	n/a	REC_WORD	402789	wordpools/wasnorm_wordpool_576.txt	LTP306	ltpFR2	13	3	PADDING	999	n/a	n/a	0	0	0
806.314	n/a	REC_WORD	403157	wordpools/wasnorm_wordpool_576.txt	LTP306	ltpFR2	13	3	SLIDE	1326	n/a	n/a	0	0	0
846.89	n/a	DISTRACTOR	423445	n/a	LTP306	ltpFR2	13	4	n/a	n/a	n/a	n/a	0	0	0
846.89	n/a	START	423445	n/a	LTP306	ltpFR2	13	n/a	n/a	n/a	6	n/a	n/a	n/a	n/a
846.906	n/a	PROB	423453	n/a	LTP306	ltpFR2	13	n/a	n/a	n/a	6	19	4	9	6
848.506	n/a	PROB	424253	n/a	LTP306	ltpFR2	13	n/a	n/a	n/a	6	13	3	2	8
850.424	n/a	PROB	425212	n/a	LTP306	ltpFR2	13	n/a	n/a	n/a	6	15	8	6	1
852.326	n/a	PROB	426163	n/a	LTP306	ltpFR2	13	n/a	n/a	n/a	6	12	7	1	4
853.544	n/a	PROB	426772	n/a	LTP306	ltpFR2	13	n/a	n/a	n/a	6	7	4	2	1
854.678	n/a	PROB	427339	n/a	LTP306	ltpFR2	13	n/a	n/a	n/a	6	19	4	8	7
856.98	n/a	PROB	428490	n/a	LTP306	ltpFR2	13	n/a	n/a	n/a	6	21	5	7	9
858.43	n/a	PROB	429215	n/a	LTP306	ltpFR2	13	n/a	n/a	n/a	6	17	2	7	8
860.232	n/a	PROB	430116	n/a	LTP306	ltpFR2	13	n/a	n/a	n/a	6	16	8	4	4
861.734	n/a	PROB	430867	n/a	LTP306	ltpFR2	13	n/a	n/a	n/a	6	18	8	1	9
863.486	n/a	PROB	431743	n/a	LTP306	ltpFR2	13	n/a	n/a	n/a	6	11	4	2	5
865.804	n/a	PROB	432902	n/a	LTP306	ltpFR2	13	n/a	n/a	n/a	6	16	6	6	4
867.306	n/a	PROB	433653	n/a	LTP306	ltpFR2	13	n/a	n/a	n/a	6	9	3	4	2
870.89	n/a	STOP	435445	n/a	LTP306	ltpFR2	13	n/a	n/a	n/a	6	n/a	n/a	n/a	n/a
871.942	n/a	WORD	435971	wordpools/wasnorm_wordpool_576.txt	LTP306	ltpFR2	13	4	BEEF	113	n/a	n/a	0	0	0
874.558	n/a	WORD	437279	wordpools/wasnorm_wordpool_576.txt	LTP306	ltpFR2	13	4	CAFE	216	n/a	n/a	0	0	0
877.364	n/a	WORD	438682	wordpools/wasnorm_wordpool_576.txt	LTP306	ltpFR2	13	4	SERVER	1272	n/a	n/a	0	0	0
880.162	n/a	WORD	440081	wordpools/wasnorm_wordpool_576.txt	LTP306	ltpFR2	13	4	PEPPER	1047	n/a	n/a	0	0	0
882.884	n/a	WORD	441442	wordpools/wasnorm_wordpool_576.txt	LTP306	ltpFR2	13	4	POPCORN	1104	n/a	n/a	0	0	0
885.504	n/a	WORD	442752	wordpools/wasnorm_wordpool_576.txt	LTP306	ltpFR2	13	4	PERFUME	1049	n/a	n/a	0	0	0
888.236	n/a	WORD	444118	wordpools/wasnorm_wordpool_576.txt	LTP306	ltpFR2	13	4	POET	1095	n/a	n/a	0	0	0
890.772	n/a	WORD	445386	wordpools/wasnorm_wordpool_576.txt	LTP306	ltpFR2	13	4	LADY	794	n/a	n/a	0	0	0
893.592	n/a	WORD	446796	wordpools/wasnorm_wordpool_576.txt	LTP306	ltpFR2	13	4	WOMAN	1620	n/a	n/a	0	0	0
896.36	n/a	WORD	448180	wordpools/wasnorm_wordpool_576.txt	LTP306	ltpFR2	13	4	PISTOL	1075	n/a	n/a	0	0	0
899.162	n/a	WORD	449581	wordpools/wasnorm_wordpool_576.txt	LTP306	ltpFR2	13	4	SNACK	1331	n/a	n/a	0	0	0
901.948	n/a	WORD	450974	wordpools/wasnorm_wordpool_576.txt	LTP306	ltpFR2	13	4	TURTLE	1522	n/a	n/a	0	0	0
904.4	n/a	WORD	452200	wordpools/wasnorm_wordpool_576.txt	LTP306	ltpFR2	13	4	GALLON	618	n/a	n/a	0	0	0
907.086	n/a	WORD	453543	wordpools/wasnorm_wordpool_576.txt	LTP306	ltpFR2	13	4	WIDOW	1608	n/a	n/a	0	0	0
909.704	n/a	WORD	454852	wordpools/wasnorm_wordpool_576.txt	LTP306	ltpFR2	13	4	STAKE	1368	n/a	n/a	0	0	0
912.274	n/a	WORD	456137	wordpools/wasnorm_wordpool_576.txt	LTP306	ltpFR2	13	4	JAPAN	749	n/a	n/a	0	0	0
914.826	n/a	WORD	457413	wordpools/wasnorm_wordpool_576.txt	LTP306	ltpFR2	13	4	GRIZZLY	662	n/a	n/a	0	0	0
917.428	n/a	WORD	458714	wordpools/wasnorm_wordpool_576.txt	LTP306	ltpFR2	13	4	BUTCHER	203	n/a	n/a	0	0	0
919.914	n/a	WORD	459957	wordpools/wasnorm_wordpool_576.txt	LTP306	ltpFR2	13	4	XEROX	1628	n/a	n/a	0	0	0
922.582	n/a	WORD	461291	wordpools/wasnorm_wordpool_576.txt	LTP306	ltpFR2	13	4	ROBOT	1200	n/a	n/a	0	0	0
925.084	n/a	WORD	462542	wordpools/wasnorm_wordpool_576.txt	LTP306	ltpFR2	13	4	ONION	977	n/a	n/a	0	0	0
927.786	n/a	WORD	463893	wordpools/wasnorm_wordpool_576.txt	LTP306	ltpFR2	13	4	EAGLE	512	n/a	n/a	0	0	0
930.272	n/a	WORD	465136	wordpools/wasnorm_wordpool_576.txt	LTP306	ltpFR2	13	4	LAGOON	795	n/a	n/a	0	0	0
933.108	n/a	WORD	466554	wordpools/wasnorm_wordpool_576.txt	LTP306	ltpFR2	13	4	HANDBAG	684	n/a	n/a	0	0	0
934.726	n/a	START	467363	n/a	LTP306	ltpFR2	13	n/a	n/a	n/a	7	n/a	n/a	n/a	n/a
935.848	n/a	DISTRACTOR	467924	n/a	LTP306	ltpFR2	13	4	n/a	n/a	n/a	n/a	0	0	0
935.86	n/a	PROB	467930	n/a	LTP306	ltpFR2	13	n/a	n/a	n/a	7	18	9	6	3
937.41	n/a	PROB	468705	n/a	LTP306	ltpFR2	13	n/a	n/a	n/a	7	21	9	2	9
938.812	n/a	PROB	469406	n/a	LTP306	ltpFR2	13	n/a	n/a	n/a	7	24	9	9	6
941.128	n/a	PROB	470564	n/a	LTP306	ltpFR2	13	n/a	n/a	n/a	7	22	7	7	8
942.864	n/a	PROB	471432	n/a	LTP306	ltpFR2	13	n/a	n/a	n/a	7	19	5	7	7
944.316	n/a	PROB	472158	n/a	LTP306	ltpFR2	13	n/a	n/a	n/a	7	13	6	1	6
945.584	n/a	PROB	472792	n/a	LTP306	ltpFR2	13	n/a	n/a	n/a	7	19	1	9	9
946.984	n/a	PROB	473492	n/a	LTP306	ltpFR2	13	n/a	n/a	n/a	7	15	7	1	7
948.202	n/a	PROB	474101	n/a	LTP306	ltpFR2	13	n/a	n/a	n/a	7	22	6	9	6
950.42	n/a	PROB	475210	n/a	LTP306	ltpFR2	13	n/a	n/a	n/a	7	22	8	9	5
953.17	n/a	PROB	476585	n/a	LTP306	ltpFR2	13	n/a	n/a	n/a	7	22	8	5	9
954.824	n/a	PROB	477412	n/a	LTP306	ltpFR2	13	n/a	n/a	n/a	7	25	8	9	8
956.908	n/a	PROB	478454	n/a	LTP306	ltpFR2	13	n/a	n/a	n/a	7	13	7	4	2
958.292	n/a	STOP	479146	n/a	LTP306	ltpFR2	13	n/a	n/a	n/a	7	n/a	n/a	n/a	n/a
960.596	n/a	REC_START	480298	n/a	LTP306	ltpFR2	13	4	n/a	n/a	n/a	n/a	0	0	0
961.948	n/a	REC_WORD	480974	wordpools/wasnorm_wordpool_576.txt	LTP306	ltpFR2	13	4	JAPAN	749	n/a	n/a	0	0	0
963.148	n/a	REC_WORD	481574	wordpools/wasnorm_wordpool_576.txt	LTP306	ltpFR2	13	4	GRIZZLY	662	n/a	n/a	0	0	0
963.954	n/a	REC_WORD	481977	wordpools/wasnorm_wordpool_576.txt	LTP306	ltpFR2	13	4	XEROX	1628	n/a	n/a	0	0	0
965.236	n/a	REC_WORD	482618	wordpools/wasnorm_wordpool_576.txt	LTP306	ltpFR2	13	4	EAGLE	512	n/a	n/a	0	0	0
965.976	n/a	REC_WORD	482988	wordpools/wasnorm_wordpool_576.txt	LTP306	ltpFR2	13	4	LAGOON	795	n/a	n/a	0	0	0
970.114	n/a	REC_WORD	485057	wordpools/wasnorm_wordpool_576.txt	LTP306	ltpFR2	13	4	HANDBAG	684	n/a	n/a	0	0	0
978.172	n/a	REC_WORD	489086	wordpools/wasnorm_wordpool_576.txt	LTP306	ltpFR2	13	4	BEEF	113	n/a	n/a	0	0	0
979.014	n/a	REC_WORD	489507	wordpools/wasnorm_wordpool_576.txt	LTP306	ltpFR2	13	4	CAFE	216	n/a	n/a	0	0	0
979.996	n/a	REC_WORD	489998	wordpools/wasnorm_wordpool_576.txt	LTP306	ltpFR2	13	4	SERVER	1272	n/a	n/a	0	0	0
981.748	n/a	REC_WORD	490874	wordpools/wasnorm_wordpool_576.txt	LTP306	ltpFR2	13	4	PEPPER	1047	n/a	n/a	0	0	0
982.794	n/a	REC_WORD	491397	wordpools/wasnorm_wordpool_576.txt	LTP306	ltpFR2	13	4	POPCORN	1104	n/a	n/a	0	0	0
983.998	n/a	REC_WORD_VV	491999	wordpools/wasnorm_wordpool_576.txt	LTP306	ltpFR2	13	4	<>	-1	n/a	n/a	0	0	0
984.956	n/a	REC_WORD	492478	wordpools/wasnorm_wordpool_576.txt	LTP306	ltpFR2	13	4	PERFUME	1049	n/a	n/a	0	0	0
986.808	n/a	REC_WORD	493404	wordpools/wasnorm_wordpool_576.txt	LTP306	ltpFR2	13	4	POET	1095	n/a	n/a	0	0	0
987.676	n/a	REC_WORD	493838	wordpools/wasnorm_wordpool_576.txt	LTP306	ltpFR2	13	4	LADY	794	n/a	n/a	0	0	0
988.612	n/a	REC_WORD	494306	wordpools/wasnorm_wordpool_576.txt	LTP306	ltpFR2	13	4	WOMAN	1620	n/a	n/a	0	0	0
994.438	n/a	REC_WORD	497219	wordpools/wasnorm_wordpool_576.txt	LTP306	ltpFR2	13	4	TURTLE	1522	n/a	n/a	0	0	0
995.532	n/a	REC_WORD	497766	wordpools/wasnorm_wordpool_576.txt	LTP306	ltpFR2	13	4	PISTOL	1075	n/a	n/a	0	0	0
996.244	n/a	REC_WORD	498122	wordpools/wasnorm_wordpool_576.txt	LTP306	ltpFR2	13	4	SNACK	1331	n/a	n/a	0	0	0
998.064	n/a	REC_WORD	499032	wordpools/wasnorm_wordpool_576.txt	LTP306	ltpFR2	13	4	WIDOW	1608	n/a	n/a	0	0	0
999.132	n/a	REC_WORD	499566	wordpools/wasnorm_wordpool_576.txt	LTP306	ltpFR2	13	4	GALLON	618	n/a	n/a	0	0	0
1013.982	n/a	REC_WORD	506991	wordpools/wasnorm_wordpool_576.txt	LTP306	ltpFR2	13	4	BUTCHER	203	n/a	n/a	0	0	0
1051.032	n/a	WORD	525516	wordpools/wasnorm_wordpool_576.txt	LTP306	ltpFR2	13	5	WIFE	1609	n/a	n/a	0	0	0
1053.644	n/a	WORD	526822	wordpools/wasnorm_wordpool_576.txt	LTP306	ltpFR2	13	5	BELLY	119	n/a	n/a	0	0	0
1056.128	n/a	WORD	528064	wordpools/wasnorm_wordpool_576.txt	LTP306	ltpFR2	13	5	CLOTHES	327	n/a	n/a	0	0	0
1058.638	n/a	WORD	529319	wordpools/wasnorm_wordpool_576.txt	LTP306	ltpFR2	13	5	LIPSTICK	829	n/a	n/a	0	0	0
1061.35	n/a	WORD	530675	wordpools/wasnorm_wordpool_576.txt	LTP306	ltpFR2	13	5	CONCERT	360	n/a	n/a	0	0	0
1063.926	n/a	WORD	531963	wordpools/wasnorm_wordpool_576.txt	LTP306	ltpFR2	13	5	GUITAR	670	n/a	n/a	0	0	0
1066.688	n/a	WORD	533344	wordpools/wasnorm_wordpool_576.txt	LTP306	ltpFR2	13	5	WINDOW	1611	n/a	n/a	0	0	0
1069.39	n/a	WORD	534695	wordpools/wasnorm_wordpool_576.txt	LTP306	ltpFR2	13	5	FLESH	579	n/a	n/a	0	0	0
1072.132	n/a	WORD	536066	wordpools/wasnorm_wordpool_576.txt	LTP306	ltpFR2	13	5	CUSTARD	429	n/a	n/a	0	0	0
1074.702	n/a	WORD	537351	wordpools/wasnorm_wordpool_576.txt	LTP306	ltpFR2	13	5	LIVER	833	n/a	n/a	0	0	0
1077.364	n/a	WORD	538682	wordpools/wasnorm_wordpool_576.txt	LTP306	ltpFR2	13	5	TRANSPLANT	1496	n/a	n/a	0	0	0
1080.148	n/a	WORD	540074	wordpools/wasnorm_wordpool_576.txt	LTP306	ltpFR2	13	5	PECAN	1036	n/a	n/a	0	0	0
1082.574	n/a	WORD	541287	wordpools/wasnorm_wordpool_576.txt	LTP306	ltpFR2	13	5	GOBLIN	645	n/a	n/a	0	0	0
1085.104	n/a	WORD	542552	wordpools/wasnorm_wordpool_576.txt	LTP306	ltpFR2	13	5	AGENT	10	n/a	n/a	0	0	0
1087.646	n/a	WORD	543823	wordpools/wasnorm_wordpool_576.txt	LTP306	ltpFR2	13	5	TAXI	1438	n/a	n/a	0	0	0
1090.146	n/a	WORD	545073	wordpools/wasnorm_wordpool_576.txt	LTP306	ltpFR2	13	5	TORTOISE	1486	n/a	n/a	0	0	0
1092.966	n/a	WORD	546483	wordpools/wasnorm_wordpool_576.txt	LTP306	ltpFR2	13	5	BREAST	171	n/a	n/a	0	0	0
1095.662	n/a	WORD	547831	wordpools/wasnorm_wordpool_576.txt	LTP306	ltpFR2	13	5	DAUGHTER	442	n/a	n/a	0	0	0
1098.218	n/a	WORD	549109	wordpools/wasnorm_wordpool_576.txt	LTP306	ltpFR2	13	5	FRIAR	605	n/a	n/a	0	0	0
1100.648	n/a	WORD	550324	wordpools/wasnorm_wordpool_576.txt	LTP306	ltpFR2	13	5	CHAUFFEUR	283	n/a	n/a	0	0	0
1103.29	n/a	WORD	551645	wordpools/wasnorm_wordpool_576.txt	LTP306	ltpFR2	13	5	GLASS	639	n/a	n/a	0	0	0
1105.888	n/a	WORD	552944	wordpools/wasnorm_wordpool_576.txt	LTP306	ltpFR2	13	5	BANK	83	n/a	n/a	0	0	0
1108.306	n/a	WORD	554153	wordpools/wasnorm_wordpool_576.txt	LTP306	ltpFR2	13	5	GLOBE	641	n/a	n/a	0	0	0
1111.046	n/a	WORD	555523	wordpools/wasnorm_wordpool_576.txt	LTP306	ltpFR2	13	5	PLUTO	1092	n/a	n/a	0	0	0
1112.66	n/a	START	556330	n/a	LTP306	ltpFR2	13	n/a	n/a	n/a	8	n/a	n/a	n/a	n/a
1113.738	n/a	DISTRACTOR	556869	n/a	LTP306	ltpFR2	13	5	n/a	n/a	n/a	n/a	0	0	0
1113.744	n/a	PROB	556872	n/a	LTP306	ltpFR2	13	n/a	n/a	n/a	8	13	1	5	7
1115.444	n/a	PROB	557722	n/a	LTP306	ltpFR2	13	n/a	n/a	n/a	8	24	8	8	8
1116.88	n/a	PROB	558440	n/a	LTP306	ltpFR2	13	n/a	n/a	n/a	8	14	2	9	3
1118.464	n/a	PROB	559232	n/a	LTP306	ltpFR2	13	n/a	n/a	n/a	8	16	5	5	6
1119.632	n/a	PROB	559816	n/a	LTP306	ltpFR2	13	n/a	n/a	n/a	8	15	3	7	5
1121.066	n/a	PROB	560533	n/a	LTP306	ltpFR2	13	n/a	n/a	n/a	8	20	9	5	6
1122.522	n/a	PROB	561261	n/a	LTP306	ltpFR2	13	n/a	n/a	n/a	8	8	2	3	3
1123.852	n/a	PROB	561926	n/a	LTP306	ltpFR2	13	n/a	n/a	n/a	8	21	7	9	5
1126.442	n/a	PROB	563221	n/a	LTP306	ltpFR2	13	n/a	n/a	n/a	8	18	8	2	8
1127.638	n/a	PROB	563819	n/a	LTP306	ltpFR2	13	n/a	n/a	n/a	8	12	2	1	9
1129.14	n/a	PROB	564570	n/a	LTP306	ltpFR2	13	n/a	n/a	n/a	8	10	3	6	1
1130.624	n/a	PROB	565312	n/a	LTP306	ltpFR2	13	n/a	n/a	n/a	8	20	4	8	8
1132.41	n/a	PROB	566205	n/a	LTP306	ltpFR2	13	n/a	n/a	n/a	8	10	7	1	2
1133.678	n/a	PROB	566839	n/a	LTP306	ltpFR2	13	n/a	n/a	n/a	8	12	5	1	6
1135.134	n/a	STOP	567567	n/a	LTP306	ltpFR2	13	n/a	n/a	n/a	8	n/a	n/a	n/a	n/a
1138.482	n/a	REC_START	569241	n/a	LTP306	ltpFR2	13	5	n/a	n/a	n/a	n/a	0	0	0
1139.49	n/a	REC_WORD	569745	wordpools/wasnorm_wordpool_576.txt	LTP306	ltpFR2	13	5	TORTOISE	1486	n/a	n/a	0	0	0
1140.588	n/a	REC_WORD	570294	wordpools/wasnorm_wordpool_576.txt	LTP306	ltpFR2	13	5	BREAST	171	n/a	n/a	0	0	0
1141.69	n/a	REC_WORD	570845	wordpools/wasnorm_wordpool_576.txt	LTP306	ltpFR2	13	5	DAUGHTER	442	n/a	n/a	0	0	0
1143.234	n/a	REC_WORD	571617	wordpools/wasnorm_wordpool_576.txt	LTP306	ltpFR2	13	5	BANK	83	n/a	n/a	0	0	0
1144.214	n/a	REC_WORD	572107	wordpools/wasnorm_wordpool_576.txt	LTP306	ltpFR2	13	5	GLOBE	641	n/a	n/a	0	0	0
1145.226	n/a	REC_WORD	572613	wordpools/wasnorm_wordpool_576.txt	LTP306	ltpFR2	13	5	PLUTO	1092	n/a	n/a	0	0	0
1146.962	n/a	REC_WORD	573481	wordpools/wasnorm_wordpool_576.txt	LTP306	ltpFR2	13	5	WIFE	1609	n/a	n/a	0	0	0
1148.082	n/a	REC_WORD	574041	wordpools/wasnorm_wordpool_576.txt	LTP306	ltpFR2	13	5	BELLY	119	n/a	n/a	0	0	0
1148.918	n/a	REC_WORD	574459	wordpools/wasnorm_wordpool_576.txt	LTP306	ltpFR2	13	5	CLOTHES	327	n/a	n/a	0	0	0
1150.38	n/a	REC_WORD	575190	wordpools/wasnorm_wordpool_576.txt	LTP306	ltpFR2	13	5	LIPSTICK	829	n/a	n/a	0	0	0
1151.364	n/a	REC_WORD	575682	wordpools/wasnorm_wordpool_576.txt	LTP306	ltpFR2	13	5	CONCERT	360	n/a	n/a	0	0	0
1152.128	n/a	REC_WORD	576064	wordpools/wasnorm_wordpool_576.txt	LTP306	ltpFR2	13	5	GUITAR	670	n/a	n/a	0	0	0
1161.774	n/a	REC_WORD	580887	wordpools/wasnorm_wordpool_576.txt	LTP306	ltpFR2	13	5	LIVER	833	n/a	n/a	0	0	0
1162.588	n/a	REC_WORD	581294	wordpools/wasnorm_wordpool_576.txt	LTP306	ltpFR2	13	5	TRANSPLANT	1496	n/a	n/a	0	0	0
1163.61	n/a	REC_WORD	581805	wordpools/wasnorm_wordpool_576.txt	LTP306	ltpFR2	13	5	PECAN	1036	n/a	n/a	0	0	0
1228.936	n/a	WORD	614468	wordpools/wasnorm_wordpool_576.txt	LTP306	ltpFR2	13	6	NIGHTGOWN	953	n/a	n/a	0	0	0
1231.512	n/a	WORD	615756	wordpools/wasnorm_wordpool_576.txt	LTP306	ltpFR2	13	6	COWBOY	395	n/a	n/a	0	0	0
1234.074	n/a	WORD	617037	wordpools/wasnorm_wordpool_576.txt	LTP306	ltpFR2	13	6	SEAGULL	1261	n/a	n/a	0	0	0
1236.776	n/a	WORD	618388	wordpools/wasnorm_wordpool_576.txt	LTP306	ltpFR2	13	6	TEMPLE	1448	n/a	n/a	0	0	0
1239.278	n/a	WORD	619639	wordpools/wasnorm_wordpool_576.txt	LTP306	ltpFR2	13	6	LETTUCE	814	n/a	n/a	0	0	0
1242.054	n/a	WORD	621027	wordpools/wasnorm_wordpool_576.txt	LTP306	ltpFR2	13	6	ICEBERG	731	n/a	n/a	0	0	0
1244.734	n/a	WORD	622367	wordpools/wasnorm_wordpool_576.txt	LTP306	ltpFR2	13	6	SUBWAY	1400	n/a	n/a	0	0	0
1247.524	n/a	WORD	623762	wordpools/wasnorm_wordpool_576.txt	LTP306	ltpFR2	13	6	SANDWICH	1232	n/a	n/a	0	0	0
1250.228	n/a	WORD	625114	wordpools/wasnorm_wordpool_576.txt	LTP306	ltpFR2	13	6	PENGUIN	1044	n/a	n/a	0	0	0
1253.008	n/a	WORD	626504	wordpools/wasnorm_wordpool_576.txt	LTP306	ltpFR2	13	6	GAVEL	627	n/a	n/a	0	0	0
1255.816	n/a	WORD	627908	wordpools/wasnorm_wordpool_576.txt	LTP306	ltpFR2	13	6	OMELET	976	n/a	n/a	0	0	0
1258.412	n/a	WORD	629206	wordpools/wasnorm_wordpool_576.txt	LTP306	ltpFR2	13	6	STOVE	1388	n/a	n/a	0	0	0
1261.12	n/a	WORD	630560	wordpools/wasnorm_wordpool_576.txt	LTP306	ltpFR2	13	6	COOK	372	n/a	n/a	0	0	0
1263.682	n/a	WORD	631841	wordpools/wasnorm_wordpool_576.txt	LTP306	ltpFR2	13	6	PLAID	1080	n/a	n/a	0	0	0
1266.234	n/a	WORD	633117	wordpools/wasnorm_wordpool_576.txt	LTP306	ltpFR2	13	6	DONOR	485	n/a	n/a	0	0	0
1268.886	n/a	WORD	634443	wordpools/wasnorm_wordpool_576.txt	LTP306	ltpFR2	13	6	SALAD	1224	n/a	n/a	0	0	0
1271.686	n/a	WORD	635843	wordpools/wasnorm_wordpool_576.txt	LTP306	ltpFR2	13	6	GHETTO	633	n/a	n/a	0	0	0
1274.224	n/a	WORD	637112	wordpools/wasnorm_wordpool_576.txt	LTP306	ltpFR2	13	6	COUNTRY	388	n/a	n/a	0	0	0
1276.65	n/a	WORD	638325	wordpools/wasnorm_wordpool_576.txt	LTP306	ltpFR2	13	6	FARMER	553	n/a	n/a	0	0	0
1279.378	n/a	WORD	639689	wordpools/wasnorm_wordpool_576.txt	LTP306	ltpFR2	13	6	RECEIPT	1173	n/a	n/a	0	0	0
1281.878	n/a	WORD	640939	wordpools/wasnorm_wordpool_576.txt	LTP306	ltpFR2	13	6	SADDLE	1221	n/a	n/a	0	0	0
1284.622	n/a	WORD	642311	wordpools/wasnorm_wordpool_576.txt	LTP306	ltpFR2	13	6	CELLAR	267	n/a	n/a	0	0	0
1287.308	n/a	WORD	643654	wordpools/wasnorm_wordpool_576.txt	LTP306	ltpFR2	13	6	DRUG	501	n/a	n/a	0	0	0
1289.778	n/a	WORD	644889	wordpools/wasnorm_wordpool_576.txt	LTP306	ltpFR2	13	6	BOYFRIEND	162	n/a	n/a	0	0	0
1291.388	n/a	START	645694	n/a	LTP306	ltpFR2	13	n/a	n/a	n/a	9	n/a	n/a	n/a	n/a
1292.47	n/a	DISTRACTOR	646235	n/a	LTP306	ltpFR2	13	6	n/a	n/a	n/a	n/a	0	0	0
1292.48	n/a	PROB	646240	n/a	LTP306	ltpFR2	13	n/a	n/a	n/a	9	13	8	2	3
1293.972	n/a	PROB	646986	n/a	LTP306	ltpFR2	13	n/a	n/a	n/a	9	10	4	4	2
1295.256	n/a	PROB	647628	n/a	LTP306	ltpFR2	13	n/a	n/a	n/a	9	17	4	7	6
1297.008	n/a	PROB	648504	n/a	LTP306	ltpFR2	13	n/a	n/a	n/a	9	5	3	2	1
1298.156	n/a	PROB	649078	n/a	LTP306	ltpFR2	13	n/a	n/a	n/a	9	4	2	1	1
1299.242	n/a	PROB	649621	n/a	LTP306	ltpFR2	13	n/a	n/a	n/a	9	24	7	8	9
1302.41	n/a	PROB	651205	n/a	LTP306	ltpFR2	13	n/a	n/a	n/a	9	21	7	6	8
1304.328	n/a	PROB	652164	n/a	LTP306	ltpFR2	13	n/a	n/a	n/a	9	13	2	4	7
1306.198	n/a	PROB	653099	n/a	LTP306	ltpFR2	13	n/a	n/a	n/a	9	6	3	1	2
1307.532	n/a	PROB	653766	n/a	LTP306	ltpFR2	13	n/a	n/a	n/a	9	14	6	3	5
1309.416	n/a	PROB	654708	n/a	LTP306	ltpFR2	13	n/a	n/a	n/a	9	9	3	5	1
1311.334	n/a	PROB	655667	n/a	LTP306	ltpFR2	13	n/a	n/a	n/a	9	12	2	3	7
1312.502	n/a	PROB	656251	n/a	LTP306	ltpFR2	13	n/a	n/a	n/a	9	20	8	4	8
1315.386	n/a	STOP	657693	n/a	LTP306	ltpFR2	13	n/a	n/a	n/a	9	n/a	n/a	n/a	n/a
1317.192	n/a	REC_START	658596	n/a	LTP306	ltpFR2	13	6	n/a	n/a	n/a	n/a	0	0	0
1318.406	n/a	REC_WORD	659203	wordpools/wasnorm_wordpool_576.txt	LTP306	ltpFR2	13	6	CELLAR	267	n/a	n/a	0	0	0
1319.614	n/a	REC_WORD	659807	wordpools/wasnorm_wordpool_576.txt	LTP306	ltpFR2	13	6	DRUG	501	n/a	n/a	0	0	0
1320.488	n/a	REC_WORD	660244	wordpools/wasnorm_wordpool_576.txt	LTP306	ltpFR2	13	6	BOYFRIEND	162	n/a	n/a	0	0	0
1327.848	n/a	REC_WORD	663924	wordpools/wasnorm_wordpool_576.txt	LTP306	ltpFR2	13	6	TEMPLE	1448	n/a	n/a	0	0	0
1329.014	n/a	REC_WORD	664507	wordpools/wasnorm_wordpool_576.txt	LTP306	ltpFR2	13	6	LETTUCE	814	n/a	n/a	0	0	0
1330.04	n/a	REC_WORD	665020	wordpools/wasnorm_wordpool_576.txt	LTP306	ltpFR2	13	6	ICEBERG	731	n/a	n/a	0	0	0
1332.034	n/a	REC_WORD	666017	wordpools/wasnorm_wordpool_576.txt	LTP306	ltpFR2	13	6	OMELET	976	n/a	n/a	0	0	0
1333.232	n/a	REC_WORD	666616	wordpools/wasnorm_wordpool_576.txt	LTP306	ltpFR2	13	6	GAVEL	627	n/a	n/a	0	0	0
1336.204	n/a	REC_WORD	668102	wordpools/wasnorm_wordpool_576.txt	LTP306	ltpFR2	13	6	STOVE	1388	n/a	n/a	0	0	0
1339.016	n/a	REC_WORD	669508	wordpools/wasnorm_wordpool_576.txt	LTP306	ltpFR2	13	6	DONOR	485	n/a	n/a	0	0	0
1340.046	n/a	REC_WORD	670023	wordpools/wasnorm_wordpool_576.txt	LTP306	ltpFR2	13	6	PLAID	1080	n/a	n/a	0	0	0
1341.1	n/a	REC_WORD	670550	wordpools/wasnorm_wordpool_576.txt	LTP306	ltpFR2	13	6	COOK	372	n/a	n/a	0	0	0
1342.754	n/a	REC_WORD	671377	wordpools/wasnorm_wordpool_576.txt	LTP306	ltpFR2	13	6	SALAD	1224	n/a	n/a	0	0	0
1344.078	n/a	REC_WORD	672039	wordpools/wasnorm_wordpool_576.txt	LTP306	ltpFR2	13	6	GHETTO	633	n/a	n/a	0	0	0
1344.898	n/a	REC_WORD	672449	wordpools/wasnorm_wordpool_576.txt	LTP306	ltpFR2	13	6	COUNTRY	388	n/a	n/a	0	0	0
1348.28	n/a	REC_WORD	674140	wordpools/wasnorm_wordpool_576.txt	LTP306	ltpFR2	13	6	NIGHTGOWN	953	n/a	n/a	0	0	0
1349.414	n/a	REC_WORD	674707	wordpools/wasnorm_wordpool_576.txt	LTP306	ltpFR2	13	6	COWBOY	395	n/a	n/a	0	0	0
1353.22	n/a	REC_WORD	676610	wordpools/wasnorm_wordpool_576.txt	LTP306	ltpFR2	13	6	SADDLE	1221	n/a	n/a	0	0	0
1361.638	n/a	REC_WORD	680819	wordpools/wasnorm_wordpool_576.txt	LTP306	ltpFR2	13	6	SUBWAY	1400	n/a	n/a	0	0	0
1362.72	n/a	REC_WORD	681360	wordpools/wasnorm_wordpool_576.txt	LTP306	ltpFR2	13	6	SANDWICH	1232	n/a	n/a	0	0	0
1364.1	n/a	REC_WORD	682050	wordpools/wasnorm_wordpool_576.txt	LTP306	ltpFR2	13	6	PENGUIN	1044	n/a	n/a	0	0	0
1407.644	n/a	DISTRACTOR	703822	n/a	LTP306	ltpFR2	13	7	n/a	n/a	n/a	n/a	0	0	0
1407.644	n/a	START	703822	n/a	LTP306	ltpFR2	13	n/a	n/a	n/a	10	n/a	n/a	n/a	n/a
1407.66	n/a	PROB	703830	n/a	LTP306	ltpFR2	13	n/a	n/a	n/a	10	15	8	5	2
1409.896	n/a	PROB	704948	n/a	LTP306	ltpFR2	13	n/a	n/a	n/a	10	18	8	2	8
1411.446	n/a	PROB	705723	n/a	LTP306	ltpFR2	13	n/a	n/a	n/a	10	19	1	9	9
1412.598	n/a	PROB	706299	n/a	LTP306	ltpFR2	13	n/a	n/a	n/a	10	23	5	9	9
1413.996	n/a	PROB	706998	n/a	LTP306	ltpFR2	13	n/a	n/a	n/a	10	11	2	6	3
1415.432	n/a	PROB	707716	n/a	LTP306	ltpFR2	13	n/a	n/a	n/a	10	16	3	5	8
1417.5	n/a	PROB	708750	n/a	LTP306	ltpFR2	13	n/a	n/a	n/a	10	11	2	3	6
1419.334	n/a	PROB	709667	n/a	LTP306	ltpFR2	13	n/a	n/a	n/a	10	12	2	3	7
1420.47	n/a	PROB	710235	n/a	LTP306	ltpFR2	13	n/a	n/a	n/a	10	14	8	2	4
1421.77	n/a	PROB	710885	n/a	LTP306	ltpFR2	13	n/a	n/a	n/a	10	10	5	1	4
1423.072	n/a	PROB	711536	n/a	LTP306	ltpFR2	13	n/a	n/a	n/a	10	17	9	1	7
1424.458	n/a	PROB	712229	n/a	LTP306	ltpFR2	13	n/a	n/a	n/a	10	19	8	7	4
1426.792	n/a	PROB	713396	n/a	LTP306	ltpFR2	13	n/a	n/a	n/a	10	14	3	4	7
1428.258	n/a	PROB	714129	n/a	LTP306	ltpFR2	13	n/a	n/a	n/a	10	22	5	8	9
1430.836	n/a	STOP	715418	n/a	LTP306	ltpFR2	13	n/a	n/a	n/a	10	n/a	n/a	n/a	n/a
1432.596	n/a	WORD	716298	wordpools/wasnorm_wordpool_576.txt	LTP306	ltpFR2	13	7	FRAGRANCE	599	n/a	n/a	0	0	0
1435.266	n/a	WORD	717633	wordpools/wasnorm_wordpool_576.txt	LTP306	ltpFR2	13	7	LODGE	839	n/a	n/a	0	0	0
1437.834	n/a	WORD	718917	wordpools/wasnorm_wordpool_576.txt	LTP306	ltpFR2	13	7	BLOCKADE	137	n/a	n/a	0	0	0
1440.286	n/a	WORD	720143	wordpools/wasnorm_wordpool_576.txt	LTP306	ltpFR2	13	7	JELLO	754	n/a	n/a	0	0	0
1442.954	n/a	WORD	721477	wordpools/wasnorm_wordpool_576.txt	LTP306	ltpFR2	13	7	DOUGHNUT	490	n/a	n/a	0	0	0
1445.424	n/a	WORD	722712	wordpools/wasnorm_wordpool_576.txt	LTP306	ltpFR2	13	7	FIDDLE	561	n/a	n/a	0	0	0
1448.108	n/a	WORD	724054	wordpools/wasnorm_wordpool_576.txt	LTP306	ltpFR2	13	7	SUNRISE	1407	n/a	n/a	0	0	0
1450.828	n/a	WORD	725414	wordpools/wasnorm_wordpool_576.txt	LTP306	ltpFR2	13	7	LAKE	796	n/a	n/a	0	0	0
1453.316	n/a	WORD	726658	wordpools/wasnorm_wordpool_576.txt	LTP306	ltpFR2	13	7	SMOG	1330	n/a	n/a	0	0	0
1456.064	n/a	WORD	728032	wordpools/wasnorm_wordpool_576.txt	LTP306	ltpFR2	13	7	STOMACH	1384	n/a	n/a	0	0	0
1458.866	n/a	WORD	729433	wordpools/wasnorm_wordpool_576.txt	LTP306	ltpFR2	13	7	ROD	1203	n/a	n/a	0	0	0
1461.352	n/a	WORD	730676	wordpools/wasnorm_wordpool_576.txt	LTP306	ltpFR2	13	7	OZONE	996	n/a	n/a	0	0	0
1463.938	n/a	WORD	731969	wordpools/wasnorm_wordpool_576.txt	LTP306	ltpFR2	13	7	WAITRESS	1581	n/a	n/a	0	0	0
1466.572	n/a	WORD	733286	wordpools/wasnorm_wordpool_576.txt	LTP306	ltpFR2	13	7	MOTEL	919	n/a	n/a	0	0	0
1469.008	n/a	WORD	734504	wordpools/wasnorm_wordpool_576.txt	LTP306	ltpFR2	13	7	BATHTUB	100	n/a	n/a	0	0	0
1471.744	n/a	WORD	735872	wordpools/wasnorm_wordpool_576.txt	LTP306	ltpFR2	13	7	RUG	1215	n/a	n/a	0	0	0
1474.312	n/a	WORD	737156	wordpools/wasnorm_wordpool_576.txt	LTP306	ltpFR2	13	7	MOP	916	n/a	n/a	0	0	0
1476.832	n/a	WORD	738416	wordpools/wasnorm_wordpool_576.txt	LTP306	ltpFR2	13	7	TUTU	1524	n/a	n/a	0	0	0
1479.572	n/a	WORD	739786	wordpools/wasnorm_wordpool_576.txt	LTP306	ltpFR2	13	7	SUITCASE	1403	n/a	n/a	0	0	0
1482.252	n/a	WORD	741126	wordpools/wasnorm_wordpool_576.txt	LTP306	ltpFR2	13	7	POCKET	1093	n/a	n/a	0	0	0
1485.02	n/a	WORD	742510	wordpools/wasnorm_wordpool_576.txt	LTP306	ltpFR2	13	7	PADDLE	1000	n/a	n/a	0	0	0
1487.538	n/a	WORD	743769	wordpools/wasnorm_wordpool_576.txt	LTP306	ltpFR2	13	7	RAFT	1159	n/a	n/a	0	0	0
1490.292	n/a	WORD	745146	wordpools/wasnorm_wordpool_576.txt	LTP306	ltpFR2	13	7	FEMALE	559	n/a	n/a	0	0	0
1492.95	n/a	WORD	746475	wordpools/wasnorm_wordpool_576.txt	LTP306	ltpFR2	13	7	CLOCK	325	n/a	n/a	0	0	0
1494.562	n/a	START	747281	n/a	LTP306	ltpFR2	13	n/a	n/a	n/a	11	n/a	n/a	n/a	n/a
1495.53	n/a	DISTRACTOR	747765	n/a	LTP306	ltpFR2	13	7	n/a	n/a	n/a	n/a	0	0	0
1495.534	n/a	PROB	747767	n/a	LTP306	ltpFR2	13	n/a	n/a	n/a	11	9	5	2	2
1496.844	n/a	PROB	748422	n/a	LTP306	ltpFR2	13	n/a	n/a	n/a	11	15	2	6	7
1499.096	n/a	PROB	749548	n/a	LTP306	ltpFR2	13	n/a	n/a	n/a	11	8	1	1	6
1500.198	n/a	PROB	750099	n/a	LTP306	ltpFR2	13	n/a	n/a	n/a	11	16	3	9	4
1502.734	n/a	PROB	751367	n/a	LTP306	ltpFR2	13	n/a	n/a	n/a	11	16	7	8	1
1504.234	n/a	PROB	752117	n/a	LTP306	ltpFR2	13	n/a	n/a	n/a	11	12	5	2	5
1505.702	n/a	PROB	752851	n/a	LTP306	ltpFR2	13	n/a	n/a	n/a	11	13	1	8	4
1507.238	n/a	PROB	753619	n/a	LTP306	ltpFR2	13	n/a	n/a	n/a	11	22	7	9	6
1509.938	n/a	PROB	754969	n/a	LTP306	ltpFR2	13	n/a	n/a	n/a	11	12	3	2	7
1511.156	n/a	PROB	755578	n/a	LTP306	ltpFR2	13	n/a	n/a	n/a	11	13	7	4	2
1512.624	n/a	PROB	756312	n/a	LTP306	ltpFR2	13	n/a	n/a	n/a	11	13	5	3	5
1514.06	n/a	PROB	757030	n/a	LTP306	ltpFR2	13	n/a	n/a	n/a	11	17	6	2	9
1515.81	n/a	PROB	757905	n/a	LTP306	ltpFR2	13	n/a	n/a	n/a	11	15	4	3	8
1517.622	n/a	STOP	758811	n/a	LTP306	ltpFR2	13	n/a	n/a	n/a	11	n/a	n/a	n/a	n/a
1520.498	n/a	REC_START	760249	n/a	LTP306	ltpFR2	13	7	n/a	n/a	n/a	n/a	0	0	0
1521.38	n/a	REC_WORD	760690	wordpools/wasnorm_wordpool_576.txt	LTP306	ltpFR2	13	7	RUG	1215	n/a	n/a	0	0	0
1522.87	n/a	REC_WORD	761435	wordpools/wasnorm_wordpool_576.txt	LTP306	ltpFR2	13	7	MOP	916	n/a	n/a	0	0	0
1524.61	n/a	REC_WORD	762305	wordpools/wasnorm_wordpool_576.txt	LTP306	ltpFR2	13	7	PADDLE	1000	n/a	n/a	0	0	0
1525.648	n/a	REC_WORD	762824	wordpools/wasnorm_wordpool_576.txt	LTP306	ltpFR2	13	7	POCKET	1093	n/a	n/a	0	0	0
1526.326	n/a	REC_WORD	763163	wordpools/wasnorm_wordpool_576.txt	LTP306	ltpFR2	13	7	SUITCASE	1403	n/a	n/a	0	0	0
1528.372	n/a	REC_WORD	764186	wordpools/wasnorm_wordpool_576.txt	LTP306	ltpFR2	13	7	RAFT	1159	n/a	n/a	0	0	0
1529.112	n/a	REC_WORD	764556	wordpools/wasnorm_wordpool_576.txt	LTP306	ltpFR2	13	7	FEMALE	559	n/a	n/a	0	0	0
1530.972	n/a	REC_WORD	765486	wordpools/wasnorm_wordpool_576.txt	LTP306	ltpFR2	13	7	WAITRESS	1581	n/a	n/a	0	0	0
1531.708	n/a	REC_WORD	765854	wordpools/wasnorm_wordpool_576.txt	LTP306	ltpFR2	13	7	MOTEL	919	n/a	n/a	0	0	0
1532.784	n/a	REC_WORD	766392	wordpools/wasnorm_wordpool_576.txt	LTP306	ltpFR2	13	7	BATHTUB	100	n/a	n/a	0	0	0
1547.016	n/a	REC_WORD	773508	wordpools/wasnorm_wordpool_576.txt	LTP306	ltpFR2	13	7	LODGE	839	n/a	n/a	0	0	0
1547.752	n/a	REC_WORD	773876	wordpools/wasnorm_wordpool_576.txt	LTP306	ltpFR2	13	7	FRAGRANCE	599	n/a	n/a	0	0	0
1548.742	n/a	REC_WORD	774371	wordpools/wasnorm_wordpool_576.txt	LTP306	ltpFR2	13	7	BLOCKADE	137	n/a	n/a	0	0	0
1551.368	n/a	REC_WORD	775684	wordpools/wasnorm_wordpool_576.txt	LTP306	ltpFR2	13	7	JELLO	754	n/a	n/a	0	0	0
1552.42	n/a	REC_WORD	776210	wordpools/wasnorm_wordpool_576.txt	LTP306	ltpFR2	13	7	DOUGHNUT	490	n/a	n/a	0	0	0
1684.51	n/a	WORD	842255	wordpools/wasnorm_wordpool_576.txt	LTP306	ltpFR2	13	8	HAWK	692	n/a	n/a	0	0	0
1687.078	n/a	WORD	843539	wordpools/wasnorm_wordpool_576.txt	LTP306	ltpFR2	13	8	DRIVER	499	n/a	n/a	0	0	0
1689.898	n/a	WORD	844949	wordpools/wasnorm_wordpool_576.txt	LTP306	ltpFR2	13	8	MISSILE	900	n/a	n/a	0	0	0
1692.6	n/a	WORD	846300	wordpools/wasnorm_wordpool_576.txt	LTP306	ltpFR2	13	8	ROCKET	1202	n/a	n/a	0	0	0
1695.334	n/a	WORD	847667	wordpools/wasnorm_wordpool_576.txt	LTP306	ltpFR2	13	8	LEADER	807	n/a	n/a	0	0	0
1697.838	n/a	WORD	848919	wordpools/wasnorm_wordpool_576.txt	LTP306	ltpFR2	13	8	CRUTCH	417	n/a	n/a	0	0	0
1700.638	n/a	WORD	850319	wordpools/wasnorm_wordpool_576.txt	LTP306	ltpFR2	13	8	KIDNEY	776	n/a	n/a	0	0	0
1703.074	n/a	WORD	851537	wordpools/wasnorm_wordpool_576.txt	LTP306	ltpFR2	13	8	SOFTBALL	1343	n/a	n/a	0	0	0
1705.592	n/a	WORD	852796	wordpools/wasnorm_wordpool_576.txt	LTP306	ltpFR2	13	8	GYMNAST	675	n/a	n/a	0	0	0
1708.362	n/a	WORD	854181	wordpools/wasnorm_wordpool_576.txt	LTP306	ltpFR2	13	8	PIZZA	1079	n/a	n/a	0	0	0
1710.914	n/a	WORD	855457	wordpools/wasnorm_wordpool_576.txt	LTP306	ltpFR2	13	8	APPLE	33	n/a	n/a	0	0	0
1713.548	n/a	WORD	856774	wordpools/wasnorm_wordpool_576.txt	LTP306	ltpFR2	13	8	ACTOR	5	n/a	n/a	0	0	0
1715.966	n/a	WORD	857983	wordpools/wasnorm_wordpool_576.txt	LTP306	ltpFR2	13	8	LONDON	843	n/a	n/a	0	0	0
1718.518	n/a	WORD	859259	wordpools/wasnorm_wordpool_576.txt	LTP306	ltpFR2	13	8	ELBOW	520	n/a	n/a	0	0	0
1720.954	n/a	WORD	860477	wordpools/wasnorm_wordpool_576.txt	LTP306	ltpFR2	13	8	TRIBE	1505	n/a	n/a	0	0	0
1723.412	n/a	WORD	861706	wordpools/wasnorm_wordpool_576.txt	LTP306	ltpFR2	13	8	LEOPARD	812	n/a	n/a	0	0	0
1726.214	n/a	WORD	863107	wordpools/wasnorm_wordpool_576.txt	LTP306	ltpFR2	13	8	VELVET	1555	n/a	n/a	0	0	0
1728.71	n/a	WORD	864355	wordpools/wasnorm_wordpool_576.txt	LTP306	ltpFR2	13	8	LACE	792	n/a	n/a	0	0	0
1731.412	n/a	WORD	865706	wordpools/wasnorm_wordpool_576.txt	LTP306	ltpFR2	13	8	BLOUSE	139	n/a	n/a	0	0	0
1733.872	n/a	WORD	866936	wordpools/wasnorm_wordpool_576.txt	LTP306	ltpFR2	13	8	ASIA	46	n/a	n/a	0	0	0
1736.434	n/a	WORD	868217	wordpools/wasnorm_wordpool_576.txt	LTP306	ltpFR2	13	8	UMPIRE	1535	n/a	n/a	0	0	0
1739.02	n/a	WORD	869510	wordpools/wasnorm_wordpool_576.txt	LTP306	ltpFR2	13	8	SPHINX	1349	n/a	n/a	0	0	0
1741.612	n/a	WORD	870806	wordpools/wasnorm_wordpool_576.txt	LTP306	ltpFR2	13	8	DASHBOARD	441	n/a	n/a	0	0	0
1744.088	n/a	WORD	872044	wordpools/wasnorm_wordpool_576.txt	LTP306	ltpFR2	13	8	TRUCK	1512	n/a	n/a	0	0	0
1745.698	n/a	START	872849	n/a	LTP306	ltpFR2	13	n/a	n/a	n/a	12	n/a	n/a	n/a	n/a
1746.778	n/a	DISTRACTOR	873389	n/a	LTP306	ltpFR2	13	8	n/a	n/a	n/a	n/a	0	0	0
1746.79	n/a	PROB	873395	n/a	LTP306	ltpFR2	13	n/a	n/a	n/a	12	11	1	3	7
1747.992	n/a	PROB	873996	n/a	LTP306	ltpFR2	13	n/a	n/a	n/a	12	9	2	6	1
1749.242	n/a	PROB	874621	n/a	LTP306	ltpFR2	13	n/a	n/a	n/a	12	9	3	2	4
1751.092	n/a	PROB	875546	n/a	LTP306	ltpFR2	13	n/a	n/a	n/a	12	16	4	3	9
1752.728	n/a	PROB	876364	n/a	LTP306	ltpFR2	13	n/a	n/a	n/a	12	11	7	3	1
1753.828	n/a	PROB	876914	n/a	LTP306	ltpFR2	13	n/a	n/a	n/a	12	14	8	4	2
1755.448	n/a	PROB	877724	n/a	LTP306	ltpFR2	13	n/a	n/a	n/a	12	14	5	8	1
1757.18	n/a	PROB	878590	n/a	LTP306	ltpFR2	13	n/a	n/a	n/a	12	8	1	4	3
1758.418	n/a	PROB	879209	n/a	LTP306	ltpFR2	13	n/a	n/a	n/a	12	7	1	2	4
1759.918	n/a	PROB	879959	n/a	LTP306	ltpFR2	13	n/a	n/a	n/a	12	13	2	8	3
1761.234	n/a	PROB	880617	n/a	LTP306	ltpFR2	13	n/a	n/a	n/a	12	10	3	4	3
1762.752	n/a	PROB	881376	n/a	LTP306	ltpFR2	13	n/a	n/a	n/a	12	15	6	8	1
1765.872	n/a	PROB	882936	n/a	LTP306	ltpFR2	13	n/a	n/a	n/a	12	10	5	3	2
1767.44	n/a	PROB	883720	n/a	LTP306	ltpFR2	13	n/a	n/a	n/a	12	18	1	9	8
1768.514	n/a	STOP	884257	n/a	LTP306	ltpFR2	13	n/a	n/a	n/a	12	n/a	n/a	n/a	n/a
1771.61	n/a	REC_START	885805	n/a	LTP306	ltpFR2	13	8	n/a	n/a	n/a	n/a	0	0	0
1772.452	n/a	REC_WORD	886226	wordpools/wasnorm_wordpool_576.txt	LTP306	ltpFR2	13	8	SPHINX	1349	n/a	n/a	0	0	0
1773.79	n/a	REC_WORD	886895	wordpools/wasnorm_wordpool_576.txt	LTP306	ltpFR2	13	8	DASHBOARD	441	n/a	n/a	0	0	0
1774.774	n/a	REC_WORD	887387	wordpools/wasnorm_wordpool_576.txt	LTP306	ltpFR2	13	8	TRUCK	1512	n/a	n/a	0	0	0
1776.372	n/a	REC_WORD	888186	wordpools/wasnorm_wordpool_576.txt	LTP306	ltpFR2	13	8	HAWK	692	n/a	n/a	0	0	0
1777.972	n/a	REC_WORD	888986	wordpools/wasnorm_wordpool_576.txt	LTP306	ltpFR2	13	8	DRIVER	499	n/a	n/a	0	0	0
1779.09	n/a	REC_WORD	889545	wordpools/wasnorm_wordpool_576.txt	LTP306	ltpFR2	13	8	MISSILE	900	n/a	n/a	0	0	0
1780.534	n/a	REC_WORD	890267	wordpools/wasnorm_wordpool_576.txt	LTP306	ltpFR2	13	8	ROCKET	1202	n/a	n/a	0	0	0
1781.57	n/a	REC_WORD	890785	wordpools/wasnorm_wordpool_576.txt	LTP306	ltpFR2	13	8	LEADER	807	n/a	n/a	0	0	0
1782.456	n/a	REC_WORD	891228	wordpools/wasnorm_wordpool_576.txt	LTP306	ltpFR2	13	8	CRUTCH	417	n/a	n/a	0	0	0
1784.046	n/a	REC_WORD	892023	wordpools/wasnorm_wordpool_576.txt	LTP306	ltpFR2	13	8	APPLE	33	n/a	n/a	0	0	0
1784.928	n/a	REC_WORD	892464	wordpools/wasnorm_wordpool_576.txt	LTP306	ltpFR2	13	8	PIZZA	1079	n/a	n/a	0	0	0
1785.828	n/a	REC_WORD	892914	wordpools/wasnorm_wordpool_576.txt	LTP306	ltpFR2	13	8	ACTOR	5	n/a	n/a	0	0	0
1787.352	n/a	REC_WORD	893676	wordpools/wasnorm_wordpool_576.txt	LTP306	ltpFR2	13	8	LEOPARD	812	n/a	n/a	0	0	0
1788.488	n/a	REC_WORD	894244	wordpools/wasnorm_wordpool_576.txt	LTP306	ltpFR2	13	8	VELVET	1555	n/a	n/a	0	0	0
1790.132	n/a	REC_WORD	895066	wordpools/wasnorm_wordpool_576.txt	LTP306	ltpFR2	13	8	LACE	792	n/a	n/a	0	0	0
1792.206	n/a	REC_WORD	896103	wordpools/wasnorm_wordpool_576.txt	LTP306	ltpFR2	13	8	ASIA	46	n/a	n/a	0	0	0
1793.836	n/a	REC_WORD	896918	wordpools/wasnorm_wordpool_576.txt	LTP306	ltpFR2	13	8	SOFTBALL	1343	n/a	n/a	0	0	0
1795.28	n/a	REC_WORD	897640	wordpools/wasnorm_wordpool_576.txt	LTP306	ltpFR2	13	8	GYMNAST	675	n/a	n/a	0	0	0
1796.382	n/a	REC_WORD	898191	wordpools/wasnorm_wordpool_576.txt	LTP306	ltpFR2	13	8	KIDNEY	776	n/a	n/a	0	0	0
1848.152	n/a	REST_REWET	924076	n/a	LTP306	ltpFR2	13	8	n/a	n/a	n/a	n/a	0	0	0
2036.502	n/a	DISTRACTOR	1018251	n/a	LTP306	ltpFR2	13	9	n/a	n/a	n/a	n/a	0	0	0
2036.502	n/a	START	1018251	n/a	LTP306	ltpFR2	13	n/a	n/a	n/a	13	n/a	n/a	n/a	n/a
2036.516	n/a	PROB	1018258	n/a	LTP306	ltpFR2	13	n/a	n/a	n/a	13	11	3	1	7
2038.234	n/a	PROB	1019117	n/a	LTP306	ltpFR2	13	n/a	n/a	n/a	13	12	5	1	6
2039.452	n/a	PROB	1019726	n/a	LTP306	ltpFR2	13	n/a	n/a	n/a	13	8	1	2	5
2040.804	n/a	PROB	1020402	n/a	LTP306	ltpFR2	13	n/a	n/a	n/a	13	18	7	4	7
2042.57	n/a	PROB	1021285	n/a	LTP306	ltpFR2	13	n/a	n/a	n/a	13	15	7	7	1
2043.688	n/a	PROB	1021844	n/a	LTP306	ltpFR2	13	n/a	n/a	n/a	13	13	4	1	8
2045.272	n/a	PROB	1022636	n/a	LTP306	ltpFR2	13	n/a	n/a	n/a	13	7	3	1	3
2046.958	n/a	PROB	1023479	n/a	LTP306	ltpFR2	13	n/a	n/a	n/a	13	19	1	9	9
2048.158	n/a	PROB	1024079	n/a	LTP306	ltpFR2	13	n/a	n/a	n/a	13	16	2	6	8
2049.326	n/a	PROB	1024663	n/a	LTP306	ltpFR2	13	n/a	n/a	n/a	13	11	1	2	8
2050.794	n/a	PROB	1025397	n/a	LTP306	ltpFR2	13	n/a	n/a	n/a	13	13	6	4	3
2052.012	n/a	PROB	1026006	n/a	LTP306	ltpFR2	13	n/a	n/a	n/a	13	19	9	3	7
2053.596	n/a	PROB	1026798	n/a	LTP306	ltpFR2	13	n/a	n/a	n/a	13	12	1	6	5
2055.614	n/a	PROB	1027807	n/a	LTP306	ltpFR2	13	n/a	n/a	n/a	13	25	9	9	7
2057.15	n/a	PROB	1028575	n/a	LTP306	ltpFR2	13	n/a	n/a	n/a	13	19	8	9	2
2058.684	n/a	PROB	1029342	n/a	LTP306	ltpFR2	13	n/a	n/a	n/a	13	10	2	6	2
2060.158	n/a	STOP	1030079	n/a	LTP306	ltpFR2	13	n/a	n/a	n/a	13	n/a	n/a	n/a	n/a
2061.348	n/a	WORD	1030674	wordpools/wasnorm_wordpool_576.txt	LTP306	ltpFR2	13	9	LUGGAGE	847	n/a	n/a	0	0	0
2063.884	n/a	WORD	1031942	wordpools/wasnorm_wordpool_576.txt	LTP306	ltpFR2	13	9	POSTAGE	1113	n/a	n/a	0	0	0
2066.508	n/a	WORD	1033254	wordpools/wasnorm_wordpool_576.txt	LTP306	ltpFR2	13	9	GUARD	667	n/a	n/a	0	0	0
2069.272	n/a	WORD	1034636	wordpools/wasnorm_wordpool_576.txt	LTP306	ltpFR2	13	9	WORLD	1622	n/a	n/a	0	0	0
2071.978	n/a	WORD	1035989	wordpools/wasnorm_wordpool_576.txt	LTP306	ltpFR2	13	9	COMET	353	n/a	n/a	0	0	0
2074.76	n/a	WORD	1037380	wordpools/wasnorm_wordpool_576.txt	LTP306	ltpFR2	13	9	GRAPE	654	n/a	n/a	0	0	0
2077.412	n/a	WORD	1038706	wordpools/wasnorm_wordpool_576.txt	LTP306	ltpFR2	13	9	LIGHTNING	820	n/a	n/a	0	0	0
2080.032	n/a	WORD	1040016	wordpools/wasnorm_wordpool_576.txt	LTP306	ltpFR2	13	9	SCULPTURE	1258	n/a	n/a	0	0	0
2082.684	n/a	WORD	1041342	wordpools/wasnorm_wordpool_576.txt	LTP306	ltpFR2	13	9	SIBLING	1301	n/a	n/a	0	0	0
2085.468	n/a	WORD	1042734	wordpools/wasnorm_wordpool_576.txt	LTP306	ltpFR2	13	9	GAZELLE	628	n/a	n/a	0	0	0
2087.904	n/a	WORD	1043952	wordpools/wasnorm_wordpool_576.txt	LTP306	ltpFR2	13	9	SKIRT	1319	n/a	n/a	0	0	0
2090.456	n/a	WORD	1045228	wordpools/wasnorm_wordpool_576.txt	LTP306	ltpFR2	13	9	SHIRT	1287	n/a	n/a	0	0	0
2092.992	n/a	WORD	1046496	wordpools/wasnorm_wordpool_576.txt	LTP306	ltpFR2	13	9	BINDER	127	n/a	n/a	0	0	0
2095.58	n/a	WORD	1047790	wordpools/wasnorm_wordpool_576.txt	LTP306	ltpFR2	13	9	SWIMMER	1420	n/a	n/a	0	0	0
2098.314	n/a	WORD	1049157	wordpools/wasnorm_wordpool_576.txt	LTP306	ltpFR2	13	9	RIFLE	1192	n/a	n/a	0	0	0
2101.032	n/a	WORD	1050516	wordpools/wasnorm_wordpool_576.txt	LTP306	ltpFR2	13	9	PIGMENT	1066	n/a	n/a	0	0	0
2103.468	n/a	WORD	1051734	wordpools/wasnorm_wordpool_576.txt	LTP306	ltpFR2	13	9	PIGEON	1065	n/a	n/a	0	0	0
2106.204	n/a	WORD	1053102	wordpools/wasnorm_wordpool_576.txt	LTP306	ltpFR2	13	9	ZIPPER	1636	n/a	n/a	0	0	0
2109.022	n/a	WORD	1054511	wordpools/wasnorm_wordpool_576.txt	LTP306	ltpFR2	13	9	MESSAGE	888	n/a	n/a	0	0	0
2111.708	n/a	WORD	1055854	wordpools/wasnorm_wordpool_576.txt	LTP306	ltpFR2	13	9	ANTLER	29	n/a	n/a	0	0	0
2114.478	n/a	WORD	1057239	wordpools/wasnorm_wordpool_576.txt	LTP306	ltpFR2	13	9	HEADBAND	696	n/a	n/a	0	0	0
2117.246	n/a	WORD	1058623	wordpools/wasnorm_wordpool_576.txt	LTP306	ltpFR2	13	9	WRENCH	1625	n/a	n/a	0	0	0
2119.9	n/a	WORD	1059950	wordpools/wasnorm_wordpool_576.txt	LTP306	ltpFR2	13	9	DRAGON	492	n/a	n/a	0	0	0
2122.5	n/a	WORD	1061250	wordpools/wasnorm_wordpool_576.txt	LTP306	ltpFR2	13	9	MATCH	878	n/a	n/a	0	0	0
2124.118	n/a	START	1062059	n/a	LTP306	ltpFR2	13	n/a	n/a	n/a	14	n/a	n/a	n/a	n/a
2125.144	n/a	DISTRACTOR	1062572	n/a	LTP306	ltpFR2	13	9	n/a	n/a	n/a	n/a	0	0	0
2125.152	n/a	PROB	1062576	n/a	LTP306	ltpFR2	13	n/a	n/a	n/a	14	19	8	9	2
2126.554	n/a	PROB	1063277	n/a	LTP306	ltpFR2	13	n/a	n/a	n/a	14	13	2	7	4
2127.922	n/a	PROB	1063961	n/a	LTP306	ltpFR2	13	n/a	n/a	n/a	14	18	9	7	2
2129.372	n/a	PROB	1064686	n/a	LTP306	ltpFR2	13	n/a	n/a	n/a	14	25	8	8	9
2131.326	n/a	PROB	1065663	n/a	LTP306	ltpFR2	13	n/a	n/a	n/a	14	27	9	9	9
2133.31	n/a	PROB	1066655	n/a	LTP306	ltpFR2	13	n/a	n/a	n/a	14	10	3	5	2
2134.992	n/a	PROB	1067496	n/a	LTP306	ltpFR2	13	n/a	n/a	n/a	14	17	9	3	5
2138.078	n/a	PROB	1069039	n/a	LTP306	ltpFR2	13	n/a	n/a	n/a	14	14	3	4	7
2139.362	n/a	PROB	1069681	n/a	LTP306	ltpFR2	13	n/a	n/a	n/a	14	17	2	8	7
2140.864	n/a	PROB	1070432	n/a	LTP306	ltpFR2	13	n/a	n/a	n/a	14	11	4	3	4
2142.498	n/a	PROB	1071249	n/a	LTP306	ltpFR2	13	n/a	n/a	n/a	14	17	8	2	7
2143.684	n/a	PROB	1071842	n/a	LTP306	ltpFR2	13	n/a	n/a	n/a	14	19	7	6	6
2145.034	n/a	PROB	1072517	n/a	LTP306	ltpFR2	13	n/a	n/a	n/a	14	24	9	8	7
2147.456	n/a	STOP	1073728	n/a	LTP306	ltpFR2	13	n/a	n/a	n/a	14	n/a	n/a	n/a	n/a
2150.054	n/a	REC_START	1075027	n/a	LTP306	ltpFR2	13	9	n/a	n/a	n/a	n/a	0	0	0
2151.068	n/a	REC_WORD	1075534	wordpools/wasnorm_wordpool_576.txt	LTP306	ltpFR2	13	9	GAZELLE	628	n/a	n/a	0	0	0
2152.106	n/a	REC_WORD	1076053	wordpools/wasnorm_wordpool_576.txt	LTP306	ltpFR2	13	9	SKIRT	1319	n/a	n/a	0	0	0
2153.246	n/a	REC_WORD	1076623	wordpools/wasnorm_wordpool_576.txt	LTP306	ltpFR2	13	9	SHIRT	1287	n/a	n/a	0	0	0
2154.752	n/a	REC_WORD	1077376	wordpools/wasnorm_wordpool_576.txt	LTP306	ltpFR2	13	9	MESSAGE	888	n/a	n/a	0	0	0
2156.37	n/a	REC_WORD	1078185	wordpools/wasnorm_wordpool_576.txt	LTP306	ltpFR2	13	9	LIGHTNING	820	n/a	n/a	0	0	0
2157.272	n/a	REC_WORD	1078636	wordpools/wasnorm_wordpool_576.txt	LTP306	ltpFR2	13	9	SCULPTURE	1258	n/a	n/a	0	0	0
2158.506	n/a	REC_WORD	1079253	wordpools/wasnorm_wordpool_576.txt	LTP306	ltpFR2	13	9	SIBLING	1301	n/a	n/a	0	0	0
2160.098	n/a	REC_WORD	1080049	wordpools/wasnorm_wordpool_576.txt	LTP306	ltpFR2	13	9	LUGGAGE	847	n/a	n/a	0	0	0
2161.174	n/a	REC_WORD	1080587	wordpools/wasnorm_wordpool_576.txt	LTP306	ltpFR2	13	9	POSTAGE	1113	n/a	n/a	0	0	0
2162.342	n/a	REC_WORD	1081171	wordpools/wasnorm_wordpool_576.txt	LTP306	ltpFR2	13	9	GUARD	667	n/a	n/a	0	0	0
2164.852	n/a	REC_WORD	1082426	wordpools/wasnorm_wordpool_576.txt	LTP306	ltpFR2	13	9	WORLD	1622	n/a	n/a	0	0	0
2165.88	n/a	REC_WORD	1082940	wordpools/wasnorm_wordpool_576.txt	LTP306	ltpFR2	13	9	COMET	353	n/a	n/a	0	0	0
2167.046	n/a	REC_WORD	1083523	wordpools/wasnorm_wordpool_576.txt	LTP306	ltpFR2	13	9	GRAPE	654	n/a	n/a	0	0	0
2173.466	n/a	REC_WORD	1086733	wordpools/wasnorm_wordpool_576.txt	LTP306	ltpFR2	13	9	DRAGON	492	n/a	n/a	0	0	0
2174.68	n/a	REC_WORD	1087340	wordpools/wasnorm_wordpool_576.txt	LTP306	ltpFR2	13	9	WRENCH	1625	n/a	n/a	0	0	0
2175.692	n/a	REC_WORD	1087846	wordpools/wasnorm_wordpool_576.txt	LTP306	ltpFR2	13	9	MATCH	878	n/a	n/a	0	0	0
2177.294	n/a	REC_WORD	1088647	wordpools/wasnorm_wordpool_576.txt	LTP306	ltpFR2	13	9	SWIMMER	1420	n/a	n/a	0	0	0
2179.026	n/a	REC_WORD	1089513	wordpools/wasnorm_wordpool_576.txt	LTP306	ltpFR2	13	9	RIFLE	1192	n/a	n/a	0	0	0
2185.886	n/a	REC_WORD	1092943	wordpools/wasnorm_wordpool_576.txt	LTP306	ltpFR2	13	9	PIGEON	1065	n/a	n/a	0	0	0
2240.492	n/a	WORD	1120246	wordpools/wasnorm_wordpool_576.txt	LTP306	ltpFR2	13	10	NOVEL	960	n/a	n/a	0	0	0
2242.928	n/a	WORD	1121464	wordpools/wasnorm_wordpool_576.txt	LTP306	ltpFR2	13	10	JOURNAL	760	n/a	n/a	0	0	0
2245.406	n/a	WORD	1122703	wordpools/wasnorm_wordpool_576.txt	LTP306	ltpFR2	13	10	TROUT	1511	n/a	n/a	0	0	0
2248.114	n/a	WORD	1124057	wordpools/wasnorm_wordpool_576.txt	LTP306	ltpFR2	13	10	CYCLONE	431	n/a	n/a	0	0	0
2250.66	n/a	WORD	1125330	wordpools/wasnorm_wordpool_576.txt	LTP306	ltpFR2	13	10	CANDY	230	n/a	n/a	0	0	0
2253.228	n/a	WORD	1126614	wordpools/wasnorm_wordpool_576.txt	LTP306	ltpFR2	13	10	COUSIN	392	n/a	n/a	0	0	0
2255.93	n/a	WORD	1127965	wordpools/wasnorm_wordpool_576.txt	LTP306	ltpFR2	13	10	YOLK	1633	n/a	n/a	0	0	0
2258.666	n/a	WORD	1129333	wordpools/wasnorm_wordpool_576.txt	LTP306	ltpFR2	13	10	AWARD	63	n/a	n/a	0	0	0
2261.368	n/a	WORD	1130684	wordpools/wasnorm_wordpool_576.txt	LTP306	ltpFR2	13	10	BEAKER	104	n/a	n/a	0	0	0
2263.91	n/a	WORD	1131955	wordpools/wasnorm_wordpool_576.txt	LTP306	ltpFR2	13	10	STAMP	1370	n/a	n/a	0	0	0
2266.38	n/a	WORD	1133190	wordpools/wasnorm_wordpool_576.txt	LTP306	ltpFR2	13	10	PILOT	1070	n/a	n/a	0	0	0
2268.816	n/a	WORD	1134408	wordpools/wasnorm_wordpool_576.txt	LTP306	ltpFR2	13	10	ITEM	746	n/a	n/a	0	0	0
2271.41	n/a	WORD	1135705	wordpools/wasnorm_wordpool_576.txt	LTP306	ltpFR2	13	10	FLASK	576	n/a	n/a	0	0	0
2273.828	n/a	WORD	1136914	wordpools/wasnorm_wordpool_576.txt	LTP306	ltpFR2	13	10	ISLAND	745	n/a	n/a	0	0	0
2276.364	n/a	WORD	1138182	wordpools/wasnorm_wordpool_576.txt	LTP306	ltpFR2	13	10	MILK	895	n/a	n/a	0	0	0
2278.85	n/a	WORD	1139425	wordpools/wasnorm_wordpool_576.txt	LTP306	ltpFR2	13	10	MAILBOX	857	n/a	n/a	0	0	0
2281.286	n/a	WORD	1140643	wordpools/wasnorm_wordpool_576.txt	LTP306	ltpFR2	13	10	REPORT	1184	n/a	n/a	0	0	0
2283.71	n/a	WORD	1141855	wordpools/wasnorm_wordpool_576.txt	LTP306	ltpFR2	13	10	NEUTRON	947	n/a	n/a	0	0	0
2286.462	n/a	WORD	1143231	wordpools/wasnorm_wordpool_576.txt	LTP306	ltpFR2	13	10	LIZARD	834	n/a	n/a	0	0	0
2288.964	n/a	WORD	1144482	wordpools/wasnorm_wordpool_576.txt	LTP306	ltpFR2	13	10	CRIB	407	n/a	n/a	0	0	0
2291.41	n/a	WORD	1145705	wordpools/wasnorm_wordpool_576.txt	LTP306	ltpFR2	13	10	RATTLE	1170	n/a	n/a	0	0	0
2294.212	n/a	WORD	1147106	wordpools/wasnorm_wordpool_576.txt	LTP306	ltpFR2	13	10	JELLY	755	n/a	n/a	0	0	0
2296.698	n/a	WORD	1148349	wordpools/wasnorm_wordpool_576.txt	LTP306	ltpFR2	13	10	GREASE	660	n/a	n/a	0	0	0
2299.284	n/a	WORD	1149642	wordpools/wasnorm_wordpool_576.txt	LTP306	ltpFR2	13	10	DRINK	498	n/a	n/a	0	0	0
2300.892	n/a	START	1150446	n/a	LTP306	ltpFR2	13	n/a	n/a	n/a	15	n/a	n/a	n/a	n/a
2302.072	n/a	DISTRACTOR	1151036	n/a	LTP306	ltpFR2	13	10	n/a	n/a	n/a	n/a	0	0	0
2302.086	n/a	PROB	1151043	n/a	LTP306	ltpFR2	13	n/a	n/a	n/a	15	15	7	6	2
2304.592	n/a	PROB	1152296	n/a	LTP306	ltpFR2	13	n/a	n/a	n/a	15	12	3	1	8
2306.026	n/a	PROB	1153013	n/a	LTP306	ltpFR2	13	n/a	n/a	n/a	15	23	9	6	8
2308.26	n/a	PROB	1154130	n/a	LTP306	ltpFR2	13	n/a	n/a	n/a	15	11	6	4	1
2309.38	n/a	PROB	1154690	n/a	LTP306	ltpFR2	13	n/a	n/a	n/a	15	16	5	8	3
2311.264	n/a	PROB	1155632	n/a	LTP306	ltpFR2	13	n/a	n/a	n/a	15	12	1	8	3
2312.648	n/a	PROB	1156324	n/a	LTP306	ltpFR2	13	n/a	n/a	n/a	15	14	8	3	3
2314.262	n/a	PROB	1157131	n/a	LTP306	ltpFR2	13	n/a	n/a	n/a	15	15	4	8	3
2315.762	n/a	PROB	1157881	n/a	LTP306	ltpFR2	13	n/a	n/a	n/a	15	21	7	6	8
2317.852	n/a	PROB	1158926	n/a	LTP306	ltpFR2	13	n/a	n/a	n/a	15	8	5	2	1
2319.148	n/a	PROB	1159574	n/a	LTP306	ltpFR2	13	n/a	n/a	n/a	15	14	6	1	7
2320.672	n/a	PROB	1160336	n/a	LTP306	ltpFR2	13	n/a	n/a	n/a	15	17	6	9	2
2323.17	n/a	PROB	1161585	n/a	LTP306	ltpFR2	13	n/a	n/a	n/a	15	14	1	6	7
2324.46	n/a	STOP	1162230	n/a	LTP306	ltpFR2	13	n/a	n/a	n/a	15	n/a	n/a	n/a	n/a
2326.722	n/a	REC_START	1163361	n/a	LTP306	ltpFR2	13	10	n/a	n/a	n/a	n/a	0	0	0
2329.05	n/a	REC_WORD	1164525	wordpools/wasnorm_wordpool_576.txt	LTP306	ltpFR2	13	10	PILOT	1070	n/a	n/a	0	0	0
2329.954	n/a	REC_WORD	1164977	wordpools/wasnorm_wordpool_576.txt	LTP306	ltpFR2	13	10	STAMP	1370	n/a	n/a	0	0	0
2331.718	n/a	REC_WORD	1165859	wordpools/wasnorm_wordpool_576.txt	LTP306	ltpFR2	13	10	NOVEL	960	n/a	n/a	0	0	0
2332.738	n/a	REC_WORD	1166369	wordpools/wasnorm_wordpool_576.txt	LTP306	ltpFR2	13	10	JOURNAL	760	n/a	n/a	0	0	0
2333.706	n/a	REC_WORD	1166853	wordpools/wasnorm_wordpool_576.txt	LTP306	ltpFR2	13	10	TROUT	1511	n/a	n/a	0	0	0
2336.01	n/a	REC_WORD	1168005	wordpools/wasnorm_wordpool_576.txt	LTP306	ltpFR2	13	10	CYCLONE	431	n/a	n/a	0	0	0
2337.214	n/a	REC_WORD	1168607	wordpools/wasnorm_wordpool_576.txt	LTP306	ltpFR2	13	10	COUSIN	392	n/a	n/a	0	0	0
2338.23	n/a	REC_WORD	1169115	wordpools/wasnorm_wordpool_576.txt	LTP306	ltpFR2	13	10	CANDY	230	n/a	n/a	0	0	0
2340.304	n/a	REC_WORD	1170152	wordpools/wasnorm_wordpool_576.txt	LTP306	ltpFR2	13	10	ISLAND	745	n/a	n/a	0	0	0
2341.236	n/a	REC_WORD	1170618	wordpools/wasnorm_wordpool_576.txt	LTP306	ltpFR2	13	10	FLASK	576	n/a	n/a	0	0	0
2342.606	n/a	REC_WORD	1171303	wordpools/wasnorm_wordpool_576.txt	LTP306	ltpFR2	13	10	MILK	895	n/a	n/a	0	0	0
2345.062	n/a	REC_WORD	1172531	wordpools/wasnorm_wordpool_576.txt	LTP306	ltpFR2	13	10	LIZARD	834	n/a	n/a	0	0	0
2346.088	n/a	REC_WORD	1173044	wordpools/wasnorm_wordpool_576.txt	LTP306	ltpFR2	13	10	CRIB	407	n/a	n/a	0	0	0
2347.276	n/a	REC_WORD	1173638	wordpools/wasnorm_wordpool_576.txt	LTP306	ltpFR2	13	10	RATTLE	1170	n/a	n/a	0	0	0
2385.162	n/a	REC_WORD	1192581	wordpools/wasnorm_wordpool_576.txt	LTP306	ltpFR2	13	10	JELLY	755	n/a	n/a	0	0	0
2386.274	n/a	REC_WORD	1193137	wordpools/wasnorm_wordpool_576.txt	LTP306	ltpFR2	13	10	GREASE	660	n/a	n/a	0	0	0
2387.458	n/a	REC_WORD	1193729	wordpools/wasnorm_wordpool_576.txt	LTP306	ltpFR2	13	10	DRINK	498	n/a	n/a	0	0	0
2417.162	n/a	WORD	1208581	wordpools/wasnorm_wordpool_576.txt	LTP306	ltpFR2	13	11	CROSS	413	n/a	n/a	0	0	0
2419.698	n/a	WORD	1209849	wordpools/wasnorm_wordpool_576.txt	LTP306	ltpFR2	13	11	CHAPEL	280	n/a	n/a	0	0	0
2422.338	n/a	WORD	1211169	wordpools/wasnorm_wordpool_576.txt	LTP306	ltpFR2	13	11	TUNNEL	1519	n/a	n/a	0	0	0
2425.02	n/a	WORD	1212510	wordpools/wasnorm_wordpool_576.txt	LTP306	ltpFR2	13	11	CHIPMUNK	304	n/a	n/a	0	0	0
2427.44	n/a	WORD	1213720	wordpools/wasnorm_wordpool_576.txt	LTP306	ltpFR2	13	11	PORK	1108	n/a	n/a	0	0	0
2430.124	n/a	WORD	1215062	wordpools/wasnorm_wordpool_576.txt	LTP306	ltpFR2	13	11	PUPPY	1144	n/a	n/a	0	0	0
2432.676	n/a	WORD	1216338	wordpools/wasnorm_wordpool_576.txt	LTP306	ltpFR2	13	11	SHOULDER	1294	n/a	n/a	0	0	0
2435.346	n/a	WORD	1217673	wordpools/wasnorm_wordpool_576.txt	LTP306	ltpFR2	13	11	WASP	1593	n/a	n/a	0	0	0
2438.162	n/a	WORD	1219081	wordpools/wasnorm_wordpool_576.txt	LTP306	ltpFR2	13	11	BUREAU	199	n/a	n/a	0	0	0
2440.798	n/a	WORD	1220399	wordpools/wasnorm_wordpool_576.txt	LTP306	ltpFR2	13	11	FLASHLIGHT	575	n/a	n/a	0	0	0
2443.518	n/a	WORD	1221759	wordpools/wasnorm_wordpool_576.txt	LTP306	ltpFR2	13	11	FOX	598	n/a	n/a	0	0	0
2446.17	n/a	WORD	1223085	wordpools/wasnorm_wordpool_576.txt	LTP306	ltpFR2	13	11	CLOUD	328	n/a	n/a	0	0	0
2448.938	n/a	WORD	1224469	wordpools/wasnorm_wordpool_576.txt	LTP306	ltpFR2	13	11	COCOON	339	n/a	n/a	0	0	0
2451.474	n/a	WORD	1225737	wordpools/wasnorm_wordpool_576.txt	LTP306	ltpFR2	13	11	RADISH	1158	n/a	n/a	0	0	0
2454.176	n/a	WORD	1227088	wordpools/wasnorm_wordpool_576.txt	LTP306	ltpFR2	13	11	HONEY	713	n/a	n/a	0	0	0
2456.994	n/a	WORD	1228497	wordpools/wasnorm_wordpool_576.txt	LTP306	ltpFR2	13	11	WITNESS	1618	n/a	n/a	0	0	0
2459.53	n/a	WORD	1229765	wordpools/wasnorm_wordpool_576.txt	LTP306	ltpFR2	13	11	HORNET	718	n/a	n/a	0	0	0
2462.256	n/a	WORD	1231128	wordpools/wasnorm_wordpool_576.txt	LTP306	ltpFR2	13	11	ROBIN	1199	n/a	n/a	0	0	0
2465.068	n/a	WORD	1232534	wordpools/wasnorm_wordpool_576.txt	LTP306	ltpFR2	13	11	OYSTER	995	n/a	n/a	0	0	0
2467.86	n/a	WORD	1233930	wordpools/wasnorm_wordpool_576.txt	LTP306	ltpFR2	13	11	SEAFOOD	1260	n/a	n/a	0	0	0
2470.306	n/a	WORD	1235153	wordpools/wasnorm_wordpool_576.txt	LTP306	ltpFR2	13	11	ULCER	1533	n/a	n/a	0	0	0
2472.898	n/a	WORD	1236449	wordpools/wasnorm_wordpool_576.txt	LTP306	ltpFR2	13	11	SUNSET	1408	n/a	n/a	0	0	0
2475.376	n/a	WORD	1237688	wordpools/wasnorm_wordpool_576.txt	LTP306	ltpFR2	13	11	CRATER	400	n/a	n/a	0	0	0
2477.986	n/a	WORD	1238993	wordpools/wasnorm_wordpool_576.txt	LTP306	ltpFR2	13	11	EXPERT	543	n/a	n/a	0	0	0
2479.596	n/a	START	1239798	n/a	LTP306	ltpFR2	13	n/a	n/a	n/a	16	n/a	n/a	n/a	n/a
2480.532	n/a	DISTRACTOR	1240266	n/a	LTP306	ltpFR2	13	11	n/a	n/a	n/a	n/a	0	0	0
2480.538	n/a	PROB	1240269	n/a	LTP306	ltpFR2	13	n/a	n/a	n/a	16	12	7	3	2
2482.296	n/a	PROB	1241148	n/a	LTP306	ltpFR2	13	n/a	n/a	n/a	16	15	3	9	3
2483.93	n/a	PROB	1241965	n/a	LTP306	ltpFR2	13	n/a	n/a	n/a	16	16	9	3	4
2486.284	n/a	PROB	1243142	n/a	LTP306	ltpFR2	13	n/a	n/a	n/a	16	6	1	3	2
2487.552	n/a	PROB	1243776	n/a	LTP306	ltpFR2	13	n/a	n/a	n/a	16	10	2	3	5
2488.986	n/a	PROB	1244493	n/a	LTP306	ltpFR2	13	n/a	n/a	n/a	16	18	3	9	6
2490.536	n/a	PROB	1245268	n/a	LTP306	ltpFR2	13	n/a	n/a	n/a	16	9	2	1	6
2491.72	n/a	PROB	1245860	n/a	LTP306	ltpFR2	13	n/a	n/a	n/a	16	12	3	3	6
2493.188	n/a	PROB	1246594	n/a	LTP306	ltpFR2	13	n/a	n/a	n/a	16	10	7	2	1
2494.422	n/a	PROB	1247211	n/a	LTP306	ltpFR2	13	n/a	n/a	n/a	16	19	2	8	9
2495.706	n/a	PROB	1247853	n/a	LTP306	ltpFR2	13	n/a	n/a	n/a	16	25	7	9	9
2497.708	n/a	PROB	1248854	n/a	LTP306	ltpFR2	13	n/a	n/a	n/a	16	20	9	8	3
2499.178	n/a	PROB	1249589	n/a	LTP306	ltpFR2	13	n/a	n/a	n/a	16	15	5	3	7
2500.878	n/a	PROB	1250439	n/a	LTP306	ltpFR2	13	n/a	n/a	n/a	16	17	9	2	6
2503.15	n/a	STOP	1251575	n/a	LTP306	ltpFR2	13	n/a	n/a	n/a	16	n/a	n/a	n/a	n/a
2505.384	n/a	REC_START	1252692	n/a	LTP306	ltpFR2	13	11	n/a	n/a	n/a	n/a	0	0	0
2507.318	n/a	REC_WORD	1253659	wordpools/wasnorm_wordpool_576.txt	LTP306	ltpFR2	13	11	SUNSET	1408	n/a	n/a	0	0	0
2508.484	n/a	REC_WORD	1254242	wordpools/wasnorm_wordpool_576.txt	LTP306	ltpFR2	13	11	CRATER	400	n/a	n/a	0	0	0
2509.408	n/a	REC_WORD	1254704	wordpools/wasnorm_wordpool_576.txt	LTP306	ltpFR2	13	11	EXPERT	543	n/a	n/a	0	0	0
2511.658	n/a	REC_WORD	1255829	wordpools/wasnorm_wordpool_576.txt	LTP306	ltpFR2	13	11	WITNESS	1618	n/a	n/a	0	0	0
2515.71	n/a	REC_WORD	1257855	wordpools/wasnorm_wordpool_576.txt	LTP306	ltpFR2	13	11	OYSTER	995	n/a	n/a	0	0	0
2516.734	n/a	REC_WORD	1258367	wordpools/wasnorm_wordpool_576.txt	LTP306	ltpFR2	13	11	SEAFOOD	1260	n/a	n/a	0	0	0
2518.05	n/a	REC_WORD	1259025	wordpools/wasnorm_wordpool_576.txt	LTP306	ltpFR2	13	11	ULCER	1533	n/a	n/a	0	0	0
2519.678	n/a	REC_WORD	1259839	wordpools/wasnorm_wordpool_576.txt	LTP306	ltpFR2	13	11	FOX	598	n/a	n/a	0	0	0
2520.826	n/a	REC_WORD	1260413	wordpools/wasnorm_wordpool_576.txt	LTP306	ltpFR2	13	11	FLASHLIGHT	575	n/a	n/a	0	0	0
2523.212	n/a	REC_WORD	1261606	wordpools/wasnorm_wordpool_576.txt	LTP306	ltpFR2	13	11	CHIPMUNK	304	n/a	n/a	0	0	0
2524.434	n/a	REC_WORD	1262217	wordpools/wasnorm_wordpool_576.txt	LTP306	ltpFR2	13	11	PORK	1108	n/a	n/a	0	0	0
2525.622	n/a	REC_WORD	1262811	wordpools/wasnorm_wordpool_576.txt	LTP306	ltpFR2	13	11	PUPPY	1144	n/a	n/a	0	0	0
2535.798	n/a	REC_WORD	1267899	wordpools/wasnorm_wordpool_576.txt	LTP306	ltpFR2	13	11	RADISH	1158	n/a	n/a	0	0	0
2540.564	n/a	REC_WORD	1270282	wordpools/wasnorm_wordpool_576.txt	LTP306	ltpFR2	13	11	SHOULDER	1294	n/a	n/a	0	0	0
2541.714	n/a	REC_WORD	1270857	wordpools/wasnorm_wordpool_576.txt	LTP306	ltpFR2	13	11	WASP	1593	n/a	n/a	0	0	0
2543.042	n/a	REC_WORD	1271521	wordpools/wasnorm_wordpool_576.txt	LTP306	ltpFR2	13	11	BUREAU	199	n/a	n/a	0	0	0
2544.756	n/a	REC_WORD	1272378	wordpools/wasnorm_wordpool_576.txt	LTP306	ltpFR2	13	11	HORNET	718	n/a	n/a	0	0	0
2595.836	n/a	DISTRACTOR	1297918	n/a	LTP306	ltpFR2	13	12	n/a	n/a	n/a	n/a	0	0	0
2595.836	n/a	START	1297918	n/a	LTP306	ltpFR2	13	n/a	n/a	n/a	17	n/a	n/a	n/a	n/a
2595.854	n/a	PROB	1297927	n/a	LTP306	ltpFR2	13	n/a	n/a	n/a	17	16	7	7	2
2597.404	n/a	PROB	1298702	n/a	LTP306	ltpFR2	13	n/a	n/a	n/a	17	19	3	8	8
2598.87	n/a	PROB	1299435	n/a	LTP306	ltpFR2	13	n/a	n/a	n/a	17	9	2	4	3
2600.474	n/a	PROB	1300237	n/a	LTP306	ltpFR2	13	n/a	n/a	n/a	17	22	8	5	9
2602.206	n/a	PROB	1301103	n/a	LTP306	ltpFR2	13	n/a	n/a	n/a	17	17	6	8	3
2603.926	n/a	PROB	1301963	n/a	LTP306	ltpFR2	13	n/a	n/a	n/a	17	21	9	6	6
2606.246	n/a	PROB	1303123	n/a	LTP306	ltpFR2	13	n/a	n/a	n/a	17	18	5	7	6
2608.978	n/a	PROB	1304489	n/a	LTP306	ltpFR2	13	n/a	n/a	n/a	17	18	7	7	4
2610.446	n/a	PROB	1305223	n/a	LTP306	ltpFR2	13	n/a	n/a	n/a	17	15	3	6	6
2612.732	n/a	PROB	1306366	n/a	LTP306	ltpFR2	13	n/a	n/a	n/a	17	15	3	6	6
2613.834	n/a	PROB	1306917	n/a	LTP306	ltpFR2	13	n/a	n/a	n/a	17	13	3	2	8
2616.184	n/a	PROB	1308092	n/a	LTP306	ltpFR2	13	n/a	n/a	n/a	17	16	2	7	7
2617.354	n/a	PROB	1308677	n/a	LTP306	ltpFR2	13	n/a	n/a	n/a	17	10	4	5	1
2618.736	n/a	STOP	1309368	n/a	LTP306	ltpFR2	13	n/a	n/a	n/a	17	n/a	n/a	n/a	n/a
2620.94	n/a	WORD	1310470	wordpools/wasnorm_wordpool_576.txt	LTP306	ltpFR2	13	12	CABIN	211	n/a	n/a	0	0	0
2623.374	n/a	WORD	1311687	wordpools/wasnorm_wordpool_576.txt	LTP306	ltpFR2	13	12	SWAMP	1416	n/a	n/a	0	0	0
2626.176	n/a	WORD	1313088	wordpools/wasnorm_wordpool_576.txt	LTP306	ltpFR2	13	12	BOUQUET	157	n/a	n/a	0	0	0
2628.678	n/a	WORD	1314339	wordpools/wasnorm_wordpool_576.txt	LTP306	ltpFR2	13	12	ATOM	55	n/a	n/a	0	0	0
2631.482	n/a	WORD	1315741	wordpools/wasnorm_wordpool_576.txt	LTP306	ltpFR2	13	12	RELISH	1183	n/a	n/a	0	0	0
2634.116	n/a	WORD	1317058	wordpools/wasnorm_wordpool_576.txt	LTP306	ltpFR2	13	12	COOKBOOK	373	n/a	n/a	0	0	0
2636.752	n/a	WORD	1318376	wordpools/wasnorm_wordpool_576.txt	LTP306	ltpFR2	13	12	SCARF	1246	n/a	n/a	0	0	0
2639.27	n/a	WORD	1319635	wordpools/wasnorm_wordpool_576.txt	LTP306	ltpFR2	13	12	FOREHEAD	592	n/a	n/a	0	0	0
2641.94	n/a	WORD	1320970	wordpools/wasnorm_wordpool_576.txt	LTP306	ltpFR2	13	12	DRESSER	496	n/a	n/a	0	0	0
2644.424	n/a	WORD	1322212	wordpools/wasnorm_wordpool_576.txt	LTP306	ltpFR2	13	12	COBRA	336	n/a	n/a	0	0	0
2646.942	n/a	WORD	1323471	wordpools/wasnorm_wordpool_576.txt	LTP306	ltpFR2	13	12	STALLION	1369	n/a	n/a	0	0	0
2649.532	n/a	WORD	1324766	wordpools/wasnorm_wordpool_576.txt	LTP306	ltpFR2	13	12	FOOTBALL	591	n/a	n/a	0	0	0
2652.15	n/a	WORD	1326075	wordpools/wasnorm_wordpool_576.txt	LTP306	ltpFR2	13	12	NURSE	963	n/a	n/a	0	0	0
2654.952	n/a	WORD	1327476	wordpools/wasnorm_wordpool_576.txt	LTP306	ltpFR2	13	12	NAPKIN	937	n/a	n/a	0	0	0
2657.684	n/a	WORD	1328842	wordpools/wasnorm_wordpool_576.txt	LTP306	ltpFR2	13	12	FIREMAN	569	n/a	n/a	0	0	0
2660.42	n/a	WORD	1330210	wordpools/wasnorm_wordpool_576.txt	LTP306	ltpFR2	13	12	VALVE	1546	n/a	n/a	0	0	0
2662.888	n/a	WORD	1331444	wordpools/wasnorm_wordpool_576.txt	LTP306	ltpFR2	13	12	MOTOR	922	n/a	n/a	0	0	0
2665.46	n/a	WORD	1332730	wordpools/wasnorm_wordpool_576.txt	LTP306	ltpFR2	13	12	INMATE	738	n/a	n/a	0	0	0
2668.276	n/a	WORD	1334138	wordpools/wasnorm_wordpool_576.txt	LTP306	ltpFR2	13	12	SNAKE	1333	n/a	n/a	0	0	0
2670.712	n/a	WORD	1335356	wordpools/wasnorm_wordpool_576.txt	LTP306	ltpFR2	13	12	WAGON	1578	n/a	n/a	0	0	0
2673.35	n/a	WORD	1336675	wordpools/wasnorm_wordpool_576.txt	LTP306	ltpFR2	13	12	TABLET	1427	n/a	n/a	0	0	0
2675.798	n/a	WORD	1337899	wordpools/wasnorm_wordpool_576.txt	LTP306	ltpFR2	13	12	SPOUSE	1358	n/a	n/a	0	0	0
2678.488	n/a	WORD	1339244	wordpools/wasnorm_wordpool_576.txt	LTP306	ltpFR2	13	12	HORSE	719	n/a	n/a	0	0	0
2680.986	n/a	WORD	1340493	wordpools/wasnorm_wordpool_576.txt	LTP306	ltpFR2	13	12	RIVER	1194	n/a	n/a	0	0	0
2682.594	n/a	START	1341297	n/a	LTP306	ltpFR2	13	n/a	n/a	n/a	18	n/a	n/a	n/a	n/a
2683.76	n/a	DISTRACTOR	1341880	n/a	LTP306	ltpFR2	13	12	n/a	n/a	n/a	n/a	0	0	0
2683.772	n/a	PROB	1341886	n/a	LTP306	ltpFR2	13	n/a	n/a	n/a	18	16	5	5	6
2685.138	n/a	PROB	1342569	n/a	LTP306	ltpFR2	13	n/a	n/a	n/a	18	5	2	1	2
2686.29	n/a	PROB	1343145	n/a	LTP306	ltpFR2	13	n/a	n/a	n/a	18	13	3	5	5
2687.556	n/a	PROB	1343778	n/a	LTP306	ltpFR2	13	n/a	n/a	n/a	18	18	3	7	8
2688.86	n/a	PROB	1344430	n/a	LTP306	ltpFR2	13	n/a	n/a	n/a	18	15	3	6	6
2690.092	n/a	PROB	1345046	n/a	LTP306	ltpFR2	13	n/a	n/a	n/a	18	17	7	1	9
2691.894	n/a	PROB	1345947	n/a	LTP306	ltpFR2	13	n/a	n/a	n/a	18	18	1	8	9
2693.162	n/a	PROB	1346581	n/a	LTP306	ltpFR2	13	n/a	n/a	n/a	18	10	3	2	5
2694.43	n/a	PROB	1347215	n/a	LTP306	ltpFR2	13	n/a	n/a	n/a	18	17	1	8	8
2695.93	n/a	PROB	1347965	n/a	LTP306	ltpFR2	13	n/a	n/a	n/a	18	14	5	6	3
2697.916	n/a	PROB	1348958	n/a	LTP306	ltpFR2	13	n/a	n/a	n/a	18	8	3	1	4
2699.332	n/a	PROB	1349666	n/a	LTP306	ltpFR2	13	n/a	n/a	n/a	18	14	6	1	7
2701.284	n/a	PROB	1350642	n/a	LTP306	ltpFR2	13	n/a	n/a	n/a	18	17	8	8	1
2702.718	n/a	PROB	1351359	n/a	LTP306	ltpFR2	13	n/a	n/a	n/a	18	20	4	9	7
2706.592	n/a	STOP	1353296	n/a	LTP306	ltpFR2	13	n/a	n/a	n/a	18	n/a	n/a	n/a	n/a
2708.374	n/a	REC_START	1354187	n/a	LTP306	ltpFR2	13	12	n/a	n/a	n/a	n/a	0	0	0
2710.214	n/a	REC_WORD	1355107	wordpools/wasnorm_wordpool_576.txt	LTP306	ltpFR2	13	12	VALVE	1546	n/a	n/a	0	0	0
2711.196	n/a	REC_WORD	1355598	wordpools/wasnorm_wordpool_576.txt	LTP306	ltpFR2	13	12	MOTOR	922	n/a	n/a	0	0	0
2712.052	n/a	REC_WORD	1356026	wordpools/wasnorm_wordpool_576.txt	LTP306	ltpFR2	13	12	INMATE	738	n/a	n/a	0	0	0
2713.73	n/a	REC_WORD	1356865	wordpools/wasnorm_wordpool_576.txt	LTP306	ltpFR2	13	12	HORSE	719	n/a	n/a	0	0	0
2714.548	n/a	REC_WORD	1357274	wordpools/wasnorm_wordpool_576.txt	LTP306	ltpFR2	13	12	SNAKE	1333	n/a	n/a	0	0	0
2716.262	n/a	REC_WORD	1358131	wordpools/wasnorm_wordpool_576.txt	LTP306	ltpFR2	13	12	COBRA	336	n/a	n/a	0	0	0
2717.066	n/a	REC_WORD	1358533	wordpools/wasnorm_wordpool_576.txt	LTP306	ltpFR2	13	12	STALLION	1369	n/a	n/a	0	0	0
2718.006	n/a	REC_WORD	1359003	wordpools/wasnorm_wordpool_576.txt	LTP306	ltpFR2	13	12	FOOTBALL	591	n/a	n/a	0	0	0
2719.89	n/a	REC_WORD	1359945	wordpools/wasnorm_wordpool_576.txt	LTP306	ltpFR2	13	12	CABIN	211	n/a	n/a	0	0	0
2720.718	n/a	REC_WORD	1360359	wordpools/wasnorm_wordpool_576.txt	LTP306	ltpFR2	13	12	SWAMP	1416	n/a	n/a	0	0	0
2721.874	n/a	REC_WORD	1360937	wordpools/wasnorm_wordpool_576.txt	LTP306	ltpFR2	13	12	BOUQUET	157	n/a	n/a	0	0	0
2730.57	n/a	REC_WORD	1365285	wordpools/wasnorm_wordpool_576.txt	LTP306	ltpFR2	13	12	ATOM	55	n/a	n/a	0	0	0
2732.542	n/a	REC_WORD	1366271	wordpools/wasnorm_wordpool_576.txt	LTP306	ltpFR2	13	12	RELISH	1183	n/a	n/a	0	0	0
2733.662	n/a	REC_WORD	1366831	wordpools/wasnorm_wordpool_576.txt	LTP306	ltpFR2	13	12	COOKBOOK	373	n/a	n/a	0	0	0
2735.392	n/a	REC_WORD	1367696	wordpools/wasnorm_wordpool_576.txt	LTP306	ltpFR2	13	12	SCARF	1246	n/a	n/a	0	0	0
2736.73	n/a	REC_WORD	1368365	wordpools/wasnorm_wordpool_576.txt	LTP306	ltpFR2	13	12	FOREHEAD	592	n/a	n/a	0	0	0
2857.722	n/a	WORD	1428861	wordpools/wasnorm_wordpool_576.txt	LTP306	ltpFR2	13	13	BRACES	164	n/a	n/a	0	0	0
2860.492	n/a	WORD	1430246	wordpools/wasnorm_wordpool_576.txt	LTP306	ltpFR2	13	13	HOUND	724	n/a	n/a	0	0	0
2863.212	n/a	WORD	1431606	wordpools/wasnorm_wordpool_576.txt	LTP306	ltpFR2	13	13	CATCHER	258	n/a	n/a	0	0	0
2865.664	n/a	WORD	1432832	wordpools/wasnorm_wordpool_576.txt	LTP306	ltpFR2	13	13	SCALLOP	1242	n/a	n/a	0	0	0
2868.482	n/a	WORD	1434241	wordpools/wasnorm_wordpool_576.txt	LTP306	ltpFR2	13	13	CIGAR	308	n/a	n/a	0	0	0
2871.184	n/a	WORD	1435592	wordpools/wasnorm_wordpool_576.txt	LTP306	ltpFR2	13	13	MEAT	883	n/a	n/a	0	0	0
2873.92	n/a	WORD	1436960	wordpools/wasnorm_wordpool_576.txt	LTP306	ltpFR2	13	13	FREEZER	604	n/a	n/a	0	0	0
2876.606	n/a	WORD	1438303	wordpools/wasnorm_wordpool_576.txt	LTP306	ltpFR2	13	13	PATROL	1027	n/a	n/a	0	0	0
2879.174	n/a	WORD	1439587	wordpools/wasnorm_wordpool_576.txt	LTP306	ltpFR2	13	13	KLEENEX	782	n/a	n/a	0	0	0
2881.892	n/a	WORD	1440946	wordpools/wasnorm_wordpool_576.txt	LTP306	ltpFR2	13	13	OX	994	n/a	n/a	0	0	0
2884.462	n/a	WORD	1442231	wordpools/wasnorm_wordpool_576.txt	LTP306	ltpFR2	13	13	GLOVE	642	n/a	n/a	0	0	0
2887.112	n/a	WORD	1443556	wordpools/wasnorm_wordpool_576.txt	LTP306	ltpFR2	13	13	FINGER	567	n/a	n/a	0	0	0
2889.582	n/a	WORD	1444791	wordpools/wasnorm_wordpool_576.txt	LTP306	ltpFR2	13	13	SHELF	1280	n/a	n/a	0	0	0
2892.22	n/a	WORD	1446110	wordpools/wasnorm_wordpool_576.txt	LTP306	ltpFR2	13	13	OUTDOORS	987	n/a	n/a	0	0	0
2894.904	n/a	WORD	1447452	wordpools/wasnorm_wordpool_576.txt	LTP306	ltpFR2	13	13	COUNTY	389	n/a	n/a	0	0	0
2897.424	n/a	WORD	1448712	wordpools/wasnorm_wordpool_576.txt	LTP306	ltpFR2	13	13	JEANS	752	n/a	n/a	0	0	0
2899.922	n/a	WORD	1449961	wordpools/wasnorm_wordpool_576.txt	LTP306	ltpFR2	13	13	GIFT	635	n/a	n/a	0	0	0
2902.592	n/a	WORD	1451296	wordpools/wasnorm_wordpool_576.txt	LTP306	ltpFR2	13	13	MAILMAN	858	n/a	n/a	0	0	0
2905.244	n/a	WORD	1452622	wordpools/wasnorm_wordpool_576.txt	LTP306	ltpFR2	13	13	AIRPLANE	12	n/a	n/a	0	0	0
2907.95	n/a	WORD	1453975	wordpools/wasnorm_wordpool_576.txt	LTP306	ltpFR2	13	13	BOX	159	n/a	n/a	0	0	0
2910.448	n/a	WORD	1455224	wordpools/wasnorm_wordpool_576.txt	LTP306	ltpFR2	13	13	CLAM	315	n/a	n/a	0	0	0
2913.25	n/a	WORD	1456625	wordpools/wasnorm_wordpool_576.txt	LTP306	ltpFR2	13	13	PAPER	1011	n/a	n/a	0	0	0
2915.986	n/a	WORD	1457993	wordpools/wasnorm_wordpool_576.txt	LTP306	ltpFR2	13	13	GARDEN	623	n/a	n/a	0	0	0
2918.488	n/a	WORD	1459244	wordpools/wasnorm_wordpool_576.txt	LTP306	ltpFR2	13	13	SUPPER	1411	n/a	n/a	0	0	0
2920.092	n/a	START	1460046	n/a	LTP306	ltpFR2	13	n/a	n/a	n/a	19	n/a	n/a	n/a	n/a
2921.052	n/a	DISTRACTOR	1460526	n/a	LTP306	ltpFR2	13	13	n/a	n/a	n/a	n/a	0	0	0
2921.056	n/a	PROB	1460528	n/a	LTP306	ltpFR2	13	n/a	n/a	n/a	19	23	9	6	8
2924.292	n/a	PROB	1462146	n/a	LTP306	ltpFR2	13	n/a	n/a	n/a	19	16	2	9	5
2926.394	n/a	PROB	1463197	n/a	LTP306	ltpFR2	13	n/a	n/a	n/a	19	10	3	1	6
2927.926	n/a	PROB	1463963	n/a	LTP306	ltpFR2	13	n/a	n/a	n/a	19	17	7	3	7
2929.162	n/a	PROB	1464581	n/a	LTP306	ltpFR2	13	n/a	n/a	n/a	19	16	8	6	2
2930.762	n/a	PROB	1465381	n/a	LTP306	ltpFR2	13	n/a	n/a	n/a	19	19	8	9	2
2932.28	n/a	PROB	1466140	n/a	LTP306	ltpFR2	13	n/a	n/a	n/a	19	5	1	2	2
2933.298	n/a	PROB	1466649	n/a	LTP306	ltpFR2	13	n/a	n/a	n/a	19	20	5	6	9
2934.916	n/a	PROB	1467458	n/a	LTP306	ltpFR2	13	n/a	n/a	n/a	19	14	2	9	3
2936.684	n/a	PROB	1468342	n/a	LTP306	ltpFR2	13	n/a	n/a	n/a	19	15	6	8	1
2938.236	n/a	PROB	1469118	n/a	LTP306	ltpFR2	13	n/a	n/a	n/a	19	21	9	7	5
2941.138	n/a	PROB	1470569	n/a	LTP306	ltpFR2	13	n/a	n/a	n/a	19	20	9	6	5
2942.524	n/a	PROB	1471262	n/a	LTP306	ltpFR2	13	n/a	n/a	n/a	19	10	3	4	3
2943.782	n/a	STOP	1471891	n/a	LTP306	ltpFR2	13	n/a	n/a	n/a	19	n/a	n/a	n/a	n/a
2945.91	n/a	REC_START	1472955	n/a	LTP306	ltpFR2	13	13	n/a	n/a	n/a	n/a	0	0	0
2947.798	n/a	REC_WORD	1473899	wordpools/wasnorm_wordpool_576.txt	LTP306	ltpFR2	13	13	AIRPLANE	12	n/a	n/a	0	0	0
2948.85	n/a	REC_WORD	1474425	wordpools/wasnorm_wordpool_576.txt	LTP306	ltpFR2	13	13	BOX	159	n/a	n/a	0	0	0
2949.814	n/a	REC_WORD	1474907	wordpools/wasnorm_wordpool_576.txt	LTP306	ltpFR2	13	13	CLAM	315	n/a	n/a	0	0	0
2951.184	n/a	REC_WORD	1475592	wordpools/wasnorm_wordpool_576.txt	LTP306	ltpFR2	13	13	JEANS	752	n/a	n/a	0	0	0
2952.196	n/a	REC_WORD	1476098	wordpools/wasnorm_wordpool_576.txt	LTP306	ltpFR2	13	13	GIFT	635	n/a	n/a	0	0	0
2952.844	n/a	REC_WORD	1476422	wordpools/wasnorm_wordpool_576.txt	LTP306	ltpFR2	13	13	MAILMAN	858	n/a	n/a	0	0	0
2954.814	n/a	REC_WORD	1477407	wordpools/wasnorm_wordpool_576.txt	LTP306	ltpFR2	13	13	PAPER	1011	n/a	n/a	0	0	0
2956.932	n/a	REC_WORD	1478466	wordpools/wasnorm_wordpool_576.txt	LTP306	ltpFR2	13	13	OX	994	n/a	n/a	0	0	0
2959.15	n/a	REC_WORD	1479575	wordpools/wasnorm_wordpool_576.txt	LTP306	ltpFR2	13	13	GLOVE	642	n/a	n/a	0	0	0
2960.024	n/a	REC_WORD	1480012	wordpools/wasnorm_wordpool_576.txt	LTP306	ltpFR2	13	13	FINGER	567	n/a	n/a	0	0	0
2963.436	n/a	REC_WORD	1481718	wordpools/wasnorm_wordpool_576.txt	LTP306	ltpFR2	13	13	OUTDOORS	987	n/a	n/a	0	0	0
2964.61	n/a	REC_WORD	1482305	wordpools/wasnorm_wordpool_576.txt	LTP306	ltpFR2	13	13	COUNTY	389	n/a	n/a	0	0	0
2966.024	n/a	REC_WORD	1483012	wordpools/wasnorm_wordpool_576.txt	LTP306	ltpFR2	13	13	SCALLOP	1242	n/a	n/a	0	0	0
2966.966	n/a	REC_WORD	1483483	wordpools/wasnorm_wordpool_576.txt	LTP306	ltpFR2	13	13	CIGAR	308	n/a	n/a	0	0	0
2968.898	n/a	REC_WORD	1484449	wordpools/wasnorm_wordpool_576.txt	LTP306	ltpFR2	13	13	MEAT	883	n/a	n/a	0	0	0
2971.286	n/a	REC_WORD	1485643	wordpools/wasnorm_wordpool_576.txt	LTP306	ltpFR2	13	13	BRACES	164	n/a	n/a	0	0	0
2972.51	n/a	REC_WORD	1486255	wordpools/wasnorm_wordpool_576.txt	LTP306	ltpFR2	13	13	CATCHER	258	n/a	n/a	0	0	0
2974.044	n/a	REC_WORD	1487022	wordpools/wasnorm_wordpool_576.txt	LTP306	ltpFR2	13	13	HOUND	724	n/a	n/a	0	0	0
3036.346	n/a	WORD	1518173	wordpools/wasnorm_wordpool_576.txt	LTP306	ltpFR2	13	14	BARREL	91	n/a	n/a	0	0	0
3039.116	n/a	WORD	1519558	wordpools/wasnorm_wordpool_576.txt	LTP306	ltpFR2	13	14	IGLOO	734	n/a	n/a	0	0	0
3041.93	n/a	WORD	1520965	wordpools/wasnorm_wordpool_576.txt	LTP306	ltpFR2	13	14	MARKER	870	n/a	n/a	0	0	0
3044.616	n/a	WORD	1522308	wordpools/wasnorm_wordpool_576.txt	LTP306	ltpFR2	13	14	ARM	38	n/a	n/a	0	0	0
3047.118	n/a	WORD	1523559	wordpools/wasnorm_wordpool_576.txt	LTP306	ltpFR2	13	14	REBEL	1172	n/a	n/a	0	0	0
3049.586	n/a	WORD	1524793	wordpools/wasnorm_wordpool_576.txt	LTP306	ltpFR2	13	14	COMPASS	358	n/a	n/a	0	0	0
3052.322	n/a	WORD	1526161	wordpools/wasnorm_wordpool_576.txt	LTP306	ltpFR2	13	14	LEG	809	n/a	n/a	0	0	0
3054.824	n/a	WORD	1527412	wordpools/wasnorm_wordpool_576.txt	LTP306	ltpFR2	13	14	QUARTER	1148	n/a	n/a	0	0	0
3057.46	n/a	WORD	1528730	wordpools/wasnorm_wordpool_576.txt	LTP306	ltpFR2	13	14	MONEY	908	n/a	n/a	0	0	0
3060.198	n/a	WORD	1530099	wordpools/wasnorm_wordpool_576.txt	LTP306	ltpFR2	13	14	LUMBER	848	n/a	n/a	0	0	0
3062.916	n/a	WORD	1531458	wordpools/wasnorm_wordpool_576.txt	LTP306	ltpFR2	13	14	HUSBAND	728	n/a	n/a	0	0	0
3065.6	n/a	WORD	1532800	wordpools/wasnorm_wordpool_576.txt	LTP306	ltpFR2	13	14	KEEPER	769	n/a	n/a	0	0	0
3068.322	n/a	WORD	1534161	wordpools/wasnorm_wordpool_576.txt	LTP306	ltpFR2	13	14	ROBBER	1197	n/a	n/a	0	0	0
3071.088	n/a	WORD	1535544	wordpools/wasnorm_wordpool_576.txt	LTP306	ltpFR2	13	14	CURTAIN	427	n/a	n/a	0	0	0
3073.574	n/a	WORD	1536787	wordpools/wasnorm_wordpool_576.txt	LTP306	ltpFR2	13	14	LILY	821	n/a	n/a	0	0	0
3076.192	n/a	WORD	1538096	wordpools/wasnorm_wordpool_576.txt	LTP306	ltpFR2	13	14	VALLEY	1545	n/a	n/a	0	0	0
3078.946	n/a	WORD	1539473	wordpools/wasnorm_wordpool_576.txt	LTP306	ltpFR2	13	14	TILE	1468	n/a	n/a	0	0	0
3081.598	n/a	WORD	1540799	wordpools/wasnorm_wordpool_576.txt	LTP306	ltpFR2	13	14	HAMPER	682	n/a	n/a	0	0	0
3084.1	n/a	WORD	1542050	wordpools/wasnorm_wordpool_576.txt	LTP306	ltpFR2	13	14	PARENT	1013	n/a	n/a	0	0	0
3086.868	n/a	WORD	1543434	wordpools/wasnorm_wordpool_576.txt	LTP306	ltpFR2	13	14	COCKTAIL	338	n/a	n/a	0	0	0
3089.686	n/a	WORD	1544843	wordpools/wasnorm_wordpool_576.txt	LTP306	ltpFR2	13	14	CRITIC	410	n/a	n/a	0	0	0
3092.34	n/a	WORD	1546170	wordpools/wasnorm_wordpool_576.txt	LTP306	ltpFR2	13	14	SAUSAGE	1238	n/a	n/a	0	0	0
3094.792	n/a	WORD	1547396	wordpools/wasnorm_wordpool_576.txt	LTP306	ltpFR2	13	14	RAZOR	1171	n/a	n/a	0	0	0
3097.394	n/a	WORD	1548697	wordpools/wasnorm_wordpool_576.txt	LTP306	ltpFR2	13	14	SCISSORS	1250	n/a	n/a	0	0	0
3099.014	n/a	START	1549507	n/a	LTP306	ltpFR2	13	n/a	n/a	n/a	20	n/a	n/a	n/a	n/a
3099.832	n/a	DISTRACTOR	1549916	n/a	LTP306	ltpFR2	13	14	n/a	n/a	n/a	n/a	0	0	0
3099.846	n/a	PROB	1549923	n/a	LTP306	ltpFR2	13	n/a	n/a	n/a	20	11	6	4	1
3101.028	n/a	PROB	1550514	n/a	LTP306	ltpFR2	13	n/a	n/a	n/a	20	15	3	9	3
3103.95	n/a	PROB	1551975	n/a	LTP306	ltpFR2	13	n/a	n/a	n/a	20	19	9	4	6
3105.598	n/a	PROB	1552799	n/a	LTP306	ltpFR2	13	n/a	n/a	n/a	20	14	4	4	6
3106.984	n/a	PROB	1553492	n/a	LTP306	ltpFR2	13	n/a	n/a	n/a	20	14	7	1	6
3108.752	n/a	PROB	1554376	n/a	LTP306	ltpFR2	13	n/a	n/a	n/a	20	17	1	7	9
3110.72	n/a	PROB	1555360	n/a	LTP306	ltpFR2	13	n/a	n/a	n/a	20	8	4	2	2
3114.14	n/a	PROB	1557070	n/a	LTP306	ltpFR2	13	n/a	n/a	n/a	20	16	4	8	4
3115.79	n/a	PROB	1557895	n/a	LTP306	ltpFR2	13	n/a	n/a	n/a	20	15	5	3	7
3117.258	n/a	PROB	1558629	n/a	LTP306	ltpFR2	13	n/a	n/a	n/a	20	11	1	3	7
3118.494	n/a	PROB	1559247	n/a	LTP306	ltpFR2	13	n/a	n/a	n/a	20	17	7	1	9
3119.946	n/a	PROB	1559973	n/a	LTP306	ltpFR2	13	n/a	n/a	n/a	20	12	3	1	8
3121.874	n/a	STOP	1560937	n/a	LTP306	ltpFR2	13	n/a	n/a	n/a	20	n/a	n/a	n/a	n/a
3124.782	n/a	REC_START	1562391	n/a	LTP306	ltpFR2	13	14	n/a	n/a	n/a	n/a	0	0	0
3126.308	n/a	REC_WORD	1563154	wordpools/wasnorm_wordpool_576.txt	LTP306	ltpFR2	13	14	PARENT	1013	n/a	n/a	0	0	0
3127.308	n/a	REC_WORD	1563654	wordpools/wasnorm_wordpool_576.txt	LTP306	ltpFR2	13	14	COCKTAIL	338	n/a	n/a	0	0	0
3128.394	n/a	REC_WORD	1564197	wordpools/wasnorm_wordpool_576.txt	LTP306	ltpFR2	13	14	CRITIC	410	n/a	n/a	0	0	0
3129.892	n/a	REC_WORD	1564946	wordpools/wasnorm_wordpool_576.txt	LTP306	ltpFR2	13	14	LUMBER	848	n/a	n/a	0	0	0
3130.85	n/a	REC_WORD	1565425	wordpools/wasnorm_wordpool_576.txt	LTP306	ltpFR2	13	14	HUSBAND	728	n/a	n/a	0	0	0
3137.278	n/a	REC_WORD	1568639	wordpools/wasnorm_wordpool_576.txt	LTP306	ltpFR2	13	14	IGLOO	734	n/a	n/a	0	0	0
3140.202	n/a	REC_WORD	1570101	wordpools/wasnorm_wordpool_576.txt	LTP306	ltpFR2	13	14	HAMPER	682	n/a	n/a	0	0	0
3141.408	n/a	REC_WORD	1570704	wordpools/wasnorm_wordpool_576.txt	LTP306	ltpFR2	13	14	TILE	1468	n/a	n/a	0	0	0
3149.048	n/a	REC_WORD	1574524	wordpools/wasnorm_wordpool_576.txt	LTP306	ltpFR2	13	14	SAUSAGE	1238	n/a	n/a	0	0	0
3150.346	n/a	REC_WORD	1575173	wordpools/wasnorm_wordpool_576.txt	LTP306	ltpFR2	13	14	RAZOR	1171	n/a	n/a	0	0	0
3151.406	n/a	REC_WORD	1575703	wordpools/wasnorm_wordpool_576.txt	LTP306	ltpFR2	13	14	SCISSORS	1250	n/a	n/a	0	0	0
3195.02	n/a	REC_WORD	1597510	wordpools/wasnorm_wordpool_576.txt	LTP306	ltpFR2	13	14	MARKER	870	n/a	n/a	0	0	0
3196.64	n/a	REC_WORD	1598320	wordpools/wasnorm_wordpool_576.txt	LTP306	ltpFR2	13	14	ARM	38	n/a	n/a	0	0	0
3197.62	n/a	REC_WORD	1598810	wordpools/wasnorm_wordpool_576.txt	LTP306	ltpFR2	13	14	REBEL	1172	n/a	n/a	0	0	0
3198.538	n/a	REC_WORD	1599269	wordpools/wasnorm_wordpool_576.txt	LTP306	ltpFR2	13	14	COMPASS	358	n/a	n/a	0	0	0
3242.088	n/a	WORD	1621044	wordpools/wasnorm_wordpool_576.txt	LTP306	ltpFR2	13	15	PLAZA	1088	n/a	n/a	0	0	0
3244.786	n/a	WORD	1622393	wordpools/wasnorm_wordpool_576.txt	LTP306	ltpFR2	13	15	BARLEY	88	n/a	n/a	0	0	0
3247.472	n/a	WORD	1623736	wordpools/wasnorm_wordpool_576.txt	LTP306	ltpFR2	13	15	SALMON	1227	n/a	n/a	0	0	0
3250.14	n/a	WORD	1625070	wordpools/wasnorm_wordpool_576.txt	LTP306	ltpFR2	13	15	CRAB	397	n/a	n/a	0	0	0
3252.626	n/a	WORD	1626313	wordpools/wasnorm_wordpool_576.txt	LTP306	ltpFR2	13	15	OUTLAW	989	n/a	n/a	0	0	0
3255.278	n/a	WORD	1627639	wordpools/wasnorm_wordpool_576.txt	LTP306	ltpFR2	13	15	CORAL	378	n/a	n/a	0	0	0
3257.918	n/a	WORD	1628959	wordpools/wasnorm_wordpool_576.txt	LTP306	ltpFR2	13	15	TREAT	1501	n/a	n/a	0	0	0
3260.47	n/a	WORD	1630235	wordpools/wasnorm_wordpool_576.txt	LTP306	ltpFR2	13	15	COSTUME	383	n/a	n/a	0	0	0
3263.034	n/a	WORD	1631517	wordpools/wasnorm_wordpool_576.txt	LTP306	ltpFR2	13	15	BURGLAR	200	n/a	n/a	0	0	0
3265.636	n/a	WORD	1632818	wordpools/wasnorm_wordpool_576.txt	LTP306	ltpFR2	13	15	STICKER	1382	n/a	n/a	0	0	0
3268.138	n/a	WORD	1634069	wordpools/wasnorm_wordpool_576.txt	LTP306	ltpFR2	13	15	PRINCE	1124	n/a	n/a	0	0	0
3270.64	n/a	WORD	1635320	wordpools/wasnorm_wordpool_576.txt	LTP306	ltpFR2	13	15	FLOWER	584	n/a	n/a	0	0	0
3273.298	n/a	WORD	1636649	wordpools/wasnorm_wordpool_576.txt	LTP306	ltpFR2	13	15	MARINE	869	n/a	n/a	0	0	0
3275.728	n/a	WORD	1637864	wordpools/wasnorm_wordpool_576.txt	LTP306	ltpFR2	13	15	CREVICE	405	n/a	n/a	0	0	0
3278.186	n/a	WORD	1639093	wordpools/wasnorm_wordpool_576.txt	LTP306	ltpFR2	13	15	SHARK	1275	n/a	n/a	0	0	0
3280.67	n/a	WORD	1640335	wordpools/wasnorm_wordpool_576.txt	LTP306	ltpFR2	13	15	PASTA	1021	n/a	n/a	0	0	0
3283.268	n/a	WORD	1641634	wordpools/wasnorm_wordpool_576.txt	LTP306	ltpFR2	13	15	PALACE	1006	n/a	n/a	0	0	0
3286.038	n/a	WORD	1643019	wordpools/wasnorm_wordpool_576.txt	LTP306	ltpFR2	13	15	THRONE	1461	n/a	n/a	0	0	0
3288.76	n/a	WORD	1644380	wordpools/wasnorm_wordpool_576.txt	LTP306	ltpFR2	13	15	GRAVEL	659	n/a	n/a	0	0	0
3291.342	n/a	WORD	1645671	wordpools/wasnorm_wordpool_576.txt	LTP306	ltpFR2	13	15	CARROT	249	n/a	n/a	0	0	0
3293.844	n/a	WORD	1646922	wordpools/wasnorm_wordpool_576.txt	LTP306	ltpFR2	13	15	DANCER	437	n/a	n/a	0	0	0
3296.332	n/a	WORD	1648166	wordpools/wasnorm_wordpool_576.txt	LTP306	ltpFR2	13	15	ATLAS	53	n/a	n/a	0	0	0
3299.118	n/a	WORD	1649559	wordpools/wasnorm_wordpool_576.txt	LTP306	ltpFR2	13	15	PIMPLE	1071	n/a	n/a	0	0	0
3301.75	n/a	WORD	1650875	wordpools/wasnorm_wordpool_576.txt	LTP306	ltpFR2	13	15	PACKAGE	997	n/a	n/a	0	0	0
3303.37	n/a	START	1651685	n/a	LTP306	ltpFR2	13	n/a	n/a	n/a	21	n/a	n/a	n/a	n/a
3304.412	n/a	DISTRACTOR	1652206	n/a	LTP306	ltpFR2	13	15	n/a	n/a	n/a	n/a	0	0	0
3304.42	n/a	PROB	1652210	n/a	LTP306	ltpFR2	13	n/a	n/a	n/a	21	23	6	8	9
3307.308	n/a	PROB	1653654	n/a	LTP306	ltpFR2	13	n/a	n/a	n/a	21	13	7	4	2
3308.974	n/a	PROB	1654487	n/a	LTP306	ltpFR2	13	n/a	n/a	n/a	21	21	6	8	7
3310.406	n/a	PROB	1655203	n/a	LTP306	ltpFR2	13	n/a	n/a	n/a	21	17	5	8	4
3312.528	n/a	PROB	1656264	n/a	LTP306	ltpFR2	13	n/a	n/a	n/a	21	13	4	6	3
3313.696	n/a	PROB	1656848	n/a	LTP306	ltpFR2	13	n/a	n/a	n/a	21	9	2	5	2
3315.096	n/a	PROB	1657548	n/a	LTP306	ltpFR2	13	n/a	n/a	n/a	21	19	9	3	7
3316.514	n/a	PROB	1658257	n/a	LTP306	ltpFR2	13	n/a	n/a	n/a	21	11	9	1	1
3317.564	n/a	PROB	1658782	n/a	LTP306	ltpFR2	13	n/a	n/a	n/a	21	14	3	6	5
3319.802	n/a	PROB	1659901	n/a	LTP306	ltpFR2	13	n/a	n/a	n/a	21	10	2	3	5
3321.652	n/a	PROB	1660826	n/a	LTP306	ltpFR2	13	n/a	n/a	n/a	21	19	8	5	6
3323.47	n/a	PROB	1661735	n/a	LTP306	ltpFR2	13	n/a	n/a	n/a	21	20	7	7	6
3325.17	n/a	PROB	1662585	n/a	LTP306	ltpFR2	13	n/a	n/a	n/a	21	18	4	5	9
3326.556	n/a	STOP	1663278	n/a	LTP306	ltpFR2	13	n/a	n/a	n/a	21	n/a	n/a	n/a	n/a
3329.292	n/a	REC_START	1664646	n/a	LTP306	ltpFR2	13	15	n/a	n/a	n/a	n/a	0	0	0
3331.32	n/a	REC_WORD	1665660	wordpools/wasnorm_wordpool_576.txt	LTP306	ltpFR2	13	15	PRINCE	1124	n/a	n/a	0	0	0
3332.46	n/a	REC_WORD	1666230	wordpools/wasnorm_wordpool_576.txt	LTP306	ltpFR2	13	15	FLOWER	584	n/a	n/a	0	0	0
3334.462	n/a	REC_WORD	1667231	wordpools/wasnorm_wordpool_576.txt	LTP306	ltpFR2	13	15	PASTA	1021	n/a	n/a	0	0	0
3335.712	n/a	REC_WORD	1667856	wordpools/wasnorm_wordpool_576.txt	LTP306	ltpFR2	13	15	PALACE	1006	n/a	n/a	0	0	0
3336.7	n/a	REC_WORD	1668350	wordpools/wasnorm_wordpool_576.txt	LTP306	ltpFR2	13	15	THRONE	1461	n/a	n/a	0	0	0
3338.374	n/a	REC_WORD	1669187	wordpools/wasnorm_wordpool_576.txt	LTP306	ltpFR2	13	15	PACKAGE	997	n/a	n/a	0	0	0
3340.14	n/a	REC_WORD	1670070	wordpools/wasnorm_wordpool_576.txt	LTP306	ltpFR2	13	15	COSTUME	383	n/a	n/a	0	0	0
3341.378	n/a	REC_WORD	1670689	wordpools/wasnorm_wordpool_576.txt	LTP306	ltpFR2	13	15	ROBBER	1197	n/a	n/a	0	0	0
3345.276	n/a	REC_WORD	1672638	wordpools/wasnorm_wordpool_576.txt	LTP306	ltpFR2	13	15	TREAT	1501	n/a	n/a	0	0	0
3357.896	n/a	REC_WORD	1678948	wordpools/wasnorm_wordpool_576.txt	LTP306	ltpFR2	13	15	DANCER	437	n/a	n/a	0	0	0
3359.398	n/a	REC_WORD	1679699	wordpools/wasnorm_wordpool_576.txt	LTP306	ltpFR2	13	15	GRAVEL	659	n/a	n/a	0	0	0
3360.606	n/a	REC_WORD	1680303	wordpools/wasnorm_wordpool_576.txt	LTP306	ltpFR2	13	15	IGLOO	734	n/a	n/a	0	0	0
3363.286	n/a	REC_WORD	1681643	wordpools/wasnorm_wordpool_576.txt	LTP306	ltpFR2	13	15	CARROT	249	n/a	n/a	0	0	0
3419.712	n/a	DISTRACTOR	1709856	n/a	LTP306	ltpFR2	13	16	n/a	n/a	n/a	n/a	0	0	0
3419.712	n/a	START	1709856	n/a	LTP306	ltpFR2	13	n/a	n/a	n/a	22	n/a	n/a	n/a	n/a
3419.728	n/a	PROB	1709864	n/a	LTP306	ltpFR2	13	n/a	n/a	n/a	22	9	7	1	1
3420.98	n/a	PROB	1710490	n/a	LTP306	ltpFR2	13	n/a	n/a	n/a	22	15	7	5	3
3422.798	n/a	PROB	1711399	n/a	LTP306	ltpFR2	13	n/a	n/a	n/a	22	14	3	6	5
3424.898	n/a	PROB	1712449	n/a	LTP306	ltpFR2	13	n/a	n/a	n/a	22	21	5	9	7
3426.368	n/a	PROB	1713184	n/a	LTP306	ltpFR2	13	n/a	n/a	n/a	22	18	3	8	7
3427.634	n/a	PROB	1713817	n/a	LTP306	ltpFR2	13	n/a	n/a	n/a	22	23	9	6	7
3430.854	n/a	PROB	1715427	n/a	LTP306	ltpFR2	13	n/a	n/a	n/a	22	19	6	7	6
3432.77	n/a	PROB	1716385	n/a	LTP306	ltpFR2	13	n/a	n/a	n/a	22	25	7	9	9
3434.07	n/a	PROB	1717035	n/a	LTP306	ltpFR2	13	n/a	n/a	n/a	22	17	7	7	3
3435.456	n/a	PROB	1717728	n/a	LTP306	ltpFR2	13	n/a	n/a	n/a	22	13	3	5	5
3436.556	n/a	PROB	1718278	n/a	LTP306	ltpFR2	13	n/a	n/a	n/a	22	8	5	1	2
3437.79	n/a	PROB	1718895	n/a	LTP306	ltpFR2	13	n/a	n/a	n/a	22	11	1	1	9
3439.024	n/a	PROB	1719512	n/a	LTP306	ltpFR2	13	n/a	n/a	n/a	22	20	5	8	7
3440.344	n/a	PROB	1720172	n/a	LTP306	ltpFR2	13	n/a	n/a	n/a	22	11	4	3	4
3442.06	n/a	PROB	1721030	n/a	LTP306	ltpFR2	13	n/a	n/a	n/a	22	18	2	8	8
3443.222	n/a	STOP	1721611	n/a	LTP306	ltpFR2	13	n/a	n/a	n/a	22	n/a	n/a	n/a	n/a
3444.822	n/a	WORD	1722411	wordpools/wasnorm_wordpool_576.txt	LTP306	ltpFR2	13	16	TOMBSTONE	1478	n/a	n/a	0	0	0
3447.284	n/a	WORD	1723642	wordpools/wasnorm_wordpool_576.txt	LTP306	ltpFR2	13	16	SKILLET	1317	n/a	n/a	0	0	0
3449.718	n/a	WORD	1724859	wordpools/wasnorm_wordpool_576.txt	LTP306	ltpFR2	13	16	SPIDER	1351	n/a	n/a	0	0	0
3452.37	n/a	WORD	1726185	wordpools/wasnorm_wordpool_576.txt	LTP306	ltpFR2	13	16	SLUG	1329	n/a	n/a	0	0	0
3454.922	n/a	WORD	1727461	wordpools/wasnorm_wordpool_576.txt	LTP306	ltpFR2	13	16	SHELTER	1282	n/a	n/a	0	0	0
3457.376	n/a	WORD	1728688	wordpools/wasnorm_wordpool_576.txt	LTP306	ltpFR2	13	16	BRICK	172	n/a	n/a	0	0	0
3459.836	n/a	WORD	1729918	wordpools/wasnorm_wordpool_576.txt	LTP306	ltpFR2	13	16	BACON	67	n/a	n/a	0	0	0
3462.604	n/a	WORD	1731302	wordpools/wasnorm_wordpool_576.txt	LTP306	ltpFR2	13	16	WHISKERS	1605	n/a	n/a	0	0	0
3465.398	n/a	WORD	1732699	wordpools/wasnorm_wordpool_576.txt	LTP306	ltpFR2	13	16	PUDDLE	1140	n/a	n/a	0	0	0
3467.958	n/a	WORD	1733979	wordpools/wasnorm_wordpool_576.txt	LTP306	ltpFR2	13	16	HOSTESS	723	n/a	n/a	0	0	0
3470.384	n/a	WORD	1735192	wordpools/wasnorm_wordpool_576.txt	LTP306	ltpFR2	13	16	COIN	343	n/a	n/a	0	0	0
3472.846	n/a	WORD	1736423	wordpools/wasnorm_wordpool_576.txt	LTP306	ltpFR2	13	16	PASSAGE	1019	n/a	n/a	0	0	0
3475.364	n/a	WORD	1737682	wordpools/wasnorm_wordpool_576.txt	LTP306	ltpFR2	13	16	BRANDY	169	n/a	n/a	0	0	0
3478.072	n/a	WORD	1739036	wordpools/wasnorm_wordpool_576.txt	LTP306	ltpFR2	13	16	BANKER	84	n/a	n/a	0	0	0
3480.836	n/a	WORD	1740418	wordpools/wasnorm_wordpool_576.txt	LTP306	ltpFR2	13	16	WRIST	1626	n/a	n/a	0	0	0
3483.428	n/a	WORD	1741714	wordpools/wasnorm_wordpool_576.txt	LTP306	ltpFR2	13	16	HAND	683	n/a	n/a	0	0	0
3486.008	n/a	WORD	1743004	wordpools/wasnorm_wordpool_576.txt	LTP306	ltpFR2	13	16	WORKER	1621	n/a	n/a	0	0	0
3488.732	n/a	WORD	1744366	wordpools/wasnorm_wordpool_576.txt	LTP306	ltpFR2	13	16	DINER	467	n/a	n/a	0	0	0
3491.444	n/a	WORD	1745722	wordpools/wasnorm_wordpool_576.txt	LTP306	ltpFR2	13	16	BUG	187	n/a	n/a	0	0	0
3493.92	n/a	WORD	1746960	wordpools/wasnorm_wordpool_576.txt	LTP306	ltpFR2	13	16	OFFICE	972	n/a	n/a	0	0	0
3496.622	n/a	WORD	1748311	wordpools/wasnorm_wordpool_576.txt	LTP306	ltpFR2	13	16	EGYPT	519	n/a	n/a	0	0	0
3499.29	n/a	WORD	1749645	wordpools/wasnorm_wordpool_576.txt	LTP306	ltpFR2	13	16	FLAG	573	n/a	n/a	0	0	0
3501.82	n/a	WORD	1750910	wordpools/wasnorm_wordpool_576.txt	LTP306	ltpFR2	13	16	LADDER	793	n/a	n/a	0	0	0
3504.49	n/a	WORD	1752245	wordpools/wasnorm_wordpool_576.txt	LTP306	ltpFR2	13	16	THREAD	1460	n/a	n/a	0	0	0
3506.096	n/a	START	1753048	n/a	LTP306	ltpFR2	13	n/a	n/a	n/a	23	n/a	n/a	n/a	n/a
3507.092	n/a	DISTRACTOR	1753546	n/a	LTP306	ltpFR2	13	16	n/a	n/a	n/a	n/a	0	0	0
3507.096	n/a	PROB	1753548	n/a	LTP306	ltpFR2	13	n/a	n/a	n/a	23	14	5	1	8
3508.748	n/a	PROB	1754374	n/a	LTP306	ltpFR2	13	n/a	n/a	n/a	23	14	2	5	7
3510.25	n/a	PROB	1755125	n/a	LTP306	ltpFR2	13	n/a	n/a	n/a	23	16	7	2	7
3511.832	n/a	PROB	1755916	n/a	LTP306	ltpFR2	13	n/a	n/a	n/a	23	16	7	4	5
3513.686	n/a	PROB	1756843	n/a	LTP306	ltpFR2	13	n/a	n/a	n/a	23	16	7	8	1
3515.148	n/a	PROB	1757574	n/a	LTP306	ltpFR2	13	n/a	n/a	n/a	23	12	5	5	2
3516.12	n/a	PROB	1758060	n/a	LTP306	ltpFR2	13	n/a	n/a	n/a	23	12	2	2	8
3517.136	n/a	PROB	1758568	n/a	LTP306	ltpFR2	13	n/a	n/a	n/a	23	10	4	1	5
3518.238	n/a	PROB	1759119	n/a	LTP306	ltpFR2	13	n/a	n/a	n/a	23	17	6	3	8
3519.804	n/a	PROB	1759902	n/a	LTP306	ltpFR2	13	n/a	n/a	n/a	23	17	5	5	7
3521.024	n/a	PROB	1760512	n/a	LTP306	ltpFR2	13	n/a	n/a	n/a	23	18	9	2	7
3522.37	n/a	PROB	1761185	n/a	LTP306	ltpFR2	13	n/a	n/a	n/a	23	14	7	5	2
3523.908	n/a	PROB	1761954	n/a	LTP306	ltpFR2	13	n/a	n/a	n/a	23	15	7	3	5
3525.122	n/a	PROB	1762561	n/a	LTP306	ltpFR2	13	n/a	n/a	n/a	23	16	8	1	7
3526.362	n/a	PROB	1763181	n/a	LTP306	ltpFR2	13	n/a	n/a	n/a	23	21	5	8	8
3530.096	n/a	STOP	1765048	n/a	LTP306	ltpFR2	13	n/a	n/a	n/a	23	n/a	n/a	n/a	n/a
3531.896	n/a	REC_START	1765948	n/a	LTP306	ltpFR2	13	16	n/a	n/a	n/a	n/a	0	0	0
3533.038	n/a	REC_WORD	1766519	wordpools/wasnorm_wordpool_576.txt	LTP306	ltpFR2	13	16	TOMBSTONE	1478	n/a	n/a	0	0	0
3534.096	n/a	REC_WORD	1767048	wordpools/wasnorm_wordpool_576.txt	LTP306	ltpFR2	13	16	SKILLET	1317	n/a	n/a	0	0	0
3535.036	n/a	REC_WORD	1767518	wordpools/wasnorm_wordpool_576.txt	LTP306	ltpFR2	13	16	SPIDER	1351	n/a	n/a	0	0	0
3545.734	n/a	REC_WORD	1772867	wordpools/wasnorm_wordpool_576.txt	LTP306	ltpFR2	13	16	HOSTESS	723	n/a	n/a	0	0	0
3547.004	n/a	REC_WORD	1773502	wordpools/wasnorm_wordpool_576.txt	LTP306	ltpFR2	13	16	DIME	466	n/a	n/a	0	0	0
3548.114	n/a	REC_WORD	1774057	wordpools/wasnorm_wordpool_576.txt	LTP306	ltpFR2	13	16	PASSAGE	1019	n/a	n/a	0	0	0
3549.806	n/a	REC_WORD	1774903	wordpools/wasnorm_wordpool_576.txt	LTP306	ltpFR2	13	16	HAND	683	n/a	n/a	0	0	0
3550.83	n/a	REC_WORD	1775415	wordpools/wasnorm_wordpool_576.txt	LTP306	ltpFR2	13	16	WORKER	1621	n/a	n/a	0	0	0
3551.848	n/a	REC_WORD	1775924	wordpools/wasnorm_wordpool_576.txt	LTP306	ltpFR2	13	16	DINER	467	n/a	n/a	0	0	0
3556.682	n/a	REC_WORD	1778341	wordpools/wasnorm_wordpool_576.txt	LTP306	ltpFR2	13	16	BRANDY	169	n/a	n/a	0	0	0
3557.916	n/a	REC_WORD	1778958	wordpools/wasnorm_wordpool_576.txt	LTP306	ltpFR2	13	16	BANKER	84	n/a	n/a	0	0	0
3558.908	n/a	REC_WORD	1779454	wordpools/wasnorm_wordpool_576.txt	LTP306	ltpFR2	13	16	WRIST	1626	n/a	n/a	0	0	0
3608.442	n/a	REST_REWET	1804221	n/a	LTP306	ltpFR2	13	16	n/a	n/a	n/a	n/a	0	0	0
3817.004	n/a	WORD	1908502	wordpools/wasnorm_wordpool_576.txt	LTP306	ltpFR2	13	17	TUBA	1515	n/a	n/a	0	0	0
3819.79	n/a	WORD	1909895	wordpools/wasnorm_wordpool_576.txt	LTP306	ltpFR2	13	17	PANTHER	1009	n/a	n/a	0	0	0
3822.392	n/a	WORD	1911196	wordpools/wasnorm_wordpool_576.txt	LTP306	ltpFR2	13	17	TWISTER	1530	n/a	n/a	0	0	0
3824.878	n/a	WORD	1912439	wordpools/wasnorm_wordpool_576.txt	LTP306	ltpFR2	13	17	BADGE	68	n/a	n/a	0	0	0
3827.38	n/a	WORD	1913690	wordpools/wasnorm_wordpool_576.txt	LTP306	ltpFR2	13	17	FRANCE	601	n/a	n/a	0	0	0
3829.948	n/a	WORD	1914974	wordpools/wasnorm_wordpool_576.txt	LTP306	ltpFR2	13	17	LION	827	n/a	n/a	0	0	0
3832.75	n/a	WORD	1916375	wordpools/wasnorm_wordpool_576.txt	LTP306	ltpFR2	13	17	STREAM	1392	n/a	n/a	0	0	0
