onset	duration	trial_type	sample	stim_file	subject	experiment	session	trial	task	item_name	item_num	recog_conf	resp	color_b	color_g	color_r	case	font
247.658	n/a	SESS_START	123829	n/a	LTP274	ltpFR	19	n/a	n/a	n/a	n/a	3	n/a	n/a	n/a	n/a	n/a	n/a
277.04	n/a	WORD	138520	wordpools/wasnorm_wordpool_less_exclusions.txt	LTP274	ltpFR	19	1	0	CORN	381	2	0	0	0.5869140625	0.422607421875	lower	../fonts/amplitud.ttf
281.238	n/a	WORD	140619	wordpools/wasnorm_wordpool_less_exclusions.txt	LTP274	ltpFR	19	1	0	AIRCRAFT	11	n/a	1	0	0.5869140625	0.422607421875	lower	../fonts/amplitud.ttf
285.438	n/a	WORD	142719	wordpools/wasnorm_wordpool_less_exclusions.txt	LTP274	ltpFR	19	1	0	STEWARDESS	1381	n/a	1	0	0.5869140625	0.422607421875	lower	../fonts/amplitud.ttf
289.586	n/a	WORD	144793	wordpools/wasnorm_wordpool_less_exclusions.txt	LTP274	ltpFR	19	1	0	BEAN	105	n/a	0	0	0.5869140625	0.422607421875	lower	../fonts/amplitud.ttf
293.752	n/a	WORD	146876	wordpools/wasnorm_wordpool_less_exclusions.txt	LTP274	ltpFR	19	1	1	HAMMOCK	681	n/a	0	1	0.412841796875	0.57763671875	upper	../fonts/zerothre.ttf
297.584	n/a	WORD	148792	wordpools/wasnorm_wordpool_less_exclusions.txt	LTP274	ltpFR	19	1	1	PLAYGROUND	1087	n/a	0	1	0.412841796875	0.57763671875	upper	../fonts/zerothre.ttf
301.666	n/a	WORD	150833	wordpools/wasnorm_wordpool_less_exclusions.txt	LTP274	ltpFR	19	1	1	VET	1560	n/a	1	1	0.412841796875	0.57763671875	upper	../fonts/zerothre.ttf
305.68	n/a	WORD	152840	wordpools/wasnorm_wordpool_less_exclusions.txt	LTP274	ltpFR	19	1	1	CELERY	266	n/a	0	1	0.412841796875	0.57763671875	upper	../fonts/zerothre.ttf
309.614	n/a	WORD	154807	wordpools/wasnorm_wordpool_less_exclusions.txt	LTP274	ltpFR	19	1	1	LETTUCE	814	n/a	0	1	0.412841796875	0.57763671875	upper	../fonts/zerothre.ttf
313.478	n/a	WORD	156739	wordpools/wasnorm_wordpool_less_exclusions.txt	LTP274	ltpFR	19	1	0	SEED	1266	n/a	0	0	0.5869140625	0.422607421875	lower	../fonts/amplitud.ttf
317.66	n/a	WORD	158830	wordpools/wasnorm_wordpool_less_exclusions.txt	LTP274	ltpFR	19	1	0	CHIPMUNK	304	n/a	1	0	0.5869140625	0.422607421875	lower	../fonts/amplitud.ttf
321.794	n/a	WORD	160897	wordpools/wasnorm_wordpool_less_exclusions.txt	LTP274	ltpFR	19	1	0	FACTORY	548	n/a	1	0	0.5869140625	0.422607421875	lower	../fonts/amplitud.ttf
325.642	n/a	WORD	162821	wordpools/wasnorm_wordpool_less_exclusions.txt	LTP274	ltpFR	19	1	0	PORPOISE	1109	n/a	0	0	0.5869140625	0.422607421875	lower	../fonts/amplitud.ttf
329.49	n/a	WORD	164745	wordpools/wasnorm_wordpool_less_exclusions.txt	LTP274	ltpFR	19	1	1	CUB	419	n/a	0	1	0.412841796875	0.57763671875	upper	../fonts/zerothre.ttf
333.622	n/a	WORD	166811	wordpools/wasnorm_wordpool_less_exclusions.txt	LTP274	ltpFR	19	1	1	BUTTON	207	n/a	0	1	0.412841796875	0.57763671875	upper	../fonts/zerothre.ttf
337.52	n/a	WORD	168760	wordpools/wasnorm_wordpool_less_exclusions.txt	LTP274	ltpFR	19	1	1	SKIRT	1319	n/a	0	1	0.412841796875	0.57763671875	upper	../fonts/zerothre.ttf
343.376	n/a	REC_START	171688	n/a	LTP274	ltpFR	19	1	n/a	n/a	n/a	n/a	n/a	n/a	n/a	n/a	n/a	n/a
343.956	n/a	REC_WORD	171978	wordpools/wasnorm_wordpool_less_exclusions.txt	LTP274	ltpFR	19	1	1	SKIRT	1319	n/a	0	n/a	n/a	n/a	n/a	n/a
345.014	n/a	REC_WORD	172507	wordpools/wasnorm_wordpool_less_exclusions.txt	LTP274	ltpFR	19	1	1	BUTTON	207	n/a	0	n/a	n/a	n/a	n/a	n/a
345.748	n/a	REC_WORD	172874	wordpools/wasnorm_wordpool_less_exclusions.txt	LTP274	ltpFR	19	1	1	CUB	419	n/a	0	n/a	n/a	n/a	n/a	n/a
347.244	n/a	REC_WORD	173622	wordpools/wasnorm_wordpool_less_exclusions.txt	LTP274	ltpFR	19	1	0	PORPOISE	1109	n/a	0	n/a	n/a	n/a	n/a	n/a
349.538	n/a	REC_WORD	174769	wordpools/wasnorm_wordpool_less_exclusions.txt	LTP274	ltpFR	19	1	n/a	AIRLINE	-1	n/a	n/a	n/a	n/a	n/a	n/a	n/a
350.036	n/a	REC_WORD	175018	wordpools/wasnorm_wordpool_less_exclusions.txt	LTP274	ltpFR	19	1	0	STEWARDESS	1381	n/a	1	n/a	n/a	n/a	n/a	n/a
355.132	n/a	REC_WORD	177566	wordpools/wasnorm_wordpool_less_exclusions.txt	LTP274	ltpFR	19	1	0	FACTORY	548	n/a	1	n/a	n/a	n/a	n/a	n/a
371.974	n/a	REC_WORD	185987	wordpools/wasnorm_wordpool_less_exclusions.txt	LTP274	ltpFR	19	1	1	VET	1560	n/a	1	n/a	n/a	n/a	n/a	n/a
426.294	n/a	WORD	213147	wordpools/wasnorm_wordpool_less_exclusions.txt	LTP274	ltpFR	19	2	1	VESSEL	1558	n/a	1	1	0.412841796875	0.57763671875	upper	../fonts/zerothre.ttf
430.224	n/a	WORD	215112	wordpools/wasnorm_wordpool_less_exclusions.txt	LTP274	ltpFR	19	2	1	NOMAD	955	n/a	1	1	0.412841796875	0.57763671875	upper	../fonts/zerothre.ttf
434.34	n/a	WORD	217170	wordpools/wasnorm_wordpool_less_exclusions.txt	LTP274	ltpFR	19	2	0	MAN	862	n/a	0	0	0.5869140625	0.422607421875	lower	../fonts/amplitud.ttf
438.338	n/a	WORD	219169	wordpools/wasnorm_wordpool_less_exclusions.txt	LTP274	ltpFR	19	2	0	SHRIMP	1297	n/a	0	0	0.5869140625	0.422607421875	lower	../fonts/amplitud.ttf
442.37	n/a	WORD	221185	wordpools/wasnorm_wordpool_less_exclusions.txt	LTP274	ltpFR	19	2	0	SALMON	1227	n/a	0	0	0.5869140625	0.422607421875	lower	../fonts/amplitud.ttf
446.202	n/a	WORD	223101	wordpools/wasnorm_wordpool_less_exclusions.txt	LTP274	ltpFR	19	2	1	POTTERY	1116	n/a	0	1	0.412841796875	0.57763671875	upper	../fonts/zerothre.ttf
450.336	n/a	WORD	225168	wordpools/wasnorm_wordpool_less_exclusions.txt	LTP274	ltpFR	19	2	1	WARRIOR	1589	n/a	1	1	0.412841796875	0.57763671875	upper	../fonts/zerothre.ttf
454.366	n/a	WORD	227183	wordpools/wasnorm_wordpool_less_exclusions.txt	LTP274	ltpFR	19	2	1	PROFESSIONAL	1130	n/a	1	1	0.412841796875	0.57763671875	upper	../fonts/zerothre.ttf
458.398	n/a	WORD	229199	wordpools/wasnorm_wordpool_less_exclusions.txt	LTP274	ltpFR	19	2	0	ATLAS	53	n/a	0	0	0.5869140625	0.422607421875	lower	../fonts/amplitud.ttf
462.346	n/a	WORD	231173	wordpools/wasnorm_wordpool_less_exclusions.txt	LTP274	ltpFR	19	2	0	VALVE	1546	n/a	1	0	0.5869140625	0.422607421875	lower	../fonts/amplitud.ttf
466.364	n/a	WORD	233182	wordpools/wasnorm_wordpool_less_exclusions.txt	LTP274	ltpFR	19	2	0	PAINTER	1004	n/a	0	0	0.5869140625	0.422607421875	lower	../fonts/amplitud.ttf
470.512	n/a	WORD	235256	wordpools/wasnorm_wordpool_less_exclusions.txt	LTP274	ltpFR	19	2	0	TOOTHBRUSH	1482	n/a	0	0	0.5869140625	0.422607421875	lower	../fonts/amplitud.ttf
474.376	n/a	WORD	237188	wordpools/wasnorm_wordpool_less_exclusions.txt	LTP274	ltpFR	19	2	0	DUMP	505	n/a	0	0	0.5869140625	0.422607421875	lower	../fonts/amplitud.ttf
478.576	n/a	WORD	239288	wordpools/wasnorm_wordpool_less_exclusions.txt	LTP274	ltpFR	19	2	1	CANOE	233	n/a	0	1	0.412841796875	0.57763671875	upper	../fonts/zerothre.ttf
482.724	n/a	WORD	241362	wordpools/wasnorm_wordpool_less_exclusions.txt	LTP274	ltpFR	19	2	1	BOXER	160	n/a	0	1	0.412841796875	0.57763671875	upper	../fonts/zerothre.ttf
486.606	n/a	WORD	243303	wordpools/wasnorm_wordpool_less_exclusions.txt	LTP274	ltpFR	19	2	1	DISH	474	n/a	0	1	0.412841796875	0.57763671875	upper	../fonts/zerothre.ttf
492.464	n/a	REC_START	246232	n/a	LTP274	ltpFR	19	2	n/a	n/a	n/a	n/a	n/a	n/a	n/a	n/a	n/a	n/a
493.374	n/a	REC_WORD	246687	wordpools/wasnorm_wordpool_less_exclusions.txt	LTP274	ltpFR	19	2	1	VESSEL	1558	n/a	1	n/a	n/a	n/a	n/a	n/a
494.074	n/a	REC_WORD	247037	wordpools/wasnorm_wordpool_less_exclusions.txt	LTP274	ltpFR	19	2	1	DISH	474	n/a	0	n/a	n/a	n/a	n/a	n/a
494.53	n/a	REC_WORD	247265	wordpools/wasnorm_wordpool_less_exclusions.txt	LTP274	ltpFR	19	2	1	CANOE	233	n/a	0	n/a	n/a	n/a	n/a	n/a
495.098	n/a	REC_WORD	247549	wordpools/wasnorm_wordpool_less_exclusions.txt	LTP274	ltpFR	19	2	1	NOMAD	955	n/a	1	n/a	n/a	n/a	n/a	n/a
577.822	n/a	WORD	288911	wordpools/wasnorm_wordpool_less_exclusions.txt	LTP274	ltpFR	19	3	1	MAGNET	855	n/a	0	1	0.412841796875	0.57763671875	upper	../fonts/zerothre.ttf
581.67	n/a	WORD	290835	wordpools/wasnorm_wordpool_less_exclusions.txt	LTP274	ltpFR	19	3	1	BRICK	172	n/a	0	1	0.412841796875	0.57763671875	upper	../fonts/zerothre.ttf
585.87	n/a	WORD	292935	wordpools/wasnorm_wordpool_less_exclusions.txt	LTP274	ltpFR	19	3	1	SIRLOIN	1311	n/a	0	1	0.412841796875	0.57763671875	upper	../fonts/zerothre.ttf
589.902	n/a	WORD	294951	wordpools/wasnorm_wordpool_less_exclusions.txt	LTP274	ltpFR	19	3	1	ZOO	1637	n/a	1	1	0.412841796875	0.57763671875	upper	../fonts/zerothre.ttf
593.766	n/a	WORD	296883	wordpools/wasnorm_wordpool_less_exclusions.txt	LTP274	ltpFR	19	3	1	TACK	1428	n/a	0	1	0.412841796875	0.57763671875	upper	../fonts/zerothre.ttf
597.9	n/a	WORD	298950	wordpools/wasnorm_wordpool_less_exclusions.txt	LTP274	ltpFR	19	3	1	CHEF	290	n/a	1	1	0.412841796875	0.57763671875	upper	../fonts/zerothre.ttf
601.73	n/a	WORD	300865	wordpools/wasnorm_wordpool_less_exclusions.txt	LTP274	ltpFR	19	3	1	GYMNAST	675	n/a	0	1	0.412841796875	0.57763671875	upper	../fonts/zerothre.ttf
605.778	n/a	WORD	302889	wordpools/wasnorm_wordpool_less_exclusions.txt	LTP274	ltpFR	19	3	1	LID	817	n/a	0	1	0.412841796875	0.57763671875	upper	../fonts/zerothre.ttf
609.794	n/a	WORD	304897	wordpools/wasnorm_wordpool_less_exclusions.txt	LTP274	ltpFR	19	3	1	SHINGLE	1285	n/a	0	1	0.412841796875	0.57763671875	upper	../fonts/zerothre.ttf
613.892	n/a	WORD	306946	wordpools/wasnorm_wordpool_less_exclusions.txt	LTP274	ltpFR	19	3	1	DICTATOR	462	n/a	1	1	0.412841796875	0.57763671875	upper	../fonts/zerothre.ttf
618.026	n/a	WORD	309013	wordpools/wasnorm_wordpool_less_exclusions.txt	LTP274	ltpFR	19	3	1	PRESIDENT	1121	n/a	1	1	0.412841796875	0.57763671875	upper	../fonts/zerothre.ttf
621.958	n/a	WORD	310979	wordpools/wasnorm_wordpool_less_exclusions.txt	LTP274	ltpFR	19	3	1	CONTRACTOR	369	n/a	1	1	0.412841796875	0.57763671875	upper	../fonts/zerothre.ttf
626.106	n/a	WORD	313053	wordpools/wasnorm_wordpool_less_exclusions.txt	LTP274	ltpFR	19	3	1	CREEK	404	n/a	0	1	0.412841796875	0.57763671875	upper	../fonts/zerothre.ttf
630.238	n/a	WORD	315119	wordpools/wasnorm_wordpool_less_exclusions.txt	LTP274	ltpFR	19	3	1	BUCKET	184	n/a	0	1	0.412841796875	0.57763671875	upper	../fonts/zerothre.ttf
634.222	n/a	WORD	317111	wordpools/wasnorm_wordpool_less_exclusions.txt	LTP274	ltpFR	19	3	1	BEAST	108	n/a	1	1	0.412841796875	0.57763671875	upper	../fonts/zerothre.ttf
638.32	n/a	WORD	319160	wordpools/wasnorm_wordpool_less_exclusions.txt	LTP274	ltpFR	19	3	1	CAFETERIA	217	n/a	0	1	0.412841796875	0.57763671875	upper	../fonts/zerothre.ttf
644.176	n/a	REC_START	322088	n/a	LTP274	ltpFR	19	3	n/a	n/a	n/a	n/a	n/a	n/a	n/a	n/a	n/a	n/a
645.186	n/a	REC_WORD	322593	wordpools/wasnorm_wordpool_less_exclusions.txt	LTP274	ltpFR	19	3	1	MAGNET	855	n/a	0	n/a	n/a	n/a	n/a	n/a
645.77	n/a	REC_WORD	322885	wordpools/wasnorm_wordpool_less_exclusions.txt	LTP274	ltpFR	19	3	1	CAFETERIA	217	n/a	0	n/a	n/a	n/a	n/a	n/a
646.674	n/a	REC_WORD	323337	wordpools/wasnorm_wordpool_less_exclusions.txt	LTP274	ltpFR	19	3	1	SHINGLE	1285	n/a	0	n/a	n/a	n/a	n/a	n/a
648.102	n/a	REC_WORD	324051	wordpools/wasnorm_wordpool_less_exclusions.txt	LTP274	ltpFR	19	3	1	DICTATOR	462	n/a	1	n/a	n/a	n/a	n/a	n/a
648.872	n/a	REC_WORD	324436	wordpools/wasnorm_wordpool_less_exclusions.txt	LTP274	ltpFR	19	3	1	PRESIDENT	1121	n/a	1	n/a	n/a	n/a	n/a	n/a
650.006	n/a	REC_WORD	325003	wordpools/wasnorm_wordpool_less_exclusions.txt	LTP274	ltpFR	19	3	1	ZOO	1637	n/a	1	n/a	n/a	n/a	n/a	n/a
651.74	n/a	REC_WORD	325870	wordpools/wasnorm_wordpool_less_exclusions.txt	LTP274	ltpFR	19	3	1	GYMNAST	675	n/a	0	n/a	n/a	n/a	n/a	n/a
653.13	n/a	REC_WORD	326565	wordpools/wasnorm_wordpool_less_exclusions.txt	LTP274	ltpFR	19	3	1	CHEF	290	n/a	1	n/a	n/a	n/a	n/a	n/a
723.012	n/a	WORD	361506	wordpools/wasnorm_wordpool_less_exclusions.txt	LTP274	ltpFR	19	4	-1	DOUGH	489	n/a	-1	1	1.0	1.0	upper	../fonts/Verdana.ttf
727.042	n/a	WORD	363521	wordpools/wasnorm_wordpool_less_exclusions.txt	LTP274	ltpFR	19	4	-1	PLUM	1090	n/a	-1	1	1.0	1.0	upper	../fonts/Verdana.ttf
730.942	n/a	WORD	365471	wordpools/wasnorm_wordpool_less_exclusions.txt	LTP274	ltpFR	19	4	-1	COACH	331	n/a	-1	1	1.0	1.0	upper	../fonts/Verdana.ttf
735.04	n/a	WORD	367520	wordpools/wasnorm_wordpool_less_exclusions.txt	LTP274	ltpFR	19	4	-1	TOAST	1471	n/a	-1	1	1.0	1.0	upper	../fonts/Verdana.ttf
739.172	n/a	WORD	369586	wordpools/wasnorm_wordpool_less_exclusions.txt	LTP274	ltpFR	19	4	-1	MUFFIN	929	n/a	-1	1	1.0	1.0	upper	../fonts/Verdana.ttf
743.054	n/a	WORD	371527	wordpools/wasnorm_wordpool_less_exclusions.txt	LTP274	ltpFR	19	4	-1	PASTRY	1022	n/a	-1	1	1.0	1.0	upper	../fonts/Verdana.ttf
747.204	n/a	WORD	373602	wordpools/wasnorm_wordpool_less_exclusions.txt	LTP274	ltpFR	19	4	-1	LUMBER	848	n/a	-1	1	1.0	1.0	upper	../fonts/Verdana.ttf
751.118	n/a	WORD	375559	wordpools/wasnorm_wordpool_less_exclusions.txt	LTP274	ltpFR	19	4	-1	ELM	527	n/a	-1	1	1.0	1.0	upper	../fonts/Verdana.ttf
755.234	n/a	WORD	377617	wordpools/wasnorm_wordpool_less_exclusions.txt	LTP274	ltpFR	19	4	-1	PEANUT	1032	n/a	-1	1	1.0	1.0	upper	../fonts/Verdana.ttf
759.282	n/a	WORD	379641	wordpools/wasnorm_wordpool_less_exclusions.txt	LTP274	ltpFR	19	4	-1	GOVERNOR	651	n/a	-1	1	1.0	1.0	upper	../fonts/Verdana.ttf
763.298	n/a	WORD	381649	wordpools/wasnorm_wordpool_less_exclusions.txt	LTP274	ltpFR	19	4	-1	GOWN	652	n/a	-1	1	1.0	1.0	upper	../fonts/Verdana.ttf
767.28	n/a	WORD	383640	wordpools/wasnorm_wordpool_less_exclusions.txt	LTP274	ltpFR	19	4	-1	VAGRANT	1544	n/a	-1	1	1.0	1.0	upper	../fonts/Verdana.ttf
771.294	n/a	WORD	385647	wordpools/wasnorm_wordpool_less_exclusions.txt	LTP274	ltpFR	19	4	-1	BEGGAR	117	n/a	-1	1	1.0	1.0	upper	../fonts/Verdana.ttf
775.41	n/a	WORD	387705	wordpools/wasnorm_wordpool_less_exclusions.txt	LTP274	ltpFR	19	4	-1	TRAITOR	1495	n/a	-1	1	1.0	1.0	upper	../fonts/Verdana.ttf
779.308	n/a	WORD	389654	wordpools/wasnorm_wordpool_less_exclusions.txt	LTP274	ltpFR	19	4	-1	BURGLAR	200	n/a	-1	1	1.0	1.0	upper	../fonts/Verdana.ttf
783.356	n/a	WORD	391678	wordpools/wasnorm_wordpool_less_exclusions.txt	LTP274	ltpFR	19	4	-1	ARROW	40	n/a	-1	1	1.0	1.0	upper	../fonts/Verdana.ttf
789.048	n/a	REC_START	394524	n/a	LTP274	ltpFR	19	4	n/a	n/a	n/a	n/a	n/a	n/a	n/a	n/a	n/a	n/a
790.262	n/a	REC_WORD	395131	wordpools/wasnorm_wordpool_less_exclusions.txt	LTP274	ltpFR	19	4	-1	ARROW	40	n/a	-1	n/a	n/a	n/a	n/a	n/a
791.026	n/a	REC_WORD	395513	wordpools/wasnorm_wordpool_less_exclusions.txt	LTP274	ltpFR	19	4	-1	VAGRANT	1544	n/a	-1	n/a	n/a	n/a	n/a	n/a
795.02	n/a	REC_WORD	397510	wordpools/wasnorm_wordpool_less_exclusions.txt	LTP274	ltpFR	19	4	-1	BURGLAR	200	n/a	-1	n/a	n/a	n/a	n/a	n/a
797.746	n/a	REC_WORD	398873	wordpools/wasnorm_wordpool_less_exclusions.txt	LTP274	ltpFR	19	4	-1	TRAITOR	1495	n/a	-1	n/a	n/a	n/a	n/a	n/a
798.87	n/a	REC_WORD	399435	wordpools/wasnorm_wordpool_less_exclusions.txt	LTP274	ltpFR	19	4	-1	BEGGAR	117	n/a	-1	n/a	n/a	n/a	n/a	n/a
802.432	n/a	REC_WORD	401216	wordpools/wasnorm_wordpool_less_exclusions.txt	LTP274	ltpFR	19	4	-1	GOVERNOR	651	n/a	-1	n/a	n/a	n/a	n/a	n/a
803.31	n/a	REC_WORD	401655	wordpools/wasnorm_wordpool_less_exclusions.txt	LTP274	ltpFR	19	4	-1	GOWN	652	n/a	-1	n/a	n/a	n/a	n/a	n/a
811.518	n/a	REC_WORD	405759	wordpools/wasnorm_wordpool_less_exclusions.txt	LTP274	ltpFR	19	4	-1	PLUM	1090	n/a	-1	n/a	n/a	n/a	n/a	n/a
813.554	n/a	REC_WORD	406777	wordpools/wasnorm_wordpool_less_exclusions.txt	LTP274	ltpFR	19	4	-1	DOUGH	489	n/a	-1	n/a	n/a	n/a	n/a	n/a
815.24	n/a	REC_WORD	407620	wordpools/wasnorm_wordpool_less_exclusions.txt	LTP274	ltpFR	19	4	-1	PASTRY	1022	n/a	-1	n/a	n/a	n/a	n/a	n/a
816.512	n/a	REC_WORD	408256	wordpools/wasnorm_wordpool_less_exclusions.txt	LTP274	ltpFR	19	4	-1	MUFFIN	929	n/a	-1	n/a	n/a	n/a	n/a	n/a
818.646	n/a	REC_WORD	409323	wordpools/wasnorm_wordpool_less_exclusions.txt	LTP274	ltpFR	19	4	-1	PEANUT	1032	n/a	-1	n/a	n/a	n/a	n/a	n/a
869.068	n/a	WORD	434534	wordpools/wasnorm_wordpool_less_exclusions.txt	LTP274	ltpFR	19	5	-1	PIPE	1073	n/a	-1	1	1.0	1.0	upper	../fonts/Verdana.ttf
873.268	n/a	WORD	436634	wordpools/wasnorm_wordpool_less_exclusions.txt	LTP274	ltpFR	19	5	-1	BARN	89	n/a	-1	1	1.0	1.0	upper	../fonts/Verdana.ttf
877.266	n/a	WORD	438633	wordpools/wasnorm_wordpool_less_exclusions.txt	LTP274	ltpFR	19	5	-1	FARM	552	n/a	-1	1	1.0	1.0	upper	../fonts/Verdana.ttf
881.216	n/a	WORD	440608	wordpools/wasnorm_wordpool_less_exclusions.txt	LTP274	ltpFR	19	5	-1	PASSENGER	1020	n/a	-1	1	1.0	1.0	upper	../fonts/Verdana.ttf
885.382	n/a	WORD	442691	wordpools/wasnorm_wordpool_less_exclusions.txt	LTP274	ltpFR	19	5	-1	ENGINE	535	n/a	-1	1	1.0	1.0	upper	../fonts/Verdana.ttf
889.446	n/a	WORD	444723	wordpools/wasnorm_wordpool_less_exclusions.txt	LTP274	ltpFR	19	5	-1	BLUEPRINT	142	n/a	-1	1	1.0	1.0	upper	../fonts/Verdana.ttf
893.362	n/a	WORD	446681	wordpools/wasnorm_wordpool_less_exclusions.txt	LTP274	ltpFR	19	5	-1	BLACKBERRY	132	n/a	-1	1	1.0	1.0	upper	../fonts/Verdana.ttf
897.578	n/a	WORD	448789	wordpools/wasnorm_wordpool_less_exclusions.txt	LTP274	ltpFR	19	5	-1	VEGETABLE	1552	n/a	-1	1	1.0	1.0	upper	../fonts/Verdana.ttf
901.41	n/a	WORD	450705	wordpools/wasnorm_wordpool_less_exclusions.txt	LTP274	ltpFR	19	5	-1	GARDEN	623	n/a	-1	1	1.0	1.0	upper	../fonts/Verdana.ttf
905.256	n/a	WORD	452628	wordpools/wasnorm_wordpool_less_exclusions.txt	LTP274	ltpFR	19	5	-1	WATERFALL	1595	n/a	-1	1	1.0	1.0	upper	../fonts/Verdana.ttf
909.104	n/a	WORD	454552	wordpools/wasnorm_wordpool_less_exclusions.txt	LTP274	ltpFR	19	5	-1	MAILBOX	857	n/a	-1	1	1.0	1.0	upper	../fonts/Verdana.ttf
913.154	n/a	WORD	456577	wordpools/wasnorm_wordpool_less_exclusions.txt	LTP274	ltpFR	19	5	-1	CHAPEL	280	n/a	-1	1	1.0	1.0	upper	../fonts/Verdana.ttf
917.136	n/a	WORD	458568	wordpools/wasnorm_wordpool_less_exclusions.txt	LTP274	ltpFR	19	5	-1	LIEUTENANT	818	n/a	-1	1	1.0	1.0	upper	../fonts/Verdana.ttf
921.134	n/a	WORD	460567	wordpools/wasnorm_wordpool_less_exclusions.txt	LTP274	ltpFR	19	5	-1	FRUIT	610	n/a	-1	1	1.0	1.0	upper	../fonts/Verdana.ttf
925.132	n/a	WORD	462566	wordpools/wasnorm_wordpool_less_exclusions.txt	LTP274	ltpFR	19	5	-1	CANAL	226	n/a	-1	1	1.0	1.0	upper	../fonts/Verdana.ttf
929.266	n/a	WORD	464633	wordpools/wasnorm_wordpool_less_exclusions.txt	LTP274	ltpFR	19	5	-1	MAJOR	859	n/a	-1	1	1.0	1.0	upper	../fonts/Verdana.ttf
934.904	n/a	REC_START	467452	n/a	LTP274	ltpFR	19	5	n/a	n/a	n/a	n/a	n/a	n/a	n/a	n/a	n/a	n/a
936.2	n/a	REC_WORD	468100	wordpools/wasnorm_wordpool_less_exclusions.txt	LTP274	ltpFR	19	5	-1	LIEUTENANT	818	n/a	-1	n/a	n/a	n/a	n/a	n/a
937.118	n/a	REC_WORD	468559	wordpools/wasnorm_wordpool_less_exclusions.txt	LTP274	ltpFR	19	5	-1	MAJOR	859	n/a	-1	n/a	n/a	n/a	n/a	n/a
940.38	n/a	REC_WORD	470190	wordpools/wasnorm_wordpool_less_exclusions.txt	LTP274	ltpFR	19	5	-1	GARDEN	623	n/a	-1	n/a	n/a	n/a	n/a	n/a
940.85	n/a	REC_WORD	470425	wordpools/wasnorm_wordpool_less_exclusions.txt	LTP274	ltpFR	19	5	-1	FARM	552	n/a	-1	n/a	n/a	n/a	n/a	n/a
941.482	n/a	REC_WORD	470741	wordpools/wasnorm_wordpool_less_exclusions.txt	LTP274	ltpFR	19	5	-1	BARN	89	n/a	-1	n/a	n/a	n/a	n/a	n/a
944.65	n/a	REC_WORD	472325	wordpools/wasnorm_wordpool_less_exclusions.txt	LTP274	ltpFR	19	5	-1	FRUIT	610	n/a	-1	n/a	n/a	n/a	n/a	n/a
946.684	n/a	REC_WORD	473342	wordpools/wasnorm_wordpool_less_exclusions.txt	LTP274	ltpFR	19	5	-1	VEGETABLE	1552	n/a	-1	n/a	n/a	n/a	n/a	n/a
948.94	n/a	REC_WORD	474470	wordpools/wasnorm_wordpool_less_exclusions.txt	LTP274	ltpFR	19	5	-1	BLACKBERRY	132	n/a	-1	n/a	n/a	n/a	n/a	n/a
952.164	n/a	REC_WORD	476082	wordpools/wasnorm_wordpool_less_exclusions.txt	LTP274	ltpFR	19	5	-1	PIPE	1073	n/a	-1	n/a	n/a	n/a	n/a	n/a
1023.876	n/a	WORD	511938	wordpools/wasnorm_wordpool_less_exclusions.txt	LTP274	ltpFR	19	6	0	COURT	391	n/a	0	0	0.5869140625	0.422607421875	lower	../fonts/amplitud.ttf
1027.86	n/a	WORD	513930	wordpools/wasnorm_wordpool_less_exclusions.txt	LTP274	ltpFR	19	6	0	CANARY	227	n/a	0	0	0.5869140625	0.422607421875	lower	../fonts/amplitud.ttf
1031.958	n/a	WORD	515979	wordpools/wasnorm_wordpool_less_exclusions.txt	LTP274	ltpFR	19	6	0	COOK	372	n/a	1	0	0.5869140625	0.422607421875	lower	../fonts/amplitud.ttf
1036.108	n/a	WORD	518054	wordpools/wasnorm_wordpool_less_exclusions.txt	LTP274	ltpFR	19	6	0	WAGON	1578	n/a	1	0	0.5869140625	0.422607421875	lower	../fonts/amplitud.ttf
1039.99	n/a	WORD	519995	wordpools/wasnorm_wordpool_less_exclusions.txt	LTP274	ltpFR	19	6	0	SINK	1309	n/a	0	0	0.5869140625	0.422607421875	lower	../fonts/amplitud.ttf
1043.82	n/a	WORD	521910	wordpools/wasnorm_wordpool_less_exclusions.txt	LTP274	ltpFR	19	6	0	BATHTUB	100	n/a	1	0	0.5869140625	0.422607421875	lower	../fonts/amplitud.ttf
1047.652	n/a	WORD	523826	wordpools/wasnorm_wordpool_less_exclusions.txt	LTP274	ltpFR	19	6	0	FREEZER	604	n/a	1	0	0.5869140625	0.422607421875	lower	../fonts/amplitud.ttf
1051.5	n/a	WORD	525750	wordpools/wasnorm_wordpool_less_exclusions.txt	LTP274	ltpFR	19	6	0	CONE	363	n/a	0	0	0.5869140625	0.422607421875	lower	../fonts/amplitud.ttf
1055.532	n/a	WORD	527766	wordpools/wasnorm_wordpool_less_exclusions.txt	LTP274	ltpFR	19	6	0	BLADE	134	n/a	1	0	0.5869140625	0.422607421875	lower	../fonts/amplitud.ttf
1059.478	n/a	WORD	529739	wordpools/wasnorm_wordpool_less_exclusions.txt	LTP274	ltpFR	19	6	0	STOOL	1386	n/a	1	0	0.5869140625	0.422607421875	lower	../fonts/amplitud.ttf
1063.444	n/a	WORD	531722	wordpools/wasnorm_wordpool_less_exclusions.txt	LTP274	ltpFR	19	6	0	GROCERIES	663	n/a	0	0	0.5869140625	0.422607421875	lower	../fonts/amplitud.ttf
1067.478	n/a	WORD	533739	wordpools/wasnorm_wordpool_less_exclusions.txt	LTP274	ltpFR	19	6	0	FOREHEAD	592	n/a	0	0	0.5869140625	0.422607421875	lower	../fonts/amplitud.ttf
1071.476	n/a	WORD	535738	wordpools/wasnorm_wordpool_less_exclusions.txt	LTP274	ltpFR	19	6	0	ATTORNEY	58	n/a	1	0	0.5869140625	0.422607421875	lower	../fonts/amplitud.ttf
1075.674	n/a	WORD	537837	wordpools/wasnorm_wordpool_less_exclusions.txt	LTP274	ltpFR	19	6	0	PERCH	1048	n/a	0	0	0.5869140625	0.422607421875	lower	../fonts/amplitud.ttf
1079.74	n/a	WORD	539870	wordpools/wasnorm_wordpool_less_exclusions.txt	LTP274	ltpFR	19	6	0	ROOST	1208	n/a	1	0	0.5869140625	0.422607421875	lower	../fonts/amplitud.ttf
1083.57	n/a	WORD	541785	wordpools/wasnorm_wordpool_less_exclusions.txt	LTP274	ltpFR	19	6	0	OWL	992	n/a	1	0	0.5869140625	0.422607421875	lower	../fonts/amplitud.ttf
1089.478	n/a	REC_START	544739	n/a	LTP274	ltpFR	19	6	n/a	n/a	n/a	n/a	n/a	n/a	n/a	n/a	n/a	n/a
1090.34	n/a	REC_WORD	545170	wordpools/wasnorm_wordpool_less_exclusions.txt	LTP274	ltpFR	19	6	0	OWL	992	n/a	1	n/a	n/a	n/a	n/a	n/a
1092.966	n/a	REC_WORD	546483	wordpools/wasnorm_wordpool_less_exclusions.txt	LTP274	ltpFR	19	6	0	ROOST	1208	n/a	1	n/a	n/a	n/a	n/a	n/a
1093.516	n/a	REC_WORD	546758	wordpools/wasnorm_wordpool_less_exclusions.txt	LTP274	ltpFR	19	6	0	PERCH	1048	n/a	0	n/a	n/a	n/a	n/a	n/a
1095.252	n/a	REC_WORD	547626	wordpools/wasnorm_wordpool_less_exclusions.txt	LTP274	ltpFR	19	6	0	ATTORNEY	58	n/a	1	n/a	n/a	n/a	n/a	n/a
1096.102	n/a	REC_WORD	548051	wordpools/wasnorm_wordpool_less_exclusions.txt	LTP274	ltpFR	19	6	0	COURT	391	n/a	0	n/a	n/a	n/a	n/a	n/a
1103.792	n/a	REC_WORD	551896	wordpools/wasnorm_wordpool_less_exclusions.txt	LTP274	ltpFR	19	6	0	FOREHEAD	592	n/a	0	n/a	n/a	n/a	n/a	n/a
1168.212	n/a	WORD	584106	wordpools/wasnorm_wordpool_less_exclusions.txt	LTP274	ltpFR	19	7	0	MACARONI	851	n/a	0	0	0.5869140625	0.422607421875	lower	../fonts/amplitud.ttf
1172.394	n/a	WORD	586197	wordpools/wasnorm_wordpool_less_exclusions.txt	LTP274	ltpFR	19	7	0	MOAT	903	n/a	1	0	0.5869140625	0.422607421875	lower	../fonts/amplitud.ttf
1176.226	n/a	WORD	588113	wordpools/wasnorm_wordpool_less_exclusions.txt	LTP274	ltpFR	19	7	0	WALL	1582	n/a	1	0	0.5869140625	0.422607421875	lower	../fonts/amplitud.ttf
1180.274	n/a	WORD	590137	wordpools/wasnorm_wordpool_less_exclusions.txt	LTP274	ltpFR	19	7	0	SLEEVE	1324	n/a	0	0	0.5869140625	0.422607421875	lower	../fonts/amplitud.ttf
1184.206	n/a	WORD	592103	wordpools/wasnorm_wordpool_less_exclusions.txt	LTP274	ltpFR	19	7	0	COLLAR	345	n/a	0	0	0.5869140625	0.422607421875	lower	../fonts/amplitud.ttf
1188.038	n/a	WORD	594019	wordpools/wasnorm_wordpool_less_exclusions.txt	LTP274	ltpFR	19	7	0	BULL	193	n/a	1	0	0.5869140625	0.422607421875	lower	../fonts/amplitud.ttf
1192.12	n/a	WORD	596060	wordpools/wasnorm_wordpool_less_exclusions.txt	LTP274	ltpFR	19	7	0	MILK	895	n/a	0	0	0.5869140625	0.422607421875	lower	../fonts/amplitud.ttf
1195.968	n/a	WORD	597984	wordpools/wasnorm_wordpool_less_exclusions.txt	LTP274	ltpFR	19	7	0	SUSPECT	1415	n/a	1	0	0.5869140625	0.422607421875	lower	../fonts/amplitud.ttf
1199.9	n/a	WORD	599950	wordpools/wasnorm_wordpool_less_exclusions.txt	LTP274	ltpFR	19	7	0	PLASTER	1085	n/a	0	0	0.5869140625	0.422607421875	lower	../fonts/amplitud.ttf
1203.798	n/a	WORD	601899	wordpools/wasnorm_wordpool_less_exclusions.txt	LTP274	ltpFR	19	7	0	STREET	1393	n/a	0	0	0.5869140625	0.422607421875	lower	../fonts/amplitud.ttf
1207.88	n/a	WORD	603940	wordpools/wasnorm_wordpool_less_exclusions.txt	LTP274	ltpFR	19	7	0	PICTURE	1061	n/a	0	0	0.5869140625	0.422607421875	lower	../fonts/amplitud.ttf
1211.912	n/a	WORD	605956	wordpools/wasnorm_wordpool_less_exclusions.txt	LTP274	ltpFR	19	7	0	ANTEATER	26	n/a	1	0	0.5869140625	0.422607421875	lower	../fonts/amplitud.ttf
1215.794	n/a	WORD	607897	wordpools/wasnorm_wordpool_less_exclusions.txt	LTP274	ltpFR	19	7	0	BULLETIN	195	n/a	0	0	0.5869140625	0.422607421875	lower	../fonts/amplitud.ttf
1220.01	n/a	WORD	610005	wordpools/wasnorm_wordpool_less_exclusions.txt	LTP274	ltpFR	19	7	0	JUDGE	761	n/a	1	0	0.5869140625	0.422607421875	lower	../fonts/amplitud.ttf
1223.992	n/a	WORD	611996	wordpools/wasnorm_wordpool_less_exclusions.txt	LTP274	ltpFR	19	7	0	NAVIGATOR	938	n/a	1	0	0.5869140625	0.422607421875	lower	../fonts/amplitud.ttf
1228.074	n/a	WORD	614037	wordpools/wasnorm_wordpool_less_exclusions.txt	LTP274	ltpFR	19	7	0	BRIDGE	174	n/a	1	0	0.5869140625	0.422607421875	lower	../fonts/amplitud.ttf
1233.982	n/a	REC_START	616991	n/a	LTP274	ltpFR	19	7	n/a	n/a	n/a	n/a	n/a	n/a	n/a	n/a	n/a	n/a
1236.576	n/a	REC_WORD	618288	wordpools/wasnorm_wordpool_less_exclusions.txt	LTP274	ltpFR	19	7	0	PLASTER	1085	n/a	0	n/a	n/a	n/a	n/a	n/a
1237.318	n/a	REC_WORD	618659	wordpools/wasnorm_wordpool_less_exclusions.txt	LTP274	ltpFR	19	7	0	STREET	1393	n/a	0	n/a	n/a	n/a	n/a	n/a
1241.554	n/a	REC_WORD	620777	wordpools/wasnorm_wordpool_less_exclusions.txt	LTP274	ltpFR	19	7	0	BRIDGE	174	n/a	1	n/a	n/a	n/a	n/a	n/a
1245.314	n/a	REC_WORD	622657	wordpools/wasnorm_wordpool_less_exclusions.txt	LTP274	ltpFR	19	7	0	MOAT	903	n/a	1	n/a	n/a	n/a	n/a	n/a
1246.162	n/a	REC_WORD	623081	wordpools/wasnorm_wordpool_less_exclusions.txt	LTP274	ltpFR	19	7	0	MACARONI	851	n/a	0	n/a	n/a	n/a	n/a	n/a
1262.034	n/a	REC_WORD	631017	wordpools/wasnorm_wordpool_less_exclusions.txt	LTP274	ltpFR	19	7	0	PICTURE	1061	n/a	0	n/a	n/a	n/a	n/a	n/a
1317.316	n/a	WORD	658658	wordpools/wasnorm_wordpool_less_exclusions.txt	LTP274	ltpFR	19	8	0	LABEL	790	n/a	0	0	0.5869140625	0.422607421875	lower	../fonts/amplitud.ttf
1321.346	n/a	WORD	660673	wordpools/wasnorm_wordpool_less_exclusions.txt	LTP274	ltpFR	19	8	0	PAPER	1011	n/a	1	0	0.5869140625	0.422607421875	lower	../fonts/amplitud.ttf
1325.262	n/a	WORD	662631	wordpools/wasnorm_wordpool_less_exclusions.txt	LTP274	ltpFR	19	8	0	BEAD	103	n/a	0	0	0.5869140625	0.422607421875	lower	../fonts/amplitud.ttf
1329.16	n/a	WORD	664580	wordpools/wasnorm_wordpool_less_exclusions.txt	LTP274	ltpFR	19	8	0	KETTLE	772	n/a	1	0	0.5869140625	0.422607421875	lower	../fonts/amplitud.ttf
1333.326	n/a	WORD	666663	wordpools/wasnorm_wordpool_less_exclusions.txt	LTP274	ltpFR	19	8	0	TECHNICIAN	1443	n/a	1	0	0.5869140625	0.422607421875	lower	../fonts/amplitud.ttf
1337.224	n/a	WORD	668612	wordpools/wasnorm_wordpool_less_exclusions.txt	LTP274	ltpFR	19	8	0	PEAR	1033	n/a	0	0	0.5869140625	0.422607421875	lower	../fonts/amplitud.ttf
1341.09	n/a	WORD	670545	wordpools/wasnorm_wordpool_less_exclusions.txt	LTP274	ltpFR	19	8	0	CASHEW	253	n/a	0	0	0.5869140625	0.422607421875	lower	../fonts/amplitud.ttf
1344.954	n/a	WORD	672477	wordpools/wasnorm_wordpool_less_exclusions.txt	LTP274	ltpFR	19	8	0	WAVE	1596	n/a	1	0	0.5869140625	0.422607421875	lower	../fonts/amplitud.ttf
1349.086	n/a	WORD	674543	wordpools/wasnorm_wordpool_less_exclusions.txt	LTP274	ltpFR	19	8	0	TUB	1514	n/a	1	0	0.5869140625	0.422607421875	lower	../fonts/amplitud.ttf
1353.202	n/a	WORD	676601	wordpools/wasnorm_wordpool_less_exclusions.txt	LTP274	ltpFR	19	8	0	STRAW	1390	n/a	0	0	0.5869140625	0.422607421875	lower	../fonts/amplitud.ttf
1357.134	n/a	WORD	678567	wordpools/wasnorm_wordpool_less_exclusions.txt	LTP274	ltpFR	19	8	0	WALNUT	1584	n/a	0	0	0.5869140625	0.422607421875	lower	../fonts/amplitud.ttf
1361.032	n/a	WORD	680516	wordpools/wasnorm_wordpool_less_exclusions.txt	LTP274	ltpFR	19	8	0	TAPE	1433	n/a	0	0	0.5869140625	0.422607421875	lower	../fonts/amplitud.ttf
1365.232	n/a	WORD	682616	wordpools/wasnorm_wordpool_less_exclusions.txt	LTP274	ltpFR	19	8	0	TROMBONE	1508	n/a	1	0	0.5869140625	0.422607421875	lower	../fonts/amplitud.ttf
1369.18	n/a	WORD	684590	wordpools/wasnorm_wordpool_less_exclusions.txt	LTP274	ltpFR	19	8	0	ROBOT	1200	n/a	1	0	0.5869140625	0.422607421875	lower	../fonts/amplitud.ttf
1373.262	n/a	WORD	686631	wordpools/wasnorm_wordpool_less_exclusions.txt	LTP274	ltpFR	19	8	0	GIRL	637	n/a	1	0	0.5869140625	0.422607421875	lower	../fonts/amplitud.ttf
1377.328	n/a	WORD	688664	wordpools/wasnorm_wordpool_less_exclusions.txt	LTP274	ltpFR	19	8	0	MUG	930	n/a	0	0	0.5869140625	0.422607421875	lower	../fonts/amplitud.ttf
1383.284	n/a	REC_START	691642	n/a	LTP274	ltpFR	19	8	n/a	n/a	n/a	n/a	n/a	n/a	n/a	n/a	n/a	n/a
1384.576	n/a	REC_WORD_VV	692288	wordpools/wasnorm_wordpool_less_exclusions.txt	LTP274	ltpFR	19	8	n/a	<>	-1	n/a	n/a	n/a	n/a	n/a	n/a	n/a
1385.264	n/a	REC_WORD	692632	wordpools/wasnorm_wordpool_less_exclusions.txt	LTP274	ltpFR	19	8	0	WALNUT	1584	n/a	0	n/a	n/a	n/a	n/a	n/a
1385.862	n/a	REC_WORD	692931	wordpools/wasnorm_wordpool_less_exclusions.txt	LTP274	ltpFR	19	8	0	MUG	930	n/a	0	n/a	n/a	n/a	n/a	n/a
1386.41	n/a	REC_WORD	693205	wordpools/wasnorm_wordpool_less_exclusions.txt	LTP274	ltpFR	19	8	0	GIRL	637	n/a	1	n/a	n/a	n/a	n/a	n/a
1458.94	n/a	REST_REWET	729470	n/a	LTP274	ltpFR	19	8	n/a	n/a	n/a	n/a	n/a	n/a	n/a	n/a	n/a	n/a
1737.086	n/a	WORD	868543	wordpools/wasnorm_wordpool_less_exclusions.txt	LTP274	ltpFR	19	9	1	MICROPHONE	890	n/a	0	1	0.412841796875	0.57763671875	upper	../fonts/zerothre.ttf
1741.152	n/a	WORD	870576	wordpools/wasnorm_wordpool_less_exclusions.txt	LTP274	ltpFR	19	9	1	DRUM	502	n/a	0	1	0.412841796875	0.57763671875	upper	../fonts/zerothre.ttf
1745.184	n/a	WORD	872592	wordpools/wasnorm_wordpool_less_exclusions.txt	LTP274	ltpFR	19	9	1	WATER	1594	n/a	0	1	0.412841796875	0.57763671875	upper	../fonts/zerothre.ttf
1749.182	n/a	WORD	874591	wordpools/wasnorm_wordpool_less_exclusions.txt	LTP274	ltpFR	19	9	1	GROUND	666	n/a	0	1	0.412841796875	0.57763671875	upper	../fonts/zerothre.ttf
1753.08	n/a	WORD	876540	wordpools/wasnorm_wordpool_less_exclusions.txt	LTP274	ltpFR	19	9	1	FIREMAN	569	n/a	1	1	0.412841796875	0.57763671875	upper	../fonts/zerothre.ttf
1756.896	n/a	WORD	878448	wordpools/wasnorm_wordpool_less_exclusions.txt	LTP274	ltpFR	19	9	1	BUSH	202	n/a	0	1	0.412841796875	0.57763671875	upper	../fonts/zerothre.ttf
1760.726	n/a	WORD	880363	wordpools/wasnorm_wordpool_less_exclusions.txt	LTP274	ltpFR	19	9	1	OBOE	969	n/a	0	1	0.412841796875	0.57763671875	upper	../fonts/zerothre.ttf
1764.86	n/a	WORD	882430	wordpools/wasnorm_wordpool_less_exclusions.txt	LTP274	ltpFR	19	9	1	JEEP	753	n/a	1	1	0.412841796875	0.57763671875	upper	../fonts/zerothre.ttf
1768.74	n/a	WORD	884370	wordpools/wasnorm_wordpool_less_exclusions.txt	LTP274	ltpFR	19	9	1	GRILL	661	n/a	0	1	0.412841796875	0.57763671875	upper	../fonts/zerothre.ttf
1772.822	n/a	WORD	886411	wordpools/wasnorm_wordpool_less_exclusions.txt	LTP274	ltpFR	19	9	1	CLERK	321	n/a	1	1	0.412841796875	0.57763671875	upper	../fonts/zerothre.ttf
1776.82	n/a	WORD	888410	wordpools/wasnorm_wordpool_less_exclusions.txt	LTP274	ltpFR	19	9	1	BOAT	144	n/a	0	1	0.412841796875	0.57763671875	upper	../fonts/zerothre.ttf
1780.652	n/a	WORD	890326	wordpools/wasnorm_wordpool_less_exclusions.txt	LTP274	ltpFR	19	9	1	MECHANIC	884	n/a	1	1	0.412841796875	0.57763671875	upper	../fonts/zerothre.ttf
1784.868	n/a	WORD	892434	wordpools/wasnorm_wordpool_less_exclusions.txt	LTP274	ltpFR	19	9	1	PADDLE	1000	n/a	0	1	0.412841796875	0.57763671875	upper	../fonts/zerothre.ttf
1788.916	n/a	WORD	894458	wordpools/wasnorm_wordpool_less_exclusions.txt	LTP274	ltpFR	19	9	1	DECK	443	n/a	0	1	0.412841796875	0.57763671875	upper	../fonts/zerothre.ttf
1792.766	n/a	WORD	896383	wordpools/wasnorm_wordpool_less_exclusions.txt	LTP274	ltpFR	19	9	1	CACTUS	215	n/a	1	1	0.412841796875	0.57763671875	upper	../fonts/zerothre.ttf
1796.864	n/a	WORD	898432	wordpools/wasnorm_wordpool_less_exclusions.txt	LTP274	ltpFR	19	9	1	ORCHID	982	n/a	1	1	0.412841796875	0.57763671875	upper	../fonts/zerothre.ttf
1802.772	n/a	REC_START	901386	n/a	LTP274	ltpFR	19	9	n/a	n/a	n/a	n/a	n/a	n/a	n/a	n/a	n/a	n/a
1803.69	n/a	REC_WORD	901845	wordpools/wasnorm_wordpool_less_exclusions.txt	LTP274	ltpFR	19	9	1	CACTUS	215	n/a	1	n/a	n/a	n/a	n/a	n/a
1804.54	n/a	REC_WORD	902270	wordpools/wasnorm_wordpool_less_exclusions.txt	LTP274	ltpFR	19	9	1	ORCHID	982	n/a	1	n/a	n/a	n/a	n/a	n/a
1806.566	n/a	REC_WORD	903283	wordpools/wasnorm_wordpool_less_exclusions.txt	LTP274	ltpFR	19	9	1	MICROPHONE	890	n/a	0	n/a	n/a	n/a	n/a	n/a
1807.402	n/a	REC_WORD	903701	wordpools/wasnorm_wordpool_less_exclusions.txt	LTP274	ltpFR	19	9	1	FIREMAN	569	n/a	1	n/a	n/a	n/a	n/a	n/a
1809.734	n/a	REC_WORD	904867	wordpools/wasnorm_wordpool_less_exclusions.txt	LTP274	ltpFR	19	9	1	MECHANIC	884	n/a	1	n/a	n/a	n/a	n/a	n/a
1816.802	n/a	REC_WORD	908401	wordpools/wasnorm_wordpool_less_exclusions.txt	LTP274	ltpFR	19	9	1	DECK	443	n/a	0	n/a	n/a	n/a	n/a	n/a
1887.242	n/a	WORD	943621	wordpools/wasnorm_wordpool_less_exclusions.txt	LTP274	ltpFR	19	10	-1	RAFT	1159	n/a	-1	1	1.0	1.0	upper	../fonts/Verdana.ttf
1891.358	n/a	WORD	945679	wordpools/wasnorm_wordpool_less_exclusions.txt	LTP274	ltpFR	19	10	-1	AWARD	63	n/a	-1	1	1.0	1.0	upper	../fonts/Verdana.ttf
1895.408	n/a	WORD	947704	wordpools/wasnorm_wordpool_less_exclusions.txt	LTP274	ltpFR	19	10	-1	MOVIE	927	n/a	-1	1	1.0	1.0	upper	../fonts/Verdana.ttf
1899.256	n/a	WORD	949628	wordpools/wasnorm_wordpool_less_exclusions.txt	LTP274	ltpFR	19	10	-1	SERGEANT	1269	n/a	-1	1	1.0	1.0	upper	../fonts/Verdana.ttf
1903.238	n/a	WORD	951619	wordpools/wasnorm_wordpool_less_exclusions.txt	LTP274	ltpFR	19	10	-1	MILITARY	894	n/a	-1	1	1.0	1.0	upper	../fonts/Verdana.ttf
1907.37	n/a	WORD	953685	wordpools/wasnorm_wordpool_less_exclusions.txt	LTP274	ltpFR	19	10	-1	POCKET	1093	n/a	-1	1	1.0	1.0	upper	../fonts/Verdana.ttf
1911.554	n/a	WORD	955777	wordpools/wasnorm_wordpool_less_exclusions.txt	LTP274	ltpFR	19	10	-1	PASSAGE	1019	n/a	-1	1	1.0	1.0	upper	../fonts/Verdana.ttf
1915.668	n/a	WORD	957834	wordpools/wasnorm_wordpool_less_exclusions.txt	LTP274	ltpFR	19	10	-1	DOOR	486	n/a	-1	1	1.0	1.0	upper	../fonts/Verdana.ttf
1919.884	n/a	WORD	959942	wordpools/wasnorm_wordpool_less_exclusions.txt	LTP274	ltpFR	19	10	-1	TICKET	1464	n/a	-1	1	1.0	1.0	upper	../fonts/Verdana.ttf
1924.018	n/a	WORD	962009	wordpools/wasnorm_wordpool_less_exclusions.txt	LTP274	ltpFR	19	10	-1	BOOT	150	n/a	-1	1	1.0	1.0	upper	../fonts/Verdana.ttf
1927.914	n/a	WORD	963957	wordpools/wasnorm_wordpool_less_exclusions.txt	LTP274	ltpFR	19	10	-1	MATTRESS	879	n/a	-1	1	1.0	1.0	upper	../fonts/Verdana.ttf
1931.932	n/a	WORD	965966	wordpools/wasnorm_wordpool_less_exclusions.txt	LTP274	ltpFR	19	10	-1	DAUGHTER	442	n/a	-1	1	1.0	1.0	upper	../fonts/Verdana.ttf
1936.048	n/a	WORD	968024	wordpools/wasnorm_wordpool_less_exclusions.txt	LTP274	ltpFR	19	10	-1	SUIT	1402	n/a	-1	1	1.0	1.0	upper	../fonts/Verdana.ttf
1939.996	n/a	WORD	969998	wordpools/wasnorm_wordpool_less_exclusions.txt	LTP274	ltpFR	19	10	-1	VEAL	1551	n/a	-1	1	1.0	1.0	upper	../fonts/Verdana.ttf
1944.026	n/a	WORD	972013	wordpools/wasnorm_wordpool_less_exclusions.txt	LTP274	ltpFR	19	10	-1	LUNCH	849	n/a	-1	1	1.0	1.0	upper	../fonts/Verdana.ttf
1948.042	n/a	WORD	974021	wordpools/wasnorm_wordpool_less_exclusions.txt	LTP274	ltpFR	19	10	-1	PORT	1110	n/a	-1	1	1.0	1.0	upper	../fonts/Verdana.ttf
1954.0	n/a	REC_START	977000	n/a	LTP274	ltpFR	19	10	n/a	n/a	n/a	n/a	n/a	n/a	n/a	n/a	n/a	n/a
1955.568	n/a	REC_WORD	977784	wordpools/wasnorm_wordpool_less_exclusions.txt	LTP274	ltpFR	19	10	-1	PORT	1110	n/a	-1	n/a	n/a	n/a	n/a	n/a
1957.582	n/a	REC_WORD	978791	wordpools/wasnorm_wordpool_less_exclusions.txt	LTP274	ltpFR	19	10	-1	LUNCH	849	n/a	-1	n/a	n/a	n/a	n/a	n/a
1958.016	n/a	REC_WORD	979008	wordpools/wasnorm_wordpool_less_exclusions.txt	LTP274	ltpFR	19	10	-1	AWARD	63	n/a	-1	n/a	n/a	n/a	n/a	n/a
1960.42	n/a	REC_WORD	980210	wordpools/wasnorm_wordpool_less_exclusions.txt	LTP274	ltpFR	19	10	-1	TICKET	1464	n/a	-1	n/a	n/a	n/a	n/a	n/a
1961.79	n/a	REC_WORD	980895	wordpools/wasnorm_wordpool_less_exclusions.txt	LTP274	ltpFR	19	10	-1	SERGEANT	1269	n/a	-1	n/a	n/a	n/a	n/a	n/a
2035.076	n/a	WORD	1017538	wordpools/wasnorm_wordpool_less_exclusions.txt	LTP274	ltpFR	19	11	1	BARRACUDA	90	n/a	0	1	0.412841796875	0.57763671875	upper	../fonts/zerothre.ttf
2039.156	n/a	WORD	1019578	wordpools/wasnorm_wordpool_less_exclusions.txt	LTP274	ltpFR	19	11	1	SQUID	1361	n/a	1	1	0.412841796875	0.57763671875	upper	../fonts/zerothre.ttf
2043.19	n/a	WORD	1021595	wordpools/wasnorm_wordpool_less_exclusions.txt	LTP274	ltpFR	19	11	1	FLIPPER	580	n/a	0	1	0.412841796875	0.57763671875	upper	../fonts/zerothre.ttf
2047.406	n/a	WORD	1023703	wordpools/wasnorm_wordpool_less_exclusions.txt	LTP274	ltpFR	19	11	0	COSTUME	383	n/a	2	0	0.5869140625	0.422607421875	lower	../fonts/amplitud.ttf
2048.41	n/a	KEY_MSG	1024205	n/a	LTP274	ltpFR	19	11	n/a	n/a	n/a	n/a	n/a	n/a	n/a	n/a	n/a	n/a
2051.52	n/a	WORD	1025760	wordpools/wasnorm_wordpool_less_exclusions.txt	LTP274	ltpFR	19	11	0	NUN	962	n/a	1	0	0.5869140625	0.422607421875	lower	../fonts/amplitud.ttf
2055.636	n/a	WORD	1027818	wordpools/wasnorm_wordpool_less_exclusions.txt	LTP274	ltpFR	19	11	0	HAMBURGER	679	n/a	0	0	0.5869140625	0.422607421875	lower	../fonts/amplitud.ttf
2059.518	n/a	WORD	1029759	wordpools/wasnorm_wordpool_less_exclusions.txt	LTP274	ltpFR	19	11	1	KITCHEN	778	n/a	1	1	0.412841796875	0.57763671875	upper	../fonts/zerothre.ttf
2063.684	n/a	WORD	1031842	wordpools/wasnorm_wordpool_less_exclusions.txt	LTP274	ltpFR	19	11	1	POSSUM	1112	n/a	0	1	0.412841796875	0.57763671875	upper	../fonts/zerothre.ttf
2067.834	n/a	WORD	1033917	wordpools/wasnorm_wordpool_less_exclusions.txt	LTP274	ltpFR	19	11	0	AFRICA	9	n/a	0	0	0.5869140625	0.422607421875	lower	../fonts/amplitud.ttf
2071.932	n/a	WORD	1035966	wordpools/wasnorm_wordpool_less_exclusions.txt	LTP274	ltpFR	19	11	0	LANDSCAPE	799	n/a	1	0	0.5869140625	0.422607421875	lower	../fonts/amplitud.ttf
2075.998	n/a	WORD	1037999	wordpools/wasnorm_wordpool_less_exclusions.txt	LTP274	ltpFR	19	11	0	LAWN	805	n/a	1	0	0.5869140625	0.422607421875	lower	../fonts/amplitud.ttf
2079.93	n/a	WORD	1039965	wordpools/wasnorm_wordpool_less_exclusions.txt	LTP274	ltpFR	19	11	0	SARDINE	1235	n/a	0	0	0.5869140625	0.422607421875	lower	../fonts/amplitud.ttf
2083.912	n/a	WORD	1041956	wordpools/wasnorm_wordpool_less_exclusions.txt	LTP274	ltpFR	19	11	0	PRIMATE	1123	n/a	0	0	0.5869140625	0.422607421875	lower	../fonts/amplitud.ttf
2088.11	n/a	WORD	1044055	wordpools/wasnorm_wordpool_less_exclusions.txt	LTP274	ltpFR	19	11	1	ANTENNA	28	n/a	0	1	0.412841796875	0.57763671875	upper	../fonts/zerothre.ttf
2092.294	n/a	WORD	1046147	wordpools/wasnorm_wordpool_less_exclusions.txt	LTP274	ltpFR	19	11	1	FINGERNAIL	568	n/a	0	1	0.412841796875	0.57763671875	upper	../fonts/zerothre.ttf
2096.192	n/a	WORD	1048096	wordpools/wasnorm_wordpool_less_exclusions.txt	LTP274	ltpFR	19	11	1	CLOTHES	327	n/a	0	1	0.412841796875	0.57763671875	upper	../fonts/zerothre.ttf
2102.25	n/a	REC_START	1051125	n/a	LTP274	ltpFR	19	11	n/a	n/a	n/a	n/a	n/a	n/a	n/a	n/a	n/a	n/a
2103.248	n/a	REC_WORD	1051624	wordpools/wasnorm_wordpool_less_exclusions.txt	LTP274	ltpFR	19	11	1	CLOTHES	327	n/a	0	n/a	n/a	n/a	n/a	n/a
2103.9	n/a	REC_WORD	1051950	wordpools/wasnorm_wordpool_less_exclusions.txt	LTP274	ltpFR	19	11	1	ANTENNA	28	n/a	0	n/a	n/a	n/a	n/a	n/a
2104.422	n/a	REC_WORD	1052211	wordpools/wasnorm_wordpool_less_exclusions.txt	LTP274	ltpFR	19	11	1	FINGERNAIL	568	n/a	0	n/a	n/a	n/a	n/a	n/a
2105.192	n/a	REC_WORD	1052596	wordpools/wasnorm_wordpool_less_exclusions.txt	LTP274	ltpFR	19	11	1	BARRACUDA	90	n/a	0	n/a	n/a	n/a	n/a	n/a
2108.634	n/a	REC_WORD	1054317	wordpools/wasnorm_wordpool_less_exclusions.txt	LTP274	ltpFR	19	11	1	SQUID	1361	n/a	1	n/a	n/a	n/a	n/a	n/a
2109.744	n/a	REC_WORD	1054872	wordpools/wasnorm_wordpool_less_exclusions.txt	LTP274	ltpFR	19	11	1	FLIPPER	580	n/a	0	n/a	n/a	n/a	n/a	n/a
2181.534	n/a	WORD	1090767	wordpools/wasnorm_wordpool_less_exclusions.txt	LTP274	ltpFR	19	12	0	OPERATOR	979	n/a	1	0	0.5869140625	0.422607421875	lower	../fonts/amplitud.ttf
2185.734	n/a	WORD	1092867	wordpools/wasnorm_wordpool_less_exclusions.txt	LTP274	ltpFR	19	12	0	CUBE	420	n/a	1	0	0.5869140625	0.422607421875	lower	../fonts/amplitud.ttf
2189.632	n/a	WORD	1094816	wordpools/wasnorm_wordpool_less_exclusions.txt	LTP274	ltpFR	19	12	0	BOUILLON	154	n/a	0	0	0.5869140625	0.422607421875	lower	../fonts/amplitud.ttf
2193.832	n/a	WORD	1096916	wordpools/wasnorm_wordpool_less_exclusions.txt	LTP274	ltpFR	19	12	0	CANYON	235	n/a	1	0	0.5869140625	0.422607421875	lower	../fonts/amplitud.ttf
2197.83	n/a	WORD	1098915	wordpools/wasnorm_wordpool_less_exclusions.txt	LTP274	ltpFR	19	12	1	PRINCESS	1125	n/a	0	1	0.412841796875	0.57763671875	upper	../fonts/zerothre.ttf
2202.014	n/a	WORD	1101007	wordpools/wasnorm_wordpool_less_exclusions.txt	LTP274	ltpFR	19	12	1	CUPBOARD	425	n/a	0	1	0.412841796875	0.57763671875	upper	../fonts/zerothre.ttf
2206.128	n/a	WORD	1103064	wordpools/wasnorm_wordpool_less_exclusions.txt	LTP274	ltpFR	19	12	1	MICROWAVE	892	n/a	0	1	0.412841796875	0.57763671875	upper	../fonts/zerothre.ttf
2210.01	n/a	WORD	1105005	wordpools/wasnorm_wordpool_less_exclusions.txt	LTP274	ltpFR	19	12	0	SKI	1316	n/a	1	0	0.5869140625	0.422607421875	lower	../fonts/amplitud.ttf
2214.194	n/a	WORD	1107097	wordpools/wasnorm_wordpool_less_exclusions.txt	LTP274	ltpFR	19	12	0	PONY	1102	n/a	1	0	0.5869140625	0.422607421875	lower	../fonts/amplitud.ttf
2218.076	n/a	WORD	1109038	wordpools/wasnorm_wordpool_less_exclusions.txt	LTP274	ltpFR	19	12	1	CROW	414	n/a	0	1	0.412841796875	0.57763671875	upper	../fonts/zerothre.ttf
2222.024	n/a	WORD	1111012	wordpools/wasnorm_wordpool_less_exclusions.txt	LTP274	ltpFR	19	12	1	QUAIL	1147	n/a	1	1	0.412841796875	0.57763671875	upper	../fonts/zerothre.ttf
2226.056	n/a	WORD	1113028	wordpools/wasnorm_wordpool_less_exclusions.txt	LTP274	ltpFR	19	12	1	CHESS	294	n/a	0	1	0.412841796875	0.57763671875	upper	../fonts/zerothre.ttf
2230.254	n/a	WORD	1115127	wordpools/wasnorm_wordpool_less_exclusions.txt	LTP274	ltpFR	19	12	1	REINDEER	1181	n/a	0	1	0.412841796875	0.57763671875	upper	../fonts/zerothre.ttf
2234.42	n/a	WORD	1117210	wordpools/wasnorm_wordpool_less_exclusions.txt	LTP274	ltpFR	19	12	1	SKILLET	1317	n/a	0	1	0.412841796875	0.57763671875	upper	../fonts/zerothre.ttf
2238.536	n/a	WORD	1119268	wordpools/wasnorm_wordpool_less_exclusions.txt	LTP274	ltpFR	19	12	0	BARLEY	88	n/a	0	0	0.5869140625	0.422607421875	lower	../fonts/amplitud.ttf
2242.468	n/a	WORD	1121234	wordpools/wasnorm_wordpool_less_exclusions.txt	LTP274	ltpFR	19	12	0	ORNAMENT	985	n/a	0	0	0.5869140625	0.422607421875	lower	../fonts/amplitud.ttf
2248.324	n/a	REC_START	1124162	n/a	LTP274	ltpFR	19	12	n/a	n/a	n/a	n/a	n/a	n/a	n/a	n/a	n/a	n/a
2251.092	n/a	REC_WORD	1125546	wordpools/wasnorm_wordpool_less_exclusions.txt	LTP274	ltpFR	19	12	1	CROW	414	n/a	0	n/a	n/a	n/a	n/a	n/a
2251.738	n/a	REC_WORD	1125869	wordpools/wasnorm_wordpool_less_exclusions.txt	LTP274	ltpFR	19	12	1	QUAIL	1147	n/a	1	n/a	n/a	n/a	n/a	n/a
2252.294	n/a	REC_WORD	1126147	wordpools/wasnorm_wordpool_less_exclusions.txt	LTP274	ltpFR	19	12	0	ORNAMENT	985	n/a	0	n/a	n/a	n/a	n/a	n/a
2326.338	n/a	WORD	1163169	wordpools/wasnorm_wordpool_less_exclusions.txt	LTP274	ltpFR	19	13	1	SNACK	1331	n/a	3	1	0.412841796875	0.57763671875	upper	../fonts/zerothre.ttf
2327.81	n/a	KEY_MSG	1163905	n/a	LTP274	ltpFR	19	13	n/a	n/a	n/a	n/a	n/a	n/a	n/a	n/a	n/a	n/a
2330.37	n/a	WORD	1165185	wordpools/wasnorm_wordpool_less_exclusions.txt	LTP274	ltpFR	19	13	1	CRAB	397	n/a	0	1	0.412841796875	0.57763671875	upper	../fonts/zerothre.ttf
2334.252	n/a	WORD	1167126	wordpools/wasnorm_wordpool_less_exclusions.txt	LTP274	ltpFR	19	13	1	PENGUIN	1044	n/a	1	1	0.412841796875	0.57763671875	upper	../fonts/zerothre.ttf
2338.234	n/a	WORD	1169117	wordpools/wasnorm_wordpool_less_exclusions.txt	LTP274	ltpFR	19	13	1	ELEPHANT	523	n/a	1	1	0.412841796875	0.57763671875	upper	../fonts/zerothre.ttf
2342.164	n/a	WORD	1171082	wordpools/wasnorm_wordpool_less_exclusions.txt	LTP274	ltpFR	19	13	1	WALRUS	1585	n/a	1	1	0.412841796875	0.57763671875	upper	../fonts/zerothre.ttf
2346.048	n/a	WORD	1173024	wordpools/wasnorm_wordpool_less_exclusions.txt	LTP274	ltpFR	19	13	1	CAGE	218	n/a	0	1	0.412841796875	0.57763671875	upper	../fonts/zerothre.ttf
2349.978	n/a	WORD	1174989	wordpools/wasnorm_wordpool_less_exclusions.txt	LTP274	ltpFR	19	13	1	PREACHER	1119	n/a	1	1	0.412841796875	0.57763671875	upper	../fonts/zerothre.ttf
2354.096	n/a	WORD	1177048	wordpools/wasnorm_wordpool_less_exclusions.txt	LTP274	ltpFR	19	13	1	CARDINAL	244	n/a	1	1	0.412841796875	0.57763671875	upper	../fonts/zerothre.ttf
2358.226	n/a	WORD	1179113	wordpools/wasnorm_wordpool_less_exclusions.txt	LTP274	ltpFR	19	13	1	PUPPY	1144	n/a	0	1	0.412841796875	0.57763671875	upper	../fonts/zerothre.ttf
2362.426	n/a	WORD	1181213	wordpools/wasnorm_wordpool_less_exclusions.txt	LTP274	ltpFR	19	13	1	STREAM	1392	n/a	1	1	0.412841796875	0.57763671875	upper	../fonts/zerothre.ttf
2366.342	n/a	WORD	1183171	wordpools/wasnorm_wordpool_less_exclusions.txt	LTP274	ltpFR	19	13	1	EAGLE	512	n/a	1	1	0.412841796875	0.57763671875	upper	../fonts/zerothre.ttf
2370.374	n/a	WORD	1185187	wordpools/wasnorm_wordpool_less_exclusions.txt	LTP274	ltpFR	19	13	1	TAIL	1430	n/a	0	1	0.412841796875	0.57763671875	upper	../fonts/zerothre.ttf
2374.556	n/a	WORD	1187278	wordpools/wasnorm_wordpool_less_exclusions.txt	LTP274	ltpFR	19	13	1	CHEESE	289	n/a	0	1	0.412841796875	0.57763671875	upper	../fonts/zerothre.ttf
2378.754	n/a	WORD	1189377	wordpools/wasnorm_wordpool_less_exclusions.txt	LTP274	ltpFR	19	13	1	BANANA	77	n/a	1	1	0.412841796875	0.57763671875	upper	../fonts/zerothre.ttf
2382.888	n/a	WORD	1191444	wordpools/wasnorm_wordpool_less_exclusions.txt	LTP274	ltpFR	19	13	1	PRUNE	1134	n/a	0	1	0.412841796875	0.57763671875	upper	../fonts/zerothre.ttf
2387.088	n/a	WORD	1193544	wordpools/wasnorm_wordpool_less_exclusions.txt	LTP274	ltpFR	19	13	1	DOORBELL	487	n/a	0	1	0.412841796875	0.57763671875	upper	../fonts/zerothre.ttf
2392.96	n/a	REC_START	1196480	n/a	LTP274	ltpFR	19	13	n/a	n/a	n/a	n/a	n/a	n/a	n/a	n/a	n/a	n/a
2393.358	n/a	REC_WORD	1196679	wordpools/wasnorm_wordpool_less_exclusions.txt	LTP274	ltpFR	19	13	1	DOORBELL	487	n/a	0	n/a	n/a	n/a	n/a	n/a
2394.19	n/a	REC_WORD	1197095	wordpools/wasnorm_wordpool_less_exclusions.txt	LTP274	ltpFR	19	13	1	ELEPHANT	523	n/a	1	n/a	n/a	n/a	n/a	n/a
2394.828	n/a	REC_WORD	1197414	wordpools/wasnorm_wordpool_less_exclusions.txt	LTP274	ltpFR	19	13	1	TAIL	1430	n/a	0	n/a	n/a	n/a	n/a	n/a
2395.476	n/a	REC_WORD	1197738	wordpools/wasnorm_wordpool_less_exclusions.txt	LTP274	ltpFR	19	13	1	PRUNE	1134	n/a	0	n/a	n/a	n/a	n/a	n/a
2400.596	n/a	REC_WORD	1200298	wordpools/wasnorm_wordpool_less_exclusions.txt	LTP274	ltpFR	19	13	1	CAGE	218	n/a	0	n/a	n/a	n/a	n/a	n/a
2401.342	n/a	REC_WORD	1200671	wordpools/wasnorm_wordpool_less_exclusions.txt	LTP274	ltpFR	19	13	1	PUPPY	1144	n/a	0	n/a	n/a	n/a	n/a	n/a
2402.7	n/a	REC_WORD	1201350	wordpools/wasnorm_wordpool_less_exclusions.txt	LTP274	ltpFR	19	13	1	EAGLE	512	n/a	1	n/a	n/a	n/a	n/a	n/a
2407.41	n/a	REC_WORD	1203705	wordpools/wasnorm_wordpool_less_exclusions.txt	LTP274	ltpFR	19	13	1	CRAB	397	n/a	0	n/a	n/a	n/a	n/a	n/a
2408.152	n/a	REC_WORD	1204076	wordpools/wasnorm_wordpool_less_exclusions.txt	LTP274	ltpFR	19	13	1	PENGUIN	1044	n/a	1	n/a	n/a	n/a	n/a	n/a
2409.016	n/a	REC_WORD	1204508	wordpools/wasnorm_wordpool_less_exclusions.txt	LTP274	ltpFR	19	13	1	WALRUS	1585	n/a	1	n/a	n/a	n/a	n/a	n/a
2472.212	n/a	WORD	1236106	wordpools/wasnorm_wordpool_less_exclusions.txt	LTP274	ltpFR	19	14	0	TOTE	1487	n/a	0	0	0.5869140625	0.422607421875	lower	../fonts/amplitud.ttf
2476.062	n/a	WORD	1238031	wordpools/wasnorm_wordpool_less_exclusions.txt	LTP274	ltpFR	19	14	0	TORTOISE	1486	n/a	1	0	0.5869140625	0.422607421875	lower	../fonts/amplitud.ttf
2479.976	n/a	WORD	1239988	wordpools/wasnorm_wordpool_less_exclusions.txt	LTP274	ltpFR	19	14	0	SHEET	1279	n/a	0	0	0.5869140625	0.422607421875	lower	../fonts/amplitud.ttf
2483.806	n/a	WORD	1241903	wordpools/wasnorm_wordpool_less_exclusions.txt	LTP274	ltpFR	19	14	1	HAM	678	n/a	0	1	0.412841796875	0.57763671875	upper	../fonts/zerothre.ttf
2487.988	n/a	WORD	1243994	wordpools/wasnorm_wordpool_less_exclusions.txt	LTP274	ltpFR	19	14	1	SPATULA	1348	n/a	0	1	0.412841796875	0.57763671875	upper	../fonts/zerothre.ttf
2491.97	n/a	WORD	1245985	wordpools/wasnorm_wordpool_less_exclusions.txt	LTP274	ltpFR	19	14	0	LIME	823	n/a	0	0	0.5869140625	0.422607421875	lower	../fonts/amplitud.ttf
2496.138	n/a	WORD	1248069	wordpools/wasnorm_wordpool_less_exclusions.txt	LTP274	ltpFR	19	14	0	SOCIETY	1338	n/a	1	0	0.5869140625	0.422607421875	lower	../fonts/amplitud.ttf
2500.018	n/a	WORD	1250009	wordpools/wasnorm_wordpool_less_exclusions.txt	LTP274	ltpFR	19	14	0	WOLF	1619	n/a	1	0	0.5869140625	0.422607421875	lower	../fonts/amplitud.ttf
2504.182	n/a	WORD	1252091	wordpools/wasnorm_wordpool_less_exclusions.txt	LTP274	ltpFR	19	14	0	KNAPSACK	783	n/a	0	0	0.5869140625	0.422607421875	lower	../fonts/amplitud.ttf
2508.3	n/a	WORD	1254150	wordpools/wasnorm_wordpool_less_exclusions.txt	LTP274	ltpFR	19	14	0	CHERRY	293	n/a	0	0	0.5869140625	0.422607421875	lower	../fonts/amplitud.ttf
2512.282	n/a	WORD	1256141	wordpools/wasnorm_wordpool_less_exclusions.txt	LTP274	ltpFR	19	14	1	SLUG	1329	n/a	0	1	0.412841796875	0.57763671875	upper	../fonts/zerothre.ttf
2516.148	n/a	WORD	1258074	wordpools/wasnorm_wordpool_less_exclusions.txt	LTP274	ltpFR	19	14	1	SPIDER	1351	n/a	1	1	0.412841796875	0.57763671875	upper	../fonts/zerothre.ttf
2520.112	n/a	WORD	1260056	wordpools/wasnorm_wordpool_less_exclusions.txt	LTP274	ltpFR	19	14	1	ANT	25	n/a	1	1	0.412841796875	0.57763671875	upper	../fonts/zerothre.ttf
2523.994	n/a	WORD	1261997	wordpools/wasnorm_wordpool_less_exclusions.txt	LTP274	ltpFR	19	14	1	COLOGNE	347	n/a	0	1	0.412841796875	0.57763671875	upper	../fonts/zerothre.ttf
2528.042	n/a	WORD	1264021	wordpools/wasnorm_wordpool_less_exclusions.txt	LTP274	ltpFR	19	14	1	RAIL	1161	n/a	1	1	0.412841796875	0.57763671875	upper	../fonts/zerothre.ttf
2531.906	n/a	WORD	1265953	wordpools/wasnorm_wordpool_less_exclusions.txt	LTP274	ltpFR	19	14	1	TUNNEL	1519	n/a	0	1	0.412841796875	0.57763671875	upper	../fonts/zerothre.ttf
2538.014	n/a	REC_START	1269007	n/a	LTP274	ltpFR	19	14	n/a	n/a	n/a	n/a	n/a	n/a	n/a	n/a	n/a	n/a
2538.744	n/a	REC_WORD	1269372	wordpools/wasnorm_wordpool_less_exclusions.txt	LTP274	ltpFR	19	14	1	SLUG	1329	n/a	0	n/a	n/a	n/a	n/a	n/a
2539.258	n/a	REC_WORD	1269629	wordpools/wasnorm_wordpool_less_exclusions.txt	LTP274	ltpFR	19	14	1	SPIDER	1351	n/a	1	n/a	n/a	n/a	n/a	n/a
2540.068	n/a	REC_WORD	1270034	wordpools/wasnorm_wordpool_less_exclusions.txt	LTP274	ltpFR	19	14	1	ANT	25	n/a	1	n/a	n/a	n/a	n/a	n/a
2540.66	n/a	REC_WORD	1270330	wordpools/wasnorm_wordpool_less_exclusions.txt	LTP274	ltpFR	19	14	1	TUNNEL	1519	n/a	0	n/a	n/a	n/a	n/a	n/a
2541.248	n/a	REC_WORD	1270624	wordpools/wasnorm_wordpool_less_exclusions.txt	LTP274	ltpFR	19	14	0	SHEET	1279	n/a	0	n/a	n/a	n/a	n/a	n/a
2541.806	n/a	REC_WORD	1270903	wordpools/wasnorm_wordpool_less_exclusions.txt	LTP274	ltpFR	19	14	1	COLOGNE	347	n/a	0	n/a	n/a	n/a	n/a	n/a
2548.188	n/a	REC_WORD	1274094	wordpools/wasnorm_wordpool_less_exclusions.txt	LTP274	ltpFR	19	14	0	SOCIETY	1338	n/a	1	n/a	n/a	n/a	n/a	n/a
2616.064	n/a	WORD	1308032	wordpools/wasnorm_wordpool_less_exclusions.txt	LTP274	ltpFR	19	15	-1	COMMANDER	354	n/a	-1	1	1.0	1.0	upper	../fonts/Verdana.ttf
2619.926	n/a	WORD	1309963	wordpools/wasnorm_wordpool_less_exclusions.txt	LTP274	ltpFR	19	15	-1	PIKE	1067	n/a	-1	1	1.0	1.0	upper	../fonts/Verdana.ttf
2624.008	n/a	WORD	1312004	wordpools/wasnorm_wordpool_less_exclusions.txt	LTP274	ltpFR	19	15	-1	SUITCASE	1403	n/a	-1	1	1.0	1.0	upper	../fonts/Verdana.ttf
2628.126	n/a	WORD	1314063	wordpools/wasnorm_wordpool_less_exclusions.txt	LTP274	ltpFR	19	15	-1	LEADER	807	n/a	-1	1	1.0	1.0	upper	../fonts/Verdana.ttf
2632.324	n/a	WORD	1316162	wordpools/wasnorm_wordpool_less_exclusions.txt	LTP274	ltpFR	19	15	-1	CHAIRPERSON	275	n/a	-1	1	1.0	1.0	upper	../fonts/Verdana.ttf
2636.222	n/a	WORD	1318111	wordpools/wasnorm_wordpool_less_exclusions.txt	LTP274	ltpFR	19	15	-1	MOUNTAIN	924	n/a	-1	1	1.0	1.0	upper	../fonts/Verdana.ttf
2640.288	n/a	WORD	1320144	wordpools/wasnorm_wordpool_less_exclusions.txt	LTP274	ltpFR	19	15	-1	FLEA	577	n/a	-1	1	1.0	1.0	upper	../fonts/Verdana.ttf
2644.418	n/a	WORD	1322209	wordpools/wasnorm_wordpool_less_exclusions.txt	LTP274	ltpFR	19	15	-1	SCARECROW	1245	n/a	-1	1	1.0	1.0	upper	../fonts/Verdana.ttf
2648.286	n/a	WORD	1324143	wordpools/wasnorm_wordpool_less_exclusions.txt	LTP274	ltpFR	19	15	-1	UNCLE	1536	n/a	-1	1	1.0	1.0	upper	../fonts/Verdana.ttf
2652.418	n/a	WORD	1326209	wordpools/wasnorm_wordpool_less_exclusions.txt	LTP274	ltpFR	19	15	-1	NIECE	952	n/a	-1	1	1.0	1.0	upper	../fonts/Verdana.ttf
2656.35	n/a	WORD	1328175	wordpools/wasnorm_wordpool_less_exclusions.txt	LTP274	ltpFR	19	15	-1	NEWSSTAND	949	n/a	-1	1	1.0	1.0	upper	../fonts/Verdana.ttf
2660.396	n/a	WORD	1330198	wordpools/wasnorm_wordpool_less_exclusions.txt	LTP274	ltpFR	19	15	-1	MARKER	870	n/a	-1	1	1.0	1.0	upper	../fonts/Verdana.ttf
2664.33	n/a	WORD	1332165	wordpools/wasnorm_wordpool_less_exclusions.txt	LTP274	ltpFR	19	15	-1	SURF	1412	n/a	-1	1	1.0	1.0	upper	../fonts/Verdana.ttf
2668.43	n/a	WORD	1334215	wordpools/wasnorm_wordpool_less_exclusions.txt	LTP274	ltpFR	19	15	-1	PILOT	1070	n/a	-1	1	1.0	1.0	upper	../fonts/Verdana.ttf
2672.444	n/a	WORD	1336222	wordpools/wasnorm_wordpool_less_exclusions.txt	LTP274	ltpFR	19	15	-1	UNIFORM	1539	n/a	-1	1	1.0	1.0	upper	../fonts/Verdana.ttf
2676.276	n/a	WORD	1338138	wordpools/wasnorm_wordpool_less_exclusions.txt	LTP274	ltpFR	19	15	-1	HOUND	724	n/a	-1	1	1.0	1.0	upper	../fonts/Verdana.ttf
2681.98	n/a	REC_START	1340990	n/a	LTP274	ltpFR	19	15	n/a	n/a	n/a	n/a	n/a	n/a	n/a	n/a	n/a	n/a
2686.912	n/a	REC_WORD	1343456	wordpools/wasnorm_wordpool_less_exclusions.txt	LTP274	ltpFR	19	15	-1	HOUND	724	n/a	-1	n/a	n/a	n/a	n/a	n/a
2687.524	n/a	REC_WORD	1343762	wordpools/wasnorm_wordpool_less_exclusions.txt	LTP274	ltpFR	19	15	-1	SCARECROW	1245	n/a	-1	n/a	n/a	n/a	n/a	n/a
2688.614	n/a	REC_WORD	1344307	wordpools/wasnorm_wordpool_less_exclusions.txt	LTP274	ltpFR	19	15	-1	COMMANDER	354	n/a	-1	n/a	n/a	n/a	n/a	n/a
2761.134	n/a	WORD	1380567	wordpools/wasnorm_wordpool_less_exclusions.txt	LTP274	ltpFR	19	16	1	BEET	115	n/a	0	1	0.412841796875	0.57763671875	upper	../fonts/zerothre.ttf
2765.03	n/a	WORD	1382515	wordpools/wasnorm_wordpool_less_exclusions.txt	LTP274	ltpFR	19	16	1	CATERPILLAR	259	n/a	1	1	0.412841796875	0.57763671875	upper	../fonts/zerothre.ttf
2768.88	n/a	WORD	1384440	wordpools/wasnorm_wordpool_less_exclusions.txt	LTP274	ltpFR	19	16	1	KITE	779	n/a	1	1	0.412841796875	0.57763671875	upper	../fonts/zerothre.ttf
2772.912	n/a	WORD	1386456	wordpools/wasnorm_wordpool_less_exclusions.txt	LTP274	ltpFR	19	16	1	SADDLE	1221	n/a	0	1	0.412841796875	0.57763671875	upper	../fonts/zerothre.ttf
2776.844	n/a	WORD	1388422	wordpools/wasnorm_wordpool_less_exclusions.txt	LTP274	ltpFR	19	16	0	COLT	349	n/a	0	0	0.5869140625	0.422607421875	lower	../fonts/amplitud.ttf
2781.01	n/a	WORD	1390505	wordpools/wasnorm_wordpool_less_exclusions.txt	LTP274	ltpFR	19	16	0	CLOWN	330	n/a	0	0	0.5869140625	0.422607421875	lower	../fonts/amplitud.ttf
2785.024	n/a	WORD	1392512	wordpools/wasnorm_wordpool_less_exclusions.txt	LTP274	ltpFR	19	16	0	FORT	595	n/a	1	0	0.5869140625	0.422607421875	lower	../fonts/amplitud.ttf
2789.006	n/a	WORD	1394503	wordpools/wasnorm_wordpool_less_exclusions.txt	LTP274	ltpFR	19	16	1	TEAM	1441	n/a	1	1	0.412841796875	0.57763671875	upper	../fonts/zerothre.ttf
2793.106	n/a	WORD	1396553	wordpools/wasnorm_wordpool_less_exclusions.txt	LTP274	ltpFR	19	16	1	VETERAN	1561	n/a	1	1	0.412841796875	0.57763671875	upper	../fonts/zerothre.ttf
2797.222	n/a	WORD	1398611	wordpools/wasnorm_wordpool_less_exclusions.txt	LTP274	ltpFR	19	16	1	CREAM	402	n/a	0	1	0.412841796875	0.57763671875	upper	../fonts/zerothre.ttf
2801.42	n/a	WORD	1400710	wordpools/wasnorm_wordpool_less_exclusions.txt	LTP274	ltpFR	19	16	1	SWEATER	1419	n/a	0	1	0.412841796875	0.57763671875	upper	../fonts/zerothre.ttf
2805.252	n/a	WORD	1402626	wordpools/wasnorm_wordpool_less_exclusions.txt	LTP274	ltpFR	19	16	0	CUE	422	n/a	0	0	0.5869140625	0.422607421875	lower	../fonts/amplitud.ttf
2809.118	n/a	WORD	1404559	wordpools/wasnorm_wordpool_less_exclusions.txt	LTP274	ltpFR	19	16	0	ROUGE	1213	n/a	0	0	0.5869140625	0.422607421875	lower	../fonts/amplitud.ttf
2812.998	n/a	WORD	1406499	wordpools/wasnorm_wordpool_less_exclusions.txt	LTP274	ltpFR	19	16	0	CARRIAGE	248	n/a	0	0	0.5869140625	0.422607421875	lower	../fonts/amplitud.ttf
2816.946	n/a	WORD	1408473	wordpools/wasnorm_wordpool_less_exclusions.txt	LTP274	ltpFR	19	16	0	COMEDIAN	352	n/a	1	0	0.5869140625	0.422607421875	lower	../fonts/amplitud.ttf
2820.862	n/a	WORD	1410431	wordpools/wasnorm_wordpool_less_exclusions.txt	LTP274	ltpFR	19	16	0	MATCH	878	n/a	0	0	0.5869140625	0.422607421875	lower	../fonts/amplitud.ttf
2826.668	n/a	REC_START	1413334	n/a	LTP274	ltpFR	19	16	n/a	n/a	n/a	n/a	n/a	n/a	n/a	n/a	n/a	n/a
2828.466	n/a	REC_WORD	1414233	wordpools/wasnorm_wordpool_less_exclusions.txt	LTP274	ltpFR	19	16	1	BEET	115	n/a	0	n/a	n/a	n/a	n/a	n/a
2829.09	n/a	REC_WORD	1414545	wordpools/wasnorm_wordpool_less_exclusions.txt	LTP274	ltpFR	19	16	1	CATERPILLAR	259	n/a	1	n/a	n/a	n/a	n/a	n/a
2830.058	n/a	REC_WORD	1415029	wordpools/wasnorm_wordpool_less_exclusions.txt	LTP274	ltpFR	19	16	1	KITE	779	n/a	1	n/a	n/a	n/a	n/a	n/a
2830.676	n/a	REC_WORD	1415338	wordpools/wasnorm_wordpool_less_exclusions.txt	LTP274	ltpFR	19	16	0	COMEDIAN	352	n/a	1	n/a	n/a	n/a	n/a	n/a
2847.548	n/a	REC_WORD	1423774	wordpools/wasnorm_wordpool_less_exclusions.txt	LTP274	ltpFR	19	16	0	CLOWN	330	n/a	0	n/a	n/a	n/a	n/a	n/a
2914.436	n/a	REC_START	1457218	n/a	LTP274	ltpFR	19	n/a	n/a	n/a	n/a	n/a	n/a	n/a	n/a	n/a	n/a	n/a
2918.212	n/a	FFR_REC_WORD	1459106	wordpools/wasnorm_wordpool_less_exclusions.txt	LTP274	ltpFR	19	n/a	1	CATERPILLAR	259	n/a	1	n/a	n/a	n/a	n/a	n/a
2919.12	n/a	FFR_REC_WORD	1459560	wordpools/wasnorm_wordpool_less_exclusions.txt	LTP274	ltpFR	19	n/a	-1	COMMANDER	354	n/a	-1	n/a	n/a	n/a	n/a	n/a
2920.198	n/a	FFR_REC_WORD	1460099	wordpools/wasnorm_wordpool_less_exclusions.txt	LTP274	ltpFR	19	n/a	-1	MAJOR	859	n/a	-1	n/a	n/a	n/a	n/a	n/a
2921.06	n/a	FFR_REC_WORD	1460530	wordpools/wasnorm_wordpool_less_exclusions.txt	LTP274	ltpFR	19	n/a	-1	LIEUTENANT	818	n/a	-1	n/a	n/a	n/a	n/a	n/a
2923.578	n/a	FFR_REC_WORD	1461789	wordpools/wasnorm_wordpool_less_exclusions.txt	LTP274	ltpFR	19	n/a	1	BEET	115	n/a	0	n/a	n/a	n/a	n/a	n/a
2927.478	n/a	FFR_REC_WORD	1463739	wordpools/wasnorm_wordpool_less_exclusions.txt	LTP274	ltpFR	19	n/a	0	AFRICA	9	n/a	0	n/a	n/a	n/a	n/a	n/a
2934.986	n/a	FFR_REC_WORD	1467493	wordpools/wasnorm_wordpool_less_exclusions.txt	LTP274	ltpFR	19	n/a	0	SALMON	1227	n/a	0	n/a	n/a	n/a	n/a	n/a
2935.858	n/a	FFR_REC_WORD	1467929	wordpools/wasnorm_wordpool_less_exclusions.txt	LTP274	ltpFR	19	n/a	n/a	FISH	571	n/a	n/a	n/a	n/a	n/a	n/a	n/a
2938.298	n/a	FFR_REC_WORD	1469149	wordpools/wasnorm_wordpool_less_exclusions.txt	LTP274	ltpFR	19	n/a	0	SHRIMP	1297	n/a	0	n/a	n/a	n/a	n/a	n/a
2939.47	n/a	FFR_REC_WORD	1469735	wordpools/wasnorm_wordpool_less_exclusions.txt	LTP274	ltpFR	19	n/a	n/a	LOBSTER	837	n/a	n/a	n/a	n/a	n/a	n/a	n/a
2940.234	n/a	FFR_REC_WORD	1470117	wordpools/wasnorm_wordpool_less_exclusions.txt	LTP274	ltpFR	19	n/a	1	PENGUIN	1044	n/a	1	n/a	n/a	n/a	n/a	n/a
2941.042	n/a	FFR_REC_WORD	1470521	wordpools/wasnorm_wordpool_less_exclusions.txt	LTP274	ltpFR	19	n/a	n/a	WHALE	1601	n/a	n/a	n/a	n/a	n/a	n/a	n/a
2941.64	n/a	FFR_REC_WORD	1470820	wordpools/wasnorm_wordpool_less_exclusions.txt	LTP274	ltpFR	19	n/a	1	CAGE	218	n/a	0	n/a	n/a	n/a	n/a	n/a
2942.314	n/a	FFR_REC_WORD	1471157	wordpools/wasnorm_wordpool_less_exclusions.txt	LTP274	ltpFR	19	n/a	1	ELEPHANT	523	n/a	1	n/a	n/a	n/a	n/a	n/a
2942.94	n/a	FFR_REC_WORD	1471470	wordpools/wasnorm_wordpool_less_exclusions.txt	LTP274	ltpFR	19	n/a	1	PUPPY	1144	n/a	0	n/a	n/a	n/a	n/a	n/a
2943.496	n/a	FFR_REC_WORD	1471748	wordpools/wasnorm_wordpool_less_exclusions.txt	LTP274	ltpFR	19	n/a	1	TAIL	1430	n/a	0	n/a	n/a	n/a	n/a	n/a
2949.408	n/a	FFR_REC_WORD	1474704	wordpools/wasnorm_wordpool_less_exclusions.txt	LTP274	ltpFR	19	n/a	0	GIRL	637	n/a	1	n/a	n/a	n/a	n/a	n/a
2962.056	n/a	FFR_REC_WORD	1481028	wordpools/wasnorm_wordpool_less_exclusions.txt	LTP274	ltpFR	19	n/a	1	WATER	1594	n/a	0	n/a	n/a	n/a	n/a	n/a
2989.724	n/a	FFR_REC_WORD	1494862	wordpools/wasnorm_wordpool_less_exclusions.txt	LTP274	ltpFR	19	n/a	-1	FARM	552	n/a	-1	n/a	n/a	n/a	n/a	n/a
2990.706	n/a	FFR_REC_WORD	1495353	wordpools/wasnorm_wordpool_less_exclusions.txt	LTP274	ltpFR	19	n/a	-1	GARDEN	623	n/a	-1	n/a	n/a	n/a	n/a	n/a
2991.56	n/a	FFR_REC_WORD	1495780	wordpools/wasnorm_wordpool_less_exclusions.txt	LTP274	ltpFR	19	n/a	-1	BARN	89	n/a	-1	n/a	n/a	n/a	n/a	n/a
2993.112	n/a	FFR_REC_WORD	1496556	wordpools/wasnorm_wordpool_less_exclusions.txt	LTP274	ltpFR	19	n/a	-1	VEGETABLE	1552	n/a	-1	n/a	n/a	n/a	n/a	n/a
2993.79	n/a	FFR_REC_WORD	1496895	wordpools/wasnorm_wordpool_less_exclusions.txt	LTP274	ltpFR	19	n/a	-1	FRUIT	610	n/a	-1	n/a	n/a	n/a	n/a	n/a
2995.172	n/a	FFR_REC_WORD	1497586	wordpools/wasnorm_wordpool_less_exclusions.txt	LTP274	ltpFR	19	n/a	-1	BLACKBERRY	132	n/a	-1	n/a	n/a	n/a	n/a	n/a
3040.696	n/a	FFR_REC_WORD	1520348	wordpools/wasnorm_wordpool_less_exclusions.txt	LTP274	ltpFR	19	n/a	0	PORPOISE	1109	n/a	0	n/a	n/a	n/a	n/a	n/a
3063.102	n/a	FFR_REC_WORD	1531551	wordpools/wasnorm_wordpool_less_exclusions.txt	LTP274	ltpFR	19	n/a	0	CLOWN	330	n/a	0	n/a	n/a	n/a	n/a	n/a
3063.874	n/a	FFR_REC_WORD	1531937	wordpools/wasnorm_wordpool_less_exclusions.txt	LTP274	ltpFR	19	n/a	0	COMEDIAN	352	n/a	1	n/a	n/a	n/a	n/a	n/a
3068.908	n/a	FFR_REC_WORD	1534454	wordpools/wasnorm_wordpool_less_exclusions.txt	LTP274	ltpFR	19	n/a	0	SOCIETY	1338	n/a	1	n/a	n/a	n/a	n/a	n/a
3082.748	n/a	FFR_REC_WORD	1541374	wordpools/wasnorm_wordpool_less_exclusions.txt	LTP274	ltpFR	19	n/a	0	BOUILLON	154	n/a	0	n/a	n/a	n/a	n/a	n/a
3153.7	n/a	FFR_REC_WORD	1576850	wordpools/wasnorm_wordpool_less_exclusions.txt	LTP274	ltpFR	19	n/a	0	PRIMATE	1123	n/a	0	n/a	n/a	n/a	n/a	n/a
3600.092	n/a	REC_START	1800046	n/a	LTP274	ltpFR	19	1	n/a	n/a	n/a	n/a	n/a	n/a	n/a	n/a	n/a	n/a
3600.14	n/a	RECOG_LURE	1800070	n/a	LTP274	ltpFR	19	1	n/a	CEILING	265	2	n/a	n/a	n/a	n/a	n/a	n/a
3601.326	n/a	RECOG_RESP	1800663	n/a	LTP274	ltpFR	19	1	n/a	CEILING	265	n/a	n/a	n/a	n/a	n/a	n/a	n/a
3601.742	n/a	RECOG_CONF	1800871	n/a	LTP274	ltpFR	19	1	n/a	CEILING	265	2	n/a	n/a	n/a	n/a	n/a	n/a
3604.156	n/a	RECOG_TARGET	1802078	n/a	LTP274	ltpFR	19	1	1	PLAYGROUND	1087	4	0	n/a	n/a	n/a	n/a	n/a
3604.882	n/a	RECOG_RESP	1802441	n/a	LTP274	ltpFR	19	1	1	PLAYGROUND	1087	n/a	0	n/a	n/a	n/a	n/a	n/a
3605.282	n/a	RECOG_CONF	1802641	n/a	LTP274	ltpFR	19	1	1	PLAYGROUND	1087	4	0	n/a	n/a	n/a	n/a	n/a
3607.118	n/a	RECOG_TARGET	1803559	n/a	LTP274	ltpFR	19	1	0	WAGON	1578	3	1	n/a	n/a	n/a	n/a	n/a
3608.592	n/a	RECOG_RESP	1804296	n/a	LTP274	ltpFR	19	1	0	WAGON	1578	n/a	1	n/a	n/a	n/a	n/a	n/a
3608.982	n/a	RECOG_CONF	1804491	n/a	LTP274	ltpFR	19	1	0	WAGON	1578	3	1	n/a	n/a	n/a	n/a	n/a
3610.714	n/a	RECOG_LURE	1805357	n/a	LTP274	ltpFR	19	1	n/a	GOLD	647	4	n/a	n/a	n/a	n/a	n/a	n/a
3611.428	n/a	RECOG_RESP	1805714	n/a	LTP274	ltpFR	19	1	n/a	GOLD	647	n/a	n/a	n/a	n/a	n/a	n/a	n/a
3611.722	n/a	RECOG_CONF	1805861	n/a	LTP274	ltpFR	19	1	n/a	GOLD	647	4	n/a	n/a	n/a	n/a	n/a	n/a
3613.406	n/a	RECOG_TARGET	1806703	n/a	LTP274	ltpFR	19	1	1	BUSH	202	5	0	n/a	n/a	n/a	n/a	n/a
3614.062	n/a	RECOG_RESP	1807031	n/a	LTP274	ltpFR	19	1	1	BUSH	202	n/a	0	n/a	n/a	n/a	n/a	n/a
3614.372	n/a	RECOG_CONF	1807186	n/a	LTP274	ltpFR	19	1	1	BUSH	202	5	0	n/a	n/a	n/a	n/a	n/a
3616.016	n/a	RECOG_TARGET	1808008	n/a	LTP274	ltpFR	19	1	0	SINK	1309	4	0	n/a	n/a	n/a	n/a	n/a
3616.778	n/a	RECOG_RESP	1808389	n/a	LTP274	ltpFR	19	1	0	SINK	1309	n/a	0	n/a	n/a	n/a	n/a	n/a
3617.092	n/a	RECOG_CONF	1808546	n/a	LTP274	ltpFR	19	1	0	SINK	1309	4	0	n/a	n/a	n/a	n/a	n/a
3619.062	n/a	RECOG_TARGET	1809531	n/a	LTP274	ltpFR	19	1	1	VET	1560	5	1	n/a	n/a	n/a	n/a	n/a
3619.778	n/a	RECOG_RESP	1809889	n/a	LTP274	ltpFR	19	1	1	VET	1560	n/a	1	n/a	n/a	n/a	n/a	n/a
3620.072	n/a	RECOG_CONF	1810036	n/a	LTP274	ltpFR	19	1	1	VET	1560	5	1	n/a	n/a	n/a	n/a	n/a
3621.704	n/a	RECOG_LURE	1810852	n/a	LTP274	ltpFR	19	1	n/a	ACORN	3	2	n/a	n/a	n/a	n/a	n/a	n/a
3622.708	n/a	RECOG_RESP	1811354	n/a	LTP274	ltpFR	19	1	n/a	ACORN	3	n/a	n/a	n/a	n/a	n/a	n/a	n/a
3623.274	n/a	RECOG_CONF	1811637	n/a	LTP274	ltpFR	19	1	n/a	ACORN	3	2	n/a	n/a	n/a	n/a	n/a	n/a
3624.934	n/a	RECOG_TARGET	1812467	n/a	LTP274	ltpFR	19	1	0	LABEL	790	2	0	n/a	n/a	n/a	n/a	n/a
3626.134	n/a	RECOG_RESP	1813067	n/a	LTP274	ltpFR	19	1	0	LABEL	790	n/a	0	n/a	n/a	n/a	n/a	n/a
3626.494	n/a	RECOG_CONF	1813247	n/a	LTP274	ltpFR	19	1	0	LABEL	790	2	0	n/a	n/a	n/a	n/a	n/a
3628.262	n/a	RECOG_TARGET	1814131	n/a	LTP274	ltpFR	19	1	1	DICTATOR	462	4	1	n/a	n/a	n/a	n/a	n/a
3628.928	n/a	RECOG_RESP	1814464	n/a	LTP274	ltpFR	19	1	1	DICTATOR	462	n/a	1	n/a	n/a	n/a	n/a	n/a
3629.244	n/a	RECOG_CONF	1814622	n/a	LTP274	ltpFR	19	1	1	DICTATOR	462	4	1	n/a	n/a	n/a	n/a	n/a
3631.008	n/a	RECOG_LURE	1815504	n/a	LTP274	ltpFR	19	1	n/a	BIKE	125	3	n/a	n/a	n/a	n/a	n/a	n/a
3631.944	n/a	RECOG_RESP	1815972	n/a	LTP274	ltpFR	19	1	n/a	BIKE	125	n/a	n/a	n/a	n/a	n/a	n/a	n/a
3632.224	n/a	RECOG_CONF	1816112	n/a	LTP274	ltpFR	19	1	n/a	BIKE	125	3	n/a	n/a	n/a	n/a	n/a	n/a
3633.986	n/a	RECOG_TARGET	1816993	n/a	LTP274	ltpFR	19	1	-1	SURF	1412	3	-1	n/a	n/a	n/a	n/a	n/a
3634.794	n/a	RECOG_RESP_VV	1817397	n/a	LTP274	ltpFR	19	1	-1	SURF	1412	n/a	-1	n/a	n/a	n/a	n/a	n/a
3635.438	n/a	RECOG_RESP	1817719	n/a	LTP274	ltpFR	19	1	-1	SURF	1412	n/a	-1	n/a	n/a	n/a	n/a	n/a
3635.724	n/a	RECOG_CONF	1817862	n/a	LTP274	ltpFR	19	1	-1	SURF	1412	3	-1	n/a	n/a	n/a	n/a	n/a
3637.566	n/a	RECOG_LURE	1818783	n/a	LTP274	ltpFR	19	1	n/a	ARTICLE	42	2	n/a	n/a	n/a	n/a	n/a	n/a
3638.838	n/a	RECOG_RESP_VV	1819419	n/a	LTP274	ltpFR	19	1	n/a	ARTICLE	42	n/a	n/a	n/a	n/a	n/a	n/a	n/a
3639.426	n/a	RECOG_RESP	1819713	n/a	LTP274	ltpFR	19	1	n/a	ARTICLE	42	n/a	n/a	n/a	n/a	n/a	n/a	n/a
3639.96	n/a	RECOG_CONF	1819980	n/a	LTP274	ltpFR	19	1	n/a	ARTICLE	42	2	n/a	n/a	n/a	n/a	n/a	n/a
3641.58	n/a	RECOG_TARGET	1820790	n/a	LTP274	ltpFR	19	1	1	CHESS	294	4	0	n/a	n/a	n/a	n/a	n/a
3642.37	n/a	RECOG_RESP	1821185	n/a	LTP274	ltpFR	19	1	1	CHESS	294	n/a	0	n/a	n/a	n/a	n/a	n/a
3642.654	n/a	RECOG_CONF	1821327	n/a	LTP274	ltpFR	19	1	1	CHESS	294	4	0	n/a	n/a	n/a	n/a	n/a
3644.726	n/a	RECOG_LURE	1822363	n/a	LTP274	ltpFR	19	1	n/a	GLACIER	638	3	n/a	n/a	n/a	n/a	n/a	n/a
3645.834	n/a	RECOG_RESP	1822917	n/a	LTP274	ltpFR	19	1	n/a	GLACIER	638	n/a	n/a	n/a	n/a	n/a	n/a	n/a
3646.134	n/a	RECOG_CONF	1823067	n/a	LTP274	ltpFR	19	1	n/a	GLACIER	638	3	n/a	n/a	n/a	n/a	n/a	n/a
3647.838	n/a	RECOG_TARGET	1823919	n/a	LTP274	ltpFR	19	1	1	ANT	25	4	1	n/a	n/a	n/a	n/a	n/a
3648.5	n/a	RECOG_RESP	1824250	n/a	LTP274	ltpFR	19	1	1	ANT	25	n/a	1	n/a	n/a	n/a	n/a	n/a
3648.784	n/a	RECOG_CONF	1824392	n/a	LTP274	ltpFR	19	1	1	ANT	25	4	1	n/a	n/a	n/a	n/a	n/a
3650.482	n/a	RECOG_TARGET	1825241	n/a	LTP274	ltpFR	19	1	-1	NIECE	952	2	-1	n/a	n/a	n/a	n/a	n/a
3651.95	n/a	RECOG_RESP	1825975	n/a	LTP274	ltpFR	19	1	-1	NIECE	952	n/a	-1	n/a	n/a	n/a	n/a	n/a
3652.284	n/a	RECOG_CONF	1826142	n/a	LTP274	ltpFR	19	1	-1	NIECE	952	2	-1	n/a	n/a	n/a	n/a	n/a
3653.878	n/a	RECOG_LURE	1826939	n/a	LTP274	ltpFR	19	1	n/a	ACROBAT	4	3	n/a	n/a	n/a	n/a	n/a	n/a
3654.704	n/a	RECOG_RESP	1827352	n/a	LTP274	ltpFR	19	1	n/a	ACROBAT	4	n/a	n/a	n/a	n/a	n/a	n/a	n/a
3655.014	n/a	RECOG_CONF	1827507	n/a	LTP274	ltpFR	19	1	n/a	ACROBAT	4	3	n/a	n/a	n/a	n/a	n/a	n/a
3656.706	n/a	RECOG_LURE	1828353	n/a	LTP274	ltpFR	19	1	n/a	COLUMN	350	2	n/a	n/a	n/a	n/a	n/a	n/a
3658.234	n/a	RECOG_RESP	1829117	n/a	LTP274	ltpFR	19	1	n/a	COLUMN	350	n/a	n/a	n/a	n/a	n/a	n/a	n/a
3658.454	n/a	RECOG_CONF	1829227	n/a	LTP274	ltpFR	19	1	n/a	COLUMN	350	2	n/a	n/a	n/a	n/a	n/a	n/a
3660.202	n/a	RECOG_LURE	1830101	n/a	LTP274	ltpFR	19	1	n/a	BARK	87	3	n/a	n/a	n/a	n/a	n/a	n/a
3661.166	n/a	RECOG_RESP	1830583	n/a	LTP274	ltpFR	19	1	n/a	BARK	87	n/a	n/a	n/a	n/a	n/a	n/a	n/a
3661.356	n/a	RECOG_CONF	1830678	n/a	LTP274	ltpFR	19	1	n/a	BARK	87	3	n/a	n/a	n/a	n/a	n/a	n/a
3664.984	n/a	REC_START	1832492	n/a	LTP274	ltpFR	19	2	n/a	n/a	n/a	n/a	n/a	n/a	n/a	n/a	n/a	n/a
3665.038	n/a	RECOG_TARGET	1832519	n/a	LTP274	ltpFR	19	2	0	PLASTER	1085	4	0	n/a	n/a	n/a	n/a	n/a
3665.964	n/a	RECOG_RESP	1832982	n/a	LTP274	ltpFR	19	2	0	PLASTER	1085	n/a	0	n/a	n/a	n/a	n/a	n/a
3666.264	n/a	RECOG_CONF	1833132	n/a	LTP274	ltpFR	19	2	0	PLASTER	1085	4	0	n/a	n/a	n/a	n/a	n/a
3668.1	n/a	RECOG_LURE	1834050	n/a	LTP274	ltpFR	19	2	n/a	DWARF	510	4	n/a	n/a	n/a	n/a	n/a	n/a
3669.194	n/a	RECOG_RESP	1834597	n/a	LTP274	ltpFR	19	2	n/a	DWARF	510	n/a	n/a	n/a	n/a	n/a	n/a	n/a
3669.394	n/a	RECOG_CONF	1834697	n/a	LTP274	ltpFR	19	2	n/a	DWARF	510	4	n/a	n/a	n/a	n/a	n/a	n/a
3671.262	n/a	RECOG_TARGET	1835631	n/a	LTP274	ltpFR	19	2	0	BULLETIN	195	1	0	n/a	n/a	n/a	n/a	n/a
3672.534	n/a	RECOG_RESP	1836267	n/a	LTP274	ltpFR	19	2	0	BULLETIN	195	n/a	0	n/a	n/a	n/a	n/a	n/a
3673.504	n/a	RECOG_CONF	1836752	n/a	LTP274	ltpFR	19	2	0	BULLETIN	195	1	0	n/a	n/a	n/a	n/a	n/a
3675.36	n/a	RECOG_LURE	1837680	n/a	LTP274	ltpFR	19	2	n/a	TAG	1429	2	n/a	n/a	n/a	n/a	n/a	n/a
3676.264	n/a	RECOG_RESP	1838132	n/a	LTP274	ltpFR	19	2	n/a	TAG	1429	n/a	n/a	n/a	n/a	n/a	n/a	n/a
3676.804	n/a	RECOG_CONF	1838402	n/a	LTP274	ltpFR	19	2	n/a	TAG	1429	2	n/a	n/a	n/a	n/a	n/a	n/a
3678.488	n/a	RECOG_LURE	1839244	n/a	LTP274	ltpFR	19	2	n/a	SWORD	1423	3	n/a	n/a	n/a	n/a	n/a	n/a
3679.3	n/a	RECOG_RESP	1839650	n/a	LTP274	ltpFR	19	2	n/a	SWORD	1423	n/a	n/a	n/a	n/a	n/a	n/a	n/a
3679.506	n/a	RECOG_CONF	1839753	n/a	LTP274	ltpFR	19	2	n/a	SWORD	1423	3	n/a	n/a	n/a	n/a	n/a	n/a
3681.366	n/a	RECOG_TARGET	1840683	n/a	LTP274	ltpFR	19	2	-1	MOUNTAIN	924	2	-1	n/a	n/a	n/a	n/a	n/a
3682.35	n/a	RECOG_RESP	1841175	n/a	LTP274	ltpFR	19	2	-1	MOUNTAIN	924	n/a	-1	n/a	n/a	n/a	n/a	n/a
3682.626	n/a	RECOG_CONF	1841313	n/a	LTP274	ltpFR	19	2	-1	MOUNTAIN	924	2	-1	n/a	n/a	n/a	n/a	n/a
3684.712	n/a	RECOG_LURE	1842356	n/a	LTP274	ltpFR	19	2	n/a	CROWN	415	1	n/a	n/a	n/a	n/a	n/a	n/a
3685.32	n/a	RECOG_RESP	1842660	n/a	LTP274	ltpFR	19	2	n/a	CROWN	415	n/a	n/a	n/a	n/a	n/a	n/a	n/a
3685.646	n/a	RECOG_CONF	1842823	n/a	LTP274	ltpFR	19	2	n/a	CROWN	415	1	n/a	n/a	n/a	n/a	n/a	n/a
3687.354	n/a	RECOG_TARGET	1843677	n/a	LTP274	ltpFR	19	2	1	COLOGNE	347	3	0	n/a	n/a	n/a	n/a	n/a
3688.14	n/a	RECOG_RESP	1844070	n/a	LTP274	ltpFR	19	2	1	COLOGNE	347	n/a	0	n/a	n/a	n/a	n/a	n/a
3688.396	n/a	RECOG_CONF	1844198	n/a	LTP274	ltpFR	19	2	1	COLOGNE	347	3	0	n/a	n/a	n/a	n/a	n/a
3690.248	n/a	RECOG_TARGET	1845124	n/a	LTP274	ltpFR	19	2	0	DUMP	505	2	0	n/a	n/a	n/a	n/a	n/a
3691.326	n/a	RECOG_RESP	1845663	n/a	LTP274	ltpFR	19	2	0	DUMP	505	n/a	0	n/a	n/a	n/a	n/a	n/a
3691.576	n/a	RECOG_CONF	1845788	n/a	LTP274	ltpFR	19	2	0	DUMP	505	2	0	n/a	n/a	n/a	n/a	n/a
3693.48	n/a	RECOG_TARGET	1846740	n/a	LTP274	ltpFR	19	2	-1	ARROW	40	4	-1	n/a	n/a	n/a	n/a	n/a
3694.166	n/a	RECOG_RESP	1847083	n/a	LTP274	ltpFR	19	2	-1	ARROW	40	n/a	-1	n/a	n/a	n/a	n/a	n/a
3694.466	n/a	RECOG_CONF	1847233	n/a	LTP274	ltpFR	19	2	-1	ARROW	40	4	-1	n/a	n/a	n/a	n/a	n/a
3696.038	n/a	RECOG_TARGET	1848019	n/a	LTP274	ltpFR	19	2	-1	LEADER	807	3	-1	n/a	n/a	n/a	n/a	n/a
3697.03	n/a	RECOG_RESP	1848515	n/a	LTP274	ltpFR	19	2	-1	LEADER	807	n/a	-1	n/a	n/a	n/a	n/a	n/a
3697.366	n/a	RECOG_CONF	1848683	n/a	LTP274	ltpFR	19	2	-1	LEADER	807	3	-1	n/a	n/a	n/a	n/a	n/a
3699.12	n/a	RECOG_LURE	1849560	n/a	LTP274	ltpFR	19	2	n/a	HIP	710	2	n/a	n/a	n/a	n/a	n/a	n/a
3699.966	n/a	RECOG_RESP	1849983	n/a	LTP274	ltpFR	19	2	n/a	HIP	710	n/a	n/a	n/a	n/a	n/a	n/a	n/a
3700.236	n/a	RECOG_CONF	1850118	n/a	LTP274	ltpFR	19	2	n/a	HIP	710	2	n/a	n/a	n/a	n/a	n/a	n/a
3701.946	n/a	RECOG_TARGET	1850973	n/a	LTP274	ltpFR	19	2	-1	BARN	89	4	-1	n/a	n/a	n/a	n/a	n/a
3702.782	n/a	RECOG_RESP	1851391	n/a	LTP274	ltpFR	19	2	-1	BARN	89	n/a	-1	n/a	n/a	n/a	n/a	n/a
3703.096	n/a	RECOG_CONF	1851548	n/a	LTP274	ltpFR	19	2	-1	BARN	89	4	-1	n/a	n/a	n/a	n/a	n/a
3704.856	n/a	RECOG_TARGET	1852428	n/a	LTP274	ltpFR	19	2	0	TUB	1514	4	1	n/a	n/a	n/a	n/a	n/a
3705.746	n/a	RECOG_RESP	1852873	n/a	LTP274	ltpFR	19	2	0	TUB	1514	n/a	1	n/a	n/a	n/a	n/a	n/a
3706.076	n/a	RECOG_CONF	1853038	n/a	LTP274	ltpFR	19	2	0	TUB	1514	4	1	n/a	n/a	n/a	n/a	n/a
3707.682	n/a	RECOG_TARGET	1853841	n/a	LTP274	ltpFR	19	2	1	BEAST	108	3	1	n/a	n/a	n/a	n/a	n/a
3710.012	n/a	RECOG_RESP	1855006	n/a	LTP274	ltpFR	19	2	1	BEAST	108	n/a	1	n/a	n/a	n/a	n/a	n/a
3710.366	n/a	RECOG_CONF	1855183	n/a	LTP274	ltpFR	19	2	1	BEAST	108	3	1	n/a	n/a	n/a	n/a	n/a
3711.966	n/a	RECOG_TARGET	1855983	n/a	LTP274	ltpFR	19	2	1	PREACHER	1119	3	1	n/a	n/a	n/a	n/a	n/a
3712.696	n/a	RECOG_RESP	1856348	n/a	LTP274	ltpFR	19	2	1	PREACHER	1119	n/a	1	n/a	n/a	n/a	n/a	n/a
3713.046	n/a	RECOG_CONF	1856523	n/a	LTP274	ltpFR	19	2	1	PREACHER	1119	3	1	n/a	n/a	n/a	n/a	n/a
3714.66	n/a	RECOG_LURE	1857330	n/a	LTP274	ltpFR	19	2	n/a	EYE	545	4	n/a	n/a	n/a	n/a	n/a	n/a
3715.952	n/a	RECOG_RESP	1857976	n/a	LTP274	ltpFR	19	2	n/a	EYE	545	n/a	n/a	n/a	n/a	n/a	n/a	n/a
3716.166	n/a	RECOG_CONF	1858083	n/a	LTP274	ltpFR	19	2	n/a	EYE	545	4	n/a	n/a	n/a	n/a	n/a	n/a
3718.224	n/a	RECOG_TARGET	1859112	n/a	LTP274	ltpFR	19	2	1	SQUID	1361	5	1	n/a	n/a	n/a	n/a	n/a
3719.048	n/a	RECOG_RESP	1859524	n/a	LTP274	ltpFR	19	2	1	SQUID	1361	n/a	1	n/a	n/a	n/a	n/a	n/a
3719.388	n/a	RECOG_CONF	1859694	n/a	LTP274	ltpFR	19	2	1	SQUID	1361	5	1	n/a	n/a	n/a	n/a	n/a
3721.136	n/a	RECOG_LURE	1860568	n/a	LTP274	ltpFR	19	2	n/a	JURY	766	3	n/a	n/a	n/a	n/a	n/a	n/a
3722.098	n/a	RECOG_RESP	1861049	n/a	LTP274	ltpFR	19	2	n/a	JURY	766	n/a	n/a	n/a	n/a	n/a	n/a	n/a
3722.398	n/a	RECOG_CONF	1861199	n/a	LTP274	ltpFR	19	2	n/a	JURY	766	3	n/a	n/a	n/a	n/a	n/a	n/a
3724.18	n/a	RECOG_LURE	1862090	n/a	LTP274	ltpFR	19	2	n/a	RASPBERRY	1168	4	n/a	n/a	n/a	n/a	n/a	n/a
3725.048	n/a	RECOG_RESP	1862524	n/a	LTP274	ltpFR	19	2	n/a	RASPBERRY	1168	n/a	n/a	n/a	n/a	n/a	n/a	n/a
3725.268	n/a	RECOG_CONF	1862634	n/a	LTP274	ltpFR	19	2	n/a	RASPBERRY	1168	4	n/a	n/a	n/a	n/a	n/a	n/a
3728.842	n/a	REC_START	1864421	n/a	LTP274	ltpFR	19	3	n/a	n/a	n/a	n/a	n/a	n/a	n/a	n/a	n/a	n/a
3728.898	n/a	RECOG_TARGET	1864449	n/a	LTP274	ltpFR	19	3	0	FOREHEAD	592	4	0	n/a	n/a	n/a	n/a	n/a
3729.742	n/a	RECOG_RESP	1864871	n/a	LTP274	ltpFR	19	3	0	FOREHEAD	592	n/a	0	n/a	n/a	n/a	n/a	n/a
3730.082	n/a	RECOG_CONF	1865041	n/a	LTP274	ltpFR	19	3	0	FOREHEAD	592	4	0	n/a	n/a	n/a	n/a	n/a
3731.944	n/a	RECOG_TARGET	1865972	n/a	LTP274	ltpFR	19	3	1	CACTUS	215	5	1	n/a	n/a	n/a	n/a	n/a
3732.676	n/a	RECOG_RESP	1866338	n/a	LTP274	ltpFR	19	3	1	CACTUS	215	n/a	1	n/a	n/a	n/a	n/a	n/a
3733.002	n/a	RECOG_CONF	1866501	n/a	LTP274	ltpFR	19	3	1	CACTUS	215	5	1	n/a	n/a	n/a	n/a	n/a
3734.602	n/a	RECOG_LURE	1867301	n/a	LTP274	ltpFR	19	3	n/a	CLAW	319	2	n/a	n/a	n/a	n/a	n/a	n/a
3735.708	n/a	RECOG_RESP	1867854	n/a	LTP274	ltpFR	19	3	n/a	CLAW	319	n/a	n/a	n/a	n/a	n/a	n/a	n/a
3736.002	n/a	RECOG_CONF	1868001	n/a	LTP274	ltpFR	19	3	n/a	CLAW	319	2	n/a	n/a	n/a	n/a	n/a	n/a
3737.732	n/a	RECOG_LURE	1868866	n/a	LTP274	ltpFR	19	3	n/a	DRAWING	494	2	n/a	n/a	n/a	n/a	n/a	n/a
3738.648	n/a	RECOG_RESP	1869324	n/a	LTP274	ltpFR	19	3	n/a	DRAWING	494	n/a	n/a	n/a	n/a	n/a	n/a	n/a
3738.972	n/a	RECOG_CONF	1869486	n/a	LTP274	ltpFR	19	3	n/a	DRAWING	494	2	n/a	n/a	n/a	n/a	n/a	n/a
3740.742	n/a	RECOG_LURE	1870371	n/a	LTP274	ltpFR	19	3	n/a	SENATOR	1268	1	n/a	n/a	n/a	n/a	n/a	n/a
3741.888	n/a	RECOG_RESP	1870944	n/a	LTP274	ltpFR	19	3	n/a	SENATOR	1268	n/a	n/a	n/a	n/a	n/a	n/a	n/a
3742.242	n/a	RECOG_CONF	1871121	n/a	LTP274	ltpFR	19	3	n/a	SENATOR	1268	1	n/a	n/a	n/a	n/a	n/a	n/a
3744.074	n/a	RECOG_LURE	1872037	n/a	LTP274	ltpFR	19	3	n/a	FREEWAY	603	3	n/a	n/a	n/a	n/a	n/a	n/a
3744.942	n/a	RECOG_RESP	1872471	n/a	LTP274	ltpFR	19	3	n/a	FREEWAY	603	n/a	n/a	n/a	n/a	n/a	n/a	n/a
3745.272	n/a	RECOG_CONF	1872636	n/a	LTP274	ltpFR	19	3	n/a	FREEWAY	603	3	n/a	n/a	n/a	n/a	n/a	n/a
3746.968	n/a	RECOG_TARGET	1873484	n/a	LTP274	ltpFR	19	3	0	CUE	422	3	0	n/a	n/a	n/a	n/a	n/a
3747.732	n/a	RECOG_RESP	1873866	n/a	LTP274	ltpFR	19	3	0	CUE	422	n/a	0	n/a	n/a	n/a	n/a	n/a
3748.052	n/a	RECOG_CONF	1874026	n/a	LTP274	ltpFR	19	3	0	CUE	422	3	0	n/a	n/a	n/a	n/a	n/a
3749.66	n/a	RECOG_LURE	1874830	n/a	LTP274	ltpFR	19	3	n/a	PRIEST	1122	2	n/a	n/a	n/a	n/a	n/a	n/a
3750.462	n/a	RECOG_RESP	1875231	n/a	LTP274	ltpFR	19	3	n/a	PRIEST	1122	n/a	n/a	n/a	n/a	n/a	n/a	n/a
3750.732	n/a	RECOG_CONF	1875366	n/a	LTP274	ltpFR	19	3	n/a	PRIEST	1122	2	n/a	n/a	n/a	n/a	n/a	n/a
3752.472	n/a	RECOG_TARGET	1876236	n/a	LTP274	ltpFR	19	3	1	QUAIL	1147	3	1	n/a	n/a	n/a	n/a	n/a
3753.218	n/a	RECOG_RESP	1876609	n/a	LTP274	ltpFR	19	3	1	QUAIL	1147	n/a	1	n/a	n/a	n/a	n/a	n/a
3753.502	n/a	RECOG_CONF	1876751	n/a	LTP274	ltpFR	19	3	1	QUAIL	1147	3	1	n/a	n/a	n/a	n/a	n/a
3755.148	n/a	RECOG_LURE	1877574	n/a	LTP274	ltpFR	19	3	n/a	OFFICER	973	2	n/a	n/a	n/a	n/a	n/a	n/a
3756.028	n/a	RECOG_RESP	1878014	n/a	LTP274	ltpFR	19	3	n/a	OFFICER	973	n/a	n/a	n/a	n/a	n/a	n/a	n/a
3756.354	n/a	RECOG_CONF	1878177	n/a	LTP274	ltpFR	19	3	n/a	OFFICER	973	2	n/a	n/a	n/a	n/a	n/a	n/a
3757.974	n/a	RECOG_LURE	1878987	n/a	LTP274	ltpFR	19	3	n/a	HELMET	702	2	n/a	n/a	n/a	n/a	n/a	n/a
3759.174	n/a	RECOG_RESP	1879587	n/a	LTP274	ltpFR	19	3	n/a	HELMET	702	n/a	n/a	n/a	n/a	n/a	n/a	n/a
3759.474	n/a	RECOG_CONF	1879737	n/a	LTP274	ltpFR	19	3	n/a	HELMET	702	2	n/a	n/a	n/a	n/a	n/a	n/a
3761.372	n/a	RECOG_TARGET	1880686	n/a	LTP274	ltpFR	19	3	0	LIME	823	2	0	n/a	n/a	n/a	n/a	n/a
3762.584	n/a	RECOG_RESP	1881292	n/a	LTP274	ltpFR	19	3	0	LIME	823	n/a	0	n/a	n/a	n/a	n/a	n/a
3762.814	n/a	RECOG_CONF	1881407	n/a	LTP274	ltpFR	19	3	0	LIME	823	2	0	n/a	n/a	n/a	n/a	n/a
3764.602	n/a	RECOG_LURE	1882301	n/a	LTP274	ltpFR	19	3	n/a	CHEERLEADER	288	2	n/a	n/a	n/a	n/a	n/a	n/a
3765.418	n/a	RECOG_RESP	1882709	n/a	LTP274	ltpFR	19	3	n/a	CHEERLEADER	288	n/a	n/a	n/a	n/a	n/a	n/a	n/a
3765.694	n/a	RECOG_CONF	1882847	n/a	LTP274	ltpFR	19	3	n/a	CHEERLEADER	288	2	n/a	n/a	n/a	n/a	n/a	n/a
3767.496	n/a	RECOG_TARGET	1883748	n/a	LTP274	ltpFR	19	3	0	TOTE	1487	4	0	n/a	n/a	n/a	n/a	n/a
3768.374	n/a	RECOG_RESP	1884187	n/a	LTP274	ltpFR	19	3	0	TOTE	1487	n/a	0	n/a	n/a	n/a	n/a	n/a
3768.684	n/a	RECOG_CONF	1884342	n/a	LTP274	ltpFR	19	3	0	TOTE	1487	4	0	n/a	n/a	n/a	n/a	n/a
3770.424	n/a	RECOG_TARGET	1885212	n/a	LTP274	ltpFR	19	3	-1	CANAL	226	1	-1	n/a	n/a	n/a	n/a	n/a
3771.698	n/a	RECOG_RESP	1885849	n/a	LTP274	ltpFR	19	3	-1	CANAL	226	n/a	-1	n/a	n/a	n/a	n/a	n/a
3771.994	n/a	RECOG_CONF	1885997	n/a	LTP274	ltpFR	19	3	-1	CANAL	226	1	-1	n/a	n/a	n/a	n/a	n/a
3773.836	n/a	RECOG_TARGET	1886918	n/a	LTP274	ltpFR	19	3	1	PUPPY	1144	4	0	n/a	n/a	n/a	n/a	n/a
3774.58	n/a	RECOG_RESP	1887290	n/a	LTP274	ltpFR	19	3	1	PUPPY	1144	n/a	0	n/a	n/a	n/a	n/a	n/a
3774.844	n/a	RECOG_CONF	1887422	n/a	LTP274	ltpFR	19	3	1	PUPPY	1144	4	0	n/a	n/a	n/a	n/a	n/a
3776.48	n/a	RECOG_TARGET	1888240	n/a	LTP274	ltpFR	19	3	1	FINGERNAIL	568	1	0	n/a	n/a	n/a	n/a	n/a
3777.454	n/a	RECOG_RESP	1888727	n/a	LTP274	ltpFR	19	3	1	FINGERNAIL	568	n/a	0	n/a	n/a	n/a	n/a	n/a
3777.704	n/a	RECOG_CONF	1888852	n/a	LTP274	ltpFR	19	3	1	FINGERNAIL	568	1	0	n/a	n/a	n/a	n/a	n/a
3779.558	n/a	RECOG_TARGET	1889779	n/a	LTP274	ltpFR	19	3	0	KETTLE	772	3	1	n/a	n/a	n/a	n/a	n/a
3780.45	n/a	RECOG_RESP	1890225	n/a	LTP274	ltpFR	19	3	0	KETTLE	772	n/a	1	n/a	n/a	n/a	n/a	n/a
3780.724	n/a	RECOG_CONF	1890362	n/a	LTP274	ltpFR	19	3	0	KETTLE	772	3	1	n/a	n/a	n/a	n/a	n/a
3782.554	n/a	RECOG_LURE	1891277	n/a	LTP274	ltpFR	19	3	n/a	TOOTHPASTE	1483	1	n/a	n/a	n/a	n/a	n/a	n/a
3783.624	n/a	RECOG_RESP	1891812	n/a	LTP274	ltpFR	19	3	n/a	TOOTHPASTE	1483	n/a	n/a	n/a	n/a	n/a	n/a	n/a
3783.904	n/a	RECOG_CONF	1891952	n/a	LTP274	ltpFR	19	3	n/a	TOOTHPASTE	1483	1	n/a	n/a	n/a	n/a	n/a	n/a
3785.716	n/a	RECOG_TARGET	1892858	n/a	LTP274	ltpFR	19	3	1	CUB	419	2	0	n/a	n/a	n/a	n/a	n/a
3787.104	n/a	RECOG_RESP	1893552	n/a	LTP274	ltpFR	19	3	1	CUB	419	n/a	0	n/a	n/a	n/a	n/a	n/a
3787.404	n/a	RECOG_CONF	1893702	n/a	LTP274	ltpFR	19	3	1	CUB	419	2	0	n/a	n/a	n/a	n/a	n/a
3790.832	n/a	REC_START	1895416	n/a	LTP274	ltpFR	19	4	n/a	n/a	n/a	n/a	n/a	n/a	n/a	n/a	n/a	n/a
3790.884	n/a	RECOG_LURE	1895442	n/a	LTP274	ltpFR	19	4	n/a	PIN	1072	1	n/a	n/a	n/a	n/a	n/a	n/a
3791.798	n/a	RECOG_RESP	1895899	n/a	LTP274	ltpFR	19	4	n/a	PIN	1072	n/a	n/a	n/a	n/a	n/a	n/a	n/a
3792.214	n/a	RECOG_CONF	1896107	n/a	LTP274	ltpFR	19	4	n/a	PIN	1072	1	n/a	n/a	n/a	n/a	n/a	n/a
3793.88	n/a	RECOG_TARGET	1896940	n/a	LTP274	ltpFR	19	4	0	MAN	862	1	0	n/a	n/a	n/a	n/a	n/a
3794.478	n/a	RECOG_RESP_VV	1897239	n/a	LTP274	ltpFR	19	4	0	MAN	862	n/a	0	n/a	n/a	n/a	n/a	n/a
3795.024	n/a	RECOG_RESP	1897512	n/a	LTP274	ltpFR	19	4	0	MAN	862	n/a	0	n/a	n/a	n/a	n/a	n/a
3795.314	n/a	RECOG_CONF	1897657	n/a	LTP274	ltpFR	19	4	0	MAN	862	1	0	n/a	n/a	n/a	n/a	n/a
3797.594	n/a	RECOG_LURE	1898797	n/a	LTP274	ltpFR	19	4	n/a	LUNG	850	2	n/a	n/a	n/a	n/a	n/a	n/a
3798.748	n/a	RECOG_RESP	1899374	n/a	LTP274	ltpFR	19	4	n/a	LUNG	850	n/a	n/a	n/a	n/a	n/a	n/a	n/a
3798.964	n/a	RECOG_CONF	1899482	n/a	LTP274	ltpFR	19	4	n/a	LUNG	850	2	n/a	n/a	n/a	n/a	n/a	n/a
3800.738	n/a	RECOG_LURE	1900369	n/a	LTP274	ltpFR	19	4	n/a	ACID	2	3	n/a	n/a	n/a	n/a	n/a	n/a
3801.774	n/a	RECOG_RESP	1900887	n/a	LTP274	ltpFR	19	4	n/a	ACID	2	n/a	n/a	n/a	n/a	n/a	n/a	n/a
3802.064	n/a	RECOG_CONF	1901032	n/a	LTP274	ltpFR	19	4	n/a	ACID	2	3	n/a	n/a	n/a	n/a	n/a	n/a
3803.918	n/a	RECOG_LURE	1901959	n/a	LTP274	ltpFR	19	4	n/a	SEAFOOD	1260	2	n/a	n/a	n/a	n/a	n/a	n/a
3805.208	n/a	RECOG_RESP	1902604	n/a	LTP274	ltpFR	19	4	n/a	SEAFOOD	1260	n/a	n/a	n/a	n/a	n/a	n/a	n/a
3805.454	n/a	RECOG_CONF	1902727	n/a	LTP274	ltpFR	19	4	n/a	SEAFOOD	1260	2	n/a	n/a	n/a	n/a	n/a	n/a
3807.23	n/a	RECOG_LURE	1903615	n/a	LTP274	ltpFR	19	4	n/a	ITEM	746	4	n/a	n/a	n/a	n/a	n/a	n/a
3808.148	n/a	RECOG_RESP	1904074	n/a	LTP274	ltpFR	19	4	n/a	ITEM	746	n/a	n/a	n/a	n/a	n/a	n/a	n/a
3808.384	n/a	RECOG_CONF	1904192	n/a	LTP274	ltpFR	19	4	n/a	ITEM	746	4	n/a	n/a	n/a	n/a	n/a	n/a
3810.374	n/a	RECOG_TARGET	1905187	n/a	LTP274	ltpFR	19	4	0	TECHNICIAN	1443	4	1	n/a	n/a	n/a	n/a	n/a
3811.304	n/a	RECOG_RESP	1905652	n/a	LTP274	ltpFR	19	4	0	TECHNICIAN	1443	n/a	1	n/a	n/a	n/a	n/a	n/a
3811.664	n/a	RECOG_CONF	1905832	n/a	LTP274	ltpFR	19	4	0	TECHNICIAN	1443	4	1	n/a	n/a	n/a	n/a	n/a
3813.372	n/a	RECOG_TARGET	1906686	n/a	LTP274	ltpFR	19	4	0	PONY	1102	3	1	n/a	n/a	n/a	n/a	n/a
3814.044	n/a	RECOG_RESP	1907022	n/a	LTP274	ltpFR	19	4	0	PONY	1102	n/a	1	n/a	n/a	n/a	n/a	n/a
3814.304	n/a	RECOG_CONF	1907152	n/a	LTP274	ltpFR	19	4	0	PONY	1102	3	1	n/a	n/a	n/a	n/a	n/a
3816.182	n/a	RECOG_TARGET	1908091	n/a	LTP274	ltpFR	19	4	-1	PASSENGER	1020	2	-1	n/a	n/a	n/a	n/a	n/a
3817.044	n/a	RECOG_RESP	1908522	n/a	LTP274	ltpFR	19	4	-1	PASSENGER	1020	n/a	-1	n/a	n/a	n/a	n/a	n/a
3817.344	n/a	RECOG_CONF	1908672	n/a	LTP274	ltpFR	19	4	-1	PASSENGER	1020	2	-1	n/a	n/a	n/a	n/a	n/a
3818.992	n/a	RECOG_LURE	1909496	n/a	LTP274	ltpFR	19	4	n/a	PRAIRIE	1118	2	n/a	n/a	n/a	n/a	n/a	n/a
3819.884	n/a	RECOG_RESP	1909942	n/a	LTP274	ltpFR	19	4	n/a	PRAIRIE	1118	n/a	n/a	n/a	n/a	n/a	n/a	n/a
3820.204	n/a	RECOG_CONF	1910102	n/a	LTP274	ltpFR	19	4	n/a	PRAIRIE	1118	2	n/a	n/a	n/a	n/a	n/a	n/a
3821.97	n/a	RECOG_LURE	1910985	n/a	LTP274	ltpFR	19	4	n/a	JEWEL	757	3	n/a	n/a	n/a	n/a	n/a	n/a
3822.82	n/a	RECOG_RESP	1911410	n/a	LTP274	ltpFR	19	4	n/a	JEWEL	757	n/a	n/a	n/a	n/a	n/a	n/a	n/a
3823.124	n/a	RECOG_CONF	1911562	n/a	LTP274	ltpFR	19	4	n/a	JEWEL	757	3	n/a	n/a	n/a	n/a	n/a	n/a
3824.914	n/a	RECOG_LURE	1912457	n/a	LTP274	ltpFR	19	4	n/a	DAM	436	3	n/a	n/a	n/a	n/a	n/a	n/a
3825.824	n/a	RECOG_RESP	1912912	n/a	LTP274	ltpFR	19	4	n/a	DAM	436	n/a	n/a	n/a	n/a	n/a	n/a	n/a
3826.054	n/a	RECOG_CONF	1913027	n/a	LTP274	ltpFR	19	4	n/a	DAM	436	3	n/a	n/a	n/a	n/a	n/a	n/a
3827.926	n/a	RECOG_TARGET	1913963	n/a	LTP274	ltpFR	19	4	-1	FRUIT	610	5	-1	n/a	n/a	n/a	n/a	n/a
3828.644	n/a	RECOG_RESP	1914322	n/a	LTP274	ltpFR	19	4	-1	FRUIT	610	n/a	-1	n/a	n/a	n/a	n/a	n/a
3828.924	n/a	RECOG_CONF	1914462	n/a	LTP274	ltpFR	19	4	-1	FRUIT	610	5	-1	n/a	n/a	n/a	n/a	n/a
3830.704	n/a	RECOG_LURE	1915352	n/a	LTP274	ltpFR	19	4	n/a	ICING	732	3	n/a	n/a	n/a	n/a	n/a	n/a
3831.916	n/a	RECOG_RESP	1915958	n/a	LTP274	ltpFR	19	4	n/a	ICING	732	n/a	n/a	n/a	n/a	n/a	n/a	n/a
3832.436	n/a	RECOG_CONF	1916218	n/a	LTP274	ltpFR	19	4	n/a	ICING	732	3	n/a	n/a	n/a	n/a	n/a	n/a
3834.05	n/a	RECOG_LURE	1917025	n/a	LTP274	ltpFR	19	4	n/a	HAIL	676	2	n/a	n/a	n/a	n/a	n/a	n/a
3835.016	n/a	RECOG_RESP	1917508	n/a	LTP274	ltpFR	19	4	n/a	HAIL	676	n/a	n/a	n/a	n/a	n/a	n/a	n/a
3835.226	n/a	RECOG_CONF	1917613	n/a	LTP274	ltpFR	19	4	n/a	HAIL	676	2	n/a	n/a	n/a	n/a	n/a	n/a
3837.164	n/a	RECOG_LURE	1918582	n/a	LTP274	ltpFR	19	4	n/a	COCOON	339	4	n/a	n/a	n/a	n/a	n/a	n/a
3838.176	n/a	RECOG_RESP	1919088	n/a	LTP274	ltpFR	19	4	n/a	COCOON	339	n/a	n/a	n/a	n/a	n/a	n/a	n/a
3838.426	n/a	RECOG_CONF	1919213	n/a	LTP274	ltpFR	19	4	n/a	COCOON	339	4	n/a	n/a	n/a	n/a	n/a	n/a
3840.356	n/a	RECOG_TARGET	1920178	n/a	LTP274	ltpFR	19	4	1	TACK	1428	1	0	n/a	n/a	n/a	n/a	n/a
3841.266	n/a	RECOG_RESP	1920633	n/a	LTP274	ltpFR	19	4	1	TACK	1428	n/a	0	n/a	n/a	n/a	n/a	n/a
3841.536	n/a	RECOG_CONF	1920768	n/a	LTP274	ltpFR	19	4	1	TACK	1428	1	0	n/a	n/a	n/a	n/a	n/a
3843.318	n/a	RECOG_LURE	1921659	n/a	LTP274	ltpFR	19	4	n/a	TOMATO	1476	2	n/a	n/a	n/a	n/a	n/a	n/a
3844.44	n/a	RECOG_RESP	1922220	n/a	LTP274	ltpFR	19	4	n/a	TOMATO	1476	n/a	n/a	n/a	n/a	n/a	n/a	n/a
3844.726	n/a	RECOG_CONF	1922363	n/a	LTP274	ltpFR	19	4	n/a	TOMATO	1476	2	n/a	n/a	n/a	n/a	n/a	n/a
3846.53	n/a	RECOG_TARGET	1923265	n/a	LTP274	ltpFR	19	4	1	NOMAD	955	2	1	n/a	n/a	n/a	n/a	n/a
3847.63	n/a	RECOG_RESP	1923815	n/a	LTP274	ltpFR	19	4	1	NOMAD	955	n/a	1	n/a	n/a	n/a	n/a	n/a
3847.876	n/a	RECOG_CONF	1923938	n/a	LTP274	ltpFR	19	4	1	NOMAD	955	2	1	n/a	n/a	n/a	n/a	n/a
3849.76	n/a	RECOG_LURE	1924880	n/a	LTP274	ltpFR	19	4	n/a	MARS	873	3	n/a	n/a	n/a	n/a	n/a	n/a
3850.596	n/a	RECOG_RESP	1925298	n/a	LTP274	ltpFR	19	4	n/a	MARS	873	n/a	n/a	n/a	n/a	n/a	n/a	n/a
3850.866	n/a	RECOG_CONF	1925433	n/a	LTP274	ltpFR	19	4	n/a	MARS	873	3	n/a	n/a	n/a	n/a	n/a	n/a
3856.95	n/a	REC_START	1928475	n/a	LTP274	ltpFR	19	5	n/a	n/a	n/a	n/a	n/a	n/a	n/a	n/a	n/a	n/a
3857.002	n/a	RECOG_LURE	1928501	n/a	LTP274	ltpFR	19	5	n/a	BELLY	119	3	n/a	n/a	n/a	n/a	n/a	n/a
3858.054	n/a	RECOG_RESP	1929027	n/a	LTP274	ltpFR	19	5	n/a	BELLY	119	n/a	n/a	n/a	n/a	n/a	n/a	n/a
3858.34	n/a	RECOG_CONF	1929170	n/a	LTP274	ltpFR	19	5	n/a	BELLY	119	3	n/a	n/a	n/a	n/a	n/a	n/a
3860.198	n/a	RECOG_LURE	1930099	n/a	LTP274	ltpFR	19	5	n/a	DOLL	481	3	n/a	n/a	n/a	n/a	n/a	n/a
3860.82	n/a	RECOG_RESP	1930410	n/a	LTP274	ltpFR	19	5	n/a	DOLL	481	n/a	n/a	n/a	n/a	n/a	n/a	n/a
3860.98	n/a	RECOG_CONF	1930490	n/a	LTP274	ltpFR	19	5	n/a	DOLL	481	3	n/a	n/a	n/a	n/a	n/a	n/a
3862.794	n/a	RECOG_TARGET	1931397	n/a	LTP274	ltpFR	19	5	1	CLERK	321	4	1	n/a	n/a	n/a	n/a	n/a
3863.57	n/a	RECOG_RESP	1931785	n/a	LTP274	ltpFR	19	5	1	CLERK	321	n/a	1	n/a	n/a	n/a	n/a	n/a
3863.77	n/a	RECOG_CONF	1931885	n/a	LTP274	ltpFR	19	5	1	CLERK	321	4	1	n/a	n/a	n/a	n/a	n/a
3865.604	n/a	RECOG_TARGET	1932802	n/a	LTP274	ltpFR	19	5	-1	CHAIRPERSON	275	1	-1	n/a	n/a	n/a	n/a	n/a
3866.8	n/a	RECOG_RESP	1933400	n/a	LTP274	ltpFR	19	5	-1	CHAIRPERSON	275	n/a	-1	n/a	n/a	n/a	n/a	n/a
3867.11	n/a	RECOG_CONF	1933555	n/a	LTP274	ltpFR	19	5	-1	CHAIRPERSON	275	1	-1	n/a	n/a	n/a	n/a	n/a
3868.868	n/a	RECOG_LURE	1934434	n/a	LTP274	ltpFR	19	5	n/a	CAFE	216	2	n/a	n/a	n/a	n/a	n/a	n/a
3870.326	n/a	RECOG_RESP	1935163	n/a	LTP274	ltpFR	19	5	n/a	CAFE	216	n/a	n/a	n/a	n/a	n/a	n/a	n/a
3870.64	n/a	RECOG_CONF	1935320	n/a	LTP274	ltpFR	19	5	n/a	CAFE	216	2	n/a	n/a	n/a	n/a	n/a	n/a
3872.33	n/a	RECOG_LURE	1936165	n/a	LTP274	ltpFR	19	5	n/a	FRAME	600	1	n/a	n/a	n/a	n/a	n/a	n/a
3873.04	n/a	RECOG_RESP	1936520	n/a	LTP274	ltpFR	19	5	n/a	FRAME	600	n/a	n/a	n/a	n/a	n/a	n/a	n/a
3873.33	n/a	RECOG_CONF	1936665	n/a	LTP274	ltpFR	19	5	n/a	FRAME	600	1	n/a	n/a	n/a	n/a	n/a	n/a
3874.956	n/a	RECOG_LURE	1937478	n/a	LTP274	ltpFR	19	5	n/a	PLIERS	1089	2	n/a	n/a	n/a	n/a	n/a	n/a
3875.726	n/a	RECOG_RESP	1937863	n/a	LTP274	ltpFR	19	5	n/a	PLIERS	1089	n/a	n/a	n/a	n/a	n/a	n/a	n/a
3875.96	n/a	RECOG_CONF	1937980	n/a	LTP274	ltpFR	19	5	n/a	PLIERS	1089	2	n/a	n/a	n/a	n/a	n/a	n/a
3877.684	n/a	RECOG_LURE	1938842	n/a	LTP274	ltpFR	19	5	n/a	ATTIC	56	3	n/a	n/a	n/a	n/a	n/a	n/a
3878.59	n/a	RECOG_RESP	1939295	n/a	LTP274	ltpFR	19	5	n/a	ATTIC	56	n/a	n/a	n/a	n/a	n/a	n/a	n/a
3878.81	n/a	RECOG_CONF	1939405	n/a	LTP274	ltpFR	19	5	n/a	ATTIC	56	3	n/a	n/a	n/a	n/a	n/a	n/a
3880.594	n/a	RECOG_TARGET	1940297	n/a	LTP274	ltpFR	19	5	1	CATERPILLAR	259	4	1	n/a	n/a	n/a	n/a	n/a
3881.48	n/a	RECOG_RESP	1940740	n/a	LTP274	ltpFR	19	5	1	CATERPILLAR	259	n/a	1	n/a	n/a	n/a	n/a	n/a
3881.78	n/a	RECOG_CONF	1940890	n/a	LTP274	ltpFR	19	5	1	CATERPILLAR	259	4	1	n/a	n/a	n/a	n/a	n/a
3883.522	n/a	RECOG_TARGET	1941761	n/a	LTP274	ltpFR	19	5	0	CANARY	227	4	0	n/a	n/a	n/a	n/a	n/a
3884.38	n/a	RECOG_RESP	1942190	n/a	LTP274	ltpFR	19	5	0	CANARY	227	n/a	0	n/a	n/a	n/a	n/a	n/a
3884.59	n/a	RECOG_CONF	1942295	n/a	LTP274	ltpFR	19	5	0	CANARY	227	4	0	n/a	n/a	n/a	n/a	n/a
3886.4	n/a	RECOG_LURE	1943200	n/a	LTP274	ltpFR	19	5	n/a	CLIPPERS	324	1	n/a	n/a	n/a	n/a	n/a	n/a
3887.266	n/a	RECOG_RESP	1943633	n/a	LTP274	ltpFR	19	5	n/a	CLIPPERS	324	n/a	n/a	n/a	n/a	n/a	n/a	n/a
3887.532	n/a	RECOG_CONF	1943766	n/a	LTP274	ltpFR	19	5	n/a	CLIPPERS	324	1	n/a	n/a	n/a	n/a	n/a	n/a
3889.362	n/a	RECOG_TARGET	1944681	n/a	LTP274	ltpFR	19	5	-1	MAJOR	859	3	-1	n/a	n/a	n/a	n/a	n/a
3890.032	n/a	RECOG_RESP	1945016	n/a	LTP274	ltpFR	19	5	-1	MAJOR	859	n/a	-1	n/a	n/a	n/a	n/a	n/a
3890.362	n/a	RECOG_CONF	1945181	n/a	LTP274	ltpFR	19	5	-1	MAJOR	859	3	-1	n/a	n/a	n/a	n/a	n/a
3892.056	n/a	RECOG_LURE	1946028	n/a	LTP274	ltpFR	19	5	n/a	OINTMENT	974	2	n/a	n/a	n/a	n/a	n/a	n/a
3893.066	n/a	RECOG_RESP	1946533	n/a	LTP274	ltpFR	19	5	n/a	OINTMENT	974	n/a	n/a	n/a	n/a	n/a	n/a	n/a
3893.892	n/a	RECOG_CONF	1946946	n/a	LTP274	ltpFR	19	5	n/a	OINTMENT	974	2	n/a	n/a	n/a	n/a	n/a	n/a
3895.536	n/a	RECOG_LURE	1947768	n/a	LTP274	ltpFR	19	5	n/a	STUMP	1396	2	n/a	n/a	n/a	n/a	n/a	n/a
3896.332	n/a	RECOG_RESP_VV	1948166	n/a	LTP274	ltpFR	19	5	n/a	STUMP	1396	n/a	n/a	n/a	n/a	n/a	n/a	n/a
3897.002	n/a	RECOG_RESP	1948501	n/a	LTP274	ltpFR	19	5	n/a	STUMP	1396	n/a	n/a	n/a	n/a	n/a	n/a	n/a
3897.332	n/a	RECOG_CONF	1948666	n/a	LTP274	ltpFR	19	5	n/a	STUMP	1396	2	n/a	n/a	n/a	n/a	n/a	n/a
3899.048	n/a	RECOG_LURE	1949524	n/a	LTP274	ltpFR	19	5	n/a	CLOSET	326	3	n/a	n/a	n/a	n/a	n/a	n/a
3899.762	n/a	RECOG_RESP	1949881	n/a	LTP274	ltpFR	19	5	n/a	CLOSET	326	n/a	n/a	n/a	n/a	n/a	n/a	n/a
3900.082	n/a	RECOG_CONF	1950041	n/a	LTP274	ltpFR	19	5	n/a	CLOSET	326	3	n/a	n/a	n/a	n/a	n/a	n/a
3902.026	n/a	RECOG_TARGET	1951013	n/a	LTP274	ltpFR	19	5	0	NUN	962	4	1	n/a	n/a	n/a	n/a	n/a
3902.622	n/a	RECOG_RESP	1951311	n/a	LTP274	ltpFR	19	5	0	NUN	962	n/a	1	n/a	n/a	n/a	n/a	n/a
3902.932	n/a	RECOG_CONF	1951466	n/a	LTP274	ltpFR	19	5	0	NUN	962	4	1	n/a	n/a	n/a	n/a	n/a
3904.872	n/a	RECOG_LURE	1952436	n/a	LTP274	ltpFR	19	5	n/a	COFFIN	342	1	n/a	n/a	n/a	n/a	n/a	n/a
3905.622	n/a	RECOG_RESP	1952811	n/a	LTP274	ltpFR	19	5	n/a	COFFIN	342	n/a	n/a	n/a	n/a	n/a	n/a	n/a
3906.582	n/a	RECOG_CONF	1953291	n/a	LTP274	ltpFR	19	5	n/a	COFFIN	342	1	n/a	n/a	n/a	n/a	n/a	n/a
3908.352	n/a	RECOG_TARGET	1954176	n/a	LTP274	ltpFR	19	5	-1	MUFFIN	929	3	-1	n/a	n/a	n/a	n/a	n/a
3909.372	n/a	RECOG_RESP	1954686	n/a	LTP274	ltpFR	19	5	-1	MUFFIN	929	n/a	-1	n/a	n/a	n/a	n/a	n/a
3910.522	n/a	RECOG_CONF	1955261	n/a	LTP274	ltpFR	19	5	-1	MUFFIN	929	3	-1	n/a	n/a	n/a	n/a	n/a
3912.4	n/a	RECOG_TARGET	1956200	n/a	LTP274	ltpFR	19	5	-1	BLUEPRINT	142	5	-1	n/a	n/a	n/a	n/a	n/a
3913.212	n/a	RECOG_RESP	1956606	n/a	LTP274	ltpFR	19	5	-1	BLUEPRINT	142	n/a	-1	n/a	n/a	n/a	n/a	n/a
3913.582	n/a	RECOG_CONF	1956791	n/a	LTP274	ltpFR	19	5	-1	BLUEPRINT	142	5	-1	n/a	n/a	n/a	n/a	n/a
3915.578	n/a	RECOG_LURE	1957789	n/a	LTP274	ltpFR	19	5	n/a	SOFTBALL	1343	3	n/a	n/a	n/a	n/a	n/a	n/a
3916.442	n/a	RECOG_RESP	1958221	n/a	LTP274	ltpFR	19	5	n/a	SOFTBALL	1343	n/a	n/a	n/a	n/a	n/a	n/a	n/a
3916.762	n/a	RECOG_CONF	1958381	n/a	LTP274	ltpFR	19	5	n/a	SOFTBALL	1343	3	n/a	n/a	n/a	n/a	n/a	n/a
3920.136	n/a	REC_START	1960068	n/a	LTP274	ltpFR	19	6	n/a	n/a	n/a	n/a	n/a	n/a	n/a	n/a	n/a	n/a
3920.196	n/a	RECOG_TARGET	1960098	n/a	LTP274	ltpFR	19	6	1	MICROPHONE	890	5	0	n/a	n/a	n/a	n/a	n/a
3921.12	n/a	RECOG_RESP	1960560	n/a	LTP274	ltpFR	19	6	1	MICROPHONE	890	n/a	0	n/a	n/a	n/a	n/a	n/a
3921.436	n/a	RECOG_CONF	1960718	n/a	LTP274	ltpFR	19	6	1	MICROPHONE	890	5	0	n/a	n/a	n/a	n/a	n/a
3923.322	n/a	RECOG_LURE	1961661	n/a	LTP274	ltpFR	19	6	n/a	HOE	711	3	n/a	n/a	n/a	n/a	n/a	n/a
3924.176	n/a	RECOG_RESP_VV	1962088	n/a	LTP274	ltpFR	19	6	n/a	HOE	711	n/a	n/a	n/a	n/a	n/a	n/a	n/a
3924.836	n/a	RECOG_RESP	1962418	n/a	LTP274	ltpFR	19	6	n/a	HOE	711	n/a	n/a	n/a	n/a	n/a	n/a	n/a
3925.046	n/a	RECOG_CONF	1962523	n/a	LTP274	ltpFR	19	6	n/a	HOE	711	3	n/a	n/a	n/a	n/a	n/a	n/a
3926.938	n/a	RECOG_TARGET	1963469	n/a	LTP274	ltpFR	19	6	0	WAVE	1596	4	1	n/a	n/a	n/a	n/a	n/a
3927.786	n/a	RECOG_RESP	1963893	n/a	LTP274	ltpFR	19	6	0	WAVE	1596	n/a	1	n/a	n/a	n/a	n/a	n/a
3928.076	n/a	RECOG_CONF	1964038	n/a	LTP274	ltpFR	19	6	0	WAVE	1596	4	1	n/a	n/a	n/a	n/a	n/a
3929.732	n/a	RECOG_TARGET	1964866	n/a	LTP274	ltpFR	19	6	0	STEWARDESS	1381	4	1	n/a	n/a	n/a	n/a	n/a
3930.542	n/a	RECOG_RESP	1965271	n/a	LTP274	ltpFR	19	6	0	STEWARDESS	1381	n/a	1	n/a	n/a	n/a	n/a	n/a
3930.816	n/a	RECOG_CONF	1965408	n/a	LTP274	ltpFR	19	6	0	STEWARDESS	1381	4	1	n/a	n/a	n/a	n/a	n/a
3932.544	n/a	RECOG_LURE	1966272	n/a	LTP274	ltpFR	19	6	n/a	JEANS	752	1	n/a	n/a	n/a	n/a	n/a	n/a
3933.316	n/a	RECOG_RESP_VV	1966658	n/a	LTP274	ltpFR	19	6	n/a	JEANS	752	n/a	n/a	n/a	n/a	n/a	n/a	n/a
3933.812	n/a	RECOG_RESP	1966906	n/a	LTP274	ltpFR	19	6	n/a	JEANS	752	n/a	n/a	n/a	n/a	n/a	n/a	n/a
3934.186	n/a	RECOG_CONF	1967093	n/a	LTP274	ltpFR	19	6	n/a	JEANS	752	1	n/a	n/a	n/a	n/a	n/a	n/a
3935.956	n/a	RECOG_LURE	1967978	n/a	LTP274	ltpFR	19	6	n/a	FISH	571	3	n/a	n/a	n/a	n/a	n/a	n/a
3937.422	n/a	RECOG_RESP	1968711	n/a	LTP274	ltpFR	19	6	n/a	FISH	571	n/a	n/a	n/a	n/a	n/a	n/a	n/a
3937.696	n/a	RECOG_CONF	1968848	n/a	LTP274	ltpFR	19	6	n/a	FISH	571	3	n/a	n/a	n/a	n/a	n/a	n/a
3939.386	n/a	RECOG_TARGET	1969693	n/a	LTP274	ltpFR	19	6	0	ROBOT	1200	4	1	n/a	n/a	n/a	n/a	n/a
3940.532	n/a	RECOG_RESP	1970266	n/a	LTP274	ltpFR	19	6	0	ROBOT	1200	n/a	1	n/a	n/a	n/a	n/a	n/a
3940.806	n/a	RECOG_CONF	1970403	n/a	LTP274	ltpFR	19	6	0	ROBOT	1200	4	1	n/a	n/a	n/a	n/a	n/a
3942.43	n/a	RECOG_LURE	1971215	n/a	LTP274	ltpFR	19	6	n/a	INMATE	738	4	n/a	n/a	n/a	n/a	n/a	n/a
3944.062	n/a	RECOG_RESP	1972031	n/a	LTP274	ltpFR	19	6	n/a	INMATE	738	n/a	n/a	n/a	n/a	n/a	n/a	n/a
3944.668	n/a	RECOG_CONF	1972334	n/a	LTP274	ltpFR	19	6	n/a	INMATE	738	4	n/a	n/a	n/a	n/a	n/a	n/a
3946.28	n/a	RECOG_TARGET	1973140	n/a	LTP274	ltpFR	19	6	-1	PIKE	1067	4	-1	n/a	n/a	n/a	n/a	n/a
3947.328	n/a	RECOG_RESP	1973664	n/a	LTP274	ltpFR	19	6	-1	PIKE	1067	n/a	-1	n/a	n/a	n/a	n/a	n/a
3947.518	n/a	RECOG_CONF	1973759	n/a	LTP274	ltpFR	19	6	-1	PIKE	1067	4	-1	n/a	n/a	n/a	n/a	n/a
3949.424	n/a	RECOG_LURE	1974712	n/a	LTP274	ltpFR	19	6	n/a	CABOOSE	214	5	n/a	n/a	n/a	n/a	n/a	n/a
3950.348	n/a	RECOG_RESP	1975174	n/a	LTP274	ltpFR	19	6	n/a	CABOOSE	214	n/a	n/a	n/a	n/a	n/a	n/a	n/a
3950.558	n/a	RECOG_CONF	1975279	n/a	LTP274	ltpFR	19	6	n/a	CABOOSE	214	5	n/a	n/a	n/a	n/a	n/a	n/a
3952.386	n/a	RECOG_TARGET	1976193	n/a	LTP274	ltpFR	19	6	0	SLEEVE	1324	2	0	n/a	n/a	n/a	n/a	n/a
3953.628	n/a	RECOG_RESP	1976814	n/a	LTP274	ltpFR	19	6	0	SLEEVE	1324	n/a	0	n/a	n/a	n/a	n/a	n/a
3953.938	n/a	RECOG_CONF	1976969	n/a	LTP274	ltpFR	19	6	0	SLEEVE	1324	2	0	n/a	n/a	n/a	n/a	n/a
3955.698	n/a	RECOG_TARGET	1977849	n/a	LTP274	ltpFR	19	6	0	GROCERIES	663	4	0	n/a	n/a	n/a	n/a	n/a
3956.528	n/a	RECOG_RESP	1978264	n/a	LTP274	ltpFR	19	6	0	GROCERIES	663	n/a	0	n/a	n/a	n/a	n/a	n/a
3956.858	n/a	RECOG_CONF	1978429	n/a	LTP274	ltpFR	19	6	0	GROCERIES	663	4	0	n/a	n/a	n/a	n/a	n/a
3958.576	n/a	RECOG_TARGET	1979288	n/a	LTP274	ltpFR	19	6	1	SPATULA	1348	1	0	n/a	n/a	n/a	n/a	n/a
3959.552	n/a	RECOG_RESP	1979776	n/a	LTP274	ltpFR	19	6	1	SPATULA	1348	n/a	0	n/a	n/a	n/a	n/a	n/a
3959.848	n/a	RECOG_CONF	1979924	n/a	LTP274	ltpFR	19	6	1	SPATULA	1348	1	0	n/a	n/a	n/a	n/a	n/a
3961.554	n/a	RECOG_LURE	1980777	n/a	LTP274	ltpFR	19	6	n/a	STAKE	1368	3	n/a	n/a	n/a	n/a	n/a	n/a
3962.368	n/a	RECOG_RESP	1981184	n/a	LTP274	ltpFR	19	6	n/a	STAKE	1368	n/a	n/a	n/a	n/a	n/a	n/a	n/a
3962.818	n/a	RECOG_CONF	1981409	n/a	LTP274	ltpFR	19	6	n/a	STAKE	1368	3	n/a	n/a	n/a	n/a	n/a	n/a
3964.466	n/a	RECOG_LURE	1982233	n/a	LTP274	ltpFR	19	6	n/a	TAXI	1438	4	n/a	n/a	n/a	n/a	n/a	n/a
3965.864	n/a	RECOG_RESP	1982932	n/a	LTP274	ltpFR	19	6	n/a	TAXI	1438	n/a	n/a	n/a	n/a	n/a	n/a	n/a
3966.348	n/a	RECOG_CONF	1983174	n/a	LTP274	ltpFR	19	6	n/a	TAXI	1438	4	n/a	n/a	n/a	n/a	n/a	n/a
3968.08	n/a	RECOG_TARGET	1984040	n/a	LTP274	ltpFR	19	6	1	HAMMOCK	681	2	0	n/a	n/a	n/a	n/a	n/a
3969.338	n/a	RECOG_RESP	1984669	n/a	LTP274	ltpFR	19	6	1	HAMMOCK	681	n/a	0	n/a	n/a	n/a	n/a	n/a
3969.648	n/a	RECOG_CONF	1984824	n/a	LTP274	ltpFR	19	6	1	HAMMOCK	681	2	0	n/a	n/a	n/a	n/a	n/a
3971.224	n/a	RECOG_LURE	1985612	n/a	LTP274	ltpFR	19	6	n/a	MASK	876	1	n/a	n/a	n/a	n/a	n/a	n/a
3971.918	n/a	RECOG_RESP	1985959	n/a	LTP274	ltpFR	19	6	n/a	MASK	876	n/a	n/a	n/a	n/a	n/a	n/a	n/a
3972.198	n/a	RECOG_CONF	1986099	n/a	LTP274	ltpFR	19	6	n/a	MASK	876	1	n/a	n/a	n/a	n/a	n/a	n/a
3973.968	n/a	RECOG_LURE	1986984	n/a	LTP274	ltpFR	19	6	n/a	ANGEL	22	4	n/a	n/a	n/a	n/a	n/a	n/a
3974.884	n/a	RECOG_RESP	1987442	n/a	LTP274	ltpFR	19	6	n/a	ANGEL	22	n/a	n/a	n/a	n/a	n/a	n/a	n/a
3975.148	n/a	RECOG_CONF	1987574	n/a	LTP274	ltpFR	19	6	n/a	ANGEL	22	4	n/a	n/a	n/a	n/a	n/a	n/a
3977.064	n/a	RECOG_LURE	1988532	n/a	LTP274	ltpFR	19	6	n/a	PLUMBER	1091	2	n/a	n/a	n/a	n/a	n/a	n/a
3978.024	n/a	RECOG_RESP	1989012	n/a	LTP274	ltpFR	19	6	n/a	PLUMBER	1091	n/a	n/a	n/a	n/a	n/a	n/a	n/a
3978.258	n/a	RECOG_CONF	1989129	n/a	LTP274	ltpFR	19	6	n/a	PLUMBER	1091	2	n/a	n/a	n/a	n/a	n/a	n/a
3980.16	n/a	RECOG_TARGET	1990080	n/a	LTP274	ltpFR	19	6	1	DRUM	502	3	0	n/a	n/a	n/a	n/a	n/a
3982.26	n/a	RECOG_RESP	1991130	n/a	LTP274	ltpFR	19	6	1	DRUM	502	n/a	0	n/a	n/a	n/a	n/a	n/a
3982.61	n/a	RECOG_CONF	1991305	n/a	LTP274	ltpFR	19	6	1	DRUM	502	3	0	n/a	n/a	n/a	n/a	n/a
3994.298	n/a	REC_START	1997149	n/a	LTP274	ltpFR	19	7	n/a	n/a	n/a	n/a	n/a	n/a	n/a	n/a	n/a	n/a
3994.346	n/a	RECOG_LURE	1997173	n/a	LTP274	ltpFR	19	7	n/a	BRUSH	182	1	n/a	n/a	n/a	n/a	n/a	n/a
3997.518	n/a	RECOG_RESP	1998759	n/a	LTP274	ltpFR	19	7	n/a	BRUSH	182	n/a	n/a	n/a	n/a	n/a	n/a	n/a
3997.898	n/a	RECOG_CONF	1998949	n/a	LTP274	ltpFR	19	7	n/a	BRUSH	182	1	n/a	n/a	n/a	n/a	n/a	n/a
3999.818	n/a	RECOG_LURE	1999909	n/a	LTP274	ltpFR	19	7	n/a	MOWER	928	3	n/a	n/a	n/a	n/a	n/a	n/a
4001.518	n/a	RECOG_RESP	2000759	n/a	LTP274	ltpFR	19	7	n/a	MOWER	928	n/a	n/a	n/a	n/a	n/a	n/a	n/a
4001.938	n/a	RECOG_CONF	2000969	n/a	LTP274	ltpFR	19	7	n/a	MOWER	928	3	n/a	n/a	n/a	n/a	n/a	n/a
4003.682	n/a	RECOG_LURE	2001841	n/a	LTP274	ltpFR	19	7	n/a	COFFEE	341	2	n/a	n/a	n/a	n/a	n/a	n/a
4005.294	n/a	RECOG_RESP	2002647	n/a	LTP274	ltpFR	19	7	n/a	COFFEE	341	n/a	n/a	n/a	n/a	n/a	n/a	n/a
4005.628	n/a	RECOG_CONF	2002814	n/a	LTP274	ltpFR	19	7	n/a	COFFEE	341	2	n/a	n/a	n/a	n/a	n/a	n/a
4007.496	n/a	RECOG_TARGET	2003748	n/a	LTP274	ltpFR	19	7	1	PRINCESS	1125	4	0	n/a	n/a	n/a	n/a	n/a
4008.278	n/a	RECOG_RESP	2004139	n/a	LTP274	ltpFR	19	7	1	PRINCESS	1125	n/a	0	n/a	n/a	n/a	n/a	n/a
4008.518	n/a	RECOG_CONF	2004259	n/a	LTP274	ltpFR	19	7	1	PRINCESS	1125	4	0	n/a	n/a	n/a	n/a	n/a
4010.324	n/a	RECOG_TARGET	2005162	n/a	LTP274	ltpFR	19	7	1	SPIDER	1351	3	1	n/a	n/a	n/a	n/a	n/a
4011.094	n/a	RECOG_RESP	2005547	n/a	LTP274	ltpFR	19	7	1	SPIDER	1351	n/a	1	n/a	n/a	n/a	n/a	n/a
4011.388	n/a	RECOG_CONF	2005694	n/a	LTP274	ltpFR	19	7	1	SPIDER	1351	3	1	n/a	n/a	n/a	n/a	n/a
4013.0	n/a	RECOG_LURE	2006500	n/a	LTP274	ltpFR	19	7	n/a	LITTER	832	2	n/a	n/a	n/a	n/a	n/a	n/a
4014.038	n/a	RECOG_RESP	2007019	n/a	LTP274	ltpFR	19	7	n/a	LITTER	832	n/a	n/a	n/a	n/a	n/a	n/a	n/a
4014.348	n/a	RECOG_CONF	2007174	n/a	LTP274	ltpFR	19	7	n/a	LITTER	832	2	n/a	n/a	n/a	n/a	n/a	n/a
4015.944	n/a	RECOG_LURE	2007972	n/a	LTP274	ltpFR	19	7	n/a	CAR	241	1	n/a	n/a	n/a	n/a	n/a	n/a
4017.118	n/a	RECOG_RESP	2008559	n/a	LTP274	ltpFR	19	7	n/a	CAR	241	n/a	n/a	n/a	n/a	n/a	n/a	n/a
4017.358	n/a	RECOG_CONF	2008679	n/a	LTP274	ltpFR	19	7	n/a	CAR	241	1	n/a	n/a	n/a	n/a	n/a	n/a
4019.208	n/a	RECOG_LURE	2009604	n/a	LTP274	ltpFR	19	7	n/a	SERPENT	1270	1	n/a	n/a	n/a	n/a	n/a	n/a
4019.91	n/a	RECOG_RESP	2009955	n/a	LTP274	ltpFR	19	7	n/a	SERPENT	1270	n/a	n/a	n/a	n/a	n/a	n/a	n/a
4020.18	n/a	RECOG_CONF	2010090	n/a	LTP274	ltpFR	19	7	n/a	SERPENT	1270	1	n/a	n/a	n/a	n/a	n/a	n/a
4021.984	n/a	RECOG_LURE	2010992	n/a	LTP274	ltpFR	19	7	n/a	ASIA	46	3	n/a	n/a	n/a	n/a	n/a	n/a
4022.884	n/a	RECOG_RESP	2011442	n/a	LTP274	ltpFR	19	7	n/a	ASIA	46	n/a	n/a	n/a	n/a	n/a	n/a	n/a
4023.16	n/a	RECOG_CONF	2011580	n/a	LTP274	ltpFR	19	7	n/a	ASIA	46	3	n/a	n/a	n/a	n/a	n/a	n/a
4024.946	n/a	RECOG_LURE	2012473	n/a	LTP274	ltpFR	19	7	n/a	TWINE	1529	4	n/a	n/a	n/a	n/a	n/a	n/a
4025.714	n/a	RECOG_RESP	2012857	n/a	LTP274	ltpFR	19	7	n/a	TWINE	1529	n/a	n/a	n/a	n/a	n/a	n/a	n/a
4025.95	n/a	RECOG_CONF	2012975	n/a	LTP274	ltpFR	19	7	n/a	TWINE	1529	4	n/a	n/a	n/a	n/a	n/a	n/a
4027.674	n/a	RECOG_LURE	2013837	n/a	LTP274	ltpFR	19	7	n/a	CROSS	413	1	n/a	n/a	n/a	n/a	n/a	n/a
4028.374	n/a	RECOG_RESP	2014187	n/a	LTP274	ltpFR	19	7	n/a	CROSS	413	n/a	n/a	n/a	n/a	n/a	n/a	n/a
4028.65	n/a	RECOG_CONF	2014325	n/a	LTP274	ltpFR	19	7	n/a	CROSS	413	1	n/a	n/a	n/a	n/a	n/a	n/a
