onset	duration	trial_type	sample	stim_file	subject	experiment	session	trial	task	item_name	item_num	recog_resp	recog_conf	resp	color_r	color_g	color_b	case	font
225.69	n/a	SESS_START	112845	n/a	LTP242	ltpFR	18	n/a	n/a	n/a	n/a	1	4	n/a	n/a	n/a	n/a	n/a	n/a
281.082	n/a	WORD	140541	wordpools/wasnorm_wordpool_less_exclusions.txt	LTP242	ltpFR	18	1	0	STREET	1393	0	3	1	0.422607421875	0.5869140625	0	lower	zerothre.ttf
284.946	n/a	WORD	142473	wordpools/wasnorm_wordpool_less_exclusions.txt	LTP242	ltpFR	18	1	0	DESK	452	1	n/a	1	0.422607421875	0.5869140625	0	lower	zerothre.ttf
288.94	n/a	WORD	144470	wordpools/wasnorm_wordpool_less_exclusions.txt	LTP242	ltpFR	18	1	0	CLERK	321	n/a	n/a	1	0.422607421875	0.5869140625	0	lower	zerothre.ttf
292.892	n/a	WORD	146446	wordpools/wasnorm_wordpool_less_exclusions.txt	LTP242	ltpFR	18	1	1	GYMNAST	675	n/a	n/a	1	0.57763671875	0.412841796875	1	upper	amplitud.ttf
296.942	n/a	WORD	148471	wordpools/wasnorm_wordpool_less_exclusions.txt	LTP242	ltpFR	18	1	1	COMMANDER	354	n/a	n/a	1	0.57763671875	0.412841796875	1	upper	amplitud.ttf
300.97	n/a	WORD	150485	wordpools/wasnorm_wordpool_less_exclusions.txt	LTP242	ltpFR	18	1	1	SHORTS	1293	n/a	n/a	0	0.57763671875	0.412841796875	1	upper	amplitud.ttf
304.818	n/a	WORD	152409	wordpools/wasnorm_wordpool_less_exclusions.txt	LTP242	ltpFR	18	1	1	VENT	1556	n/a	n/a	0	0.57763671875	0.412841796875	1	upper	amplitud.ttf
308.87	n/a	WORD	154435	wordpools/wasnorm_wordpool_less_exclusions.txt	LTP242	ltpFR	18	1	1	VOLLEYBALL	1576	n/a	n/a	0	0.57763671875	0.412841796875	1	upper	amplitud.ttf
312.718	n/a	WORD	156359	wordpools/wasnorm_wordpool_less_exclusions.txt	LTP242	ltpFR	18	1	0	UNIFORM	1539	n/a	n/a	0	0.422607421875	0.5869140625	0	lower	zerothre.ttf
316.834	n/a	WORD	158417	wordpools/wasnorm_wordpool_less_exclusions.txt	LTP242	ltpFR	18	1	0	ASSISTANT	48	n/a	n/a	3	0.422607421875	0.5869140625	0	lower	zerothre.ttf
318.54	n/a	KEY_MSG	159270	n/a	LTP242	ltpFR	18	1	n/a	n/a	n/a	n/a	n/a	n/a	n/a	n/a	n/a	n/a	n/a
321.084	n/a	WORD	160542	wordpools/wasnorm_wordpool_less_exclusions.txt	LTP242	ltpFR	18	1	0	ESSAY	540	n/a	n/a	0	0.422607421875	0.5869140625	0	lower	zerothre.ttf
325.3	n/a	WORD	162650	wordpools/wasnorm_wordpool_less_exclusions.txt	LTP242	ltpFR	18	1	1	DEODORANT	448	n/a	n/a	0	0.57763671875	0.412841796875	1	upper	amplitud.ttf
329.5	n/a	WORD	164750	wordpools/wasnorm_wordpool_less_exclusions.txt	LTP242	ltpFR	18	1	1	INCENSE	735	n/a	n/a	0	0.57763671875	0.412841796875	1	upper	amplitud.ttf
333.414	n/a	WORD	166707	wordpools/wasnorm_wordpool_less_exclusions.txt	LTP242	ltpFR	18	1	1	CINNAMON	310	n/a	n/a	n/a	0.57763671875	0.412841796875	1	upper	amplitud.ttf
336.458	n/a	SLOW_MSG	168229	n/a	LTP242	ltpFR	18	1	n/a	n/a	n/a	n/a	n/a	n/a	n/a	n/a	n/a	n/a	n/a
338.968	n/a	WORD	169484	wordpools/wasnorm_wordpool_less_exclusions.txt	LTP242	ltpFR	18	1	0	BAKER	71	n/a	n/a	1	0.422607421875	0.5869140625	0	lower	zerothre.ttf
342.918	n/a	WORD	171459	wordpools/wasnorm_wordpool_less_exclusions.txt	LTP242	ltpFR	18	1	0	BALLOON	75	n/a	n/a	0	0.422607421875	0.5869140625	0	lower	zerothre.ttf
348.574	n/a	REC_START	174287	n/a	LTP242	ltpFR	18	1	n/a	n/a	n/a	n/a	n/a	n/a	n/a	n/a	n/a	n/a	n/a
348.888	n/a	REC_WORD	174444	wordpools/wasnorm_wordpool_less_exclusions.txt	LTP242	ltpFR	18	1	0	BALLOON	75	n/a	n/a	0	n/a	n/a	n/a	n/a	n/a
349.27	n/a	REC_WORD	174635	wordpools/wasnorm_wordpool_less_exclusions.txt	LTP242	ltpFR	18	1	0	BAKER	71	n/a	n/a	1	n/a	n/a	n/a	n/a	n/a
349.59	n/a	REC_WORD	174795	wordpools/wasnorm_wordpool_less_exclusions.txt	LTP242	ltpFR	18	1	1	INCENSE	735	n/a	n/a	0	n/a	n/a	n/a	n/a	n/a
350.344	n/a	REC_WORD	175172	wordpools/wasnorm_wordpool_less_exclusions.txt	LTP242	ltpFR	18	1	1	CINNAMON	310	n/a	n/a	n/a	n/a	n/a	n/a	n/a	n/a
351.332	n/a	REC_WORD	175666	wordpools/wasnorm_wordpool_less_exclusions.txt	LTP242	ltpFR	18	1	0	ASSISTANT	48	n/a	n/a	3	n/a	n/a	n/a	n/a	n/a
352.2	n/a	REC_WORD	176100	wordpools/wasnorm_wordpool_less_exclusions.txt	LTP242	ltpFR	18	1	1	COMMANDER	354	n/a	n/a	1	n/a	n/a	n/a	n/a	n/a
354.52	n/a	REC_WORD	177260	wordpools/wasnorm_wordpool_less_exclusions.txt	LTP242	ltpFR	18	1	1	GYMNAST	675	n/a	n/a	1	n/a	n/a	n/a	n/a	n/a
355.428	n/a	REC_WORD	177714	wordpools/wasnorm_wordpool_less_exclusions.txt	LTP242	ltpFR	18	1	0	STREET	1393	n/a	n/a	1	n/a	n/a	n/a	n/a	n/a
356.288	n/a	REC_WORD	178144	wordpools/wasnorm_wordpool_less_exclusions.txt	LTP242	ltpFR	18	1	0	CLERK	321	n/a	n/a	1	n/a	n/a	n/a	n/a	n/a
357.174	n/a	REC_WORD	178587	wordpools/wasnorm_wordpool_less_exclusions.txt	LTP242	ltpFR	18	1	0	DESK	452	n/a	n/a	1	n/a	n/a	n/a	n/a	n/a
426.616	n/a	WORD	213308	wordpools/wasnorm_wordpool_less_exclusions.txt	LTP242	ltpFR	18	2	1	ARENA	37	n/a	n/a	1	0.57763671875	0.412841796875	1	upper	amplitud.ttf
430.72	n/a	WORD	215360	wordpools/wasnorm_wordpool_less_exclusions.txt	LTP242	ltpFR	18	2	1	PATROL	1027	n/a	n/a	1	0.57763671875	0.412841796875	1	upper	amplitud.ttf
434.918	n/a	WORD	217459	wordpools/wasnorm_wordpool_less_exclusions.txt	LTP242	ltpFR	18	2	1	COOKIE	374	n/a	n/a	0	0.57763671875	0.412841796875	1	upper	amplitud.ttf
439.018	n/a	WORD	219509	wordpools/wasnorm_wordpool_less_exclusions.txt	LTP242	ltpFR	18	2	1	CUBE	420	n/a	n/a	0	0.57763671875	0.412841796875	1	upper	amplitud.ttf
443.13	n/a	WORD	221565	wordpools/wasnorm_wordpool_less_exclusions.txt	LTP242	ltpFR	18	2	0	HIGHWAY	707	n/a	n/a	1	0.422607421875	0.5869140625	0	lower	zerothre.ttf
447.148	n/a	WORD	223574	wordpools/wasnorm_wordpool_less_exclusions.txt	LTP242	ltpFR	18	2	0	CONE	363	n/a	n/a	0	0.422607421875	0.5869140625	0	lower	zerothre.ttf
451.048	n/a	WORD	225524	wordpools/wasnorm_wordpool_less_exclusions.txt	LTP242	ltpFR	18	2	0	SOCKET	1340	n/a	n/a	0	0.422607421875	0.5869140625	0	lower	zerothre.ttf
455.064	n/a	WORD	227532	wordpools/wasnorm_wordpool_less_exclusions.txt	LTP242	ltpFR	18	2	0	WORKER	1621	n/a	n/a	1	0.422607421875	0.5869140625	0	lower	zerothre.ttf
459.228	n/a	WORD	229614	wordpools/wasnorm_wordpool_less_exclusions.txt	LTP242	ltpFR	18	2	0	SLUG	1329	n/a	n/a	0	0.422607421875	0.5869140625	0	lower	zerothre.ttf
463.244	n/a	WORD	231622	wordpools/wasnorm_wordpool_less_exclusions.txt	LTP242	ltpFR	18	2	1	INSECT	740	n/a	n/a	1	0.57763671875	0.412841796875	1	upper	amplitud.ttf
467.154	n/a	WORD	233577	wordpools/wasnorm_wordpool_less_exclusions.txt	LTP242	ltpFR	18	2	1	SIDEWALK	1303	n/a	n/a	0	0.57763671875	0.412841796875	1	upper	amplitud.ttf
471.354	n/a	WORD	235677	wordpools/wasnorm_wordpool_less_exclusions.txt	LTP242	ltpFR	18	2	1	BUILDER	190	n/a	n/a	1	0.57763671875	0.412841796875	1	upper	amplitud.ttf
475.202	n/a	WORD	237601	wordpools/wasnorm_wordpool_less_exclusions.txt	LTP242	ltpFR	18	2	1	STAMP	1370	n/a	n/a	0	0.57763671875	0.412841796875	1	upper	amplitud.ttf
479.222	n/a	WORD	239611	wordpools/wasnorm_wordpool_less_exclusions.txt	LTP242	ltpFR	18	2	0	MAILMAN	858	n/a	n/a	1	0.422607421875	0.5869140625	0	lower	zerothre.ttf
483.434	n/a	WORD	241717	wordpools/wasnorm_wordpool_less_exclusions.txt	LTP242	ltpFR	18	2	0	BABY	64	n/a	n/a	0	0.422607421875	0.5869140625	0	lower	zerothre.ttf
487.654	n/a	WORD	243827	wordpools/wasnorm_wordpool_less_exclusions.txt	LTP242	ltpFR	18	2	0	DOLL	481	n/a	n/a	0	0.422607421875	0.5869140625	0	lower	zerothre.ttf
493.326	n/a	REC_START	246663	n/a	LTP242	ltpFR	18	2	n/a	n/a	n/a	n/a	n/a	n/a	n/a	n/a	n/a	n/a	n/a
493.636	n/a	REC_WORD	246818	wordpools/wasnorm_wordpool_less_exclusions.txt	LTP242	ltpFR	18	2	0	MAILMAN	858	n/a	n/a	1	n/a	n/a	n/a	n/a	n/a
494.274	n/a	REC_WORD	247137	wordpools/wasnorm_wordpool_less_exclusions.txt	LTP242	ltpFR	18	2	n/a	BOY	161	n/a	n/a	n/a	n/a	n/a	n/a	n/a	n/a
494.678	n/a	REC_WORD	247339	wordpools/wasnorm_wordpool_less_exclusions.txt	LTP242	ltpFR	18	2	0	DOLL	481	n/a	n/a	0	n/a	n/a	n/a	n/a	n/a
498.3	n/a	REC_WORD	249150	wordpools/wasnorm_wordpool_less_exclusions.txt	LTP242	ltpFR	18	2	0	MAILMAN	858	n/a	n/a	1	n/a	n/a	n/a	n/a	n/a
499.3	n/a	REC_WORD_VV	249650	wordpools/wasnorm_wordpool_less_exclusions.txt	LTP242	ltpFR	18	2	n/a	<>	-1	n/a	n/a	n/a	n/a	n/a	n/a	n/a	n/a
499.886	n/a	REC_WORD	249943	wordpools/wasnorm_wordpool_less_exclusions.txt	LTP242	ltpFR	18	2	n/a	BOY	161	n/a	n/a	n/a	n/a	n/a	n/a	n/a	n/a
500.43	n/a	REC_WORD	250215	wordpools/wasnorm_wordpool_less_exclusions.txt	LTP242	ltpFR	18	2	n/a	DOG	480	n/a	n/a	n/a	n/a	n/a	n/a	n/a	n/a
502.33	n/a	REC_WORD	251165	wordpools/wasnorm_wordpool_less_exclusions.txt	LTP242	ltpFR	18	2	0	HIGHWAY	707	n/a	n/a	1	n/a	n/a	n/a	n/a	n/a
503.234	n/a	REC_WORD	251617	wordpools/wasnorm_wordpool_less_exclusions.txt	LTP242	ltpFR	18	2	0	SLUG	1329	n/a	n/a	0	n/a	n/a	n/a	n/a	n/a
504.212	n/a	REC_WORD	252106	wordpools/wasnorm_wordpool_less_exclusions.txt	LTP242	ltpFR	18	2	0	WORKER	1621	n/a	n/a	1	n/a	n/a	n/a	n/a	n/a
506.386	n/a	REC_WORD	253193	wordpools/wasnorm_wordpool_less_exclusions.txt	LTP242	ltpFR	18	2	1	ARENA	37	n/a	n/a	1	n/a	n/a	n/a	n/a	n/a
507.48	n/a	REC_WORD	253740	wordpools/wasnorm_wordpool_less_exclusions.txt	LTP242	ltpFR	18	2	1	PATROL	1027	n/a	n/a	1	n/a	n/a	n/a	n/a	n/a
510.678	n/a	REC_WORD	255339	wordpools/wasnorm_wordpool_less_exclusions.txt	LTP242	ltpFR	18	2	1	CUBE	420	n/a	n/a	0	n/a	n/a	n/a	n/a	n/a
513.642	n/a	REC_WORD	256821	wordpools/wasnorm_wordpool_less_exclusions.txt	LTP242	ltpFR	18	2	1	COOKIE	374	n/a	n/a	0	n/a	n/a	n/a	n/a	n/a
571.29	n/a	WORD	285645	wordpools/wasnorm_wordpool_less_exclusions.txt	LTP242	ltpFR	18	3	0	MOSQUITO	917	n/a	n/a	0	0.422607421875	0.5869140625	0	lower	zerothre.ttf
575.49	n/a	WORD	287745	wordpools/wasnorm_wordpool_less_exclusions.txt	LTP242	ltpFR	18	3	0	DONKEY	484	n/a	n/a	1	0.422607421875	0.5869140625	0	lower	zerothre.ttf
579.538	n/a	WORD	289769	wordpools/wasnorm_wordpool_less_exclusions.txt	LTP242	ltpFR	18	3	0	PEANUT	1032	n/a	n/a	0	0.422607421875	0.5869140625	0	lower	zerothre.ttf
583.604	n/a	WORD	291802	wordpools/wasnorm_wordpool_less_exclusions.txt	LTP242	ltpFR	18	3	0	SUBMARINE	1398	n/a	n/a	1	0.422607421875	0.5869140625	0	lower	zerothre.ttf
587.532	n/a	WORD	293766	wordpools/wasnorm_wordpool_less_exclusions.txt	LTP242	ltpFR	18	3	0	OAR	966	n/a	n/a	0	0.422607421875	0.5869140625	0	lower	zerothre.ttf
591.684	n/a	WORD	295842	wordpools/wasnorm_wordpool_less_exclusions.txt	LTP242	ltpFR	18	3	0	SWATTER	1418	n/a	n/a	0	0.422607421875	0.5869140625	0	lower	zerothre.ttf
595.646	n/a	WORD	297823	wordpools/wasnorm_wordpool_less_exclusions.txt	LTP242	ltpFR	18	3	0	LEG	809	n/a	n/a	0	0.422607421875	0.5869140625	0	lower	zerothre.ttf
599.816	n/a	WORD	299908	wordpools/wasnorm_wordpool_less_exclusions.txt	LTP242	ltpFR	18	3	0	TUSK	1523	n/a	n/a	0	0.422607421875	0.5869140625	0	lower	zerothre.ttf
603.78	n/a	WORD	301890	wordpools/wasnorm_wordpool_less_exclusions.txt	LTP242	ltpFR	18	3	0	TWIN	1528	n/a	n/a	1	0.422607421875	0.5869140625	0	lower	zerothre.ttf
607.864	n/a	WORD	303932	wordpools/wasnorm_wordpool_less_exclusions.txt	LTP242	ltpFR	18	3	0	ATTORNEY	58	n/a	n/a	1	0.422607421875	0.5869140625	0	lower	zerothre.ttf
611.758	n/a	WORD	305879	wordpools/wasnorm_wordpool_less_exclusions.txt	LTP242	ltpFR	18	3	0	ROOST	1208	n/a	n/a	0	0.422607421875	0.5869140625	0	lower	zerothre.ttf
615.676	n/a	WORD	307838	wordpools/wasnorm_wordpool_less_exclusions.txt	LTP242	ltpFR	18	3	0	ROOSTER	1209	n/a	n/a	1	0.422607421875	0.5869140625	0	lower	zerothre.ttf
619.658	n/a	WORD	309829	wordpools/wasnorm_wordpool_less_exclusions.txt	LTP242	ltpFR	18	3	0	CABINET	212	n/a	n/a	1	0.422607421875	0.5869140625	0	lower	zerothre.ttf
623.59	n/a	WORD	311795	wordpools/wasnorm_wordpool_less_exclusions.txt	LTP242	ltpFR	18	3	0	WALL	1582	n/a	n/a	0	0.422607421875	0.5869140625	0	lower	zerothre.ttf
627.636	n/a	WORD	313818	wordpools/wasnorm_wordpool_less_exclusions.txt	LTP242	ltpFR	18	3	0	KING	777	n/a	n/a	0	0.422607421875	0.5869140625	0	lower	zerothre.ttf
631.754	n/a	WORD	315877	wordpools/wasnorm_wordpool_less_exclusions.txt	LTP242	ltpFR	18	3	0	JOINT	758	n/a	n/a	0	0.422607421875	0.5869140625	0	lower	zerothre.ttf
637.578	n/a	REC_START	318789	n/a	LTP242	ltpFR	18	3	n/a	n/a	n/a	n/a	n/a	n/a	n/a	n/a	n/a	n/a	n/a
637.836	n/a	REC_WORD	318918	wordpools/wasnorm_wordpool_less_exclusions.txt	LTP242	ltpFR	18	3	0	ROOSTER	1209	n/a	n/a	1	n/a	n/a	n/a	n/a	n/a
638.526	n/a	REC_WORD	319263	wordpools/wasnorm_wordpool_less_exclusions.txt	LTP242	ltpFR	18	3	0	ROOSTER	1209	n/a	n/a	1	n/a	n/a	n/a	n/a	n/a
639.036	n/a	REC_WORD	319518	wordpools/wasnorm_wordpool_less_exclusions.txt	LTP242	ltpFR	18	3	0	ROOST	1208	n/a	n/a	0	n/a	n/a	n/a	n/a	n/a
639.798	n/a	REC_WORD	319899	wordpools/wasnorm_wordpool_less_exclusions.txt	LTP242	ltpFR	18	3	0	ROOST	1208	n/a	n/a	0	n/a	n/a	n/a	n/a	n/a
641.214	n/a	REC_WORD	320607	wordpools/wasnorm_wordpool_less_exclusions.txt	LTP242	ltpFR	18	3	0	WALL	1582	n/a	n/a	0	n/a	n/a	n/a	n/a	n/a
641.666	n/a	REC_WORD	320833	wordpools/wasnorm_wordpool_less_exclusions.txt	LTP242	ltpFR	18	3	0	KING	777	n/a	n/a	0	n/a	n/a	n/a	n/a	n/a
642.542	n/a	REC_WORD	321271	wordpools/wasnorm_wordpool_less_exclusions.txt	LTP242	ltpFR	18	3	0	JOINT	758	n/a	n/a	0	n/a	n/a	n/a	n/a	n/a
716.646	n/a	WORD	358323	wordpools/wasnorm_wordpool_less_exclusions.txt	LTP242	ltpFR	18	4	1	JOKER	759	n/a	n/a	2	0.57763671875	0.412841796875	1	upper	amplitud.ttf
717.666	n/a	KEY_MSG	358833	n/a	LTP242	ltpFR	18	4	n/a	n/a	n/a	n/a	n/a	n/a	n/a	n/a	n/a	n/a	n/a
720.678	n/a	WORD	360339	wordpools/wasnorm_wordpool_less_exclusions.txt	LTP242	ltpFR	18	4	1	CARD	243	n/a	n/a	0	0.57763671875	0.412841796875	1	upper	amplitud.ttf
724.626	n/a	WORD	362313	wordpools/wasnorm_wordpool_less_exclusions.txt	LTP242	ltpFR	18	4	1	DESIGNER	451	n/a	n/a	1	0.57763671875	0.412841796875	1	upper	amplitud.ttf
728.458	n/a	WORD	364229	wordpools/wasnorm_wordpool_less_exclusions.txt	LTP242	ltpFR	18	4	1	PUBLISHER	1137	n/a	n/a	1	0.57763671875	0.412841796875	1	upper	amplitud.ttf
732.54	n/a	WORD	366270	wordpools/wasnorm_wordpool_less_exclusions.txt	LTP242	ltpFR	18	4	1	THRONE	1461	n/a	n/a	0	0.57763671875	0.412841796875	1	upper	amplitud.ttf
736.69	n/a	WORD	368345	wordpools/wasnorm_wordpool_less_exclusions.txt	LTP242	ltpFR	18	4	1	TUXEDO	1525	n/a	n/a	0	0.57763671875	0.412841796875	1	upper	amplitud.ttf
740.566	n/a	WORD	370283	wordpools/wasnorm_wordpool_less_exclusions.txt	LTP242	ltpFR	18	4	1	SARDINE	1235	n/a	n/a	1	0.57763671875	0.412841796875	1	upper	amplitud.ttf
744.432	n/a	WORD	372216	wordpools/wasnorm_wordpool_less_exclusions.txt	LTP242	ltpFR	18	4	1	ORCHID	982	n/a	n/a	0	0.57763671875	0.412841796875	1	upper	amplitud.ttf
748.416	n/a	WORD	374208	wordpools/wasnorm_wordpool_less_exclusions.txt	LTP242	ltpFR	18	4	1	EDITOR	516	n/a	n/a	1	0.57763671875	0.412841796875	1	upper	amplitud.ttf
752.498	n/a	WORD	376249	wordpools/wasnorm_wordpool_less_exclusions.txt	LTP242	ltpFR	18	4	1	GAZELLE	628	n/a	n/a	1	0.57763671875	0.412841796875	1	upper	amplitud.ttf
756.7	n/a	WORD	378350	wordpools/wasnorm_wordpool_less_exclusions.txt	LTP242	ltpFR	18	4	1	TOWN	1491	n/a	n/a	0	0.57763671875	0.412841796875	1	upper	amplitud.ttf
760.58	n/a	WORD	380290	wordpools/wasnorm_wordpool_less_exclusions.txt	LTP242	ltpFR	18	4	1	TUNA	1518	n/a	n/a	1	0.57763671875	0.412841796875	1	upper	amplitud.ttf
764.462	n/a	WORD	382231	wordpools/wasnorm_wordpool_less_exclusions.txt	LTP242	ltpFR	18	4	1	TIDE	1465	n/a	n/a	0	0.57763671875	0.412841796875	1	upper	amplitud.ttf
768.544	n/a	WORD	384272	wordpools/wasnorm_wordpool_less_exclusions.txt	LTP242	ltpFR	18	4	1	SHELL	1281	n/a	n/a	0	0.57763671875	0.412841796875	1	upper	amplitud.ttf
772.692	n/a	WORD	386346	wordpools/wasnorm_wordpool_less_exclusions.txt	LTP242	ltpFR	18	4	1	SALMON	1227	n/a	n/a	1	0.57763671875	0.412841796875	1	upper	amplitud.ttf
776.86	n/a	WORD	388430	wordpools/wasnorm_wordpool_less_exclusions.txt	LTP242	ltpFR	18	4	1	SQUID	1361	n/a	n/a	1	0.57763671875	0.412841796875	1	upper	amplitud.ttf
782.566	n/a	REC_START	391283	n/a	LTP242	ltpFR	18	4	n/a	n/a	n/a	n/a	n/a	n/a	n/a	n/a	n/a	n/a	n/a
783.178	n/a	REC_WORD	391589	wordpools/wasnorm_wordpool_less_exclusions.txt	LTP242	ltpFR	18	4	1	TIDE	1465	n/a	n/a	0	n/a	n/a	n/a	n/a	n/a
783.688	n/a	REC_WORD	391844	wordpools/wasnorm_wordpool_less_exclusions.txt	LTP242	ltpFR	18	4	1	TUNA	1518	n/a	n/a	1	n/a	n/a	n/a	n/a	n/a
784.606	n/a	REC_WORD	392303	wordpools/wasnorm_wordpool_less_exclusions.txt	LTP242	ltpFR	18	4	1	SALMON	1227	n/a	n/a	1	n/a	n/a	n/a	n/a	n/a
786.316	n/a	REC_WORD	393158	wordpools/wasnorm_wordpool_less_exclusions.txt	LTP242	ltpFR	18	4	1	SARDINE	1235	n/a	n/a	1	n/a	n/a	n/a	n/a	n/a
789.056	n/a	REC_WORD	394528	wordpools/wasnorm_wordpool_less_exclusions.txt	LTP242	ltpFR	18	4	1	GAZELLE	628	n/a	n/a	1	n/a	n/a	n/a	n/a	n/a
812.688	n/a	REC_WORD_VV	406344	wordpools/wasnorm_wordpool_less_exclusions.txt	LTP242	ltpFR	18	4	n/a	<>	-1	n/a	n/a	n/a	n/a	n/a	n/a	n/a	n/a
860.712	n/a	WORD	430356	wordpools/wasnorm_wordpool_less_exclusions.txt	LTP242	ltpFR	18	5	-1	ELF	525	n/a	n/a	-1	1.0	1.0	1	upper	Verdana.ttf
864.862	n/a	WORD	432431	wordpools/wasnorm_wordpool_less_exclusions.txt	LTP242	ltpFR	18	5	-1	SAW	1239	n/a	n/a	-1	1.0	1.0	1	upper	Verdana.ttf
869.076	n/a	WORD	434538	wordpools/wasnorm_wordpool_less_exclusions.txt	LTP242	ltpFR	18	5	-1	LUMBER	848	n/a	n/a	-1	1.0	1.0	1	upper	Verdana.ttf
873.078	n/a	WORD	436539	wordpools/wasnorm_wordpool_less_exclusions.txt	LTP242	ltpFR	18	5	-1	REINDEER	1181	n/a	n/a	-1	1.0	1.0	1	upper	Verdana.ttf
877.056	n/a	WORD	438528	wordpools/wasnorm_wordpool_less_exclusions.txt	LTP242	ltpFR	18	5	-1	LASH	802	n/a	n/a	-1	1.0	1.0	1	upper	Verdana.ttf
881.006	n/a	WORD	440503	wordpools/wasnorm_wordpool_less_exclusions.txt	LTP242	ltpFR	18	5	-1	PUPIL	1143	n/a	n/a	-1	1.0	1.0	1	upper	Verdana.ttf
885.206	n/a	WORD	442603	wordpools/wasnorm_wordpool_less_exclusions.txt	LTP242	ltpFR	18	5	-1	WATER	1594	n/a	n/a	-1	1.0	1.0	1	upper	Verdana.ttf
889.09	n/a	WORD	444545	wordpools/wasnorm_wordpool_less_exclusions.txt	LTP242	ltpFR	18	5	-1	PLANT	1083	n/a	n/a	-1	1.0	1.0	1	upper	Verdana.ttf
892.936	n/a	WORD	446468	wordpools/wasnorm_wordpool_less_exclusions.txt	LTP242	ltpFR	18	5	-1	SHERIFF	1284	n/a	n/a	-1	1.0	1.0	1	upper	Verdana.ttf
896.818	n/a	WORD	448409	wordpools/wasnorm_wordpool_less_exclusions.txt	LTP242	ltpFR	18	5	-1	FREEZER	604	n/a	n/a	-1	1.0	1.0	1	upper	Verdana.ttf
900.666	n/a	WORD	450333	wordpools/wasnorm_wordpool_less_exclusions.txt	LTP242	ltpFR	18	5	-1	DIPLOMA	470	n/a	n/a	-1	1.0	1.0	1	upper	Verdana.ttf
904.548	n/a	WORD	452274	wordpools/wasnorm_wordpool_less_exclusions.txt	LTP242	ltpFR	18	5	-1	SHELF	1280	n/a	n/a	-1	1.0	1.0	1	upper	Verdana.ttf
908.68	n/a	WORD	454340	wordpools/wasnorm_wordpool_less_exclusions.txt	LTP242	ltpFR	18	5	-1	LIBRARY	816	n/a	n/a	-1	1.0	1.0	1	upper	Verdana.ttf
912.628	n/a	WORD	456314	wordpools/wasnorm_wordpool_less_exclusions.txt	LTP242	ltpFR	18	5	-1	PASTA	1021	n/a	n/a	-1	1.0	1.0	1	upper	Verdana.ttf
916.576	n/a	WORD	458288	wordpools/wasnorm_wordpool_less_exclusions.txt	LTP242	ltpFR	18	5	-1	PIER	1063	n/a	n/a	-1	1.0	1.0	1	upper	Verdana.ttf
920.608	n/a	WORD	460304	wordpools/wasnorm_wordpool_less_exclusions.txt	LTP242	ltpFR	18	5	-1	HERB	704	n/a	n/a	-1	1.0	1.0	1	upper	Verdana.ttf
926.616	n/a	REC_START	463308	n/a	LTP242	ltpFR	18	5	n/a	n/a	n/a	n/a	n/a	n/a	n/a	n/a	n/a	n/a	n/a
926.92	n/a	REC_WORD	463460	wordpools/wasnorm_wordpool_less_exclusions.txt	LTP242	ltpFR	18	5	-1	WATER	1594	n/a	n/a	-1	n/a	n/a	n/a	n/a	n/a
927.398	n/a	REC_WORD	463699	wordpools/wasnorm_wordpool_less_exclusions.txt	LTP242	ltpFR	18	5	-1	PLANT	1083	n/a	n/a	-1	n/a	n/a	n/a	n/a	n/a
928.216	n/a	REC_WORD	464108	wordpools/wasnorm_wordpool_less_exclusions.txt	LTP242	ltpFR	18	5	-1	SHERIFF	1284	n/a	n/a	-1	n/a	n/a	n/a	n/a	n/a
929.216	n/a	REC_WORD_VV	464608	wordpools/wasnorm_wordpool_less_exclusions.txt	LTP242	ltpFR	18	5	n/a	<>	-1	n/a	n/a	n/a	n/a	n/a	n/a	n/a	n/a
933.66	n/a	REC_WORD	466830	wordpools/wasnorm_wordpool_less_exclusions.txt	LTP242	ltpFR	18	5	-1	HERB	704	n/a	n/a	-1	n/a	n/a	n/a	n/a	n/a
934.846	n/a	REC_WORD	467423	wordpools/wasnorm_wordpool_less_exclusions.txt	LTP242	ltpFR	18	5	-1	SHELF	1280	n/a	n/a	-1	n/a	n/a	n/a	n/a	n/a
935.326	n/a	REC_WORD	467663	wordpools/wasnorm_wordpool_less_exclusions.txt	LTP242	ltpFR	18	5	-1	LIBRARY	816	n/a	n/a	-1	n/a	n/a	n/a	n/a	n/a
939.362	n/a	REC_WORD_VV	469681	wordpools/wasnorm_wordpool_less_exclusions.txt	LTP242	ltpFR	18	5	n/a	<>	-1	n/a	n/a	n/a	n/a	n/a	n/a	n/a	n/a
941.072	n/a	REC_WORD	470536	wordpools/wasnorm_wordpool_less_exclusions.txt	LTP242	ltpFR	18	5	-1	LASH	802	n/a	n/a	-1	n/a	n/a	n/a	n/a	n/a
942.944	n/a	REC_WORD	471472	wordpools/wasnorm_wordpool_less_exclusions.txt	LTP242	ltpFR	18	5	-1	ELF	525	n/a	n/a	-1	n/a	n/a	n/a	n/a	n/a
943.344	n/a	REC_WORD	471672	wordpools/wasnorm_wordpool_less_exclusions.txt	LTP242	ltpFR	18	5	-1	REINDEER	1181	n/a	n/a	-1	n/a	n/a	n/a	n/a	n/a
943.972	n/a	REC_WORD	471986	wordpools/wasnorm_wordpool_less_exclusions.txt	LTP242	ltpFR	18	5	-1	SAW	1239	n/a	n/a	-1	n/a	n/a	n/a	n/a	n/a
944.51	n/a	REC_WORD	472255	wordpools/wasnorm_wordpool_less_exclusions.txt	LTP242	ltpFR	18	5	-1	LUMBER	848	n/a	n/a	-1	n/a	n/a	n/a	n/a	n/a
1014.684	n/a	WORD	507342	wordpools/wasnorm_wordpool_less_exclusions.txt	LTP242	ltpFR	18	6	1	WASP	1593	n/a	n/a	1	0.57763671875	0.412841796875	1	upper	amplitud.ttf
1018.55	n/a	WORD	509275	wordpools/wasnorm_wordpool_less_exclusions.txt	LTP242	ltpFR	18	6	1	GRASSHOPPER	656	n/a	n/a	1	0.57763671875	0.412841796875	1	upper	amplitud.ttf
1022.598	n/a	WORD	511299	wordpools/wasnorm_wordpool_less_exclusions.txt	LTP242	ltpFR	18	6	1	ANTLER	29	n/a	n/a	0	0.57763671875	0.412841796875	1	upper	amplitud.ttf
1026.43	n/a	WORD	513215	wordpools/wasnorm_wordpool_less_exclusions.txt	LTP242	ltpFR	18	6	1	ANTELOPE	27	n/a	n/a	0	0.57763671875	0.412841796875	1	upper	amplitud.ttf
1030.328	n/a	WORD	515164	wordpools/wasnorm_wordpool_less_exclusions.txt	LTP242	ltpFR	18	6	1	SCAPEGOAT	1244	n/a	n/a	1	0.57763671875	0.412841796875	1	upper	amplitud.ttf
1034.39	n/a	WORD	517195	wordpools/wasnorm_wordpool_less_exclusions.txt	LTP242	ltpFR	18	6	1	EXPLOSION	544	n/a	n/a	0	0.57763671875	0.412841796875	1	upper	amplitud.ttf
1038.376	n/a	WORD	519188	wordpools/wasnorm_wordpool_less_exclusions.txt	LTP242	ltpFR	18	6	1	KEEPER	769	n/a	n/a	1	0.57763671875	0.412841796875	1	upper	amplitud.ttf
1042.24	n/a	WORD	521120	wordpools/wasnorm_wordpool_less_exclusions.txt	LTP242	ltpFR	18	6	1	COOK	372	n/a	n/a	0	0.57763671875	0.412841796875	1	upper	amplitud.ttf
1046.44	n/a	WORD	523220	wordpools/wasnorm_wordpool_less_exclusions.txt	LTP242	ltpFR	18	6	1	PERISCOPE	1050	n/a	n/a	0	0.57763671875	0.412841796875	1	upper	amplitud.ttf
1050.572	n/a	WORD	525286	wordpools/wasnorm_wordpool_less_exclusions.txt	LTP242	ltpFR	18	6	1	PARENT	1013	n/a	n/a	0	0.57763671875	0.412841796875	1	upper	amplitud.ttf
1054.45	n/a	WORD	527225	wordpools/wasnorm_wordpool_less_exclusions.txt	LTP242	ltpFR	18	6	1	POPE	1105	n/a	n/a	0	0.57763671875	0.412841796875	1	upper	amplitud.ttf
1058.586	n/a	WORD	529293	wordpools/wasnorm_wordpool_less_exclusions.txt	LTP242	ltpFR	18	6	1	BEAKER	104	n/a	n/a	0	0.57763671875	0.412841796875	1	upper	amplitud.ttf
1062.618	n/a	WORD	531309	wordpools/wasnorm_wordpool_less_exclusions.txt	LTP242	ltpFR	18	6	1	MOTHER	921	n/a	n/a	1	0.57763671875	0.412841796875	1	upper	amplitud.ttf
1066.612	n/a	WORD	533306	wordpools/wasnorm_wordpool_less_exclusions.txt	LTP242	ltpFR	18	6	1	DINNER	468	n/a	n/a	0	0.57763671875	0.412841796875	1	upper	amplitud.ttf
1070.544	n/a	WORD	535272	wordpools/wasnorm_wordpool_less_exclusions.txt	LTP242	ltpFR	18	6	1	SPACE	1345	n/a	n/a	0	0.57763671875	0.412841796875	1	upper	amplitud.ttf
1074.46	n/a	WORD	537230	wordpools/wasnorm_wordpool_less_exclusions.txt	LTP242	ltpFR	18	6	1	UNIVERSE	1540	n/a	n/a	0	0.57763671875	0.412841796875	1	upper	amplitud.ttf
1080.588	n/a	REC_START	540294	n/a	LTP242	ltpFR	18	6	n/a	n/a	n/a	n/a	n/a	n/a	n/a	n/a	n/a	n/a	n/a
1080.866	n/a	REC_WORD	540433	wordpools/wasnorm_wordpool_less_exclusions.txt	LTP242	ltpFR	18	6	1	PERISCOPE	1050	n/a	n/a	0	n/a	n/a	n/a	n/a	n/a
1081.456	n/a	REC_WORD	540728	wordpools/wasnorm_wordpool_less_exclusions.txt	LTP242	ltpFR	18	6	1	PARENT	1013	n/a	n/a	0	n/a	n/a	n/a	n/a	n/a
1081.86	n/a	REC_WORD	540930	wordpools/wasnorm_wordpool_less_exclusions.txt	LTP242	ltpFR	18	6	1	MOTHER	921	n/a	n/a	1	n/a	n/a	n/a	n/a	n/a
1082.758	n/a	REC_WORD	541379	wordpools/wasnorm_wordpool_less_exclusions.txt	LTP242	ltpFR	18	6	1	UNIVERSE	1540	n/a	n/a	0	n/a	n/a	n/a	n/a	n/a
1083.248	n/a	REC_WORD	541624	wordpools/wasnorm_wordpool_less_exclusions.txt	LTP242	ltpFR	18	6	1	SPACE	1345	n/a	n/a	0	n/a	n/a	n/a	n/a	n/a
1084.564	n/a	REC_WORD_VV	542282	wordpools/wasnorm_wordpool_less_exclusions.txt	LTP242	ltpFR	18	6	n/a	<>	-1	n/a	n/a	n/a	n/a	n/a	n/a	n/a	n/a
1088.546	n/a	REC_WORD_VV	544273	wordpools/wasnorm_wordpool_less_exclusions.txt	LTP242	ltpFR	18	6	n/a	<>	-1	n/a	n/a	n/a	n/a	n/a	n/a	n/a	n/a
1148.956	n/a	REC_WORD_VV	574478	wordpools/wasnorm_wordpool_less_exclusions.txt	LTP242	ltpFR	18	6	n/a	<>	-1	n/a	n/a	n/a	n/a	n/a	n/a	n/a	n/a
1159.254	n/a	WORD	579627	wordpools/wasnorm_wordpool_less_exclusions.txt	LTP242	ltpFR	18	7	0	CLIMBER	323	n/a	n/a	1	0.422607421875	0.5869140625	0	lower	zerothre.ttf
1163.286	n/a	WORD	581643	wordpools/wasnorm_wordpool_less_exclusions.txt	LTP242	ltpFR	18	7	0	CLOCK	325	n/a	n/a	0	0.422607421875	0.5869140625	0	lower	zerothre.ttf
1167.234	n/a	WORD	583617	wordpools/wasnorm_wordpool_less_exclusions.txt	LTP242	ltpFR	18	7	0	HEATER	698	n/a	n/a	0	0.422607421875	0.5869140625	0	lower	zerothre.ttf
1171.084	n/a	WORD	585542	wordpools/wasnorm_wordpool_less_exclusions.txt	LTP242	ltpFR	18	7	0	SINK	1309	n/a	n/a	0	0.422607421875	0.5869140625	0	lower	zerothre.ttf
1175.214	n/a	WORD	587607	wordpools/wasnorm_wordpool_less_exclusions.txt	LTP242	ltpFR	18	7	0	SPIT	1354	n/a	n/a	0	0.422607421875	0.5869140625	0	lower	zerothre.ttf
1179.176	n/a	WORD	589588	wordpools/wasnorm_wordpool_less_exclusions.txt	LTP242	ltpFR	18	7	1	TACK	1428	n/a	n/a	0	0.57763671875	0.412841796875	1	upper	amplitud.ttf
1183.062	n/a	WORD	591531	wordpools/wasnorm_wordpool_less_exclusions.txt	LTP242	ltpFR	18	7	1	PONY	1102	n/a	n/a	1	0.57763671875	0.412841796875	1	upper	amplitud.ttf
1186.944	n/a	WORD	593472	wordpools/wasnorm_wordpool_less_exclusions.txt	LTP242	ltpFR	18	7	1	SCALLOP	1242	n/a	n/a	0	0.57763671875	0.412841796875	1	upper	amplitud.ttf
1191.058	n/a	WORD	595529	wordpools/wasnorm_wordpool_less_exclusions.txt	LTP242	ltpFR	18	7	1	SEA	1259	n/a	n/a	0	0.57763671875	0.412841796875	1	upper	amplitud.ttf
1195.108	n/a	WORD	597554	wordpools/wasnorm_wordpool_less_exclusions.txt	LTP242	ltpFR	18	7	1	PILOT	1070	n/a	n/a	1	0.57763671875	0.412841796875	1	upper	amplitud.ttf
1199.306	n/a	WORD	599653	wordpools/wasnorm_wordpool_less_exclusions.txt	LTP242	ltpFR	18	7	0	PASSENGER	1020	n/a	n/a	2	0.422607421875	0.5869140625	0	lower	zerothre.ttf
1201.098	n/a	KEY_MSG	600549	n/a	LTP242	ltpFR	18	7	n/a	n/a	n/a	n/a	n/a	n/a	n/a	n/a	n/a	n/a	n/a
1203.774	n/a	WORD	601887	wordpools/wasnorm_wordpool_less_exclusions.txt	LTP242	ltpFR	18	7	0	WINNER	1615	n/a	n/a	1	0.422607421875	0.5869140625	0	lower	zerothre.ttf
1207.74	n/a	WORD	603870	wordpools/wasnorm_wordpool_less_exclusions.txt	LTP242	ltpFR	18	7	0	COAT	333	n/a	n/a	0	0.422607421875	0.5869140625	0	lower	zerothre.ttf
1211.718	n/a	WORD	605859	wordpools/wasnorm_wordpool_less_exclusions.txt	LTP242	ltpFR	18	7	1	TONGUE	1479	n/a	n/a	0	0.57763671875	0.412841796875	1	upper	amplitud.ttf
1215.938	n/a	WORD	607969	wordpools/wasnorm_wordpool_less_exclusions.txt	LTP242	ltpFR	18	7	1	MOAT	903	n/a	n/a	0	0.57763671875	0.412841796875	1	upper	amplitud.ttf
1220.032	n/a	WORD	610016	wordpools/wasnorm_wordpool_less_exclusions.txt	LTP242	ltpFR	18	7	1	ICEBERG	731	n/a	n/a	0	0.57763671875	0.412841796875	1	upper	amplitud.ttf
1225.842	n/a	REC_START	612921	n/a	LTP242	ltpFR	18	7	n/a	n/a	n/a	n/a	n/a	n/a	n/a	n/a	n/a	n/a	n/a
1226.106	n/a	REC_WORD	613053	wordpools/wasnorm_wordpool_less_exclusions.txt	LTP242	ltpFR	18	7	1	TACK	1428	n/a	n/a	0	n/a	n/a	n/a	n/a	n/a
1226.456	n/a	REC_WORD	613228	wordpools/wasnorm_wordpool_less_exclusions.txt	LTP242	ltpFR	18	7	1	SEA	1259	n/a	n/a	0	n/a	n/a	n/a	n/a	n/a
1227.264	n/a	REC_WORD	613632	wordpools/wasnorm_wordpool_less_exclusions.txt	LTP242	ltpFR	18	7	0	PASSENGER	1020	n/a	n/a	2	n/a	n/a	n/a	n/a	n/a
1228.042	n/a	REC_WORD	614021	wordpools/wasnorm_wordpool_less_exclusions.txt	LTP242	ltpFR	18	7	1	PILOT	1070	n/a	n/a	1	n/a	n/a	n/a	n/a	n/a
1228.636	n/a	REC_WORD	614318	wordpools/wasnorm_wordpool_less_exclusions.txt	LTP242	ltpFR	18	7	1	ICEBERG	731	n/a	n/a	0	n/a	n/a	n/a	n/a	n/a
1306.884	n/a	WORD	653442	wordpools/wasnorm_wordpool_less_exclusions.txt	LTP242	ltpFR	18	8	0	DRAGON	492	n/a	n/a	2	0.422607421875	0.5869140625	0	lower	zerothre.ttf
1308.91	n/a	KEY_MSG	654455	n/a	LTP242	ltpFR	18	8	n/a	n/a	n/a	n/a	n/a	n/a	n/a	n/a	n/a	n/a	n/a
1311.352	n/a	WORD	655676	wordpools/wasnorm_wordpool_less_exclusions.txt	LTP242	ltpFR	18	8	0	DILL	465	n/a	n/a	0	0.422607421875	0.5869140625	0	lower	zerothre.ttf
1315.468	n/a	WORD	657734	wordpools/wasnorm_wordpool_less_exclusions.txt	LTP242	ltpFR	18	8	1	CANDY	230	n/a	n/a	0	0.57763671875	0.412841796875	1	upper	amplitud.ttf
1319.434	n/a	WORD	659717	wordpools/wasnorm_wordpool_less_exclusions.txt	LTP242	ltpFR	18	8	1	SERVANT	1271	n/a	n/a	1	0.57763671875	0.412841796875	1	upper	amplitud.ttf
1323.532	n/a	WORD	661766	wordpools/wasnorm_wordpool_less_exclusions.txt	LTP242	ltpFR	18	8	1	RUST	1219	n/a	n/a	0	0.57763671875	0.412841796875	1	upper	amplitud.ttf
1327.41	n/a	WORD	663705	wordpools/wasnorm_wordpool_less_exclusions.txt	LTP242	ltpFR	18	8	1	TRUCK	1512	n/a	n/a	0	0.57763671875	0.412841796875	1	upper	amplitud.ttf
1331.442	n/a	WORD	665721	wordpools/wasnorm_wordpool_less_exclusions.txt	LTP242	ltpFR	18	8	1	WOLF	1619	n/a	n/a	1	0.57763671875	0.412841796875	1	upper	amplitud.ttf
1335.646	n/a	WORD	667823	wordpools/wasnorm_wordpool_less_exclusions.txt	LTP242	ltpFR	18	8	1	COPIER	377	n/a	n/a	0	0.57763671875	0.412841796875	1	upper	amplitud.ttf
1339.79	n/a	WORD	669895	wordpools/wasnorm_wordpool_less_exclusions.txt	LTP242	ltpFR	18	8	0	CABOOSE	214	n/a	n/a	2	0.422607421875	0.5869140625	0	lower	zerothre.ttf
1342.186	n/a	KEY_MSG	671093	n/a	LTP242	ltpFR	18	8	n/a	n/a	n/a	n/a	n/a	n/a	n/a	n/a	n/a	n/a	n/a
1344.696	n/a	WORD	672348	wordpools/wasnorm_wordpool_less_exclusions.txt	LTP242	ltpFR	18	8	0	VAMPIRE	1547	n/a	n/a	1	0.422607421875	0.5869140625	0	lower	zerothre.ttf
1348.794	n/a	WORD	674397	wordpools/wasnorm_wordpool_less_exclusions.txt	LTP242	ltpFR	18	8	0	BUS	201	n/a	n/a	0	0.422607421875	0.5869140625	0	lower	zerothre.ttf
1352.626	n/a	WORD	676313	wordpools/wasnorm_wordpool_less_exclusions.txt	LTP242	ltpFR	18	8	0	VEHICLE	1553	n/a	n/a	1	0.422607421875	0.5869140625	0	lower	zerothre.ttf
1356.788	n/a	WORD	678394	wordpools/wasnorm_wordpool_less_exclusions.txt	LTP242	ltpFR	18	8	1	TOTE	1487	n/a	n/a	0	0.57763671875	0.412841796875	1	upper	amplitud.ttf
1360.942	n/a	WORD	680471	wordpools/wasnorm_wordpool_less_exclusions.txt	LTP242	ltpFR	18	8	1	PORCUPINE	1107	n/a	n/a	0	0.57763671875	0.412841796875	1	upper	amplitud.ttf
1365.056	n/a	WORD	682528	wordpools/wasnorm_wordpool_less_exclusions.txt	LTP242	ltpFR	18	8	0	MAID	856	n/a	n/a	2	0.422607421875	0.5869140625	0	lower	zerothre.ttf
1367.232	n/a	KEY_MSG	683616	n/a	LTP242	ltpFR	18	8	n/a	n/a	n/a	n/a	n/a	n/a	n/a	n/a	n/a	n/a	n/a
1369.59	n/a	WORD	684795	wordpools/wasnorm_wordpool_less_exclusions.txt	LTP242	ltpFR	18	8	0	DOCUMENT	479	n/a	n/a	0	0.422607421875	0.5869140625	0	lower	zerothre.ttf
1375.38	n/a	REC_START	687690	n/a	LTP242	ltpFR	18	8	n/a	n/a	n/a	n/a	n/a	n/a	n/a	n/a	n/a	n/a	n/a
1375.648	n/a	REC_WORD	687824	wordpools/wasnorm_wordpool_less_exclusions.txt	LTP242	ltpFR	18	8	0	VAMPIRE	1547	n/a	n/a	1	n/a	n/a	n/a	n/a	n/a
1376.236	n/a	REC_WORD	688118	wordpools/wasnorm_wordpool_less_exclusions.txt	LTP242	ltpFR	18	8	0	CABOOSE	214	n/a	n/a	2	n/a	n/a	n/a	n/a	n/a
1378.094	n/a	REC_WORD	689047	wordpools/wasnorm_wordpool_less_exclusions.txt	LTP242	ltpFR	18	8	0	DOCUMENT	479	n/a	n/a	0	n/a	n/a	n/a	n/a	n/a
1378.672	n/a	REC_WORD	689336	wordpools/wasnorm_wordpool_less_exclusions.txt	LTP242	ltpFR	18	8	0	MAID	856	n/a	n/a	2	n/a	n/a	n/a	n/a	n/a
1379.116	n/a	REC_WORD	689558	wordpools/wasnorm_wordpool_less_exclusions.txt	LTP242	ltpFR	18	8	1	SERVANT	1271	n/a	n/a	1	n/a	n/a	n/a	n/a	n/a
1453.93	n/a	WORD	726965	wordpools/wasnorm_wordpool_less_exclusions.txt	LTP242	ltpFR	18	9	-1	RADISH	1158	n/a	n/a	-1	1.0	1.0	1	upper	Verdana.ttf
1457.962	n/a	WORD	728981	wordpools/wasnorm_wordpool_less_exclusions.txt	LTP242	ltpFR	18	9	-1	THIMBLE	1458	n/a	n/a	-1	1.0	1.0	1	upper	Verdana.ttf
1461.978	n/a	WORD	730989	wordpools/wasnorm_wordpool_less_exclusions.txt	LTP242	ltpFR	18	9	-1	YARN	1631	n/a	n/a	-1	1.0	1.0	1	upper	Verdana.ttf
1465.858	n/a	WORD	732929	wordpools/wasnorm_wordpool_less_exclusions.txt	LTP242	ltpFR	18	9	-1	EMERALD	528	n/a	n/a	-1	1.0	1.0	1	upper	Verdana.ttf
1469.958	n/a	WORD	734979	wordpools/wasnorm_wordpool_less_exclusions.txt	LTP242	ltpFR	18	9	-1	SHORTCAKE	1292	n/a	n/a	-1	1.0	1.0	1	upper	Verdana.ttf
1473.856	n/a	WORD	736928	wordpools/wasnorm_wordpool_less_exclusions.txt	LTP242	ltpFR	18	9	-1	TREE	1502	n/a	n/a	-1	1.0	1.0	1	upper	Verdana.ttf
1478.022	n/a	WORD	739011	wordpools/wasnorm_wordpool_less_exclusions.txt	LTP242	ltpFR	18	9	-1	LITERATURE	831	n/a	n/a	-1	1.0	1.0	1	upper	Verdana.ttf
1481.854	n/a	WORD	740927	wordpools/wasnorm_wordpool_less_exclusions.txt	LTP242	ltpFR	18	9	-1	GLUE	643	n/a	n/a	-1	1.0	1.0	1	upper	Verdana.ttf
1486.032	n/a	WORD	743016	wordpools/wasnorm_wordpool_less_exclusions.txt	LTP242	ltpFR	18	9	-1	PICKLE	1059	n/a	n/a	-1	1.0	1.0	1	upper	Verdana.ttf
1490.182	n/a	WORD	745091	wordpools/wasnorm_wordpool_less_exclusions.txt	LTP242	ltpFR	18	9	-1	RUM	1217	n/a	n/a	-1	1.0	1.0	1	upper	Verdana.ttf
1494.334	n/a	WORD	747167	wordpools/wasnorm_wordpool_less_exclusions.txt	LTP242	ltpFR	18	9	-1	ISLAND	745	n/a	n/a	-1	1.0	1.0	1	upper	Verdana.ttf
1498.516	n/a	WORD	749258	wordpools/wasnorm_wordpool_less_exclusions.txt	LTP242	ltpFR	18	9	-1	LAKE	796	n/a	n/a	-1	1.0	1.0	1	upper	Verdana.ttf
1502.432	n/a	WORD	751216	wordpools/wasnorm_wordpool_less_exclusions.txt	LTP242	ltpFR	18	9	-1	PARSLEY	1016	n/a	n/a	-1	1.0	1.0	1	upper	Verdana.ttf
1506.498	n/a	WORD	753249	wordpools/wasnorm_wordpool_less_exclusions.txt	LTP242	ltpFR	18	9	-1	RECIPE	1175	n/a	n/a	-1	1.0	1.0	1	upper	Verdana.ttf
1510.714	n/a	WORD	755357	wordpools/wasnorm_wordpool_less_exclusions.txt	LTP242	ltpFR	18	9	-1	STUMP	1396	n/a	n/a	-1	1.0	1.0	1	upper	Verdana.ttf
1514.846	n/a	WORD	757423	wordpools/wasnorm_wordpool_less_exclusions.txt	LTP242	ltpFR	18	9	-1	LITTER	832	n/a	n/a	-1	1.0	1.0	1	upper	Verdana.ttf
1520.668	n/a	REC_START	760334	n/a	LTP242	ltpFR	18	9	n/a	n/a	n/a	n/a	n/a	n/a	n/a	n/a	n/a	n/a	n/a
1520.878	n/a	REC_WORD	760439	wordpools/wasnorm_wordpool_less_exclusions.txt	LTP242	ltpFR	18	9	-1	LITTER	832	n/a	n/a	-1	n/a	n/a	n/a	n/a	n/a
1521.356	n/a	REC_WORD	760678	wordpools/wasnorm_wordpool_less_exclusions.txt	LTP242	ltpFR	18	9	-1	YARN	1631	n/a	n/a	-1	n/a	n/a	n/a	n/a	n/a
1521.986	n/a	REC_WORD	760993	wordpools/wasnorm_wordpool_less_exclusions.txt	LTP242	ltpFR	18	9	-1	THIMBLE	1458	n/a	n/a	-1	n/a	n/a	n/a	n/a	n/a
1522.49	n/a	REC_WORD	761245	wordpools/wasnorm_wordpool_less_exclusions.txt	LTP242	ltpFR	18	9	-1	SHORTCAKE	1292	n/a	n/a	-1	n/a	n/a	n/a	n/a	n/a
1523.178	n/a	REC_WORD	761589	wordpools/wasnorm_wordpool_less_exclusions.txt	LTP242	ltpFR	18	9	-1	RECIPE	1175	n/a	n/a	-1	n/a	n/a	n/a	n/a	n/a
1524.546	n/a	REC_WORD	762273	wordpools/wasnorm_wordpool_less_exclusions.txt	LTP242	ltpFR	18	9	-1	PARSLEY	1016	n/a	n/a	-1	n/a	n/a	n/a	n/a	n/a
1525.698	n/a	REC_WORD	762849	wordpools/wasnorm_wordpool_less_exclusions.txt	LTP242	ltpFR	18	9	-1	LITTER	832	n/a	n/a	-1	n/a	n/a	n/a	n/a	n/a
1535.71	n/a	REC_WORD	767855	wordpools/wasnorm_wordpool_less_exclusions.txt	LTP242	ltpFR	18	9	-1	TREE	1502	n/a	n/a	-1	n/a	n/a	n/a	n/a	n/a
1598.918	n/a	WORD	799459	wordpools/wasnorm_wordpool_less_exclusions.txt	LTP242	ltpFR	18	10	0	PADDLE	1000	n/a	n/a	1	0.422607421875	0.5869140625	0	lower	zerothre.ttf
1603.0	n/a	WORD	801500	wordpools/wasnorm_wordpool_less_exclusions.txt	LTP242	ltpFR	18	10	0	FLOOR	581	n/a	n/a	0	0.422607421875	0.5869140625	0	lower	zerothre.ttf
1607.032	n/a	WORD	803516	wordpools/wasnorm_wordpool_less_exclusions.txt	LTP242	ltpFR	18	10	0	COOLER	375	n/a	n/a	1	0.422607421875	0.5869140625	0	lower	zerothre.ttf
1611.148	n/a	WORD	805574	wordpools/wasnorm_wordpool_less_exclusions.txt	LTP242	ltpFR	18	10	0	TAVERN	1437	n/a	n/a	1	0.422607421875	0.5869140625	0	lower	zerothre.ttf
1615.096	n/a	WORD	807548	wordpools/wasnorm_wordpool_less_exclusions.txt	LTP242	ltpFR	18	10	0	FLEA	577	n/a	n/a	0	0.422607421875	0.5869140625	0	lower	zerothre.ttf
1618.978	n/a	WORD	809489	wordpools/wasnorm_wordpool_less_exclusions.txt	LTP242	ltpFR	18	10	0	ARCHITECT	36	n/a	n/a	0	0.422607421875	0.5869140625	0	lower	zerothre.ttf
1623.06	n/a	WORD	811530	wordpools/wasnorm_wordpool_less_exclusions.txt	LTP242	ltpFR	18	10	0	OATMEAL	967	n/a	n/a	0	0.422607421875	0.5869140625	0	lower	zerothre.ttf
1627.024	n/a	WORD	813512	wordpools/wasnorm_wordpool_less_exclusions.txt	LTP242	ltpFR	18	10	0	LAUNDRY	803	n/a	n/a	0	0.422607421875	0.5869140625	0	lower	zerothre.ttf
1631.074	n/a	WORD	815537	wordpools/wasnorm_wordpool_less_exclusions.txt	LTP242	ltpFR	18	10	0	JACKET	747	n/a	n/a	0	0.422607421875	0.5869140625	0	lower	zerothre.ttf
1635.022	n/a	WORD	817511	wordpools/wasnorm_wordpool_less_exclusions.txt	LTP242	ltpFR	18	10	0	QUILT	1151	n/a	n/a	0	0.422607421875	0.5869140625	0	lower	zerothre.ttf
1638.954	n/a	WORD	819477	wordpools/wasnorm_wordpool_less_exclusions.txt	LTP242	ltpFR	18	10	0	INTESTINE	742	n/a	n/a	0	0.422607421875	0.5869140625	0	lower	zerothre.ttf
1643.066	n/a	WORD	821533	wordpools/wasnorm_wordpool_less_exclusions.txt	LTP242	ltpFR	18	10	0	MOP	916	n/a	n/a	0	0.422607421875	0.5869140625	0	lower	zerothre.ttf
1646.968	n/a	WORD	823484	wordpools/wasnorm_wordpool_less_exclusions.txt	LTP242	ltpFR	18	10	0	MERMAID	887	n/a	n/a	0	0.422607421875	0.5869140625	0	lower	zerothre.ttf
1650.9	n/a	WORD	825450	wordpools/wasnorm_wordpool_less_exclusions.txt	LTP242	ltpFR	18	10	0	CANOE	233	n/a	n/a	0	0.422607421875	0.5869140625	0	lower	zerothre.ttf
1654.748	n/a	WORD	827374	wordpools/wasnorm_wordpool_less_exclusions.txt	LTP242	ltpFR	18	10	0	KIDNEY	776	n/a	n/a	0	0.422607421875	0.5869140625	0	lower	zerothre.ttf
1658.814	n/a	WORD	829407	wordpools/wasnorm_wordpool_less_exclusions.txt	LTP242	ltpFR	18	10	0	ROCK	1201	n/a	n/a	0	0.422607421875	0.5869140625	0	lower	zerothre.ttf
1664.582	n/a	REC_START	832291	n/a	LTP242	ltpFR	18	10	n/a	n/a	n/a	n/a	n/a	n/a	n/a	n/a	n/a	n/a	n/a
1664.806	n/a	REC_WORD	832403	wordpools/wasnorm_wordpool_less_exclusions.txt	LTP242	ltpFR	18	10	0	OATMEAL	967	n/a	n/a	0	n/a	n/a	n/a	n/a	n/a
1665.306	n/a	REC_WORD	832653	wordpools/wasnorm_wordpool_less_exclusions.txt	LTP242	ltpFR	18	10	0	INTESTINE	742	n/a	n/a	0	n/a	n/a	n/a	n/a	n/a
1665.692	n/a	REC_WORD	832846	wordpools/wasnorm_wordpool_less_exclusions.txt	LTP242	ltpFR	18	10	0	KIDNEY	776	n/a	n/a	0	n/a	n/a	n/a	n/a	n/a
1666.046	n/a	REC_WORD	833023	wordpools/wasnorm_wordpool_less_exclusions.txt	LTP242	ltpFR	18	10	0	ROCK	1201	n/a	n/a	0	n/a	n/a	n/a	n/a	n/a
1667.206	n/a	REC_WORD	833603	wordpools/wasnorm_wordpool_less_exclusions.txt	LTP242	ltpFR	18	10	0	JACKET	747	n/a	n/a	0	n/a	n/a	n/a	n/a	n/a
1668.972	n/a	REC_WORD	834486	wordpools/wasnorm_wordpool_less_exclusions.txt	LTP242	ltpFR	18	10	0	PADDLE	1000	n/a	n/a	1	n/a	n/a	n/a	n/a	n/a
1670.634	n/a	REC_WORD	835317	wordpools/wasnorm_wordpool_less_exclusions.txt	LTP242	ltpFR	18	10	0	FLOOR	581	n/a	n/a	0	n/a	n/a	n/a	n/a	n/a
1672.27	n/a	REC_WORD	836135	wordpools/wasnorm_wordpool_less_exclusions.txt	LTP242	ltpFR	18	10	0	TAVERN	1437	n/a	n/a	1	n/a	n/a	n/a	n/a	n/a
1675.978	n/a	REC_WORD	837989	wordpools/wasnorm_wordpool_less_exclusions.txt	LTP242	ltpFR	18	10	0	MOP	916	n/a	n/a	0	n/a	n/a	n/a	n/a	n/a
1742.166	n/a	WORD	871083	wordpools/wasnorm_wordpool_less_exclusions.txt	LTP242	ltpFR	18	11	1	BANANA	77	n/a	n/a	0	0.57763671875	0.412841796875	1	upper	amplitud.ttf
1746.114	n/a	WORD	873057	wordpools/wasnorm_wordpool_less_exclusions.txt	LTP242	ltpFR	18	11	1	APE	31	n/a	n/a	1	0.57763671875	0.412841796875	1	upper	amplitud.ttf
1750.246	n/a	WORD	875123	wordpools/wasnorm_wordpool_less_exclusions.txt	LTP242	ltpFR	18	11	1	CROW	414	n/a	n/a	1	0.57763671875	0.412841796875	1	upper	amplitud.ttf
1754.178	n/a	WORD	877089	wordpools/wasnorm_wordpool_less_exclusions.txt	LTP242	ltpFR	18	11	1	MARKET	871	n/a	n/a	0	0.57763671875	0.412841796875	1	upper	amplitud.ttf
1758.16	n/a	WORD	879080	wordpools/wasnorm_wordpool_less_exclusions.txt	LTP242	ltpFR	18	11	0	LEOPARD	812	n/a	n/a	1	0.422607421875	0.5869140625	0	lower	zerothre.ttf
1762.008	n/a	WORD	881004	wordpools/wasnorm_wordpool_less_exclusions.txt	LTP242	ltpFR	18	11	0	CANARY	227	n/a	n/a	0	0.422607421875	0.5869140625	0	lower	zerothre.ttf
1766.124	n/a	WORD	883062	wordpools/wasnorm_wordpool_less_exclusions.txt	LTP242	ltpFR	18	11	0	SHOP	1290	n/a	n/a	0	0.422607421875	0.5869140625	0	lower	zerothre.ttf
1770.256	n/a	WORD	885128	wordpools/wasnorm_wordpool_less_exclusions.txt	LTP242	ltpFR	18	11	0	PASSAGE	1019	n/a	n/a	0	0.422607421875	0.5869140625	0	lower	zerothre.ttf
1774.472	n/a	WORD	887236	wordpools/wasnorm_wordpool_less_exclusions.txt	LTP242	ltpFR	18	11	0	KETTLE	772	n/a	n/a	0	0.422607421875	0.5869140625	0	lower	zerothre.ttf
1778.672	n/a	WORD	889336	wordpools/wasnorm_wordpool_less_exclusions.txt	LTP242	ltpFR	18	11	1	RIBBON	1189	n/a	n/a	2	0.57763671875	0.412841796875	1	upper	amplitud.ttf
1780.494	n/a	KEY_MSG	890247	n/a	LTP242	ltpFR	18	11	n/a	n/a	n/a	n/a	n/a	n/a	n/a	n/a	n/a	n/a	n/a
1782.988	n/a	WORD	891494	wordpools/wasnorm_wordpool_less_exclusions.txt	LTP242	ltpFR	18	11	1	ARROW	40	n/a	n/a	0	0.57763671875	0.412841796875	1	upper	amplitud.ttf
1787.204	n/a	WORD	893602	wordpools/wasnorm_wordpool_less_exclusions.txt	LTP242	ltpFR	18	11	0	DOORBELL	487	n/a	n/a	2	0.422607421875	0.5869140625	0	lower	zerothre.ttf
1789.196	n/a	KEY_MSG	894598	n/a	LTP242	ltpFR	18	11	n/a	n/a	n/a	n/a	n/a	n/a	n/a	n/a	n/a	n/a	n/a
1791.738	n/a	WORD	895869	wordpools/wasnorm_wordpool_less_exclusions.txt	LTP242	ltpFR	18	11	0	TUNNEL	1519	n/a	n/a	1	0.422607421875	0.5869140625	0	lower	zerothre.ttf
1795.67	n/a	WORD	897835	wordpools/wasnorm_wordpool_less_exclusions.txt	LTP242	ltpFR	18	11	0	DRILL	497	n/a	n/a	0	0.422607421875	0.5869140625	0	lower	zerothre.ttf
1799.864	n/a	WORD	899932	wordpools/wasnorm_wordpool_less_exclusions.txt	LTP242	ltpFR	18	11	1	OVEN	991	n/a	n/a	0	0.57763671875	0.412841796875	1	upper	amplitud.ttf
1803.946	n/a	WORD	901973	wordpools/wasnorm_wordpool_less_exclusions.txt	LTP242	ltpFR	18	11	1	GIRAFFE	636	n/a	n/a	1	0.57763671875	0.412841796875	1	upper	amplitud.ttf
1809.758	n/a	REC_START	904879	n/a	LTP242	ltpFR	18	11	n/a	n/a	n/a	n/a	n/a	n/a	n/a	n/a	n/a	n/a	n/a
1810.136	n/a	REC_WORD	905068	wordpools/wasnorm_wordpool_less_exclusions.txt	LTP242	ltpFR	18	11	1	ARROW	40	n/a	n/a	0	n/a	n/a	n/a	n/a	n/a
1810.582	n/a	REC_WORD	905291	wordpools/wasnorm_wordpool_less_exclusions.txt	LTP242	ltpFR	18	11	0	TUNNEL	1519	n/a	n/a	1	n/a	n/a	n/a	n/a	n/a
1811.07	n/a	REC_WORD	905535	wordpools/wasnorm_wordpool_less_exclusions.txt	LTP242	ltpFR	18	11	0	PASSAGE	1019	n/a	n/a	0	n/a	n/a	n/a	n/a	n/a
1811.578	n/a	REC_WORD	905789	wordpools/wasnorm_wordpool_less_exclusions.txt	LTP242	ltpFR	18	11	1	GIRAFFE	636	n/a	n/a	1	n/a	n/a	n/a	n/a	n/a
1813.294	n/a	REC_WORD	906647	wordpools/wasnorm_wordpool_less_exclusions.txt	LTP242	ltpFR	18	11	0	LEOPARD	812	n/a	n/a	1	n/a	n/a	n/a	n/a	n/a
1814.288	n/a	REC_WORD	907144	wordpools/wasnorm_wordpool_less_exclusions.txt	LTP242	ltpFR	18	11	1	APE	31	n/a	n/a	1	n/a	n/a	n/a	n/a	n/a
1814.87	n/a	REC_WORD	907435	wordpools/wasnorm_wordpool_less_exclusions.txt	LTP242	ltpFR	18	11	1	CROW	414	n/a	n/a	1	n/a	n/a	n/a	n/a	n/a
1815.456	n/a	REC_WORD	907728	wordpools/wasnorm_wordpool_less_exclusions.txt	LTP242	ltpFR	18	11	0	CANARY	227	n/a	n/a	0	n/a	n/a	n/a	n/a	n/a
1817.03	n/a	REC_WORD	908515	wordpools/wasnorm_wordpool_less_exclusions.txt	LTP242	ltpFR	18	11	0	SHOP	1290	n/a	n/a	0	n/a	n/a	n/a	n/a	n/a
1817.818	n/a	REC_WORD	908909	wordpools/wasnorm_wordpool_less_exclusions.txt	LTP242	ltpFR	18	11	1	MARKET	871	n/a	n/a	0	n/a	n/a	n/a	n/a	n/a
1818.892	n/a	REC_WORD	909446	wordpools/wasnorm_wordpool_less_exclusions.txt	LTP242	ltpFR	18	11	1	BANANA	77	n/a	n/a	0	n/a	n/a	n/a	n/a	n/a
1888.674	n/a	WORD	944337	wordpools/wasnorm_wordpool_less_exclusions.txt	LTP242	ltpFR	18	12	0	BOAT	144	n/a	n/a	0	0.422607421875	0.5869140625	0	lower	zerothre.ttf
1892.758	n/a	WORD	946379	wordpools/wasnorm_wordpool_less_exclusions.txt	LTP242	ltpFR	18	12	0	ATOM	55	n/a	n/a	0	0.422607421875	0.5869140625	0	lower	zerothre.ttf
1896.856	n/a	WORD	948428	wordpools/wasnorm_wordpool_less_exclusions.txt	LTP242	ltpFR	18	12	0	PERSONNEL	1053	n/a	n/a	1	0.422607421875	0.5869140625	0	lower	zerothre.ttf
1900.872	n/a	WORD	950436	wordpools/wasnorm_wordpool_less_exclusions.txt	LTP242	ltpFR	18	12	0	COMMUNITY	356	n/a	n/a	1	0.422607421875	0.5869140625	0	lower	zerothre.ttf
1905.088	n/a	WORD	952544	wordpools/wasnorm_wordpool_less_exclusions.txt	LTP242	ltpFR	18	12	0	SNEAKER	1334	n/a	n/a	0	0.422607421875	0.5869140625	0	lower	zerothre.ttf
1909.184	n/a	WORD	954592	wordpools/wasnorm_wordpool_less_exclusions.txt	LTP242	ltpFR	18	12	0	NUCLEUS	961	n/a	n/a	0	0.422607421875	0.5869140625	0	lower	zerothre.ttf
1913.352	n/a	WORD	956676	wordpools/wasnorm_wordpool_less_exclusions.txt	LTP242	ltpFR	18	12	0	BEET	115	n/a	n/a	0	0.422607421875	0.5869140625	0	lower	zerothre.ttf
1917.386	n/a	WORD	958693	wordpools/wasnorm_wordpool_less_exclusions.txt	LTP242	ltpFR	18	12	0	ORCHESTRA	981	n/a	n/a	1	0.422607421875	0.5869140625	0	lower	zerothre.ttf
1921.548	n/a	WORD	960774	wordpools/wasnorm_wordpool_less_exclusions.txt	LTP242	ltpFR	18	12	0	PIANO	1057	n/a	n/a	1	0.422607421875	0.5869140625	0	lower	zerothre.ttf
1925.55	n/a	WORD	962775	wordpools/wasnorm_wordpool_less_exclusions.txt	LTP242	ltpFR	18	12	0	BOMB	147	n/a	n/a	0	0.422607421875	0.5869140625	0	lower	zerothre.ttf
1929.766	n/a	WORD	964883	wordpools/wasnorm_wordpool_less_exclusions.txt	LTP242	ltpFR	18	12	0	SHOELACE	1289	n/a	n/a	0	0.422607421875	0.5869140625	0	lower	zerothre.ttf
1933.764	n/a	WORD	966882	wordpools/wasnorm_wordpool_less_exclusions.txt	LTP242	ltpFR	18	12	0	SANDPAPER	1231	n/a	n/a	0	0.422607421875	0.5869140625	0	lower	zerothre.ttf
1937.946	n/a	WORD	968973	wordpools/wasnorm_wordpool_less_exclusions.txt	LTP242	ltpFR	18	12	0	RIB	1188	n/a	n/a	0	0.422607421875	0.5869140625	0	lower	zerothre.ttf
1941.996	n/a	WORD	970998	wordpools/wasnorm_wordpool_less_exclusions.txt	LTP242	ltpFR	18	12	0	RAFT	1159	n/a	n/a	0	0.422607421875	0.5869140625	0	lower	zerothre.ttf
1946.126	n/a	WORD	973063	wordpools/wasnorm_wordpool_less_exclusions.txt	LTP242	ltpFR	18	12	0	TORTOISE	1486	n/a	n/a	1	0.422607421875	0.5869140625	0	lower	zerothre.ttf
1950.174	n/a	WORD	975087	wordpools/wasnorm_wordpool_less_exclusions.txt	LTP242	ltpFR	18	12	0	BEAVER	109	n/a	n/a	1	0.422607421875	0.5869140625	0	lower	zerothre.ttf
1956.084	n/a	REC_START	978042	n/a	LTP242	ltpFR	18	12	n/a	n/a	n/a	n/a	n/a	n/a	n/a	n/a	n/a	n/a	n/a
1956.528	n/a	REC_WORD	978264	wordpools/wasnorm_wordpool_less_exclusions.txt	LTP242	ltpFR	18	12	0	BEAVER	109	n/a	n/a	1	n/a	n/a	n/a	n/a	n/a
1956.958	n/a	REC_WORD	978479	wordpools/wasnorm_wordpool_less_exclusions.txt	LTP242	ltpFR	18	12	0	SHOELACE	1289	n/a	n/a	0	n/a	n/a	n/a	n/a	n/a
1959.9	n/a	REC_WORD	979950	wordpools/wasnorm_wordpool_less_exclusions.txt	LTP242	ltpFR	18	12	0	BOAT	144	n/a	n/a	0	n/a	n/a	n/a	n/a	n/a
1960.274	n/a	REC_WORD	980137	wordpools/wasnorm_wordpool_less_exclusions.txt	LTP242	ltpFR	18	12	0	PERSONNEL	1053	n/a	n/a	1	n/a	n/a	n/a	n/a	n/a
1964.296	n/a	REC_WORD	982148	wordpools/wasnorm_wordpool_less_exclusions.txt	LTP242	ltpFR	18	12	0	ORCHESTRA	981	n/a	n/a	1	n/a	n/a	n/a	n/a	n/a
1964.908	n/a	REC_WORD	982454	wordpools/wasnorm_wordpool_less_exclusions.txt	LTP242	ltpFR	18	12	0	PIANO	1057	n/a	n/a	1	n/a	n/a	n/a	n/a	n/a
2013.854	n/a	REC_WORD	1006927	wordpools/wasnorm_wordpool_less_exclusions.txt	LTP242	ltpFR	18	12	0	RAFT	1159	n/a	n/a	0	n/a	n/a	n/a	n/a	n/a
2031.752	n/a	REST_REWET	1015876	n/a	LTP242	ltpFR	18	12	n/a	n/a	n/a	n/a	n/a	n/a	n/a	n/a	n/a	n/a	n/a
2362.168	n/a	WORD	1181084	wordpools/wasnorm_wordpool_less_exclusions.txt	LTP242	ltpFR	18	13	-1	WAND	1586	n/a	n/a	-1	1.0	1.0	1	upper	Verdana.ttf
2366.364	n/a	WORD	1183182	wordpools/wasnorm_wordpool_less_exclusions.txt	LTP242	ltpFR	18	13	-1	PUDDING	1139	n/a	n/a	-1	1.0	1.0	1	upper	Verdana.ttf
2370.35	n/a	WORD	1185175	wordpools/wasnorm_wordpool_less_exclusions.txt	LTP242	ltpFR	18	13	-1	TUB	1514	n/a	n/a	-1	1.0	1.0	1	upper	Verdana.ttf
2374.516	n/a	WORD	1187258	wordpools/wasnorm_wordpool_less_exclusions.txt	LTP242	ltpFR	18	13	-1	PLUMBER	1091	n/a	n/a	-1	1.0	1.0	1	upper	Verdana.ttf
2378.514	n/a	WORD	1189257	wordpools/wasnorm_wordpool_less_exclusions.txt	LTP242	ltpFR	18	13	-1	WRIST	1626	n/a	n/a	-1	1.0	1.0	1	upper	Verdana.ttf
2382.578	n/a	WORD	1191289	wordpools/wasnorm_wordpool_less_exclusions.txt	LTP242	ltpFR	18	13	-1	SHOE	1288	n/a	n/a	-1	1.0	1.0	1	upper	Verdana.ttf
2386.594	n/a	WORD	1193297	wordpools/wasnorm_wordpool_less_exclusions.txt	LTP242	ltpFR	18	13	-1	WAREHOUSE	1588	n/a	n/a	-1	1.0	1.0	1	upper	Verdana.ttf
2390.728	n/a	WORD	1195364	wordpools/wasnorm_wordpool_less_exclusions.txt	LTP242	ltpFR	18	13	-1	SHEPHERD	1283	n/a	n/a	-1	1.0	1.0	1	upper	Verdana.ttf
2394.76	n/a	WORD	1197380	wordpools/wasnorm_wordpool_less_exclusions.txt	LTP242	ltpFR	18	13	-1	GOAT	644	n/a	n/a	-1	1.0	1.0	1	upper	Verdana.ttf
2398.874	n/a	WORD	1199437	wordpools/wasnorm_wordpool_less_exclusions.txt	LTP242	ltpFR	18	13	-1	MINT	898	n/a	n/a	-1	1.0	1.0	1	upper	Verdana.ttf
2402.718	n/a	WORD	1201359	wordpools/wasnorm_wordpool_less_exclusions.txt	LTP242	ltpFR	18	13	-1	PAIL	1002	n/a	n/a	-1	1.0	1.0	1	upper	Verdana.ttf
2406.856	n/a	WORD	1203428	wordpools/wasnorm_wordpool_less_exclusions.txt	LTP242	ltpFR	18	13	-1	CORAL	378	n/a	n/a	-1	1.0	1.0	1	upper	Verdana.ttf
2411.022	n/a	WORD	1205511	wordpools/wasnorm_wordpool_less_exclusions.txt	LTP242	ltpFR	18	13	-1	ARM	38	n/a	n/a	-1	1.0	1.0	1	upper	Verdana.ttf
2415.07	n/a	WORD	1207535	wordpools/wasnorm_wordpool_less_exclusions.txt	LTP242	ltpFR	18	13	-1	FINGERNAIL	568	n/a	n/a	-1	1.0	1.0	1	upper	Verdana.ttf
2419.252	n/a	WORD	1209626	wordpools/wasnorm_wordpool_less_exclusions.txt	LTP242	ltpFR	18	13	-1	SKIN	1318	n/a	n/a	-1	1.0	1.0	1	upper	Verdana.ttf
2423.08	n/a	WORD	1211540	wordpools/wasnorm_wordpool_less_exclusions.txt	LTP242	ltpFR	18	13	-1	ICING	732	n/a	n/a	-1	1.0	1.0	1	upper	Verdana.ttf
2428.974	n/a	REC_START	1214487	n/a	LTP242	ltpFR	18	13	n/a	n/a	n/a	n/a	n/a	n/a	n/a	n/a	n/a	n/a	n/a
2429.194	n/a	REC_WORD	1214597	wordpools/wasnorm_wordpool_less_exclusions.txt	LTP242	ltpFR	18	13	-1	WAREHOUSE	1588	n/a	n/a	-1	n/a	n/a	n/a	n/a	n/a
2430.194	n/a	REC_WORD_VV	1215097	wordpools/wasnorm_wordpool_less_exclusions.txt	LTP242	ltpFR	18	13	n/a	<>	-1	n/a	n/a	n/a	n/a	n/a	n/a	n/a	n/a
2430.766	n/a	REC_WORD	1215383	wordpools/wasnorm_wordpool_less_exclusions.txt	LTP242	ltpFR	18	13	-1	SHEPHERD	1283	n/a	n/a	-1	n/a	n/a	n/a	n/a	n/a
2431.474	n/a	REC_WORD_VV	1215737	wordpools/wasnorm_wordpool_less_exclusions.txt	LTP242	ltpFR	18	13	n/a	<>	-1	n/a	n/a	n/a	n/a	n/a	n/a	n/a	n/a
2432.92	n/a	REC_WORD	1216460	wordpools/wasnorm_wordpool_less_exclusions.txt	LTP242	ltpFR	18	13	-1	GOAT	644	n/a	n/a	-1	n/a	n/a	n/a	n/a	n/a
2434.192	n/a	REC_WORD	1217096	wordpools/wasnorm_wordpool_less_exclusions.txt	LTP242	ltpFR	18	13	-1	ICING	732	n/a	n/a	-1	n/a	n/a	n/a	n/a	n/a
2444.098	n/a	REC_WORD	1222049	wordpools/wasnorm_wordpool_less_exclusions.txt	LTP242	ltpFR	18	13	-1	PLUMBER	1091	n/a	n/a	-1	n/a	n/a	n/a	n/a	n/a
2444.794	n/a	REC_WORD	1222397	wordpools/wasnorm_wordpool_less_exclusions.txt	LTP242	ltpFR	18	13	-1	TUB	1514	n/a	n/a	-1	n/a	n/a	n/a	n/a	n/a
2507.272	n/a	WORD	1253636	wordpools/wasnorm_wordpool_less_exclusions.txt	LTP242	ltpFR	18	14	-1	DAM	436	n/a	n/a	-1	1.0	1.0	1	upper	Verdana.ttf
2511.472	n/a	WORD	1255736	wordpools/wasnorm_wordpool_less_exclusions.txt	LTP242	ltpFR	18	14	-1	DISHWASHER	475	n/a	n/a	-1	1.0	1.0	1	upper	Verdana.ttf
2515.454	n/a	WORD	1257727	wordpools/wasnorm_wordpool_less_exclusions.txt	LTP242	ltpFR	18	14	-1	LIST	830	n/a	n/a	-1	1.0	1.0	1	upper	Verdana.ttf
2519.62	n/a	WORD	1259810	wordpools/wasnorm_wordpool_less_exclusions.txt	LTP242	ltpFR	18	14	-1	CONSOLE	364	n/a	n/a	-1	1.0	1.0	1	upper	Verdana.ttf
2523.632	n/a	WORD	1261816	wordpools/wasnorm_wordpool_less_exclusions.txt	LTP242	ltpFR	18	14	-1	MUG	930	n/a	n/a	-1	1.0	1.0	1	upper	Verdana.ttf
2527.634	n/a	WORD	1263817	wordpools/wasnorm_wordpool_less_exclusions.txt	LTP242	ltpFR	18	14	-1	WICK	1607	n/a	n/a	-1	1.0	1.0	1	upper	Verdana.ttf
2531.732	n/a	WORD	1265866	wordpools/wasnorm_wordpool_less_exclusions.txt	LTP242	ltpFR	18	14	-1	TORCH	1484	n/a	n/a	-1	1.0	1.0	1	upper	Verdana.ttf
2535.866	n/a	WORD	1267933	wordpools/wasnorm_wordpool_less_exclusions.txt	LTP242	ltpFR	18	14	-1	BATTERY	101	n/a	n/a	-1	1.0	1.0	1	upper	Verdana.ttf
2539.964	n/a	WORD	1269982	wordpools/wasnorm_wordpool_less_exclusions.txt	LTP242	ltpFR	18	14	-1	SENATE	1267	n/a	n/a	-1	1.0	1.0	1	upper	Verdana.ttf
2543.828	n/a	WORD	1271914	wordpools/wasnorm_wordpool_less_exclusions.txt	LTP242	ltpFR	18	14	-1	BUREAU	199	n/a	n/a	-1	1.0	1.0	1	upper	Verdana.ttf
2547.828	n/a	WORD	1273914	wordpools/wasnorm_wordpool_less_exclusions.txt	LTP242	ltpFR	18	14	-1	APPLICATION	34	n/a	n/a	-1	1.0	1.0	1	upper	Verdana.ttf
2552.01	n/a	WORD	1276005	wordpools/wasnorm_wordpool_less_exclusions.txt	LTP242	ltpFR	18	14	-1	PAW	1029	n/a	n/a	-1	1.0	1.0	1	upper	Verdana.ttf
2555.942	n/a	WORD	1277971	wordpools/wasnorm_wordpool_less_exclusions.txt	LTP242	ltpFR	18	14	-1	CUP	424	n/a	n/a	-1	1.0	1.0	1	upper	Verdana.ttf
2560.124	n/a	WORD	1280062	wordpools/wasnorm_wordpool_less_exclusions.txt	LTP242	ltpFR	18	14	-1	SLIDE	1326	n/a	n/a	-1	1.0	1.0	1	upper	Verdana.ttf
2564.256	n/a	WORD	1282128	wordpools/wasnorm_wordpool_less_exclusions.txt	LTP242	ltpFR	18	14	-1	HAND	683	n/a	n/a	-1	1.0	1.0	1	upper	Verdana.ttf
2568.222	n/a	WORD	1284111	wordpools/wasnorm_wordpool_less_exclusions.txt	LTP242	ltpFR	18	14	-1	FUR	615	n/a	n/a	-1	1.0	1.0	1	upper	Verdana.ttf
2573.928	n/a	REC_START	1286964	n/a	LTP242	ltpFR	18	14	n/a	n/a	n/a	n/a	n/a	n/a	n/a	n/a	n/a	n/a	n/a
2574.716	n/a	REC_WORD	1287358	wordpools/wasnorm_wordpool_less_exclusions.txt	LTP242	ltpFR	18	14	-1	CONSOLE	364	n/a	n/a	-1	n/a	n/a	n/a	n/a	n/a
2575.358	n/a	REC_WORD	1287679	wordpools/wasnorm_wordpool_less_exclusions.txt	LTP242	ltpFR	18	14	-1	WICK	1607	n/a	n/a	-1	n/a	n/a	n/a	n/a	n/a
2575.708	n/a	REC_WORD	1287854	wordpools/wasnorm_wordpool_less_exclusions.txt	LTP242	ltpFR	18	14	-1	TORCH	1484	n/a	n/a	-1	n/a	n/a	n/a	n/a	n/a
2576.412	n/a	REC_WORD	1288206	wordpools/wasnorm_wordpool_less_exclusions.txt	LTP242	ltpFR	18	14	-1	CUP	424	n/a	n/a	-1	n/a	n/a	n/a	n/a	n/a
2578.084	n/a	REC_WORD	1289042	wordpools/wasnorm_wordpool_less_exclusions.txt	LTP242	ltpFR	18	14	n/a	HANDLE	-1	n/a	n/a	n/a	n/a	n/a	n/a	n/a	n/a
2652.226	n/a	WORD	1326113	wordpools/wasnorm_wordpool_less_exclusions.txt	LTP242	ltpFR	18	15	1	WAVE	1596	n/a	n/a	0	0.57763671875	0.412841796875	1	upper	amplitud.ttf
2656.292	n/a	WORD	1328146	wordpools/wasnorm_wordpool_less_exclusions.txt	LTP242	ltpFR	18	15	1	FOX	598	n/a	n/a	1	0.57763671875	0.412841796875	1	upper	amplitud.ttf
2660.336	n/a	WORD	1330168	wordpools/wasnorm_wordpool_less_exclusions.txt	LTP242	ltpFR	18	15	1	LION	827	n/a	n/a	1	0.57763671875	0.412841796875	1	upper	amplitud.ttf
2664.372	n/a	WORD	1332186	wordpools/wasnorm_wordpool_less_exclusions.txt	LTP242	ltpFR	18	15	1	CRAB	397	n/a	n/a	1	0.57763671875	0.412841796875	1	upper	amplitud.ttf
2668.522	n/a	WORD	1334261	wordpools/wasnorm_wordpool_less_exclusions.txt	LTP242	ltpFR	18	15	1	LOBSTER	837	n/a	n/a	1	0.57763671875	0.412841796875	1	upper	amplitud.ttf
2672.438	n/a	WORD	1336219	wordpools/wasnorm_wordpool_less_exclusions.txt	LTP242	ltpFR	18	15	1	PALACE	1006	n/a	n/a	0	0.57763671875	0.412841796875	1	upper	amplitud.ttf
2676.336	n/a	WORD	1338168	wordpools/wasnorm_wordpool_less_exclusions.txt	LTP242	ltpFR	18	15	0	LAPEL	800	n/a	n/a	2	0.422607421875	0.5869140625	0	lower	zerothre.ttf
2677.69	n/a	KEY_MSG	1338845	n/a	LTP242	ltpFR	18	15	n/a	n/a	n/a	n/a	n/a	n/a	n/a	n/a	n/a	n/a	n/a
2680.4	n/a	WORD	1340200	wordpools/wasnorm_wordpool_less_exclusions.txt	LTP242	ltpFR	18	15	0	FLOWER	584	n/a	n/a	0	0.422607421875	0.5869140625	0	lower	zerothre.ttf
2684.566	n/a	WORD	1342283	wordpools/wasnorm_wordpool_less_exclusions.txt	LTP242	ltpFR	18	15	0	RAKE	1164	n/a	n/a	0	0.422607421875	0.5869140625	0	lower	zerothre.ttf
2688.416	n/a	WORD	1344208	wordpools/wasnorm_wordpool_less_exclusions.txt	LTP242	ltpFR	18	15	1	VALVE	1546	n/a	n/a	2	0.57763671875	0.412841796875	1	upper	amplitud.ttf
2690.958	n/a	KEY_MSG	1345479	n/a	LTP242	ltpFR	18	15	n/a	n/a	n/a	n/a	n/a	n/a	n/a	n/a	n/a	n/a	n/a
2693.53	n/a	WORD	1346765	wordpools/wasnorm_wordpool_less_exclusions.txt	LTP242	ltpFR	18	15	1	TREAD	1499	n/a	n/a	0	0.57763671875	0.412841796875	1	upper	amplitud.ttf
2697.428	n/a	WORD	1348714	wordpools/wasnorm_wordpool_less_exclusions.txt	LTP242	ltpFR	18	15	0	SHIRT	1287	n/a	n/a	1	0.422607421875	0.5869140625	0	lower	zerothre.ttf
2701.314	n/a	WORD	1350657	wordpools/wasnorm_wordpool_less_exclusions.txt	LTP242	ltpFR	18	15	0	SANDWICH	1232	n/a	n/a	0	0.422607421875	0.5869140625	0	lower	zerothre.ttf
2705.414	n/a	WORD	1352707	wordpools/wasnorm_wordpool_less_exclusions.txt	LTP242	ltpFR	18	15	0	GROCERIES	663	n/a	n/a	1	0.422607421875	0.5869140625	0	lower	zerothre.ttf
2709.528	n/a	WORD	1354764	wordpools/wasnorm_wordpool_less_exclusions.txt	LTP242	ltpFR	18	15	0	WATERFALL	1595	n/a	n/a	1	0.422607421875	0.5869140625	0	lower	zerothre.ttf
2713.628	n/a	WORD	1356814	wordpools/wasnorm_wordpool_less_exclusions.txt	LTP242	ltpFR	18	15	0	PUB	1135	n/a	n/a	0	0.422607421875	0.5869140625	0	lower	zerothre.ttf
2719.584	n/a	REC_START	1359792	n/a	LTP242	ltpFR	18	15	n/a	n/a	n/a	n/a	n/a	n/a	n/a	n/a	n/a	n/a	n/a
2719.894	n/a	REC_WORD	1359947	wordpools/wasnorm_wordpool_less_exclusions.txt	LTP242	ltpFR	18	15	0	SANDWICH	1232	n/a	n/a	0	n/a	n/a	n/a	n/a	n/a
2720.512	n/a	REC_WORD	1360256	wordpools/wasnorm_wordpool_less_exclusions.txt	LTP242	ltpFR	18	15	0	GROCERIES	663	n/a	n/a	1	n/a	n/a	n/a	n/a	n/a
2721.172	n/a	REC_WORD	1360586	wordpools/wasnorm_wordpool_less_exclusions.txt	LTP242	ltpFR	18	15	0	PUB	1135	n/a	n/a	0	n/a	n/a	n/a	n/a	n/a
2721.49	n/a	REC_WORD	1360745	wordpools/wasnorm_wordpool_less_exclusions.txt	LTP242	ltpFR	18	15	0	WATERFALL	1595	n/a	n/a	1	n/a	n/a	n/a	n/a	n/a
2723.002	n/a	REC_WORD	1361501	wordpools/wasnorm_wordpool_less_exclusions.txt	LTP242	ltpFR	18	15	1	WAVE	1596	n/a	n/a	0	n/a	n/a	n/a	n/a	n/a
2725.444	n/a	REC_WORD	1362722	wordpools/wasnorm_wordpool_less_exclusions.txt	LTP242	ltpFR	18	15	1	FOX	598	n/a	n/a	1	n/a	n/a	n/a	n/a	n/a
2726.038	n/a	REC_WORD	1363019	wordpools/wasnorm_wordpool_less_exclusions.txt	LTP242	ltpFR	18	15	1	LION	827	n/a	n/a	1	n/a	n/a	n/a	n/a	n/a
2728.166	n/a	REC_WORD	1364083	wordpools/wasnorm_wordpool_less_exclusions.txt	LTP242	ltpFR	18	15	1	LOBSTER	837	n/a	n/a	1	n/a	n/a	n/a	n/a	n/a
2728.784	n/a	REC_WORD	1364392	wordpools/wasnorm_wordpool_less_exclusions.txt	LTP242	ltpFR	18	15	1	CRAB	397	n/a	n/a	1	n/a	n/a	n/a	n/a	n/a
2797.632	n/a	WORD	1398816	wordpools/wasnorm_wordpool_less_exclusions.txt	LTP242	ltpFR	18	16	1	BREAST	171	n/a	n/a	0	0.57763671875	0.412841796875	1	upper	amplitud.ttf
2801.632	n/a	WORD	1400816	wordpools/wasnorm_wordpool_less_exclusions.txt	LTP242	ltpFR	18	16	1	STEAM	1375	n/a	n/a	0	0.57763671875	0.412841796875	1	upper	amplitud.ttf
2805.58	n/a	WORD	1402790	wordpools/wasnorm_wordpool_less_exclusions.txt	LTP242	ltpFR	18	16	1	CELLO	268	n/a	n/a	0	0.57763671875	0.412841796875	1	upper	amplitud.ttf
2809.56	n/a	WORD	1404780	wordpools/wasnorm_wordpool_less_exclusions.txt	LTP242	ltpFR	18	16	1	FLIPPER	580	n/a	n/a	0	0.57763671875	0.412841796875	1	upper	amplitud.ttf
2813.656	n/a	WORD	1406828	wordpools/wasnorm_wordpool_less_exclusions.txt	LTP242	ltpFR	18	16	1	RAISIN	1163	n/a	n/a	0	0.57763671875	0.412841796875	1	upper	amplitud.ttf
2817.81	n/a	WORD	1408905	wordpools/wasnorm_wordpool_less_exclusions.txt	LTP242	ltpFR	18	16	1	SWAMP	1416	n/a	n/a	0	0.57763671875	0.412841796875	1	upper	amplitud.ttf
2821.824	n/a	WORD	1410912	wordpools/wasnorm_wordpool_less_exclusions.txt	LTP242	ltpFR	18	16	1	DIVER	476	n/a	n/a	1	0.57763671875	0.412841796875	1	upper	amplitud.ttf
2825.954	n/a	WORD	1412977	wordpools/wasnorm_wordpool_less_exclusions.txt	LTP242	ltpFR	18	16	1	ANCHOR	21	n/a	n/a	1	0.57763671875	0.412841796875	1	upper	amplitud.ttf
2829.804	n/a	WORD	1414902	wordpools/wasnorm_wordpool_less_exclusions.txt	LTP242	ltpFR	18	16	1	PLUM	1090	n/a	n/a	0	0.57763671875	0.412841796875	1	upper	amplitud.ttf
2833.87	n/a	WORD	1416935	wordpools/wasnorm_wordpool_less_exclusions.txt	LTP242	ltpFR	18	16	1	DEPUTY	450	n/a	n/a	1	0.57763671875	0.412841796875	1	upper	amplitud.ttf
2837.986	n/a	WORD	1418993	wordpools/wasnorm_wordpool_less_exclusions.txt	LTP242	ltpFR	18	16	1	ELEPHANT	523	n/a	n/a	1	0.57763671875	0.412841796875	1	upper	amplitud.ttf
2842.068	n/a	WORD	1421034	wordpools/wasnorm_wordpool_less_exclusions.txt	LTP242	ltpFR	18	16	1	HAY	693	n/a	n/a	0	0.57763671875	0.412841796875	1	upper	amplitud.ttf
2845.966	n/a	WORD	1422983	wordpools/wasnorm_wordpool_less_exclusions.txt	LTP242	ltpFR	18	16	1	UNICORN	1538	n/a	n/a	1	0.57763671875	0.412841796875	1	upper	amplitud.ttf
2849.948	n/a	WORD	1424974	wordpools/wasnorm_wordpool_less_exclusions.txt	LTP242	ltpFR	18	16	1	BUN	197	n/a	n/a	0	0.57763671875	0.412841796875	1	upper	amplitud.ttf
2854.098	n/a	WORD	1427049	wordpools/wasnorm_wordpool_less_exclusions.txt	LTP242	ltpFR	18	16	1	CHEF	290	n/a	n/a	1	0.57763671875	0.412841796875	1	upper	amplitud.ttf
2858.164	n/a	WORD	1429082	wordpools/wasnorm_wordpool_less_exclusions.txt	LTP242	ltpFR	18	16	1	HARP	689	n/a	n/a	0	0.57763671875	0.412841796875	1	upper	amplitud.ttf
2863.866	n/a	REC_START	1431933	n/a	LTP242	ltpFR	18	16	n/a	n/a	n/a	n/a	n/a	n/a	n/a	n/a	n/a	n/a	n/a
2864.36	n/a	REC_WORD	1432180	wordpools/wasnorm_wordpool_less_exclusions.txt	LTP242	ltpFR	18	16	1	DIVER	476	n/a	n/a	1	n/a	n/a	n/a	n/a	n/a
2865.152	n/a	REC_WORD	1432576	wordpools/wasnorm_wordpool_less_exclusions.txt	LTP242	ltpFR	18	16	1	SWAMP	1416	n/a	n/a	0	n/a	n/a	n/a	n/a	n/a
2866.374	n/a	REC_WORD	1433187	wordpools/wasnorm_wordpool_less_exclusions.txt	LTP242	ltpFR	18	16	1	CHEF	290	n/a	n/a	1	n/a	n/a	n/a	n/a	n/a
2867.82	n/a	REC_WORD	1433910	wordpools/wasnorm_wordpool_less_exclusions.txt	LTP242	ltpFR	18	16	1	HARP	689	n/a	n/a	0	n/a	n/a	n/a	n/a	n/a
2961.944	n/a	REC_START	1480972	n/a	LTP242	ltpFR	18	1	n/a	n/a	n/a	n/a	n/a	n/a	n/a	n/a	n/a	n/a	n/a
2961.994	n/a	RECOG_TARGET	1480997	n/a	LTP242	ltpFR	18	1	0	MAILMAN	858	1	4	1	n/a	n/a	n/a	n/a	n/a
2963.346	n/a	RECOG_RESP	1481673	n/a	LTP242	ltpFR	18	1	0	MAILMAN	858	1	n/a	1	n/a	n/a	n/a	n/a	n/a
2963.902	n/a	RECOG_CONF	1481951	n/a	LTP242	ltpFR	18	1	0	MAILMAN	858	n/a	4	1	n/a	n/a	n/a	n/a	n/a
2965.574	n/a	RECOG_TARGET	1482787	n/a	LTP242	ltpFR	18	1	1	DEPUTY	450	1	5	1	n/a	n/a	n/a	n/a	n/a
2966.496	n/a	RECOG_RESP	1483248	n/a	LTP242	ltpFR	18	1	1	DEPUTY	450	1	n/a	1	n/a	n/a	n/a	n/a	n/a
2967.038	n/a	RECOG_CONF	1483519	n/a	LTP242	ltpFR	18	1	1	DEPUTY	450	n/a	5	1	n/a	n/a	n/a	n/a	n/a
2968.57	n/a	RECOG_LURE	1484285	n/a	LTP242	ltpFR	18	1	n/a	MARINE	869	0	3	n/a	n/a	n/a	n/a	n/a	n/a
2970.066	n/a	RECOG_RESP	1485033	n/a	LTP242	ltpFR	18	1	n/a	MARINE	869	0	n/a	n/a	n/a	n/a	n/a	n/a	n/a
2970.7	n/a	RECOG_CONF	1485350	n/a	LTP242	ltpFR	18	1	n/a	MARINE	869	n/a	3	n/a	n/a	n/a	n/a	n/a	n/a
2972.266	n/a	RECOG_LURE	1486133	n/a	LTP242	ltpFR	18	1	n/a	COFFIN	342	0	4	n/a	n/a	n/a	n/a	n/a	n/a
2973.158	n/a	RECOG_RESP	1486579	n/a	LTP242	ltpFR	18	1	n/a	COFFIN	342	0	n/a	n/a	n/a	n/a	n/a	n/a	n/a
2973.494	n/a	RECOG_CONF	1486747	n/a	LTP242	ltpFR	18	1	n/a	COFFIN	342	n/a	4	n/a	n/a	n/a	n/a	n/a	n/a
2975.124	n/a	RECOG_TARGET	1487562	n/a	LTP242	ltpFR	18	1	1	FLIPPER	580	1	4	0	n/a	n/a	n/a	n/a	n/a
2975.726	n/a	RECOG_RESP	1487863	n/a	LTP242	ltpFR	18	1	1	FLIPPER	580	1	n/a	0	n/a	n/a	n/a	n/a	n/a
2976.302	n/a	RECOG_CONF	1488151	n/a	LTP242	ltpFR	18	1	1	FLIPPER	580	n/a	4	0	n/a	n/a	n/a	n/a	n/a
2977.67	n/a	RECOG_TARGET	1488835	n/a	LTP242	ltpFR	18	1	0	SWATTER	1418	1	4	0	n/a	n/a	n/a	n/a	n/a
2978.592	n/a	RECOG_RESP	1489296	n/a	LTP242	ltpFR	18	1	0	SWATTER	1418	1	n/a	0	n/a	n/a	n/a	n/a	n/a
2979.162	n/a	RECOG_CONF	1489581	n/a	LTP242	ltpFR	18	1	0	SWATTER	1418	n/a	4	0	n/a	n/a	n/a	n/a	n/a
2980.632	n/a	RECOG_TARGET	1490316	n/a	LTP242	ltpFR	18	1	1	COMMANDER	354	1	3	1	n/a	n/a	n/a	n/a	n/a
2981.456	n/a	RECOG_RESP	1490728	n/a	LTP242	ltpFR	18	1	1	COMMANDER	354	1	n/a	1	n/a	n/a	n/a	n/a	n/a
2981.864	n/a	RECOG_CONF	1490932	n/a	LTP242	ltpFR	18	1	1	COMMANDER	354	n/a	3	1	n/a	n/a	n/a	n/a	n/a
2983.476	n/a	RECOG_TARGET	1491738	n/a	LTP242	ltpFR	18	1	0	ORCHESTRA	981	1	4	1	n/a	n/a	n/a	n/a	n/a
2984.144	n/a	RECOG_RESP	1492072	n/a	LTP242	ltpFR	18	1	0	ORCHESTRA	981	1	n/a	1	n/a	n/a	n/a	n/a	n/a
2984.624	n/a	RECOG_CONF	1492312	n/a	LTP242	ltpFR	18	1	0	ORCHESTRA	981	n/a	4	1	n/a	n/a	n/a	n/a	n/a
2986.082	n/a	RECOG_LURE	1493041	n/a	LTP242	ltpFR	18	1	n/a	INMATE	738	0	4	n/a	n/a	n/a	n/a	n/a	n/a
2986.752	n/a	RECOG_RESP	1493376	n/a	LTP242	ltpFR	18	1	n/a	INMATE	738	0	n/a	n/a	n/a	n/a	n/a	n/a	n/a
2987.214	n/a	RECOG_CONF	1493607	n/a	LTP242	ltpFR	18	1	n/a	INMATE	738	n/a	4	n/a	n/a	n/a	n/a	n/a	n/a
2988.646	n/a	RECOG_TARGET	1494323	n/a	LTP242	ltpFR	18	1	0	DILL	465	1	4	0	n/a	n/a	n/a	n/a	n/a
2989.29	n/a	RECOG_RESP	1494645	n/a	LTP242	ltpFR	18	1	0	DILL	465	1	n/a	0	n/a	n/a	n/a	n/a	n/a
2989.738	n/a	RECOG_CONF	1494869	n/a	LTP242	ltpFR	18	1	0	DILL	465	n/a	4	0	n/a	n/a	n/a	n/a	n/a
2991.236	n/a	RECOG_TARGET	1495618	n/a	LTP242	ltpFR	18	1	0	BEAVER	109	1	5	1	n/a	n/a	n/a	n/a	n/a
2991.818	n/a	RECOG_RESP	1495909	n/a	LTP242	ltpFR	18	1	0	BEAVER	109	1	n/a	1	n/a	n/a	n/a	n/a	n/a
2992.326	n/a	RECOG_CONF	1496163	n/a	LTP242	ltpFR	18	1	0	BEAVER	109	n/a	5	1	n/a	n/a	n/a	n/a	n/a
2994.082	n/a	RECOG_LURE	1497041	n/a	LTP242	ltpFR	18	1	n/a	HELMET	702	0	4	n/a	n/a	n/a	n/a	n/a	n/a
2994.852	n/a	RECOG_RESP	1497426	n/a	LTP242	ltpFR	18	1	n/a	HELMET	702	0	n/a	n/a	n/a	n/a	n/a	n/a	n/a
2995.326	n/a	RECOG_CONF	1497663	n/a	LTP242	ltpFR	18	1	n/a	HELMET	702	n/a	4	n/a	n/a	n/a	n/a	n/a	n/a
2996.894	n/a	RECOG_LURE	1498447	n/a	LTP242	ltpFR	18	1	n/a	FELLOW	558	0	3	n/a	n/a	n/a	n/a	n/a	n/a
2997.604	n/a	RECOG_RESP	1498802	n/a	LTP242	ltpFR	18	1	n/a	FELLOW	558	0	n/a	n/a	n/a	n/a	n/a	n/a	n/a
2997.994	n/a	RECOG_CONF	1498997	n/a	LTP242	ltpFR	18	1	n/a	FELLOW	558	n/a	3	n/a	n/a	n/a	n/a	n/a	n/a
2999.454	n/a	RECOG_TARGET	1499727	n/a	LTP242	ltpFR	18	1	-1	PAIL	1002	1	4	-1	n/a	n/a	n/a	n/a	n/a
3000.142	n/a	RECOG_RESP	1500071	n/a	LTP242	ltpFR	18	1	-1	PAIL	1002	1	n/a	-1	n/a	n/a	n/a	n/a	n/a
3000.998	n/a	RECOG_CONF	1500499	n/a	LTP242	ltpFR	18	1	-1	PAIL	1002	n/a	4	-1	n/a	n/a	n/a	n/a	n/a
3002.578	n/a	RECOG_TARGET	1501289	n/a	LTP242	ltpFR	18	1	0	VAMPIRE	1547	1	5	1	n/a	n/a	n/a	n/a	n/a
3003.16	n/a	RECOG_RESP	1501580	n/a	LTP242	ltpFR	18	1	0	VAMPIRE	1547	1	n/a	1	n/a	n/a	n/a	n/a	n/a
3003.606	n/a	RECOG_CONF	1501803	n/a	LTP242	ltpFR	18	1	0	VAMPIRE	1547	n/a	5	1	n/a	n/a	n/a	n/a	n/a
3005.008	n/a	RECOG_TARGET	1502504	n/a	LTP242	ltpFR	18	1	1	WASP	1593	1	4	1	n/a	n/a	n/a	n/a	n/a
3005.684	n/a	RECOG_RESP	1502842	n/a	LTP242	ltpFR	18	1	1	WASP	1593	1	n/a	1	n/a	n/a	n/a	n/a	n/a
3006.132	n/a	RECOG_CONF	1503066	n/a	LTP242	ltpFR	18	1	1	WASP	1593	n/a	4	1	n/a	n/a	n/a	n/a	n/a
3007.886	n/a	RECOG_TARGET	1503943	n/a	LTP242	ltpFR	18	1	0	CANARY	227	1	5	0	n/a	n/a	n/a	n/a	n/a
3008.246	n/a	RECOG_RESP	1504123	n/a	LTP242	ltpFR	18	1	0	CANARY	227	1	n/a	0	n/a	n/a	n/a	n/a	n/a
3008.786	n/a	RECOG_CONF	1504393	n/a	LTP242	ltpFR	18	1	0	CANARY	227	n/a	5	0	n/a	n/a	n/a	n/a	n/a
3010.328	n/a	RECOG_TARGET	1505164	n/a	LTP242	ltpFR	18	1	0	PERSONNEL	1053	1	4	1	n/a	n/a	n/a	n/a	n/a
3010.892	n/a	RECOG_RESP	1505446	n/a	LTP242	ltpFR	18	1	0	PERSONNEL	1053	1	n/a	1	n/a	n/a	n/a	n/a	n/a
3011.486	n/a	RECOG_CONF	1505743	n/a	LTP242	ltpFR	18	1	0	PERSONNEL	1053	n/a	4	1	n/a	n/a	n/a	n/a	n/a
3013.022	n/a	RECOG_TARGET	1506511	n/a	LTP242	ltpFR	18	1	1	ARENA	37	1	4	1	n/a	n/a	n/a	n/a	n/a
3013.574	n/a	RECOG_RESP	1506787	n/a	LTP242	ltpFR	18	1	1	ARENA	37	1	n/a	1	n/a	n/a	n/a	n/a	n/a
3014.218	n/a	RECOG_CONF	1507109	n/a	LTP242	ltpFR	18	1	1	ARENA	37	n/a	4	1	n/a	n/a	n/a	n/a	n/a
3015.594	n/a	RECOG_TARGET	1507797	n/a	LTP242	ltpFR	18	1	-1	SHORTCAKE	1292	1	4	-1	n/a	n/a	n/a	n/a	n/a
3016.138	n/a	RECOG_RESP	1508069	n/a	LTP242	ltpFR	18	1	-1	SHORTCAKE	1292	1	n/a	-1	n/a	n/a	n/a	n/a	n/a
3016.828	n/a	RECOG_CONF	1508414	n/a	LTP242	ltpFR	18	1	-1	SHORTCAKE	1292	n/a	4	-1	n/a	n/a	n/a	n/a	n/a
3019.86	n/a	REC_START	1509930	n/a	LTP242	ltpFR	18	2	n/a	n/a	n/a	n/a	n/a	n/a	n/a	n/a	n/a	n/a	n/a
3019.914	n/a	RECOG_LURE	1509957	n/a	LTP242	ltpFR	18	2	n/a	FLASHLIGHT	575	0	4	n/a	n/a	n/a	n/a	n/a	n/a
3020.592	n/a	RECOG_RESP	1510296	n/a	LTP242	ltpFR	18	2	n/a	FLASHLIGHT	575	0	n/a	n/a	n/a	n/a	n/a	n/a	n/a
3021.146	n/a	RECOG_CONF	1510573	n/a	LTP242	ltpFR	18	2	n/a	FLASHLIGHT	575	n/a	4	n/a	n/a	n/a	n/a	n/a	n/a
3022.474	n/a	RECOG_TARGET	1511237	n/a	LTP242	ltpFR	18	2	-1	SHOE	1288	1	3	-1	n/a	n/a	n/a	n/a	n/a
3023.242	n/a	RECOG_RESP	1511621	n/a	LTP242	ltpFR	18	2	-1	SHOE	1288	1	n/a	-1	n/a	n/a	n/a	n/a	n/a
3023.796	n/a	RECOG_CONF	1511898	n/a	LTP242	ltpFR	18	2	-1	SHOE	1288	n/a	3	-1	n/a	n/a	n/a	n/a	n/a
3025.22	n/a	RECOG_TARGET	1512610	n/a	LTP242	ltpFR	18	2	1	SEA	1259	1	4	0	n/a	n/a	n/a	n/a	n/a
3025.738	n/a	RECOG_RESP	1512869	n/a	LTP242	ltpFR	18	2	1	SEA	1259	1	n/a	0	n/a	n/a	n/a	n/a	n/a
3026.292	n/a	RECOG_CONF	1513146	n/a	LTP242	ltpFR	18	2	1	SEA	1259	n/a	4	0	n/a	n/a	n/a	n/a	n/a
3028.096	n/a	RECOG_TARGET	1514048	n/a	LTP242	ltpFR	18	2	1	ARROW	40	1	5	0	n/a	n/a	n/a	n/a	n/a
3028.668	n/a	RECOG_RESP	1514334	n/a	LTP242	ltpFR	18	2	1	ARROW	40	1	n/a	0	n/a	n/a	n/a	n/a	n/a
3029.084	n/a	RECOG_CONF	1514542	n/a	LTP242	ltpFR	18	2	1	ARROW	40	n/a	5	0	n/a	n/a	n/a	n/a	n/a
3030.656	n/a	RECOG_TARGET	1515328	n/a	LTP242	ltpFR	18	2	1	EDITOR	516	1	5	1	n/a	n/a	n/a	n/a	n/a
3031.19	n/a	RECOG_RESP	1515595	n/a	LTP242	ltpFR	18	2	1	EDITOR	516	1	n/a	1	n/a	n/a	n/a	n/a	n/a
3031.658	n/a	RECOG_CONF	1515829	n/a	LTP242	ltpFR	18	2	1	EDITOR	516	n/a	5	1	n/a	n/a	n/a	n/a	n/a
3033.148	n/a	RECOG_TARGET	1516574	n/a	LTP242	ltpFR	18	2	1	COPIER	377	0	3	0	n/a	n/a	n/a	n/a	n/a
3033.618	n/a	RECOG_RESP_VV	1516809	n/a	LTP242	ltpFR	18	2	1	COPIER	377	1	n/a	0	n/a	n/a	n/a	n/a	n/a
3034.636	n/a	RECOG_RESP	1517318	n/a	LTP242	ltpFR	18	2	1	COPIER	377	0	n/a	0	n/a	n/a	n/a	n/a	n/a
3035.234	n/a	RECOG_CONF	1517617	n/a	LTP242	ltpFR	18	2	1	COPIER	377	n/a	3	0	n/a	n/a	n/a	n/a	n/a
3036.83	n/a	RECOG_TARGET	1518415	n/a	LTP242	ltpFR	18	2	-1	PASTA	1021	0	2	-1	n/a	n/a	n/a	n/a	n/a
3037.844	n/a	RECOG_RESP	1518922	n/a	LTP242	ltpFR	18	2	-1	PASTA	1021	0	n/a	-1	n/a	n/a	n/a	n/a	n/a
3038.234	n/a	RECOG_CONF	1519117	n/a	LTP242	ltpFR	18	2	-1	PASTA	1021	n/a	2	-1	n/a	n/a	n/a	n/a	n/a
3039.924	n/a	RECOG_TARGET	1519962	n/a	LTP242	ltpFR	18	2	0	PASSAGE	1019	1	4	0	n/a	n/a	n/a	n/a	n/a
3040.896	n/a	RECOG_RESP	1520448	n/a	LTP242	ltpFR	18	2	0	PASSAGE	1019	1	n/a	0	n/a	n/a	n/a	n/a	n/a
3041.376	n/a	RECOG_CONF	1520688	n/a	LTP242	ltpFR	18	2	0	PASSAGE	1019	n/a	4	0	n/a	n/a	n/a	n/a	n/a
3042.92	n/a	RECOG_TARGET	1521460	n/a	LTP242	ltpFR	18	2	1	SPACE	1345	1	5	0	n/a	n/a	n/a	n/a	n/a
3043.564	n/a	RECOG_RESP	1521782	n/a	LTP242	ltpFR	18	2	1	SPACE	1345	1	n/a	0	n/a	n/a	n/a	n/a	n/a
3044.002	n/a	RECOG_CONF	1522001	n/a	LTP242	ltpFR	18	2	1	SPACE	1345	n/a	5	0	n/a	n/a	n/a	n/a	n/a
3045.56	n/a	RECOG_TARGET	1522780	n/a	LTP242	ltpFR	18	2	-1	WAND	1586	1	4	-1	n/a	n/a	n/a	n/a	n/a
3046.104	n/a	RECOG_RESP	1523052	n/a	LTP242	ltpFR	18	2	-1	WAND	1586	1	n/a	-1	n/a	n/a	n/a	n/a	n/a
3046.546	n/a	RECOG_CONF	1523273	n/a	LTP242	ltpFR	18	2	-1	WAND	1586	n/a	4	-1	n/a	n/a	n/a	n/a	n/a
3048.068	n/a	RECOG_LURE	1524034	n/a	LTP242	ltpFR	18	2	n/a	METEOR	889	0	3	n/a	n/a	n/a	n/a	n/a	n/a
3048.864	n/a	RECOG_RESP	1524432	n/a	LTP242	ltpFR	18	2	n/a	METEOR	889	0	n/a	n/a	n/a	n/a	n/a	n/a	n/a
3049.278	n/a	RECOG_CONF	1524639	n/a	LTP242	ltpFR	18	2	n/a	METEOR	889	n/a	3	n/a	n/a	n/a	n/a	n/a	n/a
3050.9	n/a	RECOG_LURE	1525450	n/a	LTP242	ltpFR	18	2	n/a	KNIFE	785	0	4	n/a	n/a	n/a	n/a	n/a	n/a
3051.576	n/a	RECOG_RESP	1525788	n/a	LTP242	ltpFR	18	2	n/a	KNIFE	785	0	n/a	n/a	n/a	n/a	n/a	n/a	n/a
3052.044	n/a	RECOG_CONF	1526022	n/a	LTP242	ltpFR	18	2	n/a	KNIFE	785	n/a	4	n/a	n/a	n/a	n/a	n/a	n/a
3053.624	n/a	RECOG_TARGET	1526812	n/a	LTP242	ltpFR	18	2	0	SLUG	1329	1	4	0	n/a	n/a	n/a	n/a	n/a
3055.972	n/a	RECOG_RESP	1527986	n/a	LTP242	ltpFR	18	2	0	SLUG	1329	1	n/a	0	n/a	n/a	n/a	n/a	n/a
3056.494	n/a	RECOG_CONF	1528247	n/a	LTP242	ltpFR	18	2	0	SLUG	1329	n/a	4	0	n/a	n/a	n/a	n/a	n/a
3058.228	n/a	RECOG_TARGET	1529114	n/a	LTP242	ltpFR	18	2	0	RAKE	1164	1	5	0	n/a	n/a	n/a	n/a	n/a
3058.812	n/a	RECOG_RESP	1529406	n/a	LTP242	ltpFR	18	2	0	RAKE	1164	1	n/a	0	n/a	n/a	n/a	n/a	n/a
3059.236	n/a	RECOG_CONF	1529618	n/a	LTP242	ltpFR	18	2	0	RAKE	1164	n/a	5	0	n/a	n/a	n/a	n/a	n/a
3061.036	n/a	RECOG_LURE	1530518	n/a	LTP242	ltpFR	18	2	n/a	RELATIVE	1182	0	4	n/a	n/a	n/a	n/a	n/a	n/a
3061.706	n/a	RECOG_RESP	1530853	n/a	LTP242	ltpFR	18	2	n/a	RELATIVE	1182	0	n/a	n/a	n/a	n/a	n/a	n/a	n/a
3062.162	n/a	RECOG_CONF	1531081	n/a	LTP242	ltpFR	18	2	n/a	RELATIVE	1182	n/a	4	n/a	n/a	n/a	n/a	n/a	n/a
3063.516	n/a	RECOG_TARGET	1531758	n/a	LTP242	ltpFR	18	2	1	CINNAMON	310	1	4	n/a	n/a	n/a	n/a	n/a	n/a
3064.09	n/a	RECOG_RESP	1532045	n/a	LTP242	ltpFR	18	2	1	CINNAMON	310	1	n/a	n/a	n/a	n/a	n/a	n/a	n/a
3064.616	n/a	RECOG_CONF	1532308	n/a	LTP242	ltpFR	18	2	1	CINNAMON	310	n/a	4	n/a	n/a	n/a	n/a	n/a	n/a
3066.142	n/a	RECOG_LURE	1533071	n/a	LTP242	ltpFR	18	2	n/a	EAR	513	0	3	n/a	n/a	n/a	n/a	n/a	n/a
3066.858	n/a	RECOG_RESP	1533429	n/a	LTP242	ltpFR	18	2	n/a	EAR	513	0	n/a	n/a	n/a	n/a	n/a	n/a	n/a
3067.34	n/a	RECOG_CONF	1533670	n/a	LTP242	ltpFR	18	2	n/a	EAR	513	n/a	3	n/a	n/a	n/a	n/a	n/a	n/a
3068.852	n/a	RECOG_LURE	1534426	n/a	LTP242	ltpFR	18	2	n/a	SUMMIT	1405	0	4	n/a	n/a	n/a	n/a	n/a	n/a
3069.51	n/a	RECOG_RESP	1534755	n/a	LTP242	ltpFR	18	2	n/a	SUMMIT	1405	0	n/a	n/a	n/a	n/a	n/a	n/a	n/a
3070.06	n/a	RECOG_CONF	1535030	n/a	LTP242	ltpFR	18	2	n/a	SUMMIT	1405	n/a	4	n/a	n/a	n/a	n/a	n/a	n/a
3071.512	n/a	RECOG_TARGET	1535756	n/a	LTP242	ltpFR	18	2	0	DRILL	497	1	4	0	n/a	n/a	n/a	n/a	n/a
3072.56	n/a	RECOG_RESP	1536280	n/a	LTP242	ltpFR	18	2	0	DRILL	497	1	n/a	0	n/a	n/a	n/a	n/a	n/a
3073.086	n/a	RECOG_CONF	1536543	n/a	LTP242	ltpFR	18	2	0	DRILL	497	n/a	4	0	n/a	n/a	n/a	n/a	n/a
3074.62	n/a	RECOG_TARGET	1537310	n/a	LTP242	ltpFR	18	2	0	FLEA	577	1	4	0	n/a	n/a	n/a	n/a	n/a
3075.636	n/a	RECOG_RESP_VV	1537818	n/a	LTP242	ltpFR	18	2	0	FLEA	577	0	n/a	0	n/a	n/a	n/a	n/a	n/a
3076.842	n/a	RECOG_RESP	1538421	n/a	LTP242	ltpFR	18	2	0	FLEA	577	1	n/a	0	n/a	n/a	n/a	n/a	n/a
3077.484	n/a	RECOG_CONF	1538742	n/a	LTP242	ltpFR	18	2	0	FLEA	577	n/a	4	0	n/a	n/a	n/a	n/a	n/a
3080.796	n/a	REC_START	1540398	n/a	LTP242	ltpFR	18	3	n/a	n/a	n/a	n/a	n/a	n/a	n/a	n/a	n/a	n/a	n/a
3080.848	n/a	RECOG_TARGET	1540424	n/a	LTP242	ltpFR	18	3	0	TUSK	1523	1	4	0	n/a	n/a	n/a	n/a	n/a
3081.716	n/a	RECOG_RESP	1540858	n/a	LTP242	ltpFR	18	3	0	TUSK	1523	1	n/a	0	n/a	n/a	n/a	n/a	n/a
3082.168	n/a	RECOG_CONF	1541084	n/a	LTP242	ltpFR	18	3	0	TUSK	1523	n/a	4	0	n/a	n/a	n/a	n/a	n/a
3083.692	n/a	RECOG_TARGET	1541846	n/a	LTP242	ltpFR	18	3	1	UNIVERSE	1540	1	5	0	n/a	n/a	n/a	n/a	n/a
3084.416	n/a	RECOG_RESP	1542208	n/a	LTP242	ltpFR	18	3	1	UNIVERSE	1540	1	n/a	0	n/a	n/a	n/a	n/a	n/a
3084.852	n/a	RECOG_CONF	1542426	n/a	LTP242	ltpFR	18	3	1	UNIVERSE	1540	n/a	5	0	n/a	n/a	n/a	n/a	n/a
3086.436	n/a	RECOG_TARGET	1543218	n/a	LTP242	ltpFR	18	3	0	LEOPARD	812	1	4	1	n/a	n/a	n/a	n/a	n/a
3087.01	n/a	RECOG_RESP	1543505	n/a	LTP242	ltpFR	18	3	0	LEOPARD	812	1	n/a	1	n/a	n/a	n/a	n/a	n/a
3087.456	n/a	RECOG_CONF	1543728	n/a	LTP242	ltpFR	18	3	0	LEOPARD	812	n/a	4	1	n/a	n/a	n/a	n/a	n/a
3088.942	n/a	RECOG_TARGET	1544471	n/a	LTP242	ltpFR	18	3	1	CELLO	268	1	5	0	n/a	n/a	n/a	n/a	n/a
3089.472	n/a	RECOG_RESP	1544736	n/a	LTP242	ltpFR	18	3	1	CELLO	268	1	n/a	0	n/a	n/a	n/a	n/a	n/a
3089.9	n/a	RECOG_CONF	1544950	n/a	LTP242	ltpFR	18	3	1	CELLO	268	n/a	5	0	n/a	n/a	n/a	n/a	n/a
3091.534	n/a	RECOG_TARGET	1545767	n/a	LTP242	ltpFR	18	3	-1	HERB	704	1	4	-1	n/a	n/a	n/a	n/a	n/a
3091.994	n/a	RECOG_RESP	1545997	n/a	LTP242	ltpFR	18	3	-1	HERB	704	1	n/a	-1	n/a	n/a	n/a	n/a	n/a
3092.616	n/a	RECOG_CONF	1546308	n/a	LTP242	ltpFR	18	3	-1	HERB	704	n/a	4	-1	n/a	n/a	n/a	n/a	n/a
3093.982	n/a	RECOG_TARGET	1546991	n/a	LTP242	ltpFR	18	3	0	WINNER	1615	1	5	1	n/a	n/a	n/a	n/a	n/a
3094.408	n/a	RECOG_RESP	1547204	n/a	LTP242	ltpFR	18	3	0	WINNER	1615	1	n/a	1	n/a	n/a	n/a	n/a	n/a
3094.848	n/a	RECOG_CONF	1547424	n/a	LTP242	ltpFR	18	3	0	WINNER	1615	n/a	5	1	n/a	n/a	n/a	n/a	n/a
3096.44	n/a	RECOG_TARGET	1548220	n/a	LTP242	ltpFR	18	3	-1	SHEPHERD	1283	1	4	-1	n/a	n/a	n/a	n/a	n/a
3096.89	n/a	RECOG_RESP	1548445	n/a	LTP242	ltpFR	18	3	-1	SHEPHERD	1283	1	n/a	-1	n/a	n/a	n/a	n/a	n/a
3097.322	n/a	RECOG_CONF	1548661	n/a	LTP242	ltpFR	18	3	-1	SHEPHERD	1283	n/a	4	-1	n/a	n/a	n/a	n/a	n/a
3098.796	n/a	RECOG_TARGET	1549398	n/a	LTP242	ltpFR	18	3	0	ESSAY	540	1	5	0	n/a	n/a	n/a	n/a	n/a
3099.168	n/a	RECOG_RESP	1549584	n/a	LTP242	ltpFR	18	3	0	ESSAY	540	1	n/a	0	n/a	n/a	n/a	n/a	n/a
3099.678	n/a	RECOG_CONF	1549839	n/a	LTP242	ltpFR	18	3	0	ESSAY	540	n/a	5	0	n/a	n/a	n/a	n/a	n/a
3101.406	n/a	RECOG_TARGET	1550703	n/a	LTP242	ltpFR	18	3	1	PILOT	1070	1	4	1	n/a	n/a	n/a	n/a	n/a
3101.86	n/a	RECOG_RESP	1550930	n/a	LTP242	ltpFR	18	3	1	PILOT	1070	1	n/a	1	n/a	n/a	n/a	n/a	n/a
3102.46	n/a	RECOG_CONF	1551230	n/a	LTP242	ltpFR	18	3	1	PILOT	1070	n/a	4	1	n/a	n/a	n/a	n/a	n/a
3103.902	n/a	RECOG_TARGET	1551951	n/a	LTP242	ltpFR	18	3	-1	FREEZER	604	1	4	-1	n/a	n/a	n/a	n/a	n/a
3104.364	n/a	RECOG_RESP	1552182	n/a	LTP242	ltpFR	18	3	-1	FREEZER	604	1	n/a	-1	n/a	n/a	n/a	n/a	n/a
3104.806	n/a	RECOG_CONF	1552403	n/a	LTP242	ltpFR	18	3	-1	FREEZER	604	n/a	4	-1	n/a	n/a	n/a	n/a	n/a
3106.346	n/a	RECOG_LURE	1553173	n/a	LTP242	ltpFR	18	3	n/a	FOREST	593	0	4	n/a	n/a	n/a	n/a	n/a	n/a
3107.008	n/a	RECOG_RESP	1553504	n/a	LTP242	ltpFR	18	3	n/a	FOREST	593	0	n/a	n/a	n/a	n/a	n/a	n/a	n/a
3107.512	n/a	RECOG_CONF	1553756	n/a	LTP242	ltpFR	18	3	n/a	FOREST	593	n/a	4	n/a	n/a	n/a	n/a	n/a	n/a
3109.036	n/a	RECOG_LURE	1554518	n/a	LTP242	ltpFR	18	3	n/a	BULLY	196	0	3	n/a	n/a	n/a	n/a	n/a	n/a
3109.65	n/a	RECOG_RESP	1554825	n/a	LTP242	ltpFR	18	3	n/a	BULLY	196	0	n/a	n/a	n/a	n/a	n/a	n/a	n/a
3110.004	n/a	RECOG_CONF	1555002	n/a	LTP242	ltpFR	18	3	n/a	BULLY	196	n/a	3	n/a	n/a	n/a	n/a	n/a	n/a
3111.548	n/a	RECOG_LURE	1555774	n/a	LTP242	ltpFR	18	3	n/a	ORNAMENT	985	0	1	n/a	n/a	n/a	n/a	n/a	n/a
3112.302	n/a	RECOG_RESP	1556151	n/a	LTP242	ltpFR	18	3	n/a	ORNAMENT	985	0	n/a	n/a	n/a	n/a	n/a	n/a	n/a
3113.084	n/a	RECOG_CONF	1556542	n/a	LTP242	ltpFR	18	3	n/a	ORNAMENT	985	n/a	1	n/a	n/a	n/a	n/a	n/a	n/a
3114.978	n/a	RECOG_LURE	1557489	n/a	LTP242	ltpFR	18	3	n/a	GOVERNOR	651	0	3	n/a	n/a	n/a	n/a	n/a	n/a
3116.596	n/a	RECOG_RESP	1558298	n/a	LTP242	ltpFR	18	3	n/a	GOVERNOR	651	0	n/a	n/a	n/a	n/a	n/a	n/a	n/a
3117.096	n/a	RECOG_CONF	1558548	n/a	LTP242	ltpFR	18	3	n/a	GOVERNOR	651	n/a	3	n/a	n/a	n/a	n/a	n/a	n/a
3118.71	n/a	RECOG_TARGET	1559355	n/a	LTP242	ltpFR	18	3	1	COOKIE	374	1	4	0	n/a	n/a	n/a	n/a	n/a
3119.394	n/a	RECOG_RESP	1559697	n/a	LTP242	ltpFR	18	3	1	COOKIE	374	1	n/a	0	n/a	n/a	n/a	n/a	n/a
3120.038	n/a	RECOG_CONF	1560019	n/a	LTP242	ltpFR	18	3	1	COOKIE	374	n/a	4	0	n/a	n/a	n/a	n/a	n/a
3121.336	n/a	RECOG_TARGET	1560668	n/a	LTP242	ltpFR	18	3	1	SCALLOP	1242	1	5	0	n/a	n/a	n/a	n/a	n/a
3122.008	n/a	RECOG_RESP	1561004	n/a	LTP242	ltpFR	18	3	1	SCALLOP	1242	1	n/a	0	n/a	n/a	n/a	n/a	n/a
3122.632	n/a	RECOG_CONF	1561316	n/a	LTP242	ltpFR	18	3	1	SCALLOP	1242	n/a	5	0	n/a	n/a	n/a	n/a	n/a
3124.36	n/a	RECOG_LURE	1562180	n/a	LTP242	ltpFR	18	3	n/a	LUNG	850	0	3	n/a	n/a	n/a	n/a	n/a	n/a
3125.128	n/a	RECOG_RESP	1562564	n/a	LTP242	ltpFR	18	3	n/a	LUNG	850	0	n/a	n/a	n/a	n/a	n/a	n/a	n/a
3125.526	n/a	RECOG_CONF	1562763	n/a	LTP242	ltpFR	18	3	n/a	LUNG	850	n/a	3	n/a	n/a	n/a	n/a	n/a	n/a
3126.94	n/a	RECOG_LURE	1563470	n/a	LTP242	ltpFR	18	3	n/a	CHIEF	298	0	4	n/a	n/a	n/a	n/a	n/a	n/a
3127.87	n/a	RECOG_RESP	1563935	n/a	LTP242	ltpFR	18	3	n/a	CHIEF	298	0	n/a	n/a	n/a	n/a	n/a	n/a	n/a
3128.364	n/a	RECOG_CONF	1564182	n/a	LTP242	ltpFR	18	3	n/a	CHIEF	298	n/a	4	n/a	n/a	n/a	n/a	n/a	n/a
3129.982	n/a	RECOG_TARGET	1564991	n/a	LTP242	ltpFR	18	3	0	BOAT	144	1	4	0	n/a	n/a	n/a	n/a	n/a
3130.716	n/a	RECOG_RESP	1565358	n/a	LTP242	ltpFR	18	3	0	BOAT	144	1	n/a	0	n/a	n/a	n/a	n/a	n/a
3131.188	n/a	RECOG_CONF	1565594	n/a	LTP242	ltpFR	18	3	0	BOAT	144	n/a	4	0	n/a	n/a	n/a	n/a	n/a
3132.826	n/a	RECOG_TARGET	1566413	n/a	LTP242	ltpFR	18	3	1	RIBBON	1189	1	5	2	n/a	n/a	n/a	n/a	n/a
3133.442	n/a	RECOG_RESP	1566721	n/a	LTP242	ltpFR	18	3	1	RIBBON	1189	1	n/a	2	n/a	n/a	n/a	n/a	n/a
3133.882	n/a	RECOG_CONF	1566941	n/a	LTP242	ltpFR	18	3	1	RIBBON	1189	n/a	5	2	n/a	n/a	n/a	n/a	n/a
3136.8	n/a	REC_START	1568400	n/a	LTP242	ltpFR	18	4	n/a	n/a	n/a	n/a	n/a	n/a	n/a	n/a	n/a	n/a	n/a
3136.858	n/a	RECOG_TARGET	1568429	n/a	LTP242	ltpFR	18	4	-1	DAM	436	1	4	-1	n/a	n/a	n/a	n/a	n/a
3137.452	n/a	RECOG_RESP	1568726	n/a	LTP242	ltpFR	18	4	-1	DAM	436	1	n/a	-1	n/a	n/a	n/a	n/a	n/a
3138.002	n/a	RECOG_CONF	1569001	n/a	LTP242	ltpFR	18	4	-1	DAM	436	n/a	4	-1	n/a	n/a	n/a	n/a	n/a
3139.388	n/a	RECOG_TARGET	1569694	n/a	LTP242	ltpFR	18	4	1	PARENT	1013	1	4	0	n/a	n/a	n/a	n/a	n/a
3140.502	n/a	RECOG_RESP	1570251	n/a	LTP242	ltpFR	18	4	1	PARENT	1013	1	n/a	0	n/a	n/a	n/a	n/a	n/a
3141.08	n/a	RECOG_CONF	1570540	n/a	LTP242	ltpFR	18	4	1	PARENT	1013	n/a	4	0	n/a	n/a	n/a	n/a	n/a
3142.634	n/a	RECOG_TARGET	1571317	n/a	LTP242	ltpFR	18	4	1	CROW	414	1	5	1	n/a	n/a	n/a	n/a	n/a
3143.12	n/a	RECOG_RESP	1571560	n/a	LTP242	ltpFR	18	4	1	CROW	414	1	n/a	1	n/a	n/a	n/a	n/a	n/a
3143.55	n/a	RECOG_CONF	1571775	n/a	LTP242	ltpFR	18	4	1	CROW	414	n/a	5	1	n/a	n/a	n/a	n/a	n/a
3145.11	n/a	RECOG_LURE	1572555	n/a	LTP242	ltpFR	18	4	n/a	FAN	551	0	4	n/a	n/a	n/a	n/a	n/a	n/a
3145.76	n/a	RECOG_RESP	1572880	n/a	LTP242	ltpFR	18	4	n/a	FAN	551	0	n/a	n/a	n/a	n/a	n/a	n/a	n/a
3146.224	n/a	RECOG_CONF	1573112	n/a	LTP242	ltpFR	18	4	n/a	FAN	551	n/a	4	n/a	n/a	n/a	n/a	n/a	n/a
3147.786	n/a	RECOG_TARGET	1573893	n/a	LTP242	ltpFR	18	4	1	TUXEDO	1525	1	4	0	n/a	n/a	n/a	n/a	n/a
3148.358	n/a	RECOG_RESP	1574179	n/a	LTP242	ltpFR	18	4	1	TUXEDO	1525	1	n/a	0	n/a	n/a	n/a	n/a	n/a
3148.912	n/a	RECOG_CONF	1574456	n/a	LTP242	ltpFR	18	4	1	TUXEDO	1525	n/a	4	0	n/a	n/a	n/a	n/a	n/a
3150.48	n/a	RECOG_TARGET	1575240	n/a	LTP242	ltpFR	18	4	0	COMMUNITY	356	1	5	1	n/a	n/a	n/a	n/a	n/a
3150.952	n/a	RECOG_RESP	1575476	n/a	LTP242	ltpFR	18	4	0	COMMUNITY	356	1	n/a	1	n/a	n/a	n/a	n/a	n/a
3151.506	n/a	RECOG_CONF	1575753	n/a	LTP242	ltpFR	18	4	0	COMMUNITY	356	n/a	5	1	n/a	n/a	n/a	n/a	n/a
3153.106	n/a	RECOG_TARGET	1576553	n/a	LTP242	ltpFR	18	4	1	WOLF	1619	1	5	1	n/a	n/a	n/a	n/a	n/a
3153.546	n/a	RECOG_RESP	1576773	n/a	LTP242	ltpFR	18	4	1	WOLF	1619	1	n/a	1	n/a	n/a	n/a	n/a	n/a
3153.998	n/a	RECOG_CONF	1576999	n/a	LTP242	ltpFR	18	4	1	WOLF	1619	n/a	5	1	n/a	n/a	n/a	n/a	n/a
3155.734	n/a	RECOG_TARGET	1577867	n/a	LTP242	ltpFR	18	4	0	SHOP	1290	1	4	0	n/a	n/a	n/a	n/a	n/a
3156.154	n/a	RECOG_RESP	1578077	n/a	LTP242	ltpFR	18	4	0	SHOP	1290	1	n/a	0	n/a	n/a	n/a	n/a	n/a
3156.776	n/a	RECOG_CONF	1578388	n/a	LTP242	ltpFR	18	4	0	SHOP	1290	n/a	4	0	n/a	n/a	n/a	n/a	n/a
3158.16	n/a	RECOG_TARGET	1579080	n/a	LTP242	ltpFR	18	4	0	SANDWICH	1232	1	4	0	n/a	n/a	n/a	n/a	n/a
3158.532	n/a	RECOG_RESP	1579266	n/a	LTP242	ltpFR	18	4	0	SANDWICH	1232	1	n/a	0	n/a	n/a	n/a	n/a	n/a
3159.174	n/a	RECOG_CONF	1579587	n/a	LTP242	ltpFR	18	4	0	SANDWICH	1232	n/a	4	0	n/a	n/a	n/a	n/a	n/a
3161.034	n/a	RECOG_TARGET	1580517	n/a	LTP242	ltpFR	18	4	-1	STUMP	1396	0	4	-1	n/a	n/a	n/a	n/a	n/a
3162.25	n/a	RECOG_RESP	1581125	n/a	LTP242	ltpFR	18	4	-1	STUMP	1396	0	n/a	-1	n/a	n/a	n/a	n/a	n/a
3162.75	n/a	RECOG_CONF	1581375	n/a	LTP242	ltpFR	18	4	-1	STUMP	1396	n/a	4	-1	n/a	n/a	n/a	n/a	n/a
3164.296	n/a	RECOG_TARGET	1582148	n/a	LTP242	ltpFR	18	4	1	MOTHER	921	1	5	1	n/a	n/a	n/a	n/a	n/a
3165.688	n/a	RECOG_RESP	1582844	n/a	LTP242	ltpFR	18	4	1	MOTHER	921	1	n/a	1	n/a	n/a	n/a	n/a	n/a
3166.14	n/a	RECOG_CONF	1583070	n/a	LTP242	ltpFR	18	4	1	MOTHER	921	n/a	5	1	n/a	n/a	n/a	n/a	n/a
3167.776	n/a	RECOG_TARGET	1583888	n/a	LTP242	ltpFR	18	4	0	MOP	916	1	4	0	n/a	n/a	n/a	n/a	n/a
3168.4	n/a	RECOG_RESP	1584200	n/a	LTP242	ltpFR	18	4	0	MOP	916	1	n/a	0	n/a	n/a	n/a	n/a	n/a
3169.172	n/a	RECOG_CONF	1584586	n/a	LTP242	ltpFR	18	4	0	MOP	916	n/a	4	0	n/a	n/a	n/a	n/a	n/a
3170.958	n/a	RECOG_TARGET	1585479	n/a	LTP242	ltpFR	18	4	0	ROOST	1208	1	5	0	n/a	n/a	n/a	n/a	n/a
3171.596	n/a	RECOG_RESP	1585798	n/a	LTP242	ltpFR	18	4	0	ROOST	1208	1	n/a	0	n/a	n/a	n/a	n/a	n/a
3172.006	n/a	RECOG_CONF	1586003	n/a	LTP242	ltpFR	18	4	0	ROOST	1208	n/a	5	0	n/a	n/a	n/a	n/a	n/a
3173.652	n/a	RECOG_TARGET	1586826	n/a	LTP242	ltpFR	18	4	-1	TORCH	1484	1	4	-1	n/a	n/a	n/a	n/a	n/a
3174.206	n/a	RECOG_RESP	1587103	n/a	LTP242	ltpFR	18	4	-1	TORCH	1484	1	n/a	-1	n/a	n/a	n/a	n/a	n/a
3174.622	n/a	RECOG_CONF	1587311	n/a	LTP242	ltpFR	18	4	-1	TORCH	1484	n/a	4	-1	n/a	n/a	n/a	n/a	n/a
3176.096	n/a	RECOG_TARGET	1588048	n/a	LTP242	ltpFR	18	4	1	PUBLISHER	1137	1	4	1	n/a	n/a	n/a	n/a	n/a
3177.102	n/a	RECOG_RESP	1588551	n/a	LTP242	ltpFR	18	4	1	PUBLISHER	1137	1	n/a	1	n/a	n/a	n/a	n/a	n/a
3177.726	n/a	RECOG_CONF	1588863	n/a	LTP242	ltpFR	18	4	1	PUBLISHER	1137	n/a	4	1	n/a	n/a	n/a	n/a	n/a
3179.124	n/a	RECOG_LURE	1589562	n/a	LTP242	ltpFR	18	4	n/a	DRUG	501	0	4	n/a	n/a	n/a	n/a	n/a	n/a
3179.77	n/a	RECOG_RESP	1589885	n/a	LTP242	ltpFR	18	4	n/a	DRUG	501	0	n/a	n/a	n/a	n/a	n/a	n/a	n/a
3180.348	n/a	RECOG_CONF	1590174	n/a	LTP242	ltpFR	18	4	n/a	DRUG	501	n/a	4	n/a	n/a	n/a	n/a	n/a	n/a
3181.984	n/a	RECOG_TARGET	1590992	n/a	LTP242	ltpFR	18	4	0	BABY	64	1	5	0	n/a	n/a	n/a	n/a	n/a
3182.59	n/a	RECOG_RESP	1591295	n/a	LTP242	ltpFR	18	4	0	BABY	64	1	n/a	0	n/a	n/a	n/a	n/a	n/a
3183.144	n/a	RECOG_CONF	1591572	n/a	LTP242	ltpFR	18	4	0	BABY	64	n/a	5	0	n/a	n/a	n/a	n/a	n/a
3184.594	n/a	RECOG_TARGET	1592297	n/a	LTP242	ltpFR	18	4	0	TWIN	1528	1	5	1	n/a	n/a	n/a	n/a	n/a
3185.158	n/a	RECOG_RESP	1592579	n/a	LTP242	ltpFR	18	4	0	TWIN	1528	1	n/a	1	n/a	n/a	n/a	n/a	n/a
3185.576	n/a	RECOG_CONF	1592788	n/a	LTP242	ltpFR	18	4	0	TWIN	1528	n/a	5	1	n/a	n/a	n/a	n/a	n/a
3187.12	n/a	RECOG_TARGET	1593560	n/a	LTP242	ltpFR	18	4	0	ARCHITECT	36	1	5	0	n/a	n/a	n/a	n/a	n/a
3188.056	n/a	RECOG_RESP	1594028	n/a	LTP242	ltpFR	18	4	0	ARCHITECT	36	1	n/a	0	n/a	n/a	n/a	n/a	n/a
3188.5	n/a	RECOG_CONF	1594250	n/a	LTP242	ltpFR	18	4	0	ARCHITECT	36	n/a	5	0	n/a	n/a	n/a	n/a	n/a
3189.978	n/a	RECOG_TARGET	1594989	n/a	LTP242	ltpFR	18	4	-1	GOAT	644	1	5	-1	n/a	n/a	n/a	n/a	n/a
3190.518	n/a	RECOG_RESP	1595259	n/a	LTP242	ltpFR	18	4	-1	GOAT	644	1	n/a	-1	n/a	n/a	n/a	n/a	n/a
3190.954	n/a	RECOG_CONF	1595477	n/a	LTP242	ltpFR	18	4	-1	GOAT	644	n/a	5	-1	n/a	n/a	n/a	n/a	n/a
3194.202	n/a	REC_START	1597101	n/a	LTP242	ltpFR	18	5	n/a	n/a	n/a	n/a	n/a	n/a	n/a	n/a	n/a	n/a	n/a
3194.25	n/a	RECOG_TARGET	1597125	n/a	LTP242	ltpFR	18	5	0	VEHICLE	1553	1	5	1	n/a	n/a	n/a	n/a	n/a
3194.78	n/a	RECOG_RESP	1597390	n/a	LTP242	ltpFR	18	5	0	VEHICLE	1553	1	n/a	1	n/a	n/a	n/a	n/a	n/a
3195.196	n/a	RECOG_CONF	1597598	n/a	LTP242	ltpFR	18	5	0	VEHICLE	1553	n/a	5	1	n/a	n/a	n/a	n/a	n/a
3196.708	n/a	RECOG_TARGET	1598354	n/a	LTP242	ltpFR	18	5	1	CARD	243	1	5	0	n/a	n/a	n/a	n/a	n/a
3197.3	n/a	RECOG_RESP	1598650	n/a	LTP242	ltpFR	18	5	1	CARD	243	1	n/a	0	n/a	n/a	n/a	n/a	n/a
3197.69	n/a	RECOG_CONF	1598845	n/a	LTP242	ltpFR	18	5	1	CARD	243	n/a	5	0	n/a	n/a	n/a	n/a	n/a
3199.202	n/a	RECOG_TARGET	1599601	n/a	LTP242	ltpFR	18	5	-1	FINGERNAIL	568	1	5	-1	n/a	n/a	n/a	n/a	n/a
3199.908	n/a	RECOG_RESP	1599954	n/a	LTP242	ltpFR	18	5	-1	FINGERNAIL	568	1	n/a	-1	n/a	n/a	n/a	n/a	n/a
3200.324	n/a	RECOG_CONF	1600162	n/a	LTP242	ltpFR	18	5	-1	FINGERNAIL	568	n/a	5	-1	n/a	n/a	n/a	n/a	n/a
3201.928	n/a	RECOG_LURE	1600964	n/a	LTP242	ltpFR	18	5	n/a	DISH	474	0	3	n/a	n/a	n/a	n/a	n/a	n/a
3203.118	n/a	RECOG_RESP	1601559	n/a	LTP242	ltpFR	18	5	n/a	DISH	474	0	n/a	n/a	n/a	n/a	n/a	n/a	n/a
3203.61	n/a	RECOG_CONF	1601805	n/a	LTP242	ltpFR	18	5	n/a	DISH	474	n/a	3	n/a	n/a	n/a	n/a	n/a	n/a
3205.356	n/a	RECOG_TARGET	1602678	n/a	LTP242	ltpFR	18	5	1	LION	827	1	4	1	n/a	n/a	n/a	n/a	n/a
3207.732	n/a	RECOG_RESP	1603866	n/a	LTP242	ltpFR	18	5	1	LION	827	1	n/a	1	n/a	n/a	n/a	n/a	n/a
3208.282	n/a	RECOG_CONF	1604141	n/a	LTP242	ltpFR	18	5	1	LION	827	n/a	4	1	n/a	n/a	n/a	n/a	n/a
3209.908	n/a	RECOG_TARGET	1604954	n/a	LTP242	ltpFR	18	5	1	APE	31	1	5	1	n/a	n/a	n/a	n/a	n/a
3210.516	n/a	RECOG_RESP	1605258	n/a	LTP242	ltpFR	18	5	1	APE	31	1	n/a	1	n/a	n/a	n/a	n/a	n/a
3210.91	n/a	RECOG_CONF	1605455	n/a	LTP242	ltpFR	18	5	1	APE	31	n/a	5	1	n/a	n/a	n/a	n/a	n/a
3212.334	n/a	RECOG_LURE	1606167	n/a	LTP242	ltpFR	18	5	n/a	THESAURUS	1454	0	4	n/a	n/a	n/a	n/a	n/a	n/a
3213.112	n/a	RECOG_RESP	1606556	n/a	LTP242	ltpFR	18	5	n/a	THESAURUS	1454	0	n/a	n/a	n/a	n/a	n/a	n/a	n/a
3213.616	n/a	RECOG_CONF	1606808	n/a	LTP242	ltpFR	18	5	n/a	THESAURUS	1454	n/a	4	n/a	n/a	n/a	n/a	n/a	n/a
3215.078	n/a	RECOG_TARGET	1607539	n/a	LTP242	ltpFR	18	5	1	WAVE	1596	1	5	0	n/a	n/a	n/a	n/a	n/a
3215.52	n/a	RECOG_RESP	1607760	n/a	LTP242	ltpFR	18	5	1	WAVE	1596	1	n/a	0	n/a	n/a	n/a	n/a	n/a
3215.918	n/a	RECOG_CONF	1607959	n/a	LTP242	ltpFR	18	5	1	WAVE	1596	n/a	5	0	n/a	n/a	n/a	n/a	n/a
3217.404	n/a	RECOG_TARGET	1608702	n/a	LTP242	ltpFR	18	5	1	HARP	689	1	5	0	n/a	n/a	n/a	n/a	n/a
3217.654	n/a	RECOG_RESP	1608827	n/a	LTP242	ltpFR	18	5	1	HARP	689	1	n/a	0	n/a	n/a	n/a	n/a	n/a
3218.084	n/a	RECOG_CONF	1609042	n/a	LTP242	ltpFR	18	5	1	HARP	689	n/a	5	0	n/a	n/a	n/a	n/a	n/a
3219.962	n/a	RECOG_TARGET	1609981	n/a	LTP242	ltpFR	18	5	1	KEEPER	769	1	5	1	n/a	n/a	n/a	n/a	n/a
3220.494	n/a	RECOG_RESP	1610247	n/a	LTP242	ltpFR	18	5	1	KEEPER	769	1	n/a	1	n/a	n/a	n/a	n/a	n/a
3220.928	n/a	RECOG_CONF	1610464	n/a	LTP242	ltpFR	18	5	1	KEEPER	769	n/a	5	1	n/a	n/a	n/a	n/a	n/a
3222.49	n/a	RECOG_LURE	1611245	n/a	LTP242	ltpFR	18	5	n/a	SUPERMARKET	1409	1	4	n/a	n/a	n/a	n/a	n/a	n/a
3222.914	n/a	RECOG_RESP	1611457	n/a	LTP242	ltpFR	18	5	n/a	SUPERMARKET	1409	1	n/a	n/a	n/a	n/a	n/a	n/a	n/a
3223.392	n/a	RECOG_CONF	1611696	n/a	LTP242	ltpFR	18	5	n/a	SUPERMARKET	1409	n/a	4	n/a	n/a	n/a	n/a	n/a	n/a
3224.966	n/a	RECOG_TARGET	1612483	n/a	LTP242	ltpFR	18	5	-1	HAND	683	1	4	-1	n/a	n/a	n/a	n/a	n/a
3226.668	n/a	RECOG_RESP	1613334	n/a	LTP242	ltpFR	18	5	-1	HAND	683	1	n/a	-1	n/a	n/a	n/a	n/a	n/a
3227.268	n/a	RECOG_CONF	1613634	n/a	LTP242	ltpFR	18	5	-1	HAND	683	n/a	4	-1	n/a	n/a	n/a	n/a	n/a
3228.612	n/a	RECOG_TARGET	1614306	n/a	LTP242	ltpFR	18	5	0	MAID	856	1	4	2	n/a	n/a	n/a	n/a	n/a
3229.194	n/a	RECOG_RESP	1614597	n/a	LTP242	ltpFR	18	5	0	MAID	856	1	n/a	2	n/a	n/a	n/a	n/a	n/a
3229.772	n/a	RECOG_CONF	1614886	n/a	LTP242	ltpFR	18	5	0	MAID	856	n/a	4	2	n/a	n/a	n/a	n/a	n/a
3231.118	n/a	RECOG_LURE	1615559	n/a	LTP242	ltpFR	18	5	n/a	NEWSSTAND	949	0	4	n/a	n/a	n/a	n/a	n/a	n/a
3231.968	n/a	RECOG_RESP	1615984	n/a	LTP242	ltpFR	18	5	n/a	NEWSSTAND	949	0	n/a	n/a	n/a	n/a	n/a	n/a	n/a
3232.546	n/a	RECOG_CONF	1616273	n/a	LTP242	ltpFR	18	5	n/a	NEWSSTAND	949	n/a	4	n/a	n/a	n/a	n/a	n/a	n/a
3234.014	n/a	RECOG_TARGET	1617007	n/a	LTP242	ltpFR	18	5	1	GRASSHOPPER	656	1	4	1	n/a	n/a	n/a	n/a	n/a
3234.668	n/a	RECOG_RESP	1617334	n/a	LTP242	ltpFR	18	5	1	GRASSHOPPER	656	1	n/a	1	n/a	n/a	n/a	n/a	n/a
3235.268	n/a	RECOG_CONF	1617634	n/a	LTP242	ltpFR	18	5	1	GRASSHOPPER	656	n/a	4	1	n/a	n/a	n/a	n/a	n/a
3236.66	n/a	RECOG_TARGET	1618330	n/a	LTP242	ltpFR	18	5	1	SERVANT	1271	1	5	1	n/a	n/a	n/a	n/a	n/a
3237.164	n/a	RECOG_RESP	1618582	n/a	LTP242	ltpFR	18	5	1	SERVANT	1271	1	n/a	1	n/a	n/a	n/a	n/a	n/a
3237.6	n/a	RECOG_CONF	1618800	n/a	LTP242	ltpFR	18	5	1	SERVANT	1271	n/a	5	1	n/a	n/a	n/a	n/a	n/a
3239.136	n/a	RECOG_TARGET	1619568	n/a	LTP242	ltpFR	18	5	0	FLOOR	581	1	4	0	n/a	n/a	n/a	n/a	n/a
3239.856	n/a	RECOG_RESP	1619928	n/a	LTP242	ltpFR	18	5	0	FLOOR	581	1	n/a	0	n/a	n/a	n/a	n/a	n/a
3240.454	n/a	RECOG_CONF	1620227	n/a	LTP242	ltpFR	18	5	0	FLOOR	581	n/a	4	0	n/a	n/a	n/a	n/a	n/a
3241.98	n/a	RECOG_TARGET	1620990	n/a	LTP242	ltpFR	18	5	0	SINK	1309	1	4	0	n/a	n/a	n/a	n/a	n/a
3242.756	n/a	RECOG_RESP	1621378	n/a	LTP242	ltpFR	18	5	0	SINK	1309	1	n/a	0	n/a	n/a	n/a	n/a	n/a
3243.426	n/a	RECOG_CONF	1621713	n/a	LTP242	ltpFR	18	5	0	SINK	1309	n/a	4	0	n/a	n/a	n/a	n/a	n/a
3244.942	n/a	RECOG_TARGET	1622471	n/a	LTP242	ltpFR	18	5	-1	REINDEER	1181	1	4	-1	n/a	n/a	n/a	n/a	n/a
3245.528	n/a	RECOG_RESP	1622764	n/a	LTP242	ltpFR	18	5	-1	REINDEER	1181	1	n/a	-1	n/a	n/a	n/a	n/a	n/a
3246.078	n/a	RECOG_CONF	1623039	n/a	LTP242	ltpFR	18	5	-1	REINDEER	1181	n/a	4	-1	n/a	n/a	n/a	n/a	n/a
3247.552	n/a	RECOG_TARGET	1623776	n/a	LTP242	ltpFR	18	5	0	JACKET	747	1	5	0	n/a	n/a	n/a	n/a	n/a
3248.096	n/a	RECOG_RESP_VV	1624048	n/a	LTP242	ltpFR	18	5	0	JACKET	747	1	n/a	0	n/a	n/a	n/a	n/a	n/a
3251.12	n/a	RECOG_RESP_VV	1625560	n/a	LTP242	ltpFR	18	5	0	JACKET	747	n/a	5	0	n/a	n/a	n/a	n/a	n/a
3251.754	n/a	RECOG_RESP	1625877	n/a	LTP242	ltpFR	18	5	0	JACKET	747	1	n/a	0	n/a	n/a	n/a	n/a	n/a
3252.468	n/a	RECOG_CONF	1626234	n/a	LTP242	ltpFR	18	5	0	JACKET	747	n/a	5	0	n/a	n/a	n/a	n/a	n/a
3255.536	n/a	REC_START	1627768	n/a	LTP242	ltpFR	18	6	n/a	n/a	n/a	n/a	n/a	n/a	n/a	n/a	n/a	n/a	n/a
3255.582	n/a	RECOG_LURE	1627791	n/a	LTP242	ltpFR	18	6	n/a	MOSS	918	0	4	n/a	n/a	n/a	n/a	n/a	n/a
3256.436	n/a	RECOG_RESP	1628218	n/a	LTP242	ltpFR	18	6	n/a	MOSS	918	0	n/a	n/a	n/a	n/a	n/a	n/a	n/a
3256.938	n/a	RECOG_CONF	1628469	n/a	LTP242	ltpFR	18	6	n/a	MOSS	918	n/a	4	n/a	n/a	n/a	n/a	n/a	n/a
3258.524	n/a	RECOG_TARGET	1629262	n/a	LTP242	ltpFR	18	6	0	HIGHWAY	707	1	4	1	n/a	n/a	n/a	n/a	n/a
3259.058	n/a	RECOG_RESP	1629529	n/a	LTP242	ltpFR	18	6	0	HIGHWAY	707	1	n/a	1	n/a	n/a	n/a	n/a	n/a
3259.658	n/a	RECOG_CONF	1629829	n/a	LTP242	ltpFR	18	6	0	HIGHWAY	707	n/a	4	1	n/a	n/a	n/a	n/a	n/a
3261.12	n/a	RECOG_TARGET	1630560	n/a	LTP242	ltpFR	18	6	1	VALVE	1546	1	5	2	n/a	n/a	n/a	n/a	n/a
3261.556	n/a	RECOG_RESP	1630778	n/a	LTP242	ltpFR	18	6	1	VALVE	1546	1	n/a	2	n/a	n/a	n/a	n/a	n/a
3262.196	n/a	RECOG_CONF	1631098	n/a	LTP242	ltpFR	18	6	1	VALVE	1546	n/a	5	2	n/a	n/a	n/a	n/a	n/a
3263.492	n/a	RECOG_TARGET	1631746	n/a	LTP242	ltpFR	18	6	1	BEAKER	104	1	4	0	n/a	n/a	n/a	n/a	n/a
3264.022	n/a	RECOG_RESP	1632011	n/a	LTP242	ltpFR	18	6	1	BEAKER	104	1	n/a	0	n/a	n/a	n/a	n/a	n/a
3264.51	n/a	RECOG_CONF	1632255	n/a	LTP242	ltpFR	18	6	1	BEAKER	104	n/a	4	0	n/a	n/a	n/a	n/a	n/a
3265.938	n/a	RECOG_TARGET	1632969	n/a	LTP242	ltpFR	18	6	1	RAISIN	1163	1	4	0	n/a	n/a	n/a	n/a	n/a
3266.45	n/a	RECOG_RESP	1633225	n/a	LTP242	ltpFR	18	6	1	RAISIN	1163	1	n/a	0	n/a	n/a	n/a	n/a	n/a
3266.936	n/a	RECOG_CONF	1633468	n/a	LTP242	ltpFR	18	6	1	RAISIN	1163	n/a	4	0	n/a	n/a	n/a	n/a	n/a
3268.494	n/a	RECOG_TARGET	1634247	n/a	LTP242	ltpFR	18	6	0	OAR	966	1	4	0	n/a	n/a	n/a	n/a	n/a
3269.08	n/a	RECOG_RESP	1634540	n/a	LTP242	ltpFR	18	6	0	OAR	966	1	n/a	0	n/a	n/a	n/a	n/a	n/a
3269.704	n/a	RECOG_CONF	1634852	n/a	LTP242	ltpFR	18	6	0	OAR	966	n/a	4	0	n/a	n/a	n/a	n/a	n/a
3271.092	n/a	RECOG_LURE	1635546	n/a	LTP242	ltpFR	18	6	n/a	SATURN	1236	0	4	n/a	n/a	n/a	n/a	n/a	n/a
3271.898	n/a	RECOG_RESP	1635949	n/a	LTP242	ltpFR	18	6	n/a	SATURN	1236	0	n/a	n/a	n/a	n/a	n/a	n/a	n/a
3272.214	n/a	RECOG_CONF	1636107	n/a	LTP242	ltpFR	18	6	n/a	SATURN	1236	n/a	4	n/a	n/a	n/a	n/a	n/a	n/a
3273.886	n/a	RECOG_TARGET	1636943	n/a	LTP242	ltpFR	18	6	-1	SHELF	1280	1	4	-1	n/a	n/a	n/a	n/a	n/a
3274.51	n/a	RECOG_RESP	1637255	n/a	LTP242	ltpFR	18	6	-1	SHELF	1280	1	n/a	-1	n/a	n/a	n/a	n/a	n/a
3275.086	n/a	RECOG_CONF	1637543	n/a	LTP242	ltpFR	18	6	-1	SHELF	1280	n/a	4	-1	n/a	n/a	n/a	n/a	n/a
3276.446	n/a	RECOG_TARGET	1638223	n/a	LTP242	ltpFR	18	6	-1	LAKE	796	1	4	-1	n/a	n/a	n/a	n/a	n/a
3276.918	n/a	RECOG_RESP	1638459	n/a	LTP242	ltpFR	18	6	-1	LAKE	796	1	n/a	-1	n/a	n/a	n/a	n/a	n/a
3277.562	n/a	RECOG_CONF	1638781	n/a	LTP242	ltpFR	18	6	-1	LAKE	796	n/a	4	-1	n/a	n/a	n/a	n/a	n/a
3278.922	n/a	RECOG_LURE	1639461	n/a	LTP242	ltpFR	18	6	n/a	FIG	563	0	3	n/a	n/a	n/a	n/a	n/a	n/a
3279.646	n/a	RECOG_RESP	1639823	n/a	LTP242	ltpFR	18	6	n/a	FIG	563	0	n/a	n/a	n/a	n/a	n/a	n/a	n/a
3281.38	n/a	RECOG_CONF	1640690	n/a	LTP242	ltpFR	18	6	n/a	FIG	563	n/a	3	n/a	n/a	n/a	n/a	n/a	n/a
3282.902	n/a	RECOG_LURE	1641451	n/a	LTP242	ltpFR	18	6	n/a	TEMPLE	1448	0	4	n/a	n/a	n/a	n/a	n/a	n/a
3283.544	n/a	RECOG_RESP	1641772	n/a	LTP242	ltpFR	18	6	n/a	TEMPLE	1448	0	n/a	n/a	n/a	n/a	n/a	n/a	n/a
3284.072	n/a	RECOG_CONF	1642036	n/a	LTP242	ltpFR	18	6	n/a	TEMPLE	1448	n/a	4	n/a	n/a	n/a	n/a	n/a	n/a
3285.53	n/a	RECOG_LURE	1642765	n/a	LTP242	ltpFR	18	6	n/a	PENDULUM	1043	0	4	n/a	n/a	n/a	n/a	n/a	n/a
3286.182	n/a	RECOG_RESP	1643091	n/a	LTP242	ltpFR	18	6	n/a	PENDULUM	1043	0	n/a	n/a	n/a	n/a	n/a	n/a	n/a
3286.712	n/a	RECOG_CONF	1643356	n/a	LTP242	ltpFR	18	6	n/a	PENDULUM	1043	n/a	4	n/a	n/a	n/a	n/a	n/a	n/a
3288.208	n/a	RECOG_TARGET	1644104	n/a	LTP242	ltpFR	18	6	0	ROOSTER	1209	1	4	1	n/a	n/a	n/a	n/a	n/a
3288.75	n/a	RECOG_RESP	1644375	n/a	LTP242	ltpFR	18	6	0	ROOSTER	1209	1	n/a	1	n/a	n/a	n/a	n/a	n/a
3289.256	n/a	RECOG_CONF	1644628	n/a	LTP242	ltpFR	18	6	0	ROOSTER	1209	n/a	4	1	n/a	n/a	n/a	n/a	n/a
3290.634	n/a	RECOG_TARGET	1645317	n/a	LTP242	ltpFR	18	6	1	SALMON	1227	1	5	1	n/a	n/a	n/a	n/a	n/a
3291.176	n/a	RECOG_RESP	1645588	n/a	LTP242	ltpFR	18	6	1	SALMON	1227	1	n/a	1	n/a	n/a	n/a	n/a	n/a
3291.672	n/a	RECOG_CONF	1645836	n/a	LTP242	ltpFR	18	6	1	SALMON	1227	n/a	5	1	n/a	n/a	n/a	n/a	n/a
3293.228	n/a	RECOG_TARGET	1646614	n/a	LTP242	ltpFR	18	6	0	PIANO	1057	1	5	1	n/a	n/a	n/a	n/a	n/a
3293.712	n/a	RECOG_RESP	1646856	n/a	LTP242	ltpFR	18	6	0	PIANO	1057	1	n/a	1	n/a	n/a	n/a	n/a	n/a
3294.33	n/a	RECOG_CONF	1647165	n/a	LTP242	ltpFR	18	6	0	PIANO	1057	n/a	5	1	n/a	n/a	n/a	n/a	n/a
3295.652	n/a	RECOG_TARGET	1647826	n/a	LTP242	ltpFR	18	6	0	INTESTINE	742	1	5	0	n/a	n/a	n/a	n/a	n/a
3296.268	n/a	RECOG_RESP	1648134	n/a	LTP242	ltpFR	18	6	0	INTESTINE	742	1	n/a	0	n/a	n/a	n/a	n/a	n/a
3296.892	n/a	RECOG_CONF	1648446	n/a	LTP242	ltpFR	18	6	0	INTESTINE	742	n/a	5	0	n/a	n/a	n/a	n/a	n/a
3298.162	n/a	RECOG_TARGET	1649081	n/a	LTP242	ltpFR	18	6	0	WATERFALL	1595	1	5	1	n/a	n/a	n/a	n/a	n/a
3298.644	n/a	RECOG_RESP	1649322	n/a	LTP242	ltpFR	18	6	0	WATERFALL	1595	1	n/a	1	n/a	n/a	n/a	n/a	n/a
3299.124	n/a	RECOG_CONF	1649562	n/a	LTP242	ltpFR	18	6	0	WATERFALL	1595	n/a	5	1	n/a	n/a	n/a	n/a	n/a
3300.538	n/a	RECOG_LURE	1650269	n/a	LTP242	ltpFR	18	6	n/a	PROTRACTOR	1133	0	4	n/a	n/a	n/a	n/a	n/a	n/a
3301.45	n/a	RECOG_RESP	1650725	n/a	LTP242	ltpFR	18	6	n/a	PROTRACTOR	1133	0	n/a	n/a	n/a	n/a	n/a	n/a	n/a
3302.0	n/a	RECOG_CONF	1651000	n/a	LTP242	ltpFR	18	6	n/a	PROTRACTOR	1133	n/a	4	n/a	n/a	n/a	n/a	n/a	n/a
3303.578	n/a	RECOG_TARGET	1651789	n/a	LTP242	ltpFR	18	6	1	PONY	1102	1	4	1	n/a	n/a	n/a	n/a	n/a
3304.058	n/a	RECOG_RESP	1652029	n/a	LTP242	ltpFR	18	6	1	PONY	1102	1	n/a	1	n/a	n/a	n/a	n/a	n/a
3304.656	n/a	RECOG_CONF	1652328	n/a	LTP242	ltpFR	18	6	1	PONY	1102	n/a	4	1	n/a	n/a	n/a	n/a	n/a
3306.038	n/a	RECOG_TARGET	1653019	n/a	LTP242	ltpFR	18	6	0	SHIRT	1287	1	5	1	n/a	n/a	n/a	n/a	n/a
3306.596	n/a	RECOG_RESP	1653298	n/a	LTP242	ltpFR	18	6	0	SHIRT	1287	1	n/a	1	n/a	n/a	n/a	n/a	n/a
3307.068	n/a	RECOG_CONF	1653534	n/a	LTP242	ltpFR	18	6	0	SHIRT	1287	n/a	5	1	n/a	n/a	n/a	n/a	n/a
3310.394	n/a	REC_START	1655197	n/a	LTP242	ltpFR	18	7	n/a	n/a	n/a	n/a	n/a	n/a	n/a	n/a	n/a	n/a	n/a
3310.458	n/a	RECOG_LURE	1655229	n/a	LTP242	ltpFR	18	7	n/a	BALLERINA	74	0	4	n/a	n/a	n/a	n/a	n/a	n/a
3311.508	n/a	RECOG_RESP	1655754	n/a	LTP242	ltpFR	18	7	n/a	BALLERINA	74	0	n/a	n/a	n/a	n/a	n/a	n/a	n/a
3312.012	n/a	RECOG_CONF	1656006	n/a	LTP242	ltpFR	18	7	n/a	BALLERINA	74	n/a	4	n/a	n/a	n/a	n/a	n/a	n/a
3313.584	n/a	RECOG_TARGET	1656792	n/a	LTP242	ltpFR	18	7	-1	BATTERY	101	1	4	-1	n/a	n/a	n/a	n/a	n/a
3314.13	n/a	RECOG_RESP	1657065	n/a	LTP242	ltpFR	18	7	-1	BATTERY	101	1	n/a	-1	n/a	n/a	n/a	n/a	n/a
3314.706	n/a	RECOG_CONF	1657353	n/a	LTP242	ltpFR	18	7	-1	BATTERY	101	n/a	4	-1	n/a	n/a	n/a	n/a	n/a
3316.014	n/a	RECOG_TARGET	1658007	n/a	LTP242	ltpFR	18	7	1	PATROL	1027	1	4	1	n/a	n/a	n/a	n/a	n/a
3322.16	n/a	RECOG_RESP	1661080	n/a	LTP242	ltpFR	18	7	1	PATROL	1027	1	n/a	1	n/a	n/a	n/a	n/a	n/a
3322.662	n/a	RECOG_CONF	1661331	n/a	LTP242	ltpFR	18	7	1	PATROL	1027	n/a	4	1	n/a	n/a	n/a	n/a	n/a
3324.462	n/a	RECOG_TARGET	1662231	n/a	LTP242	ltpFR	18	7	0	BALLOON	75	1	5	0	n/a	n/a	n/a	n/a	n/a
3324.934	n/a	RECOG_RESP	1662467	n/a	LTP242	ltpFR	18	7	0	BALLOON	75	1	n/a	0	n/a	n/a	n/a	n/a	n/a
3325.462	n/a	RECOG_CONF	1662731	n/a	LTP242	ltpFR	18	7	0	BALLOON	75	n/a	5	0	n/a	n/a	n/a	n/a	n/a
3326.788	n/a	RECOG_TARGET	1663394	n/a	LTP242	ltpFR	18	7	0	DOORBELL	487	0	4	2	n/a	n/a	n/a	n/a	n/a
3327.156	n/a	RECOG_RESP_VV	1663578	n/a	LTP242	ltpFR	18	7	0	DOORBELL	487	1	n/a	2	n/a	n/a	n/a	n/a	n/a
3328.608	n/a	RECOG_RESP	1664304	n/a	LTP242	ltpFR	18	7	0	DOORBELL	487	0	n/a	2	n/a	n/a	n/a	n/a	n/a
3329.058	n/a	RECOG_CONF	1664529	n/a	LTP242	ltpFR	18	7	0	DOORBELL	487	n/a	4	2	n/a	n/a	n/a	n/a	n/a
3330.598	n/a	RECOG_TARGET	1665299	n/a	LTP242	ltpFR	18	7	0	NUCLEUS	961	1	5	0	n/a	n/a	n/a	n/a	n/a
3332.164	n/a	RECOG_RESP	1666082	n/a	LTP242	ltpFR	18	7	0	NUCLEUS	961	1	n/a	0	n/a	n/a	n/a	n/a	n/a
3332.64	n/a	RECOG_CONF	1666320	n/a	LTP242	ltpFR	18	7	0	NUCLEUS	961	n/a	5	0	n/a	n/a	n/a	n/a	n/a
3334.116	n/a	RECOG_LURE	1667058	n/a	LTP242	ltpFR	18	7	n/a	BELLY	119	0	3	n/a	n/a	n/a	n/a	n/a	n/a
3335.088	n/a	RECOG_RESP	1667544	n/a	LTP242	ltpFR	18	7	n/a	BELLY	119	0	n/a	n/a	n/a	n/a	n/a	n/a	n/a
3335.514	n/a	RECOG_CONF	1667757	n/a	LTP242	ltpFR	18	7	n/a	BELLY	119	n/a	3	n/a	n/a	n/a	n/a	n/a	n/a
3337.076	n/a	RECOG_TARGET	1668538	n/a	LTP242	ltpFR	18	7	1	TRUCK	1512	1	4	0	n/a	n/a	n/a	n/a	n/a
3337.782	n/a	RECOG_RESP	1668891	n/a	LTP242	ltpFR	18	7	1	TRUCK	1512	1	n/a	0	n/a	n/a	n/a	n/a	n/a
3338.238	n/a	RECOG_CONF	1669119	n/a	LTP242	ltpFR	18	7	1	TRUCK	1512	n/a	4	0	n/a	n/a	n/a	n/a	n/a
3339.854	n/a	RECOG_TARGET	1669927	n/a	LTP242	ltpFR	18	7	0	GROCERIES	663	1	5	1	n/a	n/a	n/a	n/a	n/a
3340.494	n/a	RECOG_RESP	1670247	n/a	LTP242	ltpFR	18	7	0	GROCERIES	663	1	n/a	1	n/a	n/a	n/a	n/a	n/a
3340.96	n/a	RECOG_CONF	1670480	n/a	LTP242	ltpFR	18	7	0	GROCERIES	663	n/a	5	1	n/a	n/a	n/a	n/a	n/a
3342.514	n/a	RECOG_TARGET	1671257	n/a	LTP242	ltpFR	18	7	-1	SENATE	1267	1	4	-1	n/a	n/a	n/a	n/a	n/a
3343.066	n/a	RECOG_RESP	1671533	n/a	LTP242	ltpFR	18	7	-1	SENATE	1267	1	n/a	-1	n/a	n/a	n/a	n/a	n/a
3343.666	n/a	RECOG_CONF	1671833	n/a	LTP242	ltpFR	18	7	-1	SENATE	1267	n/a	4	-1	n/a	n/a	n/a	n/a	n/a
3344.94	n/a	RECOG_TARGET	1672470	n/a	LTP242	ltpFR	18	7	-1	WRIST	1626	1	4	-1	n/a	n/a	n/a	n/a	n/a
