mstime	trial_type	stim_file	subject	experiment	session	trial	task	item_name	item_num	recog_conf	resp	answer	test_x	test_y	test_z	color_b	color_g	color_r	case	font
0	SESS_START	n/a	LTP209	ltpFR	11	n/a	n/a	n/a	n/a	n/a	n/a	n/a	0	0	0	n/a	n/a	n/a	n/a	n/a
46885	START	n/a	LTP209	ltpFR	11	n/a	n/a	n/a	n/a	n/a	n/a	n/a	n/a	n/a	n/a	n/a	n/a	n/a	n/a	n/a
46939	PROB	n/a	LTP209	ltpFR	11	n/a	n/a	n/a	n/a	n/a	n/a	16	7	2	7	n/a	n/a	n/a	n/a	n/a
48662	PROB	n/a	LTP209	ltpFR	11	n/a	n/a	n/a	n/a	n/a	n/a	23	9	5	9	n/a	n/a	n/a	n/a	n/a
51538	PROB	n/a	LTP209	ltpFR	11	n/a	n/a	n/a	n/a	n/a	n/a	17	2	8	7	n/a	n/a	n/a	n/a	n/a
53229	PROB	n/a	LTP209	ltpFR	11	n/a	n/a	n/a	n/a	n/a	n/a	19	9	7	3	n/a	n/a	n/a	n/a	n/a
55571	PROB	n/a	LTP209	ltpFR	11	n/a	n/a	n/a	n/a	n/a	n/a	5	1	3	1	n/a	n/a	n/a	n/a	n/a
56474	PROB	n/a	LTP209	ltpFR	11	n/a	n/a	n/a	n/a	n/a	n/a	7	4	2	1	n/a	n/a	n/a	n/a	n/a
58026	PROB	n/a	LTP209	ltpFR	11	n/a	n/a	n/a	n/a	n/a	n/a	22	9	7	6	n/a	n/a	n/a	n/a	n/a
60355	PROB	n/a	LTP209	ltpFR	11	n/a	n/a	n/a	n/a	n/a	n/a	26	9	8	9	n/a	n/a	n/a	n/a	n/a
62849	PROB	n/a	LTP209	ltpFR	11	n/a	n/a	n/a	n/a	n/a	n/a	12	6	5	1	n/a	n/a	n/a	n/a	n/a
63986	PROB	n/a	LTP209	ltpFR	11	n/a	n/a	n/a	n/a	n/a	n/a	8	4	2	1	n/a	n/a	n/a	n/a	n/a
66885	STOP	n/a	LTP209	ltpFR	11	n/a	n/a	n/a	n/a	n/a	n/a	n/a	n/a	n/a	n/a	n/a	n/a	n/a	n/a	n/a
112514	WORD	wordpools/wasnorm_wordpool_less_exclusions.txt	LTP209	ltpFR	11	1	0	JEANS	752	n/a	0	n/a	0	0	0	1	0.412841796875	0.57763671875	lower	../fonts/zerothre.ttf
116412	WORD	wordpools/wasnorm_wordpool_less_exclusions.txt	LTP209	ltpFR	11	1	0	MARINE	869	n/a	1	n/a	0	0	0	1	0.412841796875	0.57763671875	lower	../fonts/zerothre.ttf
120265	WORD	wordpools/wasnorm_wordpool_less_exclusions.txt	LTP209	ltpFR	11	1	0	PLUM	1090	n/a	0	n/a	0	0	0	1	0.412841796875	0.57763671875	lower	../fonts/zerothre.ttf
124180	WORD	wordpools/wasnorm_wordpool_less_exclusions.txt	LTP209	ltpFR	11	1	0	WAND	1586	n/a	0	n/a	0	0	0	1	0.412841796875	0.57763671875	lower	../fonts/zerothre.ttf
128207	WORD	wordpools/wasnorm_wordpool_less_exclusions.txt	LTP209	ltpFR	11	1	0	SLACKS	1323	n/a	0	n/a	0	0	0	1	0.412841796875	0.57763671875	lower	../fonts/zerothre.ttf
132393	WORD	wordpools/wasnorm_wordpool_less_exclusions.txt	LTP209	ltpFR	11	1	0	PATIO	1025	n/a	1	n/a	0	0	0	1	0.412841796875	0.57763671875	lower	../fonts/zerothre.ttf
136242	WORD	wordpools/wasnorm_wordpool_less_exclusions.txt	LTP209	ltpFR	11	1	0	EMPLOYEE	531	n/a	1	n/a	0	0	0	1	0.412841796875	0.57763671875	lower	../fonts/zerothre.ttf
140469	WORD	wordpools/wasnorm_wordpool_less_exclusions.txt	LTP209	ltpFR	11	1	0	CHURCH	307	n/a	1	n/a	0	0	0	1	0.412841796875	0.57763671875	lower	../fonts/zerothre.ttf
144590	WORD	wordpools/wasnorm_wordpool_less_exclusions.txt	LTP209	ltpFR	11	1	0	CROSS	413	n/a	1	n/a	0	0	0	1	0.412841796875	0.57763671875	lower	../fonts/zerothre.ttf
148618	WORD	wordpools/wasnorm_wordpool_less_exclusions.txt	LTP209	ltpFR	11	1	0	WAVE	1596	n/a	1	n/a	0	0	0	1	0.412841796875	0.57763671875	lower	../fonts/zerothre.ttf
152716	WORD	wordpools/wasnorm_wordpool_less_exclusions.txt	LTP209	ltpFR	11	1	0	BUCKET	184	n/a	0	n/a	0	0	0	1	0.412841796875	0.57763671875	lower	../fonts/zerothre.ttf
156853	WORD	wordpools/wasnorm_wordpool_less_exclusions.txt	LTP209	ltpFR	11	1	0	GRILL	661	n/a	1	n/a	0	0	0	1	0.412841796875	0.57763671875	lower	../fonts/zerothre.ttf
160985	WORD	wordpools/wasnorm_wordpool_less_exclusions.txt	LTP209	ltpFR	11	1	0	WAITRESS	1581	n/a	1	n/a	0	0	0	1	0.412841796875	0.57763671875	lower	../fonts/zerothre.ttf
164816	WORD	wordpools/wasnorm_wordpool_less_exclusions.txt	LTP209	ltpFR	11	1	0	SHACK	1273	n/a	1	n/a	0	0	0	1	0.412841796875	0.57763671875	lower	../fonts/zerothre.ttf
168915	WORD	wordpools/wasnorm_wordpool_less_exclusions.txt	LTP209	ltpFR	11	1	0	STAPLE	1371	n/a	0	n/a	0	0	0	1	0.412841796875	0.57763671875	lower	../fonts/zerothre.ttf
173014	WORD	wordpools/wasnorm_wordpool_less_exclusions.txt	LTP209	ltpFR	11	1	0	HOOK	715	n/a	0	n/a	0	0	0	1	0.412841796875	0.57763671875	lower	../fonts/zerothre.ttf
176026	START	n/a	LTP209	ltpFR	11	n/a	n/a	n/a	n/a	n/a	n/a	n/a	n/a	n/a	n/a	n/a	n/a	n/a	n/a	n/a
177175	PROB	n/a	LTP209	ltpFR	11	n/a	n/a	n/a	n/a	n/a	n/a	20	9	3	8	n/a	n/a	n/a	n/a	n/a
180403	PROB	n/a	LTP209	ltpFR	11	n/a	n/a	n/a	n/a	n/a	n/a	12	3	5	4	n/a	n/a	n/a	n/a	n/a
181830	PROB	n/a	LTP209	ltpFR	11	n/a	n/a	n/a	n/a	n/a	n/a	13	9	2	2	n/a	n/a	n/a	n/a	n/a
183318	STOP	n/a	LTP209	ltpFR	11	n/a	n/a	n/a	n/a	n/a	n/a	n/a	n/a	n/a	n/a	n/a	n/a	n/a	n/a	n/a
185959	REC_START	n/a	LTP209	ltpFR	11	1	n/a	n/a	n/a	n/a	n/a	n/a	0	0	0	n/a	n/a	n/a	n/a	n/a
188154	REC_WORD	wordpools/wasnorm_wordpool_less_exclusions.txt	LTP209	ltpFR	11	1	0	SHACK	1273	n/a	1	n/a	0	0	0	n/a	n/a	n/a	n/a	n/a
189281	REC_WORD	wordpools/wasnorm_wordpool_less_exclusions.txt	LTP209	ltpFR	11	1	0	WAITRESS	1581	n/a	1	n/a	0	0	0	n/a	n/a	n/a	n/a	n/a
191601	REC_WORD	wordpools/wasnorm_wordpool_less_exclusions.txt	LTP209	ltpFR	11	1	0	EMPLOYEE	531	n/a	1	n/a	0	0	0	n/a	n/a	n/a	n/a	n/a
193003	REC_WORD	wordpools/wasnorm_wordpool_less_exclusions.txt	LTP209	ltpFR	11	1	0	MARINE	869	n/a	1	n/a	0	0	0	n/a	n/a	n/a	n/a	n/a
195602	REC_WORD	wordpools/wasnorm_wordpool_less_exclusions.txt	LTP209	ltpFR	11	1	0	PLUM	1090	n/a	0	n/a	0	0	0	n/a	n/a	n/a	n/a	n/a
199199	REC_WORD	wordpools/wasnorm_wordpool_less_exclusions.txt	LTP209	ltpFR	11	1	0	CHURCH	307	n/a	1	n/a	0	0	0	n/a	n/a	n/a	n/a	n/a
200211	REC_WORD	wordpools/wasnorm_wordpool_less_exclusions.txt	LTP209	ltpFR	11	1	0	CROSS	413	n/a	1	n/a	0	0	0	n/a	n/a	n/a	n/a	n/a
202950	REC_WORD	wordpools/wasnorm_wordpool_less_exclusions.txt	LTP209	ltpFR	11	1	0	SLACKS	1323	n/a	0	n/a	0	0	0	n/a	n/a	n/a	n/a	n/a
204586	REC_WORD	wordpools/wasnorm_wordpool_less_exclusions.txt	LTP209	ltpFR	11	1	0	JEANS	752	n/a	0	n/a	0	0	0	n/a	n/a	n/a	n/a	n/a
206123	REC_WORD	wordpools/wasnorm_wordpool_less_exclusions.txt	LTP209	ltpFR	11	1	0	HOOK	715	n/a	0	n/a	0	0	0	n/a	n/a	n/a	n/a	n/a
208752	REC_WORD	wordpools/wasnorm_wordpool_less_exclusions.txt	LTP209	ltpFR	11	1	0	WAND	1586	n/a	0	n/a	0	0	0	n/a	n/a	n/a	n/a	n/a
213336	REC_WORD	wordpools/wasnorm_wordpool_less_exclusions.txt	LTP209	ltpFR	11	1	n/a	PORCH	1106	n/a	n/a	n/a	0	0	0	n/a	n/a	n/a	n/a	n/a
217848	REC_WORD	wordpools/wasnorm_wordpool_less_exclusions.txt	LTP209	ltpFR	11	1	0	STAPLE	1371	n/a	0	n/a	0	0	0	n/a	n/a	n/a	n/a	n/a
219932	REC_WORD	wordpools/wasnorm_wordpool_less_exclusions.txt	LTP209	ltpFR	11	1	0	BUCKET	184	n/a	0	n/a	0	0	0	n/a	n/a	n/a	n/a	n/a
221638	REC_WORD	wordpools/wasnorm_wordpool_less_exclusions.txt	LTP209	ltpFR	11	1	0	GRILL	661	n/a	1	n/a	0	0	0	n/a	n/a	n/a	n/a	n/a
246371	REC_WORD	wordpools/wasnorm_wordpool_less_exclusions.txt	LTP209	ltpFR	11	1	0	WAVE	1596	n/a	1	n/a	0	0	0	n/a	n/a	n/a	n/a	n/a
264994	START	n/a	LTP209	ltpFR	11	n/a	n/a	n/a	n/a	n/a	n/a	n/a	n/a	n/a	n/a	n/a	n/a	n/a	n/a	n/a
266511	PROB	n/a	LTP209	ltpFR	11	n/a	n/a	n/a	n/a	n/a	n/a	14	6	2	6	n/a	n/a	n/a	n/a	n/a
268106	PROB	n/a	LTP209	ltpFR	11	n/a	n/a	n/a	n/a	n/a	n/a	9	3	1	5	n/a	n/a	n/a	n/a	n/a
270113	PROB	n/a	LTP209	ltpFR	11	n/a	n/a	n/a	n/a	n/a	n/a	10	2	1	7	n/a	n/a	n/a	n/a	n/a
271446	STOP	n/a	LTP209	ltpFR	11	n/a	n/a	n/a	n/a	n/a	n/a	n/a	n/a	n/a	n/a	n/a	n/a	n/a	n/a	n/a
274195	WORD	wordpools/wasnorm_wordpool_less_exclusions.txt	LTP209	ltpFR	11	2	1	MUSTARD	935	n/a	1	n/a	0	0	0	0	0.5869140625	0.422607421875	upper	../fonts/amplitud.ttf
277220	START	n/a	LTP209	ltpFR	11	n/a	n/a	n/a	n/a	n/a	n/a	n/a	n/a	n/a	n/a	n/a	n/a	n/a	n/a	n/a
278244	PROB	n/a	LTP209	ltpFR	11	n/a	n/a	n/a	n/a	n/a	n/a	15	2	8	5	n/a	n/a	n/a	n/a	n/a
279883	PROB	n/a	LTP209	ltpFR	11	n/a	n/a	n/a	n/a	n/a	n/a	15	7	1	7	n/a	n/a	n/a	n/a	n/a
280954	PROB	n/a	LTP209	ltpFR	11	n/a	n/a	n/a	n/a	n/a	n/a	20	7	6	7	n/a	n/a	n/a	n/a	n/a
283429	PROB	n/a	LTP209	ltpFR	11	n/a	n/a	n/a	n/a	n/a	n/a	6	1	2	3	n/a	n/a	n/a	n/a	n/a
284374	STOP	n/a	LTP209	ltpFR	11	n/a	n/a	n/a	n/a	n/a	n/a	n/a	n/a	n/a	n/a	n/a	n/a	n/a	n/a	n/a
286207	WORD	wordpools/wasnorm_wordpool_less_exclusions.txt	LTP209	ltpFR	11	2	1	DAD	433	n/a	1	n/a	0	0	0	0	0.5869140625	0.422607421875	upper	../fonts/amplitud.ttf
289219	START	n/a	LTP209	ltpFR	11	n/a	n/a	n/a	n/a	n/a	n/a	n/a	n/a	n/a	n/a	n/a	n/a	n/a	n/a	n/a
290172	PROB	n/a	LTP209	ltpFR	11	n/a	n/a	n/a	n/a	n/a	n/a	10	1	4	5	n/a	n/a	n/a	n/a	n/a
291239	PROB	n/a	LTP209	ltpFR	11	n/a	n/a	n/a	n/a	n/a	n/a	14	8	1	5	n/a	n/a	n/a	n/a	n/a
293150	PROB	n/a	LTP209	ltpFR	11	n/a	n/a	n/a	n/a	n/a	n/a	13	4	4	5	n/a	n/a	n/a	n/a	n/a
296695	STOP	n/a	LTP209	ltpFR	11	n/a	n/a	n/a	n/a	n/a	n/a	n/a	n/a	n/a	n/a	n/a	n/a	n/a	n/a	n/a
298419	WORD	wordpools/wasnorm_wordpool_less_exclusions.txt	LTP209	ltpFR	11	2	0	RAFT	1159	n/a	1	n/a	0	0	0	1	0.412841796875	0.57763671875	lower	../fonts/zerothre.ttf
301431	START	n/a	LTP209	ltpFR	11	n/a	n/a	n/a	n/a	n/a	n/a	n/a	n/a	n/a	n/a	n/a	n/a	n/a	n/a	n/a
302280	PROB	n/a	LTP209	ltpFR	11	n/a	n/a	n/a	n/a	n/a	n/a	9	1	6	2	n/a	n/a	n/a	n/a	n/a
304020	PROB	n/a	LTP209	ltpFR	11	n/a	n/a	n/a	n/a	n/a	n/a	10	1	3	6	n/a	n/a	n/a	n/a	n/a
305814	PROB	n/a	LTP209	ltpFR	11	n/a	n/a	n/a	n/a	n/a	n/a	15	3	3	9	n/a	n/a	n/a	n/a	n/a
307065	PROB	n/a	LTP209	ltpFR	11	n/a	n/a	n/a	n/a	n/a	n/a	12	6	1	5	n/a	n/a	n/a	n/a	n/a
308199	STOP	n/a	LTP209	ltpFR	11	n/a	n/a	n/a	n/a	n/a	n/a	n/a	n/a	n/a	n/a	n/a	n/a	n/a	n/a	n/a
310527	WORD	wordpools/wasnorm_wordpool_less_exclusions.txt	LTP209	ltpFR	11	2	0	POTATO	1115	n/a	0	n/a	0	0	0	1	0.412841796875	0.57763671875	lower	../fonts/zerothre.ttf
313543	START	n/a	LTP209	ltpFR	11	n/a	n/a	n/a	n/a	n/a	n/a	n/a	n/a	n/a	n/a	n/a	n/a	n/a	n/a	n/a
314631	PROB	n/a	LTP209	ltpFR	11	n/a	n/a	n/a	n/a	n/a	n/a	14	9	4	1	n/a	n/a	n/a	n/a	n/a
316032	PROB	n/a	LTP209	ltpFR	11	n/a	n/a	n/a	n/a	n/a	n/a	12	2	4	6	n/a	n/a	n/a	n/a	n/a
317186	PROB	n/a	LTP209	ltpFR	11	n/a	n/a	n/a	n/a	n/a	n/a	10	5	3	2	n/a	n/a	n/a	n/a	n/a
318893	PROB	n/a	LTP209	ltpFR	11	n/a	n/a	n/a	n/a	n/a	n/a	18	8	3	7	n/a	n/a	n/a	n/a	n/a
320263	STOP	n/a	LTP209	ltpFR	11	n/a	n/a	n/a	n/a	n/a	n/a	n/a	n/a	n/a	n/a	n/a	n/a	n/a	n/a	n/a
322459	WORD	wordpools/wasnorm_wordpool_less_exclusions.txt	LTP209	ltpFR	11	2	0	MINK	897	n/a	1	n/a	0	0	0	1	0.412841796875	0.57763671875	lower	../fonts/zerothre.ttf
325471	START	n/a	LTP209	ltpFR	11	n/a	n/a	n/a	n/a	n/a	n/a	n/a	n/a	n/a	n/a	n/a	n/a	n/a	n/a	n/a
326437	PROB	n/a	LTP209	ltpFR	11	n/a	n/a	n/a	n/a	n/a	n/a	10	1	8	1	n/a	n/a	n/a	n/a	n/a
327558	PROB	n/a	LTP209	ltpFR	11	n/a	n/a	n/a	n/a	n/a	n/a	15	9	1	5	n/a	n/a	n/a	n/a	n/a
328680	PROB	n/a	LTP209	ltpFR	11	n/a	n/a	n/a	n/a	n/a	n/a	18	4	9	5	n/a	n/a	n/a	n/a	n/a
330240	PROB	n/a	LTP209	ltpFR	11	n/a	n/a	n/a	n/a	n/a	n/a	12	2	5	5	n/a	n/a	n/a	n/a	n/a
333470	STOP	n/a	LTP209	ltpFR	11	n/a	n/a	n/a	n/a	n/a	n/a	n/a	n/a	n/a	n/a	n/a	n/a	n/a	n/a	n/a
334421	WORD	wordpools/wasnorm_wordpool_less_exclusions.txt	LTP209	ltpFR	11	2	0	PADDLE	1000	n/a	1	n/a	0	0	0	1	0.412841796875	0.57763671875	lower	../fonts/zerothre.ttf
337433	START	n/a	LTP209	ltpFR	11	n/a	n/a	n/a	n/a	n/a	n/a	n/a	n/a	n/a	n/a	n/a	n/a	n/a	n/a	n/a
338605	PROB	n/a	LTP209	ltpFR	11	n/a	n/a	n/a	n/a	n/a	n/a	13	1	9	3	n/a	n/a	n/a	n/a	n/a
340073	PROB	n/a	LTP209	ltpFR	11	n/a	n/a	n/a	n/a	n/a	n/a	14	6	5	3	n/a	n/a	n/a	n/a	n/a
341946	PROB	n/a	LTP209	ltpFR	11	n/a	n/a	n/a	n/a	n/a	n/a	17	4	7	6	n/a	n/a	n/a	n/a	n/a
345433	STOP	n/a	LTP209	ltpFR	11	n/a	n/a	n/a	n/a	n/a	n/a	n/a	n/a	n/a	n/a	n/a	n/a	n/a	n/a	n/a
346664	WORD	wordpools/wasnorm_wordpool_less_exclusions.txt	LTP209	ltpFR	11	2	0	VOLLEYBALL	1576	n/a	1	n/a	0	0	0	1	0.412841796875	0.57763671875	lower	../fonts/zerothre.ttf
349680	START	n/a	LTP209	ltpFR	11	n/a	n/a	n/a	n/a	n/a	n/a	n/a	n/a	n/a	n/a	n/a	n/a	n/a	n/a	n/a
350498	PROB	n/a	LTP209	ltpFR	11	n/a	n/a	n/a	n/a	n/a	n/a	16	3	7	6	n/a	n/a	n/a	n/a	n/a
352269	PROB	n/a	LTP209	ltpFR	11	n/a	n/a	n/a	n/a	n/a	n/a	15	5	9	1	n/a	n/a	n/a	n/a	n/a
353522	PROB	n/a	LTP209	ltpFR	11	n/a	n/a	n/a	n/a	n/a	n/a	14	4	7	3	n/a	n/a	n/a	n/a	n/a
355631	PROB	n/a	LTP209	ltpFR	11	n/a	n/a	n/a	n/a	n/a	n/a	18	8	5	5	n/a	n/a	n/a	n/a	n/a
356767	STOP	n/a	LTP209	ltpFR	11	n/a	n/a	n/a	n/a	n/a	n/a	n/a	n/a	n/a	n/a	n/a	n/a	n/a	n/a	n/a
358512	WORD	wordpools/wasnorm_wordpool_less_exclusions.txt	LTP209	ltpFR	11	2	0	DUNGEON	507	n/a	1	n/a	0	0	0	1	0.412841796875	0.57763671875	lower	../fonts/zerothre.ttf
361524	START	n/a	LTP209	ltpFR	11	n/a	n/a	n/a	n/a	n/a	n/a	n/a	n/a	n/a	n/a	n/a	n/a	n/a	n/a	n/a
362527	PROB	n/a	LTP209	ltpFR	11	n/a	n/a	n/a	n/a	n/a	n/a	23	6	8	9	n/a	n/a	n/a	n/a	n/a
365234	PROB	n/a	LTP209	ltpFR	11	n/a	n/a	n/a	n/a	n/a	n/a	23	9	6	8	n/a	n/a	n/a	n/a	n/a
368558	STOP	n/a	LTP209	ltpFR	11	n/a	n/a	n/a	n/a	n/a	n/a	n/a	n/a	n/a	n/a	n/a	n/a	n/a	n/a	n/a
370503	WORD	wordpools/wasnorm_wordpool_less_exclusions.txt	LTP209	ltpFR	11	2	1	HERD	705	n/a	0	n/a	0	0	0	0	0.5869140625	0.422607421875	upper	../fonts/amplitud.ttf
373519	START	n/a	LTP209	ltpFR	11	n/a	n/a	n/a	n/a	n/a	n/a	n/a	n/a	n/a	n/a	n/a	n/a	n/a	n/a	n/a
374468	PROB	n/a	LTP209	ltpFR	11	n/a	n/a	n/a	n/a	n/a	n/a	20	6	6	8	n/a	n/a	n/a	n/a	n/a
376577	PROB	n/a	LTP209	ltpFR	11	n/a	n/a	n/a	n/a	n/a	n/a	18	8	4	6	n/a	n/a	n/a	n/a	n/a
378656	PROB	n/a	LTP209	ltpFR	11	n/a	n/a	n/a	n/a	n/a	n/a	12	9	2	1	n/a	n/a	n/a	n/a	n/a
380287	STOP	n/a	LTP209	ltpFR	11	n/a	n/a	n/a	n/a	n/a	n/a	n/a	n/a	n/a	n/a	n/a	n/a	n/a	n/a	n/a
382402	WORD	wordpools/wasnorm_wordpool_less_exclusions.txt	LTP209	ltpFR	11	2	1	SCAPEGOAT	1244	n/a	1	n/a	0	0	0	0	0.5869140625	0.422607421875	upper	../fonts/amplitud.ttf
385414	START	n/a	LTP209	ltpFR	11	n/a	n/a	n/a	n/a	n/a	n/a	n/a	n/a	n/a	n/a	n/a	n/a	n/a	n/a	n/a
386534	PROB	n/a	LTP209	ltpFR	11	n/a	n/a	n/a	n/a	n/a	n/a	13	6	1	6	n/a	n/a	n/a	n/a	n/a
387669	PROB	n/a	LTP209	ltpFR	11	n/a	n/a	n/a	n/a	n/a	n/a	13	6	5	2	n/a	n/a	n/a	n/a	n/a
389328	PROB	n/a	LTP209	ltpFR	11	n/a	n/a	n/a	n/a	n/a	n/a	10	1	3	6	n/a	n/a	n/a	n/a	n/a
391352	PROB	n/a	LTP209	ltpFR	11	n/a	n/a	n/a	n/a	n/a	n/a	11	7	1	3	n/a	n/a	n/a	n/a	n/a
392703	STOP	n/a	LTP209	ltpFR	11	n/a	n/a	n/a	n/a	n/a	n/a	n/a	n/a	n/a	n/a	n/a	n/a	n/a	n/a	n/a
394364	WORD	wordpools/wasnorm_wordpool_less_exclusions.txt	LTP209	ltpFR	11	2	1	GIRAFFE	636	n/a	1	n/a	0	0	0	0	0.5869140625	0.422607421875	upper	../fonts/amplitud.ttf
397376	START	n/a	LTP209	ltpFR	11	n/a	n/a	n/a	n/a	n/a	n/a	n/a	n/a	n/a	n/a	n/a	n/a	n/a	n/a	n/a
398280	PROB	n/a	LTP209	ltpFR	11	n/a	n/a	n/a	n/a	n/a	n/a	15	6	1	8	n/a	n/a	n/a	n/a	n/a
400399	PROB	n/a	LTP209	ltpFR	11	n/a	n/a	n/a	n/a	n/a	n/a	8	2	5	1	n/a	n/a	n/a	n/a	n/a
401571	PROB	n/a	LTP209	ltpFR	11	n/a	n/a	n/a	n/a	n/a	n/a	19	4	6	9	n/a	n/a	n/a	n/a	n/a
403177	PROB	n/a	LTP209	ltpFR	11	n/a	n/a	n/a	n/a	n/a	n/a	17	6	6	5	n/a	n/a	n/a	n/a	n/a
405047	STOP	n/a	LTP209	ltpFR	11	n/a	n/a	n/a	n/a	n/a	n/a	n/a	n/a	n/a	n/a	n/a	n/a	n/a	n/a	n/a
406476	WORD	wordpools/wasnorm_wordpool_less_exclusions.txt	LTP209	ltpFR	11	2	0	FLESH	579	n/a	1	n/a	0	0	0	1	0.412841796875	0.57763671875	lower	../fonts/zerothre.ttf
409488	START	n/a	LTP209	ltpFR	11	n/a	n/a	n/a	n/a	n/a	n/a	n/a	n/a	n/a	n/a	n/a	n/a	n/a	n/a	n/a
410576	PROB	n/a	LTP209	ltpFR	11	n/a	n/a	n/a	n/a	n/a	n/a	9	2	6	1	n/a	n/a	n/a	n/a	n/a
413800	PROB	n/a	LTP209	ltpFR	11	n/a	n/a	n/a	n/a	n/a	n/a	10	3	3	4	n/a	n/a	n/a	n/a	n/a
415574	PROB	n/a	LTP209	ltpFR	11	n/a	n/a	n/a	n/a	n/a	n/a	14	8	4	2	n/a	n/a	n/a	n/a	n/a
416783	STOP	n/a	LTP209	ltpFR	11	n/a	n/a	n/a	n/a	n/a	n/a	n/a	n/a	n/a	n/a	n/a	n/a	n/a	n/a	n/a
418555	WORD	wordpools/wasnorm_wordpool_less_exclusions.txt	LTP209	ltpFR	11	2	0	SKIN	1318	n/a	1	n/a	0	0	0	1	0.412841796875	0.57763671875	lower	../fonts/zerothre.ttf
421567	START	n/a	LTP209	ltpFR	11	n/a	n/a	n/a	n/a	n/a	n/a	n/a	n/a	n/a	n/a	n/a	n/a	n/a	n/a	n/a
422436	PROB	n/a	LTP209	ltpFR	11	n/a	n/a	n/a	n/a	n/a	n/a	21	5	9	7	n/a	n/a	n/a	n/a	n/a
426147	PROB	n/a	LTP209	ltpFR	11	n/a	n/a	n/a	n/a	n/a	n/a	17	3	8	6	n/a	n/a	n/a	n/a	n/a
428791	STOP	n/a	LTP209	ltpFR	11	n/a	n/a	n/a	n/a	n/a	n/a	n/a	n/a	n/a	n/a	n/a	n/a	n/a	n/a	n/a
430769	WORD	wordpools/wasnorm_wordpool_less_exclusions.txt	LTP209	ltpFR	11	2	1	GAZELLE	628	n/a	1	n/a	0	0	0	0	0.5869140625	0.422607421875	upper	../fonts/amplitud.ttf
433780	START	n/a	LTP209	ltpFR	11	n/a	n/a	n/a	n/a	n/a	n/a	n/a	n/a	n/a	n/a	n/a	n/a	n/a	n/a	n/a
434951	PROB	n/a	LTP209	ltpFR	11	n/a	n/a	n/a	n/a	n/a	n/a	10	3	5	2	n/a	n/a	n/a	n/a	n/a
437506	PROB	n/a	LTP209	ltpFR	11	n/a	n/a	n/a	n/a	n/a	n/a	16	3	5	8	n/a	n/a	n/a	n/a	n/a
440049	PROB	n/a	LTP209	ltpFR	11	n/a	n/a	n/a	n/a	n/a	n/a	16	6	7	3	n/a	n/a	n/a	n/a	n/a
441366	STOP	n/a	LTP209	ltpFR	11	n/a	n/a	n/a	n/a	n/a	n/a	n/a	n/a	n/a	n/a	n/a	n/a	n/a	n/a	n/a
442781	WORD	wordpools/wasnorm_wordpool_less_exclusions.txt	LTP209	ltpFR	11	2	1	GOLD	647	n/a	0	n/a	0	0	0	0	0.5869140625	0.422607421875	upper	../fonts/amplitud.ttf
445792	START	n/a	LTP209	ltpFR	11	n/a	n/a	n/a	n/a	n/a	n/a	n/a	n/a	n/a	n/a	n/a	n/a	n/a	n/a	n/a
446775	PROB	n/a	LTP209	ltpFR	11	n/a	n/a	n/a	n/a	n/a	n/a	9	4	3	2	n/a	n/a	n/a	n/a	n/a
448753	PROB	n/a	LTP209	ltpFR	11	n/a	n/a	n/a	n/a	n/a	n/a	9	1	1	7	n/a	n/a	n/a	n/a	n/a
449786	PROB	n/a	LTP209	ltpFR	11	n/a	n/a	n/a	n/a	n/a	n/a	11	5	3	3	n/a	n/a	n/a	n/a	n/a
451978	PROB	n/a	LTP209	ltpFR	11	n/a	n/a	n/a	n/a	n/a	n/a	9	4	4	1	n/a	n/a	n/a	n/a	n/a
452927	STOP	n/a	LTP209	ltpFR	11	n/a	n/a	n/a	n/a	n/a	n/a	n/a	n/a	n/a	n/a	n/a	n/a	n/a	n/a	n/a
454977	WORD	wordpools/wasnorm_wordpool_less_exclusions.txt	LTP209	ltpFR	11	2	1	IRON	744	n/a	0	n/a	0	0	0	0	0.5869140625	0.422607421875	upper	../fonts/amplitud.ttf
457988	START	n/a	LTP209	ltpFR	11	n/a	n/a	n/a	n/a	n/a	n/a	n/a	n/a	n/a	n/a	n/a	n/a	n/a	n/a	n/a
459159	PROB	n/a	LTP209	ltpFR	11	n/a	n/a	n/a	n/a	n/a	n/a	11	6	4	1	n/a	n/a	n/a	n/a	n/a
460475	PROB	n/a	LTP209	ltpFR	11	n/a	n/a	n/a	n/a	n/a	n/a	13	9	3	1	n/a	n/a	n/a	n/a	n/a
462082	PROB	n/a	LTP209	ltpFR	11	n/a	n/a	n/a	n/a	n/a	n/a	7	5	1	1	n/a	n/a	n/a	n/a	n/a
463153	PROB	n/a	LTP209	ltpFR	11	n/a	n/a	n/a	n/a	n/a	n/a	21	6	9	6	n/a	n/a	n/a	n/a	n/a
464903	STOP	n/a	LTP209	ltpFR	11	n/a	n/a	n/a	n/a	n/a	n/a	n/a	n/a	n/a	n/a	n/a	n/a	n/a	n/a	n/a
467805	REC_START	n/a	LTP209	ltpFR	11	2	n/a	n/a	n/a	n/a	n/a	n/a	0	0	0	n/a	n/a	n/a	n/a	n/a
469137	REC_WORD	wordpools/wasnorm_wordpool_less_exclusions.txt	LTP209	ltpFR	11	2	1	IRON	744	n/a	0	n/a	0	0	0	n/a	n/a	n/a	n/a	n/a
470519	REC_WORD	wordpools/wasnorm_wordpool_less_exclusions.txt	LTP209	ltpFR	11	2	1	GAZELLE	628	n/a	1	n/a	0	0	0	n/a	n/a	n/a	n/a	n/a
471950	REC_WORD	wordpools/wasnorm_wordpool_less_exclusions.txt	LTP209	ltpFR	11	2	0	POTATO	1115	n/a	0	n/a	0	0	0	n/a	n/a	n/a	n/a	n/a
473622	REC_WORD	wordpools/wasnorm_wordpool_less_exclusions.txt	LTP209	ltpFR	11	2	1	DAD	433	n/a	1	n/a	0	0	0	n/a	n/a	n/a	n/a	n/a
474854	REC_WORD	wordpools/wasnorm_wordpool_less_exclusions.txt	LTP209	ltpFR	11	2	0	RAFT	1159	n/a	1	n/a	0	0	0	n/a	n/a	n/a	n/a	n/a
476276	REC_WORD	wordpools/wasnorm_wordpool_less_exclusions.txt	LTP209	ltpFR	11	2	0	PADDLE	1000	n/a	1	n/a	0	0	0	n/a	n/a	n/a	n/a	n/a
478369	REC_WORD	wordpools/wasnorm_wordpool_less_exclusions.txt	LTP209	ltpFR	11	2	1	HERD	705	n/a	0	n/a	0	0	0	n/a	n/a	n/a	n/a	n/a
502621	REC_WORD	wordpools/wasnorm_wordpool_less_exclusions.txt	LTP209	ltpFR	11	2	1	GOLD	647	n/a	0	n/a	0	0	0	n/a	n/a	n/a	n/a	n/a
550755	START	n/a	LTP209	ltpFR	11	n/a	n/a	n/a	n/a	n/a	n/a	n/a	n/a	n/a	n/a	n/a	n/a	n/a	n/a	n/a
552260	PROB	n/a	LTP209	ltpFR	11	n/a	n/a	n/a	n/a	n/a	n/a	19	6	5	8	n/a	n/a	n/a	n/a	n/a
554446	PROB	n/a	LTP209	ltpFR	11	n/a	n/a	n/a	n/a	n/a	n/a	23	6	9	8	n/a	n/a	n/a	n/a	n/a
558232	PROB	n/a	LTP209	ltpFR	11	n/a	n/a	n/a	n/a	n/a	n/a	10	1	5	4	n/a	n/a	n/a	n/a	n/a
559448	PROB	n/a	LTP209	ltpFR	11	n/a	n/a	n/a	n/a	n/a	n/a	15	7	6	2	n/a	n/a	n/a	n/a	n/a
561561	PROB	n/a	LTP209	ltpFR	11	n/a	n/a	n/a	n/a	n/a	n/a	24	8	6	8	n/a	n/a	n/a	n/a	n/a
563665	PROB	n/a	LTP209	ltpFR	11	n/a	n/a	n/a	n/a	n/a	n/a	11	4	1	6	n/a	n/a	n/a	n/a	n/a
565223	STOP	n/a	LTP209	ltpFR	11	n/a	n/a	n/a	n/a	n/a	n/a	n/a	n/a	n/a	n/a	n/a	n/a	n/a	n/a	n/a
567664	WORD	wordpools/wasnorm_wordpool_less_exclusions.txt	LTP209	ltpFR	11	3	0	RAILROAD	1162	n/a	1	n/a	0	0	0	1	0.412841796875	0.57763671875	lower	../fonts/zerothre.ttf
570680	START	n/a	LTP209	ltpFR	11	n/a	n/a	n/a	n/a	n/a	n/a	n/a	n/a	n/a	n/a	n/a	n/a	n/a	n/a	n/a
571817	PROB	n/a	LTP209	ltpFR	11	n/a	n/a	n/a	n/a	n/a	n/a	19	9	7	3	n/a	n/a	n/a	n/a	n/a
573434	PROB	n/a	LTP209	ltpFR	11	n/a	n/a	n/a	n/a	n/a	n/a	13	3	1	9	n/a	n/a	n/a	n/a	n/a
574745	PROB	n/a	LTP209	ltpFR	11	n/a	n/a	n/a	n/a	n/a	n/a	15	8	3	4	n/a	n/a	n/a	n/a	n/a
576433	PROB	n/a	LTP209	ltpFR	11	n/a	n/a	n/a	n/a	n/a	n/a	18	7	2	9	n/a	n/a	n/a	n/a	n/a
578906	PROB	n/a	LTP209	ltpFR	11	n/a	n/a	n/a	n/a	n/a	n/a	12	3	7	2	n/a	n/a	n/a	n/a	n/a
580411	PROB	n/a	LTP209	ltpFR	11	n/a	n/a	n/a	n/a	n/a	n/a	16	7	1	8	n/a	n/a	n/a	n/a	n/a
581671	PROB	n/a	LTP209	ltpFR	11	n/a	n/a	n/a	n/a	n/a	n/a	9	5	2	2	n/a	n/a	n/a	n/a	n/a
582754	PROB	n/a	LTP209	ltpFR	11	n/a	n/a	n/a	n/a	n/a	n/a	15	4	9	2	n/a	n/a	n/a	n/a	n/a
585655	STOP	n/a	LTP209	ltpFR	11	n/a	n/a	n/a	n/a	n/a	n/a	n/a	n/a	n/a	n/a	n/a	n/a	n/a	n/a	n/a
587823	WORD	wordpools/wasnorm_wordpool_less_exclusions.txt	LTP209	ltpFR	11	3	0	PORK	1108	n/a	0	n/a	0	0	0	1	0.412841796875	0.57763671875	lower	../fonts/zerothre.ttf
590839	START	n/a	LTP209	ltpFR	11	n/a	n/a	n/a	n/a	n/a	n/a	n/a	n/a	n/a	n/a	n/a	n/a	n/a	n/a	n/a
591960	PROB	n/a	LTP209	ltpFR	11	n/a	n/a	n/a	n/a	n/a	n/a	14	3	5	6	n/a	n/a	n/a	n/a	n/a
593443	PROB	n/a	LTP209	ltpFR	11	n/a	n/a	n/a	n/a	n/a	n/a	21	8	5	8	n/a	n/a	n/a	n/a	n/a
595071	PROB	n/a	LTP209	ltpFR	11	n/a	n/a	n/a	n/a	n/a	n/a	8	3	2	5	n/a	n/a	n/a	n/a	n/a
597075	PROB	n/a	LTP209	ltpFR	11	n/a	n/a	n/a	n/a	n/a	n/a	25	7	9	9	n/a	n/a	n/a	n/a	n/a
599365	PROB	n/a	LTP209	ltpFR	11	n/a	n/a	n/a	n/a	n/a	n/a	18	4	9	5	n/a	n/a	n/a	n/a	n/a
600922	PROB	n/a	LTP209	ltpFR	11	n/a	n/a	n/a	n/a	n/a	n/a	10	7	2	1	n/a	n/a	n/a	n/a	n/a
602081	PROB	n/a	LTP209	ltpFR	11	n/a	n/a	n/a	n/a	n/a	n/a	23	9	6	8	n/a	n/a	n/a	n/a	n/a
604084	PROB	n/a	LTP209	ltpFR	11	n/a	n/a	n/a	n/a	n/a	n/a	18	2	7	9	n/a	n/a	n/a	n/a	n/a
605326	STOP	n/a	LTP209	ltpFR	11	n/a	n/a	n/a	n/a	n/a	n/a	n/a	n/a	n/a	n/a	n/a	n/a	n/a	n/a	n/a
607853	WORD	wordpools/wasnorm_wordpool_less_exclusions.txt	LTP209	ltpFR	11	3	0	DRAGON	492	n/a	1	n/a	0	0	0	1	0.412841796875	0.57763671875	lower	../fonts/zerothre.ttf
610865	START	n/a	LTP209	ltpFR	11	n/a	n/a	n/a	n/a	n/a	n/a	n/a	n/a	n/a	n/a	n/a	n/a	n/a	n/a	n/a
611918	PROB	n/a	LTP209	ltpFR	11	n/a	n/a	n/a	n/a	n/a	n/a	8	6	1	1	n/a	n/a	n/a	n/a	n/a
613056	PROB	n/a	LTP209	ltpFR	11	n/a	n/a	n/a	n/a	n/a	n/a	9	1	7	1	n/a	n/a	n/a	n/a	n/a
615097	PROB	n/a	LTP209	ltpFR	11	n/a	n/a	n/a	n/a	n/a	n/a	11	9	1	1	n/a	n/a	n/a	n/a	n/a
616201	PROB	n/a	LTP209	ltpFR	11	n/a	n/a	n/a	n/a	n/a	n/a	19	6	5	8	n/a	n/a	n/a	n/a	n/a
618454	PROB	n/a	LTP209	ltpFR	11	n/a	n/a	n/a	n/a	n/a	n/a	18	5	4	9	n/a	n/a	n/a	n/a	n/a
619827	PROB	n/a	LTP209	ltpFR	11	n/a	n/a	n/a	n/a	n/a	n/a	17	9	7	1	n/a	n/a	n/a	n/a	n/a
621520	PROB	n/a	LTP209	ltpFR	11	n/a	n/a	n/a	n/a	n/a	n/a	17	7	8	2	n/a	n/a	n/a	n/a	n/a
623360	PROB	n/a	LTP209	ltpFR	11	n/a	n/a	n/a	n/a	n/a	n/a	9	4	1	4	n/a	n/a	n/a	n/a	n/a
626865	STOP	n/a	LTP209	ltpFR	11	n/a	n/a	n/a	n/a	n/a	n/a	n/a	n/a	n/a	n/a	n/a	n/a	n/a	n/a	n/a
627845	WORD	wordpools/wasnorm_wordpool_less_exclusions.txt	LTP209	ltpFR	11	3	0	ASHTRAY	45	n/a	1	n/a	0	0	0	1	0.412841796875	0.57763671875	lower	../fonts/zerothre.ttf
630857	START	n/a	LTP209	ltpFR	11	n/a	n/a	n/a	n/a	n/a	n/a	n/a	n/a	n/a	n/a	n/a	n/a	n/a	n/a	n/a
631860	PROB	n/a	LTP209	ltpFR	11	n/a	n/a	n/a	n/a	n/a	n/a	13	4	6	3	n/a	n/a	n/a	n/a	n/a
633310	PROB	n/a	LTP209	ltpFR	11	n/a	n/a	n/a	n/a	n/a	n/a	10	3	2	5	n/a	n/a	n/a	n/a	n/a
635151	PROB	n/a	LTP209	ltpFR	11	n/a	n/a	n/a	n/a	n/a	n/a	15	4	2	9	n/a	n/a	n/a	n/a	n/a
637895	PROB	n/a	LTP209	ltpFR	11	n/a	n/a	n/a	n/a	n/a	n/a	9	4	1	4	n/a	n/a	n/a	n/a	n/a
639016	PROB	n/a	LTP209	ltpFR	11	n/a	n/a	n/a	n/a	n/a	n/a	11	4	4	3	n/a	n/a	n/a	n/a	n/a
640404	PROB	n/a	LTP209	ltpFR	11	n/a	n/a	n/a	n/a	n/a	n/a	12	5	1	6	n/a	n/a	n/a	n/a	n/a
641576	PROB	n/a	LTP209	ltpFR	11	n/a	n/a	n/a	n/a	n/a	n/a	14	3	2	9	n/a	n/a	n/a	n/a	n/a
643098	PROB	n/a	LTP209	ltpFR	11	n/a	n/a	n/a	n/a	n/a	n/a	22	9	8	5	n/a	n/a	n/a	n/a	n/a
645478	STOP	n/a	LTP209	ltpFR	11	n/a	n/a	n/a	n/a	n/a	n/a	n/a	n/a	n/a	n/a	n/a	n/a	n/a	n/a	n/a
648021	WORD	wordpools/wasnorm_wordpool_less_exclusions.txt	LTP209	ltpFR	11	3	1	ANKLE	24	n/a	0	n/a	0	0	0	0	0.5869140625	0.422607421875	upper	../fonts/amplitud.ttf
651033	START	n/a	LTP209	ltpFR	11	n/a	n/a	n/a	n/a	n/a	n/a	n/a	n/a	n/a	n/a	n/a	n/a	n/a	n/a	n/a
652199	PROB	n/a	LTP209	ltpFR	11	n/a	n/a	n/a	n/a	n/a	n/a	12	3	6	3	n/a	n/a	n/a	n/a	n/a
653621	PROB	n/a	LTP209	ltpFR	11	n/a	n/a	n/a	n/a	n/a	n/a	20	6	8	6	n/a	n/a	n/a	n/a	n/a
656497	PROB	n/a	LTP209	ltpFR	11	n/a	n/a	n/a	n/a	n/a	n/a	17	7	5	5	n/a	n/a	n/a	n/a	n/a
657891	PROB	n/a	LTP209	ltpFR	11	n/a	n/a	n/a	n/a	n/a	n/a	17	4	5	8	n/a	n/a	n/a	n/a	n/a
659732	PROB	n/a	LTP209	ltpFR	11	n/a	n/a	n/a	n/a	n/a	n/a	8	2	2	4	n/a	n/a	n/a	n/a	n/a
660949	PROB	n/a	LTP209	ltpFR	11	n/a	n/a	n/a	n/a	n/a	n/a	11	3	3	5	n/a	n/a	n/a	n/a	n/a
662441	PROB	n/a	LTP209	ltpFR	11	n/a	n/a	n/a	n/a	n/a	n/a	11	7	3	1	n/a	n/a	n/a	n/a	n/a
663826	PROB	n/a	LTP209	ltpFR	11	n/a	n/a	n/a	n/a	n/a	n/a	13	4	6	3	n/a	n/a	n/a	n/a	n/a
665064	PROB	n/a	LTP209	ltpFR	11	n/a	n/a	n/a	n/a	n/a	n/a	16	2	6	8	n/a	n/a	n/a	n/a	n/a
666599	STOP	n/a	LTP209	ltpFR	11	n/a	n/a	n/a	n/a	n/a	n/a	n/a	n/a	n/a	n/a	n/a	n/a	n/a	n/a	n/a
668096	WORD	wordpools/wasnorm_wordpool_less_exclusions.txt	LTP209	ltpFR	11	3	1	MAJOR	859	n/a	1	n/a	0	0	0	0	0.5869140625	0.422607421875	upper	../fonts/amplitud.ttf
671108	START	n/a	LTP209	ltpFR	11	n/a	n/a	n/a	n/a	n/a	n/a	n/a	n/a	n/a	n/a	n/a	n/a	n/a	n/a	n/a
671928	PROB	n/a	LTP209	ltpFR	11	n/a	n/a	n/a	n/a	n/a	n/a	14	5	5	4	n/a	n/a	n/a	n/a	n/a
673528	PROB	n/a	LTP209	ltpFR	11	n/a	n/a	n/a	n/a	n/a	n/a	19	5	7	7	n/a	n/a	n/a	n/a	n/a
676139	PROB	n/a	LTP209	ltpFR	11	n/a	n/a	n/a	n/a	n/a	n/a	11	4	2	5	n/a	n/a	n/a	n/a	n/a
677812	PROB	n/a	LTP209	ltpFR	11	n/a	n/a	n/a	n/a	n/a	n/a	10	2	5	3	n/a	n/a	n/a	n/a	n/a
679384	PROB	n/a	LTP209	ltpFR	11	n/a	n/a	n/a	n/a	n/a	n/a	16	7	7	2	n/a	n/a	n/a	n/a	n/a
681158	PROB	n/a	LTP209	ltpFR	11	n/a	n/a	n/a	n/a	n/a	n/a	15	6	4	5	n/a	n/a	n/a	n/a	n/a
683571	PROB	n/a	LTP209	ltpFR	11	n/a	n/a	n/a	n/a	n/a	n/a	12	3	7	2	n/a	n/a	n/a	n/a	n/a
684889	PROB	n/a	LTP209	ltpFR	11	n/a	n/a	n/a	n/a	n/a	n/a	10	3	1	6	n/a	n/a	n/a	n/a	n/a
686255	STOP	n/a	LTP209	ltpFR	11	n/a	n/a	n/a	n/a	n/a	n/a	n/a	n/a	n/a	n/a	n/a	n/a	n/a	n/a	n/a
688322	WORD	wordpools/wasnorm_wordpool_less_exclusions.txt	LTP209	ltpFR	11	3	0	CHAUFFEUR	283	n/a	1	n/a	0	0	0	1	0.412841796875	0.57763671875	lower	../fonts/zerothre.ttf
691334	START	n/a	LTP209	ltpFR	11	n/a	n/a	n/a	n/a	n/a	n/a	n/a	n/a	n/a	n/a	n/a	n/a	n/a	n/a	n/a
692487	PROB	n/a	LTP209	ltpFR	11	n/a	n/a	n/a	n/a	n/a	n/a	21	8	4	9	n/a	n/a	n/a	n/a	n/a
696498	PROB	n/a	LTP209	ltpFR	11	n/a	n/a	n/a	n/a	n/a	n/a	9	1	3	5	n/a	n/a	n/a	n/a	n/a
698206	PROB	n/a	LTP209	ltpFR	11	n/a	n/a	n/a	n/a	n/a	n/a	21	8	5	8	n/a	n/a	n/a	n/a	n/a
700446	PROB	n/a	LTP209	ltpFR	11	n/a	n/a	n/a	n/a	n/a	n/a	17	7	4	6	n/a	n/a	n/a	n/a	n/a
701970	PROB	n/a	LTP209	ltpFR	11	n/a	n/a	n/a	n/a	n/a	n/a	17	3	6	8	n/a	n/a	n/a	n/a	n/a
703760	PROB	n/a	LTP209	ltpFR	11	n/a	n/a	n/a	n/a	n/a	n/a	12	6	4	2	n/a	n/a	n/a	n/a	n/a
707333	STOP	n/a	LTP209	ltpFR	11	n/a	n/a	n/a	n/a	n/a	n/a	n/a	n/a	n/a	n/a	n/a	n/a	n/a	n/a	n/a
708381	WORD	wordpools/wasnorm_wordpool_less_exclusions.txt	LTP209	ltpFR	11	3	0	SPATULA	1348	n/a	0	n/a	0	0	0	1	0.412841796875	0.57763671875	lower	../fonts/zerothre.ttf
711393	START	n/a	LTP209	ltpFR	11	n/a	n/a	n/a	n/a	n/a	n/a	n/a	n/a	n/a	n/a	n/a	n/a	n/a	n/a	n/a
712446	PROB	n/a	LTP209	ltpFR	11	n/a	n/a	n/a	n/a	n/a	n/a	24	7	9	8	n/a	n/a	n/a	n/a	n/a
718001	PROB	n/a	LTP209	ltpFR	11	n/a	n/a	n/a	n/a	n/a	n/a	11	5	2	4	n/a	n/a	n/a	n/a	n/a
720289	PROB	n/a	LTP209	ltpFR	11	n/a	n/a	n/a	n/a	n/a	n/a	14	7	4	3	n/a	n/a	n/a	n/a	n/a
722496	PROB	n/a	LTP209	ltpFR	11	n/a	n/a	n/a	n/a	n/a	n/a	10	4	1	5	n/a	n/a	n/a	n/a	n/a
723735	PROB	n/a	LTP209	ltpFR	11	n/a	n/a	n/a	n/a	n/a	n/a	19	3	9	7	n/a	n/a	n/a	n/a	n/a
725659	PROB	n/a	LTP209	ltpFR	11	n/a	n/a	n/a	n/a	n/a	n/a	16	7	8	1	n/a	n/a	n/a	n/a	n/a
726815	STOP	n/a	LTP209	ltpFR	11	n/a	n/a	n/a	n/a	n/a	n/a	n/a	n/a	n/a	n/a	n/a	n/a	n/a	n/a	n/a
728506	WORD	wordpools/wasnorm_wordpool_less_exclusions.txt	LTP209	ltpFR	11	3	0	COOK	372	n/a	1	n/a	0	0	0	1	0.412841796875	0.57763671875	lower	../fonts/zerothre.ttf
731518	START	n/a	LTP209	ltpFR	11	n/a	n/a	n/a	n/a	n/a	n/a	n/a	n/a	n/a	n/a	n/a	n/a	n/a	n/a	n/a
732652	PROB	n/a	LTP209	ltpFR	11	n/a	n/a	n/a	n/a	n/a	n/a	21	6	8	7	n/a	n/a	n/a	n/a	n/a
734024	PROB	n/a	LTP209	ltpFR	11	n/a	n/a	n/a	n/a	n/a	n/a	18	5	8	5	n/a	n/a	n/a	n/a	n/a
736403	PROB	n/a	LTP209	ltpFR	11	n/a	n/a	n/a	n/a	n/a	n/a	9	4	4	1	n/a	n/a	n/a	n/a	n/a
737604	PROB	n/a	LTP209	ltpFR	11	n/a	n/a	n/a	n/a	n/a	n/a	17	9	2	6	n/a	n/a	n/a	n/a	n/a
740636	PROB	n/a	LTP209	ltpFR	11	n/a	n/a	n/a	n/a	n/a	n/a	14	6	7	1	n/a	n/a	n/a	n/a	n/a
742321	PROB	n/a	LTP209	ltpFR	11	n/a	n/a	n/a	n/a	n/a	n/a	6	1	2	3	n/a	n/a	n/a	n/a	n/a
743577	PROB	n/a	LTP209	ltpFR	11	n/a	n/a	n/a	n/a	n/a	n/a	12	2	6	4	n/a	n/a	n/a	n/a	n/a
744999	PROB	n/a	LTP209	ltpFR	11	n/a	n/a	n/a	n/a	n/a	n/a	7	2	1	4	n/a	n/a	n/a	n/a	n/a
746279	STOP	n/a	LTP209	ltpFR	11	n/a	n/a	n/a	n/a	n/a	n/a	n/a	n/a	n/a	n/a	n/a	n/a	n/a	n/a	n/a
748532	WORD	wordpools/wasnorm_wordpool_less_exclusions.txt	LTP209	ltpFR	11	3	0	BATHROOM	99	n/a	1	n/a	0	0	0	1	0.412841796875	0.57763671875	lower	../fonts/zerothre.ttf
751544	START	n/a	LTP209	ltpFR	11	n/a	n/a	n/a	n/a	n/a	n/a	n/a	n/a	n/a	n/a	n/a	n/a	n/a	n/a	n/a
752530	PROB	n/a	LTP209	ltpFR	11	n/a	n/a	n/a	n/a	n/a	n/a	15	3	4	8	n/a	n/a	n/a	n/a	n/a
754133	PROB	n/a	LTP209	ltpFR	11	n/a	n/a	n/a	n/a	n/a	n/a	16	4	4	8	n/a	n/a	n/a	n/a	n/a
755890	PROB	n/a	LTP209	ltpFR	11	n/a	n/a	n/a	n/a	n/a	n/a	13	8	1	4	n/a	n/a	n/a	n/a	n/a
757562	PROB	n/a	LTP209	ltpFR	11	n/a	n/a	n/a	n/a	n/a	n/a	12	3	3	6	n/a	n/a	n/a	n/a	n/a
758851	PROB	n/a	LTP209	ltpFR	11	n/a	n/a	n/a	n/a	n/a	n/a	13	5	3	5	n/a	n/a	n/a	n/a	n/a
759989	PROB	n/a	LTP209	ltpFR	11	n/a	n/a	n/a	n/a	n/a	n/a	20	6	5	9	n/a	n/a	n/a	n/a	n/a
762447	PROB	n/a	LTP209	ltpFR	11	n/a	n/a	n/a	n/a	n/a	n/a	12	5	1	6	n/a	n/a	n/a	n/a	n/a
764706	PROB	n/a	LTP209	ltpFR	11	n/a	n/a	n/a	n/a	n/a	n/a	9	1	2	6	n/a	n/a	n/a	n/a	n/a
766510	STOP	n/a	LTP209	ltpFR	11	n/a	n/a	n/a	n/a	n/a	n/a	n/a	n/a	n/a	n/a	n/a	n/a	n/a	n/a	n/a
768457	WORD	wordpools/wasnorm_wordpool_less_exclusions.txt	LTP209	ltpFR	11	3	1	TOILET	1475	n/a	0	n/a	0	0	0	0	0.5869140625	0.422607421875	upper	../fonts/amplitud.ttf
771469	START	n/a	LTP209	ltpFR	11	n/a	n/a	n/a	n/a	n/a	n/a	n/a	n/a	n/a	n/a	n/a	n/a	n/a	n/a	n/a
772552	PROB	n/a	LTP209	ltpFR	11	n/a	n/a	n/a	n/a	n/a	n/a	12	1	8	3	n/a	n/a	n/a	n/a	n/a
775915	PROB	n/a	LTP209	ltpFR	11	n/a	n/a	n/a	n/a	n/a	n/a	21	7	9	5	n/a	n/a	n/a	n/a	n/a
778023	PROB	n/a	LTP209	ltpFR	11	n/a	n/a	n/a	n/a	n/a	n/a	17	6	6	5	n/a	n/a	n/a	n/a	n/a
779947	PROB	n/a	LTP209	ltpFR	11	n/a	n/a	n/a	n/a	n/a	n/a	16	3	4	9	n/a	n/a	n/a	n/a	n/a
781569	PROB	n/a	LTP209	ltpFR	11	n/a	n/a	n/a	n/a	n/a	n/a	16	2	9	5	n/a	n/a	n/a	n/a	n/a
783346	PROB	n/a	LTP209	ltpFR	11	n/a	n/a	n/a	n/a	n/a	n/a	6	3	1	2	n/a	n/a	n/a	n/a	n/a
784446	PROB	n/a	LTP209	ltpFR	11	n/a	n/a	n/a	n/a	n/a	n/a	16	2	8	6	n/a	n/a	n/a	n/a	n/a
785652	PROB	n/a	LTP209	ltpFR	11	n/a	n/a	n/a	n/a	n/a	n/a	15	2	6	7	n/a	n/a	n/a	n/a	n/a
787151	STOP	n/a	LTP209	ltpFR	11	n/a	n/a	n/a	n/a	n/a	n/a	n/a	n/a	n/a	n/a	n/a	n/a	n/a	n/a	n/a
788349	WORD	wordpools/wasnorm_wordpool_less_exclusions.txt	LTP209	ltpFR	11	3	1	SERVANT	1271	n/a	1	n/a	0	0	0	0	0.5869140625	0.422607421875	upper	../fonts/amplitud.ttf
791361	START	n/a	LTP209	ltpFR	11	n/a	n/a	n/a	n/a	n/a	n/a	n/a	n/a	n/a	n/a	n/a	n/a	n/a	n/a	n/a
792443	PROB	n/a	LTP209	ltpFR	11	n/a	n/a	n/a	n/a	n/a	n/a	15	1	7	7	n/a	n/a	n/a	n/a	n/a
793464	PROB	n/a	LTP209	ltpFR	11	n/a	n/a	n/a	n/a	n/a	n/a	17	4	6	7	n/a	n/a	n/a	n/a	n/a
795673	PROB	n/a	LTP209	ltpFR	11	n/a	n/a	n/a	n/a	n/a	n/a	14	9	4	1	n/a	n/a	n/a	n/a	n/a
796949	PROB	n/a	LTP209	ltpFR	11	n/a	n/a	n/a	n/a	n/a	n/a	18	5	4	9	n/a	n/a	n/a	n/a	n/a
798370	PROB	n/a	LTP209	ltpFR	11	n/a	n/a	n/a	n/a	n/a	n/a	15	7	6	2	n/a	n/a	n/a	n/a	n/a
800027	PROB	n/a	LTP209	ltpFR	11	n/a	n/a	n/a	n/a	n/a	n/a	25	7	9	9	n/a	n/a	n/a	n/a	n/a
801851	PROB	n/a	LTP209	ltpFR	11	n/a	n/a	n/a	n/a	n/a	n/a	12	4	7	1	n/a	n/a	n/a	n/a	n/a
803603	PROB	n/a	LTP209	ltpFR	11	n/a	n/a	n/a	n/a	n/a	n/a	9	2	5	2	n/a	n/a	n/a	n/a	n/a
806631	STOP	n/a	LTP209	ltpFR	11	n/a	n/a	n/a	n/a	n/a	n/a	n/a	n/a	n/a	n/a	n/a	n/a	n/a	n/a	n/a
808275	WORD	wordpools/wasnorm_wordpool_less_exclusions.txt	LTP209	ltpFR	11	3	1	WINDSHIELD	1612	n/a	0	n/a	0	0	0	0	0.5869140625	0.422607421875	upper	../fonts/amplitud.ttf
811287	START	n/a	LTP209	ltpFR	11	n/a	n/a	n/a	n/a	n/a	n/a	n/a	n/a	n/a	n/a	n/a	n/a	n/a	n/a	n/a
812368	PROB	n/a	LTP209	ltpFR	11	n/a	n/a	n/a	n/a	n/a	n/a	18	9	7	2	n/a	n/a	n/a	n/a	n/a
816284	PROB	n/a	LTP209	ltpFR	11	n/a	n/a	n/a	n/a	n/a	n/a	14	3	5	6	n/a	n/a	n/a	n/a	n/a
818324	PROB	n/a	LTP209	ltpFR	11	n/a	n/a	n/a	n/a	n/a	n/a	15	2	7	6	n/a	n/a	n/a	n/a	n/a
820482	PROB	n/a	LTP209	ltpFR	11	n/a	n/a	n/a	n/a	n/a	n/a	13	5	7	1	n/a	n/a	n/a	n/a	n/a
822010	PROB	n/a	LTP209	ltpFR	11	n/a	n/a	n/a	n/a	n/a	n/a	10	4	5	1	n/a	n/a	n/a	n/a	n/a
823812	PROB	n/a	LTP209	ltpFR	11	n/a	n/a	n/a	n/a	n/a	n/a	15	6	3	6	n/a	n/a	n/a	n/a	n/a
827287	STOP	n/a	LTP209	ltpFR	11	n/a	n/a	n/a	n/a	n/a	n/a	n/a	n/a	n/a	n/a	n/a	n/a	n/a	n/a	n/a
828500	WORD	wordpools/wasnorm_wordpool_less_exclusions.txt	LTP209	ltpFR	11	3	1	FUDGE	611	n/a	0	n/a	0	0	0	0	0.5869140625	0.422607421875	upper	../fonts/amplitud.ttf
831512	START	n/a	LTP209	ltpFR	11	n/a	n/a	n/a	n/a	n/a	n/a	n/a	n/a	n/a	n/a	n/a	n/a	n/a	n/a	n/a
832465	PROB	n/a	LTP209	ltpFR	11	n/a	n/a	n/a	n/a	n/a	n/a	12	9	2	1	n/a	n/a	n/a	n/a	n/a
834703	PROB	n/a	LTP209	ltpFR	11	n/a	n/a	n/a	n/a	n/a	n/a	8	5	2	1	n/a	n/a	n/a	n/a	n/a
836661	PROB	n/a	LTP209	ltpFR	11	n/a	n/a	n/a	n/a	n/a	n/a	17	4	6	7	n/a	n/a	n/a	n/a	n/a
838618	PROB	n/a	LTP209	ltpFR	11	n/a	n/a	n/a	n/a	n/a	n/a	13	4	2	7	n/a	n/a	n/a	n/a	n/a
840307	PROB	n/a	LTP209	ltpFR	11	n/a	n/a	n/a	n/a	n/a	n/a	18	7	3	8	n/a	n/a	n/a	n/a	n/a
841680	PROB	n/a	LTP209	ltpFR	11	n/a	n/a	n/a	n/a	n/a	n/a	13	5	3	5	n/a	n/a	n/a	n/a	n/a
842755	PROB	n/a	LTP209	ltpFR	11	n/a	n/a	n/a	n/a	n/a	n/a	19	9	5	5	n/a	n/a	n/a	n/a	n/a
843938	PROB	n/a	LTP209	ltpFR	11	n/a	n/a	n/a	n/a	n/a	n/a	17	5	6	6	n/a	n/a	n/a	n/a	n/a
847512	STOP	n/a	LTP209	ltpFR	11	n/a	n/a	n/a	n/a	n/a	n/a	n/a	n/a	n/a	n/a	n/a	n/a	n/a	n/a	n/a
848677	WORD	wordpools/wasnorm_wordpool_less_exclusions.txt	LTP209	ltpFR	11	3	1	THIGH	1457	n/a	0	n/a	0	0	0	0	0.5869140625	0.422607421875	upper	../fonts/amplitud.ttf
851689	START	n/a	LTP209	ltpFR	11	n/a	n/a	n/a	n/a	n/a	n/a	n/a	n/a	n/a	n/a	n/a	n/a	n/a	n/a	n/a
852557	PROB	n/a	LTP209	ltpFR	11	n/a	n/a	n/a	n/a	n/a	n/a	11	5	3	3	n/a	n/a	n/a	n/a	n/a
854265	PROB	n/a	LTP209	ltpFR	11	n/a	n/a	n/a	n/a	n/a	n/a	20	8	5	7	n/a	n/a	n/a	n/a	n/a
856334	PROB	n/a	LTP209	ltpFR	11	n/a	n/a	n/a	n/a	n/a	n/a	18	6	9	3	n/a	n/a	n/a	n/a	n/a
858677	PROB	n/a	LTP209	ltpFR	11	n/a	n/a	n/a	n/a	n/a	n/a	14	6	5	3	n/a	n/a	n/a	n/a	n/a
861019	PROB	n/a	LTP209	ltpFR	11	n/a	n/a	n/a	n/a	n/a	n/a	13	4	6	3	n/a	n/a	n/a	n/a	n/a
862327	PROB	n/a	LTP209	ltpFR	11	n/a	n/a	n/a	n/a	n/a	n/a	25	9	7	9	n/a	n/a	n/a	n/a	n/a
864231	PROB	n/a	LTP209	ltpFR	11	n/a	n/a	n/a	n/a	n/a	n/a	14	5	2	7	n/a	n/a	n/a	n/a	n/a
866775	STOP	n/a	LTP209	ltpFR	11	n/a	n/a	n/a	n/a	n/a	n/a	n/a	n/a	n/a	n/a	n/a	n/a	n/a	n/a	n/a
868786	WORD	wordpools/wasnorm_wordpool_less_exclusions.txt	LTP209	ltpFR	11	3	1	COAL	332	n/a	0	n/a	0	0	0	0	0.5869140625	0.422607421875	upper	../fonts/amplitud.ttf
871798	START	n/a	LTP209	ltpFR	11	n/a	n/a	n/a	n/a	n/a	n/a	n/a	n/a	n/a	n/a	n/a	n/a	n/a	n/a	n/a
872935	PROB	n/a	LTP209	ltpFR	11	n/a	n/a	n/a	n/a	n/a	n/a	23	6	8	9	n/a	n/a	n/a	n/a	n/a
876076	PROB	n/a	LTP209	ltpFR	11	n/a	n/a	n/a	n/a	n/a	n/a	20	8	5	7	n/a	n/a	n/a	n/a	n/a
877753	PROB	n/a	LTP209	ltpFR	11	n/a	n/a	n/a	n/a	n/a	n/a	18	7	6	5	n/a	n/a	n/a	n/a	n/a
880379	PROB	n/a	LTP209	ltpFR	11	n/a	n/a	n/a	n/a	n/a	n/a	10	2	6	2	n/a	n/a	n/a	n/a	n/a
882503	PROB	n/a	LTP209	ltpFR	11	n/a	n/a	n/a	n/a	n/a	n/a	16	1	7	8	n/a	n/a	n/a	n/a	n/a
887798	STOP	n/a	LTP209	ltpFR	11	n/a	n/a	n/a	n/a	n/a	n/a	n/a	n/a	n/a	n/a	n/a	n/a	n/a	n/a	n/a
889578	REC_START	n/a	LTP209	ltpFR	11	3	n/a	n/a	n/a	n/a	n/a	n/a	0	0	0	n/a	n/a	n/a	n/a	n/a
893198	REC_WORD	wordpools/wasnorm_wordpool_less_exclusions.txt	LTP209	ltpFR	11	3	0	SPATULA	1348	n/a	0	n/a	0	0	0	n/a	n/a	n/a	n/a	n/a
894199	REC_WORD_VV	wordpools/wasnorm_wordpool_less_exclusions.txt	LTP209	ltpFR	11	3	n/a	<>	-1	n/a	n/a	n/a	0	0	0	n/a	n/a	n/a	n/a	n/a
894829	REC_WORD	wordpools/wasnorm_wordpool_less_exclusions.txt	LTP209	ltpFR	11	3	1	FUDGE	611	n/a	0	n/a	0	0	0	n/a	n/a	n/a	n/a	n/a
897065	REC_WORD	wordpools/wasnorm_wordpool_less_exclusions.txt	LTP209	ltpFR	11	3	0	COOK	372	n/a	1	n/a	0	0	0	n/a	n/a	n/a	n/a	n/a
901246	REC_WORD	wordpools/wasnorm_wordpool_less_exclusions.txt	LTP209	ltpFR	11	3	1	THIGH	1457	n/a	0	n/a	0	0	0	n/a	n/a	n/a	n/a	n/a
904484	REC_WORD	wordpools/wasnorm_wordpool_less_exclusions.txt	LTP209	ltpFR	11	3	0	DRAGON	492	n/a	1	n/a	0	0	0	n/a	n/a	n/a	n/a	n/a
906529	REC_WORD	wordpools/wasnorm_wordpool_less_exclusions.txt	LTP209	ltpFR	11	3	0	ASHTRAY	45	n/a	1	n/a	0	0	0	n/a	n/a	n/a	n/a	n/a
927202	REC_WORD	wordpools/wasnorm_wordpool_less_exclusions.txt	LTP209	ltpFR	11	3	0	BATHROOM	99	n/a	1	n/a	0	0	0	n/a	n/a	n/a	n/a	n/a
994209	WORD	wordpools/wasnorm_wordpool_less_exclusions.txt	LTP209	ltpFR	11	4	1	MAPLE	866	n/a	1	n/a	0	0	0	0	0.5869140625	0.422607421875	upper	../fonts/amplitud.ttf
998236	WORD	wordpools/wasnorm_wordpool_less_exclusions.txt	LTP209	ltpFR	11	4	1	CLOVE	329	n/a	1	n/a	0	0	0	0	0.5869140625	0.422607421875	upper	../fonts/amplitud.ttf
1002239	WORD	wordpools/wasnorm_wordpool_less_exclusions.txt	LTP209	ltpFR	11	4	1	ONION	977	n/a	1	n/a	0	0	0	0	0.5869140625	0.422607421875	upper	../fonts/amplitud.ttf
1006271	WORD	wordpools/wasnorm_wordpool_less_exclusions.txt	LTP209	ltpFR	11	4	0	COSTUME	383	n/a	1	n/a	0	0	0	1	0.412841796875	0.57763671875	lower	../fonts/zerothre.ttf
1010385	WORD	wordpools/wasnorm_wordpool_less_exclusions.txt	LTP209	ltpFR	11	4	0	ATTIRE	57	n/a	1	n/a	0	0	0	1	0.412841796875	0.57763671875	lower	../fonts/zerothre.ttf
1014513	WORD	wordpools/wasnorm_wordpool_less_exclusions.txt	LTP209	ltpFR	11	4	0	SNAKE	1333	n/a	1	n/a	0	0	0	1	0.412841796875	0.57763671875	lower	../fonts/zerothre.ttf
1018499	WORD	wordpools/wasnorm_wordpool_less_exclusions.txt	LTP209	ltpFR	11	4	0	ARROW	40	n/a	0	n/a	0	0	0	1	0.412841796875	0.57763671875	lower	../fonts/zerothre.ttf
1022565	WORD	wordpools/wasnorm_wordpool_less_exclusions.txt	LTP209	ltpFR	11	4	0	NECK	939	n/a	1	n/a	0	0	0	1	0.412841796875	0.57763671875	lower	../fonts/zerothre.ttf
1026429	WORD	wordpools/wasnorm_wordpool_less_exclusions.txt	LTP209	ltpFR	11	4	1	SKUNK	1321	n/a	1	n/a	0	0	0	0	0.5869140625	0.422607421875	upper	../fonts/amplitud.ttf
1030561	WORD	wordpools/wasnorm_wordpool_less_exclusions.txt	LTP209	ltpFR	11	4	1	BISON	131	n/a	1	n/a	0	0	0	0	0.5869140625	0.422607421875	upper	../fonts/amplitud.ttf
1034661	WORD	wordpools/wasnorm_wordpool_less_exclusions.txt	LTP209	ltpFR	11	4	1	PORPOISE	1109	n/a	1	n/a	0	0	0	0	0.5869140625	0.422607421875	upper	../fonts/amplitud.ttf
1038856	WORD	wordpools/wasnorm_wordpool_less_exclusions.txt	LTP209	ltpFR	11	4	1	GRATE	657	n/a	0	n/a	0	0	0	0	0.5869140625	0.422607421875	upper	../fonts/amplitud.ttf
1042959	WORD	wordpools/wasnorm_wordpool_less_exclusions.txt	LTP209	ltpFR	11	4	1	SYRUP	1425	n/a	0	n/a	0	0	0	0	0.5869140625	0.422607421875	upper	../fonts/amplitud.ttf
1047142	WORD	wordpools/wasnorm_wordpool_less_exclusions.txt	LTP209	ltpFR	11	4	0	DETERGENT	455	n/a	1	n/a	0	0	0	1	0.412841796875	0.57763671875	lower	../fonts/zerothre.ttf
1051319	WORD	wordpools/wasnorm_wordpool_less_exclusions.txt	LTP209	ltpFR	11	4	0	ROOT	1210	n/a	1	n/a	0	0	0	1	0.412841796875	0.57763671875	lower	../fonts/zerothre.ttf
1055384	WORD	wordpools/wasnorm_wordpool_less_exclusions.txt	LTP209	ltpFR	11	4	0	SHRUB	1299	n/a	1	n/a	0	0	0	1	0.412841796875	0.57763671875	lower	../fonts/zerothre.ttf
1061124	REC_START	n/a	LTP209	ltpFR	11	4	n/a	n/a	n/a	n/a	n/a	n/a	0	0	0	n/a	n/a	n/a	n/a	n/a
1062087	REC_WORD	wordpools/wasnorm_wordpool_less_exclusions.txt	LTP209	ltpFR	11	4	0	SHRUB	1299	n/a	1	n/a	0	0	0	n/a	n/a	n/a	n/a	n/a
1063319	REC_WORD	wordpools/wasnorm_wordpool_less_exclusions.txt	LTP209	ltpFR	11	4	0	ROOT	1210	n/a	1	n/a	0	0	0	n/a	n/a	n/a	n/a	n/a
1064471	REC_WORD	wordpools/wasnorm_wordpool_less_exclusions.txt	LTP209	ltpFR	11	4	1	BISON	131	n/a	1	n/a	0	0	0	n/a	n/a	n/a	n/a	n/a
1071934	REC_WORD	wordpools/wasnorm_wordpool_less_exclusions.txt	LTP209	ltpFR	11	4	1	GRATE	657	n/a	0	n/a	0	0	0	n/a	n/a	n/a	n/a	n/a
1077111	REC_WORD	wordpools/wasnorm_wordpool_less_exclusions.txt	LTP209	ltpFR	11	4	1	SKUNK	1321	n/a	1	n/a	0	0	0	n/a	n/a	n/a	n/a	n/a
1130302	REC_WORD	wordpools/wasnorm_wordpool_less_exclusions.txt	LTP209	ltpFR	11	4	0	COSTUME	383	n/a	1	n/a	0	0	0	n/a	n/a	n/a	n/a	n/a
1131345	REC_WORD	wordpools/wasnorm_wordpool_less_exclusions.txt	LTP209	ltpFR	11	4	0	ATTIRE	57	n/a	1	n/a	0	0	0	n/a	n/a	n/a	n/a	n/a
1132222	REC_WORD	wordpools/wasnorm_wordpool_less_exclusions.txt	LTP209	ltpFR	11	4	0	SNAKE	1333	n/a	1	n/a	0	0	0	n/a	n/a	n/a	n/a	n/a
1133285	REC_WORD	wordpools/wasnorm_wordpool_less_exclusions.txt	LTP209	ltpFR	11	4	0	NECK	939	n/a	1	n/a	0	0	0	n/a	n/a	n/a	n/a	n/a
1144491	START	n/a	LTP209	ltpFR	11	n/a	n/a	n/a	n/a	n/a	n/a	n/a	n/a	n/a	n/a	n/a	n/a	n/a	n/a	n/a
1145997	PROB	n/a	LTP209	ltpFR	11	n/a	n/a	n/a	n/a	n/a	n/a	20	4	9	7	n/a	n/a	n/a	n/a	n/a
1148068	PROB	n/a	LTP209	ltpFR	11	n/a	n/a	n/a	n/a	n/a	n/a	13	2	9	2	n/a	n/a	n/a	n/a	n/a
1149590	PROB	n/a	LTP209	ltpFR	11	n/a	n/a	n/a	n/a	n/a	n/a	19	6	4	9	n/a	n/a	n/a	n/a	n/a
1151031	STOP	n/a	LTP209	ltpFR	11	n/a	n/a	n/a	n/a	n/a	n/a	n/a	n/a	n/a	n/a	n/a	n/a	n/a	n/a	n/a
1153572	WORD	wordpools/wasnorm_wordpool_less_exclusions.txt	LTP209	ltpFR	11	5	0	DICTIONARY	463	n/a	1	n/a	0	0	0	1	0.412841796875	0.57763671875	lower	../fonts/zerothre.ttf
1156588	START	n/a	LTP209	ltpFR	11	n/a	n/a	n/a	n/a	n/a	n/a	n/a	n/a	n/a	n/a	n/a	n/a	n/a	n/a	n/a
1157523	PROB	n/a	LTP209	ltpFR	11	n/a	n/a	n/a	n/a	n/a	n/a	13	5	5	3	n/a	n/a	n/a	n/a	n/a
1158624	PROB	n/a	LTP209	ltpFR	11	n/a	n/a	n/a	n/a	n/a	n/a	20	6	7	7	n/a	n/a	n/a	n/a	n/a
1162371	PROB	n/a	LTP209	ltpFR	11	n/a	n/a	n/a	n/a	n/a	n/a	13	4	5	4	n/a	n/a	n/a	n/a	n/a
1164031	STOP	n/a	LTP209	ltpFR	11	n/a	n/a	n/a	n/a	n/a	n/a	n/a	n/a	n/a	n/a	n/a	n/a	n/a	n/a	n/a
1165503	WORD	wordpools/wasnorm_wordpool_less_exclusions.txt	LTP209	ltpFR	11	5	0	THESAURUS	1454	n/a	1	n/a	0	0	0	1	0.412841796875	0.57763671875	lower	../fonts/zerothre.ttf
1168515	START	n/a	LTP209	ltpFR	11	n/a	n/a	n/a	n/a	n/a	n/a	n/a	n/a	n/a	n/a	n/a	n/a	n/a	n/a	n/a
1169703	PROB	n/a	LTP209	ltpFR	11	n/a	n/a	n/a	n/a	n/a	n/a	18	9	8	1	n/a	n/a	n/a	n/a	n/a
1171155	PROB	n/a	LTP209	ltpFR	11	n/a	n/a	n/a	n/a	n/a	n/a	14	3	5	6	n/a	n/a	n/a	n/a	n/a
1174016	PROB	n/a	LTP209	ltpFR	11	n/a	n/a	n/a	n/a	n/a	n/a	16	5	2	9	n/a	n/a	n/a	n/a	n/a
1175831	STOP	n/a	LTP209	ltpFR	11	n/a	n/a	n/a	n/a	n/a	n/a	n/a	n/a	n/a	n/a	n/a	n/a	n/a	n/a	n/a
1177650	WORD	wordpools/wasnorm_wordpool_less_exclusions.txt	LTP209	ltpFR	11	5	1	WARRIOR	1589	n/a	1	n/a	0	0	0	0	0.5869140625	0.422607421875	upper	../fonts/amplitud.ttf
1180662	START	n/a	LTP209	ltpFR	11	n/a	n/a	n/a	n/a	n/a	n/a	n/a	n/a	n/a	n/a	n/a	n/a	n/a	n/a	n/a
1181547	PROB	n/a	LTP209	ltpFR	11	n/a	n/a	n/a	n/a	n/a	n/a	15	7	5	3	n/a	n/a	n/a	n/a	n/a
1183183	PROB	n/a	LTP209	ltpFR	11	n/a	n/a	n/a	n/a	n/a	n/a	11	4	1	6	n/a	n/a	n/a	n/a	n/a
1184873	PROB	n/a	LTP209	ltpFR	11	n/a	n/a	n/a	n/a	n/a	n/a	15	6	4	5	n/a	n/a	n/a	n/a	n/a
1188662	STOP	n/a	LTP209	ltpFR	11	n/a	n/a	n/a	n/a	n/a	n/a	n/a	n/a	n/a	n/a	n/a	n/a	n/a	n/a	n/a
1189540	WORD	wordpools/wasnorm_wordpool_less_exclusions.txt	LTP209	ltpFR	11	5	1	FLAG	573	n/a	0	n/a	0	0	0	0	0.5869140625	0.422607421875	upper	../fonts/amplitud.ttf
1192556	START	n/a	LTP209	ltpFR	11	n/a	n/a	n/a	n/a	n/a	n/a	n/a	n/a	n/a	n/a	n/a	n/a	n/a	n/a	n/a
1193639	PROB	n/a	LTP209	ltpFR	11	n/a	n/a	n/a	n/a	n/a	n/a	20	2	9	9	n/a	n/a	n/a	n/a	n/a
1195378	PROB	n/a	LTP209	ltpFR	11	n/a	n/a	n/a	n/a	n/a	n/a	11	3	1	7	n/a	n/a	n/a	n/a	n/a
1197090	PROB	n/a	LTP209	ltpFR	11	n/a	n/a	n/a	n/a	n/a	n/a	17	4	8	5	n/a	n/a	n/a	n/a	n/a
1199215	STOP	n/a	LTP209	ltpFR	11	n/a	n/a	n/a	n/a	n/a	n/a	n/a	n/a	n/a	n/a	n/a	n/a	n/a	n/a	n/a
1201737	WORD	wordpools/wasnorm_wordpool_less_exclusions.txt	LTP209	ltpFR	11	5	0	WAREHOUSE	1588	n/a	1	n/a	0	0	0	1	0.412841796875	0.57763671875	lower	../fonts/zerothre.ttf
1204753	START	n/a	LTP209	ltpFR	11	n/a	n/a	n/a	n/a	n/a	n/a	n/a	n/a	n/a	n/a	n/a	n/a	n/a	n/a	n/a
1205572	PROB	n/a	LTP209	ltpFR	11	n/a	n/a	n/a	n/a	n/a	n/a	14	2	9	3	n/a	n/a	n/a	n/a	n/a
1207307	PROB	n/a	LTP209	ltpFR	11	n/a	n/a	n/a	n/a	n/a	n/a	18	2	7	9	n/a	n/a	n/a	n/a	n/a
1210335	PROB	n/a	LTP209	ltpFR	11	n/a	n/a	n/a	n/a	n/a	n/a	11	7	3	1	n/a	n/a	n/a	n/a	n/a
1211318	STOP	n/a	LTP209	ltpFR	11	n/a	n/a	n/a	n/a	n/a	n/a	n/a	n/a	n/a	n/a	n/a	n/a	n/a	n/a	n/a
1213899	WORD	wordpools/wasnorm_wordpool_less_exclusions.txt	LTP209	ltpFR	11	5	0	TORTOISE	1486	n/a	1	n/a	0	0	0	1	0.412841796875	0.57763671875	lower	../fonts/zerothre.ttf
1216915	START	n/a	LTP209	ltpFR	11	n/a	n/a	n/a	n/a	n/a	n/a	n/a	n/a	n/a	n/a	n/a	n/a	n/a	n/a	n/a
1217897	PROB	n/a	LTP209	ltpFR	11	n/a	n/a	n/a	n/a	n/a	n/a	22	6	8	8	n/a	n/a	n/a	n/a	n/a
1222933	PROB	n/a	LTP209	ltpFR	11	n/a	n/a	n/a	n/a	n/a	n/a	18	3	8	7	n/a	n/a	n/a	n/a	n/a
1224295	STOP	n/a	LTP209	ltpFR	11	n/a	n/a	n/a	n/a	n/a	n/a	n/a	n/a	n/a	n/a	n/a	n/a	n/a	n/a	n/a
1225811	WORD	wordpools/wasnorm_wordpool_less_exclusions.txt	LTP209	ltpFR	11	5	0	SCRIBBLE	1256	n/a	0	n/a	0	0	0	1	0.412841796875	0.57763671875	lower	../fonts/zerothre.ttf
1228827	START	n/a	LTP209	ltpFR	11	n/a	n/a	n/a	n/a	n/a	n/a	n/a	n/a	n/a	n/a	n/a	n/a	n/a	n/a	n/a
1229809	PROB	n/a	LTP209	ltpFR	11	n/a	n/a	n/a	n/a	n/a	n/a	11	4	4	3	n/a	n/a	n/a	n/a	n/a
1231248	PROB	n/a	LTP209	ltpFR	11	n/a	n/a	n/a	n/a	n/a	n/a	11	5	1	5	n/a	n/a	n/a	n/a	n/a
1232235	PROB	n/a	LTP209	ltpFR	11	n/a	n/a	n/a	n/a	n/a	n/a	14	5	2	7	n/a	n/a	n/a	n/a	n/a
1234530	PROB	n/a	LTP209	ltpFR	11	n/a	n/a	n/a	n/a	n/a	n/a	20	9	5	6	n/a	n/a	n/a	n/a	n/a
1235959	STOP	n/a	LTP209	ltpFR	11	n/a	n/a	n/a	n/a	n/a	n/a	n/a	n/a	n/a	n/a	n/a	n/a	n/a	n/a	n/a
1237772	WORD	wordpools/wasnorm_wordpool_less_exclusions.txt	LTP209	ltpFR	11	5	0	DUSTPAN	509	n/a	0	n/a	0	0	0	1	0.412841796875	0.57763671875	lower	../fonts/zerothre.ttf
1240789	START	n/a	LTP209	ltpFR	11	n/a	n/a	n/a	n/a	n/a	n/a	n/a	n/a	n/a	n/a	n/a	n/a	n/a	n/a	n/a
1241708	PROB	n/a	LTP209	ltpFR	11	n/a	n/a	n/a	n/a	n/a	n/a	7	1	5	1	n/a	n/a	n/a	n/a	n/a
1242963	PROB	n/a	LTP209	ltpFR	11	n/a	n/a	n/a	n/a	n/a	n/a	21	4	8	9	n/a	n/a	n/a	n/a	n/a
1246275	PROB	n/a	LTP209	ltpFR	11	n/a	n/a	n/a	n/a	n/a	n/a	16	9	3	4	n/a	n/a	n/a	n/a	n/a
1247863	STOP	n/a	LTP209	ltpFR	11	n/a	n/a	n/a	n/a	n/a	n/a	n/a	n/a	n/a	n/a	n/a	n/a	n/a	n/a	n/a
1249772	WORD	wordpools/wasnorm_wordpool_less_exclusions.txt	LTP209	ltpFR	11	5	1	PONY	1102	n/a	1	n/a	0	0	0	0	0.5869140625	0.422607421875	upper	../fonts/amplitud.ttf
1252784	START	n/a	LTP209	ltpFR	11	n/a	n/a	n/a	n/a	n/a	n/a	n/a	n/a	n/a	n/a	n/a	n/a	n/a	n/a	n/a
1253833	PROB	n/a	LTP209	ltpFR	11	n/a	n/a	n/a	n/a	n/a	n/a	15	1	6	8	n/a	n/a	n/a	n/a	n/a
1255611	PROB	n/a	LTP209	ltpFR	11	n/a	n/a	n/a	n/a	n/a	n/a	14	3	9	2	n/a	n/a	n/a	n/a	n/a
1257083	PROB	n/a	LTP209	ltpFR	11	n/a	n/a	n/a	n/a	n/a	n/a	13	2	3	8	n/a	n/a	n/a	n/a	n/a
1258433	PROB	n/a	LTP209	ltpFR	11	n/a	n/a	n/a	n/a	n/a	n/a	15	3	7	5	n/a	n/a	n/a	n/a	n/a
1259863	STOP	n/a	LTP209	ltpFR	11	n/a	n/a	n/a	n/a	n/a	n/a	n/a	n/a	n/a	n/a	n/a	n/a	n/a	n/a	n/a
1261667	WORD	wordpools/wasnorm_wordpool_less_exclusions.txt	LTP209	ltpFR	11	5	1	SPARROW	1347	n/a	1	n/a	0	0	0	0	0.5869140625	0.422607421875	upper	../fonts/amplitud.ttf
1264679	START	n/a	LTP209	ltpFR	11	n/a	n/a	n/a	n/a	n/a	n/a	n/a	n/a	n/a	n/a	n/a	n/a	n/a	n/a	n/a
1265644	PROB	n/a	LTP209	ltpFR	11	n/a	n/a	n/a	n/a	n/a	n/a	13	7	5	1	n/a	n/a	n/a	n/a	n/a
1268036	PROB	n/a	LTP209	ltpFR	11	n/a	n/a	n/a	n/a	n/a	n/a	14	2	5	7	n/a	n/a	n/a	n/a	n/a
1270931	PROB	n/a	LTP209	ltpFR	11	n/a	n/a	n/a	n/a	n/a	n/a	13	3	2	8	n/a	n/a	n/a	n/a	n/a
1272422	STOP	n/a	LTP209	ltpFR	11	n/a	n/a	n/a	n/a	n/a	n/a	n/a	n/a	n/a	n/a	n/a	n/a	n/a	n/a	n/a
1273829	WORD	wordpools/wasnorm_wordpool_less_exclusions.txt	LTP209	ltpFR	11	5	1	SHORE	1291	n/a	0	n/a	0	0	0	0	0.5869140625	0.422607421875	upper	../fonts/amplitud.ttf
1276841	START	n/a	LTP209	ltpFR	11	n/a	n/a	n/a	n/a	n/a	n/a	n/a	n/a	n/a	n/a	n/a	n/a	n/a	n/a	n/a
1277761	PROB	n/a	LTP209	ltpFR	11	n/a	n/a	n/a	n/a	n/a	n/a	16	7	1	8	n/a	n/a	n/a	n/a	n/a
1280232	PROB	n/a	LTP209	ltpFR	11	n/a	n/a	n/a	n/a	n/a	n/a	21	8	3	9	n/a	n/a	n/a	n/a	n/a
1283374	STOP	n/a	LTP209	ltpFR	11	n/a	n/a	n/a	n/a	n/a	n/a	n/a	n/a	n/a	n/a	n/a	n/a	n/a	n/a	n/a
1285904	WORD	wordpools/wasnorm_wordpool_less_exclusions.txt	LTP209	ltpFR	11	5	1	BROCCOLI	176	n/a	1	n/a	0	0	0	0	0.5869140625	0.422607421875	upper	../fonts/amplitud.ttf
1288920	START	n/a	LTP209	ltpFR	11	n/a	n/a	n/a	n/a	n/a	n/a	n/a	n/a	n/a	n/a	n/a	n/a	n/a	n/a	n/a
1289990	PROB	n/a	LTP209	ltpFR	11	n/a	n/a	n/a	n/a	n/a	n/a	17	6	8	3	n/a	n/a	n/a	n/a	n/a
1293369	PROB	n/a	LTP209	ltpFR	11	n/a	n/a	n/a	n/a	n/a	n/a	18	9	6	3	n/a	n/a	n/a	n/a	n/a
1295366	STOP	n/a	LTP209	ltpFR	11	n/a	n/a	n/a	n/a	n/a	n/a	n/a	n/a	n/a	n/a	n/a	n/a	n/a	n/a	n/a
1297769	WORD	wordpools/wasnorm_wordpool_less_exclusions.txt	LTP209	ltpFR	11	5	1	PARSLEY	1016	n/a	1	n/a	0	0	0	0	0.5869140625	0.422607421875	upper	../fonts/amplitud.ttf
1300781	START	n/a	LTP209	ltpFR	11	n/a	n/a	n/a	n/a	n/a	n/a	n/a	n/a	n/a	n/a	n/a	n/a	n/a	n/a	n/a
1301801	PROB	n/a	LTP209	ltpFR	11	n/a	n/a	n/a	n/a	n/a	n/a	17	8	2	7	n/a	n/a	n/a	n/a	n/a
1304026	PROB	n/a	LTP209	ltpFR	11	n/a	n/a	n/a	n/a	n/a	n/a	7	3	2	2	n/a	n/a	n/a	n/a	n/a
1305896	PROB	n/a	LTP209	ltpFR	11	n/a	n/a	n/a	n/a	n/a	n/a	14	4	3	7	n/a	n/a	n/a	n/a	n/a
1308334	STOP	n/a	LTP209	ltpFR	11	n/a	n/a	n/a	n/a	n/a	n/a	n/a	n/a	n/a	n/a	n/a	n/a	n/a	n/a	n/a
1309894	WORD	wordpools/wasnorm_wordpool_less_exclusions.txt	LTP209	ltpFR	11	5	1	MAGNET	855	n/a	0	n/a	0	0	0	0	0.5869140625	0.422607421875	upper	../fonts/amplitud.ttf
1312910	START	n/a	LTP209	ltpFR	11	n/a	n/a	n/a	n/a	n/a	n/a	n/a	n/a	n/a	n/a	n/a	n/a	n/a	n/a	n/a
1313947	PROB	n/a	LTP209	ltpFR	11	n/a	n/a	n/a	n/a	n/a	n/a	18	8	5	5	n/a	n/a	n/a	n/a	n/a
1315202	PROB	n/a	LTP209	ltpFR	11	n/a	n/a	n/a	n/a	n/a	n/a	17	2	8	7	n/a	n/a	n/a	n/a	n/a
1316804	PROB	n/a	LTP209	ltpFR	11	n/a	n/a	n/a	n/a	n/a	n/a	15	8	5	2	n/a	n/a	n/a	n/a	n/a
1318363	PROB	n/a	LTP209	ltpFR	11	n/a	n/a	n/a	n/a	n/a	n/a	19	9	7	3	n/a	n/a	n/a	n/a	n/a
1319935	STOP	n/a	LTP209	ltpFR	11	n/a	n/a	n/a	n/a	n/a	n/a	n/a	n/a	n/a	n/a	n/a	n/a	n/a	n/a	n/a
1321810	WORD	wordpools/wasnorm_wordpool_less_exclusions.txt	LTP209	ltpFR	11	5	0	ROBIN	1199	n/a	0	n/a	0	0	0	1	0.412841796875	0.57763671875	lower	../fonts/zerothre.ttf
1324822	START	n/a	LTP209	ltpFR	11	n/a	n/a	n/a	n/a	n/a	n/a	n/a	n/a	n/a	n/a	n/a	n/a	n/a	n/a	n/a
1325758	PROB	n/a	LTP209	ltpFR	11	n/a	n/a	n/a	n/a	n/a	n/a	15	3	4	8	n/a	n/a	n/a	n/a	n/a
1327226	PROB	n/a	LTP209	ltpFR	11	n/a	n/a	n/a	n/a	n/a	n/a	20	2	9	9	n/a	n/a	n/a	n/a	n/a
1328899	PROB	n/a	LTP209	ltpFR	11	n/a	n/a	n/a	n/a	n/a	n/a	16	5	6	5	n/a	n/a	n/a	n/a	n/a
1330292	PROB	n/a	LTP209	ltpFR	11	n/a	n/a	n/a	n/a	n/a	n/a	20	6	5	9	n/a	n/a	n/a	n/a	n/a
1331871	STOP	n/a	LTP209	ltpFR	11	n/a	n/a	n/a	n/a	n/a	n/a	n/a	n/a	n/a	n/a	n/a	n/a	n/a	n/a	n/a
1333906	WORD	wordpools/wasnorm_wordpool_less_exclusions.txt	LTP209	ltpFR	11	5	0	SPACE	1345	n/a	0	n/a	0	0	0	1	0.412841796875	0.57763671875	lower	../fonts/zerothre.ttf
1336917	START	n/a	LTP209	ltpFR	11	n/a	n/a	n/a	n/a	n/a	n/a	n/a	n/a	n/a	n/a	n/a	n/a	n/a	n/a	n/a
1338071	PROB	n/a	LTP209	ltpFR	11	n/a	n/a	n/a	n/a	n/a	n/a	20	6	9	5	n/a	n/a	n/a	n/a	n/a
1339757	PROB	n/a	LTP209	ltpFR	11	n/a	n/a	n/a	n/a	n/a	n/a	11	3	1	7	n/a	n/a	n/a	n/a	n/a
1341668	PROB	n/a	LTP209	ltpFR	11	n/a	n/a	n/a	n/a	n/a	n/a	11	1	9	1	n/a	n/a	n/a	n/a	n/a
1344916	STOP	n/a	LTP209	ltpFR	11	n/a	n/a	n/a	n/a	n/a	n/a	n/a	n/a	n/a	n/a	n/a	n/a	n/a	n/a	n/a
1346700	REC_START	n/a	LTP209	ltpFR	11	5	n/a	n/a	n/a	n/a	n/a	n/a	0	0	0	n/a	n/a	n/a	n/a	n/a
1347951	REC_WORD	wordpools/wasnorm_wordpool_less_exclusions.txt	LTP209	ltpFR	11	5	0	SPACE	1345	n/a	0	n/a	0	0	0	n/a	n/a	n/a	n/a	n/a
1355405	REC_WORD	wordpools/wasnorm_wordpool_less_exclusions.txt	LTP209	ltpFR	11	5	1	WARRIOR	1589	n/a	1	n/a	0	0	0	n/a	n/a	n/a	n/a	n/a
1357101	REC_WORD	wordpools/wasnorm_wordpool_less_exclusions.txt	LTP209	ltpFR	11	5	1	BROCCOLI	176	n/a	1	n/a	0	0	0	n/a	n/a	n/a	n/a	n/a
1358882	REC_WORD	wordpools/wasnorm_wordpool_less_exclusions.txt	LTP209	ltpFR	11	5	1	PARSLEY	1016	n/a	1	n/a	0	0	0	n/a	n/a	n/a	n/a	n/a
1363322	REC_WORD	wordpools/wasnorm_wordpool_less_exclusions.txt	LTP209	ltpFR	11	5	0	WAREHOUSE	1588	n/a	1	n/a	0	0	0	n/a	n/a	n/a	n/a	n/a
1364913	REC_WORD	wordpools/wasnorm_wordpool_less_exclusions.txt	LTP209	ltpFR	11	5	1	PONY	1102	n/a	1	n/a	0	0	0	n/a	n/a	n/a	n/a	n/a
1366569	REC_WORD	wordpools/wasnorm_wordpool_less_exclusions.txt	LTP209	ltpFR	11	5	1	FLAG	573	n/a	0	n/a	0	0	0	n/a	n/a	n/a	n/a	n/a
1369139	REC_WORD	wordpools/wasnorm_wordpool_less_exclusions.txt	LTP209	ltpFR	11	5	0	DICTIONARY	463	n/a	1	n/a	0	0	0	n/a	n/a	n/a	n/a	n/a
1370920	REC_WORD	wordpools/wasnorm_wordpool_less_exclusions.txt	LTP209	ltpFR	11	5	0	THESAURUS	1454	n/a	1	n/a	0	0	0	n/a	n/a	n/a	n/a	n/a
1371915	REC_WORD_VV	wordpools/wasnorm_wordpool_less_exclusions.txt	LTP209	ltpFR	11	5	n/a	<>	-1	n/a	n/a	n/a	0	0	0	n/a	n/a	n/a	n/a	n/a
1381106	REC_WORD	wordpools/wasnorm_wordpool_less_exclusions.txt	LTP209	ltpFR	11	5	1	SPARROW	1347	n/a	1	n/a	0	0	0	n/a	n/a	n/a	n/a	n/a
1435070	WORD	wordpools/wasnorm_wordpool_less_exclusions.txt	LTP209	ltpFR	11	6	1	FLEET	578	n/a	0	n/a	0	0	0	0	0.5869140625	0.422607421875	upper	../fonts/amplitud.ttf
1439253	WORD	wordpools/wasnorm_wordpool_less_exclusions.txt	LTP209	ltpFR	11	6	1	REEF	1177	n/a	1	n/a	0	0	0	0	0.5869140625	0.422607421875	upper	../fonts/amplitud.ttf
1443434	WORD	wordpools/wasnorm_wordpool_less_exclusions.txt	LTP209	ltpFR	11	6	1	SEAL	1262	n/a	1	n/a	0	0	0	0	0.5869140625	0.422607421875	upper	../fonts/amplitud.ttf
1447399	WORD	wordpools/wasnorm_wordpool_less_exclusions.txt	LTP209	ltpFR	11	6	1	FEAST	556	n/a	1	n/a	0	0	0	0	0.5869140625	0.422607421875	upper	../fonts/amplitud.ttf
1451381	WORD	wordpools/wasnorm_wordpool_less_exclusions.txt	LTP209	ltpFR	11	6	1	CORAL	378	n/a	1	n/a	0	0	0	0	0.5869140625	0.422607421875	upper	../fonts/amplitud.ttf
1455346	WORD	wordpools/wasnorm_wordpool_less_exclusions.txt	LTP209	ltpFR	11	6	1	DIVER	476	n/a	1	n/a	0	0	0	0	0.5869140625	0.422607421875	upper	../fonts/amplitud.ttf
1459373	WORD	wordpools/wasnorm_wordpool_less_exclusions.txt	LTP209	ltpFR	11	6	1	TEACHER	1440	n/a	1	n/a	0	0	0	0	0.5869140625	0.422607421875	upper	../fonts/amplitud.ttf
1463493	WORD	wordpools/wasnorm_wordpool_less_exclusions.txt	LTP209	ltpFR	11	6	1	FRANCE	601	n/a	0	n/a	0	0	0	0	0.5869140625	0.422607421875	upper	../fonts/amplitud.ttf
1467710	WORD	wordpools/wasnorm_wordpool_less_exclusions.txt	LTP209	ltpFR	11	6	1	DINNER	468	n/a	1	n/a	0	0	0	0	0.5869140625	0.422607421875	upper	../fonts/amplitud.ttf
1471536	WORD	wordpools/wasnorm_wordpool_less_exclusions.txt	LTP209	ltpFR	11	6	1	TOAST	1471	n/a	1	n/a	0	0	0	0	0.5869140625	0.422607421875	upper	../fonts/amplitud.ttf
1475690	WORD	wordpools/wasnorm_wordpool_less_exclusions.txt	LTP209	ltpFR	11	6	1	TUTU	1524	n/a	0	n/a	0	0	0	0	0.5869140625	0.422607421875	upper	../fonts/amplitud.ttf
1479705	WORD	wordpools/wasnorm_wordpool_less_exclusions.txt	LTP209	ltpFR	11	6	1	LACE	792	n/a	0	n/a	0	0	0	0	0.5869140625	0.422607421875	upper	../fonts/amplitud.ttf
1483854	WORD	wordpools/wasnorm_wordpool_less_exclusions.txt	LTP209	ltpFR	11	6	1	ASIA	46	n/a	0	n/a	0	0	0	0	0.5869140625	0.422607421875	upper	../fonts/amplitud.ttf
1487735	WORD	wordpools/wasnorm_wordpool_less_exclusions.txt	LTP209	ltpFR	11	6	1	ORANGE	980	n/a	1	n/a	0	0	0	0	0.5869140625	0.422607421875	upper	../fonts/amplitud.ttf
1491851	WORD	wordpools/wasnorm_wordpool_less_exclusions.txt	LTP209	ltpFR	11	6	1	PEAR	1033	n/a	1	n/a	0	0	0	0	0.5869140625	0.422607421875	upper	../fonts/amplitud.ttf
1495983	WORD	wordpools/wasnorm_wordpool_less_exclusions.txt	LTP209	ltpFR	11	6	1	FORT	595	n/a	1	n/a	0	0	0	0	0.5869140625	0.422607421875	upper	../fonts/amplitud.ttf
1498995	START	n/a	LTP209	ltpFR	11	n/a	n/a	n/a	n/a	n/a	n/a	n/a	n/a	n/a	n/a	n/a	n/a	n/a	n/a	n/a
1500099	PROB	n/a	LTP209	ltpFR	11	n/a	n/a	n/a	n/a	n/a	n/a	13	3	4	6	n/a	n/a	n/a	n/a	n/a
1502202	PROB	n/a	LTP209	ltpFR	11	n/a	n/a	n/a	n/a	n/a	n/a	15	8	6	1	n/a	n/a	n/a	n/a	n/a
1503612	PROB	n/a	LTP209	ltpFR	11	n/a	n/a	n/a	n/a	n/a	n/a	22	6	7	5	n/a	n/a	n/a	n/a	n/a
1505530	PROB	n/a	LTP209	ltpFR	11	n/a	n/a	n/a	n/a	n/a	n/a	17	9	5	3	n/a	n/a	n/a	n/a	n/a
1508748	PROB	n/a	LTP209	ltpFR	11	n/a	n/a	n/a	n/a	n/a	n/a	13	1	9	3	n/a	n/a	n/a	n/a	n/a
1509898	PROB	n/a	LTP209	ltpFR	11	n/a	n/a	n/a	n/a	n/a	n/a	15	9	1	5	n/a	n/a	n/a	n/a	n/a
1511036	PROB	n/a	LTP209	ltpFR	11	n/a	n/a	n/a	n/a	n/a	n/a	22	8	9	5	n/a	n/a	n/a	n/a	n/a
1513743	STOP	n/a	LTP209	ltpFR	11	n/a	n/a	n/a	n/a	n/a	n/a	n/a	n/a	n/a	n/a	n/a	n/a	n/a	n/a	n/a
1516892	REC_START	n/a	LTP209	ltpFR	11	6	n/a	n/a	n/a	n/a	n/a	n/a	0	0	0	n/a	n/a	n/a	n/a	n/a
1518633	REC_WORD	wordpools/wasnorm_wordpool_less_exclusions.txt	LTP209	ltpFR	11	6	1	TUTU	1524	n/a	0	n/a	0	0	0	n/a	n/a	n/a	n/a	n/a
1519695	REC_WORD	wordpools/wasnorm_wordpool_less_exclusions.txt	LTP209	ltpFR	11	6	1	LACE	792	n/a	0	n/a	0	0	0	n/a	n/a	n/a	n/a	n/a
1520823	REC_WORD	wordpools/wasnorm_wordpool_less_exclusions.txt	LTP209	ltpFR	11	6	1	ASIA	46	n/a	0	n/a	0	0	0	n/a	n/a	n/a	n/a	n/a
1521810	REC_WORD	wordpools/wasnorm_wordpool_less_exclusions.txt	LTP209	ltpFR	11	6	1	FRANCE	601	n/a	0	n/a	0	0	0	n/a	n/a	n/a	n/a	n/a
1526570	REC_WORD	wordpools/wasnorm_wordpool_less_exclusions.txt	LTP209	ltpFR	11	6	1	FLEET	578	n/a	0	n/a	0	0	0	n/a	n/a	n/a	n/a	n/a
1527857	REC_WORD	wordpools/wasnorm_wordpool_less_exclusions.txt	LTP209	ltpFR	11	6	1	CORAL	378	n/a	1	n/a	0	0	0	n/a	n/a	n/a	n/a	n/a
1528999	REC_WORD	wordpools/wasnorm_wordpool_less_exclusions.txt	LTP209	ltpFR	11	6	1	REEF	1177	n/a	1	n/a	0	0	0	n/a	n/a	n/a	n/a	n/a
1531783	REC_WORD	wordpools/wasnorm_wordpool_less_exclusions.txt	LTP209	ltpFR	11	6	1	SEAL	1262	n/a	1	n/a	0	0	0	n/a	n/a	n/a	n/a	n/a
1534302	REC_WORD	wordpools/wasnorm_wordpool_less_exclusions.txt	LTP209	ltpFR	11	6	1	DIVER	476	n/a	1	n/a	0	0	0	n/a	n/a	n/a	n/a	n/a
1536767	REC_WORD	wordpools/wasnorm_wordpool_less_exclusions.txt	LTP209	ltpFR	11	6	1	DINNER	468	n/a	1	n/a	0	0	0	n/a	n/a	n/a	n/a	n/a
1537634	REC_WORD	wordpools/wasnorm_wordpool_less_exclusions.txt	LTP209	ltpFR	11	6	1	FEAST	556	n/a	1	n/a	0	0	0	n/a	n/a	n/a	n/a	n/a
1539271	REC_WORD	wordpools/wasnorm_wordpool_less_exclusions.txt	LTP209	ltpFR	11	6	1	ORANGE	980	n/a	1	n/a	0	0	0	n/a	n/a	n/a	n/a	n/a
1559485	REC_WORD	wordpools/wasnorm_wordpool_less_exclusions.txt	LTP209	ltpFR	11	6	1	TOAST	1471	n/a	1	n/a	0	0	0	n/a	n/a	n/a	n/a	n/a
1603170	WORD	wordpools/wasnorm_wordpool_less_exclusions.txt	LTP209	ltpFR	11	7	1	COLONEL	348	n/a	1	n/a	0	0	0	0	0.5869140625	0.422607421875	upper	../fonts/amplitud.ttf
1607018	WORD	wordpools/wasnorm_wordpool_less_exclusions.txt	LTP209	ltpFR	11	7	1	THRONE	1461	n/a	0	n/a	0	0	0	0	0.5869140625	0.422607421875	upper	../fonts/amplitud.ttf
1610933	WORD	wordpools/wasnorm_wordpool_less_exclusions.txt	LTP209	ltpFR	11	7	1	PALACE	1006	n/a	0	n/a	0	0	0	0	0.5869140625	0.422607421875	upper	../fonts/amplitud.ttf
1615115	WORD	wordpools/wasnorm_wordpool_less_exclusions.txt	LTP209	ltpFR	11	7	1	LUNCH	849	n/a	0	n/a	0	0	0	0	0.5869140625	0.422607421875	upper	../fonts/amplitud.ttf
1619214	WORD	wordpools/wasnorm_wordpool_less_exclusions.txt	LTP209	ltpFR	11	7	1	CAFE	216	n/a	0	n/a	0	0	0	0	0.5869140625	0.422607421875	upper	../fonts/amplitud.ttf
1623095	WORD	wordpools/wasnorm_wordpool_less_exclusions.txt	LTP209	ltpFR	11	7	1	BRIDE	173	n/a	1	n/a	0	0	0	0	0.5869140625	0.422607421875	upper	../fonts/amplitud.ttf
1627010	WORD	wordpools/wasnorm_wordpool_less_exclusions.txt	LTP209	ltpFR	11	7	1	SADDLE	1221	n/a	0	n/a	0	0	0	0	0.5869140625	0.422607421875	upper	../fonts/amplitud.ttf
1630942	WORD	wordpools/wasnorm_wordpool_less_exclusions.txt	LTP209	ltpFR	11	7	1	CRITIC	410	n/a	1	n/a	0	0	0	0	0.5869140625	0.422607421875	upper	../fonts/amplitud.ttf
1635141	WORD	wordpools/wasnorm_wordpool_less_exclusions.txt	LTP209	ltpFR	11	7	1	LIEUTENANT	818	n/a	1	n/a	0	0	0	0	0.5869140625	0.422607421875	upper	../fonts/amplitud.ttf
1639240	WORD	wordpools/wasnorm_wordpool_less_exclusions.txt	LTP209	ltpFR	11	7	1	ATTIC	56	n/a	0	n/a	0	0	0	0	0.5869140625	0.422607421875	upper	../fonts/amplitud.ttf
1643421	WORD	wordpools/wasnorm_wordpool_less_exclusions.txt	LTP209	ltpFR	11	7	1	PRAIRIE	1118	n/a	0	n/a	0	0	0	0	0.5869140625	0.422607421875	upper	../fonts/amplitud.ttf
1647286	WORD	wordpools/wasnorm_wordpool_less_exclusions.txt	LTP209	ltpFR	11	7	1	COLUMN	350	n/a	0	n/a	0	0	0	0	0.5869140625	0.422607421875	upper	../fonts/amplitud.ttf
1651384	WORD	wordpools/wasnorm_wordpool_less_exclusions.txt	LTP209	ltpFR	11	7	1	LOG	841	n/a	0	n/a	0	0	0	0	0.5869140625	0.422607421875	upper	../fonts/amplitud.ttf
1655316	WORD	wordpools/wasnorm_wordpool_less_exclusions.txt	LTP209	ltpFR	11	7	1	SUIT	1402	n/a	0	n/a	0	0	0	0	0.5869140625	0.422607421875	upper	../fonts/amplitud.ttf
1659398	WORD	wordpools/wasnorm_wordpool_less_exclusions.txt	LTP209	ltpFR	11	7	1	SHELF	1280	n/a	0	n/a	0	0	0	0	0.5869140625	0.422607421875	upper	../fonts/amplitud.ttf
1663296	WORD	wordpools/wasnorm_wordpool_less_exclusions.txt	LTP209	ltpFR	11	7	1	CARPENTER	246	n/a	1	n/a	0	0	0	0	0.5869140625	0.422607421875	upper	../fonts/amplitud.ttf
1666308	START	n/a	LTP209	ltpFR	11	n/a	n/a	n/a	n/a	n/a	n/a	n/a	n/a	n/a	n/a	n/a	n/a	n/a	n/a	n/a
1667378	PROB	n/a	LTP209	ltpFR	11	n/a	n/a	n/a	n/a	n/a	n/a	18	5	9	4	n/a	n/a	n/a	n/a	n/a
1668947	PROB	n/a	LTP209	ltpFR	11	n/a	n/a	n/a	n/a	n/a	n/a	10	2	5	3	n/a	n/a	n/a	n/a	n/a
1670322	PROB	n/a	LTP209	ltpFR	11	n/a	n/a	n/a	n/a	n/a	n/a	19	8	7	4	n/a	n/a	n/a	n/a	n/a
1672210	PROB	n/a	LTP209	ltpFR	11	n/a	n/a	n/a	n/a	n/a	n/a	19	8	3	8	n/a	n/a	n/a	n/a	n/a
1673759	STOP	n/a	LTP209	ltpFR	11	n/a	n/a	n/a	n/a	n/a	n/a	n/a	n/a	n/a	n/a	n/a	n/a	n/a	n/a	n/a
1676179	REC_START	n/a	LTP209	ltpFR	11	7	n/a	n/a	n/a	n/a	n/a	n/a	0	0	0	n/a	n/a	n/a	n/a	n/a
1676663	REC_WORD	wordpools/wasnorm_wordpool_less_exclusions.txt	LTP209	ltpFR	11	7	1	SUIT	1402	n/a	0	n/a	0	0	0	n/a	n/a	n/a	n/a	n/a
1679546	REC_WORD	wordpools/wasnorm_wordpool_less_exclusions.txt	LTP209	ltpFR	11	7	n/a	CASTLE	256	n/a	n/a	n/a	0	0	0	n/a	n/a	n/a	n/a	n/a
1681128	REC_WORD	wordpools/wasnorm_wordpool_less_exclusions.txt	LTP209	ltpFR	11	7	1	LIEUTENANT	818	n/a	1	n/a	0	0	0	n/a	n/a	n/a	n/a	n/a
1683188	REC_WORD	wordpools/wasnorm_wordpool_less_exclusions.txt	LTP209	ltpFR	11	7	1	CRITIC	410	n/a	1	n/a	0	0	0	n/a	n/a	n/a	n/a	n/a
1684734	REC_WORD	wordpools/wasnorm_wordpool_less_exclusions.txt	LTP209	ltpFR	11	7	1	CARPENTER	246	n/a	1	n/a	0	0	0	n/a	n/a	n/a	n/a	n/a
1686416	REC_WORD	wordpools/wasnorm_wordpool_less_exclusions.txt	LTP209	ltpFR	11	7	1	COLONEL	348	n/a	1	n/a	0	0	0	n/a	n/a	n/a	n/a	n/a
1689434	REC_WORD	wordpools/wasnorm_wordpool_less_exclusions.txt	LTP209	ltpFR	11	7	1	PRAIRIE	1118	n/a	0	n/a	0	0	0	n/a	n/a	n/a	n/a	n/a
1691669	REC_WORD	wordpools/wasnorm_wordpool_less_exclusions.txt	LTP209	ltpFR	11	7	n/a	CASTLE	256	n/a	n/a	n/a	0	0	0	n/a	n/a	n/a	n/a	n/a
1692991	REC_WORD	wordpools/wasnorm_wordpool_less_exclusions.txt	LTP209	ltpFR	11	7	1	THRONE	1461	n/a	0	n/a	0	0	0	n/a	n/a	n/a	n/a	n/a
1694278	REC_WORD	wordpools/wasnorm_wordpool_less_exclusions.txt	LTP209	ltpFR	11	7	1	LUNCH	849	n/a	0	n/a	0	0	0	n/a	n/a	n/a	n/a	n/a
1695530	REC_WORD	wordpools/wasnorm_wordpool_less_exclusions.txt	LTP209	ltpFR	11	7	1	CAFE	216	n/a	0	n/a	0	0	0	n/a	n/a	n/a	n/a	n/a
1771785	START	n/a	LTP209	ltpFR	11	n/a	n/a	n/a	n/a	n/a	n/a	n/a	n/a	n/a	n/a	n/a	n/a	n/a	n/a	n/a
1773295	PROB	n/a	LTP209	ltpFR	11	n/a	n/a	n/a	n/a	n/a	n/a	12	1	9	2	n/a	n/a	n/a	n/a	n/a
1774947	PROB	n/a	LTP209	ltpFR	11	n/a	n/a	n/a	n/a	n/a	n/a	17	3	8	6	n/a	n/a	n/a	n/a	n/a
1776887	PROB	n/a	LTP209	ltpFR	11	n/a	n/a	n/a	n/a	n/a	n/a	12	1	7	4	n/a	n/a	n/a	n/a	n/a
1778459	PROB	n/a	LTP209	ltpFR	11	n/a	n/a	n/a	n/a	n/a	n/a	8	2	2	4	n/a	n/a	n/a	n/a	n/a
1779479	PROB	n/a	LTP209	ltpFR	11	n/a	n/a	n/a	n/a	n/a	n/a	14	4	3	7	n/a	n/a	n/a	n/a	n/a
1781020	PROB	n/a	LTP209	ltpFR	11	n/a	n/a	n/a	n/a	n/a	n/a	23	8	7	5	n/a	n/a	n/a	n/a	n/a
1783044	PROB	n/a	LTP209	ltpFR	11	n/a	n/a	n/a	n/a	n/a	n/a	12	5	1	6	n/a	n/a	n/a	n/a	n/a
1784465	PROB	n/a	LTP209	ltpFR	11	n/a	n/a	n/a	n/a	n/a	n/a	15	4	4	7	n/a	n/a	n/a	n/a	n/a
1785892	PROB	n/a	LTP209	ltpFR	11	n/a	n/a	n/a	n/a	n/a	n/a	13	7	5	1	n/a	n/a	n/a	n/a	n/a
1787279	STOP	n/a	LTP209	ltpFR	11	n/a	n/a	n/a	n/a	n/a	n/a	n/a	n/a	n/a	n/a	n/a	n/a	n/a	n/a	n/a
1788954	WORD	wordpools/wasnorm_wordpool_less_exclusions.txt	LTP209	ltpFR	11	8	0	KETTLE	772	n/a	1	n/a	0	0	0	1	0.412841796875	0.57763671875	lower	../fonts/zerothre.ttf
1791966	START	n/a	LTP209	ltpFR	11	n/a	n/a	n/a	n/a	n/a	n/a	n/a	n/a	n/a	n/a	n/a	n/a	n/a	n/a	n/a
1793153	PROB	n/a	LTP209	ltpFR	11	n/a	n/a	n/a	n/a	n/a	n/a	20	9	8	3	n/a	n/a	n/a	n/a	n/a
1795507	PROB	n/a	LTP209	ltpFR	11	n/a	n/a	n/a	n/a	n/a	n/a	21	6	6	9	n/a	n/a	n/a	n/a	n/a
1798653	PROB	n/a	LTP209	ltpFR	11	n/a	n/a	n/a	n/a	n/a	n/a	5	1	1	3	n/a	n/a	n/a	n/a	n/a
1799857	PROB	n/a	LTP209	ltpFR	11	n/a	n/a	n/a	n/a	n/a	n/a	9	1	2	6	n/a	n/a	n/a	n/a	n/a
1801279	PROB	n/a	LTP209	ltpFR	11	n/a	n/a	n/a	n/a	n/a	n/a	8	1	1	6	n/a	n/a	n/a	n/a	n/a
1802320	PROB	n/a	LTP209	ltpFR	11	n/a	n/a	n/a	n/a	n/a	n/a	17	8	1	8	n/a	n/a	n/a	n/a	n/a
1803676	PROB	n/a	LTP209	ltpFR	11	n/a	n/a	n/a	n/a	n/a	n/a	20	8	8	4	n/a	n/a	n/a	n/a	n/a
1805646	PROB	n/a	LTP209	ltpFR	11	n/a	n/a	n/a	n/a	n/a	n/a	20	8	9	3	n/a	n/a	n/a	n/a	n/a
1807687	STOP	n/a	LTP209	ltpFR	11	n/a	n/a	n/a	n/a	n/a	n/a	n/a	n/a	n/a	n/a	n/a	n/a	n/a	n/a	n/a
1809063	WORD	wordpools/wasnorm_wordpool_less_exclusions.txt	LTP209	ltpFR	11	8	0	HOSE	720	n/a	0	n/a	0	0	0	1	0.412841796875	0.57763671875	lower	../fonts/zerothre.ttf
1812075	START	n/a	LTP209	ltpFR	11	n/a	n/a	n/a	n/a	n/a	n/a	n/a	n/a	n/a	n/a	n/a	n/a	n/a	n/a	n/a
1812994	PROB	n/a	LTP209	ltpFR	11	n/a	n/a	n/a	n/a	n/a	n/a	11	5	3	3	n/a	n/a	n/a	n/a	n/a
1816257	PROB	n/a	LTP209	ltpFR	11	n/a	n/a	n/a	n/a	n/a	n/a	23	9	7	7	n/a	n/a	n/a	n/a	n/a
1818130	PROB	n/a	LTP209	ltpFR	11	n/a	n/a	n/a	n/a	n/a	n/a	15	5	3	7	n/a	n/a	n/a	n/a	n/a
1820333	PROB	n/a	LTP209	ltpFR	11	n/a	n/a	n/a	n/a	n/a	n/a	6	2	1	3	n/a	n/a	n/a	n/a	n/a
1823283	PROB	n/a	LTP209	ltpFR	11	n/a	n/a	n/a	n/a	n/a	n/a	21	7	6	8	n/a	n/a	n/a	n/a	n/a
1825352	PROB	n/a	LTP209	ltpFR	11	n/a	n/a	n/a	n/a	n/a	n/a	13	4	5	4	n/a	n/a	n/a	n/a	n/a
1827175	STOP	n/a	LTP209	ltpFR	11	n/a	n/a	n/a	n/a	n/a	n/a	n/a	n/a	n/a	n/a	n/a	n/a	n/a	n/a	n/a
1829184	WORD	wordpools/wasnorm_wordpool_less_exclusions.txt	LTP209	ltpFR	11	8	0	PANTHER	1009	n/a	1	n/a	0	0	0	1	0.412841796875	0.57763671875	lower	../fonts/zerothre.ttf
1832201	START	n/a	LTP209	ltpFR	11	n/a	n/a	n/a	n/a	n/a	n/a	n/a	n/a	n/a	n/a	n/a	n/a	n/a	n/a	n/a
1833254	PROB	n/a	LTP209	ltpFR	11	n/a	n/a	n/a	n/a	n/a	n/a	10	7	2	1	n/a	n/a	n/a	n/a	n/a
1834772	PROB	n/a	LTP209	ltpFR	11	n/a	n/a	n/a	n/a	n/a	n/a	15	7	2	6	n/a	n/a	n/a	n/a	n/a
1836964	PROB	n/a	LTP209	ltpFR	11	n/a	n/a	n/a	n/a	n/a	n/a	19	3	8	8	n/a	n/a	n/a	n/a	n/a
1838754	PROB	n/a	LTP209	ltpFR	11	n/a	n/a	n/a	n/a	n/a	n/a	20	9	4	7	n/a	n/a	n/a	n/a	n/a
1840996	PROB	n/a	LTP209	ltpFR	11	n/a	n/a	n/a	n/a	n/a	n/a	4	2	1	1	n/a	n/a	n/a	n/a	n/a
1842050	PROB	n/a	LTP209	ltpFR	11	n/a	n/a	n/a	n/a	n/a	n/a	11	2	1	8	n/a	n/a	n/a	n/a	n/a
1843487	PROB	n/a	LTP209	ltpFR	11	n/a	n/a	n/a	n/a	n/a	n/a	18	9	8	1	n/a	n/a	n/a	n/a	n/a
1845580	PROB	n/a	LTP209	ltpFR	11	n/a	n/a	n/a	n/a	n/a	n/a	15	7	3	5	n/a	n/a	n/a	n/a	n/a
1847255	STOP	n/a	LTP209	ltpFR	11	n/a	n/a	n/a	n/a	n/a	n/a	n/a	n/a	n/a	n/a	n/a	n/a	n/a	n/a	n/a
1849080	WORD	wordpools/wasnorm_wordpool_less_exclusions.txt	LTP209	ltpFR	11	8	0	NUT	965	n/a	0	n/a	0	0	0	1	0.412841796875	0.57763671875	lower	../fonts/zerothre.ttf
1852092	START	n/a	LTP209	ltpFR	11	n/a	n/a	n/a	n/a	n/a	n/a	n/a	n/a	n/a	n/a	n/a	n/a	n/a	n/a	n/a
1852978	PROB	n/a	LTP209	ltpFR	11	n/a	n/a	n/a	n/a	n/a	n/a	18	3	8	7	n/a	n/a	n/a	n/a	n/a
1855537	PROB	n/a	LTP209	ltpFR	11	n/a	n/a	n/a	n/a	n/a	n/a	13	2	5	6	n/a	n/a	n/a	n/a	n/a
1857746	PROB	n/a	LTP209	ltpFR	11	n/a	n/a	n/a	n/a	n/a	n/a	15	9	1	5	n/a	n/a	n/a	n/a	n/a
1858884	PROB	n/a	LTP209	ltpFR	11	n/a	n/a	n/a	n/a	n/a	n/a	10	5	3	2	n/a	n/a	n/a	n/a	n/a
1861193	PROB	n/a	LTP209	ltpFR	11	n/a	n/a	n/a	n/a	n/a	n/a	24	6	9	9	n/a	n/a	n/a	n/a	n/a
1864200	PROB	n/a	LTP209	ltpFR	11	n/a	n/a	n/a	n/a	n/a	n/a	11	4	1	6	n/a	n/a	n/a	n/a	n/a
1865588	PROB	n/a	LTP209	ltpFR	11	n/a	n/a	n/a	n/a	n/a	n/a	8	4	3	1	n/a	n/a	n/a	n/a	n/a
1867390	STOP	n/a	LTP209	ltpFR	11	n/a	n/a	n/a	n/a	n/a	n/a	n/a	n/a	n/a	n/a	n/a	n/a	n/a	n/a	n/a
1869022	WORD	wordpools/wasnorm_wordpool_less_exclusions.txt	LTP209	ltpFR	11	8	0	TEMPLE	1448	n/a	1	n/a	0	0	0	1	0.412841796875	0.57763671875	lower	../fonts/zerothre.ttf
1872034	START	n/a	LTP209	ltpFR	11	n/a	n/a	n/a	n/a	n/a	n/a	n/a	n/a	n/a	n/a	n/a	n/a	n/a	n/a	n/a
1873100	PROB	n/a	LTP209	ltpFR	11	n/a	n/a	n/a	n/a	n/a	n/a	15	4	4	7	n/a	n/a	n/a	n/a	n/a
1875362	PROB	n/a	LTP209	ltpFR	11	n/a	n/a	n/a	n/a	n/a	n/a	21	8	8	5	n/a	n/a	n/a	n/a	n/a
1877348	PROB	n/a	LTP209	ltpFR	11	n/a	n/a	n/a	n/a	n/a	n/a	14	3	9	2	n/a	n/a	n/a	n/a	n/a
1879261	PROB	n/a	LTP209	ltpFR	11	n/a	n/a	n/a	n/a	n/a	n/a	9	1	2	5	n/a	n/a	n/a	n/a	n/a
1880812	PROB	n/a	LTP209	ltpFR	11	n/a	n/a	n/a	n/a	n/a	n/a	18	6	9	3	n/a	n/a	n/a	n/a	n/a
1882803	PROB	n/a	LTP209	ltpFR	11	n/a	n/a	n/a	n/a	n/a	n/a	8	1	2	5	n/a	n/a	n/a	n/a	n/a
1884325	PROB	n/a	LTP209	ltpFR	11	n/a	n/a	n/a	n/a	n/a	n/a	9	4	3	2	n/a	n/a	n/a	n/a	n/a
1888034	STOP	n/a	LTP209	ltpFR	11	n/a	n/a	n/a	n/a	n/a	n/a	n/a	n/a	n/a	n/a	n/a	n/a	n/a	n/a	n/a
1888914	WORD	wordpools/wasnorm_wordpool_less_exclusions.txt	LTP209	ltpFR	11	8	0	MONK	910	n/a	1	n/a	0	0	0	1	0.412841796875	0.57763671875	lower	../fonts/zerothre.ttf
1891926	START	n/a	LTP209	ltpFR	11	n/a	n/a	n/a	n/a	n/a	n/a	n/a	n/a	n/a	n/a	n/a	n/a	n/a	n/a	n/a
1893096	PROB	n/a	LTP209	ltpFR	11	n/a	n/a	n/a	n/a	n/a	n/a	19	6	5	8	n/a	n/a	n/a	n/a	n/a
1895673	PROB	n/a	LTP209	ltpFR	11	n/a	n/a	n/a	n/a	n/a	n/a	9	4	3	2	n/a	n/a	n/a	n/a	n/a
1897877	PROB	n/a	LTP209	ltpFR	11	n/a	n/a	n/a	n/a	n/a	n/a	13	5	7	1	n/a	n/a	n/a	n/a	n/a
1900052	PROB	n/a	LTP209	ltpFR	11	n/a	n/a	n/a	n/a	n/a	n/a	6	4	1	1	n/a	n/a	n/a	n/a	n/a
1901089	PROB	n/a	LTP209	ltpFR	11	n/a	n/a	n/a	n/a	n/a	n/a	11	5	2	4	n/a	n/a	n/a	n/a	n/a
1903363	PROB	n/a	LTP209	ltpFR	11	n/a	n/a	n/a	n/a	n/a	n/a	8	1	3	4	n/a	n/a	n/a	n/a	n/a
1907926	STOP	n/a	LTP209	ltpFR	11	n/a	n/a	n/a	n/a	n/a	n/a	n/a	n/a	n/a	n/a	n/a	n/a	n/a	n/a	n/a
1908989	WORD	wordpools/wasnorm_wordpool_less_exclusions.txt	LTP209	ltpFR	11	8	0	CRUMB	416	n/a	0	n/a	0	0	0	1	0.412841796875	0.57763671875	lower	../fonts/zerothre.ttf
1912001	START	n/a	LTP209	ltpFR	11	n/a	n/a	n/a	n/a	n/a	n/a	n/a	n/a	n/a	n/a	n/a	n/a	n/a	n/a	n/a
1913055	PROB	n/a	LTP209	ltpFR	11	n/a	n/a	n/a	n/a	n/a	n/a	23	7	9	7	n/a	n/a	n/a	n/a	n/a
1916597	PROB	n/a	LTP209	ltpFR	11	n/a	n/a	n/a	n/a	n/a	n/a	14	8	1	5	n/a	n/a	n/a	n/a	n/a
1918153	PROB	n/a	LTP209	ltpFR	11	n/a	n/a	n/a	n/a	n/a	n/a	24	6	9	9	n/a	n/a	n/a	n/a	n/a
1920010	PROB	n/a	LTP209	ltpFR	11	n/a	n/a	n/a	n/a	n/a	n/a	17	6	8	3	n/a	n/a	n/a	n/a	n/a
1922051	PROB	n/a	LTP209	ltpFR	11	n/a	n/a	n/a	n/a	n/a	n/a	13	6	3	4	n/a	n/a	n/a	n/a	n/a
1923607	PROB	n/a	LTP209	ltpFR	11	n/a	n/a	n/a	n/a	n/a	n/a	16	8	5	3	n/a	n/a	n/a	n/a	n/a
1925585	PROB	n/a	LTP209	ltpFR	11	n/a	n/a	n/a	n/a	n/a	n/a	18	7	4	7	n/a	n/a	n/a	n/a	n/a
1926887	STOP	n/a	LTP209	ltpFR	11	n/a	n/a	n/a	n/a	n/a	n/a	n/a	n/a	n/a	n/a	n/a	n/a	n/a	n/a	n/a
1929211	WORD	wordpools/wasnorm_wordpool_less_exclusions.txt	LTP209	ltpFR	11	8	0	EARTH	515	n/a	1	n/a	0	0	0	1	0.412841796875	0.57763671875	lower	../fonts/zerothre.ttf
1932228	START	n/a	LTP209	ltpFR	11	n/a	n/a	n/a	n/a	n/a	n/a	n/a	n/a	n/a	n/a	n/a	n/a	n/a	n/a	n/a
1933264	PROB	n/a	LTP209	ltpFR	11	n/a	n/a	n/a	n/a	n/a	n/a	10	5	1	4	n/a	n/a	n/a	n/a	n/a
1934418	PROB	n/a	LTP209	ltpFR	11	n/a	n/a	n/a	n/a	n/a	n/a	13	4	3	6	n/a	n/a	n/a	n/a	n/a
1936706	PROB	n/a	LTP209	ltpFR	11	n/a	n/a	n/a	n/a	n/a	n/a	15	1	9	5	n/a	n/a	n/a	n/a	n/a
1937777	PROB	n/a	LTP209	ltpFR	11	n/a	n/a	n/a	n/a	n/a	n/a	15	9	2	4	n/a	n/a	n/a	n/a	n/a
1939199	PROB	n/a	LTP209	ltpFR	11	n/a	n/a	n/a	n/a	n/a	n/a	12	2	3	7	n/a	n/a	n/a	n/a	n/a
1940588	PROB	n/a	LTP209	ltpFR	11	n/a	n/a	n/a	n/a	n/a	n/a	13	7	4	2	n/a	n/a	n/a	n/a	n/a
1942867	PROB	n/a	LTP209	ltpFR	11	n/a	n/a	n/a	n/a	n/a	n/a	10	3	5	2	n/a	n/a	n/a	n/a	n/a
1944720	PROB	n/a	LTP209	ltpFR	11	n/a	n/a	n/a	n/a	n/a	n/a	14	1	6	7	n/a	n/a	n/a	n/a	n/a
1945929	PROB	n/a	LTP209	ltpFR	11	n/a	n/a	n/a	n/a	n/a	n/a	20	5	6	9	n/a	n/a	n/a	n/a	n/a
1947655	STOP	n/a	LTP209	ltpFR	11	n/a	n/a	n/a	n/a	n/a	n/a	n/a	n/a	n/a	n/a	n/a	n/a	n/a	n/a	n/a
1949336	WORD	wordpools/wasnorm_wordpool_less_exclusions.txt	LTP209	ltpFR	11	8	0	SHORTCAKE	1292	n/a	1	n/a	0	0	0	1	0.412841796875	0.57763671875	lower	../fonts/zerothre.ttf
1952352	START	n/a	LTP209	ltpFR	11	n/a	n/a	n/a	n/a	n/a	n/a	n/a	n/a	n/a	n/a	n/a	n/a	n/a	n/a	n/a
1953452	PROB	n/a	LTP209	ltpFR	11	n/a	n/a	n/a	n/a	n/a	n/a	18	8	3	7	n/a	n/a	n/a	n/a	n/a
1955678	PROB	n/a	LTP209	ltpFR	11	n/a	n/a	n/a	n/a	n/a	n/a	7	3	3	1	n/a	n/a	n/a	n/a	n/a
1956815	PROB	n/a	LTP209	ltpFR	11	n/a	n/a	n/a	n/a	n/a	n/a	17	4	5	8	n/a	n/a	n/a	n/a	n/a
1961165	PROB	n/a	LTP209	ltpFR	11	n/a	n/a	n/a	n/a	n/a	n/a	9	2	7	2	n/a	n/a	n/a	n/a	n/a
1962507	PROB	n/a	LTP209	ltpFR	11	n/a	n/a	n/a	n/a	n/a	n/a	11	7	3	1	n/a	n/a	n/a	n/a	n/a
1963758	PROB	n/a	LTP209	ltpFR	11	n/a	n/a	n/a	n/a	n/a	n/a	16	3	5	8	n/a	n/a	n/a	n/a	n/a
1965147	PROB	n/a	LTP209	ltpFR	11	n/a	n/a	n/a	n/a	n/a	n/a	19	8	2	9	n/a	n/a	n/a	n/a	n/a
1967119	STOP	n/a	LTP209	ltpFR	11	n/a	n/a	n/a	n/a	n/a	n/a	n/a	n/a	n/a	n/a	n/a	n/a	n/a	n/a	n/a
1969433	WORD	wordpools/wasnorm_wordpool_less_exclusions.txt	LTP209	ltpFR	11	8	0	OMELET	976	n/a	1	n/a	0	0	0	1	0.412841796875	0.57763671875	lower	../fonts/zerothre.ttf
1972445	START	n/a	LTP209	ltpFR	11	n/a	n/a	n/a	n/a	n/a	n/a	n/a	n/a	n/a	n/a	n/a	n/a	n/a	n/a	n/a
1973579	PROB	n/a	LTP209	ltpFR	11	n/a	n/a	n/a	n/a	n/a	n/a	14	9	2	3	n/a	n/a	n/a	n/a	n/a
1975051	PROB	n/a	LTP209	ltpFR	11	n/a	n/a	n/a	n/a	n/a	n/a	11	4	5	2	n/a	n/a	n/a	n/a	n/a
1976556	PROB	n/a	LTP209	ltpFR	11	n/a	n/a	n/a	n/a	n/a	n/a	20	9	7	4	n/a	n/a	n/a	n/a	n/a
1978012	PROB	n/a	LTP209	ltpFR	11	n/a	n/a	n/a	n/a	n/a	n/a	18	9	4	5	n/a	n/a	n/a	n/a	n/a
1979233	PROB	n/a	LTP209	ltpFR	11	n/a	n/a	n/a	n/a	n/a	n/a	12	3	2	7	n/a	n/a	n/a	n/a	n/a
1980860	PROB	n/a	LTP209	ltpFR	11	n/a	n/a	n/a	n/a	n/a	n/a	13	1	7	5	n/a	n/a	n/a	n/a	n/a
1982730	PROB	n/a	LTP209	ltpFR	11	n/a	n/a	n/a	n/a	n/a	n/a	11	7	1	3	n/a	n/a	n/a	n/a	n/a
1983955	PROB	n/a	LTP209	ltpFR	11	n/a	n/a	n/a	n/a	n/a	n/a	9	6	1	2	n/a	n/a	n/a	n/a	n/a
1985812	PROB	n/a	LTP209	ltpFR	11	n/a	n/a	n/a	n/a	n/a	n/a	13	3	9	1	n/a	n/a	n/a	n/a	n/a
1986917	PROB	n/a	LTP209	ltpFR	11	n/a	n/a	n/a	n/a	n/a	n/a	14	6	6	2	n/a	n/a	n/a	n/a	n/a
1988143	STOP	n/a	LTP209	ltpFR	11	n/a	n/a	n/a	n/a	n/a	n/a	n/a	n/a	n/a	n/a	n/a	n/a	n/a	n/a	n/a
1989622	WORD	wordpools/wasnorm_wordpool_less_exclusions.txt	LTP209	ltpFR	11	8	0	SNEAKER	1334	n/a	0	n/a	0	0	0	1	0.412841796875	0.57763671875	lower	../fonts/zerothre.ttf
1992639	START	n/a	LTP209	ltpFR	11	n/a	n/a	n/a	n/a	n/a	n/a	n/a	n/a	n/a	n/a	n/a	n/a	n/a	n/a	n/a
1993625	PROB	n/a	LTP209	ltpFR	11	n/a	n/a	n/a	n/a	n/a	n/a	14	9	4	1	n/a	n/a	n/a	n/a	n/a
1996787	PROB	n/a	LTP209	ltpFR	11	n/a	n/a	n/a	n/a	n/a	n/a	13	3	3	7	n/a	n/a	n/a	n/a	n/a
1998995	PROB	n/a	LTP209	ltpFR	11	n/a	n/a	n/a	n/a	n/a	n/a	11	3	1	7	n/a	n/a	n/a	n/a	n/a
2000263	PROB	n/a	LTP209	ltpFR	11	n/a	n/a	n/a	n/a	n/a	n/a	23	7	9	7	n/a	n/a	n/a	n/a	n/a
2002860	PROB	n/a	LTP209	ltpFR	11	n/a	n/a	n/a	n/a	n/a	n/a	12	2	4	6	n/a	n/a	n/a	n/a	n/a
2004227	PROB	n/a	LTP209	ltpFR	11	n/a	n/a	n/a	n/a	n/a	n/a	5	2	1	2	n/a	n/a	n/a	n/a	n/a
2005164	PROB	n/a	LTP209	ltpFR	11	n/a	n/a	n/a	n/a	n/a	n/a	23	6	9	8	n/a	n/a	n/a	n/a	n/a
2008583	STOP	n/a	LTP209	ltpFR	11	n/a	n/a	n/a	n/a	n/a	n/a	n/a	n/a	n/a	n/a	n/a	n/a	n/a	n/a	n/a
2009698	WORD	wordpools/wasnorm_wordpool_less_exclusions.txt	LTP209	ltpFR	11	8	0	DOG	480	n/a	1	n/a	0	0	0	1	0.412841796875	0.57763671875	lower	../fonts/zerothre.ttf
2012714	START	n/a	LTP209	ltpFR	11	n/a	n/a	n/a	n/a	n/a	n/a	n/a	n/a	n/a	n/a	n/a	n/a	n/a	n/a	n/a
2013881	PROB	n/a	LTP209	ltpFR	11	n/a	n/a	n/a	n/a	n/a	n/a	21	8	5	8	n/a	n/a	n/a	n/a	n/a
2015604	PROB	n/a	LTP209	ltpFR	11	n/a	n/a	n/a	n/a	n/a	n/a	15	2	5	8	n/a	n/a	n/a	n/a	n/a
2017026	PROB	n/a	LTP209	ltpFR	11	n/a	n/a	n/a	n/a	n/a	n/a	10	3	1	6	n/a	n/a	n/a	n/a	n/a
2019451	PROB	n/a	LTP209	ltpFR	11	n/a	n/a	n/a	n/a	n/a	n/a	11	5	1	5	n/a	n/a	n/a	n/a	n/a
2020538	PROB	n/a	LTP209	ltpFR	11	n/a	n/a	n/a	n/a	n/a	n/a	18	7	2	9	n/a	n/a	n/a	n/a	n/a
2022028	PROB	n/a	LTP209	ltpFR	11	n/a	n/a	n/a	n/a	n/a	n/a	19	8	2	9	n/a	n/a	n/a	n/a	n/a
2023315	PROB	n/a	LTP209	ltpFR	11	n/a	n/a	n/a	n/a	n/a	n/a	9	1	5	3	n/a	n/a	n/a	n/a	n/a
2028714	STOP	n/a	LTP209	ltpFR	11	n/a	n/a	n/a	n/a	n/a	n/a	n/a	n/a	n/a	n/a	n/a	n/a	n/a	n/a	n/a
2029555	WORD	wordpools/wasnorm_wordpool_less_exclusions.txt	LTP209	ltpFR	11	8	0	CHEF	290	n/a	1	n/a	0	0	0	1	0.412841796875	0.57763671875	lower	../fonts/zerothre.ttf
2032572	START	n/a	LTP209	ltpFR	11	n/a	n/a	n/a	n/a	n/a	n/a	n/a	n/a	n/a	n/a	n/a	n/a	n/a	n/a	n/a
2033541	PROB	n/a	LTP209	ltpFR	11	n/a	n/a	n/a	n/a	n/a	n/a	23	8	7	8	n/a	n/a	n/a	n/a	n/a
2036700	PROB	n/a	LTP209	ltpFR	11	n/a	n/a	n/a	n/a	n/a	n/a	11	6	1	4	n/a	n/a	n/a	n/a	n/a
2037821	PROB	n/a	LTP209	ltpFR	11	n/a	n/a	n/a	n/a	n/a	n/a	13	5	2	6	n/a	n/a	n/a	n/a	n/a
2039159	PROB	n/a	LTP209	ltpFR	11	n/a	n/a	n/a	n/a	n/a	n/a	17	3	6	8	n/a	n/a	n/a	n/a	n/a
2041572	PROB	n/a	LTP209	ltpFR	11	n/a	n/a	n/a	n/a	n/a	n/a	18	8	3	7	n/a	n/a	n/a	n/a	n/a
2043374	PROB	n/a	LTP209	ltpFR	11	n/a	n/a	n/a	n/a	n/a	n/a	18	6	6	6	n/a	n/a	n/a	n/a	n/a
2047095	STOP	n/a	LTP209	ltpFR	11	n/a	n/a	n/a	n/a	n/a	n/a	n/a	n/a	n/a	n/a	n/a	n/a	n/a	n/a	n/a
2049401	WORD	wordpools/wasnorm_wordpool_less_exclusions.txt	LTP209	ltpFR	11	8	0	FOLDER	588	n/a	0	n/a	0	0	0	1	0.412841796875	0.57763671875	lower	../fonts/zerothre.ttf
2052413	START	n/a	LTP209	ltpFR	11	n/a	n/a	n/a	n/a	n/a	n/a	n/a	n/a	n/a	n/a	n/a	n/a	n/a	n/a	n/a
2053516	PROB	n/a	LTP209	ltpFR	11	n/a	n/a	n/a	n/a	n/a	n/a	7	1	5	1	n/a	n/a	n/a	n/a	n/a
2055721	PROB	n/a	LTP209	ltpFR	11	n/a	n/a	n/a	n/a	n/a	n/a	21	9	9	3	n/a	n/a	n/a	n/a	n/a
2057144	PROB	n/a	LTP209	ltpFR	11	n/a	n/a	n/a	n/a	n/a	n/a	17	8	4	5	n/a	n/a	n/a	n/a	n/a
2058683	PROB	n/a	LTP209	ltpFR	11	n/a	n/a	n/a	n/a	n/a	n/a	12	3	3	6	n/a	n/a	n/a	n/a	n/a
2059904	PROB	n/a	LTP209	ltpFR	11	n/a	n/a	n/a	n/a	n/a	n/a	22	9	6	7	n/a	n/a	n/a	n/a	n/a
2063852	PROB	n/a	LTP209	ltpFR	11	n/a	n/a	n/a	n/a	n/a	n/a	15	1	9	5	n/a	n/a	n/a	n/a	n/a
2065011	PROB	n/a	LTP209	ltpFR	11	n/a	n/a	n/a	n/a	n/a	n/a	20	9	3	8	n/a	n/a	n/a	n/a	n/a
2067592	STOP	n/a	LTP209	ltpFR	11	n/a	n/a	n/a	n/a	n/a	n/a	n/a	n/a	n/a	n/a	n/a	n/a	n/a	n/a	n/a
2069578	WORD	wordpools/wasnorm_wordpool_less_exclusions.txt	LTP209	ltpFR	11	8	0	ESSAY	540	n/a	0	n/a	0	0	0	1	0.412841796875	0.57763671875	lower	../fonts/zerothre.ttf
2072590	START	n/a	LTP209	ltpFR	11	n/a	n/a	n/a	n/a	n/a	n/a	n/a	n/a	n/a	n/a	n/a	n/a	n/a	n/a	n/a
2073760	PROB	n/a	LTP209	ltpFR	11	n/a	n/a	n/a	n/a	n/a	n/a	18	1	9	8	n/a	n/a	n/a	n/a	n/a
2075178	PROB	n/a	LTP209	ltpFR	11	n/a	n/a	n/a	n/a	n/a	n/a	11	8	2	1	n/a	n/a	n/a	n/a	n/a
2076499	PROB	n/a	LTP209	ltpFR	11	n/a	n/a	n/a	n/a	n/a	n/a	24	8	7	9	n/a	n/a	n/a	n/a	n/a
2078675	PROB	n/a	LTP209	ltpFR	11	n/a	n/a	n/a	n/a	n/a	n/a	8	4	2	2	n/a	n/a	n/a	n/a	n/a
2079666	PROB	n/a	LTP209	ltpFR	11	n/a	n/a	n/a	n/a	n/a	n/a	11	1	9	1	n/a	n/a	n/a	n/a	n/a
2080950	PROB	n/a	LTP209	ltpFR	11	n/a	n/a	n/a	n/a	n/a	n/a	18	9	7	2	n/a	n/a	n/a	n/a	n/a
2083358	PROB	n/a	LTP209	ltpFR	11	n/a	n/a	n/a	n/a	n/a	n/a	19	8	7	4	n/a	n/a	n/a	n/a	n/a
2085718	PROB	n/a	LTP209	ltpFR	11	n/a	n/a	n/a	n/a	n/a	n/a	20	6	8	6	n/a	n/a	n/a	n/a	n/a
2087079	STOP	n/a	LTP209	ltpFR	11	n/a	n/a	n/a	n/a	n/a	n/a	n/a	n/a	n/a	n/a	n/a	n/a	n/a	n/a	n/a
2089637	WORD	wordpools/wasnorm_wordpool_less_exclusions.txt	LTP209	ltpFR	11	8	0	BUCKLE	185	n/a	0	n/a	0	0	0	1	0.412841796875	0.57763671875	lower	../fonts/zerothre.ttf
2092649	START	n/a	LTP209	ltpFR	11	n/a	n/a	n/a	n/a	n/a	n/a	n/a	n/a	n/a	n/a	n/a	n/a	n/a	n/a	n/a
2093484	PROB	n/a	LTP209	ltpFR	11	n/a	n/a	n/a	n/a	n/a	n/a	18	3	9	6	n/a	n/a	n/a	n/a	n/a
2096508	PROB	n/a	LTP209	ltpFR	11	n/a	n/a	n/a	n/a	n/a	n/a	15	6	4	5	n/a	n/a	n/a	n/a	n/a
2098717	PROB	n/a	LTP209	ltpFR	11	n/a	n/a	n/a	n/a	n/a	n/a	22	7	8	7	n/a	n/a	n/a	n/a	n/a
2100595	PROB	n/a	LTP209	ltpFR	11	n/a	n/a	n/a	n/a	n/a	n/a	19	1	9	9	n/a	n/a	n/a	n/a	n/a
2101946	PROB	n/a	LTP209	ltpFR	11	n/a	n/a	n/a	n/a	n/a	n/a	16	6	6	4	n/a	n/a	n/a	n/a	n/a
2103267	PROB	n/a	LTP209	ltpFR	11	n/a	n/a	n/a	n/a	n/a	n/a	16	6	6	4	n/a	n/a	n/a	n/a	n/a
2104242	PROB	n/a	LTP209	ltpFR	11	n/a	n/a	n/a	n/a	n/a	n/a	12	2	6	4	n/a	n/a	n/a	n/a	n/a
2106462	PROB	n/a	LTP209	ltpFR	11	n/a	n/a	n/a	n/a	n/a	n/a	13	5	6	2	n/a	n/a	n/a	n/a	n/a
2107943	STOP	n/a	LTP209	ltpFR	11	n/a	n/a	n/a	n/a	n/a	n/a	n/a	n/a	n/a	n/a	n/a	n/a	n/a	n/a	n/a
2110448	REC_START	n/a	LTP209	ltpFR	11	8	n/a	n/a	n/a	n/a	n/a	n/a	0	0	0	n/a	n/a	n/a	n/a	n/a
2113066	REC_WORD	wordpools/wasnorm_wordpool_less_exclusions.txt	LTP209	ltpFR	11	8	0	SNEAKER	1334	n/a	0	n/a	0	0	0	n/a	n/a	n/a	n/a	n/a
2115097	REC_WORD	wordpools/wasnorm_wordpool_less_exclusions.txt	LTP209	ltpFR	11	8	0	KETTLE	772	n/a	1	n/a	0	0	0	n/a	n/a	n/a	n/a	n/a
2116554	REC_WORD	wordpools/wasnorm_wordpool_less_exclusions.txt	LTP209	ltpFR	11	8	0	HOSE	720	n/a	0	n/a	0	0	0	n/a	n/a	n/a	n/a	n/a
2118425	REC_WORD	wordpools/wasnorm_wordpool_less_exclusions.txt	LTP209	ltpFR	11	8	0	CHEF	290	n/a	1	n/a	0	0	0	n/a	n/a	n/a	n/a	n/a
2122031	REC_WORD	wordpools/wasnorm_wordpool_less_exclusions.txt	LTP209	ltpFR	11	8	0	DOG	480	n/a	1	n/a	0	0	0	n/a	n/a	n/a	n/a	n/a
2123031	REC_WORD	wordpools/wasnorm_wordpool_less_exclusions.txt	LTP209	ltpFR	11	8	0	FOLDER	588	n/a	0	n/a	0	0	0	n/a	n/a	n/a	n/a	n/a
2124321	REC_WORD	wordpools/wasnorm_wordpool_less_exclusions.txt	LTP209	ltpFR	11	8	0	ESSAY	540	n/a	0	n/a	0	0	0	n/a	n/a	n/a	n/a	n/a
2131864	REC_WORD	wordpools/wasnorm_wordpool_less_exclusions.txt	LTP209	ltpFR	11	8	0	CRUMB	416	n/a	0	n/a	0	0	0	n/a	n/a	n/a	n/a	n/a
2134059	REC_WORD	wordpools/wasnorm_wordpool_less_exclusions.txt	LTP209	ltpFR	11	8	0	CRUMB	416	n/a	0	n/a	0	0	0	n/a	n/a	n/a	n/a	n/a
2134847	REC_WORD	wordpools/wasnorm_wordpool_less_exclusions.txt	LTP209	ltpFR	11	8	0	SHORTCAKE	1292	n/a	1	n/a	0	0	0	n/a	n/a	n/a	n/a	n/a
2146351	REC_WORD	wordpools/wasnorm_wordpool_less_exclusions.txt	LTP209	ltpFR	11	8	0	EARTH	515	n/a	1	n/a	0	0	0	n/a	n/a	n/a	n/a	n/a
2154193	REC_WORD	wordpools/wasnorm_wordpool_less_exclusions.txt	LTP209	ltpFR	11	8	0	OMELET	976	n/a	1	n/a	0	0	0	n/a	n/a	n/a	n/a	n/a
2172083	REC_WORD	wordpools/wasnorm_wordpool_less_exclusions.txt	LTP209	ltpFR	11	8	0	DOG	480	n/a	1	n/a	0	0	0	n/a	n/a	n/a	n/a	n/a
2196188	WORD	wordpools/wasnorm_wordpool_less_exclusions.txt	LTP209	ltpFR	11	9	1	FREEZER	604	n/a	0	n/a	0	0	0	0	0.5869140625	0.422607421875	upper	../fonts/amplitud.ttf
2200053	WORD	wordpools/wasnorm_wordpool_less_exclusions.txt	LTP209	ltpFR	11	9	1	TOOTH	1481	n/a	0	n/a	0	0	0	0	0.5869140625	0.422607421875	upper	../fonts/amplitud.ttf
2203964	WORD	wordpools/wasnorm_wordpool_less_exclusions.txt	LTP209	ltpFR	11	9	0	COUGAR	387	n/a	1	n/a	0	0	0	1	0.412841796875	0.57763671875	lower	../fonts/zerothre.ttf
2207933	WORD	wordpools/wasnorm_wordpool_less_exclusions.txt	LTP209	ltpFR	11	9	0	DRIVER	499	n/a	1	n/a	0	0	0	1	0.412841796875	0.57763671875	lower	../fonts/zerothre.ttf
2211927	WORD	wordpools/wasnorm_wordpool_less_exclusions.txt	LTP209	ltpFR	11	9	1	TWEEZERS	1526	n/a	0	n/a	0	0	0	0	0.5869140625	0.422607421875	upper	../fonts/amplitud.ttf
2216080	WORD	wordpools/wasnorm_wordpool_less_exclusions.txt	LTP209	ltpFR	11	9	1	MOUTH	926	n/a	0	n/a	0	0	0	0	0.5869140625	0.422607421875	upper	../fonts/amplitud.ttf
2220208	WORD	wordpools/wasnorm_wordpool_less_exclusions.txt	LTP209	ltpFR	11	9	1	SALIVA	1226	n/a	1	n/a	0	0	0	0	0.5869140625	0.422607421875	upper	../fonts/amplitud.ttf
2224423	WORD	wordpools/wasnorm_wordpool_less_exclusions.txt	LTP209	ltpFR	11	9	0	ASSOCIATE	49	n/a	1	n/a	0	0	0	1	0.412841796875	0.57763671875	lower	../fonts/zerothre.ttf
2228421	WORD	wordpools/wasnorm_wordpool_less_exclusions.txt	LTP209	ltpFR	11	9	0	ANCHOR	21	n/a	0	n/a	0	0	0	1	0.412841796875	0.57763671875	lower	../fonts/zerothre.ttf
2232307	WORD	wordpools/wasnorm_wordpool_less_exclusions.txt	LTP209	ltpFR	11	9	0	HANDKERCHIEF	686	n/a	0	n/a	0	0	0	1	0.412841796875	0.57763671875	lower	../fonts/zerothre.ttf
2236290	WORD	wordpools/wasnorm_wordpool_less_exclusions.txt	LTP209	ltpFR	11	9	0	RECEPTIONIST	1174	n/a	1	n/a	0	0	0	1	0.412841796875	0.57763671875	lower	../fonts/zerothre.ttf
2240171	WORD	wordpools/wasnorm_wordpool_less_exclusions.txt	LTP209	ltpFR	11	9	0	CHEEK	287	n/a	1	n/a	0	0	0	1	0.412841796875	0.57763671875	lower	../fonts/zerothre.ttf
2244069	WORD	wordpools/wasnorm_wordpool_less_exclusions.txt	LTP209	ltpFR	11	9	0	SAND	1230	n/a	0	n/a	0	0	0	1	0.412841796875	0.57763671875	lower	../fonts/zerothre.ttf
2247933	WORD	wordpools/wasnorm_wordpool_less_exclusions.txt	LTP209	ltpFR	11	9	1	ROOMMATE	1207	n/a	1	n/a	0	0	0	0	0.5869140625	0.422607421875	upper	../fonts/amplitud.ttf
2251949	WORD	wordpools/wasnorm_wordpool_less_exclusions.txt	LTP209	ltpFR	11	9	1	HANDBAG	684	n/a	0	n/a	0	0	0	0	0.5869140625	0.422607421875	upper	../fonts/amplitud.ttf
2255909	WORD	wordpools/wasnorm_wordpool_less_exclusions.txt	LTP209	ltpFR	11	9	1	BAG	69	n/a	0	n/a	0	0	0	0	0.5869140625	0.422607421875	upper	../fonts/amplitud.ttf
2261749	REC_START	n/a	LTP209	ltpFR	11	9	n/a	n/a	n/a	n/a	n/a	n/a	0	0	0	n/a	n/a	n/a	n/a	n/a
2262602	REC_WORD	wordpools/wasnorm_wordpool_less_exclusions.txt	LTP209	ltpFR	11	9	1	BAG	69	n/a	0	n/a	0	0	0	n/a	n/a	n/a	n/a	n/a
2263355	REC_WORD	wordpools/wasnorm_wordpool_less_exclusions.txt	LTP209	ltpFR	11	9	1	HANDBAG	684	n/a	0	n/a	0	0	0	n/a	n/a	n/a	n/a	n/a
2264552	REC_WORD	wordpools/wasnorm_wordpool_less_exclusions.txt	LTP209	ltpFR	11	9	1	ROOMMATE	1207	n/a	1	n/a	0	0	0	n/a	n/a	n/a	n/a	n/a
2266862	REC_WORD	wordpools/wasnorm_wordpool_less_exclusions.txt	LTP209	ltpFR	11	9	0	CHEEK	287	n/a	1	n/a	0	0	0	n/a	n/a	n/a	n/a	n/a
2269002	REC_WORD	wordpools/wasnorm_wordpool_less_exclusions.txt	LTP209	ltpFR	11	9	n/a	TEETH	-1	n/a	n/a	n/a	0	0	0	n/a	n/a	n/a	n/a	n/a
2270703	REC_WORD	wordpools/wasnorm_wordpool_less_exclusions.txt	LTP209	ltpFR	11	9	1	MOUTH	926	n/a	0	n/a	0	0	0	n/a	n/a	n/a	n/a	n/a
2272539	REC_WORD	wordpools/wasnorm_wordpool_less_exclusions.txt	LTP209	ltpFR	11	9	1	SALIVA	1226	n/a	1	n/a	0	0	0	n/a	n/a	n/a	n/a	n/a
2288902	REC_WORD	wordpools/wasnorm_wordpool_less_exclusions.txt	LTP209	ltpFR	11	9	0	DRIVER	499	n/a	1	n/a	0	0	0	n/a	n/a	n/a	n/a	n/a
2291890	REC_WORD	wordpools/wasnorm_wordpool_less_exclusions.txt	LTP209	ltpFR	11	9	0	ASSOCIATE	49	n/a	1	n/a	0	0	0	n/a	n/a	n/a	n/a	n/a
2294564	REC_WORD	wordpools/wasnorm_wordpool_less_exclusions.txt	LTP209	ltpFR	11	9	0	RECEPTIONIST	1174	n/a	1	n/a	0	0	0	n/a	n/a	n/a	n/a	n/a
2295566	REC_WORD_VV	wordpools/wasnorm_wordpool_less_exclusions.txt	LTP209	ltpFR	11	9	n/a	<>	-1	n/a	n/a	n/a	0	0	0	n/a	n/a	n/a	n/a	n/a
2350318	WORD	wordpools/wasnorm_wordpool_less_exclusions.txt	LTP209	ltpFR	11	10	0	TUBE	1516	n/a	0	n/a	0	0	0	1	0.412841796875	0.57763671875	lower	../fonts/zerothre.ttf
2354163	WORD	wordpools/wasnorm_wordpool_less_exclusions.txt	LTP209	ltpFR	11	10	0	DOLPHIN	483	n/a	1	n/a	0	0	0	1	0.412841796875	0.57763671875	lower	../fonts/zerothre.ttf
2358361	WORD	wordpools/wasnorm_wordpool_less_exclusions.txt	LTP209	ltpFR	11	10	0	TRIANGLE	1504	n/a	0	n/a	0	0	0	1	0.412841796875	0.57763671875	lower	../fonts/zerothre.ttf
2362313	WORD	wordpools/wasnorm_wordpool_less_exclusions.txt	LTP209	ltpFR	11	10	0	BUTTER	205	n/a	0	n/a	0	0	0	1	0.412841796875	0.57763671875	lower	../fonts/zerothre.ttf
2366479	WORD	wordpools/wasnorm_wordpool_less_exclusions.txt	LTP209	ltpFR	11	10	0	SNACK	1331	n/a	0	n/a	0	0	0	1	0.412841796875	0.57763671875	lower	../fonts/zerothre.ttf
2370310	WORD	wordpools/wasnorm_wordpool_less_exclusions.txt	LTP209	ltpFR	11	10	0	REFRIGERATOR	1179	n/a	1	n/a	0	0	0	1	0.412841796875	0.57763671875	lower	../fonts/zerothre.ttf
2374493	WORD	wordpools/wasnorm_wordpool_less_exclusions.txt	LTP209	ltpFR	11	10	0	CHERRY	293	n/a	0	n/a	0	0	0	1	0.412841796875	0.57763671875	lower	../fonts/zerothre.ttf
2378655	WORD	wordpools/wasnorm_wordpool_less_exclusions.txt	LTP209	ltpFR	11	10	0	CLOCK	325	n/a	0	n/a	0	0	0	1	0.412841796875	0.57763671875	lower	../fonts/zerothre.ttf
2382552	WORD	wordpools/wasnorm_wordpool_less_exclusions.txt	LTP209	ltpFR	11	10	0	STRAW	1390	n/a	0	n/a	0	0	0	1	0.412841796875	0.57763671875	lower	../fonts/zerothre.ttf
2386484	WORD	wordpools/wasnorm_wordpool_less_exclusions.txt	LTP209	ltpFR	11	10	0	HAY	693	n/a	0	n/a	0	0	0	1	0.412841796875	0.57763671875	lower	../fonts/zerothre.ttf
2390604	WORD	wordpools/wasnorm_wordpool_less_exclusions.txt	LTP209	ltpFR	11	10	0	APPLE	33	n/a	0	n/a	0	0	0	1	0.412841796875	0.57763671875	lower	../fonts/zerothre.ttf
2394670	WORD	wordpools/wasnorm_wordpool_less_exclusions.txt	LTP209	ltpFR	11	10	0	ANTENNA	28	n/a	1	n/a	0	0	0	1	0.412841796875	0.57763671875	lower	../fonts/zerothre.ttf
2398802	WORD	wordpools/wasnorm_wordpool_less_exclusions.txt	LTP209	ltpFR	11	10	0	WASHCLOTH	1591	n/a	0	n/a	0	0	0	1	0.412841796875	0.57763671875	lower	../fonts/zerothre.ttf
2402650	WORD	wordpools/wasnorm_wordpool_less_exclusions.txt	LTP209	ltpFR	11	10	0	SHARK	1275	n/a	1	n/a	0	0	0	1	0.412841796875	0.57763671875	lower	../fonts/zerothre.ttf
2406816	WORD	wordpools/wasnorm_wordpool_less_exclusions.txt	LTP209	ltpFR	11	10	0	DASHBOARD	441	n/a	1	n/a	0	0	0	1	0.412841796875	0.57763671875	lower	../fonts/zerothre.ttf
2410730	WORD	wordpools/wasnorm_wordpool_less_exclusions.txt	LTP209	ltpFR	11	10	0	CURB	426	n/a	1	n/a	0	0	0	1	0.412841796875	0.57763671875	lower	../fonts/zerothre.ttf
2413742	START	n/a	LTP209	ltpFR	11	n/a	n/a	n/a	n/a	n/a	n/a	n/a	n/a	n/a	n/a	n/a	n/a	n/a	n/a	n/a
2414812	PROB	n/a	LTP209	ltpFR	11	n/a	n/a	n/a	n/a	n/a	n/a	10	3	6	1	n/a	n/a	n/a	n/a	n/a
2416916	PROB	n/a	LTP209	ltpFR	11	n/a	n/a	n/a	n/a	n/a	n/a	14	2	7	5	n/a	n/a	n/a	n/a	n/a
2419074	PROB	n/a	LTP209	ltpFR	11	n/a	n/a	n/a	n/a	n/a	n/a	11	4	2	5	n/a	n/a	n/a	n/a	n/a
2420751	STOP	n/a	LTP209	ltpFR	11	n/a	n/a	n/a	n/a	n/a	n/a	n/a	n/a	n/a	n/a	n/a	n/a	n/a	n/a	n/a
2423511	REC_START	n/a	LTP209	ltpFR	11	10	n/a	n/a	n/a	n/a	n/a	n/a	0	0	0	n/a	n/a	n/a	n/a	n/a
2424763	REC_WORD	wordpools/wasnorm_wordpool_less_exclusions.txt	LTP209	ltpFR	11	10	0	CURB	426	n/a	1	n/a	0	0	0	n/a	n/a	n/a	n/a	n/a
2425945	REC_WORD	wordpools/wasnorm_wordpool_less_exclusions.txt	LTP209	ltpFR	11	10	0	SHARK	1275	n/a	1	n/a	0	0	0	n/a	n/a	n/a	n/a	n/a
2428001	REC_WORD	wordpools/wasnorm_wordpool_less_exclusions.txt	LTP209	ltpFR	11	10	0	DOLPHIN	483	n/a	1	n/a	0	0	0	n/a	n/a	n/a	n/a	n/a
2429787	REC_WORD	wordpools/wasnorm_wordpool_less_exclusions.txt	LTP209	ltpFR	11	10	0	TUBE	1516	n/a	0	n/a	0	0	0	n/a	n/a	n/a	n/a	n/a
2430984	REC_WORD	wordpools/wasnorm_wordpool_less_exclusions.txt	LTP209	ltpFR	11	10	0	TRIANGLE	1504	n/a	0	n/a	0	0	0	n/a	n/a	n/a	n/a	n/a
2432805	REC_WORD	wordpools/wasnorm_wordpool_less_exclusions.txt	LTP209	ltpFR	11	10	0	BUTTER	205	n/a	0	n/a	0	0	0	n/a	n/a	n/a	n/a	n/a
2434082	REC_WORD	wordpools/wasnorm_wordpool_less_exclusions.txt	LTP209	ltpFR	11	10	0	CHERRY	293	n/a	0	n/a	0	0	0	n/a	n/a	n/a	n/a	n/a
2436905	REC_WORD	wordpools/wasnorm_wordpool_less_exclusions.txt	LTP209	ltpFR	11	10	0	STRAW	1390	n/a	0	n/a	0	0	0	n/a	n/a	n/a	n/a	n/a
2440407	REC_WORD	wordpools/wasnorm_wordpool_less_exclusions.txt	LTP209	ltpFR	11	10	0	CLOCK	325	n/a	0	n/a	0	0	0	n/a	n/a	n/a	n/a	n/a
2499193	REST_REWET	n/a	LTP209	ltpFR	11	10	n/a	n/a	n/a	n/a	n/a	n/a	0	0	0	n/a	n/a	n/a	n/a	n/a
2814218	START	n/a	LTP209	ltpFR	11	n/a	n/a	n/a	n/a	n/a	n/a	n/a	n/a	n/a	n/a	n/a	n/a	n/a	n/a	n/a
2815723	PROB	n/a	LTP209	ltpFR	11	n/a	n/a	n/a	n/a	n/a	n/a	1	3	5	5	n/a	n/a	n/a	n/a	n/a
2816739	PROB	n/a	LTP209	ltpFR	11	n/a	n/a	n/a	n/a	n/a	n/a	16	9	1	6	n/a	n/a	n/a	n/a	n/a
2822208	STOP	n/a	LTP209	ltpFR	11	n/a	n/a	n/a	n/a	n/a	n/a	n/a	n/a	n/a	n/a	n/a	n/a	n/a	n/a	n/a
2823197	WORD	wordpools/wasnorm_wordpool_less_exclusions.txt	LTP209	ltpFR	11	11	0	HOOD	714	n/a	1	n/a	0	0	0	1	0.412841796875	0.57763671875	lower	../fonts/zerothre.ttf
2826213	START	n/a	LTP209	ltpFR	11	n/a	n/a	n/a	n/a	n/a	n/a	n/a	n/a	n/a	n/a	n/a	n/a	n/a	n/a	n/a
2827062	PROB	n/a	LTP209	ltpFR	11	n/a	n/a	n/a	n/a	n/a	n/a	14	6	6	2	n/a	n/a	n/a	n/a	n/a
2828349	PROB	n/a	LTP209	ltpFR	11	n/a	n/a	n/a	n/a	n/a	n/a	21	4	9	8	n/a	n/a	n/a	n/a	n/a
2830306	PROB	n/a	LTP209	ltpFR	11	n/a	n/a	n/a	n/a	n/a	n/a	12	4	6	2	n/a	n/a	n/a	n/a	n/a
2831527	PROB	n/a	LTP209	ltpFR	11	n/a	n/a	n/a	n/a	n/a	n/a	9	5	1	3	n/a	n/a	n/a	n/a	n/a
2832896	STOP	n/a	LTP209	ltpFR	11	n/a	n/a	n/a	n/a	n/a	n/a	n/a	n/a	n/a	n/a	n/a	n/a	n/a	n/a	n/a
2835325	WORD	wordpools/wasnorm_wordpool_less_exclusions.txt	LTP209	ltpFR	11	11	0	BUTTON	207	n/a	0	n/a	0	0	0	1	0.412841796875	0.57763671875	lower	../fonts/zerothre.ttf
2838341	START	n/a	LTP209	ltpFR	11	n/a	n/a	n/a	n/a	n/a	n/a	n/a	n/a	n/a	n/a	n/a	n/a	n/a	n/a	n/a
2839512	PROB	n/a	LTP209	ltpFR	11	n/a	n/a	n/a	n/a	n/a	n/a	8	2	2	4	n/a	n/a	n/a	n/a	n/a
2840663	PROB	n/a	LTP209	ltpFR	11	n/a	n/a	n/a	n/a	n/a	n/a	7	1	2	4	n/a	n/a	n/a	n/a	n/a
2842658	PROB	n/a	LTP209	ltpFR	11	n/a	n/a	n/a	n/a	n/a	n/a	16	4	6	6	n/a	n/a	n/a	n/a	n/a
2845495	STOP	n/a	LTP209	ltpFR	11	n/a	n/a	n/a	n/a	n/a	n/a	n/a	n/a	n/a	n/a	n/a	n/a	n/a	n/a	n/a
2847192	WORD	wordpools/wasnorm_wordpool_less_exclusions.txt	LTP209	ltpFR	11	11	0	DISH	474	n/a	0	n/a	0	0	0	1	0.412841796875	0.57763671875	lower	../fonts/zerothre.ttf
2850204	START	n/a	LTP209	ltpFR	11	n/a	n/a	n/a	n/a	n/a	n/a	n/a	n/a	n/a	n/a	n/a	n/a	n/a	n/a	n/a
2851274	PROB	n/a	LTP209	ltpFR	11	n/a	n/a	n/a	n/a	n/a	n/a	11	3	5	3	n/a	n/a	n/a	n/a	n/a
2852775	PROB	n/a	LTP209	ltpFR	11	n/a	n/a	n/a	n/a	n/a	n/a	22	9	4	9	n/a	n/a	n/a	n/a	n/a
2854971	PROB	n/a	LTP209	ltpFR	11	n/a	n/a	n/a	n/a	n/a	n/a	19	4	6	9	n/a	n/a	n/a	n/a	n/a
2858204	STOP	n/a	LTP209	ltpFR	11	n/a	n/a	n/a	n/a	n/a	n/a	n/a	n/a	n/a	n/a	n/a	n/a	n/a	n/a	n/a
2859036	WORD	wordpools/wasnorm_wordpool_less_exclusions.txt	LTP209	ltpFR	11	11	1	CIGARETTE	309	n/a	0	n/a	0	0	0	0	0.5869140625	0.422607421875	upper	../fonts/amplitud.ttf
2862048	START	n/a	LTP209	ltpFR	11	n/a	n/a	n/a	n/a	n/a	n/a	n/a	n/a	n/a	n/a	n/a	n/a	n/a	n/a	n/a
2863035	PROB	n/a	LTP209	ltpFR	11	n/a	n/a	n/a	n/a	n/a	n/a	21	5	8	8	n/a	n/a	n/a	n/a	n/a
2864586	PROB	n/a	LTP209	ltpFR	11	n/a	n/a	n/a	n/a	n/a	n/a	16	1	8	7	n/a	n/a	n/a	n/a	n/a
2865941	PROB	n/a	LTP209	ltpFR	11	n/a	n/a	n/a	n/a	n/a	n/a	14	4	1	9	n/a	n/a	n/a	n/a	n/a
2867312	PROB	n/a	LTP209	ltpFR	11	n/a	n/a	n/a	n/a	n/a	n/a	25	9	8	8	n/a	n/a	n/a	n/a	n/a
2869952	STOP	n/a	LTP209	ltpFR	11	n/a	n/a	n/a	n/a	n/a	n/a	n/a	n/a	n/a	n/a	n/a	n/a	n/a	n/a	n/a
2870910	WORD	wordpools/wasnorm_wordpool_less_exclusions.txt	LTP209	ltpFR	11	11	1	DUCK	504	n/a	1	n/a	0	0	0	0	0.5869140625	0.422607421875	upper	../fonts/amplitud.ttf
2873927	START	n/a	LTP209	ltpFR	11	n/a	n/a	n/a	n/a	n/a	n/a	n/a	n/a	n/a	n/a	n/a	n/a	n/a	n/a	n/a
2874758	PROB	n/a	LTP209	ltpFR	11	n/a	n/a	n/a	n/a	n/a	n/a	9	1	1	7	n/a	n/a	n/a	n/a	n/a
2876715	PROB	n/a	LTP209	ltpFR	11	n/a	n/a	n/a	n/a	n/a	n/a	14	7	4	3	n/a	n/a	n/a	n/a	n/a
2879529	PROB	n/a	LTP209	ltpFR	11	n/a	n/a	n/a	n/a	n/a	n/a	20	6	7	7	n/a	n/a	n/a	n/a	n/a
2881518	STOP	n/a	LTP209	ltpFR	11	n/a	n/a	n/a	n/a	n/a	n/a	n/a	n/a	n/a	n/a	n/a	n/a	n/a	n/a	n/a
2882759	WORD	wordpools/wasnorm_wordpool_less_exclusions.txt	LTP209	ltpFR	11	11	1	SWAN	1417	n/a	1	n/a	0	0	0	0	0.5869140625	0.422607421875	upper	../fonts/amplitud.ttf
2885771	START	n/a	LTP209	ltpFR	11	n/a	n/a	n/a	n/a	n/a	n/a	n/a	n/a	n/a	n/a	n/a	n/a	n/a	n/a	n/a
2886758	PROB	n/a	LTP209	ltpFR	11	n/a	n/a	n/a	n/a	n/a	n/a	9	3	1	5	n/a	n/a	n/a	n/a	n/a
2888995	PROB	n/a	LTP209	ltpFR	11	n/a	n/a	n/a	n/a	n/a	n/a	13	6	6	1	n/a	n/a	n/a	n/a	n/a
2890116	PROB	n/a	LTP209	ltpFR	11	n/a	n/a	n/a	n/a	n/a	n/a	12	4	1	7	n/a	n/a	n/a	n/a	n/a
2893407	STOP	n/a	LTP209	ltpFR	11	n/a	n/a	n/a	n/a	n/a	n/a	n/a	n/a	n/a	n/a	n/a	n/a	n/a	n/a	n/a
2894800	WORD	wordpools/wasnorm_wordpool_less_exclusions.txt	LTP209	ltpFR	11	11	1	SHEEP	1278	n/a	1	n/a	0	0	0	0	0.5869140625	0.422607421875	upper	../fonts/amplitud.ttf
2897817	START	n/a	LTP209	ltpFR	11	n/a	n/a	n/a	n/a	n/a	n/a	n/a	n/a	n/a	n/a	n/a	n/a	n/a	n/a	n/a
2898933	PROB	n/a	LTP209	ltpFR	11	n/a	n/a	n/a	n/a	n/a	n/a	21	8	4	9	n/a	n/a	n/a	n/a	n/a
2901743	PROB	n/a	LTP209	ltpFR	11	n/a	n/a	n/a	n/a	n/a	n/a	5	1	1	3	n/a	n/a	n/a	n/a	n/a
2902701	PROB	n/a	LTP209	ltpFR	11	n/a	n/a	n/a	n/a	n/a	n/a	13	4	2	7	n/a	n/a	n/a	n/a	n/a
2905032	STOP	n/a	LTP209	ltpFR	11	n/a	n/a	n/a	n/a	n/a	n/a	n/a	n/a	n/a	n/a	n/a	n/a	n/a	n/a	n/a
2906900	WORD	wordpools/wasnorm_wordpool_less_exclusions.txt	LTP209	ltpFR	11	11	0	TACK	1428	n/a	0	n/a	0	0	0	1	0.412841796875	0.57763671875	lower	../fonts/zerothre.ttf
2909912	START	n/a	LTP209	ltpFR	11	n/a	n/a	n/a	n/a	n/a	n/a	n/a	n/a	n/a	n/a	n/a	n/a	n/a	n/a	n/a
2910915	PROB	n/a	LTP209	ltpFR	11	n/a	n/a	n/a	n/a	n/a	n/a	4	2	3	2	n/a	n/a	n/a	n/a	n/a
2912768	PROB	n/a	LTP209	ltpFR	11	n/a	n/a	n/a	n/a	n/a	n/a	7	3	2	2	n/a	n/a	n/a	n/a	n/a
2915813	PROB	n/a	LTP209	ltpFR	11	n/a	n/a	n/a	n/a	n/a	n/a	9	2	3	4	n/a	n/a	n/a	n/a	n/a
2917608	STOP	n/a	LTP209	ltpFR	11	n/a	n/a	n/a	n/a	n/a	n/a	n/a	n/a	n/a	n/a	n/a	n/a	n/a	n/a	n/a
2918946	WORD	wordpools/wasnorm_wordpool_less_exclusions.txt	LTP209	ltpFR	11	11	0	TAXI	1438	n/a	0	n/a	0	0	0	1	0.412841796875	0.57763671875	lower	../fonts/zerothre.ttf
2921957	START	n/a	LTP209	ltpFR	11	n/a	n/a	n/a	n/a	n/a	n/a	n/a	n/a	n/a	n/a	n/a	n/a	n/a	n/a	n/a
2922827	PROB	n/a	LTP209	ltpFR	11	n/a	n/a	n/a	n/a	n/a	n/a	12	2	1	9	n/a	n/a	n/a	n/a	n/a
2924127	PROB	n/a	LTP209	ltpFR	11	n/a	n/a	n/a	n/a	n/a	n/a	16	1	6	9	n/a	n/a	n/a	n/a	n/a
2925616	PROB	n/a	LTP209	ltpFR	11	n/a	n/a	n/a	n/a	n/a	n/a	19	9	3	7	n/a	n/a	n/a	n/a	n/a
2929957	STOP	n/a	LTP209	ltpFR	11	n/a	n/a	n/a	n/a	n/a	n/a	n/a	n/a	n/a	n/a	n/a	n/a	n/a	n/a	n/a
2930907	WORD	wordpools/wasnorm_wordpool_less_exclusions.txt	LTP209	ltpFR	11	11	0	LAMB	797	n/a	1	n/a	0	0	0	1	0.412841796875	0.57763671875	lower	../fonts/zerothre.ttf
2933919	START	n/a	LTP209	ltpFR	11	n/a	n/a	n/a	n/a	n/a	n/a	n/a	n/a	n/a	n/a	n/a	n/a	n/a	n/a	n/a
2934789	PROB	n/a	LTP209	ltpFR	11	n/a	n/a	n/a	n/a	n/a	n/a	12	2	6	4	n/a	n/a	n/a	n/a	n/a
2937427	PROB	n/a	LTP209	ltpFR	11	n/a	n/a	n/a	n/a	n/a	n/a	15	5	6	4	n/a	n/a	n/a	n/a	n/a
2941919	STOP	n/a	LTP209	ltpFR	11	n/a	n/a	n/a	n/a	n/a	n/a	n/a	n/a	n/a	n/a	n/a	n/a	n/a	n/a	n/a
2942785	WORD	wordpools/wasnorm_wordpool_less_exclusions.txt	LTP209	ltpFR	11	11	1	CHAPEL	280	n/a	1	n/a	0	0	0	0	0.5869140625	0.422607421875	upper	../fonts/amplitud.ttf
2945797	START	n/a	LTP209	ltpFR	11	n/a	n/a	n/a	n/a	n/a	n/a	n/a	n/a	n/a	n/a	n/a	n/a	n/a	n/a	n/a
2946683	PROB	n/a	LTP209	ltpFR	11	n/a	n/a	n/a	n/a	n/a	n/a	21	8	9	4	n/a	n/a	n/a	n/a	n/a
2948422	PROB	n/a	LTP209	ltpFR	11	n/a	n/a	n/a	n/a	n/a	n/a	17	7	3	7	n/a	n/a	n/a	n/a	n/a
2950180	PROB	n/a	LTP209	ltpFR	11	n/a	n/a	n/a	n/a	n/a	n/a	19	4	6	9	n/a	n/a	n/a	n/a	n/a
2951614	PROB	n/a	LTP209	ltpFR	11	n/a	n/a	n/a	n/a	n/a	n/a	21	8	8	5	n/a	n/a	n/a	n/a	n/a
2953096	STOP	n/a	LTP209	ltpFR	11	n/a	n/a	n/a	n/a	n/a	n/a	n/a	n/a	n/a	n/a	n/a	n/a	n/a	n/a	n/a
2954730	WORD	wordpools/wasnorm_wordpool_less_exclusions.txt	LTP209	ltpFR	11	11	1	EAGLE	512	n/a	1	n/a	0	0	0	0	0.5869140625	0.422607421875	upper	../fonts/amplitud.ttf
2957742	START	n/a	LTP209	ltpFR	11	n/a	n/a	n/a	n/a	n/a	n/a	n/a	n/a	n/a	n/a	n/a	n/a	n/a	n/a	n/a
2958892	PROB	n/a	LTP209	ltpFR	11	n/a	n/a	n/a	n/a	n/a	n/a	14	5	1	8	n/a	n/a	n/a	n/a	n/a
2961652	PROB	n/a	LTP209	ltpFR	11	n/a	n/a	n/a	n/a	n/a	n/a	14	8	1	5	n/a	n/a	n/a	n/a	n/a
2963141	PROB	n/a	LTP209	ltpFR	11	n/a	n/a	n/a	n/a	n/a	n/a	19	8	9	2	n/a	n/a	n/a	n/a	n/a
2965503	STOP	n/a	LTP209	ltpFR	11	n/a	n/a	n/a	n/a	n/a	n/a	n/a	n/a	n/a	n/a	n/a	n/a	n/a	n/a	n/a
2966688	WORD	wordpools/wasnorm_wordpool_less_exclusions.txt	LTP209	ltpFR	11	11	1	PASSENGER	1020	n/a	1	n/a	0	0	0	0	0.5869140625	0.422607421875	upper	../fonts/amplitud.ttf
2969704	START	n/a	LTP209	ltpFR	11	n/a	n/a	n/a	n/a	n/a	n/a	n/a	n/a	n/a	n/a	n/a	n/a	n/a	n/a	n/a
2970657	PROB	n/a	LTP209	ltpFR	11	n/a	n/a	n/a	n/a	n/a	n/a	11	7	2	2	n/a	n/a	n/a	n/a	n/a
2972025	PROB	n/a	LTP209	ltpFR	11	n/a	n/a	n/a	n/a	n/a	n/a	5	1	2	2	n/a	n/a	n/a	n/a	n/a
2973012	PROB	n/a	LTP209	ltpFR	11	n/a	n/a	n/a	n/a	n/a	n/a	21	9	5	7	n/a	n/a	n/a	n/a	n/a
2974852	PROB	n/a	LTP209	ltpFR	11	n/a	n/a	n/a	n/a	n/a	n/a	20	9	6	5	n/a	n/a	n/a	n/a	n/a
2976487	STOP	n/a	LTP209	ltpFR	11	n/a	n/a	n/a	n/a	n/a	n/a	n/a	n/a	n/a	n/a	n/a	n/a	n/a	n/a	n/a
2978771	WORD	wordpools/wasnorm_wordpool_less_exclusions.txt	LTP209	ltpFR	11	11	1	HARP	689	n/a	0	n/a	0	0	0	0	0.5869140625	0.422607421875	upper	../fonts/amplitud.ttf
2981783	START	n/a	LTP209	ltpFR	11	n/a	n/a	n/a	n/a	n/a	n/a	n/a	n/a	n/a	n/a	n/a	n/a	n/a	n/a	n/a
2982865	PROB	n/a	LTP209	ltpFR	11	n/a	n/a	n/a	n/a	n/a	n/a	12	2	5	5	n/a	n/a	n/a	n/a	n/a
2984337	PROB	n/a	LTP209	ltpFR	11	n/a	n/a	n/a	n/a	n/a	n/a	20	4	8	8	n/a	n/a	n/a	n/a	n/a
2985810	PROB	n/a	LTP209	ltpFR	11	n/a	n/a	n/a	n/a	n/a	n/a	17	4	8	5	n/a	n/a	n/a	n/a	n/a
2987684	PROB	n/a	LTP209	ltpFR	11	n/a	n/a	n/a	n/a	n/a	n/a	13	7	1	5	n/a	n/a	n/a	n/a	n/a
2989335	STOP	n/a	LTP209	ltpFR	11	n/a	n/a	n/a	n/a	n/a	n/a	n/a	n/a	n/a	n/a	n/a	n/a	n/a	n/a	n/a
2990933	WORD	wordpools/wasnorm_wordpool_less_exclusions.txt	LTP209	ltpFR	11	11	0	DISC	473	n/a	0	n/a	0	0	0	1	0.412841796875	0.57763671875	lower	../fonts/zerothre.ttf
2993945	START	n/a	LTP209	ltpFR	11	n/a	n/a	n/a	n/a	n/a	n/a	n/a	n/a	n/a	n/a	n/a	n/a	n/a	n/a	n/a
2994961	PROB	n/a	LTP209	ltpFR	11	n/a	n/a	n/a	n/a	n/a	n/a	14	6	6	5	n/a	n/a	n/a	n/a	n/a
2996801	PROB	n/a	LTP209	ltpFR	11	n/a	n/a	n/a	n/a	n/a	n/a	10	2	7	1	n/a	n/a	n/a	n/a	n/a
2999143	PROB	n/a	LTP209	ltpFR	11	n/a	n/a	n/a	n/a	n/a	n/a	5	1	3	1	n/a	n/a	n/a	n/a	n/a
3000364	PROB	n/a	LTP209	ltpFR	11	n/a	n/a	n/a	n/a	n/a	n/a	14	9	2	3	n/a	n/a	n/a	n/a	n/a
3001736	STOP	n/a	LTP209	ltpFR	11	n/a	n/a	n/a	n/a	n/a	n/a	n/a	n/a	n/a	n/a	n/a	n/a	n/a	n/a	n/a
3002778	WORD	wordpools/wasnorm_wordpool_less_exclusions.txt	LTP209	ltpFR	11	11	0	RECIPE	1175	n/a	0	n/a	0	0	0	1	0.412841796875	0.57763671875	lower	../fonts/zerothre.ttf
3005790	START	n/a	LTP209	ltpFR	11	n/a	n/a	n/a	n/a	n/a	n/a	n/a	n/a	n/a	n/a	n/a	n/a	n/a	n/a	n/a
3006889	PROB	n/a	LTP209	ltpFR	11	n/a	n/a	n/a	n/a	n/a	n/a	14	4	3	7	n/a	n/a	n/a	n/a	n/a
3008646	PROB	n/a	LTP209	ltpFR	11	n/a	n/a	n/a	n/a	n/a	n/a	22	7	8	7	n/a	n/a	n/a	n/a	n/a
3012776	STOP	n/a	LTP209	ltpFR	11	n/a	n/a	n/a	n/a	n/a	n/a	n/a	n/a	n/a	n/a	n/a	n/a	n/a	n/a	n/a
3015707	REC_START	n/a	LTP209	ltpFR	11	11	n/a	n/a	n/a	n/a	n/a	n/a	0	0	0	n/a	n/a	n/a	n/a	n/a
3017488	REC_WORD	wordpools/wasnorm_wordpool_less_exclusions.txt	LTP209	ltpFR	11	11	0	RECIPE	1175	n/a	0	n/a	0	0	0	n/a	n/a	n/a	n/a	n/a
3020281	REC_WORD	wordpools/wasnorm_wordpool_less_exclusions.txt	LTP209	ltpFR	11	11	0	TACK	1428	n/a	0	n/a	0	0	0	n/a	n/a	n/a	n/a	n/a
3021543	REC_WORD	wordpools/wasnorm_wordpool_less_exclusions.txt	LTP209	ltpFR	11	11	0	HOOD	714	n/a	1	n/a	0	0	0	n/a	n/a	n/a	n/a	n/a
3023140	REC_WORD	wordpools/wasnorm_wordpool_less_exclusions.txt	LTP209	ltpFR	11	11	0	BUTTON	207	n/a	0	n/a	0	0	0	n/a	n/a	n/a	n/a	n/a
3030548	REC_WORD	wordpools/wasnorm_wordpool_less_exclusions.txt	LTP209	ltpFR	11	11	1	EAGLE	512	n/a	1	n/a	0	0	0	n/a	n/a	n/a	n/a	n/a
