onset	duration	trial_type	sample	stim_file	subject	experiment	session	trial	item_name	item_num	list	answer	test_x	test_y	test_z
226.594	n/a	SESS_START	113297	n/a	LTP323	ltpFR2	5	n/a	n/a	n/a	n/a	n/a	0	0	0
254.424	n/a	START	127212	n/a	LTP323	ltpFR2	5	n/a	n/a	n/a	-1	n/a	n/a	n/a	n/a
254.448	n/a	PROB	127224	n/a	LTP323	ltpFR2	5	n/a	n/a	n/a	-1	14	8	3	3
256.522	n/a	PROB	128261	n/a	LTP323	ltpFR2	5	n/a	n/a	n/a	-1	8	2	1	5
258.14	n/a	PROB	129070	n/a	LTP323	ltpFR2	5	n/a	n/a	n/a	-1	13	8	2	3
259.724	n/a	PROB	129862	n/a	LTP323	ltpFR2	5	n/a	n/a	n/a	-1	9	2	4	3
261.744	n/a	PROB	130872	n/a	LTP323	ltpFR2	5	n/a	n/a	n/a	-1	18	7	4	7
263.594	n/a	PROB	131797	n/a	LTP323	ltpFR2	5	n/a	n/a	n/a	-1	11	6	3	2
265.118	n/a	STOP	132559	n/a	LTP323	ltpFR2	5	n/a	n/a	n/a	-1	n/a	n/a	n/a	n/a
307.27	n/a	DISTRACTOR	153635	n/a	LTP323	ltpFR2	5	1	n/a	n/a	n/a	n/a	0	0	0
307.27	n/a	START	153635	n/a	LTP323	ltpFR2	5	n/a	n/a	n/a	1	n/a	n/a	n/a	n/a
307.284	n/a	PROB	153642	n/a	LTP323	ltpFR2	5	n/a	n/a	n/a	1	17	2	6	9
309.92	n/a	PROB	154960	n/a	LTP323	ltpFR2	5	n/a	n/a	n/a	1	12	6	3	3
311.454	n/a	PROB	155727	n/a	LTP323	ltpFR2	5	n/a	n/a	n/a	1	17	5	4	8
313.124	n/a	PROB	156562	n/a	LTP323	ltpFR2	5	n/a	n/a	n/a	1	16	5	6	5
315.408	n/a	PROB	157704	n/a	LTP323	ltpFR2	5	n/a	n/a	n/a	1	12	5	5	2
317.008	n/a	PROB	158504	n/a	LTP323	ltpFR2	5	n/a	n/a	n/a	1	21	6	9	6
319.228	n/a	PROB	159614	n/a	LTP323	ltpFR2	5	n/a	n/a	n/a	1	10	5	3	2
320.93	n/a	PROB	160465	n/a	LTP323	ltpFR2	5	n/a	n/a	n/a	1	18	4	5	9
322.796	n/a	PROB	161398	n/a	LTP323	ltpFR2	5	n/a	n/a	n/a	1	12	2	3	7
324.246	n/a	PROB	162123	n/a	LTP323	ltpFR2	5	n/a	n/a	n/a	1	19	5	7	7
326.348	n/a	PROB	163174	n/a	LTP323	ltpFR2	5	n/a	n/a	n/a	1	9	1	4	4
328.068	n/a	PROB	164034	n/a	LTP323	ltpFR2	5	n/a	n/a	n/a	1	9	5	1	3
330.176	n/a	STOP	165088	n/a	LTP323	ltpFR2	5	n/a	n/a	n/a	1	n/a	n/a	n/a	n/a
332.124	n/a	WORD	166062	wordpools/wasnorm_wordpool_576.txt	LTP323	ltpFR2	5	1	PISTON	1076	n/a	n/a	0	0	0
334.862	n/a	WORD	167431	wordpools/wasnorm_wordpool_576.txt	LTP323	ltpFR2	5	1	VALVE	1546	n/a	n/a	0	0	0
337.562	n/a	WORD	168781	wordpools/wasnorm_wordpool_576.txt	LTP323	ltpFR2	5	1	MARINE	869	n/a	n/a	0	0	0
340.248	n/a	WORD	170124	wordpools/wasnorm_wordpool_576.txt	LTP323	ltpFR2	5	1	INFANT	737	n/a	n/a	0	0	0
342.868	n/a	WORD	171434	wordpools/wasnorm_wordpool_576.txt	LTP323	ltpFR2	5	1	PASTRY	1022	n/a	n/a	0	0	0
345.602	n/a	WORD	172801	wordpools/wasnorm_wordpool_576.txt	LTP323	ltpFR2	5	1	GARDEN	623	n/a	n/a	0	0	0
348.272	n/a	WORD	174136	wordpools/wasnorm_wordpool_576.txt	LTP323	ltpFR2	5	1	HORNET	718	n/a	n/a	0	0	0
351.108	n/a	WORD	175554	wordpools/wasnorm_wordpool_576.txt	LTP323	ltpFR2	5	1	REBEL	1172	n/a	n/a	0	0	0
353.91	n/a	WORD	176955	wordpools/wasnorm_wordpool_576.txt	LTP323	ltpFR2	5	1	CASHEW	253	n/a	n/a	0	0	0
356.494	n/a	WORD	178247	wordpools/wasnorm_wordpool_576.txt	LTP323	ltpFR2	5	1	BUGGY	188	n/a	n/a	0	0	0
358.932	n/a	WORD	179466	wordpools/wasnorm_wordpool_576.txt	LTP323	ltpFR2	5	1	PLAYGROUND	1087	n/a	n/a	0	0	0
361.698	n/a	WORD	180849	wordpools/wasnorm_wordpool_576.txt	LTP323	ltpFR2	5	1	FRAGRANCE	599	n/a	n/a	0	0	0
364.184	n/a	WORD	182092	wordpools/wasnorm_wordpool_576.txt	LTP323	ltpFR2	5	1	STATUE	1374	n/a	n/a	0	0	0
366.838	n/a	WORD	183419	wordpools/wasnorm_wordpool_576.txt	LTP323	ltpFR2	5	1	PIANO	1057	n/a	n/a	0	0	0
369.64	n/a	WORD	184820	wordpools/wasnorm_wordpool_576.txt	LTP323	ltpFR2	5	1	NIGHTGOWN	953	n/a	n/a	0	0	0
372.442	n/a	WORD	186221	wordpools/wasnorm_wordpool_576.txt	LTP323	ltpFR2	5	1	ORCHID	982	n/a	n/a	0	0	0
375.146	n/a	WORD	187573	wordpools/wasnorm_wordpool_576.txt	LTP323	ltpFR2	5	1	HEDGE	699	n/a	n/a	0	0	0
377.73	n/a	WORD	188865	wordpools/wasnorm_wordpool_576.txt	LTP323	ltpFR2	5	1	EXPERT	543	n/a	n/a	0	0	0
380.166	n/a	WORD	190083	wordpools/wasnorm_wordpool_576.txt	LTP323	ltpFR2	5	1	PEDAL	1037	n/a	n/a	0	0	0
383.002	n/a	WORD	191501	wordpools/wasnorm_wordpool_576.txt	LTP323	ltpFR2	5	1	SCRIBBLE	1256	n/a	n/a	0	0	0
385.788	n/a	WORD	192894	wordpools/wasnorm_wordpool_576.txt	LTP323	ltpFR2	5	1	PAPER	1011	n/a	n/a	0	0	0
388.604	n/a	WORD	194302	wordpools/wasnorm_wordpool_576.txt	LTP323	ltpFR2	5	1	PADDLE	1000	n/a	n/a	0	0	0
391.14	n/a	WORD	195570	wordpools/wasnorm_wordpool_576.txt	LTP323	ltpFR2	5	1	DRIVER	499	n/a	n/a	0	0	0
393.926	n/a	WORD	196963	wordpools/wasnorm_wordpool_576.txt	LTP323	ltpFR2	5	1	ICING	732	n/a	n/a	0	0	0
395.544	n/a	START	197772	n/a	LTP323	ltpFR2	5	n/a	n/a	n/a	2	n/a	n/a	n/a	n/a
396.644	n/a	DISTRACTOR	198322	n/a	LTP323	ltpFR2	5	1	n/a	n/a	n/a	n/a	0	0	0
396.66	n/a	PROB	198330	n/a	LTP323	ltpFR2	5	n/a	n/a	n/a	2	17	7	7	3
398.66	n/a	PROB	199330	n/a	LTP323	ltpFR2	5	n/a	n/a	n/a	2	23	5	9	9
403.464	n/a	PROB	201732	n/a	LTP323	ltpFR2	5	n/a	n/a	n/a	2	9	4	4	1
404.954	n/a	PROB	202477	n/a	LTP323	ltpFR2	5	n/a	n/a	n/a	2	8	3	2	3
407.688	n/a	PROB	203844	n/a	LTP323	ltpFR2	5	n/a	n/a	n/a	2	20	5	6	9
409.552	n/a	PROB	204776	n/a	LTP323	ltpFR2	5	n/a	n/a	n/a	2	20	8	9	3
411.97	n/a	PROB	205985	n/a	LTP323	ltpFR2	5	n/a	n/a	n/a	2	20	4	9	7
414.206	n/a	PROB	207103	n/a	LTP323	ltpFR2	5	n/a	n/a	n/a	2	20	9	7	4
416.808	n/a	PROB	208404	n/a	LTP323	ltpFR2	5	n/a	n/a	n/a	2	7	3	3	1
418.522	n/a	STOP	209261	n/a	LTP323	ltpFR2	5	n/a	n/a	n/a	2	n/a	n/a	n/a	n/a
421.448	n/a	REC_START	210724	n/a	LTP323	ltpFR2	5	1	n/a	n/a	n/a	n/a	0	0	0
423.368	n/a	REC_WORD	211684	wordpools/wasnorm_wordpool_576.txt	LTP323	ltpFR2	5	1	INFANT	737	n/a	n/a	0	0	0
424.204	n/a	REC_WORD	212102	wordpools/wasnorm_wordpool_576.txt	LTP323	ltpFR2	5	1	PASTRY	1022	n/a	n/a	0	0	0
424.988	n/a	REC_WORD	212494	wordpools/wasnorm_wordpool_576.txt	LTP323	ltpFR2	5	1	ICING	732	n/a	n/a	0	0	0
426.264	n/a	REC_WORD	213132	wordpools/wasnorm_wordpool_576.txt	LTP323	ltpFR2	5	1	GARDEN	623	n/a	n/a	0	0	0
426.792	n/a	REC_WORD	213396	wordpools/wasnorm_wordpool_576.txt	LTP323	ltpFR2	5	1	PLAYGROUND	1087	n/a	n/a	0	0	0
427.526	n/a	REC_WORD	213763	wordpools/wasnorm_wordpool_576.txt	LTP323	ltpFR2	5	1	HEDGE	699	n/a	n/a	0	0	0
428.244	n/a	REC_WORD	214122	wordpools/wasnorm_wordpool_576.txt	LTP323	ltpFR2	5	1	ORCHID	982	n/a	n/a	0	0	0
429.584	n/a	REC_WORD	214792	wordpools/wasnorm_wordpool_576.txt	LTP323	ltpFR2	5	1	HORNET	718	n/a	n/a	0	0	0
430.174	n/a	REC_WORD_VV	215087	wordpools/wasnorm_wordpool_576.txt	LTP323	ltpFR2	5	1	<>	-1	n/a	n/a	0	0	0
431.174	n/a	REC_WORD_VV	215587	wordpools/wasnorm_wordpool_576.txt	LTP323	ltpFR2	5	1	<>	-1	n/a	n/a	0	0	0
431.416	n/a	REC_WORD	215708	wordpools/wasnorm_wordpool_576.txt	LTP323	ltpFR2	5	1	FRAGRANCE	599	n/a	n/a	0	0	0
432.418	n/a	REC_WORD	216209	wordpools/wasnorm_wordpool_576.txt	LTP323	ltpFR2	5	1	STATUE	1374	n/a	n/a	0	0	0
434.27	n/a	REC_WORD	217135	wordpools/wasnorm_wordpool_576.txt	LTP323	ltpFR2	5	1	NIGHTGOWN	953	n/a	n/a	0	0	0
435.14	n/a	REC_WORD	217570	wordpools/wasnorm_wordpool_576.txt	LTP323	ltpFR2	5	1	PIANO	1057	n/a	n/a	0	0	0
437.74	n/a	REC_WORD	218870	wordpools/wasnorm_wordpool_576.txt	LTP323	ltpFR2	5	1	REBEL	1172	n/a	n/a	0	0	0
438.816	n/a	REC_WORD	219408	wordpools/wasnorm_wordpool_576.txt	LTP323	ltpFR2	5	1	EXPERT	543	n/a	n/a	0	0	0
439.638	n/a	REC_WORD	219819	wordpools/wasnorm_wordpool_576.txt	LTP323	ltpFR2	5	1	DRIVER	499	n/a	n/a	0	0	0
440.606	n/a	REC_WORD	220303	wordpools/wasnorm_wordpool_576.txt	LTP323	ltpFR2	5	1	MARINE	869	n/a	n/a	0	0	0
442.578	n/a	REC_WORD	221289	wordpools/wasnorm_wordpool_576.txt	LTP323	ltpFR2	5	1	PISTON	1076	n/a	n/a	0	0	0
443.322	n/a	REC_WORD	221661	wordpools/wasnorm_wordpool_576.txt	LTP323	ltpFR2	5	1	VALVE	1546	n/a	n/a	0	0	0
444.5	n/a	REC_WORD	222250	wordpools/wasnorm_wordpool_576.txt	LTP323	ltpFR2	5	1	PEDAL	1037	n/a	n/a	0	0	0
447.268	n/a	REC_WORD	223634	wordpools/wasnorm_wordpool_576.txt	LTP323	ltpFR2	5	1	PADDLE	1000	n/a	n/a	0	0	0
451.264	n/a	REC_WORD	225632	wordpools/wasnorm_wordpool_576.txt	LTP323	ltpFR2	5	1	BUGGY	188	n/a	n/a	0	0	0
454.454	n/a	REC_WORD	227227	wordpools/wasnorm_wordpool_576.txt	LTP323	ltpFR2	5	1	SCRIBBLE	1256	n/a	n/a	0	0	0
455.668	n/a	REC_WORD	227834	wordpools/wasnorm_wordpool_576.txt	LTP323	ltpFR2	5	1	PAPER	1011	n/a	n/a	0	0	0
467.918	n/a	REC_WORD	233959	wordpools/wasnorm_wordpool_576.txt	LTP323	ltpFR2	5	1	PLAYGROUND	1087	n/a	n/a	0	0	0
470.174	n/a	REC_WORD	235087	wordpools/wasnorm_wordpool_576.txt	LTP323	ltpFR2	5	1	GARDEN	623	n/a	n/a	0	0	0
511.878	n/a	WORD	255939	wordpools/wasnorm_wordpool_576.txt	LTP323	ltpFR2	5	2	WHISKERS	1605	n/a	n/a	0	0	0
514.522	n/a	WORD	257261	wordpools/wasnorm_wordpool_576.txt	LTP323	ltpFR2	5	2	GYMNAST	675	n/a	n/a	0	0	0
517.274	n/a	WORD	258637	wordpools/wasnorm_wordpool_576.txt	LTP323	ltpFR2	5	2	GAVEL	627	n/a	n/a	0	0	0
520.06	n/a	WORD	260030	wordpools/wasnorm_wordpool_576.txt	LTP323	ltpFR2	5	2	POET	1095	n/a	n/a	0	0	0
522.772	n/a	WORD	261386	wordpools/wasnorm_wordpool_576.txt	LTP323	ltpFR2	5	2	SKIRT	1319	n/a	n/a	0	0	0
525.496	n/a	WORD	262748	wordpools/wasnorm_wordpool_576.txt	LTP323	ltpFR2	5	2	BREAST	171	n/a	n/a	0	0	0
528.242	n/a	WORD	264121	wordpools/wasnorm_wordpool_576.txt	LTP323	ltpFR2	5	2	THRONE	1461	n/a	n/a	0	0	0
530.93	n/a	WORD	265465	wordpools/wasnorm_wordpool_576.txt	LTP323	ltpFR2	5	2	COOK	372	n/a	n/a	0	0	0
533.586	n/a	WORD	266793	wordpools/wasnorm_wordpool_576.txt	LTP323	ltpFR2	5	2	WIDOW	1608	n/a	n/a	0	0	0
536.034	n/a	WORD	268017	wordpools/wasnorm_wordpool_576.txt	LTP323	ltpFR2	5	2	PARROT	1015	n/a	n/a	0	0	0
538.59	n/a	WORD	269295	wordpools/wasnorm_wordpool_576.txt	LTP323	ltpFR2	5	2	DIME	466	n/a	n/a	0	0	0
541.304	n/a	WORD	270652	wordpools/wasnorm_wordpool_576.txt	LTP323	ltpFR2	5	2	PIGMENT	1066	n/a	n/a	0	0	0
543.728	n/a	WORD	271864	wordpools/wasnorm_wordpool_576.txt	LTP323	ltpFR2	5	2	CRAYON	401	n/a	n/a	0	0	0
546.182	n/a	WORD	273091	wordpools/wasnorm_wordpool_576.txt	LTP323	ltpFR2	5	2	PICNIC	1060	n/a	n/a	0	0	0
548.626	n/a	WORD	274313	wordpools/wasnorm_wordpool_576.txt	LTP323	ltpFR2	5	2	QUEEN	1149	n/a	n/a	0	0	0
551.212	n/a	WORD	275606	wordpools/wasnorm_wordpool_576.txt	LTP323	ltpFR2	5	2	TUTU	1524	n/a	n/a	0	0	0
553.782	n/a	WORD	276891	wordpools/wasnorm_wordpool_576.txt	LTP323	ltpFR2	5	2	PENGUIN	1044	n/a	n/a	0	0	0
556.266	n/a	WORD	278133	wordpools/wasnorm_wordpool_576.txt	LTP323	ltpFR2	5	2	SHIRT	1287	n/a	n/a	0	0	0
558.87	n/a	WORD	279435	wordpools/wasnorm_wordpool_576.txt	LTP323	ltpFR2	5	2	DRESS	495	n/a	n/a	0	0	0
561.386	n/a	WORD	280693	wordpools/wasnorm_wordpool_576.txt	LTP323	ltpFR2	5	2	GAZELLE	628	n/a	n/a	0	0	0
563.84	n/a	WORD	281920	wordpools/wasnorm_wordpool_576.txt	LTP323	ltpFR2	5	2	POSTAGE	1113	n/a	n/a	0	0	0
566.374	n/a	WORD	283187	wordpools/wasnorm_wordpool_576.txt	LTP323	ltpFR2	5	2	SUNRISE	1407	n/a	n/a	0	0	0
568.978	n/a	WORD	284489	wordpools/wasnorm_wordpool_576.txt	LTP323	ltpFR2	5	2	PLUTO	1092	n/a	n/a	0	0	0
571.532	n/a	WORD	285766	wordpools/wasnorm_wordpool_576.txt	LTP323	ltpFR2	5	2	GLOBE	641	n/a	n/a	0	0	0
573.148	n/a	START	286574	n/a	LTP323	ltpFR2	5	n/a	n/a	n/a	3	n/a	n/a	n/a	n/a
574.054	n/a	DISTRACTOR	287027	n/a	LTP323	ltpFR2	5	2	n/a	n/a	n/a	n/a	0	0	0
574.066	n/a	PROB	287033	n/a	LTP323	ltpFR2	5	n/a	n/a	n/a	3	12	3	8	1
576.866	n/a	PROB	288433	n/a	LTP323	ltpFR2	5	n/a	n/a	n/a	3	15	2	8	5
579.616	n/a	PROB	289808	n/a	LTP323	ltpFR2	5	n/a	n/a	n/a	3	10	1	6	3
581.736	n/a	PROB	290868	n/a	LTP323	ltpFR2	5	n/a	n/a	n/a	3	15	7	7	1
583.406	n/a	PROB	291703	n/a	LTP323	ltpFR2	5	n/a	n/a	n/a	3	19	1	9	9
585.172	n/a	PROB	292586	n/a	LTP323	ltpFR2	5	n/a	n/a	n/a	3	8	3	3	2
586.958	n/a	PROB	293479	n/a	LTP323	ltpFR2	5	n/a	n/a	n/a	3	13	8	1	4
589.026	n/a	PROB	294513	n/a	LTP323	ltpFR2	5	n/a	n/a	n/a	3	18	2	9	7
591.196	n/a	PROB	295598	n/a	LTP323	ltpFR2	5	n/a	n/a	n/a	3	13	3	4	6
593.328	n/a	PROB	296664	n/a	LTP323	ltpFR2	5	n/a	n/a	n/a	3	10	6	3	1
595.114	n/a	PROB	297557	n/a	LTP323	ltpFR2	5	n/a	n/a	n/a	3	16	8	3	5
597.08	n/a	STOP	298540	n/a	LTP323	ltpFR2	5	n/a	n/a	n/a	3	n/a	n/a	n/a	n/a
599.084	n/a	REC_START	299542	n/a	LTP323	ltpFR2	5	2	n/a	n/a	n/a	n/a	0	0	0
600.784	n/a	REC_WORD	300392	wordpools/wasnorm_wordpool_576.txt	LTP323	ltpFR2	5	2	PENGUIN	1044	n/a	n/a	0	0	0
601.784	n/a	REC_WORD_VV	300892	wordpools/wasnorm_wordpool_576.txt	LTP323	ltpFR2	5	2	<>	-1	n/a	n/a	0	0	0
602.55	n/a	REC_WORD	301275	wordpools/wasnorm_wordpool_576.txt	LTP323	ltpFR2	5	2	POET	1095	n/a	n/a	0	0	0
603.838	n/a	REC_WORD	301919	wordpools/wasnorm_wordpool_576.txt	LTP323	ltpFR2	5	2	THRONE	1461	n/a	n/a	0	0	0
604.408	n/a	REC_WORD	302204	wordpools/wasnorm_wordpool_576.txt	LTP323	ltpFR2	5	2	GAVEL	627	n/a	n/a	0	0	0
604.896	n/a	REC_WORD	302448	wordpools/wasnorm_wordpool_576.txt	LTP323	ltpFR2	5	2	QUEEN	1149	n/a	n/a	0	0	0
606.91	n/a	REC_WORD	303455	wordpools/wasnorm_wordpool_576.txt	LTP323	ltpFR2	5	2	SKIRT	1319	n/a	n/a	0	0	0
608.466	n/a	REC_WORD	304233	wordpools/wasnorm_wordpool_576.txt	LTP323	ltpFR2	5	2	TUTU	1524	n/a	n/a	0	0	0
609.466	n/a	REC_WORD	304733	wordpools/wasnorm_wordpool_576.txt	LTP323	ltpFR2	5	2	DRESS	495	n/a	n/a	0	0	0
610.682	n/a	REC_WORD	305341	wordpools/wasnorm_wordpool_576.txt	LTP323	ltpFR2	5	2	SHIRT	1287	n/a	n/a	0	0	0
612.892	n/a	REC_WORD	306446	wordpools/wasnorm_wordpool_576.txt	LTP323	ltpFR2	5	2	BREAST	171	n/a	n/a	0	0	0
616.72	n/a	REC_WORD	308360	wordpools/wasnorm_wordpool_576.txt	LTP323	ltpFR2	5	2	PARROT	1015	n/a	n/a	0	0	0
617.606	n/a	REC_WORD	308803	wordpools/wasnorm_wordpool_576.txt	LTP323	ltpFR2	5	2	PIGMENT	1066	n/a	n/a	0	0	0
618.362	n/a	REC_WORD	309181	wordpools/wasnorm_wordpool_576.txt	LTP323	ltpFR2	5	2	CRAYON	401	n/a	n/a	0	0	0
619.812	n/a	REC_WORD	309906	wordpools/wasnorm_wordpool_576.txt	LTP323	ltpFR2	5	2	DIME	466	n/a	n/a	0	0	0
621.258	n/a	REC_WORD	310629	wordpools/wasnorm_wordpool_576.txt	LTP323	ltpFR2	5	2	WIDOW	1608	n/a	n/a	0	0	0
621.85	n/a	REC_WORD	310925	wordpools/wasnorm_wordpool_576.txt	LTP323	ltpFR2	5	2	COOK	372	n/a	n/a	0	0	0
624.516	n/a	REC_WORD	312258	wordpools/wasnorm_wordpool_576.txt	LTP323	ltpFR2	5	2	WHISKERS	1605	n/a	n/a	0	0	0
625.63	n/a	REC_WORD	312815	wordpools/wasnorm_wordpool_576.txt	LTP323	ltpFR2	5	2	GYMNAST	675	n/a	n/a	0	0	0
626.63	n/a	REC_WORD_VV	313315	wordpools/wasnorm_wordpool_576.txt	LTP323	ltpFR2	5	2	<>	-1	n/a	n/a	0	0	0
627.622	n/a	REC_WORD	313811	wordpools/wasnorm_wordpool_576.txt	LTP323	ltpFR2	5	2	GAVEL	627	n/a	n/a	0	0	0
637.756	n/a	REC_WORD	318878	wordpools/wasnorm_wordpool_576.txt	LTP323	ltpFR2	5	2	PENGUIN	1044	n/a	n/a	0	0	0
650.47	n/a	REC_WORD	325235	wordpools/wasnorm_wordpool_576.txt	LTP323	ltpFR2	5	2	POSTAGE	1113	n/a	n/a	0	0	0
651.922	n/a	REC_WORD	325961	wordpools/wasnorm_wordpool_576.txt	LTP323	ltpFR2	5	2	GLOBE	641	n/a	n/a	0	0	0
654.032	n/a	REC_WORD	327016	wordpools/wasnorm_wordpool_576.txt	LTP323	ltpFR2	5	2	SUNRISE	1407	n/a	n/a	0	0	0
656.716	n/a	REC_WORD	328358	wordpools/wasnorm_wordpool_576.txt	LTP323	ltpFR2	5	2	PLUTO	1092	n/a	n/a	0	0	0
689.544	n/a	DISTRACTOR	344772	n/a	LTP323	ltpFR2	5	3	n/a	n/a	n/a	n/a	0	0	0
689.544	n/a	START	344772	n/a	LTP323	ltpFR2	5	n/a	n/a	n/a	4	n/a	n/a	n/a	n/a
689.556	n/a	PROB	344778	n/a	LTP323	ltpFR2	5	n/a	n/a	n/a	4	20	8	4	8
691.866	n/a	PROB	345933	n/a	LTP323	ltpFR2	5	n/a	n/a	n/a	4	17	3	5	9
693.544	n/a	PROB	346772	n/a	LTP323	ltpFR2	5	n/a	n/a	n/a	4	11	2	3	6
695.002	n/a	PROB	347501	n/a	LTP323	ltpFR2	5	n/a	n/a	n/a	4	15	4	5	6
697.43	n/a	PROB	348715	n/a	LTP323	ltpFR2	5	n/a	n/a	n/a	4	18	6	3	9
699.488	n/a	PROB	349744	n/a	LTP323	ltpFR2	5	n/a	n/a	n/a	4	11	2	4	5
701.14	n/a	PROB	350570	n/a	LTP323	ltpFR2	5	n/a	n/a	n/a	4	14	4	7	3
703.206	n/a	PROB	351603	n/a	LTP323	ltpFR2	5	n/a	n/a	n/a	4	18	8	1	9
704.86	n/a	PROB	352430	n/a	LTP323	ltpFR2	5	n/a	n/a	n/a	4	13	3	3	7
706.342	n/a	PROB	353171	n/a	LTP323	ltpFR2	5	n/a	n/a	n/a	4	18	8	3	7
707.878	n/a	PROB	353939	n/a	LTP323	ltpFR2	5	n/a	n/a	n/a	4	14	8	3	3
709.594	n/a	PROB	354797	n/a	LTP323	ltpFR2	5	n/a	n/a	n/a	4	19	1	9	9
712.0	n/a	PROB	356000	n/a	LTP323	ltpFR2	5	n/a	n/a	n/a	4	15	5	5	5
713.356	n/a	STOP	356678	n/a	LTP323	ltpFR2	5	n/a	n/a	n/a	4	n/a	n/a	n/a	n/a
714.512	n/a	WORD	357256	wordpools/wasnorm_wordpool_576.txt	LTP323	ltpFR2	5	3	RABBIT	1152	n/a	n/a	0	0	0
717.322	n/a	WORD	358661	wordpools/wasnorm_wordpool_576.txt	LTP323	ltpFR2	5	3	LADDER	793	n/a	n/a	0	0	0
720.018	n/a	WORD	360009	wordpools/wasnorm_wordpool_576.txt	LTP323	ltpFR2	5	3	SANDWICH	1232	n/a	n/a	0	0	0
722.676	n/a	WORD	361338	wordpools/wasnorm_wordpool_576.txt	LTP323	ltpFR2	5	3	PLATE	1086	n/a	n/a	0	0	0
725.106	n/a	WORD	362553	wordpools/wasnorm_wordpool_576.txt	LTP323	ltpFR2	5	3	TROMBONE	1508	n/a	n/a	0	0	0
727.698	n/a	WORD	363849	wordpools/wasnorm_wordpool_576.txt	LTP323	ltpFR2	5	3	SNAKE	1333	n/a	n/a	0	0	0
730.232	n/a	WORD	365116	wordpools/wasnorm_wordpool_576.txt	LTP323	ltpFR2	5	3	EUROPE	541	n/a	n/a	0	0	0
733.044	n/a	WORD	366522	wordpools/wasnorm_wordpool_576.txt	LTP323	ltpFR2	5	3	CURTAIN	427	n/a	n/a	0	0	0
735.838	n/a	WORD	367919	wordpools/wasnorm_wordpool_576.txt	LTP323	ltpFR2	5	3	PASSAGE	1019	n/a	n/a	0	0	0
738.424	n/a	WORD	369212	wordpools/wasnorm_wordpool_576.txt	LTP323	ltpFR2	5	3	MILK	895	n/a	n/a	0	0	0
740.844	n/a	WORD	370422	wordpools/wasnorm_wordpool_576.txt	LTP323	ltpFR2	5	3	VAGRANT	1544	n/a	n/a	0	0	0
743.552	n/a	WORD	371776	wordpools/wasnorm_wordpool_576.txt	LTP323	ltpFR2	5	3	CAFE	216	n/a	n/a	0	0	0
746.072	n/a	WORD	373036	wordpools/wasnorm_wordpool_576.txt	LTP323	ltpFR2	5	3	COOKBOOK	373	n/a	n/a	0	0	0
748.7	n/a	WORD	374350	wordpools/wasnorm_wordpool_576.txt	LTP323	ltpFR2	5	3	CRUTCH	417	n/a	n/a	0	0	0
751.3	n/a	WORD	375650	wordpools/wasnorm_wordpool_576.txt	LTP323	ltpFR2	5	3	BRAKE	166	n/a	n/a	0	0	0
754.038	n/a	WORD	377019	wordpools/wasnorm_wordpool_576.txt	LTP323	ltpFR2	5	3	DRILL	497	n/a	n/a	0	0	0
756.48	n/a	WORD	378240	wordpools/wasnorm_wordpool_576.txt	LTP323	ltpFR2	5	3	LUGGAGE	847	n/a	n/a	0	0	0
758.916	n/a	WORD	379458	wordpools/wasnorm_wordpool_576.txt	LTP323	ltpFR2	5	3	FRUIT	610	n/a	n/a	0	0	0
761.376	n/a	WORD	380688	wordpools/wasnorm_wordpool_576.txt	LTP323	ltpFR2	5	3	RAZOR	1171	n/a	n/a	0	0	0
763.93	n/a	WORD	381965	wordpools/wasnorm_wordpool_576.txt	LTP323	ltpFR2	5	3	JURY	766	n/a	n/a	0	0	0
766.58	n/a	WORD	383290	wordpools/wasnorm_wordpool_576.txt	LTP323	ltpFR2	5	3	BRIEFCASE	175	n/a	n/a	0	0	0
769.256	n/a	WORD	384628	wordpools/wasnorm_wordpool_576.txt	LTP323	ltpFR2	5	3	CARROT	249	n/a	n/a	0	0	0
771.986	n/a	WORD	385993	wordpools/wasnorm_wordpool_576.txt	LTP323	ltpFR2	5	3	FLAG	573	n/a	n/a	0	0	0
774.788	n/a	WORD	387394	wordpools/wasnorm_wordpool_576.txt	LTP323	ltpFR2	5	3	WINDOW	1611	n/a	n/a	0	0	0
776.396	n/a	START	388198	n/a	LTP323	ltpFR2	5	n/a	n/a	n/a	5	n/a	n/a	n/a	n/a
777.33	n/a	DISTRACTOR	388665	n/a	LTP323	ltpFR2	5	3	n/a	n/a	n/a	n/a	0	0	0
777.34	n/a	PROB	388670	n/a	LTP323	ltpFR2	5	n/a	n/a	n/a	5	10	1	1	8
779.422	n/a	PROB	389711	n/a	LTP323	ltpFR2	5	n/a	n/a	n/a	5	15	5	5	5
780.776	n/a	PROB	390388	n/a	LTP323	ltpFR2	5	n/a	n/a	n/a	5	9	2	4	3
784.012	n/a	PROB	392006	n/a	LTP323	ltpFR2	5	n/a	n/a	n/a	5	11	5	4	2
785.694	n/a	PROB	392847	n/a	LTP323	ltpFR2	5	n/a	n/a	n/a	5	17	4	6	7
787.848	n/a	PROB	393924	n/a	LTP323	ltpFR2	5	n/a	n/a	n/a	5	14	3	9	2
790.15	n/a	PROB	395075	n/a	LTP323	ltpFR2	5	n/a	n/a	n/a	5	24	9	7	8
793.77	n/a	PROB	396885	n/a	LTP323	ltpFR2	5	n/a	n/a	n/a	5	12	5	3	4
795.936	n/a	PROB	397968	n/a	LTP323	ltpFR2	5	n/a	n/a	n/a	5	13	4	6	3
798.308	n/a	PROB	399154	n/a	LTP323	ltpFR2	5	n/a	n/a	n/a	5	21	9	5	7
800.262	n/a	STOP	400131	n/a	LTP323	ltpFR2	5	n/a	n/a	n/a	5	n/a	n/a	n/a	n/a
802.326	n/a	REC_START	401163	n/a	LTP323	ltpFR2	5	3	n/a	n/a	n/a	n/a	0	0	0
803.51	n/a	REC_WORD	401755	wordpools/wasnorm_wordpool_576.txt	LTP323	ltpFR2	5	3	RABBIT	1152	n/a	n/a	0	0	0
804.154	n/a	REC_WORD	402077	wordpools/wasnorm_wordpool_576.txt	LTP323	ltpFR2	5	3	LADDER	793	n/a	n/a	0	0	0
805.69	n/a	REC_WORD	402845	wordpools/wasnorm_wordpool_576.txt	LTP323	ltpFR2	5	3	EUROPE	541	n/a	n/a	0	0	0
806.634	n/a	REC_WORD	403317	wordpools/wasnorm_wordpool_576.txt	LTP323	ltpFR2	5	3	CARROT	249	n/a	n/a	0	0	0
807.288	n/a	REC_WORD	403644	wordpools/wasnorm_wordpool_576.txt	LTP323	ltpFR2	5	3	SANDWICH	1232	n/a	n/a	0	0	0
808.182	n/a	REC_WORD	404091	wordpools/wasnorm_wordpool_576.txt	LTP323	ltpFR2	5	3	PLATE	1086	n/a	n/a	0	0	0
809.634	n/a	REC_WORD	404817	wordpools/wasnorm_wordpool_576.txt	LTP323	ltpFR2	5	3	MILK	895	n/a	n/a	0	0	0
810.758	n/a	REC_WORD	405379	wordpools/wasnorm_wordpool_576.txt	LTP323	ltpFR2	5	3	COOKBOOK	373	n/a	n/a	0	0	0
812.506	n/a	REC_WORD	406253	wordpools/wasnorm_wordpool_576.txt	LTP323	ltpFR2	5	3	WINDOW	1611	n/a	n/a	0	0	0
814.218	n/a	REC_WORD	407109	wordpools/wasnorm_wordpool_576.txt	LTP323	ltpFR2	5	3	SNAKE	1333	n/a	n/a	0	0	0
815.362	n/a	REC_WORD	407681	wordpools/wasnorm_wordpool_576.txt	LTP323	ltpFR2	5	3	TROMBONE	1508	n/a	n/a	0	0	0
816.328	n/a	REC_WORD	408164	wordpools/wasnorm_wordpool_576.txt	LTP323	ltpFR2	5	3	DRILL	497	n/a	n/a	0	0	0
818.914	n/a	REC_WORD	409457	wordpools/wasnorm_wordpool_576.txt	LTP323	ltpFR2	5	3	CAFE	216	n/a	n/a	0	0	0
820.986	n/a	REC_WORD	410493	wordpools/wasnorm_wordpool_576.txt	LTP323	ltpFR2	5	3	LUGGAGE	847	n/a	n/a	0	0	0
821.738	n/a	REC_WORD	410869	wordpools/wasnorm_wordpool_576.txt	LTP323	ltpFR2	5	3	BRIEFCASE	175	n/a	n/a	0	0	0
822.738	n/a	REC_WORD_VV	411369	wordpools/wasnorm_wordpool_576.txt	LTP323	ltpFR2	5	3	<>	-1	n/a	n/a	0	0	0
844.148	n/a	REC_WORD	422074	wordpools/wasnorm_wordpool_576.txt	LTP323	ltpFR2	5	3	JURY	766	n/a	n/a	0	0	0
847.04	n/a	REC_WORD	423520	wordpools/wasnorm_wordpool_576.txt	LTP323	ltpFR2	5	3	CRUTCH	417	n/a	n/a	0	0	0
862.534	n/a	REC_WORD	431267	wordpools/wasnorm_wordpool_576.txt	LTP323	ltpFR2	5	3	FRUIT	610	n/a	n/a	0	0	0
892.806	n/a	WORD	446403	wordpools/wasnorm_wordpool_576.txt	LTP323	ltpFR2	5	4	SAUSAGE	1238	n/a	n/a	0	0	0
895.522	n/a	WORD	447761	wordpools/wasnorm_wordpool_576.txt	LTP323	ltpFR2	5	4	BELLY	119	n/a	n/a	0	0	0
897.978	n/a	WORD	448989	wordpools/wasnorm_wordpool_576.txt	LTP323	ltpFR2	5	4	VENUS	1557	n/a	n/a	0	0	0
900.46	n/a	WORD	450230	wordpools/wasnorm_wordpool_576.txt	LTP323	ltpFR2	5	4	DIVER	476	n/a	n/a	0	0	0
902.946	n/a	WORD	451473	wordpools/wasnorm_wordpool_576.txt	LTP323	ltpFR2	5	4	BROOK	177	n/a	n/a	0	0	0
905.568	n/a	WORD	452784	wordpools/wasnorm_wordpool_576.txt	LTP323	ltpFR2	5	4	LADY	794	n/a	n/a	0	0	0
908.2	n/a	WORD	454100	wordpools/wasnorm_wordpool_576.txt	LTP323	ltpFR2	5	4	TERMITE	1451	n/a	n/a	0	0	0
910.936	n/a	WORD	455468	wordpools/wasnorm_wordpool_576.txt	LTP323	ltpFR2	5	4	LAVA	804	n/a	n/a	0	0	0
913.62	n/a	WORD	456810	wordpools/wasnorm_wordpool_576.txt	LTP323	ltpFR2	5	4	TART	1436	n/a	n/a	0	0	0
916.208	n/a	WORD	458104	wordpools/wasnorm_wordpool_576.txt	LTP323	ltpFR2	5	4	CHILD	299	n/a	n/a	0	0	0
918.81	n/a	WORD	459405	wordpools/wasnorm_wordpool_576.txt	LTP323	ltpFR2	5	4	BABY	64	n/a	n/a	0	0	0
921.294	n/a	WORD	460647	wordpools/wasnorm_wordpool_576.txt	LTP323	ltpFR2	5	4	MARKER	870	n/a	n/a	0	0	0
923.734	n/a	WORD	461867	wordpools/wasnorm_wordpool_576.txt	LTP323	ltpFR2	5	4	TOURIST	1488	n/a	n/a	0	0	0
926.42	n/a	WORD	463210	wordpools/wasnorm_wordpool_576.txt	LTP323	ltpFR2	5	4	PUPPY	1144	n/a	n/a	0	0	0
928.95	n/a	WORD	464475	wordpools/wasnorm_wordpool_576.txt	LTP323	ltpFR2	5	4	SLIME	1327	n/a	n/a	0	0	0
931.768	n/a	WORD	465884	wordpools/wasnorm_wordpool_576.txt	LTP323	ltpFR2	5	4	FRECKLE	602	n/a	n/a	0	0	0
934.242	n/a	WORD	467121	wordpools/wasnorm_wordpool_576.txt	LTP323	ltpFR2	5	4	SPARROW	1347	n/a	n/a	0	0	0
936.906	n/a	WORD	468453	wordpools/wasnorm_wordpool_576.txt	LTP323	ltpFR2	5	4	WOMAN	1620	n/a	n/a	0	0	0
939.674	n/a	WORD	469837	wordpools/wasnorm_wordpool_576.txt	LTP323	ltpFR2	5	4	ICEBERG	731	n/a	n/a	0	0	0
942.46	n/a	WORD	471230	wordpools/wasnorm_wordpool_576.txt	LTP323	ltpFR2	5	4	OINTMENT	974	n/a	n/a	0	0	0
945.252	n/a	WORD	472626	wordpools/wasnorm_wordpool_576.txt	LTP323	ltpFR2	5	4	CATCHER	258	n/a	n/a	0	0	0
947.936	n/a	WORD	473968	wordpools/wasnorm_wordpool_576.txt	LTP323	ltpFR2	5	4	PARTNER	1017	n/a	n/a	0	0	0
950.44	n/a	WORD	475220	wordpools/wasnorm_wordpool_576.txt	LTP323	ltpFR2	5	4	SOFTBALL	1343	n/a	n/a	0	0	0
952.986	n/a	WORD	476493	wordpools/wasnorm_wordpool_576.txt	LTP323	ltpFR2	5	4	POWDER	1117	n/a	n/a	0	0	0
954.594	n/a	START	477297	n/a	LTP323	ltpFR2	5	n/a	n/a	n/a	6	n/a	n/a	n/a	n/a
955.428	n/a	DISTRACTOR	477714	n/a	LTP323	ltpFR2	5	4	n/a	n/a	n/a	n/a	0	0	0
955.438	n/a	PROB	477719	n/a	LTP323	ltpFR2	5	n/a	n/a	n/a	6	23	7	9	7
959.196	n/a	PROB	479598	n/a	LTP323	ltpFR2	5	n/a	n/a	n/a	6	13	2	4	7
961.428	n/a	PROB	480714	n/a	LTP323	ltpFR2	5	n/a	n/a	n/a	6	16	4	6	6
964.498	n/a	PROB	482249	n/a	LTP323	ltpFR2	5	n/a	n/a	n/a	6	20	6	9	5
966.884	n/a	PROB	483442	n/a	LTP323	ltpFR2	5	n/a	n/a	n/a	6	11	1	1	9
968.42	n/a	PROB	484210	n/a	LTP323	ltpFR2	5	n/a	n/a	n/a	6	12	3	7	2
970.804	n/a	PROB	485402	n/a	LTP323	ltpFR2	5	n/a	n/a	n/a	6	10	8	1	1
972.222	n/a	PROB	486111	n/a	LTP323	ltpFR2	5	n/a	n/a	n/a	6	18	8	1	9
974.424	n/a	PROB	487212	n/a	LTP323	ltpFR2	5	n/a	n/a	n/a	6	17	6	7	4
978.594	n/a	STOP	489297	n/a	LTP323	ltpFR2	5	n/a	n/a	n/a	6	n/a	n/a	n/a	n/a
980.396	n/a	REC_START	490198	n/a	LTP323	ltpFR2	5	4	n/a	n/a	n/a	n/a	0	0	0
982.258	n/a	REC_WORD	491129	wordpools/wasnorm_wordpool_576.txt	LTP323	ltpFR2	5	4	SAUSAGE	1238	n/a	n/a	0	0	0
983.082	n/a	REC_WORD	491541	wordpools/wasnorm_wordpool_576.txt	LTP323	ltpFR2	5	4	PUPPY	1144	n/a	n/a	0	0	0
983.79	n/a	REC_WORD	491895	wordpools/wasnorm_wordpool_576.txt	LTP323	ltpFR2	5	4	BELLY	119	n/a	n/a	0	0	0
985.782	n/a	REC_WORD	492891	wordpools/wasnorm_wordpool_576.txt	LTP323	ltpFR2	5	4	LADY	794	n/a	n/a	0	0	0
986.55	n/a	REC_WORD	493275	wordpools/wasnorm_wordpool_576.txt	LTP323	ltpFR2	5	4	VENUS	1557	n/a	n/a	0	0	0
987.55	n/a	REC_WORD_VV	493775	wordpools/wasnorm_wordpool_576.txt	LTP323	ltpFR2	5	4	<>	-1	n/a	n/a	0	0	0
987.906	n/a	REC_WORD	493953	wordpools/wasnorm_wordpool_576.txt	LTP323	ltpFR2	5	4	WOMAN	1620	n/a	n/a	0	0	0
988.606	n/a	REC_WORD	494303	wordpools/wasnorm_wordpool_576.txt	LTP323	ltpFR2	5	4	DIVER	476	n/a	n/a	0	0	0
989.974	n/a	REC_WORD	494987	wordpools/wasnorm_wordpool_576.txt	LTP323	ltpFR2	5	4	BROOK	177	n/a	n/a	0	0	0
991.654	n/a	REC_WORD	495827	wordpools/wasnorm_wordpool_576.txt	LTP323	ltpFR2	5	4	LAVA	804	n/a	n/a	0	0	0
993.676	n/a	REC_WORD	496838	wordpools/wasnorm_wordpool_576.txt	LTP323	ltpFR2	5	4	CHILD	299	n/a	n/a	0	0	0
994.408	n/a	REC_WORD	497204	wordpools/wasnorm_wordpool_576.txt	LTP323	ltpFR2	5	4	BABY	64	n/a	n/a	0	0	0
995.512	n/a	REC_WORD	497756	wordpools/wasnorm_wordpool_576.txt	LTP323	ltpFR2	5	4	OINTMENT	974	n/a	n/a	0	0	0
997.044	n/a	REC_WORD	498522	wordpools/wasnorm_wordpool_576.txt	LTP323	ltpFR2	5	4	POWDER	1117	n/a	n/a	0	0	0
997.898	n/a	REC_WORD	498949	wordpools/wasnorm_wordpool_576.txt	LTP323	ltpFR2	5	4	MARKER	870	n/a	n/a	0	0	0
1002.002	n/a	REC_WORD	501001	wordpools/wasnorm_wordpool_576.txt	LTP323	ltpFR2	5	4	TART	1436	n/a	n/a	0	0	0
1003.092	n/a	REC_WORD	501546	wordpools/wasnorm_wordpool_576.txt	LTP323	ltpFR2	5	4	FRECKLE	602	n/a	n/a	0	0	0
1004.01	n/a	REC_WORD	502005	wordpools/wasnorm_wordpool_576.txt	LTP323	ltpFR2	5	4	SLIME	1327	n/a	n/a	0	0	0
1009.032	n/a	REC_WORD	504516	wordpools/wasnorm_wordpool_576.txt	LTP323	ltpFR2	5	4	SOFTBALL	1343	n/a	n/a	0	0	0
1009.886	n/a	REC_WORD	504943	wordpools/wasnorm_wordpool_576.txt	LTP323	ltpFR2	5	4	CATCHER	258	n/a	n/a	0	0	0
1014.936	n/a	REC_WORD	507468	wordpools/wasnorm_wordpool_576.txt	LTP323	ltpFR2	5	4	PARTNER	1017	n/a	n/a	0	0	0
1070.874	n/a	WORD	535437	wordpools/wasnorm_wordpool_576.txt	LTP323	ltpFR2	5	5	KITCHEN	778	n/a	n/a	0	0	0
1073.462	n/a	WORD	536731	wordpools/wasnorm_wordpool_576.txt	LTP323	ltpFR2	5	5	CATTLE	261	n/a	n/a	0	0	0
1075.982	n/a	WORD	537991	wordpools/wasnorm_wordpool_576.txt	LTP323	ltpFR2	5	5	PLIERS	1089	n/a	n/a	0	0	0
1078.516	n/a	WORD	539258	wordpools/wasnorm_wordpool_576.txt	LTP323	ltpFR2	5	5	QUARTER	1148	n/a	n/a	0	0	0
1081.236	n/a	WORD	540618	wordpools/wasnorm_wordpool_576.txt	LTP323	ltpFR2	5	5	POCKET	1093	n/a	n/a	0	0	0
1083.704	n/a	WORD	541852	wordpools/wasnorm_wordpool_576.txt	LTP323	ltpFR2	5	5	OZONE	996	n/a	n/a	0	0	0
1086.192	n/a	WORD	543096	wordpools/wasnorm_wordpool_576.txt	LTP323	ltpFR2	5	5	OX	994	n/a	n/a	0	0	0
1088.994	n/a	WORD	544497	wordpools/wasnorm_wordpool_576.txt	LTP323	ltpFR2	5	5	COMPASS	358	n/a	n/a	0	0	0
1091.594	n/a	WORD	545797	wordpools/wasnorm_wordpool_576.txt	LTP323	ltpFR2	5	5	STAR	1373	n/a	n/a	0	0	0
1094.314	n/a	WORD	547157	wordpools/wasnorm_wordpool_576.txt	LTP323	ltpFR2	5	5	TWISTER	1530	n/a	n/a	0	0	0
1096.85	n/a	WORD	548425	wordpools/wasnorm_wordpool_576.txt	LTP323	ltpFR2	5	5	SIBLING	1301	n/a	n/a	0	0	0
1099.652	n/a	WORD	549826	wordpools/wasnorm_wordpool_576.txt	LTP323	ltpFR2	5	5	TEMPLE	1448	n/a	n/a	0	0	0
1102.354	n/a	WORD	551177	wordpools/wasnorm_wordpool_576.txt	LTP323	ltpFR2	5	5	NURSE	963	n/a	n/a	0	0	0
1104.872	n/a	WORD	552436	wordpools/wasnorm_wordpool_576.txt	LTP323	ltpFR2	5	5	TURNIP	1521	n/a	n/a	0	0	0
1107.574	n/a	WORD	553787	wordpools/wasnorm_wordpool_576.txt	LTP323	ltpFR2	5	5	PARSLEY	1016	n/a	n/a	0	0	0
1110.026	n/a	WORD	555013	wordpools/wasnorm_wordpool_576.txt	LTP323	ltpFR2	5	5	RECORD	1176	n/a	n/a	0	0	0
1112.728	n/a	WORD	556364	wordpools/wasnorm_wordpool_576.txt	LTP323	ltpFR2	5	5	NEUTRON	947	n/a	n/a	0	0	0
1115.214	n/a	WORD	557607	wordpools/wasnorm_wordpool_576.txt	LTP323	ltpFR2	5	5	MARS	873	n/a	n/a	0	0	0
1117.932	n/a	WORD	558966	wordpools/wasnorm_wordpool_576.txt	LTP323	ltpFR2	5	5	SKILLET	1317	n/a	n/a	0	0	0
1120.686	n/a	WORD	560343	wordpools/wasnorm_wordpool_576.txt	LTP323	ltpFR2	5	5	BRANCH	168	n/a	n/a	0	0	0
1123.488	n/a	WORD	561744	wordpools/wasnorm_wordpool_576.txt	LTP323	ltpFR2	5	5	FRANCE	601	n/a	n/a	0	0	0
1126.306	n/a	WORD	563153	wordpools/wasnorm_wordpool_576.txt	LTP323	ltpFR2	5	5	LONDON	843	n/a	n/a	0	0	0
1129.108	n/a	WORD	564554	wordpools/wasnorm_wordpool_576.txt	LTP323	ltpFR2	5	5	SHELF	1280	n/a	n/a	0	0	0
1131.762	n/a	WORD	565881	wordpools/wasnorm_wordpool_576.txt	LTP323	ltpFR2	5	5	FEMALE	559	n/a	n/a	0	0	0
1133.378	n/a	START	566689	n/a	LTP323	ltpFR2	5	n/a	n/a	n/a	7	n/a	n/a	n/a	n/a
1134.372	n/a	DISTRACTOR	567186	n/a	LTP323	ltpFR2	5	5	n/a	n/a	n/a	n/a	0	0	0
1134.378	n/a	PROB	567189	n/a	LTP323	ltpFR2	5	n/a	n/a	n/a	7	16	5	3	8
1136.676	n/a	PROB	568338	n/a	LTP323	ltpFR2	5	n/a	n/a	n/a	7	8	4	2	2
1138.362	n/a	PROB	569181	n/a	LTP323	ltpFR2	5	n/a	n/a	n/a	7	9	6	2	1
1140.184	n/a	PROB	570092	n/a	LTP323	ltpFR2	5	n/a	n/a	n/a	7	6	2	3	1
1142.368	n/a	PROB	571184	n/a	LTP323	ltpFR2	5	n/a	n/a	n/a	7	18	9	6	3
1143.984	n/a	PROB	571992	n/a	LTP323	ltpFR2	5	n/a	n/a	n/a	7	26	9	8	9
1146.268	n/a	PROB	573134	n/a	LTP323	ltpFR2	5	n/a	n/a	n/a	7	17	6	6	5
1148.606	n/a	PROB	574303	n/a	LTP323	ltpFR2	5	n/a	n/a	n/a	7	6	1	1	4
1150.94	n/a	PROB	575470	n/a	LTP323	ltpFR2	5	n/a	n/a	n/a	7	13	4	5	4
1153.258	n/a	PROB	576629	n/a	LTP323	ltpFR2	5	n/a	n/a	n/a	7	5	1	2	2
1154.892	n/a	PROB	577446	n/a	LTP323	ltpFR2	5	n/a	n/a	n/a	7	11	5	1	5
1156.344	n/a	STOP	578172	n/a	LTP323	ltpFR2	5	n/a	n/a	n/a	7	n/a	n/a	n/a	n/a
1159.146	n/a	REC_START	579573	n/a	LTP323	ltpFR2	5	5	n/a	n/a	n/a	n/a	0	0	0
1160.56	n/a	REC_WORD	580280	wordpools/wasnorm_wordpool_576.txt	LTP323	ltpFR2	5	5	KITCHEN	778	n/a	n/a	0	0	0
1161.33	n/a	REC_WORD	580665	wordpools/wasnorm_wordpool_576.txt	LTP323	ltpFR2	5	5	SKILLET	1317	n/a	n/a	0	0	0
1162.276	n/a	REC_WORD	581138	wordpools/wasnorm_wordpool_576.txt	LTP323	ltpFR2	5	5	BRANCH	168	n/a	n/a	0	0	0
1162.85	n/a	REC_WORD	581425	wordpools/wasnorm_wordpool_576.txt	LTP323	ltpFR2	5	5	PARSLEY	1016	n/a	n/a	0	0	0
1163.674	n/a	REC_WORD	581837	wordpools/wasnorm_wordpool_576.txt	LTP323	ltpFR2	5	5	FRANCE	601	n/a	n/a	0	0	0
1164.534	n/a	REC_WORD	582267	wordpools/wasnorm_wordpool_576.txt	LTP323	ltpFR2	5	5	LONDON	843	n/a	n/a	0	0	0
1166.486	n/a	REC_WORD	583243	wordpools/wasnorm_wordpool_576.txt	LTP323	ltpFR2	5	5	NURSE	963	n/a	n/a	0	0	0
1168.636	n/a	REC_WORD	584318	wordpools/wasnorm_wordpool_576.txt	LTP323	ltpFR2	5	5	TURNIP	1521	n/a	n/a	0	0	0
1170.5	n/a	REC_WORD	585250	wordpools/wasnorm_wordpool_576.txt	LTP323	ltpFR2	5	5	TWISTER	1530	n/a	n/a	0	0	0
1171.462	n/a	REC_WORD	585731	wordpools/wasnorm_wordpool_576.txt	LTP323	ltpFR2	5	5	SIBLING	1301	n/a	n/a	0	0	0
1172.468	n/a	REC_WORD	586234	wordpools/wasnorm_wordpool_576.txt	LTP323	ltpFR2	5	5	TEMPLE	1448	n/a	n/a	0	0	0
1176.708	n/a	REC_WORD	588354	wordpools/wasnorm_wordpool_576.txt	LTP323	ltpFR2	5	5	CATTLE	261	n/a	n/a	0	0	0
1177.226	n/a	REC_WORD	588613	wordpools/wasnorm_wordpool_576.txt	LTP323	ltpFR2	5	5	OX	994	n/a	n/a	0	0	0
1178.322	n/a	REC_WORD	589161	wordpools/wasnorm_wordpool_576.txt	LTP323	ltpFR2	5	5	PLIERS	1089	n/a	n/a	0	0	0
1179.194	n/a	REC_WORD	589597	wordpools/wasnorm_wordpool_576.txt	LTP323	ltpFR2	5	5	QUARTER	1148	n/a	n/a	0	0	0
1180.466	n/a	REC_WORD	590233	wordpools/wasnorm_wordpool_576.txt	LTP323	ltpFR2	5	5	QUARTER	1148	n/a	n/a	0	0	0
1182.008	n/a	REC_WORD	591004	wordpools/wasnorm_wordpool_576.txt	LTP323	ltpFR2	5	5	POCKET	1093	n/a	n/a	0	0	0
1187.328	n/a	REC_WORD	593664	wordpools/wasnorm_wordpool_576.txt	LTP323	ltpFR2	5	5	STAR	1373	n/a	n/a	0	0	0
1188.43	n/a	REC_WORD	594215	wordpools/wasnorm_wordpool_576.txt	LTP323	ltpFR2	5	5	COMPASS	358	n/a	n/a	0	0	0
1189.43	n/a	REC_WORD_VV	594715	wordpools/wasnorm_wordpool_576.txt	LTP323	ltpFR2	5	5	<>	-1	n/a	n/a	0	0	0
1190.216	n/a	REC_WORD	595108	wordpools/wasnorm_wordpool_576.txt	LTP323	ltpFR2	5	5	OZONE	996	n/a	n/a	0	0	0
1191.566	n/a	REC_WORD	595783	wordpools/wasnorm_wordpool_576.txt	LTP323	ltpFR2	5	5	CLOUD	328	n/a	n/a	0	0	0
1192.476	n/a	REC_WORD	596238	wordpools/wasnorm_wordpool_576.txt	LTP323	ltpFR2	5	5	MARS	873	n/a	n/a	0	0	0
1193.444	n/a	REC_WORD	596722	wordpools/wasnorm_wordpool_576.txt	LTP323	ltpFR2	5	5	NEUTRON	947	n/a	n/a	0	0	0
1198.618	n/a	REC_WORD	599309	wordpools/wasnorm_wordpool_576.txt	LTP323	ltpFR2	5	5	TWISTER	1530	n/a	n/a	0	0	0
1224.188	n/a	REC_WORD	612094	wordpools/wasnorm_wordpool_576.txt	LTP323	ltpFR2	5	5	BRANCH	168	n/a	n/a	0	0	0
1226.862	n/a	REC_WORD	613431	wordpools/wasnorm_wordpool_576.txt	LTP323	ltpFR2	5	5	PARSLEY	1016	n/a	n/a	0	0	0
1249.594	n/a	WORD	624797	wordpools/wasnorm_wordpool_576.txt	LTP323	ltpFR2	5	6	GALLON	618	n/a	n/a	0	0	0
1252.156	n/a	WORD	626078	wordpools/wasnorm_wordpool_576.txt	LTP323	ltpFR2	5	6	BUBBLE	183	n/a	n/a	0	0	0
1254.674	n/a	WORD	627337	wordpools/wasnorm_wordpool_576.txt	LTP323	ltpFR2	5	6	BATHTUB	100	n/a	n/a	0	0	0
1257.41	n/a	WORD	628705	wordpools/wasnorm_wordpool_576.txt	LTP323	ltpFR2	5	6	SHORTCAKE	1292	n/a	n/a	0	0	0
1260.108	n/a	WORD	630054	wordpools/wasnorm_wordpool_576.txt	LTP323	ltpFR2	5	6	CHIPMUNK	304	n/a	n/a	0	0	0
1262.842	n/a	WORD	631421	wordpools/wasnorm_wordpool_576.txt	LTP323	ltpFR2	5	6	NECKLACE	940	n/a	n/a	0	0	0
1265.55	n/a	WORD	632775	wordpools/wasnorm_wordpool_576.txt	LTP323	ltpFR2	5	6	MAILBOX	857	n/a	n/a	0	0	0
1268.014	n/a	WORD	634007	wordpools/wasnorm_wordpool_576.txt	LTP323	ltpFR2	5	6	MACHINE	852	n/a	n/a	0	0	0
1270.448	n/a	WORD	635224	wordpools/wasnorm_wordpool_576.txt	LTP323	ltpFR2	5	6	TYPIST	1532	n/a	n/a	0	0	0
1273.2	n/a	WORD	636600	wordpools/wasnorm_wordpool_576.txt	LTP323	ltpFR2	5	6	RECEIPT	1173	n/a	n/a	0	0	0
1275.636	n/a	WORD	637818	wordpools/wasnorm_wordpool_576.txt	LTP323	ltpFR2	5	6	MONEY	908	n/a	n/a	0	0	0
1278.438	n/a	WORD	639219	wordpools/wasnorm_wordpool_576.txt	LTP323	ltpFR2	5	6	UNCLE	1536	n/a	n/a	0	0	0
1280.992	n/a	WORD	640496	wordpools/wasnorm_wordpool_576.txt	LTP323	ltpFR2	5	6	OFFICE	972	n/a	n/a	0	0	0
1283.71	n/a	WORD	641855	wordpools/wasnorm_wordpool_576.txt	LTP323	ltpFR2	5	6	BEAKER	104	n/a	n/a	0	0	0
1286.412	n/a	WORD	643206	wordpools/wasnorm_wordpool_576.txt	LTP323	ltpFR2	5	6	SLUG	1329	n/a	n/a	0	0	0
1289.132	n/a	WORD	644566	wordpools/wasnorm_wordpool_576.txt	LTP323	ltpFR2	5	6	PARENT	1013	n/a	n/a	0	0	0
1291.952	n/a	WORD	645976	wordpools/wasnorm_wordpool_576.txt	LTP323	ltpFR2	5	6	CHURCH	307	n/a	n/a	0	0	0
1294.452	n/a	WORD	647226	wordpools/wasnorm_wordpool_576.txt	LTP323	ltpFR2	5	6	BUCKET	184	n/a	n/a	0	0	0
1296.956	n/a	WORD	648478	wordpools/wasnorm_wordpool_576.txt	LTP323	ltpFR2	5	6	COSTUME	383	n/a	n/a	0	0	0
1299.574	n/a	WORD	649787	wordpools/wasnorm_wordpool_576.txt	LTP323	ltpFR2	5	6	EYELASH	546	n/a	n/a	0	0	0
1302.31	n/a	WORD	651155	wordpools/wasnorm_wordpool_576.txt	LTP323	ltpFR2	5	6	NOVEL	960	n/a	n/a	0	0	0
1305.046	n/a	WORD	652523	wordpools/wasnorm_wordpool_576.txt	LTP323	ltpFR2	5	6	PEACH	1031	n/a	n/a	0	0	0
1307.514	n/a	WORD	653757	wordpools/wasnorm_wordpool_576.txt	LTP323	ltpFR2	5	6	IDOL	733	n/a	n/a	0	0	0
1310.116	n/a	WORD	655058	wordpools/wasnorm_wordpool_576.txt	LTP323	ltpFR2	5	6	JUNGLE	764	n/a	n/a	0	0	0
1311.734	n/a	START	655867	n/a	LTP323	ltpFR2	5	n/a	n/a	n/a	8	n/a	n/a	n/a	n/a
1312.552	n/a	DISTRACTOR	656276	n/a	LTP323	ltpFR2	5	6	n/a	n/a	n/a	n/a	0	0	0
1312.568	n/a	PROB	656284	n/a	LTP323	ltpFR2	5	n/a	n/a	n/a	8	17	7	6	4
1315.102	n/a	PROB	657551	n/a	LTP323	ltpFR2	5	n/a	n/a	n/a	8	15	9	4	2
1319.086	n/a	PROB	659543	n/a	LTP323	ltpFR2	5	n/a	n/a	n/a	8	16	1	7	8
1320.956	n/a	PROB	660478	n/a	LTP323	ltpFR2	5	n/a	n/a	n/a	8	20	3	8	9
1324.994	n/a	PROB	662497	n/a	LTP323	ltpFR2	5	n/a	n/a	n/a	8	19	6	7	6
1328.746	n/a	PROB	664373	n/a	LTP323	ltpFR2	5	n/a	n/a	n/a	8	15	7	3	5
1330.798	n/a	PROB	665399	n/a	LTP323	ltpFR2	5	n/a	n/a	n/a	8	9	2	4	3
1332.564	n/a	PROB	666282	n/a	LTP323	ltpFR2	5	n/a	n/a	n/a	8	12	2	5	5
1333.988	n/a	PROB	666994	n/a	LTP323	ltpFR2	5	n/a	n/a	n/a	8	19	6	4	9
1335.51	n/a	STOP	667755	n/a	LTP323	ltpFR2	5	n/a	n/a	n/a	8	n/a	n/a	n/a	n/a
1337.654	n/a	REC_START	668827	n/a	LTP323	ltpFR2	5	6	n/a	n/a	n/a	n/a	0	0	0
1338.368	n/a	REC_WORD	669184	wordpools/wasnorm_wordpool_576.txt	LTP323	ltpFR2	5	6	BEAKER	104	n/a	n/a	0	0	0
1338.808	n/a	REC_WORD	669404	wordpools/wasnorm_wordpool_576.txt	LTP323	ltpFR2	5	6	SLUG	1329	n/a	n/a	0	0	0
1340.15	n/a	REC_WORD	670075	wordpools/wasnorm_wordpool_576.txt	LTP323	ltpFR2	5	6	OFFICE	972	n/a	n/a	0	0	0
1340.868	n/a	REC_WORD	670434	wordpools/wasnorm_wordpool_576.txt	LTP323	ltpFR2	5	6	TYPIST	1532	n/a	n/a	0	0	0
1341.586	n/a	REC_WORD	670793	wordpools/wasnorm_wordpool_576.txt	LTP323	ltpFR2	5	6	RECEIPT	1173	n/a	n/a	0	0	0
1342.688	n/a	REC_WORD	671344	wordpools/wasnorm_wordpool_576.txt	LTP323	ltpFR2	5	6	UNCLE	1536	n/a	n/a	0	0	0
1343.294	n/a	REC_WORD	671647	wordpools/wasnorm_wordpool_576.txt	LTP323	ltpFR2	5	6	COSTUME	383	n/a	n/a	0	0	0
1343.982	n/a	REC_WORD	671991	wordpools/wasnorm_wordpool_576.txt	LTP323	ltpFR2	5	6	EYELASH	546	n/a	n/a	0	0	0
1344.918	n/a	REC_WORD	672459	wordpools/wasnorm_wordpool_576.txt	LTP323	ltpFR2	5	6	PARENT	1013	n/a	n/a	0	0	0
1345.502	n/a	REC_WORD	672751	wordpools/wasnorm_wordpool_576.txt	LTP323	ltpFR2	5	6	CHURCH	307	n/a	n/a	0	0	0
1348.536	n/a	REC_WORD	674268	wordpools/wasnorm_wordpool_576.txt	LTP323	ltpFR2	5	6	BATHTUB	100	n/a	n/a	0	0	0
1349.536	n/a	REC_WORD_VV	674768	wordpools/wasnorm_wordpool_576.txt	LTP323	ltpFR2	5	6	<>	-1	n/a	n/a	0	0	0
1349.982	n/a	REC_WORD	674991	wordpools/wasnorm_wordpool_576.txt	LTP323	ltpFR2	5	6	GALLON	618	n/a	n/a	0	0	0
1350.826	n/a	REC_WORD	675413	wordpools/wasnorm_wordpool_576.txt	LTP323	ltpFR2	5	6	BUCKET	184	n/a	n/a	0	0	0
1351.852	n/a	REC_WORD	675926	wordpools/wasnorm_wordpool_576.txt	LTP323	ltpFR2	5	6	BUBBLE	183	n/a	n/a	0	0	0
1353.612	n/a	REC_WORD	676806	wordpools/wasnorm_wordpool_576.txt	LTP323	ltpFR2	5	6	MACHINE	852	n/a	n/a	0	0	0
1355.356	n/a	REC_WORD	677678	wordpools/wasnorm_wordpool_576.txt	LTP323	ltpFR2	5	6	MONEY	908	n/a	n/a	0	0	0
1357.092	n/a	REC_WORD	678546	wordpools/wasnorm_wordpool_576.txt	LTP323	ltpFR2	5	6	PEACH	1031	n/a	n/a	0	0	0
1357.84	n/a	REC_WORD	678920	wordpools/wasnorm_wordpool_576.txt	LTP323	ltpFR2	5	6	SHORTCAKE	1292	n/a	n/a	0	0	0
1358.84	n/a	REC_WORD_VV	679420	wordpools/wasnorm_wordpool_576.txt	LTP323	ltpFR2	5	6	<>	-1	n/a	n/a	0	0	0
1359.108	n/a	REC_WORD	679554	wordpools/wasnorm_wordpool_576.txt	LTP323	ltpFR2	5	6	CHIPMUNK	304	n/a	n/a	0	0	0
1361.762	n/a	REC_WORD	680881	wordpools/wasnorm_wordpool_576.txt	LTP323	ltpFR2	5	6	NOVEL	960	n/a	n/a	0	0	0
1363.07	n/a	REC_WORD	681535	wordpools/wasnorm_wordpool_576.txt	LTP323	ltpFR2	5	6	NECKLACE	940	n/a	n/a	0	0	0
1365.68	n/a	REC_WORD	682840	wordpools/wasnorm_wordpool_576.txt	LTP323	ltpFR2	5	6	FRECKLE	602	n/a	n/a	0	0	0
1370.886	n/a	REC_WORD	685443	wordpools/wasnorm_wordpool_576.txt	LTP323	ltpFR2	5	6	SLUG	1329	n/a	n/a	0	0	0
1378.944	n/a	REC_WORD	689472	wordpools/wasnorm_wordpool_576.txt	LTP323	ltpFR2	5	6	MAILBOX	857	n/a	n/a	0	0	0
1379.944	n/a	REC_WORD_VV	689972	wordpools/wasnorm_wordpool_576.txt	LTP323	ltpFR2	5	6	<>	-1	n/a	n/a	0	0	0
1380.82	n/a	REC_WORD_VV	690410	wordpools/wasnorm_wordpool_576.txt	LTP323	ltpFR2	5	6	<>	-1	n/a	n/a	0	0	0
1428.116	n/a	WORD	714058	wordpools/wasnorm_wordpool_576.txt	LTP323	ltpFR2	5	7	THIEF	1456	n/a	n/a	0	0	0
1430.832	n/a	WORD	715416	wordpools/wasnorm_wordpool_576.txt	LTP323	ltpFR2	5	7	LAGOON	795	n/a	n/a	0	0	0
1433.306	n/a	WORD	716653	wordpools/wasnorm_wordpool_576.txt	LTP323	ltpFR2	5	7	WASP	1593	n/a	n/a	0	0	0
1435.734	n/a	WORD	717867	wordpools/wasnorm_wordpool_576.txt	LTP323	ltpFR2	5	7	TWEEZERS	1526	n/a	n/a	0	0	0
1438.236	n/a	WORD	719118	wordpools/wasnorm_wordpool_576.txt	LTP323	ltpFR2	5	7	FLIPPER	580	n/a	n/a	0	0	0
1441.022	n/a	WORD	720511	wordpools/wasnorm_wordpool_576.txt	LTP323	ltpFR2	5	7	MAMMAL	861	n/a	n/a	0	0	0
1443.564	n/a	WORD	721782	wordpools/wasnorm_wordpool_576.txt	LTP323	ltpFR2	5	7	SIDEWALK	1303	n/a	n/a	0	0	0
1446.326	n/a	WORD	723163	wordpools/wasnorm_wordpool_576.txt	LTP323	ltpFR2	5	7	ROBIN	1199	n/a	n/a	0	0	0
1448.752	n/a	WORD	724376	wordpools/wasnorm_wordpool_576.txt	LTP323	ltpFR2	5	7	IGLOO	734	n/a	n/a	0	0	0
1451.286	n/a	WORD	725643	wordpools/wasnorm_wordpool_576.txt	LTP323	ltpFR2	5	7	DASHBOARD	441	n/a	n/a	0	0	0
1454.04	n/a	WORD	727020	wordpools/wasnorm_wordpool_576.txt	LTP323	ltpFR2	5	7	DOLPHIN	483	n/a	n/a	0	0	0
1456.792	n/a	WORD	728396	wordpools/wasnorm_wordpool_576.txt	LTP323	ltpFR2	5	7	MUSTARD	935	n/a	n/a	0	0	0
1459.32	n/a	WORD	729660	wordpools/wasnorm_wordpool_576.txt	LTP323	ltpFR2	5	7	CYCLONE	431	n/a	n/a	0	0	0
1462.064	n/a	WORD	731032	wordpools/wasnorm_wordpool_576.txt	LTP323	ltpFR2	5	7	SLIDE	1326	n/a	n/a	0	0	0
1464.866	n/a	WORD	732433	wordpools/wasnorm_wordpool_576.txt	LTP323	ltpFR2	5	7	PUDDING	1139	n/a	n/a	0	0	0
1467.402	n/a	WORD	733701	wordpools/wasnorm_wordpool_576.txt	LTP323	ltpFR2	5	7	KLEENEX	782	n/a	n/a	0	0	0
1470.122	n/a	WORD	735061	wordpools/wasnorm_wordpool_576.txt	LTP323	ltpFR2	5	7	STUDENT	1395	n/a	n/a	0	0	0
1472.84	n/a	WORD	736420	wordpools/wasnorm_wordpool_576.txt	LTP323	ltpFR2	5	7	COLLEGE	346	n/a	n/a	0	0	0
1475.366	n/a	WORD	737683	wordpools/wasnorm_wordpool_576.txt	LTP323	ltpFR2	5	7	HIGHWAY	707	n/a	n/a	0	0	0
1477.826	n/a	WORD	738913	wordpools/wasnorm_wordpool_576.txt	LTP323	ltpFR2	5	7	RUST	1219	n/a	n/a	0	0	0
1480.628	n/a	WORD	740314	wordpools/wasnorm_wordpool_576.txt	LTP323	ltpFR2	5	7	PIGEON	1065	n/a	n/a	0	0	0
1483.264	n/a	WORD	741632	wordpools/wasnorm_wordpool_576.txt	LTP323	ltpFR2	5	7	DAUGHTER	442	n/a	n/a	0	0	0
1485.984	n/a	WORD	742992	wordpools/wasnorm_wordpool_576.txt	LTP323	ltpFR2	5	7	SISTER	1312	n/a	n/a	0	0	0
1488.452	n/a	WORD	744226	wordpools/wasnorm_wordpool_576.txt	LTP323	ltpFR2	5	7	BROTHER	179	n/a	n/a	0	0	0
1490.062	n/a	START	745031	n/a	LTP323	ltpFR2	5	n/a	n/a	n/a	9	n/a	n/a	n/a	n/a
1491.186	n/a	DISTRACTOR	745593	n/a	LTP323	ltpFR2	5	7	n/a	n/a	n/a	n/a	0	0	0
1491.196	n/a	PROB	745598	n/a	LTP323	ltpFR2	5	n/a	n/a	n/a	9	16	7	6	3
1493.288	n/a	PROB	746644	n/a	LTP323	ltpFR2	5	n/a	n/a	n/a	9	23	5	9	9
1495.556	n/a	PROB	747778	n/a	LTP323	ltpFR2	5	n/a	n/a	n/a	9	11	1	9	1
1496.908	n/a	PROB	748454	n/a	LTP323	ltpFR2	5	n/a	n/a	n/a	9	17	3	7	7
1499.226	n/a	PROB	749613	n/a	LTP323	ltpFR2	5	n/a	n/a	n/a	9	24	7	9	8
1502.562	n/a	PROB	751281	n/a	LTP323	ltpFR2	5	n/a	n/a	n/a	9	7	1	5	1
1503.982	n/a	PROB	751991	n/a	LTP323	ltpFR2	5	n/a	n/a	n/a	9	13	6	4	3
1505.782	n/a	PROB	752891	n/a	LTP323	ltpFR2	5	n/a	n/a	n/a	9	16	5	7	4
1508.134	n/a	PROB	754067	n/a	LTP323	ltpFR2	5	n/a	n/a	n/a	9	7	2	4	1
1510.722	n/a	PROB	755361	n/a	LTP323	ltpFR2	5	n/a	n/a	n/a	9	19	9	7	3
1512.336	n/a	PROB	756168	n/a	LTP323	ltpFR2	5	n/a	n/a	n/a	9	13	4	2	7
1513.972	n/a	STOP	756986	n/a	LTP323	ltpFR2	5	n/a	n/a	n/a	9	n/a	n/a	n/a	n/a
1515.978	n/a	REC_START	757989	n/a	LTP323	ltpFR2	5	7	n/a	n/a	n/a	n/a	0	0	0
1516.626	n/a	REC_WORD	758313	wordpools/wasnorm_wordpool_576.txt	LTP323	ltpFR2	5	7	PIGEON	1065	n/a	n/a	0	0	0
1517.058	n/a	REC_WORD	758529	wordpools/wasnorm_wordpool_576.txt	LTP323	ltpFR2	5	7	ROBIN	1199	n/a	n/a	0	0	0
1517.76	n/a	REC_WORD	758880	wordpools/wasnorm_wordpool_576.txt	LTP323	ltpFR2	5	7	DAUGHTER	442	n/a	n/a	0	0	0
1518.25	n/a	REC_WORD	759125	wordpools/wasnorm_wordpool_576.txt	LTP323	ltpFR2	5	7	SISTER	1312	n/a	n/a	0	0	0
1518.958	n/a	REC_WORD	759479	wordpools/wasnorm_wordpool_576.txt	LTP323	ltpFR2	5	7	BROTHER	179	n/a	n/a	0	0	0
1520.614	n/a	REC_WORD	760307	wordpools/wasnorm_wordpool_576.txt	LTP323	ltpFR2	5	7	SIDEWALK	1303	n/a	n/a	0	0	0
1521.46	n/a	REC_WORD	760730	wordpools/wasnorm_wordpool_576.txt	LTP323	ltpFR2	5	7	HIGHWAY	707	n/a	n/a	0	0	0
1522.356	n/a	REC_WORD	761178	wordpools/wasnorm_wordpool_576.txt	LTP323	ltpFR2	5	7	SLIDE	1326	n/a	n/a	0	0	0
1525.004	n/a	REC_WORD	762502	wordpools/wasnorm_wordpool_576.txt	LTP323	ltpFR2	5	7	RUST	1219	n/a	n/a	0	0	0
1527.536	n/a	REC_WORD	763768	wordpools/wasnorm_wordpool_576.txt	LTP323	ltpFR2	5	7	COLLEGE	346	n/a	n/a	0	0	0
1528.126	n/a	REC_WORD	764063	wordpools/wasnorm_wordpool_576.txt	LTP323	ltpFR2	5	7	STUDENT	1395	n/a	n/a	0	0	0
1528.856	n/a	REC_WORD	764428	wordpools/wasnorm_wordpool_576.txt	LTP323	ltpFR2	5	7	THIEF	1456	n/a	n/a	0	0	0
1529.912	n/a	REC_WORD	764956	wordpools/wasnorm_wordpool_576.txt	LTP323	ltpFR2	5	7	LAGOON	795	n/a	n/a	0	0	0
1531.83	n/a	REC_WORD	765915	wordpools/wasnorm_wordpool_576.txt	LTP323	ltpFR2	5	7	TWEEZERS	1526	n/a	n/a	0	0	0
1532.83	n/a	REC_WORD_VV	766415	wordpools/wasnorm_wordpool_576.txt	LTP323	ltpFR2	5	7	<>	-1	n/a	n/a	0	0	0
1539.09	n/a	REC_WORD	769545	wordpools/wasnorm_wordpool_576.txt	LTP323	ltpFR2	5	7	DOLPHIN	483	n/a	n/a	0	0	0
1539.694	n/a	REC_WORD	769847	wordpools/wasnorm_wordpool_576.txt	LTP323	ltpFR2	5	7	MAMMAL	861	n/a	n/a	0	0	0
1540.392	n/a	REC_WORD	770196	wordpools/wasnorm_wordpool_576.txt	LTP323	ltpFR2	5	7	FLIPPER	580	n/a	n/a	0	0	0
1556.192	n/a	REC_WORD	778096	wordpools/wasnorm_wordpool_576.txt	LTP323	ltpFR2	5	7	CYCLONE	431	n/a	n/a	0	0	0
1570.862	n/a	REC_WORD	785431	wordpools/wasnorm_wordpool_576.txt	LTP323	ltpFR2	5	7	KLEENEX	782	n/a	n/a	0	0	0
1576.752	n/a	REC_WORD	788376	wordpools/wasnorm_wordpool_576.txt	LTP323	ltpFR2	5	7	PEACH	1031	n/a	n/a	0	0	0
1606.436	n/a	DISTRACTOR	803218	n/a	LTP323	ltpFR2	5	8	n/a	n/a	n/a	n/a	0	0	0
1606.436	n/a	START	803218	n/a	LTP323	ltpFR2	5	n/a	n/a	n/a	10	n/a	n/a	n/a	n/a
1606.454	n/a	PROB	803227	n/a	LTP323	ltpFR2	5	n/a	n/a	n/a	10	18	6	8	4
1608.502	n/a	PROB	804251	n/a	LTP323	ltpFR2	5	n/a	n/a	n/a	10	12	3	6	3
1610.688	n/a	PROB	805344	n/a	LTP323	ltpFR2	5	n/a	n/a	n/a	10	15	4	9	2
1613.01	n/a	PROB	806505	n/a	LTP323	ltpFR2	5	n/a	n/a	n/a	10	20	8	4	8
1615.44	n/a	PROB	807720	n/a	LTP323	ltpFR2	5	n/a	n/a	n/a	10	12	5	1	6
1617.326	n/a	PROB	808663	n/a	LTP323	ltpFR2	5	n/a	n/a	n/a	10	17	7	9	1
1619.358	n/a	PROB	809679	n/a	LTP323	ltpFR2	5	n/a	n/a	n/a	10	19	9	8	2
1621.028	n/a	PROB	810514	n/a	LTP323	ltpFR2	5	n/a	n/a	n/a	10	13	2	4	7
1623.096	n/a	PROB	811548	n/a	LTP323	ltpFR2	5	n/a	n/a	n/a	10	18	8	3	7
1624.986	n/a	PROB	812493	n/a	LTP323	ltpFR2	5	n/a	n/a	n/a	10	25	8	8	9
1629.112	n/a	STOP	814556	n/a	LTP323	ltpFR2	5	n/a	n/a	n/a	10	n/a	n/a	n/a	n/a
1631.606	n/a	WORD	815803	wordpools/wasnorm_wordpool_576.txt	LTP323	ltpFR2	5	8	TURTLE	1522	n/a	n/a	0	0	0
1634.324	n/a	WORD	817162	wordpools/wasnorm_wordpool_576.txt	LTP323	ltpFR2	5	8	BANK	83	n/a	n/a	0	0	0
1636.798	n/a	WORD	818399	wordpools/wasnorm_wordpool_576.txt	LTP323	ltpFR2	5	8	CLOTHES	327	n/a	n/a	0	0	0
1639.366	n/a	WORD	819683	wordpools/wasnorm_wordpool_576.txt	LTP323	ltpFR2	5	8	PLAZA	1088	n/a	n/a	0	0	0
1642.116	n/a	WORD	821058	wordpools/wasnorm_wordpool_576.txt	LTP323	ltpFR2	5	8	HERO	706	n/a	n/a	0	0	0
1644.716	n/a	WORD	822358	wordpools/wasnorm_wordpool_576.txt	LTP323	ltpFR2	5	8	SWITCH	1422	n/a	n/a	0	0	0
1647.522	n/a	WORD	823761	wordpools/wasnorm_wordpool_576.txt	LTP323	ltpFR2	5	8	FREEZER	604	n/a	n/a	0	0	0
1650.286	n/a	WORD	825143	wordpools/wasnorm_wordpool_576.txt	LTP323	ltpFR2	5	8	ROCKET	1202	n/a	n/a	0	0	0
1653.012	n/a	WORD	826506	wordpools/wasnorm_wordpool_576.txt	LTP323	ltpFR2	5	8	CELLAR	267	n/a	n/a	0	0	0
1655.608	n/a	WORD	827804	wordpools/wasnorm_wordpool_576.txt	LTP323	ltpFR2	5	8	ZIPPER	1636	n/a	n/a	0	0	0
1658.244	n/a	WORD	829122	wordpools/wasnorm_wordpool_576.txt	LTP323	ltpFR2	5	8	JEANS	752	n/a	n/a	0	0	0
1660.98	n/a	WORD	830490	wordpools/wasnorm_wordpool_576.txt	LTP323	ltpFR2	5	8	GRILL	661	n/a	n/a	0	0	0
1663.42	n/a	WORD	831710	wordpools/wasnorm_wordpool_576.txt	LTP323	ltpFR2	5	8	TWIG	1527	n/a	n/a	0	0	0
1666.152	n/a	WORD	833076	wordpools/wasnorm_wordpool_576.txt	LTP323	ltpFR2	5	8	FLASHLIGHT	575	n/a	n/a	0	0	0
1668.904	n/a	WORD	834452	wordpools/wasnorm_wordpool_576.txt	LTP323	ltpFR2	5	8	PRINCE	1124	n/a	n/a	0	0	0
1671.644	n/a	WORD	835822	wordpools/wasnorm_wordpool_576.txt	LTP323	ltpFR2	5	8	PALACE	1006	n/a	n/a	0	0	0
1674.214	n/a	WORD	837107	wordpools/wasnorm_wordpool_576.txt	LTP323	ltpFR2	5	8	GUITAR	670	n/a	n/a	0	0	0
1677.01	n/a	WORD	838505	wordpools/wasnorm_wordpool_576.txt	LTP323	ltpFR2	5	8	VIRUS	1572	n/a	n/a	0	0	0
1679.484	n/a	WORD	839742	wordpools/wasnorm_wordpool_576.txt	LTP323	ltpFR2	5	8	SPACE	1345	n/a	n/a	0	0	0
1682.046	n/a	WORD	841023	wordpools/wasnorm_wordpool_576.txt	LTP323	ltpFR2	5	8	SCALLOP	1242	n/a	n/a	0	0	0
1684.538	n/a	WORD	842269	wordpools/wasnorm_wordpool_576.txt	LTP323	ltpFR2	5	8	BURGLAR	200	n/a	n/a	0	0	0
1687.142	n/a	WORD	843571	wordpools/wasnorm_wordpool_576.txt	LTP323	ltpFR2	5	8	COUNTY	389	n/a	n/a	0	0	0
1689.87	n/a	WORD	844935	wordpools/wasnorm_wordpool_576.txt	LTP323	ltpFR2	5	8	GARLIC	624	n/a	n/a	0	0	0
1692.544	n/a	WORD	846272	wordpools/wasnorm_wordpool_576.txt	LTP323	ltpFR2	5	8	BUTCHER	203	n/a	n/a	0	0	0
1694.156	n/a	START	847078	n/a	LTP323	ltpFR2	5	n/a	n/a	n/a	11	n/a	n/a	n/a	n/a
1695.168	n/a	DISTRACTOR	847584	n/a	LTP323	ltpFR2	5	8	n/a	n/a	n/a	n/a	0	0	0
1695.182	n/a	PROB	847591	n/a	LTP323	ltpFR2	5	n/a	n/a	n/a	11	9	1	6	2
1697.532	n/a	PROB	848766	n/a	LTP323	ltpFR2	5	n/a	n/a	n/a	11	8	3	1	4
1699.218	n/a	PROB	849609	n/a	LTP323	ltpFR2	5	n/a	n/a	n/a	11	17	1	7	9
1701.416	n/a	PROB	850708	n/a	LTP323	ltpFR2	5	n/a	n/a	n/a	11	16	4	7	5
1703.45	n/a	PROB	851725	n/a	LTP323	ltpFR2	5	n/a	n/a	n/a	11	23	7	7	9
1706.856	n/a	PROB	853428	n/a	LTP323	ltpFR2	5	n/a	n/a	n/a	11	10	1	4	5
1708.622	n/a	PROB	854311	n/a	LTP323	ltpFR2	5	n/a	n/a	n/a	11	10	4	5	1
1710.226	n/a	PROB	855113	n/a	LTP323	ltpFR2	5	n/a	n/a	n/a	11	21	4	8	9
1713.66	n/a	PROB	856830	n/a	LTP323	ltpFR2	5	n/a	n/a	n/a	11	13	4	4	5
1718.158	n/a	STOP	859079	n/a	LTP323	ltpFR2	5	n/a	n/a	n/a	11	n/a	n/a	n/a	n/a
1720.018	n/a	REC_START	860009	n/a	LTP323	ltpFR2	5	8	n/a	n/a	n/a	n/a	0	0	0
1720.586	n/a	REC_WORD	860293	wordpools/wasnorm_wordpool_576.txt	LTP323	ltpFR2	5	8	SCALLOP	1242	n/a	n/a	0	0	0
1721.356	n/a	REC_WORD	860678	wordpools/wasnorm_wordpool_576.txt	LTP323	ltpFR2	5	8	GARLIC	624	n/a	n/a	0	0	0
1721.914	n/a	REC_WORD	860957	wordpools/wasnorm_wordpool_576.txt	LTP323	ltpFR2	5	8	BUTCHER	203	n/a	n/a	0	0	0
1723.486	n/a	REC_WORD	861743	wordpools/wasnorm_wordpool_576.txt	LTP323	ltpFR2	5	8	COUNTY	389	n/a	n/a	0	0	0
1724.074	n/a	REC_WORD	862037	wordpools/wasnorm_wordpool_576.txt	LTP323	ltpFR2	5	8	PALACE	1006	n/a	n/a	0	0	0
1725.802	n/a	REC_WORD	862901	wordpools/wasnorm_wordpool_576.txt	LTP323	ltpFR2	5	8	PRINCE	1124	n/a	n/a	0	0	0
1726.714	n/a	REC_WORD	863357	wordpools/wasnorm_wordpool_576.txt	LTP323	ltpFR2	5	8	TWIG	1527	n/a	n/a	0	0	0
1728.082	n/a	REC_WORD	864041	wordpools/wasnorm_wordpool_576.txt	LTP323	ltpFR2	5	8	GRILL	661	n/a	n/a	0	0	0
1728.538	n/a	REC_WORD	864269	wordpools/wasnorm_wordpool_576.txt	LTP323	ltpFR2	5	8	FLASHLIGHT	575	n/a	n/a	0	0	0
1736.316	n/a	REC_WORD	868158	wordpools/wasnorm_wordpool_576.txt	LTP323	ltpFR2	5	8	BURGLAR	200	n/a	n/a	0	0	0
1738.666	n/a	REC_WORD	869333	wordpools/wasnorm_wordpool_576.txt	LTP323	ltpFR2	5	8	GUITAR	670	n/a	n/a	0	0	0
1739.174	n/a	REC_WORD	869587	wordpools/wasnorm_wordpool_576.txt	LTP323	ltpFR2	5	8	VIRUS	1572	n/a	n/a	0	0	0
1740.174	n/a	REC_WORD_VV	870087	wordpools/wasnorm_wordpool_576.txt	LTP323	ltpFR2	5	8	<>	-1	n/a	n/a	0	0	0
1796.568	n/a	REST_REWET	898284	n/a	LTP323	ltpFR2	5	8	n/a	n/a	n/a	n/a	0	0	0
2252.842	n/a	WORD	1126421	wordpools/wasnorm_wordpool_576.txt	LTP323	ltpFR2	5	9	BARLEY	88	n/a	n/a	0	0	0
2255.28	n/a	WORD	1127640	wordpools/wasnorm_wordpool_576.txt	LTP323	ltpFR2	5	9	TRENCH	1503	n/a	n/a	0	0	0
2257.902	n/a	WORD	1128951	wordpools/wasnorm_wordpool_576.txt	LTP323	ltpFR2	5	9	SCARF	1246	n/a	n/a	0	0	0
2260.384	n/a	WORD	1130192	wordpools/wasnorm_wordpool_576.txt	LTP323	ltpFR2	5	9	BARREL	91	n/a	n/a	0	0	0
2263.138	n/a	WORD	1131569	wordpools/wasnorm_wordpool_576.txt	LTP323	ltpFR2	5	9	MATTRESS	879	n/a	n/a	0	0	0
2265.89	n/a	WORD	1132945	wordpools/wasnorm_wordpool_576.txt	LTP323	ltpFR2	5	9	PERFUME	1049	n/a	n/a	0	0	0
2268.424	n/a	WORD	1134212	wordpools/wasnorm_wordpool_576.txt	LTP323	ltpFR2	5	9	FOREST	593	n/a	n/a	0	0	0
2270.878	n/a	WORD	1135439	wordpools/wasnorm_wordpool_576.txt	LTP323	ltpFR2	5	9	ULCER	1533	n/a	n/a	0	0	0
2273.532	n/a	WORD	1136766	wordpools/wasnorm_wordpool_576.txt	LTP323	ltpFR2	5	9	BALLOON	75	n/a	n/a	0	0	0
2276.264	n/a	WORD	1138132	wordpools/wasnorm_wordpool_576.txt	LTP323	ltpFR2	5	9	HEADBAND	696	n/a	n/a	0	0	0
2278.768	n/a	WORD	1139384	wordpools/wasnorm_wordpool_576.txt	LTP323	ltpFR2	5	9	SUPPER	1411	n/a	n/a	0	0	0
2281.452	n/a	WORD	1140726	wordpools/wasnorm_wordpool_576.txt	LTP323	ltpFR2	5	9	MARKET	871	n/a	n/a	0	0	0
2283.938	n/a	WORD	1141969	wordpools/wasnorm_wordpool_576.txt	LTP323	ltpFR2	5	9	BLENDER	136	n/a	n/a	0	0	0
2286.64	n/a	WORD	1143320	wordpools/wasnorm_wordpool_576.txt	LTP323	ltpFR2	5	9	COIN	343	n/a	n/a	0	0	0
2289.16	n/a	WORD	1144580	wordpools/wasnorm_wordpool_576.txt	LTP323	ltpFR2	5	9	HELMET	702	n/a	n/a	0	0	0
2291.776	n/a	WORD	1145888	wordpools/wasnorm_wordpool_576.txt	LTP323	ltpFR2	5	9	PATIENT	1024	n/a	n/a	0	0	0
2294.246	n/a	WORD	1147123	wordpools/wasnorm_wordpool_576.txt	LTP323	ltpFR2	5	9	DENTIST	447	n/a	n/a	0	0	0
2297.05	n/a	WORD	1148525	wordpools/wasnorm_wordpool_576.txt	LTP323	ltpFR2	5	9	FLUTE	585	n/a	n/a	0	0	0
2299.852	n/a	WORD	1149926	wordpools/wasnorm_wordpool_576.txt	LTP323	ltpFR2	5	9	BADGE	68	n/a	n/a	0	0	0
2302.386	n/a	WORD	1151193	wordpools/wasnorm_wordpool_576.txt	LTP323	ltpFR2	5	9	INMATE	738	n/a	n/a	0	0	0
2305.142	n/a	WORD	1152571	wordpools/wasnorm_wordpool_576.txt	LTP323	ltpFR2	5	9	CONVICT	371	n/a	n/a	0	0	0
2307.742	n/a	WORD	1153871	wordpools/wasnorm_wordpool_576.txt	LTP323	ltpFR2	5	9	SODA	1341	n/a	n/a	0	0	0
2310.344	n/a	WORD	1155172	wordpools/wasnorm_wordpool_576.txt	LTP323	ltpFR2	5	9	SHERIFF	1284	n/a	n/a	0	0	0
2312.814	n/a	WORD	1156407	wordpools/wasnorm_wordpool_576.txt	LTP323	ltpFR2	5	9	HUMAN	726	n/a	n/a	0	0	0
2314.43	n/a	START	1157215	n/a	LTP323	ltpFR2	5	n/a	n/a	n/a	12	n/a	n/a	n/a	n/a
2315.406	n/a	DISTRACTOR	1157703	n/a	LTP323	ltpFR2	5	9	n/a	n/a	n/a	n/a	0	0	0
2315.414	n/a	PROB	1157707	n/a	LTP323	ltpFR2	5	n/a	n/a	n/a	12	12	5	4	3
2317.484	n/a	PROB	1158742	n/a	LTP323	ltpFR2	5	n/a	n/a	n/a	12	21	8	4	9
2321.238	n/a	PROB	1160619	n/a	LTP323	ltpFR2	5	n/a	n/a	n/a	12	10	6	1	3
2323.036	n/a	PROB	1161518	n/a	LTP323	ltpFR2	5	n/a	n/a	n/a	12	8	1	6	1
2324.486	n/a	PROB	1162243	n/a	LTP323	ltpFR2	5	n/a	n/a	n/a	12	16	2	6	8
2326.774	n/a	PROB	1163387	n/a	LTP323	ltpFR2	5	n/a	n/a	n/a	12	23	9	6	8
2329.876	n/a	PROB	1164938	n/a	LTP323	ltpFR2	5	n/a	n/a	n/a	12	12	2	5	5
2331.574	n/a	PROB	1165787	n/a	LTP323	ltpFR2	5	n/a	n/a	n/a	12	21	9	8	4
2334.164	n/a	PROB	1167082	n/a	LTP323	ltpFR2	5	n/a	n/a	n/a	12	8	2	2	4
2335.882	n/a	PROB	1167941	n/a	LTP323	ltpFR2	5	n/a	n/a	n/a	12	1	4	8	6
2337.29	n/a	STOP	1168645	n/a	LTP323	ltpFR2	5	n/a	n/a	n/a	12	n/a	n/a	n/a	n/a
2340.22	n/a	REC_START	1170110	n/a	LTP323	ltpFR2	5	9	n/a	n/a	n/a	n/a	0	0	0
2342.134	n/a	REC_WORD	1171067	wordpools/wasnorm_wordpool_576.txt	LTP323	ltpFR2	5	9	BARLEY	88	n/a	n/a	0	0	0
2342.7	n/a	REC_WORD	1171350	wordpools/wasnorm_wordpool_576.txt	LTP323	ltpFR2	5	9	TRENCH	1503	n/a	n/a	0	0	0
2345.242	n/a	REC_WORD	1172621	wordpools/wasnorm_wordpool_576.txt	LTP323	ltpFR2	5	9	SCARF	1246	n/a	n/a	0	0	0
2346.826	n/a	REC_WORD	1173413	wordpools/wasnorm_wordpool_576.txt	LTP323	ltpFR2	5	9	MATTRESS	879	n/a	n/a	0	0	0
2347.514	n/a	REC_WORD	1173757	wordpools/wasnorm_wordpool_576.txt	LTP323	ltpFR2	5	9	BARREL	91	n/a	n/a	0	0	0
2348.088	n/a	REC_WORD	1174044	wordpools/wasnorm_wordpool_576.txt	LTP323	ltpFR2	5	9	PERFUME	1049	n/a	n/a	0	0	0
2348.784	n/a	REC_WORD	1174392	wordpools/wasnorm_wordpool_576.txt	LTP323	ltpFR2	5	9	FOREST	593	n/a	n/a	0	0	0
2351.886	n/a	REC_WORD	1175943	wordpools/wasnorm_wordpool_576.txt	LTP323	ltpFR2	5	9	BALLOON	75	n/a	n/a	0	0	0
2352.392	n/a	REC_WORD	1176196	wordpools/wasnorm_wordpool_576.txt	LTP323	ltpFR2	5	9	HEADBAND	696	n/a	n/a	0	0	0
2353.006	n/a	REC_WORD	1176503	wordpools/wasnorm_wordpool_576.txt	LTP323	ltpFR2	5	9	SUPPER	1411	n/a	n/a	0	0	0
2354.86	n/a	REC_WORD	1177430	wordpools/wasnorm_wordpool_576.txt	LTP323	ltpFR2	5	9	HELMET	702	n/a	n/a	0	0	0
2356.478	n/a	REC_WORD	1178239	wordpools/wasnorm_wordpool_576.txt	LTP323	ltpFR2	5	9	DENTIST	447	n/a	n/a	0	0	0
2357.624	n/a	REC_WORD	1178812	wordpools/wasnorm_wordpool_576.txt	LTP323	ltpFR2	5	9	PATIENT	1024	n/a	n/a	0	0	0
2360.904	n/a	REC_WORD	1180452	wordpools/wasnorm_wordpool_576.txt	LTP323	ltpFR2	5	9	INMATE	738	n/a	n/a	0	0	0
2362.288	n/a	REC_WORD	1181144	wordpools/wasnorm_wordpool_576.txt	LTP323	ltpFR2	5	9	BADGE	68	n/a	n/a	0	0	0
2362.884	n/a	REC_WORD	1181442	wordpools/wasnorm_wordpool_576.txt	LTP323	ltpFR2	5	9	CONVICT	371	n/a	n/a	0	0	0
2363.61	n/a	REC_WORD	1181805	wordpools/wasnorm_wordpool_576.txt	LTP323	ltpFR2	5	9	FLUTE	585	n/a	n/a	0	0	0
2365.25	n/a	REC_WORD	1182625	wordpools/wasnorm_wordpool_576.txt	LTP323	ltpFR2	5	9	SODA	1341	n/a	n/a	0	0	0
2365.944	n/a	REC_WORD	1182972	wordpools/wasnorm_wordpool_576.txt	LTP323	ltpFR2	5	9	HUMAN	726	n/a	n/a	0	0	0
2366.636	n/a	REC_WORD	1183318	wordpools/wasnorm_wordpool_576.txt	LTP323	ltpFR2	5	9	SHERIFF	1284	n/a	n/a	0	0	0
2383.832	n/a	REC_WORD	1191916	wordpools/wasnorm_wordpool_576.txt	LTP323	ltpFR2	5	9	BARREL	91	n/a	n/a	0	0	0
2391.786	n/a	REC_WORD	1195893	wordpools/wasnorm_wordpool_576.txt	LTP323	ltpFR2	5	9	SCARF	1246	n/a	n/a	0	0	0
2393.266	n/a	REC_WORD	1196633	wordpools/wasnorm_wordpool_576.txt	LTP323	ltpFR2	5	9	TRENCH	1503	n/a	n/a	0	0	0
2430.656	n/a	DISTRACTOR	1215328	n/a	LTP323	ltpFR2	5	10	n/a	n/a	n/a	n/a	0	0	0
2430.656	n/a	START	1215328	n/a	LTP323	ltpFR2	5	n/a	n/a	n/a	13	n/a	n/a	n/a	n/a
2430.668	n/a	PROB	1215334	n/a	LTP323	ltpFR2	5	n/a	n/a	n/a	13	16	3	9	4
2434.582	n/a	PROB	1217291	n/a	LTP323	ltpFR2	5	n/a	n/a	n/a	13	22	9	9	4
2437.054	n/a	PROB	1218527	n/a	LTP323	ltpFR2	5	n/a	n/a	n/a	13	18	7	2	9
2438.852	n/a	PROB	1219426	n/a	LTP323	ltpFR2	5	n/a	n/a	n/a	13	16	5	8	3
2441.67	n/a	PROB	1220835	n/a	LTP323	ltpFR2	5	n/a	n/a	n/a	13	19	7	3	9
2443.272	n/a	PROB	1221636	n/a	LTP323	ltpFR2	5	n/a	n/a	n/a	13	13	3	4	6
2445.14	n/a	PROB	1222570	n/a	LTP323	ltpFR2	5	n/a	n/a	n/a	13	24	8	7	9
2448.244	n/a	PROB	1224122	n/a	LTP323	ltpFR2	5	n/a	n/a	n/a	13	17	3	5	9
2450.432	n/a	PROB	1225216	n/a	LTP323	ltpFR2	5	n/a	n/a	n/a	13	16	2	6	8
2452.33	n/a	PROB	1226165	n/a	LTP323	ltpFR2	5	n/a	n/a	n/a	13	18	4	7	7
2454.302	n/a	STOP	1227151	n/a	LTP323	ltpFR2	5	n/a	n/a	n/a	13	n/a	n/a	n/a	n/a
2455.792	n/a	WORD	1227896	wordpools/wasnorm_wordpool_576.txt	LTP323	ltpFR2	5	10	CAMEL	223	n/a	n/a	0	0	0
2458.354	n/a	WORD	1229177	wordpools/wasnorm_wordpool_576.txt	LTP323	ltpFR2	5	10	SWIMMER	1420	n/a	n/a	0	0	0
2460.992	n/a	WORD	1230496	wordpools/wasnorm_wordpool_576.txt	LTP323	ltpFR2	5	10	ATLAS	53	n/a	n/a	0	0	0
2463.614	n/a	WORD	1231807	wordpools/wasnorm_wordpool_576.txt	LTP323	ltpFR2	5	10	SHELTER	1282	n/a	n/a	0	0	0
2466.428	n/a	WORD	1233214	wordpools/wasnorm_wordpool_576.txt	LTP323	ltpFR2	5	10	GROUND	666	n/a	n/a	0	0	0
2468.914	n/a	WORD	1234457	wordpools/wasnorm_wordpool_576.txt	LTP323	ltpFR2	5	10	SUITCASE	1403	n/a	n/a	0	0	0
2471.566	n/a	WORD	1235783	wordpools/wasnorm_wordpool_576.txt	LTP323	ltpFR2	5	10	ONION	977	n/a	n/a	0	0	0
2474.29	n/a	WORD	1237145	wordpools/wasnorm_wordpool_576.txt	LTP323	ltpFR2	5	10	TREAT	1501	n/a	n/a	0	0	0
2477.006	n/a	WORD	1238503	wordpools/wasnorm_wordpool_576.txt	LTP323	ltpFR2	5	10	COTTAGE	384	n/a	n/a	0	0	0
2479.506	n/a	WORD	1239753	wordpools/wasnorm_wordpool_576.txt	LTP323	ltpFR2	5	10	BACON	67	n/a	n/a	0	0	0
2481.98	n/a	WORD	1240990	wordpools/wasnorm_wordpool_576.txt	LTP323	ltpFR2	5	10	SHOVEL	1295	n/a	n/a	0	0	0
2484.71	n/a	WORD	1242355	wordpools/wasnorm_wordpool_576.txt	LTP323	ltpFR2	5	10	ATOM	55	n/a	n/a	0	0	0
2487.148	n/a	WORD	1243574	wordpools/wasnorm_wordpool_576.txt	LTP323	ltpFR2	5	10	STONE	1385	n/a	n/a	0	0	0
2489.764	n/a	WORD	1244882	wordpools/wasnorm_wordpool_576.txt	LTP323	ltpFR2	5	10	BANJO	82	n/a	n/a	0	0	0
2492.5	n/a	WORD	1246250	wordpools/wasnorm_wordpool_576.txt	LTP323	ltpFR2	5	10	KNIFE	785	n/a	n/a	0	0	0
2495.02	n/a	WORD	1247510	wordpools/wasnorm_wordpool_576.txt	LTP323	ltpFR2	5	10	HATCHET	691	n/a	n/a	0	0	0
2497.722	n/a	WORD	1248861	wordpools/wasnorm_wordpool_576.txt	LTP323	ltpFR2	5	10	FLESH	579	n/a	n/a	0	0	0
2500.274	n/a	WORD	1250137	wordpools/wasnorm_wordpool_576.txt	LTP323	ltpFR2	5	10	QUAIL	1147	n/a	n/a	0	0	0
2503.076	n/a	WORD	1251538	wordpools/wasnorm_wordpool_576.txt	LTP323	ltpFR2	5	10	SNACK	1331	n/a	n/a	0	0	0
2505.88	n/a	WORD	1252940	wordpools/wasnorm_wordpool_576.txt	LTP323	ltpFR2	5	10	TOMBSTONE	1478	n/a	n/a	0	0	0
2508.666	n/a	WORD	1254333	wordpools/wasnorm_wordpool_576.txt	LTP323	ltpFR2	5	10	GRAVE	658	n/a	n/a	0	0	0
2511.266	n/a	WORD	1255633	wordpools/wasnorm_wordpool_576.txt	LTP323	ltpFR2	5	10	SERVANT	1271	n/a	n/a	0	0	0
2513.836	n/a	WORD	1256918	wordpools/wasnorm_wordpool_576.txt	LTP323	ltpFR2	5	10	CLOUD	328	n/a	n/a	0	0	0
2516.572	n/a	WORD	1258286	wordpools/wasnorm_wordpool_576.txt	LTP323	ltpFR2	5	10	COMET	353	n/a	n/a	0	0	0
2518.192	n/a	START	1259096	n/a	LTP323	ltpFR2	5	n/a	n/a	n/a	14	n/a	n/a	n/a	n/a
2519.238	n/a	DISTRACTOR	1259619	n/a	LTP323	ltpFR2	5	10	n/a	n/a	n/a	n/a	0	0	0
2519.258	n/a	PROB	1259629	n/a	LTP323	ltpFR2	5	n/a	n/a	n/a	14	14	2	5	7
2521.624	n/a	PROB	1260812	n/a	LTP323	ltpFR2	5	n/a	n/a	n/a	14	6	3	2	1
2523.59	n/a	PROB	1261795	n/a	LTP323	ltpFR2	5	n/a	n/a	n/a	14	4	2	1	1
2525.592	n/a	PROB	1262796	n/a	LTP323	ltpFR2	5	n/a	n/a	n/a	14	14	3	5	6
2528.078	n/a	PROB	1264039	n/a	LTP323	ltpFR2	5	n/a	n/a	n/a	14	14	9	3	2
2529.998	n/a	PROB	1264999	n/a	LTP323	ltpFR2	5	n/a	n/a	n/a	14	15	1	5	9
2533.532	n/a	PROB	1266766	n/a	LTP323	ltpFR2	5	n/a	n/a	n/a	14	11	5	3	3
2535.488	n/a	PROB	1267744	n/a	LTP323	ltpFR2	5	n/a	n/a	n/a	14	8	2	2	2
2537.702	n/a	PROB	1268851	n/a	LTP323	ltpFR2	5	n/a	n/a	n/a	14	14	1	9	4
2542.192	n/a	STOP	1271096	n/a	LTP323	ltpFR2	5	n/a	n/a	n/a	14	n/a	n/a	n/a	n/a
2544.06	n/a	REC_START	1272030	n/a	LTP323	ltpFR2	5	10	n/a	n/a	n/a	n/a	0	0	0
2546.104	n/a	REC_WORD	1273052	wordpools/wasnorm_wordpool_576.txt	LTP323	ltpFR2	5	10	ATOM	55	n/a	n/a	0	0	0
2547.08	n/a	REC_WORD	1273540	wordpools/wasnorm_wordpool_576.txt	LTP323	ltpFR2	5	10	CLOUD	328	n/a	n/a	0	0	0
2547.704	n/a	REC_WORD	1273852	wordpools/wasnorm_wordpool_576.txt	LTP323	ltpFR2	5	10	BANJO	82	n/a	n/a	0	0	0
2549.284	n/a	REC_WORD	1274642	wordpools/wasnorm_wordpool_576.txt	LTP323	ltpFR2	5	10	SHOVEL	1295	n/a	n/a	0	0	0
2549.914	n/a	REC_WORD	1274957	wordpools/wasnorm_wordpool_576.txt	LTP323	ltpFR2	5	10	KNIFE	785	n/a	n/a	0	0	0
2556.332	n/a	REC_WORD	1278166	wordpools/wasnorm_wordpool_576.txt	LTP323	ltpFR2	5	10	FLESH	579	n/a	n/a	0	0	0
2558.098	n/a	REC_WORD	1279049	wordpools/wasnorm_wordpool_576.txt	LTP323	ltpFR2	5	10	GRAVE	658	n/a	n/a	0	0	0
2558.58	n/a	REC_WORD	1279290	wordpools/wasnorm_wordpool_576.txt	LTP323	ltpFR2	5	10	TOMBSTONE	1478	n/a	n/a	0	0	0
2559.212	n/a	REC_WORD	1279606	wordpools/wasnorm_wordpool_576.txt	LTP323	ltpFR2	5	10	SERVANT	1271	n/a	n/a	0	0	0
2569.154	n/a	REC_WORD	1284577	wordpools/wasnorm_wordpool_576.txt	LTP323	ltpFR2	5	10	HATCHET	691	n/a	n/a	0	0	0
2571.77	n/a	REC_WORD	1285885	wordpools/wasnorm_wordpool_576.txt	LTP323	ltpFR2	5	10	CAMEL	223	n/a	n/a	0	0	0
2573.58	n/a	REC_WORD	1286790	wordpools/wasnorm_wordpool_576.txt	LTP323	ltpFR2	5	10	ATLAS	53	n/a	n/a	0	0	0
2575.628	n/a	REC_WORD	1287814	wordpools/wasnorm_wordpool_576.txt	LTP323	ltpFR2	5	10	SWIMMER	1420	n/a	n/a	0	0	0
2577.074	n/a	REC_WORD	1288537	wordpools/wasnorm_wordpool_576.txt	LTP323	ltpFR2	5	10	GROUND	666	n/a	n/a	0	0	0
2577.688	n/a	REC_WORD	1288844	wordpools/wasnorm_wordpool_576.txt	LTP323	ltpFR2	5	10	SHELTER	1282	n/a	n/a	0	0	0
2582.256	n/a	REC_WORD	1291128	wordpools/wasnorm_wordpool_576.txt	LTP323	ltpFR2	5	10	COTTAGE	384	n/a	n/a	0	0	0
2583.256	n/a	REC_WORD_VV	1291628	wordpools/wasnorm_wordpool_576.txt	LTP323	ltpFR2	5	10	<>	-1	n/a	n/a	0	0	0
2585.89	n/a	REC_WORD	1292945	wordpools/wasnorm_wordpool_576.txt	LTP323	ltpFR2	5	10	ONION	977	n/a	n/a	0	0	0
2586.488	n/a	REC_WORD	1293244	wordpools/wasnorm_wordpool_576.txt	LTP323	ltpFR2	5	10	BACON	67	n/a	n/a	0	0	0
2587.852	n/a	REC_WORD	1293926	wordpools/wasnorm_wordpool_576.txt	LTP323	ltpFR2	5	10	SUITCASE	1403	n/a	n/a	0	0	0
2588.852	n/a	REC_WORD_VV	1294426	wordpools/wasnorm_wordpool_576.txt	LTP323	ltpFR2	5	10	<>	-1	n/a	n/a	0	0	0
2591.788	n/a	REC_WORD	1295894	wordpools/wasnorm_wordpool_576.txt	LTP323	ltpFR2	5	10	SNACK	1331	n/a	n/a	0	0	0
2593.738	n/a	REC_WORD	1296869	wordpools/wasnorm_wordpool_576.txt	LTP323	ltpFR2	5	10	QUAIL	1147	n/a	n/a	0	0	0
2611.176	n/a	REC_WORD	1305588	wordpools/wasnorm_wordpool_576.txt	LTP323	ltpFR2	5	10	CAMEL	223	n/a	n/a	0	0	0
2634.53	n/a	WORD	1317265	wordpools/wasnorm_wordpool_576.txt	LTP323	ltpFR2	5	11	POLICE	1098	n/a	n/a	0	0	0
2637.06	n/a	WORD	1318530	wordpools/wasnorm_wordpool_576.txt	LTP323	ltpFR2	5	11	SCISSORS	1250	n/a	n/a	0	0	0
2639.678	n/a	WORD	1319839	wordpools/wasnorm_wordpool_576.txt	LTP323	ltpFR2	5	11	SWAMP	1416	n/a	n/a	0	0	0
2642.438	n/a	WORD	1321219	wordpools/wasnorm_wordpool_576.txt	LTP323	ltpFR2	5	11	SHOULDER	1294	n/a	n/a	0	0	0
2645.134	n/a	WORD	1322567	wordpools/wasnorm_wordpool_576.txt	LTP323	ltpFR2	5	11	LABEL	790	n/a	n/a	0	0	0
2647.684	n/a	WORD	1323842	wordpools/wasnorm_wordpool_576.txt	LTP323	ltpFR2	5	11	CANAL	226	n/a	n/a	0	0	0
2650.446	n/a	WORD	1325223	wordpools/wasnorm_wordpool_576.txt	LTP323	ltpFR2	5	11	POPCORN	1104	n/a	n/a	0	0	0
2653.2	n/a	WORD	1326600	wordpools/wasnorm_wordpool_576.txt	LTP323	ltpFR2	5	11	COCOON	339	n/a	n/a	0	0	0
2655.818	n/a	WORD	1327909	wordpools/wasnorm_wordpool_576.txt	LTP323	ltpFR2	5	11	EGYPT	519	n/a	n/a	0	0	0
2658.57	n/a	WORD	1329285	wordpools/wasnorm_wordpool_576.txt	LTP323	ltpFR2	5	11	BOUQUET	157	n/a	n/a	0	0	0
2661.022	n/a	WORD	1330511	wordpools/wasnorm_wordpool_576.txt	LTP323	ltpFR2	5	11	BULLET	194	n/a	n/a	0	0	0
2663.448	n/a	WORD	1331724	wordpools/wasnorm_wordpool_576.txt	LTP323	ltpFR2	5	11	PISTOL	1075	n/a	n/a	0	0	0
2665.968	n/a	WORD	1332984	wordpools/wasnorm_wordpool_576.txt	LTP323	ltpFR2	5	11	BASEMENT	94	n/a	n/a	0	0	0
2668.494	n/a	WORD	1334247	wordpools/wasnorm_wordpool_576.txt	LTP323	ltpFR2	5	11	SMOG	1330	n/a	n/a	0	0	0
2671.288	n/a	WORD	1335644	wordpools/wasnorm_wordpool_576.txt	LTP323	ltpFR2	5	11	LAMP	798	n/a	n/a	0	0	0
2673.84	n/a	WORD	1336920	wordpools/wasnorm_wordpool_576.txt	LTP323	ltpFR2	5	11	WORKER	1621	n/a	n/a	0	0	0
2676.476	n/a	WORD	1338238	wordpools/wasnorm_wordpool_576.txt	LTP323	ltpFR2	5	11	HONEY	713	n/a	n/a	0	0	0
2679.246	n/a	WORD	1339623	wordpools/wasnorm_wordpool_576.txt	LTP323	ltpFR2	5	11	HOUND	724	n/a	n/a	0	0	0
2681.988	n/a	WORD	1340994	wordpools/wasnorm_wordpool_576.txt	LTP323	ltpFR2	5	11	TUNNEL	1519	n/a	n/a	0	0	0
2684.65	n/a	WORD	1342325	wordpools/wasnorm_wordpool_576.txt	LTP323	ltpFR2	5	11	STOMACH	1384	n/a	n/a	0	0	0
2687.352	n/a	WORD	1343676	wordpools/wasnorm_wordpool_576.txt	LTP323	ltpFR2	5	11	YACHT	1629	n/a	n/a	0	0	0
2690.122	n/a	WORD	1345061	wordpools/wasnorm_wordpool_576.txt	LTP323	ltpFR2	5	11	PREACHER	1119	n/a	n/a	0	0	0
2692.874	n/a	WORD	1346437	wordpools/wasnorm_wordpool_576.txt	LTP323	ltpFR2	5	11	RACKET	1155	n/a	n/a	0	0	0
2695.566	n/a	WORD	1347783	wordpools/wasnorm_wordpool_576.txt	LTP323	ltpFR2	5	11	PATROL	1027	n/a	n/a	0	0	0
2697.178	n/a	START	1348589	n/a	LTP323	ltpFR2	5	n/a	n/a	n/a	15	n/a	n/a	n/a	n/a
2698.132	n/a	DISTRACTOR	1349066	n/a	LTP323	ltpFR2	5	11	n/a	n/a	n/a	n/a	0	0	0
2698.144	n/a	PROB	1349072	n/a	LTP323	ltpFR2	5	n/a	n/a	n/a	15	18	7	8	3
2700.308	n/a	PROB	1350154	n/a	LTP323	ltpFR2	5	n/a	n/a	n/a	15	18	4	6	8
2701.846	n/a	PROB	1350923	n/a	LTP323	ltpFR2	5	n/a	n/a	n/a	15	17	7	5	5
2703.83	n/a	PROB	1351915	n/a	LTP323	ltpFR2	5	n/a	n/a	n/a	15	18	2	7	9
2705.78	n/a	PROB	1352890	n/a	LTP323	ltpFR2	5	n/a	n/a	n/a	15	12	1	9	2
2707.514	n/a	PROB	1353757	n/a	LTP323	ltpFR2	5	n/a	n/a	n/a	15	10	3	4	3
2710.768	n/a	PROB	1355384	n/a	LTP323	ltpFR2	5	n/a	n/a	n/a	15	15	1	7	7
2712.538	n/a	PROB	1356269	n/a	LTP323	ltpFR2	5	n/a	n/a	n/a	15	19	7	6	6
2715.04	n/a	PROB	1357520	n/a	LTP323	ltpFR2	5	n/a	n/a	n/a	15	15	5	8	2
2716.724	n/a	PROB	1358362	n/a	LTP323	ltpFR2	5	n/a	n/a	n/a	15	15	6	4	5
2718.292	n/a	PROB	1359146	n/a	LTP323	ltpFR2	5	n/a	n/a	n/a	15	14	7	1	6
2720.502	n/a	STOP	1360251	n/a	LTP323	ltpFR2	5	n/a	n/a	n/a	15	n/a	n/a	n/a	n/a
2722.98	n/a	REC_START	1361490	n/a	LTP323	ltpFR2	5	11	n/a	n/a	n/a	n/a	0	0	0
2724.82	n/a	REC_WORD	1362410	wordpools/wasnorm_wordpool_576.txt	LTP323	ltpFR2	5	11	POLICE	1098	n/a	n/a	0	0	0
2725.856	n/a	REC_WORD	1362928	wordpools/wasnorm_wordpool_576.txt	LTP323	ltpFR2	5	11	SCISSORS	1250	n/a	n/a	0	0	0
2726.856	n/a	REC_WORD_VV	1363428	wordpools/wasnorm_wordpool_576.txt	LTP323	ltpFR2	5	11	<>	-1	n/a	n/a	0	0	0
2726.97	n/a	REC_WORD	1363485	wordpools/wasnorm_wordpool_576.txt	LTP323	ltpFR2	5	11	SWAMP	1416	n/a	n/a	0	0	0
2730.168	n/a	REC_WORD	1365084	wordpools/wasnorm_wordpool_576.txt	LTP323	ltpFR2	5	11	PATROL	1027	n/a	n/a	0	0	0
2731.168	n/a	REC_WORD_VV	1365584	wordpools/wasnorm_wordpool_576.txt	LTP323	ltpFR2	5	11	<>	-1	n/a	n/a	0	0	0
2732.752	n/a	REC_WORD	1366376	wordpools/wasnorm_wordpool_576.txt	LTP323	ltpFR2	5	11	PISTOL	1075	n/a	n/a	0	0	0
2733.34	n/a	REC_WORD	1366670	wordpools/wasnorm_wordpool_576.txt	LTP323	ltpFR2	5	11	BULLET	194	n/a	n/a	0	0	0
2736.284	n/a	REC_WORD	1368142	wordpools/wasnorm_wordpool_576.txt	LTP323	ltpFR2	5	11	HOUND	724	n/a	n/a	0	0	0
2740.164	n/a	REC_WORD	1370082	wordpools/wasnorm_wordpool_576.txt	LTP323	ltpFR2	5	11	CONVICT	371	n/a	n/a	0	0	0
2741.164	n/a	REC_WORD_VV	1370582	wordpools/wasnorm_wordpool_576.txt	LTP323	ltpFR2	5	11	<>	-1	n/a	n/a	0	0	0
2742.206	n/a	REC_WORD	1371103	wordpools/wasnorm_wordpool_576.txt	LTP323	ltpFR2	5	11	BASEMENT	94	n/a	n/a	0	0	0
2742.878	n/a	REC_WORD	1371439	wordpools/wasnorm_wordpool_576.txt	LTP323	ltpFR2	5	11	SMOG	1330	n/a	n/a	0	0	0
2744.698	n/a	REC_WORD	1372349	wordpools/wasnorm_wordpool_576.txt	LTP323	ltpFR2	5	11	HONEY	713	n/a	n/a	0	0	0
2747.282	n/a	REC_WORD	1373641	wordpools/wasnorm_wordpool_576.txt	LTP323	ltpFR2	5	11	STOMACH	1384	n/a	n/a	0	0	0
2748.054	n/a	REC_WORD	1374027	wordpools/wasnorm_wordpool_576.txt	LTP323	ltpFR2	5	11	PREACHER	1119	n/a	n/a	0	0	0
2748.634	n/a	REC_WORD	1374317	wordpools/wasnorm_wordpool_576.txt	LTP323	ltpFR2	5	11	YACHT	1629	n/a	n/a	0	0	0
2749.996	n/a	REC_WORD	1374998	wordpools/wasnorm_wordpool_576.txt	LTP323	ltpFR2	5	11	RACKET	1155	n/a	n/a	0	0	0
2752.128	n/a	REC_WORD	1376064	wordpools/wasnorm_wordpool_576.txt	LTP323	ltpFR2	5	11	CANAL	226	n/a	n/a	0	0	0
2757.46	n/a	REC_WORD	1378730	wordpools/wasnorm_wordpool_576.txt	LTP323	ltpFR2	5	11	COCOON	339	n/a	n/a	0	0	0
2758.134	n/a	REC_WORD	1379067	wordpools/wasnorm_wordpool_576.txt	LTP323	ltpFR2	5	11	POPCORN	1104	n/a	n/a	0	0	0
2759.14	n/a	REC_WORD	1379570	wordpools/wasnorm_wordpool_576.txt	LTP323	ltpFR2	5	11	EGYPT	519	n/a	n/a	0	0	0
2761.854	n/a	REC_WORD	1380927	wordpools/wasnorm_wordpool_576.txt	LTP323	ltpFR2	5	11	BANQUET	86	n/a	n/a	0	0	0
2772.852	n/a	REC_WORD	1386426	wordpools/wasnorm_wordpool_576.txt	LTP323	ltpFR2	5	11	BRIEFCASE	175	n/a	n/a	0	0	0
2779.91	n/a	REC_WORD	1389955	wordpools/wasnorm_wordpool_576.txt	LTP323	ltpFR2	5	11	SHOULDER	1294	n/a	n/a	0	0	0
2780.726	n/a	REC_WORD	1390363	wordpools/wasnorm_wordpool_576.txt	LTP323	ltpFR2	5	11	LABEL	790	n/a	n/a	0	0	0
2813.442	n/a	DISTRACTOR	1406721	n/a	LTP323	ltpFR2	5	12	n/a	n/a	n/a	n/a	0	0	0
2813.444	n/a	START	1406722	n/a	LTP323	ltpFR2	5	n/a	n/a	n/a	16	n/a	n/a	n/a	n/a
2813.46	n/a	PROB	1406730	n/a	LTP323	ltpFR2	5	n/a	n/a	n/a	16	9	3	1	5
2815.68	n/a	PROB	1407840	n/a	LTP323	ltpFR2	5	n/a	n/a	n/a	16	20	9	3	8
2818.712	n/a	PROB	1409356	n/a	LTP323	ltpFR2	5	n/a	n/a	n/a	16	14	7	4	3
2820.68	n/a	PROB	1410340	n/a	LTP323	ltpFR2	5	n/a	n/a	n/a	16	12	4	3	5
2822.596	n/a	PROB	1411298	n/a	LTP323	ltpFR2	5	n/a	n/a	n/a	16	17	3	8	6
2825.15	n/a	PROB	1412575	n/a	LTP323	ltpFR2	5	n/a	n/a	n/a	16	15	3	9	3
2828.034	n/a	PROB	1414017	n/a	LTP323	ltpFR2	5	n/a	n/a	n/a	16	11	1	4	6
2829.572	n/a	PROB	1414786	n/a	LTP323	ltpFR2	5	n/a	n/a	n/a	16	9	3	1	5
2831.836	n/a	PROB	1415918	n/a	LTP323	ltpFR2	5	n/a	n/a	n/a	16	15	8	1	6
2837.444	n/a	STOP	1418722	n/a	LTP323	ltpFR2	5	n/a	n/a	n/a	16	n/a	n/a	n/a	n/a
2838.314	n/a	WORD	1419157	wordpools/wasnorm_wordpool_576.txt	LTP323	ltpFR2	5	12	FLEET	578	n/a	n/a	0	0	0
2841.08	n/a	WORD	1420540	wordpools/wasnorm_wordpool_576.txt	LTP323	ltpFR2	5	12	ARMY	39	n/a	n/a	0	0	0
2843.85	n/a	WORD	1421925	wordpools/wasnorm_wordpool_576.txt	LTP323	ltpFR2	5	12	PRINCESS	1125	n/a	n/a	0	0	0
2846.622	n/a	WORD	1423311	wordpools/wasnorm_wordpool_576.txt	LTP323	ltpFR2	5	12	WASHER	1592	n/a	n/a	0	0	0
2849.076	n/a	WORD	1424538	wordpools/wasnorm_wordpool_576.txt	LTP323	ltpFR2	5	12	DINER	467	n/a	n/a	0	0	0
2851.522	n/a	WORD	1425761	wordpools/wasnorm_wordpool_576.txt	LTP323	ltpFR2	5	12	GLASS	639	n/a	n/a	0	0	0
2853.992	n/a	WORD	1426996	wordpools/wasnorm_wordpool_576.txt	LTP323	ltpFR2	5	12	CROWN	415	n/a	n/a	0	0	0
2856.642	n/a	WORD	1428321	wordpools/wasnorm_wordpool_576.txt	LTP323	ltpFR2	5	12	SCULPTURE	1258	n/a	n/a	0	0	0
2859.184	n/a	WORD	1429592	wordpools/wasnorm_wordpool_576.txt	LTP323	ltpFR2	5	12	ROOSTER	1209	n/a	n/a	0	0	0
2861.646	n/a	WORD	1430823	wordpools/wasnorm_wordpool_576.txt	LTP323	ltpFR2	5	12	OUTFIT	988	n/a	n/a	0	0	0
2864.432	n/a	WORD	1432216	wordpools/wasnorm_wordpool_576.txt	LTP323	ltpFR2	5	12	BLUEPRINT	142	n/a	n/a	0	0	0
2867.24	n/a	WORD	1433620	wordpools/wasnorm_wordpool_576.txt	LTP323	ltpFR2	5	12	FOX	598	n/a	n/a	0	0	0
2869.954	n/a	WORD	1434977	wordpools/wasnorm_wordpool_576.txt	LTP323	ltpFR2	5	12	CHAUFFEUR	283	n/a	n/a	0	0	0
2872.754	n/a	WORD	1436377	wordpools/wasnorm_wordpool_576.txt	LTP323	ltpFR2	5	12	WAGON	1578	n/a	n/a	0	0	0
2875.176	n/a	WORD	1437588	wordpools/wasnorm_wordpool_576.txt	LTP323	ltpFR2	5	12	THREAD	1460	n/a	n/a	0	0	0
2877.978	n/a	WORD	1438989	wordpools/wasnorm_wordpool_576.txt	LTP323	ltpFR2	5	12	RIFLE	1192	n/a	n/a	0	0	0
2880.752	n/a	WORD	1440376	wordpools/wasnorm_wordpool_576.txt	LTP323	ltpFR2	5	12	CARRIAGE	248	n/a	n/a	0	0	0
2883.42	n/a	WORD	1441710	wordpools/wasnorm_wordpool_576.txt	LTP323	ltpFR2	5	12	HARP	689	n/a	n/a	0	0	0
2886.174	n/a	WORD	1443087	wordpools/wasnorm_wordpool_576.txt	LTP323	ltpFR2	5	12	CRITIC	410	n/a	n/a	0	0	0
2888.92	n/a	WORD	1444460	wordpools/wasnorm_wordpool_576.txt	LTP323	ltpFR2	5	12	PROTON	1132	n/a	n/a	0	0	0
2891.426	n/a	WORD	1445713	wordpools/wasnorm_wordpool_576.txt	LTP323	ltpFR2	5	12	DANDRUFF	439	n/a	n/a	0	0	0
2894.24	n/a	WORD	1447120	wordpools/wasnorm_wordpool_576.txt	LTP323	ltpFR2	5	12	PIMPLE	1071	n/a	n/a	0	0	0
2896.716	n/a	WORD	1448358	wordpools/wasnorm_wordpool_576.txt	LTP323	ltpFR2	5	12	COBRA	336	n/a	n/a	0	0	0
2899.528	n/a	WORD	1449764	wordpools/wasnorm_wordpool_576.txt	LTP323	ltpFR2	5	12	SEAFOOD	1260	n/a	n/a	0	0	0
2901.138	n/a	START	1450569	n/a	LTP323	ltpFR2	5	n/a	n/a	n/a	17	n/a	n/a	n/a	n/a
2902.32	n/a	DISTRACTOR	1451160	n/a	LTP323	ltpFR2	5	12	n/a	n/a	n/a	n/a	0	0	0
2902.328	n/a	PROB	1451164	n/a	LTP323	ltpFR2	5	n/a	n/a	n/a	17	11	4	4	3
2904.97	n/a	PROB	1452485	n/a	LTP323	ltpFR2	5	n/a	n/a	n/a	17	13	2	2	9
2906.922	n/a	PROB	1453461	n/a	LTP323	ltpFR2	5	n/a	n/a	n/a	17	26	8	9	9
2909.206	n/a	PROB	1454603	n/a	LTP323	ltpFR2	5	n/a	n/a	n/a	17	19	5	7	7
2911.274	n/a	PROB	1455637	n/a	LTP323	ltpFR2	5	n/a	n/a	n/a	17	15	1	9	5
2913.114	n/a	PROB	1456557	n/a	LTP323	ltpFR2	5	n/a	n/a	n/a	17	17	5	8	4
2915.73	n/a	PROB	1457865	n/a	LTP323	ltpFR2	5	n/a	n/a	n/a	17	17	7	3	7
2917.916	n/a	PROB	1458958	n/a	LTP323	ltpFR2	5	n/a	n/a	n/a	17	11	3	6	2
2920.282	n/a	PROB	1460141	n/a	LTP323	ltpFR2	5	n/a	n/a	n/a	17	16	7	7	2
2922.052	n/a	PROB	1461026	n/a	LTP323	ltpFR2	5	n/a	n/a	n/a	17	18	9	2	7
2923.87	n/a	STOP	1461935	n/a	LTP323	ltpFR2	5	n/a	n/a	n/a	17	n/a	n/a	n/a	n/a
2927.072	n/a	REC_START	1463536	n/a	LTP323	ltpFR2	5	12	n/a	n/a	n/a	n/a	0	0	0
2929.118	n/a	REC_WORD	1464559	wordpools/wasnorm_wordpool_576.txt	LTP323	ltpFR2	5	12	COBRA	336	n/a	n/a	0	0	0
2929.906	n/a	REC_WORD	1464953	wordpools/wasnorm_wordpool_576.txt	LTP323	ltpFR2	5	12	CHAUFFEUR	283	n/a	n/a	0	0	0
2930.688	n/a	REC_WORD	1465344	wordpools/wasnorm_wordpool_576.txt	LTP323	ltpFR2	5	12	WAGON	1578	n/a	n/a	0	0	0
2931.438	n/a	REC_WORD	1465719	wordpools/wasnorm_wordpool_576.txt	LTP323	ltpFR2	5	12	CARRIAGE	248	n/a	n/a	0	0	0
2932.438	n/a	REC_WORD_VV	1466219	wordpools/wasnorm_wordpool_576.txt	LTP323	ltpFR2	5	12	<>	-1	n/a	n/a	0	0	0
2933.176	n/a	REC_WORD	1466588	wordpools/wasnorm_wordpool_576.txt	LTP323	ltpFR2	5	12	PROTON	1132	n/a	n/a	0	0	0
2933.896	n/a	REC_WORD	1466948	wordpools/wasnorm_wordpool_576.txt	LTP323	ltpFR2	5	12	PIMPLE	1071	n/a	n/a	0	0	0
2934.66	n/a	REC_WORD	1467330	wordpools/wasnorm_wordpool_576.txt	LTP323	ltpFR2	5	12	HARP	689	n/a	n/a	0	0	0
2935.594	n/a	REC_WORD	1467797	wordpools/wasnorm_wordpool_576.txt	LTP323	ltpFR2	5	12	CRITIC	410	n/a	n/a	0	0	0
2937.224	n/a	REC_WORD	1468612	wordpools/wasnorm_wordpool_576.txt	LTP323	ltpFR2	5	12	FOX	598	n/a	n/a	0	0	0
2938.224	n/a	REC_WORD_VV	1469112	wordpools/wasnorm_wordpool_576.txt	LTP323	ltpFR2	5	12	<>	-1	n/a	n/a	0	0	0
2945.732	n/a	REC_WORD	1472866	wordpools/wasnorm_wordpool_576.txt	LTP323	ltpFR2	5	12	DINER	467	n/a	n/a	0	0	0
2947.832	n/a	REC_WORD	1473916	wordpools/wasnorm_wordpool_576.txt	LTP323	ltpFR2	5	12	WASHER	1592	n/a	n/a	0	0	0
2949.756	n/a	REC_WORD	1474878	wordpools/wasnorm_wordpool_576.txt	LTP323	ltpFR2	5	12	GLASS	639	n/a	n/a	0	0	0
2950.296	n/a	REC_WORD	1475148	wordpools/wasnorm_wordpool_576.txt	LTP323	ltpFR2	5	12	CROWN	415	n/a	n/a	0	0	0
2950.802	n/a	REC_WORD	1475401	wordpools/wasnorm_wordpool_576.txt	LTP323	ltpFR2	5	12	SCULPTURE	1258	n/a	n/a	0	0	0
2951.604	n/a	REC_WORD	1475802	wordpools/wasnorm_wordpool_576.txt	LTP323	ltpFR2	5	12	PRINCESS	1125	n/a	n/a	0	0	0
2952.46	n/a	REC_WORD	1476230	wordpools/wasnorm_wordpool_576.txt	LTP323	ltpFR2	5	12	ARMY	39	n/a	n/a	0	0	0
2952.942	n/a	REC_WORD	1476471	wordpools/wasnorm_wordpool_576.txt	LTP323	ltpFR2	5	12	FLEET	578	n/a	n/a	0	0	0
2974.25	n/a	REC_WORD	1487125	wordpools/wasnorm_wordpool_576.txt	LTP323	ltpFR2	5	12	ROOSTER	1209	n/a	n/a	0	0	0
2987.852	n/a	REC_WORD	1493926	wordpools/wasnorm_wordpool_576.txt	LTP323	ltpFR2	5	12	WASHER	1592	n/a	n/a	0	0	0
3017.538	n/a	DISTRACTOR	1508769	n/a	LTP323	ltpFR2	5	13	n/a	n/a	n/a	n/a	0	0	0
3017.538	n/a	START	1508769	n/a	LTP323	ltpFR2	5	n/a	n/a	n/a	18	n/a	n/a	n/a	n/a
3017.55	n/a	PROB	1508775	n/a	LTP323	ltpFR2	5	n/a	n/a	n/a	18	22	9	6	7
3023.442	n/a	PROB	1511721	n/a	LTP323	ltpFR2	5	n/a	n/a	n/a	18	23	8	6	9
3027.008	n/a	PROB	1513504	n/a	LTP323	ltpFR2	5	n/a	n/a	n/a	18	22	4	9	9
3033.75	n/a	PROB	1516875	n/a	LTP323	ltpFR2	5	n/a	n/a	n/a	18	14	9	1	4
3035.82	n/a	PROB	1517910	n/a	LTP323	ltpFR2	5	n/a	n/a	n/a	18	19	9	1	9
3041.538	n/a	STOP	1520769	n/a	LTP323	ltpFR2	5	n/a	n/a	n/a	18	n/a	n/a	n/a	n/a
3042.406	n/a	WORD	1521203	wordpools/wasnorm_wordpool_576.txt	LTP323	ltpFR2	5	13	DONKEY	484	n/a	n/a	0	0	0
3045.158	n/a	WORD	1522579	wordpools/wasnorm_wordpool_576.txt	LTP323	ltpFR2	5	13	BACKBONE	66	n/a	n/a	0	0	0
3047.628	n/a	WORD	1523814	wordpools/wasnorm_wordpool_576.txt	LTP323	ltpFR2	5	13	MARROW	872	n/a	n/a	0	0	0
3050.414	n/a	WORD	1525207	wordpools/wasnorm_wordpool_576.txt	LTP323	ltpFR2	5	13	COD	340	n/a	n/a	0	0	0
3053.0	n/a	WORD	1526500	wordpools/wasnorm_wordpool_576.txt	LTP323	ltpFR2	5	13	JELLO	754	n/a	n/a	0	0	0
3055.8	n/a	WORD	1527900	wordpools/wasnorm_wordpool_576.txt	LTP323	ltpFR2	5	13	CUSTARD	429	n/a	n/a	0	0	0
3058.536	n/a	WORD	1529268	wordpools/wasnorm_wordpool_576.txt	LTP323	ltpFR2	5	13	YOLK	1633	n/a	n/a	0	0	0
3061.24	n/a	WORD	1530620	wordpools/wasnorm_wordpool_576.txt	LTP323	ltpFR2	5	13	LODGE	839	n/a	n/a	0	0	0
3063.824	n/a	WORD	1531912	wordpools/wasnorm_wordpool_576.txt	LTP323	ltpFR2	5	13	SADDLE	1221	n/a	n/a	0	0	0
3066.596	n/a	WORD	1533298	wordpools/wasnorm_wordpool_576.txt	LTP323	ltpFR2	5	13	CHAMPAGNE	278	n/a	n/a	0	0	0
3069.078	n/a	WORD	1534539	wordpools/wasnorm_wordpool_576.txt	LTP323	ltpFR2	5	13	GRAPE	654	n/a	n/a	0	0	0
3071.612	n/a	WORD	1535806	wordpools/wasnorm_wordpool_576.txt	LTP323	ltpFR2	5	13	SUMMIT	1405	n/a	n/a	0	0	0
3074.182	n/a	WORD	1537091	wordpools/wasnorm_wordpool_576.txt	LTP323	ltpFR2	5	13	SUSPECT	1415	n/a	n/a	0	0	0
3076.988	n/a	WORD	1538494	wordpools/wasnorm_wordpool_576.txt	LTP323	ltpFR2	5	13	CITRUS	313	n/a	n/a	0	0	0
3079.62	n/a	WORD	1539810	wordpools/wasnorm_wordpool_576.txt	LTP323	ltpFR2	5	13	FIDDLE	561	n/a	n/a	0	0	0
3082.29	n/a	WORD	1541145	wordpools/wasnorm_wordpool_576.txt	LTP323	ltpFR2	5	13	RIVER	1194	n/a	n/a	0	0	0
3085.112	n/a	WORD	1542556	wordpools/wasnorm_wordpool_576.txt	LTP323	ltpFR2	5	13	COURSE	390	n/a	n/a	0	0	0
3087.626	n/a	WORD	1543813	wordpools/wasnorm_wordpool_576.txt	LTP323	ltpFR2	5	13	SPOUSE	1358	n/a	n/a	0	0	0
3090.096	n/a	WORD	1545048	wordpools/wasnorm_wordpool_576.txt	LTP323	ltpFR2	5	13	VALLEY	1545	n/a	n/a	0	0	0
3092.718	n/a	WORD	1546359	wordpools/wasnorm_wordpool_576.txt	LTP323	ltpFR2	5	13	MARSH	874	n/a	n/a	0	0	0
3095.332	n/a	WORD	1547666	wordpools/wasnorm_wordpool_576.txt	LTP323	ltpFR2	5	13	GREASE	660	n/a	n/a	0	0	0
3098.09	n/a	WORD	1549045	wordpools/wasnorm_wordpool_576.txt	LTP323	ltpFR2	5	13	PILOT	1070	n/a	n/a	0	0	0
3100.642	n/a	WORD	1550321	wordpools/wasnorm_wordpool_576.txt	LTP323	ltpFR2	5	13	TROUT	1511	n/a	n/a	0	0	0
3103.344	n/a	WORD	1551672	wordpools/wasnorm_wordpool_576.txt	LTP323	ltpFR2	5	13	PAIL	1002	n/a	n/a	0	0	0
3104.956	n/a	START	1552478	n/a	LTP323	ltpFR2	5	n/a	n/a	n/a	19	n/a	n/a	n/a	n/a
3106.124	n/a	DISTRACTOR	1553062	n/a	LTP323	ltpFR2	5	13	n/a	n/a	n/a	n/a	0	0	0
3106.14	n/a	PROB	1553070	n/a	LTP323	ltpFR2	5	n/a	n/a	n/a	19	9	1	7	1
3108.312	n/a	PROB	1554156	n/a	LTP323	ltpFR2	5	n/a	n/a	n/a	19	20	9	2	9
3110.582	n/a	PROB	1555291	n/a	LTP323	ltpFR2	5	n/a	n/a	n/a	19	15	3	5	7
3112.766	n/a	PROB	1556383	n/a	LTP323	ltpFR2	5	n/a	n/a	n/a	19	13	6	4	3
3114.234	n/a	PROB	1557117	n/a	LTP323	ltpFR2	5	n/a	n/a	n/a	19	16	5	4	7
3116.186	n/a	PROB	1558093	n/a	LTP323	ltpFR2	5	n/a	n/a	n/a	19	12	4	1	7
3118.424	n/a	PROB	1559212	n/a	LTP323	ltpFR2	5	n/a	n/a	n/a	19	13	7	3	3
3119.924	n/a	PROB	1559962	n/a	LTP323	ltpFR2	5	n/a	n/a	n/a	19	11	2	8	1
3121.5	n/a	PROB	1560750	n/a	LTP323	ltpFR2	5	n/a	n/a	n/a	19	14	8	5	1
3123.826	n/a	PROB	1561913	n/a	LTP323	ltpFR2	5	n/a	n/a	n/a	19	7	2	1	4
3125.894	n/a	PROB	1562947	n/a	LTP323	ltpFR2	5	n/a	n/a	n/a	19	8	4	1	3
3127.78	n/a	STOP	1563890	n/a	LTP323	ltpFR2	5	n/a	n/a	n/a	19	n/a	n/a	n/a	n/a
3130.748	n/a	REC_START	1565374	n/a	LTP323	ltpFR2	5	13	n/a	n/a	n/a	n/a	0	0	0
3132.326	n/a	REC_WORD	1566163	wordpools/wasnorm_wordpool_576.txt	LTP323	ltpFR2	5	13	SUMMIT	1405	n/a	n/a	0	0	0
3132.894	n/a	REC_WORD	1566447	wordpools/wasnorm_wordpool_576.txt	LTP323	ltpFR2	5	13	LODGE	839	n/a	n/a	0	0	0
3134.078	n/a	REC_WORD	1567039	wordpools/wasnorm_wordpool_576.txt	LTP323	ltpFR2	5	13	VALLEY	1545	n/a	n/a	0	0	0
3134.848	n/a	REC_WORD	1567424	wordpools/wasnorm_wordpool_576.txt	LTP323	ltpFR2	5	13	RIVER	1194	n/a	n/a	0	0	0
3135.674	n/a	REC_WORD	1567837	wordpools/wasnorm_wordpool_576.txt	LTP323	ltpFR2	5	13	COURSE	390	n/a	n/a	0	0	0
3138.664	n/a	REC_WORD	1569332	wordpools/wasnorm_wordpool_576.txt	LTP323	ltpFR2	5	13	SUSPECT	1415	n/a	n/a	0	0	0
3139.378	n/a	REC_WORD	1569689	wordpools/wasnorm_wordpool_576.txt	LTP323	ltpFR2	5	13	FIDDLE	561	n/a	n/a	0	0	0
3139.704	n/a	REC_WORD	1569852	wordpools/wasnorm_wordpool_576.txt	LTP323	ltpFR2	5	13	MARSH	874	n/a	n/a	0	0	0
3141.844	n/a	REC_WORD	1570922	wordpools/wasnorm_wordpool_576.txt	LTP323	ltpFR2	5	13	TROUT	1511	n/a	n/a	0	0	0
3142.674	n/a	REC_WORD	1571337	wordpools/wasnorm_wordpool_576.txt	LTP323	ltpFR2	5	13	COD	340	n/a	n/a	0	0	0
3143.282	n/a	REC_WORD	1571641	wordpools/wasnorm_wordpool_576.txt	LTP323	ltpFR2	5	13	JELLO	754	n/a	n/a	0	0	0
3144.462	n/a	REC_WORD	1572231	wordpools/wasnorm_wordpool_576.txt	LTP323	ltpFR2	5	13	DONKEY	484	n/a	n/a	0	0	0
3145.01	n/a	REC_WORD	1572505	wordpools/wasnorm_wordpool_576.txt	LTP323	ltpFR2	5	13	BACKBONE	66	n/a	n/a	0	0	0
3145.934	n/a	REC_WORD	1572967	wordpools/wasnorm_wordpool_576.txt	LTP323	ltpFR2	5	13	MARROW	872	n/a	n/a	0	0	0
3147.296	n/a	REC_WORD	1573648	wordpools/wasnorm_wordpool_576.txt	LTP323	ltpFR2	5	13	CHAMPAGNE	278	n/a	n/a	0	0	0
3148.47	n/a	REC_WORD	1574235	wordpools/wasnorm_wordpool_576.txt	LTP323	ltpFR2	5	13	GRAPE	654	n/a	n/a	0	0	0
3148.92	n/a	REC_WORD	1574460	wordpools/wasnorm_wordpool_576.txt	LTP323	ltpFR2	5	13	CITRUS	313	n/a	n/a	0	0	0
3149.92	n/a	REC_WORD_VV	1574960	wordpools/wasnorm_wordpool_576.txt	LTP323	ltpFR2	5	13	<>	-1	n/a	n/a	0	0	0
3160.73	n/a	REC_WORD	1580365	wordpools/wasnorm_wordpool_576.txt	LTP323	ltpFR2	5	13	SPOUSE	1358	n/a	n/a	0	0	0
3170.19	n/a	REC_WORD	1585095	wordpools/wasnorm_wordpool_576.txt	LTP323	ltpFR2	5	13	GREASE	660	n/a	n/a	0	0	0
3172.164	n/a	REC_WORD	1586082	wordpools/wasnorm_wordpool_576.txt	LTP323	ltpFR2	5	13	PILOT	1070	n/a	n/a	0	0	0
3179.94	n/a	REC_WORD	1589970	wordpools/wasnorm_wordpool_576.txt	LTP323	ltpFR2	5	13	YOLK	1633	n/a	n/a	0	0	0
3180.482	n/a	REC_WORD	1590241	wordpools/wasnorm_wordpool_576.txt	LTP323	ltpFR2	5	13	CUSTARD	429	n/a	n/a	0	0	0
3221.196	n/a	DISTRACTOR	1610598	n/a	LTP323	ltpFR2	5	14	n/a	n/a	n/a	n/a	0	0	0
3221.198	n/a	START	1610599	n/a	LTP323	ltpFR2	5	n/a	n/a	n/a	20	n/a	n/a	n/a	n/a
3221.21	n/a	PROB	1610605	n/a	LTP323	ltpFR2	5	n/a	n/a	n/a	20	20	3	8	9
3223.962	n/a	PROB	1611981	n/a	LTP323	ltpFR2	5	n/a	n/a	n/a	20	13	4	4	5
3226.114	n/a	PROB	1613057	n/a	LTP323	ltpFR2	5	n/a	n/a	n/a	20	13	5	4	4
3227.882	n/a	PROB	1613941	n/a	LTP323	ltpFR2	5	n/a	n/a	n/a	20	13	1	6	6
3230.016	n/a	PROB	1615008	n/a	LTP323	ltpFR2	5	n/a	n/a	n/a	20	24	8	8	8
3233.322	n/a	PROB	1616661	n/a	LTP323	ltpFR2	5	n/a	n/a	n/a	20	13	8	4	1
3234.954	n/a	PROB	1617477	n/a	LTP323	ltpFR2	5	n/a	n/a	n/a	20	10	1	6	3
3237.26	n/a	PROB	1618630	n/a	LTP323	ltpFR2	5	n/a	n/a	n/a	20	13	1	7	5
3239.09	n/a	PROB	1619545	n/a	LTP323	ltpFR2	5	n/a	n/a	n/a	20	23	9	8	6
3241.66	n/a	PROB	1620830	n/a	LTP323	ltpFR2	5	n/a	n/a	n/a	20	19	5	9	5
3245.196	n/a	STOP	1622598	n/a	LTP323	ltpFR2	5	n/a	n/a	n/a	20	n/a	n/a	n/a	n/a
3246.166	n/a	WORD	1623083	wordpools/wasnorm_wordpool_576.txt	LTP323	ltpFR2	5	14	LIVER	833	n/a	n/a	0	0	0
3248.802	n/a	WORD	1624401	wordpools/wasnorm_wordpool_576.txt	LTP323	ltpFR2	5	14	MISSILE	900	n/a	n/a	0	0	0
3251.52	n/a	WORD	1625760	wordpools/wasnorm_wordpool_576.txt	LTP323	ltpFR2	5	14	STREAM	1392	n/a	n/a	0	0	0
3254.124	n/a	WORD	1627062	wordpools/wasnorm_wordpool_576.txt	LTP323	ltpFR2	5	14	HIKER	708	n/a	n/a	0	0	0
3256.642	n/a	WORD	1628321	wordpools/wasnorm_wordpool_576.txt	LTP323	ltpFR2	5	14	SWORD	1423	n/a	n/a	0	0	0
3259.196	n/a	WORD	1629598	wordpools/wasnorm_wordpool_576.txt	LTP323	ltpFR2	5	14	FOOT	590	n/a	n/a	0	0	0
3261.914	n/a	WORD	1630957	wordpools/wasnorm_wordpool_576.txt	LTP323	ltpFR2	5	14	SILK	1307	n/a	n/a	0	0	0
3264.416	n/a	WORD	1632208	wordpools/wasnorm_wordpool_576.txt	LTP323	ltpFR2	5	14	TRACTOR	1493	n/a	n/a	0	0	0
3266.852	n/a	WORD	1633426	wordpools/wasnorm_wordpool_576.txt	LTP323	ltpFR2	5	14	FARMER	553	n/a	n/a	0	0	0
3269.32	n/a	WORD	1634660	wordpools/wasnorm_wordpool_576.txt	LTP323	ltpFR2	5	14	LIPSTICK	829	n/a	n/a	0	0	0
3271.972	n/a	WORD	1635986	wordpools/wasnorm_wordpool_576.txt	LTP323	ltpFR2	5	14	VICTIM	1562	n/a	n/a	0	0	0
3274.624	n/a	WORD	1637312	wordpools/wasnorm_wordpool_576.txt	LTP323	ltpFR2	5	14	JUGGLER	763	n/a	n/a	0	0	0
3277.26	n/a	WORD	1638630	wordpools/wasnorm_wordpool_576.txt	LTP323	ltpFR2	5	14	ACTRESS	6	n/a	n/a	0	0	0
3279.88	n/a	WORD	1639940	wordpools/wasnorm_wordpool_576.txt	LTP323	ltpFR2	5	14	CROSS	413	n/a	n/a	0	0	0
3282.464	n/a	WORD	1641232	wordpools/wasnorm_wordpool_576.txt	LTP323	ltpFR2	5	14	CHAPEL	280	n/a	n/a	0	0	0
3284.916	n/a	WORD	1642458	wordpools/wasnorm_wordpool_576.txt	LTP323	ltpFR2	5	14	EMPIRE	530	n/a	n/a	0	0	0
3287.734	n/a	WORD	1643867	wordpools/wasnorm_wordpool_576.txt	LTP323	ltpFR2	5	14	SALT	1229	n/a	n/a	0	0	0
3290.386	n/a	WORD	1645193	wordpools/wasnorm_wordpool_576.txt	LTP323	ltpFR2	5	14	DORM	488	n/a	n/a	0	0	0
3292.972	n/a	WORD	1646486	wordpools/wasnorm_wordpool_576.txt	LTP323	ltpFR2	5	14	LION	827	n/a	n/a	0	0	0
3295.524	n/a	WORD	1647762	wordpools/wasnorm_wordpool_576.txt	LTP323	ltpFR2	5	14	LAKE	796	n/a	n/a	0	0	0
3298.262	n/a	WORD	1649131	wordpools/wasnorm_wordpool_576.txt	LTP323	ltpFR2	5	14	WARDROBE	1587	n/a	n/a	0	0	0
3300.864	n/a	WORD	1650432	wordpools/wasnorm_wordpool_576.txt	LTP323	ltpFR2	5	14	WRIST	1626	n/a	n/a	0	0	0
3303.48	n/a	WORD	1651740	wordpools/wasnorm_wordpool_576.txt	LTP323	ltpFR2	5	14	GUARD	667	n/a	n/a	0	0	0
3306.184	n/a	WORD	1653092	wordpools/wasnorm_wordpool_576.txt	LTP323	ltpFR2	5	14	BEEF	113	n/a	n/a	0	0	0
3307.8	n/a	START	1653900	n/a	LTP323	ltpFR2	5	n/a	n/a	n/a	21	n/a	n/a	n/a	n/a
3308.966	n/a	DISTRACTOR	1654483	n/a	LTP323	ltpFR2	5	14	n/a	n/a	n/a	n/a	0	0	0
3308.984	n/a	PROB	1654492	n/a	LTP323	ltpFR2	5	n/a	n/a	n/a	21	17	7	1	9
3312.336	n/a	PROB	1656168	n/a	LTP323	ltpFR2	5	n/a	n/a	n/a	21	21	6	9	6
3314.638	n/a	PROB	1657319	n/a	LTP323	ltpFR2	5	n/a	n/a	n/a	21	13	3	2	8
3316.386	n/a	PROB	1658193	n/a	LTP323	ltpFR2	5	n/a	n/a	n/a	21	24	6	9	9
3320.024	n/a	PROB	1660012	n/a	LTP323	ltpFR2	5	n/a	n/a	n/a	21	23	9	5	9
3324.294	n/a	PROB	1662147	n/a	LTP323	ltpFR2	5	n/a	n/a	n/a	21	21	8	8	5
3326.918	n/a	PROB	1663459	n/a	LTP323	ltpFR2	5	n/a	n/a	n/a	21	19	9	3	7
3328.646	n/a	PROB	1664323	n/a	LTP323	ltpFR2	5	n/a	n/a	n/a	21	21	9	5	7
3330.784	n/a	STOP	1665392	n/a	LTP323	ltpFR2	5	n/a	n/a	n/a	21	n/a	n/a	n/a	n/a
3333.672	n/a	REC_START	1666836	n/a	LTP323	ltpFR2	5	14	n/a	n/a	n/a	n/a	0	0	0
3335.702	n/a	REC_WORD	1667851	wordpools/wasnorm_wordpool_576.txt	LTP323	ltpFR2	5	14	WRIST	1626	n/a	n/a	0	0	0
3336.118	n/a	REC_WORD	1668059	wordpools/wasnorm_wordpool_576.txt	LTP323	ltpFR2	5	14	SWORD	1423	n/a	n/a	0	0	0
3336.73	n/a	REC_WORD	1668365	wordpools/wasnorm_wordpool_576.txt	LTP323	ltpFR2	5	14	FOOT	590	n/a	n/a	0	0	0
3337.822	n/a	REC_WORD	1668911	wordpools/wasnorm_wordpool_576.txt	LTP323	ltpFR2	5	14	LIVER	833	n/a	n/a	0	0	0
3338.384	n/a	REC_WORD	1669192	wordpools/wasnorm_wordpool_576.txt	LTP323	ltpFR2	5	14	HIKER	708	n/a	n/a	0	0	0
3339.116	n/a	REC_WORD	1669558	wordpools/wasnorm_wordpool_576.txt	LTP323	ltpFR2	5	14	STREAM	1392	n/a	n/a	0	0	0
3341.454	n/a	REC_WORD	1670727	wordpools/wasnorm_wordpool_576.txt	LTP323	ltpFR2	5	14	FARMER	553	n/a	n/a	0	0	0
3342.564	n/a	REC_WORD	1671282	wordpools/wasnorm_wordpool_576.txt	LTP323	ltpFR2	5	14	TRACTOR	1493	n/a	n/a	0	0	0
3343.402	n/a	REC_WORD	1671701	wordpools/wasnorm_wordpool_576.txt	LTP323	ltpFR2	5	14	MISSILE	900	n/a	n/a	0	0	0
3345.548	n/a	REC_WORD	1672774	wordpools/wasnorm_wordpool_576.txt	LTP323	ltpFR2	5	14	ACTRESS	6	n/a	n/a	0	0	0
3346.548	n/a	REC_WORD_VV	1673274	wordpools/wasnorm_wordpool_576.txt	LTP323	ltpFR2	5	14	<>	-1	n/a	n/a	0	0	0
3347.434	n/a	REC_WORD	1673717	wordpools/wasnorm_wordpool_576.txt	LTP323	ltpFR2	5	14	LIPSTICK	829	n/a	n/a	0	0	0
3350.562	n/a	REC_WORD	1675281	wordpools/wasnorm_wordpool_576.txt	LTP323	ltpFR2	5	14	CHAPEL	280	n/a	n/a	0	0	0
3351.23	n/a	REC_WORD	1675615	wordpools/wasnorm_wordpool_576.txt	LTP323	ltpFR2	5	14	CROSS	413	n/a	n/a	0	0	0
3351.886	n/a	REC_WORD	1675943	wordpools/wasnorm_wordpool_576.txt	LTP323	ltpFR2	5	14	LAKE	796	n/a	n/a	0	0	0
3353.56	n/a	REC_WORD	1676780	wordpools/wasnorm_wordpool_576.txt	LTP323	ltpFR2	5	14	EMPIRE	530	n/a	n/a	0	0	0
3354.308	n/a	REC_WORD	1677154	wordpools/wasnorm_wordpool_576.txt	LTP323	ltpFR2	5	14	SALT	1229	n/a	n/a	0	0	0
3355.148	n/a	REC_WORD	1677574	wordpools/wasnorm_wordpool_576.txt	LTP323	ltpFR2	5	14	DORM	488	n/a	n/a	0	0	0
3355.61	n/a	REC_WORD	1677805	wordpools/wasnorm_wordpool_576.txt	LTP323	ltpFR2	5	14	LION	827	n/a	n/a	0	0	0
3369.754	n/a	REC_WORD	1684877	wordpools/wasnorm_wordpool_576.txt	LTP323	ltpFR2	5	14	SWORD	1423	n/a	n/a	0	0	0
3370.56	n/a	REC_WORD	1685280	wordpools/wasnorm_wordpool_576.txt	LTP323	ltpFR2	5	14	SILK	1307	n/a	n/a	0	0	0
3424.102	n/a	WORD	1712051	wordpools/wasnorm_wordpool_576.txt	LTP323	ltpFR2	5	15	RAFT	1159	n/a	n/a	0	0	0
3426.872	n/a	WORD	1713436	wordpools/wasnorm_wordpool_576.txt	LTP323	ltpFR2	5	15	PUDDLE	1140	n/a	n/a	0	0	0
3429.64	n/a	WORD	1714820	wordpools/wasnorm_wordpool_576.txt	LTP323	ltpFR2	5	15	RELISH	1183	n/a	n/a	0	0	0
3432.398	n/a	WORD	1716199	wordpools/wasnorm_wordpool_576.txt	LTP323	ltpFR2	5	15	KETCHUP	771	n/a	n/a	0	0	0
3434.846	n/a	WORD	1717423	wordpools/wasnorm_wordpool_576.txt	LTP323	ltpFR2	5	15	LEADER	807	n/a	n/a	0	0	0
3437.52	n/a	WORD	1718760	wordpools/wasnorm_wordpool_576.txt	LTP323	ltpFR2	5	15	SLOPE	1328	n/a	n/a	0	0	0
3440.14	n/a	WORD	1720070	wordpools/wasnorm_wordpool_576.txt	LTP323	ltpFR2	5	15	ROBBER	1197	n/a	n/a	0	0	0
3442.736	n/a	WORD	1721368	wordpools/wasnorm_wordpool_576.txt	LTP323	ltpFR2	5	15	MILDEW	893	n/a	n/a	0	0	0
3445.442	n/a	WORD	1722721	wordpools/wasnorm_wordpool_576.txt	LTP323	ltpFR2	5	15	JUDGE	761	n/a	n/a	0	0	0
3448.158	n/a	WORD	1724079	wordpools/wasnorm_wordpool_576.txt	LTP323	ltpFR2	5	15	CHEMIST	292	n/a	n/a	0	0	0
3450.608	n/a	WORD	1725304	wordpools/wasnorm_wordpool_576.txt	LTP323	ltpFR2	5	15	FLASK	576	n/a	n/a	0	0	0
3453.212	n/a	WORD	1726606	wordpools/wasnorm_wordpool_576.txt	LTP323	ltpFR2	5	15	BANKER	84	n/a	n/a	0	0	0
3456.03	n/a	WORD	1728015	wordpools/wasnorm_wordpool_576.txt	LTP323	ltpFR2	5	15	CONTRACT	368	n/a	n/a	0	0	0
3458.534	n/a	WORD	1729267	wordpools/wasnorm_wordpool_576.txt	LTP323	ltpFR2	5	15	ROD	1203	n/a	n/a	0	0	0
3461.318	n/a	WORD	1730659	wordpools/wasnorm_wordpool_576.txt	LTP323	ltpFR2	5	15	CUPBOARD	425	n/a	n/a	0	0	0
3463.77	n/a	WORD	1731885	wordpools/wasnorm_wordpool_576.txt	LTP323	ltpFR2	5	15	XEROX	1628	n/a	n/a	0	0	0
3466.41	n/a	WORD	1733205	wordpools/wasnorm_wordpool_576.txt	LTP323	ltpFR2	5	15	PECAN	1036	n/a	n/a	0	0	0
3468.912	n/a	WORD	1734456	wordpools/wasnorm_wordpool_576.txt	LTP323	ltpFR2	5	15	SHARK	1275	n/a	n/a	0	0	0
3471.61	n/a	WORD	1735805	wordpools/wasnorm_wordpool_576.txt	LTP323	ltpFR2	5	15	PEPPER	1047	n/a	n/a	0	0	0
3474.18	n/a	WORD	1737090	wordpools/wasnorm_wordpool_576.txt	LTP323	ltpFR2	5	15	COUSIN	392	n/a	n/a	0	0	0
3476.648	n/a	WORD	1738324	wordpools/wasnorm_wordpool_576.txt	LTP323	ltpFR2	5	15	SEAGULL	1261	n/a	n/a	0	0	0
3479.316	n/a	WORD	1739658	wordpools/wasnorm_wordpool_576.txt	LTP323	ltpFR2	5	15	COFFEE	341	n/a	n/a	0	0	0
3482.054	n/a	WORD	1741027	wordpools/wasnorm_wordpool_576.txt	LTP323	ltpFR2	5	15	FOREHEAD	592	n/a	n/a	0	0	0
3484.872	n/a	WORD	1742436	wordpools/wasnorm_wordpool_576.txt	LTP323	ltpFR2	5	15	WITNESS	1618	n/a	n/a	0	0	0
3486.49	n/a	START	1743245	n/a	LTP323	ltpFR2	5	n/a	n/a	n/a	22	n/a	n/a	n/a	n/a
3487.476	n/a	DISTRACTOR	1743738	n/a	LTP323	ltpFR2	5	15	n/a	n/a	n/a	n/a	0	0	0
3487.49	n/a	PROB	1743745	n/a	LTP323	ltpFR2	5	n/a	n/a	n/a	22	15	7	6	2
3491.424	n/a	PROB	1745712	n/a	LTP323	ltpFR2	5	n/a	n/a	n/a	22	14	3	7	4
3494.228	n/a	PROB	1747114	n/a	LTP323	ltpFR2	5	n/a	n/a	n/a	22	8	3	4	1
3496.13	n/a	PROB	1748065	n/a	LTP323	ltpFR2	5	n/a	n/a	n/a	22	9	2	2	5
3498.33	n/a	PROB	1749165	n/a	LTP323	ltpFR2	5	n/a	n/a	n/a	22	12	4	7	1
3500.216	n/a	PROB	1750108	n/a	LTP323	ltpFR2	5	n/a	n/a	n/a	22	17	5	8	4
3502.788	n/a	PROB	1751394	n/a	LTP323	ltpFR2	5	n/a	n/a	n/a	22	21	7	6	8
3505.39	n/a	PROB	1752695	n/a	LTP323	ltpFR2	5	n/a	n/a	n/a	22	19	9	2	8
3507.572	n/a	PROB	1753786	n/a	LTP323	ltpFR2	5	n/a	n/a	n/a	22	13	1	4	8
3509.134	n/a	STOP	1754567	n/a	LTP323	ltpFR2	5	n/a	n/a	n/a	22	n/a	n/a	n/a	n/a
3512.312	n/a	REC_START	1756156	n/a	LTP323	ltpFR2	5	15	n/a	n/a	n/a	n/a	0	0	0
3513.326	n/a	REC_WORD	1756663	wordpools/wasnorm_wordpool_576.txt	LTP323	ltpFR2	5	15	SEAGULL	1261	n/a	n/a	0	0	0
3514.196	n/a	REC_WORD	1757098	wordpools/wasnorm_wordpool_576.txt	LTP323	ltpFR2	5	15	FOREHEAD	592	n/a	n/a	0	0	0
3516.122	n/a	REC_WORD	1758061	wordpools/wasnorm_wordpool_576.txt	LTP323	ltpFR2	5	15	COFFEE	341	n/a	n/a	0	0	0
3517.772	n/a	REC_WORD	1758886	wordpools/wasnorm_wordpool_576.txt	LTP323	ltpFR2	5	15	COUSIN	392	n/a	n/a	0	0	0
3519.854	n/a	REC_WORD	1759927	wordpools/wasnorm_wordpool_576.txt	LTP323	ltpFR2	5	15	JUDGE	761	n/a	n/a	0	0	0
3520.654	n/a	REC_WORD	1760327	wordpools/wasnorm_wordpool_576.txt	LTP323	ltpFR2	5	15	BANKER	84	n/a	n/a	0	0	0
3521.898	n/a	REC_WORD	1760949	wordpools/wasnorm_wordpool_576.txt	LTP323	ltpFR2	5	15	LEADER	807	n/a	n/a	0	0	0
3522.528	n/a	REC_WORD	1761264	wordpools/wasnorm_wordpool_576.txt	LTP323	ltpFR2	5	15	CHEMIST	292	n/a	n/a	0	0	0
3523.084	n/a	REC_WORD	1761542	wordpools/wasnorm_wordpool_576.txt	LTP323	ltpFR2	5	15	FLASK	576	n/a	n/a	0	0	0
3524.754	n/a	REC_WORD	1762377	wordpools/wasnorm_wordpool_576.txt	LTP323	ltpFR2	5	15	CONTRACT	368	n/a	n/a	0	0	0
3525.82	n/a	REC_WORD	1762910	wordpools/wasnorm_wordpool_576.txt	LTP323	ltpFR2	5	15	XEROX	1628	n/a	n/a	0	0	0
3526.82	n/a	REC_WORD_VV	1763410	wordpools/wasnorm_wordpool_576.txt	LTP323	ltpFR2	5	15	<>	-1	n/a	n/a	0	0	0
3534.084	n/a	REC_WORD	1767042	wordpools/wasnorm_wordpool_576.txt	LTP323	ltpFR2	5	15	KETCHUP	771	n/a	n/a	0	0	0
3535.046	n/a	REC_WORD	1767523	wordpools/wasnorm_wordpool_576.txt	LTP323	ltpFR2	5	15	RELISH	1183	n/a	n/a	0	0	0
3536.064	n/a	REC_WORD	1768032	wordpools/wasnorm_wordpool_576.txt	LTP323	ltpFR2	5	15	PUDDLE	1140	n/a	n/a	0	0	0
3536.652	n/a	REC_WORD	1768326	wordpools/wasnorm_wordpool_576.txt	LTP323	ltpFR2	5	15	RAFT	1159	n/a	n/a	0	0	0
3538.414	n/a	REC_WORD	1769207	wordpools/wasnorm_wordpool_576.txt	LTP323	ltpFR2	5	15	SLOPE	1328	n/a	n/a	0	0	0
3547.706	n/a	REC_WORD	1773853	wordpools/wasnorm_wordpool_576.txt	LTP323	ltpFR2	5	15	MILDEW	893	n/a	n/a	0	0	0
3551.578	n/a	REC_WORD	1775789	wordpools/wasnorm_wordpool_576.txt	LTP323	ltpFR2	5	15	CUPBOARD	425	n/a	n/a	0	0	0
3553.412	n/a	REC_WORD	1776706	wordpools/wasnorm_wordpool_576.txt	LTP323	ltpFR2	5	15	SHARK	1275	n/a	n/a	0	0	0
3554.334	n/a	REC_WORD	1777167	wordpools/wasnorm_wordpool_576.txt	LTP323	ltpFR2	5	15	PEPPER	1047	n/a	n/a	0	0	0
3585.652	n/a	REC_WORD	1792826	wordpools/wasnorm_wordpool_576.txt	LTP323	ltpFR2	5	15	BANKER	84	n/a	n/a	0	0	0
3602.75	n/a	DISTRACTOR	1801375	n/a	LTP323	ltpFR2	5	16	n/a	n/a	n/a	n/a	0	0	0
3602.752	n/a	START	1801376	n/a	LTP323	ltpFR2	5	n/a	n/a	n/a	23	n/a	n/a	n/a	n/a
3602.764	n/a	PROB	1801382	n/a	LTP323	ltpFR2	5	n/a	n/a	n/a	23	25	8	9	8
3606.858	n/a	PROB	1803429	n/a	LTP323	ltpFR2	5	n/a	n/a	n/a	23	7	2	4	1
3609.592	n/a	PROB	1804796	n/a	LTP323	ltpFR2	5	n/a	n/a	n/a	23	12	5	5	2
3611.378	n/a	PROB	1805689	n/a	LTP323	ltpFR2	5	n/a	n/a	n/a	23	13	3	5	5
3613.93	n/a	PROB	1806965	n/a	LTP323	ltpFR2	5	n/a	n/a	n/a	23	23	7	7	9
3617.032	n/a	PROB	1808516	n/a	LTP323	ltpFR2	5	n/a	n/a	n/a	23	5	1	3	1
3618.516	n/a	PROB	1809258	n/a	LTP323	ltpFR2	5	n/a	n/a	n/a	23	5	1	1	3
3619.854	n/a	PROB	1809927	n/a	LTP323	ltpFR2	5	n/a	n/a	n/a	23	13	6	5	2
3621.922	n/a	PROB	1810961	n/a	LTP323	ltpFR2	5	n/a	n/a	n/a	23	17	5	4	8
3626.752	n/a	STOP	1813376	n/a	LTP323	ltpFR2	5	n/a	n/a	n/a	23	n/a	n/a	n/a	n/a
3627.696	n/a	WORD	1813848	wordpools/wasnorm_wordpool_576.txt	LTP323	ltpFR2	5	16	ORANGE	980	n/a	n/a	0	0	0
3630.348	n/a	WORD	1815174	wordpools/wasnorm_wordpool_576.txt	LTP323	ltpFR2	5	16	BLOUSE	139	n/a	n/a	0	0	0
3632.874	n/a	WORD	1816437	wordpools/wasnorm_wordpool_576.txt	LTP323	ltpFR2	5	16	PLASTER	1085	n/a	n/a	0	0	0
3635.486	n/a	WORD	1817743	wordpools/wasnorm_wordpool_576.txt	LTP323	ltpFR2	5	16	TORTOISE	1486	n/a	n/a	0	0	0
3638.072	n/a	WORD	1819036	wordpools/wasnorm_wordpool_576.txt	LTP323	ltpFR2	5	16	MONSTER	912	n/a	n/a	0	0	0
3640.858	n/a	WORD	1820429	wordpools/wasnorm_wordpool_576.txt	LTP323	ltpFR2	5	16	CREATURE	403	n/a	n/a	0	0	0
3643.358	n/a	WORD	1821679	wordpools/wasnorm_wordpool_576.txt	LTP323	ltpFR2	5	16	SUNSET	1408	n/a	n/a	0	0	0
3646.112	n/a	WORD	1823056	wordpools/wasnorm_wordpool_576.txt	LTP323	ltpFR2	5	16	BEAVER	109	n/a	n/a	0	0	0
3648.82	n/a	WORD	1824410	wordpools/wasnorm_wordpool_576.txt	LTP323	ltpFR2	5	16	BIKE	125	n/a	n/a	0	0	0
3651.272	n/a	WORD	1825636	wordpools/wasnorm_wordpool_576.txt	LTP323	ltpFR2	5	16	HOOD	714	n/a	n/a	0	0	0
3654.068	n/a	WORD	1827034	wordpools/wasnorm_wordpool_576.txt	LTP323	ltpFR2	5	16	MATCH	878	n/a	n/a	0	0	0
3656.776	n/a	WORD	1828388	wordpools/wasnorm_wordpool_576.txt	LTP323	ltpFR2	5	16	FIREMAN	569	n/a	n/a	0	0	0
3659.338	n/a	WORD	1829669	wordpools/wasnorm_wordpool_576.txt	LTP323	ltpFR2	5	16	JELLY	755	n/a	n/a	0	0	0
3661.926	n/a	WORD	1830963	wordpools/wasnorm_wordpool_576.txt	LTP323	ltpFR2	5	16	FINGER	567	n/a	n/a	0	0	0
3664.484	n/a	WORD	1832242	wordpools/wasnorm_wordpool_576.txt	LTP323	ltpFR2	5	16	ELBOW	520	n/a	n/a	0	0	0
3667.12	n/a	WORD	1833560	wordpools/wasnorm_wordpool_576.txt	LTP323	ltpFR2	5	16	SCOTCH	1251	n/a	n/a	0	0	0
3669.614	n/a	WORD	1834807	wordpools/wasnorm_wordpool_576.txt	LTP323	ltpFR2	5	16	VIKING	1565	n/a	n/a	0	0	0
3672.316	n/a	WORD	1836158	wordpools/wasnorm_wordpool_576.txt	LTP323	ltpFR2	5	16	PANTHER	1009	n/a	n/a	0	0	0
3674.902	n/a	WORD	1837451	wordpools/wasnorm_wordpool_576.txt	LTP323	ltpFR2	5	16	LEOPARD	812	n/a	n/a	0	0	0
3677.438	n/a	WORD	1838719	wordpools/wasnorm_wordpool_576.txt	LTP323	ltpFR2	5	16	CABIN	211	n/a	n/a	0	0	0
3680.04	n/a	WORD	1840020	wordpools/wasnorm_wordpool_576.txt	LTP323	ltpFR2	5	16	SNAIL	1332	n/a	n/a	0	0	0
3682.708	n/a	WORD	1841354	wordpools/wasnorm_wordpool_576.txt	LTP323	ltpFR2	5	16	AUTHOR	61	n/a	n/a	0	0	0
3685.294	n/a	WORD	1842647	wordpools/wasnorm_wordpool_576.txt	LTP323	ltpFR2	5	16	STICKER	1382	n/a	n/a	0	0	0
3688.114	n/a	WORD	1844057	wordpools/wasnorm_wordpool_576.txt	LTP323	ltpFR2	5	16	OUTDOORS	987	n/a	n/a	0	0	0
3689.732	n/a	START	1844866	n/a	LTP323	ltpFR2	5	n/a	n/a	n/a	24	n/a	n/a	n/a	n/a
3690.642	n/a	DISTRACTOR	1845321	n/a	LTP323	ltpFR2	5	16	n/a	n/a	n/a	n/a	0	0	0
3690.648	n/a	PROB	1845324	n/a	LTP323	ltpFR2	5	n/a	n/a	n/a	24	18	9	5	4
3692.914	n/a	PROB	1846457	n/a	LTP323	ltpFR2	5	n/a	n/a	n/a	24	16	5	7	4
3695.534	n/a	PROB	1847767	n/a	LTP323	ltpFR2	5	n/a	n/a	n/a	24	18	8	7	3
3697.154	n/a	PROB	1848577	n/a	LTP323	ltpFR2	5	n/a	n/a	n/a	24	15	3	6	6
3700.238	n/a	PROB	1850119	n/a	LTP323	ltpFR2	5	n/a	n/a	n/a	24	10	2	1	7
3702.69	n/a	PROB	1851345	n/a	LTP323	ltpFR2	5	n/a	n/a	n/a	24	22	8	8	6
3705.944	n/a	PROB	1852972	n/a	LTP323	ltpFR2	5	n/a	n/a	n/a	24	15	1	7	7
3708.428	n/a	PROB	1854214	n/a	LTP323	ltpFR2	5	n/a	n/a	n/a	24	16	5	3	8
