mstime	trial_type	stim_file	subject	experiment	session	trial	task	item_name	item_num	recog_resp	recog_conf	resp	color_r	color_g	color_b	case	font
0	SESS_START	n/a	LTP123	ltpFR	6	n/a	n/a	n/a	n/a	1	2	n/a	n/a	n/a	n/a	n/a	n/a
46832	WORD	wordpools/wasnorm_wordpool.txt	LTP123	ltpFR	6	1	1	WAITRESS	1581	0	n/a	1	0.422607421875	0.5869140625	0	lower	amplitud.ttf
50689	WORD	wordpools/wasnorm_wordpool.txt	LTP123	ltpFR	6	1	1	KING	777	n/a	n/a	1	0.422607421875	0.5869140625	0	lower	amplitud.ttf
54820	WORD	wordpools/wasnorm_wordpool.txt	LTP123	ltpFR	6	1	0	MISTER	901	n/a	n/a	1	0.57763671875	0.412841796875	1	upper	zerothre.ttf
58769	WORD	wordpools/wasnorm_wordpool.txt	LTP123	ltpFR	6	1	0	SUBURB	1399	n/a	n/a	0	0.57763671875	0.412841796875	1	upper	zerothre.ttf
62959	WORD	wordpools/wasnorm_wordpool.txt	LTP123	ltpFR	6	1	0	COLUMN	350	n/a	n/a	1	0.57763671875	0.412841796875	1	upper	zerothre.ttf
67050	WORD	wordpools/wasnorm_wordpool.txt	LTP123	ltpFR	6	1	0	CRITIC	410	n/a	n/a	1	0.57763671875	0.412841796875	1	upper	zerothre.ttf
71016	WORD	wordpools/wasnorm_wordpool.txt	LTP123	ltpFR	6	1	1	FOX	598	n/a	n/a	1	0.422607421875	0.5869140625	0	lower	amplitud.ttf
75081	WORD	wordpools/wasnorm_wordpool.txt	LTP123	ltpFR	6	1	1	PUPPY	1144	n/a	n/a	1	0.422607421875	0.5869140625	0	lower	amplitud.ttf
79221	WORD	wordpools/wasnorm_wordpool.txt	LTP123	ltpFR	6	1	0	MONARCH	906	n/a	n/a	1	0.57763671875	0.412841796875	1	upper	zerothre.ttf
83120	WORD	wordpools/wasnorm_wordpool.txt	LTP123	ltpFR	6	1	0	RECIPE	1175	n/a	n/a	0	0.57763671875	0.412841796875	1	upper	zerothre.ttf
87151	WORD	wordpools/wasnorm_wordpool.txt	LTP123	ltpFR	6	1	0	GHETTO	633	n/a	n/a	1	0.57763671875	0.412841796875	1	upper	zerothre.ttf
91092	WORD	wordpools/wasnorm_wordpool.txt	LTP123	ltpFR	6	1	0	WATER	1594	n/a	n/a	1	0.57763671875	0.412841796875	1	upper	zerothre.ttf
95057	WORD	wordpools/wasnorm_wordpool.txt	LTP123	ltpFR	6	1	1	HOSE	720	n/a	n/a	0	0.422607421875	0.5869140625	0	lower	amplitud.ttf
99089	WORD	wordpools/wasnorm_wordpool.txt	LTP123	ltpFR	6	1	1	BEVERAGE	123	n/a	n/a	0	0.422607421875	0.5869140625	0	lower	amplitud.ttf
103079	WORD	wordpools/wasnorm_wordpool.txt	LTP123	ltpFR	6	1	1	DEODORANT	448	n/a	n/a	0	0.422607421875	0.5869140625	0	lower	amplitud.ttf
107278	WORD	wordpools/wasnorm_wordpool.txt	LTP123	ltpFR	6	1	1	SNACK	1331	n/a	n/a	0	0.422607421875	0.5869140625	0	lower	amplitud.ttf
112942	REC_START	n/a	LTP123	ltpFR	6	1	n/a	n/a	n/a	n/a	n/a	n/a	n/a	n/a	n/a	n/a	n/a
113485	REC_WORD	wordpools/wasnorm_wordpool.txt	LTP123	ltpFR	6	1	1	SNACK	1331	n/a	n/a	0	n/a	n/a	n/a	n/a	n/a
114583	REC_WORD	wordpools/wasnorm_wordpool.txt	LTP123	ltpFR	6	1	1	DEODORANT	448	n/a	n/a	0	n/a	n/a	n/a	n/a	n/a
115591	REC_WORD	wordpools/wasnorm_wordpool.txt	LTP123	ltpFR	6	1	0	WATER	1594	n/a	n/a	1	n/a	n/a	n/a	n/a	n/a
116414	REC_WORD	wordpools/wasnorm_wordpool.txt	LTP123	ltpFR	6	1	1	HOSE	720	n/a	n/a	0	n/a	n/a	n/a	n/a	n/a
117901	REC_WORD	wordpools/wasnorm_wordpool.txt	LTP123	ltpFR	6	1	1	BEVERAGE	123	n/a	n/a	0	n/a	n/a	n/a	n/a	n/a
119607	REC_WORD	wordpools/wasnorm_wordpool.txt	LTP123	ltpFR	6	1	0	MONARCH	906	n/a	n/a	1	n/a	n/a	n/a	n/a	n/a
120545	REC_WORD	wordpools/wasnorm_wordpool.txt	LTP123	ltpFR	6	1	1	KING	777	n/a	n/a	1	n/a	n/a	n/a	n/a	n/a
121462	REC_WORD	wordpools/wasnorm_wordpool.txt	LTP123	ltpFR	6	1	1	WAITRESS	1581	n/a	n/a	1	n/a	n/a	n/a	n/a	n/a
122630	REC_WORD	wordpools/wasnorm_wordpool.txt	LTP123	ltpFR	6	1	0	GHETTO	633	n/a	n/a	1	n/a	n/a	n/a	n/a	n/a
126595	REC_WORD	wordpools/wasnorm_wordpool.txt	LTP123	ltpFR	6	1	0	SUBURB	1399	n/a	n/a	0	n/a	n/a	n/a	n/a	n/a
130183	REC_WORD	wordpools/wasnorm_wordpool.txt	LTP123	ltpFR	6	1	1	PUPPY	1144	n/a	n/a	1	n/a	n/a	n/a	n/a	n/a
204060	WORD	wordpools/wasnorm_wordpool.txt	LTP123	ltpFR	6	2	0	TURKEY	1520	n/a	n/a	1	0.57763671875	0.412841796875	1	upper	zerothre.ttf
208217	WORD	wordpools/wasnorm_wordpool.txt	LTP123	ltpFR	6	2	0	WRIST	1626	n/a	n/a	0	0.57763671875	0.412841796875	1	upper	zerothre.ttf
212357	WORD	wordpools/wasnorm_wordpool.txt	LTP123	ltpFR	6	2	0	CLARINET	317	n/a	n/a	1	0.57763671875	0.412841796875	1	upper	zerothre.ttf
216489	WORD	wordpools/wasnorm_wordpool.txt	LTP123	ltpFR	6	2	0	ORCHESTRA	981	n/a	n/a	1	0.57763671875	0.412841796875	1	upper	zerothre.ttf
220488	WORD	wordpools/wasnorm_wordpool.txt	LTP123	ltpFR	6	2	0	PREDATOR	1120	n/a	n/a	1	0.57763671875	0.412841796875	1	upper	zerothre.ttf
224561	WORD	wordpools/wasnorm_wordpool.txt	LTP123	ltpFR	6	2	0	APPLE	33	n/a	n/a	0	0.57763671875	0.412841796875	1	upper	zerothre.ttf
228543	WORD	wordpools/wasnorm_wordpool.txt	LTP123	ltpFR	6	2	1	HONEY	713	n/a	n/a	0	0.422607421875	0.5869140625	0	lower	amplitud.ttf
232633	WORD	wordpools/wasnorm_wordpool.txt	LTP123	ltpFR	6	2	1	WOLF	1619	n/a	n/a	1	0.422607421875	0.5869140625	0	lower	amplitud.ttf
236789	WORD	wordpools/wasnorm_wordpool.txt	LTP123	ltpFR	6	2	1	SLUG	1329	n/a	n/a	1	0.422607421875	0.5869140625	0	lower	amplitud.ttf
240664	WORD	wordpools/wasnorm_wordpool.txt	LTP123	ltpFR	6	2	1	TORTOISE	1486	n/a	n/a	1	0.422607421875	0.5869140625	0	lower	amplitud.ttf
244612	WORD	wordpools/wasnorm_wordpool.txt	LTP123	ltpFR	6	2	0	CLOSET	326	n/a	n/a	1	0.57763671875	0.412841796875	1	upper	zerothre.ttf
248818	WORD	wordpools/wasnorm_wordpool.txt	LTP123	ltpFR	6	2	0	IRON	744	n/a	n/a	0	0.57763671875	0.412841796875	1	upper	zerothre.ttf
252833	WORD	wordpools/wasnorm_wordpool.txt	LTP123	ltpFR	6	2	1	HORNET	718	n/a	n/a	0	0.422607421875	0.5869140625	0	lower	amplitud.ttf
256915	WORD	wordpools/wasnorm_wordpool.txt	LTP123	ltpFR	6	2	1	BANKER	84	n/a	n/a	1	0.422607421875	0.5869140625	0	lower	amplitud.ttf
261098	WORD	wordpools/wasnorm_wordpool.txt	LTP123	ltpFR	6	2	1	PRAIRIE	1118	n/a	n/a	0	0.422607421875	0.5869140625	0	lower	amplitud.ttf
265230	WORD	wordpools/wasnorm_wordpool.txt	LTP123	ltpFR	6	2	1	INTESTINE	742	n/a	n/a	0	0.422607421875	0.5869140625	0	lower	amplitud.ttf
270919	REC_START	n/a	LTP123	ltpFR	6	2	n/a	n/a	n/a	n/a	n/a	n/a	n/a	n/a	n/a	n/a	n/a
271697	REC_WORD	wordpools/wasnorm_wordpool.txt	LTP123	ltpFR	6	2	1	INTESTINE	742	n/a	n/a	0	n/a	n/a	n/a	n/a	n/a
273368	REC_WORD	wordpools/wasnorm_wordpool.txt	LTP123	ltpFR	6	2	1	PRAIRIE	1118	n/a	n/a	0	n/a	n/a	n/a	n/a	n/a
274128	REC_WORD	wordpools/wasnorm_wordpool.txt	LTP123	ltpFR	6	2	0	WRIST	1626	n/a	n/a	0	n/a	n/a	n/a	n/a	n/a
275169	REC_WORD	wordpools/wasnorm_wordpool.txt	LTP123	ltpFR	6	2	1	BANKER	84	n/a	n/a	1	n/a	n/a	n/a	n/a	n/a
276376	REC_WORD	wordpools/wasnorm_wordpool.txt	LTP123	ltpFR	6	2	1	HORNET	718	n/a	n/a	0	n/a	n/a	n/a	n/a	n/a
277209	REC_WORD	wordpools/wasnorm_wordpool.txt	LTP123	ltpFR	6	2	1	HONEY	713	n/a	n/a	0	n/a	n/a	n/a	n/a	n/a
278058	REC_WORD	wordpools/wasnorm_wordpool.txt	LTP123	ltpFR	6	2	0	CLARINET	317	n/a	n/a	1	n/a	n/a	n/a	n/a	n/a
279200	REC_WORD	wordpools/wasnorm_wordpool.txt	LTP123	ltpFR	6	2	0	ORCHESTRA	981	n/a	n/a	1	n/a	n/a	n/a	n/a	n/a
292934	REC_WORD	wordpools/wasnorm_wordpool.txt	LTP123	ltpFR	6	2	0	APPLE	33	n/a	n/a	0	n/a	n/a	n/a	n/a	n/a
313751	REC_WORD	wordpools/wasnorm_wordpool.txt	LTP123	ltpFR	6	2	1	WOLF	1619	n/a	n/a	1	n/a	n/a	n/a	n/a	n/a
352307	WORD	wordpools/wasnorm_wordpool.txt	LTP123	ltpFR	6	3	0	FUNERAL	613	n/a	n/a	1	0.57763671875	0.412841796875	1	upper	zerothre.ttf
356214	WORD	wordpools/wasnorm_wordpool.txt	LTP123	ltpFR	6	3	0	WASHER	1592	n/a	n/a	1	0.57763671875	0.412841796875	1	upper	zerothre.ttf
360321	WORD	wordpools/wasnorm_wordpool.txt	LTP123	ltpFR	6	3	0	TREAD	1499	n/a	n/a	0	0.57763671875	0.412841796875	1	upper	zerothre.ttf
364386	WORD	wordpools/wasnorm_wordpool.txt	LTP123	ltpFR	6	3	0	BATTERY	101	n/a	n/a	0	0.57763671875	0.412841796875	1	upper	zerothre.ttf
368360	WORD	wordpools/wasnorm_wordpool.txt	LTP123	ltpFR	6	3	0	CONSOLE	364	n/a	n/a	0	0.57763671875	0.412841796875	1	upper	zerothre.ttf
372375	WORD	wordpools/wasnorm_wordpool.txt	LTP123	ltpFR	6	3	0	BROCCOLI	176	n/a	n/a	0	0.57763671875	0.412841796875	1	upper	zerothre.ttf
376524	WORD	wordpools/wasnorm_wordpool.txt	LTP123	ltpFR	6	3	0	DIME	466	n/a	n/a	0	0.57763671875	0.412841796875	1	upper	zerothre.ttf
380414	WORD	wordpools/wasnorm_wordpool.txt	LTP123	ltpFR	6	3	0	SLEEVE	1324	n/a	n/a	0	0.57763671875	0.412841796875	1	upper	zerothre.ttf
384396	WORD	wordpools/wasnorm_wordpool.txt	LTP123	ltpFR	6	3	0	VIOLIN	1571	n/a	n/a	1	0.57763671875	0.412841796875	1	upper	zerothre.ttf
388511	WORD	wordpools/wasnorm_wordpool.txt	LTP123	ltpFR	6	3	0	CELLO	268	n/a	n/a	1	0.57763671875	0.412841796875	1	upper	zerothre.ttf
392418	WORD	wordpools/wasnorm_wordpool.txt	LTP123	ltpFR	6	3	0	COBRA	336	n/a	n/a	1	0.57763671875	0.412841796875	1	upper	zerothre.ttf
396383	WORD	wordpools/wasnorm_wordpool.txt	LTP123	ltpFR	6	3	0	OUTFIT	988	n/a	n/a	1	0.57763671875	0.412841796875	1	upper	zerothre.ttf
400324	WORD	wordpools/wasnorm_wordpool.txt	LTP123	ltpFR	6	3	0	SIRLOIN	1311	n/a	n/a	0	0.57763671875	0.412841796875	1	upper	zerothre.ttf
404264	WORD	wordpools/wasnorm_wordpool.txt	LTP123	ltpFR	6	3	0	TOMATO	1476	n/a	n/a	0	0.57763671875	0.412841796875	1	upper	zerothre.ttf
408154	WORD	wordpools/wasnorm_wordpool.txt	LTP123	ltpFR	6	3	0	SURF	1412	n/a	n/a	1	0.57763671875	0.412841796875	1	upper	zerothre.ttf
411969	WORD	wordpools/wasnorm_wordpool.txt	LTP123	ltpFR	6	3	0	CASKET	255	n/a	n/a	1	0.57763671875	0.412841796875	1	upper	zerothre.ttf
417543	REC_START	n/a	LTP123	ltpFR	6	3	n/a	n/a	n/a	n/a	n/a	n/a	n/a	n/a	n/a	n/a	n/a
418191	REC_WORD	wordpools/wasnorm_wordpool.txt	LTP123	ltpFR	6	3	0	CASKET	255	n/a	n/a	1	n/a	n/a	n/a	n/a	n/a
419034	REC_WORD	wordpools/wasnorm_wordpool.txt	LTP123	ltpFR	6	3	0	SURF	1412	n/a	n/a	1	n/a	n/a	n/a	n/a	n/a
419847	REC_WORD	wordpools/wasnorm_wordpool.txt	LTP123	ltpFR	6	3	0	FUNERAL	613	n/a	n/a	1	n/a	n/a	n/a	n/a	n/a
421394	REC_WORD	wordpools/wasnorm_wordpool.txt	LTP123	ltpFR	6	3	0	SIRLOIN	1311	n/a	n/a	0	n/a	n/a	n/a	n/a	n/a
422492	REC_WORD	wordpools/wasnorm_wordpool.txt	LTP123	ltpFR	6	3	0	TOMATO	1476	n/a	n/a	0	n/a	n/a	n/a	n/a	n/a
423409	REC_WORD	wordpools/wasnorm_wordpool.txt	LTP123	ltpFR	6	3	0	SLEEVE	1324	n/a	n/a	0	n/a	n/a	n/a	n/a	n/a
425195	REC_WORD	wordpools/wasnorm_wordpool.txt	LTP123	ltpFR	6	3	0	OUTFIT	988	n/a	n/a	1	n/a	n/a	n/a	n/a	n/a
429062	REC_WORD	wordpools/wasnorm_wordpool.txt	LTP123	ltpFR	6	3	0	DIME	466	n/a	n/a	0	n/a	n/a	n/a	n/a	n/a
431192	REC_WORD	wordpools/wasnorm_wordpool.txt	LTP123	ltpFR	6	3	0	CONSOLE	364	n/a	n/a	0	n/a	n/a	n/a	n/a	n/a
436345	REC_WORD	wordpools/wasnorm_wordpool.txt	LTP123	ltpFR	6	3	0	CELLO	268	n/a	n/a	1	n/a	n/a	n/a	n/a	n/a
441079	REC_WORD	wordpools/wasnorm_wordpool.txt	LTP123	ltpFR	6	3	0	VIOLIN	1571	n/a	n/a	1	n/a	n/a	n/a	n/a	n/a
457522	REC_WORD	wordpools/wasnorm_wordpool.txt	LTP123	ltpFR	6	3	0	SURF	1412	n/a	n/a	1	n/a	n/a	n/a	n/a	n/a
502678	WORD	wordpools/wasnorm_wordpool.txt	LTP123	ltpFR	6	4	-1	HOOD	714	n/a	n/a	-1	1.0	1.0	1	upper	Verdana.ttf
506586	WORD	wordpools/wasnorm_wordpool.txt	LTP123	ltpFR	6	4	-1	PIGEON	1065	n/a	n/a	-1	1.0	1.0	1	upper	Verdana.ttf
510518	WORD	wordpools/wasnorm_wordpool.txt	LTP123	ltpFR	6	4	-1	NOVEL	960	n/a	n/a	-1	1.0	1.0	1	upper	Verdana.ttf
514450	WORD	wordpools/wasnorm_wordpool.txt	LTP123	ltpFR	6	4	-1	ELECTRON	522	n/a	n/a	-1	1.0	1.0	1	upper	Verdana.ttf
518607	WORD	wordpools/wasnorm_wordpool.txt	LTP123	ltpFR	6	4	-1	INFANT	737	n/a	n/a	-1	1.0	1.0	1	upper	Verdana.ttf
522679	WORD	wordpools/wasnorm_wordpool.txt	LTP123	ltpFR	6	4	-1	DIAPER	459	n/a	n/a	-1	1.0	1.0	1	upper	Verdana.ttf
526678	WORD	wordpools/wasnorm_wordpool.txt	LTP123	ltpFR	6	4	-1	DORM	488	n/a	n/a	-1	1.0	1.0	1	upper	Verdana.ttf
530860	WORD	wordpools/wasnorm_wordpool.txt	LTP123	ltpFR	6	4	-1	BOOK	149	n/a	n/a	-1	1.0	1.0	1	upper	Verdana.ttf
534783	WORD	wordpools/wasnorm_wordpool.txt	LTP123	ltpFR	6	4	-1	PUPIL	1143	n/a	n/a	-1	1.0	1.0	1	upper	Verdana.ttf
538715	WORD	wordpools/wasnorm_wordpool.txt	LTP123	ltpFR	6	4	-1	PAIL	1002	n/a	n/a	-1	1.0	1.0	1	upper	Verdana.ttf
542830	WORD	wordpools/wasnorm_wordpool.txt	LTP123	ltpFR	6	4	-1	STEAM	1375	n/a	n/a	-1	1.0	1.0	1	upper	Verdana.ttf
546846	WORD	wordpools/wasnorm_wordpool.txt	LTP123	ltpFR	6	4	-1	STAFF	1365	n/a	n/a	-1	1.0	1.0	1	upper	Verdana.ttf
550803	WORD	wordpools/wasnorm_wordpool.txt	LTP123	ltpFR	6	4	-1	MATTRESS	879	n/a	n/a	-1	1.0	1.0	1	upper	Verdana.ttf
554701	WORD	wordpools/wasnorm_wordpool.txt	LTP123	ltpFR	6	4	-1	FOLDER	588	n/a	n/a	-1	1.0	1.0	1	upper	Verdana.ttf
558858	WORD	wordpools/wasnorm_wordpool.txt	LTP123	ltpFR	6	4	-1	ROSE	1212	n/a	n/a	-1	1.0	1.0	1	upper	Verdana.ttf
562882	WORD	wordpools/wasnorm_wordpool.txt	LTP123	ltpFR	6	4	-1	PISTON	1076	n/a	n/a	-1	1.0	1.0	1	upper	Verdana.ttf
568922	REC_START	n/a	LTP123	ltpFR	6	4	n/a	n/a	n/a	n/a	n/a	n/a	n/a	n/a	n/a	n/a	n/a
569785	REC_WORD	wordpools/wasnorm_wordpool.txt	LTP123	ltpFR	6	4	-1	PISTON	1076	n/a	n/a	-1	n/a	n/a	n/a	n/a	n/a
570748	REC_WORD	wordpools/wasnorm_wordpool.txt	LTP123	ltpFR	6	4	-1	ROSE	1212	n/a	n/a	-1	n/a	n/a	n/a	n/a	n/a
571955	REC_WORD	wordpools/wasnorm_wordpool.txt	LTP123	ltpFR	6	4	-1	MATTRESS	879	n/a	n/a	-1	n/a	n/a	n/a	n/a	n/a
572963	REC_WORD	wordpools/wasnorm_wordpool.txt	LTP123	ltpFR	6	4	-1	DORM	488	n/a	n/a	-1	n/a	n/a	n/a	n/a	n/a
573821	REC_WORD	wordpools/wasnorm_wordpool.txt	LTP123	ltpFR	6	4	-1	PUPIL	1143	n/a	n/a	-1	n/a	n/a	n/a	n/a	n/a
575023	REC_WORD	wordpools/wasnorm_wordpool.txt	LTP123	ltpFR	6	4	-1	BOOK	149	n/a	n/a	-1	n/a	n/a	n/a	n/a	n/a
576070	REC_WORD	wordpools/wasnorm_wordpool.txt	LTP123	ltpFR	6	4	-1	HOOD	714	n/a	n/a	-1	n/a	n/a	n/a	n/a	n/a
609315	REC_WORD	wordpools/wasnorm_wordpool.txt	LTP123	ltpFR	6	4	-1	INFANT	737	n/a	n/a	-1	n/a	n/a	n/a	n/a	n/a
610283	REC_WORD	wordpools/wasnorm_wordpool.txt	LTP123	ltpFR	6	4	-1	DIAPER	459	n/a	n/a	-1	n/a	n/a	n/a	n/a	n/a
654483	WORD	wordpools/wasnorm_wordpool.txt	LTP123	ltpFR	6	5	0	BULL	193	n/a	n/a	1	0.57763671875	0.412841796875	1	upper	zerothre.ttf
658307	WORD	wordpools/wasnorm_wordpool.txt	LTP123	ltpFR	6	5	0	VASE	1549	n/a	n/a	0	0.57763671875	0.412841796875	1	upper	zerothre.ttf
662389	WORD	wordpools/wasnorm_wordpool.txt	LTP123	ltpFR	6	5	0	BOWL	158	n/a	n/a	0	0.57763671875	0.412841796875	1	upper	zerothre.ttf
666421	WORD	wordpools/wasnorm_wordpool.txt	LTP123	ltpFR	6	5	0	ITEM	746	n/a	n/a	0	0.57763671875	0.412841796875	1	upper	zerothre.ttf
670353	WORD	wordpools/wasnorm_wordpool.txt	LTP123	ltpFR	6	5	0	BUSH	202	n/a	n/a	1	0.57763671875	0.412841796875	1	upper	zerothre.ttf
674243	WORD	wordpools/wasnorm_wordpool.txt	LTP123	ltpFR	6	5	0	TWIG	1527	n/a	n/a	0	0.57763671875	0.412841796875	1	upper	zerothre.ttf
678208	WORD	wordpools/wasnorm_wordpool.txt	LTP123	ltpFR	6	5	0	ROD	1203	n/a	n/a	1	0.57763671875	0.412841796875	1	upper	zerothre.ttf
682265	WORD	wordpools/wasnorm_wordpool.txt	LTP123	ltpFR	6	5	0	PUBLICATION	1136	n/a	n/a	1	0.57763671875	0.412841796875	1	upper	zerothre.ttf
686214	WORD	wordpools/wasnorm_wordpool.txt	LTP123	ltpFR	6	5	0	SYRINGE	1424	n/a	n/a	0	0.57763671875	0.412841796875	1	upper	zerothre.ttf
690087	WORD	wordpools/wasnorm_wordpool.txt	LTP123	ltpFR	6	5	0	BEEF	113	n/a	n/a	0	0.57763671875	0.412841796875	1	upper	zerothre.ttf
693993	WORD	wordpools/wasnorm_wordpool.txt	LTP123	ltpFR	6	5	0	NOOSE	956	n/a	n/a	0	0.57763671875	0.412841796875	1	upper	zerothre.ttf
698151	WORD	wordpools/wasnorm_wordpool.txt	LTP123	ltpFR	6	5	0	CANAL	226	n/a	n/a	1	0.57763671875	0.412841796875	1	upper	zerothre.ttf
702258	WORD	wordpools/wasnorm_wordpool.txt	LTP123	ltpFR	6	5	0	BOAT	144	n/a	n/a	1	0.57763671875	0.412841796875	1	upper	zerothre.ttf
706115	WORD	wordpools/wasnorm_wordpool.txt	LTP123	ltpFR	6	5	0	SPOOL	1356	n/a	n/a	0	0.57763671875	0.412841796875	1	upper	zerothre.ttf
710014	WORD	wordpools/wasnorm_wordpool.txt	LTP123	ltpFR	6	5	0	CRAB	397	n/a	n/a	0	0.57763671875	0.412841796875	1	upper	zerothre.ttf
713895	WORD	wordpools/wasnorm_wordpool.txt	LTP123	ltpFR	6	5	0	KNAPSACK	783	n/a	n/a	1	0.57763671875	0.412841796875	1	upper	zerothre.ttf
719544	REC_START	n/a	LTP123	ltpFR	6	5	n/a	n/a	n/a	n/a	n/a	n/a	n/a	n/a	n/a	n/a	n/a
719943	REC_WORD	wordpools/wasnorm_wordpool.txt	LTP123	ltpFR	6	5	0	KNAPSACK	783	n/a	n/a	1	n/a	n/a	n/a	n/a	n/a
723111	REC_WORD	wordpools/wasnorm_wordpool.txt	LTP123	ltpFR	6	5	0	CRAB	397	n/a	n/a	0	n/a	n/a	n/a	n/a	n/a
724951	REC_WORD	wordpools/wasnorm_wordpool.txt	LTP123	ltpFR	6	5	0	SPOOL	1356	n/a	n/a	0	n/a	n/a	n/a	n/a	n/a
727630	REC_WORD	wordpools/wasnorm_wordpool.txt	LTP123	ltpFR	6	5	0	NOOSE	956	n/a	n/a	0	n/a	n/a	n/a	n/a	n/a
733033	REC_WORD	wordpools/wasnorm_wordpool.txt	LTP123	ltpFR	6	5	0	BOWL	158	n/a	n/a	0	n/a	n/a	n/a	n/a	n/a
737917	REC_WORD	wordpools/wasnorm_wordpool.txt	LTP123	ltpFR	6	5	0	TWIG	1527	n/a	n/a	0	n/a	n/a	n/a	n/a	n/a
739917	REC_WORD	wordpools/wasnorm_wordpool.txt	LTP123	ltpFR	6	5	0	ROD	1203	n/a	n/a	1	n/a	n/a	n/a	n/a	n/a
752993	REC_WORD	wordpools/wasnorm_wordpool.txt	LTP123	ltpFR	6	5	0	KNAPSACK	783	n/a	n/a	1	n/a	n/a	n/a	n/a	n/a
759683	REC_WORD	wordpools/wasnorm_wordpool.txt	LTP123	ltpFR	6	5	0	ITEM	746	n/a	n/a	0	n/a	n/a	n/a	n/a	n/a
764307	REC_WORD	wordpools/wasnorm_wordpool.txt	LTP123	ltpFR	6	5	0	BOAT	144	n/a	n/a	1	n/a	n/a	n/a	n/a	n/a
778425	REC_WORD	wordpools/wasnorm_wordpool.txt	LTP123	ltpFR	6	5	0	SYRINGE	1424	n/a	n/a	0	n/a	n/a	n/a	n/a	n/a
815643	WORD	wordpools/wasnorm_wordpool.txt	LTP123	ltpFR	6	6	1	BREAST	171	n/a	n/a	0	0.422607421875	0.5869140625	0	lower	amplitud.ttf
819650	WORD	wordpools/wasnorm_wordpool.txt	LTP123	ltpFR	6	6	1	HIP	710	n/a	n/a	0	0.422607421875	0.5869140625	0	lower	amplitud.ttf
823822	WORD	wordpools/wasnorm_wordpool.txt	LTP123	ltpFR	6	6	1	BOY	161	n/a	n/a	1	0.422607421875	0.5869140625	0	lower	amplitud.ttf
827879	WORD	wordpools/wasnorm_wordpool.txt	LTP123	ltpFR	6	6	1	TREE	1502	n/a	n/a	1	0.422607421875	0.5869140625	0	lower	amplitud.ttf
831886	WORD	wordpools/wasnorm_wordpool.txt	LTP123	ltpFR	6	6	1	ORCHID	982	n/a	n/a	1	0.422607421875	0.5869140625	0	lower	amplitud.ttf
835776	WORD	wordpools/wasnorm_wordpool.txt	LTP123	ltpFR	6	6	1	STEW	1380	n/a	n/a	0	0.422607421875	0.5869140625	0	lower	amplitud.ttf
839593	WORD	wordpools/wasnorm_wordpool.txt	LTP123	ltpFR	6	6	1	CROOK	412	n/a	n/a	1	0.422607421875	0.5869140625	0	lower	amplitud.ttf
843650	WORD	wordpools/wasnorm_wordpool.txt	LTP123	ltpFR	6	6	1	ACORN	3	n/a	n/a	0	0.422607421875	0.5869140625	0	lower	amplitud.ttf
847839	WORD	wordpools/wasnorm_wordpool.txt	LTP123	ltpFR	6	6	1	NEPHEW	942	n/a	n/a	1	0.422607421875	0.5869140625	0	lower	amplitud.ttf
851779	WORD	wordpools/wasnorm_wordpool.txt	LTP123	ltpFR	6	6	1	PEARL	1034	n/a	n/a	0	0.422607421875	0.5869140625	0	lower	amplitud.ttf
855836	WORD	wordpools/wasnorm_wordpool.txt	LTP123	ltpFR	6	6	1	SOCK	1339	n/a	n/a	0	0.422607421875	0.5869140625	0	lower	amplitud.ttf
859793	WORD	wordpools/wasnorm_wordpool.txt	LTP123	ltpFR	6	6	1	COBBLER	335	n/a	n/a	1	0.422607421875	0.5869140625	0	lower	amplitud.ttf
863659	WORD	wordpools/wasnorm_wordpool.txt	LTP123	ltpFR	6	6	1	RING	1193	n/a	n/a	0	0.422607421875	0.5869140625	0	lower	amplitud.ttf
867790	WORD	wordpools/wasnorm_wordpool.txt	LTP123	ltpFR	6	6	1	FOREHEAD	592	n/a	n/a	0	0.422607421875	0.5869140625	0	lower	amplitud.ttf
871939	WORD	wordpools/wasnorm_wordpool.txt	LTP123	ltpFR	6	6	1	FRECKLE	602	n/a	n/a	0	0.422607421875	0.5869140625	0	lower	amplitud.ttf
875945	WORD	wordpools/wasnorm_wordpool.txt	LTP123	ltpFR	6	6	1	SUIT	1402	n/a	n/a	0	0.422607421875	0.5869140625	0	lower	amplitud.ttf
881545	REC_START	n/a	LTP123	ltpFR	6	6	n/a	n/a	n/a	n/a	n/a	n/a	n/a	n/a	n/a	n/a	n/a
882413	REC_WORD	wordpools/wasnorm_wordpool.txt	LTP123	ltpFR	6	6	1	SUIT	1402	n/a	n/a	0	n/a	n/a	n/a	n/a	n/a
883565	REC_WORD	wordpools/wasnorm_wordpool.txt	LTP123	ltpFR	6	6	1	SOCK	1339	n/a	n/a	0	n/a	n/a	n/a	n/a	n/a
884648	REC_WORD	wordpools/wasnorm_wordpool.txt	LTP123	ltpFR	6	6	1	COBBLER	335	n/a	n/a	1	n/a	n/a	n/a	n/a	n/a
886034	REC_WORD	wordpools/wasnorm_wordpool.txt	LTP123	ltpFR	6	6	1	FOREHEAD	592	n/a	n/a	0	n/a	n/a	n/a	n/a	n/a
887347	REC_WORD	wordpools/wasnorm_wordpool.txt	LTP123	ltpFR	6	6	1	HIP	710	n/a	n/a	0	n/a	n/a	n/a	n/a	n/a
889482	REC_WORD	wordpools/wasnorm_wordpool.txt	LTP123	ltpFR	6	6	1	BREAST	171	n/a	n/a	0	n/a	n/a	n/a	n/a	n/a
890669	REC_WORD	wordpools/wasnorm_wordpool.txt	LTP123	ltpFR	6	6	1	BOY	161	n/a	n/a	1	n/a	n/a	n/a	n/a	n/a
891597	REC_WORD	wordpools/wasnorm_wordpool.txt	LTP123	ltpFR	6	6	1	NEPHEW	942	n/a	n/a	1	n/a	n/a	n/a	n/a	n/a
894335	REC_WORD	wordpools/wasnorm_wordpool.txt	LTP123	ltpFR	6	6	1	SUIT	1402	n/a	n/a	0	n/a	n/a	n/a	n/a	n/a
904942	REC_WORD	wordpools/wasnorm_wordpool.txt	LTP123	ltpFR	6	6	1	PEARL	1034	n/a	n/a	0	n/a	n/a	n/a	n/a	n/a
962998	WORD	wordpools/wasnorm_wordpool.txt	LTP123	ltpFR	6	7	1	WALLET	1583	n/a	n/a	0	0.422607421875	0.5869140625	0	lower	amplitud.ttf
966913	WORD	wordpools/wasnorm_wordpool.txt	LTP123	ltpFR	6	7	1	SACK	1220	n/a	n/a	0	0.422607421875	0.5869140625	0	lower	amplitud.ttf
971013	WORD	wordpools/wasnorm_wordpool.txt	LTP123	ltpFR	6	7	1	DUNGEON	507	n/a	n/a	0	0.422607421875	0.5869140625	0	lower	amplitud.ttf
975211	WORD	wordpools/wasnorm_wordpool.txt	LTP123	ltpFR	6	7	1	BRIDE	173	n/a	n/a	1	0.422607421875	0.5869140625	0	lower	amplitud.ttf
979401	WORD	wordpools/wasnorm_wordpool.txt	LTP123	ltpFR	6	7	1	TOAD	1470	n/a	n/a	1	0.422607421875	0.5869140625	0	lower	amplitud.ttf
983442	WORD	wordpools/wasnorm_wordpool.txt	LTP123	ltpFR	6	7	1	FLORIDA	582	n/a	n/a	0	0.422607421875	0.5869140625	0	lower	amplitud.ttf
987349	WORD	wordpools/wasnorm_wordpool.txt	LTP123	ltpFR	6	7	1	CRIMINAL	409	n/a	n/a	1	0.422607421875	0.5869140625	0	lower	amplitud.ttf
991514	WORD	wordpools/wasnorm_wordpool.txt	LTP123	ltpFR	6	7	1	BANANA	77	n/a	n/a	0	0.422607421875	0.5869140625	0	lower	amplitud.ttf
995521	WORD	wordpools/wasnorm_wordpool.txt	LTP123	ltpFR	6	7	1	VILLAGE	1566	n/a	n/a	0	0.422607421875	0.5869140625	0	lower	amplitud.ttf
999419	WORD	wordpools/wasnorm_wordpool.txt	LTP123	ltpFR	6	7	1	ROBOT	1200	n/a	n/a	0	0.422607421875	0.5869140625	0	lower	amplitud.ttf
1003518	WORD	wordpools/wasnorm_wordpool.txt	LTP123	ltpFR	6	7	1	LOBSTER	837	n/a	n/a	1	0.422607421875	0.5869140625	0	lower	amplitud.ttf
1007625	WORD	wordpools/wasnorm_wordpool.txt	LTP123	ltpFR	6	7	1	VAULT	1550	n/a	n/a	0	0.422607421875	0.5869140625	0	lower	amplitud.ttf
1011632	WORD	wordpools/wasnorm_wordpool.txt	LTP123	ltpFR	6	7	1	VEST	1559	n/a	n/a	0	0.422607421875	0.5869140625	0	lower	amplitud.ttf
1015497	WORD	wordpools/wasnorm_wordpool.txt	LTP123	ltpFR	6	7	1	BUTTON	207	n/a	n/a	0	0.422607421875	0.5869140625	0	lower	amplitud.ttf
1019529	WORD	wordpools/wasnorm_wordpool.txt	LTP123	ltpFR	6	7	1	SHELL	1281	n/a	n/a	0	0.422607421875	0.5869140625	0	lower	amplitud.ttf
1023377	WORD	wordpools/wasnorm_wordpool.txt	LTP123	ltpFR	6	7	1	SCALLOP	1242	n/a	n/a	1	0.422607421875	0.5869140625	0	lower	amplitud.ttf
1028983	REC_START	n/a	LTP123	ltpFR	6	7	n/a	n/a	n/a	n/a	n/a	n/a	n/a	n/a	n/a	n/a	n/a
1029756	REC_WORD	wordpools/wasnorm_wordpool.txt	LTP123	ltpFR	6	7	1	SHELL	1281	n/a	n/a	0	n/a	n/a	n/a	n/a	n/a
1030893	REC_WORD	wordpools/wasnorm_wordpool.txt	LTP123	ltpFR	6	7	1	SCALLOP	1242	n/a	n/a	1	n/a	n/a	n/a	n/a	n/a
1032589	REC_WORD	wordpools/wasnorm_wordpool.txt	LTP123	ltpFR	6	7	1	LOBSTER	837	n/a	n/a	1	n/a	n/a	n/a	n/a	n/a
1034236	REC_WORD	wordpools/wasnorm_wordpool.txt	LTP123	ltpFR	6	7	1	VAULT	1550	n/a	n/a	0	n/a	n/a	n/a	n/a	n/a
1037753	REC_WORD	wordpools/wasnorm_wordpool.txt	LTP123	ltpFR	6	7	1	BRIDE	173	n/a	n/a	1	n/a	n/a	n/a	n/a	n/a
1041614	REC_WORD	wordpools/wasnorm_wordpool.txt	LTP123	ltpFR	6	7	1	CRIMINAL	409	n/a	n/a	1	n/a	n/a	n/a	n/a	n/a
1052364	REC_WORD	wordpools/wasnorm_wordpool.txt	LTP123	ltpFR	6	7	1	FLORIDA	582	n/a	n/a	0	n/a	n/a	n/a	n/a	n/a
1057737	REC_WORD	wordpools/wasnorm_wordpool.txt	LTP123	ltpFR	6	7	1	VILLAGE	1566	n/a	n/a	0	n/a	n/a	n/a	n/a	n/a
1065794	REC_WORD	wordpools/wasnorm_wordpool.txt	LTP123	ltpFR	6	7	1	SCALLOP	1242	n/a	n/a	1	n/a	n/a	n/a	n/a	n/a
1112321	WORD	wordpools/wasnorm_wordpool.txt	LTP123	ltpFR	6	8	0	CANNON	232	n/a	n/a	1	0.57763671875	0.412841796875	1	upper	zerothre.ttf
1116503	WORD	wordpools/wasnorm_wordpool.txt	LTP123	ltpFR	6	8	0	GANGSTER	620	n/a	n/a	1	0.57763671875	0.412841796875	1	upper	zerothre.ttf
1120692	WORD	wordpools/wasnorm_wordpool.txt	LTP123	ltpFR	6	8	0	SPATULA	1348	n/a	n/a	0	0.57763671875	0.412841796875	1	upper	zerothre.ttf
1124865	WORD	wordpools/wasnorm_wordpool.txt	LTP123	ltpFR	6	8	0	DRINK	498	n/a	n/a	0	0.57763671875	0.412841796875	1	upper	zerothre.ttf
1128722	WORD	wordpools/wasnorm_wordpool.txt	LTP123	ltpFR	6	8	1	HOUND	724	n/a	n/a	1	0.422607421875	0.5869140625	0	lower	amplitud.ttf
1132547	WORD	wordpools/wasnorm_wordpool.txt	LTP123	ltpFR	6	8	1	BULLETIN	195	n/a	n/a	0	0.422607421875	0.5869140625	0	lower	amplitud.ttf
1136629	WORD	wordpools/wasnorm_wordpool.txt	LTP123	ltpFR	6	8	1	OCEAN	970	n/a	n/a	0	0.422607421875	0.5869140625	0	lower	amplitud.ttf
1140511	WORD	wordpools/wasnorm_wordpool.txt	LTP123	ltpFR	6	8	1	TICK	1463	n/a	n/a	1	0.422607421875	0.5869140625	0	lower	amplitud.ttf
1144675	WORD	wordpools/wasnorm_wordpool.txt	LTP123	ltpFR	6	8	1	FREEWAY	603	n/a	n/a	0	0.422607421875	0.5869140625	0	lower	amplitud.ttf
1148690	WORD	wordpools/wasnorm_wordpool.txt	LTP123	ltpFR	6	8	1	AUTOMOBILE	62	n/a	n/a	0	0.422607421875	0.5869140625	0	lower	amplitud.ttf
1152623	WORD	wordpools/wasnorm_wordpool.txt	LTP123	ltpFR	6	8	0	CAGE	218	n/a	n/a	1	0.57763671875	0.412841796875	1	upper	zerothre.ttf
1156597	WORD	wordpools/wasnorm_wordpool.txt	LTP123	ltpFR	6	8	0	EAGLE	512	n/a	n/a	1	0.57763671875	0.412841796875	1	upper	zerothre.ttf
1160686	WORD	wordpools/wasnorm_wordpool.txt	LTP123	ltpFR	6	8	0	TEA	1439	n/a	n/a	0	0.57763671875	0.412841796875	1	upper	zerothre.ttf
1164594	WORD	wordpools/wasnorm_wordpool.txt	LTP123	ltpFR	6	8	0	OATS	968	n/a	n/a	0	0.57763671875	0.412841796875	1	upper	zerothre.ttf
1168526	WORD	wordpools/wasnorm_wordpool.txt	LTP123	ltpFR	6	8	1	CHAMPION	279	n/a	n/a	1	0.422607421875	0.5869140625	0	lower	amplitud.ttf
1172391	WORD	wordpools/wasnorm_wordpool.txt	LTP123	ltpFR	6	8	1	WAVE	1596	n/a	n/a	0	0.422607421875	0.5869140625	0	lower	amplitud.ttf
1178165	REC_START	n/a	LTP123	ltpFR	6	8	n/a	n/a	n/a	n/a	n/a	n/a	n/a	n/a	n/a	n/a	n/a
1178728	REC_WORD	wordpools/wasnorm_wordpool.txt	LTP123	ltpFR	6	8	1	WAVE	1596	n/a	n/a	0	n/a	n/a	n/a	n/a	n/a
1179447	REC_WORD	wordpools/wasnorm_wordpool.txt	LTP123	ltpFR	6	8	1	CHAMPION	279	n/a	n/a	1	n/a	n/a	n/a	n/a	n/a
1180245	REC_WORD	wordpools/wasnorm_wordpool.txt	LTP123	ltpFR	6	8	1	OCEAN	970	n/a	n/a	0	n/a	n/a	n/a	n/a	n/a
1181797	REC_WORD	wordpools/wasnorm_wordpool.txt	LTP123	ltpFR	6	8	0	OATS	968	n/a	n/a	0	n/a	n/a	n/a	n/a	n/a
1182680	REC_WORD	wordpools/wasnorm_wordpool.txt	LTP123	ltpFR	6	8	0	TEA	1439	n/a	n/a	0	n/a	n/a	n/a	n/a	n/a
1269373	WORD	wordpools/wasnorm_wordpool.txt	LTP123	ltpFR	6	9	-1	TREASURE	1500	n/a	n/a	-1	1.0	1.0	1	upper	Verdana.ttf
1273247	WORD	wordpools/wasnorm_wordpool.txt	LTP123	ltpFR	6	9	-1	CHAIN	273	n/a	n/a	-1	1.0	1.0	1	upper	Verdana.ttf
1277221	WORD	wordpools/wasnorm_wordpool.txt	LTP123	ltpFR	6	9	-1	CHEEK	287	n/a	n/a	-1	1.0	1.0	1	upper	Verdana.ttf
1281327	WORD	wordpools/wasnorm_wordpool.txt	LTP123	ltpFR	6	9	-1	TUBA	1515	n/a	n/a	-1	1.0	1.0	1	upper	Verdana.ttf
1285259	WORD	wordpools/wasnorm_wordpool.txt	LTP123	ltpFR	6	9	-1	BARTENDER	92	n/a	n/a	-1	1.0	1.0	1	upper	Verdana.ttf
1289133	WORD	wordpools/wasnorm_wordpool.txt	LTP123	ltpFR	6	9	-1	HAY	693	n/a	n/a	-1	1.0	1.0	1	upper	Verdana.ttf
1293148	WORD	wordpools/wasnorm_wordpool.txt	LTP123	ltpFR	6	9	-1	TROMBONE	1508	n/a	n/a	-1	1.0	1.0	1	upper	Verdana.ttf
1297272	WORD	wordpools/wasnorm_wordpool.txt	LTP123	ltpFR	6	9	-1	SEAGULL	1261	n/a	n/a	-1	1.0	1.0	1	upper	Verdana.ttf
1301270	WORD	wordpools/wasnorm_wordpool.txt	LTP123	ltpFR	6	9	-1	HERD	705	n/a	n/a	-1	1.0	1.0	1	upper	Verdana.ttf
1305361	WORD	wordpools/wasnorm_wordpool.txt	LTP123	ltpFR	6	9	-1	BOTTLE	153	n/a	n/a	-1	1.0	1.0	1	upper	Verdana.ttf
1309234	WORD	wordpools/wasnorm_wordpool.txt	LTP123	ltpFR	6	9	-1	GYMNAST	675	n/a	n/a	-1	1.0	1.0	1	upper	Verdana.ttf
1313058	WORD	wordpools/wasnorm_wordpool.txt	LTP123	ltpFR	6	9	-1	CIRCUS	311	n/a	n/a	-1	1.0	1.0	1	upper	Verdana.ttf
1317131	WORD	wordpools/wasnorm_wordpool.txt	LTP123	ltpFR	6	9	-1	WINE	1613	n/a	n/a	-1	1.0	1.0	1	upper	Verdana.ttf
1321013	WORD	wordpools/wasnorm_wordpool.txt	LTP123	ltpFR	6	9	-1	GLASSES	640	n/a	n/a	-1	1.0	1.0	1	upper	Verdana.ttf
1325020	WORD	wordpools/wasnorm_wordpool.txt	LTP123	ltpFR	6	9	-1	STATUE	1374	n/a	n/a	-1	1.0	1.0	1	upper	Verdana.ttf
1328926	WORD	wordpools/wasnorm_wordpool.txt	LTP123	ltpFR	6	9	-1	BUILDING	191	n/a	n/a	-1	1.0	1.0	1	upper	Verdana.ttf
1334866	REC_START	n/a	LTP123	ltpFR	6	9	n/a	n/a	n/a	n/a	n/a	n/a	n/a	n/a	n/a	n/a	n/a
1335529	REC_WORD	wordpools/wasnorm_wordpool.txt	LTP123	ltpFR	6	9	-1	BUILDING	191	n/a	n/a	-1	n/a	n/a	n/a	n/a	n/a
1336112	REC_WORD	wordpools/wasnorm_wordpool.txt	LTP123	ltpFR	6	9	-1	STATUE	1374	n/a	n/a	-1	n/a	n/a	n/a	n/a	n/a
1337749	REC_WORD	wordpools/wasnorm_wordpool.txt	LTP123	ltpFR	6	9	-1	GLASSES	640	n/a	n/a	-1	n/a	n/a	n/a	n/a	n/a
1338795	REC_WORD	wordpools/wasnorm_wordpool.txt	LTP123	ltpFR	6	9	-1	WINE	1613	n/a	n/a	-1	n/a	n/a	n/a	n/a	n/a
1340194	REC_WORD	wordpools/wasnorm_wordpool.txt	LTP123	ltpFR	6	9	-1	GYMNAST	675	n/a	n/a	-1	n/a	n/a	n/a	n/a	n/a
1341127	REC_WORD	wordpools/wasnorm_wordpool.txt	LTP123	ltpFR	6	9	-1	CIRCUS	311	n/a	n/a	-1	n/a	n/a	n/a	n/a	n/a
1345457	REC_WORD	wordpools/wasnorm_wordpool.txt	LTP123	ltpFR	6	9	-1	TREASURE	1500	n/a	n/a	-1	n/a	n/a	n/a	n/a	n/a
1348405	REC_WORD	wordpools/wasnorm_wordpool.txt	LTP123	ltpFR	6	9	-1	HERD	705	n/a	n/a	-1	n/a	n/a	n/a	n/a	n/a
1351283	REC_WORD	wordpools/wasnorm_wordpool.txt	LTP123	ltpFR	6	9	-1	BARTENDER	92	n/a	n/a	-1	n/a	n/a	n/a	n/a	n/a
1353019	REC_WORD	wordpools/wasnorm_wordpool.txt	LTP123	ltpFR	6	9	-1	HAY	693	n/a	n/a	-1	n/a	n/a	n/a	n/a	n/a
1435148	WORD	wordpools/wasnorm_wordpool.txt	LTP123	ltpFR	6	10	0	COW	393	n/a	n/a	1	0.57763671875	0.412841796875	1	upper	zerothre.ttf
1439038	WORD	wordpools/wasnorm_wordpool.txt	LTP123	ltpFR	6	10	0	COLONEL	348	n/a	n/a	1	0.57763671875	0.412841796875	1	upper	zerothre.ttf
1442944	WORD	wordpools/wasnorm_wordpool.txt	LTP123	ltpFR	6	10	0	MILITARY	894	n/a	n/a	1	0.57763671875	0.412841796875	1	upper	zerothre.ttf
1446926	WORD	wordpools/wasnorm_wordpool.txt	LTP123	ltpFR	6	10	1	GREASE	660	n/a	n/a	0	0.422607421875	0.5869140625	0	lower	amplitud.ttf
1450916	WORD	wordpools/wasnorm_wordpool.txt	LTP123	ltpFR	6	10	1	DOORBELL	487	n/a	n/a	0	0.422607421875	0.5869140625	0	lower	amplitud.ttf
1455024	WORD	wordpools/wasnorm_wordpool.txt	LTP123	ltpFR	6	10	1	STICKER	1382	n/a	n/a	0	0.422607421875	0.5869140625	0	lower	amplitud.ttf
1459014	WORD	wordpools/wasnorm_wordpool.txt	LTP123	ltpFR	6	10	1	SMOG	1330	n/a	n/a	0	0.422607421875	0.5869140625	0	lower	amplitud.ttf
1462829	WORD	wordpools/wasnorm_wordpool.txt	LTP123	ltpFR	6	10	1	CHEF	290	n/a	n/a	1	0.422607421875	0.5869140625	0	lower	amplitud.ttf
1466935	WORD	wordpools/wasnorm_wordpool.txt	LTP123	ltpFR	6	10	1	DISH	474	n/a	n/a	0	0.422607421875	0.5869140625	0	lower	amplitud.ttf
1470793	WORD	wordpools/wasnorm_wordpool.txt	LTP123	ltpFR	6	10	0	BUBBLE	183	n/a	n/a	0	0.57763671875	0.412841796875	1	upper	zerothre.ttf
1474758	WORD	wordpools/wasnorm_wordpool.txt	LTP123	ltpFR	6	10	0	UMBRELLA	1534	n/a	n/a	1	0.57763671875	0.412841796875	1	upper	zerothre.ttf
1478890	WORD	wordpools/wasnorm_wordpool.txt	LTP123	ltpFR	6	10	1	CREAM	402	n/a	n/a	0	0.422607421875	0.5869140625	0	lower	amplitud.ttf
1482805	WORD	wordpools/wasnorm_wordpool.txt	LTP123	ltpFR	6	10	1	LIMOUSINE	824	n/a	n/a	0	0.422607421875	0.5869140625	0	lower	amplitud.ttf
1486795	WORD	wordpools/wasnorm_wordpool.txt	LTP123	ltpFR	6	10	0	JEWEL	757	n/a	n/a	0	0.57763671875	0.412841796875	1	upper	zerothre.ttf
1490710	WORD	wordpools/wasnorm_wordpool.txt	LTP123	ltpFR	6	10	0	PANTHER	1009	n/a	n/a	1	0.57763671875	0.412841796875	1	upper	zerothre.ttf
1494834	WORD	wordpools/wasnorm_wordpool.txt	LTP123	ltpFR	6	10	0	ZEBRA	1635	n/a	n/a	1	0.57763671875	0.412841796875	1	upper	zerothre.ttf
1500667	REC_START	n/a	LTP123	ltpFR	6	10	n/a	n/a	n/a	n/a	n/a	n/a	n/a	n/a	n/a	n/a	n/a
1501295	REC_WORD	wordpools/wasnorm_wordpool.txt	LTP123	ltpFR	6	10	0	ZEBRA	1635	n/a	n/a	1	n/a	n/a	n/a	n/a	n/a
1502288	REC_WORD	wordpools/wasnorm_wordpool.txt	LTP123	ltpFR	6	10	0	PANTHER	1009	n/a	n/a	1	n/a	n/a	n/a	n/a	n/a
1503204	REC_WORD	wordpools/wasnorm_wordpool.txt	LTP123	ltpFR	6	10	1	CHEF	290	n/a	n/a	1	n/a	n/a	n/a	n/a	n/a
1504433	REC_WORD	wordpools/wasnorm_wordpool.txt	LTP123	ltpFR	6	10	1	DISH	474	n/a	n/a	0	n/a	n/a	n/a	n/a	n/a
1505132	REC_WORD	wordpools/wasnorm_wordpool.txt	LTP123	ltpFR	6	10	0	UMBRELLA	1534	n/a	n/a	1	n/a	n/a	n/a	n/a	n/a
1507910	REC_WORD	wordpools/wasnorm_wordpool.txt	LTP123	ltpFR	6	10	0	JEWEL	757	n/a	n/a	0	n/a	n/a	n/a	n/a	n/a
1509212	REC_WORD	wordpools/wasnorm_wordpool.txt	LTP123	ltpFR	6	10	0	BUBBLE	183	n/a	n/a	0	n/a	n/a	n/a	n/a	n/a
1512709	REC_WORD	wordpools/wasnorm_wordpool.txt	LTP123	ltpFR	6	10	1	LIMOUSINE	824	n/a	n/a	0	n/a	n/a	n/a	n/a	n/a
1534739	REC_WORD	wordpools/wasnorm_wordpool.txt	LTP123	ltpFR	6	10	0	MILITARY	894	n/a	n/a	1	n/a	n/a	n/a	n/a	n/a
1545270	REC_WORD	wordpools/wasnorm_wordpool.txt	LTP123	ltpFR	6	10	0	ZEBRA	1635	n/a	n/a	1	n/a	n/a	n/a	n/a	n/a
1546133	REC_WORD	wordpools/wasnorm_wordpool.txt	LTP123	ltpFR	6	10	0	PANTHER	1009	n/a	n/a	1	n/a	n/a	n/a	n/a	n/a
1582445	WORD	wordpools/wasnorm_wordpool.txt	LTP123	ltpFR	6	11	0	BLACKBOARD	133	n/a	n/a	1	0.57763671875	0.412841796875	1	upper	zerothre.ttf
1586361	WORD	wordpools/wasnorm_wordpool.txt	LTP123	ltpFR	6	11	0	ROOM	1206	n/a	n/a	1	0.57763671875	0.412841796875	1	upper	zerothre.ttf
1590359	WORD	wordpools/wasnorm_wordpool.txt	LTP123	ltpFR	6	11	0	HIKER	708	n/a	n/a	1	0.57763671875	0.412841796875	1	upper	zerothre.ttf
1594433	WORD	wordpools/wasnorm_wordpool.txt	LTP123	ltpFR	6	11	0	SHOULDER	1294	n/a	n/a	1	0.57763671875	0.412841796875	1	upper	zerothre.ttf
1598381	WORD	wordpools/wasnorm_wordpool.txt	LTP123	ltpFR	6	11	0	TAXI	1438	n/a	n/a	1	0.57763671875	0.412841796875	1	upper	zerothre.ttf
1602255	WORD	wordpools/wasnorm_wordpool.txt	LTP123	ltpFR	6	11	0	CRATER	400	n/a	n/a	1	0.57763671875	0.412841796875	1	upper	zerothre.ttf
1606370	WORD	wordpools/wasnorm_wordpool.txt	LTP123	ltpFR	6	11	0	ANKLE	24	n/a	n/a	0	0.57763671875	0.412841796875	1	upper	zerothre.ttf
1610277	WORD	wordpools/wasnorm_wordpool.txt	LTP123	ltpFR	6	11	0	TAG	1429	n/a	n/a	0	0.57763671875	0.412841796875	1	upper	zerothre.ttf
1614259	WORD	wordpools/wasnorm_wordpool.txt	LTP123	ltpFR	6	11	0	YACHT	1629	n/a	n/a	1	0.57763671875	0.412841796875	1	upper	zerothre.ttf
1618074	WORD	wordpools/wasnorm_wordpool.txt	LTP123	ltpFR	6	11	0	FOOT	590	n/a	n/a	0	0.57763671875	0.412841796875	1	upper	zerothre.ttf
1622015	WORD	wordpools/wasnorm_wordpool.txt	LTP123	ltpFR	6	11	0	BOUQUET	157	n/a	n/a	0	0.57763671875	0.412841796875	1	upper	zerothre.ttf
1626147	WORD	wordpools/wasnorm_wordpool.txt	LTP123	ltpFR	6	11	0	GRATE	657	n/a	n/a	1	0.57763671875	0.412841796875	1	upper	zerothre.ttf
1630287	WORD	wordpools/wasnorm_wordpool.txt	LTP123	ltpFR	6	11	0	COTTAGE	384	n/a	n/a	1	0.57763671875	0.412841796875	1	upper	zerothre.ttf
1634394	WORD	wordpools/wasnorm_wordpool.txt	LTP123	ltpFR	6	11	0	ENGINE	535	n/a	n/a	1	0.57763671875	0.412841796875	1	upper	zerothre.ttf
1638317	WORD	wordpools/wasnorm_wordpool.txt	LTP123	ltpFR	6	11	0	MOTH	920	n/a	n/a	0	0.57763671875	0.412841796875	1	upper	zerothre.ttf
1642133	WORD	wordpools/wasnorm_wordpool.txt	LTP123	ltpFR	6	11	0	TERMITE	1451	n/a	n/a	0	0.57763671875	0.412841796875	1	upper	zerothre.ttf
1647897	REC_START	n/a	LTP123	ltpFR	6	11	n/a	n/a	n/a	n/a	n/a	n/a	n/a	n/a	n/a	n/a	n/a
1650391	REC_WORD	wordpools/wasnorm_wordpool.txt	LTP123	ltpFR	6	11	0	TERMITE	1451	n/a	n/a	0	n/a	n/a	n/a	n/a	n/a
1652362	REC_WORD	wordpools/wasnorm_wordpool.txt	LTP123	ltpFR	6	11	0	COTTAGE	384	n/a	n/a	1	n/a	n/a	n/a	n/a	n/a
1654467	REC_WORD	wordpools/wasnorm_wordpool.txt	LTP123	ltpFR	6	11	0	ANKLE	24	n/a	n/a	0	n/a	n/a	n/a	n/a	n/a
1655215	REC_WORD	wordpools/wasnorm_wordpool.txt	LTP123	ltpFR	6	11	0	FOOT	590	n/a	n/a	0	n/a	n/a	n/a	n/a	n/a
1656547	REC_WORD	wordpools/wasnorm_wordpool.txt	LTP123	ltpFR	6	11	0	SHOULDER	1294	n/a	n/a	1	n/a	n/a	n/a	n/a	n/a
1658932	REC_WORD	wordpools/wasnorm_wordpool.txt	LTP123	ltpFR	6	11	0	CRATER	400	n/a	n/a	1	n/a	n/a	n/a	n/a	n/a
1660892	REC_WORD	wordpools/wasnorm_wordpool.txt	LTP123	ltpFR	6	11	0	TAXI	1438	n/a	n/a	1	n/a	n/a	n/a	n/a	n/a
1739290	WORD	wordpools/wasnorm_wordpool.txt	LTP123	ltpFR	6	12	1	SCALPEL	1243	n/a	n/a	0	0.422607421875	0.5869140625	0	lower	amplitud.ttf
1743347	WORD	wordpools/wasnorm_wordpool.txt	LTP123	ltpFR	6	12	1	POTTERY	1116	n/a	n/a	0	0.422607421875	0.5869140625	0	lower	amplitud.ttf
1747395	WORD	wordpools/wasnorm_wordpool.txt	LTP123	ltpFR	6	12	1	SCULPTURE	1258	n/a	n/a	0	0.422607421875	0.5869140625	0	lower	amplitud.ttf
1751327	WORD	wordpools/wasnorm_wordpool.txt	LTP123	ltpFR	6	12	0	PHYSICIAN	1056	n/a	n/a	1	0.57763671875	0.412841796875	1	upper	zerothre.ttf
1755392	WORD	wordpools/wasnorm_wordpool.txt	LTP123	ltpFR	6	12	0	KID	775	n/a	n/a	1	0.57763671875	0.412841796875	1	upper	zerothre.ttf
1759441	WORD	wordpools/wasnorm_wordpool.txt	LTP123	ltpFR	6	12	0	ATMOSPHERE	54	n/a	n/a	1	0.57763671875	0.412841796875	1	upper	zerothre.ttf
1763406	WORD	wordpools/wasnorm_wordpool.txt	LTP123	ltpFR	6	12	0	MOSQUITO	917	n/a	n/a	0	0.57763671875	0.412841796875	1	upper	zerothre.ttf
1767421	WORD	wordpools/wasnorm_wordpool.txt	LTP123	ltpFR	6	12	0	FINGER	567	n/a	n/a	0	0.57763671875	0.412841796875	1	upper	zerothre.ttf
1771545	WORD	wordpools/wasnorm_wordpool.txt	LTP123	ltpFR	6	12	0	ELK	526	n/a	n/a	1	0.57763671875	0.412841796875	1	upper	zerothre.ttf
1775477	WORD	wordpools/wasnorm_wordpool.txt	LTP123	ltpFR	6	12	1	RODENT	1204	n/a	n/a	1	0.422607421875	0.5869140625	0	lower	amplitud.ttf
1779509	WORD	wordpools/wasnorm_wordpool.txt	LTP123	ltpFR	6	12	1	TOY	1492	n/a	n/a	0	0.422607421875	0.5869140625	0	lower	amplitud.ttf
1783524	WORD	wordpools/wasnorm_wordpool.txt	LTP123	ltpFR	6	12	1	SHOVEL	1295	n/a	n/a	0	0.422607421875	0.5869140625	0	lower	amplitud.ttf
1787531	WORD	wordpools/wasnorm_wordpool.txt	LTP123	ltpFR	6	12	0	COUGAR	387	n/a	n/a	1	0.57763671875	0.412841796875	1	upper	zerothre.ttf
1791346	WORD	wordpools/wasnorm_wordpool.txt	LTP123	ltpFR	6	12	0	BEAVER	109	n/a	n/a	1	0.57763671875	0.412841796875	1	upper	zerothre.ttf
1795337	WORD	wordpools/wasnorm_wordpool.txt	LTP123	ltpFR	6	12	1	RAIL	1161	n/a	n/a	0	0.422607421875	0.5869140625	0	lower	amplitud.ttf
1799318	WORD	wordpools/wasnorm_wordpool.txt	LTP123	ltpFR	6	12	1	CABOOSE	214	n/a	n/a	0	0.422607421875	0.5869140625	0	lower	amplitud.ttf
1805100	REC_START	n/a	LTP123	ltpFR	6	12	n/a	n/a	n/a	n/a	n/a	n/a	n/a	n/a	n/a	n/a	n/a
1805843	REC_WORD	wordpools/wasnorm_wordpool.txt	LTP123	ltpFR	6	12	1	CABOOSE	214	n/a	n/a	0	n/a	n/a	n/a	n/a	n/a
1807035	REC_WORD	wordpools/wasnorm_wordpool.txt	LTP123	ltpFR	6	12	1	RAIL	1161	n/a	n/a	0	n/a	n/a	n/a	n/a	n/a
1808347	REC_WORD	wordpools/wasnorm_wordpool.txt	LTP123	ltpFR	6	12	0	COUGAR	387	n/a	n/a	1	n/a	n/a	n/a	n/a	n/a
1809684	REC_WORD	wordpools/wasnorm_wordpool.txt	LTP123	ltpFR	6	12	0	KID	775	n/a	n/a	1	n/a	n/a	n/a	n/a	n/a
1810912	REC_WORD	wordpools/wasnorm_wordpool.txt	LTP123	ltpFR	6	12	1	TOY	1492	n/a	n/a	0	n/a	n/a	n/a	n/a	n/a
1811819	REC_WORD	wordpools/wasnorm_wordpool.txt	LTP123	ltpFR	6	12	0	PHYSICIAN	1056	n/a	n/a	1	n/a	n/a	n/a	n/a	n/a
1812931	REC_WORD	wordpools/wasnorm_wordpool.txt	LTP123	ltpFR	6	12	1	SCALPEL	1243	n/a	n/a	0	n/a	n/a	n/a	n/a	n/a
1814732	REC_WORD	wordpools/wasnorm_wordpool.txt	LTP123	ltpFR	6	12	0	FINGER	567	n/a	n/a	0	n/a	n/a	n/a	n/a	n/a
1824311	REC_WORD	wordpools/wasnorm_wordpool.txt	LTP123	ltpFR	6	12	1	RODENT	1204	n/a	n/a	1	n/a	n/a	n/a	n/a	n/a
1846426	REC_WORD	wordpools/wasnorm_wordpool.txt	LTP123	ltpFR	6	12	1	CABOOSE	214	n/a	n/a	0	n/a	n/a	n/a	n/a	n/a
1880680	REST_REWET	n/a	LTP123	ltpFR	6	12	n/a	n/a	n/a	n/a	n/a	n/a	n/a	n/a	n/a	n/a	n/a
2514963	WORD	wordpools/wasnorm_wordpool.txt	LTP123	ltpFR	6	13	1	ANTLER	29	n/a	n/a	0	0.422607421875	0.5869140625	0	lower	amplitud.ttf
2519038	WORD	wordpools/wasnorm_wordpool.txt	LTP123	ltpFR	6	13	1	NEPTUNE	943	n/a	n/a	0	0.422607421875	0.5869140625	0	lower	amplitud.ttf
2522852	WORD	wordpools/wasnorm_wordpool.txt	LTP123	ltpFR	6	13	1	CHEERLEADER	288	n/a	n/a	1	0.422607421875	0.5869140625	0	lower	amplitud.ttf
2527001	WORD	wordpools/wasnorm_wordpool.txt	LTP123	ltpFR	6	13	1	UNIVERSITY	1541	n/a	n/a	0	0.422607421875	0.5869140625	0	lower	amplitud.ttf
2530833	WORD	wordpools/wasnorm_wordpool.txt	LTP123	ltpFR	6	13	1	CREEK	404	n/a	n/a	0	0.422607421875	0.5869140625	0	lower	amplitud.ttf
2534706	WORD	wordpools/wasnorm_wordpool.txt	LTP123	ltpFR	6	13	1	BROOK	177	n/a	n/a	0	0.422607421875	0.5869140625	0	lower	amplitud.ttf
2538564	WORD	wordpools/wasnorm_wordpool.txt	LTP123	ltpFR	6	13	1	CYLINDER	432	n/a	n/a	0	0.422607421875	0.5869140625	0	lower	amplitud.ttf
2542720	WORD	wordpools/wasnorm_wordpool.txt	LTP123	ltpFR	6	13	1	TRIANGLE	1504	n/a	n/a	0	0.422607421875	0.5869140625	0	lower	amplitud.ttf
2546727	WORD	wordpools/wasnorm_wordpool.txt	LTP123	ltpFR	6	13	1	HARE	688	n/a	n/a	1	0.422607421875	0.5869140625	0	lower	amplitud.ttf
2550627	WORD	wordpools/wasnorm_wordpool.txt	LTP123	ltpFR	6	13	1	SAP	1233	n/a	n/a	0	0.422607421875	0.5869140625	0	lower	amplitud.ttf
2554517	WORD	wordpools/wasnorm_wordpool.txt	LTP123	ltpFR	6	13	1	AMBULANCE	19	n/a	n/a	0	0.422607421875	0.5869140625	0	lower	amplitud.ttf
2558723	WORD	wordpools/wasnorm_wordpool.txt	LTP123	ltpFR	6	13	1	MOOSE	915	n/a	n/a	1	0.422607421875	0.5869140625	0	lower	amplitud.ttf
2562821	WORD	wordpools/wasnorm_wordpool.txt	LTP123	ltpFR	6	13	1	LIMB	822	n/a	n/a	0	0.422607421875	0.5869140625	0	lower	amplitud.ttf
2566720	WORD	wordpools/wasnorm_wordpool.txt	LTP123	ltpFR	6	13	1	MINK	897	n/a	n/a	1	0.422607421875	0.5869140625	0	lower	amplitud.ttf
2570902	WORD	wordpools/wasnorm_wordpool.txt	LTP123	ltpFR	6	13	1	BROTHER	179	n/a	n/a	1	0.422607421875	0.5869140625	0	lower	amplitud.ttf
2574925	WORD	wordpools/wasnorm_wordpool.txt	LTP123	ltpFR	6	13	1	VAN	1548	n/a	n/a	0	0.422607421875	0.5869140625	0	lower	amplitud.ttf
2580807	REC_START	n/a	LTP123	ltpFR	6	13	n/a	n/a	n/a	n/a	n/a	n/a	n/a	n/a	n/a	n/a	n/a
2581605	REC_WORD	wordpools/wasnorm_wordpool.txt	LTP123	ltpFR	6	13	1	VAN	1548	n/a	n/a	0	n/a	n/a	n/a	n/a	n/a
2582463	REC_WORD	wordpools/wasnorm_wordpool.txt	LTP123	ltpFR	6	13	1	BROTHER	179	n/a	n/a	1	n/a	n/a	n/a	n/a	n/a
2583211	REC_WORD	wordpools/wasnorm_wordpool.txt	LTP123	ltpFR	6	13	1	MOOSE	915	n/a	n/a	1	n/a	n/a	n/a	n/a	n/a
2584159	REC_WORD	wordpools/wasnorm_wordpool.txt	LTP123	ltpFR	6	13	1	MINK	897	n/a	n/a	1	n/a	n/a	n/a	n/a	n/a
2585436	REC_WORD	wordpools/wasnorm_wordpool.txt	LTP123	ltpFR	6	13	1	CHEERLEADER	288	n/a	n/a	1	n/a	n/a	n/a	n/a	n/a
2586377	REC_WORD	wordpools/wasnorm_wordpool.txt	LTP123	ltpFR	6	13	1	UNIVERSITY	1541	n/a	n/a	0	n/a	n/a	n/a	n/a	n/a
2588060	REC_WORD	wordpools/wasnorm_wordpool.txt	LTP123	ltpFR	6	13	1	LIMB	822	n/a	n/a	0	n/a	n/a	n/a	n/a	n/a
2602567	REC_WORD	wordpools/wasnorm_wordpool.txt	LTP123	ltpFR	6	13	1	VAN	1548	n/a	n/a	0	n/a	n/a	n/a	n/a	n/a
2611592	REC_WORD	wordpools/wasnorm_wordpool.txt	LTP123	ltpFR	6	13	1	CYLINDER	432	n/a	n/a	0	n/a	n/a	n/a	n/a	n/a
2668485	WORD	wordpools/wasnorm_wordpool.txt	LTP123	ltpFR	6	14	-1	CREVICE	405	n/a	n/a	-1	1.0	1.0	1	upper	Verdana.ttf
2672458	WORD	wordpools/wasnorm_wordpool.txt	LTP123	ltpFR	6	14	-1	ARTERY	41	n/a	n/a	-1	1.0	1.0	1	upper	Verdana.ttf
2676440	WORD	wordpools/wasnorm_wordpool.txt	LTP123	ltpFR	6	14	-1	POOL	1103	n/a	n/a	-1	1.0	1.0	1	upper	Verdana.ttf
2680514	WORD	wordpools/wasnorm_wordpool.txt	LTP123	ltpFR	6	14	-1	ISLAND	745	n/a	n/a	-1	1.0	1.0	1	upper	Verdana.ttf
2684363	WORD	wordpools/wasnorm_wordpool.txt	LTP123	ltpFR	6	14	-1	OCTOPUS	971	n/a	n/a	-1	1.0	1.0	1	upper	Verdana.ttf
2688328	WORD	wordpools/wasnorm_wordpool.txt	LTP123	ltpFR	6	14	-1	TUNA	1518	n/a	n/a	-1	1.0	1.0	1	upper	Verdana.ttf
2692385	WORD	wordpools/wasnorm_wordpool.txt	LTP123	ltpFR	6	14	-1	ROCK	1201	n/a	n/a	-1	1.0	1.0	1	upper	Verdana.ttf
2696533	WORD	wordpools/wasnorm_wordpool.txt	LTP123	ltpFR	6	14	-1	FLESH	579	n/a	n/a	-1	1.0	1.0	1	upper	Verdana.ttf
2700407	WORD	wordpools/wasnorm_wordpool.txt	LTP123	ltpFR	6	14	-1	COD	340	n/a	n/a	-1	1.0	1.0	1	upper	Verdana.ttf
2704480	WORD	wordpools/wasnorm_wordpool.txt	LTP123	ltpFR	6	14	-1	REFRIGERATOR	1179	n/a	n/a	-1	1.0	1.0	1	upper	Verdana.ttf
2708362	WORD	wordpools/wasnorm_wordpool.txt	LTP123	ltpFR	6	14	-1	SUBWAY	1400	n/a	n/a	-1	1.0	1.0	1	upper	Verdana.ttf
2712286	WORD	wordpools/wasnorm_wordpool.txt	LTP123	ltpFR	6	14	-1	NEWSSTAND	949	n/a	n/a	-1	1.0	1.0	1	upper	Verdana.ttf
2716218	WORD	wordpools/wasnorm_wordpool.txt	LTP123	ltpFR	6	14	-1	SHEET	1279	n/a	n/a	-1	1.0	1.0	1	upper	Verdana.ttf
2720233	WORD	wordpools/wasnorm_wordpool.txt	LTP123	ltpFR	6	14	-1	YOKE	1632	n/a	n/a	-1	1.0	1.0	1	upper	Verdana.ttf
2724065	WORD	wordpools/wasnorm_wordpool.txt	LTP123	ltpFR	6	14	-1	SCAPEGOAT	1244	n/a	n/a	-1	1.0	1.0	1	upper	Verdana.ttf
2728014	WORD	wordpools/wasnorm_wordpool.txt	LTP123	ltpFR	6	14	-1	JEEP	753	n/a	n/a	-1	1.0	1.0	1	upper	Verdana.ttf
2733878	REC_START	n/a	LTP123	ltpFR	6	14	n/a	n/a	n/a	n/a	n/a	n/a	n/a	n/a	n/a	n/a	n/a
2734940	REC_WORD	wordpools/wasnorm_wordpool.txt	LTP123	ltpFR	6	14	-1	JEEP	753	n/a	n/a	-1	n/a	n/a	n/a	n/a	n/a
2735623	REC_WORD	wordpools/wasnorm_wordpool.txt	LTP123	ltpFR	6	14	-1	SCAPEGOAT	1244	n/a	n/a	-1	n/a	n/a	n/a	n/a	n/a
2736612	REC_WORD	wordpools/wasnorm_wordpool.txt	LTP123	ltpFR	6	14	-1	REFRIGERATOR	1179	n/a	n/a	-1	n/a	n/a	n/a	n/a	n/a
2737535	REC_WORD	wordpools/wasnorm_wordpool.txt	LTP123	ltpFR	6	14	-1	SUBWAY	1400	n/a	n/a	-1	n/a	n/a	n/a	n/a	n/a
2738482	REC_WORD	wordpools/wasnorm_wordpool.txt	LTP123	ltpFR	6	14	-1	NEWSSTAND	949	n/a	n/a	-1	n/a	n/a	n/a	n/a	n/a
2740029	REC_WORD	wordpools/wasnorm_wordpool.txt	LTP123	ltpFR	6	14	-1	SHEET	1279	n/a	n/a	-1	n/a	n/a	n/a	n/a	n/a
2742084	REC_WORD	wordpools/wasnorm_wordpool.txt	LTP123	ltpFR	6	14	-1	OCTOPUS	971	n/a	n/a	-1	n/a	n/a	n/a	n/a	n/a
2743052	REC_WORD	wordpools/wasnorm_wordpool.txt	LTP123	ltpFR	6	14	-1	COD	340	n/a	n/a	-1	n/a	n/a	n/a	n/a	n/a
2744668	REC_WORD	wordpools/wasnorm_wordpool.txt	LTP123	ltpFR	6	14	-1	ISLAND	745	n/a	n/a	-1	n/a	n/a	n/a	n/a	n/a
2745531	REC_WORD	wordpools/wasnorm_wordpool.txt	LTP123	ltpFR	6	14	-1	ROCK	1201	n/a	n/a	-1	n/a	n/a	n/a	n/a	n/a
2754022	REC_WORD	wordpools/wasnorm_wordpool.txt	LTP123	ltpFR	6	14	1	BROTHER	179	n/a	n/a	1	n/a	n/a	n/a	n/a	n/a
2819905	WORD	wordpools/wasnorm_wordpool.txt	LTP123	ltpFR	6	15	1	SECRETARY	1265	n/a	n/a	1	0.422607421875	0.5869140625	0	lower	amplitud.ttf
2823995	WORD	wordpools/wasnorm_wordpool.txt	LTP123	ltpFR	6	15	1	KNOT	788	n/a	n/a	0	0.422607421875	0.5869140625	0	lower	amplitud.ttf
2827844	WORD	wordpools/wasnorm_wordpool.txt	LTP123	ltpFR	6	15	0	LONDON	843	n/a	n/a	1	0.57763671875	0.412841796875	1	upper	zerothre.ttf
2831734	WORD	wordpools/wasnorm_wordpool.txt	LTP123	ltpFR	6	15	0	CHESS	294	n/a	n/a	0	0.57763671875	0.412841796875	1	upper	zerothre.ttf
2835650	WORD	wordpools/wasnorm_wordpool.txt	LTP123	ltpFR	6	15	1	KEY	773	n/a	n/a	0	0.422607421875	0.5869140625	0	lower	amplitud.ttf
2839607	WORD	wordpools/wasnorm_wordpool.txt	LTP123	ltpFR	6	15	1	HALL	677	n/a	n/a	1	0.422607421875	0.5869140625	0	lower	amplitud.ttf
2843464	WORD	wordpools/wasnorm_wordpool.txt	LTP123	ltpFR	6	15	1	DESIGNER	451	n/a	n/a	1	0.422607421875	0.5869140625	0	lower	amplitud.ttf
2847488	WORD	wordpools/wasnorm_wordpool.txt	LTP123	ltpFR	6	15	1	PORCUPINE	1107	n/a	n/a	1	0.422607421875	0.5869140625	0	lower	amplitud.ttf
2851512	WORD	wordpools/wasnorm_wordpool.txt	LTP123	ltpFR	6	15	1	OPERATOR	979	n/a	n/a	1	0.422607421875	0.5869140625	0	lower	amplitud.ttf
2855518	WORD	wordpools/wasnorm_wordpool.txt	LTP123	ltpFR	6	15	1	COAT	333	n/a	n/a	0	0.422607421875	0.5869140625	0	lower	amplitud.ttf
2859484	WORD	wordpools/wasnorm_wordpool.txt	LTP123	ltpFR	6	15	0	JAW	751	n/a	n/a	0	0.57763671875	0.412841796875	1	upper	zerothre.ttf
2863449	WORD	wordpools/wasnorm_wordpool.txt	LTP123	ltpFR	6	15	0	BARRACUDA	90	n/a	n/a	1	0.57763671875	0.412841796875	1	upper	zerothre.ttf
2867581	WORD	wordpools/wasnorm_wordpool.txt	LTP123	ltpFR	6	15	0	BLUEBERRY	140	n/a	n/a	0	0.57763671875	0.412841796875	1	upper	zerothre.ttf
2871596	WORD	wordpools/wasnorm_wordpool.txt	LTP123	ltpFR	6	15	0	PUMPKIN	1142	n/a	n/a	1	0.57763671875	0.412841796875	1	upper	zerothre.ttf
2875685	WORD	wordpools/wasnorm_wordpool.txt	LTP123	ltpFR	6	15	0	SWEATER	1419	n/a	n/a	0	0.57763671875	0.412841796875	1	upper	zerothre.ttf
2879676	WORD	wordpools/wasnorm_wordpool.txt	LTP123	ltpFR	6	15	0	PIN	1072	n/a	n/a	0	0.57763671875	0.412841796875	1	upper	zerothre.ttf
2885358	REC_START	n/a	LTP123	ltpFR	6	15	n/a	n/a	n/a	n/a	n/a	n/a	n/a	n/a	n/a	n/a	n/a
2885946	REC_WORD	wordpools/wasnorm_wordpool.txt	LTP123	ltpFR	6	15	0	PIN	1072	n/a	n/a	0	n/a	n/a	n/a	n/a	n/a
2886619	REC_WORD	wordpools/wasnorm_wordpool.txt	LTP123	ltpFR	6	15	0	SWEATER	1419	n/a	n/a	0	n/a	n/a	n/a	n/a	n/a
2887777	REC_WORD	wordpools/wasnorm_wordpool.txt	LTP123	ltpFR	6	15	0	PUMPKIN	1142	n/a	n/a	1	n/a	n/a	n/a	n/a	n/a
2888680	REC_WORD	wordpools/wasnorm_wordpool.txt	LTP123	ltpFR	6	15	0	BLUEBERRY	140	n/a	n/a	0	n/a	n/a	n/a	n/a	n/a
2890885	REC_WORD	wordpools/wasnorm_wordpool.txt	LTP123	ltpFR	6	15	1	SECRETARY	1265	n/a	n/a	1	n/a	n/a	n/a	n/a	n/a
2895200	REC_WORD	wordpools/wasnorm_wordpool.txt	LTP123	ltpFR	6	15	1	KEY	773	n/a	n/a	0	n/a	n/a	n/a	n/a	n/a
2901361	REC_WORD	wordpools/wasnorm_wordpool.txt	LTP123	ltpFR	6	15	0	BARRACUDA	90	n/a	n/a	1	n/a	n/a	n/a	n/a	n/a
2912636	REC_WORD	wordpools/wasnorm_wordpool.txt	LTP123	ltpFR	6	15	0	JAW	751	n/a	n/a	0	n/a	n/a	n/a	n/a	n/a
2973975	WORD	wordpools/wasnorm_wordpool.txt	LTP123	ltpFR	6	16	-1	CHECKERS	285	n/a	n/a	-1	1.0	1.0	1	upper	Verdana.ttf
2978017	WORD	wordpools/wasnorm_wordpool.txt	LTP123	ltpFR	6	16	-1	MOON	914	n/a	n/a	-1	1.0	1.0	1	upper	Verdana.ttf
2982165	WORD	wordpools/wasnorm_wordpool.txt	LTP123	ltpFR	6	16	-1	CITRUS	313	n/a	n/a	-1	1.0	1.0	1	upper	Verdana.ttf
2986147	WORD	wordpools/wasnorm_wordpool.txt	LTP123	ltpFR	6	16	-1	CATTLE	261	n/a	n/a	-1	1.0	1.0	1	upper	Verdana.ttf
2990254	WORD	wordpools/wasnorm_wordpool.txt	LTP123	ltpFR	6	16	-1	FARMER	553	n/a	n/a	-1	1.0	1.0	1	upper	Verdana.ttf
2994311	WORD	wordpools/wasnorm_wordpool.txt	LTP123	ltpFR	6	16	-1	GENERAL	630	n/a	n/a	-1	1.0	1.0	1	upper	Verdana.ttf
2998343	WORD	wordpools/wasnorm_wordpool.txt	LTP123	ltpFR	6	16	-1	DAISY	435	n/a	n/a	-1	1.0	1.0	1	upper	Verdana.ttf
3002458	WORD	wordpools/wasnorm_wordpool.txt	LTP123	ltpFR	6	16	-1	TULIP	1517	n/a	n/a	-1	1.0	1.0	1	upper	Verdana.ttf
3006507	WORD	wordpools/wasnorm_wordpool.txt	LTP123	ltpFR	6	16	-1	MUFFIN	929	n/a	n/a	-1	1.0	1.0	1	upper	Verdana.ttf
3010522	WORD	wordpools/wasnorm_wordpool.txt	LTP123	ltpFR	6	16	-1	BERRY	122	n/a	n/a	-1	1.0	1.0	1	upper	Verdana.ttf
3014395	WORD	wordpools/wasnorm_wordpool.txt	LTP123	ltpFR	6	16	-1	RAG	1160	n/a	n/a	-1	1.0	1.0	1	upper	Verdana.ttf
3018569	WORD	wordpools/wasnorm_wordpool.txt	LTP123	ltpFR	6	16	-1	PORTRAIT	1111	n/a	n/a	-1	1.0	1.0	1	upper	Verdana.ttf
3022459	WORD	wordpools/wasnorm_wordpool.txt	LTP123	ltpFR	6	16	-1	UNICORN	1538	n/a	n/a	-1	1.0	1.0	1	upper	Verdana.ttf
3026433	WORD	wordpools/wasnorm_wordpool.txt	LTP123	ltpFR	6	16	-1	SOFTBALL	1343	n/a	n/a	-1	1.0	1.0	1	upper	Verdana.ttf
3030306	WORD	wordpools/wasnorm_wordpool.txt	LTP123	ltpFR	6	16	-1	UNIFORM	1539	n/a	n/a	-1	1.0	1.0	1	upper	Verdana.ttf
3034355	WORD	wordpools/wasnorm_wordpool.txt	LTP123	ltpFR	6	16	-1	PAINTING	1005	n/a	n/a	-1	1.0	1.0	1	upper	Verdana.ttf
3040378	REC_START	n/a	LTP123	ltpFR	6	16	n/a	n/a	n/a	n/a	n/a	n/a	n/a	n/a	n/a	n/a	n/a
3041076	REC_WORD	wordpools/wasnorm_wordpool.txt	LTP123	ltpFR	6	16	-1	PAINTING	1005	n/a	n/a	-1	n/a	n/a	n/a	n/a	n/a
3042443	REC_WORD	wordpools/wasnorm_wordpool.txt	LTP123	ltpFR	6	16	-1	SOFTBALL	1343	n/a	n/a	-1	n/a	n/a	n/a	n/a	n/a
3043640	REC_WORD	wordpools/wasnorm_wordpool.txt	LTP123	ltpFR	6	16	-1	UNIFORM	1539	n/a	n/a	-1	n/a	n/a	n/a	n/a	n/a
3045157	REC_WORD	wordpools/wasnorm_wordpool.txt	LTP123	ltpFR	6	16	1	SCULPTURE	1258	n/a	n/a	0	n/a	n/a	n/a	n/a	n/a
3047078	REC_WORD	wordpools/wasnorm_wordpool.txt	LTP123	ltpFR	6	16	-1	UNICORN	1538	n/a	n/a	-1	n/a	n/a	n/a	n/a	n/a
3048664	REC_WORD	wordpools/wasnorm_wordpool.txt	LTP123	ltpFR	6	16	-1	DAISY	435	n/a	n/a	-1	n/a	n/a	n/a	n/a	n/a
3049991	REC_WORD	wordpools/wasnorm_wordpool.txt	LTP123	ltpFR	6	16	-1	TULIP	1517	n/a	n/a	-1	n/a	n/a	n/a	n/a	n/a
3051323	REC_WORD	wordpools/wasnorm_wordpool.txt	LTP123	ltpFR	6	16	-1	MOON	914	n/a	n/a	-1	n/a	n/a	n/a	n/a	n/a
3052605	REC_WORD	wordpools/wasnorm_wordpool.txt	LTP123	ltpFR	6	16	-1	FARMER	553	n/a	n/a	-1	n/a	n/a	n/a	n/a	n/a
3055164	REC_WORD	wordpools/wasnorm_wordpool.txt	LTP123	ltpFR	6	16	-1	MUFFIN	929	n/a	n/a	-1	n/a	n/a	n/a	n/a	n/a
3056332	REC_WORD	wordpools/wasnorm_wordpool.txt	LTP123	ltpFR	6	16	-1	BERRY	122	n/a	n/a	-1	n/a	n/a	n/a	n/a	n/a
3065576	REC_WORD	wordpools/wasnorm_wordpool.txt	LTP123	ltpFR	6	16	-1	GENERAL	630	n/a	n/a	-1	n/a	n/a	n/a	n/a	n/a
3068624	REC_WORD	wordpools/wasnorm_wordpool.txt	LTP123	ltpFR	6	16	-1	CHECKERS	285	n/a	n/a	-1	n/a	n/a	n/a	n/a	n/a
3136669	REC_START	n/a	LTP123	ltpFR	6	1	n/a	n/a	n/a	n/a	n/a	n/a	n/a	n/a	n/a	n/a	n/a
3136701	RECOG_TARGET	n/a	LTP123	ltpFR	6	1	0	VASE	1549	1	2	0	n/a	n/a	n/a	n/a	n/a
3137846	RECOG_RESP	n/a	LTP123	ltpFR	6	1	0	VASE	1549	1	n/a	0	n/a	n/a	n/a	n/a	n/a
3139308	RECOG_CONF	n/a	LTP123	ltpFR	6	1	0	VASE	1549	n/a	2	0	n/a	n/a	n/a	n/a	n/a
3140716	RECOG_TARGET	n/a	LTP123	ltpFR	6	1	-1	BUILDING	191	1	2	-1	n/a	n/a	n/a	n/a	n/a
3141687	RECOG_RESP	n/a	LTP123	ltpFR	6	1	-1	BUILDING	191	1	n/a	-1	n/a	n/a	n/a	n/a	n/a
3143079	RECOG_CONF	n/a	LTP123	ltpFR	6	1	-1	BUILDING	191	n/a	2	-1	n/a	n/a	n/a	n/a	n/a
3144673	RECOG_TARGET	n/a	LTP123	ltpFR	6	1	-1	GLASSES	640	1	5	-1	n/a	n/a	n/a	n/a	n/a
3145289	RECOG_RESP	n/a	LTP123	ltpFR	6	1	-1	GLASSES	640	1	n/a	-1	n/a	n/a	n/a	n/a	n/a
3146491	RECOG_CONF	n/a	LTP123	ltpFR	6	1	-1	GLASSES	640	n/a	5	-1	n/a	n/a	n/a	n/a	n/a
3148148	RECOG_TARGET	n/a	LTP123	ltpFR	6	1	-1	CIRCUS	311	1	5	-1	n/a	n/a	n/a	n/a	n/a
3148861	RECOG_RESP	n/a	LTP123	ltpFR	6	1	-1	CIRCUS	311	1	n/a	-1	n/a	n/a	n/a	n/a	n/a
3150143	RECOG_CONF	n/a	LTP123	ltpFR	6	1	-1	CIRCUS	311	n/a	5	-1	n/a	n/a	n/a	n/a	n/a
3151779	RECOG_TARGET	n/a	LTP123	ltpFR	6	1	1	RODENT	1204	1	4	1	n/a	n/a	n/a	n/a	n/a
3152483	RECOG_RESP	n/a	LTP123	ltpFR	6	1	1	RODENT	1204	1	n/a	1	n/a	n/a	n/a	n/a	n/a
3153745	RECOG_CONF	n/a	LTP123	ltpFR	6	1	1	RODENT	1204	n/a	4	1	n/a	n/a	n/a	n/a	n/a
3155104	RECOG_LURE	n/a	LTP123	ltpFR	6	1	n/a	CAPE	237	1	1	n/a	n/a	n/a	n/a	n/a	n/a
3155925	RECOG_RESP	n/a	LTP123	ltpFR	6	1	n/a	CAPE	237	1	n/a	n/a	n/a	n/a	n/a	n/a	n/a
3157077	RECOG_CONF	n/a	LTP123	ltpFR	6	1	n/a	CAPE	237	n/a	1	n/a	n/a	n/a	n/a	n/a	n/a
3158503	RECOG_TARGET	n/a	LTP123	ltpFR	6	1	0	OUTFIT	988	1	3	1	n/a	n/a	n/a	n/a	n/a
3159143	RECOG_RESP	n/a	LTP123	ltpFR	6	1	0	OUTFIT	988	1	n/a	1	n/a	n/a	n/a	n/a	n/a
3160210	RECOG_CONF	n/a	LTP123	ltpFR	6	1	0	OUTFIT	988	n/a	3	1	n/a	n/a	n/a	n/a	n/a
3161618	RECOG_TARGET	n/a	LTP123	ltpFR	6	1	-1	DAISY	435	1	5	-1	n/a	n/a	n/a	n/a	n/a
3162141	RECOG_RESP	n/a	LTP123	ltpFR	6	1	-1	DAISY	435	1	n/a	-1	n/a	n/a	n/a	n/a	n/a
3163323	RECOG_CONF	n/a	LTP123	ltpFR	6	1	-1	DAISY	435	n/a	5	-1	n/a	n/a	n/a	n/a	n/a
3164958	RECOG_TARGET	n/a	LTP123	ltpFR	6	1	1	FLORIDA	582	1	5	0	n/a	n/a	n/a	n/a	n/a
3165588	RECOG_RESP	n/a	LTP123	ltpFR	6	1	1	FLORIDA	582	1	n/a	0	n/a	n/a	n/a	n/a	n/a
3166825	RECOG_CONF	n/a	LTP123	ltpFR	6	1	1	FLORIDA	582	n/a	5	0	n/a	n/a	n/a	n/a	n/a
3168532	RECOG_TARGET	n/a	LTP123	ltpFR	6	1	1	SHOVEL	1295	1	1	0	n/a	n/a	n/a	n/a	n/a
3169295	RECOG_RESP	n/a	LTP123	ltpFR	6	1	1	SHOVEL	1295	1	n/a	0	n/a	n/a	n/a	n/a	n/a
3170417	RECOG_CONF	n/a	LTP123	ltpFR	6	1	1	SHOVEL	1295	n/a	1	0	n/a	n/a	n/a	n/a	n/a
3171872	RECOG_TARGET	n/a	LTP123	ltpFR	6	1	1	TICK	1463	1	3	1	n/a	n/a	n/a	n/a	n/a
3172517	RECOG_RESP	n/a	LTP123	ltpFR	6	1	1	TICK	1463	1	n/a	1	n/a	n/a	n/a	n/a	n/a
3173630	RECOG_CONF	n/a	LTP123	ltpFR	6	1	1	TICK	1463	n/a	3	1	n/a	n/a	n/a	n/a	n/a
3175155	RECOG_TARGET	n/a	LTP123	ltpFR	6	1	1	COBBLER	335	1	3	1	n/a	n/a	n/a	n/a	n/a
3176344	RECOG_RESP	n/a	LTP123	ltpFR	6	1	1	COBBLER	335	1	n/a	1	n/a	n/a	n/a	n/a	n/a
3177611	RECOG_CONF	n/a	LTP123	ltpFR	6	1	1	COBBLER	335	n/a	3	1	n/a	n/a	n/a	n/a	n/a
3179087	RECOG_LURE	n/a	LTP123	ltpFR	6	1	n/a	DART	440	1	1	n/a	n/a	n/a	n/a	n/a	n/a
3179816	RECOG_RESP	n/a	LTP123	ltpFR	6	1	n/a	DART	440	1	n/a	n/a	n/a	n/a	n/a	n/a	n/a
3181203	RECOG_CONF	n/a	LTP123	ltpFR	6	1	n/a	DART	440	n/a	1	n/a	n/a	n/a	n/a	n/a	n/a
3182701	RECOG_TARGET	n/a	LTP123	ltpFR	6	1	0	MOTH	920	1	2	0	n/a	n/a	n/a	n/a	n/a
3183587	RECOG_RESP	n/a	LTP123	ltpFR	6	1	0	MOTH	920	1	n/a	0	n/a	n/a	n/a	n/a	n/a
3184725	RECOG_CONF	n/a	LTP123	ltpFR	6	1	0	MOTH	920	n/a	2	0	n/a	n/a	n/a	n/a	n/a
3186309	RECOG_TARGET	n/a	LTP123	ltpFR	6	1	1	OPERATOR	979	1	1	1	n/a	n/a	n/a	n/a	n/a
3187403	RECOG_RESP	n/a	LTP123	ltpFR	6	1	1	OPERATOR	979	1	n/a	1	n/a	n/a	n/a	n/a	n/a
3188526	RECOG_CONF	n/a	LTP123	ltpFR	6	1	1	OPERATOR	979	n/a	1	1	n/a	n/a	n/a	n/a	n/a
3190033	RECOG_TARGET	n/a	LTP123	ltpFR	6	1	0	CRITIC	410	1	1	1	n/a	n/a	n/a	n/a	n/a
3191110	RECOG_RESP	n/a	LTP123	ltpFR	6	1	0	CRITIC	410	1	n/a	1	n/a	n/a	n/a	n/a	n/a
3192238	RECOG_CONF	n/a	LTP123	ltpFR	6	1	0	CRITIC	410	n/a	1	1	n/a	n/a	n/a	n/a	n/a
3193739	RECOG_TARGET	n/a	LTP123	ltpFR	6	1	1	PRAIRIE	1118	1	2	0	n/a	n/a	n/a	n/a	n/a
3194792	RECOG_RESP	n/a	LTP123	ltpFR	6	1	1	PRAIRIE	1118	1	n/a	0	n/a	n/a	n/a	n/a	n/a
3195999	RECOG_CONF	n/a	LTP123	ltpFR	6	1	1	PRAIRIE	1118	n/a	2	0	n/a	n/a	n/a	n/a	n/a
3197514	RECOG_TARGET	n/a	LTP123	ltpFR	6	1	1	LOBSTER	837	1	5	1	n/a	n/a	n/a	n/a	n/a
3198174	RECOG_RESP	n/a	LTP123	ltpFR	6	1	1	LOBSTER	837	1	n/a	1	n/a	n/a	n/a	n/a	n/a
3199361	RECOG_CONF	n/a	LTP123	ltpFR	6	1	1	LOBSTER	837	n/a	5	1	n/a	n/a	n/a	n/a	n/a
3200962	RECOG_TARGET	n/a	LTP123	ltpFR	6	1	1	SMOG	1330	1	3	0	n/a	n/a	n/a	n/a	n/a
3201636	RECOG_RESP	n/a	LTP123	ltpFR	6	1	1	SMOG	1330	1	n/a	0	n/a	n/a	n/a	n/a	n/a
3202843	RECOG_CONF	n/a	LTP123	ltpFR	6	1	1	SMOG	1330	n/a	3	0	n/a	n/a	n/a	n/a	n/a
3204270	RECOG_TARGET	n/a	LTP123	ltpFR	6	1	0	FINGER	567	1	2	0	n/a	n/a	n/a	n/a	n/a
3204959	RECOG_RESP	n/a	LTP123	ltpFR	6	1	0	FINGER	567	1	n/a	0	n/a	n/a	n/a	n/a	n/a
3206006	RECOG_CONF	n/a	LTP123	ltpFR	6	1	0	FINGER	567	n/a	2	0	n/a	n/a	n/a	n/a	n/a
3212072	REC_START	n/a	LTP123	ltpFR	6	2	n/a	n/a	n/a	n/a	n/a	n/a	n/a	n/a	n/a	n/a	n/a
3212109	RECOG_TARGET	n/a	LTP123	ltpFR	6	2	-1	STAFF	1365	1	1	-1	n/a	n/a	n/a	n/a	n/a
3213209	RECOG_RESP	n/a	LTP123	ltpFR	6	2	-1	STAFF	1365	1	n/a	-1	n/a	n/a	n/a	n/a	n/a
3214272	RECOG_CONF	n/a	LTP123	ltpFR	6	2	-1	STAFF	1365	n/a	1	-1	n/a	n/a	n/a	n/a	n/a
3215641	RECOG_TARGET	n/a	LTP123	ltpFR	6	2	-1	PIGEON	1065	1	2	-1	n/a	n/a	n/a	n/a	n/a
3216312	RECOG_RESP	n/a	LTP123	ltpFR	6	2	-1	PIGEON	1065	1	n/a	-1	n/a	n/a	n/a	n/a	n/a
3217744	RECOG_CONF	n/a	LTP123	ltpFR	6	2	-1	PIGEON	1065	n/a	2	-1	n/a	n/a	n/a	n/a	n/a
3219173	RECOG_TARGET	n/a	LTP123	ltpFR	6	2	1	GREASE	660	1	4	0	n/a	n/a	n/a	n/a	n/a
3219954	RECOG_RESP	n/a	LTP123	ltpFR	6	2	1	GREASE	660	1	n/a	0	n/a	n/a	n/a	n/a	n/a
3220927	RECOG_CONF	n/a	LTP123	ltpFR	6	2	1	GREASE	660	n/a	4	0	n/a	n/a	n/a	n/a	n/a
3222347	RECOG_LURE	n/a	LTP123	ltpFR	6	2	n/a	LIP	828	0	1	n/a	n/a	n/a	n/a	n/a	n/a
3224394	RECOG_RESP	n/a	LTP123	ltpFR	6	2	n/a	LIP	828	0	n/a	n/a	n/a	n/a	n/a	n/a	n/a
3225327	RECOG_CONF	n/a	LTP123	ltpFR	6	2	n/a	LIP	828	n/a	1	n/a	n/a	n/a	n/a	n/a	n/a
3226744	RECOG_LURE	n/a	LTP123	ltpFR	6	2	n/a	PERFUME	1049	0	2	n/a	n/a	n/a	n/a	n/a	n/a
3227487	RECOG_RESP	n/a	LTP123	ltpFR	6	2	n/a	PERFUME	1049	0	n/a	n/a	n/a	n/a	n/a	n/a	n/a
3228519	RECOG_CONF	n/a	LTP123	ltpFR	6	2	n/a	PERFUME	1049	n/a	2	n/a	n/a	n/a	n/a	n/a	n/a
3229910	RECOG_TARGET	n/a	LTP123	ltpFR	6	2	-1	STEAM	1375	0	1	-1	n/a	n/a	n/a	n/a	n/a
3231687	RECOG_RESP	n/a	LTP123	ltpFR	6	2	-1	STEAM	1375	0	n/a	-1	n/a	n/a	n/a	n/a	n/a
3232720	RECOG_CONF	n/a	LTP123	ltpFR	6	2	-1	STEAM	1375	n/a	1	-1	n/a	n/a	n/a	n/a	n/a
3234209	RECOG_TARGET	n/a	LTP123	ltpFR	6	2	1	PORCUPINE	1107	1	3	1	n/a	n/a	n/a	n/a	n/a
3234930	RECOG_RESP	n/a	LTP123	ltpFR	6	2	1	PORCUPINE	1107	1	n/a	1	n/a	n/a	n/a	n/a	n/a
3235933	RECOG_CONF	n/a	LTP123	ltpFR	6	2	1	PORCUPINE	1107	n/a	3	1	n/a	n/a	n/a	n/a	n/a
3237416	RECOG_TARGET	n/a	LTP123	ltpFR	6	2	1	SNACK	1331	1	1	0	n/a	n/a	n/a	n/a	n/a
3238088	RECOG_RESP	n/a	LTP123	ltpFR	6	2	1	SNACK	1331	1	n/a	0	n/a	n/a	n/a	n/a	n/a
3239235	RECOG_CONF	n/a	LTP123	ltpFR	6	2	1	SNACK	1331	n/a	1	0	n/a	n/a	n/a	n/a	n/a
3240649	RECOG_TARGET	n/a	LTP123	ltpFR	6	2	0	PUMPKIN	1142	1	5	1	n/a	n/a	n/a	n/a	n/a
3241226	RECOG_RESP	n/a	LTP123	ltpFR	6	2	0	PUMPKIN	1142	1	n/a	1	n/a	n/a	n/a	n/a	n/a
3242298	RECOG_CONF	n/a	LTP123	ltpFR	6	2	0	PUMPKIN	1142	n/a	5	1	n/a	n/a	n/a	n/a	n/a
3243721	RECOG_TARGET	n/a	LTP123	ltpFR	6	2	-1	BOOK	149	1	2	-1	n/a	n/a	n/a	n/a	n/a
3244299	RECOG_RESP	n/a	LTP123	ltpFR	6	2	-1	BOOK	149	1	n/a	-1	n/a	n/a	n/a	n/a	n/a
3245361	RECOG_CONF	n/a	LTP123	ltpFR	6	2	-1	BOOK	149	n/a	2	-1	n/a	n/a	n/a	n/a	n/a
3246804	RECOG_TARGET	n/a	LTP123	ltpFR	6	2	0	BEAVER	109	1	3	1	n/a	n/a	n/a	n/a	n/a
3247367	RECOG_RESP	n/a	LTP123	ltpFR	6	2	0	BEAVER	109	1	n/a	1	n/a	n/a	n/a	n/a	n/a
3248454	RECOG_CONF	n/a	LTP123	ltpFR	6	2	0	BEAVER	109	n/a	3	1	n/a	n/a	n/a	n/a	n/a
3249919	RECOG_TARGET	n/a	LTP123	ltpFR	6	2	1	AUTOMOBILE	62	1	2	0	n/a	n/a	n/a	n/a	n/a
3250729	RECOG_RESP	n/a	LTP123	ltpFR	6	2	1	AUTOMOBILE	62	1	n/a	0	n/a	n/a	n/a	n/a	n/a
3251826	RECOG_CONF	n/a	LTP123	ltpFR	6	2	1	AUTOMOBILE	62	n/a	2	0	n/a	n/a	n/a	n/a	n/a
3253311	RECOG_TARGET	n/a	LTP123	ltpFR	6	2	0	SIRLOIN	1311	1	4	0	n/a	n/a	n/a	n/a	n/a
3254011	RECOG_RESP	n/a	LTP123	ltpFR	6	2	0	SIRLOIN	1311	1	n/a	0	n/a	n/a	n/a	n/a	n/a
3255009	RECOG_CONF	n/a	LTP123	ltpFR	6	2	0	SIRLOIN	1311	n/a	4	0	n/a	n/a	n/a	n/a	n/a
3256401	RECOG_TARGET	n/a	LTP123	ltpFR	6	2	1	DOORBELL	487	1	2	0	n/a	n/a	n/a	n/a	n/a
3257219	RECOG_RESP	n/a	LTP123	ltpFR	6	2	1	DOORBELL	487	1	n/a	0	n/a	n/a	n/a	n/a	n/a
3258342	RECOG_CONF	n/a	LTP123	ltpFR	6	2	1	DOORBELL	487	n/a	2	0	n/a	n/a	n/a	n/a	n/a
3259799	RECOG_LURE	n/a	LTP123	ltpFR	6	2	n/a	SLIDE	1326	0	1	n/a	n/a	n/a	n/a	n/a	n/a
3260507	RECOG_RESP	n/a	LTP123	ltpFR	6	2	n/a	SLIDE	1326	0	n/a	n/a	n/a	n/a	n/a	n/a	n/a
3261485	RECOG_CONF	n/a	LTP123	ltpFR	6	2	n/a	SLIDE	1326	n/a	1	n/a	n/a	n/a	n/a	n/a	n/a
3262981	RECOG_TARGET	n/a	LTP123	ltpFR	6	2	1	VAULT	1550	1	1	0	n/a	n/a	n/a	n/a	n/a
3263919	RECOG_RESP	n/a	LTP123	ltpFR	6	2	1	VAULT	1550	1	n/a	0	n/a	n/a	n/a	n/a	n/a
3264927	RECOG_CONF	n/a	LTP123	ltpFR	6	2	1	VAULT	1550	n/a	1	0	n/a	n/a	n/a	n/a	n/a
3266448	RECOG_LURE	n/a	LTP123	ltpFR	6	2	n/a	SCROLL	1257	1	1	n/a	n/a	n/a	n/a	n/a	n/a
3267112	RECOG_RESP	n/a	LTP123	ltpFR	6	2	n/a	SCROLL	1257	1	n/a	n/a	n/a	n/a	n/a	n/a	n/a
3268099	RECOG_CONF	n/a	LTP123	ltpFR	6	2	n/a	SCROLL	1257	n/a	1	n/a	n/a	n/a	n/a	n/a	n/a
3269588	RECOG_TARGET	n/a	LTP123	ltpFR	6	2	-1	CHECKERS	285	1	5	-1	n/a	n/a	n/a	n/a	n/a
3270419	RECOG_RESP	n/a	LTP123	ltpFR	6	2	-1	CHECKERS	285	1	n/a	-1	n/a	n/a	n/a	n/a	n/a
3271442	RECOG_CONF	n/a	LTP123	ltpFR	6	2	-1	CHECKERS	285	n/a	5	-1	n/a	n/a	n/a	n/a	n/a
3272936	RECOG_TARGET	n/a	LTP123	ltpFR	6	2	0	TWIG	1527	1	3	0	n/a	n/a	n/a	n/a	n/a
3273547	RECOG_RESP	n/a	LTP123	ltpFR	6	2	0	TWIG	1527	1	n/a	0	n/a	n/a	n/a	n/a	n/a
3274485	RECOG_CONF	n/a	LTP123	ltpFR	6	2	0	TWIG	1527	n/a	3	0	n/a	n/a	n/a	n/a	n/a
3275902	RECOG_TARGET	n/a	LTP123	ltpFR	6	2	-1	DORM	488	1	4	-1	n/a	n/a	n/a	n/a	n/a
3276540	RECOG_RESP	n/a	LTP123	ltpFR	6	2	-1	DORM	488	1	n/a	-1	n/a	n/a	n/a	n/a	n/a
3277548	RECOG_CONF	n/a	LTP123	ltpFR	6	2	-1	DORM	488	n/a	4	-1	n/a	n/a	n/a	n/a	n/a
3281311	REC_START	n/a	LTP123	ltpFR	6	3	n/a	n/a	n/a	n/a	n/a	n/a	n/a	n/a	n/a	n/a	n/a
3281342	RECOG_TARGET	n/a	LTP123	ltpFR	6	3	-1	COD	340	1	4	-1	n/a	n/a	n/a	n/a	n/a
3281964	RECOG_RESP	n/a	LTP123	ltpFR	6	3	-1	COD	340	1	n/a	-1	n/a	n/a	n/a	n/a	n/a
3282972	RECOG_CONF	n/a	LTP123	ltpFR	6	3	-1	COD	340	n/a	4	-1	n/a	n/a	n/a	n/a	n/a
3284400	RECOG_TARGET	n/a	LTP123	ltpFR	6	3	-1	BOTTLE	153	1	1	-1	n/a	n/a	n/a	n/a	n/a
3285546	RECOG_RESP	n/a	LTP123	ltpFR	6	3	-1	BOTTLE	153	1	n/a	-1	n/a	n/a	n/a	n/a	n/a
3286953	RECOG_CONF	n/a	LTP123	ltpFR	6	3	-1	BOTTLE	153	n/a	1	-1	n/a	n/a	n/a	n/a	n/a
3288623	RECOG_LURE	n/a	LTP123	ltpFR	6	3	n/a	SCREEN	1253	0	1	n/a	n/a	n/a	n/a	n/a	n/a
3290056	RECOG_RESP	n/a	LTP123	ltpFR	6	3	n/a	SCREEN	1253	0	n/a	n/a	n/a	n/a	n/a	n/a	n/a
3291094	RECOG_CONF	n/a	LTP123	ltpFR	6	3	n/a	SCREEN	1253	n/a	1	n/a	n/a	n/a	n/a	n/a	n/a
3292588	RECOG_LURE	n/a	LTP123	ltpFR	6	3	n/a	MICROPHONE	890	0	4	n/a	n/a	n/a	n/a	n/a	n/a
3293383	RECOG_RESP	n/a	LTP123	ltpFR	6	3	n/a	MICROPHONE	890	0	n/a	n/a	n/a	n/a	n/a	n/a	n/a
3294396	RECOG_CONF	n/a	LTP123	ltpFR	6	3	n/a	MICROPHONE	890	n/a	4	n/a	n/a	n/a	n/a	n/a	n/a
3295911	RECOG_TARGET	n/a	LTP123	ltpFR	6	3	0	SURF	1412	1	4	1	n/a	n/a	n/a	n/a	n/a
3296511	RECOG_RESP	n/a	LTP123	ltpFR	6	3	0	SURF	1412	1	n/a	1	n/a	n/a	n/a	n/a	n/a
3297499	RECOG_CONF	n/a	LTP123	ltpFR	6	3	0	SURF	1412	n/a	4	1	n/a	n/a	n/a	n/a	n/a
3298977	RECOG_LURE	n/a	LTP123	ltpFR	6	3	n/a	EGYPT	519	0	5	n/a	n/a	n/a	n/a	n/a	n/a
3299734	RECOG_RESP	n/a	LTP123	ltpFR	6	3	n/a	EGYPT	519	0	n/a	n/a	n/a	n/a	n/a	n/a	n/a
3300702	RECOG_CONF	n/a	LTP123	ltpFR	6	3	n/a	EGYPT	519	n/a	5	n/a	n/a	n/a	n/a	n/a	n/a
3302218	RECOG_LURE	n/a	LTP123	ltpFR	6	3	n/a	KETTLE	772	0	1	n/a	n/a	n/a	n/a	n/a	n/a
3303296	RECOG_RESP	n/a	LTP123	ltpFR	6	3	n/a	KETTLE	772	0	n/a	n/a	n/a	n/a	n/a	n/a	n/a
3304304	RECOG_CONF	n/a	LTP123	ltpFR	6	3	n/a	KETTLE	772	n/a	1	n/a	n/a	n/a	n/a	n/a	n/a
3305774	RECOG_TARGET	n/a	LTP123	ltpFR	6	3	1	DESIGNER	451	1	2	1	n/a	n/a	n/a	n/a	n/a
3306723	RECOG_RESP	n/a	LTP123	ltpFR	6	3	1	DESIGNER	451	1	n/a	1	n/a	n/a	n/a	n/a	n/a
3307726	RECOG_CONF	n/a	LTP123	ltpFR	6	3	1	DESIGNER	451	n/a	2	1	n/a	n/a	n/a	n/a	n/a
3309274	RECOG_TARGET	n/a	LTP123	ltpFR	6	3	0	HIKER	708	0	3	1	n/a	n/a	n/a	n/a	n/a
3309936	RECOG_RESP	n/a	LTP123	ltpFR	6	3	0	HIKER	708	0	n/a	1	n/a	n/a	n/a	n/a	n/a
3311018	RECOG_CONF	n/a	LTP123	ltpFR	6	3	0	HIKER	708	n/a	3	1	n/a	n/a	n/a	n/a	n/a
3312456	RECOG_TARGET	n/a	LTP123	ltpFR	6	3	-1	GENERAL	630	1	4	-1	n/a	n/a	n/a	n/a	n/a
3313193	RECOG_RESP	n/a	LTP123	ltpFR	6	3	-1	GENERAL	630	1	n/a	-1	n/a	n/a	n/a	n/a	n/a
3314221	RECOG_CONF	n/a	LTP123	ltpFR	6	3	-1	GENERAL	630	n/a	4	-1	n/a	n/a	n/a	n/a	n/a
3315671	RECOG_TARGET	n/a	LTP123	ltpFR	6	3	-1	INFANT	737	1	3	-1	n/a	n/a	n/a	n/a	n/a
3316616	RECOG_RESP	n/a	LTP123	ltpFR	6	3	-1	INFANT	737	1	n/a	-1	n/a	n/a	n/a	n/a	n/a
3317813	RECOG_CONF	n/a	LTP123	ltpFR	6	3	-1	INFANT	737	n/a	3	-1	n/a	n/a	n/a	n/a	n/a
3319212	RECOG_LURE	n/a	LTP123	ltpFR	6	3	n/a	BELLY	119	0	1	n/a	n/a	n/a	n/a	n/a	n/a
3320472	RECOG_RESP	n/a	LTP123	ltpFR	6	3	n/a	BELLY	119	0	n/a	n/a	n/a	n/a	n/a	n/a	n/a
3321584	RECOG_CONF	n/a	LTP123	ltpFR	6	3	n/a	BELLY	119	n/a	1	n/a	n/a	n/a	n/a	n/a	n/a
3323144	RECOG_TARGET	n/a	LTP123	ltpFR	6	3	-1	POOL	1103	1	3	-1	n/a	n/a	n/a	n/a	n/a
3323979	RECOG_RESP	n/a	LTP123	ltpFR	6	3	-1	POOL	1103	1	n/a	-1	n/a	n/a	n/a	n/a	n/a
3325116	RECOG_CONF	n/a	LTP123	ltpFR	6	3	-1	POOL	1103	n/a	3	-1	n/a	n/a	n/a	n/a	n/a
3326576	RECOG_TARGET	n/a	LTP123	ltpFR	6	3	-1	UNIFORM	1539	1	5	-1	n/a	n/a	n/a	n/a	n/a
3327276	RECOG_RESP	n/a	LTP123	ltpFR	6	3	-1	UNIFORM	1539	1	n/a	-1	n/a	n/a	n/a	n/a	n/a
3328249	RECOG_CONF	n/a	LTP123	ltpFR	6	3	-1	UNIFORM	1539	n/a	5	-1	n/a	n/a	n/a	n/a	n/a
3329941	RECOG_TARGET	n/a	LTP123	ltpFR	6	3	-1	HOOD	714	1	4	-1	n/a	n/a	n/a	n/a	n/a
3330529	RECOG_RESP	n/a	LTP123	ltpFR	6	3	-1	HOOD	714	1	n/a	-1	n/a	n/a	n/a	n/a	n/a
3331701	RECOG_CONF	n/a	LTP123	ltpFR	6	3	-1	HOOD	714	n/a	4	-1	n/a	n/a	n/a	n/a	n/a
3333057	RECOG_TARGET	n/a	LTP123	ltpFR	6	3	0	BOAT	144	1	2	1	n/a	n/a	n/a	n/a	n/a
3333742	RECOG_RESP	n/a	LTP123	ltpFR	6	3	0	BOAT	144	1	n/a	1	n/a	n/a	n/a	n/a	n/a
3334834	RECOG_CONF	n/a	LTP123	ltpFR	6	3	0	BOAT	144	n/a	2	1	n/a	n/a	n/a	n/a	n/a
3336348	RECOG_TARGET	n/a	LTP123	ltpFR	6	3	0	VIOLIN	1571	1	2	1	n/a	n/a	n/a	n/a	n/a
3337124	RECOG_RESP	n/a	LTP123	ltpFR	6	3	0	VIOLIN	1571	1	n/a	1	n/a	n/a	n/a	n/a	n/a
3338226	RECOG_CONF	n/a	LTP123	ltpFR	6	3	0	VIOLIN	1571	n/a	2	1	n/a	n/a	n/a	n/a	n/a
3339679	RECOG_TARGET	n/a	LTP123	ltpFR	6	3	1	CROOK	412	1	1	1	n/a	n/a	n/a	n/a	n/a
3340796	RECOG_RESP	n/a	LTP123	ltpFR	6	3	1	CROOK	412	1	n/a	1	n/a	n/a	n/a	n/a	n/a
3341818	RECOG_CONF	n/a	LTP123	ltpFR	6	3	1	CROOK	412	n/a	1	1	n/a	n/a	n/a	n/a	n/a
3343304	RECOG_TARGET	n/a	LTP123	ltpFR	6	3	0	SPOOL	1356	1	2	0	n/a	n/a	n/a	n/a	n/a
3344053	RECOG_RESP	n/a	LTP123	ltpFR	6	3	0	SPOOL	1356	1	n/a	0	n/a	n/a	n/a	n/a	n/a
3345640	RECOG_CONF	n/a	LTP123	ltpFR	6	3	0	SPOOL	1356	n/a	2	0	n/a	n/a	n/a	n/a	n/a
3347144	RECOG_TARGET	n/a	LTP123	ltpFR	6	3	0	COBRA	336	1	2	1	n/a	n/a	n/a	n/a	n/a
3348244	RECOG_RESP	n/a	LTP123	ltpFR	6	3	0	COBRA	336	1	n/a	1	n/a	n/a	n/a	n/a	n/a
3349281	RECOG_CONF	n/a	LTP123	ltpFR	6	3	0	COBRA	336	n/a	2	1	n/a	n/a	n/a	n/a	n/a
3353113	REC_START	n/a	LTP123	ltpFR	6	4	n/a	n/a	n/a	n/a	n/a	n/a	n/a	n/a	n/a	n/a	n/a
3353150	RECOG_TARGET	n/a	LTP123	ltpFR	6	4	0	MONARCH	906	1	3	1	n/a	n/a	n/a	n/a	n/a
3353886	RECOG_RESP	n/a	LTP123	ltpFR	6	4	0	MONARCH	906	1	n/a	1	n/a	n/a	n/a	n/a	n/a
3354834	RECOG_CONF	n/a	LTP123	ltpFR	6	4	0	MONARCH	906	n/a	3	1	n/a	n/a	n/a	n/a	n/a
3356249	RECOG_TARGET	n/a	LTP123	ltpFR	6	4	1	SLUG	1329	1	2	1	n/a	n/a	n/a	n/a	n/a
3356909	RECOG_RESP	n/a	LTP123	ltpFR	6	4	1	SLUG	1329	1	n/a	1	n/a	n/a	n/a	n/a	n/a
3357867	RECOG_CONF	n/a	LTP123	ltpFR	6	4	1	SLUG	1329	n/a	2	1	n/a	n/a	n/a	n/a	n/a
3359340	RECOG_LURE	n/a	LTP123	ltpFR	6	4	n/a	PEPPER	1047	0	2	n/a	n/a	n/a	n/a	n/a	n/a
3359997	RECOG_RESP	n/a	LTP123	ltpFR	6	4	n/a	PEPPER	1047	0	n/a	n/a	n/a	n/a	n/a	n/a	n/a
3361309	RECOG_CONF	n/a	LTP123	ltpFR	6	4	n/a	PEPPER	1047	n/a	2	n/a	n/a	n/a	n/a	n/a	n/a
3362821	RECOG_LURE	n/a	LTP123	ltpFR	6	4	n/a	ASIA	46	0	4	n/a	n/a	n/a	n/a	n/a	n/a
3363474	RECOG_RESP	n/a	LTP123	ltpFR	6	4	n/a	ASIA	46	0	n/a	n/a	n/a	n/a	n/a	n/a	n/a
3364442	RECOG_CONF	n/a	LTP123	ltpFR	6	4	n/a	ASIA	46	n/a	4	n/a	n/a	n/a	n/a	n/a	n/a
3365978	RECOG_LURE	n/a	LTP123	ltpFR	6	4	n/a	MEADOW	881	1	1	n/a	n/a	n/a	n/a	n/a	n/a
3366707	RECOG_RESP	n/a	LTP123	ltpFR	6	4	n/a	MEADOW	881	1	n/a	n/a	n/a	n/a	n/a	n/a	n/a
3367645	RECOG_CONF	n/a	LTP123	ltpFR	6	4	n/a	MEADOW	881	n/a	1	n/a	n/a	n/a	n/a	n/a	n/a
3369078	RECOG_TARGET	n/a	LTP123	ltpFR	6	4	0	TREAD	1499	1	2	0	n/a	n/a	n/a	n/a	n/a
3370399	RECOG_RESP	n/a	LTP123	ltpFR	6	4	0	TREAD	1499	1	n/a	0	n/a	n/a	n/a	n/a	n/a
3371296	RECOG_CONF	n/a	LTP123	ltpFR	6	4	0	TREAD	1499	n/a	2	0	n/a	n/a	n/a	n/a	n/a
3372767	RECOG_TARGET	n/a	LTP123	ltpFR	6	4	-1	JEEP	753	1	5	-1	n/a	n/a	n/a	n/a	n/a
3373322	RECOG_RESP	n/a	LTP123	ltpFR	6	4	-1	JEEP	753	1	n/a	-1	n/a	n/a	n/a	n/a	n/a
3374310	RECOG_CONF	n/a	LTP123	ltpFR	6	4	-1	JEEP	753	n/a	5	-1	n/a	n/a	n/a	n/a	n/a
3375858	RECOG_TARGET	n/a	LTP123	ltpFR	6	4	1	TOY	1492	1	4	0	n/a	n/a	n/a	n/a	n/a
3376495	RECOG_RESP	n/a	LTP123	ltpFR	6	4	1	TOY	1492	1	n/a	0	n/a	n/a	n/a	n/a	n/a
3377712	RECOG_CONF	n/a	LTP123	ltpFR	6	4	1	TOY	1492	n/a	4	0	n/a	n/a	n/a	n/a	n/a
3379074	RECOG_TARGET	n/a	LTP123	ltpFR	6	4	0	PIN	1072	1	3	0	n/a	n/a	n/a	n/a	n/a
3379618	RECOG_RESP	n/a	LTP123	ltpFR	6	4	0	PIN	1072	1	n/a	0	n/a	n/a	n/a	n/a	n/a
3380555	RECOG_CONF	n/a	LTP123	ltpFR	6	4	0	PIN	1072	n/a	3	0	n/a	n/a	n/a	n/a	n/a
3381964	RECOG_LURE	n/a	LTP123	ltpFR	6	4	n/a	PRIMATE	1123	0	1	n/a	n/a	n/a	n/a	n/a	n/a
3383319	RECOG_RESP	n/a	LTP123	ltpFR	6	4	n/a	PRIMATE	1123	0	n/a	n/a	n/a	n/a	n/a	n/a	n/a
3384257	RECOG_CONF	n/a	LTP123	ltpFR	6	4	n/a	PRIMATE	1123	n/a	1	n/a	n/a	n/a	n/a	n/a	n/a
3385647	RECOG_TARGET	n/a	LTP123	ltpFR	6	4	-1	ISLAND	745	1	5	-1	n/a	n/a	n/a	n/a	n/a
3386267	RECOG_RESP	n/a	LTP123	ltpFR	6	4	-1	ISLAND	745	1	n/a	-1	n/a	n/a	n/a	n/a	n/a
3387160	RECOG_CONF	n/a	LTP123	ltpFR	6	4	-1	ISLAND	745	n/a	5	-1	n/a	n/a	n/a	n/a	n/a
3388670	RECOG_TARGET	n/a	LTP123	ltpFR	6	4	0	SWEATER	1419	1	5	0	n/a	n/a	n/a	n/a	n/a
3389340	RECOG_RESP	n/a	LTP123	ltpFR	6	4	0	SWEATER	1419	1	n/a	0	n/a	n/a	n/a	n/a	n/a
3390233	RECOG_CONF	n/a	LTP123	ltpFR	6	4	0	SWEATER	1419	n/a	5	0	n/a	n/a	n/a	n/a	n/a
3391686	RECOG_TARGET	n/a	LTP123	ltpFR	6	4	0	MILITARY	894	1	3	1	n/a	n/a	n/a	n/a	n/a
3392314	RECOG_RESP	n/a	LTP123	ltpFR	6	4	0	MILITARY	894	1	n/a	1	n/a	n/a	n/a	n/a	n/a
3393486	RECOG_CONF	n/a	LTP123	ltpFR	6	4	0	MILITARY	894	n/a	3	1	n/a	n/a	n/a	n/a	n/a
3394943	RECOG_TARGET	n/a	LTP123	ltpFR	6	4	1	BULLETIN	195	1	4	0	n/a	n/a	n/a	n/a	n/a
3395641	RECOG_RESP	n/a	LTP123	ltpFR	6	4	1	BULLETIN	195	1	n/a	0	n/a	n/a	n/a	n/a	n/a
3396669	RECOG_CONF	n/a	LTP123	ltpFR	6	4	1	BULLETIN	195	n/a	4	0	n/a	n/a	n/a	n/a	n/a
3398234	RECOG_TARGET	n/a	LTP123	ltpFR	6	4	1	KING	777	1	3	1	n/a	n/a	n/a	n/a	n/a
3398779	RECOG_RESP	n/a	LTP123	ltpFR	6	4	1	KING	777	1	n/a	1	n/a	n/a	n/a	n/a	n/a
3400061	RECOG_CONF	n/a	LTP123	ltpFR	6	4	1	KING	777	n/a	3	1	n/a	n/a	n/a	n/a	n/a
3401566	RECOG_TARGET	n/a	LTP123	ltpFR	6	4	0	GANGSTER	620	1	1	1	n/a	n/a	n/a	n/a	n/a
3402316	RECOG_RESP	n/a	LTP123	ltpFR	6	4	0	GANGSTER	620	1	n/a	1	n/a	n/a	n/a	n/a	n/a
3403284	RECOG_CONF	n/a	LTP123	ltpFR	6	4	0	GANGSTER	620	n/a	1	1	n/a	n/a	n/a	n/a	n/a
3404723	RECOG_TARGET	n/a	LTP123	ltpFR	6	4	0	SLEEVE	1324	1	4	0	n/a	n/a	n/a	n/a	n/a
3405349	RECOG_RESP	n/a	LTP123	ltpFR	6	4	0	SLEEVE	1324	1	n/a	0	n/a	n/a	n/a	n/a	n/a
3406367	RECOG_CONF	n/a	LTP123	ltpFR	6	4	0	SLEEVE	1324	n/a	4	0	n/a	n/a	n/a	n/a	n/a
3407780	RECOG_LURE	n/a	LTP123	ltpFR	6	4	n/a	JUGGLER	763	0	1	n/a	n/a	n/a	n/a	n/a	n/a
3408991	RECOG_RESP	n/a	LTP123	ltpFR	6	4	n/a	JUGGLER	763	0	n/a	n/a	n/a	n/a	n/a	n/a	n/a
3409989	RECOG_CONF	n/a	LTP123	ltpFR	6	4	n/a	JUGGLER	763	n/a	1	n/a	n/a	n/a	n/a	n/a	n/a
3411421	RECOG_TARGET	n/a	LTP123	ltpFR	6	4	0	BULL	193	1	3	1	n/a	n/a	n/a	n/a	n/a
3412064	RECOG_RESP	n/a	LTP123	ltpFR	6	4	0	BULL	193	1	n/a	1	n/a	n/a	n/a	n/a	n/a
3413072	RECOG_CONF	n/a	LTP123	ltpFR	6	4	0	BULL	193	n/a	3	1	n/a	n/a	n/a	n/a	n/a
3414554	RECOG_TARGET	n/a	LTP123	ltpFR	6	4	-1	MATTRESS	879	1	4	-1	n/a	n/a	n/a	n/a	n/a
3415311	RECOG_RESP	n/a	LTP123	ltpFR	6	4	-1	MATTRESS	879	1	n/a	-1	n/a	n/a	n/a	n/a	n/a
3416294	RECOG_CONF	n/a	LTP123	ltpFR	6	4	-1	MATTRESS	879	n/a	4	-1	n/a	n/a	n/a	n/a	n/a
3420245	REC_START	n/a	LTP123	ltpFR	6	5	n/a	n/a	n/a	n/a	n/a	n/a	n/a	n/a	n/a	n/a	n/a
3420277	RECOG_TARGET	n/a	LTP123	ltpFR	6	5	1	CREAM	402	1	4	0	n/a	n/a	n/a	n/a	n/a
3421013	RECOG_RESP	n/a	LTP123	ltpFR	6	5	1	CREAM	402	1	n/a	0	n/a	n/a	n/a	n/a	n/a
3422106	RECOG_CONF	n/a	LTP123	ltpFR	6	5	1	CREAM	402	n/a	4	0	n/a	n/a	n/a	n/a	n/a
3423442	RECOG_TARGET	n/a	LTP123	ltpFR	6	5	0	TOMATO	1476	1	3	0	n/a	n/a	n/a	n/a	n/a
3424061	RECOG_RESP	n/a	LTP123	ltpFR	6	5	0	TOMATO	1476	1	n/a	0	n/a	n/a	n/a	n/a	n/a
3425139	RECOG_CONF	n/a	LTP123	ltpFR	6	5	0	TOMATO	1476	n/a	3	0	n/a	n/a	n/a	n/a	n/a
3426566	RECOG_TARGET	n/a	LTP123	ltpFR	6	5	0	SYRINGE	1424	1	5	0	n/a	n/a	n/a	n/a	n/a
3427249	RECOG_RESP	n/a	LTP123	ltpFR	6	5	0	SYRINGE	1424	1	n/a	0	n/a	n/a	n/a	n/a	n/a
3428222	RECOG_CONF	n/a	LTP123	ltpFR	6	5	0	SYRINGE	1424	n/a	5	0	n/a	n/a	n/a	n/a	n/a
3429640	RECOG_TARGET	n/a	LTP123	ltpFR	6	5	-1	HAY	693	1	5	-1	n/a	n/a	n/a	n/a	n/a
3430147	RECOG_RESP	n/a	LTP123	ltpFR	6	5	-1	HAY	693	1	n/a	-1	n/a	n/a	n/a	n/a	n/a
3431155	RECOG_CONF	n/a	LTP123	ltpFR	6	5	-1	HAY	693	n/a	5	-1	n/a	n/a	n/a	n/a	n/a
3432597	RECOG_LURE	n/a	LTP123	ltpFR	6	5	n/a	LOVER	846	0	4	n/a	n/a	n/a	n/a	n/a	n/a
3433240	RECOG_RESP	n/a	LTP123	ltpFR	6	5	n/a	LOVER	846	0	n/a	n/a	n/a	n/a	n/a	n/a	n/a
3434627	RECOG_CONF	n/a	LTP123	ltpFR	6	5	n/a	LOVER	846	n/a	4	n/a	n/a	n/a	n/a	n/a	n/a
3436096	RECOG_TARGET	n/a	LTP123	ltpFR	6	5	-1	PAIL	1002	1	1	-1	n/a	n/a	n/a	n/a	n/a
3436832	RECOG_RESP	n/a	LTP123	ltpFR	6	5	-1	PAIL	1002	1	n/a	-1	n/a	n/a	n/a	n/a	n/a
3437860	RECOG_CONF	n/a	LTP123	ltpFR	6	5	-1	PAIL	1002	n/a	1	-1	n/a	n/a	n/a	n/a	n/a
3439445	RECOG_TARGET	n/a	LTP123	ltpFR	6	5	1	HOUND	724	0	1	1	n/a	n/a	n/a	n/a	n/a
3440165	RECOG_RESP	n/a	LTP123	ltpFR	6	5	1	HOUND	724	0	n/a	1	n/a	n/a	n/a	n/a	n/a
3441212	RECOG_CONF	n/a	LTP123	ltpFR	6	5	1	HOUND	724	n/a	1	1	n/a	n/a	n/a	n/a	n/a
3442660	RECOG_TARGET	n/a	LTP123	ltpFR	6	5	1	SOCK	1339	1	2	0	n/a	n/a	n/a	n/a	n/a
3443342	RECOG_RESP	n/a	LTP123	ltpFR	6	5	1	SOCK	1339	1	n/a	0	n/a	n/a	n/a	n/a	n/a
3444350	RECOG_CONF	n/a	LTP123	ltpFR	6	5	1	SOCK	1339	n/a	2	0	n/a	n/a	n/a	n/a	n/a
3445816	RECOG_LURE	n/a	LTP123	ltpFR	6	5	n/a	FLOOR	581	1	2	n/a	n/a	n/a	n/a	n/a	n/a
3446370	RECOG_RESP	n/a	LTP123	ltpFR	6	5	n/a	FLOOR	581	1	n/a	n/a	n/a	n/a	n/a	n/a	n/a
3448047	RECOG_CONF	n/a	LTP123	ltpFR	6	5	n/a	FLOOR	581	n/a	2	n/a	n/a	n/a	n/a	n/a	n/a
3449524	RECOG_TARGET	n/a	LTP123	ltpFR	6	5	-1	MUFFIN	929	1	5	-1	n/a	n/a	n/a	n/a	n/a
3450157	RECOG_RESP	n/a	LTP123	ltpFR	6	5	-1	MUFFIN	929	1	n/a	-1	n/a	n/a	n/a	n/a	n/a
3451130	RECOG_CONF	n/a	LTP123	ltpFR	6	5	-1	MUFFIN	929	n/a	5	-1	n/a	n/a	n/a	n/a	n/a
3452548	RECOG_TARGET	n/a	LTP123	ltpFR	6	5	1	BREAST	171	1	5	0	n/a	n/a	n/a	n/a	n/a
3453200	RECOG_RESP	n/a	LTP123	ltpFR	6	5	1	BREAST	171	1	n/a	0	n/a	n/a	n/a	n/a	n/a
3454193	RECOG_CONF	n/a	LTP123	ltpFR	6	5	1	BREAST	171	n/a	5	0	n/a	n/a	n/a	n/a	n/a
3455614	RECOG_TARGET	n/a	LTP123	ltpFR	6	5	-1	SCAPEGOAT	1244	1	4	-1	n/a	n/a	n/a	n/a	n/a
3456253	RECOG_RESP	n/a	LTP123	ltpFR	6	5	-1	SCAPEGOAT	1244	1	n/a	-1	n/a	n/a	n/a	n/a	n/a
3457266	RECOG_CONF	n/a	LTP123	ltpFR	6	5	-1	SCAPEGOAT	1244	n/a	4	-1	n/a	n/a	n/a	n/a	n/a
3458737	RECOG_LURE	n/a	LTP123	ltpFR	6	5	n/a	WINDSHIELD	1612	0	1	n/a	n/a	n/a	n/a	n/a	n/a
3459620	RECOG_RESP	n/a	LTP123	ltpFR	6	5	n/a	WINDSHIELD	1612	0	n/a	n/a	n/a	n/a	n/a	n/a	n/a
3460578	RECOG_CONF	n/a	LTP123	ltpFR	6	5	n/a	WINDSHIELD	1612	n/a	1	n/a	n/a	n/a	n/a	n/a	n/a
3462112	RECOG_TARGET	n/a	LTP123	ltpFR	6	5	1	KNOT	788	1	3	0	n/a	n/a	n/a	n/a	n/a
3463008	RECOG_RESP	n/a	LTP123	ltpFR	6	5	1	KNOT	788	1	n/a	0	n/a	n/a	n/a	n/a	n/a
3464030	RECOG_CONF	n/a	LTP123	ltpFR	6	5	1	KNOT	788	n/a	3	0	n/a	n/a	n/a	n/a	n/a
3465535	RECOG_TARGET	n/a	LTP123	ltpFR	6	5	-1	NEWSSTAND	949	1	3	-1	n/a	n/a	n/a	n/a	n/a
3466340	RECOG_RESP	n/a	LTP123	ltpFR	6	5	-1	NEWSSTAND	949	1	n/a	-1	n/a	n/a	n/a	n/a	n/a
3467243	RECOG_CONF	n/a	LTP123	ltpFR	6	5	-1	NEWSSTAND	949	n/a	3	-1	n/a	n/a	n/a	n/a	n/a
3468717	RECOG_LURE	n/a	LTP123	ltpFR	6	5	n/a	POISON	1096	0	1	n/a	n/a	n/a	n/a	n/a	n/a
3469957	RECOG_RESP	n/a	LTP123	ltpFR	6	5	n/a	POISON	1096	0	n/a	n/a	n/a	n/a	n/a	n/a	n/a
3470994	RECOG_CONF	n/a	LTP123	ltpFR	6	5	n/a	POISON	1096	n/a	1	n/a	n/a	n/a	n/a	n/a	n/a
3472500	RECOG_TARGET	n/a	LTP123	ltpFR	6	5	1	OCEAN	970	1	4	0	n/a	n/a	n/a	n/a	n/a
3473110	RECOG_RESP	n/a	LTP123	ltpFR	6	5	1	OCEAN	970	1	n/a	0	n/a	n/a	n/a	n/a	n/a
3474107	RECOG_CONF	n/a	LTP123	ltpFR	6	5	1	OCEAN	970	n/a	4	0	n/a	n/a	n/a	n/a	n/a
3475557	RECOG_TARGET	n/a	LTP123	ltpFR	6	5	1	ACORN	3	1	2	0	n/a	n/a	n/a	n/a	n/a
3476193	RECOG_RESP	n/a	LTP123	ltpFR	6	5	1	ACORN	3	1	n/a	0	n/a	n/a	n/a	n/a	n/a
3477121	RECOG_CONF	n/a	LTP123	ltpFR	6	5	1	ACORN	3	n/a	2	0	n/a	n/a	n/a	n/a	n/a
3478581	RECOG_TARGET	n/a	LTP123	ltpFR	6	5	1	VEST	1559	1	3	0	n/a	n/a	n/a	n/a	n/a
3479166	RECOG_RESP	n/a	LTP123	ltpFR	6	5	1	VEST	1559	1	n/a	0	n/a	n/a	n/a	n/a	n/a
3480194	RECOG_CONF	n/a	LTP123	ltpFR	6	5	1	VEST	1559	n/a	3	0	n/a	n/a	n/a	n/a	n/a
3481613	RECOG_TARGET	n/a	LTP123	ltpFR	6	5	0	CANAL	226	1	2	1	n/a	n/a	n/a	n/a	n/a
3482254	RECOG_RESP	n/a	LTP123	ltpFR	6	5	0	CANAL	226	1	n/a	1	n/a	n/a	n/a	n/a	n/a
3483127	RECOG_CONF	n/a	LTP123	ltpFR	6	5	0	CANAL	226	n/a	2	1	n/a	n/a	n/a	n/a	n/a
3487963	REC_START	n/a	LTP123	ltpFR	6	6	n/a	n/a	n/a	n/a	n/a	n/a	n/a	n/a	n/a	n/a	n/a
3487993	RECOG_TARGET	n/a	LTP123	ltpFR	6	6	0	COW	393	1	1	1	n/a	n/a	n/a	n/a	n/a
3488816	RECOG_RESP	n/a	LTP123	ltpFR	6	6	0	COW	393	1	n/a	1	n/a	n/a	n/a	n/a	n/a
3489744	RECOG_CONF	n/a	LTP123	ltpFR	6	6	0	COW	393	n/a	1	1	n/a	n/a	n/a	n/a	n/a
3491260	RECOG_LURE	n/a	LTP123	ltpFR	6	6	n/a	DESSERT	453	0	3	n/a	n/a	n/a	n/a	n/a	n/a
3492078	RECOG_RESP	n/a	LTP123	ltpFR	6	6	n/a	DESSERT	453	0	n/a	n/a	n/a	n/a	n/a	n/a	n/a
3493056	RECOG_CONF	n/a	LTP123	ltpFR	6	6	n/a	DESSERT	453	n/a	3	n/a	n/a	n/a	n/a	n/a	n/a
3494500	RECOG_LURE	n/a	LTP123	ltpFR	6	6	n/a	CAFETERIA	217	0	1	n/a	n/a	n/a	n/a	n/a	n/a
3495815	RECOG_RESP	n/a	LTP123	ltpFR	6	6	n/a	CAFETERIA	217	0	n/a	n/a	n/a	n/a	n/a	n/a	n/a
3496828	RECOG_CONF	n/a	LTP123	ltpFR	6	6	n/a	CAFETERIA	217	n/a	1	n/a	n/a	n/a	n/a	n/a	n/a
3498432	RECOG_TARGET	n/a	LTP123	ltpFR	6	6	1	MINK	897	1	4	1	n/a	n/a	n/a	n/a	n/a
3499137	RECOG_RESP	n/a	LTP123	ltpFR	6	6	1	MINK	897	1	n/a	1	n/a	n/a	n/a	n/a	n/a
3500160	RECOG_CONF	n/a	LTP123	ltpFR	6	6	1	MINK	897	n/a	4	1	n/a	n/a	n/a	n/a	n/a
3501631	RECOG_TARGET	n/a	LTP123	ltpFR	6	6	1	CREEK	404	1	1	0	n/a	n/a	n/a	n/a	n/a
3502824	RECOG_RESP	n/a	LTP123	ltpFR	6	6	1	CREEK	404	1	n/a	0	n/a	n/a	n/a	n/a	n/a
3503951	RECOG_CONF	n/a	LTP123	ltpFR	6	6	1	CREEK	404	n/a	1	0	n/a	n/a	n/a	n/a	n/a
3505455	RECOG_LURE	n/a	LTP123	ltpFR	6	6	n/a	RUG	1215	1	2	n/a	n/a	n/a	n/a	n/a	n/a
3506156	RECOG_RESP	n/a	LTP123	ltpFR	6	6	n/a	RUG	1215	1	n/a	n/a	n/a	n/a	n/a	n/a	n/a
3507064	RECOG_CONF	n/a	LTP123	ltpFR	6	6	n/a	RUG	1215	n/a	2	n/a	n/a	n/a	n/a	n/a	n/a
3508537	RECOG_TARGET	n/a	LTP123	ltpFR	6	6	0	BLUEBERRY	140	1	5	0	n/a	n/a	n/a	n/a	n/a
3509175	RECOG_RESP	n/a	LTP123	ltpFR	6	6	0	BLUEBERRY	140	1	n/a	0	n/a	n/a	n/a	n/a	n/a
3510197	RECOG_CONF	n/a	LTP123	ltpFR	6	6	0	BLUEBERRY	140	n/a	5	0	n/a	n/a	n/a	n/a	n/a
3511685	RECOG_TARGET	n/a	LTP123	ltpFR	6	6	0	IRON	744	1	3	0	n/a	n/a	n/a	n/a	n/a
3512367	RECOG_RESP	n/a	LTP123	ltpFR	6	6	0	IRON	744	1	n/a	0	n/a	n/a	n/a	n/a	n/a
3514398	RECOG_CONF	n/a	LTP123	ltpFR	6	6	0	IRON	744	n/a	3	0	n/a	n/a	n/a	n/a	n/a
3515875	RECOG_TARGET	n/a	LTP123	ltpFR	6	6	0	OATS	968	1	4	0	n/a	n/a	n/a	n/a	n/a
3516663	RECOG_RESP	n/a	LTP123	ltpFR	6	6	0	OATS	968	1	n/a	0	n/a	n/a	n/a	n/a	n/a
3517700	RECOG_CONF	n/a	LTP123	ltpFR	6	6	0	OATS	968	n/a	4	0	n/a	n/a	n/a	n/a	n/a
3519041	RECOG_LURE	n/a	LTP123	ltpFR	6	6	n/a	EARTH	515	1	2	n/a	n/a	n/a	n/a	n/a	n/a
3519651	RECOG_RESP	n/a	LTP123	ltpFR	6	6	n/a	EARTH	515	1	n/a	n/a	n/a	n/a	n/a	n/a	n/a
3520733	RECOG_CONF	n/a	LTP123	ltpFR	6	6	n/a	EARTH	515	n/a	2	n/a	n/a	n/a	n/a	n/a	n/a
3522157	RECOG_TARGET	n/a	LTP123	ltpFR	6	6	-1	ROCK	1201	1	4	-1	n/a	n/a	n/a	n/a	n/a
3522784	RECOG_RESP	n/a	LTP123	ltpFR	6	6	-1	ROCK	1201	1	n/a	-1	n/a	n/a	n/a	n/a	n/a
3523746	RECOG_CONF	n/a	LTP123	ltpFR	6	6	-1	ROCK	1201	n/a	4	-1	n/a	n/a	n/a	n/a	n/a
3525389	RECOG_TARGET	n/a	LTP123	ltpFR	6	6	0	COLONEL	348	1	1	1	n/a	n/a	n/a	n/a	n/a
3526460	RECOG_RESP	n/a	LTP123	ltpFR	6	6	0	COLONEL	348	1	n/a	1	n/a	n/a	n/a	n/a	n/a
3527468	RECOG_CONF	n/a	LTP123	ltpFR	6	6	0	COLONEL	348	n/a	1	1	n/a	n/a	n/a	n/a	n/a
3529096	RECOG_TARGET	n/a	LTP123	ltpFR	6	6	1	SCALPEL	1243	1	3	0	n/a	n/a	n/a	n/a	n/a
3529788	RECOG_RESP	n/a	LTP123	ltpFR	6	6	1	SCALPEL	1243	1	n/a	0	n/a	n/a	n/a	n/a	n/a
3530910	RECOG_CONF	n/a	LTP123	ltpFR	6	6	1	SCALPEL	1243	n/a	3	0	n/a	n/a	n/a	n/a	n/a
3532387	RECOG_TARGET	n/a	LTP123	ltpFR	6	6	-1	NOVEL	960	1	1	-1	n/a	n/a	n/a	n/a	n/a
3533195	RECOG_RESP	n/a	LTP123	ltpFR	6	6	-1	NOVEL	960	1	n/a	-1	n/a	n/a	n/a	n/a	n/a
3534243	RECOG_CONF	n/a	LTP123	ltpFR	6	6	-1	NOVEL	960	n/a	1	-1	n/a	n/a	n/a	n/a	n/a
3535669	RECOG_TARGET	n/a	LTP123	ltpFR	6	6	1	BANKER	84	1	2	1	n/a	n/a	n/a	n/a	n/a
3536288	RECOG_RESP	n/a	LTP123	ltpFR	6	6	1	BANKER	84	1	n/a	1	n/a	n/a	n/a	n/a	n/a
3537306	RECOG_CONF	n/a	LTP123	ltpFR	6	6	1	BANKER	84	n/a	2	1	n/a	n/a	n/a	n/a	n/a
3538967	RECOG_TARGET	n/a	LTP123	ltpFR	6	6	1	RING	1193	1	5	0	n/a	n/a	n/a	n/a	n/a
3539506	RECOG_RESP	n/a	LTP123	ltpFR	6	6	1	RING	1193	1	n/a	0	n/a	n/a	n/a	n/a	n/a
3540478	RECOG_CONF	n/a	LTP123	ltpFR	6	6	1	RING	1193	n/a	5	0	n/a	n/a	n/a	n/a	n/a
3541991	RECOG_TARGET	n/a	LTP123	ltpFR	6	6	1	NEPTUNE	943	1	2	0	n/a	n/a	n/a	n/a	n/a
3542808	RECOG_RESP	n/a	LTP123	ltpFR	6	6	1	NEPTUNE	943	1	n/a	0	n/a	n/a	n/a	n/a	n/a
3544020	RECOG_CONF	n/a	LTP123	ltpFR	6	6	1	NEPTUNE	943	n/a	2	0	n/a	n/a	n/a	n/a	n/a
3545457	RECOG_LURE	n/a	LTP123	ltpFR	6	6	n/a	TROPHY	1509	0	1	n/a	n/a	n/a	n/a	n/a	n/a
3546595	RECOG_RESP	n/a	LTP123	ltpFR	6	6	n/a	TROPHY	1509	0	n/a	n/a	n/a	n/a	n/a	n/a	n/a
3547682	RECOG_CONF	n/a	LTP123	ltpFR	6	6	n/a	TROPHY	1509	n/a	1	n/a	n/a	n/a	n/a	n/a	n/a
3549222	RECOG_TARGET	n/a	LTP123	ltpFR	6	6	1	WALLET	1583	1	2	0	n/a	n/a	n/a	n/a	n/a
3549977	RECOG_RESP	n/a	LTP123	ltpFR	6	6	1	WALLET	1583	1	n/a	0	n/a	n/a	n/a	n/a	n/a
3550995	RECOG_CONF	n/a	LTP123	ltpFR	6	6	1	WALLET	1583	n/a	2	0	n/a	n/a	n/a	n/a	n/a
3552455	RECOG_TARGET	n/a	LTP123	ltpFR	6	6	0	CANNON	232	1	3	1	n/a	n/a	n/a	n/a	n/a
3553140	RECOG_RESP	n/a	LTP123	ltpFR	6	6	0	CANNON	232	1	n/a	1	n/a	n/a	n/a	n/a	n/a
3554187	RECOG_CONF	n/a	LTP123	ltpFR	6	6	0	CANNON	232	n/a	3	1	n/a	n/a	n/a	n/a	n/a
3558256	REC_START	n/a	LTP123	ltpFR	6	7	n/a	n/a	n/a	n/a	n/a	n/a	n/a	n/a	n/a	n/a	n/a
3558294	RECOG_LURE	n/a	LTP123	ltpFR	6	7	n/a	RACKET	1155	1	1	n/a	n/a	n/a	n/a	n/a	n/a
3559453	RECOG_RESP	n/a	LTP123	ltpFR	6	7	n/a	RACKET	1155	1	n/a	n/a	n/a	n/a	n/a	n/a	n/a
3560486	RECOG_CONF	n/a	LTP123	ltpFR	6	7	n/a	RACKET	1155	n/a	1	n/a	n/a	n/a	n/a	n/a	n/a
3561909	RECOG_TARGET	n/a	LTP123	ltpFR	6	7	0	PUBLICATION	1136	1	1	1	n/a	n/a	n/a	n/a	n/a
3563544	RECOG_RESP	n/a	LTP123	ltpFR	6	7	0	PUBLICATION	1136	1	n/a	1	n/a	n/a	n/a	n/a	n/a
3565514	RECOG_CONF	n/a	LTP123	ltpFR	6	7	0	PUBLICATION	1136	n/a	1	1	n/a	n/a	n/a	n/a	n/a
3566965	RECOG_TARGET	n/a	LTP123	ltpFR	6	7	1	BUTTON	207	1	2	0	n/a	n/a	n/a	n/a	n/a
3567779	RECOG_RESP	n/a	LTP123	ltpFR	6	7	1	BUTTON	207	1	n/a	0	n/a	n/a	n/a	n/a	n/a
3568747	RECOG_CONF	n/a	LTP123	ltpFR	6	7	1	BUTTON	207	n/a	2	0	n/a	n/a	n/a	n/a	n/a
3570257	RECOG_LURE	n/a	LTP123	ltpFR	6	7	n/a	MESSAGE	888	1	1	n/a	n/a	n/a	n/a	n/a	n/a
3571072	RECOG_RESP	n/a	LTP123	ltpFR	6	7	n/a	MESSAGE	888	1	n/a	n/a	n/a	n/a	n/a	n/a	n/a
3572039	RECOG_CONF	n/a	LTP123	ltpFR	6	7	n/a	MESSAGE	888	n/a	1	n/a	n/a	n/a	n/a	n/a	n/a
3573514	RECOG_TARGET	n/a	LTP123	ltpFR	6	7	1	HALL	677	1	3	1	n/a	n/a	n/a	n/a	n/a
3574409	RECOG_RESP	n/a	LTP123	ltpFR	6	7	1	HALL	677	1	n/a	1	n/a	n/a	n/a	n/a	n/a
3575352	RECOG_CONF	n/a	LTP123	ltpFR	6	7	1	HALL	677	n/a	3	1	n/a	n/a	n/a	n/a	n/a
3576870	RECOG_TARGET	n/a	LTP123	ltpFR	6	7	1	COAT	333	1	1	0	n/a	n/a	n/a	n/a	n/a
3578161	RECOG_RESP	n/a	LTP123	ltpFR	6	7	1	COAT	333	1	n/a	0	n/a	n/a	n/a	n/a	n/a
3579173	RECOG_CONF	n/a	LTP123	ltpFR	6	7	1	COAT	333	n/a	1	0	n/a	n/a	n/a	n/a	n/a
3580685	RECOG_LURE	n/a	LTP123	ltpFR	6	7	n/a	HAM	678	0	1	n/a	n/a	n/a	n/a	n/a	n/a
3581688	RECOG_RESP	n/a	LTP123	ltpFR	6	7	n/a	HAM	678	0	n/a	n/a	n/a	n/a	n/a	n/a	n/a
3582765	RECOG_CONF	n/a	LTP123	ltpFR	6	7	n/a	HAM	678	n/a	1	n/a	n/a	n/a	n/a	n/a	n/a
3584327	RECOG_TARGET	n/a	LTP123	ltpFR	6	7	0	CASKET	255	1	3	1	n/a	n/a	n/a	n/a	n/a
3584990	RECOG_RESP	n/a	LTP123	ltpFR	6	7	0	CASKET	255	1	n/a	1	n/a	n/a	n/a	n/a	n/a
3585918	RECOG_CONF	n/a	LTP123	ltpFR	6	7	0	CASKET	255	n/a	3	1	n/a	n/a	n/a	n/a	n/a
3587392	RECOG_LURE	n/a	LTP123	ltpFR	6	7	n/a	DIAGRAM	456	0	2	n/a	n/a	n/a	n/a	n/a	n/a
3588497	RECOG_RESP	n/a	LTP123	ltpFR	6	7	n/a	DIAGRAM	456	0	n/a	n/a	n/a	n/a	n/a	n/a	n/a
3589639	RECOG_CONF	n/a	LTP123	ltpFR	6	7	n/a	DIAGRAM	456	n/a	2	n/a	n/a	n/a	n/a	n/a	n/a
3591091	RECOG_TARGET	n/a	LTP123	ltpFR	6	7	0	CONSOLE	364	1	4	0	n/a	n/a	n/a	n/a	n/a
3591864	RECOG_RESP	n/a	LTP123	ltpFR	6	7	0	CONSOLE	364	1	n/a	0	n/a	n/a	n/a	n/a	n/a
3592902	RECOG_CONF	n/a	LTP123	ltpFR	6	7	0	CONSOLE	364	n/a	4	0	n/a	n/a	n/a	n/a	n/a
3594381	RECOG_TARGET	n/a	LTP123	ltpFR	6	7	0	KID	775	1	4	1	n/a	n/a	n/a	n/a	n/a
3594952	RECOG_RESP	n/a	LTP123	ltpFR	6	7	0	KID	775	1	n/a	1	n/a	n/a	n/a	n/a	n/a
3595955	RECOG_CONF	n/a	LTP123	ltpFR	6	7	0	KID	775	n/a	4	1	n/a	n/a	n/a	n/a	n/a
3597497	RECOG_LURE	n/a	LTP123	ltpFR	6	7	n/a	WINDOW	1611	0	1	n/a	n/a	n/a	n/a	n/a	n/a
3598684	RECOG_RESP	n/a	LTP123	ltpFR	6	7	n/a	WINDOW	1611	0	n/a	n/a	n/a	n/a	n/a	n/a	n/a
3599657	RECOG_CONF	n/a	LTP123	ltpFR	6	7	n/a	WINDOW	1611	n/a	1	n/a	n/a	n/a	n/a	n/a	n/a
3601204	RECOG_TARGET	n/a	LTP123	ltpFR	6	7	1	SECRETARY	1265	1	2	1	n/a	n/a	n/a	n/a	n/a
3601917	RECOG_RESP	n/a	LTP123	ltpFR	6	7	1	SECRETARY	1265	1	n/a	1	n/a	n/a	n/a	n/a	n/a
3602899	RECOG_CONF	n/a	LTP123	ltpFR	6	7	1	SECRETARY	1265	n/a	2	1	n/a	n/a	n/a	n/a	n/a
3604436	RECOG_TARGET	n/a	LTP123	ltpFR	6	7	-1	YOKE	1632	1	3	-1	n/a	n/a	n/a	n/a	n/a
3605124	RECOG_RESP	n/a	LTP123	ltpFR	6	7	-1	YOKE	1632	1	n/a	-1	n/a	n/a	n/a	n/a	n/a
3606132	RECOG_CONF	n/a	LTP123	ltpFR	6	7	-1	YOKE	1632	n/a	3	-1	n/a	n/a	n/a	n/a	n/a
3607618	RECOG_TARGET	n/a	LTP123	ltpFR	6	7	1	SCALLOP	1242	1	4	1	n/a	n/a	n/a	n/a	n/a
3608222	RECOG_RESP	n/a	LTP123	ltpFR	6	7	1	SCALLOP	1242	1	n/a	1	n/a	n/a	n/a	n/a	n/a
3609255	RECOG_CONF	n/a	LTP123	ltpFR	6	7	1	SCALLOP	1242	n/a	4	1	n/a	n/a	n/a	n/a	n/a
3610651	RECOG_TARGET	n/a	LTP123	ltpFR	6	7	1	VAN	1548	1	1	0	n/a	n/a	n/a	n/a	n/a
3611490	RECOG_RESP	n/a	LTP123	ltpFR	6	7	1	VAN	1548	1	n/a	0	n/a	n/a	n/a	n/a	n/a
3612537	RECOG_CONF	n/a	LTP123	ltpFR	6	7	1	VAN	1548	n/a	1	0	n/a	n/a	n/a	n/a	n/a
3614033	RECOG_TARGET	n/a	LTP123	ltpFR	6	7	1	CHAMPION	279	1	5	1	n/a	n/a	n/a	n/a	n/a
3614787	RECOG_RESP	n/a	LTP123	ltpFR	6	7	1	CHAMPION	279	1	n/a	1	n/a	n/a	n/a	n/a	n/a
3615820	RECOG_CONF	n/a	LTP123	ltpFR	6	7	1	CHAMPION	279	n/a	5	1	n/a	n/a	n/a	n/a	n/a
3617140	RECOG_TARGET	n/a	LTP123	ltpFR	6	7	1	BEVERAGE	123	1	4	0	n/a	n/a	n/a	n/a	n/a
3617865	RECOG_RESP	n/a	LTP123	ltpFR	6	7	1	BEVERAGE	123	1	n/a	0	n/a	n/a	n/a	n/a	n/a
3618833	RECOG_CONF	n/a	LTP123	ltpFR	6	7	1	BEVERAGE	123	n/a	4	0	n/a	n/a	n/a	n/a	n/a
3620189	RECOG_TARGET	n/a	LTP123	ltpFR	6	7	0	CLOSET	326	1	1	1	n/a	n/a	n/a	n/a	n/a
3620923	RECOG_RESP	n/a	LTP123	ltpFR	6	7	0	CLOSET	326	1	n/a	1	n/a	n/a	n/a	n/a	n/a
3621836	RECOG_CONF	n/a	LTP123	ltpFR	6	7	0	CLOSET	326	n/a	1	1	n/a	n/a	n/a	n/a	n/a
3623329	RECOG_TARGET	n/a	LTP123	ltpFR	6	7	0	CLARINET	317	1	2	1	n/a	n/a	n/a	n/a	n/a
3624291	RECOG_RESP	n/a	LTP123	ltpFR	6	7	0	CLARINET	317	1	n/a	1	n/a	n/a	n/a	n/a	n/a
3625448	RECOG_CONF	n/a	LTP123	ltpFR	6	7	0	CLARINET	317	n/a	2	1	n/a	n/a	n/a	n/a	n/a
3636533	REC_START	n/a	LTP123	ltpFR	6	8	n/a	n/a	n/a	n/a	n/a	n/a	n/a	n/a	n/a	n/a	n/a
3636566	RECOG_LURE	n/a	LTP123	ltpFR	6	8	n/a	BOOT	150	1	1	n/a	n/a	n/a	n/a	n/a	n/a
3637266	RECOG_RESP	n/a	LTP123	ltpFR	6	8	n/a	BOOT	150	1	n/a	n/a	n/a	n/a	n/a	n/a	n/a
3638433	RECOG_CONF	n/a	LTP123	ltpFR	6	8	n/a	BOOT	150	n/a	1	n/a	n/a	n/a	n/a	n/a	n/a
3639889	RECOG_TARGET	n/a	LTP123	ltpFR	6	8	0	CRAB	397	1	4	0	n/a	n/a	n/a	n/a	n/a
3640609	RECOG_RESP	n/a	LTP123	ltpFR	6	8	0	CRAB	397	1	n/a	0	n/a	n/a	n/a	n/a	n/a
3641656	RECOG_CONF	n/a	LTP123	ltpFR	6	8	0	CRAB	397	n/a	4	0	n/a	n/a	n/a	n/a	n/a
3643097	RECOG_TARGET	n/a	LTP123	ltpFR	6	8	-1	TROMBONE	1508	1	3	-1	n/a	n/a	n/a	n/a	n/a
3643921	RECOG_RESP	n/a	LTP123	ltpFR	6	8	-1	TROMBONE	1508	1	n/a	-1	n/a	n/a	n/a	n/a	n/a
3644919	RECOG_CONF	n/a	LTP123	ltpFR	6	8	-1	TROMBONE	1508	n/a	3	-1	n/a	n/a	n/a	n/a	n/a
3646355	RECOG_TARGET	n/a	LTP123	ltpFR	6	8	0	ROD	1203	1	4	1	n/a	n/a	n/a	n/a	n/a
3647009	RECOG_RESP	n/a	LTP123	ltpFR	6	8	0	ROD	1203	1	n/a	1	n/a	n/a	n/a	n/a	n/a
3648022	RECOG_CONF	n/a	LTP123	ltpFR	6	8	0	ROD	1203	n/a	4	1	n/a	n/a	n/a	n/a	n/a
3649429	RECOG_LURE	n/a	LTP123	ltpFR	6	8	n/a	WHIP	1604	0	1	n/a	n/a	n/a	n/a	n/a	n/a
3650167	RECOG_RESP	n/a	LTP123	ltpFR	6	8	n/a	WHIP	1604	0	n/a	n/a	n/a	n/a	n/a	n/a	n/a
3651314	RECOG_CONF	n/a	LTP123	ltpFR	6	8	n/a	WHIP	1604	n/a	1	n/a	n/a	n/a	n/a	n/a	n/a
3652768	RECOG_TARGET	n/a	LTP123	ltpFR	6	8	0	WRIST	1626	1	3	0	n/a	n/a	n/a	n/a	n/a
3653380	RECOG_RESP	n/a	LTP123	ltpFR	6	8	0	WRIST	1626	1	n/a	0	n/a	n/a	n/a	n/a	n/a
3654507	RECOG_CONF	n/a	LTP123	ltpFR	6	8	0	WRIST	1626	n/a	3	0	n/a	n/a	n/a	n/a	n/a
3655900	RECOG_TARGET	n/a	LTP123	ltpFR	6	8	0	BROCCOLI	176	1	3	0	n/a	n/a	n/a	n/a	n/a
3656582	RECOG_RESP	n/a	LTP123	ltpFR	6	8	0	BROCCOLI	176	1	n/a	0	n/a	n/a	n/a	n/a	n/a
3657660	RECOG_CONF	n/a	LTP123	ltpFR	6	8	0	BROCCOLI	176	n/a	3	0	n/a	n/a	n/a	n/a	n/a
3659050	RECOG_TARGET	n/a	LTP123	ltpFR	6	8	1	TRIANGLE	1504	1	4	0	n/a	n/a	n/a	n/a	n/a
3659760	RECOG_RESP	n/a	LTP123	ltpFR	6	8	1	TRIANGLE	1504	1	n/a	0	n/a	n/a	n/a	n/a	n/a
3660743	RECOG_CONF	n/a	LTP123	ltpFR	6	8	1	TRIANGLE	1504	n/a	4	0	n/a	n/a	n/a	n/a	n/a
3662157	RECOG_LURE	n/a	LTP123	ltpFR	6	8	n/a	KETCHUP	771	1	1	n/a	n/a	n/a	n/a	n/a	n/a
3663776	RECOG_RESP	n/a	LTP123	ltpFR	6	8	n/a	KETCHUP	771	1	n/a	n/a	n/a	n/a	n/a	n/a	n/a
3664524	RECOG_CONF	n/a	LTP123	ltpFR	6	8	n/a	KETCHUP	771	n/a	1	n/a	n/a	n/a	n/a	n/a	n/a
3666023	RECOG_TARGET	n/a	LTP123	ltpFR	6	8	0	BUSH	202	1	3	1	n/a	n/a	n/a	n/a	n/a
3666669	RECOG_RESP	n/a	LTP123	ltpFR	6	8	0	BUSH	202	1	n/a	1	n/a	n/a	n/a	n/a	n/a
3667637	RECOG_CONF	n/a	LTP123	ltpFR	6	8	0	BUSH	202	n/a	3	1	n/a	n/a	n/a	n/a	n/a
3669097	RECOG_TARGET	n/a	LTP123	ltpFR	6	8	0	MISTER	901	1	2	1	n/a	n/a	n/a	n/a	n/a
3669862	RECOG_RESP	n/a	LTP123	ltpFR	6	8	0	MISTER	901	1	n/a	1	n/a	n/a	n/a	n/a	n/a
3670800	RECOG_CONF	n/a	LTP123	ltpFR	6	8	0	MISTER	901	n/a	2	1	n/a	n/a	n/a	n/a	n/a
3672295	RECOG_TARGET	n/a	LTP123	ltpFR	6	8	0	ATMOSPHERE	54	1	1	1	n/a	n/a	n/a	n/a	n/a
3673135	RECOG_RESP	n/a	LTP123	ltpFR	6	8	0	ATMOSPHERE	54	1	n/a	1	n/a	n/a	n/a	n/a	n/a
3674232	RECOG_CONF	n/a	LTP123	ltpFR	6	8	0	ATMOSPHERE	54	n/a	1	1	n/a	n/a	n/a	n/a	n/a
3675619	RECOG_TARGET	n/a	LTP123	ltpFR	6	8	1	BANANA	77	1	5	0	n/a	n/a	n/a	n/a	n/a
3676248	RECOG_RESP	n/a	LTP123	ltpFR	6	8	1	BANANA	77	1	n/a	0	n/a	n/a	n/a	n/a	n/a
3677265	RECOG_CONF	n/a	LTP123	ltpFR	6	8	1	BANANA	77	n/a	5	0	n/a	n/a	n/a	n/a	n/a
3678652	RECOG_TARGET	n/a	LTP123	ltpFR	6	8	0	BOWL	158	1	3	0	n/a	n/a	n/a	n/a	n/a
3679236	RECOG_RESP	n/a	LTP123	ltpFR	6	8	0	BOWL	158	1	n/a	0	n/a	n/a	n/a	n/a	n/a
3680618	RECOG_CONF	n/a	LTP123	ltpFR	6	8	0	BOWL	158	n/a	3	0	n/a	n/a	n/a	n/a	n/a
3681941	RECOG_LURE	n/a	LTP123	ltpFR	6	8	n/a	BEER	114	0	2	n/a	n/a	n/a	n/a	n/a	n/a
3682927	RECOG_RESP	n/a	LTP123	ltpFR	6	8	n/a	BEER	114	0	n/a	n/a	n/a	n/a	n/a	n/a	n/a
3684190	RECOG_CONF	n/a	LTP123	ltpFR	6	8	n/a	BEER	114	n/a	2	n/a	n/a	n/a	n/a	n/a	n/a
3685566	RECOG_TARGET	n/a	LTP123	ltpFR	6	8	1	HONEY	713	1	5	0	n/a	n/a	n/a	n/a	n/a
3686195	RECOG_RESP	n/a	LTP123	ltpFR	6	8	1	HONEY	713	1	n/a	0	n/a	n/a	n/a	n/a	n/a
3687213	RECOG_CONF	n/a	LTP123	ltpFR	6	8	1	HONEY	713	n/a	5	0	n/a	n/a	n/a	n/a	n/a
3688656	RECOG_TARGET	n/a	LTP123	ltpFR	6	8	0	TAG	1429	1	4	0	n/a	n/a	n/a	n/a	n/a
3689353	RECOG_RESP	n/a	LTP123	ltpFR	6	8	0	TAG	1429	1	n/a	0	n/a	n/a	n/a	n/a	n/a
3690485	RECOG_CONF	n/a	LTP123	ltpFR	6	8	0	TAG	1429	n/a	4	0	n/a	n/a	n/a	n/a	n/a
3691929	RECOG_TARGET	n/a	LTP123	ltpFR	6	8	1	CYLINDER	432	1	1	0	n/a	n/a	n/a	n/a	n/a
3692690	RECOG_RESP	n/a	LTP123	ltpFR	6	8	1	CYLINDER	432	1	n/a	0	n/a	n/a	n/a	n/a	n/a
3693628	RECOG_CONF	n/a	LTP123	ltpFR	6	8	1	CYLINDER	432	n/a	1	0	n/a	n/a	n/a	n/a	n/a
3695154	RECOG_LURE	n/a	LTP123	ltpFR	6	8	n/a	ATTIRE	57	1	1	n/a	n/a	n/a	n/a	n/a	n/a
3696152	RECOG_RESP	n/a	LTP123	ltpFR	6	8	n/a	ATTIRE	57	1	n/a	n/a	n/a	n/a	n/a	n/a	n/a
3697350	RECOG_CONF	n/a	LTP123	ltpFR	6	8	n/a	ATTIRE	57	n/a	1	n/a	n/a	n/a	n/a	n/a	n/a
3698935	RECOG_LURE	n/a	LTP123	ltpFR	6	8	n/a	COMPUTER	359	0	4	n/a	n/a	n/a	n/a	n/a	n/a
3699659	RECOG_RESP	n/a	LTP123	ltpFR	6	8	n/a	COMPUTER	359	0	n/a	n/a	n/a	n/a	n/a	n/a	n/a
3700772	RECOG_CONF	n/a	LTP123	ltpFR	6	8	n/a	COMPUTER	359	n/a	4	n/a	n/a	n/a	n/a	n/a	n/a
3712167	REC_START	n/a	LTP123	ltpFR	6	9	n/a	n/a	n/a	n/a	n/a	n/a	n/a	n/a	n/a	n/a	n/a
3712206	RECOG_TARGET	n/a	LTP123	ltpFR	6	9	-1	PAINTING	1005	1	2	-1	n/a	n/a	n/a	n/a	n/a
3713075	RECOG_RESP	n/a	LTP123	ltpFR	6	9	-1	PAINTING	1005	1	n/a	-1	n/a	n/a	n/a	n/a	n/a
3714107	RECOG_CONF	n/a	LTP123	ltpFR	6	9	-1	PAINTING	1005	n/a	2	-1	n/a	n/a	n/a	n/a	n/a
3715671	RECOG_TARGET	n/a	LTP123	ltpFR	6	9	1	DEODORANT	448	0	1	0	n/a	n/a	n/a	n/a	n/a
3716452	RECOG_RESP	n/a	LTP123	ltpFR	6	9	1	DEODORANT	448	0	n/a	0	n/a	n/a	n/a	n/a	n/a
3717719	RECOG_CONF	n/a	LTP123	ltpFR	6	9	1	DEODORANT	448	n/a	1	0	n/a	n/a	n/a	n/a	n/a
3719187	RECOG_TARGET	n/a	LTP123	ltpFR	6	9	0	BOUQUET	157	1	5	0	n/a	n/a	n/a	n/a	n/a
3719854	RECOG_RESP	n/a	LTP123	ltpFR	6	9	0	BOUQUET	157	1	n/a	0	n/a	n/a	n/a	n/a	n/a
3720862	RECOG_CONF	n/a	LTP123	ltpFR	6	9	0	BOUQUET	157	n/a	5	0	n/a	n/a	n/a	n/a	n/a
3722378	RECOG_LURE	n/a	LTP123	ltpFR	6	9	n/a	MOTEL	919	0	1	n/a	n/a	n/a	n/a	n/a	n/a
3723132	RECOG_RESP	n/a	LTP123	ltpFR	6	9	n/a	MOTEL	919	0	n/a	n/a	n/a	n/a	n/a	n/a	n/a
3724075	RECOG_CONF	n/a	LTP123	ltpFR	6	9	n/a	MOTEL	919	n/a	1	n/a	n/a	n/a	n/a	n/a	n/a
3725627	RECOG_TARGET	n/a	LTP123	ltpFR	6	9	0	JEWEL	757	1	5	0	n/a	n/a	n/a	n/a	n/a
3726170	RECOG_RESP	n/a	LTP123	ltpFR	6	9	0	JEWEL	757	1	n/a	0	n/a	n/a	n/a	n/a	n/a
3727138	RECOG_CONF	n/a	LTP123	ltpFR	6	9	0	JEWEL	757	n/a	5	0	n/a	n/a	n/a	n/a	n/a
3728708	RECOG_TARGET	n/a	LTP123	ltpFR	6	9	1	MOOSE	915	1	2	1	n/a	n/a	n/a	n/a	n/a
3729368	RECOG_RESP	n/a	LTP123	ltpFR	6	9	1	MOOSE	915	1	n/a	1	n/a	n/a	n/a	n/a	n/a
3730321	RECOG_CONF	n/a	LTP123	ltpFR	6	9	1	MOOSE	915	n/a	2	1	n/a	n/a	n/a	n/a	n/a
3731865	RECOG_LURE	n/a	LTP123	ltpFR	6	9	n/a	FRIES	607	1	1	n/a	n/a	n/a	n/a	n/a	n/a
3733463	RECOG_RESP	n/a	LTP123	ltpFR	6	9	n/a	FRIES	607	1	n/a	n/a	n/a	n/a	n/a	n/a	n/a
3734471	RECOG_CONF	n/a	LTP123	ltpFR	6	9	n/a	FRIES	607	n/a	1	n/a	n/a	n/a	n/a	n/a	n/a
3735905	RECOG_TARGET	n/a	LTP123	ltpFR	6	9	1	BRIDE	173	1	1	1	n/a	n/a	n/a	n/a	n/a
3736876	RECOG_RESP	n/a	LTP123	ltpFR	6	9	1	BRIDE	173	1	n/a	1	n/a	n/a	n/a	n/a	n/a
3738103	RECOG_CONF	n/a	LTP123	ltpFR	6	9	1	BRIDE	173	n/a	1	1	n/a	n/a	n/a	n/a	n/a
3739522	RECOG_LURE	n/a	LTP123	ltpFR	6	9	n/a	AIRPORT	13	1	1	n/a	n/a	n/a	n/a	n/a	n/a
3740712	RECOG_RESP	n/a	LTP123	ltpFR	6	9	n/a	AIRPORT	13	1	n/a	n/a	n/a	n/a	n/a	n/a	n/a
3742253	RECOG_CONF	n/a	LTP123	ltpFR	6	9	n/a	AIRPORT	13	n/a	1	n/a	n/a	n/a	n/a	n/a	n/a
3743986	RECOG_TARGET	n/a	LTP123	ltpFR	6	9	1	BROTHER	179	1	5	1	n/a	n/a	n/a	n/a	n/a
3744833	RECOG_RESP	n/a	LTP123	ltpFR	6	9	1	BROTHER	179	1	n/a	1	n/a	n/a	n/a	n/a	n/a
3745955	RECOG_CONF	n/a	LTP123	ltpFR	6	9	1	BROTHER	179	n/a	5	1	n/a	n/a	n/a	n/a	n/a
3747510	RECOG_TARGET	n/a	LTP123	ltpFR	6	9	1	FREEWAY	603	1	1	0	n/a	n/a	n/a	n/a	n/a
3748809	RECOG_RESP	n/a	LTP123	ltpFR	6	9	1	FREEWAY	603	1	n/a	0	n/a	n/a	n/a	n/a	n/a
3749926	RECOG_CONF	n/a	LTP123	ltpFR	6	9	1	FREEWAY	603	n/a	1	0	n/a	n/a	n/a	n/a	n/a
3751384	RECOG_TARGET	n/a	LTP123	ltpFR	6	9	-1	ARTERY	41	1	4	-1	n/a	n/a	n/a	n/a	n/a
3752750	RECOG_RESP	n/a	LTP123	ltpFR	6	9	-1	ARTERY	41	1	n/a	-1	n/a	n/a	n/a	n/a	n/a
3753717	RECOG_CONF	n/a	LTP123	ltpFR	6	9	-1	ARTERY	41	n/a	4	-1	n/a	n/a	n/a	n/a	n/a
3755183	RECOG_TARGET	n/a	LTP123	ltpFR	6	9	0	JAW	751	1	5	0	n/a	n/a	n/a	n/a	n/a
3755818	RECOG_RESP	n/a	LTP123	ltpFR	6	9	0	JAW	751	1	n/a	0	n/a	n/a	n/a	n/a	n/a
3756890	RECOG_CONF	n/a	LTP123	ltpFR	6	9	0	JAW	751	n/a	5	0	n/a	n/a	n/a	n/a	n/a
3758373	RECOG_TARGET	n/a	LTP123	ltpFR	6	9	0	MOSQUITO	917	1	2	0	n/a	n/a	n/a	n/a	n/a
3759070	RECOG_RESP	n/a	LTP123	ltpFR	6	9	0	MOSQUITO	917	1	n/a	0	n/a	n/a	n/a	n/a	n/a
3760013	RECOG_CONF	n/a	LTP123	ltpFR	6	9	0	MOSQUITO	917	n/a	2	0	n/a	n/a	n/a	n/a	n/a
3761497	RECOG_TARGET	n/a	LTP123	ltpFR	6	9	1	HORNET	718	1	3	0	n/a	n/a	n/a	n/a	n/a
3762148	RECOG_RESP	n/a	LTP123	ltpFR	6	9	1	HORNET	718	1	n/a	0	n/a	n/a	n/a	n/a	n/a
3763186	RECOG_CONF	n/a	LTP123	ltpFR	6	9	1	HORNET	718	n/a	3	0	n/a	n/a	n/a	n/a	n/a
3764654	RECOG_TARGET	n/a	LTP123	ltpFR	6	9	0	FOOT	590	1	3	0	n/a	n/a	n/a	n/a	n/a
3765206	RECOG_RESP	n/a	LTP123	ltpFR	6	9	0	FOOT	590	1	n/a	0	n/a	n/a	n/a	n/a	n/a
3766359	RECOG_CONF	n/a	LTP123	ltpFR	6	9	0	FOOT	590	n/a	3	0	n/a	n/a	n/a	n/a	n/a
3767827	RECOG_TARGET	n/a	LTP123	ltpFR	6	9	0	DRINK	498	1	1	0	n/a	n/a	n/a	n/a	n/a
3768524	RECOG_RESP	n/a	LTP123	ltpFR	6	9	0	DRINK	498	1	n/a	0	n/a	n/a	n/a	n/a	n/a
3769641	RECOG_CONF	n/a	LTP123	ltpFR	6	9	0	DRINK	498	n/a	1	0	n/a	n/a	n/a	n/a	n/a
3771185	RECOG_TARGET	n/a	LTP123	ltpFR	6	9	1	CRIMINAL	409	1	1	1	n/a	n/a	n/a	n/a	n/a
3771811	RECOG_RESP	n/a	LTP123	ltpFR	6	9	1	CRIMINAL	409	1	n/a	1	n/a	n/a	n/a	n/a	n/a
3772864	RECOG_CONF	n/a	LTP123	ltpFR	6	9	1	CRIMINAL	409	n/a	1	1	n/a	n/a	n/a	n/a	n/a
3774484	RECOG_TARGET	n/a	LTP123	ltpFR	6	9	-1	STATUE	1374	1	3	-1	n/a	n/a	n/a	n/a	n/a
3775154	RECOG_RESP	n/a	LTP123	ltpFR	6	9	-1	STATUE	1374	1	n/a	-1	n/a	n/a	n/a	n/a	n/a
3776226	RECOG_CONF	n/a	LTP123	ltpFR	6	9	-1	STATUE	1374	n/a	3	-1	n/a	n/a	n/a	n/a	n/a
3777782	RECOG_TARGET	n/a	LTP123	ltpFR	6	9	0	KNAPSACK	783	1	3	1	n/a	n/a	n/a	n/a	n/a
3778566	RECOG_RESP	n/a	LTP123	ltpFR	6	9	0	KNAPSACK	783	1	n/a	1	n/a	n/a	n/a	n/a	n/a
3779619	RECOG_CONF	n/a	LTP123	ltpFR	6	9	0	KNAPSACK	783	n/a	3	1	n/a	n/a	n/a	n/a	n/a
3786066	REC_START	n/a	LTP123	ltpFR	6	10	n/a	n/a	n/a	n/a	n/a	n/a	n/a	n/a	n/a	n/a	n/a
3786097	RECOG_TARGET	n/a	LTP123	ltpFR	6	10	0	BUBBLE	183	1	5	0	n/a	n/a	n/a	n/a	n/a
3786799	RECOG_RESP	n/a	LTP123	ltpFR	6	10	0	BUBBLE	183	1	n/a	0	n/a	n/a	n/a	n/a	n/a
3787707	RECOG_CONF	n/a	LTP123	ltpFR	6	10	0	BUBBLE	183	n/a	5	0	n/a	n/a	n/a	n/a	n/a
3789337	RECOG_TARGET	n/a	LTP123	ltpFR	6	10	-1	TUBA	1515	1	2	-1	n/a	n/a	n/a	n/a	n/a
3789942	RECOG_RESP	n/a	LTP123	ltpFR	6	10	-1	TUBA	1515	1	n/a	-1	n/a	n/a	n/a	n/a	n/a
3791000	RECOG_CONF	n/a	LTP123	ltpFR	6	10	-1	TUBA	1515	n/a	2	-1	n/a	n/a	n/a	n/a	n/a
3792436	RECOG_TARGET	n/a	LTP123	ltpFR	6	10	0	ROOM	1206	1	3	1	n/a	n/a	n/a	n/a	n/a
3793030	RECOG_RESP	n/a	LTP123	ltpFR	6	10	0	ROOM	1206	1	n/a	1	n/a	n/a	n/a	n/a	n/a
3794252	RECOG_CONF	n/a	LTP123	ltpFR	6	10	0	ROOM	1206	n/a	3	1	n/a	n/a	n/a	n/a	n/a
3795784	RECOG_LURE	n/a	LTP123	ltpFR	6	10	n/a	SCARECROW	1245	1	1	n/a	n/a	n/a	n/a	n/a	n/a
3796407	RECOG_RESP	n/a	LTP123	ltpFR	6	10	n/a	SCARECROW	1245	1	n/a	n/a	n/a	n/a	n/a	n/a	n/a
3797425	RECOG_CONF	n/a	LTP123	ltpFR	6	10	n/a	SCARECROW	1245	n/a	1	n/a	n/a	n/a	n/a	n/a	n/a
3798999	RECOG_TARGET	n/a	LTP123	ltpFR	6	10	0	TAXI	1438	1	3	1	n/a	n/a	n/a	n/a	n/a
3799730	RECOG_RESP	n/a	LTP123	ltpFR	6	10	0	TAXI	1438	1	n/a	1	n/a	n/a	n/a	n/a	n/a
3800847	RECOG_CONF	n/a	LTP123	ltpFR	6	10	0	TAXI	1438	n/a	3	1	n/a	n/a	n/a	n/a	n/a
3802366	RECOG_TARGET	n/a	LTP123	ltpFR	6	10	1	ANTLER	29	1	2	0	n/a	n/a	n/a	n/a	n/a
3802957	RECOG_RESP	n/a	LTP123	ltpFR	6	10	1	ANTLER	29	1	n/a	0	n/a	n/a	n/a	n/a	n/a
3803960	RECOG_CONF	n/a	LTP123	ltpFR	6	10	1	ANTLER	29	n/a	2	0	n/a	n/a	n/a	n/a	n/a
3805557	RECOG_TARGET	n/a	LTP123	ltpFR	6	10	0	EAGLE	512	1	4	1	n/a	n/a	n/a	n/a	n/a
3806085	RECOG_RESP	n/a	LTP123	ltpFR	6	10	0	EAGLE	512	1	n/a	1	n/a	n/a	n/a	n/a	n/a
3807083	RECOG_CONF	n/a	LTP123	ltpFR	6	10	0	EAGLE	512	n/a	4	1	n/a	n/a	n/a	n/a	n/a
3808564	RECOG_TARGET	n/a	LTP123	ltpFR	6	10	-1	HERD	705	1	1	-1	n/a	n/a	n/a	n/a	n/a
3809153	RECOG_RESP	n/a	LTP123	ltpFR	6	10	-1	HERD	705	1	n/a	-1	n/a	n/a	n/a	n/a	n/a
3810116	RECOG_CONF	n/a	LTP123	ltpFR	6	10	-1	HERD	705	n/a	1	-1	n/a	n/a	n/a	n/a	n/a
3811613	RECOG_LURE	n/a	LTP123	ltpFR	6	10	n/a	CARD	243	1	1	n/a	n/a	n/a	n/a	n/a	n/a
3812511	RECOG_RESP	n/a	LTP123	ltpFR	6	10	n/a	CARD	243	1	n/a	n/a	n/a	n/a	n/a	n/a	n/a
3813648	RECOG_CONF	n/a	LTP123	ltpFR	6	10	n/a	CARD	243	n/a	1	n/a	n/a	n/a	n/a	n/a	n/a
3815245	RECOG_TARGET	n/a	LTP123	ltpFR	6	10	-1	CATTLE	261	1	3	-1	n/a	n/a	n/a	n/a	n/a
3815838	RECOG_RESP	n/a	LTP123	ltpFR	6	10	-1	CATTLE	261	1	n/a	-1	n/a	n/a	n/a	n/a	n/a
3816801	RECOG_CONF	n/a	LTP123	ltpFR	6	10	-1	CATTLE	261	n/a	3	-1	n/a	n/a	n/a	n/a	n/a
3818385	RECOG_TARGET	n/a	LTP123	ltpFR	6	10	1	FOX	598	1	1	1	n/a	n/a	n/a	n/a	n/a
3819335	RECOG_RESP	n/a	LTP123	ltpFR	6	10	1	FOX	598	1	n/a	1	n/a	n/a	n/a	n/a	n/a
3820523	RECOG_CONF	n/a	LTP123	ltpFR	6	10	1	FOX	598	n/a	1	1	n/a	n/a	n/a	n/a	n/a
3822059	RECOG_TARGET	n/a	LTP123	ltpFR	6	10	0	YACHT	1629	1	3	1	n/a	n/a	n/a	n/a	n/a
3822762	RECOG_RESP	n/a	LTP123	ltpFR	6	10	0	YACHT	1629	1	n/a	1	n/a	n/a	n/a	n/a	n/a
3823785	RECOG_CONF	n/a	LTP123	ltpFR	6	10	0	YACHT	1629	n/a	3	1	n/a	n/a	n/a	n/a	n/a
3825241	RECOG_TARGET	n/a	LTP123	ltpFR	6	10	1	SUIT	1402	1	2	0	n/a	n/a	n/a	n/a	n/a
3825940	RECOG_RESP	n/a	LTP123	ltpFR	6	10	1	SUIT	1402	1	n/a	0	n/a	n/a	n/a	n/a	n/a
