onset	duration	trial_type	sample	stim_file	subject	experiment	session	trial	item_name	item_num	list	answer	test_x	test_y	test_z
20.406	n/a	SESS_START	10203	n/a	LTP293	ltpFR2	22	n/a	n/a	n/a	n/a	n/a	0	0	0
35.656	n/a	START	17828	n/a	LTP293	ltpFR2	22	n/a	n/a	n/a	-1	n/a	n/a	n/a	n/a
35.684	n/a	PROB	17842	n/a	LTP293	ltpFR2	22	n/a	n/a	n/a	-1	16	7	3	6
37.302	n/a	PROB	18651	n/a	LTP293	ltpFR2	22	n/a	n/a	n/a	-1	10	3	4	3
38.452	n/a	PROB	19226	n/a	LTP293	ltpFR2	22	n/a	n/a	n/a	-1	15	2	5	8
39.638	n/a	PROB	19819	n/a	LTP293	ltpFR2	22	n/a	n/a	n/a	-1	20	6	5	9
40.972	n/a	PROB	20486	n/a	LTP293	ltpFR2	22	n/a	n/a	n/a	-1	18	4	8	6
42.19	n/a	PROB	21095	n/a	LTP293	ltpFR2	22	n/a	n/a	n/a	-1	21	7	6	8
43.81	n/a	PROB	21905	n/a	LTP293	ltpFR2	22	n/a	n/a	n/a	-1	14	8	5	1
44.976	n/a	PROB	22488	n/a	LTP293	ltpFR2	22	n/a	n/a	n/a	-1	15	9	5	1
45.91	n/a	PROB	22955	n/a	LTP293	ltpFR2	22	n/a	n/a	n/a	-1	15	8	3	4
47.08	n/a	STOP	23540	n/a	LTP293	ltpFR2	22	n/a	n/a	n/a	-1	n/a	n/a	n/a	n/a
77.402	n/a	WORD	38701	wordpools/wasnorm_wordpool_576.txt	LTP293	ltpFR2	22	1	CATTLE	261	n/a	n/a	0	0	0
80.14	n/a	WORD	40070	wordpools/wasnorm_wordpool_576.txt	LTP293	ltpFR2	22	1	LIGHTNING	820	n/a	n/a	0	0	0
82.856	n/a	WORD	41428	wordpools/wasnorm_wordpool_576.txt	LTP293	ltpFR2	22	1	GYMNAST	675	n/a	n/a	0	0	0
85.608	n/a	WORD	42804	wordpools/wasnorm_wordpool_576.txt	LTP293	ltpFR2	22	1	JEANS	752	n/a	n/a	0	0	0
88.276	n/a	WORD	44138	wordpools/wasnorm_wordpool_576.txt	LTP293	ltpFR2	22	1	OX	994	n/a	n/a	0	0	0
90.884	n/a	WORD	45442	wordpools/wasnorm_wordpool_576.txt	LTP293	ltpFR2	22	1	TABLET	1427	n/a	n/a	0	0	0
93.398	n/a	WORD	46699	wordpools/wasnorm_wordpool_576.txt	LTP293	ltpFR2	22	1	DRESSER	496	n/a	n/a	0	0	0
95.888	n/a	WORD	47944	wordpools/wasnorm_wordpool_576.txt	LTP293	ltpFR2	22	1	FRANCE	601	n/a	n/a	0	0	0
98.652	n/a	WORD	49326	wordpools/wasnorm_wordpool_576.txt	LTP293	ltpFR2	22	1	DONOR	485	n/a	n/a	0	0	0
101.192	n/a	WORD	50596	wordpools/wasnorm_wordpool_576.txt	LTP293	ltpFR2	22	1	CHEST	295	n/a	n/a	0	0	0
103.822	n/a	WORD	51911	wordpools/wasnorm_wordpool_576.txt	LTP293	ltpFR2	22	1	ANTLER	29	n/a	n/a	0	0	0
106.358	n/a	WORD	53179	wordpools/wasnorm_wordpool_576.txt	LTP293	ltpFR2	22	1	ELBOW	520	n/a	n/a	0	0	0
109.116	n/a	WORD	54558	wordpools/wasnorm_wordpool_576.txt	LTP293	ltpFR2	22	1	ROBOT	1200	n/a	n/a	0	0	0
111.864	n/a	WORD	55932	wordpools/wasnorm_wordpool_576.txt	LTP293	ltpFR2	22	1	SHOULDER	1294	n/a	n/a	0	0	0
114.564	n/a	WORD	57282	wordpools/wasnorm_wordpool_576.txt	LTP293	ltpFR2	22	1	BEAST	108	n/a	n/a	0	0	0
117.098	n/a	WORD	58549	wordpools/wasnorm_wordpool_576.txt	LTP293	ltpFR2	22	1	CHIPMUNK	304	n/a	n/a	0	0	0
119.672	n/a	WORD	59836	wordpools/wasnorm_wordpool_576.txt	LTP293	ltpFR2	22	1	BACON	67	n/a	n/a	0	0	0
122.354	n/a	WORD	61177	wordpools/wasnorm_wordpool_576.txt	LTP293	ltpFR2	22	1	MILDEW	893	n/a	n/a	0	0	0
125.038	n/a	WORD	62519	wordpools/wasnorm_wordpool_576.txt	LTP293	ltpFR2	22	1	CABBAGE	210	n/a	n/a	0	0	0
127.59	n/a	WORD	63795	wordpools/wasnorm_wordpool_576.txt	LTP293	ltpFR2	22	1	GRIZZLY	662	n/a	n/a	0	0	0
130.326	n/a	WORD	65163	wordpools/wasnorm_wordpool_576.txt	LTP293	ltpFR2	22	1	HAND	683	n/a	n/a	0	0	0
132.996	n/a	WORD	66498	wordpools/wasnorm_wordpool_576.txt	LTP293	ltpFR2	22	1	LASER	801	n/a	n/a	0	0	0
135.43	n/a	WORD	67715	wordpools/wasnorm_wordpool_576.txt	LTP293	ltpFR2	22	1	RIFLE	1192	n/a	n/a	0	0	0
138.25	n/a	WORD	69125	wordpools/wasnorm_wordpool_576.txt	LTP293	ltpFR2	22	1	SERVER	1272	n/a	n/a	0	0	0
139.86	n/a	START	69930	n/a	LTP293	ltpFR2	22	n/a	n/a	n/a	1	n/a	n/a	n/a	n/a
140.894	n/a	DISTRACTOR	70447	n/a	LTP293	ltpFR2	22	1	n/a	n/a	n/a	n/a	0	0	0
140.904	n/a	PROB	70452	n/a	LTP293	ltpFR2	22	n/a	n/a	n/a	1	9	4	1	4
142.102	n/a	PROB	71051	n/a	LTP293	ltpFR2	22	n/a	n/a	n/a	1	18	5	4	9
143.018	n/a	PROB	71509	n/a	LTP293	ltpFR2	22	n/a	n/a	n/a	1	15	4	6	5
143.986	n/a	PROB	71993	n/a	LTP293	ltpFR2	22	n/a	n/a	n/a	1	14	9	4	1
145.038	n/a	PROB	72519	n/a	LTP293	ltpFR2	22	n/a	n/a	n/a	1	22	8	7	7
146.254	n/a	PROB	73127	n/a	LTP293	ltpFR2	22	n/a	n/a	n/a	1	14	8	1	5
147.306	n/a	PROB	73653	n/a	LTP293	ltpFR2	22	n/a	n/a	n/a	1	11	3	2	6
148.308	n/a	PROB	74154	n/a	LTP293	ltpFR2	22	n/a	n/a	n/a	1	12	2	2	8
149.574	n/a	PROB	74787	n/a	LTP293	ltpFR2	22	n/a	n/a	n/a	1	17	4	6	7
150.626	n/a	PROB	75313	n/a	LTP293	ltpFR2	22	n/a	n/a	n/a	1	17	8	2	7
151.658	n/a	PROB	75829	n/a	LTP293	ltpFR2	22	n/a	n/a	n/a	1	18	8	4	6
152.91	n/a	PROB	76455	n/a	LTP293	ltpFR2	22	n/a	n/a	n/a	1	8	4	1	3
154.778	n/a	PROB	77389	n/a	LTP293	ltpFR2	22	n/a	n/a	n/a	1	18	2	9	7
156.246	n/a	PROB	78123	n/a	LTP293	ltpFR2	22	n/a	n/a	n/a	1	20	9	6	5
157.53	n/a	PROB	78765	n/a	LTP293	ltpFR2	22	n/a	n/a	n/a	1	14	3	7	4
158.564	n/a	PROB	79282	n/a	LTP293	ltpFR2	22	n/a	n/a	n/a	1	24	9	6	9
159.966	n/a	PROB	79983	n/a	LTP293	ltpFR2	22	n/a	n/a	n/a	1	24	8	8	8
161.034	n/a	PROB	80517	n/a	LTP293	ltpFR2	22	n/a	n/a	n/a	1	24	8	9	7
163.026	n/a	STOP	81513	n/a	LTP293	ltpFR2	22	n/a	n/a	n/a	1	n/a	n/a	n/a	n/a
165.674	n/a	REC_START	82837	n/a	LTP293	ltpFR2	22	1	n/a	n/a	n/a	n/a	0	0	0
166.27	n/a	REC_WORD	83135	wordpools/wasnorm_wordpool_576.txt	LTP293	ltpFR2	22	1	GRIZZLY	662	n/a	n/a	0	0	0
167.266	n/a	REC_WORD	83633	wordpools/wasnorm_wordpool_576.txt	LTP293	ltpFR2	22	1	MILDEW	893	n/a	n/a	0	0	0
168.298	n/a	REC_WORD	84149	wordpools/wasnorm_wordpool_576.txt	LTP293	ltpFR2	22	1	HAND	683	n/a	n/a	0	0	0
169.468	n/a	REC_WORD	84734	wordpools/wasnorm_wordpool_576.txt	LTP293	ltpFR2	22	1	ELBOW	520	n/a	n/a	0	0	0
170.462	n/a	REC_WORD	85231	wordpools/wasnorm_wordpool_576.txt	LTP293	ltpFR2	22	1	CABBAGE	210	n/a	n/a	0	0	0
171.524	n/a	REC_WORD	85762	wordpools/wasnorm_wordpool_576.txt	LTP293	ltpFR2	22	1	DRESSER	496	n/a	n/a	0	0	0
172.588	n/a	REC_WORD	86294	wordpools/wasnorm_wordpool_576.txt	LTP293	ltpFR2	22	1	CHEST	295	n/a	n/a	0	0	0
175.166	n/a	REC_WORD	87583	wordpools/wasnorm_wordpool_576.txt	LTP293	ltpFR2	22	1	GYMNAST	675	n/a	n/a	0	0	0
176.966	n/a	REC_WORD	88483	wordpools/wasnorm_wordpool_576.txt	LTP293	ltpFR2	22	1	FRANCE	601	n/a	n/a	0	0	0
178.508	n/a	REC_WORD	89254	wordpools/wasnorm_wordpool_576.txt	LTP293	ltpFR2	22	1	OX	994	n/a	n/a	0	0	0
180.026	n/a	REC_WORD	90013	wordpools/wasnorm_wordpool_576.txt	LTP293	ltpFR2	22	1	CATTLE	261	n/a	n/a	0	0	0
181.474	n/a	REC_WORD	90737	wordpools/wasnorm_wordpool_576.txt	LTP293	ltpFR2	22	1	BEAST	108	n/a	n/a	0	0	0
184.356	n/a	REC_WORD	92178	wordpools/wasnorm_wordpool_576.txt	LTP293	ltpFR2	22	1	LIGHTNING	820	n/a	n/a	0	0	0
185.418	n/a	REC_WORD	92709	wordpools/wasnorm_wordpool_576.txt	LTP293	ltpFR2	22	1	TABLET	1427	n/a	n/a	0	0	0
230.22	n/a	REC_WORD	115110	wordpools/wasnorm_wordpool_576.txt	LTP293	ltpFR2	22	1	JEANS	752	n/a	n/a	0	0	0
256.124	n/a	DISTRACTOR	128062	n/a	LTP293	ltpFR2	22	2	n/a	n/a	n/a	n/a	0	0	0
256.124	n/a	START	128062	n/a	LTP293	ltpFR2	22	n/a	n/a	n/a	2	n/a	n/a	n/a	n/a
256.142	n/a	PROB	128071	n/a	LTP293	ltpFR2	22	n/a	n/a	n/a	2	15	9	5	1
257.072	n/a	PROB	128536	n/a	LTP293	ltpFR2	22	n/a	n/a	n/a	2	12	3	4	5
258.624	n/a	PROB	129312	n/a	LTP293	ltpFR2	22	n/a	n/a	n/a	2	21	9	5	7
259.66	n/a	PROB	129830	n/a	LTP293	ltpFR2	22	n/a	n/a	n/a	2	5	1	1	3
260.442	n/a	PROB	130221	n/a	LTP293	ltpFR2	22	n/a	n/a	n/a	2	13	2	3	8
261.628	n/a	PROB	130814	n/a	LTP293	ltpFR2	22	n/a	n/a	n/a	2	17	8	2	7
262.946	n/a	PROB	131473	n/a	LTP293	ltpFR2	22	n/a	n/a	n/a	2	15	5	9	1
263.796	n/a	PROB	131898	n/a	LTP293	ltpFR2	22	n/a	n/a	n/a	2	9	3	1	5
265.032	n/a	PROB	132516	n/a	LTP293	ltpFR2	22	n/a	n/a	n/a	2	12	3	2	7
266.714	n/a	PROB	133357	n/a	LTP293	ltpFR2	22	n/a	n/a	n/a	2	17	4	5	8
267.732	n/a	PROB	133866	n/a	LTP293	ltpFR2	22	n/a	n/a	n/a	2	21	8	5	8
268.934	n/a	PROB	134467	n/a	LTP293	ltpFR2	22	n/a	n/a	n/a	2	15	7	3	5
269.752	n/a	PROB	134876	n/a	LTP293	ltpFR2	22	n/a	n/a	n/a	2	13	1	7	5
270.82	n/a	PROB	135410	n/a	LTP293	ltpFR2	22	n/a	n/a	n/a	2	9	3	4	2
272.336	n/a	PROB	136168	n/a	LTP293	ltpFR2	22	n/a	n/a	n/a	2	15	7	6	2
273.89	n/a	PROB	136945	n/a	LTP293	ltpFR2	22	n/a	n/a	n/a	2	14	9	1	4
274.838	n/a	PROB	137419	n/a	LTP293	ltpFR2	22	n/a	n/a	n/a	2	14	2	3	9
276.556	n/a	PROB	138278	n/a	LTP293	ltpFR2	22	n/a	n/a	n/a	2	13	2	2	9
277.844	n/a	PROB	138922	n/a	LTP293	ltpFR2	22	n/a	n/a	n/a	2	4	1	2	1
278.636	n/a	STOP	139318	n/a	LTP293	ltpFR2	22	n/a	n/a	n/a	2	n/a	n/a	n/a	n/a
281.126	n/a	WORD	140563	wordpools/wasnorm_wordpool_576.txt	LTP293	ltpFR2	22	2	RECORD	1176	n/a	n/a	0	0	0
283.58	n/a	WORD	141790	wordpools/wasnorm_wordpool_576.txt	LTP293	ltpFR2	22	2	COBRA	336	n/a	n/a	0	0	0
286.132	n/a	WORD	143066	wordpools/wasnorm_wordpool_576.txt	LTP293	ltpFR2	22	2	OUTDOORS	987	n/a	n/a	0	0	0
288.802	n/a	WORD	144401	wordpools/wasnorm_wordpool_576.txt	LTP293	ltpFR2	22	2	LETTUCE	814	n/a	n/a	0	0	0
291.52	n/a	WORD	145760	wordpools/wasnorm_wordpool_576.txt	LTP293	ltpFR2	22	2	SALAD	1224	n/a	n/a	0	0	0
294.338	n/a	WORD	147169	wordpools/wasnorm_wordpool_576.txt	LTP293	ltpFR2	22	2	LAGOON	795	n/a	n/a	0	0	0
296.79	n/a	WORD	148395	wordpools/wasnorm_wordpool_576.txt	LTP293	ltpFR2	22	2	FRIAR	605	n/a	n/a	0	0	0
299.458	n/a	WORD	149729	wordpools/wasnorm_wordpool_576.txt	LTP293	ltpFR2	22	2	TURKEY	1520	n/a	n/a	0	0	0
302.078	n/a	WORD	151039	wordpools/wasnorm_wordpool_576.txt	LTP293	ltpFR2	22	2	PORTRAIT	1111	n/a	n/a	0	0	0
304.578	n/a	WORD	152289	wordpools/wasnorm_wordpool_576.txt	LTP293	ltpFR2	22	2	SNAIL	1332	n/a	n/a	0	0	0
307.248	n/a	WORD	153624	wordpools/wasnorm_wordpool_576.txt	LTP293	ltpFR2	22	2	FLEET	578	n/a	n/a	0	0	0
309.732	n/a	WORD	154866	wordpools/wasnorm_wordpool_576.txt	LTP293	ltpFR2	22	2	TROMBONE	1508	n/a	n/a	0	0	0
312.202	n/a	WORD	156101	wordpools/wasnorm_wordpool_576.txt	LTP293	ltpFR2	22	2	SHOVEL	1295	n/a	n/a	0	0	0
314.938	n/a	WORD	157469	wordpools/wasnorm_wordpool_576.txt	LTP293	ltpFR2	22	2	SERVANT	1271	n/a	n/a	0	0	0
317.356	n/a	WORD	158678	wordpools/wasnorm_wordpool_576.txt	LTP293	ltpFR2	22	2	SCRIBBLE	1256	n/a	n/a	0	0	0
319.824	n/a	WORD	159912	wordpools/wasnorm_wordpool_576.txt	LTP293	ltpFR2	22	2	GARDEN	623	n/a	n/a	0	0	0
322.278	n/a	WORD	161139	wordpools/wasnorm_wordpool_576.txt	LTP293	ltpFR2	22	2	SKETCH	1315	n/a	n/a	0	0	0
324.714	n/a	WORD	162357	wordpools/wasnorm_wordpool_576.txt	LTP293	ltpFR2	22	2	ORCHID	982	n/a	n/a	0	0	0
327.198	n/a	WORD	163599	wordpools/wasnorm_wordpool_576.txt	LTP293	ltpFR2	22	2	FLIPPER	580	n/a	n/a	0	0	0
329.966	n/a	WORD	164983	wordpools/wasnorm_wordpool_576.txt	LTP293	ltpFR2	22	2	DAUGHTER	442	n/a	n/a	0	0	0
332.388	n/a	WORD	166194	wordpools/wasnorm_wordpool_576.txt	LTP293	ltpFR2	22	2	PIMPLE	1071	n/a	n/a	0	0	0
334.904	n/a	WORD	167452	wordpools/wasnorm_wordpool_576.txt	LTP293	ltpFR2	22	2	FRECKLE	602	n/a	n/a	0	0	0
337.676	n/a	WORD	168838	wordpools/wasnorm_wordpool_576.txt	LTP293	ltpFR2	22	2	PEDAL	1037	n/a	n/a	0	0	0
340.208	n/a	WORD	170104	wordpools/wasnorm_wordpool_576.txt	LTP293	ltpFR2	22	2	PICTURE	1061	n/a	n/a	0	0	0
341.814	n/a	START	170907	n/a	LTP293	ltpFR2	22	n/a	n/a	n/a	3	n/a	n/a	n/a	n/a
342.91	n/a	DISTRACTOR	171455	n/a	LTP293	ltpFR2	22	2	n/a	n/a	n/a	n/a	0	0	0
342.914	n/a	PROB	171457	n/a	LTP293	ltpFR2	22	n/a	n/a	n/a	3	17	9	3	5
344.142	n/a	PROB	172071	n/a	LTP293	ltpFR2	22	n/a	n/a	n/a	3	23	9	8	6
345.66	n/a	PROB	172830	n/a	LTP293	ltpFR2	22	n/a	n/a	n/a	3	11	3	7	1
346.662	n/a	PROB	173331	n/a	LTP293	ltpFR2	22	n/a	n/a	n/a	3	16	2	6	8
348.08	n/a	PROB	174040	n/a	LTP293	ltpFR2	22	n/a	n/a	n/a	3	16	3	9	4
350.68	n/a	PROB	175340	n/a	LTP293	ltpFR2	22	n/a	n/a	n/a	3	22	6	7	9
352.18	n/a	PROB	176090	n/a	LTP293	ltpFR2	22	n/a	n/a	n/a	3	16	9	4	3
353.398	n/a	PROB	176699	n/a	LTP293	ltpFR2	22	n/a	n/a	n/a	3	20	5	9	6
354.532	n/a	PROB	177266	n/a	LTP293	ltpFR2	22	n/a	n/a	n/a	3	17	8	2	7
355.836	n/a	PROB	177918	n/a	LTP293	ltpFR2	22	n/a	n/a	n/a	3	20	6	8	6
357.204	n/a	PROB	178602	n/a	LTP293	ltpFR2	22	n/a	n/a	n/a	3	12	4	4	4
358.338	n/a	PROB	179169	n/a	LTP293	ltpFR2	22	n/a	n/a	n/a	3	13	2	7	2
359.824	n/a	PROB	179912	n/a	LTP293	ltpFR2	22	n/a	n/a	n/a	3	11	3	7	1
360.74	n/a	PROB	180370	n/a	LTP293	ltpFR2	22	n/a	n/a	n/a	3	11	2	6	3
362.14	n/a	PROB	181070	n/a	LTP293	ltpFR2	22	n/a	n/a	n/a	3	11	4	3	4
363.306	n/a	PROB	181653	n/a	LTP293	ltpFR2	22	n/a	n/a	n/a	3	10	1	8	1
364.258	n/a	PROB	182129	n/a	LTP293	ltpFR2	22	n/a	n/a	n/a	3	19	7	3	9
365.182	n/a	STOP	182591	n/a	LTP293	ltpFR2	22	n/a	n/a	n/a	3	n/a	n/a	n/a	n/a
367.66	n/a	REC_START	183830	n/a	LTP293	ltpFR2	22	2	n/a	n/a	n/a	n/a	0	0	0
368.588	n/a	REC_WORD	184294	wordpools/wasnorm_wordpool_576.txt	LTP293	ltpFR2	22	2	COBRA	336	n/a	n/a	0	0	0
370.156	n/a	REC_WORD	185078	wordpools/wasnorm_wordpool_576.txt	LTP293	ltpFR2	22	2	OUTDOORS	987	n/a	n/a	0	0	0
373.844	n/a	REC_WORD	186922	wordpools/wasnorm_wordpool_576.txt	LTP293	ltpFR2	22	2	ORCHID	982	n/a	n/a	0	0	0
374.9	n/a	REC_WORD	187450	wordpools/wasnorm_wordpool_576.txt	LTP293	ltpFR2	22	2	SALAD	1224	n/a	n/a	0	0	0
375.94	n/a	REC_WORD	187970	wordpools/wasnorm_wordpool_576.txt	LTP293	ltpFR2	22	2	LETTUCE	814	n/a	n/a	0	0	0
377.574	n/a	REC_WORD	188787	wordpools/wasnorm_wordpool_576.txt	LTP293	ltpFR2	22	2	TURKEY	1520	n/a	n/a	0	0	0
380.414	n/a	REC_WORD	190207	wordpools/wasnorm_wordpool_576.txt	LTP293	ltpFR2	22	2	LAGOON	795	n/a	n/a	0	0	0
381.454	n/a	REC_WORD	190727	wordpools/wasnorm_wordpool_576.txt	LTP293	ltpFR2	22	2	GARDEN	623	n/a	n/a	0	0	0
382.444	n/a	REC_WORD_VV	191222	wordpools/wasnorm_wordpool_576.txt	LTP293	ltpFR2	22	2	<>	-1	n/a	n/a	0	0	0
384.082	n/a	REC_WORD	192041	wordpools/wasnorm_wordpool_576.txt	LTP293	ltpFR2	22	2	PORTRAIT	1111	n/a	n/a	0	0	0
385.534	n/a	REC_WORD	192767	wordpools/wasnorm_wordpool_576.txt	LTP293	ltpFR2	22	2	PICTURE	1061	n/a	n/a	0	0	0
386.778	n/a	REC_WORD	193389	wordpools/wasnorm_wordpool_576.txt	LTP293	ltpFR2	22	2	SCRIBBLE	1256	n/a	n/a	0	0	0
399.624	n/a	REC_WORD	199812	wordpools/wasnorm_wordpool_576.txt	LTP293	ltpFR2	22	2	SNAIL	1332	n/a	n/a	0	0	0
458.094	n/a	WORD	229047	wordpools/wasnorm_wordpool_576.txt	LTP293	ltpFR2	22	3	PEPPER	1047	n/a	n/a	0	0	0
460.848	n/a	WORD	230424	wordpools/wasnorm_wordpool_576.txt	LTP293	ltpFR2	22	3	TURNIP	1521	n/a	n/a	0	0	0
463.416	n/a	WORD	231708	wordpools/wasnorm_wordpool_576.txt	LTP293	ltpFR2	22	3	STICKER	1382	n/a	n/a	0	0	0
465.886	n/a	WORD	232943	wordpools/wasnorm_wordpool_576.txt	LTP293	ltpFR2	22	3	DOLPHIN	483	n/a	n/a	0	0	0
468.47	n/a	WORD	234235	wordpools/wasnorm_wordpool_576.txt	LTP293	ltpFR2	22	3	DANDRUFF	439	n/a	n/a	0	0	0
470.89	n/a	WORD	235445	wordpools/wasnorm_wordpool_576.txt	LTP293	ltpFR2	22	3	VALVE	1546	n/a	n/a	0	0	0
473.558	n/a	WORD	236779	wordpools/wasnorm_wordpool_576.txt	LTP293	ltpFR2	22	3	BURGLAR	200	n/a	n/a	0	0	0
475.98	n/a	WORD	237990	wordpools/wasnorm_wordpool_576.txt	LTP293	ltpFR2	22	3	MAMMAL	861	n/a	n/a	0	0	0
478.78	n/a	WORD	239390	wordpools/wasnorm_wordpool_576.txt	LTP293	ltpFR2	22	3	STALLION	1369	n/a	n/a	0	0	0
481.348	n/a	WORD	240674	wordpools/wasnorm_wordpool_576.txt	LTP293	ltpFR2	22	3	QUEEN	1149	n/a	n/a	0	0	0
484.0	n/a	WORD	242000	wordpools/wasnorm_wordpool_576.txt	LTP293	ltpFR2	22	3	IGLOO	734	n/a	n/a	0	0	0
486.738	n/a	WORD	243369	wordpools/wasnorm_wordpool_576.txt	LTP293	ltpFR2	22	3	STATUE	1374	n/a	n/a	0	0	0
489.504	n/a	WORD	244752	wordpools/wasnorm_wordpool_576.txt	LTP293	ltpFR2	22	3	IDOL	733	n/a	n/a	0	0	0
492.122	n/a	WORD	246061	wordpools/wasnorm_wordpool_576.txt	LTP293	ltpFR2	22	3	PLASTER	1085	n/a	n/a	0	0	0
494.642	n/a	WORD	247321	wordpools/wasnorm_wordpool_576.txt	LTP293	ltpFR2	22	3	SUNSET	1408	n/a	n/a	0	0	0
497.21	n/a	WORD	248605	wordpools/wasnorm_wordpool_576.txt	LTP293	ltpFR2	22	3	VIRUS	1572	n/a	n/a	0	0	0
499.814	n/a	WORD	249907	wordpools/wasnorm_wordpool_576.txt	LTP293	ltpFR2	22	3	PRINCESS	1125	n/a	n/a	0	0	0
502.616	n/a	WORD	251308	wordpools/wasnorm_wordpool_576.txt	LTP293	ltpFR2	22	3	SPHINX	1349	n/a	n/a	0	0	0
505.386	n/a	WORD	252693	wordpools/wasnorm_wordpool_576.txt	LTP293	ltpFR2	22	3	MARROW	872	n/a	n/a	0	0	0
507.97	n/a	WORD	253985	wordpools/wasnorm_wordpool_576.txt	LTP293	ltpFR2	22	3	KIDNEY	776	n/a	n/a	0	0	0
510.774	n/a	WORD	255387	wordpools/wasnorm_wordpool_576.txt	LTP293	ltpFR2	22	3	JUNGLE	764	n/a	n/a	0	0	0
513.442	n/a	WORD	256721	wordpools/wasnorm_wordpool_576.txt	LTP293	ltpFR2	22	3	PRIMATE	1123	n/a	n/a	0	0	0
516.126	n/a	WORD	258063	wordpools/wasnorm_wordpool_576.txt	LTP293	ltpFR2	22	3	CONVICT	371	n/a	n/a	0	0	0
518.596	n/a	WORD	259298	wordpools/wasnorm_wordpool_576.txt	LTP293	ltpFR2	22	3	CRUTCH	417	n/a	n/a	0	0	0
520.214	n/a	START	260107	n/a	LTP293	ltpFR2	22	n/a	n/a	n/a	4	n/a	n/a	n/a	n/a
521.154	n/a	DISTRACTOR	260577	n/a	LTP293	ltpFR2	22	3	n/a	n/a	n/a	n/a	0	0	0
521.164	n/a	PROB	260582	n/a	LTP293	ltpFR2	22	n/a	n/a	n/a	4	12	2	3	7
522.466	n/a	PROB	261233	n/a	LTP293	ltpFR2	22	n/a	n/a	n/a	4	9	6	1	2
523.866	n/a	PROB	261933	n/a	LTP293	ltpFR2	22	n/a	n/a	n/a	4	12	2	3	7
525.252	n/a	PROB	262626	n/a	LTP293	ltpFR2	22	n/a	n/a	n/a	4	12	3	4	5
526.504	n/a	PROB	263252	n/a	LTP293	ltpFR2	22	n/a	n/a	n/a	4	15	6	1	8
527.804	n/a	PROB	263902	n/a	LTP293	ltpFR2	22	n/a	n/a	n/a	4	18	5	9	4
528.87	n/a	PROB	264435	n/a	LTP293	ltpFR2	22	n/a	n/a	n/a	4	13	6	1	6
530.038	n/a	PROB	265019	n/a	LTP293	ltpFR2	22	n/a	n/a	n/a	4	18	7	9	2
531.072	n/a	PROB	265536	n/a	LTP293	ltpFR2	22	n/a	n/a	n/a	4	10	6	2	2
532.074	n/a	PROB	266037	n/a	LTP293	ltpFR2	22	n/a	n/a	n/a	4	14	5	5	4
533.056	n/a	PROB	266528	n/a	LTP293	ltpFR2	22	n/a	n/a	n/a	4	8	3	4	1
534.006	n/a	PROB	267003	n/a	LTP293	ltpFR2	22	n/a	n/a	n/a	4	19	7	7	5
537.294	n/a	PROB	268647	n/a	LTP293	ltpFR2	22	n/a	n/a	n/a	4	9	3	5	1
538.71	n/a	PROB	269355	n/a	LTP293	ltpFR2	22	n/a	n/a	n/a	4	17	5	3	9
539.83	n/a	PROB	269915	n/a	LTP293	ltpFR2	22	n/a	n/a	n/a	4	17	5	7	5
540.898	n/a	PROB	270449	n/a	LTP293	ltpFR2	22	n/a	n/a	n/a	4	12	7	3	2
542.046	n/a	PROB	271023	n/a	LTP293	ltpFR2	22	n/a	n/a	n/a	4	11	1	1	9
543.37	n/a	STOP	271685	n/a	LTP293	ltpFR2	22	n/a	n/a	n/a	4	n/a	n/a	n/a	n/a
546.016	n/a	REC_START	273008	n/a	LTP293	ltpFR2	22	3	n/a	n/a	n/a	n/a	0	0	0
546.512	n/a	REC_WORD	273256	wordpools/wasnorm_wordpool_576.txt	LTP293	ltpFR2	22	3	CONVICT	371	n/a	n/a	0	0	0
547.622	n/a	REC_WORD	273811	wordpools/wasnorm_wordpool_576.txt	LTP293	ltpFR2	22	3	CRUTCH	417	n/a	n/a	0	0	0
548.758	n/a	REC_WORD	274379	wordpools/wasnorm_wordpool_576.txt	LTP293	ltpFR2	22	3	IGLOO	734	n/a	n/a	0	0	0
550.34	n/a	REC_WORD	275170	wordpools/wasnorm_wordpool_576.txt	LTP293	ltpFR2	22	3	JUNGLE	764	n/a	n/a	0	0	0
551.528	n/a	REC_WORD	275764	wordpools/wasnorm_wordpool_576.txt	LTP293	ltpFR2	22	3	PRIMATE	1123	n/a	n/a	0	0	0
554.332	n/a	REC_WORD	277166	wordpools/wasnorm_wordpool_576.txt	LTP293	ltpFR2	22	3	PEPPER	1047	n/a	n/a	0	0	0
555.868	n/a	REC_WORD	277934	wordpools/wasnorm_wordpool_576.txt	LTP293	ltpFR2	22	3	PRINCESS	1125	n/a	n/a	0	0	0
557.258	n/a	REC_WORD	278629	wordpools/wasnorm_wordpool_576.txt	LTP293	ltpFR2	22	3	QUEEN	1149	n/a	n/a	0	0	0
558.508	n/a	REC_WORD	279254	wordpools/wasnorm_wordpool_576.txt	LTP293	ltpFR2	22	3	VIRUS	1572	n/a	n/a	0	0	0
560.964	n/a	REC_WORD	280482	wordpools/wasnorm_wordpool_576.txt	LTP293	ltpFR2	22	3	TURNIP	1521	n/a	n/a	0	0	0
562.066	n/a	REC_WORD	281033	wordpools/wasnorm_wordpool_576.txt	LTP293	ltpFR2	22	3	STICKER	1382	n/a	n/a	0	0	0
566.272	n/a	REC_WORD	283136	wordpools/wasnorm_wordpool_576.txt	LTP293	ltpFR2	22	3	STATUE	1374	n/a	n/a	0	0	0
567.548	n/a	REC_WORD	283774	wordpools/wasnorm_wordpool_576.txt	LTP293	ltpFR2	22	3	IDOL	733	n/a	n/a	0	0	0
610.914	n/a	REC_WORD	305457	wordpools/wasnorm_wordpool_576.txt	LTP293	ltpFR2	22	3	SPHINX	1349	n/a	n/a	0	0	0
612.268	n/a	REC_WORD	306134	wordpools/wasnorm_wordpool_576.txt	LTP293	ltpFR2	22	3	MAMMAL	861	n/a	n/a	0	0	0
613.324	n/a	REC_WORD	306662	wordpools/wasnorm_wordpool_576.txt	LTP293	ltpFR2	22	3	DOLPHIN	483	n/a	n/a	0	0	0
615.106	n/a	REC_WORD	307553	wordpools/wasnorm_wordpool_576.txt	LTP293	ltpFR2	22	3	BURGLAR	200	n/a	n/a	0	0	0
636.438	n/a	DISTRACTOR	318219	n/a	LTP293	ltpFR2	22	4	n/a	n/a	n/a	n/a	0	0	0
636.438	n/a	START	318219	n/a	LTP293	ltpFR2	22	n/a	n/a	n/a	5	n/a	n/a	n/a	n/a
636.454	n/a	PROB	318227	n/a	LTP293	ltpFR2	22	n/a	n/a	n/a	5	18	4	6	8
637.406	n/a	PROB	318703	n/a	LTP293	ltpFR2	22	n/a	n/a	n/a	5	6	4	1	1
638.406	n/a	PROB	319203	n/a	LTP293	ltpFR2	22	n/a	n/a	n/a	5	9	3	2	4
639.756	n/a	PROB	319878	n/a	LTP293	ltpFR2	22	n/a	n/a	n/a	5	15	9	5	1
640.774	n/a	PROB	320387	n/a	LTP293	ltpFR2	22	n/a	n/a	n/a	5	20	5	9	6
641.86	n/a	PROB	320930	n/a	LTP293	ltpFR2	22	n/a	n/a	n/a	5	8	5	2	1
642.858	n/a	PROB	321429	n/a	LTP293	ltpFR2	22	n/a	n/a	n/a	5	20	4	7	9
643.81	n/a	PROB	321905	n/a	LTP293	ltpFR2	22	n/a	n/a	n/a	5	4	1	2	1
644.728	n/a	PROB	322364	n/a	LTP293	ltpFR2	22	n/a	n/a	n/a	5	16	7	6	3
645.928	n/a	PROB	322964	n/a	LTP293	ltpFR2	22	n/a	n/a	n/a	5	16	8	2	6
646.83	n/a	PROB	323415	n/a	LTP293	ltpFR2	22	n/a	n/a	n/a	5	9	4	4	1
647.712	n/a	PROB	323856	n/a	LTP293	ltpFR2	22	n/a	n/a	n/a	5	19	8	8	3
649.014	n/a	PROB	324507	n/a	LTP293	ltpFR2	22	n/a	n/a	n/a	5	15	7	4	4
650.116	n/a	PROB	325058	n/a	LTP293	ltpFR2	22	n/a	n/a	n/a	5	4	1	2	1
650.982	n/a	PROB	325491	n/a	LTP293	ltpFR2	22	n/a	n/a	n/a	5	7	1	1	5
652.034	n/a	PROB	326017	n/a	LTP293	ltpFR2	22	n/a	n/a	n/a	5	7	4	1	2
653.116	n/a	PROB	326558	n/a	LTP293	ltpFR2	22	n/a	n/a	n/a	5	15	2	9	4
654.184	n/a	PROB	327092	n/a	LTP293	ltpFR2	22	n/a	n/a	n/a	5	13	5	4	4
655.554	n/a	PROB	327777	n/a	LTP293	ltpFR2	22	n/a	n/a	n/a	5	19	7	6	6
656.736	n/a	PROB	328368	n/a	LTP293	ltpFR2	22	n/a	n/a	n/a	5	13	5	4	4
658.22	n/a	PROB	329110	n/a	LTP293	ltpFR2	22	n/a	n/a	n/a	5	7	1	4	2
659.876	n/a	STOP	329938	n/a	LTP293	ltpFR2	22	n/a	n/a	n/a	5	n/a	n/a	n/a	n/a
661.368	n/a	WORD	330684	wordpools/wasnorm_wordpool_576.txt	LTP293	ltpFR2	22	4	ROCKET	1202	n/a	n/a	0	0	0
664.02	n/a	WORD	332010	wordpools/wasnorm_wordpool_576.txt	LTP293	ltpFR2	22	4	LOFT	840	n/a	n/a	0	0	0
666.704	n/a	WORD	333352	wordpools/wasnorm_wordpool_576.txt	LTP293	ltpFR2	22	4	HARP	689	n/a	n/a	0	0	0
669.358	n/a	WORD	334679	wordpools/wasnorm_wordpool_576.txt	LTP293	ltpFR2	22	4	CAPTIVE	240	n/a	n/a	0	0	0
671.916	n/a	WORD	335958	wordpools/wasnorm_wordpool_576.txt	LTP293	ltpFR2	22	4	MARS	873	n/a	n/a	0	0	0
674.528	n/a	WORD	337264	wordpools/wasnorm_wordpool_576.txt	LTP293	ltpFR2	22	4	ROBBER	1197	n/a	n/a	0	0	0
677.248	n/a	WORD	338624	wordpools/wasnorm_wordpool_576.txt	LTP293	ltpFR2	22	4	COTTAGE	384	n/a	n/a	0	0	0
679.682	n/a	WORD	339841	wordpools/wasnorm_wordpool_576.txt	LTP293	ltpFR2	22	4	DORM	488	n/a	n/a	0	0	0
682.234	n/a	WORD	341117	wordpools/wasnorm_wordpool_576.txt	LTP293	ltpFR2	22	4	HOOD	714	n/a	n/a	0	0	0
684.838	n/a	WORD	342419	wordpools/wasnorm_wordpool_576.txt	LTP293	ltpFR2	22	4	HELMET	702	n/a	n/a	0	0	0
687.64	n/a	WORD	343820	wordpools/wasnorm_wordpool_576.txt	LTP293	ltpFR2	22	4	CHEMIST	292	n/a	n/a	0	0	0
690.276	n/a	WORD	345138	wordpools/wasnorm_wordpool_576.txt	LTP293	ltpFR2	22	4	BEAKER	104	n/a	n/a	0	0	0
692.71	n/a	WORD	346355	wordpools/wasnorm_wordpool_576.txt	LTP293	ltpFR2	22	4	PEACH	1031	n/a	n/a	0	0	0
695.396	n/a	WORD	347698	wordpools/wasnorm_wordpool_576.txt	LTP293	ltpFR2	22	4	LEG	809	n/a	n/a	0	0	0
698.148	n/a	WORD	349074	wordpools/wasnorm_wordpool_576.txt	LTP293	ltpFR2	22	4	GRILL	661	n/a	n/a	0	0	0
700.934	n/a	WORD	350467	wordpools/wasnorm_wordpool_576.txt	LTP293	ltpFR2	22	4	BRANCH	168	n/a	n/a	0	0	0
703.52	n/a	WORD	351760	wordpools/wasnorm_wordpool_576.txt	LTP293	ltpFR2	22	4	TOASTER	1472	n/a	n/a	0	0	0
706.026	n/a	WORD	353013	wordpools/wasnorm_wordpool_576.txt	LTP293	ltpFR2	22	4	DIME	466	n/a	n/a	0	0	0
708.508	n/a	WORD	354254	wordpools/wasnorm_wordpool_576.txt	LTP293	ltpFR2	22	4	MASK	876	n/a	n/a	0	0	0
711.194	n/a	WORD	355597	wordpools/wasnorm_wordpool_576.txt	LTP293	ltpFR2	22	4	POPCORN	1104	n/a	n/a	0	0	0
713.846	n/a	WORD	356923	wordpools/wasnorm_wordpool_576.txt	LTP293	ltpFR2	22	4	BINDER	127	n/a	n/a	0	0	0
716.53	n/a	WORD	358265	wordpools/wasnorm_wordpool_576.txt	LTP293	ltpFR2	22	4	ORANGE	980	n/a	n/a	0	0	0
719.066	n/a	WORD	359533	wordpools/wasnorm_wordpool_576.txt	LTP293	ltpFR2	22	4	TOMBSTONE	1478	n/a	n/a	0	0	0
721.636	n/a	WORD	360818	wordpools/wasnorm_wordpool_576.txt	LTP293	ltpFR2	22	4	PADDING	999	n/a	n/a	0	0	0
723.24	n/a	START	361620	n/a	LTP293	ltpFR2	22	n/a	n/a	n/a	6	n/a	n/a	n/a	n/a
724.344	n/a	DISTRACTOR	362172	n/a	LTP293	ltpFR2	22	4	n/a	n/a	n/a	n/a	0	0	0
724.354	n/a	PROB	362177	n/a	LTP293	ltpFR2	22	n/a	n/a	n/a	6	11	1	7	3
725.438	n/a	PROB	362719	n/a	LTP293	ltpFR2	22	n/a	n/a	n/a	6	11	1	4	6
726.306	n/a	PROB	363153	n/a	LTP293	ltpFR2	22	n/a	n/a	n/a	6	13	5	4	4
727.588	n/a	PROB	363794	n/a	LTP293	ltpFR2	22	n/a	n/a	n/a	6	5	2	2	1
728.39	n/a	PROB	364195	n/a	LTP293	ltpFR2	22	n/a	n/a	n/a	6	13	3	6	4
729.476	n/a	PROB	364738	n/a	LTP293	ltpFR2	22	n/a	n/a	n/a	6	6	1	1	4
730.342	n/a	PROB	365171	n/a	LTP293	ltpFR2	22	n/a	n/a	n/a	6	17	7	4	6
731.426	n/a	PROB	365713	n/a	LTP293	ltpFR2	22	n/a	n/a	n/a	6	22	6	8	8
732.66	n/a	PROB	366330	n/a	LTP293	ltpFR2	22	n/a	n/a	n/a	6	18	4	6	8
733.576	n/a	PROB	366788	n/a	LTP293	ltpFR2	22	n/a	n/a	n/a	6	8	1	2	5
734.544	n/a	PROB	367272	n/a	LTP293	ltpFR2	22	n/a	n/a	n/a	6	8	4	2	2
735.462	n/a	PROB	367731	n/a	LTP293	ltpFR2	22	n/a	n/a	n/a	6	12	3	6	3
736.466	n/a	PROB	368233	n/a	LTP293	ltpFR2	22	n/a	n/a	n/a	6	19	7	6	6
737.498	n/a	PROB	368749	n/a	LTP293	ltpFR2	22	n/a	n/a	n/a	6	10	3	3	4
738.752	n/a	PROB	369376	n/a	LTP293	ltpFR2	22	n/a	n/a	n/a	6	24	7	9	8
739.834	n/a	PROB	369917	n/a	LTP293	ltpFR2	22	n/a	n/a	n/a	6	19	7	3	9
740.738	n/a	PROB	370369	n/a	LTP293	ltpFR2	22	n/a	n/a	n/a	6	10	2	6	2
742.188	n/a	PROB	371094	n/a	LTP293	ltpFR2	22	n/a	n/a	n/a	6	10	4	1	5
743.188	n/a	PROB	371594	n/a	LTP293	ltpFR2	22	n/a	n/a	n/a	6	14	7	3	4
744.656	n/a	PROB	372328	n/a	LTP293	ltpFR2	22	n/a	n/a	n/a	6	9	6	2	1
745.798	n/a	STOP	372899	n/a	LTP293	ltpFR2	22	n/a	n/a	n/a	6	n/a	n/a	n/a	n/a
749.11	n/a	REC_START	374555	n/a	LTP293	ltpFR2	22	4	n/a	n/a	n/a	n/a	0	0	0
749.51	n/a	REC_WORD	374755	wordpools/wasnorm_wordpool_576.txt	LTP293	ltpFR2	22	4	PADDING	999	n/a	n/a	0	0	0
750.574	n/a	REC_WORD	375287	wordpools/wasnorm_wordpool_576.txt	LTP293	ltpFR2	22	4	ORANGE	980	n/a	n/a	0	0	0
751.588	n/a	REC_WORD	375794	wordpools/wasnorm_wordpool_576.txt	LTP293	ltpFR2	22	4	LOFT	840	n/a	n/a	0	0	0
752.73	n/a	REC_WORD	376365	wordpools/wasnorm_wordpool_576.txt	LTP293	ltpFR2	22	4	DORM	488	n/a	n/a	0	0	0
754.322	n/a	REC_WORD	377161	wordpools/wasnorm_wordpool_576.txt	LTP293	ltpFR2	22	4	ORANGE	980	n/a	n/a	0	0	0
756.066	n/a	REC_WORD	378033	wordpools/wasnorm_wordpool_576.txt	LTP293	ltpFR2	22	4	HARP	689	n/a	n/a	0	0	0
758.056	n/a	REC_WORD	379028	wordpools/wasnorm_wordpool_576.txt	LTP293	ltpFR2	22	4	CAPTIVE	240	n/a	n/a	0	0	0
759.266	n/a	REC_WORD	379633	wordpools/wasnorm_wordpool_576.txt	LTP293	ltpFR2	22	4	LEG	809	n/a	n/a	0	0	0
767.7	n/a	REC_WORD	383850	wordpools/wasnorm_wordpool_576.txt	LTP293	ltpFR2	22	4	ROCKET	1202	n/a	n/a	0	0	0
817.488	n/a	REC_WORD	408744	wordpools/wasnorm_wordpool_576.txt	LTP293	ltpFR2	22	4	BINDER	127	n/a	n/a	0	0	0
839.53	n/a	DISTRACTOR	419765	n/a	LTP293	ltpFR2	22	5	n/a	n/a	n/a	n/a	0	0	0
839.53	n/a	START	419765	n/a	LTP293	ltpFR2	22	n/a	n/a	n/a	7	n/a	n/a	n/a	n/a
839.546	n/a	PROB	419773	n/a	LTP293	ltpFR2	22	n/a	n/a	n/a	7	15	7	3	5
840.712	n/a	PROB	420356	n/a	LTP293	ltpFR2	22	n/a	n/a	n/a	7	20	7	7	6
841.948	n/a	PROB	420974	n/a	LTP293	ltpFR2	22	n/a	n/a	n/a	7	5	1	3	1
842.866	n/a	PROB	421433	n/a	LTP293	ltpFR2	22	n/a	n/a	n/a	7	17	5	5	7
844.082	n/a	PROB	422041	n/a	LTP293	ltpFR2	22	n/a	n/a	n/a	7	7	2	3	2
845.168	n/a	PROB	422584	n/a	LTP293	ltpFR2	22	n/a	n/a	n/a	7	24	9	6	9
846.586	n/a	PROB	423293	n/a	LTP293	ltpFR2	22	n/a	n/a	n/a	7	18	7	2	9
848.602	n/a	PROB	424301	n/a	LTP293	ltpFR2	22	n/a	n/a	n/a	7	7	4	1	2
849.972	n/a	PROB	424986	n/a	LTP293	ltpFR2	22	n/a	n/a	n/a	7	18	8	2	8
851.322	n/a	PROB	425661	n/a	LTP293	ltpFR2	22	n/a	n/a	n/a	7	15	9	5	1
852.374	n/a	PROB	426187	n/a	LTP293	ltpFR2	22	n/a	n/a	n/a	7	17	8	4	5
853.674	n/a	PROB	426837	n/a	LTP293	ltpFR2	22	n/a	n/a	n/a	7	19	7	6	6
856.29	n/a	PROB	428145	n/a	LTP293	ltpFR2	22	n/a	n/a	n/a	7	15	7	7	1
857.308	n/a	PROB	428654	n/a	LTP293	ltpFR2	22	n/a	n/a	n/a	7	11	2	2	7
859.078	n/a	PROB	429539	n/a	LTP293	ltpFR2	22	n/a	n/a	n/a	7	14	5	8	1
860.312	n/a	PROB	430156	n/a	LTP293	ltpFR2	22	n/a	n/a	n/a	7	21	7	8	6
862.494	n/a	STOP	431247	n/a	LTP293	ltpFR2	22	n/a	n/a	n/a	7	n/a	n/a	n/a	n/a
864.606	n/a	WORD	432303	wordpools/wasnorm_wordpool_576.txt	LTP293	ltpFR2	22	5	ACTOR	5	n/a	n/a	0	0	0
867.076	n/a	WORD	433538	wordpools/wasnorm_wordpool_576.txt	LTP293	ltpFR2	22	5	WHISKERS	1605	n/a	n/a	0	0	0
869.856	n/a	WORD	434928	wordpools/wasnorm_wordpool_576.txt	LTP293	ltpFR2	22	5	PENGUIN	1044	n/a	n/a	0	0	0
872.312	n/a	WORD	436156	wordpools/wasnorm_wordpool_576.txt	LTP293	ltpFR2	22	5	COMET	353	n/a	n/a	0	0	0
875.108	n/a	WORD	437554	wordpools/wasnorm_wordpool_576.txt	LTP293	ltpFR2	22	5	HERO	706	n/a	n/a	0	0	0
877.77	n/a	WORD	438885	wordpools/wasnorm_wordpool_576.txt	LTP293	ltpFR2	22	5	MISSILE	900	n/a	n/a	0	0	0
880.554	n/a	WORD	440277	wordpools/wasnorm_wordpool_576.txt	LTP293	ltpFR2	22	5	ROOSTER	1209	n/a	n/a	0	0	0
883.122	n/a	WORD	441561	wordpools/wasnorm_wordpool_576.txt	LTP293	ltpFR2	22	5	TWEEZERS	1526	n/a	n/a	0	0	0
885.64	n/a	WORD	442820	wordpools/wasnorm_wordpool_576.txt	LTP293	ltpFR2	22	5	LEADER	807	n/a	n/a	0	0	0
888.252	n/a	WORD	444126	wordpools/wasnorm_wordpool_576.txt	LTP293	ltpFR2	22	5	BRICK	172	n/a	n/a	0	0	0
890.812	n/a	WORD	445406	wordpools/wasnorm_wordpool_576.txt	LTP293	ltpFR2	22	5	BULLET	194	n/a	n/a	0	0	0
893.332	n/a	WORD	446666	wordpools/wasnorm_wordpool_576.txt	LTP293	ltpFR2	22	5	COUCH	386	n/a	n/a	0	0	0
895.826	n/a	WORD	447913	wordpools/wasnorm_wordpool_576.txt	LTP293	ltpFR2	22	5	TABLE	1426	n/a	n/a	0	0	0
898.418	n/a	WORD	449209	wordpools/wasnorm_wordpool_576.txt	LTP293	ltpFR2	22	5	CLOTHES	327	n/a	n/a	0	0	0
901.228	n/a	WORD	450614	wordpools/wasnorm_wordpool_576.txt	LTP293	ltpFR2	22	5	PASTRY	1022	n/a	n/a	0	0	0
903.706	n/a	WORD	451853	wordpools/wasnorm_wordpool_576.txt	LTP293	ltpFR2	22	5	SHELTER	1282	n/a	n/a	0	0	0
906.298	n/a	WORD	453149	wordpools/wasnorm_wordpool_576.txt	LTP293	ltpFR2	22	5	BABY	64	n/a	n/a	0	0	0
909.084	n/a	WORD	454542	wordpools/wasnorm_wordpool_576.txt	LTP293	ltpFR2	22	5	FOREHEAD	592	n/a	n/a	0	0	0
911.512	n/a	WORD	455756	wordpools/wasnorm_wordpool_576.txt	LTP293	ltpFR2	22	5	SODA	1341	n/a	n/a	0	0	0
914.004	n/a	WORD	457002	wordpools/wasnorm_wordpool_576.txt	LTP293	ltpFR2	22	5	BARLEY	88	n/a	n/a	0	0	0
916.684	n/a	WORD	458342	wordpools/wasnorm_wordpool_576.txt	LTP293	ltpFR2	22	5	WORKER	1621	n/a	n/a	0	0	0
919.12	n/a	WORD	459560	wordpools/wasnorm_wordpool_576.txt	LTP293	ltpFR2	22	5	BADGE	68	n/a	n/a	0	0	0
921.678	n/a	WORD	460839	wordpools/wasnorm_wordpool_576.txt	LTP293	ltpFR2	22	5	GUARD	667	n/a	n/a	0	0	0
924.48	n/a	WORD	462240	wordpools/wasnorm_wordpool_576.txt	LTP293	ltpFR2	22	5	CHAUFFEUR	283	n/a	n/a	0	0	0
926.094	n/a	START	463047	n/a	LTP293	ltpFR2	22	n/a	n/a	n/a	8	n/a	n/a	n/a	n/a
927.17	n/a	DISTRACTOR	463585	n/a	LTP293	ltpFR2	22	5	n/a	n/a	n/a	n/a	0	0	0
927.176	n/a	PROB	463588	n/a	LTP293	ltpFR2	22	n/a	n/a	n/a	8	19	5	7	7
928.316	n/a	PROB	464158	n/a	LTP293	ltpFR2	22	n/a	n/a	n/a	8	18	8	9	1
929.282	n/a	PROB	464641	n/a	LTP293	ltpFR2	22	n/a	n/a	n/a	8	16	6	8	2
930.3	n/a	PROB	465150	n/a	LTP293	ltpFR2	22	n/a	n/a	n/a	8	9	1	6	2
931.602	n/a	PROB	465801	n/a	LTP293	ltpFR2	22	n/a	n/a	n/a	8	8	4	2	2
932.536	n/a	PROB	466268	n/a	LTP293	ltpFR2	22	n/a	n/a	n/a	8	12	6	3	3
933.838	n/a	PROB	466919	n/a	LTP293	ltpFR2	22	n/a	n/a	n/a	8	9	7	1	1
934.636	n/a	PROB	467318	n/a	LTP293	ltpFR2	22	n/a	n/a	n/a	8	18	7	9	2
935.806	n/a	PROB	467903	n/a	LTP293	ltpFR2	22	n/a	n/a	n/a	8	16	5	1	7
936.824	n/a	PROB	468412	n/a	LTP293	ltpFR2	22	n/a	n/a	n/a	8	1	3	8	5
938.924	n/a	PROB	469462	n/a	LTP293	ltpFR2	22	n/a	n/a	n/a	8	620	9	8	3
940.954	n/a	PROB	470477	n/a	LTP293	ltpFR2	22	n/a	n/a	n/a	8	18	5	4	9
941.894	n/a	PROB	470947	n/a	LTP293	ltpFR2	22	n/a	n/a	n/a	8	12	6	4	2
943.044	n/a	PROB	471522	n/a	LTP293	ltpFR2	22	n/a	n/a	n/a	8	10	6	2	2
944.562	n/a	PROB	472281	n/a	LTP293	ltpFR2	22	n/a	n/a	n/a	8	17	8	7	2
945.882	n/a	PROB	472941	n/a	LTP293	ltpFR2	22	n/a	n/a	n/a	8	19	3	8	8
947.844	n/a	PROB	473922	n/a	LTP293	ltpFR2	22	n/a	n/a	n/a	8	17	5	9	3
949.016	n/a	STOP	474508	n/a	LTP293	ltpFR2	22	n/a	n/a	n/a	8	n/a	n/a	n/a	n/a
951.966	n/a	REC_START	475983	n/a	LTP293	ltpFR2	22	5	n/a	n/a	n/a	n/a	0	0	0
952.508	n/a	REC_WORD	476254	wordpools/wasnorm_wordpool_576.txt	LTP293	ltpFR2	22	5	CHAUFFEUR	283	n/a	n/a	0	0	0
953.844	n/a	REC_WORD	476922	wordpools/wasnorm_wordpool_576.txt	LTP293	ltpFR2	22	5	ACTOR	5	n/a	n/a	0	0	0
954.926	n/a	REC_WORD	477463	wordpools/wasnorm_wordpool_576.txt	LTP293	ltpFR2	22	5	WORKER	1621	n/a	n/a	0	0	0
956.192	n/a	REC_WORD	478096	wordpools/wasnorm_wordpool_576.txt	LTP293	ltpFR2	22	5	TWEEZERS	1526	n/a	n/a	0	0	0
957.834	n/a	REC_WORD	478917	wordpools/wasnorm_wordpool_576.txt	LTP293	ltpFR2	22	5	COUCH	386	n/a	n/a	0	0	0
959.96	n/a	REC_WORD	479980	wordpools/wasnorm_wordpool_576.txt	LTP293	ltpFR2	22	5	BULLET	194	n/a	n/a	0	0	0
960.918	n/a	REC_WORD	480459	wordpools/wasnorm_wordpool_576.txt	LTP293	ltpFR2	22	5	MISSILE	900	n/a	n/a	0	0	0
967.882	n/a	REC_WORD	483941	wordpools/wasnorm_wordpool_576.txt	LTP293	ltpFR2	22	5	SHELTER	1282	n/a	n/a	0	0	0
1009.256	n/a	REC_WORD	504628	wordpools/wasnorm_wordpool_576.txt	LTP293	ltpFR2	22	5	FOREHEAD	592	n/a	n/a	0	0	0
1042.408	n/a	DISTRACTOR	521204	n/a	LTP293	ltpFR2	22	6	n/a	n/a	n/a	n/a	0	0	0
1042.408	n/a	START	521204	n/a	LTP293	ltpFR2	22	n/a	n/a	n/a	9	n/a	n/a	n/a	n/a
1042.42	n/a	PROB	521210	n/a	LTP293	ltpFR2	22	n/a	n/a	n/a	9	7	2	2	3
1043.872	n/a	PROB	521936	n/a	LTP293	ltpFR2	22	n/a	n/a	n/a	9	7	4	2	1
1044.89	n/a	PROB	522445	n/a	LTP293	ltpFR2	22	n/a	n/a	n/a	9	5	2	2	1
1045.874	n/a	PROB	522937	n/a	LTP293	ltpFR2	22	n/a	n/a	n/a	9	16	8	2	6
1046.942	n/a	PROB	523471	n/a	LTP293	ltpFR2	22	n/a	n/a	n/a	9	17	5	5	7
1047.974	n/a	PROB	523987	n/a	LTP293	ltpFR2	22	n/a	n/a	n/a	9	19	9	9	1
1048.974	n/a	PROB	524487	n/a	LTP293	ltpFR2	22	n/a	n/a	n/a	9	24	6	8	8
1050.56	n/a	PROB	525280	n/a	LTP293	ltpFR2	22	n/a	n/a	n/a	9	15	6	6	3
1053.146	n/a	PROB	526573	n/a	LTP293	ltpFR2	22	n/a	n/a	n/a	9	8	5	2	1
1054.08	n/a	PROB	527040	n/a	LTP293	ltpFR2	22	n/a	n/a	n/a	9	23	9	7	5
1055.598	n/a	PROB	527799	n/a	LTP293	ltpFR2	22	n/a	n/a	n/a	9	14	6	5	3
1056.834	n/a	PROB	528417	n/a	LTP293	ltpFR2	22	n/a	n/a	n/a	9	11	6	1	4
1058.384	n/a	PROB	529192	n/a	LTP293	ltpFR2	22	n/a	n/a	n/a	9	7	1	4	2
1059.434	n/a	PROB	529717	n/a	LTP293	ltpFR2	22	n/a	n/a	n/a	9	16	7	5	4
1061.736	n/a	PROB	530868	n/a	LTP293	ltpFR2	22	n/a	n/a	n/a	9	9	3	3	3
1062.654	n/a	PROB	531327	n/a	LTP293	ltpFR2	22	n/a	n/a	n/a	9	14	4	1	9
1064.89	n/a	PROB	532445	n/a	LTP293	ltpFR2	22	n/a	n/a	n/a	9	19	6	6	7
1065.994	n/a	STOP	532997	n/a	LTP293	ltpFR2	22	n/a	n/a	n/a	9	n/a	n/a	n/a	n/a
1067.392	n/a	WORD	533696	wordpools/wasnorm_wordpool_576.txt	LTP293	ltpFR2	22	6	KITCHEN	778	n/a	n/a	0	0	0
1069.944	n/a	WORD	534972	wordpools/wasnorm_wordpool_576.txt	LTP293	ltpFR2	22	6	NOMAD	955	n/a	n/a	0	0	0
1072.616	n/a	WORD	536308	wordpools/wasnorm_wordpool_576.txt	LTP293	ltpFR2	22	6	YACHT	1629	n/a	n/a	0	0	0
1075.398	n/a	WORD	537699	wordpools/wasnorm_wordpool_576.txt	LTP293	ltpFR2	22	6	MARINE	869	n/a	n/a	0	0	0
1078.016	n/a	WORD	539008	wordpools/wasnorm_wordpool_576.txt	LTP293	ltpFR2	22	6	CLAM	315	n/a	n/a	0	0	0
1080.67	n/a	WORD	540335	wordpools/wasnorm_wordpool_576.txt	LTP293	ltpFR2	22	6	PREACHER	1119	n/a	n/a	0	0	0
1083.158	n/a	WORD	541579	wordpools/wasnorm_wordpool_576.txt	LTP293	ltpFR2	22	6	TEMPLE	1448	n/a	n/a	0	0	0
1085.622	n/a	WORD	542811	wordpools/wasnorm_wordpool_576.txt	LTP293	ltpFR2	22	6	COLONEL	348	n/a	n/a	0	0	0
1088.29	n/a	WORD	544145	wordpools/wasnorm_wordpool_576.txt	LTP293	ltpFR2	22	6	SPIDER	1351	n/a	n/a	0	0	0
1090.992	n/a	WORD	545496	wordpools/wasnorm_wordpool_576.txt	LTP293	ltpFR2	22	6	ICEBERG	731	n/a	n/a	0	0	0
1093.802	n/a	WORD	546901	wordpools/wasnorm_wordpool_576.txt	LTP293	ltpFR2	22	6	CELLAR	267	n/a	n/a	0	0	0
1096.47	n/a	WORD	548235	wordpools/wasnorm_wordpool_576.txt	LTP293	ltpFR2	22	6	QUARTER	1148	n/a	n/a	0	0	0
1098.948	n/a	WORD	549474	wordpools/wasnorm_wordpool_576.txt	LTP293	ltpFR2	22	6	TRACTOR	1493	n/a	n/a	0	0	0
1101.674	n/a	WORD	550837	wordpools/wasnorm_wordpool_576.txt	LTP293	ltpFR2	22	6	CRAYON	401	n/a	n/a	0	0	0
1104.486	n/a	WORD	552243	wordpools/wasnorm_wordpool_576.txt	LTP293	ltpFR2	22	6	COURSE	390	n/a	n/a	0	0	0
1106.928	n/a	WORD	553464	wordpools/wasnorm_wordpool_576.txt	LTP293	ltpFR2	22	6	BLOUSE	139	n/a	n/a	0	0	0
1109.692	n/a	WORD	554846	wordpools/wasnorm_wordpool_576.txt	LTP293	ltpFR2	22	6	VALLEY	1545	n/a	n/a	0	0	0
1112.182	n/a	WORD	556091	wordpools/wasnorm_wordpool_576.txt	LTP293	ltpFR2	22	6	JAPAN	749	n/a	n/a	0	0	0
1114.952	n/a	WORD	557476	wordpools/wasnorm_wordpool_576.txt	LTP293	ltpFR2	22	6	PLIERS	1089	n/a	n/a	0	0	0
1117.74	n/a	WORD	558870	wordpools/wasnorm_wordpool_576.txt	LTP293	ltpFR2	22	6	COLLEGE	346	n/a	n/a	0	0	0
1120.39	n/a	WORD	560195	wordpools/wasnorm_wordpool_576.txt	LTP293	ltpFR2	22	6	TERMITE	1451	n/a	n/a	0	0	0
1122.968	n/a	WORD	561484	wordpools/wasnorm_wordpool_576.txt	LTP293	ltpFR2	22	6	BODY	145	n/a	n/a	0	0	0
1125.546	n/a	WORD	562773	wordpools/wasnorm_wordpool_576.txt	LTP293	ltpFR2	22	6	STOVE	1388	n/a	n/a	0	0	0
1128.316	n/a	WORD	564158	wordpools/wasnorm_wordpool_576.txt	LTP293	ltpFR2	22	6	PIGMENT	1066	n/a	n/a	0	0	0
1129.924	n/a	START	564962	n/a	LTP293	ltpFR2	22	n/a	n/a	n/a	10	n/a	n/a	n/a	n/a
1130.84	n/a	DISTRACTOR	565420	n/a	LTP293	ltpFR2	22	6	n/a	n/a	n/a	n/a	0	0	0
1130.85	n/a	PROB	565425	n/a	LTP293	ltpFR2	22	n/a	n/a	n/a	10	17	7	5	5
1131.99	n/a	PROB	565995	n/a	LTP293	ltpFR2	22	n/a	n/a	n/a	10	18	9	7	2
1133.058	n/a	PROB	566529	n/a	LTP293	ltpFR2	22	n/a	n/a	n/a	10	17	9	1	7
1134.26	n/a	PROB	567130	n/a	LTP293	ltpFR2	22	n/a	n/a	n/a	10	16	4	9	3
1135.292	n/a	PROB	567646	n/a	LTP293	ltpFR2	22	n/a	n/a	n/a	10	18	9	6	3
1136.328	n/a	PROB	568164	n/a	LTP293	ltpFR2	22	n/a	n/a	n/a	10	14	1	9	4
1137.328	n/a	PROB	568664	n/a	LTP293	ltpFR2	22	n/a	n/a	n/a	10	12	3	2	7
1138.882	n/a	PROB	569441	n/a	LTP293	ltpFR2	22	n/a	n/a	n/a	10	15	2	7	6
1140.496	n/a	PROB	570248	n/a	LTP293	ltpFR2	22	n/a	n/a	n/a	10	13	1	4	8
1141.914	n/a	PROB	570957	n/a	LTP293	ltpFR2	22	n/a	n/a	n/a	10	13	3	7	3
1143.95	n/a	PROB	571975	n/a	LTP293	ltpFR2	22	n/a	n/a	n/a	10	14	9	4	1
1145.0	n/a	PROB	572500	n/a	LTP293	ltpFR2	22	n/a	n/a	n/a	10	11	1	8	2
1146.036	n/a	PROB	573018	n/a	LTP293	ltpFR2	22	n/a	n/a	n/a	10	12	3	2	7
1147.368	n/a	PROB	573684	n/a	LTP293	ltpFR2	22	n/a	n/a	n/a	10	12	9	1	2
1149.02	n/a	PROB	574510	n/a	LTP293	ltpFR2	22	n/a	n/a	n/a	10	10	5	3	2
1150.806	n/a	PROB	575403	n/a	LTP293	ltpFR2	22	n/a	n/a	n/a	10	18	4	5	9
1151.79	n/a	PROB	575895	n/a	LTP293	ltpFR2	22	n/a	n/a	n/a	10	10	1	3	6
1153.172	n/a	STOP	576586	n/a	LTP293	ltpFR2	22	n/a	n/a	n/a	10	n/a	n/a	n/a	n/a
1155.828	n/a	REC_START	577914	n/a	LTP293	ltpFR2	22	6	n/a	n/a	n/a	n/a	0	0	0
1156.842	n/a	REC_WORD	578421	wordpools/wasnorm_wordpool_576.txt	LTP293	ltpFR2	22	6	YACHT	1629	n/a	n/a	0	0	0
1157.862	n/a	REC_WORD	578931	wordpools/wasnorm_wordpool_576.txt	LTP293	ltpFR2	22	6	COLONEL	348	n/a	n/a	0	0	0
1158.822	n/a	REC_WORD	579411	wordpools/wasnorm_wordpool_576.txt	LTP293	ltpFR2	22	6	MARINE	869	n/a	n/a	0	0	0
1160.502	n/a	REC_WORD	580251	wordpools/wasnorm_wordpool_576.txt	LTP293	ltpFR2	22	6	KITCHEN	778	n/a	n/a	0	0	0
1161.472	n/a	REC_WORD	580736	wordpools/wasnorm_wordpool_576.txt	LTP293	ltpFR2	22	6	BODY	145	n/a	n/a	0	0	0
1165.708	n/a	REC_WORD	582854	wordpools/wasnorm_wordpool_576.txt	LTP293	ltpFR2	22	6	CRAYON	401	n/a	n/a	0	0	0
1167.466	n/a	REC_WORD	583733	wordpools/wasnorm_wordpool_576.txt	LTP293	ltpFR2	22	6	TRACTOR	1493	n/a	n/a	0	0	0
1168.768	n/a	REC_WORD	584384	wordpools/wasnorm_wordpool_576.txt	LTP293	ltpFR2	22	6	STOVE	1388	n/a	n/a	0	0	0
1170.986	n/a	REC_WORD	585493	wordpools/wasnorm_wordpool_576.txt	LTP293	ltpFR2	22	6	CELLAR	267	n/a	n/a	0	0	0
1181.978	n/a	REC_WORD	590989	wordpools/wasnorm_wordpool_576.txt	LTP293	ltpFR2	22	6	ICEBERG	731	n/a	n/a	0	0	0
1183.654	n/a	REC_WORD	591827	wordpools/wasnorm_wordpool_576.txt	LTP293	ltpFR2	22	6	CLAM	315	n/a	n/a	0	0	0
1246.282	n/a	DISTRACTOR	623141	n/a	LTP293	ltpFR2	22	7	n/a	n/a	n/a	n/a	0	0	0
1246.282	n/a	START	623141	n/a	LTP293	ltpFR2	22	n/a	n/a	n/a	11	n/a	n/a	n/a	n/a
1246.296	n/a	PROB	623148	n/a	LTP293	ltpFR2	22	n/a	n/a	n/a	11	16	6	5	5
1247.782	n/a	PROB	623891	n/a	LTP293	ltpFR2	22	n/a	n/a	n/a	11	18	9	8	1
1249.232	n/a	PROB	624616	n/a	LTP293	ltpFR2	22	n/a	n/a	n/a	11	13	2	4	7
1251.05	n/a	PROB	625525	n/a	LTP293	ltpFR2	22	n/a	n/a	n/a	11	17	4	6	7
1252.402	n/a	PROB	626201	n/a	LTP293	ltpFR2	22	n/a	n/a	n/a	11	10	6	2	2
1253.452	n/a	PROB	626726	n/a	LTP293	ltpFR2	22	n/a	n/a	n/a	11	17	7	8	3
1254.602	n/a	PROB	627301	n/a	LTP293	ltpFR2	22	n/a	n/a	n/a	11	26	8	9	9
1257.304	n/a	PROB	628652	n/a	LTP293	ltpFR2	22	n/a	n/a	n/a	11	16	1	9	6
1258.406	n/a	PROB	629203	n/a	LTP293	ltpFR2	22	n/a	n/a	n/a	11	23	9	5	9
1259.674	n/a	PROB	629837	n/a	LTP293	ltpFR2	22	n/a	n/a	n/a	11	19	3	9	7
1260.776	n/a	PROB	630388	n/a	LTP293	ltpFR2	22	n/a	n/a	n/a	11	10	3	6	1
1261.91	n/a	PROB	630955	n/a	LTP293	ltpFR2	22	n/a	n/a	n/a	11	13	7	1	5
1263.044	n/a	PROB	631522	n/a	LTP293	ltpFR2	22	n/a	n/a	n/a	11	15	7	6	2
1264.528	n/a	PROB	632264	n/a	LTP293	ltpFR2	22	n/a	n/a	n/a	11	26	8	9	9
1265.662	n/a	PROB	632831	n/a	LTP293	ltpFR2	22	n/a	n/a	n/a	11	8	1	5	2
1267.396	n/a	PROB	633698	n/a	LTP293	ltpFR2	22	n/a	n/a	n/a	11	19	4	8	7
1269.158	n/a	STOP	634579	n/a	LTP293	ltpFR2	22	n/a	n/a	n/a	11	n/a	n/a	n/a	n/a
1271.336	n/a	WORD	635668	wordpools/wasnorm_wordpool_576.txt	LTP293	ltpFR2	22	7	QUAIL	1147	n/a	n/a	0	0	0
1274.002	n/a	WORD	637001	wordpools/wasnorm_wordpool_576.txt	LTP293	ltpFR2	22	7	PASSAGE	1019	n/a	n/a	0	0	0
1276.722	n/a	WORD	638361	wordpools/wasnorm_wordpool_576.txt	LTP293	ltpFR2	22	7	FINGER	567	n/a	n/a	0	0	0
1279.272	n/a	WORD	639636	wordpools/wasnorm_wordpool_576.txt	LTP293	ltpFR2	22	7	PERCH	1048	n/a	n/a	0	0	0
1281.974	n/a	WORD	640987	wordpools/wasnorm_wordpool_576.txt	LTP293	ltpFR2	22	7	HORSE	719	n/a	n/a	0	0	0
1284.662	n/a	WORD	642331	wordpools/wasnorm_wordpool_576.txt	LTP293	ltpFR2	22	7	SPACE	1345	n/a	n/a	0	0	0
1287.146	n/a	WORD	643573	wordpools/wasnorm_wordpool_576.txt	LTP293	ltpFR2	22	7	WORLD	1622	n/a	n/a	0	0	0
1289.714	n/a	WORD	644857	wordpools/wasnorm_wordpool_576.txt	LTP293	ltpFR2	22	7	GRAVE	658	n/a	n/a	0	0	0
1292.266	n/a	WORD	646133	wordpools/wasnorm_wordpool_576.txt	LTP293	ltpFR2	22	7	DINER	467	n/a	n/a	0	0	0
1294.918	n/a	WORD	647459	wordpools/wasnorm_wordpool_576.txt	LTP293	ltpFR2	22	7	SANDWICH	1232	n/a	n/a	0	0	0
1297.504	n/a	WORD	648752	wordpools/wasnorm_wordpool_576.txt	LTP293	ltpFR2	22	7	CUPBOARD	425	n/a	n/a	0	0	0
1300.29	n/a	WORD	650145	wordpools/wasnorm_wordpool_576.txt	LTP293	ltpFR2	22	7	MUFFIN	929	n/a	n/a	0	0	0
1302.864	n/a	WORD	651432	wordpools/wasnorm_wordpool_576.txt	LTP293	ltpFR2	22	7	HAWK	692	n/a	n/a	0	0	0
1305.56	n/a	WORD	652780	wordpools/wasnorm_wordpool_576.txt	LTP293	ltpFR2	22	7	TUBA	1515	n/a	n/a	0	0	0
1308.246	n/a	WORD	654123	wordpools/wasnorm_wordpool_576.txt	LTP293	ltpFR2	22	7	GIFT	635	n/a	n/a	0	0	0
1310.8	n/a	WORD	655400	wordpools/wasnorm_wordpool_576.txt	LTP293	ltpFR2	22	7	SOFTBALL	1343	n/a	n/a	0	0	0
1313.55	n/a	WORD	656775	wordpools/wasnorm_wordpool_576.txt	LTP293	ltpFR2	22	7	FRUIT	610	n/a	n/a	0	0	0
1316.174	n/a	WORD	658087	wordpools/wasnorm_wordpool_576.txt	LTP293	ltpFR2	22	7	COIN	343	n/a	n/a	0	0	0
1318.96	n/a	WORD	659480	wordpools/wasnorm_wordpool_576.txt	LTP293	ltpFR2	22	7	BOX	159	n/a	n/a	0	0	0
1321.69	n/a	WORD	660845	wordpools/wasnorm_wordpool_576.txt	LTP293	ltpFR2	22	7	SPARROW	1347	n/a	n/a	0	0	0
1324.198	n/a	WORD	662099	wordpools/wasnorm_wordpool_576.txt	LTP293	ltpFR2	22	7	SIDEWALK	1303	n/a	n/a	0	0	0
1326.682	n/a	WORD	663341	wordpools/wasnorm_wordpool_576.txt	LTP293	ltpFR2	22	7	KETCHUP	771	n/a	n/a	0	0	0
1329.468	n/a	WORD	664734	wordpools/wasnorm_wordpool_576.txt	LTP293	ltpFR2	22	7	MUSTARD	935	n/a	n/a	0	0	0
1332.07	n/a	WORD	666035	wordpools/wasnorm_wordpool_576.txt	LTP293	ltpFR2	22	7	EMPIRE	530	n/a	n/a	0	0	0
1333.682	n/a	START	666841	n/a	LTP293	ltpFR2	22	n/a	n/a	n/a	12	n/a	n/a	n/a	n/a
1334.758	n/a	DISTRACTOR	667379	n/a	LTP293	ltpFR2	22	7	n/a	n/a	n/a	n/a	0	0	0
1334.768	n/a	PROB	667384	n/a	LTP293	ltpFR2	22	n/a	n/a	n/a	12	22	8	5	9
1336.318	n/a	PROB	668159	n/a	LTP293	ltpFR2	22	n/a	n/a	n/a	12	15	3	5	7
1337.568	n/a	PROB	668784	n/a	LTP293	ltpFR2	22	n/a	n/a	n/a	12	13	2	6	5
1338.668	n/a	PROB	669334	n/a	LTP293	ltpFR2	22	n/a	n/a	n/a	12	13	1	9	3
1339.804	n/a	PROB	669902	n/a	LTP293	ltpFR2	22	n/a	n/a	n/a	12	12	2	8	2
1340.738	n/a	PROB	670369	n/a	LTP293	ltpFR2	22	n/a	n/a	n/a	12	9	2	5	1
1342.104	n/a	PROB	671052	n/a	LTP293	ltpFR2	22	n/a	n/a	n/a	12	18	7	7	4
1343.09	n/a	PROB	671545	n/a	LTP293	ltpFR2	22	n/a	n/a	n/a	12	11	9	1	1
1343.974	n/a	PROB	671987	n/a	LTP293	ltpFR2	22	n/a	n/a	n/a	12	18	9	1	8
1345.426	n/a	PROB	672713	n/a	LTP293	ltpFR2	22	n/a	n/a	n/a	12	14	6	1	7
1346.476	n/a	PROB	673238	n/a	LTP293	ltpFR2	22	n/a	n/a	n/a	12	12	2	1	9
1347.458	n/a	PROB	673729	n/a	LTP293	ltpFR2	22	n/a	n/a	n/a	12	18	6	4	8
1348.576	n/a	PROB	674288	n/a	LTP293	ltpFR2	22	n/a	n/a	n/a	12	18	3	7	8
1349.494	n/a	PROB	674747	n/a	LTP293	ltpFR2	22	n/a	n/a	n/a	12	9	1	4	4
1350.378	n/a	PROB	675189	n/a	LTP293	ltpFR2	22	n/a	n/a	n/a	12	14	5	3	6
1352.296	n/a	PROB	676148	n/a	LTP293	ltpFR2	22	n/a	n/a	n/a	12	22	9	6	7
1353.732	n/a	PROB	676866	n/a	LTP293	ltpFR2	22	n/a	n/a	n/a	12	10	5	3	2
1355.214	n/a	PROB	677607	n/a	LTP293	ltpFR2	22	n/a	n/a	n/a	12	12	3	5	4
1356.368	n/a	STOP	678184	n/a	LTP293	ltpFR2	22	n/a	n/a	n/a	12	n/a	n/a	n/a	n/a
1359.602	n/a	REC_START	679801	n/a	LTP293	ltpFR2	22	7	n/a	n/a	n/a	n/a	0	0	0
1360.006	n/a	REC_WORD	680003	wordpools/wasnorm_wordpool_576.txt	LTP293	ltpFR2	22	7	QUAIL	1147	n/a	n/a	0	0	0
1361.254	n/a	REC_WORD	680627	wordpools/wasnorm_wordpool_576.txt	LTP293	ltpFR2	22	7	WORLD	1622	n/a	n/a	0	0	0
1362.228	n/a	REC_WORD	681114	wordpools/wasnorm_wordpool_576.txt	LTP293	ltpFR2	22	7	SPACE	1345	n/a	n/a	0	0	0
1363.598	n/a	REC_WORD	681799	wordpools/wasnorm_wordpool_576.txt	LTP293	ltpFR2	22	7	FINGER	567	n/a	n/a	0	0	0
1364.91	n/a	REC_WORD	682455	wordpools/wasnorm_wordpool_576.txt	LTP293	ltpFR2	22	7	PERCH	1048	n/a	n/a	0	0	0
1366.696	n/a	REC_WORD	683348	wordpools/wasnorm_wordpool_576.txt	LTP293	ltpFR2	22	7	HAWK	692	n/a	n/a	0	0	0
1367.716	n/a	REC_WORD	683858	wordpools/wasnorm_wordpool_576.txt	LTP293	ltpFR2	22	7	SIDEWALK	1303	n/a	n/a	0	0	0
1369.556	n/a	REC_WORD	684778	wordpools/wasnorm_wordpool_576.txt	LTP293	ltpFR2	22	7	KETCHUP	771	n/a	n/a	0	0	0
1370.578	n/a	REC_WORD	685289	wordpools/wasnorm_wordpool_576.txt	LTP293	ltpFR2	22	7	MUSTARD	935	n/a	n/a	0	0	0
1372.67	n/a	REC_WORD	686335	wordpools/wasnorm_wordpool_576.txt	LTP293	ltpFR2	22	7	BOX	159	n/a	n/a	0	0	0
1373.77	n/a	REC_WORD	686885	wordpools/wasnorm_wordpool_576.txt	LTP293	ltpFR2	22	7	COIN	343	n/a	n/a	0	0	0
1375.8	n/a	REC_WORD	687900	wordpools/wasnorm_wordpool_576.txt	LTP293	ltpFR2	22	7	DINER	467	n/a	n/a	0	0	0
1377.034	n/a	REC_WORD	688517	wordpools/wasnorm_wordpool_576.txt	LTP293	ltpFR2	22	7	MUFFIN	929	n/a	n/a	0	0	0
1379.286	n/a	REC_WORD	689643	wordpools/wasnorm_wordpool_576.txt	LTP293	ltpFR2	22	7	SANDWICH	1232	n/a	n/a	0	0	0
1383.266	n/a	REC_WORD	691633	wordpools/wasnorm_wordpool_576.txt	LTP293	ltpFR2	22	7	GRAVE	658	n/a	n/a	0	0	0
1394.93	n/a	REC_WORD_VV	697465	wordpools/wasnorm_wordpool_576.txt	LTP293	ltpFR2	22	7	<>	-1	n/a	n/a	0	0	0
1432.556	n/a	REC_WORD	716278	wordpools/wasnorm_wordpool_576.txt	LTP293	ltpFR2	22	7	FRUIT	610	n/a	n/a	0	0	0
1450.038	n/a	WORD	725019	wordpools/wasnorm_wordpool_576.txt	LTP293	ltpFR2	22	8	NEUTRON	947	n/a	n/a	0	0	0
1452.842	n/a	WORD	726421	wordpools/wasnorm_wordpool_576.txt	LTP293	ltpFR2	22	8	CABIN	211	n/a	n/a	0	0	0
1455.558	n/a	WORD	727779	wordpools/wasnorm_wordpool_576.txt	LTP293	ltpFR2	22	8	PERMIT	1051	n/a	n/a	0	0	0
1458.128	n/a	WORD	729064	wordpools/wasnorm_wordpool_576.txt	LTP293	ltpFR2	22	8	FRAGRANCE	599	n/a	n/a	0	0	0
1460.614	n/a	WORD	730307	wordpools/wasnorm_wordpool_576.txt	LTP293	ltpFR2	22	8	WIDOW	1608	n/a	n/a	0	0	0
1463.432	n/a	WORD	731716	wordpools/wasnorm_wordpool_576.txt	LTP293	ltpFR2	22	8	COOK	372	n/a	n/a	0	0	0
1466.05	n/a	WORD	733025	wordpools/wasnorm_wordpool_576.txt	LTP293	ltpFR2	22	8	FOREST	593	n/a	n/a	0	0	0
1468.82	n/a	WORD	734410	wordpools/wasnorm_wordpool_576.txt	LTP293	ltpFR2	22	8	COCOON	339	n/a	n/a	0	0	0
1471.272	n/a	WORD	735636	wordpools/wasnorm_wordpool_576.txt	LTP293	ltpFR2	22	8	CRATER	400	n/a	n/a	0	0	0
1474.008	n/a	WORD	737004	wordpools/wasnorm_wordpool_576.txt	LTP293	ltpFR2	22	8	FEMALE	559	n/a	n/a	0	0	0
1476.542	n/a	WORD	738271	wordpools/wasnorm_wordpool_576.txt	LTP293	ltpFR2	22	8	LOVER	846	n/a	n/a	0	0	0
1479.162	n/a	WORD	739581	wordpools/wasnorm_wordpool_576.txt	LTP293	ltpFR2	22	8	WAITRESS	1581	n/a	n/a	0	0	0
1481.866	n/a	WORD	740933	wordpools/wasnorm_wordpool_576.txt	LTP293	ltpFR2	22	8	CANYON	235	n/a	n/a	0	0	0
1484.416	n/a	WORD	742208	wordpools/wasnorm_wordpool_576.txt	LTP293	ltpFR2	22	8	CROWN	415	n/a	n/a	0	0	0
1487.102	n/a	WORD	743551	wordpools/wasnorm_wordpool_576.txt	LTP293	ltpFR2	22	8	GARLIC	624	n/a	n/a	0	0	0
1489.536	n/a	WORD	744768	wordpools/wasnorm_wordpool_576.txt	LTP293	ltpFR2	22	8	BUGGY	188	n/a	n/a	0	0	0
1492.122	n/a	WORD	746061	wordpools/wasnorm_wordpool_576.txt	LTP293	ltpFR2	22	8	DONKEY	484	n/a	n/a	0	0	0
1494.542	n/a	WORD	747271	wordpools/wasnorm_wordpool_576.txt	LTP293	ltpFR2	22	8	KEEPER	769	n/a	n/a	0	0	0
1497.328	n/a	WORD	748664	wordpools/wasnorm_wordpool_576.txt	LTP293	ltpFR2	22	8	PERFUME	1049	n/a	n/a	0	0	0
1499.962	n/a	WORD	749981	wordpools/wasnorm_wordpool_576.txt	LTP293	ltpFR2	22	8	LUNCH	849	n/a	n/a	0	0	0
1502.432	n/a	WORD	751216	wordpools/wasnorm_wordpool_576.txt	LTP293	ltpFR2	22	8	LADDER	793	n/a	n/a	0	0	0
1505.032	n/a	WORD	752516	wordpools/wasnorm_wordpool_576.txt	LTP293	ltpFR2	22	8	ATOM	55	n/a	n/a	0	0	0
1507.822	n/a	WORD	753911	wordpools/wasnorm_wordpool_576.txt	LTP293	ltpFR2	22	8	PEANUT	1032	n/a	n/a	0	0	0
1510.404	n/a	WORD	755202	wordpools/wasnorm_wordpool_576.txt	LTP293	ltpFR2	22	8	CASHEW	253	n/a	n/a	0	0	0
1512.022	n/a	START	756011	n/a	LTP293	ltpFR2	22	n/a	n/a	n/a	13	n/a	n/a	n/a	n/a
1513.164	n/a	DISTRACTOR	756582	n/a	LTP293	ltpFR2	22	8	n/a	n/a	n/a	n/a	0	0	0
1513.172	n/a	PROB	756586	n/a	LTP293	ltpFR2	22	n/a	n/a	n/a	13	16	4	7	5
1514.688	n/a	PROB	757344	n/a	LTP293	ltpFR2	22	n/a	n/a	n/a	13	13	3	4	6
1516.624	n/a	PROB	758312	n/a	LTP293	ltpFR2	22	n/a	n/a	n/a	13	13	5	4	4
1517.958	n/a	PROB	758979	n/a	LTP293	ltpFR2	22	n/a	n/a	n/a	13	5	1	2	2
1518.992	n/a	PROB	759496	n/a	LTP293	ltpFR2	22	n/a	n/a	n/a	13	13	5	6	2
1520.56	n/a	PROB	760280	n/a	LTP293	ltpFR2	22	n/a	n/a	n/a	13	12	1	4	7
1521.546	n/a	PROB	760773	n/a	LTP293	ltpFR2	22	n/a	n/a	n/a	13	16	5	9	2
1522.83	n/a	PROB	761415	n/a	LTP293	ltpFR2	22	n/a	n/a	n/a	13	15	1	5	9
1523.764	n/a	PROB	761882	n/a	LTP293	ltpFR2	22	n/a	n/a	n/a	13	17	9	7	1
1525.264	n/a	PROB	762632	n/a	LTP293	ltpFR2	22	n/a	n/a	n/a	13	11	6	4	1
1526.866	n/a	PROB	763433	n/a	LTP293	ltpFR2	22	n/a	n/a	n/a	13	13	7	5	1
1529.468	n/a	PROB	764734	n/a	LTP293	ltpFR2	22	n/a	n/a	n/a	13	8	1	3	4
1530.452	n/a	PROB	765226	n/a	LTP293	ltpFR2	22	n/a	n/a	n/a	13	23	7	8	9
1532.07	n/a	PROB	766035	n/a	LTP293	ltpFR2	22	n/a	n/a	n/a	13	15	4	7	4
1533.104	n/a	PROB	766552	n/a	LTP293	ltpFR2	22	n/a	n/a	n/a	13	13	3	1	9
1534.138	n/a	PROB	767069	n/a	LTP293	ltpFR2	22	n/a	n/a	n/a	13	13	5	3	5
1535.196	n/a	STOP	767598	n/a	LTP293	ltpFR2	22	n/a	n/a	n/a	13	n/a	n/a	n/a	n/a
1537.81	n/a	REC_START	768905	n/a	LTP293	ltpFR2	22	8	n/a	n/a	n/a	n/a	0	0	0
1538.282	n/a	REC_WORD	769141	wordpools/wasnorm_wordpool_576.txt	LTP293	ltpFR2	22	8	ATOM	55	n/a	n/a	0	0	0
1539.2	n/a	REC_WORD	769600	wordpools/wasnorm_wordpool_576.txt	LTP293	ltpFR2	22	8	PEANUT	1032	n/a	n/a	0	0	0
1540.268	n/a	REC_WORD	770134	wordpools/wasnorm_wordpool_576.txt	LTP293	ltpFR2	22	8	NEUTRON	947	n/a	n/a	0	0	0
1541.358	n/a	REC_WORD	770679	wordpools/wasnorm_wordpool_576.txt	LTP293	ltpFR2	22	8	CABIN	211	n/a	n/a	0	0	0
1543.15	n/a	REC_WORD	771575	wordpools/wasnorm_wordpool_576.txt	LTP293	ltpFR2	22	8	LUNCH	849	n/a	n/a	0	0	0
1544.566	n/a	REC_WORD	772283	wordpools/wasnorm_wordpool_576.txt	LTP293	ltpFR2	22	8	LADDER	793	n/a	n/a	0	0	0
1545.55	n/a	REC_WORD	772775	wordpools/wasnorm_wordpool_576.txt	LTP293	ltpFR2	22	8	LOVER	846	n/a	n/a	0	0	0
1547.098	n/a	REC_WORD	773549	wordpools/wasnorm_wordpool_576.txt	LTP293	ltpFR2	22	8	KEEPER	769	n/a	n/a	0	0	0
1548.444	n/a	REC_WORD	774222	wordpools/wasnorm_wordpool_576.txt	LTP293	ltpFR2	22	8	FEMALE	559	n/a	n/a	0	0	0
1555.802	n/a	REC_WORD	777901	wordpools/wasnorm_wordpool_576.txt	LTP293	ltpFR2	22	8	COCOON	339	n/a	n/a	0	0	0
1557.914	n/a	REC_WORD	778957	wordpools/wasnorm_wordpool_576.txt	LTP293	ltpFR2	22	8	CANYON	235	n/a	n/a	0	0	0
1559.5	n/a	REC_WORD	779750	wordpools/wasnorm_wordpool_576.txt	LTP293	ltpFR2	22	8	DONKEY	484	n/a	n/a	0	0	0
1614.334	n/a	REST_REWET	807167	n/a	LTP293	ltpFR2	22	8	n/a	n/a	n/a	n/a	0	0	0
1803.014	n/a	WORD	901507	wordpools/wasnorm_wordpool_576.txt	LTP293	ltpFR2	22	9	POET	1095	n/a	n/a	0	0	0
1805.64	n/a	WORD	902820	wordpools/wasnorm_wordpool_576.txt	LTP293	ltpFR2	22	9	CHAPEL	280	n/a	n/a	0	0	0
1808.386	n/a	WORD	904193	wordpools/wasnorm_wordpool_576.txt	LTP293	ltpFR2	22	9	PUDDLE	1140	n/a	n/a	0	0	0
1810.894	n/a	WORD	905447	wordpools/wasnorm_wordpool_576.txt	LTP293	ltpFR2	22	9	SWIMMER	1420	n/a	n/a	0	0	0
1813.474	n/a	WORD	906737	wordpools/wasnorm_wordpool_576.txt	LTP293	ltpFR2	22	9	MARSH	874	n/a	n/a	0	0	0
1815.948	n/a	WORD	907974	wordpools/wasnorm_wordpool_576.txt	LTP293	ltpFR2	22	9	CAMEL	223	n/a	n/a	0	0	0
1818.594	n/a	WORD	909297	wordpools/wasnorm_wordpool_576.txt	LTP293	ltpFR2	22	9	HOUND	724	n/a	n/a	0	0	0
1821.38	n/a	WORD	910690	wordpools/wasnorm_wordpool_576.txt	LTP293	ltpFR2	22	9	COUSIN	392	n/a	n/a	0	0	0
1824.116	n/a	WORD	912058	wordpools/wasnorm_wordpool_576.txt	LTP293	ltpFR2	22	9	PAIL	1002	n/a	n/a	0	0	0
1826.884	n/a	WORD	913442	wordpools/wasnorm_wordpool_576.txt	LTP293	ltpFR2	22	9	ROD	1203	n/a	n/a	0	0	0
1829.486	n/a	WORD	914743	wordpools/wasnorm_wordpool_576.txt	LTP293	ltpFR2	22	9	BALLOON	75	n/a	n/a	0	0	0
1832.256	n/a	WORD	916128	wordpools/wasnorm_wordpool_576.txt	LTP293	ltpFR2	22	9	SUITCASE	1403	n/a	n/a	0	0	0
1835.024	n/a	WORD	917512	wordpools/wasnorm_wordpool_576.txt	LTP293	ltpFR2	22	9	BRIEFCASE	175	n/a	n/a	0	0	0
1837.466	n/a	WORD	918733	wordpools/wasnorm_wordpool_576.txt	LTP293	ltpFR2	22	9	JELLY	755	n/a	n/a	0	0	0
1840.128	n/a	WORD	920064	wordpools/wasnorm_wordpool_576.txt	LTP293	ltpFR2	22	9	DANCER	437	n/a	n/a	0	0	0
1842.88	n/a	WORD	921440	wordpools/wasnorm_wordpool_576.txt	LTP293	ltpFR2	22	9	SCOTCH	1251	n/a	n/a	0	0	0
1845.316	n/a	WORD	922658	wordpools/wasnorm_wordpool_576.txt	LTP293	ltpFR2	22	9	DIVER	476	n/a	n/a	0	0	0
1848.044	n/a	WORD	924022	wordpools/wasnorm_wordpool_576.txt	LTP293	ltpFR2	22	9	DRIVER	499	n/a	n/a	0	0	0
1850.612	n/a	WORD	925306	wordpools/wasnorm_wordpool_576.txt	LTP293	ltpFR2	22	9	MARKET	871	n/a	n/a	0	0	0
1853.396	n/a	WORD	926698	wordpools/wasnorm_wordpool_576.txt	LTP293	ltpFR2	22	9	CONCERT	360	n/a	n/a	0	0	0
1856.158	n/a	WORD	928079	wordpools/wasnorm_wordpool_576.txt	LTP293	ltpFR2	22	9	RECEIPT	1173	n/a	n/a	0	0	0
1858.736	n/a	WORD	929368	wordpools/wasnorm_wordpool_576.txt	LTP293	ltpFR2	22	9	RUG	1215	n/a	n/a	0	0	0
1861.438	n/a	WORD	930719	wordpools/wasnorm_wordpool_576.txt	LTP293	ltpFR2	22	9	PLAZA	1088	n/a	n/a	0	0	0
1864.048	n/a	WORD	932024	wordpools/wasnorm_wordpool_576.txt	LTP293	ltpFR2	22	9	SLIDE	1326	n/a	n/a	0	0	0
1865.658	n/a	START	932829	n/a	LTP293	ltpFR2	22	n/a	n/a	n/a	14	n/a	n/a	n/a	n/a
1866.826	n/a	DISTRACTOR	933413	n/a	LTP293	ltpFR2	22	9	n/a	n/a	n/a	n/a	0	0	0
1866.834	n/a	PROB	933417	n/a	LTP293	ltpFR2	22	n/a	n/a	n/a	14	13	3	5	5
1867.982	n/a	PROB	933991	n/a	LTP293	ltpFR2	22	n/a	n/a	n/a	14	12	8	3	1
1869.284	n/a	PROB	934642	n/a	LTP293	ltpFR2	22	n/a	n/a	n/a	14	21	7	5	9
1870.318	n/a	PROB	935159	n/a	LTP293	ltpFR2	22	n/a	n/a	n/a	14	14	7	6	1
1871.402	n/a	PROB	935701	n/a	LTP293	ltpFR2	22	n/a	n/a	n/a	14	12	6	2	4
1872.686	n/a	PROB	936343	n/a	LTP293	ltpFR2	22	n/a	n/a	n/a	14	14	6	1	7
1873.804	n/a	PROB	936902	n/a	LTP293	ltpFR2	22	n/a	n/a	n/a	14	10	4	3	3
1875.07	n/a	PROB	937535	n/a	LTP293	ltpFR2	22	n/a	n/a	n/a	14	8	1	4	3
1876.056	n/a	PROB	938028	n/a	LTP293	ltpFR2	22	n/a	n/a	n/a	14	6	2	3	1
1878.09	n/a	PROB	939045	n/a	LTP293	ltpFR2	22	n/a	n/a	n/a	14	22	7	6	9
1881.326	n/a	PROB	940663	n/a	LTP293	ltpFR2	22	n/a	n/a	n/a	14	10	1	7	2
1883.476	n/a	PROB	941738	n/a	LTP293	ltpFR2	22	n/a	n/a	n/a	14	25	8	8	9
1885.228	n/a	PROB	942614	n/a	LTP293	ltpFR2	22	n/a	n/a	n/a	14	15	7	4	4
1886.23	n/a	PROB	943115	n/a	LTP293	ltpFR2	22	n/a	n/a	n/a	14	4	1	2	1
1887.03	n/a	PROB	943515	n/a	LTP293	ltpFR2	22	n/a	n/a	n/a	14	12	8	1	3
1889.656	n/a	STOP	944828	n/a	LTP293	ltpFR2	22	n/a	n/a	n/a	14	n/a	n/a	n/a	n/a
1891.418	n/a	REC_START	945709	n/a	LTP293	ltpFR2	22	9	n/a	n/a	n/a	n/a	0	0	0
1892.008	n/a	REC_WORD	946004	wordpools/wasnorm_wordpool_576.txt	LTP293	ltpFR2	22	9	MARKET	871	n/a	n/a	0	0	0
1892.852	n/a	REC_WORD	946426	wordpools/wasnorm_wordpool_576.txt	LTP293	ltpFR2	22	9	PLAZA	1088	n/a	n/a	0	0	0
1893.948	n/a	REC_WORD	946974	wordpools/wasnorm_wordpool_576.txt	LTP293	ltpFR2	22	9	CONCERT	360	n/a	n/a	0	0	0
1895.032	n/a	REC_WORD	947516	wordpools/wasnorm_wordpool_576.txt	LTP293	ltpFR2	22	9	JELLY	755	n/a	n/a	0	0	0
1897.14	n/a	REC_WORD	948570	wordpools/wasnorm_wordpool_576.txt	LTP293	ltpFR2	22	9	MARSH	874	n/a	n/a	0	0	0
1898.256	n/a	REC_WORD	949128	wordpools/wasnorm_wordpool_576.txt	LTP293	ltpFR2	22	9	PUDDLE	1140	n/a	n/a	0	0	0
1899.282	n/a	REC_WORD	949641	wordpools/wasnorm_wordpool_576.txt	LTP293	ltpFR2	22	9	SWIMMER	1420	n/a	n/a	0	0	0
1901.146	n/a	REC_WORD	950573	wordpools/wasnorm_wordpool_576.txt	LTP293	ltpFR2	22	9	CHAPEL	280	n/a	n/a	0	0	0
1902.122	n/a	REC_WORD	951061	wordpools/wasnorm_wordpool_576.txt	LTP293	ltpFR2	22	9	POET	1095	n/a	n/a	0	0	0
1903.108	n/a	REC_WORD	951554	wordpools/wasnorm_wordpool_576.txt	LTP293	ltpFR2	22	9	BRIEFCASE	175	n/a	n/a	0	0	0
1904.1	n/a	REC_WORD	952050	wordpools/wasnorm_wordpool_576.txt	LTP293	ltpFR2	22	9	SUITCASE	1403	n/a	n/a	0	0	0
1905.352	n/a	REC_WORD	952676	wordpools/wasnorm_wordpool_576.txt	LTP293	ltpFR2	22	9	CAMEL	223	n/a	n/a	0	0	0
1906.628	n/a	REC_WORD	953314	wordpools/wasnorm_wordpool_576.txt	LTP293	ltpFR2	22	9	HOUND	724	n/a	n/a	0	0	0
1916.07	n/a	REC_WORD	958035	wordpools/wasnorm_wordpool_576.txt	LTP293	ltpFR2	22	9	DANCER	437	n/a	n/a	0	0	0
1917.696	n/a	REC_WORD	958848	wordpools/wasnorm_wordpool_576.txt	LTP293	ltpFR2	22	9	SCOTCH	1251	n/a	n/a	0	0	0
1926.818	n/a	REC_WORD	963409	wordpools/wasnorm_wordpool_576.txt	LTP293	ltpFR2	22	9	COUSIN	392	n/a	n/a	0	0	0
1927.954	n/a	REC_WORD	963977	wordpools/wasnorm_wordpool_576.txt	LTP293	ltpFR2	22	9	PAIL	1002	n/a	n/a	0	0	0
1981.886	n/a	WORD	990943	wordpools/wasnorm_wordpool_576.txt	LTP293	ltpFR2	22	10	XEROX	1628	n/a	n/a	0	0	0
1984.306	n/a	WORD	992153	wordpools/wasnorm_wordpool_576.txt	LTP293	ltpFR2	22	10	GAVEL	627	n/a	n/a	0	0	0
1987.01	n/a	WORD	993505	wordpools/wasnorm_wordpool_576.txt	LTP293	ltpFR2	22	10	ATLAS	53	n/a	n/a	0	0	0
1989.712	n/a	WORD	994856	wordpools/wasnorm_wordpool_576.txt	LTP293	ltpFR2	22	10	MISTER	901	n/a	n/a	0	0	0
1992.43	n/a	WORD	996215	wordpools/wasnorm_wordpool_576.txt	LTP293	ltpFR2	22	10	HORNET	718	n/a	n/a	0	0	0
1995.25	n/a	WORD	997625	wordpools/wasnorm_wordpool_576.txt	LTP293	ltpFR2	22	10	BLADE	134	n/a	n/a	0	0	0
1997.952	n/a	WORD	998976	wordpools/wasnorm_wordpool_576.txt	LTP293	ltpFR2	22	10	PARTNER	1017	n/a	n/a	0	0	0
2000.67	n/a	WORD	1000335	wordpools/wasnorm_wordpool_576.txt	LTP293	ltpFR2	22	10	WOMAN	1620	n/a	n/a	0	0	0
2003.456	n/a	WORD	1001728	wordpools/wasnorm_wordpool_576.txt	LTP293	ltpFR2	22	10	PISTON	1076	n/a	n/a	0	0	0
2006.108	n/a	WORD	1003054	wordpools/wasnorm_wordpool_576.txt	LTP293	ltpFR2	22	10	TAXI	1438	n/a	n/a	0	0	0
2008.544	n/a	WORD	1004272	wordpools/wasnorm_wordpool_576.txt	LTP293	ltpFR2	22	10	SWAMP	1416	n/a	n/a	0	0	0
2011.33	n/a	WORD	1005665	wordpools/wasnorm_wordpool_576.txt	LTP293	ltpFR2	22	10	CANAL	226	n/a	n/a	0	0	0
2013.968	n/a	WORD	1006984	wordpools/wasnorm_wordpool_576.txt	LTP293	ltpFR2	22	10	HATCHET	691	n/a	n/a	0	0	0
2016.666	n/a	WORD	1008333	wordpools/wasnorm_wordpool_576.txt	LTP293	ltpFR2	22	10	SLOPE	1328	n/a	n/a	0	0	0
2019.1	n/a	WORD	1009550	wordpools/wasnorm_wordpool_576.txt	LTP293	ltpFR2	22	10	NOTEBOOK	959	n/a	n/a	0	0	0
2021.704	n/a	WORD	1010852	wordpools/wasnorm_wordpool_576.txt	LTP293	ltpFR2	22	10	KLEENEX	782	n/a	n/a	0	0	0
2024.258	n/a	WORD	1012129	wordpools/wasnorm_wordpool_576.txt	LTP293	ltpFR2	22	10	LAMP	798	n/a	n/a	0	0	0
2026.806	n/a	WORD	1013403	wordpools/wasnorm_wordpool_576.txt	LTP293	ltpFR2	22	10	BACKBONE	66	n/a	n/a	0	0	0
2029.442	n/a	WORD	1014721	wordpools/wasnorm_wordpool_576.txt	LTP293	ltpFR2	22	10	LIZARD	834	n/a	n/a	0	0	0
2032.244	n/a	WORD	1016122	wordpools/wasnorm_wordpool_576.txt	LTP293	ltpFR2	22	10	AIRPLANE	12	n/a	n/a	0	0	0
2034.896	n/a	WORD	1017448	wordpools/wasnorm_wordpool_576.txt	LTP293	ltpFR2	22	10	SUMMIT	1405	n/a	n/a	0	0	0
2037.386	n/a	WORD	1018693	wordpools/wasnorm_wordpool_576.txt	LTP293	ltpFR2	22	10	TREAT	1501	n/a	n/a	0	0	0
2040.168	n/a	WORD	1020084	wordpools/wasnorm_wordpool_576.txt	LTP293	ltpFR2	22	10	AIRPORT	13	n/a	n/a	0	0	0
2042.804	n/a	WORD	1021402	wordpools/wasnorm_wordpool_576.txt	LTP293	ltpFR2	22	10	PATROL	1027	n/a	n/a	0	0	0
2044.41	n/a	START	1022205	n/a	LTP293	ltpFR2	22	n/a	n/a	n/a	15	n/a	n/a	n/a	n/a
2045.232	n/a	DISTRACTOR	1022616	n/a	LTP293	ltpFR2	22	10	n/a	n/a	n/a	n/a	0	0	0
2045.238	n/a	PROB	1022619	n/a	LTP293	ltpFR2	22	n/a	n/a	n/a	15	12	8	3	1
2046.52	n/a	PROB	1023260	n/a	LTP293	ltpFR2	22	n/a	n/a	n/a	15	14	3	9	2
2047.588	n/a	PROB	1023794	n/a	LTP293	ltpFR2	22	n/a	n/a	n/a	15	5	3	1	1
2048.356	n/a	PROB	1024178	n/a	LTP293	ltpFR2	22	n/a	n/a	n/a	15	17	9	7	1
2049.59	n/a	PROB	1024795	n/a	LTP293	ltpFR2	22	n/a	n/a	n/a	15	12	1	3	8
2050.692	n/a	PROB	1025346	n/a	LTP293	ltpFR2	22	n/a	n/a	n/a	15	20	6	7	7
2054.13	n/a	PROB	1027065	n/a	LTP293	ltpFR2	22	n/a	n/a	n/a	15	14	5	2	7
2055.412	n/a	PROB	1027706	n/a	LTP293	ltpFR2	22	n/a	n/a	n/a	15	8	4	1	3
2057.046	n/a	PROB	1028523	n/a	LTP293	ltpFR2	22	n/a	n/a	n/a	15	17	7	1	9
2058.396	n/a	PROB	1029198	n/a	LTP293	ltpFR2	22	n/a	n/a	n/a	15	15	4	8	3
2059.448	n/a	PROB	1029724	n/a	LTP293	ltpFR2	22	n/a	n/a	n/a	15	16	8	1	7
2060.784	n/a	PROB	1030392	n/a	LTP293	ltpFR2	22	n/a	n/a	n/a	15	16	5	7	4
2062.2	n/a	PROB	1031100	n/a	LTP293	ltpFR2	22	n/a	n/a	n/a	15	19	9	8	2
2063.284	n/a	PROB	1031642	n/a	LTP293	ltpFR2	22	n/a	n/a	n/a	15	21	8	5	8
2064.368	n/a	PROB	1032184	n/a	LTP293	ltpFR2	22	n/a	n/a	n/a	15	16	5	6	5
2065.452	n/a	PROB	1032726	n/a	LTP293	ltpFR2	22	n/a	n/a	n/a	15	10	4	3	3
2066.722	n/a	PROB	1033361	n/a	LTP293	ltpFR2	22	n/a	n/a	n/a	15	21	8	5	9
2068.092	n/a	STOP	1034046	n/a	LTP293	ltpFR2	22	n/a	n/a	n/a	15	n/a	n/a	n/a	n/a
2070.274	n/a	REC_START	1035137	n/a	LTP293	ltpFR2	22	10	n/a	n/a	n/a	n/a	0	0	0
2070.786	n/a	REC_WORD	1035393	wordpools/wasnorm_wordpool_576.txt	LTP293	ltpFR2	22	10	PORTRAIT	1111	n/a	n/a	0	0	0
2071.878	n/a	REC_WORD	1035939	wordpools/wasnorm_wordpool_576.txt	LTP293	ltpFR2	22	10	TAXI	1438	n/a	n/a	0	0	0
2072.954	n/a	REC_WORD	1036477	wordpools/wasnorm_wordpool_576.txt	LTP293	ltpFR2	22	10	CANAL	226	n/a	n/a	0	0	0
2074.154	n/a	REC_WORD	1037077	wordpools/wasnorm_wordpool_576.txt	LTP293	ltpFR2	22	10	AIRPORT	13	n/a	n/a	0	0	0
2075.246	n/a	REC_WORD	1037623	wordpools/wasnorm_wordpool_576.txt	LTP293	ltpFR2	22	10	AIRPLANE	12	n/a	n/a	0	0	0
2077.836	n/a	REC_WORD	1038918	wordpools/wasnorm_wordpool_576.txt	LTP293	ltpFR2	22	10	XEROX	1628	n/a	n/a	0	0	0
2079.444	n/a	REC_WORD	1039722	wordpools/wasnorm_wordpool_576.txt	LTP293	ltpFR2	22	10	ATLAS	53	n/a	n/a	0	0	0
2083.326	n/a	REC_WORD	1041663	wordpools/wasnorm_wordpool_576.txt	LTP293	ltpFR2	22	10	GAVEL	627	n/a	n/a	0	0	0
2084.56	n/a	REC_WORD	1042280	wordpools/wasnorm_wordpool_576.txt	LTP293	ltpFR2	22	10	MISTER	901	n/a	n/a	0	0	0
2086.368	n/a	REC_WORD	1043184	wordpools/wasnorm_wordpool_576.txt	LTP293	ltpFR2	22	10	LAMP	798	n/a	n/a	0	0	0
2090.168	n/a	REC_WORD	1045084	wordpools/wasnorm_wordpool_576.txt	LTP293	ltpFR2	22	10	MARSH	874	n/a	n/a	0	0	0
2092.9	n/a	REC_WORD	1046450	wordpools/wasnorm_wordpool_576.txt	LTP293	ltpFR2	22	10	SWAMP	1416	n/a	n/a	0	0	0
2160.692	n/a	DISTRACTOR	1080346	n/a	LTP293	ltpFR2	22	11	n/a	n/a	n/a	n/a	0	0	0
2160.692	n/a	START	1080346	n/a	LTP293	ltpFR2	22	n/a	n/a	n/a	16	n/a	n/a	n/a	n/a
2160.708	n/a	PROB	1080354	n/a	LTP293	ltpFR2	22	n/a	n/a	n/a	16	7	1	1	5
2162.344	n/a	PROB	1081172	n/a	LTP293	ltpFR2	22	n/a	n/a	n/a	16	14	5	7	2
2163.726	n/a	PROB	1081863	n/a	LTP293	ltpFR2	22	n/a	n/a	n/a	16	15	7	7	1
2164.912	n/a	PROB	1082456	n/a	LTP293	ltpFR2	22	n/a	n/a	n/a	16	11	4	6	1
2165.978	n/a	PROB	1082989	n/a	LTP293	ltpFR2	22	n/a	n/a	n/a	16	19	6	4	9
2166.866	n/a	PROB	1083433	n/a	LTP293	ltpFR2	22	n/a	n/a	n/a	16	16	2	5	9
2167.948	n/a	PROB	1083974	n/a	LTP293	ltpFR2	22	n/a	n/a	n/a	16	16	4	6	6
2169.064	n/a	PROB	1084532	n/a	LTP293	ltpFR2	22	n/a	n/a	n/a	16	18	6	9	3
2170.52	n/a	PROB	1085260	n/a	LTP293	ltpFR2	22	n/a	n/a	n/a	16	8	6	1	1
2171.318	n/a	PROB	1085659	n/a	LTP293	ltpFR2	22	n/a	n/a	n/a	16	18	7	3	8
2172.25	n/a	PROB	1086125	n/a	LTP293	ltpFR2	22	n/a	n/a	n/a	16	19	7	7	5
2173.618	n/a	PROB	1086809	n/a	LTP293	ltpFR2	22	n/a	n/a	n/a	16	11	5	1	5
2174.518	n/a	PROB	1087259	n/a	LTP293	ltpFR2	22	n/a	n/a	n/a	16	11	4	5	2
2176.104	n/a	PROB	1088052	n/a	LTP293	ltpFR2	22	n/a	n/a	n/a	16	25	8	7	8
2177.224	n/a	PROB	1088612	n/a	LTP293	ltpFR2	22	n/a	n/a	n/a	16	18	2	8	8
2178.256	n/a	PROB	1089128	n/a	LTP293	ltpFR2	22	n/a	n/a	n/a	16	19	4	7	8
2179.592	n/a	PROB	1089796	n/a	LTP293	ltpFR2	22	n/a	n/a	n/a	16	16	6	4	6
2180.624	n/a	PROB	1090312	n/a	LTP293	ltpFR2	22	n/a	n/a	n/a	16	19	4	9	6
2181.776	n/a	PROB	1090888	n/a	LTP293	ltpFR2	22	n/a	n/a	n/a	16	9	1	6	2
2183.03	n/a	PROB	1091515	n/a	LTP293	ltpFR2	22	n/a	n/a	n/a	16	11	7	2	2
2184.552	n/a	STOP	1092276	n/a	LTP293	ltpFR2	22	n/a	n/a	n/a	16	n/a	n/a	n/a	n/a
2185.512	n/a	WORD	1092756	wordpools/wasnorm_wordpool_576.txt	LTP293	ltpFR2	22	11	DRESS	495	n/a	n/a	0	0	0
2188.282	n/a	WORD	1094141	wordpools/wasnorm_wordpool_576.txt	LTP293	ltpFR2	22	11	COD	340	n/a	n/a	0	0	0
2190.984	n/a	WORD	1095492	wordpools/wasnorm_wordpool_576.txt	LTP293	ltpFR2	22	11	INMATE	738	n/a	n/a	0	0	0
2193.47	n/a	WORD	1096735	wordpools/wasnorm_wordpool_576.txt	LTP293	ltpFR2	22	11	GRAPE	654	n/a	n/a	0	0	0
2195.954	n/a	WORD	1097977	wordpools/wasnorm_wordpool_576.txt	LTP293	ltpFR2	22	11	LODGE	839	n/a	n/a	0	0	0
2198.556	n/a	WORD	1099278	wordpools/wasnorm_wordpool_576.txt	LTP293	ltpFR2	22	11	PASTA	1021	n/a	n/a	0	0	0
2201.142	n/a	WORD	1100571	wordpools/wasnorm_wordpool_576.txt	LTP293	ltpFR2	22	11	STAMP	1370	n/a	n/a	0	0	0
2203.962	n/a	WORD	1101981	wordpools/wasnorm_wordpool_576.txt	LTP293	ltpFR2	22	11	TYPIST	1532	n/a	n/a	0	0	0
2206.48	n/a	WORD	1103240	wordpools/wasnorm_wordpool_576.txt	LTP293	ltpFR2	22	11	FIDDLE	561	n/a	n/a	0	0	0
2208.982	n/a	WORD	1104491	wordpools/wasnorm_wordpool_576.txt	LTP293	ltpFR2	22	11	PARSLEY	1016	n/a	n/a	0	0	0
2211.616	n/a	WORD	1105808	wordpools/wasnorm_wordpool_576.txt	LTP293	ltpFR2	22	11	LEOPARD	812	n/a	n/a	0	0	0
2214.32	n/a	WORD	1107160	wordpools/wasnorm_wordpool_576.txt	LTP293	ltpFR2	22	11	ONION	977	n/a	n/a	0	0	0
2216.904	n/a	WORD	1108452	wordpools/wasnorm_wordpool_576.txt	LTP293	ltpFR2	22	11	SALT	1229	n/a	n/a	0	0	0
2219.658	n/a	WORD	1109829	wordpools/wasnorm_wordpool_576.txt	LTP293	ltpFR2	22	11	BANK	83	n/a	n/a	0	0	0
2222.476	n/a	WORD	1111238	wordpools/wasnorm_wordpool_576.txt	LTP293	ltpFR2	22	11	TRUCK	1512	n/a	n/a	0	0	0
2224.962	n/a	WORD	1112481	wordpools/wasnorm_wordpool_576.txt	LTP293	ltpFR2	22	11	SHIRT	1287	n/a	n/a	0	0	0
2227.48	n/a	WORD	1113740	wordpools/wasnorm_wordpool_576.txt	LTP293	ltpFR2	22	11	HOOK	715	n/a	n/a	0	0	0
2230.082	n/a	WORD	1115041	wordpools/wasnorm_wordpool_576.txt	LTP293	ltpFR2	22	11	NAPKIN	937	n/a	n/a	0	0	0
2232.802	n/a	WORD	1116401	wordpools/wasnorm_wordpool_576.txt	LTP293	ltpFR2	22	11	PAPER	1011	n/a	n/a	0	0	0
2235.37	n/a	WORD	1117685	wordpools/wasnorm_wordpool_576.txt	LTP293	ltpFR2	22	11	OFFICE	972	n/a	n/a	0	0	0
2237.956	n/a	WORD	1118978	wordpools/wasnorm_wordpool_576.txt	LTP293	ltpFR2	22	11	FILM	565	n/a	n/a	0	0	0
2240.426	n/a	WORD	1120213	wordpools/wasnorm_wordpool_576.txt	LTP293	ltpFR2	22	11	SPOOL	1356	n/a	n/a	0	0	0
2243.042	n/a	WORD	1121521	wordpools/wasnorm_wordpool_576.txt	LTP293	ltpFR2	22	11	BUCKET	184	n/a	n/a	0	0	0
2245.678	n/a	WORD	1122839	wordpools/wasnorm_wordpool_576.txt	LTP293	ltpFR2	22	11	RAFT	1159	n/a	n/a	0	0	0
2247.282	n/a	START	1123641	n/a	LTP293	ltpFR2	22	n/a	n/a	n/a	17	n/a	n/a	n/a	n/a
2248.202	n/a	DISTRACTOR	1124101	n/a	LTP293	ltpFR2	22	11	n/a	n/a	n/a	n/a	0	0	0
2248.212	n/a	PROB	1124106	n/a	LTP293	ltpFR2	22	n/a	n/a	n/a	17	7	1	3	3
2249.294	n/a	PROB	1124647	n/a	LTP293	ltpFR2	22	n/a	n/a	n/a	17	13	1	6	6
2250.848	n/a	PROB	1125424	n/a	LTP293	ltpFR2	22	n/a	n/a	n/a	17	17	8	7	2
2252.3	n/a	PROB	1126150	n/a	LTP293	ltpFR2	22	n/a	n/a	n/a	17	17	6	9	2
2253.534	n/a	PROB	1126767	n/a	LTP293	ltpFR2	22	n/a	n/a	n/a	17	11	2	8	1
2254.8	n/a	PROB	1127400	n/a	LTP293	ltpFR2	22	n/a	n/a	n/a	17	10	7	1	2
2255.952	n/a	PROB	1127976	n/a	LTP293	ltpFR2	22	n/a	n/a	n/a	17	13	5	1	7
2257.054	n/a	PROB	1128527	n/a	LTP293	ltpFR2	22	n/a	n/a	n/a	17	21	9	6	6
2258.318	n/a	PROB	1129159	n/a	LTP293	ltpFR2	22	n/a	n/a	n/a	17	13	7	2	4
2259.454	n/a	PROB	1129727	n/a	LTP293	ltpFR2	22	n/a	n/a	n/a	17	14	9	2	5
2261.372	n/a	PROB	1130686	n/a	LTP293	ltpFR2	22	n/a	n/a	n/a	17	21	7	5	9
2262.924	n/a	PROB	1131462	n/a	LTP293	ltpFR2	22	n/a	n/a	n/a	17	8	2	3	3
2264.308	n/a	PROB	1132154	n/a	LTP293	ltpFR2	22	n/a	n/a	n/a	17	19	7	5	7
2265.424	n/a	PROB	1132712	n/a	LTP293	ltpFR2	22	n/a	n/a	n/a	17	17	8	1	8
2267.66	n/a	PROB	1133830	n/a	LTP293	ltpFR2	22	n/a	n/a	n/a	17	24	7	8	9
2269.21	n/a	PROB	1134605	n/a	LTP293	ltpFR2	22	n/a	n/a	n/a	17	18	5	4	9
2270.064	n/a	STOP	1135032	n/a	LTP293	ltpFR2	22	n/a	n/a	n/a	17	n/a	n/a	n/a	n/a
2273.198	n/a	REC_START	1136599	n/a	LTP293	ltpFR2	22	11	n/a	n/a	n/a	n/a	0	0	0
2273.496	n/a	REC_WORD	1136748	wordpools/wasnorm_wordpool_576.txt	LTP293	ltpFR2	22	11	RAFT	1159	n/a	n/a	0	0	0
2274.328	n/a	REC_WORD	1137164	wordpools/wasnorm_wordpool_576.txt	LTP293	ltpFR2	22	11	HOOK	715	n/a	n/a	0	0	0
2275.922	n/a	REC_WORD	1137961	wordpools/wasnorm_wordpool_576.txt	LTP293	ltpFR2	22	11	STAMP	1370	n/a	n/a	0	0	0
2277.486	n/a	REC_WORD	1138743	wordpools/wasnorm_wordpool_576.txt	LTP293	ltpFR2	22	11	DRESS	495	n/a	n/a	0	0	0
2278.984	n/a	REC_WORD	1139492	wordpools/wasnorm_wordpool_576.txt	LTP293	ltpFR2	22	11	LEOPARD	812	n/a	n/a	0	0	0
2280.242	n/a	REC_WORD	1140121	wordpools/wasnorm_wordpool_576.txt	LTP293	ltpFR2	22	11	INMATE	738	n/a	n/a	0	0	0
2282.514	n/a	REC_WORD	1141257	wordpools/wasnorm_wordpool_576.txt	LTP293	ltpFR2	22	11	OFFICE	972	n/a	n/a	0	0	0
2283.764	n/a	REC_WORD	1141882	wordpools/wasnorm_wordpool_576.txt	LTP293	ltpFR2	22	11	TYPIST	1532	n/a	n/a	0	0	0
2285.676	n/a	REC_WORD	1142838	wordpools/wasnorm_wordpool_576.txt	LTP293	ltpFR2	22	11	COD	340	n/a	n/a	0	0	0
2286.676	n/a	REC_WORD	1143338	wordpools/wasnorm_wordpool_576.txt	LTP293	ltpFR2	22	11	ONION	977	n/a	n/a	0	0	0
2287.82	n/a	REC_WORD	1143910	wordpools/wasnorm_wordpool_576.txt	LTP293	ltpFR2	22	11	PASTA	1021	n/a	n/a	0	0	0
2288.862	n/a	REC_WORD	1144431	wordpools/wasnorm_wordpool_576.txt	LTP293	ltpFR2	22	11	SALT	1229	n/a	n/a	0	0	0
2290.806	n/a	REC_WORD	1145403	wordpools/wasnorm_wordpool_576.txt	LTP293	ltpFR2	22	11	NAPKIN	937	n/a	n/a	0	0	0
2291.834	n/a	REC_WORD	1145917	wordpools/wasnorm_wordpool_576.txt	LTP293	ltpFR2	22	11	PAPER	1011	n/a	n/a	0	0	0
2301.626	n/a	REC_WORD	1150813	wordpools/wasnorm_wordpool_576.txt	LTP293	ltpFR2	22	11	GRAPE	654	n/a	n/a	0	0	0
2363.63	n/a	WORD	1181815	wordpools/wasnorm_wordpool_576.txt	LTP293	ltpFR2	22	12	PALACE	1006	n/a	n/a	0	0	0
2366.248	n/a	WORD	1183124	wordpools/wasnorm_wordpool_576.txt	LTP293	ltpFR2	22	12	ZIPPER	1636	n/a	n/a	0	0	0
2368.858	n/a	WORD	1184429	wordpools/wasnorm_wordpool_576.txt	LTP293	ltpFR2	22	12	SADDLE	1221	n/a	n/a	0	0	0
2371.676	n/a	WORD	1185838	wordpools/wasnorm_wordpool_576.txt	LTP293	ltpFR2	22	12	BUBBLE	183	n/a	n/a	0	0	0
2374.406	n/a	WORD	1187203	wordpools/wasnorm_wordpool_576.txt	LTP293	ltpFR2	22	12	SLIME	1327	n/a	n/a	0	0	0
2377.076	n/a	WORD	1188538	wordpools/wasnorm_wordpool_576.txt	LTP293	ltpFR2	22	12	PRINCE	1124	n/a	n/a	0	0	0
2379.712	n/a	WORD	1189856	wordpools/wasnorm_wordpool_576.txt	LTP293	ltpFR2	22	12	FOOTBALL	591	n/a	n/a	0	0	0
2382.452	n/a	WORD	1191226	wordpools/wasnorm_wordpool_576.txt	LTP293	ltpFR2	22	12	BOYFRIEND	162	n/a	n/a	0	0	0
2384.914	n/a	WORD	1192457	wordpools/wasnorm_wordpool_576.txt	LTP293	ltpFR2	22	12	SCALPEL	1243	n/a	n/a	0	0	0
2387.516	n/a	WORD	1193758	wordpools/wasnorm_wordpool_576.txt	LTP293	ltpFR2	22	12	BUTCHER	203	n/a	n/a	0	0	0
2390.17	n/a	WORD	1195085	wordpools/wasnorm_wordpool_576.txt	LTP293	ltpFR2	22	12	TOURIST	1488	n/a	n/a	0	0	0
2392.84	n/a	WORD	1196420	wordpools/wasnorm_wordpool_576.txt	LTP293	ltpFR2	22	12	CRITIC	410	n/a	n/a	0	0	0
2395.458	n/a	WORD	1197729	wordpools/wasnorm_wordpool_576.txt	LTP293	ltpFR2	22	12	ACTRESS	6	n/a	n/a	0	0	0
2397.976	n/a	WORD	1198988	wordpools/wasnorm_wordpool_576.txt	LTP293	ltpFR2	22	12	PADDLE	1000	n/a	n/a	0	0	0
2400.416	n/a	WORD	1200208	wordpools/wasnorm_wordpool_576.txt	LTP293	ltpFR2	22	12	VIKING	1565	n/a	n/a	0	0	0
2402.9	n/a	WORD	1201450	wordpools/wasnorm_wordpool_576.txt	LTP293	ltpFR2	22	12	GRAVEL	659	n/a	n/a	0	0	0
2405.702	n/a	WORD	1202851	wordpools/wasnorm_wordpool_576.txt	LTP293	ltpFR2	22	12	BEEF	113	n/a	n/a	0	0	0
2408.418	n/a	WORD	1204209	wordpools/wasnorm_wordpool_576.txt	LTP293	ltpFR2	22	12	DUSTPAN	509	n/a	n/a	0	0	0
2410.904	n/a	WORD	1205452	wordpools/wasnorm_wordpool_576.txt	LTP293	ltpFR2	22	12	CITRUS	313	n/a	n/a	0	0	0
2413.524	n/a	WORD	1206762	wordpools/wasnorm_wordpool_576.txt	LTP293	ltpFR2	22	12	FLAG	573	n/a	n/a	0	0	0
2416.192	n/a	WORD	1208096	wordpools/wasnorm_wordpool_576.txt	LTP293	ltpFR2	22	12	CASKET	255	n/a	n/a	0	0	0
2419.012	n/a	WORD	1209506	wordpools/wasnorm_wordpool_576.txt	LTP293	ltpFR2	22	12	DUST	508	n/a	n/a	0	0	0
2421.514	n/a	WORD	1210757	wordpools/wasnorm_wordpool_576.txt	LTP293	ltpFR2	22	12	LAPEL	800	n/a	n/a	0	0	0
2424.182	n/a	WORD	1212091	wordpools/wasnorm_wordpool_576.txt	LTP293	ltpFR2	22	12	MEAT	883	n/a	n/a	0	0	0
2425.788	n/a	START	1212894	n/a	LTP293	ltpFR2	22	n/a	n/a	n/a	18	n/a	n/a	n/a	n/a
2426.882	n/a	DISTRACTOR	1213441	n/a	LTP293	ltpFR2	22	12	n/a	n/a	n/a	n/a	0	0	0
2426.888	n/a	PROB	1213444	n/a	LTP293	ltpFR2	22	n/a	n/a	n/a	18	10	7	1	2
2428.0	n/a	PROB	1214000	n/a	LTP293	ltpFR2	22	n/a	n/a	n/a	18	8	2	5	1
2429.036	n/a	PROB	1214518	n/a	LTP293	ltpFR2	22	n/a	n/a	n/a	18	13	7	3	3
2430.438	n/a	PROB	1215219	n/a	LTP293	ltpFR2	22	n/a	n/a	n/a	18	11	4	2	5
2432.236	n/a	PROB	1216118	n/a	LTP293	ltpFR2	22	n/a	n/a	n/a	18	17	8	1	8
2433.474	n/a	PROB	1216737	n/a	LTP293	ltpFR2	22	n/a	n/a	n/a	18	13	3	2	8
2434.792	n/a	PROB	1217396	n/a	LTP293	ltpFR2	22	n/a	n/a	n/a	18	17	6	2	9
2436.942	n/a	PROB	1218471	n/a	LTP293	ltpFR2	22	n/a	n/a	n/a	18	23	9	9	5
2438.06	n/a	PROB	1219030	n/a	LTP293	ltpFR2	22	n/a	n/a	n/a	18	19	9	1	9
2439.128	n/a	PROB	1219564	n/a	LTP293	ltpFR2	22	n/a	n/a	n/a	18	8	3	1	4
2440.096	n/a	PROB	1220048	n/a	LTP293	ltpFR2	22	n/a	n/a	n/a	18	21	8	4	9
2441.078	n/a	PROB	1220539	n/a	LTP293	ltpFR2	22	n/a	n/a	n/a	18	14	1	7	6
2442.362	n/a	PROB	1221181	n/a	LTP293	ltpFR2	22	n/a	n/a	n/a	18	13	1	9	3
2443.33	n/a	PROB	1221665	n/a	LTP293	ltpFR2	22	n/a	n/a	n/a	18	20	8	5	7
2444.666	n/a	PROB	1222333	n/a	LTP293	ltpFR2	22	n/a	n/a	n/a	18	15	2	9	4
2445.666	n/a	PROB	1222833	n/a	LTP293	ltpFR2	22	n/a	n/a	n/a	18	14	2	6	6
2448.102	n/a	PROB	1224051	n/a	LTP293	ltpFR2	22	n/a	n/a	n/a	18	15	7	3	5
2449.172	n/a	STOP	1224586	n/a	LTP293	ltpFR2	22	n/a	n/a	n/a	18	n/a	n/a	n/a	n/a
2451.622	n/a	REC_START	1225811	n/a	LTP293	ltpFR2	22	12	n/a	n/a	n/a	n/a	0	0	0
2452.138	n/a	REC_WORD	1226069	wordpools/wasnorm_wordpool_576.txt	LTP293	ltpFR2	22	12	DUST	508	n/a	n/a	0	0	0
2452.982	n/a	REC_WORD	1226491	wordpools/wasnorm_wordpool_576.txt	LTP293	ltpFR2	22	12	LAPEL	800	n/a	n/a	0	0	0
2454.468	n/a	REC_WORD	1227234	wordpools/wasnorm_wordpool_576.txt	LTP293	ltpFR2	22	12	PALACE	1006	n/a	n/a	0	0	0
2455.522	n/a	REC_WORD	1227761	wordpools/wasnorm_wordpool_576.txt	LTP293	ltpFR2	22	12	ZIPPER	1636	n/a	n/a	0	0	0
2456.91	n/a	REC_WORD	1228455	wordpools/wasnorm_wordpool_576.txt	LTP293	ltpFR2	22	12	GRAVEL	659	n/a	n/a	0	0	0
2462.552	n/a	REC_WORD	1231276	wordpools/wasnorm_wordpool_576.txt	LTP293	ltpFR2	22	12	PRINCE	1124	n/a	n/a	0	0	0
2463.554	n/a	REC_WORD	1231777	wordpools/wasnorm_wordpool_576.txt	LTP293	ltpFR2	22	12	SADDLE	1221	n/a	n/a	0	0	0
2464.82	n/a	REC_WORD	1232410	wordpools/wasnorm_wordpool_576.txt	LTP293	ltpFR2	22	12	SLIME	1327	n/a	n/a	0	0	0
2466.146	n/a	REC_WORD	1233073	wordpools/wasnorm_wordpool_576.txt	LTP293	ltpFR2	22	12	BUTCHER	203	n/a	n/a	0	0	0
2467.34	n/a	REC_WORD	1233670	wordpools/wasnorm_wordpool_576.txt	LTP293	ltpFR2	22	12	SCALPEL	1243	n/a	n/a	0	0	0
2542.044	n/a	DISTRACTOR	1271022	n/a	LTP293	ltpFR2	22	13	n/a	n/a	n/a	n/a	0	0	0
2542.044	n/a	START	1271022	n/a	LTP293	ltpFR2	22	n/a	n/a	n/a	19	n/a	n/a	n/a	n/a
2542.058	n/a	PROB	1271029	n/a	LTP293	ltpFR2	22	n/a	n/a	n/a	19	7	2	1	4
2543.126	n/a	PROB	1271563	n/a	LTP293	ltpFR2	22	n/a	n/a	n/a	19	20	8	8	4
2545.128	n/a	PROB	1272564	n/a	LTP293	ltpFR2	22	n/a	n/a	n/a	19	11	1	1	9
2546.078	n/a	PROB	1273039	n/a	LTP293	ltpFR2	22	n/a	n/a	n/a	19	14	6	1	7
2547.114	n/a	PROB	1273557	n/a	LTP293	ltpFR2	22	n/a	n/a	n/a	19	16	1	8	7
2548.112	n/a	PROB	1274056	n/a	LTP293	ltpFR2	22	n/a	n/a	n/a	19	11	1	9	1
2548.964	n/a	PROB	1274482	n/a	LTP293	ltpFR2	22	n/a	n/a	n/a	19	9	1	2	6
2550.014	n/a	PROB	1275007	n/a	LTP293	ltpFR2	22	n/a	n/a	n/a	19	15	5	7	3
2551.148	n/a	PROB	1275574	n/a	LTP293	ltpFR2	22	n/a	n/a	n/a	19	10	2	7	1
2552.986	n/a	PROB	1276493	n/a	LTP293	ltpFR2	22	n/a	n/a	n/a	19	12	8	1	3
2554.134	n/a	PROB	1277067	n/a	LTP293	ltpFR2	22	n/a	n/a	n/a	19	15	5	8	2
2555.034	n/a	PROB	1277517	n/a	LTP293	ltpFR2	22	n/a	n/a	n/a	19	19	6	9	4
2556.036	n/a	PROB	1278018	n/a	LTP293	ltpFR2	22	n/a	n/a	n/a	19	11	1	1	9
2556.938	n/a	PROB	1278469	n/a	LTP293	ltpFR2	22	n/a	n/a	n/a	19	18	9	2	7
2558.02	n/a	PROB	1279010	n/a	LTP293	ltpFR2	22	n/a	n/a	n/a	19	20	7	6	7
2559.49	n/a	PROB	1279745	n/a	LTP293	ltpFR2	22	n/a	n/a	n/a	19	16	9	5	2
2560.472	n/a	PROB	1280236	n/a	LTP293	ltpFR2	22	n/a	n/a	n/a	19	17	6	2	9
2561.792	n/a	PROB	1280896	n/a	LTP293	ltpFR2	22	n/a	n/a	n/a	19	14	6	4	4
2562.858	n/a	PROB	1281429	n/a	LTP293	ltpFR2	22	n/a	n/a	n/a	19	14	5	5	4
2563.828	n/a	PROB	1281914	n/a	LTP293	ltpFR2	22	n/a	n/a	n/a	19	10	6	1	3
2565.35	n/a	STOP	1282675	n/a	LTP293	ltpFR2	22	n/a	n/a	n/a	19	n/a	n/a	n/a	n/a
2567.112	n/a	WORD	1283556	wordpools/wasnorm_wordpool_576.txt	LTP293	ltpFR2	22	13	POSSUM	1112	n/a	n/a	0	0	0
2569.622	n/a	WORD	1284811	wordpools/wasnorm_wordpool_576.txt	LTP293	ltpFR2	22	13	PORK	1108	n/a	n/a	0	0	0
2572.056	n/a	WORD	1286028	wordpools/wasnorm_wordpool_576.txt	LTP293	ltpFR2	22	13	LION	827	n/a	n/a	0	0	0
2574.6	n/a	WORD	1287300	wordpools/wasnorm_wordpool_576.txt	LTP293	ltpFR2	22	13	LONDON	843	n/a	n/a	0	0	0
2577.378	n/a	WORD	1288689	wordpools/wasnorm_wordpool_576.txt	LTP293	ltpFR2	22	13	CLAMP	316	n/a	n/a	0	0	0
2580.098	n/a	WORD	1290049	wordpools/wasnorm_wordpool_576.txt	LTP293	ltpFR2	22	13	BROTHER	179	n/a	n/a	0	0	0
2582.742	n/a	WORD	1291371	wordpools/wasnorm_wordpool_576.txt	LTP293	ltpFR2	22	13	SMOG	1330	n/a	n/a	0	0	0
2585.268	n/a	WORD	1292634	wordpools/wasnorm_wordpool_576.txt	LTP293	ltpFR2	22	13	CLOUD	328	n/a	n/a	0	0	0
2588.012	n/a	WORD	1294006	wordpools/wasnorm_wordpool_576.txt	LTP293	ltpFR2	22	13	PIZZA	1079	n/a	n/a	0	0	0
2590.748	n/a	WORD	1295374	wordpools/wasnorm_wordpool_576.txt	LTP293	ltpFR2	22	13	BEAVER	109	n/a	n/a	0	0	0
2593.232	n/a	WORD	1296616	wordpools/wasnorm_wordpool_576.txt	LTP293	ltpFR2	22	13	MOP	916	n/a	n/a	0	0	0
2595.746	n/a	WORD	1297873	wordpools/wasnorm_wordpool_576.txt	LTP293	ltpFR2	22	13	STAKE	1368	n/a	n/a	0	0	0
2598.22	n/a	WORD	1299110	wordpools/wasnorm_wordpool_576.txt	LTP293	ltpFR2	22	13	FIREMAN	569	n/a	n/a	0	0	0
2600.898	n/a	WORD	1300449	wordpools/wasnorm_wordpool_576.txt	LTP293	ltpFR2	22	13	FARMER	553	n/a	n/a	0	0	0
2603.334	n/a	WORD	1301667	wordpools/wasnorm_wordpool_576.txt	LTP293	ltpFR2	22	13	PECAN	1036	n/a	n/a	0	0	0
2605.81	n/a	WORD	1302905	wordpools/wasnorm_wordpool_576.txt	LTP293	ltpFR2	22	13	NIGHTGOWN	953	n/a	n/a	0	0	0
2608.36	n/a	WORD	1304180	wordpools/wasnorm_wordpool_576.txt	LTP293	ltpFR2	22	13	MATTRESS	879	n/a	n/a	0	0	0
2610.958	n/a	WORD	1305479	wordpools/wasnorm_wordpool_576.txt	LTP293	ltpFR2	22	13	BANQUET	86	n/a	n/a	0	0	0
2613.458	n/a	WORD	1306729	wordpools/wasnorm_wordpool_576.txt	LTP293	ltpFR2	22	13	SCALLOP	1242	n/a	n/a	0	0	0
2616.028	n/a	WORD	1308014	wordpools/wasnorm_wordpool_576.txt	LTP293	ltpFR2	22	13	ARMY	39	n/a	n/a	0	0	0
2618.512	n/a	WORD	1309256	wordpools/wasnorm_wordpool_576.txt	LTP293	ltpFR2	22	13	ASIA	46	n/a	n/a	0	0	0
2620.97	n/a	WORD	1310485	wordpools/wasnorm_wordpool_576.txt	LTP293	ltpFR2	22	13	PLATE	1086	n/a	n/a	0	0	0
2623.484	n/a	WORD	1311742	wordpools/wasnorm_wordpool_576.txt	LTP293	ltpFR2	22	13	THIEF	1456	n/a	n/a	0	0	0
2626.242	n/a	WORD	1313121	wordpools/wasnorm_wordpool_576.txt	LTP293	ltpFR2	22	13	COUNTRY	388	n/a	n/a	0	0	0
2627.856	n/a	START	1313928	n/a	LTP293	ltpFR2	22	n/a	n/a	n/a	20	n/a	n/a	n/a	n/a
2629.048	n/a	DISTRACTOR	1314524	n/a	LTP293	ltpFR2	22	13	n/a	n/a	n/a	n/a	0	0	0
2629.056	n/a	PROB	1314528	n/a	LTP293	ltpFR2	22	n/a	n/a	n/a	20	15	1	7	7
2630.228	n/a	PROB	1315114	n/a	LTP293	ltpFR2	22	n/a	n/a	n/a	20	17	7	5	5
2631.362	n/a	PROB	1315681	n/a	LTP293	ltpFR2	22	n/a	n/a	n/a	20	18	3	8	7
2633.046	n/a	PROB	1316523	n/a	LTP293	ltpFR2	22	n/a	n/a	n/a	20	8	1	1	6
2633.814	n/a	PROB	1316907	n/a	LTP293	ltpFR2	22	n/a	n/a	n/a	20	15	5	9	1
2634.75	n/a	PROB	1317375	n/a	LTP293	ltpFR2	22	n/a	n/a	n/a	20	10	7	2	1
2635.864	n/a	PROB	1317932	n/a	LTP293	ltpFR2	22	n/a	n/a	n/a	20	18	4	9	5
2636.778	n/a	PROB	1318389	n/a	LTP293	ltpFR2	22	n/a	n/a	n/a	20	13	6	4	3
2638.346	n/a	PROB	1319173	n/a	LTP293	ltpFR2	22	n/a	n/a	n/a	20	22	8	8	6
2639.33	n/a	PROB	1319665	n/a	LTP293	ltpFR2	22	n/a	n/a	n/a	20	18	5	8	5
2640.386	n/a	PROB	1320193	n/a	LTP293	ltpFR2	22	n/a	n/a	n/a	20	20	9	7	4
2641.97	n/a	PROB	1320985	n/a	LTP293	ltpFR2	22	n/a	n/a	n/a	20	19	4	8	7
2643.74	n/a	PROB	1321870	n/a	LTP293	ltpFR2	22	n/a	n/a	n/a	20	19	8	8	3
2645.302	n/a	PROB	1322651	n/a	LTP293	ltpFR2	22	n/a	n/a	n/a	20	10	3	1	6
2647.104	n/a	PROB	1323552	n/a	LTP293	ltpFR2	22	n/a	n/a	n/a	20	9	1	4	4
2647.988	n/a	PROB	1323994	n/a	LTP293	ltpFR2	22	n/a	n/a	n/a	20	18	7	4	6
2649.656	n/a	PROB	1324828	n/a	LTP293	ltpFR2	22	n/a	n/a	n/a	20	6	4	1	1
2650.88	n/a	STOP	1325440	n/a	LTP293	ltpFR2	22	n/a	n/a	n/a	20	n/a	n/a	n/a	n/a
2653.678	n/a	REC_START	1326839	n/a	LTP293	ltpFR2	22	13	n/a	n/a	n/a	n/a	0	0	0
2654.088	n/a	REC_WORD	1327044	wordpools/wasnorm_wordpool_576.txt	LTP293	ltpFR2	22	13	COUNTRY	388	n/a	n/a	0	0	0
2655.436	n/a	REC_WORD	1327718	wordpools/wasnorm_wordpool_576.txt	LTP293	ltpFR2	22	13	STAKE	1368	n/a	n/a	0	0	0
2658.412	n/a	REC_WORD	1329206	wordpools/wasnorm_wordpool_576.txt	LTP293	ltpFR2	22	13	LONDON	843	n/a	n/a	0	0	0
2659.252	n/a	REC_WORD	1329626	wordpools/wasnorm_wordpool_576.txt	LTP293	ltpFR2	22	13	SMOG	1330	n/a	n/a	0	0	0
2660.318	n/a	REC_WORD	1330159	wordpools/wasnorm_wordpool_576.txt	LTP293	ltpFR2	22	13	CLOUD	328	n/a	n/a	0	0	0
2661.31	n/a	REC_WORD	1330655	wordpools/wasnorm_wordpool_576.txt	LTP293	ltpFR2	22	13	POSSUM	1112	n/a	n/a	0	0	0
2662.33	n/a	REC_WORD	1331165	wordpools/wasnorm_wordpool_576.txt	LTP293	ltpFR2	22	13	LION	827	n/a	n/a	0	0	0
2666.16	n/a	REC_WORD	1333080	wordpools/wasnorm_wordpool_576.txt	LTP293	ltpFR2	22	13	BROTHER	179	n/a	n/a	0	0	0
2678.182	n/a	REC_WORD	1339091	wordpools/wasnorm_wordpool_576.txt	LTP293	ltpFR2	22	13	NIGHTGOWN	953	n/a	n/a	0	0	0
2679.09	n/a	REC_WORD	1339545	wordpools/wasnorm_wordpool_576.txt	LTP293	ltpFR2	22	13	MATTRESS	879	n/a	n/a	0	0	0
2682.93	n/a	REC_WORD	1341465	wordpools/wasnorm_wordpool_576.txt	LTP293	ltpFR2	22	13	PIZZA	1079	n/a	n/a	0	0	0
2692.036	n/a	REC_WORD	1346018	wordpools/wasnorm_wordpool_576.txt	LTP293	ltpFR2	22	13	FIREMAN	569	n/a	n/a	0	0	0
2692.928	n/a	REC_WORD	1346464	wordpools/wasnorm_wordpool_576.txt	LTP293	ltpFR2	22	13	FARMER	553	n/a	n/a	0	0	0
2744.116	n/a	WORD	1372058	wordpools/wasnorm_wordpool_576.txt	LTP293	ltpFR2	22	14	SWORD	1423	n/a	n/a	0	0	0
2746.82	n/a	WORD	1373410	wordpools/wasnorm_wordpool_576.txt	LTP293	ltpFR2	22	14	SNAKE	1333	n/a	n/a	0	0	0
2749.472	n/a	WORD	1374736	wordpools/wasnorm_wordpool_576.txt	LTP293	ltpFR2	22	14	MILK	895	n/a	n/a	0	0	0
2752.206	n/a	WORD	1376103	wordpools/wasnorm_wordpool_576.txt	LTP293	ltpFR2	22	14	SUSPECT	1415	n/a	n/a	0	0	0
2755.024	n/a	WORD	1377512	wordpools/wasnorm_wordpool_576.txt	LTP293	ltpFR2	22	14	PUDDING	1139	n/a	n/a	0	0	0
2757.762	n/a	WORD	1378881	wordpools/wasnorm_wordpool_576.txt	LTP293	ltpFR2	22	14	COCKTAIL	338	n/a	n/a	0	0	0
2760.512	n/a	WORD	1380256	wordpools/wasnorm_wordpool_576.txt	LTP293	ltpFR2	22	14	FLASK	576	n/a	n/a	0	0	0
2763.12	n/a	WORD	1381560	wordpools/wasnorm_wordpool_576.txt	LTP293	ltpFR2	22	14	SHORTS	1293	n/a	n/a	0	0	0
2765.9	n/a	WORD	1382950	wordpools/wasnorm_wordpool_576.txt	LTP293	ltpFR2	22	14	FRAME	600	n/a	n/a	0	0	0
2768.486	n/a	WORD	1384243	wordpools/wasnorm_wordpool_576.txt	LTP293	ltpFR2	22	14	CATCHER	258	n/a	n/a	0	0	0
2771.086	n/a	WORD	1385543	wordpools/wasnorm_wordpool_576.txt	LTP293	ltpFR2	22	14	PACKAGE	997	n/a	n/a	0	0	0
2773.574	n/a	WORD	1386787	wordpools/wasnorm_wordpool_576.txt	LTP293	ltpFR2	22	14	SEAL	1262	n/a	n/a	0	0	0
2776.242	n/a	WORD	1388121	wordpools/wasnorm_wordpool_576.txt	LTP293	ltpFR2	22	14	CHILD	299	n/a	n/a	0	0	0
2778.684	n/a	WORD	1389342	wordpools/wasnorm_wordpool_576.txt	LTP293	ltpFR2	22	14	PLAYGROUND	1087	n/a	n/a	0	0	0
2781.28	n/a	WORD	1390640	wordpools/wasnorm_wordpool_576.txt	LTP293	ltpFR2	22	14	POLICE	1098	n/a	n/a	0	0	0
2784.098	n/a	WORD	1392049	wordpools/wasnorm_wordpool_576.txt	LTP293	ltpFR2	22	14	JUDGE	761	n/a	n/a	0	0	0
2786.584	n/a	WORD	1393292	wordpools/wasnorm_wordpool_576.txt	LTP293	ltpFR2	22	14	RAZOR	1171	n/a	n/a	0	0	0
2789.086	n/a	WORD	1394543	wordpools/wasnorm_wordpool_576.txt	LTP293	ltpFR2	22	14	KNIFE	785	n/a	n/a	0	0	0
2791.512	n/a	WORD	1395756	wordpools/wasnorm_wordpool_576.txt	LTP293	ltpFR2	22	14	BRANDY	169	n/a	n/a	0	0	0
2793.946	n/a	WORD	1396973	wordpools/wasnorm_wordpool_576.txt	LTP293	ltpFR2	22	14	DRAWING	494	n/a	n/a	0	0	0
2796.548	n/a	WORD	1398274	wordpools/wasnorm_wordpool_576.txt	LTP293	ltpFR2	22	14	OUTFIT	988	n/a	n/a	0	0	0
2799.35	n/a	WORD	1399675	wordpools/wasnorm_wordpool_576.txt	LTP293	ltpFR2	22	14	SURVEY	1414	n/a	n/a	0	0	0
2802.12	n/a	WORD	1401060	wordpools/wasnorm_wordpool_576.txt	LTP293	ltpFR2	22	14	ARM	38	n/a	n/a	0	0	0
2804.672	n/a	WORD	1402336	wordpools/wasnorm_wordpool_576.txt	LTP293	ltpFR2	22	14	JELLO	754	n/a	n/a	0	0	0
2806.282	n/a	START	1403141	n/a	LTP293	ltpFR2	22	n/a	n/a	n/a	21	n/a	n/a	n/a	n/a
2807.378	n/a	DISTRACTOR	1403689	n/a	LTP293	ltpFR2	22	14	n/a	n/a	n/a	n/a	0	0	0
2807.382	n/a	PROB	1403691	n/a	LTP293	ltpFR2	22	n/a	n/a	n/a	21	21	8	4	9
2809.016	n/a	PROB	1404508	n/a	LTP293	ltpFR2	22	n/a	n/a	n/a	21	12	3	4	5
2810.818	n/a	PROB	1405409	n/a	LTP293	ltpFR2	22	n/a	n/a	n/a	21	21	4	8	9
2811.786	n/a	PROB	1405893	n/a	LTP293	ltpFR2	22	n/a	n/a	n/a	21	22	6	7	9
2812.936	n/a	PROB	1406468	n/a	LTP293	ltpFR2	22	n/a	n/a	n/a	21	13	1	7	5
2814.004	n/a	PROB	1407002	n/a	LTP293	ltpFR2	22	n/a	n/a	n/a	21	21	9	8	4
2815.34	n/a	PROB	1407670	n/a	LTP293	ltpFR2	22	n/a	n/a	n/a	21	9	3	2	4
2817.056	n/a	PROB	1408528	n/a	LTP293	ltpFR2	22	n/a	n/a	n/a	21	14	8	3	3
2820.442	n/a	PROB	1410221	n/a	LTP293	ltpFR2	22	n/a	n/a	n/a	21	16	6	5	5
2821.444	n/a	PROB	1410722	n/a	LTP293	ltpFR2	22	n/a	n/a	n/a	21	25	9	8	8
2823.394	n/a	PROB	1411697	n/a	LTP293	ltpFR2	22	n/a	n/a	n/a	21	20	9	5	6
2824.578	n/a	PROB	1412289	n/a	LTP293	ltpFR2	22	n/a	n/a	n/a	21	10	6	1	3
2825.746	n/a	PROB	1412873	n/a	LTP293	ltpFR2	22	n/a	n/a	n/a	21	15	5	2	8
2826.748	n/a	PROB	1413374	n/a	LTP293	ltpFR2	22	n/a	n/a	n/a	21	16	3	6	7
2828.264	n/a	PROB	1414132	n/a	LTP293	ltpFR2	22	n/a	n/a	n/a	21	6	4	1	1
2829.106	n/a	STOP	1414553	n/a	LTP293	ltpFR2	22	n/a	n/a	n/a	21	n/a	n/a	n/a	n/a
2832.104	n/a	REC_START	1416052	n/a	LTP293	ltpFR2	22	14	n/a	n/a	n/a	n/a	0	0	0
2832.718	n/a	REC_WORD	1416359	wordpools/wasnorm_wordpool_576.txt	LTP293	ltpFR2	22	14	SNAKE	1333	n/a	n/a	0	0	0
2833.746	n/a	REC_WORD	1416873	wordpools/wasnorm_wordpool_576.txt	LTP293	ltpFR2	22	14	SWORD	1423	n/a	n/a	0	0	0
2835.082	n/a	REC_WORD	1417541	wordpools/wasnorm_wordpool_576.txt	LTP293	ltpFR2	22	14	BLADE	134	n/a	n/a	0	0	0
2836.278	n/a	REC_WORD	1418139	wordpools/wasnorm_wordpool_576.txt	LTP293	ltpFR2	22	14	RAZOR	1171	n/a	n/a	0	0	0
2839.504	n/a	REC_WORD	1419752	wordpools/wasnorm_wordpool_576.txt	LTP293	ltpFR2	22	14	DRAWING	494	n/a	n/a	0	0	0
2841.026	n/a	REC_WORD	1420513	wordpools/wasnorm_wordpool_576.txt	LTP293	ltpFR2	22	14	COCKTAIL	338	n/a	n/a	0	0	0
2842.16	n/a	REC_WORD	1421080	wordpools/wasnorm_wordpool_576.txt	LTP293	ltpFR2	22	14	PUDDING	1139	n/a	n/a	0	0	0
2843.204	n/a	REC_WORD	1421602	wordpools/wasnorm_wordpool_576.txt	LTP293	ltpFR2	22	14	JELLO	754	n/a	n/a	0	0	0
2844.536	n/a	REC_WORD	1422268	wordpools/wasnorm_wordpool_576.txt	LTP293	ltpFR2	22	14	FLASK	576	n/a	n/a	0	0	0
2846.754	n/a	REC_WORD	1423377	wordpools/wasnorm_wordpool_576.txt	LTP293	ltpFR2	22	14	JUDGE	761	n/a	n/a	0	0	0
2847.684	n/a	REC_WORD	1423842	wordpools/wasnorm_wordpool_576.txt	LTP293	ltpFR2	22	14	PLAYGROUND	1087	n/a	n/a	0	0	0
2848.692	n/a	REC_WORD	1424346	wordpools/wasnorm_wordpool_576.txt	LTP293	ltpFR2	22	14	PACKAGE	997	n/a	n/a	0	0	0
2849.67	n/a	REC_WORD	1424835	wordpools/wasnorm_wordpool_576.txt	LTP293	ltpFR2	22	14	SEAL	1262	n/a	n/a	0	0	0
2850.972	n/a	REC_WORD	1425486	wordpools/wasnorm_wordpool_576.txt	LTP293	ltpFR2	22	14	CHILD	299	n/a	n/a	0	0	0
2861.926	n/a	REC_WORD	1430963	wordpools/wasnorm_wordpool_576.txt	LTP293	ltpFR2	22	14	PLAYGROUND	1087	n/a	n/a	0	0	0
2878.852	n/a	REC_WORD_VV	1439426	wordpools/wasnorm_wordpool_576.txt	LTP293	ltpFR2	22	14	<>	-1	n/a	n/a	0	0	0
2922.572	n/a	WORD	1461286	wordpools/wasnorm_wordpool_576.txt	LTP293	ltpFR2	22	15	PLUTO	1092	n/a	n/a	0	0	0
2925.158	n/a	WORD	1462579	wordpools/wasnorm_wordpool_576.txt	LTP293	ltpFR2	22	15	BLUEPRINT	142	n/a	n/a	0	0	0
2927.644	n/a	WORD	1463822	wordpools/wasnorm_wordpool_576.txt	LTP293	ltpFR2	22	15	BLENDER	136	n/a	n/a	0	0	0
2930.412	n/a	WORD	1465206	wordpools/wasnorm_wordpool_576.txt	LTP293	ltpFR2	22	15	SPONGE	1355	n/a	n/a	0	0	0
2933.198	n/a	WORD	1466599	wordpools/wasnorm_wordpool_576.txt	LTP293	ltpFR2	22	15	BROOK	177	n/a	n/a	0	0	0
2935.984	n/a	WORD	1467992	wordpools/wasnorm_wordpool_576.txt	LTP293	ltpFR2	22	15	AUTHOR	61	n/a	n/a	0	0	0
2938.6	n/a	WORD	1469300	wordpools/wasnorm_wordpool_576.txt	LTP293	ltpFR2	22	15	FLOWER	584	n/a	n/a	0	0	0
2941.07	n/a	WORD	1470535	wordpools/wasnorm_wordpool_576.txt	LTP293	ltpFR2	22	15	GOBLIN	645	n/a	n/a	0	0	0
2943.538	n/a	WORD	1471769	wordpools/wasnorm_wordpool_576.txt	LTP293	ltpFR2	22	15	CRAB	397	n/a	n/a	0	0	0
2946.326	n/a	WORD	1473163	wordpools/wasnorm_wordpool_576.txt	LTP293	ltpFR2	22	15	CLIMBER	323	n/a	n/a	0	0	0
2948.91	n/a	WORD	1474455	wordpools/wasnorm_wordpool_576.txt	LTP293	ltpFR2	22	15	NOVEL	960	n/a	n/a	0	0	0
2951.73	n/a	WORD	1475865	wordpools/wasnorm_wordpool_576.txt	LTP293	ltpFR2	22	15	SHRUB	1299	n/a	n/a	0	0	0
2954.23	n/a	WORD	1477115	wordpools/wasnorm_wordpool_576.txt	LTP293	ltpFR2	22	15	SAUSAGE	1238	n/a	n/a	0	0	0
2956.982	n/a	WORD	1478491	wordpools/wasnorm_wordpool_576.txt	LTP293	ltpFR2	22	15	PICNIC	1060	n/a	n/a	0	0	0
2959.668	n/a	WORD	1479834	wordpools/wasnorm_wordpool_576.txt	LTP293	ltpFR2	22	15	WAITER	1580	n/a	n/a	0	0	0
2962.454	n/a	WORD	1481227	wordpools/wasnorm_wordpool_576.txt	LTP293	ltpFR2	22	15	MACHINE	852	n/a	n/a	0	0	0
2965.022	n/a	WORD	1482511	wordpools/wasnorm_wordpool_576.txt	LTP293	ltpFR2	22	15	COMPASS	358	n/a	n/a	0	0	0
2967.792	n/a	WORD	1483896	wordpools/wasnorm_wordpool_576.txt	LTP293	ltpFR2	22	15	REBEL	1172	n/a	n/a	0	0	0
2970.492	n/a	WORD	1485246	wordpools/wasnorm_wordpool_576.txt	LTP293	ltpFR2	22	15	VENUS	1557	n/a	n/a	0	0	0
2973.112	n/a	WORD	1486556	wordpools/wasnorm_wordpool_576.txt	LTP293	ltpFR2	22	15	MONSTER	912	n/a	n/a	0	0	0
2975.582	n/a	WORD	1487791	wordpools/wasnorm_wordpool_576.txt	LTP293	ltpFR2	22	15	BASEMENT	94	n/a	n/a	0	0	0
2978.216	n/a	WORD	1489108	wordpools/wasnorm_wordpool_576.txt	LTP293	ltpFR2	22	15	WASHER	1592	n/a	n/a	0	0	0
2980.752	n/a	WORD	1490376	wordpools/wasnorm_wordpool_576.txt	LTP293	ltpFR2	22	15	CIGAR	308	n/a	n/a	0	0	0
2983.22	n/a	WORD	1491610	wordpools/wasnorm_wordpool_576.txt	LTP293	ltpFR2	22	15	GIRL	637	n/a	n/a	0	0	0
2984.826	n/a	START	1492413	n/a	LTP293	ltpFR2	22	n/a	n/a	n/a	22	n/a	n/a	n/a	n/a
2985.674	n/a	DISTRACTOR	1492837	n/a	LTP293	ltpFR2	22	15	n/a	n/a	n/a	n/a	0	0	0
2985.688	n/a	PROB	1492844	n/a	LTP293	ltpFR2	22	n/a	n/a	n/a	22	18	3	6	9
2986.724	n/a	PROB	1493362	n/a	LTP293	ltpFR2	22	n/a	n/a	n/a	22	18	7	3	8
2987.806	n/a	PROB	1493903	n/a	LTP293	ltpFR2	22	n/a	n/a	n/a	22	15	8	4	3
2988.858	n/a	PROB	1494429	n/a	LTP293	ltpFR2	22	n/a	n/a	n/a	22	21	6	7	8
2990.124	n/a	PROB	1495062	n/a	LTP293	ltpFR2	22	n/a	n/a	n/a	22	19	9	6	4
2991.158	n/a	PROB	1495579	n/a	LTP293	ltpFR2	22	n/a	n/a	n/a	22	23	9	9	5
2992.21	n/a	PROB	1496105	n/a	LTP293	ltpFR2	22	n/a	n/a	n/a	22	20	8	6	6
2993.342	n/a	PROB	1496671	n/a	LTP293	ltpFR2	22	n/a	n/a	n/a	22	11	1	2	8
2994.746	n/a	PROB	1497373	n/a	LTP293	ltpFR2	22	n/a	n/a	n/a	22	25	8	7	8
2995.912	n/a	PROB	1497956	n/a	LTP293	ltpFR2	22	n/a	n/a	n/a	22	20	5	7	8
2997.496	n/a	PROB	1498748	n/a	LTP293	ltpFR2	22	n/a	n/a	n/a	22	9	4	2	3
2999.666	n/a	PROB	1499833	n/a	LTP293	ltpFR2	22	n/a	n/a	n/a	22	6	1	1	4
3000.566	n/a	PROB	1500283	n/a	LTP293	ltpFR2	22	n/a	n/a	n/a	22	15	5	6	4
3001.95	n/a	PROB	1500975	n/a	LTP293	ltpFR2	22	n/a	n/a	n/a	22	14	6	4	4
3003.1	n/a	PROB	1501550	n/a	LTP293	ltpFR2	22	n/a	n/a	n/a	22	17	7	7	3
3004.452	n/a	PROB	1502226	n/a	LTP293	ltpFR2	22	n/a	n/a	n/a	22	18	6	4	8
3005.504	n/a	PROB	1502752	n/a	LTP293	ltpFR2	22	n/a	n/a	n/a	22	14	7	6	1
3006.606	n/a	PROB	1503303	n/a	LTP293	ltpFR2	22	n/a	n/a	n/a	22	20	6	5	8
3008.03	n/a	STOP	1504015	n/a	LTP293	ltpFR2	22	n/a	n/a	n/a	22	n/a	n/a	n/a	n/a
3010.674	n/a	REC_START	1505337	n/a	LTP293	ltpFR2	22	15	n/a	n/a	n/a	n/a	0	0	0
3011.094	n/a	REC_WORD	1505547	wordpools/wasnorm_wordpool_576.txt	LTP293	ltpFR2	22	15	WASHER	1592	n/a	n/a	0	0	0
3011.914	n/a	REC_WORD	1505957	wordpools/wasnorm_wordpool_576.txt	LTP293	ltpFR2	22	15	CIGAR	308	n/a	n/a	0	0	0
3030.206	n/a	REC_WORD	1515103	wordpools/wasnorm_wordpool_576.txt	LTP293	ltpFR2	22	15	BLUEPRINT	142	n/a	n/a	0	0	0
3033.864	n/a	REC_WORD	1516932	wordpools/wasnorm_wordpool_576.txt	LTP293	ltpFR2	22	15	FLOWER	584	n/a	n/a	0	0	0
3036.536	n/a	REC_WORD	1518268	wordpools/wasnorm_wordpool_576.txt	LTP293	ltpFR2	22	15	CRAB	397	n/a	n/a	0	0	0
3101.09	n/a	DISTRACTOR	1550545	n/a	LTP293	ltpFR2	22	16	n/a	n/a	n/a	n/a	0	0	0
3101.09	n/a	START	1550545	n/a	LTP293	ltpFR2	22	n/a	n/a	n/a	23	n/a	n/a	n/a	n/a
3101.106	n/a	PROB	1550553	n/a	LTP293	ltpFR2	22	n/a	n/a	n/a	23	18	2	7	9
3102.112	n/a	PROB	1551056	n/a	LTP293	ltpFR2	22	n/a	n/a	n/a	23	16	4	4	8
3103.23	n/a	PROB	1551615	n/a	LTP293	ltpFR2	22	n/a	n/a	n/a	23	17	8	8	1
3104.998	n/a	PROB	1552499	n/a	LTP293	ltpFR2	22	n/a	n/a	n/a	23	12	2	5	5
3106.016	n/a	PROB	1553008	n/a	LTP293	ltpFR2	22	n/a	n/a	n/a	23	9	1	2	6
3107.034	n/a	PROB	1553517	n/a	LTP293	ltpFR2	22	n/a	n/a	n/a	23	23	9	9	5
3108.266	n/a	PROB	1554133	n/a	LTP293	ltpFR2	22	n/a	n/a	n/a	23	18	4	8	6
3109.568	n/a	PROB	1554784	n/a	LTP293	ltpFR2	22	n/a	n/a	n/a	23	8	1	5	2
3110.654	n/a	PROB	1555327	n/a	LTP293	ltpFR2	22	n/a	n/a	n/a	23	21	6	9	6
3111.704	n/a	PROB	1555852	n/a	LTP293	ltpFR2	22	n/a	n/a	n/a	23	18	9	7	2
3112.79	n/a	PROB	1556395	n/a	LTP293	ltpFR2	22	n/a	n/a	n/a	23	16	3	6	7
3114.656	n/a	PROB	1557328	n/a	LTP293	ltpFR2	22	n/a	n/a	n/a	23	8	1	6	1
3115.524	n/a	PROB	1557762	n/a	LTP293	ltpFR2	22	n/a	n/a	n/a	23	11	5	2	4
3116.826	n/a	PROB	1558413	n/a	LTP293	ltpFR2	22	n/a	n/a	n/a	23	20	4	8	9
3117.988	n/a	PROB	1558994	n/a	LTP293	ltpFR2	22	n/a	n/a	n/a	23	12	1	4	7
3119.276	n/a	PROB	1559638	n/a	LTP293	ltpFR2	22	n/a	n/a	n/a	23	13	2	9	2
3120.84	n/a	PROB	1560420	n/a	LTP293	ltpFR2	22	n/a	n/a	n/a	23	24	7	8	9
3121.974	n/a	PROB	1560987	n/a	LTP293	ltpFR2	22	n/a	n/a	n/a	23	9	2	2	5
3123.208	n/a	PROB	1561604	n/a	LTP293	ltpFR2	22	n/a	n/a	n/a	23	17	9	3	5
3124.52	n/a	STOP	1562260	n/a	LTP293	ltpFR2	22	n/a	n/a	n/a	23	n/a	n/a	n/a	n/a
3126.262	n/a	WORD	1563131	wordpools/wasnorm_wordpool_576.txt	LTP293	ltpFR2	22	16	VAGRANT	1544	n/a	n/a	0	0	0
3128.914	n/a	WORD	1564457	wordpools/wasnorm_wordpool_576.txt	LTP293	ltpFR2	22	16	GHETTO	633	n/a	n/a	0	0	0
3131.468	n/a	WORD	1565734	wordpools/wasnorm_wordpool_576.txt	LTP293	ltpFR2	22	16	RELISH	1183	n/a	n/a	0	0	0
3134.234	n/a	WORD	1567117	wordpools/wasnorm_wordpool_576.txt	LTP293	ltpFR2	22	16	SHELF	1280	n/a	n/a	0	0	0
3136.922	n/a	WORD	1568461	wordpools/wasnorm_wordpool_576.txt	LTP293	ltpFR2	22	16	ICING	732	n/a	n/a	0	0	0
3139.356	n/a	WORD	1569678	wordpools/wasnorm_wordpool_576.txt	LTP293	ltpFR2	22	16	LILY	821	n/a	n/a	0	0	0
3141.926	n/a	WORD	1570963	wordpools/wasnorm_wordpool_576.txt	LTP293	ltpFR2	22	16	MAILBOX	857	n/a	n/a	0	0	0
3144.476	n/a	WORD	1572238	wordpools/wasnorm_wordpool_576.txt	LTP293	ltpFR2	22	16	FRIEND	606	n/a	n/a	0	0	0
3146.962	n/a	WORD	1573481	wordpools/wasnorm_wordpool_576.txt	LTP293	ltpFR2	22	16	HANDBAG	684	n/a	n/a	0	0	0
3149.382	n/a	WORD	1574691	wordpools/wasnorm_wordpool_576.txt	LTP293	ltpFR2	22	16	MAILMAN	858	n/a	n/a	0	0	0
3152.168	n/a	WORD	1576084	wordpools/wasnorm_wordpool_576.txt	LTP293	ltpFR2	22	16	GANGSTER	620	n/a	n/a	0	0	0
3154.788	n/a	WORD	1577394	wordpools/wasnorm_wordpool_576.txt	LTP293	ltpFR2	22	16	POWDER	1117	n/a	n/a	0	0	0
3157.288	n/a	WORD	1578644	wordpools/wasnorm_wordpool_576.txt	LTP293	ltpFR2	22	16	GAZELLE	628	n/a	n/a	0	0	0
3159.726	n/a	WORD	1579863	wordpools/wasnorm_wordpool_576.txt	LTP293	ltpFR2	22	16	SEAGULL	1261	n/a	n/a	0	0	0
3162.226	n/a	WORD	1581113	wordpools/wasnorm_wordpool_576.txt	LTP293	ltpFR2	22	16	SLUG	1329	n/a	n/a	0	0	0
3164.896	n/a	WORD	1582448	wordpools/wasnorm_wordpool_576.txt	LTP293	ltpFR2	22	16	TURTLE	1522	n/a	n/a	0	0	0
3167.448	n/a	WORD	1583724	wordpools/wasnorm_wordpool_576.txt	LTP293	ltpFR2	22	16	THREAD	1460	n/a	n/a	0	0	0
3170.182	n/a	WORD	1585091	wordpools/wasnorm_wordpool_576.txt	LTP293	ltpFR2	22	16	EYELASH	546	n/a	n/a	0	0	0
3172.634	n/a	WORD	1586317	wordpools/wasnorm_wordpool_576.txt	LTP293	ltpFR2	22	16	LIPSTICK	829	n/a	n/a	0	0	0
3175.236	n/a	WORD	1587618	wordpools/wasnorm_wordpool_576.txt	LTP293	ltpFR2	22	16	GUITAR	670	n/a	n/a	0	0	0
3177.706	n/a	WORD	1588853	wordpools/wasnorm_wordpool_576.txt	LTP293	ltpFR2	22	16	SHORTCAKE	1292	n/a	n/a	0	0	0
3180.474	n/a	WORD	1590237	wordpools/wasnorm_wordpool_576.txt	LTP293	ltpFR2	22	16	HIGHWAY	707	n/a	n/a	0	0	0
3183.108	n/a	WORD	1591554	wordpools/wasnorm_wordpool_576.txt	LTP293	ltpFR2	22	16	SPOUSE	1358	n/a	n/a	0	0	0
3185.846	n/a	WORD	1592923	wordpools/wasnorm_wordpool_576.txt	LTP293	ltpFR2	22	16	UNCLE	1536	n/a	n/a	0	0	0
3187.464	n/a	START	1593732	n/a	LTP293	ltpFR2	22	n/a	n/a	n/a	24	n/a	n/a	n/a	n/a
3188.466	n/a	DISTRACTOR	1594233	n/a	LTP293	ltpFR2	22	16	n/a	n/a	n/a	n/a	0	0	0
3188.48	n/a	PROB	1594240	n/a	LTP293	ltpFR2	22	n/a	n/a	n/a	24	21	7	8	5
3192.014	n/a	PROB	1596007	n/a	LTP293	ltpFR2	22	n/a	n/a	n/a	24	8	5	1	2
3193.052	n/a	PROB	1596526	n/a	LTP293	ltpFR2	22	n/a	n/a	n/a	24	19	4	6	9
3194.202	n/a	PROB	1597101	n/a	LTP293	ltpFR2	22	n/a	n/a	n/a	24	10	4	2	4
3195.252	n/a	PROB	1597626	n/a	LTP293	ltpFR2	22	n/a	n/a	n/a	24	13	5	4	4
3197.27	n/a	PROB	1598635	n/a	LTP293	ltpFR2	22	n/a	n/a	n/a	24	11	5	4	2
3198.454	n/a	PROB	1599227	n/a	LTP293	ltpFR2	22	n/a	n/a	n/a	24	13	4	2	7
3199.738	n/a	PROB	1599869	n/a	LTP293	ltpFR2	22	n/a	n/a	n/a	24	9	2	2	5
3200.958	n/a	PROB	1600479	n/a	LTP293	ltpFR2	22	n/a	n/a	n/a	24	16	9	6	1
3202.258	n/a	PROB	1601129	n/a	LTP293	ltpFR2	22	n/a	n/a	n/a	24	14	3	9	2
3203.844	n/a	PROB	1601922	n/a	LTP293	ltpFR2	22	n/a	n/a	n/a	24	9	4	2	3
3205.408	n/a	PROB	1602704	n/a	LTP293	ltpFR2	22	n/a	n/a	n/a	24	19	8	8	3
3206.462	n/a	PROB	1603231	n/a	LTP293	ltpFR2	22	n/a	n/a	n/a	24	15	5	8	2
3207.544	n/a	PROB	1603772	n/a	LTP293	ltpFR2	22	n/a	n/a	n/a	24	11	2	7	2
3209.028	n/a	PROB	1604514	n/a	LTP293	ltpFR2	22	n/a	n/a	n/a	24	19	9	8	2
3209.978	n/a	STOP	1604989	n/a	LTP293	ltpFR2	22	n/a	n/a	n/a	24	n/a	n/a	n/a	n/a
3213.218	n/a	REC_START	1606609	n/a	LTP293	ltpFR2	22	16	n/a	n/a	n/a	n/a	0	0	0
3213.536	n/a	REC_WORD	1606768	wordpools/wasnorm_wordpool_576.txt	LTP293	ltpFR2	22	16	SPOUSE	1358	n/a	n/a	0	0	0
3214.818	n/a	REC_WORD	1607409	wordpools/wasnorm_wordpool_576.txt	LTP293	ltpFR2	22	16	MAILMAN	858	n/a	n/a	0	0	0
3215.95	n/a	REC_WORD	1607975	wordpools/wasnorm_wordpool_576.txt	LTP293	ltpFR2	22	16	MAILBOX	857	n/a	n/a	0	0	0
3217.758	n/a	REC_WORD	1608879	wordpools/wasnorm_wordpool_576.txt	LTP293	ltpFR2	22	16	GHETTO	633	n/a	n/a	0	0	0
3218.804	n/a	REC_WORD	1609402	wordpools/wasnorm_wordpool_576.txt	LTP293	ltpFR2	22	16	GANGSTER	620	n/a	n/a	0	0	0
3220.14	n/a	REC_WORD	1610070	wordpools/wasnorm_wordpool_576.txt	LTP293	ltpFR2	22	16	POWDER	1117	n/a	n/a	0	0	0
3225.394	n/a	REC_WORD	1612697	wordpools/wasnorm_wordpool_576.txt	LTP293	ltpFR2	22	16	GAZELLE	628	n/a	n/a	0	0	0
3226.42	n/a	REC_WORD	1613210	wordpools/wasnorm_wordpool_576.txt	LTP293	ltpFR2	22	16	SEAGULL	1261	n/a	n/a	0	0	0
3228.022	n/a	REC_WORD	1614011	wordpools/wasnorm_wordpool_576.txt	LTP293	ltpFR2	22	16	THREAD	1460	n/a	n/a	0	0	0
3289.744	n/a	REST_REWET	1644872	n/a	LTP293	ltpFR2	22	16	n/a	n/a	n/a	n/a	0	0	0
3454.102	n/a	WORD	1727051	wordpools/wasnorm_wordpool_576.txt	LTP293	ltpFR2	22	17	CEILING	265	n/a	n/a	0	0	0
3456.728	n/a	WORD	1728364	wordpools/wasnorm_wordpool_576.txt	LTP293	ltpFR2	22	17	OINTMENT	974	n/a	n/a	0	0	0
3459.258	n/a	WORD	1729629	wordpools/wasnorm_wordpool_576.txt	LTP293	ltpFR2	22	17	VICTIM	1562	n/a	n/a	0	0	0
3461.86	n/a	WORD	1730930	wordpools/wasnorm_wordpool_576.txt	LTP293	ltpFR2	22	17	TORTOISE	1486	n/a	n/a	0	0	0
3464.294	n/a	WORD	1732147	wordpools/wasnorm_wordpool_576.txt	LTP293	ltpFR2	22	17	CORAL	378	n/a	n/a	0	0	0
3467.052	n/a	WORD	1733526	wordpools/wasnorm_wordpool_576.txt	LTP293	ltpFR2	22	17	MATCH	878	n/a	n/a	0	0	0
3469.504	n/a	WORD	1734752	wordpools/wasnorm_wordpool_576.txt	LTP293	ltpFR2	22	17	DRILL	497	n/a	n/a	0	0	0
3472.038	n/a	WORD	1736019	wordpools/wasnorm_wordpool_576.txt	LTP293	ltpFR2	22	17	STONE	1385	n/a	n/a	0	0	0
3474.81	n/a	WORD	1737405	wordpools/wasnorm_wordpool_576.txt	LTP293	ltpFR2	22	17	DRUG	501	n/a	n/a	0	0	0
3477.572	n/a	WORD	1738786	wordpools/wasnorm_wordpool_576.txt	LTP293	ltpFR2	22	17	BLACKBOARD	133	n/a	n/a	0	0	0
3480.142	n/a	WORD	1740071	wordpools/wasnorm_wordpool_576.txt	LTP293	ltpFR2	22	17	FLASHLIGHT	575	n/a	n/a	0	0	0
3482.86	n/a	WORD	1741430	wordpools/wasnorm_wordpool_576.txt	LTP293	ltpFR2	22	17	JURY	766	n/a	n/a	0	0	0
