onset	duration	trial_type	sample	stim_file	subject	experiment	session	trial	task	item_name	item_num	recog_resp	recog_conf	resp	answer	test_x	test_y	test_z	color_r	color_g	color_b	case	font
258.0	n/a	SESS_START	129000	n/a	LTP141	ltpFR	9	n/a	n/a	n/a	n/a	1	4	n/a	n/a	0	0	0	n/a	n/a	n/a	n/a	n/a
290.188	n/a	START	145094	n/a	LTP141	ltpFR	9	n/a	n/a	n/a	n/a	n/a	n/a	n/a	n/a	n/a	n/a	n/a	n/a	n/a	n/a	n/a	n/a
290.212	n/a	PROB	145106	n/a	LTP141	ltpFR	9	n/a	n/a	n/a	n/a	n/a	n/a	n/a	16	5	5	6	n/a	n/a	n/a	n/a	n/a
292.244	n/a	PROB	146122	n/a	LTP141	ltpFR	9	n/a	n/a	n/a	n/a	n/a	n/a	n/a	13	3	6	4	n/a	n/a	n/a	n/a	n/a
293.842	n/a	PROB	146921	n/a	LTP141	ltpFR	9	n/a	n/a	n/a	n/a	n/a	n/a	n/a	18	9	1	8	n/a	n/a	n/a	n/a	n/a
295.198	n/a	PROB	147599	n/a	LTP141	ltpFR	9	n/a	n/a	n/a	n/a	n/a	n/a	n/a	12	3	5	4	n/a	n/a	n/a	n/a	n/a
298.094	n/a	PROB	149047	n/a	LTP141	ltpFR	9	n/a	n/a	n/a	n/a	n/a	n/a	n/a	5	1	1	3	n/a	n/a	n/a	n/a	n/a
299.334	n/a	PROB	149667	n/a	LTP141	ltpFR	9	n/a	n/a	n/a	n/a	n/a	n/a	n/a	17	3	6	8	n/a	n/a	n/a	n/a	n/a
301.258	n/a	PROB	150629	n/a	LTP141	ltpFR	9	n/a	n/a	n/a	n/a	n/a	n/a	n/a	22	9	4	9	n/a	n/a	n/a	n/a	n/a
304.088	n/a	PROB	152044	n/a	LTP141	ltpFR	9	n/a	n/a	n/a	n/a	n/a	n/a	n/a	8	5	2	1	n/a	n/a	n/a	n/a	n/a
305.852	n/a	PROB	152926	n/a	LTP141	ltpFR	9	n/a	n/a	n/a	n/a	n/a	n/a	n/a	10	1	8	1	n/a	n/a	n/a	n/a	n/a
307.11	n/a	PROB	153555	n/a	LTP141	ltpFR	9	n/a	n/a	n/a	n/a	n/a	n/a	n/a	12	5	1	6	n/a	n/a	n/a	n/a	n/a
308.88	n/a	STOP	154440	n/a	LTP141	ltpFR	9	n/a	n/a	n/a	n/a	n/a	n/a	n/a	n/a	n/a	n/a	n/a	n/a	n/a	n/a	n/a	n/a
363.27	n/a	WORD	181635	wordpools/wasnorm_wordpool.txt	LTP141	ltpFR	9	1	0	WAVE	1596	0	n/a	1	n/a	0	0	0	0.422607421875	0.5869140625	0	lower	zerothre.ttf
367.4	n/a	WORD	183700	wordpools/wasnorm_wordpool.txt	LTP141	ltpFR	9	1	0	CREEK	404	n/a	n/a	1	n/a	0	0	0	0.422607421875	0.5869140625	0	lower	zerothre.ttf
371.494	n/a	WORD	185747	wordpools/wasnorm_wordpool.txt	LTP141	ltpFR	9	1	0	SCAPEGOAT	1244	n/a	n/a	1	n/a	0	0	0	0.422607421875	0.5869140625	0	lower	zerothre.ttf
375.606	n/a	WORD	187803	wordpools/wasnorm_wordpool.txt	LTP141	ltpFR	9	1	0	PEDESTRIAN	1038	n/a	n/a	1	n/a	0	0	0	0.422607421875	0.5869140625	0	lower	zerothre.ttf
379.41	n/a	WORD	189705	wordpools/wasnorm_wordpool.txt	LTP141	ltpFR	9	1	1	JUG	762	n/a	n/a	0	n/a	0	0	0	0.57763671875	0.412841796875	1	upper	amplitud.ttf
383.422	n/a	WORD	191711	wordpools/wasnorm_wordpool.txt	LTP141	ltpFR	9	1	1	ROBOT	1200	n/a	n/a	0	n/a	0	0	0	0.57763671875	0.412841796875	1	upper	amplitud.ttf
387.508	n/a	WORD	193754	wordpools/wasnorm_wordpool.txt	LTP141	ltpFR	9	1	1	PATROL	1027	n/a	n/a	1	n/a	0	0	0	0.57763671875	0.412841796875	1	upper	amplitud.ttf
391.396	n/a	WORD	195698	wordpools/wasnorm_wordpool.txt	LTP141	ltpFR	9	1	1	KNAPSACK	783	n/a	n/a	0	n/a	0	0	0	0.57763671875	0.412841796875	1	upper	amplitud.ttf
395.476	n/a	WORD	197738	wordpools/wasnorm_wordpool.txt	LTP141	ltpFR	9	1	0	GROCERIES	663	n/a	n/a	1	n/a	0	0	0	0.422607421875	0.5869140625	0	lower	zerothre.ttf
399.33	n/a	WORD	199665	wordpools/wasnorm_wordpool.txt	LTP141	ltpFR	9	1	0	TUBA	1515	n/a	n/a	1	n/a	0	0	0	0.422607421875	0.5869140625	0	lower	zerothre.ttf
403.476	n/a	WORD	201738	wordpools/wasnorm_wordpool.txt	LTP141	ltpFR	9	1	1	BIRD	129	n/a	n/a	1	n/a	0	0	0	0.57763671875	0.412841796875	1	upper	amplitud.ttf
407.462	n/a	WORD	203731	wordpools/wasnorm_wordpool.txt	LTP141	ltpFR	9	1	1	DOVE	491	n/a	n/a	1	n/a	0	0	0	0.57763671875	0.412841796875	1	upper	amplitud.ttf
411.442	n/a	WORD	205721	wordpools/wasnorm_wordpool.txt	LTP141	ltpFR	9	1	1	LINT	826	n/a	n/a	0	n/a	0	0	0	0.57763671875	0.412841796875	1	upper	amplitud.ttf
415.302	n/a	WORD	207651	wordpools/wasnorm_wordpool.txt	LTP141	ltpFR	9	1	1	UNIFORM	1539	n/a	n/a	0	n/a	0	0	0	0.57763671875	0.412841796875	1	upper	amplitud.ttf
419.448	n/a	WORD	209724	wordpools/wasnorm_wordpool.txt	LTP141	ltpFR	9	1	0	FLUTE	585	n/a	n/a	0	n/a	0	0	0	0.422607421875	0.5869140625	0	lower	zerothre.ttf
423.518	n/a	WORD	211759	wordpools/wasnorm_wordpool.txt	LTP141	ltpFR	9	1	0	NUN	962	n/a	n/a	1	n/a	0	0	0	0.422607421875	0.5869140625	0	lower	zerothre.ttf
426.524	n/a	START	213262	n/a	LTP141	ltpFR	9	n/a	n/a	n/a	n/a	n/a	n/a	n/a	n/a	n/a	n/a	n/a	n/a	n/a	n/a	n/a	n/a
427.68	n/a	PROB	213840	n/a	LTP141	ltpFR	9	n/a	n/a	n/a	n/a	n/a	n/a	n/a	15	5	2	8	n/a	n/a	n/a	n/a	n/a
431.01	n/a	PROB	215505	n/a	LTP141	ltpFR	9	n/a	n/a	n/a	n/a	n/a	n/a	n/a	4	1	1	2	n/a	n/a	n/a	n/a	n/a
432.292	n/a	PROB	216146	n/a	LTP141	ltpFR	9	n/a	n/a	n/a	n/a	n/a	n/a	n/a	16	1	7	8	n/a	n/a	n/a	n/a	n/a
433.954	n/a	STOP	216977	n/a	LTP141	ltpFR	9	n/a	n/a	n/a	n/a	n/a	n/a	n/a	n/a	n/a	n/a	n/a	n/a	n/a	n/a	n/a	n/a
436.372	n/a	REC_START	218186	n/a	LTP141	ltpFR	9	1	n/a	n/a	n/a	n/a	n/a	n/a	n/a	0	0	0	n/a	n/a	n/a	n/a	n/a
439.588	n/a	REC_WORD	219794	wordpools/wasnorm_wordpool.txt	LTP141	ltpFR	9	1	0	PEDESTRIAN	1038	n/a	n/a	1	n/a	0	0	0	n/a	n/a	n/a	n/a	n/a
443.052	n/a	REC_WORD	221526	wordpools/wasnorm_wordpool.txt	LTP141	ltpFR	9	1	0	GROCERIES	663	n/a	n/a	1	n/a	0	0	0	n/a	n/a	n/a	n/a	n/a
444.838	n/a	REC_WORD	222419	wordpools/wasnorm_wordpool.txt	LTP141	ltpFR	9	1	1	DOVE	491	n/a	n/a	1	n/a	0	0	0	n/a	n/a	n/a	n/a	n/a
446.568	n/a	REC_WORD	223284	wordpools/wasnorm_wordpool.txt	LTP141	ltpFR	9	1	1	BIRD	129	n/a	n/a	1	n/a	0	0	0	n/a	n/a	n/a	n/a	n/a
448.274	n/a	REC_WORD	224137	wordpools/wasnorm_wordpool.txt	LTP141	ltpFR	9	1	0	NUN	962	n/a	n/a	1	n/a	0	0	0	n/a	n/a	n/a	n/a	n/a
451.612	n/a	REC_WORD	225806	wordpools/wasnorm_wordpool.txt	LTP141	ltpFR	9	1	0	CREEK	404	n/a	n/a	1	n/a	0	0	0	n/a	n/a	n/a	n/a	n/a
454.056	n/a	REC_WORD	227028	wordpools/wasnorm_wordpool.txt	LTP141	ltpFR	9	1	0	WAVE	1596	n/a	n/a	1	n/a	0	0	0	n/a	n/a	n/a	n/a	n/a
460.082	n/a	REC_WORD	230041	wordpools/wasnorm_wordpool.txt	LTP141	ltpFR	9	1	1	LINT	826	n/a	n/a	0	n/a	0	0	0	n/a	n/a	n/a	n/a	n/a
462.73	n/a	REC_WORD	231365	wordpools/wasnorm_wordpool.txt	LTP141	ltpFR	9	1	0	FLUTE	585	n/a	n/a	0	n/a	0	0	0	n/a	n/a	n/a	n/a	n/a
471.906	n/a	REC_WORD	235953	wordpools/wasnorm_wordpool.txt	LTP141	ltpFR	9	1	0	TUBA	1515	n/a	n/a	1	n/a	0	0	0	n/a	n/a	n/a	n/a	n/a
518.102	n/a	START	259051	n/a	LTP141	ltpFR	9	n/a	n/a	n/a	n/a	n/a	n/a	n/a	n/a	n/a	n/a	n/a	n/a	n/a	n/a	n/a	n/a
519.608	n/a	PROB	259804	n/a	LTP141	ltpFR	9	n/a	n/a	n/a	n/a	n/a	n/a	n/a	18	7	3	8	n/a	n/a	n/a	n/a	n/a
521.514	n/a	PROB	260757	n/a	LTP141	ltpFR	9	n/a	n/a	n/a	n/a	n/a	n/a	n/a	13	5	7	1	n/a	n/a	n/a	n/a	n/a
526.102	n/a	STOP	263051	n/a	LTP141	ltpFR	9	n/a	n/a	n/a	n/a	n/a	n/a	n/a	n/a	n/a	n/a	n/a	n/a	n/a	n/a	n/a	n/a
527.29	n/a	WORD	263645	wordpools/wasnorm_wordpool.txt	LTP141	ltpFR	9	2	1	SIGN	1305	n/a	n/a	0	n/a	0	0	0	0.57763671875	0.412841796875	1	upper	amplitud.ttf
530.296	n/a	START	265148	n/a	LTP141	ltpFR	9	n/a	n/a	n/a	n/a	n/a	n/a	n/a	n/a	n/a	n/a	n/a	n/a	n/a	n/a	n/a	n/a
531.186	n/a	PROB	265593	n/a	LTP141	ltpFR	9	n/a	n/a	n/a	n/a	n/a	n/a	n/a	12	3	7	2	n/a	n/a	n/a	n/a	n/a
532.826	n/a	PROB	266413	n/a	LTP141	ltpFR	9	n/a	n/a	n/a	n/a	n/a	n/a	n/a	22	8	4	9	n/a	n/a	n/a	n/a	n/a
536.322	n/a	PROB	268161	n/a	LTP141	ltpFR	9	n/a	n/a	n/a	n/a	n/a	n/a	n/a	11	1	5	5	n/a	n/a	n/a	n/a	n/a
537.476	n/a	STOP	268738	n/a	LTP141	ltpFR	9	n/a	n/a	n/a	n/a	n/a	n/a	n/a	n/a	n/a	n/a	n/a	n/a	n/a	n/a	n/a	n/a
539.502	n/a	WORD	269751	wordpools/wasnorm_wordpool.txt	LTP141	ltpFR	9	2	1	WIRE	1616	n/a	n/a	0	n/a	0	0	0	0.57763671875	0.412841796875	1	upper	amplitud.ttf
542.506	n/a	START	271253	n/a	LTP141	ltpFR	9	n/a	n/a	n/a	n/a	n/a	n/a	n/a	n/a	n/a	n/a	n/a	n/a	n/a	n/a	n/a	n/a
543.482	n/a	PROB	271741	n/a	LTP141	ltpFR	9	n/a	n/a	n/a	n/a	n/a	n/a	n/a	15	5	7	3	n/a	n/a	n/a	n/a	n/a
544.862	n/a	PROB	272431	n/a	LTP141	ltpFR	9	n/a	n/a	n/a	n/a	n/a	n/a	n/a	11	1	6	4	n/a	n/a	n/a	n/a	n/a
546.118	n/a	PROB	273059	n/a	LTP141	ltpFR	9	n/a	n/a	n/a	n/a	n/a	n/a	n/a	19	4	9	6	n/a	n/a	n/a	n/a	n/a
548.008	n/a	PROB	274004	n/a	LTP141	ltpFR	9	n/a	n/a	n/a	n/a	n/a	n/a	n/a	16	1	9	6	n/a	n/a	n/a	n/a	n/a
549.284	n/a	STOP	274642	n/a	LTP141	ltpFR	9	n/a	n/a	n/a	n/a	n/a	n/a	n/a	n/a	n/a	n/a	n/a	n/a	n/a	n/a	n/a	n/a
551.39	n/a	WORD	275695	wordpools/wasnorm_wordpool.txt	LTP141	ltpFR	9	2	1	BOUQUET	157	n/a	n/a	0	n/a	0	0	0	0.57763671875	0.412841796875	1	upper	amplitud.ttf
554.394	n/a	START	277197	n/a	LTP141	ltpFR	9	n/a	n/a	n/a	n/a	n/a	n/a	n/a	n/a	n/a	n/a	n/a	n/a	n/a	n/a	n/a	n/a
555.55	n/a	PROB	277775	n/a	LTP141	ltpFR	9	n/a	n/a	n/a	n/a	n/a	n/a	n/a	16	7	4	5	n/a	n/a	n/a	n/a	n/a
557.972	n/a	PROB	278986	n/a	LTP141	ltpFR	9	n/a	n/a	n/a	n/a	n/a	n/a	n/a	17	2	6	9	n/a	n/a	n/a	n/a	n/a
562.394	n/a	STOP	281197	n/a	LTP141	ltpFR	9	n/a	n/a	n/a	n/a	n/a	n/a	n/a	n/a	n/a	n/a	n/a	n/a	n/a	n/a	n/a	n/a
563.408	n/a	WORD	281704	wordpools/wasnorm_wordpool.txt	LTP141	ltpFR	9	2	1	VIOLIN	1571	n/a	n/a	0	n/a	0	0	0	0.57763671875	0.412841796875	1	upper	amplitud.ttf
566.414	n/a	START	283207	n/a	LTP141	ltpFR	9	n/a	n/a	n/a	n/a	n/a	n/a	n/a	n/a	n/a	n/a	n/a	n/a	n/a	n/a	n/a	n/a
567.304	n/a	PROB	283652	n/a	LTP141	ltpFR	9	n/a	n/a	n/a	n/a	n/a	n/a	n/a	21	8	5	8	n/a	n/a	n/a	n/a	n/a
569.36	n/a	PROB	284680	n/a	LTP141	ltpFR	9	n/a	n/a	n/a	n/a	n/a	n/a	n/a	16	9	2	5	n/a	n/a	n/a	n/a	n/a
570.808	n/a	PROB	285404	n/a	LTP141	ltpFR	9	n/a	n/a	n/a	n/a	n/a	n/a	n/a	13	6	2	5	n/a	n/a	n/a	n/a	n/a
573.18	n/a	STOP	286590	n/a	LTP141	ltpFR	9	n/a	n/a	n/a	n/a	n/a	n/a	n/a	n/a	n/a	n/a	n/a	n/a	n/a	n/a	n/a	n/a
575.236	n/a	WORD	287618	wordpools/wasnorm_wordpool.txt	LTP141	ltpFR	9	2	0	SERPENT	1270	n/a	n/a	1	n/a	0	0	0	0.422607421875	0.5869140625	0	lower	zerothre.ttf
578.242	n/a	START	289121	n/a	LTP141	ltpFR	9	n/a	n/a	n/a	n/a	n/a	n/a	n/a	n/a	n/a	n/a	n/a	n/a	n/a	n/a	n/a	n/a
579.164	n/a	PROB	289582	n/a	LTP141	ltpFR	9	n/a	n/a	n/a	n/a	n/a	n/a	n/a	15	1	6	8	n/a	n/a	n/a	n/a	n/a
581.03	n/a	PROB	290515	n/a	LTP141	ltpFR	9	n/a	n/a	n/a	n/a	n/a	n/a	n/a	14	5	2	7	n/a	n/a	n/a	n/a	n/a
582.836	n/a	PROB	291418	n/a	LTP141	ltpFR	9	n/a	n/a	n/a	n/a	n/a	n/a	n/a	10	5	1	4	n/a	n/a	n/a	n/a	n/a
586.242	n/a	STOP	293121	n/a	LTP141	ltpFR	9	n/a	n/a	n/a	n/a	n/a	n/a	n/a	n/a	n/a	n/a	n/a	n/a	n/a	n/a	n/a	n/a
587.164	n/a	WORD	293582	wordpools/wasnorm_wordpool.txt	LTP141	ltpFR	9	2	0	SNACK	1331	n/a	n/a	0	n/a	0	0	0	0.422607421875	0.5869140625	0	lower	zerothre.ttf
590.17	n/a	START	295085	n/a	LTP141	ltpFR	9	n/a	n/a	n/a	n/a	n/a	n/a	n/a	n/a	n/a	n/a	n/a	n/a	n/a	n/a	n/a	n/a
590.984	n/a	PROB	295492	n/a	LTP141	ltpFR	9	n/a	n/a	n/a	n/a	n/a	n/a	n/a	8	1	6	1	n/a	n/a	n/a	n/a	n/a
592.292	n/a	PROB	296146	n/a	LTP141	ltpFR	9	n/a	n/a	n/a	n/a	n/a	n/a	n/a	16	4	6	6	n/a	n/a	n/a	n/a	n/a
593.732	n/a	PROB	296866	n/a	LTP141	ltpFR	9	n/a	n/a	n/a	n/a	n/a	n/a	n/a	14	3	2	9	n/a	n/a	n/a	n/a	n/a
598.17	n/a	STOP	299085	n/a	LTP141	ltpFR	9	n/a	n/a	n/a	n/a	n/a	n/a	n/a	n/a	n/a	n/a	n/a	n/a	n/a	n/a	n/a	n/a
599.016	n/a	WORD	299508	wordpools/wasnorm_wordpool.txt	LTP141	ltpFR	9	2	0	ORCHID	982	n/a	n/a	0	n/a	0	0	0	0.422607421875	0.5869140625	0	lower	zerothre.ttf
602.022	n/a	START	301011	n/a	LTP141	ltpFR	9	n/a	n/a	n/a	n/a	n/a	n/a	n/a	n/a	n/a	n/a	n/a	n/a	n/a	n/a	n/a	n/a
603.128	n/a	PROB	301564	n/a	LTP141	ltpFR	9	n/a	n/a	n/a	n/a	n/a	n/a	n/a	12	6	3	3	n/a	n/a	n/a	n/a	n/a
604.934	n/a	PROB	302467	n/a	LTP141	ltpFR	9	n/a	n/a	n/a	n/a	n/a	n/a	n/a	12	4	7	1	n/a	n/a	n/a	n/a	n/a
607.198	n/a	PROB	303599	n/a	LTP141	ltpFR	9	n/a	n/a	n/a	n/a	n/a	n/a	n/a	5	1	2	2	n/a	n/a	n/a	n/a	n/a
610.022	n/a	STOP	305011	n/a	LTP141	ltpFR	9	n/a	n/a	n/a	n/a	n/a	n/a	n/a	n/a	n/a	n/a	n/a	n/a	n/a	n/a	n/a	n/a
611.186	n/a	WORD	305593	wordpools/wasnorm_wordpool.txt	LTP141	ltpFR	9	2	0	VICTIM	1562	n/a	n/a	1	n/a	0	0	0	0.422607421875	0.5869140625	0	lower	zerothre.ttf
614.192	n/a	START	307096	n/a	LTP141	ltpFR	9	n/a	n/a	n/a	n/a	n/a	n/a	n/a	n/a	n/a	n/a	n/a	n/a	n/a	n/a	n/a	n/a
615.132	n/a	PROB	307566	n/a	LTP141	ltpFR	9	n/a	n/a	n/a	n/a	n/a	n/a	n/a	18	5	8	5	n/a	n/a	n/a	n/a	n/a
616.554	n/a	PROB	308277	n/a	LTP141	ltpFR	9	n/a	n/a	n/a	n/a	n/a	n/a	n/a	15	6	7	2	n/a	n/a	n/a	n/a	n/a
618.578	n/a	PROB	309289	n/a	LTP141	ltpFR	9	n/a	n/a	n/a	n/a	n/a	n/a	n/a	12	1	8	3	n/a	n/a	n/a	n/a	n/a
620.418	n/a	PROB	310209	n/a	LTP141	ltpFR	9	n/a	n/a	n/a	n/a	n/a	n/a	n/a	14	6	1	7	n/a	n/a	n/a	n/a	n/a
621.844	n/a	STOP	310922	n/a	LTP141	ltpFR	9	n/a	n/a	n/a	n/a	n/a	n/a	n/a	n/a	n/a	n/a	n/a	n/a	n/a	n/a	n/a	n/a
623.064	n/a	WORD	311532	wordpools/wasnorm_wordpool.txt	LTP141	ltpFR	9	2	0	OUTLAW	989	n/a	n/a	1	n/a	0	0	0	0.422607421875	0.5869140625	0	lower	zerothre.ttf
626.07	n/a	START	313035	n/a	LTP141	ltpFR	9	n/a	n/a	n/a	n/a	n/a	n/a	n/a	n/a	n/a	n/a	n/a	n/a	n/a	n/a	n/a	n/a
626.952	n/a	PROB	313476	n/a	LTP141	ltpFR	9	n/a	n/a	n/a	n/a	n/a	n/a	n/a	22	7	6	5	n/a	n/a	n/a	n/a	n/a
629.806	n/a	PROB	314903	n/a	LTP141	ltpFR	9	n/a	n/a	n/a	n/a	n/a	n/a	n/a	9	1	7	1	n/a	n/a	n/a	n/a	n/a
631.048	n/a	PROB	315524	n/a	LTP141	ltpFR	9	n/a	n/a	n/a	n/a	n/a	n/a	n/a	20	8	8	4	n/a	n/a	n/a	n/a	n/a
632.562	n/a	PROB	316281	n/a	LTP141	ltpFR	9	n/a	n/a	n/a	n/a	n/a	n/a	n/a	11	1	1	9	n/a	n/a	n/a	n/a	n/a
633.742	n/a	STOP	316871	n/a	LTP141	ltpFR	9	n/a	n/a	n/a	n/a	n/a	n/a	n/a	n/a	n/a	n/a	n/a	n/a	n/a	n/a	n/a	n/a
635.26	n/a	WORD	317630	wordpools/wasnorm_wordpool.txt	LTP141	ltpFR	9	2	0	EAGLE	512	n/a	n/a	1	n/a	0	0	0	0.422607421875	0.5869140625	0	lower	zerothre.ttf
638.264	n/a	START	319132	n/a	LTP141	ltpFR	9	n/a	n/a	n/a	n/a	n/a	n/a	n/a	n/a	n/a	n/a	n/a	n/a	n/a	n/a	n/a	n/a
639.072	n/a	PROB	319536	n/a	LTP141	ltpFR	9	n/a	n/a	n/a	n/a	n/a	n/a	n/a	19	9	7	3	n/a	n/a	n/a	n/a	n/a
640.47	n/a	PROB	320235	n/a	LTP141	ltpFR	9	n/a	n/a	n/a	n/a	n/a	n/a	n/a	12	2	3	7	n/a	n/a	n/a	n/a	n/a
642.5	n/a	PROB	321250	n/a	LTP141	ltpFR	9	n/a	n/a	n/a	n/a	n/a	n/a	n/a	20	7	6	7	n/a	n/a	n/a	n/a	n/a
646.264	n/a	STOP	323132	n/a	LTP141	ltpFR	9	n/a	n/a	n/a	n/a	n/a	n/a	n/a	n/a	n/a	n/a	n/a	n/a	n/a	n/a	n/a	n/a
647.446	n/a	WORD	323723	wordpools/wasnorm_wordpool.txt	LTP141	ltpFR	9	2	1	PERCH	1048	n/a	n/a	0	n/a	0	0	0	0.57763671875	0.412841796875	1	upper	amplitud.ttf
650.452	n/a	START	325226	n/a	LTP141	ltpFR	9	n/a	n/a	n/a	n/a	n/a	n/a	n/a	n/a	n/a	n/a	n/a	n/a	n/a	n/a	n/a	n/a
651.548	n/a	PROB	325774	n/a	LTP141	ltpFR	9	n/a	n/a	n/a	n/a	n/a	n/a	n/a	10	2	2	6	n/a	n/a	n/a	n/a	n/a
653.704	n/a	PROB	326852	n/a	LTP141	ltpFR	9	n/a	n/a	n/a	n/a	n/a	n/a	n/a	10	7	2	1	n/a	n/a	n/a	n/a	n/a
655.194	n/a	PROB	327597	n/a	LTP141	ltpFR	9	n/a	n/a	n/a	n/a	n/a	n/a	n/a	14	1	6	7	n/a	n/a	n/a	n/a	n/a
657.23	n/a	STOP	328615	n/a	LTP141	ltpFR	9	n/a	n/a	n/a	n/a	n/a	n/a	n/a	n/a	n/a	n/a	n/a	n/a	n/a	n/a	n/a	n/a
659.34	n/a	WORD	329670	wordpools/wasnorm_wordpool.txt	LTP141	ltpFR	9	2	1	CLAM	315	n/a	n/a	1	n/a	0	0	0	0.57763671875	0.412841796875	1	upper	amplitud.ttf
662.344	n/a	START	331172	n/a	LTP141	ltpFR	9	n/a	n/a	n/a	n/a	n/a	n/a	n/a	n/a	n/a	n/a	n/a	n/a	n/a	n/a	n/a	n/a
663.226	n/a	PROB	331613	n/a	LTP141	ltpFR	9	n/a	n/a	n/a	n/a	n/a	n/a	n/a	16	8	1	7	n/a	n/a	n/a	n/a	n/a
664.85	n/a	PROB	332425	n/a	LTP141	ltpFR	9	n/a	n/a	n/a	n/a	n/a	n/a	n/a	16	6	1	9	n/a	n/a	n/a	n/a	n/a
666.864	n/a	PROB	333432	n/a	LTP141	ltpFR	9	n/a	n/a	n/a	n/a	n/a	n/a	n/a	17	3	6	8	n/a	n/a	n/a	n/a	n/a
669.542	n/a	STOP	334771	n/a	LTP141	ltpFR	9	n/a	n/a	n/a	n/a	n/a	n/a	n/a	n/a	n/a	n/a	n/a	n/a	n/a	n/a	n/a	n/a
671.234	n/a	WORD	335617	wordpools/wasnorm_wordpool.txt	LTP141	ltpFR	9	2	0	ALMOND	18	n/a	n/a	0	n/a	0	0	0	0.422607421875	0.5869140625	0	lower	zerothre.ttf
674.24	n/a	START	337120	n/a	LTP141	ltpFR	9	n/a	n/a	n/a	n/a	n/a	n/a	n/a	n/a	n/a	n/a	n/a	n/a	n/a	n/a	n/a	n/a
675.362	n/a	PROB	337681	n/a	LTP141	ltpFR	9	n/a	n/a	n/a	n/a	n/a	n/a	n/a	20	7	9	4	n/a	n/a	n/a	n/a	n/a
679.026	n/a	PROB	339513	n/a	LTP141	ltpFR	9	n/a	n/a	n/a	n/a	n/a	n/a	n/a	12	6	2	5	n/a	n/a	n/a	n/a	n/a
681.942	n/a	STOP	340971	n/a	LTP141	ltpFR	9	n/a	n/a	n/a	n/a	n/a	n/a	n/a	n/a	n/a	n/a	n/a	n/a	n/a	n/a	n/a	n/a
683.286	n/a	WORD	341643	wordpools/wasnorm_wordpool.txt	LTP141	ltpFR	9	2	0	KITCHEN	778	n/a	n/a	1	n/a	0	0	0	0.422607421875	0.5869140625	0	lower	zerothre.ttf
686.292	n/a	START	343146	n/a	LTP141	ltpFR	9	n/a	n/a	n/a	n/a	n/a	n/a	n/a	n/a	n/a	n/a	n/a	n/a	n/a	n/a	n/a	n/a
687.466	n/a	PROB	343733	n/a	LTP141	ltpFR	9	n/a	n/a	n/a	n/a	n/a	n/a	n/a	15	2	8	5	n/a	n/a	n/a	n/a	n/a
688.838	n/a	PROB	344419	n/a	LTP141	ltpFR	9	n/a	n/a	n/a	n/a	n/a	n/a	n/a	10	8	1	1	n/a	n/a	n/a	n/a	n/a
690.37	n/a	PROB	345185	n/a	LTP141	ltpFR	9	n/a	n/a	n/a	n/a	n/a	n/a	n/a	18	7	7	4	n/a	n/a	n/a	n/a	n/a
691.776	n/a	PROB	345888	n/a	LTP141	ltpFR	9	n/a	n/a	n/a	n/a	n/a	n/a	n/a	10	1	1	8	n/a	n/a	n/a	n/a	n/a
692.894	n/a	STOP	346447	n/a	LTP141	ltpFR	9	n/a	n/a	n/a	n/a	n/a	n/a	n/a	n/a	n/a	n/a	n/a	n/a	n/a	n/a	n/a	n/a
695.24	n/a	WORD	347620	wordpools/wasnorm_wordpool.txt	LTP141	ltpFR	9	2	1	STEREO	1378	n/a	n/a	0	n/a	0	0	0	0.57763671875	0.412841796875	1	upper	amplitud.ttf
698.244	n/a	START	349122	n/a	LTP141	ltpFR	9	n/a	n/a	n/a	n/a	n/a	n/a	n/a	n/a	n/a	n/a	n/a	n/a	n/a	n/a	n/a	n/a
699.26	n/a	PROB	349630	n/a	LTP141	ltpFR	9	n/a	n/a	n/a	n/a	n/a	n/a	n/a	18	7	2	9	n/a	n/a	n/a	n/a	n/a
701.484	n/a	PROB	350742	n/a	LTP141	ltpFR	9	n/a	n/a	n/a	n/a	n/a	n/a	n/a	19	7	7	5	n/a	n/a	n/a	n/a	n/a
703.348	n/a	PROB	351674	n/a	LTP141	ltpFR	9	n/a	n/a	n/a	n/a	n/a	n/a	n/a	11	5	1	5	n/a	n/a	n/a	n/a	n/a
706.246	n/a	STOP	353123	n/a	LTP141	ltpFR	9	n/a	n/a	n/a	n/a	n/a	n/a	n/a	n/a	n/a	n/a	n/a	n/a	n/a	n/a	n/a	n/a
707.344	n/a	WORD	353672	wordpools/wasnorm_wordpool.txt	LTP141	ltpFR	9	2	1	SAPPHIRE	1234	n/a	n/a	0	n/a	0	0	0	0.57763671875	0.412841796875	1	upper	amplitud.ttf
710.348	n/a	START	355174	n/a	LTP141	ltpFR	9	n/a	n/a	n/a	n/a	n/a	n/a	n/a	n/a	n/a	n/a	n/a	n/a	n/a	n/a	n/a	n/a
711.28	n/a	PROB	355640	n/a	LTP141	ltpFR	9	n/a	n/a	n/a	n/a	n/a	n/a	n/a	19	3	9	7	n/a	n/a	n/a	n/a	n/a
713.328	n/a	PROB	356664	n/a	LTP141	ltpFR	9	n/a	n/a	n/a	n/a	n/a	n/a	n/a	16	3	7	6	n/a	n/a	n/a	n/a	n/a
715.46	n/a	PROB	357730	n/a	LTP141	ltpFR	9	n/a	n/a	n/a	n/a	n/a	n/a	n/a	14	2	7	5	n/a	n/a	n/a	n/a	n/a
717.086	n/a	STOP	358543	n/a	LTP141	ltpFR	9	n/a	n/a	n/a	n/a	n/a	n/a	n/a	n/a	n/a	n/a	n/a	n/a	n/a	n/a	n/a	n/a
720.27	n/a	REC_START	360135	n/a	LTP141	ltpFR	9	2	n/a	n/a	n/a	n/a	n/a	n/a	n/a	0	0	0	n/a	n/a	n/a	n/a	n/a
723.918	n/a	REC_WORD	361959	wordpools/wasnorm_wordpool.txt	LTP141	ltpFR	9	2	1	SAPPHIRE	1234	n/a	n/a	0	n/a	0	0	0	n/a	n/a	n/a	n/a	n/a
727.664	n/a	REC_WORD	363832	wordpools/wasnorm_wordpool.txt	LTP141	ltpFR	9	2	1	SIGN	1305	n/a	n/a	0	n/a	0	0	0	n/a	n/a	n/a	n/a	n/a
763.238	n/a	REC_WORD	381619	wordpools/wasnorm_wordpool.txt	LTP141	ltpFR	9	2	0	ORCHID	982	n/a	n/a	0	n/a	0	0	0	n/a	n/a	n/a	n/a	n/a
803.858	n/a	WORD	401929	wordpools/wasnorm_wordpool.txt	LTP141	ltpFR	9	3	1	OUTFIT	988	n/a	n/a	0	n/a	0	0	0	0.57763671875	0.412841796875	1	upper	amplitud.ttf
807.762	n/a	WORD	403881	wordpools/wasnorm_wordpool.txt	LTP141	ltpFR	9	3	1	HOOK	715	n/a	n/a	0	n/a	0	0	0	0.57763671875	0.412841796875	1	upper	amplitud.ttf
811.964	n/a	WORD	405982	wordpools/wasnorm_wordpool.txt	LTP141	ltpFR	9	3	1	FACE	547	n/a	n/a	1	n/a	0	0	0	0.57763671875	0.412841796875	1	upper	amplitud.ttf
816.118	n/a	WORD	408059	wordpools/wasnorm_wordpool.txt	LTP141	ltpFR	9	3	1	SICKLE	1302	n/a	n/a	0	n/a	0	0	0	0.57763671875	0.412841796875	1	upper	amplitud.ttf
820.322	n/a	WORD	410161	wordpools/wasnorm_wordpool.txt	LTP141	ltpFR	9	3	1	HAMMER	680	n/a	n/a	0	n/a	0	0	0	0.57763671875	0.412841796875	1	upper	amplitud.ttf
824.392	n/a	WORD	412196	wordpools/wasnorm_wordpool.txt	LTP141	ltpFR	9	3	1	SCALE	1241	n/a	n/a	0	n/a	0	0	0	0.57763671875	0.412841796875	1	upper	amplitud.ttf
828.32	n/a	WORD	414160	wordpools/wasnorm_wordpool.txt	LTP141	ltpFR	9	3	1	SCIENTIST	1249	n/a	n/a	1	n/a	0	0	0	0.57763671875	0.412841796875	1	upper	amplitud.ttf
832.4	n/a	WORD	416200	wordpools/wasnorm_wordpool.txt	LTP141	ltpFR	9	3	1	BADGE	68	n/a	n/a	0	n/a	0	0	0	0.57763671875	0.412841796875	1	upper	amplitud.ttf
836.254	n/a	WORD	418127	wordpools/wasnorm_wordpool.txt	LTP141	ltpFR	9	3	1	SHEPHERD	1283	n/a	n/a	1	n/a	0	0	0	0.57763671875	0.412841796875	1	upper	amplitud.ttf
840.392	n/a	WORD	420196	wordpools/wasnorm_wordpool.txt	LTP141	ltpFR	9	3	1	EYELASH	546	n/a	n/a	0	n/a	0	0	0	0.57763671875	0.412841796875	1	upper	amplitud.ttf
844.494	n/a	WORD	422247	wordpools/wasnorm_wordpool.txt	LTP141	ltpFR	9	3	1	ROOM	1206	n/a	n/a	0	n/a	0	0	0	0.57763671875	0.412841796875	1	upper	amplitud.ttf
848.406	n/a	WORD	424203	wordpools/wasnorm_wordpool.txt	LTP141	ltpFR	9	3	1	OZONE	996	n/a	n/a	0	n/a	0	0	0	0.57763671875	0.412841796875	1	upper	amplitud.ttf
852.61	n/a	WORD	426305	wordpools/wasnorm_wordpool.txt	LTP141	ltpFR	9	3	1	BUS	201	n/a	n/a	0	n/a	0	0	0	0.57763671875	0.412841796875	1	upper	amplitud.ttf
856.548	n/a	WORD	428274	wordpools/wasnorm_wordpool.txt	LTP141	ltpFR	9	3	1	BATTERY	101	n/a	n/a	0	n/a	0	0	0	0.57763671875	0.412841796875	1	upper	amplitud.ttf
860.726	n/a	WORD	430363	wordpools/wasnorm_wordpool.txt	LTP141	ltpFR	9	3	1	BIOLOGIST	128	n/a	n/a	1	n/a	0	0	0	0.57763671875	0.412841796875	1	upper	amplitud.ttf
864.838	n/a	WORD	432419	wordpools/wasnorm_wordpool.txt	LTP141	ltpFR	9	3	1	NOMAD	955	n/a	n/a	1	n/a	0	0	0	0.57763671875	0.412841796875	1	upper	amplitud.ttf
867.842	n/a	START	433921	n/a	LTP141	ltpFR	9	n/a	n/a	n/a	n/a	n/a	n/a	n/a	n/a	n/a	n/a	n/a	n/a	n/a	n/a	n/a	n/a
868.774	n/a	PROB	434387	n/a	LTP141	ltpFR	9	n/a	n/a	n/a	n/a	n/a	n/a	n/a	7	2	3	2	n/a	n/a	n/a	n/a	n/a
870.898	n/a	PROB	435449	n/a	LTP141	ltpFR	9	n/a	n/a	n/a	n/a	n/a	n/a	n/a	15	4	6	5	n/a	n/a	n/a	n/a	n/a
872.646	n/a	PROB	436323	n/a	LTP141	ltpFR	9	n/a	n/a	n/a	n/a	n/a	n/a	n/a	21	7	7	7	n/a	n/a	n/a	n/a	n/a
875.842	n/a	STOP	437921	n/a	LTP141	ltpFR	9	n/a	n/a	n/a	n/a	n/a	n/a	n/a	n/a	n/a	n/a	n/a	n/a	n/a	n/a	n/a	n/a
877.64	n/a	REC_START	438820	n/a	LTP141	ltpFR	9	3	n/a	n/a	n/a	n/a	n/a	n/a	n/a	0	0	0	n/a	n/a	n/a	n/a	n/a
879.516	n/a	REC_WORD	439758	wordpools/wasnorm_wordpool.txt	LTP141	ltpFR	9	3	1	NOMAD	955	n/a	n/a	1	n/a	0	0	0	n/a	n/a	n/a	n/a	n/a
880.814	n/a	REC_WORD	440407	wordpools/wasnorm_wordpool.txt	LTP141	ltpFR	9	3	1	BIOLOGIST	128	n/a	n/a	1	n/a	0	0	0	n/a	n/a	n/a	n/a	n/a
882.424	n/a	REC_WORD	441212	wordpools/wasnorm_wordpool.txt	LTP141	ltpFR	9	3	1	SCIENTIST	1249	n/a	n/a	1	n/a	0	0	0	n/a	n/a	n/a	n/a	n/a
884.22	n/a	REC_WORD	442110	wordpools/wasnorm_wordpool.txt	LTP141	ltpFR	9	3	1	SHEPHERD	1283	n/a	n/a	1	n/a	0	0	0	n/a	n/a	n/a	n/a	n/a
892.292	n/a	REC_WORD	446146	wordpools/wasnorm_wordpool.txt	LTP141	ltpFR	9	3	1	SICKLE	1302	n/a	n/a	0	n/a	0	0	0	n/a	n/a	n/a	n/a	n/a
893.912	n/a	REC_WORD	446956	wordpools/wasnorm_wordpool.txt	LTP141	ltpFR	9	3	1	FACE	547	n/a	n/a	1	n/a	0	0	0	n/a	n/a	n/a	n/a	n/a
895.714	n/a	REC_WORD	447857	wordpools/wasnorm_wordpool.txt	LTP141	ltpFR	9	3	1	OZONE	996	n/a	n/a	0	n/a	0	0	0	n/a	n/a	n/a	n/a	n/a
897.37	n/a	REC_WORD	448685	wordpools/wasnorm_wordpool.txt	LTP141	ltpFR	9	3	1	HOOK	715	n/a	n/a	0	n/a	0	0	0	n/a	n/a	n/a	n/a	n/a
958.63	n/a	WORD	479315	wordpools/wasnorm_wordpool.txt	LTP141	ltpFR	9	4	0	ATMOSPHERE	54	n/a	n/a	1	n/a	0	0	0	0.422607421875	0.5869140625	0	lower	zerothre.ttf
962.642	n/a	WORD	481321	wordpools/wasnorm_wordpool.txt	LTP141	ltpFR	9	4	0	DIAPER	459	n/a	n/a	0	n/a	0	0	0	0.422607421875	0.5869140625	0	lower	zerothre.ttf
966.67	n/a	WORD	483335	wordpools/wasnorm_wordpool.txt	LTP141	ltpFR	9	4	0	TRAY	1498	n/a	n/a	1	n/a	0	0	0	0.422607421875	0.5869140625	0	lower	zerothre.ttf
970.866	n/a	WORD	485433	wordpools/wasnorm_wordpool.txt	LTP141	ltpFR	9	4	0	SERVER	1272	n/a	n/a	1	n/a	0	0	0	0.422607421875	0.5869140625	0	lower	zerothre.ttf
974.72	n/a	WORD	487360	wordpools/wasnorm_wordpool.txt	LTP141	ltpFR	9	4	0	SPRINKLE	1359	n/a	n/a	0	n/a	0	0	0	0.422607421875	0.5869140625	0	lower	zerothre.ttf
978.598	n/a	WORD	489299	wordpools/wasnorm_wordpool.txt	LTP141	ltpFR	9	4	0	KITTEN	780	n/a	n/a	0	n/a	0	0	0	0.422607421875	0.5869140625	0	lower	zerothre.ttf
982.802	n/a	WORD	491401	wordpools/wasnorm_wordpool.txt	LTP141	ltpFR	9	4	0	PIANO	1057	n/a	n/a	1	n/a	0	0	0	0.422607421875	0.5869140625	0	lower	zerothre.ttf
986.622	n/a	WORD	493311	wordpools/wasnorm_wordpool.txt	LTP141	ltpFR	9	4	0	WORLD	1622	n/a	n/a	1	n/a	0	0	0	0.422607421875	0.5869140625	0	lower	zerothre.ttf
990.47	n/a	WORD	495235	wordpools/wasnorm_wordpool.txt	LTP141	ltpFR	9	4	0	ROBIN	1199	n/a	n/a	0	n/a	0	0	0	0.422607421875	0.5869140625	0	lower	zerothre.ttf
994.356	n/a	WORD	497178	wordpools/wasnorm_wordpool.txt	LTP141	ltpFR	9	4	0	LITTER	832	n/a	n/a	1	n/a	0	0	0	0.422607421875	0.5869140625	0	lower	zerothre.ttf
998.3	n/a	WORD	499150	wordpools/wasnorm_wordpool.txt	LTP141	ltpFR	9	4	0	RAFT	1159	n/a	n/a	1	n/a	0	0	0	0.422607421875	0.5869140625	0	lower	zerothre.ttf
1002.338	n/a	WORD	501169	wordpools/wasnorm_wordpool.txt	LTP141	ltpFR	9	4	0	LOFT	840	n/a	n/a	1	n/a	0	0	0	0.422607421875	0.5869140625	0	lower	zerothre.ttf
1006.468	n/a	WORD	503234	wordpools/wasnorm_wordpool.txt	LTP141	ltpFR	9	4	0	LID	817	n/a	n/a	0	n/a	0	0	0	0.422607421875	0.5869140625	0	lower	zerothre.ttf
1010.554	n/a	WORD	505277	wordpools/wasnorm_wordpool.txt	LTP141	ltpFR	9	4	0	NEST	945	n/a	n/a	0	n/a	0	0	0	0.422607421875	0.5869140625	0	lower	zerothre.ttf
1014.418	n/a	WORD	507209	wordpools/wasnorm_wordpool.txt	LTP141	ltpFR	9	4	0	BEETLE	116	n/a	n/a	0	n/a	0	0	0	0.422607421875	0.5869140625	0	lower	zerothre.ttf
1018.328	n/a	WORD	509164	wordpools/wasnorm_wordpool.txt	LTP141	ltpFR	9	4	0	ROACH	1195	n/a	n/a	0	n/a	0	0	0	0.422607421875	0.5869140625	0	lower	zerothre.ttf
1021.334	n/a	START	510667	n/a	LTP141	ltpFR	9	n/a	n/a	n/a	n/a	n/a	n/a	n/a	n/a	n/a	n/a	n/a	n/a	n/a	n/a	n/a	n/a
1022.408	n/a	PROB	511204	n/a	LTP141	ltpFR	9	n/a	n/a	n/a	n/a	n/a	n/a	n/a	18	8	5	5	n/a	n/a	n/a	n/a	n/a
1024.114	n/a	PROB	512057	n/a	LTP141	ltpFR	9	n/a	n/a	n/a	n/a	n/a	n/a	n/a	11	8	7	6	n/a	n/a	n/a	n/a	n/a
1026.686	n/a	PROB	513343	n/a	LTP141	ltpFR	9	n/a	n/a	n/a	n/a	n/a	n/a	n/a	12	5	6	1	n/a	n/a	n/a	n/a	n/a
1028.234	n/a	PROB	514117	n/a	LTP141	ltpFR	9	n/a	n/a	n/a	n/a	n/a	n/a	n/a	11	2	1	8	n/a	n/a	n/a	n/a	n/a
1030.082	n/a	PROB	515041	n/a	LTP141	ltpFR	9	n/a	n/a	n/a	n/a	n/a	n/a	n/a	5	2	2	1	n/a	n/a	n/a	n/a	n/a
1031.214	n/a	PROB	515607	n/a	LTP141	ltpFR	9	n/a	n/a	n/a	n/a	n/a	n/a	n/a	17	9	3	5	n/a	n/a	n/a	n/a	n/a
1037.334	n/a	STOP	518667	n/a	LTP141	ltpFR	9	n/a	n/a	n/a	n/a	n/a	n/a	n/a	n/a	n/a	n/a	n/a	n/a	n/a	n/a	n/a	n/a
1039.088	n/a	REC_START	519544	n/a	LTP141	ltpFR	9	4	n/a	n/a	n/a	n/a	n/a	n/a	n/a	0	0	0	n/a	n/a	n/a	n/a	n/a
1040.026	n/a	REC_WORD	520013	wordpools/wasnorm_wordpool.txt	LTP141	ltpFR	9	4	0	RAFT	1159	n/a	n/a	1	n/a	0	0	0	n/a	n/a	n/a	n/a	n/a
1041.438	n/a	REC_WORD	520719	wordpools/wasnorm_wordpool.txt	LTP141	ltpFR	9	4	0	LOFT	840	n/a	n/a	1	n/a	0	0	0	n/a	n/a	n/a	n/a	n/a
1042.95	n/a	REC_WORD	521475	wordpools/wasnorm_wordpool.txt	LTP141	ltpFR	9	4	0	BEETLE	116	n/a	n/a	0	n/a	0	0	0	n/a	n/a	n/a	n/a	n/a
1044.51	n/a	REC_WORD	522255	wordpools/wasnorm_wordpool.txt	LTP141	ltpFR	9	4	0	ROACH	1195	n/a	n/a	0	n/a	0	0	0	n/a	n/a	n/a	n/a	n/a
1046.202	n/a	REC_WORD	523101	wordpools/wasnorm_wordpool.txt	LTP141	ltpFR	9	4	0	NEST	945	n/a	n/a	0	n/a	0	0	0	n/a	n/a	n/a	n/a	n/a
1048.122	n/a	REC_WORD	524061	wordpools/wasnorm_wordpool.txt	LTP141	ltpFR	9	4	0	SPRINKLE	1359	n/a	n/a	0	n/a	0	0	0	n/a	n/a	n/a	n/a	n/a
1049.974	n/a	REC_WORD	524987	wordpools/wasnorm_wordpool.txt	LTP141	ltpFR	9	4	0	KITTEN	780	n/a	n/a	0	n/a	0	0	0	n/a	n/a	n/a	n/a	n/a
1051.624	n/a	REC_WORD	525812	wordpools/wasnorm_wordpool.txt	LTP141	ltpFR	9	4	0	PIANO	1057	n/a	n/a	1	n/a	0	0	0	n/a	n/a	n/a	n/a	n/a
1053.46	n/a	REC_WORD	526730	wordpools/wasnorm_wordpool.txt	LTP141	ltpFR	9	4	0	WORLD	1622	n/a	n/a	1	n/a	0	0	0	n/a	n/a	n/a	n/a	n/a
1055.606	n/a	REC_WORD	527803	wordpools/wasnorm_wordpool.txt	LTP141	ltpFR	9	4	0	ATMOSPHERE	54	n/a	n/a	1	n/a	0	0	0	n/a	n/a	n/a	n/a	n/a
1057.596	n/a	REC_WORD	528798	wordpools/wasnorm_wordpool.txt	LTP141	ltpFR	9	4	0	DIAPER	459	n/a	n/a	0	n/a	0	0	0	n/a	n/a	n/a	n/a	n/a
1075.38	n/a	REC_WORD	537690	wordpools/wasnorm_wordpool.txt	LTP141	ltpFR	9	4	0	SERVER	1272	n/a	n/a	1	n/a	0	0	0	n/a	n/a	n/a	n/a	n/a
1077.048	n/a	REC_WORD	538524	wordpools/wasnorm_wordpool.txt	LTP141	ltpFR	9	4	0	TRAY	1498	n/a	n/a	1	n/a	0	0	0	n/a	n/a	n/a	n/a	n/a
1118.33	n/a	START	559165	n/a	LTP141	ltpFR	9	n/a	n/a	n/a	n/a	n/a	n/a	n/a	n/a	n/a	n/a	n/a	n/a	n/a	n/a	n/a	n/a
1119.836	n/a	PROB	559918	n/a	LTP141	ltpFR	9	n/a	n/a	n/a	n/a	n/a	n/a	n/a	14	5	2	7	n/a	n/a	n/a	n/a	n/a
1121.81	n/a	PROB	560905	n/a	LTP141	ltpFR	9	n/a	n/a	n/a	n/a	n/a	n/a	n/a	1	3	5	2	n/a	n/a	n/a	n/a	n/a
1124.182	n/a	PROB	562091	n/a	LTP141	ltpFR	9	n/a	n/a	n/a	n/a	n/a	n/a	n/a	7	3	3	2	n/a	n/a	n/a	n/a	n/a
1125.764	n/a	PROB	562882	n/a	LTP141	ltpFR	9	n/a	n/a	n/a	n/a	n/a	n/a	n/a	13	6	3	4	n/a	n/a	n/a	n/a	n/a
1127.404	n/a	PROB	563702	n/a	LTP141	ltpFR	9	n/a	n/a	n/a	n/a	n/a	n/a	n/a	20	5	9	6	n/a	n/a	n/a	n/a	n/a
1130.092	n/a	PROB	565046	n/a	LTP141	ltpFR	9	n/a	n/a	n/a	n/a	n/a	n/a	n/a	12	2	7	3	n/a	n/a	n/a	n/a	n/a
1134.33	n/a	STOP	567165	n/a	LTP141	ltpFR	9	n/a	n/a	n/a	n/a	n/a	n/a	n/a	n/a	n/a	n/a	n/a	n/a	n/a	n/a	n/a	n/a
1135.386	n/a	WORD	567693	wordpools/wasnorm_wordpool.txt	LTP141	ltpFR	9	5	1	LUNG	850	n/a	n/a	1	n/a	0	0	0	0.57763671875	0.412841796875	1	upper	amplitud.ttf
1138.392	n/a	START	569196	n/a	LTP141	ltpFR	9	n/a	n/a	n/a	n/a	n/a	n/a	n/a	n/a	n/a	n/a	n/a	n/a	n/a	n/a	n/a	n/a
1139.564	n/a	PROB	569782	n/a	LTP141	ltpFR	9	n/a	n/a	n/a	n/a	n/a	n/a	n/a	11	1	8	2	n/a	n/a	n/a	n/a	n/a
1141.978	n/a	PROB	570989	n/a	LTP141	ltpFR	9	n/a	n/a	n/a	n/a	n/a	n/a	n/a	22	9	4	8	n/a	n/a	n/a	n/a	n/a
1145.532	n/a	PROB	572766	n/a	LTP141	ltpFR	9	n/a	n/a	n/a	n/a	n/a	n/a	n/a	17	5	3	9	n/a	n/a	n/a	n/a	n/a
1147.422	n/a	PROB	573711	n/a	LTP141	ltpFR	9	n/a	n/a	n/a	n/a	n/a	n/a	n/a	8	5	2	1	n/a	n/a	n/a	n/a	n/a
1148.978	n/a	PROB	574489	n/a	LTP141	ltpFR	9	n/a	n/a	n/a	n/a	n/a	n/a	n/a	16	2	9	5	n/a	n/a	n/a	n/a	n/a
1150.47	n/a	PROB	575235	n/a	LTP141	ltpFR	9	n/a	n/a	n/a	n/a	n/a	n/a	n/a	18	9	1	8	n/a	n/a	n/a	n/a	n/a
1151.824	n/a	PROB	575912	n/a	LTP141	ltpFR	9	n/a	n/a	n/a	n/a	n/a	n/a	n/a	6	2	1	3	n/a	n/a	n/a	n/a	n/a
1153.828	n/a	STOP	576914	n/a	LTP141	ltpFR	9	n/a	n/a	n/a	n/a	n/a	n/a	n/a	n/a	n/a	n/a	n/a	n/a	n/a	n/a	n/a	n/a
1155.312	n/a	WORD	577656	wordpools/wasnorm_wordpool.txt	LTP141	ltpFR	9	5	1	DUCK	504	n/a	n/a	1	n/a	0	0	0	0.57763671875	0.412841796875	1	upper	amplitud.ttf
1158.318	n/a	START	579159	n/a	LTP141	ltpFR	9	n/a	n/a	n/a	n/a	n/a	n/a	n/a	n/a	n/a	n/a	n/a	n/a	n/a	n/a	n/a	n/a
1159.258	n/a	PROB	579629	n/a	LTP141	ltpFR	9	n/a	n/a	n/a	n/a	n/a	n/a	n/a	13	5	7	1	n/a	n/a	n/a	n/a	n/a
1162.188	n/a	PROB	581094	n/a	LTP141	ltpFR	9	n/a	n/a	n/a	n/a	n/a	n/a	n/a	20	6	5	9	n/a	n/a	n/a	n/a	n/a
1164.886	n/a	PROB	582443	n/a	LTP141	ltpFR	9	n/a	n/a	n/a	n/a	n/a	n/a	n/a	10	4	2	4	n/a	n/a	n/a	n/a	n/a
1166.584	n/a	PROB	583292	n/a	LTP141	ltpFR	9	n/a	n/a	n/a	n/a	n/a	n/a	n/a	10	1	7	2	n/a	n/a	n/a	n/a	n/a
1168.116	n/a	PROB	584058	n/a	LTP141	ltpFR	9	n/a	n/a	n/a	n/a	n/a	n/a	n/a	6	1	3	2	n/a	n/a	n/a	n/a	n/a
1169.888	n/a	PROB	584944	n/a	LTP141	ltpFR	9	n/a	n/a	n/a	n/a	n/a	n/a	n/a	22	7	4	1	n/a	n/a	n/a	n/a	n/a
1173.79	n/a	STOP	586895	n/a	LTP141	ltpFR	9	n/a	n/a	n/a	n/a	n/a	n/a	n/a	n/a	n/a	n/a	n/a	n/a	n/a	n/a	n/a	n/a
1175.174	n/a	WORD	587587	wordpools/wasnorm_wordpool.txt	LTP141	ltpFR	9	5	1	GOOSE	649	n/a	n/a	1	n/a	0	0	0	0.57763671875	0.412841796875	1	upper	amplitud.ttf
1178.178	n/a	START	589089	n/a	LTP141	ltpFR	9	n/a	n/a	n/a	n/a	n/a	n/a	n/a	n/a	n/a	n/a	n/a	n/a	n/a	n/a	n/a	n/a
1179.086	n/a	PROB	589543	n/a	LTP141	ltpFR	9	n/a	n/a	n/a	n/a	n/a	n/a	n/a	12	9	2	1	n/a	n/a	n/a	n/a	n/a
1180.526	n/a	PROB	590263	n/a	LTP141	ltpFR	9	n/a	n/a	n/a	n/a	n/a	n/a	n/a	15	4	5	6	n/a	n/a	n/a	n/a	n/a
1182.548	n/a	PROB	591274	n/a	LTP141	ltpFR	9	n/a	n/a	n/a	n/a	n/a	n/a	n/a	16	1	8	7	n/a	n/a	n/a	n/a	n/a
1185.454	n/a	PROB	592727	n/a	LTP141	ltpFR	9	n/a	n/a	n/a	n/a	n/a	n/a	n/a	11	7	9	6	n/a	n/a	n/a	n/a	n/a
1188.46	n/a	PROB	594230	n/a	LTP141	ltpFR	9	n/a	n/a	n/a	n/a	n/a	n/a	n/a	21	9	7	8	n/a	n/a	n/a	n/a	n/a
1190.466	n/a	PROB	595233	n/a	LTP141	ltpFR	9	n/a	n/a	n/a	n/a	n/a	n/a	n/a	21	6	6	9	n/a	n/a	n/a	n/a	n/a
1193.022	n/a	STOP	596511	n/a	LTP141	ltpFR	9	n/a	n/a	n/a	n/a	n/a	n/a	n/a	n/a	n/a	n/a	n/a	n/a	n/a	n/a	n/a	n/a
1195.06	n/a	WORD	597530	wordpools/wasnorm_wordpool.txt	LTP141	ltpFR	9	5	1	CORN	381	n/a	n/a	0	n/a	0	0	0	0.57763671875	0.412841796875	1	upper	amplitud.ttf
1198.064	n/a	START	599032	n/a	LTP141	ltpFR	9	n/a	n/a	n/a	n/a	n/a	n/a	n/a	n/a	n/a	n/a	n/a	n/a	n/a	n/a	n/a	n/a
1198.996	n/a	PROB	599498	n/a	LTP141	ltpFR	9	n/a	n/a	n/a	n/a	n/a	n/a	n/a	16	5	7	4	n/a	n/a	n/a	n/a	n/a
1200.936	n/a	PROB	600468	n/a	LTP141	ltpFR	9	n/a	n/a	n/a	n/a	n/a	n/a	n/a	19	2	8	9	n/a	n/a	n/a	n/a	n/a
1202.734	n/a	PROB	601367	n/a	LTP141	ltpFR	9	n/a	n/a	n/a	n/a	n/a	n/a	n/a	9	5	2	2	n/a	n/a	n/a	n/a	n/a
1204.166	n/a	PROB	602083	n/a	LTP141	ltpFR	9	n/a	n/a	n/a	n/a	n/a	n/a	n/a	13	9	5	9	n/a	n/a	n/a	n/a	n/a
1207.22	n/a	PROB	603610	n/a	LTP141	ltpFR	9	n/a	n/a	n/a	n/a	n/a	n/a	n/a	9	6	1	2	n/a	n/a	n/a	n/a	n/a
1209.06	n/a	PROB	604530	n/a	LTP141	ltpFR	9	n/a	n/a	n/a	n/a	n/a	n/a	n/a	17	9	1	7	n/a	n/a	n/a	n/a	n/a
1210.658	n/a	PROB	605329	n/a	LTP141	ltpFR	9	n/a	n/a	n/a	n/a	n/a	n/a	n/a	5	2	1	2	n/a	n/a	n/a	n/a	n/a
1214.064	n/a	STOP	607032	n/a	LTP141	ltpFR	9	n/a	n/a	n/a	n/a	n/a	n/a	n/a	n/a	n/a	n/a	n/a	n/a	n/a	n/a	n/a	n/a
1214.902	n/a	WORD	607451	wordpools/wasnorm_wordpool.txt	LTP141	ltpFR	9	5	1	SNORKEL	1336	n/a	n/a	0	n/a	0	0	0	0.57763671875	0.412841796875	1	upper	amplitud.ttf
1217.908	n/a	START	608954	n/a	LTP141	ltpFR	9	n/a	n/a	n/a	n/a	n/a	n/a	n/a	n/a	n/a	n/a	n/a	n/a	n/a	n/a	n/a	n/a
1218.756	n/a	PROB	609378	n/a	LTP141	ltpFR	9	n/a	n/a	n/a	n/a	n/a	n/a	n/a	23	8	7	8	n/a	n/a	n/a	n/a	n/a
1221.852	n/a	PROB	610926	n/a	LTP141	ltpFR	9	n/a	n/a	n/a	n/a	n/a	n/a	n/a	17	8	2	7	n/a	n/a	n/a	n/a	n/a
1223.592	n/a	PROB	611796	n/a	LTP141	ltpFR	9	n/a	n/a	n/a	n/a	n/a	n/a	n/a	17	9	5	3	n/a	n/a	n/a	n/a	n/a
1226.474	n/a	PROB	613237	n/a	LTP141	ltpFR	9	n/a	n/a	n/a	n/a	n/a	n/a	n/a	13	6	2	5	n/a	n/a	n/a	n/a	n/a
1228.878	n/a	PROB	614439	n/a	LTP141	ltpFR	9	n/a	n/a	n/a	n/a	n/a	n/a	n/a	18	7	9	2	n/a	n/a	n/a	n/a	n/a
1230.818	n/a	PROB	615409	n/a	LTP141	ltpFR	9	n/a	n/a	n/a	n/a	n/a	n/a	n/a	17	7	2	8	n/a	n/a	n/a	n/a	n/a
1232.886	n/a	STOP	616443	n/a	LTP141	ltpFR	9	n/a	n/a	n/a	n/a	n/a	n/a	n/a	n/a	n/a	n/a	n/a	n/a	n/a	n/a	n/a	n/a
1234.954	n/a	WORD	617477	wordpools/wasnorm_wordpool.txt	LTP141	ltpFR	9	5	1	TANK	1432	n/a	n/a	0	n/a	0	0	0	0.57763671875	0.412841796875	1	upper	amplitud.ttf
1237.96	n/a	START	618980	n/a	LTP141	ltpFR	9	n/a	n/a	n/a	n/a	n/a	n/a	n/a	n/a	n/a	n/a	n/a	n/a	n/a	n/a	n/a	n/a
1238.918	n/a	PROB	619459	n/a	LTP141	ltpFR	9	n/a	n/a	n/a	n/a	n/a	n/a	n/a	14	4	3	7	n/a	n/a	n/a	n/a	n/a
1240.716	n/a	PROB	620358	n/a	LTP141	ltpFR	9	n/a	n/a	n/a	n/a	n/a	n/a	n/a	13	1	6	6	n/a	n/a	n/a	n/a	n/a
1242.33	n/a	PROB	621165	n/a	LTP141	ltpFR	9	n/a	n/a	n/a	n/a	n/a	n/a	n/a	17	1	9	7	n/a	n/a	n/a	n/a	n/a
1243.646	n/a	PROB	621823	n/a	LTP141	ltpFR	9	n/a	n/a	n/a	n/a	n/a	n/a	n/a	17	6	2	9	n/a	n/a	n/a	n/a	n/a
1245.534	n/a	PROB	622767	n/a	LTP141	ltpFR	9	n/a	n/a	n/a	n/a	n/a	n/a	n/a	10	2	5	3	n/a	n/a	n/a	n/a	n/a
1247.484	n/a	PROB	623742	n/a	LTP141	ltpFR	9	n/a	n/a	n/a	n/a	n/a	n/a	n/a	14	6	5	3	n/a	n/a	n/a	n/a	n/a
1249.382	n/a	PROB	624691	n/a	LTP141	ltpFR	9	n/a	n/a	n/a	n/a	n/a	n/a	n/a	19	1	9	9	n/a	n/a	n/a	n/a	n/a
1251.17	n/a	PROB	625585	n/a	LTP141	ltpFR	9	n/a	n/a	n/a	n/a	n/a	n/a	n/a	16	1	7	8	n/a	n/a	n/a	n/a	n/a
1253.614	n/a	STOP	626807	n/a	LTP141	ltpFR	9	n/a	n/a	n/a	n/a	n/a	n/a	n/a	n/a	n/a	n/a	n/a	n/a	n/a	n/a	n/a	n/a
1254.966	n/a	WORD	627483	wordpools/wasnorm_wordpool.txt	LTP141	ltpFR	9	5	1	BANQUET	86	n/a	n/a	1	n/a	0	0	0	0.57763671875	0.412841796875	1	upper	amplitud.ttf
1257.97	n/a	START	628985	n/a	LTP141	ltpFR	9	n/a	n/a	n/a	n/a	n/a	n/a	n/a	n/a	n/a	n/a	n/a	n/a	n/a	n/a	n/a	n/a
1258.902	n/a	PROB	629451	n/a	LTP141	ltpFR	9	n/a	n/a	n/a	n/a	n/a	n/a	n/a	14	5	2	7	n/a	n/a	n/a	n/a	n/a
1260.55	n/a	PROB	630275	n/a	LTP141	ltpFR	9	n/a	n/a	n/a	n/a	n/a	n/a	n/a	20	5	7	8	n/a	n/a	n/a	n/a	n/a
1263.548	n/a	PROB	631774	n/a	LTP141	ltpFR	9	n/a	n/a	n/a	n/a	n/a	n/a	n/a	17	3	5	9	n/a	n/a	n/a	n/a	n/a
1265.204	n/a	PROB	632602	n/a	LTP141	ltpFR	9	n/a	n/a	n/a	n/a	n/a	n/a	n/a	8	1	3	4	n/a	n/a	n/a	n/a	n/a
1266.678	n/a	PROB	633339	n/a	LTP141	ltpFR	9	n/a	n/a	n/a	n/a	n/a	n/a	n/a	6	2	3	1	n/a	n/a	n/a	n/a	n/a
1268.624	n/a	PROB	634312	n/a	LTP141	ltpFR	9	n/a	n/a	n/a	n/a	n/a	n/a	n/a	14	2	4	8	n/a	n/a	n/a	n/a	n/a
1270.53	n/a	PROB	635265	n/a	LTP141	ltpFR	9	n/a	n/a	n/a	n/a	n/a	n/a	n/a	22	6	8	8	n/a	n/a	n/a	n/a	n/a
1273.27	n/a	STOP	636635	n/a	LTP141	ltpFR	9	n/a	n/a	n/a	n/a	n/a	n/a	n/a	n/a	n/a	n/a	n/a	n/a	n/a	n/a	n/a	n/a
1275.018	n/a	WORD	637509	wordpools/wasnorm_wordpool.txt	LTP141	ltpFR	9	5	1	ELECTRICIAN	521	n/a	n/a	1	n/a	0	0	0	0.57763671875	0.412841796875	1	upper	amplitud.ttf
1278.022	n/a	START	639011	n/a	LTP141	ltpFR	9	n/a	n/a	n/a	n/a	n/a	n/a	n/a	n/a	n/a	n/a	n/a	n/a	n/a	n/a	n/a	n/a
1279.012	n/a	PROB	639506	n/a	LTP141	ltpFR	9	n/a	n/a	n/a	n/a	n/a	n/a	n/a	11	2	4	5	n/a	n/a	n/a	n/a	n/a
1280.968	n/a	PROB	640484	n/a	LTP141	ltpFR	9	n/a	n/a	n/a	n/a	n/a	n/a	n/a	19	7	8	3	n/a	n/a	n/a	n/a	n/a
1282.734	n/a	PROB	641367	n/a	LTP141	ltpFR	9	n/a	n/a	n/a	n/a	n/a	n/a	n/a	19	6	4	9	n/a	n/a	n/a	n/a	n/a
1284.714	n/a	PROB	642357	n/a	LTP141	ltpFR	9	n/a	n/a	n/a	n/a	n/a	n/a	n/a	17	8	4	5	n/a	n/a	n/a	n/a	n/a
1286.878	n/a	PROB	643439	n/a	LTP141	ltpFR	9	n/a	n/a	n/a	n/a	n/a	n/a	n/a	10	4	1	5	n/a	n/a	n/a	n/a	n/a
1288.102	n/a	PROB	644051	n/a	LTP141	ltpFR	9	n/a	n/a	n/a	n/a	n/a	n/a	n/a	19	7	6	6	n/a	n/a	n/a	n/a	n/a
1290.158	n/a	PROB	645079	n/a	LTP141	ltpFR	9	n/a	n/a	n/a	n/a	n/a	n/a	n/a	22	4	9	9	n/a	n/a	n/a	n/a	n/a
1292.686	n/a	STOP	646343	n/a	LTP141	ltpFR	9	n/a	n/a	n/a	n/a	n/a	n/a	n/a	n/a	n/a	n/a	n/a	n/a	n/a	n/a	n/a	n/a
1294.844	n/a	WORD	647422	wordpools/wasnorm_wordpool.txt	LTP141	ltpFR	9	5	1	CHEF	290	n/a	n/a	1	n/a	0	0	0	0.57763671875	0.412841796875	1	upper	amplitud.ttf
1297.858	n/a	START	648929	n/a	LTP141	ltpFR	9	n/a	n/a	n/a	n/a	n/a	n/a	n/a	n/a	n/a	n/a	n/a	n/a	n/a	n/a	n/a	n/a
1298.956	n/a	PROB	649478	n/a	LTP141	ltpFR	9	n/a	n/a	n/a	n/a	n/a	n/a	n/a	7	1	1	5	n/a	n/a	n/a	n/a	n/a
1300.53	n/a	PROB	650265	n/a	LTP141	ltpFR	9	n/a	n/a	n/a	n/a	n/a	n/a	n/a	18	6	7	5	n/a	n/a	n/a	n/a	n/a
1303.284	n/a	PROB	651642	n/a	LTP141	ltpFR	9	n/a	n/a	n/a	n/a	n/a	n/a	n/a	16	6	6	4	n/a	n/a	n/a	n/a	n/a
1304.866	n/a	PROB	652433	n/a	LTP141	ltpFR	9	n/a	n/a	n/a	n/a	n/a	n/a	n/a	12	4	2	6	n/a	n/a	n/a	n/a	n/a
1306.364	n/a	PROB	653182	n/a	LTP141	ltpFR	9	n/a	n/a	n/a	n/a	n/a	n/a	n/a	19	5	9	5	n/a	n/a	n/a	n/a	n/a
1307.704	n/a	PROB	653852	n/a	LTP141	ltpFR	9	n/a	n/a	n/a	n/a	n/a	n/a	n/a	20	5	6	9	n/a	n/a	n/a	n/a	n/a
1310.118	n/a	PROB	655059	n/a	LTP141	ltpFR	9	n/a	n/a	n/a	n/a	n/a	n/a	n/a	14	6	1	7	n/a	n/a	n/a	n/a	n/a
1311.502	n/a	PROB	655751	n/a	LTP141	ltpFR	9	n/a	n/a	n/a	n/a	n/a	n/a	n/a	14	7	6	1	n/a	n/a	n/a	n/a	n/a
1313.84	n/a	STOP	656920	n/a	LTP141	ltpFR	9	n/a	n/a	n/a	n/a	n/a	n/a	n/a	n/a	n/a	n/a	n/a	n/a	n/a	n/a	n/a	n/a
1315.014	n/a	WORD	657507	wordpools/wasnorm_wordpool.txt	LTP141	ltpFR	9	5	1	WHEAT	1602	n/a	n/a	0	n/a	0	0	0	0.57763671875	0.412841796875	1	upper	amplitud.ttf
1318.02	n/a	START	659010	n/a	LTP141	ltpFR	9	n/a	n/a	n/a	n/a	n/a	n/a	n/a	n/a	n/a	n/a	n/a	n/a	n/a	n/a	n/a	n/a
1318.892	n/a	PROB	659446	n/a	LTP141	ltpFR	9	n/a	n/a	n/a	n/a	n/a	n/a	n/a	18	4	8	6	n/a	n/a	n/a	n/a	n/a
1320.574	n/a	PROB	660287	n/a	LTP141	ltpFR	9	n/a	n/a	n/a	n/a	n/a	n/a	n/a	19	6	7	6	n/a	n/a	n/a	n/a	n/a
1322.638	n/a	PROB	661319	n/a	LTP141	ltpFR	9	n/a	n/a	n/a	n/a	n/a	n/a	n/a	16	1	7	8	n/a	n/a	n/a	n/a	n/a
1324.344	n/a	PROB	662172	n/a	LTP141	ltpFR	9	n/a	n/a	n/a	n/a	n/a	n/a	n/a	24	8	8	8	n/a	n/a	n/a	n/a	n/a
1326.068	n/a	PROB	663034	n/a	LTP141	ltpFR	9	n/a	n/a	n/a	n/a	n/a	n/a	n/a	20	8	4	8	n/a	n/a	n/a	n/a	n/a
1327.948	n/a	PROB	663974	n/a	LTP141	ltpFR	9	n/a	n/a	n/a	n/a	n/a	n/a	n/a	19	1	9	9	n/a	n/a	n/a	n/a	n/a
1329.248	n/a	PROB	664624	n/a	LTP141	ltpFR	9	n/a	n/a	n/a	n/a	n/a	n/a	n/a	17	9	5	6	n/a	n/a	n/a	n/a	n/a
1331.178	n/a	PROB	665589	n/a	LTP141	ltpFR	9	n/a	n/a	n/a	n/a	n/a	n/a	n/a	12	6	1	5	n/a	n/a	n/a	n/a	n/a
1332.8	n/a	STOP	666400	n/a	LTP141	ltpFR	9	n/a	n/a	n/a	n/a	n/a	n/a	n/a	n/a	n/a	n/a	n/a	n/a	n/a	n/a	n/a	n/a
1335.124	n/a	WORD	667562	wordpools/wasnorm_wordpool.txt	LTP141	ltpFR	9	5	1	STATUE	1374	n/a	n/a	0	n/a	0	0	0	0.57763671875	0.412841796875	1	upper	amplitud.ttf
1338.13	n/a	START	669065	n/a	LTP141	ltpFR	9	n/a	n/a	n/a	n/a	n/a	n/a	n/a	n/a	n/a	n/a	n/a	n/a	n/a	n/a	n/a	n/a
1339.02	n/a	PROB	669510	n/a	LTP141	ltpFR	9	n/a	n/a	n/a	n/a	n/a	n/a	n/a	12	2	6	4	n/a	n/a	n/a	n/a	n/a
1340.326	n/a	PROB	670163	n/a	LTP141	ltpFR	9	n/a	n/a	n/a	n/a	n/a	n/a	n/a	14	3	2	8	n/a	n/a	n/a	n/a	n/a
1342.198	n/a	PROB	671099	n/a	LTP141	ltpFR	9	n/a	n/a	n/a	n/a	n/a	n/a	n/a	16	6	9	1	n/a	n/a	n/a	n/a	n/a
1343.68	n/a	PROB	671840	n/a	LTP141	ltpFR	9	n/a	n/a	n/a	n/a	n/a	n/a	n/a	20	9	9	2	n/a	n/a	n/a	n/a	n/a
1345.336	n/a	PROB	672668	n/a	LTP141	ltpFR	9	n/a	n/a	n/a	n/a	n/a	n/a	n/a	15	2	5	8	n/a	n/a	n/a	n/a	n/a
1348.068	n/a	PROB	674034	n/a	LTP141	ltpFR	9	n/a	n/a	n/a	n/a	n/a	n/a	n/a	12	1	9	2	n/a	n/a	n/a	n/a	n/a
1349.324	n/a	PROB	674662	n/a	LTP141	ltpFR	9	n/a	n/a	n/a	n/a	n/a	n/a	n/a	15	3	9	3	n/a	n/a	n/a	n/a	n/a
1352.454	n/a	PROB	676227	n/a	LTP141	ltpFR	9	n/a	n/a	n/a	n/a	n/a	n/a	n/a	10	5	1	4	n/a	n/a	n/a	n/a	n/a
1353.808	n/a	STOP	676904	n/a	LTP141	ltpFR	9	n/a	n/a	n/a	n/a	n/a	n/a	n/a	n/a	n/a	n/a	n/a	n/a	n/a	n/a	n/a	n/a
1355.092	n/a	WORD	677546	wordpools/wasnorm_wordpool.txt	LTP141	ltpFR	9	5	1	MARKET	871	n/a	n/a	0	n/a	0	0	0	0.57763671875	0.412841796875	1	upper	amplitud.ttf
1358.098	n/a	START	679049	n/a	LTP141	ltpFR	9	n/a	n/a	n/a	n/a	n/a	n/a	n/a	n/a	n/a	n/a	n/a	n/a	n/a	n/a	n/a	n/a
1359.296	n/a	PROB	679648	n/a	LTP141	ltpFR	9	n/a	n/a	n/a	n/a	n/a	n/a	n/a	11	4	6	1	n/a	n/a	n/a	n/a	n/a
1360.752	n/a	PROB	680376	n/a	LTP141	ltpFR	9	n/a	n/a	n/a	n/a	n/a	n/a	n/a	14	4	3	7	n/a	n/a	n/a	n/a	n/a
1362.426	n/a	PROB	681213	n/a	LTP141	ltpFR	9	n/a	n/a	n/a	n/a	n/a	n/a	n/a	18	4	6	8	n/a	n/a	n/a	n/a	n/a
1363.94	n/a	PROB	681970	n/a	LTP141	ltpFR	9	n/a	n/a	n/a	n/a	n/a	n/a	n/a	4	2	1	1	n/a	n/a	n/a	n/a	n/a
1365.238	n/a	PROB	682619	n/a	LTP141	ltpFR	9	n/a	n/a	n/a	n/a	n/a	n/a	n/a	10	5	1	4	n/a	n/a	n/a	n/a	n/a
1368.56	n/a	PROB	684280	n/a	LTP141	ltpFR	9	n/a	n/a	n/a	n/a	n/a	n/a	n/a	5	3	1	1	n/a	n/a	n/a	n/a	n/a
1369.726	n/a	PROB	684863	n/a	LTP141	ltpFR	9	n/a	n/a	n/a	n/a	n/a	n/a	n/a	13	2	4	7	n/a	n/a	n/a	n/a	n/a
1374.098	n/a	STOP	687049	n/a	LTP141	ltpFR	9	n/a	n/a	n/a	n/a	n/a	n/a	n/a	n/a	n/a	n/a	n/a	n/a	n/a	n/a	n/a	n/a
1374.986	n/a	WORD	687493	wordpools/wasnorm_wordpool.txt	LTP141	ltpFR	9	5	1	SPOUSE	1358	n/a	n/a	1	n/a	0	0	0	0.57763671875	0.412841796875	1	upper	amplitud.ttf
1377.992	n/a	START	688996	n/a	LTP141	ltpFR	9	n/a	n/a	n/a	n/a	n/a	n/a	n/a	n/a	n/a	n/a	n/a	n/a	n/a	n/a	n/a	n/a
1378.806	n/a	PROB	689403	n/a	LTP141	ltpFR	9	n/a	n/a	n/a	n/a	n/a	n/a	n/a	7	2	3	2	n/a	n/a	n/a	n/a	n/a
1380.88	n/a	PROB	690440	n/a	LTP141	ltpFR	9	n/a	n/a	n/a	n/a	n/a	n/a	n/a	10	5	1	4	n/a	n/a	n/a	n/a	n/a
1382.21	n/a	PROB	691105	n/a	LTP141	ltpFR	9	n/a	n/a	n/a	n/a	n/a	n/a	n/a	16	8	1	7	n/a	n/a	n/a	n/a	n/a
1383.818	n/a	PROB	691909	n/a	LTP141	ltpFR	9	n/a	n/a	n/a	n/a	n/a	n/a	n/a	10	3	6	1	n/a	n/a	n/a	n/a	n/a
1385.732	n/a	PROB	692866	n/a	LTP141	ltpFR	9	n/a	n/a	n/a	n/a	n/a	n/a	n/a	9	1	2	6	n/a	n/a	n/a	n/a	n/a
1387.938	n/a	PROB	693969	n/a	LTP141	ltpFR	9	n/a	n/a	n/a	n/a	n/a	n/a	n/a	16	7	4	5	n/a	n/a	n/a	n/a	n/a
1389.594	n/a	PROB	694797	n/a	LTP141	ltpFR	9	n/a	n/a	n/a	n/a	n/a	n/a	n/a	18	6	6	6	n/a	n/a	n/a	n/a	n/a
1391.16	n/a	PROB	695580	n/a	LTP141	ltpFR	9	n/a	n/a	n/a	n/a	n/a	n/a	n/a	16	8	7	1	n/a	n/a	n/a	n/a	n/a
1392.84	n/a	STOP	696420	n/a	LTP141	ltpFR	9	n/a	n/a	n/a	n/a	n/a	n/a	n/a	n/a	n/a	n/a	n/a	n/a	n/a	n/a	n/a	n/a
1395.072	n/a	WORD	697536	wordpools/wasnorm_wordpool.txt	LTP141	ltpFR	9	5	1	BEEF	113	n/a	n/a	0	n/a	0	0	0	0.57763671875	0.412841796875	1	upper	amplitud.ttf
1398.078	n/a	START	699039	n/a	LTP141	ltpFR	9	n/a	n/a	n/a	n/a	n/a	n/a	n/a	n/a	n/a	n/a	n/a	n/a	n/a	n/a	n/a	n/a
1399.108	n/a	PROB	699554	n/a	LTP141	ltpFR	9	n/a	n/a	n/a	n/a	n/a	n/a	n/a	21	9	3	9	n/a	n/a	n/a	n/a	n/a
1401.174	n/a	PROB	700587	n/a	LTP141	ltpFR	9	n/a	n/a	n/a	n/a	n/a	n/a	n/a	11	7	1	3	n/a	n/a	n/a	n/a	n/a
1402.68	n/a	PROB	701340	n/a	LTP141	ltpFR	9	n/a	n/a	n/a	n/a	n/a	n/a	n/a	20	6	5	9	n/a	n/a	n/a	n/a	n/a
1404.586	n/a	PROB	702293	n/a	LTP141	ltpFR	9	n/a	n/a	n/a	n/a	n/a	n/a	n/a	17	9	7	1	n/a	n/a	n/a	n/a	n/a
1406.326	n/a	PROB	703163	n/a	LTP141	ltpFR	9	n/a	n/a	n/a	n/a	n/a	n/a	n/a	14	1	6	7	n/a	n/a	n/a	n/a	n/a
1407.798	n/a	PROB	703899	n/a	LTP141	ltpFR	9	n/a	n/a	n/a	n/a	n/a	n/a	n/a	19	7	8	5	n/a	n/a	n/a	n/a	n/a
1411.902	n/a	PROB	705951	n/a	LTP141	ltpFR	9	n/a	n/a	n/a	n/a	n/a	n/a	n/a	11	2	8	1	n/a	n/a	n/a	n/a	n/a
1413.336	n/a	STOP	706668	n/a	LTP141	ltpFR	9	n/a	n/a	n/a	n/a	n/a	n/a	n/a	n/a	n/a	n/a	n/a	n/a	n/a	n/a	n/a	n/a
1415.24	n/a	WORD	707620	wordpools/wasnorm_wordpool.txt	LTP141	ltpFR	9	5	1	RIB	1188	n/a	n/a	0	n/a	0	0	0	0.57763671875	0.412841796875	1	upper	amplitud.ttf
1418.246	n/a	START	709123	n/a	LTP141	ltpFR	9	n/a	n/a	n/a	n/a	n/a	n/a	n/a	n/a	n/a	n/a	n/a	n/a	n/a	n/a	n/a	n/a
1419.094	n/a	PROB	709547	n/a	LTP141	ltpFR	9	n/a	n/a	n/a	n/a	n/a	n/a	n/a	18	8	7	3	n/a	n/a	n/a	n/a	n/a
1420.592	n/a	PROB	710296	n/a	LTP141	ltpFR	9	n/a	n/a	n/a	n/a	n/a	n/a	n/a	15	6	5	4	n/a	n/a	n/a	n/a	n/a
1421.908	n/a	PROB	710954	n/a	LTP141	ltpFR	9	n/a	n/a	n/a	n/a	n/a	n/a	n/a	8	6	1	1	n/a	n/a	n/a	n/a	n/a
1423.356	n/a	PROB	711678	n/a	LTP141	ltpFR	9	n/a	n/a	n/a	n/a	n/a	n/a	n/a	20	7	7	6	n/a	n/a	n/a	n/a	n/a
1424.738	n/a	PROB	712369	n/a	LTP141	ltpFR	9	n/a	n/a	n/a	n/a	n/a	n/a	n/a	11	1	6	4	n/a	n/a	n/a	n/a	n/a
1426.02	n/a	PROB	713010	n/a	LTP141	ltpFR	9	n/a	n/a	n/a	n/a	n/a	n/a	n/a	5	3	1	1	n/a	n/a	n/a	n/a	n/a
1427.292	n/a	PROB	713646	n/a	LTP141	ltpFR	9	n/a	n/a	n/a	n/a	n/a	n/a	n/a	12	5	4	3	n/a	n/a	n/a	n/a	n/a
1429.748	n/a	PROB	714874	n/a	LTP141	ltpFR	9	n/a	n/a	n/a	n/a	n/a	n/a	n/a	16	5	6	5	n/a	n/a	n/a	n/a	n/a
1431.604	n/a	PROB	715802	n/a	LTP141	ltpFR	9	n/a	n/a	n/a	n/a	n/a	n/a	n/a	18	7	8	9	n/a	n/a	n/a	n/a	n/a
1433.768	n/a	STOP	716884	n/a	LTP141	ltpFR	9	n/a	n/a	n/a	n/a	n/a	n/a	n/a	n/a	n/a	n/a	n/a	n/a	n/a	n/a	n/a	n/a
1435.2	n/a	WORD	717600	wordpools/wasnorm_wordpool.txt	LTP141	ltpFR	9	5	1	SKYSCRAPER	1322	n/a	n/a	n/a	n/a	0	0	0	0.57763671875	0.412841796875	1	upper	amplitud.ttf
1438.222	n/a	SLOW_MSG	719111	n/a	LTP141	ltpFR	9	5	n/a	n/a	n/a	n/a	n/a	n/a	n/a	0	0	0	n/a	n/a	n/a	n/a	n/a
1439.738	n/a	START	719869	n/a	LTP141	ltpFR	9	n/a	n/a	n/a	n/a	n/a	n/a	n/a	n/a	n/a	n/a	n/a	n/a	n/a	n/a	n/a	n/a
1440.66	n/a	PROB	720330	n/a	LTP141	ltpFR	9	n/a	n/a	n/a	n/a	n/a	n/a	n/a	18	3	7	8	n/a	n/a	n/a	n/a	n/a
1442.208	n/a	PROB	721104	n/a	LTP141	ltpFR	9	n/a	n/a	n/a	n/a	n/a	n/a	n/a	12	6	3	3	n/a	n/a	n/a	n/a	n/a
1445.256	n/a	PROB	722628	n/a	LTP141	ltpFR	9	n/a	n/a	n/a	n/a	n/a	n/a	n/a	15	5	6	4	n/a	n/a	n/a	n/a	n/a
1446.512	n/a	PROB	723256	n/a	LTP141	ltpFR	9	n/a	n/a	n/a	n/a	n/a	n/a	n/a	22	8	9	6	n/a	n/a	n/a	n/a	n/a
1450.79	n/a	PROB	725395	n/a	LTP141	ltpFR	9	n/a	n/a	n/a	n/a	n/a	n/a	n/a	13	7	3	3	n/a	n/a	n/a	n/a	n/a
1452.49	n/a	PROB	726245	n/a	LTP141	ltpFR	9	n/a	n/a	n/a	n/a	n/a	n/a	n/a	14	2	8	4	n/a	n/a	n/a	n/a	n/a
1455.738	n/a	STOP	727869	n/a	LTP141	ltpFR	9	n/a	n/a	n/a	n/a	n/a	n/a	n/a	n/a	n/a	n/a	n/a	n/a	n/a	n/a	n/a	n/a
1457.526	n/a	REC_START	728763	n/a	LTP141	ltpFR	9	5	n/a	n/a	n/a	n/a	n/a	n/a	n/a	0	0	0	n/a	n/a	n/a	n/a	n/a
1459.516	n/a	REC_WORD	729758	wordpools/wasnorm_wordpool.txt	LTP141	ltpFR	9	5	1	SPOUSE	1358	n/a	n/a	1	n/a	0	0	0	n/a	n/a	n/a	n/a	n/a
1536.958	n/a	START	768479	n/a	LTP141	ltpFR	9	n/a	n/a	n/a	n/a	n/a	n/a	n/a	n/a	n/a	n/a	n/a	n/a	n/a	n/a	n/a	n/a
1538.466	n/a	PROB	769233	n/a	LTP141	ltpFR	9	n/a	n/a	n/a	n/a	n/a	n/a	n/a	7	2	4	1	n/a	n/a	n/a	n/a	n/a
1540.68	n/a	PROB	770340	n/a	LTP141	ltpFR	9	n/a	n/a	n/a	n/a	n/a	n/a	n/a	16	7	5	4	n/a	n/a	n/a	n/a	n/a
1542.952	n/a	PROB	771476	n/a	LTP141	ltpFR	9	n/a	n/a	n/a	n/a	n/a	n/a	n/a	11	1	9	1	n/a	n/a	n/a	n/a	n/a
1544.146	n/a	STOP	772073	n/a	LTP141	ltpFR	9	n/a	n/a	n/a	n/a	n/a	n/a	n/a	n/a	n/a	n/a	n/a	n/a	n/a	n/a	n/a	n/a
1545.832	n/a	WORD	772916	wordpools/wasnorm_wordpool.txt	LTP141	ltpFR	9	6	0	SCALPEL	1243	n/a	n/a	1	n/a	0	0	0	0.422607421875	0.5869140625	0	lower	zerothre.ttf
1548.838	n/a	START	774419	n/a	LTP141	ltpFR	9	n/a	n/a	n/a	n/a	n/a	n/a	n/a	n/a	n/a	n/a	n/a	n/a	n/a	n/a	n/a	n/a
1549.952	n/a	PROB	774976	n/a	LTP141	ltpFR	9	n/a	n/a	n/a	n/a	n/a	n/a	n/a	18	7	2	9	n/a	n/a	n/a	n/a	n/a
1553.074	n/a	PROB	776537	n/a	LTP141	ltpFR	9	n/a	n/a	n/a	n/a	n/a	n/a	n/a	15	5	8	2	n/a	n/a	n/a	n/a	n/a
1554.54	n/a	PROB	777270	n/a	LTP141	ltpFR	9	n/a	n/a	n/a	n/a	n/a	n/a	n/a	14	9	3	2	n/a	n/a	n/a	n/a	n/a
1556.362	n/a	STOP	778181	n/a	LTP141	ltpFR	9	n/a	n/a	n/a	n/a	n/a	n/a	n/a	n/a	n/a	n/a	n/a	n/a	n/a	n/a	n/a	n/a
1557.968	n/a	WORD	778984	wordpools/wasnorm_wordpool.txt	LTP141	ltpFR	9	6	0	SPIDER	1351	n/a	n/a	0	n/a	0	0	0	0.422607421875	0.5869140625	0	lower	zerothre.ttf
1560.974	n/a	START	780487	n/a	LTP141	ltpFR	9	n/a	n/a	n/a	n/a	n/a	n/a	n/a	n/a	n/a	n/a	n/a	n/a	n/a	n/a	n/a	n/a
1562.064	n/a	PROB	781032	n/a	LTP141	ltpFR	9	n/a	n/a	n/a	n/a	n/a	n/a	n/a	9	7	1	1	n/a	n/a	n/a	n/a	n/a
1563.446	n/a	PROB	781723	n/a	LTP141	ltpFR	9	n/a	n/a	n/a	n/a	n/a	n/a	n/a	16	8	2	6	n/a	n/a	n/a	n/a	n/a
1564.868	n/a	PROB	782434	n/a	LTP141	ltpFR	9	n/a	n/a	n/a	n/a	n/a	n/a	n/a	16	5	3	8	n/a	n/a	n/a	n/a	n/a
1568.232	n/a	STOP	784116	n/a	LTP141	ltpFR	9	n/a	n/a	n/a	n/a	n/a	n/a	n/a	n/a	n/a	n/a	n/a	n/a	n/a	n/a	n/a	n/a
1569.988	n/a	WORD	784994	wordpools/wasnorm_wordpool.txt	LTP141	ltpFR	9	6	0	DORM	488	n/a	n/a	1	n/a	0	0	0	0.422607421875	0.5869140625	0	lower	zerothre.ttf
1572.994	n/a	START	786497	n/a	LTP141	ltpFR	9	n/a	n/a	n/a	n/a	n/a	n/a	n/a	n/a	n/a	n/a	n/a	n/a	n/a	n/a	n/a	n/a
1573.808	n/a	PROB	786904	n/a	LTP141	ltpFR	9	n/a	n/a	n/a	n/a	n/a	n/a	n/a	18	2	9	7	n/a	n/a	n/a	n/a	n/a
1580.992	n/a	STOP	790496	n/a	LTP141	ltpFR	9	n/a	n/a	n/a	n/a	n/a	n/a	n/a	n/a	n/a	n/a	n/a	n/a	n/a	n/a	n/a	n/a
1581.874	n/a	WORD	790937	wordpools/wasnorm_wordpool.txt	LTP141	ltpFR	9	6	0	CRIB	407	n/a	n/a	1	n/a	0	0	0	0.422607421875	0.5869140625	0	lower	zerothre.ttf
1584.88	n/a	START	792440	n/a	LTP141	ltpFR	9	n/a	n/a	n/a	n/a	n/a	n/a	n/a	n/a	n/a	n/a	n/a	n/a	n/a	n/a	n/a	n/a
1585.802	n/a	PROB	792901	n/a	LTP141	ltpFR	9	n/a	n/a	n/a	n/a	n/a	n/a	n/a	14	8	3	3	n/a	n/a	n/a	n/a	n/a
1588.908	n/a	PROB	794454	n/a	LTP141	ltpFR	9	n/a	n/a	n/a	n/a	n/a	n/a	n/a	14	4	5	5	n/a	n/a	n/a	n/a	n/a
1590.214	n/a	PROB	795107	n/a	LTP141	ltpFR	9	n/a	n/a	n/a	n/a	n/a	n/a	n/a	17	9	4	4	n/a	n/a	n/a	n/a	n/a
1591.842	n/a	STOP	795921	n/a	LTP141	ltpFR	9	n/a	n/a	n/a	n/a	n/a	n/a	n/a	n/a	n/a	n/a	n/a	n/a	n/a	n/a	n/a	n/a
1594.084	n/a	WORD	797042	wordpools/wasnorm_wordpool.txt	LTP141	ltpFR	9	6	0	POWDER	1117	n/a	n/a	0	n/a	0	0	0	0.422607421875	0.5869140625	0	lower	zerothre.ttf
1597.09	n/a	START	798545	n/a	LTP141	ltpFR	9	n/a	n/a	n/a	n/a	n/a	n/a	n/a	n/a	n/a	n/a	n/a	n/a	n/a	n/a	n/a	n/a
1598.238	n/a	PROB	799119	n/a	LTP141	ltpFR	9	n/a	n/a	n/a	n/a	n/a	n/a	n/a	10	6	3	1	n/a	n/a	n/a	n/a	n/a
1599.854	n/a	PROB	799927	n/a	LTP141	ltpFR	9	n/a	n/a	n/a	n/a	n/a	n/a	n/a	17	8	7	2	n/a	n/a	n/a	n/a	n/a
1601.95	n/a	PROB	800975	n/a	LTP141	ltpFR	9	n/a	n/a	n/a	n/a	n/a	n/a	n/a	18	8	5	5	n/a	n/a	n/a	n/a	n/a
1605.09	n/a	STOP	802545	n/a	LTP141	ltpFR	9	n/a	n/a	n/a	n/a	n/a	n/a	n/a	n/a	n/a	n/a	n/a	n/a	n/a	n/a	n/a	n/a
1606.254	n/a	WORD	803127	wordpools/wasnorm_wordpool.txt	LTP141	ltpFR	9	6	0	KID	775	n/a	n/a	1	n/a	0	0	0	0.422607421875	0.5869140625	0	lower	zerothre.ttf
1609.26	n/a	START	804630	n/a	LTP141	ltpFR	9	n/a	n/a	n/a	n/a	n/a	n/a	n/a	n/a	n/a	n/a	n/a	n/a	n/a	n/a	n/a	n/a
1610.324	n/a	PROB	805162	n/a	LTP141	ltpFR	9	n/a	n/a	n/a	n/a	n/a	n/a	n/a	14	2	9	3	n/a	n/a	n/a	n/a	n/a
1612.83	n/a	PROB	806415	n/a	LTP141	ltpFR	9	n/a	n/a	n/a	n/a	n/a	n/a	n/a	14	7	4	3	n/a	n/a	n/a	n/a	n/a
1614.154	n/a	PROB	807077	n/a	LTP141	ltpFR	9	n/a	n/a	n/a	n/a	n/a	n/a	n/a	21	3	9	9	n/a	n/a	n/a	n/a	n/a
1616.002	n/a	STOP	808001	n/a	LTP141	ltpFR	9	n/a	n/a	n/a	n/a	n/a	n/a	n/a	n/a	n/a	n/a	n/a	n/a	n/a	n/a	n/a	n/a
1618.366	n/a	WORD	809183	wordpools/wasnorm_wordpool.txt	LTP141	ltpFR	9	6	0	FATHER	554	n/a	n/a	1	n/a	0	0	0	0.422607421875	0.5869140625	0	lower	zerothre.ttf
1621.372	n/a	START	810686	n/a	LTP141	ltpFR	9	n/a	n/a	n/a	n/a	n/a	n/a	n/a	n/a	n/a	n/a	n/a	n/a	n/a	n/a	n/a	n/a
1622.57	n/a	PROB	811285	n/a	LTP141	ltpFR	9	n/a	n/a	n/a	n/a	n/a	n/a	n/a	4	1	1	2	n/a	n/a	n/a	n/a	n/a
1623.852	n/a	PROB	811926	n/a	LTP141	ltpFR	9	n/a	n/a	n/a	n/a	n/a	n/a	n/a	13	6	3	4	n/a	n/a	n/a	n/a	n/a
1629.37	n/a	STOP	814685	n/a	LTP141	ltpFR	9	n/a	n/a	n/a	n/a	n/a	n/a	n/a	n/a	n/a	n/a	n/a	n/a	n/a	n/a	n/a	n/a
1630.344	n/a	WORD	815172	wordpools/wasnorm_wordpool.txt	LTP141	ltpFR	9	6	0	MOSQUITO	917	n/a	n/a	0	n/a	0	0	0	0.422607421875	0.5869140625	0	lower	zerothre.ttf
1633.35	n/a	START	816675	n/a	LTP141	ltpFR	9	n/a	n/a	n/a	n/a	n/a	n/a	n/a	n/a	n/a	n/a	n/a	n/a	n/a	n/a	n/a	n/a
1634.256	n/a	PROB	817128	n/a	LTP141	ltpFR	9	n/a	n/a	n/a	n/a	n/a	n/a	n/a	25	9	8	8	n/a	n/a	n/a	n/a	n/a
1637.228	n/a	PROB	818614	n/a	LTP141	ltpFR	9	n/a	n/a	n/a	n/a	n/a	n/a	n/a	21	3	9	9	n/a	n/a	n/a	n/a	n/a
1639.75	n/a	PROB	819875	n/a	LTP141	ltpFR	9	n/a	n/a	n/a	n/a	n/a	n/a	n/a	9	7	1	1	n/a	n/a	n/a	n/a	n/a
1641.076	n/a	STOP	820538	n/a	LTP141	ltpFR	9	n/a	n/a	n/a	n/a	n/a	n/a	n/a	n/a	n/a	n/a	n/a	n/a	n/a	n/a	n/a	n/a
1642.38	n/a	WORD	821190	wordpools/wasnorm_wordpool.txt	LTP141	ltpFR	9	6	0	OFFICE	972	n/a	n/a	1	n/a	0	0	0	0.422607421875	0.5869140625	0	lower	zerothre.ttf
1645.386	n/a	START	822693	n/a	LTP141	ltpFR	9	n/a	n/a	n/a	n/a	n/a	n/a	n/a	n/a	n/a	n/a	n/a	n/a	n/a	n/a	n/a	n/a
1646.468	n/a	PROB	823234	n/a	LTP141	ltpFR	9	n/a	n/a	n/a	n/a	n/a	n/a	n/a	17	5	9	3	n/a	n/a	n/a	n/a	n/a
1648.722	n/a	PROB	824361	n/a	LTP141	ltpFR	9	n/a	n/a	n/a	n/a	n/a	n/a	n/a	21	6	6	9	n/a	n/a	n/a	n/a	n/a
1653.386	n/a	STOP	826693	n/a	LTP141	ltpFR	9	n/a	n/a	n/a	n/a	n/a	n/a	n/a	n/a	n/a	n/a	n/a	n/a	n/a	n/a	n/a	n/a
1654.266	n/a	WORD	827133	wordpools/wasnorm_wordpool.txt	LTP141	ltpFR	9	6	0	SPOON	1357	n/a	n/a	0	n/a	0	0	0	0.422607421875	0.5869140625	0	lower	zerothre.ttf
1657.272	n/a	START	828636	n/a	LTP141	ltpFR	9	n/a	n/a	n/a	n/a	n/a	n/a	n/a	n/a	n/a	n/a	n/a	n/a	n/a	n/a	n/a	n/a
1658.228	n/a	PROB	829114	n/a	LTP141	ltpFR	9	n/a	n/a	n/a	n/a	n/a	n/a	n/a	16	8	2	6	n/a	n/a	n/a	n/a	n/a
1659.884	n/a	PROB	829942	n/a	LTP141	ltpFR	9	n/a	n/a	n/a	n/a	n/a	n/a	n/a	5	2	1	2	n/a	n/a	n/a	n/a	n/a
1661.426	n/a	PROB	830713	n/a	LTP141	ltpFR	9	n/a	n/a	n/a	n/a	n/a	n/a	n/a	13	6	6	1	n/a	n/a	n/a	n/a	n/a
1662.732	n/a	PROB	831366	n/a	LTP141	ltpFR	9	n/a	n/a	n/a	n/a	n/a	n/a	n/a	18	8	9	2	n/a	n/a	n/a	n/a	n/a
1664.844	n/a	STOP	832422	n/a	LTP141	ltpFR	9	n/a	n/a	n/a	n/a	n/a	n/a	n/a	n/a	n/a	n/a	n/a	n/a	n/a	n/a	n/a	n/a
1666.394	n/a	WORD	833197	wordpools/wasnorm_wordpool.txt	LTP141	ltpFR	9	6	0	TEMPLE	1448	n/a	n/a	1	n/a	0	0	0	0.422607421875	0.5869140625	0	lower	zerothre.ttf
1669.4	n/a	START	834700	n/a	LTP141	ltpFR	9	n/a	n/a	n/a	n/a	n/a	n/a	n/a	n/a	n/a	n/a	n/a	n/a	n/a	n/a	n/a	n/a
1670.38	n/a	PROB	835190	n/a	LTP141	ltpFR	9	n/a	n/a	n/a	n/a	n/a	n/a	n/a	14	2	5	7	n/a	n/a	n/a	n/a	n/a
1671.83	n/a	PROB	835915	n/a	LTP141	ltpFR	9	n/a	n/a	n/a	n/a	n/a	n/a	n/a	13	1	4	8	n/a	n/a	n/a	n/a	n/a
1674.95	n/a	PROB	837475	n/a	LTP141	ltpFR	9	n/a	n/a	n/a	n/a	n/a	n/a	n/a	9	3	4	2	n/a	n/a	n/a	n/a	n/a
1676.764	n/a	STOP	838382	n/a	LTP141	ltpFR	9	n/a	n/a	n/a	n/a	n/a	n/a	n/a	n/a	n/a	n/a	n/a	n/a	n/a	n/a	n/a	n/a
1678.456	n/a	WORD	839228	wordpools/wasnorm_wordpool.txt	LTP141	ltpFR	9	6	0	CHURCH	307	n/a	n/a	1	n/a	0	0	0	0.422607421875	0.5869140625	0	lower	zerothre.ttf
1681.462	n/a	START	840731	n/a	LTP141	ltpFR	9	n/a	n/a	n/a	n/a	n/a	n/a	n/a	n/a	n/a	n/a	n/a	n/a	n/a	n/a	n/a	n/a
1682.642	n/a	PROB	841321	n/a	LTP141	ltpFR	9	n/a	n/a	n/a	n/a	n/a	n/a	n/a	18	3	6	9	n/a	n/a	n/a	n/a	n/a
1684.264	n/a	PROB	842132	n/a	LTP141	ltpFR	9	n/a	n/a	n/a	n/a	n/a	n/a	n/a	13	8	3	2	n/a	n/a	n/a	n/a	n/a
1687.028	n/a	PROB	843514	n/a	LTP141	ltpFR	9	n/a	n/a	n/a	n/a	n/a	n/a	n/a	11	1	7	3	n/a	n/a	n/a	n/a	n/a
1688.548	n/a	STOP	844274	n/a	LTP141	ltpFR	9	n/a	n/a	n/a	n/a	n/a	n/a	n/a	n/a	n/a	n/a	n/a	n/a	n/a	n/a	n/a	n/a
1690.532	n/a	WORD	845266	wordpools/wasnorm_wordpool.txt	LTP141	ltpFR	9	6	0	CHAPEL	280	n/a	n/a	1	n/a	0	0	0	0.422607421875	0.5869140625	0	lower	zerothre.ttf
1693.538	n/a	START	846769	n/a	LTP141	ltpFR	9	n/a	n/a	n/a	n/a	n/a	n/a	n/a	n/a	n/a	n/a	n/a	n/a	n/a	n/a	n/a	n/a
1694.686	n/a	PROB	847343	n/a	LTP141	ltpFR	9	n/a	n/a	n/a	n/a	n/a	n/a	n/a	20	9	9	2	n/a	n/a	n/a	n/a	n/a
1696.286	n/a	PROB	848143	n/a	LTP141	ltpFR	9	n/a	n/a	n/a	n/a	n/a	n/a	n/a	15	9	1	5	n/a	n/a	n/a	n/a	n/a
1697.584	n/a	PROB	848792	n/a	LTP141	ltpFR	9	n/a	n/a	n/a	n/a	n/a	n/a	n/a	17	7	2	8	n/a	n/a	n/a	n/a	n/a
1699.306	n/a	PROB	849653	n/a	LTP141	ltpFR	9	n/a	n/a	n/a	n/a	n/a	n/a	n/a	17	4	8	5	n/a	n/a	n/a	n/a	n/a
1701.43	n/a	STOP	850715	n/a	LTP141	ltpFR	9	n/a	n/a	n/a	n/a	n/a	n/a	n/a	n/a	n/a	n/a	n/a	n/a	n/a	n/a	n/a	n/a
1702.438	n/a	WORD	851219	wordpools/wasnorm_wordpool.txt	LTP141	ltpFR	9	6	0	SHELF	1280	n/a	n/a	1	n/a	0	0	0	0.422607421875	0.5869140625	0	lower	zerothre.ttf
1705.442	n/a	START	852721	n/a	LTP141	ltpFR	9	n/a	n/a	n/a	n/a	n/a	n/a	n/a	n/a	n/a	n/a	n/a	n/a	n/a	n/a	n/a	n/a
1706.392	n/a	PROB	853196	n/a	LTP141	ltpFR	9	n/a	n/a	n/a	n/a	n/a	n/a	n/a	13	9	1	3	n/a	n/a	n/a	n/a	n/a
1708.104	n/a	PROB	854052	n/a	LTP141	ltpFR	9	n/a	n/a	n/a	n/a	n/a	n/a	n/a	10	5	1	4	n/a	n/a	n/a	n/a	n/a
1709.752	n/a	PROB	854876	n/a	LTP141	ltpFR	9	n/a	n/a	n/a	n/a	n/a	n/a	n/a	25	9	7	9	n/a	n/a	n/a	n/a	n/a
1713.228	n/a	STOP	856614	n/a	LTP141	ltpFR	9	n/a	n/a	n/a	n/a	n/a	n/a	n/a	n/a	n/a	n/a	n/a	n/a	n/a	n/a	n/a	n/a
1714.498	n/a	WORD	857249	wordpools/wasnorm_wordpool.txt	LTP141	ltpFR	9	6	0	CAFETERIA	217	n/a	n/a	1	n/a	0	0	0	0.422607421875	0.5869140625	0	lower	zerothre.ttf
1717.504	n/a	START	858752	n/a	LTP141	ltpFR	9	n/a	n/a	n/a	n/a	n/a	n/a	n/a	n/a	n/a	n/a	n/a	n/a	n/a	n/a	n/a	n/a
1718.318	n/a	PROB	859159	n/a	LTP141	ltpFR	9	n/a	n/a	n/a	n/a	n/a	n/a	n/a	19	8	5	6	n/a	n/a	n/a	n/a	n/a
1720.766	n/a	PROB	860383	n/a	LTP141	ltpFR	9	n/a	n/a	n/a	n/a	n/a	n/a	n/a	19	2	8	9	n/a	n/a	n/a	n/a	n/a
1722.238	n/a	PROB	861119	n/a	LTP141	ltpFR	9	n/a	n/a	n/a	n/a	n/a	n/a	n/a	18	4	8	3	n/a	n/a	n/a	n/a	n/a
1724.188	n/a	STOP	862094	n/a	LTP141	ltpFR	9	n/a	n/a	n/a	n/a	n/a	n/a	n/a	n/a	n/a	n/a	n/a	n/a	n/a	n/a	n/a	n/a
1726.608	n/a	WORD	863304	wordpools/wasnorm_wordpool.txt	LTP141	ltpFR	9	6	0	FISH	571	n/a	n/a	0	n/a	0	0	0	0.422607421875	0.5869140625	0	lower	zerothre.ttf
1729.614	n/a	START	864807	n/a	LTP141	ltpFR	9	n/a	n/a	n/a	n/a	n/a	n/a	n/a	n/a	n/a	n/a	n/a	n/a	n/a	n/a	n/a	n/a
1730.786	n/a	PROB	865393	n/a	LTP141	ltpFR	9	n/a	n/a	n/a	n/a	n/a	n/a	n/a	12	9	1	2	n/a	n/a	n/a	n/a	n/a
1731.986	n/a	PROB	865993	n/a	LTP141	ltpFR	9	n/a	n/a	n/a	n/a	n/a	n/a	n/a	20	6	7	7	n/a	n/a	n/a	n/a	n/a
1733.642	n/a	PROB	866821	n/a	LTP141	ltpFR	9	n/a	n/a	n/a	n/a	n/a	n/a	n/a	14	5	5	4	n/a	n/a	n/a	n/a	n/a
1735.298	n/a	PROB	867649	n/a	LTP141	ltpFR	9	n/a	n/a	n/a	n/a	n/a	n/a	n/a	21	8	5	8	n/a	n/a	n/a	n/a	n/a
1737.1	n/a	STOP	868550	n/a	LTP141	ltpFR	9	n/a	n/a	n/a	n/a	n/a	n/a	n/a	n/a	n/a	n/a	n/a	n/a	n/a	n/a	n/a	n/a
1739.344	n/a	REC_START	869672	n/a	LTP141	ltpFR	9	6	n/a	n/a	n/a	n/a	n/a	n/a	n/a	0	0	0	n/a	n/a	n/a	n/a	n/a
1742.024	n/a	REC_WORD	871012	wordpools/wasnorm_wordpool.txt	LTP141	ltpFR	9	6	0	CAFETERIA	217	n/a	n/a	1	n/a	0	0	0	n/a	n/a	n/a	n/a	n/a
1743.85	n/a	REC_WORD	871925	wordpools/wasnorm_wordpool.txt	LTP141	ltpFR	9	6	0	CHAPEL	280	n/a	n/a	1	n/a	0	0	0	n/a	n/a	n/a	n/a	n/a
1745.71	n/a	REC_WORD	872855	wordpools/wasnorm_wordpool.txt	LTP141	ltpFR	9	6	0	TEMPLE	1448	n/a	n/a	1	n/a	0	0	0	n/a	n/a	n/a	n/a	n/a
1747.74	n/a	REC_WORD	873870	wordpools/wasnorm_wordpool.txt	LTP141	ltpFR	9	6	0	CHURCH	307	n/a	n/a	1	n/a	0	0	0	n/a	n/a	n/a	n/a	n/a
1749.74	n/a	REC_WORD	874870	wordpools/wasnorm_wordpool.txt	LTP141	ltpFR	9	6	0	FATHER	554	n/a	n/a	1	n/a	0	0	0	n/a	n/a	n/a	n/a	n/a
1751.272	n/a	REC_WORD	875636	wordpools/wasnorm_wordpool.txt	LTP141	ltpFR	9	6	0	KID	775	n/a	n/a	1	n/a	0	0	0	n/a	n/a	n/a	n/a	n/a
1754.844	n/a	REC_WORD	877422	wordpools/wasnorm_wordpool.txt	LTP141	ltpFR	9	6	0	SCALPEL	1243	n/a	n/a	1	n/a	0	0	0	n/a	n/a	n/a	n/a	n/a
1766.224	n/a	REC_WORD	883112	wordpools/wasnorm_wordpool.txt	LTP141	ltpFR	9	6	0	SHELF	1280	n/a	n/a	1	n/a	0	0	0	n/a	n/a	n/a	n/a	n/a
1819.602	n/a	WORD	909801	wordpools/wasnorm_wordpool.txt	LTP141	ltpFR	9	7	1	PADDLE	1000	n/a	n/a	0	n/a	0	0	0	0.57763671875	0.412841796875	1	upper	amplitud.ttf
1823.788	n/a	WORD	911894	wordpools/wasnorm_wordpool.txt	LTP141	ltpFR	9	7	1	ANCHOR	21	n/a	n/a	0	n/a	0	0	0	0.57763671875	0.412841796875	1	upper	amplitud.ttf
1827.85	n/a	WORD	913925	wordpools/wasnorm_wordpool.txt	LTP141	ltpFR	9	7	1	CAPTAIN	239	n/a	n/a	1	n/a	0	0	0	0.57763671875	0.412841796875	1	upper	amplitud.ttf
1831.67	n/a	WORD	915835	wordpools/wasnorm_wordpool.txt	LTP141	ltpFR	9	7	1	BISON	131	n/a	n/a	1	n/a	0	0	0	0.57763671875	0.412841796875	1	upper	amplitud.ttf
1835.832	n/a	WORD	917916	wordpools/wasnorm_wordpool.txt	LTP141	ltpFR	9	7	0	KNOB	787	n/a	n/a	0	n/a	0	0	0	0.422607421875	0.5869140625	0	lower	zerothre.ttf
1839.92	n/a	WORD	919960	wordpools/wasnorm_wordpool.txt	LTP141	ltpFR	9	7	0	OAR	966	n/a	n/a	1	n/a	0	0	0	0.422607421875	0.5869140625	0	lower	zerothre.ttf
1844.09	n/a	WORD	922045	wordpools/wasnorm_wordpool.txt	LTP141	ltpFR	9	7	0	NURSERY	964	n/a	n/a	1	n/a	0	0	0	0.422607421875	0.5869140625	0	lower	zerothre.ttf
1847.994	n/a	WORD	923997	wordpools/wasnorm_wordpool.txt	LTP141	ltpFR	9	7	0	PASSAGE	1019	n/a	n/a	1	n/a	0	0	0	0.422607421875	0.5869140625	0	lower	zerothre.ttf
1852.074	n/a	WORD	926037	wordpools/wasnorm_wordpool.txt	LTP141	ltpFR	9	7	0	CANAL	226	n/a	n/a	1	n/a	0	0	0	0.422607421875	0.5869140625	0	lower	zerothre.ttf
1856.044	n/a	WORD	928022	wordpools/wasnorm_wordpool.txt	LTP141	ltpFR	9	7	1	DANCER	437	n/a	n/a	1	n/a	0	0	0	0.57763671875	0.412841796875	1	upper	amplitud.ttf
1860.164	n/a	WORD	930082	wordpools/wasnorm_wordpool.txt	LTP141	ltpFR	9	7	1	TOURIST	1488	n/a	n/a	1	n/a	0	0	0	0.57763671875	0.412841796875	1	upper	amplitud.ttf
1864.31	n/a	WORD	932155	wordpools/wasnorm_wordpool.txt	LTP141	ltpFR	9	7	1	PICTURE	1061	n/a	n/a	0	n/a	0	0	0	0.57763671875	0.412841796875	1	upper	amplitud.ttf
1868.406	n/a	WORD	934203	wordpools/wasnorm_wordpool.txt	LTP141	ltpFR	9	7	1	RUBY	1214	n/a	n/a	0	n/a	0	0	0	0.57763671875	0.412841796875	1	upper	amplitud.ttf
1872.308	n/a	WORD	936154	wordpools/wasnorm_wordpool.txt	LTP141	ltpFR	9	7	0	CHIME	300	n/a	n/a	0	n/a	0	0	0	0.422607421875	0.5869140625	0	lower	zerothre.ttf
1876.48	n/a	WORD	938240	wordpools/wasnorm_wordpool.txt	LTP141	ltpFR	9	7	0	TOAD	1470	n/a	n/a	0	n/a	0	0	0	0.422607421875	0.5869140625	0	lower	zerothre.ttf
1880.298	n/a	WORD	940149	wordpools/wasnorm_wordpool.txt	LTP141	ltpFR	9	7	0	PENGUIN	1044	n/a	n/a	1	n/a	0	0	0	0.422607421875	0.5869140625	0	lower	zerothre.ttf
1886.292	n/a	REC_START	943146	n/a	LTP141	ltpFR	9	7	n/a	n/a	n/a	n/a	n/a	n/a	n/a	0	0	0	n/a	n/a	n/a	n/a	n/a
1887.41	n/a	REC_WORD	943705	wordpools/wasnorm_wordpool.txt	LTP141	ltpFR	9	7	0	PENGUIN	1044	n/a	n/a	1	n/a	0	0	0	n/a	n/a	n/a	n/a	n/a
1888.802	n/a	REC_WORD	944401	wordpools/wasnorm_wordpool.txt	LTP141	ltpFR	9	7	0	TOAD	1470	n/a	n/a	0	n/a	0	0	0	n/a	n/a	n/a	n/a	n/a
1891.192	n/a	REC_WORD	945596	wordpools/wasnorm_wordpool.txt	LTP141	ltpFR	9	7	1	BISON	131	n/a	n/a	1	n/a	0	0	0	n/a	n/a	n/a	n/a	n/a
1893.52	n/a	REC_WORD	946760	wordpools/wasnorm_wordpool.txt	LTP141	ltpFR	9	7	1	PICTURE	1061	n/a	n/a	0	n/a	0	0	0	n/a	n/a	n/a	n/a	n/a
1895.776	n/a	REC_WORD	947888	wordpools/wasnorm_wordpool.txt	LTP141	ltpFR	9	7	1	CAPTAIN	239	n/a	n/a	1	n/a	0	0	0	n/a	n/a	n/a	n/a	n/a
1897.782	n/a	REC_WORD	948891	wordpools/wasnorm_wordpool.txt	LTP141	ltpFR	9	7	0	OAR	966	n/a	n/a	1	n/a	0	0	0	n/a	n/a	n/a	n/a	n/a
1899.752	n/a	REC_WORD	949876	wordpools/wasnorm_wordpool.txt	LTP141	ltpFR	9	7	1	PADDLE	1000	n/a	n/a	0	n/a	0	0	0	n/a	n/a	n/a	n/a	n/a
1966.866	n/a	WORD	983433	wordpools/wasnorm_wordpool.txt	LTP141	ltpFR	9	8	0	PUCK	1138	n/a	n/a	0	n/a	0	0	0	0.422607421875	0.5869140625	0	lower	zerothre.ttf
1970.954	n/a	WORD	985477	wordpools/wasnorm_wordpool.txt	LTP141	ltpFR	9	8	0	SHOP	1290	n/a	n/a	1	n/a	0	0	0	0.422607421875	0.5869140625	0	lower	zerothre.ttf
1974.774	n/a	WORD	987387	wordpools/wasnorm_wordpool.txt	LTP141	ltpFR	9	8	1	PLAZA	1088	n/a	n/a	0	n/a	0	0	0	0.57763671875	0.412841796875	1	upper	amplitud.ttf
1978.87	n/a	WORD	989435	wordpools/wasnorm_wordpool.txt	LTP141	ltpFR	9	8	1	PLUTO	1092	n/a	n/a	0	n/a	0	0	0	0.57763671875	0.412841796875	1	upper	amplitud.ttf
1982.74	n/a	WORD	991370	wordpools/wasnorm_wordpool.txt	LTP141	ltpFR	9	8	1	WATERFALL	1595	n/a	n/a	0	n/a	0	0	0	0.57763671875	0.412841796875	1	upper	amplitud.ttf
1986.66	n/a	WORD	993330	wordpools/wasnorm_wordpool.txt	LTP141	ltpFR	9	8	1	SWAN	1417	n/a	n/a	1	n/a	0	0	0	0.57763671875	0.412841796875	1	upper	amplitud.ttf
1990.706	n/a	WORD	995353	wordpools/wasnorm_wordpool.txt	LTP141	ltpFR	9	8	0	ROPE	1211	n/a	n/a	0	n/a	0	0	0	0.422607421875	0.5869140625	0	lower	zerothre.ttf
1994.758	n/a	WORD	997379	wordpools/wasnorm_wordpool.txt	LTP141	ltpFR	9	8	0	SLIME	1327	n/a	n/a	0	n/a	0	0	0	0.422607421875	0.5869140625	0	lower	zerothre.ttf
1998.588	n/a	WORD	999294	wordpools/wasnorm_wordpool.txt	LTP141	ltpFR	9	8	1	CANARY	227	n/a	n/a	1	n/a	0	0	0	0.57763671875	0.412841796875	1	upper	amplitud.ttf
2002.692	n/a	WORD	1001346	wordpools/wasnorm_wordpool.txt	LTP141	ltpFR	9	8	1	CHAMPION	279	n/a	n/a	1	n/a	0	0	0	0.57763671875	0.412841796875	1	upper	amplitud.ttf
2006.712	n/a	WORD	1003356	wordpools/wasnorm_wordpool.txt	LTP141	ltpFR	9	8	1	TROPHY	1509	n/a	n/a	0	n/a	0	0	0	0.57763671875	0.412841796875	1	upper	amplitud.ttf
2010.866	n/a	WORD	1005433	wordpools/wasnorm_wordpool.txt	LTP141	ltpFR	9	8	1	PIGEON	1065	n/a	n/a	1	n/a	0	0	0	0.57763671875	0.412841796875	1	upper	amplitud.ttf
2014.796	n/a	WORD	1007398	wordpools/wasnorm_wordpool.txt	LTP141	ltpFR	9	8	0	CREAM	402	n/a	n/a	0	n/a	0	0	0	0.422607421875	0.5869140625	0	lower	zerothre.ttf
2018.666	n/a	WORD	1009333	wordpools/wasnorm_wordpool.txt	LTP141	ltpFR	9	8	0	KIDNEY	776	n/a	n/a	0	n/a	0	0	0	0.422607421875	0.5869140625	0	lower	zerothre.ttf
2022.652	n/a	WORD	1011326	wordpools/wasnorm_wordpool.txt	LTP141	ltpFR	9	8	0	AIRPORT	13	n/a	n/a	1	n/a	0	0	0	0.422607421875	0.5869140625	0	lower	zerothre.ttf
2026.722	n/a	WORD	1013361	wordpools/wasnorm_wordpool.txt	LTP141	ltpFR	9	8	0	ROCKET	1202	n/a	n/a	0	n/a	0	0	0	0.422607421875	0.5869140625	0	lower	zerothre.ttf
2032.7	n/a	REC_START	1016350	n/a	LTP141	ltpFR	9	8	n/a	n/a	n/a	n/a	n/a	n/a	n/a	0	0	0	n/a	n/a	n/a	n/a	n/a
2034.684	n/a	REC_WORD	1017342	wordpools/wasnorm_wordpool.txt	LTP141	ltpFR	9	8	0	ROCKET	1202	n/a	n/a	0	n/a	0	0	0	n/a	n/a	n/a	n/a	n/a
2036.266	n/a	REC_WORD	1018133	wordpools/wasnorm_wordpool.txt	LTP141	ltpFR	9	8	0	AIRPORT	13	n/a	n/a	1	n/a	0	0	0	n/a	n/a	n/a	n/a	n/a
2042.622	n/a	REC_WORD	1021311	wordpools/wasnorm_wordpool.txt	LTP141	ltpFR	9	8	1	CHAMPION	279	n/a	n/a	1	n/a	0	0	0	n/a	n/a	n/a	n/a	n/a
2043.918	n/a	REC_WORD	1021959	wordpools/wasnorm_wordpool.txt	LTP141	ltpFR	9	8	1	TROPHY	1509	n/a	n/a	0	n/a	0	0	0	n/a	n/a	n/a	n/a	n/a
2068.906	n/a	REC_WORD	1034453	wordpools/wasnorm_wordpool.txt	LTP141	ltpFR	9	8	1	PIGEON	1065	n/a	n/a	1	n/a	0	0	0	n/a	n/a	n/a	n/a	n/a
2120.358	n/a	START	1060179	n/a	LTP141	ltpFR	9	n/a	n/a	n/a	n/a	n/a	n/a	n/a	n/a	n/a	n/a	n/a	n/a	n/a	n/a	n/a	n/a
2121.864	n/a	PROB	1060932	n/a	LTP141	ltpFR	9	n/a	n/a	n/a	n/a	n/a	n/a	n/a	14	2	5	7	n/a	n/a	n/a	n/a	n/a
2124.294	n/a	PROB	1062147	n/a	LTP141	ltpFR	9	n/a	n/a	n/a	n/a	n/a	n/a	n/a	16	1	7	8	n/a	n/a	n/a	n/a	n/a
2126.208	n/a	PROB	1063104	n/a	LTP141	ltpFR	9	n/a	n/a	n/a	n/a	n/a	n/a	n/a	10	3	5	2	n/a	n/a	n/a	n/a	n/a
2128.154	n/a	STOP	1064077	n/a	LTP141	ltpFR	9	n/a	n/a	n/a	n/a	n/a	n/a	n/a	n/a	n/a	n/a	n/a	n/a	n/a	n/a	n/a	n/a
2129.43	n/a	WORD	1064715	wordpools/wasnorm_wordpool.txt	LTP141	ltpFR	9	9	1	LETTUCE	814	n/a	n/a	0	n/a	0	0	0	0.57763671875	0.412841796875	1	upper	amplitud.ttf
2132.436	n/a	START	1066218	n/a	LTP141	ltpFR	9	n/a	n/a	n/a	n/a	n/a	n/a	n/a	n/a	n/a	n/a	n/a	n/a	n/a	n/a	n/a	n/a
2133.616	n/a	PROB	1066808	n/a	LTP141	ltpFR	9	n/a	n/a	n/a	n/a	n/a	n/a	n/a	16	7	8	1	n/a	n/a	n/a	n/a	n/a
2135.748	n/a	PROB	1067874	n/a	LTP141	ltpFR	9	n/a	n/a	n/a	n/a	n/a	n/a	n/a	19	3	9	7	n/a	n/a	n/a	n/a	n/a
2140.436	n/a	STOP	1070218	n/a	LTP141	ltpFR	9	n/a	n/a	n/a	n/a	n/a	n/a	n/a	n/a	n/a	n/a	n/a	n/a	n/a	n/a	n/a	n/a
2141.274	n/a	WORD	1070637	wordpools/wasnorm_wordpool.txt	LTP141	ltpFR	9	9	1	PATIO	1025	n/a	n/a	0	n/a	0	0	0	0.57763671875	0.412841796875	1	upper	amplitud.ttf
2144.28	n/a	START	1072140	n/a	LTP141	ltpFR	9	n/a	n/a	n/a	n/a	n/a	n/a	n/a	n/a	n/a	n/a	n/a	n/a	n/a	n/a	n/a	n/a
2145.294	n/a	PROB	1072647	n/a	LTP141	ltpFR	9	n/a	n/a	n/a	n/a	n/a	n/a	n/a	17	7	6	4	n/a	n/a	n/a	n/a	n/a
2146.734	n/a	PROB	1073367	n/a	LTP141	ltpFR	9	n/a	n/a	n/a	n/a	n/a	n/a	n/a	11	1	1	9	n/a	n/a	n/a	n/a	n/a
2148.066	n/a	PROB	1074033	n/a	LTP141	ltpFR	9	n/a	n/a	n/a	n/a	n/a	n/a	n/a	13	1	7	5	n/a	n/a	n/a	n/a	n/a
2150.538	n/a	PROB	1075269	n/a	LTP141	ltpFR	9	n/a	n/a	n/a	n/a	n/a	n/a	n/a	16	9	5	2	n/a	n/a	n/a	n/a	n/a
2151.978	n/a	STOP	1075989	n/a	LTP141	ltpFR	9	n/a	n/a	n/a	n/a	n/a	n/a	n/a	n/a	n/a	n/a	n/a	n/a	n/a	n/a	n/a	n/a
2153.11	n/a	WORD	1076555	wordpools/wasnorm_wordpool.txt	LTP141	ltpFR	9	9	1	BAKER	71	n/a	n/a	1	n/a	0	0	0	0.57763671875	0.412841796875	1	upper	amplitud.ttf
2156.118	n/a	START	1078059	n/a	LTP141	ltpFR	9	n/a	n/a	n/a	n/a	n/a	n/a	n/a	n/a	n/a	n/a	n/a	n/a	n/a	n/a	n/a	n/a
2156.998	n/a	PROB	1078499	n/a	LTP141	ltpFR	9	n/a	n/a	n/a	n/a	n/a	n/a	n/a	11	4	4	3	n/a	n/a	n/a	n/a	n/a
2159.978	n/a	PROB	1079989	n/a	LTP141	ltpFR	9	n/a	n/a	n/a	n/a	n/a	n/a	n/a	17	3	6	8	n/a	n/a	n/a	n/a	n/a
2161.752	n/a	PROB	1080876	n/a	LTP141	ltpFR	9	n/a	n/a	n/a	n/a	n/a	n/a	n/a	15	5	7	3	n/a	n/a	n/a	n/a	n/a
2163.082	n/a	STOP	1081541	n/a	LTP141	ltpFR	9	n/a	n/a	n/a	n/a	n/a	n/a	n/a	n/a	n/a	n/a	n/a	n/a	n/a	n/a	n/a	n/a
2165.19	n/a	WORD	1082595	wordpools/wasnorm_wordpool.txt	LTP141	ltpFR	9	9	1	ELM	527	n/a	n/a	1	n/a	0	0	0	0.57763671875	0.412841796875	1	upper	amplitud.ttf
2168.194	n/a	START	1084097	n/a	LTP141	ltpFR	9	n/a	n/a	n/a	n/a	n/a	n/a	n/a	n/a	n/a	n/a	n/a	n/a	n/a	n/a	n/a	n/a
2169.068	n/a	PROB	1084534	n/a	LTP141	ltpFR	9	n/a	n/a	n/a	n/a	n/a	n/a	n/a	14	6	4	4	n/a	n/a	n/a	n/a	n/a
2170.418	n/a	PROB	1085209	n/a	LTP141	ltpFR	9	n/a	n/a	n/a	n/a	n/a	n/a	n/a	19	9	9	1	n/a	n/a	n/a	n/a	n/a
2171.856	n/a	PROB	1085928	n/a	LTP141	ltpFR	9	n/a	n/a	n/a	n/a	n/a	n/a	n/a	15	3	4	8	n/a	n/a	n/a	n/a	n/a
2173.73	n/a	PROB	1086865	n/a	LTP141	ltpFR	9	n/a	n/a	n/a	n/a	n/a	n/a	n/a	17	8	3	6	n/a	n/a	n/a	n/a	n/a
2175.754	n/a	STOP	1087877	n/a	LTP141	ltpFR	9	n/a	n/a	n/a	n/a	n/a	n/a	n/a	n/a	n/a	n/a	n/a	n/a	n/a	n/a	n/a	n/a
2177.276	n/a	WORD	1088638	wordpools/wasnorm_wordpool.txt	LTP141	ltpFR	9	9	1	SIDING	1304	n/a	n/a	0	n/a	0	0	0	0.57763671875	0.412841796875	1	upper	amplitud.ttf
2180.28	n/a	START	1090140	n/a	LTP141	ltpFR	9	n/a	n/a	n/a	n/a	n/a	n/a	n/a	n/a	n/a	n/a	n/a	n/a	n/a	n/a	n/a	n/a
2181.454	n/a	PROB	1090727	n/a	LTP141	ltpFR	9	n/a	n/a	n/a	n/a	n/a	n/a	n/a	13	2	2	9	n/a	n/a	n/a	n/a	n/a
2184.558	n/a	PROB	1092279	n/a	LTP141	ltpFR	9	n/a	n/a	n/a	n/a	n/a	n/a	n/a	14	4	4	6	n/a	n/a	n/a	n/a	n/a
2185.874	n/a	PROB	1092937	n/a	LTP141	ltpFR	9	n/a	n/a	n/a	n/a	n/a	n/a	n/a	20	8	3	9	n/a	n/a	n/a	n/a	n/a
2188.154	n/a	STOP	1094077	n/a	LTP141	ltpFR	9	n/a	n/a	n/a	n/a	n/a	n/a	n/a	n/a	n/a	n/a	n/a	n/a	n/a	n/a	n/a	n/a
2189.47	n/a	WORD	1094735	wordpools/wasnorm_wordpool.txt	LTP141	ltpFR	9	9	1	COMMANDER	354	n/a	n/a	1	n/a	0	0	0	0.57763671875	0.412841796875	1	upper	amplitud.ttf
2192.476	n/a	START	1096238	n/a	LTP141	ltpFR	9	n/a	n/a	n/a	n/a	n/a	n/a	n/a	n/a	n/a	n/a	n/a	n/a	n/a	n/a	n/a	n/a
2193.442	n/a	PROB	1096721	n/a	LTP141	ltpFR	9	n/a	n/a	n/a	n/a	n/a	n/a	n/a	14	6	7	1	n/a	n/a	n/a	n/a	n/a
2195.704	n/a	PROB	1097852	n/a	LTP141	ltpFR	9	n/a	n/a	n/a	n/a	n/a	n/a	n/a	9	3	4	2	n/a	n/a	n/a	n/a	n/a
2197.676	n/a	PROB	1098838	n/a	LTP141	ltpFR	9	n/a	n/a	n/a	n/a	n/a	n/a	n/a	16	7	8	1	n/a	n/a	n/a	n/a	n/a
2200.362	n/a	STOP	1100181	n/a	LTP141	ltpFR	9	n/a	n/a	n/a	n/a	n/a	n/a	n/a	n/a	n/a	n/a	n/a	n/a	n/a	n/a	n/a	n/a
2201.432	n/a	WORD	1100716	wordpools/wasnorm_wordpool.txt	LTP141	ltpFR	9	9	1	FORT	595	n/a	n/a	0	n/a	0	0	0	0.57763671875	0.412841796875	1	upper	amplitud.ttf
2204.438	n/a	START	1102219	n/a	LTP141	ltpFR	9	n/a	n/a	n/a	n/a	n/a	n/a	n/a	n/a	n/a	n/a	n/a	n/a	n/a	n/a	n/a	n/a
2205.276	n/a	PROB	1102638	n/a	LTP141	ltpFR	9	n/a	n/a	n/a	n/a	n/a	n/a	n/a	11	3	4	4	n/a	n/a	n/a	n/a	n/a
2207.29	n/a	PROB	1103645	n/a	LTP141	ltpFR	9	n/a	n/a	n/a	n/a	n/a	n/a	n/a	17	4	4	9	n/a	n/a	n/a	n/a	n/a
2208.714	n/a	PROB	1104357	n/a	LTP141	ltpFR	9	n/a	n/a	n/a	n/a	n/a	n/a	n/a	13	7	5	1	n/a	n/a	n/a	n/a	n/a
2211.186	n/a	STOP	1105593	n/a	LTP141	ltpFR	9	n/a	n/a	n/a	n/a	n/a	n/a	n/a	n/a	n/a	n/a	n/a	n/a	n/a	n/a	n/a	n/a
2213.6	n/a	WORD	1106800	wordpools/wasnorm_wordpool.txt	LTP141	ltpFR	9	9	1	FOX	598	n/a	n/a	1	n/a	0	0	0	0.57763671875	0.412841796875	1	upper	amplitud.ttf
2216.606	n/a	START	1108303	n/a	LTP141	ltpFR	9	n/a	n/a	n/a	n/a	n/a	n/a	n/a	n/a	n/a	n/a	n/a	n/a	n/a	n/a	n/a	n/a
2217.578	n/a	PROB	1108789	n/a	LTP141	ltpFR	9	n/a	n/a	n/a	n/a	n/a	n/a	n/a	16	5	7	4	n/a	n/a	n/a	n/a	n/a
2219.26	n/a	PROB	1109630	n/a	LTP141	ltpFR	9	n/a	n/a	n/a	n/a	n/a	n/a	n/a	13	7	8	8	n/a	n/a	n/a	n/a	n/a
2224.606	n/a	STOP	1112303	n/a	LTP141	ltpFR	9	n/a	n/a	n/a	n/a	n/a	n/a	n/a	n/a	n/a	n/a	n/a	n/a	n/a	n/a	n/a	n/a
2225.528	n/a	WORD	1112764	wordpools/wasnorm_wordpool.txt	LTP141	ltpFR	9	9	1	TURNIP	1521	n/a	n/a	1	n/a	0	0	0	0.57763671875	0.412841796875	1	upper	amplitud.ttf
2228.534	n/a	START	1114267	n/a	LTP141	ltpFR	9	n/a	n/a	n/a	n/a	n/a	n/a	n/a	n/a	n/a	n/a	n/a	n/a	n/a	n/a	n/a	n/a
2229.598	n/a	PROB	1114799	n/a	LTP141	ltpFR	9	n/a	n/a	n/a	n/a	n/a	n/a	n/a	14	6	4	4	n/a	n/a	n/a	n/a	n/a
2230.906	n/a	PROB	1115453	n/a	LTP141	ltpFR	9	n/a	n/a	n/a	n/a	n/a	n/a	n/a	10	3	4	3	n/a	n/a	n/a	n/a	n/a
2232.72	n/a	PROB	1116360	n/a	LTP141	ltpFR	9	n/a	n/a	n/a	n/a	n/a	n/a	n/a	15	6	9	5	n/a	n/a	n/a	n/a	n/a
2235.42	n/a	STOP	1117710	n/a	LTP141	ltpFR	9	n/a	n/a	n/a	n/a	n/a	n/a	n/a	n/a	n/a	n/a	n/a	n/a	n/a	n/a	n/a	n/a
2237.664	n/a	WORD	1118832	wordpools/wasnorm_wordpool.txt	LTP141	ltpFR	9	9	1	CRUMB	416	n/a	n/a	0	n/a	0	0	0	0.57763671875	0.412841796875	1	upper	amplitud.ttf
2240.67	n/a	START	1120335	n/a	LTP141	ltpFR	9	n/a	n/a	n/a	n/a	n/a	n/a	n/a	n/a	n/a	n/a	n/a	n/a	n/a	n/a	n/a	n/a
2241.486	n/a	PROB	1120743	n/a	LTP141	ltpFR	9	n/a	n/a	n/a	n/a	n/a	n/a	n/a	13	7	3	3	n/a	n/a	n/a	n/a	n/a
2243.066	n/a	PROB	1121533	n/a	LTP141	ltpFR	9	n/a	n/a	n/a	n/a	n/a	n/a	n/a	15	5	9	8	n/a	n/a	n/a	n/a	n/a
2246.372	n/a	PROB	1123186	n/a	LTP141	ltpFR	9	n/a	n/a	n/a	n/a	n/a	n/a	n/a	11	8	2	1	n/a	n/a	n/a	n/a	n/a
2247.788	n/a	STOP	1123894	n/a	LTP141	ltpFR	9	n/a	n/a	n/a	n/a	n/a	n/a	n/a	n/a	n/a	n/a	n/a	n/a	n/a	n/a	n/a	n/a
2249.66	n/a	WORD	1124830	wordpools/wasnorm_wordpool.txt	LTP141	ltpFR	9	9	1	TERMITE	1451	n/a	n/a	1	n/a	0	0	0	0.57763671875	0.412841796875	1	upper	amplitud.ttf
2252.664	n/a	START	1126332	n/a	LTP141	ltpFR	9	n/a	n/a	n/a	n/a	n/a	n/a	n/a	n/a	n/a	n/a	n/a	n/a	n/a	n/a	n/a	n/a
2253.646	n/a	PROB	1126823	n/a	LTP141	ltpFR	9	n/a	n/a	n/a	n/a	n/a	n/a	n/a	9	1	4	4	n/a	n/a	n/a	n/a	n/a
2254.854	n/a	PROB	1127427	n/a	LTP141	ltpFR	9	n/a	n/a	n/a	n/a	n/a	n/a	n/a	18	6	4	8	n/a	n/a	n/a	n/a	n/a
2256.46	n/a	PROB	1128230	n/a	LTP141	ltpFR	9	n/a	n/a	n/a	n/a	n/a	n/a	n/a	13	5	1	7	n/a	n/a	n/a	n/a	n/a
2260.664	n/a	STOP	1130332	n/a	LTP141	ltpFR	9	n/a	n/a	n/a	n/a	n/a	n/a	n/a	n/a	n/a	n/a	n/a	n/a	n/a	n/a	n/a	n/a
2261.504	n/a	WORD	1130752	wordpools/wasnorm_wordpool.txt	LTP141	ltpFR	9	9	1	SHACK	1273	n/a	n/a	0	n/a	0	0	0	0.57763671875	0.412841796875	1	upper	amplitud.ttf
2264.51	n/a	START	1132255	n/a	LTP141	ltpFR	9	n/a	n/a	n/a	n/a	n/a	n/a	n/a	n/a	n/a	n/a	n/a	n/a	n/a	n/a	n/a	n/a
2265.566	n/a	PROB	1132783	n/a	LTP141	ltpFR	9	n/a	n/a	n/a	n/a	n/a	n/a	n/a	12	2	3	7	n/a	n/a	n/a	n/a	n/a
2267.156	n/a	PROB	1133578	n/a	LTP141	ltpFR	9	n/a	n/a	n/a	n/a	n/a	n/a	n/a	12	7	2	3	n/a	n/a	n/a	n/a	n/a
2269.128	n/a	PROB	1134564	n/a	LTP141	ltpFR	9	n/a	n/a	n/a	n/a	n/a	n/a	n/a	9	1	6	2	n/a	n/a	n/a	n/a	n/a
2271.164	n/a	STOP	1135582	n/a	LTP141	ltpFR	9	n/a	n/a	n/a	n/a	n/a	n/a	n/a	n/a	n/a	n/a	n/a	n/a	n/a	n/a	n/a	n/a
2273.516	n/a	WORD	1136758	wordpools/wasnorm_wordpool.txt	LTP141	ltpFR	9	9	1	ENGINE	535	n/a	n/a	0	n/a	0	0	0	0.57763671875	0.412841796875	1	upper	amplitud.ttf
2276.52	n/a	START	1138260	n/a	LTP141	ltpFR	9	n/a	n/a	n/a	n/a	n/a	n/a	n/a	n/a	n/a	n/a	n/a	n/a	n/a	n/a	n/a	n/a
2277.718	n/a	PROB	1138859	n/a	LTP141	ltpFR	9	n/a	n/a	n/a	n/a	n/a	n/a	n/a	13	1	7	5	n/a	n/a	n/a	n/a	n/a
2280.19	n/a	PROB	1140095	n/a	LTP141	ltpFR	9	n/a	n/a	n/a	n/a	n/a	n/a	n/a	22	8	7	8	n/a	n/a	n/a	n/a	n/a
2283.228	n/a	STOP	1141614	n/a	LTP141	ltpFR	9	n/a	n/a	n/a	n/a	n/a	n/a	n/a	n/a	n/a	n/a	n/a	n/a	n/a	n/a	n/a	n/a
2285.51	n/a	WORD	1142755	wordpools/wasnorm_wordpool.txt	LTP141	ltpFR	9	9	1	JEEP	753	n/a	n/a	0	n/a	0	0	0	0.57763671875	0.412841796875	1	upper	amplitud.ttf
2288.516	n/a	START	1144258	n/a	LTP141	ltpFR	9	n/a	n/a	n/a	n/a	n/a	n/a	n/a	n/a	n/a	n/a	n/a	n/a	n/a	n/a	n/a	n/a
2289.43	n/a	PROB	1144715	n/a	LTP141	ltpFR	9	n/a	n/a	n/a	n/a	n/a	n/a	n/a	12	1	9	2	n/a	n/a	n/a	n/a	n/a
2290.746	n/a	PROB	1145373	n/a	LTP141	ltpFR	9	n/a	n/a	n/a	n/a	n/a	n/a	n/a	11	1	6	4	n/a	n/a	n/a	n/a	n/a
2291.902	n/a	PROB	1145951	n/a	LTP141	ltpFR	9	n/a	n/a	n/a	n/a	n/a	n/a	n/a	9	2	4	3	n/a	n/a	n/a	n/a	n/a
2293.534	n/a	PROB	1146767	n/a	LTP141	ltpFR	9	n/a	n/a	n/a	n/a	n/a	n/a	n/a	18	7	3	8	n/a	n/a	n/a	n/a	n/a
2294.924	n/a	PROB	1147462	n/a	LTP141	ltpFR	9	n/a	n/a	n/a	n/a	n/a	n/a	n/a	17	6	4	7	n/a	n/a	n/a	n/a	n/a
2296.188	n/a	STOP	1148094	n/a	LTP141	ltpFR	9	n/a	n/a	n/a	n/a	n/a	n/a	n/a	n/a	n/a	n/a	n/a	n/a	n/a	n/a	n/a	n/a
2297.704	n/a	WORD	1148852	wordpools/wasnorm_wordpool.txt	LTP141	ltpFR	9	9	1	OTTER	986	n/a	n/a	1	n/a	0	0	0	0.57763671875	0.412841796875	1	upper	amplitud.ttf
2300.708	n/a	START	1150354	n/a	LTP141	ltpFR	9	n/a	n/a	n/a	n/a	n/a	n/a	n/a	n/a	n/a	n/a	n/a	n/a	n/a	n/a	n/a	n/a
2301.624	n/a	PROB	1150812	n/a	LTP141	ltpFR	9	n/a	n/a	n/a	n/a	n/a	n/a	n/a	14	2	3	9	n/a	n/a	n/a	n/a	n/a
2303.954	n/a	PROB	1151977	n/a	LTP141	ltpFR	9	n/a	n/a	n/a	n/a	n/a	n/a	n/a	18	9	7	2	n/a	n/a	n/a	n/a	n/a
2305.602	n/a	PROB	1152801	n/a	LTP141	ltpFR	9	n/a	n/a	n/a	n/a	n/a	n/a	n/a	16	8	1	7	n/a	n/a	n/a	n/a	n/a
2308.076	n/a	STOP	1154038	n/a	LTP141	ltpFR	9	n/a	n/a	n/a	n/a	n/a	n/a	n/a	n/a	n/a	n/a	n/a	n/a	n/a	n/a	n/a	n/a
2309.824	n/a	WORD	1154912	wordpools/wasnorm_wordpool.txt	LTP141	ltpFR	9	9	1	UMPIRE	1535	n/a	n/a	1	n/a	0	0	0	0.57763671875	0.412841796875	1	upper	amplitud.ttf
2312.828	n/a	START	1156414	n/a	LTP141	ltpFR	9	n/a	n/a	n/a	n/a	n/a	n/a	n/a	n/a	n/a	n/a	n/a	n/a	n/a	n/a	n/a	n/a
2313.728	n/a	PROB	1156864	n/a	LTP141	ltpFR	9	n/a	n/a	n/a	n/a	n/a	n/a	n/a	12	2	3	7	n/a	n/a	n/a	n/a	n/a
2315.35	n/a	PROB	1157675	n/a	LTP141	ltpFR	9	n/a	n/a	n/a	n/a	n/a	n/a	n/a	25	7	9	8	n/a	n/a	n/a	n/a	n/a
2318.83	n/a	PROB	1159415	n/a	LTP141	ltpFR	9	n/a	n/a	n/a	n/a	n/a	n/a	n/a	9	2	6	1	n/a	n/a	n/a	n/a	n/a
2320.484	n/a	STOP	1160242	n/a	LTP141	ltpFR	9	n/a	n/a	n/a	n/a	n/a	n/a	n/a	n/a	n/a	n/a	n/a	n/a	n/a	n/a	n/a	n/a
2322.71	n/a	REC_START	1161355	n/a	LTP141	ltpFR	9	9	n/a	n/a	n/a	n/a	n/a	n/a	n/a	0	0	0	n/a	n/a	n/a	n/a	n/a
2325.264	n/a	REC_WORD	1162632	wordpools/wasnorm_wordpool.txt	LTP141	ltpFR	9	9	1	COMMANDER	354	n/a	n/a	1	n/a	0	0	0	n/a	n/a	n/a	n/a	n/a
2326.88	n/a	REC_WORD	1163440	wordpools/wasnorm_wordpool.txt	LTP141	ltpFR	9	9	1	FOX	598	n/a	n/a	1	n/a	0	0	0	n/a	n/a	n/a	n/a	n/a
2328.97	n/a	REC_WORD	1164485	wordpools/wasnorm_wordpool.txt	LTP141	ltpFR	9	9	1	FORT	595	n/a	n/a	0	n/a	0	0	0	n/a	n/a	n/a	n/a	n/a
2330.886	n/a	REC_WORD	1165443	wordpools/wasnorm_wordpool.txt	LTP141	ltpFR	9	9	1	LETTUCE	814	n/a	n/a	0	n/a	0	0	0	n/a	n/a	n/a	n/a	n/a
2403.442	n/a	WORD	1201721	wordpools/wasnorm_wordpool.txt	LTP141	ltpFR	9	10	0	NAPKIN	937	n/a	n/a	0	n/a	0	0	0	0.422607421875	0.5869140625	0	lower	zerothre.ttf
2407.544	n/a	WORD	1203772	wordpools/wasnorm_wordpool.txt	LTP141	ltpFR	9	10	0	BRANDY	169	n/a	n/a	1	n/a	0	0	0	0.422607421875	0.5869140625	0	lower	zerothre.ttf
2411.474	n/a	WORD	1205737	wordpools/wasnorm_wordpool.txt	LTP141	ltpFR	9	10	0	BINDER	127	n/a	n/a	1	n/a	0	0	0	0.422607421875	0.5869140625	0	lower	zerothre.ttf
2415.352	n/a	WORD	1207676	wordpools/wasnorm_wordpool.txt	LTP141	ltpFR	9	10	1	EDITOR	516	n/a	n/a	1	n/a	0	0	0	0.57763671875	0.412841796875	1	upper	amplitud.ttf
2419.372	n/a	WORD	1209686	wordpools/wasnorm_wordpool.txt	LTP141	ltpFR	9	10	1	CANDIDATE	228	n/a	n/a	1	n/a	0	0	0	0.57763671875	0.412841796875	1	upper	amplitud.ttf
2423.402	n/a	WORD	1211701	wordpools/wasnorm_wordpool.txt	LTP141	ltpFR	9	10	1	CHECK	284	n/a	n/a	0	n/a	0	0	0	0.57763671875	0.412841796875	1	upper	amplitud.ttf
2427.356	n/a	WORD	1213678	wordpools/wasnorm_wordpool.txt	LTP141	ltpFR	9	10	1	COPIER	377	n/a	n/a	0	n/a	0	0	0	0.57763671875	0.412841796875	1	upper	amplitud.ttf
2431.484	n/a	WORD	1215742	wordpools/wasnorm_wordpool.txt	LTP141	ltpFR	9	10	0	TOWEL	1489	n/a	n/a	1	n/a	0	0	0	0.422607421875	0.5869140625	0	lower	zerothre.ttf
2435.414	n/a	WORD	1217707	wordpools/wasnorm_wordpool.txt	LTP141	ltpFR	9	10	0	CREVICE	405	n/a	n/a	0	n/a	0	0	0	0.422607421875	0.5869140625	0	lower	zerothre.ttf
2439.442	n/a	WORD	1219721	wordpools/wasnorm_wordpool.txt	LTP141	ltpFR	9	10	0	ALLEY	15	n/a	n/a	1	n/a	0	0	0	0.422607421875	0.5869140625	0	lower	zerothre.ttf
2443.562	n/a	WORD	1221781	wordpools/wasnorm_wordpool.txt	LTP141	ltpFR	9	10	0	BEER	114	n/a	n/a	0	n/a	0	0	0	0.422607421875	0.5869140625	0	lower	zerothre.ttf
2447.648	n/a	WORD	1223824	wordpools/wasnorm_wordpool.txt	LTP141	ltpFR	9	10	0	SHERIFF	1284	n/a	n/a	1	n/a	0	0	0	0.422607421875	0.5869140625	0	lower	zerothre.ttf
2451.486	n/a	WORD	1225743	wordpools/wasnorm_wordpool.txt	LTP141	ltpFR	9	10	1	ROOMMATE	1207	n/a	n/a	1	n/a	0	0	0	0.57763671875	0.412841796875	1	upper	amplitud.ttf
2455.672	n/a	WORD	1227836	wordpools/wasnorm_wordpool.txt	LTP141	ltpFR	9	10	1	FRIEND	606	n/a	n/a	1	n/a	0	0	0	0.57763671875	0.412841796875	1	upper	amplitud.ttf
2459.744	n/a	WORD	1229872	wordpools/wasnorm_wordpool.txt	LTP141	ltpFR	9	10	1	FOLDER	588	n/a	n/a	0	n/a	0	0	0	0.57763671875	0.412841796875	1	upper	amplitud.ttf
2463.606	n/a	WORD	1231803	wordpools/wasnorm_wordpool.txt	LTP141	ltpFR	9	10	1	ATTORNEY	58	n/a	n/a	1	n/a	0	0	0	0.57763671875	0.412841796875	1	upper	amplitud.ttf
2466.612	n/a	START	1233306	n/a	LTP141	ltpFR	9	n/a	n/a	n/a	n/a	n/a	n/a	n/a	n/a	n/a	n/a	n/a	n/a	n/a	n/a	n/a	n/a
2467.684	n/a	PROB	1233842	n/a	LTP141	ltpFR	9	n/a	n/a	n/a	n/a	n/a	n/a	n/a	14	5	5	4	n/a	n/a	n/a	n/a	n/a
2469.5	n/a	PROB	1234750	n/a	LTP141	ltpFR	9	n/a	n/a	n/a	n/a	n/a	n/a	n/a	12	7	3	2	n/a	n/a	n/a	n/a	n/a
2470.806	n/a	PROB	1235403	n/a	LTP141	ltpFR	9	n/a	n/a	n/a	n/a	n/a	n/a	n/a	11	1	1	9	n/a	n/a	n/a	n/a	n/a
2472.154	n/a	PROB	1236077	n/a	LTP141	ltpFR	9	n/a	n/a	n/a	n/a	n/a	n/a	n/a	11	1	4	6	n/a	n/a	n/a	n/a	n/a
2473.294	n/a	PROB	1236647	n/a	LTP141	ltpFR	9	n/a	n/a	n/a	n/a	n/a	n/a	n/a	1	6	5	9	n/a	n/a	n/a	n/a	n/a
2476.282	n/a	PROB	1238141	n/a	LTP141	ltpFR	9	n/a	n/a	n/a	n/a	n/a	n/a	n/a	15	5	5	5	n/a	n/a	n/a	n/a	n/a
2477.656	n/a	PROB	1238828	n/a	LTP141	ltpFR	9	n/a	n/a	n/a	n/a	n/a	n/a	n/a	14	5	1	8	n/a	n/a	n/a	n/a	n/a
2479.67	n/a	PROB	1239835	n/a	LTP141	ltpFR	9	n/a	n/a	n/a	n/a	n/a	n/a	n/a	11	1	9	1	n/a	n/a	n/a	n/a	n/a
2480.812	n/a	PROB	1240406	n/a	LTP141	ltpFR	9	n/a	n/a	n/a	n/a	n/a	n/a	n/a	11	2	7	2	n/a	n/a	n/a	n/a	n/a
2482.496	n/a	STOP	1241248	n/a	LTP141	ltpFR	9	n/a	n/a	n/a	n/a	n/a	n/a	n/a	n/a	n/a	n/a	n/a	n/a	n/a	n/a	n/a	n/a
2484.492	n/a	REC_START	1242246	n/a	LTP141	ltpFR	9	10	n/a	n/a	n/a	n/a	n/a	n/a	n/a	0	0	0	n/a	n/a	n/a	n/a	n/a
2486.296	n/a	REC_WORD	1243148	wordpools/wasnorm_wordpool.txt	LTP141	ltpFR	9	10	1	ATTORNEY	58	n/a	n/a	1	n/a	0	0	0	n/a	n/a	n/a	n/a	n/a
2487.664	n/a	REC_WORD	1243832	wordpools/wasnorm_wordpool.txt	LTP141	ltpFR	9	10	1	FRIEND	606	n/a	n/a	1	n/a	0	0	0	n/a	n/a	n/a	n/a	n/a
2489.206	n/a	REC_WORD	1244603	wordpools/wasnorm_wordpool.txt	LTP141	ltpFR	9	10	1	ROOMMATE	1207	n/a	n/a	1	n/a	0	0	0	n/a	n/a	n/a	n/a	n/a
2495.706	n/a	REC_WORD	1247853	wordpools/wasnorm_wordpool.txt	LTP141	ltpFR	9	10	0	NAPKIN	937	n/a	n/a	0	n/a	0	0	0	n/a	n/a	n/a	n/a	n/a
2496.958	n/a	REC_WORD	1248479	wordpools/wasnorm_wordpool.txt	LTP141	ltpFR	9	10	0	TOWEL	1489	n/a	n/a	1	n/a	0	0	0	n/a	n/a	n/a	n/a	n/a
2503.512	n/a	REC_WORD	1251756	wordpools/wasnorm_wordpool.txt	LTP141	ltpFR	9	10	1	FOLDER	588	n/a	n/a	0	n/a	0	0	0	n/a	n/a	n/a	n/a	n/a
2532.468	n/a	REC_WORD	1266234	wordpools/wasnorm_wordpool.txt	LTP141	ltpFR	9	10	0	BRANDY	169	n/a	n/a	1	n/a	0	0	0	n/a	n/a	n/a	n/a	n/a
2560.078	n/a	REST_REWET	1280039	n/a	LTP141	ltpFR	9	10	n/a	n/a	n/a	n/a	n/a	n/a	n/a	0	0	0	n/a	n/a	n/a	n/a	n/a
2925.478	n/a	WORD	1462739	wordpools/wasnorm_wordpool.txt	LTP141	ltpFR	9	11	1	PLANE	1081	n/a	n/a	0	n/a	0	0	0	0.57763671875	0.412841796875	1	upper	amplitud.ttf
2929.664	n/a	WORD	1464832	wordpools/wasnorm_wordpool.txt	LTP141	ltpFR	9	11	1	THIGH	1457	n/a	n/a	1	n/a	0	0	0	0.57763671875	0.412841796875	1	upper	amplitud.ttf
2933.518	n/a	WORD	1466759	wordpools/wasnorm_wordpool.txt	LTP141	ltpFR	9	11	1	LEG	809	n/a	n/a	1	n/a	0	0	0	0.57763671875	0.412841796875	1	upper	amplitud.ttf
2937.498	n/a	WORD	1468749	wordpools/wasnorm_wordpool.txt	LTP141	ltpFR	9	11	0	CONTAINER	366	n/a	n/a	0	n/a	0	0	0	0.422607421875	0.5869140625	0	lower	zerothre.ttf
2941.666	n/a	WORD	1470833	wordpools/wasnorm_wordpool.txt	LTP141	ltpFR	9	11	0	PORT	1110	n/a	n/a	1	n/a	0	0	0	0.422607421875	0.5869140625	0	lower	zerothre.ttf
2945.62	n/a	WORD	1472810	wordpools/wasnorm_wordpool.txt	LTP141	ltpFR	9	11	0	DOUGHNUT	490	n/a	n/a	0	n/a	0	0	0	0.422607421875	0.5869140625	0	lower	zerothre.ttf
2949.632	n/a	WORD	1474816	wordpools/wasnorm_wordpool.txt	LTP141	ltpFR	9	11	0	BASKET	95	n/a	n/a	1	n/a	0	0	0	0.422607421875	0.5869140625	0	lower	zerothre.ttf
2953.586	n/a	WORD	1476793	wordpools/wasnorm_wordpool.txt	LTP141	ltpFR	9	11	0	STEAM	1375	n/a	n/a	1	n/a	0	0	0	0.422607421875	0.5869140625	0	lower	zerothre.ttf
2957.622	n/a	WORD	1478811	wordpools/wasnorm_wordpool.txt	LTP141	ltpFR	9	11	1	PHILOSOPHER	1054	n/a	n/a	1	n/a	0	0	0	0.57763671875	0.412841796875	1	upper	amplitud.ttf
2961.776	n/a	WORD	1480888	wordpools/wasnorm_wordpool.txt	LTP141	ltpFR	9	11	1	SAILOR	1223	n/a	n/a	1	n/a	0	0	0	0.57763671875	0.412841796875	1	upper	amplitud.ttf
2965.606	n/a	WORD	1482803	wordpools/wasnorm_wordpool.txt	LTP141	ltpFR	9	11	0	SKI	1316	n/a	n/a	1	n/a	0	0	0	0.422607421875	0.5869140625	0	lower	zerothre.ttf
2969.7	n/a	WORD	1484850	wordpools/wasnorm_wordpool.txt	LTP141	ltpFR	9	11	0	CLIMBER	323	n/a	n/a	1	n/a	0	0	0	0.422607421875	0.5869140625	0	lower	zerothre.ttf
2973.82	n/a	WORD	1486910	wordpools/wasnorm_wordpool.txt	LTP141	ltpFR	9	11	0	TART	1436	n/a	n/a	0	n/a	0	0	0	0.422607421875	0.5869140625	0	lower	zerothre.ttf
2978.0	n/a	WORD	1489000	wordpools/wasnorm_wordpool.txt	LTP141	ltpFR	9	11	1	DICTATOR	462	n/a	n/a	1	n/a	0	0	0	0.57763671875	0.412841796875	1	upper	amplitud.ttf
2981.836	n/a	WORD	1490918	wordpools/wasnorm_wordpool.txt	LTP141	ltpFR	9	11	1	GENERAL	630	n/a	n/a	1	n/a	0	0	0	0.57763671875	0.412841796875	1	upper	amplitud.ttf
2985.824	n/a	WORD	1492912	wordpools/wasnorm_wordpool.txt	LTP141	ltpFR	9	11	1	FLY	586	n/a	n/a	1	n/a	0	0	0	0.57763671875	0.412841796875	1	upper	amplitud.ttf
2988.828	n/a	START	1494414	n/a	LTP141	ltpFR	9	n/a	n/a	n/a	n/a	n/a	n/a	n/a	n/a	n/a	n/a	n/a	n/a	n/a	n/a	n/a	n/a
2989.936	n/a	PROB	1494968	n/a	LTP141	ltpFR	9	n/a	n/a	n/a	n/a	n/a	n/a	n/a	16	3	9	4	n/a	n/a	n/a	n/a	n/a
2992.64	n/a	PROB	1496320	n/a	LTP141	ltpFR	9	n/a	n/a	n/a	n/a	n/a	n/a	n/a	11	7	3	1	n/a	n/a	n/a	n/a	n/a
2993.864	n/a	PROB	1496932	n/a	LTP141	ltpFR	9	n/a	n/a	n/a	n/a	n/a	n/a	n/a	16	2	8	6	n/a	n/a	n/a	n/a	n/a
2996.83	n/a	STOP	1498415	n/a	LTP141	ltpFR	9	n/a	n/a	n/a	n/a	n/a	n/a	n/a	n/a	n/a	n/a	n/a	n/a	n/a	n/a	n/a	n/a
2998.636	n/a	REC_START	1499318	n/a	LTP141	ltpFR	9	11	n/a	n/a	n/a	n/a	n/a	n/a	n/a	0	0	0	n/a	n/a	n/a	n/a	n/a
3000.934	n/a	REC_WORD	1500467	wordpools/wasnorm_wordpool.txt	LTP141	ltpFR	9	11	1	DICTATOR	462	n/a	n/a	1	n/a	0	0	0	n/a	n/a	n/a	n/a	n/a
3003.918	n/a	REC_WORD	1501959	wordpools/wasnorm_wordpool.txt	LTP141	ltpFR	9	11	1	THIGH	1457	n/a	n/a	1	n/a	0	0	0	n/a	n/a	n/a	n/a	n/a
3005.45	n/a	REC_WORD	1502725	wordpools/wasnorm_wordpool.txt	LTP141	ltpFR	9	11	1	LEG	809	n/a	n/a	1	n/a	0	0	0	n/a	n/a	n/a	n/a	n/a
3011.97	n/a	REC_WORD	1505985	wordpools/wasnorm_wordpool.txt	LTP141	ltpFR	9	11	0	CONTAINER	366	n/a	n/a	0	n/a	0	0	0	n/a	n/a	n/a	n/a	n/a
3013.492	n/a	REC_WORD	1506746	wordpools/wasnorm_wordpool.txt	LTP141	ltpFR	9	11	0	BASKET	95	n/a	n/a	1	n/a	0	0	0	n/a	n/a	n/a	n/a	n/a
3015.132	n/a	REC_WORD	1507566	wordpools/wasnorm_wordpool.txt	LTP141	ltpFR	9	11	0	DOUGHNUT	490	n/a	n/a	0	n/a	0	0	0	n/a	n/a	n/a	n/a	n/a
3016.73	n/a	REC_WORD	1508365	wordpools/wasnorm_wordpool.txt	LTP141	ltpFR	9	11	0	TART	1436	n/a	n/a	0	n/a	0	0	0	n/a	n/a	n/a	n/a	n/a
3024.002	n/a	REC_WORD	1512001	wordpools/wasnorm_wordpool.txt	LTP141	ltpFR	9	11	1	PHILOSOPHER	1054	n/a	n/a	1	n/a	0	0	0	n/a	n/a	n/a	n/a	n/a
3081.174	n/a	START	1540587	n/a	LTP141	ltpFR	9	n/a	n/a	n/a	n/a	n/a	n/a	n/a	n/a	n/a	n/a	n/a	n/a	n/a	n/a	n/a	n/a
3082.68	n/a	PROB	1541340	n/a	LTP141	ltpFR	9	n/a	n/a	n/a	n/a	n/a	n/a	n/a	16	4	3	9	n/a	n/a	n/a	n/a	n/a
3084.852	n/a	PROB	1542426	n/a	LTP141	ltpFR	9	n/a	n/a	n/a	n/a	n/a	n/a	n/a	23	6	8	9	n/a	n/a	n/a	n/a	n/a
3088.856	n/a	PROB	1544428	n/a	LTP141	ltpFR	9	n/a	n/a	n/a	n/a	n/a	n/a	n/a	18	6	4	8	n/a	n/a	n/a	n/a	n/a
3090.204	n/a	PROB	1545102	n/a	LTP141	ltpFR	9	n/a	n/a	n/a	n/a	n/a	n/a	n/a	17	7	8	2	n/a	n/a	n/a	n/a	n/a
3092.144	n/a	PROB	1546072	n/a	LTP141	ltpFR	9	n/a	n/a	n/a	n/a	n/a	n/a	n/a	10	4	1	5	n/a	n/a	n/a	n/a	n/a
3093.46	n/a	PROB	1546730	n/a	LTP141	ltpFR	9	n/a	n/a	n/a	n/a	n/a	n/a	n/a	12	3	5	4	n/a	n/a	n/a	n/a	n/a
3096.598	n/a	STOP	1548299	n/a	LTP141	ltpFR	9	n/a	n/a	n/a	n/a	n/a	n/a	n/a	n/a	n/a	n/a	n/a	n/a	n/a	n/a	n/a	n/a
3098.296	n/a	WORD	1549148	wordpools/wasnorm_wordpool.txt	LTP141	ltpFR	9	12	0	ROOSTER	1209	n/a	n/a	1	n/a	0	0	0	0.422607421875	0.5869140625	0	lower	zerothre.ttf
3101.3	n/a	START	1550650	n/a	LTP141	ltpFR	9	n/a	n/a	n/a	n/a	n/a	n/a	n/a	n/a	n/a	n/a	n/a	n/a	n/a	n/a	n/a	n/a
3102.274	n/a	PROB	1551137	n/a	LTP141	ltpFR	9	n/a	n/a	n/a	n/a	n/a	n/a	n/a	8	1	1	6	n/a	n/a	n/a	n/a	n/a
3103.664	n/a	PROB	1551832	n/a	LTP141	ltpFR	9	n/a	n/a	n/a	n/a	n/a	n/a	n/a	10	2	1	7	n/a	n/a	n/a	n/a	n/a
3105.112	n/a	PROB	1552556	n/a	LTP141	ltpFR	9	n/a	n/a	n/a	n/a	n/a	n/a	n/a	16	2	7	7	n/a	n/a	n/a	n/a	n/a
3106.694	n/a	PROB	1553347	n/a	LTP141	ltpFR	9	n/a	n/a	n/a	n/a	n/a	n/a	n/a	12	7	3	2	n/a	n/a	n/a	n/a	n/a
3108.068	n/a	PROB	1554034	n/a	LTP141	ltpFR	9	n/a	n/a	n/a	n/a	n/a	n/a	n/a	8	1	4	3	n/a	n/a	n/a	n/a	n/a
3109.774	n/a	PROB	1554887	n/a	LTP141	ltpFR	9	n/a	n/a	n/a	n/a	n/a	n/a	n/a	16	7	6	3	n/a	n/a	n/a	n/a	n/a
3112.03	n/a	PROB	1556015	n/a	LTP141	ltpFR	9	n/a	n/a	n/a	n/a	n/a	n/a	n/a	10	4	5	1	n/a	n/a	n/a	n/a	n/a
3114.044	n/a	PROB	1557022	n/a	LTP141	ltpFR	9	n/a	n/a	n/a	n/a	n/a	n/a	n/a	21	7	7	7	n/a	n/a	n/a	n/a	n/a
3115.418	n/a	PROB	1557709	n/a	LTP141	ltpFR	9	n/a	n/a	n/a	n/a	n/a	n/a	n/a	11	3	7	1	n/a	n/a	n/a	n/a	n/a
3116.67	n/a	STOP	1558335	n/a	LTP141	ltpFR	9	n/a	n/a	n/a	n/a	n/a	n/a	n/a	n/a	n/a	n/a	n/a	n/a	n/a	n/a	n/a	n/a
3118.288	n/a	WORD	1559144	wordpools/wasnorm_wordpool.txt	LTP141	ltpFR	9	12	0	CHICK	296	n/a	n/a	0	n/a	0	0	0	0.422607421875	0.5869140625	0	lower	zerothre.ttf
3121.294	n/a	START	1560647	n/a	LTP141	ltpFR	9	n/a	n/a	n/a	n/a	n/a	n/a	n/a	n/a	n/a	n/a	n/a	n/a	n/a	n/a	n/a	n/a
3122.368	n/a	PROB	1561184	n/a	LTP141	ltpFR	9	n/a	n/a	n/a	n/a	n/a	n/a	n/a	13	7	3	3	n/a	n/a	n/a	n/a	n/a
3123.816	n/a	PROB	1561908	n/a	LTP141	ltpFR	9	n/a	n/a	n/a	n/a	n/a	n/a	n/a	8	5	2	1	n/a	n/a	n/a	n/a	n/a
3125.996	n/a	PROB	1562998	n/a	LTP141	ltpFR	9	n/a	n/a	n/a	n/a	n/a	n/a	n/a	14	4	5	5	n/a	n/a	n/a	n/a	n/a
3127.278	n/a	PROB	1563639	n/a	LTP141	ltpFR	9	n/a	n/a	n/a	n/a	n/a	n/a	n/a	11	7	3	1	n/a	n/a	n/a	n/a	n/a
3128.52	n/a	PROB	1564260	n/a	LTP141	ltpFR	9	n/a	n/a	n/a	n/a	n/a	n/a	n/a	15	5	5	5	n/a	n/a	n/a	n/a	n/a
3129.726	n/a	PROB	1564863	n/a	LTP141	ltpFR	9	n/a	n/a	n/a	n/a	n/a	n/a	n/a	16	2	5	9	n/a	n/a	n/a	n/a	n/a
3131.274	n/a	PROB	1565637	n/a	LTP141	ltpFR	9	n/a	n/a	n/a	n/a	n/a	n/a	n/a	15	9	5	1	n/a	n/a	n/a	n/a	n/a
3132.432	n/a	PROB	1566216	n/a	LTP141	ltpFR	9	n/a	n/a	n/a	n/a	n/a	n/a	n/a	14	8	2	4	n/a	n/a	n/a	n/a	n/a
3134.52	n/a	PROB	1567260	n/a	LTP141	ltpFR	9	n/a	n/a	n/a	n/a	n/a	n/a	n/a	14	1	7	6	n/a	n/a	n/a	n/a	n/a
3136.424	n/a	STOP	1568212	n/a	LTP141	ltpFR	9	n/a	n/a	n/a	n/a	n/a	n/a	n/a	n/a	n/a	n/a	n/a	n/a	n/a	n/a	n/a	n/a
3138.108	n/a	WORD	1569054	wordpools/wasnorm_wordpool.txt	LTP141	ltpFR	9	12	0	FLOUR	583	n/a	n/a	0	n/a	0	0	0	0.422607421875	0.5869140625	0	lower	zerothre.ttf
3141.112	n/a	START	1570556	n/a	LTP141	ltpFR	9	n/a	n/a	n/a	n/a	n/a	n/a	n/a	n/a	n/a	n/a	n/a	n/a	n/a	n/a	n/a	n/a
3142.278	n/a	PROB	1571139	n/a	LTP141	ltpFR	9	n/a	n/a	n/a	n/a	n/a	n/a	n/a	20	7	6	8	n/a	n/a	n/a	n/a	n/a
3145.874	n/a	PROB	1572937	n/a	LTP141	ltpFR	9	n/a	n/a	n/a	n/a	n/a	n/a	n/a	22	9	6	7	n/a	n/a	n/a	n/a	n/a
3149.522	n/a	PROB	1574761	n/a	LTP141	ltpFR	9	n/a	n/a	n/a	n/a	n/a	n/a	n/a	15	6	8	1	n/a	n/a	n/a	n/a	n/a
3151.068	n/a	PROB	1575534	n/a	LTP141	ltpFR	9	n/a	n/a	n/a	n/a	n/a	n/a	n/a	19	8	8	3	n/a	n/a	n/a	n/a	n/a
3152.842	n/a	PROB	1576421	n/a	LTP141	ltpFR	9	n/a	n/a	n/a	n/a	n/a	n/a	n/a	10	3	3	4	n/a	n/a	n/a	n/a	n/a
3154.698	n/a	PROB	1577349	n/a	LTP141	ltpFR	9	n/a	n/a	n/a	n/a	n/a	n/a	n/a	6	1	1	4	n/a	n/a	n/a	n/a	n/a
3155.976	n/a	STOP	1577988	n/a	LTP141	ltpFR	9	n/a	n/a	n/a	n/a	n/a	n/a	n/a	n/a	n/a	n/a	n/a	n/a	n/a	n/a	n/a	n/a
3158.126	n/a	WORD	1579063	wordpools/wasnorm_wordpool.txt	LTP141	ltpFR	9	12	0	TAPIOCA	1434	n/a	n/a	0	n/a	0	0	0	0.422607421875	0.5869140625	0	lower	zerothre.ttf
3161.132	n/a	START	1580566	n/a	LTP141	ltpFR	9	n/a	n/a	n/a	n/a	n/a	n/a	n/a	n/a	n/a	n/a	n/a	n/a	n/a	n/a	n/a	n/a
3162.23	n/a	PROB	1581115	n/a	LTP141	ltpFR	9	n/a	n/a	n/a	n/a	n/a	n/a	n/a	18	7	8	3	n/a	n/a	n/a	n/a	n/a
3164.036	n/a	PROB	1582018	n/a	LTP141	ltpFR	9	n/a	n/a	n/a	n/a	n/a	n/a	n/a	9	2	3	4	n/a	n/a	n/a	n/a	n/a
3166.526	n/a	PROB	1583263	n/a	LTP141	ltpFR	9	n/a	n/a	n/a	n/a	n/a	n/a	n/a	16	1	8	7	n/a	n/a	n/a	n/a	n/a
3168.664	n/a	PROB	1584332	n/a	LTP141	ltpFR	9	n/a	n/a	n/a	n/a	n/a	n/a	n/a	17	8	4	5	n/a	n/a	n/a	n/a	n/a
3170.97	n/a	PROB	1585485	n/a	LTP141	ltpFR	9	n/a	n/a	n/a	n/a	n/a	n/a	n/a	8	5	1	2	n/a	n/a	n/a	n/a	n/a
3173.076	n/a	PROB	1586538	n/a	LTP141	ltpFR	9	n/a	n/a	n/a	n/a	n/a	n/a	n/a	13	1	8	4	n/a	n/a	n/a	n/a	n/a
3175.024	n/a	PROB	1587512	n/a	LTP141	ltpFR	9	n/a	n/a	n/a	n/a	n/a	n/a	n/a	15	1	9	5	n/a	n/a	n/a	n/a	n/a
3176.448	n/a	STOP	1588224	n/a	LTP141	ltpFR	9	n/a	n/a	n/a	n/a	n/a	n/a	n/a	n/a	n/a	n/a	n/a	n/a	n/a	n/a	n/a	n/a
3178.312	n/a	WORD	1589156	wordpools/wasnorm_wordpool.txt	LTP141	ltpFR	9	12	0	CHART	282	n/a	n/a	1	n/a	0	0	0	0.422607421875	0.5869140625	0	lower	zerothre.ttf
3181.316	n/a	START	1590658	n/a	LTP141	ltpFR	9	n/a	n/a	n/a	n/a	n/a	n/a	n/a	n/a	n/a	n/a	n/a	n/a	n/a	n/a	n/a	n/a
3182.34	n/a	PROB	1591170	n/a	LTP141	ltpFR	9	n/a	n/a	n/a	n/a	n/a	n/a	n/a	22	8	8	6	n/a	n/a	n/a	n/a	n/a
3185.17	n/a	PROB	1592585	n/a	LTP141	ltpFR	9	n/a	n/a	n/a	n/a	n/a	n/a	n/a	10	2	6	2	n/a	n/a	n/a	n/a	n/a
3187.052	n/a	PROB	1593526	n/a	LTP141	ltpFR	9	n/a	n/a	n/a	n/a	n/a	n/a	n/a	13	4	3	6	n/a	n/a	n/a	n/a	n/a
3188.958	n/a	PROB	1594479	n/a	LTP141	ltpFR	9	n/a	n/a	n/a	n/a	n/a	n/a	n/a	18	6	3	9	n/a	n/a	n/a	n/a	n/a
3191.372	n/a	PROB	1595686	n/a	LTP141	ltpFR	9	n/a	n/a	n/a	n/a	n/a	n/a	n/a	9	6	1	2	n/a	n/a	n/a	n/a	n/a
3193.094	n/a	PROB	1596547	n/a	LTP141	ltpFR	9	n/a	n/a	n/a	n/a	n/a	n/a	n/a	16	7	4	5	n/a	n/a	n/a	n/a	n/a
3197.316	n/a	STOP	1598658	n/a	LTP141	ltpFR	9	n/a	n/a	n/a	n/a	n/a	n/a	n/a	n/a	n/a	n/a	n/a	n/a	n/a	n/a	n/a	n/a
3198.322	n/a	WORD	1599161	wordpools/wasnorm_wordpool.txt	LTP141	ltpFR	9	12	0	DESSERT	453	n/a	n/a	0	n/a	0	0	0	0.422607421875	0.5869140625	0	lower	zerothre.ttf
3201.328	n/a	START	1600664	n/a	LTP141	ltpFR	9	n/a	n/a	n/a	n/a	n/a	n/a	n/a	n/a	n/a	n/a	n/a	n/a	n/a	n/a	n/a	n/a
3202.3	n/a	PROB	1601150	n/a	LTP141	ltpFR	9	n/a	n/a	n/a	n/a	n/a	n/a	n/a	17	8	8	1	n/a	n/a	n/a	n/a	n/a
3204.248	n/a	PROB	1602124	n/a	LTP141	ltpFR	9	n/a	n/a	n/a	n/a	n/a	n/a	n/a	13	4	1	8	n/a	n/a	n/a	n/a	n/a
3207.054	n/a	PROB	1603527	n/a	LTP141	ltpFR	9	n/a	n/a	n/a	n/a	n/a	n/a	n/a	18	2	7	9	n/a	n/a	n/a	n/a	n/a
3208.52	n/a	PROB	1604260	n/a	LTP141	ltpFR	9	n/a	n/a	n/a	n/a	n/a	n/a	n/a	16	3	5	8	n/a	n/a	n/a	n/a	n/a
3210.074	n/a	PROB	1605037	n/a	LTP141	ltpFR	9	n/a	n/a	n/a	n/a	n/a	n/a	n/a	9	3	2	4	n/a	n/a	n/a	n/a	n/a
3212.946	n/a	PROB	1606473	n/a	LTP141	ltpFR	9	n/a	n/a	n/a	n/a	n/a	n/a	n/a	15	2	5	8	n/a	n/a	n/a	n/a	n/a
3215.618	n/a	PROB	1607809	n/a	LTP141	ltpFR	9	n/a	n/a	n/a	n/a	n/a	n/a	n/a	13	6	1	6	n/a	n/a	n/a	n/a	n/a
3217.016	n/a	STOP	1608508	n/a	LTP141	ltpFR	9	n/a	n/a	n/a	n/a	n/a	n/a	n/a	n/a	n/a	n/a	n/a	n/a	n/a	n/a	n/a	n/a
3218.282	n/a	WORD	1609141	wordpools/wasnorm_wordpool.txt	LTP141	ltpFR	9	12	0	DINER	467	n/a	n/a	1	n/a	0	0	0	0.422607421875	0.5869140625	0	lower	zerothre.ttf
3221.288	n/a	START	1610644	n/a	LTP141	ltpFR	9	n/a	n/a	n/a	n/a	n/a	n/a	n/a	n/a	n/a	n/a	n/a	n/a	n/a	n/a	n/a	n/a
3222.454	n/a	PROB	1611227	n/a	LTP141	ltpFR	9	n/a	n/a	n/a	n/a	n/a	n/a	n/a	10	3	6	1	n/a	n/a	n/a	n/a	n/a
3224.034	n/a	PROB	1612017	n/a	LTP141	ltpFR	9	n/a	n/a	n/a	n/a	n/a	n/a	n/a	11	1	6	4	n/a	n/a	n/a	n/a	n/a
3225.25	n/a	PROB	1612625	n/a	LTP141	ltpFR	9	n/a	n/a	n/a	n/a	n/a	n/a	n/a	4	1	2	1	n/a	n/a	n/a	n/a	n/a
3226.69	n/a	PROB	1613345	n/a	LTP141	ltpFR	9	n/a	n/a	n/a	n/a	n/a	n/a	n/a	18	3	9	6	n/a	n/a	n/a	n/a	n/a
3229.12	n/a	PROB	1614560	n/a	LTP141	ltpFR	9	n/a	n/a	n/a	n/a	n/a	n/a	n/a	20	9	2	9	n/a	n/a	n/a	n/a	n/a
3231.876	n/a	PROB	1615938	n/a	LTP141	ltpFR	9	n/a	n/a	n/a	n/a	n/a	n/a	n/a	16	1	9	6	n/a	n/a	n/a	n/a	n/a
3233.158	n/a	PROB	1616579	n/a	LTP141	ltpFR	9	n/a	n/a	n/a	n/a	n/a	n/a	n/a	15	3	5	6	n/a	n/a	n/a	n/a	n/a
3237.288	n/a	STOP	1618644	n/a	LTP141	ltpFR	9	n/a	n/a	n/a	n/a	n/a	n/a	n/a	n/a	n/a	n/a	n/a	n/a	n/a	n/a	n/a	n/a
3238.494	n/a	WORD	1619247	wordpools/wasnorm_wordpool.txt	LTP141	ltpFR	9	12	0	PAN	1008	n/a	n/a	1	n/a	0	0	0	0.422607421875	0.5869140625	0	lower	zerothre.ttf
3241.5	n/a	START	1620750	n/a	LTP141	ltpFR	9	n/a	n/a	n/a	n/a	n/a	n/a	n/a	n/a	n/a	n/a	n/a	n/a	n/a	n/a	n/a	n/a
3242.506	n/a	PROB	1621253	n/a	LTP141	ltpFR	9	n/a	n/a	n/a	n/a	n/a	n/a	n/a	20	3	8	9	n/a	n/a	n/a	n/a	n/a
3244.552	n/a	PROB	1622276	n/a	LTP141	ltpFR	9	n/a	n/a	n/a	n/a	n/a	n/a	n/a	13	1	9	3	n/a	n/a	n/a	n/a	n/a
3245.918	n/a	PROB	1622959	n/a	LTP141	ltpFR	9	n/a	n/a	n/a	n/a	n/a	n/a	n/a	7	1	3	3	n/a	n/a	n/a	n/a	n/a
3247.332	n/a	PROB	1623666	n/a	LTP141	ltpFR	9	n/a	n/a	n/a	n/a	n/a	n/a	n/a	10	2	3	5	n/a	n/a	n/a	n/a	n/a
3249.064	n/a	PROB	1624532	n/a	LTP141	ltpFR	9	n/a	n/a	n/a	n/a	n/a	n/a	n/a	12	4	4	4	n/a	n/a	n/a	n/a	n/a
3252.144	n/a	PROB	1626072	n/a	LTP141	ltpFR	9	n/a	n/a	n/a	n/a	n/a	n/a	n/a	16	1	8	7	n/a	n/a	n/a	n/a	n/a
3253.766	n/a	PROB	1626883	n/a	LTP141	ltpFR	9	n/a	n/a	n/a	n/a	n/a	n/a	n/a	15	9	2	4	n/a	n/a	n/a	n/a	n/a
3255.29	n/a	PROB	1627645	n/a	LTP141	ltpFR	9	n/a	n/a	n/a	n/a	n/a	n/a	n/a	13	6	1	6	n/a	n/a	n/a	n/a	n/a
3256.696	n/a	STOP	1628348	n/a	LTP141	ltpFR	9	n/a	n/a	n/a	n/a	n/a	n/a	n/a	n/a	n/a	n/a	n/a	n/a	n/a	n/a	n/a	n/a
3258.67	n/a	WORD	1629335	wordpools/wasnorm_wordpool.txt	LTP141	ltpFR	9	12	0	CHAUFFEUR	283	n/a	n/a	1	n/a	0	0	0	0.422607421875	0.5869140625	0	lower	zerothre.ttf
3261.674	n/a	START	1630837	n/a	LTP141	ltpFR	9	n/a	n/a	n/a	n/a	n/a	n/a	n/a	n/a	n/a	n/a	n/a	n/a	n/a	n/a	n/a	n/a
3262.774	n/a	PROB	1631387	n/a	LTP141	ltpFR	9	n/a	n/a	n/a	n/a	n/a	n/a	n/a	15	3	3	9	n/a	n/a	n/a	n/a	n/a
3266.512	n/a	PROB	1633256	n/a	LTP141	ltpFR	9	n/a	n/a	n/a	n/a	n/a	n/a	n/a	17	6	9	2	n/a	n/a	n/a	n/a	n/a
3268.584	n/a	PROB	1634292	n/a	LTP141	ltpFR	9	n/a	n/a	n/a	n/a	n/a	n/a	n/a	16	6	5	5	n/a	n/a	n/a	n/a	n/a
3269.84	n/a	PROB	1634920	n/a	LTP141	ltpFR	9	n/a	n/a	n/a	n/a	n/a	n/a	n/a	16	8	5	3	n/a	n/a	n/a	n/a	n/a
3272.02	n/a	PROB	1636010	n/a	LTP141	ltpFR	9	n/a	n/a	n/a	n/a	n/a	n/a	n/a	16	2	5	9	n/a	n/a	n/a	n/a	n/a
3273.802	n/a	PROB	1636901	n/a	LTP141	ltpFR	9	n/a	n/a	n/a	n/a	n/a	n/a	n/a	19	5	5	9	n/a	n/a	n/a	n/a	n/a
3275.01	n/a	PROB	1637505	n/a	LTP141	ltpFR	9	n/a	n/a	n/a	n/a	n/a	n/a	n/a	20	8	5	7	n/a	n/a	n/a	n/a	n/a
3277.16	n/a	STOP	1638580	n/a	LTP141	ltpFR	9	n/a	n/a	n/a	n/a	n/a	n/a	n/a	n/a	n/a	n/a	n/a	n/a	n/a	n/a	n/a	n/a
3278.498	n/a	WORD	1639249	wordpools/wasnorm_wordpool.txt	LTP141	ltpFR	9	12	0	ESSAY	540	n/a	n/a	0	n/a	0	0	0	0.422607421875	0.5869140625	0	lower	zerothre.ttf
3281.504	n/a	START	1640752	n/a	LTP141	ltpFR	9	n/a	n/a	n/a	n/a	n/a	n/a	n/a	n/a	n/a	n/a	n/a	n/a	n/a	n/a	n/a	n/a
3282.576	n/a	PROB	1641288	n/a	LTP141	ltpFR	9	n/a	n/a	n/a	n/a	n/a	n/a	n/a	12	7	1	4	n/a	n/a	n/a	n/a	n/a
3285.14	n/a	PROB	1642570	n/a	LTP141	ltpFR	9	n/a	n/a	n/a	n/a	n/a	n/a	n/a	13	3	4	6	n/a	n/a	n/a	n/a	n/a
3286.886	n/a	PROB	1643443	n/a	LTP141	ltpFR	9	n/a	n/a	n/a	n/a	n/a	n/a	n/a	19	7	8	4	n/a	n/a	n/a	n/a	n/a
3289.518	n/a	PROB	1644759	n/a	LTP141	ltpFR	9	n/a	n/a	n/a	n/a	n/a	n/a	n/a	18	6	4	8	n/a	n/a	n/a	n/a	n/a
3290.782	n/a	PROB	1645391	n/a	LTP141	ltpFR	9	n/a	n/a	n/a	n/a	n/a	n/a	n/a	17	6	6	5	n/a	n/a	n/a	n/a	n/a
3292.514	n/a	PROB	1646257	n/a	LTP141	ltpFR	9	n/a	n/a	n/a	n/a	n/a	n/a	n/a	21	9	6	6	n/a	n/a	n/a	n/a	n/a
3294.752	n/a	PROB	1647376	n/a	LTP141	ltpFR	9	n/a	n/a	n/a	n/a	n/a	n/a	n/a	13	6	5	2	n/a	n/a	n/a	n/a	n/a
3296.96	n/a	STOP	1648480	n/a	LTP141	ltpFR	9	n/a	n/a	n/a	n/a	n/a	n/a	n/a	n/a	n/a	n/a	n/a	n/a	n/a	n/a	n/a	n/a
3298.714	n/a	WORD	1649357	wordpools/wasnorm_wordpool.txt	LTP141	ltpFR	9	12	0	MAGAZINE	853	n/a	n/a	0	n/a	0	0	0	0.422607421875	0.5869140625	0	lower	zerothre.ttf
3301.722	n/a	START	1650861	n/a	LTP141	ltpFR	9	n/a	n/a	n/a	n/a	n/a	n/a	n/a	n/a	n/a	n/a	n/a	n/a	n/a	n/a	n/a	n/a
3302.828	n/a	PROB	1651414	n/a	LTP141	ltpFR	9	n/a	n/a	n/a	n/a	n/a	n/a	n/a	10	1	6	3	n/a	n/a	n/a	n/a	n/a
3305.924	n/a	PROB	1652962	n/a	LTP141	ltpFR	9	n/a	n/a	n/a	n/a	n/a	n/a	n/a	13	6	6	1	n/a	n/a	n/a	n/a	n/a
3307.206	n/a	PROB	1653603	n/a	LTP141	ltpFR	9	n/a	n/a	n/a	n/a	n/a	n/a	n/a	17	6	8	5	n/a	n/a	n/a	n/a	n/a
3309.854	n/a	PROB	1654927	n/a	LTP141	ltpFR	9	n/a	n/a	n/a	n/a	n/a	n/a	n/a	13	2	7	4	n/a	n/a	n/a	n/a	n/a
3311.742	n/a	PROB	1655871	n/a	LTP141	ltpFR	9	n/a	n/a	n/a	n/a	n/a	n/a	n/a	10	3	5	2	n/a	n/a	n/a	n/a	n/a
3313.59	n/a	PROB	1656795	n/a	LTP141	ltpFR	9	n/a	n/a	n/a	n/a	n/a	n/a	n/a	6	1	3	2	n/a	n/a	n/a	n/a	n/a
3315.138	n/a	PROB	1657569	n/a	LTP141	ltpFR	9	n/a	n/a	n/a	n/a	n/a	n/a	n/a	7	4	2	1	n/a	n/a	n/a	n/a	n/a
3316.818	n/a	STOP	1658409	n/a	LTP141	ltpFR	9	n/a	n/a	n/a	n/a	n/a	n/a	n/a	n/a	n/a	n/a	n/a	n/a	n/a	n/a	n/a	n/a
3318.692	n/a	WORD	1659346	wordpools/wasnorm_wordpool.txt	LTP141	ltpFR	9	12	0	WAIST	1579	n/a	n/a	1	n/a	0	0	0	0.422607421875	0.5869140625	0	lower	zerothre.ttf
3321.698	n/a	START	1660849	n/a	LTP141	ltpFR	9	n/a	n/a	n/a	n/a	n/a	n/a	n/a	n/a	n/a	n/a	n/a	n/a	n/a	n/a	n/a	n/a
3322.746	n/a	PROB	1661373	n/a	LTP141	ltpFR	9	n/a	n/a	n/a	n/a	n/a	n/a	n/a	15	6	1	8	n/a	n/a	n/a	n/a	n/a
3324.878	n/a	PROB	1662439	n/a	LTP141	ltpFR	9	n/a	n/a	n/a	n/a	n/a	n/a	n/a	14	8	1	5	n/a	n/a	n/a	n/a	n/a
3326.434	n/a	PROB	1663217	n/a	LTP141	ltpFR	9	n/a	n/a	n/a	n/a	n/a	n/a	n/a	21	8	6	7	n/a	n/a	n/a	n/a	n/a
3330.878	n/a	PROB	1665439	n/a	LTP141	ltpFR	9	n/a	n/a	n/a	n/a	n/a	n/a	n/a	16	3	5	8	n/a	n/a	n/a	n/a	n/a
3332.302	n/a	PROB	1666151	n/a	LTP141	ltpFR	9	n/a	n/a	n/a	n/a	n/a	n/a	n/a	16	3	8	5	n/a	n/a	n/a	n/a	n/a
3334.582	n/a	PROB	1667291	n/a	LTP141	ltpFR	9	n/a	n/a	n/a	n/a	n/a	n/a	n/a	16	3	9	4	n/a	n/a	n/a	n/a	n/a
3336.898	n/a	STOP	1668449	n/a	LTP141	ltpFR	9	n/a	n/a	n/a	n/a	n/a	n/a	n/a	n/a	n/a	n/a	n/a	n/a	n/a	n/a	n/a	n/a
