onset	duration	trial_type	sample	stim_file	subject	experiment	session	trial	item_name	item_num	list	answer	test_x	test_y	test_z
229.74658203125	n/a	SESS_START	470521	n/a	LTP372	ltpFR2	4	n/a	n/a	n/a	n/a	n/a	0	0	0
255.037109375	n/a	START	522316	n/a	LTP372	ltpFR2	4	n/a	n/a	n/a	-1	n/a	n/a	n/a	n/a
255.06787109375	n/a	PROB	522379	n/a	LTP372	ltpFR2	4	n/a	n/a	n/a	-1	21	8	6	7
256.8828125	n/a	PROB	526096	n/a	LTP372	ltpFR2	4	n/a	n/a	n/a	-1	21	9	7	5
258.06591796875	n/a	PROB	528519	n/a	LTP372	ltpFR2	4	n/a	n/a	n/a	-1	10	8	1	1
259.25	n/a	PROB	530944	n/a	LTP372	ltpFR2	4	n/a	n/a	n/a	-1	14	5	3	6
260.5478515625	n/a	PROB	533602	n/a	LTP372	ltpFR2	4	n/a	n/a	n/a	-1	15	9	5	1
261.81494140625	n/a	PROB	536197	n/a	LTP372	ltpFR2	4	n/a	n/a	n/a	-1	11	1	3	7
262.91357421875	n/a	PROB	538447	n/a	LTP372	ltpFR2	4	n/a	n/a	n/a	-1	12	5	3	4
264.046875	n/a	PROB	540768	n/a	LTP372	ltpFR2	4	n/a	n/a	n/a	-1	18	3	8	7
265.28076171875	n/a	PROB	543295	n/a	LTP372	ltpFR2	4	n/a	n/a	n/a	-1	11	1	2	8
266.32080078125	n/a	STOP	545425	n/a	LTP372	ltpFR2	4	n/a	n/a	n/a	-1	n/a	n/a	n/a	n/a
310.67431640625	n/a	WORD	636261	wordpools/wasnorm_wordpool_576.txt	LTP372	ltpFR2	4	1	PLATE	1086	n/a	n/a	0	0	0
313.25732421875	n/a	WORD	641551	wordpools/wasnorm_wordpool_576.txt	LTP372	ltpFR2	4	1	HORNET	718	n/a	n/a	0	0	0
315.7880859375	n/a	WORD	646734	wordpools/wasnorm_wordpool_576.txt	LTP372	ltpFR2	4	1	BACON	67	n/a	n/a	0	0	0
318.30517578125	n/a	WORD	651889	wordpools/wasnorm_wordpool_576.txt	LTP372	ltpFR2	4	1	ACTOR	5	n/a	n/a	0	0	0
320.8857421875	n/a	WORD	657174	wordpools/wasnorm_wordpool_576.txt	LTP372	ltpFR2	4	1	KLEENEX	782	n/a	n/a	0	0	0
323.56787109375	n/a	WORD	662667	wordpools/wasnorm_wordpool_576.txt	LTP372	ltpFR2	4	1	WRIST	1626	n/a	n/a	0	0	0
326.0830078125	n/a	WORD	667818	wordpools/wasnorm_wordpool_576.txt	LTP372	ltpFR2	4	1	FINGER	567	n/a	n/a	0	0	0
328.5986328125	n/a	WORD	672970	wordpools/wasnorm_wordpool_576.txt	LTP372	ltpFR2	4	1	CANDY	230	n/a	n/a	0	0	0
331.21484375	n/a	WORD	678328	wordpools/wasnorm_wordpool_576.txt	LTP372	ltpFR2	4	1	STALLION	1369	n/a	n/a	0	0	0
334.029296875	n/a	WORD	684092	wordpools/wasnorm_wordpool_576.txt	LTP372	ltpFR2	4	1	SADDLE	1221	n/a	n/a	0	0	0
336.64453125	n/a	WORD	689448	wordpools/wasnorm_wordpool_576.txt	LTP372	ltpFR2	4	1	SKETCH	1315	n/a	n/a	0	0	0
339.2783203125	n/a	WORD	694842	wordpools/wasnorm_wordpool_576.txt	LTP372	ltpFR2	4	1	PLASTER	1085	n/a	n/a	0	0	0
341.7421875	n/a	WORD	699888	wordpools/wasnorm_wordpool_576.txt	LTP372	ltpFR2	4	1	OUTDOORS	987	n/a	n/a	0	0	0
344.55810546875	n/a	WORD	705655	wordpools/wasnorm_wordpool_576.txt	LTP372	ltpFR2	4	1	FARMER	553	n/a	n/a	0	0	0
347.35693359375	n/a	WORD	711387	wordpools/wasnorm_wordpool_576.txt	LTP372	ltpFR2	4	1	COFFEE	341	n/a	n/a	0	0	0
349.88818359375	n/a	WORD	716571	wordpools/wasnorm_wordpool_576.txt	LTP372	ltpFR2	4	1	CRICKET	408	n/a	n/a	0	0	0
352.4208984375	n/a	WORD	721758	wordpools/wasnorm_wordpool_576.txt	LTP372	ltpFR2	4	1	COCOON	339	n/a	n/a	0	0	0
355.15283203125	n/a	WORD	727353	wordpools/wasnorm_wordpool_576.txt	LTP372	ltpFR2	4	1	THRONE	1461	n/a	n/a	0	0	0
357.9345703125	n/a	WORD	733050	wordpools/wasnorm_wordpool_576.txt	LTP372	ltpFR2	4	1	LOFT	840	n/a	n/a	0	0	0
360.49951171875	n/a	WORD	738303	wordpools/wasnorm_wordpool_576.txt	LTP372	ltpFR2	4	1	ACTRESS	6	n/a	n/a	0	0	0
363.03173828125	n/a	WORD	743489	wordpools/wasnorm_wordpool_576.txt	LTP372	ltpFR2	4	1	ANKLE	24	n/a	n/a	0	0	0
365.59765625	n/a	WORD	748744	wordpools/wasnorm_wordpool_576.txt	LTP372	ltpFR2	4	1	WORLD	1622	n/a	n/a	0	0	0
368.21337890625	n/a	WORD	754101	wordpools/wasnorm_wordpool_576.txt	LTP372	ltpFR2	4	1	CAMEL	223	n/a	n/a	0	0	0
370.74560546875	n/a	WORD	759287	wordpools/wasnorm_wordpool_576.txt	LTP372	ltpFR2	4	1	GUARD	667	n/a	n/a	0	0	0
372.3623046875	n/a	START	762598	n/a	LTP372	ltpFR2	4	n/a	n/a	n/a	1	n/a	n/a	n/a	n/a
373.17431640625	n/a	DISTRACTOR	764261	n/a	LTP372	ltpFR2	4	1	n/a	n/a	n/a	n/a	0	0	0
373.17822265625	n/a	PROB	764269	n/a	LTP372	ltpFR2	4	n/a	n/a	n/a	1	14	3	4	7
374.943359375	n/a	PROB	767884	n/a	LTP372	ltpFR2	4	n/a	n/a	n/a	1	17	9	7	1
376.39306640625	n/a	PROB	770853	n/a	LTP372	ltpFR2	4	n/a	n/a	n/a	1	18	3	9	6
377.6083984375	n/a	PROB	773342	n/a	LTP372	ltpFR2	4	n/a	n/a	n/a	1	7	1	4	2
378.92431640625	n/a	PROB	776037	n/a	LTP372	ltpFR2	4	n/a	n/a	n/a	1	13	1	5	7
380.14013671875	n/a	PROB	778527	n/a	LTP372	ltpFR2	4	n/a	n/a	n/a	1	12	1	5	6
381.55615234375	n/a	PROB	781427	n/a	LTP372	ltpFR2	4	n/a	n/a	n/a	1	16	3	8	5
382.7890625	n/a	PROB	783952	n/a	LTP372	ltpFR2	4	n/a	n/a	n/a	1	17	4	9	4
384.05517578125	n/a	PROB	786545	n/a	LTP372	ltpFR2	4	n/a	n/a	n/a	1	13	1	7	5
385.35595703125	n/a	PROB	789209	n/a	LTP372	ltpFR2	4	n/a	n/a	n/a	1	18	9	5	4
386.587890625	n/a	PROB	791732	n/a	LTP372	ltpFR2	4	n/a	n/a	n/a	1	18	3	9	6
387.919921875	n/a	PROB	794460	n/a	LTP372	ltpFR2	4	n/a	n/a	n/a	1	11	5	5	1
389.35400390625	n/a	PROB	797397	n/a	LTP372	ltpFR2	4	n/a	n/a	n/a	1	25	8	9	8
390.9189453125	n/a	PROB	800602	n/a	LTP372	ltpFR2	4	n/a	n/a	n/a	1	10	1	3	6
392.0517578125	n/a	PROB	802922	n/a	LTP372	ltpFR2	4	n/a	n/a	n/a	1	21	9	4	8
393.3017578125	n/a	PROB	805482	n/a	LTP372	ltpFR2	4	n/a	n/a	n/a	1	12	1	2	9
394.41748046875	n/a	PROB	807767	n/a	LTP372	ltpFR2	4	n/a	n/a	n/a	1	13	5	2	6
395.6318359375	n/a	STOP	810254	n/a	LTP372	ltpFR2	4	n/a	n/a	n/a	1	n/a	n/a	n/a	n/a
398.29931640625	n/a	REC_START	815717	n/a	LTP372	ltpFR2	4	1	n/a	n/a	n/a	n/a	0	0	0
399.13671875	n/a	REC_WORD	817432	wordpools/wasnorm_wordpool_576.txt	LTP372	ltpFR2	4	1	PLATE	1086	n/a	n/a	0	0	0
399.83642578125	n/a	REC_WORD_VV	818865	wordpools/wasnorm_wordpool_576.txt	LTP372	ltpFR2	4	1	<>	-1	n/a	n/a	0	0	0
401.11328125	n/a	REC_WORD_VV	821480	wordpools/wasnorm_wordpool_576.txt	LTP372	ltpFR2	4	1	<>	-1	n/a	n/a	0	0	0
402.13134765625	n/a	REC_WORD	823565	wordpools/wasnorm_wordpool_576.txt	LTP372	ltpFR2	4	1	HORNET	718	n/a	n/a	0	0	0
403.38525390625	n/a	REC_WORD	826133	wordpools/wasnorm_wordpool_576.txt	LTP372	ltpFR2	4	1	BACON	67	n/a	n/a	0	0	0
406.9072265625	n/a	REC_WORD	833346	wordpools/wasnorm_wordpool_576.txt	LTP372	ltpFR2	4	1	ACTOR	5	n/a	n/a	0	0	0
408.697265625	n/a	REC_WORD	837012	wordpools/wasnorm_wordpool_576.txt	LTP372	ltpFR2	4	1	KLEENEX	782	n/a	n/a	0	0	0
410.7451171875	n/a	REC_WORD	841206	wordpools/wasnorm_wordpool_576.txt	LTP372	ltpFR2	4	1	WRIST	1626	n/a	n/a	0	0	0
414.06787109375	n/a	REC_WORD	848011	wordpools/wasnorm_wordpool_576.txt	LTP372	ltpFR2	4	1	STALLION	1369	n/a	n/a	0	0	0
415.51611328125	n/a	REC_WORD	850977	wordpools/wasnorm_wordpool_576.txt	LTP372	ltpFR2	4	1	SADDLE	1221	n/a	n/a	0	0	0
417.72509765625	n/a	REC_WORD	855501	wordpools/wasnorm_wordpool_576.txt	LTP372	ltpFR2	4	1	SKETCH	1315	n/a	n/a	0	0	0
423.208984375	n/a	REC_WORD	866732	wordpools/wasnorm_wordpool_576.txt	LTP372	ltpFR2	4	1	PLASTER	1085	n/a	n/a	0	0	0
425.7119140625	n/a	REC_WORD	871858	wordpools/wasnorm_wordpool_576.txt	LTP372	ltpFR2	4	1	OUTDOORS	987	n/a	n/a	0	0	0
427.5888671875	n/a	REC_WORD	875702	wordpools/wasnorm_wordpool_576.txt	LTP372	ltpFR2	4	1	FARMER	553	n/a	n/a	0	0	0
429.3935546875	n/a	REC_WORD	879398	wordpools/wasnorm_wordpool_576.txt	LTP372	ltpFR2	4	1	COFFEE	341	n/a	n/a	0	0	0
431.21630859375	n/a	REC_WORD	883131	wordpools/wasnorm_wordpool_576.txt	LTP372	ltpFR2	4	1	CRICKET	408	n/a	n/a	0	0	0
432.103515625	n/a	REC_WORD	884948	wordpools/wasnorm_wordpool_576.txt	LTP372	ltpFR2	4	1	COCOON	339	n/a	n/a	0	0	0
434.9853515625	n/a	REC_WORD	890850	wordpools/wasnorm_wordpool_576.txt	LTP372	ltpFR2	4	1	THRONE	1461	n/a	n/a	0	0	0
436.3173828125	n/a	REC_WORD	893578	wordpools/wasnorm_wordpool_576.txt	LTP372	ltpFR2	4	1	LOFT	840	n/a	n/a	0	0	0
438.4033203125	n/a	REC_WORD	897850	wordpools/wasnorm_wordpool_576.txt	LTP372	ltpFR2	4	1	WORLD	1622	n/a	n/a	0	0	0
440.02734375	n/a	REC_WORD	901176	wordpools/wasnorm_wordpool_576.txt	LTP372	ltpFR2	4	1	CAMEL	223	n/a	n/a	0	0	0
441.1962890625	n/a	REC_WORD	903570	wordpools/wasnorm_wordpool_576.txt	LTP372	ltpFR2	4	1	GUARD	667	n/a	n/a	0	0	0
446.97705078125	n/a	REC_WORD	915409	wordpools/wasnorm_wordpool_576.txt	LTP372	ltpFR2	4	1	ACTRESS	6	n/a	n/a	0	0	0
448.2080078125	n/a	REC_WORD	917930	wordpools/wasnorm_wordpool_576.txt	LTP372	ltpFR2	4	1	ANKLE	24	n/a	n/a	0	0	0
488.73779296875	n/a	DISTRACTOR	1000935	n/a	LTP372	ltpFR2	4	2	n/a	n/a	n/a	n/a	0	0	0
488.73779296875	n/a	START	1000935	n/a	LTP372	ltpFR2	4	n/a	n/a	n/a	2	n/a	n/a	n/a	n/a
488.7548828125	n/a	PROB	1000970	n/a	LTP372	ltpFR2	4	n/a	n/a	n/a	2	18	5	5	8
490.53759765625	n/a	PROB	1004621	n/a	LTP372	ltpFR2	4	n/a	n/a	n/a	2	18	9	4	5
491.75390625	n/a	PROB	1007112	n/a	LTP372	ltpFR2	4	n/a	n/a	n/a	2	14	5	3	6
492.95263671875	n/a	PROB	1009567	n/a	LTP372	ltpFR2	4	n/a	n/a	n/a	2	11	6	3	2
494.28662109375	n/a	PROB	1012299	n/a	LTP372	ltpFR2	4	n/a	n/a	n/a	2	12	3	5	4
495.3857421875	n/a	PROB	1014550	n/a	LTP372	ltpFR2	4	n/a	n/a	n/a	2	11	1	7	3
496.46728515625	n/a	PROB	1016765	n/a	LTP372	ltpFR2	4	n/a	n/a	n/a	2	20	9	8	3
498.1005859375	n/a	PROB	1020110	n/a	LTP372	ltpFR2	4	n/a	n/a	n/a	2	9	3	2	4
499.25048828125	n/a	PROB	1022465	n/a	LTP372	ltpFR2	4	n/a	n/a	n/a	2	16	5	3	8
500.71533203125	n/a	PROB	1025465	n/a	LTP372	ltpFR2	4	n/a	n/a	n/a	2	18	8	7	3
501.9482421875	n/a	PROB	1027990	n/a	LTP372	ltpFR2	4	n/a	n/a	n/a	2	20	6	6	8
503.26513671875	n/a	PROB	1030687	n/a	LTP372	ltpFR2	4	n/a	n/a	n/a	2	9	3	1	5
504.3984375	n/a	PROB	1033008	n/a	LTP372	ltpFR2	4	n/a	n/a	n/a	2	9	1	5	3
505.646484375	n/a	PROB	1035564	n/a	LTP372	ltpFR2	4	n/a	n/a	n/a	2	9	1	1	7
506.74609375	n/a	PROB	1037816	n/a	LTP372	ltpFR2	4	n/a	n/a	n/a	2	20	9	5	6
507.96240234375	n/a	PROB	1040307	n/a	LTP372	ltpFR2	4	n/a	n/a	n/a	2	13	1	7	5
509.09521484375	n/a	PROB	1042627	n/a	LTP372	ltpFR2	4	n/a	n/a	n/a	2	14	6	2	6
510.494140625	n/a	PROB	1045492	n/a	LTP372	ltpFR2	4	n/a	n/a	n/a	2	20	7	9	4
511.671875	n/a	STOP	1047904	n/a	LTP372	ltpFR2	4	n/a	n/a	n/a	2	n/a	n/a	n/a	n/a
513.6591796875	n/a	WORD	1051974	wordpools/wasnorm_wordpool_576.txt	LTP372	ltpFR2	4	2	RIVER	1194	n/a	n/a	0	0	0
516.40869140625	n/a	WORD	1057605	wordpools/wasnorm_wordpool_576.txt	LTP372	ltpFR2	4	2	REPORT	1184	n/a	n/a	0	0	0
518.90673828125	n/a	WORD	1062721	wordpools/wasnorm_wordpool_576.txt	LTP372	ltpFR2	4	2	QUEEN	1149	n/a	n/a	0	0	0
521.62158203125	n/a	WORD	1068281	wordpools/wasnorm_wordpool_576.txt	LTP372	ltpFR2	4	2	BATHTUB	100	n/a	n/a	0	0	0
524.087890625	n/a	WORD	1073332	wordpools/wasnorm_wordpool_576.txt	LTP372	ltpFR2	4	2	COSTUME	383	n/a	n/a	0	0	0
526.86962890625	n/a	WORD	1079029	wordpools/wasnorm_wordpool_576.txt	LTP372	ltpFR2	4	2	OUTFIT	988	n/a	n/a	0	0	0
529.5185546875	n/a	WORD	1084454	wordpools/wasnorm_wordpool_576.txt	LTP372	ltpFR2	4	2	PALACE	1006	n/a	n/a	0	0	0
532.2685546875	n/a	WORD	1090086	wordpools/wasnorm_wordpool_576.txt	LTP372	ltpFR2	4	2	PISTON	1076	n/a	n/a	0	0	0
534.732421875	n/a	WORD	1095132	wordpools/wasnorm_wordpool_576.txt	LTP372	ltpFR2	4	2	MOTOR	922	n/a	n/a	0	0	0
537.564453125	n/a	WORD	1100932	wordpools/wasnorm_wordpool_576.txt	LTP372	ltpFR2	4	2	FOREHEAD	592	n/a	n/a	0	0	0
540.23095703125	n/a	WORD	1106393	wordpools/wasnorm_wordpool_576.txt	LTP372	ltpFR2	4	2	AIRPORT	13	n/a	n/a	0	0	0
543.0283203125	n/a	WORD	1112122	wordpools/wasnorm_wordpool_576.txt	LTP372	ltpFR2	4	2	GYMNAST	675	n/a	n/a	0	0	0
545.76123046875	n/a	WORD	1117719	wordpools/wasnorm_wordpool_576.txt	LTP372	ltpFR2	4	2	TYPIST	1532	n/a	n/a	0	0	0
548.19384765625	n/a	WORD	1122701	wordpools/wasnorm_wordpool_576.txt	LTP372	ltpFR2	4	2	CRAYON	401	n/a	n/a	0	0	0
550.7578125	n/a	WORD	1127952	wordpools/wasnorm_wordpool_576.txt	LTP372	ltpFR2	4	2	FIREMAN	569	n/a	n/a	0	0	0
553.375	n/a	WORD	1133312	wordpools/wasnorm_wordpool_576.txt	LTP372	ltpFR2	4	2	SPONGE	1355	n/a	n/a	0	0	0
556.138671875	n/a	WORD	1138972	wordpools/wasnorm_wordpool_576.txt	LTP372	ltpFR2	4	2	CHEST	295	n/a	n/a	0	0	0
558.92041015625	n/a	WORD	1144669	wordpools/wasnorm_wordpool_576.txt	LTP372	ltpFR2	4	2	GARBAGE	622	n/a	n/a	0	0	0
561.45263671875	n/a	WORD	1149855	wordpools/wasnorm_wordpool_576.txt	LTP372	ltpFR2	4	2	CRUTCH	417	n/a	n/a	0	0	0
564.236328125	n/a	WORD	1155556	wordpools/wasnorm_wordpool_576.txt	LTP372	ltpFR2	4	2	DUST	508	n/a	n/a	0	0	0
566.83349609375	n/a	WORD	1160875	wordpools/wasnorm_wordpool_576.txt	LTP372	ltpFR2	4	2	DANDRUFF	439	n/a	n/a	0	0	0
569.400390625	n/a	WORD	1166132	wordpools/wasnorm_wordpool_576.txt	LTP372	ltpFR2	4	2	QUARTER	1148	n/a	n/a	0	0	0
571.98095703125	n/a	WORD	1171417	wordpools/wasnorm_wordpool_576.txt	LTP372	ltpFR2	4	2	MATTRESS	879	n/a	n/a	0	0	0
574.5302734375	n/a	WORD	1176638	wordpools/wasnorm_wordpool_576.txt	LTP372	ltpFR2	4	2	XEROX	1628	n/a	n/a	0	0	0
576.14599609375	n/a	START	1179947	n/a	LTP372	ltpFR2	4	n/a	n/a	n/a	3	n/a	n/a	n/a	n/a
577.21484375	n/a	DISTRACTOR	1182136	n/a	LTP372	ltpFR2	4	2	n/a	n/a	n/a	n/a	0	0	0
577.22998046875	n/a	PROB	1182167	n/a	LTP372	ltpFR2	4	n/a	n/a	n/a	3	23	8	6	9
579.19580078125	n/a	PROB	1186193	n/a	LTP372	ltpFR2	4	n/a	n/a	n/a	3	21	8	9	4
580.59375	n/a	PROB	1189056	n/a	LTP372	ltpFR2	4	n/a	n/a	n/a	3	12	5	5	2
581.90966796875	n/a	PROB	1191751	n/a	LTP372	ltpFR2	4	n/a	n/a	n/a	3	20	9	5	6
583.22705078125	n/a	PROB	1194449	n/a	LTP372	ltpFR2	4	n/a	n/a	n/a	3	7	1	3	3
584.44189453125	n/a	PROB	1196937	n/a	LTP372	ltpFR2	4	n/a	n/a	n/a	3	18	6	3	9
585.90771484375	n/a	PROB	1199939	n/a	LTP372	ltpFR2	4	n/a	n/a	n/a	3	16	9	1	6
587.12353515625	n/a	PROB	1202429	n/a	LTP372	ltpFR2	4	n/a	n/a	n/a	3	22	9	4	9
588.48974609375	n/a	PROB	1205227	n/a	LTP372	ltpFR2	4	n/a	n/a	n/a	3	20	9	9	2
589.73974609375	n/a	PROB	1207787	n/a	LTP372	ltpFR2	4	n/a	n/a	n/a	3	22	9	7	6
592.50439453125	n/a	PROB	1213449	n/a	LTP372	ltpFR2	4	n/a	n/a	n/a	3	25	9	8	8
593.9033203125	n/a	PROB	1216314	n/a	LTP372	ltpFR2	4	n/a	n/a	n/a	3	23	8	8	7
595.2373046875	n/a	PROB	1219046	n/a	LTP372	ltpFR2	4	n/a	n/a	n/a	3	13	2	9	2
596.45263671875	n/a	PROB	1221535	n/a	LTP372	ltpFR2	4	n/a	n/a	n/a	3	14	4	6	4
597.71826171875	n/a	PROB	1224127	n/a	LTP372	ltpFR2	4	n/a	n/a	n/a	3	8	6	6	6
599.103515625	n/a	STOP	1226964	n/a	LTP372	ltpFR2	4	n/a	n/a	n/a	3	n/a	n/a	n/a	n/a
601.93408203125	n/a	REC_START	1232761	n/a	LTP372	ltpFR2	4	2	n/a	n/a	n/a	n/a	0	0	0
603.30908203125	n/a	REC_WORD	1235577	wordpools/wasnorm_wordpool_576.txt	LTP372	ltpFR2	4	2	RIVER	1194	n/a	n/a	0	0	0
604.10205078125	n/a	REC_WORD	1237201	wordpools/wasnorm_wordpool_576.txt	LTP372	ltpFR2	4	2	REPORT	1184	n/a	n/a	0	0	0
605.52197265625	n/a	REC_WORD	1240109	wordpools/wasnorm_wordpool_576.txt	LTP372	ltpFR2	4	2	QUEEN	1149	n/a	n/a	0	0	0
606.6171875	n/a	REC_WORD	1242352	wordpools/wasnorm_wordpool_576.txt	LTP372	ltpFR2	4	2	BATHTUB	100	n/a	n/a	0	0	0
607.7431640625	n/a	REC_WORD	1244658	wordpools/wasnorm_wordpool_576.txt	LTP372	ltpFR2	4	2	COSTUME	383	n/a	n/a	0	0	0
608.81787109375	n/a	REC_WORD	1246859	wordpools/wasnorm_wordpool_576.txt	LTP372	ltpFR2	4	2	OUTFIT	988	n/a	n/a	0	0	0
612.05908203125	n/a	REC_WORD	1253497	wordpools/wasnorm_wordpool_576.txt	LTP372	ltpFR2	4	2	PALACE	1006	n/a	n/a	0	0	0
617.86181640625	n/a	REC_WORD	1265381	wordpools/wasnorm_wordpool_576.txt	LTP372	ltpFR2	4	2	GYMNAST	675	n/a	n/a	0	0	0
620.4345703125	n/a	REC_WORD	1270650	wordpools/wasnorm_wordpool_576.txt	LTP372	ltpFR2	4	2	TYPIST	1532	n/a	n/a	0	0	0
621.5068359375	n/a	REC_WORD	1272846	wordpools/wasnorm_wordpool_576.txt	LTP372	ltpFR2	4	2	CRAYON	401	n/a	n/a	0	0	0
624.20458984375	n/a	REC_WORD	1278371	wordpools/wasnorm_wordpool_576.txt	LTP372	ltpFR2	4	2	FIREMAN	569	n/a	n/a	0	0	0
626.92626953125	n/a	REC_WORD	1283945	wordpools/wasnorm_wordpool_576.txt	LTP372	ltpFR2	4	2	SPONGE	1355	n/a	n/a	0	0	0
628.08251953125	n/a	REC_WORD	1286313	wordpools/wasnorm_wordpool_576.txt	LTP372	ltpFR2	4	2	CHEST	295	n/a	n/a	0	0	0
630.34130859375	n/a	REC_WORD	1290939	wordpools/wasnorm_wordpool_576.txt	LTP372	ltpFR2	4	2	DUST	508	n/a	n/a	0	0	0
631.29248046875	n/a	REC_WORD	1292887	wordpools/wasnorm_wordpool_576.txt	LTP372	ltpFR2	4	2	DANDRUFF	439	n/a	n/a	0	0	0
633.193359375	n/a	REC_WORD	1296780	wordpools/wasnorm_wordpool_576.txt	LTP372	ltpFR2	4	2	GARBAGE	622	n/a	n/a	0	0	0
692.37451171875	n/a	WORD	1417983	wordpools/wasnorm_wordpool_576.txt	LTP372	ltpFR2	4	3	HELMET	702	n/a	n/a	0	0	0
694.9052734375	n/a	WORD	1423166	wordpools/wasnorm_wordpool_576.txt	LTP372	ltpFR2	4	3	FOREST	593	n/a	n/a	0	0	0
697.4375	n/a	WORD	1428352	wordpools/wasnorm_wordpool_576.txt	LTP372	ltpFR2	4	3	SKILLET	1317	n/a	n/a	0	0	0
700.08642578125	n/a	WORD	1433777	wordpools/wasnorm_wordpool_576.txt	LTP372	ltpFR2	4	3	KITCHEN	778	n/a	n/a	0	0	0
702.63525390625	n/a	WORD	1438997	wordpools/wasnorm_wordpool_576.txt	LTP372	ltpFR2	4	3	VENUS	1557	n/a	n/a	0	0	0
705.083984375	n/a	WORD	1444012	wordpools/wasnorm_wordpool_576.txt	LTP372	ltpFR2	4	3	SILK	1307	n/a	n/a	0	0	0
707.798828125	n/a	WORD	1449572	wordpools/wasnorm_wordpool_576.txt	LTP372	ltpFR2	4	3	KNIFE	785	n/a	n/a	0	0	0
710.39892578125	n/a	WORD	1454897	wordpools/wasnorm_wordpool_576.txt	LTP372	ltpFR2	4	3	SPACE	1345	n/a	n/a	0	0	0
712.9970703125	n/a	WORD	1460218	wordpools/wasnorm_wordpool_576.txt	LTP372	ltpFR2	4	3	WHISKERS	1605	n/a	n/a	0	0	0
715.52880859375	n/a	WORD	1465403	wordpools/wasnorm_wordpool_576.txt	LTP372	ltpFR2	4	3	CHURCH	307	n/a	n/a	0	0	0
718.1787109375	n/a	WORD	1470830	wordpools/wasnorm_wordpool_576.txt	LTP372	ltpFR2	4	3	RECORD	1176	n/a	n/a	0	0	0
720.70947265625	n/a	WORD	1476013	wordpools/wasnorm_wordpool_576.txt	LTP372	ltpFR2	4	3	CAPTIVE	240	n/a	n/a	0	0	0
723.34228515625	n/a	WORD	1481405	wordpools/wasnorm_wordpool_576.txt	LTP372	ltpFR2	4	3	DASHBOARD	441	n/a	n/a	0	0	0
725.990234375	n/a	WORD	1486828	wordpools/wasnorm_wordpool_576.txt	LTP372	ltpFR2	4	3	EMPIRE	530	n/a	n/a	0	0	0
728.58837890625	n/a	WORD	1492149	wordpools/wasnorm_wordpool_576.txt	LTP372	ltpFR2	4	3	CROWN	415	n/a	n/a	0	0	0
731.13720703125	n/a	WORD	1497369	wordpools/wasnorm_wordpool_576.txt	LTP372	ltpFR2	4	3	OMELET	976	n/a	n/a	0	0	0
733.91943359375	n/a	WORD	1503067	wordpools/wasnorm_wordpool_576.txt	LTP372	ltpFR2	4	3	BUTCHER	203	n/a	n/a	0	0	0
736.56787109375	n/a	WORD	1508491	wordpools/wasnorm_wordpool_576.txt	LTP372	ltpFR2	4	3	VIKING	1565	n/a	n/a	0	0	0
739.201171875	n/a	WORD	1513884	wordpools/wasnorm_wordpool_576.txt	LTP372	ltpFR2	4	3	PADDLE	1000	n/a	n/a	0	0	0
741.916015625	n/a	WORD	1519444	wordpools/wasnorm_wordpool_576.txt	LTP372	ltpFR2	4	3	UNCLE	1536	n/a	n/a	0	0	0
744.56494140625	n/a	WORD	1524869	wordpools/wasnorm_wordpool_576.txt	LTP372	ltpFR2	4	3	SERVER	1272	n/a	n/a	0	0	0
747.013671875	n/a	WORD	1529884	wordpools/wasnorm_wordpool_576.txt	LTP372	ltpFR2	4	3	CRATER	400	n/a	n/a	0	0	0
749.7958984375	n/a	WORD	1535582	wordpools/wasnorm_wordpool_576.txt	LTP372	ltpFR2	4	3	DRAGON	492	n/a	n/a	0	0	0
752.24462890625	n/a	WORD	1540597	wordpools/wasnorm_wordpool_576.txt	LTP372	ltpFR2	4	3	PREACHER	1119	n/a	n/a	0	0	0
753.8603515625	n/a	START	1543906	n/a	LTP372	ltpFR2	4	n/a	n/a	n/a	4	n/a	n/a	n/a	n/a
754.8466796875	n/a	DISTRACTOR	1545926	n/a	LTP372	ltpFR2	4	3	n/a	n/a	n/a	n/a	0	0	0
754.859375	n/a	PROB	1545952	n/a	LTP372	ltpFR2	4	n/a	n/a	n/a	4	12	3	8	1
756.642578125	n/a	PROB	1549604	n/a	LTP372	ltpFR2	4	n/a	n/a	n/a	4	20	6	8	6
758.00830078125	n/a	PROB	1552401	n/a	LTP372	ltpFR2	4	n/a	n/a	n/a	4	11	1	5	5
759.25830078125	n/a	PROB	1554961	n/a	LTP372	ltpFR2	4	n/a	n/a	n/a	4	6	2	2	2
760.42333984375	n/a	PROB	1557347	n/a	LTP372	ltpFR2	4	n/a	n/a	n/a	4	13	1	3	9
761.5234375	n/a	PROB	1559600	n/a	LTP372	ltpFR2	4	n/a	n/a	n/a	4	18	4	6	8
762.67236328125	n/a	PROB	1561953	n/a	LTP372	ltpFR2	4	n/a	n/a	n/a	4	12	6	5	1
763.7724609375	n/a	PROB	1564206	n/a	LTP372	ltpFR2	4	n/a	n/a	n/a	4	17	9	1	7
764.93798828125	n/a	PROB	1566593	n/a	LTP372	ltpFR2	4	n/a	n/a	n/a	4	7	1	4	2
766.18798828125	n/a	PROB	1569153	n/a	LTP372	ltpFR2	4	n/a	n/a	n/a	4	17	9	4	4
767.52001953125	n/a	PROB	1571881	n/a	LTP372	ltpFR2	4	n/a	n/a	n/a	4	17	5	7	5
769.10302734375	n/a	PROB	1575123	n/a	LTP372	ltpFR2	4	n/a	n/a	n/a	4	19	8	2	9
770.2861328125	n/a	PROB	1577546	n/a	LTP372	ltpFR2	4	n/a	n/a	n/a	4	21	8	6	7
771.51806640625	n/a	PROB	1580069	n/a	LTP372	ltpFR2	4	n/a	n/a	n/a	4	18	5	8	5
772.73388671875	n/a	PROB	1582559	n/a	LTP372	ltpFR2	4	n/a	n/a	n/a	4	11	2	3	6
773.966796875	n/a	PROB	1585084	n/a	LTP372	ltpFR2	4	n/a	n/a	n/a	4	14	8	1	5
775.23388671875	n/a	PROB	1587679	n/a	LTP372	ltpFR2	4	n/a	n/a	n/a	4	8	2	1	5
776.36083984375	n/a	STOP	1589987	n/a	LTP372	ltpFR2	4	n/a	n/a	n/a	4	n/a	n/a	n/a	n/a
779.73193359375	n/a	REC_START	1596891	n/a	LTP372	ltpFR2	4	3	n/a	n/a	n/a	n/a	0	0	0
780.5068359375	n/a	REC_WORD	1598478	wordpools/wasnorm_wordpool_576.txt	LTP372	ltpFR2	4	3	CRATER	400	n/a	n/a	0	0	0
781.5546875	n/a	REC_WORD	1600624	wordpools/wasnorm_wordpool_576.txt	LTP372	ltpFR2	4	3	DRAGON	492	n/a	n/a	0	0	0
783.02685546875	n/a	REC_WORD	1603639	wordpools/wasnorm_wordpool_576.txt	LTP372	ltpFR2	4	3	PREACHER	1119	n/a	n/a	0	0	0
784.62841796875	n/a	REC_WORD_VV	1606919	wordpools/wasnorm_wordpool_576.txt	LTP372	ltpFR2	4	3	<>	-1	n/a	n/a	0	0	0
789.21728515625	n/a	REC_WORD	1616317	wordpools/wasnorm_wordpool_576.txt	LTP372	ltpFR2	4	3	DASHBOARD	441	n/a	n/a	0	0	0
790.97021484375	n/a	REC_WORD	1619907	wordpools/wasnorm_wordpool_576.txt	LTP372	ltpFR2	4	3	EMPIRE	530	n/a	n/a	0	0	0
792.9052734375	n/a	REC_WORD	1623870	wordpools/wasnorm_wordpool_576.txt	LTP372	ltpFR2	4	3	CROWN	415	n/a	n/a	0	0	0
794.29248046875	n/a	REC_WORD	1626711	wordpools/wasnorm_wordpool_576.txt	LTP372	ltpFR2	4	3	BUTCHER	203	n/a	n/a	0	0	0
795.3623046875	n/a	REC_WORD	1628902	wordpools/wasnorm_wordpool_576.txt	LTP372	ltpFR2	4	3	VIKING	1565	n/a	n/a	0	0	0
796.404296875	n/a	REC_WORD	1631036	wordpools/wasnorm_wordpool_576.txt	LTP372	ltpFR2	4	3	PADDLE	1000	n/a	n/a	0	0	0
797.951171875	n/a	REC_WORD	1634204	wordpools/wasnorm_wordpool_576.txt	LTP372	ltpFR2	4	3	UNCLE	1536	n/a	n/a	0	0	0
799.0703125	n/a	REC_WORD	1636496	wordpools/wasnorm_wordpool_576.txt	LTP372	ltpFR2	4	3	SERVER	1272	n/a	n/a	0	0	0
802.73193359375	n/a	REC_WORD	1643995	wordpools/wasnorm_wordpool_576.txt	LTP372	ltpFR2	4	3	HELMET	702	n/a	n/a	0	0	0
803.6611328125	n/a	REC_WORD	1645898	wordpools/wasnorm_wordpool_576.txt	LTP372	ltpFR2	4	3	SKILLET	1317	n/a	n/a	0	0	0
804.84814453125	n/a	REC_WORD	1648329	wordpools/wasnorm_wordpool_576.txt	LTP372	ltpFR2	4	3	OMELET	976	n/a	n/a	0	0	0
806.34716796875	n/a	REC_WORD	1651399	wordpools/wasnorm_wordpool_576.txt	LTP372	ltpFR2	4	3	FOREST	593	n/a	n/a	0	0	0
810.0576171875	n/a	REC_WORD	1658998	wordpools/wasnorm_wordpool_576.txt	LTP372	ltpFR2	4	3	VENUS	1557	n/a	n/a	0	0	0
811.11279296875	n/a	REC_WORD	1661159	wordpools/wasnorm_wordpool_576.txt	LTP372	ltpFR2	4	3	SILK	1307	n/a	n/a	0	0	0
812.375	n/a	REC_WORD	1663744	wordpools/wasnorm_wordpool_576.txt	LTP372	ltpFR2	4	3	KNIFE	785	n/a	n/a	0	0	0
870.171875	n/a	DISTRACTOR	1782112	n/a	LTP372	ltpFR2	4	4	n/a	n/a	n/a	n/a	0	0	0
870.171875	n/a	START	1782112	n/a	LTP372	ltpFR2	4	n/a	n/a	n/a	5	n/a	n/a	n/a	n/a
870.18798828125	n/a	PROB	1782145	n/a	LTP372	ltpFR2	4	n/a	n/a	n/a	5	18	8	1	9
872.1201171875	n/a	PROB	1786102	n/a	LTP372	ltpFR2	4	n/a	n/a	n/a	5	15	6	5	4
873.3369140625	n/a	PROB	1788594	n/a	LTP372	ltpFR2	4	n/a	n/a	n/a	5	9	1	4	4
875.78466796875	n/a	PROB	1793607	n/a	LTP372	ltpFR2	4	n/a	n/a	n/a	5	17	5	9	3
877.1005859375	n/a	PROB	1796302	n/a	LTP372	ltpFR2	4	n/a	n/a	n/a	5	13	7	3	3
878.6826171875	n/a	PROB	1799542	n/a	LTP372	ltpFR2	4	n/a	n/a	n/a	5	12	8	2	2
879.99853515625	n/a	PROB	1802237	n/a	LTP372	ltpFR2	4	n/a	n/a	n/a	5	12	2	3	7
881.216796875	n/a	PROB	1804732	n/a	LTP372	ltpFR2	4	n/a	n/a	n/a	5	20	9	9	2
882.54736328125	n/a	PROB	1807457	n/a	LTP372	ltpFR2	4	n/a	n/a	n/a	5	11	2	8	1
883.71337890625	n/a	PROB	1809845	n/a	LTP372	ltpFR2	4	n/a	n/a	n/a	5	12	2	8	2
884.88037109375	n/a	PROB	1812235	n/a	LTP372	ltpFR2	4	n/a	n/a	n/a	5	16	6	1	9
886.146484375	n/a	PROB	1814828	n/a	LTP372	ltpFR2	4	n/a	n/a	n/a	5	10	2	6	2
887.66259765625	n/a	PROB	1817933	n/a	LTP372	ltpFR2	4	n/a	n/a	n/a	5	11	1	3	7
889.17919921875	n/a	PROB	1821039	n/a	LTP372	ltpFR2	4	n/a	n/a	n/a	5	17	7	5	5
890.42724609375	n/a	PROB	1823595	n/a	LTP372	ltpFR2	4	n/a	n/a	n/a	5	21	5	9	7
891.693359375	n/a	PROB	1826188	n/a	LTP372	ltpFR2	4	n/a	n/a	n/a	5	14	3	8	3
892.79150390625	n/a	STOP	1828437	n/a	LTP372	ltpFR2	4	n/a	n/a	n/a	5	n/a	n/a	n/a	n/a
895.30908203125	n/a	WORD	1833593	wordpools/wasnorm_wordpool_576.txt	LTP372	ltpFR2	4	4	BROTHER	179	n/a	n/a	0	0	0
898.1240234375	n/a	WORD	1839358	wordpools/wasnorm_wordpool_576.txt	LTP372	ltpFR2	4	4	AIRPLANE	12	n/a	n/a	0	0	0
900.85595703125	n/a	WORD	1844953	wordpools/wasnorm_wordpool_576.txt	LTP372	ltpFR2	4	4	SPOUSE	1358	n/a	n/a	0	0	0
903.38916015625	n/a	WORD	1850141	wordpools/wasnorm_wordpool_576.txt	LTP372	ltpFR2	4	4	SIBLING	1301	n/a	n/a	0	0	0
905.88671875	n/a	WORD	1855256	wordpools/wasnorm_wordpool_576.txt	LTP372	ltpFR2	4	4	THREAD	1460	n/a	n/a	0	0	0
908.3369140625	n/a	WORD	1860274	wordpools/wasnorm_wordpool_576.txt	LTP372	ltpFR2	4	4	TURKEY	1520	n/a	n/a	0	0	0
910.80078125	n/a	WORD	1865320	wordpools/wasnorm_wordpool_576.txt	LTP372	ltpFR2	4	4	BRICK	172	n/a	n/a	0	0	0
913.44970703125	n/a	WORD	1870745	wordpools/wasnorm_wordpool_576.txt	LTP372	ltpFR2	4	4	SHELTER	1282	n/a	n/a	0	0	0
916.04833984375	n/a	WORD	1876067	wordpools/wasnorm_wordpool_576.txt	LTP372	ltpFR2	4	4	MESSAGE	888	n/a	n/a	0	0	0
918.59765625	n/a	WORD	1881288	wordpools/wasnorm_wordpool_576.txt	LTP372	ltpFR2	4	4	OX	994	n/a	n/a	0	0	0
921.23046875	n/a	WORD	1886680	wordpools/wasnorm_wordpool_576.txt	LTP372	ltpFR2	4	4	SHOVEL	1295	n/a	n/a	0	0	0
923.92822265625	n/a	WORD	1892205	wordpools/wasnorm_wordpool_576.txt	LTP372	ltpFR2	4	4	LOVER	846	n/a	n/a	0	0	0
926.693359375	n/a	WORD	1897868	wordpools/wasnorm_wordpool_576.txt	LTP372	ltpFR2	4	4	MAPLE	866	n/a	n/a	0	0	0
929.39306640625	n/a	WORD	1903397	wordpools/wasnorm_wordpool_576.txt	LTP372	ltpFR2	4	4	BALLOON	75	n/a	n/a	0	0	0
931.9912109375	n/a	WORD	1908718	wordpools/wasnorm_wordpool_576.txt	LTP372	ltpFR2	4	4	JUGGLER	763	n/a	n/a	0	0	0
934.52294921875	n/a	WORD	1913903	wordpools/wasnorm_wordpool_576.txt	LTP372	ltpFR2	4	4	SALAD	1224	n/a	n/a	0	0	0
936.9716796875	n/a	WORD	1918918	wordpools/wasnorm_wordpool_576.txt	LTP372	ltpFR2	4	4	MAILBOX	857	n/a	n/a	0	0	0
939.45361328125	n/a	WORD	1924001	wordpools/wasnorm_wordpool_576.txt	LTP372	ltpFR2	4	4	PEPPER	1047	n/a	n/a	0	0	0
942.1357421875	n/a	WORD	1929494	wordpools/wasnorm_wordpool_576.txt	LTP372	ltpFR2	4	4	GARLIC	624	n/a	n/a	0	0	0
944.70068359375	n/a	WORD	1934747	wordpools/wasnorm_wordpool_576.txt	LTP372	ltpFR2	4	4	BARREL	91	n/a	n/a	0	0	0
947.28466796875	n/a	WORD	1940039	wordpools/wasnorm_wordpool_576.txt	LTP372	ltpFR2	4	4	CHAMPAGNE	278	n/a	n/a	0	0	0
950.08154296875	n/a	WORD	1945767	wordpools/wasnorm_wordpool_576.txt	LTP372	ltpFR2	4	4	ARM	38	n/a	n/a	0	0	0
952.564453125	n/a	WORD	1950852	wordpools/wasnorm_wordpool_576.txt	LTP372	ltpFR2	4	4	RECEIPT	1173	n/a	n/a	0	0	0
955.07958984375	n/a	WORD	1956003	wordpools/wasnorm_wordpool_576.txt	LTP372	ltpFR2	4	4	VELVET	1555	n/a	n/a	0	0	0
956.6953125	n/a	START	1959312	n/a	LTP372	ltpFR2	4	n/a	n/a	n/a	6	n/a	n/a	n/a	n/a
957.6123046875	n/a	DISTRACTOR	1961190	n/a	LTP372	ltpFR2	4	4	n/a	n/a	n/a	n/a	0	0	0
957.62841796875	n/a	PROB	1961223	n/a	LTP372	ltpFR2	4	n/a	n/a	n/a	6	12	3	3	6
959.34521484375	n/a	PROB	1964739	n/a	LTP372	ltpFR2	4	n/a	n/a	n/a	6	9	1	7	1
960.7763671875	n/a	PROB	1967670	n/a	LTP372	ltpFR2	4	n/a	n/a	n/a	6	9	3	3	3
962.076171875	n/a	PROB	1970332	n/a	LTP372	ltpFR2	4	n/a	n/a	n/a	6	21	9	4	8
963.34326171875	n/a	PROB	1972927	n/a	LTP372	ltpFR2	4	n/a	n/a	n/a	6	10	2	3	5
964.72509765625	n/a	PROB	1975757	n/a	LTP372	ltpFR2	4	n/a	n/a	n/a	6	18	2	8	8
966.923828125	n/a	PROB	1980260	n/a	LTP372	ltpFR2	4	n/a	n/a	n/a	6	7	1	4	2
968.10595703125	n/a	PROB	1982681	n/a	LTP372	ltpFR2	4	n/a	n/a	n/a	6	9	2	5	2
969.18994140625	n/a	PROB	1984901	n/a	LTP372	ltpFR2	4	n/a	n/a	n/a	6	6	2	3	1
970.40576171875	n/a	PROB	1987391	n/a	LTP372	ltpFR2	4	n/a	n/a	n/a	6	14	5	5	4
971.6376953125	n/a	PROB	1989914	n/a	LTP372	ltpFR2	4	n/a	n/a	n/a	6	14	4	8	2
972.82080078125	n/a	PROB	1992337	n/a	LTP372	ltpFR2	4	n/a	n/a	n/a	6	19	2	8	9
974.07080078125	n/a	PROB	1994897	n/a	LTP372	ltpFR2	4	n/a	n/a	n/a	6	17	8	7	2
975.4697265625	n/a	PROB	1997762	n/a	LTP372	ltpFR2	4	n/a	n/a	n/a	6	10	1	8	1
976.7685546875	n/a	PROB	2000422	n/a	LTP372	ltpFR2	4	n/a	n/a	n/a	6	19	4	7	8
978.15283203125	n/a	PROB	2003257	n/a	LTP372	ltpFR2	4	n/a	n/a	n/a	6	21	9	6	6
979.431640625	n/a	STOP	2005876	n/a	LTP372	ltpFR2	4	n/a	n/a	n/a	6	n/a	n/a	n/a	n/a
982.5166015625	n/a	REC_START	2012194	n/a	LTP372	ltpFR2	4	4	n/a	n/a	n/a	n/a	0	0	0
983.84130859375	n/a	REC_WORD	2014907	wordpools/wasnorm_wordpool_576.txt	LTP372	ltpFR2	4	4	BROTHER	179	n/a	n/a	0	0	0
984.58447265625	n/a	REC_WORD	2016429	wordpools/wasnorm_wordpool_576.txt	LTP372	ltpFR2	4	4	SIBLING	1301	n/a	n/a	0	0	0
985.572265625	n/a	REC_WORD	2018452	wordpools/wasnorm_wordpool_576.txt	LTP372	ltpFR2	4	4	SPOUSE	1358	n/a	n/a	0	0	0
987.09130859375	n/a	REC_WORD	2021563	wordpools/wasnorm_wordpool_576.txt	LTP372	ltpFR2	4	4	AIRPLANE	12	n/a	n/a	0	0	0
988.99853515625	n/a	REC_WORD	2025469	wordpools/wasnorm_wordpool_576.txt	LTP372	ltpFR2	4	4	THREAD	1460	n/a	n/a	0	0	0
990.0361328125	n/a	REC_WORD	2027594	wordpools/wasnorm_wordpool_576.txt	LTP372	ltpFR2	4	4	TURKEY	1520	n/a	n/a	0	0	0
991.05615234375	n/a	REC_WORD	2029683	wordpools/wasnorm_wordpool_576.txt	LTP372	ltpFR2	4	4	BRICK	172	n/a	n/a	0	0	0
994.994140625	n/a	REC_WORD	2037748	wordpools/wasnorm_wordpool_576.txt	LTP372	ltpFR2	4	4	OX	994	n/a	n/a	0	0	0
996.326171875	n/a	REC_WORD	2040476	wordpools/wasnorm_wordpool_576.txt	LTP372	ltpFR2	4	4	SHOVEL	1295	n/a	n/a	0	0	0
998.7021484375	n/a	REC_WORD	2045342	wordpools/wasnorm_wordpool_576.txt	LTP372	ltpFR2	4	4	MESSAGE	888	n/a	n/a	0	0	0
999.7958984375	n/a	REC_WORD	2047582	wordpools/wasnorm_wordpool_576.txt	LTP372	ltpFR2	4	4	SHELTER	1282	n/a	n/a	0	0	0
1004.013671875	n/a	REC_WORD	2056220	wordpools/wasnorm_wordpool_576.txt	LTP372	ltpFR2	4	4	LOVER	846	n/a	n/a	0	0	0
1004.9287109375	n/a	REC_WORD	2058094	wordpools/wasnorm_wordpool_576.txt	LTP372	ltpFR2	4	4	MAPLE	866	n/a	n/a	0	0	0
1006.7666015625	n/a	REC_WORD	2061858	wordpools/wasnorm_wordpool_576.txt	LTP372	ltpFR2	4	4	BALLOON	75	n/a	n/a	0	0	0
1010.3984375	n/a	REC_WORD	2069296	wordpools/wasnorm_wordpool_576.txt	LTP372	ltpFR2	4	4	JUGGLER	763	n/a	n/a	0	0	0
1011.98046875	n/a	REC_WORD_VV	2072536	wordpools/wasnorm_wordpool_576.txt	LTP372	ltpFR2	4	4	<>	-1	n/a	n/a	0	0	0
1013.76953125	n/a	REC_WORD	2076200	wordpools/wasnorm_wordpool_576.txt	LTP372	ltpFR2	4	4	SALAD	1224	n/a	n/a	0	0	0
1019.04248046875	n/a	REC_WORD	2086999	wordpools/wasnorm_wordpool_576.txt	LTP372	ltpFR2	4	4	MAILBOX	857	n/a	n/a	0	0	0
1020.79248046875	n/a	REC_WORD	2090583	wordpools/wasnorm_wordpool_576.txt	LTP372	ltpFR2	4	4	PEPPER	1047	n/a	n/a	0	0	0
1021.9013671875	n/a	REC_WORD	2092854	wordpools/wasnorm_wordpool_576.txt	LTP372	ltpFR2	4	4	GARLIC	624	n/a	n/a	0	0	0
1026.6591796875	n/a	REC_WORD	2102598	wordpools/wasnorm_wordpool_576.txt	LTP372	ltpFR2	4	4	BARREL	91	n/a	n/a	0	0	0
1027.6142578125	n/a	REC_WORD	2104554	wordpools/wasnorm_wordpool_576.txt	LTP372	ltpFR2	4	4	CHAMPAGNE	278	n/a	n/a	0	0	0
1031.4658203125	n/a	REC_WORD	2112442	wordpools/wasnorm_wordpool_576.txt	LTP372	ltpFR2	4	4	ARM	38	n/a	n/a	0	0	0
1032.49609375	n/a	REC_WORD	2114552	wordpools/wasnorm_wordpool_576.txt	LTP372	ltpFR2	4	4	VELVET	1555	n/a	n/a	0	0	0
1072.95556640625	n/a	DISTRACTOR	2197413	n/a	LTP372	ltpFR2	4	5	n/a	n/a	n/a	n/a	0	0	0
1072.95556640625	n/a	START	2197413	n/a	LTP372	ltpFR2	4	n/a	n/a	n/a	7	n/a	n/a	n/a	n/a
1072.97265625	n/a	PROB	2197448	n/a	LTP372	ltpFR2	4	n/a	n/a	n/a	7	12	2	6	4
1075.32275390625	n/a	PROB	2202261	n/a	LTP372	ltpFR2	4	n/a	n/a	n/a	7	20	8	3	9
1076.6044921875	n/a	PROB	2204886	n/a	LTP372	ltpFR2	4	n/a	n/a	n/a	7	17	6	5	6
1077.9365234375	n/a	PROB	2207614	n/a	LTP372	ltpFR2	4	n/a	n/a	n/a	7	14	1	4	9
1079.11962890625	n/a	PROB	2210037	n/a	LTP372	ltpFR2	4	n/a	n/a	n/a	7	10	3	6	1
1080.28662109375	n/a	PROB	2212427	n/a	LTP372	ltpFR2	4	n/a	n/a	n/a	7	8	3	1	4
1081.50146484375	n/a	PROB	2214915	n/a	LTP372	ltpFR2	4	n/a	n/a	n/a	7	17	3	9	5
1083.05126953125	n/a	PROB	2218089	n/a	LTP372	ltpFR2	4	n/a	n/a	n/a	7	13	2	9	2
1084.2685546875	n/a	PROB	2220582	n/a	LTP372	ltpFR2	4	n/a	n/a	n/a	7	11	9	1	1
1085.3515625	n/a	PROB	2222800	n/a	LTP372	ltpFR2	4	n/a	n/a	n/a	7	10	2	7	1
1086.54931640625	n/a	PROB	2225253	n/a	LTP372	ltpFR2	4	n/a	n/a	n/a	7	16	8	1	7
1087.84912109375	n/a	PROB	2227915	n/a	LTP372	ltpFR2	4	n/a	n/a	n/a	7	19	6	5	8
1089.01513671875	n/a	PROB	2230303	n/a	LTP372	ltpFR2	4	n/a	n/a	n/a	7	23	6	8	9
1090.34814453125	n/a	PROB	2233033	n/a	LTP372	ltpFR2	4	n/a	n/a	n/a	7	15	4	6	5
1091.5302734375	n/a	PROB	2235454	n/a	LTP372	ltpFR2	4	n/a	n/a	n/a	7	16	6	2	8
1092.6962890625	n/a	PROB	2237842	n/a	LTP372	ltpFR2	4	n/a	n/a	n/a	7	13	7	5	1
1093.84619140625	n/a	PROB	2240197	n/a	LTP372	ltpFR2	4	n/a	n/a	n/a	7	7	2	3	2
1095.01220703125	n/a	PROB	2242585	n/a	LTP372	ltpFR2	4	n/a	n/a	n/a	7	20	8	9	3
1096.1611328125	n/a	STOP	2244938	n/a	LTP372	ltpFR2	4	n/a	n/a	n/a	7	n/a	n/a	n/a	n/a
1098.1611328125	n/a	WORD	2249034	wordpools/wasnorm_wordpool_576.txt	LTP372	ltpFR2	4	5	COUNTRY	388	n/a	n/a	0	0	0
1100.64306640625	n/a	WORD	2254117	wordpools/wasnorm_wordpool_576.txt	LTP372	ltpFR2	4	5	JUNGLE	764	n/a	n/a	0	0	0
1103.15869140625	n/a	WORD	2259269	wordpools/wasnorm_wordpool_576.txt	LTP372	ltpFR2	4	5	SEAL	1262	n/a	n/a	0	0	0
1105.923828125	n/a	WORD	2264932	wordpools/wasnorm_wordpool_576.txt	LTP372	ltpFR2	4	5	RAZOR	1171	n/a	n/a	0	0	0
1108.45556640625	n/a	WORD	2270117	wordpools/wasnorm_wordpool_576.txt	LTP372	ltpFR2	4	5	DOUGHNUT	490	n/a	n/a	0	0	0
1111.08740234375	n/a	WORD	2275507	wordpools/wasnorm_wordpool_576.txt	LTP372	ltpFR2	4	5	CHIPMUNK	304	n/a	n/a	0	0	0
1113.55322265625	n/a	WORD	2280557	wordpools/wasnorm_wordpool_576.txt	LTP372	ltpFR2	4	5	BOUQUET	157	n/a	n/a	0	0	0
1116.1181640625	n/a	WORD	2285810	wordpools/wasnorm_wordpool_576.txt	LTP372	ltpFR2	4	5	FIDDLE	561	n/a	n/a	0	0	0
1118.8173828125	n/a	WORD	2291338	wordpools/wasnorm_wordpool_576.txt	LTP372	ltpFR2	4	5	TUTU	1524	n/a	n/a	0	0	0
1121.54931640625	n/a	WORD	2296933	wordpools/wasnorm_wordpool_576.txt	LTP372	ltpFR2	4	5	UMPIRE	1535	n/a	n/a	0	0	0
1124.13134765625	n/a	WORD	2302221	wordpools/wasnorm_wordpool_576.txt	LTP372	ltpFR2	4	5	BUGGY	188	n/a	n/a	0	0	0
1126.72998046875	n/a	WORD	2307543	wordpools/wasnorm_wordpool_576.txt	LTP372	ltpFR2	4	5	CARRIAGE	248	n/a	n/a	0	0	0
1129.34619140625	n/a	WORD	2312901	wordpools/wasnorm_wordpool_576.txt	LTP372	ltpFR2	4	5	HERO	706	n/a	n/a	0	0	0
1131.86083984375	n/a	WORD	2318051	wordpools/wasnorm_wordpool_576.txt	LTP372	ltpFR2	4	5	IDOL	733	n/a	n/a	0	0	0
1134.49267578125	n/a	WORD	2323441	wordpools/wasnorm_wordpool_576.txt	LTP372	ltpFR2	4	5	SLUG	1329	n/a	n/a	0	0	0
1137.05859375	n/a	WORD	2328696	wordpools/wasnorm_wordpool_576.txt	LTP372	ltpFR2	4	5	POISON	1096	n/a	n/a	0	0	0
1139.640625	n/a	WORD	2333984	wordpools/wasnorm_wordpool_576.txt	LTP372	ltpFR2	4	5	BLADE	134	n/a	n/a	0	0	0
1142.25634765625	n/a	WORD	2339341	wordpools/wasnorm_wordpool_576.txt	LTP372	ltpFR2	4	5	FLASK	576	n/a	n/a	0	0	0
1145.0546875	n/a	WORD	2345072	wordpools/wasnorm_wordpool_576.txt	LTP372	ltpFR2	4	5	SISTER	1312	n/a	n/a	0	0	0
1147.71923828125	n/a	WORD	2350529	wordpools/wasnorm_wordpool_576.txt	LTP372	ltpFR2	4	5	CHAPEL	280	n/a	n/a	0	0	0
1150.4853515625	n/a	WORD	2356194	wordpools/wasnorm_wordpool_576.txt	LTP372	ltpFR2	4	5	POCKET	1093	n/a	n/a	0	0	0
1153.16845703125	n/a	WORD	2361689	wordpools/wasnorm_wordpool_576.txt	LTP372	ltpFR2	4	5	HAND	683	n/a	n/a	0	0	0
1155.79931640625	n/a	WORD	2367077	wordpools/wasnorm_wordpool_576.txt	LTP372	ltpFR2	4	5	ONION	977	n/a	n/a	0	0	0
1158.2490234375	n/a	WORD	2372094	wordpools/wasnorm_wordpool_576.txt	LTP372	ltpFR2	4	5	JEANS	752	n/a	n/a	0	0	0
1159.8642578125	n/a	START	2375402	n/a	LTP372	ltpFR2	4	n/a	n/a	n/a	8	n/a	n/a	n/a	n/a
1160.71923828125	n/a	DISTRACTOR	2377153	n/a	LTP372	ltpFR2	4	5	n/a	n/a	n/a	n/a	0	0	0
1160.72998046875	n/a	PROB	2377175	n/a	LTP372	ltpFR2	4	n/a	n/a	n/a	8	21	8	7	6
1163.22998046875	n/a	PROB	2382295	n/a	LTP372	ltpFR2	4	n/a	n/a	n/a	8	16	3	8	5
1164.544921875	n/a	PROB	2384988	n/a	LTP372	ltpFR2	4	n/a	n/a	n/a	8	8	2	2	4
1165.677734375	n/a	PROB	2387308	n/a	LTP372	ltpFR2	4	n/a	n/a	n/a	8	23	7	9	7
1167.0107421875	n/a	PROB	2390038	n/a	LTP372	ltpFR2	4	n/a	n/a	n/a	8	20	5	9	6
1168.2939453125	n/a	PROB	2392666	n/a	LTP372	ltpFR2	4	n/a	n/a	n/a	8	9	4	3	2
1169.45849609375	n/a	PROB	2395051	n/a	LTP372	ltpFR2	4	n/a	n/a	n/a	8	7	4	2	1
1170.65869140625	n/a	PROB	2397509	n/a	LTP372	ltpFR2	4	n/a	n/a	n/a	8	16	9	4	3
1171.94189453125	n/a	PROB	2400137	n/a	LTP372	ltpFR2	4	n/a	n/a	n/a	8	18	6	5	7
1173.107421875	n/a	PROB	2402524	n/a	LTP372	ltpFR2	4	n/a	n/a	n/a	8	14	8	1	5
1175.1904296875	n/a	PROB	2406790	n/a	LTP372	ltpFR2	4	n/a	n/a	n/a	8	15	8	4	3
1176.45556640625	n/a	PROB	2409381	n/a	LTP372	ltpFR2	4	n/a	n/a	n/a	8	9	6	2	1
1177.73828125	n/a	PROB	2412008	n/a	LTP372	ltpFR2	4	n/a	n/a	n/a	8	13	9	3	1
1179.00439453125	n/a	PROB	2414601	n/a	LTP372	ltpFR2	4	n/a	n/a	n/a	8	13	7	1	5
1180.28857421875	n/a	PROB	2417231	n/a	LTP372	ltpFR2	4	n/a	n/a	n/a	8	12	8	1	3
1181.50341796875	n/a	PROB	2419719	n/a	LTP372	ltpFR2	4	n/a	n/a	n/a	8	13	4	7	2
1182.62451171875	n/a	STOP	2422015	n/a	LTP372	ltpFR2	4	n/a	n/a	n/a	8	n/a	n/a	n/a	n/a
1185.71826171875	n/a	REC_START	2428351	n/a	LTP372	ltpFR2	4	5	n/a	n/a	n/a	n/a	0	0	0
1186.9169921875	n/a	REC_WORD	2430806	wordpools/wasnorm_wordpool_576.txt	LTP372	ltpFR2	4	5	SISTER	1312	n/a	n/a	0	0	0
1187.8603515625	n/a	REC_WORD	2432738	wordpools/wasnorm_wordpool_576.txt	LTP372	ltpFR2	4	5	CHAPEL	280	n/a	n/a	0	0	0
1190.21826171875	n/a	REC_WORD	2437567	wordpools/wasnorm_wordpool_576.txt	LTP372	ltpFR2	4	5	HAND	683	n/a	n/a	0	0	0
1191.91796875	n/a	REC_WORD	2441048	wordpools/wasnorm_wordpool_576.txt	LTP372	ltpFR2	4	5	POCKET	1093	n/a	n/a	0	0	0
1193.5908203125	n/a	REC_WORD	2444474	wordpools/wasnorm_wordpool_576.txt	LTP372	ltpFR2	4	5	ONION	977	n/a	n/a	0	0	0
1204.95361328125	n/a	REC_WORD	2467745	wordpools/wasnorm_wordpool_576.txt	LTP372	ltpFR2	4	5	COUNTRY	388	n/a	n/a	0	0	0
1206.62548828125	n/a	REC_WORD	2471169	wordpools/wasnorm_wordpool_576.txt	LTP372	ltpFR2	4	5	JUNGLE	764	n/a	n/a	0	0	0
1207.6884765625	n/a	REC_WORD	2473346	wordpools/wasnorm_wordpool_576.txt	LTP372	ltpFR2	4	5	SEAL	1262	n/a	n/a	0	0	0
1210.70849609375	n/a	REC_WORD	2479531	wordpools/wasnorm_wordpool_576.txt	LTP372	ltpFR2	4	5	RAZOR	1171	n/a	n/a	0	0	0
1212.24658203125	n/a	REC_WORD	2482681	wordpools/wasnorm_wordpool_576.txt	LTP372	ltpFR2	4	5	DOUGHNUT	490	n/a	n/a	0	0	0
1213.40234375	n/a	REC_WORD	2485048	wordpools/wasnorm_wordpool_576.txt	LTP372	ltpFR2	4	5	CHIPMUNK	304	n/a	n/a	0	0	0
1215.97119140625	n/a	REC_WORD	2490309	wordpools/wasnorm_wordpool_576.txt	LTP372	ltpFR2	4	5	BOUQUET	157	n/a	n/a	0	0	0
1217.201171875	n/a	REC_WORD	2492828	wordpools/wasnorm_wordpool_576.txt	LTP372	ltpFR2	4	5	FIDDLE	561	n/a	n/a	0	0	0
1218.35009765625	n/a	REC_WORD	2495181	wordpools/wasnorm_wordpool_576.txt	LTP372	ltpFR2	4	5	TUTU	1524	n/a	n/a	0	0	0
1224.72021484375	n/a	REC_WORD	2508227	wordpools/wasnorm_wordpool_576.txt	LTP372	ltpFR2	4	5	UMPIRE	1535	n/a	n/a	0	0	0
1228.4208984375	n/a	REC_WORD	2515806	wordpools/wasnorm_wordpool_576.txt	LTP372	ltpFR2	4	5	HERO	706	n/a	n/a	0	0	0
1229.630859375	n/a	REC_WORD	2518284	wordpools/wasnorm_wordpool_576.txt	LTP372	ltpFR2	4	5	IDOL	733	n/a	n/a	0	0	0
1236.43359375	n/a	REC_WORD	2532216	wordpools/wasnorm_wordpool_576.txt	LTP372	ltpFR2	4	5	POISON	1096	n/a	n/a	0	0	0
1237.66455078125	n/a	REC_WORD	2534737	wordpools/wasnorm_wordpool_576.txt	LTP372	ltpFR2	4	5	FLASK	576	n/a	n/a	0	0	0
1240.04345703125	n/a	REC_WORD	2539609	wordpools/wasnorm_wordpool_576.txt	LTP372	ltpFR2	4	5	BLADE	134	n/a	n/a	0	0	0
1276.158203125	n/a	WORD	2613572	wordpools/wasnorm_wordpool_576.txt	LTP372	ltpFR2	4	6	SHRUB	1299	n/a	n/a	0	0	0
1278.939453125	n/a	WORD	2619268	wordpools/wasnorm_wordpool_576.txt	LTP372	ltpFR2	4	6	CITRUS	313	n/a	n/a	0	0	0
1281.75537109375	n/a	WORD	2625035	wordpools/wasnorm_wordpool_576.txt	LTP372	ltpFR2	4	6	SHARK	1275	n/a	n/a	0	0	0
1284.50439453125	n/a	WORD	2630665	wordpools/wasnorm_wordpool_576.txt	LTP372	ltpFR2	4	6	BLOUSE	139	n/a	n/a	0	0	0
1287.169921875	n/a	WORD	2636124	wordpools/wasnorm_wordpool_576.txt	LTP372	ltpFR2	4	6	MAILMAN	858	n/a	n/a	0	0	0
1289.66796875	n/a	WORD	2641240	wordpools/wasnorm_wordpool_576.txt	LTP372	ltpFR2	4	6	PACKAGE	997	n/a	n/a	0	0	0
1292.43310546875	n/a	WORD	2646903	wordpools/wasnorm_wordpool_576.txt	LTP372	ltpFR2	4	6	HOOK	715	n/a	n/a	0	0	0
1295.2158203125	n/a	WORD	2652602	wordpools/wasnorm_wordpool_576.txt	LTP372	ltpFR2	4	6	CELLAR	267	n/a	n/a	0	0	0
1297.94677734375	n/a	WORD	2658195	wordpools/wasnorm_wordpool_576.txt	LTP372	ltpFR2	4	6	TWIG	1527	n/a	n/a	0	0	0
1300.6298828125	n/a	WORD	2663690	wordpools/wasnorm_wordpool_576.txt	LTP372	ltpFR2	4	6	YACHT	1629	n/a	n/a	0	0	0
1303.12744140625	n/a	WORD	2668805	wordpools/wasnorm_wordpool_576.txt	LTP372	ltpFR2	4	6	ELBOW	520	n/a	n/a	0	0	0
1305.79345703125	n/a	WORD	2674265	wordpools/wasnorm_wordpool_576.txt	LTP372	ltpFR2	4	6	FUNGUS	614	n/a	n/a	0	0	0
1308.54248046875	n/a	WORD	2679895	wordpools/wasnorm_wordpool_576.txt	LTP372	ltpFR2	4	6	CARROT	249	n/a	n/a	0	0	0
1311.107421875	n/a	WORD	2685148	wordpools/wasnorm_wordpool_576.txt	LTP372	ltpFR2	4	6	BRIEFCASE	175	n/a	n/a	0	0	0
1313.8564453125	n/a	WORD	2690778	wordpools/wasnorm_wordpool_576.txt	LTP372	ltpFR2	4	6	PASTA	1021	n/a	n/a	0	0	0
1316.47119140625	n/a	WORD	2696133	wordpools/wasnorm_wordpool_576.txt	LTP372	ltpFR2	4	6	BUREAU	199	n/a	n/a	0	0	0
1319.2880859375	n/a	WORD	2701902	wordpools/wasnorm_wordpool_576.txt	LTP372	ltpFR2	4	6	MOTEL	919	n/a	n/a	0	0	0
1322.0859375	n/a	WORD	2707632	wordpools/wasnorm_wordpool_576.txt	LTP372	ltpFR2	4	6	LEOPARD	812	n/a	n/a	0	0	0
1324.66796875	n/a	WORD	2712920	wordpools/wasnorm_wordpool_576.txt	LTP372	ltpFR2	4	6	ATLAS	53	n/a	n/a	0	0	0
1327.10009765625	n/a	WORD	2717901	wordpools/wasnorm_wordpool_576.txt	LTP372	ltpFR2	4	6	SUNSET	1408	n/a	n/a	0	0	0
1329.798828125	n/a	WORD	2723428	wordpools/wasnorm_wordpool_576.txt	LTP372	ltpFR2	4	6	FLIPPER	580	n/a	n/a	0	0	0
1332.5966796875	n/a	WORD	2729158	wordpools/wasnorm_wordpool_576.txt	LTP372	ltpFR2	4	6	BEEF	113	n/a	n/a	0	0	0
1335.21337890625	n/a	WORD	2734517	wordpools/wasnorm_wordpool_576.txt	LTP372	ltpFR2	4	6	NOVEL	960	n/a	n/a	0	0	0
1337.8447265625	n/a	WORD	2739906	wordpools/wasnorm_wordpool_576.txt	LTP372	ltpFR2	4	6	BINDER	127	n/a	n/a	0	0	0
1339.46044921875	n/a	START	2743215	n/a	LTP372	ltpFR2	4	n/a	n/a	n/a	9	n/a	n/a	n/a	n/a
1340.5224609375	n/a	DISTRACTOR	2745390	n/a	LTP372	ltpFR2	4	6	n/a	n/a	n/a	n/a	0	0	0
1340.5263671875	n/a	PROB	2745398	n/a	LTP372	ltpFR2	4	n/a	n/a	n/a	9	11	1	4	6
1342.525390625	n/a	PROB	2749492	n/a	LTP372	ltpFR2	4	n/a	n/a	n/a	9	9	3	2	4
1344.57421875	n/a	PROB	2753688	n/a	LTP372	ltpFR2	4	n/a	n/a	n/a	9	14	7	1	6
1345.92431640625	n/a	PROB	2756453	n/a	LTP372	ltpFR2	4	n/a	n/a	n/a	9	15	1	9	5
1347.107421875	n/a	PROB	2758876	n/a	LTP372	ltpFR2	4	n/a	n/a	n/a	9	11	1	5	5
1348.67333984375	n/a	PROB	2762083	n/a	LTP372	ltpFR2	4	n/a	n/a	n/a	9	9	6	2	1
1349.9052734375	n/a	PROB	2764606	n/a	LTP372	ltpFR2	4	n/a	n/a	n/a	9	13	4	1	8
1351.63818359375	n/a	PROB	2768155	n/a	LTP372	ltpFR2	4	n/a	n/a	n/a	9	7	1	3	3
1352.9873046875	n/a	PROB	2770918	n/a	LTP372	ltpFR2	4	n/a	n/a	n/a	9	14	2	6	6
1354.37109375	n/a	PROB	2773752	n/a	LTP372	ltpFR2	4	n/a	n/a	n/a	9	15	3	7	5
1355.63623046875	n/a	PROB	2776343	n/a	LTP372	ltpFR2	4	n/a	n/a	n/a	9	19	9	4	6
1356.98486328125	n/a	PROB	2779105	n/a	LTP372	ltpFR2	4	n/a	n/a	n/a	9	10	2	4	4
1358.31884765625	n/a	PROB	2781837	n/a	LTP372	ltpFR2	4	n/a	n/a	n/a	9	16	7	2	7
1359.61767578125	n/a	PROB	2784497	n/a	LTP372	ltpFR2	4	n/a	n/a	n/a	9	16	9	1	6
1360.78369140625	n/a	PROB	2786885	n/a	LTP372	ltpFR2	4	n/a	n/a	n/a	9	15	7	3	5
1361.95166015625	n/a	STOP	2789277	n/a	LTP372	ltpFR2	4	n/a	n/a	n/a	9	n/a	n/a	n/a	n/a
1365.24951171875	n/a	REC_START	2796031	n/a	LTP372	ltpFR2	4	6	n/a	n/a	n/a	n/a	0	0	0
1366.259765625	n/a	REC_WORD	2798100	wordpools/wasnorm_wordpool_576.txt	LTP372	ltpFR2	4	6	SHRUB	1299	n/a	n/a	0	0	0
1367.142578125	n/a	REC_WORD	2799908	wordpools/wasnorm_wordpool_576.txt	LTP372	ltpFR2	4	6	CITRUS	313	n/a	n/a	0	0	0
1368.61572265625	n/a	REC_WORD	2802925	wordpools/wasnorm_wordpool_576.txt	LTP372	ltpFR2	4	6	SHARK	1275	n/a	n/a	0	0	0
1371.36572265625	n/a	REC_WORD	2808557	wordpools/wasnorm_wordpool_576.txt	LTP372	ltpFR2	4	6	MAILMAN	858	n/a	n/a	0	0	0
1372.91650390625	n/a	REC_WORD	2811733	wordpools/wasnorm_wordpool_576.txt	LTP372	ltpFR2	4	6	PACKAGE	997	n/a	n/a	0	0	0
1375.88037109375	n/a	REC_WORD	2817803	wordpools/wasnorm_wordpool_576.txt	LTP372	ltpFR2	4	6	CELLAR	267	n/a	n/a	0	0	0
1378.25439453125	n/a	REC_WORD	2822665	wordpools/wasnorm_wordpool_576.txt	LTP372	ltpFR2	4	6	TWIG	1527	n/a	n/a	0	0	0
1380.54638671875	n/a	REC_WORD	2827359	wordpools/wasnorm_wordpool_576.txt	LTP372	ltpFR2	4	6	YACHT	1629	n/a	n/a	0	0	0
1382.859375	n/a	REC_WORD	2832096	wordpools/wasnorm_wordpool_576.txt	LTP372	ltpFR2	4	6	ELBOW	520	n/a	n/a	0	0	0
1383.85400390625	n/a	REC_WORD	2834133	wordpools/wasnorm_wordpool_576.txt	LTP372	ltpFR2	4	6	FUNGUS	614	n/a	n/a	0	0	0
1386.115234375	n/a	REC_WORD	2838764	wordpools/wasnorm_wordpool_576.txt	LTP372	ltpFR2	4	6	BRIEFCASE	175	n/a	n/a	0	0	0
1387.43798828125	n/a	REC_WORD	2841473	wordpools/wasnorm_wordpool_576.txt	LTP372	ltpFR2	4	6	BUREAU	199	n/a	n/a	0	0	0
1388.94091796875	n/a	REC_WORD	2844551	wordpools/wasnorm_wordpool_576.txt	LTP372	ltpFR2	4	6	MOTEL	919	n/a	n/a	0	0	0
1393.97998046875	n/a	REC_WORD	2854871	wordpools/wasnorm_wordpool_576.txt	LTP372	ltpFR2	4	6	LEOPARD	812	n/a	n/a	0	0	0
1395.2978515625	n/a	REC_WORD	2857570	wordpools/wasnorm_wordpool_576.txt	LTP372	ltpFR2	4	6	FLIPPER	580	n/a	n/a	0	0	0
1397.470703125	n/a	REC_WORD	2862020	wordpools/wasnorm_wordpool_576.txt	LTP372	ltpFR2	4	6	ATLAS	53	n/a	n/a	0	0	0
1400.62060546875	n/a	REC_WORD	2868471	wordpools/wasnorm_wordpool_576.txt	LTP372	ltpFR2	4	6	BEEF	113	n/a	n/a	0	0	0
1424.48388671875	n/a	REC_WORD	2917343	wordpools/wasnorm_wordpool_576.txt	LTP372	ltpFR2	4	6	SUNSET	1408	n/a	n/a	0	0	0
1455.705078125	n/a	WORD	2981284	wordpools/wasnorm_wordpool_576.txt	LTP372	ltpFR2	4	7	ROCKET	1202	n/a	n/a	0	0	0
1458.37060546875	n/a	WORD	2986743	wordpools/wasnorm_wordpool_576.txt	LTP372	ltpFR2	4	7	ROD	1203	n/a	n/a	0	0	0
1461.0185546875	n/a	WORD	2992166	wordpools/wasnorm_wordpool_576.txt	LTP372	ltpFR2	4	7	FRAME	600	n/a	n/a	0	0	0
1463.80078125	n/a	WORD	2997864	wordpools/wasnorm_wordpool_576.txt	LTP372	ltpFR2	4	7	BANKER	84	n/a	n/a	0	0	0
1466.3505859375	n/a	WORD	3003086	wordpools/wasnorm_wordpool_576.txt	LTP372	ltpFR2	4	7	JELLO	754	n/a	n/a	0	0	0
1469.064453125	n/a	WORD	3008644	wordpools/wasnorm_wordpool_576.txt	LTP372	ltpFR2	4	7	FIREPLACE	570	n/a	n/a	0	0	0
1471.5634765625	n/a	WORD	3013762	wordpools/wasnorm_wordpool_576.txt	LTP372	ltpFR2	4	7	SWAMP	1416	n/a	n/a	0	0	0
1474.3134765625	n/a	WORD	3019394	wordpools/wasnorm_wordpool_576.txt	LTP372	ltpFR2	4	7	HARP	689	n/a	n/a	0	0	0
1477.12744140625	n/a	WORD	3025157	wordpools/wasnorm_wordpool_576.txt	LTP372	ltpFR2	4	7	HEADBAND	696	n/a	n/a	0	0	0
1479.7763671875	n/a	WORD	3030582	wordpools/wasnorm_wordpool_576.txt	LTP372	ltpFR2	4	7	INMATE	738	n/a	n/a	0	0	0
1482.30908203125	n/a	WORD	3035769	wordpools/wasnorm_wordpool_576.txt	LTP372	ltpFR2	4	7	BUNNY	198	n/a	n/a	0	0	0
1485.0400390625	n/a	WORD	3041362	wordpools/wasnorm_wordpool_576.txt	LTP372	ltpFR2	4	7	TWISTER	1530	n/a	n/a	0	0	0
1487.57177734375	n/a	WORD	3046547	wordpools/wasnorm_wordpool_576.txt	LTP372	ltpFR2	4	7	CONCERT	360	n/a	n/a	0	0	0
1490.087890625	n/a	WORD	3051700	wordpools/wasnorm_wordpool_576.txt	LTP372	ltpFR2	4	7	TROMBONE	1508	n/a	n/a	0	0	0
1492.5537109375	n/a	WORD	3056750	wordpools/wasnorm_wordpool_576.txt	LTP372	ltpFR2	4	7	DRIVER	499	n/a	n/a	0	0	0
1495.169921875	n/a	WORD	3062108	wordpools/wasnorm_wordpool_576.txt	LTP372	ltpFR2	4	7	CURTAIN	427	n/a	n/a	0	0	0
1497.9833984375	n/a	WORD	3067870	wordpools/wasnorm_wordpool_576.txt	LTP372	ltpFR2	4	7	DENIM	446	n/a	n/a	0	0	0
1500.63232421875	n/a	WORD	3073295	wordpools/wasnorm_wordpool_576.txt	LTP372	ltpFR2	4	7	SHORTS	1293	n/a	n/a	0	0	0
1503.1826171875	n/a	WORD	3078518	wordpools/wasnorm_wordpool_576.txt	LTP372	ltpFR2	4	7	RABBIT	1152	n/a	n/a	0	0	0
1505.6474609375	n/a	WORD	3083566	wordpools/wasnorm_wordpool_576.txt	LTP372	ltpFR2	4	7	OUTLAW	989	n/a	n/a	0	0	0
1508.21337890625	n/a	WORD	3088821	wordpools/wasnorm_wordpool_576.txt	LTP372	ltpFR2	4	7	BANQUET	86	n/a	n/a	0	0	0
1511.01123046875	n/a	WORD	3094551	wordpools/wasnorm_wordpool_576.txt	LTP372	ltpFR2	4	7	GRILL	661	n/a	n/a	0	0	0
1513.6103515625	n/a	WORD	3099874	wordpools/wasnorm_wordpool_576.txt	LTP372	ltpFR2	4	7	ARMY	39	n/a	n/a	0	0	0
1516.14306640625	n/a	WORD	3105061	wordpools/wasnorm_wordpool_576.txt	LTP372	ltpFR2	4	7	MISSILE	900	n/a	n/a	0	0	0
1517.7578125	n/a	START	3108368	n/a	LTP372	ltpFR2	4	n/a	n/a	n/a	10	n/a	n/a	n/a	n/a
1518.65673828125	n/a	DISTRACTOR	3110209	n/a	LTP372	ltpFR2	4	7	n/a	n/a	n/a	n/a	0	0	0
1518.673828125	n/a	PROB	3110244	n/a	LTP372	ltpFR2	4	n/a	n/a	n/a	10	10	1	6	3
1520.5400390625	n/a	PROB	3114066	n/a	LTP372	ltpFR2	4	n/a	n/a	n/a	10	16	3	6	7
1521.68896484375	n/a	PROB	3116419	n/a	LTP372	ltpFR2	4	n/a	n/a	n/a	10	17	6	5	6
1523.03857421875	n/a	PROB	3119183	n/a	LTP372	ltpFR2	4	n/a	n/a	n/a	10	12	1	9	2
1524.15576171875	n/a	PROB	3121471	n/a	LTP372	ltpFR2	4	n/a	n/a	n/a	10	11	3	6	2
1525.37158203125	n/a	PROB	3123961	n/a	LTP372	ltpFR2	4	n/a	n/a	n/a	10	14	8	1	5
1526.73681640625	n/a	PROB	3126757	n/a	LTP372	ltpFR2	4	n/a	n/a	n/a	10	11	2	7	2
1527.95263671875	n/a	PROB	3129247	n/a	LTP372	ltpFR2	4	n/a	n/a	n/a	10	15	7	5	3
1529.13671875	n/a	PROB	3131672	n/a	LTP372	ltpFR2	4	n/a	n/a	n/a	10	17	7	4	6
1530.91845703125	n/a	PROB	3135321	n/a	LTP372	ltpFR2	4	n/a	n/a	n/a	10	18	8	9	1
1532.08447265625	n/a	PROB	3137709	n/a	LTP372	ltpFR2	4	n/a	n/a	n/a	10	20	6	9	5
1533.3515625	n/a	PROB	3140304	n/a	LTP372	ltpFR2	4	n/a	n/a	n/a	10	6	3	2	1
1534.41650390625	n/a	PROB	3142485	n/a	LTP372	ltpFR2	4	n/a	n/a	n/a	10	9	4	2	3
1535.71533203125	n/a	PROB	3145145	n/a	LTP372	ltpFR2	4	n/a	n/a	n/a	10	23	6	9	8
1537.43115234375	n/a	PROB	3148659	n/a	LTP372	ltpFR2	4	n/a	n/a	n/a	10	4	1	2	1
1538.51416015625	n/a	PROB	3150877	n/a	LTP372	ltpFR2	4	n/a	n/a	n/a	10	9	3	2	4
1541.75244140625	n/a	STOP	3157509	n/a	LTP372	ltpFR2	4	n/a	n/a	n/a	10	n/a	n/a	n/a	n/a
1543.662109375	n/a	REC_START	3161420	n/a	LTP372	ltpFR2	4	7	n/a	n/a	n/a	n/a	0	0	0
1545.46435546875	n/a	REC_WORD	3165111	wordpools/wasnorm_wordpool_576.txt	LTP372	ltpFR2	4	7	ROCKET	1202	n/a	n/a	0	0	0
1548.12109375	n/a	REC_WORD	3170552	wordpools/wasnorm_wordpool_576.txt	LTP372	ltpFR2	4	7	BANKER	84	n/a	n/a	0	0	0
1549.7919921875	n/a	REC_WORD	3173974	wordpools/wasnorm_wordpool_576.txt	LTP372	ltpFR2	4	7	JELLO	754	n/a	n/a	0	0	0
1551.73681640625	n/a	REC_WORD	3177957	wordpools/wasnorm_wordpool_576.txt	LTP372	ltpFR2	4	7	FIREPLACE	570	n/a	n/a	0	0	0
1556.265625	n/a	REC_WORD	3187232	wordpools/wasnorm_wordpool_576.txt	LTP372	ltpFR2	4	7	SWAMP	1416	n/a	n/a	0	0	0
1558.966796875	n/a	REC_WORD	3192764	wordpools/wasnorm_wordpool_576.txt	LTP372	ltpFR2	4	7	HARP	689	n/a	n/a	0	0	0
1560.7294921875	n/a	REC_WORD	3196374	wordpools/wasnorm_wordpool_576.txt	LTP372	ltpFR2	4	7	HEADBAND	696	n/a	n/a	0	0	0
1569.20556640625	n/a	REC_WORD	3213733	wordpools/wasnorm_wordpool_576.txt	LTP372	ltpFR2	4	7	ARMY	39	n/a	n/a	0	0	0
1570.1513671875	n/a	REC_WORD	3215670	wordpools/wasnorm_wordpool_576.txt	LTP372	ltpFR2	4	7	MISSILE	900	n/a	n/a	0	0	0
1603.87939453125	n/a	REC_WORD	3284745	wordpools/wasnorm_wordpool_576.txt	LTP372	ltpFR2	4	7	INMATE	738	n/a	n/a	0	0	0
1604.99951171875	n/a	REC_WORD	3287039	wordpools/wasnorm_wordpool_576.txt	LTP372	ltpFR2	4	7	BUNNY	198	n/a	n/a	0	0	0
1605.92431640625	n/a	REC_WORD	3288933	wordpools/wasnorm_wordpool_576.txt	LTP372	ltpFR2	4	7	OUTLAW	989	n/a	n/a	0	0	0
1607.4130859375	n/a	REC_WORD	3291982	wordpools/wasnorm_wordpool_576.txt	LTP372	ltpFR2	4	7	RABBIT	1152	n/a	n/a	0	0	0
1634.1015625	n/a	DISTRACTOR	3346640	n/a	LTP372	ltpFR2	4	8	n/a	n/a	n/a	n/a	0	0	0
1634.1015625	n/a	START	3346640	n/a	LTP372	ltpFR2	4	n/a	n/a	n/a	11	n/a	n/a	n/a	n/a
1634.1181640625	n/a	PROB	3346674	n/a	LTP372	ltpFR2	4	n/a	n/a	n/a	11	18	1	9	8
1636.33447265625	n/a	PROB	3351213	n/a	LTP372	ltpFR2	4	n/a	n/a	n/a	11	13	4	8	1
1637.4501953125	n/a	PROB	3353498	n/a	LTP372	ltpFR2	4	n/a	n/a	n/a	11	13	2	2	9
1638.6494140625	n/a	PROB	3355954	n/a	LTP372	ltpFR2	4	n/a	n/a	n/a	11	9	4	4	1
1639.94921875	n/a	PROB	3358616	n/a	LTP372	ltpFR2	4	n/a	n/a	n/a	11	18	8	3	7
1641.6142578125	n/a	PROB	3362026	n/a	LTP372	ltpFR2	4	n/a	n/a	n/a	11	13	1	7	5
1642.73095703125	n/a	PROB	3364313	n/a	LTP372	ltpFR2	4	n/a	n/a	n/a	11	12	1	2	9
1644.0302734375	n/a	PROB	3366974	n/a	LTP372	ltpFR2	4	n/a	n/a	n/a	11	13	4	2	7
1645.2470703125	n/a	PROB	3369466	n/a	LTP372	ltpFR2	4	n/a	n/a	n/a	11	16	1	6	9
1646.49609375	n/a	PROB	3372024	n/a	LTP372	ltpFR2	4	n/a	n/a	n/a	11	12	6	2	4
1648.5947265625	n/a	PROB	3376322	n/a	LTP372	ltpFR2	4	n/a	n/a	n/a	11	17	5	8	4
1649.9609375	n/a	PROB	3379120	n/a	LTP372	ltpFR2	4	n/a	n/a	n/a	11	17	6	2	9
1651.2109375	n/a	PROB	3381680	n/a	LTP372	ltpFR2	4	n/a	n/a	n/a	11	22	9	5	8
1652.5927734375	n/a	PROB	3384510	n/a	LTP372	ltpFR2	4	n/a	n/a	n/a	11	16	6	5	5
1653.92578125	n/a	PROB	3387240	n/a	LTP372	ltpFR2	4	n/a	n/a	n/a	11	12	5	1	6
1655.40771484375	n/a	PROB	3390275	n/a	LTP372	ltpFR2	4	n/a	n/a	n/a	11	21	7	7	7
1656.7197265625	n/a	STOP	3392962	n/a	LTP372	ltpFR2	4	n/a	n/a	n/a	11	n/a	n/a	n/a	n/a
1659.173828125	n/a	WORD	3397988	wordpools/wasnorm_wordpool_576.txt	LTP372	ltpFR2	4	8	SCARF	1246	n/a	n/a	0	0	0
1661.654296875	n/a	WORD	3403068	wordpools/wasnorm_wordpool_576.txt	LTP372	ltpFR2	4	8	DIME	466	n/a	n/a	0	0	0
1664.3544921875	n/a	WORD	3408598	wordpools/wasnorm_wordpool_576.txt	LTP372	ltpFR2	4	8	HUSBAND	728	n/a	n/a	0	0	0
1667.01953125	n/a	WORD	3414056	wordpools/wasnorm_wordpool_576.txt	LTP372	ltpFR2	4	8	WIDOW	1608	n/a	n/a	0	0	0
1669.484375	n/a	WORD	3419104	wordpools/wasnorm_wordpool_576.txt	LTP372	ltpFR2	4	8	ICING	732	n/a	n/a	0	0	0
1672.2509765625	n/a	WORD	3424770	wordpools/wasnorm_wordpool_576.txt	LTP372	ltpFR2	4	8	COIN	343	n/a	n/a	0	0	0
1674.9482421875	n/a	WORD	3430294	wordpools/wasnorm_wordpool_576.txt	LTP372	ltpFR2	4	8	CRITIC	410	n/a	n/a	0	0	0
1677.64697265625	n/a	WORD	3435821	wordpools/wasnorm_wordpool_576.txt	LTP372	ltpFR2	4	8	FILM	565	n/a	n/a	0	0	0
1680.2470703125	n/a	WORD	3441146	wordpools/wasnorm_wordpool_576.txt	LTP372	ltpFR2	4	8	WASP	1593	n/a	n/a	0	0	0
1683.0107421875	n/a	WORD	3446806	wordpools/wasnorm_wordpool_576.txt	LTP372	ltpFR2	4	8	SALT	1229	n/a	n/a	0	0	0
1685.69287109375	n/a	WORD	3452299	wordpools/wasnorm_wordpool_576.txt	LTP372	ltpFR2	4	8	PARSLEY	1016	n/a	n/a	0	0	0
1688.49169921875	n/a	WORD	3458031	wordpools/wasnorm_wordpool_576.txt	LTP372	ltpFR2	4	8	AWARD	63	n/a	n/a	0	0	0
1691.0234375	n/a	WORD	3463216	wordpools/wasnorm_wordpool_576.txt	LTP372	ltpFR2	4	8	LEG	809	n/a	n/a	0	0	0
1693.65673828125	n/a	WORD	3468609	wordpools/wasnorm_wordpool_576.txt	LTP372	ltpFR2	4	8	PLAZA	1088	n/a	n/a	0	0	0
1696.35546875	n/a	WORD	3474136	wordpools/wasnorm_wordpool_576.txt	LTP372	ltpFR2	4	8	LILY	821	n/a	n/a	0	0	0
1698.853515625	n/a	WORD	3479252	wordpools/wasnorm_wordpool_576.txt	LTP372	ltpFR2	4	8	SPIDER	1351	n/a	n/a	0	0	0
1701.38525390625	n/a	WORD	3484437	wordpools/wasnorm_wordpool_576.txt	LTP372	ltpFR2	4	8	PARTNER	1017	n/a	n/a	0	0	0
1703.984375	n/a	WORD	3489760	wordpools/wasnorm_wordpool_576.txt	LTP372	ltpFR2	4	8	OZONE	996	n/a	n/a	0	0	0
1706.533203125	n/a	WORD	3494980	wordpools/wasnorm_wordpool_576.txt	LTP372	ltpFR2	4	8	TRUCK	1512	n/a	n/a	0	0	0
1709.30029296875	n/a	WORD	3500647	wordpools/wasnorm_wordpool_576.txt	LTP372	ltpFR2	4	8	HONEY	713	n/a	n/a	0	0	0
1711.7470703125	n/a	WORD	3505658	wordpools/wasnorm_wordpool_576.txt	LTP372	ltpFR2	4	8	STUDENT	1395	n/a	n/a	0	0	0
1714.3466796875	n/a	WORD	3510982	wordpools/wasnorm_wordpool_576.txt	LTP372	ltpFR2	4	8	GREASE	660	n/a	n/a	0	0	0
1716.927734375	n/a	WORD	3516268	wordpools/wasnorm_wordpool_576.txt	LTP372	ltpFR2	4	8	DAISY	435	n/a	n/a	0	0	0
1719.4609375	n/a	WORD	3521456	wordpools/wasnorm_wordpool_576.txt	LTP372	ltpFR2	4	8	RAFT	1159	n/a	n/a	0	0	0
1721.07666015625	n/a	START	3524765	n/a	LTP372	ltpFR2	4	n/a	n/a	n/a	12	n/a	n/a	n/a	n/a
1722.20361328125	n/a	DISTRACTOR	3527073	n/a	LTP372	ltpFR2	4	8	n/a	n/a	n/a	n/a	0	0	0
1722.20947265625	n/a	PROB	3527085	n/a	LTP372	ltpFR2	4	n/a	n/a	n/a	12	22	8	8	6
1723.99169921875	n/a	PROB	3530735	n/a	LTP372	ltpFR2	4	n/a	n/a	n/a	12	13	1	9	3
1725.19140625	n/a	PROB	3533192	n/a	LTP372	ltpFR2	4	n/a	n/a	n/a	12	16	1	9	6
1726.390625	n/a	PROB	3535648	n/a	LTP372	ltpFR2	4	n/a	n/a	n/a	12	7	3	3	1
1727.70654296875	n/a	PROB	3538343	n/a	LTP372	ltpFR2	4	n/a	n/a	n/a	12	14	2	7	5
1729.0556640625	n/a	PROB	3541106	n/a	LTP372	ltpFR2	4	n/a	n/a	n/a	12	19	4	8	7
1730.4384765625	n/a	PROB	3543938	n/a	LTP372	ltpFR2	4	n/a	n/a	n/a	12	17	8	3	6
1731.67138671875	n/a	PROB	3546463	n/a	LTP372	ltpFR2	4	n/a	n/a	n/a	12	20	3	8	9
1733.00341796875	n/a	PROB	3549191	n/a	LTP372	ltpFR2	4	n/a	n/a	n/a	12	15	1	7	7
1734.453125	n/a	PROB	3552160	n/a	LTP372	ltpFR2	4	n/a	n/a	n/a	12	20	9	4	7
1735.66943359375	n/a	PROB	3554651	n/a	LTP372	ltpFR2	4	n/a	n/a	n/a	12	15	2	7	6
1736.9521484375	n/a	PROB	3557278	n/a	LTP372	ltpFR2	4	n/a	n/a	n/a	12	15	5	7	3
1738.251953125	n/a	PROB	3559940	n/a	LTP372	ltpFR2	4	n/a	n/a	n/a	12	22	8	8	6
1740.333984375	n/a	PROB	3564204	n/a	LTP372	ltpFR2	4	n/a	n/a	n/a	12	19	8	2	9
1741.59912109375	n/a	PROB	3566795	n/a	LTP372	ltpFR2	4	n/a	n/a	n/a	12	21	6	8	7
1742.7822265625	n/a	PROB	3569218	n/a	LTP372	ltpFR2	4	n/a	n/a	n/a	12	9	3	5	1
1743.83984375	n/a	STOP	3571384	n/a	LTP372	ltpFR2	4	n/a	n/a	n/a	12	n/a	n/a	n/a	n/a
1746.9638671875	n/a	REC_START	3577782	n/a	LTP372	ltpFR2	4	8	n/a	n/a	n/a	n/a	0	0	0
1749.3779296875	n/a	REC_WORD	3582726	wordpools/wasnorm_wordpool_576.txt	LTP372	ltpFR2	4	8	WIDOW	1608	n/a	n/a	0	0	0
1751.27880859375	n/a	REC_WORD	3586619	wordpools/wasnorm_wordpool_576.txt	LTP372	ltpFR2	4	8	LILY	821	n/a	n/a	0	0	0
1754.12744140625	n/a	REC_WORD	3592453	wordpools/wasnorm_wordpool_576.txt	LTP372	ltpFR2	4	8	SCARF	1246	n/a	n/a	0	0	0
1755.40576171875	n/a	REC_WORD	3595071	wordpools/wasnorm_wordpool_576.txt	LTP372	ltpFR2	4	8	DIME	466	n/a	n/a	0	0	0
1756.44580078125	n/a	REC_WORD	3597201	wordpools/wasnorm_wordpool_576.txt	LTP372	ltpFR2	4	8	HUSBAND	728	n/a	n/a	0	0	0
1758.015625	n/a	REC_WORD	3600416	wordpools/wasnorm_wordpool_576.txt	LTP372	ltpFR2	4	8	ICING	732	n/a	n/a	0	0	0
1759.32666015625	n/a	REC_WORD	3603101	wordpools/wasnorm_wordpool_576.txt	LTP372	ltpFR2	4	8	COIN	343	n/a	n/a	0	0	0
1762.9453125	n/a	REC_WORD	3610512	wordpools/wasnorm_wordpool_576.txt	LTP372	ltpFR2	4	8	STUDENT	1395	n/a	n/a	0	0	0
1766.13232421875	n/a	REC_WORD	3617039	wordpools/wasnorm_wordpool_576.txt	LTP372	ltpFR2	4	8	DAISY	435	n/a	n/a	0	0	0
1767.63916015625	n/a	REC_WORD	3620125	wordpools/wasnorm_wordpool_576.txt	LTP372	ltpFR2	4	8	GREASE	660	n/a	n/a	0	0	0
1770.326171875	n/a	REC_WORD	3625628	wordpools/wasnorm_wordpool_576.txt	LTP372	ltpFR2	4	8	RAFT	1159	n/a	n/a	0	0	0
1777.001953125	n/a	REC_WORD	3639300	wordpools/wasnorm_wordpool_576.txt	LTP372	ltpFR2	4	8	OZONE	996	n/a	n/a	0	0	0
1778.7197265625	n/a	REC_WORD	3642818	wordpools/wasnorm_wordpool_576.txt	LTP372	ltpFR2	4	8	TRUCK	1512	n/a	n/a	0	0	0
1779.81201171875	n/a	REC_WORD	3645055	wordpools/wasnorm_wordpool_576.txt	LTP372	ltpFR2	4	8	HONEY	713	n/a	n/a	0	0	0
1823.49365234375	n/a	REST_REWET	3734515	n/a	LTP372	ltpFR2	4	8	n/a	n/a	n/a	n/a	0	0	0
1991.029296875	n/a	DISTRACTOR	4077628	n/a	LTP372	ltpFR2	4	9	n/a	n/a	n/a	n/a	0	0	0
1991.029296875	n/a	START	4077628	n/a	LTP372	ltpFR2	4	n/a	n/a	n/a	13	n/a	n/a	n/a	n/a
1991.04541015625	n/a	PROB	4077661	n/a	LTP372	ltpFR2	4	n/a	n/a	n/a	13	1	9	5	1
1993.5283203125	n/a	PROB	4082746	n/a	LTP372	ltpFR2	4	n/a	n/a	n/a	13	15	9	2	4
1995.1103515625	n/a	PROB	4085986	n/a	LTP372	ltpFR2	4	n/a	n/a	n/a	13	16	7	8	1
1996.21142578125	n/a	PROB	4088241	n/a	LTP372	ltpFR2	4	n/a	n/a	n/a	13	16	9	4	3
1997.72607421875	n/a	PROB	4091343	n/a	LTP372	ltpFR2	4	n/a	n/a	n/a	13	15	2	9	4
1998.94189453125	n/a	PROB	4093833	n/a	LTP372	ltpFR2	4	n/a	n/a	n/a	13	7	1	5	1
2000.3740234375	n/a	PROB	4096766	n/a	LTP372	ltpFR2	4	n/a	n/a	n/a	13	13	7	5	1
2001.673828125	n/a	PROB	4099428	n/a	LTP372	ltpFR2	4	n/a	n/a	n/a	13	20	7	9	4
2003.22412109375	n/a	PROB	4102603	n/a	LTP372	ltpFR2	4	n/a	n/a	n/a	13	8	2	3	3
2004.373046875	n/a	PROB	4104956	n/a	LTP372	ltpFR2	4	n/a	n/a	n/a	13	15	7	6	2
2005.65478515625	n/a	PROB	4107581	n/a	LTP372	ltpFR2	4	n/a	n/a	n/a	13	19	4	8	7
2007.6376953125	n/a	PROB	4111642	n/a	LTP372	ltpFR2	4	n/a	n/a	n/a	13	17	3	9	5
2009.171875	n/a	PROB	4114784	n/a	LTP372	ltpFR2	4	n/a	n/a	n/a	13	16	2	8	6
2010.32080078125	n/a	PROB	4117137	n/a	LTP372	ltpFR2	4	n/a	n/a	n/a	13	19	6	5	8
2012.06884765625	n/a	PROB	4120717	n/a	LTP372	ltpFR2	4	n/a	n/a	n/a	13	20	7	7	6
2013.26953125	n/a	PROB	4123176	n/a	LTP372	ltpFR2	4	n/a	n/a	n/a	13	17	6	5	6
2014.78369140625	n/a	STOP	4126277	n/a	LTP372	ltpFR2	4	n/a	n/a	n/a	13	n/a	n/a	n/a	n/a
2016.00048828125	n/a	WORD	4128769	wordpools/wasnorm_wordpool_576.txt	LTP372	ltpFR2	4	9	CORAL	378	n/a	n/a	0	0	0
2018.482421875	n/a	WORD	4133852	wordpools/wasnorm_wordpool_576.txt	LTP372	ltpFR2	4	9	HOUND	724	n/a	n/a	0	0	0
2021.265625	n/a	WORD	4139552	wordpools/wasnorm_wordpool_576.txt	LTP372	ltpFR2	4	9	CLAM	315	n/a	n/a	0	0	0
2023.73046875	n/a	WORD	4144600	wordpools/wasnorm_wordpool_576.txt	LTP372	ltpFR2	4	9	THIEF	1456	n/a	n/a	0	0	0
2026.3134765625	n/a	WORD	4149890	wordpools/wasnorm_wordpool_576.txt	LTP372	ltpFR2	4	9	MARINE	869	n/a	n/a	0	0	0
2028.994140625	n/a	WORD	4155380	wordpools/wasnorm_wordpool_576.txt	LTP372	ltpFR2	4	9	CANAL	226	n/a	n/a	0	0	0
2031.69287109375	n/a	WORD	4160907	wordpools/wasnorm_wordpool_576.txt	LTP372	ltpFR2	4	9	HEART	697	n/a	n/a	0	0	0
2034.2919921875	n/a	WORD	4166230	wordpools/wasnorm_wordpool_576.txt	LTP372	ltpFR2	4	9	GRAPE	654	n/a	n/a	0	0	0
2036.89013671875	n/a	WORD	4171551	wordpools/wasnorm_wordpool_576.txt	LTP372	ltpFR2	4	9	PUDDLE	1140	n/a	n/a	0	0	0
2039.33984375	n/a	WORD	4176568	wordpools/wasnorm_wordpool_576.txt	LTP372	ltpFR2	4	9	FOOT	590	n/a	n/a	0	0	0
2041.837890625	n/a	WORD	4181684	wordpools/wasnorm_wordpool_576.txt	LTP372	ltpFR2	4	9	PASSAGE	1019	n/a	n/a	0	0	0
2044.5869140625	n/a	WORD	4187314	wordpools/wasnorm_wordpool_576.txt	LTP372	ltpFR2	4	9	FLASHLIGHT	575	n/a	n/a	0	0	0
2047.13671875	n/a	WORD	4192536	wordpools/wasnorm_wordpool_576.txt	LTP372	ltpFR2	4	9	FOOTBALL	591	n/a	n/a	0	0	0
2049.6005859375	n/a	WORD	4197582	wordpools/wasnorm_wordpool_576.txt	LTP372	ltpFR2	4	9	SPOOL	1356	n/a	n/a	0	0	0
2052.11669921875	n/a	WORD	4202735	wordpools/wasnorm_wordpool_576.txt	LTP372	ltpFR2	4	9	DRESS	495	n/a	n/a	0	0	0
2054.8486328125	n/a	WORD	4208330	wordpools/wasnorm_wordpool_576.txt	LTP372	ltpFR2	4	9	VALLEY	1545	n/a	n/a	0	0	0
2057.59716796875	n/a	WORD	4213959	wordpools/wasnorm_wordpool_576.txt	LTP372	ltpFR2	4	9	SUMMIT	1405	n/a	n/a	0	0	0
2060.0791015625	n/a	WORD	4219042	wordpools/wasnorm_wordpool_576.txt	LTP372	ltpFR2	4	9	COBRA	336	n/a	n/a	0	0	0
2062.8779296875	n/a	WORD	4224774	wordpools/wasnorm_wordpool_576.txt	LTP372	ltpFR2	4	9	RADISH	1158	n/a	n/a	0	0	0
2065.4599609375	n/a	WORD	4230062	wordpools/wasnorm_wordpool_576.txt	LTP372	ltpFR2	4	9	BEAVER	109	n/a	n/a	0	0	0
2067.958984375	n/a	WORD	4235180	wordpools/wasnorm_wordpool_576.txt	LTP372	ltpFR2	4	9	LADDER	793	n/a	n/a	0	0	0
2070.65673828125	n/a	WORD	4240705	wordpools/wasnorm_wordpool_576.txt	LTP372	ltpFR2	4	9	TABLET	1427	n/a	n/a	0	0	0
2073.140625	n/a	WORD	4245792	wordpools/wasnorm_wordpool_576.txt	LTP372	ltpFR2	4	9	SUSPECT	1415	n/a	n/a	0	0	0
2075.77197265625	n/a	WORD	4251181	wordpools/wasnorm_wordpool_576.txt	LTP372	ltpFR2	4	9	LASER	801	n/a	n/a	0	0	0
2077.3876953125	n/a	START	4254490	n/a	LTP372	ltpFR2	4	n/a	n/a	n/a	14	n/a	n/a	n/a	n/a
2078.19384765625	n/a	DISTRACTOR	4256141	n/a	LTP372	ltpFR2	4	9	n/a	n/a	n/a	n/a	0	0	0
2078.20458984375	n/a	PROB	4256163	n/a	LTP372	ltpFR2	4	n/a	n/a	n/a	14	14	8	2	4
2080.66943359375	n/a	PROB	4261211	n/a	LTP372	ltpFR2	4	n/a	n/a	n/a	14	13	3	9	1
2081.76953125	n/a	PROB	4263464	n/a	LTP372	ltpFR2	4	n/a	n/a	n/a	14	20	9	7	4
2082.984375	n/a	PROB	4265952	n/a	LTP372	ltpFR2	4	n/a	n/a	n/a	14	14	5	5	4
2084.16845703125	n/a	PROB	4268377	n/a	LTP372	ltpFR2	4	n/a	n/a	n/a	14	21	9	3	9
2085.38330078125	n/a	PROB	4270865	n/a	LTP372	ltpFR2	4	n/a	n/a	n/a	14	9	4	2	3
2086.79931640625	n/a	PROB	4273765	n/a	LTP372	ltpFR2	4	n/a	n/a	n/a	14	26	9	8	9
2088.13330078125	n/a	PROB	4276497	n/a	LTP372	ltpFR2	4	n/a	n/a	n/a	14	10	4	2	4
2089.41552734375	n/a	PROB	4279123	n/a	LTP372	ltpFR2	4	n/a	n/a	n/a	14	23	9	5	9
2090.76416015625	n/a	PROB	4281885	n/a	LTP372	ltpFR2	4	n/a	n/a	n/a	14	19	4	6	9
2091.8134765625	n/a	PROB	4284034	n/a	LTP372	ltpFR2	4	n/a	n/a	n/a	14	22	8	5	9
2093.06298828125	n/a	PROB	4286593	n/a	LTP372	ltpFR2	4	n/a	n/a	n/a	14	14	5	3	6
2094.56201171875	n/a	PROB	4289663	n/a	LTP372	ltpFR2	4	n/a	n/a	n/a	14	12	4	3	5
2095.84521484375	n/a	PROB	4292291	n/a	LTP372	ltpFR2	4	n/a	n/a	n/a	14	11	2	4	5
2097.2451171875	n/a	PROB	4295158	n/a	LTP372	ltpFR2	4	n/a	n/a	n/a	14	22	5	8	9
2098.4111328125	n/a	PROB	4297546	n/a	LTP372	ltpFR2	4	n/a	n/a	n/a	14	15	3	9	3
2099.626953125	n/a	PROB	4300036	n/a	LTP372	ltpFR2	4	n/a	n/a	n/a	14	25	8	9	8
2101.13671875	n/a	STOP	4303128	n/a	LTP372	ltpFR2	4	n/a	n/a	n/a	14	n/a	n/a	n/a	n/a
2103.14306640625	n/a	REC_START	4307237	n/a	LTP372	ltpFR2	4	9	n/a	n/a	n/a	n/a	0	0	0
2104.052734375	n/a	REC_WORD	4309100	wordpools/wasnorm_wordpool_576.txt	LTP372	ltpFR2	4	9	SUSPECT	1415	n/a	n/a	0	0	0
2105.1806640625	n/a	REC_WORD	4311410	wordpools/wasnorm_wordpool_576.txt	LTP372	ltpFR2	4	9	TABLET	1427	n/a	n/a	0	0	0
2106.9228515625	n/a	REC_WORD	4314978	wordpools/wasnorm_wordpool_576.txt	LTP372	ltpFR2	4	9	LASER	801	n/a	n/a	0	0	0
2109.57470703125	n/a	REC_WORD	4320409	wordpools/wasnorm_wordpool_576.txt	LTP372	ltpFR2	4	9	BEAVER	109	n/a	n/a	0	0	0
2110.646484375	n/a	REC_WORD	4322604	wordpools/wasnorm_wordpool_576.txt	LTP372	ltpFR2	4	9	LADDER	793	n/a	n/a	0	0	0
2120.49560546875	n/a	REC_WORD	4342775	wordpools/wasnorm_wordpool_576.txt	LTP372	ltpFR2	4	9	THIEF	1456	n/a	n/a	0	0	0
2121.5693359375	n/a	REC_WORD	4344974	wordpools/wasnorm_wordpool_576.txt	LTP372	ltpFR2	4	9	MARINE	869	n/a	n/a	0	0	0
2126.93798828125	n/a	REC_WORD	4355969	wordpools/wasnorm_wordpool_576.txt	LTP372	ltpFR2	4	9	CANAL	226	n/a	n/a	0	0	0
2129.71630859375	n/a	REC_WORD	4361659	wordpools/wasnorm_wordpool_576.txt	LTP372	ltpFR2	4	9	HEART	697	n/a	n/a	0	0	0
2136.10498046875	n/a	REC_WORD	4374743	wordpools/wasnorm_wordpool_576.txt	LTP372	ltpFR2	4	9	FOOTBALL	591	n/a	n/a	0	0	0
2137.07763671875	n/a	REC_WORD	4376735	wordpools/wasnorm_wordpool_576.txt	LTP372	ltpFR2	4	9	SPOOL	1356	n/a	n/a	0	0	0
2138.99658203125	n/a	REC_WORD	4380665	wordpools/wasnorm_wordpool_576.txt	LTP372	ltpFR2	4	9	DRESS	495	n/a	n/a	0	0	0
2141.18994140625	n/a	REC_WORD	4385157	wordpools/wasnorm_wordpool_576.txt	LTP372	ltpFR2	4	9	VALLEY	1545	n/a	n/a	0	0	0
2142.1044921875	n/a	REC_WORD	4387030	wordpools/wasnorm_wordpool_576.txt	LTP372	ltpFR2	4	9	SUMMIT	1405	n/a	n/a	0	0	0
2144.19873046875	n/a	REC_WORD	4391319	wordpools/wasnorm_wordpool_576.txt	LTP372	ltpFR2	4	9	COBRA	336	n/a	n/a	0	0	0
2146.556640625	n/a	REC_WORD	4396148	wordpools/wasnorm_wordpool_576.txt	LTP372	ltpFR2	4	9	RADISH	1158	n/a	n/a	0	0	0
2167.35595703125	n/a	REC_WORD	4438745	wordpools/wasnorm_wordpool_576.txt	LTP372	ltpFR2	4	9	HOUND	724	n/a	n/a	0	0	0
2168.52880859375	n/a	REC_WORD	4441147	wordpools/wasnorm_wordpool_576.txt	LTP372	ltpFR2	4	9	CORAL	378	n/a	n/a	0	0	0
2172.43798828125	n/a	REC_WORD	4449153	wordpools/wasnorm_wordpool_576.txt	LTP372	ltpFR2	4	9	FOOT	590	n/a	n/a	0	0	0
2173.62255859375	n/a	REC_WORD	4451579	wordpools/wasnorm_wordpool_576.txt	LTP372	ltpFR2	4	9	PUDDLE	1140	n/a	n/a	0	0	0
2193.5810546875	n/a	DISTRACTOR	4492454	n/a	LTP372	ltpFR2	4	10	n/a	n/a	n/a	n/a	0	0	0
2193.5810546875	n/a	START	4492454	n/a	LTP372	ltpFR2	4	n/a	n/a	n/a	15	n/a	n/a	n/a	n/a
2193.59814453125	n/a	PROB	4492489	n/a	LTP372	ltpFR2	4	n/a	n/a	n/a	15	8	2	2	4
2195.546875	n/a	PROB	4496480	n/a	LTP372	ltpFR2	4	n/a	n/a	n/a	15	19	9	3	7
2196.89599609375	n/a	PROB	4499243	n/a	LTP372	ltpFR2	4	n/a	n/a	n/a	15	10	3	6	1
2198.09619140625	n/a	PROB	4501701	n/a	LTP372	ltpFR2	4	n/a	n/a	n/a	15	10	1	7	2
2199.36279296875	n/a	PROB	4504295	n/a	LTP372	ltpFR2	4	n/a	n/a	n/a	15	16	1	9	6
2200.7109375	n/a	PROB	4507056	n/a	LTP372	ltpFR2	4	n/a	n/a	n/a	15	9	4	4	1
2201.91064453125	n/a	PROB	4509513	n/a	LTP372	ltpFR2	4	n/a	n/a	n/a	15	16	9	2	5
2203.19384765625	n/a	PROB	4512141	n/a	LTP372	ltpFR2	4	n/a	n/a	n/a	15	18	5	7	6
2204.44287109375	n/a	PROB	4514699	n/a	LTP372	ltpFR2	4	n/a	n/a	n/a	15	13	6	5	2
2205.79150390625	n/a	PROB	4517461	n/a	LTP372	ltpFR2	4	n/a	n/a	n/a	15	13	4	5	4
2207.0576171875	n/a	PROB	4520054	n/a	LTP372	ltpFR2	4	n/a	n/a	n/a	15	20	7	5	8
2208.30859375	n/a	PROB	4522616	n/a	LTP372	ltpFR2	4	n/a	n/a	n/a	15	5	1	3	1
2209.390625	n/a	PROB	4524832	n/a	LTP372	ltpFR2	4	n/a	n/a	n/a	15	19	1	9	9
2211.48974609375	n/a	PROB	4529131	n/a	LTP372	ltpFR2	4	n/a	n/a	n/a	15	18	5	4	9
2212.7216796875	n/a	PROB	4531654	n/a	LTP372	ltpFR2	4	n/a	n/a	n/a	15	14	9	4	1
2214.021484375	n/a	PROB	4534316	n/a	LTP372	ltpFR2	4	n/a	n/a	n/a	15	23	8	6	9
2215.3056640625	n/a	PROB	4536946	n/a	LTP372	ltpFR2	4	n/a	n/a	n/a	15	11	4	4	3
2217.5205078125	n/a	STOP	4541482	n/a	LTP372	ltpFR2	4	n/a	n/a	n/a	15	n/a	n/a	n/a	n/a
2218.71923828125	n/a	WORD	4543937	wordpools/wasnorm_wordpool_576.txt	LTP372	ltpFR2	4	10	WAITER	1580	n/a	n/a	0	0	0
2221.38427734375	n/a	WORD	4549395	wordpools/wasnorm_wordpool_576.txt	LTP372	ltpFR2	4	10	PIGEON	1065	n/a	n/a	0	0	0
2224.06640625	n/a	WORD	4554888	wordpools/wasnorm_wordpool_576.txt	LTP372	ltpFR2	4	10	STAMP	1370	n/a	n/a	0	0	0
2226.63232421875	n/a	WORD	4560143	wordpools/wasnorm_wordpool_576.txt	LTP372	ltpFR2	4	10	LAGOON	795	n/a	n/a	0	0	0
2229.34814453125	n/a	WORD	4565705	wordpools/wasnorm_wordpool_576.txt	LTP372	ltpFR2	4	10	MARSH	874	n/a	n/a	0	0	0
2231.81298828125	n/a	WORD	4570753	wordpools/wasnorm_wordpool_576.txt	LTP372	ltpFR2	4	10	WORKER	1621	n/a	n/a	0	0	0
2234.27880859375	n/a	WORD	4575803	wordpools/wasnorm_wordpool_576.txt	LTP372	ltpFR2	4	10	DIVER	476	n/a	n/a	0	0	0
2237.09375	n/a	WORD	4581568	wordpools/wasnorm_wordpool_576.txt	LTP372	ltpFR2	4	10	SCOTCH	1251	n/a	n/a	0	0	0
2239.79248046875	n/a	WORD	4587095	wordpools/wasnorm_wordpool_576.txt	LTP372	ltpFR2	4	10	DUSTPAN	509	n/a	n/a	0	0	0
2242.45751953125	n/a	WORD	4592553	wordpools/wasnorm_wordpool_576.txt	LTP372	ltpFR2	4	10	DRINK	498	n/a	n/a	0	0	0
2245.12353515625	n/a	WORD	4598013	wordpools/wasnorm_wordpool_576.txt	LTP372	ltpFR2	4	10	BRANDY	169	n/a	n/a	0	0	0
2247.78857421875	n/a	WORD	4603471	wordpools/wasnorm_wordpool_576.txt	LTP372	ltpFR2	4	10	CYCLONE	431	n/a	n/a	0	0	0
2250.22119140625	n/a	WORD	4608453	wordpools/wasnorm_wordpool_576.txt	LTP372	ltpFR2	4	10	LETTUCE	814	n/a	n/a	0	0	0
2253.0361328125	n/a	WORD	4614218	wordpools/wasnorm_wordpool_576.txt	LTP372	ltpFR2	4	10	PERFUME	1049	n/a	n/a	0	0	0
2255.734375	n/a	WORD	4619744	wordpools/wasnorm_wordpool_576.txt	LTP372	ltpFR2	4	10	BEAKER	104	n/a	n/a	0	0	0
2258.5	n/a	WORD	4625408	wordpools/wasnorm_wordpool_576.txt	LTP372	ltpFR2	4	10	LABEL	790	n/a	n/a	0	0	0
2261.2158203125	n/a	WORD	4630970	wordpools/wasnorm_wordpool_576.txt	LTP372	ltpFR2	4	10	OYSTER	995	n/a	n/a	0	0	0
2263.9140625	n/a	WORD	4636496	wordpools/wasnorm_wordpool_576.txt	LTP372	ltpFR2	4	10	BOYFRIEND	162	n/a	n/a	0	0	0
2266.47900390625	n/a	WORD	4641749	wordpools/wasnorm_wordpool_576.txt	LTP372	ltpFR2	4	10	CABBAGE	210	n/a	n/a	0	0	0
2269.19580078125	n/a	WORD	4647313	wordpools/wasnorm_wordpool_576.txt	LTP372	ltpFR2	4	10	ATOM	55	n/a	n/a	0	0	0
2271.8935546875	n/a	WORD	4652838	wordpools/wasnorm_wordpool_576.txt	LTP372	ltpFR2	4	10	PASTRY	1022	n/a	n/a	0	0	0
2274.3427734375	n/a	WORD	4657854	wordpools/wasnorm_wordpool_576.txt	LTP372	ltpFR2	4	10	MOP	916	n/a	n/a	0	0	0
2277.1416015625	n/a	WORD	4663586	wordpools/wasnorm_wordpool_576.txt	LTP372	ltpFR2	4	10	BREAST	171	n/a	n/a	0	0	0
2279.7392578125	n/a	WORD	4668906	wordpools/wasnorm_wordpool_576.txt	LTP372	ltpFR2	4	10	SEAFOOD	1260	n/a	n/a	0	0	0
2281.3564453125	n/a	START	4672218	n/a	LTP372	ltpFR2	4	n/a	n/a	n/a	16	n/a	n/a	n/a	n/a
2282.3583984375	n/a	DISTRACTOR	4674270	n/a	LTP372	ltpFR2	4	10	n/a	n/a	n/a	n/a	0	0	0
2282.37158203125	n/a	PROB	4674297	n/a	LTP372	ltpFR2	4	n/a	n/a	n/a	16	9	4	4	1
2284.3701171875	n/a	PROB	4678390	n/a	LTP372	ltpFR2	4	n/a	n/a	n/a	16	16	9	4	3
2285.5205078125	n/a	PROB	4680746	n/a	LTP372	ltpFR2	4	n/a	n/a	n/a	16	18	8	7	3
2286.80322265625	n/a	PROB	4683373	n/a	LTP372	ltpFR2	4	n/a	n/a	n/a	16	12	1	6	5
2287.9853515625	n/a	PROB	4685794	n/a	LTP372	ltpFR2	4	n/a	n/a	n/a	16	17	8	7	2
2289.6513671875	n/a	PROB	4689206	n/a	LTP372	ltpFR2	4	n/a	n/a	n/a	16	16	9	5	2
2291.0341796875	n/a	PROB	4692038	n/a	LTP372	ltpFR2	4	n/a	n/a	n/a	16	22	8	5	9
2292.2841796875	n/a	PROB	4694598	n/a	LTP372	ltpFR2	4	n/a	n/a	n/a	16	20	4	7	9
2293.5830078125	n/a	PROB	4697258	n/a	LTP372	ltpFR2	4	n/a	n/a	n/a	16	9	6	1	2
2294.86474609375	n/a	PROB	4699883	n/a	LTP372	ltpFR2	4	n/a	n/a	n/a	16	22	8	6	8
2296.18310546875	n/a	PROB	4702583	n/a	LTP372	ltpFR2	4	n/a	n/a	n/a	16	9	4	1	4
2297.44775390625	n/a	PROB	4705173	n/a	LTP372	ltpFR2	4	n/a	n/a	n/a	16	16	2	5	9
2298.77978515625	n/a	PROB	4707901	n/a	LTP372	ltpFR2	4	n/a	n/a	n/a	16	19	9	2	8
2300.14697265625	n/a	PROB	4710701	n/a	LTP372	ltpFR2	4	n/a	n/a	n/a	16	20	4	9	7
2301.39599609375	n/a	PROB	4713259	n/a	LTP372	ltpFR2	4	n/a	n/a	n/a	16	20	6	9	5
2303.44482421875	n/a	PROB	4717455	n/a	LTP372	ltpFR2	4	n/a	n/a	n/a	16	21	9	5	7
2304.8154296875	n/a	STOP	4720262	n/a	LTP372	ltpFR2	4	n/a	n/a	n/a	16	n/a	n/a	n/a	n/a
2307.11181640625	n/a	REC_START	4724965	n/a	LTP372	ltpFR2	4	10	n/a	n/a	n/a	n/a	0	0	0
2308.345703125	n/a	REC_WORD	4727492	wordpools/wasnorm_wordpool_576.txt	LTP372	ltpFR2	4	10	MOP	916	n/a	n/a	0	0	0
2309.40576171875	n/a	REC_WORD	4729663	wordpools/wasnorm_wordpool_576.txt	LTP372	ltpFR2	4	10	BREAST	171	n/a	n/a	0	0	0
2310.177734375	n/a	REC_WORD	4731244	wordpools/wasnorm_wordpool_576.txt	LTP372	ltpFR2	4	10	SEAFOOD	1260	n/a	n/a	0	0	0
2313.21435546875	n/a	REC_WORD	4737463	wordpools/wasnorm_wordpool_576.txt	LTP372	ltpFR2	4	10	WAITER	1580	n/a	n/a	0	0	0
2314.21533203125	n/a	REC_WORD	4739513	wordpools/wasnorm_wordpool_576.txt	LTP372	ltpFR2	4	10	PIGEON	1065	n/a	n/a	0	0	0
2317.6083984375	n/a	REC_WORD	4746462	wordpools/wasnorm_wordpool_576.txt	LTP372	ltpFR2	4	10	CYCLONE	431	n/a	n/a	0	0	0
2318.97021484375	n/a	REC_WORD	4749251	wordpools/wasnorm_wordpool_576.txt	LTP372	ltpFR2	4	10	LETTUCE	814	n/a	n/a	0	0	0
2321.55517578125	n/a	REC_WORD	4754545	wordpools/wasnorm_wordpool_576.txt	LTP372	ltpFR2	4	10	DUSTPAN	509	n/a	n/a	0	0	0
2323.3271484375	n/a	REC_WORD	4758174	wordpools/wasnorm_wordpool_576.txt	LTP372	ltpFR2	4	10	DRINK	498	n/a	n/a	0	0	0
2325.291015625	n/a	REC_WORD	4762196	wordpools/wasnorm_wordpool_576.txt	LTP372	ltpFR2	4	10	BRANDY	169	n/a	n/a	0	0	0
2329.39501953125	n/a	REC_WORD	4770601	wordpools/wasnorm_wordpool_576.txt	LTP372	ltpFR2	4	10	WORKER	1621	n/a	n/a	0	0	0
2330.48974609375	n/a	REC_WORD	4772843	wordpools/wasnorm_wordpool_576.txt	LTP372	ltpFR2	4	10	DIVER	476	n/a	n/a	0	0	0
2332.625	n/a	REC_WORD	4777216	wordpools/wasnorm_wordpool_576.txt	LTP372	ltpFR2	4	10	SCOTCH	1251	n/a	n/a	0	0	0
2336.1396484375	n/a	REC_WORD	4784414	wordpools/wasnorm_wordpool_576.txt	LTP372	ltpFR2	4	10	LAGOON	795	n/a	n/a	0	0	0
2337.29052734375	n/a	REC_WORD	4786771	wordpools/wasnorm_wordpool_576.txt	LTP372	ltpFR2	4	10	MARSH	874	n/a	n/a	0	0	0
2358.7880859375	n/a	REC_WORD	4830798	wordpools/wasnorm_wordpool_576.txt	LTP372	ltpFR2	4	10	CABBAGE	210	n/a	n/a	0	0	0
2363.57177734375	n/a	REC_WORD	4840595	wordpools/wasnorm_wordpool_576.txt	LTP372	ltpFR2	4	10	BOYFRIEND	162	n/a	n/a	0	0	0
2397.548828125	n/a	DISTRACTOR	4910180	n/a	LTP372	ltpFR2	4	11	n/a	n/a	n/a	n/a	0	0	0
2397.5498046875	n/a	START	4910182	n/a	LTP372	ltpFR2	4	n/a	n/a	n/a	17	n/a	n/a	n/a	n/a
2397.56591796875	n/a	PROB	4910215	n/a	LTP372	ltpFR2	4	n/a	n/a	n/a	17	15	4	3	8
2399.36474609375	n/a	PROB	4913899	n/a	LTP372	ltpFR2	4	n/a	n/a	n/a	17	6	2	2	2
2400.48095703125	n/a	PROB	4916185	n/a	LTP372	ltpFR2	4	n/a	n/a	n/a	17	16	5	8	3
2401.74658203125	n/a	PROB	4918777	n/a	LTP372	ltpFR2	4	n/a	n/a	n/a	17	10	6	2	2
2403.24755859375	n/a	PROB	4921851	n/a	LTP372	ltpFR2	4	n/a	n/a	n/a	17	11	1	9	1
2404.3955078125	n/a	PROB	4924202	n/a	LTP372	ltpFR2	4	n/a	n/a	n/a	17	13	2	4	7
2405.76171875	n/a	PROB	4927000	n/a	LTP372	ltpFR2	4	n/a	n/a	n/a	17	17	6	4	7
2407.01171875	n/a	PROB	4929560	n/a	LTP372	ltpFR2	4	n/a	n/a	n/a	17	12	6	2	4
2408.3115234375	n/a	PROB	4932222	n/a	LTP372	ltpFR2	4	n/a	n/a	n/a	17	12	5	3	4
2409.41064453125	n/a	PROB	4934473	n/a	LTP372	ltpFR2	4	n/a	n/a	n/a	17	20	8	3	9
2410.8095703125	n/a	PROB	4937338	n/a	LTP372	ltpFR2	4	n/a	n/a	n/a	17	18	6	8	4
2412.109375	n/a	PROB	4940000	n/a	LTP372	ltpFR2	4	n/a	n/a	n/a	17	7	1	4	2
2413.39111328125	n/a	PROB	4942625	n/a	LTP372	ltpFR2	4	n/a	n/a	n/a	17	9	2	4	3
2414.607421875	n/a	PROB	4945116	n/a	LTP372	ltpFR2	4	n/a	n/a	n/a	17	14	7	5	2
2415.95703125	n/a	PROB	4947880	n/a	LTP372	ltpFR2	4	n/a	n/a	n/a	17	16	9	4	3
2417.20703125	n/a	PROB	4950440	n/a	LTP372	ltpFR2	4	n/a	n/a	n/a	17	20	7	8	5
2418.47216796875	n/a	PROB	4953031	n/a	LTP372	ltpFR2	4	n/a	n/a	n/a	17	10	1	7	2
2420.47216796875	n/a	STOP	4957127	n/a	LTP372	ltpFR2	4	n/a	n/a	n/a	17	n/a	n/a	n/a	n/a
2422.537109375	n/a	WORD	4961356	wordpools/wasnorm_wordpool_576.txt	LTP372	ltpFR2	4	11	WAGON	1578	n/a	n/a	0	0	0
2424.96875	n/a	WORD	4966336	wordpools/wasnorm_wordpool_576.txt	LTP372	ltpFR2	4	11	PLIERS	1089	n/a	n/a	0	0	0
2427.5849609375	n/a	WORD	4971694	wordpools/wasnorm_wordpool_576.txt	LTP372	ltpFR2	4	11	ORCHID	982	n/a	n/a	0	0	0
2430.28369140625	n/a	WORD	4977221	wordpools/wasnorm_wordpool_576.txt	LTP372	ltpFR2	4	11	CONTRACT	368	n/a	n/a	0	0	0
2432.99853515625	n/a	WORD	4982781	wordpools/wasnorm_wordpool_576.txt	LTP372	ltpFR2	4	11	DRESSER	496	n/a	n/a	0	0	0
2435.61376953125	n/a	WORD	4988137	wordpools/wasnorm_wordpool_576.txt	LTP372	ltpFR2	4	11	BASEMENT	94	n/a	n/a	0	0	0
2438.04638671875	n/a	WORD	4993119	wordpools/wasnorm_wordpool_576.txt	LTP372	ltpFR2	4	11	SURVEY	1414	n/a	n/a	0	0	0
2440.6787109375	n/a	WORD	4998510	wordpools/wasnorm_wordpool_576.txt	LTP372	ltpFR2	4	11	FLUTE	585	n/a	n/a	0	0	0
2443.46044921875	n/a	WORD	5004207	wordpools/wasnorm_wordpool_576.txt	LTP372	ltpFR2	4	11	CRAB	397	n/a	n/a	0	0	0
2446.09228515625	n/a	WORD	5009597	wordpools/wasnorm_wordpool_576.txt	LTP372	ltpFR2	4	11	SCALLOP	1242	n/a	n/a	0	0	0
2448.7744140625	n/a	WORD	5015090	wordpools/wasnorm_wordpool_576.txt	LTP372	ltpFR2	4	11	WITNESS	1618	n/a	n/a	0	0	0
2451.4560546875	n/a	WORD	5020582	wordpools/wasnorm_wordpool_576.txt	LTP372	ltpFR2	4	11	CHEMIST	292	n/a	n/a	0	0	0
2453.93798828125	n/a	WORD	5025665	wordpools/wasnorm_wordpool_576.txt	LTP372	ltpFR2	4	11	TAXI	1438	n/a	n/a	0	0	0
2456.5869140625	n/a	WORD	5031090	wordpools/wasnorm_wordpool_576.txt	LTP372	ltpFR2	4	11	GAZELLE	628	n/a	n/a	0	0	0
2459.0361328125	n/a	WORD	5036106	wordpools/wasnorm_wordpool_576.txt	LTP372	ltpFR2	4	11	BEAST	108	n/a	n/a	0	0	0
2461.501953125	n/a	WORD	5041156	wordpools/wasnorm_wordpool_576.txt	LTP372	ltpFR2	4	11	HIKER	708	n/a	n/a	0	0	0
2464.134765625	n/a	WORD	5046548	wordpools/wasnorm_wordpool_576.txt	LTP372	ltpFR2	4	11	KNAPSACK	783	n/a	n/a	0	0	0
2466.765625	n/a	WORD	5051936	wordpools/wasnorm_wordpool_576.txt	LTP372	ltpFR2	4	11	GHETTO	633	n/a	n/a	0	0	0
2469.53076171875	n/a	WORD	5057599	wordpools/wasnorm_wordpool_576.txt	LTP372	ltpFR2	4	11	PEDAL	1037	n/a	n/a	0	0	0
2472.1474609375	n/a	WORD	5062958	wordpools/wasnorm_wordpool_576.txt	LTP372	ltpFR2	4	11	TRIBE	1505	n/a	n/a	0	0	0
2474.91162109375	n/a	WORD	5068619	wordpools/wasnorm_wordpool_576.txt	LTP372	ltpFR2	4	11	APPLE	33	n/a	n/a	0	0	0
2477.693359375	n/a	WORD	5074316	wordpools/wasnorm_wordpool_576.txt	LTP372	ltpFR2	4	11	TEACHER	1440	n/a	n/a	0	0	0
2480.4423828125	n/a	WORD	5079946	wordpools/wasnorm_wordpool_576.txt	LTP372	ltpFR2	4	11	GAVEL	627	n/a	n/a	0	0	0
2483.2080078125	n/a	WORD	5085610	wordpools/wasnorm_wordpool_576.txt	LTP372	ltpFR2	4	11	DONOR	485	n/a	n/a	0	0	0
2484.82421875	n/a	START	5088920	n/a	LTP372	ltpFR2	4	n/a	n/a	n/a	18	n/a	n/a	n/a	n/a
2485.72412109375	n/a	DISTRACTOR	5090763	n/a	LTP372	ltpFR2	4	11	n/a	n/a	n/a	n/a	0	0	0
2485.740234375	n/a	PROB	5090796	n/a	LTP372	ltpFR2	4	n/a	n/a	n/a	18	11	7	3	1
2487.6220703125	n/a	PROB	5094650	n/a	LTP372	ltpFR2	4	n/a	n/a	n/a	18	10	2	5	3
2488.8720703125	n/a	PROB	5097210	n/a	LTP372	ltpFR2	4	n/a	n/a	n/a	18	7	1	1	5
2490.07080078125	n/a	PROB	5099665	n/a	LTP372	ltpFR2	4	n/a	n/a	n/a	18	19	8	4	7
2491.35498046875	n/a	PROB	5102295	n/a	LTP372	ltpFR2	4	n/a	n/a	n/a	18	19	7	3	9
2492.5869140625	n/a	PROB	5104818	n/a	LTP372	ltpFR2	4	n/a	n/a	n/a	18	8	1	1	6
2493.7529296875	n/a	PROB	5107206	n/a	LTP372	ltpFR2	4	n/a	n/a	n/a	18	16	6	5	5
2495.767578125	n/a	PROB	5111332	n/a	LTP372	ltpFR2	4	n/a	n/a	n/a	18	18	8	8	2
2497.6337890625	n/a	PROB	5115154	n/a	LTP372	ltpFR2	4	n/a	n/a	n/a	18	19	3	8	8
2499.267578125	n/a	PROB	5118500	n/a	LTP372	ltpFR2	4	n/a	n/a	n/a	18	12	9	1	2
2500.3505859375	n/a	PROB	5120718	n/a	LTP372	ltpFR2	4	n/a	n/a	n/a	18	17	6	3	8
2501.78173828125	n/a	PROB	5123649	n/a	LTP372	ltpFR2	4	n/a	n/a	n/a	18	13	5	1	7
2503.09765625	n/a	PROB	5126344	n/a	LTP372	ltpFR2	4	n/a	n/a	n/a	18	12	3	5	4
2504.38037109375	n/a	PROB	5128971	n/a	LTP372	ltpFR2	4	n/a	n/a	n/a	18	21	8	6	7
2505.6962890625	n/a	PROB	5131666	n/a	LTP372	ltpFR2	4	n/a	n/a	n/a	18	16	1	7	8
2507.11328125	n/a	PROB	5134568	n/a	LTP372	ltpFR2	4	n/a	n/a	n/a	18	10	5	4	1
2508.45556640625	n/a	STOP	5137317	n/a	LTP372	ltpFR2	4	n/a	n/a	n/a	18	n/a	n/a	n/a	n/a
2510.71142578125	n/a	REC_START	5141937	n/a	LTP372	ltpFR2	4	11	n/a	n/a	n/a	n/a	0	0	0
2512.66015625	n/a	REC_WORD	5145928	wordpools/wasnorm_wordpool_576.txt	LTP372	ltpFR2	4	11	GAVEL	627	n/a	n/a	0	0	0
2513.576171875	n/a	REC_WORD	5147804	wordpools/wasnorm_wordpool_576.txt	LTP372	ltpFR2	4	11	DONOR	485	n/a	n/a	0	0	0
2514.92919921875	n/a	REC_WORD	5150575	wordpools/wasnorm_wordpool_576.txt	LTP372	ltpFR2	4	11	TRIBE	1505	n/a	n/a	0	0	0
2517.13330078125	n/a	REC_WORD	5155089	wordpools/wasnorm_wordpool_576.txt	LTP372	ltpFR2	4	11	APPLE	33	n/a	n/a	0	0	0
2518.453125	n/a	REC_WORD	5157792	wordpools/wasnorm_wordpool_576.txt	LTP372	ltpFR2	4	11	TEACHER	1440	n/a	n/a	0	0	0
2521.72607421875	n/a	REC_WORD	5164495	wordpools/wasnorm_wordpool_576.txt	LTP372	ltpFR2	4	11	TAXI	1438	n/a	n/a	0	0	0
2523.48486328125	n/a	REC_WORD	5168097	wordpools/wasnorm_wordpool_576.txt	LTP372	ltpFR2	4	11	CHEMIST	292	n/a	n/a	0	0	0
2526.2509765625	n/a	REC_WORD	5173762	wordpools/wasnorm_wordpool_576.txt	LTP372	ltpFR2	4	11	HIKER	708	n/a	n/a	0	0	0
2528.263671875	n/a	REC_WORD	5177884	wordpools/wasnorm_wordpool_576.txt	LTP372	ltpFR2	4	11	KNAPSACK	783	n/a	n/a	0	0	0
2533.4326171875	n/a	REC_WORD	5188470	wordpools/wasnorm_wordpool_576.txt	LTP372	ltpFR2	4	11	GAZELLE	628	n/a	n/a	0	0	0
2534.65380859375	n/a	REC_WORD	5190971	wordpools/wasnorm_wordpool_576.txt	LTP372	ltpFR2	4	11	BEAST	108	n/a	n/a	0	0	0
2558.24462890625	n/a	REC_WORD	5239285	wordpools/wasnorm_wordpool_576.txt	LTP372	ltpFR2	4	11	WAGON	1578	n/a	n/a	0	0	0
2559.5	n/a	REC_WORD	5241856	wordpools/wasnorm_wordpool_576.txt	LTP372	ltpFR2	4	11	PLIERS	1089	n/a	n/a	0	0	0
2562.07861328125	n/a	REC_WORD	5247137	wordpools/wasnorm_wordpool_576.txt	LTP372	ltpFR2	4	11	ORCHID	982	n/a	n/a	0	0	0
2563.82373046875	n/a	REC_WORD	5250711	wordpools/wasnorm_wordpool_576.txt	LTP372	ltpFR2	4	11	DRESSER	496	n/a	n/a	0	0	0
2566.01171875	n/a	REC_WORD	5255192	wordpools/wasnorm_wordpool_576.txt	LTP372	ltpFR2	4	11	BASEMENT	94	n/a	n/a	0	0	0
2567.91064453125	n/a	REC_WORD	5259081	wordpools/wasnorm_wordpool_576.txt	LTP372	ltpFR2	4	11	SURVEY	1414	n/a	n/a	0	0	0
2570.3994140625	n/a	REC_WORD	5264178	wordpools/wasnorm_wordpool_576.txt	LTP372	ltpFR2	4	11	FLUTE	585	n/a	n/a	0	0	0
2571.6123046875	n/a	REC_WORD	5266662	wordpools/wasnorm_wordpool_576.txt	LTP372	ltpFR2	4	11	CRAB	397	n/a	n/a	0	0	0
2572.46630859375	n/a	REC_WORD	5268411	wordpools/wasnorm_wordpool_576.txt	LTP372	ltpFR2	4	11	SCALLOP	1242	n/a	n/a	0	0	0
2601.13427734375	n/a	DISTRACTOR	5327123	n/a	LTP372	ltpFR2	4	12	n/a	n/a	n/a	n/a	0	0	0
2601.13427734375	n/a	START	5327123	n/a	LTP372	ltpFR2	4	n/a	n/a	n/a	19	n/a	n/a	n/a	n/a
2601.1513671875	n/a	PROB	5327158	n/a	LTP372	ltpFR2	4	n/a	n/a	n/a	19	14	3	2	9
2603.099609375	n/a	PROB	5331148	n/a	LTP372	ltpFR2	4	n/a	n/a	n/a	19	10	1	8	1
2604.33349609375	n/a	PROB	5333675	n/a	LTP372	ltpFR2	4	n/a	n/a	n/a	19	11	4	4	3
2605.6142578125	n/a	PROB	5336298	n/a	LTP372	ltpFR2	4	n/a	n/a	n/a	19	15	2	5	8
2606.84716796875	n/a	PROB	5338823	n/a	LTP372	ltpFR2	4	n/a	n/a	n/a	19	9	1	1	7
2607.93017578125	n/a	PROB	5341041	n/a	LTP372	ltpFR2	4	n/a	n/a	n/a	19	14	9	1	4
2609.2470703125	n/a	PROB	5343738	n/a	LTP372	ltpFR2	4	n/a	n/a	n/a	19	16	2	7	7
2610.51220703125	n/a	PROB	5346329	n/a	LTP372	ltpFR2	4	n/a	n/a	n/a	19	21	9	4	8
2611.828125	n/a	PROB	5349024	n/a	LTP372	ltpFR2	4	n/a	n/a	n/a	19	25	8	9	8
2613.294921875	n/a	PROB	5352028	n/a	LTP372	ltpFR2	4	n/a	n/a	n/a	19	16	8	5	3
2615.19384765625	n/a	PROB	5355917	n/a	LTP372	ltpFR2	4	n/a	n/a	n/a	19	21	8	6	7
2616.39306640625	n/a	PROB	5358373	n/a	LTP372	ltpFR2	4	n/a	n/a	n/a	19	14	7	1	6
2617.69189453125	n/a	PROB	5361033	n/a	LTP372	ltpFR2	4	n/a	n/a	n/a	19	23	9	5	9
2618.9580078125	n/a	PROB	5363626	n/a	LTP372	ltpFR2	4	n/a	n/a	n/a	19	13	1	5	7
2620.47412109375	n/a	PROB	5366731	n/a	LTP372	ltpFR2	4	n/a	n/a	n/a	19	10	5	2	3
2621.673828125	n/a	PROB	5369188	n/a	LTP372	ltpFR2	4	n/a	n/a	n/a	19	20	6	7	7
2623.08984375	n/a	PROB	5372088	n/a	LTP372	ltpFR2	4	n/a	n/a	n/a	19	25	9	8	8
2624.40771484375	n/a	STOP	5374787	n/a	LTP372	ltpFR2	4	n/a	n/a	n/a	19	n/a	n/a	n/a	n/a
2626.03857421875	n/a	WORD	5378127	wordpools/wasnorm_wordpool_576.txt	LTP372	ltpFR2	4	12	CAFE	216	n/a	n/a	0	0	0
2628.53662109375	n/a	WORD	5383243	wordpools/wasnorm_wordpool_576.txt	LTP372	ltpFR2	4	12	FLAG	573	n/a	n/a	0	0	0
2631.15380859375	n/a	WORD	5388603	wordpools/wasnorm_wordpool_576.txt	LTP372	ltpFR2	4	12	BRACES	164	n/a	n/a	0	0	0
2633.86767578125	n/a	WORD	5394161	wordpools/wasnorm_wordpool_576.txt	LTP372	ltpFR2	4	12	DENTIST	447	n/a	n/a	0	0	0
2636.56640625	n/a	WORD	5399688	wordpools/wasnorm_wordpool_576.txt	LTP372	ltpFR2	4	12	WHISTLE	1606	n/a	n/a	0	0	0
2639.33251953125	n/a	WORD	5405353	wordpools/wasnorm_wordpool_576.txt	LTP372	ltpFR2	4	12	GROUND	666	n/a	n/a	0	0	0
2641.947265625	n/a	WORD	5410708	wordpools/wasnorm_wordpool_576.txt	LTP372	ltpFR2	4	12	POSTAGE	1113	n/a	n/a	0	0	0
2644.4130859375	n/a	WORD	5415758	wordpools/wasnorm_wordpool_576.txt	LTP372	ltpFR2	4	12	ASIA	46	n/a	n/a	0	0	0
2647.162109375	n/a	WORD	5421388	wordpools/wasnorm_wordpool_576.txt	LTP372	ltpFR2	4	12	GRAVE	658	n/a	n/a	0	0	0
2649.66015625	n/a	WORD	5426504	wordpools/wasnorm_wordpool_576.txt	LTP372	ltpFR2	4	12	VICTIM	1562	n/a	n/a	0	0	0
2652.16015625	n/a	WORD	5431624	wordpools/wasnorm_wordpool_576.txt	LTP372	ltpFR2	4	12	COURSE	390	n/a	n/a	0	0	0
2654.9736328125	n/a	WORD	5437386	wordpools/wasnorm_wordpool_576.txt	LTP372	ltpFR2	4	12	DRUG	501	n/a	n/a	0	0	0
2657.4228515625	n/a	WORD	5442402	wordpools/wasnorm_wordpool_576.txt	LTP372	ltpFR2	4	12	STONE	1385	n/a	n/a	0	0	0
2660.03857421875	n/a	WORD	5447759	wordpools/wasnorm_wordpool_576.txt	LTP372	ltpFR2	4	12	PAPER	1011	n/a	n/a	0	0	0
2662.7705078125	n/a	WORD	5453354	wordpools/wasnorm_wordpool_576.txt	LTP372	ltpFR2	4	12	CUPBOARD	425	n/a	n/a	0	0	0
2665.2705078125	n/a	WORD	5458474	wordpools/wasnorm_wordpool_576.txt	LTP372	ltpFR2	4	12	SCISSORS	1250	n/a	n/a	0	0	0
2667.75146484375	n/a	WORD	5463555	wordpools/wasnorm_wordpool_576.txt	LTP372	ltpFR2	4	12	SMOG	1330	n/a	n/a	0	0	0
2670.2841796875	n/a	WORD	5468742	wordpools/wasnorm_wordpool_576.txt	LTP372	ltpFR2	4	12	GRAVEL	659	n/a	n/a	0	0	0
2672.88232421875	n/a	WORD	5474063	wordpools/wasnorm_wordpool_576.txt	LTP372	ltpFR2	4	12	MACHINE	852	n/a	n/a	0	0	0
2675.43115234375	n/a	WORD	5479283	wordpools/wasnorm_wordpool_576.txt	LTP372	ltpFR2	4	12	WASHER	1592	n/a	n/a	0	0	0
2677.9130859375	n/a	WORD	5484366	wordpools/wasnorm_wordpool_576.txt	LTP372	ltpFR2	4	12	ROBOT	1200	n/a	n/a	0	0	0
2680.69482421875	n/a	WORD	5490063	wordpools/wasnorm_wordpool_576.txt	LTP372	ltpFR2	4	12	PENGUIN	1044	n/a	n/a	0	0	0
2683.2119140625	n/a	WORD	5495218	wordpools/wasnorm_wordpool_576.txt	LTP372	ltpFR2	4	12	PUPPY	1144	n/a	n/a	0	0	0
2685.79296875	n/a	WORD	5500504	wordpools/wasnorm_wordpool_576.txt	LTP372	ltpFR2	4	12	GLOVE	642	n/a	n/a	0	0	0
2687.40869140625	n/a	START	5503813	n/a	LTP372	ltpFR2	4	n/a	n/a	n/a	20	n/a	n/a	n/a	n/a
2688.49658203125	n/a	DISTRACTOR	5506041	n/a	LTP372	ltpFR2	4	12	n/a	n/a	n/a	n/a	0	0	0
2688.5078125	n/a	PROB	5506064	n/a	LTP372	ltpFR2	4	n/a	n/a	n/a	20	18	6	7	5
2690.27490234375	n/a	PROB	5509683	n/a	LTP372	ltpFR2	4	n/a	n/a	n/a	20	12	7	3	2
2691.47265625	n/a	PROB	5512136	n/a	LTP372	ltpFR2	4	n/a	n/a	n/a	20	23	5	9	9
2692.85546875	n/a	PROB	5514968	n/a	LTP372	ltpFR2	4	n/a	n/a	n/a	20	14	5	2	7
2694.15673828125	n/a	PROB	5517633	n/a	LTP372	ltpFR2	4	n/a	n/a	n/a	20	12	2	1	9
2695.3876953125	n/a	PROB	5520154	n/a	LTP372	ltpFR2	4	n/a	n/a	n/a	20	21	7	5	9
2696.720703125	n/a	PROB	5522884	n/a	LTP372	ltpFR2	4	n/a	n/a	n/a	20	14	7	3	4
2698.1875	n/a	PROB	5525888	n/a	LTP372	ltpFR2	4	n/a	n/a	n/a	20	18	7	7	4
2699.4365234375	n/a	PROB	5528446	n/a	LTP372	ltpFR2	4	n/a	n/a	n/a	20	14	5	4	5
2700.818359375	n/a	PROB	5531276	n/a	LTP372	ltpFR2	4	n/a	n/a	n/a	20	12	2	2	8
2702.0341796875	n/a	PROB	5533766	n/a	LTP372	ltpFR2	4	n/a	n/a	n/a	20	16	7	4	5
2703.33544921875	n/a	PROB	5536431	n/a	LTP372	ltpFR2	4	n/a	n/a	n/a	20	20	8	3	9
2704.650390625	n/a	PROB	5539124	n/a	LTP372	ltpFR2	4	n/a	n/a	n/a	20	11	5	4	2
2706.88232421875	n/a	PROB	5543695	n/a	LTP372	ltpFR2	4	n/a	n/a	n/a	20	21	5	7	9
2708.53125	n/a	PROB	5547072	n/a	LTP372	ltpFR2	4	n/a	n/a	n/a	20	12	3	7	2
2709.8310546875	n/a	PROB	5549734	n/a	LTP372	ltpFR2	4	n/a	n/a	n/a	20	8	5	2	1
2711.0869140625	n/a	STOP	5552306	n/a	LTP372	ltpFR2	4	n/a	n/a	n/a	20	n/a	n/a	n/a	n/a
2713.31396484375	n/a	REC_START	5556867	n/a	LTP372	ltpFR2	4	12	n/a	n/a	n/a	n/a	0	0	0
2714.30517578125	n/a	REC_WORD	5558897	wordpools/wasnorm_wordpool_576.txt	LTP372	ltpFR2	4	12	CAFE	216	n/a	n/a	0	0	0
2716.201171875	n/a	REC_WORD	5562780	wordpools/wasnorm_wordpool_576.txt	LTP372	ltpFR2	4	12	FLAG	573	n/a	n/a	0	0	0
2718.1689453125	n/a	REC_WORD	5566810	wordpools/wasnorm_wordpool_576.txt	LTP372	ltpFR2	4	12	BRACES	164	n/a	n/a	0	0	0
2719.47900390625	n/a	REC_WORD	5569493	wordpools/wasnorm_wordpool_576.txt	LTP372	ltpFR2	4	12	DENTIST	447	n/a	n/a	0	0	0
2723.27880859375	n/a	REC_WORD	5577275	wordpools/wasnorm_wordpool_576.txt	LTP372	ltpFR2	4	12	GROUND	666	n/a	n/a	0	0	0
2727.65673828125	n/a	REC_WORD	5586241	wordpools/wasnorm_wordpool_576.txt	LTP372	ltpFR2	4	12	GRAVE	658	n/a	n/a	0	0	0
2728.99365234375	n/a	REC_WORD	5588979	wordpools/wasnorm_wordpool_576.txt	LTP372	ltpFR2	4	12	VICTIM	1562	n/a	n/a	0	0	0
2733.17919921875	n/a	REC_WORD	5597551	wordpools/wasnorm_wordpool_576.txt	LTP372	ltpFR2	4	12	MACHINE	852	n/a	n/a	0	0	0
2734.96826171875	n/a	REC_WORD	5601215	wordpools/wasnorm_wordpool_576.txt	LTP372	ltpFR2	4	12	WASHER	1592	n/a	n/a	0	0	0
2736.9052734375	n/a	REC_WORD	5605182	wordpools/wasnorm_wordpool_576.txt	LTP372	ltpFR2	4	12	ROBOT	1200	n/a	n/a	0	0	0
2737.96337890625	n/a	REC_WORD	5607349	wordpools/wasnorm_wordpool_576.txt	LTP372	ltpFR2	4	12	PENGUIN	1044	n/a	n/a	0	0	0
2739.25048828125	n/a	REC_WORD	5609985	wordpools/wasnorm_wordpool_576.txt	LTP372	ltpFR2	4	12	PUPPY	1144	n/a	n/a	0	0	0
2741.06103515625	n/a	REC_WORD	5613693	wordpools/wasnorm_wordpool_576.txt	LTP372	ltpFR2	4	12	GLOVE	642	n/a	n/a	0	0	0
2746.12890625	n/a	REC_WORD	5624072	wordpools/wasnorm_wordpool_576.txt	LTP372	ltpFR2	4	12	CUPBOARD	425	n/a	n/a	0	0	0
2747.08203125	n/a	REC_WORD	5626024	wordpools/wasnorm_wordpool_576.txt	LTP372	ltpFR2	4	12	SCISSORS	1250	n/a	n/a	0	0	0
2753.16796875	n/a	REC_WORD	5638488	wordpools/wasnorm_wordpool_576.txt	LTP372	ltpFR2	4	12	GRAVE	658	n/a	n/a	0	0	0
2757.75244140625	n/a	REC_WORD	5647877	wordpools/wasnorm_wordpool_576.txt	LTP372	ltpFR2	4	12	COURSE	390	n/a	n/a	0	0	0
2759.87255859375	n/a	REC_WORD	5652219	wordpools/wasnorm_wordpool_576.txt	LTP372	ltpFR2	4	12	STONE	1385	n/a	n/a	0	0	0
2761.21142578125	n/a	REC_WORD	5654961	wordpools/wasnorm_wordpool_576.txt	LTP372	ltpFR2	4	12	DRUG	501	n/a	n/a	0	0	0
2763.65869140625	n/a	REC_WORD	5659973	wordpools/wasnorm_wordpool_576.txt	LTP372	ltpFR2	4	12	PAPER	1011	n/a	n/a	0	0	0
2803.76806640625	n/a	WORD	5742117	wordpools/wasnorm_wordpool_576.txt	LTP372	ltpFR2	4	13	SCRIBBLE	1256	n/a	n/a	0	0	0
2806.43408203125	n/a	WORD	5747577	wordpools/wasnorm_wordpool_576.txt	LTP372	ltpFR2	4	13	CLIMBER	323	n/a	n/a	0	0	0
2809.0830078125	n/a	WORD	5753002	wordpools/wasnorm_wordpool_576.txt	LTP372	ltpFR2	4	13	MONSTER	912	n/a	n/a	0	0	0
2811.6318359375	n/a	WORD	5758222	wordpools/wasnorm_wordpool_576.txt	LTP372	ltpFR2	4	13	SHORTCAKE	1292	n/a	n/a	0	0	0
2814.3798828125	n/a	WORD	5763850	wordpools/wasnorm_wordpool_576.txt	LTP372	ltpFR2	4	13	PIGMENT	1066	n/a	n/a	0	0	0
2817.01171875	n/a	WORD	5769240	wordpools/wasnorm_wordpool_576.txt	LTP372	ltpFR2	4	13	JELLY	755	n/a	n/a	0	0	0
2819.560546875	n/a	WORD	5774460	wordpools/wasnorm_wordpool_576.txt	LTP372	ltpFR2	4	13	SOFTBALL	1343	n/a	n/a	0	0	0
2822.2275390625	n/a	WORD	5779922	wordpools/wasnorm_wordpool_576.txt	LTP372	ltpFR2	4	13	FRANCE	601	n/a	n/a	0	0	0
2824.99169921875	n/a	WORD	5785583	wordpools/wasnorm_wordpool_576.txt	LTP372	ltpFR2	4	13	FRUIT	610	n/a	n/a	0	0	0
2827.57373046875	n/a	WORD	5790871	wordpools/wasnorm_wordpool_576.txt	LTP372	ltpFR2	4	13	LEADER	807	n/a	n/a	0	0	0
2830.2236328125	n/a	WORD	5796298	wordpools/wasnorm_wordpool_576.txt	LTP372	ltpFR2	4	13	TURNIP	1521	n/a	n/a	0	0	0
2832.70458984375	n/a	WORD	5801379	wordpools/wasnorm_wordpool_576.txt	LTP372	ltpFR2	4	13	SNAIL	1332	n/a	n/a	0	0	0
2835.4033203125	n/a	WORD	5806906	wordpools/wasnorm_wordpool_576.txt	LTP372	ltpFR2	4	13	TORTOISE	1486	n/a	n/a	0	0	0
2838.05224609375	n/a	WORD	5812331	wordpools/wasnorm_wordpool_576.txt	LTP372	ltpFR2	4	13	RACKET	1155	n/a	n/a	0	0	0
2840.6669921875	n/a	WORD	5817686	wordpools/wasnorm_wordpool_576.txt	LTP372	ltpFR2	4	13	GARDEN	623	n/a	n/a	0	0	0
2843.44921875	n/a	WORD	5823384	wordpools/wasnorm_wordpool_576.txt	LTP372	ltpFR2	4	13	STREAM	1392	n/a	n/a	0	0	0
2846.166015625	n/a	WORD	5828948	wordpools/wasnorm_wordpool_576.txt	LTP372	ltpFR2	4	13	SUNRISE	1407	n/a	n/a	0	0	0
2848.763671875	n/a	WORD	5834268	wordpools/wasnorm_wordpool_576.txt	LTP372	ltpFR2	4	13	PIMPLE	1071	n/a	n/a	0	0	0
2851.24658203125	n/a	WORD	5839353	wordpools/wasnorm_wordpool_576.txt	LTP372	ltpFR2	4	13	FRECKLE	602	n/a	n/a	0	0	0
2853.9775390625	n/a	WORD	5844946	wordpools/wasnorm_wordpool_576.txt	LTP372	ltpFR2	4	13	MONEY	908	n/a	n/a	0	0	0
2856.57666015625	n/a	WORD	5850269	wordpools/wasnorm_wordpool_576.txt	LTP372	ltpFR2	4	13	ROBBER	1197	n/a	n/a	0	0	0
2859.37548828125	n/a	WORD	5856001	wordpools/wasnorm_wordpool_576.txt	LTP372	ltpFR2	4	13	CLOCK	325	n/a	n/a	0	0	0
2861.84033203125	n/a	WORD	5861049	wordpools/wasnorm_wordpool_576.txt	LTP372	ltpFR2	4	13	CHILD	299	n/a	n/a	0	0	0
2864.5224609375	n/a	WORD	5866542	wordpools/wasnorm_wordpool_576.txt	LTP372	ltpFR2	4	13	DAUGHTER	442	n/a	n/a	0	0	0
2866.13916015625	n/a	START	5869853	n/a	LTP372	ltpFR2	4	n/a	n/a	n/a	21	n/a	n/a	n/a	n/a
2867.28125	n/a	DISTRACTOR	5872192	n/a	LTP372	ltpFR2	4	13	n/a	n/a	n/a	n/a	0	0	0
2867.2890625	n/a	PROB	5872208	n/a	LTP372	ltpFR2	4	n/a	n/a	n/a	21	7	4	1	2
2869.22119140625	n/a	PROB	5876165	n/a	LTP372	ltpFR2	4	n/a	n/a	n/a	21	12	3	5	4
2870.66943359375	n/a	PROB	5879131	n/a	LTP372	ltpFR2	4	n/a	n/a	n/a	21	22	7	6	9
2871.85205078125	n/a	PROB	5881553	n/a	LTP372	ltpFR2	4	n/a	n/a	n/a	21	15	6	5	4
2873.0849609375	n/a	PROB	5884078	n/a	LTP372	ltpFR2	4	n/a	n/a	n/a	21	20	9	5	6
2874.40087890625	n/a	PROB	5886773	n/a	LTP372	ltpFR2	4	n/a	n/a	n/a	21	19	6	8	5
2875.833984375	n/a	PROB	5889708	n/a	LTP372	ltpFR2	4	n/a	n/a	n/a	21	11	2	4	5
2877.6328125	n/a	PROB	5893392	n/a	LTP372	ltpFR2	4	n/a	n/a	n/a	21	10	2	2	6
2878.916015625	n/a	PROB	5896020	n/a	LTP372	ltpFR2	4	n/a	n/a	n/a	21	8	6	1	1
2880.048828125	n/a	PROB	5898340	n/a	LTP372	ltpFR2	4	n/a	n/a	n/a	21	10	3	1	6
2881.298828125	n/a	PROB	5900900	n/a	LTP372	ltpFR2	4	n/a	n/a	n/a	21	14	7	6	1
2882.6640625	n/a	PROB	5903696	n/a	LTP372	ltpFR2	4	n/a	n/a	n/a	21	10	5	2	3
2883.86279296875	n/a	PROB	5906151	n/a	LTP372	ltpFR2	4	n/a	n/a	n/a	21	16	3	4	9
2885.31396484375	n/a	PROB	5909123	n/a	LTP372	ltpFR2	4	n/a	n/a	n/a	21	9	3	5	1
2886.61181640625	n/a	PROB	5911781	n/a	LTP372	ltpFR2	4	n/a	n/a	n/a	21	17	7	3	7
2887.8447265625	n/a	PROB	5914306	n/a	LTP372	ltpFR2	4	n/a	n/a	n/a	21	4	1	2	1
2888.935546875	n/a	STOP	5916540	n/a	LTP372	ltpFR2	4	n/a	n/a	n/a	21	n/a	n/a	n/a	n/a
2892.07666015625	n/a	REC_START	5922973	n/a	LTP372	ltpFR2	4	13	n/a	n/a	n/a	n/a	0	0	0
2894.17724609375	n/a	REC_WORD	5927275	wordpools/wasnorm_wordpool_576.txt	LTP372	ltpFR2	4	13	FRANCE	601	n/a	n/a	0	0	0
2898.87451171875	n/a	REC_WORD	5936895	wordpools/wasnorm_wordpool_576.txt	LTP372	ltpFR2	4	13	FRUIT	610	n/a	n/a	0	0	0
2900.17138671875	n/a	REC_WORD	5939551	wordpools/wasnorm_wordpool_576.txt	LTP372	ltpFR2	4	13	LEADER	807	n/a	n/a	0	0	0
2901.38916015625	n/a	REC_WORD	5942045	wordpools/wasnorm_wordpool_576.txt	LTP372	ltpFR2	4	13	TURNIP	1521	n/a	n/a	0	0	0
2910.85888671875	n/a	REC_WORD	5961439	wordpools/wasnorm_wordpool_576.txt	LTP372	ltpFR2	4	13	GARDEN	623	n/a	n/a	0	0	0
2911.552734375	n/a	REC_WORD	5962860	wordpools/wasnorm_wordpool_576.txt	LTP372	ltpFR2	4	13	STREAM	1392	n/a	n/a	0	0	0
2915.94580078125	n/a	REC_WORD	5971857	wordpools/wasnorm_wordpool_576.txt	LTP372	ltpFR2	4	13	SCRIBBLE	1256	n/a	n/a	0	0	0
2918.2255859375	n/a	REC_WORD	5976526	wordpools/wasnorm_wordpool_576.txt	LTP372	ltpFR2	4	13	CLIMBER	323	n/a	n/a	0	0	0
2919.82080078125	n/a	REC_WORD	5979793	wordpools/wasnorm_wordpool_576.txt	LTP372	ltpFR2	4	13	MONSTER	912	n/a	n/a	0	0	0
2921.1064453125	n/a	REC_WORD	5982426	wordpools/wasnorm_wordpool_576.txt	LTP372	ltpFR2	4	13	SHORTCAKE	1292	n/a	n/a	0	0	0
2922.97265625	n/a	REC_WORD	5986248	wordpools/wasnorm_wordpool_576.txt	LTP372	ltpFR2	4	13	PIGMENT	1066	n/a	n/a	0	0	0
2924.03955078125	n/a	REC_WORD	5988433	wordpools/wasnorm_wordpool_576.txt	LTP372	ltpFR2	4	13	JELLY	755	n/a	n/a	0	0	0
2924.92333984375	n/a	REC_WORD	5990243	wordpools/wasnorm_wordpool_576.txt	LTP372	ltpFR2	4	13	SOFTBALL	1343	n/a	n/a	0	0	0
2939.09619140625	n/a	REC_WORD	6019269	wordpools/wasnorm_wordpool_576.txt	LTP372	ltpFR2	4	13	RACKET	1155	n/a	n/a	0	0	0
2964.67041015625	n/a	REC_WORD	6071645	wordpools/wasnorm_wordpool_576.txt	LTP372	ltpFR2	4	13	PIMPLE	1071	n/a	n/a	0	0	0
2965.42919921875	n/a	REC_WORD	6073199	wordpools/wasnorm_wordpool_576.txt	LTP372	ltpFR2	4	13	FRECKLE	602	n/a	n/a	0	0	0
2966.35302734375	n/a	REC_WORD	6075091	wordpools/wasnorm_wordpool_576.txt	LTP372	ltpFR2	4	13	MONEY	908	n/a	n/a	0	0	0
2982.49853515625	n/a	DISTRACTOR	6108157	n/a	LTP372	ltpFR2	4	14	n/a	n/a	n/a	n/a	0	0	0
2982.49853515625	n/a	START	6108157	n/a	LTP372	ltpFR2	4	n/a	n/a	n/a	22	n/a	n/a	n/a	n/a
2982.515625	n/a	PROB	6108192	n/a	LTP372	ltpFR2	4	n/a	n/a	n/a	22	18	9	3	6
2984.380859375	n/a	PROB	6112012	n/a	LTP372	ltpFR2	4	n/a	n/a	n/a	22	13	5	3	5
2986.03076171875	n/a	PROB	6115391	n/a	LTP372	ltpFR2	4	n/a	n/a	n/a	22	7	3	1	3
2987.263671875	n/a	PROB	6117916	n/a	LTP372	ltpFR2	4	n/a	n/a	n/a	22	15	5	4	6
2988.91259765625	n/a	PROB	6121293	n/a	LTP372	ltpFR2	4	n/a	n/a	n/a	22	15	4	8	3
2990.0966796875	n/a	PROB	6123718	n/a	LTP372	ltpFR2	4	n/a	n/a	n/a	22	18	7	4	7
2991.57763671875	n/a	PROB	6126751	n/a	LTP372	ltpFR2	4	n/a	n/a	n/a	22	23	9	9	5
2992.79736328125	n/a	PROB	6129249	n/a	LTP372	ltpFR2	4	n/a	n/a	n/a	22	9	1	1	7
2993.87646484375	n/a	PROB	6131459	n/a	LTP372	ltpFR2	4	n/a	n/a	n/a	22	21	6	6	9
2995.1435546875	n/a	PROB	6134054	n/a	LTP372	ltpFR2	4	n/a	n/a	n/a	22	10	6	1	3
2996.3583984375	n/a	PROB	6136542	n/a	LTP372	ltpFR2	4	n/a	n/a	n/a	22	12	2	6	4
2997.54150390625	n/a	PROB	6138965	n/a	LTP372	ltpFR2	4	n/a	n/a	n/a	22	12	2	1	9
2998.92431640625	n/a	PROB	6141797	n/a	LTP372	ltpFR2	4	n/a	n/a	n/a	22	9	1	7	1
3000.09130859375	n/a	PROB	6144187	n/a	LTP372	ltpFR2	4	n/a	n/a	n/a	22	17	4	5	6
3001.4892578125	n/a	PROB	6147050	n/a	LTP372	ltpFR2	4	n/a	n/a	n/a	22	13	7	3	3
3003.02197265625	n/a	PROB	6150189	n/a	LTP372	ltpFR2	4	n/a	n/a	n/a	22	12	4	5	3
3004.48828125	n/a	PROB	6153192	n/a	LTP372	ltpFR2	4	n/a	n/a	n/a	22	10	5	3	2
3005.64697265625	n/a	STOP	6155565	n/a	LTP372	ltpFR2	4	n/a	n/a	n/a	22	n/a	n/a	n/a	n/a
3007.60302734375	n/a	WORD	6159571	wordpools/wasnorm_wordpool_576.txt	LTP372	ltpFR2	4	14	SHELF	1280	n/a	n/a	0	0	0
3010.15283203125	n/a	WORD	6164793	wordpools/wasnorm_wordpool_576.txt	LTP372	ltpFR2	4	14	TRACTOR	1493	n/a	n/a	0	0	0
3012.93359375	n/a	WORD	6170488	wordpools/wasnorm_wordpool_576.txt	LTP372	ltpFR2	4	14	BURGLAR	200	n/a	n/a	0	0	0
3015.73291015625	n/a	WORD	6176221	wordpools/wasnorm_wordpool_576.txt	LTP372	ltpFR2	4	14	BELLY	119	n/a	n/a	0	0	0
3018.298828125	n/a	WORD	6181476	wordpools/wasnorm_wordpool_576.txt	LTP372	ltpFR2	4	14	LADY	794	n/a	n/a	0	0	0
3020.86376953125	n/a	WORD	6186729	wordpools/wasnorm_wordpool_576.txt	LTP372	ltpFR2	4	14	APRON	35	n/a	n/a	0	0	0
3023.3955078125	n/a	WORD	6191914	wordpools/wasnorm_wordpool_576.txt	LTP372	ltpFR2	4	14	RIFLE	1192	n/a	n/a	0	0	0
3025.87744140625	n/a	WORD	6196997	wordpools/wasnorm_wordpool_576.txt	LTP372	ltpFR2	4	14	PISTOL	1075	n/a	n/a	0	0	0
3028.4765625	n/a	WORD	6202320	wordpools/wasnorm_wordpool_576.txt	LTP372	ltpFR2	4	14	PORTRAIT	1111	n/a	n/a	0	0	0
3030.92529296875	n/a	WORD	6207335	wordpools/wasnorm_wordpool_576.txt	LTP372	ltpFR2	4	14	HEDGE	699	n/a	n/a	0	0	0
3033.4072265625	n/a	WORD	6212418	wordpools/wasnorm_wordpool_576.txt	LTP372	ltpFR2	4	14	CABIN	211	n/a	n/a	0	0	0
3036.10693359375	n/a	WORD	6217947	wordpools/wasnorm_wordpool_576.txt	LTP372	ltpFR2	4	14	SLIDE	1326	n/a	n/a	0	0	0
3038.6220703125	n/a	WORD	6223098	wordpools/wasnorm_wordpool_576.txt	LTP372	ltpFR2	4	14	MUSTARD	935	n/a	n/a	0	0	0
3041.32080078125	n/a	WORD	6228625	wordpools/wasnorm_wordpool_576.txt	LTP372	ltpFR2	4	14	STAR	1373	n/a	n/a	0	0	0
3044.01904296875	n/a	WORD	6234151	wordpools/wasnorm_wordpool_576.txt	LTP372	ltpFR2	4	14	JOURNAL	760	n/a	n/a	0	0	0
3046.48486328125	n/a	WORD	6239201	wordpools/wasnorm_wordpool_576.txt	LTP372	ltpFR2	4	14	LONDON	843	n/a	n/a	0	0	0
3049.267578125	n/a	WORD	6244900	wordpools/wasnorm_wordpool_576.txt	LTP372	ltpFR2	4	14	PEBBLE	1035	n/a	n/a	0	0	0
3051.765625	n/a	WORD	6250016	wordpools/wasnorm_wordpool_576.txt	LTP372	ltpFR2	4	14	DONKEY	484	n/a	n/a	0	0	0
3054.38037109375	n/a	WORD	6255371	wordpools/wasnorm_wordpool_576.txt	LTP372	ltpFR2	4	14	ZEBRA	1635	n/a	n/a	0	0	0
3057.029296875	n/a	WORD	6260796	wordpools/wasnorm_wordpool_576.txt	LTP372	ltpFR2	4	14	ANTLER	29	n/a	n/a	0	0	0
