onset	duration	trial_type	sample	stim_file	subject	experiment	session	trial	task	item_name	item_num	recog_conf	resp	color_b	color_g	color_r	case	font
359.27	n/a	SESS_START	179635	n/a	LTP180	ltpFR	0	n/a	n/a	n/a	n/a	3	n/a	n/a	n/a	n/a	n/a	n/a
533.512	n/a	WORD	266756	wordpools/wasnorm_wordpool_less_exclusions.txt	LTP180	ltpFR	0	1	-1	LOAF	835	3	-1	1	1.0	1.0	upper	../fonts/Verdana.ttf
537.486	n/a	WORD	268743	wordpools/wasnorm_wordpool_less_exclusions.txt	LTP180	ltpFR	0	1	-1	SHORTCAKE	1292	n/a	-1	1	1.0	1.0	upper	../fonts/Verdana.ttf
541.662	n/a	WORD	270831	wordpools/wasnorm_wordpool_less_exclusions.txt	LTP180	ltpFR	0	1	-1	PIKE	1067	n/a	-1	1	1.0	1.0	upper	../fonts/Verdana.ttf
545.55	n/a	WORD	272775	wordpools/wasnorm_wordpool_less_exclusions.txt	LTP180	ltpFR	0	1	-1	CAPTAIN	239	n/a	-1	1	1.0	1.0	upper	../fonts/Verdana.ttf
549.634	n/a	WORD	274817	wordpools/wasnorm_wordpool_less_exclusions.txt	LTP180	ltpFR	0	1	-1	THIMBLE	1458	n/a	-1	1	1.0	1.0	upper	../fonts/Verdana.ttf
553.556	n/a	WORD	276778	wordpools/wasnorm_wordpool_less_exclusions.txt	LTP180	ltpFR	0	1	-1	GLASSES	640	n/a	-1	1	1.0	1.0	upper	../fonts/Verdana.ttf
557.656	n/a	WORD	278828	wordpools/wasnorm_wordpool_less_exclusions.txt	LTP180	ltpFR	0	1	-1	LASH	802	n/a	-1	1	1.0	1.0	upper	../fonts/Verdana.ttf
561.812	n/a	WORD	280906	wordpools/wasnorm_wordpool_less_exclusions.txt	LTP180	ltpFR	0	1	-1	CORN	381	n/a	-1	1	1.0	1.0	upper	../fonts/Verdana.ttf
566.01	n/a	WORD	283005	wordpools/wasnorm_wordpool_less_exclusions.txt	LTP180	ltpFR	0	1	-1	CREAM	402	n/a	-1	1	1.0	1.0	upper	../fonts/Verdana.ttf
569.95	n/a	WORD	284975	wordpools/wasnorm_wordpool_less_exclusions.txt	LTP180	ltpFR	0	1	-1	BATH	98	n/a	-1	1	1.0	1.0	upper	../fonts/Verdana.ttf
573.842	n/a	WORD	286921	wordpools/wasnorm_wordpool_less_exclusions.txt	LTP180	ltpFR	0	1	-1	SURF	1412	n/a	-1	1	1.0	1.0	upper	../fonts/Verdana.ttf
577.832	n/a	WORD	288916	wordpools/wasnorm_wordpool_less_exclusions.txt	LTP180	ltpFR	0	1	-1	FRAME	600	n/a	-1	1	1.0	1.0	upper	../fonts/Verdana.ttf
581.848	n/a	WORD	290924	wordpools/wasnorm_wordpool_less_exclusions.txt	LTP180	ltpFR	0	1	-1	PICTURE	1061	n/a	-1	1	1.0	1.0	upper	../fonts/Verdana.ttf
585.814	n/a	WORD	292907	wordpools/wasnorm_wordpool_less_exclusions.txt	LTP180	ltpFR	0	1	-1	GARLIC	624	n/a	-1	1	1.0	1.0	upper	../fonts/Verdana.ttf
589.82	n/a	WORD	294910	wordpools/wasnorm_wordpool_less_exclusions.txt	LTP180	ltpFR	0	1	-1	OATMEAL	967	n/a	-1	1	1.0	1.0	upper	../fonts/Verdana.ttf
593.762	n/a	WORD	296881	wordpools/wasnorm_wordpool_less_exclusions.txt	LTP180	ltpFR	0	1	-1	SALMON	1227	n/a	-1	1	1.0	1.0	upper	../fonts/Verdana.ttf
599.826	n/a	REC_START	299913	n/a	LTP180	ltpFR	0	1	n/a	n/a	n/a	n/a	n/a	n/a	n/a	n/a	n/a	n/a
601.084	n/a	REC_WORD	300542	wordpools/wasnorm_wordpool_less_exclusions.txt	LTP180	ltpFR	0	1	-1	LOAF	835	n/a	-1	n/a	n/a	n/a	n/a	n/a
601.906	n/a	REC_WORD	300953	wordpools/wasnorm_wordpool_less_exclusions.txt	LTP180	ltpFR	0	1	-1	CREAM	402	n/a	-1	n/a	n/a	n/a	n/a	n/a
602.564	n/a	REC_WORD	301282	wordpools/wasnorm_wordpool_less_exclusions.txt	LTP180	ltpFR	0	1	-1	CAPTAIN	239	n/a	-1	n/a	n/a	n/a	n/a	n/a
603.868	n/a	REC_WORD	301934	wordpools/wasnorm_wordpool_less_exclusions.txt	LTP180	ltpFR	0	1	-1	OATMEAL	967	n/a	-1	n/a	n/a	n/a	n/a	n/a
604.566	n/a	REC_WORD	302283	wordpools/wasnorm_wordpool_less_exclusions.txt	LTP180	ltpFR	0	1	-1	SHORTCAKE	1292	n/a	-1	n/a	n/a	n/a	n/a	n/a
606.152	n/a	REC_WORD	303076	wordpools/wasnorm_wordpool_less_exclusions.txt	LTP180	ltpFR	0	1	-1	GARLIC	624	n/a	-1	n/a	n/a	n/a	n/a	n/a
686.134	n/a	WORD	343067	wordpools/wasnorm_wordpool_less_exclusions.txt	LTP180	ltpFR	0	2	-1	BLUEBERRY	140	n/a	-1	1	1.0	1.0	upper	../fonts/Verdana.ttf
690.24	n/a	WORD	345120	wordpools/wasnorm_wordpool_less_exclusions.txt	LTP180	ltpFR	0	2	-1	MATTRESS	879	n/a	-1	1	1.0	1.0	upper	../fonts/Verdana.ttf
694.288	n/a	WORD	347144	wordpools/wasnorm_wordpool_less_exclusions.txt	LTP180	ltpFR	0	2	-1	TAXI	1438	n/a	-1	1	1.0	1.0	upper	../fonts/Verdana.ttf
698.454	n/a	WORD	349227	wordpools/wasnorm_wordpool_less_exclusions.txt	LTP180	ltpFR	0	2	-1	LIMOUSINE	824	n/a	-1	1	1.0	1.0	upper	../fonts/Verdana.ttf
702.344	n/a	WORD	351172	wordpools/wasnorm_wordpool_less_exclusions.txt	LTP180	ltpFR	0	2	-1	BAKER	71	n/a	-1	1	1.0	1.0	upper	../fonts/Verdana.ttf
706.444	n/a	WORD	353222	wordpools/wasnorm_wordpool_less_exclusions.txt	LTP180	ltpFR	0	2	-1	LOBSTER	837	n/a	-1	1	1.0	1.0	upper	../fonts/Verdana.ttf
710.368	n/a	WORD	355184	wordpools/wasnorm_wordpool_less_exclusions.txt	LTP180	ltpFR	0	2	-1	CRUMB	416	n/a	-1	1	1.0	1.0	upper	../fonts/Verdana.ttf
714.2	n/a	WORD	357100	wordpools/wasnorm_wordpool_less_exclusions.txt	LTP180	ltpFR	0	2	-1	PERSONNEL	1053	n/a	-1	1	1.0	1.0	upper	../fonts/Verdana.ttf
718.372	n/a	WORD	359186	wordpools/wasnorm_wordpool_less_exclusions.txt	LTP180	ltpFR	0	2	-1	FUDGE	611	n/a	-1	1	1.0	1.0	upper	../fonts/Verdana.ttf
722.414	n/a	WORD	361207	wordpools/wasnorm_wordpool_less_exclusions.txt	LTP180	ltpFR	0	2	-1	CREATURE	403	n/a	-1	1	1.0	1.0	upper	../fonts/Verdana.ttf
726.58	n/a	WORD	363290	wordpools/wasnorm_wordpool_less_exclusions.txt	LTP180	ltpFR	0	2	-1	CHIPMUNK	304	n/a	-1	1	1.0	1.0	upper	../fonts/Verdana.ttf
730.778	n/a	WORD	365389	wordpools/wasnorm_wordpool_less_exclusions.txt	LTP180	ltpFR	0	2	-1	JUNGLE	764	n/a	-1	1	1.0	1.0	upper	../fonts/Verdana.ttf
734.892	n/a	WORD	367446	wordpools/wasnorm_wordpool_less_exclusions.txt	LTP180	ltpFR	0	2	-1	ANTEATER	26	n/a	-1	1	1.0	1.0	upper	../fonts/Verdana.ttf
738.842	n/a	WORD	369421	wordpools/wasnorm_wordpool_less_exclusions.txt	LTP180	ltpFR	0	2	-1	SPY	1360	n/a	-1	1	1.0	1.0	upper	../fonts/Verdana.ttf
742.668	n/a	WORD	371334	wordpools/wasnorm_wordpool_less_exclusions.txt	LTP180	ltpFR	0	2	-1	BUG	187	n/a	-1	1	1.0	1.0	upper	../fonts/Verdana.ttf
746.624	n/a	WORD	373312	wordpools/wasnorm_wordpool_less_exclusions.txt	LTP180	ltpFR	0	2	-1	MERMAID	887	n/a	-1	1	1.0	1.0	upper	../fonts/Verdana.ttf
752.354	n/a	REC_START	376177	n/a	LTP180	ltpFR	0	2	n/a	n/a	n/a	n/a	n/a	n/a	n/a	n/a	n/a	n/a
752.938	n/a	REC_WORD	376469	wordpools/wasnorm_wordpool_less_exclusions.txt	LTP180	ltpFR	0	2	-1	BLUEBERRY	140	n/a	-1	n/a	n/a	n/a	n/a	n/a
753.572	n/a	REC_WORD	376786	wordpools/wasnorm_wordpool_less_exclusions.txt	LTP180	ltpFR	0	2	-1	TAXI	1438	n/a	-1	n/a	n/a	n/a	n/a	n/a
754.734	n/a	REC_WORD_VV	377367	wordpools/wasnorm_wordpool_less_exclusions.txt	LTP180	ltpFR	0	2	n/a	<>	-1	n/a	n/a	n/a	n/a	n/a	n/a	n/a
755.054	n/a	REC_WORD	377527	wordpools/wasnorm_wordpool_less_exclusions.txt	LTP180	ltpFR	0	2	n/a	MASTER	-1	n/a	n/a	n/a	n/a	n/a	n/a	n/a
755.706	n/a	REC_WORD	377853	wordpools/wasnorm_wordpool_less_exclusions.txt	LTP180	ltpFR	0	2	-1	LIMOUSINE	824	n/a	-1	n/a	n/a	n/a	n/a	n/a
757.048	n/a	REC_WORD	378524	wordpools/wasnorm_wordpool_less_exclusions.txt	LTP180	ltpFR	0	2	-1	BUG	187	n/a	-1	n/a	n/a	n/a	n/a	n/a
759.258	n/a	REC_WORD_VV	379629	wordpools/wasnorm_wordpool_less_exclusions.txt	LTP180	ltpFR	0	2	n/a	<>	-1	n/a	n/a	n/a	n/a	n/a	n/a	n/a
760.142	n/a	REC_WORD	380071	wordpools/wasnorm_wordpool_less_exclusions.txt	LTP180	ltpFR	0	2	-1	LOBSTER	837	n/a	-1	n/a	n/a	n/a	n/a	n/a
836.912	n/a	WORD	418456	wordpools/wasnorm_wordpool_less_exclusions.txt	LTP180	ltpFR	0	3	-1	MOWER	928	n/a	-1	1	1.0	1.0	upper	../fonts/Verdana.ttf
841.012	n/a	WORD	420506	wordpools/wasnorm_wordpool_less_exclusions.txt	LTP180	ltpFR	0	3	-1	YARD	1630	n/a	-1	1	1.0	1.0	upper	../fonts/Verdana.ttf
845.144	n/a	WORD	422572	wordpools/wasnorm_wordpool_less_exclusions.txt	LTP180	ltpFR	0	3	-1	SLIDE	1326	n/a	-1	1	1.0	1.0	upper	../fonts/Verdana.ttf
849.034	n/a	WORD	424517	wordpools/wasnorm_wordpool_less_exclusions.txt	LTP180	ltpFR	0	3	-1	LITTER	832	n/a	-1	1	1.0	1.0	upper	../fonts/Verdana.ttf
853.066	n/a	WORD	426533	wordpools/wasnorm_wordpool_less_exclusions.txt	LTP180	ltpFR	0	3	-1	MICROWAVE	892	n/a	-1	1	1.0	1.0	upper	../fonts/Verdana.ttf
856.964	n/a	WORD	428482	wordpools/wasnorm_wordpool_less_exclusions.txt	LTP180	ltpFR	0	3	-1	REFRIGERATOR	1179	n/a	-1	1	1.0	1.0	upper	../fonts/Verdana.ttf
861.014	n/a	WORD	430507	wordpools/wasnorm_wordpool_less_exclusions.txt	LTP180	ltpFR	0	3	-1	CLIMBER	323	n/a	-1	1	1.0	1.0	upper	../fonts/Verdana.ttf
864.978	n/a	WORD	432489	wordpools/wasnorm_wordpool_less_exclusions.txt	LTP180	ltpFR	0	3	-1	TUTU	1524	n/a	-1	1	1.0	1.0	upper	../fonts/Verdana.ttf
869.036	n/a	WORD	434518	wordpools/wasnorm_wordpool_less_exclusions.txt	LTP180	ltpFR	0	3	-1	AGENT	10	n/a	-1	1	1.0	1.0	upper	../fonts/Verdana.ttf
873.06	n/a	WORD	436530	wordpools/wasnorm_wordpool_less_exclusions.txt	LTP180	ltpFR	0	3	-1	CHURCH	307	n/a	-1	1	1.0	1.0	upper	../fonts/Verdana.ttf
877.034	n/a	WORD	438517	wordpools/wasnorm_wordpool_less_exclusions.txt	LTP180	ltpFR	0	3	-1	ASIA	46	n/a	-1	1	1.0	1.0	upper	../fonts/Verdana.ttf
880.99	n/a	WORD	440495	wordpools/wasnorm_wordpool_less_exclusions.txt	LTP180	ltpFR	0	3	-1	EMPIRE	530	n/a	-1	1	1.0	1.0	upper	../fonts/Verdana.ttf
885.014	n/a	WORD	442507	wordpools/wasnorm_wordpool_less_exclusions.txt	LTP180	ltpFR	0	3	-1	CROSS	413	n/a	-1	1	1.0	1.0	upper	../fonts/Verdana.ttf
889.154	n/a	WORD	444577	wordpools/wasnorm_wordpool_less_exclusions.txt	LTP180	ltpFR	0	3	-1	LEOPARD	812	n/a	-1	1	1.0	1.0	upper	../fonts/Verdana.ttf
893.112	n/a	WORD	446556	wordpools/wasnorm_wordpool_less_exclusions.txt	LTP180	ltpFR	0	3	-1	HALL	677	n/a	-1	1	1.0	1.0	upper	../fonts/Verdana.ttf
896.928	n/a	WORD	448464	wordpools/wasnorm_wordpool_less_exclusions.txt	LTP180	ltpFR	0	3	-1	POLICE	1098	n/a	-1	1	1.0	1.0	upper	../fonts/Verdana.ttf
902.494	n/a	REC_START	451247	n/a	LTP180	ltpFR	0	3	n/a	n/a	n/a	n/a	n/a	n/a	n/a	n/a	n/a	n/a
903.146	n/a	REC_WORD	451573	wordpools/wasnorm_wordpool_less_exclusions.txt	LTP180	ltpFR	0	3	-1	MOWER	928	n/a	-1	n/a	n/a	n/a	n/a	n/a
903.79	n/a	REC_WORD	451895	wordpools/wasnorm_wordpool_less_exclusions.txt	LTP180	ltpFR	0	3	-1	SLIDE	1326	n/a	-1	n/a	n/a	n/a	n/a	n/a
904.79	n/a	REC_WORD_VV	452395	wordpools/wasnorm_wordpool_less_exclusions.txt	LTP180	ltpFR	0	3	n/a	<>	-1	n/a	n/a	n/a	n/a	n/a	n/a	n/a
905.462	n/a	REC_WORD	452731	wordpools/wasnorm_wordpool_less_exclusions.txt	LTP180	ltpFR	0	3	-1	ASIA	46	n/a	-1	n/a	n/a	n/a	n/a	n/a
906.374	n/a	REC_WORD	453187	wordpools/wasnorm_wordpool_less_exclusions.txt	LTP180	ltpFR	0	3	-1	EMPIRE	530	n/a	-1	n/a	n/a	n/a	n/a	n/a
907.536	n/a	REC_WORD	453768	wordpools/wasnorm_wordpool_less_exclusions.txt	LTP180	ltpFR	0	3	-1	POLICE	1098	n/a	-1	n/a	n/a	n/a	n/a	n/a
984.168	n/a	WORD	492084	wordpools/wasnorm_wordpool_less_exclusions.txt	LTP180	ltpFR	0	4	-1	COBWEB	337	n/a	-1	1	1.0	1.0	upper	../fonts/Verdana.ttf
988.092	n/a	WORD	494046	wordpools/wasnorm_wordpool_less_exclusions.txt	LTP180	ltpFR	0	4	-1	BARK	87	n/a	-1	1	1.0	1.0	upper	../fonts/Verdana.ttf
992.258	n/a	WORD	496129	wordpools/wasnorm_wordpool_less_exclusions.txt	LTP180	ltpFR	0	4	-1	TICK	1463	n/a	-1	1	1.0	1.0	upper	../fonts/Verdana.ttf
996.28	n/a	WORD	498140	wordpools/wasnorm_wordpool_less_exclusions.txt	LTP180	ltpFR	0	4	-1	SKETCH	1315	n/a	-1	1	1.0	1.0	upper	../fonts/Verdana.ttf
1000.346	n/a	WORD	500173	wordpools/wasnorm_wordpool_less_exclusions.txt	LTP180	ltpFR	0	4	-1	BINDER	127	n/a	-1	1	1.0	1.0	upper	../fonts/Verdana.ttf
1004.494	n/a	WORD	502247	wordpools/wasnorm_wordpool_less_exclusions.txt	LTP180	ltpFR	0	4	-1	SHARK	1275	n/a	-1	1	1.0	1.0	upper	../fonts/Verdana.ttf
1008.386	n/a	WORD	504193	wordpools/wasnorm_wordpool_less_exclusions.txt	LTP180	ltpFR	0	4	-1	FISH	571	n/a	-1	1	1.0	1.0	upper	../fonts/Verdana.ttf
1012.234	n/a	WORD	506117	wordpools/wasnorm_wordpool_less_exclusions.txt	LTP180	ltpFR	0	4	-1	WIRE	1616	n/a	-1	1	1.0	1.0	upper	../fonts/Verdana.ttf
1016.25	n/a	WORD	508125	wordpools/wasnorm_wordpool_less_exclusions.txt	LTP180	ltpFR	0	4	-1	STATUE	1374	n/a	-1	1	1.0	1.0	upper	../fonts/Verdana.ttf
1020.398	n/a	WORD	510199	wordpools/wasnorm_wordpool_less_exclusions.txt	LTP180	ltpFR	0	4	-1	CAPITAL	238	n/a	-1	1	1.0	1.0	upper	../fonts/Verdana.ttf
1024.564	n/a	WORD	512282	wordpools/wasnorm_wordpool_less_exclusions.txt	LTP180	ltpFR	0	4	-1	HAWK	692	n/a	-1	1	1.0	1.0	upper	../fonts/Verdana.ttf
1028.688	n/a	WORD	514344	wordpools/wasnorm_wordpool_less_exclusions.txt	LTP180	ltpFR	0	4	-1	SAW	1239	n/a	-1	1	1.0	1.0	upper	../fonts/Verdana.ttf
1032.762	n/a	WORD	516381	wordpools/wasnorm_wordpool_less_exclusions.txt	LTP180	ltpFR	0	4	-1	FRECKLE	602	n/a	-1	1	1.0	1.0	upper	../fonts/Verdana.ttf
1036.834	n/a	WORD	518417	wordpools/wasnorm_wordpool_less_exclusions.txt	LTP180	ltpFR	0	4	-1	BLUEJAY	141	n/a	-1	1	1.0	1.0	upper	../fonts/Verdana.ttf
1040.866	n/a	WORD	520433	wordpools/wasnorm_wordpool_less_exclusions.txt	LTP180	ltpFR	0	4	-1	LUMBER	848	n/a	-1	1	1.0	1.0	upper	../fonts/Verdana.ttf
1044.842	n/a	WORD	522421	wordpools/wasnorm_wordpool_less_exclusions.txt	LTP180	ltpFR	0	4	-1	CHEEK	287	n/a	-1	1	1.0	1.0	upper	../fonts/Verdana.ttf
1050.792	n/a	REC_START	525396	n/a	LTP180	ltpFR	0	4	n/a	n/a	n/a	n/a	n/a	n/a	n/a	n/a	n/a	n/a
1051.236	n/a	REC_WORD	525618	wordpools/wasnorm_wordpool_less_exclusions.txt	LTP180	ltpFR	0	4	-1	COBWEB	337	n/a	-1	n/a	n/a	n/a	n/a	n/a
1052.328	n/a	REC_WORD	526164	wordpools/wasnorm_wordpool_less_exclusions.txt	LTP180	ltpFR	0	4	-1	SHARK	1275	n/a	-1	n/a	n/a	n/a	n/a	n/a
1053.196	n/a	REC_WORD_VV	526598	wordpools/wasnorm_wordpool_less_exclusions.txt	LTP180	ltpFR	0	4	n/a	<>	-1	n/a	n/a	n/a	n/a	n/a	n/a	n/a
1053.884	n/a	REC_WORD	526942	wordpools/wasnorm_wordpool_less_exclusions.txt	LTP180	ltpFR	0	4	n/a	BLUEBIRD	-1	n/a	n/a	n/a	n/a	n/a	n/a	n/a
1054.628	n/a	REC_WORD	527314	wordpools/wasnorm_wordpool_less_exclusions.txt	LTP180	ltpFR	0	4	-1	TICK	1463	n/a	-1	n/a	n/a	n/a	n/a	n/a
1055.92	n/a	REC_WORD	527960	wordpools/wasnorm_wordpool_less_exclusions.txt	LTP180	ltpFR	0	4	-1	COBWEB	337	n/a	-1	n/a	n/a	n/a	n/a	n/a
1057.038	n/a	REC_WORD_VV	528519	wordpools/wasnorm_wordpool_less_exclusions.txt	LTP180	ltpFR	0	4	n/a	<>	-1	n/a	n/a	n/a	n/a	n/a	n/a	n/a
1058.998	n/a	REC_WORD	529499	wordpools/wasnorm_wordpool_less_exclusions.txt	LTP180	ltpFR	0	4	-1	COBWEB	337	n/a	-1	n/a	n/a	n/a	n/a	n/a
1059.926	n/a	REC_WORD_VV	529963	wordpools/wasnorm_wordpool_less_exclusions.txt	LTP180	ltpFR	0	4	n/a	<>	-1	n/a	n/a	n/a	n/a	n/a	n/a	n/a
1061.204	n/a	REC_WORD_VV	530602	wordpools/wasnorm_wordpool_less_exclusions.txt	LTP180	ltpFR	0	4	n/a	<>	-1	n/a	n/a	n/a	n/a	n/a	n/a	n/a
1062.204	n/a	REC_WORD_VV	531102	wordpools/wasnorm_wordpool_less_exclusions.txt	LTP180	ltpFR	0	4	n/a	<>	-1	n/a	n/a	n/a	n/a	n/a	n/a	n/a
1063.204	n/a	REC_WORD_VV	531602	wordpools/wasnorm_wordpool_less_exclusions.txt	LTP180	ltpFR	0	4	n/a	<>	-1	n/a	n/a	n/a	n/a	n/a	n/a	n/a
1071.45	n/a	REC_WORD	535725	wordpools/wasnorm_wordpool_less_exclusions.txt	LTP180	ltpFR	0	4	-1	LUMBER	848	n/a	-1	n/a	n/a	n/a	n/a	n/a
1077.99	n/a	REC_WORD	538995	wordpools/wasnorm_wordpool_less_exclusions.txt	LTP180	ltpFR	0	4	-1	SHARK	1275	n/a	-1	n/a	n/a	n/a	n/a	n/a
1078.374	n/a	REC_WORD	539187	wordpools/wasnorm_wordpool_less_exclusions.txt	LTP180	ltpFR	0	4	-1	FISH	571	n/a	-1	n/a	n/a	n/a	n/a	n/a
1391.386	n/a	WORD	695693	wordpools/wasnorm_wordpool_less_exclusions.txt	LTP180	ltpFR	0	5	0	UNIVERSE	1540	n/a	n/a	0	0.5869140625	0.422607421875	upper	../fonts/zerothre.ttf
1394.41	n/a	SLOW_MSG	697205	n/a	LTP180	ltpFR	0	5	n/a	n/a	n/a	n/a	n/a	n/a	n/a	n/a	n/a	n/a
1396.744	n/a	WORD	698372	wordpools/wasnorm_wordpool_less_exclusions.txt	LTP180	ltpFR	0	5	0	CATCHER	258	n/a	n/a	0	0.5869140625	0.422607421875	upper	../fonts/zerothre.ttf
1399.768	n/a	SLOW_MSG	699884	n/a	LTP180	ltpFR	0	5	n/a	n/a	n/a	n/a	n/a	n/a	n/a	n/a	n/a	n/a
1402.25	n/a	WORD	701125	wordpools/wasnorm_wordpool_less_exclusions.txt	LTP180	ltpFR	0	5	0	POPCORN	1104	n/a	1	0	0.5869140625	0.422607421875	upper	../fonts/zerothre.ttf
1406.282	n/a	WORD	703141	wordpools/wasnorm_wordpool_less_exclusions.txt	LTP180	ltpFR	0	5	0	ROCKET	1202	n/a	0	0	0.5869140625	0.422607421875	upper	../fonts/zerothre.ttf
1410.348	n/a	WORD	705174	wordpools/wasnorm_wordpool_less_exclusions.txt	LTP180	ltpFR	0	5	0	ASTRONAUT	51	n/a	1	0	0.5869140625	0.422607421875	upper	../fonts/zerothre.ttf
1414.304	n/a	WORD	707152	wordpools/wasnorm_wordpool_less_exclusions.txt	LTP180	ltpFR	0	5	0	TOOTHPASTE	1483	n/a	1	0	0.5869140625	0.422607421875	upper	../fonts/zerothre.ttf
1418.228	n/a	WORD	709114	wordpools/wasnorm_wordpool_less_exclusions.txt	LTP180	ltpFR	0	5	0	CAULIFLOWER	262	n/a	1	0	0.5869140625	0.422607421875	upper	../fonts/zerothre.ttf
1422.218	n/a	WORD	711109	wordpools/wasnorm_wordpool_less_exclusions.txt	LTP180	ltpFR	0	5	0	PAINTER	1004	n/a	1	0	0.5869140625	0.422607421875	upper	../fonts/zerothre.ttf
1426.16	n/a	WORD	713080	wordpools/wasnorm_wordpool_less_exclusions.txt	LTP180	ltpFR	0	5	0	METEOR	889	n/a	1	0	0.5869140625	0.422607421875	upper	../fonts/zerothre.ttf
1430.358	n/a	WORD	715179	wordpools/wasnorm_wordpool_less_exclusions.txt	LTP180	ltpFR	0	5	0	BENCH	121	n/a	0	0	0.5869140625	0.422607421875	upper	../fonts/zerothre.ttf
1434.498	n/a	WORD	717249	wordpools/wasnorm_wordpool_less_exclusions.txt	LTP180	ltpFR	0	5	0	MUG	930	n/a	1	0	0.5869140625	0.422607421875	upper	../fonts/zerothre.ttf
1438.672	n/a	WORD	719336	wordpools/wasnorm_wordpool_less_exclusions.txt	LTP180	ltpFR	0	5	0	TEA	1439	n/a	1	0	0.5869140625	0.422607421875	upper	../fonts/zerothre.ttf
1442.796	n/a	WORD	721398	wordpools/wasnorm_wordpool_less_exclusions.txt	LTP180	ltpFR	0	5	0	SHED	1277	n/a	0	0	0.5869140625	0.422607421875	upper	../fonts/zerothre.ttf
1446.628	n/a	WORD	723314	wordpools/wasnorm_wordpool_less_exclusions.txt	LTP180	ltpFR	0	5	0	PICKLE	1059	n/a	1	0	0.5869140625	0.422607421875	upper	../fonts/zerothre.ttf
1450.468	n/a	WORD	725234	wordpools/wasnorm_wordpool_less_exclusions.txt	LTP180	ltpFR	0	5	0	LAWN	805	n/a	0	0	0.5869140625	0.422607421875	upper	../fonts/zerothre.ttf
1454.45	n/a	WORD	727225	wordpools/wasnorm_wordpool_less_exclusions.txt	LTP180	ltpFR	0	5	0	PATIO	1025	n/a	0	0	0.5869140625	0.422607421875	upper	../fonts/zerothre.ttf
1460.258	n/a	REC_START	730129	n/a	LTP180	ltpFR	0	5	n/a	n/a	n/a	n/a	n/a	n/a	n/a	n/a	n/a	n/a
1468.31	n/a	REC_WORD_VV	734155	wordpools/wasnorm_wordpool_less_exclusions.txt	LTP180	ltpFR	0	5	n/a	<>	-1	n/a	n/a	n/a	n/a	n/a	n/a	n/a
1469.31	n/a	REC_WORD_VV	734655	wordpools/wasnorm_wordpool_less_exclusions.txt	LTP180	ltpFR	0	5	n/a	<>	-1	n/a	n/a	n/a	n/a	n/a	n/a	n/a
1472.606	n/a	REC_WORD_VV	736303	wordpools/wasnorm_wordpool_less_exclusions.txt	LTP180	ltpFR	0	5	n/a	<>	-1	n/a	n/a	n/a	n/a	n/a	n/a	n/a
1506.456	n/a	REC_WORD_VV	753228	wordpools/wasnorm_wordpool_less_exclusions.txt	LTP180	ltpFR	0	5	n/a	<>	-1	n/a	n/a	n/a	n/a	n/a	n/a	n/a
1507.848	n/a	REC_WORD	753924	wordpools/wasnorm_wordpool_less_exclusions.txt	LTP180	ltpFR	0	5	0	LAWN	805	n/a	0	n/a	n/a	n/a	n/a	n/a
1508.292	n/a	REC_WORD	754146	wordpools/wasnorm_wordpool_less_exclusions.txt	LTP180	ltpFR	0	5	0	TEA	1439	n/a	1	n/a	n/a	n/a	n/a	n/a
1509.084	n/a	REC_WORD	754542	wordpools/wasnorm_wordpool_less_exclusions.txt	LTP180	ltpFR	0	5	0	MUG	930	n/a	1	n/a	n/a	n/a	n/a	n/a
1509.678	n/a	REC_WORD	754839	wordpools/wasnorm_wordpool_less_exclusions.txt	LTP180	ltpFR	0	5	n/a	PITCHER	-1	n/a	n/a	n/a	n/a	n/a	n/a	n/a
1510.756	n/a	REC_WORD	755378	wordpools/wasnorm_wordpool_less_exclusions.txt	LTP180	ltpFR	0	5	0	UNIVERSE	1540	n/a	n/a	n/a	n/a	n/a	n/a	n/a
1511.958	n/a	REC_WORD	755979	wordpools/wasnorm_wordpool_less_exclusions.txt	LTP180	ltpFR	0	5	0	METEOR	889	n/a	1	n/a	n/a	n/a	n/a	n/a
1518.244	n/a	REC_WORD	759122	wordpools/wasnorm_wordpool_less_exclusions.txt	LTP180	ltpFR	0	5	0	TOOTHPASTE	1483	n/a	1	n/a	n/a	n/a	n/a	n/a
1520.852	n/a	REC_WORD_VV	760426	wordpools/wasnorm_wordpool_less_exclusions.txt	LTP180	ltpFR	0	5	n/a	<>	-1	n/a	n/a	n/a	n/a	n/a	n/a	n/a
1533.81	n/a	REC_WORD	766905	wordpools/wasnorm_wordpool_less_exclusions.txt	LTP180	ltpFR	0	5	0	UNIVERSE	1540	n/a	n/a	n/a	n/a	n/a	n/a	n/a
1548.238	n/a	WORD	774119	wordpools/wasnorm_wordpool_less_exclusions.txt	LTP180	ltpFR	0	6	0	FREEWAY	603	n/a	n/a	0	0.5869140625	0.422607421875	upper	../fonts/zerothre.ttf
1551.262	n/a	SLOW_MSG	775631	n/a	LTP180	ltpFR	0	6	n/a	n/a	n/a	n/a	n/a	n/a	n/a	n/a	n/a	n/a
1553.88	n/a	WORD	776940	wordpools/wasnorm_wordpool_less_exclusions.txt	LTP180	ltpFR	0	6	0	FRUIT	610	n/a	1	0	0.5869140625	0.422607421875	upper	../fonts/zerothre.ttf
1557.852	n/a	WORD	778926	wordpools/wasnorm_wordpool_less_exclusions.txt	LTP180	ltpFR	0	6	0	TEAPOT	1442	n/a	0	0	0.5869140625	0.422607421875	upper	../fonts/zerothre.ttf
1561.836	n/a	WORD	780918	wordpools/wasnorm_wordpool_less_exclusions.txt	LTP180	ltpFR	0	6	0	SINK	1309	n/a	0	0	0.5869140625	0.422607421875	upper	../fonts/zerothre.ttf
1565.65	n/a	WORD	782825	wordpools/wasnorm_wordpool_less_exclusions.txt	LTP180	ltpFR	0	6	0	WALRUS	1585	n/a	0	0	0.5869140625	0.422607421875	upper	../fonts/zerothre.ttf
1569.548	n/a	WORD	784774	wordpools/wasnorm_wordpool_less_exclusions.txt	LTP180	ltpFR	0	6	0	WOLF	1619	n/a	0	0	0.5869140625	0.422607421875	upper	../fonts/zerothre.ttf
1573.622	n/a	WORD	786811	wordpools/wasnorm_wordpool_less_exclusions.txt	LTP180	ltpFR	0	6	0	APRON	35	n/a	1	0	0.5869140625	0.422607421875	upper	../fonts/zerothre.ttf
1577.814	n/a	WORD	788907	wordpools/wasnorm_wordpool_less_exclusions.txt	LTP180	ltpFR	0	6	0	LACE	792	n/a	1	0	0.5869140625	0.422607421875	upper	../fonts/zerothre.ttf
1581.654	n/a	WORD	790827	wordpools/wasnorm_wordpool_less_exclusions.txt	LTP180	ltpFR	0	6	0	ANCHOR	21	n/a	0	0	0.5869140625	0.422607421875	upper	../fonts/zerothre.ttf
1585.536	n/a	WORD	792768	wordpools/wasnorm_wordpool_less_exclusions.txt	LTP180	ltpFR	0	6	0	CORAL	378	n/a	0	0	0.5869140625	0.422607421875	upper	../fonts/zerothre.ttf
1589.35	n/a	WORD	794675	wordpools/wasnorm_wordpool_less_exclusions.txt	LTP180	ltpFR	0	6	0	SHOE	1288	n/a	1	0	0.5869140625	0.422607421875	upper	../fonts/zerothre.ttf
1593.55	n/a	WORD	796775	wordpools/wasnorm_wordpool_less_exclusions.txt	LTP180	ltpFR	0	6	0	DINER	467	n/a	0	0	0.5869140625	0.422607421875	upper	../fonts/zerothre.ttf
1597.466	n/a	WORD	798733	wordpools/wasnorm_wordpool_less_exclusions.txt	LTP180	ltpFR	0	6	0	DOCK	477	n/a	0	0	0.5869140625	0.422607421875	upper	../fonts/zerothre.ttf
1601.464	n/a	WORD	800732	wordpools/wasnorm_wordpool_less_exclusions.txt	LTP180	ltpFR	0	6	0	OBOE	969	n/a	0	0	0.5869140625	0.422607421875	upper	../fonts/zerothre.ttf
1605.488	n/a	WORD	802744	wordpools/wasnorm_wordpool_less_exclusions.txt	LTP180	ltpFR	0	6	0	BAND	78	n/a	1	0	0.5869140625	0.422607421875	upper	../fonts/zerothre.ttf
1609.37	n/a	WORD	804685	wordpools/wasnorm_wordpool_less_exclusions.txt	LTP180	ltpFR	0	6	0	STOMACH	1384	n/a	0	0	0.5869140625	0.422607421875	upper	../fonts/zerothre.ttf
1615.078	n/a	REC_START	807539	n/a	LTP180	ltpFR	0	6	n/a	n/a	n/a	n/a	n/a	n/a	n/a	n/a	n/a	n/a
1615.89	n/a	REC_WORD	807945	wordpools/wasnorm_wordpool_less_exclusions.txt	LTP180	ltpFR	0	6	0	STOMACH	1384	n/a	0	n/a	n/a	n/a	n/a	n/a
1616.444	n/a	REC_WORD	808222	wordpools/wasnorm_wordpool_less_exclusions.txt	LTP180	ltpFR	0	6	n/a	VAN	1548	n/a	n/a	n/a	n/a	n/a	n/a	n/a
1617.082	n/a	REC_WORD	808541	wordpools/wasnorm_wordpool_less_exclusions.txt	LTP180	ltpFR	0	6	0	OBOE	969	n/a	0	n/a	n/a	n/a	n/a	n/a
1618.436	n/a	REC_WORD_VV	809218	wordpools/wasnorm_wordpool_less_exclusions.txt	LTP180	ltpFR	0	6	n/a	<>	-1	n/a	n/a	n/a	n/a	n/a	n/a	n/a
1620.21	n/a	REC_WORD	810105	wordpools/wasnorm_wordpool_less_exclusions.txt	LTP180	ltpFR	0	6	0	WALRUS	1585	n/a	0	n/a	n/a	n/a	n/a	n/a
1627.168	n/a	REC_WORD_VV	813584	wordpools/wasnorm_wordpool_less_exclusions.txt	LTP180	ltpFR	0	6	n/a	<>	-1	n/a	n/a	n/a	n/a	n/a	n/a	n/a
1695.244	n/a	WORD	847622	wordpools/wasnorm_wordpool_less_exclusions.txt	LTP180	ltpFR	0	7	0	CELERY	266	n/a	n/a	0	0.5869140625	0.422607421875	upper	../fonts/zerothre.ttf
1698.268	n/a	SLOW_MSG	849134	n/a	LTP180	ltpFR	0	7	n/a	n/a	n/a	n/a	n/a	n/a	n/a	n/a	n/a	n/a
1700.71	n/a	WORD	850355	wordpools/wasnorm_wordpool_less_exclusions.txt	LTP180	ltpFR	0	7	0	TORTOISE	1486	n/a	n/a	0	0.5869140625	0.422607421875	upper	../fonts/zerothre.ttf
1703.734	n/a	SLOW_MSG	851867	n/a	LTP180	ltpFR	0	7	n/a	n/a	n/a	n/a	n/a	n/a	n/a	n/a	n/a	n/a
1706.224	n/a	WORD	853112	wordpools/wasnorm_wordpool_less_exclusions.txt	LTP180	ltpFR	0	7	0	STEREO	1378	n/a	n/a	0	0.5869140625	0.422607421875	upper	../fonts/zerothre.ttf
1709.248	n/a	SLOW_MSG	854624	n/a	LTP180	ltpFR	0	7	n/a	n/a	n/a	n/a	n/a	n/a	n/a	n/a	n/a	n/a
1711.716	n/a	WORD	855858	wordpools/wasnorm_wordpool_less_exclusions.txt	LTP180	ltpFR	0	7	0	BEAVER	109	n/a	n/a	0	0.5869140625	0.422607421875	upper	../fonts/zerothre.ttf
1714.74	n/a	SLOW_MSG	857370	n/a	LTP180	ltpFR	0	7	n/a	n/a	n/a	n/a	n/a	n/a	n/a	n/a	n/a	n/a
1717.438	n/a	WORD	858719	wordpools/wasnorm_wordpool_less_exclusions.txt	LTP180	ltpFR	0	7	0	LAPEL	800	n/a	n/a	0	0.5869140625	0.422607421875	upper	../fonts/zerothre.ttf
1720.462	n/a	SLOW_MSG	860231	n/a	LTP180	ltpFR	0	7	n/a	n/a	n/a	n/a	n/a	n/a	n/a	n/a	n/a	n/a
1723.144	n/a	WORD	861572	wordpools/wasnorm_wordpool_less_exclusions.txt	LTP180	ltpFR	0	7	0	COCKTAIL	338	n/a	1	0	0.5869140625	0.422607421875	upper	../fonts/zerothre.ttf
1727.044	n/a	WORD	863522	wordpools/wasnorm_wordpool_less_exclusions.txt	LTP180	ltpFR	0	7	0	BEVERAGE	123	n/a	1	0	0.5869140625	0.422607421875	upper	../fonts/zerothre.ttf
1731.092	n/a	WORD	865546	wordpools/wasnorm_wordpool_less_exclusions.txt	LTP180	ltpFR	0	7	0	MAGNET	855	n/a	1	0	0.5869140625	0.422607421875	upper	../fonts/zerothre.ttf
1734.956	n/a	WORD	867478	wordpools/wasnorm_wordpool_less_exclusions.txt	LTP180	ltpFR	0	7	0	COMPASS	358	n/a	1	0	0.5869140625	0.422607421875	upper	../fonts/zerothre.ttf
1738.856	n/a	WORD	869428	wordpools/wasnorm_wordpool_less_exclusions.txt	LTP180	ltpFR	0	7	0	DUNE	506	n/a	0	0	0.5869140625	0.422607421875	upper	../fonts/zerothre.ttf
1742.706	n/a	WORD	871353	wordpools/wasnorm_wordpool_less_exclusions.txt	LTP180	ltpFR	0	7	0	HEN	703	n/a	0	0	0.5869140625	0.422607421875	upper	../fonts/zerothre.ttf
1746.83	n/a	WORD	873415	wordpools/wasnorm_wordpool_less_exclusions.txt	LTP180	ltpFR	0	7	0	DOLLAR	482	n/a	1	0	0.5869140625	0.422607421875	upper	../fonts/zerothre.ttf
1751.018	n/a	WORD	875509	wordpools/wasnorm_wordpool_less_exclusions.txt	LTP180	ltpFR	0	7	0	JET	756	n/a	0	0	0.5869140625	0.422607421875	upper	../fonts/zerothre.ttf
1754.942	n/a	WORD	877471	wordpools/wasnorm_wordpool_less_exclusions.txt	LTP180	ltpFR	0	7	0	ANTENNA	28	n/a	0	0	0.5869140625	0.422607421875	upper	../fonts/zerothre.ttf
1758.858	n/a	WORD	879429	wordpools/wasnorm_wordpool_less_exclusions.txt	LTP180	ltpFR	0	7	0	SUIT	1402	n/a	1	0	0.5869140625	0.422607421875	upper	../fonts/zerothre.ttf
1762.898	n/a	WORD	881449	wordpools/wasnorm_wordpool_less_exclusions.txt	LTP180	ltpFR	0	7	0	AIRPLANE	12	n/a	0	0	0.5869140625	0.422607421875	upper	../fonts/zerothre.ttf
1768.898	n/a	REC_START	884449	n/a	LTP180	ltpFR	0	7	n/a	n/a	n/a	n/a	n/a	n/a	n/a	n/a	n/a	n/a
1770.088	n/a	REC_WORD	885044	wordpools/wasnorm_wordpool_less_exclusions.txt	LTP180	ltpFR	0	7	0	AIRPLANE	12	n/a	0	n/a	n/a	n/a	n/a	n/a
1770.658	n/a	REC_WORD	885329	wordpools/wasnorm_wordpool_less_exclusions.txt	LTP180	ltpFR	0	7	0	SUIT	1402	n/a	1	n/a	n/a	n/a	n/a	n/a
1771.276	n/a	REC_WORD	885638	wordpools/wasnorm_wordpool_less_exclusions.txt	LTP180	ltpFR	0	7	0	JET	756	n/a	0	n/a	n/a	n/a	n/a	n/a
1772.244	n/a	REC_WORD	886122	wordpools/wasnorm_wordpool_less_exclusions.txt	LTP180	ltpFR	0	7	0	TORTOISE	1486	n/a	n/a	n/a	n/a	n/a	n/a	n/a
1780.926	n/a	REC_WORD_VV	890463	wordpools/wasnorm_wordpool_less_exclusions.txt	LTP180	ltpFR	0	7	n/a	<>	-1	n/a	n/a	n/a	n/a	n/a	n/a	n/a
1786.698	n/a	REC_WORD_VV	893349	wordpools/wasnorm_wordpool_less_exclusions.txt	LTP180	ltpFR	0	7	n/a	<>	-1	n/a	n/a	n/a	n/a	n/a	n/a	n/a
1788.438	n/a	REC_WORD	894219	wordpools/wasnorm_wordpool_less_exclusions.txt	LTP180	ltpFR	0	7	0	WALRUS	1585	n/a	0	n/a	n/a	n/a	n/a	n/a
1792.574	n/a	REC_WORD	896287	wordpools/wasnorm_wordpool_less_exclusions.txt	LTP180	ltpFR	0	7	0	SUIT	1402	n/a	1	n/a	n/a	n/a	n/a	n/a
1806.916	n/a	REC_WORD	903458	wordpools/wasnorm_wordpool_less_exclusions.txt	LTP180	ltpFR	0	7	0	SUIT	1402	n/a	1	n/a	n/a	n/a	n/a	n/a
1848.664	n/a	WORD	924332	wordpools/wasnorm_wordpool_less_exclusions.txt	LTP180	ltpFR	0	8	0	HOOP	716	n/a	n/a	0	0.5869140625	0.422607421875	upper	../fonts/zerothre.ttf
1851.69	n/a	SLOW_MSG	925845	n/a	LTP180	ltpFR	0	8	n/a	n/a	n/a	n/a	n/a	n/a	n/a	n/a	n/a	n/a
1854.304	n/a	WORD	927152	wordpools/wasnorm_wordpool_less_exclusions.txt	LTP180	ltpFR	0	8	0	HELICOPTER	701	n/a	0	0	0.5869140625	0.422607421875	upper	../fonts/zerothre.ttf
1858.146	n/a	WORD	929073	wordpools/wasnorm_wordpool_less_exclusions.txt	LTP180	ltpFR	0	8	0	COMB	351	n/a	1	0	0.5869140625	0.422607421875	upper	../fonts/zerothre.ttf
1862.26	n/a	WORD	931130	wordpools/wasnorm_wordpool_less_exclusions.txt	LTP180	ltpFR	0	8	0	PLUMBER	1091	n/a	0	0	0.5869140625	0.422607421875	upper	../fonts/zerothre.ttf
1866.358	n/a	WORD	933179	wordpools/wasnorm_wordpool_less_exclusions.txt	LTP180	ltpFR	0	8	0	CONCRETE	361	n/a	1	0	0.5869140625	0.422607421875	upper	../fonts/zerothre.ttf
1870.44	n/a	WORD	935220	wordpools/wasnorm_wordpool_less_exclusions.txt	LTP180	ltpFR	0	8	0	PLASTER	1085	n/a	1	0	0.5869140625	0.422607421875	upper	../fonts/zerothre.ttf
1874.466	n/a	WORD	937233	wordpools/wasnorm_wordpool_less_exclusions.txt	LTP180	ltpFR	0	8	0	DRESSER	496	n/a	0	0	0.5869140625	0.422607421875	upper	../fonts/zerothre.ttf
1878.314	n/a	WORD	939157	wordpools/wasnorm_wordpool_less_exclusions.txt	LTP180	ltpFR	0	8	0	WRENCH	1625	n/a	1	0	0.5869140625	0.422607421875	upper	../fonts/zerothre.ttf
1882.246	n/a	WORD	941123	wordpools/wasnorm_wordpool_less_exclusions.txt	LTP180	ltpFR	0	8	0	WITCH	1617	n/a	0	0	0.5869140625	0.422607421875	upper	../fonts/zerothre.ttf
1886.428	n/a	WORD	943214	wordpools/wasnorm_wordpool_less_exclusions.txt	LTP180	ltpFR	0	8	0	HAMPER	682	n/a	0	0	0.5869140625	0.422607421875	upper	../fonts/zerothre.ttf
1890.426	n/a	WORD	945213	wordpools/wasnorm_wordpool_less_exclusions.txt	LTP180	ltpFR	0	8	0	UNDERWEAR	1537	n/a	1	0	0.5869140625	0.422607421875	upper	../fonts/zerothre.ttf
1894.3	n/a	WORD	947150	wordpools/wasnorm_wordpool_less_exclusions.txt	LTP180	ltpFR	0	8	0	ATTIRE	57	n/a	1	0	0.5869140625	0.422607421875	upper	../fonts/zerothre.ttf
1898.192	n/a	WORD	949096	wordpools/wasnorm_wordpool_less_exclusions.txt	LTP180	ltpFR	0	8	0	PAW	1029	n/a	1	0	0.5869140625	0.422607421875	upper	../fonts/zerothre.ttf
1902.114	n/a	WORD	951057	wordpools/wasnorm_wordpool_less_exclusions.txt	LTP180	ltpFR	0	8	0	COLLAR	345	n/a	1	0	0.5869140625	0.422607421875	upper	../fonts/zerothre.ttf
1906.314	n/a	WORD	953157	wordpools/wasnorm_wordpool_less_exclusions.txt	LTP180	ltpFR	0	8	0	MAJOR	859	n/a	0	0	0.5869140625	0.422607421875	upper	../fonts/zerothre.ttf
1910.288	n/a	WORD	955144	wordpools/wasnorm_wordpool_less_exclusions.txt	LTP180	ltpFR	0	8	0	DANDRUFF	439	n/a	1	0	0.5869140625	0.422607421875	upper	../fonts/zerothre.ttf
1916.012	n/a	REC_START	958006	n/a	LTP180	ltpFR	0	8	n/a	n/a	n/a	n/a	n/a	n/a	n/a	n/a	n/a	n/a
1916.684	n/a	REC_WORD	958342	wordpools/wasnorm_wordpool_less_exclusions.txt	LTP180	ltpFR	0	8	0	DANDRUFF	439	n/a	1	n/a	n/a	n/a	n/a	n/a
1917.482	n/a	REC_WORD	958741	wordpools/wasnorm_wordpool_less_exclusions.txt	LTP180	ltpFR	0	8	0	MAJOR	859	n/a	0	n/a	n/a	n/a	n/a	n/a
1918.626	n/a	REC_WORD	959313	wordpools/wasnorm_wordpool_less_exclusions.txt	LTP180	ltpFR	0	8	0	ATTIRE	57	n/a	1	n/a	n/a	n/a	n/a	n/a
1921.384	n/a	REC_WORD	960692	wordpools/wasnorm_wordpool_less_exclusions.txt	LTP180	ltpFR	0	8	0	COLLAR	345	n/a	1	n/a	n/a	n/a	n/a	n/a
1926.932	n/a	REC_WORD	963466	wordpools/wasnorm_wordpool_less_exclusions.txt	LTP180	ltpFR	0	8	0	PAW	1029	n/a	1	n/a	n/a	n/a	n/a	n/a
1929.522	n/a	REC_WORD	964761	wordpools/wasnorm_wordpool_less_exclusions.txt	LTP180	ltpFR	0	8	0	PAW	1029	n/a	1	n/a	n/a	n/a	n/a	n/a
1930.424	n/a	REC_WORD	965212	wordpools/wasnorm_wordpool_less_exclusions.txt	LTP180	ltpFR	0	8	0	PAW	1029	n/a	1	n/a	n/a	n/a	n/a	n/a
1931.09	n/a	REC_WORD	965545	wordpools/wasnorm_wordpool_less_exclusions.txt	LTP180	ltpFR	0	8	0	MAJOR	859	n/a	0	n/a	n/a	n/a	n/a	n/a
1938.466	n/a	REC_WORD	969233	wordpools/wasnorm_wordpool_less_exclusions.txt	LTP180	ltpFR	0	8	0	DANDRUFF	439	n/a	1	n/a	n/a	n/a	n/a	n/a
1995.004	n/a	WORD	997502	wordpools/wasnorm_wordpool_less_exclusions.txt	LTP180	ltpFR	0	9	1	MOSQUITO	917	n/a	n/a	1	0.412841796875	0.57763671875	lower	../fonts/amplitud.ttf
1998.028	n/a	SLOW_MSG	999014	n/a	LTP180	ltpFR	0	9	n/a	n/a	n/a	n/a	n/a	n/a	n/a	n/a	n/a	n/a
2000.594	n/a	WORD	1000297	wordpools/wasnorm_wordpool_less_exclusions.txt	LTP180	ltpFR	0	9	1	CAFE	216	n/a	1	1	0.412841796875	0.57763671875	lower	../fonts/amplitud.ttf
2004.676	n/a	WORD	1002338	wordpools/wasnorm_wordpool_less_exclusions.txt	LTP180	ltpFR	0	9	1	WRIST	1626	n/a	1	1	0.412841796875	0.57763671875	lower	../fonts/amplitud.ttf
2008.858	n/a	WORD	1004429	wordpools/wasnorm_wordpool_less_exclusions.txt	LTP180	ltpFR	0	9	1	FINGER	567	n/a	1	1	0.412841796875	0.57763671875	lower	../fonts/amplitud.ttf
2012.74	n/a	WORD	1006370	wordpools/wasnorm_wordpool_less_exclusions.txt	LTP180	ltpFR	0	9	1	SAUSAGE	1238	n/a	0	1	0.412841796875	0.57763671875	lower	../fonts/amplitud.ttf
2016.606	n/a	WORD	1008303	wordpools/wasnorm_wordpool_less_exclusions.txt	LTP180	ltpFR	0	9	1	BUS	201	n/a	0	1	0.412841796875	0.57763671875	lower	../fonts/amplitud.ttf
2020.686	n/a	WORD	1010343	wordpools/wasnorm_wordpool_less_exclusions.txt	LTP180	ltpFR	0	9	1	COYOTE	396	n/a	1	1	0.412841796875	0.57763671875	lower	../fonts/amplitud.ttf
2024.762	n/a	WORD	1012381	wordpools/wasnorm_wordpool_less_exclusions.txt	LTP180	ltpFR	0	9	1	MARKER	870	n/a	0	1	0.412841796875	0.57763671875	lower	../fonts/amplitud.ttf
2028.91	n/a	WORD	1014455	wordpools/wasnorm_wordpool_less_exclusions.txt	LTP180	ltpFR	0	9	1	DUSTPAN	509	n/a	0	1	0.412841796875	0.57763671875	lower	../fonts/amplitud.ttf
2033.042	n/a	WORD	1016521	wordpools/wasnorm_wordpool_less_exclusions.txt	LTP180	ltpFR	0	9	1	WITNESS	1618	n/a	1	1	0.412841796875	0.57763671875	lower	../fonts/amplitud.ttf
2036.858	n/a	WORD	1018429	wordpools/wasnorm_wordpool_less_exclusions.txt	LTP180	ltpFR	0	9	1	LAWYER	806	n/a	1	1	0.412841796875	0.57763671875	lower	../fonts/amplitud.ttf
2041.022	n/a	WORD	1020511	wordpools/wasnorm_wordpool_less_exclusions.txt	LTP180	ltpFR	0	9	1	MOLECULE	905	n/a	1	1	0.412841796875	0.57763671875	lower	../fonts/amplitud.ttf
2044.988	n/a	WORD	1022494	wordpools/wasnorm_wordpool_less_exclusions.txt	LTP180	ltpFR	0	9	1	VAN	1548	n/a	0	1	0.412841796875	0.57763671875	lower	../fonts/amplitud.ttf
2048.978	n/a	WORD	1024489	wordpools/wasnorm_wordpool_less_exclusions.txt	LTP180	ltpFR	0	9	1	TOENAIL	1474	n/a	1	1	0.412841796875	0.57763671875	lower	../fonts/amplitud.ttf
2052.828	n/a	WORD	1026414	wordpools/wasnorm_wordpool_less_exclusions.txt	LTP180	ltpFR	0	9	1	RACK	1154	n/a	0	1	0.412841796875	0.57763671875	lower	../fonts/amplitud.ttf
2056.992	n/a	WORD	1028496	wordpools/wasnorm_wordpool_less_exclusions.txt	LTP180	ltpFR	0	9	1	PRAIRIE	1118	n/a	1	1	0.412841796875	0.57763671875	lower	../fonts/amplitud.ttf
2062.71	n/a	REC_START	1031355	n/a	LTP180	ltpFR	0	9	n/a	n/a	n/a	n/a	n/a	n/a	n/a	n/a	n/a	n/a
2063.358	n/a	REC_WORD	1031679	wordpools/wasnorm_wordpool_less_exclusions.txt	LTP180	ltpFR	0	9	1	PRAIRIE	1118	n/a	1	n/a	n/a	n/a	n/a	n/a
2063.788	n/a	REC_WORD	1031894	wordpools/wasnorm_wordpool_less_exclusions.txt	LTP180	ltpFR	0	9	1	TOENAIL	1474	n/a	1	n/a	n/a	n/a	n/a	n/a
2064.606	n/a	REC_WORD_VV	1032303	wordpools/wasnorm_wordpool_less_exclusions.txt	LTP180	ltpFR	0	9	n/a	<>	-1	n/a	n/a	n/a	n/a	n/a	n/a	n/a
2065.19	n/a	REC_WORD	1032595	wordpools/wasnorm_wordpool_less_exclusions.txt	LTP180	ltpFR	0	9	1	MOSQUITO	917	n/a	n/a	n/a	n/a	n/a	n/a	n/a
2072.364	n/a	REC_WORD_VV	1036182	wordpools/wasnorm_wordpool_less_exclusions.txt	LTP180	ltpFR	0	9	n/a	<>	-1	n/a	n/a	n/a	n/a	n/a	n/a	n/a
2073.364	n/a	REC_WORD_VV	1036682	wordpools/wasnorm_wordpool_less_exclusions.txt	LTP180	ltpFR	0	9	n/a	<>	-1	n/a	n/a	n/a	n/a	n/a	n/a	n/a
2081.448	n/a	REC_WORD	1040724	wordpools/wasnorm_wordpool_less_exclusions.txt	LTP180	ltpFR	0	9	1	PRAIRIE	1118	n/a	1	n/a	n/a	n/a	n/a	n/a
2089.102	n/a	REC_WORD	1044551	wordpools/wasnorm_wordpool_less_exclusions.txt	LTP180	ltpFR	0	9	1	BUS	201	n/a	0	n/a	n/a	n/a	n/a	n/a
2109.834	n/a	REC_WORD	1054917	wordpools/wasnorm_wordpool_less_exclusions.txt	LTP180	ltpFR	0	9	1	COYOTE	396	n/a	1	n/a	n/a	n/a	n/a	n/a
2144.45	n/a	WORD	1072225	wordpools/wasnorm_wordpool_less_exclusions.txt	LTP180	ltpFR	0	10	1	ANIMAL	23	n/a	1	1	0.412841796875	0.57763671875	lower	../fonts/amplitud.ttf
2148.374	n/a	WORD	1074187	wordpools/wasnorm_wordpool_less_exclusions.txt	LTP180	ltpFR	0	10	1	VELVET	1555	n/a	0	1	0.412841796875	0.57763671875	lower	../fonts/amplitud.ttf
2152.506	n/a	WORD	1076253	wordpools/wasnorm_wordpool_less_exclusions.txt	LTP180	ltpFR	0	10	1	CHILD	299	n/a	1	1	0.412841796875	0.57763671875	lower	../fonts/amplitud.ttf
2156.664	n/a	WORD	1078332	wordpools/wasnorm_wordpool_less_exclusions.txt	LTP180	ltpFR	0	10	1	CHAPEL	280	n/a	0	1	0.412841796875	0.57763671875	lower	../fonts/amplitud.ttf
2160.612	n/a	WORD	1080306	wordpools/wasnorm_wordpool_less_exclusions.txt	LTP180	ltpFR	0	10	1	SCARF	1246	n/a	0	1	0.412841796875	0.57763671875	lower	../fonts/amplitud.ttf
2164.636	n/a	WORD	1082318	wordpools/wasnorm_wordpool_less_exclusions.txt	LTP180	ltpFR	0	10	1	PASTRY	1022	n/a	0	1	0.412841796875	0.57763671875	lower	../fonts/amplitud.ttf
2168.484	n/a	WORD	1084242	wordpools/wasnorm_wordpool_less_exclusions.txt	LTP180	ltpFR	0	10	1	LAVA	804	n/a	0	1	0.412841796875	0.57763671875	lower	../fonts/amplitud.ttf
2172.474	n/a	WORD	1086237	wordpools/wasnorm_wordpool_less_exclusions.txt	LTP180	ltpFR	0	10	1	CHEERLEADER	288	n/a	1	1	0.412841796875	0.57763671875	lower	../fonts/amplitud.ttf
2176.548	n/a	WORD	1088274	wordpools/wasnorm_wordpool_less_exclusions.txt	LTP180	ltpFR	0	10	1	PEARL	1034	n/a	0	1	0.412841796875	0.57763671875	lower	../fonts/amplitud.ttf
2180.398	n/a	WORD	1090199	wordpools/wasnorm_wordpool_less_exclusions.txt	LTP180	ltpFR	0	10	1	NECKLACE	940	n/a	0	1	0.412841796875	0.57763671875	lower	../fonts/amplitud.ttf
2184.396	n/a	WORD	1092198	wordpools/wasnorm_wordpool_less_exclusions.txt	LTP180	ltpFR	0	10	1	RACCOON	1153	n/a	1	1	0.412841796875	0.57763671875	lower	../fonts/amplitud.ttf
2188.412	n/a	WORD	1094206	wordpools/wasnorm_wordpool_less_exclusions.txt	LTP180	ltpFR	0	10	1	BIBLE	124	n/a	0	1	0.412841796875	0.57763671875	lower	../fonts/amplitud.ttf
2192.618	n/a	WORD	1096309	wordpools/wasnorm_wordpool_less_exclusions.txt	LTP180	ltpFR	0	10	1	BEAKER	104	n/a	0	1	0.412841796875	0.57763671875	lower	../fonts/amplitud.ttf
2196.652	n/a	WORD	1098326	wordpools/wasnorm_wordpool_less_exclusions.txt	LTP180	ltpFR	0	10	1	ELECTRON	522	n/a	1	1	0.412841796875	0.57763671875	lower	../fonts/amplitud.ttf
2200.558	n/a	WORD	1100279	wordpools/wasnorm_wordpool_less_exclusions.txt	LTP180	ltpFR	0	10	1	LIVER	833	n/a	1	1	0.412841796875	0.57763671875	lower	../fonts/amplitud.ttf
2204.614	n/a	WORD	1102307	wordpools/wasnorm_wordpool_less_exclusions.txt	LTP180	ltpFR	0	10	1	ARTERY	41	n/a	1	1	0.412841796875	0.57763671875	lower	../fonts/amplitud.ttf
2210.18	n/a	REC_START	1105090	n/a	LTP180	ltpFR	0	10	n/a	n/a	n/a	n/a	n/a	n/a	n/a	n/a	n/a	n/a
2210.594	n/a	REC_WORD	1105297	wordpools/wasnorm_wordpool_less_exclusions.txt	LTP180	ltpFR	0	10	1	ELECTRON	522	n/a	1	n/a	n/a	n/a	n/a	n/a
2211.458	n/a	REC_WORD	1105729	wordpools/wasnorm_wordpool_less_exclusions.txt	LTP180	ltpFR	0	10	1	CHILD	299	n/a	1	n/a	n/a	n/a	n/a	n/a
2212.322	n/a	REC_WORD_VV	1106161	wordpools/wasnorm_wordpool_less_exclusions.txt	LTP180	ltpFR	0	10	n/a	<>	-1	n/a	n/a	n/a	n/a	n/a	n/a	n/a
2215.554	n/a	REC_WORD	1107777	wordpools/wasnorm_wordpool_less_exclusions.txt	LTP180	ltpFR	0	10	1	ARTERY	41	n/a	1	n/a	n/a	n/a	n/a	n/a
2226.828	n/a	REC_WORD	1113414	wordpools/wasnorm_wordpool_less_exclusions.txt	LTP180	ltpFR	0	10	1	LIVER	833	n/a	1	n/a	n/a	n/a	n/a	n/a
2232.592	n/a	REC_WORD	1116296	wordpools/wasnorm_wordpool_less_exclusions.txt	LTP180	ltpFR	0	10	1	ELECTRON	522	n/a	1	n/a	n/a	n/a	n/a	n/a
2246.04	n/a	REC_WORD	1123020	wordpools/wasnorm_wordpool_less_exclusions.txt	LTP180	ltpFR	0	10	1	ANIMAL	23	n/a	1	n/a	n/a	n/a	n/a	n/a
2258.04	n/a	REC_WORD_VV	1129020	wordpools/wasnorm_wordpool_less_exclusions.txt	LTP180	ltpFR	0	10	n/a	<>	-1	n/a	n/a	n/a	n/a	n/a	n/a	n/a
2258.23	n/a	REC_WORD	1129115	wordpools/wasnorm_wordpool_less_exclusions.txt	LTP180	ltpFR	0	10	1	TOENAIL	1474	n/a	1	n/a	n/a	n/a	n/a	n/a
2291.372	n/a	WORD	1145686	wordpools/wasnorm_wordpool_less_exclusions.txt	LTP180	ltpFR	0	11	1	CABOOSE	214	n/a	n/a	1	0.412841796875	0.57763671875	lower	../fonts/amplitud.ttf
2294.396	n/a	SLOW_MSG	1147198	n/a	LTP180	ltpFR	0	11	n/a	n/a	n/a	n/a	n/a	n/a	n/a	n/a	n/a	n/a
2296.804	n/a	WORD	1148402	wordpools/wasnorm_wordpool_less_exclusions.txt	LTP180	ltpFR	0	11	1	SLOPE	1328	n/a	n/a	1	0.412841796875	0.57763671875	lower	../fonts/amplitud.ttf
2299.828	n/a	SLOW_MSG	1149914	n/a	LTP180	ltpFR	0	11	n/a	n/a	n/a	n/a	n/a	n/a	n/a	n/a	n/a	n/a
2302.286	n/a	WORD	1151143	wordpools/wasnorm_wordpool_less_exclusions.txt	LTP180	ltpFR	0	11	1	CREVICE	405	n/a	n/a	1	0.412841796875	0.57763671875	lower	../fonts/amplitud.ttf
2305.31	n/a	SLOW_MSG	1152655	n/a	LTP180	ltpFR	0	11	n/a	n/a	n/a	n/a	n/a	n/a	n/a	n/a	n/a	n/a
2308.01	n/a	WORD	1154005	wordpools/wasnorm_wordpool_less_exclusions.txt	LTP180	ltpFR	0	11	1	FAIRY	549	n/a	0	1	0.412841796875	0.57763671875	lower	../fonts/amplitud.ttf
2311.868	n/a	WORD	1155934	wordpools/wasnorm_wordpool_less_exclusions.txt	LTP180	ltpFR	0	11	1	CANOE	233	n/a	0	1	0.412841796875	0.57763671875	lower	../fonts/amplitud.ttf
2315.866	n/a	WORD	1157933	wordpools/wasnorm_wordpool_less_exclusions.txt	LTP180	ltpFR	0	11	1	PADDLE	1000	n/a	0	1	0.412841796875	0.57763671875	lower	../fonts/amplitud.ttf
2319.68	n/a	WORD	1159840	wordpools/wasnorm_wordpool_less_exclusions.txt	LTP180	ltpFR	0	11	1	CRATER	400	n/a	0	1	0.412841796875	0.57763671875	lower	../fonts/amplitud.ttf
2323.62	n/a	WORD	1161810	wordpools/wasnorm_wordpool_less_exclusions.txt	LTP180	ltpFR	0	11	1	IDOL	733	n/a	0	1	0.412841796875	0.57763671875	lower	../fonts/amplitud.ttf
2327.554	n/a	WORD	1163777	wordpools/wasnorm_wordpool_less_exclusions.txt	LTP180	ltpFR	0	11	1	GALLON	618	n/a	0	1	0.412841796875	0.57763671875	lower	../fonts/amplitud.ttf
2331.41	n/a	WORD	1165705	wordpools/wasnorm_wordpool_less_exclusions.txt	LTP180	ltpFR	0	11	1	CHICKEN	297	n/a	1	1	0.412841796875	0.57763671875	lower	../fonts/amplitud.ttf
2335.242	n/a	WORD	1167621	wordpools/wasnorm_wordpool_less_exclusions.txt	LTP180	ltpFR	0	11	1	MOUNTAIN	924	n/a	0	1	0.412841796875	0.57763671875	lower	../fonts/amplitud.ttf
2339.348	n/a	WORD	1169674	wordpools/wasnorm_wordpool_less_exclusions.txt	LTP180	ltpFR	0	11	1	TIDE	1465	n/a	0	1	0.412841796875	0.57763671875	lower	../fonts/amplitud.ttf
2343.414	n/a	WORD	1171707	wordpools/wasnorm_wordpool_less_exclusions.txt	LTP180	ltpFR	0	11	1	GROOM	665	n/a	1	1	0.412841796875	0.57763671875	lower	../fonts/amplitud.ttf
2347.23	n/a	WORD	1173615	wordpools/wasnorm_wordpool_less_exclusions.txt	LTP180	ltpFR	0	11	1	CLARINET	317	n/a	0	1	0.412841796875	0.57763671875	lower	../fonts/amplitud.ttf
2351.196	n/a	WORD	1175598	wordpools/wasnorm_wordpool_less_exclusions.txt	LTP180	ltpFR	0	11	1	CONDUCTOR	362	n/a	1	1	0.412841796875	0.57763671875	lower	../fonts/amplitud.ttf
2355.162	n/a	WORD	1177581	wordpools/wasnorm_wordpool_less_exclusions.txt	LTP180	ltpFR	0	11	1	ENGINEER	536	n/a	1	1	0.412841796875	0.57763671875	lower	../fonts/amplitud.ttf
2360.802	n/a	REC_START	1180401	n/a	LTP180	ltpFR	0	11	n/a	n/a	n/a	n/a	n/a	n/a	n/a	n/a	n/a	n/a
2361.14	n/a	REC_WORD_VV	1180570	wordpools/wasnorm_wordpool_less_exclusions.txt	LTP180	ltpFR	0	11	n/a	<>	-1	n/a	n/a	n/a	n/a	n/a	n/a	n/a
2361.34	n/a	REC_WORD	1180670	wordpools/wasnorm_wordpool_less_exclusions.txt	LTP180	ltpFR	0	11	1	CLARINET	317	n/a	0	n/a	n/a	n/a	n/a	n/a
2361.854	n/a	REC_WORD	1180927	wordpools/wasnorm_wordpool_less_exclusions.txt	LTP180	ltpFR	0	11	1	TIDE	1465	n/a	0	n/a	n/a	n/a	n/a	n/a
2362.748	n/a	REC_WORD	1181374	wordpools/wasnorm_wordpool_less_exclusions.txt	LTP180	ltpFR	0	11	1	ENGINEER	536	n/a	1	n/a	n/a	n/a	n/a	n/a
2364.504	n/a	REC_WORD_VV	1182252	wordpools/wasnorm_wordpool_less_exclusions.txt	LTP180	ltpFR	0	11	n/a	<>	-1	n/a	n/a	n/a	n/a	n/a	n/a	n/a
2366.66	n/a	REC_WORD_VV	1183330	wordpools/wasnorm_wordpool_less_exclusions.txt	LTP180	ltpFR	0	11	n/a	<>	-1	n/a	n/a	n/a	n/a	n/a	n/a	n/a
2367.66	n/a	REC_WORD_VV	1183830	wordpools/wasnorm_wordpool_less_exclusions.txt	LTP180	ltpFR	0	11	n/a	<>	-1	n/a	n/a	n/a	n/a	n/a	n/a	n/a
2376.786	n/a	REC_WORD_VV	1188393	wordpools/wasnorm_wordpool_less_exclusions.txt	LTP180	ltpFR	0	11	n/a	<>	-1	n/a	n/a	n/a	n/a	n/a	n/a	n/a
2377.786	n/a	REC_WORD_VV	1188893	wordpools/wasnorm_wordpool_less_exclusions.txt	LTP180	ltpFR	0	11	n/a	<>	-1	n/a	n/a	n/a	n/a	n/a	n/a	n/a
2381.752	n/a	REC_WORD	1190876	wordpools/wasnorm_wordpool_less_exclusions.txt	LTP180	ltpFR	0	11	1	CHICKEN	297	n/a	1	n/a	n/a	n/a	n/a	n/a
2397.312	n/a	REC_WORD	1198656	wordpools/wasnorm_wordpool_less_exclusions.txt	LTP180	ltpFR	0	11	1	CONDUCTOR	362	n/a	1	n/a	n/a	n/a	n/a	n/a
2442.786	n/a	WORD	1221393	wordpools/wasnorm_wordpool_less_exclusions.txt	LTP180	ltpFR	0	12	1	COLOGNE	347	n/a	0	1	0.412841796875	0.57763671875	lower	../fonts/amplitud.ttf
2446.7	n/a	WORD	1223350	wordpools/wasnorm_wordpool_less_exclusions.txt	LTP180	ltpFR	0	12	1	SKUNK	1321	n/a	1	1	0.412841796875	0.57763671875	lower	../fonts/amplitud.ttf
2450.884	n/a	WORD	1225442	wordpools/wasnorm_wordpool_less_exclusions.txt	LTP180	ltpFR	0	12	1	DIAPER	459	n/a	0	1	0.412841796875	0.57763671875	lower	../fonts/amplitud.ttf
2454.84	n/a	WORD	1227420	wordpools/wasnorm_wordpool_less_exclusions.txt	LTP180	ltpFR	0	12	1	LION	827	n/a	1	1	0.412841796875	0.57763671875	lower	../fonts/amplitud.ttf
2458.84	n/a	WORD	1229420	wordpools/wasnorm_wordpool_less_exclusions.txt	LTP180	ltpFR	0	12	1	SIGN	1305	n/a	0	1	0.412841796875	0.57763671875	lower	../fonts/amplitud.ttf
2462.854	n/a	WORD	1231427	wordpools/wasnorm_wordpool_less_exclusions.txt	LTP180	ltpFR	0	12	1	JOURNAL	760	n/a	0	1	0.412841796875	0.57763671875	lower	../fonts/amplitud.ttf
2466.71	n/a	WORD	1233355	wordpools/wasnorm_wordpool_less_exclusions.txt	LTP180	ltpFR	0	12	1	MAYONNAISE	880	n/a	0	1	0.412841796875	0.57763671875	lower	../fonts/amplitud.ttf
2470.818	n/a	WORD	1235409	wordpools/wasnorm_wordpool_less_exclusions.txt	LTP180	ltpFR	0	12	1	BAY	102	n/a	0	1	0.412841796875	0.57763671875	lower	../fonts/amplitud.ttf
2474.75	n/a	WORD	1237375	wordpools/wasnorm_wordpool_less_exclusions.txt	LTP180	ltpFR	0	12	1	RECIPE	1175	n/a	0	1	0.412841796875	0.57763671875	lower	../fonts/amplitud.ttf
2478.59	n/a	WORD	1239295	wordpools/wasnorm_wordpool_less_exclusions.txt	LTP180	ltpFR	0	12	1	OWL	992	n/a	n/a	1	0.412841796875	0.57763671875	lower	../fonts/amplitud.ttf
2481.614	n/a	SLOW_MSG	1240807	n/a	LTP180	ltpFR	0	12	n/a	n/a	n/a	n/a	n/a	n/a	n/a	n/a	n/a	n/a
2484.13	n/a	WORD	1242065	wordpools/wasnorm_wordpool_less_exclusions.txt	LTP180	ltpFR	0	12	1	CREEK	404	n/a	2	1	0.412841796875	0.57763671875	lower	../fonts/amplitud.ttf
2486.146	n/a	KEY_MSG	1243073	n/a	LTP180	ltpFR	0	12	n/a	n/a	n/a	n/a	n/a	n/a	n/a	n/a	n/a	n/a
2488.638	n/a	WORD	1244319	wordpools/wasnorm_wordpool_less_exclusions.txt	LTP180	ltpFR	0	12	1	SQUID	1361	n/a	n/a	1	0.412841796875	0.57763671875	lower	../fonts/amplitud.ttf
2491.662	n/a	SLOW_MSG	1245831	n/a	LTP180	ltpFR	0	12	n/a	n/a	n/a	n/a	n/a	n/a	n/a	n/a	n/a	n/a
2494.186	n/a	WORD	1247093	wordpools/wasnorm_wordpool_less_exclusions.txt	LTP180	ltpFR	0	12	1	STAPLE	1371	n/a	0	1	0.412841796875	0.57763671875	lower	../fonts/amplitud.ttf
2498.126	n/a	WORD	1249063	wordpools/wasnorm_wordpool_less_exclusions.txt	LTP180	ltpFR	0	12	1	NEWSSTAND	949	n/a	0	1	0.412841796875	0.57763671875	lower	../fonts/amplitud.ttf
2502.234	n/a	WORD	1251117	wordpools/wasnorm_wordpool_less_exclusions.txt	LTP180	ltpFR	0	12	1	GRILL	661	n/a	0	1	0.412841796875	0.57763671875	lower	../fonts/amplitud.ttf
2506.156	n/a	WORD	1253078	wordpools/wasnorm_wordpool_less_exclusions.txt	LTP180	ltpFR	0	12	1	QUAIL	1147	n/a	1	1	0.412841796875	0.57763671875	lower	../fonts/amplitud.ttf
2511.948	n/a	REC_START	1255974	n/a	LTP180	ltpFR	0	12	n/a	n/a	n/a	n/a	n/a	n/a	n/a	n/a	n/a	n/a
2512.162	n/a	REC_WORD	1256081	wordpools/wasnorm_wordpool_less_exclusions.txt	LTP180	ltpFR	0	12	1	QUAIL	1147	n/a	1	n/a	n/a	n/a	n/a	n/a
2512.832	n/a	REC_WORD	1256416	wordpools/wasnorm_wordpool_less_exclusions.txt	LTP180	ltpFR	0	12	1	MAYONNAISE	880	n/a	0	n/a	n/a	n/a	n/a	n/a
2513.832	n/a	REC_WORD_VV	1256916	wordpools/wasnorm_wordpool_less_exclusions.txt	LTP180	ltpFR	0	12	n/a	<>	-1	n/a	n/a	n/a	n/a	n/a	n/a	n/a
2516.138	n/a	REC_WORD	1258069	wordpools/wasnorm_wordpool_less_exclusions.txt	LTP180	ltpFR	0	12	n/a	HARBOR	-1	n/a	n/a	n/a	n/a	n/a	n/a	n/a
2517.138	n/a	REC_WORD_VV	1258569	wordpools/wasnorm_wordpool_less_exclusions.txt	LTP180	ltpFR	0	12	n/a	<>	-1	n/a	n/a	n/a	n/a	n/a	n/a	n/a
2518.138	n/a	REC_WORD_VV	1259069	wordpools/wasnorm_wordpool_less_exclusions.txt	LTP180	ltpFR	0	12	n/a	<>	-1	n/a	n/a	n/a	n/a	n/a	n/a	n/a
2518.932	n/a	REC_WORD	1259466	wordpools/wasnorm_wordpool_less_exclusions.txt	LTP180	ltpFR	0	12	1	QUAIL	1147	n/a	1	n/a	n/a	n/a	n/a	n/a
2519.286	n/a	REC_WORD	1259643	wordpools/wasnorm_wordpool_less_exclusions.txt	LTP180	ltpFR	0	12	1	MAYONNAISE	880	n/a	0	n/a	n/a	n/a	n/a	n/a
2520.886	n/a	REC_WORD_VV	1260443	wordpools/wasnorm_wordpool_less_exclusions.txt	LTP180	ltpFR	0	12	n/a	<>	-1	n/a	n/a	n/a	n/a	n/a	n/a	n/a
2521.132	n/a	REC_WORD	1260566	wordpools/wasnorm_wordpool_less_exclusions.txt	LTP180	ltpFR	0	12	1	BAY	102	n/a	0	n/a	n/a	n/a	n/a	n/a
2522.244	n/a	REC_WORD	1261122	wordpools/wasnorm_wordpool_less_exclusions.txt	LTP180	ltpFR	0	12	n/a	HARBOR	-1	n/a	n/a	n/a	n/a	n/a	n/a	n/a
2527.268	n/a	REC_WORD_VV	1263634	wordpools/wasnorm_wordpool_less_exclusions.txt	LTP180	ltpFR	0	12	n/a	<>	-1	n/a	n/a	n/a	n/a	n/a	n/a	n/a
2529.668	n/a	REC_WORD_VV	1264834	wordpools/wasnorm_wordpool_less_exclusions.txt	LTP180	ltpFR	0	12	n/a	<>	-1	n/a	n/a	n/a	n/a	n/a	n/a	n/a
2546.67	n/a	REC_WORD	1273335	wordpools/wasnorm_wordpool_less_exclusions.txt	LTP180	ltpFR	0	12	n/a	SHOEBOX	-1	n/a	n/a	n/a	n/a	n/a	n/a	n/a
2548.388	n/a	REC_WORD_VV	1274194	wordpools/wasnorm_wordpool_less_exclusions.txt	LTP180	ltpFR	0	12	n/a	<>	-1	n/a	n/a	n/a	n/a	n/a	n/a	n/a
2587.532	n/a	REST_REWET	1293766	n/a	LTP180	ltpFR	0	12	n/a	n/a	n/a	n/a	n/a	n/a	n/a	n/a	n/a	n/a
2873.522	n/a	WORD	1436761	wordpools/wasnorm_wordpool_less_exclusions.txt	LTP180	ltpFR	0	13	1	DIVER	476	n/a	1	1	0.412841796875	0.57763671875	lower	../fonts/amplitud.ttf
2877.536	n/a	WORD	1438768	wordpools/wasnorm_wordpool_less_exclusions.txt	LTP180	ltpFR	0	13	1	KITE	779	n/a	0	1	0.412841796875	0.57763671875	lower	../fonts/amplitud.ttf
2881.594	n/a	WORD	1440797	wordpools/wasnorm_wordpool_less_exclusions.txt	LTP180	ltpFR	0	13	1	TABLE	1426	n/a	0	1	0.412841796875	0.57763671875	lower	../fonts/amplitud.ttf
2885.576	n/a	WORD	1442788	wordpools/wasnorm_wordpool_less_exclusions.txt	LTP180	ltpFR	0	13	0	LETTUCE	814	n/a	n/a	0	0.5869140625	0.422607421875	upper	../fonts/zerothre.ttf
2888.6	n/a	SLOW_MSG	1444300	n/a	LTP180	ltpFR	0	13	n/a	n/a	n/a	n/a	n/a	n/a	n/a	n/a	n/a	n/a
2891.2	n/a	WORD	1445600	wordpools/wasnorm_wordpool_less_exclusions.txt	LTP180	ltpFR	0	13	0	RADISH	1158	n/a	1	0	0.5869140625	0.422607421875	upper	../fonts/zerothre.ttf
2895.282	n/a	WORD	1447641	wordpools/wasnorm_wordpool_less_exclusions.txt	LTP180	ltpFR	0	13	0	DIAL	457	n/a	0	0	0.5869140625	0.422607421875	upper	../fonts/zerothre.ttf
2899.188	n/a	WORD	1449594	wordpools/wasnorm_wordpool_less_exclusions.txt	LTP180	ltpFR	0	13	0	DOORBELL	487	n/a	0	0	0.5869140625	0.422607421875	upper	../fonts/zerothre.ttf
2903.104	n/a	WORD	1451552	wordpools/wasnorm_wordpool_less_exclusions.txt	LTP180	ltpFR	0	13	0	SPIDER	1351	n/a	0	0	0.5869140625	0.422607421875	upper	../fonts/zerothre.ttf
2907.01	n/a	WORD	1453505	wordpools/wasnorm_wordpool_less_exclusions.txt	LTP180	ltpFR	0	13	0	GARAGE	621	n/a	1	0	0.5869140625	0.422607421875	upper	../fonts/zerothre.ttf
2911.036	n/a	WORD	1455518	wordpools/wasnorm_wordpool_less_exclusions.txt	LTP180	ltpFR	0	13	1	ROOSTER	1209	n/a	1	1	0.412841796875	0.57763671875	lower	../fonts/amplitud.ttf
2914.992	n/a	WORD	1457496	wordpools/wasnorm_wordpool_less_exclusions.txt	LTP180	ltpFR	0	13	1	BOOTH	151	n/a	0	1	0.412841796875	0.57763671875	lower	../fonts/amplitud.ttf
2919.158	n/a	WORD	1459579	wordpools/wasnorm_wordpool_less_exclusions.txt	LTP180	ltpFR	0	13	1	SWIMMER	1420	n/a	1	1	0.412841796875	0.57763671875	lower	../fonts/amplitud.ttf
2923.272	n/a	WORD	1461636	wordpools/wasnorm_wordpool_less_exclusions.txt	LTP180	ltpFR	0	13	1	ELM	527	n/a	1	1	0.412841796875	0.57763671875	lower	../fonts/amplitud.ttf
2927.354	n/a	WORD	1463677	wordpools/wasnorm_wordpool_less_exclusions.txt	LTP180	ltpFR	0	13	1	LIMB	822	n/a	1	1	0.412841796875	0.57763671875	lower	../fonts/amplitud.ttf
2931.288	n/a	WORD	1465644	wordpools/wasnorm_wordpool_less_exclusions.txt	LTP180	ltpFR	0	13	0	APARTMENT	30	n/a	n/a	0	0.5869140625	0.422607421875	upper	../fonts/zerothre.ttf
2934.312	n/a	SLOW_MSG	1467156	n/a	LTP180	ltpFR	0	13	n/a	n/a	n/a	n/a	n/a	n/a	n/a	n/a	n/a	n/a
2936.71	n/a	WORD	1468355	wordpools/wasnorm_wordpool_less_exclusions.txt	LTP180	ltpFR	0	13	0	SPONGE	1355	n/a	0	0	0.5869140625	0.422607421875	upper	../fonts/zerothre.ttf
2942.442	n/a	REC_START	1471221	n/a	LTP180	ltpFR	0	13	n/a	n/a	n/a	n/a	n/a	n/a	n/a	n/a	n/a	n/a
2942.498	n/a	REC_WORD_VV	1471249	wordpools/wasnorm_wordpool_less_exclusions.txt	LTP180	ltpFR	0	13	n/a	<>	-1	n/a	n/a	n/a	n/a	n/a	n/a	n/a
2943.24	n/a	REC_WORD	1471620	wordpools/wasnorm_wordpool_less_exclusions.txt	LTP180	ltpFR	0	13	0	SPONGE	1355	n/a	0	n/a	n/a	n/a	n/a	n/a
2944.208	n/a	REC_WORD	1472104	wordpools/wasnorm_wordpool_less_exclusions.txt	LTP180	ltpFR	0	13	1	ROOSTER	1209	n/a	1	n/a	n/a	n/a	n/a	n/a
2945.594	n/a	REC_WORD	1472797	wordpools/wasnorm_wordpool_less_exclusions.txt	LTP180	ltpFR	0	13	0	DIAL	457	n/a	0	n/a	n/a	n/a	n/a	n/a
2946.582	n/a	REC_WORD_VV	1473291	wordpools/wasnorm_wordpool_less_exclusions.txt	LTP180	ltpFR	0	13	n/a	<>	-1	n/a	n/a	n/a	n/a	n/a	n/a	n/a
2947.672	n/a	REC_WORD	1473836	wordpools/wasnorm_wordpool_less_exclusions.txt	LTP180	ltpFR	0	13	1	LIMB	822	n/a	1	n/a	n/a	n/a	n/a	n/a
2951.322	n/a	REC_WORD_VV	1475661	wordpools/wasnorm_wordpool_less_exclusions.txt	LTP180	ltpFR	0	13	n/a	<>	-1	n/a	n/a	n/a	n/a	n/a	n/a	n/a
2952.322	n/a	REC_WORD_VV	1476161	wordpools/wasnorm_wordpool_less_exclusions.txt	LTP180	ltpFR	0	13	n/a	<>	-1	n/a	n/a	n/a	n/a	n/a	n/a	n/a
2953.322	n/a	REC_WORD_VV	1476661	wordpools/wasnorm_wordpool_less_exclusions.txt	LTP180	ltpFR	0	13	n/a	<>	-1	n/a	n/a	n/a	n/a	n/a	n/a	n/a
2955.572	n/a	REC_WORD	1477786	wordpools/wasnorm_wordpool_less_exclusions.txt	LTP180	ltpFR	0	13	0	APARTMENT	30	n/a	n/a	n/a	n/a	n/a	n/a	n/a
2959.364	n/a	REC_WORD	1479682	wordpools/wasnorm_wordpool_less_exclusions.txt	LTP180	ltpFR	0	13	0	DOORBELL	487	n/a	0	n/a	n/a	n/a	n/a	n/a
2965.206	n/a	REC_WORD	1482603	wordpools/wasnorm_wordpool_less_exclusions.txt	LTP180	ltpFR	0	13	0	LETTUCE	814	n/a	n/a	n/a	n/a	n/a	n/a	n/a
2968.24	n/a	REC_WORD	1484120	wordpools/wasnorm_wordpool_less_exclusions.txt	LTP180	ltpFR	0	13	1	LIMB	822	n/a	1	n/a	n/a	n/a	n/a	n/a
2990.66	n/a	REC_WORD	1495330	wordpools/wasnorm_wordpool_less_exclusions.txt	LTP180	ltpFR	0	13	0	SPIDER	1351	n/a	0	n/a	n/a	n/a	n/a	n/a
2999.544	n/a	REC_WORD_VV	1499772	wordpools/wasnorm_wordpool_less_exclusions.txt	LTP180	ltpFR	0	13	n/a	<>	-1	n/a	n/a	n/a	n/a	n/a	n/a	n/a
3003.148	n/a	REC_WORD	1501574	wordpools/wasnorm_wordpool_less_exclusions.txt	LTP180	ltpFR	0	13	0	LETTUCE	814	n/a	n/a	n/a	n/a	n/a	n/a	n/a
3022.71	n/a	WORD	1511355	wordpools/wasnorm_wordpool_less_exclusions.txt	LTP180	ltpFR	0	14	0	DRUM	502	n/a	n/a	0	0.5869140625	0.422607421875	upper	../fonts/zerothre.ttf
3025.734	n/a	SLOW_MSG	1512867	n/a	LTP180	ltpFR	0	14	n/a	n/a	n/a	n/a	n/a	n/a	n/a	n/a	n/a	n/a
3028.4	n/a	WORD	1514200	wordpools/wasnorm_wordpool_less_exclusions.txt	LTP180	ltpFR	0	14	0	ORCHESTRA	981	n/a	1	0	0.5869140625	0.422607421875	upper	../fonts/zerothre.ttf
3032.598	n/a	WORD	1516299	wordpools/wasnorm_wordpool_less_exclusions.txt	LTP180	ltpFR	0	14	0	OWNER	993	n/a	0	0	0.5869140625	0.422607421875	upper	../fonts/zerothre.ttf
3036.704	n/a	WORD	1518352	wordpools/wasnorm_wordpool_less_exclusions.txt	LTP180	ltpFR	0	14	1	DIGGER	464	n/a	1	1	0.412841796875	0.57763671875	lower	../fonts/amplitud.ttf
3040.904	n/a	WORD	1520452	wordpools/wasnorm_wordpool_less_exclusions.txt	LTP180	ltpFR	0	14	1	BIRD	129	n/a	1	1	0.412841796875	0.57763671875	lower	../fonts/amplitud.ttf
3044.736	n/a	WORD	1522368	wordpools/wasnorm_wordpool_less_exclusions.txt	LTP180	ltpFR	0	14	1	EDITORIAL	517	n/a	0	1	0.412841796875	0.57763671875	lower	../fonts/amplitud.ttf
3048.644	n/a	WORD	1524322	wordpools/wasnorm_wordpool_less_exclusions.txt	LTP180	ltpFR	0	14	0	NAPKIN	937	n/a	0	0	0.5869140625	0.422607421875	upper	../fonts/zerothre.ttf
3052.458	n/a	WORD	1526229	wordpools/wasnorm_wordpool_less_exclusions.txt	LTP180	ltpFR	0	14	0	PENGUIN	1044	n/a	1	0	0.5869140625	0.422607421875	upper	../fonts/zerothre.ttf
3056.332	n/a	WORD	1528166	wordpools/wasnorm_wordpool_less_exclusions.txt	LTP180	ltpFR	0	14	1	VOLLEYBALL	1576	n/a	0	1	0.412841796875	0.57763671875	lower	../fonts/amplitud.ttf
3060.432	n/a	WORD	1530216	wordpools/wasnorm_wordpool_less_exclusions.txt	LTP180	ltpFR	0	14	1	SIREN	1310	n/a	0	1	0.412841796875	0.57763671875	lower	../fonts/amplitud.ttf
3064.614	n/a	WORD	1532307	wordpools/wasnorm_wordpool_less_exclusions.txt	LTP180	ltpFR	0	14	1	VALLEY	1545	n/a	0	1	0.412841796875	0.57763671875	lower	../fonts/amplitud.ttf
3068.446	n/a	WORD	1534223	wordpools/wasnorm_wordpool_less_exclusions.txt	LTP180	ltpFR	0	14	1	SHUTTER	1300	n/a	0	1	0.412841796875	0.57763671875	lower	../fonts/amplitud.ttf
3072.502	n/a	WORD	1536251	wordpools/wasnorm_wordpool_less_exclusions.txt	LTP180	ltpFR	0	14	1	BRICK	172	n/a	0	1	0.412841796875	0.57763671875	lower	../fonts/amplitud.ttf
3076.618	n/a	WORD	1538309	wordpools/wasnorm_wordpool_less_exclusions.txt	LTP180	ltpFR	0	14	0	FURNITURE	616	n/a	0	0	0.5869140625	0.422607421875	upper	../fonts/zerothre.ttf
3080.792	n/a	WORD	1540396	wordpools/wasnorm_wordpool_less_exclusions.txt	LTP180	ltpFR	0	14	0	ANT	25	n/a	1	0	0.5869140625	0.422607421875	upper	../fonts/zerothre.ttf
3084.74	n/a	WORD	1542370	wordpools/wasnorm_wordpool_less_exclusions.txt	LTP180	ltpFR	0	14	0	DOUGHNUT	490	n/a	1	0	0.5869140625	0.422607421875	upper	../fonts/zerothre.ttf
3090.672	n/a	REC_START	1545336	n/a	LTP180	ltpFR	0	14	n/a	n/a	n/a	n/a	n/a	n/a	n/a	n/a	n/a	n/a
3091.49	n/a	REC_WORD	1545745	wordpools/wasnorm_wordpool_less_exclusions.txt	LTP180	ltpFR	0	14	0	DOUGHNUT	490	n/a	1	n/a	n/a	n/a	n/a	n/a
3092.04	n/a	REC_WORD	1546020	wordpools/wasnorm_wordpool_less_exclusions.txt	LTP180	ltpFR	0	14	0	LETTUCE	814	n/a	n/a	n/a	n/a	n/a	n/a	n/a
3093.092	n/a	REC_WORD	1546546	wordpools/wasnorm_wordpool_less_exclusions.txt	LTP180	ltpFR	0	14	0	ANT	25	n/a	1	n/a	n/a	n/a	n/a	n/a
3094.812	n/a	REC_WORD	1547406	wordpools/wasnorm_wordpool_less_exclusions.txt	LTP180	ltpFR	0	14	1	VOLLEYBALL	1576	n/a	0	n/a	n/a	n/a	n/a	n/a
3098.012	n/a	REC_WORD	1549006	wordpools/wasnorm_wordpool_less_exclusions.txt	LTP180	ltpFR	0	14	1	SHUTTER	1300	n/a	0	n/a	n/a	n/a	n/a	n/a
3099.69	n/a	REC_WORD_VV	1549845	wordpools/wasnorm_wordpool_less_exclusions.txt	LTP180	ltpFR	0	14	n/a	<>	-1	n/a	n/a	n/a	n/a	n/a	n/a	n/a
3100.69	n/a	REC_WORD_VV	1550345	wordpools/wasnorm_wordpool_less_exclusions.txt	LTP180	ltpFR	0	14	n/a	<>	-1	n/a	n/a	n/a	n/a	n/a	n/a	n/a
3110.434	n/a	REC_WORD_VV	1555217	wordpools/wasnorm_wordpool_less_exclusions.txt	LTP180	ltpFR	0	14	n/a	<>	-1	n/a	n/a	n/a	n/a	n/a	n/a	n/a
3114.798	n/a	REC_WORD	1557399	wordpools/wasnorm_wordpool_less_exclusions.txt	LTP180	ltpFR	0	14	0	ANT	25	n/a	1	n/a	n/a	n/a	n/a	n/a
3174.456	n/a	WORD	1587228	wordpools/wasnorm_wordpool_less_exclusions.txt	LTP180	ltpFR	0	15	0	SHERIFF	1284	n/a	n/a	0	0.5869140625	0.422607421875	upper	../fonts/zerothre.ttf
3177.48	n/a	SLOW_MSG	1588740	n/a	LTP180	ltpFR	0	15	n/a	n/a	n/a	n/a	n/a	n/a	n/a	n/a	n/a	n/a
3180.036	n/a	WORD	1590018	wordpools/wasnorm_wordpool_less_exclusions.txt	LTP180	ltpFR	0	15	0	OUTFIT	988	n/a	1	0	0.5869140625	0.422607421875	upper	../fonts/zerothre.ttf
3184.068	n/a	WORD	1592034	wordpools/wasnorm_wordpool_less_exclusions.txt	LTP180	ltpFR	0	15	0	PUBLISHER	1137	n/a	n/a	0	0.5869140625	0.422607421875	upper	../fonts/zerothre.ttf
3187.092	n/a	SLOW_MSG	1593546	n/a	LTP180	ltpFR	0	15	n/a	n/a	n/a	n/a	n/a	n/a	n/a	n/a	n/a	n/a
3189.5	n/a	WORD	1594750	wordpools/wasnorm_wordpool_less_exclusions.txt	LTP180	ltpFR	0	15	0	WORM	1623	n/a	0	0	0.5869140625	0.422607421875	upper	../fonts/zerothre.ttf
3193.624	n/a	WORD	1596812	wordpools/wasnorm_wordpool_less_exclusions.txt	LTP180	ltpFR	0	15	1	SPARROW	1347	n/a	1	1	0.412841796875	0.57763671875	lower	../fonts/amplitud.ttf
3197.824	n/a	WORD	1598912	wordpools/wasnorm_wordpool_less_exclusions.txt	LTP180	ltpFR	0	15	1	GARDEN	623	n/a	1	1	0.412841796875	0.57763671875	lower	../fonts/amplitud.ttf
3201.93	n/a	WORD	1600965	wordpools/wasnorm_wordpool_less_exclusions.txt	LTP180	ltpFR	0	15	1	PALACE	1006	n/a	0	1	0.412841796875	0.57763671875	lower	../fonts/amplitud.ttf
3205.772	n/a	WORD	1602886	wordpools/wasnorm_wordpool_less_exclusions.txt	LTP180	ltpFR	0	15	1	NOTE	958	n/a	0	1	0.412841796875	0.57763671875	lower	../fonts/amplitud.ttf
3209.728	n/a	WORD	1604864	wordpools/wasnorm_wordpool_less_exclusions.txt	LTP180	ltpFR	0	15	0	GARBAGE	622	n/a	1	0	0.5869140625	0.422607421875	upper	../fonts/zerothre.ttf
3213.76	n/a	WORD	1606880	wordpools/wasnorm_wordpool_less_exclusions.txt	LTP180	ltpFR	0	15	0	DUMP	505	n/a	1	0	0.5869140625	0.422607421875	upper	../fonts/zerothre.ttf
3217.576	n/a	WORD	1608788	wordpools/wasnorm_wordpool_less_exclusions.txt	LTP180	ltpFR	0	15	0	SUBMARINE	1398	n/a	1	0	0.5869140625	0.422607421875	upper	../fonts/zerothre.ttf
3221.69	n/a	WORD	1610845	wordpools/wasnorm_wordpool_less_exclusions.txt	LTP180	ltpFR	0	15	0	COP	376	n/a	1	0	0.5869140625	0.422607421875	upper	../fonts/zerothre.ttf
3225.53	n/a	WORD	1612765	wordpools/wasnorm_wordpool_less_exclusions.txt	LTP180	ltpFR	0	15	1	HANGER	687	n/a	0	1	0.412841796875	0.57763671875	lower	../fonts/amplitud.ttf
3229.696	n/a	WORD	1614848	wordpools/wasnorm_wordpool_less_exclusions.txt	LTP180	ltpFR	0	15	1	COSTUME	383	n/a	0	1	0.412841796875	0.57763671875	lower	../fonts/amplitud.ttf
3233.604	n/a	WORD	1616802	wordpools/wasnorm_wordpool_less_exclusions.txt	LTP180	ltpFR	0	15	1	SAILOR	1223	n/a	1	1	0.412841796875	0.57763671875	lower	../fonts/amplitud.ttf
3237.61	n/a	WORD	1618805	wordpools/wasnorm_wordpool_less_exclusions.txt	LTP180	ltpFR	0	15	1	BUTTERFLY	206	n/a	1	1	0.412841796875	0.57763671875	lower	../fonts/amplitud.ttf
3243.618	n/a	REC_START	1621809	n/a	LTP180	ltpFR	0	15	n/a	n/a	n/a	n/a	n/a	n/a	n/a	n/a	n/a	n/a
3243.648	n/a	REC_WORD_VV	1621824	wordpools/wasnorm_wordpool_less_exclusions.txt	LTP180	ltpFR	0	15	n/a	<>	-1	n/a	n/a	n/a	n/a	n/a	n/a	n/a
3243.972	n/a	REC_WORD	1621986	wordpools/wasnorm_wordpool_less_exclusions.txt	LTP180	ltpFR	0	15	1	BUTTERFLY	206	n/a	1	n/a	n/a	n/a	n/a	n/a
3244.614	n/a	REC_WORD	1622307	wordpools/wasnorm_wordpool_less_exclusions.txt	LTP180	ltpFR	0	15	1	BUTTERFLY	206	n/a	1	n/a	n/a	n/a	n/a	n/a
3245.486	n/a	REC_WORD	1622743	wordpools/wasnorm_wordpool_less_exclusions.txt	LTP180	ltpFR	0	15	0	SHERIFF	1284	n/a	n/a	n/a	n/a	n/a	n/a	n/a
3247.054	n/a	REC_WORD	1623527	wordpools/wasnorm_wordpool_less_exclusions.txt	LTP180	ltpFR	0	15	0	GARAGE	621	n/a	1	n/a	n/a	n/a	n/a	n/a
3248.054	n/a	REC_WORD_VV	1624027	wordpools/wasnorm_wordpool_less_exclusions.txt	LTP180	ltpFR	0	15	n/a	<>	-1	n/a	n/a	n/a	n/a	n/a	n/a	n/a
3254.478	n/a	REC_WORD_VV	1627239	wordpools/wasnorm_wordpool_less_exclusions.txt	LTP180	ltpFR	0	15	n/a	<>	-1	n/a	n/a	n/a	n/a	n/a	n/a	n/a
3255.478	n/a	REC_WORD_VV	1627739	wordpools/wasnorm_wordpool_less_exclusions.txt	LTP180	ltpFR	0	15	n/a	<>	-1	n/a	n/a	n/a	n/a	n/a	n/a	n/a
3322.752	n/a	WORD	1661376	wordpools/wasnorm_wordpool_less_exclusions.txt	LTP180	ltpFR	0	16	1	BULLETIN	195	n/a	0	1	0.412841796875	0.57763671875	lower	../fonts/amplitud.ttf
3326.726	n/a	WORD	1663363	wordpools/wasnorm_wordpool_less_exclusions.txt	LTP180	ltpFR	0	16	1	SISTER	1312	n/a	1	1	0.412841796875	0.57763671875	lower	../fonts/amplitud.ttf
3330.74	n/a	WORD	1665370	wordpools/wasnorm_wordpool_less_exclusions.txt	LTP180	ltpFR	0	16	0	FAUCET	555	n/a	0	0	0.5869140625	0.422607421875	upper	../fonts/zerothre.ttf
3334.924	n/a	WORD	1667462	wordpools/wasnorm_wordpool_less_exclusions.txt	LTP180	ltpFR	0	16	0	ROOM	1206	n/a	0	0	0.5869140625	0.422607421875	upper	../fonts/zerothre.ttf
3338.938	n/a	WORD	1669469	wordpools/wasnorm_wordpool_less_exclusions.txt	LTP180	ltpFR	0	16	0	PUCK	1138	n/a	2	0	0.5869140625	0.422607421875	upper	../fonts/zerothre.ttf
3341.02	n/a	KEY_MSG	1670510	n/a	LTP180	ltpFR	0	16	n/a	n/a	n/a	n/a	n/a	n/a	n/a	n/a	n/a	n/a
3343.712	n/a	WORD	1671856	wordpools/wasnorm_wordpool_less_exclusions.txt	LTP180	ltpFR	0	16	0	MOTHER	921	n/a	n/a	0	0.5869140625	0.422607421875	upper	../fonts/zerothre.ttf
3346.736	n/a	SLOW_MSG	1673368	n/a	LTP180	ltpFR	0	16	n/a	n/a	n/a	n/a	n/a	n/a	n/a	n/a	n/a	n/a
3349.086	n/a	WORD	1674543	wordpools/wasnorm_wordpool_less_exclusions.txt	LTP180	ltpFR	0	16	1	PORPOISE	1109	n/a	1	1	0.412841796875	0.57763671875	lower	../fonts/amplitud.ttf
3353.176	n/a	WORD	1676588	wordpools/wasnorm_wordpool_less_exclusions.txt	LTP180	ltpFR	0	16	1	TEAM	1441	n/a	1	1	0.412841796875	0.57763671875	lower	../fonts/amplitud.ttf
3357.09	n/a	WORD	1678545	wordpools/wasnorm_wordpool_less_exclusions.txt	LTP180	ltpFR	0	16	1	POND	1101	n/a	0	1	0.412841796875	0.57763671875	lower	../fonts/amplitud.ttf
3361.214	n/a	WORD	1680607	wordpools/wasnorm_wordpool_less_exclusions.txt	LTP180	ltpFR	0	16	1	WART	1590	n/a	1	1	0.412841796875	0.57763671875	lower	../fonts/amplitud.ttf
3365.38	n/a	WORD	1682690	wordpools/wasnorm_wordpool_less_exclusions.txt	LTP180	ltpFR	0	16	0	RACKET	1155	n/a	0	0	0.5869140625	0.422607421875	upper	../fonts/zerothre.ttf
3369.53	n/a	WORD	1684765	wordpools/wasnorm_wordpool_less_exclusions.txt	LTP180	ltpFR	0	16	0	MOAT	903	n/a	n/a	0	0.5869140625	0.422607421875	upper	../fonts/zerothre.ttf
3372.554	n/a	SLOW_MSG	1686277	n/a	LTP180	ltpFR	0	16	n/a	n/a	n/a	n/a	n/a	n/a	n/a	n/a	n/a	n/a
3374.96	n/a	WORD	1687480	wordpools/wasnorm_wordpool_less_exclusions.txt	LTP180	ltpFR	0	16	0	TURNIP	1521	n/a	n/a	0	0.5869140625	0.422607421875	upper	../fonts/zerothre.ttf
3377.984	n/a	SLOW_MSG	1688992	n/a	LTP180	ltpFR	0	16	n/a	n/a	n/a	n/a	n/a	n/a	n/a	n/a	n/a	n/a
3380.452	n/a	WORD	1690226	wordpools/wasnorm_wordpool_less_exclusions.txt	LTP180	ltpFR	0	16	0	LILY	821	n/a	n/a	0	0.5869140625	0.422607421875	upper	../fonts/zerothre.ttf
3383.476	n/a	SLOW_MSG	1691738	n/a	LTP180	ltpFR	0	16	n/a	n/a	n/a	n/a	n/a	n/a	n/a	n/a	n/a	n/a
3385.918	n/a	WORD	1692959	wordpools/wasnorm_wordpool_less_exclusions.txt	LTP180	ltpFR	0	16	1	LOG	841	n/a	n/a	1	0.412841796875	0.57763671875	lower	../fonts/amplitud.ttf
3388.94	n/a	SLOW_MSG	1694470	n/a	LTP180	ltpFR	0	16	n/a	n/a	n/a	n/a	n/a	n/a	n/a	n/a	n/a	n/a
3391.464	n/a	WORD	1695732	wordpools/wasnorm_wordpool_less_exclusions.txt	LTP180	ltpFR	0	16	1	CARPENTER	246	n/a	1	1	0.412841796875	0.57763671875	lower	../fonts/amplitud.ttf
3397.254	n/a	REC_START	1698627	n/a	LTP180	ltpFR	0	16	n/a	n/a	n/a	n/a	n/a	n/a	n/a	n/a	n/a	n/a
3398.128	n/a	REC_WORD	1699064	wordpools/wasnorm_wordpool_less_exclusions.txt	LTP180	ltpFR	0	16	1	CARPENTER	246	n/a	1	n/a	n/a	n/a	n/a	n/a
3398.886	n/a	REC_WORD	1699443	wordpools/wasnorm_wordpool_less_exclusions.txt	LTP180	ltpFR	0	16	0	MOTHER	921	n/a	n/a	n/a	n/a	n/a	n/a	n/a
3399.97	n/a	REC_WORD_VV	1699985	wordpools/wasnorm_wordpool_less_exclusions.txt	LTP180	ltpFR	0	16	n/a	<>	-1	n/a	n/a	n/a	n/a	n/a	n/a	n/a
3400.358	n/a	REC_WORD	1700179	wordpools/wasnorm_wordpool_less_exclusions.txt	LTP180	ltpFR	0	16	0	TURNIP	1521	n/a	n/a	n/a	n/a	n/a	n/a	n/a
3405.536	n/a	REC_WORD	1702768	wordpools/wasnorm_wordpool_less_exclusions.txt	LTP180	ltpFR	0	16	0	WORM	1623	n/a	0	n/a	n/a	n/a	n/a	n/a
3414.032	n/a	REC_WORD_VV	1707016	wordpools/wasnorm_wordpool_less_exclusions.txt	LTP180	ltpFR	0	16	n/a	<>	-1	n/a	n/a	n/a	n/a	n/a	n/a	n/a
3415.032	n/a	REC_WORD_VV	1707516	wordpools/wasnorm_wordpool_less_exclusions.txt	LTP180	ltpFR	0	16	n/a	<>	-1	n/a	n/a	n/a	n/a	n/a	n/a	n/a
3534.746	n/a	REC_START	1767373	n/a	LTP180	ltpFR	0	n/a	n/a	n/a	n/a	n/a	n/a	n/a	n/a	n/a	n/a	n/a
3539.922	n/a	FFR_REC_WORD_VV	1769961	wordpools/wasnorm_wordpool_less_exclusions.txt	LTP180	ltpFR	0	n/a	n/a	<>	-1	n/a	n/a	n/a	n/a	n/a	n/a	n/a
3542.432	n/a	FFR_REC_WORD_VV	1771216	wordpools/wasnorm_wordpool_less_exclusions.txt	LTP180	ltpFR	0	n/a	n/a	<>	-1	n/a	n/a	n/a	n/a	n/a	n/a	n/a
3543.212	n/a	FFR_REC_WORD_VV	1771606	wordpools/wasnorm_wordpool_less_exclusions.txt	LTP180	ltpFR	0	n/a	n/a	<>	-1	n/a	n/a	n/a	n/a	n/a	n/a	n/a
3543.59	n/a	FFR_REC_WORD	1771795	wordpools/wasnorm_wordpool_less_exclusions.txt	LTP180	ltpFR	0	n/a	0	TURNIP	1521	n/a	n/a	n/a	n/a	n/a	n/a	n/a
3544.274	n/a	FFR_REC_WORD	1772137	wordpools/wasnorm_wordpool_less_exclusions.txt	LTP180	ltpFR	0	n/a	0	MOTHER	921	n/a	n/a	n/a	n/a	n/a	n/a	n/a
3545.742	n/a	FFR_REC_WORD	1772871	wordpools/wasnorm_wordpool_less_exclusions.txt	LTP180	ltpFR	0	n/a	1	MOSQUITO	917	n/a	n/a	n/a	n/a	n/a	n/a	n/a
3546.968	n/a	FFR_REC_WORD	1773484	wordpools/wasnorm_wordpool_less_exclusions.txt	LTP180	ltpFR	0	n/a	1	LION	827	n/a	1	n/a	n/a	n/a	n/a	n/a
3549.638	n/a	FFR_REC_WORD	1774819	wordpools/wasnorm_wordpool_less_exclusions.txt	LTP180	ltpFR	0	n/a	0	ANTENNA	28	n/a	0	n/a	n/a	n/a	n/a	n/a
3553.674	n/a	FFR_REC_WORD	1776837	wordpools/wasnorm_wordpool_less_exclusions.txt	LTP180	ltpFR	0	n/a	0	COP	376	n/a	1	n/a	n/a	n/a	n/a	n/a
3556.432	n/a	FFR_REC_WORD	1778216	wordpools/wasnorm_wordpool_less_exclusions.txt	LTP180	ltpFR	0	n/a	n/a	DRIVEWAY	500	n/a	n/a	n/a	n/a	n/a	n/a	n/a
3562.874	n/a	FFR_REC_WORD	1781437	wordpools/wasnorm_wordpool_less_exclusions.txt	LTP180	ltpFR	0	n/a	0	ANT	25	n/a	1	n/a	n/a	n/a	n/a	n/a
3565.352	n/a	FFR_REC_WORD	1782676	wordpools/wasnorm_wordpool_less_exclusions.txt	LTP180	ltpFR	0	n/a	1	LION	827	n/a	1	n/a	n/a	n/a	n/a	n/a
3573.396	n/a	FFR_REC_WORD	1786698	wordpools/wasnorm_wordpool_less_exclusions.txt	LTP180	ltpFR	0	n/a	1	CHILD	299	n/a	1	n/a	n/a	n/a	n/a	n/a
3581.686	n/a	FFR_REC_WORD	1790843	wordpools/wasnorm_wordpool_less_exclusions.txt	LTP180	ltpFR	0	n/a	0	COP	376	n/a	1	n/a	n/a	n/a	n/a	n/a
3588.004	n/a	FFR_REC_WORD	1794002	wordpools/wasnorm_wordpool_less_exclusions.txt	LTP180	ltpFR	0	n/a	n/a	DRIVEWAY	500	n/a	n/a	n/a	n/a	n/a	n/a	n/a
3595.986	n/a	FFR_REC_WORD	1797993	wordpools/wasnorm_wordpool_less_exclusions.txt	LTP180	ltpFR	0	n/a	1	ELECTRON	522	n/a	1	n/a	n/a	n/a	n/a	n/a
3596.986	n/a	FFR_REC_WORD_VV	1798493	wordpools/wasnorm_wordpool_less_exclusions.txt	LTP180	ltpFR	0	n/a	n/a	<>	-1	n/a	n/a	n/a	n/a	n/a	n/a	n/a
3600.55	n/a	FFR_REC_WORD	1800275	wordpools/wasnorm_wordpool_less_exclusions.txt	LTP180	ltpFR	0	n/a	1	ARTERY	41	n/a	1	n/a	n/a	n/a	n/a	n/a
3617.822	n/a	FFR_REC_WORD	1808911	wordpools/wasnorm_wordpool_less_exclusions.txt	LTP180	ltpFR	0	n/a	-1	POLICE	1098	n/a	-1	n/a	n/a	n/a	n/a	n/a
3625.58	n/a	FFR_REC_WORD	1812790	wordpools/wasnorm_wordpool_less_exclusions.txt	LTP180	ltpFR	0	n/a	0	DOORBELL	487	n/a	0	n/a	n/a	n/a	n/a	n/a
3637.268	n/a	FFR_REC_WORD	1818634	wordpools/wasnorm_wordpool_less_exclusions.txt	LTP180	ltpFR	0	n/a	0	LETTUCE	814	n/a	n/a	n/a	n/a	n/a	n/a	n/a
3639.194	n/a	FFR_REC_WORD	1819597	wordpools/wasnorm_wordpool_less_exclusions.txt	LTP180	ltpFR	0	n/a	0	ANT	25	n/a	1	n/a	n/a	n/a	n/a	n/a
3642.282	n/a	FFR_REC_WORD	1821141	wordpools/wasnorm_wordpool_less_exclusions.txt	LTP180	ltpFR	0	n/a	n/a	BLUEBIRD	-1	n/a	n/a	n/a	n/a	n/a	n/a	n/a
3650.712	n/a	FFR_REC_WORD_VV	1825356	wordpools/wasnorm_wordpool_less_exclusions.txt	LTP180	ltpFR	0	n/a	n/a	<>	-1	n/a	n/a	n/a	n/a	n/a	n/a	n/a
3657.258	n/a	FFR_REC_WORD	1828629	wordpools/wasnorm_wordpool_less_exclusions.txt	LTP180	ltpFR	0	n/a	1	MOSQUITO	917	n/a	n/a	n/a	n/a	n/a	n/a	n/a
3658.142	n/a	FFR_REC_WORD_VV	1829071	wordpools/wasnorm_wordpool_less_exclusions.txt	LTP180	ltpFR	0	n/a	n/a	<>	-1	n/a	n/a	n/a	n/a	n/a	n/a	n/a
3667.432	n/a	FFR_REC_WORD	1833716	wordpools/wasnorm_wordpool_less_exclusions.txt	LTP180	ltpFR	0	n/a	n/a	ANKLE	24	n/a	n/a	n/a	n/a	n/a	n/a	n/a
3720.554	n/a	FFR_REC_WORD	1860277	wordpools/wasnorm_wordpool_less_exclusions.txt	LTP180	ltpFR	0	n/a	n/a	ACRE	-1	n/a	n/a	n/a	n/a	n/a	n/a	n/a
3729.13	n/a	FFR_REC_WORD	1864565	wordpools/wasnorm_wordpool_less_exclusions.txt	LTP180	ltpFR	0	n/a	0	ANT	25	n/a	1	n/a	n/a	n/a	n/a	n/a
3737.824	n/a	FFR_REC_WORD	1868912	wordpools/wasnorm_wordpool_less_exclusions.txt	LTP180	ltpFR	0	n/a	1	PRAIRIE	1118	n/a	1	n/a	n/a	n/a	n/a	n/a
3753.33	n/a	FFR_REC_WORD	1876665	wordpools/wasnorm_wordpool_less_exclusions.txt	LTP180	ltpFR	0	n/a	n/a	POLICEMAN	-1	n/a	n/a	n/a	n/a	n/a	n/a	n/a
3769.984	n/a	FFR_REC_WORD	1884992	wordpools/wasnorm_wordpool_less_exclusions.txt	LTP180	ltpFR	0	n/a	n/a	ANKLE	24	n/a	n/a	n/a	n/a	n/a	n/a	n/a
3770.722	n/a	FFR_REC_WORD	1885361	wordpools/wasnorm_wordpool_less_exclusions.txt	LTP180	ltpFR	0	n/a	1	ELECTRON	522	n/a	1	n/a	n/a	n/a	n/a	n/a
3812.978	n/a	FFR_REC_WORD	1906489	wordpools/wasnorm_wordpool_less_exclusions.txt	LTP180	ltpFR	0	n/a	1	CHILD	299	n/a	1	n/a	n/a	n/a	n/a	n/a
3829.042	n/a	FFR_REC_WORD	1914521	wordpools/wasnorm_wordpool_less_exclusions.txt	LTP180	ltpFR	0	n/a	0	TEA	1439	n/a	1	n/a	n/a	n/a	n/a	n/a
4017.758	n/a	REC_START	2008879	n/a	LTP180	ltpFR	0	1	n/a	n/a	n/a	n/a	n/a	n/a	n/a	n/a	n/a	n/a
4017.79	n/a	RECOG_TARGET	2008895	n/a	LTP180	ltpFR	0	1	1	PADDLE	1000	3	0	n/a	n/a	n/a	n/a	n/a
4021.238	n/a	RECOG_RESP	2010619	n/a	LTP180	ltpFR	0	1	1	PADDLE	1000	n/a	0	n/a	n/a	n/a	n/a	n/a
4026.114	n/a	RECOG_CONF	2013057	n/a	LTP180	ltpFR	0	1	1	PADDLE	1000	3	0	n/a	n/a	n/a	n/a	n/a
4029.596	n/a	RECOG_TARGET	2014798	n/a	LTP180	ltpFR	0	1	1	ROOSTER	1209	5	1	n/a	n/a	n/a	n/a	n/a
4031.528	n/a	RECOG_RESP	2015764	n/a	LTP180	ltpFR	0	1	1	ROOSTER	1209	n/a	1	n/a	n/a	n/a	n/a	n/a
4033.022	n/a	RECOG_RESP_VV	2016511	n/a	LTP180	ltpFR	0	1	1	ROOSTER	1209	5	1	n/a	n/a	n/a	n/a	n/a
4037.92	n/a	RECOG_CONF	2018960	n/a	LTP180	ltpFR	0	1	1	ROOSTER	1209	5	1	n/a	n/a	n/a	n/a	n/a
4040.87	n/a	RECOG_TARGET	2020435	n/a	LTP180	ltpFR	0	1	-1	BATH	98	3	-1	n/a	n/a	n/a	n/a	n/a
4043.938	n/a	RECOG_RESP_VV	2021969	n/a	LTP180	ltpFR	0	1	-1	BATH	98	n/a	-1	n/a	n/a	n/a	n/a	n/a
4049.604	n/a	RECOG_RESP	2024802	n/a	LTP180	ltpFR	0	1	-1	BATH	98	n/a	-1	n/a	n/a	n/a	n/a	n/a
4052.312	n/a	RECOG_CONF	2026156	n/a	LTP180	ltpFR	0	1	-1	BATH	98	3	-1	n/a	n/a	n/a	n/a	n/a
4054.68	n/a	RECOG_TARGET	2027340	n/a	LTP180	ltpFR	0	1	0	PATIO	1025	5	0	n/a	n/a	n/a	n/a	n/a
4057.006	n/a	RECOG_RESP	2028503	n/a	LTP180	ltpFR	0	1	0	PATIO	1025	n/a	0	n/a	n/a	n/a	n/a	n/a
4060.022	n/a	RECOG_CONF	2030011	n/a	LTP180	ltpFR	0	1	0	PATIO	1025	5	0	n/a	n/a	n/a	n/a	n/a
4062.12	n/a	RECOG_TARGET	2031060	n/a	LTP180	ltpFR	0	1	-1	LIMOUSINE	824	5	-1	n/a	n/a	n/a	n/a	n/a
4064.548	n/a	RECOG_RESP	2032274	n/a	LTP180	ltpFR	0	1	-1	LIMOUSINE	824	n/a	-1	n/a	n/a	n/a	n/a	n/a
4066.912	n/a	RECOG_CONF	2033456	n/a	LTP180	ltpFR	0	1	-1	LIMOUSINE	824	5	-1	n/a	n/a	n/a	n/a	n/a
4068.96	n/a	RECOG_TARGET	2034480	n/a	LTP180	ltpFR	0	1	1	DUSTPAN	509	4	0	n/a	n/a	n/a	n/a	n/a
4070.882	n/a	RECOG_RESP	2035441	n/a	LTP180	ltpFR	0	1	1	DUSTPAN	509	n/a	0	n/a	n/a	n/a	n/a	n/a
4073.17	n/a	RECOG_CONF	2036585	n/a	LTP180	ltpFR	0	1	1	DUSTPAN	509	4	0	n/a	n/a	n/a	n/a	n/a
4075.298	n/a	RECOG_TARGET	2037649	n/a	LTP180	ltpFR	0	1	0	DIAL	457	1	0	n/a	n/a	n/a	n/a	n/a
4078.75	n/a	RECOG_RESP	2039375	n/a	LTP180	ltpFR	0	1	0	DIAL	457	n/a	0	n/a	n/a	n/a	n/a	n/a
4080.456	n/a	RECOG_CONF	2040228	n/a	LTP180	ltpFR	0	1	0	DIAL	457	1	0	n/a	n/a	n/a	n/a	n/a
4082.68	n/a	RECOG_TARGET	2041340	n/a	LTP180	ltpFR	0	1	0	COMPASS	358	3	1	n/a	n/a	n/a	n/a	n/a
4085.426	n/a	RECOG_RESP	2042713	n/a	LTP180	ltpFR	0	1	0	COMPASS	358	n/a	1	n/a	n/a	n/a	n/a	n/a
4087.204	n/a	RECOG_RESP_VV	2043602	n/a	LTP180	ltpFR	0	1	0	COMPASS	358	3	1	n/a	n/a	n/a	n/a	n/a
4089.73	n/a	RECOG_CONF	2044865	n/a	LTP180	ltpFR	0	1	0	COMPASS	358	3	1	n/a	n/a	n/a	n/a	n/a
4091.752	n/a	RECOG_TARGET	2045876	n/a	LTP180	ltpFR	0	1	0	ANCHOR	21	4	0	n/a	n/a	n/a	n/a	n/a
4094.6	n/a	RECOG_RESP	2047300	n/a	LTP180	ltpFR	0	1	0	ANCHOR	21	n/a	0	n/a	n/a	n/a	n/a	n/a
4096.772	n/a	RECOG_CONF	2048386	n/a	LTP180	ltpFR	0	1	0	ANCHOR	21	4	0	n/a	n/a	n/a	n/a	n/a
4099.158	n/a	RECOG_LURE	2049579	n/a	LTP180	ltpFR	0	1	n/a	RING	1193	3	n/a	n/a	n/a	n/a	n/a	n/a
4100.86	n/a	RECOG_RESP	2050430	n/a	LTP180	ltpFR	0	1	n/a	RING	1193	n/a	n/a	n/a	n/a	n/a	n/a	n/a
4103.038	n/a	RECOG_RESP_VV	2051519	n/a	LTP180	ltpFR	0	1	n/a	RING	1193	3	n/a	n/a	n/a	n/a	n/a	n/a
4104.962	n/a	RECOG_CONF	2052481	n/a	LTP180	ltpFR	0	1	n/a	RING	1193	3	n/a	n/a	n/a	n/a	n/a	n/a
4107.864	n/a	RECOG_TARGET	2053932	n/a	LTP180	ltpFR	0	1	0	HELICOPTER	701	5	0	n/a	n/a	n/a	n/a	n/a
4110.206	n/a	RECOG_RESP	2055103	n/a	LTP180	ltpFR	0	1	0	HELICOPTER	701	n/a	0	n/a	n/a	n/a	n/a	n/a
4112.234	n/a	RECOG_CONF	2056117	n/a	LTP180	ltpFR	0	1	0	HELICOPTER	701	5	0	n/a	n/a	n/a	n/a	n/a
4114.594	n/a	RECOG_TARGET	2057297	n/a	LTP180	ltpFR	0	1	1	MOUNTAIN	924	5	0	n/a	n/a	n/a	n/a	n/a
4116.402	n/a	RECOG_RESP	2058201	n/a	LTP180	ltpFR	0	1	1	MOUNTAIN	924	n/a	0	n/a	n/a	n/a	n/a	n/a
4118.658	n/a	RECOG_CONF	2059329	n/a	LTP180	ltpFR	0	1	1	MOUNTAIN	924	5	0	n/a	n/a	n/a	n/a	n/a
4120.828	n/a	RECOG_TARGET	2060414	n/a	LTP180	ltpFR	0	1	0	ATTIRE	57	5	1	n/a	n/a	n/a	n/a	n/a
4123.158	n/a	RECOG_RESP	2061579	n/a	LTP180	ltpFR	0	1	0	ATTIRE	57	n/a	1	n/a	n/a	n/a	n/a	n/a
4125.882	n/a	RECOG_CONF	2062941	n/a	LTP180	ltpFR	0	1	0	ATTIRE	57	5	1	n/a	n/a	n/a	n/a	n/a
4127.7	n/a	RECOG_LURE	2063850	n/a	LTP180	ltpFR	0	1	n/a	DEPARTMENT	449	5	n/a	n/a	n/a	n/a	n/a	n/a
4129.558	n/a	RECOG_RESP	2064779	n/a	LTP180	ltpFR	0	1	n/a	DEPARTMENT	449	n/a	n/a	n/a	n/a	n/a	n/a	n/a
4131.902	n/a	RECOG_CONF	2065951	n/a	LTP180	ltpFR	0	1	n/a	DEPARTMENT	449	5	n/a	n/a	n/a	n/a	n/a	n/a
4134.498	n/a	RECOG_TARGET	2067249	n/a	LTP180	ltpFR	0	1	1	SIGN	1305	1	0	n/a	n/a	n/a	n/a	n/a
4141.204	n/a	RECOG_RESP	2070602	n/a	LTP180	ltpFR	0	1	1	SIGN	1305	n/a	0	n/a	n/a	n/a	n/a	n/a
4143.426	n/a	RECOG_CONF	2071713	n/a	LTP180	ltpFR	0	1	1	SIGN	1305	1	0	n/a	n/a	n/a	n/a	n/a
4145.878	n/a	RECOG_TARGET	2072939	n/a	LTP180	ltpFR	0	1	1	COYOTE	396	5	1	n/a	n/a	n/a	n/a	n/a
4148.194	n/a	RECOG_RESP	2074097	n/a	LTP180	ltpFR	0	1	1	COYOTE	396	n/a	1	n/a	n/a	n/a	n/a	n/a
4150.71	n/a	RECOG_CONF	2075355	n/a	LTP180	ltpFR	0	1	1	COYOTE	396	5	1	n/a	n/a	n/a	n/a	n/a
4153.008	n/a	RECOG_TARGET	2076504	n/a	LTP180	ltpFR	0	1	1	MOSQUITO	917	5	n/a	n/a	n/a	n/a	n/a	n/a
4155.392	n/a	RECOG_RESP	2077696	n/a	LTP180	ltpFR	0	1	1	MOSQUITO	917	n/a	n/a	n/a	n/a	n/a	n/a	n/a
4157.774	n/a	RECOG_CONF	2078887	n/a	LTP180	ltpFR	0	1	1	MOSQUITO	917	5	n/a	n/a	n/a	n/a	n/a	n/a
4160.74	n/a	RECOG_TARGET	2080370	n/a	LTP180	ltpFR	0	1	0	RACKET	1155	2	0	n/a	n/a	n/a	n/a	n/a
4164.454	n/a	RECOG_RESP	2082227	n/a	LTP180	ltpFR	0	1	0	RACKET	1155	n/a	0	n/a	n/a	n/a	n/a	n/a
4166.934	n/a	RECOG_CONF	2083467	n/a	LTP180	ltpFR	0	1	0	RACKET	1155	2	0	n/a	n/a	n/a	n/a	n/a
4169.246	n/a	RECOG_TARGET	2084623	n/a	LTP180	ltpFR	0	1	-1	CAPITAL	238	4	-1	n/a	n/a	n/a	n/a	n/a
4171.038	n/a	RECOG_RESP	2085519	n/a	LTP180	ltpFR	0	1	-1	CAPITAL	238	n/a	-1	n/a	n/a	n/a	n/a	n/a
4175.434	n/a	RECOG_CONF	2087717	n/a	LTP180	ltpFR	0	1	-1	CAPITAL	238	4	-1	n/a	n/a	n/a	n/a	n/a
4177.402	n/a	RECOG_TARGET	2088701	n/a	LTP180	ltpFR	0	1	1	ANIMAL	23	5	1	n/a	n/a	n/a	n/a	n/a
4179.7	n/a	RECOG_RESP	2089850	n/a	LTP180	ltpFR	0	1	1	ANIMAL	23	n/a	1	n/a	n/a	n/a	n/a	n/a
4182.616	n/a	RECOG_CONF	2091308	n/a	LTP180	ltpFR	0	1	1	ANIMAL	23	5	1	n/a	n/a	n/a	n/a	n/a
4216.79	n/a	REC_START	2108395	n/a	LTP180	ltpFR	0	2	n/a	n/a	n/a	n/a	n/a	n/a	n/a	n/a	n/a	n/a
4216.824	n/a	RECOG_TARGET	2108412	n/a	LTP180	ltpFR	0	2	-1	MOWER	928	3	-1	n/a	n/a	n/a	n/a	n/a
4220.514	n/a	RECOG_RESP	2110257	n/a	LTP180	ltpFR	0	2	-1	MOWER	928	n/a	-1	n/a	n/a	n/a	n/a	n/a
4223.068	n/a	RECOG_CONF	2111534	n/a	LTP180	ltpFR	0	2	-1	MOWER	928	3	-1	n/a	n/a	n/a	n/a	n/a
4225.12	n/a	RECOG_TARGET	2112560	n/a	LTP180	ltpFR	0	2	-1	TUTU	1524	5	-1	n/a	n/a	n/a	n/a	n/a
4228.134	n/a	RECOG_RESP	2114067	n/a	LTP180	ltpFR	0	2	-1	TUTU	1524	n/a	-1	n/a	n/a	n/a	n/a	n/a
4230.274	n/a	RECOG_CONF	2115137	n/a	LTP180	ltpFR	0	2	-1	TUTU	1524	5	-1	n/a	n/a	n/a	n/a	n/a
4232.594	n/a	RECOG_LURE	2116297	n/a	LTP180	ltpFR	0	2	n/a	VINE	1568	4	n/a	n/a	n/a	n/a	n/a	n/a
4235.01	n/a	RECOG_RESP	2117505	n/a	LTP180	ltpFR	0	2	n/a	VINE	1568	n/a	n/a	n/a	n/a	n/a	n/a	n/a
4238.216	n/a	RECOG_CONF	2119108	n/a	LTP180	ltpFR	0	2	n/a	VINE	1568	4	n/a	n/a	n/a	n/a	n/a	n/a
4240.44	n/a	RECOG_TARGET	2120220	n/a	LTP180	ltpFR	0	2	1	BUTTERFLY	206	1	1	n/a	n/a	n/a	n/a	n/a
4246.834	n/a	RECOG_RESP	2123417	n/a	LTP180	ltpFR	0	2	1	BUTTERFLY	206	n/a	1	n/a	n/a	n/a	n/a	n/a
4249.86	n/a	RECOG_CONF	2124930	n/a	LTP180	ltpFR	0	2	1	BUTTERFLY	206	1	1	n/a	n/a	n/a	n/a	n/a
4252.146	n/a	RECOG_TARGET	2126073	n/a	LTP180	ltpFR	0	2	-1	SHARK	1275	5	-1	n/a	n/a	n/a	n/a	n/a
4253.908	n/a	RECOG_RESP	2126954	n/a	LTP180	ltpFR	0	2	-1	SHARK	1275	n/a	-1	n/a	n/a	n/a	n/a	n/a
4257.44	n/a	RECOG_CONF	2128720	n/a	LTP180	ltpFR	0	2	-1	SHARK	1275	5	-1	n/a	n/a	n/a	n/a	n/a
4259.46	n/a	RECOG_TARGET	2129730	n/a	LTP180	ltpFR	0	2	-1	BLUEBERRY	140	5	-1	n/a	n/a	n/a	n/a	n/a
4261.13	n/a	RECOG_RESP	2130565	n/a	LTP180	ltpFR	0	2	-1	BLUEBERRY	140	n/a	-1	n/a	n/a	n/a	n/a	n/a
4263.47	n/a	RECOG_CONF	2131735	n/a	LTP180	ltpFR	0	2	-1	BLUEBERRY	140	5	-1	n/a	n/a	n/a	n/a	n/a
4265.698	n/a	RECOG_LURE	2132849	n/a	LTP180	ltpFR	0	2	n/a	BANDANNA	80	5	n/a	n/a	n/a	n/a	n/a	n/a
4269.296	n/a	RECOG_RESP	2134648	n/a	LTP180	ltpFR	0	2	n/a	BANDANNA	80	n/a	n/a	n/a	n/a	n/a	n/a	n/a
4271.102	n/a	RECOG_CONF	2135551	n/a	LTP180	ltpFR	0	2	n/a	BANDANNA	80	5	n/a	n/a	n/a	n/a	n/a	n/a
4273.464	n/a	RECOG_TARGET	2136732	n/a	LTP180	ltpFR	0	2	0	MUG	930	5	1	n/a	n/a	n/a	n/a	n/a
4275.224	n/a	RECOG_RESP	2137612	n/a	LTP180	ltpFR	0	2	0	MUG	930	n/a	1	n/a	n/a	n/a	n/a	n/a
4277.268	n/a	RECOG_CONF	2138634	n/a	LTP180	ltpFR	0	2	0	MUG	930	5	1	n/a	n/a	n/a	n/a	n/a
4279.92	n/a	RECOG_LURE	2139960	n/a	LTP180	ltpFR	0	2	n/a	BROTHER	179	4	n/a	n/a	n/a	n/a	n/a	n/a
4283.118	n/a	RECOG_RESP	2141559	n/a	LTP180	ltpFR	0	2	n/a	BROTHER	179	n/a	n/a	n/a	n/a	n/a	n/a	n/a
4286.05	n/a	RECOG_CONF	2143025	n/a	LTP180	ltpFR	0	2	n/a	BROTHER	179	4	n/a	n/a	n/a	n/a	n/a	n/a
4288.268	n/a	RECOG_TARGET	2144134	n/a	LTP180	ltpFR	0	2	1	VOLLEYBALL	1576	3	0	n/a	n/a	n/a	n/a	n/a
4290.616	n/a	RECOG_RESP	2145308	n/a	LTP180	ltpFR	0	2	1	VOLLEYBALL	1576	n/a	0	n/a	n/a	n/a	n/a	n/a
4293.5	n/a	RECOG_CONF	2146750	n/a	LTP180	ltpFR	0	2	1	VOLLEYBALL	1576	3	0	n/a	n/a	n/a	n/a	n/a
4295.532	n/a	RECOG_LURE	2147766	n/a	LTP180	ltpFR	0	2	n/a	HOOD	714	3	n/a	n/a	n/a	n/a	n/a	n/a
4297.916	n/a	RECOG_RESP	2148958	n/a	LTP180	ltpFR	0	2	n/a	HOOD	714	n/a	n/a	n/a	n/a	n/a	n/a	n/a
4299.598	n/a	RECOG_CONF	2149799	n/a	LTP180	ltpFR	0	2	n/a	HOOD	714	3	n/a	n/a	n/a	n/a	n/a	n/a
4302.004	n/a	RECOG_TARGET	2151002	n/a	LTP180	ltpFR	0	2	-1	CAPTAIN	239	4	-1	n/a	n/a	n/a	n/a	n/a
4304.04	n/a	RECOG_RESP	2152020	n/a	LTP180	ltpFR	0	2	-1	CAPTAIN	239	n/a	-1	n/a	n/a	n/a	n/a	n/a
4306.14	n/a	RECOG_CONF	2153070	n/a	LTP180	ltpFR	0	2	-1	CAPTAIN	239	4	-1	n/a	n/a	n/a	n/a	n/a
4308.954	n/a	RECOG_TARGET	2154477	n/a	LTP180	ltpFR	0	2	-1	HAWK	692	1	-1	n/a	n/a	n/a	n/a	n/a
4311.97	n/a	RECOG_RESP	2155985	n/a	LTP180	ltpFR	0	2	-1	HAWK	692	n/a	-1	n/a	n/a	n/a	n/a	n/a
4313.742	n/a	RECOG_CONF	2156871	n/a	LTP180	ltpFR	0	2	-1	HAWK	692	1	-1	n/a	n/a	n/a	n/a	n/a
4315.792	n/a	RECOG_TARGET	2157896	n/a	LTP180	ltpFR	0	2	1	CREVICE	405	1	n/a	n/a	n/a	n/a	n/a	n/a
4321.656	n/a	RECOG_RESP	2160828	n/a	LTP180	ltpFR	0	2	1	CREVICE	405	n/a	n/a	n/a	n/a	n/a	n/a	n/a
4323.574	n/a	RECOG_CONF	2161787	n/a	LTP180	ltpFR	0	2	1	CREVICE	405	1	n/a	n/a	n/a	n/a	n/a	n/a
4325.498	n/a	RECOG_TARGET	2162749	n/a	LTP180	ltpFR	0	2	1	BIBLE	124	5	0	n/a	n/a	n/a	n/a	n/a
4327.462	n/a	RECOG_RESP	2163731	n/a	LTP180	ltpFR	0	2	1	BIBLE	124	n/a	0	n/a	n/a	n/a	n/a	n/a
4329.404	n/a	RECOG_CONF	2164702	n/a	LTP180	ltpFR	0	2	1	BIBLE	124	5	0	n/a	n/a	n/a	n/a	n/a
4331.83	n/a	RECOG_TARGET	2165915	n/a	LTP180	ltpFR	0	2	0	SPIDER	1351	5	0	n/a	n/a	n/a	n/a	n/a
4333.388	n/a	RECOG_RESP	2166694	n/a	LTP180	ltpFR	0	2	0	SPIDER	1351	n/a	0	n/a	n/a	n/a	n/a	n/a
4335.768	n/a	RECOG_CONF	2167884	n/a	LTP180	ltpFR	0	2	0	SPIDER	1351	5	0	n/a	n/a	n/a	n/a	n/a
4337.594	n/a	RECOG_LURE	2168797	n/a	LTP180	ltpFR	0	2	n/a	ARENA	37	5	n/a	n/a	n/a	n/a	n/a	n/a
4340.702	n/a	RECOG_RESP	2170351	n/a	LTP180	ltpFR	0	2	n/a	ARENA	37	n/a	n/a	n/a	n/a	n/a	n/a	n/a
4342.364	n/a	RECOG_CONF	2171182	n/a	LTP180	ltpFR	0	2	n/a	ARENA	37	5	n/a	n/a	n/a	n/a	n/a	n/a
4344.26	n/a	RECOG_TARGET	2172130	n/a	LTP180	ltpFR	0	2	-1	OATMEAL	967	4	-1	n/a	n/a	n/a	n/a	n/a
4347.3	n/a	RECOG_RESP	2173650	n/a	LTP180	ltpFR	0	2	-1	OATMEAL	967	n/a	-1	n/a	n/a	n/a	n/a	n/a
4349.926	n/a	RECOG_CONF	2174963	n/a	LTP180	ltpFR	0	2	-1	OATMEAL	967	4	-1	n/a	n/a	n/a	n/a	n/a
4351.924	n/a	RECOG_TARGET	2175962	n/a	LTP180	ltpFR	0	2	0	SHERIFF	1284	5	n/a	n/a	n/a	n/a	n/a	n/a
4353.796	n/a	RECOG_RESP	2176898	n/a	LTP180	ltpFR	0	2	0	SHERIFF	1284	n/a	n/a	n/a	n/a	n/a	n/a	n/a
4355.468	n/a	RECOG_CONF	2177734	n/a	LTP180	ltpFR	0	2	0	SHERIFF	1284	5	n/a	n/a	n/a	n/a	n/a	n/a
4357.58	n/a	RECOG_TARGET	2178790	n/a	LTP180	ltpFR	0	2	0	STOMACH	1384	5	0	n/a	n/a	n/a	n/a	n/a
4359.548	n/a	RECOG_RESP	2179774	n/a	LTP180	ltpFR	0	2	0	STOMACH	1384	n/a	0	n/a	n/a	n/a	n/a	n/a
4361.006	n/a	RECOG_CONF	2180503	n/a	LTP180	ltpFR	0	2	0	STOMACH	1384	5	0	n/a	n/a	n/a	n/a	n/a
4369.636	n/a	REC_START	2184818	n/a	LTP180	ltpFR	0	3	n/a	n/a	n/a	n/a	n/a	n/a	n/a	n/a	n/a	n/a
4369.668	n/a	RECOG_LURE	2184834	n/a	LTP180	ltpFR	0	3	n/a	ACORN	3	5	n/a	n/a	n/a	n/a	n/a	n/a
4372.916	n/a	RECOG_RESP	2186458	n/a	LTP180	ltpFR	0	3	n/a	ACORN	3	n/a	n/a	n/a	n/a	n/a	n/a	n/a
4374.598	n/a	RECOG_CONF	2187299	n/a	LTP180	ltpFR	0	3	n/a	ACORN	3	5	n/a	n/a	n/a	n/a	n/a	n/a
4376.716	n/a	RECOG_TARGET	2188358	n/a	LTP180	ltpFR	0	3	1	CANOE	233	5	0	n/a	n/a	n/a	n/a	n/a
4380.296	n/a	RECOG_RESP	2190148	n/a	LTP180	ltpFR	0	3	1	CANOE	233	n/a	0	n/a	n/a	n/a	n/a	n/a
4382.24	n/a	RECOG_CONF	2191120	n/a	LTP180	ltpFR	0	3	1	CANOE	233	5	0	n/a	n/a	n/a	n/a	n/a
4384.156	n/a	RECOG_TARGET	2192078	n/a	LTP180	ltpFR	0	3	1	CREEK	404	3	2	n/a	n/a	n/a	n/a	n/a
4386.506	n/a	RECOG_RESP	2193253	n/a	LTP180	ltpFR	0	3	1	CREEK	404	n/a	2	n/a	n/a	n/a	n/a	n/a
4388.858	n/a	RECOG_CONF	2194429	n/a	LTP180	ltpFR	0	3	1	CREEK	404	3	2	n/a	n/a	n/a	n/a	n/a
4390.87	n/a	RECOG_LURE	2195435	n/a	LTP180	ltpFR	0	3	n/a	SECRETARY	1265	5	n/a	n/a	n/a	n/a	n/a	n/a
4392.612	n/a	RECOG_RESP	2196306	n/a	LTP180	ltpFR	0	3	n/a	SECRETARY	1265	n/a	n/a	n/a	n/a	n/a	n/a	n/a
4395.568	n/a	RECOG_CONF	2197784	n/a	LTP180	ltpFR	0	3	n/a	SECRETARY	1265	5	n/a	n/a	n/a	n/a	n/a	n/a
4397.742	n/a	RECOG_LURE	2198871	n/a	LTP180	ltpFR	0	3	n/a	COWBOY	395	1	n/a	n/a	n/a	n/a	n/a	n/a
4401.632	n/a	RECOG_RESP	2200816	n/a	LTP180	ltpFR	0	3	n/a	COWBOY	395	n/a	n/a	n/a	n/a	n/a	n/a	n/a
4404.9	n/a	RECOG_CONF	2202450	n/a	LTP180	ltpFR	0	3	n/a	COWBOY	395	1	n/a	n/a	n/a	n/a	n/a	n/a
4406.79	n/a	RECOG_TARGET	2203395	n/a	LTP180	ltpFR	0	3	1	SIREN	1310	4	0	n/a	n/a	n/a	n/a	n/a
4408.35	n/a	RECOG_RESP	2204175	n/a	LTP180	ltpFR	0	3	1	SIREN	1310	n/a	0	n/a	n/a	n/a	n/a	n/a
4410.556	n/a	RECOG_CONF	2205278	n/a	LTP180	ltpFR	0	3	1	SIREN	1310	4	0	n/a	n/a	n/a	n/a	n/a
4412.688	n/a	RECOG_LURE	2206344	n/a	LTP180	ltpFR	0	3	n/a	CARDINAL	244	4	n/a	n/a	n/a	n/a	n/a	n/a
4416.198	n/a	RECOG_RESP	2208099	n/a	LTP180	ltpFR	0	3	n/a	CARDINAL	244	n/a	n/a	n/a	n/a	n/a	n/a	n/a
4418.734	n/a	RECOG_CONF	2209367	n/a	LTP180	ltpFR	0	3	n/a	CARDINAL	244	4	n/a	n/a	n/a	n/a	n/a	n/a
4420.728	n/a	RECOG_TARGET	2210364	n/a	LTP180	ltpFR	0	3	1	NEWSSTAND	949	3	0	n/a	n/a	n/a	n/a	n/a
4422.432	n/a	RECOG_RESP	2211216	n/a	LTP180	ltpFR	0	3	1	NEWSSTAND	949	n/a	0	n/a	n/a	n/a	n/a	n/a
4424.16	n/a	RECOG_CONF	2212080	n/a	LTP180	ltpFR	0	3	1	NEWSSTAND	949	3	0	n/a	n/a	n/a	n/a	n/a
4426.15	n/a	RECOG_TARGET	2213075	n/a	LTP180	ltpFR	0	3	-1	TICK	1463	2	-1	n/a	n/a	n/a	n/a	n/a
4428.364	n/a	RECOG_RESP	2214182	n/a	LTP180	ltpFR	0	3	-1	TICK	1463	n/a	-1	n/a	n/a	n/a	n/a	n/a
4430.578	n/a	RECOG_CONF	2215289	n/a	LTP180	ltpFR	0	3	-1	TICK	1463	2	-1	n/a	n/a	n/a	n/a	n/a
4432.332	n/a	RECOG_TARGET	2216166	n/a	LTP180	ltpFR	0	3	1	HANGER	687	5	0	n/a	n/a	n/a	n/a	n/a
4434.12	n/a	RECOG_RESP	2217060	n/a	LTP180	ltpFR	0	3	1	HANGER	687	n/a	0	n/a	n/a	n/a	n/a	n/a
4436.9	n/a	RECOG_CONF	2218450	n/a	LTP180	ltpFR	0	3	1	HANGER	687	5	0	n/a	n/a	n/a	n/a	n/a
4438.932	n/a	RECOG_LURE	2219466	n/a	LTP180	ltpFR	0	3	n/a	BRAKE	166	1	n/a	n/a	n/a	n/a	n/a	n/a
4442.752	n/a	RECOG_RESP	2221376	n/a	LTP180	ltpFR	0	3	n/a	BRAKE	166	n/a	n/a	n/a	n/a	n/a	n/a	n/a
4444.578	n/a	RECOG_CONF	2222289	n/a	LTP180	ltpFR	0	3	n/a	BRAKE	166	1	n/a	n/a	n/a	n/a	n/a	n/a
4446.602	n/a	RECOG_LURE	2223301	n/a	LTP180	ltpFR	0	3	n/a	SANDWICH	1232	5	n/a	n/a	n/a	n/a	n/a	n/a
4448.816	n/a	RECOG_RESP	2224408	n/a	LTP180	ltpFR	0	3	n/a	SANDWICH	1232	n/a	n/a	n/a	n/a	n/a	n/a	n/a
4450.656	n/a	RECOG_CONF	2225328	n/a	LTP180	ltpFR	0	3	n/a	SANDWICH	1232	5	n/a	n/a	n/a	n/a	n/a	n/a
4452.684	n/a	RECOG_TARGET	2226342	n/a	LTP180	ltpFR	0	3	-1	CORN	381	3	-1	n/a	n/a	n/a	n/a	n/a
4456.046	n/a	RECOG_RESP	2228023	n/a	LTP180	ltpFR	0	3	-1	CORN	381	n/a	-1	n/a	n/a	n/a	n/a	n/a
4458.054	n/a	RECOG_CONF	2229027	n/a	LTP180	ltpFR	0	3	-1	CORN	381	3	-1	n/a	n/a	n/a	n/a	n/a
4460.116	n/a	RECOG_TARGET	2230058	n/a	LTP180	ltpFR	0	3	0	PAW	1029	5	1	n/a	n/a	n/a	n/a	n/a
4461.894	n/a	RECOG_RESP	2230947	n/a	LTP180	ltpFR	0	3	0	PAW	1029	n/a	1	n/a	n/a	n/a	n/a	n/a
4463.884	n/a	RECOG_CONF	2231942	n/a	LTP180	ltpFR	0	3	0	PAW	1029	5	1	n/a	n/a	n/a	n/a	n/a
4465.864	n/a	RECOG_LURE	2232932	n/a	LTP180	ltpFR	0	3	n/a	STALLION	1369	4	n/a	n/a	n/a	n/a	n/a	n/a
4467.5	n/a	RECOG_RESP	2233750	n/a	LTP180	ltpFR	0	3	n/a	STALLION	1369	n/a	n/a	n/a	n/a	n/a	n/a	n/a
4470.36	n/a	RECOG_CONF	2235180	n/a	LTP180	ltpFR	0	3	n/a	STALLION	1369	4	n/a	n/a	n/a	n/a	n/a	n/a
4472.278	n/a	RECOG_TARGET	2236139	n/a	LTP180	ltpFR	0	3	-1	LEOPARD	812	5	-1	n/a	n/a	n/a	n/a	n/a
4475.294	n/a	RECOG_RESP	2237647	n/a	LTP180	ltpFR	0	3	-1	LEOPARD	812	n/a	-1	n/a	n/a	n/a	n/a	n/a
4476.73	n/a	RECOG_CONF	2238365	n/a	LTP180	ltpFR	0	3	-1	LEOPARD	812	5	-1	n/a	n/a	n/a	n/a	n/a
4478.794	n/a	RECOG_TARGET	2239397	n/a	LTP180	ltpFR	0	3	-1	JUNGLE	764	3	-1	n/a	n/a	n/a	n/a	n/a
4482.128	n/a	RECOG_RESP	2241064	n/a	LTP180	ltpFR	0	3	-1	JUNGLE	764	n/a	-1	n/a	n/a	n/a	n/a	n/a
4483.834	n/a	RECOG_CONF	2241917	n/a	LTP180	ltpFR	0	3	-1	JUNGLE	764	3	-1	n/a	n/a	n/a	n/a	n/a
4485.542	n/a	RECOG_TARGET	2242771	n/a	LTP180	ltpFR	0	3	1	CABOOSE	214	1	n/a	n/a	n/a	n/a	n/a	n/a
4490.842	n/a	RECOG_RESP	2245421	n/a	LTP180	ltpFR	0	3	1	CABOOSE	214	n/a	n/a	n/a	n/a	n/a	n/a	n/a
4492.28	n/a	RECOG_CONF	2246140	n/a	LTP180	ltpFR	0	3	1	CABOOSE	214	1	n/a	n/a	n/a	n/a	n/a	n/a
4494.214	n/a	RECOG_TARGET	2247107	n/a	LTP180	ltpFR	0	3	0	RADISH	1158	3	1	n/a	n/a	n/a	n/a	n/a
4497.246	n/a	RECOG_RESP	2248623	n/a	LTP180	ltpFR	0	3	0	RADISH	1158	n/a	1	n/a	n/a	n/a	n/a	n/a
4499.002	n/a	RECOG_CONF	2249501	n/a	LTP180	ltpFR	0	3	0	RADISH	1158	3	1	n/a	n/a	n/a	n/a	n/a
4501.104	n/a	RECOG_TARGET	2250552	n/a	LTP180	ltpFR	0	3	0	TOOTHPASTE	1483	5	1	n/a	n/a	n/a	n/a	n/a
4503.672	n/a	RECOG_RESP	2251836	n/a	LTP180	ltpFR	0	3	0	TOOTHPASTE	1483	n/a	1	n/a	n/a	n/a	n/a	n/a
4505.436	n/a	RECOG_CONF	2252718	n/a	LTP180	ltpFR	0	3	0	TOOTHPASTE	1483	5	1	n/a	n/a	n/a	n/a	n/a
4513.81	n/a	REC_START	2256905	n/a	LTP180	ltpFR	0	4	n/a	n/a	n/a	n/a	n/a	n/a	n/a	n/a	n/a	n/a
4513.85	n/a	RECOG_TARGET	2256925	n/a	LTP180	ltpFR	0	4	1	COSTUME	383	3	0	n/a	n/a	n/a	n/a	n/a
4516.79	n/a	RECOG_RESP	2258395	n/a	LTP180	ltpFR	0	4	1	COSTUME	383	n/a	0	n/a	n/a	n/a	n/a	n/a
4518.638	n/a	RECOG_CONF	2259319	n/a	LTP180	ltpFR	0	4	1	COSTUME	383	3	0	n/a	n/a	n/a	n/a	n/a
4520.54	n/a	RECOG_TARGET	2260270	n/a	LTP180	ltpFR	0	4	0	OWNER	993	1	0	n/a	n/a	n/a	n/a	n/a
4522.088	n/a	RECOG_RESP	2261044	n/a	LTP180	ltpFR	0	4	0	OWNER	993	n/a	0	n/a	n/a	n/a	n/a	n/a
4525.61	n/a	RECOG_CONF	2262805	n/a	LTP180	ltpFR	0	4	0	OWNER	993	1	0	n/a	n/a	n/a	n/a	n/a
4527.47	n/a	RECOG_TARGET	2263735	n/a	LTP180	ltpFR	0	4	0	HAMPER	682	5	0	n/a	n/a	n/a	n/a	n/a
4529.91	n/a	RECOG_RESP	2264955	n/a	LTP180	ltpFR	0	4	0	HAMPER	682	n/a	0	n/a	n/a	n/a	n/a	n/a
4532.056	n/a	RECOG_CONF	2266028	n/a	LTP180	ltpFR	0	4	0	HAMPER	682	5	0	n/a	n/a	n/a	n/a	n/a
4534.144	n/a	RECOG_TARGET	2267072	n/a	LTP180	ltpFR	0	4	0	DUMP	505	5	1	n/a	n/a	n/a	n/a	n/a
4535.738	n/a	RECOG_RESP	2267869	n/a	LTP180	ltpFR	0	4	0	DUMP	505	n/a	1	n/a	n/a	n/a	n/a	n/a
4538.186	n/a	RECOG_CONF	2269093	n/a	LTP180	ltpFR	0	4	0	DUMP	505	5	1	n/a	n/a	n/a	n/a	n/a
4540.4	n/a	RECOG_TARGET	2270200	n/a	LTP180	ltpFR	0	4	1	BUS	201	5	0	n/a	n/a	n/a	n/a	n/a
4542.266	n/a	RECOG_RESP	2271133	n/a	LTP180	ltpFR	0	4	1	BUS	201	n/a	0	n/a	n/a	n/a	n/a	n/a
4544.382	n/a	RECOG_CONF	2272191	n/a	LTP180	ltpFR	0	4	1	BUS	201	5	0	n/a	n/a	n/a	n/a	n/a
4546.564	n/a	RECOG_TARGET	2273282	n/a	LTP180	ltpFR	0	4	0	METEOR	889	5	1	n/a	n/a	n/a	n/a	n/a
4547.978	n/a	RECOG_RESP	2273989	n/a	LTP180	ltpFR	0	4	0	METEOR	889	n/a	1	n/a	n/a	n/a	n/a	n/a
4550.172	n/a	RECOG_CONF	2275086	n/a	LTP180	ltpFR	0	4	0	METEOR	889	5	1	n/a	n/a	n/a	n/a	n/a
4552.28	n/a	RECOG_LURE	2276140	n/a	LTP180	ltpFR	0	4	n/a	OUTDOORS	987	1	n/a	n/a	n/a	n/a	n/a	n/a
4554.888	n/a	RECOG_RESP	2277444	n/a	LTP180	ltpFR	0	4	n/a	OUTDOORS	987	n/a	n/a	n/a	n/a	n/a	n/a	n/a
4556.608	n/a	RECOG_CONF	2278304	n/a	LTP180	ltpFR	0	4	n/a	OUTDOORS	987	1	n/a	n/a	n/a	n/a	n/a	n/a
4558.57	n/a	RECOG_TARGET	2279285	n/a	LTP180	ltpFR	0	4	0	OUTFIT	988	5	1	n/a	n/a	n/a	n/a	n/a
4562.168	n/a	RECOG_RESP	2281084	n/a	LTP180	ltpFR	0	4	0	OUTFIT	988	n/a	1	n/a	n/a	n/a	n/a	n/a
4564.7	n/a	RECOG_CONF	2282350	n/a	LTP180	ltpFR	0	4	0	OUTFIT	988	5	1	n/a	n/a	n/a	n/a	n/a
4566.816	n/a	RECOG_TARGET	2283408	n/a	LTP180	ltpFR	0	4	1	BULLETIN	195	5	0	n/a	n/a	n/a	n/a	n/a
4568.262	n/a	RECOG_RESP	2284131	n/a	LTP180	ltpFR	0	4	1	BULLETIN	195	n/a	0	n/a	n/a	n/a	n/a	n/a
4570.416	n/a	RECOG_CONF	2285208	n/a	LTP180	ltpFR	0	4	1	BULLETIN	195	5	0	n/a	n/a	n/a	n/a	n/a
4572.432	n/a	RECOG_TARGET	2286216	n/a	LTP180	ltpFR	0	4	-1	SURF	1412	3	-1	n/a	n/a	n/a	n/a	n/a
4574.69	n/a	RECOG_RESP	2287345	n/a	LTP180	ltpFR	0	4	-1	SURF	1412	n/a	-1	n/a	n/a	n/a	n/a	n/a
4576.794	n/a	RECOG_CONF	2288397	n/a	LTP180	ltpFR	0	4	-1	SURF	1412	3	-1	n/a	n/a	n/a	n/a	n/a
4578.538	n/a	RECOG_TARGET	2289269	n/a	LTP180	ltpFR	0	4	1	CHAPEL	280	5	0	n/a	n/a	n/a	n/a	n/a
4579.826	n/a	RECOG_RESP	2289913	n/a	LTP180	ltpFR	0	4	1	CHAPEL	280	n/a	0	n/a	n/a	n/a	n/a	n/a
4581.59	n/a	RECOG_CONF	2290795	n/a	LTP180	ltpFR	0	4	1	CHAPEL	280	5	0	n/a	n/a	n/a	n/a	n/a
4583.662	n/a	RECOG_TARGET	2291831	n/a	LTP180	ltpFR	0	4	1	DIVER	476	5	1	n/a	n/a	n/a	n/a	n/a
4585.302	n/a	RECOG_RESP	2292651	n/a	LTP180	ltpFR	0	4	1	DIVER	476	n/a	1	n/a	n/a	n/a	n/a	n/a
4587.32	n/a	RECOG_CONF	2293660	n/a	LTP180	ltpFR	0	4	1	DIVER	476	5	1	n/a	n/a	n/a	n/a	n/a
4589.252	n/a	RECOG_LURE	2294626	n/a	LTP180	ltpFR	0	4	n/a	HOSTAGE	722	5	n/a	n/a	n/a	n/a	n/a	n/a
4590.666	n/a	RECOG_RESP	2295333	n/a	LTP180	ltpFR	0	4	n/a	HOSTAGE	722	n/a	n/a	n/a	n/a	n/a	n/a	n/a
4593.21	n/a	RECOG_CONF	2296605	n/a	LTP180	ltpFR	0	4	n/a	HOSTAGE	722	5	n/a	n/a	n/a	n/a	n/a	n/a
4595.15	n/a	RECOG_LURE	2297575	n/a	LTP180	ltpFR	0	4	n/a	WEB	1598	5	n/a	n/a	n/a	n/a	n/a	n/a
4596.416	n/a	RECOG_RESP	2298208	n/a	LTP180	ltpFR	0	4	n/a	WEB	1598	n/a	n/a	n/a	n/a	n/a	n/a	n/a
4598.832	n/a	RECOG_CONF	2299416	n/a	LTP180	ltpFR	0	4	n/a	WEB	1598	5	n/a	n/a	n/a	n/a	n/a	n/a
4601.072	n/a	RECOG_TARGET	2300536	n/a	LTP180	ltpFR	0	4	1	GROOM	665	5	1	n/a	n/a	n/a	n/a	n/a
4602.358	n/a	RECOG_RESP	2301179	n/a	LTP180	ltpFR	0	4	1	GROOM	665	n/a	1	n/a	n/a	n/a	n/a	n/a
4604.412	n/a	RECOG_CONF	2302206	n/a	LTP180	ltpFR	0	4	1	GROOM	665	5	1	n/a	n/a	n/a	n/a	n/a
4606.43	n/a	RECOG_LURE	2303215	n/a	LTP180	ltpFR	0	4	n/a	IGLOO	734	4	n/a	n/a	n/a	n/a	n/a	n/a
4608.132	n/a	RECOG_RESP	2304066	n/a	LTP180	ltpFR	0	4	n/a	IGLOO	734	n/a	n/a	n/a	n/a	n/a	n/a	n/a
4610.246	n/a	RECOG_CONF	2305123	n/a	LTP180	ltpFR	0	4	n/a	IGLOO	734	4	n/a	n/a	n/a	n/a	n/a	n/a
4612.694	n/a	RECOG_TARGET	2306347	n/a	LTP180	ltpFR	0	4	0	FRUIT	610	4	1	n/a	n/a	n/a	n/a	n/a
4615.048	n/a	RECOG_RESP	2307524	n/a	LTP180	ltpFR	0	4	0	FRUIT	610	n/a	1	n/a	n/a	n/a	n/a	n/a
4616.762	n/a	RECOG_CONF	2308381	n/a	LTP180	ltpFR	0	4	0	FRUIT	610	4	1	n/a	n/a	n/a	n/a	n/a
4618.526	n/a	RECOG_TARGET	2309263	n/a	LTP180	ltpFR	0	4	0	COLLAR	345	5	1	n/a	n/a	n/a	n/a	n/a
4619.73	n/a	RECOG_RESP	2309865	n/a	LTP180	ltpFR	0	4	0	COLLAR	345	n/a	1	n/a	n/a	n/a	n/a	n/a
4621.894	n/a	RECOG_CONF	2310947	n/a	LTP180	ltpFR	0	4	0	COLLAR	345	5	1	n/a	n/a	n/a	n/a	n/a
4623.992	n/a	RECOG_TARGET	2311996	n/a	LTP180	ltpFR	0	4	1	CHEERLEADER	288	5	1	n/a	n/a	n/a	n/a	n/a
4625.57	n/a	RECOG_RESP	2312785	n/a	LTP180	ltpFR	0	4	1	CHEERLEADER	288	n/a	1	n/a	n/a	n/a	n/a	n/a
4627.786	n/a	RECOG_CONF	2313893	n/a	LTP180	ltpFR	0	4	1	CHEERLEADER	288	5	1	n/a	n/a	n/a	n/a	n/a
4629.948	n/a	RECOG_TARGET	2314974	n/a	LTP180	ltpFR	0	4	-1	ANTEATER	26	5	-1	n/a	n/a	n/a	n/a	n/a
4632.412	n/a	RECOG_RESP	2316206	n/a	LTP180	ltpFR	0	4	-1	ANTEATER	26	n/a	-1	n/a	n/a	n/a	n/a	n/a
4634.322	n/a	RECOG_CONF	2317161	n/a	LTP180	ltpFR	0	4	-1	ANTEATER	26	5	-1	n/a	n/a	n/a	n/a	n/a
4688.314	n/a	REC_START	2344157	n/a	LTP180	ltpFR	0	5	n/a	n/a	n/a	n/a	n/a	n/a	n/a	n/a	n/a	n/a
4688.346	n/a	RECOG_LURE	2344173	n/a	LTP180	ltpFR	0	5	n/a	CLOCK	325	5	n/a	n/a	n/a	n/a	n/a	n/a
4690.374	n/a	RECOG_RESP	2345187	n/a	LTP180	ltpFR	0	5	n/a	CLOCK	325	n/a	n/a	n/a	n/a	n/a	n/a	n/a
4692.962	n/a	RECOG_CONF	2346481	n/a	LTP180	ltpFR	0	5	n/a	CLOCK	325	5	n/a	n/a	n/a	n/a	n/a	n/a
4694.928	n/a	RECOG_TARGET	2347464	n/a	LTP180	ltpFR	0	5	1	BOOTH	151	4	0	n/a	n/a	n/a	n/a	n/a
4700.354	n/a	RECOG_CONF	2350177	n/a	LTP180	ltpFR	0	5	1	BOOTH	151	4	0	n/a	n/a	n/a	n/a	n/a
4702.46	n/a	RECOG_TARGET	2351230	n/a	LTP180	ltpFR	0	5	0	JET	756	3	0	n/a	n/a	n/a	n/a	n/a
4704.814	n/a	RECOG_RESP	2352407	n/a	LTP180	ltpFR	0	5	0	JET	756	n/a	0	n/a	n/a	n/a	n/a	n/a
4706.746	n/a	RECOG_CONF	2353373	n/a	LTP180	ltpFR	0	5	0	JET	756	3	0	n/a	n/a	n/a	n/a	n/a
4708.424	n/a	RECOG_TARGET	2354212	n/a	LTP180	ltpFR	0	5	0	PENGUIN	1044	3	1	n/a	n/a	n/a	n/a	n/a
4712.154	n/a	RECOG_RESP	2356077	n/a	LTP180	ltpFR	0	5	0	PENGUIN	1044	n/a	1	n/a	n/a	n/a	n/a	n/a
4714.26	n/a	RECOG_CONF	2357130	n/a	LTP180	ltpFR	0	5	0	PENGUIN	1044	3	1	n/a	n/a	n/a	n/a	n/a
4716.072	n/a	RECOG_LURE	2358036	n/a	LTP180	ltpFR	0	5	n/a	CITRUS	313	4	n/a	n/a	n/a	n/a	n/a	n/a
4717.858	n/a	RECOG_RESP	2358929	n/a	LTP180	ltpFR	0	5	n/a	CITRUS	313	n/a	n/a	n/a	n/a	n/a	n/a	n/a
4720.042	n/a	RECOG_CONF	2360021	n/a	LTP180	ltpFR	0	5	n/a	CITRUS	313	4	n/a	n/a	n/a	n/a	n/a	n/a
4721.536	n/a	RECOG_TARGET	2360768	n/a	LTP180	ltpFR	0	5	1	MARKER	870	2	0	n/a	n/a	n/a	n/a	n/a
4723.314	n/a	RECOG_RESP	2361657	n/a	LTP180	ltpFR	0	5	1	MARKER	870	n/a	0	n/a	n/a	n/a	n/a	n/a
4725.472	n/a	RECOG_CONF	2362736	n/a	LTP180	ltpFR	0	5	1	MARKER	870	2	0	n/a	n/a	n/a	n/a	n/a
4727.044	n/a	RECOG_TARGET	2363522	n/a	LTP180	ltpFR	0	5	1	WITNESS	1618	4	1	n/a	n/a	n/a	n/a	n/a
4729.454	n/a	RECOG_RESP	2364727	n/a	LTP180	ltpFR	0	5	1	WITNESS	1618	n/a	1	n/a	n/a	n/a	n/a	n/a
4731.568	n/a	RECOG_CONF	2365784	n/a	LTP180	ltpFR	0	5	1	WITNESS	1618	4	1	n/a	n/a	n/a	n/a	n/a
4733.342	n/a	RECOG_LURE	2366671	n/a	LTP180	ltpFR	0	5	n/a	HURRICANE	727	4	n/a	n/a	n/a	n/a	n/a	n/a
4736.56	n/a	RECOG_RESP	2368280	n/a	LTP180	ltpFR	0	5	n/a	HURRICANE	727	n/a	n/a	n/a	n/a	n/a	n/a	n/a
4738.994	n/a	RECOG_CONF	2369497	n/a	LTP180	ltpFR	0	5	n/a	HURRICANE	727	4	n/a	n/a	n/a	n/a	n/a	n/a
4740.94	n/a	RECOG_LURE	2370470	n/a	LTP180	ltpFR	0	5	n/a	MOON	914	5	n/a	n/a	n/a	n/a	n/a	n/a
4742.54	n/a	RECOG_RESP	2371270	n/a	LTP180	ltpFR	0	5	n/a	MOON	914	n/a	n/a	n/a	n/a	n/a	n/a	n/a
4744.096	n/a	RECOG_CONF	2372048	n/a	LTP180	ltpFR	0	5	n/a	MOON	914	5	n/a	n/a	n/a	n/a	n/a	n/a
4746.006	n/a	RECOG_TARGET	2373003	n/a	LTP180	ltpFR	0	5	-1	CREATURE	403	5	-1	n/a	n/a	n/a	n/a	n/a
4747.384	n/a	RECOG_RESP	2373692	n/a	LTP180	ltpFR	0	5	-1	CREATURE	403	n/a	-1	n/a	n/a	n/a	n/a	n/a
4749.302	n/a	RECOG_CONF	2374651	n/a	LTP180	ltpFR	0	5	-1	CREATURE	403	5	-1	n/a	n/a	n/a	n/a	n/a
4751.102	n/a	RECOG_TARGET	2375551	n/a	LTP180	ltpFR	0	5	0	GARAGE	621	5	1	n/a	n/a	n/a	n/a	n/a
4753.156	n/a	RECOG_RESP	2376578	n/a	LTP180	ltpFR	0	5	0	GARAGE	621	n/a	1	n/a	n/a	n/a	n/a	n/a
4755.462	n/a	RECOG_CONF	2377731	n/a	LTP180	ltpFR	0	5	0	GARAGE	621	5	1	n/a	n/a	n/a	n/a	n/a
4757.218	n/a	RECOG_TARGET	2378609	n/a	LTP180	ltpFR	0	5	-1	SAW	1239	1	-1	n/a	n/a	n/a	n/a	n/a
4759.472	n/a	RECOG_RESP	2379736	n/a	LTP180	ltpFR	0	5	-1	SAW	1239	n/a	-1	n/a	n/a	n/a	n/a	n/a
4761.076	n/a	RECOG_CONF	2380538	n/a	LTP180	ltpFR	0	5	-1	SAW	1239	1	-1	n/a	n/a	n/a	n/a	n/a
4762.8	n/a	RECOG_TARGET	2381400	n/a	LTP180	ltpFR	0	5	-1	STATUE	1374	3	-1	n/a	n/a	n/a	n/a	n/a
4766.51	n/a	RECOG_RESP	2383255	n/a	LTP180	ltpFR	0	5	-1	STATUE	1374	n/a	-1	n/a	n/a	n/a	n/a	n/a
4768.124	n/a	RECOG_CONF	2384062	n/a	LTP180	ltpFR	0	5	-1	STATUE	1374	3	-1	n/a	n/a	n/a	n/a	n/a
4770.172	n/a	RECOG_TARGET	2385086	n/a	LTP180	ltpFR	0	5	1	FINGER	567	5	1	n/a	n/a	n/a	n/a	n/a
4771.618	n/a	RECOG_RESP	2385809	n/a	LTP180	ltpFR	0	5	1	FINGER	567	n/a	1	n/a	n/a	n/a	n/a	n/a
4773.636	n/a	RECOG_CONF	2386818	n/a	LTP180	ltpFR	0	5	1	FINGER	567	5	1	n/a	n/a	n/a	n/a	n/a
4775.078	n/a	RECOG_TARGET	2387539	n/a	LTP180	ltpFR	0	5	1	CHILD	299	5	1	n/a	n/a	n/a	n/a	n/a
4776.494	n/a	RECOG_RESP	2388247	n/a	LTP180	ltpFR	0	5	1	CHILD	299	n/a	1	n/a	n/a	n/a	n/a	n/a
4777.932	n/a	RECOG_CONF	2388966	n/a	LTP180	ltpFR	0	5	1	CHILD	299	5	1	n/a	n/a	n/a	n/a	n/a
4780.044	n/a	RECOG_TARGET	2390022	n/a	LTP180	ltpFR	0	5	0	HEN	703	5	0	n/a	n/a	n/a	n/a	n/a
4781.732	n/a	RECOG_RESP	2390866	n/a	LTP180	ltpFR	0	5	0	HEN	703	n/a	0	n/a	n/a	n/a	n/a	n/a
4783.854	n/a	RECOG_CONF	2391927	n/a	LTP180	ltpFR	0	5	0	HEN	703	5	0	n/a	n/a	n/a	n/a	n/a
4786.042	n/a	RECOG_TARGET	2393021	n/a	LTP180	ltpFR	0	5	0	UNIVERSE	1540	5	n/a	n/a	n/a	n/a	n/a	n/a
4787.156	n/a	RECOG_RESP	2393578	n/a	LTP180	ltpFR	0	5	0	UNIVERSE	1540	n/a	n/a	n/a	n/a	n/a	n/a	n/a
4788.55	n/a	RECOG_CONF	2394275	n/a	LTP180	ltpFR	0	5	0	UNIVERSE	1540	5	n/a	n/a	n/a	n/a	n/a	n/a
4790.632	n/a	RECOG_TARGET	2395316	n/a	LTP180	ltpFR	0	5	-1	PIKE	1067	1	-1	n/a	n/a	n/a	n/a	n/a
4794.444	n/a	RECOG_RESP	2397222	n/a	LTP180	ltpFR	0	5	-1	PIKE	1067	n/a	-1	n/a	n/a	n/a	n/a	n/a
4796.072	n/a	RECOG_CONF	2398036	n/a	LTP180	ltpFR	0	5	-1	PIKE	1067	1	-1	n/a	n/a	n/a	n/a	n/a
4798.046	n/a	RECOG_TARGET	2399023	n/a	LTP180	ltpFR	0	5	0	UNDERWEAR	1537	5	1	n/a	n/a	n/a	n/a	n/a
4800.084	n/a	RECOG_RESP	2400042	n/a	LTP180	ltpFR	0	5	0	UNDERWEAR	1537	n/a	1	n/a	n/a	n/a	n/a	n/a
