mstime	trial_type	stim_file	subject	experiment	session	trial	item_name	item_num	list	answer	test_x	test_y	test_z
0	SESS_START	n/a	LTP319	ltpFR2	2	n/a	n/a	n/a	n/a	n/a	0	0	0
21738	START	n/a	LTP319	ltpFR2	2	n/a	n/a	n/a	-1	n/a	n/a	n/a	n/a
21753	PROB	n/a	LTP319	ltpFR2	2	n/a	n/a	n/a	-1	21	4	9	8
24903	PROB	n/a	LTP319	ltpFR2	2	n/a	n/a	n/a	-1	15	6	5	2
27573	PROB	n/a	LTP319	ltpFR2	2	n/a	n/a	n/a	-1	16	6	2	8
29542	PROB	n/a	LTP319	ltpFR2	2	n/a	n/a	n/a	-1	15	2	7	6
31210	PROB	n/a	LTP319	ltpFR2	2	n/a	n/a	n/a	-1	16	8	1	7
32763	STOP	n/a	LTP319	ltpFR2	2	n/a	n/a	n/a	-1	n/a	n/a	n/a	n/a
95963	DISTRACTOR	n/a	LTP319	ltpFR2	2	1	n/a	n/a	n/a	n/a	0	0	0
95963	START	n/a	LTP319	ltpFR2	2	n/a	n/a	n/a	1	n/a	n/a	n/a	n/a
95978	PROB	n/a	LTP319	ltpFR2	2	n/a	n/a	n/a	1	10	4	4	2
98582	PROB	n/a	LTP319	ltpFR2	2	n/a	n/a	n/a	1	8	1	6	2
100999	PROB	n/a	LTP319	ltpFR2	2	n/a	n/a	n/a	1	19	6	6	7
106322	PROB	n/a	LTP319	ltpFR2	2	n/a	n/a	n/a	1	17	5	6	6
108575	PROB	n/a	LTP319	ltpFR2	2	n/a	n/a	n/a	1	20	8	4	8
110458	PROB	n/a	LTP319	ltpFR2	2	n/a	n/a	n/a	1	16	8	2	4
112510	PROB	n/a	LTP319	ltpFR2	2	n/a	n/a	n/a	1	8	2	2	4
115428	PROB	n/a	LTP319	ltpFR2	2	n/a	n/a	n/a	1	16	9	3	7
119963	STOP	n/a	LTP319	ltpFR2	2	n/a	n/a	n/a	1	n/a	n/a	n/a	n/a
120933	WORD	wordpools/wasnorm_wordpool_576.txt	LTP319	ltpFR2	2	1	PADDLE	1000	n/a	n/a	0	0	0
123507	WORD	wordpools/wasnorm_wordpool_576.txt	LTP319	ltpFR2	2	1	BUTCHER	203	n/a	n/a	0	0	0
126255	WORD	wordpools/wasnorm_wordpool_576.txt	LTP319	ltpFR2	2	1	GARDEN	623	n/a	n/a	0	0	0
128923	WORD	wordpools/wasnorm_wordpool_576.txt	LTP319	ltpFR2	2	1	SCARF	1246	n/a	n/a	0	0	0
131393	WORD	wordpools/wasnorm_wordpool_576.txt	LTP319	ltpFR2	2	1	BLENDER	136	n/a	n/a	0	0	0
133826	WORD	wordpools/wasnorm_wordpool_576.txt	LTP319	ltpFR2	2	1	SUPPER	1411	n/a	n/a	0	0	0
136486	WORD	wordpools/wasnorm_wordpool_576.txt	LTP319	ltpFR2	2	1	SNACK	1331	n/a	n/a	0	0	0
139030	WORD	wordpools/wasnorm_wordpool_576.txt	LTP319	ltpFR2	2	1	FLAG	573	n/a	n/a	0	0	0
141833	WORD	wordpools/wasnorm_wordpool_576.txt	LTP319	ltpFR2	2	1	MILK	895	n/a	n/a	0	0	0
144642	WORD	wordpools/wasnorm_wordpool_576.txt	LTP319	ltpFR2	2	1	COIN	343	n/a	n/a	0	0	0
147388	WORD	wordpools/wasnorm_wordpool_576.txt	LTP319	ltpFR2	2	1	LAKE	796	n/a	n/a	0	0	0
149896	WORD	wordpools/wasnorm_wordpool_576.txt	LTP319	ltpFR2	2	1	ROCKET	1202	n/a	n/a	0	0	0
152616	WORD	wordpools/wasnorm_wordpool_576.txt	LTP319	ltpFR2	2	1	COMET	353	n/a	n/a	0	0	0
155418	WORD	wordpools/wasnorm_wordpool_576.txt	LTP319	ltpFR2	2	1	PREACHER	1119	n/a	n/a	0	0	0
158113	WORD	wordpools/wasnorm_wordpool_576.txt	LTP319	ltpFR2	2	1	ICING	732	n/a	n/a	0	0	0
160623	WORD	wordpools/wasnorm_wordpool_576.txt	LTP319	ltpFR2	2	1	VIKING	1565	n/a	n/a	0	0	0
163302	WORD	wordpools/wasnorm_wordpool_576.txt	LTP319	ltpFR2	2	1	QUARTER	1148	n/a	n/a	0	0	0
165910	WORD	wordpools/wasnorm_wordpool_576.txt	LTP319	ltpFR2	2	1	CATTLE	261	n/a	n/a	0	0	0
168339	WORD	wordpools/wasnorm_wordpool_576.txt	LTP319	ltpFR2	2	1	BRAKE	166	n/a	n/a	0	0	0
170924	WORD	wordpools/wasnorm_wordpool_576.txt	LTP319	ltpFR2	2	1	BLOCKADE	137	n/a	n/a	0	0	0
173534	WORD	wordpools/wasnorm_wordpool_576.txt	LTP319	ltpFR2	2	1	CHAMPAGNE	278	n/a	n/a	0	0	0
176321	WORD	wordpools/wasnorm_wordpool_576.txt	LTP319	ltpFR2	2	1	SIBLING	1301	n/a	n/a	0	0	0
179021	WORD	wordpools/wasnorm_wordpool_576.txt	LTP319	ltpFR2	2	1	SCARECROW	1245	n/a	n/a	0	0	0
181525	WORD	wordpools/wasnorm_wordpool_576.txt	LTP319	ltpFR2	2	1	BOX	159	n/a	n/a	0	0	0
183133	START	n/a	LTP319	ltpFR2	2	n/a	n/a	n/a	2	n/a	n/a	n/a	n/a
183984	DISTRACTOR	n/a	LTP319	ltpFR2	2	1	n/a	n/a	n/a	n/a	0	0	0
183993	PROB	n/a	LTP319	ltpFR2	2	n/a	n/a	n/a	2	12	4	2	6
186404	PROB	n/a	LTP319	ltpFR2	2	n/a	n/a	n/a	2	13	2	3	8
192341	PROB	n/a	LTP319	ltpFR2	2	n/a	n/a	n/a	2	7	1	5	1
194124	PROB	n/a	LTP319	ltpFR2	2	n/a	n/a	n/a	2	17	1	8	8
195877	PROB	n/a	LTP319	ltpFR2	2	n/a	n/a	n/a	2	18	8	8	2
197960	PROB	n/a	LTP319	ltpFR2	2	n/a	n/a	n/a	2	16	8	6	2
200299	PROB	n/a	LTP319	ltpFR2	2	n/a	n/a	n/a	2	20	7	6	7
202749	PROB	n/a	LTP319	ltpFR2	2	n/a	n/a	n/a	2	23	6	9	8
206082	STOP	n/a	LTP319	ltpFR2	2	n/a	n/a	n/a	2	n/a	n/a	n/a	n/a
209004	REC_START	n/a	LTP319	ltpFR2	2	1	n/a	n/a	n/a	n/a	0	0	0
210832	REC_WORD	wordpools/wasnorm_wordpool_576.txt	LTP319	ltpFR2	2	1	BLOCKADE	137	n/a	n/a	0	0	0
212346	REC_WORD	wordpools/wasnorm_wordpool_576.txt	LTP319	ltpFR2	2	1	BRAKE	166	n/a	n/a	0	0	0
213926	REC_WORD	wordpools/wasnorm_wordpool_576.txt	LTP319	ltpFR2	2	1	COMET	353	n/a	n/a	0	0	0
217162	REC_WORD	wordpools/wasnorm_wordpool_576.txt	LTP319	ltpFR2	2	1	SCARF	1246	n/a	n/a	0	0	0
218640	REC_WORD	wordpools/wasnorm_wordpool_576.txt	LTP319	ltpFR2	2	1	BLENDER	136	n/a	n/a	0	0	0
229514	REC_WORD	wordpools/wasnorm_wordpool_576.txt	LTP319	ltpFR2	2	1	ICEBOX	-1	n/a	n/a	0	0	0
233140	REC_WORD	wordpools/wasnorm_wordpool_576.txt	LTP319	ltpFR2	2	1	SUPPER	1411	n/a	n/a	0	0	0
250690	REC_WORD	wordpools/wasnorm_wordpool_576.txt	LTP319	ltpFR2	2	1	SCARECROW	1245	n/a	n/a	0	0	0
299477	DISTRACTOR	n/a	LTP319	ltpFR2	2	2	n/a	n/a	n/a	n/a	0	0	0
299477	START	n/a	LTP319	ltpFR2	2	n/a	n/a	n/a	3	n/a	n/a	n/a	n/a
299493	PROB	n/a	LTP319	ltpFR2	2	n/a	n/a	n/a	3	9	1	1	7
301628	PROB	n/a	LTP319	ltpFR2	2	n/a	n/a	n/a	3	8	1	1	6
303778	PROB	n/a	LTP319	ltpFR2	2	n/a	n/a	n/a	3	15	5	3	7
305633	PROB	n/a	LTP319	ltpFR2	2	n/a	n/a	n/a	3	12	2	8	2
307482	PROB	n/a	LTP319	ltpFR2	2	n/a	n/a	n/a	3	20	9	4	7
310067	PROB	n/a	LTP319	ltpFR2	2	n/a	n/a	n/a	3	8	3	1	4
311951	PROB	n/a	LTP319	ltpFR2	2	n/a	n/a	n/a	3	17	6	3	8
315005	PROB	n/a	LTP319	ltpFR2	2	n/a	n/a	n/a	3	11	3	2	6
317224	PROB	n/a	LTP319	ltpFR2	2	n/a	n/a	n/a	3	9	4	4	1
318707	PROB	n/a	LTP319	ltpFR2	2	n/a	n/a	n/a	3	12	8	1	2
323477	STOP	n/a	LTP319	ltpFR2	2	n/a	n/a	n/a	3	n/a	n/a	n/a	n/a
324449	WORD	wordpools/wasnorm_wordpool_576.txt	LTP319	ltpFR2	2	2	PASTA	1021	n/a	n/a	0	0	0
327215	WORD	wordpools/wasnorm_wordpool_576.txt	LTP319	ltpFR2	2	2	SURVEY	1414	n/a	n/a	0	0	0
329784	WORD	wordpools/wasnorm_wordpool_576.txt	LTP319	ltpFR2	2	2	SPOON	1357	n/a	n/a	0	0	0
332571	WORD	wordpools/wasnorm_wordpool_576.txt	LTP319	ltpFR2	2	2	PERMIT	1051	n/a	n/a	0	0	0
335240	WORD	wordpools/wasnorm_wordpool_576.txt	LTP319	ltpFR2	2	2	MAILBOX	857	n/a	n/a	0	0	0
337691	WORD	wordpools/wasnorm_wordpool_576.txt	LTP319	ltpFR2	2	2	TART	1436	n/a	n/a	0	0	0
340209	WORD	wordpools/wasnorm_wordpool_576.txt	LTP319	ltpFR2	2	2	BROTHER	179	n/a	n/a	0	0	0
342897	WORD	wordpools/wasnorm_wordpool_576.txt	LTP319	ltpFR2	2	2	BOARD	143	n/a	n/a	0	0	0
345398	WORD	wordpools/wasnorm_wordpool_576.txt	LTP319	ltpFR2	2	2	MESSAGE	888	n/a	n/a	0	0	0
348015	WORD	wordpools/wasnorm_wordpool_576.txt	LTP319	ltpFR2	2	2	SWIMMER	1420	n/a	n/a	0	0	0
350518	WORD	wordpools/wasnorm_wordpool_576.txt	LTP319	ltpFR2	2	2	CANAL	226	n/a	n/a	0	0	0
353270	WORD	wordpools/wasnorm_wordpool_576.txt	LTP319	ltpFR2	2	2	PICNIC	1060	n/a	n/a	0	0	0
355888	WORD	wordpools/wasnorm_wordpool_576.txt	LTP319	ltpFR2	2	2	ASIA	46	n/a	n/a	0	0	0
358312	WORD	wordpools/wasnorm_wordpool_576.txt	LTP319	ltpFR2	2	2	ARMY	39	n/a	n/a	0	0	0
360959	WORD	wordpools/wasnorm_wordpool_576.txt	LTP319	ltpFR2	2	2	CHURCH	307	n/a	n/a	0	0	0
363512	WORD	wordpools/wasnorm_wordpool_576.txt	LTP319	ltpFR2	2	2	LETTUCE	814	n/a	n/a	0	0	0
366247	WORD	wordpools/wasnorm_wordpool_576.txt	LTP319	ltpFR2	2	2	FUNGUS	614	n/a	n/a	0	0	0
368715	WORD	wordpools/wasnorm_wordpool_576.txt	LTP319	ltpFR2	2	2	DINER	467	n/a	n/a	0	0	0
371323	WORD	wordpools/wasnorm_wordpool_576.txt	LTP319	ltpFR2	2	2	PORTRAIT	1111	n/a	n/a	0	0	0
373986	WORD	wordpools/wasnorm_wordpool_576.txt	LTP319	ltpFR2	2	2	COUCH	386	n/a	n/a	0	0	0
376638	WORD	wordpools/wasnorm_wordpool_576.txt	LTP319	ltpFR2	2	2	TREAT	1501	n/a	n/a	0	0	0
379140	WORD	wordpools/wasnorm_wordpool_576.txt	LTP319	ltpFR2	2	2	BLADE	134	n/a	n/a	0	0	0
381798	WORD	wordpools/wasnorm_wordpool_576.txt	LTP319	ltpFR2	2	2	LADY	794	n/a	n/a	0	0	0
384413	WORD	wordpools/wasnorm_wordpool_576.txt	LTP319	ltpFR2	2	2	WASP	1593	n/a	n/a	0	0	0
386019	START	n/a	LTP319	ltpFR2	2	n/a	n/a	n/a	4	n/a	n/a	n/a	n/a
386868	DISTRACTOR	n/a	LTP319	ltpFR2	2	2	n/a	n/a	n/a	n/a	0	0	0
386880	PROB	n/a	LTP319	ltpFR2	2	n/a	n/a	n/a	4	19	8	2	9
392101	PROB	n/a	LTP319	ltpFR2	2	n/a	n/a	n/a	4	13	2	9	2
394835	PROB	n/a	LTP319	ltpFR2	2	n/a	n/a	n/a	4	13	7	5	1
397205	PROB	n/a	LTP319	ltpFR2	2	n/a	n/a	n/a	4	19	8	6	5
400106	PROB	n/a	LTP319	ltpFR2	2	n/a	n/a	n/a	4	17	5	3	9
402308	PROB	n/a	LTP319	ltpFR2	2	n/a	n/a	n/a	4	16	2	5	9
405043	PROB	n/a	LTP319	ltpFR2	2	n/a	n/a	n/a	4	7	1	2	4
410019	STOP	n/a	LTP319	ltpFR2	2	n/a	n/a	n/a	4	n/a	n/a	n/a	n/a
411934	REC_START	n/a	LTP319	ltpFR2	2	2	n/a	n/a	n/a	n/a	0	0	0
413958	REC_WORD	wordpools/wasnorm_wordpool_576.txt	LTP319	ltpFR2	2	2	MAILBOX	857	n/a	n/a	0	0	0
414958	REC_WORD_VV	wordpools/wasnorm_wordpool_576.txt	LTP319	ltpFR2	2	2	<>	-1	n/a	n/a	0	0	0
415130	REC_WORD	wordpools/wasnorm_wordpool_576.txt	LTP319	ltpFR2	2	2	MESSAGE	888	n/a	n/a	0	0	0
416255	REC_WORD	wordpools/wasnorm_wordpool_576.txt	LTP319	ltpFR2	2	2	SWIMMER	1420	n/a	n/a	0	0	0
417637	REC_WORD	wordpools/wasnorm_wordpool_576.txt	LTP319	ltpFR2	2	2	CANAL	226	n/a	n/a	0	0	0
418681	REC_WORD	wordpools/wasnorm_wordpool_576.txt	LTP319	ltpFR2	2	2	BROTHER	179	n/a	n/a	0	0	0
419634	REC_WORD	wordpools/wasnorm_wordpool_576.txt	LTP319	ltpFR2	2	2	PASTA	1021	n/a	n/a	0	0	0
420675	REC_WORD	wordpools/wasnorm_wordpool_576.txt	LTP319	ltpFR2	2	2	SPOON	1357	n/a	n/a	0	0	0
424340	REC_WORD	wordpools/wasnorm_wordpool_576.txt	LTP319	ltpFR2	2	2	BLADE	134	n/a	n/a	0	0	0
426130	REC_WORD	wordpools/wasnorm_wordpool_576.txt	LTP319	ltpFR2	2	2	PICNIC	1060	n/a	n/a	0	0	0
427051	REC_WORD	wordpools/wasnorm_wordpool_576.txt	LTP319	ltpFR2	2	2	ASIA	46	n/a	n/a	0	0	0
428030	REC_WORD	wordpools/wasnorm_wordpool_576.txt	LTP319	ltpFR2	2	2	ARMY	39	n/a	n/a	0	0	0
431007	REC_WORD	wordpools/wasnorm_wordpool_576.txt	LTP319	ltpFR2	2	2	LETTUCE	814	n/a	n/a	0	0	0
432002	REC_WORD	wordpools/wasnorm_wordpool_576.txt	LTP319	ltpFR2	2	2	FUNGUS	614	n/a	n/a	0	0	0
458271	REC_WORD	wordpools/wasnorm_wordpool_576.txt	LTP319	ltpFR2	2	2	TART	1436	n/a	n/a	0	0	0
502374	DISTRACTOR	n/a	LTP319	ltpFR2	2	3	n/a	n/a	n/a	n/a	0	0	0
502374	START	n/a	LTP319	ltpFR2	2	n/a	n/a	n/a	5	n/a	n/a	n/a	n/a
502388	PROB	n/a	LTP319	ltpFR2	2	n/a	n/a	n/a	5	17	6	4	7
505306	PROB	n/a	LTP319	ltpFR2	2	n/a	n/a	n/a	5	12	4	2	5
507941	PROB	n/a	LTP319	ltpFR2	2	n/a	n/a	n/a	5	23	9	8	6
512211	PROB	n/a	LTP319	ltpFR2	2	n/a	n/a	n/a	5	18	8	8	2
513964	PROB	n/a	LTP319	ltpFR2	2	n/a	n/a	n/a	5	9	1	3	5
515767	PROB	n/a	LTP319	ltpFR2	2	n/a	n/a	n/a	5	13	2	2	9
517919	PROB	n/a	LTP319	ltpFR2	2	n/a	n/a	n/a	5	8	3	1	4
519586	PROB	n/a	LTP319	ltpFR2	2	n/a	n/a	n/a	5	15	7	3	5
523374	PROB	n/a	LTP319	ltpFR2	2	n/a	n/a	n/a	5	18	5	7	6
526248	STOP	n/a	LTP319	ltpFR2	2	n/a	n/a	n/a	5	n/a	n/a	n/a	n/a
527310	WORD	wordpools/wasnorm_wordpool_576.txt	LTP319	ltpFR2	2	3	SUNSET	1408	n/a	n/a	0	0	0
529861	WORD	wordpools/wasnorm_wordpool_576.txt	LTP319	ltpFR2	2	3	CLAM	315	n/a	n/a	0	0	0
532347	WORD	wordpools/wasnorm_wordpool_576.txt	LTP319	ltpFR2	2	3	PAPER	1011	n/a	n/a	0	0	0
534948	WORD	wordpools/wasnorm_wordpool_576.txt	LTP319	ltpFR2	2	3	REPORT	1184	n/a	n/a	0	0	0
537717	WORD	wordpools/wasnorm_wordpool_576.txt	LTP319	ltpFR2	2	3	DANDRUFF	439	n/a	n/a	0	0	0
540453	WORD	wordpools/wasnorm_wordpool_576.txt	LTP319	ltpFR2	2	3	PRIMATE	1123	n/a	n/a	0	0	0
542954	WORD	wordpools/wasnorm_wordpool_576.txt	LTP319	ltpFR2	2	3	CHIPMUNK	304	n/a	n/a	0	0	0
545542	WORD	wordpools/wasnorm_wordpool_576.txt	LTP319	ltpFR2	2	3	SPOOL	1356	n/a	n/a	0	0	0
548294	WORD	wordpools/wasnorm_wordpool_576.txt	LTP319	ltpFR2	2	3	LIZARD	834	n/a	n/a	0	0	0
550994	WORD	wordpools/wasnorm_wordpool_576.txt	LTP319	ltpFR2	2	3	HUSBAND	728	n/a	n/a	0	0	0
553648	WORD	wordpools/wasnorm_wordpool_576.txt	LTP319	ltpFR2	2	3	XEROX	1628	n/a	n/a	0	0	0
556350	WORD	wordpools/wasnorm_wordpool_576.txt	LTP319	ltpFR2	2	3	CRATER	400	n/a	n/a	0	0	0
559167	WORD	wordpools/wasnorm_wordpool_576.txt	LTP319	ltpFR2	2	3	LAVA	804	n/a	n/a	0	0	0
561837	WORD	wordpools/wasnorm_wordpool_576.txt	LTP319	ltpFR2	2	3	CABBAGE	210	n/a	n/a	0	0	0
564523	WORD	wordpools/wasnorm_wordpool_576.txt	LTP319	ltpFR2	2	3	DIVER	476	n/a	n/a	0	0	0
567091	WORD	wordpools/wasnorm_wordpool_576.txt	LTP319	ltpFR2	2	3	MACHINE	852	n/a	n/a	0	0	0
569927	WORD	wordpools/wasnorm_wordpool_576.txt	LTP319	ltpFR2	2	3	CROWN	415	n/a	n/a	0	0	0
572729	WORD	wordpools/wasnorm_wordpool_576.txt	LTP319	ltpFR2	2	3	CLOUD	328	n/a	n/a	0	0	0
575264	WORD	wordpools/wasnorm_wordpool_576.txt	LTP319	ltpFR2	2	3	REBEL	1172	n/a	n/a	0	0	0
578050	WORD	wordpools/wasnorm_wordpool_576.txt	LTP319	ltpFR2	2	3	POWDER	1117	n/a	n/a	0	0	0
580502	WORD	wordpools/wasnorm_wordpool_576.txt	LTP319	ltpFR2	2	3	BABY	64	n/a	n/a	0	0	0
583255	WORD	wordpools/wasnorm_wordpool_576.txt	LTP319	ltpFR2	2	3	MARINE	869	n/a	n/a	0	0	0
586043	WORD	wordpools/wasnorm_wordpool_576.txt	LTP319	ltpFR2	2	3	LAMP	798	n/a	n/a	0	0	0
588825	WORD	wordpools/wasnorm_wordpool_576.txt	LTP319	ltpFR2	2	3	BINDER	127	n/a	n/a	0	0	0
590431	START	n/a	LTP319	ltpFR2	2	n/a	n/a	n/a	6	n/a	n/a	n/a	n/a
591490	DISTRACTOR	n/a	LTP319	ltpFR2	2	3	n/a	n/a	n/a	n/a	0	0	0
591494	PROB	n/a	LTP319	ltpFR2	2	n/a	n/a	n/a	6	16	2	5	9
594829	PROB	n/a	LTP319	ltpFR2	2	n/a	n/a	n/a	6	19	7	5	7
597064	PROB	n/a	LTP319	ltpFR2	2	n/a	n/a	n/a	6	9	2	3	4
600934	PROB	n/a	LTP319	ltpFR2	2	n/a	n/a	n/a	6	16	3	6	7
604454	PROB	n/a	LTP319	ltpFR2	2	n/a	n/a	n/a	6	14	3	9	2
606888	PROB	n/a	LTP319	ltpFR2	2	n/a	n/a	n/a	6	21	9	5	8
614431	STOP	n/a	LTP319	ltpFR2	2	n/a	n/a	n/a	6	n/a	n/a	n/a	n/a
616330	REC_START	n/a	LTP319	ltpFR2	2	3	n/a	n/a	n/a	n/a	0	0	0
617939	REC_WORD	wordpools/wasnorm_wordpool_576.txt	LTP319	ltpFR2	2	3	DIVER	476	n/a	n/a	0	0	0
619666	REC_WORD	wordpools/wasnorm_wordpool_576.txt	LTP319	ltpFR2	2	3	MARINE	869	n/a	n/a	0	0	0
621058	REC_WORD	wordpools/wasnorm_wordpool_576.txt	LTP319	ltpFR2	2	3	BABY	64	n/a	n/a	0	0	0
622406	REC_WORD	wordpools/wasnorm_wordpool_576.txt	LTP319	ltpFR2	2	3	SUNSET	1408	n/a	n/a	0	0	0
624241	REC_WORD	wordpools/wasnorm_wordpool_576.txt	LTP319	ltpFR2	2	3	CLAM	315	n/a	n/a	0	0	0
625883	REC_WORD	wordpools/wasnorm_wordpool_576.txt	LTP319	ltpFR2	2	3	PRIMATE	1123	n/a	n/a	0	0	0
627505	REC_WORD	wordpools/wasnorm_wordpool_576.txt	LTP319	ltpFR2	2	3	DANDRUFF	439	n/a	n/a	0	0	0
628505	REC_WORD_VV	wordpools/wasnorm_wordpool_576.txt	LTP319	ltpFR2	2	3	<>	-1	n/a	n/a	0	0	0
629157	REC_WORD	wordpools/wasnorm_wordpool_576.txt	LTP319	ltpFR2	2	3	LIZARD	834	n/a	n/a	0	0	0
630754	REC_WORD	wordpools/wasnorm_wordpool_576.txt	LTP319	ltpFR2	2	3	HUSBAND	728	n/a	n/a	0	0	0
669164	REC_WORD	wordpools/wasnorm_wordpool_576.txt	LTP319	ltpFR2	2	3	LETTUCE	814	n/a	n/a	0	0	0
678585	REC_WORD	wordpools/wasnorm_wordpool_576.txt	LTP319	ltpFR2	2	3	CHIPMUNK	304	n/a	n/a	0	0	0
706763	WORD	wordpools/wasnorm_wordpool_576.txt	LTP319	ltpFR2	2	4	CELLAR	267	n/a	n/a	0	0	0
709435	WORD	wordpools/wasnorm_wordpool_576.txt	LTP319	ltpFR2	2	4	BASEMENT	94	n/a	n/a	0	0	0
711885	WORD	wordpools/wasnorm_wordpool_576.txt	LTP319	ltpFR2	2	4	TABLE	1426	n/a	n/a	0	0	0
714476	WORD	wordpools/wasnorm_wordpool_576.txt	LTP319	ltpFR2	2	4	VICTIM	1562	n/a	n/a	0	0	0
716989	WORD	wordpools/wasnorm_wordpool_576.txt	LTP319	ltpFR2	2	4	PATROL	1027	n/a	n/a	0	0	0
719726	WORD	wordpools/wasnorm_wordpool_576.txt	LTP319	ltpFR2	2	4	MARS	873	n/a	n/a	0	0	0
722429	WORD	wordpools/wasnorm_wordpool_576.txt	LTP319	ltpFR2	2	4	NIGHTGOWN	953	n/a	n/a	0	0	0
725134	WORD	wordpools/wasnorm_wordpool_576.txt	LTP319	ltpFR2	2	4	CEILING	265	n/a	n/a	0	0	0
727699	WORD	wordpools/wasnorm_wordpool_576.txt	LTP319	ltpFR2	2	4	PISTON	1076	n/a	n/a	0	0	0
730502	WORD	wordpools/wasnorm_wordpool_576.txt	LTP319	ltpFR2	2	4	OX	994	n/a	n/a	0	0	0
733108	WORD	wordpools/wasnorm_wordpool_576.txt	LTP319	ltpFR2	2	4	ZEBRA	1635	n/a	n/a	0	0	0
735876	WORD	wordpools/wasnorm_wordpool_576.txt	LTP319	ltpFR2	2	4	STALLION	1369	n/a	n/a	0	0	0
738426	WORD	wordpools/wasnorm_wordpool_576.txt	LTP319	ltpFR2	2	4	STAR	1373	n/a	n/a	0	0	0
741178	WORD	wordpools/wasnorm_wordpool_576.txt	LTP319	ltpFR2	2	4	BIKE	125	n/a	n/a	0	0	0
743896	WORD	wordpools/wasnorm_wordpool_576.txt	LTP319	ltpFR2	2	4	PLUTO	1092	n/a	n/a	0	0	0
746569	WORD	wordpools/wasnorm_wordpool_576.txt	LTP319	ltpFR2	2	4	LILY	821	n/a	n/a	0	0	0
749386	WORD	wordpools/wasnorm_wordpool_576.txt	LTP319	ltpFR2	2	4	SILK	1307	n/a	n/a	0	0	0
751922	WORD	wordpools/wasnorm_wordpool_576.txt	LTP319	ltpFR2	2	4	SOFTBALL	1343	n/a	n/a	0	0	0
754440	WORD	wordpools/wasnorm_wordpool_576.txt	LTP319	ltpFR2	2	4	LODGE	839	n/a	n/a	0	0	0
756958	WORD	wordpools/wasnorm_wordpool_576.txt	LTP319	ltpFR2	2	4	PLASTER	1085	n/a	n/a	0	0	0
759628	WORD	wordpools/wasnorm_wordpool_576.txt	LTP319	ltpFR2	2	4	COLLEGE	346	n/a	n/a	0	0	0
762079	WORD	wordpools/wasnorm_wordpool_576.txt	LTP319	ltpFR2	2	4	SERVER	1272	n/a	n/a	0	0	0
764781	WORD	wordpools/wasnorm_wordpool_576.txt	LTP319	ltpFR2	2	4	APRON	35	n/a	n/a	0	0	0
767534	WORD	wordpools/wasnorm_wordpool_576.txt	LTP319	ltpFR2	2	4	WHISTLE	1606	n/a	n/a	0	0	0
769153	START	n/a	LTP319	ltpFR2	2	n/a	n/a	n/a	7	n/a	n/a	n/a	n/a
770036	DISTRACTOR	n/a	LTP319	ltpFR2	2	4	n/a	n/a	n/a	n/a	0	0	0
770053	PROB	n/a	LTP319	ltpFR2	2	n/a	n/a	n/a	7	13	6	2	5
773508	PROB	n/a	LTP319	ltpFR2	2	n/a	n/a	n/a	7	13	5	2	6
775809	PROB	n/a	LTP319	ltpFR2	2	n/a	n/a	n/a	7	15	9	5	1
777775	PROB	n/a	LTP319	ltpFR2	2	n/a	n/a	n/a	7	12	1	3	8
779878	PROB	n/a	LTP319	ltpFR2	2	n/a	n/a	n/a	7	15	4	8	3
784381	PROB	n/a	LTP319	ltpFR2	2	n/a	n/a	n/a	7	16	9	5	2
786682	PROB	n/a	LTP319	ltpFR2	2	n/a	n/a	n/a	7	13	4	3	6
789101	PROB	n/a	LTP319	ltpFR2	2	n/a	n/a	n/a	7	17	6	3	8
791953	STOP	n/a	LTP319	ltpFR2	2	n/a	n/a	n/a	7	n/a	n/a	n/a	n/a
795008	REC_START	n/a	LTP319	ltpFR2	2	4	n/a	n/a	n/a	n/a	0	0	0
797056	REC_WORD	wordpools/wasnorm_wordpool_576.txt	LTP319	ltpFR2	2	4	SERVER	1272	n/a	n/a	0	0	0
798160	REC_WORD_VV	wordpools/wasnorm_wordpool_576.txt	LTP319	ltpFR2	2	4	<>	-1	n/a	n/a	0	0	0
798998	REC_WORD	wordpools/wasnorm_wordpool_576.txt	LTP319	ltpFR2	2	4	APRON	35	n/a	n/a	0	0	0
800523	REC_WORD	wordpools/wasnorm_wordpool_576.txt	LTP319	ltpFR2	2	4	WHISTLE	1606	n/a	n/a	0	0	0
801991	REC_WORD	wordpools/wasnorm_wordpool_576.txt	LTP319	ltpFR2	2	4	COLLEGE	346	n/a	n/a	0	0	0
803144	REC_WORD	wordpools/wasnorm_wordpool_576.txt	LTP319	ltpFR2	2	4	PLASTER	1085	n/a	n/a	0	0	0
804556	REC_WORD	wordpools/wasnorm_wordpool_576.txt	LTP319	ltpFR2	2	4	LODGE	839	n/a	n/a	0	0	0
805631	REC_WORD	wordpools/wasnorm_wordpool_576.txt	LTP319	ltpFR2	2	4	SOFTBALL	1343	n/a	n/a	0	0	0
806631	REC_WORD_VV	wordpools/wasnorm_wordpool_576.txt	LTP319	ltpFR2	2	4	<>	-1	n/a	n/a	0	0	0
807189	REC_WORD	wordpools/wasnorm_wordpool_576.txt	LTP319	ltpFR2	2	4	LILY	821	n/a	n/a	0	0	0
808036	REC_WORD	wordpools/wasnorm_wordpool_576.txt	LTP319	ltpFR2	2	4	SILK	1307	n/a	n/a	0	0	0
809373	REC_WORD	wordpools/wasnorm_wordpool_576.txt	LTP319	ltpFR2	2	4	BIKE	125	n/a	n/a	0	0	0
811023	REC_WORD	wordpools/wasnorm_wordpool_576.txt	LTP319	ltpFR2	2	4	PLUTO	1092	n/a	n/a	0	0	0
816719	REC_WORD	wordpools/wasnorm_wordpool_576.txt	LTP319	ltpFR2	2	4	CELLAR	267	n/a	n/a	0	0	0
818321	REC_WORD	wordpools/wasnorm_wordpool_576.txt	LTP319	ltpFR2	2	4	BASEMENT	94	n/a	n/a	0	0	0
885446	WORD	wordpools/wasnorm_wordpool_576.txt	LTP319	ltpFR2	2	5	NURSE	963	n/a	n/a	0	0	0
888065	WORD	wordpools/wasnorm_wordpool_576.txt	LTP319	ltpFR2	2	5	BLOUSE	139	n/a	n/a	0	0	0
890651	WORD	wordpools/wasnorm_wordpool_576.txt	LTP319	ltpFR2	2	5	MARKER	870	n/a	n/a	0	0	0
893076	WORD	wordpools/wasnorm_wordpool_576.txt	LTP319	ltpFR2	2	5	CRUTCH	417	n/a	n/a	0	0	0
895854	WORD	wordpools/wasnorm_wordpool_576.txt	LTP319	ltpFR2	2	5	WRIST	1626	n/a	n/a	0	0	0
898658	WORD	wordpools/wasnorm_wordpool_576.txt	LTP319	ltpFR2	2	5	DRIVER	499	n/a	n/a	0	0	0
901201	WORD	wordpools/wasnorm_wordpool_576.txt	LTP319	ltpFR2	2	5	ZIPPER	1636	n/a	n/a	0	0	0
903977	WORD	wordpools/wasnorm_wordpool_576.txt	LTP319	ltpFR2	2	5	FRAGRANCE	599	n/a	n/a	0	0	0
906780	WORD	wordpools/wasnorm_wordpool_576.txt	LTP319	ltpFR2	2	5	SLOPE	1328	n/a	n/a	0	0	0
909408	WORD	wordpools/wasnorm_wordpool_576.txt	LTP319	ltpFR2	2	5	LEOPARD	812	n/a	n/a	0	0	0
911900	WORD	wordpools/wasnorm_wordpool_576.txt	LTP319	ltpFR2	2	5	BANJO	82	n/a	n/a	0	0	0
914454	WORD	wordpools/wasnorm_wordpool_576.txt	LTP319	ltpFR2	2	5	BODY	145	n/a	n/a	0	0	0
917131	WORD	wordpools/wasnorm_wordpool_576.txt	LTP319	ltpFR2	2	5	OMELET	976	n/a	n/a	0	0	0
919849	WORD	wordpools/wasnorm_wordpool_576.txt	LTP319	ltpFR2	2	5	BACON	67	n/a	n/a	0	0	0
922569	WORD	wordpools/wasnorm_wordpool_576.txt	LTP319	ltpFR2	2	5	SNAKE	1333	n/a	n/a	0	0	0
925329	WORD	wordpools/wasnorm_wordpool_576.txt	LTP319	ltpFR2	2	5	TERMITE	1451	n/a	n/a	0	0	0
927907	WORD	wordpools/wasnorm_wordpool_576.txt	LTP319	ltpFR2	2	5	DRILL	497	n/a	n/a	0	0	0
930344	WORD	wordpools/wasnorm_wordpool_576.txt	LTP319	ltpFR2	2	5	PEDAL	1037	n/a	n/a	0	0	0
932945	WORD	wordpools/wasnorm_wordpool_576.txt	LTP319	ltpFR2	2	5	MOTOR	922	n/a	n/a	0	0	0
935397	WORD	wordpools/wasnorm_wordpool_576.txt	LTP319	ltpFR2	2	5	HELMET	702	n/a	n/a	0	0	0
938132	WORD	wordpools/wasnorm_wordpool_576.txt	LTP319	ltpFR2	2	5	GOBLIN	645	n/a	n/a	0	0	0
940608	WORD	wordpools/wasnorm_wordpool_576.txt	LTP319	ltpFR2	2	5	TABLET	1427	n/a	n/a	0	0	0
943103	WORD	wordpools/wasnorm_wordpool_576.txt	LTP319	ltpFR2	2	5	JEANS	752	n/a	n/a	0	0	0
945624	WORD	wordpools/wasnorm_wordpool_576.txt	LTP319	ltpFR2	2	5	BUG	187	n/a	n/a	0	0	0
947230	START	n/a	LTP319	ltpFR2	2	n/a	n/a	n/a	8	n/a	n/a	n/a	n/a
948115	DISTRACTOR	n/a	LTP319	ltpFR2	2	5	n/a	n/a	n/a	n/a	0	0	0
948125	PROB	n/a	LTP319	ltpFR2	2	n/a	n/a	n/a	8	11	5	4	2
951015	PROB	n/a	LTP319	ltpFR2	2	n/a	n/a	n/a	8	22	9	4	9
954084	PROB	n/a	LTP319	ltpFR2	2	n/a	n/a	n/a	8	23	7	7	9
959306	PROB	n/a	LTP319	ltpFR2	2	n/a	n/a	n/a	8	15	1	5	9
961841	PROB	n/a	LTP319	ltpFR2	2	n/a	n/a	n/a	8	8	5	1	2
963472	PROB	n/a	LTP319	ltpFR2	2	n/a	n/a	n/a	8	21	4	8	9
967313	PROB	n/a	LTP319	ltpFR2	2	n/a	n/a	n/a	8	13	2	3	8
971230	STOP	n/a	LTP319	ltpFR2	2	n/a	n/a	n/a	8	n/a	n/a	n/a	n/a
973181	REC_START	n/a	LTP319	ltpFR2	2	5	n/a	n/a	n/a	n/a	0	0	0
974109	REC_WORD	wordpools/wasnorm_wordpool_576.txt	LTP319	ltpFR2	2	5	NURSE	963	n/a	n/a	0	0	0
975211	REC_WORD	wordpools/wasnorm_wordpool_576.txt	LTP319	ltpFR2	2	5	CRUTCH	417	n/a	n/a	0	0	0
976389	REC_WORD	wordpools/wasnorm_wordpool_576.txt	LTP319	ltpFR2	2	5	BLOUSE	139	n/a	n/a	0	0	0
977424	REC_WORD	wordpools/wasnorm_wordpool_576.txt	LTP319	ltpFR2	2	5	ZIPPER	1636	n/a	n/a	0	0	0
979089	REC_WORD	wordpools/wasnorm_wordpool_576.txt	LTP319	ltpFR2	2	5	JEANS	752	n/a	n/a	0	0	0
980195	REC_WORD	wordpools/wasnorm_wordpool_576.txt	LTP319	ltpFR2	2	5	BUG	187	n/a	n/a	0	0	0
981171	REC_WORD	wordpools/wasnorm_wordpool_576.txt	LTP319	ltpFR2	2	5	TABLET	1427	n/a	n/a	0	0	0
982537	REC_WORD	wordpools/wasnorm_wordpool_576.txt	LTP319	ltpFR2	2	5	GOBLIN	645	n/a	n/a	0	0	0
984634	REC_WORD	wordpools/wasnorm_wordpool_576.txt	LTP319	ltpFR2	2	5	DRIVER	499	n/a	n/a	0	0	0
986251	REC_WORD	wordpools/wasnorm_wordpool_576.txt	LTP319	ltpFR2	2	5	HELMET	702	n/a	n/a	0	0	0
987810	REC_WORD	wordpools/wasnorm_wordpool_576.txt	LTP319	ltpFR2	2	5	MOTOR	922	n/a	n/a	0	0	0
989208	REC_WORD	wordpools/wasnorm_wordpool_576.txt	LTP319	ltpFR2	2	5	PEDAL	1037	n/a	n/a	0	0	0
990562	REC_WORD	wordpools/wasnorm_wordpool_576.txt	LTP319	ltpFR2	2	5	SLOPE	1328	n/a	n/a	0	0	0
992174	REC_WORD	wordpools/wasnorm_wordpool_576.txt	LTP319	ltpFR2	2	5	LEOPARD	812	n/a	n/a	0	0	0
1042762	REC_WORD	wordpools/wasnorm_wordpool_576.txt	LTP319	ltpFR2	2	5	FRAGRANCE	599	n/a	n/a	0	0	0
1043762	REC_WORD_VV	wordpools/wasnorm_wordpool_576.txt	LTP319	ltpFR2	2	5	<>	-1	n/a	n/a	0	0	0
1063624	WORD	wordpools/wasnorm_wordpool_576.txt	LTP319	ltpFR2	2	6	PLIERS	1089	n/a	n/a	0	0	0
1066091	WORD	wordpools/wasnorm_wordpool_576.txt	LTP319	ltpFR2	2	6	FLESH	579	n/a	n/a	0	0	0
1068644	WORD	wordpools/wasnorm_wordpool_576.txt	LTP319	ltpFR2	2	6	KIDNEY	776	n/a	n/a	0	0	0
1071397	WORD	wordpools/wasnorm_wordpool_576.txt	LTP319	ltpFR2	2	6	TUBA	1515	n/a	n/a	0	0	0
1073964	WORD	wordpools/wasnorm_wordpool_576.txt	LTP319	ltpFR2	2	6	PEPPER	1047	n/a	n/a	0	0	0
1076604	WORD	wordpools/wasnorm_wordpool_576.txt	LTP319	ltpFR2	2	6	FILM	565	n/a	n/a	0	0	0
1079122	WORD	wordpools/wasnorm_wordpool_576.txt	LTP319	ltpFR2	2	6	STAMP	1370	n/a	n/a	0	0	0
1081841	WORD	wordpools/wasnorm_wordpool_576.txt	LTP319	ltpFR2	2	6	FRUIT	610	n/a	n/a	0	0	0
1084273	WORD	wordpools/wasnorm_wordpool_576.txt	LTP319	ltpFR2	2	6	SHORTCAKE	1292	n/a	n/a	0	0	0
1086808	WORD	wordpools/wasnorm_wordpool_576.txt	LTP319	ltpFR2	2	6	GYMNAST	675	n/a	n/a	0	0	0
1089265	WORD	wordpools/wasnorm_wordpool_576.txt	LTP319	ltpFR2	2	6	STAPLE	1371	n/a	n/a	0	0	0
1091833	WORD	wordpools/wasnorm_wordpool_576.txt	LTP319	ltpFR2	2	6	TYPIST	1532	n/a	n/a	0	0	0
1094448	WORD	wordpools/wasnorm_wordpool_576.txt	LTP319	ltpFR2	2	6	HOOD	714	n/a	n/a	0	0	0
1097115	WORD	wordpools/wasnorm_wordpool_576.txt	LTP319	ltpFR2	2	6	HARP	689	n/a	n/a	0	0	0
1099602	WORD	wordpools/wasnorm_wordpool_576.txt	LTP319	ltpFR2	2	6	WIFE	1609	n/a	n/a	0	0	0
1102371	WORD	wordpools/wasnorm_wordpool_576.txt	LTP319	ltpFR2	2	6	RACKET	1155	n/a	n/a	0	0	0
1104872	WORD	wordpools/wasnorm_wordpool_576.txt	LTP319	ltpFR2	2	6	EYELASH	546	n/a	n/a	0	0	0
1107308	WORD	wordpools/wasnorm_wordpool_576.txt	LTP319	ltpFR2	2	6	PIANO	1057	n/a	n/a	0	0	0
1109809	WORD	wordpools/wasnorm_wordpool_576.txt	LTP319	ltpFR2	2	6	RECORD	1176	n/a	n/a	0	0	0
1112379	WORD	wordpools/wasnorm_wordpool_576.txt	LTP319	ltpFR2	2	6	MUFFIN	929	n/a	n/a	0	0	0
1115187	WORD	wordpools/wasnorm_wordpool_576.txt	LTP319	ltpFR2	2	6	HAND	683	n/a	n/a	0	0	0
1117732	WORD	wordpools/wasnorm_wordpool_576.txt	LTP319	ltpFR2	2	6	PIGMENT	1066	n/a	n/a	0	0	0
1120375	WORD	wordpools/wasnorm_wordpool_576.txt	LTP319	ltpFR2	2	6	FOOTBALL	591	n/a	n/a	0	0	0
1123136	WORD	wordpools/wasnorm_wordpool_576.txt	LTP319	ltpFR2	2	6	PISTOL	1075	n/a	n/a	0	0	0
1124745	START	n/a	LTP319	ltpFR2	2	n/a	n/a	n/a	9	n/a	n/a	n/a	n/a
1125641	DISTRACTOR	n/a	LTP319	ltpFR2	2	6	n/a	n/a	n/a	n/a	0	0	0
1125646	PROB	n/a	LTP319	ltpFR2	2	n/a	n/a	n/a	9	25	9	8	8
1128992	PROB	n/a	LTP319	ltpFR2	2	n/a	n/a	n/a	9	13	4	1	8
1132161	PROB	n/a	LTP319	ltpFR2	2	n/a	n/a	n/a	9	13	3	3	7
1135063	PROB	n/a	LTP319	ltpFR2	2	n/a	n/a	n/a	9	9	2	6	1
1137146	PROB	n/a	LTP319	ltpFR2	2	n/a	n/a	n/a	9	15	1	8	6
1138848	PROB	n/a	LTP319	ltpFR2	2	n/a	n/a	n/a	9	9	6	1	2
1140851	PROB	n/a	LTP319	ltpFR2	2	n/a	n/a	n/a	9	15	8	2	5
1142702	PROB	n/a	LTP319	ltpFR2	2	n/a	n/a	n/a	9	12	4	3	5
1147480	STOP	n/a	LTP319	ltpFR2	2	n/a	n/a	n/a	9	n/a	n/a	n/a	n/a
1150626	REC_START	n/a	LTP319	ltpFR2	2	6	n/a	n/a	n/a	n/a	0	0	0
1151421	REC_WORD	wordpools/wasnorm_wordpool_576.txt	LTP319	ltpFR2	2	6	HARP	689	n/a	n/a	0	0	0
1152326	REC_WORD	wordpools/wasnorm_wordpool_576.txt	LTP319	ltpFR2	2	6	PIANO	1057	n/a	n/a	0	0	0
1153492	REC_WORD	wordpools/wasnorm_wordpool_576.txt	LTP319	ltpFR2	2	6	RECORD	1176	n/a	n/a	0	0	0
1154587	REC_WORD	wordpools/wasnorm_wordpool_576.txt	LTP319	ltpFR2	2	6	TYPIST	1532	n/a	n/a	0	0	0
1155647	REC_WORD	wordpools/wasnorm_wordpool_576.txt	LTP319	ltpFR2	2	6	HOOD	714	n/a	n/a	0	0	0
1157393	REC_WORD	wordpools/wasnorm_wordpool_576.txt	LTP319	ltpFR2	2	6	WIFE	1609	n/a	n/a	0	0	0
1158616	REC_WORD	wordpools/wasnorm_wordpool_576.txt	LTP319	ltpFR2	2	6	RACKET	1155	n/a	n/a	0	0	0
1171756	REC_WORD	wordpools/wasnorm_wordpool_576.txt	LTP319	ltpFR2	2	6	MUFFIN	929	n/a	n/a	0	0	0
1241114	WORD	wordpools/wasnorm_wordpool_576.txt	LTP319	ltpFR2	2	7	CUSTARD	429	n/a	n/a	0	0	0
1243715	WORD	wordpools/wasnorm_wordpool_576.txt	LTP319	ltpFR2	2	7	WOMAN	1620	n/a	n/a	0	0	0
1246352	WORD	wordpools/wasnorm_wordpool_576.txt	LTP319	ltpFR2	2	7	DRAWING	494	n/a	n/a	0	0	0
1249086	WORD	wordpools/wasnorm_wordpool_576.txt	LTP319	ltpFR2	2	7	ARM	38	n/a	n/a	0	0	0
1251607	WORD	wordpools/wasnorm_wordpool_576.txt	LTP319	ltpFR2	2	7	MISSILE	900	n/a	n/a	0	0	0
1254376	WORD	wordpools/wasnorm_wordpool_576.txt	LTP319	ltpFR2	2	7	MISTER	901	n/a	n/a	0	0	0
1256876	WORD	wordpools/wasnorm_wordpool_576.txt	LTP319	ltpFR2	2	7	SHORTS	1293	n/a	n/a	0	0	0
1259530	WORD	wordpools/wasnorm_wordpool_576.txt	LTP319	ltpFR2	2	7	SMOG	1330	n/a	n/a	0	0	0
1262115	WORD	wordpools/wasnorm_wordpool_576.txt	LTP319	ltpFR2	2	7	OZONE	996	n/a	n/a	0	0	0
1264884	WORD	wordpools/wasnorm_wordpool_576.txt	LTP319	ltpFR2	2	7	GLOVE	642	n/a	n/a	0	0	0
1267554	WORD	wordpools/wasnorm_wordpool_576.txt	LTP319	ltpFR2	2	7	BRACES	164	n/a	n/a	0	0	0
1270204	WORD	wordpools/wasnorm_wordpool_576.txt	LTP319	ltpFR2	2	7	LIGHTNING	820	n/a	n/a	0	0	0
1272956	WORD	wordpools/wasnorm_wordpool_576.txt	LTP319	ltpFR2	2	7	CLAMP	316	n/a	n/a	0	0	0
1275544	WORD	wordpools/wasnorm_wordpool_576.txt	LTP319	ltpFR2	2	7	BEAKER	104	n/a	n/a	0	0	0
1278278	WORD	wordpools/wasnorm_wordpool_576.txt	LTP319	ltpFR2	2	7	FOX	598	n/a	n/a	0	0	0
1281014	WORD	wordpools/wasnorm_wordpool_576.txt	LTP319	ltpFR2	2	7	SUBWAY	1400	n/a	n/a	0	0	0
1283799	WORD	wordpools/wasnorm_wordpool_576.txt	LTP319	ltpFR2	2	7	SNAIL	1332	n/a	n/a	0	0	0
1286302	WORD	wordpools/wasnorm_wordpool_576.txt	LTP319	ltpFR2	2	7	DRESS	495	n/a	n/a	0	0	0
1288955	WORD	wordpools/wasnorm_wordpool_576.txt	LTP319	ltpFR2	2	7	HEART	697	n/a	n/a	0	0	0
1291523	WORD	wordpools/wasnorm_wordpool_576.txt	LTP319	ltpFR2	2	7	DONOR	485	n/a	n/a	0	0	0
1294291	WORD	wordpools/wasnorm_wordpool_576.txt	LTP319	ltpFR2	2	7	TOASTER	1472	n/a	n/a	0	0	0
1296742	WORD	wordpools/wasnorm_wordpool_576.txt	LTP319	ltpFR2	2	7	KITCHEN	778	n/a	n/a	0	0	0
1299362	WORD	wordpools/wasnorm_wordpool_576.txt	LTP319	ltpFR2	2	7	ATOM	55	n/a	n/a	0	0	0
1302064	WORD	wordpools/wasnorm_wordpool_576.txt	LTP319	ltpFR2	2	7	FLUTE	585	n/a	n/a	0	0	0
1303669	START	n/a	LTP319	ltpFR2	2	n/a	n/a	n/a	10	n/a	n/a	n/a	n/a
1304840	DISTRACTOR	n/a	LTP319	ltpFR2	2	7	n/a	n/a	n/a	n/a	0	0	0
1304848	PROB	n/a	LTP319	ltpFR2	2	n/a	n/a	n/a	10	14	7	1	6
1308302	PROB	n/a	LTP319	ltpFR2	2	n/a	n/a	n/a	10	11	2	2	7
1310152	PROB	n/a	LTP319	ltpFR2	2	n/a	n/a	n/a	10	20	9	3	8
1314991	PROB	n/a	LTP319	ltpFR2	2	n/a	n/a	n/a	10	13	1	7	5
1320361	PROB	n/a	LTP319	ltpFR2	2	n/a	n/a	n/a	10	18	8	8	2
1322330	PROB	n/a	LTP319	ltpFR2	2	n/a	n/a	n/a	10	17	1	9	7
1327669	STOP	n/a	LTP319	ltpFR2	2	n/a	n/a	n/a	10	n/a	n/a	n/a	n/a
1329452	REC_START	n/a	LTP319	ltpFR2	2	7	n/a	n/a	n/a	n/a	0	0	0
1333238	REC_WORD	wordpools/wasnorm_wordpool_576.txt	LTP319	ltpFR2	2	7	CUSTARD	429	n/a	n/a	0	0	0
1334699	REC_WORD	wordpools/wasnorm_wordpool_576.txt	LTP319	ltpFR2	2	7	WOMAN	1620	n/a	n/a	0	0	0
1335644	REC_WORD	wordpools/wasnorm_wordpool_576.txt	LTP319	ltpFR2	2	7	DRAWING	494	n/a	n/a	0	0	0
1336869	REC_WORD	wordpools/wasnorm_wordpool_576.txt	LTP319	ltpFR2	2	7	ARM	38	n/a	n/a	0	0	0
1419875	DISTRACTOR	n/a	LTP319	ltpFR2	2	8	n/a	n/a	n/a	n/a	0	0	0
1419876	START	n/a	LTP319	ltpFR2	2	n/a	n/a	n/a	11	n/a	n/a	n/a	n/a
1419892	PROB	n/a	LTP319	ltpFR2	2	n/a	n/a	n/a	11	14	3	7	4
1422378	PROB	n/a	LTP319	ltpFR2	2	n/a	n/a	n/a	11	18	9	4	5
1424712	PROB	n/a	LTP319	ltpFR2	2	n/a	n/a	n/a	11	16	7	5	4
1426996	PROB	n/a	LTP319	ltpFR2	2	n/a	n/a	n/a	11	21	7	9	5
1429532	PROB	n/a	LTP319	ltpFR2	2	n/a	n/a	n/a	11	19	6	8	5
1434836	PROB	n/a	LTP319	ltpFR2	2	n/a	n/a	n/a	11	9	5	1	3
1436305	PROB	n/a	LTP319	ltpFR2	2	n/a	n/a	n/a	11	17	8	3	6
1438573	PROB	n/a	LTP319	ltpFR2	2	n/a	n/a	n/a	11	21	3	9	9
1440392	PROB	n/a	LTP319	ltpFR2	2	n/a	n/a	n/a	11	18	7	2	9
1443155	STOP	n/a	LTP319	ltpFR2	2	n/a	n/a	n/a	11	n/a	n/a	n/a	n/a
1444773	WORD	wordpools/wasnorm_wordpool_576.txt	LTP319	ltpFR2	2	8	LACE	792	n/a	n/a	0	0	0
1447510	WORD	wordpools/wasnorm_wordpool_576.txt	LTP319	ltpFR2	2	8	SLUG	1329	n/a	n/a	0	0	0
1449945	WORD	wordpools/wasnorm_wordpool_576.txt	LTP319	ltpFR2	2	8	COBRA	336	n/a	n/a	0	0	0
1452714	WORD	wordpools/wasnorm_wordpool_576.txt	LTP319	ltpFR2	2	8	WAITRESS	1581	n/a	n/a	0	0	0
1455300	WORD	wordpools/wasnorm_wordpool_576.txt	LTP319	ltpFR2	2	8	LUGGAGE	847	n/a	n/a	0	0	0
1457802	WORD	wordpools/wasnorm_wordpool_576.txt	LTP319	ltpFR2	2	8	POISON	1096	n/a	n/a	0	0	0
1460476	WORD	wordpools/wasnorm_wordpool_576.txt	LTP319	ltpFR2	2	8	BARLEY	88	n/a	n/a	0	0	0
1463275	WORD	wordpools/wasnorm_wordpool_576.txt	LTP319	ltpFR2	2	8	HOSTESS	723	n/a	n/a	0	0	0
1465958	WORD	wordpools/wasnorm_wordpool_576.txt	LTP319	ltpFR2	2	8	CRIB	407	n/a	n/a	0	0	0
1468695	WORD	wordpools/wasnorm_wordpool_576.txt	LTP319	ltpFR2	2	8	ICEBERG	731	n/a	n/a	0	0	0
1471364	WORD	wordpools/wasnorm_wordpool_576.txt	LTP319	ltpFR2	2	8	PILOT	1070	n/a	n/a	0	0	0
1473966	WORD	wordpools/wasnorm_wordpool_576.txt	LTP319	ltpFR2	2	8	NEUTRON	947	n/a	n/a	0	0	0
1476736	WORD	wordpools/wasnorm_wordpool_576.txt	LTP319	ltpFR2	2	8	DASHBOARD	441	n/a	n/a	0	0	0
1479321	WORD	wordpools/wasnorm_wordpool_576.txt	LTP319	ltpFR2	2	8	BEAST	108	n/a	n/a	0	0	0
1482072	WORD	wordpools/wasnorm_wordpool_576.txt	LTP319	ltpFR2	2	8	BADGE	68	n/a	n/a	0	0	0
1484610	WORD	wordpools/wasnorm_wordpool_576.txt	LTP319	ltpFR2	2	8	POLICE	1098	n/a	n/a	0	0	0
1487379	WORD	wordpools/wasnorm_wordpool_576.txt	LTP319	ltpFR2	2	8	SCOTCH	1251	n/a	n/a	0	0	0
1490113	WORD	wordpools/wasnorm_wordpool_576.txt	LTP319	ltpFR2	2	8	FLASK	576	n/a	n/a	0	0	0
1492882	WORD	wordpools/wasnorm_wordpool_576.txt	LTP319	ltpFR2	2	8	MONSTER	912	n/a	n/a	0	0	0
1495685	WORD	wordpools/wasnorm_wordpool_576.txt	LTP319	ltpFR2	2	8	WINDOW	1611	n/a	n/a	0	0	0
1498254	WORD	wordpools/wasnorm_wordpool_576.txt	LTP319	ltpFR2	2	8	TRUCK	1512	n/a	n/a	0	0	0
1500889	WORD	wordpools/wasnorm_wordpool_576.txt	LTP319	ltpFR2	2	8	PASTRY	1022	n/a	n/a	0	0	0
1503359	WORD	wordpools/wasnorm_wordpool_576.txt	LTP319	ltpFR2	2	8	CHAPEL	280	n/a	n/a	0	0	0
1505861	WORD	wordpools/wasnorm_wordpool_576.txt	LTP319	ltpFR2	2	8	IDOL	733	n/a	n/a	0	0	0
1507481	START	n/a	LTP319	ltpFR2	2	n/a	n/a	n/a	12	n/a	n/a	n/a	n/a
1508303	DISTRACTOR	n/a	LTP319	ltpFR2	2	8	n/a	n/a	n/a	n/a	0	0	0
1508313	PROB	n/a	LTP319	ltpFR2	2	n/a	n/a	n/a	12	13	2	6	5
1511130	PROB	n/a	LTP319	ltpFR2	2	n/a	n/a	n/a	12	10	6	2	2
1513149	PROB	n/a	LTP319	ltpFR2	2	n/a	n/a	n/a	12	9	2	6	1
1514934	PROB	n/a	LTP319	ltpFR2	2	n/a	n/a	n/a	12	8	3	4	1
1516802	PROB	n/a	LTP319	ltpFR2	2	n/a	n/a	n/a	12	17	6	9	2
1519987	PROB	n/a	LTP319	ltpFR2	2	n/a	n/a	n/a	12	15	5	9	9
1525025	PROB	n/a	LTP319	ltpFR2	2	n/a	n/a	n/a	12	21	6	8	7
1531481	STOP	n/a	LTP319	ltpFR2	2	n/a	n/a	n/a	12	n/a	n/a	n/a	n/a
1533367	REC_START	n/a	LTP319	ltpFR2	2	8	n/a	n/a	n/a	n/a	0	0	0
1535124	REC_WORD	wordpools/wasnorm_wordpool_576.txt	LTP319	ltpFR2	2	8	TRUCK	1512	n/a	n/a	0	0	0
1535937	REC_WORD	wordpools/wasnorm_wordpool_576.txt	LTP319	ltpFR2	2	8	MONSTER	912	n/a	n/a	0	0	0
1537062	REC_WORD	wordpools/wasnorm_wordpool_576.txt	LTP319	ltpFR2	2	8	BEAST	108	n/a	n/a	0	0	0
1538308	REC_WORD	wordpools/wasnorm_wordpool_576.txt	LTP319	ltpFR2	2	8	NEUTRON	947	n/a	n/a	0	0	0
1539308	REC_WORD_VV	wordpools/wasnorm_wordpool_576.txt	LTP319	ltpFR2	2	8	<>	-1	n/a	n/a	0	0	0
1539521	REC_WORD	wordpools/wasnorm_wordpool_576.txt	LTP319	ltpFR2	2	8	WINDOW	1611	n/a	n/a	0	0	0
1540957	REC_WORD	wordpools/wasnorm_wordpool_576.txt	LTP319	ltpFR2	2	8	DASHBOARD	441	n/a	n/a	0	0	0
1542024	REC_WORD	wordpools/wasnorm_wordpool_576.txt	LTP319	ltpFR2	2	8	BADGE	68	n/a	n/a	0	0	0
1542813	REC_WORD	wordpools/wasnorm_wordpool_576.txt	LTP319	ltpFR2	2	8	POLICE	1098	n/a	n/a	0	0	0
1544088	REC_WORD	wordpools/wasnorm_wordpool_576.txt	LTP319	ltpFR2	2	8	PILOT	1070	n/a	n/a	0	0	0
1545261	REC_WORD	wordpools/wasnorm_wordpool_576.txt	LTP319	ltpFR2	2	8	CHAPEL	280	n/a	n/a	0	0	0
1546611	REC_WORD	wordpools/wasnorm_wordpool_576.txt	LTP319	ltpFR2	2	8	IDOL	733	n/a	n/a	0	0	0
1547442	REC_WORD	wordpools/wasnorm_wordpool_576.txt	LTP319	ltpFR2	2	8	SCOTCH	1251	n/a	n/a	0	0	0
1548548	REC_WORD	wordpools/wasnorm_wordpool_576.txt	LTP319	ltpFR2	2	8	FLASK	576	n/a	n/a	0	0	0
1549548	REC_WORD_VV	wordpools/wasnorm_wordpool_576.txt	LTP319	ltpFR2	2	8	<>	-1	n/a	n/a	0	0	0
1554043	REC_WORD	wordpools/wasnorm_wordpool_576.txt	LTP319	ltpFR2	2	8	PASTRY	1022	n/a	n/a	0	0	0
1558713	REC_WORD	wordpools/wasnorm_wordpool_576.txt	LTP319	ltpFR2	2	8	ICEBERG	731	n/a	n/a	0	0	0
1609893	REST_REWET	n/a	LTP319	ltpFR2	2	8	n/a	n/a	n/a	n/a	0	0	0
1888184	DISTRACTOR	n/a	LTP319	ltpFR2	2	9	n/a	n/a	n/a	n/a	0	0	0
1888184	START	n/a	LTP319	ltpFR2	2	n/a	n/a	n/a	13	n/a	n/a	n/a	n/a
1888199	PROB	n/a	LTP319	ltpFR2	2	n/a	n/a	n/a	13	16	7	7	2
1890619	PROB	n/a	LTP319	ltpFR2	2	n/a	n/a	n/a	13	11	2	4	5
1892319	PROB	n/a	LTP319	ltpFR2	2	n/a	n/a	n/a	13	13	1	6	6
1894505	PROB	n/a	LTP319	ltpFR2	2	n/a	n/a	n/a	13	19	7	7	5
1897508	PROB	n/a	LTP319	ltpFR2	2	n/a	n/a	n/a	13	13	7	2	4
1899494	PROB	n/a	LTP319	ltpFR2	2	n/a	n/a	n/a	13	16	7	6	3
1901694	PROB	n/a	LTP319	ltpFR2	2	n/a	n/a	n/a	13	12	7	1	4
1903378	PROB	n/a	LTP319	ltpFR2	2	n/a	n/a	n/a	13	20	5	6	9
1905264	PROB	n/a	LTP319	ltpFR2	2	n/a	n/a	n/a	13	6	1	4	1
1906830	PROB	n/a	LTP319	ltpFR2	2	n/a	n/a	n/a	13	12	5	3	4
1908467	PROB	n/a	LTP319	ltpFR2	2	n/a	n/a	n/a	13	9	5	2	2
1910000	PROB	n/a	LTP319	ltpFR2	2	n/a	n/a	n/a	13	11	4	2	5
1911837	STOP	n/a	LTP319	ltpFR2	2	n/a	n/a	n/a	13	n/a	n/a	n/a	n/a
1913016	WORD	wordpools/wasnorm_wordpool_576.txt	LTP319	ltpFR2	2	9	NOTEBOOK	959	n/a	n/a	0	0	0
1915656	WORD	wordpools/wasnorm_wordpool_576.txt	LTP319	ltpFR2	2	9	SIDEWALK	1303	n/a	n/a	0	0	0
1918271	WORD	wordpools/wasnorm_wordpool_576.txt	LTP319	ltpFR2	2	9	COURSE	390	n/a	n/a	0	0	0
1920972	WORD	wordpools/wasnorm_wordpool_576.txt	LTP319	ltpFR2	2	9	SPARROW	1347	n/a	n/a	0	0	0
1923741	WORD	wordpools/wasnorm_wordpool_576.txt	LTP319	ltpFR2	2	9	CREVICE	405	n/a	n/a	0	0	0
1926244	WORD	wordpools/wasnorm_wordpool_576.txt	LTP319	ltpFR2	2	9	EUROPE	541	n/a	n/a	0	0	0
1928928	WORD	wordpools/wasnorm_wordpool_576.txt	LTP319	ltpFR2	2	9	FRANCE	601	n/a	n/a	0	0	0
1931349	WORD	wordpools/wasnorm_wordpool_576.txt	LTP319	ltpFR2	2	9	AIRPLANE	12	n/a	n/a	0	0	0
1934101	WORD	wordpools/wasnorm_wordpool_576.txt	LTP319	ltpFR2	2	9	FEMALE	559	n/a	n/a	0	0	0
1936539	WORD	wordpools/wasnorm_wordpool_576.txt	LTP319	ltpFR2	2	9	ORANGE	980	n/a	n/a	0	0	0
1939222	WORD	wordpools/wasnorm_wordpool_576.txt	LTP319	ltpFR2	2	9	MAMMAL	861	n/a	n/a	0	0	0
1941690	WORD	wordpools/wasnorm_wordpool_576.txt	LTP319	ltpFR2	2	9	POSSUM	1112	n/a	n/a	0	0	0
1944297	WORD	wordpools/wasnorm_wordpool_576.txt	LTP319	ltpFR2	2	9	ROBIN	1199	n/a	n/a	0	0	0
1947011	WORD	wordpools/wasnorm_wordpool_576.txt	LTP319	ltpFR2	2	9	COUSIN	392	n/a	n/a	0	0	0
1949648	WORD	wordpools/wasnorm_wordpool_576.txt	LTP319	ltpFR2	2	9	SEAGULL	1261	n/a	n/a	0	0	0
1952117	WORD	wordpools/wasnorm_wordpool_576.txt	LTP319	ltpFR2	2	9	CORAL	378	n/a	n/a	0	0	0
1954885	WORD	wordpools/wasnorm_wordpool_576.txt	LTP319	ltpFR2	2	9	PICTURE	1061	n/a	n/a	0	0	0
1957354	WORD	wordpools/wasnorm_wordpool_576.txt	LTP319	ltpFR2	2	9	DRUG	501	n/a	n/a	0	0	0
1959991	WORD	wordpools/wasnorm_wordpool_576.txt	LTP319	ltpFR2	2	9	JAPAN	749	n/a	n/a	0	0	0
1962775	WORD	wordpools/wasnorm_wordpool_576.txt	LTP319	ltpFR2	2	9	SLIDE	1326	n/a	n/a	0	0	0
1965278	WORD	wordpools/wasnorm_wordpool_576.txt	LTP319	ltpFR2	2	9	BLUEPRINT	142	n/a	n/a	0	0	0
1967879	WORD	wordpools/wasnorm_wordpool_576.txt	LTP319	ltpFR2	2	9	HOOK	715	n/a	n/a	0	0	0
1970549	WORD	wordpools/wasnorm_wordpool_576.txt	LTP319	ltpFR2	2	9	SEAFOOD	1260	n/a	n/a	0	0	0
1973235	WORD	wordpools/wasnorm_wordpool_576.txt	LTP319	ltpFR2	2	9	ONION	977	n/a	n/a	0	0	0
1974852	START	n/a	LTP319	ltpFR2	2	n/a	n/a	n/a	14	n/a	n/a	n/a	n/a
1975678	DISTRACTOR	n/a	LTP319	ltpFR2	2	9	n/a	n/a	n/a	n/a	0	0	0
1975686	PROB	n/a	LTP319	ltpFR2	2	n/a	n/a	n/a	14	15	4	2	9
1978940	PROB	n/a	LTP319	ltpFR2	2	n/a	n/a	n/a	14	17	4	5	8
1982058	PROB	n/a	LTP319	ltpFR2	2	n/a	n/a	n/a	14	13	6	5	2
1984527	PROB	n/a	LTP319	ltpFR2	2	n/a	n/a	n/a	14	24	6	9	9
1987512	PROB	n/a	LTP319	ltpFR2	2	n/a	n/a	n/a	14	18	4	8	6
1989914	PROB	n/a	LTP319	ltpFR2	2	n/a	n/a	n/a	14	19	9	6	4
1991867	PROB	n/a	LTP319	ltpFR2	2	n/a	n/a	n/a	14	12	9	2	1
1993651	PROB	n/a	LTP319	ltpFR2	2	n/a	n/a	n/a	14	21	5	9	7
1996020	PROB	n/a	LTP319	ltpFR2	2	n/a	n/a	n/a	14	9	2	2	5
1998009	STOP	n/a	LTP319	ltpFR2	2	n/a	n/a	n/a	14	n/a	n/a	n/a	n/a
2000658	REC_START	n/a	LTP319	ltpFR2	2	9	n/a	n/a	n/a	n/a	0	0	0
2002971	REC_WORD	wordpools/wasnorm_wordpool_576.txt	LTP319	ltpFR2	2	9	SEAGULL	1261	n/a	n/a	0	0	0
2004572	REC_WORD	wordpools/wasnorm_wordpool_576.txt	LTP319	ltpFR2	2	9	SEAFOOD	1260	n/a	n/a	0	0	0
2006257	REC_WORD	wordpools/wasnorm_wordpool_576.txt	LTP319	ltpFR2	2	9	AIRPLANE	12	n/a	n/a	0	0	0
2007368	REC_WORD	wordpools/wasnorm_wordpool_576.txt	LTP319	ltpFR2	2	9	FEMALE	559	n/a	n/a	0	0	0
2008599	REC_WORD	wordpools/wasnorm_wordpool_576.txt	LTP319	ltpFR2	2	9	ORANGE	980	n/a	n/a	0	0	0
2009853	REC_WORD	wordpools/wasnorm_wordpool_576.txt	LTP319	ltpFR2	2	9	MAMMAL	861	n/a	n/a	0	0	0
2011100	REC_WORD	wordpools/wasnorm_wordpool_576.txt	LTP319	ltpFR2	2	9	POSSUM	1112	n/a	n/a	0	0	0
2013044	REC_WORD	wordpools/wasnorm_wordpool_576.txt	LTP319	ltpFR2	2	9	NOTEBOOK	959	n/a	n/a	0	0	0
2013954	REC_WORD	wordpools/wasnorm_wordpool_576.txt	LTP319	ltpFR2	2	9	SIDEWALK	1303	n/a	n/a	0	0	0
2014954	REC_WORD_VV	wordpools/wasnorm_wordpool_576.txt	LTP319	ltpFR2	2	9	<>	-1	n/a	n/a	0	0	0
2015810	REC_WORD	wordpools/wasnorm_wordpool_576.txt	LTP319	ltpFR2	2	9	BLUEPRINT	142	n/a	n/a	0	0	0
2016810	REC_WORD_VV	wordpools/wasnorm_wordpool_576.txt	LTP319	ltpFR2	2	9	<>	-1	n/a	n/a	0	0	0
2018806	REC_WORD	wordpools/wasnorm_wordpool_576.txt	LTP319	ltpFR2	2	9	ROBIN	1199	n/a	n/a	0	0	0
2031786	REC_WORD	wordpools/wasnorm_wordpool_576.txt	LTP319	ltpFR2	2	9	CORAL	378	n/a	n/a	0	0	0
2091080	DISTRACTOR	n/a	LTP319	ltpFR2	2	10	n/a	n/a	n/a	n/a	0	0	0
2091080	START	n/a	LTP319	ltpFR2	2	n/a	n/a	n/a	15	n/a	n/a	n/a	n/a
2091097	PROB	n/a	LTP319	ltpFR2	2	n/a	n/a	n/a	15	15	8	7	5
2096199	PROB	n/a	LTP319	ltpFR2	2	n/a	n/a	n/a	15	15	1	4	8
2098984	PROB	n/a	LTP319	ltpFR2	2	n/a	n/a	n/a	15	6	1	4	1
2100904	PROB	n/a	LTP319	ltpFR2	2	n/a	n/a	n/a	15	22	8	6	8
2105173	PROB	n/a	LTP319	ltpFR2	2	n/a	n/a	n/a	15	19	6	7	6
2108527	PROB	n/a	LTP319	ltpFR2	2	n/a	n/a	n/a	15	16	6	4	6
2110346	PROB	n/a	LTP319	ltpFR2	2	n/a	n/a	n/a	15	13	6	6	1
2115080	STOP	n/a	LTP319	ltpFR2	2	n/a	n/a	n/a	15	n/a	n/a	n/a	n/a
2116025	WORD	wordpools/wasnorm_wordpool_576.txt	LTP319	ltpFR2	2	10	GALLON	618	n/a	n/a	0	0	0
2118612	WORD	wordpools/wasnorm_wordpool_576.txt	LTP319	ltpFR2	2	10	TOURIST	1488	n/a	n/a	0	0	0
2121046	WORD	wordpools/wasnorm_wordpool_576.txt	LTP319	ltpFR2	2	10	SUITCASE	1403	n/a	n/a	0	0	0
2123732	WORD	wordpools/wasnorm_wordpool_576.txt	LTP319	ltpFR2	2	10	CATCHER	258	n/a	n/a	0	0	0
2126208	WORD	wordpools/wasnorm_wordpool_576.txt	LTP319	ltpFR2	2	10	STUDENT	1395	n/a	n/a	0	0	0
2128726	WORD	wordpools/wasnorm_wordpool_576.txt	LTP319	ltpFR2	2	10	FIREPLACE	570	n/a	n/a	0	0	0
2131473	WORD	wordpools/wasnorm_wordpool_576.txt	LTP319	ltpFR2	2	10	SISTER	1312	n/a	n/a	0	0	0
2134024	WORD	wordpools/wasnorm_wordpool_576.txt	LTP319	ltpFR2	2	10	BULLET	194	n/a	n/a	0	0	0
2136826	WORD	wordpools/wasnorm_wordpool_576.txt	LTP319	ltpFR2	2	10	LASER	801	n/a	n/a	0	0	0
2139247	WORD	wordpools/wasnorm_wordpool_576.txt	LTP319	ltpFR2	2	10	FLASHLIGHT	575	n/a	n/a	0	0	0
2142020	WORD	wordpools/wasnorm_wordpool_576.txt	LTP319	ltpFR2	2	10	POET	1095	n/a	n/a	0	0	0
2144601	WORD	wordpools/wasnorm_wordpool_576.txt	LTP319	ltpFR2	2	10	LEG	809	n/a	n/a	0	0	0
2147253	WORD	wordpools/wasnorm_wordpool_576.txt	LTP319	ltpFR2	2	10	CLOCK	325	n/a	n/a	0	0	0
2149877	WORD	wordpools/wasnorm_wordpool_576.txt	LTP319	ltpFR2	2	10	PLAYGROUND	1087	n/a	n/a	0	0	0
2152557	WORD	wordpools/wasnorm_wordpool_576.txt	LTP319	ltpFR2	2	10	GRILL	661	n/a	n/a	0	0	0
2155310	WORD	wordpools/wasnorm_wordpool_576.txt	LTP319	ltpFR2	2	10	COUNTY	389	n/a	n/a	0	0	0
2157979	WORD	wordpools/wasnorm_wordpool_576.txt	LTP319	ltpFR2	2	10	ITEM	746	n/a	n/a	0	0	0
2160632	WORD	wordpools/wasnorm_wordpool_576.txt	LTP319	ltpFR2	2	10	MATCH	878	n/a	n/a	0	0	0
2163082	WORD	wordpools/wasnorm_wordpool_576.txt	LTP319	ltpFR2	2	10	MILDEW	893	n/a	n/a	0	0	0
2165852	WORD	wordpools/wasnorm_wordpool_576.txt	LTP319	ltpFR2	2	10	LABEL	790	n/a	n/a	0	0	0
2168309	WORD	wordpools/wasnorm_wordpool_576.txt	LTP319	ltpFR2	2	10	VENUS	1557	n/a	n/a	0	0	0
2171057	WORD	wordpools/wasnorm_wordpool_576.txt	LTP319	ltpFR2	2	10	TEACHER	1440	n/a	n/a	0	0	0
2173842	WORD	wordpools/wasnorm_wordpool_576.txt	LTP319	ltpFR2	2	10	ANKLE	24	n/a	n/a	0	0	0
2176346	WORD	wordpools/wasnorm_wordpool_576.txt	LTP319	ltpFR2	2	10	GUITAR	670	n/a	n/a	0	0	0
2177963	START	n/a	LTP319	ltpFR2	2	n/a	n/a	n/a	16	n/a	n/a	n/a	n/a
2179099	DISTRACTOR	n/a	LTP319	ltpFR2	2	10	n/a	n/a	n/a	n/a	0	0	0
2179114	PROB	n/a	LTP319	ltpFR2	2	n/a	n/a	n/a	16	19	9	4	6
2181482	PROB	n/a	LTP319	ltpFR2	2	n/a	n/a	n/a	16	16	6	4	6
2183032	PROB	n/a	LTP319	ltpFR2	2	n/a	n/a	n/a	16	21	5	8	8
2185185	PROB	n/a	LTP319	ltpFR2	2	n/a	n/a	n/a	16	16	4	6	6
2187370	PROB	n/a	LTP319	ltpFR2	2	n/a	n/a	n/a	16	12	2	2	8
2189121	PROB	n/a	LTP319	ltpFR2	2	n/a	n/a	n/a	16	18	8	9	1
2190707	PROB	n/a	LTP319	ltpFR2	2	n/a	n/a	n/a	16	23	9	7	7
2193596	PROB	n/a	LTP319	ltpFR2	2	n/a	n/a	n/a	16	13	4	5	4
2197730	PROB	n/a	LTP319	ltpFR2	2	n/a	n/a	n/a	16	9	1	6	2
2199549	PROB	n/a	LTP319	ltpFR2	2	n/a	n/a	n/a	16	7	2	2	3
2201177	STOP	n/a	LTP319	ltpFR2	2	n/a	n/a	n/a	16	n/a	n/a	n/a	n/a
2203737	REC_START	n/a	LTP319	ltpFR2	2	10	n/a	n/a	n/a	n/a	0	0	0
2207674	REC_WORD	wordpools/wasnorm_wordpool_576.txt	LTP319	ltpFR2	2	10	SISTER	1312	n/a	n/a	0	0	0
2208674	REC_WORD_VV	wordpools/wasnorm_wordpool_576.txt	LTP319	ltpFR2	2	10	<>	-1	n/a	n/a	0	0	0
2209321	REC_WORD	wordpools/wasnorm_wordpool_576.txt	LTP319	ltpFR2	2	10	BULLET	194	n/a	n/a	0	0	0
2210382	REC_WORD	wordpools/wasnorm_wordpool_576.txt	LTP319	ltpFR2	2	10	LEG	809	n/a	n/a	0	0	0
2211804	REC_WORD	wordpools/wasnorm_wordpool_576.txt	LTP319	ltpFR2	2	10	LASER	801	n/a	n/a	0	0	0
2213228	REC_WORD	wordpools/wasnorm_wordpool_576.txt	LTP319	ltpFR2	2	10	FIREPLACE	570	n/a	n/a	0	0	0
2214228	REC_WORD_VV	wordpools/wasnorm_wordpool_576.txt	LTP319	ltpFR2	2	10	<>	-1	n/a	n/a	0	0	0
2214815	REC_WORD	wordpools/wasnorm_wordpool_576.txt	LTP319	ltpFR2	2	10	POET	1095	n/a	n/a	0	0	0
2216204	REC_WORD	wordpools/wasnorm_wordpool_576.txt	LTP319	ltpFR2	2	10	STUDENT	1395	n/a	n/a	0	0	0
2217204	REC_WORD_VV	wordpools/wasnorm_wordpool_576.txt	LTP319	ltpFR2	2	10	<>	-1	n/a	n/a	0	0	0
2218141	REC_WORD	wordpools/wasnorm_wordpool_576.txt	LTP319	ltpFR2	2	10	PLAYGROUND	1087	n/a	n/a	0	0	0
2219141	REC_WORD_VV	wordpools/wasnorm_wordpool_576.txt	LTP319	ltpFR2	2	10	<>	-1	n/a	n/a	0	0	0
2240615	REC_WORD	wordpools/wasnorm_wordpool_576.txt	LTP319	ltpFR2	2	10	ITEM	746	n/a	n/a	0	0	0
2245051	REC_WORD	wordpools/wasnorm_wordpool_576.txt	LTP319	ltpFR2	2	10	SUITCASE	1403	n/a	n/a	0	0	0
2246051	REC_WORD_VV	wordpools/wasnorm_wordpool_576.txt	LTP319	ltpFR2	2	10	<>	-1	n/a	n/a	0	0	0
2251750	REC_WORD	wordpools/wasnorm_wordpool_576.txt	LTP319	ltpFR2	2	10	ONION	977	n/a	n/a	0	0	0
2294159	DISTRACTOR	n/a	LTP319	ltpFR2	2	11	n/a	n/a	n/a	n/a	0	0	0
2294159	START	n/a	LTP319	ltpFR2	2	n/a	n/a	n/a	17	n/a	n/a	n/a	n/a
2294175	PROB	n/a	LTP319	ltpFR2	2	n/a	n/a	n/a	17	12	4	7	1
2296595	PROB	n/a	LTP319	ltpFR2	2	n/a	n/a	n/a	17	18	7	4	7
2299095	PROB	n/a	LTP319	ltpFR2	2	n/a	n/a	n/a	17	16	7	3	6
2300649	PROB	n/a	LTP319	ltpFR2	2	n/a	n/a	n/a	17	21	9	4	8
2303484	PROB	n/a	LTP319	ltpFR2	2	n/a	n/a	n/a	17	7	3	1	3
2305485	PROB	n/a	LTP319	ltpFR2	2	n/a	n/a	n/a	17	13	6	1	6
2308355	PROB	n/a	LTP319	ltpFR2	2	n/a	n/a	n/a	17	11	2	7	2
2310238	PROB	n/a	LTP319	ltpFR2	2	n/a	n/a	n/a	17	17	6	5	6
2312924	PROB	n/a	LTP319	ltpFR2	2	n/a	n/a	n/a	17	5	1	3	1
2314943	PROB	n/a	LTP319	ltpFR2	2	n/a	n/a	n/a	17	19	6	8	5
2317709	STOP	n/a	LTP319	ltpFR2	2	n/a	n/a	n/a	17	n/a	n/a	n/a	n/a
2319286	WORD	wordpools/wasnorm_wordpool_576.txt	LTP319	ltpFR2	2	11	PADDING	999	n/a	n/a	0	0	0
2321921	WORD	wordpools/wasnorm_wordpool_576.txt	LTP319	ltpFR2	2	11	GUARD	667	n/a	n/a	0	0	0
2324518	WORD	wordpools/wasnorm_wordpool_576.txt	LTP319	ltpFR2	2	11	SUSPECT	1415	n/a	n/a	0	0	0
2327009	WORD	wordpools/wasnorm_wordpool_576.txt	LTP319	ltpFR2	2	11	ROBBER	1197	n/a	n/a	0	0	0
2329728	WORD	wordpools/wasnorm_wordpool_576.txt	LTP319	ltpFR2	2	11	WAITER	1580	n/a	n/a	0	0	0
2332357	WORD	wordpools/wasnorm_wordpool_576.txt	LTP319	ltpFR2	2	11	EXPERT	543	n/a	n/a	0	0	0
2334959	WORD	wordpools/wasnorm_wordpool_576.txt	LTP319	ltpFR2	2	11	SHRUB	1299	n/a	n/a	0	0	0
2337585	WORD	wordpools/wasnorm_wordpool_576.txt	LTP319	ltpFR2	2	11	FOREST	593	n/a	n/a	0	0	0
2340037	WORD	wordpools/wasnorm_wordpool_576.txt	LTP319	ltpFR2	2	11	SADDLE	1221	n/a	n/a	0	0	0
2342789	WORD	wordpools/wasnorm_wordpool_576.txt	LTP319	ltpFR2	2	11	LOFT	840	n/a	n/a	0	0	0
2345510	WORD	wordpools/wasnorm_wordpool_576.txt	LTP319	ltpFR2	2	11	CONTRACT	368	n/a	n/a	0	0	0
2348194	WORD	wordpools/wasnorm_wordpool_576.txt	LTP319	ltpFR2	2	11	LADDER	793	n/a	n/a	0	0	0
2350712	WORD	wordpools/wasnorm_wordpool_576.txt	LTP319	ltpFR2	2	11	BELLY	119	n/a	n/a	0	0	0
2353173	WORD	wordpools/wasnorm_wordpool_576.txt	LTP319	ltpFR2	2	11	HOUND	724	n/a	n/a	0	0	0
2355850	WORD	wordpools/wasnorm_wordpool_576.txt	LTP319	ltpFR2	2	11	BURGLAR	200	n/a	n/a	0	0	0
2358287	WORD	wordpools/wasnorm_wordpool_576.txt	LTP319	ltpFR2	2	11	POSTAGE	1113	n/a	n/a	0	0	0
2360795	WORD	wordpools/wasnorm_wordpool_576.txt	LTP319	ltpFR2	2	11	HIGHWAY	707	n/a	n/a	0	0	0
2363333	WORD	wordpools/wasnorm_wordpool_576.txt	LTP319	ltpFR2	2	11	GRAVEL	659	n/a	n/a	0	0	0
2366126	WORD	wordpools/wasnorm_wordpool_576.txt	LTP319	ltpFR2	2	11	SERVANT	1271	n/a	n/a	0	0	0
2368761	WORD	wordpools/wasnorm_wordpool_576.txt	LTP319	ltpFR2	2	11	TURKEY	1520	n/a	n/a	0	0	0
2371306	WORD	wordpools/wasnorm_wordpool_576.txt	LTP319	ltpFR2	2	11	RAZOR	1171	n/a	n/a	0	0	0
2373967	WORD	wordpools/wasnorm_wordpool_576.txt	LTP319	ltpFR2	2	11	GANGSTER	620	n/a	n/a	0	0	0
2376742	WORD	wordpools/wasnorm_wordpool_576.txt	LTP319	ltpFR2	2	11	HERO	706	n/a	n/a	0	0	0
2379372	WORD	wordpools/wasnorm_wordpool_576.txt	LTP319	ltpFR2	2	11	LIVER	833	n/a	n/a	0	0	0
2380979	START	n/a	LTP319	ltpFR2	2	n/a	n/a	n/a	18	n/a	n/a	n/a	n/a
2382134	DISTRACTOR	n/a	LTP319	ltpFR2	2	11	n/a	n/a	n/a	n/a	0	0	0
2382141	PROB	n/a	LTP319	ltpFR2	2	n/a	n/a	n/a	18	20	6	8	6
2385250	PROB	n/a	LTP319	ltpFR2	2	n/a	n/a	n/a	18	12	1	5	6
2386782	PROB	n/a	LTP319	ltpFR2	2	n/a	n/a	n/a	18	14	8	4	2
2389035	PROB	n/a	LTP319	ltpFR2	2	n/a	n/a	n/a	18	5	3	1	1
2390286	PROB	n/a	LTP319	ltpFR2	2	n/a	n/a	n/a	18	15	3	5	7
2394121	PROB	n/a	LTP319	ltpFR2	2	n/a	n/a	n/a	18	18	5	5	8
2396959	PROB	n/a	LTP319	ltpFR2	2	n/a	n/a	n/a	18	20	2	9	9
2399176	PROB	n/a	LTP319	ltpFR2	2	n/a	n/a	n/a	18	17	6	3	8
2401662	PROB	n/a	LTP319	ltpFR2	2	n/a	n/a	n/a	18	14	1	6	7
2403514	STOP	n/a	LTP319	ltpFR2	2	n/a	n/a	n/a	18	n/a	n/a	n/a	n/a
2406833	REC_START	n/a	LTP319	ltpFR2	2	11	n/a	n/a	n/a	n/a	0	0	0
2409156	REC_WORD	wordpools/wasnorm_wordpool_576.txt	LTP319	ltpFR2	2	11	HOUND	724	n/a	n/a	0	0	0
2410999	REC_WORD	wordpools/wasnorm_wordpool_576.txt	LTP319	ltpFR2	2	11	LIVER	833	n/a	n/a	0	0	0
2419870	REC_WORD	wordpools/wasnorm_wordpool_576.txt	LTP319	ltpFR2	2	11	GANGSTER	620	n/a	n/a	0	0	0
2421582	REC_WORD	wordpools/wasnorm_wordpool_576.txt	LTP319	ltpFR2	2	11	HIGHWAY	707	n/a	n/a	0	0	0
2446646	REC_WORD	wordpools/wasnorm_wordpool_576.txt	LTP319	ltpFR2	2	11	POSTAGE	1113	n/a	n/a	0	0	0
2447646	REC_WORD_VV	wordpools/wasnorm_wordpool_576.txt	LTP319	ltpFR2	2	11	<>	-1	n/a	n/a	0	0	0
2448341	REC_WORD	wordpools/wasnorm_wordpool_576.txt	LTP319	ltpFR2	2	11	BURGLAR	200	n/a	n/a	0	0	0
2497276	DISTRACTOR	n/a	LTP319	ltpFR2	2	12	n/a	n/a	n/a	n/a	0	0	0
2497276	START	n/a	LTP319	ltpFR2	2	n/a	n/a	n/a	19	n/a	n/a	n/a	n/a
2497288	PROB	n/a	LTP319	ltpFR2	2	n/a	n/a	n/a	19	25	9	9	5
2503495	PROB	n/a	LTP319	ltpFR2	2	n/a	n/a	n/a	19	9	2	4	3
2505844	PROB	n/a	LTP319	ltpFR2	2	n/a	n/a	n/a	19	12	3	8	1
2508414	PROB	n/a	LTP319	ltpFR2	2	n/a	n/a	n/a	19	11	3	3	5
2510550	PROB	n/a	LTP319	ltpFR2	2	n/a	n/a	n/a	19	17	6	5	6
2512983	PROB	n/a	LTP319	ltpFR2	2	n/a	n/a	n/a	19	11	2	2	7
2514718	PROB	n/a	LTP319	ltpFR2	2	n/a	n/a	n/a	19	9	2	5	2
2517337	PROB	n/a	LTP319	ltpFR2	2	n/a	n/a	n/a	19	12	2	5	5
2518821	PROB	n/a	LTP319	ltpFR2	2	n/a	n/a	n/a	19	16	5	4	7
2520797	STOP	n/a	LTP319	ltpFR2	2	n/a	n/a	n/a	19	n/a	n/a	n/a	n/a
2522159	WORD	wordpools/wasnorm_wordpool_576.txt	LTP319	ltpFR2	2	12	GRAVE	658	n/a	n/a	0	0	0
2524778	WORD	wordpools/wasnorm_wordpool_576.txt	LTP319	ltpFR2	2	12	PIZZA	1079	n/a	n/a	0	0	0
2527397	WORD	wordpools/wasnorm_wordpool_576.txt	LTP319	ltpFR2	2	12	HORNET	718	n/a	n/a	0	0	0
2530199	WORD	wordpools/wasnorm_wordpool_576.txt	LTP319	ltpFR2	2	12	HONEY	713	n/a	n/a	0	0	0
2532901	WORD	wordpools/wasnorm_wordpool_576.txt	LTP319	ltpFR2	2	12	ORCHID	982	n/a	n/a	0	0	0
2535420	WORD	wordpools/wasnorm_wordpool_576.txt	LTP319	ltpFR2	2	12	VAGRANT	1544	n/a	n/a	0	0	0
2537988	WORD	wordpools/wasnorm_wordpool_576.txt	LTP319	ltpFR2	2	12	BEEF	113	n/a	n/a	0	0	0
2540690	WORD	wordpools/wasnorm_wordpool_576.txt	LTP319	ltpFR2	2	12	STATUE	1374	n/a	n/a	0	0	0
2543398	WORD	wordpools/wasnorm_wordpool_576.txt	LTP319	ltpFR2	2	12	SCULPTURE	1258	n/a	n/a	0	0	0
2545866	WORD	wordpools/wasnorm_wordpool_576.txt	LTP319	ltpFR2	2	12	STONE	1385	n/a	n/a	0	0	0
2548648	WORD	wordpools/wasnorm_wordpool_576.txt	LTP319	ltpFR2	2	12	EGYPT	519	n/a	n/a	0	0	0
2551166	WORD	wordpools/wasnorm_wordpool_576.txt	LTP319	ltpFR2	2	12	ACTOR	5	n/a	n/a	0	0	0
2553806	WORD	wordpools/wasnorm_wordpool_576.txt	LTP319	ltpFR2	2	12	SLIME	1327	n/a	n/a	0	0	0
2556226	WORD	wordpools/wasnorm_wordpool_576.txt	LTP319	ltpFR2	2	12	RIFLE	1192	n/a	n/a	0	0	0
2558705	WORD	wordpools/wasnorm_wordpool_576.txt	LTP319	ltpFR2	2	12	DAISY	435	n/a	n/a	0	0	0
2561490	WORD	wordpools/wasnorm_wordpool_576.txt	LTP319	ltpFR2	2	12	JUGGLER	763	n/a	n/a	0	0	0
2564216	WORD	wordpools/wasnorm_wordpool_576.txt	LTP319	ltpFR2	2	12	COMPASS	358	n/a	n/a	0	0	0
2566861	WORD	wordpools/wasnorm_wordpool_576.txt	LTP319	ltpFR2	2	12	BACKBONE	66	n/a	n/a	0	0	0
2569297	WORD	wordpools/wasnorm_wordpool_576.txt	LTP319	ltpFR2	2	12	COSTUME	383	n/a	n/a	0	0	0
2571889	WORD	wordpools/wasnorm_wordpool_576.txt	LTP319	ltpFR2	2	12	COWBOY	395	n/a	n/a	0	0	0
2574318	WORD	wordpools/wasnorm_wordpool_576.txt	LTP319	ltpFR2	2	12	DONKEY	484	n/a	n/a	0	0	0
2576918	WORD	wordpools/wasnorm_wordpool_576.txt	LTP319	ltpFR2	2	12	JURY	766	n/a	n/a	0	0	0
2579572	WORD	wordpools/wasnorm_wordpool_576.txt	LTP319	ltpFR2	2	12	GLOBE	641	n/a	n/a	0	0	0
2582291	WORD	wordpools/wasnorm_wordpool_576.txt	LTP319	ltpFR2	2	12	TOMBSTONE	1478	n/a	n/a	0	0	0
2583901	START	n/a	LTP319	ltpFR2	2	n/a	n/a	n/a	20	n/a	n/a	n/a	n/a
2585100	DISTRACTOR	n/a	LTP319	ltpFR2	2	12	n/a	n/a	n/a	n/a	0	0	0
2585109	PROB	n/a	LTP319	ltpFR2	2	n/a	n/a	n/a	20	17	8	8	1
2587561	PROB	n/a	LTP319	ltpFR2	2	n/a	n/a	n/a	20	16	7	2	7
2589194	PROB	n/a	LTP319	ltpFR2	2	n/a	n/a	n/a	20	19	9	2	8
2591982	PROB	n/a	LTP319	ltpFR2	2	n/a	n/a	n/a	20	24	6	9	9
2594367	PROB	n/a	LTP319	ltpFR2	2	n/a	n/a	n/a	20	14	4	2	6
2597235	PROB	n/a	LTP319	ltpFR2	2	n/a	n/a	n/a	20	12	5	2	5
2599704	PROB	n/a	LTP319	ltpFR2	2	n/a	n/a	n/a	20	24	9	7	8
2602923	PROB	n/a	LTP319	ltpFR2	2	n/a	n/a	n/a	20	12	4	7	1
2605159	PROB	n/a	LTP319	ltpFR2	2	n/a	n/a	n/a	20	12	9	2	2
2607001	STOP	n/a	LTP319	ltpFR2	2	n/a	n/a	n/a	20	n/a	n/a	n/a	n/a
2609762	REC_START	n/a	LTP319	ltpFR2	2	12	n/a	n/a	n/a	n/a	0	0	0
2620959	REC_WORD	wordpools/wasnorm_wordpool_576.txt	LTP319	ltpFR2	2	12	COWBOY	395	n/a	n/a	0	0	0
2622697	REC_WORD	wordpools/wasnorm_wordpool_576.txt	LTP319	ltpFR2	2	12	COSTUME	383	n/a	n/a	0	0	0
2624722	REC_WORD	wordpools/wasnorm_wordpool_576.txt	LTP319	ltpFR2	2	12	DONKEY	484	n/a	n/a	0	0	0
2626569	REC_WORD	wordpools/wasnorm_wordpool_576.txt	LTP319	ltpFR2	2	12	VAGRANT	1544	n/a	n/a	0	0	0
2627569	REC_WORD_VV	wordpools/wasnorm_wordpool_576.txt	LTP319	ltpFR2	2	12	<>	-1	n/a	n/a	0	0	0
2628470	REC_WORD	wordpools/wasnorm_wordpool_576.txt	LTP319	ltpFR2	2	12	BEEF	113	n/a	n/a	0	0	0
2629783	REC_WORD	wordpools/wasnorm_wordpool_576.txt	LTP319	ltpFR2	2	12	STATUE	1374	n/a	n/a	0	0	0
2632835	REC_WORD	wordpools/wasnorm_wordpool_576.txt	LTP319	ltpFR2	2	12	ORCHID	982	n/a	n/a	0	0	0
2700236	WORD	wordpools/wasnorm_wordpool_576.txt	LTP319	ltpFR2	2	13	PAIL	1002	n/a	n/a	0	0	0
2702920	WORD	wordpools/wasnorm_wordpool_576.txt	LTP319	ltpFR2	2	13	MARROW	872	n/a	n/a	0	0	0
2705355	WORD	wordpools/wasnorm_wordpool_576.txt	LTP319	ltpFR2	2	13	BANKER	84	n/a	n/a	0	0	0
2707791	WORD	wordpools/wasnorm_wordpool_576.txt	LTP319	ltpFR2	2	13	CLOTHES	327	n/a	n/a	0	0	0
2710244	WORD	wordpools/wasnorm_wordpool_576.txt	LTP319	ltpFR2	2	13	SHELTER	1282	n/a	n/a	0	0	0
2712995	WORD	wordpools/wasnorm_wordpool_576.txt	LTP319	ltpFR2	2	13	MAPLE	866	n/a	n/a	0	0	0
2715498	WORD	wordpools/wasnorm_wordpool_576.txt	LTP319	ltpFR2	2	13	PARSLEY	1016	n/a	n/a	0	0	0
2718116	WORD	wordpools/wasnorm_wordpool_576.txt	LTP319	ltpFR2	2	13	SHOVEL	1295	n/a	n/a	0	0	0
2720734	WORD	wordpools/wasnorm_wordpool_576.txt	LTP319	ltpFR2	2	13	SCALLOP	1242	n/a	n/a	0	0	0
2723321	WORD	wordpools/wasnorm_wordpool_576.txt	LTP319	ltpFR2	2	13	TROUT	1511	n/a	n/a	0	0	0
2725955	WORD	wordpools/wasnorm_wordpool_576.txt	LTP319	ltpFR2	2	13	STOMACH	1384	n/a	n/a	0	0	0
2728541	WORD	wordpools/wasnorm_wordpool_576.txt	LTP319	ltpFR2	2	13	YOLK	1633	n/a	n/a	0	0	0
2731193	WORD	wordpools/wasnorm_wordpool_576.txt	LTP319	ltpFR2	2	13	SKILLET	1317	n/a	n/a	0	0	0
2733728	WORD	wordpools/wasnorm_wordpool_576.txt	LTP319	ltpFR2	2	13	CASHEW	253	n/a	n/a	0	0	0
2736481	WORD	wordpools/wasnorm_wordpool_576.txt	LTP319	ltpFR2	2	13	APPLE	33	n/a	n/a	0	0	0
2739099	WORD	wordpools/wasnorm_wordpool_576.txt	LTP319	ltpFR2	2	13	GARLIC	624	n/a	n/a	0	0	0
2741835	WORD	wordpools/wasnorm_wordpool_576.txt	LTP319	ltpFR2	2	13	CIGAR	308	n/a	n/a	0	0	0
2744388	WORD	wordpools/wasnorm_wordpool_576.txt	LTP319	ltpFR2	2	13	BRIEFCASE	175	n/a	n/a	0	0	0
2746972	WORD	wordpools/wasnorm_wordpool_576.txt	LTP319	ltpFR2	2	13	OFFICE	972	n/a	n/a	0	0	0
2749708	WORD	wordpools/wasnorm_wordpool_576.txt	LTP319	ltpFR2	2	13	CRAB	397	n/a	n/a	0	0	0
2752228	WORD	wordpools/wasnorm_wordpool_576.txt	LTP319	ltpFR2	2	13	OYSTER	995	n/a	n/a	0	0	0
2754761	WORD	wordpools/wasnorm_wordpool_576.txt	LTP319	ltpFR2	2	13	PUPIL	1143	n/a	n/a	0	0	0
2757334	WORD	wordpools/wasnorm_wordpool_576.txt	LTP319	ltpFR2	2	13	TRANSPLANT	1496	n/a	n/a	0	0	0
2759916	WORD	wordpools/wasnorm_wordpool_576.txt	LTP319	ltpFR2	2	13	DIME	466	n/a	n/a	0	0	0
2761523	START	n/a	LTP319	ltpFR2	2	n/a	n/a	n/a	21	n/a	n/a	n/a	n/a
2762704	DISTRACTOR	n/a	LTP319	ltpFR2	2	13	n/a	n/a	n/a	n/a	0	0	0
2762718	PROB	n/a	LTP319	ltpFR2	2	n/a	n/a	n/a	21	8	1	5	2
2765102	PROB	n/a	LTP319	ltpFR2	2	n/a	n/a	n/a	21	24	8	9	8
2771941	PROB	n/a	LTP319	ltpFR2	2	n/a	n/a	n/a	21	11	2	6	3
2775429	PROB	n/a	LTP319	ltpFR2	2	n/a	n/a	n/a	21	13	6	1	6
2778131	PROB	n/a	LTP319	ltpFR2	2	n/a	n/a	n/a	21	21	9	3	9
2781433	PROB	n/a	LTP319	ltpFR2	2	n/a	n/a	n/a	21	15	9	1	5
2783001	PROB	n/a	LTP319	ltpFR2	2	n/a	n/a	n/a	21	17	5	8	4
2785353	STOP	n/a	LTP319	ltpFR2	2	n/a	n/a	n/a	21	n/a	n/a	n/a	n/a
2787422	REC_START	n/a	LTP319	ltpFR2	2	13	n/a	n/a	n/a	n/a	0	0	0
2791692	REC_WORD	wordpools/wasnorm_wordpool_576.txt	LTP319	ltpFR2	2	13	BRIEFCASE	175	n/a	n/a	0	0	0
2792692	REC_WORD_VV	wordpools/wasnorm_wordpool_576.txt	LTP319	ltpFR2	2	13	<>	-1	n/a	n/a	0	0	0
2792839	REC_WORD	wordpools/wasnorm_wordpool_576.txt	LTP319	ltpFR2	2	13	CIGAR	308	n/a	n/a	0	0	0
2794348	REC_WORD	wordpools/wasnorm_wordpool_576.txt	LTP319	ltpFR2	2	13	BANKER	84	n/a	n/a	0	0	0
2795270	REC_WORD	wordpools/wasnorm_wordpool_576.txt	LTP319	ltpFR2	2	13	CLOTHES	327	n/a	n/a	0	0	0
2796612	REC_WORD	wordpools/wasnorm_wordpool_576.txt	LTP319	ltpFR2	2	13	SHELTER	1282	n/a	n/a	0	0	0
2877856	WORD	wordpools/wasnorm_wordpool_576.txt	LTP319	ltpFR2	2	14	SPACE	1345	n/a	n/a	0	0	0
2880375	WORD	wordpools/wasnorm_wordpool_576.txt	LTP319	ltpFR2	2	14	WORKER	1621	n/a	n/a	0	0	0
2883144	WORD	wordpools/wasnorm_wordpool_576.txt	LTP319	ltpFR2	2	14	FRECKLE	602	n/a	n/a	0	0	0
2885564	WORD	wordpools/wasnorm_wordpool_576.txt	LTP319	ltpFR2	2	14	DRINK	498	n/a	n/a	0	0	0
2888303	WORD	wordpools/wasnorm_wordpool_576.txt	LTP319	ltpFR2	2	14	COCKTAIL	338	n/a	n/a	0	0	0
2890934	WORD	wordpools/wasnorm_wordpool_576.txt	LTP319	ltpFR2	2	14	PENGUIN	1044	n/a	n/a	0	0	0
2893553	WORD	wordpools/wasnorm_wordpool_576.txt	LTP319	ltpFR2	2	14	SKETCH	1315	n/a	n/a	0	0	0
2896121	WORD	wordpools/wasnorm_wordpool_576.txt	LTP319	ltpFR2	2	14	YACHT	1629	n/a	n/a	0	0	0
2898740	WORD	wordpools/wasnorm_wordpool_576.txt	LTP319	ltpFR2	2	14	LAPEL	800	n/a	n/a	0	0	0
2901481	WORD	wordpools/wasnorm_wordpool_576.txt	LTP319	ltpFR2	2	14	SPOUSE	1358	n/a	n/a	0	0	0
2903914	WORD	wordpools/wasnorm_wordpool_576.txt	LTP319	ltpFR2	2	14	HEDGE	699	n/a	n/a	0	0	0
2906615	WORD	wordpools/wasnorm_wordpool_576.txt	LTP319	ltpFR2	2	14	HATCHET	691	n/a	n/a	0	0	0
2909418	WORD	wordpools/wasnorm_wordpool_576.txt	LTP319	ltpFR2	2	14	OUTDOORS	987	n/a	n/a	0	0	0
2912135	WORD	wordpools/wasnorm_wordpool_576.txt	LTP319	ltpFR2	2	14	PANTHER	1009	n/a	n/a	0	0	0
2914923	WORD	wordpools/wasnorm_wordpool_576.txt	LTP319	ltpFR2	2	14	LION	827	n/a	n/a	0	0	0
2917374	WORD	wordpools/wasnorm_wordpool_576.txt	LTP319	ltpFR2	2	14	TAXI	1438	n/a	n/a	0	0	0
2919859	WORD	wordpools/wasnorm_wordpool_576.txt	LTP319	ltpFR2	2	14	PEANUT	1032	n/a	n/a	0	0	0
2922411	WORD	wordpools/wasnorm_wordpool_576.txt	LTP319	ltpFR2	2	14	CYCLONE	431	n/a	n/a	0	0	0
2925048	WORD	wordpools/wasnorm_wordpool_576.txt	LTP319	ltpFR2	2	14	PIMPLE	1071	n/a	n/a	0	0	0
2927699	WORD	wordpools/wasnorm_wordpool_576.txt	LTP319	ltpFR2	2	14	PECAN	1036	n/a	n/a	0	0	0
2930201	WORD	wordpools/wasnorm_wordpool_576.txt	LTP319	ltpFR2	2	14	JELLO	754	n/a	n/a	0	0	0
2932753	WORD	wordpools/wasnorm_wordpool_576.txt	LTP319	ltpFR2	2	14	THREAD	1460	n/a	n/a	0	0	0
2935507	WORD	wordpools/wasnorm_wordpool_576.txt	LTP319	ltpFR2	2	14	CASHIER	254	n/a	n/a	0	0	0
2938058	WORD	wordpools/wasnorm_wordpool_576.txt	LTP319	ltpFR2	2	14	WIDOW	1608	n/a	n/a	0	0	0
2939677	START	n/a	LTP319	ltpFR2	2	n/a	n/a	n/a	22	n/a	n/a	n/a	n/a
2940525	DISTRACTOR	n/a	LTP319	ltpFR2	2	14	n/a	n/a	n/a	n/a	0	0	0
2940544	PROB	n/a	LTP319	ltpFR2	2	n/a	n/a	n/a	22	18	8	7	3
2942514	PROB	n/a	LTP319	ltpFR2	2	n/a	n/a	n/a	22	16	8	6	2
2945533	PROB	n/a	LTP319	ltpFR2	2	n/a	n/a	n/a	22	17	9	4	4
2947533	PROB	n/a	LTP319	ltpFR2	2	n/a	n/a	n/a	22	15	4	3	8
2949918	PROB	n/a	LTP319	ltpFR2	2	n/a	n/a	n/a	22	17	6	8	3
2952636	PROB	n/a	LTP319	ltpFR2	2	n/a	n/a	n/a	22	17	5	8	4
2954738	PROB	n/a	LTP319	ltpFR2	2	n/a	n/a	n/a	22	16	5	8	3
2958575	PROB	n/a	LTP319	ltpFR2	2	n/a	n/a	n/a	22	10	8	1	1
2960528	PROB	n/a	LTP319	ltpFR2	2	n/a	n/a	n/a	22	15	9	3	3
2962568	STOP	n/a	LTP319	ltpFR2	2	n/a	n/a	n/a	22	n/a	n/a	n/a	n/a
2965464	REC_START	n/a	LTP319	ltpFR2	2	14	n/a	n/a	n/a	n/a	0	0	0
2967023	REC_WORD	wordpools/wasnorm_wordpool_576.txt	LTP319	ltpFR2	2	14	HEDGE	699	n/a	n/a	0	0	0
2968391	REC_WORD	wordpools/wasnorm_wordpool_576.txt	LTP319	ltpFR2	2	14	HATCHET	691	n/a	n/a	0	0	0
2969823	REC_WORD	wordpools/wasnorm_wordpool_576.txt	LTP319	ltpFR2	2	14	YACHT	1629	n/a	n/a	0	0	0
2971299	REC_WORD	wordpools/wasnorm_wordpool_576.txt	LTP319	ltpFR2	2	14	PENGUIN	1044	n/a	n/a	0	0	0
2972313	REC_WORD	wordpools/wasnorm_wordpool_576.txt	LTP319	ltpFR2	2	14	COCKTAIL	338	n/a	n/a	0	0	0
2973469	REC_WORD	wordpools/wasnorm_wordpool_576.txt	LTP319	ltpFR2	2	14	PANTHER	1009	n/a	n/a	0	0	0
2974634	REC_WORD	wordpools/wasnorm_wordpool_576.txt	LTP319	ltpFR2	2	14	LION	827	n/a	n/a	0	0	0
2975923	REC_WORD	wordpools/wasnorm_wordpool_576.txt	LTP319	ltpFR2	2	14	SKETCH	1315	n/a	n/a	0	0	0
2977613	REC_WORD	wordpools/wasnorm_wordpool_576.txt	LTP319	ltpFR2	2	14	PEANUT	1032	n/a	n/a	0	0	0
2978656	REC_WORD	wordpools/wasnorm_wordpool_576.txt	LTP319	ltpFR2	2	14	PECAN	1036	n/a	n/a	0	0	0
2980158	REC_WORD	wordpools/wasnorm_wordpool_576.txt	LTP319	ltpFR2	2	14	THREAD	1460	n/a	n/a	0	0	0
2983104	REC_WORD	wordpools/wasnorm_wordpool_576.txt	LTP319	ltpFR2	2	14	OUTDOORS	987	n/a	n/a	0	0	0
2984104	REC_WORD_VV	wordpools/wasnorm_wordpool_576.txt	LTP319	ltpFR2	2	14	<>	-1	n/a	n/a	0	0	0
2996808	REC_WORD	wordpools/wasnorm_wordpool_576.txt	LTP319	ltpFR2	2	14	LAPEL	800	n/a	n/a	0	0	0
3055902	WORD	wordpools/wasnorm_wordpool_576.txt	LTP319	ltpFR2	2	15	PUPPY	1144	n/a	n/a	0	0	0
3058680	WORD	wordpools/wasnorm_wordpool_576.txt	LTP319	ltpFR2	2	15	VIRUS	1572	n/a	n/a	0	0	0
3061216	WORD	wordpools/wasnorm_wordpool_576.txt	LTP319	ltpFR2	2	15	KLEENEX	782	n/a	n/a	0	0	0
3063976	WORD	wordpools/wasnorm_wordpool_576.txt	LTP319	ltpFR2	2	15	BATHTUB	100	n/a	n/a	0	0	0
3066597	WORD	wordpools/wasnorm_wordpool_576.txt	LTP319	ltpFR2	2	15	BUCKET	184	n/a	n/a	0	0	0
3069030	WORD	wordpools/wasnorm_wordpool_576.txt	LTP319	ltpFR2	2	15	PALACE	1006	n/a	n/a	0	0	0
3071600	WORD	wordpools/wasnorm_wordpool_576.txt	LTP319	ltpFR2	2	15	GRAPE	654	n/a	n/a	0	0	0
3074394	WORD	wordpools/wasnorm_wordpool_576.txt	LTP319	ltpFR2	2	15	TRIBE	1505	n/a	n/a	0	0	0
3076836	WORD	wordpools/wasnorm_wordpool_576.txt	LTP319	ltpFR2	2	15	SPIDER	1351	n/a	n/a	0	0	0
3079556	WORD	wordpools/wasnorm_wordpool_576.txt	LTP319	ltpFR2	2	15	PARTNER	1017	n/a	n/a	0	0	0
3082016	WORD	wordpools/wasnorm_wordpool_576.txt	LTP319	ltpFR2	2	15	ATLAS	53	n/a	n/a	0	0	0
3084460	WORD	wordpools/wasnorm_wordpool_576.txt	LTP319	ltpFR2	2	15	WORLD	1622	n/a	n/a	0	0	0
3087229	WORD	wordpools/wasnorm_wordpool_576.txt	LTP319	ltpFR2	2	15	LIPSTICK	829	n/a	n/a	0	0	0
3089931	WORD	wordpools/wasnorm_wordpool_576.txt	LTP319	ltpFR2	2	15	CRAYON	401	n/a	n/a	0	0	0
3092466	WORD	wordpools/wasnorm_wordpool_576.txt	LTP319	ltpFR2	2	15	FRIAR	605	n/a	n/a	0	0	0
3095118	WORD	wordpools/wasnorm_wordpool_576.txt	LTP319	ltpFR2	2	15	JELLY	755	n/a	n/a	0	0	0
3097631	WORD	wordpools/wasnorm_wordpool_576.txt	LTP319	ltpFR2	2	15	TUTU	1524	n/a	n/a	0	0	0
3100166	WORD	wordpools/wasnorm_wordpool_576.txt	LTP319	ltpFR2	2	15	TWIG	1527	n/a	n/a	0	0	0
3102801	WORD	wordpools/wasnorm_wordpool_576.txt	LTP319	ltpFR2	2	15	SANDWICH	1232	n/a	n/a	0	0	0
3105554	WORD	wordpools/wasnorm_wordpool_576.txt	LTP319	ltpFR2	2	15	DANCER	437	n/a	n/a	0	0	0
3108073	WORD	wordpools/wasnorm_wordpool_576.txt	LTP319	ltpFR2	2	15	TEMPLE	1448	n/a	n/a	0	0	0
3110626	WORD	wordpools/wasnorm_wordpool_576.txt	LTP319	ltpFR2	2	15	RAFT	1159	n/a	n/a	0	0	0
3113250	WORD	wordpools/wasnorm_wordpool_576.txt	LTP319	ltpFR2	2	15	STICKER	1382	n/a	n/a	0	0	0
3115846	WORD	wordpools/wasnorm_wordpool_576.txt	LTP319	ltpFR2	2	15	ROD	1203	n/a	n/a	0	0	0
3117455	START	n/a	LTP319	ltpFR2	2	n/a	n/a	n/a	23	n/a	n/a	n/a	n/a
3118534	DISTRACTOR	n/a	LTP319	ltpFR2	2	15	n/a	n/a	n/a	n/a	0	0	0
3118549	PROB	n/a	LTP319	ltpFR2	2	n/a	n/a	n/a	23	10	2	1	7
3121323	PROB	n/a	LTP319	ltpFR2	2	n/a	n/a	n/a	23	20	8	7	5
3124641	PROB	n/a	LTP319	ltpFR2	2	n/a	n/a	n/a	23	14	8	5	1
3126511	PROB	n/a	LTP319	ltpFR2	2	n/a	n/a	n/a	23	15	7	5	3
3128997	PROB	n/a	LTP319	ltpFR2	2	n/a	n/a	n/a	23	20	9	9	2
3130748	PROB	n/a	LTP319	ltpFR2	2	n/a	n/a	n/a	23	11	1	5	5
3132382	PROB	n/a	LTP319	ltpFR2	2	n/a	n/a	n/a	23	13	4	3	6
3134901	PROB	n/a	LTP319	ltpFR2	2	n/a	n/a	n/a	23	15	4	6	5
3136653	PROB	n/a	LTP319	ltpFR2	2	n/a	n/a	n/a	23	18	9	5	4
3141455	STOP	n/a	LTP319	ltpFR2	2	n/a	n/a	n/a	23	n/a	n/a	n/a	n/a
3143373	REC_START	n/a	LTP319	ltpFR2	2	15	n/a	n/a	n/a	n/a	0	0	0
3144943	REC_WORD	wordpools/wasnorm_wordpool_576.txt	LTP319	ltpFR2	2	15	ROD	1203	n/a	n/a	0	0	0
3146151	REC_WORD	wordpools/wasnorm_wordpool_576.txt	LTP319	ltpFR2	2	15	BATHTUB	100	n/a	n/a	0	0	0
3147742	REC_WORD	wordpools/wasnorm_wordpool_576.txt	LTP319	ltpFR2	2	15	PUPPY	1144	n/a	n/a	0	0	0
3149335	REC_WORD	wordpools/wasnorm_wordpool_576.txt	LTP319	ltpFR2	2	15	GRAPE	654	n/a	n/a	0	0	0
3150571	REC_WORD	wordpools/wasnorm_wordpool_576.txt	LTP319	ltpFR2	2	15	BUCKET	184	n/a	n/a	0	0	0
3151747	REC_WORD	wordpools/wasnorm_wordpool_576.txt	LTP319	ltpFR2	2	15	VIRUS	1572	n/a	n/a	0	0	0
3152921	REC_WORD	wordpools/wasnorm_wordpool_576.txt	LTP319	ltpFR2	2	15	KLEENEX	782	n/a	n/a	0	0	0
3154196	REC_WORD	wordpools/wasnorm_wordpool_576.txt	LTP319	ltpFR2	2	15	SPIDER	1351	n/a	n/a	0	0	0
3155435	REC_WORD	wordpools/wasnorm_wordpool_576.txt	LTP319	ltpFR2	2	15	PARTNER	1017	n/a	n/a	0	0	0
3156747	REC_WORD	wordpools/wasnorm_wordpool_576.txt	LTP319	ltpFR2	2	15	TUTU	1524	n/a	n/a	0	0	0
3159728	REC_WORD	wordpools/wasnorm_wordpool_576.txt	LTP319	ltpFR2	2	15	RAFT	1159	n/a	n/a	0	0	0
3166475	REC_WORD	wordpools/wasnorm_wordpool_576.txt	LTP319	ltpFR2	2	15	FRIAR	605	n/a	n/a	0	0	0
3168160	REC_WORD	wordpools/wasnorm_wordpool_576.txt	LTP319	ltpFR2	2	15	PALACE	1006	n/a	n/a	0	0	0
3169806	REC_WORD	wordpools/wasnorm_wordpool_576.txt	LTP319	ltpFR2	2	15	TEMPLE	1448	n/a	n/a	0	0	0
3171610	REC_WORD	wordpools/wasnorm_wordpool_576.txt	LTP319	ltpFR2	2	15	TRIBE	1505	n/a	n/a	0	0	0
3173112	REC_WORD	wordpools/wasnorm_wordpool_576.txt	LTP319	ltpFR2	2	15	DANCER	437	n/a	n/a	0	0	0
3186425	REC_WORD	wordpools/wasnorm_wordpool_576.txt	LTP319	ltpFR2	2	15	JELLY	755	n/a	n/a	0	0	0
3196135	REC_WORD	wordpools/wasnorm_wordpool_576.txt	LTP319	ltpFR2	2	15	PUPPY	1144	n/a	n/a	0	0	0
3233845	WORD	wordpools/wasnorm_wordpool_576.txt	LTP319	ltpFR2	2	16	PUDDLE	1140	n/a	n/a	0	0	0
3236649	WORD	wordpools/wasnorm_wordpool_576.txt	LTP319	ltpFR2	2	16	AGENT	10	n/a	n/a	0	0	0
3239171	WORD	wordpools/wasnorm_wordpool_576.txt	LTP319	ltpFR2	2	16	RABBIT	1152	n/a	n/a	0	0	0
3241985	WORD	wordpools/wasnorm_wordpool_576.txt	LTP319	ltpFR2	2	16	NECKLACE	940	n/a	n/a	0	0	0
3244443	WORD	wordpools/wasnorm_wordpool_576.txt	LTP319	ltpFR2	2	16	NOVEL	960	n/a	n/a	0	0	0
3247258	WORD	wordpools/wasnorm_wordpool_576.txt	LTP319	ltpFR2	2	16	SHELF	1280	n/a	n/a	0	0	0
3249930	WORD	wordpools/wasnorm_wordpool_576.txt	LTP319	ltpFR2	2	16	PARENT	1013	n/a	n/a	0	0	0
3252445	WORD	wordpools/wasnorm_wordpool_576.txt	LTP319	ltpFR2	2	16	PLATE	1086	n/a	n/a	0	0	0
3254934	WORD	wordpools/wasnorm_wordpool_576.txt	LTP319	ltpFR2	2	16	WARDROBE	1587	n/a	n/a	0	0	0
3257415	WORD	wordpools/wasnorm_wordpool_576.txt	LTP319	ltpFR2	2	16	BUREAU	199	n/a	n/a	0	0	0
3260183	WORD	wordpools/wasnorm_wordpool_576.txt	LTP319	ltpFR2	2	16	PRINCE	1124	n/a	n/a	0	0	0
3262857	WORD	wordpools/wasnorm_wordpool_576.txt	LTP319	ltpFR2	2	16	FLEET	578	n/a	n/a	0	0	0
3265338	WORD	wordpools/wasnorm_wordpool_576.txt	LTP319	ltpFR2	2	16	QUAIL	1147	n/a	n/a	0	0	0
3267989	WORD	wordpools/wasnorm_wordpool_576.txt	LTP319	ltpFR2	2	16	PERCH	1048	n/a	n/a	0	0	0
3270510	WORD	wordpools/wasnorm_wordpool_576.txt	LTP319	ltpFR2	2	16	MOP	916	n/a	n/a	0	0	0
3273044	WORD	wordpools/wasnorm_wordpool_576.txt	LTP319	ltpFR2	2	16	HANDBAG	684	n/a	n/a	0	0	0
3275464	WORD	wordpools/wasnorm_wordpool_576.txt	LTP319	ltpFR2	2	16	MEDAL	885	n/a	n/a	0	0	0
3278170	WORD	wordpools/wasnorm_wordpool_576.txt	LTP319	ltpFR2	2	16	COLONEL	348	n/a	n/a	0	0	0
3280883	WORD	wordpools/wasnorm_wordpool_576.txt	LTP319	ltpFR2	2	16	COFFEE	341	n/a	n/a	0	0	0
3283460	WORD	wordpools/wasnorm_wordpool_576.txt	LTP319	ltpFR2	2	16	HEADBAND	696	n/a	n/a	0	0	0
3286272	WORD	wordpools/wasnorm_wordpool_576.txt	LTP319	ltpFR2	2	16	WASHER	1592	n/a	n/a	0	0	0
3288830	WORD	wordpools/wasnorm_wordpool_576.txt	LTP319	ltpFR2	2	16	KEEPER	769	n/a	n/a	0	0	0
3291383	WORD	wordpools/wasnorm_wordpool_576.txt	LTP319	ltpFR2	2	16	DOLPHIN	483	n/a	n/a	0	0	0
3294110	WORD	wordpools/wasnorm_wordpool_576.txt	LTP319	ltpFR2	2	16	CANDY	230	n/a	n/a	0	0	0
3295720	START	n/a	LTP319	ltpFR2	2	n/a	n/a	n/a	24	n/a	n/a	n/a	n/a
3296699	DISTRACTOR	n/a	LTP319	ltpFR2	2	16	n/a	n/a	n/a	n/a	0	0	0
3296703	PROB	n/a	LTP319	ltpFR2	2	n/a	n/a	n/a	24	21	8	9	4
3299797	PROB	n/a	LTP319	ltpFR2	2	n/a	n/a	n/a	24	16	8	2	6
3301401	PROB	n/a	LTP319	ltpFR2	2	n/a	n/a	n/a	24	21	7	9	5
3304737	PROB	n/a	LTP319	ltpFR2	2	n/a	n/a	n/a	24	19	9	6	4
3307120	PROB	n/a	LTP319	ltpFR2	2	n/a	n/a	n/a	24	13	2	2	9
3309606	PROB	n/a	LTP319	ltpFR2	2	n/a	n/a	n/a	24	20	8	8	4
3312326	PROB	n/a	LTP319	ltpFR2	2	n/a	n/a	n/a	24	13	1	3	9
3314144	PROB	n/a	LTP319	ltpFR2	2	n/a	n/a	n/a	24	20	4	7	9
3316645	PROB	n/a	LTP319	ltpFR2	2	n/a	n/a	n/a	24	18	6	6	4
3318662	STOP	n/a	LTP319	ltpFR2	2	n/a	n/a	n/a	24	n/a	n/a	n/a	n/a
3321601	REC_START	n/a	LTP319	ltpFR2	2	16	n/a	n/a	n/a	n/a	0	0	0
3324073	REC_WORD	wordpools/wasnorm_wordpool_576.txt	LTP319	ltpFR2	2	16	KEEPER	769	n/a	n/a	0	0	0
3325597	REC_WORD	wordpools/wasnorm_wordpool_576.txt	LTP319	ltpFR2	2	16	DOLPHIN	483	n/a	n/a	0	0	0
3398142	REST_REWET	n/a	LTP319	ltpFR2	2	16	n/a	n/a	n/a	n/a	0	0	0
3809674	WORD	wordpools/wasnorm_wordpool_576.txt	LTP319	ltpFR2	2	17	COCOON	339	n/a	n/a	0	0	0
3812420	WORD	wordpools/wasnorm_wordpool_576.txt	LTP319	ltpFR2	2	17	RELISH	1183	n/a	n/a	0	0	0
3815162	WORD	wordpools/wasnorm_wordpool_576.txt	LTP319	ltpFR2	2	17	AIRPORT	13	n/a	n/a	0	0	0
3817615	WORD	wordpools/wasnorm_wordpool_576.txt	LTP319	ltpFR2	2	17	BISON	131	n/a	n/a	0	0	0
3820199	WORD	wordpools/wasnorm_wordpool_576.txt	LTP319	ltpFR2	2	17	BUBBLE	183	n/a	n/a	0	0	0
3823002	WORD	wordpools/wasnorm_wordpool_576.txt	LTP319	ltpFR2	2	17	CHAUFFEUR	283	n/a	n/a	0	0	0
3825582	WORD	wordpools/wasnorm_wordpool_576.txt	LTP319	ltpFR2	2	17	VALVE	1546	n/a	n/a	0	0	0
3828090	WORD	wordpools/wasnorm_wordpool_576.txt	LTP319	ltpFR2	2	17	RIVER	1194	n/a	n/a	0	0	0
3830659	WORD	wordpools/wasnorm_wordpool_576.txt	LTP319	ltpFR2	2	17	PATIENT	1024	n/a	n/a	0	0	0
3833120	WORD	wordpools/wasnorm_wordpool_576.txt	LTP319	ltpFR2	2	17	GREASE	660	n/a	n/a	0	0	0
3835778	WORD	wordpools/wasnorm_wordpool_576.txt	LTP319	ltpFR2	2	17	CURTAIN	427	n/a	n/a	0	0	0
3838292	WORD	wordpools/wasnorm_wordpool_576.txt	LTP319	ltpFR2	2	17	QUEEN	1149	n/a	n/a	0	0	0
3840877	WORD	wordpools/wasnorm_wordpool_576.txt	LTP319	ltpFR2	2	17	KETCHUP	771	n/a	n/a	0	0	0
3843369	WORD	wordpools/wasnorm_wordpool_576.txt	LTP319	ltpFR2	2	17	DOUGHNUT	490	n/a	n/a	0	0	0
3845932	WORD	wordpools/wasnorm_wordpool_576.txt	LTP319	ltpFR2	2	17	MOTEL	919	n/a	n/a	0	0	0
3848622	WORD	wordpools/wasnorm_wordpool_576.txt	LTP319	ltpFR2	2	17	STAKE	1368	n/a	n/a	0	0	0
3851090	WORD	wordpools/wasnorm_wordpool_576.txt	LTP319	ltpFR2	2	17	SHERIFF	1284	n/a	n/a	0	0	0
3853822	WORD	wordpools/wasnorm_wordpool_576.txt	LTP319	ltpFR2	2	17	CONVICT	371	n/a	n/a	0	0	0
3856308	WORD	wordpools/wasnorm_wordpool_576.txt	LTP319	ltpFR2	2	17	OUTLAW	989	n/a	n/a	0	0	0
3858964	WORD	wordpools/wasnorm_wordpool_576.txt	LTP319	ltpFR2	2	17	COOK	372	n/a	n/a	0	0	0
3861429	WORD	wordpools/wasnorm_wordpool_576.txt	LTP319	ltpFR2	2	17	STOVE	1388	n/a	n/a	0	0	0
3863881	WORD	wordpools/wasnorm_wordpool_576.txt	LTP319	ltpFR2	2	17	CRICKET	408	n/a	n/a	0	0	0
3866301	WORD	wordpools/wasnorm_wordpool_576.txt	LTP319	ltpFR2	2	17	CARRIAGE	248	n/a	n/a	0	0	0
3868986	WORD	wordpools/wasnorm_wordpool_576.txt	LTP319	ltpFR2	2	17	CHILD	299	n/a	n/a	0	0	0
3870591	START	n/a	LTP319	ltpFR2	2	n/a	n/a	n/a	25	n/a	n/a	n/a	n/a
3871497	DISTRACTOR	n/a	LTP319	ltpFR2	2	17	n/a	n/a	n/a	n/a	0	0	0
3871505	PROB	n/a	LTP319	ltpFR2	2	n/a	n/a	n/a	25	16	2	9	5
3875790	PROB	n/a	LTP319	ltpFR2	2	n/a	n/a	n/a	25	16	5	2	7
3878009	PROB	n/a	LTP319	ltpFR2	2	n/a	n/a	n/a	25	13	1	3	9
3881548	PROB	n/a	LTP319	ltpFR2	2	n/a	n/a	n/a	25	18	8	8	2
3883214	PROB	n/a	LTP319	ltpFR2	2	n/a	n/a	n/a	25	7	1	5	1
3884551	PROB	n/a	LTP319	ltpFR2	2	n/a	n/a	n/a	25	12	9	1	2
3886067	PROB	n/a	LTP319	ltpFR2	2	n/a	n/a	n/a	25	17	8	1	8
3888222	PROB	n/a	LTP319	ltpFR2	2	n/a	n/a	n/a	25	23	9	8	6
3890838	PROB	n/a	LTP319	ltpFR2	2	n/a	n/a	n/a	25	20	8	5	7
3893588	STOP	n/a	LTP319	ltpFR2	2	n/a	n/a	n/a	25	n/a	n/a	n/a	n/a
3896412	REC_START	n/a	LTP319	ltpFR2	2	17	n/a	n/a	n/a	n/a	0	0	0
3897711	REC_WORD	wordpools/wasnorm_wordpool_576.txt	LTP319	ltpFR2	2	17	RELISH	1183	n/a	n/a	0	0	0
3899140	REC_WORD	wordpools/wasnorm_wordpool_576.txt	LTP319	ltpFR2	2	17	BUBBLE	183	n/a	n/a	0	0	0
3900379	REC_WORD	wordpools/wasnorm_wordpool_576.txt	LTP319	ltpFR2	2	17	COCOON	339	n/a	n/a	0	0	0
3902807	REC_WORD	wordpools/wasnorm_wordpool_576.txt	LTP319	ltpFR2	2	17	AIRPORT	13	n/a	n/a	0	0	0
3986865	WORD	wordpools/wasnorm_wordpool_576.txt	LTP319	ltpFR2	2	18	KNIFE	785	n/a	n/a	0	0	0
3989552	WORD	wordpools/wasnorm_wordpool_576.txt	LTP319	ltpFR2	2	18	GLASS	639	n/a	n/a	0	0	0
3992222	WORD	wordpools/wasnorm_wordpool_576.txt	LTP319	ltpFR2	2	18	FRAME	600	n/a	n/a	0	0	0
3994989	WORD	wordpools/wasnorm_wordpool_576.txt	LTP319	ltpFR2	2	18	SALT	1229	n/a	n/a	0	0	0
3997497	WORD	wordpools/wasnorm_wordpool_576.txt	LTP319	ltpFR2	2	18	CITRUS	313	n/a	n/a	0	0	0
4000312	WORD	wordpools/wasnorm_wordpool_576.txt	LTP319	ltpFR2	2	18	BRANDY	169	n/a	n/a	0	0	0
4002901	WORD	wordpools/wasnorm_wordpool_576.txt	LTP319	ltpFR2	2	18	CREATURE	403	n/a	n/a	0	0	0
4005582	WORD	wordpools/wasnorm_wordpool_576.txt	LTP319	ltpFR2	2	18	THIEF	1456	n/a	n/a	0	0	0
4008099	WORD	wordpools/wasnorm_wordpool_576.txt	LTP319	ltpFR2	2	18	BANK	83	n/a	n/a	0	0	0
4010669	WORD	wordpools/wasnorm_wordpool_576.txt	LTP319	ltpFR2	2	18	GIRL	637	n/a	n/a	0	0	0
4013329	WORD	wordpools/wasnorm_wordpool_576.txt	LTP319	ltpFR2	2	18	SWORD	1423	n/a	n/a	0	0	0
4015979	WORD	wordpools/wasnorm_wordpool_576.txt	LTP319	ltpFR2	2	18	SCALPEL	1243	n/a	n/a	0	0	0
4018798	WORD	wordpools/wasnorm_wordpool_576.txt	LTP319	ltpFR2	2	18	LUMBER	848	n/a	n/a	0	0	0
4021279	WORD	wordpools/wasnorm_wordpool_576.txt	LTP319	ltpFR2	2	18	JOURNAL	760	n/a	n/a	0	0	0
4024013	WORD	wordpools/wasnorm_wordpool_576.txt	LTP319	ltpFR2	2	18	BOYFRIEND	162	n/a	n/a	0	0	0
4026465	WORD	wordpools/wasnorm_wordpool_576.txt	LTP319	ltpFR2	2	18	LOVER	846	n/a	n/a	0	0	0
4029174	WORD	wordpools/wasnorm_wordpool_576.txt	LTP319	ltpFR2	2	18	AUTHOR	61	n/a	n/a	0	0	0
4031752	WORD	wordpools/wasnorm_wordpool_576.txt	LTP319	ltpFR2	2	18	SHOULDER	1294	n/a	n/a	0	0	0
4034280	WORD	wordpools/wasnorm_wordpool_576.txt	LTP319	ltpFR2	2	18	BLACKBOARD	133	n/a	n/a	0	0	0
4036731	WORD	wordpools/wasnorm_wordpool_576.txt	LTP319	ltpFR2	2	18	SEAL	1262	n/a	n/a	0	0	0
4039435	WORD	wordpools/wasnorm_wordpool_576.txt	LTP319	ltpFR2	2	18	COTTAGE	384	n/a	n/a	0	0	0
4042010	WORD	wordpools/wasnorm_wordpool_576.txt	LTP319	ltpFR2	2	18	TILE	1468	n/a	n/a	0	0	0
4044580	WORD	wordpools/wasnorm_wordpool_576.txt	LTP319	ltpFR2	2	18	ELBOW	520	n/a	n/a	0	0	0
4047097	WORD	wordpools/wasnorm_wordpool_576.txt	LTP319	ltpFR2	2	18	CASKET	255	n/a	n/a	0	0	0
4048709	START	n/a	LTP319	ltpFR2	2	n/a	n/a	n/a	26	n/a	n/a	n/a	n/a
4049639	DISTRACTOR	n/a	LTP319	ltpFR2	2	18	n/a	n/a	n/a	n/a	0	0	0
4049643	PROB	n/a	LTP319	ltpFR2	2	n/a	n/a	n/a	26	9	2	2	5
4051834	PROB	n/a	LTP319	ltpFR2	2	n/a	n/a	n/a	26	19	9	1	9
4053503	PROB	n/a	LTP319	ltpFR2	2	n/a	n/a	n/a	26	13	7	2	4
4055288	PROB	n/a	LTP319	ltpFR2	2	n/a	n/a	n/a	26	8	6	1	1
4056806	PROB	n/a	LTP319	ltpFR2	2	n/a	n/a	n/a	26	14	4	3	7
4058641	PROB	n/a	LTP319	ltpFR2	2	n/a	n/a	n/a	26	20	3	9	8
4060609	PROB	n/a	LTP319	ltpFR2	2	n/a	n/a	n/a	26	21	9	7	5
4062676	PROB	n/a	LTP319	ltpFR2	2	n/a	n/a	n/a	26	9	1	3	5
4064160	PROB	n/a	LTP319	ltpFR2	2	n/a	n/a	n/a	26	17	8	8	1
4066648	PROB	n/a	LTP319	ltpFR2	2	n/a	n/a	n/a	26	24	6	9	9
4069282	PROB	n/a	LTP319	ltpFR2	2	n/a	n/a	n/a	26	8	1	3	4
4072709	STOP	n/a	LTP319	ltpFR2	2	n/a	n/a	n/a	26	n/a	n/a	n/a	n/a
4074587	REC_START	n/a	LTP319	ltpFR2	2	18	n/a	n/a	n/a	n/a	0	0	0
4075644	REC_WORD	wordpools/wasnorm_wordpool_576.txt	LTP319	ltpFR2	2	18	KNIFE	785	n/a	n/a	0	0	0
4076836	REC_WORD	wordpools/wasnorm_wordpool_576.txt	LTP319	ltpFR2	2	18	SCALPEL	1243	n/a	n/a	0	0	0
4078349	REC_WORD	wordpools/wasnorm_wordpool_576.txt	LTP319	ltpFR2	2	18	GLASS	639	n/a	n/a	0	0	0
4080009	REC_WORD	wordpools/wasnorm_wordpool_576.txt	LTP319	ltpFR2	2	18	FRAME	600	n/a	n/a	0	0	0
4084697	REC_WORD	wordpools/wasnorm_wordpool_576.txt	LTP319	ltpFR2	2	18	CITRUS	313	n/a	n/a	0	0	0
4165043	DISTRACTOR	n/a	LTP319	ltpFR2	2	19	n/a	n/a	n/a	n/a	0	0	0
4165043	START	n/a	LTP319	ltpFR2	2	n/a	n/a	n/a	27	n/a	n/a	n/a	n/a
4165058	PROB	n/a	LTP319	ltpFR2	2	n/a	n/a	n/a	27	15	3	4	8
4167126	PROB	n/a	LTP319	ltpFR2	2	n/a	n/a	n/a	27	9	3	1	5
4168645	PROB	n/a	LTP319	ltpFR2	2	n/a	n/a	n/a	27	11	1	6	4
4170347	PROB	n/a	LTP319	ltpFR2	2	n/a	n/a	n/a	27	21	7	8	6
4173199	PROB	n/a	LTP319	ltpFR2	2	n/a	n/a	n/a	27	19	9	9	1
4175601	PROB	n/a	LTP319	ltpFR2	2	n/a	n/a	n/a	27	11	1	5	5
4176934	PROB	n/a	LTP319	ltpFR2	2	n/a	n/a	n/a	27	18	9	1	8
4178570	PROB	n/a	LTP319	ltpFR2	2	n/a	n/a	n/a	27	13	3	6	4
4180422	PROB	n/a	LTP319	ltpFR2	2	n/a	n/a	n/a	27	13	4	6	3
4182004	PROB	n/a	LTP319	ltpFR2	2	n/a	n/a	n/a	27	15	2	9	3
4183957	PROB	n/a	LTP319	ltpFR2	2	n/a	n/a	n/a	27	21	5	7	9
4189043	STOP	n/a	LTP319	ltpFR2	2	n/a	n/a	n/a	27	n/a	n/a	n/a	n/a
4189945	WORD	wordpools/wasnorm_wordpool_576.txt	LTP319	ltpFR2	2	19	COUNTRY	388	n/a	n/a	0	0	0
4192482	WORD	wordpools/wasnorm_wordpool_576.txt	LTP319	ltpFR2	2	19	CHEST	295	n/a	n/a	0	0	0
4195216	WORD	wordpools/wasnorm_wordpool_576.txt	LTP319	ltpFR2	2	19	PIGEON	1065	n/a	n/a	0	0	0
4197852	WORD	wordpools/wasnorm_wordpool_576.txt	LTP319	ltpFR2	2	19	ISLAND	745	n/a	n/a	0	0	0
4200288	WORD	wordpools/wasnorm_wordpool_576.txt	LTP319	ltpFR2	2	19	VELVET	1555	n/a	n/a	0	0	0
4202789	WORD	wordpools/wasnorm_wordpool_576.txt	LTP319	ltpFR2	2	19	SUNRISE	1407	n/a	n/a	0	0	0
4205426	WORD	wordpools/wasnorm_wordpool_576.txt	LTP319	ltpFR2	2	19	BREAST	171	n/a	n/a	0	0	0
4208147	WORD	wordpools/wasnorm_wordpool_576.txt	LTP319	ltpFR2	2	19	PLAZA	1088	n/a	n/a	0	0	0
4210930	WORD	wordpools/wasnorm_wordpool_576.txt	LTP319	ltpFR2	2	19	MARKET	871	n/a	n/a	0	0	0
4213666	WORD	wordpools/wasnorm_wordpool_576.txt	LTP319	ltpFR2	2	19	MUMMY	932	n/a	n/a	0	0	0
4216306	WORD	wordpools/wasnorm_wordpool_576.txt	LTP319	ltpFR2	2	19	GARBAGE	622	n/a	n/a	0	0	0
4218985	WORD	wordpools/wasnorm_wordpool_576.txt	LTP319	ltpFR2	2	19	KNAPSACK	783	n/a	n/a	0	0	0
4221455	WORD	wordpools/wasnorm_wordpool_576.txt	LTP319	ltpFR2	2	19	RUG	1215	n/a	n/a	0	0	0
4223894	WORD	wordpools/wasnorm_wordpool_576.txt	LTP319	ltpFR2	2	19	GROUND	666	n/a	n/a	0	0	0
4226691	WORD	wordpools/wasnorm_wordpool_576.txt	LTP319	ltpFR2	2	19	BARREL	91	n/a	n/a	0	0	0
4229295	WORD	wordpools/wasnorm_wordpool_576.txt	LTP319	ltpFR2	2	19	WHISKERS	1605	n/a	n/a	0	0	0
4231763	WORD	wordpools/wasnorm_wordpool_576.txt	LTP319	ltpFR2	2	19	OUTFIT	988	n/a	n/a	0	0	0
4234532	WORD	wordpools/wasnorm_wordpool_576.txt	LTP319	ltpFR2	2	19	LONDON	843	n/a	n/a	0	0	0
4236999	WORD	wordpools/wasnorm_wordpool_576.txt	LTP319	ltpFR2	2	19	GHETTO	633	n/a	n/a	0	0	0
4239470	WORD	wordpools/wasnorm_wordpool_576.txt	LTP319	ltpFR2	2	19	ULCER	1533	n/a	n/a	0	0	0
4241920	WORD	wordpools/wasnorm_wordpool_576.txt	LTP319	ltpFR2	2	19	UNCLE	1536	n/a	n/a	0	0	0
4244706	WORD	wordpools/wasnorm_wordpool_576.txt	LTP319	ltpFR2	2	19	ROOSTER	1209	n/a	n/a	0	0	0
4247383	WORD	wordpools/wasnorm_wordpool_576.txt	LTP319	ltpFR2	2	19	COOKBOOK	373	n/a	n/a	0	0	0
4250017	WORD	wordpools/wasnorm_wordpool_576.txt	LTP319	ltpFR2	2	19	EMPIRE	530	n/a	n/a	0	0	0
4251631	START	n/a	LTP319	ltpFR2	2	n/a	n/a	n/a	28	n/a	n/a	n/a	n/a
4252562	DISTRACTOR	n/a	LTP319	ltpFR2	2	19	n/a	n/a	n/a	n/a	0	0	0
4252571	PROB	n/a	LTP319	ltpFR2	2	n/a	n/a	n/a	28	12	3	8	1
4255431	PROB	n/a	LTP319	ltpFR2	2	n/a	n/a	n/a	28	17	3	9	5
4257267	PROB	n/a	LTP319	ltpFR2	2	n/a	n/a	n/a	28	9	3	5	1
4259817	PROB	n/a	LTP319	ltpFR2	2	n/a	n/a	n/a	28	15	8	5	2
4262987	PROB	n/a	LTP319	ltpFR2	2	n/a	n/a	n/a	28	21	5	7	9
4266123	PROB	n/a	LTP319	ltpFR2	2	n/a	n/a	n/a	28	13	4	2	5
4268326	PROB	n/a	LTP319	ltpFR2	2	n/a	n/a	n/a	28	10	5	4	1
4270809	PROB	n/a	LTP319	ltpFR2	2	n/a	n/a	n/a	28	24	9	5	9
4274682	STOP	n/a	LTP319	ltpFR2	2	n/a	n/a	n/a	28	n/a	n/a	n/a	n/a
4277499	REC_START	n/a	LTP319	ltpFR2	2	19	n/a	n/a	n/a	n/a	0	0	0
4278834	REC_WORD	wordpools/wasnorm_wordpool_576.txt	LTP319	ltpFR2	2	19	UNCLE	1536	n/a	n/a	0	0	0
4281076	REC_WORD	wordpools/wasnorm_wordpool_576.txt	LTP319	ltpFR2	2	19	ULCER	1533	n/a	n/a	0	0	0
4367954	DISTRACTOR	n/a	LTP319	ltpFR2	2	20	n/a	n/a	n/a	n/a	0	0	0
4367954	START	n/a	LTP319	ltpFR2	2	n/a	n/a	n/a	29	n/a	n/a	n/a	n/a
4367972	PROB	n/a	LTP319	ltpFR2	2	n/a	n/a	n/a	29	10	2	6	2
4370988	PROB	n/a	LTP319	ltpFR2	2	n/a	n/a	n/a	29	21	5	8	9
4374295	PROB	n/a	LTP319	ltpFR2	2	n/a	n/a	n/a	29	14	3	3	8
4378163	PROB	n/a	LTP319	ltpFR2	2	n/a	n/a	n/a	29	21	7	5	9
4380548	PROB	n/a	LTP319	ltpFR2	2	n/a	n/a	n/a	29	10	1	4	5
4382284	PROB	n/a	LTP319	ltpFR2	2	n/a	n/a	n/a	29	18	8	9	1
4384184	PROB	n/a	LTP319	ltpFR2	2	n/a	n/a	n/a	29	18	7	7	4
4386238	PROB	n/a	LTP319	ltpFR2	2	n/a	n/a	n/a	29	9	3	4	1
4388122	PROB	n/a	LTP319	ltpFR2	2	n/a	n/a	n/a	29	12	8	3	1
4390839	STOP	n/a	LTP319	ltpFR2	2	n/a	n/a	n/a	29	n/a	n/a	n/a	n/a
4393008	WORD	wordpools/wasnorm_wordpool_576.txt	LTP319	ltpFR2	2	20	MASK	876	n/a	n/a	0	0	0
4395761	WORD	wordpools/wasnorm_wordpool_576.txt	LTP319	ltpFR2	2	20	TWEEZERS	1526	n/a	n/a	0	0	0
4398230	WORD	wordpools/wasnorm_wordpool_576.txt	LTP319	ltpFR2	2	20	INMATE	738	n/a	n/a	0	0	0
4400798	WORD	wordpools/wasnorm_wordpool_576.txt	LTP319	ltpFR2	2	20	AWARD	63	n/a	n/a	0	0	0
4403401	WORD	wordpools/wasnorm_wordpool_576.txt	LTP319	ltpFR2	2	20	SPONGE	1355	n/a	n/a	0	0	0
4406103	WORD	wordpools/wasnorm_wordpool_576.txt	LTP319	ltpFR2	2	20	SAUSAGE	1238	n/a	n/a	0	0	0
4408704	WORD	wordpools/wasnorm_wordpool_576.txt	LTP319	ltpFR2	2	20	PACKAGE	997	n/a	n/a	0	0	0
4411441	WORD	wordpools/wasnorm_wordpool_576.txt	LTP319	ltpFR2	2	20	GIFT	635	n/a	n/a	0	0	0
4414159	WORD	wordpools/wasnorm_wordpool_576.txt	LTP319	ltpFR2	2	20	GRIZZLY	662	n/a	n/a	0	0	0
4416629	WORD	wordpools/wasnorm_wordpool_576.txt	LTP319	ltpFR2	2	20	EAGLE	512	n/a	n/a	0	0	0
4419314	WORD	wordpools/wasnorm_wordpool_576.txt	LTP319	ltpFR2	2	20	CAPTIVE	240	n/a	n/a	0	0	0
4422148	WORD	wordpools/wasnorm_wordpool_576.txt	LTP319	ltpFR2	2	20	PUDDING	1139	n/a	n/a	0	0	0
4424734	WORD	wordpools/wasnorm_wordpool_576.txt	LTP319	ltpFR2	2	20	CUPBOARD	425	n/a	n/a	0	0	0
4427487	WORD	wordpools/wasnorm_wordpool_576.txt	LTP319	ltpFR2	2	20	DUSTPAN	509	n/a	n/a	0	0	0
4429972	WORD	wordpools/wasnorm_wordpool_576.txt	LTP319	ltpFR2	2	20	DUST	508	n/a	n/a	0	0	0
4432592	WORD	wordpools/wasnorm_wordpool_576.txt	LTP319	ltpFR2	2	20	RECEIPT	1173	n/a	n/a	0	0	0
4435376	WORD	wordpools/wasnorm_wordpool_576.txt	LTP319	ltpFR2	2	20	DRESSER	496	n/a	n/a	0	0	0
4437930	WORD	wordpools/wasnorm_wordpool_576.txt	LTP319	ltpFR2	2	20	NAPKIN	937	n/a	n/a	0	0	0
4440697	WORD	wordpools/wasnorm_wordpool_576.txt	LTP319	ltpFR2	2	20	SUMMIT	1405	n/a	n/a	0	0	0
4443383	WORD	wordpools/wasnorm_wordpool_576.txt	LTP319	ltpFR2	2	20	ACTRESS	6	n/a	n/a	0	0	0
4445871	WORD	wordpools/wasnorm_wordpool_576.txt	LTP319	ltpFR2	2	20	DENTIST	447	n/a	n/a	0	0	0
4448487	WORD	wordpools/wasnorm_wordpool_576.txt	LTP319	ltpFR2	2	20	MEAT	883	n/a	n/a	0	0	0
4451240	WORD	wordpools/wasnorm_wordpool_576.txt	LTP319	ltpFR2	2	20	UMPIRE	1535	n/a	n/a	0	0	0
4453811	WORD	wordpools/wasnorm_wordpool_576.txt	LTP319	ltpFR2	2	20	PROTON	1132	n/a	n/a	0	0	0
4455427	START	n/a	LTP319	ltpFR2	2	n/a	n/a	n/a	30	n/a	n/a	n/a	n/a
4456300	DISTRACTOR	n/a	LTP319	ltpFR2	2	20	n/a	n/a	n/a	n/a	0	0	0
4456311	PROB	n/a	LTP319	ltpFR2	2	n/a	n/a	n/a	30	14	2	9	3
4460330	PROB	n/a	LTP319	ltpFR2	2	n/a	n/a	n/a	30	19	8	3	8
4463931	PROB	n/a	LTP319	ltpFR2	2	n/a	n/a	n/a	30	10	4	1	5
4466451	PROB	n/a	LTP319	ltpFR2	2	n/a	n/a	n/a	30	15	2	8	5
4468017	PROB	n/a	LTP319	ltpFR2	2	n/a	n/a	n/a	30	16	5	7	4
4470987	PROB	n/a	LTP319	ltpFR2	2	n/a	n/a	n/a	30	18	8	3	7
4473756	PROB	n/a	LTP319	ltpFR2	2	n/a	n/a	n/a	30	18	3	9	6
4476426	PROB	n/a	LTP319	ltpFR2	2	n/a	n/a	n/a	30	18	3	8	7
4479323	STOP	n/a	LTP319	ltpFR2	2	n/a	n/a	n/a	30	n/a	n/a	n/a	n/a
4481196	REC_START	n/a	LTP319	ltpFR2	2	20	n/a	n/a	n/a	n/a	0	0	0
4507437	REC_WORD	wordpools/wasnorm_wordpool_576.txt	LTP319	ltpFR2	2	20	PROTON	1132	n/a	n/a	0	0	0
4512240	REC_WORD	wordpools/wasnorm_wordpool_576.txt	LTP319	ltpFR2	2	20	EMPIRE	530	n/a	n/a	0	0	0
4571630	WORD	wordpools/wasnorm_wordpool_576.txt	LTP319	ltpFR2	2	21	BEAVER	109	n/a	n/a	0	0	0
4574182	WORD	wordpools/wasnorm_wordpool_576.txt	LTP319	ltpFR2	2	21	JUDGE	761	n/a	n/a	0	0	0
4576822	WORD	wordpools/wasnorm_wordpool_576.txt	LTP319	ltpFR2	2	21	WITNESS	1618	n/a	n/a	0	0	0
4579525	WORD	wordpools/wasnorm_wordpool_576.txt	LTP319	ltpFR2	2	21	FOOT	590	n/a	n/a	0	0	0
4582327	WORD	wordpools/wasnorm_wordpool_576.txt	LTP319	ltpFR2	2	21	IGLOO	734	n/a	n/a	0	0	0
4584808	WORD	wordpools/wasnorm_wordpool_576.txt	LTP319	ltpFR2	2	21	INFANT	737	n/a	n/a	0	0	0
4587462	WORD	wordpools/wasnorm_wordpool_576.txt	LTP319	ltpFR2	2	21	VALLEY	1545	n/a	n/a	0	0	0
4590264	WORD	wordpools/wasnorm_wordpool_576.txt	LTP319	ltpFR2	2	21	PERFUME	1049	n/a	n/a	0	0	0
4592749	WORD	wordpools/wasnorm_wordpool_576.txt	LTP319	ltpFR2	2	21	POCKET	1093	n/a	n/a	0	0	0
4595553	WORD	wordpools/wasnorm_wordpool_576.txt	LTP319	ltpFR2	2	21	RATTLE	1170	n/a	n/a	0	0	0
4597987	WORD	wordpools/wasnorm_wordpool_576.txt	LTP319	ltpFR2	2	21	TURTLE	1522	n/a	n/a	0	0	0
4600506	WORD	wordpools/wasnorm_wordpool_576.txt	LTP319	ltpFR2	2	21	BRICK	172	n/a	n/a	0	0	0
4603041	WORD	wordpools/wasnorm_wordpool_576.txt	LTP319	ltpFR2	2	21	CANYON	235	n/a	n/a	0	0	0
4605760	WORD	wordpools/wasnorm_wordpool_576.txt	LTP319	ltpFR2	2	21	CONCERT	360	n/a	n/a	0	0	0
4608396	WORD	wordpools/wasnorm_wordpool_576.txt	LTP319	ltpFR2	2	21	SCISSORS	1250	n/a	n/a	0	0	0
4611081	WORD	wordpools/wasnorm_wordpool_576.txt	LTP319	ltpFR2	2	21	OINTMENT	974	n/a	n/a	0	0	0
4613801	WORD	wordpools/wasnorm_wordpool_576.txt	LTP319	ltpFR2	2	21	YARN	1631	n/a	n/a	0	0	0
4616338	WORD	wordpools/wasnorm_wordpool_576.txt	LTP319	ltpFR2	2	21	MONEY	908	n/a	n/a	0	0	0
4619072	WORD	wordpools/wasnorm_wordpool_576.txt	LTP319	ltpFR2	2	21	PLAID	1080	n/a	n/a	0	0	0
4621509	WORD	wordpools/wasnorm_wordpool_576.txt	LTP319	ltpFR2	2	21	DENIM	446	n/a	n/a	0	0	0
4624159	WORD	wordpools/wasnorm_wordpool_576.txt	LTP319	ltpFR2	2	21	WRENCH	1625	n/a	n/a	0	0	0
4626895	WORD	wordpools/wasnorm_wordpool_576.txt	LTP319	ltpFR2	2	21	BUNNY	198	n/a	n/a	0	0	0
4629431	WORD	wordpools/wasnorm_wordpool_576.txt	LTP319	ltpFR2	2	21	SALAD	1224	n/a	n/a	0	0	0
4631949	WORD	wordpools/wasnorm_wordpool_576.txt	LTP319	ltpFR2	2	21	JUNGLE	764	n/a	n/a	0	0	0
4633569	START	n/a	LTP319	ltpFR2	2	n/a	n/a	n/a	31	n/a	n/a	n/a	n/a
4634439	DISTRACTOR	n/a	LTP319	ltpFR2	2	21	n/a	n/a	n/a	n/a	0	0	0
4634453	PROB	n/a	LTP319	ltpFR2	2	n/a	n/a	n/a	31	21	7	5	9
4638021	PROB	n/a	LTP319	ltpFR2	2	n/a	n/a	n/a	31	13	7	4	2
4641240	PROB	n/a	LTP319	ltpFR2	2	n/a	n/a	n/a	31	16	7	2	5
4643360	PROB	n/a	LTP319	ltpFR2	2	n/a	n/a	n/a	31	14	3	6	5
4646210	PROB	n/a	LTP319	ltpFR2	2	n/a	n/a	n/a	31	18	6	4	8
4647929	PROB	n/a	LTP319	ltpFR2	2	n/a	n/a	n/a	31	9	1	3	5
4650265	PROB	n/a	LTP319	ltpFR2	2	n/a	n/a	n/a	31	19	7	6	6
4653952	PROB	n/a	LTP319	ltpFR2	2	n/a	n/a	n/a	31	16	7	7	2
4656929	STOP	n/a	LTP319	ltpFR2	2	n/a	n/a	n/a	31	n/a	n/a	n/a	n/a
4659372	REC_START	n/a	LTP319	ltpFR2	2	21	n/a	n/a	n/a	n/a	0	0	0
4661866	REC_WORD	wordpools/wasnorm_wordpool_576.txt	LTP319	ltpFR2	2	21	BEAVER	109	n/a	n/a	0	0	0
4664694	REC_WORD	wordpools/wasnorm_wordpool_576.txt	LTP319	ltpFR2	2	21	JUDGE	761	n/a	n/a	0	0	0
4666803	REC_WORD	wordpools/wasnorm_wordpool_576.txt	LTP319	ltpFR2	2	21	WITNESS	1618	n/a	n/a	0	0	0
4667803	REC_WORD_VV	wordpools/wasnorm_wordpool_576.txt	LTP319	ltpFR2	2	21	<>	-1	n/a	n/a	0	0	0
4749810	WORD	wordpools/wasnorm_wordpool_576.txt	LTP319	ltpFR2	2	22	TORTOISE	1486	n/a	n/a	0	0	0
4752255	WORD	wordpools/wasnorm_wordpool_576.txt	LTP319	ltpFR2	2	22	DRAGON	492	n/a	n/a	0	0	0
4754699	WORD	wordpools/wasnorm_wordpool_576.txt	LTP319	ltpFR2	2	22	CHEMIST	292	n/a	n/a	0	0	0
4757409	WORD	wordpools/wasnorm_wordpool_576.txt	LTP319	ltpFR2	2	22	SWITCH	1422	n/a	n/a	0	0	0
4760095	WORD	wordpools/wasnorm_wordpool_576.txt	LTP319	ltpFR2	2	22	TUNNEL	1519	n/a	n/a	0	0	0
4762705	WORD	wordpools/wasnorm_wordpool_576.txt	LTP319	ltpFR2	2	22	DORM	488	n/a	n/a	0	0	0
4765325	WORD	wordpools/wasnorm_wordpool_576.txt	LTP319	ltpFR2	2	22	BOUQUET	157	n/a	n/a	0	0	0
4768068	WORD	wordpools/wasnorm_wordpool_576.txt	LTP319	ltpFR2	2	22	BANQUET	86	n/a	n/a	0	0	0
4770638	WORD	wordpools/wasnorm_wordpool_576.txt	LTP319	ltpFR2	2	22	SKIRT	1319	n/a	n/a	0	0	0
4773323	WORD	wordpools/wasnorm_wordpool_576.txt	LTP319	ltpFR2	2	22	SHIRT	1287	n/a	n/a	0	0	0
4776125	WORD	wordpools/wasnorm_wordpool_576.txt	LTP319	ltpFR2	2	22	SALMON	1227	n/a	n/a	0	0	0
4778668	WORD	wordpools/wasnorm_wordpool_576.txt	LTP319	ltpFR2	2	22	CARROT	249	n/a	n/a	0	0	0
4781414	WORD	wordpools/wasnorm_wordpool_576.txt	LTP319	ltpFR2	2	22	RADISH	1158	n/a	n/a	0	0	0
4784083	WORD	wordpools/wasnorm_wordpool_576.txt	LTP319	ltpFR2	2	22	FIREMAN	569	n/a	n/a	0	0	0
4786808	WORD	wordpools/wasnorm_wordpool_576.txt	LTP319	ltpFR2	2	22	HAWK	692	n/a	n/a	0	0	0
4789378	WORD	wordpools/wasnorm_wordpool_576.txt	LTP319	ltpFR2	2	22	PASSAGE	1019	n/a	n/a	0	0	0
4792179	WORD	wordpools/wasnorm_wordpool_576.txt	LTP319	ltpFR2	2	22	THRONE	1461	n/a	n/a	0	0	0
4794947	WORD	wordpools/wasnorm_wordpool_576.txt	LTP319	ltpFR2	2	22	TWISTER	1530	n/a	n/a	0	0	0
4797544	WORD	wordpools/wasnorm_wordpool_576.txt	LTP319	ltpFR2	2	22	HAMPER	682	n/a	n/a	0	0	0
4800134	WORD	wordpools/wasnorm_wordpool_576.txt	LTP319	ltpFR2	2	22	PRINCESS	1125	n/a	n/a	0	0	0
4802849	WORD	wordpools/wasnorm_wordpool_576.txt	LTP319	ltpFR2	2	22	MAILMAN	858	n/a	n/a	0	0	0
4805286	WORD	wordpools/wasnorm_wordpool_576.txt	LTP319	ltpFR2	2	22	FINGER	567	n/a	n/a	0	0	0
4807702	WORD	wordpools/wasnorm_wordpool_576.txt	LTP319	ltpFR2	2	22	TURNIP	1521	n/a	n/a	0	0	0
4810356	WORD	wordpools/wasnorm_wordpool_576.txt	LTP319	ltpFR2	2	22	LAGOON	795	n/a	n/a	0	0	0
4811962	START	n/a	LTP319	ltpFR2	2	n/a	n/a	n/a	32	n/a	n/a	n/a	n/a
4812785	DISTRACTOR	n/a	LTP319	ltpFR2	2	22	n/a	n/a	n/a	n/a	0	0	0
4812791	PROB	n/a	LTP319	ltpFR2	2	n/a	n/a	n/a	32	11	4	4	3
4818799	PROB	n/a	LTP319	ltpFR2	2	n/a	n/a	n/a	32	10	2	6	2
4820652	PROB	n/a	LTP319	ltpFR2	2	n/a	n/a	n/a	32	11	4	2	5
4822532	PROB	n/a	LTP319	ltpFR2	2	n/a	n/a	n/a	32	19	3	8	8
4824721	PROB	n/a	LTP319	ltpFR2	2	n/a	n/a	n/a	32	16	6	1	9
4826823	PROB	n/a	LTP319	ltpFR2	2	n/a	n/a	n/a	32	12	2	7	3
4829057	PROB	n/a	LTP319	ltpFR2	2	n/a	n/a	n/a	32	18	9	1	8
4830658	PROB	n/a	LTP319	ltpFR2	2	n/a	n/a	n/a	32	11	3	6	2
4833010	PROB	n/a	LTP319	ltpFR2	2	n/a	n/a	n/a	32	13	2	9	2
4835513	STOP	n/a	LTP319	ltpFR2	2	n/a	n/a	n/a	32	n/a	n/a	n/a	n/a
4837897	REC_START	n/a	LTP319	ltpFR2	2	22	n/a	n/a	n/a	n/a	0	0	0
4839247	REC_WORD	wordpools/wasnorm_wordpool_576.txt	LTP319	ltpFR2	2	22	TORTOISE	1486	n/a	n/a	0	0	0
4842937	REC_WORD	wordpools/wasnorm_wordpool_576.txt	LTP319	ltpFR2	2	22	DRAGON	492	n/a	n/a	0	0	0
4850192	REC_WORD	wordpools/wasnorm_wordpool_576.txt	LTP319	ltpFR2	2	22	HAMPER	682	n/a	n/a	0	0	0
4852154	REC_WORD	wordpools/wasnorm_wordpool_576.txt	LTP319	ltpFR2	2	22	MAILMAN	858	n/a	n/a	0	0	0
4860859	REC_WORD	wordpools/wasnorm_wordpool_576.txt	LTP319	ltpFR2	2	22	TORTOISE	1486	n/a	n/a	0	0	0
4865765	REC_WORD	wordpools/wasnorm_wordpool_576.txt	LTP319	ltpFR2	2	22	PRINCESS	1125	n/a	n/a	0	0	0
4866765	REC_WORD_VV	wordpools/wasnorm_wordpool_576.txt	LTP319	ltpFR2	2	22	<>	-1	n/a	n/a	0	0	0
4928327	DISTRACTOR	n/a	LTP319	ltpFR2	2	23	n/a	n/a	n/a	n/a	0	0	0
4928327	START	n/a	LTP319	ltpFR2	2	n/a	n/a	n/a	33	n/a	n/a	n/a	n/a
4928341	PROB	n/a	LTP319	ltpFR2	2	n/a	n/a	n/a	33	15	5	1	9
4929904	PROB	n/a	LTP319	ltpFR2	2	n/a	n/a	n/a	33	13	4	6	3
4932074	PROB	n/a	LTP319	ltpFR2	2	n/a	n/a	n/a	33	17	5	8	4
4934410	PROB	n/a	LTP319	ltpFR2	2	n/a	n/a	n/a	33	16	6	2	8
4936310	PROB	n/a	LTP319	ltpFR2	2	n/a	n/a	n/a	33	13	3	2	8
4939330	PROB	n/a	LTP319	ltpFR2	2	n/a	n/a	n/a	33	17	6	9	2
4941948	PROB	n/a	LTP319	ltpFR2	2	n/a	n/a	n/a	33	11	6	4	1
4943666	PROB	n/a	LTP319	ltpFR2	2	n/a	n/a	n/a	33	12	2	5	5
4945167	PROB	n/a	LTP319	ltpFR2	2	n/a	n/a	n/a	33	14	7	2	5
4946802	PROB	n/a	LTP319	ltpFR2	2	n/a	n/a	n/a	33	16	9	2	5
4950389	PROB	n/a	LTP319	ltpFR2	2	n/a	n/a	n/a	33	21	7	8	6
4952310	STOP	n/a	LTP319	ltpFR2	2	n/a	n/a	n/a	33	n/a	n/a	n/a	n/a
4953359	WORD	wordpools/wasnorm_wordpool_576.txt	LTP319	ltpFR2	2	23	RUST	1219	n/a	n/a	0	0	0
4955982	WORD	wordpools/wasnorm_wordpool_576.txt	LTP319	ltpFR2	2	23	GAZELLE	628	n/a	n/a	0	0	0
4958452	WORD	wordpools/wasnorm_wordpool_576.txt	LTP319	ltpFR2	2	23	ANTLER	29	n/a	n/a	0	0	0
4960997	WORD	wordpools/wasnorm_wordpool_576.txt	LTP319	ltpFR2	2	23	TROMBONE	1508	n/a	n/a	0	0	0
4963467	WORD	wordpools/wasnorm_wordpool_576.txt	LTP319	ltpFR2	2	23	TRENCH	1503	n/a	n/a	0	0	0
4965973	WORD	wordpools/wasnorm_wordpool_576.txt	LTP319	ltpFR2	2	23	PORK	1108	n/a	n/a	0	0	0
4968720	WORD	wordpools/wasnorm_wordpool_576.txt	LTP319	ltpFR2	2	23	FARMER	553	n/a	n/a	0	0	0
4971440	WORD	wordpools/wasnorm_wordpool_576.txt	LTP319	ltpFR2	2	23	NOMAD	955	n/a	n/a	0	0	0
4973991	WORD	wordpools/wasnorm_wordpool_576.txt	LTP319	ltpFR2	2	23	GAVEL	627	n/a	n/a	0	0	0
4976450	WORD	wordpools/wasnorm_wordpool_576.txt	LTP319	ltpFR2	2	23	CLIMBER	323	n/a	n/a	0	0	0
4978945	WORD	wordpools/wasnorm_wordpool_576.txt	LTP319	ltpFR2	2	23	DAUGHTER	442	n/a	n/a	0	0	0
4981405	WORD	wordpools/wasnorm_wordpool_576.txt	LTP319	ltpFR2	2	23	FIDDLE	561	n/a	n/a	0	0	0
4983973	WORD	wordpools/wasnorm_wordpool_576.txt	LTP319	ltpFR2	2	23	CAMEL	223	n/a	n/a	0	0	0
4986526	WORD	wordpools/wasnorm_wordpool_576.txt	LTP319	ltpFR2	2	23	ROBOT	1200	n/a	n/a	0	0	0
4989160	WORD	wordpools/wasnorm_wordpool_576.txt	LTP319	ltpFR2	2	23	PEBBLE	1035	n/a	n/a	0	0	0
4991963	WORD	wordpools/wasnorm_wordpool_576.txt	LTP319	ltpFR2	2	23	TRACTOR	1493	n/a	n/a	0	0	0
4994416	WORD	wordpools/wasnorm_wordpool_576.txt	LTP319	ltpFR2	2	23	STREAM	1392	n/a	n/a	0	0	0
4997184	WORD	wordpools/wasnorm_wordpool_576.txt	LTP319	ltpFR2	2	23	COD	340	n/a	n/a	0	0	0
4999605	WORD	wordpools/wasnorm_wordpool_576.txt	LTP319	ltpFR2	2	23	FLIPPER	580	n/a	n/a	0	0	0
5002348	WORD	wordpools/wasnorm_wordpool_576.txt	LTP319	ltpFR2	2	23	BALLOON	75	n/a	n/a	0	0	0
5005074	WORD	wordpools/wasnorm_wordpool_576.txt	LTP319	ltpFR2	2	23	SODA	1341	n/a	n/a	0	0	0
5007595	WORD	wordpools/wasnorm_wordpool_576.txt	LTP319	ltpFR2	2	23	PARROT	1015	n/a	n/a	0	0	0
5010119	WORD	wordpools/wasnorm_wordpool_576.txt	LTP319	ltpFR2	2	23	HORSE	719	n/a	n/a	0	0	0
5012888	WORD	wordpools/wasnorm_wordpool_576.txt	LTP319	ltpFR2	2	23	HIKER	708	n/a	n/a	0	0	0
5014501	START	n/a	LTP319	ltpFR2	2	n/a	n/a	n/a	34	n/a	n/a	n/a	n/a
5015522	DISTRACTOR	n/a	LTP319	ltpFR2	2	23	n/a	n/a	n/a	n/a	0	0	0
5015534	PROB	n/a	LTP319	ltpFR2	2	n/a	n/a	n/a	34	23	7	9	7
5019177	PROB	n/a	LTP319	ltpFR2	2	n/a	n/a	n/a	34	19	8	7	4
5021263	PROB	n/a	LTP319	ltpFR2	2	n/a	n/a	n/a	34	17	7	6	4
5022897	PROB	n/a	LTP319	ltpFR2	2	n/a	n/a	n/a	34	10	2	7	1
5024731	PROB	n/a	LTP319	ltpFR2	2	n/a	n/a	n/a	34	18	1	9	8
5026183	PROB	n/a	LTP319	ltpFR2	2	n/a	n/a	n/a	34	11	1	3	7
5028202	PROB	n/a	LTP319	ltpFR2	2	n/a	n/a	n/a	34	9	4	4	1
5029951	PROB	n/a	LTP319	ltpFR2	2	n/a	n/a	n/a	34	16	7	3	6
5031522	PROB	n/a	LTP319	ltpFR2	2	n/a	n/a	n/a	34	16	2	4	9
5034222	PROB	n/a	LTP319	ltpFR2	2	n/a	n/a	n/a	34	27	9	9	9
5038501	STOP	n/a	LTP319	ltpFR2	2	n/a	n/a	n/a	34	n/a	n/a	n/a	n/a
5040412	REC_START	n/a	LTP319	ltpFR2	2	23	n/a	n/a	n/a	n/a	0	0	0
5041551	REC_WORD	wordpools/wasnorm_wordpool_576.txt	LTP319	ltpFR2	2	23	ANTLER	29	n/a	n/a	0	0	0
5042523	REC_WORD	wordpools/wasnorm_wordpool_576.txt	LTP319	ltpFR2	2	23	GAZELLE	628	n/a	n/a	0	0	0
5043985	REC_WORD	wordpools/wasnorm_wordpool_576.txt	LTP319	ltpFR2	2	23	TRENCH	1503	n/a	n/a	0	0	0
5045330	REC_WORD	wordpools/wasnorm_wordpool_576.txt	LTP319	ltpFR2	2	23	PARROT	1015	n/a	n/a	0	0	0
5048978	REC_WORD	wordpools/wasnorm_wordpool_576.txt	LTP319	ltpFR2	2	23	COD	340	n/a	n/a	0	0	0
5130867	DISTRACTOR	n/a	LTP319	ltpFR2	2	24	n/a	n/a	n/a	n/a	0	0	0
5130867	START	n/a	LTP319	ltpFR2	2	n/a	n/a	n/a	35	n/a	n/a	n/a	n/a
5130882	PROB	n/a	LTP319	ltpFR2	2	n/a	n/a	n/a	35	18	3	8	7
5132834	PROB	n/a	LTP319	ltpFR2	2	n/a	n/a	n/a	35	14	6	2	6
5135085	PROB	n/a	LTP319	ltpFR2	2	n/a	n/a	n/a	35	21	6	6	9
5137755	PROB	n/a	LTP319	ltpFR2	2	n/a	n/a	n/a	35	15	6	2	7
5139990	PROB	n/a	LTP319	ltpFR2	2	n/a	n/a	n/a	35	20	2	9	9
5142125	PROB	n/a	LTP319	ltpFR2	2	n/a	n/a	n/a	35	13	1	8	4
5143843	PROB	n/a	LTP319	ltpFR2	2	n/a	n/a	n/a	35	20	8	3	9
5146746	PROB	n/a	LTP319	ltpFR2	2	n/a	n/a	n/a	35	14	2	8	4
5148365	PROB	n/a	LTP319	ltpFR2	2	n/a	n/a	n/a	35	17	2	9	6
5150715	PROB	n/a	LTP319	ltpFR2	2	n/a	n/a	n/a	35	19	7	6	6
5154286	STOP	n/a	LTP319	ltpFR2	2	n/a	n/a	n/a	35	n/a	n/a	n/a	n/a
5155736	WORD	wordpools/wasnorm_wordpool_576.txt	LTP319	ltpFR2	2	24	CRITIC	410	n/a	n/a	0	0	0
5158189	WORD	wordpools/wasnorm_wordpool_576.txt	LTP319	ltpFR2	2	24	LEADER	807	n/a	n/a	0	0	0
5160924	WORD	wordpools/wasnorm_wordpool_576.txt	LTP319	ltpFR2	2	24	FREEZER	604	n/a	n/a	0	0	0
5163493	WORD	wordpools/wasnorm_wordpool_576.txt	LTP319	ltpFR2	2	24	SWAMP	1416	n/a	n/a	0	0	0
5166081	WORD	wordpools/wasnorm_wordpool_576.txt	LTP319	ltpFR2	2	24	MARSH	874	n/a	n/a	0	0	0
5168731	WORD	wordpools/wasnorm_wordpool_576.txt	LTP319	ltpFR2	2	24	SPHINX	1349	n/a	n/a	0	0	0
5171533	WORD	wordpools/wasnorm_wordpool_576.txt	LTP319	ltpFR2	2	24	MATTRESS	879	n/a	n/a	0	0	0
5174185	WORD	wordpools/wasnorm_wordpool_576.txt	LTP319	ltpFR2	2	24	BROOK	177	n/a	n/a	0	0	0
5176753	WORD	wordpools/wasnorm_wordpool_576.txt	LTP319	ltpFR2	2	24	WAGON	1578	n/a	n/a	0	0	0
5179490	WORD	wordpools/wasnorm_wordpool_576.txt	LTP319	ltpFR2	2	24	FRIEND	606	n/a	n/a	0	0	0
5181941	WORD	wordpools/wasnorm_wordpool_576.txt	LTP319	ltpFR2	2	24	BRANCH	168	n/a	n/a	0	0	0
5184381	WORD	wordpools/wasnorm_wordpool_576.txt	LTP319	ltpFR2	2	24	PEACH	1031	n/a	n/a	0	0	0
5187116	WORD	wordpools/wasnorm_wordpool_576.txt	LTP319	ltpFR2	2	24	POPCORN	1104	n/a	n/a	0	0	0
5189880	WORD	wordpools/wasnorm_wordpool_576.txt	LTP319	ltpFR2	2	24	CROSS	413	n/a	n/a	0	0	0
5192518	WORD	wordpools/wasnorm_wordpool_576.txt	LTP319	ltpFR2	2	24	HUMAN	726	n/a	n/a	0	0	0
5195236	WORD	wordpools/wasnorm_wordpool_576.txt	LTP319	ltpFR2	2	24	CABIN	211	n/a	n/a	0	0	0
5198026	WORD	wordpools/wasnorm_wordpool_576.txt	LTP319	ltpFR2	2	24	MUSTARD	935	n/a	n/a	0	0	0
5200524	WORD	wordpools/wasnorm_wordpool_576.txt	LTP319	ltpFR2	2	24	SHARK	1275	n/a	n/a	0	0	0
5203259	WORD	wordpools/wasnorm_wordpool_576.txt	LTP319	ltpFR2	2	24	LUNCH	849	n/a	n/a	0	0	0
5205977	WORD	wordpools/wasnorm_wordpool_576.txt	LTP319	ltpFR2	2	24	CAFE	216	n/a	n/a	0	0	0
5208729	WORD	wordpools/wasnorm_wordpool_576.txt	LTP319	ltpFR2	2	24	FOREHEAD	592	n/a	n/a	0	0	0
5211399	WORD	wordpools/wasnorm_wordpool_576.txt	LTP319	ltpFR2	2	24	FLOWER	584	n/a	n/a	0	0	0
5214039	WORD	wordpools/wasnorm_wordpool_576.txt	LTP319	ltpFR2	2	24	BUGGY	188	n/a	n/a	0	0	0
5216469	WORD	wordpools/wasnorm_wordpool_576.txt	LTP319	ltpFR2	2	24	SCRIBBLE	1256	n/a	n/a	0	0	0
5218077	START	n/a	LTP319	ltpFR2	2	n/a	n/a	n/a	36	n/a	n/a	n/a	n/a
5219216	DISTRACTOR	n/a	LTP319	ltpFR2	2	24	n/a	n/a	n/a	n/a	0	0	0
5219221	PROB	n/a	LTP319	ltpFR2	2	n/a	n/a	n/a	36	17	5	6	6
5221222	PROB	n/a	LTP319	ltpFR2	2	n/a	n/a	n/a	36	14	4	9	1
5222657	PROB	n/a	LTP319	ltpFR2	2	n/a	n/a	n/a	36	18	8	1	9
5224191	PROB	n/a	LTP319	ltpFR2	2	n/a	n/a	n/a	36	14	2	5	7
5226775	PROB	n/a	LTP319	ltpFR2	2	n/a	n/a	n/a	36	15	8	2	5
5228145	PROB	n/a	LTP319	ltpFR2	2	n/a	n/a	n/a	36	15	2	9	3
5230061	PROB	n/a	LTP319	ltpFR2	2	n/a	n/a	n/a	36	14	2	8	4
5232098	PROB	n/a	LTP319	ltpFR2	2	n/a	n/a	n/a	36	9	5	1	3
5233532	PROB	n/a	LTP319	ltpFR2	2	n/a	n/a	n/a	36	19	7	6	6
5235651	PROB	n/a	LTP319	ltpFR2	2	n/a	n/a	n/a	36	14	9	1	4
5237051	PROB	n/a	LTP319	ltpFR2	2	n/a	n/a	n/a	36	118	3	6	9
5239403	PROB	n/a	LTP319	ltpFR2	2	n/a	n/a	n/a	36	20	4	7	9
5241561	STOP	n/a	LTP319	ltpFR2	2	n/a	n/a	n/a	36	n/a	n/a	n/a	n/a
5243990	REC_START	n/a	LTP319	ltpFR2	2	24	n/a	n/a	n/a	n/a	0	0	0
5245835	REC_WORD	wordpools/wasnorm_wordpool_576.txt	LTP319	ltpFR2	2	24	BUGGY	188	n/a	n/a	0	0	0
5256150	REC_WORD	wordpools/wasnorm_wordpool_576.txt	LTP319	ltpFR2	2	24	SWAMP	1416	n/a	n/a	0	0	0
