onset	duration	trial_type	sample	stim_file	subject	experiment	session	trial	item_name	item_num	list	answer	test_x	test_y	test_z
289.788	n/a	SESS_START	144894	n/a	LTP312	ltpFR2	12	n/a	n/a	n/a	n/a	n/a	0	0	0
312.158	n/a	START	156079	n/a	LTP312	ltpFR2	12	n/a	n/a	n/a	-1	n/a	n/a	n/a	n/a
312.178	n/a	PROB	156089	n/a	LTP312	ltpFR2	12	n/a	n/a	n/a	-1	14	4	4	6
313.77	n/a	PROB	156885	n/a	LTP312	ltpFR2	12	n/a	n/a	n/a	-1	7	3	1	3
314.89	n/a	PROB	157445	n/a	LTP312	ltpFR2	12	n/a	n/a	n/a	-1	17	4	8	5
316.708	n/a	PROB	158354	n/a	LTP312	ltpFR2	12	n/a	n/a	n/a	-1	19	8	3	8
318.324	n/a	PROB	159162	n/a	LTP312	ltpFR2	12	n/a	n/a	n/a	-1	15	4	7	4
320.26	n/a	PROB	160130	n/a	LTP312	ltpFR2	12	n/a	n/a	n/a	-1	19	1	9	9
321.494	n/a	PROB	160747	n/a	LTP312	ltpFR2	12	n/a	n/a	n/a	-1	10	4	5	1
324.158	n/a	STOP	162079	n/a	LTP312	ltpFR2	12	n/a	n/a	n/a	-1	n/a	n/a	n/a	n/a
357.156	n/a	WORD	178578	wordpools/wasnorm_wordpool_576.txt	LTP312	ltpFR2	12	1	STUDENT	1395	n/a	n/a	0	0	0
359.776	n/a	WORD	179888	wordpools/wasnorm_wordpool_576.txt	LTP312	ltpFR2	12	1	VICTIM	1562	n/a	n/a	0	0	0
362.244	n/a	WORD	181122	wordpools/wasnorm_wordpool_576.txt	LTP312	ltpFR2	12	1	LUNCH	849	n/a	n/a	0	0	0
364.778	n/a	WORD	182389	wordpools/wasnorm_wordpool_576.txt	LTP312	ltpFR2	12	1	STOMACH	1384	n/a	n/a	0	0	0
367.398	n/a	WORD	183699	wordpools/wasnorm_wordpool_576.txt	LTP312	ltpFR2	12	1	ORCHID	982	n/a	n/a	0	0	0
369.958	n/a	WORD	184979	wordpools/wasnorm_wordpool_576.txt	LTP312	ltpFR2	12	1	BEAVER	109	n/a	n/a	0	0	0
372.746	n/a	WORD	186373	wordpools/wasnorm_wordpool_576.txt	LTP312	ltpFR2	12	1	WRENCH	1625	n/a	n/a	0	0	0
375.386	n/a	WORD	187693	wordpools/wasnorm_wordpool_576.txt	LTP312	ltpFR2	12	1	TEACHER	1440	n/a	n/a	0	0	0
378.082	n/a	WORD	189041	wordpools/wasnorm_wordpool_576.txt	LTP312	ltpFR2	12	1	PERFUME	1049	n/a	n/a	0	0	0
380.568	n/a	WORD	190284	wordpools/wasnorm_wordpool_576.txt	LTP312	ltpFR2	12	1	BLUEPRINT	142	n/a	n/a	0	0	0
383.292	n/a	WORD	191646	wordpools/wasnorm_wordpool_576.txt	LTP312	ltpFR2	12	1	FRIEND	606	n/a	n/a	0	0	0
385.962	n/a	WORD	192981	wordpools/wasnorm_wordpool_576.txt	LTP312	ltpFR2	12	1	AIRPLANE	12	n/a	n/a	0	0	0
388.612	n/a	WORD	194306	wordpools/wasnorm_wordpool_576.txt	LTP312	ltpFR2	12	1	CAPTIVE	240	n/a	n/a	0	0	0
391.384	n/a	WORD	195692	wordpools/wasnorm_wordpool_576.txt	LTP312	ltpFR2	12	1	POSTAGE	1113	n/a	n/a	0	0	0
394.12	n/a	WORD	197060	wordpools/wasnorm_wordpool_576.txt	LTP312	ltpFR2	12	1	COLLEGE	346	n/a	n/a	0	0	0
396.9	n/a	WORD	198450	wordpools/wasnorm_wordpool_576.txt	LTP312	ltpFR2	12	1	INMATE	738	n/a	n/a	0	0	0
399.552	n/a	WORD	199776	wordpools/wasnorm_wordpool_576.txt	LTP312	ltpFR2	12	1	STREAM	1392	n/a	n/a	0	0	0
402.274	n/a	WORD	201137	wordpools/wasnorm_wordpool_576.txt	LTP312	ltpFR2	12	1	SWAMP	1416	n/a	n/a	0	0	0
404.81	n/a	WORD	202405	wordpools/wasnorm_wordpool_576.txt	LTP312	ltpFR2	12	1	BANJO	82	n/a	n/a	0	0	0
407.34	n/a	WORD	203670	wordpools/wasnorm_wordpool_576.txt	LTP312	ltpFR2	12	1	CONCERT	360	n/a	n/a	0	0	0
410.128	n/a	WORD	205064	wordpools/wasnorm_wordpool_576.txt	LTP312	ltpFR2	12	1	CONVICT	371	n/a	n/a	0	0	0
412.896	n/a	WORD	206448	wordpools/wasnorm_wordpool_576.txt	LTP312	ltpFR2	12	1	SHOULDER	1294	n/a	n/a	0	0	0
415.632	n/a	WORD	207816	wordpools/wasnorm_wordpool_576.txt	LTP312	ltpFR2	12	1	BLOUSE	139	n/a	n/a	0	0	0
418.152	n/a	WORD	209076	wordpools/wasnorm_wordpool_576.txt	LTP312	ltpFR2	12	1	SALMON	1227	n/a	n/a	0	0	0
419.77	n/a	START	209885	n/a	LTP312	ltpFR2	12	n/a	n/a	n/a	1	n/a	n/a	n/a	n/a
420.952	n/a	DISTRACTOR	210476	n/a	LTP312	ltpFR2	12	1	n/a	n/a	n/a	n/a	0	0	0
420.97	n/a	PROB	210485	n/a	LTP312	ltpFR2	12	n/a	n/a	n/a	1	4	1	2	1
422.472	n/a	PROB	211236	n/a	LTP312	ltpFR2	12	n/a	n/a	n/a	1	7	3	1	3
423.554	n/a	PROB	211777	n/a	LTP312	ltpFR2	12	n/a	n/a	n/a	1	10	3	5	2
424.922	n/a	PROB	212461	n/a	LTP312	ltpFR2	12	n/a	n/a	n/a	1	17	3	8	6
426.756	n/a	PROB	213378	n/a	LTP312	ltpFR2	12	n/a	n/a	n/a	1	19	5	6	8
428.242	n/a	PROB	214121	n/a	LTP312	ltpFR2	12	n/a	n/a	n/a	1	16	4	5	7
429.86	n/a	PROB	214930	n/a	LTP312	ltpFR2	12	n/a	n/a	n/a	1	16	2	8	6
431.062	n/a	PROB	215531	n/a	LTP312	ltpFR2	12	n/a	n/a	n/a	1	6	2	2	2
432.432	n/a	PROB	216216	n/a	LTP312	ltpFR2	12	n/a	n/a	n/a	1	13	4	2	7
434.166	n/a	PROB	217083	n/a	LTP312	ltpFR2	12	n/a	n/a	n/a	1	10	8	1	1
435.202	n/a	PROB	217601	n/a	LTP312	ltpFR2	12	n/a	n/a	n/a	1	19	5	5	9
436.434	n/a	PROB	218217	n/a	LTP312	ltpFR2	12	n/a	n/a	n/a	1	14	5	2	7
438.036	n/a	PROB	219018	n/a	LTP312	ltpFR2	12	n/a	n/a	n/a	1	19	9	2	8
439.252	n/a	PROB	219626	n/a	LTP312	ltpFR2	12	n/a	n/a	n/a	1	6	1	2	3
440.404	n/a	PROB	220202	n/a	LTP312	ltpFR2	12	n/a	n/a	n/a	1	11	4	3	4
441.804	n/a	PROB	220902	n/a	LTP312	ltpFR2	12	n/a	n/a	n/a	1	17	8	4	5
443.14	n/a	STOP	221570	n/a	LTP312	ltpFR2	12	n/a	n/a	n/a	1	n/a	n/a	n/a	n/a
445.576	n/a	REC_START	222788	n/a	LTP312	ltpFR2	12	1	n/a	n/a	n/a	n/a	0	0	0
446.108	n/a	REC_WORD	223054	wordpools/wasnorm_wordpool_576.txt	LTP312	ltpFR2	12	1	STUDENT	1395	n/a	n/a	0	0	0
447.306	n/a	REC_WORD	223653	wordpools/wasnorm_wordpool_576.txt	LTP312	ltpFR2	12	1	TEACHER	1440	n/a	n/a	0	0	0
448.71	n/a	REC_WORD	224355	wordpools/wasnorm_wordpool_576.txt	LTP312	ltpFR2	12	1	AIRPLANE	12	n/a	n/a	0	0	0
449.826	n/a	REC_WORD	224913	wordpools/wasnorm_wordpool_576.txt	LTP312	ltpFR2	12	1	CAPTIVE	240	n/a	n/a	0	0	0
451.302	n/a	REC_WORD	225651	wordpools/wasnorm_wordpool_576.txt	LTP312	ltpFR2	12	1	FRIEND	606	n/a	n/a	0	0	0
452.422	n/a	REC_WORD	226211	wordpools/wasnorm_wordpool_576.txt	LTP312	ltpFR2	12	1	BLUEPRINT	142	n/a	n/a	0	0	0
453.598	n/a	REC_WORD	226799	wordpools/wasnorm_wordpool_576.txt	LTP312	ltpFR2	12	1	ORCHID	982	n/a	n/a	0	0	0
457.142	n/a	REC_WORD	228571	wordpools/wasnorm_wordpool_576.txt	LTP312	ltpFR2	12	1	STOMACH	1384	n/a	n/a	0	0	0
468.06	n/a	REC_WORD	234030	wordpools/wasnorm_wordpool_576.txt	LTP312	ltpFR2	12	1	COLLEGE	346	n/a	n/a	0	0	0
483.438	n/a	REC_WORD	241719	wordpools/wasnorm_wordpool_576.txt	LTP312	ltpFR2	12	1	POSTAGE	1113	n/a	n/a	0	0	0
484.438	n/a	REC_WORD_VV	242219	wordpools/wasnorm_wordpool_576.txt	LTP312	ltpFR2	12	1	<>	-1	n/a	n/a	0	0	0
536.01	n/a	WORD	268005	wordpools/wasnorm_wordpool_576.txt	LTP312	ltpFR2	12	2	FOREST	593	n/a	n/a	0	0	0
538.498	n/a	WORD	269249	wordpools/wasnorm_wordpool_576.txt	LTP312	ltpFR2	12	2	BIKE	125	n/a	n/a	0	0	0
541.206	n/a	WORD	270603	wordpools/wasnorm_wordpool_576.txt	LTP312	ltpFR2	12	2	POCKET	1093	n/a	n/a	0	0	0
543.634	n/a	WORD	271817	wordpools/wasnorm_wordpool_576.txt	LTP312	ltpFR2	12	2	GRAVE	658	n/a	n/a	0	0	0
546.204	n/a	WORD	273102	wordpools/wasnorm_wordpool_576.txt	LTP312	ltpFR2	12	2	FLIPPER	580	n/a	n/a	0	0	0
548.788	n/a	WORD	274394	wordpools/wasnorm_wordpool_576.txt	LTP312	ltpFR2	12	2	HIGHWAY	707	n/a	n/a	0	0	0
551.598	n/a	WORD	275799	wordpools/wasnorm_wordpool_576.txt	LTP312	ltpFR2	12	2	HOOD	714	n/a	n/a	0	0	0
554.366	n/a	WORD	277183	wordpools/wasnorm_wordpool_576.txt	LTP312	ltpFR2	12	2	HELMET	702	n/a	n/a	0	0	0
556.946	n/a	WORD	278473	wordpools/wasnorm_wordpool_576.txt	LTP312	ltpFR2	12	2	POSSUM	1112	n/a	n/a	0	0	0
559.53	n/a	WORD	279765	wordpools/wasnorm_wordpool_576.txt	LTP312	ltpFR2	12	2	BEAST	108	n/a	n/a	0	0	0
561.998	n/a	WORD	280999	wordpools/wasnorm_wordpool_576.txt	LTP312	ltpFR2	12	2	FLUTE	585	n/a	n/a	0	0	0
564.658	n/a	WORD	282329	wordpools/wasnorm_wordpool_576.txt	LTP312	ltpFR2	12	2	VIKING	1565	n/a	n/a	0	0	0
567.254	n/a	WORD	283627	wordpools/wasnorm_wordpool_576.txt	LTP312	ltpFR2	12	2	MARROW	872	n/a	n/a	0	0	0
569.964	n/a	WORD	284982	wordpools/wasnorm_wordpool_576.txt	LTP312	ltpFR2	12	2	TUTU	1524	n/a	n/a	0	0	0
572.7	n/a	WORD	286350	wordpools/wasnorm_wordpool_576.txt	LTP312	ltpFR2	12	2	PALACE	1006	n/a	n/a	0	0	0
575.25	n/a	WORD	287625	wordpools/wasnorm_wordpool_576.txt	LTP312	ltpFR2	12	2	BRANCH	168	n/a	n/a	0	0	0
577.768	n/a	WORD	288884	wordpools/wasnorm_wordpool_576.txt	LTP312	ltpFR2	12	2	BACKBONE	66	n/a	n/a	0	0	0
580.454	n/a	WORD	290227	wordpools/wasnorm_wordpool_576.txt	LTP312	ltpFR2	12	2	JELLO	754	n/a	n/a	0	0	0
583.166	n/a	WORD	291583	wordpools/wasnorm_wordpool_576.txt	LTP312	ltpFR2	12	2	OINTMENT	974	n/a	n/a	0	0	0
585.6	n/a	WORD	292800	wordpools/wasnorm_wordpool_576.txt	LTP312	ltpFR2	12	2	TABLET	1427	n/a	n/a	0	0	0
588.186	n/a	WORD	294093	wordpools/wasnorm_wordpool_576.txt	LTP312	ltpFR2	12	2	MOP	916	n/a	n/a	0	0	0
590.998	n/a	WORD	295499	wordpools/wasnorm_wordpool_576.txt	LTP312	ltpFR2	12	2	RECEIPT	1173	n/a	n/a	0	0	0
593.766	n/a	WORD	296883	wordpools/wasnorm_wordpool_576.txt	LTP312	ltpFR2	12	2	GLASS	639	n/a	n/a	0	0	0
596.484	n/a	WORD	298242	wordpools/wasnorm_wordpool_576.txt	LTP312	ltpFR2	12	2	ROBOT	1200	n/a	n/a	0	0	0
598.094	n/a	START	299047	n/a	LTP312	ltpFR2	12	n/a	n/a	n/a	2	n/a	n/a	n/a	n/a
598.99	n/a	DISTRACTOR	299495	n/a	LTP312	ltpFR2	12	2	n/a	n/a	n/a	n/a	0	0	0
598.994	n/a	PROB	299497	n/a	LTP312	ltpFR2	12	n/a	n/a	n/a	2	10	5	2	3
600.512	n/a	PROB	300256	n/a	LTP312	ltpFR2	12	n/a	n/a	n/a	2	18	7	6	5
602.114	n/a	PROB	301057	n/a	LTP312	ltpFR2	12	n/a	n/a	n/a	2	12	3	1	8
603.68	n/a	PROB	301840	n/a	LTP312	ltpFR2	12	n/a	n/a	n/a	2	18	7	2	9
605.782	n/a	PROB	302891	n/a	LTP312	ltpFR2	12	n/a	n/a	n/a	2	12	7	2	3
607.1	n/a	PROB	303550	n/a	LTP312	ltpFR2	12	n/a	n/a	n/a	2	8	3	3	2
608.218	n/a	PROB	304109	n/a	LTP312	ltpFR2	12	n/a	n/a	n/a	2	16	5	4	7
609.852	n/a	PROB	304926	n/a	LTP312	ltpFR2	12	n/a	n/a	n/a	2	16	5	8	3
611.904	n/a	PROB	305952	n/a	LTP312	ltpFR2	12	n/a	n/a	n/a	2	19	9	7	3
613.756	n/a	PROB	306878	n/a	LTP312	ltpFR2	12	n/a	n/a	n/a	2	20	9	8	3
615.608	n/a	PROB	307804	n/a	LTP312	ltpFR2	12	n/a	n/a	n/a	2	9	5	3	1
617.34	n/a	PROB	308670	n/a	LTP312	ltpFR2	12	n/a	n/a	n/a	2	18	6	3	9
619.042	n/a	PROB	309521	n/a	LTP312	ltpFR2	12	n/a	n/a	n/a	2	19	2	9	8
622.094	n/a	STOP	311047	n/a	LTP312	ltpFR2	12	n/a	n/a	n/a	2	n/a	n/a	n/a	n/a
623.964	n/a	REC_START	311982	n/a	LTP312	ltpFR2	12	2	n/a	n/a	n/a	n/a	0	0	0
628.062	n/a	REC_WORD	314031	wordpools/wasnorm_wordpool_576.txt	LTP312	ltpFR2	12	2	FOREST	593	n/a	n/a	0	0	0
629.626	n/a	REC_WORD	314813	wordpools/wasnorm_wordpool_576.txt	LTP312	ltpFR2	12	2	BIKE	125	n/a	n/a	0	0	0
630.9	n/a	REC_WORD	315450	wordpools/wasnorm_wordpool_576.txt	LTP312	ltpFR2	12	2	POCKET	1093	n/a	n/a	0	0	0
632.7	n/a	REC_WORD	316350	wordpools/wasnorm_wordpool_576.txt	LTP312	ltpFR2	12	2	RECEIPT	1173	n/a	n/a	0	0	0
635.85	n/a	REC_WORD	317925	wordpools/wasnorm_wordpool_576.txt	LTP312	ltpFR2	12	2	HIGHWAY	707	n/a	n/a	0	0	0
636.85	n/a	REC_WORD_VV	318425	wordpools/wasnorm_wordpool_576.txt	LTP312	ltpFR2	12	2	<>	-1	n/a	n/a	0	0	0
637.22	n/a	REC_WORD	318610	wordpools/wasnorm_wordpool_576.txt	LTP312	ltpFR2	12	2	FLIPPER	580	n/a	n/a	0	0	0
638.838	n/a	REC_WORD	319419	wordpools/wasnorm_wordpool_576.txt	LTP312	ltpFR2	12	2	HELMET	702	n/a	n/a	0	0	0
640.214	n/a	REC_WORD	320107	wordpools/wasnorm_wordpool_576.txt	LTP312	ltpFR2	12	2	POSSUM	1112	n/a	n/a	0	0	0
643.114	n/a	REC_WORD	321557	wordpools/wasnorm_wordpool_576.txt	LTP312	ltpFR2	12	2	VIKING	1565	n/a	n/a	0	0	0
644.432	n/a	REC_WORD	322216	wordpools/wasnorm_wordpool_576.txt	LTP312	ltpFR2	12	2	MARROW	872	n/a	n/a	0	0	0
650.246	n/a	REC_WORD	325123	wordpools/wasnorm_wordpool_576.txt	LTP312	ltpFR2	12	2	POCKET	1093	n/a	n/a	0	0	0
655.97	n/a	REC_WORD	327985	wordpools/wasnorm_wordpool_576.txt	LTP312	ltpFR2	12	2	HOOD	714	n/a	n/a	0	0	0
667.204	n/a	REC_WORD	333602	wordpools/wasnorm_wordpool_576.txt	LTP312	ltpFR2	12	2	TUTU	1524	n/a	n/a	0	0	0
668.482	n/a	REC_WORD	334241	wordpools/wasnorm_wordpool_576.txt	LTP312	ltpFR2	12	2	PALACE	1006	n/a	n/a	0	0	0
675.458	n/a	REC_WORD	337729	wordpools/wasnorm_wordpool_576.txt	LTP312	ltpFR2	12	2	FLIPPER	580	n/a	n/a	0	0	0
714.418	n/a	DISTRACTOR	357209	n/a	LTP312	ltpFR2	12	3	n/a	n/a	n/a	n/a	0	0	0
714.418	n/a	START	357209	n/a	LTP312	ltpFR2	12	n/a	n/a	n/a	3	n/a	n/a	n/a	n/a
714.434	n/a	PROB	357217	n/a	LTP312	ltpFR2	12	n/a	n/a	n/a	3	12	3	7	2
715.734	n/a	PROB	357867	n/a	LTP312	ltpFR2	12	n/a	n/a	n/a	3	20	5	7	8
717.086	n/a	PROB	358543	n/a	LTP312	ltpFR2	12	n/a	n/a	n/a	3	18	7	8	3
718.57	n/a	PROB	359285	n/a	LTP312	ltpFR2	12	n/a	n/a	n/a	3	17	5	5	7
719.804	n/a	PROB	359902	n/a	LTP312	ltpFR2	12	n/a	n/a	n/a	3	17	7	1	9
721.122	n/a	PROB	360561	n/a	LTP312	ltpFR2	12	n/a	n/a	n/a	3	20	3	9	8
722.59	n/a	PROB	361295	n/a	LTP312	ltpFR2	12	n/a	n/a	n/a	3	6	2	3	1
723.624	n/a	PROB	361812	n/a	LTP312	ltpFR2	12	n/a	n/a	n/a	3	14	6	4	4
724.774	n/a	PROB	362387	n/a	LTP312	ltpFR2	12	n/a	n/a	n/a	3	12	4	7	1
726.092	n/a	PROB	363046	n/a	LTP312	ltpFR2	12	n/a	n/a	n/a	3	19	1	9	9
727.86	n/a	PROB	363930	n/a	LTP312	ltpFR2	12	n/a	n/a	n/a	3	11	6	2	3
729.578	n/a	PROB	364789	n/a	LTP312	ltpFR2	12	n/a	n/a	n/a	3	16	6	7	3
730.798	n/a	PROB	365399	n/a	LTP312	ltpFR2	12	n/a	n/a	n/a	3	10	1	5	4
731.93	n/a	PROB	365965	n/a	LTP312	ltpFR2	12	n/a	n/a	n/a	3	11	6	1	4
732.966	n/a	PROB	366483	n/a	LTP312	ltpFR2	12	n/a	n/a	n/a	3	25	9	7	9
735.066	n/a	PROB	367533	n/a	LTP312	ltpFR2	12	n/a	n/a	n/a	3	14	1	4	9
736.45	n/a	PROB	368225	n/a	LTP312	ltpFR2	12	n/a	n/a	n/a	3	17	6	4	7
738.28	n/a	STOP	369140	n/a	LTP312	ltpFR2	12	n/a	n/a	n/a	3	n/a	n/a	n/a	n/a
739.322	n/a	WORD	369661	wordpools/wasnorm_wordpool_576.txt	LTP312	ltpFR2	12	3	COCKTAIL	338	n/a	n/a	0	0	0
742.106	n/a	WORD	371053	wordpools/wasnorm_wordpool_576.txt	LTP312	ltpFR2	12	3	IDOL	733	n/a	n/a	0	0	0
744.624	n/a	WORD	372312	wordpools/wasnorm_wordpool_576.txt	LTP312	ltpFR2	12	3	DRUG	501	n/a	n/a	0	0	0
747.292	n/a	WORD	373646	wordpools/wasnorm_wordpool_576.txt	LTP312	ltpFR2	12	3	BRANDY	169	n/a	n/a	0	0	0
749.796	n/a	WORD	374898	wordpools/wasnorm_wordpool_576.txt	LTP312	ltpFR2	12	3	LEG	809	n/a	n/a	0	0	0
752.232	n/a	WORD	376116	wordpools/wasnorm_wordpool_576.txt	LTP312	ltpFR2	12	3	ELBOW	520	n/a	n/a	0	0	0
754.766	n/a	WORD	377383	wordpools/wasnorm_wordpool_576.txt	LTP312	ltpFR2	12	3	PREACHER	1119	n/a	n/a	0	0	0
757.418	n/a	WORD	378709	wordpools/wasnorm_wordpool_576.txt	LTP312	ltpFR2	12	3	PATIENT	1024	n/a	n/a	0	0	0
760.17	n/a	WORD	380085	wordpools/wasnorm_wordpool_576.txt	LTP312	ltpFR2	12	3	GROUND	666	n/a	n/a	0	0	0
762.594	n/a	WORD	381297	wordpools/wasnorm_wordpool_576.txt	LTP312	ltpFR2	12	3	CELLAR	267	n/a	n/a	0	0	0
765.39	n/a	WORD	382695	wordpools/wasnorm_wordpool_576.txt	LTP312	ltpFR2	12	3	NOTEBOOK	959	n/a	n/a	0	0	0
768.132	n/a	WORD	384066	wordpools/wasnorm_wordpool_576.txt	LTP312	ltpFR2	12	3	PATROL	1027	n/a	n/a	0	0	0
770.678	n/a	WORD	385339	wordpools/wasnorm_wordpool_576.txt	LTP312	ltpFR2	12	3	AGENT	10	n/a	n/a	0	0	0
773.396	n/a	WORD	386698	wordpools/wasnorm_wordpool_576.txt	LTP312	ltpFR2	12	3	ZEBRA	1635	n/a	n/a	0	0	0
776.122	n/a	WORD	388061	wordpools/wasnorm_wordpool_576.txt	LTP312	ltpFR2	12	3	TWIG	1527	n/a	n/a	0	0	0
778.724	n/a	WORD	389362	wordpools/wasnorm_wordpool_576.txt	LTP312	ltpFR2	12	3	PUPPY	1144	n/a	n/a	0	0	0
781.194	n/a	WORD	390597	wordpools/wasnorm_wordpool_576.txt	LTP312	ltpFR2	12	3	STAMP	1370	n/a	n/a	0	0	0
783.676	n/a	WORD	391838	wordpools/wasnorm_wordpool_576.txt	LTP312	ltpFR2	12	3	UMPIRE	1535	n/a	n/a	0	0	0
786.248	n/a	WORD	393124	wordpools/wasnorm_wordpool_576.txt	LTP312	ltpFR2	12	3	CRAYON	401	n/a	n/a	0	0	0
788.726	n/a	WORD	394363	wordpools/wasnorm_wordpool_576.txt	LTP312	ltpFR2	12	3	NAPKIN	937	n/a	n/a	0	0	0
791.45	n/a	WORD	395725	wordpools/wasnorm_wordpool_576.txt	LTP312	ltpFR2	12	3	LILY	821	n/a	n/a	0	0	0
794.204	n/a	WORD	397102	wordpools/wasnorm_wordpool_576.txt	LTP312	ltpFR2	12	3	LAPEL	800	n/a	n/a	0	0	0
796.982	n/a	WORD	398491	wordpools/wasnorm_wordpool_576.txt	LTP312	ltpFR2	12	3	GARBAGE	622	n/a	n/a	0	0	0
799.442	n/a	WORD	399721	wordpools/wasnorm_wordpool_576.txt	LTP312	ltpFR2	12	3	DRINK	498	n/a	n/a	0	0	0
801.052	n/a	START	400526	n/a	LTP312	ltpFR2	12	n/a	n/a	n/a	4	n/a	n/a	n/a	n/a
802.158	n/a	DISTRACTOR	401079	n/a	LTP312	ltpFR2	12	3	n/a	n/a	n/a	n/a	0	0	0
802.17	n/a	PROB	401085	n/a	LTP312	ltpFR2	12	n/a	n/a	n/a	4	11	2	5	4
803.986	n/a	PROB	401993	n/a	LTP312	ltpFR2	12	n/a	n/a	n/a	4	21	6	9	6
806.856	n/a	PROB	403428	n/a	LTP312	ltpFR2	12	n/a	n/a	n/a	4	9	7	1	1
807.84	n/a	PROB	403920	n/a	LTP312	ltpFR2	12	n/a	n/a	n/a	4	15	5	9	1
809.11	n/a	PROB	404555	n/a	LTP312	ltpFR2	12	n/a	n/a	n/a	4	21	8	7	6
811.842	n/a	PROB	405921	n/a	LTP312	ltpFR2	12	n/a	n/a	n/a	4	12	4	2	6
813.212	n/a	PROB	406606	n/a	LTP312	ltpFR2	12	n/a	n/a	n/a	4	9	3	2	4
816.064	n/a	PROB	408032	n/a	LTP312	ltpFR2	12	n/a	n/a	n/a	4	12	8	2	2
818.43	n/a	PROB	409215	n/a	LTP312	ltpFR2	12	n/a	n/a	n/a	4	18	4	9	5
821.118	n/a	PROB	410559	n/a	LTP312	ltpFR2	12	n/a	n/a	n/a	4	8	3	1	4
823.002	n/a	PROB	411501	n/a	LTP312	ltpFR2	12	n/a	n/a	n/a	4	8	4	3	1
823.898	n/a	STOP	411949	n/a	LTP312	ltpFR2	12	n/a	n/a	n/a	4	n/a	n/a	n/a	n/a
826.938	n/a	REC_START	413469	n/a	LTP312	ltpFR2	12	3	n/a	n/a	n/a	n/a	0	0	0
827.696	n/a	REC_WORD	413848	wordpools/wasnorm_wordpool_576.txt	LTP312	ltpFR2	12	3	COCKTAIL	338	n/a	n/a	0	0	0
828.918	n/a	REC_WORD	414459	wordpools/wasnorm_wordpool_576.txt	LTP312	ltpFR2	12	3	IDOL	733	n/a	n/a	0	0	0
830.798	n/a	REC_WORD	415399	wordpools/wasnorm_wordpool_576.txt	LTP312	ltpFR2	12	3	DRUG	501	n/a	n/a	0	0	0
831.918	n/a	REC_WORD	415959	wordpools/wasnorm_wordpool_576.txt	LTP312	ltpFR2	12	3	BRANDY	169	n/a	n/a	0	0	0
834.866	n/a	REC_WORD	417433	wordpools/wasnorm_wordpool_576.txt	LTP312	ltpFR2	12	3	LAPEL	800	n/a	n/a	0	0	0
836.082	n/a	REC_WORD	418041	wordpools/wasnorm_wordpool_576.txt	LTP312	ltpFR2	12	3	NAPKIN	937	n/a	n/a	0	0	0
917.408	n/a	WORD	458704	wordpools/wasnorm_wordpool_576.txt	LTP312	ltpFR2	12	4	SURVEY	1414	n/a	n/a	0	0	0
919.944	n/a	WORD	459972	wordpools/wasnorm_wordpool_576.txt	LTP312	ltpFR2	12	4	MARKER	870	n/a	n/a	0	0	0
922.528	n/a	WORD	461264	wordpools/wasnorm_wordpool_576.txt	LTP312	ltpFR2	12	4	TRENCH	1503	n/a	n/a	0	0	0
924.982	n/a	WORD	462491	wordpools/wasnorm_wordpool_576.txt	LTP312	ltpFR2	12	4	SHOVEL	1295	n/a	n/a	0	0	0
927.634	n/a	WORD	463817	wordpools/wasnorm_wordpool_576.txt	LTP312	ltpFR2	12	4	SHELF	1280	n/a	n/a	0	0	0
930.302	n/a	WORD	465151	wordpools/wasnorm_wordpool_576.txt	LTP312	ltpFR2	12	4	SPHINX	1349	n/a	n/a	0	0	0
932.754	n/a	WORD	466377	wordpools/wasnorm_wordpool_576.txt	LTP312	ltpFR2	12	4	COLONEL	348	n/a	n/a	0	0	0
935.29	n/a	WORD	467645	wordpools/wasnorm_wordpool_576.txt	LTP312	ltpFR2	12	4	LIGHTNING	820	n/a	n/a	0	0	0
938.042	n/a	WORD	469021	wordpools/wasnorm_wordpool_576.txt	LTP312	ltpFR2	12	4	PEBBLE	1035	n/a	n/a	0	0	0
940.794	n/a	WORD	470397	wordpools/wasnorm_wordpool_576.txt	LTP312	ltpFR2	12	4	PUDDING	1139	n/a	n/a	0	0	0
943.614	n/a	WORD	471807	wordpools/wasnorm_wordpool_576.txt	LTP312	ltpFR2	12	4	SLUG	1329	n/a	n/a	0	0	0
946.082	n/a	WORD	473041	wordpools/wasnorm_wordpool_576.txt	LTP312	ltpFR2	12	4	WORKER	1621	n/a	n/a	0	0	0
948.752	n/a	WORD	474376	wordpools/wasnorm_wordpool_576.txt	LTP312	ltpFR2	12	4	CROWN	415	n/a	n/a	0	0	0
951.252	n/a	WORD	475626	wordpools/wasnorm_wordpool_576.txt	LTP312	ltpFR2	12	4	TEMPLE	1448	n/a	n/a	0	0	0
953.82	n/a	WORD	476910	wordpools/wasnorm_wordpool_576.txt	LTP312	ltpFR2	12	4	GHETTO	633	n/a	n/a	0	0	0
956.622	n/a	WORD	478311	wordpools/wasnorm_wordpool_576.txt	LTP312	ltpFR2	12	4	COUNTY	389	n/a	n/a	0	0	0
959.158	n/a	WORD	479579	wordpools/wasnorm_wordpool_576.txt	LTP312	ltpFR2	12	4	STONE	1385	n/a	n/a	0	0	0
961.876	n/a	WORD	480938	wordpools/wasnorm_wordpool_576.txt	LTP312	ltpFR2	12	4	BOARD	143	n/a	n/a	0	0	0
964.346	n/a	WORD	482173	wordpools/wasnorm_wordpool_576.txt	LTP312	ltpFR2	12	4	PLUTO	1092	n/a	n/a	0	0	0
967.014	n/a	WORD	483507	wordpools/wasnorm_wordpool_576.txt	LTP312	ltpFR2	12	4	DOLPHIN	483	n/a	n/a	0	0	0
969.67	n/a	WORD	484835	wordpools/wasnorm_wordpool_576.txt	LTP312	ltpFR2	12	4	KEEPER	769	n/a	n/a	0	0	0
972.102	n/a	WORD	486051	wordpools/wasnorm_wordpool_576.txt	LTP312	ltpFR2	12	4	WHISKERS	1605	n/a	n/a	0	0	0
974.82	n/a	WORD	487410	wordpools/wasnorm_wordpool_576.txt	LTP312	ltpFR2	12	4	LAGOON	795	n/a	n/a	0	0	0
977.24	n/a	WORD	488620	wordpools/wasnorm_wordpool_576.txt	LTP312	ltpFR2	12	4	CANAL	226	n/a	n/a	0	0	0
978.858	n/a	START	489429	n/a	LTP312	ltpFR2	12	n/a	n/a	n/a	5	n/a	n/a	n/a	n/a
979.768	n/a	DISTRACTOR	489884	n/a	LTP312	ltpFR2	12	4	n/a	n/a	n/a	n/a	0	0	0
979.774	n/a	PROB	489887	n/a	LTP312	ltpFR2	12	n/a	n/a	n/a	5	15	8	1	6
982.578	n/a	PROB	491289	n/a	LTP312	ltpFR2	12	n/a	n/a	n/a	5	9	5	3	1
983.944	n/a	PROB	491972	n/a	LTP312	ltpFR2	12	n/a	n/a	n/a	5	19	5	8	6
986.162	n/a	PROB	493081	n/a	LTP312	ltpFR2	12	n/a	n/a	n/a	5	16	2	8	6
987.348	n/a	PROB	493674	n/a	LTP312	ltpFR2	12	n/a	n/a	n/a	5	19	6	8	5
989.6	n/a	PROB	494800	n/a	LTP312	ltpFR2	12	n/a	n/a	n/a	5	11	7	1	3
990.632	n/a	PROB	495316	n/a	LTP312	ltpFR2	12	n/a	n/a	n/a	5	9	2	3	4
992.284	n/a	PROB	496142	n/a	LTP312	ltpFR2	12	n/a	n/a	n/a	5	17	6	8	3
994.384	n/a	PROB	497192	n/a	LTP312	ltpFR2	12	n/a	n/a	n/a	5	14	7	6	1
996.454	n/a	PROB	498227	n/a	LTP312	ltpFR2	12	n/a	n/a	n/a	5	10	1	4	5
997.604	n/a	PROB	498802	n/a	LTP312	ltpFR2	12	n/a	n/a	n/a	5	15	5	8	2
999.106	n/a	PROB	499553	n/a	LTP312	ltpFR2	12	n/a	n/a	n/a	5	15	5	9	1
1000.388	n/a	PROB	500194	n/a	LTP312	ltpFR2	12	n/a	n/a	n/a	5	10	1	3	6
1001.492	n/a	STOP	500746	n/a	LTP312	ltpFR2	12	n/a	n/a	n/a	5	n/a	n/a	n/a	n/a
1004.76	n/a	REC_START	502380	n/a	LTP312	ltpFR2	12	4	n/a	n/a	n/a	n/a	0	0	0
1005.452	n/a	REC_WORD	502726	wordpools/wasnorm_wordpool_576.txt	LTP312	ltpFR2	12	4	LAGOON	795	n/a	n/a	0	0	0
1006.466	n/a	REC_WORD	503233	wordpools/wasnorm_wordpool_576.txt	LTP312	ltpFR2	12	4	SURVEY	1414	n/a	n/a	0	0	0
1007.466	n/a	REC_WORD_VV	503733	wordpools/wasnorm_wordpool_576.txt	LTP312	ltpFR2	12	4	<>	-1	n/a	n/a	0	0	0
1007.886	n/a	REC_WORD	503943	wordpools/wasnorm_wordpool_576.txt	LTP312	ltpFR2	12	4	WHISKERS	1605	n/a	n/a	0	0	0
1049.264	n/a	REC_WORD	524632	wordpools/wasnorm_wordpool_576.txt	LTP312	ltpFR2	12	4	TRENCH	1503	n/a	n/a	0	0	0
1050.968	n/a	REC_WORD	525484	wordpools/wasnorm_wordpool_576.txt	LTP312	ltpFR2	12	4	SHOVEL	1295	n/a	n/a	0	0	0
1052.304	n/a	REC_WORD	526152	wordpools/wasnorm_wordpool_576.txt	LTP312	ltpFR2	12	4	SHELF	1280	n/a	n/a	0	0	0
1095.182	n/a	DISTRACTOR	547591	n/a	LTP312	ltpFR2	12	5	n/a	n/a	n/a	n/a	0	0	0
1095.184	n/a	START	547592	n/a	LTP312	ltpFR2	12	n/a	n/a	n/a	6	n/a	n/a	n/a	n/a
1095.198	n/a	PROB	547599	n/a	LTP312	ltpFR2	12	n/a	n/a	n/a	6	18	7	3	8
1096.698	n/a	PROB	548349	n/a	LTP312	ltpFR2	12	n/a	n/a	n/a	6	12	2	5	5
1097.75	n/a	PROB	548875	n/a	LTP312	ltpFR2	12	n/a	n/a	n/a	6	14	6	3	5
1099.634	n/a	PROB	549817	n/a	LTP312	ltpFR2	12	n/a	n/a	n/a	6	16	4	5	7
1101.252	n/a	PROB	550626	n/a	LTP312	ltpFR2	12	n/a	n/a	n/a	6	21	7	7	7
1102.502	n/a	PROB	551251	n/a	LTP312	ltpFR2	12	n/a	n/a	n/a	6	1	2	3	8
1104.07	n/a	PROB	552035	n/a	LTP312	ltpFR2	12	n/a	n/a	n/a	6	15	6	8	1
1106.124	n/a	PROB	553062	n/a	LTP312	ltpFR2	12	n/a	n/a	n/a	6	6	4	1	1
1107.192	n/a	PROB	553596	n/a	LTP312	ltpFR2	12	n/a	n/a	n/a	6	13	3	3	7
1108.376	n/a	PROB	554188	n/a	LTP312	ltpFR2	12	n/a	n/a	n/a	6	11	1	7	3
1109.642	n/a	PROB	554821	n/a	LTP312	ltpFR2	12	n/a	n/a	n/a	6	17	6	7	4
1111.01	n/a	PROB	555505	n/a	LTP312	ltpFR2	12	n/a	n/a	n/a	6	15	2	8	5
1112.044	n/a	PROB	556022	n/a	LTP312	ltpFR2	12	n/a	n/a	n/a	6	15	7	1	7
1113.328	n/a	PROB	556664	n/a	LTP312	ltpFR2	12	n/a	n/a	n/a	6	17	8	1	8
1114.646	n/a	PROB	557323	n/a	LTP312	ltpFR2	12	n/a	n/a	n/a	6	18	7	7	4
1115.948	n/a	PROB	557974	n/a	LTP312	ltpFR2	12	n/a	n/a	n/a	6	15	9	3	3
1117.332	n/a	PROB	558666	n/a	LTP312	ltpFR2	12	n/a	n/a	n/a	6	18	1	8	9
1118.798	n/a	STOP	559399	n/a	LTP312	ltpFR2	12	n/a	n/a	n/a	6	n/a	n/a	n/a	n/a
1120.28	n/a	WORD	560140	wordpools/wasnorm_wordpool_576.txt	LTP312	ltpFR2	12	5	SEAL	1262	n/a	n/a	0	0	0
1122.982	n/a	WORD	561491	wordpools/wasnorm_wordpool_576.txt	LTP312	ltpFR2	12	5	FRAME	600	n/a	n/a	0	0	0
1125.402	n/a	WORD	562701	wordpools/wasnorm_wordpool_576.txt	LTP312	ltpFR2	12	5	VALLEY	1545	n/a	n/a	0	0	0
1128.052	n/a	WORD	564026	wordpools/wasnorm_wordpool_576.txt	LTP312	ltpFR2	12	5	SLOPE	1328	n/a	n/a	0	0	0
1130.738	n/a	WORD	565369	wordpools/wasnorm_wordpool_576.txt	LTP312	ltpFR2	12	5	GAVEL	627	n/a	n/a	0	0	0
1133.212	n/a	WORD	566606	wordpools/wasnorm_wordpool_576.txt	LTP312	ltpFR2	12	5	FRAGRANCE	599	n/a	n/a	0	0	0
1135.81	n/a	WORD	567905	wordpools/wasnorm_wordpool_576.txt	LTP312	ltpFR2	12	5	FRECKLE	602	n/a	n/a	0	0	0
1138.446	n/a	WORD	569223	wordpools/wasnorm_wordpool_576.txt	LTP312	ltpFR2	12	5	MAILBOX	857	n/a	n/a	0	0	0
1141.166	n/a	WORD	570583	wordpools/wasnorm_wordpool_576.txt	LTP312	ltpFR2	12	5	BARREL	91	n/a	n/a	0	0	0
1143.65	n/a	WORD	571825	wordpools/wasnorm_wordpool_576.txt	LTP312	ltpFR2	12	5	PICTURE	1061	n/a	n/a	0	0	0
1146.456	n/a	WORD	573228	wordpools/wasnorm_wordpool_576.txt	LTP312	ltpFR2	12	5	QUARTER	1148	n/a	n/a	0	0	0
1149.124	n/a	WORD	574562	wordpools/wasnorm_wordpool_576.txt	LTP312	ltpFR2	12	5	CONTRACT	368	n/a	n/a	0	0	0
1151.908	n/a	WORD	575954	wordpools/wasnorm_wordpool_576.txt	LTP312	ltpFR2	12	5	LOFT	840	n/a	n/a	0	0	0
1154.726	n/a	WORD	577363	wordpools/wasnorm_wordpool_576.txt	LTP312	ltpFR2	12	5	SCULPTURE	1258	n/a	n/a	0	0	0
1157.48	n/a	WORD	578740	wordpools/wasnorm_wordpool_576.txt	LTP312	ltpFR2	12	5	JUNGLE	764	n/a	n/a	0	0	0
1160.282	n/a	WORD	580141	wordpools/wasnorm_wordpool_576.txt	LTP312	ltpFR2	12	5	CANYON	235	n/a	n/a	0	0	0
1162.9	n/a	WORD	581450	wordpools/wasnorm_wordpool_576.txt	LTP312	ltpFR2	12	5	SUMMIT	1405	n/a	n/a	0	0	0
1165.384	n/a	WORD	582692	wordpools/wasnorm_wordpool_576.txt	LTP312	ltpFR2	12	5	COUSIN	392	n/a	n/a	0	0	0
1167.904	n/a	WORD	583952	wordpools/wasnorm_wordpool_576.txt	LTP312	ltpFR2	12	5	PORTRAIT	1111	n/a	n/a	0	0	0
1170.672	n/a	WORD	585336	wordpools/wasnorm_wordpool_576.txt	LTP312	ltpFR2	12	5	SNAIL	1332	n/a	n/a	0	0	0
1173.476	n/a	WORD	586738	wordpools/wasnorm_wordpool_576.txt	LTP312	ltpFR2	12	5	STALLION	1369	n/a	n/a	0	0	0
1176.262	n/a	WORD	588131	wordpools/wasnorm_wordpool_576.txt	LTP312	ltpFR2	12	5	PADDING	999	n/a	n/a	0	0	0
1178.846	n/a	WORD	589423	wordpools/wasnorm_wordpool_576.txt	LTP312	ltpFR2	12	5	CASKET	255	n/a	n/a	0	0	0
1181.582	n/a	WORD	590791	wordpools/wasnorm_wordpool_576.txt	LTP312	ltpFR2	12	5	TUBA	1515	n/a	n/a	0	0	0
1183.202	n/a	START	591601	n/a	LTP312	ltpFR2	12	n/a	n/a	n/a	7	n/a	n/a	n/a	n/a
1184.19	n/a	DISTRACTOR	592095	n/a	LTP312	ltpFR2	12	5	n/a	n/a	n/a	n/a	0	0	0
1184.202	n/a	PROB	592101	n/a	LTP312	ltpFR2	12	n/a	n/a	n/a	7	15	3	8	4
1186.136	n/a	PROB	593068	n/a	LTP312	ltpFR2	12	n/a	n/a	n/a	7	11	2	3	6
1187.486	n/a	PROB	593743	n/a	LTP312	ltpFR2	12	n/a	n/a	n/a	7	11	8	2	1
1188.604	n/a	PROB	594302	n/a	LTP312	ltpFR2	12	n/a	n/a	n/a	7	14	4	6	4
1189.772	n/a	PROB	594886	n/a	LTP312	ltpFR2	12	n/a	n/a	n/a	7	25	7	9	9
1192.39	n/a	PROB	596195	n/a	LTP312	ltpFR2	12	n/a	n/a	n/a	7	16	9	3	4
1193.776	n/a	PROB	596888	n/a	LTP312	ltpFR2	12	n/a	n/a	n/a	7	8	3	2	3
1195.042	n/a	PROB	597521	n/a	LTP312	ltpFR2	12	n/a	n/a	n/a	7	10	1	6	3
1196.528	n/a	PROB	598264	n/a	LTP312	ltpFR2	12	n/a	n/a	n/a	7	14	4	4	6
1197.71	n/a	PROB	598855	n/a	LTP312	ltpFR2	12	n/a	n/a	n/a	7	13	6	3	4
1198.928	n/a	PROB	599464	n/a	LTP312	ltpFR2	12	n/a	n/a	n/a	7	15	8	1	6
1200.628	n/a	PROB	600314	n/a	LTP312	ltpFR2	12	n/a	n/a	n/a	7	26	9	8	9
1202.582	n/a	PROB	601291	n/a	LTP312	ltpFR2	12	n/a	n/a	n/a	7	11	7	2	2
1204.014	n/a	PROB	602007	n/a	LTP312	ltpFR2	12	n/a	n/a	n/a	7	12	1	5	6
1207.202	n/a	STOP	603601	n/a	LTP312	ltpFR2	12	n/a	n/a	n/a	7	n/a	n/a	n/a	n/a
1209.136	n/a	REC_START	604568	n/a	LTP312	ltpFR2	12	5	n/a	n/a	n/a	n/a	0	0	0
1210.584	n/a	REC_WORD	605292	wordpools/wasnorm_wordpool_576.txt	LTP312	ltpFR2	12	5	PADDING	999	n/a	n/a	0	0	0
1211.47	n/a	REC_WORD	605735	wordpools/wasnorm_wordpool_576.txt	LTP312	ltpFR2	12	5	CASKET	255	n/a	n/a	0	0	0
1212.944	n/a	REC_WORD	606472	wordpools/wasnorm_wordpool_576.txt	LTP312	ltpFR2	12	5	SEAL	1262	n/a	n/a	0	0	0
1213.958	n/a	REC_WORD	606979	wordpools/wasnorm_wordpool_576.txt	LTP312	ltpFR2	12	5	SNAIL	1332	n/a	n/a	0	0	0
1216.472	n/a	REC_WORD	608236	wordpools/wasnorm_wordpool_576.txt	LTP312	ltpFR2	12	5	CANYON	235	n/a	n/a	0	0	0
1223.662	n/a	REC_WORD	611831	wordpools/wasnorm_wordpool_576.txt	LTP312	ltpFR2	12	5	STALLION	1369	n/a	n/a	0	0	0
1299.558	n/a	DISTRACTOR	649779	n/a	LTP312	ltpFR2	12	6	n/a	n/a	n/a	n/a	0	0	0
1299.558	n/a	START	649779	n/a	LTP312	ltpFR2	12	n/a	n/a	n/a	8	n/a	n/a	n/a	n/a
1299.572	n/a	PROB	649786	n/a	LTP312	ltpFR2	12	n/a	n/a	n/a	8	20	7	5	8
1301.29	n/a	PROB	650645	n/a	LTP312	ltpFR2	12	n/a	n/a	n/a	8	8	3	2	3
1302.342	n/a	PROB	651171	n/a	LTP312	ltpFR2	12	n/a	n/a	n/a	8	15	7	1	7
1303.408	n/a	PROB	651704	n/a	LTP312	ltpFR2	12	n/a	n/a	n/a	8	24	9	7	8
1306.294	n/a	PROB	653147	n/a	LTP312	ltpFR2	12	n/a	n/a	n/a	8	11	7	1	3
1307.348	n/a	PROB	653674	n/a	LTP312	ltpFR2	12	n/a	n/a	n/a	8	12	4	3	5
1309.798	n/a	PROB	654899	n/a	LTP312	ltpFR2	12	n/a	n/a	n/a	8	13	6	3	4
1311.082	n/a	PROB	655541	n/a	LTP312	ltpFR2	12	n/a	n/a	n/a	8	15	3	3	9
1312.382	n/a	PROB	656191	n/a	LTP312	ltpFR2	12	n/a	n/a	n/a	8	14	8	3	3
1314.084	n/a	PROB	657042	n/a	LTP312	ltpFR2	12	n/a	n/a	n/a	8	22	7	6	9
1316.938	n/a	PROB	658469	n/a	LTP312	ltpFR2	12	n/a	n/a	n/a	8	14	3	2	9
1318.456	n/a	PROB	659228	n/a	LTP312	ltpFR2	12	n/a	n/a	n/a	8	13	7	2	4
1321.49	n/a	PROB	660745	n/a	LTP312	ltpFR2	12	n/a	n/a	n/a	8	5	3	1	1
1322.33	n/a	STOP	661165	n/a	LTP312	ltpFR2	12	n/a	n/a	n/a	8	n/a	n/a	n/a	n/a
1324.654	n/a	WORD	662327	wordpools/wasnorm_wordpool_576.txt	LTP312	ltpFR2	12	6	MISTER	901	n/a	n/a	0	0	0
1327.264	n/a	WORD	663632	wordpools/wasnorm_wordpool_576.txt	LTP312	ltpFR2	12	6	OMELET	976	n/a	n/a	0	0	0
1330.032	n/a	WORD	665016	wordpools/wasnorm_wordpool_576.txt	LTP312	ltpFR2	12	6	CLIMBER	323	n/a	n/a	0	0	0
1332.492	n/a	WORD	666246	wordpools/wasnorm_wordpool_576.txt	LTP312	ltpFR2	12	6	NOMAD	955	n/a	n/a	0	0	0
1335.18	n/a	WORD	667590	wordpools/wasnorm_wordpool_576.txt	LTP312	ltpFR2	12	6	LODGE	839	n/a	n/a	0	0	0
1337.686	n/a	WORD	668843	wordpools/wasnorm_wordpool_576.txt	LTP312	ltpFR2	12	6	LAVA	804	n/a	n/a	0	0	0
1340.168	n/a	WORD	670084	wordpools/wasnorm_wordpool_576.txt	LTP312	ltpFR2	12	6	AIRPORT	13	n/a	n/a	0	0	0
1342.802	n/a	WORD	671401	wordpools/wasnorm_wordpool_576.txt	LTP312	ltpFR2	12	6	SCOTCH	1251	n/a	n/a	0	0	0
1345.522	n/a	WORD	672761	wordpools/wasnorm_wordpool_576.txt	LTP312	ltpFR2	12	6	FLASK	576	n/a	n/a	0	0	0
1348.192	n/a	WORD	674096	wordpools/wasnorm_wordpool_576.txt	LTP312	ltpFR2	12	6	VIRUS	1572	n/a	n/a	0	0	0
1350.844	n/a	WORD	675422	wordpools/wasnorm_wordpool_576.txt	LTP312	ltpFR2	12	6	DRESS	495	n/a	n/a	0	0	0
1353.478	n/a	WORD	676739	wordpools/wasnorm_wordpool_576.txt	LTP312	ltpFR2	12	6	HONEY	713	n/a	n/a	0	0	0
1356.264	n/a	WORD	678132	wordpools/wasnorm_wordpool_576.txt	LTP312	ltpFR2	12	6	SADDLE	1221	n/a	n/a	0	0	0
1358.97	n/a	WORD	679485	wordpools/wasnorm_wordpool_576.txt	LTP312	ltpFR2	12	6	TROUT	1511	n/a	n/a	0	0	0
1361.44	n/a	WORD	680720	wordpools/wasnorm_wordpool_576.txt	LTP312	ltpFR2	12	6	SPOUSE	1358	n/a	n/a	0	0	0
1364.07	n/a	WORD	682035	wordpools/wasnorm_wordpool_576.txt	LTP312	ltpFR2	12	6	SWITCH	1422	n/a	n/a	0	0	0
1366.524	n/a	WORD	683262	wordpools/wasnorm_wordpool_576.txt	LTP312	ltpFR2	12	6	PEANUT	1032	n/a	n/a	0	0	0
1369.092	n/a	WORD	684546	wordpools/wasnorm_wordpool_576.txt	LTP312	ltpFR2	12	6	TOASTER	1472	n/a	n/a	0	0	0
1371.542	n/a	WORD	685771	wordpools/wasnorm_wordpool_576.txt	LTP312	ltpFR2	12	6	WITNESS	1618	n/a	n/a	0	0	0
1374.23	n/a	WORD	687115	wordpools/wasnorm_wordpool_576.txt	LTP312	ltpFR2	12	6	MOTEL	919	n/a	n/a	0	0	0
1376.764	n/a	WORD	688382	wordpools/wasnorm_wordpool_576.txt	LTP312	ltpFR2	12	6	MUMMY	932	n/a	n/a	0	0	0
1379.3	n/a	WORD	689650	wordpools/wasnorm_wordpool_576.txt	LTP312	ltpFR2	12	6	EGYPT	519	n/a	n/a	0	0	0
1381.802	n/a	WORD	690901	wordpools/wasnorm_wordpool_576.txt	LTP312	ltpFR2	12	6	SUSPECT	1415	n/a	n/a	0	0	0
1384.604	n/a	WORD	692302	wordpools/wasnorm_wordpool_576.txt	LTP312	ltpFR2	12	6	PIGMENT	1066	n/a	n/a	0	0	0
1386.21	n/a	START	693105	n/a	LTP312	ltpFR2	12	n/a	n/a	n/a	9	n/a	n/a	n/a	n/a
1387.094	n/a	DISTRACTOR	693547	n/a	LTP312	ltpFR2	12	6	n/a	n/a	n/a	n/a	0	0	0
1387.108	n/a	PROB	693554	n/a	LTP312	ltpFR2	12	n/a	n/a	n/a	9	17	7	8	2
1389.294	n/a	PROB	694647	n/a	LTP312	ltpFR2	12	n/a	n/a	n/a	9	11	3	1	7
1391.278	n/a	PROB	695639	n/a	LTP312	ltpFR2	12	n/a	n/a	n/a	9	18	2	8	8
1392.644	n/a	PROB	696322	n/a	LTP312	ltpFR2	12	n/a	n/a	n/a	9	15	5	8	2
1395.782	n/a	PROB	697891	n/a	LTP312	ltpFR2	12	n/a	n/a	n/a	9	26	9	9	8
1397.918	n/a	PROB	698959	n/a	LTP312	ltpFR2	12	n/a	n/a	n/a	9	20	4	8	8
1399.55	n/a	PROB	699775	n/a	LTP312	ltpFR2	12	n/a	n/a	n/a	9	20	8	5	7
1401.136	n/a	PROB	700568	n/a	LTP312	ltpFR2	12	n/a	n/a	n/a	9	14	7	3	4
1403.038	n/a	PROB	701519	n/a	LTP312	ltpFR2	12	n/a	n/a	n/a	9	12	1	4	8
1404.256	n/a	PROB	702128	n/a	LTP312	ltpFR2	12	n/a	n/a	n/a	9	21	9	8	4
1407.158	n/a	PROB	703579	n/a	LTP312	ltpFR2	12	n/a	n/a	n/a	9	15	4	7	4
1409.26	n/a	STOP	704630	n/a	LTP312	ltpFR2	12	n/a	n/a	n/a	9	n/a	n/a	n/a	n/a
1412.112	n/a	REC_START	706056	n/a	LTP312	ltpFR2	12	6	n/a	n/a	n/a	n/a	0	0	0
1412.93	n/a	REC_WORD	706465	wordpools/wasnorm_wordpool_576.txt	LTP312	ltpFR2	12	6	MISTER	901	n/a	n/a	0	0	0
1413.908	n/a	REC_WORD	706954	wordpools/wasnorm_wordpool_576.txt	LTP312	ltpFR2	12	6	OMELET	976	n/a	n/a	0	0	0
1415.184	n/a	REC_WORD	707592	wordpools/wasnorm_wordpool_576.txt	LTP312	ltpFR2	12	6	WITNESS	1618	n/a	n/a	0	0	0
1458.934	n/a	REC_WORD	729467	wordpools/wasnorm_wordpool_576.txt	LTP312	ltpFR2	12	6	SWITCH	1422	n/a	n/a	0	0	0
1467.816	n/a	REC_WORD	733908	wordpools/wasnorm_wordpool_576.txt	LTP312	ltpFR2	12	6	HONEY	713	n/a	n/a	0	0	0
1502.548	n/a	WORD	751274	wordpools/wasnorm_wordpool_576.txt	LTP312	ltpFR2	12	7	TERMITE	1451	n/a	n/a	0	0	0
1504.974	n/a	WORD	752487	wordpools/wasnorm_wordpool_576.txt	LTP312	ltpFR2	12	7	TABLE	1426	n/a	n/a	0	0	0
1507.586	n/a	WORD	753793	wordpools/wasnorm_wordpool_576.txt	LTP312	ltpFR2	12	7	HEART	697	n/a	n/a	0	0	0
1510.272	n/a	WORD	755136	wordpools/wasnorm_wordpool_576.txt	LTP312	ltpFR2	12	7	MISSILE	900	n/a	n/a	0	0	0
1512.964	n/a	WORD	756482	wordpools/wasnorm_wordpool_576.txt	LTP312	ltpFR2	12	7	CABBAGE	210	n/a	n/a	0	0	0
1515.482	n/a	WORD	757741	wordpools/wasnorm_wordpool_576.txt	LTP312	ltpFR2	12	7	ARM	38	n/a	n/a	0	0	0
1517.912	n/a	WORD	758956	wordpools/wasnorm_wordpool_576.txt	LTP312	ltpFR2	12	7	PRINCE	1124	n/a	n/a	0	0	0
1520.72	n/a	WORD	760360	wordpools/wasnorm_wordpool_576.txt	LTP312	ltpFR2	12	7	MUSTARD	935	n/a	n/a	0	0	0
1523.34	n/a	WORD	761670	wordpools/wasnorm_wordpool_576.txt	LTP312	ltpFR2	12	7	ONION	977	n/a	n/a	0	0	0
1525.868	n/a	WORD	762934	wordpools/wasnorm_wordpool_576.txt	LTP312	ltpFR2	12	7	CRICKET	408	n/a	n/a	0	0	0
1528.336	n/a	WORD	764168	wordpools/wasnorm_wordpool_576.txt	LTP312	ltpFR2	12	7	COCOON	339	n/a	n/a	0	0	0
1530.804	n/a	WORD	765402	wordpools/wasnorm_wordpool_576.txt	LTP312	ltpFR2	12	7	TRANSPLANT	1496	n/a	n/a	0	0	0
1533.358	n/a	WORD	766679	wordpools/wasnorm_wordpool_576.txt	LTP312	ltpFR2	12	7	MARINE	869	n/a	n/a	0	0	0
1535.908	n/a	WORD	767954	wordpools/wasnorm_wordpool_576.txt	LTP312	ltpFR2	12	7	DIVER	476	n/a	n/a	0	0	0
1538.686	n/a	WORD	769343	wordpools/wasnorm_wordpool_576.txt	LTP312	ltpFR2	12	7	THREAD	1460	n/a	n/a	0	0	0
1541.138	n/a	WORD	770569	wordpools/wasnorm_wordpool_576.txt	LTP312	ltpFR2	12	7	BRICK	172	n/a	n/a	0	0	0
1543.598	n/a	WORD	771799	wordpools/wasnorm_wordpool_576.txt	LTP312	ltpFR2	12	7	GARLIC	624	n/a	n/a	0	0	0
1546.05	n/a	WORD	773025	wordpools/wasnorm_wordpool_576.txt	LTP312	ltpFR2	12	7	SHIRT	1287	n/a	n/a	0	0	0
1548.85	n/a	WORD	774425	wordpools/wasnorm_wordpool_576.txt	LTP312	ltpFR2	12	7	NEUTRON	947	n/a	n/a	0	0	0
1551.37	n/a	WORD	775685	wordpools/wasnorm_wordpool_576.txt	LTP312	ltpFR2	12	7	BEAKER	104	n/a	n/a	0	0	0
1554.166	n/a	WORD	777083	wordpools/wasnorm_wordpool_576.txt	LTP312	ltpFR2	12	7	FREEZER	604	n/a	n/a	0	0	0
1556.592	n/a	WORD	778296	wordpools/wasnorm_wordpool_576.txt	LTP312	ltpFR2	12	7	BASEMENT	94	n/a	n/a	0	0	0
1559.06	n/a	WORD	779530	wordpools/wasnorm_wordpool_576.txt	LTP312	ltpFR2	12	7	FIREPLACE	570	n/a	n/a	0	0	0
1561.596	n/a	WORD	780798	wordpools/wasnorm_wordpool_576.txt	LTP312	ltpFR2	12	7	MAMMAL	861	n/a	n/a	0	0	0
1563.208	n/a	START	781604	n/a	LTP312	ltpFR2	12	n/a	n/a	n/a	10	n/a	n/a	n/a	n/a
1564.3	n/a	DISTRACTOR	782150	n/a	LTP312	ltpFR2	12	7	n/a	n/a	n/a	n/a	0	0	0
1564.308	n/a	PROB	782154	n/a	LTP312	ltpFR2	12	n/a	n/a	n/a	10	15	5	7	3
1565.948	n/a	PROB	782974	n/a	LTP312	ltpFR2	12	n/a	n/a	n/a	10	15	4	6	5
1567.166	n/a	PROB	783583	n/a	LTP312	ltpFR2	12	n/a	n/a	n/a	10	14	8	1	5
1568.734	n/a	PROB	784367	n/a	LTP312	ltpFR2	12	n/a	n/a	n/a	10	18	6	9	3
1571.084	n/a	PROB	785542	n/a	LTP312	ltpFR2	12	n/a	n/a	n/a	10	11	6	3	2
1572.304	n/a	PROB	786152	n/a	LTP312	ltpFR2	12	n/a	n/a	n/a	10	20	9	2	9
1574.404	n/a	PROB	787202	n/a	LTP312	ltpFR2	12	n/a	n/a	n/a	10	26	9	8	8
1575.908	n/a	PROB	787954	n/a	LTP312	ltpFR2	12	n/a	n/a	n/a	10	13	1	5	8
1578.408	n/a	PROB	789204	n/a	LTP312	ltpFR2	12	n/a	n/a	n/a	10	11	7	1	3
1579.574	n/a	PROB	789787	n/a	LTP312	ltpFR2	12	n/a	n/a	n/a	10	14	8	2	4
1580.658	n/a	PROB	790329	n/a	LTP312	ltpFR2	12	n/a	n/a	n/a	10	13	3	5	5
1581.776	n/a	PROB	790888	n/a	LTP312	ltpFR2	12	n/a	n/a	n/a	10	12	2	1	9
1582.942	n/a	PROB	791471	n/a	LTP312	ltpFR2	12	n/a	n/a	n/a	10	13	2	3	8
1584.646	n/a	PROB	792323	n/a	LTP312	ltpFR2	12	n/a	n/a	n/a	10	22	8	9	5
1586.686	n/a	STOP	793343	n/a	LTP312	ltpFR2	12	n/a	n/a	n/a	10	n/a	n/a	n/a	n/a
1589.118	n/a	REC_START	794559	n/a	LTP312	ltpFR2	12	7	n/a	n/a	n/a	n/a	0	0	0
1595.92	n/a	REC_WORD	797960	wordpools/wasnorm_wordpool_576.txt	LTP312	ltpFR2	12	7	ONION	977	n/a	n/a	0	0	0
1597.348	n/a	REC_WORD	798674	wordpools/wasnorm_wordpool_576.txt	LTP312	ltpFR2	12	7	TRANSPLANT	1496	n/a	n/a	0	0	0
1598.348	n/a	REC_WORD_VV	799174	wordpools/wasnorm_wordpool_576.txt	LTP312	ltpFR2	12	7	<>	-1	n/a	n/a	0	0	0
1599.35	n/a	REC_WORD	799675	wordpools/wasnorm_wordpool_576.txt	LTP312	ltpFR2	12	7	MUSTARD	935	n/a	n/a	0	0	0
1600.808	n/a	REC_WORD	800404	wordpools/wasnorm_wordpool_576.txt	LTP312	ltpFR2	12	7	MARINE	869	n/a	n/a	0	0	0
1602.326	n/a	REC_WORD	801163	wordpools/wasnorm_wordpool_576.txt	LTP312	ltpFR2	12	7	DIVER	476	n/a	n/a	0	0	0
1613.244	n/a	REC_WORD	806622	wordpools/wasnorm_wordpool_576.txt	LTP312	ltpFR2	12	7	COCOON	339	n/a	n/a	0	0	0
1617.742	n/a	REC_WORD	808871	wordpools/wasnorm_wordpool_576.txt	LTP312	ltpFR2	12	7	NEUTRON	947	n/a	n/a	0	0	0
1618.742	n/a	REC_WORD_VV	809371	wordpools/wasnorm_wordpool_576.txt	LTP312	ltpFR2	12	7	<>	-1	n/a	n/a	0	0	0
1679.572	n/a	DISTRACTOR	839786	n/a	LTP312	ltpFR2	12	8	n/a	n/a	n/a	n/a	0	0	0
1679.572	n/a	START	839786	n/a	LTP312	ltpFR2	12	n/a	n/a	n/a	11	n/a	n/a	n/a	n/a
1679.586	n/a	PROB	839793	n/a	LTP312	ltpFR2	12	n/a	n/a	n/a	11	25	9	8	8
1682.022	n/a	PROB	841011	n/a	LTP312	ltpFR2	12	n/a	n/a	n/a	11	15	1	8	6
1683.806	n/a	PROB	841903	n/a	LTP312	ltpFR2	12	n/a	n/a	n/a	11	17	9	1	7
1685.04	n/a	PROB	842520	n/a	LTP312	ltpFR2	12	n/a	n/a	n/a	11	17	9	1	7
1686.04	n/a	PROB	843020	n/a	LTP312	ltpFR2	12	n/a	n/a	n/a	11	3	1	1	1
1686.942	n/a	PROB	843471	n/a	LTP312	ltpFR2	12	n/a	n/a	n/a	11	11	2	5	4
1688.344	n/a	PROB	844172	n/a	LTP312	ltpFR2	12	n/a	n/a	n/a	11	13	7	1	5
1689.512	n/a	PROB	844756	n/a	LTP312	ltpFR2	12	n/a	n/a	n/a	11	23	7	9	7
1691.594	n/a	PROB	845797	n/a	LTP312	ltpFR2	12	n/a	n/a	n/a	11	17	2	8	7
1693.614	n/a	PROB	846807	n/a	LTP312	ltpFR2	12	n/a	n/a	n/a	11	16	2	7	7
1694.816	n/a	PROB	847408	n/a	LTP312	ltpFR2	12	n/a	n/a	n/a	11	12	8	1	3
1695.934	n/a	PROB	847967	n/a	LTP312	ltpFR2	12	n/a	n/a	n/a	11	8	3	3	2
1697.152	n/a	PROB	848576	n/a	LTP312	ltpFR2	12	n/a	n/a	n/a	11	21	6	6	9
1698.684	n/a	PROB	849342	n/a	LTP312	ltpFR2	12	n/a	n/a	n/a	11	7	4	1	2
1700.068	n/a	PROB	850034	n/a	LTP312	ltpFR2	12	n/a	n/a	n/a	11	19	9	9	1
1701.286	n/a	PROB	850643	n/a	LTP312	ltpFR2	12	n/a	n/a	n/a	11	15	8	7	2
1703.09	n/a	STOP	851545	n/a	LTP312	ltpFR2	12	n/a	n/a	n/a	11	n/a	n/a	n/a	n/a
1704.61	n/a	WORD	852305	wordpools/wasnorm_wordpool_576.txt	LTP312	ltpFR2	12	8	CHEMIST	292	n/a	n/a	0	0	0
1707.092	n/a	WORD	853546	wordpools/wasnorm_wordpool_576.txt	LTP312	ltpFR2	12	8	SIBLING	1301	n/a	n/a	0	0	0
1709.61	n/a	WORD	854805	wordpools/wasnorm_wordpool_576.txt	LTP312	ltpFR2	12	8	PORK	1108	n/a	n/a	0	0	0
1712.262	n/a	WORD	856131	wordpools/wasnorm_wordpool_576.txt	LTP312	ltpFR2	12	8	GIFT	635	n/a	n/a	0	0	0
1714.948	n/a	WORD	857474	wordpools/wasnorm_wordpool_576.txt	LTP312	ltpFR2	12	8	SCARF	1246	n/a	n/a	0	0	0
1717.65	n/a	WORD	858825	wordpools/wasnorm_wordpool_576.txt	LTP312	ltpFR2	12	8	DENTIST	447	n/a	n/a	0	0	0
1720.334	n/a	WORD	860167	wordpools/wasnorm_wordpool_576.txt	LTP312	ltpFR2	12	8	PILOT	1070	n/a	n/a	0	0	0
1722.97	n/a	WORD	861485	wordpools/wasnorm_wordpool_576.txt	LTP312	ltpFR2	12	8	CATTLE	261	n/a	n/a	0	0	0
1725.756	n/a	WORD	862878	wordpools/wasnorm_wordpool_576.txt	LTP312	ltpFR2	12	8	CABIN	211	n/a	n/a	0	0	0
1728.38	n/a	WORD	864190	wordpools/wasnorm_wordpool_576.txt	LTP312	ltpFR2	12	8	SHORTS	1293	n/a	n/a	0	0	0
1730.8	n/a	WORD	865400	wordpools/wasnorm_wordpool_576.txt	LTP312	ltpFR2	12	8	PACKAGE	997	n/a	n/a	0	0	0
1733.366	n/a	WORD	866683	wordpools/wasnorm_wordpool_576.txt	LTP312	ltpFR2	12	8	MAPLE	866	n/a	n/a	0	0	0
1735.882	n/a	WORD	867941	wordpools/wasnorm_wordpool_576.txt	LTP312	ltpFR2	12	8	CHIPMUNK	304	n/a	n/a	0	0	0
1738.656	n/a	WORD	869328	wordpools/wasnorm_wordpool_576.txt	LTP312	ltpFR2	12	8	WRIST	1626	n/a	n/a	0	0	0
1741.22	n/a	WORD	870610	wordpools/wasnorm_wordpool_576.txt	LTP312	ltpFR2	12	8	HAND	683	n/a	n/a	0	0	0
1743.988	n/a	WORD	871994	wordpools/wasnorm_wordpool_576.txt	LTP312	ltpFR2	12	8	TROMBONE	1508	n/a	n/a	0	0	0
1746.474	n/a	WORD	873237	wordpools/wasnorm_wordpool_576.txt	LTP312	ltpFR2	12	8	ANKLE	24	n/a	n/a	0	0	0
1748.974	n/a	WORD	874487	wordpools/wasnorm_wordpool_576.txt	LTP312	ltpFR2	12	8	COTTAGE	384	n/a	n/a	0	0	0
1751.542	n/a	WORD	875771	wordpools/wasnorm_wordpool_576.txt	LTP312	ltpFR2	12	8	LEOPARD	812	n/a	n/a	0	0	0
1754.268	n/a	WORD	877134	wordpools/wasnorm_wordpool_576.txt	LTP312	ltpFR2	12	8	FINGER	567	n/a	n/a	0	0	0
1756.698	n/a	WORD	878349	wordpools/wasnorm_wordpool_576.txt	LTP312	ltpFR2	12	8	GLOVE	642	n/a	n/a	0	0	0
1759.322	n/a	WORD	879661	wordpools/wasnorm_wordpool_576.txt	LTP312	ltpFR2	12	8	PROTON	1132	n/a	n/a	0	0	0
1761.908	n/a	WORD	880954	wordpools/wasnorm_wordpool_576.txt	LTP312	ltpFR2	12	8	APPLE	33	n/a	n/a	0	0	0
1764.37	n/a	WORD	882185	wordpools/wasnorm_wordpool_576.txt	LTP312	ltpFR2	12	8	GRAVEL	659	n/a	n/a	0	0	0
1765.98	n/a	START	882990	n/a	LTP312	ltpFR2	12	n/a	n/a	n/a	12	n/a	n/a	n/a	n/a
1767.09	n/a	DISTRACTOR	883545	n/a	LTP312	ltpFR2	12	8	n/a	n/a	n/a	n/a	0	0	0
1767.098	n/a	PROB	883549	n/a	LTP312	ltpFR2	12	n/a	n/a	n/a	12	19	5	7	7
1768.808	n/a	PROB	884404	n/a	LTP312	ltpFR2	12	n/a	n/a	n/a	12	16	6	5	5
1769.942	n/a	PROB	884971	n/a	LTP312	ltpFR2	12	n/a	n/a	n/a	12	14	3	9	2
1771.908	n/a	PROB	885954	n/a	LTP312	ltpFR2	12	n/a	n/a	n/a	12	17	8	4	5
1773.842	n/a	PROB	886921	n/a	LTP312	ltpFR2	12	n/a	n/a	n/a	12	9	1	1	7
1774.912	n/a	PROB	887456	n/a	LTP312	ltpFR2	12	n/a	n/a	n/a	12	23	7	9	7
1776.378	n/a	PROB	888189	n/a	LTP312	ltpFR2	12	n/a	n/a	n/a	12	10	5	2	3
1777.514	n/a	PROB	888757	n/a	LTP312	ltpFR2	12	n/a	n/a	n/a	12	19	8	8	3
1778.932	n/a	PROB	889466	n/a	LTP312	ltpFR2	12	n/a	n/a	n/a	12	17	9	2	6
1780.65	n/a	PROB	890325	n/a	LTP312	ltpFR2	12	n/a	n/a	n/a	12	10	5	3	2
1781.918	n/a	PROB	890959	n/a	LTP312	ltpFR2	12	n/a	n/a	n/a	12	15	4	6	5
1782.984	n/a	PROB	891492	n/a	LTP312	ltpFR2	12	n/a	n/a	n/a	12	16	4	5	7
1784.618	n/a	PROB	892309	n/a	LTP312	ltpFR2	12	n/a	n/a	n/a	12	21	7	7	7
1785.72	n/a	PROB	892860	n/a	LTP312	ltpFR2	12	n/a	n/a	n/a	12	20	7	7	6
1787.67	n/a	PROB	893835	n/a	LTP312	ltpFR2	12	n/a	n/a	n/a	12	17	6	3	8
1789.212	n/a	STOP	894606	n/a	LTP312	ltpFR2	12	n/a	n/a	n/a	12	n/a	n/a	n/a	n/a
1791.824	n/a	REC_START	895912	n/a	LTP312	ltpFR2	12	8	n/a	n/a	n/a	n/a	0	0	0
1793.698	n/a	REC_WORD	896849	wordpools/wasnorm_wordpool_576.txt	LTP312	ltpFR2	12	8	APPLE	33	n/a	n/a	0	0	0
1794.904	n/a	REC_WORD	897452	wordpools/wasnorm_wordpool_576.txt	LTP312	ltpFR2	12	8	PROTON	1132	n/a	n/a	0	0	0
1796.694	n/a	REC_WORD	898347	wordpools/wasnorm_wordpool_576.txt	LTP312	ltpFR2	12	8	GIFT	635	n/a	n/a	0	0	0
1868.366	n/a	REST_REWET	934183	n/a	LTP312	ltpFR2	12	8	n/a	n/a	n/a	n/a	0	0	0
2280.354	n/a	WORD	1140177	wordpools/wasnorm_wordpool_576.txt	LTP312	ltpFR2	12	9	TRACTOR	1493	n/a	n/a	0	0	0
2283.04	n/a	WORD	1141520	wordpools/wasnorm_wordpool_576.txt	LTP312	ltpFR2	12	9	LONDON	843	n/a	n/a	0	0	0
2285.47	n/a	WORD	1142735	wordpools/wasnorm_wordpool_576.txt	LTP312	ltpFR2	12	9	ROCKET	1202	n/a	n/a	0	0	0
2288.006	n/a	WORD	1144003	wordpools/wasnorm_wordpool_576.txt	LTP312	ltpFR2	12	9	LADDER	793	n/a	n/a	0	0	0
2290.524	n/a	WORD	1145262	wordpools/wasnorm_wordpool_576.txt	LTP312	ltpFR2	12	9	FUNGUS	614	n/a	n/a	0	0	0
2293.078	n/a	WORD	1146539	wordpools/wasnorm_wordpool_576.txt	LTP312	ltpFR2	12	9	PRINCESS	1125	n/a	n/a	0	0	0
2295.534	n/a	WORD	1147767	wordpools/wasnorm_wordpool_576.txt	LTP312	ltpFR2	12	9	FIREMAN	569	n/a	n/a	0	0	0
2298.32	n/a	WORD	1149160	wordpools/wasnorm_wordpool_576.txt	LTP312	ltpFR2	12	9	PISTON	1076	n/a	n/a	0	0	0
2301.066	n/a	WORD	1150533	wordpools/wasnorm_wordpool_576.txt	LTP312	ltpFR2	12	9	EUROPE	541	n/a	n/a	0	0	0
2303.502	n/a	WORD	1151751	wordpools/wasnorm_wordpool_576.txt	LTP312	ltpFR2	12	9	SALAD	1224	n/a	n/a	0	0	0
2306.076	n/a	WORD	1153038	wordpools/wasnorm_wordpool_576.txt	LTP312	ltpFR2	12	9	BOUQUET	157	n/a	n/a	0	0	0
2308.84	n/a	WORD	1154420	wordpools/wasnorm_wordpool_576.txt	LTP312	ltpFR2	12	9	RELISH	1183	n/a	n/a	0	0	0
2311.29	n/a	WORD	1155645	wordpools/wasnorm_wordpool_576.txt	LTP312	ltpFR2	12	9	PLIERS	1089	n/a	n/a	0	0	0
2313.778	n/a	WORD	1156889	wordpools/wasnorm_wordpool_576.txt	LTP312	ltpFR2	12	9	SPACE	1345	n/a	n/a	0	0	0
2316.528	n/a	WORD	1158264	wordpools/wasnorm_wordpool_576.txt	LTP312	ltpFR2	12	9	DANDRUFF	439	n/a	n/a	0	0	0
2318.97	n/a	WORD	1159485	wordpools/wasnorm_wordpool_576.txt	LTP312	ltpFR2	12	9	KNAPSACK	783	n/a	n/a	0	0	0
2321.45	n/a	WORD	1160725	wordpools/wasnorm_wordpool_576.txt	LTP312	ltpFR2	12	9	JELLY	755	n/a	n/a	0	0	0
2324.186	n/a	WORD	1162093	wordpools/wasnorm_wordpool_576.txt	LTP312	ltpFR2	12	9	SUBWAY	1400	n/a	n/a	0	0	0
2326.656	n/a	WORD	1163328	wordpools/wasnorm_wordpool_576.txt	LTP312	ltpFR2	12	9	BURGLAR	200	n/a	n/a	0	0	0
2329.108	n/a	WORD	1164554	wordpools/wasnorm_wordpool_576.txt	LTP312	ltpFR2	12	9	THIEF	1456	n/a	n/a	0	0	0
2331.776	n/a	WORD	1165888	wordpools/wasnorm_wordpool_576.txt	LTP312	ltpFR2	12	9	SHARK	1275	n/a	n/a	0	0	0
2334.378	n/a	WORD	1167189	wordpools/wasnorm_wordpool_576.txt	LTP312	ltpFR2	12	9	SEAFOOD	1260	n/a	n/a	0	0	0
2337.15	n/a	WORD	1168575	wordpools/wasnorm_wordpool_576.txt	LTP312	ltpFR2	12	9	COFFEE	341	n/a	n/a	0	0	0
2339.848	n/a	WORD	1169924	wordpools/wasnorm_wordpool_576.txt	LTP312	ltpFR2	12	9	BABY	64	n/a	n/a	0	0	0
2341.454	n/a	START	1170727	n/a	LTP312	ltpFR2	12	n/a	n/a	n/a	13	n/a	n/a	n/a	n/a
2342.262	n/a	DISTRACTOR	1171131	n/a	LTP312	ltpFR2	12	9	n/a	n/a	n/a	n/a	0	0	0
2342.268	n/a	PROB	1171134	n/a	LTP312	ltpFR2	12	n/a	n/a	n/a	13	21	4	8	9
2344.102	n/a	PROB	1172051	n/a	LTP312	ltpFR2	12	n/a	n/a	n/a	13	7	1	2	4
2345.27	n/a	PROB	1172635	n/a	LTP312	ltpFR2	12	n/a	n/a	n/a	13	9	3	3	3
2347.006	n/a	PROB	1173503	n/a	LTP312	ltpFR2	12	n/a	n/a	n/a	13	7	3	1	3
2348.272	n/a	PROB	1174136	n/a	LTP312	ltpFR2	12	n/a	n/a	n/a	13	16	7	1	8
2349.924	n/a	PROB	1174962	n/a	LTP312	ltpFR2	12	n/a	n/a	n/a	13	16	6	6	4
2351.208	n/a	PROB	1175604	n/a	LTP312	ltpFR2	12	n/a	n/a	n/a	13	13	7	4	2
2353.676	n/a	PROB	1176838	n/a	LTP312	ltpFR2	12	n/a	n/a	n/a	13	17	3	8	6
2355.23	n/a	PROB	1177615	n/a	LTP312	ltpFR2	12	n/a	n/a	n/a	13	18	7	3	8
2356.382	n/a	PROB	1178191	n/a	LTP312	ltpFR2	12	n/a	n/a	n/a	13	11	6	2	3
2357.714	n/a	PROB	1178857	n/a	LTP312	ltpFR2	12	n/a	n/a	n/a	13	17	5	6	6
2359.1	n/a	PROB	1179550	n/a	LTP312	ltpFR2	12	n/a	n/a	n/a	13	15	6	5	4
2360.336	n/a	PROB	1180168	n/a	LTP312	ltpFR2	12	n/a	n/a	n/a	13	17	3	8	6
2362.32	n/a	PROB	1181160	n/a	LTP312	ltpFR2	12	n/a	n/a	n/a	13	25	9	7	9
2364.228	n/a	STOP	1182114	n/a	LTP312	ltpFR2	12	n/a	n/a	n/a	13	n/a	n/a	n/a	n/a
2367.374	n/a	REC_START	1183687	n/a	LTP312	ltpFR2	12	9	n/a	n/a	n/a	n/a	0	0	0
2368.346	n/a	REC_WORD	1184173	wordpools/wasnorm_wordpool_576.txt	LTP312	ltpFR2	12	9	FUNGUS	614	n/a	n/a	0	0	0
2369.448	n/a	REC_WORD	1184724	wordpools/wasnorm_wordpool_576.txt	LTP312	ltpFR2	12	9	PRINCESS	1125	n/a	n/a	0	0	0
2371.092	n/a	REC_WORD	1185546	wordpools/wasnorm_wordpool_576.txt	LTP312	ltpFR2	12	9	SEAFOOD	1260	n/a	n/a	0	0	0
2372.098	n/a	REC_WORD	1186049	wordpools/wasnorm_wordpool_576.txt	LTP312	ltpFR2	12	9	COFFEE	341	n/a	n/a	0	0	0
2375.04	n/a	REC_WORD	1187520	wordpools/wasnorm_wordpool_576.txt	LTP312	ltpFR2	12	9	BABY	64	n/a	n/a	0	0	0
2377.626	n/a	REC_WORD	1188813	wordpools/wasnorm_wordpool_576.txt	LTP312	ltpFR2	12	9	SHARK	1275	n/a	n/a	0	0	0
2378.626	n/a	REC_WORD	1189313	wordpools/wasnorm_wordpool_576.txt	LTP312	ltpFR2	12	9	THIEF	1456	n/a	n/a	0	0	0
2380.044	n/a	REC_WORD	1190022	wordpools/wasnorm_wordpool_576.txt	LTP312	ltpFR2	12	9	SUBWAY	1400	n/a	n/a	0	0	0
2381.104	n/a	REC_WORD	1190552	wordpools/wasnorm_wordpool_576.txt	LTP312	ltpFR2	12	9	BURGLAR	200	n/a	n/a	0	0	0
2393.428	n/a	REC_WORD	1196714	wordpools/wasnorm_wordpool_576.txt	LTP312	ltpFR2	12	9	ROCKET	1202	n/a	n/a	0	0	0
2396.018	n/a	REC_WORD	1198009	wordpools/wasnorm_wordpool_576.txt	LTP312	ltpFR2	12	9	TRACTOR	1493	n/a	n/a	0	0	0
2397.124	n/a	REC_WORD	1198562	wordpools/wasnorm_wordpool_576.txt	LTP312	ltpFR2	12	9	LONDON	843	n/a	n/a	0	0	0
2457.796	n/a	DISTRACTOR	1228898	n/a	LTP312	ltpFR2	12	10	n/a	n/a	n/a	n/a	0	0	0
2457.796	n/a	START	1228898	n/a	LTP312	ltpFR2	12	n/a	n/a	n/a	14	n/a	n/a	n/a	n/a
2457.81	n/a	PROB	1228905	n/a	LTP312	ltpFR2	12	n/a	n/a	n/a	14	19	9	3	7
2459.328	n/a	PROB	1229664	n/a	LTP312	ltpFR2	12	n/a	n/a	n/a	14	12	6	5	1
2460.614	n/a	PROB	1230307	n/a	LTP312	ltpFR2	12	n/a	n/a	n/a	14	13	6	5	2
2461.93	n/a	PROB	1230965	n/a	LTP312	ltpFR2	12	n/a	n/a	n/a	14	16	1	7	8
2463.48	n/a	PROB	1231740	n/a	LTP312	ltpFR2	12	n/a	n/a	n/a	14	10	4	2	4
2464.93	n/a	PROB	1232465	n/a	LTP312	ltpFR2	12	n/a	n/a	n/a	14	15	5	3	7
2466.1	n/a	PROB	1233050	n/a	LTP312	ltpFR2	12	n/a	n/a	n/a	14	19	1	9	9
2467.25	n/a	PROB	1233625	n/a	LTP312	ltpFR2	12	n/a	n/a	n/a	14	19	6	8	5
2469.302	n/a	PROB	1234651	n/a	LTP312	ltpFR2	12	n/a	n/a	n/a	14	19	6	4	9
2470.42	n/a	PROB	1235210	n/a	LTP312	ltpFR2	12	n/a	n/a	n/a	14	22	8	6	8
2472.404	n/a	PROB	1236202	n/a	LTP312	ltpFR2	12	n/a	n/a	n/a	14	22	7	9	8
2474.938	n/a	PROB	1237469	n/a	LTP312	ltpFR2	12	n/a	n/a	n/a	14	12	9	1	2
2476.342	n/a	PROB	1238171	n/a	LTP312	ltpFR2	12	n/a	n/a	n/a	14	16	3	7	6
2477.524	n/a	PROB	1238762	n/a	LTP312	ltpFR2	12	n/a	n/a	n/a	14	16	9	3	4
2479.226	n/a	PROB	1239613	n/a	LTP312	ltpFR2	12	n/a	n/a	n/a	14	10	4	5	1
2480.302	n/a	STOP	1240151	n/a	LTP312	ltpFR2	12	n/a	n/a	n/a	14	n/a	n/a	n/a	n/a
2482.63	n/a	WORD	1241315	wordpools/wasnorm_wordpool_576.txt	LTP312	ltpFR2	12	10	BELLY	119	n/a	n/a	0	0	0
2485.4	n/a	WORD	1242700	wordpools/wasnorm_wordpool_576.txt	LTP312	ltpFR2	12	10	SAUSAGE	1238	n/a	n/a	0	0	0
2488.202	n/a	WORD	1244101	wordpools/wasnorm_wordpool_576.txt	LTP312	ltpFR2	12	10	BARLEY	88	n/a	n/a	0	0	0
2490.844	n/a	WORD	1245422	wordpools/wasnorm_wordpool_576.txt	LTP312	ltpFR2	12	10	LETTUCE	814	n/a	n/a	0	0	0
2493.646	n/a	WORD	1246823	wordpools/wasnorm_wordpool_576.txt	LTP312	ltpFR2	12	10	PLAID	1080	n/a	n/a	0	0	0
2496.458	n/a	WORD	1248229	wordpools/wasnorm_wordpool_576.txt	LTP312	ltpFR2	12	10	SCARECROW	1245	n/a	n/a	0	0	0
2499.06	n/a	WORD	1249530	wordpools/wasnorm_wordpool_576.txt	LTP312	ltpFR2	12	10	WINDOW	1611	n/a	n/a	0	0	0
2501.854	n/a	WORD	1250927	wordpools/wasnorm_wordpool_576.txt	LTP312	ltpFR2	12	10	DANCER	437	n/a	n/a	0	0	0
2504.572	n/a	WORD	1252286	wordpools/wasnorm_wordpool_576.txt	LTP312	ltpFR2	12	10	GUITAR	670	n/a	n/a	0	0	0
2507.34	n/a	WORD	1253670	wordpools/wasnorm_wordpool_576.txt	LTP312	ltpFR2	12	10	ANTLER	29	n/a	n/a	0	0	0
2509.818	n/a	WORD	1254909	wordpools/wasnorm_wordpool_576.txt	LTP312	ltpFR2	12	10	MARKET	871	n/a	n/a	0	0	0
2512.386	n/a	WORD	1256193	wordpools/wasnorm_wordpool_576.txt	LTP312	ltpFR2	12	10	PLAZA	1088	n/a	n/a	0	0	0
2515.19	n/a	WORD	1257595	wordpools/wasnorm_wordpool_576.txt	LTP312	ltpFR2	12	10	CASHEW	253	n/a	n/a	0	0	0
2517.724	n/a	WORD	1258862	wordpools/wasnorm_wordpool_576.txt	LTP312	ltpFR2	12	10	FLAG	573	n/a	n/a	0	0	0
2520.426	n/a	WORD	1260213	wordpools/wasnorm_wordpool_576.txt	LTP312	ltpFR2	12	10	CREVICE	405	n/a	n/a	0	0	0
2523.238	n/a	WORD	1261619	wordpools/wasnorm_wordpool_576.txt	LTP312	ltpFR2	12	10	DOUGHNUT	490	n/a	n/a	0	0	0
2525.774	n/a	WORD	1262887	wordpools/wasnorm_wordpool_576.txt	LTP312	ltpFR2	12	10	POISON	1096	n/a	n/a	0	0	0
2528.248	n/a	WORD	1264124	wordpools/wasnorm_wordpool_576.txt	LTP312	ltpFR2	12	10	WHISTLE	1606	n/a	n/a	0	0	0
2530.9	n/a	WORD	1265450	wordpools/wasnorm_wordpool_576.txt	LTP312	ltpFR2	12	10	PECAN	1036	n/a	n/a	0	0	0
2533.564	n/a	WORD	1266782	wordpools/wasnorm_wordpool_576.txt	LTP312	ltpFR2	12	10	WIDOW	1608	n/a	n/a	0	0	0
2536.022	n/a	WORD	1268011	wordpools/wasnorm_wordpool_576.txt	LTP312	ltpFR2	12	10	BINDER	127	n/a	n/a	0	0	0
2538.684	n/a	WORD	1269342	wordpools/wasnorm_wordpool_576.txt	LTP312	ltpFR2	12	10	ARMY	39	n/a	n/a	0	0	0
2541.254	n/a	WORD	1270627	wordpools/wasnorm_wordpool_576.txt	LTP312	ltpFR2	12	10	HORSE	719	n/a	n/a	0	0	0
2543.862	n/a	WORD	1271931	wordpools/wasnorm_wordpool_576.txt	LTP312	ltpFR2	12	10	STOVE	1388	n/a	n/a	0	0	0
2545.474	n/a	START	1272737	n/a	LTP312	ltpFR2	12	n/a	n/a	n/a	15	n/a	n/a	n/a	n/a
2546.51	n/a	DISTRACTOR	1273255	n/a	LTP312	ltpFR2	12	10	n/a	n/a	n/a	n/a	0	0	0
2546.526	n/a	PROB	1273263	n/a	LTP312	ltpFR2	12	n/a	n/a	n/a	15	12	3	4	5
2548.414	n/a	PROB	1274207	n/a	LTP312	ltpFR2	12	n/a	n/a	n/a	15	13	9	3	1
2549.548	n/a	PROB	1274774	n/a	LTP312	ltpFR2	12	n/a	n/a	n/a	15	17	7	1	9
2550.732	n/a	PROB	1275366	n/a	LTP312	ltpFR2	12	n/a	n/a	n/a	15	15	5	2	8
2551.9	n/a	PROB	1275950	n/a	LTP312	ltpFR2	12	n/a	n/a	n/a	15	21	8	9	4
2554.918	n/a	PROB	1277459	n/a	LTP312	ltpFR2	12	n/a	n/a	n/a	15	9	1	4	4
2556.07	n/a	PROB	1278035	n/a	LTP312	ltpFR2	12	n/a	n/a	n/a	15	8	5	2	1
2557.406	n/a	PROB	1278703	n/a	LTP312	ltpFR2	12	n/a	n/a	n/a	15	10	1	8	1
2558.488	n/a	PROB	1279244	n/a	LTP312	ltpFR2	12	n/a	n/a	n/a	15	16	2	6	9
2560.69	n/a	PROB	1280345	n/a	LTP312	ltpFR2	12	n/a	n/a	n/a	15	16	8	7	1
2562.508	n/a	PROB	1281254	n/a	LTP312	ltpFR2	12	n/a	n/a	n/a	15	16	6	9	1
2563.91	n/a	PROB	1281955	n/a	LTP312	ltpFR2	12	n/a	n/a	n/a	15	20	2	9	9
2565.21	n/a	PROB	1282605	n/a	LTP312	ltpFR2	12	n/a	n/a	n/a	15	13	2	2	9
2567.364	n/a	PROB	1283682	n/a	LTP312	ltpFR2	12	n/a	n/a	n/a	15	11	3	1	7
2568.352	n/a	STOP	1284176	n/a	LTP312	ltpFR2	12	n/a	n/a	n/a	15	n/a	n/a	n/a	n/a
2571.344	n/a	REC_START	1285672	n/a	LTP312	ltpFR2	12	10	n/a	n/a	n/a	n/a	0	0	0
2571.944	n/a	REC_WORD	1285972	wordpools/wasnorm_wordpool_576.txt	LTP312	ltpFR2	12	10	BELLY	119	n/a	n/a	0	0	0
2572.812	n/a	REC_WORD	1286406	wordpools/wasnorm_wordpool_576.txt	LTP312	ltpFR2	12	10	SAUSAGE	1238	n/a	n/a	0	0	0
2573.812	n/a	REC_WORD_VV	1286906	wordpools/wasnorm_wordpool_576.txt	LTP312	ltpFR2	12	10	<>	-1	n/a	n/a	0	0	0
2574.318	n/a	REC_WORD	1287159	wordpools/wasnorm_wordpool_576.txt	LTP312	ltpFR2	12	10	BARLEY	88	n/a	n/a	0	0	0
2575.424	n/a	REC_WORD	1287712	wordpools/wasnorm_wordpool_576.txt	LTP312	ltpFR2	12	10	LETTUCE	814	n/a	n/a	0	0	0
2576.954	n/a	REC_WORD	1288477	wordpools/wasnorm_wordpool_576.txt	LTP312	ltpFR2	12	10	WINDOW	1611	n/a	n/a	0	0	0
2578.128	n/a	REC_WORD	1289064	wordpools/wasnorm_wordpool_576.txt	LTP312	ltpFR2	12	10	DANCER	437	n/a	n/a	0	0	0
2579.82	n/a	REC_WORD	1289910	wordpools/wasnorm_wordpool_576.txt	LTP312	ltpFR2	12	10	ANTLER	29	n/a	n/a	0	0	0
2581.566	n/a	REC_WORD	1290783	wordpools/wasnorm_wordpool_576.txt	LTP312	ltpFR2	12	10	POISON	1096	n/a	n/a	0	0	0
2582.736	n/a	REC_WORD	1291368	wordpools/wasnorm_wordpool_576.txt	LTP312	ltpFR2	12	10	WHISTLE	1606	n/a	n/a	0	0	0
2584.742	n/a	REC_WORD	1292371	wordpools/wasnorm_wordpool_576.txt	LTP312	ltpFR2	12	10	WIDOW	1608	n/a	n/a	0	0	0
2587.464	n/a	REC_WORD	1293732	wordpools/wasnorm_wordpool_576.txt	LTP312	ltpFR2	12	10	HORSE	719	n/a	n/a	0	0	0
2588.596	n/a	REC_WORD	1294298	wordpools/wasnorm_wordpool_576.txt	LTP312	ltpFR2	12	10	STOVE	1388	n/a	n/a	0	0	0
2592.504	n/a	REC_WORD	1296252	wordpools/wasnorm_wordpool_576.txt	LTP312	ltpFR2	12	10	ARMY	39	n/a	n/a	0	0	0
2603.632	n/a	REC_WORD	1301816	wordpools/wasnorm_wordpool_576.txt	LTP312	ltpFR2	12	10	GUITAR	670	n/a	n/a	0	0	0
2661.786	n/a	WORD	1330893	wordpools/wasnorm_wordpool_576.txt	LTP312	ltpFR2	12	11	CUSTARD	429	n/a	n/a	0	0	0
2664.588	n/a	WORD	1332294	wordpools/wasnorm_wordpool_576.txt	LTP312	ltpFR2	12	11	LEADER	807	n/a	n/a	0	0	0
2667.274	n/a	WORD	1333637	wordpools/wasnorm_wordpool_576.txt	LTP312	ltpFR2	12	11	TYPIST	1532	n/a	n/a	0	0	0
2669.86	n/a	WORD	1334930	wordpools/wasnorm_wordpool_576.txt	LTP312	ltpFR2	12	11	BRIEFCASE	175	n/a	n/a	0	0	0
2672.446	n/a	WORD	1336223	wordpools/wasnorm_wordpool_576.txt	LTP312	ltpFR2	12	11	CHAUFFEUR	283	n/a	n/a	0	0	0
2675.014	n/a	WORD	1337507	wordpools/wasnorm_wordpool_576.txt	LTP312	ltpFR2	12	11	WAGON	1578	n/a	n/a	0	0	0
2677.648	n/a	WORD	1338824	wordpools/wasnorm_wordpool_576.txt	LTP312	ltpFR2	12	11	NIGHTGOWN	953	n/a	n/a	0	0	0
2680.234	n/a	WORD	1340117	wordpools/wasnorm_wordpool_576.txt	LTP312	ltpFR2	12	11	HAWK	692	n/a	n/a	0	0	0
2682.686	n/a	WORD	1341343	wordpools/wasnorm_wordpool_576.txt	LTP312	ltpFR2	12	11	OFFICE	972	n/a	n/a	0	0	0
2685.126	n/a	WORD	1342563	wordpools/wasnorm_wordpool_576.txt	LTP312	ltpFR2	12	11	TURNIP	1521	n/a	n/a	0	0	0
2687.64	n/a	WORD	1343820	wordpools/wasnorm_wordpool_576.txt	LTP312	ltpFR2	12	11	TREAT	1501	n/a	n/a	0	0	0
2690.28	n/a	WORD	1345140	wordpools/wasnorm_wordpool_576.txt	LTP312	ltpFR2	12	11	CANDY	230	n/a	n/a	0	0	0
2692.896	n/a	WORD	1346448	wordpools/wasnorm_wordpool_576.txt	LTP312	ltpFR2	12	11	LUGGAGE	847	n/a	n/a	0	0	0
2695.312	n/a	WORD	1347656	wordpools/wasnorm_wordpool_576.txt	LTP312	ltpFR2	12	11	TURKEY	1520	n/a	n/a	0	0	0
2698.014	n/a	WORD	1349007	wordpools/wasnorm_wordpool_576.txt	LTP312	ltpFR2	12	11	PIZZA	1079	n/a	n/a	0	0	0
2700.784	n/a	WORD	1350392	wordpools/wasnorm_wordpool_576.txt	LTP312	ltpFR2	12	11	BLENDER	136	n/a	n/a	0	0	0
2703.352	n/a	WORD	1351676	wordpools/wasnorm_wordpool_576.txt	LTP312	ltpFR2	12	11	SUPPER	1411	n/a	n/a	0	0	0
2705.928	n/a	WORD	1352964	wordpools/wasnorm_wordpool_576.txt	LTP312	ltpFR2	12	11	SPOOL	1356	n/a	n/a	0	0	0
2708.672	n/a	WORD	1354336	wordpools/wasnorm_wordpool_576.txt	LTP312	ltpFR2	12	11	POWDER	1117	n/a	n/a	0	0	0
2711.426	n/a	WORD	1355713	wordpools/wasnorm_wordpool_576.txt	LTP312	ltpFR2	12	11	JURY	766	n/a	n/a	0	0	0
2714.13	n/a	WORD	1357065	wordpools/wasnorm_wordpool_576.txt	LTP312	ltpFR2	12	11	EAGLE	512	n/a	n/a	0	0	0
2716.736	n/a	WORD	1358368	wordpools/wasnorm_wordpool_576.txt	LTP312	ltpFR2	12	11	MATTRESS	879	n/a	n/a	0	0	0
2719.188	n/a	WORD	1359594	wordpools/wasnorm_wordpool_576.txt	LTP312	ltpFR2	12	11	INFANT	737	n/a	n/a	0	0	0
2721.622	n/a	WORD	1360811	wordpools/wasnorm_wordpool_576.txt	LTP312	ltpFR2	12	11	GOBLIN	645	n/a	n/a	0	0	0
2723.236	n/a	START	1361618	n/a	LTP312	ltpFR2	12	n/a	n/a	n/a	16	n/a	n/a	n/a	n/a
2724.262	n/a	DISTRACTOR	1362131	n/a	LTP312	ltpFR2	12	11	n/a	n/a	n/a	n/a	0	0	0
2724.268	n/a	PROB	1362134	n/a	LTP312	ltpFR2	12	n/a	n/a	n/a	16	21	8	5	8
2725.986	n/a	PROB	1362993	n/a	LTP312	ltpFR2	12	n/a	n/a	n/a	16	16	8	6	2
2728.522	n/a	PROB	1364261	n/a	LTP312	ltpFR2	12	n/a	n/a	n/a	16	10	4	4	2
2729.74	n/a	PROB	1364870	n/a	LTP312	ltpFR2	12	n/a	n/a	n/a	16	12	5	4	3
2731.156	n/a	PROB	1365578	n/a	LTP312	ltpFR2	12	n/a	n/a	n/a	16	12	8	2	2
2732.274	n/a	PROB	1366137	n/a	LTP312	ltpFR2	12	n/a	n/a	n/a	16	6	1	3	2
2733.324	n/a	PROB	1366662	n/a	LTP312	ltpFR2	12	n/a	n/a	n/a	16	14	1	7	6
2734.608	n/a	PROB	1367304	n/a	LTP312	ltpFR2	12	n/a	n/a	n/a	16	19	9	6	4
2736.178	n/a	PROB	1368089	n/a	LTP312	ltpFR2	12	n/a	n/a	n/a	16	11	1	5	5
2737.278	n/a	PROB	1368639	n/a	LTP312	ltpFR2	12	n/a	n/a	n/a	16	25	9	8	8
2739.28	n/a	PROB	1369640	n/a	LTP312	ltpFR2	12	n/a	n/a	n/a	16	17	1	8	8
2740.764	n/a	PROB	1370382	n/a	LTP312	ltpFR2	12	n/a	n/a	n/a	16	15	5	7	3
2741.916	n/a	PROB	1370958	n/a	LTP312	ltpFR2	12	n/a	n/a	n/a	16	22	9	5	8
2744.218	n/a	PROB	1372109	n/a	LTP312	ltpFR2	12	n/a	n/a	n/a	16	18	9	3	6
2745.534	n/a	PROB	1372767	n/a	LTP312	ltpFR2	12	n/a	n/a	n/a	16	13	7	3	3
2746.716	n/a	STOP	1373358	n/a	LTP312	ltpFR2	12	n/a	n/a	n/a	16	n/a	n/a	n/a	n/a
2748.986	n/a	REC_START	1374493	n/a	LTP312	ltpFR2	12	11	n/a	n/a	n/a	n/a	0	0	0
2749.836	n/a	REC_WORD	1374918	wordpools/wasnorm_wordpool_576.txt	LTP312	ltpFR2	12	11	CUSTARD	429	n/a	n/a	0	0	0
2751.074	n/a	REC_WORD	1375537	wordpools/wasnorm_wordpool_576.txt	LTP312	ltpFR2	12	11	LEADER	807	n/a	n/a	0	0	0
2752.708	n/a	REC_WORD	1376354	wordpools/wasnorm_wordpool_576.txt	LTP312	ltpFR2	12	11	TYPIST	1532	n/a	n/a	0	0	0
2754.328	n/a	REC_WORD	1377164	wordpools/wasnorm_wordpool_576.txt	LTP312	ltpFR2	12	11	SUPPER	1411	n/a	n/a	0	0	0
2755.684	n/a	REC_WORD	1377842	wordpools/wasnorm_wordpool_576.txt	LTP312	ltpFR2	12	11	BLENDER	136	n/a	n/a	0	0	0
2759.172	n/a	REC_WORD	1379586	wordpools/wasnorm_wordpool_576.txt	LTP312	ltpFR2	12	11	GOBLIN	645	n/a	n/a	0	0	0
2811.858	n/a	REC_WORD	1405929	wordpools/wasnorm_wordpool_576.txt	LTP312	ltpFR2	12	11	EAGLE	512	n/a	n/a	0	0	0
2813.038	n/a	REC_WORD	1406519	wordpools/wasnorm_wordpool_576.txt	LTP312	ltpFR2	12	11	JUDGE	761	n/a	n/a	0	0	0
2814.86	n/a	REC_WORD	1407430	wordpools/wasnorm_wordpool_576.txt	LTP312	ltpFR2	12	11	INFANT	737	n/a	n/a	0	0	0
2815.798	n/a	REC_WORD	1407899	wordpools/wasnorm_wordpool_576.txt	LTP312	ltpFR2	12	11	MATTRESS	879	n/a	n/a	0	0	0
2839.442	n/a	DISTRACTOR	1419721	n/a	LTP312	ltpFR2	12	12	n/a	n/a	n/a	n/a	0	0	0
2839.442	n/a	START	1419721	n/a	LTP312	ltpFR2	12	n/a	n/a	n/a	17	n/a	n/a	n/a	n/a
2839.458	n/a	PROB	1419729	n/a	LTP312	ltpFR2	12	n/a	n/a	n/a	17	25	9	7	9
2841.26	n/a	PROB	1420630	n/a	LTP312	ltpFR2	12	n/a	n/a	n/a	17	20	6	8	6
2842.758	n/a	PROB	1421379	n/a	LTP312	ltpFR2	12	n/a	n/a	n/a	17	23	9	8	6
2845.292	n/a	PROB	1422646	n/a	LTP312	ltpFR2	12	n/a	n/a	n/a	17	15	4	6	5
2848.282	n/a	PROB	1424141	n/a	LTP312	ltpFR2	12	n/a	n/a	n/a	17	11	6	3	2
2849.548	n/a	PROB	1424774	n/a	LTP312	ltpFR2	12	n/a	n/a	n/a	17	16	5	9	2
2851.902	n/a	PROB	1425951	n/a	LTP312	ltpFR2	12	n/a	n/a	n/a	17	22	6	7	9
2854.768	n/a	PROB	1427384	n/a	LTP312	ltpFR2	12	n/a	n/a	n/a	17	20	5	9	6
2856.556	n/a	PROB	1428278	n/a	LTP312	ltpFR2	12	n/a	n/a	n/a	17	8	5	1	2
2857.606	n/a	PROB	1428803	n/a	LTP312	ltpFR2	12	n/a	n/a	n/a	17	15	3	3	9
2858.938	n/a	PROB	1429469	n/a	LTP312	ltpFR2	12	n/a	n/a	n/a	17	13	3	3	7
2860.54	n/a	PROB	1430270	n/a	LTP312	ltpFR2	12	n/a	n/a	n/a	17	10	7	2	1
2861.692	n/a	PROB	1430846	n/a	LTP312	ltpFR2	12	n/a	n/a	n/a	17	11	1	9	1
2863.22	n/a	STOP	1431610	n/a	LTP312	ltpFR2	12	n/a	n/a	n/a	17	n/a	n/a	n/a	n/a
2864.462	n/a	WORD	1432231	wordpools/wasnorm_wordpool_576.txt	LTP312	ltpFR2	12	12	SEAGULL	1261	n/a	n/a	0	0	0
2867.114	n/a	WORD	1433557	wordpools/wasnorm_wordpool_576.txt	LTP312	ltpFR2	12	12	RUST	1219	n/a	n/a	0	0	0
2869.632	n/a	WORD	1434816	wordpools/wasnorm_wordpool_576.txt	LTP312	ltpFR2	12	12	MATCH	878	n/a	n/a	0	0	0
2872.118	n/a	WORD	1436059	wordpools/wasnorm_wordpool_576.txt	LTP312	ltpFR2	12	12	COSTUME	383	n/a	n/a	0	0	0
2874.788	n/a	WORD	1437394	wordpools/wasnorm_wordpool_576.txt	LTP312	ltpFR2	12	12	SCISSORS	1250	n/a	n/a	0	0	0
2877.422	n/a	WORD	1438711	wordpools/wasnorm_wordpool_576.txt	LTP312	ltpFR2	12	12	RAZOR	1171	n/a	n/a	0	0	0
2880.074	n/a	WORD	1440037	wordpools/wasnorm_wordpool_576.txt	LTP312	ltpFR2	12	12	BOYFRIEND	162	n/a	n/a	0	0	0
2882.642	n/a	WORD	1441321	wordpools/wasnorm_wordpool_576.txt	LTP312	ltpFR2	12	12	MASK	876	n/a	n/a	0	0	0
2885.428	n/a	WORD	1442714	wordpools/wasnorm_wordpool_576.txt	LTP312	ltpFR2	12	12	RIFLE	1192	n/a	n/a	0	0	0
2888.032	n/a	WORD	1444016	wordpools/wasnorm_wordpool_576.txt	LTP312	ltpFR2	12	12	KETCHUP	771	n/a	n/a	0	0	0
2890.482	n/a	WORD	1445241	wordpools/wasnorm_wordpool_576.txt	LTP312	ltpFR2	12	12	OUTFIT	988	n/a	n/a	0	0	0
2893.202	n/a	WORD	1446601	wordpools/wasnorm_wordpool_576.txt	LTP312	ltpFR2	12	12	DRESSER	496	n/a	n/a	0	0	0
2895.652	n/a	WORD	1447826	wordpools/wasnorm_wordpool_576.txt	LTP312	ltpFR2	12	12	BACON	67	n/a	n/a	0	0	0
2898.288	n/a	WORD	1449144	wordpools/wasnorm_wordpool_576.txt	LTP312	ltpFR2	12	12	YOLK	1633	n/a	n/a	0	0	0
2900.974	n/a	WORD	1450487	wordpools/wasnorm_wordpool_576.txt	LTP312	ltpFR2	12	12	FRANCE	601	n/a	n/a	0	0	0
2903.458	n/a	WORD	1451729	wordpools/wasnorm_wordpool_576.txt	LTP312	ltpFR2	12	12	SPIDER	1351	n/a	n/a	0	0	0
2905.96	n/a	WORD	1452980	wordpools/wasnorm_wordpool_576.txt	LTP312	ltpFR2	12	12	FRUIT	610	n/a	n/a	0	0	0
2908.578	n/a	WORD	1454289	wordpools/wasnorm_wordpool_576.txt	LTP312	ltpFR2	12	12	BULLET	194	n/a	n/a	0	0	0
2911.2	n/a	WORD	1455600	wordpools/wasnorm_wordpool_576.txt	LTP312	ltpFR2	12	12	BUG	187	n/a	n/a	0	0	0
2913.884	n/a	WORD	1456942	wordpools/wasnorm_wordpool_576.txt	LTP312	ltpFR2	12	12	VELVET	1555	n/a	n/a	0	0	0
2916.536	n/a	WORD	1458268	wordpools/wasnorm_wordpool_576.txt	LTP312	ltpFR2	12	12	HATCHET	691	n/a	n/a	0	0	0
2919.192	n/a	WORD	1459596	wordpools/wasnorm_wordpool_576.txt	LTP312	ltpFR2	12	12	FEMALE	559	n/a	n/a	0	0	0
2921.876	n/a	WORD	1460938	wordpools/wasnorm_wordpool_576.txt	LTP312	ltpFR2	12	12	CLAM	315	n/a	n/a	0	0	0
2924.412	n/a	WORD	1462206	wordpools/wasnorm_wordpool_576.txt	LTP312	ltpFR2	12	12	NECKLACE	940	n/a	n/a	0	0	0
2926.026	n/a	START	1463013	n/a	LTP312	ltpFR2	12	n/a	n/a	n/a	18	n/a	n/a	n/a	n/a
2926.85	n/a	DISTRACTOR	1463425	n/a	LTP312	ltpFR2	12	12	n/a	n/a	n/a	n/a	0	0	0
2926.86	n/a	PROB	1463430	n/a	LTP312	ltpFR2	12	n/a	n/a	n/a	18	15	8	5	2
2928.792	n/a	PROB	1464396	n/a	LTP312	ltpFR2	12	n/a	n/a	n/a	18	9	1	7	1
2930.044	n/a	PROB	1465022	n/a	LTP312	ltpFR2	12	n/a	n/a	n/a	18	11	5	1	5
2931.112	n/a	PROB	1465556	n/a	LTP312	ltpFR2	12	n/a	n/a	n/a	18	18	9	2	7
2932.98	n/a	PROB	1466490	n/a	LTP312	ltpFR2	12	n/a	n/a	n/a	18	15	9	1	5
2934.046	n/a	PROB	1467023	n/a	LTP312	ltpFR2	12	n/a	n/a	n/a	18	6	1	4	1
2935.132	n/a	PROB	1467566	n/a	LTP312	ltpFR2	12	n/a	n/a	n/a	18	18	8	7	3
2936.352	n/a	PROB	1468176	n/a	LTP312	ltpFR2	12	n/a	n/a	n/a	18	17	6	5	6
2938.368	n/a	PROB	1469184	n/a	LTP312	ltpFR2	12	n/a	n/a	n/a	18	16	9	1	6
2939.636	n/a	PROB	1469818	n/a	LTP312	ltpFR2	12	n/a	n/a	n/a	18	21	6	9	6
2941.054	n/a	PROB	1470527	n/a	LTP312	ltpFR2	12	n/a	n/a	n/a	18	8	1	4	3
2942.07	n/a	PROB	1471035	n/a	LTP312	ltpFR2	12	n/a	n/a	n/a	18	11	7	1	3
2943.172	n/a	PROB	1471586	n/a	LTP312	ltpFR2	12	n/a	n/a	n/a	18	19	9	4	6
2944.29	n/a	PROB	1472145	n/a	LTP312	ltpFR2	12	n/a	n/a	n/a	18	10	5	1	4
2945.342	n/a	PROB	1472671	n/a	LTP312	ltpFR2	12	n/a	n/a	n/a	18	21	9	4	8
2946.626	n/a	PROB	1473313	n/a	LTP312	ltpFR2	12	n/a	n/a	n/a	18	6	2	3	1
2947.61	n/a	PROB	1473805	n/a	LTP312	ltpFR2	12	n/a	n/a	n/a	18	12	1	2	9
2948.702	n/a	STOP	1474351	n/a	LTP312	ltpFR2	12	n/a	n/a	n/a	18	n/a	n/a	n/a	n/a
2951.912	n/a	REC_START	1475956	n/a	LTP312	ltpFR2	12	12	n/a	n/a	n/a	n/a	0	0	0
2968.922	n/a	REC_WORD	1484461	wordpools/wasnorm_wordpool_576.txt	LTP312	ltpFR2	12	12	BUG	187	n/a	n/a	0	0	0
2981.036	n/a	REC_WORD	1490518	wordpools/wasnorm_wordpool_576.txt	LTP312	ltpFR2	12	12	BOYFRIEND	162	n/a	n/a	0	0	0
2983.15	n/a	REC_WORD	1491575	wordpools/wasnorm_wordpool_576.txt	LTP312	ltpFR2	12	12	MASK	876	n/a	n/a	0	0	0
2984.516	n/a	REC_WORD	1492258	wordpools/wasnorm_wordpool_576.txt	LTP312	ltpFR2	12	12	MATCH	878	n/a	n/a	0	0	0
2985.93	n/a	REC_WORD	1492965	wordpools/wasnorm_wordpool_576.txt	LTP312	ltpFR2	12	12	COSTUME	383	n/a	n/a	0	0	0
2986.93	n/a	REC_WORD_VV	1493465	wordpools/wasnorm_wordpool_576.txt	LTP312	ltpFR2	12	12	<>	-1	n/a	n/a	0	0	0
2994.342	n/a	REC_WORD	1497171	wordpools/wasnorm_wordpool_576.txt	LTP312	ltpFR2	12	12	SPIDER	1351	n/a	n/a	0	0	0
2995.342	n/a	REC_WORD_VV	1497671	wordpools/wasnorm_wordpool_576.txt	LTP312	ltpFR2	12	12	<>	-1	n/a	n/a	0	0	0
3042.33	n/a	DISTRACTOR	1521165	n/a	LTP312	ltpFR2	12	13	n/a	n/a	n/a	n/a	0	0	0
3042.33	n/a	START	1521165	n/a	LTP312	ltpFR2	12	n/a	n/a	n/a	19	n/a	n/a	n/a	n/a
3042.344	n/a	PROB	1521172	n/a	LTP312	ltpFR2	12	n/a	n/a	n/a	19	11	2	8	1
3043.702	n/a	PROB	1521851	n/a	LTP312	ltpFR2	12	n/a	n/a	n/a	19	18	8	4	6
3044.986	n/a	PROB	1522493	n/a	LTP312	ltpFR2	12	n/a	n/a	n/a	19	11	6	1	4
3046.036	n/a	PROB	1523018	n/a	LTP312	ltpFR2	12	n/a	n/a	n/a	19	6	1	3	2
3047.02	n/a	PROB	1523510	n/a	LTP312	ltpFR2	12	n/a	n/a	n/a	19	12	3	7	2
3048.338	n/a	PROB	1524169	n/a	LTP312	ltpFR2	12	n/a	n/a	n/a	19	16	3	9	4
3049.94	n/a	PROB	1524970	n/a	LTP312	ltpFR2	12	n/a	n/a	n/a	19	13	2	5	6
3051.292	n/a	PROB	1525646	n/a	LTP312	ltpFR2	12	n/a	n/a	n/a	19	25	9	8	8
3052.886	n/a	PROB	1526443	n/a	LTP312	ltpFR2	12	n/a	n/a	n/a	19	26	8	9	7
3056.208	n/a	PROB	1528104	n/a	LTP312	ltpFR2	12	n/a	n/a	n/a	19	17	2	7	8
3058.146	n/a	PROB	1529073	n/a	LTP312	ltpFR2	12	n/a	n/a	n/a	19	14	2	6	6
3059.746	n/a	PROB	1529873	n/a	LTP312	ltpFR2	12	n/a	n/a	n/a	19	12	4	6	2
3060.88	n/a	PROB	1530440	n/a	LTP312	ltpFR2	12	n/a	n/a	n/a	19	22	5	9	8
3062.828	n/a	PROB	1531414	n/a	LTP312	ltpFR2	12	n/a	n/a	n/a	19	8	2	4	2
3063.946	n/a	PROB	1531973	n/a	LTP312	ltpFR2	12	n/a	n/a	n/a	19	23	9	6	8
3065.84	n/a	STOP	1532920	n/a	LTP312	ltpFR2	12	n/a	n/a	n/a	19	n/a	n/a	n/a	n/a
3067.4	n/a	WORD	1533700	wordpools/wasnorm_wordpool_576.txt	LTP312	ltpFR2	12	13	FOREHEAD	592	n/a	n/a	0	0	0
3070.004	n/a	WORD	1535002	wordpools/wasnorm_wordpool_576.txt	LTP312	ltpFR2	12	13	WASP	1593	n/a	n/a	0	0	0
3072.588	n/a	WORD	1536294	wordpools/wasnorm_wordpool_576.txt	LTP312	ltpFR2	12	13	LACE	792	n/a	n/a	0	0	0
3075.224	n/a	WORD	1537612	wordpools/wasnorm_wordpool_576.txt	LTP312	ltpFR2	12	13	BUTCHER	203	n/a	n/a	0	0	0
3077.742	n/a	WORD	1538871	wordpools/wasnorm_wordpool_576.txt	LTP312	ltpFR2	12	13	MUFFIN	929	n/a	n/a	0	0	0
3080.21	n/a	WORD	1540105	wordpools/wasnorm_wordpool_576.txt	LTP312	ltpFR2	12	13	TOURIST	1488	n/a	n/a	0	0	0
3082.78	n/a	WORD	1541390	wordpools/wasnorm_wordpool_576.txt	LTP312	ltpFR2	12	13	MEAT	883	n/a	n/a	0	0	0
3085.316	n/a	WORD	1542658	wordpools/wasnorm_wordpool_576.txt	LTP312	ltpFR2	12	13	SLIME	1327	n/a	n/a	0	0	0
3088.07	n/a	WORD	1544035	wordpools/wasnorm_wordpool_576.txt	LTP312	ltpFR2	12	13	MILDEW	893	n/a	n/a	0	0	0
3090.72	n/a	WORD	1545360	wordpools/wasnorm_wordpool_576.txt	LTP312	ltpFR2	12	13	RABBIT	1152	n/a	n/a	0	0	0
3093.488	n/a	WORD	1546744	wordpools/wasnorm_wordpool_576.txt	LTP312	ltpFR2	12	13	OYSTER	995	n/a	n/a	0	0	0
3096.274	n/a	WORD	1548137	wordpools/wasnorm_wordpool_576.txt	LTP312	ltpFR2	12	13	CURTAIN	427	n/a	n/a	0	0	0
3099.062	n/a	WORD	1549531	wordpools/wasnorm_wordpool_576.txt	LTP312	ltpFR2	12	13	ROD	1203	n/a	n/a	0	0	0
3101.53	n/a	WORD	1550765	wordpools/wasnorm_wordpool_576.txt	LTP312	ltpFR2	12	13	TUNNEL	1519	n/a	n/a	0	0	0
3104.032	n/a	WORD	1552016	wordpools/wasnorm_wordpool_576.txt	LTP312	ltpFR2	12	13	COBRA	336	n/a	n/a	0	0	0
3106.534	n/a	WORD	1553267	wordpools/wasnorm_wordpool_576.txt	LTP312	ltpFR2	12	13	ASIA	46	n/a	n/a	0	0	0
3109.018	n/a	WORD	1554509	wordpools/wasnorm_wordpool_576.txt	LTP312	ltpFR2	12	13	BUREAU	199	n/a	n/a	0	0	0
3111.836	n/a	WORD	1555918	wordpools/wasnorm_wordpool_576.txt	LTP312	ltpFR2	12	13	TRIBE	1505	n/a	n/a	0	0	0
3114.54	n/a	WORD	1557270	wordpools/wasnorm_wordpool_576.txt	LTP312	ltpFR2	12	13	MONEY	908	n/a	n/a	0	0	0
3117.342	n/a	WORD	1558671	wordpools/wasnorm_wordpool_576.txt	LTP312	ltpFR2	12	13	CHEST	295	n/a	n/a	0	0	0
3120.028	n/a	WORD	1560014	wordpools/wasnorm_wordpool_576.txt	LTP312	ltpFR2	12	13	XEROX	1628	n/a	n/a	0	0	0
3122.814	n/a	WORD	1561407	wordpools/wasnorm_wordpool_576.txt	LTP312	ltpFR2	12	13	FOX	598	n/a	n/a	0	0	0
3125.498	n/a	WORD	1562749	wordpools/wasnorm_wordpool_576.txt	LTP312	ltpFR2	12	13	HOUND	724	n/a	n/a	0	0	0
3128.318	n/a	WORD	1564159	wordpools/wasnorm_wordpool_576.txt	LTP312	ltpFR2	12	13	YARN	1631	n/a	n/a	0	0	0
3129.936	n/a	START	1564968	n/a	LTP312	ltpFR2	12	n/a	n/a	n/a	20	n/a	n/a	n/a	n/a
3131.014	n/a	DISTRACTOR	1565507	n/a	LTP312	ltpFR2	12	13	n/a	n/a	n/a	n/a	0	0	0
3131.02	n/a	PROB	1565510	n/a	LTP312	ltpFR2	12	n/a	n/a	n/a	20	14	5	5	4
3132.636	n/a	PROB	1566318	n/a	LTP312	ltpFR2	12	n/a	n/a	n/a	20	12	1	9	2
3134.538	n/a	PROB	1567269	n/a	LTP312	ltpFR2	12	n/a	n/a	n/a	20	8	2	4	2
3135.572	n/a	PROB	1567786	n/a	LTP312	ltpFR2	12	n/a	n/a	n/a	20	21	5	9	7
3137.322	n/a	PROB	1568661	n/a	LTP312	ltpFR2	12	n/a	n/a	n/a	20	12	7	4	1
3138.808	n/a	PROB	1569404	n/a	LTP312	ltpFR2	12	n/a	n/a	n/a	20	17	2	6	9
3140.76	n/a	PROB	1570380	n/a	LTP312	ltpFR2	12	n/a	n/a	n/a	20	20	8	5	7
3142.276	n/a	PROB	1571138	n/a	LTP312	ltpFR2	12	n/a	n/a	n/a	20	12	1	3	8
3143.528	n/a	PROB	1571764	n/a	LTP312	ltpFR2	12	n/a	n/a	n/a	20	14	7	1	6
3144.762	n/a	PROB	1572381	n/a	LTP312	ltpFR2	12	n/a	n/a	n/a	20	18	7	9	2
3146.864	n/a	PROB	1573432	n/a	LTP312	ltpFR2	12	n/a	n/a	n/a	20	21	6	7	8
3148.798	n/a	PROB	1574399	n/a	LTP312	ltpFR2	12	n/a	n/a	n/a	20	16	7	7	2
3150.2	n/a	PROB	1575100	n/a	LTP312	ltpFR2	12	n/a	n/a	n/a	20	19	5	7	7
3151.818	n/a	PROB	1575909	n/a	LTP312	ltpFR2	12	n/a	n/a	n/a	20	13	9	1	3
3152.946	n/a	STOP	1576473	n/a	LTP312	ltpFR2	12	n/a	n/a	n/a	20	n/a	n/a	n/a	n/a
3155.756	n/a	REC_START	1577878	n/a	LTP312	ltpFR2	12	13	n/a	n/a	n/a	n/a	0	0	0
3158.398	n/a	REC_WORD	1579199	wordpools/wasnorm_wordpool_576.txt	LTP312	ltpFR2	12	13	MEAT	883	n/a	n/a	0	0	0
3159.118	n/a	REC_WORD	1579559	wordpools/wasnorm_wordpool_576.txt	LTP312	ltpFR2	12	13	SLIME	1327	n/a	n/a	0	0	0
3160.776	n/a	REC_WORD	1580388	wordpools/wasnorm_wordpool_576.txt	LTP312	ltpFR2	12	13	MILDEW	893	n/a	n/a	0	0	0
3161.888	n/a	REC_WORD	1580944	wordpools/wasnorm_wordpool_576.txt	LTP312	ltpFR2	12	13	RABBIT	1152	n/a	n/a	0	0	0
3163.374	n/a	REC_WORD	1581687	wordpools/wasnorm_wordpool_576.txt	LTP312	ltpFR2	12	13	HOUND	724	n/a	n/a	0	0	0
3164.904	n/a	REC_WORD	1582452	wordpools/wasnorm_wordpool_576.txt	LTP312	ltpFR2	12	13	XEROX	1628	n/a	n/a	0	0	0
3166.21	n/a	REC_WORD	1583105	wordpools/wasnorm_wordpool_576.txt	LTP312	ltpFR2	12	13	FOX	598	n/a	n/a	0	0	0
3180.564	n/a	REC_WORD	1590282	wordpools/wasnorm_wordpool_576.txt	LTP312	ltpFR2	12	13	LACE	792	n/a	n/a	0	0	0
3190.656	n/a	REC_WORD	1595328	wordpools/wasnorm_wordpool_576.txt	LTP312	ltpFR2	12	13	COBRA	336	n/a	n/a	0	0	0
3246.194	n/a	WORD	1623097	wordpools/wasnorm_wordpool_576.txt	LTP312	ltpFR2	12	14	DAISY	435	n/a	n/a	0	0	0
3248.994	n/a	WORD	1624497	wordpools/wasnorm_wordpool_576.txt	LTP312	ltpFR2	12	14	FLOWER	584	n/a	n/a	0	0	0
3251.54	n/a	WORD	1625770	wordpools/wasnorm_wordpool_576.txt	LTP312	ltpFR2	12	14	PARROT	1015	n/a	n/a	0	0	0
3254.31	n/a	WORD	1627155	wordpools/wasnorm_wordpool_576.txt	LTP312	ltpFR2	12	14	SHRUB	1299	n/a	n/a	0	0	0
3256.934	n/a	WORD	1628467	wordpools/wasnorm_wordpool_576.txt	LTP312	ltpFR2	12	14	JEANS	752	n/a	n/a	0	0	0
3259.362	n/a	WORD	1629681	wordpools/wasnorm_wordpool_576.txt	LTP312	ltpFR2	12	14	GRILL	661	n/a	n/a	0	0	0
3262.032	n/a	WORD	1631016	wordpools/wasnorm_wordpool_576.txt	LTP312	ltpFR2	12	14	KITCHEN	778	n/a	n/a	0	0	0
3264.834	n/a	WORD	1632417	wordpools/wasnorm_wordpool_576.txt	LTP312	ltpFR2	12	14	MEDAL	885	n/a	n/a	0	0	0
3267.336	n/a	WORD	1633668	wordpools/wasnorm_wordpool_576.txt	LTP312	ltpFR2	12	14	COOKBOOK	373	n/a	n/a	0	0	0
3270.056	n/a	WORD	1635028	wordpools/wasnorm_wordpool_576.txt	LTP312	ltpFR2	12	14	FOOTBALL	591	n/a	n/a	0	0	0
3272.63	n/a	WORD	1636315	wordpools/wasnorm_wordpool_576.txt	LTP312	ltpFR2	12	14	SOFTBALL	1343	n/a	n/a	0	0	0
3275.348	n/a	WORD	1637674	wordpools/wasnorm_wordpool_576.txt	LTP312	ltpFR2	12	14	BATHTUB	100	n/a	n/a	0	0	0
3277.778	n/a	WORD	1638889	wordpools/wasnorm_wordpool_576.txt	LTP312	ltpFR2	12	14	CARRIAGE	248	n/a	n/a	0	0	0
3280.564	n/a	WORD	1640282	wordpools/wasnorm_wordpool_576.txt	LTP312	ltpFR2	12	14	RATTLE	1170	n/a	n/a	0	0	0
3283.2	n/a	WORD	1641600	wordpools/wasnorm_wordpool_576.txt	LTP312	ltpFR2	12	14	BODY	145	n/a	n/a	0	0	0
3285.636	n/a	WORD	1642818	wordpools/wasnorm_wordpool_576.txt	LTP312	ltpFR2	12	14	MESSAGE	888	n/a	n/a	0	0	0
3288.176	n/a	WORD	1644088	wordpools/wasnorm_wordpool_576.txt	LTP312	ltpFR2	12	14	WOMAN	1620	n/a	n/a	0	0	0
3290.794	n/a	WORD	1645397	wordpools/wasnorm_wordpool_576.txt	LTP312	ltpFR2	12	14	ATOM	55	n/a	n/a	0	0	0
3293.26	n/a	WORD	1646630	wordpools/wasnorm_wordpool_576.txt	LTP312	ltpFR2	12	14	CIGAR	308	n/a	n/a	0	0	0
3295.694	n/a	WORD	1647847	wordpools/wasnorm_wordpool_576.txt	LTP312	ltpFR2	12	14	FLEET	578	n/a	n/a	0	0	0
3298.348	n/a	WORD	1649174	wordpools/wasnorm_wordpool_576.txt	LTP312	ltpFR2	12	14	HERO	706	n/a	n/a	0	0	0
3300.8	n/a	WORD	1650400	wordpools/wasnorm_wordpool_576.txt	LTP312	ltpFR2	12	14	LADY	794	n/a	n/a	0	0	0
3303.384	n/a	WORD	1651692	wordpools/wasnorm_wordpool_576.txt	LTP312	ltpFR2	12	14	PAPER	1011	n/a	n/a	0	0	0
3306.138	n/a	WORD	1653069	wordpools/wasnorm_wordpool_576.txt	LTP312	ltpFR2	12	14	HUSBAND	728	n/a	n/a	0	0	0
3307.754	n/a	START	1653877	n/a	LTP312	ltpFR2	12	n/a	n/a	n/a	21	n/a	n/a	n/a	n/a
3308.602	n/a	DISTRACTOR	1654301	n/a	LTP312	ltpFR2	12	14	n/a	n/a	n/a	n/a	0	0	0
3308.608	n/a	PROB	1654304	n/a	LTP312	ltpFR2	12	n/a	n/a	n/a	21	21	9	6	6
3310.158	n/a	PROB	1655079	n/a	LTP312	ltpFR2	12	n/a	n/a	n/a	21	13	3	5	5
3311.326	n/a	PROB	1655663	n/a	LTP312	ltpFR2	12	n/a	n/a	n/a	21	23	6	8	9
3313.742	n/a	PROB	1656871	n/a	LTP312	ltpFR2	12	n/a	n/a	n/a	21	22	9	6	7
3316.364	n/a	PROB	1658182	n/a	LTP312	ltpFR2	12	n/a	n/a	n/a	21	16	4	6	6
3318.38	n/a	PROB	1659190	n/a	LTP312	ltpFR2	12	n/a	n/a	n/a	21	13	3	2	8
3319.68	n/a	PROB	1659840	n/a	LTP312	ltpFR2	12	n/a	n/a	n/a	21	13	5	3	3
3321.334	n/a	PROB	1660667	n/a	LTP312	ltpFR2	12	n/a	n/a	n/a	21	20	8	7	5
3323.6	n/a	PROB	1661800	n/a	LTP312	ltpFR2	12	n/a	n/a	n/a	21	12	9	2	1
3324.75	n/a	PROB	1662375	n/a	LTP312	ltpFR2	12	n/a	n/a	n/a	21	19	9	5	5
3325.87	n/a	PROB	1662935	n/a	LTP312	ltpFR2	12	n/a	n/a	n/a	21	19	8	5	6
3327.686	n/a	PROB	1663843	n/a	LTP312	ltpFR2	12	n/a	n/a	n/a	21	9	5	2	2
3328.908	n/a	PROB	1664454	n/a	LTP312	ltpFR2	12	n/a	n/a	n/a	21	17	3	9	5
3330.75	n/a	STOP	1665375	n/a	LTP312	ltpFR2	12	n/a	n/a	n/a	21	n/a	n/a	n/a	n/a
3333.66	n/a	REC_START	1666830	n/a	LTP312	ltpFR2	12	14	n/a	n/a	n/a	n/a	0	0	0
3334.306	n/a	REC_WORD	1667153	wordpools/wasnorm_wordpool_576.txt	LTP312	ltpFR2	12	14	DAISY	435	n/a	n/a	0	0	0
3335.376	n/a	REC_WORD	1667688	wordpools/wasnorm_wordpool_576.txt	LTP312	ltpFR2	12	14	FLOWER	584	n/a	n/a	0	0	0
3337.078	n/a	REC_WORD	1668539	wordpools/wasnorm_wordpool_576.txt	LTP312	ltpFR2	12	14	FOOTBALL	591	n/a	n/a	0	0	0
3337.914	n/a	REC_WORD	1668957	wordpools/wasnorm_wordpool_576.txt	LTP312	ltpFR2	12	14	SOFTBALL	1343	n/a	n/a	0	0	0
3338.914	n/a	REC_WORD_VV	1669457	wordpools/wasnorm_wordpool_576.txt	LTP312	ltpFR2	12	14	<>	-1	n/a	n/a	0	0	0
3339.506	n/a	REC_WORD	1669753	wordpools/wasnorm_wordpool_576.txt	LTP312	ltpFR2	12	14	CARRIAGE	248	n/a	n/a	0	0	0
3341.184	n/a	REC_WORD	1670592	wordpools/wasnorm_wordpool_576.txt	LTP312	ltpFR2	12	14	MESSAGE	888	n/a	n/a	0	0	0
3342.774	n/a	REC_WORD	1671387	wordpools/wasnorm_wordpool_576.txt	LTP312	ltpFR2	12	14	WOMAN	1620	n/a	n/a	0	0	0
3344.154	n/a	REC_WORD	1672077	wordpools/wasnorm_wordpool_576.txt	LTP312	ltpFR2	12	14	LADY	794	n/a	n/a	0	0	0
3346.172	n/a	REC_WORD	1673086	wordpools/wasnorm_wordpool_576.txt	LTP312	ltpFR2	12	14	HUSBAND	728	n/a	n/a	0	0	0
3348.96	n/a	REC_WORD	1674480	wordpools/wasnorm_wordpool_576.txt	LTP312	ltpFR2	12	14	KITCHEN	778	n/a	n/a	0	0	0
3350.242	n/a	REC_WORD	1675121	wordpools/wasnorm_wordpool_576.txt	LTP312	ltpFR2	12	14	COOKBOOK	373	n/a	n/a	0	0	0
3424.098	n/a	WORD	1712049	wordpools/wasnorm_wordpool_576.txt	LTP312	ltpFR2	12	15	RIVER	1194	n/a	n/a	0	0	0
3426.65	n/a	WORD	1713325	wordpools/wasnorm_wordpool_576.txt	LTP312	ltpFR2	12	15	CRAB	397	n/a	n/a	0	0	0
3429.218	n/a	WORD	1714609	wordpools/wasnorm_wordpool_576.txt	LTP312	ltpFR2	12	15	LABEL	790	n/a	n/a	0	0	0
3431.704	n/a	WORD	1715852	wordpools/wasnorm_wordpool_576.txt	LTP312	ltpFR2	12	15	CYCLONE	431	n/a	n/a	0	0	0
3434.122	n/a	WORD	1717061	wordpools/wasnorm_wordpool_576.txt	LTP312	ltpFR2	12	15	LAKE	796	n/a	n/a	0	0	0
3436.674	n/a	WORD	1718337	wordpools/wasnorm_wordpool_576.txt	LTP312	ltpFR2	12	15	PISTOL	1075	n/a	n/a	0	0	0
3439.394	n/a	WORD	1719697	wordpools/wasnorm_wordpool_576.txt	LTP312	ltpFR2	12	15	WARDROBE	1587	n/a	n/a	0	0	0
3441.918	n/a	WORD	1720959	wordpools/wasnorm_wordpool_576.txt	LTP312	ltpFR2	12	15	HOOK	715	n/a	n/a	0	0	0
3444.688	n/a	WORD	1722344	wordpools/wasnorm_wordpool_576.txt	LTP312	ltpFR2	12	15	COUCH	386	n/a	n/a	0	0	0
3447.156	n/a	WORD	1723578	wordpools/wasnorm_wordpool_576.txt	LTP312	ltpFR2	12	15	BUGGY	188	n/a	n/a	0	0	0
3449.608	n/a	WORD	1724804	wordpools/wasnorm_wordpool_576.txt	LTP312	ltpFR2	12	15	DONKEY	484	n/a	n/a	0	0	0
3452.054	n/a	WORD	1726027	wordpools/wasnorm_wordpool_576.txt	LTP312	ltpFR2	12	15	APRON	35	n/a	n/a	0	0	0
3454.512	n/a	WORD	1727256	wordpools/wasnorm_wordpool_576.txt	LTP312	ltpFR2	12	15	EMPIRE	530	n/a	n/a	0	0	0
3457.126	n/a	WORD	1728563	wordpools/wasnorm_wordpool_576.txt	LTP312	ltpFR2	12	15	FLASHLIGHT	575	n/a	n/a	0	0	0
3459.65	n/a	WORD	1729825	wordpools/wasnorm_wordpool_576.txt	LTP312	ltpFR2	12	15	LASER	801	n/a	n/a	0	0	0
3462.228	n/a	WORD	1731114	wordpools/wasnorm_wordpool_576.txt	LTP312	ltpFR2	12	15	ULCER	1533	n/a	n/a	0	0	0
3465.03	n/a	WORD	1732515	wordpools/wasnorm_wordpool_576.txt	LTP312	ltpFR2	12	15	ICEBERG	731	n/a	n/a	0	0	0
3467.45	n/a	WORD	1733725	wordpools/wasnorm_wordpool_576.txt	LTP312	ltpFR2	12	15	CRITIC	410	n/a	n/a	0	0	0
3470.16	n/a	WORD	1735080	wordpools/wasnorm_wordpool_576.txt	LTP312	ltpFR2	12	15	ACTRESS	6	n/a	n/a	0	0	0
3472.578	n/a	WORD	1736289	wordpools/wasnorm_wordpool_576.txt	LTP312	ltpFR2	12	15	GLOBE	641	n/a	n/a	0	0	0
3475.13	n/a	WORD	1737565	wordpools/wasnorm_wordpool_576.txt	LTP312	ltpFR2	12	15	POPCORN	1104	n/a	n/a	0	0	0
3477.648	n/a	WORD	1738824	wordpools/wasnorm_wordpool_576.txt	LTP312	ltpFR2	12	15	CHILD	299	n/a	n/a	0	0	0
3480.3	n/a	WORD	1740150	wordpools/wasnorm_wordpool_576.txt	LTP312	ltpFR2	12	15	BUCKET	184	n/a	n/a	0	0	0
3482.96	n/a	WORD	1741480	wordpools/wasnorm_wordpool_576.txt	LTP312	ltpFR2	12	15	MARS	873	n/a	n/a	0	0	0
3484.572	n/a	START	1742286	n/a	LTP312	ltpFR2	12	n/a	n/a	n/a	22	n/a	n/a	n/a	n/a
3485.372	n/a	DISTRACTOR	1742686	n/a	LTP312	ltpFR2	12	15	n/a	n/a	n/a	n/a	0	0	0
3485.378	n/a	PROB	1742689	n/a	LTP312	ltpFR2	12	n/a	n/a	n/a	22	10	6	1	3
3486.998	n/a	PROB	1743499	n/a	LTP312	ltpFR2	12	n/a	n/a	n/a	22	22	8	9	5
3489.33	n/a	PROB	1744665	n/a	LTP312	ltpFR2	12	n/a	n/a	n/a	22	18	7	3	8
3490.564	n/a	PROB	1745282	n/a	LTP312	ltpFR2	12	n/a	n/a	n/a	22	18	6	6	6
3492.168	n/a	PROB	1746084	n/a	LTP312	ltpFR2	12	n/a	n/a	n/a	22	16	7	1	8
3494.42	n/a	PROB	1747210	n/a	LTP312	ltpFR2	12	n/a	n/a	n/a	22	23	9	7	7
3495.77	n/a	PROB	1747885	n/a	LTP312	ltpFR2	12	n/a	n/a	n/a	22	6	1	4	1
3496.938	n/a	PROB	1748469	n/a	LTP312	ltpFR2	12	n/a	n/a	n/a	22	14	5	1	8
3498.774	n/a	PROB	1749387	n/a	LTP312	ltpFR2	12	n/a	n/a	n/a	22	10	5	2	3
3500.006	n/a	PROB	1750003	n/a	LTP312	ltpFR2	12	n/a	n/a	n/a	22	14	5	1	8
3501.558	n/a	PROB	1750779	n/a	LTP312	ltpFR2	12	n/a	n/a	n/a	22	11	5	4	2
3503.192	n/a	PROB	1751596	n/a	LTP312	ltpFR2	12	n/a	n/a	n/a	22	14	5	5	4
3504.394	n/a	PROB	1752197	n/a	LTP312	ltpFR2	12	n/a	n/a	n/a	22	12	4	7	1
3505.962	n/a	PROB	1752981	n/a	LTP312	ltpFR2	12	n/a	n/a	n/a	22	11	1	6	4
3508.572	n/a	STOP	1754286	n/a	LTP312	ltpFR2	12	n/a	n/a	n/a	22	n/a	n/a	n/a	n/a
3510.366	n/a	REC_START	1755183	n/a	LTP312	ltpFR2	12	15	n/a	n/a	n/a	n/a	0	0	0
3513.296	n/a	REC_WORD	1756648	wordpools/wasnorm_wordpool_576.txt	LTP312	ltpFR2	12	15	RIVER	1194	n/a	n/a	0	0	0
3514.472	n/a	REC_WORD	1757236	wordpools/wasnorm_wordpool_576.txt	LTP312	ltpFR2	12	15	CRAB	397	n/a	n/a	0	0	0
3516.64	n/a	REC_WORD	1758320	wordpools/wasnorm_wordpool_576.txt	LTP312	ltpFR2	12	15	LAKE	796	n/a	n/a	0	0	0
3518.72	n/a	REC_WORD	1759360	wordpools/wasnorm_wordpool_576.txt	LTP312	ltpFR2	12	15	FLASHLIGHT	575	n/a	n/a	0	0	0
3521.928	n/a	REC_WORD	1760964	wordpools/wasnorm_wordpool_576.txt	LTP312	ltpFR2	12	15	ULCER	1533	n/a	n/a	0	0	0
3523.258	n/a	REC_WORD	1761629	wordpools/wasnorm_wordpool_576.txt	LTP312	ltpFR2	12	15	ICEBERG	731	n/a	n/a	0	0	0
3524.678	n/a	REC_WORD	1762339	wordpools/wasnorm_wordpool_576.txt	LTP312	ltpFR2	12	15	CRITIC	410	n/a	n/a	0	0	0
3533.424	n/a	REC_WORD	1766712	wordpools/wasnorm_wordpool_576.txt	LTP312	ltpFR2	12	15	LASER	801	n/a	n/a	0	0	0
3559.594	n/a	REC_WORD	1779797	wordpools/wasnorm_wordpool_576.txt	LTP312	ltpFR2	12	15	PISTOL	1075	n/a	n/a	0	0	0
3565.688	n/a	REC_WORD	1782844	wordpools/wasnorm_wordpool_576.txt	LTP312	ltpFR2	12	15	WARDROBE	1587	n/a	n/a	0	0	0
3600.82	n/a	DISTRACTOR	1800410	n/a	LTP312	ltpFR2	12	16	n/a	n/a	n/a	n/a	0	0	0
3600.82	n/a	START	1800410	n/a	LTP312	ltpFR2	12	n/a	n/a	n/a	23	n/a	n/a	n/a	n/a
3600.834	n/a	PROB	1800417	n/a	LTP312	ltpFR2	12	n/a	n/a	n/a	23	9	2	5	2
3602.27	n/a	PROB	1801135	n/a	LTP312	ltpFR2	12	n/a	n/a	n/a	23	17	2	9	6
3605.57	n/a	PROB	1802785	n/a	LTP312	ltpFR2	12	n/a	n/a	n/a	23	14	5	3	6
3608.906	n/a	PROB	1804453	n/a	LTP312	ltpFR2	12	n/a	n/a	n/a	23	23	9	5	9
3610.392	n/a	PROB	1805196	n/a	LTP312	ltpFR2	12	n/a	n/a	n/a	23	16	1	6	9
3611.744	n/a	PROB	1805872	n/a	LTP312	ltpFR2	12	n/a	n/a	n/a	23	24	8	7	8
3613.878	n/a	PROB	1806939	n/a	LTP312	ltpFR2	12	n/a	n/a	n/a	23	14	3	6	5
3615.78	n/a	PROB	1807890	n/a	LTP312	ltpFR2	12	n/a	n/a	n/a	23	17	4	5	8
3617.514	n/a	PROB	1808757	n/a	LTP312	ltpFR2	12	n/a	n/a	n/a	23	16	3	6	7
3618.9	n/a	PROB	1809450	n/a	LTP312	ltpFR2	12	n/a	n/a	n/a	23	7	3	2	2
3620.45	n/a	PROB	1810225	n/a	LTP312	ltpFR2	12	n/a	n/a	n/a	23	9	1	4	4
3621.55	n/a	PROB	1810775	n/a	LTP312	ltpFR2	12	n/a	n/a	n/a	23	16	5	7	4
3622.918	n/a	PROB	1811459	n/a	LTP312	ltpFR2	12	n/a	n/a	n/a	23	17	3	6	8
3624.306	n/a	STOP	1812153	n/a	LTP312	ltpFR2	12	n/a	n/a	n/a	23	n/a	n/a	n/a	n/a
3626.022	n/a	WORD	1813011	wordpools/wasnorm_wordpool_576.txt	LTP312	ltpFR2	12	16	ITEM	746	n/a	n/a	0	0	0
3628.46	n/a	WORD	1814230	wordpools/wasnorm_wordpool_576.txt	LTP312	ltpFR2	12	16	GIRL	637	n/a	n/a	0	0	0
3631.044	n/a	WORD	1815522	wordpools/wasnorm_wordpool_576.txt	LTP312	ltpFR2	12	16	BREAST	171	n/a	n/a	0	0	0
3633.478	n/a	WORD	1816739	wordpools/wasnorm_wordpool_576.txt	LTP312	ltpFR2	12	16	ROBIN	1199	n/a	n/a	0	0	0
3636.248	n/a	WORD	1818124	wordpools/wasnorm_wordpool_576.txt	LTP312	ltpFR2	12	16	PERCH	1048	n/a	n/a	0	0	0
3638.882	n/a	WORD	1819441	wordpools/wasnorm_wordpool_576.txt	LTP312	ltpFR2	12	16	CATCHER	258	n/a	n/a	0	0	0
3641.434	n/a	WORD	1820717	wordpools/wasnorm_wordpool_576.txt	LTP312	ltpFR2	12	16	SPONGE	1355	n/a	n/a	0	0	0
3644.042	n/a	WORD	1822021	wordpools/wasnorm_wordpool_576.txt	LTP312	ltpFR2	12	16	COD	340	n/a	n/a	0	0	0
3646.754	n/a	WORD	1823377	wordpools/wasnorm_wordpool_576.txt	LTP312	ltpFR2	12	16	LOVER	846	n/a	n/a	0	0	0
3649.228	n/a	WORD	1824614	wordpools/wasnorm_wordpool_576.txt	LTP312	ltpFR2	12	16	PLATE	1086	n/a	n/a	0	0	0
3651.708	n/a	WORD	1825854	wordpools/wasnorm_wordpool_576.txt	LTP312	ltpFR2	12	16	STATUE	1374	n/a	n/a	0	0	0
3654.41	n/a	WORD	1827205	wordpools/wasnorm_wordpool_576.txt	LTP312	ltpFR2	12	16	CHAMPAGNE	278	n/a	n/a	0	0	0
3657.086	n/a	WORD	1828543	wordpools/wasnorm_wordpool_576.txt	LTP312	ltpFR2	12	16	PICNIC	1060	n/a	n/a	0	0	0
3659.898	n/a	WORD	1829949	wordpools/wasnorm_wordpool_576.txt	LTP312	ltpFR2	12	16	CUPBOARD	425	n/a	n/a	0	0	0
3662.7	n/a	WORD	1831350	wordpools/wasnorm_wordpool_576.txt	LTP312	ltpFR2	12	16	EYELASH	546	n/a	n/a	0	0	0
3665.358	n/a	WORD	1832679	wordpools/wasnorm_wordpool_576.txt	LTP312	ltpFR2	12	16	RACKET	1155	n/a	n/a	0	0	0
3668.144	n/a	WORD	1834072	wordpools/wasnorm_wordpool_576.txt	LTP312	ltpFR2	12	16	STAR	1373	n/a	n/a	0	0	0
3670.94	n/a	WORD	1835470	wordpools/wasnorm_wordpool_576.txt	LTP312	ltpFR2	12	16	MACHINE	852	n/a	n/a	0	0	0
3673.426	n/a	WORD	1836713	wordpools/wasnorm_wordpool_576.txt	LTP312	ltpFR2	12	16	CAFE	216	n/a	n/a	0	0	0
3675.884	n/a	WORD	1837942	wordpools/wasnorm_wordpool_576.txt	LTP312	ltpFR2	12	16	CAMEL	223	n/a	n/a	0	0	0
3678.32	n/a	WORD	1839160	wordpools/wasnorm_wordpool_576.txt	LTP312	ltpFR2	12	16	ISLAND	745	n/a	n/a	0	0	0
3680.846	n/a	WORD	1840423	wordpools/wasnorm_wordpool_576.txt	LTP312	ltpFR2	12	16	FRIAR	605	n/a	n/a	0	0	0
3683.64	n/a	WORD	1841820	wordpools/wasnorm_wordpool_576.txt	LTP312	ltpFR2	12	16	DIME	466	n/a	n/a	0	0	0
3686.226	n/a	WORD	1843113	wordpools/wasnorm_wordpool_576.txt	LTP312	ltpFR2	12	16	BANK	83	n/a	n/a	0	0	0
3687.836	n/a	START	1843918	n/a	LTP312	ltpFR2	12	n/a	n/a	n/a	24	n/a	n/a	n/a	n/a
3688.696	n/a	DISTRACTOR	1844348	n/a	LTP312	ltpFR2	12	16	n/a	n/a	n/a	n/a	0	0	0
3688.704	n/a	PROB	1844352	n/a	LTP312	ltpFR2	12	n/a	n/a	n/a	24	11	3	3	5
3690.788	n/a	PROB	1845394	n/a	LTP312	ltpFR2	12	n/a	n/a	n/a	24	17	9	5	3
3692.29	n/a	PROB	1846145	n/a	LTP312	ltpFR2	12	n/a	n/a	n/a	24	7	1	3	3
3693.406	n/a	PROB	1846703	n/a	LTP312	ltpFR2	12	n/a	n/a	n/a	24	16	6	7	3
3695.19	n/a	PROB	1847595	n/a	LTP312	ltpFR2	12	n/a	n/a	n/a	24	21	8	5	7
3696.526	n/a	PROB	1848263	n/a	LTP312	ltpFR2	12	n/a	n/a	n/a	24	15	2	9	4
3699.612	n/a	PROB	1849806	n/a	LTP312	ltpFR2	12	n/a	n/a	n/a	24	14	2	6	6
3700.962	n/a	PROB	1850481	n/a	LTP312	ltpFR2	12	n/a	n/a	n/a	24	11	2	4	5
3702.132	n/a	PROB	1851066	n/a	LTP312	ltpFR2	12	n/a	n/a	n/a	24	5	1	3	1
3703.28	n/a	PROB	1851640	n/a	LTP312	ltpFR2	12	n/a	n/a	n/a	24	17	4	5	8
3705.016	n/a	PROB	1852508	n/a	LTP312	ltpFR2	12	n/a	n/a	n/a	24	17	6	4	7
3706.334	n/a	PROB	1853167	n/a	LTP312	ltpFR2	12	n/a	n/a	n/a	24	13	9	1	3
3707.618	n/a	PROB	1853809	n/a	LTP312	ltpFR2	12	n/a	n/a	n/a	24	12	5	2	5
3708.77	n/a	PROB	1854385	n/a	LTP312	ltpFR2	12	n/a	n/a	n/a	24	4	2	1	1
3709.786	n/a	PROB	1854893	n/a	LTP312	ltpFR2	12	n/a	n/a	n/a	24	17	2	8	7
3711.084	n/a	STOP	1855542	n/a	LTP312	ltpFR2	12	n/a	n/a	n/a	24	n/a	n/a	n/a	n/a
3713.622	n/a	REC_START	1856811	n/a	LTP312	ltpFR2	12	16	n/a	n/a	n/a	n/a	0	0	0
3715.29	n/a	REC_WORD	1857645	wordpools/wasnorm_wordpool_576.txt	LTP312	ltpFR2	12	16	GIRL	637	n/a	n/a	0	0	0
3716.118	n/a	REC_WORD	1858059	wordpools/wasnorm_wordpool_576.txt	LTP312	ltpFR2	12	16	ITEM	746	n/a	n/a	0	0	0
3717.714	n/a	REC_WORD	1858857	wordpools/wasnorm_wordpool_576.txt	LTP312	ltpFR2	12	16	BREAST	171	n/a	n/a	0	0	0
3720.512	n/a	REC_WORD	1860256	wordpools/wasnorm_wordpool_576.txt	LTP312	ltpFR2	12	16	PERCH	1048	n/a	n/a	0	0	0
3721.488	n/a	REC_WORD	1860744	wordpools/wasnorm_wordpool_576.txt	LTP312	ltpFR2	12	16	ROBIN	1199	n/a	n/a	0	0	0
3790.164	n/a	REST_REWET	1895082	n/a	LTP312	ltpFR2	12	16	n/a	n/a	n/a	n/a	0	0	0
4067.032	n/a	DISTRACTOR	2033516	n/a	LTP312	ltpFR2	12	17	n/a	n/a	n/a	n/a	0	0	0
4067.034	n/a	START	2033517	n/a	LTP312	ltpFR2	12	n/a	n/a	n/a	25	n/a	n/a	n/a	n/a
4067.05	n/a	PROB	2033525	n/a	LTP312	ltpFR2	12	n/a	n/a	n/a	25	13	6	3	4
4068.55	n/a	PROB	2034275	n/a	LTP312	ltpFR2	12	n/a	n/a	n/a	25	11	5	3	3
4069.968	n/a	PROB	2034984	n/a	LTP312	ltpFR2	12	n/a	n/a	n/a	25	15	3	5	7
4071.602	n/a	PROB	2035801	n/a	LTP312	ltpFR2	12	n/a	n/a	n/a	25	12	7	1	4
4072.786	n/a	PROB	2036393	n/a	LTP312	ltpFR2	12	n/a	n/a	n/a	25	19	8	5	6
4076.438	n/a	PROB	2038219	n/a	LTP312	ltpFR2	12	n/a	n/a	n/a	25	17	4	4	9
4078.274	n/a	PROB	2039137	n/a	LTP312	ltpFR2	12	n/a	n/a	n/a	25	13	1	6	6
4079.424	n/a	PROB	2039712	n/a	LTP312	ltpFR2	12	n/a	n/a	n/a	25	12	5	2	5
4080.474	n/a	PROB	2040237	n/a	LTP312	ltpFR2	12	n/a	n/a	n/a	25	13	8	3	2
4082.21	n/a	PROB	2041105	n/a	LTP312	ltpFR2	12	n/a	n/a	n/a	25	13	2	3	8
4083.478	n/a	PROB	2041739	n/a	LTP312	ltpFR2	12	n/a	n/a	n/a	25	13	9	3	1
4084.628	n/a	PROB	2042314	n/a	LTP312	ltpFR2	12	n/a	n/a	n/a	25	9	1	7	1
4086.43	n/a	PROB	2043215	n/a	LTP312	ltpFR2	12	n/a	n/a	n/a	25	11	4	6	1
4087.53	n/a	PROB	2043765	n/a	LTP312	ltpFR2	12	n/a	n/a	n/a	25	22	7	6	9
4089.594	n/a	STOP	2044797	n/a	LTP312	ltpFR2	12	n/a	n/a	n/a	25	n/a	n/a	n/a	n/a
4092.218	n/a	WORD	2046109	wordpools/wasnorm_wordpool_576.txt	LTP312	ltpFR2	12	17	PAIL	1002	n/a	n/a	0	0	0
4094.988	n/a	WORD	2047494	wordpools/wasnorm_wordpool_576.txt	LTP312	ltpFR2	12	17	DUST	508	n/a	n/a	0	0	0
4097.64	n/a	WORD	2048820	wordpools/wasnorm_wordpool_576.txt	LTP312	ltpFR2	12	17	HARP	689	n/a	n/a	0	0	0
4100.24	n/a	WORD	2050120	wordpools/wasnorm_wordpool_576.txt	LTP312	ltpFR2	12	17	SKIRT	1319	n/a	n/a	0	0	0
4102.776	n/a	WORD	2051388	wordpools/wasnorm_wordpool_576.txt	LTP312	ltpFR2	12	17	SILK	1307	n/a	n/a	0	0	0
4105.212	n/a	WORD	2052606	wordpools/wasnorm_wordpool_576.txt	LTP312	ltpFR2	12	17	MARSH	874	n/a	n/a	0	0	0
4107.93	n/a	WORD	2053965	wordpools/wasnorm_wordpool_576.txt	LTP312	ltpFR2	12	17	DORM	488	n/a	n/a	0	0	0
4110.482	n/a	WORD	2055241	wordpools/wasnorm_wordpool_576.txt	LTP312	ltpFR2	12	17	LUMBER	848	n/a	n/a	0	0	0
4113.184	n/a	WORD	2056592	wordpools/wasnorm_wordpool_576.txt	LTP312	ltpFR2	12	17	DUSTPAN	509	n/a	n/a	0	0	0
4115.756	n/a	WORD	2057878	wordpools/wasnorm_wordpool_576.txt	LTP312	ltpFR2	12	17	GALLON	618	n/a	n/a	0	0	0
4118.506	n/a	WORD	2059253	wordpools/wasnorm_wordpool_576.txt	LTP312	ltpFR2	12	17	OUTLAW	989	n/a	n/a	0	0	0
4121.06	n/a	WORD	2060530	wordpools/wasnorm_wordpool_576.txt	LTP312	ltpFR2	12	17	ROBBER	1197	n/a	n/a	0	0	0
4123.81	n/a	WORD	2061905	wordpools/wasnorm_wordpool_576.txt	LTP312	ltpFR2	12	17	SPARROW	1347	n/a	n/a	0	0	0
4126.55	n/a	WORD	2063275	wordpools/wasnorm_wordpool_576.txt	LTP312	ltpFR2	12	17	PEDAL	1037	n/a	n/a	0	0	0
4129.116	n/a	WORD	2064558	wordpools/wasnorm_wordpool_576.txt	LTP312	ltpFR2	12	17	GARDEN	623	n/a	n/a	0	0	0
4131.566	n/a	WORD	2065783	wordpools/wasnorm_wordpool_576.txt	LTP312	ltpFR2	12	17	TORTOISE	1486	n/a	n/a	0	0	0
4134.336	n/a	WORD	2067168	wordpools/wasnorm_wordpool_576.txt	LTP312	ltpFR2	12	17	CARROT	249	n/a	n/a	0	0	0
4136.77	n/a	WORD	2068385	wordpools/wasnorm_wordpool_576.txt	LTP312	ltpFR2	12	17	CRIB	407	n/a	n/a	0	0	0
4139.49	n/a	WORD	2069745	wordpools/wasnorm_wordpool_576.txt	LTP312	ltpFR2	12	17	SWIMMER	1420	n/a	n/a	0	0	0
4142.092	n/a	WORD	2071046	wordpools/wasnorm_wordpool_576.txt	LTP312	ltpFR2	12	17	CLOUD	328	n/a	n/a	0	0	0
4144.846	n/a	WORD	2072423	wordpools/wasnorm_wordpool_576.txt	LTP312	ltpFR2	12	17	SANDWICH	1232	n/a	n/a	0	0	0
4147.65	n/a	WORD	2073825	wordpools/wasnorm_wordpool_576.txt	LTP312	ltpFR2	12	17	UNCLE	1536	n/a	n/a	0	0	0
4150.148	n/a	WORD	2075074	wordpools/wasnorm_wordpool_576.txt	LTP312	ltpFR2	12	17	FIDDLE	561	n/a	n/a	0	0	0
4152.582	n/a	WORD	2076291	wordpools/wasnorm_wordpool_576.txt	LTP312	ltpFR2	12	17	MILK	895	n/a	n/a	0	0	0
4154.19	n/a	START	2077095	n/a	LTP312	ltpFR2	12	n/a	n/a	n/a	26	n/a	n/a	n/a	n/a
4155.208	n/a	DISTRACTOR	2077604	n/a	LTP312	ltpFR2	12	17	n/a	n/a	n/a	n/a	0	0	0
4155.218	n/a	PROB	2077609	n/a	LTP312	ltpFR2	12	n/a	n/a	n/a	26	23	8	7	8
4157.884	n/a	PROB	2078942	n/a	LTP312	ltpFR2	12	n/a	n/a	n/a	26	22	5	8	9
4159.872	n/a	PROB	2079936	n/a	LTP312	ltpFR2	12	n/a	n/a	n/a	26	17	7	7	3
4161.372	n/a	PROB	2080686	n/a	LTP312	ltpFR2	12	n/a	n/a	n/a	26	11	5	3	3
4162.706	n/a	PROB	2081353	n/a	LTP312	ltpFR2	12	n/a	n/a	n/a	26	12	3	2	7
4163.89	n/a	PROB	2081945	n/a	LTP312	ltpFR2	12	n/a	n/a	n/a	26	20	9	2	9
4165.374	n/a	PROB	2082687	n/a	LTP312	ltpFR2	12	n/a	n/a	n/a	26	23	9	8	6
4167.576	n/a	PROB	2083788	n/a	LTP312	ltpFR2	12	n/a	n/a	n/a	26	13	8	3	2
4168.86	n/a	PROB	2084430	n/a	LTP312	ltpFR2	12	n/a	n/a	n/a	26	19	9	8	2
4170.53	n/a	PROB	2085265	n/a	LTP312	ltpFR2	12	n/a	n/a	n/a	26	13	5	4	4
4172.396	n/a	PROB	2086198	n/a	LTP312	ltpFR2	12	n/a	n/a	n/a	26	19	9	2	8
4173.95	n/a	PROB	2086975	n/a	LTP312	ltpFR2	12	n/a	n/a	n/a	26	8	3	3	2
4175.134	n/a	PROB	2087567	n/a	LTP312	ltpFR2	12	n/a	n/a	n/a	26	17	7	9	1
4178.19	n/a	STOP	2089095	n/a	LTP312	ltpFR2	12	n/a	n/a	n/a	26	n/a	n/a	n/a	n/a
4179.97	n/a	REC_START	2089985	n/a	LTP312	ltpFR2	12	17	n/a	n/a	n/a	n/a	0	0	0
4180.774	n/a	REC_WORD	2090387	wordpools/wasnorm_wordpool_576.txt	LTP312	ltpFR2	12	17	MILK	895	n/a	n/a	0	0	0
4181.736	n/a	REC_WORD	2090868	wordpools/wasnorm_wordpool_576.txt	LTP312	ltpFR2	12	17	FIDDLE	561	n/a	n/a	0	0	0
4182.904	n/a	REC_WORD	2091452	wordpools/wasnorm_wordpool_576.txt	LTP312	ltpFR2	12	17	UNCLE	1536	n/a	n/a	0	0	0
4184.024	n/a	REC_WORD	2092012	wordpools/wasnorm_wordpool_576.txt	LTP312	ltpFR2	12	17	SANDWICH	1232	n/a	n/a	0	0	0
4185.594	n/a	REC_WORD	2092797	wordpools/wasnorm_wordpool_576.txt	LTP312	ltpFR2	12	17	DUST	508	n/a	n/a	0	0	0
4186.664	n/a	REC_WORD	2093332	wordpools/wasnorm_wordpool_576.txt	LTP312	ltpFR2	12	17	PAIL	1002	n/a	n/a	0	0	0
4188.034	n/a	REC_WORD	2094017	wordpools/wasnorm_wordpool_576.txt	LTP312	ltpFR2	12	17	LUMBER	848	n/a	n/a	0	0	0
4189.304	n/a	REC_WORD	2094652	wordpools/wasnorm_wordpool_576.txt	LTP312	ltpFR2	12	17	GARDEN	623	n/a	n/a	0	0	0
4190.352	n/a	REC_WORD	2095176	wordpools/wasnorm_wordpool_576.txt	LTP312	ltpFR2	12	17	PEDAL	1037	n/a	n/a	0	0	0
4191.808	n/a	REC_WORD	2095904	wordpools/wasnorm_wordpool_576.txt	LTP312	ltpFR2	12	17	TORTOISE	1486	n/a	n/a	0	0	0
4193.182	n/a	REC_WORD	2096591	wordpools/wasnorm_wordpool_576.txt	LTP312	ltpFR2	12	17	CARROT	249	n/a	n/a	0	0	0
4194.646	n/a	REC_WORD	2097323	wordpools/wasnorm_wordpool_576.txt	LTP312	ltpFR2	12	17	CRIB	407	n/a	n/a	0	0	0
4195.79	n/a	REC_WORD	2097895	wordpools/wasnorm_wordpool_576.txt	LTP312	ltpFR2	12	17	SWIMMER	1420	n/a	n/a	0	0	0
4270.424	n/a	WORD	2135212	wordpools/wasnorm_wordpool_576.txt	LTP312	ltpFR2	12	18	KIDNEY	776	n/a	n/a	0	0	0
4272.892	n/a	WORD	2136446	wordpools/wasnorm_wordpool_576.txt	LTP312	ltpFR2	12	18	CLOTHES	327	n/a	n/a	0	0	0
4275.658	n/a	WORD	2137829	wordpools/wasnorm_wordpool_576.txt	LTP312	ltpFR2	12	18	JUGGLER	763	n/a	n/a	0	0	0
4278.378	n/a	WORD	2139189	wordpools/wasnorm_wordpool_576.txt	LTP312	ltpFR2	12	18	GYMNAST	675	n/a	n/a	0	0	0
4280.93	n/a	WORD	2140465	wordpools/wasnorm_wordpool_576.txt	LTP312	ltpFR2	12	18	CLOCK	325	n/a	n/a	0	0	0
4283.382	n/a	WORD	2141691	wordpools/wasnorm_wordpool_576.txt	LTP312	ltpFR2	12	18	SUITCASE	1403	n/a	n/a	0	0	0
4285.852	n/a	WORD	2142926	wordpools/wasnorm_wordpool_576.txt	LTP312	ltpFR2	12	18	SWORD	1423	n/a	n/a	0	0	0
4288.636	n/a	WORD	2144318	wordpools/wasnorm_wordpool_576.txt	LTP312	ltpFR2	12	18	PERMIT	1051	n/a	n/a	0	0	0
4291.372	n/a	WORD	2145686	wordpools/wasnorm_wordpool_576.txt	LTP312	ltpFR2	12	18	SISTER	1312	n/a	n/a	0	0	0
4293.992	n/a	WORD	2146996	wordpools/wasnorm_wordpool_576.txt	LTP312	ltpFR2	12	18	HAMPER	682	n/a	n/a	0	0	0
4296.56	n/a	WORD	2148280	wordpools/wasnorm_wordpool_576.txt	LTP312	ltpFR2	12	18	BRACES	164	n/a	n/a	0	0	0
4299.348	n/a	WORD	2149674	wordpools/wasnorm_wordpool_576.txt	LTP312	ltpFR2	12	18	ROOSTER	1209	n/a	n/a	0	0	0
4302.1	n/a	WORD	2151050	wordpools/wasnorm_wordpool_576.txt	LTP312	ltpFR2	12	18	PRIMATE	1123	n/a	n/a	0	0	0
4304.7	n/a	WORD	2152350	wordpools/wasnorm_wordpool_576.txt	LTP312	ltpFR2	12	18	SCALLOP	1242	n/a	n/a	0	0	0
4307.386	n/a	WORD	2153693	wordpools/wasnorm_wordpool_576.txt	LTP312	ltpFR2	12	18	SPOON	1357	n/a	n/a	0	0	0
4310.14	n/a	WORD	2155070	wordpools/wasnorm_wordpool_576.txt	LTP312	ltpFR2	12	18	ATLAS	53	n/a	n/a	0	0	0
4312.956	n/a	WORD	2156478	wordpools/wasnorm_wordpool_576.txt	LTP312	ltpFR2	12	18	SALT	1229	n/a	n/a	0	0	0
4315.608	n/a	WORD	2157804	wordpools/wasnorm_wordpool_576.txt	LTP312	ltpFR2	12	18	PEPPER	1047	n/a	n/a	0	0	0
4318.146	n/a	WORD	2159073	wordpools/wasnorm_wordpool_576.txt	LTP312	ltpFR2	12	18	CREATURE	403	n/a	n/a	0	0	0
4320.796	n/a	WORD	2160398	wordpools/wasnorm_wordpool_576.txt	LTP312	ltpFR2	12	18	PASSAGE	1019	n/a	n/a	0	0	0
4323.498	n/a	WORD	2161749	wordpools/wasnorm_wordpool_576.txt	LTP312	ltpFR2	12	18	NOVEL	960	n/a	n/a	0	0	0
4326.036	n/a	WORD	2163018	wordpools/wasnorm_wordpool_576.txt	LTP312	ltpFR2	12	18	WIFE	1609	n/a	n/a	0	0	0
4328.468	n/a	WORD	2164234	wordpools/wasnorm_wordpool_576.txt	LTP312	ltpFR2	12	18	PLASTER	1085	n/a	n/a	0	0	0
4330.938	n/a	WORD	2165469	wordpools/wasnorm_wordpool_576.txt	LTP312	ltpFR2	12	18	SIDEWALK	1303	n/a	n/a	0	0	0
4332.556	n/a	START	2166278	n/a	LTP312	ltpFR2	12	n/a	n/a	n/a	27	n/a	n/a	n/a	n/a
4333.728	n/a	DISTRACTOR	2166864	n/a	LTP312	ltpFR2	12	18	n/a	n/a	n/a	n/a	0	0	0
4333.74	n/a	PROB	2166870	n/a	LTP312	ltpFR2	12	n/a	n/a	n/a	27	8	2	4	2
4335.108	n/a	PROB	2167554	n/a	LTP312	ltpFR2	12	n/a	n/a	n/a	27	18	8	4	6
4336.392	n/a	PROB	2168196	n/a	LTP312	ltpFR2	12	n/a	n/a	n/a	27	7	5	1	1
4337.442	n/a	PROB	2168721	n/a	LTP312	ltpFR2	12	n/a	n/a	n/a	27	13	2	7	4
4339.244	n/a	PROB	2169622	n/a	LTP312	ltpFR2	12	n/a	n/a	n/a	27	22	4	9	9
4340.862	n/a	PROB	2170431	n/a	LTP312	ltpFR2	12	n/a	n/a	n/a	27	14	6	5	3
4343.18	n/a	PROB	2171590	n/a	LTP312	ltpFR2	12	n/a	n/a	n/a	27	10	4	1	5
4344.464	n/a	PROB	2172232	n/a	LTP312	ltpFR2	12	n/a	n/a	n/a	27	16	8	3	5
4345.882	n/a	PROB	2172941	n/a	LTP312	ltpFR2	12	n/a	n/a	n/a	27	10	4	3	3
4347.1	n/a	PROB	2173550	n/a	LTP312	ltpFR2	12	n/a	n/a	n/a	27	14	7	6	1
4348.468	n/a	PROB	2174234	n/a	LTP312	ltpFR2	12	n/a	n/a	n/a	27	9	7	1	1
4349.536	n/a	PROB	2174768	n/a	LTP312	ltpFR2	12	n/a	n/a	n/a	27	19	7	9	3
4351.47	n/a	PROB	2175735	n/a	LTP312	ltpFR2	12	n/a	n/a	n/a	27	24	9	8	7
4353.606	n/a	PROB	2176803	n/a	LTP312	ltpFR2	12	n/a	n/a	n/a	27	20	8	4	8
4355.238	n/a	STOP	2177619	n/a	LTP312	ltpFR2	12	n/a	n/a	n/a	27	n/a	n/a	n/a	n/a
4358.442	n/a	REC_START	2179221	n/a	LTP312	ltpFR2	12	18	n/a	n/a	n/a	n/a	0	0	0
4359.326	n/a	REC_WORD	2179663	wordpools/wasnorm_wordpool_576.txt	LTP312	ltpFR2	12	18	KIDNEY	776	n/a	n/a	0	0	0
4361.604	n/a	REC_WORD	2180802	wordpools/wasnorm_wordpool_576.txt	LTP312	ltpFR2	12	18	SISTER	1312	n/a	n/a	0	0	0
4387.996	n/a	REC_WORD	2193998	wordpools/wasnorm_wordpool_576.txt	LTP312	ltpFR2	12	18	SCOOP	-1	n/a	n/a	0	0	0
4395.9	n/a	REC_WORD	2197950	wordpools/wasnorm_wordpool_576.txt	LTP312	ltpFR2	12	18	GYMNAST	675	n/a	n/a	0	0	0
4411.83	n/a	REC_WORD	2205915	wordpools/wasnorm_wordpool_576.txt	LTP312	ltpFR2	12	18	ATLAS	53	n/a	n/a	0	0	0
4448.878	n/a	WORD	2224439	wordpools/wasnorm_wordpool_576.txt	LTP312	ltpFR2	12	19	WORLD	1622	n/a	n/a	0	0	0
4451.324	n/a	WORD	2225662	wordpools/wasnorm_wordpool_576.txt	LTP312	ltpFR2	12	19	PARSLEY	1016	n/a	n/a	0	0	0
4454.102	n/a	WORD	2227051	wordpools/wasnorm_wordpool_576.txt	LTP312	ltpFR2	12	19	CEILING	265	n/a	n/a	0	0	0
4456.702	n/a	WORD	2228351	wordpools/wasnorm_wordpool_576.txt	LTP312	ltpFR2	12	19	TILE	1468	n/a	n/a	0	0	0
4459.288	n/a	WORD	2229644	wordpools/wasnorm_wordpool_576.txt	LTP312	ltpFR2	12	19	PASTRY	1022	n/a	n/a	0	0	0
4461.824	n/a	WORD	2230912	wordpools/wasnorm_wordpool_576.txt	LTP312	ltpFR2	12	19	LAMP	798	n/a	n/a	0	0	0
4464.604	n/a	WORD	2232302	wordpools/wasnorm_wordpool_576.txt	LTP312	ltpFR2	12	19	PEACH	1031	n/a	n/a	0	0	0
4467.346	n/a	WORD	2233673	wordpools/wasnorm_wordpool_576.txt	LTP312	ltpFR2	12	19	SERVER	1272	n/a	n/a	0	0	0
4469.908	n/a	WORD	2234954	wordpools/wasnorm_wordpool_576.txt	LTP312	ltpFR2	12	19	PIGEON	1065	n/a	n/a	0	0	0
4472.582	n/a	WORD	2236291	wordpools/wasnorm_wordpool_576.txt	LTP312	ltpFR2	12	19	CRATER	400	n/a	n/a	0	0	0
4475.03	n/a	WORD	2237515	wordpools/wasnorm_wordpool_576.txt	LTP312	ltpFR2	12	19	VENUS	1557	n/a	n/a	0	0	0
4477.652	n/a	WORD	2238826	wordpools/wasnorm_wordpool_576.txt	LTP312	ltpFR2	12	19	COMET	353	n/a	n/a	0	0	0
4480.304	n/a	WORD	2240152	wordpools/wasnorm_wordpool_576.txt	LTP312	ltpFR2	12	19	BLACKBOARD	133	n/a	n/a	0	0	0
4483.006	n/a	WORD	2241503	wordpools/wasnorm_wordpool_576.txt	LTP312	ltpFR2	12	19	KNIFE	785	n/a	n/a	0	0	0
4485.67	n/a	WORD	2242835	wordpools/wasnorm_wordpool_576.txt	LTP312	ltpFR2	12	19	SERVANT	1271	n/a	n/a	0	0	0
4488.472	n/a	WORD	2244236	wordpools/wasnorm_wordpool_576.txt	LTP312	ltpFR2	12	19	MAILMAN	858	n/a	n/a	0	0	0
4491.126	n/a	WORD	2245563	wordpools/wasnorm_wordpool_576.txt	LTP312	ltpFR2	12	19	GRAPE	654	n/a	n/a	0	0	0
