onset	duration	trial_type	sample	stim_file	subject	experiment	session	trial	item_name	item_num	list	answer	test_x	test_y	test_z
230.39697265625	n/a	SESS_START	471853	n/a	LTP364	ltpFR2	23	n/a	n/a	n/a	n/a	n/a	0	0	0
244.12548828125	n/a	START	499969	n/a	LTP364	ltpFR2	23	n/a	n/a	n/a	-1	n/a	n/a	n/a	n/a
244.15625	n/a	PROB	500032	n/a	LTP364	ltpFR2	23	n/a	n/a	n/a	-1	21	8	7	6
246.12255859375	n/a	PROB	504059	n/a	LTP364	ltpFR2	23	n/a	n/a	n/a	-1	9	3	4	2
249.37109375	n/a	PROB	510712	n/a	LTP364	ltpFR2	23	n/a	n/a	n/a	-1	11	1	8	2
252.18603515625	n/a	PROB	516477	n/a	LTP364	ltpFR2	23	n/a	n/a	n/a	-1	20	7	7	6
255.92431640625	n/a	STOP	524133	n/a	LTP364	ltpFR2	23	n/a	n/a	n/a	-1	n/a	n/a	n/a	n/a
285.55322265625	n/a	DISTRACTOR	584813	n/a	LTP364	ltpFR2	23	1	n/a	n/a	n/a	n/a	0	0	0
285.55322265625	n/a	START	584813	n/a	LTP364	ltpFR2	23	n/a	n/a	n/a	1	n/a	n/a	n/a	n/a
285.5703125	n/a	PROB	584848	n/a	LTP364	ltpFR2	23	n/a	n/a	n/a	1	17	5	6	6
288.0849609375	n/a	PROB	589998	n/a	LTP364	ltpFR2	23	n/a	n/a	n/a	1	15	3	6	6
290.5009765625	n/a	PROB	594946	n/a	LTP364	ltpFR2	23	n/a	n/a	n/a	1	20	9	4	7
292.6328125	n/a	PROB	599312	n/a	LTP364	ltpFR2	23	n/a	n/a	n/a	1	14	5	4	5
294.265625	n/a	PROB	602656	n/a	LTP364	ltpFR2	23	n/a	n/a	n/a	1	15	9	5	1
296.61474609375	n/a	PROB	607467	n/a	LTP364	ltpFR2	23	n/a	n/a	n/a	1	3	1	1	1
297.64794921875	n/a	PROB	609583	n/a	LTP364	ltpFR2	23	n/a	n/a	n/a	1	12	6	5	1
299.1298828125	n/a	PROB	612618	n/a	LTP364	ltpFR2	23	n/a	n/a	n/a	1	18	7	3	8
300.595703125	n/a	PROB	615620	n/a	LTP364	ltpFR2	23	n/a	n/a	n/a	1	8	3	4	1
302.61181640625	n/a	PROB	619749	n/a	LTP364	ltpFR2	23	n/a	n/a	n/a	1	20	8	3	9
306.810546875	n/a	PROB	628348	n/a	LTP364	ltpFR2	23	n/a	n/a	n/a	1	17	5	8	4
309.09228515625	n/a	STOP	633021	n/a	LTP364	ltpFR2	23	n/a	n/a	n/a	1	n/a	n/a	n/a	n/a
310.4912109375	n/a	WORD	635886	wordpools/wasnorm_wordpool_576.txt	LTP364	ltpFR2	23	1	SEAGULL	1261	n/a	n/a	0	0	0
313.123046875	n/a	WORD	641276	wordpools/wasnorm_wordpool_576.txt	LTP364	ltpFR2	23	1	PARTNER	1017	n/a	n/a	0	0	0
315.9052734375	n/a	WORD	646974	wordpools/wasnorm_wordpool_576.txt	LTP364	ltpFR2	23	1	KIDNEY	776	n/a	n/a	0	0	0
318.404296875	n/a	WORD	652092	wordpools/wasnorm_wordpool_576.txt	LTP364	ltpFR2	23	1	DUSTPAN	509	n/a	n/a	0	0	0
321.15283203125	n/a	WORD	657721	wordpools/wasnorm_wordpool_576.txt	LTP364	ltpFR2	23	1	BUGGY	188	n/a	n/a	0	0	0
323.8359375	n/a	WORD	663216	wordpools/wasnorm_wordpool_576.txt	LTP364	ltpFR2	23	1	CIRCUS	311	n/a	n/a	0	0	0
326.31689453125	n/a	WORD	668297	wordpools/wasnorm_wordpool_576.txt	LTP364	ltpFR2	23	1	PARCEL	1012	n/a	n/a	0	0	0
328.8828125	n/a	WORD	673552	wordpools/wasnorm_wordpool_576.txt	LTP364	ltpFR2	23	1	PEDAL	1037	n/a	n/a	0	0	0
331.44775390625	n/a	WORD	678805	wordpools/wasnorm_wordpool_576.txt	LTP364	ltpFR2	23	1	LONDON	843	n/a	n/a	0	0	0
333.91357421875	n/a	WORD	683855	wordpools/wasnorm_wordpool_576.txt	LTP364	ltpFR2	23	1	DOG	480	n/a	n/a	0	0	0
336.37841796875	n/a	WORD	688903	wordpools/wasnorm_wordpool_576.txt	LTP364	ltpFR2	23	1	CRIB	407	n/a	n/a	0	0	0
339.17724609375	n/a	WORD	694635	wordpools/wasnorm_wordpool_576.txt	LTP364	ltpFR2	23	1	RIBBON	1189	n/a	n/a	0	0	0
341.70947265625	n/a	WORD	699821	wordpools/wasnorm_wordpool_576.txt	LTP364	ltpFR2	23	1	SHAMPOO	1274	n/a	n/a	0	0	0
344.2080078125	n/a	WORD	704938	wordpools/wasnorm_wordpool_576.txt	LTP364	ltpFR2	23	1	PLANET	1082	n/a	n/a	0	0	0
346.791015625	n/a	WORD	710228	wordpools/wasnorm_wordpool_576.txt	LTP364	ltpFR2	23	1	HOUSE	725	n/a	n/a	0	0	0
349.40625	n/a	WORD	715584	wordpools/wasnorm_wordpool_576.txt	LTP364	ltpFR2	23	1	SKATE	1313	n/a	n/a	0	0	0
351.85400390625	n/a	WORD	720597	wordpools/wasnorm_wordpool_576.txt	LTP364	ltpFR2	23	1	STAIRS	1367	n/a	n/a	0	0	0
354.669921875	n/a	WORD	726364	wordpools/wasnorm_wordpool_576.txt	LTP364	ltpFR2	23	1	COUCH	386	n/a	n/a	0	0	0
357.384765625	n/a	WORD	731924	wordpools/wasnorm_wordpool_576.txt	LTP364	ltpFR2	23	1	PADDING	999	n/a	n/a	0	0	0
359.90087890625	n/a	WORD	737077	wordpools/wasnorm_wordpool_576.txt	LTP364	ltpFR2	23	1	GLACIER	638	n/a	n/a	0	0	0
362.4658203125	n/a	WORD	742330	wordpools/wasnorm_wordpool_576.txt	LTP364	ltpFR2	23	1	BASEBALL	93	n/a	n/a	0	0	0
365.064453125	n/a	WORD	747652	wordpools/wasnorm_wordpool_576.txt	LTP364	ltpFR2	23	1	SATURN	1236	n/a	n/a	0	0	0
367.61328125	n/a	WORD	752872	wordpools/wasnorm_wordpool_576.txt	LTP364	ltpFR2	23	1	ROBIN	1199	n/a	n/a	0	0	0
370.21240234375	n/a	WORD	758195	wordpools/wasnorm_wordpool_576.txt	LTP364	ltpFR2	23	1	PENGUIN	1044	n/a	n/a	0	0	0
371.8291015625	n/a	START	761506	n/a	LTP364	ltpFR2	23	n/a	n/a	n/a	2	n/a	n/a	n/a	n/a
372.75830078125	n/a	DISTRACTOR	763409	n/a	LTP364	ltpFR2	23	1	n/a	n/a	n/a	n/a	0	0	0
372.76220703125	n/a	PROB	763417	n/a	LTP364	ltpFR2	23	n/a	n/a	n/a	2	17	9	1	7
375.12646484375	n/a	PROB	768259	n/a	LTP364	ltpFR2	23	n/a	n/a	n/a	2	13	3	3	7
378.00830078125	n/a	PROB	774161	n/a	LTP364	ltpFR2	23	n/a	n/a	n/a	2	12	3	3	6
380.44091796875	n/a	PROB	779143	n/a	LTP364	ltpFR2	23	n/a	n/a	n/a	2	155	8	1	6
382.20703125	n/a	PROB	782760	n/a	LTP364	ltpFR2	23	n/a	n/a	n/a	2	11	4	5	2
386.2548828125	n/a	PROB	791050	n/a	LTP364	ltpFR2	23	n/a	n/a	n/a	2	18	6	5	7
388.919921875	n/a	PROB	796508	n/a	LTP364	ltpFR2	23	n/a	n/a	n/a	2	18	4	5	9
390.6357421875	n/a	PROB	800022	n/a	LTP364	ltpFR2	23	n/a	n/a	n/a	2	20	7	7	6
393.56787109375	n/a	PROB	806027	n/a	LTP364	ltpFR2	23	n/a	n/a	n/a	2	15	6	4	5
394.8837890625	n/a	STOP	808722	n/a	LTP364	ltpFR2	23	n/a	n/a	n/a	2	n/a	n/a	n/a	n/a
397.66650390625	n/a	REC_START	814421	n/a	LTP364	ltpFR2	23	1	n/a	n/a	n/a	n/a	0	0	0
401.03857421875	n/a	REC_WORD	821327	wordpools/wasnorm_wordpool_576.txt	LTP364	ltpFR2	23	1	SEAGULL	1261	n/a	n/a	0	0	0
401.92431640625	n/a	REC_WORD	823141	wordpools/wasnorm_wordpool_576.txt	LTP364	ltpFR2	23	1	PARTNER	1017	n/a	n/a	0	0	0
403.26611328125	n/a	REC_WORD	825889	wordpools/wasnorm_wordpool_576.txt	LTP364	ltpFR2	23	1	LIVER	833	n/a	n/a	0	0	0
406.33837890625	n/a	REC_WORD	832181	wordpools/wasnorm_wordpool_576.txt	LTP364	ltpFR2	23	1	BUGGY	188	n/a	n/a	0	0	0
407.15234375	n/a	REC_WORD	833848	wordpools/wasnorm_wordpool_576.txt	LTP364	ltpFR2	23	1	CIRCUS	311	n/a	n/a	0	0	0
408.43310546875	n/a	REC_WORD	836471	wordpools/wasnorm_wordpool_576.txt	LTP364	ltpFR2	23	1	PARCEL	1012	n/a	n/a	0	0	0
409.947265625	n/a	REC_WORD	839572	wordpools/wasnorm_wordpool_576.txt	LTP364	ltpFR2	23	1	PEDAL	1037	n/a	n/a	0	0	0
410.669921875	n/a	REC_WORD	841052	wordpools/wasnorm_wordpool_576.txt	LTP364	ltpFR2	23	1	LONDON	843	n/a	n/a	0	0	0
412.69384765625	n/a	REC_WORD	845197	wordpools/wasnorm_wordpool_576.txt	LTP364	ltpFR2	23	1	DOG	480	n/a	n/a	0	0	0
414.72216796875	n/a	REC_WORD	849351	wordpools/wasnorm_wordpool_576.txt	LTP364	ltpFR2	23	1	CRIB	407	n/a	n/a	0	0	0
415.77783203125	n/a	REC_WORD	851513	wordpools/wasnorm_wordpool_576.txt	LTP364	ltpFR2	23	1	RIBBON	1189	n/a	n/a	0	0	0
422.890625	n/a	REC_WORD	866080	wordpools/wasnorm_wordpool_576.txt	LTP364	ltpFR2	23	1	BASEBALL	93	n/a	n/a	0	0	0
426.359375	n/a	REC_WORD	873184	wordpools/wasnorm_wordpool_576.txt	LTP364	ltpFR2	23	1	GLACIER	638	n/a	n/a	0	0	0
431.25537109375	n/a	REC_WORD	883211	wordpools/wasnorm_wordpool_576.txt	LTP364	ltpFR2	23	1	SATURN	1236	n/a	n/a	0	0	0
432.322265625	n/a	REC_WORD	885396	wordpools/wasnorm_wordpool_576.txt	LTP364	ltpFR2	23	1	SPARROW	1347	n/a	n/a	0	0	0
433.17431640625	n/a	REC_WORD	887141	wordpools/wasnorm_wordpool_576.txt	LTP364	ltpFR2	23	1	PENGUIN	1044	n/a	n/a	0	0	0
443.89404296875	n/a	REC_WORD	909095	wordpools/wasnorm_wordpool_576.txt	LTP364	ltpFR2	23	1	ARMCHAIR	-1	n/a	n/a	0	0	0
488.12158203125	n/a	WORD	999673	wordpools/wasnorm_wordpool_576.txt	LTP364	ltpFR2	23	2	WINDOW	1611	n/a	n/a	0	0	0
490.6533203125	n/a	WORD	1004858	wordpools/wasnorm_wordpool_576.txt	LTP364	ltpFR2	23	2	FOX	598	n/a	n/a	0	0	0
493.46923828125	n/a	WORD	1010625	wordpools/wasnorm_wordpool_576.txt	LTP364	ltpFR2	23	2	IDOL	733	n/a	n/a	0	0	0
496.234375	n/a	WORD	1016288	wordpools/wasnorm_wordpool_576.txt	LTP364	ltpFR2	23	2	COMPASS	358	n/a	n/a	0	0	0
498.7333984375	n/a	WORD	1021406	wordpools/wasnorm_wordpool_576.txt	LTP364	ltpFR2	23	2	PRINCE	1124	n/a	n/a	0	0	0
501.23193359375	n/a	WORD	1026523	wordpools/wasnorm_wordpool_576.txt	LTP364	ltpFR2	23	2	SNOB	1335	n/a	n/a	0	0	0
504.046875	n/a	WORD	1032288	wordpools/wasnorm_wordpool_576.txt	LTP364	ltpFR2	23	2	KEEPER	769	n/a	n/a	0	0	0
506.69580078125	n/a	WORD	1037713	wordpools/wasnorm_wordpool_576.txt	LTP364	ltpFR2	23	2	TEAPOT	1442	n/a	n/a	0	0	0
509.4951171875	n/a	WORD	1043446	wordpools/wasnorm_wordpool_576.txt	LTP364	ltpFR2	23	2	SARDINE	1235	n/a	n/a	0	0	0
511.94384765625	n/a	WORD	1048461	wordpools/wasnorm_wordpool_576.txt	LTP364	ltpFR2	23	2	COBBLER	335	n/a	n/a	0	0	0
514.54248046875	n/a	WORD	1053783	wordpools/wasnorm_wordpool_576.txt	LTP364	ltpFR2	23	2	PRISON	1127	n/a	n/a	0	0	0
517.24072265625	n/a	WORD	1059309	wordpools/wasnorm_wordpool_576.txt	LTP364	ltpFR2	23	2	CROSS	413	n/a	n/a	0	0	0
519.70654296875	n/a	WORD	1064359	wordpools/wasnorm_wordpool_576.txt	LTP364	ltpFR2	23	2	NURSE	963	n/a	n/a	0	0	0
522.4716796875	n/a	WORD	1070022	wordpools/wasnorm_wordpool_576.txt	LTP364	ltpFR2	23	2	LEMON	810	n/a	n/a	0	0	0
525.03759765625	n/a	WORD	1075277	wordpools/wasnorm_wordpool_576.txt	LTP364	ltpFR2	23	2	CASTLE	256	n/a	n/a	0	0	0
527.787109375	n/a	WORD	1080908	wordpools/wasnorm_wordpool_576.txt	LTP364	ltpFR2	23	2	MONARCH	906	n/a	n/a	0	0	0
530.51806640625	n/a	WORD	1086501	wordpools/wasnorm_wordpool_576.txt	LTP364	ltpFR2	23	2	SEAL	1262	n/a	n/a	0	0	0
533.283203125	n/a	WORD	1092164	wordpools/wasnorm_wordpool_576.txt	LTP364	ltpFR2	23	2	COOKIE	374	n/a	n/a	0	0	0
535.94921875	n/a	WORD	1097624	wordpools/wasnorm_wordpool_576.txt	LTP364	ltpFR2	23	2	SAUCER	1237	n/a	n/a	0	0	0
538.43115234375	n/a	WORD	1102707	wordpools/wasnorm_wordpool_576.txt	LTP364	ltpFR2	23	2	KETTLE	772	n/a	n/a	0	0	0
540.89599609375	n/a	WORD	1107755	wordpools/wasnorm_wordpool_576.txt	LTP364	ltpFR2	23	2	BATHROOM	99	n/a	n/a	0	0	0
543.49462890625	n/a	WORD	1113077	wordpools/wasnorm_wordpool_576.txt	LTP364	ltpFR2	23	2	PATIENT	1024	n/a	n/a	0	0	0
546.09375	n/a	WORD	1118400	wordpools/wasnorm_wordpool_576.txt	LTP364	ltpFR2	23	2	CHIPMUNK	304	n/a	n/a	0	0	0
548.70947265625	n/a	WORD	1123757	wordpools/wasnorm_wordpool_576.txt	LTP364	ltpFR2	23	2	SWAMP	1416	n/a	n/a	0	0	0
550.32568359375	n/a	START	1127067	n/a	LTP364	ltpFR2	23	n/a	n/a	n/a	3	n/a	n/a	n/a	n/a
551.50732421875	n/a	DISTRACTOR	1129487	n/a	LTP364	ltpFR2	23	2	n/a	n/a	n/a	n/a	0	0	0
551.5244140625	n/a	PROB	1129522	n/a	LTP364	ltpFR2	23	n/a	n/a	n/a	3	13	5	4	4
553.8076171875	n/a	PROB	1134198	n/a	LTP364	ltpFR2	23	n/a	n/a	n/a	3	25	9	8	7
563.40234375	n/a	PROB	1153848	n/a	LTP364	ltpFR2	23	n/a	n/a	n/a	3	19	8	3	8
566.35107421875	n/a	PROB	1159887	n/a	LTP364	ltpFR2	23	n/a	n/a	n/a	3	20	9	7	4
568.4658203125	n/a	PROB	1164218	n/a	LTP364	ltpFR2	23	n/a	n/a	n/a	3	16	9	6	1
570.416015625	n/a	PROB	1168212	n/a	LTP364	ltpFR2	23	n/a	n/a	n/a	3	15	3	9	3
574.32470703125	n/a	STOP	1176217	n/a	LTP364	ltpFR2	23	n/a	n/a	n/a	3	n/a	n/a	n/a	n/a
576.212890625	n/a	REC_START	1180084	n/a	LTP364	ltpFR2	23	2	n/a	n/a	n/a	n/a	0	0	0
577.75244140625	n/a	REC_WORD	1183237	wordpools/wasnorm_wordpool_576.txt	LTP364	ltpFR2	23	2	PRINCE	1124	n/a	n/a	0	0	0
578.53662109375	n/a	REC_WORD	1184843	wordpools/wasnorm_wordpool_576.txt	LTP364	ltpFR2	23	2	WINDOW	1611	n/a	n/a	0	0	0
579.32861328125	n/a	REC_WORD	1186465	wordpools/wasnorm_wordpool_576.txt	LTP364	ltpFR2	23	2	IDOL	733	n/a	n/a	0	0	0
582.609375	n/a	REC_WORD	1193184	wordpools/wasnorm_wordpool_576.txt	LTP364	ltpFR2	23	2	SARDINE	1235	n/a	n/a	0	0	0
593.43896484375	n/a	REC_WORD	1215363	wordpools/wasnorm_wordpool_576.txt	LTP364	ltpFR2	23	2	TART	1436	n/a	n/a	0	0	0
666.65185546875	n/a	WORD	1365303	wordpools/wasnorm_wordpool_576.txt	LTP364	ltpFR2	23	3	BUILDER	190	n/a	n/a	0	0	0
669.20068359375	n/a	WORD	1370523	wordpools/wasnorm_wordpool_576.txt	LTP364	ltpFR2	23	3	CHAMBER	277	n/a	n/a	0	0	0
671.94970703125	n/a	WORD	1376153	wordpools/wasnorm_wordpool_576.txt	LTP364	ltpFR2	23	3	CATCHER	258	n/a	n/a	0	0	0
674.44873046875	n/a	WORD	1381271	wordpools/wasnorm_wordpool_576.txt	LTP364	ltpFR2	23	3	YARN	1631	n/a	n/a	0	0	0
677.0634765625	n/a	WORD	1386626	wordpools/wasnorm_wordpool_576.txt	LTP364	ltpFR2	23	3	MILK	895	n/a	n/a	0	0	0
679.8134765625	n/a	WORD	1392258	wordpools/wasnorm_wordpool_576.txt	LTP364	ltpFR2	23	3	LOBBY	836	n/a	n/a	0	0	0
682.54443359375	n/a	WORD	1397851	wordpools/wasnorm_wordpool_576.txt	LTP364	ltpFR2	23	3	COOK	372	n/a	n/a	0	0	0
685.2431640625	n/a	WORD	1403378	wordpools/wasnorm_wordpool_576.txt	LTP364	ltpFR2	23	3	NAPKIN	937	n/a	n/a	0	0	0
687.80908203125	n/a	WORD	1408633	wordpools/wasnorm_wordpool_576.txt	LTP364	ltpFR2	23	3	ALMOND	18	n/a	n/a	0	0	0
690.291015625	n/a	WORD	1413716	wordpools/wasnorm_wordpool_576.txt	LTP364	ltpFR2	23	3	SQUIRREL	1362	n/a	n/a	0	0	0
692.85595703125	n/a	WORD	1418969	wordpools/wasnorm_wordpool_576.txt	LTP364	ltpFR2	23	3	ORCHID	982	n/a	n/a	0	0	0
695.587890625	n/a	WORD	1424564	wordpools/wasnorm_wordpool_576.txt	LTP364	ltpFR2	23	3	PUPIL	1143	n/a	n/a	0	0	0
698.169921875	n/a	WORD	1429852	wordpools/wasnorm_wordpool_576.txt	LTP364	ltpFR2	23	3	DOCK	477	n/a	n/a	0	0	0
700.65283203125	n/a	WORD	1434937	wordpools/wasnorm_wordpool_576.txt	LTP364	ltpFR2	23	3	CRUTCH	417	n/a	n/a	0	0	0
703.45068359375	n/a	WORD	1440667	wordpools/wasnorm_wordpool_576.txt	LTP364	ltpFR2	23	3	WRIST	1626	n/a	n/a	0	0	0
705.96630859375	n/a	WORD	1445819	wordpools/wasnorm_wordpool_576.txt	LTP364	ltpFR2	23	3	BADGE	68	n/a	n/a	0	0	0
708.5654296875	n/a	WORD	1451142	wordpools/wasnorm_wordpool_576.txt	LTP364	ltpFR2	23	3	RODENT	1204	n/a	n/a	0	0	0
711.34716796875	n/a	WORD	1456839	wordpools/wasnorm_wordpool_576.txt	LTP364	ltpFR2	23	3	OATMEAL	967	n/a	n/a	0	0	0
713.79736328125	n/a	WORD	1461857	wordpools/wasnorm_wordpool_576.txt	LTP364	ltpFR2	23	3	TROMBONE	1508	n/a	n/a	0	0	0
716.328125	n/a	WORD	1467040	wordpools/wasnorm_wordpool_576.txt	LTP364	ltpFR2	23	3	WAREHOUSE	1588	n/a	n/a	0	0	0
718.91015625	n/a	WORD	1472328	wordpools/wasnorm_wordpool_576.txt	LTP364	ltpFR2	23	3	TURNIP	1521	n/a	n/a	0	0	0
721.55908203125	n/a	WORD	1477753	wordpools/wasnorm_wordpool_576.txt	LTP364	ltpFR2	23	3	KNUCKLE	789	n/a	n/a	0	0	0
724.3408203125	n/a	WORD	1483450	wordpools/wasnorm_wordpool_576.txt	LTP364	ltpFR2	23	3	STABLE	1363	n/a	n/a	0	0	0
726.873046875	n/a	WORD	1488636	wordpools/wasnorm_wordpool_576.txt	LTP364	ltpFR2	23	3	PONY	1102	n/a	n/a	0	0	0
728.48876953125	n/a	START	1491945	n/a	LTP364	ltpFR2	23	n/a	n/a	n/a	4	n/a	n/a	n/a	n/a
729.32666015625	n/a	DISTRACTOR	1493661	n/a	LTP364	ltpFR2	23	3	n/a	n/a	n/a	n/a	0	0	0
729.3388671875	n/a	PROB	1493686	n/a	LTP364	ltpFR2	23	n/a	n/a	n/a	4	23	9	5	9
732.98681640625	n/a	PROB	1501157	n/a	LTP364	ltpFR2	23	n/a	n/a	n/a	4	17	4	6	7
734.6025390625	n/a	PROB	1504466	n/a	LTP364	ltpFR2	23	n/a	n/a	n/a	4	18	7	4	7
736.802734375	n/a	PROB	1508972	n/a	LTP364	ltpFR2	23	n/a	n/a	n/a	4	13	1	6	6
739.03369140625	n/a	PROB	1513541	n/a	LTP364	ltpFR2	23	n/a	n/a	n/a	4	10	1	2	7
740.43359375	n/a	PROB	1516408	n/a	LTP364	ltpFR2	23	n/a	n/a	n/a	4	15	9	5	1
752.48779296875	n/a	STOP	1541095	n/a	LTP364	ltpFR2	23	n/a	n/a	n/a	4	n/a	n/a	n/a	n/a
754.34375	n/a	REC_START	1544896	n/a	LTP364	ltpFR2	23	3	n/a	n/a	n/a	n/a	0	0	0
755.7099609375	n/a	REC_WORD	1547694	wordpools/wasnorm_wordpool_576.txt	LTP364	ltpFR2	23	3	BUILDER	190	n/a	n/a	0	0	0
758.677734375	n/a	REC_WORD	1553772	wordpools/wasnorm_wordpool_576.txt	LTP364	ltpFR2	23	3	COOK	372	n/a	n/a	0	0	0
844.76708984375	n/a	DISTRACTOR	1730083	n/a	LTP364	ltpFR2	23	4	n/a	n/a	n/a	n/a	0	0	0
844.76708984375	n/a	START	1730083	n/a	LTP364	ltpFR2	23	n/a	n/a	n/a	5	n/a	n/a	n/a	n/a
844.7841796875	n/a	PROB	1730118	n/a	LTP364	ltpFR2	23	n/a	n/a	n/a	5	15	5	6	4
846.6650390625	n/a	PROB	1733970	n/a	LTP364	ltpFR2	23	n/a	n/a	n/a	5	18	7	3	8
848.19775390625	n/a	PROB	1737109	n/a	LTP364	ltpFR2	23	n/a	n/a	n/a	5	8	3	1	4
849.86376953125	n/a	PROB	1740521	n/a	LTP364	ltpFR2	23	n/a	n/a	n/a	5	12	2	6	4
852.1787109375	n/a	PROB	1745262	n/a	LTP364	ltpFR2	23	n/a	n/a	n/a	5	14	2	6	6
854.7958984375	n/a	PROB	1750622	n/a	LTP364	ltpFR2	23	n/a	n/a	n/a	5	16	6	7	3
856.61083984375	n/a	PROB	1754339	n/a	LTP364	ltpFR2	23	n/a	n/a	n/a	5	18	9	8	1
858.15966796875	n/a	PROB	1757511	n/a	LTP364	ltpFR2	23	n/a	n/a	n/a	5	22	4	9	9
864.1064453125	n/a	PROB	1769690	n/a	LTP364	ltpFR2	23	n/a	n/a	n/a	5	8	1	2	5
865.75634765625	n/a	PROB	1773069	n/a	LTP364	ltpFR2	23	n/a	n/a	n/a	5	14	5	8	1
867.4521484375	n/a	STOP	1776542	n/a	LTP364	ltpFR2	23	n/a	n/a	n/a	5	n/a	n/a	n/a	n/a
869.63720703125	n/a	WORD	1781017	wordpools/wasnorm_wordpool_576.txt	LTP364	ltpFR2	23	4	PORPOISE	1109	n/a	n/a	0	0	0
872.203125	n/a	WORD	1786272	wordpools/wasnorm_wordpool_576.txt	LTP364	ltpFR2	23	4	TUNNEL	1519	n/a	n/a	0	0	0
874.80224609375	n/a	WORD	1791595	wordpools/wasnorm_wordpool_576.txt	LTP364	ltpFR2	23	4	LILY	821	n/a	n/a	0	0	0
877.48291015625	n/a	WORD	1797085	wordpools/wasnorm_wordpool_576.txt	LTP364	ltpFR2	23	4	GARDEN	623	n/a	n/a	0	0	0
880.19873046875	n/a	WORD	1802647	wordpools/wasnorm_wordpool_576.txt	LTP364	ltpFR2	23	4	STUDENT	1395	n/a	n/a	0	0	0
882.7646484375	n/a	WORD	1807902	wordpools/wasnorm_wordpool_576.txt	LTP364	ltpFR2	23	4	SPRINKLE	1359	n/a	n/a	0	0	0
885.27978515625	n/a	WORD	1813053	wordpools/wasnorm_wordpool_576.txt	LTP364	ltpFR2	23	4	CREEK	404	n/a	n/a	0	0	0
888.0947265625	n/a	WORD	1818818	wordpools/wasnorm_wordpool_576.txt	LTP364	ltpFR2	23	4	MATCH	878	n/a	n/a	0	0	0
890.59375	n/a	WORD	1823936	wordpools/wasnorm_wordpool_576.txt	LTP364	ltpFR2	23	4	BLUEPRINT	142	n/a	n/a	0	0	0
893.109375	n/a	WORD	1829088	wordpools/wasnorm_wordpool_576.txt	LTP364	ltpFR2	23	4	COSTUME	383	n/a	n/a	0	0	0
895.54150390625	n/a	WORD	1834069	wordpools/wasnorm_wordpool_576.txt	LTP364	ltpFR2	23	4	PISTOL	1075	n/a	n/a	0	0	0
898.14013671875	n/a	WORD	1839391	wordpools/wasnorm_wordpool_576.txt	LTP364	ltpFR2	23	4	HANGER	687	n/a	n/a	0	0	0
900.85498046875	n/a	WORD	1844951	wordpools/wasnorm_wordpool_576.txt	LTP364	ltpFR2	23	4	BLUEJAY	141	n/a	n/a	0	0	0
903.30419921875	n/a	WORD	1849967	wordpools/wasnorm_wordpool_576.txt	LTP364	ltpFR2	23	4	BOYFRIEND	162	n/a	n/a	0	0	0
905.8359375	n/a	WORD	1855152	wordpools/wasnorm_wordpool_576.txt	LTP364	ltpFR2	23	4	IGLOO	734	n/a	n/a	0	0	0
908.634765625	n/a	WORD	1860884	wordpools/wasnorm_wordpool_576.txt	LTP364	ltpFR2	23	4	CHURCH	307	n/a	n/a	0	0	0
911.18408203125	n/a	WORD	1866105	wordpools/wasnorm_wordpool_576.txt	LTP364	ltpFR2	23	4	FROST	609	n/a	n/a	0	0	0
913.81689453125	n/a	WORD	1871497	wordpools/wasnorm_wordpool_576.txt	LTP364	ltpFR2	23	4	BISCUIT	130	n/a	n/a	0	0	0
916.31494140625	n/a	WORD	1876613	wordpools/wasnorm_wordpool_576.txt	LTP364	ltpFR2	23	4	DESSERT	453	n/a	n/a	0	0	0
918.87939453125	n/a	WORD	1881865	wordpools/wasnorm_wordpool_576.txt	LTP364	ltpFR2	23	4	DRAWER	493	n/a	n/a	0	0	0
921.66259765625	n/a	WORD	1887565	wordpools/wasnorm_wordpool_576.txt	LTP364	ltpFR2	23	4	CIGAR	308	n/a	n/a	0	0	0
924.1103515625	n/a	WORD	1892578	wordpools/wasnorm_wordpool_576.txt	LTP364	ltpFR2	23	4	SUITE	1404	n/a	n/a	0	0	0
926.609375	n/a	WORD	1897696	wordpools/wasnorm_wordpool_576.txt	LTP364	ltpFR2	23	4	PARTY	1018	n/a	n/a	0	0	0
929.408203125	n/a	WORD	1903428	wordpools/wasnorm_wordpool_576.txt	LTP364	ltpFR2	23	4	BLANKET	135	n/a	n/a	0	0	0
931.0244140625	n/a	START	1906738	n/a	LTP364	ltpFR2	23	n/a	n/a	n/a	6	n/a	n/a	n/a	n/a
931.96142578125	n/a	DISTRACTOR	1908657	n/a	LTP364	ltpFR2	23	4	n/a	n/a	n/a	n/a	0	0	0
931.97412109375	n/a	PROB	1908683	n/a	LTP364	ltpFR2	23	n/a	n/a	n/a	6	15	6	8	1
934.7900390625	n/a	PROB	1914450	n/a	LTP364	ltpFR2	23	n/a	n/a	n/a	6	19	8	9	2
937.9208984375	n/a	PROB	1920862	n/a	LTP364	ltpFR2	23	n/a	n/a	n/a	6	9	5	3	1
939.7197265625	n/a	PROB	1924546	n/a	LTP364	ltpFR2	23	n/a	n/a	n/a	6	16	7	8	1
942.21875	n/a	PROB	1929664	n/a	LTP364	ltpFR2	23	n/a	n/a	n/a	6	15	3	6	6
955.0234375	n/a	STOP	1955888	n/a	LTP364	ltpFR2	23	n/a	n/a	n/a	6	n/a	n/a	n/a	n/a
956.84619140625	n/a	REC_START	1959621	n/a	LTP364	ltpFR2	23	4	n/a	n/a	n/a	n/a	0	0	0
959.22021484375	n/a	REC_WORD	1964483	wordpools/wasnorm_wordpool_576.txt	LTP364	ltpFR2	23	4	BLUEJAY	141	n/a	n/a	0	0	0
960.2861328125	n/a	REC_WORD	1966666	wordpools/wasnorm_wordpool_576.txt	LTP364	ltpFR2	23	4	HANGER	687	n/a	n/a	0	0	0
962.0751953125	n/a	REC_WORD	1970330	wordpools/wasnorm_wordpool_576.txt	LTP364	ltpFR2	23	4	BOYFRIEND	162	n/a	n/a	0	0	0
1047.28466796875	n/a	WORD	2144839	wordpools/wasnorm_wordpool_576.txt	LTP364	ltpFR2	23	5	STRANGER	1389	n/a	n/a	0	0	0
1049.8173828125	n/a	WORD	2150026	wordpools/wasnorm_wordpool_576.txt	LTP364	ltpFR2	23	5	SALESMAN	1225	n/a	n/a	0	0	0
1052.59814453125	n/a	WORD	2155721	wordpools/wasnorm_wordpool_576.txt	LTP364	ltpFR2	23	5	CABLE	213	n/a	n/a	0	0	0
1055.26416015625	n/a	WORD	2161181	wordpools/wasnorm_wordpool_576.txt	LTP364	ltpFR2	23	5	MAJOR	859	n/a	n/a	0	0	0
1058.01318359375	n/a	WORD	2166811	wordpools/wasnorm_wordpool_576.txt	LTP364	ltpFR2	23	5	SAUSAGE	1238	n/a	n/a	0	0	0
1060.72900390625	n/a	WORD	2172373	wordpools/wasnorm_wordpool_576.txt	LTP364	ltpFR2	23	5	TRUMPET	1513	n/a	n/a	0	0	0
1063.1767578125	n/a	WORD	2177386	wordpools/wasnorm_wordpool_576.txt	LTP364	ltpFR2	23	5	JELLO	754	n/a	n/a	0	0	0
1065.8759765625	n/a	WORD	2182914	wordpools/wasnorm_wordpool_576.txt	LTP364	ltpFR2	23	5	LAUNDRY	803	n/a	n/a	0	0	0
1068.52490234375	n/a	WORD	2188339	wordpools/wasnorm_wordpool_576.txt	LTP364	ltpFR2	23	5	LODGE	839	n/a	n/a	0	0	0
1071.32275390625	n/a	WORD	2194069	wordpools/wasnorm_wordpool_576.txt	LTP364	ltpFR2	23	5	TAXI	1438	n/a	n/a	0	0	0
1074.0546875	n/a	WORD	2199664	wordpools/wasnorm_wordpool_576.txt	LTP364	ltpFR2	23	5	PERMIT	1051	n/a	n/a	0	0	0
1076.5703125	n/a	WORD	2204816	wordpools/wasnorm_wordpool_576.txt	LTP364	ltpFR2	23	5	TURTLE	1522	n/a	n/a	0	0	0
1079.3193359375	n/a	WORD	2210446	wordpools/wasnorm_wordpool_576.txt	LTP364	ltpFR2	23	5	UNCLE	1536	n/a	n/a	0	0	0
1082.1171875	n/a	WORD	2216176	wordpools/wasnorm_wordpool_576.txt	LTP364	ltpFR2	23	5	COUSIN	392	n/a	n/a	0	0	0
1084.6162109375	n/a	WORD	2221294	wordpools/wasnorm_wordpool_576.txt	LTP364	ltpFR2	23	5	VICTIM	1562	n/a	n/a	0	0	0
1087.31494140625	n/a	WORD	2226821	wordpools/wasnorm_wordpool_576.txt	LTP364	ltpFR2	23	5	CONVICT	371	n/a	n/a	0	0	0
1089.93017578125	n/a	WORD	2232177	wordpools/wasnorm_wordpool_576.txt	LTP364	ltpFR2	23	5	TORTOISE	1486	n/a	n/a	0	0	0
1092.462890625	n/a	WORD	2237364	wordpools/wasnorm_wordpool_576.txt	LTP364	ltpFR2	23	5	BOULDER	155	n/a	n/a	0	0	0
1095.0947265625	n/a	WORD	2242754	wordpools/wasnorm_wordpool_576.txt	LTP364	ltpFR2	23	5	CABIN	211	n/a	n/a	0	0	0
1097.5439453125	n/a	WORD	2247770	wordpools/wasnorm_wordpool_576.txt	LTP364	ltpFR2	23	5	BOTTLE	153	n/a	n/a	0	0	0
1100.07568359375	n/a	WORD	2252955	wordpools/wasnorm_wordpool_576.txt	LTP364	ltpFR2	23	5	CATTLE	261	n/a	n/a	0	0	0
1102.65771484375	n/a	WORD	2258243	wordpools/wasnorm_wordpool_576.txt	LTP364	ltpFR2	23	5	PEACH	1031	n/a	n/a	0	0	0
1105.3896484375	n/a	WORD	2263838	wordpools/wasnorm_wordpool_576.txt	LTP364	ltpFR2	23	5	FIDDLE	561	n/a	n/a	0	0	0
1107.92138671875	n/a	WORD	2269023	wordpools/wasnorm_wordpool_576.txt	LTP364	ltpFR2	23	5	WHISTLE	1606	n/a	n/a	0	0	0
1109.53857421875	n/a	START	2272335	n/a	LTP364	ltpFR2	23	n/a	n/a	n/a	7	n/a	n/a	n/a	n/a
1110.5703125	n/a	DISTRACTOR	2274448	n/a	LTP364	ltpFR2	23	5	n/a	n/a	n/a	n/a	0	0	0
1110.58740234375	n/a	PROB	2274483	n/a	LTP364	ltpFR2	23	n/a	n/a	n/a	7	12	7	3	2
1112.4033203125	n/a	PROB	2278202	n/a	LTP364	ltpFR2	23	n/a	n/a	n/a	7	13	6	4	3
1118.150390625	n/a	PROB	2289972	n/a	LTP364	ltpFR2	23	n/a	n/a	n/a	7	19	8	7	4
1120.14892578125	n/a	PROB	2294065	n/a	LTP364	ltpFR2	23	n/a	n/a	n/a	7	20	4	7	9
1124.130859375	n/a	PROB	2302220	n/a	LTP364	ltpFR2	23	n/a	n/a	n/a	7	18	2	9	7
1128.39501953125	n/a	PROB	2310953	n/a	LTP364	ltpFR2	23	n/a	n/a	n/a	7	15	8	4	3
1130.177734375	n/a	PROB	2314604	n/a	LTP364	ltpFR2	23	n/a	n/a	n/a	7	7	2	4	1
1132.7236328125	n/a	STOP	2319818	n/a	LTP364	ltpFR2	23	n/a	n/a	n/a	7	n/a	n/a	n/a	n/a
1135.40869140625	n/a	REC_START	2325317	n/a	LTP364	ltpFR2	23	5	n/a	n/a	n/a	n/a	0	0	0
1136.27880859375	n/a	REC_WORD	2327099	wordpools/wasnorm_wordpool_576.txt	LTP364	ltpFR2	23	5	TURTLE	1522	n/a	n/a	0	0	0
1137.3125	n/a	REC_WORD	2329216	wordpools/wasnorm_wordpool_576.txt	LTP364	ltpFR2	23	5	HUSBAND	728	n/a	n/a	0	0	0
1142.58056640625	n/a	REC_WORD	2340005	wordpools/wasnorm_wordpool_576.txt	LTP364	ltpFR2	23	5	OX	994	n/a	n/a	0	0	0
1143.197265625	n/a	REC_WORD	2341268	wordpools/wasnorm_wordpool_576.txt	LTP364	ltpFR2	23	5	RANCH	1166	n/a	n/a	0	0	0
1225.83154296875	n/a	DISTRACTOR	2510503	n/a	LTP364	ltpFR2	23	6	n/a	n/a	n/a	n/a	0	0	0
1225.83154296875	n/a	START	2510503	n/a	LTP364	ltpFR2	23	n/a	n/a	n/a	8	n/a	n/a	n/a	n/a
1249.830078125	n/a	STOP	2559652	n/a	LTP364	ltpFR2	23	n/a	n/a	n/a	8	n/a	n/a	n/a	n/a
1250.93603515625	n/a	WORD	2561917	wordpools/wasnorm_wordpool_576.txt	LTP364	ltpFR2	23	6	RAZOR	1171	n/a	n/a	0	0	0
1253.6845703125	n/a	WORD	2567546	wordpools/wasnorm_wordpool_576.txt	LTP364	ltpFR2	23	6	INMATE	738	n/a	n/a	0	0	0
1256.23388671875	n/a	WORD	2572767	wordpools/wasnorm_wordpool_576.txt	LTP364	ltpFR2	23	6	OUTLAW	989	n/a	n/a	0	0	0
1258.91552734375	n/a	WORD	2578259	wordpools/wasnorm_wordpool_576.txt	LTP364	ltpFR2	23	6	SEASHORE	1263	n/a	n/a	0	0	0
1261.48046875	n/a	WORD	2583512	wordpools/wasnorm_wordpool_576.txt	LTP364	ltpFR2	23	6	BANQUET	86	n/a	n/a	0	0	0
1264.04638671875	n/a	WORD	2588767	wordpools/wasnorm_wordpool_576.txt	LTP364	ltpFR2	23	6	BARLEY	88	n/a	n/a	0	0	0
1266.478515625	n/a	WORD	2593748	wordpools/wasnorm_wordpool_576.txt	LTP364	ltpFR2	23	6	TAVERN	1437	n/a	n/a	0	0	0
1269.1943359375	n/a	WORD	2599310	wordpools/wasnorm_wordpool_576.txt	LTP364	ltpFR2	23	6	GLOBE	641	n/a	n/a	0	0	0
1271.67626953125	n/a	WORD	2604393	wordpools/wasnorm_wordpool_576.txt	LTP364	ltpFR2	23	6	WAITRESS	1581	n/a	n/a	0	0	0
1274.22509765625	n/a	WORD	2609613	wordpools/wasnorm_wordpool_576.txt	LTP364	ltpFR2	23	6	HOSTESS	723	n/a	n/a	0	0	0
1277.0400390625	n/a	WORD	2615378	wordpools/wasnorm_wordpool_576.txt	LTP364	ltpFR2	23	6	WITNESS	1618	n/a	n/a	0	0	0
1279.6220703125	n/a	WORD	2620666	wordpools/wasnorm_wordpool_576.txt	LTP364	ltpFR2	23	6	FLASHLIGHT	575	n/a	n/a	0	0	0
1282.43798828125	n/a	WORD	2626433	wordpools/wasnorm_wordpool_576.txt	LTP364	ltpFR2	23	6	PISTON	1076	n/a	n/a	0	0	0
1285.06982421875	n/a	WORD	2631823	wordpools/wasnorm_wordpool_576.txt	LTP364	ltpFR2	23	6	CREVICE	405	n/a	n/a	0	0	0
1287.81884765625	n/a	WORD	2637453	wordpools/wasnorm_wordpool_576.txt	LTP364	ltpFR2	23	6	BLOSSOM	138	n/a	n/a	0	0	0
1290.6005859375	n/a	WORD	2643150	wordpools/wasnorm_wordpool_576.txt	LTP364	ltpFR2	23	6	JEANS	752	n/a	n/a	0	0	0
1293.03271484375	n/a	WORD	2648131	wordpools/wasnorm_wordpool_576.txt	LTP364	ltpFR2	23	6	ATLAS	53	n/a	n/a	0	0	0
1295.697265625	n/a	WORD	2653588	wordpools/wasnorm_wordpool_576.txt	LTP364	ltpFR2	23	6	SUGAR	1401	n/a	n/a	0	0	0
1298.3291015625	n/a	WORD	2658978	wordpools/wasnorm_wordpool_576.txt	LTP364	ltpFR2	23	6	GLASS	639	n/a	n/a	0	0	0
1301.0283203125	n/a	WORD	2664506	wordpools/wasnorm_wordpool_576.txt	LTP364	ltpFR2	23	6	SCALPEL	1243	n/a	n/a	0	0	0
1303.8271484375	n/a	WORD	2670238	wordpools/wasnorm_wordpool_576.txt	LTP364	ltpFR2	23	6	REPTILE	1185	n/a	n/a	0	0	0
1306.576171875	n/a	WORD	2675868	wordpools/wasnorm_wordpool_576.txt	LTP364	ltpFR2	23	6	BUTLER	204	n/a	n/a	0	0	0
1309.291015625	n/a	WORD	2681428	wordpools/wasnorm_wordpool_576.txt	LTP364	ltpFR2	23	6	SOFA	1342	n/a	n/a	0	0	0
1311.9228515625	n/a	WORD	2686818	wordpools/wasnorm_wordpool_576.txt	LTP364	ltpFR2	23	6	SWEATER	1419	n/a	n/a	0	0	0
1313.5390625	n/a	START	2690128	n/a	LTP364	ltpFR2	23	n/a	n/a	n/a	9	n/a	n/a	n/a	n/a
1314.3837890625	n/a	DISTRACTOR	2691858	n/a	LTP364	ltpFR2	23	6	n/a	n/a	n/a	n/a	0	0	0
1314.388671875	n/a	PROB	2691868	n/a	LTP364	ltpFR2	23	n/a	n/a	n/a	9	14	4	8	4
1317.32080078125	n/a	PROB	2697873	n/a	LTP364	ltpFR2	23	n/a	n/a	n/a	9	15	6	1	8
1320.58544921875	n/a	PROB	2704559	n/a	LTP364	ltpFR2	23	n/a	n/a	n/a	9	17	4	7	6
1323.2177734375	n/a	PROB	2709950	n/a	LTP364	ltpFR2	23	n/a	n/a	n/a	9	15	9	1	5
1324.4833984375	n/a	PROB	2712542	n/a	LTP364	ltpFR2	23	n/a	n/a	n/a	9	10	3	1	6
1326.41650390625	n/a	PROB	2716501	n/a	LTP364	ltpFR2	23	n/a	n/a	n/a	9	17	4	5	8
1328.41552734375	n/a	PROB	2720595	n/a	LTP364	ltpFR2	23	n/a	n/a	n/a	9	13	9	1	3
1329.9970703125	n/a	PROB	2723834	n/a	LTP364	ltpFR2	23	n/a	n/a	n/a	9	23	8	8	7
1335.544921875	n/a	PROB	2735196	n/a	LTP364	ltpFR2	23	n/a	n/a	n/a	9	11	5	5	1
1337.18017578125	n/a	STOP	2738545	n/a	LTP364	ltpFR2	23	n/a	n/a	n/a	9	n/a	n/a	n/a	n/a
1339.376953125	n/a	REC_START	2743044	n/a	LTP364	ltpFR2	23	6	n/a	n/a	n/a	n/a	0	0	0
1340.8798828125	n/a	REC_WORD	2746122	wordpools/wasnorm_wordpool_576.txt	LTP364	ltpFR2	23	6	SUGAR	1401	n/a	n/a	0	0	0
1343.11767578125	n/a	REC_WORD	2750705	wordpools/wasnorm_wordpool_576.txt	LTP364	ltpFR2	23	6	ATLAS	53	n/a	n/a	0	0	0
1349.82763671875	n/a	REC_WORD	2764447	wordpools/wasnorm_wordpool_576.txt	LTP364	ltpFR2	23	6	GARDEN	623	n/a	n/a	0	0	0
1429.80029296875	n/a	DISTRACTOR	2928231	n/a	LTP364	ltpFR2	23	7	n/a	n/a	n/a	n/a	0	0	0
1429.80126953125	n/a	START	2928233	n/a	LTP364	ltpFR2	23	n/a	n/a	n/a	10	n/a	n/a	n/a	n/a
1429.81689453125	n/a	PROB	2928265	n/a	LTP364	ltpFR2	23	n/a	n/a	n/a	10	9	4	2	3
1432.8310546875	n/a	PROB	2934438	n/a	LTP364	ltpFR2	23	n/a	n/a	n/a	10	21	6	9	6
1439.02880859375	n/a	PROB	2947131	n/a	LTP364	ltpFR2	23	n/a	n/a	n/a	10	15	9	1	5
1440.41064453125	n/a	PROB	2949961	n/a	LTP364	ltpFR2	23	n/a	n/a	n/a	10	19	2	9	8
1442.60986328125	n/a	PROB	2954465	n/a	LTP364	ltpFR2	23	n/a	n/a	n/a	10	18	3	7	8
1443.95947265625	n/a	PROB	2957229	n/a	LTP364	ltpFR2	23	n/a	n/a	n/a	10	12	4	5	3
1447.49072265625	n/a	PROB	2964461	n/a	LTP364	ltpFR2	23	n/a	n/a	n/a	10	15	4	5	6
1449.1064453125	n/a	PROB	2967770	n/a	LTP364	ltpFR2	23	n/a	n/a	n/a	10	14	8	2	4
1450.689453125	n/a	PROB	2971012	n/a	LTP364	ltpFR2	23	n/a	n/a	n/a	10	19	5	9	5
1452.03857421875	n/a	PROB	2973775	n/a	LTP364	ltpFR2	23	n/a	n/a	n/a	10	13	3	5	5
1453.30712890625	n/a	STOP	2976373	n/a	LTP364	ltpFR2	23	n/a	n/a	n/a	10	n/a	n/a	n/a	n/a
1454.9375	n/a	WORD	2979712	wordpools/wasnorm_wordpool_576.txt	LTP364	ltpFR2	23	7	FILM	565	n/a	n/a	0	0	0
1457.63623046875	n/a	WORD	2985239	wordpools/wasnorm_wordpool_576.txt	LTP364	ltpFR2	23	7	SUNRISE	1407	n/a	n/a	0	0	0
1460.35107421875	n/a	WORD	2990799	wordpools/wasnorm_wordpool_576.txt	LTP364	ltpFR2	23	7	OUTFIT	988	n/a	n/a	0	0	0
1463.0498046875	n/a	WORD	2996326	wordpools/wasnorm_wordpool_576.txt	LTP364	ltpFR2	23	7	LABEL	790	n/a	n/a	0	0	0
1465.48193359375	n/a	WORD	3001307	wordpools/wasnorm_wordpool_576.txt	LTP364	ltpFR2	23	7	HIKER	708	n/a	n/a	0	0	0
1468.09765625	n/a	WORD	3006664	wordpools/wasnorm_wordpool_576.txt	LTP364	ltpFR2	23	7	POSSUM	1112	n/a	n/a	0	0	0
1470.86279296875	n/a	WORD	3012327	wordpools/wasnorm_wordpool_576.txt	LTP364	ltpFR2	23	7	SCHOOL	1248	n/a	n/a	0	0	0
1473.6787109375	n/a	WORD	3018094	wordpools/wasnorm_wordpool_576.txt	LTP364	ltpFR2	23	7	ARMY	39	n/a	n/a	0	0	0
1476.1435546875	n/a	WORD	3023142	wordpools/wasnorm_wordpool_576.txt	LTP364	ltpFR2	23	7	FLEET	578	n/a	n/a	0	0	0
1478.70947265625	n/a	WORD	3028397	wordpools/wasnorm_wordpool_576.txt	LTP364	ltpFR2	23	7	LIZARD	834	n/a	n/a	0	0	0
1481.1416015625	n/a	WORD	3033378	wordpools/wasnorm_wordpool_576.txt	LTP364	ltpFR2	23	7	MOUNTAIN	924	n/a	n/a	0	0	0
1483.89013671875	n/a	WORD	3039007	wordpools/wasnorm_wordpool_576.txt	LTP364	ltpFR2	23	7	PICKLE	1059	n/a	n/a	0	0	0
1486.50537109375	n/a	WORD	3044363	wordpools/wasnorm_wordpool_576.txt	LTP364	ltpFR2	23	7	PREACHER	1119	n/a	n/a	0	0	0
1489.037109375	n/a	WORD	3049548	wordpools/wasnorm_wordpool_576.txt	LTP364	ltpFR2	23	7	OINTMENT	974	n/a	n/a	0	0	0
1491.619140625	n/a	WORD	3054836	wordpools/wasnorm_wordpool_576.txt	LTP364	ltpFR2	23	7	DRUG	501	n/a	n/a	0	0	0
1494.2021484375	n/a	WORD	3060126	wordpools/wasnorm_wordpool_576.txt	LTP364	ltpFR2	23	7	ONION	977	n/a	n/a	0	0	0
1496.751953125	n/a	WORD	3065348	wordpools/wasnorm_wordpool_576.txt	LTP364	ltpFR2	23	7	EARRING	514	n/a	n/a	0	0	0
1499.2490234375	n/a	WORD	3070462	wordpools/wasnorm_wordpool_576.txt	LTP364	ltpFR2	23	7	SPINACH	1352	n/a	n/a	0	0	0
1501.7158203125	n/a	WORD	3075514	wordpools/wasnorm_wordpool_576.txt	LTP364	ltpFR2	23	7	POISON	1096	n/a	n/a	0	0	0
1504.4296875	n/a	WORD	3081072	wordpools/wasnorm_wordpool_576.txt	LTP364	ltpFR2	23	7	STUMP	1396	n/a	n/a	0	0	0
1507.07861328125	n/a	WORD	3086497	wordpools/wasnorm_wordpool_576.txt	LTP364	ltpFR2	23	7	SALT	1229	n/a	n/a	0	0	0
1509.7783203125	n/a	WORD	3092026	wordpools/wasnorm_wordpool_576.txt	LTP364	ltpFR2	23	7	FIELD	562	n/a	n/a	0	0	0
1512.5263671875	n/a	WORD	3097654	wordpools/wasnorm_wordpool_576.txt	LTP364	ltpFR2	23	7	NEPTUNE	943	n/a	n/a	0	0	0
1515.14111328125	n/a	WORD	3103009	wordpools/wasnorm_wordpool_576.txt	LTP364	ltpFR2	23	7	POPCORN	1104	n/a	n/a	0	0	0
1516.75830078125	n/a	START	3106321	n/a	LTP364	ltpFR2	23	n/a	n/a	n/a	11	n/a	n/a	n/a	n/a
1517.6630859375	n/a	DISTRACTOR	3108174	n/a	LTP364	ltpFR2	23	7	n/a	n/a	n/a	n/a	0	0	0
1517.67333984375	n/a	PROB	3108195	n/a	LTP364	ltpFR2	23	n/a	n/a	n/a	11	17	3	6	8
1520.33935546875	n/a	PROB	3113655	n/a	LTP364	ltpFR2	23	n/a	n/a	n/a	11	27	9	9	9
1522.38818359375	n/a	PROB	3117851	n/a	LTP364	ltpFR2	23	n/a	n/a	n/a	11	16	4	6	6
1524.15380859375	n/a	PROB	3121467	n/a	LTP364	ltpFR2	23	n/a	n/a	n/a	11	16	3	8	5
1526.2197265625	n/a	PROB	3125698	n/a	LTP364	ltpFR2	23	n/a	n/a	n/a	11	19	9	9	1
1527.5517578125	n/a	PROB	3128426	n/a	LTP364	ltpFR2	23	n/a	n/a	n/a	11	14	8	4	2
1530.4677734375	n/a	PROB	3134398	n/a	LTP364	ltpFR2	23	n/a	n/a	n/a	11	16	2	5	9
1535.08154296875	n/a	PROB	3143847	n/a	LTP364	ltpFR2	23	n/a	n/a	n/a	11	17	5	3	9
1539.2294921875	n/a	PROB	3152342	n/a	LTP364	ltpFR2	23	n/a	n/a	n/a	11	16	1	9	6
1540.41943359375	n/a	STOP	3154779	n/a	LTP364	ltpFR2	23	n/a	n/a	n/a	11	n/a	n/a	n/a	n/a
1542.66259765625	n/a	REC_START	3159373	n/a	LTP364	ltpFR2	23	7	n/a	n/a	n/a	n/a	0	0	0
1544.453125	n/a	REC_WORD	3163040	wordpools/wasnorm_wordpool_576.txt	LTP364	ltpFR2	23	7	NEPTUNE	943	n/a	n/a	0	0	0
1633.08447265625	n/a	DISTRACTOR	3344557	n/a	LTP364	ltpFR2	23	8	n/a	n/a	n/a	n/a	0	0	0
1633.08447265625	n/a	START	3344557	n/a	LTP364	ltpFR2	23	n/a	n/a	n/a	12	n/a	n/a	n/a	n/a
1633.1015625	n/a	PROB	3344592	n/a	LTP364	ltpFR2	23	n/a	n/a	n/a	12	18	1	8	9
1657.08349609375	n/a	STOP	3393707	n/a	LTP364	ltpFR2	23	n/a	n/a	n/a	12	n/a	n/a	n/a	n/a
1657.97265625	n/a	WORD	3395528	wordpools/wasnorm_wordpool_576.txt	LTP364	ltpFR2	23	8	MASK	876	n/a	n/a	0	0	0
1660.62060546875	n/a	WORD	3400951	wordpools/wasnorm_wordpool_576.txt	LTP364	ltpFR2	23	8	THRONE	1461	n/a	n/a	0	0	0
1663.103515625	n/a	WORD	3406036	wordpools/wasnorm_wordpool_576.txt	LTP364	ltpFR2	23	8	HEART	697	n/a	n/a	0	0	0
1665.86865234375	n/a	WORD	3411699	wordpools/wasnorm_wordpool_576.txt	LTP364	ltpFR2	23	8	MARS	873	n/a	n/a	0	0	0
1668.63427734375	n/a	WORD	3417363	wordpools/wasnorm_wordpool_576.txt	LTP364	ltpFR2	23	8	COFFEE	341	n/a	n/a	0	0	0
1671.09912109375	n/a	WORD	3422411	wordpools/wasnorm_wordpool_576.txt	LTP364	ltpFR2	23	8	VESSEL	1558	n/a	n/a	0	0	0
1673.71630859375	n/a	WORD	3427771	wordpools/wasnorm_wordpool_576.txt	LTP364	ltpFR2	23	8	SAILOR	1223	n/a	n/a	0	0	0
1676.18017578125	n/a	WORD	3432817	wordpools/wasnorm_wordpool_576.txt	LTP364	ltpFR2	23	8	PARENT	1013	n/a	n/a	0	0	0
1678.86181640625	n/a	WORD	3438309	wordpools/wasnorm_wordpool_576.txt	LTP364	ltpFR2	23	8	LAGOON	795	n/a	n/a	0	0	0
1681.47802734375	n/a	WORD	3443667	wordpools/wasnorm_wordpool_576.txt	LTP364	ltpFR2	23	8	CUPBOARD	425	n/a	n/a	0	0	0
1684.07666015625	n/a	WORD	3448989	wordpools/wasnorm_wordpool_576.txt	LTP364	ltpFR2	23	8	WINDSHIELD	1612	n/a	n/a	0	0	0
1686.5087890625	n/a	WORD	3453970	wordpools/wasnorm_wordpool_576.txt	LTP364	ltpFR2	23	8	SKILLET	1317	n/a	n/a	0	0	0
1689.10791015625	n/a	WORD	3459293	wordpools/wasnorm_wordpool_576.txt	LTP364	ltpFR2	23	8	NOVEL	960	n/a	n/a	0	0	0
1691.60546875	n/a	WORD	3464408	wordpools/wasnorm_wordpool_576.txt	LTP364	ltpFR2	23	8	BANDAGE	79	n/a	n/a	0	0	0
1694.42138671875	n/a	WORD	3470175	wordpools/wasnorm_wordpool_576.txt	LTP364	ltpFR2	23	8	CLIPPERS	324	n/a	n/a	0	0	0
1697.08642578125	n/a	WORD	3475633	wordpools/wasnorm_wordpool_576.txt	LTP364	ltpFR2	23	8	SAND	1230	n/a	n/a	0	0	0
1699.51953125	n/a	WORD	3480616	wordpools/wasnorm_wordpool_576.txt	LTP364	ltpFR2	23	8	SERPENT	1270	n/a	n/a	0	0	0
1702.08447265625	n/a	WORD	3485869	wordpools/wasnorm_wordpool_576.txt	LTP364	ltpFR2	23	8	MUMMY	932	n/a	n/a	0	0	0
1704.734375	n/a	WORD	3491296	wordpools/wasnorm_wordpool_576.txt	LTP364	ltpFR2	23	8	PERSON	1052	n/a	n/a	0	0	0
1707.365234375	n/a	WORD	3496684	wordpools/wasnorm_wordpool_576.txt	LTP364	ltpFR2	23	8	RACCOON	1153	n/a	n/a	0	0	0
1709.98095703125	n/a	WORD	3502041	wordpools/wasnorm_wordpool_576.txt	LTP364	ltpFR2	23	8	BAKER	71	n/a	n/a	0	0	0
1712.56298828125	n/a	WORD	3507329	wordpools/wasnorm_wordpool_576.txt	LTP364	ltpFR2	23	8	STREAM	1392	n/a	n/a	0	0	0
1715.01171875	n/a	WORD	3512344	wordpools/wasnorm_wordpool_576.txt	LTP364	ltpFR2	23	8	GIRAFFE	636	n/a	n/a	0	0	0
1717.52685546875	n/a	WORD	3517495	wordpools/wasnorm_wordpool_576.txt	LTP364	ltpFR2	23	8	FARM	552	n/a	n/a	0	0	0
1719.142578125	n/a	START	3520804	n/a	LTP364	ltpFR2	23	n/a	n/a	n/a	13	n/a	n/a	n/a	n/a
1720.23291015625	n/a	DISTRACTOR	3523037	n/a	LTP364	ltpFR2	23	8	n/a	n/a	n/a	n/a	0	0	0
1720.24267578125	n/a	PROB	3523057	n/a	LTP364	ltpFR2	23	n/a	n/a	n/a	13	19	7	8	4
1726.22265625	n/a	PROB	3535304	n/a	LTP364	ltpFR2	23	n/a	n/a	n/a	13	17	6	5	6
1728.28857421875	n/a	PROB	3539535	n/a	LTP364	ltpFR2	23	n/a	n/a	n/a	13	16	6	8	2
1729.8544921875	n/a	PROB	3542742	n/a	LTP364	ltpFR2	23	n/a	n/a	n/a	13	18	4	8	6
1731.853515625	n/a	PROB	3546836	n/a	LTP364	ltpFR2	23	n/a	n/a	n/a	13	16	4	9	3
1743.14208984375	n/a	STOP	3569955	n/a	LTP364	ltpFR2	23	n/a	n/a	n/a	13	n/a	n/a	n/a	n/a
1744.98095703125	n/a	REC_START	3573721	n/a	LTP364	ltpFR2	23	8	n/a	n/a	n/a	n/a	0	0	0
1746.93359375	n/a	REC_WORD	3577720	wordpools/wasnorm_wordpool_576.txt	LTP364	ltpFR2	23	8	PARENT	1013	n/a	n/a	0	0	0
1747.60986328125	n/a	REC_WORD	3579105	wordpools/wasnorm_wordpool_576.txt	LTP364	ltpFR2	23	8	COFFEE	341	n/a	n/a	0	0	0
1749.18359375	n/a	REC_WORD	3582328	wordpools/wasnorm_wordpool_576.txt	LTP364	ltpFR2	23	8	LAGOON	795	n/a	n/a	0	0	0
1821.50927734375	n/a	REST_REWET	3730451	n/a	LTP364	ltpFR2	23	8	n/a	n/a	n/a	n/a	0	0	0
1965.306640625	n/a	DISTRACTOR	4024948	n/a	LTP364	ltpFR2	23	9	n/a	n/a	n/a	n/a	0	0	0
1965.306640625	n/a	START	4024948	n/a	LTP364	ltpFR2	23	n/a	n/a	n/a	14	n/a	n/a	n/a	n/a
1965.32373046875	n/a	PROB	4024983	n/a	LTP364	ltpFR2	23	n/a	n/a	n/a	14	17	8	7	2
1967.33984375	n/a	PROB	4029112	n/a	LTP364	ltpFR2	23	n/a	n/a	n/a	14	18	9	6	3
1969.53857421875	n/a	PROB	4033615	n/a	LTP364	ltpFR2	23	n/a	n/a	n/a	14	10	1	4	5
1970.87060546875	n/a	PROB	4036343	n/a	LTP364	ltpFR2	23	n/a	n/a	n/a	14	16	5	8	3
1973.28662109375	n/a	PROB	4041291	n/a	LTP364	ltpFR2	23	n/a	n/a	n/a	14	17	6	8	3
1975.568359375	n/a	PROB	4045964	n/a	LTP364	ltpFR2	23	n/a	n/a	n/a	14	15	3	4	8
1978.41748046875	n/a	PROB	4051799	n/a	LTP364	ltpFR2	23	n/a	n/a	n/a	14	7	3	2	2
1979.83349609375	n/a	PROB	4054699	n/a	LTP364	ltpFR2	23	n/a	n/a	n/a	14	14	8	2	4
1981.2490234375	n/a	PROB	4057598	n/a	LTP364	ltpFR2	23	n/a	n/a	n/a	14	11	2	6	3
1983.4482421875	n/a	PROB	4062102	n/a	LTP364	ltpFR2	23	n/a	n/a	n/a	14	11	4	6	1
1985.2470703125	n/a	PROB	4065786	n/a	LTP364	ltpFR2	23	n/a	n/a	n/a	14	15	3	6	6
1987.77197265625	n/a	STOP	4070957	n/a	LTP364	ltpFR2	23	n/a	n/a	n/a	14	n/a	n/a	n/a	n/a
1990.427734375	n/a	WORD	4076396	wordpools/wasnorm_wordpool_576.txt	LTP364	ltpFR2	23	9	PORT	1110	n/a	n/a	0	0	0
1992.9267578125	n/a	WORD	4081514	wordpools/wasnorm_wordpool_576.txt	LTP364	ltpFR2	23	9	LIST	830	n/a	n/a	0	0	0
1995.7265625	n/a	WORD	4087248	wordpools/wasnorm_wordpool_576.txt	LTP364	ltpFR2	23	9	KNIFE	785	n/a	n/a	0	0	0
1998.4404296875	n/a	WORD	4092806	wordpools/wasnorm_wordpool_576.txt	LTP364	ltpFR2	23	9	COUGAR	387	n/a	n/a	0	0	0
2001.07275390625	n/a	WORD	4098197	wordpools/wasnorm_wordpool_576.txt	LTP364	ltpFR2	23	9	PEOPLE	1046	n/a	n/a	0	0	0
2003.6884765625	n/a	WORD	4103554	wordpools/wasnorm_wordpool_576.txt	LTP364	ltpFR2	23	9	PUDDLE	1140	n/a	n/a	0	0	0
2006.1875	n/a	WORD	4108672	wordpools/wasnorm_wordpool_576.txt	LTP364	ltpFR2	23	9	FAUCET	555	n/a	n/a	0	0	0
2008.72021484375	n/a	WORD	4113859	wordpools/wasnorm_wordpool_576.txt	LTP364	ltpFR2	23	9	OCEAN	970	n/a	n/a	0	0	0
2011.3681640625	n/a	WORD	4119282	wordpools/wasnorm_wordpool_576.txt	LTP364	ltpFR2	23	9	GHETTO	633	n/a	n/a	0	0	0
2014.0	n/a	WORD	4124672	wordpools/wasnorm_wordpool_576.txt	LTP364	ltpFR2	23	9	CHAUFFEUR	283	n/a	n/a	0	0	0
2016.7001953125	n/a	WORD	4130202	wordpools/wasnorm_wordpool_576.txt	LTP364	ltpFR2	23	9	SUBURB	1399	n/a	n/a	0	0	0
2019.51416015625	n/a	WORD	4135965	wordpools/wasnorm_wordpool_576.txt	LTP364	ltpFR2	23	9	VILLAGE	1566	n/a	n/a	0	0	0
2022.19580078125	n/a	WORD	4141457	wordpools/wasnorm_wordpool_576.txt	LTP364	ltpFR2	23	9	NEWSSTAND	949	n/a	n/a	0	0	0
2024.77880859375	n/a	WORD	4146747	wordpools/wasnorm_wordpool_576.txt	LTP364	ltpFR2	23	9	BRIDGE	174	n/a	n/a	0	0	0
2027.49365234375	n/a	WORD	4152307	wordpools/wasnorm_wordpool_576.txt	LTP364	ltpFR2	23	9	COBWEB	337	n/a	n/a	0	0	0
2030.1416015625	n/a	WORD	4157730	wordpools/wasnorm_wordpool_576.txt	LTP364	ltpFR2	23	9	TREASURE	1500	n/a	n/a	0	0	0
2032.79150390625	n/a	WORD	4163157	wordpools/wasnorm_wordpool_576.txt	LTP364	ltpFR2	23	9	ROBBER	1197	n/a	n/a	0	0	0
2035.45654296875	n/a	WORD	4168615	wordpools/wasnorm_wordpool_576.txt	LTP364	ltpFR2	23	9	LEG	809	n/a	n/a	0	0	0
2037.88818359375	n/a	WORD	4173595	wordpools/wasnorm_wordpool_576.txt	LTP364	ltpFR2	23	9	PLAQUE	1084	n/a	n/a	0	0	0
2040.47021484375	n/a	WORD	4178883	wordpools/wasnorm_wordpool_576.txt	LTP364	ltpFR2	23	9	TROPHY	1509	n/a	n/a	0	0	0
2043.00244140625	n/a	WORD	4184069	wordpools/wasnorm_wordpool_576.txt	LTP364	ltpFR2	23	9	KITTEN	780	n/a	n/a	0	0	0
2045.6513671875	n/a	WORD	4189494	wordpools/wasnorm_wordpool_576.txt	LTP364	ltpFR2	23	9	SHELTER	1282	n/a	n/a	0	0	0
2048.3671875	n/a	WORD	4195056	wordpools/wasnorm_wordpool_576.txt	LTP364	ltpFR2	23	9	CLOSET	326	n/a	n/a	0	0	0
2050.8818359375	n/a	WORD	4200206	wordpools/wasnorm_wordpool_576.txt	LTP364	ltpFR2	23	9	FLESH	579	n/a	n/a	0	0	0
2052.498046875	n/a	START	4203516	n/a	LTP364	ltpFR2	23	n/a	n/a	n/a	15	n/a	n/a	n/a	n/a
2053.455078125	n/a	DISTRACTOR	4205476	n/a	LTP364	ltpFR2	23	9	n/a	n/a	n/a	n/a	0	0	0
2053.4638671875	n/a	PROB	4205494	n/a	LTP364	ltpFR2	23	n/a	n/a	n/a	15	11	1	5	5
2055.1796875	n/a	PROB	4209008	n/a	LTP364	ltpFR2	23	n/a	n/a	n/a	15	10	1	3	6
2056.82861328125	n/a	PROB	4212385	n/a	LTP364	ltpFR2	23	n/a	n/a	n/a	15	13	2	9	4
2060.52783203125	n/a	PROB	4219961	n/a	LTP364	ltpFR2	23	n/a	n/a	n/a	15	21	5	9	7
2063.32666015625	n/a	PROB	4225693	n/a	LTP364	ltpFR2	23	n/a	n/a	n/a	15	20	8	9	3
2069.05615234375	n/a	PROB	4237427	n/a	LTP364	ltpFR2	23	n/a	n/a	n/a	15	18	4	6	8
2070.42236328125	n/a	PROB	4240225	n/a	LTP364	ltpFR2	23	n/a	n/a	n/a	15	11	1	3	7
2076.4970703125	n/a	STOP	4252666	n/a	LTP364	ltpFR2	23	n/a	n/a	n/a	15	n/a	n/a	n/a	n/a
2078.35302734375	n/a	REC_START	4256467	n/a	LTP364	ltpFR2	23	9	n/a	n/a	n/a	n/a	0	0	0
2153.3505859375	n/a	REC_WORD_VV	4410062	wordpools/wasnorm_wordpool_576.txt	LTP364	ltpFR2	23	9	<>	-1	n/a	n/a	0	0	0
2168.79296875	n/a	WORD	4441688	wordpools/wasnorm_wordpool_576.txt	LTP364	ltpFR2	23	10	PIZZA	1079	n/a	n/a	0	0	0
2171.30712890625	n/a	WORD	4446837	wordpools/wasnorm_wordpool_576.txt	LTP364	ltpFR2	23	10	FACE	547	n/a	n/a	0	0	0
2173.9228515625	n/a	WORD	4452194	wordpools/wasnorm_wordpool_576.txt	LTP364	ltpFR2	23	10	LADY	794	n/a	n/a	0	0	0
2176.43798828125	n/a	WORD	4457345	wordpools/wasnorm_wordpool_576.txt	LTP364	ltpFR2	23	10	SCOUT	1252	n/a	n/a	0	0	0
2179.0869140625	n/a	WORD	4462770	wordpools/wasnorm_wordpool_576.txt	LTP364	ltpFR2	23	10	PITCHFORK	1078	n/a	n/a	0	0	0
2181.70263671875	n/a	WORD	4468127	wordpools/wasnorm_wordpool_576.txt	LTP364	ltpFR2	23	10	BUILDING	191	n/a	n/a	0	0	0
2184.31787109375	n/a	WORD	4473483	wordpools/wasnorm_wordpool_576.txt	LTP364	ltpFR2	23	10	FLAG	573	n/a	n/a	0	0	0
2186.94970703125	n/a	WORD	4478873	wordpools/wasnorm_wordpool_576.txt	LTP364	ltpFR2	23	10	MISTER	901	n/a	n/a	0	0	0
2189.732421875	n/a	WORD	4484572	wordpools/wasnorm_wordpool_576.txt	LTP364	ltpFR2	23	10	CAFE	216	n/a	n/a	0	0	0
2192.34716796875	n/a	WORD	4489927	wordpools/wasnorm_wordpool_576.txt	LTP364	ltpFR2	23	10	FARMER	553	n/a	n/a	0	0	0
2195.0791015625	n/a	WORD	4495522	wordpools/wasnorm_wordpool_576.txt	LTP364	ltpFR2	23	10	GAUZE	626	n/a	n/a	0	0	0
2197.54443359375	n/a	WORD	4500571	wordpools/wasnorm_wordpool_576.txt	LTP364	ltpFR2	23	10	WRENCH	1625	n/a	n/a	0	0	0
2200.193359375	n/a	WORD	4505996	wordpools/wasnorm_wordpool_576.txt	LTP364	ltpFR2	23	10	SHORTS	1293	n/a	n/a	0	0	0
2202.7431640625	n/a	WORD	4511218	wordpools/wasnorm_wordpool_576.txt	LTP364	ltpFR2	23	10	RAISIN	1163	n/a	n/a	0	0	0
2205.30712890625	n/a	WORD	4516469	wordpools/wasnorm_wordpool_576.txt	LTP364	ltpFR2	23	10	DRESSER	496	n/a	n/a	0	0	0
2208.0556640625	n/a	WORD	4522098	wordpools/wasnorm_wordpool_576.txt	LTP364	ltpFR2	23	10	HAMPER	682	n/a	n/a	0	0	0
2210.68798828125	n/a	WORD	4527489	wordpools/wasnorm_wordpool_576.txt	LTP364	ltpFR2	23	10	REBEL	1172	n/a	n/a	0	0	0
2213.1708984375	n/a	WORD	4532574	wordpools/wasnorm_wordpool_576.txt	LTP364	ltpFR2	23	10	SUMMIT	1405	n/a	n/a	0	0	0
2215.6357421875	n/a	WORD	4537622	wordpools/wasnorm_wordpool_576.txt	LTP364	ltpFR2	23	10	COLUMN	350	n/a	n/a	0	0	0
2218.11767578125	n/a	WORD	4542705	wordpools/wasnorm_wordpool_576.txt	LTP364	ltpFR2	23	10	TOMBSTONE	1478	n/a	n/a	0	0	0
2220.71728515625	n/a	WORD	4548029	wordpools/wasnorm_wordpool_576.txt	LTP364	ltpFR2	23	10	SHERIFF	1284	n/a	n/a	0	0	0
2223.4326171875	n/a	WORD	4553590	wordpools/wasnorm_wordpool_576.txt	LTP364	ltpFR2	23	10	GRILL	661	n/a	n/a	0	0	0
2226.064453125	n/a	WORD	4558980	wordpools/wasnorm_wordpool_576.txt	LTP364	ltpFR2	23	10	SANDWICH	1232	n/a	n/a	0	0	0
2228.56298828125	n/a	WORD	4564097	wordpools/wasnorm_wordpool_576.txt	LTP364	ltpFR2	23	10	ANGEL	22	n/a	n/a	0	0	0
2230.17919921875	n/a	START	4567407	n/a	LTP364	ltpFR2	23	n/a	n/a	n/a	16	n/a	n/a	n/a	n/a
2231.2802734375	n/a	DISTRACTOR	4569662	n/a	LTP364	ltpFR2	23	10	n/a	n/a	n/a	n/a	0	0	0
2231.294921875	n/a	PROB	4569692	n/a	LTP364	ltpFR2	23	n/a	n/a	n/a	16	13	9	1	3
2234.47705078125	n/a	PROB	4576209	n/a	LTP364	ltpFR2	23	n/a	n/a	n/a	16	14	4	9	1
2254.17724609375	n/a	STOP	4616555	n/a	LTP364	ltpFR2	23	n/a	n/a	n/a	16	n/a	n/a	n/a	n/a
2256.033203125	n/a	REC_START	4620356	n/a	LTP364	ltpFR2	23	10	n/a	n/a	n/a	n/a	0	0	0
2259.47802734375	n/a	REC_WORD	4627411	wordpools/wasnorm_wordpool_576.txt	LTP364	ltpFR2	23	10	PIZZA	1079	n/a	n/a	0	0	0
2259.8583984375	n/a	REC_WORD	4628190	wordpools/wasnorm_wordpool_576.txt	LTP364	ltpFR2	23	10	FACE	547	n/a	n/a	0	0	0
2260.29833984375	n/a	REC_WORD	4629091	wordpools/wasnorm_wordpool_576.txt	LTP364	ltpFR2	23	10	LADY	794	n/a	n/a	0	0	0
2262.06005859375	n/a	REC_WORD	4632699	wordpools/wasnorm_wordpool_576.txt	LTP364	ltpFR2	23	10	SCOUT	1252	n/a	n/a	0	0	0
2262.89794921875	n/a	REC_WORD	4634415	wordpools/wasnorm_wordpool_576.txt	LTP364	ltpFR2	23	10	PITCHFORK	1078	n/a	n/a	0	0	0
2346.47216796875	n/a	WORD	4805575	wordpools/wasnorm_wordpool_576.txt	LTP364	ltpFR2	23	11	HEEL	700	n/a	n/a	0	0	0
2349.1875	n/a	WORD	4811136	wordpools/wasnorm_wordpool_576.txt	LTP364	ltpFR2	23	11	MAILBOX	857	n/a	n/a	0	0	0
2351.93603515625	n/a	WORD	4816765	wordpools/wasnorm_wordpool_576.txt	LTP364	ltpFR2	23	11	DORM	488	n/a	n/a	0	0	0
2354.568359375	n/a	WORD	4822156	wordpools/wasnorm_wordpool_576.txt	LTP364	ltpFR2	23	11	KEYBOARD	774	n/a	n/a	0	0	0
2357.06689453125	n/a	WORD	4827273	wordpools/wasnorm_wordpool_576.txt	LTP364	ltpFR2	23	11	TORCH	1484	n/a	n/a	0	0	0
2359.75	n/a	WORD	4832768	wordpools/wasnorm_wordpool_576.txt	LTP364	ltpFR2	23	11	FOSSIL	596	n/a	n/a	0	0	0
2362.44775390625	n/a	WORD	4838293	wordpools/wasnorm_wordpool_576.txt	LTP364	ltpFR2	23	11	WAIST	1579	n/a	n/a	0	0	0
2364.9638671875	n/a	WORD	4843446	wordpools/wasnorm_wordpool_576.txt	LTP364	ltpFR2	23	11	OZONE	996	n/a	n/a	0	0	0
2367.712890625	n/a	WORD	4849076	wordpools/wasnorm_wordpool_576.txt	LTP364	ltpFR2	23	11	STAPLER	1372	n/a	n/a	0	0	0
2370.310546875	n/a	WORD	4854396	wordpools/wasnorm_wordpool_576.txt	LTP364	ltpFR2	23	11	PAIL	1002	n/a	n/a	0	0	0
2372.77734375	n/a	WORD	4859448	wordpools/wasnorm_wordpool_576.txt	LTP364	ltpFR2	23	11	SHOELACE	1289	n/a	n/a	0	0	0
2375.44140625	n/a	WORD	4864904	wordpools/wasnorm_wordpool_576.txt	LTP364	ltpFR2	23	11	LETTER	813	n/a	n/a	0	0	0
2378.05712890625	n/a	WORD	4870261	wordpools/wasnorm_wordpool_576.txt	LTP364	ltpFR2	23	11	COLLEGE	346	n/a	n/a	0	0	0
2380.55615234375	n/a	WORD	4875379	wordpools/wasnorm_wordpool_576.txt	LTP364	ltpFR2	23	11	INSECT	740	n/a	n/a	0	0	0
2383.37109375	n/a	WORD	4881144	wordpools/wasnorm_wordpool_576.txt	LTP364	ltpFR2	23	11	SWATTER	1418	n/a	n/a	0	0	0
2386.1533203125	n/a	WORD	4886842	wordpools/wasnorm_wordpool_576.txt	LTP364	ltpFR2	23	11	JUDGE	761	n/a	n/a	0	0	0
2388.88525390625	n/a	WORD	4892437	wordpools/wasnorm_wordpool_576.txt	LTP364	ltpFR2	23	11	CARTON	251	n/a	n/a	0	0	0
2391.333984375	n/a	WORD	4897452	wordpools/wasnorm_wordpool_576.txt	LTP364	ltpFR2	23	11	THIMBLE	1458	n/a	n/a	0	0	0
2393.8330078125	n/a	WORD	4902570	wordpools/wasnorm_wordpool_576.txt	LTP364	ltpFR2	23	11	HAYSTACK	694	n/a	n/a	0	0	0
2396.59765625	n/a	WORD	4908232	wordpools/wasnorm_wordpool_576.txt	LTP364	ltpFR2	23	11	TRENCH	1503	n/a	n/a	0	0	0
2399.2138671875	n/a	WORD	4913590	wordpools/wasnorm_wordpool_576.txt	LTP364	ltpFR2	23	11	SINK	1309	n/a	n/a	0	0	0
2401.77978515625	n/a	WORD	4918845	wordpools/wasnorm_wordpool_576.txt	LTP364	ltpFR2	23	11	TIGER	1467	n/a	n/a	0	0	0
2404.39453125	n/a	WORD	4924200	wordpools/wasnorm_wordpool_576.txt	LTP364	ltpFR2	23	11	ORGAN	984	n/a	n/a	0	0	0
2407.109375	n/a	WORD	4929760	wordpools/wasnorm_wordpool_576.txt	LTP364	ltpFR2	23	11	COCOON	339	n/a	n/a	0	0	0
2408.7265625	n/a	START	4933072	n/a	LTP364	ltpFR2	23	n/a	n/a	n/a	17	n/a	n/a	n/a	n/a
2409.59619140625	n/a	DISTRACTOR	4934853	n/a	LTP364	ltpFR2	23	11	n/a	n/a	n/a	n/a	0	0	0
2409.6083984375	n/a	PROB	4934878	n/a	LTP364	ltpFR2	23	n/a	n/a	n/a	17	19	5	8	6
2415.52197265625	n/a	PROB	4946989	n/a	LTP364	ltpFR2	23	n/a	n/a	n/a	17	13	3	3	7
2417.9208984375	n/a	PROB	4951902	n/a	LTP364	ltpFR2	23	n/a	n/a	n/a	17	23	8	8	7
2426.73486328125	n/a	PROB	4969953	n/a	LTP364	ltpFR2	23	n/a	n/a	n/a	17	18	3	7	8
2428.48291015625	n/a	PROB	4973533	n/a	LTP364	ltpFR2	23	n/a	n/a	n/a	17	11	2	4	5
2430.8486328125	n/a	PROB	4978378	n/a	LTP364	ltpFR2	23	n/a	n/a	n/a	17	14	7	3	4
2432.20263671875	n/a	STOP	4981151	n/a	LTP364	ltpFR2	23	n/a	n/a	n/a	17	n/a	n/a	n/a	n/a
2434.5634765625	n/a	REC_START	4985986	n/a	LTP364	ltpFR2	23	11	n/a	n/a	n/a	n/a	0	0	0
2435.349609375	n/a	REC_WORD	4987596	wordpools/wasnorm_wordpool_576.txt	LTP364	ltpFR2	23	11	TRENCH	1503	n/a	n/a	0	0	0
2444.79638671875	n/a	REC_WORD	5006943	wordpools/wasnorm_wordpool_576.txt	LTP364	ltpFR2	23	11	BROTHER	179	n/a	n/a	0	0	0
2525.00244140625	n/a	DISTRACTOR	5171205	n/a	LTP364	ltpFR2	23	12	n/a	n/a	n/a	n/a	0	0	0
2525.00244140625	n/a	START	5171205	n/a	LTP364	ltpFR2	23	n/a	n/a	n/a	18	n/a	n/a	n/a	n/a
2525.01953125	n/a	PROB	5171240	n/a	LTP364	ltpFR2	23	n/a	n/a	n/a	18	13	2	2	9
2527.4013671875	n/a	PROB	5176118	n/a	LTP364	ltpFR2	23	n/a	n/a	n/a	18	19	3	9	7
2528.88427734375	n/a	PROB	5179155	n/a	LTP364	ltpFR2	23	n/a	n/a	n/a	18	19	7	8	4
2530.79931640625	n/a	PROB	5183077	n/a	LTP364	ltpFR2	23	n/a	n/a	n/a	18	11	5	4	2
2533.29833984375	n/a	PROB	5188195	n/a	LTP364	ltpFR2	23	n/a	n/a	n/a	18	13	2	4	7
2535.947265625	n/a	PROB	5193620	n/a	LTP364	ltpFR2	23	n/a	n/a	n/a	18	5	1	3	1
2537.31298828125	n/a	PROB	5196417	n/a	LTP364	ltpFR2	23	n/a	n/a	n/a	18	12	4	6	2
2539.1123046875	n/a	PROB	5200102	n/a	LTP364	ltpFR2	23	n/a	n/a	n/a	18	9	1	3	5
2549.001953125	n/a	STOP	5220356	n/a	LTP364	ltpFR2	23	n/a	n/a	n/a	18	n/a	n/a	n/a	n/a
2549.82373046875	n/a	WORD	5222039	wordpools/wasnorm_wordpool_576.txt	LTP364	ltpFR2	23	12	PAPER	1011	n/a	n/a	0	0	0
2552.48974609375	n/a	WORD	5227499	wordpools/wasnorm_wordpool_576.txt	LTP364	ltpFR2	23	12	GREASE	660	n/a	n/a	0	0	0
2555.20458984375	n/a	WORD	5233059	wordpools/wasnorm_wordpool_576.txt	LTP364	ltpFR2	23	12	TRUCK	1512	n/a	n/a	0	0	0
2558.01953125	n/a	WORD	5238824	wordpools/wasnorm_wordpool_576.txt	LTP364	ltpFR2	23	12	PACKAGE	997	n/a	n/a	0	0	0
2560.55224609375	n/a	WORD	5244011	wordpools/wasnorm_wordpool_576.txt	LTP364	ltpFR2	23	12	CARPET	247	n/a	n/a	0	0	0
2563.1845703125	n/a	WORD	5249402	wordpools/wasnorm_wordpool_576.txt	LTP364	ltpFR2	23	12	PLAID	1080	n/a	n/a	0	0	0
2565.63330078125	n/a	WORD	5254417	wordpools/wasnorm_wordpool_576.txt	LTP364	ltpFR2	23	12	PRIEST	1122	n/a	n/a	0	0	0
2568.3984375	n/a	WORD	5260080	wordpools/wasnorm_wordpool_576.txt	LTP364	ltpFR2	23	12	SUSPECT	1415	n/a	n/a	0	0	0
2570.830078125	n/a	WORD	5265060	wordpools/wasnorm_wordpool_576.txt	LTP364	ltpFR2	23	12	BRIDE	173	n/a	n/a	0	0	0
2573.26318359375	n/a	WORD	5270043	wordpools/wasnorm_wordpool_576.txt	LTP364	ltpFR2	23	12	DAD	433	n/a	n/a	0	0	0
2575.69580078125	n/a	WORD	5275025	wordpools/wasnorm_wordpool_576.txt	LTP364	ltpFR2	23	12	CONSOLE	364	n/a	n/a	0	0	0
2578.24365234375	n/a	WORD	5280243	wordpools/wasnorm_wordpool_576.txt	LTP364	ltpFR2	23	12	PASTRY	1022	n/a	n/a	0	0	0
2580.9755859375	n/a	WORD	5285838	wordpools/wasnorm_wordpool_576.txt	LTP364	ltpFR2	23	12	ATTIRE	57	n/a	n/a	0	0	0
2583.6748046875	n/a	WORD	5291366	wordpools/wasnorm_wordpool_576.txt	LTP364	ltpFR2	23	12	THIEF	1456	n/a	n/a	0	0	0
2586.1396484375	n/a	WORD	5296414	wordpools/wasnorm_wordpool_576.txt	LTP364	ltpFR2	23	12	BATHTUB	100	n/a	n/a	0	0	0
2588.67138671875	n/a	WORD	5301599	wordpools/wasnorm_wordpool_576.txt	LTP364	ltpFR2	23	12	SUBWAY	1400	n/a	n/a	0	0	0
2591.25341796875	n/a	WORD	5306887	wordpools/wasnorm_wordpool_576.txt	LTP364	ltpFR2	23	12	BEAKER	104	n/a	n/a	0	0	0
2594.0693359375	n/a	WORD	5312654	wordpools/wasnorm_wordpool_576.txt	LTP364	ltpFR2	23	12	SPONGE	1355	n/a	n/a	0	0	0
2596.5341796875	n/a	WORD	5317702	wordpools/wasnorm_wordpool_576.txt	LTP364	ltpFR2	23	12	FRAME	600	n/a	n/a	0	0	0
2599.0	n/a	WORD	5322752	wordpools/wasnorm_wordpool_576.txt	LTP364	ltpFR2	23	12	PICTURE	1061	n/a	n/a	0	0	0
2601.51513671875	n/a	WORD	5327903	wordpools/wasnorm_wordpool_576.txt	LTP364	ltpFR2	23	12	BRACELET	163	n/a	n/a	0	0	0
2604.14794921875	n/a	WORD	5333295	wordpools/wasnorm_wordpool_576.txt	LTP364	ltpFR2	23	12	HOUND	724	n/a	n/a	0	0	0
2606.84619140625	n/a	WORD	5338821	wordpools/wasnorm_wordpool_576.txt	LTP364	ltpFR2	23	12	PLUTO	1092	n/a	n/a	0	0	0
2609.4951171875	n/a	WORD	5344246	wordpools/wasnorm_wordpool_576.txt	LTP364	ltpFR2	23	12	POND	1101	n/a	n/a	0	0	0
2611.11083984375	n/a	START	5347555	n/a	LTP364	ltpFR2	23	n/a	n/a	n/a	19	n/a	n/a	n/a	n/a
2612.23779296875	n/a	DISTRACTOR	5349863	n/a	LTP364	ltpFR2	23	12	n/a	n/a	n/a	n/a	0	0	0
2612.24365234375	n/a	PROB	5349875	n/a	LTP364	ltpFR2	23	n/a	n/a	n/a	19	13	1	4	8
2614.85888671875	n/a	PROB	5355231	n/a	LTP364	ltpFR2	23	n/a	n/a	n/a	19	15	4	5	6
2618.32470703125	n/a	PROB	5362329	n/a	LTP364	ltpFR2	23	n/a	n/a	n/a	19	11	3	7	1
2622.322265625	n/a	PROB	5370516	n/a	LTP364	ltpFR2	23	n/a	n/a	n/a	19	11	7	1	3
2623.92138671875	n/a	PROB	5373791	n/a	LTP364	ltpFR2	23	n/a	n/a	n/a	19	16	5	6	5
2625.47021484375	n/a	PROB	5376963	n/a	LTP364	ltpFR2	23	n/a	n/a	n/a	19	15	9	5	1
2635.10986328125	n/a	STOP	5396705	n/a	LTP364	ltpFR2	23	n/a	n/a	n/a	19	n/a	n/a	n/a	n/a
2637.0322265625	n/a	REC_START	5400642	n/a	LTP364	ltpFR2	23	12	n/a	n/a	n/a	n/a	0	0	0
2640.138671875	n/a	REC_WORD	5407004	wordpools/wasnorm_wordpool_576.txt	LTP364	ltpFR2	23	12	BATHTUB	100	n/a	n/a	0	0	0
2641.13671875	n/a	REC_WORD_VV	5409048	wordpools/wasnorm_wordpool_576.txt	LTP364	ltpFR2	23	12	<>	-1	n/a	n/a	0	0	0
2727.455078125	n/a	DISTRACTOR	5585828	n/a	LTP364	ltpFR2	23	13	n/a	n/a	n/a	n/a	0	0	0
2727.455078125	n/a	START	5585828	n/a	LTP364	ltpFR2	23	n/a	n/a	n/a	20	n/a	n/a	n/a	n/a
2727.47119140625	n/a	PROB	5585861	n/a	LTP364	ltpFR2	23	n/a	n/a	n/a	20	12	1	8	3
2751.453125	n/a	STOP	5634976	n/a	LTP364	ltpFR2	23	n/a	n/a	n/a	20	n/a	n/a	n/a	n/a
2752.29248046875	n/a	WORD	5636695	wordpools/wasnorm_wordpool_576.txt	LTP364	ltpFR2	23	13	HATCHET	691	n/a	n/a	0	0	0
2754.9912109375	n/a	WORD	5642222	wordpools/wasnorm_wordpool_576.txt	LTP364	ltpFR2	23	13	CANOE	233	n/a	n/a	0	0	0
2757.490234375	n/a	WORD	5647340	wordpools/wasnorm_wordpool_576.txt	LTP364	ltpFR2	23	13	GRAVEL	659	n/a	n/a	0	0	0
2760.02197265625	n/a	WORD	5652525	wordpools/wasnorm_wordpool_576.txt	LTP364	ltpFR2	23	13	HIGHWAY	707	n/a	n/a	0	0	0
2762.587890625	n/a	WORD	5657780	wordpools/wasnorm_wordpool_576.txt	LTP364	ltpFR2	23	13	DANDRUFF	439	n/a	n/a	0	0	0
2765.40283203125	n/a	WORD	5663545	wordpools/wasnorm_wordpool_576.txt	LTP364	ltpFR2	23	13	SKIRT	1319	n/a	n/a	0	0	0
2768.134765625	n/a	WORD	5669140	wordpools/wasnorm_wordpool_576.txt	LTP364	ltpFR2	23	13	SCOTCH	1251	n/a	n/a	0	0	0
2770.58349609375	n/a	WORD	5674155	wordpools/wasnorm_wordpool_576.txt	LTP364	ltpFR2	23	13	DRINK	498	n/a	n/a	0	0	0
2773.0654296875	n/a	WORD	5679238	wordpools/wasnorm_wordpool_576.txt	LTP364	ltpFR2	23	13	JURY	766	n/a	n/a	0	0	0
2775.765625	n/a	WORD	5684768	wordpools/wasnorm_wordpool_576.txt	LTP364	ltpFR2	23	13	TABLE	1426	n/a	n/a	0	0	0
2778.49658203125	n/a	WORD	5690361	wordpools/wasnorm_wordpool_576.txt	LTP364	ltpFR2	23	13	BUREAU	199	n/a	n/a	0	0	0
2781.1953125	n/a	WORD	5695888	wordpools/wasnorm_wordpool_576.txt	LTP364	ltpFR2	23	13	ANCHOR	21	n/a	n/a	0	0	0
2783.8603515625	n/a	WORD	5701346	wordpools/wasnorm_wordpool_576.txt	LTP364	ltpFR2	23	13	CABBAGE	210	n/a	n/a	0	0	0
2786.609375	n/a	WORD	5706976	wordpools/wasnorm_wordpool_576.txt	LTP364	ltpFR2	23	13	VALLEY	1545	n/a	n/a	0	0	0
2789.3251953125	n/a	WORD	5712538	wordpools/wasnorm_wordpool_576.txt	LTP364	ltpFR2	23	13	SIDING	1304	n/a	n/a	0	0	0
2791.90673828125	n/a	WORD	5717825	wordpools/wasnorm_wordpool_576.txt	LTP364	ltpFR2	23	13	SPOON	1357	n/a	n/a	0	0	0
2794.638671875	n/a	WORD	5723420	wordpools/wasnorm_wordpool_576.txt	LTP364	ltpFR2	23	13	NEPHEW	942	n/a	n/a	0	0	0
2797.27099609375	n/a	WORD	5728811	wordpools/wasnorm_wordpool_576.txt	LTP364	ltpFR2	23	13	BIKE	125	n/a	n/a	0	0	0
2800.0029296875	n/a	WORD	5734406	wordpools/wasnorm_wordpool_576.txt	LTP364	ltpFR2	23	13	ELK	526	n/a	n/a	0	0	0
2802.76953125	n/a	WORD	5740072	wordpools/wasnorm_wordpool_576.txt	LTP364	ltpFR2	23	13	CLIFF	322	n/a	n/a	0	0	0
2805.45068359375	n/a	WORD	5745563	wordpools/wasnorm_wordpool_576.txt	LTP364	ltpFR2	23	13	MOTHER	921	n/a	n/a	0	0	0
2808.232421875	n/a	WORD	5751260	wordpools/wasnorm_wordpool_576.txt	LTP364	ltpFR2	23	13	HELMET	702	n/a	n/a	0	0	0
2810.83154296875	n/a	WORD	5756583	wordpools/wasnorm_wordpool_576.txt	LTP364	ltpFR2	23	13	PASTA	1021	n/a	n/a	0	0	0
2813.49609375	n/a	WORD	5762040	wordpools/wasnorm_wordpool_576.txt	LTP364	ltpFR2	23	13	MONKEY	911	n/a	n/a	0	0	0
2815.1123046875	n/a	START	5765350	n/a	LTP364	ltpFR2	23	n/a	n/a	n/a	21	n/a	n/a	n/a	n/a
2816.22509765625	n/a	DISTRACTOR	5767629	n/a	LTP364	ltpFR2	23	13	n/a	n/a	n/a	n/a	0	0	0
2816.22802734375	n/a	PROB	5767635	n/a	LTP364	ltpFR2	23	n/a	n/a	n/a	21	20	7	5	8
2839.111328125	n/a	STOP	5814500	n/a	LTP364	ltpFR2	23	n/a	n/a	n/a	21	n/a	n/a	n/a	n/a
2841.06640625	n/a	REC_START	5818504	n/a	LTP364	ltpFR2	23	13	n/a	n/a	n/a	n/a	0	0	0
2862.515625	n/a	REC_WORD	5862432	wordpools/wasnorm_wordpool_576.txt	LTP364	ltpFR2	23	13	ANCHOR	21	n/a	n/a	0	0	0
2867.9384765625	n/a	REC_WORD	5873538	wordpools/wasnorm_wordpool_576.txt	LTP364	ltpFR2	23	13	MOTHER	921	n/a	n/a	0	0	0
2871.62646484375	n/a	REC_WORD	5881091	wordpools/wasnorm_wordpool_576.txt	LTP364	ltpFR2	23	13	CLIFF	322	n/a	n/a	0	0	0
2875.9580078125	n/a	REC_WORD	5889962	wordpools/wasnorm_wordpool_576.txt	LTP364	ltpFR2	23	13	MONKEY	911	n/a	n/a	0	0	0
2931.50537109375	n/a	WORD	6003723	wordpools/wasnorm_wordpool_576.txt	LTP364	ltpFR2	23	14	CLERK	321	n/a	n/a	0	0	0
2934.17138671875	n/a	WORD	6009183	wordpools/wasnorm_wordpool_576.txt	LTP364	ltpFR2	23	14	DESK	452	n/a	n/a	0	0	0
2936.6875	n/a	WORD	6014336	wordpools/wasnorm_wordpool_576.txt	LTP364	ltpFR2	23	14	NICKEL	950	n/a	n/a	0	0	0
2939.38525390625	n/a	WORD	6019861	wordpools/wasnorm_wordpool_576.txt	LTP364	ltpFR2	23	14	FREEWAY	603	n/a	n/a	0	0	0
2942.1669921875	n/a	WORD	6025558	wordpools/wasnorm_wordpool_576.txt	LTP364	ltpFR2	23	14	LEOPARD	812	n/a	n/a	0	0	0
2944.916015625	n/a	WORD	6031188	wordpools/wasnorm_wordpool_576.txt	LTP364	ltpFR2	23	14	PEANUT	1032	n/a	n/a	0	0	0
2947.73193359375	n/a	WORD	6036955	wordpools/wasnorm_wordpool_576.txt	LTP364	ltpFR2	23	14	JAR	750	n/a	n/a	0	0	0
2950.1640625	n/a	WORD	6041936	wordpools/wasnorm_wordpool_576.txt	LTP364	ltpFR2	23	14	CRYSTAL	418	n/a	n/a	0	0	0
2952.69677734375	n/a	WORD	6047123	wordpools/wasnorm_wordpool_576.txt	LTP364	ltpFR2	23	14	SCAPEGOAT	1244	n/a	n/a	0	0	0
2955.21044921875	n/a	WORD	6052271	wordpools/wasnorm_wordpool_576.txt	LTP364	ltpFR2	23	14	SLEEVE	1324	n/a	n/a	0	0	0
2957.9423828125	n/a	WORD	6057866	wordpools/wasnorm_wordpool_576.txt	LTP364	ltpFR2	23	14	GAZELLE	628	n/a	n/a	0	0	0
2960.4755859375	n/a	WORD	6063054	wordpools/wasnorm_wordpool_576.txt	LTP364	ltpFR2	23	14	WALNUT	1584	n/a	n/a	0	0	0
2963.1904296875	n/a	WORD	6068614	wordpools/wasnorm_wordpool_576.txt	LTP364	ltpFR2	23	14	GYMNAST	675	n/a	n/a	0	0	0
2965.67333984375	n/a	WORD	6073699	wordpools/wasnorm_wordpool_576.txt	LTP364	ltpFR2	23	14	POET	1095	n/a	n/a	0	0	0
2968.271484375	n/a	WORD	6079020	wordpools/wasnorm_wordpool_576.txt	LTP364	ltpFR2	23	14	ATHLETE	52	n/a	n/a	0	0	0
2971.0859375	n/a	WORD	6084784	wordpools/wasnorm_wordpool_576.txt	LTP364	ltpFR2	23	14	PUDDING	1139	n/a	n/a	0	0	0
2973.72021484375	n/a	WORD	6090179	wordpools/wasnorm_wordpool_576.txt	LTP364	ltpFR2	23	14	CABOOSE	214	n/a	n/a	0	0	0
2976.201171875	n/a	WORD	6095260	wordpools/wasnorm_wordpool_576.txt	LTP364	ltpFR2	23	14	RAILROAD	1162	n/a	n/a	0	0	0
2978.916015625	n/a	WORD	6100820	wordpools/wasnorm_wordpool_576.txt	LTP364	ltpFR2	23	14	CHECKERS	285	n/a	n/a	0	0	0
2981.4150390625	n/a	WORD	6105938	wordpools/wasnorm_wordpool_576.txt	LTP364	ltpFR2	23	14	JEEP	753	n/a	n/a	0	0	0
2984.03076171875	n/a	WORD	6111295	wordpools/wasnorm_wordpool_576.txt	LTP364	ltpFR2	23	14	COTTAGE	384	n/a	n/a	0	0	0
2986.57861328125	n/a	WORD	6116513	wordpools/wasnorm_wordpool_576.txt	LTP364	ltpFR2	23	14	ACORN	3	n/a	n/a	0	0	0
2989.0615234375	n/a	WORD	6121598	wordpools/wasnorm_wordpool_576.txt	LTP364	ltpFR2	23	14	TRIGGER	1507	n/a	n/a	0	0	0
2991.59326171875	n/a	WORD	6126783	wordpools/wasnorm_wordpool_576.txt	LTP364	ltpFR2	23	14	PORTRAIT	1111	n/a	n/a	0	0	0
2993.20947265625	n/a	START	6130093	n/a	LTP364	ltpFR2	23	n/a	n/a	n/a	22	n/a	n/a	n/a	n/a
2994.05029296875	n/a	DISTRACTOR	6131815	n/a	LTP364	ltpFR2	23	14	n/a	n/a	n/a	n/a	0	0	0
2994.05859375	n/a	PROB	6131832	n/a	LTP364	ltpFR2	23	n/a	n/a	n/a	22	13	6	1	6
3010.36767578125	n/a	PROB	6165233	n/a	LTP364	ltpFR2	23	n/a	n/a	n/a	22	16	3	8	5
3017.20849609375	n/a	STOP	6179243	n/a	LTP364	ltpFR2	23	n/a	n/a	n/a	22	n/a	n/a	n/a	n/a
3018.9814453125	n/a	REC_START	6182874	n/a	LTP364	ltpFR2	23	14	n/a	n/a	n/a	n/a	0	0	0
3023.9912109375	n/a	REC_WORD	6193134	wordpools/wasnorm_wordpool_576.txt	LTP364	ltpFR2	23	14	RAILROAD	1162	n/a	n/a	0	0	0
3026.484375	n/a	REC_WORD	6198240	wordpools/wasnorm_wordpool_576.txt	LTP364	ltpFR2	23	14	CHECKERS	285	n/a	n/a	0	0	0
3027.3505859375	n/a	REC_WORD	6200014	wordpools/wasnorm_wordpool_576.txt	LTP364	ltpFR2	23	14	COFFEE	341	n/a	n/a	0	0	0
3034.283203125	n/a	REC_WORD	6214212	wordpools/wasnorm_wordpool_576.txt	LTP364	ltpFR2	23	14	SCAPEGOAT	1244	n/a	n/a	0	0	0
3051.04150390625	n/a	REC_WORD_VV	6248533	wordpools/wasnorm_wordpool_576.txt	LTP364	ltpFR2	23	14	<>	-1	n/a	n/a	0	0	0
3055.47265625	n/a	REC_WORD_VV	6257608	wordpools/wasnorm_wordpool_576.txt	LTP364	ltpFR2	23	14	<>	-1	n/a	n/a	0	0	0
3060.63623046875	n/a	REC_WORD_VV	6268183	wordpools/wasnorm_wordpool_576.txt	LTP364	ltpFR2	23	14	<>	-1	n/a	n/a	0	0	0
3081.45751953125	n/a	REC_WORD_VV	6310825	wordpools/wasnorm_wordpool_576.txt	LTP364	ltpFR2	23	14	<>	-1	n/a	n/a	0	0	0
3088.51123046875	n/a	REC_WORD_VV	6325271	wordpools/wasnorm_wordpool_576.txt	LTP364	ltpFR2	23	14	<>	-1	n/a	n/a	0	0	0
3109.419921875	n/a	WORD	6368092	wordpools/wasnorm_wordpool_576.txt	LTP364	ltpFR2	23	15	FEMALE	559	n/a	n/a	0	0	0
3112.16845703125	n/a	WORD	6373721	wordpools/wasnorm_wordpool_576.txt	LTP364	ltpFR2	23	15	CROOK	412	n/a	n/a	0	0	0
3114.734375	n/a	WORD	6378976	wordpools/wasnorm_wordpool_576.txt	LTP364	ltpFR2	23	15	DUNGEON	507	n/a	n/a	0	0	0
3117.2822265625	n/a	WORD	6384194	wordpools/wasnorm_wordpool_576.txt	LTP364	ltpFR2	23	15	SHORTCAKE	1292	n/a	n/a	0	0	0
3119.99853515625	n/a	WORD	6389757	wordpools/wasnorm_wordpool_576.txt	LTP364	ltpFR2	23	15	CRADLE	399	n/a	n/a	0	0	0
3122.43017578125	n/a	WORD	6394737	wordpools/wasnorm_wordpool_576.txt	LTP364	ltpFR2	23	15	BOUQUET	157	n/a	n/a	0	0	0
3125.0791015625	n/a	WORD	6400162	wordpools/wasnorm_wordpool_576.txt	LTP364	ltpFR2	23	15	GODDESS	646	n/a	n/a	0	0	0
3127.64404296875	n/a	WORD	6405415	wordpools/wasnorm_wordpool_576.txt	LTP364	ltpFR2	23	15	ADULT	8	n/a	n/a	0	0	0
3130.39306640625	n/a	WORD	6411045	wordpools/wasnorm_wordpool_576.txt	LTP364	ltpFR2	23	15	CANDY	230	n/a	n/a	0	0	0
3133.15771484375	n/a	WORD	6416707	wordpools/wasnorm_wordpool_576.txt	LTP364	ltpFR2	23	15	BIBLE	124	n/a	n/a	0	0	0
3135.5908203125	n/a	WORD	6421690	wordpools/wasnorm_wordpool_576.txt	LTP364	ltpFR2	23	15	BEAST	108	n/a	n/a	0	0	0
3138.40576171875	n/a	WORD	6427455	wordpools/wasnorm_wordpool_576.txt	LTP364	ltpFR2	23	15	QUILT	1151	n/a	n/a	0	0	0
3140.9375	n/a	WORD	6432640	wordpools/wasnorm_wordpool_576.txt	LTP364	ltpFR2	23	15	FLANNEL	574	n/a	n/a	0	0	0
3143.5693359375	n/a	WORD	6438030	wordpools/wasnorm_wordpool_576.txt	LTP364	ltpFR2	23	15	WRITER	1627	n/a	n/a	0	0	0
3146.185546875	n/a	WORD	6443388	wordpools/wasnorm_wordpool_576.txt	LTP364	ltpFR2	23	15	MARSH	874	n/a	n/a	0	0	0
3149.00048828125	n/a	WORD	6449153	wordpools/wasnorm_wordpool_576.txt	LTP364	ltpFR2	23	15	ARTIST	43	n/a	n/a	0	0	0
3151.75048828125	n/a	WORD	6454785	wordpools/wasnorm_wordpool_576.txt	LTP364	ltpFR2	23	15	HAMMER	680	n/a	n/a	0	0	0
3154.1982421875	n/a	WORD	6459798	wordpools/wasnorm_wordpool_576.txt	LTP364	ltpFR2	23	15	FATHER	554	n/a	n/a	0	0	0
3156.9970703125	n/a	WORD	6465530	wordpools/wasnorm_wordpool_576.txt	LTP364	ltpFR2	23	15	PIRATE	1074	n/a	n/a	0	0	0
3159.779296875	n/a	WORD	6471228	wordpools/wasnorm_wordpool_576.txt	LTP364	ltpFR2	23	15	DECK	443	n/a	n/a	0	0	0
3162.4111328125	n/a	WORD	6476618	wordpools/wasnorm_wordpool_576.txt	LTP364	ltpFR2	23	15	FOLDER	588	n/a	n/a	0	0	0
3164.97607421875	n/a	WORD	6481871	wordpools/wasnorm_wordpool_576.txt	LTP364	ltpFR2	23	15	DENIM	446	n/a	n/a	0	0	0
3167.6416015625	n/a	WORD	6487330	wordpools/wasnorm_wordpool_576.txt	LTP364	ltpFR2	23	15	GARLIC	624	n/a	n/a	0	0	0
3170.12353515625	n/a	WORD	6492413	wordpools/wasnorm_wordpool_576.txt	LTP364	ltpFR2	23	15	SQUID	1361	n/a	n/a	0	0	0
3171.74072265625	n/a	START	6495725	n/a	LTP364	ltpFR2	23	n/a	n/a	n/a	23	n/a	n/a	n/a	n/a
3172.880859375	n/a	DISTRACTOR	6498060	n/a	LTP364	ltpFR2	23	15	n/a	n/a	n/a	n/a	0	0	0
3172.888671875	n/a	PROB	6498076	n/a	LTP364	ltpFR2	23	n/a	n/a	n/a	23	6	2	3	1
3175.75537109375	n/a	PROB	6503947	n/a	LTP364	ltpFR2	23	n/a	n/a	n/a	23	6	1	3	2
3176.986328125	n/a	PROB	6506468	n/a	LTP364	ltpFR2	23	n/a	n/a	n/a	23	10	5	1	4
3195.73974609375	n/a	STOP	6544875	n/a	LTP364	ltpFR2	23	n/a	n/a	n/a	23	n/a	n/a	n/a	n/a
3197.5947265625	n/a	REC_START	6548674	n/a	LTP364	ltpFR2	23	15	n/a	n/a	n/a	n/a	0	0	0
3202.57861328125	n/a	REC_WORD_VV	6558881	wordpools/wasnorm_wordpool_576.txt	LTP364	ltpFR2	23	15	<>	-1	n/a	n/a	0	0	0
3220.89697265625	n/a	REC_WORD	6596397	wordpools/wasnorm_wordpool_576.txt	LTP364	ltpFR2	23	15	LADY	794	n/a	n/a	0	0	0
3240.00439453125	n/a	REC_WORD_VV	6635529	wordpools/wasnorm_wordpool_576.txt	LTP364	ltpFR2	23	15	<>	-1	n/a	n/a	0	0	0
3245.20849609375	n/a	REC_WORD_VV	6646187	wordpools/wasnorm_wordpool_576.txt	LTP364	ltpFR2	23	15	<>	-1	n/a	n/a	0	0	0
3249.56298828125	n/a	REC_WORD_VV	6655105	wordpools/wasnorm_wordpool_576.txt	LTP364	ltpFR2	23	15	<>	-1	n/a	n/a	0	0	0
3288.01708984375	n/a	DISTRACTOR	6733859	n/a	LTP364	ltpFR2	23	16	n/a	n/a	n/a	n/a	0	0	0
3288.01708984375	n/a	START	6733859	n/a	LTP364	ltpFR2	23	n/a	n/a	n/a	24	n/a	n/a	n/a	n/a
3288.03271484375	n/a	PROB	6733891	n/a	LTP364	ltpFR2	23	n/a	n/a	n/a	24	21	8	9	4
3291.298828125	n/a	PROB	6740580	n/a	LTP364	ltpFR2	23	n/a	n/a	n/a	24	16	8	1	7
3293.8466796875	n/a	PROB	6745798	n/a	LTP364	ltpFR2	23	n/a	n/a	n/a	24	14	5	3	6
3295.9296875	n/a	PROB	6750064	n/a	LTP364	ltpFR2	23	n/a	n/a	n/a	24	21	9	7	5
3301.7763671875	n/a	PROB	6762038	n/a	LTP364	ltpFR2	23	n/a	n/a	n/a	24	11	3	5	3
3304.45849609375	n/a	PROB	6767531	n/a	LTP364	ltpFR2	23	n/a	n/a	n/a	24	19	2	8	9
3312.01611328125	n/a	STOP	6783009	n/a	LTP364	ltpFR2	23	n/a	n/a	n/a	24	n/a	n/a	n/a	n/a
3313.02099609375	n/a	WORD	6785067	wordpools/wasnorm_wordpool_576.txt	LTP364	ltpFR2	23	16	WALRUS	1585	n/a	n/a	0	0	0
3315.73681640625	n/a	WORD	6790629	wordpools/wasnorm_wordpool_576.txt	LTP364	ltpFR2	23	16	SURVEY	1414	n/a	n/a	0	0	0
3318.1689453125	n/a	WORD	6795610	wordpools/wasnorm_wordpool_576.txt	LTP364	ltpFR2	23	16	SLUG	1329	n/a	n/a	0	0	0
3320.85107421875	n/a	WORD	6801103	wordpools/wasnorm_wordpool_576.txt	LTP364	ltpFR2	23	16	SNAIL	1332	n/a	n/a	0	0	0
3323.349609375	n/a	WORD	6806220	wordpools/wasnorm_wordpool_576.txt	LTP364	ltpFR2	23	16	STREET	1393	n/a	n/a	0	0	0
3326.09765625	n/a	WORD	6811848	wordpools/wasnorm_wordpool_576.txt	LTP364	ltpFR2	23	16	RESORT	1186	n/a	n/a	0	0	0
3328.58056640625	n/a	WORD	6816933	wordpools/wasnorm_wordpool_576.txt	LTP364	ltpFR2	23	16	PANTS	1010	n/a	n/a	0	0	0
3331.24560546875	n/a	WORD	6822391	wordpools/wasnorm_wordpool_576.txt	LTP364	ltpFR2	23	16	SCALLOP	1242	n/a	n/a	0	0	0
3334.04443359375	n/a	WORD	6828123	wordpools/wasnorm_wordpool_576.txt	LTP364	ltpFR2	23	16	TROUT	1511	n/a	n/a	0	0	0
3336.62646484375	n/a	WORD	6833411	wordpools/wasnorm_wordpool_576.txt	LTP364	ltpFR2	23	16	SHELF	1280	n/a	n/a	0	0	0
3339.14208984375	n/a	WORD	6838563	wordpools/wasnorm_wordpool_576.txt	LTP364	ltpFR2	23	16	TROUSERS	1510	n/a	n/a	0	0	0
3341.80712890625	n/a	WORD	6844021	wordpools/wasnorm_wordpool_576.txt	LTP364	ltpFR2	23	16	BUNNY	198	n/a	n/a	0	0	0
3344.5888671875	n/a	WORD	6849718	wordpools/wasnorm_wordpool_576.txt	LTP364	ltpFR2	23	16	LAPEL	800	n/a	n/a	0	0	0
3347.087890625	n/a	WORD	6854836	wordpools/wasnorm_wordpool_576.txt	LTP364	ltpFR2	23	16	COLONEL	348	n/a	n/a	0	0	0
3349.5869140625	n/a	WORD	6859954	wordpools/wasnorm_wordpool_576.txt	LTP364	ltpFR2	23	16	GUARD	667	n/a	n/a	0	0	0
3352.3359375	n/a	WORD	6865584	wordpools/wasnorm_wordpool_576.txt	LTP364	ltpFR2	23	16	LIGHTNING	820	n/a	n/a	0	0	0
3355.11767578125	n/a	WORD	6871281	wordpools/wasnorm_wordpool_576.txt	LTP364	ltpFR2	23	16	FUNGUS	614	n/a	n/a	0	0	0
3357.91552734375	n/a	WORD	6877011	wordpools/wasnorm_wordpool_576.txt	LTP364	ltpFR2	23	16	TOOTHBRUSH	1482	n/a	n/a	0	0	0
3360.58154296875	n/a	WORD	6882471	wordpools/wasnorm_wordpool_576.txt	LTP364	ltpFR2	23	16	SIRLOIN	1311	n/a	n/a	0	0	0
3363.11328125	n/a	WORD	6887656	wordpools/wasnorm_wordpool_576.txt	LTP364	ltpFR2	23	16	SHRIMP	1297	n/a	n/a	0	0	0
3365.8955078125	n/a	WORD	6893354	wordpools/wasnorm_wordpool_576.txt	LTP364	ltpFR2	23	16	SKUNK	1321	n/a	n/a	0	0	0
3368.67822265625	n/a	WORD	6899053	wordpools/wasnorm_wordpool_576.txt	LTP364	ltpFR2	23	16	ROACH	1195	n/a	n/a	0	0	0
3371.2431640625	n/a	WORD	6904306	wordpools/wasnorm_wordpool_576.txt	LTP364	ltpFR2	23	16	PLUM	1090	n/a	n/a	0	0	0
3373.708984375	n/a	WORD	6909356	wordpools/wasnorm_wordpool_576.txt	LTP364	ltpFR2	23	16	FEAST	556	n/a	n/a	0	0	0
3375.32421875	n/a	START	6912664	n/a	LTP364	ltpFR2	23	n/a	n/a	n/a	25	n/a	n/a	n/a	n/a
3376.49609375	n/a	DISTRACTOR	6915064	n/a	LTP364	ltpFR2	23	16	n/a	n/a	n/a	n/a	0	0	0
3376.5068359375	n/a	PROB	6915086	n/a	LTP364	ltpFR2	23	n/a	n/a	n/a	25	15	6	7	2
3393.16552734375	n/a	PROB	6949203	n/a	LTP364	ltpFR2	23	n/a	n/a	n/a	25	1	8	7	2
3399.322265625	n/a	STOP	6961812	n/a	LTP364	ltpFR2	23	n/a	n/a	n/a	25	n/a	n/a	n/a	n/a
3401.14501953125	n/a	REC_START	6965545	n/a	LTP364	ltpFR2	23	16	n/a	n/a	n/a	n/a	0	0	0
3406.68798828125	n/a	REC_WORD	6976897	wordpools/wasnorm_wordpool_576.txt	LTP364	ltpFR2	23	16	AWARD	63	n/a	n/a	0	0	0
3412.69287109375	n/a	REC_WORD	6989195	wordpools/wasnorm_wordpool_576.txt	LTP364	ltpFR2	23	16	JUNGLE	764	n/a	n/a	0	0	0
3477.67578125	n/a	REST_REWET	7122280	n/a	LTP364	ltpFR2	23	16	n/a	n/a	n/a	n/a	0	0	0
3616.5244140625	n/a	WORD	7406642	wordpools/wasnorm_wordpool_576.txt	LTP364	ltpFR2	23	17	PIGEON	1065	n/a	n/a	0	0	0
3619.02294921875	n/a	WORD	7411759	wordpools/wasnorm_wordpool_576.txt	LTP364	ltpFR2	23	17	REINDEER	1181	n/a	n/a	0	0	0
3621.72314453125	n/a	WORD	7417289	wordpools/wasnorm_wordpool_576.txt	LTP364	ltpFR2	23	17	SHEPHERD	1283	n/a	n/a	0	0	0
3624.50390625	n/a	WORD	7422984	wordpools/wasnorm_wordpool_576.txt	LTP364	ltpFR2	23	17	WOLF	1619	n/a	n/a	0	0	0
3627.06884765625	n/a	WORD	7428237	wordpools/wasnorm_wordpool_576.txt	LTP364	ltpFR2	23	17	CACTUS	215	n/a	n/a	0	0	0
3629.80078125	n/a	WORD	7433832	wordpools/wasnorm_wordpool_576.txt	LTP364	ltpFR2	23	17	BOUILLON	154	n/a	n/a	0	0	0
3632.41650390625	n/a	WORD	7439189	wordpools/wasnorm_wordpool_576.txt	LTP364	ltpFR2	23	17	SOLDIER	1344	n/a	n/a	0	0	0
3634.94873046875	n/a	WORD	7444375	wordpools/wasnorm_wordpool_576.txt	LTP364	ltpFR2	23	17	STAMP	1370	n/a	n/a	0	0	0
3637.44775390625	n/a	WORD	7449493	wordpools/wasnorm_wordpool_576.txt	LTP364	ltpFR2	23	17	BANK	83	n/a	n/a	0	0	0
3640.1796875	n/a	WORD	7455088	wordpools/wasnorm_wordpool_576.txt	LTP364	ltpFR2	23	17	TULIP	1517	n/a	n/a	0	0	0
3642.79443359375	n/a	WORD	7460443	wordpools/wasnorm_wordpool_576.txt	LTP364	ltpFR2	23	17	STRING	1394	n/a	n/a	0	0	0
3645.54345703125	n/a	WORD	7466073	wordpools/wasnorm_wordpool_576.txt	LTP364	ltpFR2	23	17	PUMPKIN	1142	n/a	n/a	0	0	0
3648.25927734375	n/a	WORD	7471635	wordpools/wasnorm_wordpool_576.txt	LTP364	ltpFR2	23	17	WAGON	1578	n/a	n/a	0	0	0
3650.97412109375	n/a	WORD	7477195	wordpools/wasnorm_wordpool_576.txt	LTP364	ltpFR2	23	17	YARD	1630	n/a	n/a	0	0	0
3653.755859375	n/a	WORD	7482892	wordpools/wasnorm_wordpool_576.txt	LTP364	ltpFR2	23	17	GRASS	655	n/a	n/a	0	0	0
3656.22216796875	n/a	WORD	7487943	wordpools/wasnorm_wordpool_576.txt	LTP364	ltpFR2	23	17	HOSTAGE	722	n/a	n/a	0	0	0
3658.720703125	n/a	WORD	7493060	wordpools/wasnorm_wordpool_576.txt	LTP364	ltpFR2	23	17	HANDBAG	684	n/a	n/a	0	0	0
3661.26904296875	n/a	WORD	7498279	wordpools/wasnorm_wordpool_576.txt	LTP364	ltpFR2	23	17	STOCKING	1383	n/a	n/a	0	0	0
3663.8505859375	n/a	WORD	7503566	wordpools/wasnorm_wordpool_576.txt	LTP364	ltpFR2	23	17	CONCRETE	361	n/a	n/a	0	0	0
3666.599609375	n/a	WORD	7509196	wordpools/wasnorm_wordpool_576.txt	LTP364	ltpFR2	23	17	PAVEMENT	1028	n/a	n/a	0	0	0
3669.1484375	n/a	WORD	7514416	wordpools/wasnorm_wordpool_576.txt	LTP364	ltpFR2	23	17	COCKTAIL	338	n/a	n/a	0	0	0
3671.6982421875	n/a	WORD	7519638	wordpools/wasnorm_wordpool_576.txt	LTP364	ltpFR2	23	17	LAMP	798	n/a	n/a	0	0	0
3674.3125	n/a	WORD	7524992	wordpools/wasnorm_wordpool_576.txt	LTP364	ltpFR2	23	17	PERFUME	1049	n/a	n/a	0	0	0
3676.8955078125	n/a	WORD	7530282	wordpools/wasnorm_wordpool_576.txt	LTP364	ltpFR2	23	17	BOXER	160	n/a	n/a	0	0	0
3678.51123046875	n/a	START	7533591	n/a	LTP364	ltpFR2	23	n/a	n/a	n/a	26	n/a	n/a	n/a	n/a
3679.703125	n/a	DISTRACTOR	7536032	n/a	LTP364	ltpFR2	23	17	n/a	n/a	n/a	n/a	0	0	0
3679.71142578125	n/a	PROB	7536049	n/a	LTP364	ltpFR2	23	n/a	n/a	n/a	26	19	8	4	7
3682.7919921875	n/a	PROB	7542358	n/a	LTP364	ltpFR2	23	n/a	n/a	n/a	26	19	8	6	5
3687.623046875	n/a	PROB	7552252	n/a	LTP364	ltpFR2	23	n/a	n/a	n/a	26	14	8	5	1
3690.18896484375	n/a	PROB	7557507	n/a	LTP364	ltpFR2	23	n/a	n/a	n/a	26	13	2	2	9
3693.48681640625	n/a	PROB	7564261	n/a	LTP364	ltpFR2	23	n/a	n/a	n/a	26	16	6	7	3
3694.9697265625	n/a	PROB	7567298	n/a	LTP364	ltpFR2	23	n/a	n/a	n/a	26	8	4	1	3
3696.95166015625	n/a	PROB	7571357	n/a	LTP364	ltpFR2	23	n/a	n/a	n/a	26	14	5	2	7
3700.46630859375	n/a	PROB	7578555	n/a	LTP364	ltpFR2	23	n/a	n/a	n/a	26	8	1	3	4
3702.09765625	n/a	STOP	7581896	n/a	LTP364	ltpFR2	23	n/a	n/a	n/a	26	n/a	n/a	n/a	n/a
3704.33251953125	n/a	REC_START	7586473	n/a	LTP364	ltpFR2	23	17	n/a	n/a	n/a	n/a	0	0	0
3705.8603515625	n/a	REC_WORD	7589602	wordpools/wasnorm_wordpool_576.txt	LTP364	ltpFR2	23	17	PIGEON	1065	n/a	n/a	0	0	0
3706.58056640625	n/a	REC_WORD	7591077	wordpools/wasnorm_wordpool_576.txt	LTP364	ltpFR2	23	17	REINDEER	1181	n/a	n/a	0	0	0
3708.87109375	n/a	REC_WORD	7595768	wordpools/wasnorm_wordpool_576.txt	LTP364	ltpFR2	23	17	SHEPHERD	1283	n/a	n/a	0	0	0
3709.71630859375	n/a	REC_WORD	7597499	wordpools/wasnorm_wordpool_576.txt	LTP364	ltpFR2	23	17	WOLF	1619	n/a	n/a	0	0	0
3794.771484375	n/a	WORD	7771692	wordpools/wasnorm_wordpool_576.txt	LTP364	ltpFR2	23	18	ELBOW	520	n/a	n/a	0	0	0
3797.4033203125	n/a	WORD	7777082	wordpools/wasnorm_wordpool_576.txt	LTP364	ltpFR2	23	18	ARM	38	n/a	n/a	0	0	0
3799.83544921875	n/a	WORD	7782063	wordpools/wasnorm_wordpool_576.txt	LTP364	ltpFR2	23	18	MESSAGE	888	n/a	n/a	0	0	0
3802.30126953125	n/a	WORD	7787113	wordpools/wasnorm_wordpool_576.txt	LTP364	ltpFR2	23	18	JOINT	758	n/a	n/a	0	0	0
3804.76611328125	n/a	WORD	7792161	wordpools/wasnorm_wordpool_576.txt	LTP364	ltpFR2	23	18	CHEST	295	n/a	n/a	0	0	0
3807.34814453125	n/a	WORD	7797449	wordpools/wasnorm_wordpool_576.txt	LTP364	ltpFR2	23	18	BUCKET	184	n/a	n/a	0	0	0
3809.81396484375	n/a	WORD	7802499	wordpools/wasnorm_wordpool_576.txt	LTP364	ltpFR2	23	18	MUFFIN	929	n/a	n/a	0	0	0
3812.4130859375	n/a	WORD	7807822	wordpools/wasnorm_wordpool_576.txt	LTP364	ltpFR2	23	18	REPORT	1184	n/a	n/a	0	0	0
3814.94482421875	n/a	WORD	7813007	wordpools/wasnorm_wordpool_576.txt	LTP364	ltpFR2	23	18	STAPLE	1371	n/a	n/a	0	0	0
3817.69482421875	n/a	WORD	7818639	wordpools/wasnorm_wordpool_576.txt	LTP364	ltpFR2	23	18	FIST	572	n/a	n/a	0	0	0
3820.5087890625	n/a	WORD	7824402	wordpools/wasnorm_wordpool_576.txt	LTP364	ltpFR2	23	18	TYPIST	1532	n/a	n/a	0	0	0
3823.34033203125	n/a	WORD	7830201	wordpools/wasnorm_wordpool_576.txt	LTP364	ltpFR2	23	18	TOASTER	1472	n/a	n/a	0	0	0
3825.9892578125	n/a	WORD	7835626	wordpools/wasnorm_wordpool_576.txt	LTP364	ltpFR2	23	18	MAGNET	855	n/a	n/a	0	0	0
3828.67236328125	n/a	WORD	7841121	wordpools/wasnorm_wordpool_576.txt	LTP364	ltpFR2	23	18	MERMAID	887	n/a	n/a	0	0	0
3831.25341796875	n/a	WORD	7846407	wordpools/wasnorm_wordpool_576.txt	LTP364	ltpFR2	23	18	GAVEL	627	n/a	n/a	0	0	0
3833.75244140625	n/a	WORD	7851525	wordpools/wasnorm_wordpool_576.txt	LTP364	ltpFR2	23	18	VALVE	1546	n/a	n/a	0	0	0
3836.35107421875	n/a	WORD	7856847	wordpools/wasnorm_wordpool_576.txt	LTP364	ltpFR2	23	18	SENATE	1267	n/a	n/a	0	0	0
3839.0	n/a	WORD	7862272	wordpools/wasnorm_wordpool_576.txt	LTP364	ltpFR2	23	18	OX	994	n/a	n/a	0	0	0
3841.83203125	n/a	WORD	7868072	wordpools/wasnorm_wordpool_576.txt	LTP364	ltpFR2	23	18	PORK	1108	n/a	n/a	0	0	0
3844.6298828125	n/a	WORD	7873802	wordpools/wasnorm_wordpool_576.txt	LTP364	ltpFR2	23	18	MEAT	883	n/a	n/a	0	0	0
3847.32861328125	n/a	WORD	7879329	wordpools/wasnorm_wordpool_576.txt	LTP364	ltpFR2	23	18	SOCKET	1340	n/a	n/a	0	0	0
3850.0947265625	n/a	WORD	7884994	wordpools/wasnorm_wordpool_576.txt	LTP364	ltpFR2	23	18	HEADBAND	696	n/a	n/a	0	0	0
3852.8427734375	n/a	WORD	7890622	wordpools/wasnorm_wordpool_576.txt	LTP364	ltpFR2	23	18	RULER	1216	n/a	n/a	0	0	0
3855.30859375	n/a	WORD	7895672	wordpools/wasnorm_wordpool_576.txt	LTP364	ltpFR2	23	18	SLACKS	1323	n/a	n/a	0	0	0
3856.92431640625	n/a	START	7898981	n/a	LTP364	ltpFR2	23	n/a	n/a	n/a	27	n/a	n/a	n/a	n/a
3857.77734375	n/a	DISTRACTOR	7900728	n/a	LTP364	ltpFR2	23	18	n/a	n/a	n/a	n/a	0	0	0
3857.79052734375	n/a	PROB	7900755	n/a	LTP364	ltpFR2	23	n/a	n/a	n/a	27	16	6	5	5
3860.64013671875	n/a	PROB	7906591	n/a	LTP364	ltpFR2	23	n/a	n/a	n/a	27	11	4	2	5
3864.83740234375	n/a	PROB	7915187	n/a	LTP364	ltpFR2	23	n/a	n/a	n/a	27	19	7	3	9
3880.923828125	n/a	STOP	7948132	n/a	LTP364	ltpFR2	23	n/a	n/a	n/a	27	n/a	n/a	n/a	n/a
3882.6796875	n/a	REC_START	7951728	n/a	LTP364	ltpFR2	23	18	n/a	n/a	n/a	n/a	0	0	0
3885.4365234375	n/a	REC_WORD	7957374	wordpools/wasnorm_wordpool_576.txt	LTP364	ltpFR2	23	18	TOASTER	1472	n/a	n/a	0	0	0
3886.33154296875	n/a	REC_WORD	7959207	wordpools/wasnorm_wordpool_576.txt	LTP364	ltpFR2	23	18	MAGNET	855	n/a	n/a	0	0	0
3888.5166015625	n/a	REC_WORD	7963682	wordpools/wasnorm_wordpool_576.txt	LTP364	ltpFR2	23	18	SENATE	1267	n/a	n/a	0	0	0
3889.3232421875	n/a	REC_WORD	7965334	wordpools/wasnorm_wordpool_576.txt	LTP364	ltpFR2	23	18	GAVEL	627	n/a	n/a	0	0	0
3890.79052734375	n/a	REC_WORD	7968339	wordpools/wasnorm_wordpool_576.txt	LTP364	ltpFR2	23	18	MERMAID	887	n/a	n/a	0	0	0
3893.96923828125	n/a	REC_WORD	7974849	wordpools/wasnorm_wordpool_576.txt	LTP364	ltpFR2	23	18	VALVE	1546	n/a	n/a	0	0	0
3895.76025390625	n/a	REC_WORD	7978517	wordpools/wasnorm_wordpool_576.txt	LTP364	ltpFR2	23	18	OX	994	n/a	n/a	0	0	0
3897.46826171875	n/a	REC_WORD	7982015	wordpools/wasnorm_wordpool_576.txt	LTP364	ltpFR2	23	18	MEAT	883	n/a	n/a	0	0	0
3898.22900390625	n/a	REC_WORD	7983573	wordpools/wasnorm_wordpool_576.txt	LTP364	ltpFR2	23	18	PORK	1108	n/a	n/a	0	0	0
3973.134765625	n/a	WORD	8136980	wordpools/wasnorm_wordpool_576.txt	LTP364	ltpFR2	23	19	SLIME	1327	n/a	n/a	0	0	0
3975.81640625	n/a	WORD	8142472	wordpools/wasnorm_wordpool_576.txt	LTP364	ltpFR2	23	19	DWARF	510	n/a	n/a	0	0	0
3978.33251953125	n/a	WORD	8147625	wordpools/wasnorm_wordpool_576.txt	LTP364	ltpFR2	23	19	QUARTER	1148	n/a	n/a	0	0	0
3980.814453125	n/a	WORD	8152708	wordpools/wasnorm_wordpool_576.txt	LTP364	ltpFR2	23	19	PRAIRIE	1118	n/a	n/a	0	0	0
3983.36328125	n/a	WORD	8157928	wordpools/wasnorm_wordpool_576.txt	LTP364	ltpFR2	23	19	JOKER	759	n/a	n/a	0	0	0
3986.01220703125	n/a	WORD	8163353	wordpools/wasnorm_wordpool_576.txt	LTP364	ltpFR2	23	19	SERGEANT	1269	n/a	n/a	0	0	0
3988.51025390625	n/a	WORD	8168469	wordpools/wasnorm_wordpool_576.txt	LTP364	ltpFR2	23	19	BANKER	84	n/a	n/a	0	0	0
3991.326171875	n/a	WORD	8174236	wordpools/wasnorm_wordpool_576.txt	LTP364	ltpFR2	23	19	OUTDOORS	987	n/a	n/a	0	0	0
3994.0908203125	n/a	WORD	8179898	wordpools/wasnorm_wordpool_576.txt	LTP364	ltpFR2	23	19	FOREST	593	n/a	n/a	0	0	0
3996.7900390625	n/a	WORD	8185426	wordpools/wasnorm_wordpool_576.txt	LTP364	ltpFR2	23	19	PIMPLE	1071	n/a	n/a	0	0	0
3999.57177734375	n/a	WORD	8191123	wordpools/wasnorm_wordpool_576.txt	LTP364	ltpFR2	23	19	SALAD	1224	n/a	n/a	0	0	0
4002.220703125	n/a	WORD	8196548	wordpools/wasnorm_wordpool_576.txt	LTP364	ltpFR2	23	19	FRANCE	601	n/a	n/a	0	0	0
4004.720703125	n/a	WORD	8201668	wordpools/wasnorm_wordpool_576.txt	LTP364	ltpFR2	23	19	LIPSTICK	829	n/a	n/a	0	0	0
4007.45166015625	n/a	WORD	8207261	wordpools/wasnorm_wordpool_576.txt	LTP364	ltpFR2	23	19	EYELASH	546	n/a	n/a	0	0	0
4010.08349609375	n/a	WORD	8212651	wordpools/wasnorm_wordpool_576.txt	LTP364	ltpFR2	23	19	WHISKERS	1605	n/a	n/a	0	0	0
4012.865234375	n/a	WORD	8218348	wordpools/wasnorm_wordpool_576.txt	LTP364	ltpFR2	23	19	CHICKEN	297	n/a	n/a	0	0	0
4015.6142578125	n/a	WORD	8223978	wordpools/wasnorm_wordpool_576.txt	LTP364	ltpFR2	23	19	WAX	1597	n/a	n/a	0	0	0
4018.4130859375	n/a	WORD	8229710	wordpools/wasnorm_wordpool_576.txt	LTP364	ltpFR2	23	19	TWISTER	1530	n/a	n/a	0	0	0
4021.111328125	n/a	WORD	8235236	wordpools/wasnorm_wordpool_576.txt	LTP364	ltpFR2	23	19	CYCLONE	431	n/a	n/a	0	0	0
4023.67822265625	n/a	WORD	8240493	wordpools/wasnorm_wordpool_576.txt	LTP364	ltpFR2	23	19	CAPTAIN	239	n/a	n/a	0	0	0
4026.326171875	n/a	WORD	8245916	wordpools/wasnorm_wordpool_576.txt	LTP364	ltpFR2	23	19	ANTLER	29	n/a	n/a	0	0	0
4028.94091796875	n/a	WORD	8251271	wordpools/wasnorm_wordpool_576.txt	LTP364	ltpFR2	23	19	FOREHEAD	592	n/a	n/a	0	0	0
4031.7236328125	n/a	WORD	8256970	wordpools/wasnorm_wordpool_576.txt	LTP364	ltpFR2	23	19	ATTIC	56	n/a	n/a	0	0	0
4034.2216796875	n/a	WORD	8262086	wordpools/wasnorm_wordpool_576.txt	LTP364	ltpFR2	23	19	BLADE	134	n/a	n/a	0	0	0
4035.8388671875	n/a	START	8265398	n/a	LTP364	ltpFR2	23	n/a	n/a	n/a	28	n/a	n/a	n/a	n/a
4036.79150390625	n/a	DISTRACTOR	8267349	n/a	LTP364	ltpFR2	23	19	n/a	n/a	n/a	n/a	0	0	0
4036.8037109375	n/a	PROB	8267374	n/a	LTP364	ltpFR2	23	n/a	n/a	n/a	28	9	3	2	4
4042.05126953125	n/a	PROB	8278121	n/a	LTP364	ltpFR2	23	n/a	n/a	n/a	28	14	8	2	4
4043.53466796875	n/a	PROB	8281159	n/a	LTP364	ltpFR2	23	n/a	n/a	n/a	28	21	6	9	6
4045.66748046875	n/a	PROB	8285527	n/a	LTP364	ltpFR2	23	n/a	n/a	n/a	28	17	7	9	1
4048.63232421875	n/a	PROB	8291599	n/a	LTP364	ltpFR2	23	n/a	n/a	n/a	28	20	6	6	8
4054.412109375	n/a	PROB	8303436	n/a	LTP364	ltpFR2	23	n/a	n/a	n/a	28	12	1	9	2
4055.94482421875	n/a	PROB	8306575	n/a	LTP364	ltpFR2	23	n/a	n/a	n/a	28	14	1	5	8
4059.8369140625	n/a	STOP	8314546	n/a	LTP364	ltpFR2	23	n/a	n/a	n/a	28	n/a	n/a	n/a	n/a
4061.69384765625	n/a	REC_START	8318349	n/a	LTP364	ltpFR2	23	19	n/a	n/a	n/a	n/a	0	0	0
4106.44140625	n/a	REC_WORD	8409992	wordpools/wasnorm_wordpool_576.txt	LTP364	ltpFR2	23	19	WHISKERS	1605	n/a	n/a	0	0	0
4109.12548828125	n/a	REC_WORD	8415489	wordpools/wasnorm_wordpool_576.txt	LTP364	ltpFR2	23	19	WHISKERS	1605	n/a	n/a	0	0	0
4152.1318359375	n/a	WORD	8503566	wordpools/wasnorm_wordpool_576.txt	LTP364	ltpFR2	23	20	LOUNGE	845	n/a	n/a	0	0	0
4154.763671875	n/a	WORD	8508956	wordpools/wasnorm_wordpool_576.txt	LTP364	ltpFR2	23	20	SNORKEL	1336	n/a	n/a	0	0	0
4157.32861328125	n/a	WORD	8514209	wordpools/wasnorm_wordpool_576.txt	LTP364	ltpFR2	23	20	HANDCUFFS	685	n/a	n/a	0	0	0
4160.12744140625	n/a	WORD	8519941	wordpools/wasnorm_wordpool_576.txt	LTP364	ltpFR2	23	20	RATTLE	1170	n/a	n/a	0	0	0
4162.79248046875	n/a	WORD	8525399	wordpools/wasnorm_wordpool_576.txt	LTP364	ltpFR2	23	20	BASKET	95	n/a	n/a	0	0	0
4165.40869140625	n/a	WORD	8530757	wordpools/wasnorm_wordpool_576.txt	LTP364	ltpFR2	23	20	BENCH	121	n/a	n/a	0	0	0
4167.890625	n/a	WORD	8535840	wordpools/wasnorm_wordpool_576.txt	LTP364	ltpFR2	23	20	DIAMOND	458	n/a	n/a	0	0	0
4170.67333984375	n/a	WORD	8541539	wordpools/wasnorm_wordpool_576.txt	LTP364	ltpFR2	23	20	RECORD	1176	n/a	n/a	0	0	0
4173.154296875	n/a	WORD	8546620	wordpools/wasnorm_wordpool_576.txt	LTP364	ltpFR2	23	20	PORCH	1106	n/a	n/a	0	0	0
4175.8203125	n/a	WORD	8552080	wordpools/wasnorm_wordpool_576.txt	LTP364	ltpFR2	23	20	BUG	187	n/a	n/a	0	0	0
4178.60205078125	n/a	WORD	8557777	wordpools/wasnorm_wordpool_576.txt	LTP364	ltpFR2	23	20	PILOT	1070	n/a	n/a	0	0	0
4181.083984375	n/a	WORD	8562860	wordpools/wasnorm_wordpool_576.txt	LTP364	ltpFR2	23	20	SPICE	1350	n/a	n/a	0	0	0
4183.6669921875	n/a	WORD	8568150	wordpools/wasnorm_wordpool_576.txt	LTP364	ltpFR2	23	20	DOORBELL	487	n/a	n/a	0	0	0
4186.34765625	n/a	WORD	8573640	wordpools/wasnorm_wordpool_576.txt	LTP364	ltpFR2	23	20	ITEM	746	n/a	n/a	0	0	0
4188.78076171875	n/a	WORD	8578623	wordpools/wasnorm_wordpool_576.txt	LTP364	ltpFR2	23	20	PAINTING	1005	n/a	n/a	0	0	0
4191.52880859375	n/a	WORD	8584251	wordpools/wasnorm_wordpool_576.txt	LTP364	ltpFR2	23	20	CANVAS	234	n/a	n/a	0	0	0
4194.01171875	n/a	WORD	8589336	wordpools/wasnorm_wordpool_576.txt	LTP364	ltpFR2	23	20	SHACK	1273	n/a	n/a	0	0	0
4196.71044921875	n/a	WORD	8594863	wordpools/wasnorm_wordpool_576.txt	LTP364	ltpFR2	23	20	ACTOR	5	n/a	n/a	0	0	0
4199.392578125	n/a	WORD	8600356	wordpools/wasnorm_wordpool_576.txt	LTP364	ltpFR2	23	20	GERM	632	n/a	n/a	0	0	0
4201.857421875	n/a	WORD	8605404	wordpools/wasnorm_wordpool_576.txt	LTP364	ltpFR2	23	20	MUSHROOM	934	n/a	n/a	0	0	0
4204.373046875	n/a	WORD	8610556	wordpools/wasnorm_wordpool_576.txt	LTP364	ltpFR2	23	20	BELT	120	n/a	n/a	0	0	0
4206.98828125	n/a	WORD	8615912	wordpools/wasnorm_wordpool_576.txt	LTP364	ltpFR2	23	20	YACHT	1629	n/a	n/a	0	0	0
4209.6708984375	n/a	WORD	8621406	wordpools/wasnorm_wordpool_576.txt	LTP364	ltpFR2	23	20	STOVE	1388	n/a	n/a	0	0	0
4212.119140625	n/a	WORD	8626420	wordpools/wasnorm_wordpool_576.txt	LTP364	ltpFR2	23	20	SICKLE	1302	n/a	n/a	0	0	0
4213.73486328125	n/a	START	8629729	n/a	LTP364	ltpFR2	23	n/a	n/a	n/a	29	n/a	n/a	n/a	n/a
4214.61376953125	n/a	DISTRACTOR	8631529	n/a	LTP364	ltpFR2	23	20	n/a	n/a	n/a	n/a	0	0	0
4214.61767578125	n/a	PROB	8631537	n/a	LTP364	ltpFR2	23	n/a	n/a	n/a	29	6	2	2	2
4216.48388671875	n/a	PROB	8635359	n/a	LTP364	ltpFR2	23	n/a	n/a	n/a	29	14	4	8	2
4218.515625	n/a	PROB	8639520	n/a	LTP364	ltpFR2	23	n/a	n/a	n/a	29	12	5	3	4
4223.29638671875	n/a	PROB	8649311	n/a	LTP364	ltpFR2	23	n/a	n/a	n/a	29	21	5	7	9
4227.12841796875	n/a	PROB	8657159	n/a	LTP364	ltpFR2	23	n/a	n/a	n/a	29	23	8	7	8
4234.4580078125	n/a	PROB	8672170	n/a	LTP364	ltpFR2	23	n/a	n/a	n/a	29	15	5	1	9
4237.041015625	n/a	STOP	8677460	n/a	LTP364	ltpFR2	23	n/a	n/a	n/a	29	n/a	n/a	n/a	n/a
4239.505859375	n/a	REC_START	8682508	n/a	LTP364	ltpFR2	23	20	n/a	n/a	n/a	n/a	0	0	0
4240.6162109375	n/a	REC_WORD_VV	8684782	wordpools/wasnorm_wordpool_576.txt	LTP364	ltpFR2	23	20	<>	-1	n/a	n/a	0	0	0
4329.9453125	n/a	WORD	8867728	wordpools/wasnorm_wordpool_576.txt	LTP364	ltpFR2	23	21	SWIMMER	1420	n/a	n/a	0	0	0
4332.56103515625	n/a	WORD	8873085	wordpools/wasnorm_wordpool_576.txt	LTP364	ltpFR2	23	21	LAVA	804	n/a	n/a	0	0	0
4335.3759765625	n/a	WORD	8878850	wordpools/wasnorm_wordpool_576.txt	LTP364	ltpFR2	23	21	BRIEFCASE	175	n/a	n/a	0	0	0
4337.90771484375	n/a	WORD	8884035	wordpools/wasnorm_wordpool_576.txt	LTP364	ltpFR2	23	21	FRIES	607	n/a	n/a	0	0	0
4340.60693359375	n/a	WORD	8889563	wordpools/wasnorm_wordpool_576.txt	LTP364	ltpFR2	23	21	COLESLAW	344	n/a	n/a	0	0	0
4343.40576171875	n/a	WORD	8895295	wordpools/wasnorm_wordpool_576.txt	LTP364	ltpFR2	23	21	SUPPER	1411	n/a	n/a	0	0	0
4346.1376953125	n/a	WORD	8900890	wordpools/wasnorm_wordpool_576.txt	LTP364	ltpFR2	23	21	PALACE	1006	n/a	n/a	0	0	0
4348.802734375	n/a	WORD	8906348	wordpools/wasnorm_wordpool_576.txt	LTP364	ltpFR2	23	21	CROWN	415	n/a	n/a	0	0	0
4351.41845703125	n/a	WORD	8911705	wordpools/wasnorm_wordpool_576.txt	LTP364	ltpFR2	23	21	ZEBRA	1635	n/a	n/a	0	0	0
4353.93359375	n/a	WORD	8916856	wordpools/wasnorm_wordpool_576.txt	LTP364	ltpFR2	23	21	BEAVER	109	n/a	n/a	0	0	0
4356.615234375	n/a	WORD	8922348	wordpools/wasnorm_wordpool_576.txt	LTP364	ltpFR2	23	21	COBRA	336	n/a	n/a	0	0	0
4359.29833984375	n/a	WORD	8927843	wordpools/wasnorm_wordpool_576.txt	LTP364	ltpFR2	23	21	CHAMPAGNE	278	n/a	n/a	0	0	0
4361.9462890625	n/a	WORD	8933266	wordpools/wasnorm_wordpool_576.txt	LTP364	ltpFR2	23	21	TIMBER	1469	n/a	n/a	0	0	0
4364.69580078125	n/a	WORD	8938897	wordpools/wasnorm_wordpool_576.txt	LTP364	ltpFR2	23	21	LEAF	808	n/a	n/a	0	0	0
4367.244140625	n/a	WORD	8944116	wordpools/wasnorm_wordpool_576.txt	LTP364	ltpFR2	23	21	BRUNETTE	181	n/a	n/a	0	0	0
4369.92578125	n/a	WORD	8949608	wordpools/wasnorm_wordpool_576.txt	LTP364	ltpFR2	23	21	FOUNTAIN	597	n/a	n/a	0	0	0
4372.49169921875	n/a	WORD	8954863	wordpools/wasnorm_wordpool_576.txt	LTP364	ltpFR2	23	21	LOBSTER	837	n/a	n/a	0	0	0
4375.2568359375	n/a	WORD	8960526	wordpools/wasnorm_wordpool_576.txt	LTP364	ltpFR2	23	21	CHARCOAL	281	n/a	n/a	0	0	0
4377.92236328125	n/a	WORD	8965985	wordpools/wasnorm_wordpool_576.txt	LTP364	ltpFR2	23	21	COFFIN	342	n/a	n/a	0	0	0
4380.6552734375	n/a	WORD	8971582	wordpools/wasnorm_wordpool_576.txt	LTP364	ltpFR2	23	21	CRACKER	398	n/a	n/a	0	0	0
4383.1533203125	n/a	WORD	8976698	wordpools/wasnorm_wordpool_576.txt	LTP364	ltpFR2	23	21	WATER	1594	n/a	n/a	0	0	0
4385.63623046875	n/a	WORD	8981783	wordpools/wasnorm_wordpool_576.txt	LTP364	ltpFR2	23	21	BARREL	91	n/a	n/a	0	0	0
4388.35009765625	n/a	WORD	8987341	wordpools/wasnorm_wordpool_576.txt	LTP364	ltpFR2	23	21	PATROL	1027	n/a	n/a	0	0	0
4391.1162109375	n/a	WORD	8993006	wordpools/wasnorm_wordpool_576.txt	LTP364	ltpFR2	23	21	LANDSCAPE	799	n/a	n/a	0	0	0
4392.73193359375	n/a	START	8996315	n/a	LTP364	ltpFR2	23	n/a	n/a	n/a	30	n/a	n/a	n/a	n/a
4393.77685546875	n/a	DISTRACTOR	8998455	n/a	LTP364	ltpFR2	23	21	n/a	n/a	n/a	n/a	0	0	0
4393.78125	n/a	PROB	8998464	n/a	LTP364	ltpFR2	23	n/a	n/a	n/a	30	15	2	9	3
4401.34375	n/a	PROB	9013952	n/a	LTP364	ltpFR2	23	n/a	n/a	n/a	30	19	9	4	7
4403.3095703125	n/a	PROB	9017978	n/a	LTP364	ltpFR2	23	n/a	n/a	n/a	30	4	2	1	1
4404.9755859375	n/a	PROB	9021390	n/a	LTP364	ltpFR2	23	n/a	n/a	n/a	30	18	6	5	7
4408.0576171875	n/a	PROB	9027702	n/a	LTP364	ltpFR2	23	n/a	n/a	n/a	30	17	9	4	4
4416.7314453125	n/a	STOP	9045466	n/a	LTP364	ltpFR2	23	n/a	n/a	n/a	30	n/a	n/a	n/a	n/a
4418.603515625	n/a	REC_START	9049300	n/a	LTP364	ltpFR2	23	21	n/a	n/a	n/a	n/a	0	0	0
4422.72314453125	n/a	REC_WORD_VV	9057737	wordpools/wasnorm_wordpool_576.txt	LTP364	ltpFR2	23	21	<>	-1	n/a	n/a	0	0	0
4427.39892578125	n/a	REC_WORD	9067313	wordpools/wasnorm_wordpool_576.txt	LTP364	ltpFR2	23	21	SWAMP	1416	n/a	n/a	0	0	0
4509.04248046875	n/a	DISTRACTOR	9234519	n/a	LTP364	ltpFR2	23	22	n/a	n/a	n/a	n/a	0	0	0
4509.04248046875	n/a	START	9234519	n/a	LTP364	ltpFR2	23	n/a	n/a	n/a	31	n/a	n/a	n/a	n/a
4509.05859375	n/a	PROB	9234552	n/a	LTP364	ltpFR2	23	n/a	n/a	n/a	31	16	7	2	7
4511.84033203125	n/a	PROB	9240249	n/a	LTP364	ltpFR2	23	n/a	n/a	n/a	31	11	1	8	2
4513.6064453125	n/a	PROB	9243866	n/a	LTP364	ltpFR2	23	n/a	n/a	n/a	31	24	9	6	9
4525.65185546875	n/a	PROB	9268535	n/a	LTP364	ltpFR2	23	n/a	n/a	n/a	31	17	8	7	2
4527.58251953125	n/a	PROB	9272489	n/a	LTP364	ltpFR2	23	n/a	n/a	n/a	31	12	9	1	2
4530.99755859375	n/a	PROB	9279483	n/a	LTP364	ltpFR2	23	n/a	n/a	n/a	31	5	1	1	3
4532.513671875	n/a	STOP	9282588	n/a	LTP364	ltpFR2	23	n/a	n/a	n/a	31	n/a	n/a	n/a	n/a
4533.86376953125	n/a	WORD	9285353	wordpools/wasnorm_wordpool_576.txt	LTP364	ltpFR2	23	22	DART	440	n/a	n/a	0	0	0
4536.54541015625	n/a	WORD	9290845	wordpools/wasnorm_wordpool_576.txt	LTP364	ltpFR2	23	22	MARBLE	867	n/a	n/a	0	0	0
4539.16015625	n/a	WORD	9296200	wordpools/wasnorm_wordpool_576.txt	LTP364	ltpFR2	23	22	EUROPE	541	n/a	n/a	0	0	0
4541.89208984375	n/a	WORD	9301795	wordpools/wasnorm_wordpool_576.txt	LTP364	ltpFR2	23	22	NEEDLE	941	n/a	n/a	0	0	0
4544.67626953125	n/a	WORD	9307497	wordpools/wasnorm_wordpool_576.txt	LTP364	ltpFR2	23	22	TUBA	1515	n/a	n/a	0	0	0
4547.2900390625	n/a	WORD	9312850	wordpools/wasnorm_wordpool_576.txt	LTP364	ltpFR2	23	22	JELLY	755	n/a	n/a	0	0	0
4549.7890625	n/a	WORD	9317968	wordpools/wasnorm_wordpool_576.txt	LTP364	ltpFR2	23	22	SERVER	1272	n/a	n/a	0	0	0
4552.60400390625	n/a	WORD	9323733	wordpools/wasnorm_wordpool_576.txt	LTP364	ltpFR2	23	22	WINGS	1614	n/a	n/a	0	0	0
4555.10302734375	n/a	WORD	9328851	wordpools/wasnorm_wordpool_576.txt	LTP364	ltpFR2	23	22	CHISEL	305	n/a	n/a	0	0	0
4557.81884765625	n/a	WORD	9334413	wordpools/wasnorm_wordpool_576.txt	LTP364	ltpFR2	23	22	FROG	608	n/a	n/a	0	0	0
4560.466796875	n/a	WORD	9339836	wordpools/wasnorm_wordpool_576.txt	LTP364	ltpFR2	23	22	COMET	353	n/a	n/a	0	0	0
4563.11572265625	n/a	WORD	9345261	wordpools/wasnorm_wordpool_576.txt	LTP364	ltpFR2	23	22	LAKE	796	n/a	n/a	0	0	0
4565.83154296875	n/a	WORD	9350823	wordpools/wasnorm_wordpool_576.txt	LTP364	ltpFR2	23	22	SHINGLE	1285	n/a	n/a	0	0	0
4568.4462890625	n/a	WORD	9356178	wordpools/wasnorm_wordpool_576.txt	LTP364	ltpFR2	23	22	DRIVEWAY	500	n/a	n/a	0	0	0
4570.978515625	n/a	WORD	9361364	wordpools/wasnorm_wordpool_576.txt	LTP364	ltpFR2	23	22	TOILET	1475	n/a	n/a	0	0	0
4573.6611328125	n/a	WORD	9366858	wordpools/wasnorm_wordpool_576.txt	LTP364	ltpFR2	23	22	MANSION	864	n/a	n/a	0	0	0
4576.42626953125	n/a	WORD	9372521	wordpools/wasnorm_wordpool_576.txt	LTP364	ltpFR2	23	22	FEATHER	557	n/a	n/a	0	0	0
4578.92529296875	n/a	WORD	9377639	wordpools/wasnorm_wordpool_576.txt	LTP364	ltpFR2	23	22	HOOK	715	n/a	n/a	0	0	0
4581.5400390625	n/a	WORD	9382994	wordpools/wasnorm_wordpool_576.txt	LTP364	ltpFR2	23	22	RUBY	1214	n/a	n/a	0	0	0
4584.27197265625	n/a	WORD	9388589	wordpools/wasnorm_wordpool_576.txt	LTP364	ltpFR2	23	22	SAPPHIRE	1234	n/a	n/a	0	0	0
4587.0537109375	n/a	WORD	9394286	wordpools/wasnorm_wordpool_576.txt	LTP364	ltpFR2	23	22	CAPE	237	n/a	n/a	0	0	0
4589.7197265625	n/a	WORD	9399746	wordpools/wasnorm_wordpool_576.txt	LTP364	ltpFR2	23	22	JACKET	747	n/a	n/a	0	0	0
4592.4345703125	n/a	WORD	9405306	wordpools/wasnorm_wordpool_576.txt	LTP364	ltpFR2	23	22	BUGLE	189	n/a	n/a	0	0	0
4595.05078125	n/a	WORD	9410664	wordpools/wasnorm_wordpool_576.txt	LTP364	ltpFR2	23	22	SMOG	1330	n/a	n/a	0	0	0
4596.66748046875	n/a	START	9413975	n/a	LTP364	ltpFR2	23	n/a	n/a	n/a	32	n/a	n/a	n/a	n/a
4597.4697265625	n/a	DISTRACTOR	9415618	n/a	LTP364	ltpFR2	23	22	n/a	n/a	n/a	n/a	0	0	0
4597.482421875	n/a	PROB	9415644	n/a	LTP364	ltpFR2	23	n/a	n/a	n/a	32	14	1	5	8
4599.99853515625	n/a	PROB	9420797	n/a	LTP364	ltpFR2	23	n/a	n/a	n/a	32	16	2	7	7
4601.83056640625	n/a	PROB	9424549	n/a	LTP364	ltpFR2	23	n/a	n/a	n/a	32	15	6	3	6
4603.6640625	n/a	PROB	9428304	n/a	LTP364	ltpFR2	23	n/a	n/a	n/a	32	19	7	9	3
4620.66650390625	n/a	STOP	9463125	n/a	LTP364	ltpFR2	23	n/a	n/a	n/a	32	n/a	n/a	n/a	n/a
4622.57080078125	n/a	REC_START	9467025	n/a	LTP364	ltpFR2	23	22	n/a	n/a	n/a	n/a	0	0	0
4624.025390625	n/a	REC_WORD	9470004	wordpools/wasnorm_wordpool_576.txt	LTP364	ltpFR2	23	22	BUGLE	189	n/a	n/a	0	0	0
4626.595703125	n/a	REC_WORD	9475268	wordpools/wasnorm_wordpool_576.txt	LTP364	ltpFR2	23	22	NEEDLE	941	n/a	n/a	0	0	0
4628.2626953125	n/a	REC_WORD	9478682	wordpools/wasnorm_wordpool_576.txt	LTP364	ltpFR2	23	22	EUROPE	541	n/a	n/a	0	0	0
4712.99267578125	n/a	DISTRACTOR	9652209	n/a	LTP364	ltpFR2	23	23	n/a	n/a	n/a	n/a	0	0	0
4712.99365234375	n/a	START	9652211	n/a	LTP364	ltpFR2	23	n/a	n/a	n/a	33	n/a	n/a	n/a	n/a
4713.009765625	n/a	PROB	9652244	n/a	LTP364	ltpFR2	23	n/a	n/a	n/a	33	11	2	6	3
4736.9931640625	n/a	STOP	9701362	n/a	LTP364	ltpFR2	23	n/a	n/a	n/a	33	n/a	n/a	n/a	n/a
4738.0810546875	n/a	WORD	9703590	wordpools/wasnorm_wordpool_576.txt	LTP364	ltpFR2	23	23	BANDIT	81	n/a	n/a	0	0	0
4740.8466796875	n/a	WORD	9709254	wordpools/wasnorm_wordpool_576.txt	LTP364	ltpFR2	23	23	CLIMBER	323	n/a	n/a	0	0	0
4743.52880859375	n/a	WORD	9714747	wordpools/wasnorm_wordpool_576.txt	LTP364	ltpFR2	23	23	HAMMOCK	681	n/a	n/a	0	0	0
4745.9775390625	n/a	WORD	9719762	wordpools/wasnorm_wordpool_576.txt	LTP364	ltpFR2	23	23	BEDROOM	111	n/a	n/a	0	0	0
4748.7255859375	n/a	WORD	9725390	wordpools/wasnorm_wordpool_576.txt	LTP364	ltpFR2	23	23	GARAGE	621	n/a	n/a	0	0	0
4751.17431640625	n/a	WORD	9730405	wordpools/wasnorm_wordpool_576.txt	LTP364	ltpFR2	23	23	CREATURE	403	n/a	n/a	0	0	0
4753.79052734375	n/a	WORD	9735763	wordpools/wasnorm_wordpool_576.txt	LTP364	ltpFR2	23	23	MONSTER	912	n/a	n/a	0	0	0
4756.55517578125	n/a	WORD	9741425	wordpools/wasnorm_wordpool_576.txt	LTP364	ltpFR2	23	23	PLIERS	1089	n/a	n/a	0	0	0
4759.22119140625	n/a	WORD	9746885	wordpools/wasnorm_wordpool_576.txt	LTP364	ltpFR2	23	23	KIWI	781	n/a	n/a	0	0	0
4761.76904296875	n/a	WORD	9752103	wordpools/wasnorm_wordpool_576.txt	LTP364	ltpFR2	23	23	COIN	343	n/a	n/a	0	0	0
4764.40185546875	n/a	WORD	9757495	wordpools/wasnorm_wordpool_576.txt	LTP364	ltpFR2	23	23	RECEIPT	1173	n/a	n/a	0	0	0
4766.85009765625	n/a	WORD	9762509	wordpools/wasnorm_wordpool_576.txt	LTP364	ltpFR2	23	23	WOMAN	1620	n/a	n/a	0	0	0
4769.34912109375	n/a	WORD	9767627	wordpools/wasnorm_wordpool_576.txt	LTP364	ltpFR2	23	23	DINER	467	n/a	n/a	0	0	0
4772.14794921875	n/a	WORD	9773359	wordpools/wasnorm_wordpool_576.txt	LTP364	ltpFR2	23	23	KNAPSACK	783	n/a	n/a	0	0	0
4774.796875	n/a	WORD	9778784	wordpools/wasnorm_wordpool_576.txt	LTP364	ltpFR2	23	23	TOOTHPASTE	1483	n/a	n/a	0	0	0
4777.24560546875	n/a	WORD	9783799	wordpools/wasnorm_wordpool_576.txt	LTP364	ltpFR2	23	23	VAMPIRE	1547	n/a	n/a	0	0	0
4779.8447265625	n/a	WORD	9789122	wordpools/wasnorm_wordpool_576.txt	LTP364	ltpFR2	23	23	MONGOOSE	909	n/a	n/a	0	0	0
4782.6103515625	n/a	WORD	9794786	wordpools/wasnorm_wordpool_576.txt	LTP364	ltpFR2	23	23	COOKBOOK	373	n/a	n/a	0	0	0
4785.224609375	n/a	WORD	9800140	wordpools/wasnorm_wordpool_576.txt	LTP364	ltpFR2	23	23	VILLAIN	1567	n/a	n/a	0	0	0
4787.75732421875	n/a	WORD	9805327	wordpools/wasnorm_wordpool_576.txt	LTP364	ltpFR2	23	23	TRANSPLANT	1496	n/a	n/a	0	0	0
4790.55517578125	n/a	WORD	9811057	wordpools/wasnorm_wordpool_576.txt	LTP364	ltpFR2	23	23	FRIEND	606	n/a	n/a	0	0	0
4793.13818359375	n/a	WORD	9816347	wordpools/wasnorm_wordpool_576.txt	LTP364	ltpFR2	23	23	CONVENT	370	n/a	n/a	0	0	0
4795.88623046875	n/a	WORD	9821975	wordpools/wasnorm_wordpool_576.txt	LTP364	ltpFR2	23	23	VICTOR	1563	n/a	n/a	0	0	0
4798.56787109375	n/a	WORD	9827467	wordpools/wasnorm_wordpool_576.txt	LTP364	ltpFR2	23	23	BUSH	202	n/a	n/a	0	0	0
4800.18505859375	n/a	START	9830779	n/a	LTP364	ltpFR2	23	n/a	n/a	n/a	34	n/a	n/a	n/a	n/a
4801.35107421875	n/a	DISTRACTOR	9833167	n/a	LTP364	ltpFR2	23	23	n/a	n/a	n/a	n/a	0	0	0
4801.36669921875	n/a	PROB	9833199	n/a	LTP364	ltpFR2	23	n/a	n/a	n/a	34	15	2	6	7
4805.298828125	n/a	PROB	9841252	n/a	LTP364	ltpFR2	23	n/a	n/a	n/a	34	14	5	5	4
4806.64892578125	n/a	PROB	9844017	n/a	LTP364	ltpFR2	23	n/a	n/a	n/a	34	25	9	7	9
4809.94677734375	n/a	PROB	9850771	n/a	LTP364	ltpFR2	23	n/a	n/a	n/a	34	19	5	7	7
4815.74365234375	n/a	PROB	9862643	n/a	LTP364	ltpFR2	23	n/a	n/a	n/a	34	20	6	7	7
4819.34130859375	n/a	PROB	9870011	n/a	LTP364	ltpFR2	23	n/a	n/a	n/a	34	13	7	1	5
4824.18408203125	n/a	STOP	9879929	n/a	LTP364	ltpFR2	23	n/a	n/a	n/a	34	n/a	n/a	n/a	n/a
4826.05615234375	n/a	REC_START	9883763	n/a	LTP364	ltpFR2	23	23	n/a	n/a	n/a	n/a	0	0	0
4826.78515625	n/a	REC_WORD	9885256	wordpools/wasnorm_wordpool_576.txt	LTP364	ltpFR2	23	23	CONVENT	370	n/a	n/a	0	0	0
4829.47509765625	n/a	REC_WORD	9890765	wordpools/wasnorm_wordpool_576.txt	LTP364	ltpFR2	23	23	WELL	1600	n/a	n/a	0	0	0
4916.47802734375	n/a	DISTRACTOR	10068947	n/a	LTP364	ltpFR2	23	24	n/a	n/a	n/a	n/a	0	0	0
4916.47802734375	n/a	START	10068947	n/a	LTP364	ltpFR2	23	n/a	n/a	n/a	35	n/a	n/a	n/a	n/a
4916.4951171875	n/a	PROB	10068982	n/a	LTP364	ltpFR2	23	n/a	n/a	n/a	35	10	3	4	3
4918.84326171875	n/a	PROB	10073791	n/a	LTP364	ltpFR2	23	n/a	n/a	n/a	35	15	4	9	2
4922.208984375	n/a	PROB	10080684	n/a	LTP364	ltpFR2	23	n/a	n/a	n/a	35	16	9	1	6
4923.72509765625	n/a	PROB	10083789	n/a	LTP364	ltpFR2	23	n/a	n/a	n/a	35	9	4	4	1
4925.77392578125	n/a	PROB	10087985	n/a	LTP364	ltpFR2	23	n/a	n/a	n/a	35	14	6	4	4
4927.505859375	n/a	PROB	10091532	n/a	LTP364	ltpFR2	23	n/a	n/a	n/a	35	10	2	4	4
4929.421875	n/a	PROB	10095456	n/a	LTP364	ltpFR2	23	n/a	n/a	n/a	35	21	5	9	7
4932.720703125	n/a	PROB	10102212	n/a	LTP364	ltpFR2	23	n/a	n/a	n/a	35	13	7	5	1
4940.4775390625	n/a	STOP	10118098	n/a	LTP364	ltpFR2	23	n/a	n/a	n/a	35	n/a	n/a	n/a	n/a
4941.33251953125	n/a	WORD	10119849	wordpools/wasnorm_wordpool_576.txt	LTP364	ltpFR2	23	24	PENCIL	1042	n/a	n/a	0	0	0
4943.8642578125	n/a	WORD	10125034	wordpools/wasnorm_wordpool_576.txt	LTP364	ltpFR2	23	24	THICKET	1455	n/a	n/a	0	0	0
4946.54736328125	n/a	WORD	10130529	wordpools/wasnorm_wordpool_576.txt	LTP364	ltpFR2	23	24	PLATE	1086	n/a	n/a	0	0	0
