mstime	trial_type	stim_file	subject	experiment	session	trial	item_name	item_num	list	answer	test_x	test_y	test_z
0	SESS_START	n/a	LTP384	ltpFR2	6	n/a	n/a	n/a	n/a	n/a	0	0	0
15604	START	n/a	LTP384	ltpFR2	6	n/a	n/a	n/a	-1	n/a	n/a	n/a	n/a
15618	PROB	n/a	LTP384	ltpFR2	6	n/a	n/a	n/a	-1	16	9	6	1
18544	PROB	n/a	LTP384	ltpFR2	6	n/a	n/a	n/a	-1	18	5	6	7
21035	PROB	n/a	LTP384	ltpFR2	6	n/a	n/a	n/a	-1	20	7	9	4
24313	PROB	n/a	LTP384	ltpFR2	6	n/a	n/a	n/a	-1	15	4	7	4
26233	STOP	n/a	LTP384	ltpFR2	6	n/a	n/a	n/a	-1	n/a	n/a	n/a	n/a
57035	DISTRACTOR	n/a	LTP384	ltpFR2	6	1	n/a	n/a	n/a	n/a	0	0	0
57036	START	n/a	LTP384	ltpFR2	6	n/a	n/a	n/a	1	n/a	n/a	n/a	n/a
57052	PROB	n/a	LTP384	ltpFR2	6	n/a	n/a	n/a	1	14	8	3	3
59410	PROB	n/a	LTP384	ltpFR2	6	n/a	n/a	n/a	1	9	5	3	1
60863	PROB	n/a	LTP384	ltpFR2	6	n/a	n/a	n/a	1	13	4	8	1
62786	PROB	n/a	LTP384	ltpFR2	6	n/a	n/a	n/a	1	9	4	4	1
64242	PROB	n/a	LTP384	ltpFR2	6	n/a	n/a	n/a	1	11	1	8	2
65997	PROB	n/a	LTP384	ltpFR2	6	n/a	n/a	n/a	1	17	7	1	9
68806	PROB	n/a	LTP384	ltpFR2	6	n/a	n/a	n/a	1	13	6	5	2
70729	PROB	n/a	LTP384	ltpFR2	6	n/a	n/a	n/a	1	18	7	3	8
72235	PROB	n/a	LTP384	ltpFR2	6	n/a	n/a	n/a	1	13	5	3	5
75111	PROB	n/a	LTP384	ltpFR2	6	n/a	n/a	n/a	1	17	5	9	3
78137	PROB	n/a	LTP384	ltpFR2	6	n/a	n/a	n/a	1	20	2	9	9
79882	STOP	n/a	LTP384	ltpFR2	6	n/a	n/a	n/a	1	n/a	n/a	n/a	n/a
82117	WORD	wordpools/wasnorm_wordpool_576.txt	LTP384	ltpFR2	6	1	SCALLOP	1242	n/a	n/a	0	0	0
84875	WORD	wordpools/wasnorm_wordpool_576.txt	LTP384	ltpFR2	6	1	WINDOW	1611	n/a	n/a	0	0	0
87283	WORD	wordpools/wasnorm_wordpool_576.txt	LTP384	ltpFR2	6	1	CARRIAGE	248	n/a	n/a	0	0	0
89974	WORD	wordpools/wasnorm_wordpool_576.txt	LTP384	ltpFR2	6	1	LUNCH	849	n/a	n/a	0	0	0
92500	WORD	wordpools/wasnorm_wordpool_576.txt	LTP384	ltpFR2	6	1	SANDWICH	1232	n/a	n/a	0	0	0
95159	WORD	wordpools/wasnorm_wordpool_576.txt	LTP384	ltpFR2	6	1	FLASHLIGHT	575	n/a	n/a	0	0	0
97783	WORD	wordpools/wasnorm_wordpool_576.txt	LTP384	ltpFR2	6	1	ZEBRA	1635	n/a	n/a	0	0	0
100443	WORD	wordpools/wasnorm_wordpool_576.txt	LTP384	ltpFR2	6	1	HOOK	715	n/a	n/a	0	0	0
103185	WORD	wordpools/wasnorm_wordpool_576.txt	LTP384	ltpFR2	6	1	SCARF	1246	n/a	n/a	0	0	0
105876	WORD	wordpools/wasnorm_wordpool_576.txt	LTP384	ltpFR2	6	1	BEEF	113	n/a	n/a	0	0	0
108652	WORD	wordpools/wasnorm_wordpool_576.txt	LTP384	ltpFR2	6	1	SPOUSE	1358	n/a	n/a	0	0	0
111244	WORD	wordpools/wasnorm_wordpool_576.txt	LTP384	ltpFR2	6	1	WIFE	1609	n/a	n/a	0	0	0
114037	WORD	wordpools/wasnorm_wordpool_576.txt	LTP384	ltpFR2	6	1	WAITER	1580	n/a	n/a	0	0	0
116744	WORD	wordpools/wasnorm_wordpool_576.txt	LTP384	ltpFR2	6	1	VALLEY	1545	n/a	n/a	0	0	0
119387	WORD	wordpools/wasnorm_wordpool_576.txt	LTP384	ltpFR2	6	1	SUMMIT	1405	n/a	n/a	0	0	0
121844	WORD	wordpools/wasnorm_wordpool_576.txt	LTP384	ltpFR2	6	1	TWIG	1527	n/a	n/a	0	0	0
124353	WORD	wordpools/wasnorm_wordpool_576.txt	LTP384	ltpFR2	6	1	HEADBAND	696	n/a	n/a	0	0	0
127146	WORD	wordpools/wasnorm_wordpool_576.txt	LTP384	ltpFR2	6	1	CURTAIN	427	n/a	n/a	0	0	0
129837	WORD	wordpools/wasnorm_wordpool_576.txt	LTP384	ltpFR2	6	1	IDOL	733	n/a	n/a	0	0	0
132530	WORD	wordpools/wasnorm_wordpool_576.txt	LTP384	ltpFR2	6	1	RABBIT	1152	n/a	n/a	0	0	0
134970	WORD	wordpools/wasnorm_wordpool_576.txt	LTP384	ltpFR2	6	1	SHORTS	1293	n/a	n/a	0	0	0
137613	WORD	wordpools/wasnorm_wordpool_576.txt	LTP384	ltpFR2	6	1	SKILLET	1317	n/a	n/a	0	0	0
140071	WORD	wordpools/wasnorm_wordpool_576.txt	LTP384	ltpFR2	6	1	SPOOL	1356	n/a	n/a	0	0	0
142546	WORD	wordpools/wasnorm_wordpool_576.txt	LTP384	ltpFR2	6	1	DRESS	495	n/a	n/a	0	0	0
144151	START	n/a	LTP384	ltpFR2	6	n/a	n/a	n/a	2	n/a	n/a	n/a	n/a
145080	DISTRACTOR	n/a	LTP384	ltpFR2	6	1	n/a	n/a	n/a	n/a	0	0	0
145087	PROB	n/a	LTP384	ltpFR2	6	n/a	n/a	n/a	2	16	3	8	5
148114	PROB	n/a	LTP384	ltpFR2	6	n/a	n/a	n/a	2	13	7	4	2
150154	PROB	n/a	LTP384	ltpFR2	6	n/a	n/a	n/a	2	13	7	4	2
152928	PROB	n/a	LTP384	ltpFR2	6	n/a	n/a	n/a	2	21	7	9	5
156841	PROB	n/a	LTP384	ltpFR2	6	n/a	n/a	n/a	2	22	7	8	7
159166	PROB	n/a	LTP384	ltpFR2	6	n/a	n/a	n/a	2	16	9	3	4
161774	PROB	n/a	LTP384	ltpFR2	6	n/a	n/a	n/a	2	6	1	1	4
163146	PROB	n/a	LTP384	ltpFR2	6	n/a	n/a	n/a	2	16	8	7	1
168151	STOP	n/a	LTP384	ltpFR2	6	n/a	n/a	n/a	2	n/a	n/a	n/a	n/a
170088	REC_START	n/a	LTP384	ltpFR2	6	1	n/a	n/a	n/a	n/a	0	0	0
170348	REC_WORD	wordpools/wasnorm_wordpool_576.txt	LTP384	ltpFR2	6	1	RABBIT	1152	n/a	n/a	0	0	0
170968	REC_WORD	wordpools/wasnorm_wordpool_576.txt	LTP384	ltpFR2	6	1	SPOOL	1356	n/a	n/a	0	0	0
171917	REC_WORD	wordpools/wasnorm_wordpool_576.txt	LTP384	ltpFR2	6	1	DRESS	495	n/a	n/a	0	0	0
172537	REC_WORD	wordpools/wasnorm_wordpool_576.txt	LTP384	ltpFR2	6	1	SKILLET	1317	n/a	n/a	0	0	0
173428	REC_WORD	wordpools/wasnorm_wordpool_576.txt	LTP384	ltpFR2	6	1	SHORTS	1293	n/a	n/a	0	0	0
177302	REC_WORD	wordpools/wasnorm_wordpool_576.txt	LTP384	ltpFR2	6	1	ZEBRA	1635	n/a	n/a	0	0	0
178236	REC_WORD	wordpools/wasnorm_wordpool_576.txt	LTP384	ltpFR2	6	1	HOOK	715	n/a	n/a	0	0	0
179162	REC_WORD	wordpools/wasnorm_wordpool_576.txt	LTP384	ltpFR2	6	1	SCARF	1246	n/a	n/a	0	0	0
180335	REC_WORD	wordpools/wasnorm_wordpool_576.txt	LTP384	ltpFR2	6	1	SPOUSE	1358	n/a	n/a	0	0	0
181385	REC_WORD	wordpools/wasnorm_wordpool_576.txt	LTP384	ltpFR2	6	1	WIFE	1609	n/a	n/a	0	0	0
182293	REC_WORD	wordpools/wasnorm_wordpool_576.txt	LTP384	ltpFR2	6	1	BEEF	113	n/a	n/a	0	0	0
184000	REC_WORD	wordpools/wasnorm_wordpool_576.txt	LTP384	ltpFR2	6	1	SCALLOP	1242	n/a	n/a	0	0	0
185029	REC_WORD	wordpools/wasnorm_wordpool_576.txt	LTP384	ltpFR2	6	1	WINDOW	1611	n/a	n/a	0	0	0
185968	REC_WORD	wordpools/wasnorm_wordpool_576.txt	LTP384	ltpFR2	6	1	LUNCH	849	n/a	n/a	0	0	0
186832	REC_WORD	wordpools/wasnorm_wordpool_576.txt	LTP384	ltpFR2	6	1	CARRIAGE	248	n/a	n/a	0	0	0
188545	REC_WORD	wordpools/wasnorm_wordpool_576.txt	LTP384	ltpFR2	6	1	SANDWICH	1232	n/a	n/a	0	0	0
189480	REC_WORD	wordpools/wasnorm_wordpool_576.txt	LTP384	ltpFR2	6	1	FLASHLIGHT	575	n/a	n/a	0	0	0
193759	REC_WORD	wordpools/wasnorm_wordpool_576.txt	LTP384	ltpFR2	6	1	SUMMIT	1405	n/a	n/a	0	0	0
194506	REC_WORD	wordpools/wasnorm_wordpool_576.txt	LTP384	ltpFR2	6	1	TWIG	1527	n/a	n/a	0	0	0
195319	REC_WORD	wordpools/wasnorm_wordpool_576.txt	LTP384	ltpFR2	6	1	VALLEY	1545	n/a	n/a	0	0	0
260544	WORD	wordpools/wasnorm_wordpool_576.txt	LTP384	ltpFR2	6	2	COLLEGE	346	n/a	n/a	0	0	0
263220	WORD	wordpools/wasnorm_wordpool_576.txt	LTP384	ltpFR2	6	2	HONEY	713	n/a	n/a	0	0	0
265961	WORD	wordpools/wasnorm_wordpool_576.txt	LTP384	ltpFR2	6	2	CHEST	295	n/a	n/a	0	0	0
268504	WORD	wordpools/wasnorm_wordpool_576.txt	LTP384	ltpFR2	6	2	ROOSTER	1209	n/a	n/a	0	0	0
271279	WORD	wordpools/wasnorm_wordpool_576.txt	LTP384	ltpFR2	6	2	WOMAN	1620	n/a	n/a	0	0	0
273887	WORD	wordpools/wasnorm_wordpool_576.txt	LTP384	ltpFR2	6	2	RAZOR	1171	n/a	n/a	0	0	0
276496	WORD	wordpools/wasnorm_wordpool_576.txt	LTP384	ltpFR2	6	2	FARMER	553	n/a	n/a	0	0	0
279071	WORD	wordpools/wasnorm_wordpool_576.txt	LTP384	ltpFR2	6	2	SADDLE	1221	n/a	n/a	0	0	0
281629	WORD	wordpools/wasnorm_wordpool_576.txt	LTP384	ltpFR2	6	2	OX	994	n/a	n/a	0	0	0
284255	WORD	wordpools/wasnorm_wordpool_576.txt	LTP384	ltpFR2	6	2	LADY	794	n/a	n/a	0	0	0
287030	WORD	wordpools/wasnorm_wordpool_576.txt	LTP384	ltpFR2	6	2	CATTLE	261	n/a	n/a	0	0	0
289488	WORD	wordpools/wasnorm_wordpool_576.txt	LTP384	ltpFR2	6	2	PLIERS	1089	n/a	n/a	0	0	0
292080	WORD	wordpools/wasnorm_wordpool_576.txt	LTP384	ltpFR2	6	2	BRIEFCASE	175	n/a	n/a	0	0	0
294855	WORD	wordpools/wasnorm_wordpool_576.txt	LTP384	ltpFR2	6	2	ATLAS	53	n/a	n/a	0	0	0
297297	WORD	wordpools/wasnorm_wordpool_576.txt	LTP384	ltpFR2	6	2	ATOM	55	n/a	n/a	0	0	0
299787	WORD	wordpools/wasnorm_wordpool_576.txt	LTP384	ltpFR2	6	2	PEANUT	1032	n/a	n/a	0	0	0
302380	WORD	wordpools/wasnorm_wordpool_576.txt	LTP384	ltpFR2	6	2	HANDBAG	684	n/a	n/a	0	0	0
304987	WORD	wordpools/wasnorm_wordpool_576.txt	LTP384	ltpFR2	6	2	TORTOISE	1486	n/a	n/a	0	0	0
307696	WORD	wordpools/wasnorm_wordpool_576.txt	LTP384	ltpFR2	6	2	BUNNY	198	n/a	n/a	0	0	0
310456	WORD	wordpools/wasnorm_wordpool_576.txt	LTP384	ltpFR2	6	2	PIGEON	1065	n/a	n/a	0	0	0
313232	WORD	wordpools/wasnorm_wordpool_576.txt	LTP384	ltpFR2	6	2	CRITIC	410	n/a	n/a	0	0	0
315655	WORD	wordpools/wasnorm_wordpool_576.txt	LTP384	ltpFR2	6	2	FILM	565	n/a	n/a	0	0	0
318248	WORD	wordpools/wasnorm_wordpool_576.txt	LTP384	ltpFR2	6	2	CHAMPAGNE	278	n/a	n/a	0	0	0
320956	WORD	wordpools/wasnorm_wordpool_576.txt	LTP384	ltpFR2	6	2	PERFUME	1049	n/a	n/a	0	0	0
322562	START	n/a	LTP384	ltpFR2	6	n/a	n/a	n/a	3	n/a	n/a	n/a	n/a
323600	DISTRACTOR	n/a	LTP384	ltpFR2	6	2	n/a	n/a	n/a	n/a	0	0	0
323615	PROB	n/a	LTP384	ltpFR2	6	n/a	n/a	n/a	3	17	7	4	6
325755	PROB	n/a	LTP384	ltpFR2	6	n/a	n/a	n/a	3	10	3	4	3
328163	PROB	n/a	LTP384	ltpFR2	6	n/a	n/a	n/a	3	16	4	9	3
330654	PROB	n/a	LTP384	ltpFR2	6	n/a	n/a	n/a	3	22	7	9	6
332844	PROB	n/a	LTP384	ltpFR2	6	n/a	n/a	n/a	3	12	5	2	5
334684	PROB	n/a	LTP384	ltpFR2	6	n/a	n/a	n/a	3	16	6	8	2
336690	PROB	n/a	LTP384	ltpFR2	6	n/a	n/a	n/a	3	16	2	8	6
338713	PROB	n/a	LTP384	ltpFR2	6	n/a	n/a	n/a	3	11	1	8	2
340420	PROB	n/a	LTP384	ltpFR2	6	n/a	n/a	n/a	3	14	4	5	5
346561	STOP	n/a	LTP384	ltpFR2	6	n/a	n/a	n/a	3	n/a	n/a	n/a	n/a
348413	REC_START	n/a	LTP384	ltpFR2	6	2	n/a	n/a	n/a	n/a	0	0	0
349173	REC_WORD	wordpools/wasnorm_wordpool_576.txt	LTP384	ltpFR2	6	2	CRITIC	410	n/a	n/a	0	0	0
349691	REC_WORD	wordpools/wasnorm_wordpool_576.txt	LTP384	ltpFR2	6	2	FILM	565	n/a	n/a	0	0	0
350190	REC_WORD	wordpools/wasnorm_wordpool_576.txt	LTP384	ltpFR2	6	2	CHAMPAGNE	278	n/a	n/a	0	0	0
351095	REC_WORD	wordpools/wasnorm_wordpool_576.txt	LTP384	ltpFR2	6	2	PERFUME	1049	n/a	n/a	0	0	0
352214	REC_WORD	wordpools/wasnorm_wordpool_576.txt	LTP384	ltpFR2	6	2	LADY	794	n/a	n/a	0	0	0
352941	REC_WORD	wordpools/wasnorm_wordpool_576.txt	LTP384	ltpFR2	6	2	WOMAN	1620	n/a	n/a	0	0	0
353690	REC_WORD	wordpools/wasnorm_wordpool_576.txt	LTP384	ltpFR2	6	2	PLIERS	1089	n/a	n/a	0	0	0
354606	REC_WORD	wordpools/wasnorm_wordpool_576.txt	LTP384	ltpFR2	6	2	ROOSTER	1209	n/a	n/a	0	0	0
355430	REC_WORD	wordpools/wasnorm_wordpool_576.txt	LTP384	ltpFR2	6	2	CHEST	295	n/a	n/a	0	0	0
356240	REC_WORD	wordpools/wasnorm_wordpool_576.txt	LTP384	ltpFR2	6	2	HONEY	713	n/a	n/a	0	0	0
357035	REC_WORD	wordpools/wasnorm_wordpool_576.txt	LTP384	ltpFR2	6	2	COLLEGE	346	n/a	n/a	0	0	0
357973	REC_WORD	wordpools/wasnorm_wordpool_576.txt	LTP384	ltpFR2	6	2	CATTLE	261	n/a	n/a	0	0	0
358771	REC_WORD	wordpools/wasnorm_wordpool_576.txt	LTP384	ltpFR2	6	2	SADDLE	1221	n/a	n/a	0	0	0
359666	REC_WORD	wordpools/wasnorm_wordpool_576.txt	LTP384	ltpFR2	6	2	FARMER	553	n/a	n/a	0	0	0
360569	REC_WORD	wordpools/wasnorm_wordpool_576.txt	LTP384	ltpFR2	6	2	RAZOR	1171	n/a	n/a	0	0	0
361898	REC_WORD	wordpools/wasnorm_wordpool_576.txt	LTP384	ltpFR2	6	2	OX	994	n/a	n/a	0	0	0
367371	REC_WORD	wordpools/wasnorm_wordpool_576.txt	LTP384	ltpFR2	6	2	PLIERS	1089	n/a	n/a	0	0	0
370360	REC_WORD	wordpools/wasnorm_wordpool_576.txt	LTP384	ltpFR2	6	2	BRIEFCASE	175	n/a	n/a	0	0	0
372230	REC_WORD	wordpools/wasnorm_wordpool_576.txt	LTP384	ltpFR2	6	2	ATLAS	53	n/a	n/a	0	0	0
373096	REC_WORD	wordpools/wasnorm_wordpool_576.txt	LTP384	ltpFR2	6	2	ATOM	55	n/a	n/a	0	0	0
373858	REC_WORD	wordpools/wasnorm_wordpool_576.txt	LTP384	ltpFR2	6	2	HANDBAG	684	n/a	n/a	0	0	0
374800	REC_WORD	wordpools/wasnorm_wordpool_576.txt	LTP384	ltpFR2	6	2	PEANUT	1032	n/a	n/a	0	0	0
384244	REC_WORD	wordpools/wasnorm_wordpool_576.txt	LTP384	ltpFR2	6	2	BUNNY	198	n/a	n/a	0	0	0
384966	REC_WORD	wordpools/wasnorm_wordpool_576.txt	LTP384	ltpFR2	6	2	TORTOISE	1486	n/a	n/a	0	0	0
385791	REC_WORD	wordpools/wasnorm_wordpool_576.txt	LTP384	ltpFR2	6	2	PIGEON	1065	n/a	n/a	0	0	0
401632	REC_WORD	wordpools/wasnorm_wordpool_576.txt	LTP384	ltpFR2	6	2	RAZOR	1171	n/a	n/a	0	0	0
408663	REC_WORD	wordpools/wasnorm_wordpool_576.txt	LTP384	ltpFR2	6	2	ROOSTER	1209	n/a	n/a	0	0	0
438871	WORD	wordpools/wasnorm_wordpool_576.txt	LTP384	ltpFR2	6	3	WORKER	1621	n/a	n/a	0	0	0
441614	WORD	wordpools/wasnorm_wordpool_576.txt	LTP384	ltpFR2	6	3	PEDAL	1037	n/a	n/a	0	0	0
444206	WORD	wordpools/wasnorm_wordpool_576.txt	LTP384	ltpFR2	6	3	HEDGE	699	n/a	n/a	0	0	0
446947	WORD	wordpools/wasnorm_wordpool_576.txt	LTP384	ltpFR2	6	3	LIPSTICK	829	n/a	n/a	0	0	0
449540	WORD	wordpools/wasnorm_wordpool_576.txt	LTP384	ltpFR2	6	3	OMELET	976	n/a	n/a	0	0	0
452065	WORD	wordpools/wasnorm_wordpool_576.txt	LTP384	ltpFR2	6	3	BACON	67	n/a	n/a	0	0	0
454806	WORD	wordpools/wasnorm_wordpool_576.txt	LTP384	ltpFR2	6	3	CREATURE	403	n/a	n/a	0	0	0
457248	WORD	wordpools/wasnorm_wordpool_576.txt	LTP384	ltpFR2	6	3	COMET	353	n/a	n/a	0	0	0
459872	WORD	wordpools/wasnorm_wordpool_576.txt	LTP384	ltpFR2	6	3	DAUGHTER	442	n/a	n/a	0	0	0
462515	WORD	wordpools/wasnorm_wordpool_576.txt	LTP384	ltpFR2	6	3	CABBAGE	210	n/a	n/a	0	0	0
465174	WORD	wordpools/wasnorm_wordpool_576.txt	LTP384	ltpFR2	6	3	NIGHTGOWN	953	n/a	n/a	0	0	0
467731	WORD	wordpools/wasnorm_wordpool_576.txt	LTP384	ltpFR2	6	3	MATCH	878	n/a	n/a	0	0	0
470307	WORD	wordpools/wasnorm_wordpool_576.txt	LTP384	ltpFR2	6	3	HORSE	719	n/a	n/a	0	0	0
472747	WORD	wordpools/wasnorm_wordpool_576.txt	LTP384	ltpFR2	6	3	DONKEY	484	n/a	n/a	0	0	0
475340	WORD	wordpools/wasnorm_wordpool_576.txt	LTP384	ltpFR2	6	3	KNAPSACK	783	n/a	n/a	0	0	0
477864	WORD	wordpools/wasnorm_wordpool_576.txt	LTP384	ltpFR2	6	3	MOP	916	n/a	n/a	0	0	0
480373	WORD	wordpools/wasnorm_wordpool_576.txt	LTP384	ltpFR2	6	3	HUSBAND	728	n/a	n/a	0	0	0
483032	WORD	wordpools/wasnorm_wordpool_576.txt	LTP384	ltpFR2	6	3	DRESSER	496	n/a	n/a	0	0	0
485623	WORD	wordpools/wasnorm_wordpool_576.txt	LTP384	ltpFR2	6	3	COD	340	n/a	n/a	0	0	0
488148	WORD	wordpools/wasnorm_wordpool_576.txt	LTP384	ltpFR2	6	3	TILE	1468	n/a	n/a	0	0	0
490706	WORD	wordpools/wasnorm_wordpool_576.txt	LTP384	ltpFR2	6	3	AIRPORT	13	n/a	n/a	0	0	0
493164	WORD	wordpools/wasnorm_wordpool_576.txt	LTP384	ltpFR2	6	3	ULCER	1533	n/a	n/a	0	0	0
495623	WORD	wordpools/wasnorm_wordpool_576.txt	LTP384	ltpFR2	6	3	OINTMENT	974	n/a	n/a	0	0	0
498432	WORD	wordpools/wasnorm_wordpool_576.txt	LTP384	ltpFR2	6	3	PILOT	1070	n/a	n/a	0	0	0
500037	START	n/a	LTP384	ltpFR2	6	n/a	n/a	n/a	4	n/a	n/a	n/a	n/a
500896	DISTRACTOR	n/a	LTP384	ltpFR2	6	3	n/a	n/a	n/a	n/a	0	0	0
500905	PROB	n/a	LTP384	ltpFR2	6	n/a	n/a	n/a	4	14	7	1	6
503331	PROB	n/a	LTP384	ltpFR2	6	n/a	n/a	n/a	4	21	9	7	5
506224	PROB	n/a	LTP384	ltpFR2	6	n/a	n/a	n/a	4	11	3	6	2
509635	PROB	n/a	LTP384	ltpFR2	6	n/a	n/a	n/a	4	17	6	4	7
513713	PROB	n/a	LTP384	ltpFR2	6	n/a	n/a	n/a	4	10	5	2	3
515787	PROB	n/a	LTP384	ltpFR2	6	n/a	n/a	n/a	4	14	3	7	4
517410	PROB	n/a	LTP384	ltpFR2	6	n/a	n/a	n/a	4	13	5	3	5
519232	PROB	n/a	LTP384	ltpFR2	6	n/a	n/a	n/a	4	20	5	9	8
524036	STOP	n/a	LTP384	ltpFR2	6	n/a	n/a	n/a	4	n/a	n/a	n/a	n/a
525920	REC_START	n/a	LTP384	ltpFR2	6	3	n/a	n/a	n/a	n/a	0	0	0
526580	REC_WORD	wordpools/wasnorm_wordpool_576.txt	LTP384	ltpFR2	6	3	PILOT	1070	n/a	n/a	0	0	0
527365	REC_WORD	wordpools/wasnorm_wordpool_576.txt	LTP384	ltpFR2	6	3	AIRPORT	13	n/a	n/a	0	0	0
528190	REC_WORD	wordpools/wasnorm_wordpool_576.txt	LTP384	ltpFR2	6	3	TILE	1468	n/a	n/a	0	0	0
529069	REC_WORD	wordpools/wasnorm_wordpool_576.txt	LTP384	ltpFR2	6	3	ULCER	1533	n/a	n/a	0	0	0
530413	REC_WORD	wordpools/wasnorm_wordpool_576.txt	LTP384	ltpFR2	6	3	OINTMENT	974	n/a	n/a	0	0	0
532212	REC_WORD	wordpools/wasnorm_wordpool_576.txt	LTP384	ltpFR2	6	3	OMELET	976	n/a	n/a	0	0	0
533127	REC_WORD	wordpools/wasnorm_wordpool_576.txt	LTP384	ltpFR2	6	3	BACON	67	n/a	n/a	0	0	0
536612	REC_WORD	wordpools/wasnorm_wordpool_576.txt	LTP384	ltpFR2	6	3	COD	340	n/a	n/a	0	0	0
557873	REC_WORD	wordpools/wasnorm_wordpool_576.txt	LTP384	ltpFR2	6	3	WORKER	1621	n/a	n/a	0	0	0
581270	REC_WORD	wordpools/wasnorm_wordpool_576.txt	LTP384	ltpFR2	6	3	MATCH	878	n/a	n/a	0	0	0
591191	REC_WORD	wordpools/wasnorm_wordpool_576.txt	LTP384	ltpFR2	6	3	LIPSTICK	829	n/a	n/a	0	0	0
616364	DISTRACTOR	n/a	LTP384	ltpFR2	6	4	n/a	n/a	n/a	n/a	0	0	0
616364	START	n/a	LTP384	ltpFR2	6	n/a	n/a	n/a	5	n/a	n/a	n/a	n/a
616380	PROB	n/a	LTP384	ltpFR2	6	n/a	n/a	n/a	5	9	3	1	5
618487	PROB	n/a	LTP384	ltpFR2	6	n/a	n/a	n/a	5	16	7	1	8
621029	PROB	n/a	LTP384	ltpFR2	6	n/a	n/a	n/a	5	18	7	5	6
629606	PROB	n/a	LTP384	ltpFR2	6	n/a	n/a	n/a	5	18	1	8	9
631712	PROB	n/a	LTP384	ltpFR2	6	n/a	n/a	n/a	5	21	7	9	5
635542	PROB	n/a	LTP384	ltpFR2	6	n/a	n/a	n/a	5	9	5	1	3
640364	STOP	n/a	LTP384	ltpFR2	6	n/a	n/a	n/a	5	n/a	n/a	n/a	n/a
641495	WORD	wordpools/wasnorm_wordpool_576.txt	LTP384	ltpFR2	6	4	TURNIP	1521	n/a	n/a	0	0	0
644287	WORD	wordpools/wasnorm_wordpool_576.txt	LTP384	ltpFR2	6	4	LILY	821	n/a	n/a	0	0	0
646895	WORD	wordpools/wasnorm_wordpool_576.txt	LTP384	ltpFR2	6	4	COCOON	339	n/a	n/a	0	0	0
649504	WORD	wordpools/wasnorm_wordpool_576.txt	LTP384	ltpFR2	6	4	SHIRT	1287	n/a	n/a	0	0	0
652313	WORD	wordpools/wasnorm_wordpool_576.txt	LTP384	ltpFR2	6	4	UMPIRE	1535	n/a	n/a	0	0	0
655056	WORD	wordpools/wasnorm_wordpool_576.txt	LTP384	ltpFR2	6	4	FOOTBALL	591	n/a	n/a	0	0	0
657631	WORD	wordpools/wasnorm_wordpool_576.txt	LTP384	ltpFR2	6	4	BUG	187	n/a	n/a	0	0	0
660206	WORD	wordpools/wasnorm_wordpool_576.txt	LTP384	ltpFR2	6	4	ROCKET	1202	n/a	n/a	0	0	0
662930	WORD	wordpools/wasnorm_wordpool_576.txt	LTP384	ltpFR2	6	4	CLOCK	325	n/a	n/a	0	0	0
665523	WORD	wordpools/wasnorm_wordpool_576.txt	LTP384	ltpFR2	6	4	SPHINX	1349	n/a	n/a	0	0	0
668232	WORD	wordpools/wasnorm_wordpool_576.txt	LTP384	ltpFR2	6	4	FIREPLACE	570	n/a	n/a	0	0	0
670689	WORD	wordpools/wasnorm_wordpool_576.txt	LTP384	ltpFR2	6	4	DRAGON	492	n/a	n/a	0	0	0
673448	WORD	wordpools/wasnorm_wordpool_576.txt	LTP384	ltpFR2	6	4	PLUTO	1092	n/a	n/a	0	0	0
675922	WORD	wordpools/wasnorm_wordpool_576.txt	LTP384	ltpFR2	6	4	SEAL	1262	n/a	n/a	0	0	0
678498	WORD	wordpools/wasnorm_wordpool_576.txt	LTP384	ltpFR2	6	4	WORLD	1622	n/a	n/a	0	0	0
681123	WORD	wordpools/wasnorm_wordpool_576.txt	LTP384	ltpFR2	6	4	RECEIPT	1173	n/a	n/a	0	0	0
683648	WORD	wordpools/wasnorm_wordpool_576.txt	LTP384	ltpFR2	6	4	PARENT	1013	n/a	n/a	0	0	0
686290	WORD	wordpools/wasnorm_wordpool_576.txt	LTP384	ltpFR2	6	4	DENIM	446	n/a	n/a	0	0	0
688847	WORD	wordpools/wasnorm_wordpool_576.txt	LTP384	ltpFR2	6	4	CAPTIVE	240	n/a	n/a	0	0	0
691457	WORD	wordpools/wasnorm_wordpool_576.txt	LTP384	ltpFR2	6	4	XEROX	1628	n/a	n/a	0	0	0
694082	WORD	wordpools/wasnorm_wordpool_576.txt	LTP384	ltpFR2	6	4	MISSILE	900	n/a	n/a	0	0	0
696873	WORD	wordpools/wasnorm_wordpool_576.txt	LTP384	ltpFR2	6	4	SHELTER	1282	n/a	n/a	0	0	0
699449	WORD	wordpools/wasnorm_wordpool_576.txt	LTP384	ltpFR2	6	4	SERVER	1272	n/a	n/a	0	0	0
701856	WORD	wordpools/wasnorm_wordpool_576.txt	LTP384	ltpFR2	6	4	KEEPER	769	n/a	n/a	0	0	0
703463	START	n/a	LTP384	ltpFR2	6	n/a	n/a	n/a	6	n/a	n/a	n/a	n/a
704397	DISTRACTOR	n/a	LTP384	ltpFR2	6	4	n/a	n/a	n/a	n/a	0	0	0
704399	PROB	n/a	LTP384	ltpFR2	6	n/a	n/a	n/a	6	13	1	6	6
706472	PROB	n/a	LTP384	ltpFR2	6	n/a	n/a	n/a	6	13	2	2	9
708996	PROB	n/a	LTP384	ltpFR2	6	n/a	n/a	n/a	6	11	8	1	2
710785	PROB	n/a	LTP384	ltpFR2	6	n/a	n/a	n/a	6	14	4	7	3
714197	PROB	n/a	LTP384	ltpFR2	6	n/a	n/a	n/a	6	18	5	5	8
715667	PROB	n/a	LTP384	ltpFR2	6	n/a	n/a	n/a	6	17	4	6	7
717223	PROB	n/a	LTP384	ltpFR2	6	n/a	n/a	n/a	6	16	4	6	6
719197	PROB	n/a	LTP384	ltpFR2	6	n/a	n/a	n/a	6	10	1	8	1
720851	PROB	n/a	LTP384	ltpFR2	6	n/a	n/a	n/a	6	18	1	9	8
722457	PROB	n/a	LTP384	ltpFR2	6	n/a	n/a	n/a	6	19	6	4	9
723944	PROB	n/a	LTP384	ltpFR2	6	n/a	n/a	n/a	6	19	2	9	8
726054	STOP	n/a	LTP384	ltpFR2	6	n/a	n/a	n/a	6	n/a	n/a	n/a	n/a
729246	REC_START	n/a	LTP384	ltpFR2	6	4	n/a	n/a	n/a	n/a	0	0	0
729918	REC_WORD	wordpools/wasnorm_wordpool_576.txt	LTP384	ltpFR2	6	4	LILY	821	n/a	n/a	0	0	0
731301	REC_WORD	wordpools/wasnorm_wordpool_576.txt	LTP384	ltpFR2	6	4	MISSILE	900	n/a	n/a	0	0	0
732300	REC_WORD	wordpools/wasnorm_wordpool_576.txt	LTP384	ltpFR2	6	4	ROCKET	1202	n/a	n/a	0	0	0
733975	REC_WORD	wordpools/wasnorm_wordpool_576.txt	LTP384	ltpFR2	6	4	TURNIP	1521	n/a	n/a	0	0	0
735010	REC_WORD	wordpools/wasnorm_wordpool_576.txt	LTP384	ltpFR2	6	4	COCOON	339	n/a	n/a	0	0	0
736101	REC_WORD	wordpools/wasnorm_wordpool_576.txt	LTP384	ltpFR2	6	4	SHIRT	1287	n/a	n/a	0	0	0
737210	REC_WORD	wordpools/wasnorm_wordpool_576.txt	LTP384	ltpFR2	6	4	UMPIRE	1535	n/a	n/a	0	0	0
738279	REC_WORD	wordpools/wasnorm_wordpool_576.txt	LTP384	ltpFR2	6	4	BUG	187	n/a	n/a	0	0	0
739864	REC_WORD	wordpools/wasnorm_wordpool_576.txt	LTP384	ltpFR2	6	4	PLUTO	1092	n/a	n/a	0	0	0
741268	REC_WORD	wordpools/wasnorm_wordpool_576.txt	LTP384	ltpFR2	6	4	CLOCK	325	n/a	n/a	0	0	0
744083	REC_WORD	wordpools/wasnorm_wordpool_576.txt	LTP384	ltpFR2	6	4	RECEIPT	1173	n/a	n/a	0	0	0
745312	REC_WORD	wordpools/wasnorm_wordpool_576.txt	LTP384	ltpFR2	6	4	WORLD	1622	n/a	n/a	0	0	0
747229	REC_WORD	wordpools/wasnorm_wordpool_576.txt	LTP384	ltpFR2	6	4	SHELTER	1282	n/a	n/a	0	0	0
748275	REC_WORD	wordpools/wasnorm_wordpool_576.txt	LTP384	ltpFR2	6	4	XEROX	1628	n/a	n/a	0	0	0
749359	REC_WORD	wordpools/wasnorm_wordpool_576.txt	LTP384	ltpFR2	6	4	CAPTIVE	240	n/a	n/a	0	0	0
750486	REC_WORD	wordpools/wasnorm_wordpool_576.txt	LTP384	ltpFR2	6	4	KEEPER	769	n/a	n/a	0	0	0
753374	REC_WORD	wordpools/wasnorm_wordpool_576.txt	LTP384	ltpFR2	6	4	PARENT	1013	n/a	n/a	0	0	0
754564	REC_WORD	wordpools/wasnorm_wordpool_576.txt	LTP384	ltpFR2	6	4	DENIM	446	n/a	n/a	0	0	0
781335	REC_WORD	wordpools/wasnorm_wordpool_576.txt	LTP384	ltpFR2	6	4	FOOTBALL	591	n/a	n/a	0	0	0
819688	DISTRACTOR	n/a	LTP384	ltpFR2	6	5	n/a	n/a	n/a	n/a	0	0	0
819688	START	n/a	LTP384	ltpFR2	6	n/a	n/a	n/a	7	n/a	n/a	n/a	n/a
819704	PROB	n/a	LTP384	ltpFR2	6	n/a	n/a	n/a	7	8	3	3	2
822147	PROB	n/a	LTP384	ltpFR2	6	n/a	n/a	n/a	7	6	2	1	3
825157	PROB	n/a	LTP384	ltpFR2	6	n/a	n/a	n/a	7	11	5	5	1
826928	PROB	n/a	LTP384	ltpFR2	6	n/a	n/a	n/a	7	7	5	1	1
828918	PROB	n/a	LTP384	ltpFR2	6	n/a	n/a	n/a	7	18	9	7	2
831427	PROB	n/a	LTP384	ltpFR2	6	n/a	n/a	n/a	7	21	9	3	9
833700	PROB	n/a	LTP384	ltpFR2	6	n/a	n/a	n/a	7	12	6	5	1
835640	PROB	n/a	LTP384	ltpFR2	6	n/a	n/a	n/a	7	23	7	7	9
837980	PROB	n/a	LTP384	ltpFR2	6	n/a	n/a	n/a	7	18	4	5	9
839886	PROB	n/a	LTP384	ltpFR2	6	n/a	n/a	n/a	7	22	9	7	6
842506	STOP	n/a	LTP384	ltpFR2	6	n/a	n/a	n/a	7	n/a	n/a	n/a	n/a
844669	WORD	wordpools/wasnorm_wordpool_576.txt	LTP384	ltpFR2	6	5	MASK	876	n/a	n/a	0	0	0
847378	WORD	wordpools/wasnorm_wordpool_576.txt	LTP384	ltpFR2	6	5	HOOD	714	n/a	n/a	0	0	0
849835	WORD	wordpools/wasnorm_wordpool_576.txt	LTP384	ltpFR2	6	5	VALVE	1546	n/a	n/a	0	0	0
852645	WORD	wordpools/wasnorm_wordpool_576.txt	LTP384	ltpFR2	6	5	SEAGULL	1261	n/a	n/a	0	0	0
855103	WORD	wordpools/wasnorm_wordpool_576.txt	LTP384	ltpFR2	6	5	ASIA	46	n/a	n/a	0	0	0
857628	WORD	wordpools/wasnorm_wordpool_576.txt	LTP384	ltpFR2	6	5	PIMPLE	1071	n/a	n/a	0	0	0
860337	WORD	wordpools/wasnorm_wordpool_576.txt	LTP384	ltpFR2	6	5	DOLPHIN	483	n/a	n/a	0	0	0
862777	WORD	wordpools/wasnorm_wordpool_576.txt	LTP384	ltpFR2	6	5	PANTHER	1009	n/a	n/a	0	0	0
865203	WORD	wordpools/wasnorm_wordpool_576.txt	LTP384	ltpFR2	6	5	PUPPY	1144	n/a	n/a	0	0	0
867777	WORD	wordpools/wasnorm_wordpool_576.txt	LTP384	ltpFR2	6	5	MARKET	871	n/a	n/a	0	0	0
870470	WORD	wordpools/wasnorm_wordpool_576.txt	LTP384	ltpFR2	6	5	ROBIN	1199	n/a	n/a	0	0	0
872960	WORD	wordpools/wasnorm_wordpool_576.txt	LTP384	ltpFR2	6	5	COBRA	336	n/a	n/a	0	0	0
875436	WORD	wordpools/wasnorm_wordpool_576.txt	LTP384	ltpFR2	6	5	LIZARD	834	n/a	n/a	0	0	0
878212	WORD	wordpools/wasnorm_wordpool_576.txt	LTP384	ltpFR2	6	5	TOMBSTONE	1478	n/a	n/a	0	0	0
880886	WORD	wordpools/wasnorm_wordpool_576.txt	LTP384	ltpFR2	6	5	EMPIRE	530	n/a	n/a	0	0	0
883445	WORD	wordpools/wasnorm_wordpool_576.txt	LTP384	ltpFR2	6	5	PUPIL	1143	n/a	n/a	0	0	0
885902	WORD	wordpools/wasnorm_wordpool_576.txt	LTP384	ltpFR2	6	5	DRUG	501	n/a	n/a	0	0	0
888545	WORD	wordpools/wasnorm_wordpool_576.txt	LTP384	ltpFR2	6	5	WIDOW	1608	n/a	n/a	0	0	0
891220	WORD	wordpools/wasnorm_wordpool_576.txt	LTP384	ltpFR2	6	5	PUDDLE	1140	n/a	n/a	0	0	0
893811	WORD	wordpools/wasnorm_wordpool_576.txt	LTP384	ltpFR2	6	5	PLASTER	1085	n/a	n/a	0	0	0
896320	WORD	wordpools/wasnorm_wordpool_576.txt	LTP384	ltpFR2	6	5	SALAD	1224	n/a	n/a	0	0	0
899113	WORD	wordpools/wasnorm_wordpool_576.txt	LTP384	ltpFR2	6	5	BLADE	134	n/a	n/a	0	0	0
901754	WORD	wordpools/wasnorm_wordpool_576.txt	LTP384	ltpFR2	6	5	MEAT	883	n/a	n/a	0	0	0
904313	WORD	wordpools/wasnorm_wordpool_576.txt	LTP384	ltpFR2	6	5	RADISH	1158	n/a	n/a	0	0	0
905917	START	n/a	LTP384	ltpFR2	6	n/a	n/a	n/a	8	n/a	n/a	n/a	n/a
907052	DISTRACTOR	n/a	LTP384	ltpFR2	6	5	n/a	n/a	n/a	n/a	0	0	0
907055	PROB	n/a	LTP384	ltpFR2	6	n/a	n/a	n/a	8	10	2	1	7
909446	PROB	n/a	LTP384	ltpFR2	6	n/a	n/a	n/a	8	22	9	5	8
911536	PROB	n/a	LTP384	ltpFR2	6	n/a	n/a	n/a	8	14	2	4	8
913943	PROB	n/a	LTP384	ltpFR2	6	n/a	n/a	n/a	8	15	3	3	9
917205	PROB	n/a	LTP384	ltpFR2	6	n/a	n/a	n/a	8	16	8	7	1
919678	PROB	n/a	LTP384	ltpFR2	6	n/a	n/a	n/a	8	19	5	6	8
921802	PROB	n/a	LTP384	ltpFR2	6	n/a	n/a	n/a	8	18	9	3	6
924445	PROB	n/a	LTP384	ltpFR2	6	n/a	n/a	n/a	8	13	6	1	6
926668	PROB	n/a	LTP384	ltpFR2	6	n/a	n/a	n/a	8	7	3	3	1
929916	STOP	n/a	LTP384	ltpFR2	6	n/a	n/a	n/a	8	n/a	n/a	n/a	n/a
931701	REC_START	n/a	LTP384	ltpFR2	6	5	n/a	n/a	n/a	n/a	0	0	0
932351	REC_WORD	wordpools/wasnorm_wordpool_576.txt	LTP384	ltpFR2	6	5	BLADE	134	n/a	n/a	0	0	0
933329	REC_WORD	wordpools/wasnorm_wordpool_576.txt	LTP384	ltpFR2	6	5	WIDOW	1608	n/a	n/a	0	0	0
934188	REC_WORD	wordpools/wasnorm_wordpool_576.txt	LTP384	ltpFR2	6	5	TOMBSTONE	1478	n/a	n/a	0	0	0
935160	REC_WORD	wordpools/wasnorm_wordpool_576.txt	LTP384	ltpFR2	6	5	COBRA	336	n/a	n/a	0	0	0
936158	REC_WORD	wordpools/wasnorm_wordpool_576.txt	LTP384	ltpFR2	6	5	LIZARD	834	n/a	n/a	0	0	0
937132	REC_WORD	wordpools/wasnorm_wordpool_576.txt	LTP384	ltpFR2	6	5	PANTHER	1009	n/a	n/a	0	0	0
938875	REC_WORD	wordpools/wasnorm_wordpool_576.txt	LTP384	ltpFR2	6	5	EMPIRE	530	n/a	n/a	0	0	0
939761	REC_WORD	wordpools/wasnorm_wordpool_576.txt	LTP384	ltpFR2	6	5	PUDDLE	1140	n/a	n/a	0	0	0
940795	REC_WORD	wordpools/wasnorm_wordpool_576.txt	LTP384	ltpFR2	6	5	DRUG	501	n/a	n/a	0	0	0
942823	REC_WORD	wordpools/wasnorm_wordpool_576.txt	LTP384	ltpFR2	6	5	PLASTER	1085	n/a	n/a	0	0	0
943790	REC_WORD	wordpools/wasnorm_wordpool_576.txt	LTP384	ltpFR2	6	5	SALAD	1224	n/a	n/a	0	0	0
944893	REC_WORD	wordpools/wasnorm_wordpool_576.txt	LTP384	ltpFR2	6	5	RADISH	1158	n/a	n/a	0	0	0
945843	REC_WORD	wordpools/wasnorm_wordpool_576.txt	LTP384	ltpFR2	6	5	PANTHER	1009	n/a	n/a	0	0	0
963175	REC_WORD	wordpools/wasnorm_wordpool_576.txt	LTP384	ltpFR2	6	5	BOX	159	n/a	n/a	0	0	0
969329	REC_WORD	wordpools/wasnorm_wordpool_576.txt	LTP384	ltpFR2	6	5	MEAT	883	n/a	n/a	0	0	0
987660	REC_WORD	wordpools/wasnorm_wordpool_576.txt	LTP384	ltpFR2	6	5	PUPIL	1143	n/a	n/a	0	0	0
990229	REC_WORD	wordpools/wasnorm_wordpool_576.txt	LTP384	ltpFR2	6	5	EMPIRE	530	n/a	n/a	0	0	0
1022161	DISTRACTOR	n/a	LTP384	ltpFR2	6	6	n/a	n/a	n/a	n/a	0	0	0
1022161	START	n/a	LTP384	ltpFR2	6	n/a	n/a	n/a	9	n/a	n/a	n/a	n/a
1022178	PROB	n/a	LTP384	ltpFR2	6	n/a	n/a	n/a	9	13	7	1	5
1025221	PROB	n/a	LTP384	ltpFR2	6	n/a	n/a	n/a	9	10	2	3	5
1027845	PROB	n/a	LTP384	ltpFR2	6	n/a	n/a	n/a	9	10	3	5	2
1029552	PROB	n/a	LTP384	ltpFR2	6	n/a	n/a	n/a	9	17	5	7	5
1031475	PROB	n/a	LTP384	ltpFR2	6	n/a	n/a	n/a	9	15	4	3	8
1034384	PROB	n/a	LTP384	ltpFR2	6	n/a	n/a	n/a	9	13	5	4	4
1037026	PROB	n/a	LTP384	ltpFR2	6	n/a	n/a	n/a	9	12	4	3	5
1039584	PROB	n/a	LTP384	ltpFR2	6	n/a	n/a	n/a	9	17	9	6	2
1042443	PROB	n/a	LTP384	ltpFR2	6	n/a	n/a	n/a	9	17	6	8	3
1044783	STOP	n/a	LTP384	ltpFR2	6	n/a	n/a	n/a	9	n/a	n/a	n/a	n/a
1047359	WORD	wordpools/wasnorm_wordpool_576.txt	LTP384	ltpFR2	6	6	BRANCH	168	n/a	n/a	0	0	0
1049850	WORD	wordpools/wasnorm_wordpool_576.txt	LTP384	ltpFR2	6	6	CAFE	216	n/a	n/a	0	0	0
1052459	WORD	wordpools/wasnorm_wordpool_576.txt	LTP384	ltpFR2	6	6	COOKBOOK	373	n/a	n/a	0	0	0
1055135	WORD	wordpools/wasnorm_wordpool_576.txt	LTP384	ltpFR2	6	6	PLAZA	1088	n/a	n/a	0	0	0
1057559	WORD	wordpools/wasnorm_wordpool_576.txt	LTP384	ltpFR2	6	6	COFFEE	341	n/a	n/a	0	0	0
1060034	WORD	wordpools/wasnorm_wordpool_576.txt	LTP384	ltpFR2	6	6	GLASS	639	n/a	n/a	0	0	0
1062475	WORD	wordpools/wasnorm_wordpool_576.txt	LTP384	ltpFR2	6	6	PARTNER	1017	n/a	n/a	0	0	0
1064965	WORD	wordpools/wasnorm_wordpool_576.txt	LTP384	ltpFR2	6	6	SALMON	1227	n/a	n/a	0	0	0
1067508	WORD	wordpools/wasnorm_wordpool_576.txt	LTP384	ltpFR2	6	6	NECKLACE	940	n/a	n/a	0	0	0
1070167	WORD	wordpools/wasnorm_wordpool_576.txt	LTP384	ltpFR2	6	6	PADDING	999	n/a	n/a	0	0	0
1072808	WORD	wordpools/wasnorm_wordpool_576.txt	LTP384	ltpFR2	6	6	GROUND	666	n/a	n/a	0	0	0
1075584	WORD	wordpools/wasnorm_wordpool_576.txt	LTP384	ltpFR2	6	6	RUST	1219	n/a	n/a	0	0	0
1078142	WORD	wordpools/wasnorm_wordpool_576.txt	LTP384	ltpFR2	6	6	UNCLE	1536	n/a	n/a	0	0	0
1080733	WORD	wordpools/wasnorm_wordpool_576.txt	LTP384	ltpFR2	6	6	BLACKBOARD	133	n/a	n/a	0	0	0
1083209	WORD	wordpools/wasnorm_wordpool_576.txt	LTP384	ltpFR2	6	6	LEADER	807	n/a	n/a	0	0	0
1085816	WORD	wordpools/wasnorm_wordpool_576.txt	LTP384	ltpFR2	6	6	POET	1095	n/a	n/a	0	0	0
1088509	WORD	wordpools/wasnorm_wordpool_576.txt	LTP384	ltpFR2	6	6	TOASTER	1472	n/a	n/a	0	0	0
1091235	WORD	wordpools/wasnorm_wordpool_576.txt	LTP384	ltpFR2	6	6	BOARD	143	n/a	n/a	0	0	0
1093725	WORD	wordpools/wasnorm_wordpool_576.txt	LTP384	ltpFR2	6	6	PATIENT	1024	n/a	n/a	0	0	0
1096285	WORD	wordpools/wasnorm_wordpool_576.txt	LTP384	ltpFR2	6	6	DRIVER	499	n/a	n/a	0	0	0
1098792	WORD	wordpools/wasnorm_wordpool_576.txt	LTP384	ltpFR2	6	6	WAGON	1578	n/a	n/a	0	0	0
1101435	WORD	wordpools/wasnorm_wordpool_576.txt	LTP384	ltpFR2	6	6	COUSIN	392	n/a	n/a	0	0	0
1104193	WORD	wordpools/wasnorm_wordpool_576.txt	LTP384	ltpFR2	6	6	MAPLE	866	n/a	n/a	0	0	0
1106834	WORD	wordpools/wasnorm_wordpool_576.txt	LTP384	ltpFR2	6	6	TRANSPLANT	1496	n/a	n/a	0	0	0
1108441	START	n/a	LTP384	ltpFR2	6	n/a	n/a	n/a	10	n/a	n/a	n/a	n/a
1109521	DISTRACTOR	n/a	LTP384	ltpFR2	6	6	n/a	n/a	n/a	n/a	0	0	0
1109527	PROB	n/a	LTP384	ltpFR2	6	n/a	n/a	n/a	10	19	5	7	7
1111800	PROB	n/a	LTP384	ltpFR2	6	n/a	n/a	n/a	10	22	8	8	6
1114076	PROB	n/a	LTP384	ltpFR2	6	n/a	n/a	n/a	10	8	4	1	3
1116333	PROB	n/a	LTP384	ltpFR2	6	n/a	n/a	n/a	10	16	9	5	2
1119359	PROB	n/a	LTP384	ltpFR2	6	n/a	n/a	n/a	10	13	9	1	3
1121299	PROB	n/a	LTP384	ltpFR2	6	n/a	n/a	n/a	10	10	6	3	1
1123689	PROB	n/a	LTP384	ltpFR2	6	n/a	n/a	n/a	10	14	6	6	2
1125879	PROB	n/a	LTP384	ltpFR2	6	n/a	n/a	n/a	10	12	5	3	4
1128689	PROB	n/a	LTP384	ltpFR2	6	n/a	n/a	n/a	10	10	3	6	1
1130898	STOP	n/a	LTP384	ltpFR2	6	n/a	n/a	n/a	10	n/a	n/a	n/a	n/a
1134275	REC_START	n/a	LTP384	ltpFR2	6	6	n/a	n/a	n/a	n/a	0	0	0
1136401	REC_WORD	wordpools/wasnorm_wordpool_576.txt	LTP384	ltpFR2	6	6	BRANCH	168	n/a	n/a	0	0	0
1137228	REC_WORD	wordpools/wasnorm_wordpool_576.txt	LTP384	ltpFR2	6	6	CAFE	216	n/a	n/a	0	0	0
1138154	REC_WORD	wordpools/wasnorm_wordpool_576.txt	LTP384	ltpFR2	6	6	COOKBOOK	373	n/a	n/a	0	0	0
1142681	REC_WORD	wordpools/wasnorm_wordpool_576.txt	LTP384	ltpFR2	6	6	COUSIN	392	n/a	n/a	0	0	0
1143447	REC_WORD	wordpools/wasnorm_wordpool_576.txt	LTP384	ltpFR2	6	6	WAGON	1578	n/a	n/a	0	0	0
1144595	REC_WORD	wordpools/wasnorm_wordpool_576.txt	LTP384	ltpFR2	6	6	DRIVER	499	n/a	n/a	0	0	0
1148523	REC_WORD	wordpools/wasnorm_wordpool_576.txt	LTP384	ltpFR2	6	6	MAPLE	866	n/a	n/a	0	0	0
1149386	REC_WORD	wordpools/wasnorm_wordpool_576.txt	LTP384	ltpFR2	6	6	TRANSPLANT	1496	n/a	n/a	0	0	0
1166679	REC_WORD	wordpools/wasnorm_wordpool_576.txt	LTP384	ltpFR2	6	6	RUG	1215	n/a	n/a	0	0	0
1170425	REC_WORD	wordpools/wasnorm_wordpool_576.txt	LTP384	ltpFR2	6	6	BLACKBOARD	133	n/a	n/a	0	0	0
1171743	REC_WORD	wordpools/wasnorm_wordpool_576.txt	LTP384	ltpFR2	6	6	BOARD	143	n/a	n/a	0	0	0
1176229	REC_WORD	wordpools/wasnorm_wordpool_576.txt	LTP384	ltpFR2	6	6	NURSE	963	n/a	n/a	0	0	0
1177238	REC_WORD	wordpools/wasnorm_wordpool_576.txt	LTP384	ltpFR2	6	6	PATIENT	1024	n/a	n/a	0	0	0
1224716	DISTRACTOR	n/a	LTP384	ltpFR2	6	7	n/a	n/a	n/a	n/a	0	0	0
1224716	START	n/a	LTP384	ltpFR2	6	n/a	n/a	n/a	11	n/a	n/a	n/a	n/a
1224733	PROB	n/a	LTP384	ltpFR2	6	n/a	n/a	n/a	11	22	9	4	9
1227092	PROB	n/a	LTP384	ltpFR2	6	n/a	n/a	n/a	11	16	9	4	3
1229699	PROB	n/a	LTP384	ltpFR2	6	n/a	n/a	n/a	11	9	1	3	5
1231640	PROB	n/a	LTP384	ltpFR2	6	n/a	n/a	n/a	11	10	4	3	3
1234482	PROB	n/a	LTP384	ltpFR2	6	n/a	n/a	n/a	11	14	8	1	5
1236539	PROB	n/a	LTP384	ltpFR2	6	n/a	n/a	n/a	11	17	7	5	5
1238495	PROB	n/a	LTP384	ltpFR2	6	n/a	n/a	n/a	11	14	8	4	2
1240151	PROB	n/a	LTP384	ltpFR2	6	n/a	n/a	n/a	11	12	6	3	3
1242157	PROB	n/a	LTP384	ltpFR2	6	n/a	n/a	n/a	11	15	1	8	6
1245635	PROB	n/a	LTP384	ltpFR2	6	n/a	n/a	n/a	11	18	2	9	7
1248286	STOP	n/a	LTP384	ltpFR2	6	n/a	n/a	n/a	11	n/a	n/a	n/a	n/a
1249664	WORD	wordpools/wasnorm_wordpool_576.txt	LTP384	ltpFR2	6	7	PECAN	1036	n/a	n/a	0	0	0
1252190	WORD	wordpools/wasnorm_wordpool_576.txt	LTP384	ltpFR2	6	7	ITEM	746	n/a	n/a	0	0	0
1254680	WORD	wordpools/wasnorm_wordpool_576.txt	LTP384	ltpFR2	6	7	BALLOON	75	n/a	n/a	0	0	0
1257172	WORD	wordpools/wasnorm_wordpool_576.txt	LTP384	ltpFR2	6	7	SODA	1341	n/a	n/a	0	0	0
1259797	WORD	wordpools/wasnorm_wordpool_576.txt	LTP384	ltpFR2	6	7	SHERIFF	1284	n/a	n/a	0	0	0
1262439	WORD	wordpools/wasnorm_wordpool_576.txt	LTP384	ltpFR2	6	7	TEACHER	1440	n/a	n/a	0	0	0
1265248	WORD	wordpools/wasnorm_wordpool_576.txt	LTP384	ltpFR2	6	7	STUDENT	1395	n/a	n/a	0	0	0
1267990	WORD	wordpools/wasnorm_wordpool_576.txt	LTP384	ltpFR2	6	7	HOUND	724	n/a	n/a	0	0	0
1270516	WORD	wordpools/wasnorm_wordpool_576.txt	LTP384	ltpFR2	6	7	INFANT	737	n/a	n/a	0	0	0
1273074	WORD	wordpools/wasnorm_wordpool_576.txt	LTP384	ltpFR2	6	7	RECORD	1176	n/a	n/a	0	0	0
1275665	WORD	wordpools/wasnorm_wordpool_576.txt	LTP384	ltpFR2	6	7	STAR	1373	n/a	n/a	0	0	0
1278408	WORD	wordpools/wasnorm_wordpool_576.txt	LTP384	ltpFR2	6	7	FLEET	578	n/a	n/a	0	0	0
1281016	WORD	wordpools/wasnorm_wordpool_576.txt	LTP384	ltpFR2	6	7	ROD	1203	n/a	n/a	0	0	0
1283724	WORD	wordpools/wasnorm_wordpool_576.txt	LTP384	ltpFR2	6	7	COLONEL	348	n/a	n/a	0	0	0
1286283	WORD	wordpools/wasnorm_wordpool_576.txt	LTP384	ltpFR2	6	7	GUARD	667	n/a	n/a	0	0	0
1288841	WORD	wordpools/wasnorm_wordpool_576.txt	LTP384	ltpFR2	6	7	PASTRY	1022	n/a	n/a	0	0	0
1291534	WORD	wordpools/wasnorm_wordpool_576.txt	LTP384	ltpFR2	6	7	DANCER	437	n/a	n/a	0	0	0
1294058	WORD	wordpools/wasnorm_wordpool_576.txt	LTP384	ltpFR2	6	7	CANDY	230	n/a	n/a	0	0	0
1296850	WORD	wordpools/wasnorm_wordpool_576.txt	LTP384	ltpFR2	6	7	BINDER	127	n/a	n/a	0	0	0
1299309	WORD	wordpools/wasnorm_wordpool_576.txt	LTP384	ltpFR2	6	7	GARLIC	624	n/a	n/a	0	0	0
1301916	WORD	wordpools/wasnorm_wordpool_576.txt	LTP384	ltpFR2	6	7	ARMY	39	n/a	n/a	0	0	0
1304675	WORD	wordpools/wasnorm_wordpool_576.txt	LTP384	ltpFR2	6	7	SPACE	1345	n/a	n/a	0	0	0
1307435	WORD	wordpools/wasnorm_wordpool_576.txt	LTP384	ltpFR2	6	7	REPORT	1184	n/a	n/a	0	0	0
1310161	WORD	wordpools/wasnorm_wordpool_576.txt	LTP384	ltpFR2	6	7	CELLAR	267	n/a	n/a	0	0	0
1311765	START	n/a	LTP384	ltpFR2	6	n/a	n/a	n/a	12	n/a	n/a	n/a	n/a
1312802	DISTRACTOR	n/a	LTP384	ltpFR2	6	7	n/a	n/a	n/a	n/a	0	0	0
1312818	PROB	n/a	LTP384	ltpFR2	6	n/a	n/a	n/a	12	14	3	3	8
1314992	PROB	n/a	LTP384	ltpFR2	6	n/a	n/a	n/a	12	14	5	1	8
1317116	PROB	n/a	LTP384	ltpFR2	6	n/a	n/a	n/a	12	13	6	2	5
1319207	PROB	n/a	LTP384	ltpFR2	6	n/a	n/a	n/a	12	16	8	1	7
1323653	PROB	n/a	LTP384	ltpFR2	6	n/a	n/a	n/a	12	15	7	6	2
1327065	PROB	n/a	LTP384	ltpFR2	6	n/a	n/a	n/a	12	16	5	4	7
1328720	PROB	n/a	LTP384	ltpFR2	6	n/a	n/a	n/a	12	12	6	5	1
1330593	PROB	n/a	LTP384	ltpFR2	6	n/a	n/a	n/a	12	15	1	8	6
1335764	STOP	n/a	LTP384	ltpFR2	6	n/a	n/a	n/a	12	n/a	n/a	n/a	n/a
1337516	REC_START	n/a	LTP384	ltpFR2	6	7	n/a	n/a	n/a	n/a	0	0	0
1337996	REC_WORD	wordpools/wasnorm_wordpool_576.txt	LTP384	ltpFR2	6	7	CELLAR	267	n/a	n/a	0	0	0
1341161	REC_WORD	wordpools/wasnorm_wordpool_576.txt	LTP384	ltpFR2	6	7	PASTRY	1022	n/a	n/a	0	0	0
1342375	REC_WORD	wordpools/wasnorm_wordpool_576.txt	LTP384	ltpFR2	6	7	PECAN	1036	n/a	n/a	0	0	0
1343384	REC_WORD	wordpools/wasnorm_wordpool_576.txt	LTP384	ltpFR2	6	7	ITEM	746	n/a	n/a	0	0	0
1344169	REC_WORD	wordpools/wasnorm_wordpool_576.txt	LTP384	ltpFR2	6	7	BALLOON	75	n/a	n/a	0	0	0
1346011	REC_WORD	wordpools/wasnorm_wordpool_576.txt	LTP384	ltpFR2	6	7	SODA	1341	n/a	n/a	0	0	0
1352154	REC_WORD	wordpools/wasnorm_wordpool_576.txt	LTP384	ltpFR2	6	7	TEACHER	1440	n/a	n/a	0	0	0
1353077	REC_WORD	wordpools/wasnorm_wordpool_576.txt	LTP384	ltpFR2	6	7	STUDENT	1395	n/a	n/a	0	0	0
1357106	REC_WORD	wordpools/wasnorm_wordpool_576.txt	LTP384	ltpFR2	6	7	ROD	1203	n/a	n/a	0	0	0
1358684	REC_WORD	wordpools/wasnorm_wordpool_576.txt	LTP384	ltpFR2	6	7	COLONEL	348	n/a	n/a	0	0	0
1359798	REC_WORD	wordpools/wasnorm_wordpool_576.txt	LTP384	ltpFR2	6	7	GUARD	667	n/a	n/a	0	0	0
1360845	REC_WORD	wordpools/wasnorm_wordpool_576.txt	LTP384	ltpFR2	6	7	ARMY	39	n/a	n/a	0	0	0
1361802	REC_WORD	wordpools/wasnorm_wordpool_576.txt	LTP384	ltpFR2	6	7	STAR	1373	n/a	n/a	0	0	0
1363058	REC_WORD	wordpools/wasnorm_wordpool_576.txt	LTP384	ltpFR2	6	7	FLEET	578	n/a	n/a	0	0	0
1364222	REC_WORD	wordpools/wasnorm_wordpool_576.txt	LTP384	ltpFR2	6	7	SPACE	1345	n/a	n/a	0	0	0
1375098	REC_WORD	wordpools/wasnorm_wordpool_576.txt	LTP384	ltpFR2	6	7	INFANT	737	n/a	n/a	0	0	0
1377486	REC_WORD	wordpools/wasnorm_wordpool_576.txt	LTP384	ltpFR2	6	7	RECORD	1176	n/a	n/a	0	0	0
1378572	REC_WORD	wordpools/wasnorm_wordpool_576.txt	LTP384	ltpFR2	6	7	DANCER	437	n/a	n/a	0	0	0
1405009	REC_WORD	wordpools/wasnorm_wordpool_576.txt	LTP384	ltpFR2	6	7	BASEMENT	94	n/a	n/a	0	0	0
1427974	WORD	wordpools/wasnorm_wordpool_576.txt	LTP384	ltpFR2	6	8	JURY	766	n/a	n/a	0	0	0
1430750	WORD	wordpools/wasnorm_wordpool_576.txt	LTP384	ltpFR2	6	8	DANDRUFF	439	n/a	n/a	0	0	0
1433560	WORD	wordpools/wasnorm_wordpool_576.txt	LTP384	ltpFR2	6	8	LODGE	839	n/a	n/a	0	0	0
1436202	WORD	wordpools/wasnorm_wordpool_576.txt	LTP384	ltpFR2	6	8	SCISSORS	1250	n/a	n/a	0	0	0
1438709	WORD	wordpools/wasnorm_wordpool_576.txt	LTP384	ltpFR2	6	8	SCALPEL	1243	n/a	n/a	0	0	0
1441402	WORD	wordpools/wasnorm_wordpool_576.txt	LTP384	ltpFR2	6	8	OUTFIT	988	n/a	n/a	0	0	0
1444010	WORD	wordpools/wasnorm_wordpool_576.txt	LTP384	ltpFR2	6	8	HUMAN	726	n/a	n/a	0	0	0
1446619	WORD	wordpools/wasnorm_wordpool_576.txt	LTP384	ltpFR2	6	8	GLOVE	642	n/a	n/a	0	0	0
1449211	WORD	wordpools/wasnorm_wordpool_576.txt	LTP384	ltpFR2	6	8	FREEZER	604	n/a	n/a	0	0	0
1451802	WORD	wordpools/wasnorm_wordpool_576.txt	LTP384	ltpFR2	6	8	COSTUME	383	n/a	n/a	0	0	0
1454545	WORD	wordpools/wasnorm_wordpool_576.txt	LTP384	ltpFR2	6	8	CRUTCH	417	n/a	n/a	0	0	0
1457120	WORD	wordpools/wasnorm_wordpool_576.txt	LTP384	ltpFR2	6	8	ANKLE	24	n/a	n/a	0	0	0
1459911	WORD	wordpools/wasnorm_wordpool_576.txt	LTP384	ltpFR2	6	8	PERMIT	1051	n/a	n/a	0	0	0
1462353	WORD	wordpools/wasnorm_wordpool_576.txt	LTP384	ltpFR2	6	8	PICTURE	1061	n/a	n/a	0	0	0
1464877	WORD	wordpools/wasnorm_wordpool_576.txt	LTP384	ltpFR2	6	8	FIDDLE	561	n/a	n/a	0	0	0
1467453	WORD	wordpools/wasnorm_wordpool_576.txt	LTP384	ltpFR2	6	8	PERCH	1048	n/a	n/a	0	0	0
1469910	WORD	wordpools/wasnorm_wordpool_576.txt	LTP384	ltpFR2	6	8	TUTU	1524	n/a	n/a	0	0	0
1472553	WORD	wordpools/wasnorm_wordpool_576.txt	LTP384	ltpFR2	6	8	SAUSAGE	1238	n/a	n/a	0	0	0
1475111	WORD	wordpools/wasnorm_wordpool_576.txt	LTP384	ltpFR2	6	8	GARBAGE	622	n/a	n/a	0	0	0
1477620	WORD	wordpools/wasnorm_wordpool_576.txt	LTP384	ltpFR2	6	8	TUBA	1515	n/a	n/a	0	0	0
1480128	WORD	wordpools/wasnorm_wordpool_576.txt	LTP384	ltpFR2	6	8	CUSTARD	429	n/a	n/a	0	0	0
1482919	WORD	wordpools/wasnorm_wordpool_576.txt	LTP384	ltpFR2	6	8	LEG	809	n/a	n/a	0	0	0
1485344	WORD	wordpools/wasnorm_wordpool_576.txt	LTP384	ltpFR2	6	8	SHOULDER	1294	n/a	n/a	0	0	0
1488037	WORD	wordpools/wasnorm_wordpool_576.txt	LTP384	ltpFR2	6	8	LOVER	846	n/a	n/a	0	0	0
1489642	START	n/a	LTP384	ltpFR2	6	n/a	n/a	n/a	13	n/a	n/a	n/a	n/a
1490785	DISTRACTOR	n/a	LTP384	ltpFR2	6	8	n/a	n/a	n/a	n/a	0	0	0
1490795	PROB	n/a	LTP384	ltpFR2	6	n/a	n/a	n/a	13	12	1	3	8
1493320	PROB	n/a	LTP384	ltpFR2	6	n/a	n/a	n/a	13	16	7	2	7
1495160	PROB	n/a	LTP384	ltpFR2	6	n/a	n/a	n/a	13	11	8	2	1
1496664	PROB	n/a	LTP384	ltpFR2	6	n/a	n/a	n/a	13	18	8	3	7
1499122	PROB	n/a	LTP384	ltpFR2	6	n/a	n/a	n/a	13	19	6	5	8
1501129	PROB	n/a	LTP384	ltpFR2	6	n/a	n/a	n/a	13	18	9	2	7
1504440	PROB	n/a	LTP384	ltpFR2	6	n/a	n/a	n/a	13	19	7	6	6
1507783	PROB	n/a	LTP384	ltpFR2	6	n/a	n/a	n/a	13	13	8	4	1
1509940	PROB	n/a	LTP384	ltpFR2	6	n/a	n/a	n/a	13	14	1	7	6
1513206	STOP	n/a	LTP384	ltpFR2	6	n/a	n/a	n/a	13	n/a	n/a	n/a	n/a
1515526	REC_START	n/a	LTP384	ltpFR2	6	8	n/a	n/a	n/a	n/a	0	0	0
1517825	REC_WORD	wordpools/wasnorm_wordpool_576.txt	LTP384	ltpFR2	6	8	FIDDLE	561	n/a	n/a	0	0	0
1518767	REC_WORD	wordpools/wasnorm_wordpool_576.txt	LTP384	ltpFR2	6	8	TUBA	1515	n/a	n/a	0	0	0
1519648	REC_WORD	wordpools/wasnorm_wordpool_576.txt	LTP384	ltpFR2	6	8	TUTU	1524	n/a	n/a	0	0	0
1521742	REC_WORD	wordpools/wasnorm_wordpool_576.txt	LTP384	ltpFR2	6	8	PICTURE	1061	n/a	n/a	0	0	0
1522658	REC_WORD	wordpools/wasnorm_wordpool_576.txt	LTP384	ltpFR2	6	8	PERMIT	1051	n/a	n/a	0	0	0
1523549	REC_WORD	wordpools/wasnorm_wordpool_576.txt	LTP384	ltpFR2	6	8	PERCH	1048	n/a	n/a	0	0	0
1526542	REC_WORD	wordpools/wasnorm_wordpool_576.txt	LTP384	ltpFR2	6	8	GLOVE	642	n/a	n/a	0	0	0
1527447	REC_WORD	wordpools/wasnorm_wordpool_576.txt	LTP384	ltpFR2	6	8	HUMAN	726	n/a	n/a	0	0	0
1528805	REC_WORD	wordpools/wasnorm_wordpool_576.txt	LTP384	ltpFR2	6	8	DESSERT	453	n/a	n/a	0	0	0
1529788	REC_WORD	wordpools/wasnorm_wordpool_576.txt	LTP384	ltpFR2	6	8	SCALPEL	1243	n/a	n/a	0	0	0
1530870	REC_WORD	wordpools/wasnorm_wordpool_576.txt	LTP384	ltpFR2	6	8	COSTUME	383	n/a	n/a	0	0	0
1532033	REC_WORD	wordpools/wasnorm_wordpool_576.txt	LTP384	ltpFR2	6	8	OUTFIT	988	n/a	n/a	0	0	0
1533946	REC_WORD	wordpools/wasnorm_wordpool_576.txt	LTP384	ltpFR2	6	8	CRUTCH	417	n/a	n/a	0	0	0
1535148	REC_WORD	wordpools/wasnorm_wordpool_576.txt	LTP384	ltpFR2	6	8	ANKLE	24	n/a	n/a	0	0	0
1536004	REC_WORD	wordpools/wasnorm_wordpool_576.txt	LTP384	ltpFR2	6	8	SHOULDER	1294	n/a	n/a	0	0	0
1537127	REC_WORD	wordpools/wasnorm_wordpool_576.txt	LTP384	ltpFR2	6	8	LEG	809	n/a	n/a	0	0	0
1592057	REST_REWET	n/a	LTP384	ltpFR2	6	8	n/a	n/a	n/a	n/a	0	0	0
1701711	WORD	wordpools/wasnorm_wordpool_576.txt	LTP384	ltpFR2	6	9	CROWN	415	n/a	n/a	0	0	0
1704153	WORD	wordpools/wasnorm_wordpool_576.txt	LTP384	ltpFR2	6	9	TERMITE	1451	n/a	n/a	0	0	0
1706628	WORD	wordpools/wasnorm_wordpool_576.txt	LTP384	ltpFR2	6	9	CRICKET	408	n/a	n/a	0	0	0
1709286	WORD	wordpools/wasnorm_wordpool_576.txt	LTP384	ltpFR2	6	9	SCULPTURE	1258	n/a	n/a	0	0	0
1711710	WORD	wordpools/wasnorm_wordpool_576.txt	LTP384	ltpFR2	6	9	PRINCE	1124	n/a	n/a	0	0	0
1714186	WORD	wordpools/wasnorm_wordpool_576.txt	LTP384	ltpFR2	6	9	PALACE	1006	n/a	n/a	0	0	0
1716944	WORD	wordpools/wasnorm_wordpool_576.txt	LTP384	ltpFR2	6	9	OYSTER	995	n/a	n/a	0	0	0
1719686	WORD	wordpools/wasnorm_wordpool_576.txt	LTP384	ltpFR2	6	9	SUNRISE	1407	n/a	n/a	0	0	0
1722111	WORD	wordpools/wasnorm_wordpool_576.txt	LTP384	ltpFR2	6	9	QUAIL	1147	n/a	n/a	0	0	0
1724586	WORD	wordpools/wasnorm_wordpool_576.txt	LTP384	ltpFR2	6	9	CANAL	226	n/a	n/a	0	0	0
1727261	WORD	wordpools/wasnorm_wordpool_576.txt	LTP384	ltpFR2	6	9	BODY	145	n/a	n/a	0	0	0
1729802	WORD	wordpools/wasnorm_wordpool_576.txt	LTP384	ltpFR2	6	9	SMOG	1330	n/a	n/a	0	0	0
1732411	WORD	wordpools/wasnorm_wordpool_576.txt	LTP384	ltpFR2	6	9	COUNTY	389	n/a	n/a	0	0	0
1735187	WORD	wordpools/wasnorm_wordpool_576.txt	LTP384	ltpFR2	6	9	HAWK	692	n/a	n/a	0	0	0
1737661	WORD	wordpools/wasnorm_wordpool_576.txt	LTP384	ltpFR2	6	9	STOMACH	1384	n/a	n/a	0	0	0
1740120	WORD	wordpools/wasnorm_wordpool_576.txt	LTP384	ltpFR2	6	9	TURTLE	1522	n/a	n/a	0	0	0
1742744	WORD	wordpools/wasnorm_wordpool_576.txt	LTP384	ltpFR2	6	9	BROOK	177	n/a	n/a	0	0	0
1745420	WORD	wordpools/wasnorm_wordpool_576.txt	LTP384	ltpFR2	6	9	SWORD	1423	n/a	n/a	0	0	0
1748011	WORD	wordpools/wasnorm_wordpool_576.txt	LTP384	ltpFR2	6	9	CATCHER	258	n/a	n/a	0	0	0
1750570	WORD	wordpools/wasnorm_wordpool_576.txt	LTP384	ltpFR2	6	9	SLIME	1327	n/a	n/a	0	0	0
1753262	WORD	wordpools/wasnorm_wordpool_576.txt	LTP384	ltpFR2	6	9	CRATER	400	n/a	n/a	0	0	0
1756071	WORD	wordpools/wasnorm_wordpool_576.txt	LTP384	ltpFR2	6	9	PUDDING	1139	n/a	n/a	0	0	0
1758712	WORD	wordpools/wasnorm_wordpool_576.txt	LTP384	ltpFR2	6	9	RATTLE	1170	n/a	n/a	0	0	0
1761439	WORD	wordpools/wasnorm_wordpool_576.txt	LTP384	ltpFR2	6	9	COURSE	390	n/a	n/a	0	0	0
1763044	START	n/a	LTP384	ltpFR2	6	n/a	n/a	n/a	14	n/a	n/a	n/a	n/a
1763918	DISTRACTOR	n/a	LTP384	ltpFR2	6	9	n/a	n/a	n/a	n/a	0	0	0
1763929	PROB	n/a	LTP384	ltpFR2	6	n/a	n/a	n/a	14	10	6	3	1
1766020	PROB	n/a	LTP384	ltpFR2	6	n/a	n/a	n/a	14	17	5	5	7
1767691	PROB	n/a	LTP384	ltpFR2	6	n/a	n/a	n/a	14	14	1	8	5
1771771	PROB	n/a	LTP384	ltpFR2	6	n/a	n/a	n/a	14	15	6	2	7
1774280	PROB	n/a	LTP384	ltpFR2	6	n/a	n/a	n/a	14	15	6	4	5
1775851	PROB	n/a	LTP384	ltpFR2	6	n/a	n/a	n/a	14	20	8	6	6
1780249	PROB	n/a	LTP384	ltpFR2	6	n/a	n/a	n/a	14	13	6	4	3
1781753	PROB	n/a	LTP384	ltpFR2	6	n/a	n/a	n/a	14	14	5	1	8
1783543	PROB	n/a	LTP384	ltpFR2	6	n/a	n/a	n/a	14	15	3	3	9
1786893	STOP	n/a	LTP384	ltpFR2	6	n/a	n/a	n/a	14	n/a	n/a	n/a	n/a
1788894	REC_START	n/a	LTP384	ltpFR2	6	9	n/a	n/a	n/a	n/a	0	0	0
1789533	REC_WORD	wordpools/wasnorm_wordpool_576.txt	LTP384	ltpFR2	6	9	RATTLE	1170	n/a	n/a	0	0	0
1790444	REC_WORD	wordpools/wasnorm_wordpool_576.txt	LTP384	ltpFR2	6	9	COURSE	390	n/a	n/a	0	0	0
1792767	REC_WORD	wordpools/wasnorm_wordpool_576.txt	LTP384	ltpFR2	6	9	CROWN	415	n/a	n/a	0	0	0
1793626	REC_WORD	wordpools/wasnorm_wordpool_576.txt	LTP384	ltpFR2	6	9	TERMITE	1451	n/a	n/a	0	0	0
1794481	REC_WORD	wordpools/wasnorm_wordpool_576.txt	LTP384	ltpFR2	6	9	CRICKET	408	n/a	n/a	0	0	0
1796464	REC_WORD	wordpools/wasnorm_wordpool_576.txt	LTP384	ltpFR2	6	9	SCULPTURE	1258	n/a	n/a	0	0	0
1797960	REC_WORD	wordpools/wasnorm_wordpool_576.txt	LTP384	ltpFR2	6	9	PRINCE	1124	n/a	n/a	0	0	0
1798952	REC_WORD	wordpools/wasnorm_wordpool_576.txt	LTP384	ltpFR2	6	9	PALACE	1006	n/a	n/a	0	0	0
1802476	REC_WORD	wordpools/wasnorm_wordpool_576.txt	LTP384	ltpFR2	6	9	QUAIL	1147	n/a	n/a	0	0	0
1805312	REC_WORD	wordpools/wasnorm_wordpool_576.txt	LTP384	ltpFR2	6	9	OYSTER	995	n/a	n/a	0	0	0
1806249	REC_WORD	wordpools/wasnorm_wordpool_576.txt	LTP384	ltpFR2	6	9	SUNRISE	1407	n/a	n/a	0	0	0
1807944	REC_WORD	wordpools/wasnorm_wordpool_576.txt	LTP384	ltpFR2	6	9	CANAL	226	n/a	n/a	0	0	0
1808946	REC_WORD	wordpools/wasnorm_wordpool_576.txt	LTP384	ltpFR2	6	9	BODY	145	n/a	n/a	0	0	0
1809748	REC_WORD	wordpools/wasnorm_wordpool_576.txt	LTP384	ltpFR2	6	9	SMOG	1330	n/a	n/a	0	0	0
1810929	REC_WORD	wordpools/wasnorm_wordpool_576.txt	LTP384	ltpFR2	6	9	COUNTY	389	n/a	n/a	0	0	0
1813323	REC_WORD	wordpools/wasnorm_wordpool_576.txt	LTP384	ltpFR2	6	9	HAWK	692	n/a	n/a	0	0	0
1814102	REC_WORD	wordpools/wasnorm_wordpool_576.txt	LTP384	ltpFR2	6	9	STOMACH	1384	n/a	n/a	0	0	0
1815511	REC_WORD	wordpools/wasnorm_wordpool_576.txt	LTP384	ltpFR2	6	9	TURTLE	1522	n/a	n/a	0	0	0
1819350	REC_WORD	wordpools/wasnorm_wordpool_576.txt	LTP384	ltpFR2	6	9	BROOK	177	n/a	n/a	0	0	0
1820603	REC_WORD	wordpools/wasnorm_wordpool_576.txt	LTP384	ltpFR2	6	9	SWORD	1423	n/a	n/a	0	0	0
1821634	REC_WORD	wordpools/wasnorm_wordpool_576.txt	LTP384	ltpFR2	6	9	CATCHER	258	n/a	n/a	0	0	0
1822843	REC_WORD	wordpools/wasnorm_wordpool_576.txt	LTP384	ltpFR2	6	9	SLIME	1327	n/a	n/a	0	0	0
1823837	REC_WORD	wordpools/wasnorm_wordpool_576.txt	LTP384	ltpFR2	6	9	CRATER	400	n/a	n/a	0	0	0
1841275	REC_WORD	wordpools/wasnorm_wordpool_576.txt	LTP384	ltpFR2	6	9	PALACE	1006	n/a	n/a	0	0	0
1856006	REC_WORD	wordpools/wasnorm_wordpool_576.txt	LTP384	ltpFR2	6	9	RATTLE	1170	n/a	n/a	0	0	0
1856719	REC_WORD	wordpools/wasnorm_wordpool_576.txt	LTP384	ltpFR2	6	9	COURSE	390	n/a	n/a	0	0	0
1861980	REC_WORD	wordpools/wasnorm_wordpool_576.txt	LTP384	ltpFR2	6	9	CUSTARD	429	n/a	n/a	0	0	0
1879354	WORD	wordpools/wasnorm_wordpool_576.txt	LTP384	ltpFR2	6	10	CORAL	378	n/a	n/a	0	0	0
1881794	WORD	wordpools/wasnorm_wordpool_576.txt	LTP384	ltpFR2	6	10	MARINE	869	n/a	n/a	0	0	0
1884437	WORD	wordpools/wasnorm_wordpool_576.txt	LTP384	ltpFR2	6	10	COUNTRY	388	n/a	n/a	0	0	0
1886944	WORD	wordpools/wasnorm_wordpool_576.txt	LTP384	ltpFR2	6	10	DIVER	476	n/a	n/a	0	0	0
1889736	WORD	wordpools/wasnorm_wordpool_576.txt	LTP384	ltpFR2	6	10	GUITAR	670	n/a	n/a	0	0	0
1892446	WORD	wordpools/wasnorm_wordpool_576.txt	LTP384	ltpFR2	6	10	YARN	1631	n/a	n/a	0	0	0
1895172	WORD	wordpools/wasnorm_wordpool_576.txt	LTP384	ltpFR2	6	10	LAPEL	800	n/a	n/a	0	0	0
1897746	WORD	wordpools/wasnorm_wordpool_576.txt	LTP384	ltpFR2	6	10	BLUEPRINT	142	n/a	n/a	0	0	0
1900355	WORD	wordpools/wasnorm_wordpool_576.txt	LTP384	ltpFR2	6	10	SHARK	1275	n/a	n/a	0	0	0
1903147	WORD	wordpools/wasnorm_wordpool_576.txt	LTP384	ltpFR2	6	10	LASER	801	n/a	n/a	0	0	0
1905755	WORD	wordpools/wasnorm_wordpool_576.txt	LTP384	ltpFR2	6	10	APPLE	33	n/a	n/a	0	0	0
1908314	WORD	wordpools/wasnorm_wordpool_576.txt	LTP384	ltpFR2	6	10	FRUIT	610	n/a	n/a	0	0	0
1910922	WORD	wordpools/wasnorm_wordpool_576.txt	LTP384	ltpFR2	6	10	BRICK	172	n/a	n/a	0	0	0
1913548	WORD	wordpools/wasnorm_wordpool_576.txt	LTP384	ltpFR2	6	10	MILDEW	893	n/a	n/a	0	0	0
1916005	WORD	wordpools/wasnorm_wordpool_576.txt	LTP384	ltpFR2	6	10	LONDON	843	n/a	n/a	0	0	0
1918747	WORD	wordpools/wasnorm_wordpool_576.txt	LTP384	ltpFR2	6	10	SURVEY	1414	n/a	n/a	0	0	0
1921540	WORD	wordpools/wasnorm_wordpool_576.txt	LTP384	ltpFR2	6	10	FRIAR	605	n/a	n/a	0	0	0
1924216	WORD	wordpools/wasnorm_wordpool_576.txt	LTP384	ltpFR2	6	10	BACKBONE	66	n/a	n/a	0	0	0
1926790	WORD	wordpools/wasnorm_wordpool_576.txt	LTP384	ltpFR2	6	10	BASEMENT	94	n/a	n/a	0	0	0
1929215	WORD	wordpools/wasnorm_wordpool_576.txt	LTP384	ltpFR2	6	10	PLAYGROUND	1087	n/a	n/a	0	0	0
1931722	WORD	wordpools/wasnorm_wordpool_576.txt	LTP384	ltpFR2	6	10	SOFTBALL	1343	n/a	n/a	0	0	0
1934265	WORD	wordpools/wasnorm_wordpool_576.txt	LTP384	ltpFR2	6	10	SHOVEL	1295	n/a	n/a	0	0	0
1936705	WORD	wordpools/wasnorm_wordpool_576.txt	LTP384	ltpFR2	6	10	CHIPMUNK	304	n/a	n/a	0	0	0
1939231	WORD	wordpools/wasnorm_wordpool_576.txt	LTP384	ltpFR2	6	10	FUNGUS	614	n/a	n/a	0	0	0
1940835	START	n/a	LTP384	ltpFR2	6	n/a	n/a	n/a	15	n/a	n/a	n/a	n/a
1941644	DISTRACTOR	n/a	LTP384	ltpFR2	6	10	n/a	n/a	n/a	n/a	0	0	0
1941654	PROB	n/a	LTP384	ltpFR2	6	n/a	n/a	n/a	15	19	8	4	7
1943995	PROB	n/a	LTP384	ltpFR2	6	n/a	n/a	n/a	15	17	6	3	8
1949314	PROB	n/a	LTP384	ltpFR2	6	n/a	n/a	n/a	15	19	5	5	9
1950784	PROB	n/a	LTP384	ltpFR2	6	n/a	n/a	n/a	15	15	8	2	5
1952390	PROB	n/a	LTP384	ltpFR2	6	n/a	n/a	n/a	15	15	5	8	2
1954313	PROB	n/a	LTP384	ltpFR2	6	n/a	n/a	n/a	15	13	9	1	3
1955901	PROB	n/a	LTP384	ltpFR2	6	n/a	n/a	n/a	15	11	2	5	4
1958092	PROB	n/a	LTP384	ltpFR2	6	n/a	n/a	n/a	15	14	6	2	6
1960950	PROB	n/a	LTP384	ltpFR2	6	n/a	n/a	n/a	15	12	5	4	3
1963307	STOP	n/a	LTP384	ltpFR2	6	n/a	n/a	n/a	15	n/a	n/a	n/a	n/a
1966703	REC_START	n/a	LTP384	ltpFR2	6	10	n/a	n/a	n/a	n/a	0	0	0
1967326	REC_WORD	wordpools/wasnorm_wordpool_576.txt	LTP384	ltpFR2	6	10	CHIPMUNK	304	n/a	n/a	0	0	0
1968108	REC_WORD	wordpools/wasnorm_wordpool_576.txt	LTP384	ltpFR2	6	10	SHOVEL	1295	n/a	n/a	0	0	0
1970457	REC_WORD	wordpools/wasnorm_wordpool_576.txt	LTP384	ltpFR2	6	10	FUNGUS	614	n/a	n/a	0	0	0
1973401	REC_WORD	wordpools/wasnorm_wordpool_576.txt	LTP384	ltpFR2	6	10	DIVER	476	n/a	n/a	0	0	0
1974181	REC_WORD	wordpools/wasnorm_wordpool_576.txt	LTP384	ltpFR2	6	10	MARINE	869	n/a	n/a	0	0	0
1975054	REC_WORD	wordpools/wasnorm_wordpool_576.txt	LTP384	ltpFR2	6	10	CORAL	378	n/a	n/a	0	0	0
1977489	REC_WORD	wordpools/wasnorm_wordpool_576.txt	LTP384	ltpFR2	6	10	COUNTRY	388	n/a	n/a	0	0	0
1978710	REC_WORD	wordpools/wasnorm_wordpool_576.txt	LTP384	ltpFR2	6	10	GUITAR	670	n/a	n/a	0	0	0
1980171	REC_WORD	wordpools/wasnorm_wordpool_576.txt	LTP384	ltpFR2	6	10	SHARK	1275	n/a	n/a	0	0	0
1981266	REC_WORD	wordpools/wasnorm_wordpool_576.txt	LTP384	ltpFR2	6	10	BLUEPRINT	142	n/a	n/a	0	0	0
1982487	REC_WORD	wordpools/wasnorm_wordpool_576.txt	LTP384	ltpFR2	6	10	SURVEY	1414	n/a	n/a	0	0	0
1984008	REC_WORD	wordpools/wasnorm_wordpool_576.txt	LTP384	ltpFR2	6	10	BRICK	172	n/a	n/a	0	0	0
1985070	REC_WORD	wordpools/wasnorm_wordpool_576.txt	LTP384	ltpFR2	6	10	APPLE	33	n/a	n/a	0	0	0
1985971	REC_WORD	wordpools/wasnorm_wordpool_576.txt	LTP384	ltpFR2	6	10	FRUIT	610	n/a	n/a	0	0	0
1989222	REC_WORD	wordpools/wasnorm_wordpool_576.txt	LTP384	ltpFR2	6	10	YARN	1631	n/a	n/a	0	0	0
1990597	REC_WORD	wordpools/wasnorm_wordpool_576.txt	LTP384	ltpFR2	6	10	LAPEL	800	n/a	n/a	0	0	0
1993303	REC_WORD	wordpools/wasnorm_wordpool_576.txt	LTP384	ltpFR2	6	10	MILDEW	893	n/a	n/a	0	0	0
1994918	REC_WORD	wordpools/wasnorm_wordpool_576.txt	LTP384	ltpFR2	6	10	LONDON	843	n/a	n/a	0	0	0
1998620	REC_WORD	wordpools/wasnorm_wordpool_576.txt	LTP384	ltpFR2	6	10	LASER	801	n/a	n/a	0	0	0
2026580	REC_WORD	wordpools/wasnorm_wordpool_576.txt	LTP384	ltpFR2	6	10	PLAYGROUND	1087	n/a	n/a	0	0	0
2027263	REC_WORD	wordpools/wasnorm_wordpool_576.txt	LTP384	ltpFR2	6	10	SOFTBALL	1343	n/a	n/a	0	0	0
2028219	REC_WORD	wordpools/wasnorm_wordpool_576.txt	LTP384	ltpFR2	6	10	BASEMENT	94	n/a	n/a	0	0	0
2037500	REC_WORD	wordpools/wasnorm_wordpool_576.txt	LTP384	ltpFR2	6	10	SHOVEL	1295	n/a	n/a	0	0	0
2057146	DISTRACTOR	n/a	LTP384	ltpFR2	6	11	n/a	n/a	n/a	n/a	0	0	0
2057146	START	n/a	LTP384	ltpFR2	6	n/a	n/a	n/a	16	n/a	n/a	n/a	n/a
2057163	PROB	n/a	LTP384	ltpFR2	6	n/a	n/a	n/a	16	20	3	9	8
2059804	PROB	n/a	LTP384	ltpFR2	6	n/a	n/a	n/a	16	20	7	9	4
2062730	PROB	n/a	LTP384	ltpFR2	6	n/a	n/a	n/a	16	14	3	4	7
2064937	PROB	n/a	LTP384	ltpFR2	6	n/a	n/a	n/a	16	5	1	2	2
2066877	PROB	n/a	LTP384	ltpFR2	6	n/a	n/a	n/a	16	9	6	1	2
2069719	PROB	n/a	LTP384	ltpFR2	6	n/a	n/a	n/a	16	27	9	9	7
2072579	PROB	n/a	LTP384	ltpFR2	6	n/a	n/a	n/a	16	10	5	2	3
2076842	PROB	n/a	LTP384	ltpFR2	6	n/a	n/a	n/a	16	15	2	8	5
2078348	PROB	n/a	LTP384	ltpFR2	6	n/a	n/a	n/a	16	18	8	1	9
2080119	STOP	n/a	LTP384	ltpFR2	6	n/a	n/a	n/a	16	n/a	n/a	n/a	n/a
2082244	WORD	wordpools/wasnorm_wordpool_576.txt	LTP384	ltpFR2	6	11	SUBWAY	1400	n/a	n/a	0	0	0
2084801	WORD	wordpools/wasnorm_wordpool_576.txt	LTP384	ltpFR2	6	11	PIZZA	1079	n/a	n/a	0	0	0
2087444	WORD	wordpools/wasnorm_wordpool_576.txt	LTP384	ltpFR2	6	11	BELLY	119	n/a	n/a	0	0	0
2090103	WORD	wordpools/wasnorm_wordpool_576.txt	LTP384	ltpFR2	6	11	WHISKERS	1605	n/a	n/a	0	0	0
2092594	WORD	wordpools/wasnorm_wordpool_576.txt	LTP384	ltpFR2	6	11	CLAMP	316	n/a	n/a	0	0	0
2095336	WORD	wordpools/wasnorm_wordpool_576.txt	LTP384	ltpFR2	6	11	CHEMIST	292	n/a	n/a	0	0	0
2098112	WORD	wordpools/wasnorm_wordpool_576.txt	LTP384	ltpFR2	6	11	DASHBOARD	441	n/a	n/a	0	0	0
2100553	WORD	wordpools/wasnorm_wordpool_576.txt	LTP384	ltpFR2	6	11	JUGGLER	763	n/a	n/a	0	0	0
2103028	WORD	wordpools/wasnorm_wordpool_576.txt	LTP384	ltpFR2	6	11	ARM	38	n/a	n/a	0	0	0
2105620	WORD	wordpools/wasnorm_wordpool_576.txt	LTP384	ltpFR2	6	11	KETCHUP	771	n/a	n/a	0	0	0
2108362	WORD	wordpools/wasnorm_wordpool_576.txt	LTP384	ltpFR2	6	11	MUSTARD	935	n/a	n/a	0	0	0
2110836	WORD	wordpools/wasnorm_wordpool_576.txt	LTP384	ltpFR2	6	11	STATUE	1374	n/a	n/a	0	0	0
2113595	WORD	wordpools/wasnorm_wordpool_576.txt	LTP384	ltpFR2	6	11	PEACH	1031	n/a	n/a	0	0	0
2116120	WORD	wordpools/wasnorm_wordpool_576.txt	LTP384	ltpFR2	6	11	SWIMMER	1420	n/a	n/a	0	0	0
2118545	WORD	wordpools/wasnorm_wordpool_576.txt	LTP384	ltpFR2	6	11	RELISH	1183	n/a	n/a	0	0	0
2120985	WORD	wordpools/wasnorm_wordpool_576.txt	LTP384	ltpFR2	6	11	HAMPER	682	n/a	n/a	0	0	0
2123694	WORD	wordpools/wasnorm_wordpool_576.txt	LTP384	ltpFR2	6	11	LAKE	796	n/a	n/a	0	0	0
2126487	WORD	wordpools/wasnorm_wordpool_576.txt	LTP384	ltpFR2	6	11	FOREHEAD	592	n/a	n/a	0	0	0
2129163	WORD	wordpools/wasnorm_wordpool_576.txt	LTP384	ltpFR2	6	11	RACKET	1155	n/a	n/a	0	0	0
2131621	WORD	wordpools/wasnorm_wordpool_576.txt	LTP384	ltpFR2	6	11	TROMBONE	1508	n/a	n/a	0	0	0
2134279	WORD	wordpools/wasnorm_wordpool_576.txt	LTP384	ltpFR2	6	11	BUTCHER	203	n/a	n/a	0	0	0
2136853	WORD	wordpools/wasnorm_wordpool_576.txt	LTP384	ltpFR2	6	11	KNIFE	785	n/a	n/a	0	0	0
2139379	WORD	wordpools/wasnorm_wordpool_576.txt	LTP384	ltpFR2	6	11	PICNIC	1060	n/a	n/a	0	0	0
2142071	WORD	wordpools/wasnorm_wordpool_576.txt	LTP384	ltpFR2	6	11	TABLE	1426	n/a	n/a	0	0	0
2143675	START	n/a	LTP384	ltpFR2	6	n/a	n/a	n/a	17	n/a	n/a	n/a	n/a
2144783	DISTRACTOR	n/a	LTP384	ltpFR2	6	11	n/a	n/a	n/a	n/a	0	0	0
2144796	PROB	n/a	LTP384	ltpFR2	6	n/a	n/a	n/a	17	24	7	8	9
2150298	PROB	n/a	LTP384	ltpFR2	6	n/a	n/a	n/a	17	10	4	4	2
2152388	PROB	n/a	LTP384	ltpFR2	6	n/a	n/a	n/a	17	15	2	6	7
2155815	PROB	n/a	LTP384	ltpFR2	6	n/a	n/a	n/a	17	11	3	3	5
2158407	PROB	n/a	LTP384	ltpFR2	6	n/a	n/a	n/a	17	18	4	9	5
2162470	PROB	n/a	LTP384	ltpFR2	6	n/a	n/a	n/a	17	13	7	1	5
2167674	STOP	n/a	LTP384	ltpFR2	6	n/a	n/a	n/a	17	n/a	n/a	n/a	n/a
2169510	REC_START	n/a	LTP384	ltpFR2	6	11	n/a	n/a	n/a	n/a	0	0	0
2170020	REC_WORD	wordpools/wasnorm_wordpool_576.txt	LTP384	ltpFR2	6	11	BUTCHER	203	n/a	n/a	0	0	0
2170835	REC_WORD	wordpools/wasnorm_wordpool_576.txt	LTP384	ltpFR2	6	11	KNIFE	785	n/a	n/a	0	0	0
2171903	REC_WORD	wordpools/wasnorm_wordpool_576.txt	LTP384	ltpFR2	6	11	TABLE	1426	n/a	n/a	0	0	0
2172893	REC_WORD	wordpools/wasnorm_wordpool_576.txt	LTP384	ltpFR2	6	11	PICNIC	1060	n/a	n/a	0	0	0
2177920	REC_WORD	wordpools/wasnorm_wordpool_576.txt	LTP384	ltpFR2	6	11	STATUE	1374	n/a	n/a	0	0	0
2179143	REC_WORD	wordpools/wasnorm_wordpool_576.txt	LTP384	ltpFR2	6	11	RELISH	1183	n/a	n/a	0	0	0
2180175	REC_WORD	wordpools/wasnorm_wordpool_576.txt	LTP384	ltpFR2	6	11	JUGGLER	763	n/a	n/a	0	0	0
2181639	REC_WORD	wordpools/wasnorm_wordpool_576.txt	LTP384	ltpFR2	6	11	KETCHUP	771	n/a	n/a	0	0	0
2182702	REC_WORD	wordpools/wasnorm_wordpool_576.txt	LTP384	ltpFR2	6	11	MUSTARD	935	n/a	n/a	0	0	0
2184605	REC_WORD	wordpools/wasnorm_wordpool_576.txt	LTP384	ltpFR2	6	11	ARM	38	n/a	n/a	0	0	0
2186150	REC_WORD	wordpools/wasnorm_wordpool_576.txt	LTP384	ltpFR2	6	11	CHEMIST	292	n/a	n/a	0	0	0
2187159	REC_WORD	wordpools/wasnorm_wordpool_576.txt	LTP384	ltpFR2	6	11	CLAMP	316	n/a	n/a	0	0	0
2188188	REC_WORD	wordpools/wasnorm_wordpool_576.txt	LTP384	ltpFR2	6	11	SUBWAY	1400	n/a	n/a	0	0	0
2189341	REC_WORD	wordpools/wasnorm_wordpool_576.txt	LTP384	ltpFR2	6	11	PIZZA	1079	n/a	n/a	0	0	0
2190421	REC_WORD	wordpools/wasnorm_wordpool_576.txt	LTP384	ltpFR2	6	11	BELLY	119	n/a	n/a	0	0	0
2198929	REC_WORD	wordpools/wasnorm_wordpool_576.txt	LTP384	ltpFR2	6	11	HAMPER	682	n/a	n/a	0	0	0
2200200	REC_WORD	wordpools/wasnorm_wordpool_576.txt	LTP384	ltpFR2	6	11	LAKE	796	n/a	n/a	0	0	0
2223816	REC_WORD	wordpools/wasnorm_wordpool_576.txt	LTP384	ltpFR2	6	11	TROMBONE	1508	n/a	n/a	0	0	0
2235249	REC_WORD	wordpools/wasnorm_wordpool_576.txt	LTP384	ltpFR2	6	11	DASHBOARD	441	n/a	n/a	0	0	0
2259969	WORD	wordpools/wasnorm_wordpool_576.txt	LTP384	ltpFR2	6	12	ISLAND	745	n/a	n/a	0	0	0
2262744	WORD	wordpools/wasnorm_wordpool_576.txt	LTP384	ltpFR2	6	12	GRAVE	658	n/a	n/a	0	0	0
2265387	WORD	wordpools/wasnorm_wordpool_576.txt	LTP384	ltpFR2	6	12	CASHIER	254	n/a	n/a	0	0	0
2267995	WORD	wordpools/wasnorm_wordpool_576.txt	LTP384	ltpFR2	6	12	COMPASS	358	n/a	n/a	0	0	0
2270637	WORD	wordpools/wasnorm_wordpool_576.txt	LTP384	ltpFR2	6	12	DAISY	435	n/a	n/a	0	0	0
2273296	WORD	wordpools/wasnorm_wordpool_576.txt	LTP384	ltpFR2	6	12	ORCHID	982	n/a	n/a	0	0	0
2275720	WORD	wordpools/wasnorm_wordpool_576.txt	LTP384	ltpFR2	6	12	TRUCK	1512	n/a	n/a	0	0	0
2278245	WORD	wordpools/wasnorm_wordpool_576.txt	LTP384	ltpFR2	6	12	FEMALE	559	n/a	n/a	0	0	0
2280686	WORD	wordpools/wasnorm_wordpool_576.txt	LTP384	ltpFR2	6	12	GIFT	635	n/a	n/a	0	0	0
2283462	WORD	wordpools/wasnorm_wordpool_576.txt	LTP384	ltpFR2	6	12	LAGOON	795	n/a	n/a	0	0	0
2286188	WORD	wordpools/wasnorm_wordpool_576.txt	LTP384	ltpFR2	6	12	GIRL	637	n/a	n/a	0	0	0
2288695	WORD	wordpools/wasnorm_wordpool_576.txt	LTP384	ltpFR2	6	12	MONEY	908	n/a	n/a	0	0	0
2291505	WORD	wordpools/wasnorm_wordpool_576.txt	LTP384	ltpFR2	6	12	BATHTUB	100	n/a	n/a	0	0	0
2294113	WORD	wordpools/wasnorm_wordpool_576.txt	LTP384	ltpFR2	6	12	PORTRAIT	1111	n/a	n/a	0	0	0
2296771	WORD	wordpools/wasnorm_wordpool_576.txt	LTP384	ltpFR2	6	12	SERVANT	1271	n/a	n/a	0	0	0
2299447	WORD	wordpools/wasnorm_wordpool_576.txt	LTP384	ltpFR2	6	12	WAITRESS	1581	n/a	n/a	0	0	0
2302005	WORD	wordpools/wasnorm_wordpool_576.txt	LTP384	ltpFR2	6	12	STALLION	1369	n/a	n/a	0	0	0
2304581	WORD	wordpools/wasnorm_wordpool_576.txt	LTP384	ltpFR2	6	12	HOSTESS	723	n/a	n/a	0	0	0
2307106	WORD	wordpools/wasnorm_wordpool_576.txt	LTP384	ltpFR2	6	12	GANGSTER	620	n/a	n/a	0	0	0
2309530	WORD	wordpools/wasnorm_wordpool_576.txt	LTP384	ltpFR2	6	12	MAILBOX	857	n/a	n/a	0	0	0
2312122	WORD	wordpools/wasnorm_wordpool_576.txt	LTP384	ltpFR2	6	12	RUG	1215	n/a	n/a	0	0	0
2314896	WORD	wordpools/wasnorm_wordpool_576.txt	LTP384	ltpFR2	6	12	SILK	1307	n/a	n/a	0	0	0
2317406	WORD	wordpools/wasnorm_wordpool_576.txt	LTP384	ltpFR2	6	12	SPONGE	1355	n/a	n/a	0	0	0
2320114	WORD	wordpools/wasnorm_wordpool_576.txt	LTP384	ltpFR2	6	12	ICEBERG	731	n/a	n/a	0	0	0
2321719	START	n/a	LTP384	ltpFR2	6	n/a	n/a	n/a	18	n/a	n/a	n/a	n/a
2322690	DISTRACTOR	n/a	LTP384	ltpFR2	6	12	n/a	n/a	n/a	n/a	0	0	0
2322705	PROB	n/a	LTP384	ltpFR2	6	n/a	n/a	n/a	18	13	6	1	6
2324879	PROB	n/a	LTP384	ltpFR2	6	n/a	n/a	n/a	18	11	5	5	1
2326100	PROB	n/a	LTP384	ltpFR2	6	n/a	n/a	n/a	18	23	8	6	9
2328825	PROB	n/a	LTP384	ltpFR2	6	n/a	n/a	n/a	18	13	2	7	4
2330598	PROB	n/a	LTP384	ltpFR2	6	n/a	n/a	n/a	18	12	9	2	1
2333508	PROB	n/a	LTP384	ltpFR2	6	n/a	n/a	n/a	18	21	7	6	8
2336400	PROB	n/a	LTP384	ltpFR2	6	n/a	n/a	n/a	18	6	2	3	1
2338841	PROB	n/a	LTP384	ltpFR2	6	n/a	n/a	n/a	18	14	7	5	2
2340663	PROB	n/a	LTP384	ltpFR2	6	n/a	n/a	n/a	18	24	9	8	7
2343206	PROB	n/a	LTP384	ltpFR2	6	n/a	n/a	n/a	18	8	4	1	3
2345263	STOP	n/a	LTP384	ltpFR2	6	n/a	n/a	n/a	18	n/a	n/a	n/a	n/a
2347604	REC_START	n/a	LTP384	ltpFR2	6	12	n/a	n/a	n/a	n/a	0	0	0
2348061	REC_WORD	wordpools/wasnorm_wordpool_576.txt	LTP384	ltpFR2	6	12	SPONGE	1355	n/a	n/a	0	0	0
2349167	REC_WORD	wordpools/wasnorm_wordpool_576.txt	LTP384	ltpFR2	6	12	HOSTESS	723	n/a	n/a	0	0	0
2351618	REC_WORD	wordpools/wasnorm_wordpool_576.txt	LTP384	ltpFR2	6	12	BATHTUB	100	n/a	n/a	0	0	0
2354153	REC_WORD	wordpools/wasnorm_wordpool_576.txt	LTP384	ltpFR2	6	12	ISLAND	745	n/a	n/a	0	0	0
2355137	REC_WORD	wordpools/wasnorm_wordpool_576.txt	LTP384	ltpFR2	6	12	LAGOON	795	n/a	n/a	0	0	0
2356327	REC_WORD	wordpools/wasnorm_wordpool_576.txt	LTP384	ltpFR2	6	12	TRUCK	1512	n/a	n/a	0	0	0
2357506	REC_WORD	wordpools/wasnorm_wordpool_576.txt	LTP384	ltpFR2	6	12	GIFT	635	n/a	n/a	0	0	0
2358511	REC_WORD	wordpools/wasnorm_wordpool_576.txt	LTP384	ltpFR2	6	12	ORCHID	982	n/a	n/a	0	0	0
2359694	REC_WORD	wordpools/wasnorm_wordpool_576.txt	LTP384	ltpFR2	6	12	DAISY	435	n/a	n/a	0	0	0
2360827	REC_WORD	wordpools/wasnorm_wordpool_576.txt	LTP384	ltpFR2	6	12	COMPASS	358	n/a	n/a	0	0	0
2361798	REC_WORD	wordpools/wasnorm_wordpool_576.txt	LTP384	ltpFR2	6	12	CASHIER	254	n/a	n/a	0	0	0
2363101	REC_WORD	wordpools/wasnorm_wordpool_576.txt	LTP384	ltpFR2	6	12	GRAVE	658	n/a	n/a	0	0	0
2365672	REC_WORD	wordpools/wasnorm_wordpool_576.txt	LTP384	ltpFR2	6	12	FEMALE	559	n/a	n/a	0	0	0
2366785	REC_WORD	wordpools/wasnorm_wordpool_576.txt	LTP384	ltpFR2	6	12	MONEY	908	n/a	n/a	0	0	0
2385400	REC_WORD	wordpools/wasnorm_wordpool_576.txt	LTP384	ltpFR2	6	12	ICEBERG	731	n/a	n/a	0	0	0
2438046	DISTRACTOR	n/a	LTP384	ltpFR2	6	13	n/a	n/a	n/a	n/a	0	0	0
2438046	START	n/a	LTP384	ltpFR2	6	n/a	n/a	n/a	19	n/a	n/a	n/a	n/a
2438063	PROB	n/a	LTP384	ltpFR2	6	n/a	n/a	n/a	19	22	6	9	7
2441690	PROB	n/a	LTP384	ltpFR2	6	n/a	n/a	n/a	19	21	6	7	8
2444099	PROB	n/a	LTP384	ltpFR2	6	n/a	n/a	n/a	19	12	2	2	8
2447293	PROB	n/a	LTP384	ltpFR2	6	n/a	n/a	n/a	19	20	9	3	8
2451155	PROB	n/a	LTP384	ltpFR2	6	n/a	n/a	n/a	19	13	4	4	5
2453530	PROB	n/a	LTP384	ltpFR2	6	n/a	n/a	n/a	19	9	4	3	2
2455736	PROB	n/a	LTP384	ltpFR2	6	n/a	n/a	n/a	19	12	1	9	2
2457208	PROB	n/a	LTP384	ltpFR2	6	n/a	n/a	n/a	19	16	4	3	9
2462046	STOP	n/a	LTP384	ltpFR2	6	n/a	n/a	n/a	19	n/a	n/a	n/a	n/a
2463094	WORD	wordpools/wasnorm_wordpool_576.txt	LTP384	ltpFR2	6	13	PASSAGE	1019	n/a	n/a	0	0	0
2465685	WORD	wordpools/wasnorm_wordpool_576.txt	LTP384	ltpFR2	6	13	BLOUSE	139	n/a	n/a	0	0	0
2468445	WORD	wordpools/wasnorm_wordpool_576.txt	LTP384	ltpFR2	6	13	SKIRT	1319	n/a	n/a	0	0	0
2471220	WORD	wordpools/wasnorm_wordpool_576.txt	LTP384	ltpFR2	6	13	SWAMP	1416	n/a	n/a	0	0	0
2473945	WORD	wordpools/wasnorm_wordpool_576.txt	LTP384	ltpFR2	6	13	BARREL	91	n/a	n/a	0	0	0
2476538	WORD	wordpools/wasnorm_wordpool_576.txt	LTP384	ltpFR2	6	13	LIVER	833	n/a	n/a	0	0	0
2479196	WORD	wordpools/wasnorm_wordpool_576.txt	LTP384	ltpFR2	6	13	FOREST	593	n/a	n/a	0	0	0
2481887	WORD	wordpools/wasnorm_wordpool_576.txt	LTP384	ltpFR2	6	13	CHAPEL	280	n/a	n/a	0	0	0
2484329	WORD	wordpools/wasnorm_wordpool_576.txt	LTP384	ltpFR2	6	13	BOYFRIEND	162	n/a	n/a	0	0	0
2487021	WORD	wordpools/wasnorm_wordpool_576.txt	LTP384	ltpFR2	6	13	KIDNEY	776	n/a	n/a	0	0	0
2489513	WORD	wordpools/wasnorm_wordpool_576.txt	LTP384	ltpFR2	6	13	THIEF	1456	n/a	n/a	0	0	0
2491936	WORD	wordpools/wasnorm_wordpool_576.txt	LTP384	ltpFR2	6	13	SUSPECT	1415	n/a	n/a	0	0	0
2494496	WORD	wordpools/wasnorm_wordpool_576.txt	LTP384	ltpFR2	6	13	WITNESS	1618	n/a	n/a	0	0	0
2497037	WORD	wordpools/wasnorm_wordpool_576.txt	LTP384	ltpFR2	6	13	WRIST	1626	n/a	n/a	0	0	0
2499562	WORD	wordpools/wasnorm_wordpool_576.txt	LTP384	ltpFR2	6	13	OFFICE	972	n/a	n/a	0	0	0
2502170	WORD	wordpools/wasnorm_wordpool_576.txt	LTP384	ltpFR2	6	13	MOTEL	919	n/a	n/a	0	0	0
2504595	WORD	wordpools/wasnorm_wordpool_576.txt	LTP384	ltpFR2	6	13	FIREMAN	569	n/a	n/a	0	0	0
2507070	WORD	wordpools/wasnorm_wordpool_576.txt	LTP384	ltpFR2	6	13	STAKE	1368	n/a	n/a	0	0	0
2509828	WORD	wordpools/wasnorm_wordpool_576.txt	LTP384	ltpFR2	6	13	FRAGRANCE	599	n/a	n/a	0	0	0
2512504	WORD	wordpools/wasnorm_wordpool_576.txt	LTP384	ltpFR2	6	13	STAPLE	1371	n/a	n/a	0	0	0
2515246	WORD	wordpools/wasnorm_wordpool_576.txt	LTP384	ltpFR2	6	13	EGYPT	519	n/a	n/a	0	0	0
2517787	WORD	wordpools/wasnorm_wordpool_576.txt	LTP384	ltpFR2	6	13	VELVET	1555	n/a	n/a	0	0	0
2520396	WORD	wordpools/wasnorm_wordpool_576.txt	LTP384	ltpFR2	6	13	LUMBER	848	n/a	n/a	0	0	0
2523071	WORD	wordpools/wasnorm_wordpool_576.txt	LTP384	ltpFR2	6	13	BLENDER	136	n/a	n/a	0	0	0
2524676	START	n/a	LTP384	ltpFR2	6	n/a	n/a	n/a	20	n/a	n/a	n/a	n/a
2525801	DISTRACTOR	n/a	LTP384	ltpFR2	6	13	n/a	n/a	n/a	n/a	0	0	0
2525813	PROB	n/a	LTP384	ltpFR2	6	n/a	n/a	n/a	20	21	8	4	9
2528222	PROB	n/a	LTP384	ltpFR2	6	n/a	n/a	n/a	20	22	6	8	8
2530378	PROB	n/a	LTP384	ltpFR2	6	n/a	n/a	n/a	20	20	2	9	9
2531999	PROB	n/a	LTP384	ltpFR2	6	n/a	n/a	n/a	20	5	1	3	1
2533355	PROB	n/a	LTP384	ltpFR2	6	n/a	n/a	n/a	20	18	8	4	6
2536364	PROB	n/a	LTP384	ltpFR2	6	n/a	n/a	n/a	20	8	1	5	2
2538905	PROB	n/a	LTP384	ltpFR2	6	n/a	n/a	n/a	20	13	2	2	9
2541364	PROB	n/a	LTP384	ltpFR2	6	n/a	n/a	n/a	20	15	3	8	4
2544023	PROB	n/a	LTP384	ltpFR2	6	n/a	n/a	n/a	20	17	5	6	6
2548676	STOP	n/a	LTP384	ltpFR2	6	n/a	n/a	n/a	20	n/a	n/a	n/a	n/a
2550461	REC_START	n/a	LTP384	ltpFR2	6	13	n/a	n/a	n/a	n/a	0	0	0
2551059	REC_WORD	wordpools/wasnorm_wordpool_576.txt	LTP384	ltpFR2	6	13	FRAGRANCE	599	n/a	n/a	0	0	0
2552007	REC_WORD	wordpools/wasnorm_wordpool_576.txt	LTP384	ltpFR2	6	13	FIREMAN	569	n/a	n/a	0	0	0
2552899	REC_WORD	wordpools/wasnorm_wordpool_576.txt	LTP384	ltpFR2	6	13	STAKE	1368	n/a	n/a	0	0	0
2556755	REC_WORD	wordpools/wasnorm_wordpool_576.txt	LTP384	ltpFR2	6	13	VELVET	1555	n/a	n/a	0	0	0
2557826	REC_WORD	wordpools/wasnorm_wordpool_576.txt	LTP384	ltpFR2	6	13	EGYPT	519	n/a	n/a	0	0	0
2558841	REC_WORD	wordpools/wasnorm_wordpool_576.txt	LTP384	ltpFR2	6	13	STAPLE	1371	n/a	n/a	0	0	0
2560999	REC_WORD	wordpools/wasnorm_wordpool_576.txt	LTP384	ltpFR2	6	13	BLOUSE	139	n/a	n/a	0	0	0
2561820	REC_WORD	wordpools/wasnorm_wordpool_576.txt	LTP384	ltpFR2	6	13	SKIRT	1319	n/a	n/a	0	0	0
2562942	REC_WORD	wordpools/wasnorm_wordpool_576.txt	LTP384	ltpFR2	6	13	PASSAGE	1019	n/a	n/a	0	0	0
2564590	REC_WORD	wordpools/wasnorm_wordpool_576.txt	LTP384	ltpFR2	6	13	CHAPEL	280	n/a	n/a	0	0	0
2565815	REC_WORD	wordpools/wasnorm_wordpool_576.txt	LTP384	ltpFR2	6	13	BOYFRIEND	162	n/a	n/a	0	0	0
2566816	REC_WORD	wordpools/wasnorm_wordpool_576.txt	LTP384	ltpFR2	6	13	OFFICE	972	n/a	n/a	0	0	0
2567724	REC_WORD	wordpools/wasnorm_wordpool_576.txt	LTP384	ltpFR2	6	13	MOTEL	919	n/a	n/a	0	0	0
2571587	REC_WORD	wordpools/wasnorm_wordpool_576.txt	LTP384	ltpFR2	6	13	THIEF	1456	n/a	n/a	0	0	0
2572291	REC_WORD	wordpools/wasnorm_wordpool_576.txt	LTP384	ltpFR2	6	13	SWAMP	1416	n/a	n/a	0	0	0
2573428	REC_WORD	wordpools/wasnorm_wordpool_576.txt	LTP384	ltpFR2	6	13	FOREST	593	n/a	n/a	0	0	0
2574495	REC_WORD	wordpools/wasnorm_wordpool_576.txt	LTP384	ltpFR2	6	13	BARREL	91	n/a	n/a	0	0	0
2575411	REC_WORD	wordpools/wasnorm_wordpool_576.txt	LTP384	ltpFR2	6	13	LIVER	833	n/a	n/a	0	0	0
2576402	REC_WORD	wordpools/wasnorm_wordpool_576.txt	LTP384	ltpFR2	6	13	KIDNEY	776	n/a	n/a	0	0	0
2577280	REC_WORD	wordpools/wasnorm_wordpool_576.txt	LTP384	ltpFR2	6	13	SUSPECT	1415	n/a	n/a	0	0	0
2578347	REC_WORD	wordpools/wasnorm_wordpool_576.txt	LTP384	ltpFR2	6	13	WITNESS	1618	n/a	n/a	0	0	0
2579271	REC_WORD	wordpools/wasnorm_wordpool_576.txt	LTP384	ltpFR2	6	13	WRIST	1626	n/a	n/a	0	0	0
2609479	REC_WORD	wordpools/wasnorm_wordpool_576.txt	LTP384	ltpFR2	6	13	SWAMP	1416	n/a	n/a	0	0	0
2640919	WORD	wordpools/wasnorm_wordpool_576.txt	LTP384	ltpFR2	6	14	CYCLONE	431	n/a	n/a	0	0	0
2643612	WORD	wordpools/wasnorm_wordpool_576.txt	LTP384	ltpFR2	6	14	CANYON	235	n/a	n/a	0	0	0
2646053	WORD	wordpools/wasnorm_wordpool_576.txt	LTP384	ltpFR2	6	14	NURSE	963	n/a	n/a	0	0	0
2648660	WORD	wordpools/wasnorm_wordpool_576.txt	LTP384	ltpFR2	6	14	PAIL	1002	n/a	n/a	0	0	0
2651320	WORD	wordpools/wasnorm_wordpool_576.txt	LTP384	ltpFR2	6	14	JUNGLE	764	n/a	n/a	0	0	0
2654046	WORD	wordpools/wasnorm_wordpool_576.txt	LTP384	ltpFR2	6	14	PEPPER	1047	n/a	n/a	0	0	0
2656737	WORD	wordpools/wasnorm_wordpool_576.txt	LTP384	ltpFR2	6	14	TWISTER	1530	n/a	n/a	0	0	0
2659547	WORD	wordpools/wasnorm_wordpool_576.txt	LTP384	ltpFR2	6	14	SUNSET	1408	n/a	n/a	0	0	0
2662155	WORD	wordpools/wasnorm_wordpool_576.txt	LTP384	ltpFR2	6	14	SHRUB	1299	n/a	n/a	0	0	0
2664863	WORD	wordpools/wasnorm_wordpool_576.txt	LTP384	ltpFR2	6	14	PASTA	1021	n/a	n/a	0	0	0
2667556	WORD	wordpools/wasnorm_wordpool_576.txt	LTP384	ltpFR2	6	14	PARSLEY	1016	n/a	n/a	0	0	0
2670148	WORD	wordpools/wasnorm_wordpool_576.txt	LTP384	ltpFR2	6	14	CHAUFFEUR	283	n/a	n/a	0	0	0
2672622	WORD	wordpools/wasnorm_wordpool_576.txt	LTP384	ltpFR2	6	14	AIRPLANE	12	n/a	n/a	0	0	0
2675398	WORD	wordpools/wasnorm_wordpool_576.txt	LTP384	ltpFR2	6	14	TART	1436	n/a	n/a	0	0	0
2678040	WORD	wordpools/wasnorm_wordpool_576.txt	LTP384	ltpFR2	6	14	BABY	64	n/a	n/a	0	0	0
2680565	WORD	wordpools/wasnorm_wordpool_576.txt	LTP384	ltpFR2	6	14	HIGHWAY	707	n/a	n/a	0	0	0
2683090	WORD	wordpools/wasnorm_wordpool_576.txt	LTP384	ltpFR2	6	14	CONVICT	371	n/a	n/a	0	0	0
2685848	WORD	wordpools/wasnorm_wordpool_576.txt	LTP384	ltpFR2	6	14	OUTLAW	989	n/a	n/a	0	0	0
2688357	WORD	wordpools/wasnorm_wordpool_576.txt	LTP384	ltpFR2	6	14	DOUGHNUT	490	n/a	n/a	0	0	0
2690830	WORD	wordpools/wasnorm_wordpool_576.txt	LTP384	ltpFR2	6	14	CHURCH	307	n/a	n/a	0	0	0
2693273	WORD	wordpools/wasnorm_wordpool_576.txt	LTP384	ltpFR2	6	14	TEMPLE	1448	n/a	n/a	0	0	0
2695830	WORD	wordpools/wasnorm_wordpool_576.txt	LTP384	ltpFR2	6	14	BOX	159	n/a	n/a	0	0	0
2698623	WORD	wordpools/wasnorm_wordpool_576.txt	LTP384	ltpFR2	6	14	MARS	873	n/a	n/a	0	0	0
2701282	WORD	wordpools/wasnorm_wordpool_576.txt	LTP384	ltpFR2	6	14	BRAKE	166	n/a	n/a	0	0	0
2702886	START	n/a	LTP384	ltpFR2	6	n/a	n/a	n/a	21	n/a	n/a	n/a	n/a
2703914	DISTRACTOR	n/a	LTP384	ltpFR2	6	14	n/a	n/a	n/a	n/a	0	0	0
2703923	PROB	n/a	LTP384	ltpFR2	6	n/a	n/a	n/a	21	15	1	5	9
2707184	PROB	n/a	LTP384	ltpFR2	6	n/a	n/a	n/a	21	5	2	1	2
2708956	PROB	n/a	LTP384	ltpFR2	6	n/a	n/a	n/a	21	18	6	7	5
2711114	PROB	n/a	LTP384	ltpFR2	6	n/a	n/a	n/a	21	12	3	1	8
2713771	PROB	n/a	LTP384	ltpFR2	6	n/a	n/a	n/a	21	7	1	5	1
2715428	PROB	n/a	LTP384	ltpFR2	6	n/a	n/a	n/a	21	10	1	5	4
2717401	PROB	n/a	LTP384	ltpFR2	6	n/a	n/a	n/a	21	12	3	8	1
2719541	PROB	n/a	LTP384	ltpFR2	6	n/a	n/a	n/a	21	6	4	1	1
2720945	PROB	n/a	LTP384	ltpFR2	6	n/a	n/a	n/a	21	14	5	4	5
2722618	PROB	n/a	LTP384	ltpFR2	6	n/a	n/a	n/a	21	19	4	9	6
2724924	PROB	n/a	LTP384	ltpFR2	6	n/a	n/a	n/a	21	13	9	1	3
2726546	STOP	n/a	LTP384	ltpFR2	6	n/a	n/a	n/a	21	n/a	n/a	n/a	n/a
2728804	REC_START	n/a	LTP384	ltpFR2	6	14	n/a	n/a	n/a	n/a	0	0	0
2729083	REC_WORD	wordpools/wasnorm_wordpool_576.txt	LTP384	ltpFR2	6	14	MARS	873	n/a	n/a	0	0	0
2729925	REC_WORD	wordpools/wasnorm_wordpool_576.txt	LTP384	ltpFR2	6	14	BRAKE	166	n/a	n/a	0	0	0
2732446	REC_WORD	wordpools/wasnorm_wordpool_576.txt	LTP384	ltpFR2	6	14	TEMPLE	1448	n/a	n/a	0	0	0
2733311	REC_WORD	wordpools/wasnorm_wordpool_576.txt	LTP384	ltpFR2	6	14	CHURCH	307	n/a	n/a	0	0	0
2734162	REC_WORD	wordpools/wasnorm_wordpool_576.txt	LTP384	ltpFR2	6	14	PASTA	1021	n/a	n/a	0	0	0
2735191	REC_WORD	wordpools/wasnorm_wordpool_576.txt	LTP384	ltpFR2	6	14	PEPPER	1047	n/a	n/a	0	0	0
2736145	REC_WORD	wordpools/wasnorm_wordpool_576.txt	LTP384	ltpFR2	6	14	TWISTER	1530	n/a	n/a	0	0	0
2737088	REC_WORD	wordpools/wasnorm_wordpool_576.txt	LTP384	ltpFR2	6	14	SUNSET	1408	n/a	n/a	0	0	0
2738207	REC_WORD	wordpools/wasnorm_wordpool_576.txt	LTP384	ltpFR2	6	14	CANYON	235	n/a	n/a	0	0	0
2739062	REC_WORD	wordpools/wasnorm_wordpool_576.txt	LTP384	ltpFR2	6	14	CYCLONE	431	n/a	n/a	0	0	0
2741992	REC_WORD	wordpools/wasnorm_wordpool_576.txt	LTP384	ltpFR2	6	14	NURSE	963	n/a	n/a	0	0	0
2742777	REC_WORD	wordpools/wasnorm_wordpool_576.txt	LTP384	ltpFR2	6	14	PAIL	1002	n/a	n/a	0	0	0
2743517	REC_WORD	wordpools/wasnorm_wordpool_576.txt	LTP384	ltpFR2	6	14	JUNGLE	764	n/a	n/a	0	0	0
2747629	REC_WORD	wordpools/wasnorm_wordpool_576.txt	LTP384	ltpFR2	6	14	PEPPER	1047	n/a	n/a	0	0	0
2748372	REC_WORD	wordpools/wasnorm_wordpool_576.txt	LTP384	ltpFR2	6	14	PARSLEY	1016	n/a	n/a	0	0	0
2762361	REC_WORD	wordpools/wasnorm_wordpool_576.txt	LTP384	ltpFR2	6	14	DOUGHNUT	490	n/a	n/a	0	0	0
2763166	REC_WORD	wordpools/wasnorm_wordpool_576.txt	LTP384	ltpFR2	6	14	OUTLAW	989	n/a	n/a	0	0	0
2764572	REC_WORD	wordpools/wasnorm_wordpool_576.txt	LTP384	ltpFR2	6	14	CONVICT	371	n/a	n/a	0	0	0
2772362	REC_WORD	wordpools/wasnorm_wordpool_576.txt	LTP384	ltpFR2	6	14	SHRUB	1299	n/a	n/a	0	0	0
2803469	REC_WORD	wordpools/wasnorm_wordpool_576.txt	LTP384	ltpFR2	6	14	CYCLONE	431	n/a	n/a	0	0	0
2819247	WORD	wordpools/wasnorm_wordpool_576.txt	LTP384	ltpFR2	6	15	BANQUET	86	n/a	n/a	0	0	0
2821955	WORD	wordpools/wasnorm_wordpool_576.txt	LTP384	ltpFR2	6	15	PROTON	1132	n/a	n/a	0	0	0
2824531	WORD	wordpools/wasnorm_wordpool_576.txt	LTP384	ltpFR2	6	15	BEAKER	104	n/a	n/a	0	0	0
2827123	WORD	wordpools/wasnorm_wordpool_576.txt	LTP384	ltpFR2	6	15	MAMMAL	861	n/a	n/a	0	0	0
2829764	WORD	wordpools/wasnorm_wordpool_576.txt	LTP384	ltpFR2	6	15	SUPPER	1411	n/a	n/a	0	0	0
2832540	WORD	wordpools/wasnorm_wordpool_576.txt	LTP384	ltpFR2	6	15	ZIPPER	1636	n/a	n/a	0	0	0
2835099	WORD	wordpools/wasnorm_wordpool_576.txt	LTP384	ltpFR2	6	15	BEAST	108	n/a	n/a	0	0	0
2837840	WORD	wordpools/wasnorm_wordpool_576.txt	LTP384	ltpFR2	6	15	MUFFIN	929	n/a	n/a	0	0	0
2840265	WORD	wordpools/wasnorm_wordpool_576.txt	LTP384	ltpFR2	6	15	FRANCE	601	n/a	n/a	0	0	0
2842789	WORD	wordpools/wasnorm_wordpool_576.txt	LTP384	ltpFR2	6	15	SNACK	1331	n/a	n/a	0	0	0
2845349	WORD	wordpools/wasnorm_wordpool_576.txt	LTP384	ltpFR2	6	15	CLOTHES	327	n/a	n/a	0	0	0
2847856	WORD	wordpools/wasnorm_wordpool_576.txt	LTP384	ltpFR2	6	15	WASHER	1592	n/a	n/a	0	0	0
2850616	WORD	wordpools/wasnorm_wordpool_576.txt	LTP384	ltpFR2	6	15	PENGUIN	1044	n/a	n/a	0	0	0
2853057	WORD	wordpools/wasnorm_wordpool_576.txt	LTP384	ltpFR2	6	15	BUGGY	188	n/a	n/a	0	0	0
2855798	WORD	wordpools/wasnorm_wordpool_576.txt	LTP384	ltpFR2	6	15	COWBOY	395	n/a	n/a	0	0	0
2858341	WORD	wordpools/wasnorm_wordpool_576.txt	LTP384	ltpFR2	6	15	POSSUM	1112	n/a	n/a	0	0	0
2860881	WORD	wordpools/wasnorm_wordpool_576.txt	LTP384	ltpFR2	6	15	JEANS	752	n/a	n/a	0	0	0
2863541	WORD	wordpools/wasnorm_wordpool_576.txt	LTP384	ltpFR2	6	15	TRIBE	1505	n/a	n/a	0	0	0
2866216	WORD	wordpools/wasnorm_wordpool_576.txt	LTP384	ltpFR2	6	15	QUARTER	1148	n/a	n/a	0	0	0
2868823	WORD	wordpools/wasnorm_wordpool_576.txt	LTP384	ltpFR2	6	15	FLIPPER	580	n/a	n/a	0	0	0
2871333	WORD	wordpools/wasnorm_wordpool_576.txt	LTP384	ltpFR2	6	15	VENUS	1557	n/a	n/a	0	0	0
2873773	WORD	wordpools/wasnorm_wordpool_576.txt	LTP384	ltpFR2	6	15	GRILL	661	n/a	n/a	0	0	0
2876433	WORD	wordpools/wasnorm_wordpool_576.txt	LTP384	ltpFR2	6	15	TYPIST	1532	n/a	n/a	0	0	0
2879225	WORD	wordpools/wasnorm_wordpool_576.txt	LTP384	ltpFR2	6	15	PLAID	1080	n/a	n/a	0	0	0
2880829	START	n/a	LTP384	ltpFR2	6	n/a	n/a	n/a	22	n/a	n/a	n/a	n/a
2881717	DISTRACTOR	n/a	LTP384	ltpFR2	6	15	n/a	n/a	n/a	n/a	0	0	0
2881732	PROB	n/a	LTP384	ltpFR2	6	n/a	n/a	n/a	22	10	2	5	3
2884458	PROB	n/a	LTP384	ltpFR2	6	n/a	n/a	n/a	22	13	7	5	1
2887301	PROB	n/a	LTP384	ltpFR2	6	n/a	n/a	n/a	22	18	8	8	2
2889775	PROB	n/a	LTP384	ltpFR2	6	n/a	n/a	n/a	22	21	8	9	4
2894575	PROB	n/a	LTP384	ltpFR2	6	n/a	n/a	n/a	22	12	2	3	7
2896397	PROB	n/a	LTP384	ltpFR2	6	n/a	n/a	n/a	22	15	1	8	6
2899440	PROB	n/a	LTP384	ltpFR2	6	n/a	n/a	n/a	22	6	1	3	2
2900961	PROB	n/a	LTP384	ltpFR2	6	n/a	n/a	n/a	22	7	3	3	1
2904828	STOP	n/a	LTP384	ltpFR2	6	n/a	n/a	n/a	22	n/a	n/a	n/a	n/a
2906680	REC_START	n/a	LTP384	ltpFR2	6	15	n/a	n/a	n/a	n/a	0	0	0
2907513	REC_WORD	wordpools/wasnorm_wordpool_576.txt	LTP384	ltpFR2	6	15	TYPIST	1532	n/a	n/a	0	0	0
2908377	REC_WORD	wordpools/wasnorm_wordpool_576.txt	LTP384	ltpFR2	6	15	PLAID	1080	n/a	n/a	0	0	0
2909485	REC_WORD	wordpools/wasnorm_wordpool_576.txt	LTP384	ltpFR2	6	15	GRILL	661	n/a	n/a	0	0	0
2911058	REC_WORD	wordpools/wasnorm_wordpool_576.txt	LTP384	ltpFR2	6	15	MARS	873	n/a	n/a	0	0	0
2937200	REC_WORD	wordpools/wasnorm_wordpool_576.txt	LTP384	ltpFR2	6	15	MAMMAL	861	n/a	n/a	0	0	0
2937980	REC_WORD	wordpools/wasnorm_wordpool_576.txt	LTP384	ltpFR2	6	15	BEAKER	104	n/a	n/a	0	0	0
2938630	REC_WORD	wordpools/wasnorm_wordpool_576.txt	LTP384	ltpFR2	6	15	BANQUET	86	n/a	n/a	0	0	0
2939222	REC_WORD	wordpools/wasnorm_wordpool_576.txt	LTP384	ltpFR2	6	15	FRANCE	601	n/a	n/a	0	0	0
2940724	REC_WORD	wordpools/wasnorm_wordpool_576.txt	LTP384	ltpFR2	6	15	PROTON	1132	n/a	n/a	0	0	0
2941724	REC_WORD_VV	wordpools/wasnorm_wordpool_576.txt	LTP384	ltpFR2	6	15	<>	-1	n/a	n/a	0	0	0
2943254	REC_WORD	wordpools/wasnorm_wordpool_576.txt	LTP384	ltpFR2	6	15	BEAST	108	n/a	n/a	0	0	0
2945008	REC_WORD	wordpools/wasnorm_wordpool_576.txt	LTP384	ltpFR2	6	15	SNACK	1331	n/a	n/a	0	0	0
2946889	REC_WORD	wordpools/wasnorm_wordpool_576.txt	LTP384	ltpFR2	6	15	MUFFIN	929	n/a	n/a	0	0	0
2948276	REC_WORD	wordpools/wasnorm_wordpool_576.txt	LTP384	ltpFR2	6	15	SUPPER	1411	n/a	n/a	0	0	0
2968692	REC_WORD	wordpools/wasnorm_wordpool_576.txt	LTP384	ltpFR2	6	15	CLOTHES	327	n/a	n/a	0	0	0
2969352	REC_WORD	wordpools/wasnorm_wordpool_576.txt	LTP384	ltpFR2	6	15	ZIPPER	1636	n/a	n/a	0	0	0
2969967	REC_WORD	wordpools/wasnorm_wordpool_576.txt	LTP384	ltpFR2	6	15	QUARTER	1148	n/a	n/a	0	0	0
2971110	REC_WORD	wordpools/wasnorm_wordpool_576.txt	LTP384	ltpFR2	6	15	FLIPPER	580	n/a	n/a	0	0	0
2977066	REC_WORD	wordpools/wasnorm_wordpool_576.txt	LTP384	ltpFR2	6	15	WASHER	1592	n/a	n/a	0	0	0
2997140	WORD	wordpools/wasnorm_wordpool_576.txt	LTP384	ltpFR2	6	16	LADDER	793	n/a	n/a	0	0	0
2999931	WORD	wordpools/wasnorm_wordpool_576.txt	LTP384	ltpFR2	6	16	CLIMBER	323	n/a	n/a	0	0	0
3002424	WORD	wordpools/wasnorm_wordpool_576.txt	LTP384	ltpFR2	6	16	TOURIST	1488	n/a	n/a	0	0	0
3004864	WORD	wordpools/wasnorm_wordpool_576.txt	LTP384	ltpFR2	6	16	STONE	1385	n/a	n/a	0	0	0
3007306	WORD	wordpools/wasnorm_wordpool_576.txt	LTP384	ltpFR2	6	16	TUNNEL	1519	n/a	n/a	0	0	0
3009830	WORD	wordpools/wasnorm_wordpool_576.txt	LTP384	ltpFR2	6	16	SCARECROW	1245	n/a	n/a	0	0	0
3012373	WORD	wordpools/wasnorm_wordpool_576.txt	LTP384	ltpFR2	6	16	BULLET	194	n/a	n/a	0	0	0
3015148	WORD	wordpools/wasnorm_wordpool_576.txt	LTP384	ltpFR2	6	16	ANTLER	29	n/a	n/a	0	0	0
3017806	WORD	wordpools/wasnorm_wordpool_576.txt	LTP384	ltpFR2	6	16	CEILING	265	n/a	n/a	0	0	0
3020566	WORD	wordpools/wasnorm_wordpool_576.txt	LTP384	ltpFR2	6	16	RAFT	1159	n/a	n/a	0	0	0
3023224	WORD	wordpools/wasnorm_wordpool_576.txt	LTP384	ltpFR2	6	16	VIKING	1565	n/a	n/a	0	0	0
3025916	WORD	wordpools/wasnorm_wordpool_576.txt	LTP384	ltpFR2	6	16	LACE	792	n/a	n/a	0	0	0
3028492	WORD	wordpools/wasnorm_wordpool_576.txt	LTP384	ltpFR2	6	16	MUMMY	932	n/a	n/a	0	0	0
3030999	WORD	wordpools/wasnorm_wordpool_576.txt	LTP384	ltpFR2	6	16	JELLY	755	n/a	n/a	0	0	0
3033575	WORD	wordpools/wasnorm_wordpool_576.txt	LTP384	ltpFR2	6	16	YOLK	1633	n/a	n/a	0	0	0
3036033	WORD	wordpools/wasnorm_wordpool_576.txt	LTP384	ltpFR2	6	16	FRECKLE	602	n/a	n/a	0	0	0
3038774	WORD	wordpools/wasnorm_wordpool_576.txt	LTP384	ltpFR2	6	16	CASKET	255	n/a	n/a	0	0	0
3041484	WORD	wordpools/wasnorm_wordpool_576.txt	LTP384	ltpFR2	6	16	LAMP	798	n/a	n/a	0	0	0
3043974	WORD	wordpools/wasnorm_wordpool_576.txt	LTP384	ltpFR2	6	16	POPCORN	1104	n/a	n/a	0	0	0
3046617	WORD	wordpools/wasnorm_wordpool_576.txt	LTP384	ltpFR2	6	16	AUTHOR	61	n/a	n/a	0	0	0
3049041	WORD	wordpools/wasnorm_wordpool_576.txt	LTP384	ltpFR2	6	16	SHELF	1280	n/a	n/a	0	0	0
3051749	WORD	wordpools/wasnorm_wordpool_576.txt	LTP384	ltpFR2	6	16	BARLEY	88	n/a	n/a	0	0	0
3054292	WORD	wordpools/wasnorm_wordpool_576.txt	LTP384	ltpFR2	6	16	POISON	1096	n/a	n/a	0	0	0
3056899	WORD	wordpools/wasnorm_wordpool_576.txt	LTP384	ltpFR2	6	16	PEBBLE	1035	n/a	n/a	0	0	0
3058505	START	n/a	LTP384	ltpFR2	6	n/a	n/a	n/a	23	n/a	n/a	n/a	n/a
3059624	DISTRACTOR	n/a	LTP384	ltpFR2	6	16	n/a	n/a	n/a	n/a	0	0	0
3059626	PROB	n/a	LTP384	ltpFR2	6	n/a	n/a	n/a	23	12	4	3	5
3062435	PROB	n/a	LTP384	ltpFR2	6	n/a	n/a	n/a	23	11	7	2	2
3064858	PROB	n/a	LTP384	ltpFR2	6	n/a	n/a	n/a	23	18	2	9	7
3068053	PROB	n/a	LTP384	ltpFR2	6	n/a	n/a	n/a	23	15	5	1	9
3070645	PROB	n/a	LTP384	ltpFR2	6	n/a	n/a	n/a	23	14	4	5	5
3072233	PROB	n/a	LTP384	ltpFR2	6	n/a	n/a	n/a	23	13	6	6	1
3074206	PROB	n/a	LTP384	ltpFR2	6	n/a	n/a	n/a	23	12	5	3	4
3078803	PROB	n/a	LTP384	ltpFR2	6	n/a	n/a	n/a	23	9	3	5	1
3082505	STOP	n/a	LTP384	ltpFR2	6	n/a	n/a	n/a	23	n/a	n/a	n/a	n/a
3084323	REC_START	n/a	LTP384	ltpFR2	6	16	n/a	n/a	n/a	n/a	0	0	0
3084822	REC_WORD	wordpools/wasnorm_wordpool_576.txt	LTP384	ltpFR2	6	16	BARLEY	88	n/a	n/a	0	0	0
3085680	REC_WORD	wordpools/wasnorm_wordpool_576.txt	LTP384	ltpFR2	6	16	POISON	1096	n/a	n/a	0	0	0
3086655	REC_WORD	wordpools/wasnorm_wordpool_576.txt	LTP384	ltpFR2	6	16	PEBBLE	1035	n/a	n/a	0	0	0
3088237	REC_WORD	wordpools/wasnorm_wordpool_576.txt	LTP384	ltpFR2	6	16	MUMMY	932	n/a	n/a	0	0	0
3089132	REC_WORD	wordpools/wasnorm_wordpool_576.txt	LTP384	ltpFR2	6	16	LACE	792	n/a	n/a	0	0	0
3090593	REC_WORD	wordpools/wasnorm_wordpool_576.txt	LTP384	ltpFR2	6	16	CASKET	255	n/a	n/a	0	0	0
3091731	REC_WORD	wordpools/wasnorm_wordpool_576.txt	LTP384	ltpFR2	6	16	LAMP	798	n/a	n/a	0	0	0
3092656	REC_WORD	wordpools/wasnorm_wordpool_576.txt	LTP384	ltpFR2	6	16	JELLY	755	n/a	n/a	0	0	0
3093591	REC_WORD	wordpools/wasnorm_wordpool_576.txt	LTP384	ltpFR2	6	16	YOLK	1633	n/a	n/a	0	0	0
3095348	REC_WORD	wordpools/wasnorm_wordpool_576.txt	LTP384	ltpFR2	6	16	FRECKLE	602	n/a	n/a	0	0	0
3100267	REC_WORD	wordpools/wasnorm_wordpool_576.txt	LTP384	ltpFR2	6	16	VIKING	1565	n/a	n/a	0	0	0
3103032	REC_WORD	wordpools/wasnorm_wordpool_576.txt	LTP384	ltpFR2	6	16	LAMP	798	n/a	n/a	0	0	0
3127704	REC_WORD	wordpools/wasnorm_wordpool_576.txt	LTP384	ltpFR2	6	16	ANTLER	29	n/a	n/a	0	0	0
3128446	REC_WORD	wordpools/wasnorm_wordpool_576.txt	LTP384	ltpFR2	6	16	BULLET	194	n/a	n/a	0	0	0
3129069	REC_WORD	wordpools/wasnorm_wordpool_576.txt	LTP384	ltpFR2	6	16	SCARECROW	1245	n/a	n/a	0	0	0
3129893	REC_WORD	wordpools/wasnorm_wordpool_576.txt	LTP384	ltpFR2	6	16	TUNNEL	1519	n/a	n/a	0	0	0
3132000	REC_WORD	wordpools/wasnorm_wordpool_576.txt	LTP384	ltpFR2	6	16	CEILING	265	n/a	n/a	0	0	0
3134451	REC_WORD	wordpools/wasnorm_wordpool_576.txt	LTP384	ltpFR2	6	16	RAFT	1159	n/a	n/a	0	0	0
3137701	REC_WORD	wordpools/wasnorm_wordpool_576.txt	LTP384	ltpFR2	6	16	CLIMBER	323	n/a	n/a	0	0	0
3138461	REC_WORD	wordpools/wasnorm_wordpool_576.txt	LTP384	ltpFR2	6	16	STONE	1385	n/a	n/a	0	0	0
3140343	REC_WORD	wordpools/wasnorm_wordpool_576.txt	LTP384	ltpFR2	6	16	TOURIST	1488	n/a	n/a	0	0	0
3160852	REST_REWET	n/a	LTP384	ltpFR2	6	16	n/a	n/a	n/a	n/a	0	0	0
3270525	WORD	wordpools/wasnorm_wordpool_576.txt	LTP384	ltpFR2	6	17	CRIB	407	n/a	n/a	0	0	0
3273167	WORD	wordpools/wasnorm_wordpool_576.txt	LTP384	ltpFR2	6	17	MONSTER	912	n/a	n/a	0	0	0
3275641	WORD	wordpools/wasnorm_wordpool_576.txt	LTP384	ltpFR2	6	17	DRAWING	494	n/a	n/a	0	0	0
3278083	WORD	wordpools/wasnorm_wordpool_576.txt	LTP384	ltpFR2	6	17	WHISTLE	1606	n/a	n/a	0	0	0
3280857	WORD	wordpools/wasnorm_wordpool_576.txt	LTP384	ltpFR2	6	17	JUDGE	761	n/a	n/a	0	0	0
3283567	WORD	wordpools/wasnorm_wordpool_576.txt	LTP384	ltpFR2	6	17	HATCHET	691	n/a	n/a	0	0	0
3286159	WORD	wordpools/wasnorm_wordpool_576.txt	LTP384	ltpFR2	6	17	ELBOW	520	n/a	n/a	0	0	0
3288800	WORD	wordpools/wasnorm_wordpool_576.txt	LTP384	ltpFR2	6	17	DRILL	497	n/a	n/a	0	0	0
3291493	WORD	wordpools/wasnorm_wordpool_576.txt	LTP384	ltpFR2	6	17	POSTAGE	1113	n/a	n/a	0	0	0
3294118	WORD	wordpools/wasnorm_wordpool_576.txt	LTP384	ltpFR2	6	17	PLATE	1086	n/a	n/a	0	0	0
3296626	WORD	wordpools/wasnorm_wordpool_576.txt	LTP384	ltpFR2	6	17	CUPBOARD	425	n/a	n/a	0	0	0
3299218	WORD	wordpools/wasnorm_wordpool_576.txt	LTP384	ltpFR2	6	17	EXPERT	543	n/a	n/a	0	0	0
3301892	WORD	wordpools/wasnorm_wordpool_576.txt	LTP384	ltpFR2	6	17	BURGLAR	200	n/a	n/a	0	0	0
3304468	WORD	wordpools/wasnorm_wordpool_576.txt	LTP384	ltpFR2	6	17	CHILD	299	n/a	n/a	0	0	0
3306875	WORD	wordpools/wasnorm_wordpool_576.txt	LTP384	ltpFR2	6	17	JOURNAL	760	n/a	n/a	0	0	0
3309451	WORD	wordpools/wasnorm_wordpool_576.txt	LTP384	ltpFR2	6	17	STAMP	1370	n/a	n/a	0	0	0
3311908	WORD	wordpools/wasnorm_wordpool_576.txt	LTP384	ltpFR2	6	17	MESSAGE	888	n/a	n/a	0	0	0
3314700	WORD	wordpools/wasnorm_wordpool_576.txt	LTP384	ltpFR2	6	17	MAILMAN	858	n/a	n/a	0	0	0
3317360	WORD	wordpools/wasnorm_wordpool_576.txt	LTP384	ltpFR2	6	17	CARROT	249	n/a	n/a	0	0	0
3320135	WORD	wordpools/wasnorm_wordpool_576.txt	LTP384	ltpFR2	6	17	SISTER	1312	n/a	n/a	0	0	0
3322560	WORD	wordpools/wasnorm_wordpool_576.txt	LTP384	ltpFR2	6	17	FRIEND	606	n/a	n/a	0	0	0
3325185	WORD	wordpools/wasnorm_wordpool_576.txt	LTP384	ltpFR2	6	17	BUCKET	184	n/a	n/a	0	0	0
3327993	WORD	wordpools/wasnorm_wordpool_576.txt	LTP384	ltpFR2	6	17	JELLO	754	n/a	n/a	0	0	0
3330769	WORD	wordpools/wasnorm_wordpool_576.txt	LTP384	ltpFR2	6	17	GLOBE	641	n/a	n/a	0	0	0
3332375	START	n/a	LTP384	ltpFR2	6	n/a	n/a	n/a	24	n/a	n/a	n/a	n/a
3333400	DISTRACTOR	n/a	LTP384	ltpFR2	6	17	n/a	n/a	n/a	n/a	0	0	0
3333412	PROB	n/a	LTP384	ltpFR2	6	n/a	n/a	n/a	24	19	9	7	3
3335651	PROB	n/a	LTP384	ltpFR2	6	n/a	n/a	n/a	24	17	6	6	5
3339915	PROB	n/a	LTP384	ltpFR2	6	n/a	n/a	n/a	24	16	4	5	7
3343645	PROB	n/a	LTP384	ltpFR2	6	n/a	n/a	n/a	24	18	6	7	5
3346670	PROB	n/a	LTP384	ltpFR2	6	n/a	n/a	n/a	24	15	9	1	5
3348176	PROB	n/a	LTP384	ltpFR2	6	n/a	n/a	n/a	24	15	4	3	8
3350099	PROB	n/a	LTP384	ltpFR2	6	n/a	n/a	n/a	24	14	8	4	2
3352122	PROB	n/a	LTP384	ltpFR2	6	n/a	n/a	n/a	24	13	4	1	8
3355396	STOP	n/a	LTP384	ltpFR2	6	n/a	n/a	n/a	24	n/a	n/a	n/a	n/a
3358209	REC_START	n/a	LTP384	ltpFR2	6	17	n/a	n/a	n/a	n/a	0	0	0
3359950	REC_WORD	wordpools/wasnorm_wordpool_576.txt	LTP384	ltpFR2	6	17	GLOBE	641	n/a	n/a	0	0	0
3360819	REC_WORD	wordpools/wasnorm_wordpool_576.txt	LTP384	ltpFR2	6	17	MAILMAN	858	n/a	n/a	0	0	0
3361765	REC_WORD	wordpools/wasnorm_wordpool_576.txt	LTP384	ltpFR2	6	17	CARROT	249	n/a	n/a	0	0	0
3362576	REC_WORD	wordpools/wasnorm_wordpool_576.txt	LTP384	ltpFR2	6	17	SISTER	1312	n/a	n/a	0	0	0
3363535	REC_WORD	wordpools/wasnorm_wordpool_576.txt	LTP384	ltpFR2	6	17	FRIEND	606	n/a	n/a	0	0	0
3364579	REC_WORD	wordpools/wasnorm_wordpool_576.txt	LTP384	ltpFR2	6	17	BUCKET	184	n/a	n/a	0	0	0
3366747	REC_WORD	wordpools/wasnorm_wordpool_576.txt	LTP384	ltpFR2	6	17	POSTAGE	1113	n/a	n/a	0	0	0
3367784	REC_WORD	wordpools/wasnorm_wordpool_576.txt	LTP384	ltpFR2	6	17	CRIB	407	n/a	n/a	0	0	0
3371151	REC_WORD	wordpools/wasnorm_wordpool_576.txt	LTP384	ltpFR2	6	17	STAMP	1370	n/a	n/a	0	0	0
3372436	REC_WORD	wordpools/wasnorm_wordpool_576.txt	LTP384	ltpFR2	6	17	MESSAGE	888	n/a	n/a	0	0	0
3375603	REC_WORD	wordpools/wasnorm_wordpool_576.txt	LTP384	ltpFR2	6	17	MONSTER	912	n/a	n/a	0	0	0
3376613	REC_WORD	wordpools/wasnorm_wordpool_576.txt	LTP384	ltpFR2	6	17	DRAWING	494	n/a	n/a	0	0	0
3378863	REC_WORD	wordpools/wasnorm_wordpool_576.txt	LTP384	ltpFR2	6	17	CUPBOARD	425	n/a	n/a	0	0	0
3379711	REC_WORD	wordpools/wasnorm_wordpool_576.txt	LTP384	ltpFR2	6	17	PLATE	1086	n/a	n/a	0	0	0
3382207	REC_WORD	wordpools/wasnorm_wordpool_576.txt	LTP384	ltpFR2	6	17	EXPERT	543	n/a	n/a	0	0	0
3383137	REC_WORD	wordpools/wasnorm_wordpool_576.txt	LTP384	ltpFR2	6	17	JUDGE	761	n/a	n/a	0	0	0
3383888	REC_WORD	wordpools/wasnorm_wordpool_576.txt	LTP384	ltpFR2	6	17	HATCHET	691	n/a	n/a	0	0	0
3384775	REC_WORD	wordpools/wasnorm_wordpool_576.txt	LTP384	ltpFR2	6	17	ELBOW	520	n/a	n/a	0	0	0
3385604	REC_WORD	wordpools/wasnorm_wordpool_576.txt	LTP384	ltpFR2	6	17	DRILL	497	n/a	n/a	0	0	0
3390552	REC_WORD	wordpools/wasnorm_wordpool_576.txt	LTP384	ltpFR2	6	17	BURGLAR	200	n/a	n/a	0	0	0
3391279	REC_WORD	wordpools/wasnorm_wordpool_576.txt	LTP384	ltpFR2	6	17	EXPERT	543	n/a	n/a	0	0	0
3393848	REC_WORD	wordpools/wasnorm_wordpool_576.txt	LTP384	ltpFR2	6	17	CHILD	299	n/a	n/a	0	0	0
3432114	REC_WORD	wordpools/wasnorm_wordpool_576.txt	LTP384	ltpFR2	6	17	CARROT	249	n/a	n/a	0	0	0
3448650	DISTRACTOR	n/a	LTP384	ltpFR2	6	18	n/a	n/a	n/a	n/a	0	0	0
3448651	START	n/a	LTP384	ltpFR2	6	n/a	n/a	n/a	25	n/a	n/a	n/a	n/a
3448667	PROB	n/a	LTP384	ltpFR2	6	n/a	n/a	n/a	25	15	8	1	6
3453434	PROB	n/a	LTP384	ltpFR2	6	n/a	n/a	n/a	25	16	8	1	7
3455591	PROB	n/a	LTP384	ltpFR2	6	n/a	n/a	n/a	25	10	2	6	2
3457212	PROB	n/a	LTP384	ltpFR2	6	n/a	n/a	n/a	25	17	3	5	9
3459786	PROB	n/a	LTP384	ltpFR2	6	n/a	n/a	n/a	25	16	5	4	7
3462212	PROB	n/a	LTP384	ltpFR2	6	n/a	n/a	n/a	25	14	8	5	1
3464101	PROB	n/a	LTP384	ltpFR2	6	n/a	n/a	n/a	25	19	9	8	2
3466309	PROB	n/a	LTP384	ltpFR2	6	n/a	n/a	n/a	25	16	3	8	5
3468832	PROB	n/a	LTP384	ltpFR2	6	n/a	n/a	n/a	25	6	2	2	2
3472651	STOP	n/a	LTP384	ltpFR2	6	n/a	n/a	n/a	25	n/a	n/a	n/a	n/a
3473532	WORD	wordpools/wasnorm_wordpool_576.txt	LTP384	ltpFR2	6	18	PISTON	1076	n/a	n/a	0	0	0
3475955	WORD	wordpools/wasnorm_wordpool_576.txt	LTP384	ltpFR2	6	18	POLICE	1098	n/a	n/a	0	0	0
3478731	WORD	wordpools/wasnorm_wordpool_576.txt	LTP384	ltpFR2	6	18	SIDEWALK	1303	n/a	n/a	0	0	0
3481324	WORD	wordpools/wasnorm_wordpool_576.txt	LTP384	ltpFR2	6	18	HORNET	718	n/a	n/a	0	0	0
3484083	WORD	wordpools/wasnorm_wordpool_576.txt	LTP384	ltpFR2	6	18	WASP	1593	n/a	n/a	0	0	0
3486891	WORD	wordpools/wasnorm_wordpool_576.txt	LTP384	ltpFR2	6	18	EAGLE	512	n/a	n/a	0	0	0
3489417	WORD	wordpools/wasnorm_wordpool_576.txt	LTP384	ltpFR2	6	18	CIGAR	308	n/a	n/a	0	0	0
3491957	WORD	wordpools/wasnorm_wordpool_576.txt	LTP384	ltpFR2	6	18	MEDAL	885	n/a	n/a	0	0	0
3494683	WORD	wordpools/wasnorm_wordpool_576.txt	LTP384	ltpFR2	6	18	CASHEW	253	n/a	n/a	0	0	0
3497125	WORD	wordpools/wasnorm_wordpool_576.txt	LTP384	ltpFR2	6	18	PORK	1108	n/a	n/a	0	0	0
3499766	WORD	wordpools/wasnorm_wordpool_576.txt	LTP384	ltpFR2	6	18	PARROT	1015	n/a	n/a	0	0	0
3502359	WORD	wordpools/wasnorm_wordpool_576.txt	LTP384	ltpFR2	6	18	AGENT	10	n/a	n/a	0	0	0
3504866	WORD	wordpools/wasnorm_wordpool_576.txt	LTP384	ltpFR2	6	18	SWITCH	1422	n/a	n/a	0	0	0
3507559	WORD	wordpools/wasnorm_wordpool_576.txt	LTP384	ltpFR2	6	18	SPARROW	1347	n/a	n/a	0	0	0
3510184	WORD	wordpools/wasnorm_wordpool_576.txt	LTP384	ltpFR2	6	18	TURKEY	1520	n/a	n/a	0	0	0
3512642	WORD	wordpools/wasnorm_wordpool_576.txt	LTP384	ltpFR2	6	18	THREAD	1460	n/a	n/a	0	0	0
3515367	WORD	wordpools/wasnorm_wordpool_576.txt	LTP384	ltpFR2	6	18	FLAG	573	n/a	n/a	0	0	0
3517808	WORD	wordpools/wasnorm_wordpool_576.txt	LTP384	ltpFR2	6	18	DRINK	498	n/a	n/a	0	0	0
3520584	WORD	wordpools/wasnorm_wordpool_576.txt	LTP384	ltpFR2	6	18	FLASK	576	n/a	n/a	0	0	0
3523059	WORD	wordpools/wasnorm_wordpool_576.txt	LTP384	ltpFR2	6	18	RIFLE	1192	n/a	n/a	0	0	0
3525534	WORD	wordpools/wasnorm_wordpool_576.txt	LTP384	ltpFR2	6	18	BRACES	164	n/a	n/a	0	0	0
3528109	WORD	wordpools/wasnorm_wordpool_576.txt	LTP384	ltpFR2	6	18	POWDER	1117	n/a	n/a	0	0	0
3530749	WORD	wordpools/wasnorm_wordpool_576.txt	LTP384	ltpFR2	6	18	BREAST	171	n/a	n/a	0	0	0
3533325	WORD	wordpools/wasnorm_wordpool_576.txt	LTP384	ltpFR2	6	18	CONTRACT	368	n/a	n/a	0	0	0
3534930	START	n/a	LTP384	ltpFR2	6	n/a	n/a	n/a	26	n/a	n/a	n/a	n/a
3535830	DISTRACTOR	n/a	LTP384	ltpFR2	6	18	n/a	n/a	n/a	n/a	0	0	0
3535833	PROB	n/a	LTP384	ltpFR2	6	n/a	n/a	n/a	26	16	7	5	4
3540499	PROB	n/a	LTP384	ltpFR2	6	n/a	n/a	n/a	26	10	1	5	4
3544027	PROB	n/a	LTP384	ltpFR2	6	n/a	n/a	n/a	26	5	1	3	1
3545632	PROB	n/a	LTP384	ltpFR2	6	n/a	n/a	n/a	26	13	8	1	4
3550731	PROB	n/a	LTP384	ltpFR2	6	n/a	n/a	n/a	26	11	7	3	1
3552621	PROB	n/a	LTP384	ltpFR2	6	n/a	n/a	n/a	26	11	7	1	3
3555397	PROB	n/a	LTP384	ltpFR2	6	n/a	n/a	n/a	26	17	1	8	8
3558074	STOP	n/a	LTP384	ltpFR2	6	n/a	n/a	n/a	26	n/a	n/a	n/a	n/a
3560865	REC_START	n/a	LTP384	ltpFR2	6	18	n/a	n/a	n/a	n/a	0	0	0
3563016	REC_WORD	wordpools/wasnorm_wordpool_576.txt	LTP384	ltpFR2	6	18	SIDEWALK	1303	n/a	n/a	0	0	0
3563943	REC_WORD	wordpools/wasnorm_wordpool_576.txt	LTP384	ltpFR2	6	18	POLICE	1098	n/a	n/a	0	0	0
3565123	REC_WORD	wordpools/wasnorm_wordpool_576.txt	LTP384	ltpFR2	6	18	WASP	1593	n/a	n/a	0	0	0
3566064	REC_WORD	wordpools/wasnorm_wordpool_576.txt	LTP384	ltpFR2	6	18	HORNET	718	n/a	n/a	0	0	0
3567621	REC_WORD	wordpools/wasnorm_wordpool_576.txt	LTP384	ltpFR2	6	18	EAGLE	512	n/a	n/a	0	0	0
3569702	REC_WORD	wordpools/wasnorm_wordpool_576.txt	LTP384	ltpFR2	6	18	FLAG	573	n/a	n/a	0	0	0
3570854	REC_WORD	wordpools/wasnorm_wordpool_576.txt	LTP384	ltpFR2	6	18	THREAD	1460	n/a	n/a	0	0	0
3572214	REC_WORD	wordpools/wasnorm_wordpool_576.txt	LTP384	ltpFR2	6	18	FLASK	576	n/a	n/a	0	0	0
3573447	REC_WORD	wordpools/wasnorm_wordpool_576.txt	LTP384	ltpFR2	6	18	DRINK	498	n/a	n/a	0	0	0
3600442	REC_WORD	wordpools/wasnorm_wordpool_576.txt	LTP384	ltpFR2	6	18	SPARROW	1347	n/a	n/a	0	0	0
3605254	REC_WORD	wordpools/wasnorm_wordpool_576.txt	LTP384	ltpFR2	6	18	PORK	1108	n/a	n/a	0	0	0
3618122	REC_WORD	wordpools/wasnorm_wordpool_576.txt	LTP384	ltpFR2	6	18	MEDAL	885	n/a	n/a	0	0	0
3651307	DISTRACTOR	n/a	LTP384	ltpFR2	6	19	n/a	n/a	n/a	n/a	0	0	0
3651307	START	n/a	LTP384	ltpFR2	6	n/a	n/a	n/a	27	n/a	n/a	n/a	n/a
3651324	PROB	n/a	LTP384	ltpFR2	6	n/a	n/a	n/a	27	8	5	2	1
3654484	PROB	n/a	LTP384	ltpFR2	6	n/a	n/a	n/a	27	16	5	4	7
3658831	PROB	n/a	LTP384	ltpFR2	6	n/a	n/a	n/a	27	21	9	4	8
3661340	PROB	n/a	LTP384	ltpFR2	6	n/a	n/a	n/a	27	15	7	5	3
3664182	PROB	n/a	LTP384	ltpFR2	6	n/a	n/a	n/a	27	20	7	7	6
3667058	PROB	n/a	LTP384	ltpFR2	6	n/a	n/a	n/a	27	14	1	8	5
3670352	PROB	n/a	LTP384	ltpFR2	6	n/a	n/a	n/a	27	15	5	1	9
3672559	PROB	n/a	LTP384	ltpFR2	6	n/a	n/a	n/a	27	21	7	7	7
3674012	STOP	n/a	LTP384	ltpFR2	6	n/a	n/a	n/a	27	n/a	n/a	n/a	n/a
3676522	WORD	wordpools/wasnorm_wordpool_576.txt	LTP384	ltpFR2	6	19	FLESH	579	n/a	n/a	0	0	0
3679147	WORD	wordpools/wasnorm_wordpool_576.txt	LTP384	ltpFR2	6	19	COCKTAIL	338	n/a	n/a	0	0	0
3681922	WORD	wordpools/wasnorm_wordpool_576.txt	LTP384	ltpFR2	6	19	POCKET	1093	n/a	n/a	0	0	0
3684632	WORD	wordpools/wasnorm_wordpool_576.txt	LTP384	ltpFR2	6	19	BEAVER	109	n/a	n/a	0	0	0
3687307	WORD	wordpools/wasnorm_wordpool_576.txt	LTP384	ltpFR2	6	19	TRACTOR	1493	n/a	n/a	0	0	0
3690116	WORD	wordpools/wasnorm_wordpool_576.txt	LTP384	ltpFR2	6	19	SCOTCH	1251	n/a	n/a	0	0	0
3692674	WORD	wordpools/wasnorm_wordpool_576.txt	LTP384	ltpFR2	6	19	SKETCH	1315	n/a	n/a	0	0	0
3695350	WORD	wordpools/wasnorm_wordpool_576.txt	LTP384	ltpFR2	6	19	FRAME	600	n/a	n/a	0	0	0
3698059	WORD	wordpools/wasnorm_wordpool_576.txt	LTP384	ltpFR2	6	19	HERO	706	n/a	n/a	0	0	0
3700634	WORD	wordpools/wasnorm_wordpool_576.txt	LTP384	ltpFR2	6	19	CRAYON	401	n/a	n/a	0	0	0
3703242	WORD	wordpools/wasnorm_wordpool_576.txt	LTP384	ltpFR2	6	19	KITCHEN	778	n/a	n/a	0	0	0
3705783	WORD	wordpools/wasnorm_wordpool_576.txt	LTP384	ltpFR2	6	19	CAMEL	223	n/a	n/a	0	0	0
3708359	WORD	wordpools/wasnorm_wordpool_576.txt	LTP384	ltpFR2	6	19	DUSTPAN	509	n/a	n/a	0	0	0
3710832	WORD	wordpools/wasnorm_wordpool_576.txt	LTP384	ltpFR2	6	19	DIME	466	n/a	n/a	0	0	0
3713291	WORD	wordpools/wasnorm_wordpool_576.txt	LTP384	ltpFR2	6	19	MARSH	874	n/a	n/a	0	0	0
3715882	WORD	wordpools/wasnorm_wordpool_576.txt	LTP384	ltpFR2	6	19	CONCERT	360	n/a	n/a	0	0	0
3718642	WORD	wordpools/wasnorm_wordpool_576.txt	LTP384	ltpFR2	6	19	GYMNAST	675	n/a	n/a	0	0	0
3721334	WORD	wordpools/wasnorm_wordpool_576.txt	LTP384	ltpFR2	6	19	GAZELLE	628	n/a	n/a	0	0	0
3723975	WORD	wordpools/wasnorm_wordpool_576.txt	LTP384	ltpFR2	6	19	YACHT	1629	n/a	n/a	0	0	0
3726551	WORD	wordpools/wasnorm_wordpool_576.txt	LTP384	ltpFR2	6	19	PADDLE	1000	n/a	n/a	0	0	0
3729243	WORD	wordpools/wasnorm_wordpool_576.txt	LTP384	ltpFR2	6	19	SPOON	1357	n/a	n/a	0	0	0
3731951	WORD	wordpools/wasnorm_wordpool_576.txt	LTP384	ltpFR2	6	19	FOX	598	n/a	n/a	0	0	0
3734594	WORD	wordpools/wasnorm_wordpool_576.txt	LTP384	ltpFR2	6	19	COIN	343	n/a	n/a	0	0	0
3737068	WORD	wordpools/wasnorm_wordpool_576.txt	LTP384	ltpFR2	6	19	LION	827	n/a	n/a	0	0	0
3738673	START	n/a	LTP384	ltpFR2	6	n/a	n/a	n/a	28	n/a	n/a	n/a	n/a
3739576	DISTRACTOR	n/a	LTP384	ltpFR2	6	19	n/a	n/a	n/a	n/a	0	0	0
3739593	PROB	n/a	LTP384	ltpFR2	6	n/a	n/a	n/a	28	11	1	6	4
3741833	PROB	n/a	LTP384	ltpFR2	6	n/a	n/a	n/a	28	14	1	8	5
3744158	PROB	n/a	LTP384	ltpFR2	6	n/a	n/a	n/a	28	18	7	4	7
3747034	PROB	n/a	LTP384	ltpFR2	6	n/a	n/a	n/a	28	8	3	1	4
3750445	PROB	n/a	LTP384	ltpFR2	6	n/a	n/a	n/a	28	16	3	9	4
3753855	PROB	n/a	LTP384	ltpFR2	6	n/a	n/a	n/a	28	10	2	6	2
3755728	PROB	n/a	LTP384	ltpFR2	6	n/a	n/a	n/a	28	19	2	9	8
3758554	PROB	n/a	LTP384	ltpFR2	6	n/a	n/a	n/a	28	18	8	1	9
3760878	PROB	n/a	LTP384	ltpFR2	6	n/a	n/a	n/a	28	12	4	4	4
3762264	STOP	n/a	LTP384	ltpFR2	6	n/a	n/a	n/a	28	n/a	n/a	n/a	n/a
3764558	REC_START	n/a	LTP384	ltpFR2	6	19	n/a	n/a	n/a	n/a	0	0	0
3765023	REC_WORD	wordpools/wasnorm_wordpool_576.txt	LTP384	ltpFR2	6	19	GAZELLE	628	n/a	n/a	0	0	0
3765945	REC_WORD	wordpools/wasnorm_wordpool_576.txt	LTP384	ltpFR2	6	19	LION	827	n/a	n/a	0	0	0
3766748	REC_WORD	wordpools/wasnorm_wordpool_576.txt	LTP384	ltpFR2	6	19	COIN	343	n/a	n/a	0	0	0
3767620	REC_WORD	wordpools/wasnorm_wordpool_576.txt	LTP384	ltpFR2	6	19	MARSH	874	n/a	n/a	0	0	0
3768363	REC_WORD	wordpools/wasnorm_wordpool_576.txt	LTP384	ltpFR2	6	19	YACHT	1629	n/a	n/a	0	0	0
3769255	REC_WORD	wordpools/wasnorm_wordpool_576.txt	LTP384	ltpFR2	6	19	PADDLE	1000	n/a	n/a	0	0	0
3777269	REC_WORD	wordpools/wasnorm_wordpool_576.txt	LTP384	ltpFR2	6	19	FOX	598	n/a	n/a	0	0	0
3778113	REC_WORD	wordpools/wasnorm_wordpool_576.txt	LTP384	ltpFR2	6	19	SPOON	1357	n/a	n/a	0	0	0
3782550	REC_WORD	wordpools/wasnorm_wordpool_576.txt	LTP384	ltpFR2	6	19	SCOTCH	1251	n/a	n/a	0	0	0
3784273	REC_WORD	wordpools/wasnorm_wordpool_576.txt	LTP384	ltpFR2	6	19	COCKTAIL	338	n/a	n/a	0	0	0
3785360	REC_WORD	wordpools/wasnorm_wordpool_576.txt	LTP384	ltpFR2	6	19	FLESH	579	n/a	n/a	0	0	0
3786581	REC_WORD	wordpools/wasnorm_wordpool_576.txt	LTP384	ltpFR2	6	19	POCKET	1093	n/a	n/a	0	0	0
3788011	REC_WORD	wordpools/wasnorm_wordpool_576.txt	LTP384	ltpFR2	6	19	BEAVER	109	n/a	n/a	0	0	0
3802286	REC_WORD	wordpools/wasnorm_wordpool_576.txt	LTP384	ltpFR2	6	19	CONCERT	360	n/a	n/a	0	0	0
3809052	REC_WORD	wordpools/wasnorm_wordpool_576.txt	LTP384	ltpFR2	6	19	DUSTPAN	509	n/a	n/a	0	0	0
3810382	REC_WORD	wordpools/wasnorm_wordpool_576.txt	LTP384	ltpFR2	6	19	DIME	466	n/a	n/a	0	0	0
3811615	REC_WORD	wordpools/wasnorm_wordpool_576.txt	LTP384	ltpFR2	6	19	KITCHEN	778	n/a	n/a	0	0	0
3813550	REC_WORD	wordpools/wasnorm_wordpool_576.txt	LTP384	ltpFR2	6	19	CRAYON	401	n/a	n/a	0	0	0
3814501	REC_WORD	wordpools/wasnorm_wordpool_576.txt	LTP384	ltpFR2	6	19	HERO	706	n/a	n/a	0	0	0
3815411	REC_WORD	wordpools/wasnorm_wordpool_576.txt	LTP384	ltpFR2	6	19	FRAME	600	n/a	n/a	0	0	0
3817592	REC_WORD	wordpools/wasnorm_wordpool_576.txt	LTP384	ltpFR2	6	19	SKETCH	1315	n/a	n/a	0	0	0
3855017	WORD	wordpools/wasnorm_wordpool_576.txt	LTP384	ltpFR2	6	20	BADGE	68	n/a	n/a	0	0	0
3857758	WORD	wordpools/wasnorm_wordpool_576.txt	LTP384	ltpFR2	6	20	DENTIST	447	n/a	n/a	0	0	0
3860200	WORD	wordpools/wasnorm_wordpool_576.txt	LTP384	ltpFR2	6	20	TRENCH	1503	n/a	n/a	0	0	0
3862757	WORD	wordpools/wasnorm_wordpool_576.txt	LTP384	ltpFR2	6	20	NEUTRON	947	n/a	n/a	0	0	0
3865216	WORD	wordpools/wasnorm_wordpool_576.txt	LTP384	ltpFR2	6	20	TROUT	1511	n/a	n/a	0	0	0
3867908	WORD	wordpools/wasnorm_wordpool_576.txt	LTP384	ltpFR2	6	20	LUGGAGE	847	n/a	n/a	0	0	0
3870467	WORD	wordpools/wasnorm_wordpool_576.txt	LTP384	ltpFR2	6	20	WARDROBE	1587	n/a	n/a	0	0	0
3873192	WORD	wordpools/wasnorm_wordpool_576.txt	LTP384	ltpFR2	6	20	LEOPARD	812	n/a	n/a	0	0	0
3875633	WORD	wordpools/wasnorm_wordpool_576.txt	LTP384	ltpFR2	6	20	GREASE	660	n/a	n/a	0	0	0
3878326	WORD	wordpools/wasnorm_wordpool_576.txt	LTP384	ltpFR2	6	20	BROTHER	179	n/a	n/a	0	0	0
3881000	WORD	wordpools/wasnorm_wordpool_576.txt	LTP384	ltpFR2	6	20	SIBLING	1301	n/a	n/a	0	0	0
3883442	WORD	wordpools/wasnorm_wordpool_576.txt	LTP384	ltpFR2	6	20	AWARD	63	n/a	n/a	0	0	0
3885999	WORD	wordpools/wasnorm_wordpool_576.txt	LTP384	ltpFR2	6	20	MOTOR	922	n/a	n/a	0	0	0
3888658	WORD	wordpools/wasnorm_wordpool_576.txt	LTP384	ltpFR2	6	20	SEAFOOD	1260	n/a	n/a	0	0	0
3891301	WORD	wordpools/wasnorm_wordpool_576.txt	LTP384	ltpFR2	6	20	MISTER	901	n/a	n/a	0	0	0
3893825	WORD	wordpools/wasnorm_wordpool_576.txt	LTP384	ltpFR2	6	20	NOMAD	955	n/a	n/a	0	0	0
3896234	WORD	wordpools/wasnorm_wordpool_576.txt	LTP384	ltpFR2	6	20	PATROL	1027	n/a	n/a	0	0	0
3898774	WORD	wordpools/wasnorm_wordpool_576.txt	LTP384	ltpFR2	6	20	ROBOT	1200	n/a	n/a	0	0	0
3901434	WORD	wordpools/wasnorm_wordpool_576.txt	LTP384	ltpFR2	6	20	FOOT	590	n/a	n/a	0	0	0
3904243	WORD	wordpools/wasnorm_wordpool_576.txt	LTP384	ltpFR2	6	20	CABIN	211	n/a	n/a	0	0	0
3906783	WORD	wordpools/wasnorm_wordpool_576.txt	LTP384	ltpFR2	6	20	CITRUS	313	n/a	n/a	0	0	0
3909209	WORD	wordpools/wasnorm_wordpool_576.txt	LTP384	ltpFR2	6	20	CLAM	315	n/a	n/a	0	0	0
3911900	WORD	wordpools/wasnorm_wordpool_576.txt	LTP384	ltpFR2	6	20	IGLOO	734	n/a	n/a	0	0	0
3914643	WORD	wordpools/wasnorm_wordpool_576.txt	LTP384	ltpFR2	6	20	DORM	488	n/a	n/a	0	0	0
3916249	START	n/a	LTP384	ltpFR2	6	n/a	n/a	n/a	29	n/a	n/a	n/a	n/a
3917173	DISTRACTOR	n/a	LTP384	ltpFR2	6	20	n/a	n/a	n/a	n/a	0	0	0
3917185	PROB	n/a	LTP384	ltpFR2	6	n/a	n/a	n/a	29	14	3	7	4
3920762	PROB	n/a	LTP384	ltpFR2	6	n/a	n/a	n/a	29	10	6	1	3
