mstime	trial_type	stim_file	subject	experiment	session	trial	task	item_name	item_num	recog_resp	recog_conf	resp	color_r	color_g	color_b	case	font
0	SESS_START	n/a	LTP102	ltpFR	3	n/a	n/a	n/a	n/a	1	5	n/a	n/a	n/a	n/a	n/a	n/a
66163	WORD	wordpools/wasnorm_wordpool.txt	LTP102	ltpFR	3	1	0	EYE	545	0	5	0	0.57763671875	0.412841796875	1	upper	amplitud.ttf
70088	WORD	wordpools/wasnorm_wordpool.txt	LTP102	ltpFR	3	1	0	SIRLOIN	1311	1	n/a	0	0.57763671875	0.412841796875	1	upper	amplitud.ttf
74037	WORD	wordpools/wasnorm_wordpool.txt	LTP102	ltpFR	3	1	0	GRILL	661	n/a	n/a	1	0.57763671875	0.412841796875	1	upper	amplitud.ttf
77986	WORD	wordpools/wasnorm_wordpool.txt	LTP102	ltpFR	3	1	0	COD	340	n/a	n/a	0	0.57763671875	0.412841796875	1	upper	amplitud.ttf
81886	WORD	wordpools/wasnorm_wordpool.txt	LTP102	ltpFR	3	1	1	SYRINGE	1424	n/a	n/a	0	0.422607421875	0.5869140625	0	lower	zerothre.ttf
85911	WORD	wordpools/wasnorm_wordpool.txt	LTP102	ltpFR	3	1	1	NEEDLE	941	n/a	n/a	1	0.422607421875	0.5869140625	0	lower	zerothre.ttf
89819	WORD	wordpools/wasnorm_wordpool.txt	LTP102	ltpFR	3	1	1	ACTRESS	6	n/a	n/a	1	0.422607421875	0.5869140625	0	lower	zerothre.ttf
93869	WORD	wordpools/wasnorm_wordpool.txt	LTP102	ltpFR	3	1	1	THORN	1459	n/a	n/a	0	0.422607421875	0.5869140625	0	lower	zerothre.ttf
97761	WORD	wordpools/wasnorm_wordpool.txt	LTP102	ltpFR	3	1	0	TROUT	1511	n/a	n/a	0	0.57763671875	0.412841796875	1	upper	amplitud.ttf
101943	WORD	wordpools/wasnorm_wordpool.txt	LTP102	ltpFR	3	1	0	PRODUCER	1129	n/a	n/a	1	0.57763671875	0.412841796875	1	upper	amplitud.ttf
105976	WORD	wordpools/wasnorm_wordpool.txt	LTP102	ltpFR	3	1	0	BATH	98	n/a	n/a	1	0.57763671875	0.412841796875	1	upper	amplitud.ttf
110068	WORD	wordpools/wasnorm_wordpool.txt	LTP102	ltpFR	3	1	0	SPOOL	1356	n/a	n/a	0	0.57763671875	0.412841796875	1	upper	amplitud.ttf
114093	WORD	wordpools/wasnorm_wordpool.txt	LTP102	ltpFR	3	1	1	ZIPPER	1636	n/a	n/a	0	0.422607421875	0.5869140625	0	lower	zerothre.ttf
118201	WORD	wordpools/wasnorm_wordpool.txt	LTP102	ltpFR	3	1	1	BISON	131	n/a	n/a	1	0.422607421875	0.5869140625	0	lower	zerothre.ttf
122267	WORD	wordpools/wasnorm_wordpool.txt	LTP102	ltpFR	3	1	1	DOUGHNUT	490	n/a	n/a	0	0.422607421875	0.5869140625	0	lower	zerothre.ttf
126409	WORD	wordpools/wasnorm_wordpool.txt	LTP102	ltpFR	3	1	1	COFFEE	341	n/a	n/a	0	0.422607421875	0.5869140625	0	lower	zerothre.ttf
132151	REC_START	n/a	LTP102	ltpFR	3	1	n/a	n/a	n/a	n/a	n/a	n/a	n/a	n/a	n/a	n/a	n/a
133126	REC_WORD	wordpools/wasnorm_wordpool.txt	LTP102	ltpFR	3	1	1	COFFEE	341	n/a	n/a	0	n/a	n/a	n/a	n/a	n/a
134251	REC_WORD	wordpools/wasnorm_wordpool.txt	LTP102	ltpFR	3	1	1	DOUGHNUT	490	n/a	n/a	0	n/a	n/a	n/a	n/a	n/a
136566	REC_WORD	wordpools/wasnorm_wordpool.txt	LTP102	ltpFR	3	1	1	SYRINGE	1424	n/a	n/a	0	n/a	n/a	n/a	n/a	n/a
138177	REC_WORD	wordpools/wasnorm_wordpool.txt	LTP102	ltpFR	3	1	1	ACTRESS	6	n/a	n/a	1	n/a	n/a	n/a	n/a	n/a
139808	REC_WORD	wordpools/wasnorm_wordpool.txt	LTP102	ltpFR	3	1	0	EYE	545	n/a	n/a	0	n/a	n/a	n/a	n/a	n/a
141180	REC_WORD	wordpools/wasnorm_wordpool.txt	LTP102	ltpFR	3	1	0	SPOOL	1356	n/a	n/a	0	n/a	n/a	n/a	n/a	n/a
143889	REC_WORD	wordpools/wasnorm_wordpool.txt	LTP102	ltpFR	3	1	0	SIRLOIN	1311	n/a	n/a	0	n/a	n/a	n/a	n/a	n/a
145246	REC_WORD	wordpools/wasnorm_wordpool.txt	LTP102	ltpFR	3	1	0	TROUT	1511	n/a	n/a	0	n/a	n/a	n/a	n/a	n/a
147691	REC_WORD	wordpools/wasnorm_wordpool.txt	LTP102	ltpFR	3	1	0	COD	340	n/a	n/a	0	n/a	n/a	n/a	n/a	n/a
150354	REC_WORD	wordpools/wasnorm_wordpool.txt	LTP102	ltpFR	3	1	1	THORN	1459	n/a	n/a	0	n/a	n/a	n/a	n/a	n/a
155762	REC_WORD	wordpools/wasnorm_wordpool.txt	LTP102	ltpFR	3	1	1	BISON	131	n/a	n/a	1	n/a	n/a	n/a	n/a	n/a
166383	REC_WORD	wordpools/wasnorm_wordpool.txt	LTP102	ltpFR	3	1	0	GRILL	661	n/a	n/a	1	n/a	n/a	n/a	n/a	n/a
186861	REC_WORD	wordpools/wasnorm_wordpool.txt	LTP102	ltpFR	3	1	0	EYE	545	n/a	n/a	0	n/a	n/a	n/a	n/a	n/a
197886	REC_WORD	wordpools/wasnorm_wordpool.txt	LTP102	ltpFR	3	1	1	NEEDLE	941	n/a	n/a	1	n/a	n/a	n/a	n/a	n/a
206227	REC_WORD	wordpools/wasnorm_wordpool.txt	LTP102	ltpFR	3	1	1	SYRINGE	1424	n/a	n/a	0	n/a	n/a	n/a	n/a	n/a
218992	WORD	wordpools/wasnorm_wordpool.txt	LTP102	ltpFR	3	2	1	BANDANNA	80	n/a	n/a	0	0.422607421875	0.5869140625	0	lower	zerothre.ttf
222959	WORD	wordpools/wasnorm_wordpool.txt	LTP102	ltpFR	3	2	1	HEAD	695	n/a	n/a	0	0.422607421875	0.5869140625	0	lower	zerothre.ttf
227101	WORD	wordpools/wasnorm_wordpool.txt	LTP102	ltpFR	3	2	0	SWATTER	1418	n/a	n/a	1	0.57763671875	0.412841796875	1	upper	amplitud.ttf
231234	WORD	wordpools/wasnorm_wordpool.txt	LTP102	ltpFR	3	2	0	TUNA	1518	n/a	n/a	0	0.57763671875	0.412841796875	1	upper	amplitud.ttf
235226	WORD	wordpools/wasnorm_wordpool.txt	LTP102	ltpFR	3	2	0	SICKLE	1302	n/a	n/a	0	0.57763671875	0.412841796875	1	upper	amplitud.ttf
239192	WORD	wordpools/wasnorm_wordpool.txt	LTP102	ltpFR	3	2	0	STAPLER	1372	n/a	n/a	0	0.57763671875	0.412841796875	1	upper	amplitud.ttf
243400	WORD	wordpools/wasnorm_wordpool.txt	LTP102	ltpFR	3	2	1	FLEET	578	n/a	n/a	0	0.422607421875	0.5869140625	0	lower	zerothre.ttf
247333	WORD	wordpools/wasnorm_wordpool.txt	LTP102	ltpFR	3	2	1	CHISEL	305	n/a	n/a	0	0.422607421875	0.5869140625	0	lower	zerothre.ttf
251158	WORD	wordpools/wasnorm_wordpool.txt	LTP102	ltpFR	3	2	1	BARTENDER	92	n/a	n/a	1	0.422607421875	0.5869140625	0	lower	zerothre.ttf
255015	WORD	wordpools/wasnorm_wordpool.txt	LTP102	ltpFR	3	2	1	BOX	159	n/a	n/a	0	0.422607421875	0.5869140625	0	lower	zerothre.ttf
258906	WORD	wordpools/wasnorm_wordpool.txt	LTP102	ltpFR	3	2	1	CHIPMUNK	304	n/a	n/a	1	0.422607421875	0.5869140625	0	lower	zerothre.ttf
262922	WORD	wordpools/wasnorm_wordpool.txt	LTP102	ltpFR	3	2	1	OTTER	986	n/a	n/a	1	0.422607421875	0.5869140625	0	lower	zerothre.ttf
266905	WORD	wordpools/wasnorm_wordpool.txt	LTP102	ltpFR	3	2	0	MARKER	870	n/a	n/a	0	0.57763671875	0.412841796875	1	upper	amplitud.ttf
270980	WORD	wordpools/wasnorm_wordpool.txt	LTP102	ltpFR	3	2	0	PROFESSOR	1131	n/a	n/a	1	0.57763671875	0.412841796875	1	upper	amplitud.ttf
274913	WORD	wordpools/wasnorm_wordpool.txt	LTP102	ltpFR	3	2	0	PERSONNEL	1053	n/a	n/a	1	0.57763671875	0.412841796875	1	upper	amplitud.ttf
278838	WORD	wordpools/wasnorm_wordpool.txt	LTP102	ltpFR	3	2	0	AIRPORT	13	n/a	n/a	1	0.57763671875	0.412841796875	1	upper	amplitud.ttf
284414	REC_START	n/a	LTP102	ltpFR	3	2	n/a	n/a	n/a	n/a	n/a	n/a	n/a	n/a	n/a	n/a	n/a
285980	REC_WORD	wordpools/wasnorm_wordpool.txt	LTP102	ltpFR	3	2	0	AIRPORT	13	n/a	n/a	1	n/a	n/a	n/a	n/a	n/a
287666	REC_WORD	wordpools/wasnorm_wordpool.txt	LTP102	ltpFR	3	2	0	PERSONNEL	1053	n/a	n/a	1	n/a	n/a	n/a	n/a	n/a
290410	REC_WORD	wordpools/wasnorm_wordpool.txt	LTP102	ltpFR	3	2	0	TUNA	1518	n/a	n/a	0	n/a	n/a	n/a	n/a	n/a
293019	REC_WORD	wordpools/wasnorm_wordpool.txt	LTP102	ltpFR	3	2	0	MARKER	870	n/a	n/a	0	n/a	n/a	n/a	n/a	n/a
296975	REC_WORD	wordpools/wasnorm_wordpool.txt	LTP102	ltpFR	3	2	1	BANDANNA	80	n/a	n/a	0	n/a	n/a	n/a	n/a	n/a
298821	REC_WORD	wordpools/wasnorm_wordpool.txt	LTP102	ltpFR	3	2	1	CHIPMUNK	304	n/a	n/a	1	n/a	n/a	n/a	n/a	n/a
300797	REC_WORD	wordpools/wasnorm_wordpool.txt	LTP102	ltpFR	3	2	1	BOX	159	n/a	n/a	0	n/a	n/a	n/a	n/a	n/a
317304	REC_WORD_VV	wordpools/wasnorm_wordpool.txt	LTP102	ltpFR	3	2	n/a	<>	-1	n/a	n/a	n/a	n/a	n/a	n/a	n/a	n/a
376956	WORD	wordpools/wasnorm_wordpool.txt	LTP102	ltpFR	3	3	0	TEENAGER	1444	n/a	n/a	1	0.57763671875	0.412841796875	1	upper	amplitud.ttf
380839	WORD	wordpools/wasnorm_wordpool.txt	LTP102	ltpFR	3	3	0	DICTIONARY	463	n/a	n/a	1	0.57763671875	0.412841796875	1	upper	amplitud.ttf
384781	WORD	wordpools/wasnorm_wordpool.txt	LTP102	ltpFR	3	3	0	ALMANAC	17	n/a	n/a	1	0.57763671875	0.412841796875	1	upper	amplitud.ttf
388739	WORD	wordpools/wasnorm_wordpool.txt	LTP102	ltpFR	3	3	0	ACORN	3	n/a	n/a	0	0.57763671875	0.412841796875	1	upper	amplitud.ttf
392722	WORD	wordpools/wasnorm_wordpool.txt	LTP102	ltpFR	3	3	0	LOG	841	n/a	n/a	1	0.57763671875	0.412841796875	1	upper	amplitud.ttf
396846	WORD	wordpools/wasnorm_wordpool.txt	LTP102	ltpFR	3	3	0	GIRAFFE	636	n/a	n/a	1	0.57763671875	0.412841796875	1	upper	amplitud.ttf
400696	WORD	wordpools/wasnorm_wordpool.txt	LTP102	ltpFR	3	3	0	STEP	1377	n/a	n/a	0	0.57763671875	0.412841796875	1	upper	amplitud.ttf
404870	WORD	wordpools/wasnorm_wordpool.txt	LTP102	ltpFR	3	3	0	CRUTCH	417	n/a	n/a	1	0.57763671875	0.412841796875	1	upper	amplitud.ttf
408870	WORD	wordpools/wasnorm_wordpool.txt	LTP102	ltpFR	3	3	0	TREAT	1501	n/a	n/a	0	0.57763671875	0.412841796875	1	upper	amplitud.ttf
413028	WORD	wordpools/wasnorm_wordpool.txt	LTP102	ltpFR	3	3	0	TURTLE	1522	n/a	n/a	0	0.57763671875	0.412841796875	1	upper	amplitud.ttf
416886	WORD	wordpools/wasnorm_wordpool.txt	LTP102	ltpFR	3	3	0	VOLUNTEER	1577	n/a	n/a	1	0.57763671875	0.412841796875	1	upper	amplitud.ttf
420819	WORD	wordpools/wasnorm_wordpool.txt	LTP102	ltpFR	3	3	0	HAT	690	n/a	n/a	0	0.57763671875	0.412841796875	1	upper	amplitud.ttf
424711	WORD	wordpools/wasnorm_wordpool.txt	LTP102	ltpFR	3	3	0	SERVANT	1271	n/a	n/a	1	0.57763671875	0.412841796875	1	upper	amplitud.ttf
428569	WORD	wordpools/wasnorm_wordpool.txt	LTP102	ltpFR	3	3	0	JUVENILE	767	n/a	n/a	1	0.57763671875	0.412841796875	1	upper	amplitud.ttf
432511	WORD	wordpools/wasnorm_wordpool.txt	LTP102	ltpFR	3	3	0	SURF	1412	n/a	n/a	1	0.57763671875	0.412841796875	1	upper	amplitud.ttf
436535	WORD	wordpools/wasnorm_wordpool.txt	LTP102	ltpFR	3	3	0	SEA	1259	n/a	n/a	1	0.57763671875	0.412841796875	1	upper	amplitud.ttf
442452	REC_START	n/a	LTP102	ltpFR	3	3	n/a	n/a	n/a	n/a	n/a	n/a	n/a	n/a	n/a	n/a	n/a
443484	REC_WORD	wordpools/wasnorm_wordpool.txt	LTP102	ltpFR	3	3	0	SEA	1259	n/a	n/a	1	n/a	n/a	n/a	n/a	n/a
444861	REC_WORD	wordpools/wasnorm_wordpool.txt	LTP102	ltpFR	3	3	0	SURF	1412	n/a	n/a	1	n/a	n/a	n/a	n/a	n/a
446772	REC_WORD	wordpools/wasnorm_wordpool.txt	LTP102	ltpFR	3	3	0	JUVENILE	767	n/a	n/a	1	n/a	n/a	n/a	n/a	n/a
457393	REC_WORD	wordpools/wasnorm_wordpool.txt	LTP102	ltpFR	3	3	0	LOG	841	n/a	n/a	1	n/a	n/a	n/a	n/a	n/a
459064	REC_WORD	wordpools/wasnorm_wordpool.txt	LTP102	ltpFR	3	3	0	ACORN	3	n/a	n/a	0	n/a	n/a	n/a	n/a	n/a
462237	REC_WORD	wordpools/wasnorm_wordpool.txt	LTP102	ltpFR	3	3	0	GIRAFFE	636	n/a	n/a	1	n/a	n/a	n/a	n/a	n/a
464991	REC_WORD	wordpools/wasnorm_wordpool.txt	LTP102	ltpFR	3	3	0	HAT	690	n/a	n/a	0	n/a	n/a	n/a	n/a	n/a
498380	REC_WORD	wordpools/wasnorm_wordpool.txt	LTP102	ltpFR	3	3	0	PROFESSOR	1131	n/a	n/a	1	n/a	n/a	n/a	n/a	n/a
530253	WORD	wordpools/wasnorm_wordpool.txt	LTP102	ltpFR	3	4	1	SPONGE	1355	n/a	n/a	0	0.422607421875	0.5869140625	0	lower	zerothre.ttf
534353	WORD	wordpools/wasnorm_wordpool.txt	LTP102	ltpFR	3	4	1	FOUNTAIN	597	n/a	n/a	0	0.422607421875	0.5869140625	0	lower	zerothre.ttf
538511	WORD	wordpools/wasnorm_wordpool.txt	LTP102	ltpFR	3	4	0	BUCKET	184	n/a	n/a	0	0.57763671875	0.412841796875	1	upper	amplitud.ttf
542352	WORD	wordpools/wasnorm_wordpool.txt	LTP102	ltpFR	3	4	0	DESSERT	453	n/a	n/a	0	0.57763671875	0.412841796875	1	upper	amplitud.ttf
546527	WORD	wordpools/wasnorm_wordpool.txt	LTP102	ltpFR	3	4	0	FLEA	577	n/a	n/a	0	0.57763671875	0.412841796875	1	upper	amplitud.ttf
550385	WORD	wordpools/wasnorm_wordpool.txt	LTP102	ltpFR	3	4	0	VET	1560	n/a	n/a	0	0.57763671875	0.412841796875	1	upper	amplitud.ttf
554593	WORD	wordpools/wasnorm_wordpool.txt	LTP102	ltpFR	3	4	0	REFEREE	1178	n/a	n/a	1	0.57763671875	0.412841796875	1	upper	amplitud.ttf
558426	WORD	wordpools/wasnorm_wordpool.txt	LTP102	ltpFR	3	4	0	CARPET	247	n/a	n/a	1	0.57763671875	0.412841796875	1	upper	amplitud.ttf
562426	WORD	wordpools/wasnorm_wordpool.txt	LTP102	ltpFR	3	4	1	BUNNY	198	n/a	n/a	1	0.422607421875	0.5869140625	0	lower	zerothre.ttf
566342	WORD	wordpools/wasnorm_wordpool.txt	LTP102	ltpFR	3	4	1	BERRY	122	n/a	n/a	1	0.422607421875	0.5869140625	0	lower	zerothre.ttf
570425	WORD	wordpools/wasnorm_wordpool.txt	LTP102	ltpFR	3	4	1	STADIUM	1364	n/a	n/a	0	0.422607421875	0.5869140625	0	lower	zerothre.ttf
574292	WORD	wordpools/wasnorm_wordpool.txt	LTP102	ltpFR	3	4	1	SLIDE	1326	n/a	n/a	0	0.422607421875	0.5869140625	0	lower	zerothre.ttf
578375	WORD	wordpools/wasnorm_wordpool.txt	LTP102	ltpFR	3	4	1	LANDSCAPE	799	n/a	n/a	0	0.422607421875	0.5869140625	0	lower	zerothre.ttf
582583	WORD	wordpools/wasnorm_wordpool.txt	LTP102	ltpFR	3	4	1	STATUE	1374	n/a	n/a	0	0.422607421875	0.5869140625	0	lower	zerothre.ttf
586408	WORD	wordpools/wasnorm_wordpool.txt	LTP102	ltpFR	3	4	0	CORPORATION	382	n/a	n/a	1	0.57763671875	0.412841796875	1	upper	amplitud.ttf
590565	WORD	wordpools/wasnorm_wordpool.txt	LTP102	ltpFR	3	4	0	CHECK	284	n/a	n/a	0	0.57763671875	0.412841796875	1	upper	amplitud.ttf
596241	REC_START	n/a	LTP102	ltpFR	3	4	n/a	n/a	n/a	n/a	n/a	n/a	n/a	n/a	n/a	n/a	n/a
597478	REC_WORD	wordpools/wasnorm_wordpool.txt	LTP102	ltpFR	3	4	0	CHECK	284	n/a	n/a	0	n/a	n/a	n/a	n/a	n/a
599189	REC_WORD	wordpools/wasnorm_wordpool.txt	LTP102	ltpFR	3	4	0	CORPORATION	382	n/a	n/a	1	n/a	n/a	n/a	n/a	n/a
601304	REC_WORD	wordpools/wasnorm_wordpool.txt	LTP102	ltpFR	3	4	1	STATUE	1374	n/a	n/a	0	n/a	n/a	n/a	n/a	n/a
603898	REC_WORD	wordpools/wasnorm_wordpool.txt	LTP102	ltpFR	3	4	1	BUNNY	198	n/a	n/a	1	n/a	n/a	n/a	n/a	n/a
606453	REC_WORD	wordpools/wasnorm_wordpool.txt	LTP102	ltpFR	3	4	1	BERRY	122	n/a	n/a	1	n/a	n/a	n/a	n/a	n/a
608727	REC_WORD	wordpools/wasnorm_wordpool.txt	LTP102	ltpFR	3	4	1	STADIUM	1364	n/a	n/a	0	n/a	n/a	n/a	n/a	n/a
630219	REC_WORD	wordpools/wasnorm_wordpool.txt	LTP102	ltpFR	3	4	1	SPONGE	1355	n/a	n/a	0	n/a	n/a	n/a	n/a	n/a
633137	REC_WORD	wordpools/wasnorm_wordpool.txt	LTP102	ltpFR	3	4	0	CHECK	284	n/a	n/a	0	n/a	n/a	n/a	n/a	n/a
633766	REC_WORD	wordpools/wasnorm_wordpool.txt	LTP102	ltpFR	3	4	0	CORPORATION	382	n/a	n/a	1	n/a	n/a	n/a	n/a	n/a
646801	REC_WORD	wordpools/wasnorm_wordpool.txt	LTP102	ltpFR	3	4	1	LANDSCAPE	799	n/a	n/a	0	n/a	n/a	n/a	n/a	n/a
648916	REC_WORD	wordpools/wasnorm_wordpool.txt	LTP102	ltpFR	3	4	1	SLIDE	1326	n/a	n/a	0	n/a	n/a	n/a	n/a	n/a
681824	WORD	wordpools/wasnorm_wordpool.txt	LTP102	ltpFR	3	5	-1	PREACHER	1119	n/a	n/a	-1	1.0	1.0	1	upper	Verdana.ttf
685775	WORD	wordpools/wasnorm_wordpool.txt	LTP102	ltpFR	3	5	-1	ELECTRICIAN	521	n/a	n/a	-1	1.0	1.0	1	upper	Verdana.ttf
689750	WORD	wordpools/wasnorm_wordpool.txt	LTP102	ltpFR	3	5	-1	CORD	379	n/a	n/a	-1	1.0	1.0	1	upper	Verdana.ttf
693749	WORD	wordpools/wasnorm_wordpool.txt	LTP102	ltpFR	3	5	-1	CHIMNEY	301	n/a	n/a	-1	1.0	1.0	1	upper	Verdana.ttf
697915	WORD	wordpools/wasnorm_wordpool.txt	LTP102	ltpFR	3	5	-1	LIGHTER	819	n/a	n/a	-1	1.0	1.0	1	upper	Verdana.ttf
702115	WORD	wordpools/wasnorm_wordpool.txt	LTP102	ltpFR	3	5	-1	VAN	1548	n/a	n/a	-1	1.0	1.0	1	upper	Verdana.ttf
705989	WORD	wordpools/wasnorm_wordpool.txt	LTP102	ltpFR	3	5	-1	CUSHION	428	n/a	n/a	-1	1.0	1.0	1	upper	Verdana.ttf
710140	WORD	wordpools/wasnorm_wordpool.txt	LTP102	ltpFR	3	5	-1	NITROGEN	954	n/a	n/a	-1	1.0	1.0	1	upper	Verdana.ttf
714181	WORD	wordpools/wasnorm_wordpool.txt	LTP102	ltpFR	3	5	-1	MOTOR	922	n/a	n/a	-1	1.0	1.0	1	upper	Verdana.ttf
717997	WORD	wordpools/wasnorm_wordpool.txt	LTP102	ltpFR	3	5	-1	CLOSET	326	n/a	n/a	-1	1.0	1.0	1	upper	Verdana.ttf
721946	WORD	wordpools/wasnorm_wordpool.txt	LTP102	ltpFR	3	5	-1	FIREPLACE	570	n/a	n/a	-1	1.0	1.0	1	upper	Verdana.ttf
726139	WORD	wordpools/wasnorm_wordpool.txt	LTP102	ltpFR	3	5	-1	PIZZA	1079	n/a	n/a	-1	1.0	1.0	1	upper	Verdana.ttf
730163	WORD	wordpools/wasnorm_wordpool.txt	LTP102	ltpFR	3	5	-1	PUDDLE	1140	n/a	n/a	-1	1.0	1.0	1	upper	Verdana.ttf
734338	WORD	wordpools/wasnorm_wordpool.txt	LTP102	ltpFR	3	5	-1	MOAT	903	n/a	n/a	-1	1.0	1.0	1	upper	Verdana.ttf
738504	WORD	wordpools/wasnorm_wordpool.txt	LTP102	ltpFR	3	5	-1	LINT	826	n/a	n/a	-1	1.0	1.0	1	upper	Verdana.ttf
742362	WORD	wordpools/wasnorm_wordpool.txt	LTP102	ltpFR	3	5	-1	EXPLOSION	544	n/a	n/a	-1	1.0	1.0	1	upper	Verdana.ttf
748113	REC_START	n/a	LTP102	ltpFR	3	5	n/a	n/a	n/a	n/a	n/a	n/a	n/a	n/a	n/a	n/a	n/a
749385	REC_WORD	wordpools/wasnorm_wordpool.txt	LTP102	ltpFR	3	5	-1	EXPLOSION	544	n/a	n/a	-1	n/a	n/a	n/a	n/a	n/a
751595	REC_WORD	wordpools/wasnorm_wordpool.txt	LTP102	ltpFR	3	5	-1	LINT	826	n/a	n/a	-1	n/a	n/a	n/a	n/a	n/a
754997	REC_WORD	wordpools/wasnorm_wordpool.txt	LTP102	ltpFR	3	5	-1	PREACHER	1119	n/a	n/a	-1	n/a	n/a	n/a	n/a	n/a
756179	REC_WORD	wordpools/wasnorm_wordpool.txt	LTP102	ltpFR	3	5	-1	ELECTRICIAN	521	n/a	n/a	-1	n/a	n/a	n/a	n/a	n/a
758823	REC_WORD	wordpools/wasnorm_wordpool.txt	LTP102	ltpFR	3	5	-1	CORD	379	n/a	n/a	-1	n/a	n/a	n/a	n/a	n/a
762321	REC_WORD	wordpools/wasnorm_wordpool.txt	LTP102	ltpFR	3	5	-1	NITROGEN	954	n/a	n/a	-1	n/a	n/a	n/a	n/a	n/a
768302	REC_WORD	wordpools/wasnorm_wordpool.txt	LTP102	ltpFR	3	5	-1	MOTOR	922	n/a	n/a	-1	n/a	n/a	n/a	n/a	n/a
770068	REC_WORD	wordpools/wasnorm_wordpool.txt	LTP102	ltpFR	3	5	-1	CLOSET	326	n/a	n/a	-1	n/a	n/a	n/a	n/a	n/a
781227	REC_WORD	wordpools/wasnorm_wordpool.txt	LTP102	ltpFR	3	5	-1	VAN	1548	n/a	n/a	-1	n/a	n/a	n/a	n/a	n/a
786825	REC_WORD	wordpools/wasnorm_wordpool.txt	LTP102	ltpFR	3	5	-1	PUDDLE	1140	n/a	n/a	-1	n/a	n/a	n/a	n/a	n/a
789783	REC_WORD	wordpools/wasnorm_wordpool.txt	LTP102	ltpFR	3	5	-1	LIGHTER	819	n/a	n/a	-1	n/a	n/a	n/a	n/a	n/a
802634	REC_WORD	wordpools/wasnorm_wordpool.txt	LTP102	ltpFR	3	5	-1	MOAT	903	n/a	n/a	-1	n/a	n/a	n/a	n/a	n/a
804659	REC_WORD	wordpools/wasnorm_wordpool.txt	LTP102	ltpFR	3	5	-1	FIREPLACE	570	n/a	n/a	-1	n/a	n/a	n/a	n/a	n/a
829198	WORD	wordpools/wasnorm_wordpool.txt	LTP102	ltpFR	3	6	1	AUTOMOBILE	62	n/a	n/a	0	0.422607421875	0.5869140625	0	lower	zerothre.ttf
833331	WORD	wordpools/wasnorm_wordpool.txt	LTP102	ltpFR	3	6	1	YACHT	1629	n/a	n/a	0	0.422607421875	0.5869140625	0	lower	zerothre.ttf
837214	WORD	wordpools/wasnorm_wordpool.txt	LTP102	ltpFR	3	6	1	SCALLOP	1242	n/a	n/a	0	0.422607421875	0.5869140625	0	lower	zerothre.ttf
841330	WORD	wordpools/wasnorm_wordpool.txt	LTP102	ltpFR	3	6	1	CANDLE	229	n/a	n/a	0	0.422607421875	0.5869140625	0	lower	zerothre.ttf
845171	WORD	wordpools/wasnorm_wordpool.txt	LTP102	ltpFR	3	6	1	DEPUTY	450	n/a	n/a	1	0.422607421875	0.5869140625	0	lower	zerothre.ttf
849163	WORD	wordpools/wasnorm_wordpool.txt	LTP102	ltpFR	3	6	1	COP	376	n/a	n/a	1	0.422607421875	0.5869140625	0	lower	zerothre.ttf
853171	WORD	wordpools/wasnorm_wordpool.txt	LTP102	ltpFR	3	6	1	RAFT	1159	n/a	n/a	0	0.422607421875	0.5869140625	0	lower	zerothre.ttf
857095	WORD	wordpools/wasnorm_wordpool.txt	LTP102	ltpFR	3	6	1	SPACE	1345	n/a	n/a	0	0.422607421875	0.5869140625	0	lower	zerothre.ttf
861062	WORD	wordpools/wasnorm_wordpool.txt	LTP102	ltpFR	3	6	1	SCREW	1254	n/a	n/a	0	0.422607421875	0.5869140625	0	lower	zerothre.ttf
865203	WORD	wordpools/wasnorm_wordpool.txt	LTP102	ltpFR	3	6	1	SCROLL	1257	n/a	n/a	0	0.422607421875	0.5869140625	0	lower	zerothre.ttf
869295	WORD	wordpools/wasnorm_wordpool.txt	LTP102	ltpFR	3	6	1	CLERK	321	n/a	n/a	1	0.422607421875	0.5869140625	0	lower	zerothre.ttf
873486	WORD	wordpools/wasnorm_wordpool.txt	LTP102	ltpFR	3	6	1	SHARK	1275	n/a	n/a	1	0.422607421875	0.5869140625	0	lower	zerothre.ttf
877652	WORD	wordpools/wasnorm_wordpool.txt	LTP102	ltpFR	3	6	1	POTTERY	1116	n/a	n/a	0	0.422607421875	0.5869140625	0	lower	zerothre.ttf
881485	WORD	wordpools/wasnorm_wordpool.txt	LTP102	ltpFR	3	6	1	MUSEUM	933	n/a	n/a	0	0.422607421875	0.5869140625	0	lower	zerothre.ttf
885635	WORD	wordpools/wasnorm_wordpool.txt	LTP102	ltpFR	3	6	1	COUNTY	389	n/a	n/a	0	0.422607421875	0.5869140625	0	lower	zerothre.ttf
889493	WORD	wordpools/wasnorm_wordpool.txt	LTP102	ltpFR	3	6	1	ANTENNA	28	n/a	n/a	0	0.422607421875	0.5869140625	0	lower	zerothre.ttf
895351	REC_START	n/a	LTP102	ltpFR	3	6	n/a	n/a	n/a	n/a	n/a	n/a	n/a	n/a	n/a	n/a	n/a
896443	REC_WORD	wordpools/wasnorm_wordpool.txt	LTP102	ltpFR	3	6	1	ANTENNA	28	n/a	n/a	0	n/a	n/a	n/a	n/a	n/a
898494	REC_WORD	wordpools/wasnorm_wordpool.txt	LTP102	ltpFR	3	6	1	COUNTY	389	n/a	n/a	0	n/a	n/a	n/a	n/a	n/a
903258	REC_WORD	wordpools/wasnorm_wordpool.txt	LTP102	ltpFR	3	6	1	CLERK	321	n/a	n/a	1	n/a	n/a	n/a	n/a	n/a
913001	REC_WORD	wordpools/wasnorm_wordpool.txt	LTP102	ltpFR	3	6	1	SCALLOP	1242	n/a	n/a	0	n/a	n/a	n/a	n/a	n/a
917027	REC_WORD	wordpools/wasnorm_wordpool.txt	LTP102	ltpFR	3	6	1	SCROLL	1257	n/a	n/a	0	n/a	n/a	n/a	n/a	n/a
918633	REC_WORD	wordpools/wasnorm_wordpool.txt	LTP102	ltpFR	3	6	1	MUSEUM	933	n/a	n/a	0	n/a	n/a	n/a	n/a	n/a
921027	REC_WORD	wordpools/wasnorm_wordpool.txt	LTP102	ltpFR	3	6	1	DEPUTY	450	n/a	n/a	1	n/a	n/a	n/a	n/a	n/a
922734	REC_WORD	wordpools/wasnorm_wordpool.txt	LTP102	ltpFR	3	6	1	COP	376	n/a	n/a	1	n/a	n/a	n/a	n/a	n/a
942289	REC_WORD	wordpools/wasnorm_wordpool.txt	LTP102	ltpFR	3	6	1	SHARK	1275	n/a	n/a	1	n/a	n/a	n/a	n/a	n/a
963880	REC_WORD	wordpools/wasnorm_wordpool.txt	LTP102	ltpFR	3	6	1	ANTENNA	28	n/a	n/a	0	n/a	n/a	n/a	n/a	n/a
982910	WORD	wordpools/wasnorm_wordpool.txt	LTP102	ltpFR	3	7	-1	PARSLEY	1016	n/a	n/a	-1	1.0	1.0	1	upper	Verdana.ttf
986810	WORD	wordpools/wasnorm_wordpool.txt	LTP102	ltpFR	3	7	-1	POLICE	1098	n/a	n/a	-1	1.0	1.0	1	upper	Verdana.ttf
990644	WORD	wordpools/wasnorm_wordpool.txt	LTP102	ltpFR	3	7	-1	LIP	828	n/a	n/a	-1	1.0	1.0	1	upper	Verdana.ttf
994809	WORD	wordpools/wasnorm_wordpool.txt	LTP102	ltpFR	3	7	-1	CHEMICAL	291	n/a	n/a	-1	1.0	1.0	1	upper	Verdana.ttf
998867	WORD	wordpools/wasnorm_wordpool.txt	LTP102	ltpFR	3	7	-1	BEAKER	104	n/a	n/a	-1	1.0	1.0	1	upper	Verdana.ttf
1002917	WORD	wordpools/wasnorm_wordpool.txt	LTP102	ltpFR	3	7	-1	RIFLE	1192	n/a	n/a	-1	1.0	1.0	1	upper	Verdana.ttf
1007117	WORD	wordpools/wasnorm_wordpool.txt	LTP102	ltpFR	3	7	-1	PICK	1058	n/a	n/a	-1	1.0	1.0	1	upper	Verdana.ttf
1011101	WORD	wordpools/wasnorm_wordpool.txt	LTP102	ltpFR	3	7	-1	GROCERY	664	n/a	n/a	-1	1.0	1.0	1	upper	Verdana.ttf
1015167	WORD	wordpools/wasnorm_wordpool.txt	LTP102	ltpFR	3	7	-1	MOUTH	926	n/a	n/a	-1	1.0	1.0	1	upper	Verdana.ttf
1019083	WORD	wordpools/wasnorm_wordpool.txt	LTP102	ltpFR	3	7	-1	FEAST	556	n/a	n/a	-1	1.0	1.0	1	upper	Verdana.ttf
1023275	WORD	wordpools/wasnorm_wordpool.txt	LTP102	ltpFR	3	7	-1	HEADBAND	696	n/a	n/a	-1	1.0	1.0	1	upper	Verdana.ttf
1027174	WORD	wordpools/wasnorm_wordpool.txt	LTP102	ltpFR	3	7	-1	COOLER	375	n/a	n/a	-1	1.0	1.0	1	upper	Verdana.ttf
1031291	WORD	wordpools/wasnorm_wordpool.txt	LTP102	ltpFR	3	7	-1	GLASS	639	n/a	n/a	-1	1.0	1.0	1	upper	Verdana.ttf
1035440	WORD	wordpools/wasnorm_wordpool.txt	LTP102	ltpFR	3	7	-1	PLATE	1086	n/a	n/a	-1	1.0	1.0	1	upper	Verdana.ttf
1039365	WORD	wordpools/wasnorm_wordpool.txt	LTP102	ltpFR	3	7	-1	SWORD	1423	n/a	n/a	-1	1.0	1.0	1	upper	Verdana.ttf
1043348	WORD	wordpools/wasnorm_wordpool.txt	LTP102	ltpFR	3	7	-1	SILVERWARE	1308	n/a	n/a	-1	1.0	1.0	1	upper	Verdana.ttf
1049415	REC_START	n/a	LTP102	ltpFR	3	7	n/a	n/a	n/a	n/a	n/a	n/a	n/a	n/a	n/a	n/a	n/a
1050502	REC_WORD	wordpools/wasnorm_wordpool.txt	LTP102	ltpFR	3	7	-1	SILVERWARE	1308	n/a	n/a	-1	n/a	n/a	n/a	n/a	n/a
1052293	REC_WORD	wordpools/wasnorm_wordpool.txt	LTP102	ltpFR	3	7	-1	PLATE	1086	n/a	n/a	-1	n/a	n/a	n/a	n/a	n/a
1058320	REC_WORD	wordpools/wasnorm_wordpool.txt	LTP102	ltpFR	3	7	-1	SWORD	1423	n/a	n/a	-1	n/a	n/a	n/a	n/a	n/a
1073954	REC_WORD	wordpools/wasnorm_wordpool.txt	LTP102	ltpFR	3	7	-1	FEAST	556	n/a	n/a	-1	n/a	n/a	n/a	n/a	n/a
1075610	REC_WORD	wordpools/wasnorm_wordpool.txt	LTP102	ltpFR	3	7	-1	HEADBAND	696	n/a	n/a	-1	n/a	n/a	n/a	n/a	n/a
1146457	WORD	wordpools/wasnorm_wordpool.txt	LTP102	ltpFR	3	8	0	TAIL	1430	n/a	n/a	1	0.57763671875	0.412841796875	1	upper	amplitud.ttf
1150657	WORD	wordpools/wasnorm_wordpool.txt	LTP102	ltpFR	3	8	0	CAT	257	n/a	n/a	0	0.57763671875	0.412841796875	1	upper	amplitud.ttf
1154690	WORD	wordpools/wasnorm_wordpool.txt	LTP102	ltpFR	3	8	0	LOUNGE	845	n/a	n/a	1	0.57763671875	0.412841796875	1	upper	amplitud.ttf
1158648	WORD	wordpools/wasnorm_wordpool.txt	LTP102	ltpFR	3	8	0	SUPERVISOR	1410	n/a	n/a	1	0.57763671875	0.412841796875	1	upper	amplitud.ttf
1162672	WORD	wordpools/wasnorm_wordpool.txt	LTP102	ltpFR	3	8	0	MAPLE	866	n/a	n/a	1	0.57763671875	0.412841796875	1	upper	amplitud.ttf
1166631	WORD	wordpools/wasnorm_wordpool.txt	LTP102	ltpFR	3	8	0	LEAF	808	n/a	n/a	0	0.57763671875	0.412841796875	1	upper	amplitud.ttf
1170497	WORD	wordpools/wasnorm_wordpool.txt	LTP102	ltpFR	3	8	0	WASP	1593	n/a	n/a	0	0.57763671875	0.412841796875	1	upper	amplitud.ttf
1174638	WORD	wordpools/wasnorm_wordpool.txt	LTP102	ltpFR	3	8	0	SEAL	1262	n/a	n/a	1	0.57763671875	0.412841796875	1	upper	amplitud.ttf
1178605	WORD	wordpools/wasnorm_wordpool.txt	LTP102	ltpFR	3	8	0	NAVIGATOR	938	n/a	n/a	1	0.57763671875	0.412841796875	1	upper	amplitud.ttf
1182571	WORD	wordpools/wasnorm_wordpool.txt	LTP102	ltpFR	3	8	0	HORNET	718	n/a	n/a	0	0.57763671875	0.412841796875	1	upper	amplitud.ttf
1186746	WORD	wordpools/wasnorm_wordpool.txt	LTP102	ltpFR	3	8	0	CELLAR	267	n/a	n/a	1	0.57763671875	0.412841796875	1	upper	amplitud.ttf
1190878	WORD	wordpools/wasnorm_wordpool.txt	LTP102	ltpFR	3	8	0	INMATE	738	n/a	n/a	1	0.57763671875	0.412841796875	1	upper	amplitud.ttf
1194894	WORD	wordpools/wasnorm_wordpool.txt	LTP102	ltpFR	3	8	0	MAMMAL	861	n/a	n/a	1	0.57763671875	0.412841796875	1	upper	amplitud.ttf
1198802	WORD	wordpools/wasnorm_wordpool.txt	LTP102	ltpFR	3	8	0	DENTIST	447	n/a	n/a	1	0.57763671875	0.412841796875	1	upper	amplitud.ttf
1202778	WORD	wordpools/wasnorm_wordpool.txt	LTP102	ltpFR	3	8	0	AMBULANCE	19	n/a	n/a	1	0.57763671875	0.412841796875	1	upper	amplitud.ttf
1206960	WORD	wordpools/wasnorm_wordpool.txt	LTP102	ltpFR	3	8	0	PRAIRIE	1118	n/a	n/a	1	0.57763671875	0.412841796875	1	upper	amplitud.ttf
1213052	REC_START	n/a	LTP102	ltpFR	3	8	n/a	n/a	n/a	n/a	n/a	n/a	n/a	n/a	n/a	n/a	n/a
1214224	REC_WORD	wordpools/wasnorm_wordpool.txt	LTP102	ltpFR	3	8	0	PRAIRIE	1118	n/a	n/a	1	n/a	n/a	n/a	n/a	n/a
1230357	REC_WORD	wordpools/wasnorm_wordpool.txt	LTP102	ltpFR	3	8	0	SUPERVISOR	1410	n/a	n/a	1	n/a	n/a	n/a	n/a	n/a
1232373	REC_WORD	wordpools/wasnorm_wordpool.txt	LTP102	ltpFR	3	8	0	HORNET	718	n/a	n/a	0	n/a	n/a	n/a	n/a	n/a
1234448	REC_WORD	wordpools/wasnorm_wordpool.txt	LTP102	ltpFR	3	8	0	WASP	1593	n/a	n/a	0	n/a	n/a	n/a	n/a	n/a
1236878	REC_WORD	wordpools/wasnorm_wordpool.txt	LTP102	ltpFR	3	8	0	DENTIST	447	n/a	n/a	1	n/a	n/a	n/a	n/a	n/a
1243039	REC_WORD	wordpools/wasnorm_wordpool.txt	LTP102	ltpFR	3	8	0	TAIL	1430	n/a	n/a	1	n/a	n/a	n/a	n/a	n/a
1244361	REC_WORD	wordpools/wasnorm_wordpool.txt	LTP102	ltpFR	3	8	0	CAT	257	n/a	n/a	0	n/a	n/a	n/a	n/a	n/a
1248461	REC_WORD	wordpools/wasnorm_wordpool.txt	LTP102	ltpFR	3	8	0	INMATE	738	n/a	n/a	1	n/a	n/a	n/a	n/a	n/a
1284754	REC_WORD	wordpools/wasnorm_wordpool.txt	LTP102	ltpFR	3	8	0	CELLAR	267	n/a	n/a	1	n/a	n/a	n/a	n/a	n/a
1298554	WORD	wordpools/wasnorm_wordpool.txt	LTP102	ltpFR	3	9	1	VAMPIRE	1547	n/a	n/a	0	0.422607421875	0.5869140625	0	lower	zerothre.ttf
1302437	WORD	wordpools/wasnorm_wordpool.txt	LTP102	ltpFR	3	9	1	BEE	112	n/a	n/a	1	0.422607421875	0.5869140625	0	lower	zerothre.ttf
1306303	WORD	wordpools/wasnorm_wordpool.txt	LTP102	ltpFR	3	9	1	POLYESTER	1100	n/a	n/a	0	0.422607421875	0.5869140625	0	lower	zerothre.ttf
1310236	WORD	wordpools/wasnorm_wordpool.txt	LTP102	ltpFR	3	9	1	FEMALE	559	n/a	n/a	1	0.422607421875	0.5869140625	0	lower	zerothre.ttf
1314203	WORD	wordpools/wasnorm_wordpool.txt	LTP102	ltpFR	3	9	1	LEOPARD	812	n/a	n/a	1	0.422607421875	0.5869140625	0	lower	zerothre.ttf
1318411	WORD	wordpools/wasnorm_wordpool.txt	LTP102	ltpFR	3	9	1	WASHCLOTH	1591	n/a	n/a	0	0.422607421875	0.5869140625	0	lower	zerothre.ttf
1322494	WORD	wordpools/wasnorm_wordpool.txt	LTP102	ltpFR	3	9	1	WINDSHIELD	1612	n/a	n/a	0	0.422607421875	0.5869140625	0	lower	zerothre.ttf
1326643	WORD	wordpools/wasnorm_wordpool.txt	LTP102	ltpFR	3	9	1	BREAD	170	n/a	n/a	0	0.422607421875	0.5869140625	0	lower	zerothre.ttf
1330610	WORD	wordpools/wasnorm_wordpool.txt	LTP102	ltpFR	3	9	1	WHEAT	1602	n/a	n/a	0	0.422607421875	0.5869140625	0	lower	zerothre.ttf
1334576	WORD	wordpools/wasnorm_wordpool.txt	LTP102	ltpFR	3	9	1	ARTICLE	42	n/a	n/a	0	0.422607421875	0.5869140625	0	lower	zerothre.ttf
1338784	WORD	wordpools/wasnorm_wordpool.txt	LTP102	ltpFR	3	9	1	BUFFALO	186	n/a	n/a	0	0.422607421875	0.5869140625	0	lower	zerothre.ttf
1342991	WORD	wordpools/wasnorm_wordpool.txt	LTP102	ltpFR	3	9	1	PIT	1077	n/a	n/a	0	0.422607421875	0.5869140625	0	lower	zerothre.ttf
1347134	WORD	wordpools/wasnorm_wordpool.txt	LTP102	ltpFR	3	9	1	LOOP	844	n/a	n/a	0	0.422607421875	0.5869140625	0	lower	zerothre.ttf
1351275	WORD	wordpools/wasnorm_wordpool.txt	LTP102	ltpFR	3	9	1	NEWSPAPER	948	n/a	n/a	0	0.422607421875	0.5869140625	0	lower	zerothre.ttf
1355166	WORD	wordpools/wasnorm_wordpool.txt	LTP102	ltpFR	3	9	1	ASTRONAUT	51	n/a	n/a	1	0.422607421875	0.5869140625	0	lower	zerothre.ttf
1359141	WORD	wordpools/wasnorm_wordpool.txt	LTP102	ltpFR	3	9	1	ASTEROID	50	n/a	n/a	0	0.422607421875	0.5869140625	0	lower	zerothre.ttf
1364823	REC_START	n/a	LTP102	ltpFR	3	9	n/a	n/a	n/a	n/a	n/a	n/a	n/a	n/a	n/a	n/a	n/a
1366384	REC_WORD	wordpools/wasnorm_wordpool.txt	LTP102	ltpFR	3	9	1	ASTEROID	50	n/a	n/a	0	n/a	n/a	n/a	n/a	n/a
1368250	REC_WORD	wordpools/wasnorm_wordpool.txt	LTP102	ltpFR	3	9	1	ASTRONAUT	51	n/a	n/a	1	n/a	n/a	n/a	n/a	n/a
1370595	REC_WORD	wordpools/wasnorm_wordpool.txt	LTP102	ltpFR	3	9	1	BEE	112	n/a	n/a	1	n/a	n/a	n/a	n/a	n/a
1381231	REC_WORD	wordpools/wasnorm_wordpool.txt	LTP102	ltpFR	3	9	1	LEOPARD	812	n/a	n/a	1	n/a	n/a	n/a	n/a	n/a
1391926	REC_WORD	wordpools/wasnorm_wordpool.txt	LTP102	ltpFR	3	9	1	LOOP	844	n/a	n/a	0	n/a	n/a	n/a	n/a	n/a
1394909	REC_WORD	wordpools/wasnorm_wordpool.txt	LTP102	ltpFR	3	9	1	BUFFALO	186	n/a	n/a	0	n/a	n/a	n/a	n/a	n/a
1476141	WORD	wordpools/wasnorm_wordpool.txt	LTP102	ltpFR	3	10	1	BROCCOLI	176	n/a	n/a	0	0.422607421875	0.5869140625	0	lower	zerothre.ttf
1480082	WORD	wordpools/wasnorm_wordpool.txt	LTP102	ltpFR	3	10	1	SCOUT	1252	n/a	n/a	1	0.422607421875	0.5869140625	0	lower	zerothre.ttf
1484198	WORD	wordpools/wasnorm_wordpool.txt	LTP102	ltpFR	3	10	1	WHISTLE	1606	n/a	n/a	0	0.422607421875	0.5869140625	0	lower	zerothre.ttf
1488348	WORD	wordpools/wasnorm_wordpool.txt	LTP102	ltpFR	3	10	1	FLOWER	584	n/a	n/a	1	0.422607421875	0.5869140625	0	lower	zerothre.ttf
1492523	WORD	wordpools/wasnorm_wordpool.txt	LTP102	ltpFR	3	10	1	BAKER	71	n/a	n/a	0	0.422607421875	0.5869140625	0	lower	zerothre.ttf
1496464	WORD	wordpools/wasnorm_wordpool.txt	LTP102	ltpFR	3	10	1	MICROWAVE	892	n/a	n/a	0	0.422607421875	0.5869140625	0	lower	zerothre.ttf
1500505	WORD	wordpools/wasnorm_wordpool.txt	LTP102	ltpFR	3	10	1	RECIPE	1175	n/a	n/a	0	0.422607421875	0.5869140625	0	lower	zerothre.ttf
1504438	WORD	wordpools/wasnorm_wordpool.txt	LTP102	ltpFR	3	10	1	SNORKEL	1336	n/a	n/a	0	0.422607421875	0.5869140625	0	lower	zerothre.ttf
1508530	WORD	wordpools/wasnorm_wordpool.txt	LTP102	ltpFR	3	10	1	TRUCK	1512	n/a	n/a	0	0.422607421875	0.5869140625	0	lower	zerothre.ttf
1512579	WORD	wordpools/wasnorm_wordpool.txt	LTP102	ltpFR	3	10	1	CAMEL	223	n/a	n/a	1	0.422607421875	0.5869140625	0	lower	zerothre.ttf
1516388	WORD	wordpools/wasnorm_wordpool.txt	LTP102	ltpFR	3	10	1	POT	1114	n/a	n/a	0	0.422607421875	0.5869140625	0	lower	zerothre.ttf
1520537	WORD	wordpools/wasnorm_wordpool.txt	LTP102	ltpFR	3	10	1	LOAF	835	n/a	n/a	0	0.422607421875	0.5869140625	0	lower	zerothre.ttf
1524712	WORD	wordpools/wasnorm_wordpool.txt	LTP102	ltpFR	3	10	1	CHEDDAR	286	n/a	n/a	0	0.422607421875	0.5869140625	0	lower	zerothre.ttf
1528802	WORD	wordpools/wasnorm_wordpool.txt	LTP102	ltpFR	3	10	1	FOOTBALL	591	n/a	n/a	0	0.422607421875	0.5869140625	0	lower	zerothre.ttf
1532827	WORD	wordpools/wasnorm_wordpool.txt	LTP102	ltpFR	3	10	1	PUCK	1138	n/a	n/a	0	0.422607421875	0.5869140625	0	lower	zerothre.ttf
1536810	WORD	wordpools/wasnorm_wordpool.txt	LTP102	ltpFR	3	10	1	HORSE	719	n/a	n/a	0	0.422607421875	0.5869140625	0	lower	zerothre.ttf
1542786	REC_START	n/a	LTP102	ltpFR	3	10	n/a	n/a	n/a	n/a	n/a	n/a	n/a	n/a	n/a	n/a	n/a
1544197	REC_WORD	wordpools/wasnorm_wordpool.txt	LTP102	ltpFR	3	10	1	HORSE	719	n/a	n/a	0	n/a	n/a	n/a	n/a	n/a
1548623	REC_WORD	wordpools/wasnorm_wordpool.txt	LTP102	ltpFR	3	10	1	PUCK	1138	n/a	n/a	0	n/a	n/a	n/a	n/a	n/a
1553486	REC_WORD	wordpools/wasnorm_wordpool.txt	LTP102	ltpFR	3	10	1	TRUCK	1512	n/a	n/a	0	n/a	n/a	n/a	n/a	n/a
1561548	REC_WORD	wordpools/wasnorm_wordpool.txt	LTP102	ltpFR	3	10	1	RECIPE	1175	n/a	n/a	0	n/a	n/a	n/a	n/a	n/a
1567046	REC_WORD	wordpools/wasnorm_wordpool.txt	LTP102	ltpFR	3	10	1	CHEDDAR	286	n/a	n/a	0	n/a	n/a	n/a	n/a	n/a
1583244	REC_WORD	wordpools/wasnorm_wordpool.txt	LTP102	ltpFR	3	10	1	CAMEL	223	n/a	n/a	1	n/a	n/a	n/a	n/a	n/a
1616743	REC_WORD	wordpools/wasnorm_wordpool.txt	LTP102	ltpFR	3	10	1	BAKER	71	n/a	n/a	0	n/a	n/a	n/a	n/a	n/a
1628936	WORD	wordpools/wasnorm_wordpool.txt	LTP102	ltpFR	3	11	1	OPERATOR	979	n/a	n/a	1	0.422607421875	0.5869140625	0	lower	zerothre.ttf
1632779	WORD	wordpools/wasnorm_wordpool.txt	LTP102	ltpFR	3	11	1	WIRE	1616	n/a	n/a	0	0.422607421875	0.5869140625	0	lower	zerothre.ttf
1636819	WORD	wordpools/wasnorm_wordpool.txt	LTP102	ltpFR	3	11	0	APPLICATION	34	n/a	n/a	1	0.57763671875	0.412841796875	1	upper	amplitud.ttf
1640795	WORD	wordpools/wasnorm_wordpool.txt	LTP102	ltpFR	3	11	0	SUPPER	1411	n/a	n/a	1	0.57763671875	0.412841796875	1	upper	amplitud.ttf
1644628	WORD	wordpools/wasnorm_wordpool.txt	LTP102	ltpFR	3	11	0	GYMNAST	675	n/a	n/a	1	0.57763671875	0.412841796875	1	upper	amplitud.ttf
1648669	WORD	wordpools/wasnorm_wordpool.txt	LTP102	ltpFR	3	11	0	FROG	608	n/a	n/a	0	0.57763671875	0.412841796875	1	upper	amplitud.ttf
1652602	WORD	wordpools/wasnorm_wordpool.txt	LTP102	ltpFR	3	11	0	MARKET	871	n/a	n/a	1	0.57763671875	0.412841796875	1	upper	amplitud.ttf
1656652	WORD	wordpools/wasnorm_wordpool.txt	LTP102	ltpFR	3	11	1	REPORT	1184	n/a	n/a	0	0.422607421875	0.5869140625	0	lower	zerothre.ttf
1660485	WORD	wordpools/wasnorm_wordpool.txt	LTP102	ltpFR	3	11	1	CONTAINER	366	n/a	n/a	0	0.422607421875	0.5869140625	0	lower	zerothre.ttf
1664451	WORD	wordpools/wasnorm_wordpool.txt	LTP102	ltpFR	3	11	1	CAPITAL	238	n/a	n/a	0	0.422607421875	0.5869140625	0	lower	zerothre.ttf
1668376	WORD	wordpools/wasnorm_wordpool.txt	LTP102	ltpFR	3	11	0	GOVERNOR	651	n/a	n/a	1	0.57763671875	0.412841796875	1	upper	amplitud.ttf
1672201	WORD	wordpools/wasnorm_wordpool.txt	LTP102	ltpFR	3	11	0	TECHNICIAN	1443	n/a	n/a	1	0.57763671875	0.412841796875	1	upper	amplitud.ttf
1676075	WORD	wordpools/wasnorm_wordpool.txt	LTP102	ltpFR	3	11	0	ACROBAT	4	n/a	n/a	1	0.57763671875	0.412841796875	1	upper	amplitud.ttf
1680159	WORD	wordpools/wasnorm_wordpool.txt	LTP102	ltpFR	3	11	1	FLOUR	583	n/a	n/a	0	0.422607421875	0.5869140625	0	lower	zerothre.ttf
1684242	WORD	wordpools/wasnorm_wordpool.txt	LTP102	ltpFR	3	11	1	UMBRELLA	1534	n/a	n/a	0	0.422607421875	0.5869140625	0	lower	zerothre.ttf
1688099	WORD	wordpools/wasnorm_wordpool.txt	LTP102	ltpFR	3	11	1	STAFF	1365	n/a	n/a	0	0.422607421875	0.5869140625	0	lower	zerothre.ttf
1693907	REC_START	n/a	LTP102	ltpFR	3	11	n/a	n/a	n/a	n/a	n/a	n/a	n/a	n/a	n/a	n/a	n/a
1695248	REC_WORD	wordpools/wasnorm_wordpool.txt	LTP102	ltpFR	3	11	1	STAFF	1365	n/a	n/a	0	n/a	n/a	n/a	n/a	n/a
1697314	REC_WORD	wordpools/wasnorm_wordpool.txt	LTP102	ltpFR	3	11	1	UMBRELLA	1534	n/a	n/a	0	n/a	n/a	n/a	n/a	n/a
1706094	REC_WORD	wordpools/wasnorm_wordpool.txt	LTP102	ltpFR	3	11	0	APPLICATION	34	n/a	n/a	1	n/a	n/a	n/a	n/a	n/a
1708354	REC_WORD	wordpools/wasnorm_wordpool.txt	LTP102	ltpFR	3	11	1	REPORT	1184	n/a	n/a	0	n/a	n/a	n/a	n/a	n/a
1711377	REC_WORD	wordpools/wasnorm_wordpool.txt	LTP102	ltpFR	3	11	0	FROG	608	n/a	n/a	0	n/a	n/a	n/a	n/a	n/a
1718197	REC_WORD	wordpools/wasnorm_wordpool.txt	LTP102	ltpFR	3	11	0	MARKET	871	n/a	n/a	1	n/a	n/a	n/a	n/a	n/a
1765389	REC_WORD	wordpools/wasnorm_wordpool.txt	LTP102	ltpFR	3	11	1	WIRE	1616	n/a	n/a	0	n/a	n/a	n/a	n/a	n/a
1781109	WORD	wordpools/wasnorm_wordpool.txt	LTP102	ltpFR	3	12	-1	FELLOW	558	n/a	n/a	-1	1.0	1.0	1	upper	Verdana.ttf
1785217	WORD	wordpools/wasnorm_wordpool.txt	LTP102	ltpFR	3	12	-1	ROBE	1198	n/a	n/a	-1	1.0	1.0	1	upper	Verdana.ttf
1789049	WORD	wordpools/wasnorm_wordpool.txt	LTP102	ltpFR	3	12	-1	LION	827	n/a	n/a	-1	1.0	1.0	1	upper	Verdana.ttf
1793183	WORD	wordpools/wasnorm_wordpool.txt	LTP102	ltpFR	3	12	-1	INN	739	n/a	n/a	-1	1.0	1.0	1	upper	Verdana.ttf
1797300	WORD	wordpools/wasnorm_wordpool.txt	LTP102	ltpFR	3	12	-1	LOBBY	836	n/a	n/a	-1	1.0	1.0	1	upper	Verdana.ttf
1801383	WORD	wordpools/wasnorm_wordpool.txt	LTP102	ltpFR	3	12	-1	POND	1101	n/a	n/a	-1	1.0	1.0	1	upper	Verdana.ttf
1805541	WORD	wordpools/wasnorm_wordpool.txt	LTP102	ltpFR	3	12	-1	CHURCH	307	n/a	n/a	-1	1.0	1.0	1	upper	Verdana.ttf
1809532	WORD	wordpools/wasnorm_wordpool.txt	LTP102	ltpFR	3	12	-1	CAFE	216	n/a	n/a	-1	1.0	1.0	1	upper	Verdana.ttf
1813382	WORD	wordpools/wasnorm_wordpool.txt	LTP102	ltpFR	3	12	-1	SPOON	1357	n/a	n/a	-1	1.0	1.0	1	upper	Verdana.ttf
1817315	WORD	wordpools/wasnorm_wordpool.txt	LTP102	ltpFR	3	12	-1	ATTIRE	57	n/a	n/a	-1	1.0	1.0	1	upper	Verdana.ttf
1821206	WORD	wordpools/wasnorm_wordpool.txt	LTP102	ltpFR	3	12	-1	TUXEDO	1525	n/a	n/a	-1	1.0	1.0	1	upper	Verdana.ttf
1825331	WORD	wordpools/wasnorm_wordpool.txt	LTP102	ltpFR	3	12	-1	FOE	587	n/a	n/a	-1	1.0	1.0	1	upper	Verdana.ttf
1829514	WORD	wordpools/wasnorm_wordpool.txt	LTP102	ltpFR	3	12	-1	SUIT	1402	n/a	n/a	-1	1.0	1.0	1	upper	Verdana.ttf
1833472	WORD	wordpools/wasnorm_wordpool.txt	LTP102	ltpFR	3	12	-1	PUMP	1141	n/a	n/a	-1	1.0	1.0	1	upper	Verdana.ttf
1837672	WORD	wordpools/wasnorm_wordpool.txt	LTP102	ltpFR	3	12	-1	SENATOR	1268	n/a	n/a	-1	1.0	1.0	1	upper	Verdana.ttf
1841788	WORD	wordpools/wasnorm_wordpool.txt	LTP102	ltpFR	3	12	-1	JACKET	747	n/a	n/a	-1	1.0	1.0	1	upper	Verdana.ttf
1847546	REC_START	n/a	LTP102	ltpFR	3	12	n/a	n/a	n/a	n/a	n/a	n/a	n/a	n/a	n/a	n/a	n/a
1848878	REC_WORD	wordpools/wasnorm_wordpool.txt	LTP102	ltpFR	3	12	-1	JACKET	747	n/a	n/a	-1	n/a	n/a	n/a	n/a	n/a
1850933	REC_WORD	wordpools/wasnorm_wordpool.txt	LTP102	ltpFR	3	12	-1	SENATOR	1268	n/a	n/a	-1	n/a	n/a	n/a	n/a	n/a
1853093	REC_WORD	wordpools/wasnorm_wordpool.txt	LTP102	ltpFR	3	12	-1	TUXEDO	1525	n/a	n/a	-1	n/a	n/a	n/a	n/a	n/a
1923157	REST_REWET	n/a	LTP102	ltpFR	3	12	n/a	n/a	n/a	n/a	n/a	n/a	n/a	n/a	n/a	n/a	n/a
2352733	WORD	wordpools/wasnorm_wordpool.txt	LTP102	ltpFR	3	13	0	FOLLOWER	589	n/a	n/a	1	0.57763671875	0.412841796875	1	upper	amplitud.ttf
2356583	WORD	wordpools/wasnorm_wordpool.txt	LTP102	ltpFR	3	13	0	BRIDE	173	n/a	n/a	1	0.57763671875	0.412841796875	1	upper	amplitud.ttf
2360499	WORD	wordpools/wasnorm_wordpool.txt	LTP102	ltpFR	3	13	0	KEEPER	769	n/a	n/a	1	0.57763671875	0.412841796875	1	upper	amplitud.ttf
2364315	WORD	wordpools/wasnorm_wordpool.txt	LTP102	ltpFR	3	13	0	EAGLE	512	n/a	n/a	1	0.57763671875	0.412841796875	1	upper	amplitud.ttf
2368140	WORD	wordpools/wasnorm_wordpool.txt	LTP102	ltpFR	3	13	0	CAULIFLOWER	262	n/a	n/a	1	0.57763671875	0.412841796875	1	upper	amplitud.ttf
2372106	WORD	wordpools/wasnorm_wordpool.txt	LTP102	ltpFR	3	13	0	SEED	1266	n/a	n/a	0	0.57763671875	0.412841796875	1	upper	amplitud.ttf
2376073	WORD	wordpools/wasnorm_wordpool.txt	LTP102	ltpFR	3	13	1	DIVER	476	n/a	n/a	1	0.422607421875	0.5869140625	0	lower	zerothre.ttf
2380181	WORD	wordpools/wasnorm_wordpool.txt	LTP102	ltpFR	3	13	1	POOL	1103	n/a	n/a	0	0.422607421875	0.5869140625	0	lower	zerothre.ttf
2384381	WORD	wordpools/wasnorm_wordpool.txt	LTP102	ltpFR	3	13	1	PELT	1040	n/a	n/a	0	0.422607421875	0.5869140625	0	lower	zerothre.ttf
2388372	WORD	wordpools/wasnorm_wordpool.txt	LTP102	ltpFR	3	13	0	BANKER	84	n/a	n/a	1	0.57763671875	0.412841796875	1	upper	amplitud.ttf
2392555	WORD	wordpools/wasnorm_wordpool.txt	LTP102	ltpFR	3	13	0	COLLEGE	346	n/a	n/a	1	0.57763671875	0.412841796875	1	upper	amplitud.ttf
2396563	WORD	wordpools/wasnorm_wordpool.txt	LTP102	ltpFR	3	13	1	GULL	671	n/a	n/a	1	0.422607421875	0.5869140625	0	lower	zerothre.ttf
2400621	WORD	wordpools/wasnorm_wordpool.txt	LTP102	ltpFR	3	13	1	TIGER	1467	n/a	n/a	1	0.422607421875	0.5869140625	0	lower	zerothre.ttf
2404604	WORD	wordpools/wasnorm_wordpool.txt	LTP102	ltpFR	3	13	1	KITTEN	780	n/a	n/a	1	0.422607421875	0.5869140625	0	lower	zerothre.ttf
2408670	WORD	wordpools/wasnorm_wordpool.txt	LTP102	ltpFR	3	13	1	MANAGER	863	n/a	n/a	0	0.422607421875	0.5869140625	0	lower	zerothre.ttf
2412802	WORD	wordpools/wasnorm_wordpool.txt	LTP102	ltpFR	3	13	1	DOORBELL	487	n/a	n/a	0	0.422607421875	0.5869140625	0	lower	zerothre.ttf
2418487	REC_START	n/a	LTP102	ltpFR	3	13	n/a	n/a	n/a	n/a	n/a	n/a	n/a	n/a	n/a	n/a	n/a
2420103	REC_WORD	wordpools/wasnorm_wordpool.txt	LTP102	ltpFR	3	13	1	DOORBELL	487	n/a	n/a	0	n/a	n/a	n/a	n/a	n/a
2421620	REC_WORD	wordpools/wasnorm_wordpool.txt	LTP102	ltpFR	3	13	1	MANAGER	863	n/a	n/a	0	n/a	n/a	n/a	n/a	n/a
2423421	REC_WORD	wordpools/wasnorm_wordpool.txt	LTP102	ltpFR	3	13	1	KITTEN	780	n/a	n/a	1	n/a	n/a	n/a	n/a	n/a
2425231	REC_WORD	wordpools/wasnorm_wordpool.txt	LTP102	ltpFR	3	13	1	TIGER	1467	n/a	n/a	1	n/a	n/a	n/a	n/a	n/a
2427412	REC_WORD	wordpools/wasnorm_wordpool.txt	LTP102	ltpFR	3	13	1	GULL	671	n/a	n/a	1	n/a	n/a	n/a	n/a	n/a
2430953	REC_WORD	wordpools/wasnorm_wordpool.txt	LTP102	ltpFR	3	13	0	FOLLOWER	589	n/a	n/a	1	n/a	n/a	n/a	n/a	n/a
2440322	REC_WORD	wordpools/wasnorm_wordpool.txt	LTP102	ltpFR	3	13	0	SEED	1266	n/a	n/a	0	n/a	n/a	n/a	n/a	n/a
2441904	REC_WORD	wordpools/wasnorm_wordpool.txt	LTP102	ltpFR	3	13	0	CAULIFLOWER	262	n/a	n/a	1	n/a	n/a	n/a	n/a	n/a
2446493	REC_WORD	wordpools/wasnorm_wordpool.txt	LTP102	ltpFR	3	13	1	POOL	1103	n/a	n/a	0	n/a	n/a	n/a	n/a	n/a
2448339	REC_WORD	wordpools/wasnorm_wordpool.txt	LTP102	ltpFR	3	13	1	DIVER	476	n/a	n/a	1	n/a	n/a	n/a	n/a	n/a
2466168	REC_WORD	wordpools/wasnorm_wordpool.txt	LTP102	ltpFR	3	13	0	COLLEGE	346	n/a	n/a	1	n/a	n/a	n/a	n/a	n/a
2468134	REC_WORD	wordpools/wasnorm_wordpool.txt	LTP102	ltpFR	3	13	n/a	BANK	83	n/a	n/a	n/a	n/a	n/a	n/a	n/a	n/a
2492933	REC_WORD	wordpools/wasnorm_wordpool.txt	LTP102	ltpFR	3	13	1	PELT	1040	n/a	n/a	0	n/a	n/a	n/a	n/a	n/a
2503821	WORD	wordpools/wasnorm_wordpool.txt	LTP102	ltpFR	3	14	0	PAINTER	1004	n/a	n/a	1	0.57763671875	0.412841796875	1	upper	amplitud.ttf
2507962	WORD	wordpools/wasnorm_wordpool.txt	LTP102	ltpFR	3	14	0	HOOK	715	n/a	n/a	0	0.57763671875	0.412841796875	1	upper	amplitud.ttf
2511820	WORD	wordpools/wasnorm_wordpool.txt	LTP102	ltpFR	3	14	0	SHRIMP	1297	n/a	n/a	0	0.57763671875	0.412841796875	1	upper	amplitud.ttf
2515721	WORD	wordpools/wasnorm_wordpool.txt	LTP102	ltpFR	3	14	0	BAY	102	n/a	n/a	1	0.57763671875	0.412841796875	1	upper	amplitud.ttf
2519654	WORD	wordpools/wasnorm_wordpool.txt	LTP102	ltpFR	3	14	0	JUG	762	n/a	n/a	0	0.57763671875	0.412841796875	1	upper	amplitud.ttf
2523637	WORD	wordpools/wasnorm_wordpool.txt	LTP102	ltpFR	3	14	0	TELEPHONE	1445	n/a	n/a	1	0.57763671875	0.412841796875	1	upper	amplitud.ttf
2527478	WORD	wordpools/wasnorm_wordpool.txt	LTP102	ltpFR	3	14	0	WALRUS	1585	n/a	n/a	1	0.57763671875	0.412841796875	1	upper	amplitud.ttf
2531469	WORD	wordpools/wasnorm_wordpool.txt	LTP102	ltpFR	3	14	0	HAMBURGER	679	n/a	n/a	0	0.57763671875	0.412841796875	1	upper	amplitud.ttf
2535527	WORD	wordpools/wasnorm_wordpool.txt	LTP102	ltpFR	3	14	0	BEAN	105	n/a	n/a	0	0.57763671875	0.412841796875	1	upper	amplitud.ttf
2539486	WORD	wordpools/wasnorm_wordpool.txt	LTP102	ltpFR	3	14	0	BARLEY	88	n/a	n/a	0	0.57763671875	0.412841796875	1	upper	amplitud.ttf
2543494	WORD	wordpools/wasnorm_wordpool.txt	LTP102	ltpFR	3	14	0	DIAL	457	n/a	n/a	0	0.57763671875	0.412841796875	1	upper	amplitud.ttf
2547410	WORD	wordpools/wasnorm_wordpool.txt	LTP102	ltpFR	3	14	0	SCENERY	1247	n/a	n/a	1	0.57763671875	0.412841796875	1	upper	amplitud.ttf
2551585	WORD	wordpools/wasnorm_wordpool.txt	LTP102	ltpFR	3	14	0	SALT	1229	n/a	n/a	0	0.57763671875	0.412841796875	1	upper	amplitud.ttf
2555426	WORD	wordpools/wasnorm_wordpool.txt	LTP102	ltpFR	3	14	0	MAGICIAN	854	n/a	n/a	1	0.57763671875	0.412841796875	1	upper	amplitud.ttf
2559326	WORD	wordpools/wasnorm_wordpool.txt	LTP102	ltpFR	3	14	0	ANTELOPE	27	n/a	n/a	1	0.57763671875	0.412841796875	1	upper	amplitud.ttf
2563150	WORD	wordpools/wasnorm_wordpool.txt	LTP102	ltpFR	3	14	0	ROOMMATE	1207	n/a	n/a	1	0.57763671875	0.412841796875	1	upper	amplitud.ttf
2568999	REC_START	n/a	LTP102	ltpFR	3	14	n/a	n/a	n/a	n/a	n/a	n/a	n/a	n/a	n/a	n/a	n/a
2570630	REC_WORD	wordpools/wasnorm_wordpool.txt	LTP102	ltpFR	3	14	0	ROOMMATE	1207	n/a	n/a	1	n/a	n/a	n/a	n/a	n/a
2572107	REC_WORD	wordpools/wasnorm_wordpool.txt	LTP102	ltpFR	3	14	0	MAGICIAN	854	n/a	n/a	1	n/a	n/a	n/a	n/a	n/a
2573823	REC_WORD	wordpools/wasnorm_wordpool.txt	LTP102	ltpFR	3	14	0	BAY	102	n/a	n/a	1	n/a	n/a	n/a	n/a	n/a
2575509	REC_WORD	wordpools/wasnorm_wordpool.txt	LTP102	ltpFR	3	14	0	ANTELOPE	27	n/a	n/a	1	n/a	n/a	n/a	n/a	n/a
2606793	REC_WORD	wordpools/wasnorm_wordpool.txt	LTP102	ltpFR	3	14	0	BEAN	105	n/a	n/a	0	n/a	n/a	n/a	n/a	n/a
2608245	REC_WORD	wordpools/wasnorm_wordpool.txt	LTP102	ltpFR	3	14	0	BARLEY	88	n/a	n/a	0	n/a	n/a	n/a	n/a	n/a
2635742	REC_WORD	wordpools/wasnorm_wordpool.txt	LTP102	ltpFR	3	14	0	ROOMMATE	1207	n/a	n/a	1	n/a	n/a	n/a	n/a	n/a
2665933	WORD	wordpools/wasnorm_wordpool.txt	LTP102	ltpFR	3	15	0	PLUM	1090	n/a	n/a	0	0.57763671875	0.412841796875	1	upper	amplitud.ttf
2669742	WORD	wordpools/wasnorm_wordpool.txt	LTP102	ltpFR	3	15	0	WHIP	1604	n/a	n/a	0	0.57763671875	0.412841796875	1	upper	amplitud.ttf
2673675	WORD	wordpools/wasnorm_wordpool.txt	LTP102	ltpFR	3	15	0	FLIPPER	580	n/a	n/a	1	0.57763671875	0.412841796875	1	upper	amplitud.ttf
2677742	WORD	wordpools/wasnorm_wordpool.txt	LTP102	ltpFR	3	15	1	SKULL	1320	n/a	n/a	0	0.422607421875	0.5869140625	0	lower	zerothre.ttf
2681741	WORD	wordpools/wasnorm_wordpool.txt	LTP102	ltpFR	3	15	1	SHEPHERD	1283	n/a	n/a	1	0.422607421875	0.5869140625	0	lower	zerothre.ttf
2685683	WORD	wordpools/wasnorm_wordpool.txt	LTP102	ltpFR	3	15	1	EWE	542	n/a	n/a	0	0.422607421875	0.5869140625	0	lower	zerothre.ttf
2689508	WORD	wordpools/wasnorm_wordpool.txt	LTP102	ltpFR	3	15	1	STEWARDESS	1381	n/a	n/a	0	0.422607421875	0.5869140625	0	lower	zerothre.ttf
2693657	WORD	wordpools/wasnorm_wordpool.txt	LTP102	ltpFR	3	15	1	ORANGE	980	n/a	n/a	1	0.422607421875	0.5869140625	0	lower	zerothre.ttf
2697549	WORD	wordpools/wasnorm_wordpool.txt	LTP102	ltpFR	3	15	1	PLANT	1083	n/a	n/a	1	0.422607421875	0.5869140625	0	lower	zerothre.ttf
2701607	WORD	wordpools/wasnorm_wordpool.txt	LTP102	ltpFR	3	15	0	FRIES	607	n/a	n/a	1	0.57763671875	0.412841796875	1	upper	amplitud.ttf
2705673	WORD	wordpools/wasnorm_wordpool.txt	LTP102	ltpFR	3	15	0	CHEEK	287	n/a	n/a	0	0.57763671875	0.412841796875	1	upper	amplitud.ttf
2709813	WORD	wordpools/wasnorm_wordpool.txt	LTP102	ltpFR	3	15	0	MOSS	918	n/a	n/a	0	0.57763671875	0.412841796875	1	upper	amplitud.ttf
2713871	WORD	wordpools/wasnorm_wordpool.txt	LTP102	ltpFR	3	15	1	IDOL	733	n/a	n/a	1	0.422607421875	0.5869140625	0	lower	zerothre.ttf
2717697	WORD	wordpools/wasnorm_wordpool.txt	LTP102	ltpFR	3	15	1	PERSON	1052	n/a	n/a	1	0.422607421875	0.5869140625	0	lower	zerothre.ttf
2721821	WORD	wordpools/wasnorm_wordpool.txt	LTP102	ltpFR	3	15	0	RABBIT	1152	n/a	n/a	0	0.57763671875	0.412841796875	1	upper	amplitud.ttf
2725705	WORD	wordpools/wasnorm_wordpool.txt	LTP102	ltpFR	3	15	0	TORTOISE	1486	n/a	n/a	0	0.57763671875	0.412841796875	1	upper	amplitud.ttf
2731480	REC_START	n/a	LTP102	ltpFR	3	15	n/a	n/a	n/a	n/a	n/a	n/a	n/a	n/a	n/a	n/a	n/a
2733380	REC_WORD	wordpools/wasnorm_wordpool.txt	LTP102	ltpFR	3	15	0	TORTOISE	1486	n/a	n/a	0	n/a	n/a	n/a	n/a	n/a
2735057	REC_WORD	wordpools/wasnorm_wordpool.txt	LTP102	ltpFR	3	15	0	RABBIT	1152	n/a	n/a	0	n/a	n/a	n/a	n/a	n/a
2737426	REC_WORD	wordpools/wasnorm_wordpool.txt	LTP102	ltpFR	3	15	1	IDOL	733	n/a	n/a	1	n/a	n/a	n/a	n/a	n/a
2738753	REC_WORD	wordpools/wasnorm_wordpool.txt	LTP102	ltpFR	3	15	1	PERSON	1052	n/a	n/a	1	n/a	n/a	n/a	n/a	n/a
2741602	REC_WORD	wordpools/wasnorm_wordpool.txt	LTP102	ltpFR	3	15	1	EWE	542	n/a	n/a	0	n/a	n/a	n/a	n/a	n/a
2774377	REC_WORD	wordpools/wasnorm_wordpool.txt	LTP102	ltpFR	3	15	0	FRIES	607	n/a	n/a	1	n/a	n/a	n/a	n/a	n/a
2819997	WORD	wordpools/wasnorm_wordpool.txt	LTP102	ltpFR	3	16	-1	FRIAR	605	n/a	n/a	-1	1.0	1.0	1	upper	Verdana.ttf
2824122	WORD	wordpools/wasnorm_wordpool.txt	LTP102	ltpFR	3	16	-1	BANANA	77	n/a	n/a	-1	1.0	1.0	1	upper	Verdana.ttf
2827988	WORD	wordpools/wasnorm_wordpool.txt	LTP102	ltpFR	3	16	-1	SHORTCAKE	1292	n/a	n/a	-1	1.0	1.0	1	upper	Verdana.ttf
2832155	WORD	wordpools/wasnorm_wordpool.txt	LTP102	ltpFR	3	16	-1	TAPE	1433	n/a	n/a	-1	1.0	1.0	1	upper	Verdana.ttf
2836113	WORD	wordpools/wasnorm_wordpool.txt	LTP102	ltpFR	3	16	-1	TROMBONE	1508	n/a	n/a	-1	1.0	1.0	1	upper	Verdana.ttf
2840037	WORD	wordpools/wasnorm_wordpool.txt	LTP102	ltpFR	3	16	-1	CANDY	230	n/a	n/a	-1	1.0	1.0	1	upper	Verdana.ttf
2843928	WORD	wordpools/wasnorm_wordpool.txt	LTP102	ltpFR	3	16	-1	TICK	1463	n/a	n/a	-1	1.0	1.0	1	upper	Verdana.ttf
2848020	WORD	wordpools/wasnorm_wordpool.txt	LTP102	ltpFR	3	16	-1	CHESS	294	n/a	n/a	-1	1.0	1.0	1	upper	Verdana.ttf
2851903	WORD	wordpools/wasnorm_wordpool.txt	LTP102	ltpFR	3	16	-1	JOKER	759	n/a	n/a	-1	1.0	1.0	1	upper	Verdana.ttf
2855952	WORD	wordpools/wasnorm_wordpool.txt	LTP102	ltpFR	3	16	-1	SHEET	1279	n/a	n/a	-1	1.0	1.0	1	upper	Verdana.ttf
2859860	WORD	wordpools/wasnorm_wordpool.txt	LTP102	ltpFR	3	16	-1	NUN	962	n/a	n/a	-1	1.0	1.0	1	upper	Verdana.ttf
2863943	WORD	wordpools/wasnorm_wordpool.txt	LTP102	ltpFR	3	16	-1	TRUMPET	1513	n/a	n/a	-1	1.0	1.0	1	upper	Verdana.ttf
2867993	WORD	wordpools/wasnorm_wordpool.txt	LTP102	ltpFR	3	16	-1	CROWN	415	n/a	n/a	-1	1.0	1.0	1	upper	Verdana.ttf
2872001	WORD	wordpools/wasnorm_wordpool.txt	LTP102	ltpFR	3	16	-1	ROBOT	1200	n/a	n/a	-1	1.0	1.0	1	upper	Verdana.ttf
2876060	WORD	wordpools/wasnorm_wordpool.txt	LTP102	ltpFR	3	16	-1	GUITAR	670	n/a	n/a	-1	1.0	1.0	1	upper	Verdana.ttf
2880110	WORD	wordpools/wasnorm_wordpool.txt	LTP102	ltpFR	3	16	-1	VIRUS	1572	n/a	n/a	-1	1.0	1.0	1	upper	Verdana.ttf
2885735	REC_START	n/a	LTP102	ltpFR	3	16	n/a	n/a	n/a	n/a	n/a	n/a	n/a	n/a	n/a	n/a	n/a
2888464	REC_WORD	wordpools/wasnorm_wordpool.txt	LTP102	ltpFR	3	16	-1	VIRUS	1572	n/a	n/a	-1	n/a	n/a	n/a	n/a	n/a
2891053	REC_WORD	wordpools/wasnorm_wordpool.txt	LTP102	ltpFR	3	16	-1	TROMBONE	1508	n/a	n/a	-1	n/a	n/a	n/a	n/a	n/a
2892764	REC_WORD	wordpools/wasnorm_wordpool.txt	LTP102	ltpFR	3	16	-1	TRUMPET	1513	n/a	n/a	-1	n/a	n/a	n/a	n/a	n/a
2898640	REC_WORD	wordpools/wasnorm_wordpool.txt	LTP102	ltpFR	3	16	-1	FRIAR	605	n/a	n/a	-1	n/a	n/a	n/a	n/a	n/a
2899943	REC_WORD	wordpools/wasnorm_wordpool.txt	LTP102	ltpFR	3	16	1	BANDANNA	80	n/a	n/a	0	n/a	n/a	n/a	n/a	n/a
2909675	REC_WORD	wordpools/wasnorm_wordpool.txt	LTP102	ltpFR	3	16	-1	BANANA	77	n/a	n/a	-1	n/a	n/a	n/a	n/a	n/a
2914933	REC_WORD	wordpools/wasnorm_wordpool.txt	LTP102	ltpFR	3	16	-1	NUN	962	n/a	n/a	-1	n/a	n/a	n/a	n/a	n/a
2916240	REC_WORD	wordpools/wasnorm_wordpool.txt	LTP102	ltpFR	3	16	-1	SHEET	1279	n/a	n/a	-1	n/a	n/a	n/a	n/a	n/a
2917892	REC_WORD	wordpools/wasnorm_wordpool.txt	LTP102	ltpFR	3	16	-1	TICK	1463	n/a	n/a	-1	n/a	n/a	n/a	n/a	n/a
2919403	REC_WORD	wordpools/wasnorm_wordpool.txt	LTP102	ltpFR	3	16	-1	CHESS	294	n/a	n/a	-1	n/a	n/a	n/a	n/a	n/a
2986935	REC_START	n/a	LTP102	ltpFR	3	1	n/a	n/a	n/a	n/a	n/a	n/a	n/a	n/a	n/a	n/a	n/a
2986968	RECOG_LURE	n/a	LTP102	ltpFR	3	1	n/a	BEAVER	109	0	n/a	n/a	n/a	n/a	n/a	n/a	n/a
2993181	RECOG_RESP	n/a	LTP102	ltpFR	3	1	n/a	BEAVER	109	0	n/a	n/a	n/a	n/a	n/a	n/a	n/a
2994476	RECOG_TARGET	n/a	LTP102	ltpFR	3	1	1	ZIPPER	1636	1	5	0	n/a	n/a	n/a	n/a	n/a
2997291	RECOG_RESP	n/a	LTP102	ltpFR	3	1	1	ZIPPER	1636	1	n/a	0	n/a	n/a	n/a	n/a	n/a
2999671	RECOG_CONF	n/a	LTP102	ltpFR	3	1	1	ZIPPER	1636	n/a	5	0	n/a	n/a	n/a	n/a	n/a
3001326	RECOG_TARGET	n/a	LTP102	ltpFR	3	1	1	SCREW	1254	0	1	0	n/a	n/a	n/a	n/a	n/a
3004215	RECOG_RESP	n/a	LTP102	ltpFR	3	1	1	SCREW	1254	0	n/a	0	n/a	n/a	n/a	n/a	n/a
3006964	RECOG_CONF	n/a	LTP102	ltpFR	3	1	1	SCREW	1254	n/a	1	0	n/a	n/a	n/a	n/a	n/a
3008517	RECOG_TARGET	n/a	LTP102	ltpFR	3	1	-1	CUSHION	428	1	5	-1	n/a	n/a	n/a	n/a	n/a
3009379	RECOG_RESP	n/a	LTP102	ltpFR	3	1	-1	CUSHION	428	1	n/a	-1	n/a	n/a	n/a	n/a	n/a
3011005	RECOG_CONF	n/a	LTP102	ltpFR	3	1	-1	CUSHION	428	n/a	5	-1	n/a	n/a	n/a	n/a	n/a
3012500	RECOG_LURE	n/a	LTP102	ltpFR	3	1	n/a	OYSTER	995	0	5	n/a	n/a	n/a	n/a	n/a	n/a
3014352	RECOG_RESP	n/a	LTP102	ltpFR	3	1	n/a	OYSTER	995	0	n/a	n/a	n/a	n/a	n/a	n/a	n/a
3015575	RECOG_CONF	n/a	LTP102	ltpFR	3	1	n/a	OYSTER	995	n/a	5	n/a	n/a	n/a	n/a	n/a	n/a
3016890	RECOG_LURE	n/a	LTP102	ltpFR	3	1	n/a	TRICYCLE	1506	0	5	n/a	n/a	n/a	n/a	n/a	n/a
3017805	RECOG_RESP	n/a	LTP102	ltpFR	3	1	n/a	TRICYCLE	1506	0	n/a	n/a	n/a	n/a	n/a	n/a	n/a
3019715	RECOG_CONF	n/a	LTP102	ltpFR	3	1	n/a	TRICYCLE	1506	n/a	5	n/a	n/a	n/a	n/a	n/a	n/a
3021249	RECOG_LURE	n/a	LTP102	ltpFR	3	1	n/a	SHELL	1281	0	5	n/a	n/a	n/a	n/a	n/a	n/a
3023262	RECOG_RESP	n/a	LTP102	ltpFR	3	1	n/a	SHELL	1281	0	n/a	n/a	n/a	n/a	n/a	n/a	n/a
3024554	RECOG_CONF	n/a	LTP102	ltpFR	3	1	n/a	SHELL	1281	n/a	5	n/a	n/a	n/a	n/a	n/a	n/a
3026040	RECOG_TARGET	n/a	LTP102	ltpFR	3	1	0	MAGICIAN	854	1	5	1	n/a	n/a	n/a	n/a	n/a
3026744	RECOG_RESP	n/a	LTP102	ltpFR	3	1	0	MAGICIAN	854	1	n/a	1	n/a	n/a	n/a	n/a	n/a
3027957	RECOG_CONF	n/a	LTP102	ltpFR	3	1	0	MAGICIAN	854	n/a	5	1	n/a	n/a	n/a	n/a	n/a
3029257	RECOG_TARGET	n/a	LTP102	ltpFR	3	1	0	VOLUNTEER	1577	1	3	1	n/a	n/a	n/a	n/a	n/a
3031738	RECOG_RESP	n/a	LTP102	ltpFR	3	1	0	VOLUNTEER	1577	1	n/a	1	n/a	n/a	n/a	n/a	n/a
3033215	RECOG_CONF	n/a	LTP102	ltpFR	3	1	0	VOLUNTEER	1577	n/a	3	1	n/a	n/a	n/a	n/a	n/a
3034623	RECOG_LURE	n/a	LTP102	ltpFR	3	1	n/a	RAKE	1164	0	2	n/a	n/a	n/a	n/a	n/a	n/a
3035604	RECOG_RESP	n/a	LTP102	ltpFR	3	1	n/a	RAKE	1164	0	n/a	n/a	n/a	n/a	n/a	n/a	n/a
3037136	RECOG_CONF	n/a	LTP102	ltpFR	3	1	n/a	RAKE	1164	n/a	2	n/a	n/a	n/a	n/a	n/a	n/a
3038406	RECOG_TARGET	n/a	LTP102	ltpFR	3	1	-1	TICK	1463	1	5	-1	n/a	n/a	n/a	n/a	n/a
3039086	RECOG_RESP	n/a	LTP102	ltpFR	3	1	-1	TICK	1463	1	n/a	-1	n/a	n/a	n/a	n/a	n/a
3040239	RECOG_CONF	n/a	LTP102	ltpFR	3	1	-1	TICK	1463	n/a	5	-1	n/a	n/a	n/a	n/a	n/a
3041565	RECOG_LURE	n/a	LTP102	ltpFR	3	1	n/a	CROSS	413	0	5	n/a	n/a	n/a	n/a	n/a	n/a
3043182	RECOG_RESP	n/a	LTP102	ltpFR	3	1	n/a	CROSS	413	0	n/a	n/a	n/a	n/a	n/a	n/a	n/a
3044669	RECOG_CONF	n/a	LTP102	ltpFR	3	1	n/a	CROSS	413	n/a	5	n/a	n/a	n/a	n/a	n/a	n/a
3046106	RECOG_TARGET	n/a	LTP102	ltpFR	3	1	-1	SILVERWARE	1308	1	5	-1	n/a	n/a	n/a	n/a	n/a
3046948	RECOG_RESP	n/a	LTP102	ltpFR	3	1	-1	SILVERWARE	1308	1	n/a	-1	n/a	n/a	n/a	n/a	n/a
3048161	RECOG_CONF	n/a	LTP102	ltpFR	3	1	-1	SILVERWARE	1308	n/a	5	-1	n/a	n/a	n/a	n/a	n/a
3049522	RECOG_LURE	n/a	LTP102	ltpFR	3	1	n/a	FLANNEL	574	0	2	n/a	n/a	n/a	n/a	n/a	n/a
3051817	RECOG_RESP	n/a	LTP102	ltpFR	3	1	n/a	FLANNEL	574	0	n/a	n/a	n/a	n/a	n/a	n/a	n/a
3053499	RECOG_CONF	n/a	LTP102	ltpFR	3	1	n/a	FLANNEL	574	n/a	2	n/a	n/a	n/a	n/a	n/a	n/a
3054879	RECOG_TARGET	n/a	LTP102	ltpFR	3	1	0	WHIP	1604	1	5	0	n/a	n/a	n/a	n/a	n/a
3055679	RECOG_RESP	n/a	LTP102	ltpFR	3	1	0	WHIP	1604	1	n/a	0	n/a	n/a	n/a	n/a	n/a
3056951	RECOG_CONF	n/a	LTP102	ltpFR	3	1	0	WHIP	1604	n/a	5	0	n/a	n/a	n/a	n/a	n/a
3058571	RECOG_TARGET	n/a	LTP102	ltpFR	3	1	0	AIRPORT	13	1	5	1	n/a	n/a	n/a	n/a	n/a
3059300	RECOG_RESP	n/a	LTP102	ltpFR	3	1	0	AIRPORT	13	1	n/a	1	n/a	n/a	n/a	n/a	n/a
3061121	RECOG_CONF	n/a	LTP102	ltpFR	3	1	0	AIRPORT	13	n/a	5	1	n/a	n/a	n/a	n/a	n/a
3062438	RECOG_TARGET	n/a	LTP102	ltpFR	3	1	-1	SHEET	1279	1	5	-1	n/a	n/a	n/a	n/a	n/a
3063182	RECOG_RESP	n/a	LTP102	ltpFR	3	1	-1	SHEET	1279	1	n/a	-1	n/a	n/a	n/a	n/a	n/a
3064523	RECOG_CONF	n/a	LTP102	ltpFR	3	1	-1	SHEET	1279	n/a	5	-1	n/a	n/a	n/a	n/a	n/a
3065878	RECOG_LURE	n/a	LTP102	ltpFR	3	1	n/a	STY	1397	0	5	n/a	n/a	n/a	n/a	n/a	n/a
3067068	RECOG_RESP	n/a	LTP102	ltpFR	3	1	n/a	STY	1397	0	n/a	n/a	n/a	n/a	n/a	n/a	n/a
3068834	RECOG_CONF	n/a	LTP102	ltpFR	3	1	n/a	STY	1397	n/a	5	n/a	n/a	n/a	n/a	n/a	n/a
3070262	RECOG_LURE	n/a	LTP102	ltpFR	3	1	n/a	CAGE	218	0	5	n/a	n/a	n/a	n/a	n/a	n/a
3071438	RECOG_RESP	n/a	LTP102	ltpFR	3	1	n/a	CAGE	218	0	n/a	n/a	n/a	n/a	n/a	n/a	n/a
3073074	RECOG_CONF	n/a	LTP102	ltpFR	3	1	n/a	CAGE	218	n/a	5	n/a	n/a	n/a	n/a	n/a	n/a
3074370	RECOG_TARGET	n/a	LTP102	ltpFR	3	1	0	CHECK	284	1	5	0	n/a	n/a	n/a	n/a	n/a
3075050	RECOG_RESP	n/a	LTP102	ltpFR	3	1	0	CHECK	284	1	n/a	0	n/a	n/a	n/a	n/a	n/a
3076267	RECOG_CONF	n/a	LTP102	ltpFR	3	1	0	CHECK	284	n/a	5	0	n/a	n/a	n/a	n/a	n/a
3080342	REC_START	n/a	LTP102	ltpFR	3	2	n/a	n/a	n/a	n/a	n/a	n/a	n/a	n/a	n/a	n/a	n/a
3080378	RECOG_LURE	n/a	LTP102	ltpFR	3	2	n/a	WAND	1586	1	2	n/a	n/a	n/a	n/a	n/a	n/a
3081449	RECOG_RESP	n/a	LTP102	ltpFR	3	2	n/a	WAND	1586	1	n/a	n/a	n/a	n/a	n/a	n/a	n/a
3084418	RECOG_CONF	n/a	LTP102	ltpFR	3	2	n/a	WAND	1586	n/a	2	n/a	n/a	n/a	n/a	n/a	n/a
3085794	RECOG_LURE	n/a	LTP102	ltpFR	3	2	n/a	SLEIGH	1325	0	5	n/a	n/a	n/a	n/a	n/a	n/a
3086682	RECOG_RESP	n/a	LTP102	ltpFR	3	2	n/a	SLEIGH	1325	0	n/a	n/a	n/a	n/a	n/a	n/a	n/a
3088099	RECOG_CONF	n/a	LTP102	ltpFR	3	2	n/a	SLEIGH	1325	n/a	5	n/a	n/a	n/a	n/a	n/a	n/a
3089294	RECOG_TARGET	n/a	LTP102	ltpFR	3	2	1	BANDANNA	80	1	5	0	n/a	n/a	n/a	n/a	n/a
3090354	RECOG_RESP	n/a	LTP102	ltpFR	3	2	1	BANDANNA	80	1	n/a	0	n/a	n/a	n/a	n/a	n/a
3091511	RECOG_CONF	n/a	LTP102	ltpFR	3	2	1	BANDANNA	80	n/a	5	0	n/a	n/a	n/a	n/a	n/a
3093026	RECOG_TARGET	n/a	LTP102	ltpFR	3	2	1	FOOTBALL	591	1	5	0	n/a	n/a	n/a	n/a	n/a
3094105	RECOG_RESP	n/a	LTP102	ltpFR	3	2	1	FOOTBALL	591	1	n/a	0	n/a	n/a	n/a	n/a	n/a
3095622	RECOG_CONF	n/a	LTP102	ltpFR	3	2	1	FOOTBALL	591	n/a	5	0	n/a	n/a	n/a	n/a	n/a
3097185	RECOG_LURE	n/a	LTP102	ltpFR	3	2	n/a	GARBAGE	622	0	1	n/a	n/a	n/a	n/a	n/a	n/a
3098959	RECOG_RESP	n/a	LTP102	ltpFR	3	2	n/a	GARBAGE	622	0	n/a	n/a	n/a	n/a	n/a	n/a	n/a
3100780	RECOG_CONF	n/a	LTP102	ltpFR	3	2	n/a	GARBAGE	622	n/a	1	n/a	n/a	n/a	n/a	n/a	n/a
3102202	RECOG_LURE	n/a	LTP102	ltpFR	3	2	n/a	RUM	1217	0	5	n/a	n/a	n/a	n/a	n/a	n/a
3103135	RECOG_RESP	n/a	LTP102	ltpFR	3	2	n/a	RUM	1217	0	n/a	n/a	n/a	n/a	n/a	n/a	n/a
3104502	RECOG_CONF	n/a	LTP102	ltpFR	3	2	n/a	RUM	1217	n/a	5	n/a	n/a	n/a	n/a	n/a	n/a
3105760	RECOG_LURE	n/a	LTP102	ltpFR	3	2	n/a	SURVEY	1414	0	5	n/a	n/a	n/a	n/a	n/a	n/a
3106717	RECOG_RESP	n/a	LTP102	ltpFR	3	2	n/a	SURVEY	1414	0	n/a	n/a	n/a	n/a	n/a	n/a	n/a
3107974	RECOG_CONF	n/a	LTP102	ltpFR	3	2	n/a	SURVEY	1414	n/a	5	n/a	n/a	n/a	n/a	n/a	n/a
3109368	RECOG_TARGET	n/a	LTP102	ltpFR	3	2	1	SCROLL	1257	1	5	0	n/a	n/a	n/a	n/a	n/a
3110279	RECOG_RESP	n/a	LTP102	ltpFR	3	2	1	SCROLL	1257	1	n/a	0	n/a	n/a	n/a	n/a	n/a
3111516	RECOG_CONF	n/a	LTP102	ltpFR	3	2	1	SCROLL	1257	n/a	5	0	n/a	n/a	n/a	n/a	n/a
3112908	RECOG_LURE	n/a	LTP102	ltpFR	3	2	n/a	RIDER	1191	0	5	n/a	n/a	n/a	n/a	n/a	n/a
3113821	RECOG_RESP	n/a	LTP102	ltpFR	3	2	n/a	RIDER	1191	0	n/a	n/a	n/a	n/a	n/a	n/a	n/a
3115108	RECOG_CONF	n/a	LTP102	ltpFR	3	2	n/a	RIDER	1191	n/a	5	n/a	n/a	n/a	n/a	n/a	n/a
3116584	RECOG_LURE	n/a	LTP102	ltpFR	3	2	n/a	SHOULDER	1294	0	5	n/a	n/a	n/a	n/a	n/a	n/a
3117921	RECOG_RESP	n/a	LTP102	ltpFR	3	2	n/a	SHOULDER	1294	0	n/a	n/a	n/a	n/a	n/a	n/a	n/a
3119228	RECOG_CONF	n/a	LTP102	ltpFR	3	2	n/a	SHOULDER	1294	n/a	5	n/a	n/a	n/a	n/a	n/a	n/a
3120750	RECOG_TARGET	n/a	LTP102	ltpFR	3	2	1	RECIPE	1175	1	5	0	n/a	n/a	n/a	n/a	n/a
3121563	RECOG_RESP	n/a	LTP102	ltpFR	3	2	1	RECIPE	1175	1	n/a	0	n/a	n/a	n/a	n/a	n/a
3122990	RECOG_CONF	n/a	LTP102	ltpFR	3	2	1	RECIPE	1175	n/a	5	0	n/a	n/a	n/a	n/a	n/a
3124358	RECOG_LURE	n/a	LTP102	ltpFR	3	2	n/a	FRUIT	610	0	5	n/a	n/a	n/a	n/a	n/a	n/a
3125200	RECOG_RESP	n/a	LTP102	ltpFR	3	2	n/a	FRUIT	610	0	n/a	n/a	n/a	n/a	n/a	n/a	n/a
3126512	RECOG_CONF	n/a	LTP102	ltpFR	3	2	n/a	FRUIT	610	n/a	5	n/a	n/a	n/a	n/a	n/a	n/a
3127915	RECOG_TARGET	n/a	LTP102	ltpFR	3	2	1	POOL	1103	1	5	0	n/a	n/a	n/a	n/a	n/a
3128787	RECOG_RESP	n/a	LTP102	ltpFR	3	2	1	POOL	1103	1	n/a	0	n/a	n/a	n/a	n/a	n/a
3130014	RECOG_CONF	n/a	LTP102	ltpFR	3	2	1	POOL	1103	n/a	5	0	n/a	n/a	n/a	n/a	n/a
3131449	RECOG_TARGET	n/a	LTP102	ltpFR	3	2	-1	PUDDLE	1140	1	5	-1	n/a	n/a	n/a	n/a	n/a
3132109	RECOG_RESP	n/a	LTP102	ltpFR	3	2	-1	PUDDLE	1140	1	n/a	-1	n/a	n/a	n/a	n/a	n/a
3133376	RECOG_CONF	n/a	LTP102	ltpFR	3	2	-1	PUDDLE	1140	n/a	5	-1	n/a	n/a	n/a	n/a	n/a
3134840	RECOG_TARGET	n/a	LTP102	ltpFR	3	2	1	HEAD	695	1	5	0	n/a	n/a	n/a	n/a	n/a
3135666	RECOG_RESP	n/a	LTP102	ltpFR	3	2	1	HEAD	695	1	n/a	0	n/a	n/a	n/a	n/a	n/a
3137467	RECOG_CONF	n/a	LTP102	ltpFR	3	2	1	HEAD	695	n/a	5	0	n/a	n/a	n/a	n/a	n/a
3138856	RECOG_LURE	n/a	LTP102	ltpFR	3	2	n/a	BOARD	143	0	5	n/a	n/a	n/a	n/a	n/a	n/a
3139707	RECOG_RESP	n/a	LTP102	ltpFR	3	2	n/a	BOARD	143	0	n/a	n/a	n/a	n/a	n/a	n/a	n/a
3141208	RECOG_CONF	n/a	LTP102	ltpFR	3	2	n/a	BOARD	143	n/a	5	n/a	n/a	n/a	n/a	n/a	n/a
3142524	RECOG_LURE	n/a	LTP102	ltpFR	3	2	n/a	PASSENGER	1020	0	3	n/a	n/a	n/a	n/a	n/a	n/a
3144042	RECOG_RESP	n/a	LTP102	ltpFR	3	2	n/a	PASSENGER	1020	0	n/a	n/a	n/a	n/a	n/a	n/a	n/a
3145479	RECOG_CONF	n/a	LTP102	ltpFR	3	2	n/a	PASSENGER	1020	n/a	3	n/a	n/a	n/a	n/a	n/a	n/a
3146856	RECOG_LURE	n/a	LTP102	ltpFR	3	2	n/a	CONSUMER	365	0	5	n/a	n/a	n/a	n/a	n/a	n/a
3147853	RECOG_RESP	n/a	LTP102	ltpFR	3	2	n/a	CONSUMER	365	0	n/a	n/a	n/a	n/a	n/a	n/a	n/a
3149190	RECOG_CONF	n/a	LTP102	ltpFR	3	2	n/a	CONSUMER	365	n/a	5	n/a	n/a	n/a	n/a	n/a	n/a
3150556	RECOG_LURE	n/a	LTP102	ltpFR	3	2	n/a	HAND	683	1	2	n/a	n/a	n/a	n/a	n/a	n/a
3154119	RECOG_RESP	n/a	LTP102	ltpFR	3	2	n/a	HAND	683	1	n/a	n/a	n/a	n/a	n/a	n/a	n/a
3155676	RECOG_CONF	n/a	LTP102	ltpFR	3	2	n/a	HAND	683	n/a	2	n/a	n/a	n/a	n/a	n/a	n/a
3157064	RECOG_TARGET	n/a	LTP102	ltpFR	3	2	0	TROUT	1511	1	5	0	n/a	n/a	n/a	n/a	n/a
3157901	RECOG_RESP	n/a	LTP102	ltpFR	3	2	0	TROUT	1511	1	n/a	0	n/a	n/a	n/a	n/a	n/a
3159138	RECOG_CONF	n/a	LTP102	ltpFR	3	2	0	TROUT	1511	n/a	5	0	n/a	n/a	n/a	n/a	n/a
3163411	REC_START	n/a	LTP102	ltpFR	3	3	n/a	n/a	n/a	n/a	n/a	n/a	n/a	n/a	n/a	n/a	n/a
3163447	RECOG_TARGET	n/a	LTP102	ltpFR	3	3	0	HOOK	715	1	5	0	n/a	n/a	n/a	n/a	n/a
3164119	RECOG_RESP	n/a	LTP102	ltpFR	3	3	0	HOOK	715	1	n/a	0	n/a	n/a	n/a	n/a	n/a
3165321	RECOG_CONF	n/a	LTP102	ltpFR	3	3	0	HOOK	715	n/a	5	0	n/a	n/a	n/a	n/a	n/a
3166730	RECOG_LURE	n/a	LTP102	ltpFR	3	3	n/a	FURNITURE	616	0	5	n/a	n/a	n/a	n/a	n/a	n/a
3168360	RECOG_RESP	n/a	LTP102	ltpFR	3	3	n/a	FURNITURE	616	0	n/a	n/a	n/a	n/a	n/a	n/a	n/a
3169921	RECOG_CONF	n/a	LTP102	ltpFR	3	3	n/a	FURNITURE	616	n/a	5	n/a	n/a	n/a	n/a	n/a	n/a
3171513	RECOG_LURE	n/a	LTP102	ltpFR	3	3	n/a	NEWSSTAND	949	0	5	n/a	n/a	n/a	n/a	n/a	n/a
3172306	RECOG_RESP	n/a	LTP102	ltpFR	3	3	n/a	NEWSSTAND	949	0	n/a	n/a	n/a	n/a	n/a	n/a	n/a
3173653	RECOG_CONF	n/a	LTP102	ltpFR	3	3	n/a	NEWSSTAND	949	n/a	5	n/a	n/a	n/a	n/a	n/a	n/a
3175121	RECOG_LURE	n/a	LTP102	ltpFR	3	3	n/a	MESSAGE	888	0	1	n/a	n/a	n/a	n/a	n/a	n/a
3177399	RECOG_RESP	n/a	LTP102	ltpFR	3	3	n/a	MESSAGE	888	0	n/a	n/a	n/a	n/a	n/a	n/a	n/a
3178821	RECOG_CONF	n/a	LTP102	ltpFR	3	3	n/a	MESSAGE	888	n/a	1	n/a	n/a	n/a	n/a	n/a	n/a
3180237	RECOG_LURE	n/a	LTP102	ltpFR	3	3	n/a	SOFA	1342	0	5	n/a	n/a	n/a	n/a	n/a	n/a
3181076	RECOG_RESP	n/a	LTP102	ltpFR	3	3	n/a	SOFA	1342	0	n/a	n/a	n/a	n/a	n/a	n/a	n/a
3182502	RECOG_CONF	n/a	LTP102	ltpFR	3	3	n/a	SOFA	1342	n/a	5	n/a	n/a	n/a	n/a	n/a	n/a
3183953	RECOG_TARGET	n/a	LTP102	ltpFR	3	3	0	ALMANAC	17	1	5	1	n/a	n/a	n/a	n/a	n/a
3184782	RECOG_RESP	n/a	LTP102	ltpFR	3	3	0	ALMANAC	17	1	n/a	1	n/a	n/a	n/a	n/a	n/a
3186034	RECOG_CONF	n/a	LTP102	ltpFR	3	3	0	ALMANAC	17	n/a	5	1	n/a	n/a	n/a	n/a	n/a
3187762	RECOG_LURE	n/a	LTP102	ltpFR	3	3	n/a	NUT	965	0	2	n/a	n/a	n/a	n/a	n/a	n/a
3189776	RECOG_RESP	n/a	LTP102	ltpFR	3	3	n/a	NUT	965	0	n/a	n/a	n/a	n/a	n/a	n/a	n/a
3192639	RECOG_CONF	n/a	LTP102	ltpFR	3	3	n/a	NUT	965	n/a	2	n/a	n/a	n/a	n/a	n/a	n/a
3193645	RECOG_TARGET	n/a	LTP102	ltpFR	3	3	1	BARTENDER	92	1	5	1	n/a	n/a	n/a	n/a	n/a
3195263	RECOG_RESP	n/a	LTP102	ltpFR	3	3	1	BARTENDER	92	1	n/a	1	n/a	n/a	n/a	n/a	n/a
3196730	RECOG_CONF	n/a	LTP102	ltpFR	3	3	1	BARTENDER	92	n/a	5	1	n/a	n/a	n/a	n/a	n/a
3198536	RECOG_LURE	n/a	LTP102	ltpFR	3	3	n/a	HAMMER	680	0	1	n/a	n/a	n/a	n/a	n/a	n/a
3201514	RECOG_RESP	n/a	LTP102	ltpFR	3	3	n/a	HAMMER	680	0	n/a	n/a	n/a	n/a	n/a	n/a	n/a
3204093	RECOG_CONF	n/a	LTP102	ltpFR	3	3	n/a	HAMMER	680	n/a	1	n/a	n/a	n/a	n/a	n/a	n/a
3206077	RECOG_TARGET	n/a	LTP102	ltpFR	3	3	1	DEPUTY	450	1	5	1	n/a	n/a	n/a	n/a	n/a
3206937	RECOG_RESP	n/a	LTP102	ltpFR	3	3	1	DEPUTY	450	1	n/a	1	n/a	n/a	n/a	n/a	n/a
3208184	RECOG_CONF	n/a	LTP102	ltpFR	3	3	1	DEPUTY	450	n/a	5	1	n/a	n/a	n/a	n/a	n/a
3209577	RECOG_LURE	n/a	LTP102	ltpFR	3	3	n/a	CERAMICS	271	0	1	n/a	n/a	n/a	n/a	n/a	n/a
3211117	RECOG_RESP	n/a	LTP102	ltpFR	3	3	n/a	CERAMICS	271	0	n/a	n/a	n/a	n/a	n/a	n/a	n/a
3213272	RECOG_CONF	n/a	LTP102	ltpFR	3	3	n/a	CERAMICS	271	n/a	1	n/a	n/a	n/a	n/a	n/a	n/a
3214643	RECOG_TARGET	n/a	LTP102	ltpFR	3	3	0	TREAT	1501	1	5	0	n/a	n/a	n/a	n/a	n/a
3215413	RECOG_RESP	n/a	LTP102	ltpFR	3	3	0	TREAT	1501	1	n/a	0	n/a	n/a	n/a	n/a	n/a
3216794	RECOG_CONF	n/a	LTP102	ltpFR	3	3	0	TREAT	1501	n/a	5	0	n/a	n/a	n/a	n/a	n/a
3218310	RECOG_LURE	n/a	LTP102	ltpFR	3	3	n/a	BAIT	70	0	5	n/a	n/a	n/a	n/a	n/a	n/a
3219174	RECOG_RESP	n/a	LTP102	ltpFR	3	3	n/a	BAIT	70	0	n/a	n/a	n/a	n/a	n/a	n/a	n/a
3220486	RECOG_CONF	n/a	LTP102	ltpFR	3	3	n/a	BAIT	70	n/a	5	n/a	n/a	n/a	n/a	n/a	n/a
3221983	RECOG_TARGET	n/a	LTP102	ltpFR	3	3	0	FLEA	577	0	5	0	n/a	n/a	n/a	n/a	n/a
3223619	RECOG_RESP	n/a	LTP102	ltpFR	3	3	0	FLEA	577	0	n/a	0	n/a	n/a	n/a	n/a	n/a
3225046	RECOG_CONF	n/a	LTP102	ltpFR	3	3	0	FLEA	577	n/a	5	0	n/a	n/a	n/a	n/a	n/a
3226626	RECOG_TARGET	n/a	LTP102	ltpFR	3	3	-1	ELECTRICIAN	521	1	5	-1	n/a	n/a	n/a	n/a	n/a
3227495	RECOG_RESP	n/a	LTP102	ltpFR	3	3	-1	ELECTRICIAN	521	1	n/a	-1	n/a	n/a	n/a	n/a	n/a
3228757	RECOG_CONF	n/a	LTP102	ltpFR	3	3	-1	ELECTRICIAN	521	n/a	5	-1	n/a	n/a	n/a	n/a	n/a
3230217	RECOG_LURE	n/a	LTP102	ltpFR	3	3	n/a	COBRA	336	0	5	n/a	n/a	n/a	n/a	n/a	n/a
3231227	RECOG_RESP	n/a	LTP102	ltpFR	3	3	n/a	COBRA	336	0	n/a	n/a	n/a	n/a	n/a	n/a	n/a
3232569	RECOG_CONF	n/a	LTP102	ltpFR	3	3	n/a	COBRA	336	n/a	5	n/a	n/a	n/a	n/a	n/a	n/a
3233891	RECOG_TARGET	n/a	LTP102	ltpFR	3	3	1	SHARK	1275	1	5	1	n/a	n/a	n/a	n/a	n/a
3234669	RECOG_RESP	n/a	LTP102	ltpFR	3	3	1	SHARK	1275	1	n/a	1	n/a	n/a	n/a	n/a	n/a
3235871	RECOG_CONF	n/a	LTP102	ltpFR	3	3	1	SHARK	1275	n/a	5	1	n/a	n/a	n/a	n/a	n/a
3237466	RECOG_TARGET	n/a	LTP102	ltpFR	3	3	1	MANAGER	863	1	5	0	n/a	n/a	n/a	n/a	n/a
3238196	RECOG_RESP	n/a	LTP102	ltpFR	3	3	1	MANAGER	863	1	n/a	0	n/a	n/a	n/a	n/a	n/a
3239463	RECOG_CONF	n/a	LTP102	ltpFR	3	3	1	MANAGER	863	n/a	5	0	n/a	n/a	n/a	n/a	n/a
3240907	RECOG_LURE	n/a	LTP102	ltpFR	3	3	n/a	BATHROOM	99	0	2	n/a	n/a	n/a	n/a	n/a	n/a
3243648	RECOG_RESP	n/a	LTP102	ltpFR	3	3	n/a	BATHROOM	99	0	n/a	n/a	n/a	n/a	n/a	n/a	n/a
3244911	RECOG_CONF	n/a	LTP102	ltpFR	3	3	n/a	BATHROOM	99	n/a	2	n/a	n/a	n/a	n/a	n/a	n/a
3246349	RECOG_TARGET	n/a	LTP102	ltpFR	3	3	1	DOUGHNUT	490	1	2	0	n/a	n/a	n/a	n/a	n/a
3247205	RECOG_RESP	n/a	LTP102	ltpFR	3	3	1	DOUGHNUT	490	1	n/a	0	n/a	n/a	n/a	n/a	n/a
3248642	RECOG_CONF	n/a	LTP102	ltpFR	3	3	1	DOUGHNUT	490	n/a	2	0	n/a	n/a	n/a	n/a	n/a
3254389	REC_START	n/a	LTP102	ltpFR	3	4	n/a	n/a	n/a	n/a	n/a	n/a	n/a	n/a	n/a	n/a	n/a
3254423	RECOG_LURE	n/a	LTP102	ltpFR	3	4	n/a	SERGEANT	1269	0	5	n/a	n/a	n/a	n/a	n/a	n/a
3255372	RECOG_RESP	n/a	LTP102	ltpFR	3	4	n/a	SERGEANT	1269	0	n/a	n/a	n/a	n/a	n/a	n/a	n/a
3256669	RECOG_CONF	n/a	LTP102	ltpFR	3	4	n/a	SERGEANT	1269	n/a	5	n/a	n/a	n/a	n/a	n/a	n/a
3257955	RECOG_TARGET	n/a	LTP102	ltpFR	3	4	1	LANDSCAPE	799	1	5	0	n/a	n/a	n/a	n/a	n/a
3259133	RECOG_RESP	n/a	LTP102	ltpFR	3	4	1	LANDSCAPE	799	1	n/a	0	n/a	n/a	n/a	n/a	n/a
3260350	RECOG_CONF	n/a	LTP102	ltpFR	3	4	1	LANDSCAPE	799	n/a	5	0	n/a	n/a	n/a	n/a	n/a
3261748	RECOG_TARGET	n/a	LTP102	ltpFR	3	4	1	WHEAT	1602	0	5	0	n/a	n/a	n/a	n/a	n/a
3262745	RECOG_RESP	n/a	LTP102	ltpFR	3	4	1	WHEAT	1602	0	n/a	0	n/a	n/a	n/a	n/a	n/a
3263942	RECOG_CONF	n/a	LTP102	ltpFR	3	4	1	WHEAT	1602	n/a	5	0	n/a	n/a	n/a	n/a	n/a
3265414	RECOG_TARGET	n/a	LTP102	ltpFR	3	4	0	INMATE	738	1	5	1	n/a	n/a	n/a	n/a	n/a
3266092	RECOG_RESP	n/a	LTP102	ltpFR	3	4	0	INMATE	738	1	n/a	1	n/a	n/a	n/a	n/a	n/a
3267275	RECOG_CONF	n/a	LTP102	ltpFR	3	4	0	INMATE	738	n/a	5	1	n/a	n/a	n/a	n/a	n/a
3268764	RECOG_LURE	n/a	LTP102	ltpFR	3	4	n/a	FLUTE	585	1	5	n/a	n/a	n/a	n/a	n/a	n/a
3269475	RECOG_RESP	n/a	LTP102	ltpFR	3	4	n/a	FLUTE	585	1	n/a	n/a	n/a	n/a	n/a	n/a	n/a
3270866	RECOG_CONF	n/a	LTP102	ltpFR	3	4	n/a	FLUTE	585	n/a	5	n/a	n/a	n/a	n/a	n/a	n/a
3272389	RECOG_LURE	n/a	LTP102	ltpFR	3	4	n/a	TILE	1468	0	5	n/a	n/a	n/a	n/a	n/a	n/a
3273286	RECOG_RESP	n/a	LTP102	ltpFR	3	4	n/a	TILE	1468	0	n/a	n/a	n/a	n/a	n/a	n/a	n/a
3274428	RECOG_CONF	n/a	LTP102	ltpFR	3	4	n/a	TILE	1468	n/a	5	n/a	n/a	n/a	n/a	n/a	n/a
3275780	RECOG_LURE	n/a	LTP102	ltpFR	3	4	n/a	LONDON	843	0	5	n/a	n/a	n/a	n/a	n/a	n/a
3277002	RECOG_RESP	n/a	LTP102	ltpFR	3	4	n/a	LONDON	843	0	n/a	n/a	n/a	n/a	n/a	n/a	n/a
3278339	RECOG_CONF	n/a	LTP102	ltpFR	3	4	n/a	LONDON	843	n/a	5	n/a	n/a	n/a	n/a	n/a	n/a
3279697	RECOG_LURE	n/a	LTP102	ltpFR	3	4	n/a	BUILDER	190	0	5	n/a	n/a	n/a	n/a	n/a	n/a
3280574	RECOG_RESP	n/a	LTP102	ltpFR	3	4	n/a	BUILDER	190	0	n/a	n/a	n/a	n/a	n/a	n/a	n/a
3282260	RECOG_CONF	n/a	LTP102	ltpFR	3	4	n/a	BUILDER	190	n/a	5	n/a	n/a	n/a	n/a	n/a	n/a
3283738	RECOG_TARGET	n/a	LTP102	ltpFR	3	4	-1	CORD	379	0	3	-1	n/a	n/a	n/a	n/a	n/a
3284700	RECOG_RESP	n/a	LTP102	ltpFR	3	4	-1	CORD	379	0	n/a	-1	n/a	n/a	n/a	n/a	n/a
3286431	RECOG_CONF	n/a	LTP102	ltpFR	3	4	-1	CORD	379	n/a	3	-1	n/a	n/a	n/a	n/a	n/a
3287746	RECOG_TARGET	n/a	LTP102	ltpFR	3	4	-1	ROBOT	1200	1	5	-1	n/a	n/a	n/a	n/a	n/a
3288546	RECOG_RESP	n/a	LTP102	ltpFR	3	4	-1	ROBOT	1200	1	n/a	-1	n/a	n/a	n/a	n/a	n/a
3289704	RECOG_CONF	n/a	LTP102	ltpFR	3	4	-1	ROBOT	1200	n/a	5	-1	n/a	n/a	n/a	n/a	n/a
3291062	RECOG_TARGET	n/a	LTP102	ltpFR	3	4	0	TORTOISE	1486	1	5	0	n/a	n/a	n/a	n/a	n/a
3291749	RECOG_RESP	n/a	LTP102	ltpFR	3	4	0	TORTOISE	1486	1	n/a	0	n/a	n/a	n/a	n/a	n/a
3292996	RECOG_CONF	n/a	LTP102	ltpFR	3	4	0	TORTOISE	1486	n/a	5	0	n/a	n/a	n/a	n/a	n/a
3294370	RECOG_TARGET	n/a	LTP102	ltpFR	3	4	0	TURTLE	1522	1	5	0	n/a	n/a	n/a	n/a	n/a
3294897	RECOG_RESP	n/a	LTP102	ltpFR	3	4	0	TURTLE	1522	1	n/a	0	n/a	n/a	n/a	n/a	n/a
3296129	RECOG_CONF	n/a	LTP102	ltpFR	3	4	0	TURTLE	1522	n/a	5	0	n/a	n/a	n/a	n/a	n/a
3297487	RECOG_TARGET	n/a	LTP102	ltpFR	3	4	1	WINDSHIELD	1612	1	2	0	n/a	n/a	n/a	n/a	n/a
3298464	RECOG_RESP	n/a	LTP102	ltpFR	3	4	1	WINDSHIELD	1612	1	n/a	0	n/a	n/a	n/a	n/a	n/a
3300669	RECOG_CONF	n/a	LTP102	ltpFR	3	4	1	WINDSHIELD	1612	n/a	2	0	n/a	n/a	n/a	n/a	n/a
3302087	RECOG_TARGET	n/a	LTP102	ltpFR	3	4	0	STAPLER	1372	1	5	0	n/a	n/a	n/a	n/a	n/a
3302644	RECOG_RESP	n/a	LTP102	ltpFR	3	4	0	STAPLER	1372	1	n/a	0	n/a	n/a	n/a	n/a	n/a
3303772	RECOG_CONF	n/a	LTP102	ltpFR	3	4	0	STAPLER	1372	n/a	5	0	n/a	n/a	n/a	n/a	n/a
3305570	RECOG_LURE	n/a	LTP102	ltpFR	3	4	n/a	THIEF	1456	0	5	n/a	n/a	n/a	n/a	n/a	n/a
3306336	RECOG_RESP	n/a	LTP102	ltpFR	3	4	n/a	THIEF	1456	0	n/a	n/a	n/a	n/a	n/a	n/a	n/a
3307842	RECOG_CONF	n/a	LTP102	ltpFR	3	4	n/a	THIEF	1456	n/a	5	n/a	n/a	n/a	n/a	n/a	n/a
3309353	RECOG_LURE	n/a	LTP102	ltpFR	3	4	n/a	TRANSPLANT	1496	0	5	n/a	n/a	n/a	n/a	n/a	n/a
3311399	RECOG_RESP	n/a	LTP102	ltpFR	3	4	n/a	TRANSPLANT	1496	0	n/a	n/a	n/a	n/a	n/a	n/a	n/a
3312861	RECOG_CONF	n/a	LTP102	ltpFR	3	4	n/a	TRANSPLANT	1496	n/a	5	n/a	n/a	n/a	n/a	n/a	n/a
3314452	RECOG_LURE	n/a	LTP102	ltpFR	3	4	n/a	MUSHROOM	934	0	5	n/a	n/a	n/a	n/a	n/a	n/a
3315290	RECOG_RESP	n/a	LTP102	ltpFR	3	4	n/a	MUSHROOM	934	0	n/a	n/a	n/a	n/a	n/a	n/a	n/a
3316473	RECOG_CONF	n/a	LTP102	ltpFR	3	4	n/a	MUSHROOM	934	n/a	5	n/a	n/a	n/a	n/a	n/a	n/a
3317876	RECOG_LURE	n/a	LTP102	ltpFR	3	4	n/a	SWAMP	1416	0	5	n/a	n/a	n/a	n/a	n/a	n/a
3318673	RECOG_RESP	n/a	LTP102	ltpFR	3	4	n/a	SWAMP	1416	0	n/a	n/a	n/a	n/a	n/a	n/a	n/a
3319925	RECOG_CONF	n/a	LTP102	ltpFR	3	4	n/a	SWAMP	1416	n/a	5	n/a	n/a	n/a	n/a	n/a	n/a
3321335	RECOG_TARGET	n/a	LTP102	ltpFR	3	4	-1	PARSLEY	1016	1	5	-1	n/a	n/a	n/a	n/a	n/a
3322075	RECOG_RESP	n/a	LTP102	ltpFR	3	4	-1	PARSLEY	1016	1	n/a	-1	n/a	n/a	n/a	n/a	n/a
3323237	RECOG_CONF	n/a	LTP102	ltpFR	3	4	-1	PARSLEY	1016	n/a	5	-1	n/a	n/a	n/a	n/a	n/a
3324685	RECOG_LURE	n/a	LTP102	ltpFR	3	4	n/a	PENGUIN	1044	0	5	n/a	n/a	n/a	n/a	n/a	n/a
3325502	RECOG_RESP	n/a	LTP102	ltpFR	3	4	n/a	PENGUIN	1044	0	n/a	n/a	n/a	n/a	n/a	n/a	n/a
3326640	RECOG_CONF	n/a	LTP102	ltpFR	3	4	n/a	PENGUIN	1044	n/a	5	n/a	n/a	n/a	n/a	n/a	n/a
3330696	REC_START	n/a	LTP102	ltpFR	3	5	n/a	n/a	n/a	n/a	n/a	n/a	n/a	n/a	n/a	n/a	n/a
3330726	RECOG_TARGET	n/a	LTP102	ltpFR	3	5	0	LOG	841	1	5	1	n/a	n/a	n/a	n/a	n/a
3331494	RECOG_RESP	n/a	LTP102	ltpFR	3	5	0	LOG	841	1	n/a	1	n/a	n/a	n/a	n/a	n/a
3332557	RECOG_CONF	n/a	LTP102	ltpFR	3	5	0	LOG	841	n/a	5	1	n/a	n/a	n/a	n/a	n/a
3334167	RECOG_TARGET	n/a	LTP102	ltpFR	3	5	-1	SENATOR	1268	1	5	-1	n/a	n/a	n/a	n/a	n/a
3334811	RECOG_RESP	n/a	LTP102	ltpFR	3	5	-1	SENATOR	1268	1	n/a	-1	n/a	n/a	n/a	n/a	n/a
3336268	RECOG_CONF	n/a	LTP102	ltpFR	3	5	-1	SENATOR	1268	n/a	5	-1	n/a	n/a	n/a	n/a	n/a
3337983	RECOG_LURE	n/a	LTP102	ltpFR	3	5	n/a	BOULEVARD	156	0	5	n/a	n/a	n/a	n/a	n/a	n/a
3338872	RECOG_RESP	n/a	LTP102	ltpFR	3	5	n/a	BOULEVARD	156	0	n/a	n/a	n/a	n/a	n/a	n/a	n/a
3340379	RECOG_CONF	n/a	LTP102	ltpFR	3	5	n/a	BOULEVARD	156	n/a	5	n/a	n/a	n/a	n/a	n/a	n/a
3341684	RECOG_LURE	n/a	LTP102	ltpFR	3	5	n/a	ASH	44	0	5	n/a	n/a	n/a	n/a	n/a	n/a
3342998	RECOG_RESP	n/a	LTP102	ltpFR	3	5	n/a	ASH	44	0	n/a	n/a	n/a	n/a	n/a	n/a	n/a
3344589	RECOG_CONF	n/a	LTP102	ltpFR	3	5	n/a	ASH	44	n/a	5	n/a	n/a	n/a	n/a	n/a	n/a
3345966	RECOG_TARGET	n/a	LTP102	ltpFR	3	5	-1	GLASS	639	0	2	-1	n/a	n/a	n/a	n/a	n/a
3346979	RECOG_RESP	n/a	LTP102	ltpFR	3	5	-1	GLASS	639	0	n/a	-1	n/a	n/a	n/a	n/a	n/a
3349239	RECOG_CONF	n/a	LTP102	ltpFR	3	5	-1	GLASS	639	n/a	2	-1	n/a	n/a	n/a	n/a	n/a
3351015	RECOG_LURE	n/a	LTP102	ltpFR	3	5	n/a	INDIAN	736	0	5	n/a	n/a	n/a	n/a	n/a	n/a
3351908	RECOG_RESP	n/a	LTP102	ltpFR	3	5	n/a	INDIAN	736	0	n/a	n/a	n/a	n/a	n/a	n/a	n/a
3353289	RECOG_CONF	n/a	LTP102	ltpFR	3	5	n/a	INDIAN	736	n/a	5	n/a	n/a	n/a	n/a	n/a	n/a
3354733	RECOG_LURE	n/a	LTP102	ltpFR	3	5	n/a	LINEN	825	0	5	n/a	n/a	n/a	n/a	n/a	n/a
3355754	RECOG_RESP	n/a	LTP102	ltpFR	3	5	n/a	LINEN	825	0	n/a	n/a	n/a	n/a	n/a	n/a	n/a
3356861	RECOG_CONF	n/a	LTP102	ltpFR	3	5	n/a	LINEN	825	n/a	5	n/a	n/a	n/a	n/a	n/a	n/a
3358249	RECOG_TARGET	n/a	LTP102	ltpFR	3	5	0	BUCKET	184	1	5	0	n/a	n/a	n/a	n/a	n/a
3359046	RECOG_RESP	n/a	LTP102	ltpFR	3	5	0	BUCKET	184	1	n/a	0	n/a	n/a	n/a	n/a	n/a
3360264	RECOG_CONF	n/a	LTP102	ltpFR	3	5	0	BUCKET	184	n/a	5	0	n/a	n/a	n/a	n/a	n/a
3361848	RECOG_LURE	n/a	LTP102	ltpFR	3	5	n/a	TACK	1428	0	5	n/a	n/a	n/a	n/a	n/a	n/a
3362668	RECOG_RESP	n/a	LTP102	ltpFR	3	5	n/a	TACK	1428	0	n/a	n/a	n/a	n/a	n/a	n/a	n/a
3363985	RECOG_CONF	n/a	LTP102	ltpFR	3	5	n/a	TACK	1428	n/a	5	n/a	n/a	n/a	n/a	n/a	n/a
3365407	RECOG_LURE	n/a	LTP102	ltpFR	3	5	n/a	MIRROR	899	0	5	n/a	n/a	n/a	n/a	n/a	n/a
3367861	RECOG_RESP	n/a	LTP102	ltpFR	3	5	n/a	MIRROR	899	0	n/a	n/a	n/a	n/a	n/a	n/a	n/a
3369992	RECOG_CONF	n/a	LTP102	ltpFR	3	5	n/a	MIRROR	899	n/a	5	n/a	n/a	n/a	n/a	n/a	n/a
3371673	RECOG_TARGET	n/a	LTP102	ltpFR	3	5	1	DIVER	476	1	5	1	n/a	n/a	n/a	n/a	n/a
3372396	RECOG_RESP	n/a	LTP102	ltpFR	3	5	1	DIVER	476	1	n/a	1	n/a	n/a	n/a	n/a	n/a
3373543	RECOG_CONF	n/a	LTP102	ltpFR	3	5	1	DIVER	476	n/a	5	1	n/a	n/a	n/a	n/a	n/a
3374913	RECOG_LURE	n/a	LTP102	ltpFR	3	5	n/a	SCHOOL	1248	0	5	n/a	n/a	n/a	n/a	n/a	n/a
3376691	RECOG_RESP	n/a	LTP102	ltpFR	3	5	n/a	SCHOOL	1248	0	n/a	n/a	n/a	n/a	n/a	n/a	n/a
3378841	RECOG_CONF	n/a	LTP102	ltpFR	3	5	n/a	SCHOOL	1248	n/a	5	n/a	n/a	n/a	n/a	n/a	n/a
3380422	RECOG_TARGET	n/a	LTP102	ltpFR	3	5	-1	MOTOR	922	1	5	-1	n/a	n/a	n/a	n/a	n/a
3381191	RECOG_RESP	n/a	LTP102	ltpFR	3	5	-1	MOTOR	922	1	n/a	-1	n/a	n/a	n/a	n/a	n/a
3382323	RECOG_CONF	n/a	LTP102	ltpFR	3	5	-1	MOTOR	922	n/a	5	-1	n/a	n/a	n/a	n/a	n/a
3384013	RECOG_TARGET	n/a	LTP102	ltpFR	3	5	0	SEA	1259	1	5	1	n/a	n/a	n/a	n/a	n/a
3384593	RECOG_RESP	n/a	LTP102	ltpFR	3	5	0	SEA	1259	1	n/a	1	n/a	n/a	n/a	n/a	n/a
3385865	RECOG_CONF	n/a	LTP102	ltpFR	3	5	0	SEA	1259	n/a	5	1	n/a	n/a	n/a	n/a	n/a
3387397	RECOG_TARGET	n/a	LTP102	ltpFR	3	5	0	EYE	545	1	5	0	n/a	n/a	n/a	n/a	n/a
3387961	RECOG_RESP	n/a	LTP102	ltpFR	3	5	0	EYE	545	1	n/a	0	n/a	n/a	n/a	n/a	n/a
3389028	RECOG_CONF	n/a	LTP102	ltpFR	3	5	0	EYE	545	n/a	5	0	n/a	n/a	n/a	n/a	n/a
3390580	RECOG_TARGET	n/a	LTP102	ltpFR	3	5	0	CELLAR	267	1	5	1	n/a	n/a	n/a	n/a	n/a
3391228	RECOG_RESP	n/a	LTP102	ltpFR	3	5	0	CELLAR	267	1	n/a	1	n/a	n/a	n/a	n/a	n/a
3392440	RECOG_CONF	n/a	LTP102	ltpFR	3	5	0	CELLAR	267	n/a	5	1	n/a	n/a	n/a	n/a	n/a
3394037	RECOG_TARGET	n/a	LTP102	ltpFR	3	5	0	KEEPER	769	0	3	1	n/a	n/a	n/a	n/a	n/a
3394905	RECOG_RESP	n/a	LTP102	ltpFR	3	5	0	KEEPER	769	0	n/a	1	n/a	n/a	n/a	n/a	n/a
3397279	RECOG_CONF	n/a	LTP102	ltpFR	3	5	0	KEEPER	769	n/a	3	1	n/a	n/a	n/a	n/a	n/a
3398870	RECOG_TARGET	n/a	LTP102	ltpFR	3	5	0	BEAN	105	1	5	0	n/a	n/a	n/a	n/a	n/a
3399599	RECOG_RESP	n/a	LTP102	ltpFR	3	5	0	BEAN	105	1	n/a	0	n/a	n/a	n/a	n/a	n/a
3401809	RECOG_CONF	n/a	LTP102	ltpFR	3	5	0	BEAN	105	n/a	5	0	n/a	n/a	n/a	n/a	n/a
3403379	RECOG_LURE	n/a	LTP102	ltpFR	3	5	n/a	SPICE	1350	0	5	n/a	n/a	n/a	n/a	n/a	n/a
3404249	RECOG_RESP	n/a	LTP102	ltpFR	3	5	n/a	SPICE	1350	0	n/a	n/a	n/a	n/a	n/a	n/a	n/a
3405431	RECOG_CONF	n/a	LTP102	ltpFR	3	5	n/a	SPICE	1350	n/a	5	n/a	n/a	n/a	n/a	n/a	n/a
3406919	RECOG_TARGET	n/a	LTP102	ltpFR	3	5	1	LOOP	844	1	5	0	n/a	n/a	n/a	n/a	n/a
3407676	RECOG_RESP	n/a	LTP102	ltpFR	3	5	1	LOOP	844	1	n/a	0	n/a	n/a	n/a	n/a	n/a
3409013	RECOG_CONF	n/a	LTP102	ltpFR	3	5	1	LOOP	844	n/a	5	0	n/a	n/a	n/a	n/a	n/a
3413591	REC_START	n/a	LTP102	ltpFR	3	6	n/a	n/a	n/a	n/a	n/a	n/a	n/a	n/a	n/a	n/a	n/a
3413628	RECOG_LURE	n/a	LTP102	ltpFR	3	6	n/a	CINNAMON	310	0	5	n/a	n/a	n/a	n/a	n/a	n/a
3414489	RECOG_RESP	n/a	LTP102	ltpFR	3	6	n/a	CINNAMON	310	0	n/a	n/a	n/a	n/a	n/a	n/a	n/a
3415791	RECOG_CONF	n/a	LTP102	ltpFR	3	6	n/a	CINNAMON	310	n/a	5	n/a	n/a	n/a	n/a	n/a	n/a
3417328	RECOG_TARGET	n/a	LTP102	ltpFR	3	6	0	TAIL	1430	1	5	1	n/a	n/a	n/a	n/a	n/a
3418006	RECOG_RESP	n/a	LTP102	ltpFR	3	6	0	TAIL	1430	1	n/a	1	n/a	n/a	n/a	n/a	n/a
3419113	RECOG_CONF	n/a	LTP102	ltpFR	3	6	0	TAIL	1430	n/a	5	1	n/a	n/a	n/a	n/a	n/a
3420611	RECOG_TARGET	n/a	LTP102	ltpFR	3	6	-1	EXPLOSION	544	1	5	-1	n/a	n/a	n/a	n/a	n/a
3421253	RECOG_RESP	n/a	LTP102	ltpFR	3	6	-1	EXPLOSION	544	1	n/a	-1	n/a	n/a	n/a	n/a	n/a
3422376	RECOG_CONF	n/a	LTP102	ltpFR	3	6	-1	EXPLOSION	544	n/a	5	-1	n/a	n/a	n/a	n/a	n/a
3423786	RECOG_TARGET	n/a	LTP102	ltpFR	3	6	0	CHEEK	287	1	5	0	n/a	n/a	n/a	n/a	n/a
3424351	RECOG_RESP	n/a	LTP102	ltpFR	3	6	0	CHEEK	287	1	n/a	0	n/a	n/a	n/a	n/a	n/a
3425519	RECOG_CONF	n/a	LTP102	ltpFR	3	6	0	CHEEK	287	n/a	5	0	n/a	n/a	n/a	n/a	n/a
3427177	RECOG_TARGET	n/a	LTP102	ltpFR	3	6	-1	VIRUS	1572	1	5	-1	n/a	n/a	n/a	n/a	n/a
3427734	RECOG_RESP	n/a	LTP102	ltpFR	3	6	-1	VIRUS	1572	1	n/a	-1	n/a	n/a	n/a	n/a	n/a
3429081	RECOG_CONF	n/a	LTP102	ltpFR	3	6	-1	VIRUS	1572	n/a	5	-1	n/a	n/a	n/a	n/a	n/a
3430660	RECOG_TARGET	n/a	LTP102	ltpFR	3	6	-1	SPOON	1357	1	5	-1	n/a	n/a	n/a	n/a	n/a
3431151	RECOG_RESP	n/a	LTP102	ltpFR	3	6	-1	SPOON	1357	1	n/a	-1	n/a	n/a	n/a	n/a	n/a
3432403	RECOG_CONF	n/a	LTP102	ltpFR	3	6	-1	SPOON	1357	n/a	5	-1	n/a	n/a	n/a	n/a	n/a
3433876	RECOG_TARGET	n/a	LTP102	ltpFR	3	6	1	TIGER	1467	1	5	1	n/a	n/a	n/a	n/a	n/a
3434354	RECOG_RESP	n/a	LTP102	ltpFR	3	6	1	TIGER	1467	1	n/a	1	n/a	n/a	n/a	n/a	n/a
3435566	RECOG_CONF	n/a	LTP102	ltpFR	3	6	1	TIGER	1467	n/a	5	1	n/a	n/a	n/a	n/a	n/a
3437451	RECOG_TARGET	n/a	LTP102	ltpFR	3	6	1	REPORT	1184	1	5	0	n/a	n/a	n/a	n/a	n/a
3438045	RECOG_RESP	n/a	LTP102	ltpFR	3	6	1	REPORT	1184	1	n/a	0	n/a	n/a	n/a	n/a	n/a
3439517	RECOG_CONF	n/a	LTP102	ltpFR	3	6	1	REPORT	1184	n/a	5	0	n/a	n/a	n/a	n/a	n/a
3441008	RECOG_TARGET	n/a	LTP102	ltpFR	3	6	1	LOAF	835	1	5	0	n/a	n/a	n/a	n/a	n/a
3441642	RECOG_RESP	n/a	LTP102	ltpFR	3	6	1	LOAF	835	1	n/a	0	n/a	n/a	n/a	n/a	n/a
3443049	RECOG_CONF	n/a	LTP102	ltpFR	3	6	1	LOAF	835	n/a	5	0	n/a	n/a	n/a	n/a	n/a
3444593	RECOG_TARGET	n/a	LTP102	ltpFR	3	6	0	ACROBAT	4	1	5	1	n/a	n/a	n/a	n/a	n/a
3445169	RECOG_RESP	n/a	LTP102	ltpFR	3	6	0	ACROBAT	4	1	n/a	1	n/a	n/a	n/a	n/a	n/a
3446401	RECOG_CONF	n/a	LTP102	ltpFR	3	6	0	ACROBAT	4	n/a	5	1	n/a	n/a	n/a	n/a	n/a
3447925	RECOG_TARGET	n/a	LTP102	ltpFR	3	6	0	ANTELOPE	27	1	5	1	n/a	n/a	n/a	n/a	n/a
3448526	RECOG_RESP_VV	n/a	LTP102	ltpFR	3	6	0	ANTELOPE	27	1	n/a	1	n/a	n/a	n/a	n/a	n/a
3450711	RECOG_RESP_VV	n/a	LTP102	ltpFR	3	6	0	ANTELOPE	27	0	n/a	1	n/a	n/a	n/a	n/a	n/a
3451609	RECOG_RESP	n/a	LTP102	ltpFR	3	6	0	ANTELOPE	27	1	n/a	1	n/a	n/a	n/a	n/a	n/a
3453924	RECOG_CONF	n/a	LTP102	ltpFR	3	6	0	ANTELOPE	27	n/a	5	1	n/a	n/a	n/a	n/a	n/a
3455583	RECOG_LURE	n/a	LTP102	ltpFR	3	6	n/a	TOWER	1490	0	5	n/a	n/a	n/a	n/a	n/a	n/a
3456488	RECOG_RESP	n/a	LTP102	ltpFR	3	6	n/a	TOWER	1490	0	n/a	n/a	n/a	n/a	n/a	n/a	n/a
3457745	RECOG_CONF	n/a	LTP102	ltpFR	3	6	n/a	TOWER	1490	n/a	5	n/a	n/a	n/a	n/a	n/a	n/a
3459366	RECOG_LURE	n/a	LTP102	ltpFR	3	6	n/a	LEG	809	0	5	n/a	n/a	n/a	n/a	n/a	n/a
3461282	RECOG_RESP	n/a	LTP102	ltpFR	3	6	n/a	LEG	809	0	n/a	n/a	n/a	n/a	n/a	n/a	n/a
3463572	RECOG_CONF	n/a	LTP102	ltpFR	3	6	n/a	LEG	809	n/a	5	n/a	n/a	n/a	n/a	n/a	n/a
3465283	RECOG_LURE	n/a	LTP102	ltpFR	3	6	n/a	FIN	566	1	5	n/a	n/a	n/a	n/a	n/a	n/a
3466635	RECOG_RESP	n/a	LTP102	ltpFR	3	6	n/a	FIN	566	1	n/a	n/a	n/a	n/a	n/a	n/a	n/a
3468291	RECOG_CONF	n/a	LTP102	ltpFR	3	6	n/a	FIN	566	n/a	5	n/a	n/a	n/a	n/a	n/a	n/a
3470066	RECOG_LURE	n/a	LTP102	ltpFR	3	6	n/a	DEODORANT	448	0	5	n/a	n/a	n/a	n/a	n/a	n/a
3471065	RECOG_RESP	n/a	LTP102	ltpFR	3	6	n/a	DEODORANT	448	0	n/a	n/a	n/a	n/a	n/a	n/a	n/a
3472432	RECOG_CONF	n/a	LTP102	ltpFR	3	6	n/a	DEODORANT	448	n/a	5	n/a	n/a	n/a	n/a	n/a	n/a
3473806	RECOG_TARGET	n/a	LTP102	ltpFR	3	6	1	FLOUR	583	1	5	0	n/a	n/a	n/a	n/a	n/a
3475006	RECOG_RESP	n/a	LTP102	ltpFR	3	6	1	FLOUR	583	1	n/a	0	n/a	n/a	n/a	n/a	n/a
3476074	RECOG_CONF	n/a	LTP102	ltpFR	3	6	1	FLOUR	583	n/a	5	0	n/a	n/a	n/a	n/a	n/a
3477673	RECOG_LURE	n/a	LTP102	ltpFR	3	6	n/a	KITE	779	0	3	n/a	n/a	n/a	n/a	n/a	n/a
3479097	RECOG_RESP	n/a	LTP102	ltpFR	3	6	n/a	KITE	779	0	n/a	n/a	n/a	n/a	n/a	n/a	n/a
3480294	RECOG_CONF	n/a	LTP102	ltpFR	3	6	n/a	KITE	779	n/a	3	n/a	n/a	n/a	n/a	n/a	n/a
3481665	RECOG_TARGET	n/a	LTP102	ltpFR	3	6	0	TECHNICIAN	1443	1	5	1	n/a	n/a	n/a	n/a	n/a
3483766	RECOG_RESP	n/a	LTP102	ltpFR	3	6	0	TECHNICIAN	1443	1	n/a	1	n/a	n/a	n/a	n/a	n/a
3485293	RECOG_CONF	n/a	LTP102	ltpFR	3	6	0	TECHNICIAN	1443	n/a	5	1	n/a	n/a	n/a	n/a	n/a
3487364	RECOG_LURE	n/a	LTP102	ltpFR	3	6	n/a	LIST	830	0	5	n/a	n/a	n/a	n/a	n/a	n/a
3488116	RECOG_RESP	n/a	LTP102	ltpFR	3	6	n/a	LIST	830	0	n/a	n/a	n/a	n/a	n/a	n/a	n/a
3489354	RECOG_CONF	n/a	LTP102	ltpFR	3	6	n/a	LIST	830	n/a	5	n/a	n/a	n/a	n/a	n/a	n/a
3490689	RECOG_LURE	n/a	LTP102	ltpFR	3	6	n/a	SKIN	1318	0	5	n/a	n/a	n/a	n/a	n/a	n/a
3491708	RECOG_RESP	n/a	LTP102	ltpFR	3	6	n/a	SKIN	1318	0	n/a	n/a	n/a	n/a	n/a	n/a	n/a
3492796	RECOG_CONF	n/a	LTP102	ltpFR	3	6	n/a	SKIN	1318	n/a	5	n/a	n/a	n/a	n/a	n/a	n/a
3500633	REC_START	n/a	LTP102	ltpFR	3	7	n/a	n/a	n/a	n/a	n/a	n/a	n/a	n/a	n/a	n/a	n/a
3500663	RECOG_LURE	n/a	LTP102	ltpFR	3	7	n/a	ZOO	1637	0	5	n/a	n/a	n/a	n/a	n/a	n/a
3502075	RECOG_RESP	n/a	LTP102	ltpFR	3	7	n/a	ZOO	1637	0	n/a	n/a	n/a	n/a	n/a	n/a	n/a
3504040	RECOG_CONF	n/a	LTP102	ltpFR	3	7	n/a	ZOO	1637	n/a	5	n/a	n/a	n/a	n/a	n/a	n/a
3506071	RECOG_LURE	n/a	LTP102	ltpFR	3	7	n/a	COMPANION	357	0	5	n/a	n/a	n/a	n/a	n/a	n/a
3507642	RECOG_RESP	n/a	LTP102	ltpFR	3	7	n/a	COMPANION	357	0	n/a	n/a	n/a	n/a	n/a	n/a	n/a
3510126	RECOG_CONF	n/a	LTP102	ltpFR	3	7	n/a	COMPANION	357	n/a	5	n/a	n/a	n/a	n/a	n/a	n/a
3511637	RECOG_TARGET	n/a	LTP102	ltpFR	3	7	1	VAMPIRE	1547	1	5	0	n/a	n/a	n/a	n/a	n/a
3512785	RECOG_RESP	n/a	LTP102	ltpFR	3	7	1	VAMPIRE	1547	1	n/a	0	n/a	n/a	n/a	n/a	n/a
3514117	RECOG_CONF	n/a	LTP102	ltpFR	3	7	1	VAMPIRE	1547	n/a	5	0	n/a	n/a	n/a	n/a	n/a
3515712	RECOG_LURE	n/a	LTP102	ltpFR	3	7	n/a	OWL	992	0	5	n/a	n/a	n/a	n/a	n/a	n/a
3516636	RECOG_RESP	n/a	LTP102	ltpFR	3	7	n/a	OWL	992	0	n/a	n/a	n/a	n/a	n/a	n/a	n/a
3517779	RECOG_CONF	n/a	LTP102	ltpFR	3	7	n/a	OWL	992	n/a	5	n/a	n/a	n/a	n/a	n/a	n/a
3519354	RECOG_LURE	n/a	LTP102	ltpFR	3	7	n/a	MAGAZINE	853	1	5	n/a	n/a	n/a	n/a	n/a	n/a
3520153	RECOG_RESP	n/a	LTP102	ltpFR	3	7	n/a	MAGAZINE	853	1	n/a	n/a	n/a	n/a	n/a	n/a	n/a
3521401	RECOG_CONF	n/a	LTP102	ltpFR	3	7	n/a	MAGAZINE	853	n/a	5	n/a	n/a	n/a	n/a	n/a	n/a
3522869	RECOG_LURE	n/a	LTP102	ltpFR	3	7	n/a	CYLINDER	432	0	5	n/a	n/a	n/a	n/a	n/a	n/a
3523740	RECOG_RESP	n/a	LTP102	ltpFR	3	7	n/a	CYLINDER	432	0	n/a	n/a	n/a	n/a	n/a	n/a	n/a
3524833	RECOG_CONF	n/a	LTP102	ltpFR	3	7	n/a	CYLINDER	432	n/a	5	n/a	n/a	n/a	n/a	n/a	n/a
3526228	RECOG_TARGET	n/a	LTP102	ltpFR	3	7	0	CRUTCH	417	1	5	1	n/a	n/a	n/a	n/a	n/a
3527048	RECOG_RESP	n/a	LTP102	ltpFR	3	7	0	CRUTCH	417	1	n/a	1	n/a	n/a	n/a	n/a	n/a
3528125	RECOG_CONF	n/a	LTP102	ltpFR	3	7	0	CRUTCH	417	n/a	5	1	n/a	n/a	n/a	n/a	n/a
3529578	RECOG_TARGET	n/a	LTP102	ltpFR	3	7	1	IDOL	733	1	5	1	n/a	n/a	n/a	n/a	n/a
3530260	RECOG_RESP	n/a	LTP102	ltpFR	3	7	1	IDOL	733	1	n/a	1	n/a	n/a	n/a	n/a	n/a
3531338	RECOG_CONF	n/a	LTP102	ltpFR	3	7	1	IDOL	733	n/a	5	1	n/a	n/a	n/a	n/a	n/a
3532794	RECOG_LURE	n/a	LTP102	ltpFR	3	7	n/a	NOTE	958	0	5	n/a	n/a	n/a	n/a	n/a	n/a
3533373	RECOG_RESP_VV	n/a	LTP102	ltpFR	3	7	n/a	NOTE	958	1	n/a	n/a	n/a	n/a	n/a	n/a	n/a
3534112	RECOG_RESP	n/a	LTP102	ltpFR	3	7	n/a	NOTE	958	0	n/a	n/a	n/a	n/a	n/a	n/a	n/a
3535678	RECOG_CONF	n/a	LTP102	ltpFR	3	7	n/a	NOTE	958	n/a	5	n/a	n/a	n/a	n/a	n/a	n/a
3537269	RECOG_LURE	n/a	LTP102	ltpFR	3	7	n/a	BLUEJAY	141	0	5	n/a	n/a	n/a	n/a	n/a	n/a
3538197	RECOG_RESP	n/a	LTP102	ltpFR	3	7	n/a	BLUEJAY	141	0	n/a	n/a	n/a	n/a	n/a	n/a	n/a
3539609	RECOG_CONF	n/a	LTP102	ltpFR	3	7	n/a	BLUEJAY	141	n/a	5	n/a	n/a	n/a	n/a	n/a	n/a
3541043	RECOG_LURE	n/a	LTP102	ltpFR	3	7	n/a	ORGAN	984	0	5	n/a	n/a	n/a	n/a	n/a	n/a
3541924	RECOG_RESP	n/a	LTP102	ltpFR	3	7	n/a	ORGAN	984	0	n/a	n/a	n/a	n/a	n/a	n/a	n/a
3543281	RECOG_CONF	n/a	LTP102	ltpFR	3	7	n/a	ORGAN	984	n/a	5	n/a	n/a	n/a	n/a	n/a	n/a
3544702	RECOG_LURE	n/a	LTP102	ltpFR	3	7	n/a	BUYER	208	0	5	n/a	n/a	n/a	n/a	n/a	n/a
3545526	RECOG_RESP	n/a	LTP102	ltpFR	3	7	n/a	BUYER	208	0	n/a	n/a	n/a	n/a	n/a	n/a	n/a
3546763	RECOG_CONF	n/a	LTP102	ltpFR	3	7	n/a	BUYER	208	n/a	5	n/a	n/a	n/a	n/a	n/a	n/a
3548343	RECOG_LURE	n/a	LTP102	ltpFR	3	7	n/a	BAND	78	0	3	n/a	n/a	n/a	n/a	n/a	n/a
3549487	RECOG_RESP	n/a	LTP102	ltpFR	3	7	n/a	BAND	78	0	n/a	n/a	n/a	n/a	n/a	n/a	n/a
3551143	RECOG_CONF	n/a	LTP102	ltpFR	3	7	n/a	BAND	78	n/a	3	n/a	n/a	n/a	n/a	n/a	n/a
3552601	RECOG_LURE	n/a	LTP102	ltpFR	3	7	n/a	QUARTER	1148	0	5	n/a	n/a	n/a	n/a	n/a	n/a
3553438	RECOG_RESP	n/a	LTP102	ltpFR	3	7	n/a	QUARTER	1148	0	n/a	n/a	n/a	n/a	n/a	n/a	n/a
3554865	RECOG_CONF	n/a	LTP102	ltpFR	3	7	n/a	QUARTER	1148	n/a	5	n/a	n/a	n/a	n/a	n/a	n/a
3556367	RECOG_TARGET	n/a	LTP102	ltpFR	3	7	0	PRODUCER	1129	1	5	1	n/a	n/a	n/a	n/a	n/a
3558411	RECOG_RESP	n/a	LTP102	ltpFR	3	7	0	PRODUCER	1129	1	n/a	1	n/a	n/a	n/a	n/a	n/a
3559704	RECOG_CONF	n/a	LTP102	ltpFR	3	7	0	PRODUCER	1129	n/a	5	1	n/a	n/a	n/a	n/a	n/a
3561125	RECOG_LURE	n/a	LTP102	ltpFR	3	7	n/a	BISCUIT	130	0	5	n/a	n/a	n/a	n/a	n/a	n/a
3562008	RECOG_RESP	n/a	LTP102	ltpFR	3	7	n/a	BISCUIT	130	0	n/a	n/a	n/a	n/a	n/a	n/a	n/a
3563335	RECOG_CONF	n/a	LTP102	ltpFR	3	7	n/a	BISCUIT	130	n/a	5	n/a	n/a	n/a	n/a	n/a	n/a
3564742	RECOG_TARGET	n/a	LTP102	ltpFR	3	7	1	BROCCOLI	176	1	5	0	n/a	n/a	n/a	n/a	n/a
3565565	RECOG_RESP	n/a	LTP102	ltpFR	3	7	1	BROCCOLI	176	1	n/a	0	n/a	n/a	n/a	n/a	n/a
3566837	RECOG_CONF	n/a	LTP102	ltpFR	3	7	1	BROCCOLI	176	n/a	5	0	n/a	n/a	n/a	n/a	n/a
3568492	RECOG_TARGET	n/a	LTP102	ltpFR	3	7	1	ORANGE	980	0	1	1	n/a	n/a	n/a	n/a	n/a
3570729	RECOG_RESP	n/a	LTP102	ltpFR	3	7	1	ORANGE	980	0	n/a	1	n/a	n/a	n/a	n/a	n/a
3572095	RECOG_CONF	n/a	LTP102	ltpFR	3	7	1	ORANGE	980	n/a	1	1	n/a	n/a	n/a	n/a	n/a
3573424	RECOG_TARGET	n/a	LTP102	ltpFR	3	7	0	CAULIFLOWER	262	1	5	1	n/a	n/a	n/a	n/a	n/a
3574854	RECOG_RESP	n/a	LTP102	ltpFR	3	7	0	CAULIFLOWER	262	1	n/a	1	n/a	n/a	n/a	n/a	n/a
3576007	RECOG_CONF	n/a	LTP102	ltpFR	3	7	0	CAULIFLOWER	262	n/a	5	1	n/a	n/a	n/a	n/a	n/a
3577516	RECOG_LURE	n/a	LTP102	ltpFR	3	7	n/a	NERVE	944	0	5	n/a	n/a	n/a	n/a	n/a	n/a
3578461	RECOG_RESP	n/a	LTP102	ltpFR	3	7	n/a	NERVE	944	0	n/a	n/a	n/a	n/a	n/a	n/a	n/a
3579648	RECOG_CONF	n/a	LTP102	ltpFR	3	7	n/a	NERVE	944	n/a	5	n/a	n/a	n/a	n/a	n/a	n/a
3586639	REC_START	n/a	LTP102	ltpFR	3	8	n/a	n/a	n/a	n/a	n/a	n/a	n/a	n/a	n/a	n/a	n/a
3586673	RECOG_LURE	n/a	LTP102	ltpFR	3	8	n/a	WAX	1597	0	3	n/a	n/a	n/a	n/a	n/a	n/a
3587542	RECOG_RESP_VV	n/a	LTP102	ltpFR	3	8	n/a	WAX	1597	1	n/a	n/a	n/a	n/a	n/a	n/a	n/a
3588824	RECOG_RESP	n/a	LTP102	ltpFR	3	8	n/a	WAX	1597	0	n/a	n/a	n/a	n/a	n/a	n/a	n/a
3591413	RECOG_CONF	n/a	LTP102	ltpFR	3	8	n/a	WAX	1597	n/a	3	n/a	n/a	n/a	n/a	n/a	n/a
3592781	RECOG_LURE	n/a	LTP102	ltpFR	3	8	n/a	STRING	1394	0	5	n/a	n/a	n/a	n/a	n/a	n/a
3593658	RECOG_RESP	n/a	LTP102	ltpFR	3	8	n/a	STRING	1394	0	n/a	n/a	n/a	n/a	n/a	n/a	n/a
3595115	RECOG_CONF	n/a	LTP102	ltpFR	3	8	n/a	STRING	1394	n/a	5	n/a	n/a	n/a	n/a	n/a	n/a
3596781	RECOG_TARGET	n/a	LTP102	ltpFR	3	8	0	BRIDE	173	1	5	1	n/a	n/a	n/a	n/a	n/a
3597479	RECOG_RESP	n/a	LTP102	ltpFR	3	8	0	BRIDE	173	1	n/a	1	n/a	n/a	n/a	n/a	n/a
3598637	RECOG_CONF	n/a	LTP102	ltpFR	3	8	0	BRIDE	173	n/a	5	1	n/a	n/a	n/a	n/a	n/a
3600731	RECOG_TARGET	n/a	LTP102	ltpFR	3	8	-1	GUITAR	670	1	5	-1	n/a	n/a	n/a	n/a	n/a
3601360	RECOG_RESP	n/a	LTP102	ltpFR	3	8	-1	GUITAR	670	1	n/a	-1	n/a	n/a	n/a	n/a	n/a
3602737	RECOG_CONF	n/a	LTP102	ltpFR	3	8	-1	GUITAR	670	n/a	5	-1	n/a	n/a	n/a	n/a	n/a
3604155	RECOG_LURE	n/a	LTP102	ltpFR	3	8	n/a	CAVITY	264	0	5	n/a	n/a	n/a	n/a	n/a	n/a
3605027	RECOG_RESP	n/a	LTP102	ltpFR	3	8	n/a	CAVITY	264	0	n/a	n/a	n/a	n/a	n/a	n/a	n/a
3606249	RECOG_CONF	n/a	LTP102	ltpFR	3	8	n/a	CAVITY	264	n/a	5	n/a	n/a	n/a	n/a	n/a	n/a
3607714	RECOG_TARGET	n/a	LTP102	ltpFR	3	8	1	UMBRELLA	1534	1	5	0	n/a	n/a	n/a	n/a	n/a
3608694	RECOG_RESP	n/a	LTP102	ltpFR	3	8	1	UMBRELLA	1534	1	n/a	0	n/a	n/a	n/a	n/a	n/a
3610150	RECOG_CONF	n/a	LTP102	ltpFR	3	8	1	UMBRELLA	1534	n/a	5	0	n/a	n/a	n/a	n/a	n/a
3611912	RECOG_TARGET	n/a	LTP102	ltpFR	3	8	1	BUNNY	198	1	5	1	n/a	n/a	n/a	n/a	n/a
3612680	RECOG_RESP	n/a	LTP102	ltpFR	3	8	1	BUNNY	198	1	n/a	1	n/a	n/a	n/a	n/a	n/a
3613892	RECOG_CONF	n/a	LTP102	ltpFR	3	8	1	BUNNY	198	n/a	5	1	n/a	n/a	n/a	n/a	n/a
3615363	RECOG_LURE	n/a	LTP102	ltpFR	3	8	n/a	MINT	898	0	5	n/a	n/a	n/a	n/a	n/a	n/a
3616102	RECOG_RESP	n/a	LTP102	ltpFR	3	8	n/a	MINT	898	0	n/a	n/a	n/a	n/a	n/a	n/a	n/a
3617244	RECOG_CONF	n/a	LTP102	ltpFR	3	8	n/a	MINT	898	n/a	5	n/a	n/a	n/a	n/a	n/a	n/a
3618663	RECOG_LURE	n/a	LTP102	ltpFR	3	8	n/a	PHOTO	1055	0	5	n/a	n/a	n/a	n/a	n/a	n/a
3620297	RECOG_RESP	n/a	LTP102	ltpFR	3	8	n/a	PHOTO	1055	0	n/a	n/a	n/a	n/a	n/a	n/a	n/a
3621415	RECOG_CONF	n/a	LTP102	ltpFR	3	8	n/a	PHOTO	1055	n/a	5	n/a	n/a	n/a	n/a	n/a	n/a
3622771	RECOG_LURE	n/a	LTP102	ltpFR	3	8	n/a	LUGGAGE	847	0	5	n/a	n/a	n/a	n/a	n/a	n/a
3623660	RECOG_RESP	n/a	LTP102	ltpFR	3	8	n/a	LUGGAGE	847	0	n/a	n/a	n/a	n/a	n/a	n/a	n/a
3624598	RECOG_CONF	n/a	LTP102	ltpFR	3	8	n/a	LUGGAGE	847	n/a	5	n/a	n/a	n/a	n/a	n/a	n/a
3626095	RECOG_TARGET	n/a	LTP102	ltpFR	3	8	1	PUCK	1138	1	5	0	n/a	n/a	n/a	n/a	n/a
3626932	RECOG_RESP	n/a	LTP102	ltpFR	3	8	1	PUCK	1138	1	n/a	0	n/a	n/a	n/a	n/a	n/a
3627950	RECOG_CONF	n/a	LTP102	ltpFR	3	8	1	PUCK	1138	n/a	5	0	n/a	n/a	n/a	n/a	n/a
3629362	RECOG_TARGET	n/a	LTP102	ltpFR	3	8	-1	MOUTH	926	1	5	-1	n/a	n/a	n/a	n/a	n/a
3630065	RECOG_RESP	n/a	LTP102	ltpFR	3	8	-1	MOUTH	926	1	n/a	-1	n/a	n/a	n/a	n/a	n/a
3631073	RECOG_CONF	n/a	LTP102	ltpFR	3	8	-1	MOUTH	926	n/a	5	-1	n/a	n/a	n/a	n/a	n/a
3632495	RECOG_TARGET	n/a	LTP102	ltpFR	3	8	-1	LOBBY	836	1	5	-1	n/a	n/a	n/a	n/a	n/a
3633078	RECOG_RESP	n/a	LTP102	ltpFR	3	8	-1	LOBBY	836	1	n/a	-1	n/a	n/a	n/a	n/a	n/a
3634146	RECOG_CONF	n/a	LTP102	ltpFR	3	8	-1	LOBBY	836	n/a	5	-1	n/a	n/a	n/a	n/a	n/a
3635628	RECOG_LURE	n/a	LTP102	ltpFR	3	8	n/a	SHACK	1273	0	5	n/a	n/a	n/a	n/a	n/a	n/a
3636366	RECOG_RESP	n/a	LTP102	ltpFR	3	8	n/a	SHACK	1273	0	n/a	n/a	n/a	n/a	n/a	n/a	n/a
3637369	RECOG_CONF	n/a	LTP102	ltpFR	3	8	n/a	SHACK	1273	n/a	5	n/a	n/a	n/a	n/a	n/a	n/a
3638645	RECOG_TARGET	n/a	LTP102	ltpFR	3	8	-1	PLATE	1086	1	5	-1	n/a	n/a	n/a	n/a	n/a
3639354	RECOG_RESP	n/a	LTP102	ltpFR	3	8	-1	PLATE	1086	1	n/a	-1	n/a	n/a	n/a	n/a	n/a
3640432	RECOG_CONF	n/a	LTP102	ltpFR	3	8	-1	PLATE	1086	n/a	5	-1	n/a	n/a	n/a	n/a	n/a
3641993	RECOG_TARGET	n/a	LTP102	ltpFR	3	8	-1	FRIAR	605	1	5	-1	n/a	n/a	n/a	n/a	n/a
3642666	RECOG_RESP	n/a	LTP102	ltpFR	3	8	-1	FRIAR	605	1	n/a	-1	n/a	n/a	n/a	n/a	n/a
3644353	RECOG_CONF	n/a	LTP102	ltpFR	3	8	-1	FRIAR	605	n/a	5	-1	n/a	n/a	n/a	n/a	n/a
3645761	RECOG_TARGET	n/a	LTP102	ltpFR	3	8	-1	BEAKER	104	1	5	-1	n/a	n/a	n/a	n/a	n/a
3646478	RECOG_RESP	n/a	LTP102	ltpFR	3	8	-1	BEAKER	104	1	n/a	-1	n/a	n/a	n/a	n/a	n/a
3647675	RECOG_CONF	n/a	LTP102	ltpFR	3	8	-1	BEAKER	104	n/a	5	-1	n/a	n/a	n/a	n/a	n/a
3648993	RECOG_TARGET	n/a	LTP102	ltpFR	3	8	0	ACORN	3	1	5	0	n/a	n/a	n/a	n/a	n/a
3649606	RECOG_RESP	n/a	LTP102	ltpFR	3	8	0	ACORN	3	1	n/a	0	n/a	n/a	n/a	n/a	n/a
3650938	RECOG_CONF	n/a	LTP102	ltpFR	3	8	0	ACORN	3	n/a	5	0	n/a	n/a	n/a	n/a	n/a
3652552	RECOG_TARGET	n/a	LTP102	ltpFR	3	8	0	DICTIONARY	463	1	5	1	n/a	n/a	n/a	n/a	n/a
3653312	RECOG_RESP	n/a	LTP102	ltpFR	3	8	0	DICTIONARY	463	1	n/a	1	n/a	n/a	n/a	n/a	n/a
3655168	RECOG_CONF	n/a	LTP102	ltpFR	3	8	0	DICTIONARY	463	n/a	5	1	n/a	n/a	n/a	n/a	n/a
3657210	RECOG_TARGET	n/a	LTP102	ltpFR	3	8	0	JUVENILE	767	1	5	1	n/a	n/a	n/a	n/a	n/a
3657827	RECOG_RESP	n/a	LTP102	ltpFR	3	8	0	JUVENILE	767	1	n/a	1	n/a	n/a	n/a	n/a	n/a
3659049	RECOG_CONF	n/a	LTP102	ltpFR	3	8	0	JUVENILE	767	n/a	5	1	n/a	n/a	n/a	n/a	n/a
3665044	REC_START	n/a	LTP102	ltpFR	3	9	n/a	n/a	n/a	n/a	n/a	n/a	n/a	n/a	n/a	n/a	n/a
3665076	RECOG_TARGET	n/a	LTP102	ltpFR	3	9	1	KITTEN	780	1	5	1	n/a	n/a	n/a	n/a	n/a
3665697	RECOG_RESP	n/a	LTP102	ltpFR	3	9	1	KITTEN	780	1	n/a	1	n/a	n/a	n/a	n/a	n/a
3666635	RECOG_CONF	n/a	LTP102	ltpFR	3	9	1	KITTEN	780	n/a	5	1	n/a	n/a	n/a	n/a	n/a
3668076	RECOG_TARGET	n/a	LTP102	ltpFR	3	9	0	GRILL	661	1	5	1	n/a	n/a	n/a	n/a	n/a
3668566	RECOG_RESP	n/a	LTP102	ltpFR	3	9	0	GRILL	661	1	n/a	1	n/a	n/a	n/a	n/a	n/a
3669648	RECOG_CONF	n/a	LTP102	ltpFR	3	9	0	GRILL	661	n/a	5	1	n/a	n/a	n/a	n/a	n/a
3670983	RECOG_TARGET	n/a	LTP102	ltpFR	3	9	1	OTTER	986	1	5	1	n/a	n/a	n/a	n/a	n/a
3671509	RECOG_RESP	n/a	LTP102	ltpFR	3	9	1	OTTER	986	1	n/a	1	n/a	n/a	n/a	n/a	n/a
3672602	RECOG_CONF	n/a	LTP102	ltpFR	3	9	1	OTTER	986	n/a	5	1	n/a	n/a	n/a	n/a	n/a
3674057	RECOG_LURE	n/a	LTP102	ltpFR	3	9	n/a	TOOTHPASTE	1483	0	5	n/a	n/a	n/a	n/a	n/a	n/a
3674717	RECOG_RESP	n/a	LTP102	ltpFR	3	9	n/a	TOOTHPASTE	1483	0	n/a	n/a	n/a	n/a	n/a	n/a	n/a
3675655	RECOG_CONF	n/a	LTP102	ltpFR	3	9	n/a	TOOTHPASTE	1483	n/a	5	n/a	n/a	n/a	n/a	n/a	n/a
3676866	RECOG_LURE	n/a	LTP102	ltpFR	3	9	n/a	CANOE	233	0	5	n/a	n/a	n/a	n/a	n/a	n/a
3677615	RECOG_RESP	n/a	LTP102	ltpFR	3	9	n/a	CANOE	233	0	n/a	n/a	n/a	n/a	n/a	n/a	n/a
3678628	RECOG_CONF	n/a	LTP102	ltpFR	3	9	n/a	CANOE	233	n/a	5	n/a	n/a	n/a	n/a	n/a	n/a
3679990	RECOG_LURE	n/a	LTP102	ltpFR	3	9	n/a	COMMITTEE	355	0	5	n/a	n/a	n/a	n/a	n/a	n/a
3680668	RECOG_RESP	n/a	LTP102	ltpFR	3	9	n/a	COMMITTEE	355	0	n/a	n/a	n/a	n/a	n/a	n/a	n/a
3681641	RECOG_CONF	n/a	LTP102	ltpFR	3	9	n/a	COMMITTEE	355	n/a	5	n/a	n/a	n/a	n/a	n/a	n/a
3683057	RECOG_TARGET	n/a	LTP102	ltpFR	3	9	-1	TROMBONE	1508	1	5	-1	n/a	n/a	n/a	n/a	n/a
3683801	RECOG_RESP	n/a	LTP102	ltpFR	3	9	-1	TROMBONE	1508	1	n/a	-1	n/a	n/a	n/a	n/a	n/a
3684774	RECOG_CONF	n/a	LTP102	ltpFR	3	9	-1	TROMBONE	1508	n/a	5	-1	n/a	n/a	n/a	n/a	n/a
3686183	RECOG_TARGET	n/a	LTP102	ltpFR	3	9	-1	PREACHER	1119	1	5	-1	n/a	n/a	n/a	n/a	n/a
3686909	RECOG_RESP	n/a	LTP102	ltpFR	3	9	-1	PREACHER	1119	1	n/a	-1	n/a	n/a	n/a	n/a	n/a
3687957	RECOG_CONF	n/a	LTP102	ltpFR	3	9	-1	PREACHER	1119	n/a	5	-1	n/a	n/a	n/a	n/a	n/a
3689399	RECOG_TARGET	n/a	LTP102	ltpFR	3	9	-1	NUN	962	1	5	-1	n/a	n/a	n/a	n/a	n/a
3689927	RECOG_RESP	n/a	LTP102	ltpFR	3	9	-1	NUN	962	1	n/a	-1	n/a	n/a	n/a	n/a	n/a
3690890	RECOG_CONF	n/a	LTP102	ltpFR	3	9	-1	NUN	962	n/a	5	-1	n/a	n/a	n/a	n/a	n/a
3692215	RECOG_TARGET	n/a	LTP102	ltpFR	3	9	-1	FELLOW	558	1	5	-1	n/a	n/a	n/a	n/a	n/a
3692731	RECOG_RESP	n/a	LTP102	ltpFR	3	9	-1	FELLOW	558	1	n/a	-1	n/a	n/a	n/a	n/a	n/a
3693734	RECOG_CONF	n/a	LTP102	ltpFR	3	9	-1	FELLOW	558	n/a	5	-1	n/a	n/a	n/a	n/a	n/a
3695290	RECOG_TARGET	n/a	LTP102	ltpFR	3	9	0	FROG	608	1	5	0	n/a	n/a	n/a	n/a	n/a
3696093	RECOG_RESP	n/a	LTP102	ltpFR	3	9	0	FROG	608	1	n/a	0	n/a	n/a	n/a	n/a	n/a
3697076	RECOG_CONF	n/a	LTP102	ltpFR	3	9	0	FROG	608	n/a	5	0	n/a	n/a	n/a	n/a	n/a
3698382	RECOG_TARGET	n/a	LTP102	ltpFR	3	9	1	POLYESTER	1100	1	5	0	n/a	n/a	n/a	n/a	n/a
3698927	RECOG_RESP	n/a	LTP102	ltpFR	3	9	1	POLYESTER	1100	1	n/a	0	n/a	n/a	n/a	n/a	n/a
3699920	RECOG_CONF	n/a	LTP102	ltpFR	3	9	1	POLYESTER	1100	n/a	5	0	n/a	n/a	n/a	n/a	n/a
3701206	RECOG_LURE	n/a	LTP102	ltpFR	3	9	n/a	SWAN	1417	1	1	n/a	n/a	n/a	n/a	n/a	n/a
3701730	RECOG_RESP	n/a	LTP102	ltpFR	3	9	n/a	SWAN	1417	1	n/a	n/a	n/a	n/a	n/a	n/a	n/a
3705327	RECOG_CONF	n/a	LTP102	ltpFR	3	9	n/a	SWAN	1417	n/a	1	n/a	n/a	n/a	n/a	n/a	n/a
3706880	RECOG_TARGET	n/a	LTP102	ltpFR	3	9	-1	TUXEDO	1525	1	5	-1	n/a	n/a	n/a	n/a	n/a
3707842	RECOG_RESP	n/a	LTP102	ltpFR	3	9	-1	TUXEDO	1525	1	n/a	-1	n/a	n/a	n/a	n/a	n/a
3708759	RECOG_CONF	n/a	LTP102	ltpFR	3	9	-1	TUXEDO	1525	n/a	5	-1	n/a	n/a	n/a	n/a	n/a
3710172	RECOG_LURE	n/a	LTP102	ltpFR	3	9	n/a	UNCLE	1536	0	5	n/a	n/a	n/a	n/a	n/a	n/a
3711024	RECOG_RESP	n/a	LTP102	ltpFR	3	9	n/a	UNCLE	1536	0	n/a	n/a	n/a	n/a	n/a	n/a	n/a
3712281	RECOG_CONF	n/a	LTP102	ltpFR	3	9	n/a	UNCLE	1536	n/a	5	n/a	n/a	n/a	n/a	n/a	n/a
3713863	RECOG_LURE	n/a	LTP102	ltpFR	3	9	n/a	BULLY	196	0	5	n/a	n/a	n/a	n/a	n/a	n/a
3714711	RECOG_RESP	n/a	LTP102	ltpFR	3	9	n/a	BULLY	196	0	n/a	n/a	n/a	n/a	n/a	n/a	n/a
3715724	RECOG_CONF	n/a	LTP102	ltpFR	3	9	n/a	BULLY	196	n/a	5	n/a	n/a	n/a	n/a	n/a	n/a
3717072	RECOG_LURE	n/a	LTP102	ltpFR	3	9	n/a	GAZELLE	628	0	5	n/a	n/a	n/a	n/a	n/a	n/a
3718168	RECOG_RESP	n/a	LTP102	ltpFR	3	9	n/a	GAZELLE	628	0	n/a	n/a	n/a	n/a	n/a	n/a	n/a
3719196	RECOG_CONF	n/a	LTP102	ltpFR	3	9	n/a	GAZELLE	628	n/a	5	n/a	n/a	n/a	n/a	n/a	n/a
3720555	RECOG_LURE	n/a	LTP102	ltpFR	3	9	n/a	CAMERA	224	0	5	n/a	n/a	n/a	n/a	n/a	n/a
3721535	RECOG_RESP_VV	n/a	LTP102	ltpFR	3	9	n/a	CAMERA	224	1	n/a	n/a	n/a	n/a	n/a	n/a	n/a
3722349	RECOG_RESP	n/a	LTP102	ltpFR	3	9	n/a	CAMERA	224	0	n/a	n/a	n/a	n/a	n/a	n/a	n/a
3723466	RECOG_CONF	n/a	LTP102	ltpFR	3	9	n/a	CAMERA	224	n/a	5	n/a	n/a	n/a	n/a	n/a	n/a
3724945	RECOG_TARGET	n/a	LTP102	ltpFR	3	9	-1	PUMP	1141	0	5	-1	n/a	n/a	n/a	n/a	n/a
3726359	RECOG_RESP	n/a	LTP102	ltpFR	3	9	-1	PUMP	1141	0	n/a	-1	n/a	n/a	n/a	n/a	n/a
3727367	RECOG_CONF	n/a	LTP102	ltpFR	3	9	-1	PUMP	1141	n/a	5	-1	n/a	n/a	n/a	n/a	n/a
3728779	RECOG_LURE	n/a	LTP102	ltpFR	3	9	n/a	PRUNE	1134	0	5	n/a	n/a	n/a	n/a	n/a	n/a
3729976	RECOG_RESP	n/a	LTP102	ltpFR	3	9	n/a	PRUNE	1134	0	n/a	n/a	n/a	n/a	n/a	n/a	n/a
3730909	RECOG_CONF	n/a	LTP102	ltpFR	3	9	n/a	PRUNE	1134	n/a	5	n/a	n/a	n/a	n/a	n/a	n/a
3737198	REC_START	n/a	LTP102	ltpFR	3	10	n/a	n/a	n/a	n/a	n/a	n/a	n/a	n/a	n/a	n/a	n/a
3737229	RECOG_LURE	n/a	LTP102	ltpFR	3	10	n/a	FARM	552	0	5	n/a	n/a	n/a	n/a	n/a	n/a
3738310	RECOG_RESP	n/a	LTP102	ltpFR	3	10	n/a	FARM	552	0	n/a	n/a	n/a	n/a	n/a	n/a	n/a
3739418	RECOG_CONF	n/a	LTP102	ltpFR	3	10	n/a	FARM	552	n/a	5	n/a	n/a	n/a	n/a	n/a	n/a
3740819	RECOG_LURE	n/a	LTP102	ltpFR	3	10	n/a	BENCH	121	0	5	n/a	n/a	n/a	n/a	n/a	n/a
3741842	RECOG_RESP	n/a	LTP102	ltpFR	3	10	n/a	BENCH	121	0	n/a	n/a	n/a	n/a	n/a	n/a	n/a
3742870	RECOG_CONF	n/a	LTP102	ltpFR	3	10	n/a	BENCH	121	n/a	5	n/a	n/a	n/a	n/a	n/a	n/a
3744212	RECOG_LURE	n/a	LTP102	ltpFR	3	10	n/a	SALAD	1224	0	5	n/a	n/a	n/a	n/a	n/a	n/a
3745569	RECOG_RESP	n/a	LTP102	ltpFR	3	10	n/a	SALAD	1224	0	n/a	n/a	n/a	n/a	n/a	n/a	n/a
3746718	RECOG_CONF	n/a	LTP102	ltpFR	3	10	n/a	SALAD	1224	n/a	5	n/a	n/a	n/a	n/a	n/a	n/a
3748278	RECOG_TARGET	n/a	LTP102	ltpFR	3	10	0	DENTIST	447	1	5	1	n/a	n/a	n/a	n/a	n/a
3749011	RECOG_RESP	n/a	LTP102	ltpFR	3	10	0	DENTIST	447	1	n/a	1	n/a	n/a	n/a	n/a	n/a
3750014	RECOG_CONF	n/a	LTP102	ltpFR	3	10	0	DENTIST	447	n/a	5	1	n/a	n/a	n/a	n/a	n/a
3751478	RECOG_TARGET	n/a	LTP102	ltpFR	3	10	1	MUSEUM	933	1	5	0	n/a	n/a	n/a	n/a	n/a
3752194	RECOG_RESP	n/a	LTP102	ltpFR	3	10	1	MUSEUM	933	1	n/a	0	n/a	n/a	n/a	n/a	n/a
3753446	RECOG_CONF	n/a	LTP102	ltpFR	3	10	1	MUSEUM	933	n/a	5	0	n/a	n/a	n/a	n/a	n/a
3754851	RECOG_LURE	n/a	LTP102	ltpFR	3	10	n/a	MOTEL	919	0	5	n/a	n/a	n/a	n/a	n/a	n/a
3756579	RECOG_RESP	n/a	LTP102	ltpFR	3	10	n/a	MOTEL	919	0	n/a	n/a	n/a	n/a	n/a	n/a	n/a
3757746	RECOG_CONF	n/a	LTP102	ltpFR	3	10	n/a	MOTEL	919	n/a	5	n/a	n/a	n/a	n/a	n/a	n/a
3759177	RECOG_LURE	n/a	LTP102	ltpFR	3	10	n/a	CRAYON	401	0	5	n/a	n/a	n/a	n/a	n/a	n/a
3759926	RECOG_RESP	n/a	LTP102	ltpFR	3	10	n/a	CRAYON	401	0	n/a	n/a	n/a	n/a	n/a	n/a	n/a
3760939	RECOG_CONF	n/a	LTP102	ltpFR	3	10	n/a	CRAYON	401	n/a	5	n/a	n/a	n/a	n/a	n/a	n/a
3762285	RECOG_LURE	n/a	LTP102	ltpFR	3	10	n/a	LODGE	839	0	5	n/a	n/a	n/a	n/a	n/a	n/a
3763463	RECOG_RESP	n/a	LTP102	ltpFR	3	10	n/a	LODGE	839	0	n/a	n/a	n/a	n/a	n/a	n/a	n/a
3764680	RECOG_CONF	n/a	LTP102	ltpFR	3	10	n/a	LODGE	839	n/a	5	n/a	n/a	n/a	n/a	n/a	n/a
3766177	RECOG_LURE	n/a	LTP102	ltpFR	3	10	n/a	MAILMAN	858	0	5	n/a	n/a	n/a	n/a	n/a	n/a
3767614	RECOG_RESP	n/a	LTP102	ltpFR	3	10	n/a	MAILMAN	858	0	n/a	n/a	n/a	n/a	n/a	n/a	n/a
3769001	RECOG_CONF	n/a	LTP102	ltpFR	3	10	n/a	MAILMAN	858	n/a	5	n/a	n/a	n/a	n/a	n/a	n/a
3770701	RECOG_TARGET	n/a	LTP102	ltpFR	3	10	1	LEOPARD	812	1	5	1	n/a	n/a	n/a	n/a	n/a
3772163	RECOG_RESP	n/a	LTP102	ltpFR	3	10	1	LEOPARD	812	1	n/a	1	n/a	n/a	n/a	n/a	n/a
3773401	RECOG_CONF	n/a	LTP102	ltpFR	3	10	1	LEOPARD	812	n/a	5	1	n/a	n/a	n/a	n/a	n/a
3775875	RECOG_LURE	n/a	LTP102	ltpFR	3	10	n/a	SIDEWALK	1303	0	1	n/a	n/a	n/a	n/a	n/a	n/a
3776873	RECOG_RESP	n/a	LTP102	ltpFR	3	10	n/a	SIDEWALK	1303	0	n/a	n/a	n/a	n/a	n/a	n/a	n/a
3778379	RECOG_CONF	n/a	LTP102	ltpFR	3	10	n/a	SIDEWALK	1303	n/a	1	n/a	n/a	n/a	n/a	n/a	n/a
3779908	RECOG_TARGET	n/a	LTP102	ltpFR	3	10	1	SYRINGE	1424	1	5	0	n/a	n/a	n/a	n/a	n/a
3780589	RECOG_RESP	n/a	LTP102	ltpFR	3	10	1	SYRINGE	1424	1	n/a	0	n/a	n/a	n/a	n/a	n/a
3781672	RECOG_CONF	n/a	LTP102	ltpFR	3	10	1	SYRINGE	1424	n/a	5	0	n/a	n/a	n/a	n/a	n/a
3783175	RECOG_TARGET	n/a	LTP102	ltpFR	3	10	-1	CHEMICAL	291	1	5	-1	n/a	n/a	n/a	n/a	n/a
3783917	RECOG_RESP	n/a	LTP102	ltpFR	3	10	-1	CHEMICAL	291	1	n/a	-1	n/a	n/a	n/a	n/a	n/a
3785094	RECOG_CONF	n/a	LTP102	ltpFR	3	10	-1	CHEMICAL	291	n/a	5	-1	n/a	n/a	n/a	n/a	n/a
3786807	RECOG_LURE	n/a	LTP102	ltpFR	3	10	n/a	BROTHER	179	0	5	n/a	n/a	n/a	n/a	n/a	n/a
3789873	RECOG_RESP	n/a	LTP102	ltpFR	3	10	n/a	BROTHER	179	0	n/a	n/a	n/a	n/a	n/a	n/a	n/a
3791240	RECOG_CONF	n/a	LTP102	ltpFR	3	10	n/a	BROTHER	179	n/a	5	n/a	n/a	n/a	n/a	n/a	n/a
3792775	RECOG_TARGET	n/a	LTP102	ltpFR	3	10	0	ROOMMATE	1207	1	5	1	n/a	n/a	n/a	n/a	n/a
3793605	RECOG_RESP	n/a	LTP102	ltpFR	3	10	0	ROOMMATE	1207	1	n/a	1	n/a	n/a	n/a	n/a	n/a
3794642	RECOG_CONF	n/a	LTP102	ltpFR	3	10	0	ROOMMATE	1207	n/a	5	1	n/a	n/a	n/a	n/a	n/a
3795957	RECOG_TARGET	n/a	LTP102	ltpFR	3	10	1	SKULL	1320	1	5	0	n/a	n/a	n/a	n/a	n/a
3796598	RECOG_RESP	n/a	LTP102	ltpFR	3	10	1	SKULL	1320	1	n/a	0	n/a	n/a	n/a	n/a	n/a
3797675	RECOG_CONF	n/a	LTP102	ltpFR	3	10	1	SKULL	1320	n/a	5	0	n/a	n/a	n/a	n/a	n/a
3799332	RECOG_TARGET	n/a	LTP102	ltpFR	3	10	-1	PICK	1058	1	1	-1	n/a	n/a	n/a	n/a	n/a
3800254	RECOG_RESP_VV	n/a	LTP102	ltpFR	3	10	-1	PICK	1058	0	n/a	-1	n/a	n/a	n/a	n/a	n/a
