onset	duration	trial_type	sample	stim_file	subject	experiment	session	trial	task	item_name	item_num	recog_resp	recog_conf	resp	color_r	color_g	color_b	case	font
371.162	n/a	SESS_START	185581	n/a	LTP130	ltpFR	14	n/a	n/a	n/a	n/a	0	1	n/a	n/a	n/a	n/a	n/a	n/a
438.41	n/a	WORD	219205	wordpools/wasnorm_wordpool.txt	LTP130	ltpFR	14	1	0	EUROPE	541	1	n/a	1	0.422607421875	0.5869140625	0	upper	amplitud.ttf
442.404	n/a	WORD	221202	wordpools/wasnorm_wordpool.txt	LTP130	ltpFR	14	1	0	FEATHER	557	n/a	n/a	0	0.422607421875	0.5869140625	0	upper	amplitud.ttf
446.466	n/a	WORD	223233	wordpools/wasnorm_wordpool.txt	LTP130	ltpFR	14	1	0	CROCODILE	411	n/a	n/a	1	0.422607421875	0.5869140625	0	upper	amplitud.ttf
450.426	n/a	WORD	225213	wordpools/wasnorm_wordpool.txt	LTP130	ltpFR	14	1	0	CONSUMER	365	n/a	n/a	1	0.422607421875	0.5869140625	0	upper	amplitud.ttf
454.254	n/a	WORD	227127	wordpools/wasnorm_wordpool.txt	LTP130	ltpFR	14	1	1	SALESMAN	1225	n/a	n/a	1	0.57763671875	0.412841796875	1	lower	zerothre.ttf
458.182	n/a	WORD	229091	wordpools/wasnorm_wordpool.txt	LTP130	ltpFR	14	1	1	TWIG	1527	n/a	n/a	0	0.57763671875	0.412841796875	1	lower	zerothre.ttf
462.376	n/a	WORD	231188	wordpools/wasnorm_wordpool.txt	LTP130	ltpFR	14	1	1	SHORTS	1293	n/a	n/a	0	0.57763671875	0.412841796875	1	lower	zerothre.ttf
466.502	n/a	WORD	233251	wordpools/wasnorm_wordpool.txt	LTP130	ltpFR	14	1	1	SLIDE	1326	n/a	n/a	0	0.57763671875	0.412841796875	1	lower	zerothre.ttf
470.714	n/a	WORD	235357	wordpools/wasnorm_wordpool.txt	LTP130	ltpFR	14	1	0	CANOE	233	n/a	n/a	1	0.422607421875	0.5869140625	0	upper	amplitud.ttf
474.774	n/a	WORD	237387	wordpools/wasnorm_wordpool.txt	LTP130	ltpFR	14	1	0	TROUSERS	1510	n/a	n/a	1	0.422607421875	0.5869140625	0	upper	amplitud.ttf
478.968	n/a	WORD	239484	wordpools/wasnorm_wordpool.txt	LTP130	ltpFR	14	1	1	BASKET	95	n/a	n/a	0	0.57763671875	0.412841796875	1	lower	zerothre.ttf
482.978	n/a	WORD	241489	wordpools/wasnorm_wordpool.txt	LTP130	ltpFR	14	1	1	SEAT	1264	n/a	n/a	0	0.57763671875	0.412841796875	1	lower	zerothre.ttf
487.088	n/a	WORD	243544	wordpools/wasnorm_wordpool.txt	LTP130	ltpFR	14	1	1	ASIA	46	n/a	n/a	0	0.57763671875	0.412841796875	1	lower	zerothre.ttf
491.266	n/a	WORD	245633	wordpools/wasnorm_wordpool.txt	LTP130	ltpFR	14	1	1	PERFUME	1049	n/a	n/a	0	0.57763671875	0.412841796875	1	lower	zerothre.ttf
495.094	n/a	WORD	247547	wordpools/wasnorm_wordpool.txt	LTP130	ltpFR	14	1	0	COUNTRY	388	n/a	n/a	1	0.422607421875	0.5869140625	0	upper	amplitud.ttf
498.954	n/a	WORD	249477	wordpools/wasnorm_wordpool.txt	LTP130	ltpFR	14	1	0	DAM	436	n/a	n/a	1	0.422607421875	0.5869140625	0	upper	amplitud.ttf
505.09	n/a	REC_START	252545	n/a	LTP130	ltpFR	14	1	n/a	n/a	n/a	n/a	n/a	n/a	n/a	n/a	n/a	n/a	n/a
507.15	n/a	REC_WORD	253575	wordpools/wasnorm_wordpool.txt	LTP130	ltpFR	14	1	0	DAM	436	n/a	n/a	1	n/a	n/a	n/a	n/a	n/a
508.202	n/a	REC_WORD	254101	wordpools/wasnorm_wordpool.txt	LTP130	ltpFR	14	1	0	COUNTRY	388	n/a	n/a	1	n/a	n/a	n/a	n/a	n/a
509.724	n/a	REC_WORD	254862	wordpools/wasnorm_wordpool.txt	LTP130	ltpFR	14	1	1	ASIA	46	n/a	n/a	0	n/a	n/a	n/a	n/a	n/a
510.726	n/a	REC_WORD	255363	wordpools/wasnorm_wordpool.txt	LTP130	ltpFR	14	1	0	EUROPE	541	n/a	n/a	1	n/a	n/a	n/a	n/a	n/a
512.996	n/a	REC_WORD	256498	wordpools/wasnorm_wordpool.txt	LTP130	ltpFR	14	1	0	TROUSERS	1510	n/a	n/a	1	n/a	n/a	n/a	n/a	n/a
515.754	n/a	REC_WORD	257877	wordpools/wasnorm_wordpool.txt	LTP130	ltpFR	14	1	0	CROCODILE	411	n/a	n/a	1	n/a	n/a	n/a	n/a	n/a
517.086	n/a	REC_WORD	258543	wordpools/wasnorm_wordpool.txt	LTP130	ltpFR	14	1	0	FEATHER	557	n/a	n/a	0	n/a	n/a	n/a	n/a	n/a
538.748	n/a	REC_WORD	269374	wordpools/wasnorm_wordpool.txt	LTP130	ltpFR	14	1	0	CONSUMER	365	n/a	n/a	1	n/a	n/a	n/a	n/a	n/a
542.854	n/a	REC_WORD	271427	wordpools/wasnorm_wordpool.txt	LTP130	ltpFR	14	1	1	TWIG	1527	n/a	n/a	0	n/a	n/a	n/a	n/a	n/a
597.94	n/a	WORD	298970	wordpools/wasnorm_wordpool.txt	LTP130	ltpFR	14	2	1	CATERPILLAR	259	n/a	n/a	1	0.57763671875	0.412841796875	1	lower	zerothre.ttf
601.936	n/a	WORD	300968	wordpools/wasnorm_wordpool.txt	LTP130	ltpFR	14	2	1	ROACH	1195	n/a	n/a	1	0.57763671875	0.412841796875	1	lower	zerothre.ttf
605.832	n/a	WORD	302916	wordpools/wasnorm_wordpool.txt	LTP130	ltpFR	14	2	1	CLAM	315	n/a	n/a	1	0.57763671875	0.412841796875	1	lower	zerothre.ttf
609.758	n/a	WORD	304879	wordpools/wasnorm_wordpool.txt	LTP130	ltpFR	14	2	0	MULE	931	n/a	n/a	1	0.422607421875	0.5869140625	0	upper	amplitud.ttf
613.752	n/a	WORD	306876	wordpools/wasnorm_wordpool.txt	LTP130	ltpFR	14	2	0	GENERAL	630	n/a	n/a	1	0.422607421875	0.5869140625	0	upper	amplitud.ttf
617.928	n/a	WORD	308964	wordpools/wasnorm_wordpool.txt	LTP130	ltpFR	14	2	0	COMMANDER	354	n/a	n/a	1	0.422607421875	0.5869140625	0	upper	amplitud.ttf
622.122	n/a	WORD	311061	wordpools/wasnorm_wordpool.txt	LTP130	ltpFR	14	2	0	COMET	353	n/a	n/a	1	0.422607421875	0.5869140625	0	upper	amplitud.ttf
626.3	n/a	WORD	313150	wordpools/wasnorm_wordpool.txt	LTP130	ltpFR	14	2	0	DONKEY	484	n/a	n/a	1	0.422607421875	0.5869140625	0	upper	amplitud.ttf
630.228	n/a	WORD	315114	wordpools/wasnorm_wordpool.txt	LTP130	ltpFR	14	2	1	BABY	64	n/a	n/a	1	0.57763671875	0.412841796875	1	lower	zerothre.ttf
634.104	n/a	WORD	317052	wordpools/wasnorm_wordpool.txt	LTP130	ltpFR	14	2	1	CRADLE	399	n/a	n/a	0	0.57763671875	0.412841796875	1	lower	zerothre.ttf
638.182	n/a	WORD	319091	wordpools/wasnorm_wordpool.txt	LTP130	ltpFR	14	2	1	LION	827	n/a	n/a	1	0.57763671875	0.412841796875	1	lower	zerothre.ttf
642.376	n/a	WORD	321188	wordpools/wasnorm_wordpool.txt	LTP130	ltpFR	14	2	0	IDOL	733	n/a	n/a	1	0.422607421875	0.5869140625	0	upper	amplitud.ttf
646.57	n/a	WORD	323285	wordpools/wasnorm_wordpool.txt	LTP130	ltpFR	14	2	0	HEAD	695	n/a	n/a	1	0.422607421875	0.5869140625	0	upper	amplitud.ttf
650.698	n/a	WORD	325349	wordpools/wasnorm_wordpool.txt	LTP130	ltpFR	14	2	0	WHISKERS	1605	n/a	n/a	0	0.422607421875	0.5869140625	0	upper	amplitud.ttf
654.842	n/a	WORD	327421	wordpools/wasnorm_wordpool.txt	LTP130	ltpFR	14	2	1	SNEAKER	1334	n/a	n/a	0	0.57763671875	0.412841796875	1	lower	zerothre.ttf
658.736	n/a	WORD	329368	wordpools/wasnorm_wordpool.txt	LTP130	ltpFR	14	2	1	CORAL	378	n/a	n/a	1	0.57763671875	0.412841796875	1	lower	zerothre.ttf
664.628	n/a	REC_START	332314	n/a	LTP130	ltpFR	14	2	n/a	n/a	n/a	n/a	n/a	n/a	n/a	n/a	n/a	n/a	n/a
665.974	n/a	REC_WORD	332987	wordpools/wasnorm_wordpool.txt	LTP130	ltpFR	14	2	1	CORAL	378	n/a	n/a	1	n/a	n/a	n/a	n/a	n/a
667.232	n/a	REC_WORD	333616	wordpools/wasnorm_wordpool.txt	LTP130	ltpFR	14	2	1	SNEAKER	1334	n/a	n/a	0	n/a	n/a	n/a	n/a	n/a
670.344	n/a	REC_WORD	335172	wordpools/wasnorm_wordpool.txt	LTP130	ltpFR	14	2	1	LION	827	n/a	n/a	1	n/a	n/a	n/a	n/a	n/a
672.284	n/a	REC_WORD	336142	wordpools/wasnorm_wordpool.txt	LTP130	ltpFR	14	2	0	GENERAL	630	n/a	n/a	1	n/a	n/a	n/a	n/a	n/a
676.266	n/a	REC_WORD	338133	wordpools/wasnorm_wordpool.txt	LTP130	ltpFR	14	2	0	COMMANDER	354	n/a	n/a	1	n/a	n/a	n/a	n/a	n/a
680.946	n/a	REC_WORD	340473	wordpools/wasnorm_wordpool.txt	LTP130	ltpFR	14	2	1	ROACH	1195	n/a	n/a	1	n/a	n/a	n/a	n/a	n/a
683.656	n/a	REC_WORD	341828	wordpools/wasnorm_wordpool.txt	LTP130	ltpFR	14	2	1	CATERPILLAR	259	n/a	n/a	1	n/a	n/a	n/a	n/a	n/a
688.026	n/a	REC_WORD	344013	wordpools/wasnorm_wordpool.txt	LTP130	ltpFR	14	2	1	CLAM	315	n/a	n/a	1	n/a	n/a	n/a	n/a	n/a
691.598	n/a	REC_WORD	345799	wordpools/wasnorm_wordpool.txt	LTP130	ltpFR	14	2	0	COMET	353	n/a	n/a	1	n/a	n/a	n/a	n/a	n/a
694.57	n/a	REC_WORD	347285	wordpools/wasnorm_wordpool.txt	LTP130	ltpFR	14	2	0	MULE	931	n/a	n/a	1	n/a	n/a	n/a	n/a	n/a
695.618	n/a	REC_WORD	347809	wordpools/wasnorm_wordpool.txt	LTP130	ltpFR	14	2	0	DONKEY	484	n/a	n/a	1	n/a	n/a	n/a	n/a	n/a
700.732	n/a	REC_WORD	350366	wordpools/wasnorm_wordpool.txt	LTP130	ltpFR	14	2	1	BABY	64	n/a	n/a	1	n/a	n/a	n/a	n/a	n/a
748.584	n/a	WORD	374292	wordpools/wasnorm_wordpool.txt	LTP130	ltpFR	14	3	0	CONE	363	n/a	n/a	0	0.422607421875	0.5869140625	0	upper	amplitud.ttf
752.412	n/a	WORD	376206	wordpools/wasnorm_wordpool.txt	LTP130	ltpFR	14	3	0	WRENCH	1625	n/a	n/a	0	0.422607421875	0.5869140625	0	upper	amplitud.ttf
756.242	n/a	WORD	378121	wordpools/wasnorm_wordpool.txt	LTP130	ltpFR	14	3	0	SCREW	1254	n/a	n/a	0	0.422607421875	0.5869140625	0	upper	amplitud.ttf
760.086	n/a	WORD	380043	wordpools/wasnorm_wordpool.txt	LTP130	ltpFR	14	3	0	ICEBERG	731	n/a	n/a	1	0.422607421875	0.5869140625	0	upper	amplitud.ttf
764.296	n/a	WORD	382148	wordpools/wasnorm_wordpool.txt	LTP130	ltpFR	14	3	0	PIGMENT	1066	n/a	n/a	0	0.422607421875	0.5869140625	0	upper	amplitud.ttf
768.124	n/a	WORD	384062	wordpools/wasnorm_wordpool.txt	LTP130	ltpFR	14	3	0	RASH	1167	n/a	n/a	0	0.422607421875	0.5869140625	0	upper	amplitud.ttf
772.15	n/a	WORD	386075	wordpools/wasnorm_wordpool.txt	LTP130	ltpFR	14	3	0	BEER	114	n/a	n/a	0	0.422607421875	0.5869140625	0	upper	amplitud.ttf
776.278	n/a	WORD	388139	wordpools/wasnorm_wordpool.txt	LTP130	ltpFR	14	3	0	PENNY	1045	n/a	n/a	0	0.422607421875	0.5869140625	0	upper	amplitud.ttf
780.472	n/a	WORD	390236	wordpools/wasnorm_wordpool.txt	LTP130	ltpFR	14	3	0	TAPIOCA	1434	n/a	n/a	0	0.422607421875	0.5869140625	0	upper	amplitud.ttf
784.566	n/a	WORD	392283	wordpools/wasnorm_wordpool.txt	LTP130	ltpFR	14	3	0	RAFT	1159	n/a	n/a	1	0.422607421875	0.5869140625	0	upper	amplitud.ttf
788.46	n/a	WORD	394230	wordpools/wasnorm_wordpool.txt	LTP130	ltpFR	14	3	0	BATHTUB	100	n/a	n/a	1	0.422607421875	0.5869140625	0	upper	amplitud.ttf
792.604	n/a	WORD	396302	wordpools/wasnorm_wordpool.txt	LTP130	ltpFR	14	3	0	ARM	38	n/a	n/a	0	0.422607421875	0.5869140625	0	upper	amplitud.ttf
796.548	n/a	WORD	398274	wordpools/wasnorm_wordpool.txt	LTP130	ltpFR	14	3	0	STRAW	1390	n/a	n/a	0	0.422607421875	0.5869140625	0	upper	amplitud.ttf
800.392	n/a	WORD	400196	wordpools/wasnorm_wordpool.txt	LTP130	ltpFR	14	3	0	ROOM	1206	n/a	n/a	1	0.422607421875	0.5869140625	0	upper	amplitud.ttf
804.536	n/a	WORD	402268	wordpools/wasnorm_wordpool.txt	LTP130	ltpFR	14	3	0	BUTTER	205	n/a	n/a	0	0.422607421875	0.5869140625	0	upper	amplitud.ttf
808.446	n/a	WORD	404223	wordpools/wasnorm_wordpool.txt	LTP130	ltpFR	14	3	0	LIMB	822	n/a	n/a	0	0.422607421875	0.5869140625	0	upper	amplitud.ttf
814.372	n/a	REC_START	407186	n/a	LTP130	ltpFR	14	3	n/a	n/a	n/a	n/a	n/a	n/a	n/a	n/a	n/a	n/a	n/a
816.662	n/a	REC_WORD	408331	wordpools/wasnorm_wordpool.txt	LTP130	ltpFR	14	3	0	LIMB	822	n/a	n/a	0	n/a	n/a	n/a	n/a	n/a
818.148	n/a	REC_WORD	409074	wordpools/wasnorm_wordpool.txt	LTP130	ltpFR	14	3	0	ARM	38	n/a	n/a	0	n/a	n/a	n/a	n/a	n/a
819.216	n/a	REC_WORD	409608	wordpools/wasnorm_wordpool.txt	LTP130	ltpFR	14	3	0	RASH	1167	n/a	n/a	0	n/a	n/a	n/a	n/a	n/a
820.656	n/a	REC_WORD	410328	wordpools/wasnorm_wordpool.txt	LTP130	ltpFR	14	3	0	ROOM	1206	n/a	n/a	1	n/a	n/a	n/a	n/a	n/a
822.008	n/a	REC_WORD	411004	wordpools/wasnorm_wordpool.txt	LTP130	ltpFR	14	3	0	BATHTUB	100	n/a	n/a	1	n/a	n/a	n/a	n/a	n/a
824.962	n/a	REC_WORD	412481	wordpools/wasnorm_wordpool.txt	LTP130	ltpFR	14	3	0	BEER	114	n/a	n/a	0	n/a	n/a	n/a	n/a	n/a
826.374	n/a	REC_WORD	413187	wordpools/wasnorm_wordpool.txt	LTP130	ltpFR	14	3	0	STRAW	1390	n/a	n/a	0	n/a	n/a	n/a	n/a	n/a
1411.038	n/a	WORD	705519	wordpools/wasnorm_wordpool.txt	LTP130	ltpFR	14	4	0	CARDINAL	244	n/a	n/a	0	0.422607421875	0.5869140625	0	upper	amplitud.ttf
1415.066	n/a	WORD	707533	wordpools/wasnorm_wordpool.txt	LTP130	ltpFR	14	4	0	CHEST	295	n/a	n/a	1	0.422607421875	0.5869140625	0	upper	amplitud.ttf
1419.176	n/a	WORD	709588	wordpools/wasnorm_wordpool.txt	LTP130	ltpFR	14	4	0	SKI	1316	n/a	n/a	1	0.422607421875	0.5869140625	0	upper	amplitud.ttf
1423.352	n/a	WORD	711676	wordpools/wasnorm_wordpool.txt	LTP130	ltpFR	14	4	1	WINGS	1614	n/a	n/a	1	0.57763671875	0.412841796875	1	lower	zerothre.ttf
1427.364	n/a	WORD	713682	wordpools/wasnorm_wordpool.txt	LTP130	ltpFR	14	4	1	CONCERT	360	n/a	n/a	0	0.57763671875	0.412841796875	1	lower	zerothre.ttf
1431.292	n/a	WORD	715646	wordpools/wasnorm_wordpool.txt	LTP130	ltpFR	14	4	1	ROCK	1201	n/a	n/a	0	0.57763671875	0.412841796875	1	lower	zerothre.ttf
1435.402	n/a	WORD	717701	wordpools/wasnorm_wordpool.txt	LTP130	ltpFR	14	4	1	POWDER	1117	n/a	n/a	0	0.57763671875	0.412841796875	1	lower	zerothre.ttf
1439.262	n/a	WORD	719631	wordpools/wasnorm_wordpool.txt	LTP130	ltpFR	14	4	0	BISON	131	n/a	n/a	1	0.422607421875	0.5869140625	0	upper	amplitud.ttf
1443.456	n/a	WORD	721728	wordpools/wasnorm_wordpool.txt	LTP130	ltpFR	14	4	0	OX	994	n/a	n/a	1	0.422607421875	0.5869140625	0	upper	amplitud.ttf
1447.45	n/a	WORD	723725	wordpools/wasnorm_wordpool.txt	LTP130	ltpFR	14	4	0	GOO	648	n/a	n/a	0	0.422607421875	0.5869140625	0	upper	amplitud.ttf
1451.63	n/a	WORD	725815	wordpools/wasnorm_wordpool.txt	LTP130	ltpFR	14	4	1	ORGAN	984	n/a	n/a	1	0.57763671875	0.412841796875	1	lower	zerothre.ttf
1455.806	n/a	WORD	727903	wordpools/wasnorm_wordpool.txt	LTP130	ltpFR	14	4	1	TROMBONE	1508	n/a	n/a	0	0.57763671875	0.412841796875	1	lower	zerothre.ttf
1459.916	n/a	WORD	729958	wordpools/wasnorm_wordpool.txt	LTP130	ltpFR	14	4	1	HOOK	715	n/a	n/a	0	0.57763671875	0.412841796875	1	lower	zerothre.ttf
1463.91	n/a	WORD	731955	wordpools/wasnorm_wordpool.txt	LTP130	ltpFR	14	4	1	UMPIRE	1535	n/a	n/a	1	0.57763671875	0.412841796875	1	lower	zerothre.ttf
1467.838	n/a	WORD	733919	wordpools/wasnorm_wordpool.txt	LTP130	ltpFR	14	4	0	DOLL	481	n/a	n/a	0	0.422607421875	0.5869140625	0	upper	amplitud.ttf
1471.982	n/a	WORD	735991	wordpools/wasnorm_wordpool.txt	LTP130	ltpFR	14	4	0	FAUCET	555	n/a	n/a	0	0.422607421875	0.5869140625	0	upper	amplitud.ttf
1477.824	n/a	REC_START	738912	n/a	LTP130	ltpFR	14	4	n/a	n/a	n/a	n/a	n/a	n/a	n/a	n/a	n/a	n/a	n/a
1479.022	n/a	REC_WORD	739511	wordpools/wasnorm_wordpool.txt	LTP130	ltpFR	14	4	0	FAUCET	555	n/a	n/a	0	n/a	n/a	n/a	n/a	n/a
1480.108	n/a	REC_WORD	740054	wordpools/wasnorm_wordpool.txt	LTP130	ltpFR	14	4	0	DOLL	481	n/a	n/a	0	n/a	n/a	n/a	n/a	n/a
1481.636	n/a	REC_WORD	740818	wordpools/wasnorm_wordpool.txt	LTP130	ltpFR	14	4	1	UMPIRE	1535	n/a	n/a	1	n/a	n/a	n/a	n/a	n/a
1484.0	n/a	REC_WORD	742000	wordpools/wasnorm_wordpool.txt	LTP130	ltpFR	14	4	0	CARDINAL	244	n/a	n/a	0	n/a	n/a	n/a	n/a	n/a
1486.14	n/a	REC_WORD	743070	wordpools/wasnorm_wordpool.txt	LTP130	ltpFR	14	4	0	SKI	1316	n/a	n/a	1	n/a	n/a	n/a	n/a	n/a
1491.892	n/a	REC_WORD	745946	wordpools/wasnorm_wordpool.txt	LTP130	ltpFR	14	4	n/a	BLUEJAY	141	n/a	n/a	n/a	n/a	n/a	n/a	n/a	n/a
1500.074	n/a	REC_WORD	750037	wordpools/wasnorm_wordpool.txt	LTP130	ltpFR	14	4	1	CLAM	315	n/a	n/a	1	n/a	n/a	n/a	n/a	n/a
1512.764	n/a	REC_WORD	756382	wordpools/wasnorm_wordpool.txt	LTP130	ltpFR	14	4	1	ORGAN	984	n/a	n/a	1	n/a	n/a	n/a	n/a	n/a
1544.37	n/a	REC_WORD	772185	wordpools/wasnorm_wordpool.txt	LTP130	ltpFR	14	4	1	ROCK	1201	n/a	n/a	0	n/a	n/a	n/a	n/a	n/a
1544.892	n/a	REC_WORD	772446	wordpools/wasnorm_wordpool.txt	LTP130	ltpFR	14	4	1	CONCERT	360	n/a	n/a	0	n/a	n/a	n/a	n/a	n/a
1630.48	n/a	WORD	815240	wordpools/wasnorm_wordpool.txt	LTP130	ltpFR	14	5	-1	PRAIRIE	1118	n/a	n/a	-1	1.0	1.0	1	upper	Verdana.ttf
1634.34	n/a	WORD	817170	wordpools/wasnorm_wordpool.txt	LTP130	ltpFR	14	5	-1	HOME	712	n/a	n/a	-1	1.0	1.0	1	upper	Verdana.ttf
1638.168	n/a	WORD	819084	wordpools/wasnorm_wordpool.txt	LTP130	ltpFR	14	5	-1	ISLAND	745	n/a	n/a	-1	1.0	1.0	1	upper	Verdana.ttf
1642.046	n/a	WORD	821023	wordpools/wasnorm_wordpool.txt	LTP130	ltpFR	14	5	-1	WALL	1582	n/a	n/a	-1	1.0	1.0	1	upper	Verdana.ttf
1646.106	n/a	WORD	823053	wordpools/wasnorm_wordpool.txt	LTP130	ltpFR	14	5	-1	BLUEPRINT	142	n/a	n/a	-1	1.0	1.0	1	upper	Verdana.ttf
1650.268	n/a	WORD	825134	wordpools/wasnorm_wordpool.txt	LTP130	ltpFR	14	5	-1	DRIVER	499	n/a	n/a	-1	1.0	1.0	1	upper	Verdana.ttf
1654.378	n/a	WORD	827189	wordpools/wasnorm_wordpool.txt	LTP130	ltpFR	14	5	-1	LUNG	850	n/a	n/a	-1	1.0	1.0	1	upper	Verdana.ttf
1658.504	n/a	WORD	829252	wordpools/wasnorm_wordpool.txt	LTP130	ltpFR	14	5	-1	CHEF	290	n/a	n/a	-1	1.0	1.0	1	upper	Verdana.ttf
1662.716	n/a	WORD	831358	wordpools/wasnorm_wordpool.txt	LTP130	ltpFR	14	5	-1	TREE	1502	n/a	n/a	-1	1.0	1.0	1	upper	Verdana.ttf
1666.91	n/a	WORD	833455	wordpools/wasnorm_wordpool.txt	LTP130	ltpFR	14	5	-1	SAP	1233	n/a	n/a	-1	1.0	1.0	1	upper	Verdana.ttf
1671.052	n/a	WORD	835526	wordpools/wasnorm_wordpool.txt	LTP130	ltpFR	14	5	-1	SHORE	1291	n/a	n/a	-1	1.0	1.0	1	upper	Verdana.ttf
1675.064	n/a	WORD	837532	wordpools/wasnorm_wordpool.txt	LTP130	ltpFR	14	5	-1	MAILBOX	857	n/a	n/a	-1	1.0	1.0	1	upper	Verdana.ttf
1678.94	n/a	WORD	839470	wordpools/wasnorm_wordpool.txt	LTP130	ltpFR	14	5	-1	BEARD	107	n/a	n/a	-1	1.0	1.0	1	upper	Verdana.ttf
1683.102	n/a	WORD	841551	wordpools/wasnorm_wordpool.txt	LTP130	ltpFR	14	5	-1	BEAN	105	n/a	n/a	-1	1.0	1.0	1	upper	Verdana.ttf
1686.98	n/a	WORD	843490	wordpools/wasnorm_wordpool.txt	LTP130	ltpFR	14	5	-1	BRAKE	166	n/a	n/a	-1	1.0	1.0	1	upper	Verdana.ttf
1691.058	n/a	WORD	845529	wordpools/wasnorm_wordpool.txt	LTP130	ltpFR	14	5	-1	DISH	474	n/a	n/a	-1	1.0	1.0	1	upper	Verdana.ttf
1696.8	n/a	REC_START	848400	n/a	LTP130	ltpFR	14	5	n/a	n/a	n/a	n/a	n/a	n/a	n/a	n/a	n/a	n/a	n/a
1698.73	n/a	REC_WORD	849365	wordpools/wasnorm_wordpool.txt	LTP130	ltpFR	14	5	-1	DISH	474	n/a	n/a	-1	n/a	n/a	n/a	n/a	n/a
1699.898	n/a	REC_WORD	849949	wordpools/wasnorm_wordpool.txt	LTP130	ltpFR	14	5	-1	BRAKE	166	n/a	n/a	-1	n/a	n/a	n/a	n/a	n/a
1700.966	n/a	REC_WORD	850483	wordpools/wasnorm_wordpool.txt	LTP130	ltpFR	14	5	-1	BEAN	105	n/a	n/a	-1	n/a	n/a	n/a	n/a	n/a
1702.146	n/a	REC_WORD	851073	wordpools/wasnorm_wordpool.txt	LTP130	ltpFR	14	5	-1	BEARD	107	n/a	n/a	-1	n/a	n/a	n/a	n/a	n/a
1703.664	n/a	REC_WORD	851832	wordpools/wasnorm_wordpool.txt	LTP130	ltpFR	14	5	-1	PRAIRIE	1118	n/a	n/a	-1	n/a	n/a	n/a	n/a	n/a
1709.996	n/a	REC_WORD	854998	wordpools/wasnorm_wordpool.txt	LTP130	ltpFR	14	5	-1	WALL	1582	n/a	n/a	-1	n/a	n/a	n/a	n/a	n/a
1713.382	n/a	REC_WORD	856691	wordpools/wasnorm_wordpool.txt	LTP130	ltpFR	14	5	n/a	WALL-E	-1	n/a	n/a	n/a	n/a	n/a	n/a	n/a	n/a
1719.962	n/a	REC_WORD	859981	wordpools/wasnorm_wordpool.txt	LTP130	ltpFR	14	5	-1	BLUEPRINT	142	n/a	n/a	-1	n/a	n/a	n/a	n/a	n/a
1721.056	n/a	REC_WORD	860528	wordpools/wasnorm_wordpool.txt	LTP130	ltpFR	14	5	-1	DRIVER	499	n/a	n/a	-1	n/a	n/a	n/a	n/a	n/a
1740.452	n/a	REC_WORD	870226	wordpools/wasnorm_wordpool.txt	LTP130	ltpFR	14	5	n/a	HOUSE	725	n/a	n/a	n/a	n/a	n/a	n/a	n/a	n/a
1845.73	n/a	WORD	922865	wordpools/wasnorm_wordpool.txt	LTP130	ltpFR	14	6	-1	SHRUB	1299	n/a	n/a	-1	1.0	1.0	1	upper	Verdana.ttf
1849.84	n/a	WORD	924920	wordpools/wasnorm_wordpool.txt	LTP130	ltpFR	14	6	-1	LAMP	798	n/a	n/a	-1	1.0	1.0	1	upper	Verdana.ttf
1853.768	n/a	WORD	926884	wordpools/wasnorm_wordpool.txt	LTP130	ltpFR	14	6	-1	PATIO	1025	n/a	n/a	-1	1.0	1.0	1	upper	Verdana.ttf
1857.778	n/a	WORD	928889	wordpools/wasnorm_wordpool.txt	LTP130	ltpFR	14	6	-1	CHAMPION	279	n/a	n/a	-1	1.0	1.0	1	upper	Verdana.ttf
1861.688	n/a	WORD	930844	wordpools/wasnorm_wordpool.txt	LTP130	ltpFR	14	6	-1	RADISH	1158	n/a	n/a	-1	1.0	1.0	1	upper	Verdana.ttf
1865.716	n/a	WORD	932858	wordpools/wasnorm_wordpool.txt	LTP130	ltpFR	14	6	-1	BANANA	77	n/a	n/a	-1	1.0	1.0	1	upper	Verdana.ttf
1869.744	n/a	WORD	934872	wordpools/wasnorm_wordpool.txt	LTP130	ltpFR	14	6	-1	LOG	841	n/a	n/a	-1	1.0	1.0	1	upper	Verdana.ttf
1873.904	n/a	WORD	936952	wordpools/wasnorm_wordpool.txt	LTP130	ltpFR	14	6	-1	COBBLER	335	n/a	n/a	-1	1.0	1.0	1	upper	Verdana.ttf
1878.114	n/a	WORD	939057	wordpools/wasnorm_wordpool.txt	LTP130	ltpFR	14	6	-1	EMERALD	528	n/a	n/a	-1	1.0	1.0	1	upper	Verdana.ttf
1882.158	n/a	WORD	941079	wordpools/wasnorm_wordpool.txt	LTP130	ltpFR	14	6	-1	DOORBELL	487	n/a	n/a	-1	1.0	1.0	1	upper	Verdana.ttf
1886.284	n/a	WORD	943142	wordpools/wasnorm_wordpool.txt	LTP130	ltpFR	14	6	-1	CITRUS	313	n/a	n/a	-1	1.0	1.0	1	upper	Verdana.ttf
1890.196	n/a	WORD	945098	wordpools/wasnorm_wordpool.txt	LTP130	ltpFR	14	6	-1	BUSH	202	n/a	n/a	-1	1.0	1.0	1	upper	Verdana.ttf
1894.24	n/a	WORD	947120	wordpools/wasnorm_wordpool.txt	LTP130	ltpFR	14	6	-1	CONTINENT	367	n/a	n/a	-1	1.0	1.0	1	upper	Verdana.ttf
1898.416	n/a	WORD	949208	wordpools/wasnorm_wordpool.txt	LTP130	ltpFR	14	6	-1	CAULIFLOWER	262	n/a	n/a	-1	1.0	1.0	1	upper	Verdana.ttf
1902.378	n/a	WORD	951189	wordpools/wasnorm_wordpool.txt	LTP130	ltpFR	14	6	-1	CRIB	407	n/a	n/a	-1	1.0	1.0	1	upper	Verdana.ttf
1906.272	n/a	WORD	953136	wordpools/wasnorm_wordpool.txt	LTP130	ltpFR	14	6	-1	BASSINET	97	n/a	n/a	-1	1.0	1.0	1	upper	Verdana.ttf
1912.082	n/a	REC_START	956041	n/a	LTP130	ltpFR	14	6	n/a	n/a	n/a	n/a	n/a	n/a	n/a	n/a	n/a	n/a	n/a
1913.862	n/a	REC_WORD	956931	wordpools/wasnorm_wordpool.txt	LTP130	ltpFR	14	6	-1	CAULIFLOWER	262	n/a	n/a	-1	n/a	n/a	n/a	n/a	n/a
1914.84	n/a	REC_WORD	957420	wordpools/wasnorm_wordpool.txt	LTP130	ltpFR	14	6	-1	CRIB	407	n/a	n/a	-1	n/a	n/a	n/a	n/a	n/a
1915.602	n/a	REC_WORD	957801	wordpools/wasnorm_wordpool.txt	LTP130	ltpFR	14	6	-1	BASSINET	97	n/a	n/a	-1	n/a	n/a	n/a	n/a	n/a
1917.768	n/a	REC_WORD	958884	wordpools/wasnorm_wordpool.txt	LTP130	ltpFR	14	6	-1	LAMP	798	n/a	n/a	-1	n/a	n/a	n/a	n/a	n/a
1919.156	n/a	REC_WORD	959578	wordpools/wasnorm_wordpool.txt	LTP130	ltpFR	14	6	-1	SHRUB	1299	n/a	n/a	-1	n/a	n/a	n/a	n/a	n/a
1920.288	n/a	REC_WORD	960144	wordpools/wasnorm_wordpool.txt	LTP130	ltpFR	14	6	-1	PATIO	1025	n/a	n/a	-1	n/a	n/a	n/a	n/a	n/a
1922.134	n/a	REC_WORD	961067	wordpools/wasnorm_wordpool.txt	LTP130	ltpFR	14	6	-1	CHAMPION	279	n/a	n/a	-1	n/a	n/a	n/a	n/a	n/a
1923.486	n/a	REC_WORD	961743	wordpools/wasnorm_wordpool.txt	LTP130	ltpFR	14	6	-1	RADISH	1158	n/a	n/a	-1	n/a	n/a	n/a	n/a	n/a
1924.538	n/a	REC_WORD	962269	wordpools/wasnorm_wordpool.txt	LTP130	ltpFR	14	6	-1	BANANA	77	n/a	n/a	-1	n/a	n/a	n/a	n/a	n/a
1925.64	n/a	REC_WORD	962820	wordpools/wasnorm_wordpool.txt	LTP130	ltpFR	14	6	-1	COBBLER	335	n/a	n/a	-1	n/a	n/a	n/a	n/a	n/a
1926.992	n/a	REC_WORD	963496	wordpools/wasnorm_wordpool.txt	LTP130	ltpFR	14	6	-1	EMERALD	528	n/a	n/a	-1	n/a	n/a	n/a	n/a	n/a
1929.422	n/a	REC_WORD	964711	wordpools/wasnorm_wordpool.txt	LTP130	ltpFR	14	6	-1	DOORBELL	487	n/a	n/a	-1	n/a	n/a	n/a	n/a	n/a
1930.794	n/a	REC_WORD	965397	wordpools/wasnorm_wordpool.txt	LTP130	ltpFR	14	6	-1	CITRUS	313	n/a	n/a	-1	n/a	n/a	n/a	n/a	n/a
1932.958	n/a	REC_WORD	966479	wordpools/wasnorm_wordpool.txt	LTP130	ltpFR	14	6	-1	CONTINENT	367	n/a	n/a	-1	n/a	n/a	n/a	n/a	n/a
1934.584	n/a	REC_WORD	967292	wordpools/wasnorm_wordpool.txt	LTP130	ltpFR	14	6	-1	BUSH	202	n/a	n/a	-1	n/a	n/a	n/a	n/a	n/a
2003.762	n/a	WORD	1001881	wordpools/wasnorm_wordpool.txt	LTP130	ltpFR	14	7	1	MEAL	882	n/a	n/a	0	0.57763671875	0.412841796875	1	lower	zerothre.ttf
2007.606	n/a	WORD	1003803	wordpools/wasnorm_wordpool.txt	LTP130	ltpFR	14	7	1	ROOMMATE	1207	n/a	n/a	1	0.57763671875	0.412841796875	1	lower	zerothre.ttf
2011.566	n/a	WORD	1005783	wordpools/wasnorm_wordpool.txt	LTP130	ltpFR	14	7	1	GIRAFFE	636	n/a	n/a	1	0.57763671875	0.412841796875	1	lower	zerothre.ttf
2015.56	n/a	WORD	1007780	wordpools/wasnorm_wordpool.txt	LTP130	ltpFR	14	7	0	NICKEL	950	n/a	n/a	0	0.422607421875	0.5869140625	0	upper	amplitud.ttf
2019.488	n/a	WORD	1009744	wordpools/wasnorm_wordpool.txt	LTP130	ltpFR	14	7	0	BANK	83	n/a	n/a	1	0.422607421875	0.5869140625	0	upper	amplitud.ttf
2023.582	n/a	WORD	1011791	wordpools/wasnorm_wordpool.txt	LTP130	ltpFR	14	7	0	ASSOCIATE	49	n/a	n/a	1	0.422607421875	0.5869140625	0	upper	amplitud.ttf
2027.676	n/a	WORD	1013838	wordpools/wasnorm_wordpool.txt	LTP130	ltpFR	14	7	1	ARTIST	43	n/a	n/a	0	0.57763671875	0.412841796875	1	lower	zerothre.ttf
2031.602	n/a	WORD	1015801	wordpools/wasnorm_wordpool.txt	LTP130	ltpFR	14	7	1	NECK	939	n/a	n/a	0	0.57763671875	0.412841796875	1	lower	zerothre.ttf
2035.564	n/a	WORD	1017782	wordpools/wasnorm_wordpool.txt	LTP130	ltpFR	14	7	1	BRAN	167	n/a	n/a	0	0.57763671875	0.412841796875	1	lower	zerothre.ttf
2039.608	n/a	WORD	1019804	wordpools/wasnorm_wordpool.txt	LTP130	ltpFR	14	7	1	SWATTER	1418	n/a	n/a	0	0.57763671875	0.412841796875	1	lower	zerothre.ttf
2043.602	n/a	WORD	1021801	wordpools/wasnorm_wordpool.txt	LTP130	ltpFR	14	7	1	SPIDER	1351	n/a	n/a	1	0.57763671875	0.412841796875	1	lower	zerothre.ttf
2047.48	n/a	WORD	1023740	wordpools/wasnorm_wordpool.txt	LTP130	ltpFR	14	7	0	ALLIGATOR	16	n/a	n/a	1	0.422607421875	0.5869140625	0	upper	amplitud.ttf
2051.39	n/a	WORD	1025695	wordpools/wasnorm_wordpool.txt	LTP130	ltpFR	14	7	0	WASHER	1592	n/a	n/a	1	0.422607421875	0.5869140625	0	upper	amplitud.ttf
2055.268	n/a	WORD	1027634	wordpools/wasnorm_wordpool.txt	LTP130	ltpFR	14	7	0	BUILDER	190	n/a	n/a	1	0.422607421875	0.5869140625	0	upper	amplitud.ttf
2059.244	n/a	WORD	1029622	wordpools/wasnorm_wordpool.txt	LTP130	ltpFR	14	7	0	OFFICE	972	n/a	n/a	1	0.422607421875	0.5869140625	0	upper	amplitud.ttf
2063.106	n/a	WORD	1031553	wordpools/wasnorm_wordpool.txt	LTP130	ltpFR	14	7	0	RABBIT	1152	n/a	n/a	0	0.422607421875	0.5869140625	0	upper	amplitud.ttf
2068.916	n/a	REC_START	1034458	n/a	LTP130	ltpFR	14	7	n/a	n/a	n/a	n/a	n/a	n/a	n/a	n/a	n/a	n/a	n/a
2070.876	n/a	REC_WORD	1035438	wordpools/wasnorm_wordpool.txt	LTP130	ltpFR	14	7	0	RABBIT	1152	n/a	n/a	0	n/a	n/a	n/a	n/a	n/a
2072.244	n/a	REC_WORD	1036122	wordpools/wasnorm_wordpool.txt	LTP130	ltpFR	14	7	0	BANK	83	n/a	n/a	1	n/a	n/a	n/a	n/a	n/a
2073.584	n/a	REC_WORD	1036792	wordpools/wasnorm_wordpool.txt	LTP130	ltpFR	14	7	0	NICKEL	950	n/a	n/a	0	n/a	n/a	n/a	n/a	n/a
2074.882	n/a	REC_WORD	1037441	wordpools/wasnorm_wordpool.txt	LTP130	ltpFR	14	7	0	BUILDER	190	n/a	n/a	1	n/a	n/a	n/a	n/a	n/a
2076.524	n/a	REC_WORD	1038262	wordpools/wasnorm_wordpool.txt	LTP130	ltpFR	14	7	1	SWATTER	1418	n/a	n/a	0	n/a	n/a	n/a	n/a	n/a
2078.32	n/a	REC_WORD	1039160	wordpools/wasnorm_wordpool.txt	LTP130	ltpFR	14	7	1	SPIDER	1351	n/a	n/a	1	n/a	n/a	n/a	n/a	n/a
2080.42	n/a	REC_WORD	1040210	wordpools/wasnorm_wordpool.txt	LTP130	ltpFR	14	7	0	ALLIGATOR	16	n/a	n/a	1	n/a	n/a	n/a	n/a	n/a
2082.3	n/a	REC_WORD	1041150	wordpools/wasnorm_wordpool.txt	LTP130	ltpFR	14	7	1	NECK	939	n/a	n/a	0	n/a	n/a	n/a	n/a	n/a
2099.092	n/a	REC_WORD	1049546	wordpools/wasnorm_wordpool.txt	LTP130	ltpFR	14	7	1	GIRAFFE	636	n/a	n/a	1	n/a	n/a	n/a	n/a	n/a
2110.426	n/a	REC_WORD	1055213	wordpools/wasnorm_wordpool.txt	LTP130	ltpFR	14	7	1	LION	827	n/a	n/a	1	n/a	n/a	n/a	n/a	n/a
2156.386	n/a	WORD	1078193	wordpools/wasnorm_wordpool.txt	LTP130	ltpFR	14	8	1	RUNNER	1218	n/a	n/a	1	0.57763671875	0.412841796875	1	lower	zerothre.ttf
2160.528	n/a	WORD	1080264	wordpools/wasnorm_wordpool.txt	LTP130	ltpFR	14	8	1	SWAMP	1416	n/a	n/a	0	0.57763671875	0.412841796875	1	lower	zerothre.ttf
2164.406	n/a	WORD	1082203	wordpools/wasnorm_wordpool.txt	LTP130	ltpFR	14	8	1	VEGETABLE	1552	n/a	n/a	1	0.57763671875	0.412841796875	1	lower	zerothre.ttf
2168.368	n/a	WORD	1084184	wordpools/wasnorm_wordpool.txt	LTP130	ltpFR	14	8	0	BEAD	103	n/a	n/a	0	0.422607421875	0.5869140625	0	upper	amplitud.ttf
2172.278	n/a	WORD	1086139	wordpools/wasnorm_wordpool.txt	LTP130	ltpFR	14	8	0	MEDAL	885	n/a	n/a	0	0.422607421875	0.5869140625	0	upper	amplitud.ttf
2176.356	n/a	WORD	1088178	wordpools/wasnorm_wordpool.txt	LTP130	ltpFR	14	8	0	PEDESTRIAN	1038	n/a	n/a	1	0.422607421875	0.5869140625	0	upper	amplitud.ttf
2180.282	n/a	WORD	1090141	wordpools/wasnorm_wordpool.txt	LTP130	ltpFR	14	8	1	MOSQUITO	917	n/a	n/a	1	0.57763671875	0.412841796875	1	lower	zerothre.ttf
2184.144	n/a	WORD	1092072	wordpools/wasnorm_wordpool.txt	LTP130	ltpFR	14	8	1	BEAST	108	n/a	n/a	1	0.57763671875	0.412841796875	1	lower	zerothre.ttf
2188.338	n/a	WORD	1094169	wordpools/wasnorm_wordpool.txt	LTP130	ltpFR	14	8	1	MOTOR	922	n/a	n/a	0	0.57763671875	0.412841796875	1	lower	zerothre.ttf
2192.514	n/a	WORD	1096257	wordpools/wasnorm_wordpool.txt	LTP130	ltpFR	14	8	0	INSECT	740	n/a	n/a	0	0.422607421875	0.5869140625	0	upper	amplitud.ttf
2196.458	n/a	WORD	1098229	wordpools/wasnorm_wordpool.txt	LTP130	ltpFR	14	8	0	PARSLEY	1016	n/a	n/a	0	0.422607421875	0.5869140625	0	upper	amplitud.ttf
2200.52	n/a	WORD	1100260	wordpools/wasnorm_wordpool.txt	LTP130	ltpFR	14	8	0	JUNGLE	764	n/a	n/a	1	0.422607421875	0.5869140625	0	upper	amplitud.ttf
2204.546	n/a	WORD	1102273	wordpools/wasnorm_wordpool.txt	LTP130	ltpFR	14	8	0	APE	31	n/a	n/a	1	0.422607421875	0.5869140625	0	upper	amplitud.ttf
2208.49	n/a	WORD	1104245	wordpools/wasnorm_wordpool.txt	LTP130	ltpFR	14	8	0	ALMANAC	17	n/a	n/a	1	0.422607421875	0.5869140625	0	upper	amplitud.ttf
2212.584	n/a	WORD	1106292	wordpools/wasnorm_wordpool.txt	LTP130	ltpFR	14	8	1	ARTICLE	42	n/a	n/a	0	0.57763671875	0.412841796875	1	lower	zerothre.ttf
2216.662	n/a	WORD	1108331	wordpools/wasnorm_wordpool.txt	LTP130	ltpFR	14	8	1	RAZOR	1171	n/a	n/a	0	0.57763671875	0.412841796875	1	lower	zerothre.ttf
2222.372	n/a	REC_START	1111186	n/a	LTP130	ltpFR	14	8	n/a	n/a	n/a	n/a	n/a	n/a	n/a	n/a	n/a	n/a	n/a
2224.476	n/a	REC_WORD	1112238	wordpools/wasnorm_wordpool.txt	LTP130	ltpFR	14	8	1	RAZOR	1171	n/a	n/a	0	n/a	n/a	n/a	n/a	n/a
2226.676	n/a	REC_WORD	1113338	wordpools/wasnorm_wordpool.txt	LTP130	ltpFR	14	8	0	ALMANAC	17	n/a	n/a	1	n/a	n/a	n/a	n/a	n/a
2229.804	n/a	REC_WORD	1114902	wordpools/wasnorm_wordpool.txt	LTP130	ltpFR	14	8	1	RUNNER	1218	n/a	n/a	1	n/a	n/a	n/a	n/a	n/a
2260.948	n/a	REC_WORD	1130474	wordpools/wasnorm_wordpool.txt	LTP130	ltpFR	14	8	1	GIRAFFE	636	n/a	n/a	1	n/a	n/a	n/a	n/a	n/a
2291.932	n/a	REC_WORD	1145966	wordpools/wasnorm_wordpool.txt	LTP130	ltpFR	14	8	n/a	GERM	632	n/a	n/a	n/a	n/a	n/a	n/a	n/a	n/a
2293.618	n/a	REC_WORD	1146809	wordpools/wasnorm_wordpool.txt	LTP130	ltpFR	14	8	n/a	BACTERIA	-1	n/a	n/a	n/a	n/a	n/a	n/a	n/a	n/a
2310.49	n/a	WORD	1155245	wordpools/wasnorm_wordpool.txt	LTP130	ltpFR	14	9	1	TRANSPLANT	1496	n/a	n/a	0	0.57763671875	0.412841796875	1	lower	zerothre.ttf
2314.484	n/a	WORD	1157242	wordpools/wasnorm_wordpool.txt	LTP130	ltpFR	14	9	1	KIDNEY	776	n/a	n/a	1	0.57763671875	0.412841796875	1	lower	zerothre.ttf
2318.528	n/a	WORD	1159264	wordpools/wasnorm_wordpool.txt	LTP130	ltpFR	14	9	1	DEPUTY	450	n/a	n/a	1	0.57763671875	0.412841796875	1	lower	zerothre.ttf
2322.39	n/a	WORD	1161195	wordpools/wasnorm_wordpool.txt	LTP130	ltpFR	14	9	1	COWBOY	395	n/a	n/a	1	0.57763671875	0.412841796875	1	lower	zerothre.ttf
2326.45	n/a	WORD	1163225	wordpools/wasnorm_wordpool.txt	LTP130	ltpFR	14	9	1	OTTER	986	n/a	n/a	1	0.57763671875	0.412841796875	1	lower	zerothre.ttf
2330.494	n/a	WORD	1165247	wordpools/wasnorm_wordpool.txt	LTP130	ltpFR	14	9	1	SHELTER	1282	n/a	n/a	0	0.57763671875	0.412841796875	1	lower	zerothre.ttf
2334.688	n/a	WORD	1167344	wordpools/wasnorm_wordpool.txt	LTP130	ltpFR	14	9	1	DIAL	457	n/a	n/a	0	0.57763671875	0.412841796875	1	lower	zerothre.ttf
2338.882	n/a	WORD	1169441	wordpools/wasnorm_wordpool.txt	LTP130	ltpFR	14	9	1	BEAVER	109	n/a	n/a	1	0.57763671875	0.412841796875	1	lower	zerothre.ttf
2342.81	n/a	WORD	1171405	wordpools/wasnorm_wordpool.txt	LTP130	ltpFR	14	9	1	PORCH	1106	n/a	n/a	1	0.57763671875	0.412841796875	1	lower	zerothre.ttf
2347.02	n/a	WORD	1173510	wordpools/wasnorm_wordpool.txt	LTP130	ltpFR	14	9	1	FLY	586	n/a	n/a	1	0.57763671875	0.412841796875	1	lower	zerothre.ttf
2350.93	n/a	WORD	1175465	wordpools/wasnorm_wordpool.txt	LTP130	ltpFR	14	9	1	CRICKET	408	n/a	n/a	1	0.57763671875	0.412841796875	1	lower	zerothre.ttf
2354.974	n/a	WORD	1177487	wordpools/wasnorm_wordpool.txt	LTP130	ltpFR	14	9	1	WORM	1623	n/a	n/a	1	0.57763671875	0.412841796875	1	lower	zerothre.ttf
2359.134	n/a	WORD	1179567	wordpools/wasnorm_wordpool.txt	LTP130	ltpFR	14	9	1	SKETCH	1315	n/a	n/a	0	0.57763671875	0.412841796875	1	lower	zerothre.ttf
2363.244	n/a	WORD	1181622	wordpools/wasnorm_wordpool.txt	LTP130	ltpFR	14	9	1	TYPEWRITER	1531	n/a	n/a	0	0.57763671875	0.412841796875	1	lower	zerothre.ttf
2367.206	n/a	WORD	1183603	wordpools/wasnorm_wordpool.txt	LTP130	ltpFR	14	9	1	GRAVEL	659	n/a	n/a	0	0.57763671875	0.412841796875	1	lower	zerothre.ttf
2371.416	n/a	WORD	1185708	wordpools/wasnorm_wordpool.txt	LTP130	ltpFR	14	9	1	POSSUM	1112	n/a	n/a	1	0.57763671875	0.412841796875	1	lower	zerothre.ttf
2377.292	n/a	REC_START	1188646	n/a	LTP130	ltpFR	14	9	n/a	n/a	n/a	n/a	n/a	n/a	n/a	n/a	n/a	n/a	n/a
2379.652	n/a	REC_WORD	1189826	wordpools/wasnorm_wordpool.txt	LTP130	ltpFR	14	9	1	POSSUM	1112	n/a	n/a	1	n/a	n/a	n/a	n/a	n/a
2381.962	n/a	REC_WORD	1190981	wordpools/wasnorm_wordpool.txt	LTP130	ltpFR	14	9	1	OTTER	986	n/a	n/a	1	n/a	n/a	n/a	n/a	n/a
2384.386	n/a	REC_WORD	1192193	wordpools/wasnorm_wordpool.txt	LTP130	ltpFR	14	9	1	SHELTER	1282	n/a	n/a	0	n/a	n/a	n/a	n/a	n/a
2386.326	n/a	REC_WORD	1193163	wordpools/wasnorm_wordpool.txt	LTP130	ltpFR	14	9	1	GRAVEL	659	n/a	n/a	0	n/a	n/a	n/a	n/a	n/a
2390.892	n/a	REC_WORD	1195446	wordpools/wasnorm_wordpool.txt	LTP130	ltpFR	14	9	0	DAM	436	n/a	n/a	1	n/a	n/a	n/a	n/a	n/a
2393.616	n/a	REC_WORD	1196808	wordpools/wasnorm_wordpool.txt	LTP130	ltpFR	14	9	1	BEAVER	109	n/a	n/a	1	n/a	n/a	n/a	n/a	n/a
2398.574	n/a	REC_WORD	1199287	wordpools/wasnorm_wordpool.txt	LTP130	ltpFR	14	9	1	WORM	1623	n/a	n/a	1	n/a	n/a	n/a	n/a	n/a
2404.39	n/a	REC_WORD	1202195	wordpools/wasnorm_wordpool.txt	LTP130	ltpFR	14	9	1	WORM	1623	n/a	n/a	1	n/a	n/a	n/a	n/a	n/a
2412.762	n/a	REC_WORD	1206381	wordpools/wasnorm_wordpool.txt	LTP130	ltpFR	14	9	n/a	BUG	187	n/a	n/a	n/a	n/a	n/a	n/a	n/a	n/a
2433.704	n/a	REC_WORD	1216852	wordpools/wasnorm_wordpool.txt	LTP130	ltpFR	14	9	1	DEPUTY	450	n/a	n/a	1	n/a	n/a	n/a	n/a	n/a
2470.22	n/a	WORD	1235110	wordpools/wasnorm_wordpool.txt	LTP130	ltpFR	14	10	1	CHIMNEY	301	n/a	n/a	0	0.57763671875	0.412841796875	1	lower	zerothre.ttf
2474.248	n/a	WORD	1237124	wordpools/wasnorm_wordpool.txt	LTP130	ltpFR	14	10	1	CHIPMUNK	304	n/a	n/a	1	0.57763671875	0.412841796875	1	lower	zerothre.ttf
2478.126	n/a	WORD	1239063	wordpools/wasnorm_wordpool.txt	LTP130	ltpFR	14	10	1	LIVER	833	n/a	n/a	1	0.57763671875	0.412841796875	1	lower	zerothre.ttf
2482.27	n/a	WORD	1241135	wordpools/wasnorm_wordpool.txt	LTP130	ltpFR	14	10	1	KITCHEN	778	n/a	n/a	0	0.57763671875	0.412841796875	1	lower	zerothre.ttf
2486.38	n/a	WORD	1243190	wordpools/wasnorm_wordpool.txt	LTP130	ltpFR	14	10	1	DINNER	468	n/a	n/a	0	0.57763671875	0.412841796875	1	lower	zerothre.ttf
2490.54	n/a	WORD	1245270	wordpools/wasnorm_wordpool.txt	LTP130	ltpFR	14	10	1	SCAPEGOAT	1244	n/a	n/a	1	0.57763671875	0.412841796875	1	lower	zerothre.ttf
2494.6	n/a	WORD	1247300	wordpools/wasnorm_wordpool.txt	LTP130	ltpFR	14	10	1	PORCUPINE	1107	n/a	n/a	1	0.57763671875	0.412841796875	1	lower	zerothre.ttf
2498.428	n/a	WORD	1249214	wordpools/wasnorm_wordpool.txt	LTP130	ltpFR	14	10	1	FIREMAN	569	n/a	n/a	1	0.57763671875	0.412841796875	1	lower	zerothre.ttf
2502.306	n/a	WORD	1251153	wordpools/wasnorm_wordpool.txt	LTP130	ltpFR	14	10	1	UNCLE	1536	n/a	n/a	1	0.57763671875	0.412841796875	1	lower	zerothre.ttf
2506.45	n/a	WORD	1253225	wordpools/wasnorm_wordpool.txt	LTP130	ltpFR	14	10	1	VEHICLE	1553	n/a	n/a	0	0.57763671875	0.412841796875	1	lower	zerothre.ttf
2510.31	n/a	WORD	1255155	wordpools/wasnorm_wordpool.txt	LTP130	ltpFR	14	10	1	FREEWAY	603	n/a	n/a	0	0.57763671875	0.412841796875	1	lower	zerothre.ttf
2514.388	n/a	WORD	1257194	wordpools/wasnorm_wordpool.txt	LTP130	ltpFR	14	10	1	RELATIVE	1182	n/a	n/a	0	0.57763671875	0.412841796875	1	lower	zerothre.ttf
2518.514	n/a	WORD	1259257	wordpools/wasnorm_wordpool.txt	LTP130	ltpFR	14	10	1	UNDERWEAR	1537	n/a	n/a	0	0.57763671875	0.412841796875	1	lower	zerothre.ttf
2522.376	n/a	WORD	1261188	wordpools/wasnorm_wordpool.txt	LTP130	ltpFR	14	10	1	NIGHTGOWN	953	n/a	n/a	0	0.57763671875	0.412841796875	1	lower	zerothre.ttf
2526.37	n/a	WORD	1263185	wordpools/wasnorm_wordpool.txt	LTP130	ltpFR	14	10	1	LOBSTER	837	n/a	n/a	1	0.57763671875	0.412841796875	1	lower	zerothre.ttf
2530.564	n/a	WORD	1265282	wordpools/wasnorm_wordpool.txt	LTP130	ltpFR	14	10	1	FINGER	567	n/a	n/a	0	0.57763671875	0.412841796875	1	lower	zerothre.ttf
2536.34	n/a	REC_START	1268170	n/a	LTP130	ltpFR	14	10	n/a	n/a	n/a	n/a	n/a	n/a	n/a	n/a	n/a	n/a	n/a
2539.494	n/a	REC_WORD	1269747	wordpools/wasnorm_wordpool.txt	LTP130	ltpFR	14	10	1	FINGER	567	n/a	n/a	0	n/a	n/a	n/a	n/a	n/a
2541.01	n/a	REC_WORD	1270505	wordpools/wasnorm_wordpool.txt	LTP130	ltpFR	14	10	1	LOBSTER	837	n/a	n/a	1	n/a	n/a	n/a	n/a	n/a
2542.896	n/a	REC_WORD	1271448	wordpools/wasnorm_wordpool.txt	LTP130	ltpFR	14	10	1	NIGHTGOWN	953	n/a	n/a	0	n/a	n/a	n/a	n/a	n/a
2544.696	n/a	REC_WORD	1272348	wordpools/wasnorm_wordpool.txt	LTP130	ltpFR	14	10	1	UNDERWEAR	1537	n/a	n/a	0	n/a	n/a	n/a	n/a	n/a
2546.612	n/a	REC_WORD	1273306	wordpools/wasnorm_wordpool.txt	LTP130	ltpFR	14	10	1	RELATIVE	1182	n/a	n/a	0	n/a	n/a	n/a	n/a	n/a
2548.602	n/a	REC_WORD	1274301	wordpools/wasnorm_wordpool.txt	LTP130	ltpFR	14	10	1	UNCLE	1536	n/a	n/a	1	n/a	n/a	n/a	n/a	n/a
2550.224	n/a	REC_WORD	1275112	wordpools/wasnorm_wordpool.txt	LTP130	ltpFR	14	10	1	FIREMAN	569	n/a	n/a	1	n/a	n/a	n/a	n/a	n/a
2558.974	n/a	REC_WORD	1279487	wordpools/wasnorm_wordpool.txt	LTP130	ltpFR	14	10	1	LIVER	833	n/a	n/a	1	n/a	n/a	n/a	n/a	n/a
2577.028	n/a	REC_WORD	1288514	wordpools/wasnorm_wordpool.txt	LTP130	ltpFR	14	10	n/a	BRAILLE	-1	n/a	n/a	n/a	n/a	n/a	n/a	n/a	n/a
2632.596	n/a	WORD	1316298	wordpools/wasnorm_wordpool.txt	LTP130	ltpFR	14	11	-1	OUTFIT	988	n/a	n/a	-1	1.0	1.0	1	upper	Verdana.ttf
2636.54	n/a	WORD	1318270	wordpools/wasnorm_wordpool.txt	LTP130	ltpFR	14	11	-1	MUMMY	932	n/a	n/a	-1	1.0	1.0	1	upper	Verdana.ttf
2640.636	n/a	WORD	1320318	wordpools/wasnorm_wordpool.txt	LTP130	ltpFR	14	11	-1	CEMETERY	269	n/a	n/a	-1	1.0	1.0	1	upper	Verdana.ttf
2644.78	n/a	WORD	1322390	wordpools/wasnorm_wordpool.txt	LTP130	ltpFR	14	11	-1	TEMPLE	1448	n/a	n/a	-1	1.0	1.0	1	upper	Verdana.ttf
2648.856	n/a	WORD	1324428	wordpools/wasnorm_wordpool.txt	LTP130	ltpFR	14	11	-1	LAUNDRY	803	n/a	n/a	-1	1.0	1.0	1	upper	Verdana.ttf
2652.966	n/a	WORD	1326483	wordpools/wasnorm_wordpool.txt	LTP130	ltpFR	14	11	-1	CACTUS	215	n/a	n/a	-1	1.0	1.0	1	upper	Verdana.ttf
2657.176	n/a	WORD	1328588	wordpools/wasnorm_wordpool.txt	LTP130	ltpFR	14	11	-1	BIBLE	124	n/a	n/a	-1	1.0	1.0	1	upper	Verdana.ttf
2661.288	n/a	WORD	1330644	wordpools/wasnorm_wordpool.txt	LTP130	ltpFR	14	11	-1	CHIP	303	n/a	n/a	-1	1.0	1.0	1	upper	Verdana.ttf
2665.464	n/a	WORD	1332732	wordpools/wasnorm_wordpool.txt	LTP130	ltpFR	14	11	-1	THREAD	1460	n/a	n/a	-1	1.0	1.0	1	upper	Verdana.ttf
2669.592	n/a	WORD	1334796	wordpools/wasnorm_wordpool.txt	LTP130	ltpFR	14	11	-1	SIDING	1304	n/a	n/a	-1	1.0	1.0	1	upper	Verdana.ttf
2673.586	n/a	WORD	1336793	wordpools/wasnorm_wordpool.txt	LTP130	ltpFR	14	11	-1	SMOG	1330	n/a	n/a	-1	1.0	1.0	1	upper	Verdana.ttf
2677.53	n/a	WORD	1338765	wordpools/wasnorm_wordpool.txt	LTP130	ltpFR	14	11	-1	FINGERNAIL	568	n/a	n/a	-1	1.0	1.0	1	upper	Verdana.ttf
2681.474	n/a	WORD	1340737	wordpools/wasnorm_wordpool.txt	LTP130	ltpFR	14	11	-1	COMB	351	n/a	n/a	-1	1.0	1.0	1	upper	Verdana.ttf
2685.386	n/a	WORD	1342693	wordpools/wasnorm_wordpool.txt	LTP130	ltpFR	14	11	-1	DRYER	503	n/a	n/a	-1	1.0	1.0	1	upper	Verdana.ttf
2689.546	n/a	WORD	1344773	wordpools/wasnorm_wordpool.txt	LTP130	ltpFR	14	11	-1	DRIVEWAY	500	n/a	n/a	-1	1.0	1.0	1	upper	Verdana.ttf
2693.708	n/a	WORD	1346854	wordpools/wasnorm_wordpool.txt	LTP130	ltpFR	14	11	-1	BUS	201	n/a	n/a	-1	1.0	1.0	1	upper	Verdana.ttf
2699.466	n/a	REC_START	1349733	n/a	LTP130	ltpFR	14	11	n/a	n/a	n/a	n/a	n/a	n/a	n/a	n/a	n/a	n/a	n/a
2702.188	n/a	REC_WORD	1351094	wordpools/wasnorm_wordpool.txt	LTP130	ltpFR	14	11	-1	BUS	201	n/a	n/a	-1	n/a	n/a	n/a	n/a	n/a
2703.856	n/a	REC_WORD	1351928	wordpools/wasnorm_wordpool.txt	LTP130	ltpFR	14	11	-1	OUTFIT	988	n/a	n/a	-1	n/a	n/a	n/a	n/a	n/a
2705.116	n/a	REC_WORD	1352558	wordpools/wasnorm_wordpool.txt	LTP130	ltpFR	14	11	-1	MUMMY	932	n/a	n/a	-1	n/a	n/a	n/a	n/a	n/a
2709.008	n/a	REC_WORD	1354504	wordpools/wasnorm_wordpool.txt	LTP130	ltpFR	14	11	-1	TEMPLE	1448	n/a	n/a	-1	n/a	n/a	n/a	n/a	n/a
2711.208	n/a	REC_WORD	1355604	wordpools/wasnorm_wordpool.txt	LTP130	ltpFR	14	11	-1	CACTUS	215	n/a	n/a	-1	n/a	n/a	n/a	n/a	n/a
2713.224	n/a	REC_WORD	1356612	wordpools/wasnorm_wordpool.txt	LTP130	ltpFR	14	11	-1	BIBLE	124	n/a	n/a	-1	n/a	n/a	n/a	n/a	n/a
2786.836	n/a	WORD	1393418	wordpools/wasnorm_wordpool.txt	LTP130	ltpFR	14	12	0	TUB	1514	n/a	n/a	1	0.422607421875	0.5869140625	0	upper	amplitud.ttf
2790.88	n/a	WORD	1395440	wordpools/wasnorm_wordpool.txt	LTP130	ltpFR	14	12	0	BRIDGE	174	n/a	n/a	1	0.422607421875	0.5869140625	0	upper	amplitud.ttf
2794.808	n/a	WORD	1397404	wordpools/wasnorm_wordpool.txt	LTP130	ltpFR	14	12	0	OVEN	991	n/a	n/a	1	0.422607421875	0.5869140625	0	upper	amplitud.ttf
2798.702	n/a	WORD	1399351	wordpools/wasnorm_wordpool.txt	LTP130	ltpFR	14	12	0	RANCH	1166	n/a	n/a	1	0.422607421875	0.5869140625	0	upper	amplitud.ttf
2802.68	n/a	WORD	1401340	wordpools/wasnorm_wordpool.txt	LTP130	ltpFR	14	12	0	NEWSSTAND	949	n/a	n/a	1	0.422607421875	0.5869140625	0	upper	amplitud.ttf
2806.622	n/a	WORD	1403311	wordpools/wasnorm_wordpool.txt	LTP130	ltpFR	14	12	0	EDITORIAL	517	n/a	n/a	0	0.422607421875	0.5869140625	0	upper	amplitud.ttf
2810.6	n/a	WORD	1405300	wordpools/wasnorm_wordpool.txt	LTP130	ltpFR	14	12	0	ROOSTER	1209	n/a	n/a	1	0.422607421875	0.5869140625	0	upper	amplitud.ttf
2814.744	n/a	WORD	1407372	wordpools/wasnorm_wordpool.txt	LTP130	ltpFR	14	12	0	THIGH	1457	n/a	n/a	1	0.422607421875	0.5869140625	0	upper	amplitud.ttf
2818.954	n/a	WORD	1409477	wordpools/wasnorm_wordpool.txt	LTP130	ltpFR	14	12	0	BELLY	119	n/a	n/a	1	0.422607421875	0.5869140625	0	upper	amplitud.ttf
2823.064	n/a	WORD	1411532	wordpools/wasnorm_wordpool.txt	LTP130	ltpFR	14	12	0	SUPPER	1411	n/a	n/a	1	0.422607421875	0.5869140625	0	upper	amplitud.ttf
2827.124	n/a	WORD	1413562	wordpools/wasnorm_wordpool.txt	LTP130	ltpFR	14	12	0	MARGARINE	868	n/a	n/a	0	0.422607421875	0.5869140625	0	upper	amplitud.ttf
2830.952	n/a	WORD	1415476	wordpools/wasnorm_wordpool.txt	LTP130	ltpFR	14	12	0	CONVICT	371	n/a	n/a	1	0.422607421875	0.5869140625	0	upper	amplitud.ttf
2835.08	n/a	WORD	1417540	wordpools/wasnorm_wordpool.txt	LTP130	ltpFR	14	12	0	YOLK	1633	n/a	n/a	0	0.422607421875	0.5869140625	0	upper	amplitud.ttf
2839.024	n/a	WORD	1419512	wordpools/wasnorm_wordpool.txt	LTP130	ltpFR	14	12	0	PONY	1102	n/a	n/a	1	0.422607421875	0.5869140625	0	upper	amplitud.ttf
2842.968	n/a	WORD	1421484	wordpools/wasnorm_wordpool.txt	LTP130	ltpFR	14	12	0	COCKTAIL	338	n/a	n/a	0	0.422607421875	0.5869140625	0	upper	amplitud.ttf
2846.814	n/a	WORD	1423407	wordpools/wasnorm_wordpool.txt	LTP130	ltpFR	14	12	0	GATE	625	n/a	n/a	1	0.422607421875	0.5869140625	0	upper	amplitud.ttf
2852.806	n/a	REC_START	1426403	n/a	LTP130	ltpFR	14	12	n/a	n/a	n/a	n/a	n/a	n/a	n/a	n/a	n/a	n/a	n/a
2854.84	n/a	REC_WORD	1427420	wordpools/wasnorm_wordpool.txt	LTP130	ltpFR	14	12	0	GATE	625	n/a	n/a	1	n/a	n/a	n/a	n/a	n/a
2856.556	n/a	REC_WORD	1428278	wordpools/wasnorm_wordpool.txt	LTP130	ltpFR	14	12	0	COCKTAIL	338	n/a	n/a	0	n/a	n/a	n/a	n/a	n/a
2869.362	n/a	REC_WORD	1434681	wordpools/wasnorm_wordpool.txt	LTP130	ltpFR	14	12	0	RANCH	1166	n/a	n/a	1	n/a	n/a	n/a	n/a	n/a
2873.454	n/a	REC_WORD	1436727	wordpools/wasnorm_wordpool.txt	LTP130	ltpFR	14	12	0	BRIDGE	174	n/a	n/a	1	n/a	n/a	n/a	n/a	n/a
2880.418	n/a	REC_WORD	1440209	wordpools/wasnorm_wordpool.txt	LTP130	ltpFR	14	12	0	TUB	1514	n/a	n/a	1	n/a	n/a	n/a	n/a	n/a
2907.196	n/a	REC_WORD	1453598	wordpools/wasnorm_wordpool.txt	LTP130	ltpFR	14	12	n/a	AUSTRALIA	-1	n/a	n/a	n/a	n/a	n/a	n/a	n/a	n/a
2920.158	n/a	REC_WORD	1460079	wordpools/wasnorm_wordpool.txt	LTP130	ltpFR	14	12	0	NEWSSTAND	949	n/a	n/a	1	n/a	n/a	n/a	n/a	n/a
2922.088	n/a	REC_WORD	1461044	wordpools/wasnorm_wordpool.txt	LTP130	ltpFR	14	12	0	EDITORIAL	517	n/a	n/a	0	n/a	n/a	n/a	n/a	n/a
2928.392	n/a	REST_REWET	1464196	n/a	LTP130	ltpFR	14	12	n/a	n/a	n/a	n/a	n/a	n/a	n/a	n/a	n/a	n/a	n/a
3358.09	n/a	WORD	1679045	wordpools/wasnorm_wordpool.txt	LTP130	ltpFR	14	13	0	COMPASS	358	n/a	n/a	0	0.422607421875	0.5869140625	0	upper	amplitud.ttf
3361.984	n/a	WORD	1680992	wordpools/wasnorm_wordpool.txt	LTP130	ltpFR	14	13	0	AFRICA	9	n/a	n/a	1	0.422607421875	0.5869140625	0	upper	amplitud.ttf
3365.912	n/a	WORD	1682956	wordpools/wasnorm_wordpool.txt	LTP130	ltpFR	14	13	0	TRAY	1498	n/a	n/a	1	0.422607421875	0.5869140625	0	upper	amplitud.ttf
3370.038	n/a	WORD	1685019	wordpools/wasnorm_wordpool.txt	LTP130	ltpFR	14	13	0	PLATE	1086	n/a	n/a	0	0.422607421875	0.5869140625	0	upper	amplitud.ttf
3374.048	n/a	WORD	1687024	wordpools/wasnorm_wordpool.txt	LTP130	ltpFR	14	13	0	VACUUM	1543	n/a	n/a	1	0.422607421875	0.5869140625	0	upper	amplitud.ttf
3378.142	n/a	WORD	1689071	wordpools/wasnorm_wordpool.txt	LTP130	ltpFR	14	13	0	BRANCH	168	n/a	n/a	0	0.422607421875	0.5869140625	0	upper	amplitud.ttf
3382.004	n/a	WORD	1691002	wordpools/wasnorm_wordpool.txt	LTP130	ltpFR	14	13	0	DUST	508	n/a	n/a	0	0.422607421875	0.5869140625	0	upper	amplitud.ttf
3385.948	n/a	WORD	1692974	wordpools/wasnorm_wordpool.txt	LTP130	ltpFR	14	13	0	CAP	236	n/a	n/a	1	0.422607421875	0.5869140625	0	upper	amplitud.ttf
3389.942	n/a	WORD	1694971	wordpools/wasnorm_wordpool.txt	LTP130	ltpFR	14	13	0	UNIVERSE	1540	n/a	n/a	1	0.422607421875	0.5869140625	0	upper	amplitud.ttf
3394.07	n/a	WORD	1697035	wordpools/wasnorm_wordpool.txt	LTP130	ltpFR	14	13	0	METEOR	889	n/a	n/a	1	0.422607421875	0.5869140625	0	upper	amplitud.ttf
3398.196	n/a	WORD	1699098	wordpools/wasnorm_wordpool.txt	LTP130	ltpFR	14	13	0	TURKEY	1520	n/a	n/a	1	0.422607421875	0.5869140625	0	upper	amplitud.ttf
3402.358	n/a	WORD	1701179	wordpools/wasnorm_wordpool.txt	LTP130	ltpFR	14	13	0	CHAIR	274	n/a	n/a	1	0.422607421875	0.5869140625	0	upper	amplitud.ttf
3406.584	n/a	WORD	1703292	wordpools/wasnorm_wordpool.txt	LTP130	ltpFR	14	13	0	MINK	897	n/a	n/a	0	0.422607421875	0.5869140625	0	upper	amplitud.ttf
3410.796	n/a	WORD	1705398	wordpools/wasnorm_wordpool.txt	LTP130	ltpFR	14	13	0	FRIES	607	n/a	n/a	0	0.422607421875	0.5869140625	0	upper	amplitud.ttf
3414.74	n/a	WORD	1707370	wordpools/wasnorm_wordpool.txt	LTP130	ltpFR	14	13	0	DISHWASHER	475	n/a	n/a	1	0.422607421875	0.5869140625	0	upper	amplitud.ttf
3418.9	n/a	WORD	1709450	wordpools/wasnorm_wordpool.txt	LTP130	ltpFR	14	13	0	BENCH	121	n/a	n/a	1	0.422607421875	0.5869140625	0	upper	amplitud.ttf
3424.908	n/a	REC_START	1712454	n/a	LTP130	ltpFR	14	13	n/a	n/a	n/a	n/a	n/a	n/a	n/a	n/a	n/a	n/a	n/a
3427.268	n/a	REC_WORD	1713634	wordpools/wasnorm_wordpool.txt	LTP130	ltpFR	14	13	0	BENCH	121	n/a	n/a	1	n/a	n/a	n/a	n/a	n/a
3429.806	n/a	REC_WORD	1714903	wordpools/wasnorm_wordpool.txt	LTP130	ltpFR	14	13	0	METEOR	889	n/a	n/a	1	n/a	n/a	n/a	n/a	n/a
3436.786	n/a	REC_WORD	1718393	wordpools/wasnorm_wordpool.txt	LTP130	ltpFR	14	13	0	AFRICA	9	n/a	n/a	1	n/a	n/a	n/a	n/a	n/a
3438.222	n/a	REC_WORD	1719111	wordpools/wasnorm_wordpool.txt	LTP130	ltpFR	14	13	0	COMPASS	358	n/a	n/a	0	n/a	n/a	n/a	n/a	n/a
3440.284	n/a	REC_WORD	1720142	wordpools/wasnorm_wordpool.txt	LTP130	ltpFR	14	13	0	TRAY	1498	n/a	n/a	1	n/a	n/a	n/a	n/a	n/a
3446.992	n/a	REC_WORD	1723496	wordpools/wasnorm_wordpool.txt	LTP130	ltpFR	14	13	0	UNIVERSE	1540	n/a	n/a	1	n/a	n/a	n/a	n/a	n/a
3459.232	n/a	REC_WORD	1729616	wordpools/wasnorm_wordpool.txt	LTP130	ltpFR	14	13	0	BRANCH	168	n/a	n/a	0	n/a	n/a	n/a	n/a	n/a
3494.98	n/a	REC_WORD	1747490	wordpools/wasnorm_wordpool.txt	LTP130	ltpFR	14	13	n/a	NUGGET	-1	n/a	n/a	n/a	n/a	n/a	n/a	n/a	n/a
3536.092	n/a	WORD	1768046	wordpools/wasnorm_wordpool.txt	LTP130	ltpFR	14	14	0	LILY	821	n/a	n/a	0	0.422607421875	0.5869140625	0	upper	amplitud.ttf
3540.32	n/a	WORD	1770160	wordpools/wasnorm_wordpool.txt	LTP130	ltpFR	14	14	0	PLAYGROUND	1087	n/a	n/a	1	0.422607421875	0.5869140625	0	upper	amplitud.ttf
3544.148	n/a	WORD	1772074	wordpools/wasnorm_wordpool.txt	LTP130	ltpFR	14	14	0	VICTOR	1563	n/a	n/a	1	0.422607421875	0.5869140625	0	upper	amplitud.ttf
3548.292	n/a	WORD	1774146	wordpools/wasnorm_wordpool.txt	LTP130	ltpFR	14	14	0	EDITOR	516	n/a	n/a	1	0.422607421875	0.5869140625	0	upper	amplitud.ttf
3552.202	n/a	WORD	1776101	wordpools/wasnorm_wordpool.txt	LTP130	ltpFR	14	14	1	FLOWER	584	n/a	n/a	1	0.57763671875	0.412841796875	1	lower	zerothre.ttf
3556.262	n/a	WORD	1778131	wordpools/wasnorm_wordpool.txt	LTP130	ltpFR	14	14	1	AWARD	63	n/a	n/a	0	0.57763671875	0.412841796875	1	lower	zerothre.ttf
3560.14	n/a	WORD	1780070	wordpools/wasnorm_wordpool.txt	LTP130	ltpFR	14	14	1	DOCK	477	n/a	n/a	0	0.57763671875	0.412841796875	1	lower	zerothre.ttf
3564.034	n/a	WORD	1782017	wordpools/wasnorm_wordpool.txt	LTP130	ltpFR	14	14	1	PIER	1063	n/a	n/a	0	0.57763671875	0.412841796875	1	lower	zerothre.ttf
3567.996	n/a	WORD	1783998	wordpools/wasnorm_wordpool.txt	LTP130	ltpFR	14	14	1	RACK	1154	n/a	n/a	0	0.57763671875	0.412841796875	1	lower	zerothre.ttf
3572.19	n/a	WORD	1786095	wordpools/wasnorm_wordpool.txt	LTP130	ltpFR	14	14	0	BIKE	125	n/a	n/a	1	0.422607421875	0.5869140625	0	upper	amplitud.ttf
3576.216	n/a	WORD	1788108	wordpools/wasnorm_wordpool.txt	LTP130	ltpFR	14	14	0	CRUMB	416	n/a	n/a	0	0.422607421875	0.5869140625	0	upper	amplitud.ttf
3580.41	n/a	WORD	1790205	wordpools/wasnorm_wordpool.txt	LTP130	ltpFR	14	14	0	SIRLOIN	1311	n/a	n/a	0	0.422607421875	0.5869140625	0	upper	amplitud.ttf
3584.52	n/a	WORD	1792260	wordpools/wasnorm_wordpool.txt	LTP130	ltpFR	14	14	0	TRIBE	1505	n/a	n/a	1	0.422607421875	0.5869140625	0	upper	amplitud.ttf
3588.432	n/a	WORD	1794216	wordpools/wasnorm_wordpool.txt	LTP130	ltpFR	14	14	1	GULL	671	n/a	n/a	1	0.57763671875	0.412841796875	1	lower	zerothre.ttf
3592.276	n/a	WORD	1796138	wordpools/wasnorm_wordpool.txt	LTP130	ltpFR	14	14	1	SHEET	1279	n/a	n/a	0	0.57763671875	0.412841796875	1	lower	zerothre.ttf
3596.286	n/a	WORD	1798143	wordpools/wasnorm_wordpool.txt	LTP130	ltpFR	14	14	1	FORT	595	n/a	n/a	0	0.57763671875	0.412841796875	1	lower	zerothre.ttf
3602.096	n/a	REC_START	1801048	n/a	LTP130	ltpFR	14	14	n/a	n/a	n/a	n/a	n/a	n/a	n/a	n/a	n/a	n/a	n/a
3604.09	n/a	REC_WORD	1802045	wordpools/wasnorm_wordpool.txt	LTP130	ltpFR	14	14	1	FORT	595	n/a	n/a	0	n/a	n/a	n/a	n/a	n/a
3605.926	n/a	REC_WORD	1802963	wordpools/wasnorm_wordpool.txt	LTP130	ltpFR	14	14	1	GULL	671	n/a	n/a	1	n/a	n/a	n/a	n/a	n/a
3607.912	n/a	REC_WORD	1803956	wordpools/wasnorm_wordpool.txt	LTP130	ltpFR	14	14	0	SIRLOIN	1311	n/a	n/a	0	n/a	n/a	n/a	n/a	n/a
3609.952	n/a	REC_WORD	1804976	wordpools/wasnorm_wordpool.txt	LTP130	ltpFR	14	14	0	TRIBE	1505	n/a	n/a	1	n/a	n/a	n/a	n/a	n/a
3652.348	n/a	REC_WORD	1826174	wordpools/wasnorm_wordpool.txt	LTP130	ltpFR	14	14	n/a	PROSCIUTTO	-1	n/a	n/a	n/a	n/a	n/a	n/a	n/a	n/a
3692.362	n/a	WORD	1846181	wordpools/wasnorm_wordpool.txt	LTP130	ltpFR	14	15	1	CEILING	265	n/a	n/a	0	0.57763671875	0.412841796875	1	lower	zerothre.ttf
3696.356	n/a	WORD	1848178	wordpools/wasnorm_wordpool.txt	LTP130	ltpFR	14	15	1	SOLDIER	1344	n/a	n/a	1	0.57763671875	0.412841796875	1	lower	zerothre.ttf
3700.432	n/a	WORD	1850216	wordpools/wasnorm_wordpool.txt	LTP130	ltpFR	14	15	1	LOCK	838	n/a	n/a	0	0.57763671875	0.412841796875	1	lower	zerothre.ttf
3704.426	n/a	WORD	1852213	wordpools/wasnorm_wordpool.txt	LTP130	ltpFR	14	15	1	MUG	930	n/a	n/a	0	0.57763671875	0.412841796875	1	lower	zerothre.ttf
3708.272	n/a	WORD	1854136	wordpools/wasnorm_wordpool.txt	LTP130	ltpFR	14	15	1	COFFEE	341	n/a	n/a	0	0.57763671875	0.412841796875	1	lower	zerothre.ttf
3712.116	n/a	WORD	1856058	wordpools/wasnorm_wordpool.txt	LTP130	ltpFR	14	15	1	ANIMAL	23	n/a	n/a	1	0.57763671875	0.412841796875	1	lower	zerothre.ttf
3716.042	n/a	WORD	1858021	wordpools/wasnorm_wordpool.txt	LTP130	ltpFR	14	15	1	HORSE	719	n/a	n/a	1	0.57763671875	0.412841796875	1	lower	zerothre.ttf
3720.07	n/a	WORD	1860035	wordpools/wasnorm_wordpool.txt	LTP130	ltpFR	14	15	1	HOSTAGE	722	n/a	n/a	1	0.57763671875	0.412841796875	1	lower	zerothre.ttf
3724.064	n/a	WORD	1862032	wordpools/wasnorm_wordpool.txt	LTP130	ltpFR	14	15	1	MAT	877	n/a	n/a	0	0.57763671875	0.412841796875	1	lower	zerothre.ttf
3728.024	n/a	WORD	1864012	wordpools/wasnorm_wordpool.txt	LTP130	ltpFR	14	15	1	STUMP	1396	n/a	n/a	0	0.57763671875	0.412841796875	1	lower	zerothre.ttf
3732.036	n/a	WORD	1866018	wordpools/wasnorm_wordpool.txt	LTP130	ltpFR	14	15	1	NUCLEUS	961	n/a	n/a	0	0.57763671875	0.412841796875	1	lower	zerothre.ttf
3736.046	n/a	WORD	1868023	wordpools/wasnorm_wordpool.txt	LTP130	ltpFR	14	15	1	MOB	904	n/a	n/a	1	0.57763671875	0.412841796875	1	lower	zerothre.ttf
3740.256	n/a	WORD	1870128	wordpools/wasnorm_wordpool.txt	LTP130	ltpFR	14	15	1	MONASTERY	907	n/a	n/a	0	0.57763671875	0.412841796875	1	lower	zerothre.ttf
3744.102	n/a	WORD	1872051	wordpools/wasnorm_wordpool.txt	LTP130	ltpFR	14	15	1	PASTA	1021	n/a	n/a	0	0.57763671875	0.412841796875	1	lower	zerothre.ttf
3748.096	n/a	WORD	1874048	wordpools/wasnorm_wordpool.txt	LTP130	ltpFR	14	15	1	SPAGHETTI	1346	n/a	n/a	0	0.57763671875	0.412841796875	1	lower	zerothre.ttf
3752.172	n/a	WORD	1876086	wordpools/wasnorm_wordpool.txt	LTP130	ltpFR	14	15	1	GANG	619	n/a	n/a	1	0.57763671875	0.412841796875	1	lower	zerothre.ttf
3758.098	n/a	REC_START	1879049	n/a	LTP130	ltpFR	14	15	n/a	n/a	n/a	n/a	n/a	n/a	n/a	n/a	n/a	n/a	n/a
3759.922	n/a	REC_WORD	1879961	wordpools/wasnorm_wordpool.txt	LTP130	ltpFR	14	15	1	GANG	619	n/a	n/a	1	n/a	n/a	n/a	n/a	n/a
3760.8	n/a	REC_WORD	1880400	wordpools/wasnorm_wordpool.txt	LTP130	ltpFR	14	15	1	MOB	904	n/a	n/a	1	n/a	n/a	n/a	n/a	n/a
3761.69	n/a	REC_WORD	1880845	wordpools/wasnorm_wordpool.txt	LTP130	ltpFR	14	15	1	SPAGHETTI	1346	n/a	n/a	0	n/a	n/a	n/a	n/a	n/a
3788.39	n/a	REC_WORD	1894195	wordpools/wasnorm_wordpool.txt	LTP130	ltpFR	14	15	1	HORSE	719	n/a	n/a	1	n/a	n/a	n/a	n/a	n/a
3789.712	n/a	REC_WORD	1894856	wordpools/wasnorm_wordpool.txt	LTP130	ltpFR	14	15	1	ANIMAL	23	n/a	n/a	1	n/a	n/a	n/a	n/a	n/a
3819.518	n/a	REC_WORD	1909759	wordpools/wasnorm_wordpool.txt	LTP130	ltpFR	14	15	n/a	GAME	-1	n/a	n/a	n/a	n/a	n/a	n/a	n/a	n/a
3889.82	n/a	WORD	1944910	wordpools/wasnorm_wordpool.txt	LTP130	ltpFR	14	16	-1	TOWER	1490	n/a	n/a	-1	1.0	1.0	1	upper	Verdana.ttf
3893.896	n/a	WORD	1946948	wordpools/wasnorm_wordpool.txt	LTP130	ltpFR	14	16	-1	MECHANIC	884	n/a	n/a	-1	1.0	1.0	1	upper	Verdana.ttf
3898.106	n/a	WORD	1949053	wordpools/wasnorm_wordpool.txt	LTP130	ltpFR	14	16	-1	WHEEL	1603	n/a	n/a	-1	1.0	1.0	1	upper	Verdana.ttf
3902.05	n/a	WORD	1951025	wordpools/wasnorm_wordpool.txt	LTP130	ltpFR	14	16	-1	BUTTON	207	n/a	n/a	-1	1.0	1.0	1	upper	Verdana.ttf
3905.928	n/a	WORD	1952964	wordpools/wasnorm_wordpool.txt	LTP130	ltpFR	14	16	-1	LACE	792	n/a	n/a	-1	1.0	1.0	1	upper	Verdana.ttf
3909.824	n/a	WORD	1954912	wordpools/wasnorm_wordpool.txt	LTP130	ltpFR	14	16	-1	SCROLL	1257	n/a	n/a	-1	1.0	1.0	1	upper	Verdana.ttf
3914.032	n/a	WORD	1957016	wordpools/wasnorm_wordpool.txt	LTP130	ltpFR	14	16	-1	MONUMENT	913	n/a	n/a	-1	1.0	1.0	1	upper	Verdana.ttf
3918.242	n/a	WORD	1959121	wordpools/wasnorm_wordpool.txt	LTP130	ltpFR	14	16	-1	HINGE	709	n/a	n/a	-1	1.0	1.0	1	upper	Verdana.ttf
3922.372	n/a	WORD	1961186	wordpools/wasnorm_wordpool.txt	LTP130	ltpFR	14	16	-1	CAR	241	n/a	n/a	-1	1.0	1.0	1	upper	Verdana.ttf
3926.298	n/a	WORD	1963149	wordpools/wasnorm_wordpool.txt	LTP130	ltpFR	14	16	-1	RUST	1219	n/a	n/a	-1	1.0	1.0	1	upper	Verdana.ttf
3930.126	n/a	WORD	1965063	wordpools/wasnorm_wordpool.txt	LTP130	ltpFR	14	16	-1	KEY	773	n/a	n/a	-1	1.0	1.0	1	upper	Verdana.ttf
3934.02	n/a	WORD	1967010	wordpools/wasnorm_wordpool.txt	LTP130	ltpFR	14	16	-1	RIVER	1194	n/a	n/a	-1	1.0	1.0	1	upper	Verdana.ttf
3938.164	n/a	WORD	1969082	wordpools/wasnorm_wordpool.txt	LTP130	ltpFR	14	16	-1	QUILL	1150	n/a	n/a	-1	1.0	1.0	1	upper	Verdana.ttf
3942.208	n/a	WORD	1971104	wordpools/wasnorm_wordpool.txt	LTP130	ltpFR	14	16	-1	MOUSE	925	n/a	n/a	-1	1.0	1.0	1	upper	Verdana.ttf
3946.352	n/a	WORD	1973176	wordpools/wasnorm_wordpool.txt	LTP130	ltpFR	14	16	-1	PEDAL	1037	n/a	n/a	-1	1.0	1.0	1	upper	Verdana.ttf
3950.48	n/a	WORD	1975240	wordpools/wasnorm_wordpool.txt	LTP130	ltpFR	14	16	-1	NEST	945	n/a	n/a	-1	1.0	1.0	1	upper	Verdana.ttf
3956.304	n/a	REC_START	1978152	n/a	LTP130	ltpFR	14	16	n/a	n/a	n/a	n/a	n/a	n/a	n/a	n/a	n/a	n/a	n/a
3958.06	n/a	REC_WORD	1979030	wordpools/wasnorm_wordpool.txt	LTP130	ltpFR	14	16	-1	NEST	945	n/a	n/a	-1	n/a	n/a	n/a	n/a	n/a
3960.474	n/a	REC_WORD	1980237	wordpools/wasnorm_wordpool.txt	LTP130	ltpFR	14	16	-1	PEDAL	1037	n/a	n/a	-1	n/a	n/a	n/a	n/a	n/a
3961.926	n/a	REC_WORD	1980963	wordpools/wasnorm_wordpool.txt	LTP130	ltpFR	14	16	-1	QUILL	1150	n/a	n/a	-1	n/a	n/a	n/a	n/a	n/a
3969.346	n/a	REC_WORD	1984673	wordpools/wasnorm_wordpool.txt	LTP130	ltpFR	14	16	-1	BUTTON	207	n/a	n/a	-1	n/a	n/a	n/a	n/a	n/a
3994.726	n/a	REC_WORD	1997363	wordpools/wasnorm_wordpool.txt	LTP130	ltpFR	14	16	-1	KEY	773	n/a	n/a	-1	n/a	n/a	n/a	n/a	n/a
4065.81	n/a	REC_START	2032905	n/a	LTP130	ltpFR	14	1	n/a	n/a	n/a	n/a	n/a	n/a	n/a	n/a	n/a	n/a	n/a
4065.842	n/a	RECOG_TARGET	2032921	n/a	LTP130	ltpFR	14	1	-1	NEST	945	0	1	-1	n/a	n/a	n/a	n/a	n/a
4105.142	n/a	RECOG_RESP	2052571	n/a	LTP130	ltpFR	14	1	-1	NEST	945	0	n/a	-1	n/a	n/a	n/a	n/a	n/a
4106.714	n/a	RECOG_CONF	2053357	n/a	LTP130	ltpFR	14	1	-1	NEST	945	n/a	1	-1	n/a	n/a	n/a	n/a	n/a
4109.494	n/a	RECOG_TARGET	2054747	n/a	LTP130	ltpFR	14	1	0	METEOR	889	1	4	1	n/a	n/a	n/a	n/a	n/a
4111.212	n/a	RECOG_RESP	2055606	n/a	LTP130	ltpFR	14	1	0	METEOR	889	1	n/a	1	n/a	n/a	n/a	n/a	n/a
4113.382	n/a	RECOG_CONF	2056691	n/a	LTP130	ltpFR	14	1	0	METEOR	889	n/a	4	1	n/a	n/a	n/a	n/a	n/a
4115.334	n/a	RECOG_TARGET	2057667	n/a	LTP130	ltpFR	14	1	1	SWATTER	1418	1	5	0	n/a	n/a	n/a	n/a	n/a
4116.218	n/a	RECOG_RESP	2058109	n/a	LTP130	ltpFR	14	1	1	SWATTER	1418	1	n/a	0	n/a	n/a	n/a	n/a	n/a
4117.502	n/a	RECOG_CONF	2058751	n/a	LTP130	ltpFR	14	1	1	SWATTER	1418	n/a	5	0	n/a	n/a	n/a	n/a	n/a
4119.496	n/a	RECOG_TARGET	2059748	n/a	LTP130	ltpFR	14	1	0	THIGH	1457	1	5	1	n/a	n/a	n/a	n/a	n/a
4120.352	n/a	RECOG_RESP	2060176	n/a	LTP130	ltpFR	14	1	0	THIGH	1457	1	n/a	1	n/a	n/a	n/a	n/a	n/a
4121.43	n/a	RECOG_CONF	2060715	n/a	LTP130	ltpFR	14	1	0	THIGH	1457	n/a	5	1	n/a	n/a	n/a	n/a	n/a
4123.274	n/a	RECOG_TARGET	2061637	n/a	LTP130	ltpFR	14	1	0	CARDINAL	244	1	5	0	n/a	n/a	n/a	n/a	n/a
4124.048	n/a	RECOG_RESP	2062024	n/a	LTP130	ltpFR	14	1	0	CARDINAL	244	1	n/a	0	n/a	n/a	n/a	n/a	n/a
4125.06	n/a	RECOG_CONF	2062530	n/a	LTP130	ltpFR	14	1	0	CARDINAL	244	n/a	5	0	n/a	n/a	n/a	n/a	n/a
4126.936	n/a	RECOG_TARGET	2063468	n/a	LTP130	ltpFR	14	1	0	BUTTER	205	1	2	0	n/a	n/a	n/a	n/a	n/a
4133.662	n/a	RECOG_RESP	2066831	n/a	LTP130	ltpFR	14	1	0	BUTTER	205	1	n/a	0	n/a	n/a	n/a	n/a	n/a
4135.622	n/a	RECOG_CONF	2067811	n/a	LTP130	ltpFR	14	1	0	BUTTER	205	n/a	2	0	n/a	n/a	n/a	n/a	n/a
4137.602	n/a	RECOG_TARGET	2068801	n/a	LTP130	ltpFR	14	1	0	COMPASS	358	1	5	0	n/a	n/a	n/a	n/a	n/a
4138.708	n/a	RECOG_RESP	2069354	n/a	LTP130	ltpFR	14	1	0	COMPASS	358	1	n/a	0	n/a	n/a	n/a	n/a	n/a
4139.942	n/a	RECOG_CONF	2069971	n/a	LTP130	ltpFR	14	1	0	COMPASS	358	n/a	5	0	n/a	n/a	n/a	n/a	n/a
4141.664	n/a	RECOG_TARGET	2070832	n/a	LTP130	ltpFR	14	1	-1	RUST	1219	1	5	-1	n/a	n/a	n/a	n/a	n/a
4142.446	n/a	RECOG_RESP	2071223	n/a	LTP130	ltpFR	14	1	-1	RUST	1219	1	n/a	-1	n/a	n/a	n/a	n/a	n/a
4143.604	n/a	RECOG_CONF	2071802	n/a	LTP130	ltpFR	14	1	-1	RUST	1219	n/a	5	-1	n/a	n/a	n/a	n/a	n/a
4145.64	n/a	RECOG_TARGET	2072820	n/a	LTP130	ltpFR	14	1	1	RACK	1154	1	5	0	n/a	n/a	n/a	n/a	n/a
4146.374	n/a	RECOG_RESP	2073187	n/a	LTP130	ltpFR	14	1	1	RACK	1154	1	n/a	0	n/a	n/a	n/a	n/a	n/a
4147.54	n/a	RECOG_CONF	2073770	n/a	LTP130	ltpFR	14	1	1	RACK	1154	n/a	5	0	n/a	n/a	n/a	n/a	n/a
4149.234	n/a	RECOG_LURE	2074617	n/a	LTP130	ltpFR	14	1	n/a	LUGGAGE	847	0	3	n/a	n/a	n/a	n/a	n/a	n/a
4150.614	n/a	RECOG_RESP	2075307	n/a	LTP130	ltpFR	14	1	n/a	LUGGAGE	847	0	n/a	n/a	n/a	n/a	n/a	n/a	n/a
4152.048	n/a	RECOG_CONF	2076024	n/a	LTP130	ltpFR	14	1	n/a	LUGGAGE	847	n/a	3	n/a	n/a	n/a	n/a	n/a	n/a
4153.896	n/a	RECOG_TARGET	2076948	n/a	LTP130	ltpFR	14	1	0	STRAW	1390	1	5	0	n/a	n/a	n/a	n/a	n/a
4154.7	n/a	RECOG_RESP	2077350	n/a	LTP130	ltpFR	14	1	0	STRAW	1390	1	n/a	0	n/a	n/a	n/a	n/a	n/a
4156.22	n/a	RECOG_CONF	2078110	n/a	LTP130	ltpFR	14	1	0	STRAW	1390	n/a	5	0	n/a	n/a	n/a	n/a	n/a
4158.056	n/a	RECOG_TARGET	2079028	n/a	LTP130	ltpFR	14	1	-1	SMOG	1330	0	2	-1	n/a	n/a	n/a	n/a	n/a
4169.012	n/a	RECOG_RESP	2084506	n/a	LTP130	ltpFR	14	1	-1	SMOG	1330	0	n/a	-1	n/a	n/a	n/a	n/a	n/a
4170.566	n/a	RECOG_CONF	2085283	n/a	LTP130	ltpFR	14	1	-1	SMOG	1330	n/a	2	-1	n/a	n/a	n/a	n/a	n/a
4172.534	n/a	RECOG_TARGET	2086267	n/a	LTP130	ltpFR	14	1	1	ARTIST	43	1	3	0	n/a	n/a	n/a	n/a	n/a
4174.226	n/a	RECOG_RESP	2087113	n/a	LTP130	ltpFR	14	1	1	ARTIST	43	1	n/a	0	n/a	n/a	n/a	n/a	n/a
4175.422	n/a	RECOG_CONF	2087711	n/a	LTP130	ltpFR	14	1	1	ARTIST	43	n/a	3	0	n/a	n/a	n/a	n/a	n/a
4177.426	n/a	RECOG_TARGET	2088713	n/a	LTP130	ltpFR	14	1	1	POSSUM	1112	1	3	1	n/a	n/a	n/a	n/a	n/a
4179.508	n/a	RECOG_RESP	2089754	n/a	LTP130	ltpFR	14	1	1	POSSUM	1112	1	n/a	1	n/a	n/a	n/a	n/a	n/a
4181.316	n/a	RECOG_CONF	2090658	n/a	LTP130	ltpFR	14	1	1	POSSUM	1112	n/a	3	1	n/a	n/a	n/a	n/a	n/a
4183.268	n/a	RECOG_TARGET	2091634	n/a	LTP130	ltpFR	14	1	1	UNDERWEAR	1537	1	5	0	n/a	n/a	n/a	n/a	n/a
4184.008	n/a	RECOG_RESP	2092004	n/a	LTP130	ltpFR	14	1	1	UNDERWEAR	1537	1	n/a	0	n/a	n/a	n/a	n/a	n/a
4185.346	n/a	RECOG_CONF	2092673	n/a	LTP130	ltpFR	14	1	1	UNDERWEAR	1537	n/a	5	0	n/a	n/a	n/a	n/a	n/a
4187.178	n/a	RECOG_TARGET	2093589	n/a	LTP130	ltpFR	14	1	1	SKETCH	1315	1	5	0	n/a	n/a	n/a	n/a	n/a
4188.32	n/a	RECOG_RESP	2094160	n/a	LTP130	ltpFR	14	1	1	SKETCH	1315	1	n/a	0	n/a	n/a	n/a	n/a	n/a
4189.372	n/a	RECOG_CONF	2094686	n/a	LTP130	ltpFR	14	1	1	SKETCH	1315	n/a	5	0	n/a	n/a	n/a	n/a	n/a
4191.206	n/a	RECOG_TARGET	2095603	n/a	LTP130	ltpFR	14	1	-1	LUNG	850	1	5	-1	n/a	n/a	n/a	n/a	n/a
4191.972	n/a	RECOG_RESP	2095986	n/a	LTP130	ltpFR	14	1	-1	LUNG	850	1	n/a	-1	n/a	n/a	n/a	n/a	n/a
4192.994	n/a	RECOG_CONF	2096497	n/a	LTP130	ltpFR	14	1	-1	LUNG	850	n/a	5	-1	n/a	n/a	n/a	n/a	n/a
4194.934	n/a	RECOG_TARGET	2097467	n/a	LTP130	ltpFR	14	1	0	DISHWASHER	475	1	3	1	n/a	n/a	n/a	n/a	n/a
4196.552	n/a	RECOG_RESP	2098276	n/a	LTP130	ltpFR	14	1	0	DISHWASHER	475	1	n/a	1	n/a	n/a	n/a	n/a	n/a
4198.472	n/a	RECOG_CONF	2099236	n/a	LTP130	ltpFR	14	1	0	DISHWASHER	475	n/a	3	1	n/a	n/a	n/a	n/a	n/a
4200.26	n/a	RECOG_TARGET	2100130	n/a	LTP130	ltpFR	14	1	1	TWIG	1527	1	4	0	n/a	n/a	n/a	n/a	n/a
4201.028	n/a	RECOG_RESP	2100514	n/a	LTP130	ltpFR	14	1	1	TWIG	1527	1	n/a	0	n/a	n/a	n/a	n/a	n/a
4202.55	n/a	RECOG_CONF	2101275	n/a	LTP130	ltpFR	14	1	1	TWIG	1527	n/a	4	0	n/a	n/a	n/a	n/a	n/a
4204.37	n/a	RECOG_LURE	2102185	n/a	LTP130	ltpFR	14	1	n/a	TAVERN	1437	0	4	n/a	n/a	n/a	n/a	n/a	n/a
4205.548	n/a	RECOG_RESP	2102774	n/a	LTP130	ltpFR	14	1	n/a	TAVERN	1437	0	n/a	n/a	n/a	n/a	n/a	n/a	n/a
4207.764	n/a	RECOG_CONF	2103882	n/a	LTP130	ltpFR	14	1	n/a	TAVERN	1437	n/a	4	n/a	n/a	n/a	n/a	n/a	n/a
4222.548	n/a	REC_START	2111274	n/a	LTP130	ltpFR	14	2	n/a	n/a	n/a	n/a	n/a	n/a	n/a	n/a	n/a	n/a	n/a
4222.576	n/a	RECOG_TARGET	2111288	n/a	LTP130	ltpFR	14	2	0	DOLL	481	1	5	0	n/a	n/a	n/a	n/a	n/a
4223.414	n/a	RECOG_RESP	2111707	n/a	LTP130	ltpFR	14	2	0	DOLL	481	1	n/a	0	n/a	n/a	n/a	n/a	n/a
4224.814	n/a	RECOG_CONF	2112407	n/a	LTP130	ltpFR	14	2	0	DOLL	481	n/a	5	0	n/a	n/a	n/a	n/a	n/a
4226.688	n/a	RECOG_TARGET	2113344	n/a	LTP130	ltpFR	14	2	1	COFFEE	341	1	5	0	n/a	n/a	n/a	n/a	n/a
4227.494	n/a	RECOG_RESP	2113747	n/a	LTP130	ltpFR	14	2	1	COFFEE	341	1	n/a	0	n/a	n/a	n/a	n/a	n/a
4228.88	n/a	RECOG_CONF	2114440	n/a	LTP130	ltpFR	14	2	1	COFFEE	341	n/a	5	0	n/a	n/a	n/a	n/a	n/a
4230.732	n/a	RECOG_TARGET	2115366	n/a	LTP130	ltpFR	14	2	0	FAUCET	555	1	5	0	n/a	n/a	n/a	n/a	n/a
4231.512	n/a	RECOG_RESP	2115756	n/a	LTP130	ltpFR	14	2	0	FAUCET	555	1	n/a	0	n/a	n/a	n/a	n/a	n/a
4232.62	n/a	RECOG_CONF	2116310	n/a	LTP130	ltpFR	14	2	0	FAUCET	555	n/a	5	0	n/a	n/a	n/a	n/a	n/a
4234.46	n/a	RECOG_LURE	2117230	n/a	LTP130	ltpFR	14	2	n/a	EGG	518	0	4	n/a	n/a	n/a	n/a	n/a	n/a
4236.258	n/a	RECOG_RESP	2118129	n/a	LTP130	ltpFR	14	2	n/a	EGG	518	0	n/a	n/a	n/a	n/a	n/a	n/a	n/a
4238.096	n/a	RECOG_CONF	2119048	n/a	LTP130	ltpFR	14	2	n/a	EGG	518	n/a	4	n/a	n/a	n/a	n/a	n/a	n/a
4239.902	n/a	RECOG_TARGET	2119951	n/a	LTP130	ltpFR	14	2	0	ALLIGATOR	16	0	2	1	n/a	n/a	n/a	n/a	n/a
4244.778	n/a	RECOG_RESP	2122389	n/a	LTP130	ltpFR	14	2	0	ALLIGATOR	16	0	n/a	1	n/a	n/a	n/a	n/a	n/a
4246.218	n/a	RECOG_CONF	2123109	n/a	LTP130	ltpFR	14	2	0	ALLIGATOR	16	n/a	2	1	n/a	n/a	n/a	n/a	n/a
4248.106	n/a	RECOG_LURE	2124053	n/a	LTP130	ltpFR	14	2	n/a	SHRIMP	1297	0	3	n/a	n/a	n/a	n/a	n/a	n/a
4250.6	n/a	RECOG_RESP	2125300	n/a	LTP130	ltpFR	14	2	n/a	SHRIMP	1297	0	n/a	n/a	n/a	n/a	n/a	n/a	n/a
4252.052	n/a	RECOG_CONF	2126026	n/a	LTP130	ltpFR	14	2	n/a	SHRIMP	1297	n/a	3	n/a	n/a	n/a	n/a	n/a	n/a
4253.964	n/a	RECOG_TARGET	2126982	n/a	LTP130	ltpFR	14	2	1	COWBOY	395	1	5	1	n/a	n/a	n/a	n/a	n/a
4254.776	n/a	RECOG_RESP	2127388	n/a	LTP130	ltpFR	14	2	1	COWBOY	395	1	n/a	1	n/a	n/a	n/a	n/a	n/a
4255.882	n/a	RECOG_CONF	2127941	n/a	LTP130	ltpFR	14	2	1	COWBOY	395	n/a	5	1	n/a	n/a	n/a	n/a	n/a
4257.758	n/a	RECOG_TARGET	2128879	n/a	LTP130	ltpFR	14	2	0	GOO	648	1	5	0	n/a	n/a	n/a	n/a	n/a
4258.654	n/a	RECOG_RESP	2129327	n/a	LTP130	ltpFR	14	2	0	GOO	648	1	n/a	0	n/a	n/a	n/a	n/a	n/a
4260.848	n/a	RECOG_CONF	2130424	n/a	LTP130	ltpFR	14	2	0	GOO	648	n/a	5	0	n/a	n/a	n/a	n/a	n/a
4262.802	n/a	RECOG_LURE	2131401	n/a	LTP130	ltpFR	14	2	n/a	GAVEL	627	0	1	n/a	n/a	n/a	n/a	n/a	n/a
4267.292	n/a	RECOG_RESP	2133646	n/a	LTP130	ltpFR	14	2	n/a	GAVEL	627	0	n/a	n/a	n/a	n/a	n/a	n/a	n/a
4269.906	n/a	RECOG_CONF	2134953	n/a	LTP130	ltpFR	14	2	n/a	GAVEL	627	n/a	1	n/a	n/a	n/a	n/a	n/a	n/a
4271.854	n/a	RECOG_LURE	2135927	n/a	LTP130	ltpFR	14	2	n/a	ERASER	538	0	3	n/a	n/a	n/a	n/a	n/a	n/a
4278.402	n/a	RECOG_RESP	2139201	n/a	LTP130	ltpFR	14	2	n/a	ERASER	538	0	n/a	n/a	n/a	n/a	n/a	n/a	n/a
4280.06	n/a	RECOG_CONF	2140030	n/a	LTP130	ltpFR	14	2	n/a	ERASER	538	n/a	3	n/a	n/a	n/a	n/a	n/a	n/a
4282.038	n/a	RECOG_LURE	2141019	n/a	LTP130	ltpFR	14	2	n/a	CONTAINER	366	1	2	n/a	n/a	n/a	n/a	n/a	n/a
4288.386	n/a	RECOG_RESP	2144193	n/a	LTP130	ltpFR	14	2	n/a	CONTAINER	366	1	n/a	n/a	n/a	n/a	n/a	n/a	n/a
4289.934	n/a	RECOG_CONF	2144967	n/a	LTP130	ltpFR	14	2	n/a	CONTAINER	366	n/a	2	n/a	n/a	n/a	n/a	n/a	n/a
4291.908	n/a	RECOG_TARGET	2145954	n/a	LTP130	ltpFR	14	2	0	FRIES	607	1	5	0	n/a	n/a	n/a	n/a	n/a
4296.628	n/a	RECOG_RESP	2148314	n/a	LTP130	ltpFR	14	2	0	FRIES	607	1	n/a	0	n/a	n/a	n/a	n/a	n/a
4298.742	n/a	RECOG_CONF	2149371	n/a	LTP130	ltpFR	14	2	0	FRIES	607	n/a	5	0	n/a	n/a	n/a	n/a	n/a
4300.96	n/a	RECOG_LURE	2150480	n/a	LTP130	ltpFR	14	2	n/a	PAPER	1011	0	2	n/a	n/a	n/a	n/a	n/a	n/a
4307.51	n/a	RECOG_RESP	2153755	n/a	LTP130	ltpFR	14	2	n/a	PAPER	1011	0	n/a	n/a	n/a	n/a	n/a	n/a	n/a
4310.698	n/a	RECOG_CONF	2155349	n/a	LTP130	ltpFR	14	2	n/a	PAPER	1011	n/a	2	n/a	n/a	n/a	n/a	n/a	n/a
4312.644	n/a	RECOG_TARGET	2156322	n/a	LTP130	ltpFR	14	2	0	ICEBERG	731	1	5	1	n/a	n/a	n/a	n/a	n/a
4315.84	n/a	RECOG_RESP	2157920	n/a	LTP130	ltpFR	14	2	0	ICEBERG	731	1	n/a	1	n/a	n/a	n/a	n/a	n/a
4316.99	n/a	RECOG_CONF	2158495	n/a	LTP130	ltpFR	14	2	0	ICEBERG	731	n/a	5	1	n/a	n/a	n/a	n/a	n/a
4318.702	n/a	RECOG_LURE	2159351	n/a	LTP130	ltpFR	14	2	n/a	CAB	209	0	4	n/a	n/a	n/a	n/a	n/a	n/a
4320.024	n/a	RECOG_RESP	2160012	n/a	LTP130	ltpFR	14	2	n/a	CAB	209	0	n/a	n/a	n/a	n/a	n/a	n/a	n/a
4321.072	n/a	RECOG_CONF	2160536	n/a	LTP130	ltpFR	14	2	n/a	CAB	209	n/a	4	n/a	n/a	n/a	n/a	n/a	n/a
4322.73	n/a	RECOG_TARGET	2161365	n/a	LTP130	ltpFR	14	2	1	ROOMMATE	1207	1	5	1	n/a	n/a	n/a	n/a	n/a
4323.616	n/a	RECOG_RESP	2161808	n/a	LTP130	ltpFR	14	2	1	ROOMMATE	1207	1	n/a	1	n/a	n/a	n/a	n/a	n/a
4324.562	n/a	RECOG_CONF	2162281	n/a	LTP130	ltpFR	14	2	1	ROOMMATE	1207	n/a	5	1	n/a	n/a	n/a	n/a	n/a
4326.34	n/a	RECOG_TARGET	2163170	n/a	LTP130	ltpFR	14	2	1	CORAL	378	1	5	1	n/a	n/a	n/a	n/a	n/a
4327.654	n/a	RECOG_RESP	2163827	n/a	LTP130	ltpFR	14	2	1	CORAL	378	1	n/a	1	n/a	n/a	n/a	n/a	n/a
4328.674	n/a	RECOG_CONF	2164337	n/a	LTP130	ltpFR	14	2	1	CORAL	378	n/a	5	1	n/a	n/a	n/a	n/a	n/a
4330.7	n/a	RECOG_TARGET	2165350	n/a	LTP130	ltpFR	14	2	1	CHIPMUNK	304	1	5	1	n/a	n/a	n/a	n/a	n/a
4331.494	n/a	RECOG_RESP	2165747	n/a	LTP130	ltpFR	14	2	1	CHIPMUNK	304	1	n/a	1	n/a	n/a	n/a	n/a	n/a
4332.54	n/a	RECOG_CONF	2166270	n/a	LTP130	ltpFR	14	2	1	CHIPMUNK	304	n/a	5	1	n/a	n/a	n/a	n/a	n/a
4334.328	n/a	RECOG_TARGET	2167164	n/a	LTP130	ltpFR	14	2	-1	SAP	1233	1	4	-1	n/a	n/a	n/a	n/a	n/a
4335.322	n/a	RECOG_RESP	2167661	n/a	LTP130	ltpFR	14	2	-1	SAP	1233	1	n/a	-1	n/a	n/a	n/a	n/a	n/a
4336.39	n/a	RECOG_CONF	2168195	n/a	LTP130	ltpFR	14	2	-1	SAP	1233	n/a	4	-1	n/a	n/a	n/a	n/a	n/a
4338.338	n/a	RECOG_TARGET	2169169	n/a	LTP130	ltpFR	14	2	0	RANCH	1166	1	5	1	n/a	n/a	n/a	n/a	n/a
4341.11	n/a	RECOG_RESP	2170555	n/a	LTP130	ltpFR	14	2	0	RANCH	1166	1	n/a	1	n/a	n/a	n/a	n/a	n/a
4342.11	n/a	RECOG_CONF	2171055	n/a	LTP130	ltpFR	14	2	0	RANCH	1166	n/a	5	1	n/a	n/a	n/a	n/a	n/a
4372.582	n/a	REC_START	2186291	n/a	LTP130	ltpFR	14	3	n/a	n/a	n/a	n/a	n/a	n/a	n/a	n/a	n/a	n/a	n/a
4372.62	n/a	RECOG_TARGET	2186310	n/a	LTP130	ltpFR	14	3	1	CONCERT	360	1	5	0	n/a	n/a	n/a	n/a	n/a
4375.002	n/a	RECOG_RESP	2187501	n/a	LTP130	ltpFR	14	3	1	CONCERT	360	1	n/a	0	n/a	n/a	n/a	n/a	n/a
4376.126	n/a	RECOG_CONF	2188063	n/a	LTP130	ltpFR	14	3	1	CONCERT	360	n/a	5	0	n/a	n/a	n/a	n/a	n/a
4377.98	n/a	RECOG_TARGET	2188990	n/a	LTP130	ltpFR	14	3	0	CAP	236	1	3	1	n/a	n/a	n/a	n/a	n/a
4380.184	n/a	RECOG_RESP	2190092	n/a	LTP130	ltpFR	14	3	0	CAP	236	1	n/a	1	n/a	n/a	n/a	n/a	n/a
4381.466	n/a	RECOG_CONF	2190733	n/a	LTP130	ltpFR	14	3	0	CAP	236	n/a	3	1	n/a	n/a	n/a	n/a	n/a
4383.472	n/a	RECOG_TARGET	2191736	n/a	LTP130	ltpFR	14	3	0	CHEST	295	1	5	1	n/a	n/a	n/a	n/a	n/a
4387.126	n/a	RECOG_RESP	2193563	n/a	LTP130	ltpFR	14	3	0	CHEST	295	1	n/a	1	n/a	n/a	n/a	n/a	n/a
4388.126	n/a	RECOG_CONF	2194063	n/a	LTP130	ltpFR	14	3	0	CHEST	295	n/a	5	1	n/a	n/a	n/a	n/a	n/a
4390.028	n/a	RECOG_TARGET	2195014	n/a	LTP130	ltpFR	14	3	0	MULE	931	1	5	1	n/a	n/a	n/a	n/a	n/a
4390.796	n/a	RECOG_RESP	2195398	n/a	LTP130	ltpFR	14	3	0	MULE	931	1	n/a	1	n/a	n/a	n/a	n/a	n/a
4391.89	n/a	RECOG_CONF	2195945	n/a	LTP130	ltpFR	14	3	0	MULE	931	n/a	5	1	n/a	n/a	n/a	n/a	n/a
4393.708	n/a	RECOG_TARGET	2196854	n/a	LTP130	ltpFR	14	3	0	COUNTRY	388	1	5	1	n/a	n/a	n/a	n/a	n/a
4394.726	n/a	RECOG_RESP	2197363	n/a	LTP130	ltpFR	14	3	0	COUNTRY	388	1	n/a	1	n/a	n/a	n/a	n/a	n/a
4395.724	n/a	RECOG_CONF	2197862	n/a	LTP130	ltpFR	14	3	0	COUNTRY	388	n/a	5	1	n/a	n/a	n/a	n/a	n/a
4397.568	n/a	RECOG_LURE	2198784	n/a	LTP130	ltpFR	14	3	n/a	CRAB	397	0	4	n/a	n/a	n/a	n/a	n/a	n/a
4399.078	n/a	RECOG_RESP	2199539	n/a	LTP130	ltpFR	14	3	n/a	CRAB	397	0	n/a	n/a	n/a	n/a	n/a	n/a	n/a
4401.138	n/a	RECOG_CONF	2200569	n/a	LTP130	ltpFR	14	3	n/a	CRAB	397	n/a	4	n/a	n/a	n/a	n/a	n/a	n/a
4402.76	n/a	RECOG_TARGET	2201380	n/a	LTP130	ltpFR	14	3	1	BRAN	167	1	5	0	n/a	n/a	n/a	n/a	n/a
4403.584	n/a	RECOG_RESP	2201792	n/a	LTP130	ltpFR	14	3	1	BRAN	167	1	n/a	0	n/a	n/a	n/a	n/a	n/a
4404.634	n/a	RECOG_CONF	2202317	n/a	LTP130	ltpFR	14	3	1	BRAN	167	n/a	5	0	n/a	n/a	n/a	n/a	n/a
4406.354	n/a	RECOG_TARGET	2203177	n/a	LTP130	ltpFR	14	3	-1	OUTFIT	988	1	5	-1	n/a	n/a	n/a	n/a	n/a
4407.136	n/a	RECOG_RESP	2203568	n/a	LTP130	ltpFR	14	3	-1	OUTFIT	988	1	n/a	-1	n/a	n/a	n/a	n/a	n/a
4408.416	n/a	RECOG_CONF	2204208	n/a	LTP130	ltpFR	14	3	-1	OUTFIT	988	n/a	5	-1	n/a	n/a	n/a	n/a	n/a
4410.148	n/a	RECOG_TARGET	2205074	n/a	LTP130	ltpFR	14	3	1	NUCLEUS	961	0	4	0	n/a	n/a	n/a	n/a	n/a
4411.168	n/a	RECOG_RESP	2205584	n/a	LTP130	ltpFR	14	3	1	NUCLEUS	961	0	n/a	0	n/a	n/a	n/a	n/a	n/a
4412.428	n/a	RECOG_CONF	2206214	n/a	LTP130	ltpFR	14	3	1	NUCLEUS	961	n/a	4	0	n/a	n/a	n/a	n/a	n/a
4414.142	n/a	RECOG_TARGET	2207071	n/a	LTP130	ltpFR	14	3	0	OVEN	991	1	5	1	n/a	n/a	n/a	n/a	n/a
4421.024	n/a	RECOG_RESP	2210512	n/a	LTP130	ltpFR	14	3	0	OVEN	991	1	n/a	1	n/a	n/a	n/a	n/a	n/a
4422.264	n/a	RECOG_CONF	2211132	n/a	LTP130	ltpFR	14	3	0	OVEN	991	n/a	5	1	n/a	n/a	n/a	n/a	n/a
4424.294	n/a	RECOG_TARGET	2212147	n/a	LTP130	ltpFR	14	3	0	IDOL	733	1	5	1	n/a	n/a	n/a	n/a	n/a
4425.98	n/a	RECOG_RESP	2212990	n/a	LTP130	ltpFR	14	3	0	IDOL	733	1	n/a	1	n/a	n/a	n/a	n/a	n/a
4427.228	n/a	RECOG_CONF	2213614	n/a	LTP130	ltpFR	14	3	0	IDOL	733	n/a	5	1	n/a	n/a	n/a	n/a	n/a
4429.038	n/a	RECOG_TARGET	2214519	n/a	LTP130	ltpFR	14	3	-1	MUMMY	932	1	5	-1	n/a	n/a	n/a	n/a	n/a
4430.07	n/a	RECOG_RESP	2215035	n/a	LTP130	ltpFR	14	3	-1	MUMMY	932	1	n/a	-1	n/a	n/a	n/a	n/a	n/a
4431.232	n/a	RECOG_CONF	2215616	n/a	LTP130	ltpFR	14	3	-1	MUMMY	932	n/a	5	-1	n/a	n/a	n/a	n/a	n/a
4433.114	n/a	RECOG_LURE	2216557	n/a	LTP130	ltpFR	14	3	n/a	COUGAR	387	0	3	n/a	n/a	n/a	n/a	n/a	n/a
4435.06	n/a	RECOG_RESP	2217530	n/a	LTP130	ltpFR	14	3	n/a	COUGAR	387	0	n/a	n/a	n/a	n/a	n/a	n/a	n/a
4436.168	n/a	RECOG_CONF	2218084	n/a	LTP130	ltpFR	14	3	n/a	COUGAR	387	n/a	3	n/a	n/a	n/a	n/a	n/a	n/a
4437.942	n/a	RECOG_TARGET	2218971	n/a	LTP130	ltpFR	14	3	1	CRICKET	408	1	3	1	n/a	n/a	n/a	n/a	n/a
4438.944	n/a	RECOG_RESP	2219472	n/a	LTP130	ltpFR	14	3	1	CRICKET	408	1	n/a	1	n/a	n/a	n/a	n/a	n/a
4440.256	n/a	RECOG_CONF	2220128	n/a	LTP130	ltpFR	14	3	1	CRICKET	408	n/a	3	1	n/a	n/a	n/a	n/a	n/a
4442.184	n/a	RECOG_TARGET	2221092	n/a	LTP130	ltpFR	14	3	0	WASHER	1592	1	2	1	n/a	n/a	n/a	n/a	n/a
4445.63	n/a	RECOG_RESP	2222815	n/a	LTP130	ltpFR	14	3	0	WASHER	1592	1	n/a	1	n/a	n/a	n/a	n/a	n/a
4447.534	n/a	RECOG_CONF	2223767	n/a	LTP130	ltpFR	14	3	0	WASHER	1592	n/a	2	1	n/a	n/a	n/a	n/a	n/a
4449.39	n/a	RECOG_TARGET	2224695	n/a	LTP130	ltpFR	14	3	1	NECK	939	1	5	0	n/a	n/a	n/a	n/a	n/a
4450.686	n/a	RECOG_RESP	2225343	n/a	LTP130	ltpFR	14	3	1	NECK	939	1	n/a	0	n/a	n/a	n/a	n/a	n/a
4451.818	n/a	RECOG_CONF	2225909	n/a	LTP130	ltpFR	14	3	1	NECK	939	n/a	5	0	n/a	n/a	n/a	n/a	n/a
4453.684	n/a	RECOG_TARGET	2226842	n/a	LTP130	ltpFR	14	3	1	GRAVEL	659	1	5	0	n/a	n/a	n/a	n/a	n/a
4454.8	n/a	RECOG_RESP	2227400	n/a	LTP130	ltpFR	14	3	1	GRAVEL	659	1	n/a	0	n/a	n/a	n/a	n/a	n/a
4456.128	n/a	RECOG_CONF	2228064	n/a	LTP130	ltpFR	14	3	1	GRAVEL	659	n/a	5	0	n/a	n/a	n/a	n/a	n/a
4457.812	n/a	RECOG_TARGET	2228906	n/a	LTP130	ltpFR	14	3	1	MAT	877	1	1	0	n/a	n/a	n/a	n/a	n/a
4463.792	n/a	RECOG_RESP	2231896	n/a	LTP130	ltpFR	14	3	1	MAT	877	1	n/a	0	n/a	n/a	n/a	n/a	n/a
4465.1	n/a	RECOG_CONF	2232550	n/a	LTP130	ltpFR	14	3	1	MAT	877	n/a	1	0	n/a	n/a	n/a	n/a	n/a
4466.85	n/a	RECOG_LURE	2233425	n/a	LTP130	ltpFR	14	3	n/a	HOSPITAL	721	0	3	n/a	n/a	n/a	n/a	n/a	n/a
4469.084	n/a	RECOG_RESP	2234542	n/a	LTP130	ltpFR	14	3	n/a	HOSPITAL	721	0	n/a	n/a	n/a	n/a	n/a	n/a	n/a
4470.3	n/a	RECOG_CONF	2235150	n/a	LTP130	ltpFR	14	3	n/a	HOSPITAL	721	n/a	3	n/a	n/a	n/a	n/a	n/a	n/a
4471.942	n/a	RECOG_TARGET	2235971	n/a	LTP130	ltpFR	14	3	0	PLAYGROUND	1087	1	5	1	n/a	n/a	n/a	n/a	n/a
4472.856	n/a	RECOG_RESP	2236428	n/a	LTP130	ltpFR	14	3	0	PLAYGROUND	1087	1	n/a	1	n/a	n/a	n/a	n/a	n/a
4473.932	n/a	RECOG_CONF	2236966	n/a	LTP130	ltpFR	14	3	0	PLAYGROUND	1087	n/a	5	1	n/a	n/a	n/a	n/a	n/a
4483.678	n/a	REC_START	2241839	n/a	LTP130	ltpFR	14	4	n/a	n/a	n/a	n/a	n/a	n/a	n/a	n/a	n/a	n/a	n/a
4483.708	n/a	RECOG_TARGET	2241854	n/a	LTP130	ltpFR	14	4	0	ARM	38	1	5	0	n/a	n/a	n/a	n/a	n/a
4485.484	n/a	RECOG_RESP	2242742	n/a	LTP130	ltpFR	14	4	0	ARM	38	1	n/a	0	n/a	n/a	n/a	n/a	n/a
4486.832	n/a	RECOG_CONF	2243416	n/a	LTP130	ltpFR	14	4	0	ARM	38	n/a	5	0	n/a	n/a	n/a	n/a	n/a
4488.65	n/a	RECOG_LURE	2244325	n/a	LTP130	ltpFR	14	4	n/a	MITTEN	902	0	3	n/a	n/a	n/a	n/a	n/a	n/a
4490.912	n/a	RECOG_RESP	2245456	n/a	LTP130	ltpFR	14	4	n/a	MITTEN	902	0	n/a	n/a	n/a	n/a	n/a	n/a	n/a
4493.064	n/a	RECOG_CONF	2246532	n/a	LTP130	ltpFR	14	4	n/a	MITTEN	902	n/a	3	n/a	n/a	n/a	n/a	n/a	n/a
4494.924	n/a	RECOG_TARGET	2247462	n/a	LTP130	ltpFR	14	4	1	SALESMAN	1225	0	4	1	n/a	n/a	n/a	n/a	n/a
4495.824	n/a	RECOG_RESP	2247912	n/a	LTP130	ltpFR	14	4	1	SALESMAN	1225	0	n/a	1	n/a	n/a	n/a	n/a	n/a
4498.326	n/a	RECOG_CONF	2249163	n/a	LTP130	ltpFR	14	4	1	SALESMAN	1225	n/a	4	1	n/a	n/a	n/a	n/a	n/a
4500.048	n/a	RECOG_TARGET	2250024	n/a	LTP130	ltpFR	14	4	0	SCREW	1254	1	5	0	n/a	n/a	n/a	n/a	n/a
4501.042	n/a	RECOG_RESP	2250521	n/a	LTP130	ltpFR	14	4	0	SCREW	1254	1	n/a	0	n/a	n/a	n/a	n/a	n/a
4502.208	n/a	RECOG_CONF	2251104	n/a	LTP130	ltpFR	14	4	0	SCREW	1254	n/a	5	0	n/a	n/a	n/a	n/a	n/a
4504.076	n/a	RECOG_TARGET	2252038	n/a	LTP130	ltpFR	14	4	0	RASH	1167	1	5	0	n/a	n/a	n/a	n/a	n/a
4504.894	n/a	RECOG_RESP	2252447	n/a	LTP130	ltpFR	14	4	0	RASH	1167	1	n/a	0	n/a	n/a	n/a	n/a	n/a
4505.952	n/a	RECOG_CONF	2252976	n/a	LTP130	ltpFR	14	4	0	RASH	1167	n/a	5	0	n/a	n/a	n/a	n/a	n/a
4507.756	n/a	RECOG_TARGET	2253878	n/a	LTP130	ltpFR	14	4	1	PERFUME	1049	1	5	0	n/a	n/a	n/a	n/a	n/a
4508.62	n/a	RECOG_RESP	2254310	n/a	LTP130	ltpFR	14	4	1	PERFUME	1049	1	n/a	0	n/a	n/a	n/a	n/a	n/a
4509.714	n/a	RECOG_CONF	2254857	n/a	LTP130	ltpFR	14	4	1	PERFUME	1049	n/a	5	0	n/a	n/a	n/a	n/a	n/a
4511.466	n/a	RECOG_TARGET	2255733	n/a	LTP130	ltpFR	14	4	-1	RIVER	1194	1	4	-1	n/a	n/a	n/a	n/a	n/a
4514.546	n/a	RECOG_RESP	2257273	n/a	LTP130	ltpFR	14	4	-1	RIVER	1194	1	n/a	-1	n/a	n/a	n/a	n/a	n/a
4515.946	n/a	RECOG_CONF	2257973	n/a	LTP130	ltpFR	14	4	-1	RIVER	1194	n/a	4	-1	n/a	n/a	n/a	n/a	n/a
4517.674	n/a	RECOG_LURE	2258837	n/a	LTP130	ltpFR	14	4	n/a	ORANGE	980	0	2	n/a	n/a	n/a	n/a	n/a	n/a
4520.828	n/a	RECOG_RESP	2260414	n/a	LTP130	ltpFR	14	4	n/a	ORANGE	980	0	n/a	n/a	n/a	n/a	n/a	n/a	n/a
4522.112	n/a	RECOG_CONF	2261056	n/a	LTP130	ltpFR	14	4	n/a	ORANGE	980	n/a	2	n/a	n/a	n/a	n/a	n/a	n/a
4523.882	n/a	RECOG_TARGET	2261941	n/a	LTP130	ltpFR	14	4	-1	WHEEL	1603	1	5	-1	n/a	n/a	n/a	n/a	n/a
4525.234	n/a	RECOG_RESP	2262617	n/a	LTP130	ltpFR	14	4	-1	WHEEL	1603	1	n/a	-1	n/a	n/a	n/a	n/a	n/a
4526.314	n/a	RECOG_CONF	2263157	n/a	LTP130	ltpFR	14	4	-1	WHEEL	1603	n/a	5	-1	n/a	n/a	n/a	n/a	n/a
4528.074	n/a	RECOG_TARGET	2264037	n/a	LTP130	ltpFR	14	4	1	DINNER	468	1	2	0	n/a	n/a	n/a	n/a	n/a
4531.868	n/a	RECOG_RESP	2265934	n/a	LTP130	ltpFR	14	4	1	DINNER	468	1	n/a	0	n/a	n/a	n/a	n/a	n/a
4533.466	n/a	RECOG_CONF	2266733	n/a	LTP130	ltpFR	14	4	1	DINNER	468	n/a	2	0	n/a	n/a	n/a	n/a	n/a
4535.396	n/a	RECOG_TARGET	2267698	n/a	LTP130	ltpFR	14	4	1	DOCK	477	1	5	0	n/a	n/a	n/a	n/a	n/a
4536.27	n/a	RECOG_RESP	2268135	n/a	LTP130	ltpFR	14	4	1	DOCK	477	1	n/a	0	n/a	n/a	n/a	n/a	n/a
4537.426	n/a	RECOG_CONF	2268713	n/a	LTP130	ltpFR	14	4	1	DOCK	477	n/a	5	0	n/a	n/a	n/a	n/a	n/a
4539.456	n/a	RECOG_TARGET	2269728	n/a	LTP130	ltpFR	14	4	-1	CAULIFLOWER	262	1	5	-1	n/a	n/a	n/a	n/a	n/a
4540.188	n/a	RECOG_RESP	2270094	n/a	LTP130	ltpFR	14	4	-1	CAULIFLOWER	262	1	n/a	-1	n/a	n/a	n/a	n/a	n/a
4541.406	n/a	RECOG_CONF	2270703	n/a	LTP130	ltpFR	14	4	-1	CAULIFLOWER	262	n/a	5	-1	n/a	n/a	n/a	n/a	n/a
4543.402	n/a	RECOG_TARGET	2271701	n/a	LTP130	ltpFR	14	4	0	VICTOR	1563	1	5	1	n/a	n/a	n/a	n/a	n/a
4544.388	n/a	RECOG_RESP	2272194	n/a	LTP130	ltpFR	14	4	0	VICTOR	1563	1	n/a	1	n/a	n/a	n/a	n/a	n/a
4545.536	n/a	RECOG_CONF	2272768	n/a	LTP130	ltpFR	14	4	0	VICTOR	1563	n/a	5	1	n/a	n/a	n/a	n/a	n/a
4547.53	n/a	RECOG_TARGET	2273765	n/a	LTP130	ltpFR	14	4	-1	MONUMENT	913	1	5	-1	n/a	n/a	n/a	n/a	n/a
4548.302	n/a	RECOG_RESP	2274151	n/a	LTP130	ltpFR	14	4	-1	MONUMENT	913	1	n/a	-1	n/a	n/a	n/a	n/a	n/a
4549.486	n/a	RECOG_CONF	2274743	n/a	LTP130	ltpFR	14	4	-1	MONUMENT	913	n/a	5	-1	n/a	n/a	n/a	n/a	n/a
4551.306	n/a	RECOG_TARGET	2275653	n/a	LTP130	ltpFR	14	4	0	AFRICA	9	1	5	1	n/a	n/a	n/a	n/a	n/a
4552.028	n/a	RECOG_RESP	2276014	n/a	LTP130	ltpFR	14	4	0	AFRICA	9	1	n/a	1	n/a	n/a	n/a	n/a	n/a
4553.28	n/a	RECOG_CONF	2276640	n/a	LTP130	ltpFR	14	4	0	AFRICA	9	n/a	5	1	n/a	n/a	n/a	n/a	n/a
4555.25	n/a	RECOG_TARGET	2277625	n/a	LTP130	ltpFR	14	4	0	PONY	1102	0	3	1	n/a	n/a	n/a	n/a	n/a
4565.238	n/a	RECOG_RESP	2282619	n/a	LTP130	ltpFR	14	4	0	PONY	1102	0	n/a	1	n/a	n/a	n/a	n/a	n/a
4567.22	n/a	RECOG_CONF	2283610	n/a	LTP130	ltpFR	14	4	0	PONY	1102	n/a	3	1	n/a	n/a	n/a	n/a	n/a
4569.18	n/a	RECOG_TARGET	2284590	n/a	LTP130	ltpFR	14	4	-1	CHEF	290	1	2	-1	n/a	n/a	n/a	n/a	n/a
4572.522	n/a	RECOG_RESP	2286261	n/a	LTP130	ltpFR	14	4	-1	CHEF	290	1	n/a	-1	n/a	n/a	n/a	n/a	n/a
4573.78	n/a	RECOG_CONF	2286890	n/a	LTP130	ltpFR	14	4	-1	CHEF	290	n/a	2	-1	n/a	n/a	n/a	n/a	n/a
4575.62	n/a	RECOG_TARGET	2287810	n/a	LTP130	ltpFR	14	4	1	TRANSPLANT	1496	1	5	0	n/a	n/a	n/a	n/a	n/a
4576.41	n/a	RECOG_RESP	2288205	n/a	LTP130	ltpFR	14	4	1	TRANSPLANT	1496	1	n/a	0	n/a	n/a	n/a	n/a	n/a
4577.338	n/a	RECOG_CONF	2288669	n/a	LTP130	ltpFR	14	4	1	TRANSPLANT	1496	n/a	5	0	n/a	n/a	n/a	n/a	n/a
4579.364	n/a	RECOG_LURE	2289682	n/a	LTP130	ltpFR	14	4	n/a	FIG	563	0	4	n/a	n/a	n/a	n/a	n/a	n/a
4581.074	n/a	RECOG_RESP	2290537	n/a	LTP130	ltpFR	14	4	n/a	FIG	563	0	n/a	n/a	n/a	n/a	n/a	n/a	n/a
4583.178	n/a	RECOG_CONF	2291589	n/a	LTP130	ltpFR	14	4	n/a	FIG	563	n/a	4	n/a	n/a	n/a	n/a	n/a	n/a
4585.256	n/a	RECOG_TARGET	2292628	n/a	LTP130	ltpFR	14	4	0	COMET	353	1	5	1	n/a	n/a	n/a	n/a	n/a
4586.42	n/a	RECOG_RESP	2293210	n/a	LTP130	ltpFR	14	4	0	COMET	353	1	n/a	1	n/a	n/a	n/a	n/a	n/a
4587.584	n/a	RECOG_CONF	2293792	n/a	LTP130	ltpFR	14	4	0	COMET	353	n/a	5	1	n/a	n/a	n/a	n/a	n/a
4592.168	n/a	REC_START	2296084	n/a	LTP130	ltpFR	14	5	n/a	n/a	n/a	n/a	n/a	n/a	n/a	n/a	n/a	n/a	n/a
4592.196	n/a	RECOG_LURE	2296098	n/a	LTP130	ltpFR	14	5	n/a	ROPE	1211	0	3	n/a	n/a	n/a	n/a	n/a	n/a
4596.262	n/a	RECOG_RESP	2298131	n/a	LTP130	ltpFR	14	5	n/a	ROPE	1211	0	n/a	n/a	n/a	n/a	n/a	n/a	n/a
4597.956	n/a	RECOG_CONF	2298978	n/a	LTP130	ltpFR	14	5	n/a	ROPE	1211	n/a	3	n/a	n/a	n/a	n/a	n/a	n/a
4599.752	n/a	RECOG_TARGET	2299876	n/a	LTP130	ltpFR	14	5	1	BEAST	108	1	5	1	n/a	n/a	n/a	n/a	n/a
4600.576	n/a	RECOG_RESP	2300288	n/a	LTP130	ltpFR	14	5	1	BEAST	108	1	n/a	1	n/a	n/a	n/a	n/a	n/a
4601.83	n/a	RECOG_CONF	2300915	n/a	LTP130	ltpFR	14	5	1	BEAST	108	n/a	5	1	n/a	n/a	n/a	n/a	n/a
4603.946	n/a	RECOG_TARGET	2301973	n/a	LTP130	ltpFR	14	5	1	GANG	619	1	5	1	n/a	n/a	n/a	n/a	n/a
4605.07	n/a	RECOG_RESP	2302535	n/a	LTP130	ltpFR	14	5	1	GANG	619	1	n/a	1	n/a	n/a	n/a	n/a	n/a
4606.5	n/a	RECOG_CONF	2303250	n/a	LTP130	ltpFR	14	5	1	GANG	619	n/a	5	1	n/a	n/a	n/a	n/a	n/a
4608.388	n/a	RECOG_TARGET	2304194	n/a	LTP130	ltpFR	14	5	0	DAM	436	1	5	1	n/a	n/a	n/a	n/a	n/a
4609.378	n/a	RECOG_RESP	2304689	n/a	LTP130	ltpFR	14	5	0	DAM	436	1	n/a	1	n/a	n/a	n/a	n/a	n/a
4610.622	n/a	RECOG_CONF	2305311	n/a	LTP130	ltpFR	14	5	0	DAM	436	n/a	5	1	n/a	n/a	n/a	n/a	n/a
4612.666	n/a	RECOG_LURE	2306333	n/a	LTP130	ltpFR	14	5	n/a	SKELETON	1314	0	4	n/a	n/a	n/a	n/a	n/a	n/a
4616.562	n/a	RECOG_RESP	2308281	n/a	LTP130	ltpFR	14	5	n/a	SKELETON	1314	0	n/a	n/a	n/a	n/a	n/a	n/a	n/a
4617.874	n/a	RECOG_CONF	2308937	n/a	LTP130	ltpFR	14	5	n/a	SKELETON	1314	n/a	4	n/a	n/a	n/a	n/a	n/a	n/a
4619.59	n/a	RECOG_TARGET	2309795	n/a	LTP130	ltpFR	14	5	-1	PRAIRIE	1118	1	5	-1	n/a	n/a	n/a	n/a	n/a
4620.548	n/a	RECOG_RESP	2310274	n/a	LTP130	ltpFR	14	5	-1	PRAIRIE	1118	1	n/a	-1	n/a	n/a	n/a	n/a	n/a
4621.828	n/a	RECOG_CONF	2310914	n/a	LTP130	ltpFR	14	5	-1	PRAIRIE	1118	n/a	5	-1	n/a	n/a	n/a	n/a	n/a
4623.684	n/a	RECOG_LURE	2311842	n/a	LTP130	ltpFR	14	5	n/a	SLUG	1329	0	1	n/a	n/a	n/a	n/a	n/a	n/a
4631.522	n/a	RECOG_RESP	2315761	n/a	LTP130	ltpFR	14	5	n/a	SLUG	1329	0	n/a	n/a	n/a	n/a	n/a	n/a	n/a
4633.828	n/a	RECOG_CONF	2316914	n/a	LTP130	ltpFR	14	5	n/a	SLUG	1329	n/a	1	n/a	n/a	n/a	n/a	n/a	n/a
4635.8	n/a	RECOG_TARGET	2317900	n/a	LTP130	ltpFR	14	5	1	MOB	904	n/a	n/a	1	n/a	n/a	n/a	n/a	n/a
4639.01	n/a	RECOG_TARGET	2319505	n/a	LTP130	ltpFR	14	5	1	FINGER	567	1	5	0	n/a	n/a	n/a	n/a	n/a
4643.276	n/a	RECOG_RESP	2321638	n/a	LTP130	ltpFR	14	5	1	FINGER	567	1	n/a	0	n/a	n/a	n/a	n/a	n/a
4644.146	n/a	RECOG_CONF	2322073	n/a	LTP130	ltpFR	14	5	1	FINGER	567	n/a	5	0	n/a	n/a	n/a	n/a	n/a
4646.132	n/a	RECOG_TARGET	2323066	n/a	LTP130	ltpFR	14	5	1	SWAMP	1416	1	5	0	n/a	n/a	n/a	n/a	n/a
4649.746	n/a	RECOG_RESP	2324873	n/a	LTP130	ltpFR	14	5	1	SWAMP	1416	1	n/a	0	n/a	n/a	n/a	n/a	n/a
4650.876	n/a	RECOG_CONF	2325438	n/a	LTP130	ltpFR	14	5	1	SWAMP	1416	n/a	5	0	n/a	n/a	n/a	n/a	n/a
4652.724	n/a	RECOG_LURE	2326362	n/a	LTP130	ltpFR	14	5	n/a	RING	1193	0	2	n/a	n/a	n/a	n/a	n/a	n/a
4656.618	n/a	RECOG_RESP	2328309	n/a	LTP130	ltpFR	14	5	n/a	RING	1193	0	n/a	n/a	n/a	n/a	n/a	n/a	n/a
4658.676	n/a	RECOG_CONF	2329338	n/a	LTP130	ltpFR	14	5	n/a	RING	1193	n/a	2	n/a	n/a	n/a	n/a	n/a	n/a
4660.662	n/a	RECOG_LURE	2330331	n/a	LTP130	ltpFR	14	5	n/a	CHAUFFEUR	283	0	4	n/a	n/a	n/a	n/a	n/a	n/a
4662.2	n/a	RECOG_RESP	2331100	n/a	LTP130	ltpFR	14	5	n/a	CHAUFFEUR	283	0	n/a	n/a	n/a	n/a	n/a	n/a	n/a
4664.052	n/a	RECOG_CONF	2332026	n/a	LTP130	ltpFR	14	5	n/a	CHAUFFEUR	283	n/a	4	n/a	n/a	n/a	n/a	n/a	n/a
4665.904	n/a	RECOG_TARGET	2332952	n/a	LTP130	ltpFR	14	5	0	COCKTAIL	338	1	5	0	n/a	n/a	n/a	n/a	n/a
4666.838	n/a	RECOG_RESP	2333419	n/a	LTP130	ltpFR	14	5	0	COCKTAIL	338	1	n/a	0	n/a	n/a	n/a	n/a	n/a
4667.976	n/a	RECOG_CONF	2333988	n/a	LTP130	ltpFR	14	5	0	COCKTAIL	338	n/a	5	0	n/a	n/a	n/a	n/a	n/a
4669.848	n/a	RECOG_TARGET	2334924	n/a	LTP130	ltpFR	14	5	0	PLATE	1086	1	5	0	n/a	n/a	n/a	n/a	n/a
4670.756	n/a	RECOG_RESP	2335378	n/a	LTP130	ltpFR	14	5	0	PLATE	1086	1	n/a	0	n/a	n/a	n/a	n/a	n/a
4672.102	n/a	RECOG_CONF	2336051	n/a	LTP130	ltpFR	14	5	0	PLATE	1086	n/a	5	0	n/a	n/a	n/a	n/a	n/a
4673.826	n/a	RECOG_TARGET	2336913	n/a	LTP130	ltpFR	14	5	-1	TEMPLE	1448	1	5	-1	n/a	n/a	n/a	n/a	n/a
4674.77	n/a	RECOG_RESP	2337385	n/a	LTP130	ltpFR	14	5	-1	TEMPLE	1448	1	n/a	-1	n/a	n/a	n/a	n/a	n/a
4676.278	n/a	RECOG_CONF	2338139	n/a	LTP130	ltpFR	14	5	-1	TEMPLE	1448	n/a	5	-1	n/a	n/a	n/a	n/a	n/a
4678.168	n/a	RECOG_TARGET	2339084	n/a	LTP130	ltpFR	14	5	-1	CITRUS	313	1	5	-1	n/a	n/a	n/a	n/a	n/a
4679.194	n/a	RECOG_RESP	2339597	n/a	LTP130	ltpFR	14	5	-1	CITRUS	313	1	n/a	-1	n/a	n/a	n/a	n/a	n/a
4680.672	n/a	RECOG_CONF	2340336	n/a	LTP130	ltpFR	14	5	-1	CITRUS	313	n/a	5	-1	n/a	n/a	n/a	n/a	n/a
4682.662	n/a	RECOG_TARGET	2341331	n/a	LTP130	ltpFR	14	5	0	EDITOR	516	1	5	1	n/a	n/a	n/a	n/a	n/a
4683.69	n/a	RECOG_RESP	2341845	n/a	LTP130	ltpFR	14	5	0	EDITOR	516	1	n/a	1	n/a	n/a	n/a	n/a	n/a
4685.176	n/a	RECOG_CONF	2342588	n/a	LTP130	ltpFR	14	5	0	EDITOR	516	n/a	5	1	n/a	n/a	n/a	n/a	n/a
4687.238	n/a	RECOG_TARGET	2343619	n/a	LTP130	ltpFR	14	5	0	OFFICE	972	1	3	1	n/a	n/a	n/a	n/a	n/a
4702.15	n/a	RECOG_RESP	2351075	n/a	LTP130	ltpFR	14	5	0	OFFICE	972	1	n/a	1	n/a	n/a	n/a	n/a	n/a
4703.676	n/a	RECOG_CONF	2351838	n/a	LTP130	ltpFR	14	5	0	OFFICE	972	n/a	3	1	n/a	n/a	n/a	n/a	n/a
4705.912	n/a	RECOG_LURE	2352956	n/a	LTP130	ltpFR	14	5	n/a	SNORKEL	1336	0	4	n/a	n/a	n/a	n/a	n/a	n/a
4707.89	n/a	RECOG_RESP	2353945	n/a	LTP130	ltpFR	14	5	n/a	SNORKEL	1336	0	n/a	n/a	n/a	n/a	n/a	n/a	n/a
4709.02	n/a	RECOG_CONF	2354510	n/a	LTP130	ltpFR	14	5	n/a	SNORKEL	1336	n/a	4	n/a	n/a	n/a	n/a	n/a	n/a
4710.822	n/a	RECOG_TARGET	2355411	n/a	LTP130	ltpFR	14	5	1	MOTOR	922	1	3	0	n/a	n/a	n/a	n/a	n/a
4712.492	n/a	RECOG_RESP	2356246	n/a	LTP130	ltpFR	14	5	1	MOTOR	922	1	n/a	0	n/a	n/a	n/a	n/a	n/a
4714.106	n/a	RECOG_CONF	2357053	n/a	LTP130	ltpFR	14	5	1	MOTOR	922	n/a	3	0	n/a	n/a	n/a	n/a	n/a
4749.228	n/a	REC_START	2374614	n/a	LTP130	ltpFR	14	6	n/a	n/a	n/a	n/a	n/a	n/a	n/a	n/a	n/a	n/a	n/a
4749.264	n/a	RECOG_TARGET	2374632	n/a	LTP130	ltpFR	14	6	1	FREEWAY	603	1	4	0	n/a	n/a	n/a	n/a	n/a
4751.096	n/a	RECOG_RESP	2375548	n/a	LTP130	ltpFR	14	6	1	FREEWAY	603	1	n/a	0	n/a	n/a	n/a	n/a	n/a
4752.596	n/a	RECOG_CONF	2376298	n/a	LTP130	ltpFR	14	6	1	FREEWAY	603	n/a	4	0	n/a	n/a	n/a	n/a	n/a
4754.406	n/a	RECOG_LURE	2377203	n/a	LTP130	ltpFR	14	6	n/a	STICKER	1382	0	3	n/a	n/a	n/a	n/a	n/a	n/a
4756.318	n/a	RECOG_RESP	2378159	n/a	LTP130	ltpFR	14	6	n/a	STICKER	1382	0	n/a	n/a	n/a	n/a	n/a	n/a	n/a
4758.286	n/a	RECOG_CONF	2379143	n/a	LTP130	ltpFR	14	6	n/a	STICKER	1382	n/a	3	n/a	n/a	n/a	n/a	n/a	n/a
4760.23	n/a	RECOG_LURE	2380115	n/a	LTP130	ltpFR	14	6	n/a	DISC	473	0	3	n/a	n/a	n/a	n/a	n/a	n/a
4763.214	n/a	RECOG_RESP	2381607	n/a	LTP130	ltpFR	14	6	n/a	DISC	473	0	n/a	n/a	n/a	n/a	n/a	n/a	n/a
4764.762	n/a	RECOG_CONF	2382381	n/a	LTP130	ltpFR	14	6	n/a	DISC	473	n/a	3	n/a	n/a	n/a	n/a	n/a	n/a
4766.57	n/a	RECOG_TARGET	2383285	n/a	LTP130	ltpFR	14	6	-1	DRYER	503	0	4	-1	n/a	n/a	n/a	n/a	n/a
4769.472	n/a	RECOG_RESP	2384736	n/a	LTP130	ltpFR	14	6	-1	DRYER	503	0	n/a	-1	n/a	n/a	n/a	n/a	n/a
4770.936	n/a	RECOG_CONF	2385468	n/a	LTP130	ltpFR	14	6	-1	DRYER	503	n/a	4	-1	n/a	n/a	n/a	n/a	n/a
4773.012	n/a	RECOG_TARGET	2386506	n/a	LTP130	ltpFR	14	6	1	GIRAFFE	636	1	5	1	n/a	n/a	n/a	n/a	n/a
4774.308	n/a	RECOG_RESP	2387154	n/a	LTP130	ltpFR	14	6	1	GIRAFFE	636	1	n/a	1	n/a	n/a	n/a	n/a	n/a
4775.354	n/a	RECOG_CONF	2387677	n/a	LTP130	ltpFR	14	6	1	GIRAFFE	636	n/a	5	1	n/a	n/a	n/a	n/a	n/a
4777.206	n/a	RECOG_TARGET	2388603	n/a	LTP130	ltpFR	14	6	0	JUNGLE	764	1	4	1	n/a	n/a	n/a	n/a	n/a
4778.358	n/a	RECOG_RESP	2389179	n/a	LTP130	ltpFR	14	6	0	JUNGLE	764	1	n/a	1	n/a	n/a	n/a	n/a	n/a
4779.546	n/a	RECOG_CONF	2389773	n/a	LTP130	ltpFR	14	6	0	JUNGLE	764	n/a	4	1	n/a	n/a	n/a	n/a	n/a
4781.432	n/a	RECOG_LURE	2390716	n/a	LTP130	ltpFR	14	6	n/a	ASTEROID	50	0	3	n/a	n/a	n/a	n/a	n/a	n/a
4783.536	n/a	RECOG_RESP	2391768	n/a	LTP130	ltpFR	14	6	n/a	ASTEROID	50	0	n/a	n/a	n/a	n/a	n/a	n/a	n/a
4786.356	n/a	RECOG_CONF	2393178	n/a	LTP130	ltpFR	14	6	n/a	ASTEROID	50	n/a	3	n/a	n/a	n/a	n/a	n/a	n/a
4788.206	n/a	RECOG_TARGET	2394103	n/a	LTP130	ltpFR	14	6	0	NEWSSTAND	949	1	5	1	n/a	n/a	n/a	n/a	n/a
4789.112	n/a	RECOG_RESP	2394556	n/a	LTP130	ltpFR	14	6	0	NEWSSTAND	949	1	n/a	1	n/a	n/a	n/a	n/a	n/a
4790.508	n/a	RECOG_CONF	2395254	n/a	LTP130	ltpFR	14	6	0	NEWSSTAND	949	n/a	5	1	n/a	n/a	n/a	n/a	n/a
4792.516	n/a	RECOG_LURE	2396258	n/a	LTP130	ltpFR	14	6	n/a	BAY	102	0	2	n/a	n/a	n/a	n/a	n/a	n/a
4799.454	n/a	RECOG_RESP	2399727	n/a	LTP130	ltpFR	14	6	n/a	BAY	102	0	n/a	n/a	n/a	n/a	n/a	n/a	n/a
4802.252	n/a	RECOG_CONF	2401126	n/a	LTP130	ltpFR	14	6	n/a	BAY	102	n/a	2	n/a	n/a	n/a	n/a	n/a	n/a
4804.098	n/a	RECOG_TARGET	2402049	n/a	LTP130	ltpFR	14	6	-1	LOG	841	1	5	-1	n/a	n/a	n/a	n/a	n/a
4804.976	n/a	RECOG_RESP	2402488	n/a	LTP130	ltpFR	14	6	-1	LOG	841	1	n/a	-1	n/a	n/a	n/a	n/a	n/a
4806.372	n/a	RECOG_CONF	2403186	n/a	LTP130	ltpFR	14	6	-1	LOG	841	n/a	5	-1	n/a	n/a	n/a	n/a	n/a
4808.31	n/a	RECOG_TARGET	2404155	n/a	LTP130	ltpFR	14	6	1	LOBSTER	837	1	5	1	n/a	n/a	n/a	n/a	n/a
4810.034	n/a	RECOG_RESP	2405017	n/a	LTP130	ltpFR	14	6	1	LOBSTER	837	1	n/a	1	n/a	n/a	n/a	n/a	n/a
4811.58	n/a	RECOG_CONF	2405790	n/a	LTP130	ltpFR	14	6	1	LOBSTER	837	n/a	5	1	n/a	n/a	n/a	n/a	n/a
4813.602	n/a	RECOG_LURE	2406801	n/a	LTP130	ltpFR	14	6	n/a	PRUNE	1134	0	3	n/a	n/a	n/a	n/a	n/a	n/a
4817.454	n/a	RECOG_RESP	2408727	n/a	LTP130	ltpFR	14	6	n/a	PRUNE	1134	0	n/a	n/a	n/a	n/a	n/a	n/a	n/a
4818.826	n/a	RECOG_CONF	2409413	n/a	LTP130	ltpFR	14	6	n/a	PRUNE	1134	n/a	3	n/a	n/a	n/a	n/a	n/a	n/a
4820.676	n/a	RECOG_LURE	2410338	n/a	LTP130	ltpFR	14	6	n/a	THESAURUS	1454	0	4	n/a	n/a	n/a	n/a	n/a	n/a
4821.594	n/a	RECOG_RESP	2410797	n/a	LTP130	ltpFR	14	6	n/a	THESAURUS	1454	0	n/a	n/a	n/a	n/a	n/a	n/a	n/a
4822.722	n/a	RECOG_CONF	2411361	n/a	LTP130	ltpFR	14	6	n/a	THESAURUS	1454	n/a	4	n/a	n/a	n/a	n/a	n/a	n/a
4824.602	n/a	RECOG_TARGET	2412301	n/a	LTP130	ltpFR	14	6	0	ALMANAC	17	1	5	1	n/a	n/a	n/a	n/a	n/a
4825.572	n/a	RECOG_RESP	2412786	n/a	LTP130	ltpFR	14	6	0	ALMANAC	17	1	n/a	1	n/a	n/a	n/a	n/a	n/a
4826.88	n/a	RECOG_CONF	2413440	n/a	LTP130	ltpFR	14	6	0	ALMANAC	17	n/a	5	1	n/a	n/a	n/a	n/a	n/a
4828.996	n/a	RECOG_TARGET	2414498	n/a	LTP130	ltpFR	14	6	1	LOCK	838	1	5	0	n/a	n/a	n/a	n/a	n/a
4830.062	n/a	RECOG_RESP	2415031	n/a	LTP130	ltpFR	14	6	1	LOCK	838	1	n/a	0	n/a	n/a	n/a	n/a	n/a
4831.562	n/a	RECOG_CONF	2415781	n/a	LTP130	ltpFR	14	6	1	LOCK	838	n/a	5	0	n/a	n/a	n/a	n/a	n/a
4833.388	n/a	RECOG_TARGET	2416694	n/a	LTP130	ltpFR	14	6	0	EDITORIAL	517	1	5	0	n/a	n/a	n/a	n/a	n/a
4834.532	n/a	RECOG_RESP	2417266	n/a	LTP130	ltpFR	14	6	0	EDITORIAL	517	1	n/a	0	n/a	n/a	n/a	n/a	n/a
4836.018	n/a	RECOG_CONF	2418009	n/a	LTP130	ltpFR	14	6	0	EDITORIAL	517	n/a	5	0	n/a	n/a	n/a	n/a	n/a
4838.064	n/a	RECOG_TARGET	2419032	n/a	LTP130	ltpFR	14	6	0	LILY	821	1	5	0	n/a	n/a	n/a	n/a	n/a
4839.07	n/a	RECOG_RESP	2419535	n/a	LTP130	ltpFR	14	6	0	LILY	821	1	n/a	0	n/a	n/a	n/a	n/a	n/a
4840.426	n/a	RECOG_CONF	2420213	n/a	LTP130	ltpFR	14	6	0	LILY	821	n/a	5	0	n/a	n/a	n/a	n/a	n/a
4842.692	n/a	RECOG_TARGET	2421346	n/a	LTP130	ltpFR	14	6	1	SOLDIER	1344	1	5	1	n/a	n/a	n/a	n/a	n/a
4848.346	n/a	RECOG_RESP	2424173	n/a	LTP130	ltpFR	14	6	1	SOLDIER	1344	1	n/a	1	n/a	n/a	n/a	n/a	n/a
4849.798	n/a	RECOG_CONF	2424899	n/a	LTP130	ltpFR	14	6	1	SOLDIER	1344	n/a	5	1	n/a	n/a	n/a	n/a	n/a
4851.796	n/a	RECOG_TARGET	2425898	n/a	LTP130	ltpFR	14	6	-1	ISLAND	745	1	5	-1	n/a	n/a	n/a	n/a	n/a
4852.826	n/a	RECOG_RESP	2426413	n/a	LTP130	ltpFR	14	6	-1	ISLAND	745	1	n/a	-1	n/a	n/a	n/a	n/a	n/a
4854.108	n/a	RECOG_CONF	2427054	n/a	LTP130	ltpFR	14	6	-1	ISLAND	745	n/a	5	-1	n/a	n/a	n/a	n/a	n/a
4855.874	n/a	RECOG_TARGET	2427937	n/a	LTP130	ltpFR	14	6	0	CHAIR	274	0	1	1	n/a	n/a	n/a	n/a	n/a
4865.864	n/a	RECOG_RESP	2432932	n/a	LTP130	ltpFR	14	6	0	CHAIR	274	0	n/a	1	n/a	n/a	n/a	n/a	n/a
4866.958	n/a	RECOG_CONF	2433479	n/a	LTP130	ltpFR	14	6	0	CHAIR	274	n/a	1	1	n/a	n/a	n/a	n/a	n/a
4913.536	n/a	REC_START	2456768	n/a	LTP130	ltpFR	14	7	n/a	n/a	n/a	n/a	n/a	n/a	n/a	n/a	n/a	n/a	n/a
4913.57	n/a	RECOG_LURE	2456785	n/a	LTP130	ltpFR	14	7	n/a	VALLEY	1545	0	1	n/a	n/a	n/a	n/a	n/a	n/a
4916.664	n/a	RECOG_RESP	2458332	n/a	LTP130	ltpFR	14	7	n/a	VALLEY	1545	0	n/a	n/a	n/a	n/a	n/a	n/a	n/a
4917.974	n/a	RECOG_CONF	2458987	n/a	LTP130	ltpFR	14	7	n/a	VALLEY	1545	n/a	1	n/a	n/a	n/a	n/a	n/a	n/a
4919.762	n/a	RECOG_LURE	2459881	n/a	LTP130	ltpFR	14	7	n/a	SWORD	1423	0	2	n/a	n/a	n/a	n/a	n/a	n/a
4923.098	n/a	RECOG_RESP	2461549	n/a	LTP130	ltpFR	14	7	n/a	SWORD	1423	0	n/a	n/a	n/a	n/a	n/a	n/a	n/a
4924.366	n/a	RECOG_CONF	2462183	n/a	LTP130	ltpFR	14	7	n/a	SWORD	1423	n/a	2	n/a	n/a	n/a	n/a	n/a	n/a
4926.068	n/a	RECOG_TARGET	2463034	n/a	LTP130	ltpFR	14	7	1	UNCLE	1536	1	5	1	n/a	n/a	n/a	n/a	n/a
4926.854	n/a	RECOG_RESP	2463427	n/a	LTP130	ltpFR	14	7	1	UNCLE	1536	1	n/a	1	n/a	n/a	n/a	n/a	n/a
4927.806	n/a	RECOG_CONF	2463903	n/a	LTP130	ltpFR	14	7	1	UNCLE	1536	n/a	5	1	n/a	n/a	n/a	n/a	n/a
4929.596	n/a	RECOG_LURE	2464798	n/a	LTP130	ltpFR	14	7	n/a	JOINT	758	0	3	n/a	n/a	n/a	n/a	n/a	n/a
4931.346	n/a	RECOG_RESP	2465673	n/a	LTP130	ltpFR	14	7	n/a	JOINT	758	0	n/a	n/a	n/a	n/a	n/a	n/a	n/a
4932.59	n/a	RECOG_CONF	2466295	n/a	LTP130	ltpFR	14	7	n/a	JOINT	758	n/a	3	n/a	n/a	n/a	n/a	n/a	n/a
4934.19	n/a	RECOG_TARGET	2467095	n/a	LTP130	ltpFR	14	7	0	YOLK	1633	1	3	0	n/a	n/a	n/a	n/a	n/a
4937.552	n/a	RECOG_RESP	2468776	n/a	LTP130	ltpFR	14	7	0	YOLK	1633	1	n/a	0	n/a	n/a	n/a	n/a	n/a
4938.692	n/a	RECOG_CONF	2469346	n/a	LTP130	ltpFR	14	7	0	YOLK	1633	n/a	3	0	n/a	n/a	n/a	n/a	n/a
4940.514	n/a	RECOG_TARGET	2470257	n/a	LTP130	ltpFR	14	7	1	WORM	1623	1	5	1	n/a	n/a	n/a	n/a	n/a
4941.352	n/a	RECOG_RESP	2470676	n/a	LTP130	ltpFR	14	7	1	WORM	1623	1	n/a	1	n/a	n/a	n/a	n/a	n/a
4942.448	n/a	RECOG_CONF	2471224	n/a	LTP130	ltpFR	14	7	1	WORM	1623	n/a	5	1	n/a	n/a	n/a	n/a	n/a
4944.208	n/a	RECOG_TARGET	2472104	n/a	LTP130	ltpFR	14	7	1	CHIMNEY	301	1	5	0	n/a	n/a	n/a	n/a	n/a
4945.018	n/a	RECOG_RESP	2472509	n/a	LTP130	ltpFR	14	7	1	CHIMNEY	301	1	n/a	0	n/a	n/a	n/a	n/a	n/a
4945.996	n/a	RECOG_CONF	2472998	n/a	LTP130	ltpFR	14	7	1	CHIMNEY	301	n/a	5	0	n/a	n/a	n/a	n/a	n/a
4947.838	n/a	RECOG_TARGET	2473919	n/a	LTP130	ltpFR	14	7	0	WRENCH	1625	1	5	0	n/a	n/a	n/a	n/a	n/a
4948.79	n/a	RECOG_RESP	2474395	n/a	LTP130	ltpFR	14	7	0	WRENCH	1625	1	n/a	0	n/a	n/a	n/a	n/a	n/a
4949.838	n/a	RECOG_CONF	2474919	n/a	LTP130	ltpFR	14	7	0	WRENCH	1625	n/a	5	0	n/a	n/a	n/a	n/a	n/a
4951.764	n/a	RECOG_TARGET	2475882	n/a	LTP130	ltpFR	14	7	-1	TREE	1502	1	4	-1	n/a	n/a	n/a	n/a	n/a
4953.216	n/a	RECOG_RESP	2476608	n/a	LTP130	ltpFR	14	7	-1	TREE	1502	1	n/a	-1	n/a	n/a	n/a	n/a	n/a
4954.53	n/a	RECOG_CONF	2477265	n/a	LTP130	ltpFR	14	7	-1	TREE	1502	n/a	4	-1	n/a	n/a	n/a	n/a	n/a
4956.324	n/a	RECOG_TARGET	2478162	n/a	LTP130	ltpFR	14	7	1	RAZOR	1171	1	5	0	n/a	n/a	n/a	n/a	n/a
4957.16	n/a	RECOG_RESP	2478580	n/a	LTP130	ltpFR	14	7	1	RAZOR	1171	1	n/a	0	n/a	n/a	n/a	n/a	n/a
4958.27	n/a	RECOG_CONF	2479135	n/a	LTP130	ltpFR	14	7	1	RAZOR	1171	n/a	5	0	n/a	n/a	n/a	n/a	n/a
4960.184	n/a	RECOG_LURE	2480092	n/a	LTP130	ltpFR	14	7	n/a	TUTU	1524	0	5	n/a	n/a	n/a	n/a	n/a	n/a
4961.75	n/a	RECOG_RESP	2480875	n/a	LTP130	ltpFR	14	7	n/a	TUTU	1524	0	n/a	n/a	n/a	n/a	n/a	n/a	n/a
4963.022	n/a	RECOG_CONF	2481511	n/a	LTP130	ltpFR	14	7	n/a	TUTU	1524	n/a	5	n/a	n/a	n/a	n/a	n/a	n/a
4964.712	n/a	RECOG_TARGET	2482356	n/a	LTP130	ltpFR	14	7	-1	MECHANIC	884	1	5	-1	n/a	n/a	n/a	n/a	n/a
4966.58	n/a	RECOG_RESP	2483290	n/a	LTP130	ltpFR	14	7	-1	MECHANIC	884	1	n/a	-1	n/a	n/a	n/a	n/a	n/a
4967.66	n/a	RECOG_CONF	2483830	n/a	LTP130	ltpFR	14	7	-1	MECHANIC	884	n/a	5	-1	n/a	n/a	n/a	n/a	n/a
4969.704	n/a	RECOG_TARGET	2484852	n/a	LTP130	ltpFR	14	7	0	CONE	363	1	4	0	n/a	n/a	n/a	n/a	n/a
4970.61	n/a	RECOG_RESP	2485305	n/a	LTP130	ltpFR	14	7	0	CONE	363	1	n/a	0	n/a	n/a	n/a	n/a	n/a
4971.726	n/a	RECOG_CONF	2485863	n/a	LTP130	ltpFR	14	7	0	CONE	363	n/a	4	0	n/a	n/a	n/a	n/a	n/a
4973.432	n/a	RECOG_LURE	2486716	n/a	LTP130	ltpFR	14	7	n/a	REFEREE	1178	0	3	n/a	n/a	n/a	n/a	n/a	n/a
4975.506	n/a	RECOG_RESP	2487753	n/a	LTP130	ltpFR	14	7	n/a	REFEREE	1178	0	n/a	n/a	n/a	n/a	n/a	n/a	n/a
4977.228	n/a	RECOG_CONF	2488614	n/a	LTP130	ltpFR	14	7	n/a	REFEREE	1178	n/a	3	n/a	n/a	n/a	n/a	n/a	n/a
4979.156	n/a	RECOG_LURE	2489578	n/a	LTP130	ltpFR	14	7	n/a	COYOTE	396	0	1	n/a	n/a	n/a	n/a	n/a	n/a
4981.456	n/a	RECOG_RESP	2490728	n/a	LTP130	ltpFR	14	7	n/a	COYOTE	396	0	n/a	n/a	n/a	n/a	n/a	n/a	n/a
4983.534	n/a	RECOG_CONF	2491767	n/a	LTP130	ltpFR	14	7	n/a	COYOTE	396	n/a	1	n/a	n/a	n/a	n/a	n/a	n/a
4985.33	n/a	RECOG_TARGET	2492665	n/a	LTP130	ltpFR	14	7	-1	LAMP	798	1	5	-1	n/a	n/a	n/a	n/a	n/a
4986.34	n/a	RECOG_RESP	2493170	n/a	LTP130	ltpFR	14	7	-1	LAMP	798	1	n/a	-1	n/a	n/a	n/a	n/a	n/a
4987.43	n/a	RECOG_CONF	2493715	n/a	LTP130	ltpFR	14	7	-1	LAMP	798	n/a	5	-1	n/a	n/a	n/a	n/a	n/a
4989.242	n/a	RECOG_LURE	2494621	n/a	LTP130	ltpFR	14	7	n/a	GOBLIN	645	0	4	n/a	n/a	n/a	n/a	n/a	n/a
4990.254	n/a	RECOG_RESP	2495127	n/a	LTP130	ltpFR	14	7	n/a	GOBLIN	645	0	n/a	n/a	n/a	n/a	n/a	n/a	n/a
4991.254	n/a	RECOG_CONF	2495627	n/a	LTP130	ltpFR	14	7	n/a	GOBLIN	645	n/a	4	n/a	n/a	n/a	n/a	n/a	n/a
4992.87	n/a	RECOG_LURE	2496435	n/a	LTP130	ltpFR	14	7	n/a	CURTAIN	427	0	2	n/a	n/a	n/a	n/a	n/a	n/a
4998.312	n/a	RECOG_RESP	2499156	n/a	LTP130	ltpFR	14	7	n/a	CURTAIN	427	0	n/a	n/a	n/a	n/a	n/a	n/a	n/a
4999.546	n/a	RECOG_CONF	2499773	n/a	LTP130	ltpFR	14	7	n/a	CURTAIN	427	n/a	2	n/a	n/a	n/a	n/a	n/a	n/a
5001.34	n/a	RECOG_TARGET	2500670	n/a	LTP130	ltpFR	14	7	0	BRIDGE	174	1	5	1	n/a	n/a	n/a	n/a	n/a
5003.98	n/a	RECOG_RESP	2501990	n/a	LTP130	ltpFR	14	7	0	BRIDGE	174	1	n/a	1	n/a	n/a	n/a	n/a	n/a
5005.778	n/a	RECOG_CONF	2502889	n/a	LTP130	ltpFR	14	7	0	BRIDGE	174	n/a	5	1	n/a	n/a	n/a	n/a	n/a
5007.882	n/a	RECOG_TARGET	2503941	n/a	LTP130	ltpFR	14	7	1	HOSTAGE	722	1	5	1	n/a	n/a	n/a	n/a	n/a
5009.294	n/a	RECOG_RESP	2504647	n/a	LTP130	ltpFR	14	7	1	HOSTAGE	722	1	n/a	1	n/a	n/a	n/a	n/a	n/a
5010.522	n/a	RECOG_CONF	2505261	n/a	LTP130	ltpFR	14	7	1	HOSTAGE	722	n/a	5	1	n/a	n/a	n/a	n/a	n/a
5017.07	n/a	REC_START	2508535	n/a	LTP130	ltpFR	14	8	n/a	n/a	n/a	n/a	n/a	n/a	n/a	n/a	n/a	n/a	n/a
5017.1	n/a	RECOG_TARGET	2508550	n/a	LTP130	ltpFR	14	8	-1	BRAKE	166	1	5	-1	n/a	n/a	n/a	n/a	n/a
5017.98	n/a	RECOG_RESP	2508990	n/a	LTP130	ltpFR	14	8	-1	BRAKE	166	1	n/a	-1	n/a	n/a	n/a	n/a	n/a
5018.982	n/a	RECOG_CONF	2509491	n/a	LTP130	ltpFR	14	8	-1	BRAKE	166	n/a	5	-1	n/a	n/a	n/a	n/a	n/a
5020.612	n/a	RECOG_TARGET	2510306	n/a	LTP130	ltpFR	14	8	0	BUILDER	190	1	5	1	n/a	n/a	n/a	n/a	n/a
5021.336	n/a	RECOG_RESP	2510668	n/a	LTP130	ltpFR	14	8	0	BUILDER	190	1	n/a	1	n/a	n/a	n/a	n/a	n/a
5022.36	n/a	RECOG_CONF	2511180	n/a	LTP130	ltpFR	14	8	0	BUILDER	190	n/a	5	1	n/a	n/a	n/a	n/a	n/a
5024.306	n/a	RECOG_LURE	2512153	n/a	LTP130	ltpFR	14	8	n/a	KITTEN	780	0	2	n/a	n/a	n/a	n/a	n/a	n/a
5035.88	n/a	RECOG_RESP	2517940	n/a	LTP130	ltpFR	14	8	n/a	KITTEN	780	0	n/a	n/a	n/a	n/a	n/a	n/a	n/a
5037.566	n/a	RECOG_CONF	2518783	n/a	LTP130	ltpFR	14	8	n/a	KITTEN	780	n/a	2	n/a	n/a	n/a	n/a	n/a	n/a
5039.668	n/a	RECOG_TARGET	2519834	n/a	LTP130	ltpFR	14	8	-1	EMERALD	528	1	5	-1	n/a	n/a	n/a	n/a	n/a
5040.478	n/a	RECOG_RESP	2520239	n/a	LTP130	ltpFR	14	8	-1	EMERALD	528	1	n/a	-1	n/a	n/a	n/a	n/a	n/a
5041.586	n/a	RECOG_CONF	2520793	n/a	LTP130	ltpFR	14	8	-1	EMERALD	528	n/a	5	-1	n/a	n/a	n/a	n/a	n/a
5043.278	n/a	RECOG_TARGET	2521639	n/a	LTP130	ltpFR	14	8	0	BEER	114	1	5	0	n/a	n/a	n/a	n/a	n/a
5043.938	n/a	RECOG_RESP	2521969	n/a	LTP130	ltpFR	14	8	0	BEER	114	1	n/a	0	n/a	n/a	n/a	n/a	n/a
5044.984	n/a	RECOG_CONF	2522492	n/a	LTP130	ltpFR	14	8	0	BEER	114	n/a	5	0	n/a	n/a	n/a	n/a	n/a
5046.656	n/a	RECOG_TARGET	2523328	n/a	LTP130	ltpFR	14	8	-1	BIBLE	124	1	5	-1	n/a	n/a	n/a	n/a	n/a
5047.54	n/a	RECOG_RESP	2523770	n/a	LTP130	ltpFR	14	8	-1	BIBLE	124	1	n/a	-1	n/a	n/a	n/a	n/a	n/a
5048.678	n/a	RECOG_CONF	2524339	n/a	LTP130	ltpFR	14	8	-1	BIBLE	124	n/a	5	-1	n/a	n/a	n/a	n/a	n/a
5050.65	n/a	RECOG_LURE	2525325	n/a	LTP130	ltpFR	14	8	n/a	GREASE	660	0	3	n/a	n/a	n/a	n/a	n/a	n/a
5059.106	n/a	RECOG_RESP	2529553	n/a	LTP130	ltpFR	14	8	n/a	GREASE	660	0	n/a	n/a	n/a	n/a	n/a	n/a	n/a
5061.276	n/a	RECOG_CONF	2530638	n/a	LTP130	ltpFR	14	8	n/a	GREASE	660	n/a	3	n/a	n/a	n/a	n/a	n/a	n/a
5063.232	n/a	RECOG_TARGET	2531616	n/a	LTP130	ltpFR	14	8	-1	MAILBOX	857	1	2	-1	n/a	n/a	n/a	n/a	n/a
5064.322	n/a	RECOG_RESP	2532161	n/a	LTP130	ltpFR	14	8	-1	MAILBOX	857	1	n/a	-1	n/a	n/a	n/a	n/a	n/a
5065.862	n/a	RECOG_CONF	2532931	n/a	LTP130	ltpFR	14	8	-1	MAILBOX	857	n/a	2	-1	n/a	n/a	n/a	n/a	n/a
5067.642	n/a	RECOG_TARGET	2533821	n/a	LTP130	ltpFR	14	8	0	BATHTUB	100	1	4	1	n/a	n/a	n/a	n/a	n/a
5068.552	n/a	RECOG_RESP	2534276	n/a	LTP130	ltpFR	14	8	0	BATHTUB	100	1	n/a	1	n/a	n/a	n/a	n/a	n/a
5069.62	n/a	RECOG_CONF	2534810	n/a	LTP130	ltpFR	14	8	0	BATHTUB	100	n/a	4	1	n/a	n/a	n/a	n/a	n/a
5071.486	n/a	RECOG_TARGET	2535743	n/a	LTP130	ltpFR	14	8	1	ROACH	1195	1	5	1	n/a	n/a	n/a	n/a	n/a
5072.326	n/a	RECOG_RESP	2536163	n/a	LTP130	ltpFR	14	8	1	ROACH	1195	1	n/a	1	n/a	n/a	n/a	n/a	n/a
5073.506	n/a	RECOG_CONF	2536753	n/a	LTP130	ltpFR	14	8	1	ROACH	1195	n/a	5	1	n/a	n/a	n/a	n/a	n/a
5075.464	n/a	RECOG_LURE	2537732	n/a	LTP130	ltpFR	14	8	n/a	JET	756	0	3	n/a	n/a	n/a	n/a	n/a	n/a
5078.086	n/a	RECOG_RESP	2539043	n/a	LTP130	ltpFR	14	8	n/a	JET	756	0	n/a	n/a	n/a	n/a	n/a	n/a	n/a
5079.862	n/a	RECOG_CONF	2539931	n/a	LTP130	ltpFR	14	8	n/a	JET	756	n/a	3	n/a	n/a	n/a	n/a	n/a	n/a
5081.588	n/a	RECOG_TARGET	2540794	n/a	LTP130	ltpFR	14	8	1	SHELTER	1282	n/a	n/a	0	n/a	n/a	n/a	n/a	n/a
5085.85	n/a	RECOG_TARGET	2542925	n/a	LTP130	ltpFR	14	8	0	FEATHER	557	1	5	0	n/a	n/a	n/a	n/a	n/a
5088.49	n/a	RECOG_RESP	2544245	n/a	LTP130	ltpFR	14	8	0	FEATHER	557	1	n/a	0	n/a	n/a	n/a	n/a	n/a
5089.592	n/a	RECOG_CONF	2544796	n/a	LTP130	ltpFR	14	8	0	FEATHER	557	n/a	5	0	n/a	n/a	n/a	n/a	n/a
5091.59	n/a	RECOG_TARGET	2545795	n/a	LTP130	ltpFR	14	8	0	UNIVERSE	1540	1	5	1	n/a	n/a	n/a	n/a	n/a
5093.186	n/a	RECOG_RESP	2546593	n/a	LTP130	ltpFR	14	8	0	UNIVERSE	1540	1	n/a	1	n/a	n/a	n/a	n/a	n/a
5094.52	n/a	RECOG_CONF	2547260	n/a	LTP130	ltpFR	14	8	0	UNIVERSE	1540	n/a	5	1	n/a	n/a	n/a	n/a	n/a
5096.45	n/a	RECOG_TARGET	2548225	n/a	LTP130	ltpFR	14	8	0	BIKE	125	0	2	1	n/a	n/a	n/a	n/a	n/a
5102.114	n/a	RECOG_RESP	2551057	n/a	LTP130	ltpFR	14	8	0	BIKE	125	0	n/a	1	n/a	n/a	n/a	n/a	n/a
5103.604	n/a	RECOG_CONF	2551802	n/a	LTP130	ltpFR	14	8	0	BIKE	125	n/a	2	1	n/a	n/a	n/a	n/a	n/a
