onset	duration	trial_type	sample	stim_file	subject	experiment	session	trial	task	item_name	item_num	recog_conf	resp	color_b	color_g	color_r	case	font
258.752	n/a	SESS_START	129376	n/a	LTP063	ltpFR	1	n/a	n/a	n/a	n/a	n/a	n/a	n/a	n/a	n/a	n/a	n/a
397.802	n/a	WORD	198901	wordpools/wasnorm_wordpool.txt	LTP063	ltpFR	1	1	1	INFANT	737	n/a	1	0	0.5869140625	0.422607421875	lower	../fonts/zerothre.ttf
401.682	n/a	WORD	200841	wordpools/wasnorm_wordpool.txt	LTP063	ltpFR	1	1	1	BUTCHER	203	n/a	1	0	0.5869140625	0.422607421875	lower	../fonts/zerothre.ttf
405.702	n/a	WORD	202851	wordpools/wasnorm_wordpool.txt	LTP063	ltpFR	1	1	0	MONUMENT	913	n/a	1	1	0.412841796875	0.57763671875	upper	../fonts/amplitud.ttf
409.714	n/a	WORD	204857	wordpools/wasnorm_wordpool.txt	LTP063	ltpFR	1	1	0	CORPORATION	382	n/a	1	1	0.412841796875	0.57763671875	upper	../fonts/amplitud.ttf
413.624	n/a	WORD	206812	wordpools/wasnorm_wordpool.txt	LTP063	ltpFR	1	1	0	APE	31	n/a	1	1	0.412841796875	0.57763671875	upper	../fonts/amplitud.ttf
417.62	n/a	WORD	208810	wordpools/wasnorm_wordpool.txt	LTP063	ltpFR	1	1	0	IDOL	733	n/a	1	1	0.412841796875	0.57763671875	upper	../fonts/amplitud.ttf
421.758	n/a	WORD	210879	wordpools/wasnorm_wordpool.txt	LTP063	ltpFR	1	1	0	WITNESS	1618	n/a	1	1	0.412841796875	0.57763671875	upper	../fonts/amplitud.ttf
425.704	n/a	WORD	212852	wordpools/wasnorm_wordpool.txt	LTP063	ltpFR	1	1	0	COURT	391	n/a	1	1	0.412841796875	0.57763671875	upper	../fonts/amplitud.ttf
429.7	n/a	WORD	214850	wordpools/wasnorm_wordpool.txt	LTP063	ltpFR	1	1	1	RAZOR	1171	n/a	0	0	0.5869140625	0.422607421875	lower	../fonts/zerothre.ttf
433.894	n/a	WORD	216947	wordpools/wasnorm_wordpool.txt	LTP063	ltpFR	1	1	1	SCULPTURE	1258	n/a	0	0	0.5869140625	0.422607421875	lower	../fonts/zerothre.ttf
437.89	n/a	WORD	218945	wordpools/wasnorm_wordpool.txt	LTP063	ltpFR	1	1	1	MULE	931	n/a	1	0	0.5869140625	0.422607421875	lower	../fonts/zerothre.ttf
441.96	n/a	WORD	220980	wordpools/wasnorm_wordpool.txt	LTP063	ltpFR	1	1	1	SADDLE	1221	n/a	0	0	0.5869140625	0.422607421875	lower	../fonts/zerothre.ttf
446.014	n/a	WORD	223007	wordpools/wasnorm_wordpool.txt	LTP063	ltpFR	1	1	1	STAPLER	1372	n/a	0	0	0.5869140625	0.422607421875	lower	../fonts/zerothre.ttf
449.942	n/a	WORD	224971	wordpools/wasnorm_wordpool.txt	LTP063	ltpFR	1	1	1	CHEMICAL	291	n/a	0	0	0.5869140625	0.422607421875	lower	../fonts/zerothre.ttf
454.08	n/a	WORD	227040	wordpools/wasnorm_wordpool.txt	LTP063	ltpFR	1	1	0	VAULT	1550	n/a	1	1	0.412841796875	0.57763671875	upper	../fonts/amplitud.ttf
458.108	n/a	WORD	229054	wordpools/wasnorm_wordpool.txt	LTP063	ltpFR	1	1	0	SHEET	1279	n/a	1	1	0.412841796875	0.57763671875	upper	../fonts/amplitud.ttf
464.078	n/a	REC_START	232039	n/a	LTP063	ltpFR	1	1	n/a	n/a	n/a	n/a	n/a	n/a	n/a	n/a	n/a	n/a
467.03	n/a	REC_WORD	233515	wordpools/wasnorm_wordpool.txt	LTP063	ltpFR	1	1	0	SHEET	1279	n/a	1	n/a	n/a	n/a	n/a	n/a
468.902	n/a	REC_WORD	234451	wordpools/wasnorm_wordpool.txt	LTP063	ltpFR	1	1	1	CHEMICAL	291	n/a	0	n/a	n/a	n/a	n/a	n/a
470.662	n/a	REC_WORD	235331	wordpools/wasnorm_wordpool.txt	LTP063	ltpFR	1	1	0	WITNESS	1618	n/a	1	n/a	n/a	n/a	n/a	n/a
472.398	n/a	REC_WORD	236199	wordpools/wasnorm_wordpool.txt	LTP063	ltpFR	1	1	1	BUTCHER	203	n/a	1	n/a	n/a	n/a	n/a	n/a
474.448	n/a	REC_WORD	237224	wordpools/wasnorm_wordpool.txt	LTP063	ltpFR	1	1	0	MONUMENT	913	n/a	1	n/a	n/a	n/a	n/a	n/a
488.806	n/a	REC_WORD	244403	wordpools/wasnorm_wordpool.txt	LTP063	ltpFR	1	1	1	INFANT	737	n/a	1	n/a	n/a	n/a	n/a	n/a
495.68	n/a	REC_WORD	247840	wordpools/wasnorm_wordpool.txt	LTP063	ltpFR	1	1	1	SCULPTURE	1258	n/a	0	n/a	n/a	n/a	n/a	n/a
565.218	n/a	WORD	282609	wordpools/wasnorm_wordpool.txt	LTP063	ltpFR	1	2	0	ENGINEER	536	n/a	1	1	0.412841796875	0.57763671875	upper	../fonts/amplitud.ttf
569.048	n/a	WORD	284524	wordpools/wasnorm_wordpool.txt	LTP063	ltpFR	1	2	0	CASKET	255	n/a	1	1	0.412841796875	0.57763671875	upper	../fonts/amplitud.ttf
573.142	n/a	WORD	286571	wordpools/wasnorm_wordpool.txt	LTP063	ltpFR	1	2	0	FROST	609	n/a	0	1	0.412841796875	0.57763671875	upper	../fonts/amplitud.ttf
577.296	n/a	WORD	288648	wordpools/wasnorm_wordpool.txt	LTP063	ltpFR	1	2	0	FLEA	577	n/a	0	1	0.412841796875	0.57763671875	upper	../fonts/amplitud.ttf
581.198	n/a	WORD	290599	wordpools/wasnorm_wordpool.txt	LTP063	ltpFR	1	2	0	POSSUM	1112	n/a	1	1	0.412841796875	0.57763671875	upper	../fonts/amplitud.ttf
585.32	n/a	WORD	292660	wordpools/wasnorm_wordpool.txt	LTP063	ltpFR	1	2	0	GERM	632	n/a	0	1	0.412841796875	0.57763671875	upper	../fonts/amplitud.ttf
589.322	n/a	WORD	294661	wordpools/wasnorm_wordpool.txt	LTP063	ltpFR	1	2	1	LINEN	825	n/a	0	0	0.5869140625	0.422607421875	lower	../fonts/zerothre.ttf
593.344	n/a	WORD	296672	wordpools/wasnorm_wordpool.txt	LTP063	ltpFR	1	2	1	KLEENEX	782	n/a	0	0	0.5869140625	0.422607421875	lower	../fonts/zerothre.ttf
597.514	n/a	WORD	298757	wordpools/wasnorm_wordpool.txt	LTP063	ltpFR	1	2	1	WATERFALL	1595	n/a	0	0	0.5869140625	0.422607421875	lower	../fonts/zerothre.ttf
601.718	n/a	WORD	300859	wordpools/wasnorm_wordpool.txt	LTP063	ltpFR	1	2	1	REEF	1177	n/a	1	0	0.5869140625	0.422607421875	lower	../fonts/zerothre.ttf
605.596	n/a	WORD	302798	wordpools/wasnorm_wordpool.txt	LTP063	ltpFR	1	2	0	VELVET	1555	n/a	1	1	0.412841796875	0.57763671875	upper	../fonts/amplitud.ttf
609.692	n/a	WORD	304846	wordpools/wasnorm_wordpool.txt	LTP063	ltpFR	1	2	0	COYOTE	396	n/a	1	1	0.412841796875	0.57763671875	upper	../fonts/amplitud.ttf
613.764	n/a	WORD	306882	wordpools/wasnorm_wordpool.txt	LTP063	ltpFR	1	2	1	TERMINAL	1450	n/a	0	0	0.5869140625	0.422607421875	lower	../fonts/zerothre.ttf
617.792	n/a	WORD	308896	wordpools/wasnorm_wordpool.txt	LTP063	ltpFR	1	2	1	WIDOW	1608	n/a	1	0	0.5869140625	0.422607421875	lower	../fonts/zerothre.ttf
621.628	n/a	WORD	310814	wordpools/wasnorm_wordpool.txt	LTP063	ltpFR	1	2	1	CEILING	265	n/a	0	0	0.5869140625	0.422607421875	lower	../fonts/zerothre.ttf
625.548	n/a	WORD	312774	wordpools/wasnorm_wordpool.txt	LTP063	ltpFR	1	2	1	RUG	1215	n/a	0	0	0.5869140625	0.422607421875	lower	../fonts/zerothre.ttf
631.392	n/a	REC_START	315696	n/a	LTP063	ltpFR	1	2	n/a	n/a	n/a	n/a	n/a	n/a	n/a	n/a	n/a	n/a
633.144	n/a	REC_WORD	316572	wordpools/wasnorm_wordpool.txt	LTP063	ltpFR	1	2	1	RUG	1215	n/a	0	n/a	n/a	n/a	n/a	n/a
634.64	n/a	REC_WORD	317320	wordpools/wasnorm_wordpool.txt	LTP063	ltpFR	1	2	1	WIDOW	1608	n/a	1	n/a	n/a	n/a	n/a	n/a
636.874	n/a	REC_WORD	318437	wordpools/wasnorm_wordpool.txt	LTP063	ltpFR	1	2	1	TERMINAL	1450	n/a	0	n/a	n/a	n/a	n/a	n/a
647.67	n/a	REC_WORD	323835	wordpools/wasnorm_wordpool.txt	LTP063	ltpFR	1	2	0	CASKET	255	n/a	1	n/a	n/a	n/a	n/a	n/a
711.034	n/a	WORD	355517	wordpools/wasnorm_wordpool.txt	LTP063	ltpFR	1	3	1	SALESMAN	1225	n/a	1	0	0.5869140625	0.422607421875	lower	../fonts/zerothre.ttf
714.88	n/a	WORD	357440	wordpools/wasnorm_wordpool.txt	LTP063	ltpFR	1	3	1	TECHNICIAN	1443	n/a	1	0	0.5869140625	0.422607421875	lower	../fonts/zerothre.ttf
718.842	n/a	WORD	359421	wordpools/wasnorm_wordpool.txt	LTP063	ltpFR	1	3	1	CHISEL	305	n/a	0	0	0.5869140625	0.422607421875	lower	../fonts/zerothre.ttf
722.97	n/a	WORD	361485	wordpools/wasnorm_wordpool.txt	LTP063	ltpFR	1	3	1	SNEAKER	1334	n/a	0	0	0.5869140625	0.422607421875	lower	../fonts/zerothre.ttf
727.032	n/a	WORD	363516	wordpools/wasnorm_wordpool.txt	LTP063	ltpFR	1	3	1	MOLECULE	905	n/a	1	0	0.5869140625	0.422607421875	lower	../fonts/zerothre.ttf
730.886	n/a	WORD	365443	wordpools/wasnorm_wordpool.txt	LTP063	ltpFR	1	3	0	BLUEPRINT	142	n/a	1	1	0.412841796875	0.57763671875	upper	../fonts/amplitud.ttf
734.974	n/a	WORD	367487	wordpools/wasnorm_wordpool.txt	LTP063	ltpFR	1	3	0	CABIN	211	n/a	1	1	0.412841796875	0.57763671875	upper	../fonts/amplitud.ttf
739.168	n/a	WORD	369584	wordpools/wasnorm_wordpool.txt	LTP063	ltpFR	1	3	0	ZEBRA	1635	n/a	1	1	0.412841796875	0.57763671875	upper	../fonts/amplitud.ttf
743.212	n/a	WORD	371606	wordpools/wasnorm_wordpool.txt	LTP063	ltpFR	1	3	0	SHOVEL	1295	n/a	1	1	0.412841796875	0.57763671875	upper	../fonts/amplitud.ttf
747.266	n/a	WORD	373633	wordpools/wasnorm_wordpool.txt	LTP063	ltpFR	1	3	0	STREAM	1392	n/a	1	1	0.412841796875	0.57763671875	upper	../fonts/amplitud.ttf
751.42	n/a	WORD	375710	wordpools/wasnorm_wordpool.txt	LTP063	ltpFR	1	3	0	RANCH	1166	n/a	1	1	0.412841796875	0.57763671875	upper	../fonts/amplitud.ttf
755.424	n/a	WORD	377712	wordpools/wasnorm_wordpool.txt	LTP063	ltpFR	1	3	1	CHEERLEADER	288	n/a	1	0	0.5869140625	0.422607421875	lower	../fonts/zerothre.ttf
759.594	n/a	WORD	379797	wordpools/wasnorm_wordpool.txt	LTP063	ltpFR	1	3	1	PUZZLE	1146	n/a	0	0	0.5869140625	0.422607421875	lower	../fonts/zerothre.ttf
763.448	n/a	WORD	381724	wordpools/wasnorm_wordpool.txt	LTP063	ltpFR	1	3	1	PIER	1063	n/a	0	0	0.5869140625	0.422607421875	lower	../fonts/zerothre.ttf
767.544	n/a	WORD	383772	wordpools/wasnorm_wordpool.txt	LTP063	ltpFR	1	3	0	BEER	114	n/a	1	1	0.412841796875	0.57763671875	upper	../fonts/amplitud.ttf
771.614	n/a	WORD	385807	wordpools/wasnorm_wordpool.txt	LTP063	ltpFR	1	3	0	BARTENDER	92	n/a	1	1	0.412841796875	0.57763671875	upper	../fonts/amplitud.ttf
777.482	n/a	REC_START	388741	n/a	LTP063	ltpFR	1	3	n/a	n/a	n/a	n/a	n/a	n/a	n/a	n/a	n/a	n/a
779.164	n/a	REC_WORD	389582	wordpools/wasnorm_wordpool.txt	LTP063	ltpFR	1	3	0	BEER	114	n/a	1	n/a	n/a	n/a	n/a	n/a
780.42	n/a	REC_WORD	390210	wordpools/wasnorm_wordpool.txt	LTP063	ltpFR	1	3	0	BARTENDER	92	n/a	1	n/a	n/a	n/a	n/a	n/a
782.696	n/a	REC_WORD	391348	wordpools/wasnorm_wordpool.txt	LTP063	ltpFR	1	3	1	CHISEL	305	n/a	0	n/a	n/a	n/a	n/a	n/a
784.85	n/a	REC_WORD	392425	wordpools/wasnorm_wordpool.txt	LTP063	ltpFR	1	3	0	BLUEPRINT	142	n/a	1	n/a	n/a	n/a	n/a	n/a
787.814	n/a	REC_WORD	393907	wordpools/wasnorm_wordpool.txt	LTP063	ltpFR	1	3	0	CABIN	211	n/a	1	n/a	n/a	n/a	n/a	n/a
790.758	n/a	REC_WORD	395379	wordpools/wasnorm_wordpool.txt	LTP063	ltpFR	1	3	1	TECHNICIAN	1443	n/a	1	n/a	n/a	n/a	n/a	n/a
801.602	n/a	REC_WORD	400801	wordpools/wasnorm_wordpool.txt	LTP063	ltpFR	1	3	0	STREAM	1392	n/a	1	n/a	n/a	n/a	n/a	n/a
806.82	n/a	REC_WORD	403410	wordpools/wasnorm_wordpool.txt	LTP063	ltpFR	1	3	1	MOLECULE	905	n/a	1	n/a	n/a	n/a	n/a	n/a
857.108	n/a	WORD	428554	wordpools/wasnorm_wordpool.txt	LTP063	ltpFR	1	4	1	GAUZE	626	n/a	0	0	0.5869140625	0.422607421875	lower	../fonts/zerothre.ttf
861.13	n/a	WORD	430565	wordpools/wasnorm_wordpool.txt	LTP063	ltpFR	1	4	1	SCALPEL	1243	n/a	0	0	0.5869140625	0.422607421875	lower	../fonts/zerothre.ttf
865.016	n/a	WORD	432508	wordpools/wasnorm_wordpool.txt	LTP063	ltpFR	1	4	1	CEMETERY	269	n/a	0	0	0.5869140625	0.422607421875	lower	../fonts/zerothre.ttf
868.912	n/a	WORD	434456	wordpools/wasnorm_wordpool.txt	LTP063	ltpFR	1	4	1	CIRCUS	311	n/a	1	0	0.5869140625	0.422607421875	lower	../fonts/zerothre.ttf
872.874	n/a	WORD	436437	wordpools/wasnorm_wordpool.txt	LTP063	ltpFR	1	4	1	CLERK	321	n/a	1	0	0.5869140625	0.422607421875	lower	../fonts/zerothre.ttf
876.902	n/a	WORD	438451	wordpools/wasnorm_wordpool.txt	LTP063	ltpFR	1	4	1	CRADLE	399	n/a	0	0	0.5869140625	0.422607421875	lower	../fonts/zerothre.ttf
880.93	n/a	WORD	440465	wordpools/wasnorm_wordpool.txt	LTP063	ltpFR	1	4	1	WHISKERS	1605	n/a	0	0	0.5869140625	0.422607421875	lower	../fonts/zerothre.ttf
885.102	n/a	WORD	442551	wordpools/wasnorm_wordpool.txt	LTP063	ltpFR	1	4	1	GENTLEMAN	631	n/a	1	0	0.5869140625	0.422607421875	lower	../fonts/zerothre.ttf
889.18	n/a	WORD	444590	wordpools/wasnorm_wordpool.txt	LTP063	ltpFR	1	4	1	POOL	1103	n/a	0	0	0.5869140625	0.422607421875	lower	../fonts/zerothre.ttf
893.116	n/a	WORD	446558	wordpools/wasnorm_wordpool.txt	LTP063	ltpFR	1	4	1	TIDE	1465	n/a	0	0	0.5869140625	0.422607421875	lower	../fonts/zerothre.ttf
897.328	n/a	WORD	448664	wordpools/wasnorm_wordpool.txt	LTP063	ltpFR	1	4	1	KING	777	n/a	1	0	0.5869140625	0.422607421875	lower	../fonts/zerothre.ttf
901.498	n/a	WORD	450749	wordpools/wasnorm_wordpool.txt	LTP063	ltpFR	1	4	1	CELLAR	267	n/a	0	0	0.5869140625	0.422607421875	lower	../fonts/zerothre.ttf
905.544	n/a	WORD	452772	wordpools/wasnorm_wordpool.txt	LTP063	ltpFR	1	4	1	ASSISTANT	48	n/a	1	0	0.5869140625	0.422607421875	lower	../fonts/zerothre.ttf
909.438	n/a	WORD	454719	wordpools/wasnorm_wordpool.txt	LTP063	ltpFR	1	4	1	THRONE	1461	n/a	0	0	0.5869140625	0.422607421875	lower	../fonts/zerothre.ttf
913.3	n/a	WORD	456650	wordpools/wasnorm_wordpool.txt	LTP063	ltpFR	1	4	1	MISTER	901	n/a	1	0	0.5869140625	0.422607421875	lower	../fonts/zerothre.ttf
917.304	n/a	WORD	458652	wordpools/wasnorm_wordpool.txt	LTP063	ltpFR	1	4	1	BALCONY	72	n/a	0	0	0.5869140625	0.422607421875	lower	../fonts/zerothre.ttf
923.058	n/a	REC_START	461529	n/a	LTP063	ltpFR	1	4	n/a	n/a	n/a	n/a	n/a	n/a	n/a	n/a	n/a	n/a
925.766	n/a	REC_WORD	462883	wordpools/wasnorm_wordpool.txt	LTP063	ltpFR	1	4	1	KING	777	n/a	1	n/a	n/a	n/a	n/a	n/a
926.894	n/a	REC_WORD	463447	wordpools/wasnorm_wordpool.txt	LTP063	ltpFR	1	4	1	THRONE	1461	n/a	0	n/a	n/a	n/a	n/a	n/a
928.604	n/a	REC_WORD	464302	wordpools/wasnorm_wordpool.txt	LTP063	ltpFR	1	4	1	ASSISTANT	48	n/a	1	n/a	n/a	n/a	n/a	n/a
931.424	n/a	REC_WORD	465712	wordpools/wasnorm_wordpool.txt	LTP063	ltpFR	1	4	1	BALCONY	72	n/a	0	n/a	n/a	n/a	n/a	n/a
949.264	n/a	REC_WORD	474632	wordpools/wasnorm_wordpool.txt	LTP063	ltpFR	1	4	1	SCALPEL	1243	n/a	0	n/a	n/a	n/a	n/a	n/a
951.368	n/a	REC_WORD	475684	wordpools/wasnorm_wordpool.txt	LTP063	ltpFR	1	4	1	GAUZE	626	n/a	0	n/a	n/a	n/a	n/a	n/a
1001.866	n/a	WORD	500933	wordpools/wasnorm_wordpool.txt	LTP063	ltpFR	1	5	0	BOOT	150	n/a	1	1	0.412841796875	0.57763671875	upper	../fonts/amplitud.ttf
1005.738	n/a	WORD	502869	wordpools/wasnorm_wordpool.txt	LTP063	ltpFR	1	5	0	KEEPER	769	n/a	1	1	0.412841796875	0.57763671875	upper	../fonts/amplitud.ttf
1009.59	n/a	WORD	504795	wordpools/wasnorm_wordpool.txt	LTP063	ltpFR	1	5	0	HALL	677	n/a	1	1	0.412841796875	0.57763671875	upper	../fonts/amplitud.ttf
1013.52	n/a	WORD	506760	wordpools/wasnorm_wordpool.txt	LTP063	ltpFR	1	5	0	AIRPLANE	12	n/a	1	1	0.412841796875	0.57763671875	upper	../fonts/amplitud.ttf
1017.606	n/a	WORD	508803	wordpools/wasnorm_wordpool.txt	LTP063	ltpFR	1	5	0	BEAN	105	n/a	0	1	0.412841796875	0.57763671875	upper	../fonts/amplitud.ttf
1021.652	n/a	WORD	510826	wordpools/wasnorm_wordpool.txt	LTP063	ltpFR	1	5	0	BANANA	77	n/a	0	1	0.412841796875	0.57763671875	upper	../fonts/amplitud.ttf
1025.682	n/a	WORD	512841	wordpools/wasnorm_wordpool.txt	LTP063	ltpFR	1	5	0	FRUIT	610	n/a	0	1	0.412841796875	0.57763671875	upper	../fonts/amplitud.ttf
1029.51	n/a	WORD	514755	wordpools/wasnorm_wordpool.txt	LTP063	ltpFR	1	5	0	SCARF	1246	n/a	0	1	0.412841796875	0.57763671875	upper	../fonts/amplitud.ttf
1033.614	n/a	WORD	516807	wordpools/wasnorm_wordpool.txt	LTP063	ltpFR	1	5	0	PEOPLE	1046	n/a	1	1	0.412841796875	0.57763671875	upper	../fonts/amplitud.ttf
1037.476	n/a	WORD	518738	wordpools/wasnorm_wordpool.txt	LTP063	ltpFR	1	5	0	SKIN	1318	n/a	1	1	0.412841796875	0.57763671875	upper	../fonts/amplitud.ttf
1041.52	n/a	WORD	520760	wordpools/wasnorm_wordpool.txt	LTP063	ltpFR	1	5	0	CANVAS	234	n/a	1	1	0.412841796875	0.57763671875	upper	../fonts/amplitud.ttf
1045.4	n/a	WORD	522700	wordpools/wasnorm_wordpool.txt	LTP063	ltpFR	1	5	0	STEWARDESS	1381	n/a	1	1	0.412841796875	0.57763671875	upper	../fonts/amplitud.ttf
1049.236	n/a	WORD	524618	wordpools/wasnorm_wordpool.txt	LTP063	ltpFR	1	5	0	LIME	823	n/a	0	1	0.412841796875	0.57763671875	upper	../fonts/amplitud.ttf
1053.324	n/a	WORD	526662	wordpools/wasnorm_wordpool.txt	LTP063	ltpFR	1	5	0	GAVEL	627	n/a	1	1	0.412841796875	0.57763671875	upper	../fonts/amplitud.ttf
1057.518	n/a	WORD	528759	wordpools/wasnorm_wordpool.txt	LTP063	ltpFR	1	5	0	GRILL	661	n/a	1	1	0.412841796875	0.57763671875	upper	../fonts/amplitud.ttf
1061.414	n/a	WORD	530707	wordpools/wasnorm_wordpool.txt	LTP063	ltpFR	1	5	0	MEAL	882	n/a	1	1	0.412841796875	0.57763671875	upper	../fonts/amplitud.ttf
1067.332	n/a	REC_START	533666	n/a	LTP063	ltpFR	1	5	n/a	n/a	n/a	n/a	n/a	n/a	n/a	n/a	n/a	n/a
1069.078	n/a	REC_WORD	534539	wordpools/wasnorm_wordpool.txt	LTP063	ltpFR	1	5	0	AIRPLANE	12	n/a	1	n/a	n/a	n/a	n/a	n/a
1070.306	n/a	REC_WORD	535153	wordpools/wasnorm_wordpool.txt	LTP063	ltpFR	1	5	0	STEWARDESS	1381	n/a	1	n/a	n/a	n/a	n/a	n/a
1071.952	n/a	REC_WORD	535976	wordpools/wasnorm_wordpool.txt	LTP063	ltpFR	1	5	0	MEAL	882	n/a	1	n/a	n/a	n/a	n/a	n/a
1073.384	n/a	REC_WORD	536692	wordpools/wasnorm_wordpool.txt	LTP063	ltpFR	1	5	0	GRILL	661	n/a	1	n/a	n/a	n/a	n/a	n/a
1082.274	n/a	REC_WORD	541137	wordpools/wasnorm_wordpool.txt	LTP063	ltpFR	1	5	0	SCARF	1246	n/a	0	n/a	n/a	n/a	n/a	n/a
1083.96	n/a	REC_WORD	541980	wordpools/wasnorm_wordpool.txt	LTP063	ltpFR	1	5	0	FRUIT	610	n/a	0	n/a	n/a	n/a	n/a	n/a
1085.596	n/a	REC_WORD	542798	wordpools/wasnorm_wordpool.txt	LTP063	ltpFR	1	5	0	BANANA	77	n/a	0	n/a	n/a	n/a	n/a	n/a
1087.696	n/a	REC_WORD	543848	wordpools/wasnorm_wordpool.txt	LTP063	ltpFR	1	5	0	LIME	823	n/a	0	n/a	n/a	n/a	n/a	n/a
1105.382	n/a	REC_WORD	552691	wordpools/wasnorm_wordpool.txt	LTP063	ltpFR	1	5	1	TIDE	1465	n/a	0	n/a	n/a	n/a	n/a	n/a
1120.234	n/a	REC_WORD	560117	wordpools/wasnorm_wordpool.txt	LTP063	ltpFR	1	5	0	GAVEL	627	n/a	1	n/a	n/a	n/a	n/a	n/a
1146.052	n/a	WORD	573026	wordpools/wasnorm_wordpool.txt	LTP063	ltpFR	1	6	0	CLOTHES	327	n/a	1	1	0.412841796875	0.57763671875	upper	../fonts/amplitud.ttf
1150.254	n/a	WORD	575127	wordpools/wasnorm_wordpool.txt	LTP063	ltpFR	1	6	0	CART	250	n/a	1	1	0.412841796875	0.57763671875	upper	../fonts/amplitud.ttf
1154.39	n/a	WORD	577195	wordpools/wasnorm_wordpool.txt	LTP063	ltpFR	1	6	0	DONKEY	484	n/a	1	1	0.412841796875	0.57763671875	upper	../fonts/amplitud.ttf
1158.252	n/a	WORD	579126	wordpools/wasnorm_wordpool.txt	LTP063	ltpFR	1	6	0	NECKLACE	940	n/a	0	1	0.412841796875	0.57763671875	upper	../fonts/amplitud.ttf
1162.298	n/a	WORD	581149	wordpools/wasnorm_wordpool.txt	LTP063	ltpFR	1	6	0	GEM	629	n/a	0	1	0.412841796875	0.57763671875	upper	../fonts/amplitud.ttf
1166.368	n/a	WORD	583184	wordpools/wasnorm_wordpool.txt	LTP063	ltpFR	1	6	0	CANDIDATE	228	n/a	1	1	0.412841796875	0.57763671875	upper	../fonts/amplitud.ttf
1170.322	n/a	WORD	585161	wordpools/wasnorm_wordpool.txt	LTP063	ltpFR	1	6	0	UNIFORM	1539	n/a	1	1	0.412841796875	0.57763671875	upper	../fonts/amplitud.ttf
1174.468	n/a	WORD	587234	wordpools/wasnorm_wordpool.txt	LTP063	ltpFR	1	6	0	CERAMICS	271	n/a	1	1	0.412841796875	0.57763671875	upper	../fonts/amplitud.ttf
1178.512	n/a	WORD	589256	wordpools/wasnorm_wordpool.txt	LTP063	ltpFR	1	6	0	SIRLOIN	1311	n/a	1	1	0.412841796875	0.57763671875	upper	../fonts/amplitud.ttf
1182.626	n/a	WORD	591313	wordpools/wasnorm_wordpool.txt	LTP063	ltpFR	1	6	0	PARTY	1018	n/a	1	1	0.412841796875	0.57763671875	upper	../fonts/amplitud.ttf
1186.488	n/a	WORD	593244	wordpools/wasnorm_wordpool.txt	LTP063	ltpFR	1	6	0	YARN	1631	n/a	0	1	0.412841796875	0.57763671875	upper	../fonts/amplitud.ttf
1190.392	n/a	WORD	595196	wordpools/wasnorm_wordpool.txt	LTP063	ltpFR	1	6	0	STRANGER	1389	n/a	1	1	0.412841796875	0.57763671875	upper	../fonts/amplitud.ttf
1194.286	n/a	WORD	597143	wordpools/wasnorm_wordpool.txt	LTP063	ltpFR	1	6	0	FELLOW	558	n/a	1	1	0.412841796875	0.57763671875	upper	../fonts/amplitud.ttf
1198.366	n/a	WORD	599183	wordpools/wasnorm_wordpool.txt	LTP063	ltpFR	1	6	0	CLAY	320	n/a	0	1	0.412841796875	0.57763671875	upper	../fonts/amplitud.ttf
1202.51	n/a	WORD	601255	wordpools/wasnorm_wordpool.txt	LTP063	ltpFR	1	6	0	TUBE	1516	n/a	1	1	0.412841796875	0.57763671875	upper	../fonts/amplitud.ttf
1206.664	n/a	WORD	603332	wordpools/wasnorm_wordpool.txt	LTP063	ltpFR	1	6	0	TRAY	1498	n/a	1	1	0.412841796875	0.57763671875	upper	../fonts/amplitud.ttf
1212.374	n/a	REC_START	606187	n/a	LTP063	ltpFR	1	6	n/a	n/a	n/a	n/a	n/a	n/a	n/a	n/a	n/a	n/a
1213.956	n/a	REC_WORD	606978	wordpools/wasnorm_wordpool.txt	LTP063	ltpFR	1	6	0	CERAMICS	271	n/a	1	n/a	n/a	n/a	n/a	n/a
1215.382	n/a	REC_WORD	607691	wordpools/wasnorm_wordpool.txt	LTP063	ltpFR	1	6	0	CLAY	320	n/a	0	n/a	n/a	n/a	n/a	n/a
1216.818	n/a	REC_WORD	608409	wordpools/wasnorm_wordpool.txt	LTP063	ltpFR	1	6	0	TRAY	1498	n/a	1	n/a	n/a	n/a	n/a	n/a
1218.63	n/a	REC_WORD	609315	wordpools/wasnorm_wordpool.txt	LTP063	ltpFR	1	6	0	TUBE	1516	n/a	1	n/a	n/a	n/a	n/a	n/a
1237.542	n/a	REC_WORD	618771	wordpools/wasnorm_wordpool.txt	LTP063	ltpFR	1	6	0	SIRLOIN	1311	n/a	1	n/a	n/a	n/a	n/a	n/a
1299.974	n/a	WORD	649987	wordpools/wasnorm_wordpool.txt	LTP063	ltpFR	1	7	0	LIMB	822	n/a	1	1	0.412841796875	0.57763671875	upper	../fonts/amplitud.ttf
1303.87	n/a	WORD	651935	wordpools/wasnorm_wordpool.txt	LTP063	ltpFR	1	7	0	CONDUCTOR	362	n/a	1	1	0.412841796875	0.57763671875	upper	../fonts/amplitud.ttf
1307.724	n/a	WORD	653862	wordpools/wasnorm_wordpool.txt	LTP063	ltpFR	1	7	1	ROOF	1205	n/a	0	0	0.5869140625	0.422607421875	lower	../fonts/zerothre.ttf
1311.77	n/a	WORD	655885	wordpools/wasnorm_wordpool.txt	LTP063	ltpFR	1	7	1	TENT	1449	n/a	0	0	0.5869140625	0.422607421875	lower	../fonts/zerothre.ttf
1315.832	n/a	WORD	657916	wordpools/wasnorm_wordpool.txt	LTP063	ltpFR	1	7	0	CLOWN	330	n/a	1	1	0.412841796875	0.57763671875	upper	../fonts/amplitud.ttf
1319.71	n/a	WORD	659855	wordpools/wasnorm_wordpool.txt	LTP063	ltpFR	1	7	0	PROFESSOR	1131	n/a	1	1	0.412841796875	0.57763671875	upper	../fonts/amplitud.ttf
1323.604	n/a	WORD	661802	wordpools/wasnorm_wordpool.txt	LTP063	ltpFR	1	7	0	RELATIVE	1182	n/a	1	1	0.412841796875	0.57763671875	upper	../fonts/amplitud.ttf
1327.734	n/a	WORD	663867	wordpools/wasnorm_wordpool.txt	LTP063	ltpFR	1	7	0	FARM	552	n/a	1	1	0.412841796875	0.57763671875	upper	../fonts/amplitud.ttf
1331.62	n/a	WORD	665810	wordpools/wasnorm_wordpool.txt	LTP063	ltpFR	1	7	0	FARMER	553	n/a	1	1	0.412841796875	0.57763671875	upper	../fonts/amplitud.ttf
1335.466	n/a	WORD	667733	wordpools/wasnorm_wordpool.txt	LTP063	ltpFR	1	7	0	KNEE	784	n/a	1	1	0.412841796875	0.57763671875	upper	../fonts/amplitud.ttf
1339.352	n/a	WORD	669676	wordpools/wasnorm_wordpool.txt	LTP063	ltpFR	1	7	1	ROOMMATE	1207	n/a	1	0	0.5869140625	0.422607421875	lower	../fonts/zerothre.ttf
1343.39	n/a	WORD	671695	wordpools/wasnorm_wordpool.txt	LTP063	ltpFR	1	7	1	SURVEY	1414	n/a	0	0	0.5869140625	0.422607421875	lower	../fonts/zerothre.ttf
1347.27	n/a	WORD	673635	wordpools/wasnorm_wordpool.txt	LTP063	ltpFR	1	7	1	TREAT	1501	n/a	0	0	0.5869140625	0.422607421875	lower	../fonts/zerothre.ttf
1351.464	n/a	WORD	675732	wordpools/wasnorm_wordpool.txt	LTP063	ltpFR	1	7	1	LOLLIPOP	842	n/a	0	0	0.5869140625	0.422607421875	lower	../fonts/zerothre.ttf
1355.576	n/a	WORD	677788	wordpools/wasnorm_wordpool.txt	LTP063	ltpFR	1	7	1	NOSE	957	n/a	1	0	0.5869140625	0.422607421875	lower	../fonts/zerothre.ttf
1359.556	n/a	WORD	679778	wordpools/wasnorm_wordpool.txt	LTP063	ltpFR	1	7	1	STEREO	1378	n/a	0	0	0.5869140625	0.422607421875	lower	../fonts/zerothre.ttf
1365.458	n/a	REC_START	682729	n/a	LTP063	ltpFR	1	7	n/a	n/a	n/a	n/a	n/a	n/a	n/a	n/a	n/a	n/a
1366.18	n/a	REC_WORD	683090	wordpools/wasnorm_wordpool.txt	LTP063	ltpFR	1	7	1	STEREO	1378	n/a	0	n/a	n/a	n/a	n/a	n/a
1368.65	n/a	REC_WORD	684325	wordpools/wasnorm_wordpool.txt	LTP063	ltpFR	1	7	1	ROOMMATE	1207	n/a	1	n/a	n/a	n/a	n/a	n/a
1384.07	n/a	REC_WORD	692035	wordpools/wasnorm_wordpool.txt	LTP063	ltpFR	1	7	0	LIMB	822	n/a	1	n/a	n/a	n/a	n/a	n/a
1385.692	n/a	REC_WORD	692846	wordpools/wasnorm_wordpool.txt	LTP063	ltpFR	1	7	0	KNEE	784	n/a	1	n/a	n/a	n/a	n/a	n/a
1387.342	n/a	REC_WORD	693671	wordpools/wasnorm_wordpool.txt	LTP063	ltpFR	1	7	0	CONDUCTOR	362	n/a	1	n/a	n/a	n/a	n/a	n/a
1391.194	n/a	REC_WORD	695597	wordpools/wasnorm_wordpool.txt	LTP063	ltpFR	1	7	1	ASSISTANT	48	n/a	1	n/a	n/a	n/a	n/a	n/a
1401.84	n/a	REC_WORD	700920	wordpools/wasnorm_wordpool.txt	LTP063	ltpFR	1	7	1	TENT	1449	n/a	0	n/a	n/a	n/a	n/a	n/a
1403.346	n/a	REC_WORD	701673	wordpools/wasnorm_wordpool.txt	LTP063	ltpFR	1	7	1	ROOF	1205	n/a	0	n/a	n/a	n/a	n/a	n/a
1443.968	n/a	WORD	721984	wordpools/wasnorm_wordpool.txt	LTP063	ltpFR	1	8	-1	POPCORN	1104	n/a	-1	1	1.0	1.0	upper	../fonts/Verdana.ttf
1448.046	n/a	WORD	724023	wordpools/wasnorm_wordpool.txt	LTP063	ltpFR	1	8	-1	PEANUT	1032	n/a	-1	1	1.0	1.0	upper	../fonts/Verdana.ttf
1451.976	n/a	WORD	725988	wordpools/wasnorm_wordpool.txt	LTP063	ltpFR	1	8	-1	GLUE	643	n/a	-1	1	1.0	1.0	upper	../fonts/Verdana.ttf
1455.846	n/a	WORD	727923	wordpools/wasnorm_wordpool.txt	LTP063	ltpFR	1	8	-1	GUM	672	n/a	-1	1	1.0	1.0	upper	../fonts/Verdana.ttf
1459.9	n/a	WORD	729950	wordpools/wasnorm_wordpool.txt	LTP063	ltpFR	1	8	-1	PEBBLE	1035	n/a	-1	1	1.0	1.0	upper	../fonts/Verdana.ttf
1463.828	n/a	WORD	731914	wordpools/wasnorm_wordpool.txt	LTP063	ltpFR	1	8	-1	HEDGE	699	n/a	-1	1	1.0	1.0	upper	../fonts/Verdana.ttf
1467.914	n/a	WORD	733957	wordpools/wasnorm_wordpool.txt	LTP063	ltpFR	1	8	-1	GRAVE	658	n/a	-1	1	1.0	1.0	upper	../fonts/Verdana.ttf
1471.768	n/a	WORD	735884	wordpools/wasnorm_wordpool.txt	LTP063	ltpFR	1	8	-1	MUSHROOM	934	n/a	-1	1	1.0	1.0	upper	../fonts/Verdana.ttf
1475.63	n/a	WORD	737815	wordpools/wasnorm_wordpool.txt	LTP063	ltpFR	1	8	-1	GRASSHOPPER	656	n/a	-1	1	1.0	1.0	upper	../fonts/Verdana.ttf
1479.784	n/a	WORD	739892	wordpools/wasnorm_wordpool.txt	LTP063	ltpFR	1	8	-1	GODDESS	646	n/a	-1	1	1.0	1.0	upper	../fonts/Verdana.ttf
1483.604	n/a	WORD	741802	wordpools/wasnorm_wordpool.txt	LTP063	ltpFR	1	8	-1	SIREN	1310	n/a	-1	1	1.0	1.0	upper	../fonts/Verdana.ttf
1487.726	n/a	WORD	743863	wordpools/wasnorm_wordpool.txt	LTP063	ltpFR	1	8	-1	BAND	78	n/a	-1	1	1.0	1.0	upper	../fonts/Verdana.ttf
1491.604	n/a	WORD	745802	wordpools/wasnorm_wordpool.txt	LTP063	ltpFR	1	8	-1	VIOLIN	1571	n/a	-1	1	1.0	1.0	upper	../fonts/Verdana.ttf
1495.808	n/a	WORD	747904	wordpools/wasnorm_wordpool.txt	LTP063	ltpFR	1	8	-1	STAIRS	1367	n/a	-1	1	1.0	1.0	upper	../fonts/Verdana.ttf
1499.636	n/a	WORD	749818	wordpools/wasnorm_wordpool.txt	LTP063	ltpFR	1	8	-1	KIDNEY	776	n/a	-1	1	1.0	1.0	upper	../fonts/Verdana.ttf
1503.514	n/a	WORD	751757	wordpools/wasnorm_wordpool.txt	LTP063	ltpFR	1	8	-1	FUNGUS	614	n/a	-1	1	1.0	1.0	upper	../fonts/Verdana.ttf
1509.284	n/a	REC_START	754642	n/a	LTP063	ltpFR	1	8	n/a	n/a	n/a	n/a	n/a	n/a	n/a	n/a	n/a	n/a
1510.162	n/a	REC_WORD	755081	wordpools/wasnorm_wordpool.txt	LTP063	ltpFR	1	8	-1	STAIRS	1367	n/a	-1	n/a	n/a	n/a	n/a	n/a
1511.872	n/a	REC_WORD	755936	wordpools/wasnorm_wordpool.txt	LTP063	ltpFR	1	8	-1	BAND	78	n/a	-1	n/a	n/a	n/a	n/a	n/a
1513.822	n/a	REC_WORD	756911	wordpools/wasnorm_wordpool.txt	LTP063	ltpFR	1	8	-1	VIOLIN	1571	n/a	-1	n/a	n/a	n/a	n/a	n/a
1515.834	n/a	REC_WORD	757917	wordpools/wasnorm_wordpool.txt	LTP063	ltpFR	1	8	-1	KIDNEY	776	n/a	-1	n/a	n/a	n/a	n/a	n/a
1516.952	n/a	REC_WORD	758476	wordpools/wasnorm_wordpool.txt	LTP063	ltpFR	1	8	-1	MUSHROOM	934	n/a	-1	n/a	n/a	n/a	n/a	n/a
1518.574	n/a	REC_WORD	759287	wordpools/wasnorm_wordpool.txt	LTP063	ltpFR	1	8	-1	FUNGUS	614	n/a	-1	n/a	n/a	n/a	n/a	n/a
1520.524	n/a	REC_WORD	760262	wordpools/wasnorm_wordpool.txt	LTP063	ltpFR	1	8	-1	GODDESS	646	n/a	-1	n/a	n/a	n/a	n/a	n/a
1521.97	n/a	REC_WORD	760985	wordpools/wasnorm_wordpool.txt	LTP063	ltpFR	1	8	-1	SIREN	1310	n/a	-1	n/a	n/a	n/a	n/a	n/a
1523.866	n/a	REC_WORD	761933	wordpools/wasnorm_wordpool.txt	LTP063	ltpFR	1	8	-1	HEDGE	699	n/a	-1	n/a	n/a	n/a	n/a	n/a
1525.732	n/a	REC_WORD	762866	wordpools/wasnorm_wordpool.txt	LTP063	ltpFR	1	8	-1	GRASSHOPPER	656	n/a	-1	n/a	n/a	n/a	n/a	n/a
1552.78	n/a	REC_WORD	776390	wordpools/wasnorm_wordpool.txt	LTP063	ltpFR	1	8	0	PARTY	1018	n/a	1	n/a	n/a	n/a	n/a	n/a
1564.764	n/a	REC_WORD	782382	wordpools/wasnorm_wordpool.txt	LTP063	ltpFR	1	8	0	BEAN	105	n/a	0	n/a	n/a	n/a	n/a	n/a
1587.86	n/a	WORD	793930	wordpools/wasnorm_wordpool.txt	LTP063	ltpFR	1	9	1	ANCHOR	21	n/a	0	0	0.5869140625	0.422607421875	lower	../fonts/zerothre.ttf
1592.03	n/a	WORD	796015	wordpools/wasnorm_wordpool.txt	LTP063	ltpFR	1	9	1	POLITICIAN	1099	n/a	1	0	0.5869140625	0.422607421875	lower	../fonts/zerothre.ttf
1595.918	n/a	WORD	797959	wordpools/wasnorm_wordpool.txt	LTP063	ltpFR	1	9	1	HATCHET	691	n/a	0	0	0.5869140625	0.422607421875	lower	../fonts/zerothre.ttf
1599.988	n/a	WORD	799994	wordpools/wasnorm_wordpool.txt	LTP063	ltpFR	1	9	1	BROTHER	179	n/a	1	0	0.5869140625	0.422607421875	lower	../fonts/zerothre.ttf
1604.192	n/a	WORD	802096	wordpools/wasnorm_wordpool.txt	LTP063	ltpFR	1	9	1	SALIVA	1226	n/a	1	0	0.5869140625	0.422607421875	lower	../fonts/zerothre.ttf
1608.352	n/a	WORD	804176	wordpools/wasnorm_wordpool.txt	LTP063	ltpFR	1	9	1	SQUIRREL	1362	n/a	1	0	0.5869140625	0.422607421875	lower	../fonts/zerothre.ttf
1612.414	n/a	WORD	806207	wordpools/wasnorm_wordpool.txt	LTP063	ltpFR	1	9	1	ANCESTOR	20	n/a	1	0	0.5869140625	0.422607421875	lower	../fonts/zerothre.ttf
1616.41	n/a	WORD	808205	wordpools/wasnorm_wordpool.txt	LTP063	ltpFR	1	9	1	JAW	751	n/a	1	0	0.5869140625	0.422607421875	lower	../fonts/zerothre.ttf
1620.448	n/a	WORD	810224	wordpools/wasnorm_wordpool.txt	LTP063	ltpFR	1	9	1	CARD	243	n/a	0	0	0.5869140625	0.422607421875	lower	../fonts/zerothre.ttf
1624.568	n/a	WORD	812284	wordpools/wasnorm_wordpool.txt	LTP063	ltpFR	1	9	1	CASHEW	253	n/a	1	0	0.5869140625	0.422607421875	lower	../fonts/zerothre.ttf
1628.404	n/a	WORD	814202	wordpools/wasnorm_wordpool.txt	LTP063	ltpFR	1	9	1	DICTIONARY	463	n/a	0	0	0.5869140625	0.422607421875	lower	../fonts/zerothre.ttf
1632.424	n/a	WORD	816212	wordpools/wasnorm_wordpool.txt	LTP063	ltpFR	1	9	1	ALMANAC	17	n/a	0	0	0.5869140625	0.422607421875	lower	../fonts/zerothre.ttf
1636.412	n/a	WORD	818206	wordpools/wasnorm_wordpool.txt	LTP063	ltpFR	1	9	1	MECHANIC	884	n/a	1	0	0.5869140625	0.422607421875	lower	../fonts/zerothre.ttf
1640.29	n/a	WORD	820145	wordpools/wasnorm_wordpool.txt	LTP063	ltpFR	1	9	1	BUS	201	n/a	0	0	0.5869140625	0.422607421875	lower	../fonts/zerothre.ttf
1644.154	n/a	WORD	822077	wordpools/wasnorm_wordpool.txt	LTP063	ltpFR	1	9	1	PANTS	1010	n/a	0	0	0.5869140625	0.422607421875	lower	../fonts/zerothre.ttf
1648.066	n/a	WORD	824033	wordpools/wasnorm_wordpool.txt	LTP063	ltpFR	1	9	1	LOOP	844	n/a	0	0	0.5869140625	0.422607421875	lower	../fonts/zerothre.ttf
1653.718	n/a	REC_START	826859	n/a	LTP063	ltpFR	1	9	n/a	n/a	n/a	n/a	n/a	n/a	n/a	n/a	n/a	n/a
1656.308	n/a	REC_WORD	828154	wordpools/wasnorm_wordpool.txt	LTP063	ltpFR	1	9	1	LOOP	844	n/a	0	n/a	n/a	n/a	n/a	n/a
1659.6	n/a	REC_WORD	829800	wordpools/wasnorm_wordpool.txt	LTP063	ltpFR	1	9	1	MECHANIC	884	n/a	1	n/a	n/a	n/a	n/a	n/a
1662.624	n/a	REC_WORD	831312	wordpools/wasnorm_wordpool.txt	LTP063	ltpFR	1	9	1	BUS	201	n/a	0	n/a	n/a	n/a	n/a	n/a
1732.112	n/a	WORD	866056	wordpools/wasnorm_wordpool.txt	LTP063	ltpFR	1	10	-1	GRASS	655	n/a	-1	1	1.0	1.0	upper	../fonts/Verdana.ttf
1736.148	n/a	WORD	868074	wordpools/wasnorm_wordpool.txt	LTP063	ltpFR	1	10	-1	BASKET	95	n/a	-1	1	1.0	1.0	upper	../fonts/Verdana.ttf
1740.318	n/a	WORD	870159	wordpools/wasnorm_wordpool.txt	LTP063	ltpFR	1	10	-1	EAR	513	n/a	-1	1	1.0	1.0	upper	../fonts/Verdana.ttf
1744.362	n/a	WORD	872181	wordpools/wasnorm_wordpool.txt	LTP063	ltpFR	1	10	-1	SHRIMP	1297	n/a	-1	1	1.0	1.0	upper	../fonts/Verdana.ttf
1748.442	n/a	WORD	874221	wordpools/wasnorm_wordpool.txt	LTP063	ltpFR	1	10	-1	DRESSER	496	n/a	-1	1	1.0	1.0	upper	../fonts/Verdana.ttf
1752.528	n/a	WORD	876264	wordpools/wasnorm_wordpool.txt	LTP063	ltpFR	1	10	-1	HOSE	720	n/a	-1	1	1.0	1.0	upper	../fonts/Verdana.ttf
1756.498	n/a	WORD	878249	wordpools/wasnorm_wordpool.txt	LTP063	ltpFR	1	10	-1	ISLAND	745	n/a	-1	1	1.0	1.0	upper	../fonts/Verdana.ttf
1760.444	n/a	WORD	880222	wordpools/wasnorm_wordpool.txt	LTP063	ltpFR	1	10	-1	SCREEN	1253	n/a	-1	1	1.0	1.0	upper	../fonts/Verdana.ttf
1764.53	n/a	WORD	882265	wordpools/wasnorm_wordpool.txt	LTP063	ltpFR	1	10	-1	DIRECTOR	471	n/a	-1	1	1.0	1.0	upper	../fonts/Verdana.ttf
1768.636	n/a	WORD	884318	wordpools/wasnorm_wordpool.txt	LTP063	ltpFR	1	10	-1	EARRING	514	n/a	-1	1	1.0	1.0	upper	../fonts/Verdana.ttf
1772.49	n/a	WORD	886245	wordpools/wasnorm_wordpool.txt	LTP063	ltpFR	1	10	-1	GOBLIN	645	n/a	-1	1	1.0	1.0	upper	../fonts/Verdana.ttf
1776.592	n/a	WORD	888296	wordpools/wasnorm_wordpool.txt	LTP063	ltpFR	1	10	-1	COMET	353	n/a	-1	1	1.0	1.0	upper	../fonts/Verdana.ttf
1780.522	n/a	WORD	890261	wordpools/wasnorm_wordpool.txt	LTP063	ltpFR	1	10	-1	PIPE	1073	n/a	-1	1	1.0	1.0	upper	../fonts/Verdana.ttf
1784.684	n/a	WORD	892342	wordpools/wasnorm_wordpool.txt	LTP063	ltpFR	1	10	-1	SEA	1259	n/a	-1	1	1.0	1.0	upper	../fonts/Verdana.ttf
1788.696	n/a	WORD	894348	wordpools/wasnorm_wordpool.txt	LTP063	ltpFR	1	10	-1	OATMEAL	967	n/a	-1	1	1.0	1.0	upper	../fonts/Verdana.ttf
1792.658	n/a	WORD	896329	wordpools/wasnorm_wordpool.txt	LTP063	ltpFR	1	10	-1	SAUSAGE	1238	n/a	-1	1	1.0	1.0	upper	../fonts/Verdana.ttf
1798.584	n/a	REC_START	899292	n/a	LTP063	ltpFR	1	10	n/a	n/a	n/a	n/a	n/a	n/a	n/a	n/a	n/a	n/a
1799.796	n/a	REC_WORD	899898	wordpools/wasnorm_wordpool.txt	LTP063	ltpFR	1	10	-1	GOBLIN	645	n/a	-1	n/a	n/a	n/a	n/a	n/a
1801.582	n/a	REC_WORD	900791	wordpools/wasnorm_wordpool.txt	LTP063	ltpFR	1	10	-1	GOBLIN	645	n/a	-1	n/a	n/a	n/a	n/a	n/a
1802.6	n/a	REC_WORD	901300	wordpools/wasnorm_wordpool.txt	LTP063	ltpFR	1	10	-1	ISLAND	745	n/a	-1	n/a	n/a	n/a	n/a	n/a
1803.996	n/a	REC_WORD	901998	wordpools/wasnorm_wordpool.txt	LTP063	ltpFR	1	10	-1	SEA	1259	n/a	-1	n/a	n/a	n/a	n/a	n/a
1805.404	n/a	REC_WORD	902702	wordpools/wasnorm_wordpool.txt	LTP063	ltpFR	1	10	-1	OATMEAL	967	n/a	-1	n/a	n/a	n/a	n/a	n/a
1806.576	n/a	REC_WORD	903288	wordpools/wasnorm_wordpool.txt	LTP063	ltpFR	1	10	-1	SAUSAGE	1238	n/a	-1	n/a	n/a	n/a	n/a	n/a
1808.656	n/a	REC_WORD	904328	wordpools/wasnorm_wordpool.txt	LTP063	ltpFR	1	10	-1	GRASS	655	n/a	-1	n/a	n/a	n/a	n/a	n/a
1809.884	n/a	REC_WORD	904942	wordpools/wasnorm_wordpool.txt	LTP063	ltpFR	1	10	-1	BASKET	95	n/a	-1	n/a	n/a	n/a	n/a	n/a
1811.356	n/a	REC_WORD	905678	wordpools/wasnorm_wordpool.txt	LTP063	ltpFR	1	10	-1	EAR	513	n/a	-1	n/a	n/a	n/a	n/a	n/a
1812.708	n/a	REC_WORD	906354	wordpools/wasnorm_wordpool.txt	LTP063	ltpFR	1	10	-1	EARRING	514	n/a	-1	n/a	n/a	n/a	n/a	n/a
1814.782	n/a	REC_WORD	907391	wordpools/wasnorm_wordpool.txt	LTP063	ltpFR	1	10	-1	DRESSER	496	n/a	-1	n/a	n/a	n/a	n/a	n/a
1816.204	n/a	REC_WORD	908102	wordpools/wasnorm_wordpool.txt	LTP063	ltpFR	1	10	-1	DIRECTOR	471	n/a	-1	n/a	n/a	n/a	n/a	n/a
1877.186	n/a	WORD	938593	wordpools/wasnorm_wordpool.txt	LTP063	ltpFR	1	11	-1	WHALE	1601	n/a	-1	1	1.0	1.0	upper	../fonts/Verdana.ttf
1881.098	n/a	WORD	940549	wordpools/wasnorm_wordpool.txt	LTP063	ltpFR	1	11	-1	BEGGAR	117	n/a	-1	1	1.0	1.0	upper	../fonts/Verdana.ttf
1885.252	n/a	WORD	942626	wordpools/wasnorm_wordpool.txt	LTP063	ltpFR	1	11	-1	DOCK	477	n/a	-1	1	1.0	1.0	upper	../fonts/Verdana.ttf
1889.164	n/a	WORD	944582	wordpools/wasnorm_wordpool.txt	LTP063	ltpFR	1	11	-1	CAPTAIN	239	n/a	-1	1	1.0	1.0	upper	../fonts/Verdana.ttf
1893.152	n/a	WORD	946576	wordpools/wasnorm_wordpool.txt	LTP063	ltpFR	1	11	-1	POLYESTER	1100	n/a	-1	1	1.0	1.0	upper	../fonts/Verdana.ttf
1897.13	n/a	WORD	948565	wordpools/wasnorm_wordpool.txt	LTP063	ltpFR	1	11	-1	DIAL	457	n/a	-1	1	1.0	1.0	upper	../fonts/Verdana.ttf
1901.058	n/a	WORD	950529	wordpools/wasnorm_wordpool.txt	LTP063	ltpFR	1	11	-1	CHALK	276	n/a	-1	1	1.0	1.0	upper	../fonts/Verdana.ttf
1905.162	n/a	WORD	952581	wordpools/wasnorm_wordpool.txt	LTP063	ltpFR	1	11	-1	HOOK	715	n/a	-1	1	1.0	1.0	upper	../fonts/Verdana.ttf
1909.264	n/a	WORD	954632	wordpools/wasnorm_wordpool.txt	LTP063	ltpFR	1	11	-1	OFFICE	972	n/a	-1	1	1.0	1.0	upper	../fonts/Verdana.ttf
1913.318	n/a	WORD	956659	wordpools/wasnorm_wordpool.txt	LTP063	ltpFR	1	11	-1	ARTIST	43	n/a	-1	1	1.0	1.0	upper	../fonts/Verdana.ttf
1917.156	n/a	WORD	958578	wordpools/wasnorm_wordpool.txt	LTP063	ltpFR	1	11	-1	NEWSPAPER	948	n/a	-1	1	1.0	1.0	upper	../fonts/Verdana.ttf
1921.094	n/a	WORD	960547	wordpools/wasnorm_wordpool.txt	LTP063	ltpFR	1	11	-1	SLACKS	1323	n/a	-1	1	1.0	1.0	upper	../fonts/Verdana.ttf
1925.014	n/a	WORD	962507	wordpools/wasnorm_wordpool.txt	LTP063	ltpFR	1	11	-1	VIOLA	1570	n/a	-1	1	1.0	1.0	upper	../fonts/Verdana.ttf
1929.01	n/a	WORD	964505	wordpools/wasnorm_wordpool.txt	LTP063	ltpFR	1	11	-1	BUGLE	189	n/a	-1	1	1.0	1.0	upper	../fonts/Verdana.ttf
1933.098	n/a	WORD	966549	wordpools/wasnorm_wordpool.txt	LTP063	ltpFR	1	11	-1	FOLDER	588	n/a	-1	1	1.0	1.0	upper	../fonts/Verdana.ttf
1937.292	n/a	WORD	968646	wordpools/wasnorm_wordpool.txt	LTP063	ltpFR	1	11	-1	WALL	1582	n/a	-1	1	1.0	1.0	upper	../fonts/Verdana.ttf
1943.154	n/a	REC_START	971577	n/a	LTP063	ltpFR	1	11	n/a	n/a	n/a	n/a	n/a	n/a	n/a	n/a	n/a	n/a
1944.296	n/a	REC_WORD	972148	wordpools/wasnorm_wordpool.txt	LTP063	ltpFR	1	11	-1	CAPTAIN	239	n/a	-1	n/a	n/a	n/a	n/a	n/a
1945.572	n/a	REC_WORD	972786	wordpools/wasnorm_wordpool.txt	LTP063	ltpFR	1	11	-1	HOOK	715	n/a	-1	n/a	n/a	n/a	n/a	n/a
1946.95	n/a	REC_WORD	973475	wordpools/wasnorm_wordpool.txt	LTP063	ltpFR	1	11	-1	BEGGAR	117	n/a	-1	n/a	n/a	n/a	n/a	n/a
1948.406	n/a	REC_WORD	974203	wordpools/wasnorm_wordpool.txt	LTP063	ltpFR	1	11	-1	WHALE	1601	n/a	-1	n/a	n/a	n/a	n/a	n/a
1949.764	n/a	REC_WORD	974882	wordpools/wasnorm_wordpool.txt	LTP063	ltpFR	1	11	-1	DOCK	477	n/a	-1	n/a	n/a	n/a	n/a	n/a
1951.076	n/a	REC_WORD	975538	wordpools/wasnorm_wordpool.txt	LTP063	ltpFR	1	11	-1	OFFICE	972	n/a	-1	n/a	n/a	n/a	n/a	n/a
1952.546	n/a	REC_WORD	976273	wordpools/wasnorm_wordpool.txt	LTP063	ltpFR	1	11	-1	ARTIST	43	n/a	-1	n/a	n/a	n/a	n/a	n/a
1953.994	n/a	REC_WORD	976997	wordpools/wasnorm_wordpool.txt	LTP063	ltpFR	1	11	-1	WALL	1582	n/a	-1	n/a	n/a	n/a	n/a	n/a
1955.704	n/a	REC_WORD	977852	wordpools/wasnorm_wordpool.txt	LTP063	ltpFR	1	11	n/a	BOULDER	155	n/a	n/a	n/a	n/a	n/a	n/a	n/a
1957.88	n/a	REC_WORD	978940	wordpools/wasnorm_wordpool.txt	LTP063	ltpFR	1	11	-1	NEWSPAPER	948	n/a	-1	n/a	n/a	n/a	n/a	n/a
1959.586	n/a	REC_WORD	979793	wordpools/wasnorm_wordpool.txt	LTP063	ltpFR	1	11	-1	SLACKS	1323	n/a	-1	n/a	n/a	n/a	n/a	n/a
1961.536	n/a	REC_WORD	980768	wordpools/wasnorm_wordpool.txt	LTP063	ltpFR	1	11	-1	POLYESTER	1100	n/a	-1	n/a	n/a	n/a	n/a	n/a
1964.07	n/a	REC_WORD	982035	wordpools/wasnorm_wordpool.txt	LTP063	ltpFR	1	11	-1	DIAL	457	n/a	-1	n/a	n/a	n/a	n/a	n/a
2018.0	n/a	REC_WORD_VV	1009000	wordpools/wasnorm_wordpool.txt	LTP063	ltpFR	1	11	n/a	<>	-1	n/a	n/a	n/a	n/a	n/a	n/a	n/a
2023.934	n/a	WORD	1011967	wordpools/wasnorm_wordpool.txt	LTP063	ltpFR	1	12	0	SHRINE	1298	n/a	1	1	0.412841796875	0.57763671875	upper	../fonts/amplitud.ttf
2028.046	n/a	WORD	1014023	wordpools/wasnorm_wordpool.txt	LTP063	ltpFR	1	12	0	BODY	145	n/a	1	1	0.412841796875	0.57763671875	upper	../fonts/amplitud.ttf
2031.976	n/a	WORD	1015988	wordpools/wasnorm_wordpool.txt	LTP063	ltpFR	1	12	0	PICTURE	1061	n/a	1	1	0.412841796875	0.57763671875	upper	../fonts/amplitud.ttf
2035.97	n/a	WORD	1017985	wordpools/wasnorm_wordpool.txt	LTP063	ltpFR	1	12	0	ATLAS	53	n/a	1	1	0.412841796875	0.57763671875	upper	../fonts/amplitud.ttf
2040.0	n/a	WORD	1020000	wordpools/wasnorm_wordpool.txt	LTP063	ltpFR	1	12	0	PISTON	1076	n/a	0	1	0.412841796875	0.57763671875	upper	../fonts/amplitud.ttf
2044.028	n/a	WORD	1022014	wordpools/wasnorm_wordpool.txt	LTP063	ltpFR	1	12	0	SKELETON	1314	n/a	1	1	0.412841796875	0.57763671875	upper	../fonts/amplitud.ttf
2047.998	n/a	WORD	1023999	wordpools/wasnorm_wordpool.txt	LTP063	ltpFR	1	12	0	MAN	862	n/a	1	1	0.412841796875	0.57763671875	upper	../fonts/amplitud.ttf
2052.068	n/a	WORD	1026034	wordpools/wasnorm_wordpool.txt	LTP063	ltpFR	1	12	0	MONEY	908	n/a	0	1	0.412841796875	0.57763671875	upper	../fonts/amplitud.ttf
2056.09	n/a	WORD	1028045	wordpools/wasnorm_wordpool.txt	LTP063	ltpFR	1	12	0	NOOSE	956	n/a	0	1	0.412841796875	0.57763671875	upper	../fonts/amplitud.ttf
2059.952	n/a	WORD	1029976	wordpools/wasnorm_wordpool.txt	LTP063	ltpFR	1	12	0	WOMAN	1620	n/a	1	1	0.412841796875	0.57763671875	upper	../fonts/amplitud.ttf
2064.022	n/a	WORD	1032011	wordpools/wasnorm_wordpool.txt	LTP063	ltpFR	1	12	0	STRAWBERRY	1391	n/a	0	1	0.412841796875	0.57763671875	upper	../fonts/amplitud.ttf
2067.892	n/a	WORD	1033946	wordpools/wasnorm_wordpool.txt	LTP063	ltpFR	1	12	0	ICING	732	n/a	0	1	0.412841796875	0.57763671875	upper	../fonts/amplitud.ttf
2071.854	n/a	WORD	1035927	wordpools/wasnorm_wordpool.txt	LTP063	ltpFR	1	12	0	COMMANDER	354	n/a	1	1	0.412841796875	0.57763671875	upper	../fonts/amplitud.ttf
2076.058	n/a	WORD	1038029	wordpools/wasnorm_wordpool.txt	LTP063	ltpFR	1	12	0	COLONEL	348	n/a	1	1	0.412841796875	0.57763671875	upper	../fonts/amplitud.ttf
2080.102	n/a	WORD	1040051	wordpools/wasnorm_wordpool.txt	LTP063	ltpFR	1	12	0	COUNTY	389	n/a	1	1	0.412841796875	0.57763671875	upper	../fonts/amplitud.ttf
2084.056	n/a	WORD	1042028	wordpools/wasnorm_wordpool.txt	LTP063	ltpFR	1	12	0	CAPITAL	238	n/a	1	1	0.412841796875	0.57763671875	upper	../fonts/amplitud.ttf
2089.808	n/a	REC_START	1044904	n/a	LTP063	ltpFR	1	12	n/a	n/a	n/a	n/a	n/a	n/a	n/a	n/a	n/a	n/a
2091.788	n/a	REC_WORD	1045894	wordpools/wasnorm_wordpool.txt	LTP063	ltpFR	1	12	0	SHRINE	1298	n/a	1	n/a	n/a	n/a	n/a	n/a
2093.116	n/a	REC_WORD	1046558	wordpools/wasnorm_wordpool.txt	LTP063	ltpFR	1	12	0	MAN	862	n/a	1	n/a	n/a	n/a	n/a	n/a
2096.128	n/a	REC_WORD	1048064	wordpools/wasnorm_wordpool.txt	LTP063	ltpFR	1	12	0	PICTURE	1061	n/a	1	n/a	n/a	n/a	n/a	n/a
2099.022	n/a	REC_WORD	1049511	wordpools/wasnorm_wordpool.txt	LTP063	ltpFR	1	12	0	BODY	145	n/a	1	n/a	n/a	n/a	n/a	n/a
2100.09	n/a	REC_WORD	1050045	wordpools/wasnorm_wordpool.txt	LTP063	ltpFR	1	12	0	SKELETON	1314	n/a	1	n/a	n/a	n/a	n/a	n/a
2102.656	n/a	REC_WORD	1051328	wordpools/wasnorm_wordpool.txt	LTP063	ltpFR	1	12	0	WOMAN	1620	n/a	1	n/a	n/a	n/a	n/a	n/a
2106.656	n/a	REC_WORD	1053328	wordpools/wasnorm_wordpool.txt	LTP063	ltpFR	1	12	0	STRAWBERRY	1391	n/a	0	n/a	n/a	n/a	n/a	n/a
2108.632	n/a	REC_WORD	1054316	wordpools/wasnorm_wordpool.txt	LTP063	ltpFR	1	12	0	ICING	732	n/a	0	n/a	n/a	n/a	n/a	n/a
2111.156	n/a	REC_WORD	1055578	wordpools/wasnorm_wordpool.txt	LTP063	ltpFR	1	12	0	COMMANDER	354	n/a	1	n/a	n/a	n/a	n/a	n/a
2114.03	n/a	REC_WORD	1057015	wordpools/wasnorm_wordpool.txt	LTP063	ltpFR	1	12	0	COLONEL	348	n/a	1	n/a	n/a	n/a	n/a	n/a
2116.194	n/a	REC_WORD	1058097	wordpools/wasnorm_wordpool.txt	LTP063	ltpFR	1	12	0	COUNTY	389	n/a	1	n/a	n/a	n/a	n/a	n/a
2118.11	n/a	REC_WORD	1059055	wordpools/wasnorm_wordpool.txt	LTP063	ltpFR	1	12	0	CAPITAL	238	n/a	1	n/a	n/a	n/a	n/a	n/a
2165.412	n/a	REST_REWET	1082706	n/a	LTP063	ltpFR	1	12	n/a	n/a	n/a	n/a	n/a	n/a	n/a	n/a	n/a	n/a
2802.79	n/a	WORD	1401395	wordpools/wasnorm_wordpool.txt	LTP063	ltpFR	1	13	0	OTTER	986	n/a	1	1	0.412841796875	0.57763671875	upper	../fonts/amplitud.ttf
2806.834	n/a	WORD	1403417	wordpools/wasnorm_wordpool.txt	LTP063	ltpFR	1	13	0	MOOSE	915	n/a	1	1	0.412841796875	0.57763671875	upper	../fonts/amplitud.ttf
2811.004	n/a	WORD	1405502	wordpools/wasnorm_wordpool.txt	LTP063	ltpFR	1	13	1	SCARECROW	1245	n/a	1	0	0.5869140625	0.422607421875	lower	../fonts/zerothre.ttf
2814.976	n/a	WORD	1407488	wordpools/wasnorm_wordpool.txt	LTP063	ltpFR	1	13	1	TROMBONE	1508	n/a	0	0	0.5869140625	0.422607421875	lower	../fonts/zerothre.ttf
2819.054	n/a	WORD	1409527	wordpools/wasnorm_wordpool.txt	LTP063	ltpFR	1	13	1	PICKLE	1059	n/a	0	0	0.5869140625	0.422607421875	lower	../fonts/zerothre.ttf
2822.9	n/a	WORD	1411450	wordpools/wasnorm_wordpool.txt	LTP063	ltpFR	1	13	0	DILL	465	n/a	3	1	0.412841796875	0.57763671875	upper	../fonts/amplitud.ttf
2824.914	n/a	KEY_MSG	1412457	n/a	LTP063	ltpFR	1	13	n/a	n/a	n/a	n/a	n/a	n/a	n/a	n/a	n/a	n/a
2827.534	n/a	WORD	1413767	wordpools/wasnorm_wordpool.txt	LTP063	ltpFR	1	13	0	RUNNER	1218	n/a	1	1	0.412841796875	0.57763671875	upper	../fonts/amplitud.ttf
2831.396	n/a	WORD	1415698	wordpools/wasnorm_wordpool.txt	LTP063	ltpFR	1	13	0	HEADBAND	696	n/a	0	1	0.412841796875	0.57763671875	upper	../fonts/amplitud.ttf
2835.434	n/a	WORD	1417717	wordpools/wasnorm_wordpool.txt	LTP063	ltpFR	1	13	0	CHAUFFEUR	283	n/a	1	1	0.412841796875	0.57763671875	upper	../fonts/amplitud.ttf
2839.562	n/a	WORD	1419781	wordpools/wasnorm_wordpool.txt	LTP063	ltpFR	1	13	1	PIRATE	1074	n/a	1	0	0.5869140625	0.422607421875	lower	../fonts/zerothre.ttf
2843.766	n/a	WORD	1421883	wordpools/wasnorm_wordpool.txt	LTP063	ltpFR	1	13	1	TUB	1514	n/a	0	0	0.5869140625	0.422607421875	lower	../fonts/zerothre.ttf
2847.594	n/a	WORD	1423797	wordpools/wasnorm_wordpool.txt	LTP063	ltpFR	1	13	1	CUE	422	n/a	0	0	0.5869140625	0.422607421875	lower	../fonts/zerothre.ttf
2851.474	n/a	WORD	1425737	wordpools/wasnorm_wordpool.txt	LTP063	ltpFR	1	13	1	ELBOW	520	n/a	1	0	0.5869140625	0.422607421875	lower	../fonts/zerothre.ttf
2855.378	n/a	WORD	1427689	wordpools/wasnorm_wordpool.txt	LTP063	ltpFR	1	13	1	WALRUS	1585	n/a	1	0	0.5869140625	0.422607421875	lower	../fonts/zerothre.ttf
2859.382	n/a	WORD	1429691	wordpools/wasnorm_wordpool.txt	LTP063	ltpFR	1	13	0	NOTE	958	n/a	0	1	0.412841796875	0.57763671875	upper	../fonts/amplitud.ttf
2863.402	n/a	WORD	1431701	wordpools/wasnorm_wordpool.txt	LTP063	ltpFR	1	13	0	PADDLE	1000	n/a	0	1	0.412841796875	0.57763671875	upper	../fonts/amplitud.ttf
2869.08	n/a	REC_START	1434540	n/a	LTP063	ltpFR	1	13	n/a	n/a	n/a	n/a	n/a	n/a	n/a	n/a	n/a	n/a
2871.77	n/a	REC_WORD	1435885	wordpools/wasnorm_wordpool.txt	LTP063	ltpFR	1	13	0	MOOSE	915	n/a	1	n/a	n/a	n/a	n/a	n/a
2873.026	n/a	REC_WORD	1436513	wordpools/wasnorm_wordpool.txt	LTP063	ltpFR	1	13	0	OTTER	986	n/a	1	n/a	n/a	n/a	n/a	n/a
2874.766	n/a	REC_WORD	1437383	wordpools/wasnorm_wordpool.txt	LTP063	ltpFR	1	13	1	SCARECROW	1245	n/a	1	n/a	n/a	n/a	n/a	n/a
2877.72	n/a	REC_WORD	1438860	wordpools/wasnorm_wordpool.txt	LTP063	ltpFR	1	13	0	PADDLE	1000	n/a	0	n/a	n/a	n/a	n/a	n/a
2916.668	n/a	REC_WORD	1458334	wordpools/wasnorm_wordpool.txt	LTP063	ltpFR	1	13	1	TUB	1514	n/a	0	n/a	n/a	n/a	n/a	n/a
2949.412	n/a	WORD	1474706	wordpools/wasnorm_wordpool.txt	LTP063	ltpFR	1	14	1	COUGAR	387	n/a	1	0	0.5869140625	0.422607421875	lower	../fonts/zerothre.ttf
2953.308	n/a	WORD	1476654	wordpools/wasnorm_wordpool.txt	LTP063	ltpFR	1	14	1	PERISCOPE	1050	n/a	0	0	0.5869140625	0.422607421875	lower	../fonts/zerothre.ttf
2957.286	n/a	WORD	1478643	wordpools/wasnorm_wordpool.txt	LTP063	ltpFR	1	14	1	NUCLEUS	961	n/a	1	0	0.5869140625	0.422607421875	lower	../fonts/zerothre.ttf
2961.482	n/a	WORD	1480741	wordpools/wasnorm_wordpool.txt	LTP063	ltpFR	1	14	0	SHAMPOO	1274	n/a	0	1	0.412841796875	0.57763671875	upper	../fonts/amplitud.ttf
2965.386	n/a	WORD	1482693	wordpools/wasnorm_wordpool.txt	LTP063	ltpFR	1	14	0	ACTOR	5	n/a	1	1	0.412841796875	0.57763671875	upper	../fonts/amplitud.ttf
2969.198	n/a	WORD	1484599	wordpools/wasnorm_wordpool.txt	LTP063	ltpFR	1	14	0	ACTRESS	6	n/a	1	1	0.412841796875	0.57763671875	upper	../fonts/amplitud.ttf
2973.318	n/a	WORD	1486659	wordpools/wasnorm_wordpool.txt	LTP063	ltpFR	1	14	0	PAW	1029	n/a	1	1	0.412841796875	0.57763671875	upper	../fonts/amplitud.ttf
2977.254	n/a	WORD	1488627	wordpools/wasnorm_wordpool.txt	LTP063	ltpFR	1	14	1	TEAM	1441	n/a	1	0	0.5869140625	0.422607421875	lower	../fonts/zerothre.ttf
2981.218	n/a	WORD	1490609	wordpools/wasnorm_wordpool.txt	LTP063	ltpFR	1	14	1	KITTEN	780	n/a	1	0	0.5869140625	0.422607421875	lower	../fonts/zerothre.ttf
2985.222	n/a	WORD	1492611	wordpools/wasnorm_wordpool.txt	LTP063	ltpFR	1	14	1	PREDATOR	1120	n/a	1	0	0.5869140625	0.422607421875	lower	../fonts/zerothre.ttf
2989.274	n/a	WORD	1494637	wordpools/wasnorm_wordpool.txt	LTP063	ltpFR	1	14	0	SPATULA	1348	n/a	0	1	0.412841796875	0.57763671875	upper	../fonts/amplitud.ttf
2993.138	n/a	WORD	1496569	wordpools/wasnorm_wordpool.txt	LTP063	ltpFR	1	14	0	ACORN	3	n/a	0	1	0.412841796875	0.57763671875	upper	../fonts/amplitud.ttf
2997.174	n/a	WORD	1498587	wordpools/wasnorm_wordpool.txt	LTP063	ltpFR	1	14	0	LITERATURE	831	n/a	1	1	0.412841796875	0.57763671875	upper	../fonts/amplitud.ttf
3001.286	n/a	WORD	1500643	wordpools/wasnorm_wordpool.txt	LTP063	ltpFR	1	14	0	VEST	1559	n/a	0	1	0.412841796875	0.57763671875	upper	../fonts/amplitud.ttf
3005.43	n/a	WORD	1502715	wordpools/wasnorm_wordpool.txt	LTP063	ltpFR	1	14	1	SHORTS	1293	n/a	0	0	0.5869140625	0.422607421875	lower	../fonts/zerothre.ttf
3009.558	n/a	WORD	1504779	wordpools/wasnorm_wordpool.txt	LTP063	ltpFR	1	14	1	SILVERWARE	1308	n/a	0	0	0.5869140625	0.422607421875	lower	../fonts/zerothre.ttf
3015.544	n/a	REC_START	1507772	n/a	LTP063	ltpFR	1	14	n/a	n/a	n/a	n/a	n/a	n/a	n/a	n/a	n/a	n/a
3016.866	n/a	REC_WORD	1508433	wordpools/wasnorm_wordpool.txt	LTP063	ltpFR	1	14	0	LITERATURE	831	n/a	1	n/a	n/a	n/a	n/a	n/a
3019.944	n/a	REC_WORD	1509972	wordpools/wasnorm_wordpool.txt	LTP063	ltpFR	1	14	0	VEST	1559	n/a	0	n/a	n/a	n/a	n/a	n/a
3042.39	n/a	REC_WORD	1521195	wordpools/wasnorm_wordpool.txt	LTP063	ltpFR	1	14	0	PAW	1029	n/a	1	n/a	n/a	n/a	n/a	n/a
3043.776	n/a	REC_WORD	1521888	wordpools/wasnorm_wordpool.txt	LTP063	ltpFR	1	14	0	ACTOR	5	n/a	1	n/a	n/a	n/a	n/a	n/a
3045.852	n/a	REC_WORD	1522926	wordpools/wasnorm_wordpool.txt	LTP063	ltpFR	1	14	0	ACTRESS	6	n/a	1	n/a	n/a	n/a	n/a	n/a
3047.738	n/a	REC_WORD	1523869	wordpools/wasnorm_wordpool.txt	LTP063	ltpFR	1	14	0	SHAMPOO	1274	n/a	0	n/a	n/a	n/a	n/a	n/a
3079.316	n/a	REC_WORD	1539658	wordpools/wasnorm_wordpool.txt	LTP063	ltpFR	1	14	1	COUGAR	387	n/a	1	n/a	n/a	n/a	n/a	n/a
3080.234	n/a	REC_WORD	1540117	wordpools/wasnorm_wordpool.txt	LTP063	ltpFR	1	14	1	PREDATOR	1120	n/a	1	n/a	n/a	n/a	n/a	n/a
3084.084	n/a	REC_WORD	1542042	wordpools/wasnorm_wordpool.txt	LTP063	ltpFR	1	14	1	KITTEN	780	n/a	1	n/a	n/a	n/a	n/a	n/a
3095.07	n/a	WORD	1547535	wordpools/wasnorm_wordpool.txt	LTP063	ltpFR	1	15	-1	CAN	225	n/a	-1	1	1.0	1.0	upper	../fonts/Verdana.ttf
3099.116	n/a	WORD	1549558	wordpools/wasnorm_wordpool.txt	LTP063	ltpFR	1	15	-1	WALNUT	1584	n/a	-1	1	1.0	1.0	upper	../fonts/Verdana.ttf
3102.928	n/a	WORD	1551464	wordpools/wasnorm_wordpool.txt	LTP063	ltpFR	1	15	-1	STOVE	1388	n/a	-1	1	1.0	1.0	upper	../fonts/Verdana.ttf
3107.098	n/a	WORD	1553549	wordpools/wasnorm_wordpool.txt	LTP063	ltpFR	1	15	-1	SINK	1309	n/a	-1	1	1.0	1.0	upper	../fonts/Verdana.ttf
3110.994	n/a	WORD	1555497	wordpools/wasnorm_wordpool.txt	LTP063	ltpFR	1	15	-1	MARSH	874	n/a	-1	1	1.0	1.0	upper	../fonts/Verdana.ttf
3115.08	n/a	WORD	1557540	wordpools/wasnorm_wordpool.txt	LTP063	ltpFR	1	15	-1	SATURN	1236	n/a	-1	1	1.0	1.0	upper	../fonts/Verdana.ttf
3119.002	n/a	WORD	1559501	wordpools/wasnorm_wordpool.txt	LTP063	ltpFR	1	15	-1	FUR	615	n/a	-1	1	1.0	1.0	upper	../fonts/Verdana.ttf
3123.146	n/a	WORD	1561573	wordpools/wasnorm_wordpool.txt	LTP063	ltpFR	1	15	-1	NUT	965	n/a	-1	1	1.0	1.0	upper	../fonts/Verdana.ttf
3127.076	n/a	WORD	1563538	wordpools/wasnorm_wordpool.txt	LTP063	ltpFR	1	15	-1	FRIES	607	n/a	-1	1	1.0	1.0	upper	../fonts/Verdana.ttf
3131.012	n/a	WORD	1565506	wordpools/wasnorm_wordpool.txt	LTP063	ltpFR	1	15	-1	CLIMBER	323	n/a	-1	1	1.0	1.0	upper	../fonts/Verdana.ttf
3134.932	n/a	WORD	1567466	wordpools/wasnorm_wordpool.txt	LTP063	ltpFR	1	15	-1	CRUMB	416	n/a	-1	1	1.0	1.0	upper	../fonts/Verdana.ttf
3138.894	n/a	WORD	1569447	wordpools/wasnorm_wordpool.txt	LTP063	ltpFR	1	15	-1	PAPER	1011	n/a	-1	1	1.0	1.0	upper	../fonts/Verdana.ttf
3142.848	n/a	WORD	1571424	wordpools/wasnorm_wordpool.txt	LTP063	ltpFR	1	15	-1	PENCIL	1042	n/a	-1	1	1.0	1.0	upper	../fonts/Verdana.ttf
3146.936	n/a	WORD	1573468	wordpools/wasnorm_wordpool.txt	LTP063	ltpFR	1	15	-1	UNIVERSE	1540	n/a	-1	1	1.0	1.0	upper	../fonts/Verdana.ttf
3151.09	n/a	WORD	1575545	wordpools/wasnorm_wordpool.txt	LTP063	ltpFR	1	15	-1	ROBBER	1197	n/a	-1	1	1.0	1.0	upper	../fonts/Verdana.ttf
3155.076	n/a	WORD	1577538	wordpools/wasnorm_wordpool.txt	LTP063	ltpFR	1	15	-1	BURGLAR	200	n/a	-1	1	1.0	1.0	upper	../fonts/Verdana.ttf
3160.796	n/a	REC_START	1580398	n/a	LTP063	ltpFR	1	15	n/a	n/a	n/a	n/a	n/a	n/a	n/a	n/a	n/a	n/a
3164.148	n/a	REC_WORD	1582074	wordpools/wasnorm_wordpool.txt	LTP063	ltpFR	1	15	-1	STOVE	1388	n/a	-1	n/a	n/a	n/a	n/a	n/a
3165.52	n/a	REC_WORD	1582760	wordpools/wasnorm_wordpool.txt	LTP063	ltpFR	1	15	-1	WALNUT	1584	n/a	-1	n/a	n/a	n/a	n/a	n/a
3166.966	n/a	REC_WORD	1583483	wordpools/wasnorm_wordpool.txt	LTP063	ltpFR	1	15	-1	NUT	965	n/a	-1	n/a	n/a	n/a	n/a	n/a
3169.676	n/a	REC_WORD	1584838	wordpools/wasnorm_wordpool.txt	LTP063	ltpFR	1	15	-1	MARSH	874	n/a	-1	n/a	n/a	n/a	n/a	n/a
3171.008	n/a	REC_WORD	1585504	wordpools/wasnorm_wordpool.txt	LTP063	ltpFR	1	15	-1	SINK	1309	n/a	-1	n/a	n/a	n/a	n/a	n/a
3173.81	n/a	REC_WORD	1586905	wordpools/wasnorm_wordpool.txt	LTP063	ltpFR	1	15	-1	UNIVERSE	1540	n/a	-1	n/a	n/a	n/a	n/a	n/a
3174.914	n/a	REC_WORD	1587457	wordpools/wasnorm_wordpool.txt	LTP063	ltpFR	1	15	-1	SATURN	1236	n/a	-1	n/a	n/a	n/a	n/a	n/a
3180.426	n/a	REC_WORD	1590213	wordpools/wasnorm_wordpool.txt	LTP063	ltpFR	1	15	-1	BURGLAR	200	n/a	-1	n/a	n/a	n/a	n/a	n/a
3181.544	n/a	REC_WORD	1590772	wordpools/wasnorm_wordpool.txt	LTP063	ltpFR	1	15	-1	ROBBER	1197	n/a	-1	n/a	n/a	n/a	n/a	n/a
3183.15	n/a	REC_WORD	1591575	wordpools/wasnorm_wordpool.txt	LTP063	ltpFR	1	15	-1	PENCIL	1042	n/a	-1	n/a	n/a	n/a	n/a	n/a
3184.296	n/a	REC_WORD	1592148	wordpools/wasnorm_wordpool.txt	LTP063	ltpFR	1	15	-1	PAPER	1011	n/a	-1	n/a	n/a	n/a	n/a	n/a
3223.998	n/a	REC_WORD	1611999	wordpools/wasnorm_wordpool.txt	LTP063	ltpFR	1	15	-1	CLIMBER	323	n/a	-1	n/a	n/a	n/a	n/a	n/a
3238.78	n/a	WORD	1619390	wordpools/wasnorm_wordpool.txt	LTP063	ltpFR	1	16	1	STUDENT	1395	n/a	1	0	0.5869140625	0.422607421875	lower	../fonts/zerothre.ttf
3242.742	n/a	WORD	1621371	wordpools/wasnorm_wordpool.txt	LTP063	ltpFR	1	16	1	CHAPEL	280	n/a	0	0	0.5869140625	0.422607421875	lower	../fonts/zerothre.ttf
3246.904	n/a	WORD	1623452	wordpools/wasnorm_wordpool.txt	LTP063	ltpFR	1	16	1	VINEGAR	1569	n/a	0	0	0.5869140625	0.422607421875	lower	../fonts/zerothre.ttf
3250.966	n/a	WORD	1625483	wordpools/wasnorm_wordpool.txt	LTP063	ltpFR	1	16	1	CHARCOAL	281	n/a	0	0	0.5869140625	0.422607421875	lower	../fonts/zerothre.ttf
3254.82	n/a	WORD	1627410	wordpools/wasnorm_wordpool.txt	LTP063	ltpFR	1	16	1	GAZELLE	628	n/a	1	0	0.5869140625	0.422607421875	lower	../fonts/zerothre.ttf
3258.998	n/a	WORD	1629499	wordpools/wasnorm_wordpool.txt	LTP063	ltpFR	1	16	1	REINDEER	1181	n/a	1	0	0.5869140625	0.422607421875	lower	../fonts/zerothre.ttf
3262.986	n/a	WORD	1631493	wordpools/wasnorm_wordpool.txt	LTP063	ltpFR	1	16	1	SKUNK	1321	n/a	1	0	0.5869140625	0.422607421875	lower	../fonts/zerothre.ttf
3266.806	n/a	WORD	1633403	wordpools/wasnorm_wordpool.txt	LTP063	ltpFR	1	16	1	SLEIGH	1325	n/a	0	0	0.5869140625	0.422607421875	lower	../fonts/zerothre.ttf
3270.65	n/a	WORD	1635325	wordpools/wasnorm_wordpool.txt	LTP063	ltpFR	1	16	1	TRANSPLANT	1496	n/a	1	0	0.5869140625	0.422607421875	lower	../fonts/zerothre.ttf
3274.472	n/a	WORD	1637236	wordpools/wasnorm_wordpool.txt	LTP063	ltpFR	1	16	1	FLESH	579	n/a	1	0	0.5869140625	0.422607421875	lower	../fonts/zerothre.ttf
3278.542	n/a	WORD	1639271	wordpools/wasnorm_wordpool.txt	LTP063	ltpFR	1	16	1	TREAD	1499	n/a	0	0	0.5869140625	0.422607421875	lower	../fonts/zerothre.ttf
3282.706	n/a	WORD	1641353	wordpools/wasnorm_wordpool.txt	LTP063	ltpFR	1	16	1	PAIL	1002	n/a	0	0	0.5869140625	0.422607421875	lower	../fonts/zerothre.ttf
3286.908	n/a	WORD	1643454	wordpools/wasnorm_wordpool.txt	LTP063	ltpFR	1	16	1	CARTON	251	n/a	0	0	0.5869140625	0.422607421875	lower	../fonts/zerothre.ttf
3290.896	n/a	WORD	1645448	wordpools/wasnorm_wordpool.txt	LTP063	ltpFR	1	16	1	KANGAROO	768	n/a	1	0	0.5869140625	0.422607421875	lower	../fonts/zerothre.ttf
3294.858	n/a	WORD	1647429	wordpools/wasnorm_wordpool.txt	LTP063	ltpFR	1	16	1	APRON	35	n/a	0	0	0.5869140625	0.422607421875	lower	../fonts/zerothre.ttf
3298.87	n/a	WORD	1649435	wordpools/wasnorm_wordpool.txt	LTP063	ltpFR	1	16	1	CONVENT	370	n/a	0	0	0.5869140625	0.422607421875	lower	../fonts/zerothre.ttf
3304.796	n/a	REC_START	1652398	n/a	LTP063	ltpFR	1	16	n/a	n/a	n/a	n/a	n/a	n/a	n/a	n/a	n/a	n/a
3305.838	n/a	REC_WORD	1652919	wordpools/wasnorm_wordpool.txt	LTP063	ltpFR	1	16	1	STUDENT	1395	n/a	1	n/a	n/a	n/a	n/a	n/a
3307.206	n/a	REC_WORD	1653603	wordpools/wasnorm_wordpool.txt	LTP063	ltpFR	1	16	1	CHAPEL	280	n/a	0	n/a	n/a	n/a	n/a	n/a
3308.404	n/a	REC_WORD	1654202	wordpools/wasnorm_wordpool.txt	LTP063	ltpFR	1	16	1	CONVENT	370	n/a	0	n/a	n/a	n/a	n/a	n/a
3310.304	n/a	REC_WORD	1655152	wordpools/wasnorm_wordpool.txt	LTP063	ltpFR	1	16	1	KANGAROO	768	n/a	1	n/a	n/a	n/a	n/a	n/a
3311.626	n/a	REC_WORD	1655813	wordpools/wasnorm_wordpool.txt	LTP063	ltpFR	1	16	1	GAZELLE	628	n/a	1	n/a	n/a	n/a	n/a	n/a
3313.102	n/a	REC_WORD	1656551	wordpools/wasnorm_wordpool.txt	LTP063	ltpFR	1	16	1	REINDEER	1181	n/a	1	n/a	n/a	n/a	n/a	n/a
3315.486	n/a	REC_WORD	1657743	wordpools/wasnorm_wordpool.txt	LTP063	ltpFR	1	16	1	SKUNK	1321	n/a	1	n/a	n/a	n/a	n/a	n/a
3317.746	n/a	REC_WORD	1658873	wordpools/wasnorm_wordpool.txt	LTP063	ltpFR	1	16	1	CARTON	251	n/a	0	n/a	n/a	n/a	n/a	n/a
3318.9	n/a	REC_WORD	1659450	wordpools/wasnorm_wordpool.txt	LTP063	ltpFR	1	16	1	PAIL	1002	n/a	0	n/a	n/a	n/a	n/a	n/a
3320.64	n/a	REC_WORD	1660320	wordpools/wasnorm_wordpool.txt	LTP063	ltpFR	1	16	1	VINEGAR	1569	n/a	0	n/a	n/a	n/a	n/a	n/a
3328.048	n/a	REC_WORD	1664024	wordpools/wasnorm_wordpool.txt	LTP063	ltpFR	1	16	1	SLEIGH	1325	n/a	0	n/a	n/a	n/a	n/a	n/a
3400.204	n/a	REC_START	1700102	n/a	LTP063	ltpFR	1	n/a	n/a	n/a	n/a	n/a	n/a	n/a	n/a	n/a	n/a	n/a
3404.568	n/a	FFR_REC_WORD	1702284	wordpools/wasnorm_wordpool.txt	LTP063	ltpFR	1	n/a	1	CHEERLEADER	288	n/a	1	n/a	n/a	n/a	n/a	n/a
3407.292	n/a	FFR_REC_WORD	1703646	wordpools/wasnorm_wordpool.txt	LTP063	ltpFR	1	n/a	1	STUDENT	1395	n/a	1	n/a	n/a	n/a	n/a	n/a
3411.772	n/a	FFR_REC_WORD	1705886	wordpools/wasnorm_wordpool.txt	LTP063	ltpFR	1	n/a	1	ASSISTANT	48	n/a	1	n/a	n/a	n/a	n/a	n/a
3413.582	n/a	FFR_REC_WORD	1706791	wordpools/wasnorm_wordpool.txt	LTP063	ltpFR	1	n/a	0	FELLOW	558	n/a	1	n/a	n/a	n/a	n/a	n/a
3421.32	n/a	FFR_REC_WORD	1710660	wordpools/wasnorm_wordpool.txt	LTP063	ltpFR	1	n/a	0	CONDUCTOR	362	n/a	1	n/a	n/a	n/a	n/a	n/a
3425.92	n/a	FFR_REC_WORD	1712960	wordpools/wasnorm_wordpool.txt	LTP063	ltpFR	1	n/a	1	KANGAROO	768	n/a	1	n/a	n/a	n/a	n/a	n/a
3428.804	n/a	FFR_REC_WORD	1714402	wordpools/wasnorm_wordpool.txt	LTP063	ltpFR	1	n/a	1	REINDEER	1181	n/a	1	n/a	n/a	n/a	n/a	n/a
3430.62	n/a	FFR_REC_WORD	1715310	wordpools/wasnorm_wordpool.txt	LTP063	ltpFR	1	n/a	1	SQUIRREL	1362	n/a	1	n/a	n/a	n/a	n/a	n/a
3432.31	n/a	FFR_REC_WORD	1716155	wordpools/wasnorm_wordpool.txt	LTP063	ltpFR	1	n/a	1	GAZELLE	628	n/a	1	n/a	n/a	n/a	n/a	n/a
3433.832	n/a	FFR_REC_WORD	1716916	wordpools/wasnorm_wordpool.txt	LTP063	ltpFR	1	n/a	1	COUGAR	387	n/a	1	n/a	n/a	n/a	n/a	n/a
3435.444	n/a	FFR_REC_WORD	1717722	wordpools/wasnorm_wordpool.txt	LTP063	ltpFR	1	n/a	1	KITTEN	780	n/a	1	n/a	n/a	n/a	n/a	n/a
3445.198	n/a	FFR_REC_WORD	1722599	wordpools/wasnorm_wordpool.txt	LTP063	ltpFR	1	n/a	1	PIRATE	1074	n/a	1	n/a	n/a	n/a	n/a	n/a
3446.344	n/a	FFR_REC_WORD	1723172	wordpools/wasnorm_wordpool.txt	LTP063	ltpFR	1	n/a	-1	BEGGAR	117	n/a	-1	n/a	n/a	n/a	n/a	n/a
3453.978	n/a	FFR_REC_WORD	1726989	wordpools/wasnorm_wordpool.txt	LTP063	ltpFR	1	n/a	0	FRUIT	610	n/a	0	n/a	n/a	n/a	n/a	n/a
3455.294	n/a	FFR_REC_WORD	1727647	wordpools/wasnorm_wordpool.txt	LTP063	ltpFR	1	n/a	0	LIME	823	n/a	0	n/a	n/a	n/a	n/a	n/a
3456.766	n/a	FFR_REC_WORD	1728383	wordpools/wasnorm_wordpool.txt	LTP063	ltpFR	1	n/a	0	BANANA	77	n/a	0	n/a	n/a	n/a	n/a	n/a
3458.088	n/a	FFR_REC_WORD	1729044	wordpools/wasnorm_wordpool.txt	LTP063	ltpFR	1	n/a	0	STRAWBERRY	1391	n/a	0	n/a	n/a	n/a	n/a	n/a
3460.882	n/a	FFR_REC_WORD	1730441	wordpools/wasnorm_wordpool.txt	LTP063	ltpFR	1	n/a	0	ICING	732	n/a	0	n/a	n/a	n/a	n/a	n/a
3467.078	n/a	FFR_REC_WORD	1733539	wordpools/wasnorm_wordpool.txt	LTP063	ltpFR	1	n/a	1	PAIL	1002	n/a	0	n/a	n/a	n/a	n/a	n/a
3468.164	n/a	FFR_REC_WORD	1734082	wordpools/wasnorm_wordpool.txt	LTP063	ltpFR	1	n/a	1	CARTON	251	n/a	0	n/a	n/a	n/a	n/a	n/a
3469.742	n/a	FFR_REC_WORD	1734871	wordpools/wasnorm_wordpool.txt	LTP063	ltpFR	1	n/a	0	VEST	1559	n/a	0	n/a	n/a	n/a	n/a	n/a
3470.908	n/a	FFR_REC_WORD	1735454	wordpools/wasnorm_wordpool.txt	LTP063	ltpFR	1	n/a	0	CLOTHES	327	n/a	1	n/a	n/a	n/a	n/a	n/a
3473.582	n/a	FFR_REC_WORD	1736791	wordpools/wasnorm_wordpool.txt	LTP063	ltpFR	1	n/a	-1	DOCK	477	n/a	-1	n/a	n/a	n/a	n/a	n/a
3474.53	n/a	FFR_REC_WORD	1737265	wordpools/wasnorm_wordpool.txt	LTP063	ltpFR	1	n/a	-1	SATURN	1236	n/a	-1	n/a	n/a	n/a	n/a	n/a
3475.682	n/a	FFR_REC_WORD	1737841	wordpools/wasnorm_wordpool.txt	LTP063	ltpFR	1	n/a	-1	UNIVERSE	1540	n/a	-1	n/a	n/a	n/a	n/a	n/a
3477.234	n/a	FFR_REC_WORD	1738617	wordpools/wasnorm_wordpool.txt	LTP063	ltpFR	1	n/a	-1	MARSH	874	n/a	-1	n/a	n/a	n/a	n/a	n/a
3478.85	n/a	FFR_REC_WORD	1739425	wordpools/wasnorm_wordpool.txt	LTP063	ltpFR	1	n/a	1	CEMETERY	269	n/a	0	n/a	n/a	n/a	n/a	n/a
3480.392	n/a	FFR_REC_WORD	1740196	wordpools/wasnorm_wordpool.txt	LTP063	ltpFR	1	n/a	-1	GRASS	655	n/a	-1	n/a	n/a	n/a	n/a	n/a
3494.396	n/a	FFR_REC_WORD	1747198	wordpools/wasnorm_wordpool.txt	LTP063	ltpFR	1	n/a	n/a	PEN	1041	n/a	n/a	n/a	n/a	n/a	n/a	n/a
3495.374	n/a	FFR_REC_WORD	1747687	wordpools/wasnorm_wordpool.txt	LTP063	ltpFR	1	n/a	-1	PENCIL	1042	n/a	-1	n/a	n/a	n/a	n/a	n/a
3497.218	n/a	FFR_REC_WORD	1748609	wordpools/wasnorm_wordpool.txt	LTP063	ltpFR	1	n/a	-1	PAPER	1011	n/a	-1	n/a	n/a	n/a	n/a	n/a
3502.526	n/a	FFR_REC_WORD	1751263	wordpools/wasnorm_wordpool.txt	LTP063	ltpFR	1	n/a	-1	WALNUT	1584	n/a	-1	n/a	n/a	n/a	n/a	n/a
3503.504	n/a	FFR_REC_WORD	1751752	wordpools/wasnorm_wordpool.txt	LTP063	ltpFR	1	n/a	-1	NUT	965	n/a	-1	n/a	n/a	n/a	n/a	n/a
3504.522	n/a	FFR_REC_WORD	1752261	wordpools/wasnorm_wordpool.txt	LTP063	ltpFR	1	n/a	1	CASHEW	253	n/a	1	n/a	n/a	n/a	n/a	n/a
3509.954	n/a	FFR_REC_WORD	1754977	wordpools/wasnorm_wordpool.txt	LTP063	ltpFR	1	n/a	0	MAN	862	n/a	1	n/a	n/a	n/a	n/a	n/a
3511.102	n/a	FFR_REC_WORD	1755551	wordpools/wasnorm_wordpool.txt	LTP063	ltpFR	1	n/a	0	WOMAN	1620	n/a	1	n/a	n/a	n/a	n/a	n/a
3512.274	n/a	FFR_REC_WORD	1756137	wordpools/wasnorm_wordpool.txt	LTP063	ltpFR	1	n/a	0	BODY	145	n/a	1	n/a	n/a	n/a	n/a	n/a
3513.476	n/a	FFR_REC_WORD	1756738	wordpools/wasnorm_wordpool.txt	LTP063	ltpFR	1	n/a	0	SKELETON	1314	n/a	1	n/a	n/a	n/a	n/a	n/a
3515.054	n/a	FFR_REC_WORD	1757527	wordpools/wasnorm_wordpool.txt	LTP063	ltpFR	1	n/a	0	LIMB	822	n/a	1	n/a	n/a	n/a	n/a	n/a
3516.286	n/a	FFR_REC_WORD	1758143	wordpools/wasnorm_wordpool.txt	LTP063	ltpFR	1	n/a	0	KNEE	784	n/a	1	n/a	n/a	n/a	n/a	n/a
3519.0	n/a	FFR_REC_WORD	1759500	wordpools/wasnorm_wordpool.txt	LTP063	ltpFR	1	n/a	0	NECKLACE	940	n/a	0	n/a	n/a	n/a	n/a	n/a
3522.382	n/a	FFR_REC_WORD	1761191	wordpools/wasnorm_wordpool.txt	LTP063	ltpFR	1	n/a	-1	EARRING	514	n/a	-1	n/a	n/a	n/a	n/a	n/a
3523.38	n/a	FFR_REC_WORD	1761690	wordpools/wasnorm_wordpool.txt	LTP063	ltpFR	1	n/a	-1	EAR	513	n/a	-1	n/a	n/a	n/a	n/a	n/a
3524.628	n/a	FFR_REC_WORD	1762314	wordpools/wasnorm_wordpool.txt	LTP063	ltpFR	1	n/a	-1	DRESSER	496	n/a	-1	n/a	n/a	n/a	n/a	n/a
3526.144	n/a	FFR_REC_WORD	1763072	wordpools/wasnorm_wordpool.txt	LTP063	ltpFR	1	n/a	-1	BASKET	95	n/a	-1	n/a	n/a	n/a	n/a	n/a
3534.754	n/a	FFR_REC_WORD	1767377	wordpools/wasnorm_wordpool.txt	LTP063	ltpFR	1	n/a	-1	ISLAND	745	n/a	-1	n/a	n/a	n/a	n/a	n/a
3535.892	n/a	FFR_REC_WORD	1767946	wordpools/wasnorm_wordpool.txt	LTP063	ltpFR	1	n/a	-1	SEA	1259	n/a	-1	n/a	n/a	n/a	n/a	n/a
3537.298	n/a	FFR_REC_WORD	1768649	wordpools/wasnorm_wordpool.txt	LTP063	ltpFR	1	n/a	-1	GOBLIN	645	n/a	-1	n/a	n/a	n/a	n/a	n/a
3543.136	n/a	FFR_REC_WORD	1771568	wordpools/wasnorm_wordpool.txt	LTP063	ltpFR	1	n/a	1	CHEMICAL	291	n/a	0	n/a	n/a	n/a	n/a	n/a
3543.922	n/a	FFR_REC_WORD	1771961	wordpools/wasnorm_wordpool.txt	LTP063	ltpFR	1	n/a	1	MOLECULE	905	n/a	1	n/a	n/a	n/a	n/a	n/a
3544.862	n/a	FFR_REC_WORD	1772431	wordpools/wasnorm_wordpool.txt	LTP063	ltpFR	1	n/a	1	NUCLEUS	961	n/a	1	n/a	n/a	n/a	n/a	n/a
3555.602	n/a	FFR_REC_WORD	1777801	wordpools/wasnorm_wordpool.txt	LTP063	ltpFR	1	n/a	-1	STOVE	1388	n/a	-1	n/a	n/a	n/a	n/a	n/a
3556.634	n/a	FFR_REC_WORD	1778317	wordpools/wasnorm_wordpool.txt	LTP063	ltpFR	1	n/a	-1	SINK	1309	n/a	-1	n/a	n/a	n/a	n/a	n/a
3559.228	n/a	FFR_REC_WORD	1779614	wordpools/wasnorm_wordpool.txt	LTP063	ltpFR	1	n/a	-1	OFFICE	972	n/a	-1	n/a	n/a	n/a	n/a	n/a
3560.336	n/a	FFR_REC_WORD	1780168	wordpools/wasnorm_wordpool.txt	LTP063	ltpFR	1	n/a	-1	ARTIST	43	n/a	-1	n/a	n/a	n/a	n/a	n/a
3561.31	n/a	FFR_REC_WORD	1780655	wordpools/wasnorm_wordpool.txt	LTP063	ltpFR	1	n/a	-1	NEWSPAPER	948	n/a	-1	n/a	n/a	n/a	n/a	n/a
3564.092	n/a	FFR_REC_WORD	1782046	wordpools/wasnorm_wordpool.txt	LTP063	ltpFR	1	n/a	-1	FOLDER	588	n/a	-1	n/a	n/a	n/a	n/a	n/a
3565.544	n/a	FFR_REC_WORD	1782772	wordpools/wasnorm_wordpool.txt	LTP063	ltpFR	1	n/a	-1	WALL	1582	n/a	-1	n/a	n/a	n/a	n/a	n/a
3574.604	n/a	FFR_REC_WORD	1787302	wordpools/wasnorm_wordpool.txt	LTP063	ltpFR	1	n/a	0	COMMANDER	354	n/a	1	n/a	n/a	n/a	n/a	n/a
3577.742	n/a	FFR_REC_WORD	1788871	wordpools/wasnorm_wordpool.txt	LTP063	ltpFR	1	n/a	0	COLONEL	348	n/a	1	n/a	n/a	n/a	n/a	n/a
3579.164	n/a	FFR_REC_WORD	1789582	wordpools/wasnorm_wordpool.txt	LTP063	ltpFR	1	n/a	0	CAPITAL	238	n/a	1	n/a	n/a	n/a	n/a	n/a
3580.306	n/a	FFR_REC_WORD	1790153	wordpools/wasnorm_wordpool.txt	LTP063	ltpFR	1	n/a	0	COUNTY	389	n/a	1	n/a	n/a	n/a	n/a	n/a
3591.944	n/a	FFR_REC_WORD	1795972	wordpools/wasnorm_wordpool.txt	LTP063	ltpFR	1	n/a	-1	VIOLA	1570	n/a	-1	n/a	n/a	n/a	n/a	n/a
3594.01	n/a	FFR_REC_WORD	1797005	wordpools/wasnorm_wordpool.txt	LTP063	ltpFR	1	n/a	-1	BUGLE	189	n/a	-1	n/a	n/a	n/a	n/a	n/a
3595.886	n/a	FFR_REC_WORD	1797943	wordpools/wasnorm_wordpool.txt	LTP063	ltpFR	1	n/a	-1	VIOLIN	1571	n/a	-1	n/a	n/a	n/a	n/a	n/a
3611.256	n/a	FFR_REC_WORD	1805628	wordpools/wasnorm_wordpool.txt	LTP063	ltpFR	1	n/a	0	ACTOR	5	n/a	1	n/a	n/a	n/a	n/a	n/a
3611.924	n/a	FFR_REC_WORD	1805962	wordpools/wasnorm_wordpool.txt	LTP063	ltpFR	1	n/a	0	ACTRESS	6	n/a	1	n/a	n/a	n/a	n/a	n/a
3612.482	n/a	FFR_REC_WORD	1806241	wordpools/wasnorm_wordpool.txt	LTP063	ltpFR	1	n/a	0	SHAMPOO	1274	n/a	0	n/a	n/a	n/a	n/a	n/a
3626.308	n/a	FFR_REC_WORD	1813154	wordpools/wasnorm_wordpool.txt	LTP063	ltpFR	1	n/a	1	TIDE	1465	n/a	0	n/a	n/a	n/a	n/a	n/a
3631.296	n/a	FFR_REC_WORD	1815648	wordpools/wasnorm_wordpool.txt	LTP063	ltpFR	1	n/a	0	KEEPER	769	n/a	1	n/a	n/a	n/a	n/a	n/a
3646.636	n/a	FFR_REC_WORD	1823318	wordpools/wasnorm_wordpool.txt	LTP063	ltpFR	1	n/a	n/a	WAITRESS	1581	n/a	n/a	n/a	n/a	n/a	n/a	n/a
3664.724	n/a	FFR_REC_WORD	1832362	wordpools/wasnorm_wordpool.txt	LTP063	ltpFR	1	n/a	-1	CLIMBER	323	n/a	-1	n/a	n/a	n/a	n/a	n/a
3676.574	n/a	FFR_REC_WORD	1838287	wordpools/wasnorm_wordpool.txt	LTP063	ltpFR	1	n/a	-1	BURGLAR	200	n/a	-1	n/a	n/a	n/a	n/a	n/a
3677.402	n/a	FFR_REC_WORD	1838701	wordpools/wasnorm_wordpool.txt	LTP063	ltpFR	1	n/a	-1	ROBBER	1197	n/a	-1	n/a	n/a	n/a	n/a	n/a
3736.176	n/a	REC_START	1868088	n/a	LTP063	ltpFR	1	1	n/a	n/a	n/a	n/a	n/a	n/a	n/a	n/a	n/a	n/a
3736.2	n/a	RECOG_TARGET	1868100	n/a	LTP063	ltpFR	1	1	-1	WALL	1582	5	-1	n/a	n/a	n/a	n/a	n/a
3738.63	n/a	RECOG_RESP	1869315	n/a	LTP063	ltpFR	1	1	-1	WALL	1582	n/a	-1	n/a	n/a	n/a	n/a	n/a
3740.332	n/a	RECOG_CONF	1870166	n/a	LTP063	ltpFR	1	1	-1	WALL	1582	5	-1	n/a	n/a	n/a	n/a	n/a
3742.176	n/a	RECOG_TARGET	1871088	n/a	LTP063	ltpFR	1	1	1	TENT	1449	5	0	n/a	n/a	n/a	n/a	n/a
3743.12	n/a	RECOG_RESP	1871560	n/a	LTP063	ltpFR	1	1	1	TENT	1449	n/a	0	n/a	n/a	n/a	n/a	n/a
3744.282	n/a	RECOG_CONF	1872141	n/a	LTP063	ltpFR	1	1	1	TENT	1449	5	0	n/a	n/a	n/a	n/a	n/a
3745.756	n/a	RECOG_TARGET	1872878	n/a	LTP063	ltpFR	1	1	1	TRANSPLANT	1496	5	1	n/a	n/a	n/a	n/a	n/a
3746.498	n/a	RECOG_RESP	1873249	n/a	LTP063	ltpFR	1	1	1	TRANSPLANT	1496	n/a	1	n/a	n/a	n/a	n/a	n/a
3747.706	n/a	RECOG_CONF	1873853	n/a	LTP063	ltpFR	1	1	1	TRANSPLANT	1496	5	1	n/a	n/a	n/a	n/a	n/a
3749.5	n/a	RECOG_TARGET	1874750	n/a	LTP063	ltpFR	1	1	0	SHAMPOO	1274	5	0	n/a	n/a	n/a	n/a	n/a
3750.17	n/a	RECOG_RESP	1875085	n/a	LTP063	ltpFR	1	1	0	SHAMPOO	1274	n/a	0	n/a	n/a	n/a	n/a	n/a
3751.268	n/a	RECOG_CONF	1875634	n/a	LTP063	ltpFR	1	1	0	SHAMPOO	1274	5	0	n/a	n/a	n/a	n/a	n/a
3752.898	n/a	RECOG_LURE	1876449	n/a	LTP063	ltpFR	1	1	n/a	DAGGER	434	4	n/a	n/a	n/a	n/a	n/a	n/a
3754.594	n/a	RECOG_RESP	1877297	n/a	LTP063	ltpFR	1	1	n/a	DAGGER	434	n/a	n/a	n/a	n/a	n/a	n/a	n/a
3755.638	n/a	RECOG_CONF	1877819	n/a	LTP063	ltpFR	1	1	n/a	DAGGER	434	4	n/a	n/a	n/a	n/a	n/a	n/a
3757.15	n/a	RECOG_TARGET	1878575	n/a	LTP063	ltpFR	1	1	0	COLONEL	348	5	1	n/a	n/a	n/a	n/a	n/a
3757.822	n/a	RECOG_RESP	1878911	n/a	LTP063	ltpFR	1	1	0	COLONEL	348	n/a	1	n/a	n/a	n/a	n/a	n/a
3758.78	n/a	RECOG_CONF	1879390	n/a	LTP063	ltpFR	1	1	0	COLONEL	348	5	1	n/a	n/a	n/a	n/a	n/a
3760.38	n/a	RECOG_TARGET	1880190	n/a	LTP063	ltpFR	1	1	0	BEER	114	5	1	n/a	n/a	n/a	n/a	n/a
3761.094	n/a	RECOG_RESP	1880547	n/a	LTP063	ltpFR	1	1	0	BEER	114	n/a	1	n/a	n/a	n/a	n/a	n/a
3762.132	n/a	RECOG_CONF	1881066	n/a	LTP063	ltpFR	1	1	0	BEER	114	5	1	n/a	n/a	n/a	n/a	n/a
3763.794	n/a	RECOG_TARGET	1881897	n/a	LTP063	ltpFR	1	1	0	OTTER	986	5	1	n/a	n/a	n/a	n/a	n/a
3764.452	n/a	RECOG_RESP	1882226	n/a	LTP063	ltpFR	1	1	0	OTTER	986	n/a	1	n/a	n/a	n/a	n/a	n/a
3765.784	n/a	RECOG_CONF	1882892	n/a	LTP063	ltpFR	1	1	0	OTTER	986	5	1	n/a	n/a	n/a	n/a	n/a
3767.314	n/a	RECOG_TARGET	1883657	n/a	LTP063	ltpFR	1	1	0	STRANGER	1389	5	1	n/a	n/a	n/a	n/a	n/a
3768.018	n/a	RECOG_RESP	1884009	n/a	LTP063	ltpFR	1	1	0	STRANGER	1389	n/a	1	n/a	n/a	n/a	n/a	n/a
3769.176	n/a	RECOG_CONF	1884588	n/a	LTP063	ltpFR	1	1	0	STRANGER	1389	5	1	n/a	n/a	n/a	n/a	n/a
3770.81	n/a	RECOG_LURE	1885405	n/a	LTP063	ltpFR	1	1	n/a	BACKBONE	66	5	n/a	n/a	n/a	n/a	n/a	n/a
3771.67	n/a	RECOG_RESP	1885835	n/a	LTP063	ltpFR	1	1	n/a	BACKBONE	66	n/a	n/a	n/a	n/a	n/a	n/a	n/a
3772.858	n/a	RECOG_CONF	1886429	n/a	LTP063	ltpFR	1	1	n/a	BACKBONE	66	5	n/a	n/a	n/a	n/a	n/a	n/a
3774.506	n/a	RECOG_TARGET	1887253	n/a	LTP063	ltpFR	1	1	0	PADDLE	1000	5	0	n/a	n/a	n/a	n/a	n/a
3775.134	n/a	RECOG_RESP	1887567	n/a	LTP063	ltpFR	1	1	0	PADDLE	1000	n/a	0	n/a	n/a	n/a	n/a	n/a
3776.112	n/a	RECOG_CONF	1888056	n/a	LTP063	ltpFR	1	1	0	PADDLE	1000	5	0	n/a	n/a	n/a	n/a	n/a
3777.72	n/a	RECOG_TARGET	1888860	n/a	LTP063	ltpFR	1	1	0	SCARF	1246	5	0	n/a	n/a	n/a	n/a	n/a
3778.362	n/a	RECOG_RESP	1889181	n/a	LTP063	ltpFR	1	1	0	SCARF	1246	n/a	0	n/a	n/a	n/a	n/a	n/a
3779.484	n/a	RECOG_CONF	1889742	n/a	LTP063	ltpFR	1	1	0	SCARF	1246	5	0	n/a	n/a	n/a	n/a	n/a
3781.1	n/a	RECOG_TARGET	1890550	n/a	LTP063	ltpFR	1	1	-1	DIAL	457	5	-1	n/a	n/a	n/a	n/a	n/a
3781.658	n/a	RECOG_RESP	1890829	n/a	LTP063	ltpFR	1	1	-1	DIAL	457	n/a	-1	n/a	n/a	n/a	n/a	n/a
3782.726	n/a	RECOG_CONF	1891363	n/a	LTP063	ltpFR	1	1	-1	DIAL	457	5	-1	n/a	n/a	n/a	n/a	n/a
3784.352	n/a	RECOG_TARGET	1892176	n/a	LTP063	ltpFR	1	1	0	LIME	823	5	0	n/a	n/a	n/a	n/a	n/a
3784.942	n/a	RECOG_RESP	1892471	n/a	LTP063	ltpFR	1	1	0	LIME	823	n/a	0	n/a	n/a	n/a	n/a	n/a
3785.97	n/a	RECOG_CONF	1892985	n/a	LTP063	ltpFR	1	1	0	LIME	823	5	0	n/a	n/a	n/a	n/a	n/a
3787.508	n/a	RECOG_LURE	1893754	n/a	LTP063	ltpFR	1	1	n/a	MONASTERY	907	5	n/a	n/a	n/a	n/a	n/a	n/a
3788.648	n/a	RECOG_RESP	1894324	n/a	LTP063	ltpFR	1	1	n/a	MONASTERY	907	n/a	n/a	n/a	n/a	n/a	n/a	n/a
3789.69	n/a	RECOG_CONF	1894845	n/a	LTP063	ltpFR	1	1	n/a	MONASTERY	907	5	n/a	n/a	n/a	n/a	n/a	n/a
3791.352	n/a	RECOG_TARGET	1895676	n/a	LTP063	ltpFR	1	1	1	BUS	201	5	0	n/a	n/a	n/a	n/a	n/a
3791.946	n/a	RECOG_RESP	1895973	n/a	LTP063	ltpFR	1	1	1	BUS	201	n/a	0	n/a	n/a	n/a	n/a	n/a
3792.874	n/a	RECOG_CONF	1896437	n/a	LTP063	ltpFR	1	1	1	BUS	201	5	0	n/a	n/a	n/a	n/a	n/a
3794.516	n/a	RECOG_TARGET	1897258	n/a	LTP063	ltpFR	1	1	1	CEMETERY	269	5	0	n/a	n/a	n/a	n/a	n/a
3795.034	n/a	RECOG_RESP	1897517	n/a	LTP063	ltpFR	1	1	1	CEMETERY	269	n/a	0	n/a	n/a	n/a	n/a	n/a
3795.976	n/a	RECOG_CONF	1897988	n/a	LTP063	ltpFR	1	1	1	CEMETERY	269	5	0	n/a	n/a	n/a	n/a	n/a
3797.554	n/a	RECOG_LURE	1898777	n/a	LTP063	ltpFR	1	1	n/a	ONION	977	4	n/a	n/a	n/a	n/a	n/a	n/a
3798.476	n/a	RECOG_RESP	1899238	n/a	LTP063	ltpFR	1	1	n/a	ONION	977	n/a	n/a	n/a	n/a	n/a	n/a	n/a
3799.288	n/a	RECOG_CONF	1899644	n/a	LTP063	ltpFR	1	1	n/a	ONION	977	4	n/a	n/a	n/a	n/a	n/a	n/a
3800.892	n/a	RECOG_TARGET	1900446	n/a	LTP063	ltpFR	1	1	0	SIRLOIN	1311	5	1	n/a	n/a	n/a	n/a	n/a
3801.538	n/a	RECOG_RESP	1900769	n/a	LTP063	ltpFR	1	1	0	SIRLOIN	1311	n/a	1	n/a	n/a	n/a	n/a	n/a
3802.502	n/a	RECOG_CONF	1901251	n/a	LTP063	ltpFR	1	1	0	SIRLOIN	1311	5	1	n/a	n/a	n/a	n/a	n/a
3804.106	n/a	RECOG_TARGET	1902053	n/a	LTP063	ltpFR	1	1	1	SCARECROW	1245	5	1	n/a	n/a	n/a	n/a	n/a
3804.796	n/a	RECOG_RESP	1902398	n/a	LTP063	ltpFR	1	1	1	SCARECROW	1245	n/a	1	n/a	n/a	n/a	n/a	n/a
3805.824	n/a	RECOG_CONF	1902912	n/a	LTP063	ltpFR	1	1	1	SCARECROW	1245	5	1	n/a	n/a	n/a	n/a	n/a
3812.028	n/a	REC_START	1906014	n/a	LTP063	ltpFR	1	2	n/a	n/a	n/a	n/a	n/a	n/a	n/a	n/a	n/a	n/a
3812.054	n/a	RECOG_TARGET	1906027	n/a	LTP063	ltpFR	1	2	1	MISTER	901	5	1	n/a	n/a	n/a	n/a	n/a
3812.826	n/a	RECOG_RESP	1906413	n/a	LTP063	ltpFR	1	2	1	MISTER	901	n/a	1	n/a	n/a	n/a	n/a	n/a
3813.87	n/a	RECOG_CONF	1906935	n/a	LTP063	ltpFR	1	2	1	MISTER	901	5	1	n/a	n/a	n/a	n/a	n/a
3815.4	n/a	RECOG_LURE	1907700	n/a	LTP063	ltpFR	1	2	n/a	WARDROBE	1587	4	n/a	n/a	n/a	n/a	n/a	n/a
3816.264	n/a	RECOG_RESP	1908132	n/a	LTP063	ltpFR	1	2	n/a	WARDROBE	1587	n/a	n/a	n/a	n/a	n/a	n/a	n/a
3817.082	n/a	RECOG_CONF	1908541	n/a	LTP063	ltpFR	1	2	n/a	WARDROBE	1587	4	n/a	n/a	n/a	n/a	n/a	n/a
3818.706	n/a	RECOG_TARGET	1909353	n/a	LTP063	ltpFR	1	2	0	MAN	862	5	1	n/a	n/a	n/a	n/a	n/a
3819.386	n/a	RECOG_RESP	1909693	n/a	LTP063	ltpFR	1	2	0	MAN	862	n/a	1	n/a	n/a	n/a	n/a	n/a
3820.334	n/a	RECOG_CONF	1910167	n/a	LTP063	ltpFR	1	2	0	MAN	862	5	1	n/a	n/a	n/a	n/a	n/a
3821.902	n/a	RECOG_TARGET	1910951	n/a	LTP063	ltpFR	1	2	-1	VIOLIN	1571	4	-1	n/a	n/a	n/a	n/a	n/a
3822.594	n/a	RECOG_RESP	1911297	n/a	LTP063	ltpFR	1	2	-1	VIOLIN	1571	n/a	-1	n/a	n/a	n/a	n/a	n/a
3823.578	n/a	RECOG_CONF	1911789	n/a	LTP063	ltpFR	1	2	-1	VIOLIN	1571	4	-1	n/a	n/a	n/a	n/a	n/a
3825.106	n/a	RECOG_TARGET	1912553	n/a	LTP063	ltpFR	1	2	0	BOOT	150	5	1	n/a	n/a	n/a	n/a	n/a
3825.996	n/a	RECOG_RESP	1912998	n/a	LTP063	ltpFR	1	2	0	BOOT	150	n/a	1	n/a	n/a	n/a	n/a	n/a
3826.97	n/a	RECOG_CONF	1913485	n/a	LTP063	ltpFR	1	2	0	BOOT	150	5	1	n/a	n/a	n/a	n/a	n/a
3828.534	n/a	RECOG_TARGET	1914267	n/a	LTP063	ltpFR	1	2	1	KLEENEX	782	5	0	n/a	n/a	n/a	n/a	n/a
3829.21	n/a	RECOG_RESP	1914605	n/a	LTP063	ltpFR	1	2	1	KLEENEX	782	n/a	0	n/a	n/a	n/a	n/a	n/a
3830.212	n/a	RECOG_CONF	1915106	n/a	LTP063	ltpFR	1	2	1	KLEENEX	782	5	0	n/a	n/a	n/a	n/a	n/a
3831.672	n/a	RECOG_TARGET	1915836	n/a	LTP063	ltpFR	1	2	1	SQUIRREL	1362	5	1	n/a	n/a	n/a	n/a	n/a
3832.222	n/a	RECOG_RESP	1916111	n/a	LTP063	ltpFR	1	2	1	SQUIRREL	1362	n/a	1	n/a	n/a	n/a	n/a	n/a
3833.276	n/a	RECOG_CONF	1916638	n/a	LTP063	ltpFR	1	2	1	SQUIRREL	1362	5	1	n/a	n/a	n/a	n/a	n/a
3834.82	n/a	RECOG_TARGET	1917410	n/a	LTP063	ltpFR	1	2	0	STREAM	1392	5	1	n/a	n/a	n/a	n/a	n/a
3835.524	n/a	RECOG_RESP	1917762	n/a	LTP063	ltpFR	1	2	0	STREAM	1392	n/a	1	n/a	n/a	n/a	n/a	n/a
3836.588	n/a	RECOG_CONF	1918294	n/a	LTP063	ltpFR	1	2	0	STREAM	1392	5	1	n/a	n/a	n/a	n/a	n/a
3838.05	n/a	RECOG_TARGET	1919025	n/a	LTP063	ltpFR	1	2	1	FLESH	579	5	1	n/a	n/a	n/a	n/a	n/a
3838.702	n/a	RECOG_RESP	1919351	n/a	LTP063	ltpFR	1	2	1	FLESH	579	n/a	1	n/a	n/a	n/a	n/a	n/a
3839.71	n/a	RECOG_CONF	1919855	n/a	LTP063	ltpFR	1	2	1	FLESH	579	5	1	n/a	n/a	n/a	n/a	n/a
3841.27	n/a	RECOG_TARGET	1920635	n/a	LTP063	ltpFR	1	2	-1	OATMEAL	967	5	-1	n/a	n/a	n/a	n/a	n/a
3841.826	n/a	RECOG_RESP	1920913	n/a	LTP063	ltpFR	1	2	-1	OATMEAL	967	n/a	-1	n/a	n/a	n/a	n/a	n/a
3842.964	n/a	RECOG_CONF	1921482	n/a	LTP063	ltpFR	1	2	-1	OATMEAL	967	5	-1	n/a	n/a	n/a	n/a	n/a
3844.608	n/a	RECOG_TARGET	1922304	n/a	LTP063	ltpFR	1	2	-1	GRASSHOPPER	656	5	-1	n/a	n/a	n/a	n/a	n/a
3845.352	n/a	RECOG_RESP	1922676	n/a	LTP063	ltpFR	1	2	-1	GRASSHOPPER	656	n/a	-1	n/a	n/a	n/a	n/a	n/a
3846.296	n/a	RECOG_CONF	1923148	n/a	LTP063	ltpFR	1	2	-1	GRASSHOPPER	656	5	-1	n/a	n/a	n/a	n/a	n/a
3847.872	n/a	RECOG_TARGET	1923936	n/a	LTP063	ltpFR	1	2	0	WITNESS	1618	5	1	n/a	n/a	n/a	n/a	n/a
3849.838	n/a	RECOG_RESP	1924919	n/a	LTP063	ltpFR	1	2	0	WITNESS	1618	n/a	1	n/a	n/a	n/a	n/a	n/a
3851.044	n/a	RECOG_CONF	1925522	n/a	LTP063	ltpFR	1	2	0	WITNESS	1618	5	1	n/a	n/a	n/a	n/a	n/a
3852.548	n/a	RECOG_TARGET	1926274	n/a	LTP063	ltpFR	1	2	0	CHAUFFEUR	283	3	1	n/a	n/a	n/a	n/a	n/a
3853.998	n/a	RECOG_RESP	1926999	n/a	LTP063	ltpFR	1	2	0	CHAUFFEUR	283	n/a	1	n/a	n/a	n/a	n/a	n/a
3854.956	n/a	RECOG_CONF	1927478	n/a	LTP063	ltpFR	1	2	0	CHAUFFEUR	283	3	1	n/a	n/a	n/a	n/a	n/a
3856.428	n/a	RECOG_TARGET	1928214	n/a	LTP063	ltpFR	1	2	-1	CLIMBER	323	5	-1	n/a	n/a	n/a	n/a	n/a
3857.028	n/a	RECOG_RESP	1928514	n/a	LTP063	ltpFR	1	2	-1	CLIMBER	323	n/a	-1	n/a	n/a	n/a	n/a	n/a
3857.85	n/a	RECOG_CONF	1928925	n/a	LTP063	ltpFR	1	2	-1	CLIMBER	323	5	-1	n/a	n/a	n/a	n/a	n/a
3859.358	n/a	RECOG_LURE	1929679	n/a	LTP063	ltpFR	1	2	n/a	BARREL	91	4	n/a	n/a	n/a	n/a	n/a	n/a
3860.24	n/a	RECOG_RESP	1930120	n/a	LTP063	ltpFR	1	2	n/a	BARREL	91	n/a	n/a	n/a	n/a	n/a	n/a	n/a
3861.482	n/a	RECOG_CONF	1930741	n/a	LTP063	ltpFR	1	2	n/a	BARREL	91	4	n/a	n/a	n/a	n/a	n/a	n/a
3862.946	n/a	RECOG_LURE	1931473	n/a	LTP063	ltpFR	1	2	n/a	VESSEL	1558	3	n/a	n/a	n/a	n/a	n/a	n/a
3863.962	n/a	RECOG_RESP	1931981	n/a	LTP063	ltpFR	1	2	n/a	VESSEL	1558	n/a	n/a	n/a	n/a	n/a	n/a	n/a
3865.074	n/a	RECOG_CONF	1932537	n/a	LTP063	ltpFR	1	2	n/a	VESSEL	1558	3	n/a	n/a	n/a	n/a	n/a	n/a
3866.658	n/a	RECOG_TARGET	1933329	n/a	LTP063	ltpFR	1	2	-1	DRESSER	496	5	-1	n/a	n/a	n/a	n/a	n/a
3867.318	n/a	RECOG_RESP	1933659	n/a	LTP063	ltpFR	1	2	-1	DRESSER	496	n/a	-1	n/a	n/a	n/a	n/a	n/a
3868.326	n/a	RECOG_CONF	1934163	n/a	LTP063	ltpFR	1	2	-1	DRESSER	496	5	-1	n/a	n/a	n/a	n/a	n/a
3869.888	n/a	RECOG_LURE	1934944	n/a	LTP063	ltpFR	1	2	n/a	TRASH	1497	3	n/a	n/a	n/a	n/a	n/a	n/a
3870.726	n/a	RECOG_RESP	1935363	n/a	LTP063	ltpFR	1	2	n/a	TRASH	1497	n/a	n/a	n/a	n/a	n/a	n/a	n/a
3871.838	n/a	RECOG_CONF	1935919	n/a	LTP063	ltpFR	1	2	n/a	TRASH	1497	3	n/a	n/a	n/a	n/a	n/a	n/a
3873.408	n/a	RECOG_TARGET	1936704	n/a	LTP063	ltpFR	1	2	1	RUG	1215	4	0	n/a	n/a	n/a	n/a	n/a
3874.212	n/a	RECOG_RESP	1937106	n/a	LTP063	ltpFR	1	2	1	RUG	1215	n/a	0	n/a	n/a	n/a	n/a	n/a
3875.34	n/a	RECOG_CONF	1937670	n/a	LTP063	ltpFR	1	2	1	RUG	1215	4	0	n/a	n/a	n/a	n/a	n/a
3876.772	n/a	RECOG_LURE	1938386	n/a	LTP063	ltpFR	1	2	n/a	DOVE	491	4	n/a	n/a	n/a	n/a	n/a	n/a
3877.576	n/a	RECOG_RESP	1938788	n/a	LTP063	ltpFR	1	2	n/a	DOVE	491	n/a	n/a	n/a	n/a	n/a	n/a	n/a
3878.732	n/a	RECOG_CONF	1939366	n/a	LTP063	ltpFR	1	2	n/a	DOVE	491	4	n/a	n/a	n/a	n/a	n/a	n/a
3882.604	n/a	REC_START	1941302	n/a	LTP063	ltpFR	1	3	n/a	n/a	n/a	n/a	n/a	n/a	n/a	n/a	n/a	n/a
3882.632	n/a	RECOG_TARGET	1941316	n/a	LTP063	ltpFR	1	3	0	COMMANDER	354	5	1	n/a	n/a	n/a	n/a	n/a
3883.292	n/a	RECOG_RESP	1941646	n/a	LTP063	ltpFR	1	3	0	COMMANDER	354	n/a	1	n/a	n/a	n/a	n/a	n/a
3884.234	n/a	RECOG_CONF	1942117	n/a	LTP063	ltpFR	1	3	0	COMMANDER	354	5	1	n/a	n/a	n/a	n/a	n/a
3885.738	n/a	RECOG_TARGET	1942869	n/a	LTP063	ltpFR	1	3	1	ANCHOR	21	5	0	n/a	n/a	n/a	n/a	n/a
3886.51	n/a	RECOG_RESP	1943255	n/a	LTP063	ltpFR	1	3	1	ANCHOR	21	n/a	0	n/a	n/a	n/a	n/a	n/a
3887.498	n/a	RECOG_CONF	1943749	n/a	LTP063	ltpFR	1	3	1	ANCHOR	21	5	0	n/a	n/a	n/a	n/a	n/a
3889.034	n/a	RECOG_TARGET	1944517	n/a	LTP063	ltpFR	1	3	1	CHISEL	305	5	0	n/a	n/a	n/a	n/a	n/a
3889.792	n/a	RECOG_RESP	1944896	n/a	LTP063	ltpFR	1	3	1	CHISEL	305	n/a	0	n/a	n/a	n/a	n/a	n/a
3890.77	n/a	RECOG_CONF	1945385	n/a	LTP063	ltpFR	1	3	1	CHISEL	305	5	0	n/a	n/a	n/a	n/a	n/a
3892.286	n/a	RECOG_TARGET	1946143	n/a	LTP063	ltpFR	1	3	0	HEADBAND	696	4	0	n/a	n/a	n/a	n/a	n/a
3893.21	n/a	RECOG_RESP	1946605	n/a	LTP063	ltpFR	1	3	0	HEADBAND	696	n/a	0	n/a	n/a	n/a	n/a	n/a
3894.312	n/a	RECOG_CONF	1947156	n/a	LTP063	ltpFR	1	3	0	HEADBAND	696	4	0	n/a	n/a	n/a	n/a	n/a
3895.808	n/a	RECOG_TARGET	1947904	n/a	LTP063	ltpFR	1	3	0	PICTURE	1061	5	1	n/a	n/a	n/a	n/a	n/a
3896.352	n/a	RECOG_RESP	1948176	n/a	LTP063	ltpFR	1	3	0	PICTURE	1061	n/a	1	n/a	n/a	n/a	n/a	n/a
3897.166	n/a	RECOG_CONF	1948583	n/a	LTP063	ltpFR	1	3	0	PICTURE	1061	5	1	n/a	n/a	n/a	n/a	n/a
3898.654	n/a	RECOG_TARGET	1949327	n/a	LTP063	ltpFR	1	3	0	DILL	465	5	3	n/a	n/a	n/a	n/a	n/a
3899.25	n/a	RECOG_RESP	1949625	n/a	LTP063	ltpFR	1	3	0	DILL	465	n/a	3	n/a	n/a	n/a	n/a	n/a
3900.178	n/a	RECOG_CONF	1950089	n/a	LTP063	ltpFR	1	3	0	DILL	465	5	3	n/a	n/a	n/a	n/a	n/a
3901.668	n/a	RECOG_TARGET	1950834	n/a	LTP063	ltpFR	1	3	1	DICTIONARY	463	5	0	n/a	n/a	n/a	n/a	n/a
3902.238	n/a	RECOG_RESP	1951119	n/a	LTP063	ltpFR	1	3	1	DICTIONARY	463	n/a	0	n/a	n/a	n/a	n/a	n/a
3903.162	n/a	RECOG_CONF	1951581	n/a	LTP063	ltpFR	1	3	1	DICTIONARY	463	5	0	n/a	n/a	n/a	n/a	n/a
3904.556	n/a	RECOG_TARGET	1952278	n/a	LTP063	ltpFR	1	3	1	PIER	1063	2	0	n/a	n/a	n/a	n/a	n/a
3905.018	n/a	RECOG_RESP	1952509	n/a	LTP063	ltpFR	1	3	1	PIER	1063	n/a	0	n/a	n/a	n/a	n/a	n/a
3906.404	n/a	RECOG_CONF	1953202	n/a	LTP063	ltpFR	1	3	1	PIER	1063	2	0	n/a	n/a	n/a	n/a	n/a
3908.136	n/a	RECOG_TARGET	1954068	n/a	LTP063	ltpFR	1	3	0	APE	31	5	1	n/a	n/a	n/a	n/a	n/a
3908.69	n/a	RECOG_RESP	1954345	n/a	LTP063	ltpFR	1	3	0	APE	31	n/a	1	n/a	n/a	n/a	n/a	n/a
3909.606	n/a	RECOG_CONF	1954803	n/a	LTP063	ltpFR	1	3	0	APE	31	5	1	n/a	n/a	n/a	n/a	n/a
3911.108	n/a	RECOG_LURE	1955554	n/a	LTP063	ltpFR	1	3	n/a	FAMILY	550	3	n/a	n/a	n/a	n/a	n/a	n/a
3912.366	n/a	RECOG_RESP	1956183	n/a	LTP063	ltpFR	1	3	n/a	FAMILY	550	n/a	n/a	n/a	n/a	n/a	n/a	n/a
3913.668	n/a	RECOG_CONF	1956834	n/a	LTP063	ltpFR	1	3	n/a	FAMILY	550	3	n/a	n/a	n/a	n/a	n/a	n/a
3915.286	n/a	RECOG_TARGET	1957643	n/a	LTP063	ltpFR	1	3	0	AIRPLANE	12	5	1	n/a	n/a	n/a	n/a	n/a
3915.988	n/a	RECOG_RESP	1957994	n/a	LTP063	ltpFR	1	3	0	AIRPLANE	12	n/a	1	n/a	n/a	n/a	n/a	n/a
3916.89	n/a	RECOG_CONF	1958445	n/a	LTP063	ltpFR	1	3	0	AIRPLANE	12	5	1	n/a	n/a	n/a	n/a	n/a
3918.382	n/a	RECOG_TARGET	1959191	n/a	LTP063	ltpFR	1	3	0	ATLAS	53	5	1	n/a	n/a	n/a	n/a	n/a
3919.106	n/a	RECOG_RESP	1959553	n/a	LTP063	ltpFR	1	3	0	ATLAS	53	n/a	1	n/a	n/a	n/a	n/a	n/a
3920.442	n/a	RECOG_CONF	1960221	n/a	LTP063	ltpFR	1	3	0	ATLAS	53	5	1	n/a	n/a	n/a	n/a	n/a
3922.162	n/a	RECOG_LURE	1961081	n/a	LTP063	ltpFR	1	3	n/a	SPINE	1353	3	n/a	n/a	n/a	n/a	n/a	n/a
3922.972	n/a	RECOG_RESP	1961486	n/a	LTP063	ltpFR	1	3	n/a	SPINE	1353	n/a	n/a	n/a	n/a	n/a	n/a	n/a
3923.914	n/a	RECOG_CONF	1961957	n/a	LTP063	ltpFR	1	3	n/a	SPINE	1353	3	n/a	n/a	n/a	n/a	n/a	n/a
3925.44	n/a	RECOG_TARGET	1962720	n/a	LTP063	ltpFR	1	3	0	VEST	1559	5	0	n/a	n/a	n/a	n/a	n/a
3925.984	n/a	RECOG_RESP	1962992	n/a	LTP063	ltpFR	1	3	0	VEST	1559	n/a	0	n/a	n/a	n/a	n/a	n/a
3926.858	n/a	RECOG_CONF	1963429	n/a	LTP063	ltpFR	1	3	0	VEST	1559	5	0	n/a	n/a	n/a	n/a	n/a
3928.278	n/a	RECOG_LURE	1964139	n/a	LTP063	ltpFR	1	3	n/a	VEGETABLE	1552	4	n/a	n/a	n/a	n/a	n/a	n/a
3929.382	n/a	RECOG_RESP	1964691	n/a	LTP063	ltpFR	1	3	n/a	VEGETABLE	1552	n/a	n/a	n/a	n/a	n/a	n/a	n/a
3930.958	n/a	RECOG_CONF	1965479	n/a	LTP063	ltpFR	1	3	n/a	VEGETABLE	1552	4	n/a	n/a	n/a	n/a	n/a	n/a
3932.44	n/a	RECOG_TARGET	1966220	n/a	LTP063	ltpFR	1	3	-1	FOLDER	588	5	-1	n/a	n/a	n/a	n/a	n/a
3933.108	n/a	RECOG_RESP	1966554	n/a	LTP063	ltpFR	1	3	-1	FOLDER	588	n/a	-1	n/a	n/a	n/a	n/a	n/a
3934.092	n/a	RECOG_CONF	1967046	n/a	LTP063	ltpFR	1	3	-1	FOLDER	588	5	-1	n/a	n/a	n/a	n/a	n/a
3935.554	n/a	RECOG_TARGET	1967777	n/a	LTP063	ltpFR	1	3	0	MONEY	908	5	0	n/a	n/a	n/a	n/a	n/a
3936.236	n/a	RECOG_RESP	1968118	n/a	LTP063	ltpFR	1	3	0	MONEY	908	n/a	0	n/a	n/a	n/a	n/a	n/a
3937.164	n/a	RECOG_CONF	1968582	n/a	LTP063	ltpFR	1	3	0	MONEY	908	5	0	n/a	n/a	n/a	n/a	n/a
3938.692	n/a	RECOG_TARGET	1969346	n/a	LTP063	ltpFR	1	3	0	YARN	1631	5	0	n/a	n/a	n/a	n/a	n/a
3939.404	n/a	RECOG_RESP	1969702	n/a	LTP063	ltpFR	1	3	0	YARN	1631	n/a	0	n/a	n/a	n/a	n/a	n/a
3940.468	n/a	RECOG_CONF	1970234	n/a	LTP063	ltpFR	1	3	0	YARN	1631	5	0	n/a	n/a	n/a	n/a	n/a
3942.006	n/a	RECOG_TARGET	1971003	n/a	LTP063	ltpFR	1	3	0	UNIFORM	1539	5	1	n/a	n/a	n/a	n/a	n/a
3942.708	n/a	RECOG_RESP	1971354	n/a	LTP063	ltpFR	1	3	0	UNIFORM	1539	n/a	1	n/a	n/a	n/a	n/a	n/a
3943.69	n/a	RECOG_CONF	1971845	n/a	LTP063	ltpFR	1	3	0	UNIFORM	1539	5	1	n/a	n/a	n/a	n/a	n/a
3945.252	n/a	RECOG_TARGET	1972626	n/a	LTP063	ltpFR	1	3	0	BLUEPRINT	142	5	1	n/a	n/a	n/a	n/a	n/a
3945.946	n/a	RECOG_RESP	1972973	n/a	LTP063	ltpFR	1	3	0	BLUEPRINT	142	n/a	1	n/a	n/a	n/a	n/a	n/a
3946.984	n/a	RECOG_CONF	1973492	n/a	LTP063	ltpFR	1	3	0	BLUEPRINT	142	5	1	n/a	n/a	n/a	n/a	n/a
3950.614	n/a	REC_START	1975307	n/a	LTP063	ltpFR	1	4	n/a	n/a	n/a	n/a	n/a	n/a	n/a	n/a	n/a	n/a
3950.644	n/a	RECOG_TARGET	1975322	n/a	LTP063	ltpFR	1	4	1	HATCHET	691	5	0	n/a	n/a	n/a	n/a	n/a
3951.702	n/a	RECOG_RESP	1975851	n/a	LTP063	ltpFR	1	4	1	HATCHET	691	n/a	0	n/a	n/a	n/a	n/a	n/a
3952.604	n/a	RECOG_CONF	1976302	n/a	LTP063	ltpFR	1	4	1	HATCHET	691	5	0	n/a	n/a	n/a	n/a	n/a
3954.166	n/a	RECOG_LURE	1977083	n/a	LTP063	ltpFR	1	4	n/a	BOX	159	4	n/a	n/a	n/a	n/a	n/a	n/a
3955.288	n/a	RECOG_RESP	1977644	n/a	LTP063	ltpFR	1	4	n/a	BOX	159	n/a	n/a	n/a	n/a	n/a	n/a	n/a
3956.706	n/a	RECOG_CONF	1978353	n/a	LTP063	ltpFR	1	4	n/a	BOX	159	4	n/a	n/a	n/a	n/a	n/a	n/a
3958.188	n/a	RECOG_TARGET	1979094	n/a	LTP063	ltpFR	1	4	-1	PIPE	1073	5	-1	n/a	n/a	n/a	n/a	n/a
3958.906	n/a	RECOG_RESP	1979453	n/a	LTP063	ltpFR	1	4	-1	PIPE	1073	n/a	-1	n/a	n/a	n/a	n/a	n/a
3959.888	n/a	RECOG_CONF	1979944	n/a	LTP063	ltpFR	1	4	-1	PIPE	1073	5	-1	n/a	n/a	n/a	n/a	n/a
3961.3	n/a	RECOG_LURE	1980650	n/a	LTP063	ltpFR	1	4	n/a	VITAMIN	1574	4	n/a	n/a	n/a	n/a	n/a	n/a
3962.154	n/a	RECOG_RESP	1981077	n/a	LTP063	ltpFR	1	4	n/a	VITAMIN	1574	n/a	n/a	n/a	n/a	n/a	n/a	n/a
3963.022	n/a	RECOG_CONF	1981511	n/a	LTP063	ltpFR	1	4	n/a	VITAMIN	1574	4	n/a	n/a	n/a	n/a	n/a	n/a
3964.528	n/a	RECOG_LURE	1982264	n/a	LTP063	ltpFR	1	4	n/a	DUCK	504	3	n/a	n/a	n/a	n/a	n/a	n/a
3965.46	n/a	RECOG_RESP	1982730	n/a	LTP063	ltpFR	1	4	n/a	DUCK	504	n/a	n/a	n/a	n/a	n/a	n/a	n/a
3966.394	n/a	RECOG_CONF	1983197	n/a	LTP063	ltpFR	1	4	n/a	DUCK	504	3	n/a	n/a	n/a	n/a	n/a	n/a
3967.9	n/a	RECOG_TARGET	1983950	n/a	LTP063	ltpFR	1	4	-1	FUNGUS	614	5	-1	n/a	n/a	n/a	n/a	n/a
3968.634	n/a	RECOG_RESP	1984317	n/a	LTP063	ltpFR	1	4	-1	FUNGUS	614	n/a	-1	n/a	n/a	n/a	n/a	n/a
3969.516	n/a	RECOG_CONF	1984758	n/a	LTP063	ltpFR	1	4	-1	FUNGUS	614	5	-1	n/a	n/a	n/a	n/a	n/a
3971.022	n/a	RECOG_LURE	1985511	n/a	LTP063	ltpFR	1	4	n/a	PLAQUE	1084	4	n/a	n/a	n/a	n/a	n/a	n/a
3972.27	n/a	RECOG_RESP	1986135	n/a	LTP063	ltpFR	1	4	n/a	PLAQUE	1084	n/a	n/a	n/a	n/a	n/a	n/a	n/a
3973.408	n/a	RECOG_CONF	1986704	n/a	LTP063	ltpFR	1	4	n/a	PLAQUE	1084	4	n/a	n/a	n/a	n/a	n/a	n/a
3975.01	n/a	RECOG_TARGET	1987505	n/a	LTP063	ltpFR	1	4	0	RELATIVE	1182	3	1	n/a	n/a	n/a	n/a	n/a
3976.112	n/a	RECOG_RESP	1988056	n/a	LTP063	ltpFR	1	4	0	RELATIVE	1182	n/a	1	n/a	n/a	n/a	n/a	n/a
3977.268	n/a	RECOG_CONF	1988634	n/a	LTP063	ltpFR	1	4	0	RELATIVE	1182	3	1	n/a	n/a	n/a	n/a	n/a
3978.888	n/a	RECOG_TARGET	1989444	n/a	LTP063	ltpFR	1	4	1	TUB	1514	4	0	n/a	n/a	n/a	n/a	n/a
3979.724	n/a	RECOG_RESP	1989862	n/a	LTP063	ltpFR	1	4	1	TUB	1514	n/a	0	n/a	n/a	n/a	n/a	n/a
3980.612	n/a	RECOG_CONF	1990306	n/a	LTP063	ltpFR	1	4	1	TUB	1514	4	0	n/a	n/a	n/a	n/a	n/a
3982.092	n/a	RECOG_TARGET	1991046	n/a	LTP063	ltpFR	1	4	0	POSSUM	1112	5	1	n/a	n/a	n/a	n/a	n/a
3982.696	n/a	RECOG_RESP	1991348	n/a	LTP063	ltpFR	1	4	0	POSSUM	1112	n/a	1	n/a	n/a	n/a	n/a	n/a
3983.614	n/a	RECOG_CONF	1991807	n/a	LTP063	ltpFR	1	4	0	POSSUM	1112	5	1	n/a	n/a	n/a	n/a	n/a
3985.148	n/a	RECOG_TARGET	1992574	n/a	LTP063	ltpFR	1	4	0	CERAMICS	271	5	1	n/a	n/a	n/a	n/a	n/a
3985.82	n/a	RECOG_RESP	1992910	n/a	LTP063	ltpFR	1	4	0	CERAMICS	271	n/a	1	n/a	n/a	n/a	n/a	n/a
3986.828	n/a	RECOG_CONF	1993414	n/a	LTP063	ltpFR	1	4	0	CERAMICS	271	5	1	n/a	n/a	n/a	n/a	n/a
3988.292	n/a	RECOG_TARGET	1994146	n/a	LTP063	ltpFR	1	4	-1	HEDGE	699	5	-1	n/a	n/a	n/a	n/a	n/a
3988.878	n/a	RECOG_RESP	1994439	n/a	LTP063	ltpFR	1	4	-1	HEDGE	699	n/a	-1	n/a	n/a	n/a	n/a	n/a
3989.83	n/a	RECOG_CONF	1994915	n/a	LTP063	ltpFR	1	4	-1	HEDGE	699	5	-1	n/a	n/a	n/a	n/a	n/a
3991.39	n/a	RECOG_TARGET	1995695	n/a	LTP063	ltpFR	1	4	1	CHAPEL	280	5	0	n/a	n/a	n/a	n/a	n/a
3991.86	n/a	RECOG_RESP	1995930	n/a	LTP063	ltpFR	1	4	1	CHAPEL	280	n/a	0	n/a	n/a	n/a	n/a	n/a
3992.824	n/a	RECOG_CONF	1996412	n/a	LTP063	ltpFR	1	4	1	CHAPEL	280	5	0	n/a	n/a	n/a	n/a	n/a
3994.47	n/a	RECOG_LURE	1997235	n/a	LTP063	ltpFR	1	4	n/a	FIREPLACE	570	3	n/a	n/a	n/a	n/a	n/a	n/a
3995.298	n/a	RECOG_RESP	1997649	n/a	LTP063	ltpFR	1	4	n/a	FIREPLACE	570	n/a	n/a	n/a	n/a	n/a	n/a	n/a
3996.206	n/a	RECOG_CONF	1998103	n/a	LTP063	ltpFR	1	4	n/a	FIREPLACE	570	3	n/a	n/a	n/a	n/a	n/a	n/a
3997.816	n/a	RECOG_TARGET	1998908	n/a	LTP063	ltpFR	1	4	-1	BUGLE	189	5	-1	n/a	n/a	n/a	n/a	n/a
3998.446	n/a	RECOG_RESP	1999223	n/a	LTP063	ltpFR	1	4	-1	BUGLE	189	n/a	-1	n/a	n/a	n/a	n/a	n/a
3999.348	n/a	RECOG_CONF	1999674	n/a	LTP063	ltpFR	1	4	-1	BUGLE	189	5	-1	n/a	n/a	n/a	n/a	n/a
4000.88	n/a	RECOG_TARGET	2000440	n/a	LTP063	ltpFR	1	4	0	CANDIDATE	228	5	1	n/a	n/a	n/a	n/a	n/a
4001.598	n/a	RECOG_RESP	2000799	n/a	LTP063	ltpFR	1	4	0	CANDIDATE	228	n/a	1	n/a	n/a	n/a	n/a	n/a
4002.542	n/a	RECOG_CONF	2001271	n/a	LTP063	ltpFR	1	4	0	CANDIDATE	228	5	1	n/a	n/a	n/a	n/a	n/a
4004.058	n/a	RECOG_TARGET	2002029	n/a	LTP063	ltpFR	1	4	1	CLERK	321	3	1	n/a	n/a	n/a	n/a	n/a
4005.69	n/a	RECOG_RESP	2002845	n/a	LTP063	ltpFR	1	4	1	CLERK	321	n/a	1	n/a	n/a	n/a	n/a	n/a
4006.902	n/a	RECOG_CONF	2003451	n/a	LTP063	ltpFR	1	4	1	CLERK	321	3	1	n/a	n/a	n/a	n/a	n/a
4008.42	n/a	RECOG_LURE	2004210	n/a	LTP063	ltpFR	1	4	n/a	LASH	802	4	n/a	n/a	n/a	n/a	n/a	n/a
4009.142	n/a	RECOG_RESP	2004571	n/a	LTP063	ltpFR	1	4	n/a	LASH	802	n/a	n/a	n/a	n/a	n/a	n/a	n/a
4010.314	n/a	RECOG_CONF	2005157	n/a	LTP063	ltpFR	1	4	n/a	LASH	802	4	n/a	n/a	n/a	n/a	n/a	n/a
4011.776	n/a	RECOG_TARGET	2005888	n/a	LTP063	ltpFR	1	4	1	APRON	35	5	0	n/a	n/a	n/a	n/a	n/a
4012.368	n/a	RECOG_RESP	2006184	n/a	LTP063	ltpFR	1	4	1	APRON	35	n/a	0	n/a	n/a	n/a	n/a	n/a
4013.266	n/a	RECOG_CONF	2006633	n/a	LTP063	ltpFR	1	4	1	APRON	35	5	0	n/a	n/a	n/a	n/a	n/a
4014.678	n/a	RECOG_TARGET	2007339	n/a	LTP063	ltpFR	1	4	1	MOLECULE	905	5	1	n/a	n/a	n/a	n/a	n/a
4015.398	n/a	RECOG_RESP	2007699	n/a	LTP063	ltpFR	1	4	1	MOLECULE	905	n/a	1	n/a	n/a	n/a	n/a	n/a
4016.35	n/a	RECOG_CONF	2008175	n/a	LTP063	ltpFR	1	4	1	MOLECULE	905	5	1	n/a	n/a	n/a	n/a	n/a
4019.8	n/a	REC_START	2009900	n/a	LTP063	ltpFR	1	5	n/a	n/a	n/a	n/a	n/a	n/a	n/a	n/a	n/a	n/a
4019.824	n/a	RECOG_TARGET	2009912	n/a	LTP063	ltpFR	1	5	1	KING	777	5	1	n/a	n/a	n/a	n/a	n/a
4020.542	n/a	RECOG_RESP	2010271	n/a	LTP063	ltpFR	1	5	1	KING	777	n/a	1	n/a	n/a	n/a	n/a	n/a
4021.75	n/a	RECOG_CONF	2010875	n/a	LTP063	ltpFR	1	5	1	KING	777	5	1	n/a	n/a	n/a	n/a	n/a
4023.228	n/a	RECOG_LURE	2011614	n/a	LTP063	ltpFR	1	5	n/a	ORCHID	982	4	n/a	n/a	n/a	n/a	n/a	n/a
4023.956	n/a	RECOG_RESP	2011978	n/a	LTP063	ltpFR	1	5	n/a	ORCHID	982	n/a	n/a	n/a	n/a	n/a	n/a	n/a
4024.904	n/a	RECOG_CONF	2012452	n/a	LTP063	ltpFR	1	5	n/a	ORCHID	982	4	n/a	n/a	n/a	n/a	n/a	n/a
4026.366	n/a	RECOG_TARGET	2013183	n/a	LTP063	ltpFR	1	5	1	INFANT	737	3	1	n/a	n/a	n/a	n/a	n/a
4027.732	n/a	RECOG_RESP	2013866	n/a	LTP063	ltpFR	1	5	1	INFANT	737	n/a	1	n/a	n/a	n/a	n/a	n/a
4028.844	n/a	RECOG_CONF	2014422	n/a	LTP063	ltpFR	1	5	1	INFANT	737	3	1	n/a	n/a	n/a	n/a	n/a
4030.454	n/a	RECOG_TARGET	2015227	n/a	LTP063	ltpFR	1	5	-1	PENCIL	1042	5	-1	n/a	n/a	n/a	n/a	n/a
4031.064	n/a	RECOG_RESP	2015532	n/a	LTP063	ltpFR	1	5	-1	PENCIL	1042	n/a	-1	n/a	n/a	n/a	n/a	n/a
4031.988	n/a	RECOG_CONF	2015994	n/a	LTP063	ltpFR	1	5	-1	PENCIL	1042	5	-1	n/a	n/a	n/a	n/a	n/a
4033.516	n/a	RECOG_TARGET	2016758	n/a	LTP063	ltpFR	1	5	1	SKUNK	1321	5	1	n/a	n/a	n/a	n/a	n/a
4034.148	n/a	RECOG_RESP	2017074	n/a	LTP063	ltpFR	1	5	1	SKUNK	1321	n/a	1	n/a	n/a	n/a	n/a	n/a
4035.19	n/a	RECOG_CONF	2017595	n/a	LTP063	ltpFR	1	5	1	SKUNK	1321	5	1	n/a	n/a	n/a	n/a	n/a
4036.672	n/a	RECOG_TARGET	2018336	n/a	LTP063	ltpFR	1	5	1	SLEIGH	1325	5	0	n/a	n/a	n/a	n/a	n/a
4037.326	n/a	RECOG_RESP	2018663	n/a	LTP063	ltpFR	1	5	1	SLEIGH	1325	n/a	0	n/a	n/a	n/a	n/a	n/a
4038.384	n/a	RECOG_CONF	2019192	n/a	LTP063	ltpFR	1	5	1	SLEIGH	1325	5	0	n/a	n/a	n/a	n/a	n/a
4039.86	n/a	RECOG_LURE	2019930	n/a	LTP063	ltpFR	1	5	n/a	RAIL	1161	3	n/a	n/a	n/a	n/a	n/a	n/a
4040.682	n/a	RECOG_RESP	2020341	n/a	LTP063	ltpFR	1	5	n/a	RAIL	1161	n/a	n/a	n/a	n/a	n/a	n/a	n/a
4041.606	n/a	RECOG_CONF	2020803	n/a	LTP063	ltpFR	1	5	n/a	RAIL	1161	3	n/a	n/a	n/a	n/a	n/a	n/a
4043.132	n/a	RECOG_TARGET	2021566	n/a	LTP063	ltpFR	1	5	1	BALCONY	72	5	0	n/a	n/a	n/a	n/a	n/a
4044.224	n/a	RECOG_RESP	2022112	n/a	LTP063	ltpFR	1	5	1	BALCONY	72	n/a	0	n/a	n/a	n/a	n/a	n/a
4045.028	n/a	RECOG_CONF	2022514	n/a	LTP063	ltpFR	1	5	1	BALCONY	72	5	0	n/a	n/a	n/a	n/a	n/a
4046.618	n/a	RECOG_TARGET	2023309	n/a	LTP063	ltpFR	1	5	0	ZEBRA	1635	5	1	n/a	n/a	n/a	n/a	n/a
4047.598	n/a	RECOG_RESP	2023799	n/a	LTP063	ltpFR	1	5	0	ZEBRA	1635	n/a	1	n/a	n/a	n/a	n/a	n/a
4048.44	n/a	RECOG_CONF	2024220	n/a	LTP063	ltpFR	1	5	0	ZEBRA	1635	5	1	n/a	n/a	n/a	n/a	n/a
4049.916	n/a	RECOG_TARGET	2024958	n/a	LTP063	ltpFR	1	5	1	CHEMICAL	291	5	0	n/a	n/a	n/a	n/a	n/a
4050.726	n/a	RECOG_RESP	2025363	n/a	LTP063	ltpFR	1	5	1	CHEMICAL	291	n/a	0	n/a	n/a	n/a	n/a	n/a
4051.594	n/a	RECOG_CONF	2025797	n/a	LTP063	ltpFR	1	5	1	CHEMICAL	291	5	0	n/a	n/a	n/a	n/a	n/a
4053.012	n/a	RECOG_TARGET	2026506	n/a	LTP063	ltpFR	1	5	0	FROST	609	5	0	n/a	n/a	n/a	n/a	n/a
4053.668	n/a	RECOG_RESP	2026834	n/a	LTP063	ltpFR	1	5	0	FROST	609	n/a	0	n/a	n/a	n/a	n/a	n/a
4054.606	n/a	RECOG_CONF	2027303	n/a	LTP063	ltpFR	1	5	0	FROST	609	5	0	n/a	n/a	n/a	n/a	n/a
4056.158	n/a	RECOG_TARGET	2028079	n/a	LTP063	ltpFR	1	5	-1	GOBLIN	645	5	-1	n/a	n/a	n/a	n/a	n/a
4056.722	n/a	RECOG_RESP	2028361	n/a	LTP063	ltpFR	1	5	-1	GOBLIN	645	n/a	-1	n/a	n/a	n/a	n/a	n/a
4057.71	n/a	RECOG_CONF	2028855	n/a	LTP063	ltpFR	1	5	-1	GOBLIN	645	5	-1	n/a	n/a	n/a	n/a	n/a
4059.138	n/a	RECOG_TARGET	2029569	n/a	LTP063	ltpFR	1	5	-1	VIOLA	1570	5	-1	n/a	n/a	n/a	n/a	n/a
4059.704	n/a	RECOG_RESP	2029852	n/a	LTP063	ltpFR	1	5	-1	VIOLA	1570	n/a	-1	n/a	n/a	n/a	n/a	n/a
4060.692	n/a	RECOG_CONF	2030346	n/a	LTP063	ltpFR	1	5	-1	VIOLA	1570	5	-1	n/a	n/a	n/a	n/a	n/a
4062.15	n/a	RECOG_TARGET	2031075	n/a	LTP063	ltpFR	1	5	1	ROOMMATE	1207	5	1	n/a	n/a	n/a	n/a	n/a
4062.738	n/a	RECOG_RESP	2031369	n/a	LTP063	ltpFR	1	5	1	ROOMMATE	1207	n/a	1	n/a	n/a	n/a	n/a	n/a
4063.666	n/a	RECOG_CONF	2031833	n/a	LTP063	ltpFR	1	5	1	ROOMMATE	1207	5	1	n/a	n/a	n/a	n/a	n/a
4065.056	n/a	RECOG_TARGET	2032528	n/a	LTP063	ltpFR	1	5	-1	FRIES	607	5	-1	n/a	n/a	n/a	n/a	n/a
4065.636	n/a	RECOG_RESP	2032818	n/a	LTP063	ltpFR	1	5	-1	FRIES	607	n/a	-1	n/a	n/a	n/a	n/a	n/a
4066.54	n/a	RECOG_CONF	2033270	n/a	LTP063	ltpFR	1	5	-1	FRIES	607	5	-1	n/a	n/a	n/a	n/a	n/a
4067.96	n/a	RECOG_TARGET	2033980	n/a	LTP063	ltpFR	1	5	1	KANGAROO	768	5	1	n/a	n/a	n/a	n/a	n/a
4068.424	n/a	RECOG_RESP	2034212	n/a	LTP063	ltpFR	1	5	1	KANGAROO	768	n/a	1	n/a	n/a	n/a	n/a	n/a
4069.452	n/a	RECOG_CONF	2034726	n/a	LTP063	ltpFR	1	5	1	KANGAROO	768	5	1	n/a	n/a	n/a	n/a	n/a
4070.99	n/a	RECOG_TARGET	2035495	n/a	LTP063	ltpFR	1	5	-1	SCREEN	1253	3	-1	n/a	n/a	n/a	n/a	n/a
4071.678	n/a	RECOG_RESP	2035839	n/a	LTP063	ltpFR	1	5	-1	SCREEN	1253	n/a	-1	n/a	n/a	n/a	n/a	n/a
4072.576	n/a	RECOG_CONF	2036288	n/a	LTP063	ltpFR	1	5	-1	SCREEN	1253	3	-1	n/a	n/a	n/a	n/a	n/a
4074.07	n/a	RECOG_TARGET	2037035	n/a	LTP063	ltpFR	1	5	-1	KIDNEY	776	5	-1	n/a	n/a	n/a	n/a	n/a
4074.596	n/a	RECOG_RESP	2037298	n/a	LTP063	ltpFR	1	5	-1	KIDNEY	776	n/a	-1	n/a	n/a	n/a	n/a	n/a
4075.458	n/a	RECOG_CONF	2037729	n/a	LTP063	ltpFR	1	5	-1	KIDNEY	776	5	-1	n/a	n/a	n/a	n/a	n/a
4076.942	n/a	RECOG_TARGET	2038471	n/a	LTP063	ltpFR	1	5	0	PEOPLE	1046	5	1	n/a	n/a	n/a	n/a	n/a
4077.928	n/a	RECOG_RESP	2038964	n/a	LTP063	ltpFR	1	5	0	PEOPLE	1046	n/a	1	n/a	n/a	n/a	n/a	n/a
4078.702	n/a	RECOG_CONF	2039351	n/a	LTP063	ltpFR	1	5	0	PEOPLE	1046	5	1	n/a	n/a	n/a	n/a	n/a
4080.204	n/a	RECOG_LURE	2040102	n/a	LTP063	ltpFR	1	5	n/a	MAP	865	3	n/a	n/a	n/a	n/a	n/a	n/a
4081.056	n/a	RECOG_RESP	2040528	n/a	LTP063	ltpFR	1	5	n/a	MAP	865	n/a	n/a	n/a	n/a	n/a	n/a	n/a
4082.034	n/a	RECOG_CONF	2041017	n/a	LTP063	ltpFR	1	5	n/a	MAP	865	3	n/a	n/a	n/a	n/a	n/a	n/a
4085.488	n/a	REC_START	2042744	n/a	LTP063	ltpFR	1	6	n/a	n/a	n/a	n/a	n/a	n/a	n/a	n/a	n/a	n/a
4085.514	n/a	RECOG_TARGET	2042757	n/a	LTP063	ltpFR	1	6	0	RANCH	1166	5	1	n/a	n/a	n/a	n/a	n/a
4086.086	n/a	RECOG_RESP	2043043	n/a	LTP063	ltpFR	1	6	0	RANCH	1166	n/a	1	n/a	n/a	n/a	n/a	n/a
4087.12	n/a	RECOG_CONF	2043560	n/a	LTP063	ltpFR	1	6	0	RANCH	1166	5	1	n/a	n/a	n/a	n/a	n/a
4088.62	n/a	RECOG_TARGET	2044310	n/a	LTP063	ltpFR	1	6	1	SCULPTURE	1258	5	0	n/a	n/a	n/a	n/a	n/a
4089.29	n/a	RECOG_RESP	2044645	n/a	LTP063	ltpFR	1	6	1	SCULPTURE	1258	n/a	0	n/a	n/a	n/a	n/a	n/a
4090.172	n/a	RECOG_CONF	2045086	n/a	LTP063	ltpFR	1	6	1	SCULPTURE	1258	5	0	n/a	n/a	n/a	n/a	n/a
4091.55	n/a	RECOG_LURE	2045775	n/a	LTP063	ltpFR	1	6	n/a	FUNERAL	613	3	n/a	n/a	n/a	n/a	n/a	n/a
4092.528	n/a	RECOG_RESP	2046264	n/a	LTP063	ltpFR	1	6	n/a	FUNERAL	613	n/a	n/a	n/a	n/a	n/a	n/a	n/a
4093.366	n/a	RECOG_CONF	2046683	n/a	LTP063	ltpFR	1	6	n/a	FUNERAL	613	3	n/a	n/a	n/a	n/a	n/a	n/a
4094.872	n/a	RECOG_TARGET	2047436	n/a	LTP063	ltpFR	1	6	-1	GODDESS	646	5	-1	n/a	n/a	n/a	n/a	n/a
4095.386	n/a	RECOG_RESP	2047693	n/a	LTP063	ltpFR	1	6	-1	GODDESS	646	n/a	-1	n/a	n/a	n/a	n/a	n/a
4096.17	n/a	RECOG_CONF	2048085	n/a	LTP063	ltpFR	1	6	-1	GODDESS	646	5	-1	n/a	n/a	n/a	n/a	n/a
4097.616	n/a	RECOG_LURE	2048808	n/a	LTP063	ltpFR	1	6	n/a	BEE	112	4	n/a	n/a	n/a	n/a	n/a	n/a
4098.664	n/a	RECOG_RESP	2049332	n/a	LTP063	ltpFR	1	6	n/a	BEE	112	n/a	n/a	n/a	n/a	n/a	n/a	n/a
4099.79	n/a	RECOG_CONF	2049895	n/a	LTP063	ltpFR	1	6	n/a	BEE	112	4	n/a	n/a	n/a	n/a	n/a	n/a
4101.272	n/a	RECOG_TARGET	2050636	n/a	LTP063	ltpFR	1	6	1	TECHNICIAN	1443	5	1	n/a	n/a	n/a	n/a	n/a
4101.896	n/a	RECOG_RESP	2050948	n/a	LTP063	ltpFR	1	6	1	TECHNICIAN	1443	n/a	1	n/a	n/a	n/a	n/a	n/a
4102.744	n/a	RECOG_CONF	2051372	n/a	LTP063	ltpFR	1	6	1	TECHNICIAN	1443	5	1	n/a	n/a	n/a	n/a	n/a
4104.168	n/a	RECOG_LURE	2052084	n/a	LTP063	ltpFR	1	6	n/a	STEW	1380	4	n/a	n/a	n/a	n/a	n/a	n/a
4105.014	n/a	RECOG_RESP	2052507	n/a	LTP063	ltpFR	1	6	n/a	STEW	1380	n/a	n/a	n/a	n/a	n/a	n/a	n/a
4105.946	n/a	RECOG_CONF	2052973	n/a	LTP063	ltpFR	1	6	n/a	STEW	1380	4	n/a	n/a	n/a	n/a	n/a	n/a
4107.388	n/a	RECOG_TARGET	2053694	n/a	LTP063	ltpFR	1	6	1	NOSE	957	5	1	n/a	n/a	n/a	n/a	n/a
4107.988	n/a	RECOG_RESP	2053994	n/a	LTP063	ltpFR	1	6	1	NOSE	957	n/a	1	n/a	n/a	n/a	n/a	n/a
4108.832	n/a	RECOG_CONF	2054416	n/a	LTP063	ltpFR	1	6	1	NOSE	957	5	1	n/a	n/a	n/a	n/a	n/a
4110.222	n/a	RECOG_TARGET	2055111	n/a	LTP063	ltpFR	1	6	0	GAVEL	627	5	1	n/a	n/a	n/a	n/a	n/a
4110.792	n/a	RECOG_RESP	2055396	n/a	LTP063	ltpFR	1	6	0	GAVEL	627	n/a	1	n/a	n/a	n/a	n/a	n/a
4111.744	n/a	RECOG_CONF	2055872	n/a	LTP063	ltpFR	1	6	0	GAVEL	627	5	1	n/a	n/a	n/a	n/a	n/a
4113.16	n/a	RECOG_TARGET	2056580	n/a	LTP063	ltpFR	1	6	0	CORPORATION	382	5	1	n/a	n/a	n/a	n/a	n/a
4114.424	n/a	RECOG_RESP	2057212	n/a	LTP063	ltpFR	1	6	0	CORPORATION	382	n/a	1	n/a	n/a	n/a	n/a	n/a
4115.236	n/a	RECOG_CONF	2057618	n/a	LTP063	ltpFR	1	6	0	CORPORATION	382	5	1	n/a	n/a	n/a	n/a	n/a
4116.764	n/a	RECOG_TARGET	2058382	n/a	LTP063	ltpFR	1	6	-1	GUM	672	4	-1	n/a	n/a	n/a	n/a	n/a
4117.486	n/a	RECOG_RESP	2058743	n/a	LTP063	ltpFR	1	6	-1	GUM	672	n/a	-1	n/a	n/a	n/a	n/a	n/a
4118.27	n/a	RECOG_CONF	2059135	n/a	LTP063	ltpFR	1	6	-1	GUM	672	4	-1	n/a	n/a	n/a	n/a	n/a
4119.768	n/a	RECOG_LURE	2059884	n/a	LTP063	ltpFR	1	6	n/a	BADGE	68	4	n/a	n/a	n/a	n/a	n/a	n/a
4121.368	n/a	RECOG_RESP	2060684	n/a	LTP063	ltpFR	1	6	n/a	BADGE	68	n/a	n/a	n/a	n/a	n/a	n/a	n/a
4122.24	n/a	RECOG_CONF	2061120	n/a	LTP063	ltpFR	1	6	n/a	BADGE	68	4	n/a	n/a	n/a	n/a	n/a	n/a
4123.696	n/a	RECOG_TARGET	2061848	n/a	LTP063	ltpFR	1	6	0	FARMER	553	5	1	n/a	n/a	n/a	n/a	n/a
4124.356	n/a	RECOG_RESP	2062178	n/a	LTP063	ltpFR	1	6	0	FARMER	553	n/a	1	n/a	n/a	n/a	n/a	n/a
4125.164	n/a	RECOG_CONF	2062582	n/a	LTP063	ltpFR	1	6	0	FARMER	553	5	1	n/a	n/a	n/a	n/a	n/a
4126.642	n/a	RECOG_TARGET	2063321	n/a	LTP063	ltpFR	1	6	0	WOMAN	1620	5	1	n/a	n/a	n/a	n/a	n/a
4127.34	n/a	RECOG_RESP	2063670	n/a	LTP063	ltpFR	1	6	0	WOMAN	1620	n/a	1	n/a	n/a	n/a	n/a	n/a
4128.168	n/a	RECOG_CONF	2064084	n/a	LTP063	ltpFR	1	6	0	WOMAN	1620	5	1	n/a	n/a	n/a	n/a	n/a
4129.648	n/a	RECOG_TARGET	2064824	n/a	LTP063	ltpFR	1	6	1	NUCLEUS	961	5	1	n/a	n/a	n/a	n/a	n/a
4130.572	n/a	RECOG_RESP	2065286	n/a	LTP063	ltpFR	1	6	1	NUCLEUS	961	n/a	1	n/a	n/a	n/a	n/a	n/a
4131.34	n/a	RECOG_CONF	2065670	n/a	LTP063	ltpFR	1	6	1	NUCLEUS	961	5	1	n/a	n/a	n/a	n/a	n/a
4132.744	n/a	RECOG_TARGET	2066372	n/a	LTP063	ltpFR	1	6	0	NOTE	958	5	0	n/a	n/a	n/a	n/a	n/a
4133.436	n/a	RECOG_RESP	2066718	n/a	LTP063	ltpFR	1	6	0	NOTE	958	n/a	0	n/a	n/a	n/a	n/a	n/a
4134.354	n/a	RECOG_CONF	2067177	n/a	LTP063	ltpFR	1	6	0	NOTE	958	5	0	n/a	n/a	n/a	n/a	n/a
4135.8	n/a	RECOG_TARGET	2067900	n/a	LTP063	ltpFR	1	6	0	CART	250	5	1	n/a	n/a	n/a	n/a	n/a
4136.534	n/a	RECOG_RESP	2068267	n/a	LTP063	ltpFR	1	6	0	CART	250	n/a	1	n/a	n/a	n/a	n/a	n/a
4137.496	n/a	RECOG_CONF	2068748	n/a	LTP063	ltpFR	1	6	0	CART	250	5	1	n/a	n/a	n/a	n/a	n/a
4138.938	n/a	RECOG_LURE	2069469	n/a	LTP063	ltpFR	1	6	n/a	DUMP	505	3	n/a	n/a	n/a	n/a	n/a	n/a
4139.702	n/a	RECOG_RESP	2069851	n/a	LTP063	ltpFR	1	6	n/a	DUMP	505	n/a	n/a	n/a	n/a	n/a	n/a	n/a
4140.58	n/a	RECOG_CONF	2070290	n/a	LTP063	ltpFR	1	6	n/a	DUMP	505	3	n/a	n/a	n/a	n/a	n/a	n/a
4142.234	n/a	RECOG_TARGET	2071117	n/a	LTP063	ltpFR	1	6	1	WHISKERS	1605	5	0	n/a	n/a	n/a	n/a	n/a
4142.844	n/a	RECOG_RESP	2071422	n/a	LTP063	ltpFR	1	6	1	WHISKERS	1605	n/a	0	n/a	n/a	n/a	n/a	n/a
4143.672	n/a	RECOG_CONF	2071836	n/a	LTP063	ltpFR	1	6	1	WHISKERS	1605	5	0	n/a	n/a	n/a	n/a	n/a
4145.172	n/a	RECOG_LURE	2072586	n/a	LTP063	ltpFR	1	6	n/a	BILL	126	5	n/a	n/a	n/a	n/a	n/a	n/a
4145.842	n/a	RECOG_RESP	2072921	n/a	LTP063	ltpFR	1	6	n/a	BILL	126	n/a	n/a	n/a	n/a	n/a	n/a	n/a
4146.794	n/a	RECOG_CONF	2073397	n/a	LTP063	ltpFR	1	6	n/a	BILL	126	5	n/a	n/a	n/a	n/a	n/a	n/a
4160.982	n/a	REC_START	2080491	n/a	LTP063	ltpFR	1	7	n/a	n/a	n/a	n/a	n/a	n/a	n/a	n/a	n/a	n/a
4161.012	n/a	RECOG_TARGET	2080506	n/a	LTP063	ltpFR	1	7	0	CLOWN	330	5	1	n/a	n/a	n/a	n/a	n/a
4161.92	n/a	RECOG_RESP	2080960	n/a	LTP063	ltpFR	1	7	0	CLOWN	330	n/a	1	n/a	n/a	n/a	n/a	n/a
4162.874	n/a	RECOG_CONF	2081437	n/a	LTP063	ltpFR	1	7	0	CLOWN	330	5	1	n/a	n/a	n/a	n/a	n/a
4164.348	n/a	RECOG_LURE	2082174	n/a	LTP063	ltpFR	1	7	n/a	MARS	873	5	n/a	n/a	n/a	n/a	n/a	n/a
4165.074	n/a	RECOG_RESP	2082537	n/a	LTP063	ltpFR	1	7	n/a	MARS	873	n/a	n/a	n/a	n/a	n/a	n/a	n/a
4166.346	n/a	RECOG_CONF	2083173	n/a	LTP063	ltpFR	1	7	n/a	MARS	873	5	n/a	n/a	n/a	n/a	n/a	n/a
4167.904	n/a	RECOG_LURE	2083952	n/a	LTP063	ltpFR	1	7	n/a	GRAVEL	659	4	n/a	n/a	n/a	n/a	n/a	n/a
4169.228	n/a	RECOG_RESP	2084614	n/a	LTP063	ltpFR	1	7	n/a	GRAVEL	659	n/a	n/a	n/a	n/a	n/a	n/a	n/a
4170.296	n/a	RECOG_CONF	2085148	n/a	LTP063	ltpFR	1	7	n/a	GRAVEL	659	4	n/a	n/a	n/a	n/a	n/a	n/a
4171.816	n/a	RECOG_LURE	2085908	n/a	LTP063	ltpFR	1	7	n/a	PUPIL	1143	3	n/a	n/a	n/a	n/a	n/a	n/a
4173.12	n/a	RECOG_RESP	2086560	n/a	LTP063	ltpFR	1	7	n/a	PUPIL	1143	n/a	n/a	n/a	n/a	n/a	n/a	n/a
4174.148	n/a	RECOG_CONF	2087074	n/a	LTP063	ltpFR	1	7	n/a	PUPIL	1143	3	n/a	n/a	n/a	n/a	n/a	n/a
4175.736	n/a	RECOG_LURE	2087868	n/a	LTP063	ltpFR	1	7	n/a	BUREAU	199	3	n/a	n/a	n/a	n/a	n/a	n/a
