mstime	trial_type	stim_file	subject	experiment	session	trial	task	item_name	item_num	recog_resp	recog_conf	resp	color_r	color_g	color_b	case	font
0	SESS_START	n/a	LTP195	ltpFR	14	n/a	n/a	n/a	n/a	1	5	n/a	n/a	n/a	n/a	n/a	n/a
42874	WORD	wordpools/wasnorm_wordpool_less_exclusions.txt	LTP195	ltpFR	14	1	1	FOUNTAIN	597	1	n/a	0	0.57763671875	0.412841796875	1	upper	zerothre.ttf
46849	WORD	wordpools/wasnorm_wordpool_less_exclusions.txt	LTP195	ltpFR	14	1	1	PAD	998	n/a	n/a	0	0.57763671875	0.412841796875	1	upper	zerothre.ttf
50870	WORD	wordpools/wasnorm_wordpool_less_exclusions.txt	LTP195	ltpFR	14	1	1	ZOO	1637	n/a	n/a	1	0.57763671875	0.412841796875	1	upper	zerothre.ttf
54929	WORD	wordpools/wasnorm_wordpool_less_exclusions.txt	LTP195	ltpFR	14	1	1	SCAPEGOAT	1244	n/a	n/a	0	0.57763671875	0.412841796875	1	upper	zerothre.ttf
58934	WORD	wordpools/wasnorm_wordpool_less_exclusions.txt	LTP195	ltpFR	14	1	0	ELM	527	n/a	n/a	0	0.422607421875	0.5869140625	0	lower	amplitud.ttf
63111	WORD	wordpools/wasnorm_wordpool_less_exclusions.txt	LTP195	ltpFR	14	1	0	SWIMMER	1420	n/a	n/a	0	0.422607421875	0.5869140625	0	lower	amplitud.ttf
67031	WORD	wordpools/wasnorm_wordpool_less_exclusions.txt	LTP195	ltpFR	14	1	0	STAGE	1366	n/a	n/a	0	0.422607421875	0.5869140625	0	lower	amplitud.ttf
71131	WORD	wordpools/wasnorm_wordpool_less_exclusions.txt	LTP195	ltpFR	14	1	0	KITE	779	n/a	n/a	0	0.422607421875	0.5869140625	0	lower	amplitud.ttf
75011	WORD	wordpools/wasnorm_wordpool_less_exclusions.txt	LTP195	ltpFR	14	1	0	PLUM	1090	n/a	n/a	0	0.422607421875	0.5869140625	0	lower	amplitud.ttf
78993	WORD	wordpools/wasnorm_wordpool_less_exclusions.txt	LTP195	ltpFR	14	1	0	RASPBERRY	1168	n/a	n/a	0	0.422607421875	0.5869140625	0	lower	amplitud.ttf
83160	WORD	wordpools/wasnorm_wordpool_less_exclusions.txt	LTP195	ltpFR	14	1	1	SHORTCAKE	1292	n/a	n/a	0	0.57763671875	0.412841796875	1	upper	zerothre.ttf
87302	WORD	wordpools/wasnorm_wordpool_less_exclusions.txt	LTP195	ltpFR	14	1	1	TICKET	1464	n/a	n/a	0	0.57763671875	0.412841796875	1	upper	zerothre.ttf
91224	WORD	wordpools/wasnorm_wordpool_less_exclusions.txt	LTP195	ltpFR	14	1	0	CONTAINER	366	n/a	n/a	0	0.422607421875	0.5869140625	0	lower	amplitud.ttf
95433	WORD	wordpools/wasnorm_wordpool_less_exclusions.txt	LTP195	ltpFR	14	1	0	ESSAY	540	n/a	n/a	0	0.422607421875	0.5869140625	0	lower	amplitud.ttf
99638	WORD	wordpools/wasnorm_wordpool_less_exclusions.txt	LTP195	ltpFR	14	1	1	CHIEF	298	n/a	n/a	0	0.57763671875	0.412841796875	1	upper	zerothre.ttf
103619	WORD	wordpools/wasnorm_wordpool_less_exclusions.txt	LTP195	ltpFR	14	1	1	FOLLOWER	589	n/a	n/a	1	0.57763671875	0.412841796875	1	upper	zerothre.ttf
109620	REC_START	n/a	LTP195	ltpFR	14	1	n/a	n/a	n/a	n/a	n/a	n/a	n/a	n/a	n/a	n/a	n/a
111036	REC_WORD	wordpools/wasnorm_wordpool_less_exclusions.txt	LTP195	ltpFR	14	1	1	FOLLOWER	589	n/a	n/a	1	n/a	n/a	n/a	n/a	n/a
112129	REC_WORD	wordpools/wasnorm_wordpool_less_exclusions.txt	LTP195	ltpFR	14	1	1	CHIEF	298	n/a	n/a	0	n/a	n/a	n/a	n/a	n/a
114104	REC_WORD	wordpools/wasnorm_wordpool_less_exclusions.txt	LTP195	ltpFR	14	1	0	CONTAINER	366	n/a	n/a	0	n/a	n/a	n/a	n/a	n/a
115262	REC_WORD	wordpools/wasnorm_wordpool_less_exclusions.txt	LTP195	ltpFR	14	1	0	PLUM	1090	n/a	n/a	0	n/a	n/a	n/a	n/a	n/a
115965	REC_WORD	wordpools/wasnorm_wordpool_less_exclusions.txt	LTP195	ltpFR	14	1	0	RASPBERRY	1168	n/a	n/a	0	n/a	n/a	n/a	n/a	n/a
117342	REC_WORD	wordpools/wasnorm_wordpool_less_exclusions.txt	LTP195	ltpFR	14	1	0	ELM	527	n/a	n/a	0	n/a	n/a	n/a	n/a	n/a
118634	REC_WORD	wordpools/wasnorm_wordpool_less_exclusions.txt	LTP195	ltpFR	14	1	0	KITE	779	n/a	n/a	0	n/a	n/a	n/a	n/a	n/a
121213	REC_WORD	wordpools/wasnorm_wordpool_less_exclusions.txt	LTP195	ltpFR	14	1	0	SWIMMER	1420	n/a	n/a	0	n/a	n/a	n/a	n/a	n/a
122994	REC_WORD	wordpools/wasnorm_wordpool_less_exclusions.txt	LTP195	ltpFR	14	1	1	ZOO	1637	n/a	n/a	1	n/a	n/a	n/a	n/a	n/a
124331	REC_WORD	wordpools/wasnorm_wordpool_less_exclusions.txt	LTP195	ltpFR	14	1	1	FOUNTAIN	597	n/a	n/a	0	n/a	n/a	n/a	n/a	n/a
126322	REC_WORD	wordpools/wasnorm_wordpool_less_exclusions.txt	LTP195	ltpFR	14	1	1	PAD	998	n/a	n/a	0	n/a	n/a	n/a	n/a	n/a
135416	REC_WORD	wordpools/wasnorm_wordpool_less_exclusions.txt	LTP195	ltpFR	14	1	0	ESSAY	540	n/a	n/a	0	n/a	n/a	n/a	n/a	n/a
137980	REC_WORD	wordpools/wasnorm_wordpool_less_exclusions.txt	LTP195	ltpFR	14	1	1	SHORTCAKE	1292	n/a	n/a	0	n/a	n/a	n/a	n/a	n/a
143113	REC_WORD	wordpools/wasnorm_wordpool_less_exclusions.txt	LTP195	ltpFR	14	1	1	TICKET	1464	n/a	n/a	0	n/a	n/a	n/a	n/a	n/a
194396	WORD	wordpools/wasnorm_wordpool_less_exclusions.txt	LTP195	ltpFR	14	2	0	LUNCH	849	n/a	n/a	0	0.422607421875	0.5869140625	0	lower	amplitud.ttf
198354	WORD	wordpools/wasnorm_wordpool_less_exclusions.txt	LTP195	ltpFR	14	2	0	RICE	1190	n/a	n/a	0	0.422607421875	0.5869140625	0	lower	amplitud.ttf
202409	WORD	wordpools/wasnorm_wordpool_less_exclusions.txt	LTP195	ltpFR	14	2	1	TAG	1429	n/a	n/a	0	0.57763671875	0.412841796875	1	upper	zerothre.ttf
206257	WORD	wordpools/wasnorm_wordpool_less_exclusions.txt	LTP195	ltpFR	14	2	1	BARK	87	n/a	n/a	0	0.57763671875	0.412841796875	1	upper	zerothre.ttf
210172	WORD	wordpools/wasnorm_wordpool_less_exclusions.txt	LTP195	ltpFR	14	2	0	PASSENGER	1020	n/a	n/a	1	0.422607421875	0.5869140625	0	lower	amplitud.ttf
214220	WORD	wordpools/wasnorm_wordpool_less_exclusions.txt	LTP195	ltpFR	14	2	0	KEEPER	769	n/a	n/a	1	0.422607421875	0.5869140625	0	lower	amplitud.ttf
218196	WORD	wordpools/wasnorm_wordpool_less_exclusions.txt	LTP195	ltpFR	14	2	0	TROMBONE	1508	n/a	n/a	0	0.422607421875	0.5869140625	0	lower	amplitud.ttf
222167	WORD	wordpools/wasnorm_wordpool_less_exclusions.txt	LTP195	ltpFR	14	2	0	HELICOPTER	701	n/a	n/a	1	0.422607421875	0.5869140625	0	lower	amplitud.ttf
226249	WORD	wordpools/wasnorm_wordpool_less_exclusions.txt	LTP195	ltpFR	14	2	0	EMPLOYER	532	n/a	n/a	1	0.422607421875	0.5869140625	0	lower	amplitud.ttf
230398	WORD	wordpools/wasnorm_wordpool_less_exclusions.txt	LTP195	ltpFR	14	2	0	WORKER	1621	n/a	n/a	1	0.422607421875	0.5869140625	0	lower	amplitud.ttf
234440	WORD	wordpools/wasnorm_wordpool_less_exclusions.txt	LTP195	ltpFR	14	2	1	HERD	705	n/a	n/a	1	0.57763671875	0.412841796875	1	upper	zerothre.ttf
238278	WORD	wordpools/wasnorm_wordpool_less_exclusions.txt	LTP195	ltpFR	14	2	1	BREAST	171	n/a	n/a	0	0.57763671875	0.412841796875	1	upper	zerothre.ttf
242376	WORD	wordpools/wasnorm_wordpool_less_exclusions.txt	LTP195	ltpFR	14	2	1	TURNIP	1521	n/a	n/a	1	0.57763671875	0.412841796875	1	upper	zerothre.ttf
246518	WORD	wordpools/wasnorm_wordpool_less_exclusions.txt	LTP195	ltpFR	14	2	1	CLOTHES	327	n/a	n/a	0	0.57763671875	0.412841796875	1	upper	zerothre.ttf
250667	WORD	wordpools/wasnorm_wordpool_less_exclusions.txt	LTP195	ltpFR	14	2	1	NOTE	958	n/a	n/a	0	0.57763671875	0.412841796875	1	upper	zerothre.ttf
254555	WORD	wordpools/wasnorm_wordpool_less_exclusions.txt	LTP195	ltpFR	14	2	1	TURKEY	1520	n/a	n/a	1	0.57763671875	0.412841796875	1	upper	zerothre.ttf
260488	REC_START	n/a	LTP195	ltpFR	14	2	n/a	n/a	n/a	n/a	n/a	n/a	n/a	n/a	n/a	n/a	n/a
261575	REC_WORD	wordpools/wasnorm_wordpool_less_exclusions.txt	LTP195	ltpFR	14	2	0	LUNCH	849	n/a	n/a	0	n/a	n/a	n/a	n/a	n/a
262348	REC_WORD	wordpools/wasnorm_wordpool_less_exclusions.txt	LTP195	ltpFR	14	2	0	RICE	1190	n/a	n/a	0	n/a	n/a	n/a	n/a	n/a
264149	REC_WORD	wordpools/wasnorm_wordpool_less_exclusions.txt	LTP195	ltpFR	14	2	1	TAG	1429	n/a	n/a	0	n/a	n/a	n/a	n/a	n/a
267627	REC_WORD	wordpools/wasnorm_wordpool_less_exclusions.txt	LTP195	ltpFR	14	2	0	KEEPER	769	n/a	n/a	1	n/a	n/a	n/a	n/a	n/a
269437	REC_WORD	wordpools/wasnorm_wordpool_less_exclusions.txt	LTP195	ltpFR	14	2	0	PASSENGER	1020	n/a	n/a	1	n/a	n/a	n/a	n/a	n/a
271253	REC_WORD	wordpools/wasnorm_wordpool_less_exclusions.txt	LTP195	ltpFR	14	2	0	HELICOPTER	701	n/a	n/a	1	n/a	n/a	n/a	n/a	n/a
275005	REC_WORD	wordpools/wasnorm_wordpool_less_exclusions.txt	LTP195	ltpFR	14	2	0	TROMBONE	1508	n/a	n/a	0	n/a	n/a	n/a	n/a	n/a
276871	REC_WORD	wordpools/wasnorm_wordpool_less_exclusions.txt	LTP195	ltpFR	14	2	0	WORKER	1621	n/a	n/a	1	n/a	n/a	n/a	n/a	n/a
277689	REC_WORD	wordpools/wasnorm_wordpool_less_exclusions.txt	LTP195	ltpFR	14	2	0	EMPLOYER	532	n/a	n/a	1	n/a	n/a	n/a	n/a	n/a
281435	REC_WORD	wordpools/wasnorm_wordpool_less_exclusions.txt	LTP195	ltpFR	14	2	1	NOTE	958	n/a	n/a	0	n/a	n/a	n/a	n/a	n/a
285137	REC_WORD	wordpools/wasnorm_wordpool_less_exclusions.txt	LTP195	ltpFR	14	2	1	TURKEY	1520	n/a	n/a	1	n/a	n/a	n/a	n/a	n/a
339736	WORD	wordpools/wasnorm_wordpool_less_exclusions.txt	LTP195	ltpFR	14	3	0	EDITOR	516	n/a	n/a	0	0.422607421875	0.5869140625	0	lower	amplitud.ttf
343724	WORD	wordpools/wasnorm_wordpool_less_exclusions.txt	LTP195	ltpFR	14	3	0	MAGAZINE	853	n/a	n/a	0	0.422607421875	0.5869140625	0	lower	amplitud.ttf
347856	WORD	wordpools/wasnorm_wordpool_less_exclusions.txt	LTP195	ltpFR	14	3	0	JAM	748	n/a	n/a	0	0.422607421875	0.5869140625	0	lower	amplitud.ttf
351899	WORD	wordpools/wasnorm_wordpool_less_exclusions.txt	LTP195	ltpFR	14	3	0	LID	817	n/a	n/a	0	0.422607421875	0.5869140625	0	lower	amplitud.ttf
355786	WORD	wordpools/wasnorm_wordpool_less_exclusions.txt	LTP195	ltpFR	14	3	0	TUSK	1523	n/a	n/a	0	0.422607421875	0.5869140625	0	lower	amplitud.ttf
359902	WORD	wordpools/wasnorm_wordpool_less_exclusions.txt	LTP195	ltpFR	14	3	0	STABLE	1363	n/a	n/a	1	0.422607421875	0.5869140625	0	lower	amplitud.ttf
363967	WORD	wordpools/wasnorm_wordpool_less_exclusions.txt	LTP195	ltpFR	14	3	0	LIMB	822	n/a	n/a	0	0.422607421875	0.5869140625	0	lower	amplitud.ttf
367865	WORD	wordpools/wasnorm_wordpool_less_exclusions.txt	LTP195	ltpFR	14	3	0	WEB	1598	n/a	n/a	0	0.422607421875	0.5869140625	0	lower	amplitud.ttf
371991	WORD	wordpools/wasnorm_wordpool_less_exclusions.txt	LTP195	ltpFR	14	3	0	CAB	209	n/a	n/a	1	0.422607421875	0.5869140625	0	lower	amplitud.ttf
376097	WORD	wordpools/wasnorm_wordpool_less_exclusions.txt	LTP195	ltpFR	14	3	0	HORSE	719	n/a	n/a	1	0.422607421875	0.5869140625	0	lower	amplitud.ttf
380146	WORD	wordpools/wasnorm_wordpool_less_exclusions.txt	LTP195	ltpFR	14	3	0	TOE	1473	n/a	n/a	0	0.422607421875	0.5869140625	0	lower	amplitud.ttf
384244	WORD	wordpools/wasnorm_wordpool_less_exclusions.txt	LTP195	ltpFR	14	3	0	COMMITTEE	355	n/a	n/a	1	0.422607421875	0.5869140625	0	lower	amplitud.ttf
388243	WORD	wordpools/wasnorm_wordpool_less_exclusions.txt	LTP195	ltpFR	14	3	0	STAFF	1365	n/a	n/a	1	0.422607421875	0.5869140625	0	lower	amplitud.ttf
392302	WORD	wordpools/wasnorm_wordpool_less_exclusions.txt	LTP195	ltpFR	14	3	0	ALLEY	15	n/a	n/a	0	0.422607421875	0.5869140625	0	lower	amplitud.ttf
396256	WORD	wordpools/wasnorm_wordpool_less_exclusions.txt	LTP195	ltpFR	14	3	0	GRASSHOPPER	656	n/a	n/a	0	0.422607421875	0.5869140625	0	lower	amplitud.ttf
400422	WORD	wordpools/wasnorm_wordpool_less_exclusions.txt	LTP195	ltpFR	14	3	0	BRAKE	166	n/a	n/a	0	0.422607421875	0.5869140625	0	lower	amplitud.ttf
406172	REC_START	n/a	LTP195	ltpFR	14	3	n/a	n/a	n/a	n/a	n/a	n/a	n/a	n/a	n/a	n/a	n/a
406800	REC_WORD	wordpools/wasnorm_wordpool_less_exclusions.txt	LTP195	ltpFR	14	3	0	BRAKE	166	n/a	n/a	0	n/a	n/a	n/a	n/a	n/a
407738	REC_WORD	wordpools/wasnorm_wordpool_less_exclusions.txt	LTP195	ltpFR	14	3	0	CAB	209	n/a	n/a	1	n/a	n/a	n/a	n/a	n/a
409030	REC_WORD	wordpools/wasnorm_wordpool_less_exclusions.txt	LTP195	ltpFR	14	3	0	COMMITTEE	355	n/a	n/a	1	n/a	n/a	n/a	n/a	n/a
409728	REC_WORD	wordpools/wasnorm_wordpool_less_exclusions.txt	LTP195	ltpFR	14	3	0	STAFF	1365	n/a	n/a	1	n/a	n/a	n/a	n/a	n/a
411100	REC_WORD	wordpools/wasnorm_wordpool_less_exclusions.txt	LTP195	ltpFR	14	3	0	STABLE	1363	n/a	n/a	1	n/a	n/a	n/a	n/a	n/a
412098	REC_WORD	wordpools/wasnorm_wordpool_less_exclusions.txt	LTP195	ltpFR	14	3	0	HORSE	719	n/a	n/a	1	n/a	n/a	n/a	n/a	n/a
413575	REC_WORD	wordpools/wasnorm_wordpool_less_exclusions.txt	LTP195	ltpFR	14	3	0	LIMB	822	n/a	n/a	0	n/a	n/a	n/a	n/a	n/a
414757	REC_WORD	wordpools/wasnorm_wordpool_less_exclusions.txt	LTP195	ltpFR	14	3	0	TUSK	1523	n/a	n/a	0	n/a	n/a	n/a	n/a	n/a
415705	REC_WORD	wordpools/wasnorm_wordpool_less_exclusions.txt	LTP195	ltpFR	14	3	0	TOE	1473	n/a	n/a	0	n/a	n/a	n/a	n/a	n/a
417292	REC_WORD	wordpools/wasnorm_wordpool_less_exclusions.txt	LTP195	ltpFR	14	3	0	WEB	1598	n/a	n/a	0	n/a	n/a	n/a	n/a	n/a
418803	REC_WORD	wordpools/wasnorm_wordpool_less_exclusions.txt	LTP195	ltpFR	14	3	0	LID	817	n/a	n/a	0	n/a	n/a	n/a	n/a	n/a
419836	REC_WORD	wordpools/wasnorm_wordpool_less_exclusions.txt	LTP195	ltpFR	14	3	0	JAM	748	n/a	n/a	0	n/a	n/a	n/a	n/a	n/a
421956	REC_WORD	wordpools/wasnorm_wordpool_less_exclusions.txt	LTP195	ltpFR	14	3	0	MAGAZINE	853	n/a	n/a	0	n/a	n/a	n/a	n/a	n/a
424006	REC_WORD	wordpools/wasnorm_wordpool_less_exclusions.txt	LTP195	ltpFR	14	3	0	EDITOR	516	n/a	n/a	0	n/a	n/a	n/a	n/a	n/a
432746	REC_WORD	wordpools/wasnorm_wordpool_less_exclusions.txt	LTP195	ltpFR	14	3	0	ALLEY	15	n/a	n/a	0	n/a	n/a	n/a	n/a	n/a
711872	WORD	wordpools/wasnorm_wordpool_less_exclusions.txt	LTP195	ltpFR	14	4	-1	CHEST	295	n/a	n/a	-1	1.0	1.0	1	upper	Verdana.ttf
716095	WORD	wordpools/wasnorm_wordpool_less_exclusions.txt	LTP195	ltpFR	14	4	-1	LINT	826	n/a	n/a	-1	1.0	1.0	1	upper	Verdana.ttf
720110	WORD	wordpools/wasnorm_wordpool_less_exclusions.txt	LTP195	ltpFR	14	4	-1	TYPEWRITER	1531	n/a	n/a	-1	1.0	1.0	1	upper	Verdana.ttf
724192	WORD	wordpools/wasnorm_wordpool_less_exclusions.txt	LTP195	ltpFR	14	4	-1	IGLOO	734	n/a	n/a	-1	1.0	1.0	1	upper	Verdana.ttf
728101	WORD	wordpools/wasnorm_wordpool_less_exclusions.txt	LTP195	ltpFR	14	4	-1	CERAMICS	271	n/a	n/a	-1	1.0	1.0	1	upper	Verdana.ttf
732199	WORD	wordpools/wasnorm_wordpool_less_exclusions.txt	LTP195	ltpFR	14	4	-1	POTTERY	1116	n/a	n/a	-1	1.0	1.0	1	upper	Verdana.ttf
736332	WORD	wordpools/wasnorm_wordpool_less_exclusions.txt	LTP195	ltpFR	14	4	-1	PUBLICATION	1136	n/a	n/a	-1	1.0	1.0	1	upper	Verdana.ttf
740553	WORD	wordpools/wasnorm_wordpool_less_exclusions.txt	LTP195	ltpFR	14	4	-1	LITERATURE	831	n/a	n/a	-1	1.0	1.0	1	upper	Verdana.ttf
744518	WORD	wordpools/wasnorm_wordpool_less_exclusions.txt	LTP195	ltpFR	14	4	-1	SHEPHERD	1283	n/a	n/a	-1	1.0	1.0	1	upper	Verdana.ttf
748377	WORD	wordpools/wasnorm_wordpool_less_exclusions.txt	LTP195	ltpFR	14	4	-1	DIME	466	n/a	n/a	-1	1.0	1.0	1	upper	Verdana.ttf
752598	WORD	wordpools/wasnorm_wordpool_less_exclusions.txt	LTP195	ltpFR	14	4	-1	BRIEFCASE	175	n/a	n/a	-1	1.0	1.0	1	upper	Verdana.ttf
756640	WORD	wordpools/wasnorm_wordpool_less_exclusions.txt	LTP195	ltpFR	14	4	-1	BUGLE	189	n/a	n/a	-1	1.0	1.0	1	upper	Verdana.ttf
760639	WORD	wordpools/wasnorm_wordpool_less_exclusions.txt	LTP195	ltpFR	14	4	-1	GOAT	644	n/a	n/a	-1	1.0	1.0	1	upper	Verdana.ttf
764487	WORD	wordpools/wasnorm_wordpool_less_exclusions.txt	LTP195	ltpFR	14	4	-1	FREEZER	604	n/a	n/a	-1	1.0	1.0	1	upper	Verdana.ttf
768392	WORD	wordpools/wasnorm_wordpool_less_exclusions.txt	LTP195	ltpFR	14	4	-1	DONOR	485	n/a	n/a	-1	1.0	1.0	1	upper	Verdana.ttf
772567	WORD	wordpools/wasnorm_wordpool_less_exclusions.txt	LTP195	ltpFR	14	4	-1	PLAZA	1088	n/a	n/a	-1	1.0	1.0	1	upper	Verdana.ttf
778431	REC_START	n/a	LTP195	ltpFR	14	4	n/a	n/a	n/a	n/a	n/a	n/a	n/a	n/a	n/a	n/a	n/a
779573	REC_WORD	wordpools/wasnorm_wordpool_less_exclusions.txt	LTP195	ltpFR	14	4	-1	DONOR	485	n/a	n/a	-1	n/a	n/a	n/a	n/a	n/a
780671	REC_WORD_VV	wordpools/wasnorm_wordpool_less_exclusions.txt	LTP195	ltpFR	14	4	n/a	<>	-1	n/a	n/a	n/a	n/a	n/a	n/a	n/a	n/a
781663	REC_WORD	wordpools/wasnorm_wordpool_less_exclusions.txt	LTP195	ltpFR	14	4	-1	PLAZA	1088	n/a	n/a	-1	n/a	n/a	n/a	n/a	n/a
783743	REC_WORD	wordpools/wasnorm_wordpool_less_exclusions.txt	LTP195	ltpFR	14	4	-1	IGLOO	734	n/a	n/a	-1	n/a	n/a	n/a	n/a	n/a
785814	REC_WORD	wordpools/wasnorm_wordpool_less_exclusions.txt	LTP195	ltpFR	14	4	-1	FREEZER	604	n/a	n/a	-1	n/a	n/a	n/a	n/a	n/a
787385	REC_WORD	wordpools/wasnorm_wordpool_less_exclusions.txt	LTP195	ltpFR	14	4	-1	BUGLE	189	n/a	n/a	-1	n/a	n/a	n/a	n/a	n/a
788483	REC_WORD	wordpools/wasnorm_wordpool_less_exclusions.txt	LTP195	ltpFR	14	4	-1	BRIEFCASE	175	n/a	n/a	-1	n/a	n/a	n/a	n/a	n/a
789800	REC_WORD	wordpools/wasnorm_wordpool_less_exclusions.txt	LTP195	ltpFR	14	4	-1	DIME	466	n/a	n/a	-1	n/a	n/a	n/a	n/a	n/a
791531	REC_WORD	wordpools/wasnorm_wordpool_less_exclusions.txt	LTP195	ltpFR	14	4	-1	CERAMICS	271	n/a	n/a	-1	n/a	n/a	n/a	n/a	n/a
792768	REC_WORD	wordpools/wasnorm_wordpool_less_exclusions.txt	LTP195	ltpFR	14	4	-1	POTTERY	1116	n/a	n/a	-1	n/a	n/a	n/a	n/a	n/a
796195	REC_WORD	wordpools/wasnorm_wordpool_less_exclusions.txt	LTP195	ltpFR	14	4	-1	SHEPHERD	1283	n/a	n/a	-1	n/a	n/a	n/a	n/a	n/a
797268	REC_WORD	wordpools/wasnorm_wordpool_less_exclusions.txt	LTP195	ltpFR	14	4	-1	GOAT	644	n/a	n/a	-1	n/a	n/a	n/a	n/a	n/a
799658	REC_WORD	wordpools/wasnorm_wordpool_less_exclusions.txt	LTP195	ltpFR	14	4	-1	TYPEWRITER	1531	n/a	n/a	-1	n/a	n/a	n/a	n/a	n/a
800959	REC_WORD	wordpools/wasnorm_wordpool_less_exclusions.txt	LTP195	ltpFR	14	4	-1	PUBLICATION	1136	n/a	n/a	-1	n/a	n/a	n/a	n/a	n/a
802945	REC_WORD	wordpools/wasnorm_wordpool_less_exclusions.txt	LTP195	ltpFR	14	4	-1	LITERATURE	831	n/a	n/a	-1	n/a	n/a	n/a	n/a	n/a
815556	REC_WORD	wordpools/wasnorm_wordpool_less_exclusions.txt	LTP195	ltpFR	14	4	-1	CHEST	295	n/a	n/a	-1	n/a	n/a	n/a	n/a	n/a
817048	REC_WORD	wordpools/wasnorm_wordpool_less_exclusions.txt	LTP195	ltpFR	14	4	-1	LINT	826	n/a	n/a	-1	n/a	n/a	n/a	n/a	n/a
859144	WORD	wordpools/wasnorm_wordpool_less_exclusions.txt	LTP195	ltpFR	14	5	0	MAT	877	n/a	n/a	0	0.422607421875	0.5869140625	0	lower	amplitud.ttf
863008	WORD	wordpools/wasnorm_wordpool_less_exclusions.txt	LTP195	ltpFR	14	5	0	BEEF	113	n/a	n/a	1	0.422607421875	0.5869140625	0	lower	amplitud.ttf
867013	WORD	wordpools/wasnorm_wordpool_less_exclusions.txt	LTP195	ltpFR	14	5	0	CRAB	397	n/a	n/a	0	0.422607421875	0.5869140625	0	lower	amplitud.ttf
870877	WORD	wordpools/wasnorm_wordpool_less_exclusions.txt	LTP195	ltpFR	14	5	0	RAISIN	1163	n/a	n/a	0	0.422607421875	0.5869140625	0	lower	amplitud.ttf
874936	WORD	wordpools/wasnorm_wordpool_less_exclusions.txt	LTP195	ltpFR	14	5	0	WITNESS	1618	n/a	n/a	1	0.422607421875	0.5869140625	0	lower	amplitud.ttf
879093	WORD	wordpools/wasnorm_wordpool_less_exclusions.txt	LTP195	ltpFR	14	5	0	COURT	391	n/a	n/a	1	0.422607421875	0.5869140625	0	lower	amplitud.ttf
883275	WORD	wordpools/wasnorm_wordpool_less_exclusions.txt	LTP195	ltpFR	14	5	0	ARROW	40	n/a	n/a	0	0.422607421875	0.5869140625	0	lower	amplitud.ttf
887351	WORD	wordpools/wasnorm_wordpool_less_exclusions.txt	LTP195	ltpFR	14	5	0	LOOP	844	n/a	n/a	0	0.422607421875	0.5869140625	0	lower	amplitud.ttf
891488	WORD	wordpools/wasnorm_wordpool_less_exclusions.txt	LTP195	ltpFR	14	5	0	PILLOW	1069	n/a	n/a	0	0.422607421875	0.5869140625	0	lower	amplitud.ttf
895487	WORD	wordpools/wasnorm_wordpool_less_exclusions.txt	LTP195	ltpFR	14	5	0	BLANKET	135	n/a	n/a	0	0.422607421875	0.5869140625	0	lower	amplitud.ttf
899680	WORD	wordpools/wasnorm_wordpool_less_exclusions.txt	LTP195	ltpFR	14	5	0	TROUSERS	1510	n/a	n/a	0	0.422607421875	0.5869140625	0	lower	amplitud.ttf
903868	WORD	wordpools/wasnorm_wordpool_less_exclusions.txt	LTP195	ltpFR	14	5	0	VISITOR	1573	n/a	n/a	0	0.422607421875	0.5869140625	0	lower	amplitud.ttf
907743	WORD	wordpools/wasnorm_wordpool_less_exclusions.txt	LTP195	ltpFR	14	5	0	PLASTER	1085	n/a	n/a	0	0.422607421875	0.5869140625	0	lower	amplitud.ttf
911892	WORD	wordpools/wasnorm_wordpool_less_exclusions.txt	LTP195	ltpFR	14	5	0	VEAL	1551	n/a	n/a	1	0.422607421875	0.5869140625	0	lower	amplitud.ttf
915807	WORD	wordpools/wasnorm_wordpool_less_exclusions.txt	LTP195	ltpFR	14	5	0	INVENTOR	743	n/a	n/a	1	0.422607421875	0.5869140625	0	lower	amplitud.ttf
919778	WORD	wordpools/wasnorm_wordpool_less_exclusions.txt	LTP195	ltpFR	14	5	0	OCTOPUS	971	n/a	n/a	1	0.422607421875	0.5869140625	0	lower	amplitud.ttf
925451	REC_START	n/a	LTP195	ltpFR	14	5	n/a	n/a	n/a	n/a	n/a	n/a	n/a	n/a	n/a	n/a	n/a
926967	REC_WORD	wordpools/wasnorm_wordpool_less_exclusions.txt	LTP195	ltpFR	14	5	0	VEAL	1551	n/a	n/a	1	n/a	n/a	n/a	n/a	n/a
928200	REC_WORD	wordpools/wasnorm_wordpool_less_exclusions.txt	LTP195	ltpFR	14	5	0	BEEF	113	n/a	n/a	1	n/a	n/a	n/a	n/a	n/a
929501	REC_WORD	wordpools/wasnorm_wordpool_less_exclusions.txt	LTP195	ltpFR	14	5	0	OCTOPUS	971	n/a	n/a	1	n/a	n/a	n/a	n/a	n/a
930579	REC_WORD	wordpools/wasnorm_wordpool_less_exclusions.txt	LTP195	ltpFR	14	5	0	CRAB	397	n/a	n/a	0	n/a	n/a	n/a	n/a	n/a
931612	REC_WORD	wordpools/wasnorm_wordpool_less_exclusions.txt	LTP195	ltpFR	14	5	0	RAISIN	1163	n/a	n/a	0	n/a	n/a	n/a	n/a	n/a
933183	REC_WORD	wordpools/wasnorm_wordpool_less_exclusions.txt	LTP195	ltpFR	14	5	0	MAT	877	n/a	n/a	0	n/a	n/a	n/a	n/a	n/a
935588	REC_WORD	wordpools/wasnorm_wordpool_less_exclusions.txt	LTP195	ltpFR	14	5	0	PILLOW	1069	n/a	n/a	0	n/a	n/a	n/a	n/a	n/a
936121	REC_WORD	wordpools/wasnorm_wordpool_less_exclusions.txt	LTP195	ltpFR	14	5	0	BLANKET	135	n/a	n/a	0	n/a	n/a	n/a	n/a	n/a
937184	REC_WORD	wordpools/wasnorm_wordpool_less_exclusions.txt	LTP195	ltpFR	14	5	0	PLASTER	1085	n/a	n/a	0	n/a	n/a	n/a	n/a	n/a
941140	REC_WORD	wordpools/wasnorm_wordpool_less_exclusions.txt	LTP195	ltpFR	14	5	0	WITNESS	1618	n/a	n/a	1	n/a	n/a	n/a	n/a	n/a
942672	REC_WORD	wordpools/wasnorm_wordpool_less_exclusions.txt	LTP195	ltpFR	14	5	0	VISITOR	1573	n/a	n/a	0	n/a	n/a	n/a	n/a	n/a
944228	REC_WORD	wordpools/wasnorm_wordpool_less_exclusions.txt	LTP195	ltpFR	14	5	0	COURT	391	n/a	n/a	1	n/a	n/a	n/a	n/a	n/a
945550	REC_WORD	wordpools/wasnorm_wordpool_less_exclusions.txt	LTP195	ltpFR	14	5	0	LOOP	844	n/a	n/a	0	n/a	n/a	n/a	n/a	n/a
969430	REC_WORD	wordpools/wasnorm_wordpool_less_exclusions.txt	LTP195	ltpFR	14	5	0	INVENTOR	743	n/a	n/a	1	n/a	n/a	n/a	n/a	n/a
1014369	WORD	wordpools/wasnorm_wordpool_less_exclusions.txt	LTP195	ltpFR	14	6	1	PIGEON	1065	n/a	n/a	0	0.57763671875	0.412841796875	1	upper	zerothre.ttf
1018584	WORD	wordpools/wasnorm_wordpool_less_exclusions.txt	LTP195	ltpFR	14	6	1	SUIT	1402	n/a	n/a	0	0.57763671875	0.412841796875	1	upper	zerothre.ttf
1022543	WORD	wordpools/wasnorm_wordpool_less_exclusions.txt	LTP195	ltpFR	14	6	1	FAN	551	n/a	n/a	0	0.57763671875	0.412841796875	1	upper	zerothre.ttf
1026564	WORD	wordpools/wasnorm_wordpool_less_exclusions.txt	LTP195	ltpFR	14	6	1	FACE	547	n/a	n/a	0	0.57763671875	0.412841796875	1	upper	zerothre.ttf
1030690	WORD	wordpools/wasnorm_wordpool_less_exclusions.txt	LTP195	ltpFR	14	6	1	POWDER	1117	n/a	n/a	0	0.57763671875	0.412841796875	1	upper	zerothre.ttf
1034688	WORD	wordpools/wasnorm_wordpool_less_exclusions.txt	LTP195	ltpFR	14	6	1	COOK	372	n/a	n/a	1	0.57763671875	0.412841796875	1	upper	zerothre.ttf
1038854	WORD	wordpools/wasnorm_wordpool_less_exclusions.txt	LTP195	ltpFR	14	6	1	TELESCOPE	1446	n/a	n/a	0	0.57763671875	0.412841796875	1	upper	zerothre.ttf
1043077	WORD	wordpools/wasnorm_wordpool_less_exclusions.txt	LTP195	ltpFR	14	6	1	CONDUCTOR	362	n/a	n/a	1	0.57763671875	0.412841796875	1	upper	zerothre.ttf
1046991	WORD	wordpools/wasnorm_wordpool_less_exclusions.txt	LTP195	ltpFR	14	6	1	TULIP	1517	n/a	n/a	1	0.57763671875	0.412841796875	1	upper	zerothre.ttf
1051174	WORD	wordpools/wasnorm_wordpool_less_exclusions.txt	LTP195	ltpFR	14	6	1	DANDELION	438	n/a	n/a	1	0.57763671875	0.412841796875	1	upper	zerothre.ttf
1055317	WORD	wordpools/wasnorm_wordpool_less_exclusions.txt	LTP195	ltpFR	14	6	1	CARDINAL	244	n/a	n/a	1	0.57763671875	0.412841796875	1	upper	zerothre.ttf
1059205	WORD	wordpools/wasnorm_wordpool_less_exclusions.txt	LTP195	ltpFR	14	6	1	POTATO	1115	n/a	n/a	1	0.57763671875	0.412841796875	1	upper	zerothre.ttf
1063404	WORD	wordpools/wasnorm_wordpool_less_exclusions.txt	LTP195	ltpFR	14	6	1	ROOSTER	1209	n/a	n/a	1	0.57763671875	0.412841796875	1	upper	zerothre.ttf
1067335	WORD	wordpools/wasnorm_wordpool_less_exclusions.txt	LTP195	ltpFR	14	6	1	OZONE	996	n/a	n/a	0	0.57763671875	0.412841796875	1	upper	zerothre.ttf
1071544	WORD	wordpools/wasnorm_wordpool_less_exclusions.txt	LTP195	ltpFR	14	6	1	PORCH	1106	n/a	n/a	0	0.57763671875	0.412841796875	1	upper	zerothre.ttf
1075683	WORD	wordpools/wasnorm_wordpool_less_exclusions.txt	LTP195	ltpFR	14	6	1	BUS	201	n/a	n/a	0	0.57763671875	0.412841796875	1	upper	zerothre.ttf
1081633	REC_START	n/a	LTP195	ltpFR	14	6	n/a	n/a	n/a	n/a	n/a	n/a	n/a	n/a	n/a	n/a	n/a
1082650	REC_WORD	wordpools/wasnorm_wordpool_less_exclusions.txt	LTP195	ltpFR	14	6	1	PORCH	1106	n/a	n/a	0	n/a	n/a	n/a	n/a	n/a
1084855	REC_WORD	wordpools/wasnorm_wordpool_less_exclusions.txt	LTP195	ltpFR	14	6	1	DANDELION	438	n/a	n/a	1	n/a	n/a	n/a	n/a	n/a
1085853	REC_WORD	wordpools/wasnorm_wordpool_less_exclusions.txt	LTP195	ltpFR	14	6	1	TULIP	1517	n/a	n/a	1	n/a	n/a	n/a	n/a	n/a
1087105	REC_WORD	wordpools/wasnorm_wordpool_less_exclusions.txt	LTP195	ltpFR	14	6	1	CARDINAL	244	n/a	n/a	1	n/a	n/a	n/a	n/a	n/a
1089051	REC_WORD	wordpools/wasnorm_wordpool_less_exclusions.txt	LTP195	ltpFR	14	6	1	BUS	201	n/a	n/a	0	n/a	n/a	n/a	n/a	n/a
1091380	REC_WORD	wordpools/wasnorm_wordpool_less_exclusions.txt	LTP195	ltpFR	14	6	n/a	VAN	1548	n/a	n/a	n/a	n/a	n/a	n/a	n/a	n/a
1092149	REC_WORD	wordpools/wasnorm_wordpool_less_exclusions.txt	LTP195	ltpFR	14	6	1	SUIT	1402	n/a	n/a	0	n/a	n/a	n/a	n/a	n/a
1094384	REC_WORD	wordpools/wasnorm_wordpool_less_exclusions.txt	LTP195	ltpFR	14	6	1	TELESCOPE	1446	n/a	n/a	0	n/a	n/a	n/a	n/a	n/a
1095661	REC_WORD	wordpools/wasnorm_wordpool_less_exclusions.txt	LTP195	ltpFR	14	6	1	CONDUCTOR	362	n/a	n/a	1	n/a	n/a	n/a	n/a	n/a
1099562	REC_WORD	wordpools/wasnorm_wordpool_less_exclusions.txt	LTP195	ltpFR	14	6	1	OZONE	996	n/a	n/a	0	n/a	n/a	n/a	n/a	n/a
1101069	REC_WORD	wordpools/wasnorm_wordpool_less_exclusions.txt	LTP195	ltpFR	14	6	1	COOK	372	n/a	n/a	1	n/a	n/a	n/a	n/a	n/a
1101812	REC_WORD	wordpools/wasnorm_wordpool_less_exclusions.txt	LTP195	ltpFR	14	6	1	PIGEON	1065	n/a	n/a	0	n/a	n/a	n/a	n/a	n/a
1103184	REC_WORD	wordpools/wasnorm_wordpool_less_exclusions.txt	LTP195	ltpFR	14	6	1	POWDER	1117	n/a	n/a	0	n/a	n/a	n/a	n/a	n/a
1104456	REC_WORD	wordpools/wasnorm_wordpool_less_exclusions.txt	LTP195	ltpFR	14	6	1	FACE	547	n/a	n/a	0	n/a	n/a	n/a	n/a	n/a
1106666	REC_WORD	wordpools/wasnorm_wordpool_less_exclusions.txt	LTP195	ltpFR	14	6	1	ROOSTER	1209	n/a	n/a	1	n/a	n/a	n/a	n/a	n/a
1121237	REC_WORD	wordpools/wasnorm_wordpool_less_exclusions.txt	LTP195	ltpFR	14	6	1	POTATO	1115	n/a	n/a	1	n/a	n/a	n/a	n/a	n/a
1161183	WORD	wordpools/wasnorm_wordpool_less_exclusions.txt	LTP195	ltpFR	14	7	0	SCALPEL	1243	n/a	n/a	0	0.422607421875	0.5869140625	0	lower	amplitud.ttf
1165304	WORD	wordpools/wasnorm_wordpool_less_exclusions.txt	LTP195	ltpFR	14	7	0	BAY	102	n/a	n/a	1	0.422607421875	0.5869140625	0	lower	amplitud.ttf
1169330	WORD	wordpools/wasnorm_wordpool_less_exclusions.txt	LTP195	ltpFR	14	7	0	PLAID	1080	n/a	n/a	0	0.422607421875	0.5869140625	0	lower	amplitud.ttf
1173395	WORD	wordpools/wasnorm_wordpool_less_exclusions.txt	LTP195	ltpFR	14	7	0	SWEATER	1419	n/a	n/a	0	0.422607421875	0.5869140625	0	lower	amplitud.ttf
1177493	WORD	wordpools/wasnorm_wordpool_less_exclusions.txt	LTP195	ltpFR	14	7	0	RECEIPT	1173	n/a	n/a	0	0.422607421875	0.5869140625	0	lower	amplitud.ttf
1181598	WORD	wordpools/wasnorm_wordpool_less_exclusions.txt	LTP195	ltpFR	14	7	0	VAULT	1550	n/a	n/a	1	0.422607421875	0.5869140625	0	lower	amplitud.ttf
1185641	WORD	wordpools/wasnorm_wordpool_less_exclusions.txt	LTP195	ltpFR	14	7	0	APARTMENT	30	n/a	n/a	1	0.422607421875	0.5869140625	0	lower	amplitud.ttf
1189813	WORD	wordpools/wasnorm_wordpool_less_exclusions.txt	LTP195	ltpFR	14	7	0	LOBBY	836	n/a	n/a	0	0.422607421875	0.5869140625	0	lower	amplitud.ttf
1193838	WORD	wordpools/wasnorm_wordpool_less_exclusions.txt	LTP195	ltpFR	14	7	0	POLITICIAN	1099	n/a	n/a	1	0.422607421875	0.5869140625	0	lower	amplitud.ttf
1197893	WORD	wordpools/wasnorm_wordpool_less_exclusions.txt	LTP195	ltpFR	14	7	0	PATH	1023	n/a	n/a	0	0.422607421875	0.5869140625	0	lower	amplitud.ttf
1202025	WORD	wordpools/wasnorm_wordpool_less_exclusions.txt	LTP195	ltpFR	14	7	0	CHISEL	305	n/a	n/a	0	0.422607421875	0.5869140625	0	lower	amplitud.ttf
1206092	WORD	wordpools/wasnorm_wordpool_less_exclusions.txt	LTP195	ltpFR	14	7	0	BLACKBOARD	133	n/a	n/a	1	0.422607421875	0.5869140625	0	lower	amplitud.ttf
1210190	WORD	wordpools/wasnorm_wordpool_less_exclusions.txt	LTP195	ltpFR	14	7	0	PUBLISHER	1137	n/a	n/a	1	0.422607421875	0.5869140625	0	lower	amplitud.ttf
1214082	WORD	wordpools/wasnorm_wordpool_less_exclusions.txt	LTP195	ltpFR	14	7	0	WAVE	1596	n/a	n/a	0	0.422607421875	0.5869140625	0	lower	amplitud.ttf
1217935	WORD	wordpools/wasnorm_wordpool_less_exclusions.txt	LTP195	ltpFR	14	7	0	RAZOR	1171	n/a	n/a	0	0.422607421875	0.5869140625	0	lower	amplitud.ttf
1221967	WORD	wordpools/wasnorm_wordpool_less_exclusions.txt	LTP195	ltpFR	14	7	0	BOOK	149	n/a	n/a	0	0.422607421875	0.5869140625	0	lower	amplitud.ttf
1227767	REC_START	n/a	LTP195	ltpFR	14	7	n/a	n/a	n/a	n/a	n/a	n/a	n/a	n/a	n/a	n/a	n/a
1228839	REC_WORD	wordpools/wasnorm_wordpool_less_exclusions.txt	LTP195	ltpFR	14	7	0	APARTMENT	30	n/a	n/a	1	n/a	n/a	n/a	n/a	n/a
1230126	REC_WORD	wordpools/wasnorm_wordpool_less_exclusions.txt	LTP195	ltpFR	14	7	0	LOBBY	836	n/a	n/a	0	n/a	n/a	n/a	n/a	n/a
1231758	REC_WORD	wordpools/wasnorm_wordpool_less_exclusions.txt	LTP195	ltpFR	14	7	0	POLITICIAN	1099	n/a	n/a	1	n/a	n/a	n/a	n/a	n/a
1239031	REC_WORD	wordpools/wasnorm_wordpool_less_exclusions.txt	LTP195	ltpFR	14	7	0	VAULT	1550	n/a	n/a	1	n/a	n/a	n/a	n/a	n/a
1239780	REC_WORD	wordpools/wasnorm_wordpool_less_exclusions.txt	LTP195	ltpFR	14	7	0	RECEIPT	1173	n/a	n/a	0	n/a	n/a	n/a	n/a	n/a
1241955	REC_WORD	wordpools/wasnorm_wordpool_less_exclusions.txt	LTP195	ltpFR	14	7	0	BLACKBOARD	133	n/a	n/a	1	n/a	n/a	n/a	n/a	n/a
1242788	REC_WORD	wordpools/wasnorm_wordpool_less_exclusions.txt	LTP195	ltpFR	14	7	0	CHISEL	305	n/a	n/a	0	n/a	n/a	n/a	n/a	n/a
1247367	REC_WORD	wordpools/wasnorm_wordpool_less_exclusions.txt	LTP195	ltpFR	14	7	0	BAY	102	n/a	n/a	1	n/a	n/a	n/a	n/a	n/a
1248205	REC_WORD	wordpools/wasnorm_wordpool_less_exclusions.txt	LTP195	ltpFR	14	7	0	WAVE	1596	n/a	n/a	0	n/a	n/a	n/a	n/a	n/a
1249492	REC_WORD	wordpools/wasnorm_wordpool_less_exclusions.txt	LTP195	ltpFR	14	7	0	SCALPEL	1243	n/a	n/a	0	n/a	n/a	n/a	n/a	n/a
1250585	REC_WORD	wordpools/wasnorm_wordpool_less_exclusions.txt	LTP195	ltpFR	14	7	0	RAZOR	1171	n/a	n/a	0	n/a	n/a	n/a	n/a	n/a
1255154	REC_WORD	wordpools/wasnorm_wordpool_less_exclusions.txt	LTP195	ltpFR	14	7	0	PUBLISHER	1137	n/a	n/a	1	n/a	n/a	n/a	n/a	n/a
1268285	REC_WORD	wordpools/wasnorm_wordpool_less_exclusions.txt	LTP195	ltpFR	14	7	0	SWEATER	1419	n/a	n/a	0	n/a	n/a	n/a	n/a	n/a
1269771	REC_WORD	wordpools/wasnorm_wordpool_less_exclusions.txt	LTP195	ltpFR	14	7	0	PLAID	1080	n/a	n/a	0	n/a	n/a	n/a	n/a	n/a
1307417	WORD	wordpools/wasnorm_wordpool_less_exclusions.txt	LTP195	ltpFR	14	8	-1	CRATER	400	n/a	n/a	-1	1.0	1.0	1	upper	Verdana.ttf
1311488	WORD	wordpools/wasnorm_wordpool_less_exclusions.txt	LTP195	ltpFR	14	8	-1	FOREST	593	n/a	n/a	-1	1.0	1.0	1	upper	Verdana.ttf
1315687	WORD	wordpools/wasnorm_wordpool_less_exclusions.txt	LTP195	ltpFR	14	8	-1	BEAD	103	n/a	n/a	-1	1.0	1.0	1	upper	Verdana.ttf
1319685	WORD	wordpools/wasnorm_wordpool_less_exclusions.txt	LTP195	ltpFR	14	8	-1	ARCHITECT	36	n/a	n/a	-1	1.0	1.0	1	upper	Verdana.ttf
1323744	WORD	wordpools/wasnorm_wordpool_less_exclusions.txt	LTP195	ltpFR	14	8	-1	MUSEUM	933	n/a	n/a	-1	1.0	1.0	1	upper	Verdana.ttf
1327615	WORD	wordpools/wasnorm_wordpool_less_exclusions.txt	LTP195	ltpFR	14	8	-1	CEILING	265	n/a	n/a	-1	1.0	1.0	1	upper	Verdana.ttf
1331513	WORD	wordpools/wasnorm_wordpool_less_exclusions.txt	LTP195	ltpFR	14	8	-1	TILE	1468	n/a	n/a	-1	1.0	1.0	1	upper	Verdana.ttf
1335539	WORD	wordpools/wasnorm_wordpool_less_exclusions.txt	LTP195	ltpFR	14	8	-1	OLIVE	975	n/a	n/a	-1	1.0	1.0	1	upper	Verdana.ttf
1339638	WORD	wordpools/wasnorm_wordpool_less_exclusions.txt	LTP195	ltpFR	14	8	-1	EYE	545	n/a	n/a	-1	1.0	1.0	1	upper	Verdana.ttf
1343669	WORD	wordpools/wasnorm_wordpool_less_exclusions.txt	LTP195	ltpFR	14	8	-1	UNICORN	1538	n/a	n/a	-1	1.0	1.0	1	upper	Verdana.ttf
1347751	WORD	wordpools/wasnorm_wordpool_less_exclusions.txt	LTP195	ltpFR	14	8	-1	HERB	704	n/a	n/a	-1	1.0	1.0	1	upper	Verdana.ttf
1351622	WORD	wordpools/wasnorm_wordpool_less_exclusions.txt	LTP195	ltpFR	14	8	-1	VEGETABLE	1552	n/a	n/a	-1	1.0	1.0	1	upper	Verdana.ttf
1355782	WORD	wordpools/wasnorm_wordpool_less_exclusions.txt	LTP195	ltpFR	14	8	-1	CHIME	300	n/a	n/a	-1	1.0	1.0	1	upper	Verdana.ttf
1359837	WORD	wordpools/wasnorm_wordpool_less_exclusions.txt	LTP195	ltpFR	14	8	-1	JEWEL	757	n/a	n/a	-1	1.0	1.0	1	upper	Verdana.ttf
1363785	WORD	wordpools/wasnorm_wordpool_less_exclusions.txt	LTP195	ltpFR	14	8	-1	BERRY	122	n/a	n/a	-1	1.0	1.0	1	upper	Verdana.ttf
1367934	WORD	wordpools/wasnorm_wordpool_less_exclusions.txt	LTP195	ltpFR	14	8	-1	OATS	968	n/a	n/a	-1	1.0	1.0	1	upper	Verdana.ttf
1373734	REC_START	n/a	LTP195	ltpFR	14	8	n/a	n/a	n/a	n/a	n/a	n/a	n/a	n/a	n/a	n/a	n/a
1375310	REC_WORD	wordpools/wasnorm_wordpool_less_exclusions.txt	LTP195	ltpFR	14	8	-1	VEGETABLE	1552	n/a	n/a	-1	n/a	n/a	n/a	n/a	n/a
1376492	REC_WORD	wordpools/wasnorm_wordpool_less_exclusions.txt	LTP195	ltpFR	14	8	-1	BERRY	122	n/a	n/a	-1	n/a	n/a	n/a	n/a	n/a
1377899	REC_WORD	wordpools/wasnorm_wordpool_less_exclusions.txt	LTP195	ltpFR	14	8	-1	HERB	704	n/a	n/a	-1	n/a	n/a	n/a	n/a	n/a
1379770	REC_WORD	wordpools/wasnorm_wordpool_less_exclusions.txt	LTP195	ltpFR	14	8	-1	OLIVE	975	n/a	n/a	-1	n/a	n/a	n/a	n/a	n/a
1381651	REC_WORD	wordpools/wasnorm_wordpool_less_exclusions.txt	LTP195	ltpFR	14	8	-1	EYE	545	n/a	n/a	-1	n/a	n/a	n/a	n/a	n/a
1382339	REC_WORD	wordpools/wasnorm_wordpool_less_exclusions.txt	LTP195	ltpFR	14	8	-1	UNICORN	1538	n/a	n/a	-1	n/a	n/a	n/a	n/a	n/a
1383581	REC_WORD	wordpools/wasnorm_wordpool_less_exclusions.txt	LTP195	ltpFR	14	8	-1	CHIME	300	n/a	n/a	-1	n/a	n/a	n/a	n/a	n/a
1385677	REC_WORD	wordpools/wasnorm_wordpool_less_exclusions.txt	LTP195	ltpFR	14	8	-1	MUSEUM	933	n/a	n/a	-1	n/a	n/a	n/a	n/a	n/a
1386639	REC_WORD	wordpools/wasnorm_wordpool_less_exclusions.txt	LTP195	ltpFR	14	8	-1	ARCHITECT	36	n/a	n/a	-1	n/a	n/a	n/a	n/a	n/a
1388201	REC_WORD	wordpools/wasnorm_wordpool_less_exclusions.txt	LTP195	ltpFR	14	8	-1	CEILING	265	n/a	n/a	-1	n/a	n/a	n/a	n/a	n/a
1389244	REC_WORD	wordpools/wasnorm_wordpool_less_exclusions.txt	LTP195	ltpFR	14	8	-1	TILE	1468	n/a	n/a	-1	n/a	n/a	n/a	n/a	n/a
1390840	REC_WORD	wordpools/wasnorm_wordpool_less_exclusions.txt	LTP195	ltpFR	14	8	-1	CRATER	400	n/a	n/a	-1	n/a	n/a	n/a	n/a	n/a
1391558	REC_WORD	wordpools/wasnorm_wordpool_less_exclusions.txt	LTP195	ltpFR	14	8	-1	FOREST	593	n/a	n/a	-1	n/a	n/a	n/a	n/a	n/a
1393389	REC_WORD	wordpools/wasnorm_wordpool_less_exclusions.txt	LTP195	ltpFR	14	8	-1	BEAD	103	n/a	n/a	-1	n/a	n/a	n/a	n/a	n/a
1399131	REC_WORD	wordpools/wasnorm_wordpool_less_exclusions.txt	LTP195	ltpFR	14	8	-1	OATS	968	n/a	n/a	-1	n/a	n/a	n/a	n/a	n/a
1455993	WORD	wordpools/wasnorm_wordpool_less_exclusions.txt	LTP195	ltpFR	14	9	1	CASHIER	254	n/a	n/a	0	0.57763671875	0.412841796875	1	upper	zerothre.ttf
1460014	WORD	wordpools/wasnorm_wordpool_less_exclusions.txt	LTP195	ltpFR	14	9	1	PAVEMENT	1028	n/a	n/a	0	0.57763671875	0.412841796875	1	upper	zerothre.ttf
1464198	WORD	wordpools/wasnorm_wordpool_less_exclusions.txt	LTP195	ltpFR	14	9	1	DIGGER	464	n/a	n/a	1	0.57763671875	0.412841796875	1	upper	zerothre.ttf
1468146	WORD	wordpools/wasnorm_wordpool_less_exclusions.txt	LTP195	ltpFR	14	9	1	PEDESTRIAN	1038	n/a	n/a	1	0.57763671875	0.412841796875	1	upper	zerothre.ttf
1471986	WORD	wordpools/wasnorm_wordpool_less_exclusions.txt	LTP195	ltpFR	14	9	1	MEDAL	885	n/a	n/a	0	0.57763671875	0.412841796875	1	upper	zerothre.ttf
1476076	WORD	wordpools/wasnorm_wordpool_less_exclusions.txt	LTP195	ltpFR	14	9	1	RUNNER	1218	n/a	n/a	1	0.57763671875	0.412841796875	1	upper	zerothre.ttf
1480218	WORD	wordpools/wasnorm_wordpool_less_exclusions.txt	LTP195	ltpFR	14	9	1	SIGNATURE	1306	n/a	n/a	0	0.57763671875	0.412841796875	1	upper	zerothre.ttf
1484390	WORD	wordpools/wasnorm_wordpool_less_exclusions.txt	LTP195	ltpFR	14	9	1	CHAIN	273	n/a	n/a	0	0.57763671875	0.412841796875	1	upper	zerothre.ttf
1488605	WORD	wordpools/wasnorm_wordpool_less_exclusions.txt	LTP195	ltpFR	14	9	1	TAPE	1433	n/a	n/a	0	0.57763671875	0.412841796875	1	upper	zerothre.ttf
1492648	WORD	wordpools/wasnorm_wordpool_less_exclusions.txt	LTP195	ltpFR	14	9	1	INSECT	740	n/a	n/a	1	0.57763671875	0.412841796875	1	upper	zerothre.ttf
1496796	WORD	wordpools/wasnorm_wordpool_less_exclusions.txt	LTP195	ltpFR	14	9	1	ORCHID	982	n/a	n/a	1	0.57763671875	0.412841796875	1	upper	zerothre.ttf
1500801	WORD	wordpools/wasnorm_wordpool_less_exclusions.txt	LTP195	ltpFR	14	9	1	BLOSSOM	138	n/a	n/a	1	0.57763671875	0.412841796875	1	upper	zerothre.ttf
1504649	WORD	wordpools/wasnorm_wordpool_less_exclusions.txt	LTP195	ltpFR	14	9	1	WALLET	1583	n/a	n/a	0	0.57763671875	0.412841796875	1	upper	zerothre.ttf
1508792	WORD	wordpools/wasnorm_wordpool_less_exclusions.txt	LTP195	ltpFR	14	9	1	HOE	711	n/a	n/a	0	0.57763671875	0.412841796875	1	upper	zerothre.ttf
1513008	WORD	wordpools/wasnorm_wordpool_less_exclusions.txt	LTP195	ltpFR	14	9	1	MONASTERY	907	n/a	n/a	0	0.57763671875	0.412841796875	1	upper	zerothre.ttf
1517191	WORD	wordpools/wasnorm_wordpool_less_exclusions.txt	LTP195	ltpFR	14	9	1	SHRINE	1298	n/a	n/a	0	0.57763671875	0.412841796875	1	upper	zerothre.ttf
1523265	REC_START	n/a	LTP195	ltpFR	14	9	n/a	n/a	n/a	n/a	n/a	n/a	n/a	n/a	n/a	n/a	n/a
1524213	REC_WORD	wordpools/wasnorm_wordpool_less_exclusions.txt	LTP195	ltpFR	14	9	1	MONASTERY	907	n/a	n/a	0	n/a	n/a	n/a	n/a	n/a
1525096	REC_WORD	wordpools/wasnorm_wordpool_less_exclusions.txt	LTP195	ltpFR	14	9	1	SHRINE	1298	n/a	n/a	0	n/a	n/a	n/a	n/a	n/a
1526882	REC_WORD	wordpools/wasnorm_wordpool_less_exclusions.txt	LTP195	ltpFR	14	9	1	TAPE	1433	n/a	n/a	0	n/a	n/a	n/a	n/a	n/a
1527540	REC_WORD	wordpools/wasnorm_wordpool_less_exclusions.txt	LTP195	ltpFR	14	9	1	DIGGER	464	n/a	n/a	1	n/a	n/a	n/a	n/a	n/a
1528822	REC_WORD	wordpools/wasnorm_wordpool_less_exclusions.txt	LTP195	ltpFR	14	9	1	PAVEMENT	1028	n/a	n/a	0	n/a	n/a	n/a	n/a	n/a
1530054	REC_WORD	wordpools/wasnorm_wordpool_less_exclusions.txt	LTP195	ltpFR	14	9	1	RUNNER	1218	n/a	n/a	1	n/a	n/a	n/a	n/a	n/a
1530578	REC_WORD	wordpools/wasnorm_wordpool_less_exclusions.txt	LTP195	ltpFR	14	9	1	PEDESTRIAN	1038	n/a	n/a	1	n/a	n/a	n/a	n/a	n/a
1532888	REC_WORD	wordpools/wasnorm_wordpool_less_exclusions.txt	LTP195	ltpFR	14	9	1	INSECT	740	n/a	n/a	1	n/a	n/a	n/a	n/a	n/a
1535213	REC_WORD	wordpools/wasnorm_wordpool_less_exclusions.txt	LTP195	ltpFR	14	9	1	BLOSSOM	138	n/a	n/a	1	n/a	n/a	n/a	n/a	n/a
1535961	REC_WORD	wordpools/wasnorm_wordpool_less_exclusions.txt	LTP195	ltpFR	14	9	1	ORCHID	982	n/a	n/a	1	n/a	n/a	n/a	n/a	n/a
1538106	REC_WORD	wordpools/wasnorm_wordpool_less_exclusions.txt	LTP195	ltpFR	14	9	1	CASHIER	254	n/a	n/a	0	n/a	n/a	n/a	n/a	n/a
1539019	REC_WORD	wordpools/wasnorm_wordpool_less_exclusions.txt	LTP195	ltpFR	14	9	1	WALLET	1583	n/a	n/a	0	n/a	n/a	n/a	n/a	n/a
1541099	REC_WORD	wordpools/wasnorm_wordpool_less_exclusions.txt	LTP195	ltpFR	14	9	1	MEDAL	885	n/a	n/a	0	n/a	n/a	n/a	n/a	n/a
1541992	REC_WORD	wordpools/wasnorm_wordpool_less_exclusions.txt	LTP195	ltpFR	14	9	1	CHAIN	273	n/a	n/a	0	n/a	n/a	n/a	n/a	n/a
1543693	REC_WORD	wordpools/wasnorm_wordpool_less_exclusions.txt	LTP195	ltpFR	14	9	1	SIGNATURE	1306	n/a	n/a	0	n/a	n/a	n/a	n/a	n/a
1604236	WORD	wordpools/wasnorm_wordpool_less_exclusions.txt	LTP195	ltpFR	14	10	0	SIDING	1304	n/a	n/a	0	0.422607421875	0.5869140625	0	lower	amplitud.ttf
1608307	WORD	wordpools/wasnorm_wordpool_less_exclusions.txt	LTP195	ltpFR	14	10	0	SIDEWALK	1303	n/a	n/a	0	0.422607421875	0.5869140625	0	lower	amplitud.ttf
1612533	WORD	wordpools/wasnorm_wordpool_less_exclusions.txt	LTP195	ltpFR	14	10	1	GALLON	618	n/a	n/a	0	0.57763671875	0.412841796875	1	upper	zerothre.ttf
1616514	WORD	wordpools/wasnorm_wordpool_less_exclusions.txt	LTP195	ltpFR	14	10	1	JUG	762	n/a	n/a	0	0.57763671875	0.412841796875	1	upper	zerothre.ttf
1620552	WORD	wordpools/wasnorm_wordpool_less_exclusions.txt	LTP195	ltpFR	14	10	1	BEAST	108	n/a	n/a	1	0.57763671875	0.412841796875	1	upper	zerothre.ttf
1624551	WORD	wordpools/wasnorm_wordpool_less_exclusions.txt	LTP195	ltpFR	14	10	1	CREATURE	403	n/a	n/a	1	0.57763671875	0.412841796875	1	upper	zerothre.ttf
1628593	WORD	wordpools/wasnorm_wordpool_less_exclusions.txt	LTP195	ltpFR	14	10	0	CUCUMBER	421	n/a	n/a	0	0.422607421875	0.5869140625	0	lower	amplitud.ttf
1632815	WORD	wordpools/wasnorm_wordpool_less_exclusions.txt	LTP195	ltpFR	14	10	0	GOWN	652	n/a	n/a	0	0.422607421875	0.5869140625	0	lower	amplitud.ttf
1636764	WORD	wordpools/wasnorm_wordpool_less_exclusions.txt	LTP195	ltpFR	14	10	0	FREEWAY	603	n/a	n/a	1	0.422607421875	0.5869140625	0	lower	amplitud.ttf
1640862	WORD	wordpools/wasnorm_wordpool_less_exclusions.txt	LTP195	ltpFR	14	10	0	COP	376	n/a	n/a	1	0.422607421875	0.5869140625	0	lower	amplitud.ttf
1644710	WORD	wordpools/wasnorm_wordpool_less_exclusions.txt	LTP195	ltpFR	14	10	1	COUNTY	389	n/a	n/a	0	0.57763671875	0.412841796875	1	upper	zerothre.ttf
1648903	WORD	wordpools/wasnorm_wordpool_less_exclusions.txt	LTP195	ltpFR	14	10	1	LUMBER	848	n/a	n/a	0	0.57763671875	0.412841796875	1	upper	zerothre.ttf
1652975	WORD	wordpools/wasnorm_wordpool_less_exclusions.txt	LTP195	ltpFR	14	10	1	TUXEDO	1525	n/a	n/a	0	0.57763671875	0.412841796875	1	upper	zerothre.ttf
1656889	WORD	wordpools/wasnorm_wordpool_less_exclusions.txt	LTP195	ltpFR	14	10	1	DOLLAR	482	n/a	n/a	0	0.57763671875	0.412841796875	1	upper	zerothre.ttf
1661083	WORD	wordpools/wasnorm_wordpool_less_exclusions.txt	LTP195	ltpFR	14	10	0	EXPERT	543	n/a	n/a	0	0.422607421875	0.5869140625	0	lower	amplitud.ttf
1665020	WORD	wordpools/wasnorm_wordpool_less_exclusions.txt	LTP195	ltpFR	14	10	0	CANDIDATE	228	n/a	n/a	0	0.422607421875	0.5869140625	0	lower	amplitud.ttf
1670843	REC_START	n/a	LTP195	ltpFR	14	10	n/a	n/a	n/a	n/a	n/a	n/a	n/a	n/a	n/a	n/a	n/a
1671765	REC_WORD	wordpools/wasnorm_wordpool_less_exclusions.txt	LTP195	ltpFR	14	10	0	EXPERT	543	n/a	n/a	0	n/a	n/a	n/a	n/a	n/a
1672624	REC_WORD	wordpools/wasnorm_wordpool_less_exclusions.txt	LTP195	ltpFR	14	10	0	CANDIDATE	228	n/a	n/a	0	n/a	n/a	n/a	n/a	n/a
1674449	REC_WORD	wordpools/wasnorm_wordpool_less_exclusions.txt	LTP195	ltpFR	14	10	0	SIDING	1304	n/a	n/a	0	n/a	n/a	n/a	n/a	n/a
1675061	REC_WORD	wordpools/wasnorm_wordpool_less_exclusions.txt	LTP195	ltpFR	14	10	0	SIDEWALK	1303	n/a	n/a	0	n/a	n/a	n/a	n/a	n/a
1676839	REC_WORD	wordpools/wasnorm_wordpool_less_exclusions.txt	LTP195	ltpFR	14	10	1	LUMBER	848	n/a	n/a	0	n/a	n/a	n/a	n/a	n/a
1677702	REC_WORD	wordpools/wasnorm_wordpool_less_exclusions.txt	LTP195	ltpFR	14	10	1	DOLLAR	482	n/a	n/a	0	n/a	n/a	n/a	n/a	n/a
1682092	REC_WORD	wordpools/wasnorm_wordpool_less_exclusions.txt	LTP195	ltpFR	14	10	0	COP	376	n/a	n/a	1	n/a	n/a	n/a	n/a	n/a
1682955	REC_WORD	wordpools/wasnorm_wordpool_less_exclusions.txt	LTP195	ltpFR	14	10	0	FREEWAY	603	n/a	n/a	1	n/a	n/a	n/a	n/a	n/a
1685509	REC_WORD	wordpools/wasnorm_wordpool_less_exclusions.txt	LTP195	ltpFR	14	10	0	GOWN	652	n/a	n/a	0	n/a	n/a	n/a	n/a	n/a
1686547	REC_WORD	wordpools/wasnorm_wordpool_less_exclusions.txt	LTP195	ltpFR	14	10	1	TUXEDO	1525	n/a	n/a	0	n/a	n/a	n/a	n/a	n/a
1692354	REC_WORD	wordpools/wasnorm_wordpool_less_exclusions.txt	LTP195	ltpFR	14	10	1	JUG	762	n/a	n/a	0	n/a	n/a	n/a	n/a	n/a
1693067	REC_WORD	wordpools/wasnorm_wordpool_less_exclusions.txt	LTP195	ltpFR	14	10	1	GALLON	618	n/a	n/a	0	n/a	n/a	n/a	n/a	n/a
1694853	REC_WORD	wordpools/wasnorm_wordpool_less_exclusions.txt	LTP195	ltpFR	14	10	1	BEAST	108	n/a	n/a	1	n/a	n/a	n/a	n/a	n/a
1695457	REC_WORD	wordpools/wasnorm_wordpool_less_exclusions.txt	LTP195	ltpFR	14	10	1	CREATURE	403	n/a	n/a	1	n/a	n/a	n/a	n/a	n/a
1750553	WORD	wordpools/wasnorm_wordpool_less_exclusions.txt	LTP195	ltpFR	14	11	1	PANTHER	1009	n/a	n/a	1	0.57763671875	0.412841796875	1	upper	zerothre.ttf
1754668	WORD	wordpools/wasnorm_wordpool_less_exclusions.txt	LTP195	ltpFR	14	11	1	LION	827	n/a	n/a	1	0.57763671875	0.412841796875	1	upper	zerothre.ttf
1758723	WORD	wordpools/wasnorm_wordpool_less_exclusions.txt	LTP195	ltpFR	14	11	1	THREAD	1460	n/a	n/a	0	0.57763671875	0.412841796875	1	upper	zerothre.ttf
1762749	WORD	wordpools/wasnorm_wordpool_less_exclusions.txt	LTP195	ltpFR	14	11	1	TAR	1435	n/a	n/a	0	0.57763671875	0.412841796875	1	upper	zerothre.ttf
1766871	WORD	wordpools/wasnorm_wordpool_less_exclusions.txt	LTP195	ltpFR	14	11	1	COSTUME	383	n/a	n/a	0	0.57763671875	0.412841796875	1	upper	zerothre.ttf
1771013	WORD	wordpools/wasnorm_wordpool_less_exclusions.txt	LTP195	ltpFR	14	11	1	GARLIC	624	n/a	n/a	0	0.57763671875	0.412841796875	1	upper	zerothre.ttf
1774984	WORD	wordpools/wasnorm_wordpool_less_exclusions.txt	LTP195	ltpFR	14	11	1	CHAUFFEUR	283	n/a	n/a	1	0.57763671875	0.412841796875	1	upper	zerothre.ttf
1778999	WORD	wordpools/wasnorm_wordpool_less_exclusions.txt	LTP195	ltpFR	14	11	1	GARAGE	621	n/a	n/a	0	0.57763671875	0.412841796875	1	upper	zerothre.ttf
1782898	WORD	wordpools/wasnorm_wordpool_less_exclusions.txt	LTP195	ltpFR	14	11	1	SCRIBBLE	1256	n/a	n/a	0	0.57763671875	0.412841796875	1	upper	zerothre.ttf
1786963	WORD	wordpools/wasnorm_wordpool_less_exclusions.txt	LTP195	ltpFR	14	11	1	WALL	1582	n/a	n/a	0	0.57763671875	0.412841796875	1	upper	zerothre.ttf
1790794	WORD	wordpools/wasnorm_wordpool_less_exclusions.txt	LTP195	ltpFR	14	11	1	LOBSTER	837	n/a	n/a	1	0.57763671875	0.412841796875	1	upper	zerothre.ttf
1794702	WORD	wordpools/wasnorm_wordpool_less_exclusions.txt	LTP195	ltpFR	14	11	1	EAGLE	512	n/a	n/a	1	0.57763671875	0.412841796875	1	upper	zerothre.ttf
1798774	WORD	wordpools/wasnorm_wordpool_less_exclusions.txt	LTP195	ltpFR	14	11	1	THIMBLE	1458	n/a	n/a	0	0.57763671875	0.412841796875	1	upper	zerothre.ttf
1802756	WORD	wordpools/wasnorm_wordpool_less_exclusions.txt	LTP195	ltpFR	14	11	1	GRAVEL	659	n/a	n/a	0	0.57763671875	0.412841796875	1	upper	zerothre.ttf
1806681	WORD	wordpools/wasnorm_wordpool_less_exclusions.txt	LTP195	ltpFR	14	11	1	MEAL	882	n/a	n/a	0	0.57763671875	0.412841796875	1	upper	zerothre.ttf
1810847	WORD	wordpools/wasnorm_wordpool_less_exclusions.txt	LTP195	ltpFR	14	11	1	PENCIL	1042	n/a	n/a	0	0.57763671875	0.412841796875	1	upper	zerothre.ttf
1816793	REC_START	n/a	LTP195	ltpFR	14	11	n/a	n/a	n/a	n/a	n/a	n/a	n/a	n/a	n/a	n/a	n/a
1819132	REC_WORD	wordpools/wasnorm_wordpool_less_exclusions.txt	LTP195	ltpFR	14	11	1	PENCIL	1042	n/a	n/a	0	n/a	n/a	n/a	n/a	n/a
1822136	REC_WORD	wordpools/wasnorm_wordpool_less_exclusions.txt	LTP195	ltpFR	14	11	1	GRAVEL	659	n/a	n/a	0	n/a	n/a	n/a	n/a	n/a
1823952	REC_WORD	wordpools/wasnorm_wordpool_less_exclusions.txt	LTP195	ltpFR	14	11	1	GARAGE	621	n/a	n/a	0	n/a	n/a	n/a	n/a	n/a
1825164	REC_WORD	wordpools/wasnorm_wordpool_less_exclusions.txt	LTP195	ltpFR	14	11	1	WALL	1582	n/a	n/a	0	n/a	n/a	n/a	n/a	n/a
1826152	REC_WORD	wordpools/wasnorm_wordpool_less_exclusions.txt	LTP195	ltpFR	14	11	1	CHAUFFEUR	283	n/a	n/a	1	n/a	n/a	n/a	n/a	n/a
1833405	REC_WORD	wordpools/wasnorm_wordpool_less_exclusions.txt	LTP195	ltpFR	14	11	1	THREAD	1460	n/a	n/a	0	n/a	n/a	n/a	n/a	n/a
1834243	REC_WORD	wordpools/wasnorm_wordpool_less_exclusions.txt	LTP195	ltpFR	14	11	1	TAR	1435	n/a	n/a	0	n/a	n/a	n/a	n/a	n/a
1835914	REC_WORD	wordpools/wasnorm_wordpool_less_exclusions.txt	LTP195	ltpFR	14	11	1	GARLIC	624	n/a	n/a	0	n/a	n/a	n/a	n/a	n/a
1838239	REC_WORD	wordpools/wasnorm_wordpool_less_exclusions.txt	LTP195	ltpFR	14	11	1	LION	827	n/a	n/a	1	n/a	n/a	n/a	n/a	n/a
1843617	REC_WORD	wordpools/wasnorm_wordpool_less_exclusions.txt	LTP195	ltpFR	14	11	n/a	BEAR	106	n/a	n/a	n/a	n/a	n/a	n/a	n/a	n/a
1877994	REC_WORD	wordpools/wasnorm_wordpool_less_exclusions.txt	LTP195	ltpFR	14	11	1	EAGLE	512	n/a	n/a	1	n/a	n/a	n/a	n/a	n/a
1898260	WORD	wordpools/wasnorm_wordpool_less_exclusions.txt	LTP195	ltpFR	14	12	1	GOO	648	n/a	n/a	0	0.57763671875	0.412841796875	1	upper	zerothre.ttf
1902248	WORD	wordpools/wasnorm_wordpool_less_exclusions.txt	LTP195	ltpFR	14	12	1	WHALE	1601	n/a	n/a	1	0.57763671875	0.412841796875	1	upper	zerothre.ttf
1906446	WORD	wordpools/wasnorm_wordpool_less_exclusions.txt	LTP195	ltpFR	14	12	0	HOSE	720	n/a	n/a	0	0.422607421875	0.5869140625	0	lower	amplitud.ttf
1910562	WORD	wordpools/wasnorm_wordpool_less_exclusions.txt	LTP195	ltpFR	14	12	0	CUE	422	n/a	n/a	0	0.422607421875	0.5869140625	0	lower	amplitud.ttf
1914510	WORD	wordpools/wasnorm_wordpool_less_exclusions.txt	LTP195	ltpFR	14	12	0	EYELASH	546	n/a	n/a	0	0.422607421875	0.5869140625	0	lower	amplitud.ttf
1918686	WORD	wordpools/wasnorm_wordpool_less_exclusions.txt	LTP195	ltpFR	14	12	0	ACTRESS	6	n/a	n/a	1	0.422607421875	0.5869140625	0	lower	amplitud.ttf
1922752	WORD	wordpools/wasnorm_wordpool_less_exclusions.txt	LTP195	ltpFR	14	12	0	CAMERA	224	n/a	n/a	0	0.422607421875	0.5869140625	0	lower	amplitud.ttf
1926840	WORD	wordpools/wasnorm_wordpool_less_exclusions.txt	LTP195	ltpFR	14	12	0	TROUT	1511	n/a	n/a	0	0.422607421875	0.5869140625	0	lower	amplitud.ttf
1930799	WORD	wordpools/wasnorm_wordpool_less_exclusions.txt	LTP195	ltpFR	14	12	1	COAL	332	n/a	n/a	0	0.57763671875	0.412841796875	1	upper	zerothre.ttf
1934720	WORD	wordpools/wasnorm_wordpool_less_exclusions.txt	LTP195	ltpFR	14	12	1	MINER	896	n/a	n/a	1	0.57763671875	0.412841796875	1	upper	zerothre.ttf
1938618	WORD	wordpools/wasnorm_wordpool_less_exclusions.txt	LTP195	ltpFR	14	12	1	NAPKIN	937	n/a	n/a	0	0.57763671875	0.412841796875	1	upper	zerothre.ttf
1942683	WORD	wordpools/wasnorm_wordpool_less_exclusions.txt	LTP195	ltpFR	14	12	1	SHOWER	1296	n/a	n/a	0	0.57763671875	0.412841796875	1	upper	zerothre.ttf
1946865	WORD	wordpools/wasnorm_wordpool_less_exclusions.txt	LTP195	ltpFR	14	12	0	CABINET	212	n/a	n/a	0	0.422607421875	0.5869140625	0	lower	amplitud.ttf
1950881	WORD	wordpools/wasnorm_wordpool_less_exclusions.txt	LTP195	ltpFR	14	12	0	ROBE	1198	n/a	n/a	0	0.422607421875	0.5869140625	0	lower	amplitud.ttf
1954846	WORD	wordpools/wasnorm_wordpool_less_exclusions.txt	LTP195	ltpFR	14	12	1	NOSE	957	n/a	n/a	0	0.57763671875	0.412841796875	1	upper	zerothre.ttf
1958771	WORD	wordpools/wasnorm_wordpool_less_exclusions.txt	LTP195	ltpFR	14	12	1	PONY	1102	n/a	n/a	1	0.57763671875	0.412841796875	1	upper	zerothre.ttf
1964828	REC_START	n/a	LTP195	ltpFR	14	12	n/a	n/a	n/a	n/a	n/a	n/a	n/a	n/a	n/a	n/a	n/a
1967088	REC_WORD	wordpools/wasnorm_wordpool_less_exclusions.txt	LTP195	ltpFR	14	12	1	NOSE	957	n/a	n/a	0	n/a	n/a	n/a	n/a	n/a
1968150	REC_WORD	wordpools/wasnorm_wordpool_less_exclusions.txt	LTP195	ltpFR	14	12	0	EYELASH	546	n/a	n/a	0	n/a	n/a	n/a	n/a	n/a
1969133	REC_WORD	wordpools/wasnorm_wordpool_less_exclusions.txt	LTP195	ltpFR	14	12	1	PONY	1102	n/a	n/a	1	n/a	n/a	n/a	n/a	n/a
1970240	REC_WORD	wordpools/wasnorm_wordpool_less_exclusions.txt	LTP195	ltpFR	14	12	1	COAL	332	n/a	n/a	0	n/a	n/a	n/a	n/a	n/a
1971089	REC_WORD	wordpools/wasnorm_wordpool_less_exclusions.txt	LTP195	ltpFR	14	12	1	MINER	896	n/a	n/a	1	n/a	n/a	n/a	n/a	n/a
1974062	REC_WORD	wordpools/wasnorm_wordpool_less_exclusions.txt	LTP195	ltpFR	14	12	1	NAPKIN	937	n/a	n/a	0	n/a	n/a	n/a	n/a	n/a
1974725	REC_WORD	wordpools/wasnorm_wordpool_less_exclusions.txt	LTP195	ltpFR	14	12	1	SHOWER	1296	n/a	n/a	0	n/a	n/a	n/a	n/a	n/a
1976102	REC_WORD	wordpools/wasnorm_wordpool_less_exclusions.txt	LTP195	ltpFR	14	12	0	CABINET	212	n/a	n/a	0	n/a	n/a	n/a	n/a	n/a
1977095	REC_WORD	wordpools/wasnorm_wordpool_less_exclusions.txt	LTP195	ltpFR	14	12	0	ROBE	1198	n/a	n/a	0	n/a	n/a	n/a	n/a	n/a
1979754	REC_WORD	wordpools/wasnorm_wordpool_less_exclusions.txt	LTP195	ltpFR	14	12	1	WHALE	1601	n/a	n/a	1	n/a	n/a	n/a	n/a	n/a
1980347	REC_WORD	wordpools/wasnorm_wordpool_less_exclusions.txt	LTP195	ltpFR	14	12	1	GOO	648	n/a	n/a	0	n/a	n/a	n/a	n/a	n/a
1984772	REC_WORD	wordpools/wasnorm_wordpool_less_exclusions.txt	LTP195	ltpFR	14	12	0	HOSE	720	n/a	n/a	0	n/a	n/a	n/a	n/a	n/a
1986469	REC_WORD	wordpools/wasnorm_wordpool_less_exclusions.txt	LTP195	ltpFR	14	12	0	CUE	422	n/a	n/a	0	n/a	n/a	n/a	n/a	n/a
1989078	REC_WORD	wordpools/wasnorm_wordpool_less_exclusions.txt	LTP195	ltpFR	14	12	0	ACTRESS	6	n/a	n/a	1	n/a	n/a	n/a	n/a	n/a
1990305	REC_WORD	wordpools/wasnorm_wordpool_less_exclusions.txt	LTP195	ltpFR	14	12	0	CAMERA	224	n/a	n/a	0	n/a	n/a	n/a	n/a	n/a
1993188	REC_WORD	wordpools/wasnorm_wordpool_less_exclusions.txt	LTP195	ltpFR	14	12	0	TROUT	1511	n/a	n/a	0	n/a	n/a	n/a	n/a	n/a
2040452	REST_REWET	n/a	LTP195	ltpFR	14	12	n/a	n/a	n/a	n/a	n/a	n/a	n/a	n/a	n/a	n/a	n/a
2304391	WORD	wordpools/wasnorm_wordpool_less_exclusions.txt	LTP195	ltpFR	14	13	-1	COBRA	336	n/a	n/a	-1	1.0	1.0	1	upper	Verdana.ttf
2308396	WORD	wordpools/wasnorm_wordpool_less_exclusions.txt	LTP195	ltpFR	14	13	-1	BISON	131	n/a	n/a	-1	1.0	1.0	1	upper	Verdana.ttf
2312493	WORD	wordpools/wasnorm_wordpool_less_exclusions.txt	LTP195	ltpFR	14	13	-1	CHIPMUNK	304	n/a	n/a	-1	1.0	1.0	1	upper	Verdana.ttf
2316653	WORD	wordpools/wasnorm_wordpool_less_exclusions.txt	LTP195	ltpFR	14	13	-1	PANTS	1010	n/a	n/a	-1	1.0	1.0	1	upper	Verdana.ttf
2320724	WORD	wordpools/wasnorm_wordpool_less_exclusions.txt	LTP195	ltpFR	14	13	-1	PIT	1077	n/a	n/a	-1	1.0	1.0	1	upper	Verdana.ttf
2324951	WORD	wordpools/wasnorm_wordpool_less_exclusions.txt	LTP195	ltpFR	14	13	-1	FLEA	577	n/a	n/a	-1	1.0	1.0	1	upper	Verdana.ttf
2328905	WORD	wordpools/wasnorm_wordpool_less_exclusions.txt	LTP195	ltpFR	14	13	-1	GIRAFFE	636	n/a	n/a	-1	1.0	1.0	1	upper	Verdana.ttf
2332971	WORD	wordpools/wasnorm_wordpool_less_exclusions.txt	LTP195	ltpFR	14	13	-1	BEER	114	n/a	n/a	-1	1.0	1.0	1	upper	Verdana.ttf
2336986	WORD	wordpools/wasnorm_wordpool_less_exclusions.txt	LTP195	ltpFR	14	13	-1	COOLER	375	n/a	n/a	-1	1.0	1.0	1	upper	Verdana.ttf
2340984	WORD	wordpools/wasnorm_wordpool_less_exclusions.txt	LTP195	ltpFR	14	13	-1	ARTIST	43	n/a	n/a	-1	1.0	1.0	1	upper	Verdana.ttf
2345144	WORD	wordpools/wasnorm_wordpool_less_exclusions.txt	LTP195	ltpFR	14	13	-1	CANVAS	234	n/a	n/a	-1	1.0	1.0	1	upper	Verdana.ttf
2349350	WORD	wordpools/wasnorm_wordpool_less_exclusions.txt	LTP195	ltpFR	14	13	-1	ZIPPER	1636	n/a	n/a	-1	1.0	1.0	1	upper	Verdana.ttf
2353348	WORD	wordpools/wasnorm_wordpool_less_exclusions.txt	LTP195	ltpFR	14	13	-1	OX	994	n/a	n/a	-1	1.0	1.0	1	upper	Verdana.ttf
2357280	WORD	wordpools/wasnorm_wordpool_less_exclusions.txt	LTP195	ltpFR	14	13	-1	SALESMAN	1225	n/a	n/a	-1	1.0	1.0	1	upper	Verdana.ttf
2361472	WORD	wordpools/wasnorm_wordpool_less_exclusions.txt	LTP195	ltpFR	14	13	-1	CARNIVAL	245	n/a	n/a	-1	1.0	1.0	1	upper	Verdana.ttf
2365503	WORD	wordpools/wasnorm_wordpool_less_exclusions.txt	LTP195	ltpFR	14	13	-1	PRINTER	1126	n/a	n/a	-1	1.0	1.0	1	upper	Verdana.ttf
2371127	REC_START	n/a	LTP195	ltpFR	14	13	n/a	n/a	n/a	n/a	n/a	n/a	n/a	n/a	n/a	n/a	n/a
2373367	REC_WORD	wordpools/wasnorm_wordpool_less_exclusions.txt	LTP195	ltpFR	14	13	-1	SALESMAN	1225	n/a	n/a	-1	n/a	n/a	n/a	n/a	n/a
2374559	REC_WORD	wordpools/wasnorm_wordpool_less_exclusions.txt	LTP195	ltpFR	14	13	-1	PRINTER	1126	n/a	n/a	-1	n/a	n/a	n/a	n/a	n/a
2375267	REC_WORD	wordpools/wasnorm_wordpool_less_exclusions.txt	LTP195	ltpFR	14	13	-1	CARNIVAL	245	n/a	n/a	-1	n/a	n/a	n/a	n/a	n/a
2376714	REC_WORD	wordpools/wasnorm_wordpool_less_exclusions.txt	LTP195	ltpFR	14	13	-1	ARTIST	43	n/a	n/a	-1	n/a	n/a	n/a	n/a	n/a
2377612	REC_WORD	wordpools/wasnorm_wordpool_less_exclusions.txt	LTP195	ltpFR	14	13	-1	CANVAS	234	n/a	n/a	-1	n/a	n/a	n/a	n/a	n/a
2380052	REC_WORD	wordpools/wasnorm_wordpool_less_exclusions.txt	LTP195	ltpFR	14	13	-1	COBRA	336	n/a	n/a	-1	n/a	n/a	n/a	n/a	n/a
2381069	REC_WORD	wordpools/wasnorm_wordpool_less_exclusions.txt	LTP195	ltpFR	14	13	-1	BISON	131	n/a	n/a	-1	n/a	n/a	n/a	n/a	n/a
2382306	REC_WORD	wordpools/wasnorm_wordpool_less_exclusions.txt	LTP195	ltpFR	14	13	-1	PANTS	1010	n/a	n/a	-1	n/a	n/a	n/a	n/a	n/a
2383059	REC_WORD	wordpools/wasnorm_wordpool_less_exclusions.txt	LTP195	ltpFR	14	13	-1	ZIPPER	1636	n/a	n/a	-1	n/a	n/a	n/a	n/a	n/a
2384421	REC_WORD	wordpools/wasnorm_wordpool_less_exclusions.txt	LTP195	ltpFR	14	13	-1	FLEA	577	n/a	n/a	-1	n/a	n/a	n/a	n/a	n/a
2385569	REC_WORD	wordpools/wasnorm_wordpool_less_exclusions.txt	LTP195	ltpFR	14	13	-1	PIT	1077	n/a	n/a	-1	n/a	n/a	n/a	n/a	n/a
2386741	REC_WORD	wordpools/wasnorm_wordpool_less_exclusions.txt	LTP195	ltpFR	14	13	-1	CHIPMUNK	304	n/a	n/a	-1	n/a	n/a	n/a	n/a	n/a
2388991	REC_WORD	wordpools/wasnorm_wordpool_less_exclusions.txt	LTP195	ltpFR	14	13	-1	GIRAFFE	636	n/a	n/a	-1	n/a	n/a	n/a	n/a	n/a
2390218	REC_WORD	wordpools/wasnorm_wordpool_less_exclusions.txt	LTP195	ltpFR	14	13	-1	BEER	114	n/a	n/a	-1	n/a	n/a	n/a	n/a	n/a
2391101	REC_WORD	wordpools/wasnorm_wordpool_less_exclusions.txt	LTP195	ltpFR	14	13	-1	COOLER	375	n/a	n/a	-1	n/a	n/a	n/a	n/a	n/a
2457992	WORD	wordpools/wasnorm_wordpool_less_exclusions.txt	LTP195	ltpFR	14	14	-1	ANT	25	n/a	n/a	-1	1.0	1.0	1	upper	Verdana.ttf
2461940	WORD	wordpools/wasnorm_wordpool_less_exclusions.txt	LTP195	ltpFR	14	14	-1	COURSE	390	n/a	n/a	-1	1.0	1.0	1	upper	Verdana.ttf
2465988	WORD	wordpools/wasnorm_wordpool_less_exclusions.txt	LTP195	ltpFR	14	14	-1	TART	1436	n/a	n/a	-1	1.0	1.0	1	upper	Verdana.ttf
2470122	WORD	wordpools/wasnorm_wordpool_less_exclusions.txt	LTP195	ltpFR	14	14	-1	TREE	1502	n/a	n/a	-1	1.0	1.0	1	upper	Verdana.ttf
2474154	WORD	wordpools/wasnorm_wordpool_less_exclusions.txt	LTP195	ltpFR	14	14	-1	MOAT	903	n/a	n/a	-1	1.0	1.0	1	upper	Verdana.ttf
2478302	WORD	wordpools/wasnorm_wordpool_less_exclusions.txt	LTP195	ltpFR	14	14	-1	CHECKERS	285	n/a	n/a	-1	1.0	1.0	1	upper	Verdana.ttf
2482444	WORD	wordpools/wasnorm_wordpool_less_exclusions.txt	LTP195	ltpFR	14	14	-1	LABYRINTH	791	n/a	n/a	-1	1.0	1.0	1	upper	Verdana.ttf
2486416	WORD	wordpools/wasnorm_wordpool_less_exclusions.txt	LTP195	ltpFR	14	14	-1	BEAR	106	n/a	n/a	-1	1.0	1.0	1	upper	Verdana.ttf
2490348	WORD	wordpools/wasnorm_wordpool_less_exclusions.txt	LTP195	ltpFR	14	14	-1	STADIUM	1364	n/a	n/a	-1	1.0	1.0	1	upper	Verdana.ttf
2494279	WORD	wordpools/wasnorm_wordpool_less_exclusions.txt	LTP195	ltpFR	14	14	-1	FIELD	562	n/a	n/a	-1	1.0	1.0	1	upper	Verdana.ttf
2498395	WORD	wordpools/wasnorm_wordpool_less_exclusions.txt	LTP195	ltpFR	14	14	-1	SCALLOP	1242	n/a	n/a	-1	1.0	1.0	1	upper	Verdana.ttf
2502360	WORD	wordpools/wasnorm_wordpool_less_exclusions.txt	LTP195	ltpFR	14	14	-1	BIOLOGIST	128	n/a	n/a	-1	1.0	1.0	1	upper	Verdana.ttf
2506491	WORD	wordpools/wasnorm_wordpool_less_exclusions.txt	LTP195	ltpFR	14	14	-1	SWAMP	1416	n/a	n/a	-1	1.0	1.0	1	upper	Verdana.ttf
2510540	WORD	wordpools/wasnorm_wordpool_less_exclusions.txt	LTP195	ltpFR	14	14	-1	BEETLE	116	n/a	n/a	-1	1.0	1.0	1	upper	Verdana.ttf
2514572	WORD	wordpools/wasnorm_wordpool_less_exclusions.txt	LTP195	ltpFR	14	14	-1	ISLAND	745	n/a	n/a	-1	1.0	1.0	1	upper	Verdana.ttf
2518530	WORD	wordpools/wasnorm_wordpool_less_exclusions.txt	LTP195	ltpFR	14	14	-1	SURF	1412	n/a	n/a	-1	1.0	1.0	1	upper	Verdana.ttf
2524237	REC_START	n/a	LTP195	ltpFR	14	14	n/a	n/a	n/a	n/a	n/a	n/a	n/a	n/a	n/a	n/a	n/a
2525953	REC_WORD	wordpools/wasnorm_wordpool_less_exclusions.txt	LTP195	ltpFR	14	14	-1	ISLAND	745	n/a	n/a	-1	n/a	n/a	n/a	n/a	n/a
2526746	REC_WORD	wordpools/wasnorm_wordpool_less_exclusions.txt	LTP195	ltpFR	14	14	-1	SURF	1412	n/a	n/a	-1	n/a	n/a	n/a	n/a	n/a
2528482	REC_WORD	wordpools/wasnorm_wordpool_less_exclusions.txt	LTP195	ltpFR	14	14	-1	SWAMP	1416	n/a	n/a	-1	n/a	n/a	n/a	n/a	n/a
2529390	REC_WORD	wordpools/wasnorm_wordpool_less_exclusions.txt	LTP195	ltpFR	14	14	-1	BEETLE	116	n/a	n/a	-1	n/a	n/a	n/a	n/a	n/a
2531261	REC_WORD	wordpools/wasnorm_wordpool_less_exclusions.txt	LTP195	ltpFR	14	14	-1	FIELD	562	n/a	n/a	-1	n/a	n/a	n/a	n/a	n/a
2532263	REC_WORD	wordpools/wasnorm_wordpool_less_exclusions.txt	LTP195	ltpFR	14	14	-1	STADIUM	1364	n/a	n/a	-1	n/a	n/a	n/a	n/a	n/a
2533466	REC_WORD	wordpools/wasnorm_wordpool_less_exclusions.txt	LTP195	ltpFR	14	14	-1	BEAR	106	n/a	n/a	-1	n/a	n/a	n/a	n/a	n/a
2535716	REC_WORD	wordpools/wasnorm_wordpool_less_exclusions.txt	LTP195	ltpFR	14	14	-1	BIOLOGIST	128	n/a	n/a	-1	n/a	n/a	n/a	n/a	n/a
2536716	REC_WORD_VV	wordpools/wasnorm_wordpool_less_exclusions.txt	LTP195	ltpFR	14	14	n/a	<>	-1	n/a	n/a	n/a	n/a	n/a	n/a	n/a	n/a
2536903	REC_WORD	wordpools/wasnorm_wordpool_less_exclusions.txt	LTP195	ltpFR	14	14	-1	MOAT	903	n/a	n/a	-1	n/a	n/a	n/a	n/a	n/a
2538893	REC_WORD	wordpools/wasnorm_wordpool_less_exclusions.txt	LTP195	ltpFR	14	14	-1	SCALLOP	1242	n/a	n/a	-1	n/a	n/a	n/a	n/a	n/a
2540724	REC_WORD	wordpools/wasnorm_wordpool_less_exclusions.txt	LTP195	ltpFR	14	14	-1	TREE	1502	n/a	n/a	-1	n/a	n/a	n/a	n/a	n/a
2542380	REC_WORD	wordpools/wasnorm_wordpool_less_exclusions.txt	LTP195	ltpFR	14	14	n/a	AUNT	60	n/a	n/a	n/a	n/a	n/a	n/a	n/a	n/a
2544546	REC_WORD	wordpools/wasnorm_wordpool_less_exclusions.txt	LTP195	ltpFR	14	14	-1	TART	1436	n/a	n/a	-1	n/a	n/a	n/a	n/a	n/a
2545399	REC_WORD	wordpools/wasnorm_wordpool_less_exclusions.txt	LTP195	ltpFR	14	14	-1	CHECKERS	285	n/a	n/a	-1	n/a	n/a	n/a	n/a	n/a
2546811	REC_WORD	wordpools/wasnorm_wordpool_less_exclusions.txt	LTP195	ltpFR	14	14	-1	COURSE	390	n/a	n/a	-1	n/a	n/a	n/a	n/a	n/a
2548088	REC_WORD	wordpools/wasnorm_wordpool_less_exclusions.txt	LTP195	ltpFR	14	14	-1	LABYRINTH	791	n/a	n/a	-1	n/a	n/a	n/a	n/a	n/a
2603290	WORD	wordpools/wasnorm_wordpool_less_exclusions.txt	LTP195	ltpFR	14	15	0	SUPERVISOR	1410	n/a	n/a	0	0.422607421875	0.5869140625	0	lower	amplitud.ttf
2607433	WORD	wordpools/wasnorm_wordpool_less_exclusions.txt	LTP195	ltpFR	14	15	0	OFFICE	972	n/a	n/a	1	0.422607421875	0.5869140625	0	lower	amplitud.ttf
2611520	WORD	wordpools/wasnorm_wordpool_less_exclusions.txt	LTP195	ltpFR	14	15	1	TRIANGLE	1504	n/a	n/a	0	0.57763671875	0.412841796875	1	upper	zerothre.ttf
2615452	WORD	wordpools/wasnorm_wordpool_less_exclusions.txt	LTP195	ltpFR	14	15	1	COOKIE	374	n/a	n/a	0	0.57763671875	0.412841796875	1	upper	zerothre.ttf
2619384	WORD	wordpools/wasnorm_wordpool_less_exclusions.txt	LTP195	ltpFR	14	15	1	FRIEND	606	n/a	n/a	1	0.57763671875	0.412841796875	1	upper	zerothre.ttf
2623360	WORD	wordpools/wasnorm_wordpool_less_exclusions.txt	LTP195	ltpFR	14	15	1	RELATIVE	1182	n/a	n/a	1	0.57763671875	0.412841796875	1	upper	zerothre.ttf
2627391	WORD	wordpools/wasnorm_wordpool_less_exclusions.txt	LTP195	ltpFR	14	15	1	ASTRONAUT	51	n/a	n/a	1	0.57763671875	0.412841796875	1	upper	zerothre.ttf
2631363	WORD	wordpools/wasnorm_wordpool_less_exclusions.txt	LTP195	ltpFR	14	15	1	CREEK	404	n/a	n/a	1	0.57763671875	0.412841796875	1	upper	zerothre.ttf
2635204	WORD	wordpools/wasnorm_wordpool_less_exclusions.txt	LTP195	ltpFR	14	15	0	TEMPLE	1448	n/a	n/a	1	0.422607421875	0.5869140625	0	lower	amplitud.ttf
2639387	WORD	wordpools/wasnorm_wordpool_less_exclusions.txt	LTP195	ltpFR	14	15	0	WATER	1594	n/a	n/a	0	0.422607421875	0.5869140625	0	lower	amplitud.ttf
2643324	WORD	wordpools/wasnorm_wordpool_less_exclusions.txt	LTP195	ltpFR	14	15	0	DOOR	486	n/a	n/a	0	0.422607421875	0.5869140625	0	lower	amplitud.ttf
2647533	WORD	wordpools/wasnorm_wordpool_less_exclusions.txt	LTP195	ltpFR	14	15	0	FAUCET	555	n/a	n/a	0	0.422607421875	0.5869140625	0	lower	amplitud.ttf
2651487	WORD	wordpools/wasnorm_wordpool_less_exclusions.txt	LTP195	ltpFR	14	15	0	SPONGE	1355	n/a	n/a	0	0.422607421875	0.5869140625	0	lower	amplitud.ttf
2655430	WORD	wordpools/wasnorm_wordpool_less_exclusions.txt	LTP195	ltpFR	14	15	0	STREAM	1392	n/a	n/a	1	0.422607421875	0.5869140625	0	lower	amplitud.ttf
2659318	WORD	wordpools/wasnorm_wordpool_less_exclusions.txt	LTP195	ltpFR	14	15	1	VENT	1556	n/a	n/a	0	0.57763671875	0.412841796875	1	upper	zerothre.ttf
2663199	WORD	wordpools/wasnorm_wordpool_less_exclusions.txt	LTP195	ltpFR	14	15	1	TREAT	1501	n/a	n/a	0	0.57763671875	0.412841796875	1	upper	zerothre.ttf
2669200	REC_START	n/a	LTP195	ltpFR	14	15	n/a	n/a	n/a	n/a	n/a	n/a	n/a	n/a	n/a	n/a	n/a
2670058	REC_WORD	wordpools/wasnorm_wordpool_less_exclusions.txt	LTP195	ltpFR	14	15	1	TRIANGLE	1504	n/a	n/a	0	n/a	n/a	n/a	n/a	n/a
2671215	REC_WORD	wordpools/wasnorm_wordpool_less_exclusions.txt	LTP195	ltpFR	14	15	1	COOKIE	374	n/a	n/a	0	n/a	n/a	n/a	n/a	n/a
2671929	REC_WORD	wordpools/wasnorm_wordpool_less_exclusions.txt	LTP195	ltpFR	14	15	1	TREAT	1501	n/a	n/a	0	n/a	n/a	n/a	n/a	n/a
2673450	REC_WORD	wordpools/wasnorm_wordpool_less_exclusions.txt	LTP195	ltpFR	14	15	0	OFFICE	972	n/a	n/a	1	n/a	n/a	n/a	n/a	n/a
2674952	REC_WORD	wordpools/wasnorm_wordpool_less_exclusions.txt	LTP195	ltpFR	14	15	1	VENT	1556	n/a	n/a	0	n/a	n/a	n/a	n/a	n/a
2678129	REC_WORD	wordpools/wasnorm_wordpool_less_exclusions.txt	LTP195	ltpFR	14	15	0	SUPERVISOR	1410	n/a	n/a	0	n/a	n/a	n/a	n/a	n/a
2679129	REC_WORD_VV	wordpools/wasnorm_wordpool_less_exclusions.txt	LTP195	ltpFR	14	15	n/a	<>	-1	n/a	n/a	n/a	n/a	n/a	n/a	n/a	n/a
2679286	REC_WORD	wordpools/wasnorm_wordpool_less_exclusions.txt	LTP195	ltpFR	14	15	1	FRIEND	606	n/a	n/a	1	n/a	n/a	n/a	n/a	n/a
2680689	REC_WORD	wordpools/wasnorm_wordpool_less_exclusions.txt	LTP195	ltpFR	14	15	1	RELATIVE	1182	n/a	n/a	1	n/a	n/a	n/a	n/a	n/a
2681657	REC_WORD	wordpools/wasnorm_wordpool_less_exclusions.txt	LTP195	ltpFR	14	15	1	ASTRONAUT	51	n/a	n/a	1	n/a	n/a	n/a	n/a	n/a
2686036	REC_WORD	wordpools/wasnorm_wordpool_less_exclusions.txt	LTP195	ltpFR	14	15	0	STREAM	1392	n/a	n/a	1	n/a	n/a	n/a	n/a	n/a
2686870	REC_WORD	wordpools/wasnorm_wordpool_less_exclusions.txt	LTP195	ltpFR	14	15	1	CREEK	404	n/a	n/a	1	n/a	n/a	n/a	n/a	n/a
2687523	REC_WORD	wordpools/wasnorm_wordpool_less_exclusions.txt	LTP195	ltpFR	14	15	0	FAUCET	555	n/a	n/a	0	n/a	n/a	n/a	n/a	n/a
2688301	REC_WORD	wordpools/wasnorm_wordpool_less_exclusions.txt	LTP195	ltpFR	14	15	0	WATER	1594	n/a	n/a	0	n/a	n/a	n/a	n/a	n/a
2749591	WORD	wordpools/wasnorm_wordpool_less_exclusions.txt	LTP195	ltpFR	14	16	1	CUSTARD	429	n/a	n/a	0	0.57763671875	0.412841796875	1	upper	zerothre.ttf
2753416	WORD	wordpools/wasnorm_wordpool_less_exclusions.txt	LTP195	ltpFR	14	16	1	FUR	615	n/a	n/a	0	0.57763671875	0.412841796875	1	upper	zerothre.ttf
2757564	WORD	wordpools/wasnorm_wordpool_less_exclusions.txt	LTP195	ltpFR	14	16	1	TAIL	1430	n/a	n/a	0	0.57763671875	0.412841796875	1	upper	zerothre.ttf
2761469	WORD	wordpools/wasnorm_wordpool_less_exclusions.txt	LTP195	ltpFR	14	16	0	COACH	331	n/a	n/a	0	0.422607421875	0.5869140625	0	lower	amplitud.ttf
2765484	WORD	wordpools/wasnorm_wordpool_less_exclusions.txt	LTP195	ltpFR	14	16	0	REFEREE	1178	n/a	n/a	0	0.422607421875	0.5869140625	0	lower	amplitud.ttf
2769343	WORD	wordpools/wasnorm_wordpool_less_exclusions.txt	LTP195	ltpFR	14	16	0	ICEBERG	731	n/a	n/a	1	0.422607421875	0.5869140625	0	lower	amplitud.ttf
2773308	WORD	wordpools/wasnorm_wordpool_less_exclusions.txt	LTP195	ltpFR	14	16	0	DOLPHIN	483	n/a	n/a	1	0.422607421875	0.5869140625	0	lower	amplitud.ttf
2777145	WORD	wordpools/wasnorm_wordpool_less_exclusions.txt	LTP195	ltpFR	14	16	1	WHISKERS	1605	n/a	n/a	0	0.57763671875	0.412841796875	1	upper	zerothre.ttf
2781110	WORD	wordpools/wasnorm_wordpool_less_exclusions.txt	LTP195	ltpFR	14	16	1	RAM	1165	n/a	n/a	1	0.57763671875	0.412841796875	1	upper	zerothre.ttf
2785337	WORD	wordpools/wasnorm_wordpool_less_exclusions.txt	LTP195	ltpFR	14	16	1	TOOTH	1481	n/a	n/a	0	0.57763671875	0.412841796875	1	upper	zerothre.ttf
2789291	WORD	wordpools/wasnorm_wordpool_less_exclusions.txt	LTP195	ltpFR	14	16	1	GLOVE	642	n/a	n/a	0	0.57763671875	0.412841796875	1	upper	zerothre.ttf
2793489	WORD	wordpools/wasnorm_wordpool_less_exclusions.txt	LTP195	ltpFR	14	16	1	BULLY	196	n/a	n/a	1	0.57763671875	0.412841796875	1	upper	zerothre.ttf
2797388	WORD	wordpools/wasnorm_wordpool_less_exclusions.txt	LTP195	ltpFR	14	16	0	HEADBAND	696	n/a	n/a	0	0.422607421875	0.5869140625	0	lower	amplitud.ttf
2801564	WORD	wordpools/wasnorm_wordpool_less_exclusions.txt	LTP195	ltpFR	14	16	0	DESSERT	453	n/a	n/a	0	0.422607421875	0.5869140625	0	lower	amplitud.ttf
2805696	WORD	wordpools/wasnorm_wordpool_less_exclusions.txt	LTP195	ltpFR	14	16	0	GUARD	667	n/a	n/a	0	0.422607421875	0.5869140625	0	lower	amplitud.ttf
2809700	WORD	wordpools/wasnorm_wordpool_less_exclusions.txt	LTP195	ltpFR	14	16	0	DEPUTY	450	n/a	n/a	1	0.422607421875	0.5869140625	0	lower	amplitud.ttf
2815607	REC_START	n/a	LTP195	ltpFR	14	16	n/a	n/a	n/a	n/a	n/a	n/a	n/a	n/a	n/a	n/a	n/a
2817353	REC_WORD	wordpools/wasnorm_wordpool_less_exclusions.txt	LTP195	ltpFR	14	16	0	GUARD	667	n/a	n/a	0	n/a	n/a	n/a	n/a	n/a
2818196	REC_WORD	wordpools/wasnorm_wordpool_less_exclusions.txt	LTP195	ltpFR	14	16	0	DEPUTY	450	n/a	n/a	1	n/a	n/a	n/a	n/a	n/a
2819033	REC_WORD	wordpools/wasnorm_wordpool_less_exclusions.txt	LTP195	ltpFR	14	16	0	HEADBAND	696	n/a	n/a	0	n/a	n/a	n/a	n/a	n/a
2820027	REC_WORD	wordpools/wasnorm_wordpool_less_exclusions.txt	LTP195	ltpFR	14	16	0	DESSERT	453	n/a	n/a	0	n/a	n/a	n/a	n/a	n/a
2823544	REC_WORD	wordpools/wasnorm_wordpool_less_exclusions.txt	LTP195	ltpFR	14	16	0	DOLPHIN	483	n/a	n/a	1	n/a	n/a	n/a	n/a	n/a
2824292	REC_WORD	wordpools/wasnorm_wordpool_less_exclusions.txt	LTP195	ltpFR	14	16	0	ICEBERG	731	n/a	n/a	1	n/a	n/a	n/a	n/a	n/a
2826472	REC_WORD	wordpools/wasnorm_wordpool_less_exclusions.txt	LTP195	ltpFR	14	16	0	COACH	331	n/a	n/a	0	n/a	n/a	n/a	n/a	n/a
2827150	REC_WORD	wordpools/wasnorm_wordpool_less_exclusions.txt	LTP195	ltpFR	14	16	0	REFEREE	1178	n/a	n/a	0	n/a	n/a	n/a	n/a	n/a
2839572	REC_WORD	wordpools/wasnorm_wordpool_less_exclusions.txt	LTP195	ltpFR	14	16	1	FUR	615	n/a	n/a	0	n/a	n/a	n/a	n/a	n/a
2840405	REC_WORD	wordpools/wasnorm_wordpool_less_exclusions.txt	LTP195	ltpFR	14	16	1	TAIL	1430	n/a	n/a	0	n/a	n/a	n/a	n/a	n/a
2845234	REC_WORD	wordpools/wasnorm_wordpool_less_exclusions.txt	LTP195	ltpFR	14	16	1	TOOTH	1481	n/a	n/a	0	n/a	n/a	n/a	n/a	n/a
2848312	REC_WORD	wordpools/wasnorm_wordpool_less_exclusions.txt	LTP195	ltpFR	14	16	1	RAM	1165	n/a	n/a	1	n/a	n/a	n/a	n/a	n/a
2852428	REC_WORD	wordpools/wasnorm_wordpool_less_exclusions.txt	LTP195	ltpFR	14	16	1	CUSTARD	429	n/a	n/a	0	n/a	n/a	n/a	n/a	n/a
2926977	REC_START	n/a	LTP195	ltpFR	14	1	n/a	n/a	n/a	n/a	n/a	n/a	n/a	n/a	n/a	n/a	n/a
2927036	RECOG_TARGET	n/a	LTP195	ltpFR	14	1	1	MONASTERY	907	1	5	0	n/a	n/a	n/a	n/a	n/a
2927753	RECOG_RESP	n/a	LTP195	ltpFR	14	1	1	MONASTERY	907	1	n/a	0	n/a	n/a	n/a	n/a	n/a
2928708	RECOG_CONF	n/a	LTP195	ltpFR	14	1	1	MONASTERY	907	n/a	5	0	n/a	n/a	n/a	n/a	n/a
2930506	RECOG_TARGET	n/a	LTP195	ltpFR	14	1	1	DOLLAR	482	1	4	0	n/a	n/a	n/a	n/a	n/a
2931163	RECOG_RESP	n/a	LTP195	ltpFR	14	1	1	DOLLAR	482	1	n/a	0	n/a	n/a	n/a	n/a	n/a
2931881	RECOG_CONF	n/a	LTP195	ltpFR	14	1	1	DOLLAR	482	n/a	4	0	n/a	n/a	n/a	n/a	n/a
2933450	RECOG_TARGET	n/a	LTP195	ltpFR	14	1	0	RICE	1190	1	4	0	n/a	n/a	n/a	n/a	n/a
2934038	RECOG_RESP	n/a	LTP195	ltpFR	14	1	0	RICE	1190	1	n/a	0	n/a	n/a	n/a	n/a	n/a
2934694	RECOG_CONF	n/a	LTP195	ltpFR	14	1	0	RICE	1190	n/a	4	0	n/a	n/a	n/a	n/a	n/a
2936228	RECOG_LURE	n/a	LTP195	ltpFR	14	1	n/a	DETECTIVE	454	0	1	n/a	n/a	n/a	n/a	n/a	n/a
2936987	RECOG_RESP	n/a	LTP195	ltpFR	14	1	n/a	DETECTIVE	454	0	n/a	n/a	n/a	n/a	n/a	n/a	n/a
2937551	RECOG_CONF	n/a	LTP195	ltpFR	14	1	n/a	DETECTIVE	454	n/a	1	n/a	n/a	n/a	n/a	n/a	n/a
2939267	RECOG_TARGET	n/a	LTP195	ltpFR	14	1	0	RAZOR	1171	1	4	0	n/a	n/a	n/a	n/a	n/a
2939872	RECOG_RESP	n/a	LTP195	ltpFR	14	1	0	RAZOR	1171	1	n/a	0	n/a	n/a	n/a	n/a	n/a
2940551	RECOG_CONF	n/a	LTP195	ltpFR	14	1	0	RAZOR	1171	n/a	4	0	n/a	n/a	n/a	n/a	n/a
2942245	RECOG_TARGET	n/a	LTP195	ltpFR	14	1	1	SUIT	1402	1	5	0	n/a	n/a	n/a	n/a	n/a
2942852	RECOG_RESP	n/a	LTP195	ltpFR	14	1	1	SUIT	1402	1	n/a	0	n/a	n/a	n/a	n/a	n/a
2943444	RECOG_CONF	n/a	LTP195	ltpFR	14	1	1	SUIT	1402	n/a	5	0	n/a	n/a	n/a	n/a	n/a
2945055	RECOG_LURE	n/a	LTP195	ltpFR	14	1	n/a	AMBULANCE	19	0	5	n/a	n/a	n/a	n/a	n/a	n/a
2945735	RECOG_RESP	n/a	LTP195	ltpFR	14	1	n/a	AMBULANCE	19	0	n/a	n/a	n/a	n/a	n/a	n/a	n/a
2946328	RECOG_CONF	n/a	LTP195	ltpFR	14	1	n/a	AMBULANCE	19	n/a	5	n/a	n/a	n/a	n/a	n/a	n/a
2947955	RECOG_LURE	n/a	LTP195	ltpFR	14	1	n/a	POET	1095	0	1	n/a	n/a	n/a	n/a	n/a	n/a
2948757	RECOG_RESP	n/a	LTP195	ltpFR	14	1	n/a	POET	1095	0	n/a	n/a	n/a	n/a	n/a	n/a	n/a
2949311	RECOG_CONF	n/a	LTP195	ltpFR	14	1	n/a	POET	1095	n/a	1	n/a	n/a	n/a	n/a	n/a	n/a
2950882	RECOG_LURE	n/a	LTP195	ltpFR	14	1	n/a	STAKE	1368	0	2	n/a	n/a	n/a	n/a	n/a	n/a
2951821	RECOG_RESP	n/a	LTP195	ltpFR	14	1	n/a	STAKE	1368	0	n/a	n/a	n/a	n/a	n/a	n/a	n/a
2952414	RECOG_CONF	n/a	LTP195	ltpFR	14	1	n/a	STAKE	1368	n/a	2	n/a	n/a	n/a	n/a	n/a	n/a
2954079	RECOG_TARGET	n/a	LTP195	ltpFR	14	1	0	MAT	877	1	5	0	n/a	n/a	n/a	n/a	n/a
2954829	RECOG_RESP	n/a	LTP195	ltpFR	14	1	0	MAT	877	1	n/a	0	n/a	n/a	n/a	n/a	n/a
2955304	RECOG_CONF	n/a	LTP195	ltpFR	14	1	0	MAT	877	n/a	5	0	n/a	n/a	n/a	n/a	n/a
2957090	RECOG_TARGET	n/a	LTP195	ltpFR	14	1	-1	CERAMICS	271	1	5	-1	n/a	n/a	n/a	n/a	n/a
2957714	RECOG_RESP	n/a	LTP195	ltpFR	14	1	-1	CERAMICS	271	1	n/a	-1	n/a	n/a	n/a	n/a	n/a
2958311	RECOG_CONF	n/a	LTP195	ltpFR	14	1	-1	CERAMICS	271	n/a	5	-1	n/a	n/a	n/a	n/a	n/a
2959877	RECOG_LURE	n/a	LTP195	ltpFR	14	1	n/a	VIOLA	1570	0	4	n/a	n/a	n/a	n/a	n/a	n/a
2960545	RECOG_RESP	n/a	LTP195	ltpFR	14	1	n/a	VIOLA	1570	0	n/a	n/a	n/a	n/a	n/a	n/a	n/a
2961104	RECOG_CONF	n/a	LTP195	ltpFR	14	1	n/a	VIOLA	1570	n/a	4	n/a	n/a	n/a	n/a	n/a	n/a
2962643	RECOG_TARGET	n/a	LTP195	ltpFR	14	1	0	LIMB	822	1	4	0	n/a	n/a	n/a	n/a	n/a
2963256	RECOG_RESP	n/a	LTP195	ltpFR	14	1	0	LIMB	822	1	n/a	0	n/a	n/a	n/a	n/a	n/a
2963808	RECOG_CONF	n/a	LTP195	ltpFR	14	1	0	LIMB	822	n/a	4	0	n/a	n/a	n/a	n/a	n/a
2965454	RECOG_LURE	n/a	LTP195	ltpFR	14	1	n/a	QUARTER	1148	0	1	n/a	n/a	n/a	n/a	n/a	n/a
2966192	RECOG_RESP	n/a	LTP195	ltpFR	14	1	n/a	QUARTER	1148	0	n/a	n/a	n/a	n/a	n/a	n/a	n/a
2966690	RECOG_CONF	n/a	LTP195	ltpFR	14	1	n/a	QUARTER	1148	n/a	1	n/a	n/a	n/a	n/a	n/a	n/a
2968333	RECOG_TARGET	n/a	LTP195	ltpFR	14	1	1	TURKEY	1520	1	5	1	n/a	n/a	n/a	n/a	n/a
2969074	RECOG_RESP	n/a	LTP195	ltpFR	14	1	1	TURKEY	1520	1	n/a	1	n/a	n/a	n/a	n/a	n/a
2969585	RECOG_CONF	n/a	LTP195	ltpFR	14	1	1	TURKEY	1520	n/a	5	1	n/a	n/a	n/a	n/a	n/a
2971237	RECOG_LURE	n/a	LTP195	ltpFR	14	1	n/a	FOOT	590	0	2	n/a	n/a	n/a	n/a	n/a	n/a
2972591	RECOG_RESP	n/a	LTP195	ltpFR	14	1	n/a	FOOT	590	0	n/a	n/a	n/a	n/a	n/a	n/a	n/a
2973156	RECOG_CONF	n/a	LTP195	ltpFR	14	1	n/a	FOOT	590	n/a	2	n/a	n/a	n/a	n/a	n/a	n/a
2974706	RECOG_TARGET	n/a	LTP195	ltpFR	14	1	-1	PUBLICATION	1136	1	1	-1	n/a	n/a	n/a	n/a	n/a
2975381	RECOG_RESP	n/a	LTP195	ltpFR	14	1	-1	PUBLICATION	1136	1	n/a	-1	n/a	n/a	n/a	n/a	n/a
2975901	RECOG_CONF	n/a	LTP195	ltpFR	14	1	-1	PUBLICATION	1136	n/a	1	-1	n/a	n/a	n/a	n/a	n/a
2977483	RECOG_LURE	n/a	LTP195	ltpFR	14	1	n/a	BLADE	134	0	1	n/a	n/a	n/a	n/a	n/a	n/a
2978450	RECOG_RESP	n/a	LTP195	ltpFR	14	1	n/a	BLADE	134	0	n/a	n/a	n/a	n/a	n/a	n/a	n/a
2978945	RECOG_CONF	n/a	LTP195	ltpFR	14	1	n/a	BLADE	134	n/a	1	n/a	n/a	n/a	n/a	n/a	n/a
2980555	RECOG_TARGET	n/a	LTP195	ltpFR	14	1	0	HOSE	720	1	4	0	n/a	n/a	n/a	n/a	n/a
2981324	RECOG_RESP	n/a	LTP195	ltpFR	14	1	0	HOSE	720	1	n/a	0	n/a	n/a	n/a	n/a	n/a
2981977	RECOG_CONF	n/a	LTP195	ltpFR	14	1	0	HOSE	720	n/a	4	0	n/a	n/a	n/a	n/a	n/a
2983589	RECOG_TARGET	n/a	LTP195	ltpFR	14	1	1	POWDER	1117	1	5	0	n/a	n/a	n/a	n/a	n/a
2984305	RECOG_RESP	n/a	LTP195	ltpFR	14	1	1	POWDER	1117	1	n/a	0	n/a	n/a	n/a	n/a	n/a
2984880	RECOG_CONF	n/a	LTP195	ltpFR	14	1	1	POWDER	1117	n/a	5	0	n/a	n/a	n/a	n/a	n/a
2988438	REC_START	n/a	LTP195	ltpFR	14	2	n/a	n/a	n/a	n/a	n/a	n/a	n/a	n/a	n/a	n/a	n/a
2988491	RECOG_TARGET	n/a	LTP195	ltpFR	14	2	0	SIDEWALK	1303	1	5	0	n/a	n/a	n/a	n/a	n/a
2989581	RECOG_RESP	n/a	LTP195	ltpFR	14	2	0	SIDEWALK	1303	1	n/a	0	n/a	n/a	n/a	n/a	n/a
2990169	RECOG_CONF	n/a	LTP195	ltpFR	14	2	0	SIDEWALK	1303	n/a	5	0	n/a	n/a	n/a	n/a	n/a
2991797	RECOG_TARGET	n/a	LTP195	ltpFR	14	2	1	TOOTH	1481	1	5	0	n/a	n/a	n/a	n/a	n/a
2992361	RECOG_RESP	n/a	LTP195	ltpFR	14	2	1	TOOTH	1481	1	n/a	0	n/a	n/a	n/a	n/a	n/a
2992881	RECOG_CONF	n/a	LTP195	ltpFR	14	2	1	TOOTH	1481	n/a	5	0	n/a	n/a	n/a	n/a	n/a
2994514	RECOG_TARGET	n/a	LTP195	ltpFR	14	2	-1	MOAT	903	1	4	-1	n/a	n/a	n/a	n/a	n/a
2995197	RECOG_RESP	n/a	LTP195	ltpFR	14	2	-1	MOAT	903	1	n/a	-1	n/a	n/a	n/a	n/a	n/a
2995816	RECOG_CONF	n/a	LTP195	ltpFR	14	2	-1	MOAT	903	n/a	4	-1	n/a	n/a	n/a	n/a	n/a
2997359	RECOG_TARGET	n/a	LTP195	ltpFR	14	2	0	WEB	1598	1	5	0	n/a	n/a	n/a	n/a	n/a
2997944	RECOG_RESP	n/a	LTP195	ltpFR	14	2	0	WEB	1598	1	n/a	0	n/a	n/a	n/a	n/a	n/a
2998500	RECOG_CONF	n/a	LTP195	ltpFR	14	2	0	WEB	1598	n/a	5	0	n/a	n/a	n/a	n/a	n/a
3000119	RECOG_TARGET	n/a	LTP195	ltpFR	14	2	0	PUBLISHER	1137	1	5	1	n/a	n/a	n/a	n/a	n/a
3000734	RECOG_RESP	n/a	LTP195	ltpFR	14	2	0	PUBLISHER	1137	1	n/a	1	n/a	n/a	n/a	n/a	n/a
3001284	RECOG_CONF	n/a	LTP195	ltpFR	14	2	0	PUBLISHER	1137	n/a	5	1	n/a	n/a	n/a	n/a	n/a
3002711	RECOG_TARGET	n/a	LTP195	ltpFR	14	2	-1	ZIPPER	1636	1	4	-1	n/a	n/a	n/a	n/a	n/a
3004027	RECOG_RESP	n/a	LTP195	ltpFR	14	2	-1	ZIPPER	1636	1	n/a	-1	n/a	n/a	n/a	n/a	n/a
3004596	RECOG_CONF	n/a	LTP195	ltpFR	14	2	-1	ZIPPER	1636	n/a	4	-1	n/a	n/a	n/a	n/a	n/a
3006135	RECOG_TARGET	n/a	LTP195	ltpFR	14	2	0	ARROW	40	1	2	0	n/a	n/a	n/a	n/a	n/a
3007712	RECOG_RESP	n/a	LTP195	ltpFR	14	2	0	ARROW	40	1	n/a	0	n/a	n/a	n/a	n/a	n/a
3008330	RECOG_CONF	n/a	LTP195	ltpFR	14	2	0	ARROW	40	n/a	2	0	n/a	n/a	n/a	n/a	n/a
3009965	RECOG_LURE	n/a	LTP195	ltpFR	14	2	n/a	ICING	732	0	1	n/a	n/a	n/a	n/a	n/a	n/a
3010742	RECOG_RESP	n/a	LTP195	ltpFR	14	2	n/a	ICING	732	0	n/a	n/a	n/a	n/a	n/a	n/a	n/a
3011207	RECOG_CONF	n/a	LTP195	ltpFR	14	2	n/a	ICING	732	n/a	1	n/a	n/a	n/a	n/a	n/a	n/a
3012782	RECOG_TARGET	n/a	LTP195	ltpFR	14	2	-1	VEGETABLE	1552	1	4	-1	n/a	n/a	n/a	n/a	n/a
3013469	RECOG_RESP	n/a	LTP195	ltpFR	14	2	-1	VEGETABLE	1552	1	n/a	-1	n/a	n/a	n/a	n/a	n/a
3016387	RECOG_CONF	n/a	LTP195	ltpFR	14	2	-1	VEGETABLE	1552	n/a	4	-1	n/a	n/a	n/a	n/a	n/a
3017962	RECOG_TARGET	n/a	LTP195	ltpFR	14	2	1	GRAVEL	659	1	5	0	n/a	n/a	n/a	n/a	n/a
3018602	RECOG_RESP	n/a	LTP195	ltpFR	14	2	1	GRAVEL	659	1	n/a	0	n/a	n/a	n/a	n/a	n/a
3019067	RECOG_CONF	n/a	LTP195	ltpFR	14	2	1	GRAVEL	659	n/a	5	0	n/a	n/a	n/a	n/a	n/a
3020629	RECOG_TARGET	n/a	LTP195	ltpFR	14	2	0	SIDING	1304	1	5	0	n/a	n/a	n/a	n/a	n/a
3021304	RECOG_RESP	n/a	LTP195	ltpFR	14	2	0	SIDING	1304	1	n/a	0	n/a	n/a	n/a	n/a	n/a
3021847	RECOG_CONF	n/a	LTP195	ltpFR	14	2	0	SIDING	1304	n/a	5	0	n/a	n/a	n/a	n/a	n/a
3023323	RECOG_TARGET	n/a	LTP195	ltpFR	14	2	0	WATER	1594	1	4	0	n/a	n/a	n/a	n/a	n/a
3023967	RECOG_RESP	n/a	LTP195	ltpFR	14	2	0	WATER	1594	1	n/a	0	n/a	n/a	n/a	n/a	n/a
3024511	RECOG_CONF	n/a	LTP195	ltpFR	14	2	0	WATER	1594	n/a	4	0	n/a	n/a	n/a	n/a	n/a
3025982	RECOG_TARGET	n/a	LTP195	ltpFR	14	2	1	TAG	1429	1	3	0	n/a	n/a	n/a	n/a	n/a
3026646	RECOG_RESP	n/a	LTP195	ltpFR	14	2	1	TAG	1429	1	n/a	0	n/a	n/a	n/a	n/a	n/a
3027314	RECOG_CONF	n/a	LTP195	ltpFR	14	2	1	TAG	1429	n/a	3	0	n/a	n/a	n/a	n/a	n/a
3028676	RECOG_TARGET	n/a	LTP195	ltpFR	14	2	1	SHORTCAKE	1292	1	5	0	n/a	n/a	n/a	n/a	n/a
3029334	RECOG_RESP	n/a	LTP195	ltpFR	14	2	1	SHORTCAKE	1292	1	n/a	0	n/a	n/a	n/a	n/a	n/a
3029808	RECOG_CONF	n/a	LTP195	ltpFR	14	2	1	SHORTCAKE	1292	n/a	5	0	n/a	n/a	n/a	n/a	n/a
3031437	RECOG_TARGET	n/a	LTP195	ltpFR	14	2	-1	PLAZA	1088	1	4	-1	n/a	n/a	n/a	n/a	n/a
3032030	RECOG_RESP	n/a	LTP195	ltpFR	14	2	-1	PLAZA	1088	1	n/a	-1	n/a	n/a	n/a	n/a	n/a
3032505	RECOG_CONF	n/a	LTP195	ltpFR	14	2	-1	PLAZA	1088	n/a	4	-1	n/a	n/a	n/a	n/a	n/a
3034080	RECOG_TARGET	n/a	LTP195	ltpFR	14	2	1	PENCIL	1042	1	4	0	n/a	n/a	n/a	n/a	n/a
3034660	RECOG_RESP	n/a	LTP195	ltpFR	14	2	1	PENCIL	1042	1	n/a	0	n/a	n/a	n/a	n/a	n/a
3035236	RECOG_CONF	n/a	LTP195	ltpFR	14	2	1	PENCIL	1042	n/a	4	0	n/a	n/a	n/a	n/a	n/a
3036967	RECOG_TARGET	n/a	LTP195	ltpFR	14	2	0	VAULT	1550	1	5	1	n/a	n/a	n/a	n/a	n/a
3037664	RECOG_RESP	n/a	LTP195	ltpFR	14	2	0	VAULT	1550	1	n/a	1	n/a	n/a	n/a	n/a	n/a
3038200	RECOG_CONF	n/a	LTP195	ltpFR	14	2	0	VAULT	1550	n/a	5	1	n/a	n/a	n/a	n/a	n/a
3039767	RECOG_LURE	n/a	LTP195	ltpFR	14	2	n/a	CASKET	255	0	1	n/a	n/a	n/a	n/a	n/a	n/a
3040522	RECOG_RESP	n/a	LTP195	ltpFR	14	2	n/a	CASKET	255	0	n/a	n/a	n/a	n/a	n/a	n/a	n/a
3041000	RECOG_CONF	n/a	LTP195	ltpFR	14	2	n/a	CASKET	255	n/a	1	n/a	n/a	n/a	n/a	n/a	n/a
3042572	RECOG_TARGET	n/a	LTP195	ltpFR	14	2	1	CUSTARD	429	1	3	0	n/a	n/a	n/a	n/a	n/a
3043233	RECOG_RESP	n/a	LTP195	ltpFR	14	2	1	CUSTARD	429	1	n/a	0	n/a	n/a	n/a	n/a	n/a
3043937	RECOG_CONF	n/a	LTP195	ltpFR	14	2	1	CUSTARD	429	n/a	3	0	n/a	n/a	n/a	n/a	n/a
3045583	RECOG_LURE	n/a	LTP195	ltpFR	14	2	n/a	PAN	1008	0	3	n/a	n/a	n/a	n/a	n/a	n/a
3046364	RECOG_RESP	n/a	LTP195	ltpFR	14	2	n/a	PAN	1008	0	n/a	n/a	n/a	n/a	n/a	n/a	n/a
3047018	RECOG_CONF	n/a	LTP195	ltpFR	14	2	n/a	PAN	1008	n/a	3	n/a	n/a	n/a	n/a	n/a	n/a
3051199	REC_START	n/a	LTP195	ltpFR	14	3	n/a	n/a	n/a	n/a	n/a	n/a	n/a	n/a	n/a	n/a	n/a
3051255	RECOG_LURE	n/a	LTP195	ltpFR	14	3	n/a	NURSERY	964	0	4	n/a	n/a	n/a	n/a	n/a	n/a
3051991	RECOG_RESP	n/a	LTP195	ltpFR	14	3	n/a	NURSERY	964	0	n/a	n/a	n/a	n/a	n/a	n/a	n/a
3052497	RECOG_CONF	n/a	LTP195	ltpFR	14	3	n/a	NURSERY	964	n/a	4	n/a	n/a	n/a	n/a	n/a	n/a
3054139	RECOG_TARGET	n/a	LTP195	ltpFR	14	3	-1	COURSE	390	1	5	-1	n/a	n/a	n/a	n/a	n/a
3054841	RECOG_RESP	n/a	LTP195	ltpFR	14	3	-1	COURSE	390	1	n/a	-1	n/a	n/a	n/a	n/a	n/a
3055354	RECOG_CONF	n/a	LTP195	ltpFR	14	3	-1	COURSE	390	n/a	5	-1	n/a	n/a	n/a	n/a	n/a
3056949	RECOG_TARGET	n/a	LTP195	ltpFR	14	3	1	TULIP	1517	1	4	1	n/a	n/a	n/a	n/a	n/a
3057524	RECOG_RESP	n/a	LTP195	ltpFR	14	3	1	TULIP	1517	1	n/a	1	n/a	n/a	n/a	n/a	n/a
3058018	RECOG_CONF	n/a	LTP195	ltpFR	14	3	1	TULIP	1517	n/a	4	1	n/a	n/a	n/a	n/a	n/a
3059659	RECOG_TARGET	n/a	LTP195	ltpFR	14	3	-1	POTTERY	1116	1	5	-1	n/a	n/a	n/a	n/a	n/a
3060303	RECOG_RESP	n/a	LTP195	ltpFR	14	3	-1	POTTERY	1116	1	n/a	-1	n/a	n/a	n/a	n/a	n/a
3060750	RECOG_CONF	n/a	LTP195	ltpFR	14	3	-1	POTTERY	1116	n/a	5	-1	n/a	n/a	n/a	n/a	n/a
3062480	RECOG_TARGET	n/a	LTP195	ltpFR	14	3	0	POLITICIAN	1099	1	5	1	n/a	n/a	n/a	n/a	n/a
3063093	RECOG_RESP	n/a	LTP195	ltpFR	14	3	0	POLITICIAN	1099	1	n/a	1	n/a	n/a	n/a	n/a	n/a
3063703	RECOG_CONF	n/a	LTP195	ltpFR	14	3	0	POLITICIAN	1099	n/a	5	1	n/a	n/a	n/a	n/a	n/a
3065231	RECOG_TARGET	n/a	LTP195	ltpFR	14	3	1	GARLIC	624	1	5	0	n/a	n/a	n/a	n/a	n/a
3065756	RECOG_RESP	n/a	LTP195	ltpFR	14	3	1	GARLIC	624	1	n/a	0	n/a	n/a	n/a	n/a	n/a
3066281	RECOG_CONF	n/a	LTP195	ltpFR	14	3	1	GARLIC	624	n/a	5	0	n/a	n/a	n/a	n/a	n/a
3067907	RECOG_TARGET	n/a	LTP195	ltpFR	14	3	1	TAPE	1433	1	5	0	n/a	n/a	n/a	n/a	n/a
3068671	RECOG_RESP	n/a	LTP195	ltpFR	14	3	1	TAPE	1433	1	n/a	0	n/a	n/a	n/a	n/a	n/a
3069153	RECOG_CONF	n/a	LTP195	ltpFR	14	3	1	TAPE	1433	n/a	5	0	n/a	n/a	n/a	n/a	n/a
3070851	RECOG_TARGET	n/a	LTP195	ltpFR	14	3	0	HEADBAND	696	1	4	0	n/a	n/a	n/a	n/a	n/a
3071529	RECOG_RESP	n/a	LTP195	ltpFR	14	3	0	HEADBAND	696	1	n/a	0	n/a	n/a	n/a	n/a	n/a
3072056	RECOG_CONF	n/a	LTP195	ltpFR	14	3	0	HEADBAND	696	n/a	4	0	n/a	n/a	n/a	n/a	n/a
3073555	RECOG_TARGET	n/a	LTP195	ltpFR	14	3	-1	ARCHITECT	36	1	4	-1	n/a	n/a	n/a	n/a	n/a
3074259	RECOG_RESP	n/a	LTP195	ltpFR	14	3	-1	ARCHITECT	36	1	n/a	-1	n/a	n/a	n/a	n/a	n/a
3074840	RECOG_CONF	n/a	LTP195	ltpFR	14	3	-1	ARCHITECT	36	n/a	4	-1	n/a	n/a	n/a	n/a	n/a
3076317	RECOG_TARGET	n/a	LTP195	ltpFR	14	3	0	TROUSERS	1510	0	1	0	n/a	n/a	n/a	n/a	n/a
3079047	RECOG_RESP	n/a	LTP195	ltpFR	14	3	0	TROUSERS	1510	0	n/a	0	n/a	n/a	n/a	n/a	n/a
3079531	RECOG_CONF	n/a	LTP195	ltpFR	14	3	0	TROUSERS	1510	n/a	1	0	n/a	n/a	n/a	n/a	n/a
3081158	RECOG_TARGET	n/a	LTP195	ltpFR	14	3	1	WHISKERS	1605	1	4	0	n/a	n/a	n/a	n/a	n/a
3081963	RECOG_RESP	n/a	LTP195	ltpFR	14	3	1	WHISKERS	1605	1	n/a	0	n/a	n/a	n/a	n/a	n/a
3082473	RECOG_CONF	n/a	LTP195	ltpFR	14	3	1	WHISKERS	1605	n/a	4	0	n/a	n/a	n/a	n/a	n/a
3084102	RECOG_TARGET	n/a	LTP195	ltpFR	14	3	0	STABLE	1363	1	5	1	n/a	n/a	n/a	n/a	n/a
3084853	RECOG_RESP	n/a	LTP195	ltpFR	14	3	0	STABLE	1363	1	n/a	1	n/a	n/a	n/a	n/a	n/a
3085336	RECOG_CONF	n/a	LTP195	ltpFR	14	3	0	STABLE	1363	n/a	5	1	n/a	n/a	n/a	n/a	n/a
3086905	RECOG_TARGET	n/a	LTP195	ltpFR	14	3	-1	PRINTER	1126	1	5	-1	n/a	n/a	n/a	n/a	n/a
3087637	RECOG_RESP	n/a	LTP195	ltpFR	14	3	-1	PRINTER	1126	1	n/a	-1	n/a	n/a	n/a	n/a	n/a
3088186	RECOG_CONF	n/a	LTP195	ltpFR	14	3	-1	PRINTER	1126	n/a	5	-1	n/a	n/a	n/a	n/a	n/a
3089833	RECOG_TARGET	n/a	LTP195	ltpFR	14	3	0	ESSAY	540	1	5	0	n/a	n/a	n/a	n/a	n/a
3090475	RECOG_RESP	n/a	LTP195	ltpFR	14	3	0	ESSAY	540	1	n/a	0	n/a	n/a	n/a	n/a	n/a
3090983	RECOG_CONF	n/a	LTP195	ltpFR	14	3	0	ESSAY	540	n/a	5	0	n/a	n/a	n/a	n/a	n/a
3092633	RECOG_LURE	n/a	LTP195	ltpFR	14	3	n/a	CABIN	211	0	2	n/a	n/a	n/a	n/a	n/a	n/a
3093388	RECOG_RESP	n/a	LTP195	ltpFR	14	3	n/a	CABIN	211	0	n/a	n/a	n/a	n/a	n/a	n/a	n/a
3093866	RECOG_CONF	n/a	LTP195	ltpFR	14	3	n/a	CABIN	211	n/a	2	n/a	n/a	n/a	n/a	n/a	n/a
3095428	RECOG_TARGET	n/a	LTP195	ltpFR	14	3	-1	GIRAFFE	636	1	4	-1	n/a	n/a	n/a	n/a	n/a
3096129	RECOG_RESP	n/a	LTP195	ltpFR	14	3	-1	GIRAFFE	636	1	n/a	-1	n/a	n/a	n/a	n/a	n/a
3096700	RECOG_CONF	n/a	LTP195	ltpFR	14	3	-1	GIRAFFE	636	n/a	4	-1	n/a	n/a	n/a	n/a	n/a
3098433	RECOG_TARGET	n/a	LTP195	ltpFR	14	3	0	SCALPEL	1243	1	5	0	n/a	n/a	n/a	n/a	n/a
3099095	RECOG_RESP	n/a	LTP195	ltpFR	14	3	0	SCALPEL	1243	1	n/a	0	n/a	n/a	n/a	n/a	n/a
3099671	RECOG_CONF	n/a	LTP195	ltpFR	14	3	0	SCALPEL	1243	n/a	5	0	n/a	n/a	n/a	n/a	n/a
3101434	RECOG_TARGET	n/a	LTP195	ltpFR	14	3	-1	CRATER	400	1	4	-1	n/a	n/a	n/a	n/a	n/a
3102058	RECOG_RESP	n/a	LTP195	ltpFR	14	3	-1	CRATER	400	1	n/a	-1	n/a	n/a	n/a	n/a	n/a
3102517	RECOG_CONF	n/a	LTP195	ltpFR	14	3	-1	CRATER	400	n/a	4	-1	n/a	n/a	n/a	n/a	n/a
3104161	RECOG_TARGET	n/a	LTP195	ltpFR	14	3	0	RAISIN	1163	1	4	0	n/a	n/a	n/a	n/a	n/a
3104871	RECOG_RESP	n/a	LTP195	ltpFR	14	3	0	RAISIN	1163	1	n/a	0	n/a	n/a	n/a	n/a	n/a
3105407	RECOG_CONF	n/a	LTP195	ltpFR	14	3	0	RAISIN	1163	n/a	4	0	n/a	n/a	n/a	n/a	n/a
3107004	RECOG_LURE	n/a	LTP195	ltpFR	14	3	n/a	FOSSIL	596	0	1	n/a	n/a	n/a	n/a	n/a	n/a
3107884	RECOG_RESP	n/a	LTP195	ltpFR	14	3	n/a	FOSSIL	596	0	n/a	n/a	n/a	n/a	n/a	n/a	n/a
3108418	RECOG_CONF	n/a	LTP195	ltpFR	14	3	n/a	FOSSIL	596	n/a	1	n/a	n/a	n/a	n/a	n/a	n/a
3111983	REC_START	n/a	LTP195	ltpFR	14	4	n/a	n/a	n/a	n/a	n/a	n/a	n/a	n/a	n/a	n/a	n/a
3112040	RECOG_LURE	n/a	LTP195	ltpFR	14	4	n/a	DOORBELL	487	0	4	n/a	n/a	n/a	n/a	n/a	n/a
3112856	RECOG_RESP	n/a	LTP195	ltpFR	14	4	n/a	DOORBELL	487	0	n/a	n/a	n/a	n/a	n/a	n/a	n/a
3113372	RECOG_CONF	n/a	LTP195	ltpFR	14	4	n/a	DOORBELL	487	n/a	4	n/a	n/a	n/a	n/a	n/a	n/a
3114834	RECOG_TARGET	n/a	LTP195	ltpFR	14	4	0	CAB	209	1	4	1	n/a	n/a	n/a	n/a	n/a
3115413	RECOG_RESP	n/a	LTP195	ltpFR	14	4	0	CAB	209	1	n/a	1	n/a	n/a	n/a	n/a	n/a
3115969	RECOG_CONF	n/a	LTP195	ltpFR	14	4	0	CAB	209	n/a	4	1	n/a	n/a	n/a	n/a	n/a
3117527	RECOG_TARGET	n/a	LTP195	ltpFR	14	4	-1	SALESMAN	1225	1	5	-1	n/a	n/a	n/a	n/a	n/a
3118059	RECOG_RESP	n/a	LTP195	ltpFR	14	4	-1	SALESMAN	1225	1	n/a	-1	n/a	n/a	n/a	n/a	n/a
3118573	RECOG_CONF	n/a	LTP195	ltpFR	14	4	-1	SALESMAN	1225	n/a	5	-1	n/a	n/a	n/a	n/a	n/a
3120155	RECOG_LURE	n/a	LTP195	ltpFR	14	4	n/a	NAVIGATOR	938	0	5	n/a	n/a	n/a	n/a	n/a	n/a
3120928	RECOG_RESP	n/a	LTP195	ltpFR	14	4	n/a	NAVIGATOR	938	0	n/a	n/a	n/a	n/a	n/a	n/a	n/a
3121437	RECOG_CONF	n/a	LTP195	ltpFR	14	4	n/a	NAVIGATOR	938	n/a	5	n/a	n/a	n/a	n/a	n/a	n/a
3122964	RECOG_TARGET	n/a	LTP195	ltpFR	14	4	-1	MUSEUM	933	1	5	-1	n/a	n/a	n/a	n/a	n/a
3123567	RECOG_RESP	n/a	LTP195	ltpFR	14	4	-1	MUSEUM	933	1	n/a	-1	n/a	n/a	n/a	n/a	n/a
3124133	RECOG_CONF	n/a	LTP195	ltpFR	14	4	-1	MUSEUM	933	n/a	5	-1	n/a	n/a	n/a	n/a	n/a
3125825	RECOG_TARGET	n/a	LTP195	ltpFR	14	4	-1	LITERATURE	831	1	5	-1	n/a	n/a	n/a	n/a	n/a
3126462	RECOG_RESP	n/a	LTP195	ltpFR	14	4	-1	LITERATURE	831	1	n/a	-1	n/a	n/a	n/a	n/a	n/a
3127004	RECOG_CONF	n/a	LTP195	ltpFR	14	4	-1	LITERATURE	831	n/a	5	-1	n/a	n/a	n/a	n/a	n/a
3128585	RECOG_TARGET	n/a	LTP195	ltpFR	14	4	-1	BEETLE	116	1	5	-1	n/a	n/a	n/a	n/a	n/a
3129227	RECOG_RESP	n/a	LTP195	ltpFR	14	4	-1	BEETLE	116	1	n/a	-1	n/a	n/a	n/a	n/a	n/a
3129710	RECOG_CONF	n/a	LTP195	ltpFR	14	4	-1	BEETLE	116	n/a	5	-1	n/a	n/a	n/a	n/a	n/a
3131246	RECOG_TARGET	n/a	LTP195	ltpFR	14	4	0	STAFF	1365	1	5	1	n/a	n/a	n/a	n/a	n/a
3131913	RECOG_RESP	n/a	LTP195	ltpFR	14	4	0	STAFF	1365	1	n/a	1	n/a	n/a	n/a	n/a	n/a
3132451	RECOG_CONF	n/a	LTP195	ltpFR	14	4	0	STAFF	1365	n/a	5	1	n/a	n/a	n/a	n/a	n/a
3133972	RECOG_TARGET	n/a	LTP195	ltpFR	14	4	0	OFFICE	972	1	5	1	n/a	n/a	n/a	n/a	n/a
3134642	RECOG_RESP	n/a	LTP195	ltpFR	14	4	0	OFFICE	972	1	n/a	1	n/a	n/a	n/a	n/a	n/a
3135196	RECOG_CONF	n/a	LTP195	ltpFR	14	4	0	OFFICE	972	n/a	5	1	n/a	n/a	n/a	n/a	n/a
3136793	RECOG_TARGET	n/a	LTP195	ltpFR	14	4	0	CANDIDATE	228	1	5	0	n/a	n/a	n/a	n/a	n/a
3138287	RECOG_RESP	n/a	LTP195	ltpFR	14	4	0	CANDIDATE	228	1	n/a	0	n/a	n/a	n/a	n/a	n/a
3138887	RECOG_CONF	n/a	LTP195	ltpFR	14	4	0	CANDIDATE	228	n/a	5	0	n/a	n/a	n/a	n/a	n/a
3140364	RECOG_TARGET	n/a	LTP195	ltpFR	14	4	1	BREAST	171	1	5	0	n/a	n/a	n/a	n/a	n/a
3141033	RECOG_RESP	n/a	LTP195	ltpFR	14	4	1	BREAST	171	1	n/a	0	n/a	n/a	n/a	n/a	n/a
3141601	RECOG_CONF	n/a	LTP195	ltpFR	14	4	1	BREAST	171	n/a	5	0	n/a	n/a	n/a	n/a	n/a
3143085	RECOG_TARGET	n/a	LTP195	ltpFR	14	4	1	FOUNTAIN	597	1	5	0	n/a	n/a	n/a	n/a	n/a
3143696	RECOG_RESP	n/a	LTP195	ltpFR	14	4	1	FOUNTAIN	597	1	n/a	0	n/a	n/a	n/a	n/a	n/a
3144319	RECOG_CONF	n/a	LTP195	ltpFR	14	4	1	FOUNTAIN	597	n/a	5	0	n/a	n/a	n/a	n/a	n/a
3145700	RECOG_LURE	n/a	LTP195	ltpFR	14	4	n/a	SERPENT	1270	0	4	n/a	n/a	n/a	n/a	n/a	n/a
3146369	RECOG_RESP	n/a	LTP195	ltpFR	14	4	n/a	SERPENT	1270	0	n/a	n/a	n/a	n/a	n/a	n/a	n/a
3146884	RECOG_CONF	n/a	LTP195	ltpFR	14	4	n/a	SERPENT	1270	n/a	4	n/a	n/a	n/a	n/a	n/a	n/a
3148555	RECOG_TARGET	n/a	LTP195	ltpFR	14	4	-1	EYE	545	1	4	-1	n/a	n/a	n/a	n/a	n/a
3149203	RECOG_RESP	n/a	LTP195	ltpFR	14	4	-1	EYE	545	1	n/a	-1	n/a	n/a	n/a	n/a	n/a
3149752	RECOG_CONF	n/a	LTP195	ltpFR	14	4	-1	EYE	545	n/a	4	-1	n/a	n/a	n/a	n/a	n/a
3151188	RECOG_TARGET	n/a	LTP195	ltpFR	14	4	1	NOTE	958	1	4	0	n/a	n/a	n/a	n/a	n/a
3151945	RECOG_RESP	n/a	LTP195	ltpFR	14	4	1	NOTE	958	1	n/a	0	n/a	n/a	n/a	n/a	n/a
3152436	RECOG_CONF	n/a	LTP195	ltpFR	14	4	1	NOTE	958	n/a	4	0	n/a	n/a	n/a	n/a	n/a
3153964	RECOG_TARGET	n/a	LTP195	ltpFR	14	4	0	INVENTOR	743	1	5	1	n/a	n/a	n/a	n/a	n/a
3154525	RECOG_RESP	n/a	LTP195	ltpFR	14	4	0	INVENTOR	743	1	n/a	1	n/a	n/a	n/a	n/a	n/a
3155050	RECOG_CONF	n/a	LTP195	ltpFR	14	4	0	INVENTOR	743	n/a	5	1	n/a	n/a	n/a	n/a	n/a
3156608	RECOG_TARGET	n/a	LTP195	ltpFR	14	4	-1	FREEZER	604	1	5	-1	n/a	n/a	n/a	n/a	n/a
3157418	RECOG_RESP	n/a	LTP195	ltpFR	14	4	-1	FREEZER	604	1	n/a	-1	n/a	n/a	n/a	n/a	n/a
3157933	RECOG_CONF	n/a	LTP195	ltpFR	14	4	-1	FREEZER	604	n/a	5	-1	n/a	n/a	n/a	n/a	n/a
3159496	RECOG_TARGET	n/a	LTP195	ltpFR	14	4	0	EXPERT	543	1	5	0	n/a	n/a	n/a	n/a	n/a
3160046	RECOG_RESP	n/a	LTP195	ltpFR	14	4	0	EXPERT	543	1	n/a	0	n/a	n/a	n/a	n/a	n/a
3160669	RECOG_CONF	n/a	LTP195	ltpFR	14	4	0	EXPERT	543	n/a	5	0	n/a	n/a	n/a	n/a	n/a
3162240	RECOG_TARGET	n/a	LTP195	ltpFR	14	4	1	LION	827	1	5	1	n/a	n/a	n/a	n/a	n/a
3162808	RECOG_RESP	n/a	LTP195	ltpFR	14	4	1	LION	827	1	n/a	1	n/a	n/a	n/a	n/a	n/a
3163321	RECOG_CONF	n/a	LTP195	ltpFR	14	4	1	LION	827	n/a	5	1	n/a	n/a	n/a	n/a	n/a
3164889	RECOG_TARGET	n/a	LTP195	ltpFR	14	4	0	GRASSHOPPER	656	1	1	0	n/a	n/a	n/a	n/a	n/a
3165667	RECOG_RESP	n/a	LTP195	ltpFR	14	4	0	GRASSHOPPER	656	1	n/a	0	n/a	n/a	n/a	n/a	n/a
3166175	RECOG_CONF	n/a	LTP195	ltpFR	14	4	0	GRASSHOPPER	656	n/a	1	0	n/a	n/a	n/a	n/a	n/a
3176873	REC_START	n/a	LTP195	ltpFR	14	5	n/a	n/a	n/a	n/a	n/a	n/a	n/a	n/a	n/a	n/a	n/a
3176918	RECOG_TARGET	n/a	LTP195	ltpFR	14	5	1	COAL	332	1	5	0	n/a	n/a	n/a	n/a	n/a
3177595	RECOG_RESP	n/a	LTP195	ltpFR	14	5	1	COAL	332	1	n/a	0	n/a	n/a	n/a	n/a	n/a
3178095	RECOG_CONF	n/a	LTP195	ltpFR	14	5	1	COAL	332	n/a	5	0	n/a	n/a	n/a	n/a	n/a
3179705	RECOG_TARGET	n/a	LTP195	ltpFR	14	5	0	TEMPLE	1448	1	5	1	n/a	n/a	n/a	n/a	n/a
3180317	RECOG_RESP	n/a	LTP195	ltpFR	14	5	0	TEMPLE	1448	1	n/a	1	n/a	n/a	n/a	n/a	n/a
3180809	RECOG_CONF	n/a	LTP195	ltpFR	14	5	0	TEMPLE	1448	n/a	5	1	n/a	n/a	n/a	n/a	n/a
3182572	RECOG_TARGET	n/a	LTP195	ltpFR	14	5	0	TUSK	1523	1	5	0	n/a	n/a	n/a	n/a	n/a
3183176	RECOG_RESP	n/a	LTP195	ltpFR	14	5	0	TUSK	1523	1	n/a	0	n/a	n/a	n/a	n/a	n/a
3183652	RECOG_CONF	n/a	LTP195	ltpFR	14	5	0	TUSK	1523	n/a	5	0	n/a	n/a	n/a	n/a	n/a
3185260	RECOG_LURE	n/a	LTP195	ltpFR	14	5	n/a	ANCESTOR	20	0	4	n/a	n/a	n/a	n/a	n/a	n/a
3186081	RECOG_RESP	n/a	LTP195	ltpFR	14	5	n/a	ANCESTOR	20	0	n/a	n/a	n/a	n/a	n/a	n/a	n/a
3186456	RECOG_CONF	n/a	LTP195	ltpFR	14	5	n/a	ANCESTOR	20	n/a	4	n/a	n/a	n/a	n/a	n/a	n/a
3188043	RECOG_TARGET	n/a	LTP195	ltpFR	14	5	-1	OATS	968	1	5	-1	n/a	n/a	n/a	n/a	n/a
3188655	RECOG_RESP	n/a	LTP195	ltpFR	14	5	-1	OATS	968	1	n/a	-1	n/a	n/a	n/a	n/a	n/a
3189240	RECOG_CONF	n/a	LTP195	ltpFR	14	5	-1	OATS	968	n/a	5	-1	n/a	n/a	n/a	n/a	n/a
3190686	RECOG_LURE	n/a	LTP195	ltpFR	14	5	n/a	ASSOCIATE	49	0	4	n/a	n/a	n/a	n/a	n/a	n/a
3191468	RECOG_RESP	n/a	LTP195	ltpFR	14	5	n/a	ASSOCIATE	49	0	n/a	n/a	n/a	n/a	n/a	n/a	n/a
3191983	RECOG_CONF	n/a	LTP195	ltpFR	14	5	n/a	ASSOCIATE	49	n/a	4	n/a	n/a	n/a	n/a	n/a	n/a
3193441	RECOG_TARGET	n/a	LTP195	ltpFR	14	5	0	ACTRESS	6	1	5	1	n/a	n/a	n/a	n/a	n/a
3194159	RECOG_RESP	n/a	LTP195	ltpFR	14	5	0	ACTRESS	6	1	n/a	1	n/a	n/a	n/a	n/a	n/a
3194896	RECOG_CONF	n/a	LTP195	ltpFR	14	5	0	ACTRESS	6	n/a	5	1	n/a	n/a	n/a	n/a	n/a
3196491	RECOG_TARGET	n/a	LTP195	ltpFR	14	5	0	GOWN	652	1	5	0	n/a	n/a	n/a	n/a	n/a
3197049	RECOG_RESP	n/a	LTP195	ltpFR	14	5	0	GOWN	652	1	n/a	0	n/a	n/a	n/a	n/a	n/a
3197721	RECOG_CONF	n/a	LTP195	ltpFR	14	5	0	GOWN	652	n/a	5	0	n/a	n/a	n/a	n/a	n/a
3199387	RECOG_LURE	n/a	LTP195	ltpFR	14	5	n/a	CAR	241	0	4	n/a	n/a	n/a	n/a	n/a	n/a
3200516	RECOG_RESP	n/a	LTP195	ltpFR	14	5	n/a	CAR	241	0	n/a	n/a	n/a	n/a	n/a	n/a	n/a
3201063	RECOG_CONF	n/a	LTP195	ltpFR	14	5	n/a	CAR	241	n/a	4	n/a	n/a	n/a	n/a	n/a	n/a
3202598	RECOG_TARGET	n/a	LTP195	ltpFR	14	5	0	WAVE	1596	1	5	0	n/a	n/a	n/a	n/a	n/a
3203201	RECOG_RESP	n/a	LTP195	ltpFR	14	5	0	WAVE	1596	1	n/a	0	n/a	n/a	n/a	n/a	n/a
3203837	RECOG_CONF	n/a	LTP195	ltpFR	14	5	0	WAVE	1596	n/a	5	0	n/a	n/a	n/a	n/a	n/a
3205309	RECOG_TARGET	n/a	LTP195	ltpFR	14	5	0	STREAM	1392	1	5	1	n/a	n/a	n/a	n/a	n/a
3205897	RECOG_RESP	n/a	LTP195	ltpFR	14	5	0	STREAM	1392	1	n/a	1	n/a	n/a	n/a	n/a	n/a
3206570	RECOG_CONF	n/a	LTP195	ltpFR	14	5	0	STREAM	1392	n/a	5	1	n/a	n/a	n/a	n/a	n/a
3207951	RECOG_LURE	n/a	LTP195	ltpFR	14	5	n/a	TIMBER	1469	0	4	n/a	n/a	n/a	n/a	n/a	n/a
3209055	RECOG_RESP	n/a	LTP195	ltpFR	14	5	n/a	TIMBER	1469	0	n/a	n/a	n/a	n/a	n/a	n/a	n/a
3209825	RECOG_CONF	n/a	LTP195	ltpFR	14	5	n/a	TIMBER	1469	n/a	4	n/a	n/a	n/a	n/a	n/a	n/a
3211365	RECOG_TARGET	n/a	LTP195	ltpFR	14	5	1	BARK	87	1	5	0	n/a	n/a	n/a	n/a	n/a
3212485	RECOG_RESP	n/a	LTP195	ltpFR	14	5	1	BARK	87	1	n/a	0	n/a	n/a	n/a	n/a	n/a
3213086	RECOG_CONF	n/a	LTP195	ltpFR	14	5	1	BARK	87	n/a	5	0	n/a	n/a	n/a	n/a	n/a
3214493	RECOG_TARGET	n/a	LTP195	ltpFR	14	5	0	OCTOPUS	971	1	4	1	n/a	n/a	n/a	n/a	n/a
3215146	RECOG_RESP	n/a	LTP195	ltpFR	14	5	0	OCTOPUS	971	1	n/a	1	n/a	n/a	n/a	n/a	n/a
3215700	RECOG_CONF	n/a	LTP195	ltpFR	14	5	0	OCTOPUS	971	n/a	4	1	n/a	n/a	n/a	n/a	n/a
3217287	RECOG_TARGET	n/a	LTP195	ltpFR	14	5	1	ORCHID	982	1	4	1	n/a	n/a	n/a	n/a	n/a
3217916	RECOG_RESP	n/a	LTP195	ltpFR	14	5	1	ORCHID	982	1	n/a	1	n/a	n/a	n/a	n/a	n/a
3218520	RECOG_CONF	n/a	LTP195	ltpFR	14	5	1	ORCHID	982	n/a	4	1	n/a	n/a	n/a	n/a	n/a
3219980	RECOG_TARGET	n/a	LTP195	ltpFR	14	5	1	CHAIN	273	1	4	0	n/a	n/a	n/a	n/a	n/a
3220578	RECOG_RESP	n/a	LTP195	ltpFR	14	5	1	CHAIN	273	1	n/a	0	n/a	n/a	n/a	n/a	n/a
3221167	RECOG_CONF	n/a	LTP195	ltpFR	14	5	1	CHAIN	273	n/a	4	0	n/a	n/a	n/a	n/a	n/a
3222707	RECOG_TARGET	n/a	LTP195	ltpFR	14	5	1	JUG	762	1	5	0	n/a	n/a	n/a	n/a	n/a
3223290	RECOG_RESP	n/a	LTP195	ltpFR	14	5	1	JUG	762	1	n/a	0	n/a	n/a	n/a	n/a	n/a
3223926	RECOG_CONF	n/a	LTP195	ltpFR	14	5	1	JUG	762	n/a	5	0	n/a	n/a	n/a	n/a	n/a
3225762	RECOG_TARGET	n/a	LTP195	ltpFR	14	5	0	WITNESS	1618	1	5	1	n/a	n/a	n/a	n/a	n/a
3226380	RECOG_RESP	n/a	LTP195	ltpFR	14	5	0	WITNESS	1618	1	n/a	1	n/a	n/a	n/a	n/a	n/a
3227004	RECOG_CONF	n/a	LTP195	ltpFR	14	5	0	WITNESS	1618	n/a	5	1	n/a	n/a	n/a	n/a	n/a
3228479	RECOG_TARGET	n/a	LTP195	ltpFR	14	5	1	ROOSTER	1209	1	5	1	n/a	n/a	n/a	n/a	n/a
3228994	RECOG_RESP	n/a	LTP195	ltpFR	14	5	1	ROOSTER	1209	1	n/a	1	n/a	n/a	n/a	n/a	n/a
3229738	RECOG_CONF	n/a	LTP195	ltpFR	14	5	1	ROOSTER	1209	n/a	5	1	n/a	n/a	n/a	n/a	n/a
3231324	RECOG_TARGET	n/a	LTP195	ltpFR	14	5	1	SCRIBBLE	1256	1	5	0	n/a	n/a	n/a	n/a	n/a
3232064	RECOG_RESP	n/a	LTP195	ltpFR	14	5	1	SCRIBBLE	1256	1	n/a	0	n/a	n/a	n/a	n/a	n/a
3232551	RECOG_CONF	n/a	LTP195	ltpFR	14	5	1	SCRIBBLE	1256	n/a	5	0	n/a	n/a	n/a	n/a	n/a
3236215	REC_START	n/a	LTP195	ltpFR	14	6	n/a	n/a	n/a	n/a	n/a	n/a	n/a	n/a	n/a	n/a	n/a
3236269	RECOG_LURE	n/a	LTP195	ltpFR	14	6	n/a	CAPTIVE	240	0	4	n/a	n/a	n/a	n/a	n/a	n/a
3237007	RECOG_RESP	n/a	LTP195	ltpFR	14	6	n/a	CAPTIVE	240	0	n/a	n/a	n/a	n/a	n/a	n/a	n/a
3237467	RECOG_CONF	n/a	LTP195	ltpFR	14	6	n/a	CAPTIVE	240	n/a	4	n/a	n/a	n/a	n/a	n/a	n/a
3239113	RECOG_TARGET	n/a	LTP195	ltpFR	14	6	1	NOSE	957	1	4	0	n/a	n/a	n/a	n/a	n/a
3239777	RECOG_RESP	n/a	LTP195	ltpFR	14	6	1	NOSE	957	1	n/a	0	n/a	n/a	n/a	n/a	n/a
3240256	RECOG_CONF	n/a	LTP195	ltpFR	14	6	1	NOSE	957	n/a	4	0	n/a	n/a	n/a	n/a	n/a
3241806	RECOG_TARGET	n/a	LTP195	ltpFR	14	6	0	REFEREE	1178	1	4	0	n/a	n/a	n/a	n/a	n/a
3242440	RECOG_RESP	n/a	LTP195	ltpFR	14	6	0	REFEREE	1178	1	n/a	0	n/a	n/a	n/a	n/a	n/a
3242925	RECOG_CONF	n/a	LTP195	ltpFR	14	6	0	REFEREE	1178	n/a	4	0	n/a	n/a	n/a	n/a	n/a
3244539	RECOG_TARGET	n/a	LTP195	ltpFR	14	6	1	CONDUCTOR	362	1	5	1	n/a	n/a	n/a	n/a	n/a
3245134	RECOG_RESP	n/a	LTP195	ltpFR	14	6	1	CONDUCTOR	362	1	n/a	1	n/a	n/a	n/a	n/a	n/a
3245618	RECOG_CONF	n/a	LTP195	ltpFR	14	6	1	CONDUCTOR	362	n/a	5	1	n/a	n/a	n/a	n/a	n/a
3247250	RECOG_TARGET	n/a	LTP195	ltpFR	14	6	0	HORSE	719	1	5	1	n/a	n/a	n/a	n/a	n/a
3247907	RECOG_RESP	n/a	LTP195	ltpFR	14	6	0	HORSE	719	1	n/a	1	n/a	n/a	n/a	n/a	n/a
3248522	RECOG_CONF	n/a	LTP195	ltpFR	14	6	0	HORSE	719	n/a	5	1	n/a	n/a	n/a	n/a	n/a
3250128	RECOG_TARGET	n/a	LTP195	ltpFR	14	6	0	VISITOR	1573	1	5	0	n/a	n/a	n/a	n/a	n/a
3250927	RECOG_RESP	n/a	LTP195	ltpFR	14	6	0	VISITOR	1573	1	n/a	0	n/a	n/a	n/a	n/a	n/a
3251635	RECOG_CONF	n/a	LTP195	ltpFR	14	6	0	VISITOR	1573	n/a	5	0	n/a	n/a	n/a	n/a	n/a
3253032	RECOG_TARGET	n/a	LTP195	ltpFR	14	6	-1	SURF	1412	1	5	-1	n/a	n/a	n/a	n/a	n/a
3253466	RECOG_RESP	n/a	LTP195	ltpFR	14	6	-1	SURF	1412	1	n/a	-1	n/a	n/a	n/a	n/a	n/a
3254049	RECOG_CONF	n/a	LTP195	ltpFR	14	6	-1	SURF	1412	n/a	5	-1	n/a	n/a	n/a	n/a	n/a
3255664	RECOG_LURE	n/a	LTP195	ltpFR	14	6	n/a	MUMMY	932	0	5	n/a	n/a	n/a	n/a	n/a	n/a
3256371	RECOG_RESP	n/a	LTP195	ltpFR	14	6	n/a	MUMMY	932	0	n/a	n/a	n/a	n/a	n/a	n/a	n/a
3257121	RECOG_CONF	n/a	LTP195	ltpFR	14	6	n/a	MUMMY	932	n/a	5	n/a	n/a	n/a	n/a	n/a	n/a
3258743	RECOG_TARGET	n/a	LTP195	ltpFR	14	6	1	BLOSSOM	138	1	5	1	n/a	n/a	n/a	n/a	n/a
3259344	RECOG_RESP	n/a	LTP195	ltpFR	14	6	1	BLOSSOM	138	1	n/a	1	n/a	n/a	n/a	n/a	n/a
3260035	RECOG_CONF	n/a	LTP195	ltpFR	14	6	1	BLOSSOM	138	n/a	5	1	n/a	n/a	n/a	n/a	n/a
3261882	RECOG_TARGET	n/a	LTP195	ltpFR	14	6	0	BRAKE	166	1	4	0	n/a	n/a	n/a	n/a	n/a
3262566	RECOG_RESP	n/a	LTP195	ltpFR	14	6	0	BRAKE	166	1	n/a	0	n/a	n/a	n/a	n/a	n/a
3263129	RECOG_CONF	n/a	LTP195	ltpFR	14	6	0	BRAKE	166	n/a	4	0	n/a	n/a	n/a	n/a	n/a
3264765	RECOG_TARGET	n/a	LTP195	ltpFR	14	6	1	PANTHER	1009	1	4	1	n/a	n/a	n/a	n/a	n/a
3265461	RECOG_RESP	n/a	LTP195	ltpFR	14	6	1	PANTHER	1009	1	n/a	1	n/a	n/a	n/a	n/a	n/a
3266002	RECOG_CONF	n/a	LTP195	ltpFR	14	6	1	PANTHER	1009	n/a	4	1	n/a	n/a	n/a	n/a	n/a
3267559	RECOG_TARGET	n/a	LTP195	ltpFR	14	6	0	DOLPHIN	483	1	5	1	n/a	n/a	n/a	n/a	n/a
3269388	RECOG_RESP	n/a	LTP195	ltpFR	14	6	0	DOLPHIN	483	1	n/a	1	n/a	n/a	n/a	n/a	n/a
3269953	RECOG_CONF	n/a	LTP195	ltpFR	14	6	0	DOLPHIN	483	n/a	5	1	n/a	n/a	n/a	n/a	n/a
3271408	RECOG_TARGET	n/a	LTP195	ltpFR	14	6	1	TICKET	1464	1	5	0	n/a	n/a	n/a	n/a	n/a
3272808	RECOG_RESP	n/a	LTP195	ltpFR	14	6	1	TICKET	1464	1	n/a	0	n/a	n/a	n/a	n/a	n/a
3273405	RECOG_CONF	n/a	LTP195	ltpFR	14	6	1	TICKET	1464	n/a	5	0	n/a	n/a	n/a	n/a	n/a
3274970	RECOG_TARGET	n/a	LTP195	ltpFR	14	6	-1	TYPEWRITER	1531	1	5	-1	n/a	n/a	n/a	n/a	n/a
3275564	RECOG_RESP	n/a	LTP195	ltpFR	14	6	-1	TYPEWRITER	1531	1	n/a	-1	n/a	n/a	n/a	n/a	n/a
3276069	RECOG_CONF	n/a	LTP195	ltpFR	14	6	-1	TYPEWRITER	1531	n/a	5	-1	n/a	n/a	n/a	n/a	n/a
3277631	RECOG_TARGET	n/a	LTP195	ltpFR	14	6	-1	DIME	466	1	5	-1	n/a	n/a	n/a	n/a	n/a
3278199	RECOG_RESP	n/a	LTP195	ltpFR	14	6	-1	DIME	466	1	n/a	-1	n/a	n/a	n/a	n/a	n/a
3278743	RECOG_CONF	n/a	LTP195	ltpFR	14	6	-1	DIME	466	n/a	5	-1	n/a	n/a	n/a	n/a	n/a
3280275	RECOG_TARGET	n/a	LTP195	ltpFR	14	6	1	TAIL	1430	1	5	0	n/a	n/a	n/a	n/a	n/a
3280777	RECOG_RESP	n/a	LTP195	ltpFR	14	6	1	TAIL	1430	1	n/a	0	n/a	n/a	n/a	n/a	n/a
3281397	RECOG_CONF	n/a	LTP195	ltpFR	14	6	1	TAIL	1430	n/a	5	0	n/a	n/a	n/a	n/a	n/a
3282894	RECOG_TARGET	n/a	LTP195	ltpFR	14	6	-1	BEAR	106	1	5	-1	n/a	n/a	n/a	n/a	n/a
3284059	RECOG_RESP	n/a	LTP195	ltpFR	14	6	-1	BEAR	106	1	n/a	-1	n/a	n/a	n/a	n/a	n/a
3284630	RECOG_CONF	n/a	LTP195	ltpFR	14	6	-1	BEAR	106	n/a	5	-1	n/a	n/a	n/a	n/a	n/a
3286197	RECOG_TARGET	n/a	LTP195	ltpFR	14	6	0	COURT	391	1	5	1	n/a	n/a	n/a	n/a	n/a
3286772	RECOG_RESP	n/a	LTP195	ltpFR	14	6	0	COURT	391	1	n/a	1	n/a	n/a	n/a	n/a	n/a
3287293	RECOG_CONF	n/a	LTP195	ltpFR	14	6	0	COURT	391	n/a	5	1	n/a	n/a	n/a	n/a	n/a
3288973	RECOG_TARGET	n/a	LTP195	ltpFR	14	6	0	TOE	1473	1	5	0	n/a	n/a	n/a	n/a	n/a
3289597	RECOG_RESP	n/a	LTP195	ltpFR	14	6	0	TOE	1473	1	n/a	0	n/a	n/a	n/a	n/a	n/a
3290147	RECOG_CONF	n/a	LTP195	ltpFR	14	6	0	TOE	1473	n/a	5	0	n/a	n/a	n/a	n/a	n/a
3291694	RECOG_TARGET	n/a	LTP195	ltpFR	14	6	0	CUE	422	1	5	0	n/a	n/a	n/a	n/a	n/a
3292293	RECOG_RESP	n/a	LTP195	ltpFR	14	6	0	CUE	422	1	n/a	0	n/a	n/a	n/a	n/a	n/a
3292986	RECOG_CONF	n/a	LTP195	ltpFR	14	6	0	CUE	422	n/a	5	0	n/a	n/a	n/a	n/a	n/a
3296286	REC_START	n/a	LTP195	ltpFR	14	7	n/a	n/a	n/a	n/a	n/a	n/a	n/a	n/a	n/a	n/a	n/a
3296335	RECOG_TARGET	n/a	LTP195	ltpFR	14	7	1	FOLLOWER	589	1	5	1	n/a	n/a	n/a	n/a	n/a
3297038	RECOG_RESP	n/a	LTP195	ltpFR	14	7	1	FOLLOWER	589	1	n/a	1	n/a	n/a	n/a	n/a	n/a
3297588	RECOG_CONF	n/a	LTP195	ltpFR	14	7	1	FOLLOWER	589	n/a	5	1	n/a	n/a	n/a	n/a	n/a
3299206	RECOG_TARGET	n/a	LTP195	ltpFR	14	7	1	CASHIER	254	1	5	0	n/a	n/a	n/a	n/a	n/a
3299898	RECOG_RESP	n/a	LTP195	ltpFR	14	7	1	CASHIER	254	1	n/a	0	n/a	n/a	n/a	n/a	n/a
3300401	RECOG_CONF	n/a	LTP195	ltpFR	14	7	1	CASHIER	254	n/a	5	0	n/a	n/a	n/a	n/a	n/a
3301916	RECOG_TARGET	n/a	LTP195	ltpFR	14	7	0	DOOR	486	1	5	0	n/a	n/a	n/a	n/a	n/a
3305325	RECOG_RESP	n/a	LTP195	ltpFR	14	7	0	DOOR	486	1	n/a	0	n/a	n/a	n/a	n/a	n/a
3305889	RECOG_CONF	n/a	LTP195	ltpFR	14	7	0	DOOR	486	n/a	5	0	n/a	n/a	n/a	n/a	n/a
3307453	RECOG_TARGET	n/a	LTP195	ltpFR	14	7	0	LOOP	844	1	5	0	n/a	n/a	n/a	n/a	n/a
3308082	RECOG_RESP	n/a	LTP195	ltpFR	14	7	0	LOOP	844	1	n/a	0	n/a	n/a	n/a	n/a	n/a
3308743	RECOG_CONF	n/a	LTP195	ltpFR	14	7	0	LOOP	844	n/a	5	0	n/a	n/a	n/a	n/a	n/a
3310288	RECOG_LURE	n/a	LTP195	ltpFR	14	7	n/a	SHACK	1273	0	4	n/a	n/a	n/a	n/a	n/a	n/a
3311054	RECOG_RESP	n/a	LTP195	ltpFR	14	7	n/a	SHACK	1273	0	n/a	n/a	n/a	n/a	n/a	n/a	n/a
3311525	RECOG_CONF	n/a	LTP195	ltpFR	14	7	n/a	SHACK	1273	n/a	4	n/a	n/a	n/a	n/a	n/a	n/a
