mstime	trial_type	stim_file	subject	experiment	session	trial	task	item_name	item_num	recog_resp	recog_conf	resp	color_r	color_g	color_b	case	font
0	SESS_START	n/a	LTP074	ltpFR	4	n/a	n/a	n/a	n/a	0	n/a	n/a	n/a	n/a	n/a	n/a	n/a
75747	WORD	wordpools/wasnorm_wordpool.txt	LTP074	ltpFR	4	1	1	WITNESS	1618	n/a	n/a	1	0.57763671875	0.412841796875	1	upper	amplitud.ttf
79620	WORD	wordpools/wasnorm_wordpool.txt	LTP074	ltpFR	4	1	1	MAMMAL	861	n/a	n/a	1	0.57763671875	0.412841796875	1	upper	amplitud.ttf
83453	WORD	wordpools/wasnorm_wordpool.txt	LTP074	ltpFR	4	1	1	NEWSSTAND	949	n/a	n/a	0	0.57763671875	0.412841796875	1	upper	amplitud.ttf
87587	WORD	wordpools/wasnorm_wordpool.txt	LTP074	ltpFR	4	1	1	NOTEBOOK	959	n/a	n/a	0	0.57763671875	0.412841796875	1	upper	amplitud.ttf
91470	WORD	wordpools/wasnorm_wordpool.txt	LTP074	ltpFR	4	1	0	WORKER	1621	n/a	n/a	1	0.422607421875	0.5869140625	0	lower	zerothre.ttf
95653	WORD	wordpools/wasnorm_wordpool.txt	LTP074	ltpFR	4	1	0	DOUGHNUT	490	n/a	n/a	0	0.422607421875	0.5869140625	0	lower	zerothre.ttf
99852	WORD	wordpools/wasnorm_wordpool.txt	LTP074	ltpFR	4	1	0	STETHOSCOPE	1379	n/a	n/a	0	0.422607421875	0.5869140625	0	lower	zerothre.ttf
103761	WORD	wordpools/wasnorm_wordpool.txt	LTP074	ltpFR	4	1	0	SIDING	1304	n/a	n/a	1	0.422607421875	0.5869140625	0	lower	zerothre.ttf
107685	WORD	wordpools/wasnorm_wordpool.txt	LTP074	ltpFR	4	1	1	SKYSCRAPER	1322	n/a	n/a	0	0.57763671875	0.412841796875	1	upper	amplitud.ttf
111543	WORD	wordpools/wasnorm_wordpool.txt	LTP074	ltpFR	4	1	1	DORM	488	n/a	n/a	0	0.57763671875	0.412841796875	1	upper	amplitud.ttf
115744	WORD	wordpools/wasnorm_wordpool.txt	LTP074	ltpFR	4	1	0	TYPIST	1532	n/a	n/a	1	0.422607421875	0.5869140625	0	lower	zerothre.ttf
119601	WORD	wordpools/wasnorm_wordpool.txt	LTP074	ltpFR	4	1	0	QUARTER	1148	n/a	n/a	0	0.422607421875	0.5869140625	0	lower	zerothre.ttf
123684	WORD	wordpools/wasnorm_wordpool.txt	LTP074	ltpFR	4	1	0	REGISTER	1180	n/a	n/a	0	0.422607421875	0.5869140625	0	lower	zerothre.ttf
127567	WORD	wordpools/wasnorm_wordpool.txt	LTP074	ltpFR	4	1	0	SHRIMP	1297	n/a	n/a	0	0.422607421875	0.5869140625	0	lower	zerothre.ttf
131600	WORD	wordpools/wasnorm_wordpool.txt	LTP074	ltpFR	4	1	1	SEAFOOD	1260	n/a	n/a	0	0.57763671875	0.412841796875	1	upper	amplitud.ttf
135776	WORD	wordpools/wasnorm_wordpool.txt	LTP074	ltpFR	4	1	1	DOCTOR	478	n/a	n/a	1	0.57763671875	0.412841796875	1	upper	amplitud.ttf
141625	REC_START	n/a	LTP074	ltpFR	4	1	n/a	n/a	n/a	n/a	n/a	n/a	n/a	n/a	n/a	n/a	n/a
142089	REC_WORD	wordpools/wasnorm_wordpool.txt	LTP074	ltpFR	4	1	0	SHRIMP	1297	n/a	n/a	0	n/a	n/a	n/a	n/a	n/a
142927	REC_WORD	wordpools/wasnorm_wordpool.txt	LTP074	ltpFR	4	1	1	SEAFOOD	1260	n/a	n/a	0	n/a	n/a	n/a	n/a	n/a
144498	REC_WORD	wordpools/wasnorm_wordpool.txt	LTP074	ltpFR	4	1	0	REGISTER	1180	n/a	n/a	0	n/a	n/a	n/a	n/a	n/a
145681	REC_WORD	wordpools/wasnorm_wordpool.txt	LTP074	ltpFR	4	1	1	DOCTOR	478	n/a	n/a	1	n/a	n/a	n/a	n/a	n/a
148155	REC_WORD	wordpools/wasnorm_wordpool.txt	LTP074	ltpFR	4	1	0	STETHOSCOPE	1379	n/a	n/a	0	n/a	n/a	n/a	n/a	n/a
150175	REC_WORD	wordpools/wasnorm_wordpool.txt	LTP074	ltpFR	4	1	0	SIDING	1304	n/a	n/a	1	n/a	n/a	n/a	n/a	n/a
151332	REC_WORD	wordpools/wasnorm_wordpool.txt	LTP074	ltpFR	4	1	1	SKYSCRAPER	1322	n/a	n/a	0	n/a	n/a	n/a	n/a	n/a
153074	REC_WORD	wordpools/wasnorm_wordpool.txt	LTP074	ltpFR	4	1	1	MAMMAL	861	n/a	n/a	1	n/a	n/a	n/a	n/a	n/a
153947	REC_WORD	wordpools/wasnorm_wordpool.txt	LTP074	ltpFR	4	1	1	NEWSSTAND	949	n/a	n/a	0	n/a	n/a	n/a	n/a	n/a
156616	REC_WORD	wordpools/wasnorm_wordpool.txt	LTP074	ltpFR	4	1	1	WITNESS	1618	n/a	n/a	1	n/a	n/a	n/a	n/a	n/a
170893	REC_WORD	wordpools/wasnorm_wordpool.txt	LTP074	ltpFR	4	1	1	NOTEBOOK	959	n/a	n/a	0	n/a	n/a	n/a	n/a	n/a
171746	REC_WORD	wordpools/wasnorm_wordpool.txt	LTP074	ltpFR	4	1	0	WORKER	1621	n/a	n/a	1	n/a	n/a	n/a	n/a	n/a
174006	REC_WORD	wordpools/wasnorm_wordpool.txt	LTP074	ltpFR	4	1	0	DOUGHNUT	490	n/a	n/a	0	n/a	n/a	n/a	n/a	n/a
222385	WORD	wordpools/wasnorm_wordpool.txt	LTP074	ltpFR	4	2	0	SKETCH	1315	n/a	n/a	0	0.422607421875	0.5869140625	0	lower	zerothre.ttf
226585	WORD	wordpools/wasnorm_wordpool.txt	LTP074	ltpFR	4	2	0	PLUM	1090	n/a	n/a	0	0.422607421875	0.5869140625	0	lower	zerothre.ttf
230794	WORD	wordpools/wasnorm_wordpool.txt	LTP074	ltpFR	4	2	1	LEMON	810	n/a	n/a	0	0.57763671875	0.412841796875	1	upper	amplitud.ttf
234984	WORD	wordpools/wasnorm_wordpool.txt	LTP074	ltpFR	4	2	1	BRACES	164	n/a	n/a	0	0.57763671875	0.412841796875	1	upper	amplitud.ttf
239051	WORD	wordpools/wasnorm_wordpool.txt	LTP074	ltpFR	4	2	1	GOBLIN	645	n/a	n/a	1	0.57763671875	0.412841796875	1	upper	amplitud.ttf
243084	WORD	wordpools/wasnorm_wordpool.txt	LTP074	ltpFR	4	2	1	LOBBY	836	n/a	n/a	0	0.57763671875	0.412841796875	1	upper	amplitud.ttf
247200	WORD	wordpools/wasnorm_wordpool.txt	LTP074	ltpFR	4	2	1	NAIL	936	n/a	n/a	0	0.57763671875	0.412841796875	1	upper	amplitud.ttf
251258	WORD	wordpools/wasnorm_wordpool.txt	LTP074	ltpFR	4	2	1	ARCHITECT	36	n/a	n/a	1	0.57763671875	0.412841796875	1	upper	amplitud.ttf
255116	WORD	wordpools/wasnorm_wordpool.txt	LTP074	ltpFR	4	2	0	BOOT	150	n/a	n/a	0	0.422607421875	0.5869140625	0	lower	zerothre.ttf
259016	WORD	wordpools/wasnorm_wordpool.txt	LTP074	ltpFR	4	2	0	SICKLE	1302	n/a	n/a	1	0.422607421875	0.5869140625	0	lower	zerothre.ttf
263116	WORD	wordpools/wasnorm_wordpool.txt	LTP074	ltpFR	4	2	0	TOOTHPASTE	1483	n/a	n/a	0	0.422607421875	0.5869140625	0	lower	zerothre.ttf
267074	WORD	wordpools/wasnorm_wordpool.txt	LTP074	ltpFR	4	2	0	GLOVE	642	n/a	n/a	0	0.422607421875	0.5869140625	0	lower	zerothre.ttf
270982	WORD	wordpools/wasnorm_wordpool.txt	LTP074	ltpFR	4	2	1	PIGEON	1065	n/a	n/a	1	0.57763671875	0.412841796875	1	upper	amplitud.ttf
275165	WORD	wordpools/wasnorm_wordpool.txt	LTP074	ltpFR	4	2	1	HAWK	692	n/a	n/a	1	0.57763671875	0.412841796875	1	upper	amplitud.ttf
279289	WORD	wordpools/wasnorm_wordpool.txt	LTP074	ltpFR	4	2	0	PERSONNEL	1053	n/a	n/a	1	0.422607421875	0.5869140625	0	lower	zerothre.ttf
283272	WORD	wordpools/wasnorm_wordpool.txt	LTP074	ltpFR	4	2	0	SOCIETY	1338	n/a	n/a	1	0.422607421875	0.5869140625	0	lower	zerothre.ttf
289281	REC_START	n/a	LTP074	ltpFR	4	2	n/a	n/a	n/a	n/a	n/a	n/a	n/a	n/a	n/a	n/a	n/a
289934	REC_WORD	wordpools/wasnorm_wordpool.txt	LTP074	ltpFR	4	2	1	PIGEON	1065	n/a	n/a	1	n/a	n/a	n/a	n/a	n/a
290662	REC_WORD	wordpools/wasnorm_wordpool.txt	LTP074	ltpFR	4	2	1	HAWK	692	n/a	n/a	1	n/a	n/a	n/a	n/a	n/a
291441	REC_WORD	wordpools/wasnorm_wordpool.txt	LTP074	ltpFR	4	2	0	PERSONNEL	1053	n/a	n/a	1	n/a	n/a	n/a	n/a	n/a
293825	REC_WORD	wordpools/wasnorm_wordpool.txt	LTP074	ltpFR	4	2	1	GOBLIN	645	n/a	n/a	1	n/a	n/a	n/a	n/a	n/a
294659	REC_WORD	wordpools/wasnorm_wordpool.txt	LTP074	ltpFR	4	2	1	BRACES	164	n/a	n/a	0	n/a	n/a	n/a	n/a	n/a
295286	REC_WORD	wordpools/wasnorm_wordpool.txt	LTP074	ltpFR	4	2	1	LOBBY	836	n/a	n/a	0	n/a	n/a	n/a	n/a	n/a
296849	REC_WORD	wordpools/wasnorm_wordpool.txt	LTP074	ltpFR	4	2	1	NAIL	936	n/a	n/a	0	n/a	n/a	n/a	n/a	n/a
297412	REC_WORD	wordpools/wasnorm_wordpool.txt	LTP074	ltpFR	4	2	1	ARCHITECT	36	n/a	n/a	1	n/a	n/a	n/a	n/a	n/a
298420	REC_WORD	wordpools/wasnorm_wordpool.txt	LTP074	ltpFR	4	2	0	BOOT	150	n/a	n/a	0	n/a	n/a	n/a	n/a	n/a
300580	REC_WORD	wordpools/wasnorm_wordpool.txt	LTP074	ltpFR	4	2	0	SICKLE	1302	n/a	n/a	1	n/a	n/a	n/a	n/a	n/a
301348	REC_WORD	wordpools/wasnorm_wordpool.txt	LTP074	ltpFR	4	2	0	TOOTHPASTE	1483	n/a	n/a	0	n/a	n/a	n/a	n/a	n/a
302067	REC_WORD	wordpools/wasnorm_wordpool.txt	LTP074	ltpFR	4	2	0	GLOVE	642	n/a	n/a	0	n/a	n/a	n/a	n/a	n/a
311550	REC_WORD	wordpools/wasnorm_wordpool.txt	LTP074	ltpFR	4	2	0	PERSONNEL	1053	n/a	n/a	1	n/a	n/a	n/a	n/a	n/a
320330	REC_WORD	wordpools/wasnorm_wordpool.txt	LTP074	ltpFR	4	2	0	SKETCH	1315	n/a	n/a	0	n/a	n/a	n/a	n/a	n/a
321343	REC_WORD	wordpools/wasnorm_wordpool.txt	LTP074	ltpFR	4	2	0	PLUM	1090	n/a	n/a	0	n/a	n/a	n/a	n/a	n/a
321942	REC_WORD	wordpools/wasnorm_wordpool.txt	LTP074	ltpFR	4	2	1	LEMON	810	n/a	n/a	0	n/a	n/a	n/a	n/a	n/a
377482	WORD	wordpools/wasnorm_wordpool.txt	LTP074	ltpFR	4	3	-1	EMPLOYER	532	n/a	n/a	-1	1.0	1.0	1	upper	Verdana.ttf
381382	WORD	wordpools/wasnorm_wordpool.txt	LTP074	ltpFR	4	3	-1	FACTORY	548	n/a	n/a	-1	1.0	1.0	1	upper	Verdana.ttf
385432	WORD	wordpools/wasnorm_wordpool.txt	LTP074	ltpFR	4	3	-1	VOLLEYBALL	1576	n/a	n/a	-1	1.0	1.0	1	upper	Verdana.ttf
389406	WORD	wordpools/wasnorm_wordpool.txt	LTP074	ltpFR	4	3	-1	DENTIST	447	n/a	n/a	-1	1.0	1.0	1	upper	Verdana.ttf
393290	WORD	wordpools/wasnorm_wordpool.txt	LTP074	ltpFR	4	3	-1	LOBSTER	837	n/a	n/a	-1	1.0	1.0	1	upper	Verdana.ttf
397356	WORD	wordpools/wasnorm_wordpool.txt	LTP074	ltpFR	4	3	-1	MERMAID	887	n/a	n/a	-1	1.0	1.0	1	upper	Verdana.ttf
401381	WORD	wordpools/wasnorm_wordpool.txt	LTP074	ltpFR	4	3	-1	CLOCK	325	n/a	n/a	-1	1.0	1.0	1	upper	Verdana.ttf
405455	WORD	wordpools/wasnorm_wordpool.txt	LTP074	ltpFR	4	3	-1	DOCUMENT	479	n/a	n/a	-1	1.0	1.0	1	upper	Verdana.ttf
409463	WORD	wordpools/wasnorm_wordpool.txt	LTP074	ltpFR	4	3	-1	TOOTHBRUSH	1482	n/a	n/a	-1	1.0	1.0	1	upper	Verdana.ttf
413480	WORD	wordpools/wasnorm_wordpool.txt	LTP074	ltpFR	4	3	-1	STICKER	1382	n/a	n/a	-1	1.0	1.0	1	upper	Verdana.ttf
417504	WORD	wordpools/wasnorm_wordpool.txt	LTP074	ltpFR	4	3	-1	CHARCOAL	281	n/a	n/a	-1	1.0	1.0	1	upper	Verdana.ttf
421371	WORD	wordpools/wasnorm_wordpool.txt	LTP074	ltpFR	4	3	-1	TRUMPET	1513	n/a	n/a	-1	1.0	1.0	1	upper	Verdana.ttf
425279	WORD	wordpools/wasnorm_wordpool.txt	LTP074	ltpFR	4	3	-1	CHAMBER	277	n/a	n/a	-1	1.0	1.0	1	upper	Verdana.ttf
429104	WORD	wordpools/wasnorm_wordpool.txt	LTP074	ltpFR	4	3	-1	BERRY	122	n/a	n/a	-1	1.0	1.0	1	upper	Verdana.ttf
433153	WORD	wordpools/wasnorm_wordpool.txt	LTP074	ltpFR	4	3	-1	APRON	35	n/a	n/a	-1	1.0	1.0	1	upper	Verdana.ttf
437203	WORD	wordpools/wasnorm_wordpool.txt	LTP074	ltpFR	4	3	-1	SAND	1230	n/a	n/a	-1	1.0	1.0	1	upper	Verdana.ttf
443128	REC_START	n/a	LTP074	ltpFR	4	3	n/a	n/a	n/a	n/a	n/a	n/a	n/a	n/a	n/a	n/a	n/a
443672	REC_WORD	wordpools/wasnorm_wordpool.txt	LTP074	ltpFR	4	3	-1	APRON	35	n/a	n/a	-1	n/a	n/a	n/a	n/a	n/a
444385	REC_WORD	wordpools/wasnorm_wordpool.txt	LTP074	ltpFR	4	3	-1	BERRY	122	n/a	n/a	-1	n/a	n/a	n/a	n/a	n/a
445028	REC_WORD	wordpools/wasnorm_wordpool.txt	LTP074	ltpFR	4	3	-1	CHAMBER	277	n/a	n/a	-1	n/a	n/a	n/a	n/a	n/a
445887	REC_WORD	wordpools/wasnorm_wordpool.txt	LTP074	ltpFR	4	3	-1	SAND	1230	n/a	n/a	-1	n/a	n/a	n/a	n/a	n/a
447956	REC_WORD	wordpools/wasnorm_wordpool.txt	LTP074	ltpFR	4	3	-1	EMPLOYER	532	n/a	n/a	-1	n/a	n/a	n/a	n/a	n/a
448839	REC_WORD	wordpools/wasnorm_wordpool.txt	LTP074	ltpFR	4	3	-1	FACTORY	548	n/a	n/a	-1	n/a	n/a	n/a	n/a	n/a
454098	REC_WORD	wordpools/wasnorm_wordpool.txt	LTP074	ltpFR	4	3	-1	MERMAID	887	n/a	n/a	-1	n/a	n/a	n/a	n/a	n/a
454809	REC_WORD	wordpools/wasnorm_wordpool.txt	LTP074	ltpFR	4	3	-1	LOBSTER	837	n/a	n/a	-1	n/a	n/a	n/a	n/a	n/a
455488	REC_WORD	wordpools/wasnorm_wordpool.txt	LTP074	ltpFR	4	3	-1	DENTIST	447	n/a	n/a	-1	n/a	n/a	n/a	n/a	n/a
481530	REC_WORD	wordpools/wasnorm_wordpool.txt	LTP074	ltpFR	4	3	0	TOOTHPASTE	1483	n/a	n/a	0	n/a	n/a	n/a	n/a	n/a
522189	WORD	wordpools/wasnorm_wordpool.txt	LTP074	ltpFR	4	4	1	CABBAGE	210	n/a	n/a	1	0.57763671875	0.412841796875	1	upper	amplitud.ttf
526013	WORD	wordpools/wasnorm_wordpool.txt	LTP074	ltpFR	4	4	1	CITRUS	313	n/a	n/a	0	0.57763671875	0.412841796875	1	upper	amplitud.ttf
530080	WORD	wordpools/wasnorm_wordpool.txt	LTP074	ltpFR	4	4	1	BUREAU	199	n/a	n/a	0	0.57763671875	0.412841796875	1	upper	amplitud.ttf
534263	WORD	wordpools/wasnorm_wordpool.txt	LTP074	ltpFR	4	4	1	LAGOON	795	n/a	n/a	0	0.57763671875	0.412841796875	1	upper	amplitud.ttf
538421	WORD	wordpools/wasnorm_wordpool.txt	LTP074	ltpFR	4	4	1	ASIA	46	n/a	n/a	0	0.57763671875	0.412841796875	1	upper	amplitud.ttf
542362	WORD	wordpools/wasnorm_wordpool.txt	LTP074	ltpFR	4	4	1	CATHEDRAL	260	n/a	n/a	0	0.57763671875	0.412841796875	1	upper	amplitud.ttf
546353	WORD	wordpools/wasnorm_wordpool.txt	LTP074	ltpFR	4	4	1	PREACHER	1119	n/a	n/a	1	0.57763671875	0.412841796875	1	upper	amplitud.ttf
550361	WORD	wordpools/wasnorm_wordpool.txt	LTP074	ltpFR	4	4	1	PRISONER	1128	n/a	n/a	1	0.57763671875	0.412841796875	1	upper	amplitud.ttf
554519	WORD	wordpools/wasnorm_wordpool.txt	LTP074	ltpFR	4	4	1	LINT	826	n/a	n/a	0	0.57763671875	0.412841796875	1	upper	amplitud.ttf
558703	WORD	wordpools/wasnorm_wordpool.txt	LTP074	ltpFR	4	4	1	ADULT	8	n/a	n/a	1	0.57763671875	0.412841796875	1	upper	amplitud.ttf
562802	WORD	wordpools/wasnorm_wordpool.txt	LTP074	ltpFR	4	4	1	BANDIT	81	n/a	n/a	1	0.57763671875	0.412841796875	1	upper	amplitud.ttf
566935	WORD	wordpools/wasnorm_wordpool.txt	LTP074	ltpFR	4	4	1	COUNTRY	388	n/a	n/a	0	0.57763671875	0.412841796875	1	upper	amplitud.ttf
570993	WORD	wordpools/wasnorm_wordpool.txt	LTP074	ltpFR	4	4	1	MOAT	903	n/a	n/a	0	0.57763671875	0.412841796875	1	upper	amplitud.ttf
575001	WORD	wordpools/wasnorm_wordpool.txt	LTP074	ltpFR	4	4	1	DOCK	477	n/a	n/a	0	0.57763671875	0.412841796875	1	upper	amplitud.ttf
579168	WORD	wordpools/wasnorm_wordpool.txt	LTP074	ltpFR	4	4	1	BATHROOM	99	n/a	n/a	0	0.57763671875	0.412841796875	1	upper	amplitud.ttf
583076	WORD	wordpools/wasnorm_wordpool.txt	LTP074	ltpFR	4	4	1	AUTOMOBILE	62	n/a	n/a	0	0.57763671875	0.412841796875	1	upper	amplitud.ttf
589001	REC_START	n/a	LTP074	ltpFR	4	4	n/a	n/a	n/a	n/a	n/a	n/a	n/a	n/a	n/a	n/a	n/a
590622	REC_WORD	wordpools/wasnorm_wordpool.txt	LTP074	ltpFR	4	4	1	DOCK	477	n/a	n/a	0	n/a	n/a	n/a	n/a	n/a
591251	REC_WORD	wordpools/wasnorm_wordpool.txt	LTP074	ltpFR	4	4	1	BATHROOM	99	n/a	n/a	0	n/a	n/a	n/a	n/a	n/a
592019	REC_WORD	wordpools/wasnorm_wordpool.txt	LTP074	ltpFR	4	4	1	MOAT	903	n/a	n/a	0	n/a	n/a	n/a	n/a	n/a
592737	REC_WORD	wordpools/wasnorm_wordpool.txt	LTP074	ltpFR	4	4	1	AUTOMOBILE	62	n/a	n/a	0	n/a	n/a	n/a	n/a	n/a
594473	REC_WORD	wordpools/wasnorm_wordpool.txt	LTP074	ltpFR	4	4	1	CITRUS	313	n/a	n/a	0	n/a	n/a	n/a	n/a	n/a
595192	REC_WORD	wordpools/wasnorm_wordpool.txt	LTP074	ltpFR	4	4	1	CABBAGE	210	n/a	n/a	1	n/a	n/a	n/a	n/a	n/a
595860	REC_WORD	wordpools/wasnorm_wordpool.txt	LTP074	ltpFR	4	4	1	BUREAU	199	n/a	n/a	0	n/a	n/a	n/a	n/a	n/a
599582	REC_WORD	wordpools/wasnorm_wordpool.txt	LTP074	ltpFR	4	4	1	LAGOON	795	n/a	n/a	0	n/a	n/a	n/a	n/a	n/a
600440	REC_WORD	wordpools/wasnorm_wordpool.txt	LTP074	ltpFR	4	4	1	ASIA	46	n/a	n/a	0	n/a	n/a	n/a	n/a	n/a
601208	REC_WORD	wordpools/wasnorm_wordpool.txt	LTP074	ltpFR	4	4	1	CATHEDRAL	260	n/a	n/a	0	n/a	n/a	n/a	n/a	n/a
603817	REC_WORD	wordpools/wasnorm_wordpool.txt	LTP074	ltpFR	4	4	1	PREACHER	1119	n/a	n/a	1	n/a	n/a	n/a	n/a	n/a
604506	REC_WORD	wordpools/wasnorm_wordpool.txt	LTP074	ltpFR	4	4	1	PRISONER	1128	n/a	n/a	1	n/a	n/a	n/a	n/a	n/a
605189	REC_WORD	wordpools/wasnorm_wordpool.txt	LTP074	ltpFR	4	4	1	LINT	826	n/a	n/a	0	n/a	n/a	n/a	n/a	n/a
614109	REC_WORD	wordpools/wasnorm_wordpool.txt	LTP074	ltpFR	4	4	1	ADULT	8	n/a	n/a	1	n/a	n/a	n/a	n/a	n/a
614827	REC_WORD	wordpools/wasnorm_wordpool.txt	LTP074	ltpFR	4	4	n/a	OUTLAW	989	n/a	n/a	n/a	n/a	n/a	n/a	n/a	n/a
615466	REC_WORD	wordpools/wasnorm_wordpool.txt	LTP074	ltpFR	4	4	1	COUNTRY	388	n/a	n/a	0	n/a	n/a	n/a	n/a	n/a
672636	WORD	wordpools/wasnorm_wordpool.txt	LTP074	ltpFR	4	5	1	SEAT	1264	n/a	n/a	0	0.57763671875	0.412841796875	1	upper	amplitud.ttf
676519	WORD	wordpools/wasnorm_wordpool.txt	LTP074	ltpFR	4	5	1	INCENSE	735	n/a	n/a	0	0.57763671875	0.412841796875	1	upper	amplitud.ttf
680427	WORD	wordpools/wasnorm_wordpool.txt	LTP074	ltpFR	4	5	1	BAG	69	n/a	n/a	0	0.57763671875	0.412841796875	1	upper	amplitud.ttf
684519	WORD	wordpools/wasnorm_wordpool.txt	LTP074	ltpFR	4	5	1	SHORTCAKE	1292	n/a	n/a	0	0.57763671875	0.412841796875	1	upper	amplitud.ttf
688651	WORD	wordpools/wasnorm_wordpool.txt	LTP074	ltpFR	4	5	1	MUSTARD	935	n/a	n/a	0	0.57763671875	0.412841796875	1	upper	amplitud.ttf
692693	WORD	wordpools/wasnorm_wordpool.txt	LTP074	ltpFR	4	5	1	MONARCH	906	n/a	n/a	1	0.57763671875	0.412841796875	1	upper	amplitud.ttf
696634	WORD	wordpools/wasnorm_wordpool.txt	LTP074	ltpFR	4	5	1	CHESS	294	n/a	n/a	0	0.57763671875	0.412841796875	1	upper	amplitud.ttf
700567	WORD	wordpools/wasnorm_wordpool.txt	LTP074	ltpFR	4	5	1	MUFFIN	929	n/a	n/a	0	0.57763671875	0.412841796875	1	upper	amplitud.ttf
704609	WORD	wordpools/wasnorm_wordpool.txt	LTP074	ltpFR	4	5	1	POSTAGE	1113	n/a	n/a	0	0.57763671875	0.412841796875	1	upper	amplitud.ttf
708450	WORD	wordpools/wasnorm_wordpool.txt	LTP074	ltpFR	4	5	1	WAITRESS	1581	n/a	n/a	1	0.57763671875	0.412841796875	1	upper	amplitud.ttf
712625	WORD	wordpools/wasnorm_wordpool.txt	LTP074	ltpFR	4	5	1	TULIP	1517	n/a	n/a	1	0.57763671875	0.412841796875	1	upper	amplitud.ttf
716792	WORD	wordpools/wasnorm_wordpool.txt	LTP074	ltpFR	4	5	1	PLANT	1083	n/a	n/a	0	0.57763671875	0.412841796875	1	upper	amplitud.ttf
720908	WORD	wordpools/wasnorm_wordpool.txt	LTP074	ltpFR	4	5	1	BASKET	95	n/a	n/a	0	0.57763671875	0.412841796875	1	upper	amplitud.ttf
724874	WORD	wordpools/wasnorm_wordpool.txt	LTP074	ltpFR	4	5	1	SERVER	1272	n/a	n/a	1	0.57763671875	0.412841796875	1	upper	amplitud.ttf
728932	WORD	wordpools/wasnorm_wordpool.txt	LTP074	ltpFR	4	5	1	SHERIFF	1284	n/a	n/a	1	0.57763671875	0.412841796875	1	upper	amplitud.ttf
733115	WORD	wordpools/wasnorm_wordpool.txt	LTP074	ltpFR	4	5	1	SIREN	1310	n/a	n/a	0	0.57763671875	0.412841796875	1	upper	amplitud.ttf
739190	REC_START	n/a	LTP074	ltpFR	4	5	n/a	n/a	n/a	n/a	n/a	n/a	n/a	n/a	n/a	n/a	n/a
739963	REC_WORD	wordpools/wasnorm_wordpool.txt	LTP074	ltpFR	4	5	1	SHERIFF	1284	n/a	n/a	1	n/a	n/a	n/a	n/a	n/a
740806	REC_WORD	wordpools/wasnorm_wordpool.txt	LTP074	ltpFR	4	5	1	BASKET	95	n/a	n/a	0	n/a	n/a	n/a	n/a	n/a
741530	REC_WORD	wordpools/wasnorm_wordpool.txt	LTP074	ltpFR	4	5	1	SERVER	1272	n/a	n/a	1	n/a	n/a	n/a	n/a	n/a
742427	REC_WORD	wordpools/wasnorm_wordpool.txt	LTP074	ltpFR	4	5	1	SIREN	1310	n/a	n/a	0	n/a	n/a	n/a	n/a	n/a
761040	REC_WORD	wordpools/wasnorm_wordpool.txt	LTP074	ltpFR	4	5	1	WAITRESS	1581	n/a	n/a	1	n/a	n/a	n/a	n/a	n/a
761723	REC_WORD	wordpools/wasnorm_wordpool.txt	LTP074	ltpFR	4	5	1	PLANT	1083	n/a	n/a	0	n/a	n/a	n/a	n/a	n/a
762282	REC_WORD	wordpools/wasnorm_wordpool.txt	LTP074	ltpFR	4	5	1	TULIP	1517	n/a	n/a	1	n/a	n/a	n/a	n/a	n/a
776111	REC_WORD_VV	wordpools/wasnorm_wordpool.txt	LTP074	ltpFR	4	5	n/a	<>	-1	n/a	n/a	n/a	n/a	n/a	n/a	n/a	n/a
776939	REC_WORD	wordpools/wasnorm_wordpool.txt	LTP074	ltpFR	4	5	1	INCENSE	735	n/a	n/a	0	n/a	n/a	n/a	n/a	n/a
777727	REC_WORD	wordpools/wasnorm_wordpool.txt	LTP074	ltpFR	4	5	1	BAG	69	n/a	n/a	0	n/a	n/a	n/a	n/a	n/a
778356	REC_WORD	wordpools/wasnorm_wordpool.txt	LTP074	ltpFR	4	5	1	SEAT	1264	n/a	n/a	0	n/a	n/a	n/a	n/a	n/a
817976	WORD	wordpools/wasnorm_wordpool.txt	LTP074	ltpFR	4	6	1	WHALE	1601	n/a	n/a	1	0.57763671875	0.412841796875	1	upper	amplitud.ttf
821842	WORD	wordpools/wasnorm_wordpool.txt	LTP074	ltpFR	4	6	1	SCALE	1241	n/a	n/a	0	0.57763671875	0.412841796875	1	upper	amplitud.ttf
825658	WORD	wordpools/wasnorm_wordpool.txt	LTP074	ltpFR	4	6	1	VEAL	1551	n/a	n/a	1	0.57763671875	0.412841796875	1	upper	amplitud.ttf
829833	WORD	wordpools/wasnorm_wordpool.txt	LTP074	ltpFR	4	6	0	MOUTH	926	n/a	n/a	0	0.422607421875	0.5869140625	0	lower	zerothre.ttf
833658	WORD	wordpools/wasnorm_wordpool.txt	LTP074	ltpFR	4	6	0	FOUNTAIN	597	n/a	n/a	1	0.422607421875	0.5869140625	0	lower	zerothre.ttf
837657	WORD	wordpools/wasnorm_wordpool.txt	LTP074	ltpFR	4	6	0	SWAMP	1416	n/a	n/a	1	0.422607421875	0.5869140625	0	lower	zerothre.ttf
841775	WORD	wordpools/wasnorm_wordpool.txt	LTP074	ltpFR	4	6	0	PIRATE	1074	n/a	n/a	1	0.422607421875	0.5869140625	0	lower	zerothre.ttf
845724	WORD	wordpools/wasnorm_wordpool.txt	LTP074	ltpFR	4	6	1	GRIZZLY	662	n/a	n/a	1	0.57763671875	0.412841796875	1	upper	amplitud.ttf
849940	WORD	wordpools/wasnorm_wordpool.txt	LTP074	ltpFR	4	6	1	BELLY	119	n/a	n/a	0	0.57763671875	0.412841796875	1	upper	amplitud.ttf
854115	WORD	wordpools/wasnorm_wordpool.txt	LTP074	ltpFR	4	6	1	PORCUPINE	1107	n/a	n/a	1	0.57763671875	0.412841796875	1	upper	amplitud.ttf
858323	WORD	wordpools/wasnorm_wordpool.txt	LTP074	ltpFR	4	6	0	CHERRY	293	n/a	n/a	0	0.422607421875	0.5869140625	0	lower	zerothre.ttf
862147	WORD	wordpools/wasnorm_wordpool.txt	LTP074	ltpFR	4	6	0	CAPTAIN	239	n/a	n/a	1	0.422607421875	0.5869140625	0	lower	zerothre.ttf
866014	WORD	wordpools/wasnorm_wordpool.txt	LTP074	ltpFR	4	6	0	PICNIC	1060	n/a	n/a	1	0.422607421875	0.5869140625	0	lower	zerothre.ttf
870013	WORD	wordpools/wasnorm_wordpool.txt	LTP074	ltpFR	4	6	0	ELBOW	520	n/a	n/a	0	0.422607421875	0.5869140625	0	lower	zerothre.ttf
874163	WORD	wordpools/wasnorm_wordpool.txt	LTP074	ltpFR	4	6	1	APPENDAGE	32	n/a	n/a	0	0.57763671875	0.412841796875	1	upper	amplitud.ttf
878080	WORD	wordpools/wasnorm_wordpool.txt	LTP074	ltpFR	4	6	1	CACTUS	215	n/a	n/a	1	0.57763671875	0.412841796875	1	upper	amplitud.ttf
883938	REC_START	n/a	LTP074	ltpFR	4	6	n/a	n/a	n/a	n/a	n/a	n/a	n/a	n/a	n/a	n/a	n/a
884591	REC_WORD	wordpools/wasnorm_wordpool.txt	LTP074	ltpFR	4	6	0	ELBOW	520	n/a	n/a	0	n/a	n/a	n/a	n/a	n/a
885310	REC_WORD	wordpools/wasnorm_wordpool.txt	LTP074	ltpFR	4	6	0	PICNIC	1060	n/a	n/a	1	n/a	n/a	n/a	n/a	n/a
885943	REC_WORD	wordpools/wasnorm_wordpool.txt	LTP074	ltpFR	4	6	1	APPENDAGE	32	n/a	n/a	0	n/a	n/a	n/a	n/a	n/a
886836	REC_WORD	wordpools/wasnorm_wordpool.txt	LTP074	ltpFR	4	6	1	CACTUS	215	n/a	n/a	1	n/a	n/a	n/a	n/a	n/a
888463	REC_WORD	wordpools/wasnorm_wordpool.txt	LTP074	ltpFR	4	6	0	MOUTH	926	n/a	n/a	0	n/a	n/a	n/a	n/a	n/a
889161	REC_WORD	wordpools/wasnorm_wordpool.txt	LTP074	ltpFR	4	6	0	SWAMP	1416	n/a	n/a	1	n/a	n/a	n/a	n/a	n/a
889934	REC_WORD	wordpools/wasnorm_wordpool.txt	LTP074	ltpFR	4	6	0	FOUNTAIN	597	n/a	n/a	1	n/a	n/a	n/a	n/a	n/a
891426	REC_WORD	wordpools/wasnorm_wordpool.txt	LTP074	ltpFR	4	6	1	WHALE	1601	n/a	n/a	1	n/a	n/a	n/a	n/a	n/a
892080	REC_WORD	wordpools/wasnorm_wordpool.txt	LTP074	ltpFR	4	6	1	SCALE	1241	n/a	n/a	0	n/a	n/a	n/a	n/a	n/a
893122	REC_WORD	wordpools/wasnorm_wordpool.txt	LTP074	ltpFR	4	6	1	VEAL	1551	n/a	n/a	1	n/a	n/a	n/a	n/a	n/a
895621	REC_WORD	wordpools/wasnorm_wordpool.txt	LTP074	ltpFR	4	6	1	PORCUPINE	1107	n/a	n/a	1	n/a	n/a	n/a	n/a	n/a
896514	REC_WORD	wordpools/wasnorm_wordpool.txt	LTP074	ltpFR	4	6	0	CAPTAIN	239	n/a	n/a	1	n/a	n/a	n/a	n/a	n/a
897183	REC_WORD	wordpools/wasnorm_wordpool.txt	LTP074	ltpFR	4	6	0	CHERRY	293	n/a	n/a	0	n/a	n/a	n/a	n/a	n/a
899737	REC_WORD	wordpools/wasnorm_wordpool.txt	LTP074	ltpFR	4	6	1	GRIZZLY	662	n/a	n/a	1	n/a	n/a	n/a	n/a	n/a
900585	REC_WORD	wordpools/wasnorm_wordpool.txt	LTP074	ltpFR	4	6	0	PIRATE	1074	n/a	n/a	1	n/a	n/a	n/a	n/a	n/a
901253	REC_WORD	wordpools/wasnorm_wordpool.txt	LTP074	ltpFR	4	6	1	BELLY	119	n/a	n/a	0	n/a	n/a	n/a	n/a	n/a
966540	WORD	wordpools/wasnorm_wordpool.txt	LTP074	ltpFR	4	7	1	HEAD	695	n/a	n/a	0	0.57763671875	0.412841796875	1	upper	amplitud.ttf
970623	WORD	wordpools/wasnorm_wordpool.txt	LTP074	ltpFR	4	7	1	TUXEDO	1525	n/a	n/a	0	0.57763671875	0.412841796875	1	upper	amplitud.ttf
974664	WORD	wordpools/wasnorm_wordpool.txt	LTP074	ltpFR	4	7	0	LACE	792	n/a	n/a	0	0.422607421875	0.5869140625	0	lower	zerothre.ttf
978664	WORD	wordpools/wasnorm_wordpool.txt	LTP074	ltpFR	4	7	0	SALT	1229	n/a	n/a	0	0.422607421875	0.5869140625	0	lower	zerothre.ttf
982589	WORD	wordpools/wasnorm_wordpool.txt	LTP074	ltpFR	4	7	0	POLE	1097	n/a	n/a	1	0.422607421875	0.5869140625	0	lower	zerothre.ttf
986697	WORD	wordpools/wasnorm_wordpool.txt	LTP074	ltpFR	4	7	0	PIER	1063	n/a	n/a	1	0.422607421875	0.5869140625	0	lower	zerothre.ttf
990764	WORD	wordpools/wasnorm_wordpool.txt	LTP074	ltpFR	4	7	1	CONCRETE	361	n/a	n/a	0	0.57763671875	0.412841796875	1	upper	amplitud.ttf
994963	WORD	wordpools/wasnorm_wordpool.txt	LTP074	ltpFR	4	7	1	VEST	1559	n/a	n/a	0	0.57763671875	0.412841796875	1	upper	amplitud.ttf
999037	WORD	wordpools/wasnorm_wordpool.txt	LTP074	ltpFR	4	7	1	INFANT	737	n/a	n/a	1	0.57763671875	0.412841796875	1	upper	amplitud.ttf
1003220	WORD	wordpools/wasnorm_wordpool.txt	LTP074	ltpFR	4	7	1	PAVEMENT	1028	n/a	n/a	0	0.57763671875	0.412841796875	1	upper	amplitud.ttf
1007279	WORD	wordpools/wasnorm_wordpool.txt	LTP074	ltpFR	4	7	1	MOSQUITO	917	n/a	n/a	1	0.57763671875	0.412841796875	1	upper	amplitud.ttf
1011095	WORD	wordpools/wasnorm_wordpool.txt	LTP074	ltpFR	4	7	1	ROACH	1195	n/a	n/a	1	0.57763671875	0.412841796875	1	upper	amplitud.ttf
1015178	WORD	wordpools/wasnorm_wordpool.txt	LTP074	ltpFR	4	7	0	CAT	257	n/a	n/a	0	0.422607421875	0.5869140625	0	lower	zerothre.ttf
1019003	WORD	wordpools/wasnorm_wordpool.txt	LTP074	ltpFR	4	7	0	WARDROBE	1587	n/a	n/a	1	0.422607421875	0.5869140625	0	lower	zerothre.ttf
1022936	WORD	wordpools/wasnorm_wordpool.txt	LTP074	ltpFR	4	7	0	MAN	862	n/a	n/a	1	0.422607421875	0.5869140625	0	lower	zerothre.ttf
1026902	WORD	wordpools/wasnorm_wordpool.txt	LTP074	ltpFR	4	7	0	PEPPER	1047	n/a	n/a	0	0.422607421875	0.5869140625	0	lower	zerothre.ttf
1032753	REC_START	n/a	LTP074	ltpFR	4	7	n/a	n/a	n/a	n/a	n/a	n/a	n/a	n/a	n/a	n/a	n/a
1033476	REC_WORD	wordpools/wasnorm_wordpool.txt	LTP074	ltpFR	4	7	0	CAT	257	n/a	n/a	0	n/a	n/a	n/a	n/a	n/a
1034135	REC_WORD	wordpools/wasnorm_wordpool.txt	LTP074	ltpFR	4	7	0	MAN	862	n/a	n/a	1	n/a	n/a	n/a	n/a	n/a
1034823	REC_WORD	wordpools/wasnorm_wordpool.txt	LTP074	ltpFR	4	7	0	WARDROBE	1587	n/a	n/a	1	n/a	n/a	n/a	n/a	n/a
1035492	REC_WORD	wordpools/wasnorm_wordpool.txt	LTP074	ltpFR	4	7	0	PEPPER	1047	n/a	n/a	0	n/a	n/a	n/a	n/a	n/a
1041807	REC_WORD	wordpools/wasnorm_wordpool.txt	LTP074	ltpFR	4	7	1	PAVEMENT	1028	n/a	n/a	0	n/a	n/a	n/a	n/a	n/a
1049979	REC_WORD	wordpools/wasnorm_wordpool.txt	LTP074	ltpFR	4	7	1	ROACH	1195	n/a	n/a	1	n/a	n/a	n/a	n/a	n/a
1061093	REC_WORD	wordpools/wasnorm_wordpool.txt	LTP074	ltpFR	4	7	0	POLE	1097	n/a	n/a	1	n/a	n/a	n/a	n/a	n/a
1061732	REC_WORD	wordpools/wasnorm_wordpool.txt	LTP074	ltpFR	4	7	0	PIER	1063	n/a	n/a	1	n/a	n/a	n/a	n/a	n/a
1062331	REC_WORD	wordpools/wasnorm_wordpool.txt	LTP074	ltpFR	4	7	0	SALT	1229	n/a	n/a	0	n/a	n/a	n/a	n/a	n/a
1064331	REC_WORD	wordpools/wasnorm_wordpool.txt	LTP074	ltpFR	4	7	1	HEAD	695	n/a	n/a	0	n/a	n/a	n/a	n/a	n/a
1064692	REC_WORD	wordpools/wasnorm_wordpool.txt	LTP074	ltpFR	4	7	1	TUXEDO	1525	n/a	n/a	0	n/a	n/a	n/a	n/a	n/a
1065504	REC_WORD	wordpools/wasnorm_wordpool.txt	LTP074	ltpFR	4	7	0	LACE	792	n/a	n/a	0	n/a	n/a	n/a	n/a	n/a
1094497	REC_WORD	wordpools/wasnorm_wordpool.txt	LTP074	ltpFR	4	7	1	MOSQUITO	917	n/a	n/a	1	n/a	n/a	n/a	n/a	n/a
1107219	REC_WORD	wordpools/wasnorm_wordpool.txt	LTP074	ltpFR	4	7	n/a	BABY	64	n/a	n/a	n/a	n/a	n/a	n/a	n/a	n/a
1107757	REC_WORD_VV	wordpools/wasnorm_wordpool.txt	LTP074	ltpFR	4	7	n/a	<>	-1	n/a	n/a	n/a	n/a	n/a	n/a	n/a	n/a
1114179	WORD	wordpools/wasnorm_wordpool.txt	LTP074	ltpFR	4	8	-1	DIARY	460	n/a	n/a	-1	1.0	1.0	1	upper	Verdana.ttf
1118162	WORD	wordpools/wasnorm_wordpool.txt	LTP074	ltpFR	4	8	-1	INTESTINE	742	n/a	n/a	-1	1.0	1.0	1	upper	Verdana.ttf
1122254	WORD	wordpools/wasnorm_wordpool.txt	LTP074	ltpFR	4	8	-1	YOLK	1633	n/a	n/a	-1	1.0	1.0	1	upper	Verdana.ttf
1126220	WORD	wordpools/wasnorm_wordpool.txt	LTP074	ltpFR	4	8	-1	SKILLET	1317	n/a	n/a	-1	1.0	1.0	1	upper	Verdana.ttf
1130178	WORD	wordpools/wasnorm_wordpool.txt	LTP074	ltpFR	4	8	-1	SUN	1406	n/a	n/a	-1	1.0	1.0	1	upper	Verdana.ttf
1134069	WORD	wordpools/wasnorm_wordpool.txt	LTP074	ltpFR	4	8	-1	METEOR	889	n/a	n/a	-1	1.0	1.0	1	upper	Verdana.ttf
1137986	WORD	wordpools/wasnorm_wordpool.txt	LTP074	ltpFR	4	8	-1	WOLF	1619	n/a	n/a	-1	1.0	1.0	1	upper	Verdana.ttf
1141977	WORD	wordpools/wasnorm_wordpool.txt	LTP074	ltpFR	4	8	-1	ARENA	37	n/a	n/a	-1	1.0	1.0	1	upper	Verdana.ttf
1145835	WORD	wordpools/wasnorm_wordpool.txt	LTP074	ltpFR	4	8	-1	CHURCH	307	n/a	n/a	-1	1.0	1.0	1	upper	Verdana.ttf
1150027	WORD	wordpools/wasnorm_wordpool.txt	LTP074	ltpFR	4	8	-1	TAPIOCA	1434	n/a	n/a	-1	1.0	1.0	1	upper	Verdana.ttf
1153976	WORD	wordpools/wasnorm_wordpool.txt	LTP074	ltpFR	4	8	-1	RUNNER	1218	n/a	n/a	-1	1.0	1.0	1	upper	Verdana.ttf
1158043	WORD	wordpools/wasnorm_wordpool.txt	LTP074	ltpFR	4	8	-1	MONASTERY	907	n/a	n/a	-1	1.0	1.0	1	upper	Verdana.ttf
1162076	WORD	wordpools/wasnorm_wordpool.txt	LTP074	ltpFR	4	8	-1	PAD	998	n/a	n/a	-1	1.0	1.0	1	upper	Verdana.ttf
1166167	WORD	wordpools/wasnorm_wordpool.txt	LTP074	ltpFR	4	8	-1	JOURNAL	760	n/a	n/a	-1	1.0	1.0	1	upper	Verdana.ttf
1170333	WORD	wordpools/wasnorm_wordpool.txt	LTP074	ltpFR	4	8	-1	FUDGE	611	n/a	n/a	-1	1.0	1.0	1	upper	Verdana.ttf
1174516	WORD	wordpools/wasnorm_wordpool.txt	LTP074	ltpFR	4	8	-1	UNCLE	1536	n/a	n/a	-1	1.0	1.0	1	upper	Verdana.ttf
1180600	REC_START	n/a	LTP074	ltpFR	4	8	n/a	n/a	n/a	n/a	n/a	n/a	n/a	n/a	n/a	n/a	n/a
1181283	REC_WORD	wordpools/wasnorm_wordpool.txt	LTP074	ltpFR	4	8	-1	UNCLE	1536	n/a	n/a	-1	n/a	n/a	n/a	n/a	n/a
1181695	REC_WORD	wordpools/wasnorm_wordpool.txt	LTP074	ltpFR	4	8	-1	FUDGE	611	n/a	n/a	-1	n/a	n/a	n/a	n/a	n/a
1182411	REC_WORD	wordpools/wasnorm_wordpool.txt	LTP074	ltpFR	4	8	-1	JOURNAL	760	n/a	n/a	-1	n/a	n/a	n/a	n/a	n/a
1182911	REC_WORD	wordpools/wasnorm_wordpool.txt	LTP074	ltpFR	4	8	-1	PAD	998	n/a	n/a	-1	n/a	n/a	n/a	n/a	n/a
1184366	REC_WORD	wordpools/wasnorm_wordpool.txt	LTP074	ltpFR	4	8	n/a	YOKE	1632	n/a	n/a	n/a	n/a	n/a	n/a	n/a	n/a
1184855	REC_WORD	wordpools/wasnorm_wordpool.txt	LTP074	ltpFR	4	8	-1	INTESTINE	742	n/a	n/a	-1	n/a	n/a	n/a	n/a	n/a
1185693	REC_WORD	wordpools/wasnorm_wordpool.txt	LTP074	ltpFR	4	8	-1	DIARY	460	n/a	n/a	-1	n/a	n/a	n/a	n/a	n/a
1187529	REC_WORD	wordpools/wasnorm_wordpool.txt	LTP074	ltpFR	4	8	-1	SUN	1406	n/a	n/a	-1	n/a	n/a	n/a	n/a	n/a
1188047	REC_WORD	wordpools/wasnorm_wordpool.txt	LTP074	ltpFR	4	8	-1	SKILLET	1317	n/a	n/a	-1	n/a	n/a	n/a	n/a	n/a
1188602	REC_WORD	wordpools/wasnorm_wordpool.txt	LTP074	ltpFR	4	8	-1	METEOR	889	n/a	n/a	-1	n/a	n/a	n/a	n/a	n/a
1189904	REC_WORD	wordpools/wasnorm_wordpool.txt	LTP074	ltpFR	4	8	-1	WOLF	1619	n/a	n/a	-1	n/a	n/a	n/a	n/a	n/a
1190313	REC_WORD	wordpools/wasnorm_wordpool.txt	LTP074	ltpFR	4	8	-1	ARENA	37	n/a	n/a	-1	n/a	n/a	n/a	n/a	n/a
1190840	REC_WORD	wordpools/wasnorm_wordpool.txt	LTP074	ltpFR	4	8	-1	CHURCH	307	n/a	n/a	-1	n/a	n/a	n/a	n/a	n/a
1196588	REC_WORD	wordpools/wasnorm_wordpool.txt	LTP074	ltpFR	4	8	-1	MONASTERY	907	n/a	n/a	-1	n/a	n/a	n/a	n/a	n/a
1197401	REC_WORD	wordpools/wasnorm_wordpool.txt	LTP074	ltpFR	4	8	-1	RUNNER	1218	n/a	n/a	-1	n/a	n/a	n/a	n/a	n/a
1197919	REC_WORD	wordpools/wasnorm_wordpool.txt	LTP074	ltpFR	4	8	-1	TAPIOCA	1434	n/a	n/a	-1	n/a	n/a	n/a	n/a	n/a
1261444	WORD	wordpools/wasnorm_wordpool.txt	LTP074	ltpFR	4	9	0	TUB	1514	n/a	n/a	1	0.422607421875	0.5869140625	0	lower	zerothre.ttf
1265343	WORD	wordpools/wasnorm_wordpool.txt	LTP074	ltpFR	4	9	0	MOON	914	n/a	n/a	1	0.422607421875	0.5869140625	0	lower	zerothre.ttf
1269235	WORD	wordpools/wasnorm_wordpool.txt	LTP074	ltpFR	4	9	0	TOMB	1477	n/a	n/a	1	0.422607421875	0.5869140625	0	lower	zerothre.ttf
1273309	WORD	wordpools/wasnorm_wordpool.txt	LTP074	ltpFR	4	9	1	BULB	192	n/a	n/a	1	0.57763671875	0.412841796875	1	upper	amplitud.ttf
1277259	WORD	wordpools/wasnorm_wordpool.txt	LTP074	ltpFR	4	9	1	FUNGUS	614	n/a	n/a	1	0.57763671875	0.412841796875	1	upper	amplitud.ttf
1281075	WORD	wordpools/wasnorm_wordpool.txt	LTP074	ltpFR	4	9	0	BIOLOGIST	128	n/a	n/a	1	0.422607421875	0.5869140625	0	lower	zerothre.ttf
1285242	WORD	wordpools/wasnorm_wordpool.txt	LTP074	ltpFR	4	9	0	PRESIDENT	1121	n/a	n/a	1	0.422607421875	0.5869140625	0	lower	zerothre.ttf
1289183	WORD	wordpools/wasnorm_wordpool.txt	LTP074	ltpFR	4	9	1	TOAST	1471	n/a	n/a	0	0.57763671875	0.412841796875	1	upper	amplitud.ttf
1293125	WORD	wordpools/wasnorm_wordpool.txt	LTP074	ltpFR	4	9	1	LOAF	835	n/a	n/a	0	0.57763671875	0.412841796875	1	upper	amplitud.ttf
1297008	WORD	wordpools/wasnorm_wordpool.txt	LTP074	ltpFR	4	9	1	WHEAT	1602	n/a	n/a	0	0.57763671875	0.412841796875	1	upper	amplitud.ttf
1300916	WORD	wordpools/wasnorm_wordpool.txt	LTP074	ltpFR	4	9	1	BAKER	71	n/a	n/a	1	0.57763671875	0.412841796875	1	upper	amplitud.ttf
1305032	WORD	wordpools/wasnorm_wordpool.txt	LTP074	ltpFR	4	9	1	BARK	87	n/a	n/a	0	0.57763671875	0.412841796875	1	upper	amplitud.ttf
1309065	WORD	wordpools/wasnorm_wordpool.txt	LTP074	ltpFR	4	9	1	SHORTS	1293	n/a	n/a	0	0.57763671875	0.412841796875	1	upper	amplitud.ttf
1313131	WORD	wordpools/wasnorm_wordpool.txt	LTP074	ltpFR	4	9	0	SPHINX	1349	n/a	n/a	1	0.422607421875	0.5869140625	0	lower	zerothre.ttf
1317115	WORD	wordpools/wasnorm_wordpool.txt	LTP074	ltpFR	4	9	0	FLORIDA	582	n/a	n/a	1	0.422607421875	0.5869140625	0	lower	zerothre.ttf
1321248	WORD	wordpools/wasnorm_wordpool.txt	LTP074	ltpFR	4	9	0	CHAIRPERSON	275	n/a	n/a	1	0.422607421875	0.5869140625	0	lower	zerothre.ttf
1327281	REC_START	n/a	LTP074	ltpFR	4	9	n/a	n/a	n/a	n/a	n/a	n/a	n/a	n/a	n/a	n/a	n/a
1327740	REC_WORD	wordpools/wasnorm_wordpool.txt	LTP074	ltpFR	4	9	0	FLORIDA	582	n/a	n/a	1	n/a	n/a	n/a	n/a	n/a
1328426	REC_WORD	wordpools/wasnorm_wordpool.txt	LTP074	ltpFR	4	9	0	CHAIRPERSON	275	n/a	n/a	1	n/a	n/a	n/a	n/a	n/a
1329237	REC_WORD	wordpools/wasnorm_wordpool.txt	LTP074	ltpFR	4	9	0	SPHINX	1349	n/a	n/a	1	n/a	n/a	n/a	n/a	n/a
1330079	REC_WORD	wordpools/wasnorm_wordpool.txt	LTP074	ltpFR	4	9	1	SHORTS	1293	n/a	n/a	0	n/a	n/a	n/a	n/a	n/a
1332354	REC_WORD	wordpools/wasnorm_wordpool.txt	LTP074	ltpFR	4	9	0	MOON	914	n/a	n/a	1	n/a	n/a	n/a	n/a	n/a
1333013	REC_WORD	wordpools/wasnorm_wordpool.txt	LTP074	ltpFR	4	9	0	TUB	1514	n/a	n/a	1	n/a	n/a	n/a	n/a	n/a
1333542	REC_WORD	wordpools/wasnorm_wordpool.txt	LTP074	ltpFR	4	9	0	TOMB	1477	n/a	n/a	1	n/a	n/a	n/a	n/a	n/a
1340566	REC_WORD	wordpools/wasnorm_wordpool.txt	LTP074	ltpFR	4	9	n/a	PRESENT	-1	n/a	n/a	n/a	n/a	n/a	n/a	n/a	n/a
1341334	REC_WORD	wordpools/wasnorm_wordpool.txt	LTP074	ltpFR	4	9	1	TOAST	1471	n/a	n/a	0	n/a	n/a	n/a	n/a	n/a
1341982	REC_WORD	wordpools/wasnorm_wordpool.txt	LTP074	ltpFR	4	9	1	LOAF	835	n/a	n/a	0	n/a	n/a	n/a	n/a	n/a
1344442	REC_WORD	wordpools/wasnorm_wordpool.txt	LTP074	ltpFR	4	9	1	WHEAT	1602	n/a	n/a	0	n/a	n/a	n/a	n/a	n/a
1345325	REC_WORD	wordpools/wasnorm_wordpool.txt	LTP074	ltpFR	4	9	1	BAKER	71	n/a	n/a	1	n/a	n/a	n/a	n/a	n/a
1365120	REC_WORD	wordpools/wasnorm_wordpool.txt	LTP074	ltpFR	4	9	1	FUNGUS	614	n/a	n/a	1	n/a	n/a	n/a	n/a	n/a
1365938	REC_WORD	wordpools/wasnorm_wordpool.txt	LTP074	ltpFR	4	9	1	BULB	192	n/a	n/a	1	n/a	n/a	n/a	n/a	n/a
1366606	REC_WORD	wordpools/wasnorm_wordpool.txt	LTP074	ltpFR	4	9	0	BIOLOGIST	128	n/a	n/a	1	n/a	n/a	n/a	n/a	n/a
1406458	WORD	wordpools/wasnorm_wordpool.txt	LTP074	ltpFR	4	10	0	PANTS	1010	n/a	n/a	0	0.422607421875	0.5869140625	0	lower	zerothre.ttf
1410358	WORD	wordpools/wasnorm_wordpool.txt	LTP074	ltpFR	4	10	0	JEANS	752	n/a	n/a	0	0.422607421875	0.5869140625	0	lower	zerothre.ttf
1414191	WORD	wordpools/wasnorm_wordpool.txt	LTP074	ltpFR	4	10	0	GANGSTER	620	n/a	n/a	1	0.422607421875	0.5869140625	0	lower	zerothre.ttf
1418191	WORD	wordpools/wasnorm_wordpool.txt	LTP074	ltpFR	4	10	0	GLUE	643	n/a	n/a	0	0.422607421875	0.5869140625	0	lower	zerothre.ttf
1422390	WORD	wordpools/wasnorm_wordpool.txt	LTP074	ltpFR	4	10	0	TROMBONE	1508	n/a	n/a	1	0.422607421875	0.5869140625	0	lower	zerothre.ttf
1426273	WORD	wordpools/wasnorm_wordpool.txt	LTP074	ltpFR	4	10	0	VILLAGE	1566	n/a	n/a	1	0.422607421875	0.5869140625	0	lower	zerothre.ttf
1430440	WORD	wordpools/wasnorm_wordpool.txt	LTP074	ltpFR	4	10	0	SUITCASE	1403	n/a	n/a	1	0.422607421875	0.5869140625	0	lower	zerothre.ttf
1434306	WORD	wordpools/wasnorm_wordpool.txt	LTP074	ltpFR	4	10	0	PAPER	1011	n/a	n/a	0	0.422607421875	0.5869140625	0	lower	zerothre.ttf
1438472	WORD	wordpools/wasnorm_wordpool.txt	LTP074	ltpFR	4	10	0	ARTICLE	42	n/a	n/a	0	0.422607421875	0.5869140625	0	lower	zerothre.ttf
1442322	WORD	wordpools/wasnorm_wordpool.txt	LTP074	ltpFR	4	10	0	ASTRONAUT	51	n/a	n/a	1	0.422607421875	0.5869140625	0	lower	zerothre.ttf
1446472	WORD	wordpools/wasnorm_wordpool.txt	LTP074	ltpFR	4	10	0	RACK	1154	n/a	n/a	0	0.422607421875	0.5869140625	0	lower	zerothre.ttf
1450663	WORD	wordpools/wasnorm_wordpool.txt	LTP074	ltpFR	4	10	0	SCALPEL	1243	n/a	n/a	0	0.422607421875	0.5869140625	0	lower	zerothre.ttf
1454588	WORD	wordpools/wasnorm_wordpool.txt	LTP074	ltpFR	4	10	0	BAND	78	n/a	n/a	1	0.422607421875	0.5869140625	0	lower	zerothre.ttf
1458596	WORD	wordpools/wasnorm_wordpool.txt	LTP074	ltpFR	4	10	0	TOURIST	1488	n/a	n/a	1	0.422607421875	0.5869140625	0	lower	zerothre.ttf
1462437	WORD	wordpools/wasnorm_wordpool.txt	LTP074	ltpFR	4	10	0	SALESMAN	1225	n/a	n/a	1	0.422607421875	0.5869140625	0	lower	zerothre.ttf
1466454	WORD	wordpools/wasnorm_wordpool.txt	LTP074	ltpFR	4	10	0	DRIVER	499	n/a	n/a	1	0.422607421875	0.5869140625	0	lower	zerothre.ttf
1472354	REC_START	n/a	LTP074	ltpFR	4	10	n/a	n/a	n/a	n/a	n/a	n/a	n/a	n/a	n/a	n/a	n/a
1473077	REC_WORD	wordpools/wasnorm_wordpool.txt	LTP074	ltpFR	4	10	0	BAND	78	n/a	n/a	1	n/a	n/a	n/a	n/a	n/a
1473766	REC_WORD	wordpools/wasnorm_wordpool.txt	LTP074	ltpFR	4	10	0	TOURIST	1488	n/a	n/a	1	n/a	n/a	n/a	n/a	n/a
1474354	REC_WORD	wordpools/wasnorm_wordpool.txt	LTP074	ltpFR	4	10	0	SALESMAN	1225	n/a	n/a	1	n/a	n/a	n/a	n/a	n/a
1475093	REC_WORD	wordpools/wasnorm_wordpool.txt	LTP074	ltpFR	4	10	0	DRIVER	499	n/a	n/a	1	n/a	n/a	n/a	n/a	n/a
1476360	REC_WORD	wordpools/wasnorm_wordpool.txt	LTP074	ltpFR	4	10	0	SCALPEL	1243	n/a	n/a	0	n/a	n/a	n/a	n/a	n/a
1477198	REC_WORD	wordpools/wasnorm_wordpool.txt	LTP074	ltpFR	4	10	0	ASTRONAUT	51	n/a	n/a	1	n/a	n/a	n/a	n/a	n/a
1477984	REC_WORD	wordpools/wasnorm_wordpool.txt	LTP074	ltpFR	4	10	0	RACK	1154	n/a	n/a	0	n/a	n/a	n/a	n/a	n/a
1485758	REC_WORD	wordpools/wasnorm_wordpool.txt	LTP074	ltpFR	4	10	0	SUITCASE	1403	n/a	n/a	1	n/a	n/a	n/a	n/a	n/a
1486716	REC_WORD	wordpools/wasnorm_wordpool.txt	LTP074	ltpFR	4	10	0	ARTICLE	42	n/a	n/a	0	n/a	n/a	n/a	n/a	n/a
1488243	REC_WORD	wordpools/wasnorm_wordpool.txt	LTP074	ltpFR	4	10	0	PAPER	1011	n/a	n/a	0	n/a	n/a	n/a	n/a	n/a
1490517	REC_WORD	wordpools/wasnorm_wordpool.txt	LTP074	ltpFR	4	10	0	GLUE	643	n/a	n/a	0	n/a	n/a	n/a	n/a	n/a
1491017	REC_WORD	wordpools/wasnorm_wordpool.txt	LTP074	ltpFR	4	10	0	TROMBONE	1508	n/a	n/a	1	n/a	n/a	n/a	n/a	n/a
1491685	REC_WORD	wordpools/wasnorm_wordpool.txt	LTP074	ltpFR	4	10	0	VILLAGE	1566	n/a	n/a	1	n/a	n/a	n/a	n/a	n/a
1493391	REC_WORD	wordpools/wasnorm_wordpool.txt	LTP074	ltpFR	4	10	0	PANTS	1010	n/a	n/a	0	n/a	n/a	n/a	n/a	n/a
1494099	REC_WORD	wordpools/wasnorm_wordpool.txt	LTP074	ltpFR	4	10	0	JEANS	752	n/a	n/a	0	n/a	n/a	n/a	n/a	n/a
1495037	REC_WORD	wordpools/wasnorm_wordpool.txt	LTP074	ltpFR	4	10	0	GANGSTER	620	n/a	n/a	1	n/a	n/a	n/a	n/a	n/a
1513455	REC_WORD	wordpools/wasnorm_wordpool.txt	LTP074	ltpFR	4	10	0	ASTRONAUT	51	n/a	n/a	1	n/a	n/a	n/a	n/a	n/a
1555757	WORD	wordpools/wasnorm_wordpool.txt	LTP074	ltpFR	4	11	-1	HOSE	720	n/a	n/a	-1	1.0	1.0	1	upper	Verdana.ttf
1559947	WORD	wordpools/wasnorm_wordpool.txt	LTP074	ltpFR	4	11	-1	POOL	1103	n/a	n/a	-1	1.0	1.0	1	upper	Verdana.ttf
1563980	WORD	wordpools/wasnorm_wordpool.txt	LTP074	ltpFR	4	11	-1	LOVER	846	n/a	n/a	-1	1.0	1.0	1	upper	Verdana.ttf
1568188	WORD	wordpools/wasnorm_wordpool.txt	LTP074	ltpFR	4	11	-1	SUBWAY	1400	n/a	n/a	-1	1.0	1.0	1	upper	Verdana.ttf
1572346	WORD	wordpools/wasnorm_wordpool.txt	LTP074	ltpFR	4	11	-1	JACKET	747	n/a	n/a	-1	1.0	1.0	1	upper	Verdana.ttf
1576362	WORD	wordpools/wasnorm_wordpool.txt	LTP074	ltpFR	4	11	-1	BANDANNA	80	n/a	n/a	-1	1.0	1.0	1	upper	Verdana.ttf
1580346	WORD	wordpools/wasnorm_wordpool.txt	LTP074	ltpFR	4	11	-1	LEAF	808	n/a	n/a	-1	1.0	1.0	1	upper	Verdana.ttf
1584512	WORD	wordpools/wasnorm_wordpool.txt	LTP074	ltpFR	4	11	-1	LOG	841	n/a	n/a	-1	1.0	1.0	1	upper	Verdana.ttf
1588720	WORD	wordpools/wasnorm_wordpool.txt	LTP074	ltpFR	4	11	-1	TOOL	1480	n/a	n/a	-1	1.0	1.0	1	upper	Verdana.ttf
1592828	WORD	wordpools/wasnorm_wordpool.txt	LTP074	ltpFR	4	11	-1	PLIERS	1089	n/a	n/a	-1	1.0	1.0	1	upper	Verdana.ttf
1596779	WORD	wordpools/wasnorm_wordpool.txt	LTP074	ltpFR	4	11	-1	DRYER	503	n/a	n/a	-1	1.0	1.0	1	upper	Verdana.ttf
1600927	WORD	wordpools/wasnorm_wordpool.txt	LTP074	ltpFR	4	11	-1	ARM	38	n/a	n/a	-1	1.0	1.0	1	upper	Verdana.ttf
1604778	WORD	wordpools/wasnorm_wordpool.txt	LTP074	ltpFR	4	11	-1	DRESSER	496	n/a	n/a	-1	1.0	1.0	1	upper	Verdana.ttf
1608635	WORD	wordpools/wasnorm_wordpool.txt	LTP074	ltpFR	4	11	-1	TIMBER	1469	n/a	n/a	-1	1.0	1.0	1	upper	Verdana.ttf
1612476	WORD	wordpools/wasnorm_wordpool.txt	LTP074	ltpFR	4	11	-1	LIMB	822	n/a	n/a	-1	1.0	1.0	1	upper	Verdana.ttf
1616626	WORD	wordpools/wasnorm_wordpool.txt	LTP074	ltpFR	4	11	-1	CHAIR	274	n/a	n/a	-1	1.0	1.0	1	upper	Verdana.ttf
1622618	REC_START	n/a	LTP074	ltpFR	4	11	n/a	n/a	n/a	n/a	n/a	n/a	n/a	n/a	n/a	n/a	n/a
1625965	REC_WORD	wordpools/wasnorm_wordpool.txt	LTP074	ltpFR	4	11	-1	TIMBER	1469	n/a	n/a	-1	n/a	n/a	n/a	n/a	n/a
1626624	REC_WORD	wordpools/wasnorm_wordpool.txt	LTP074	ltpFR	4	11	-1	DRESSER	496	n/a	n/a	-1	n/a	n/a	n/a	n/a	n/a
1627306	REC_WORD	wordpools/wasnorm_wordpool.txt	LTP074	ltpFR	4	11	-1	LIMB	822	n/a	n/a	-1	n/a	n/a	n/a	n/a	n/a
1627891	REC_WORD	wordpools/wasnorm_wordpool.txt	LTP074	ltpFR	4	11	-1	CHAIR	274	n/a	n/a	-1	n/a	n/a	n/a	n/a	n/a
1640577	REC_WORD	wordpools/wasnorm_wordpool.txt	LTP074	ltpFR	4	11	-1	PLIERS	1089	n/a	n/a	-1	n/a	n/a	n/a	n/a	n/a
1641520	REC_WORD	wordpools/wasnorm_wordpool.txt	LTP074	ltpFR	4	11	-1	DRYER	503	n/a	n/a	-1	n/a	n/a	n/a	n/a	n/a
1642398	REC_WORD	wordpools/wasnorm_wordpool.txt	LTP074	ltpFR	4	11	-1	ARM	38	n/a	n/a	-1	n/a	n/a	n/a	n/a	n/a
1649572	REC_WORD	wordpools/wasnorm_wordpool.txt	LTP074	ltpFR	4	11	-1	SUBWAY	1400	n/a	n/a	-1	n/a	n/a	n/a	n/a	n/a
1650308	REC_WORD	wordpools/wasnorm_wordpool.txt	LTP074	ltpFR	4	11	-1	JACKET	747	n/a	n/a	-1	n/a	n/a	n/a	n/a	n/a
1650879	REC_WORD	wordpools/wasnorm_wordpool.txt	LTP074	ltpFR	4	11	-1	BANDANNA	80	n/a	n/a	-1	n/a	n/a	n/a	n/a	n/a
1665376	REC_WORD	wordpools/wasnorm_wordpool.txt	LTP074	ltpFR	4	11	-1	LEAF	808	n/a	n/a	-1	n/a	n/a	n/a	n/a	n/a
1665994	REC_WORD	wordpools/wasnorm_wordpool.txt	LTP074	ltpFR	4	11	-1	LOG	841	n/a	n/a	-1	n/a	n/a	n/a	n/a	n/a
1706361	WORD	wordpools/wasnorm_wordpool.txt	LTP074	ltpFR	4	12	0	SIBLING	1301	n/a	n/a	1	0.422607421875	0.5869140625	0	lower	zerothre.ttf
1710420	WORD	wordpools/wasnorm_wordpool.txt	LTP074	ltpFR	4	12	0	MEADOW	881	n/a	n/a	1	0.422607421875	0.5869140625	0	lower	zerothre.ttf
1714253	WORD	wordpools/wasnorm_wordpool.txt	LTP074	ltpFR	4	12	0	NECKLACE	940	n/a	n/a	0	0.422607421875	0.5869140625	0	lower	zerothre.ttf
1718219	WORD	wordpools/wasnorm_wordpool.txt	LTP074	ltpFR	4	12	1	SAPPHIRE	1234	n/a	n/a	0	0.57763671875	0.412841796875	1	upper	amplitud.ttf
1722377	WORD	wordpools/wasnorm_wordpool.txt	LTP074	ltpFR	4	12	1	LITERATURE	831	n/a	n/a	0	0.57763671875	0.412841796875	1	upper	amplitud.ttf
1726518	WORD	wordpools/wasnorm_wordpool.txt	LTP074	ltpFR	4	12	1	KID	775	n/a	n/a	1	0.57763671875	0.412841796875	1	upper	amplitud.ttf
1730335	WORD	wordpools/wasnorm_wordpool.txt	LTP074	ltpFR	4	12	1	VEHICLE	1553	n/a	n/a	1	0.57763671875	0.412841796875	1	upper	amplitud.ttf
1734543	WORD	wordpools/wasnorm_wordpool.txt	LTP074	ltpFR	4	12	1	PORCH	1106	n/a	n/a	0	0.57763671875	0.412841796875	1	upper	amplitud.ttf
1738584	WORD	wordpools/wasnorm_wordpool.txt	LTP074	ltpFR	4	12	0	LAMP	798	n/a	n/a	0	0.422607421875	0.5869140625	0	lower	zerothre.ttf
1742692	WORD	wordpools/wasnorm_wordpool.txt	LTP074	ltpFR	4	12	0	CHEMIST	292	n/a	n/a	1	0.422607421875	0.5869140625	0	lower	zerothre.ttf
1746785	WORD	wordpools/wasnorm_wordpool.txt	LTP074	ltpFR	4	12	0	BOOK	149	n/a	n/a	0	0.422607421875	0.5869140625	0	lower	zerothre.ttf
1750825	WORD	wordpools/wasnorm_wordpool.txt	LTP074	ltpFR	4	12	0	FLUTE	585	n/a	n/a	0	0.422607421875	0.5869140625	0	lower	zerothre.ttf
1754716	WORD	wordpools/wasnorm_wordpool.txt	LTP074	ltpFR	4	12	0	MICROPHONE	890	n/a	n/a	0	0.422607421875	0.5869140625	0	lower	zerothre.ttf
1758699	WORD	wordpools/wasnorm_wordpool.txt	LTP074	ltpFR	4	12	1	BUGGY	188	n/a	n/a	0	0.57763671875	0.412841796875	1	upper	amplitud.ttf
1762557	WORD	wordpools/wasnorm_wordpool.txt	LTP074	ltpFR	4	12	1	COOK	372	n/a	n/a	1	0.57763671875	0.412841796875	1	upper	amplitud.ttf
1766557	WORD	wordpools/wasnorm_wordpool.txt	LTP074	ltpFR	4	12	1	TWIN	1528	n/a	n/a	1	0.57763671875	0.412841796875	1	upper	amplitud.ttf
1772549	REC_START	n/a	LTP074	ltpFR	4	12	n/a	n/a	n/a	n/a	n/a	n/a	n/a	n/a	n/a	n/a	n/a
1773053	REC_WORD	wordpools/wasnorm_wordpool.txt	LTP074	ltpFR	4	12	0	MICROPHONE	890	n/a	n/a	0	n/a	n/a	n/a	n/a	n/a
1773851	REC_WORD	wordpools/wasnorm_wordpool.txt	LTP074	ltpFR	4	12	1	TWIN	1528	n/a	n/a	1	n/a	n/a	n/a	n/a	n/a
1774509	REC_WORD	wordpools/wasnorm_wordpool.txt	LTP074	ltpFR	4	12	1	COOK	372	n/a	n/a	1	n/a	n/a	n/a	n/a	n/a
1775118	REC_WORD	wordpools/wasnorm_wordpool.txt	LTP074	ltpFR	4	12	n/a	BUDDY	-1	n/a	n/a	n/a	n/a	n/a	n/a	n/a	n/a
1778251	REC_WORD	wordpools/wasnorm_wordpool.txt	LTP074	ltpFR	4	12	1	VEHICLE	1553	n/a	n/a	1	n/a	n/a	n/a	n/a	n/a
1778981	REC_WORD	wordpools/wasnorm_wordpool.txt	LTP074	ltpFR	4	12	1	PORCH	1106	n/a	n/a	0	n/a	n/a	n/a	n/a	n/a
1779518	REC_WORD	wordpools/wasnorm_wordpool.txt	LTP074	ltpFR	4	12	0	LAMP	798	n/a	n/a	0	n/a	n/a	n/a	n/a	n/a
1783758	REC_WORD	wordpools/wasnorm_wordpool.txt	LTP074	ltpFR	4	12	0	SIBLING	1301	n/a	n/a	1	n/a	n/a	n/a	n/a	n/a
1784561	REC_WORD	wordpools/wasnorm_wordpool.txt	LTP074	ltpFR	4	12	0	MEADOW	881	n/a	n/a	1	n/a	n/a	n/a	n/a	n/a
1785769	REC_WORD	wordpools/wasnorm_wordpool.txt	LTP074	ltpFR	4	12	0	NECKLACE	940	n/a	n/a	0	n/a	n/a	n/a	n/a	n/a
1791052	REC_WORD	wordpools/wasnorm_wordpool.txt	LTP074	ltpFR	4	12	1	SAPPHIRE	1234	n/a	n/a	0	n/a	n/a	n/a	n/a	n/a
1791828	REC_WORD	wordpools/wasnorm_wordpool.txt	LTP074	ltpFR	4	12	1	LITERATURE	831	n/a	n/a	0	n/a	n/a	n/a	n/a	n/a
1792838	REC_WORD	wordpools/wasnorm_wordpool.txt	LTP074	ltpFR	4	12	1	KID	775	n/a	n/a	1	n/a	n/a	n/a	n/a	n/a
2141472	WORD	wordpools/wasnorm_wordpool.txt	LTP074	ltpFR	4	13	0	CUSHION	428	n/a	n/a	1	0.422607421875	0.5869140625	0	lower	zerothre.ttf
2145638	WORD	wordpools/wasnorm_wordpool.txt	LTP074	ltpFR	4	13	0	SILVERWARE	1308	n/a	n/a	0	0.422607421875	0.5869140625	0	lower	zerothre.ttf
2149696	WORD	wordpools/wasnorm_wordpool.txt	LTP074	ltpFR	4	13	0	FRAME	600	n/a	n/a	1	0.422607421875	0.5869140625	0	lower	zerothre.ttf
2153596	WORD	wordpools/wasnorm_wordpool.txt	LTP074	ltpFR	4	13	0	TABLE	1426	n/a	n/a	1	0.422607421875	0.5869140625	0	lower	zerothre.ttf
2157420	WORD	wordpools/wasnorm_wordpool.txt	LTP074	ltpFR	4	13	0	CLAY	320	n/a	n/a	0	0.422607421875	0.5869140625	0	lower	zerothre.ttf
2161520	WORD	wordpools/wasnorm_wordpool.txt	LTP074	ltpFR	4	13	0	FEAST	556	n/a	n/a	0	0.422607421875	0.5869140625	0	lower	zerothre.ttf
2165562	WORD	wordpools/wasnorm_wordpool.txt	LTP074	ltpFR	4	13	0	CAB	209	n/a	n/a	1	0.422607421875	0.5869140625	0	lower	zerothre.ttf
2169470	WORD	wordpools/wasnorm_wordpool.txt	LTP074	ltpFR	4	13	0	CAR	241	n/a	n/a	1	0.422607421875	0.5869140625	0	lower	zerothre.ttf
2173411	WORD	wordpools/wasnorm_wordpool.txt	LTP074	ltpFR	4	13	0	SKI	1316	n/a	n/a	1	0.422607421875	0.5869140625	0	lower	zerothre.ttf
2177469	WORD	wordpools/wasnorm_wordpool.txt	LTP074	ltpFR	4	13	0	WATER	1594	n/a	n/a	0	0.422607421875	0.5869140625	0	lower	zerothre.ttf
2181402	WORD	wordpools/wasnorm_wordpool.txt	LTP074	ltpFR	4	13	0	SATURN	1236	n/a	n/a	1	0.422607421875	0.5869140625	0	lower	zerothre.ttf
2185293	WORD	wordpools/wasnorm_wordpool.txt	LTP074	ltpFR	4	13	0	WORLD	1622	n/a	n/a	1	0.422607421875	0.5869140625	0	lower	zerothre.ttf
2189410	WORD	wordpools/wasnorm_wordpool.txt	LTP074	ltpFR	4	13	0	OUTFIT	988	n/a	n/a	1	0.422607421875	0.5869140625	0	lower	zerothre.ttf
2193293	WORD	wordpools/wasnorm_wordpool.txt	LTP074	ltpFR	4	13	0	CANVAS	234	n/a	n/a	1	0.422607421875	0.5869140625	0	lower	zerothre.ttf
2197351	WORD	wordpools/wasnorm_wordpool.txt	LTP074	ltpFR	4	13	0	SLIDE	1326	n/a	n/a	1	0.422607421875	0.5869140625	0	lower	zerothre.ttf
2201292	WORD	wordpools/wasnorm_wordpool.txt	LTP074	ltpFR	4	13	0	SPONGE	1355	n/a	n/a	0	0.422607421875	0.5869140625	0	lower	zerothre.ttf
2207026	REC_START	n/a	LTP074	ltpFR	4	13	n/a	n/a	n/a	n/a	n/a	n/a	n/a	n/a	n/a	n/a	n/a
2207440	REC_WORD	wordpools/wasnorm_wordpool.txt	LTP074	ltpFR	4	13	0	CANVAS	234	n/a	n/a	1	n/a	n/a	n/a	n/a	n/a
2208118	REC_WORD	wordpools/wasnorm_wordpool.txt	LTP074	ltpFR	4	13	0	OUTFIT	988	n/a	n/a	1	n/a	n/a	n/a	n/a	n/a
2208635	REC_WORD	wordpools/wasnorm_wordpool.txt	LTP074	ltpFR	4	13	0	SLIDE	1326	n/a	n/a	1	n/a	n/a	n/a	n/a	n/a
2209216	REC_WORD	wordpools/wasnorm_wordpool.txt	LTP074	ltpFR	4	13	0	SPONGE	1355	n/a	n/a	0	n/a	n/a	n/a	n/a	n/a
2210712	REC_WORD	wordpools/wasnorm_wordpool.txt	LTP074	ltpFR	4	13	0	SATURN	1236	n/a	n/a	1	n/a	n/a	n/a	n/a	n/a
2211468	REC_WORD	wordpools/wasnorm_wordpool.txt	LTP074	ltpFR	4	13	0	WATER	1594	n/a	n/a	0	n/a	n/a	n/a	n/a	n/a
2211935	REC_WORD	wordpools/wasnorm_wordpool.txt	LTP074	ltpFR	4	13	0	WORLD	1622	n/a	n/a	1	n/a	n/a	n/a	n/a	n/a
2213456	REC_WORD	wordpools/wasnorm_wordpool.txt	LTP074	ltpFR	4	13	0	CAB	209	n/a	n/a	1	n/a	n/a	n/a	n/a	n/a
2214055	REC_WORD	wordpools/wasnorm_wordpool.txt	LTP074	ltpFR	4	13	0	CAR	241	n/a	n/a	1	n/a	n/a	n/a	n/a	n/a
2214477	REC_WORD	wordpools/wasnorm_wordpool.txt	LTP074	ltpFR	4	13	0	SKI	1316	n/a	n/a	1	n/a	n/a	n/a	n/a	n/a
2219323	REC_WORD	wordpools/wasnorm_wordpool.txt	LTP074	ltpFR	4	13	0	CUSHION	428	n/a	n/a	1	n/a	n/a	n/a	n/a	n/a
2220630	REC_WORD	wordpools/wasnorm_wordpool.txt	LTP074	ltpFR	4	13	0	SILVERWARE	1308	n/a	n/a	0	n/a	n/a	n/a	n/a	n/a
2221370	REC_WORD	wordpools/wasnorm_wordpool.txt	LTP074	ltpFR	4	13	0	FRAME	600	n/a	n/a	1	n/a	n/a	n/a	n/a	n/a
2223543	REC_WORD	wordpools/wasnorm_wordpool.txt	LTP074	ltpFR	4	13	0	CLAY	320	n/a	n/a	0	n/a	n/a	n/a	n/a	n/a
2224063	REC_WORD	wordpools/wasnorm_wordpool.txt	LTP074	ltpFR	4	13	0	TABLE	1426	n/a	n/a	1	n/a	n/a	n/a	n/a	n/a
2224505	REC_WORD	wordpools/wasnorm_wordpool.txt	LTP074	ltpFR	4	13	0	FEAST	556	n/a	n/a	0	n/a	n/a	n/a	n/a	n/a
2285428	WORD	wordpools/wasnorm_wordpool.txt	LTP074	ltpFR	4	14	0	PUPIL	1143	n/a	n/a	0	0.422607421875	0.5869140625	0	lower	zerothre.ttf
2289428	WORD	wordpools/wasnorm_wordpool.txt	LTP074	ltpFR	4	14	0	CAKE	219	n/a	n/a	0	0.422607421875	0.5869140625	0	lower	zerothre.ttf
2293452	WORD	wordpools/wasnorm_wordpool.txt	LTP074	ltpFR	4	14	0	KNAPSACK	783	n/a	n/a	0	0.422607421875	0.5869140625	0	lower	zerothre.ttf
2297527	WORD	wordpools/wasnorm_wordpool.txt	LTP074	ltpFR	4	14	0	SUPPER	1411	n/a	n/a	1	0.422607421875	0.5869140625	0	lower	zerothre.ttf
2301352	WORD	wordpools/wasnorm_wordpool.txt	LTP074	ltpFR	4	14	0	CHOCOLATE	306	n/a	n/a	0	0.422607421875	0.5869140625	0	lower	zerothre.ttf
2305551	WORD	wordpools/wasnorm_wordpool.txt	LTP074	ltpFR	4	14	0	PAINTING	1005	n/a	n/a	1	0.422607421875	0.5869140625	0	lower	zerothre.ttf
2309501	WORD	wordpools/wasnorm_wordpool.txt	LTP074	ltpFR	4	14	0	SACK	1220	n/a	n/a	0	0.422607421875	0.5869140625	0	lower	zerothre.ttf
2313659	WORD	wordpools/wasnorm_wordpool.txt	LTP074	ltpFR	4	14	0	PRIEST	1122	n/a	n/a	1	0.422607421875	0.5869140625	0	lower	zerothre.ttf
2317584	WORD	wordpools/wasnorm_wordpool.txt	LTP074	ltpFR	4	14	0	TICK	1463	n/a	n/a	0	0.422607421875	0.5869140625	0	lower	zerothre.ttf
2321400	WORD	wordpools/wasnorm_wordpool.txt	LTP074	ltpFR	4	14	0	MUSEUM	933	n/a	n/a	1	0.422607421875	0.5869140625	0	lower	zerothre.ttf
2325208	WORD	wordpools/wasnorm_wordpool.txt	LTP074	ltpFR	4	14	0	FIGHTER	564	n/a	n/a	1	0.422607421875	0.5869140625	0	lower	zerothre.ttf
2329191	WORD	wordpools/wasnorm_wordpool.txt	LTP074	ltpFR	4	14	0	BLACKBOARD	133	n/a	n/a	1	0.422607421875	0.5869140625	0	lower	zerothre.ttf
2333008	WORD	wordpools/wasnorm_wordpool.txt	LTP074	ltpFR	4	14	0	WRIST	1626	n/a	n/a	0	0.422607421875	0.5869140625	0	lower	zerothre.ttf
2336841	WORD	wordpools/wasnorm_wordpool.txt	LTP074	ltpFR	4	14	0	HAND	683	n/a	n/a	0	0.422607421875	0.5869140625	0	lower	zerothre.ttf
2340849	WORD	wordpools/wasnorm_wordpool.txt	LTP074	ltpFR	4	14	0	FEATHER	557	n/a	n/a	0	0.422607421875	0.5869140625	0	lower	zerothre.ttf
2344949	WORD	wordpools/wasnorm_wordpool.txt	LTP074	ltpFR	4	14	0	SPARROW	1347	n/a	n/a	0	0.422607421875	0.5869140625	0	lower	zerothre.ttf
2350707	REC_START	n/a	LTP074	ltpFR	4	14	n/a	n/a	n/a	n/a	n/a	n/a	n/a	n/a	n/a	n/a	n/a
2351769	REC_WORD	wordpools/wasnorm_wordpool.txt	LTP074	ltpFR	4	14	0	WRIST	1626	n/a	n/a	0	n/a	n/a	n/a	n/a	n/a
2352438	REC_WORD	wordpools/wasnorm_wordpool.txt	LTP074	ltpFR	4	14	0	HAND	683	n/a	n/a	0	n/a	n/a	n/a	n/a	n/a
2353121	REC_WORD	wordpools/wasnorm_wordpool.txt	LTP074	ltpFR	4	14	0	SPARROW	1347	n/a	n/a	0	n/a	n/a	n/a	n/a	n/a
2353700	REC_WORD	wordpools/wasnorm_wordpool.txt	LTP074	ltpFR	4	14	0	FEATHER	557	n/a	n/a	0	n/a	n/a	n/a	n/a	n/a
2355331	REC_WORD	wordpools/wasnorm_wordpool.txt	LTP074	ltpFR	4	14	0	MUSEUM	933	n/a	n/a	1	n/a	n/a	n/a	n/a	n/a
2356045	REC_WORD	wordpools/wasnorm_wordpool.txt	LTP074	ltpFR	4	14	0	BLACKBOARD	133	n/a	n/a	1	n/a	n/a	n/a	n/a	n/a
2356618	REC_WORD	wordpools/wasnorm_wordpool.txt	LTP074	ltpFR	4	14	0	FIGHTER	564	n/a	n/a	1	n/a	n/a	n/a	n/a	n/a
2359612	REC_WORD	wordpools/wasnorm_wordpool.txt	LTP074	ltpFR	4	14	0	TICK	1463	n/a	n/a	0	n/a	n/a	n/a	n/a	n/a
2360240	REC_WORD	wordpools/wasnorm_wordpool.txt	LTP074	ltpFR	4	14	0	SACK	1220	n/a	n/a	0	n/a	n/a	n/a	n/a	n/a
2360934	REC_WORD	wordpools/wasnorm_wordpool.txt	LTP074	ltpFR	4	14	0	PRIEST	1122	n/a	n/a	1	n/a	n/a	n/a	n/a	n/a
2365189	REC_WORD	wordpools/wasnorm_wordpool.txt	LTP074	ltpFR	4	14	0	PUPIL	1143	n/a	n/a	0	n/a	n/a	n/a	n/a	n/a
2365840	REC_WORD	wordpools/wasnorm_wordpool.txt	LTP074	ltpFR	4	14	0	CAKE	219	n/a	n/a	0	n/a	n/a	n/a	n/a	n/a
2366271	REC_WORD	wordpools/wasnorm_wordpool.txt	LTP074	ltpFR	4	14	0	KNAPSACK	783	n/a	n/a	0	n/a	n/a	n/a	n/a	n/a
2370417	REC_WORD	wordpools/wasnorm_wordpool.txt	LTP074	ltpFR	4	14	0	CHOCOLATE	306	n/a	n/a	0	n/a	n/a	n/a	n/a	n/a
2371086	REC_WORD	wordpools/wasnorm_wordpool.txt	LTP074	ltpFR	4	14	0	SUPPER	1411	n/a	n/a	1	n/a	n/a	n/a	n/a	n/a
2372128	REC_WORD	wordpools/wasnorm_wordpool.txt	LTP074	ltpFR	4	14	0	PAINTING	1005	n/a	n/a	1	n/a	n/a	n/a	n/a	n/a
2437875	WORD	wordpools/wasnorm_wordpool.txt	LTP074	ltpFR	4	15	-1	PURSE	1145	n/a	n/a	-1	1.0	1.0	1	upper	Verdana.ttf
2441983	WORD	wordpools/wasnorm_wordpool.txt	LTP074	ltpFR	4	15	-1	POCKETBOOK	1094	n/a	n/a	-1	1.0	1.0	1	upper	Verdana.ttf
2445991	WORD	wordpools/wasnorm_wordpool.txt	LTP074	ltpFR	4	15	-1	TOWEL	1489	n/a	n/a	-1	1.0	1.0	1	upper	Verdana.ttf
2449991	WORD	wordpools/wasnorm_wordpool.txt	LTP074	ltpFR	4	15	-1	SURVEY	1414	n/a	n/a	-1	1.0	1.0	1	upper	Verdana.ttf
2453874	WORD	wordpools/wasnorm_wordpool.txt	LTP074	ltpFR	4	15	-1	ARTERY	41	n/a	n/a	-1	1.0	1.0	1	upper	Verdana.ttf
2458032	WORD	wordpools/wasnorm_wordpool.txt	LTP074	ltpFR	4	15	-1	COOLER	375	n/a	n/a	-1	1.0	1.0	1	upper	Verdana.ttf
2462007	WORD	wordpools/wasnorm_wordpool.txt	LTP074	ltpFR	4	15	-1	CROWN	415	n/a	n/a	-1	1.0	1.0	1	upper	Verdana.ttf
2465915	WORD	wordpools/wasnorm_wordpool.txt	LTP074	ltpFR	4	15	-1	GIRAFFE	636	n/a	n/a	-1	1.0	1.0	1	upper	Verdana.ttf
2469956	WORD	wordpools/wasnorm_wordpool.txt	LTP074	ltpFR	4	15	-1	COACH	331	n/a	n/a	-1	1.0	1.0	1	upper	Verdana.ttf
2473898	WORD	wordpools/wasnorm_wordpool.txt	LTP074	ltpFR	4	15	-1	CHEERLEADER	288	n/a	n/a	-1	1.0	1.0	1	upper	Verdana.ttf
2477798	WORD	wordpools/wasnorm_wordpool.txt	LTP074	ltpFR	4	15	-1	VAMPIRE	1547	n/a	n/a	-1	1.0	1.0	1	upper	Verdana.ttf
2481947	WORD	wordpools/wasnorm_wordpool.txt	LTP074	ltpFR	4	15	-1	SEASHORE	1263	n/a	n/a	-1	1.0	1.0	1	upper	Verdana.ttf
2486088	WORD	wordpools/wasnorm_wordpool.txt	LTP074	ltpFR	4	15	-1	BEAST	108	n/a	n/a	-1	1.0	1.0	1	upper	Verdana.ttf
2490188	WORD	wordpools/wasnorm_wordpool.txt	LTP074	ltpFR	4	15	-1	DYNAMITE	511	n/a	n/a	-1	1.0	1.0	1	upper	Verdana.ttf
2494205	WORD	wordpools/wasnorm_wordpool.txt	LTP074	ltpFR	4	15	-1	GUM	672	n/a	n/a	-1	1.0	1.0	1	upper	Verdana.ttf
2498363	WORD	wordpools/wasnorm_wordpool.txt	LTP074	ltpFR	4	15	-1	EAR	513	n/a	n/a	-1	1.0	1.0	1	upper	Verdana.ttf
2503988	REC_START	n/a	LTP074	ltpFR	4	15	n/a	n/a	n/a	n/a	n/a	n/a	n/a	n/a	n/a	n/a	n/a
2504571	REC_WORD	wordpools/wasnorm_wordpool.txt	LTP074	ltpFR	4	15	-1	BEAST	108	n/a	n/a	-1	n/a	n/a	n/a	n/a	n/a
2505110	REC_WORD	wordpools/wasnorm_wordpool.txt	LTP074	ltpFR	4	15	-1	GUM	672	n/a	n/a	-1	n/a	n/a	n/a	n/a	n/a
2505669	REC_WORD	wordpools/wasnorm_wordpool.txt	LTP074	ltpFR	4	15	-1	DYNAMITE	511	n/a	n/a	-1	n/a	n/a	n/a	n/a	n/a
2506268	REC_WORD	wordpools/wasnorm_wordpool.txt	LTP074	ltpFR	4	15	-1	EAR	513	n/a	n/a	-1	n/a	n/a	n/a	n/a	n/a
2507465	REC_WORD	wordpools/wasnorm_wordpool.txt	LTP074	ltpFR	4	15	-1	CHEERLEADER	288	n/a	n/a	-1	n/a	n/a	n/a	n/a	n/a
2508119	REC_WORD	wordpools/wasnorm_wordpool.txt	LTP074	ltpFR	4	15	-1	VAMPIRE	1547	n/a	n/a	-1	n/a	n/a	n/a	n/a	n/a
2508677	REC_WORD	wordpools/wasnorm_wordpool.txt	LTP074	ltpFR	4	15	-1	SEASHORE	1263	n/a	n/a	-1	n/a	n/a	n/a	n/a	n/a
2516674	REC_WORD	wordpools/wasnorm_wordpool.txt	LTP074	ltpFR	4	15	-1	COOLER	375	n/a	n/a	-1	n/a	n/a	n/a	n/a	n/a
2517304	REC_WORD	wordpools/wasnorm_wordpool.txt	LTP074	ltpFR	4	15	-1	ARTERY	41	n/a	n/a	-1	n/a	n/a	n/a	n/a	n/a
2517753	REC_WORD	wordpools/wasnorm_wordpool.txt	LTP074	ltpFR	4	15	-1	SURVEY	1414	n/a	n/a	-1	n/a	n/a	n/a	n/a	n/a
2521872	REC_WORD	wordpools/wasnorm_wordpool.txt	LTP074	ltpFR	4	15	-1	PURSE	1145	n/a	n/a	-1	n/a	n/a	n/a	n/a	n/a
2522441	REC_WORD	wordpools/wasnorm_wordpool.txt	LTP074	ltpFR	4	15	-1	POCKETBOOK	1094	n/a	n/a	-1	n/a	n/a	n/a	n/a	n/a
2523109	REC_WORD	wordpools/wasnorm_wordpool.txt	LTP074	ltpFR	4	15	-1	TOWEL	1489	n/a	n/a	-1	n/a	n/a	n/a	n/a	n/a
2524486	REC_WORD	wordpools/wasnorm_wordpool.txt	LTP074	ltpFR	4	15	-1	CROWN	415	n/a	n/a	-1	n/a	n/a	n/a	n/a	n/a
2525047	REC_WORD	wordpools/wasnorm_wordpool.txt	LTP074	ltpFR	4	15	-1	GIRAFFE	636	n/a	n/a	-1	n/a	n/a	n/a	n/a	n/a
2525674	REC_WORD	wordpools/wasnorm_wordpool.txt	LTP074	ltpFR	4	15	-1	COACH	331	n/a	n/a	-1	n/a	n/a	n/a	n/a	n/a
2590323	WORD	wordpools/wasnorm_wordpool.txt	LTP074	ltpFR	4	16	1	BOTTLE	153	n/a	n/a	0	0.57763671875	0.412841796875	1	upper	amplitud.ttf
2594306	WORD	wordpools/wasnorm_wordpool.txt	LTP074	ltpFR	4	16	1	BEER	114	n/a	n/a	0	0.57763671875	0.412841796875	1	upper	amplitud.ttf
2598347	WORD	wordpools/wasnorm_wordpool.txt	LTP074	ltpFR	4	16	1	BARREL	91	n/a	n/a	0	0.57763671875	0.412841796875	1	upper	amplitud.ttf
2602488	WORD	wordpools/wasnorm_wordpool.txt	LTP074	ltpFR	4	16	1	VELVET	1555	n/a	n/a	0	0.57763671875	0.412841796875	1	upper	amplitud.ttf
2606546	WORD	wordpools/wasnorm_wordpool.txt	LTP074	ltpFR	4	16	1	BUNNY	198	n/a	n/a	1	0.57763671875	0.412841796875	1	upper	amplitud.ttf
2610604	WORD	wordpools/wasnorm_wordpool.txt	LTP074	ltpFR	4	16	1	POET	1095	n/a	n/a	1	0.57763671875	0.412841796875	1	upper	amplitud.ttf
2614763	WORD	wordpools/wasnorm_wordpool.txt	LTP074	ltpFR	4	16	1	AUTHOR	61	n/a	n/a	1	0.57763671875	0.412841796875	1	upper	amplitud.ttf
2618887	WORD	wordpools/wasnorm_wordpool.txt	LTP074	ltpFR	4	16	1	IRON	744	n/a	n/a	0	0.57763671875	0.412841796875	1	upper	amplitud.ttf
2622788	WORD	wordpools/wasnorm_wordpool.txt	LTP074	ltpFR	4	16	1	HAMMER	680	n/a	n/a	0	0.57763671875	0.412841796875	1	upper	amplitud.ttf
2626928	WORD	wordpools/wasnorm_wordpool.txt	LTP074	ltpFR	4	16	1	DUNGEON	507	n/a	n/a	0	0.57763671875	0.412841796875	1	upper	amplitud.ttf
2630787	WORD	wordpools/wasnorm_wordpool.txt	LTP074	ltpFR	4	16	1	PRAIRIE	1118	n/a	n/a	0	0.57763671875	0.412841796875	1	upper	amplitud.ttf
2634669	WORD	wordpools/wasnorm_wordpool.txt	LTP074	ltpFR	4	16	1	MAILMAN	858	n/a	n/a	1	0.57763671875	0.412841796875	1	upper	amplitud.ttf
2638802	WORD	wordpools/wasnorm_wordpool.txt	LTP074	ltpFR	4	16	1	TAVERN	1437	n/a	n/a	0	0.57763671875	0.412841796875	1	upper	amplitud.ttf
2642902	WORD	wordpools/wasnorm_wordpool.txt	LTP074	ltpFR	4	16	1	PADDING	999	n/a	n/a	0	0.57763671875	0.412841796875	1	upper	amplitud.ttf
2646902	WORD	wordpools/wasnorm_wordpool.txt	LTP074	ltpFR	4	16	1	COPIER	377	n/a	n/a	0	0.57763671875	0.412841796875	1	upper	amplitud.ttf
2650735	WORD	wordpools/wasnorm_wordpool.txt	LTP074	ltpFR	4	16	1	MAGICIAN	854	n/a	n/a	1	0.57763671875	0.412841796875	1	upper	amplitud.ttf
2656352	REC_START	n/a	LTP074	ltpFR	4	16	n/a	n/a	n/a	n/a	n/a	n/a	n/a	n/a	n/a	n/a	n/a
2657714	REC_WORD	wordpools/wasnorm_wordpool.txt	LTP074	ltpFR	4	16	1	PADDING	999	n/a	n/a	0	n/a	n/a	n/a	n/a	n/a
2658462	REC_WORD	wordpools/wasnorm_wordpool.txt	LTP074	ltpFR	4	16	1	COPIER	377	n/a	n/a	0	n/a	n/a	n/a	n/a	n/a
2659140	REC_WORD	wordpools/wasnorm_wordpool.txt	LTP074	ltpFR	4	16	1	MAGICIAN	854	n/a	n/a	1	n/a	n/a	n/a	n/a	n/a
2661799	REC_WORD	wordpools/wasnorm_wordpool.txt	LTP074	ltpFR	4	16	1	PRAIRIE	1118	n/a	n/a	0	n/a	n/a	n/a	n/a	n/a
2662667	REC_WORD	wordpools/wasnorm_wordpool.txt	LTP074	ltpFR	4	16	1	DUNGEON	507	n/a	n/a	0	n/a	n/a	n/a	n/a	n/a
2665012	REC_WORD	wordpools/wasnorm_wordpool.txt	LTP074	ltpFR	4	16	1	MAILMAN	858	n/a	n/a	1	n/a	n/a	n/a	n/a	n/a
2667831	REC_WORD	wordpools/wasnorm_wordpool.txt	LTP074	ltpFR	4	16	1	COPIER	377	n/a	n/a	0	n/a	n/a	n/a	n/a	n/a
2672375	REC_WORD	wordpools/wasnorm_wordpool.txt	LTP074	ltpFR	4	16	1	VELVET	1555	n/a	n/a	0	n/a	n/a	n/a	n/a	n/a
2673064	REC_WORD	wordpools/wasnorm_wordpool.txt	LTP074	ltpFR	4	16	1	BUNNY	198	n/a	n/a	1	n/a	n/a	n/a	n/a	n/a
2673598	REC_WORD	wordpools/wasnorm_wordpool.txt	LTP074	ltpFR	4	16	1	POET	1095	n/a	n/a	1	n/a	n/a	n/a	n/a	n/a
2675823	REC_WORD	wordpools/wasnorm_wordpool.txt	LTP074	ltpFR	4	16	1	BEER	114	n/a	n/a	0	n/a	n/a	n/a	n/a	n/a
2676391	REC_WORD	wordpools/wasnorm_wordpool.txt	LTP074	ltpFR	4	16	1	BOTTLE	153	n/a	n/a	0	n/a	n/a	n/a	n/a	n/a
2678187	REC_WORD	wordpools/wasnorm_wordpool.txt	LTP074	ltpFR	4	16	1	BARREL	91	n/a	n/a	0	n/a	n/a	n/a	n/a	n/a
2720551	REC_WORD	wordpools/wasnorm_wordpool.txt	LTP074	ltpFR	4	16	1	TAVERN	1437	n/a	n/a	0	n/a	n/a	n/a	n/a	n/a
2722566	REC_WORD	wordpools/wasnorm_wordpool.txt	LTP074	ltpFR	4	16	1	PADDING	999	n/a	n/a	0	n/a	n/a	n/a	n/a	n/a
2747004	REC_START	n/a	LTP074	ltpFR	4	n/a	n/a	n/a	n/a	n/a	n/a	n/a	n/a	n/a	n/a	n/a	n/a
2747847	FFR_REC_WORD	wordpools/wasnorm_wordpool.txt	LTP074	ltpFR	4	n/a	1	TAVERN	1437	n/a	n/a	0	n/a	n/a	n/a	n/a	n/a
2748565	FFR_REC_WORD	wordpools/wasnorm_wordpool.txt	LTP074	ltpFR	4	n/a	1	PADDING	999	n/a	n/a	0	n/a	n/a	n/a	n/a	n/a
2749423	FFR_REC_WORD	wordpools/wasnorm_wordpool.txt	LTP074	ltpFR	4	n/a	-1	CROWN	415	n/a	n/a	-1	n/a	n/a	n/a	n/a	n/a
2750207	FFR_REC_WORD	wordpools/wasnorm_wordpool.txt	LTP074	ltpFR	4	n/a	-1	GIRAFFE	636	n/a	n/a	-1	n/a	n/a	n/a	n/a	n/a
2751100	FFR_REC_WORD	wordpools/wasnorm_wordpool.txt	LTP074	ltpFR	4	n/a	-1	COACH	331	n/a	n/a	-1	n/a	n/a	n/a	n/a	n/a
2752417	FFR_REC_WORD	wordpools/wasnorm_wordpool.txt	LTP074	ltpFR	4	n/a	-1	BEAST	108	n/a	n/a	-1	n/a	n/a	n/a	n/a	n/a
2753050	FFR_REC_WORD	wordpools/wasnorm_wordpool.txt	LTP074	ltpFR	4	n/a	-1	DYNAMITE	511	n/a	n/a	-1	n/a	n/a	n/a	n/a	n/a
2755400	FFR_REC_WORD	wordpools/wasnorm_wordpool.txt	LTP074	ltpFR	4	n/a	1	VELVET	1555	n/a	n/a	0	n/a	n/a	n/a	n/a	n/a
2756088	FFR_REC_WORD	wordpools/wasnorm_wordpool.txt	LTP074	ltpFR	4	n/a	1	BUNNY	198	n/a	n/a	1	n/a	n/a	n/a	n/a	n/a
2756534	FFR_REC_WORD	wordpools/wasnorm_wordpool.txt	LTP074	ltpFR	4	n/a	1	POET	1095	n/a	n/a	1	n/a	n/a	n/a	n/a	n/a
2757475	FFR_REC_WORD	wordpools/wasnorm_wordpool.txt	LTP074	ltpFR	4	n/a	1	BEER	114	n/a	n/a	0	n/a	n/a	n/a	n/a	n/a
2757979	FFR_REC_WORD	wordpools/wasnorm_wordpool.txt	LTP074	ltpFR	4	n/a	1	BOTTLE	153	n/a	n/a	0	n/a	n/a	n/a	n/a	n/a
2760319	FFR_REC_WORD	wordpools/wasnorm_wordpool.txt	LTP074	ltpFR	4	n/a	1	BARREL	91	n/a	n/a	0	n/a	n/a	n/a	n/a	n/a
2762508	FFR_REC_WORD	wordpools/wasnorm_wordpool.txt	LTP074	ltpFR	4	n/a	1	MAILMAN	858	n/a	n/a	1	n/a	n/a	n/a	n/a	n/a
2763217	FFR_REC_WORD	wordpools/wasnorm_wordpool.txt	LTP074	ltpFR	4	n/a	1	PRAIRIE	1118	n/a	n/a	0	n/a	n/a	n/a	n/a	n/a
2763890	FFR_REC_WORD	wordpools/wasnorm_wordpool.txt	LTP074	ltpFR	4	n/a	1	DUNGEON	507	n/a	n/a	0	n/a	n/a	n/a	n/a	n/a
2766056	FFR_REC_WORD	wordpools/wasnorm_wordpool.txt	LTP074	ltpFR	4	n/a	-1	VAMPIRE	1547	n/a	n/a	-1	n/a	n/a	n/a	n/a	n/a
2766617	FFR_REC_WORD	wordpools/wasnorm_wordpool.txt	LTP074	ltpFR	4	n/a	-1	CHEERLEADER	288	n/a	n/a	-1	n/a	n/a	n/a	n/a	n/a
2767167	FFR_REC_WORD	wordpools/wasnorm_wordpool.txt	LTP074	ltpFR	4	n/a	-1	SEASHORE	1263	n/a	n/a	-1	n/a	n/a	n/a	n/a	n/a
2771144	FFR_REC_WORD	wordpools/wasnorm_wordpool.txt	LTP074	ltpFR	4	n/a	1	ADULT	8	n/a	n/a	1	n/a	n/a	n/a	n/a	n/a
2771720	FFR_REC_WORD	wordpools/wasnorm_wordpool.txt	LTP074	ltpFR	4	n/a	n/a	OUTLAW	989	n/a	n/a	n/a	n/a	n/a	n/a	n/a	n/a
2772241	FFR_REC_WORD	wordpools/wasnorm_wordpool.txt	LTP074	ltpFR	4	n/a	1	COUNTRY	388	n/a	n/a	0	n/a	n/a	n/a	n/a	n/a
2781890	FFR_REC_WORD	wordpools/wasnorm_wordpool.txt	LTP074	ltpFR	4	n/a	-1	PLIERS	1089	n/a	n/a	-1	n/a	n/a	n/a	n/a	n/a
2782497	FFR_REC_WORD	wordpools/wasnorm_wordpool.txt	LTP074	ltpFR	4	n/a	-1	DRYER	503	n/a	n/a	-1	n/a	n/a	n/a	n/a	n/a
2783066	FFR_REC_WORD	wordpools/wasnorm_wordpool.txt	LTP074	ltpFR	4	n/a	-1	ARM	38	n/a	n/a	-1	n/a	n/a	n/a	n/a	n/a
2784783	FFR_REC_WORD	wordpools/wasnorm_wordpool.txt	LTP074	ltpFR	4	n/a	0	SICKLE	1302	n/a	n/a	1	n/a	n/a	n/a	n/a	n/a
2785461	FFR_REC_WORD	wordpools/wasnorm_wordpool.txt	LTP074	ltpFR	4	n/a	0	TOOTHPASTE	1483	n/a	n/a	0	n/a	n/a	n/a	n/a	n/a
2787287	FFR_REC_WORD	wordpools/wasnorm_wordpool.txt	LTP074	ltpFR	4	n/a	0	GLOVE	642	n/a	n/a	0	n/a	n/a	n/a	n/a	n/a
2789692	FFR_REC_WORD	wordpools/wasnorm_wordpool.txt	LTP074	ltpFR	4	n/a	0	KNAPSACK	783	n/a	n/a	0	n/a	n/a	n/a	n/a	n/a
2792306	FFR_REC_WORD	wordpools/wasnorm_wordpool.txt	LTP074	ltpFR	4	n/a	0	PUPIL	1143	n/a	n/a	0	n/a	n/a	n/a	n/a	n/a
2793054	FFR_REC_WORD	wordpools/wasnorm_wordpool.txt	LTP074	ltpFR	4	n/a	0	CAKE	219	n/a	n/a	0	n/a	n/a	n/a	n/a	n/a
2795119	FFR_REC_WORD	wordpools/wasnorm_wordpool.txt	LTP074	ltpFR	4	n/a	0	CHOCOLATE	306	n/a	n/a	0	n/a	n/a	n/a	n/a	n/a
2795710	FFR_REC_WORD	wordpools/wasnorm_wordpool.txt	LTP074	ltpFR	4	n/a	0	SUPPER	1411	n/a	n/a	1	n/a	n/a	n/a	n/a	n/a
2796368	FFR_REC_WORD	wordpools/wasnorm_wordpool.txt	LTP074	ltpFR	4	n/a	0	PAINTING	1005	n/a	n/a	1	n/a	n/a	n/a	n/a	n/a
2797634	FFR_REC_WORD	wordpools/wasnorm_wordpool.txt	LTP074	ltpFR	4	n/a	0	CLAY	320	n/a	n/a	0	n/a	n/a	n/a	n/a	n/a
2798239	FFR_REC_WORD	wordpools/wasnorm_wordpool.txt	LTP074	ltpFR	4	n/a	0	TABLE	1426	n/a	n/a	1	n/a	n/a	n/a	n/a	n/a
2798711	FFR_REC_WORD	wordpools/wasnorm_wordpool.txt	LTP074	ltpFR	4	n/a	0	FEAST	556	n/a	n/a	0	n/a	n/a	n/a	n/a	n/a
2802952	FFR_REC_WORD	wordpools/wasnorm_wordpool.txt	LTP074	ltpFR	4	n/a	0	SHRIMP	1297	n/a	n/a	0	n/a	n/a	n/a	n/a	n/a
2803596	FFR_REC_WORD	wordpools/wasnorm_wordpool.txt	LTP074	ltpFR	4	n/a	1	SEAFOOD	1260	n/a	n/a	0	n/a	n/a	n/a	n/a	n/a
2812700	FFR_REC_WORD	wordpools/wasnorm_wordpool.txt	LTP074	ltpFR	4	n/a	0	TICK	1463	n/a	n/a	0	n/a	n/a	n/a	n/a	n/a
2813293	FFR_REC_WORD	wordpools/wasnorm_wordpool.txt	LTP074	ltpFR	4	n/a	0	SACK	1220	n/a	n/a	0	n/a	n/a	n/a	n/a	n/a
2813937	FFR_REC_WORD	wordpools/wasnorm_wordpool.txt	LTP074	ltpFR	4	n/a	0	PRIEST	1122	n/a	n/a	1	n/a	n/a	n/a	n/a	n/a
2820212	FFR_REC_WORD	wordpools/wasnorm_wordpool.txt	LTP074	ltpFR	4	n/a	1	PIGEON	1065	n/a	n/a	1	n/a	n/a	n/a	n/a	n/a
2820920	FFR_REC_WORD	wordpools/wasnorm_wordpool.txt	LTP074	ltpFR	4	n/a	1	HAWK	692	n/a	n/a	1	n/a	n/a	n/a	n/a	n/a
2826528	FFR_REC_WORD	wordpools/wasnorm_wordpool.txt	LTP074	ltpFR	4	n/a	n/a	WRITER	1627	n/a	n/a	n/a	n/a	n/a	n/a	n/a	n/a
2831028	FFR_REC_WORD	wordpools/wasnorm_wordpool.txt	LTP074	ltpFR	4	n/a	0	SUITCASE	1403	n/a	n/a	1	n/a	n/a	n/a	n/a	n/a
2831774	FFR_REC_WORD	wordpools/wasnorm_wordpool.txt	LTP074	ltpFR	4	n/a	0	ARTICLE	42	n/a	n/a	0	n/a	n/a	n/a	n/a	n/a
2832324	FFR_REC_WORD	wordpools/wasnorm_wordpool.txt	LTP074	ltpFR	4	n/a	n/a	PAGE	1001	n/a	n/a	n/a	n/a	n/a	n/a	n/a	n/a
2835568	FFR_REC_WORD	wordpools/wasnorm_wordpool.txt	LTP074	ltpFR	4	n/a	-1	TIMBER	1469	n/a	n/a	-1	n/a	n/a	n/a	n/a	n/a
2836111	FFR_REC_WORD	wordpools/wasnorm_wordpool.txt	LTP074	ltpFR	4	n/a	1	MOSQUITO	917	n/a	n/a	1	n/a	n/a	n/a	n/a	n/a
2839010	FFR_REC_WORD	wordpools/wasnorm_wordpool.txt	LTP074	ltpFR	4	n/a	1	CONCRETE	361	n/a	n/a	0	n/a	n/a	n/a	n/a	n/a
2840417	FFR_REC_WORD	wordpools/wasnorm_wordpool.txt	LTP074	ltpFR	4	n/a	n/a	COCKROACH	-1	n/a	n/a	n/a	n/a	n/a	n/a	n/a	n/a
2843799	FFR_REC_WORD	wordpools/wasnorm_wordpool.txt	LTP074	ltpFR	4	n/a	n/a	CHILD	299	n/a	n/a	n/a	n/a	n/a	n/a	n/a	n/a
2845056	FFR_REC_WORD	wordpools/wasnorm_wordpool.txt	LTP074	ltpFR	4	n/a	1	PAVEMENT	1028	n/a	n/a	0	n/a	n/a	n/a	n/a	n/a
2845619	FFR_REC_WORD	wordpools/wasnorm_wordpool.txt	LTP074	ltpFR	4	n/a	1	VEST	1559	n/a	n/a	0	n/a	n/a	n/a	n/a	n/a
2847306	FFR_REC_WORD	wordpools/wasnorm_wordpool.txt	LTP074	ltpFR	4	n/a	1	IRON	744	n/a	n/a	0	n/a	n/a	n/a	n/a	n/a
2847802	FFR_REC_WORD	wordpools/wasnorm_wordpool.txt	LTP074	ltpFR	4	n/a	1	HAMMER	680	n/a	n/a	0	n/a	n/a	n/a	n/a	n/a
2860037	FFR_REC_WORD	wordpools/wasnorm_wordpool.txt	LTP074	ltpFR	4	n/a	0	WRIST	1626	n/a	n/a	0	n/a	n/a	n/a	n/a	n/a
2860473	FFR_REC_WORD	wordpools/wasnorm_wordpool.txt	LTP074	ltpFR	4	n/a	0	HAND	683	n/a	n/a	0	n/a	n/a	n/a	n/a	n/a
2860875	FFR_REC_WORD	wordpools/wasnorm_wordpool.txt	LTP074	ltpFR	4	n/a	0	FEATHER	557	n/a	n/a	0	n/a	n/a	n/a	n/a	n/a
2862062	FFR_REC_WORD	wordpools/wasnorm_wordpool.txt	LTP074	ltpFR	4	n/a	0	SPARROW	1347	n/a	n/a	0	n/a	n/a	n/a	n/a	n/a
2877886	FFR_REC_WORD	wordpools/wasnorm_wordpool.txt	LTP074	ltpFR	4	n/a	1	PADDING	999	n/a	n/a	0	n/a	n/a	n/a	n/a	n/a
2878670	FFR_REC_WORD	wordpools/wasnorm_wordpool.txt	LTP074	ltpFR	4	n/a	n/a	PORTRAIT	1111	n/a	n/a	n/a	n/a	n/a	n/a	n/a	n/a
2880565	FFR_REC_WORD	wordpools/wasnorm_wordpool.txt	LTP074	ltpFR	4	n/a	0	FRAME	600	n/a	n/a	1	n/a	n/a	n/a	n/a	n/a
2886183	FFR_REC_WORD	wordpools/wasnorm_wordpool.txt	LTP074	ltpFR	4	n/a	n/a	DINNER	468	n/a	n/a	n/a	n/a	n/a	n/a	n/a	n/a
2889889	FFR_REC_WORD	wordpools/wasnorm_wordpool.txt	LTP074	ltpFR	4	n/a	0	SUPPER	1411	n/a	n/a	1	n/a	n/a	n/a	n/a	n/a
2904680	FFR_REC_WORD	wordpools/wasnorm_wordpool.txt	LTP074	ltpFR	4	n/a	n/a	JEAN	-1	n/a	n/a	n/a	n/a	n/a	n/a	n/a	n/a
2905274	FFR_REC_WORD	wordpools/wasnorm_wordpool.txt	LTP074	ltpFR	4	n/a	0	PANTS	1010	n/a	n/a	0	n/a	n/a	n/a	n/a	n/a
2906496	FFR_REC_WORD	wordpools/wasnorm_wordpool.txt	LTP074	ltpFR	4	n/a	0	GANGSTER	620	n/a	n/a	1	n/a	n/a	n/a	n/a	n/a
2917282	FFR_REC_WORD	wordpools/wasnorm_wordpool.txt	LTP074	ltpFR	4	n/a	1	LINT	826	n/a	n/a	0	n/a	n/a	n/a	n/a	n/a
2918479	FFR_REC_WORD	wordpools/wasnorm_wordpool.txt	LTP074	ltpFR	4	n/a	-1	WOLF	1619	n/a	n/a	-1	n/a	n/a	n/a	n/a	n/a
2919098	FFR_REC_WORD	wordpools/wasnorm_wordpool.txt	LTP074	ltpFR	4	n/a	-1	CHURCH	307	n/a	n/a	-1	n/a	n/a	n/a	n/a	n/a
2919593	FFR_REC_WORD	wordpools/wasnorm_wordpool.txt	LTP074	ltpFR	4	n/a	-1	ARENA	37	n/a	n/a	-1	n/a	n/a	n/a	n/a	n/a
2921692	FFR_REC_WORD	wordpools/wasnorm_wordpool.txt	LTP074	ltpFR	4	n/a	0	SATURN	1236	n/a	n/a	1	n/a	n/a	n/a	n/a	n/a
2922500	FFR_REC_WORD	wordpools/wasnorm_wordpool.txt	LTP074	ltpFR	4	n/a	0	WATER	1594	n/a	n/a	0	n/a	n/a	n/a	n/a	n/a
2923089	FFR_REC_WORD	wordpools/wasnorm_wordpool.txt	LTP074	ltpFR	4	n/a	n/a	PLANET	1082	n/a	n/a	n/a	n/a	n/a	n/a	n/a	n/a
2929105	FFR_REC_WORD	wordpools/wasnorm_wordpool.txt	LTP074	ltpFR	4	n/a	1	VEHICLE	1553	n/a	n/a	1	n/a	n/a	n/a	n/a	n/a
2929793	FFR_REC_WORD	wordpools/wasnorm_wordpool.txt	LTP074	ltpFR	4	n/a	1	PORCH	1106	n/a	n/a	0	n/a	n/a	n/a	n/a	n/a
2930308	FFR_REC_WORD	wordpools/wasnorm_wordpool.txt	LTP074	ltpFR	4	n/a	0	LAMP	798	n/a	n/a	0	n/a	n/a	n/a	n/a	n/a
2931948	FFR_REC_WORD	wordpools/wasnorm_wordpool.txt	LTP074	ltpFR	4	n/a	0	CAB	209	n/a	n/a	1	n/a	n/a	n/a	n/a	n/a
2932537	FFR_REC_WORD	wordpools/wasnorm_wordpool.txt	LTP074	ltpFR	4	n/a	0	CAR	241	n/a	n/a	1	n/a	n/a	n/a	n/a	n/a
2932961	FFR_REC_WORD	wordpools/wasnorm_wordpool.txt	LTP074	ltpFR	4	n/a	0	SKI	1316	n/a	n/a	1	n/a	n/a	n/a	n/a	n/a
2949424	FFR_REC_WORD	wordpools/wasnorm_wordpool.txt	LTP074	ltpFR	4	n/a	1	WHALE	1601	n/a	n/a	1	n/a	n/a	n/a	n/a	n/a
2949976	FFR_REC_WORD	wordpools/wasnorm_wordpool.txt	LTP074	ltpFR	4	n/a	1	SCALE	1241	n/a	n/a	0	n/a	n/a	n/a	n/a	n/a
2950733	FFR_REC_WORD	wordpools/wasnorm_wordpool.txt	LTP074	ltpFR	4	n/a	1	VEAL	1551	n/a	n/a	1	n/a	n/a	n/a	n/a	n/a
2974661	FFR_REC_WORD	wordpools/wasnorm_wordpool.txt	LTP074	ltpFR	4	n/a	1	BASKET	95	n/a	n/a	0	n/a	n/a	n/a	n/a	n/a
2990715	FFR_REC_WORD	wordpools/wasnorm_wordpool.txt	LTP074	ltpFR	4	n/a	1	ASIA	46	n/a	n/a	0	n/a	n/a	n/a	n/a	n/a
2991937	FFR_REC_WORD	wordpools/wasnorm_wordpool.txt	LTP074	ltpFR	4	n/a	0	SWAMP	1416	n/a	n/a	1	n/a	n/a	n/a	n/a	n/a
2996726	FFR_REC_WORD	wordpools/wasnorm_wordpool.txt	LTP074	ltpFR	4	n/a	0	SPHINX	1349	n/a	n/a	1	n/a	n/a	n/a	n/a	n/a
3000897	FFR_REC_WORD	wordpools/wasnorm_wordpool.txt	LTP074	ltpFR	4	n/a	1	LAGOON	795	n/a	n/a	0	n/a	n/a	n/a	n/a	n/a
3011114	FFR_REC_WORD	wordpools/wasnorm_wordpool.txt	LTP074	ltpFR	4	n/a	0	MICROPHONE	890	n/a	n/a	0	n/a	n/a	n/a	n/a	n/a
3012850	FFR_REC_WORD	wordpools/wasnorm_wordpool.txt	LTP074	ltpFR	4	n/a	1	TWIN	1528	n/a	n/a	1	n/a	n/a	n/a	n/a	n/a
3015898	FFR_REC_WORD	wordpools/wasnorm_wordpool.txt	LTP074	ltpFR	4	n/a	n/a	YOKE	1632	n/a	n/a	n/a	n/a	n/a	n/a	n/a	n/a
3016362	FFR_REC_WORD	wordpools/wasnorm_wordpool.txt	LTP074	ltpFR	4	n/a	-1	INTESTINE	742	n/a	n/a	-1	n/a	n/a	n/a	n/a	n/a
3017194	FFR_REC_WORD	wordpools/wasnorm_wordpool.txt	LTP074	ltpFR	4	n/a	-1	DIARY	460	n/a	n/a	-1	n/a	n/a	n/a	n/a	n/a
3020078	FFR_REC_WORD	wordpools/wasnorm_wordpool.txt	LTP074	ltpFR	4	n/a	-1	SUN	1406	n/a	n/a	-1	n/a	n/a	n/a	n/a	n/a
3020654	FFR_REC_WORD	wordpools/wasnorm_wordpool.txt	LTP074	ltpFR	4	n/a	-1	METEOR	889	n/a	n/a	-1	n/a	n/a	n/a	n/a	n/a
3021175	FFR_REC_WORD	wordpools/wasnorm_wordpool.txt	LTP074	ltpFR	4	n/a	-1	SKILLET	1317	n/a	n/a	-1	n/a	n/a	n/a	n/a	n/a
3027471	FFR_REC_WORD	wordpools/wasnorm_wordpool.txt	LTP074	ltpFR	4	n/a	1	INCENSE	735	n/a	n/a	0	n/a	n/a	n/a	n/a	n/a
3028250	FFR_REC_WORD	wordpools/wasnorm_wordpool.txt	LTP074	ltpFR	4	n/a	1	SEAT	1264	n/a	n/a	0	n/a	n/a	n/a	n/a	n/a
3028828	FFR_REC_WORD	wordpools/wasnorm_wordpool.txt	LTP074	ltpFR	4	n/a	1	BAG	69	n/a	n/a	0	n/a	n/a	n/a	n/a	n/a
3065422	REC_START	n/a	LTP074	ltpFR	4	1	n/a	n/a	n/a	n/a	n/a	n/a	n/a	n/a	n/a	n/a	n/a
3065463	RECOG_TARGET	n/a	LTP074	ltpFR	4	1	0	FEAST	556	1	4	0	n/a	n/a	n/a	n/a	n/a
3067093	RECOG_RESP	n/a	LTP074	ltpFR	4	1	0	FEAST	556	1	n/a	0	n/a	n/a	n/a	n/a	n/a
3068031	RECOG_CONF	n/a	LTP074	ltpFR	4	1	0	FEAST	556	n/a	4	0	n/a	n/a	n/a	n/a	n/a
3069605	RECOG_LURE	n/a	LTP074	ltpFR	4	1	n/a	TUNNEL	1519	1	2	n/a	n/a	n/a	n/a	n/a	n/a
3071124	RECOG_RESP	n/a	LTP074	ltpFR	4	1	n/a	TUNNEL	1519	1	n/a	n/a	n/a	n/a	n/a	n/a	n/a
3071962	RECOG_CONF	n/a	LTP074	ltpFR	4	1	n/a	TUNNEL	1519	n/a	2	n/a	n/a	n/a	n/a	n/a	n/a
3073371	RECOG_TARGET	n/a	LTP074	ltpFR	4	1	0	TYPIST	1532	0	3	1	n/a	n/a	n/a	n/a	n/a
3074526	RECOG_RESP	n/a	LTP074	ltpFR	4	1	0	TYPIST	1532	0	n/a	1	n/a	n/a	n/a	n/a	n/a
3075364	RECOG_CONF	n/a	LTP074	ltpFR	4	1	0	TYPIST	1532	n/a	3	1	n/a	n/a	n/a	n/a	n/a
3076829	RECOG_TARGET	n/a	LTP074	ltpFR	4	1	0	SOCIETY	1338	1	2	1	n/a	n/a	n/a	n/a	n/a
3079874	RECOG_RESP	n/a	LTP074	ltpFR	4	1	0	SOCIETY	1338	1	n/a	1	n/a	n/a	n/a	n/a	n/a
3080732	RECOG_CONF	n/a	LTP074	ltpFR	4	1	0	SOCIETY	1338	n/a	2	1	n/a	n/a	n/a	n/a	n/a
3082229	RECOG_LURE	n/a	LTP074	ltpFR	4	1	n/a	SPIDER	1351	0	4	n/a	n/a	n/a	n/a	n/a	n/a
3083316	RECOG_RESP	n/a	LTP074	ltpFR	4	1	n/a	SPIDER	1351	0	n/a	n/a	n/a	n/a	n/a	n/a	n/a
3084064	RECOG_CONF	n/a	LTP074	ltpFR	4	1	n/a	SPIDER	1351	n/a	4	n/a	n/a	n/a	n/a	n/a	n/a
3085520	RECOG_LURE	n/a	LTP074	ltpFR	4	1	n/a	ICE	730	0	3	n/a	n/a	n/a	n/a	n/a	n/a
3086549	RECOG_RESP	n/a	LTP074	ltpFR	4	1	n/a	ICE	730	0	n/a	n/a	n/a	n/a	n/a	n/a	n/a
3087387	RECOG_CONF	n/a	LTP074	ltpFR	4	1	n/a	ICE	730	n/a	3	n/a	n/a	n/a	n/a	n/a	n/a
3088903	RECOG_TARGET	n/a	LTP074	ltpFR	4	1	-1	TOWEL	1489	1	5	-1	n/a	n/a	n/a	n/a	n/a
3089572	RECOG_RESP	n/a	LTP074	ltpFR	4	1	-1	TOWEL	1489	1	n/a	-1	n/a	n/a	n/a	n/a	n/a
3090410	RECOG_CONF	n/a	LTP074	ltpFR	4	1	-1	TOWEL	1489	n/a	5	-1	n/a	n/a	n/a	n/a	n/a
3091936	RECOG_TARGET	n/a	LTP074	ltpFR	4	1	1	KID	775	1	4	1	n/a	n/a	n/a	n/a	n/a
3092615	RECOG_RESP	n/a	LTP074	ltpFR	4	1	1	KID	775	1	n/a	1	n/a	n/a	n/a	n/a	n/a
3093353	RECOG_CONF	n/a	LTP074	ltpFR	4	1	1	KID	775	n/a	4	1	n/a	n/a	n/a	n/a	n/a
3094787	RECOG_LURE	n/a	LTP074	ltpFR	4	1	n/a	BROTHER	179	0	3	n/a	n/a	n/a	n/a	n/a	n/a
3095608	RECOG_RESP	n/a	LTP074	ltpFR	4	1	n/a	BROTHER	179	0	n/a	n/a	n/a	n/a	n/a	n/a	n/a
3096396	RECOG_CONF	n/a	LTP074	ltpFR	4	1	n/a	BROTHER	179	n/a	3	n/a	n/a	n/a	n/a	n/a	n/a
3097886	RECOG_TARGET	n/a	LTP074	ltpFR	4	1	-1	MONASTERY	907	1	3	-1	n/a	n/a	n/a	n/a	n/a
3099050	RECOG_RESP	n/a	LTP074	ltpFR	4	1	-1	MONASTERY	907	1	n/a	-1	n/a	n/a	n/a	n/a	n/a
3099759	RECOG_CONF	n/a	LTP074	ltpFR	4	1	-1	MONASTERY	907	n/a	3	-1	n/a	n/a	n/a	n/a	n/a
3101219	RECOG_LURE	n/a	LTP074	ltpFR	4	1	n/a	MOTEL	919	0	4	n/a	n/a	n/a	n/a	n/a	n/a
3101994	RECOG_RESP	n/a	LTP074	ltpFR	4	1	n/a	MOTEL	919	0	n/a	n/a	n/a	n/a	n/a	n/a	n/a
3102862	RECOG_CONF	n/a	LTP074	ltpFR	4	1	n/a	MOTEL	919	n/a	4	n/a	n/a	n/a	n/a	n/a	n/a
3104269	RECOG_LURE	n/a	LTP074	ltpFR	4	1	n/a	BEAVER	109	0	4	n/a	n/a	n/a	n/a	n/a	n/a
3105845	RECOG_RESP	n/a	LTP074	ltpFR	4	1	n/a	BEAVER	109	0	n/a	n/a	n/a	n/a	n/a	n/a	n/a
3106793	RECOG_CONF	n/a	LTP074	ltpFR	4	1	n/a	BEAVER	109	n/a	4	n/a	n/a	n/a	n/a	n/a	n/a
3108218	RECOG_TARGET	n/a	LTP074	ltpFR	4	1	0	DRIVER	499	0	3	1	n/a	n/a	n/a	n/a	n/a
3109826	RECOG_RESP	n/a	LTP074	ltpFR	4	1	0	DRIVER	499	0	n/a	1	n/a	n/a	n/a	n/a	n/a
3110724	RECOG_CONF	n/a	LTP074	ltpFR	4	1	0	DRIVER	499	n/a	3	1	n/a	n/a	n/a	n/a	n/a
3112160	RECOG_LURE	n/a	LTP074	ltpFR	4	1	n/a	TAG	1429	0	4	n/a	n/a	n/a	n/a	n/a	n/a
3113488	RECOG_RESP	n/a	LTP074	ltpFR	4	1	n/a	TAG	1429	0	n/a	n/a	n/a	n/a	n/a	n/a	n/a
3114306	RECOG_CONF	n/a	LTP074	ltpFR	4	1	n/a	TAG	1429	n/a	4	n/a	n/a	n/a	n/a	n/a	n/a
3115735	RECOG_TARGET	n/a	LTP074	ltpFR	4	1	1	INFANT	737	0	2	1	n/a	n/a	n/a	n/a	n/a
3117149	RECOG_RESP	n/a	LTP074	ltpFR	4	1	1	INFANT	737	0	n/a	1	n/a	n/a	n/a	n/a	n/a
3117987	RECOG_CONF	n/a	LTP074	ltpFR	4	1	1	INFANT	737	n/a	2	1	n/a	n/a	n/a	n/a	n/a
3119409	RECOG_LURE	n/a	LTP074	ltpFR	4	1	n/a	HAMMOCK	681	0	4	n/a	n/a	n/a	n/a	n/a	n/a
3120851	RECOG_RESP	n/a	LTP074	ltpFR	4	1	n/a	HAMMOCK	681	0	n/a	n/a	n/a	n/a	n/a	n/a	n/a
3121649	RECOG_CONF	n/a	LTP074	ltpFR	4	1	n/a	HAMMOCK	681	n/a	4	n/a	n/a	n/a	n/a	n/a	n/a
3123142	RECOG_TARGET	n/a	LTP074	ltpFR	4	1	0	SALT	1229	1	5	0	n/a	n/a	n/a	n/a	n/a
3123904	RECOG_RESP	n/a	LTP074	ltpFR	4	1	0	SALT	1229	1	n/a	0	n/a	n/a	n/a	n/a	n/a
3124622	RECOG_CONF	n/a	LTP074	ltpFR	4	1	0	SALT	1229	n/a	5	0	n/a	n/a	n/a	n/a	n/a
3125967	RECOG_LURE	n/a	LTP074	ltpFR	4	1	n/a	OCTOPUS	971	0	5	n/a	n/a	n/a	n/a	n/a	n/a
3127027	RECOG_RESP	n/a	LTP074	ltpFR	4	1	n/a	OCTOPUS	971	0	n/a	n/a	n/a	n/a	n/a	n/a	n/a
3127785	RECOG_CONF	n/a	LTP074	ltpFR	4	1	n/a	OCTOPUS	971	n/a	5	n/a	n/a	n/a	n/a	n/a	n/a
3129284	RECOG_TARGET	n/a	LTP074	ltpFR	4	1	-1	CHAMBER	277	0	3	-1	n/a	n/a	n/a	n/a	n/a
3130688	RECOG_RESP	n/a	LTP074	ltpFR	4	1	-1	CHAMBER	277	0	n/a	-1	n/a	n/a	n/a	n/a	n/a
3131517	RECOG_CONF	n/a	LTP074	ltpFR	4	1	-1	CHAMBER	277	n/a	3	-1	n/a	n/a	n/a	n/a	n/a
3132858	RECOG_LURE	n/a	LTP074	ltpFR	4	1	n/a	ELK	526	0	5	n/a	n/a	n/a	n/a	n/a	n/a
3133742	RECOG_RESP	n/a	LTP074	ltpFR	4	1	n/a	ELK	526	0	n/a	n/a	n/a	n/a	n/a	n/a	n/a
3134590	RECOG_CONF	n/a	LTP074	ltpFR	4	1	n/a	ELK	526	n/a	5	n/a	n/a	n/a	n/a	n/a	n/a
3146098	REC_START	n/a	LTP074	ltpFR	4	2	n/a	n/a	n/a	n/a	n/a	n/a	n/a	n/a	n/a	n/a	n/a
3146132	RECOG_TARGET	n/a	LTP074	ltpFR	4	2	1	SHORTCAKE	1292	0	3	0	n/a	n/a	n/a	n/a	n/a
3147430	RECOG_RESP	n/a	LTP074	ltpFR	4	2	1	SHORTCAKE	1292	0	n/a	0	n/a	n/a	n/a	n/a	n/a
3148248	RECOG_CONF	n/a	LTP074	ltpFR	4	2	1	SHORTCAKE	1292	n/a	3	0	n/a	n/a	n/a	n/a	n/a
3149641	RECOG_TARGET	n/a	LTP074	ltpFR	4	2	1	CACTUS	215	1	5	1	n/a	n/a	n/a	n/a	n/a
3150613	RECOG_RESP	n/a	LTP074	ltpFR	4	2	1	CACTUS	215	1	n/a	1	n/a	n/a	n/a	n/a	n/a
3151381	RECOG_CONF	n/a	LTP074	ltpFR	4	2	1	CACTUS	215	n/a	5	1	n/a	n/a	n/a	n/a	n/a
3152750	RECOG_LURE	n/a	LTP074	ltpFR	4	2	n/a	BOARD	143	0	2	n/a	n/a	n/a	n/a	n/a	n/a
3153905	RECOG_RESP	n/a	LTP074	ltpFR	4	2	n/a	BOARD	143	0	n/a	n/a	n/a	n/a	n/a	n/a	n/a
3154723	RECOG_CONF	n/a	LTP074	ltpFR	4	2	n/a	BOARD	143	n/a	2	n/a	n/a	n/a	n/a	n/a	n/a
3156123	RECOG_TARGET	n/a	LTP074	ltpFR	4	2	0	SPHINX	1349	1	5	1	n/a	n/a	n/a	n/a	n/a
3156789	RECOG_RESP	n/a	LTP074	ltpFR	4	2	0	SPHINX	1349	1	n/a	1	n/a	n/a	n/a	n/a	n/a
3157517	RECOG_CONF	n/a	LTP074	ltpFR	4	2	0	SPHINX	1349	n/a	5	1	n/a	n/a	n/a	n/a	n/a
3158832	RECOG_LURE	n/a	LTP074	ltpFR	4	2	n/a	CONTRACTOR	369	0	4	n/a	n/a	n/a	n/a	n/a	n/a
3159792	RECOG_RESP	n/a	LTP074	ltpFR	4	2	n/a	CONTRACTOR	369	0	n/a	n/a	n/a	n/a	n/a	n/a	n/a
3160510	RECOG_CONF	n/a	LTP074	ltpFR	4	2	n/a	CONTRACTOR	369	n/a	4	n/a	n/a	n/a	n/a	n/a	n/a
3161906	RECOG_LURE	n/a	LTP074	ltpFR	4	2	n/a	KEEPER	769	0	3	n/a	n/a	n/a	n/a	n/a	n/a
3163014	RECOG_RESP	n/a	LTP074	ltpFR	4	2	n/a	KEEPER	769	0	n/a	n/a	n/a	n/a	n/a	n/a	n/a
3163763	RECOG_CONF	n/a	LTP074	ltpFR	4	2	n/a	KEEPER	769	n/a	3	n/a	n/a	n/a	n/a	n/a	n/a
3165039	RECOG_LURE	n/a	LTP074	ltpFR	4	2	n/a	EMPEROR	529	0	5	n/a	n/a	n/a	n/a	n/a	n/a
3166477	RECOG_RESP	n/a	LTP074	ltpFR	4	2	n/a	EMPEROR	529	0	n/a	n/a	n/a	n/a	n/a	n/a	n/a
3167205	RECOG_CONF	n/a	LTP074	ltpFR	4	2	n/a	EMPEROR	529	n/a	5	n/a	n/a	n/a	n/a	n/a	n/a
3168714	RECOG_TARGET	n/a	LTP074	ltpFR	4	2	1	DUNGEON	507	1	5	0	n/a	n/a	n/a	n/a	n/a
3169430	RECOG_RESP	n/a	LTP074	ltpFR	4	2	1	DUNGEON	507	1	n/a	0	n/a	n/a	n/a	n/a	n/a
3170168	RECOG_CONF	n/a	LTP074	ltpFR	4	2	1	DUNGEON	507	n/a	5	0	n/a	n/a	n/a	n/a	n/a
3171614	RECOG_LURE	n/a	LTP074	ltpFR	4	2	n/a	NUT	965	0	3	n/a	n/a	n/a	n/a	n/a	n/a
3172343	RECOG_RESP	n/a	LTP074	ltpFR	4	2	n/a	NUT	965	0	n/a	n/a	n/a	n/a	n/a	n/a	n/a
3173062	RECOG_CONF	n/a	LTP074	ltpFR	4	2	n/a	NUT	965	n/a	3	n/a	n/a	n/a	n/a	n/a	n/a
3174572	RECOG_LURE	n/a	LTP074	ltpFR	4	2	n/a	FIST	572	0	4	n/a	n/a	n/a	n/a	n/a	n/a
3175616	RECOG_RESP	n/a	LTP074	ltpFR	4	2	n/a	FIST	572	0	n/a	n/a	n/a	n/a	n/a	n/a	n/a
3176274	RECOG_CONF	n/a	LTP074	ltpFR	4	2	n/a	FIST	572	n/a	4	n/a	n/a	n/a	n/a	n/a	n/a
3177697	RECOG_LURE	n/a	LTP074	ltpFR	4	2	n/a	BUTTER	205	0	5	n/a	n/a	n/a	n/a	n/a	n/a
3178499	RECOG_RESP	n/a	LTP074	ltpFR	4	2	n/a	BUTTER	205	0	n/a	n/a	n/a	n/a	n/a	n/a	n/a
3179297	RECOG_CONF	n/a	LTP074	ltpFR	4	2	n/a	BUTTER	205	n/a	5	n/a	n/a	n/a	n/a	n/a	n/a
3180655	RECOG_TARGET	n/a	LTP074	ltpFR	4	2	1	PREACHER	1119	1	3	1	n/a	n/a	n/a	n/a	n/a
3181672	RECOG_RESP	n/a	LTP074	ltpFR	4	2	1	PREACHER	1119	1	n/a	1	n/a	n/a	n/a	n/a	n/a
3182440	RECOG_CONF	n/a	LTP074	ltpFR	4	2	1	PREACHER	1119	n/a	3	1	n/a	n/a	n/a	n/a	n/a
3183905	RECOG_TARGET	n/a	LTP074	ltpFR	4	2	1	COUNTRY	388	1	4	0	n/a	n/a	n/a	n/a	n/a
3185364	RECOG_RESP	n/a	LTP074	ltpFR	4	2	1	COUNTRY	388	1	n/a	0	n/a	n/a	n/a	n/a	n/a
3186152	RECOG_CONF	n/a	LTP074	ltpFR	4	2	1	COUNTRY	388	n/a	4	0	n/a	n/a	n/a	n/a	n/a
3187504	RECOG_LURE	n/a	LTP074	ltpFR	4	2	n/a	SPY	1360	0	4	n/a	n/a	n/a	n/a	n/a	n/a
3188297	RECOG_RESP	n/a	LTP074	ltpFR	4	2	n/a	SPY	1360	0	n/a	n/a	n/a	n/a	n/a	n/a	n/a
3189075	RECOG_CONF	n/a	LTP074	ltpFR	4	2	n/a	SPY	1360	n/a	4	n/a	n/a	n/a	n/a	n/a	n/a
3190488	RECOG_LURE	n/a	LTP074	ltpFR	4	2	n/a	NEPTUNE	943	0	5	n/a	n/a	n/a	n/a	n/a	n/a
3191390	RECOG_RESP	n/a	LTP074	ltpFR	4	2	n/a	NEPTUNE	943	0	n/a	n/a	n/a	n/a	n/a	n/a	n/a
3192238	RECOG_CONF	n/a	LTP074	ltpFR	4	2	n/a	NEPTUNE	943	n/a	5	n/a	n/a	n/a	n/a	n/a	n/a
3193521	RECOG_TARGET	n/a	LTP074	ltpFR	4	2	-1	LOG	841	1	4	-1	n/a	n/a	n/a	n/a	n/a
3194642	RECOG_RESP	n/a	LTP074	ltpFR	4	2	-1	LOG	841	1	n/a	-1	n/a	n/a	n/a	n/a	n/a
3195411	RECOG_CONF	n/a	LTP074	ltpFR	4	2	-1	LOG	841	n/a	4	-1	n/a	n/a	n/a	n/a	n/a
3196796	RECOG_TARGET	n/a	LTP074	ltpFR	4	2	0	SPARROW	1347	1	5	0	n/a	n/a	n/a	n/a	n/a
3197446	RECOG_RESP	n/a	LTP074	ltpFR	4	2	0	SPARROW	1347	1	n/a	0	n/a	n/a	n/a	n/a	n/a
3198374	RECOG_CONF	n/a	LTP074	ltpFR	4	2	0	SPARROW	1347	n/a	5	0	n/a	n/a	n/a	n/a	n/a
3199887	RECOG_LURE	n/a	LTP074	ltpFR	4	2	n/a	POLYESTER	1100	0	4	n/a	n/a	n/a	n/a	n/a	n/a
3200759	RECOG_RESP	n/a	LTP074	ltpFR	4	2	n/a	POLYESTER	1100	0	n/a	n/a	n/a	n/a	n/a	n/a	n/a
3201567	RECOG_CONF	n/a	LTP074	ltpFR	4	2	n/a	POLYESTER	1100	n/a	4	n/a	n/a	n/a	n/a	n/a	n/a
3202987	RECOG_TARGET	n/a	LTP074	ltpFR	4	2	1	AUTOMOBILE	62	1	2	0	n/a	n/a	n/a	n/a	n/a
3204231	RECOG_RESP	n/a	LTP074	ltpFR	4	2	1	AUTOMOBILE	62	1	n/a	0	n/a	n/a	n/a	n/a	n/a
3205358	RECOG_CONF	n/a	LTP074	ltpFR	4	2	1	AUTOMOBILE	62	n/a	2	0	n/a	n/a	n/a	n/a	n/a
3206787	RECOG_TARGET	n/a	LTP074	ltpFR	4	2	1	ARCHITECT	36	0	3	1	n/a	n/a	n/a	n/a	n/a
3207643	RECOG_RESP	n/a	LTP074	ltpFR	4	2	1	ARCHITECT	36	0	n/a	1	n/a	n/a	n/a	n/a	n/a
3208531	RECOG_CONF	n/a	LTP074	ltpFR	4	2	1	ARCHITECT	36	n/a	3	1	n/a	n/a	n/a	n/a	n/a
3220457	REC_START	n/a	LTP074	ltpFR	4	3	n/a	n/a	n/a	n/a	n/a	n/a	n/a	n/a	n/a	n/a	n/a
3220494	RECOG_LURE	n/a	LTP074	ltpFR	4	3	n/a	FUNERAL	613	0	3	n/a	n/a	n/a	n/a	n/a	n/a
3221709	RECOG_RESP	n/a	LTP074	ltpFR	4	3	n/a	FUNERAL	613	0	n/a	n/a	n/a	n/a	n/a	n/a	n/a
3222637	RECOG_CONF	n/a	LTP074	ltpFR	4	3	n/a	FUNERAL	613	n/a	3	n/a	n/a	n/a	n/a	n/a	n/a
3224060	RECOG_TARGET	n/a	LTP074	ltpFR	4	3	0	PAPER	1011	1	5	0	n/a	n/a	n/a	n/a	n/a
3224892	RECOG_RESP	n/a	LTP074	ltpFR	4	3	0	PAPER	1011	1	n/a	0	n/a	n/a	n/a	n/a	n/a
3225670	RECOG_CONF	n/a	LTP074	ltpFR	4	3	0	PAPER	1011	n/a	5	0	n/a	n/a	n/a	n/a	n/a
3227077	RECOG_TARGET	n/a	LTP074	ltpFR	4	3	-1	CHAIR	274	1	4	-1	n/a	n/a	n/a	n/a	n/a
3227745	RECOG_RESP	n/a	LTP074	ltpFR	4	3	-1	CHAIR	274	1	n/a	-1	n/a	n/a	n/a	n/a	n/a
3228543	RECOG_CONF	n/a	LTP074	ltpFR	4	3	-1	CHAIR	274	n/a	4	-1	n/a	n/a	n/a	n/a	n/a
3229777	RECOG_TARGET	n/a	LTP074	ltpFR	4	3	-1	YOLK	1633	1	5	-1	n/a	n/a	n/a	n/a	n/a
3230509	RECOG_RESP	n/a	LTP074	ltpFR	4	3	-1	YOLK	1633	1	n/a	-1	n/a	n/a	n/a	n/a	n/a
3231307	RECOG_CONF	n/a	LTP074	ltpFR	4	3	-1	YOLK	1633	n/a	5	-1	n/a	n/a	n/a	n/a	n/a
3232609	RECOG_LURE	n/a	LTP074	ltpFR	4	3	n/a	DETECTIVE	454	0	3	n/a	n/a	n/a	n/a	n/a	n/a
3233572	RECOG_RESP	n/a	LTP074	ltpFR	4	3	n/a	DETECTIVE	454	0	n/a	n/a	n/a	n/a	n/a	n/a	n/a
3234290	RECOG_CONF	n/a	LTP074	ltpFR	4	3	n/a	DETECTIVE	454	n/a	3	n/a	n/a	n/a	n/a	n/a	n/a
3235718	RECOG_TARGET	n/a	LTP074	ltpFR	4	3	-1	VOLLEYBALL	1576	1	5	-1	n/a	n/a	n/a	n/a	n/a
3236346	RECOG_RESP	n/a	LTP074	ltpFR	4	3	-1	VOLLEYBALL	1576	1	n/a	-1	n/a	n/a	n/a	n/a	n/a
3237144	RECOG_CONF	n/a	LTP074	ltpFR	4	3	-1	VOLLEYBALL	1576	n/a	5	-1	n/a	n/a	n/a	n/a	n/a
3238501	RECOG_TARGET	n/a	LTP074	ltpFR	4	3	0	PUPIL	1143	1	5	0	n/a	n/a	n/a	n/a	n/a
3239289	RECOG_RESP	n/a	LTP074	ltpFR	4	3	0	PUPIL	1143	1	n/a	0	n/a	n/a	n/a	n/a	n/a
3240087	RECOG_CONF	n/a	LTP074	ltpFR	4	3	0	PUPIL	1143	n/a	5	0	n/a	n/a	n/a	n/a	n/a
3241434	RECOG_TARGET	n/a	LTP074	ltpFR	4	3	1	WHEAT	1602	1	5	0	n/a	n/a	n/a	n/a	n/a
3242113	RECOG_RESP	n/a	LTP074	ltpFR	4	3	1	WHEAT	1602	1	n/a	0	n/a	n/a	n/a	n/a	n/a
3242951	RECOG_CONF	n/a	LTP074	ltpFR	4	3	1	WHEAT	1602	n/a	5	0	n/a	n/a	n/a	n/a	n/a
3244375	RECOG_TARGET	n/a	LTP074	ltpFR	4	3	1	SEAFOOD	1260	1	5	0	n/a	n/a	n/a	n/a	n/a
3245116	RECOG_RESP	n/a	LTP074	ltpFR	4	3	1	SEAFOOD	1260	1	n/a	0	n/a	n/a	n/a	n/a	n/a
3245874	RECOG_CONF	n/a	LTP074	ltpFR	4	3	1	SEAFOOD	1260	n/a	5	0	n/a	n/a	n/a	n/a	n/a
3247350	RECOG_LURE	n/a	LTP074	ltpFR	4	3	n/a	EYELASH	546	0	3	n/a	n/a	n/a	n/a	n/a	n/a
3248089	RECOG_RESP	n/a	LTP074	ltpFR	4	3	n/a	EYELASH	546	0	n/a	n/a	n/a	n/a	n/a	n/a	n/a
3248947	RECOG_CONF	n/a	LTP074	ltpFR	4	3	n/a	EYELASH	546	n/a	3	n/a	n/a	n/a	n/a	n/a	n/a
3250283	RECOG_TARGET	n/a	LTP074	ltpFR	4	3	0	PICNIC	1060	1	4	1	n/a	n/a	n/a	n/a	n/a
3251082	RECOG_RESP	n/a	LTP074	ltpFR	4	3	0	PICNIC	1060	1	n/a	1	n/a	n/a	n/a	n/a	n/a
3251890	RECOG_CONF	n/a	LTP074	ltpFR	4	3	0	PICNIC	1060	n/a	4	1	n/a	n/a	n/a	n/a	n/a
3253250	RECOG_LURE	n/a	LTP074	ltpFR	4	3	n/a	SENATE	1267	0	5	n/a	n/a	n/a	n/a	n/a	n/a
3254045	RECOG_RESP	n/a	LTP074	ltpFR	4	3	n/a	SENATE	1267	0	n/a	n/a	n/a	n/a	n/a	n/a	n/a
3254744	RECOG_CONF	n/a	LTP074	ltpFR	4	3	n/a	SENATE	1267	n/a	5	n/a	n/a	n/a	n/a	n/a	n/a
3256166	RECOG_TARGET	n/a	LTP074	ltpFR	4	3	1	ADULT	8	1	3	1	n/a	n/a	n/a	n/a	n/a
3257079	RECOG_RESP	n/a	LTP074	ltpFR	4	3	1	ADULT	8	1	n/a	1	n/a	n/a	n/a	n/a	n/a
3257887	RECOG_CONF	n/a	LTP074	ltpFR	4	3	1	ADULT	8	n/a	3	1	n/a	n/a	n/a	n/a	n/a
3259074	RECOG_LURE	n/a	LTP074	ltpFR	4	3	n/a	PREDATOR	1120	0	4	n/a	n/a	n/a	n/a	n/a	n/a
3259912	RECOG_RESP	n/a	LTP074	ltpFR	4	3	n/a	PREDATOR	1120	0	n/a	n/a	n/a	n/a	n/a	n/a	n/a
3260750	RECOG_CONF	n/a	LTP074	ltpFR	4	3	n/a	PREDATOR	1120	n/a	4	n/a	n/a	n/a	n/a	n/a	n/a
3262141	RECOG_TARGET	n/a	LTP074	ltpFR	4	3	1	SCALE	1241	1	5	0	n/a	n/a	n/a	n/a	n/a
3262756	RECOG_RESP	n/a	LTP074	ltpFR	4	3	1	SCALE	1241	1	n/a	0	n/a	n/a	n/a	n/a	n/a
3263494	RECOG_CONF	n/a	LTP074	ltpFR	4	3	1	SCALE	1241	n/a	5	0	n/a	n/a	n/a	n/a	n/a
3264857	RECOG_LURE	n/a	LTP074	ltpFR	4	3	n/a	VINEGAR	1569	0	5	n/a	n/a	n/a	n/a	n/a	n/a
3265729	RECOG_RESP	n/a	LTP074	ltpFR	4	3	n/a	VINEGAR	1569	0	n/a	n/a	n/a	n/a	n/a	n/a	n/a
3266497	RECOG_CONF	n/a	LTP074	ltpFR	4	3	n/a	VINEGAR	1569	n/a	5	n/a	n/a	n/a	n/a	n/a	n/a
3267999	RECOG_TARGET	n/a	LTP074	ltpFR	4	3	1	LOAF	835	1	4	0	n/a	n/a	n/a	n/a	n/a
3268872	RECOG_RESP	n/a	LTP074	ltpFR	4	3	1	LOAF	835	1	n/a	0	n/a	n/a	n/a	n/a	n/a
3269720	RECOG_CONF	n/a	LTP074	ltpFR	4	3	1	LOAF	835	n/a	4	0	n/a	n/a	n/a	n/a	n/a
3271073	RECOG_TARGET	n/a	LTP074	ltpFR	4	3	1	VEHICLE	1553	1	5	1	n/a	n/a	n/a	n/a	n/a
3271985	RECOG_RESP	n/a	LTP074	ltpFR	4	3	1	VEHICLE	1553	1	n/a	1	n/a	n/a	n/a	n/a	n/a
3272763	RECOG_CONF	n/a	LTP074	ltpFR	4	3	1	VEHICLE	1553	n/a	5	1	n/a	n/a	n/a	n/a	n/a
3274273	RECOG_LURE	n/a	LTP074	ltpFR	4	3	n/a	PILOT	1070	1	2	n/a	n/a	n/a	n/a	n/a	n/a
3275497	RECOG_RESP	n/a	LTP074	ltpFR	4	3	n/a	PILOT	1070	1	n/a	n/a	n/a	n/a	n/a	n/a	n/a
3276295	RECOG_CONF	n/a	LTP074	ltpFR	4	3	n/a	PILOT	1070	n/a	2	n/a	n/a	n/a	n/a	n/a	n/a
3277673	RECOG_TARGET	n/a	LTP074	ltpFR	4	3	1	SKYSCRAPER	1322	1	4	0	n/a	n/a	n/a	n/a	n/a
3278490	RECOG_RESP	n/a	LTP074	ltpFR	4	3	1	SKYSCRAPER	1322	1	n/a	0	n/a	n/a	n/a	n/a	n/a
3279328	RECOG_CONF	n/a	LTP074	ltpFR	4	3	1	SKYSCRAPER	1322	n/a	4	0	n/a	n/a	n/a	n/a	n/a
3295482	REC_START	n/a	LTP074	ltpFR	4	4	n/a	n/a	n/a	n/a	n/a	n/a	n/a	n/a	n/a	n/a	n/a
3295522	RECOG_LURE	n/a	LTP074	ltpFR	4	4	n/a	CUCUMBER	421	0	4	n/a	n/a	n/a	n/a	n/a	n/a
3296524	RECOG_RESP	n/a	LTP074	ltpFR	4	4	n/a	CUCUMBER	421	0	n/a	n/a	n/a	n/a	n/a	n/a	n/a
3297253	RECOG_CONF	n/a	LTP074	ltpFR	4	4	n/a	CUCUMBER	421	n/a	4	n/a	n/a	n/a	n/a	n/a	n/a
3298772	RECOG_TARGET	n/a	LTP074	ltpFR	4	4	1	BEER	114	1	4	0	n/a	n/a	n/a	n/a	n/a
3299867	RECOG_RESP	n/a	LTP074	ltpFR	4	4	1	BEER	114	1	n/a	0	n/a	n/a	n/a	n/a	n/a
3300954	RECOG_CONF	n/a	LTP074	ltpFR	4	4	1	BEER	114	n/a	4	0	n/a	n/a	n/a	n/a	n/a
3302154	RECOG_TARGET	n/a	LTP074	ltpFR	4	4	-1	SUN	1406	1	5	-1	n/a	n/a	n/a	n/a	n/a
3303000	RECOG_RESP	n/a	LTP074	ltpFR	4	4	-1	SUN	1406	1	n/a	-1	n/a	n/a	n/a	n/a	n/a
3303748	RECOG_CONF	n/a	LTP074	ltpFR	4	4	-1	SUN	1406	n/a	5	-1	n/a	n/a	n/a	n/a	n/a
3305138	RECOG_LURE	n/a	LTP074	ltpFR	4	4	n/a	DIGGER	464	0	5	n/a	n/a	n/a	n/a	n/a	n/a
3305813	RECOG_RESP	n/a	LTP074	ltpFR	4	4	n/a	DIGGER	464	0	n/a	n/a	n/a	n/a	n/a	n/a	n/a
3306602	RECOG_CONF	n/a	LTP074	ltpFR	4	4	n/a	DIGGER	464	n/a	5	n/a	n/a	n/a	n/a	n/a	n/a
3308154	RECOG_TARGET	n/a	LTP074	ltpFR	4	4	1	DORM	488	0	3	0	n/a	n/a	n/a	n/a	n/a
3309395	RECOG_RESP	n/a	LTP074	ltpFR	4	4	1	DORM	488	0	n/a	0	n/a	n/a	n/a	n/a	n/a
3310173	RECOG_CONF	n/a	LTP074	ltpFR	4	4	1	DORM	488	n/a	3	0	n/a	n/a	n/a	n/a	n/a
3311695	RECOG_TARGET	n/a	LTP074	ltpFR	4	4	1	PADDING	999	1	3	0	n/a	n/a	n/a	n/a	n/a
3312458	RECOG_RESP	n/a	LTP074	ltpFR	4	4	1	PADDING	999	1	n/a	0	n/a	n/a	n/a	n/a	n/a
3313286	RECOG_CONF	n/a	LTP074	ltpFR	4	4	1	PADDING	999	n/a	3	0	n/a	n/a	n/a	n/a	n/a
3314654	RECOG_TARGET	n/a	LTP074	ltpFR	4	4	-1	RUNNER	1218	0	2	-1	n/a	n/a	n/a	n/a	n/a
3315481	RECOG_RESP	n/a	LTP074	ltpFR	4	4	-1	RUNNER	1218	0	n/a	-1	n/a	n/a	n/a	n/a	n/a
3316339	RECOG_CONF	n/a	LTP074	ltpFR	4	4	-1	RUNNER	1218	n/a	2	-1	n/a	n/a	n/a	n/a	n/a
3317746	RECOG_LURE	n/a	LTP074	ltpFR	4	4	n/a	NEWSPAPER	948	1	2	n/a	n/a	n/a	n/a	n/a	n/a
3318664	RECOG_RESP	n/a	LTP074	ltpFR	4	4	n/a	NEWSPAPER	948	1	n/a	n/a	n/a	n/a	n/a	n/a	n/a
3319692	RECOG_CONF	n/a	LTP074	ltpFR	4	4	n/a	NEWSPAPER	948	n/a	2	n/a	n/a	n/a	n/a	n/a	n/a
3321095	RECOG_TARGET	n/a	LTP074	ltpFR	4	4	-1	TAPIOCA	1434	1	5	-1	n/a	n/a	n/a	n/a	n/a
3321967	RECOG_RESP	n/a	LTP074	ltpFR	4	4	-1	TAPIOCA	1434	1	n/a	-1	n/a	n/a	n/a	n/a	n/a
3322855	RECOG_CONF	n/a	LTP074	ltpFR	4	4	-1	TAPIOCA	1434	n/a	5	-1	n/a	n/a	n/a	n/a	n/a
3324236	RECOG_TARGET	n/a	LTP074	ltpFR	4	4	0	CANVAS	234	1	3	1	n/a	n/a	n/a	n/a	n/a
3325229	RECOG_RESP	n/a	LTP074	ltpFR	4	4	0	CANVAS	234	1	n/a	1	n/a	n/a	n/a	n/a	n/a
3326107	RECOG_CONF	n/a	LTP074	ltpFR	4	4	0	CANVAS	234	n/a	3	1	n/a	n/a	n/a	n/a	n/a
3327636	RECOG_TARGET	n/a	LTP074	ltpFR	4	4	1	IRON	744	1	5	0	n/a	n/a	n/a	n/a	n/a
3328262	RECOG_RESP	n/a	LTP074	ltpFR	4	4	1	IRON	744	1	n/a	0	n/a	n/a	n/a	n/a	n/a
3329120	RECOG_CONF	n/a	LTP074	ltpFR	4	4	1	IRON	744	n/a	5	0	n/a	n/a	n/a	n/a	n/a
3330636	RECOG_LURE	n/a	LTP074	ltpFR	4	4	n/a	CEILING	265	0	3	n/a	n/a	n/a	n/a	n/a	n/a
3331625	RECOG_RESP	n/a	LTP074	ltpFR	4	4	n/a	CEILING	265	0	n/a	n/a	n/a	n/a	n/a	n/a	n/a
3332632	RECOG_CONF	n/a	LTP074	ltpFR	4	4	n/a	CEILING	265	n/a	3	n/a	n/a	n/a	n/a	n/a	n/a
3333985	RECOG_TARGET	n/a	LTP074	ltpFR	4	4	1	DOCTOR	478	1	3	1	n/a	n/a	n/a	n/a	n/a
3334817	RECOG_RESP	n/a	LTP074	ltpFR	4	4	1	DOCTOR	478	1	n/a	1	n/a	n/a	n/a	n/a	n/a
3335915	RECOG_CONF	n/a	LTP074	ltpFR	4	4	1	DOCTOR	478	n/a	3	1	n/a	n/a	n/a	n/a	n/a
3337219	RECOG_LURE	n/a	LTP074	ltpFR	4	4	n/a	PEBBLE	1035	0	5	n/a	n/a	n/a	n/a	n/a	n/a
3337910	RECOG_RESP	n/a	LTP074	ltpFR	4	4	n/a	PEBBLE	1035	0	n/a	n/a	n/a	n/a	n/a	n/a	n/a
3338798	RECOG_CONF	n/a	LTP074	ltpFR	4	4	n/a	PEBBLE	1035	n/a	5	n/a	n/a	n/a	n/a	n/a	n/a
3340310	RECOG_LURE	n/a	LTP074	ltpFR	4	4	n/a	SLEIGH	1325	0	4	n/a	n/a	n/a	n/a	n/a	n/a
3341323	RECOG_RESP	n/a	LTP074	ltpFR	4	4	n/a	SLEIGH	1325	0	n/a	n/a	n/a	n/a	n/a	n/a	n/a
3342300	RECOG_CONF	n/a	LTP074	ltpFR	4	4	n/a	SLEIGH	1325	n/a	4	n/a	n/a	n/a	n/a	n/a	n/a
3343576	RECOG_LURE	n/a	LTP074	ltpFR	4	4	n/a	NEPHEW	942	0	3	n/a	n/a	n/a	n/a	n/a	n/a
3344406	RECOG_RESP	n/a	LTP074	ltpFR	4	4	n/a	NEPHEW	942	0	n/a	n/a	n/a	n/a	n/a	n/a	n/a
3345393	RECOG_CONF	n/a	LTP074	ltpFR	4	4	n/a	NEPHEW	942	n/a	3	n/a	n/a	n/a	n/a	n/a	n/a
3346726	RECOG_TARGET	n/a	LTP074	ltpFR	4	4	0	KNAPSACK	783	1	5	0	n/a	n/a	n/a	n/a	n/a
3347479	RECOG_RESP	n/a	LTP074	ltpFR	4	4	0	KNAPSACK	783	1	n/a	0	n/a	n/a	n/a	n/a	n/a
3348496	RECOG_CONF	n/a	LTP074	ltpFR	4	4	0	KNAPSACK	783	n/a	5	0	n/a	n/a	n/a	n/a	n/a
3349859	RECOG_TARGET	n/a	LTP074	ltpFR	4	4	0	SATURN	1236	1	4	1	n/a	n/a	n/a	n/a	n/a
3351080	RECOG_RESP	n/a	LTP074	ltpFR	4	4	0	SATURN	1236	1	n/a	1	n/a	n/a	n/a	n/a	n/a
3351978	RECOG_CONF	n/a	LTP074	ltpFR	4	4	0	SATURN	1236	n/a	4	1	n/a	n/a	n/a	n/a	n/a
3353484	RECOG_TARGET	n/a	LTP074	ltpFR	4	4	1	COOK	372	1	3	1	n/a	n/a	n/a	n/a	n/a
3354213	RECOG_RESP	n/a	LTP074	ltpFR	4	4	1	COOK	372	1	n/a	1	n/a	n/a	n/a	n/a	n/a
3355191	RECOG_CONF	n/a	LTP074	ltpFR	4	4	1	COOK	372	n/a	3	1	n/a	n/a	n/a	n/a	n/a
3356642	RECOG_LURE	n/a	LTP074	ltpFR	4	4	n/a	MILITARY	894	0	5	n/a	n/a	n/a	n/a	n/a	n/a
3357366	RECOG_RESP	n/a	LTP074	ltpFR	4	4	n/a	MILITARY	894	0	n/a	n/a	n/a	n/a	n/a	n/a	n/a
3358334	RECOG_CONF	n/a	LTP074	ltpFR	4	4	n/a	MILITARY	894	n/a	5	n/a	n/a	n/a	n/a	n/a	n/a
3361772	REC_START	n/a	LTP074	ltpFR	4	5	n/a	n/a	n/a	n/a	n/a	n/a	n/a	n/a	n/a	n/a	n/a
3361808	RECOG_LURE	n/a	LTP074	ltpFR	4	5	n/a	STATUE	1374	0	4	n/a	n/a	n/a	n/a	n/a	n/a
3362535	RECOG_RESP	n/a	LTP074	ltpFR	4	5	n/a	STATUE	1374	0	n/a	n/a	n/a	n/a	n/a	n/a	n/a
3363493	RECOG_CONF	n/a	LTP074	ltpFR	4	5	n/a	STATUE	1374	n/a	4	n/a	n/a	n/a	n/a	n/a	n/a
3364751	RECOG_TARGET	n/a	LTP074	ltpFR	4	5	-1	TIMBER	1469	1	4	-1	n/a	n/a	n/a	n/a	n/a
3365508	RECOG_RESP	n/a	LTP074	ltpFR	4	5	-1	TIMBER	1469	1	n/a	-1	n/a	n/a	n/a	n/a	n/a
3366446	RECOG_CONF	n/a	LTP074	ltpFR	4	5	-1	TIMBER	1469	n/a	4	-1	n/a	n/a	n/a	n/a	n/a
3367716	RECOG_LURE	n/a	LTP074	ltpFR	4	5	n/a	KNIGHT	786	0	5	n/a	n/a	n/a	n/a	n/a	n/a
3368462	RECOG_RESP	n/a	LTP074	ltpFR	4	5	n/a	KNIGHT	786	0	n/a	n/a	n/a	n/a	n/a	n/a	n/a
3369330	RECOG_CONF	n/a	LTP074	ltpFR	4	5	n/a	KNIGHT	786	n/a	5	n/a	n/a	n/a	n/a	n/a	n/a
3370784	RECOG_LURE	n/a	LTP074	ltpFR	4	5	n/a	RUG	1215	0	3	n/a	n/a	n/a	n/a	n/a	n/a
3371644	RECOG_RESP	n/a	LTP074	ltpFR	4	5	n/a	RUG	1215	0	n/a	n/a	n/a	n/a	n/a	n/a	n/a
3372602	RECOG_CONF	n/a	LTP074	ltpFR	4	5	n/a	RUG	1215	n/a	3	n/a	n/a	n/a	n/a	n/a	n/a
3374008	RECOG_LURE	n/a	LTP074	ltpFR	4	5	n/a	ROBE	1198	0	3	n/a	n/a	n/a	n/a	n/a	n/a
3374847	RECOG_RESP	n/a	LTP074	ltpFR	4	5	n/a	ROBE	1198	0	n/a	n/a	n/a	n/a	n/a	n/a	n/a
3375725	RECOG_CONF	n/a	LTP074	ltpFR	4	5	n/a	ROBE	1198	n/a	3	n/a	n/a	n/a	n/a	n/a	n/a
3377099	RECOG_TARGET	n/a	LTP074	ltpFR	4	5	-1	CHEERLEADER	288	1	5	-1	n/a	n/a	n/a	n/a	n/a
3377840	RECOG_RESP	n/a	LTP074	ltpFR	4	5	-1	CHEERLEADER	288	1	n/a	-1	n/a	n/a	n/a	n/a	n/a
3378718	RECOG_CONF	n/a	LTP074	ltpFR	4	5	-1	CHEERLEADER	288	n/a	5	-1	n/a	n/a	n/a	n/a	n/a
3379949	RECOG_LURE	n/a	LTP074	ltpFR	4	5	n/a	WRENCH	1625	0	2	n/a	n/a	n/a	n/a	n/a	n/a
3381388	RECOG_RESP	n/a	LTP074	ltpFR	4	5	n/a	WRENCH	1625	0	n/a	n/a	n/a	n/a	n/a	n/a	n/a
3383298	RECOG_CONF	n/a	LTP074	ltpFR	4	5	n/a	WRENCH	1625	n/a	2	n/a	n/a	n/a	n/a	n/a	n/a
3384398	RECOG_TARGET	n/a	LTP074	ltpFR	4	5	-1	TRUMPET	1513	0	3	-1	n/a	n/a	n/a	n/a	n/a
3385513	RECOG_RESP	n/a	LTP074	ltpFR	4	5	-1	TRUMPET	1513	0	n/a	-1	n/a	n/a	n/a	n/a	n/a
3386361	RECOG_CONF	n/a	LTP074	ltpFR	4	5	-1	TRUMPET	1513	n/a	3	-1	n/a	n/a	n/a	n/a	n/a
3387766	RECOG_TARGET	n/a	LTP074	ltpFR	4	5	1	POSTAGE	1113	0	3	0	n/a	n/a	n/a	n/a	n/a
3388975	RECOG_RESP	n/a	LTP074	ltpFR	4	5	1	POSTAGE	1113	0	n/a	0	n/a	n/a	n/a	n/a	n/a
3389843	RECOG_CONF	n/a	LTP074	ltpFR	4	5	1	POSTAGE	1113	n/a	3	0	n/a	n/a	n/a	n/a	n/a
3391140	RECOG_TARGET	n/a	LTP074	ltpFR	4	5	0	SHRIMP	1297	1	4	0	n/a	n/a	n/a	n/a	n/a
3391838	RECOG_RESP	n/a	LTP074	ltpFR	4	5	0	SHRIMP	1297	1	n/a	0	n/a	n/a	n/a	n/a	n/a
3392926	RECOG_CONF	n/a	LTP074	ltpFR	4	5	0	SHRIMP	1297	n/a	4	0	n/a	n/a	n/a	n/a	n/a
3394306	RECOG_LURE	n/a	LTP074	ltpFR	4	5	n/a	MASK	876	0	4	n/a	n/a	n/a	n/a	n/a	n/a
3395171	RECOG_RESP	n/a	LTP074	ltpFR	4	5	n/a	MASK	876	0	n/a	n/a	n/a	n/a	n/a	n/a	n/a
3396169	RECOG_CONF	n/a	LTP074	ltpFR	4	5	n/a	MASK	876	n/a	4	n/a	n/a	n/a	n/a	n/a	n/a
3397473	RECOG_TARGET	n/a	LTP074	ltpFR	4	5	0	WATER	1594	1	5	0	n/a	n/a	n/a	n/a	n/a
3398174	RECOG_RESP	n/a	LTP074	ltpFR	4	5	0	WATER	1594	1	n/a	0	n/a	n/a	n/a	n/a	n/a
3399042	RECOG_CONF	n/a	LTP074	ltpFR	4	5	0	WATER	1594	n/a	5	0	n/a	n/a	n/a	n/a	n/a
3400372	RECOG_LURE	n/a	LTP074	ltpFR	4	5	n/a	JAPAN	749	0	5	n/a	n/a	n/a	n/a	n/a	n/a
3401068	RECOG_RESP	n/a	LTP074	ltpFR	4	5	n/a	JAPAN	749	0	n/a	n/a	n/a	n/a	n/a	n/a	n/a
3401975	RECOG_CONF	n/a	LTP074	ltpFR	4	5	n/a	JAPAN	749	n/a	5	n/a	n/a	n/a	n/a	n/a	n/a
3403305	RECOG_TARGET	n/a	LTP074	ltpFR	4	5	0	VILLAGE	1566	1	4	1	n/a	n/a	n/a	n/a	n/a
3404520	RECOG_RESP	n/a	LTP074	ltpFR	4	5	0	VILLAGE	1566	1	n/a	1	n/a	n/a	n/a	n/a	n/a
3405378	RECOG_CONF	n/a	LTP074	ltpFR	4	5	0	VILLAGE	1566	n/a	4	1	n/a	n/a	n/a	n/a	n/a
3406647	RECOG_LURE	n/a	LTP074	ltpFR	4	5	n/a	QUAIL	1147	0	3	n/a	n/a	n/a	n/a	n/a	n/a
3407872	RECOG_RESP	n/a	LTP074	ltpFR	4	5	n/a	QUAIL	1147	0	n/a	n/a	n/a	n/a	n/a	n/a	n/a
3408730	RECOG_CONF	n/a	LTP074	ltpFR	4	5	n/a	QUAIL	1147	n/a	3	n/a	n/a	n/a	n/a	n/a	n/a
3410172	RECOG_LURE	n/a	LTP074	ltpFR	4	5	n/a	TELEVISION	1447	0	4	n/a	n/a	n/a	n/a	n/a	n/a
3411893	RECOG_RESP	n/a	LTP074	ltpFR	4	5	n/a	TELEVISION	1447	0	n/a	n/a	n/a	n/a	n/a	n/a	n/a
3412671	RECOG_CONF	n/a	LTP074	ltpFR	4	5	n/a	TELEVISION	1447	n/a	4	n/a	n/a	n/a	n/a	n/a	n/a
3414105	RECOG_LURE	n/a	LTP074	ltpFR	4	5	n/a	SHELTER	1282	0	4	n/a	n/a	n/a	n/a	n/a	n/a
3415046	RECOG_RESP	n/a	LTP074	ltpFR	4	5	n/a	SHELTER	1282	0	n/a	n/a	n/a	n/a	n/a	n/a	n/a
3415864	RECOG_CONF	n/a	LTP074	ltpFR	4	5	n/a	SHELTER	1282	n/a	4	n/a	n/a	n/a	n/a	n/a	n/a
3417229	RECOG_LURE	n/a	LTP074	ltpFR	4	5	n/a	TAPE	1433	1	2	n/a	n/a	n/a	n/a	n/a	n/a
3418508	RECOG_RESP	n/a	LTP074	ltpFR	4	5	n/a	TAPE	1433	1	n/a	n/a	n/a	n/a	n/a	n/a	n/a
3419326	RECOG_CONF	n/a	LTP074	ltpFR	4	5	n/a	TAPE	1433	n/a	2	n/a	n/a	n/a	n/a	n/a	n/a
3420797	RECOG_TARGET	n/a	LTP074	ltpFR	4	5	1	BATHROOM	99	1	3	0	n/a	n/a	n/a	n/a	n/a
3422190	RECOG_RESP	n/a	LTP074	ltpFR	4	5	1	BATHROOM	99	1	n/a	0	n/a	n/a	n/a	n/a	n/a
3423028	RECOG_CONF	n/a	LTP074	ltpFR	4	5	1	BATHROOM	99	n/a	3	0	n/a	n/a	n/a	n/a	n/a
3424354	RECOG_TARGET	n/a	LTP074	ltpFR	4	5	1	SIREN	1310	1	4	0	n/a	n/a	n/a	n/a	n/a
3425153	RECOG_RESP	n/a	LTP074	ltpFR	4	5	1	SIREN	1310	1	n/a	0	n/a	n/a	n/a	n/a	n/a
3426021	RECOG_CONF	n/a	LTP074	ltpFR	4	5	1	SIREN	1310	n/a	4	0	n/a	n/a	n/a	n/a	n/a
3437569	REC_START	n/a	LTP074	ltpFR	4	6	n/a	n/a	n/a	n/a	n/a	n/a	n/a	n/a	n/a	n/a	n/a
3437603	RECOG_LURE	n/a	LTP074	ltpFR	4	6	n/a	BLADE	134	0	3	n/a	n/a	n/a	n/a	n/a	n/a
3438981	RECOG_RESP	n/a	LTP074	ltpFR	4	6	n/a	BLADE	134	0	n/a	n/a	n/a	n/a	n/a	n/a	n/a
3439759	RECOG_CONF	n/a	LTP074	ltpFR	4	6	n/a	BLADE	134	n/a	3	n/a	n/a	n/a	n/a	n/a	n/a
3441203	RECOG_TARGET	n/a	LTP074	ltpFR	4	6	-1	TOOTHBRUSH	1482	1	5	-1	n/a	n/a	n/a	n/a	n/a
3441914	RECOG_RESP	n/a	LTP074	ltpFR	4	6	-1	TOOTHBRUSH	1482	1	n/a	-1	n/a	n/a	n/a	n/a	n/a
3442942	RECOG_CONF	n/a	LTP074	ltpFR	4	6	-1	TOOTHBRUSH	1482	n/a	5	-1	n/a	n/a	n/a	n/a	n/a
3444611	RECOG_TARGET	n/a	LTP074	ltpFR	4	6	0	FRAME	600	1	4	1	n/a	n/a	n/a	n/a	n/a
3445416	RECOG_RESP	n/a	LTP074	ltpFR	4	6	0	FRAME	600	1	n/a	1	n/a	n/a	n/a	n/a	n/a
3446264	RECOG_CONF	n/a	LTP074	ltpFR	4	6	0	FRAME	600	n/a	4	1	n/a	n/a	n/a	n/a	n/a
3447661	RECOG_LURE	n/a	LTP074	ltpFR	4	6	n/a	PERSON	1052	0	2	n/a	n/a	n/a	n/a	n/a	n/a
3448689	RECOG_RESP	n/a	LTP074	ltpFR	4	6	n/a	PERSON	1052	0	n/a	n/a	n/a	n/a	n/a	n/a	n/a
3449587	RECOG_CONF	n/a	LTP074	ltpFR	4	6	n/a	PERSON	1052	n/a	2	n/a	n/a	n/a	n/a	n/a	n/a
3451052	RECOG_TARGET	n/a	LTP074	ltpFR	4	6	0	ARTICLE	42	1	4	0	n/a	n/a	n/a	n/a	n/a
3451750	RECOG_RESP	n/a	LTP074	ltpFR	4	6	0	ARTICLE	42	1	n/a	0	n/a	n/a	n/a	n/a	n/a
3452490	RECOG_CONF	n/a	LTP074	ltpFR	4	6	0	ARTICLE	42	n/a	4	0	n/a	n/a	n/a	n/a	n/a
3453877	RECOG_TARGET	n/a	LTP074	ltpFR	4	6	1	HAMMER	680	1	3	0	n/a	n/a	n/a	n/a	n/a
3454625	RECOG_RESP	n/a	LTP074	ltpFR	4	6	1	HAMMER	680	1	n/a	0	n/a	n/a	n/a	n/a	n/a
3455603	RECOG_CONF	n/a	LTP074	ltpFR	4	6	1	HAMMER	680	n/a	3	0	n/a	n/a	n/a	n/a	n/a
3456827	RECOG_TARGET	n/a	LTP074	ltpFR	4	6	0	QUARTER	1148	0	4	0	n/a	n/a	n/a	n/a	n/a
3457858	RECOG_RESP	n/a	LTP074	ltpFR	4	6	0	QUARTER	1148	0	n/a	0	n/a	n/a	n/a	n/a	n/a
3458756	RECOG_CONF	n/a	LTP074	ltpFR	4	6	0	QUARTER	1148	n/a	4	0	n/a	n/a	n/a	n/a	n/a
3460001	RECOG_TARGET	n/a	LTP074	ltpFR	4	6	-1	PURSE	1145	1	5	-1	n/a	n/a	n/a	n/a	n/a
3460941	RECOG_RESP	n/a	LTP074	ltpFR	4	6	-1	PURSE	1145	1	n/a	-1	n/a	n/a	n/a	n/a	n/a
3461789	RECOG_CONF	n/a	LTP074	ltpFR	4	6	-1	PURSE	1145	n/a	5	-1	n/a	n/a	n/a	n/a	n/a
3463259	RECOG_TARGET	n/a	LTP074	ltpFR	4	6	1	MAMMAL	861	1	2	1	n/a	n/a	n/a	n/a	n/a
3464622	RECOG_RESP	n/a	LTP074	ltpFR	4	6	1	MAMMAL	861	1	n/a	1	n/a	n/a	n/a	n/a	n/a
3465450	RECOG_CONF	n/a	LTP074	ltpFR	4	6	1	MAMMAL	861	n/a	2	1	n/a	n/a	n/a	n/a	n/a
3466752	RECOG_TARGET	n/a	LTP074	ltpFR	4	6	0	PRIEST	1122	1	4	1	n/a	n/a	n/a	n/a	n/a
3467606	RECOG_RESP	n/a	LTP074	ltpFR	4	6	0	PRIEST	1122	1	n/a	1	n/a	n/a	n/a	n/a	n/a
3468484	RECOG_CONF	n/a	LTP074	ltpFR	4	6	0	PRIEST	1122	n/a	4	1	n/a	n/a	n/a	n/a	n/a
3469817	RECOG_LURE	n/a	LTP074	ltpFR	4	6	n/a	MONSTER	912	0	3	n/a	n/a	n/a	n/a	n/a	n/a
3470699	RECOG_RESP	n/a	LTP074	ltpFR	4	6	n/a	MONSTER	912	0	n/a	n/a	n/a	n/a	n/a	n/a	n/a
3471447	RECOG_CONF	n/a	LTP074	ltpFR	4	6	n/a	MONSTER	912	n/a	3	n/a	n/a	n/a	n/a	n/a	n/a
3472875	RECOG_TARGET	n/a	LTP074	ltpFR	4	6	0	FLORIDA	582	1	4	1	n/a	n/a	n/a	n/a	n/a
