onset	duration	trial_type	sample	stim_file	subject	experiment	session	trial	item_name	item_num	list	answer	test_x	test_y	test_z
246.0517578125	n/a	SESS_START	503914	n/a	LTP386	ltpFR2	18	n/a	n/a	n/a	n/a	n/a	0	0	0
257.8193359375	n/a	START	528014	n/a	LTP386	ltpFR2	18	n/a	n/a	n/a	-1	n/a	n/a	n/a	n/a
257.85009765625	n/a	PROB	528077	n/a	LTP386	ltpFR2	18	n/a	n/a	n/a	-1	19	8	4	7
259.85009765625	n/a	PROB	532173	n/a	LTP386	ltpFR2	18	n/a	n/a	n/a	-1	21	9	7	5
261.1669921875	n/a	PROB	534870	n/a	LTP386	ltpFR2	18	n/a	n/a	n/a	-1	17	2	9	5
262.81591796875	n/a	PROB	538247	n/a	LTP386	ltpFR2	18	n/a	n/a	n/a	-1	15	6	3	6
264.10009765625	n/a	PROB	540877	n/a	LTP386	ltpFR2	18	n/a	n/a	n/a	-1	21	9	7	5
265.48291015625	n/a	PROB	543709	n/a	LTP386	ltpFR2	18	n/a	n/a	n/a	-1	30	8	3	9
268.92578125	n/a	STOP	550760	n/a	LTP386	ltpFR2	18	n/a	n/a	n/a	-1	n/a	n/a	n/a	n/a
299.81396484375	n/a	WORD	614019	wordpools/wasnorm_wordpool_576.txt	LTP386	ltpFR2	18	1	OINTMENT	974	n/a	n/a	0	0	0
302.56396484375	n/a	WORD	619651	wordpools/wasnorm_wordpool_576.txt	LTP386	ltpFR2	18	1	SNAIL	1332	n/a	n/a	0	0	0
305.0986328125	n/a	WORD	624842	wordpools/wasnorm_wordpool_576.txt	LTP386	ltpFR2	18	1	STICKER	1382	n/a	n/a	0	0	0
307.56396484375	n/a	WORD	629891	wordpools/wasnorm_wordpool_576.txt	LTP386	ltpFR2	18	1	SADDLE	1221	n/a	n/a	0	0	0
309.98193359375	n/a	WORD	634843	wordpools/wasnorm_wordpool_576.txt	LTP386	ltpFR2	18	1	BELLY	119	n/a	n/a	0	0	0
312.69775390625	n/a	WORD	640405	wordpools/wasnorm_wordpool_576.txt	LTP386	ltpFR2	18	1	PRINCE	1124	n/a	n/a	0	0	0
315.16455078125	n/a	WORD	645457	wordpools/wasnorm_wordpool_576.txt	LTP386	ltpFR2	18	1	DRUG	501	n/a	n/a	0	0	0
317.7802734375	n/a	WORD	650814	wordpools/wasnorm_wordpool_576.txt	LTP386	ltpFR2	18	1	MAPLE	866	n/a	n/a	0	0	0
320.197265625	n/a	WORD	655764	wordpools/wasnorm_wordpool_576.txt	LTP386	ltpFR2	18	1	SCRIBBLE	1256	n/a	n/a	0	0	0
322.96435546875	n/a	WORD	661431	wordpools/wasnorm_wordpool_576.txt	LTP386	ltpFR2	18	1	POET	1095	n/a	n/a	0	0	0
325.54638671875	n/a	WORD	666719	wordpools/wasnorm_wordpool_576.txt	LTP386	ltpFR2	18	1	TUBA	1515	n/a	n/a	0	0	0
328.2802734375	n/a	WORD	672318	wordpools/wasnorm_wordpool_576.txt	LTP386	ltpFR2	18	1	RECORD	1176	n/a	n/a	0	0	0
331.046875	n/a	WORD	677984	wordpools/wasnorm_wordpool_576.txt	LTP386	ltpFR2	18	1	CLIMBER	323	n/a	n/a	0	0	0
333.69580078125	n/a	WORD	683409	wordpools/wasnorm_wordpool_576.txt	LTP386	ltpFR2	18	1	SKIRT	1319	n/a	n/a	0	0	0
336.44580078125	n/a	WORD	689041	wordpools/wasnorm_wordpool_576.txt	LTP386	ltpFR2	18	1	SANDWICH	1232	n/a	n/a	0	0	0
339.013671875	n/a	WORD	694300	wordpools/wasnorm_wordpool_576.txt	LTP386	ltpFR2	18	1	HOSTESS	723	n/a	n/a	0	0	0
341.74560546875	n/a	WORD	699895	wordpools/wasnorm_wordpool_576.txt	LTP386	ltpFR2	18	1	SERVER	1272	n/a	n/a	0	0	0
344.478515625	n/a	WORD	705492	wordpools/wasnorm_wordpool_576.txt	LTP386	ltpFR2	18	1	BOARD	143	n/a	n/a	0	0	0
347.16357421875	n/a	WORD	710991	wordpools/wasnorm_wordpool_576.txt	LTP386	ltpFR2	18	1	ZEBRA	1635	n/a	n/a	0	0	0
349.74560546875	n/a	WORD	716279	wordpools/wasnorm_wordpool_576.txt	LTP386	ltpFR2	18	1	MOTOR	922	n/a	n/a	0	0	0
352.37841796875	n/a	WORD	721671	wordpools/wasnorm_wordpool_576.txt	LTP386	ltpFR2	18	1	TORTOISE	1486	n/a	n/a	0	0	0
354.8115234375	n/a	WORD	726654	wordpools/wasnorm_wordpool_576.txt	LTP386	ltpFR2	18	1	MUSTARD	935	n/a	n/a	0	0	0
357.46142578125	n/a	WORD	732081	wordpools/wasnorm_wordpool_576.txt	LTP386	ltpFR2	18	1	PROTON	1132	n/a	n/a	0	0	0
360.01220703125	n/a	WORD	737305	wordpools/wasnorm_wordpool_576.txt	LTP386	ltpFR2	18	1	DANDRUFF	439	n/a	n/a	0	0	0
361.6279296875	n/a	START	740614	n/a	LTP386	ltpFR2	18	n/a	n/a	n/a	1	n/a	n/a	n/a	n/a
362.5830078125	n/a	DISTRACTOR	742570	n/a	LTP386	ltpFR2	18	1	n/a	n/a	n/a	n/a	0	0	0
362.59521484375	n/a	PROB	742595	n/a	LTP386	ltpFR2	18	n/a	n/a	n/a	1	10	1	3	6
364.029296875	n/a	PROB	745532	n/a	LTP386	ltpFR2	18	n/a	n/a	n/a	1	11	6	1	4
364.9619140625	n/a	PROB	747442	n/a	LTP386	ltpFR2	18	n/a	n/a	n/a	1	18	4	5	9
366.11181640625	n/a	PROB	749797	n/a	LTP386	ltpFR2	18	n/a	n/a	n/a	1	13	7	5	1
367.2607421875	n/a	PROB	752150	n/a	LTP386	ltpFR2	18	n/a	n/a	n/a	1	11	2	6	3
368.44482421875	n/a	PROB	754575	n/a	LTP386	ltpFR2	18	n/a	n/a	n/a	1	16	4	8	4
369.81103515625	n/a	PROB	757373	n/a	LTP386	ltpFR2	18	n/a	n/a	n/a	1	14	3	9	2
371.01171875	n/a	PROB	759832	n/a	LTP386	ltpFR2	18	n/a	n/a	n/a	1	21	5	8	8
372.24365234375	n/a	PROB	762355	n/a	LTP386	ltpFR2	18	n/a	n/a	n/a	1	24	7	9	8
374.2939453125	n/a	PROB	766554	n/a	LTP386	ltpFR2	18	n/a	n/a	n/a	1	24	9	9	6
375.9619140625	n/a	PROB	769970	n/a	LTP386	ltpFR2	18	n/a	n/a	n/a	1	11	3	1	9
378.3935546875	n/a	PROB	774950	n/a	LTP386	ltpFR2	18	n/a	n/a	n/a	1	15	7	4	4
379.74365234375	n/a	PROB	777715	n/a	LTP386	ltpFR2	18	n/a	n/a	n/a	1	23	8	6	9
381.14453125	n/a	PROB	780584	n/a	LTP386	ltpFR2	18	n/a	n/a	n/a	1	15	3	9	3
382.49365234375	n/a	PROB	783347	n/a	LTP386	ltpFR2	18	n/a	n/a	n/a	1	12	7	3	2
385.62744140625	n/a	STOP	789765	n/a	LTP386	ltpFR2	18	n/a	n/a	n/a	1	n/a	n/a	n/a	n/a
387.51025390625	n/a	REC_START	793621	n/a	LTP386	ltpFR2	18	1	n/a	n/a	n/a	n/a	0	0	0
387.93017578125	n/a	REC_WORD	794481	wordpools/wasnorm_wordpool_576.txt	LTP386	ltpFR2	18	1	OINTMENT	974	n/a	n/a	0	0	0
388.45751953125	n/a	REC_WORD	795561	wordpools/wasnorm_wordpool_576.txt	LTP386	ltpFR2	18	1	SNAIL	1332	n/a	n/a	0	0	0
390.08740234375	n/a	REC_WORD	798899	wordpools/wasnorm_wordpool_576.txt	LTP386	ltpFR2	18	1	DANDRUFF	439	n/a	n/a	0	0	0
390.75048828125	n/a	REC_WORD	800257	wordpools/wasnorm_wordpool_576.txt	LTP386	ltpFR2	18	1	MOTOR	922	n/a	n/a	0	0	0
391.43115234375	n/a	REC_WORD	801651	wordpools/wasnorm_wordpool_576.txt	LTP386	ltpFR2	18	1	ZEBRA	1635	n/a	n/a	0	0	0
392.30126953125	n/a	REC_WORD	803433	wordpools/wasnorm_wordpool_576.txt	LTP386	ltpFR2	18	1	MUSTARD	935	n/a	n/a	0	0	0
395.580078125	n/a	REC_WORD	810148	wordpools/wasnorm_wordpool_576.txt	LTP386	ltpFR2	18	1	TORTOISE	1486	n/a	n/a	0	0	0
405.04296875	n/a	REC_WORD	829528	wordpools/wasnorm_wordpool_576.txt	LTP386	ltpFR2	18	1	PROTON	1132	n/a	n/a	0	0	0
477.939453125	n/a	DISTRACTOR	978820	n/a	LTP386	ltpFR2	18	2	n/a	n/a	n/a	n/a	0	0	0
477.9404296875	n/a	START	978822	n/a	LTP386	ltpFR2	18	n/a	n/a	n/a	2	n/a	n/a	n/a	n/a
477.95654296875	n/a	PROB	978855	n/a	LTP386	ltpFR2	18	n/a	n/a	n/a	2	7	5	1	1
479.2236328125	n/a	PROB	981450	n/a	LTP386	ltpFR2	18	n/a	n/a	n/a	2	196	8	7	4
481.12353515625	n/a	PROB	985341	n/a	LTP386	ltpFR2	18	n/a	n/a	n/a	2	11	5	4	2
482.37255859375	n/a	PROB	987899	n/a	LTP386	ltpFR2	18	n/a	n/a	n/a	2	11	2	8	1
483.6884765625	n/a	PROB	990594	n/a	LTP386	ltpFR2	18	n/a	n/a	n/a	2	9	4	1	4
484.72265625	n/a	PROB	992712	n/a	LTP386	ltpFR2	18	n/a	n/a	n/a	2	13	5	7	1
486.189453125	n/a	PROB	995716	n/a	LTP386	ltpFR2	18	n/a	n/a	n/a	2	6	3	2	1
487.67236328125	n/a	PROB	998753	n/a	LTP386	ltpFR2	18	n/a	n/a	n/a	2	16	8	4	4
488.9892578125	n/a	PROB	1001450	n/a	LTP386	ltpFR2	18	n/a	n/a	n/a	2	21	7	9	5
490.38818359375	n/a	PROB	1004315	n/a	LTP386	ltpFR2	18	n/a	n/a	n/a	2	13	9	1	3
491.822265625	n/a	PROB	1007252	n/a	LTP386	ltpFR2	18	n/a	n/a	n/a	2	14	2	8	4
493.17236328125	n/a	PROB	1010017	n/a	LTP386	ltpFR2	18	n/a	n/a	n/a	2	15	1	5	9
494.22314453125	n/a	PROB	1012169	n/a	LTP386	ltpFR2	18	n/a	n/a	n/a	2	8	2	3	3
495.55517578125	n/a	PROB	1014897	n/a	LTP386	ltpFR2	18	n/a	n/a	n/a	2	11	4	2	5
497.005859375	n/a	PROB	1017868	n/a	LTP386	ltpFR2	18	n/a	n/a	n/a	2	19	9	5	5
498.77099609375	n/a	PROB	1021483	n/a	LTP386	ltpFR2	18	n/a	n/a	n/a	2	19	9	2	8
500.51708984375	n/a	STOP	1025059	n/a	LTP386	ltpFR2	18	n/a	n/a	n/a	2	n/a	n/a	n/a	n/a
502.9716796875	n/a	WORD	1030086	wordpools/wasnorm_wordpool_576.txt	LTP386	ltpFR2	18	2	ACTRESS	6	n/a	n/a	0	0	0
505.4208984375	n/a	WORD	1035102	wordpools/wasnorm_wordpool_576.txt	LTP386	ltpFR2	18	2	FRUIT	610	n/a	n/a	0	0	0
508.02197265625	n/a	WORD	1040429	wordpools/wasnorm_wordpool_576.txt	LTP386	ltpFR2	18	2	SKILLET	1317	n/a	n/a	0	0	0
510.587890625	n/a	WORD	1045684	wordpools/wasnorm_wordpool_576.txt	LTP386	ltpFR2	18	2	ASIA	46	n/a	n/a	0	0	0
513.28759765625	n/a	WORD	1051213	wordpools/wasnorm_wordpool_576.txt	LTP386	ltpFR2	18	2	LAKE	796	n/a	n/a	0	0	0
515.8203125	n/a	WORD	1056400	wordpools/wasnorm_wordpool_576.txt	LTP386	ltpFR2	18	2	ZIPPER	1636	n/a	n/a	0	0	0
518.603515625	n/a	WORD	1062100	wordpools/wasnorm_wordpool_576.txt	LTP386	ltpFR2	18	2	FIREPLACE	570	n/a	n/a	0	0	0
521.12158203125	n/a	WORD	1067257	wordpools/wasnorm_wordpool_576.txt	LTP386	ltpFR2	18	2	TOASTER	1472	n/a	n/a	0	0	0
523.75341796875	n/a	WORD	1072647	wordpools/wasnorm_wordpool_576.txt	LTP386	ltpFR2	18	2	PORTRAIT	1111	n/a	n/a	0	0	0
526.33740234375	n/a	WORD	1077939	wordpools/wasnorm_wordpool_576.txt	LTP386	ltpFR2	18	2	DRAWING	494	n/a	n/a	0	0	0
528.98828125	n/a	WORD	1083368	wordpools/wasnorm_wordpool_576.txt	LTP386	ltpFR2	18	2	STAMP	1370	n/a	n/a	0	0	0
531.537109375	n/a	WORD	1088588	wordpools/wasnorm_wordpool_576.txt	LTP386	ltpFR2	18	2	UMPIRE	1535	n/a	n/a	0	0	0
534.3359375	n/a	WORD	1094320	wordpools/wasnorm_wordpool_576.txt	LTP386	ltpFR2	18	2	RELISH	1183	n/a	n/a	0	0	0
536.9541015625	n/a	WORD	1099682	wordpools/wasnorm_wordpool_576.txt	LTP386	ltpFR2	18	2	MILDEW	893	n/a	n/a	0	0	0
539.5029296875	n/a	WORD	1104902	wordpools/wasnorm_wordpool_576.txt	LTP386	ltpFR2	18	2	MONEY	908	n/a	n/a	0	0	0
542.26953125	n/a	WORD	1110568	wordpools/wasnorm_wordpool_576.txt	LTP386	ltpFR2	18	2	COUNTRY	388	n/a	n/a	0	0	0
544.970703125	n/a	WORD	1116100	wordpools/wasnorm_wordpool_576.txt	LTP386	ltpFR2	18	2	NURSE	963	n/a	n/a	0	0	0
547.66845703125	n/a	WORD	1121625	wordpools/wasnorm_wordpool_576.txt	LTP386	ltpFR2	18	2	PEANUT	1032	n/a	n/a	0	0	0
550.220703125	n/a	WORD	1126852	wordpools/wasnorm_wordpool_576.txt	LTP386	ltpFR2	18	2	MUFFIN	929	n/a	n/a	0	0	0
552.7021484375	n/a	WORD	1131934	wordpools/wasnorm_wordpool_576.txt	LTP386	ltpFR2	18	2	CROSS	413	n/a	n/a	0	0	0
555.203125	n/a	WORD	1137056	wordpools/wasnorm_wordpool_576.txt	LTP386	ltpFR2	18	2	SIDEWALK	1303	n/a	n/a	0	0	0
557.7021484375	n/a	WORD	1142174	wordpools/wasnorm_wordpool_576.txt	LTP386	ltpFR2	18	2	POSSUM	1112	n/a	n/a	0	0	0
560.4853515625	n/a	WORD	1147874	wordpools/wasnorm_wordpool_576.txt	LTP386	ltpFR2	18	2	HEADBAND	696	n/a	n/a	0	0	0
563.28515625	n/a	WORD	1153608	wordpools/wasnorm_wordpool_576.txt	LTP386	ltpFR2	18	2	MESSAGE	888	n/a	n/a	0	0	0
564.90185546875	n/a	START	1156919	n/a	LTP386	ltpFR2	18	n/a	n/a	n/a	3	n/a	n/a	n/a	n/a
565.72998046875	n/a	DISTRACTOR	1158615	n/a	LTP386	ltpFR2	18	2	n/a	n/a	n/a	n/a	0	0	0
565.751953125	n/a	PROB	1158660	n/a	LTP386	ltpFR2	18	n/a	n/a	n/a	3	15	4	6	5
567.3681640625	n/a	PROB	1161970	n/a	LTP386	ltpFR2	18	n/a	n/a	n/a	3	15	4	7	4
568.66796875	n/a	PROB	1164632	n/a	LTP386	ltpFR2	18	n/a	n/a	n/a	3	8	3	1	4
569.751953125	n/a	PROB	1166852	n/a	LTP386	ltpFR2	18	n/a	n/a	n/a	3	19	6	6	5
570.90087890625	n/a	PROB	1169205	n/a	LTP386	ltpFR2	18	n/a	n/a	n/a	3	22	6	7	9
573.31787109375	n/a	PROB	1174155	n/a	LTP386	ltpFR2	18	n/a	n/a	n/a	3	16	2	7	7
574.517578125	n/a	PROB	1176612	n/a	LTP386	ltpFR2	18	n/a	n/a	n/a	3	15	3	9	3
575.58447265625	n/a	PROB	1178797	n/a	LTP386	ltpFR2	18	n/a	n/a	n/a	3	19	7	5	7
576.95166015625	n/a	PROB	1181597	n/a	LTP386	ltpFR2	18	n/a	n/a	n/a	3	12	4	7	1
578.66748046875	n/a	PROB	1185111	n/a	LTP386	ltpFR2	18	n/a	n/a	n/a	3	16	6	6	4
580.08544921875	n/a	PROB	1188015	n/a	LTP386	ltpFR2	18	n/a	n/a	n/a	3	15	4	4	7
581.484375	n/a	PROB	1190880	n/a	LTP386	ltpFR2	18	n/a	n/a	n/a	3	111	2	8	1
583.30029296875	n/a	PROB	1194599	n/a	LTP386	ltpFR2	18	n/a	n/a	n/a	3	9	1	4	4
584.517578125	n/a	PROB	1197092	n/a	LTP386	ltpFR2	18	n/a	n/a	n/a	3	19	6	6	5
585.71728515625	n/a	PROB	1199549	n/a	LTP386	ltpFR2	18	n/a	n/a	n/a	3	11	7	2	2
587.201171875	n/a	PROB	1202588	n/a	LTP386	ltpFR2	18	n/a	n/a	n/a	3	12	2	7	3
588.18115234375	n/a	STOP	1204595	n/a	LTP386	ltpFR2	18	n/a	n/a	n/a	3	n/a	n/a	n/a	n/a
590.83447265625	n/a	REC_START	1210029	n/a	LTP386	ltpFR2	18	2	n/a	n/a	n/a	n/a	0	0	0
592.33935546875	n/a	REC_WORD	1213111	wordpools/wasnorm_wordpool_576.txt	LTP386	ltpFR2	18	2	ACTRESS	6	n/a	n/a	0	0	0
593.06494140625	n/a	REC_WORD	1214597	wordpools/wasnorm_wordpool_576.txt	LTP386	ltpFR2	18	2	FRUIT	610	n/a	n/a	0	0	0
594.9150390625	n/a	REC_WORD	1218386	wordpools/wasnorm_wordpool_576.txt	LTP386	ltpFR2	18	2	MESSAGE	888	n/a	n/a	0	0	0
681.279296875	n/a	DISTRACTOR	1395260	n/a	LTP386	ltpFR2	18	3	n/a	n/a	n/a	n/a	0	0	0
681.279296875	n/a	START	1395260	n/a	LTP386	ltpFR2	18	n/a	n/a	n/a	4	n/a	n/a	n/a	n/a
681.29638671875	n/a	PROB	1395295	n/a	LTP386	ltpFR2	18	n/a	n/a	n/a	4	12	2	4	6
682.7626953125	n/a	PROB	1398298	n/a	LTP386	ltpFR2	18	n/a	n/a	n/a	4	12	3	1	8
683.8955078125	n/a	PROB	1400618	n/a	LTP386	ltpFR2	18	n/a	n/a	n/a	4	25	8	9	8
685.49560546875	n/a	PROB	1403895	n/a	LTP386	ltpFR2	18	n/a	n/a	n/a	4	22	7	6	9
687.21337890625	n/a	PROB	1407413	n/a	LTP386	ltpFR2	18	n/a	n/a	n/a	4	18	4	8	6
688.6455078125	n/a	PROB	1410346	n/a	LTP386	ltpFR2	18	n/a	n/a	n/a	4	11	2	8	1
689.7451171875	n/a	PROB	1412598	n/a	LTP386	ltpFR2	18	n/a	n/a	n/a	4	17	9	7	1
690.97998046875	n/a	PROB	1415127	n/a	LTP386	ltpFR2	18	n/a	n/a	n/a	4	13	6	6	1
692.04638671875	n/a	PROB	1417311	n/a	LTP386	ltpFR2	18	n/a	n/a	n/a	4	20	8	6	6
693.31201171875	n/a	PROB	1419903	n/a	LTP386	ltpFR2	18	n/a	n/a	n/a	4	21	8	5	8
694.87890625	n/a	PROB	1423112	n/a	LTP386	ltpFR2	18	n/a	n/a	n/a	4	17	4	6	7
696.1298828125	n/a	PROB	1425674	n/a	LTP386	ltpFR2	18	n/a	n/a	n/a	4	15	4	3	8
697.77880859375	n/a	PROB	1429051	n/a	LTP386	ltpFR2	18	n/a	n/a	n/a	4	19	8	7	4
699.2451171875	n/a	PROB	1432054	n/a	LTP386	ltpFR2	18	n/a	n/a	n/a	4	16	8	2	6
700.5947265625	n/a	PROB	1434818	n/a	LTP386	ltpFR2	18	n/a	n/a	n/a	4	15	5	1	9
701.677734375	n/a	PROB	1437036	n/a	LTP386	ltpFR2	18	n/a	n/a	n/a	4	9	3	1	5
703.5947265625	n/a	PROB	1440962	n/a	LTP386	ltpFR2	18	n/a	n/a	n/a	4	9	3	5	2
704.94873046875	n/a	STOP	1443735	n/a	LTP386	ltpFR2	18	n/a	n/a	n/a	4	n/a	n/a	n/a	n/a
706.27783203125	n/a	WORD	1446457	wordpools/wasnorm_wordpool_576.txt	LTP386	ltpFR2	18	3	RAZOR	1171	n/a	n/a	0	0	0
709.07861328125	n/a	WORD	1452193	wordpools/wasnorm_wordpool_576.txt	LTP386	ltpFR2	18	3	DENIM	446	n/a	n/a	0	0	0
711.69482421875	n/a	WORD	1457551	wordpools/wasnorm_wordpool_576.txt	LTP386	ltpFR2	18	3	TROMBONE	1508	n/a	n/a	0	0	0
714.3447265625	n/a	WORD	1462978	wordpools/wasnorm_wordpool_576.txt	LTP386	ltpFR2	18	3	IGLOO	734	n/a	n/a	0	0	0
716.96240234375	n/a	WORD	1468339	wordpools/wasnorm_wordpool_576.txt	LTP386	ltpFR2	18	3	FREEZER	604	n/a	n/a	0	0	0
719.62744140625	n/a	WORD	1473797	wordpools/wasnorm_wordpool_576.txt	LTP386	ltpFR2	18	3	POISON	1096	n/a	n/a	0	0	0
722.31005859375	n/a	WORD	1479291	wordpools/wasnorm_wordpool_576.txt	LTP386	ltpFR2	18	3	HIKER	708	n/a	n/a	0	0	0
724.84423828125	n/a	WORD	1484481	wordpools/wasnorm_wordpool_576.txt	LTP386	ltpFR2	18	3	WHISTLE	1606	n/a	n/a	0	0	0
727.66015625	n/a	WORD	1490248	wordpools/wasnorm_wordpool_576.txt	LTP386	ltpFR2	18	3	LIZARD	834	n/a	n/a	0	0	0
730.376953125	n/a	WORD	1495812	wordpools/wasnorm_wordpool_576.txt	LTP386	ltpFR2	18	3	PLASTER	1085	n/a	n/a	0	0	0
732.9111328125	n/a	WORD	1501002	wordpools/wasnorm_wordpool_576.txt	LTP386	ltpFR2	18	3	SPOUSE	1358	n/a	n/a	0	0	0
735.59375	n/a	WORD	1506496	wordpools/wasnorm_wordpool_576.txt	LTP386	ltpFR2	18	3	MARROW	872	n/a	n/a	0	0	0
738.16064453125	n/a	WORD	1511753	wordpools/wasnorm_wordpool_576.txt	LTP386	ltpFR2	18	3	COURSE	390	n/a	n/a	0	0	0
740.9775390625	n/a	WORD	1517522	wordpools/wasnorm_wordpool_576.txt	LTP386	ltpFR2	18	3	ICEBERG	731	n/a	n/a	0	0	0
743.60986328125	n/a	WORD	1522913	wordpools/wasnorm_wordpool_576.txt	LTP386	ltpFR2	18	3	VALLEY	1545	n/a	n/a	0	0	0
746.16064453125	n/a	WORD	1528137	wordpools/wasnorm_wordpool_576.txt	LTP386	ltpFR2	18	3	STOMACH	1384	n/a	n/a	0	0	0
748.859375	n/a	WORD	1533664	wordpools/wasnorm_wordpool_576.txt	LTP386	ltpFR2	18	3	BODY	145	n/a	n/a	0	0	0
751.42626953125	n/a	WORD	1538921	wordpools/wasnorm_wordpool_576.txt	LTP386	ltpFR2	18	3	BUG	187	n/a	n/a	0	0	0
754.14306640625	n/a	WORD	1544485	wordpools/wasnorm_wordpool_576.txt	LTP386	ltpFR2	18	3	BADGE	68	n/a	n/a	0	0	0
756.708984375	n/a	WORD	1549740	wordpools/wasnorm_wordpool_576.txt	LTP386	ltpFR2	18	3	SUSPECT	1415	n/a	n/a	0	0	0
759.359375	n/a	WORD	1555168	wordpools/wasnorm_wordpool_576.txt	LTP386	ltpFR2	18	3	TWEEZERS	1526	n/a	n/a	0	0	0
762.04296875	n/a	WORD	1560664	wordpools/wasnorm_wordpool_576.txt	LTP386	ltpFR2	18	3	ELBOW	520	n/a	n/a	0	0	0
764.8251953125	n/a	WORD	1566362	wordpools/wasnorm_wordpool_576.txt	LTP386	ltpFR2	18	3	WIFE	1609	n/a	n/a	0	0	0
767.625	n/a	WORD	1572096	wordpools/wasnorm_wordpool_576.txt	LTP386	ltpFR2	18	3	GUITAR	670	n/a	n/a	0	0	0
769.22607421875	n/a	START	1575375	n/a	LTP386	ltpFR2	18	n/a	n/a	n/a	5	n/a	n/a	n/a	n/a
770.02587890625	n/a	DISTRACTOR	1577013	n/a	LTP386	ltpFR2	18	3	n/a	n/a	n/a	n/a	0	0	0
770.04296875	n/a	PROB	1577048	n/a	LTP386	ltpFR2	18	n/a	n/a	n/a	5	19	3	9	7
772.0595703125	n/a	PROB	1581178	n/a	LTP386	ltpFR2	18	n/a	n/a	n/a	5	13	4	8	1
774.17578125	n/a	PROB	1585512	n/a	LTP386	ltpFR2	18	n/a	n/a	n/a	5	10	4	4	2
776.4248046875	n/a	PROB	1590118	n/a	LTP386	ltpFR2	18	n/a	n/a	n/a	5	7	1	1	5
777.37451171875	n/a	PROB	1592063	n/a	LTP386	ltpFR2	18	n/a	n/a	n/a	5	18	9	2	7
778.5244140625	n/a	PROB	1594418	n/a	LTP386	ltpFR2	18	n/a	n/a	n/a	5	7	3	1	3
780.00830078125	n/a	PROB	1597457	n/a	LTP386	ltpFR2	18	n/a	n/a	n/a	5	20	7	7	6
781.44140625	n/a	PROB	1600392	n/a	LTP386	ltpFR2	18	n/a	n/a	n/a	5	14	7	1	6
782.92529296875	n/a	PROB	1603431	n/a	LTP386	ltpFR2	18	n/a	n/a	n/a	5	14	4	7	3
784.1083984375	n/a	PROB	1605854	n/a	LTP386	ltpFR2	18	n/a	n/a	n/a	5	21	3	9	9
785.32421875	n/a	PROB	1608344	n/a	LTP386	ltpFR2	18	n/a	n/a	n/a	5	15	4	2	9
786.55712890625	n/a	PROB	1610869	n/a	LTP386	ltpFR2	18	n/a	n/a	n/a	5	10	4	5	1
787.84130859375	n/a	PROB	1613499	n/a	LTP386	ltpFR2	18	n/a	n/a	n/a	5	12	3	8	1
788.9423828125	n/a	PROB	1615754	n/a	LTP386	ltpFR2	18	n/a	n/a	n/a	5	14	3	7	4
793.22509765625	n/a	STOP	1624525	n/a	LTP386	ltpFR2	18	n/a	n/a	n/a	5	n/a	n/a	n/a	n/a
795.17529296875	n/a	REC_START	1628519	n/a	LTP386	ltpFR2	18	3	n/a	n/a	n/a	n/a	0	0	0
799.78076171875	n/a	REC_WORD	1637951	wordpools/wasnorm_wordpool_576.txt	LTP386	ltpFR2	18	3	TWEEZERS	1526	n/a	n/a	0	0	0
800.48974609375	n/a	REC_WORD	1639403	wordpools/wasnorm_wordpool_576.txt	LTP386	ltpFR2	18	3	RAZOR	1171	n/a	n/a	0	0	0
802.60302734375	n/a	REC_WORD	1643731	wordpools/wasnorm_wordpool_576.txt	LTP386	ltpFR2	18	3	ELBOW	520	n/a	n/a	0	0	0
806.45361328125	n/a	REC_WORD	1651617	wordpools/wasnorm_wordpool_576.txt	LTP386	ltpFR2	18	3	BADGE	68	n/a	n/a	0	0	0
807.20849609375	n/a	REC_WORD	1653163	wordpools/wasnorm_wordpool_576.txt	LTP386	ltpFR2	18	3	SUSPECT	1415	n/a	n/a	0	0	0
811.20361328125	n/a	REC_WORD	1661345	wordpools/wasnorm_wordpool_576.txt	LTP386	ltpFR2	18	3	IGLOO	734	n/a	n/a	0	0	0
885.63623046875	n/a	WORD	1813783	wordpools/wasnorm_wordpool_576.txt	LTP386	ltpFR2	18	4	DRILL	497	n/a	n/a	0	0	0
888.369140625	n/a	WORD	1819380	wordpools/wasnorm_wordpool_576.txt	LTP386	ltpFR2	18	4	TERMITE	1451	n/a	n/a	0	0	0
890.8193359375	n/a	WORD	1824398	wordpools/wasnorm_wordpool_576.txt	LTP386	ltpFR2	18	4	SPIDER	1351	n/a	n/a	0	0	0
893.38623046875	n/a	WORD	1829655	wordpools/wasnorm_wordpool_576.txt	LTP386	ltpFR2	18	4	SMOG	1330	n/a	n/a	0	0	0
895.93701171875	n/a	WORD	1834879	wordpools/wasnorm_wordpool_576.txt	LTP386	ltpFR2	18	4	FEMALE	559	n/a	n/a	0	0	0
898.5361328125	n/a	WORD	1840202	wordpools/wasnorm_wordpool_576.txt	LTP386	ltpFR2	18	4	QUEEN	1149	n/a	n/a	0	0	0
901.3359375	n/a	WORD	1845936	wordpools/wasnorm_wordpool_576.txt	LTP386	ltpFR2	18	4	GHETTO	633	n/a	n/a	0	0	0
903.86865234375	n/a	WORD	1851123	wordpools/wasnorm_wordpool_576.txt	LTP386	ltpFR2	18	4	COMPASS	358	n/a	n/a	0	0	0
906.685546875	n/a	WORD	1856892	wordpools/wasnorm_wordpool_576.txt	LTP386	ltpFR2	18	4	DRAGON	492	n/a	n/a	0	0	0
909.40185546875	n/a	WORD	1862455	wordpools/wasnorm_wordpool_576.txt	LTP386	ltpFR2	18	4	TEMPLE	1448	n/a	n/a	0	0	0
911.91943359375	n/a	WORD	1867611	wordpools/wasnorm_wordpool_576.txt	LTP386	ltpFR2	18	4	PADDLE	1000	n/a	n/a	0	0	0
914.5185546875	n/a	WORD	1872934	wordpools/wasnorm_wordpool_576.txt	LTP386	ltpFR2	18	4	ISLAND	745	n/a	n/a	0	0	0
917.08544921875	n/a	WORD	1878191	wordpools/wasnorm_wordpool_576.txt	LTP386	ltpFR2	18	4	SHORTS	1293	n/a	n/a	0	0	0
919.818359375	n/a	WORD	1883788	wordpools/wasnorm_wordpool_576.txt	LTP386	ltpFR2	18	4	CLOUD	328	n/a	n/a	0	0	0
922.41845703125	n/a	WORD	1889113	wordpools/wasnorm_wordpool_576.txt	LTP386	ltpFR2	18	4	PATROL	1027	n/a	n/a	0	0	0
925.0849609375	n/a	WORD	1894574	wordpools/wasnorm_wordpool_576.txt	LTP386	ltpFR2	18	4	GAZELLE	628	n/a	n/a	0	0	0
927.65087890625	n/a	WORD	1899829	wordpools/wasnorm_wordpool_576.txt	LTP386	ltpFR2	18	4	OZONE	996	n/a	n/a	0	0	0
930.451171875	n/a	WORD	1905564	wordpools/wasnorm_wordpool_576.txt	LTP386	ltpFR2	18	4	OMELET	976	n/a	n/a	0	0	0
933.06787109375	n/a	WORD	1910923	wordpools/wasnorm_wordpool_576.txt	LTP386	ltpFR2	18	4	YOLK	1633	n/a	n/a	0	0	0
935.7509765625	n/a	WORD	1916418	wordpools/wasnorm_wordpool_576.txt	LTP386	ltpFR2	18	4	CEILING	265	n/a	n/a	0	0	0
938.31689453125	n/a	WORD	1921673	wordpools/wasnorm_wordpool_576.txt	LTP386	ltpFR2	18	4	GROUND	666	n/a	n/a	0	0	0
940.80078125	n/a	WORD	1926760	wordpools/wasnorm_wordpool_576.txt	LTP386	ltpFR2	18	4	PALACE	1006	n/a	n/a	0	0	0
943.3505859375	n/a	WORD	1931982	wordpools/wasnorm_wordpool_576.txt	LTP386	ltpFR2	18	4	VIRUS	1572	n/a	n/a	0	0	0
946.017578125	n/a	WORD	1937444	wordpools/wasnorm_wordpool_576.txt	LTP386	ltpFR2	18	4	GUARD	667	n/a	n/a	0	0	0
947.63427734375	n/a	START	1940755	n/a	LTP386	ltpFR2	18	n/a	n/a	n/a	6	n/a	n/a	n/a	n/a
948.7822265625	n/a	DISTRACTOR	1943106	n/a	LTP386	ltpFR2	18	4	n/a	n/a	n/a	n/a	0	0	0
948.79931640625	n/a	PROB	1943141	n/a	LTP386	ltpFR2	18	n/a	n/a	n/a	6	22	6	9	7
951.2001953125	n/a	PROB	1948058	n/a	LTP386	ltpFR2	18	n/a	n/a	n/a	6	20	4	7	9
952.49951171875	n/a	PROB	1950719	n/a	LTP386	ltpFR2	18	n/a	n/a	n/a	6	20	8	7	5
954.13427734375	n/a	PROB	1954067	n/a	LTP386	ltpFR2	18	n/a	n/a	n/a	6	14	7	4	3
955.8330078125	n/a	PROB	1957546	n/a	LTP386	ltpFR2	18	n/a	n/a	n/a	6	19	7	6	6
957.0673828125	n/a	PROB	1960074	n/a	LTP386	ltpFR2	18	n/a	n/a	n/a	6	11	1	5	5
958.0341796875	n/a	PROB	1962054	n/a	LTP386	ltpFR2	18	n/a	n/a	n/a	6	9	3	1	5
960.0	n/a	PROB	1966080	n/a	LTP386	ltpFR2	18	n/a	n/a	n/a	6	24	8	8	8
961.59912109375	n/a	PROB	1969355	n/a	LTP386	ltpFR2	18	n/a	n/a	n/a	6	22	9	6	7
962.966796875	n/a	PROB	1972156	n/a	LTP386	ltpFR2	18	n/a	n/a	n/a	6	20	6	5	9
964.1328125	n/a	PROB	1974544	n/a	LTP386	ltpFR2	18	n/a	n/a	n/a	6	24	7	8	9
965.69873046875	n/a	PROB	1977751	n/a	LTP386	ltpFR2	18	n/a	n/a	n/a	6	18	8	3	7
967.083984375	n/a	PROB	1980588	n/a	LTP386	ltpFR2	18	n/a	n/a	n/a	6	13	4	7	2
968.48291015625	n/a	PROB	1983453	n/a	LTP386	ltpFR2	18	n/a	n/a	n/a	6	11	3	2	6
970.0	n/a	PROB	1986560	n/a	LTP386	ltpFR2	18	n/a	n/a	n/a	6	21	9	8	4
971.14892578125	n/a	STOP	1988913	n/a	LTP386	ltpFR2	18	n/a	n/a	n/a	6	n/a	n/a	n/a	n/a
973.44970703125	n/a	REC_START	1993625	n/a	LTP386	ltpFR2	18	4	n/a	n/a	n/a	n/a	0	0	0
973.94384765625	n/a	REC_WORD	1994637	wordpools/wasnorm_wordpool_576.txt	LTP386	ltpFR2	18	4	YOLK	1633	n/a	n/a	0	0	0
974.82470703125	n/a	REC_WORD	1996441	wordpools/wasnorm_wordpool_576.txt	LTP386	ltpFR2	18	4	OMELET	976	n/a	n/a	0	0	0
975.552734375	n/a	REC_WORD	1997932	wordpools/wasnorm_wordpool_576.txt	LTP386	ltpFR2	18	4	CEILING	265	n/a	n/a	0	0	0
976.69580078125	n/a	REC_WORD	2000273	wordpools/wasnorm_wordpool_576.txt	LTP386	ltpFR2	18	4	GROUND	666	n/a	n/a	0	0	0
1063.8779296875	n/a	DISTRACTOR	2178822	n/a	LTP386	ltpFR2	18	5	n/a	n/a	n/a	n/a	0	0	0
1063.8779296875	n/a	START	2178822	n/a	LTP386	ltpFR2	18	n/a	n/a	n/a	7	n/a	n/a	n/a	n/a
1063.89501953125	n/a	PROB	2178857	n/a	LTP386	ltpFR2	18	n/a	n/a	n/a	7	13	5	3	5
1067.49365234375	n/a	PROB	2186227	n/a	LTP386	ltpFR2	18	n/a	n/a	n/a	7	18	4	9	5
1069.07861328125	n/a	PROB	2189473	n/a	LTP386	ltpFR2	18	n/a	n/a	n/a	7	16	5	5	6
1070.11181640625	n/a	PROB	2191589	n/a	LTP386	ltpFR2	18	n/a	n/a	n/a	7	21	3	9	9
1071.2275390625	n/a	PROB	2193874	n/a	LTP386	ltpFR2	18	n/a	n/a	n/a	7	25	8	8	9
1072.52783203125	n/a	PROB	2196537	n/a	LTP386	ltpFR2	18	n/a	n/a	n/a	7	25	9	7	9
1075.36083984375	n/a	PROB	2202339	n/a	LTP386	ltpFR2	18	n/a	n/a	n/a	7	12	4	3	5
1077.29345703125	n/a	PROB	2206297	n/a	LTP386	ltpFR2	18	n/a	n/a	n/a	7	24	7	9	8
1079.1943359375	n/a	PROB	2210190	n/a	LTP386	ltpFR2	18	n/a	n/a	n/a	7	14	5	8	1
1080.693359375	n/a	PROB	2213260	n/a	LTP386	ltpFR2	18	n/a	n/a	n/a	7	11	4	3	4
1082.111328125	n/a	PROB	2216164	n/a	LTP386	ltpFR2	18	n/a	n/a	n/a	7	16	8	6	2
1083.826171875	n/a	PROB	2219676	n/a	LTP386	ltpFR2	18	n/a	n/a	n/a	7	21	7	8	6
1085.693359375	n/a	PROB	2223500	n/a	LTP386	ltpFR2	18	n/a	n/a	n/a	7	19	8	9	2
1087.5234375	n/a	STOP	2227248	n/a	LTP386	ltpFR2	18	n/a	n/a	n/a	7	n/a	n/a	n/a	n/a
1088.826171875	n/a	WORD	2229916	wordpools/wasnorm_wordpool_576.txt	LTP386	ltpFR2	18	5	WITNESS	1618	n/a	n/a	0	0	0
1091.4599609375	n/a	WORD	2235310	wordpools/wasnorm_wordpool_576.txt	LTP386	ltpFR2	18	5	CRUTCH	417	n/a	n/a	0	0	0
1094.01123046875	n/a	WORD	2240535	wordpools/wasnorm_wordpool_576.txt	LTP386	ltpFR2	18	5	HEART	697	n/a	n/a	0	0	0
1096.509765625	n/a	WORD	2245652	wordpools/wasnorm_wordpool_576.txt	LTP386	ltpFR2	18	5	SURVEY	1414	n/a	n/a	0	0	0
1098.97705078125	n/a	WORD	2250705	wordpools/wasnorm_wordpool_576.txt	LTP386	ltpFR2	18	5	HOUND	724	n/a	n/a	0	0	0
1101.79296875	n/a	WORD	2256472	wordpools/wasnorm_wordpool_576.txt	LTP386	ltpFR2	18	5	ROD	1203	n/a	n/a	0	0	0
1104.35888671875	n/a	WORD	2261727	wordpools/wasnorm_wordpool_576.txt	LTP386	ltpFR2	18	5	MONSTER	912	n/a	n/a	0	0	0
1106.80859375	n/a	WORD	2266744	wordpools/wasnorm_wordpool_576.txt	LTP386	ltpFR2	18	5	HATCHET	691	n/a	n/a	0	0	0
1109.57568359375	n/a	WORD	2272411	wordpools/wasnorm_wordpool_576.txt	LTP386	ltpFR2	18	5	YACHT	1629	n/a	n/a	0	0	0
1112.07666015625	n/a	WORD	2277533	wordpools/wasnorm_wordpool_576.txt	LTP386	ltpFR2	18	5	PLAID	1080	n/a	n/a	0	0	0
1114.55859375	n/a	WORD	2282616	wordpools/wasnorm_wordpool_576.txt	LTP386	ltpFR2	18	5	GRAVE	658	n/a	n/a	0	0	0
1117.09326171875	n/a	WORD	2287807	wordpools/wasnorm_wordpool_576.txt	LTP386	ltpFR2	18	5	BASEMENT	94	n/a	n/a	0	0	0
1119.80810546875	n/a	WORD	2293367	wordpools/wasnorm_wordpool_576.txt	LTP386	ltpFR2	18	5	TWISTER	1530	n/a	n/a	0	0	0
1122.25830078125	n/a	WORD	2298385	wordpools/wasnorm_wordpool_576.txt	LTP386	ltpFR2	18	5	CYCLONE	431	n/a	n/a	0	0	0
1125.0419921875	n/a	WORD	2304086	wordpools/wasnorm_wordpool_576.txt	LTP386	ltpFR2	18	5	DUSTPAN	509	n/a	n/a	0	0	0
1127.5078125	n/a	WORD	2309136	wordpools/wasnorm_wordpool_576.txt	LTP386	ltpFR2	18	5	VELVET	1555	n/a	n/a	0	0	0
1130.19189453125	n/a	WORD	2314633	wordpools/wasnorm_wordpool_576.txt	LTP386	ltpFR2	18	5	EYELASH	546	n/a	n/a	0	0	0
1132.791015625	n/a	WORD	2319956	wordpools/wasnorm_wordpool_576.txt	LTP386	ltpFR2	18	5	SNAKE	1333	n/a	n/a	0	0	0
1135.4580078125	n/a	WORD	2325418	wordpools/wasnorm_wordpool_576.txt	LTP386	ltpFR2	18	5	PUPPY	1144	n/a	n/a	0	0	0
1137.8916015625	n/a	WORD	2330402	wordpools/wasnorm_wordpool_576.txt	LTP386	ltpFR2	18	5	TURNIP	1521	n/a	n/a	0	0	0
1140.6904296875	n/a	WORD	2336134	wordpools/wasnorm_wordpool_576.txt	LTP386	ltpFR2	18	5	SEAFOOD	1260	n/a	n/a	0	0	0
1143.25732421875	n/a	WORD	2341391	wordpools/wasnorm_wordpool_576.txt	LTP386	ltpFR2	18	5	DUST	508	n/a	n/a	0	0	0
1145.90869140625	n/a	WORD	2346821	wordpools/wasnorm_wordpool_576.txt	LTP386	ltpFR2	18	5	COFFEE	341	n/a	n/a	0	0	0
1148.7236328125	n/a	WORD	2352586	wordpools/wasnorm_wordpool_576.txt	LTP386	ltpFR2	18	5	CUPBOARD	425	n/a	n/a	0	0	0
1150.34033203125	n/a	START	2355897	n/a	LTP386	ltpFR2	18	n/a	n/a	n/a	8	n/a	n/a	n/a	n/a
1151.47021484375	n/a	DISTRACTOR	2358211	n/a	LTP386	ltpFR2	18	5	n/a	n/a	n/a	n/a	0	0	0
1151.47314453125	n/a	PROB	2358217	n/a	LTP386	ltpFR2	18	n/a	n/a	n/a	8	25	8	9	8
1154.357421875	n/a	PROB	2364124	n/a	LTP386	ltpFR2	18	n/a	n/a	n/a	8	10	7	1	2
1155.75634765625	n/a	PROB	2366989	n/a	LTP386	ltpFR2	18	n/a	n/a	n/a	8	15	2	6	7
1157.490234375	n/a	PROB	2370540	n/a	LTP386	ltpFR2	18	n/a	n/a	n/a	8	13	5	7	1
1158.85595703125	n/a	PROB	2373337	n/a	LTP386	ltpFR2	18	n/a	n/a	n/a	8	22	8	9	5
1161.52294921875	n/a	PROB	2378799	n/a	LTP386	ltpFR2	18	n/a	n/a	n/a	8	21	7	5	9
1163.505859375	n/a	PROB	2382860	n/a	LTP386	ltpFR2	18	n/a	n/a	n/a	8	18	4	9	5
1164.73974609375	n/a	PROB	2385387	n/a	LTP386	ltpFR2	18	n/a	n/a	n/a	8	10	8	1	1
1165.73974609375	n/a	PROB	2387435	n/a	LTP386	ltpFR2	18	n/a	n/a	n/a	8	12	2	9	1
1167.02392578125	n/a	PROB	2390065	n/a	LTP386	ltpFR2	18	n/a	n/a	n/a	8	15	4	7	6
1168.505859375	n/a	PROB	2393100	n/a	LTP386	ltpFR2	18	n/a	n/a	n/a	8	16	1	7	8
1170.12353515625	n/a	PROB	2396413	n/a	LTP386	ltpFR2	18	n/a	n/a	n/a	8	18	3	8	7
1171.85546875	n/a	PROB	2399960	n/a	LTP386	ltpFR2	18	n/a	n/a	n/a	8	9	7	1	1
1173.25048828125	n/a	STOP	2402817	n/a	LTP386	ltpFR2	18	n/a	n/a	n/a	8	n/a	n/a	n/a	n/a
1176.12353515625	n/a	REC_START	2408701	n/a	LTP386	ltpFR2	18	5	n/a	n/a	n/a	n/a	0	0	0
1177.12548828125	n/a	REC_WORD	2410753	wordpools/wasnorm_wordpool_576.txt	LTP386	ltpFR2	18	5	COFFEE	341	n/a	n/a	0	0	0
1178.45947265625	n/a	REC_WORD	2413485	wordpools/wasnorm_wordpool_576.txt	LTP386	ltpFR2	18	5	WITNESS	1618	n/a	n/a	0	0	0
1266.5849609375	n/a	WORD	2593966	wordpools/wasnorm_wordpool_576.txt	LTP386	ltpFR2	18	6	CUSTARD	429	n/a	n/a	0	0	0
1269.11865234375	n/a	WORD	2599155	wordpools/wasnorm_wordpool_576.txt	LTP386	ltpFR2	18	6	MOTEL	919	n/a	n/a	0	0	0
1271.81787109375	n/a	WORD	2604683	wordpools/wasnorm_wordpool_576.txt	LTP386	ltpFR2	18	6	LODGE	839	n/a	n/a	0	0	0
1274.58447265625	n/a	WORD	2610349	wordpools/wasnorm_wordpool_576.txt	LTP386	ltpFR2	18	6	LAGOON	795	n/a	n/a	0	0	0
1277.30029296875	n/a	WORD	2615911	wordpools/wasnorm_wordpool_576.txt	LTP386	ltpFR2	18	6	ARMY	39	n/a	n/a	0	0	0
1279.9853515625	n/a	WORD	2621410	wordpools/wasnorm_wordpool_576.txt	LTP386	ltpFR2	18	6	PERFUME	1049	n/a	n/a	0	0	0
1282.4345703125	n/a	WORD	2626426	wordpools/wasnorm_wordpool_576.txt	LTP386	ltpFR2	18	6	JELLO	754	n/a	n/a	0	0	0
1284.93505859375	n/a	WORD	2631547	wordpools/wasnorm_wordpool_576.txt	LTP386	ltpFR2	18	6	SNACK	1331	n/a	n/a	0	0	0
1287.71728515625	n/a	WORD	2637245	wordpools/wasnorm_wordpool_576.txt	LTP386	ltpFR2	18	6	PAIL	1002	n/a	n/a	0	0	0
1290.5341796875	n/a	WORD	2643014	wordpools/wasnorm_wordpool_576.txt	LTP386	ltpFR2	18	6	FRANCE	601	n/a	n/a	0	0	0
1293.3330078125	n/a	WORD	2648746	wordpools/wasnorm_wordpool_576.txt	LTP386	ltpFR2	18	6	FRAGRANCE	599	n/a	n/a	0	0	0
1295.8671875	n/a	WORD	2653936	wordpools/wasnorm_wordpool_576.txt	LTP386	ltpFR2	18	6	DOUGHNUT	490	n/a	n/a	0	0	0
1298.3330078125	n/a	WORD	2658986	wordpools/wasnorm_wordpool_576.txt	LTP386	ltpFR2	18	6	TRACTOR	1493	n/a	n/a	0	0	0
1300.9677734375	n/a	WORD	2664382	wordpools/wasnorm_wordpool_576.txt	LTP386	ltpFR2	18	6	PUDDING	1139	n/a	n/a	0	0	0
1303.48291015625	n/a	WORD	2669533	wordpools/wasnorm_wordpool_576.txt	LTP386	ltpFR2	18	6	LIGHTNING	820	n/a	n/a	0	0	0
1306.2666015625	n/a	WORD	2675234	wordpools/wasnorm_wordpool_576.txt	LTP386	ltpFR2	18	6	BEEF	113	n/a	n/a	0	0	0
1309.00048828125	n/a	WORD	2680833	wordpools/wasnorm_wordpool_576.txt	LTP386	ltpFR2	18	6	STAPLE	1371	n/a	n/a	0	0	0
1311.6494140625	n/a	WORD	2686258	wordpools/wasnorm_wordpool_576.txt	LTP386	ltpFR2	18	6	NOTEBOOK	959	n/a	n/a	0	0	0
1314.21533203125	n/a	WORD	2691513	wordpools/wasnorm_wordpool_576.txt	LTP386	ltpFR2	18	6	PIANO	1057	n/a	n/a	0	0	0
1317.033203125	n/a	WORD	2697284	wordpools/wasnorm_wordpool_576.txt	LTP386	ltpFR2	18	6	FLOWER	584	n/a	n/a	0	0	0
1319.76513671875	n/a	WORD	2702879	wordpools/wasnorm_wordpool_576.txt	LTP386	ltpFR2	18	6	MARSH	874	n/a	n/a	0	0	0
1322.46533203125	n/a	WORD	2708409	wordpools/wasnorm_wordpool_576.txt	LTP386	ltpFR2	18	6	DRESSER	496	n/a	n/a	0	0	0
1324.88330078125	n/a	WORD	2713361	wordpools/wasnorm_wordpool_576.txt	LTP386	ltpFR2	18	6	CAMEL	223	n/a	n/a	0	0	0
1327.46484375	n/a	WORD	2718648	wordpools/wasnorm_wordpool_576.txt	LTP386	ltpFR2	18	6	COD	340	n/a	n/a	0	0	0
1329.06591796875	n/a	START	2721927	n/a	LTP386	ltpFR2	18	n/a	n/a	n/a	9	n/a	n/a	n/a	n/a
1330.0400390625	n/a	DISTRACTOR	2723922	n/a	LTP386	ltpFR2	18	6	n/a	n/a	n/a	n/a	0	0	0
1330.048828125	n/a	PROB	2723940	n/a	LTP386	ltpFR2	18	n/a	n/a	n/a	9	16	5	9	2
1332.166015625	n/a	PROB	2728276	n/a	LTP386	ltpFR2	18	n/a	n/a	n/a	9	12	2	2	8
1333.431640625	n/a	PROB	2730868	n/a	LTP386	ltpFR2	18	n/a	n/a	n/a	9	14	7	2	5
1335.11572265625	n/a	PROB	2734317	n/a	LTP386	ltpFR2	18	n/a	n/a	n/a	9	16	6	9	1
1336.49755859375	n/a	PROB	2737147	n/a	LTP386	ltpFR2	18	n/a	n/a	n/a	9	12	4	7	1
1337.814453125	n/a	PROB	2739844	n/a	LTP386	ltpFR2	18	n/a	n/a	n/a	9	14	6	2	6
1339.1328125	n/a	PROB	2742544	n/a	LTP386	ltpFR2	18	n/a	n/a	n/a	9	20	4	9	7
1340.84765625	n/a	PROB	2746056	n/a	LTP386	ltpFR2	18	n/a	n/a	n/a	9	15	6	5	4
1342.33154296875	n/a	PROB	2749095	n/a	LTP386	ltpFR2	18	n/a	n/a	n/a	9	8	2	4	2
1343.5146484375	n/a	PROB	2751518	n/a	LTP386	ltpFR2	18	n/a	n/a	n/a	9	15	5	1	9
1344.59765625	n/a	PROB	2753736	n/a	LTP386	ltpFR2	18	n/a	n/a	n/a	9	12	1	7	4
1346.29736328125	n/a	PROB	2757217	n/a	LTP386	ltpFR2	18	n/a	n/a	n/a	9	15	7	6	2
1347.79736328125	n/a	PROB	2760289	n/a	LTP386	ltpFR2	18	n/a	n/a	n/a	9	21	7	5	9
1349.314453125	n/a	PROB	2763396	n/a	LTP386	ltpFR2	18	n/a	n/a	n/a	9	22	7	8	7
1352.068359375	n/a	STOP	2769036	n/a	LTP386	ltpFR2	18	n/a	n/a	n/a	9	n/a	n/a	n/a	n/a
1354.84814453125	n/a	REC_START	2774729	n/a	LTP386	ltpFR2	18	6	n/a	n/a	n/a	n/a	0	0	0
1363.5830078125	n/a	REC_WORD	2792618	wordpools/wasnorm_wordpool_576.txt	LTP386	ltpFR2	18	6	SNACK	1331	n/a	n/a	0	0	0
1365.28271484375	n/a	REC_WORD	2796099	wordpools/wasnorm_wordpool_576.txt	LTP386	ltpFR2	18	6	PAIL	1002	n/a	n/a	0	0	0
1445.32666015625	n/a	WORD	2960029	wordpools/wasnorm_wordpool_576.txt	LTP386	ltpFR2	18	7	RABBIT	1152	n/a	n/a	0	0	0
1447.8095703125	n/a	WORD	2965114	wordpools/wasnorm_wordpool_576.txt	LTP386	ltpFR2	18	7	SALMON	1227	n/a	n/a	0	0	0
1450.4423828125	n/a	WORD	2970506	wordpools/wasnorm_wordpool_576.txt	LTP386	ltpFR2	18	7	HOOK	715	n/a	n/a	0	0	0
1453.193359375	n/a	WORD	2976140	wordpools/wasnorm_wordpool_576.txt	LTP386	ltpFR2	18	7	BURGLAR	200	n/a	n/a	0	0	0
1455.91015625	n/a	WORD	2981704	wordpools/wasnorm_wordpool_576.txt	LTP386	ltpFR2	18	7	BRIEFCASE	175	n/a	n/a	0	0	0
1458.72607421875	n/a	WORD	2987471	wordpools/wasnorm_wordpool_576.txt	LTP386	ltpFR2	18	7	KLEENEX	782	n/a	n/a	0	0	0
1461.2587890625	n/a	WORD	2992658	wordpools/wasnorm_wordpool_576.txt	LTP386	ltpFR2	18	7	PAPER	1011	n/a	n/a	0	0	0
1463.82470703125	n/a	WORD	2997913	wordpools/wasnorm_wordpool_576.txt	LTP386	ltpFR2	18	7	PASTA	1021	n/a	n/a	0	0	0
1466.52490234375	n/a	WORD	3003443	wordpools/wasnorm_wordpool_576.txt	LTP386	ltpFR2	18	7	GARLIC	624	n/a	n/a	0	0	0
1469.24169921875	n/a	WORD	3009007	wordpools/wasnorm_wordpool_576.txt	LTP386	ltpFR2	18	7	JEANS	752	n/a	n/a	0	0	0
1471.69140625	n/a	WORD	3014024	wordpools/wasnorm_wordpool_576.txt	LTP386	ltpFR2	18	7	WINDOW	1611	n/a	n/a	0	0	0
1474.2587890625	n/a	WORD	3019282	wordpools/wasnorm_wordpool_576.txt	LTP386	ltpFR2	18	7	SPHINX	1349	n/a	n/a	0	0	0
1476.74169921875	n/a	WORD	3024367	wordpools/wasnorm_wordpool_576.txt	LTP386	ltpFR2	18	7	SERVANT	1271	n/a	n/a	0	0	0
1479.1923828125	n/a	WORD	3029386	wordpools/wasnorm_wordpool_576.txt	LTP386	ltpFR2	18	7	HUMAN	726	n/a	n/a	0	0	0
1481.89208984375	n/a	WORD	3034915	wordpools/wasnorm_wordpool_576.txt	LTP386	ltpFR2	18	7	AIRPORT	13	n/a	n/a	0	0	0
1484.39111328125	n/a	WORD	3040033	wordpools/wasnorm_wordpool_576.txt	LTP386	ltpFR2	18	7	CURTAIN	427	n/a	n/a	0	0	0
1486.9921875	n/a	WORD	3045360	wordpools/wasnorm_wordpool_576.txt	LTP386	ltpFR2	18	7	POCKET	1093	n/a	n/a	0	0	0
1489.72412109375	n/a	WORD	3050955	wordpools/wasnorm_wordpool_576.txt	LTP386	ltpFR2	18	7	CRICKET	408	n/a	n/a	0	0	0
1492.19189453125	n/a	WORD	3056009	wordpools/wasnorm_wordpool_576.txt	LTP386	ltpFR2	18	7	TART	1436	n/a	n/a	0	0	0
1494.64111328125	n/a	WORD	3061025	wordpools/wasnorm_wordpool_576.txt	LTP386	ltpFR2	18	7	STOVE	1388	n/a	n/a	0	0	0
1497.2080078125	n/a	WORD	3066282	wordpools/wasnorm_wordpool_576.txt	LTP386	ltpFR2	18	7	PICTURE	1061	n/a	n/a	0	0	0
1499.8740234375	n/a	WORD	3071742	wordpools/wasnorm_wordpool_576.txt	LTP386	ltpFR2	18	7	LIVER	833	n/a	n/a	0	0	0
1502.57373046875	n/a	WORD	3077271	wordpools/wasnorm_wordpool_576.txt	LTP386	ltpFR2	18	7	BUNNY	198	n/a	n/a	0	0	0
1505.3408203125	n/a	WORD	3082938	wordpools/wasnorm_wordpool_576.txt	LTP386	ltpFR2	18	7	PASSAGE	1019	n/a	n/a	0	0	0
1506.95751953125	n/a	START	3086249	n/a	LTP386	ltpFR2	18	n/a	n/a	n/a	10	n/a	n/a	n/a	n/a
1508.1123046875	n/a	DISTRACTOR	3088614	n/a	LTP386	ltpFR2	18	7	n/a	n/a	n/a	n/a	0	0	0
1508.12451171875	n/a	PROB	3088639	n/a	LTP386	ltpFR2	18	n/a	n/a	n/a	10	11	4	5	2
1509.8564453125	n/a	PROB	3092186	n/a	LTP386	ltpFR2	18	n/a	n/a	n/a	10	19	2	8	9
1510.92431640625	n/a	PROB	3094373	n/a	LTP386	ltpFR2	18	n/a	n/a	n/a	10	12	3	5	4
1512.63916015625	n/a	PROB	3097885	n/a	LTP386	ltpFR2	18	n/a	n/a	n/a	10	12	5	6	1
1514.30615234375	n/a	PROB	3101299	n/a	LTP386	ltpFR2	18	n/a	n/a	n/a	10	13	6	5	2
1516.17431640625	n/a	PROB	3105125	n/a	LTP386	ltpFR2	18	n/a	n/a	n/a	10	12	7	2	5
1518.14013671875	n/a	PROB	3109151	n/a	LTP386	ltpFR2	18	n/a	n/a	n/a	10	19	7	6	6
1519.38916015625	n/a	PROB	3111709	n/a	LTP386	ltpFR2	18	n/a	n/a	n/a	10	8	1	4	3
1520.95703125	n/a	PROB	3114920	n/a	LTP386	ltpFR2	18	n/a	n/a	n/a	10	13	3	2	8
1523.27197265625	n/a	PROB	3119661	n/a	LTP386	ltpFR2	18	n/a	n/a	n/a	10	13	1	9	3
1524.43896484375	n/a	PROB	3122051	n/a	LTP386	ltpFR2	18	n/a	n/a	n/a	10	19	6	4	9
1525.47314453125	n/a	PROB	3124169	n/a	LTP386	ltpFR2	18	n/a	n/a	n/a	10	19	6	6	7
1526.7060546875	n/a	PROB	3126694	n/a	LTP386	ltpFR2	18	n/a	n/a	n/a	10	15	6	7	2
1528.5390625	n/a	PROB	3130448	n/a	LTP386	ltpFR2	18	n/a	n/a	n/a	10	12	5	1	6
1529.8427734375	n/a	STOP	3133118	n/a	LTP386	ltpFR2	18	n/a	n/a	n/a	10	n/a	n/a	n/a	n/a
1532.77294921875	n/a	REC_START	3139119	n/a	LTP386	ltpFR2	18	7	n/a	n/a	n/a	n/a	0	0	0
1533.69091796875	n/a	REC_WORD	3140999	wordpools/wasnorm_wordpool_576.txt	LTP386	ltpFR2	18	7	HOOK	715	n/a	n/a	0	0	0
1534.294921875	n/a	REC_WORD	3142236	wordpools/wasnorm_wordpool_576.txt	LTP386	ltpFR2	18	7	SALMON	1227	n/a	n/a	0	0	0
1536.37451171875	n/a	REC_WORD	3146495	wordpools/wasnorm_wordpool_576.txt	LTP386	ltpFR2	18	7	LAGOON	795	n/a	n/a	0	0	0
1623.21826171875	n/a	DISTRACTOR	3324351	n/a	LTP386	ltpFR2	18	8	n/a	n/a	n/a	n/a	0	0	0
1623.21826171875	n/a	START	3324351	n/a	LTP386	ltpFR2	18	n/a	n/a	n/a	11	n/a	n/a	n/a	n/a
1623.23486328125	n/a	PROB	3324385	n/a	LTP386	ltpFR2	18	n/a	n/a	n/a	11	10	4	5	1
1624.80078125	n/a	PROB	3327592	n/a	LTP386	ltpFR2	18	n/a	n/a	n/a	11	10	5	2	3
1626.73388671875	n/a	PROB	3331551	n/a	LTP386	ltpFR2	18	n/a	n/a	n/a	11	20	5	6	9
1627.90185546875	n/a	PROB	3333943	n/a	LTP386	ltpFR2	18	n/a	n/a	n/a	11	13	5	4	4
1629.06884765625	n/a	PROB	3336333	n/a	LTP386	ltpFR2	18	n/a	n/a	n/a	11	21	8	9	4
1630.43408203125	n/a	PROB	3339129	n/a	LTP386	ltpFR2	18	n/a	n/a	n/a	11	14	6	2	6
1631.70068359375	n/a	PROB	3341723	n/a	LTP386	ltpFR2	18	n/a	n/a	n/a	11	20	6	8	8
1632.9345703125	n/a	PROB	3344250	n/a	LTP386	ltpFR2	18	n/a	n/a	n/a	11	17	6	9	2
1634.45068359375	n/a	PROB	3347355	n/a	LTP386	ltpFR2	18	n/a	n/a	n/a	11	15	5	2	8
1636.11865234375	n/a	PROB	3350771	n/a	LTP386	ltpFR2	18	n/a	n/a	n/a	11	16	4	3	9
1637.36767578125	n/a	PROB	3353329	n/a	LTP386	ltpFR2	18	n/a	n/a	n/a	11	16	3	8	5
1639.08447265625	n/a	PROB	3356845	n/a	LTP386	ltpFR2	18	n/a	n/a	n/a	11	18	9	2	7
1640.53369140625	n/a	PROB	3359813	n/a	LTP386	ltpFR2	18	n/a	n/a	n/a	11	24	9	9	8
1642.43359375	n/a	PROB	3363704	n/a	LTP386	ltpFR2	18	n/a	n/a	n/a	11	15	4	7	4
1643.80029296875	n/a	PROB	3366503	n/a	LTP386	ltpFR2	18	n/a	n/a	n/a	11	18	4	9	5
1644.91748046875	n/a	PROB	3368791	n/a	LTP386	ltpFR2	18	n/a	n/a	n/a	11	12	2	3	7
1646.2744140625	n/a	STOP	3371570	n/a	LTP386	ltpFR2	18	n/a	n/a	n/a	11	n/a	n/a	n/a	n/a
1648.283203125	n/a	WORD	3375684	wordpools/wasnorm_wordpool_576.txt	LTP386	ltpFR2	18	8	NAPKIN	937	n/a	n/a	0	0	0
1650.9013671875	n/a	WORD	3381046	wordpools/wasnorm_wordpool_576.txt	LTP386	ltpFR2	18	8	REPORT	1184	n/a	n/a	0	0	0
1653.533203125	n/a	WORD	3386436	wordpools/wasnorm_wordpool_576.txt	LTP386	ltpFR2	18	8	COOKBOOK	373	n/a	n/a	0	0	0
1656.05126953125	n/a	WORD	3391593	wordpools/wasnorm_wordpool_576.txt	LTP386	ltpFR2	18	8	TOURIST	1488	n/a	n/a	0	0	0
1658.5	n/a	WORD	3396608	wordpools/wasnorm_wordpool_576.txt	LTP386	ltpFR2	18	8	SUMMIT	1405	n/a	n/a	0	0	0
1660.95068359375	n/a	WORD	3401627	wordpools/wasnorm_wordpool_576.txt	LTP386	ltpFR2	18	8	SWORD	1423	n/a	n/a	0	0	0
1663.4326171875	n/a	WORD	3406710	wordpools/wasnorm_wordpool_576.txt	LTP386	ltpFR2	18	8	CLOCK	325	n/a	n/a	0	0	0
1665.966796875	n/a	WORD	3411900	wordpools/wasnorm_wordpool_576.txt	LTP386	ltpFR2	18	8	WRIST	1626	n/a	n/a	0	0	0
1668.6826171875	n/a	WORD	3417462	wordpools/wasnorm_wordpool_576.txt	LTP386	ltpFR2	18	8	SUNRISE	1407	n/a	n/a	0	0	0
1671.1337890625	n/a	WORD	3422482	wordpools/wasnorm_wordpool_576.txt	LTP386	ltpFR2	18	8	SUNSET	1408	n/a	n/a	0	0	0
1673.71533203125	n/a	WORD	3427769	wordpools/wasnorm_wordpool_576.txt	LTP386	ltpFR2	18	8	BLADE	134	n/a	n/a	0	0	0
1676.4326171875	n/a	WORD	3433334	wordpools/wasnorm_wordpool_576.txt	LTP386	ltpFR2	18	8	DENTIST	447	n/a	n/a	0	0	0
1679.24853515625	n/a	WORD	3439101	wordpools/wasnorm_wordpool_576.txt	LTP386	ltpFR2	18	8	FRAME	600	n/a	n/a	0	0	0
1681.76513671875	n/a	WORD	3444255	wordpools/wasnorm_wordpool_576.txt	LTP386	ltpFR2	18	8	OFFICE	972	n/a	n/a	0	0	0
1684.5654296875	n/a	WORD	3449990	wordpools/wasnorm_wordpool_576.txt	LTP386	ltpFR2	18	8	JUDGE	761	n/a	n/a	0	0	0
1687.19921875	n/a	WORD	3455384	wordpools/wasnorm_wordpool_576.txt	LTP386	ltpFR2	18	8	TREAT	1501	n/a	n/a	0	0	0
1689.68115234375	n/a	WORD	3460467	wordpools/wasnorm_wordpool_576.txt	LTP386	ltpFR2	18	8	SKETCH	1315	n/a	n/a	0	0	0
1692.31494140625	n/a	WORD	3465861	wordpools/wasnorm_wordpool_576.txt	LTP386	ltpFR2	18	8	PLAYGROUND	1087	n/a	n/a	0	0	0
1694.9658203125	n/a	WORD	3471290	wordpools/wasnorm_wordpool_576.txt	LTP386	ltpFR2	18	8	MOP	916	n/a	n/a	0	0	0
1697.5478515625	n/a	WORD	3476578	wordpools/wasnorm_wordpool_576.txt	LTP386	ltpFR2	18	8	ARM	38	n/a	n/a	0	0	0
1700.28076171875	n/a	WORD	3482175	wordpools/wasnorm_wordpool_576.txt	LTP386	ltpFR2	18	8	SCULPTURE	1258	n/a	n/a	0	0	0
1702.8134765625	n/a	WORD	3487362	wordpools/wasnorm_wordpool_576.txt	LTP386	ltpFR2	18	8	HARP	689	n/a	n/a	0	0	0
1705.33056640625	n/a	WORD	3492517	wordpools/wasnorm_wordpool_576.txt	LTP386	ltpFR2	18	8	POSTAGE	1113	n/a	n/a	0	0	0
1707.91455078125	n/a	WORD	3497809	wordpools/wasnorm_wordpool_576.txt	LTP386	ltpFR2	18	8	BREAST	171	n/a	n/a	0	0	0
1709.53125	n/a	START	3501120	n/a	LTP386	ltpFR2	18	n/a	n/a	n/a	12	n/a	n/a	n/a	n/a
1710.5244140625	n/a	DISTRACTOR	3503154	n/a	LTP386	ltpFR2	18	8	n/a	n/a	n/a	n/a	0	0	0
1710.5302734375	n/a	PROB	3503166	n/a	LTP386	ltpFR2	18	n/a	n/a	n/a	12	17	4	9	4
1712.21337890625	n/a	PROB	3506613	n/a	LTP386	ltpFR2	18	n/a	n/a	n/a	12	14	4	4	6
1713.5634765625	n/a	PROB	3509378	n/a	LTP386	ltpFR2	18	n/a	n/a	n/a	12	24	6	9	9
1714.9482421875	n/a	PROB	3512214	n/a	LTP386	ltpFR2	18	n/a	n/a	n/a	12	12	7	2	3
1716.01416015625	n/a	PROB	3514397	n/a	LTP386	ltpFR2	18	n/a	n/a	n/a	12	15	2	4	9
1717.04833984375	n/a	PROB	3516515	n/a	LTP386	ltpFR2	18	n/a	n/a	n/a	12	23	9	7	7
1718.4462890625	n/a	PROB	3519378	n/a	LTP386	ltpFR2	18	n/a	n/a	n/a	12	15	8	6	1
1719.6962890625	n/a	PROB	3521938	n/a	LTP386	ltpFR2	18	n/a	n/a	n/a	12	21	6	7	8
1721.796875	n/a	PROB	3526240	n/a	LTP386	ltpFR2	18	n/a	n/a	n/a	12	16	7	1	8
1723.1640625	n/a	PROB	3529040	n/a	LTP386	ltpFR2	18	n/a	n/a	n/a	12	7	4	1	2
1725.36279296875	n/a	PROB	3533543	n/a	LTP386	ltpFR2	18	n/a	n/a	n/a	12	18	4	6	8
1727.03076171875	n/a	PROB	3536959	n/a	LTP386	ltpFR2	18	n/a	n/a	n/a	12	12	9	2	1
1728.1806640625	n/a	PROB	3539314	n/a	LTP386	ltpFR2	18	n/a	n/a	n/a	12	16	6	3	7
1729.712890625	n/a	PROB	3542452	n/a	LTP386	ltpFR2	18	n/a	n/a	n/a	12	17	6	8	5
1733.53076171875	n/a	STOP	3550271	n/a	LTP386	ltpFR2	18	n/a	n/a	n/a	12	n/a	n/a	n/a	n/a
1735.4794921875	n/a	REC_START	3554262	n/a	LTP386	ltpFR2	18	8	n/a	n/a	n/a	n/a	0	0	0
1736.1806640625	n/a	REC_WORD	3555698	wordpools/wasnorm_wordpool_576.txt	LTP386	ltpFR2	18	8	SUNRISE	1407	n/a	n/a	0	0	0
1737.12060546875	n/a	REC_WORD	3557623	wordpools/wasnorm_wordpool_576.txt	LTP386	ltpFR2	18	8	SUNSET	1408	n/a	n/a	0	0	0
1739.1943359375	n/a	REC_WORD	3561870	wordpools/wasnorm_wordpool_576.txt	LTP386	ltpFR2	18	8	MOP	916	n/a	n/a	0	0	0
1739.83740234375	n/a	REC_WORD	3563187	wordpools/wasnorm_wordpool_576.txt	LTP386	ltpFR2	18	8	TOURIST	1488	n/a	n/a	0	0	0
1812.01025390625	n/a	REST_REWET	3710997	n/a	LTP386	ltpFR2	18	8	n/a	n/a	n/a	n/a	0	0	0
1992.7509765625	n/a	WORD	4081154	wordpools/wasnorm_wordpool_576.txt	LTP386	ltpFR2	18	9	KITCHEN	778	n/a	n/a	0	0	0
1995.28369140625	n/a	WORD	4086341	wordpools/wasnorm_wordpool_576.txt	LTP386	ltpFR2	18	9	SOFTBALL	1343	n/a	n/a	0	0	0
1997.716796875	n/a	WORD	4091324	wordpools/wasnorm_wordpool_576.txt	LTP386	ltpFR2	18	9	BANK	83	n/a	n/a	0	0	0
2000.33349609375	n/a	WORD	4096683	wordpools/wasnorm_wordpool_576.txt	LTP386	ltpFR2	18	9	CITRUS	313	n/a	n/a	0	0	0
2003.03466796875	n/a	WORD	4102215	wordpools/wasnorm_wordpool_576.txt	LTP386	ltpFR2	18	9	BROTHER	179	n/a	n/a	0	0	0
2005.599609375	n/a	WORD	4107468	wordpools/wasnorm_wordpool_576.txt	LTP386	ltpFR2	18	9	GREASE	660	n/a	n/a	0	0	0
2008.38330078125	n/a	WORD	4113169	wordpools/wasnorm_wordpool_576.txt	LTP386	ltpFR2	18	9	TAXI	1438	n/a	n/a	0	0	0
2011.0341796875	n/a	WORD	4118598	wordpools/wasnorm_wordpool_576.txt	LTP386	ltpFR2	18	9	ACTOR	5	n/a	n/a	0	0	0
2013.63330078125	n/a	WORD	4123921	wordpools/wasnorm_wordpool_576.txt	LTP386	ltpFR2	18	9	FARMER	553	n/a	n/a	0	0	0
2016.26611328125	n/a	WORD	4129313	wordpools/wasnorm_wordpool_576.txt	LTP386	ltpFR2	18	9	SHOVEL	1295	n/a	n/a	0	0	0
2019.06689453125	n/a	WORD	4135049	wordpools/wasnorm_wordpool_576.txt	LTP386	ltpFR2	18	9	RUG	1215	n/a	n/a	0	0	0
2021.51611328125	n/a	WORD	4140065	wordpools/wasnorm_wordpool_576.txt	LTP386	ltpFR2	18	9	HELMET	702	n/a	n/a	0	0	0
2024.2490234375	n/a	WORD	4145662	wordpools/wasnorm_wordpool_576.txt	LTP386	ltpFR2	18	9	BIKE	125	n/a	n/a	0	0	0
2026.69873046875	n/a	WORD	4150679	wordpools/wasnorm_wordpool_576.txt	LTP386	ltpFR2	18	9	GRIZZLY	662	n/a	n/a	0	0	0
2029.1826171875	n/a	WORD	4155766	wordpools/wasnorm_wordpool_576.txt	LTP386	ltpFR2	18	9	WOMAN	1620	n/a	n/a	0	0	0
2031.64892578125	n/a	WORD	4160817	wordpools/wasnorm_wordpool_576.txt	LTP386	ltpFR2	18	9	SHORTCAKE	1292	n/a	n/a	0	0	0
2034.41552734375	n/a	WORD	4166483	wordpools/wasnorm_wordpool_576.txt	LTP386	ltpFR2	18	9	PARENT	1013	n/a	n/a	0	0	0
2036.8994140625	n/a	WORD	4171570	wordpools/wasnorm_wordpool_576.txt	LTP386	ltpFR2	18	9	COLONEL	348	n/a	n/a	0	0	0
2039.6142578125	n/a	WORD	4177130	wordpools/wasnorm_wordpool_576.txt	LTP386	ltpFR2	18	9	MEDAL	885	n/a	n/a	0	0	0
2042.2314453125	n/a	WORD	4182490	wordpools/wasnorm_wordpool_576.txt	LTP386	ltpFR2	18	9	KNIFE	785	n/a	n/a	0	0	0
2044.78125	n/a	WORD	4187712	wordpools/wasnorm_wordpool_576.txt	LTP386	ltpFR2	18	9	BUGGY	188	n/a	n/a	0	0	0
2047.4482421875	n/a	WORD	4193174	wordpools/wasnorm_wordpool_576.txt	LTP386	ltpFR2	18	9	CATCHER	258	n/a	n/a	0	0	0
2049.982421875	n/a	WORD	4198364	wordpools/wasnorm_wordpool_576.txt	LTP386	ltpFR2	18	9	SPOON	1357	n/a	n/a	0	0	0
2052.748046875	n/a	WORD	4204028	wordpools/wasnorm_wordpool_576.txt	LTP386	ltpFR2	18	9	EGYPT	519	n/a	n/a	0	0	0
2054.3642578125	n/a	START	4207338	n/a	LTP386	ltpFR2	18	n/a	n/a	n/a	13	n/a	n/a	n/a	n/a
2055.408203125	n/a	DISTRACTOR	4209476	n/a	LTP386	ltpFR2	18	9	n/a	n/a	n/a	n/a	0	0	0
2055.4140625	n/a	PROB	4209488	n/a	LTP386	ltpFR2	18	n/a	n/a	n/a	13	14	8	5	1
2057.36376953125	n/a	PROB	4213481	n/a	LTP386	ltpFR2	18	n/a	n/a	n/a	13	21	4	8	9
2059.31396484375	n/a	PROB	4217475	n/a	LTP386	ltpFR2	18	n/a	n/a	n/a	13	12	8	1	3
2060.4306640625	n/a	PROB	4219762	n/a	LTP386	ltpFR2	18	n/a	n/a	n/a	13	19	9	9	1
2061.81396484375	n/a	PROB	4222595	n/a	LTP386	ltpFR2	18	n/a	n/a	n/a	13	6	1	3	2
2063.36376953125	n/a	PROB	4225769	n/a	LTP386	ltpFR2	18	n/a	n/a	n/a	13	25	9	8	8
2064.64697265625	n/a	PROB	4228397	n/a	LTP386	ltpFR2	18	n/a	n/a	n/a	13	18	6	6	6
2065.96484375	n/a	PROB	4231096	n/a	LTP386	ltpFR2	18	n/a	n/a	n/a	13	15	8	3	4
2067.1474609375	n/a	PROB	4233518	n/a	LTP386	ltpFR2	18	n/a	n/a	n/a	13	18	5	4	9
2068.24658203125	n/a	PROB	4235769	n/a	LTP386	ltpFR2	18	n/a	n/a	n/a	13	21	4	9	8
2070.064453125	n/a	PROB	4239492	n/a	LTP386	ltpFR2	18	n/a	n/a	n/a	13	13	7	4	2
2071.88134765625	n/a	PROB	4243213	n/a	LTP386	ltpFR2	18	n/a	n/a	n/a	13	9	6	1	2
2073.1962890625	n/a	PROB	4245906	n/a	LTP386	ltpFR2	18	n/a	n/a	n/a	13	17	7	1	9
2074.74658203125	n/a	PROB	4249081	n/a	LTP386	ltpFR2	18	n/a	n/a	n/a	13	18	4	7	7
2075.9814453125	n/a	PROB	4251610	n/a	LTP386	ltpFR2	18	n/a	n/a	n/a	13	19	7	3	9
2076.92333984375	n/a	STOP	4253539	n/a	LTP386	ltpFR2	18	n/a	n/a	n/a	13	n/a	n/a	n/a	n/a
2080.1640625	n/a	REC_START	4260176	n/a	LTP386	ltpFR2	18	9	n/a	n/a	n/a	n/a	0	0	0
2081.46826171875	n/a	REC_WORD	4262847	wordpools/wasnorm_wordpool_576.txt	LTP386	ltpFR2	18	9	KITCHEN	778	n/a	n/a	0	0	0
2082.17919921875	n/a	REC_WORD	4264303	wordpools/wasnorm_wordpool_576.txt	LTP386	ltpFR2	18	9	CITRUS	313	n/a	n/a	0	0	0
2083.06298828125	n/a	REC_WORD	4266113	wordpools/wasnorm_wordpool_576.txt	LTP386	ltpFR2	18	9	KNIFE	785	n/a	n/a	0	0	0
2084.27734375	n/a	REC_WORD	4268600	wordpools/wasnorm_wordpool_576.txt	LTP386	ltpFR2	18	9	PARENT	1013	n/a	n/a	0	0	0
2085.0048828125	n/a	REC_WORD	4270090	wordpools/wasnorm_wordpool_576.txt	LTP386	ltpFR2	18	9	BROTHER	179	n/a	n/a	0	0	0
2085.63330078125	n/a	REC_WORD	4271377	wordpools/wasnorm_wordpool_576.txt	LTP386	ltpFR2	18	9	WOMAN	1620	n/a	n/a	0	0	0
2088.60693359375	n/a	REC_WORD	4277467	wordpools/wasnorm_wordpool_576.txt	LTP386	ltpFR2	18	9	GREASE	660	n/a	n/a	0	0	0
2090.48974609375	n/a	REC_WORD	4281323	wordpools/wasnorm_wordpool_576.txt	LTP386	ltpFR2	18	9	BANK	83	n/a	n/a	0	0	0
2170.6083984375	n/a	DISTRACTOR	4445406	n/a	LTP386	ltpFR2	18	10	n/a	n/a	n/a	n/a	0	0	0
2170.6083984375	n/a	START	4445406	n/a	LTP386	ltpFR2	18	n/a	n/a	n/a	14	n/a	n/a	n/a	n/a
2170.62548828125	n/a	PROB	4445441	n/a	LTP386	ltpFR2	18	n/a	n/a	n/a	14	11	3	6	2
2172.62548828125	n/a	PROB	4449537	n/a	LTP386	ltpFR2	18	n/a	n/a	n/a	14	13	6	3	4
2173.80859375	n/a	PROB	4451960	n/a	LTP386	ltpFR2	18	n/a	n/a	n/a	14	16	6	7	3
2175.2255859375	n/a	PROB	4454862	n/a	LTP386	ltpFR2	18	n/a	n/a	n/a	14	16	6	1	9
2176.392578125	n/a	PROB	4457252	n/a	LTP386	ltpFR2	18	n/a	n/a	n/a	14	12	8	3	1
2177.5751953125	n/a	PROB	4459674	n/a	LTP386	ltpFR2	18	n/a	n/a	n/a	14	8	1	5	2
2179.17626953125	n/a	PROB	4462953	n/a	LTP386	ltpFR2	18	n/a	n/a	n/a	14	9	2	3	4
2181.30810546875	n/a	PROB	4467319	n/a	LTP386	ltpFR2	18	n/a	n/a	n/a	14	18	6	6	6
2182.42529296875	n/a	PROB	4469607	n/a	LTP386	ltpFR2	18	n/a	n/a	n/a	14	21	9	5	7
2184.17626953125	n/a	PROB	4473193	n/a	LTP386	ltpFR2	18	n/a	n/a	n/a	14	11	7	3	1
2185.17626953125	n/a	PROB	4475241	n/a	LTP386	ltpFR2	18	n/a	n/a	n/a	14	13	2	6	5
2188.2080078125	n/a	PROB	4481450	n/a	LTP386	ltpFR2	18	n/a	n/a	n/a	14	15	1	5	9
2189.2080078125	n/a	PROB	4483498	n/a	LTP386	ltpFR2	18	n/a	n/a	n/a	14	8	1	3	4
2190.82470703125	n/a	PROB	4486809	n/a	LTP386	ltpFR2	18	n/a	n/a	n/a	14	14	3	2	9
2192.1259765625	n/a	PROB	4489474	n/a	LTP386	ltpFR2	18	n/a	n/a	n/a	14	15	5	4	6
2193.18701171875	n/a	STOP	4491647	n/a	LTP386	ltpFR2	18	n/a	n/a	n/a	14	n/a	n/a	n/a	n/a
2195.625	n/a	WORD	4496640	wordpools/wasnorm_wordpool_576.txt	LTP386	ltpFR2	18	10	CREATURE	403	n/a	n/a	0	0	0
2198.24072265625	n/a	WORD	4501997	wordpools/wasnorm_wordpool_576.txt	LTP386	ltpFR2	18	10	INMATE	738	n/a	n/a	0	0	0
2200.79052734375	n/a	WORD	4507219	wordpools/wasnorm_wordpool_576.txt	LTP386	ltpFR2	18	10	ATOM	55	n/a	n/a	0	0	0
2203.42431640625	n/a	WORD	4512613	wordpools/wasnorm_wordpool_576.txt	LTP386	ltpFR2	18	10	THIEF	1456	n/a	n/a	0	0	0
2205.94140625	n/a	WORD	4517768	wordpools/wasnorm_wordpool_576.txt	LTP386	ltpFR2	18	10	BATHTUB	100	n/a	n/a	0	0	0
2208.70751953125	n/a	WORD	4523433	wordpools/wasnorm_wordpool_576.txt	LTP386	ltpFR2	18	10	CLAM	315	n/a	n/a	0	0	0
2211.50732421875	n/a	WORD	4529167	wordpools/wasnorm_wordpool_576.txt	LTP386	ltpFR2	18	10	NECKLACE	940	n/a	n/a	0	0	0
2214.07421875	n/a	WORD	4534424	wordpools/wasnorm_wordpool_576.txt	LTP386	ltpFR2	18	10	COMET	353	n/a	n/a	0	0	0
2216.8740234375	n/a	WORD	4540158	wordpools/wasnorm_wordpool_576.txt	LTP386	ltpFR2	18	10	EMPIRE	530	n/a	n/a	0	0	0
2219.55712890625	n/a	WORD	4545653	wordpools/wasnorm_wordpool_576.txt	LTP386	ltpFR2	18	10	VALVE	1546	n/a	n/a	0	0	0
2222.10693359375	n/a	WORD	4550875	wordpools/wasnorm_wordpool_576.txt	LTP386	ltpFR2	18	10	LUMBER	848	n/a	n/a	0	0	0
2224.82275390625	n/a	WORD	4556437	wordpools/wasnorm_wordpool_576.txt	LTP386	ltpFR2	18	10	CHIPMUNK	304	n/a	n/a	0	0	0
2227.40576171875	n/a	WORD	4561727	wordpools/wasnorm_wordpool_576.txt	LTP386	ltpFR2	18	10	NOMAD	955	n/a	n/a	0	0	0
2229.94091796875	n/a	WORD	4566919	wordpools/wasnorm_wordpool_576.txt	LTP386	ltpFR2	18	10	MISTER	901	n/a	n/a	0	0	0
2232.505859375	n/a	WORD	4572172	wordpools/wasnorm_wordpool_576.txt	LTP386	ltpFR2	18	10	FIDDLE	561	n/a	n/a	0	0	0
2235.28955078125	n/a	WORD	4577873	wordpools/wasnorm_wordpool_576.txt	LTP386	ltpFR2	18	10	TRENCH	1503	n/a	n/a	0	0	0
2238.0234375	n/a	WORD	4583472	wordpools/wasnorm_wordpool_576.txt	LTP386	ltpFR2	18	10	SHRUB	1299	n/a	n/a	0	0	0
2240.60546875	n/a	WORD	4588760	wordpools/wasnorm_wordpool_576.txt	LTP386	ltpFR2	18	10	PARROT	1015	n/a	n/a	0	0	0
2243.23828125	n/a	WORD	4594152	wordpools/wasnorm_wordpool_576.txt	LTP386	ltpFR2	18	10	FOOTBALL	591	n/a	n/a	0	0	0
2245.90625	n/a	WORD	4599616	wordpools/wasnorm_wordpool_576.txt	LTP386	ltpFR2	18	10	WORLD	1622	n/a	n/a	0	0	0
2248.52197265625	n/a	WORD	4604973	wordpools/wasnorm_wordpool_576.txt	LTP386	ltpFR2	18	10	ATLAS	53	n/a	n/a	0	0	0
2251.13916015625	n/a	WORD	4610333	wordpools/wasnorm_wordpool_576.txt	LTP386	ltpFR2	18	10	BLENDER	136	n/a	n/a	0	0	0
2253.60498046875	n/a	WORD	4615383	wordpools/wasnorm_wordpool_576.txt	LTP386	ltpFR2	18	10	TABLET	1427	n/a	n/a	0	0	0
2256.05615234375	n/a	WORD	4620403	wordpools/wasnorm_wordpool_576.txt	LTP386	ltpFR2	18	10	COWBOY	395	n/a	n/a	0	0	0
2257.671875	n/a	START	4623712	n/a	LTP386	ltpFR2	18	n/a	n/a	n/a	15	n/a	n/a	n/a	n/a
2258.5048828125	n/a	DISTRACTOR	4625418	n/a	LTP386	ltpFR2	18	10	n/a	n/a	n/a	n/a	0	0	0
2258.52197265625	n/a	PROB	4625453	n/a	LTP386	ltpFR2	18	n/a	n/a	n/a	15	14	6	6	2
2260.3046875	n/a	PROB	4629104	n/a	LTP386	ltpFR2	18	n/a	n/a	n/a	15	18	6	8	4
2262.0888671875	n/a	PROB	4632758	n/a	LTP386	ltpFR2	18	n/a	n/a	n/a	15	21	6	6	9
2263.65478515625	n/a	PROB	4635965	n/a	LTP386	ltpFR2	18	n/a	n/a	n/a	15	14	5	1	8
2264.90576171875	n/a	PROB	4638527	n/a	LTP386	ltpFR2	18	n/a	n/a	n/a	15	7	7	9	1
2266.6376953125	n/a	PROB	4642074	n/a	LTP386	ltpFR2	18	n/a	n/a	n/a	15	11	3	3	5
2267.98876953125	n/a	PROB	4644841	n/a	LTP386	ltpFR2	18	n/a	n/a	n/a	15	18	8	2	8
2269.0556640625	n/a	PROB	4647026	n/a	LTP386	ltpFR2	18	n/a	n/a	n/a	15	16	2	5	9
2271.4873046875	n/a	PROB	4652006	n/a	LTP386	ltpFR2	18	n/a	n/a	n/a	15	10	6	3	1
2272.6875	n/a	PROB	4654464	n/a	LTP386	ltpFR2	18	n/a	n/a	n/a	15	17	6	8	3
2274.58740234375	n/a	PROB	4658355	n/a	LTP386	ltpFR2	18	n/a	n/a	n/a	15	19	4	6	9
2275.70458984375	n/a	PROB	4660643	n/a	LTP386	ltpFR2	18	n/a	n/a	n/a	15	15	7	4	4
2276.75439453125	n/a	PROB	4662793	n/a	LTP386	ltpFR2	18	n/a	n/a	n/a	15	13	2	7	4
2278.0712890625	n/a	PROB	4665490	n/a	LTP386	ltpFR2	18	n/a	n/a	n/a	15	13	3	4	6
2279.2041015625	n/a	PROB	4667810	n/a	LTP386	ltpFR2	18	n/a	n/a	n/a	15	12	2	3	7
2280.2900390625	n/a	STOP	4670034	n/a	LTP386	ltpFR2	18	n/a	n/a	n/a	15	n/a	n/a	n/a	n/a
2283.43701171875	n/a	REC_START	4676479	n/a	LTP386	ltpFR2	18	10	n/a	n/a	n/a	n/a	0	0	0
2358.44677734375	n/a	REC_WORD_VV	4830099	wordpools/wasnorm_wordpool_576.txt	LTP386	ltpFR2	18	10	<>	-1	n/a	n/a	0	0	0
2373.900390625	n/a	WORD	4861748	wordpools/wasnorm_wordpool_576.txt	LTP386	ltpFR2	18	11	SHOULDER	1294	n/a	n/a	0	0	0
2376.6162109375	n/a	WORD	4867310	wordpools/wasnorm_wordpool_576.txt	LTP386	ltpFR2	18	11	PIGMENT	1066	n/a	n/a	0	0	0
2379.21630859375	n/a	WORD	4872635	wordpools/wasnorm_wordpool_576.txt	LTP386	ltpFR2	18	11	CELLAR	267	n/a	n/a	0	0	0
2381.83203125	n/a	WORD	4877992	wordpools/wasnorm_wordpool_576.txt	LTP386	ltpFR2	18	11	MARKET	871	n/a	n/a	0	0	0
2384.44921875	n/a	WORD	4883352	wordpools/wasnorm_wordpool_576.txt	LTP386	ltpFR2	18	11	DINER	467	n/a	n/a	0	0	0
2387.2490234375	n/a	WORD	4889086	wordpools/wasnorm_wordpool_576.txt	LTP386	ltpFR2	18	11	WAITRESS	1581	n/a	n/a	0	0	0
2389.84912109375	n/a	WORD	4894411	wordpools/wasnorm_wordpool_576.txt	LTP386	ltpFR2	18	11	LABEL	790	n/a	n/a	0	0	0
2392.61474609375	n/a	WORD	4900075	wordpools/wasnorm_wordpool_576.txt	LTP386	ltpFR2	18	11	HAMPER	682	n/a	n/a	0	0	0
2395.31494140625	n/a	WORD	4905605	wordpools/wasnorm_wordpool_576.txt	LTP386	ltpFR2	18	11	CABBAGE	210	n/a	n/a	0	0	0
2398.015625	n/a	WORD	4911136	wordpools/wasnorm_wordpool_576.txt	LTP386	ltpFR2	18	11	QUARTER	1148	n/a	n/a	0	0	0
2400.44873046875	n/a	WORD	4916119	wordpools/wasnorm_wordpool_576.txt	LTP386	ltpFR2	18	11	CHURCH	307	n/a	n/a	0	0	0
2403.19873046875	n/a	WORD	4921751	wordpools/wasnorm_wordpool_576.txt	LTP386	ltpFR2	18	11	BULLET	194	n/a	n/a	0	0	0
2406.015625	n/a	WORD	4927520	wordpools/wasnorm_wordpool_576.txt	LTP386	ltpFR2	18	11	FINGER	567	n/a	n/a	0	0	0
2408.4814453125	n/a	WORD	4932570	wordpools/wasnorm_wordpool_576.txt	LTP386	ltpFR2	18	11	FLEET	578	n/a	n/a	0	0	0
2410.91552734375	n/a	WORD	4937555	wordpools/wasnorm_wordpool_576.txt	LTP386	ltpFR2	18	11	STAKE	1368	n/a	n/a	0	0	0
2413.5810546875	n/a	WORD	4943014	wordpools/wasnorm_wordpool_576.txt	LTP386	ltpFR2	18	11	ANKLE	24	n/a	n/a	0	0	0
2416.34716796875	n/a	WORD	4948679	wordpools/wasnorm_wordpool_576.txt	LTP386	ltpFR2	18	11	CABIN	211	n/a	n/a	0	0	0
2418.96484375	n/a	WORD	4954040	wordpools/wasnorm_wordpool_576.txt	LTP386	ltpFR2	18	11	FLIPPER	580	n/a	n/a	0	0	0
2421.6640625	n/a	WORD	4959568	wordpools/wasnorm_wordpool_576.txt	LTP386	ltpFR2	18	11	BANJO	82	n/a	n/a	0	0	0
2424.4140625	n/a	WORD	4965200	wordpools/wasnorm_wordpool_576.txt	LTP386	ltpFR2	18	11	WAITER	1580	n/a	n/a	0	0	0
2427.03173828125	n/a	WORD	4970561	wordpools/wasnorm_wordpool_576.txt	LTP386	ltpFR2	18	11	WASHER	1592	n/a	n/a	0	0	0
2429.7138671875	n/a	WORD	4976054	wordpools/wasnorm_wordpool_576.txt	LTP386	ltpFR2	18	11	FIREMAN	569	n/a	n/a	0	0	0
2432.16455078125	n/a	WORD	4981073	wordpools/wasnorm_wordpool_576.txt	LTP386	ltpFR2	18	11	CASHEW	253	n/a	n/a	0	0	0
2434.61376953125	n/a	WORD	4986089	wordpools/wasnorm_wordpool_576.txt	LTP386	ltpFR2	18	11	PECAN	1036	n/a	n/a	0	0	0
2436.23046875	n/a	START	4989400	n/a	LTP386	ltpFR2	18	n/a	n/a	n/a	16	n/a	n/a	n/a	n/a
2437.03759765625	n/a	DISTRACTOR	4991053	n/a	LTP386	ltpFR2	18	11	n/a	n/a	n/a	n/a	0	0	0
2437.04736328125	n/a	PROB	4991073	n/a	LTP386	ltpFR2	18	n/a	n/a	n/a	16	14	6	6	2
2438.4794921875	n/a	PROB	4994006	n/a	LTP386	ltpFR2	18	n/a	n/a	n/a	16	17	5	7	5
2440.2294921875	n/a	PROB	4997590	n/a	LTP386	ltpFR2	18	n/a	n/a	n/a	16	20	3	9	8
2445.3291015625	n/a	PROB	5008034	n/a	LTP386	ltpFR2	18	n/a	n/a	n/a	16	16	5	6	5
2446.5791015625	n/a	PROB	5010594	n/a	LTP386	ltpFR2	18	n/a	n/a	n/a	16	8	4	2	2
2447.6123046875	n/a	PROB	5012710	n/a	LTP386	ltpFR2	18	n/a	n/a	n/a	16	21	7	9	5
2449.04736328125	n/a	PROB	5015649	n/a	LTP386	ltpFR2	18	n/a	n/a	n/a	16	18	6	8	4
2450.1142578125	n/a	PROB	5017834	n/a	LTP386	ltpFR2	18	n/a	n/a	n/a	16	11	1	7	3
2451.18017578125	n/a	PROB	5020017	n/a	LTP386	ltpFR2	18	n/a	n/a	n/a	16	10	2	6	2
2452.7119140625	n/a	PROB	5023154	n/a	LTP386	ltpFR2	18	n/a	n/a	n/a	16	11	3	7	1
2453.7119140625	n/a	PROB	5025202	n/a	LTP386	ltpFR2	18	n/a	n/a	n/a	16	11	1	2	8
2455.1298828125	n/a	PROB	5028106	n/a	LTP386	ltpFR2	18	n/a	n/a	n/a	16	13	6	4	3
2456.24609375	n/a	PROB	5030392	n/a	LTP386	ltpFR2	18	n/a	n/a	n/a	16	20	8	5	7
2457.51171875	n/a	PROB	5032984	n/a	LTP386	ltpFR2	18	n/a	n/a	n/a	16	7	1	2	4
2458.75390625	n/a	STOP	5035528	n/a	LTP386	ltpFR2	18	n/a	n/a	n/a	16	n/a	n/a	n/a	n/a
2462.16357421875	n/a	REC_START	5042511	n/a	LTP386	ltpFR2	18	11	n/a	n/a	n/a	n/a	0	0	0
2463.11767578125	n/a	REC_WORD	5044465	wordpools/wasnorm_wordpool_576.txt	LTP386	ltpFR2	18	11	PECAN	1036	n/a	n/a	0	0	0
2463.892578125	n/a	REC_WORD	5046052	wordpools/wasnorm_wordpool_576.txt	LTP386	ltpFR2	18	11	CASHEW	253	n/a	n/a	0	0	0
2527.05859375	n/a	REC_WORD	5175416	wordpools/wasnorm_wordpool_576.txt	LTP386	ltpFR2	18	11	WAITRESS	1581	n/a	n/a	0	0	0
2527.99462890625	n/a	REC_WORD	5177333	wordpools/wasnorm_wordpool_576.txt	LTP386	ltpFR2	18	11	DINER	467	n/a	n/a	0	0	0
2552.6240234375	n/a	WORD	5227774	wordpools/wasnorm_wordpool_576.txt	LTP386	ltpFR2	18	12	HAND	683	n/a	n/a	0	0	0
2555.19091796875	n/a	WORD	5233031	wordpools/wasnorm_wordpool_576.txt	LTP386	ltpFR2	18	12	LAPEL	800	n/a	n/a	0	0	0
2557.65771484375	n/a	WORD	5238083	wordpools/wasnorm_wordpool_576.txt	LTP386	ltpFR2	18	12	NIGHTGOWN	953	n/a	n/a	0	0	0
2560.40771484375	n/a	WORD	5243715	wordpools/wasnorm_wordpool_576.txt	LTP386	ltpFR2	18	12	WORKER	1621	n/a	n/a	0	0	0
2563.24072265625	n/a	WORD	5249517	wordpools/wasnorm_wordpool_576.txt	LTP386	ltpFR2	18	12	SHELTER	1282	n/a	n/a	0	0	0
2566.04150390625	n/a	WORD	5255253	wordpools/wasnorm_wordpool_576.txt	LTP386	ltpFR2	18	12	SLIDE	1326	n/a	n/a	0	0	0
2568.70751953125	n/a	WORD	5260713	wordpools/wasnorm_wordpool_576.txt	LTP386	ltpFR2	18	12	TURTLE	1522	n/a	n/a	0	0	0
2571.5234375	n/a	WORD	5266480	wordpools/wasnorm_wordpool_576.txt	LTP386	ltpFR2	18	12	PISTOL	1075	n/a	n/a	0	0	0
2574.240234375	n/a	WORD	5272044	wordpools/wasnorm_wordpool_576.txt	LTP386	ltpFR2	18	12	CATTLE	261	n/a	n/a	0	0	0
2576.9072265625	n/a	WORD	5277506	wordpools/wasnorm_wordpool_576.txt	LTP386	ltpFR2	18	12	OX	994	n/a	n/a	0	0	0
2579.50634765625	n/a	WORD	5282829	wordpools/wasnorm_wordpool_576.txt	LTP386	ltpFR2	18	12	CANAL	226	n/a	n/a	0	0	0
2582.02392578125	n/a	WORD	5287985	wordpools/wasnorm_wordpool_576.txt	LTP386	ltpFR2	18	12	TYPIST	1532	n/a	n/a	0	0	0
2584.7060546875	n/a	WORD	5293478	wordpools/wasnorm_wordpool_576.txt	LTP386	ltpFR2	18	12	VAGRANT	1544	n/a	n/a	0	0	0
2587.2060546875	n/a	WORD	5298598	wordpools/wasnorm_wordpool_576.txt	LTP386	ltpFR2	18	12	SUBWAY	1400	n/a	n/a	0	0	0
2590.0068359375	n/a	WORD	5304334	wordpools/wasnorm_wordpool_576.txt	LTP386	ltpFR2	18	12	WARDROBE	1587	n/a	n/a	0	0	0
2592.72265625	n/a	WORD	5309896	wordpools/wasnorm_wordpool_576.txt	LTP386	ltpFR2	18	12	GOBLIN	645	n/a	n/a	0	0	0
2595.28955078125	n/a	WORD	5315153	wordpools/wasnorm_wordpool_576.txt	LTP386	ltpFR2	18	12	COSTUME	383	n/a	n/a	0	0	0
2597.9404296875	n/a	WORD	5320582	wordpools/wasnorm_wordpool_576.txt	LTP386	ltpFR2	18	12	SILK	1307	n/a	n/a	0	0	0
2600.72265625	n/a	WORD	5326280	wordpools/wasnorm_wordpool_576.txt	LTP386	ltpFR2	18	12	OUTFIT	988	n/a	n/a	0	0	0
2603.388671875	n/a	WORD	5331740	wordpools/wasnorm_wordpool_576.txt	LTP386	ltpFR2	18	12	MARINE	869	n/a	n/a	0	0	0
2605.95654296875	n/a	WORD	5336999	wordpools/wasnorm_wordpool_576.txt	LTP386	ltpFR2	18	12	CHILD	299	n/a	n/a	0	0	0
2608.50537109375	n/a	WORD	5342219	wordpools/wasnorm_wordpool_576.txt	LTP386	ltpFR2	18	12	INFANT	737	n/a	n/a	0	0	0
2611.23828125	n/a	WORD	5347816	wordpools/wasnorm_wordpool_576.txt	LTP386	ltpFR2	18	12	PILOT	1070	n/a	n/a	0	0	0
2613.7880859375	n/a	WORD	5353038	wordpools/wasnorm_wordpool_576.txt	LTP386	ltpFR2	18	12	COIN	343	n/a	n/a	0	0	0
2615.4052734375	n/a	START	5356350	n/a	LTP386	ltpFR2	18	n/a	n/a	n/a	17	n/a	n/a	n/a	n/a
2616.5849609375	n/a	DISTRACTOR	5358766	n/a	LTP386	ltpFR2	18	12	n/a	n/a	n/a	n/a	0	0	0
2616.587890625	n/a	PROB	5358772	n/a	LTP386	ltpFR2	18	n/a	n/a	n/a	17	20	9	4	7
2618.705078125	n/a	PROB	5363108	n/a	LTP386	ltpFR2	18	n/a	n/a	n/a	17	20	4	7	9
2619.77099609375	n/a	PROB	5365291	n/a	LTP386	ltpFR2	18	n/a	n/a	n/a	17	13	3	3	7
2620.8720703125	n/a	PROB	5367546	n/a	LTP386	ltpFR2	18	n/a	n/a	n/a	17	16	3	4	9
2622.02197265625	n/a	PROB	5369901	n/a	LTP386	ltpFR2	18	n/a	n/a	n/a	17	11	2	6	5
2623.37109375	n/a	PROB	5372664	n/a	LTP386	ltpFR2	18	n/a	n/a	n/a	17	21	7	7	7
2624.587890625	n/a	PROB	5375156	n/a	LTP386	ltpFR2	18	n/a	n/a	n/a	17	12	3	2	7
2625.720703125	n/a	PROB	5377476	n/a	LTP386	ltpFR2	18	n/a	n/a	n/a	17	15	9	6	2
2626.93896484375	n/a	PROB	5379971	n/a	LTP386	ltpFR2	18	n/a	n/a	n/a	17	23	8	9	6
2629.337890625	n/a	PROB	5384884	n/a	LTP386	ltpFR2	18	n/a	n/a	n/a	17	18	9	6	3
2630.6044921875	n/a	PROB	5387478	n/a	LTP386	ltpFR2	18	n/a	n/a	n/a	17	24	8	7	7
2632.6044921875	n/a	PROB	5391574	n/a	LTP386	ltpFR2	18	n/a	n/a	n/a	17	19	7	6	6
2634.25439453125	n/a	PROB	5394953	n/a	LTP386	ltpFR2	18	n/a	n/a	n/a	17	14	8	1	5
2635.5703125	n/a	PROB	5397648	n/a	LTP386	ltpFR2	18	n/a	n/a	n/a	17	23	7	9	7
2636.92138671875	n/a	PROB	5400415	n/a	LTP386	ltpFR2	18	n/a	n/a	n/a	17	15	2	6	7
2638.44140625	n/a	STOP	5403528	n/a	LTP386	ltpFR2	18	n/a	n/a	n/a	17	n/a	n/a	n/a	n/a
2641.33740234375	n/a	REC_START	5409459	n/a	LTP386	ltpFR2	18	12	n/a	n/a	n/a	n/a	0	0	0
2644.71044921875	n/a	REC_WORD	5416367	wordpools/wasnorm_wordpool_576.txt	LTP386	ltpFR2	18	12	GOBLIN	645	n/a	n/a	0	0	0
2645.51318359375	n/a	REC_WORD	5418011	wordpools/wasnorm_wordpool_576.txt	LTP386	ltpFR2	18	12	SILK	1307	n/a	n/a	0	0	0
2653.81884765625	n/a	REC_WORD	5435021	wordpools/wasnorm_wordpool_576.txt	LTP386	ltpFR2	18	12	CATTLE	261	n/a	n/a	0	0	0
2654.49169921875	n/a	REC_WORD	5436399	wordpools/wasnorm_wordpool_576.txt	LTP386	ltpFR2	18	12	OX	994	n/a	n/a	0	0	0
2731.78271484375	n/a	DISTRACTOR	5594691	n/a	LTP386	ltpFR2	18	13	n/a	n/a	n/a	n/a	0	0	0
2731.78271484375	n/a	START	5594691	n/a	LTP386	ltpFR2	18	n/a	n/a	n/a	18	n/a	n/a	n/a	n/a
2731.7998046875	n/a	PROB	5594726	n/a	LTP386	ltpFR2	18	n/a	n/a	n/a	18	15	1	8	6
2733.599609375	n/a	PROB	5598412	n/a	LTP386	ltpFR2	18	n/a	n/a	n/a	18	16	5	6	5
2734.8505859375	n/a	PROB	5600974	n/a	LTP386	ltpFR2	18	n/a	n/a	n/a	18	13	8	1	5
2736.482421875	n/a	PROB	5604316	n/a	LTP386	ltpFR2	18	n/a	n/a	n/a	18	7	4	2	1
2738.599609375	n/a	PROB	5608652	n/a	LTP386	ltpFR2	18	n/a	n/a	n/a	18	14	5	8	1
2740.033203125	n/a	PROB	5611588	n/a	LTP386	ltpFR2	18	n/a	n/a	n/a	18	11	6	2	3
2741.232421875	n/a	PROB	5614044	n/a	LTP386	ltpFR2	18	n/a	n/a	n/a	18	14	9	3	2
2742.91748046875	n/a	PROB	5617495	n/a	LTP386	ltpFR2	18	n/a	n/a	n/a	18	22	9	6	7
2745.3994140625	n/a	PROB	5622578	n/a	LTP386	ltpFR2	18	n/a	n/a	n/a	18	17	6	2	9
2747.2822265625	n/a	PROB	5626434	n/a	LTP386	ltpFR2	18	n/a	n/a	n/a	18	13	7	1	5
2748.89990234375	n/a	PROB	5629747	n/a	LTP386	ltpFR2	18	n/a	n/a	n/a	18	15	6	8	3
2750.71484375	n/a	PROB	5633464	n/a	LTP386	ltpFR2	18	n/a	n/a	n/a	18	19	8	7	4
2752.8828125	n/a	PROB	5637904	n/a	LTP386	ltpFR2	18	n/a	n/a	n/a	18	11	1	4	6
2753.93310546875	n/a	PROB	5640055	n/a	LTP386	ltpFR2	18	n/a	n/a	n/a	18	12	3	2	7
2755.19384765625	n/a	STOP	5642637	n/a	LTP386	ltpFR2	18	n/a	n/a	n/a	18	n/a	n/a	n/a	n/a
2756.83203125	n/a	WORD	5645992	wordpools/wasnorm_wordpool_576.txt	LTP386	ltpFR2	18	13	JUNGLE	764	n/a	n/a	0	0	0
2759.3818359375	n/a	WORD	5651214	wordpools/wasnorm_wordpool_576.txt	LTP386	ltpFR2	18	13	POLICE	1098	n/a	n/a	0	0	0
2762.19775390625	n/a	WORD	5656981	wordpools/wasnorm_wordpool_576.txt	LTP386	ltpFR2	18	13	STAR	1373	n/a	n/a	0	0	0
2764.7646484375	n/a	WORD	5662238	wordpools/wasnorm_wordpool_576.txt	LTP386	ltpFR2	18	13	LEG	809	n/a	n/a	0	0	0
2767.2646484375	n/a	WORD	5667358	wordpools/wasnorm_wordpool_576.txt	LTP386	ltpFR2	18	13	VIKING	1565	n/a	n/a	0	0	0
2769.982421875	n/a	WORD	5672924	wordpools/wasnorm_wordpool_576.txt	LTP386	ltpFR2	18	13	RAFT	1159	n/a	n/a	0	0	0
2772.66455078125	n/a	WORD	5678417	wordpools/wasnorm_wordpool_576.txt	LTP386	ltpFR2	18	13	WASP	1593	n/a	n/a	0	0	0
2775.28125	n/a	WORD	5683776	wordpools/wasnorm_wordpool_576.txt	LTP386	ltpFR2	18	13	PERCH	1048	n/a	n/a	0	0	0
2778.0322265625	n/a	WORD	5689410	wordpools/wasnorm_wordpool_576.txt	LTP386	ltpFR2	18	13	LAMP	798	n/a	n/a	0	0	0
2780.4970703125	n/a	WORD	5694458	wordpools/wasnorm_wordpool_576.txt	LTP386	ltpFR2	18	13	TUNNEL	1519	n/a	n/a	0	0	0
2782.9150390625	n/a	WORD	5699410	wordpools/wasnorm_wordpool_576.txt	LTP386	ltpFR2	18	13	CONVICT	371	n/a	n/a	0	0	0
2785.34716796875	n/a	WORD	5704391	wordpools/wasnorm_wordpool_576.txt	LTP386	ltpFR2	18	13	BUTCHER	203	n/a	n/a	0	0	0
2787.9150390625	n/a	WORD	5709650	wordpools/wasnorm_wordpool_576.txt	LTP386	ltpFR2	18	13	PEACH	1031	n/a	n/a	0	0	0
2790.52978515625	n/a	WORD	5715005	wordpools/wasnorm_wordpool_576.txt	LTP386	ltpFR2	18	13	SWIMMER	1420	n/a	n/a	0	0	0
2793.2138671875	n/a	WORD	5720502	wordpools/wasnorm_wordpool_576.txt	LTP386	ltpFR2	18	13	EXPERT	543	n/a	n/a	0	0	0
2795.74658203125	n/a	WORD	5725689	wordpools/wasnorm_wordpool_576.txt	LTP386	ltpFR2	18	13	COCOON	339	n/a	n/a	0	0	0
2798.19677734375	n/a	WORD	5730707	wordpools/wasnorm_wordpool_576.txt	LTP386	ltpFR2	18	13	CLAMP	316	n/a	n/a	0	0	0
2800.71337890625	n/a	WORD	5735861	wordpools/wasnorm_wordpool_576.txt	LTP386	ltpFR2	18	13	PASTRY	1022	n/a	n/a	0	0	0
2803.279296875	n/a	WORD	5741116	wordpools/wasnorm_wordpool_576.txt	LTP386	ltpFR2	18	13	ICING	732	n/a	n/a	0	0	0
2805.8974609375	n/a	WORD	5746478	wordpools/wasnorm_wordpool_576.txt	LTP386	ltpFR2	18	13	PORK	1108	n/a	n/a	0	0	0
2808.529296875	n/a	WORD	5751868	wordpools/wasnorm_wordpool_576.txt	LTP386	ltpFR2	18	13	RUST	1219	n/a	n/a	0	0	0
2810.947265625	n/a	WORD	5756820	wordpools/wasnorm_wordpool_576.txt	LTP386	ltpFR2	18	13	IDOL	733	n/a	n/a	0	0	0
2813.42919921875	n/a	WORD	5761903	wordpools/wasnorm_wordpool_576.txt	LTP386	ltpFR2	18	13	HORNET	718	n/a	n/a	0	0	0
2815.97998046875	n/a	WORD	5767127	wordpools/wasnorm_wordpool_576.txt	LTP386	ltpFR2	18	13	HONEY	713	n/a	n/a	0	0	0
2817.59619140625	n/a	START	5770437	n/a	LTP386	ltpFR2	18	n/a	n/a	n/a	19	n/a	n/a	n/a	n/a
2818.76611328125	n/a	DISTRACTOR	5772833	n/a	LTP386	ltpFR2	18	13	n/a	n/a	n/a	n/a	0	0	0
2818.77880859375	n/a	PROB	5772859	n/a	LTP386	ltpFR2	18	n/a	n/a	n/a	19	12	2	4	6
2820.24609375	n/a	PROB	5775864	n/a	LTP386	ltpFR2	18	n/a	n/a	n/a	19	14	3	2	9
2821.74609375	n/a	PROB	5778936	n/a	LTP386	ltpFR2	18	n/a	n/a	n/a	19	19	7	3	9
2822.77880859375	n/a	PROB	5781051	n/a	LTP386	ltpFR2	18	n/a	n/a	n/a	19	15	4	7	4
2824.095703125	n/a	PROB	5783748	n/a	LTP386	ltpFR2	18	n/a	n/a	n/a	19	20	8	5	7
2826.11279296875	n/a	PROB	5787879	n/a	LTP386	ltpFR2	18	n/a	n/a	n/a	19	14	8	1	5
2827.794921875	n/a	PROB	5791324	n/a	LTP386	ltpFR2	18	n/a	n/a	n/a	19	22	8	8	6
2830.6787109375	n/a	PROB	5797230	n/a	LTP386	ltpFR2	18	n/a	n/a	n/a	19	15	7	5	3
2832.2783203125	n/a	PROB	5800506	n/a	LTP386	ltpFR2	18	n/a	n/a	n/a	19	21	7	7	7
2833.2783203125	n/a	PROB	5802554	n/a	LTP386	ltpFR2	18	n/a	n/a	n/a	19	14	7	5	1
2835.41162109375	n/a	PROB	5806923	n/a	LTP386	ltpFR2	18	n/a	n/a	n/a	19	15	4	8	3
2836.728515625	n/a	PROB	5809620	n/a	LTP386	ltpFR2	18	n/a	n/a	n/a	19	11	2	8	1
2838.029296875	n/a	PROB	5812284	n/a	LTP386	ltpFR2	18	n/a	n/a	n/a	19	18	9	6	3
2840.26513671875	n/a	STOP	5816863	n/a	LTP386	ltpFR2	18	n/a	n/a	n/a	19	n/a	n/a	n/a	n/a
2843.47802734375	n/a	REC_START	5823443	n/a	LTP386	ltpFR2	18	13	n/a	n/a	n/a	n/a	0	0	0
2844.8681640625	n/a	REC_WORD	5826290	wordpools/wasnorm_wordpool_576.txt	LTP386	ltpFR2	18	13	POLICE	1098	n/a	n/a	0	0	0
2845.7509765625	n/a	REC_WORD	5828098	wordpools/wasnorm_wordpool_576.txt	LTP386	ltpFR2	18	13	JUNGLE	764	n/a	n/a	0	0	0
2933.92431640625	n/a	WORD	6008677	wordpools/wasnorm_wordpool_576.txt	LTP386	ltpFR2	18	14	CARROT	249	n/a	n/a	0	0	0
2936.4736328125	n/a	WORD	6013898	wordpools/wasnorm_wordpool_576.txt	LTP386	ltpFR2	18	14	BEAST	108	n/a	n/a	0	0	0
2938.9912109375	n/a	WORD	6019054	wordpools/wasnorm_wordpool_576.txt	LTP386	ltpFR2	18	14	GIRL	637	n/a	n/a	0	0	0
2941.623046875	n/a	WORD	6024444	wordpools/wasnorm_wordpool_576.txt	LTP386	ltpFR2	18	14	HUSBAND	728	n/a	n/a	0	0	0
2944.14111328125	n/a	WORD	6029601	wordpools/wasnorm_wordpool_576.txt	LTP386	ltpFR2	18	14	BOX	159	n/a	n/a	0	0	0
2946.85693359375	n/a	WORD	6035163	wordpools/wasnorm_wordpool_576.txt	LTP386	ltpFR2	18	14	TEACHER	1440	n/a	n/a	0	0	0
2949.43896484375	n/a	WORD	6040451	wordpools/wasnorm_wordpool_576.txt	LTP386	ltpFR2	18	14	COLLEGE	346	n/a	n/a	0	0	0
2952.22314453125	n/a	WORD	6046153	wordpools/wasnorm_wordpool_576.txt	LTP386	ltpFR2	18	14	CREVICE	405	n/a	n/a	0	0	0
2955.02392578125	n/a	WORD	6051889	wordpools/wasnorm_wordpool_576.txt	LTP386	ltpFR2	18	14	RECEIPT	1173	n/a	n/a	0	0	0
2957.57275390625	n/a	WORD	6057109	wordpools/wasnorm_wordpool_576.txt	LTP386	ltpFR2	18	14	CASHIER	254	n/a	n/a	0	0	0
2960.32275390625	n/a	WORD	6062741	wordpools/wasnorm_wordpool_576.txt	LTP386	ltpFR2	18	14	KNAPSACK	783	n/a	n/a	0	0	0
2962.8896484375	n/a	WORD	6067998	wordpools/wasnorm_wordpool_576.txt	LTP386	ltpFR2	18	14	SUPPER	1411	n/a	n/a	0	0	0
2965.65576171875	n/a	WORD	6073663	wordpools/wasnorm_wordpool_576.txt	LTP386	ltpFR2	18	14	SCISSORS	1250	n/a	n/a	0	0	0
2968.17236328125	n/a	WORD	6078817	wordpools/wasnorm_wordpool_576.txt	LTP386	ltpFR2	18	14	UNCLE	1536	n/a	n/a	0	0	0
2970.6552734375	n/a	WORD	6083902	wordpools/wasnorm_wordpool_576.txt	LTP386	ltpFR2	18	14	WHISKERS	1605	n/a	n/a	0	0	0
2973.37109375	n/a	WORD	6089464	wordpools/wasnorm_wordpool_576.txt	LTP386	ltpFR2	18	14	SALAD	1224	n/a	n/a	0	0	0
2975.97216796875	n/a	WORD	6094791	wordpools/wasnorm_wordpool_576.txt	LTP386	ltpFR2	18	14	SUITCASE	1403	n/a	n/a	0	0	0
2978.705078125	n/a	WORD	6100388	wordpools/wasnorm_wordpool_576.txt	LTP386	ltpFR2	18	14	MATCH	878	n/a	n/a	0	0	0
2981.52099609375	n/a	WORD	6106155	wordpools/wasnorm_wordpool_576.txt	LTP386	ltpFR2	18	14	ROBBER	1197	n/a	n/a	0	0	0
2984.07177734375	n/a	WORD	6111379	wordpools/wasnorm_wordpool_576.txt	LTP386	ltpFR2	18	14	LUGGAGE	847	n/a	n/a	0	0	0
2986.7880859375	n/a	WORD	6116942	wordpools/wasnorm_wordpool_576.txt	LTP386	ltpFR2	18	14	BARREL	91	n/a	n/a	0	0	0
2989.337890625	n/a	WORD	6122164	wordpools/wasnorm_wordpool_576.txt	LTP386	ltpFR2	18	14	JELLY	755	n/a	n/a	0	0	0
2991.98876953125	n/a	WORD	6127593	wordpools/wasnorm_wordpool_576.txt	LTP386	ltpFR2	18	14	BARLEY	88	n/a	n/a	0	0	0
2994.720703125	n/a	WORD	6133188	wordpools/wasnorm_wordpool_576.txt	LTP386	ltpFR2	18	14	PARTNER	1017	n/a	n/a	0	0	0
2996.33740234375	n/a	START	6136499	n/a	LTP386	ltpFR2	18	n/a	n/a	n/a	20	n/a	n/a	n/a	n/a
2997.32275390625	n/a	DISTRACTOR	6138517	n/a	LTP386	ltpFR2	18	14	n/a	n/a	n/a	n/a	0	0	0
2997.33740234375	n/a	PROB	6138547	n/a	LTP386	ltpFR2	18	n/a	n/a	n/a	20	11	3	1	7
2998.8203125	n/a	PROB	6141584	n/a	LTP386	ltpFR2	18	n/a	n/a	n/a	20	15	7	2	6
3000.1044921875	n/a	PROB	6144214	n/a	LTP386	ltpFR2	18	n/a	n/a	n/a	20	18	5	6	7
3002.0712890625	n/a	PROB	6148242	n/a	LTP386	ltpFR2	18	n/a	n/a	n/a	20	16	5	7	4
3003.603515625	n/a	PROB	6151380	n/a	LTP386	ltpFR2	18	n/a	n/a	n/a	20	19	4	7	8
3005.17041015625	n/a	PROB	6154589	n/a	LTP386	ltpFR2	18	n/a	n/a	n/a	20	18	7	5	6
3006.4033203125	n/a	PROB	6157114	n/a	LTP386	ltpFR2	18	n/a	n/a	n/a	20	11	2	7	2
3007.4873046875	n/a	PROB	6159334	n/a	LTP386	ltpFR2	18	n/a	n/a	n/a	20	11	4	5	2
3008.77001953125	n/a	PROB	6161961	n/a	LTP386	ltpFR2	18	n/a	n/a	n/a	20	15	5	4	6
3009.80322265625	n/a	PROB	6164077	n/a	LTP386	ltpFR2	18	n/a	n/a	n/a	20	19	6	7	5
3012.2529296875	n/a	PROB	6169094	n/a	LTP386	ltpFR2	18	n/a	n/a	n/a	20	8	3	3	2
3013.5361328125	n/a	PROB	6171722	n/a	LTP386	ltpFR2	18	n/a	n/a	n/a	20	14	7	3	4
3015.13818359375	n/a	PROB	6175003	n/a	LTP386	ltpFR2	18	n/a	n/a	n/a	20	18	1	9	8
3016.47021484375	n/a	PROB	6177731	n/a	LTP386	ltpFR2	18	n/a	n/a	n/a	20	15	8	4	3
3018.81982421875	n/a	PROB	6182543	n/a	LTP386	ltpFR2	18	n/a	n/a	n/a	20	18	4	5	9
3019.85107421875	n/a	STOP	6184655	n/a	LTP386	ltpFR2	18	n/a	n/a	n/a	20	n/a	n/a	n/a	n/a
3022.12060546875	n/a	REC_START	6189303	n/a	LTP386	ltpFR2	18	14	n/a	n/a	n/a	n/a	0	0	0
3022.7587890625	n/a	REC_WORD	6190610	wordpools/wasnorm_wordpool_576.txt	LTP386	ltpFR2	18	14	SALAD	1224	n/a	n/a	0	0	0
3023.9716796875	n/a	REC_WORD	6193094	wordpools/wasnorm_wordpool_576.txt	LTP386	ltpFR2	18	14	BARLEY	88	n/a	n/a	0	0	0
3112.56494140625	n/a	DISTRACTOR	6374533	n/a	LTP386	ltpFR2	18	15	n/a	n/a	n/a	n/a	0	0	0
3112.56494140625	n/a	START	6374533	n/a	LTP386	ltpFR2	18	n/a	n/a	n/a	21	n/a	n/a	n/a	n/a
3112.58203125	n/a	PROB	6374568	n/a	LTP386	ltpFR2	18	n/a	n/a	n/a	21	15	9	3	3
3114.0830078125	n/a	PROB	6377642	n/a	LTP386	ltpFR2	18	n/a	n/a	n/a	21	13	5	7	1
3115.43212890625	n/a	PROB	6380405	n/a	LTP386	ltpFR2	18	n/a	n/a	n/a	21	12	8	3	1
3116.6650390625	n/a	PROB	6382930	n/a	LTP386	ltpFR2	18	n/a	n/a	n/a	21	1	8	6	7
3118.1328125	n/a	PROB	6385936	n/a	LTP386	ltpFR2	18	n/a	n/a	n/a	21	18	8	8	2
3120.181640625	n/a	PROB	6390132	n/a	LTP386	ltpFR2	18	n/a	n/a	n/a	21	18	6	7	5
3121.44775390625	n/a	PROB	6392725	n/a	LTP386	ltpFR2	18	n/a	n/a	n/a	21	9	3	2	4
3123.2978515625	n/a	PROB	6396514	n/a	LTP386	ltpFR2	18	n/a	n/a	n/a	21	17	4	9	4
3124.83251953125	n/a	PROB	6399657	n/a	LTP386	ltpFR2	18	n/a	n/a	n/a	21	20	7	5	8
3127.015625	n/a	PROB	6404128	n/a	LTP386	ltpFR2	18	n/a	n/a	n/a	21	17	9	6	2
3128.49755859375	n/a	PROB	6407163	n/a	LTP386	ltpFR2	18	n/a	n/a	n/a	21	20	3	9	8
3129.83251953125	n/a	PROB	6409897	n/a	LTP386	ltpFR2	18	n/a	n/a	n/a	21	16	6	5	5
3131.015625	n/a	PROB	6412320	n/a	LTP386	ltpFR2	18	n/a	n/a	n/a	21	13	2	2	9
3132.33154296875	n/a	PROB	6415015	n/a	LTP386	ltpFR2	18	n/a	n/a	n/a	21	15	7	3	5
3133.431640625	n/a	PROB	6417268	n/a	LTP386	ltpFR2	18	n/a	n/a	n/a	21	9	4	4	1
3134.4814453125	n/a	PROB	6419418	n/a	LTP386	ltpFR2	18	n/a	n/a	n/a	21	7	4	1	2
3135.59326171875	n/a	STOP	6421695	n/a	LTP386	ltpFR2	18	n/a	n/a	n/a	21	n/a	n/a	n/a	n/a
3137.49755859375	n/a	WORD	6425595	wordpools/wasnorm_wordpool_576.txt	LTP386	ltpFR2	18	15	ANTLER	29	n/a	n/a	0	0	0
3140.18017578125	n/a	WORD	6431089	wordpools/wasnorm_wordpool_576.txt	LTP386	ltpFR2	18	15	BUBBLE	183	n/a	n/a	0	0	0
3142.79736328125	n/a	WORD	6436449	wordpools/wasnorm_wordpool_576.txt	LTP386	ltpFR2	18	15	STUDENT	1395	n/a	n/a	0	0	0
3145.330078125	n/a	WORD	6441636	wordpools/wasnorm_wordpool_576.txt	LTP386	ltpFR2	18	15	CANDY	230	n/a	n/a	0	0	0
3148.03125	n/a	WORD	6447168	wordpools/wasnorm_wordpool_576.txt	LTP386	ltpFR2	18	15	DAUGHTER	442	n/a	n/a	0	0	0
3150.7470703125	n/a	WORD	6452730	wordpools/wasnorm_wordpool_576.txt	LTP386	ltpFR2	18	15	BLACKBOARD	133	n/a	n/a	0	0	0
3153.4638671875	n/a	WORD	6458294	wordpools/wasnorm_wordpool_576.txt	LTP386	ltpFR2	18	15	DIVER	476	n/a	n/a	0	0	0
3156.11474609375	n/a	WORD	6463723	wordpools/wasnorm_wordpool_576.txt	LTP386	ltpFR2	18	15	CORAL	378	n/a	n/a	0	0	0
3158.77978515625	n/a	WORD	6469181	wordpools/wasnorm_wordpool_576.txt	LTP386	ltpFR2	18	15	BEAVER	109	n/a	n/a	0	0	0
3161.52978515625	n/a	WORD	6474813	wordpools/wasnorm_wordpool_576.txt	LTP386	ltpFR2	18	15	FOREST	593	n/a	n/a	0	0	0
3164.04736328125	n/a	WORD	6479969	wordpools/wasnorm_wordpool_576.txt	LTP386	ltpFR2	18	15	DASHBOARD	441	n/a	n/a	0	0	0
3166.74658203125	n/a	WORD	6485497	wordpools/wasnorm_wordpool_576.txt	LTP386	ltpFR2	18	15	PEDAL	1037	n/a	n/a	0	0	0
3169.4794921875	n/a	WORD	6491094	wordpools/wasnorm_wordpool_576.txt	LTP386	ltpFR2	18	15	MUMMY	932	n/a	n/a	0	0	0
3172.080078125	n/a	WORD	6496420	wordpools/wasnorm_wordpool_576.txt	LTP386	ltpFR2	18	15	HERO	706	n/a	n/a	0	0	0
3174.830078125	n/a	WORD	6502052	wordpools/wasnorm_wordpool_576.txt	LTP386	ltpFR2	18	15	CRAYON	401	n/a	n/a	0	0	0
3177.59521484375	n/a	WORD	6507715	wordpools/wasnorm_wordpool_576.txt	LTP386	ltpFR2	18	15	TWIG	1527	n/a	n/a	0	0	0
3180.39599609375	n/a	WORD	6513451	wordpools/wasnorm_wordpool_576.txt	LTP386	ltpFR2	18	15	CONTRACT	368	n/a	n/a	0	0	0
3182.9970703125	n/a	WORD	6518778	wordpools/wasnorm_wordpool_576.txt	LTP386	ltpFR2	18	15	KEEPER	769	n/a	n/a	0	0	0
3185.61181640625	n/a	WORD	6524133	wordpools/wasnorm_wordpool_576.txt	LTP386	ltpFR2	18	15	HANDBAG	684	n/a	n/a	0	0	0
3188.294921875	n/a	WORD	6529628	wordpools/wasnorm_wordpool_576.txt	LTP386	ltpFR2	18	15	LOFT	840	n/a	n/a	0	0	0
3190.9794921875	n/a	WORD	6535126	wordpools/wasnorm_wordpool_576.txt	LTP386	ltpFR2	18	15	MATTRESS	879	n/a	n/a	0	0	0
3193.76171875	n/a	WORD	6540824	wordpools/wasnorm_wordpool_576.txt	LTP386	ltpFR2	18	15	GARDEN	623	n/a	n/a	0	0	0
3196.37841796875	n/a	WORD	6546183	wordpools/wasnorm_wordpool_576.txt	LTP386	ltpFR2	18	15	MAMMAL	861	n/a	n/a	0	0	0
3198.91259765625	n/a	WORD	6551373	wordpools/wasnorm_wordpool_576.txt	LTP386	ltpFR2	18	15	LADDER	793	n/a	n/a	0	0	0
3200.5283203125	n/a	START	6554682	n/a	LTP386	ltpFR2	18	n/a	n/a	n/a	22	n/a	n/a	n/a	n/a
3201.5703125	n/a	DISTRACTOR	6556816	n/a	LTP386	ltpFR2	18	15	n/a	n/a	n/a	n/a	0	0	0
3201.57763671875	n/a	PROB	6556831	n/a	LTP386	ltpFR2	18	n/a	n/a	n/a	22	23	7	7	9
3204.6611328125	n/a	PROB	6563146	n/a	LTP386	ltpFR2	18	n/a	n/a	n/a	22	19	9	4	6
3205.9453125	n/a	PROB	6565776	n/a	LTP386	ltpFR2	18	n/a	n/a	n/a	22	9	3	2	4
3207.29443359375	n/a	PROB	6568539	n/a	LTP386	ltpFR2	18	n/a	n/a	n/a	22	20	9	3	8
3208.52734375	n/a	PROB	6571064	n/a	LTP386	ltpFR2	18	n/a	n/a	n/a	22	6	2	3	1
3209.72705078125	n/a	PROB	6573521	n/a	LTP386	ltpFR2	18	n/a	n/a	n/a	22	10	4	2	4
3211.27734375	n/a	PROB	6576696	n/a	LTP386	ltpFR2	18	n/a	n/a	n/a	22	14	7	1	6
3212.7109375	n/a	PROB	6579632	n/a	LTP386	ltpFR2	18	n/a	n/a	n/a	22	18	3	6	9
3214.94482421875	n/a	PROB	6584207	n/a	LTP386	ltpFR2	18	n/a	n/a	n/a	22	14	9	4	1
3216.11181640625	n/a	PROB	6586597	n/a	LTP386	ltpFR2	18	n/a	n/a	n/a	22	21	6	9	6
3217.31103515625	n/a	PROB	6589053	n/a	LTP386	ltpFR2	18	n/a	n/a	n/a	22	15	6	7	2
3218.9951171875	n/a	PROB	6592502	n/a	LTP386	ltpFR2	18	n/a	n/a	n/a	22	10	6	2	2
3224.52783203125	n/a	STOP	6603833	n/a	LTP386	ltpFR2	18	n/a	n/a	n/a	22	n/a	n/a	n/a	n/a
3226.37744140625	n/a	REC_START	6607621	n/a	LTP386	ltpFR2	18	15	n/a	n/a	n/a	n/a	0	0	0
3229.06982421875	n/a	REC_WORD	6613135	wordpools/wasnorm_wordpool_576.txt	LTP386	ltpFR2	18	15	ANTLER	29	n/a	n/a	0	0	0
3231.79345703125	n/a	REC_WORD	6618713	wordpools/wasnorm_wordpool_576.txt	LTP386	ltpFR2	18	15	MATTRESS	879	n/a	n/a	0	0	0
3232.7392578125	n/a	REC_WORD	6620650	wordpools/wasnorm_wordpool_576.txt	LTP386	ltpFR2	18	15	GARDEN	623	n/a	n/a	0	0	0
3233.45654296875	n/a	REC_WORD	6622119	wordpools/wasnorm_wordpool_576.txt	LTP386	ltpFR2	18	15	MAMMAL	861	n/a	n/a	0	0	0
3316.82373046875	n/a	WORD	6792855	wordpools/wasnorm_wordpool_576.txt	LTP386	ltpFR2	18	16	GANGSTER	620	n/a	n/a	0	0	0
3319.52294921875	n/a	WORD	6798383	wordpools/wasnorm_wordpool_576.txt	LTP386	ltpFR2	18	16	RIFLE	1192	n/a	n/a	0	0	0
3322.10693359375	n/a	WORD	6803675	wordpools/wasnorm_wordpool_576.txt	LTP386	ltpFR2	18	16	EAGLE	512	n/a	n/a	0	0	0
3324.78857421875	n/a	WORD	6809167	wordpools/wasnorm_wordpool_576.txt	LTP386	ltpFR2	18	16	COUCH	386	n/a	n/a	0	0	0
3327.40576171875	n/a	WORD	6814527	wordpools/wasnorm_wordpool_576.txt	LTP386	ltpFR2	18	16	VENUS	1557	n/a	n/a	0	0	0
3330.056640625	n/a	WORD	6819956	wordpools/wasnorm_wordpool_576.txt	LTP386	ltpFR2	18	16	MARS	873	n/a	n/a	0	0	0
3332.7216796875	n/a	WORD	6825414	wordpools/wasnorm_wordpool_576.txt	LTP386	ltpFR2	18	16	PADDING	999	n/a	n/a	0	0	0
3335.37158203125	n/a	WORD	6830841	wordpools/wasnorm_wordpool_576.txt	LTP386	ltpFR2	18	16	JURY	766	n/a	n/a	0	0	0
3337.822265625	n/a	WORD	6835860	wordpools/wasnorm_wordpool_576.txt	LTP386	ltpFR2	18	16	FUNGUS	614	n/a	n/a	0	0	0
3340.37109375	n/a	WORD	6841080	wordpools/wasnorm_wordpool_576.txt	LTP386	ltpFR2	18	16	ROBIN	1199	n/a	n/a	0	0	0
3342.9892578125	n/a	WORD	6846442	wordpools/wasnorm_wordpool_576.txt	LTP386	ltpFR2	18	16	RATTLE	1170	n/a	n/a	0	0	0
3345.75390625	n/a	WORD	6852104	wordpools/wasnorm_wordpool_576.txt	LTP386	ltpFR2	18	16	SLIME	1327	n/a	n/a	0	0	0
3348.22119140625	n/a	WORD	6857157	wordpools/wasnorm_wordpool_576.txt	LTP386	ltpFR2	18	16	XEROX	1628	n/a	n/a	0	0	0
3350.65380859375	n/a	WORD	6862139	wordpools/wasnorm_wordpool_576.txt	LTP386	ltpFR2	18	16	ROBOT	1200	n/a	n/a	0	0	0
3353.337890625	n/a	WORD	6867636	wordpools/wasnorm_wordpool_576.txt	LTP386	ltpFR2	18	16	SISTER	1312	n/a	n/a	0	0	0
3355.888671875	n/a	WORD	6872860	wordpools/wasnorm_wordpool_576.txt	LTP386	ltpFR2	18	16	PANTHER	1009	n/a	n/a	0	0	0
3358.40380859375	n/a	WORD	6878011	wordpools/wasnorm_wordpool_576.txt	LTP386	ltpFR2	18	16	BUREAU	199	n/a	n/a	0	0	0
3361.0546875	n/a	WORD	6883440	wordpools/wasnorm_wordpool_576.txt	LTP386	ltpFR2	18	16	BABY	64	n/a	n/a	0	0	0
3363.67041015625	n/a	WORD	6888797	wordpools/wasnorm_wordpool_576.txt	LTP386	ltpFR2	18	16	NEUTRON	947	n/a	n/a	0	0	0
3366.4033203125	n/a	WORD	6894394	wordpools/wasnorm_wordpool_576.txt	LTP386	ltpFR2	18	16	HOOD	714	n/a	n/a	0	0	0
3368.9375	n/a	WORD	6899584	wordpools/wasnorm_wordpool_576.txt	LTP386	ltpFR2	18	16	APRON	35	n/a	n/a	0	0	0
3371.42041015625	n/a	WORD	6904669	wordpools/wasnorm_wordpool_576.txt	LTP386	ltpFR2	18	16	PIMPLE	1071	n/a	n/a	0	0	0
3374.1533203125	n/a	WORD	6910266	wordpools/wasnorm_wordpool_576.txt	LTP386	ltpFR2	18	16	TABLE	1426	n/a	n/a	0	0	0
3376.904296875	n/a	WORD	6915900	wordpools/wasnorm_wordpool_576.txt	LTP386	ltpFR2	18	16	CARRIAGE	248	n/a	n/a	0	0	0
3378.52001953125	n/a	START	6919209	n/a	LTP386	ltpFR2	18	n/a	n/a	n/a	23	n/a	n/a	n/a	n/a
3379.5078125	n/a	DISTRACTOR	6921232	n/a	LTP386	ltpFR2	18	16	n/a	n/a	n/a	n/a	0	0	0
3379.52001953125	n/a	PROB	6921257	n/a	LTP386	ltpFR2	18	n/a	n/a	n/a	23	11	1	1	9
3381.419921875	n/a	PROB	6925148	n/a	LTP386	ltpFR2	18	n/a	n/a	n/a	23	22	9	6	7
3383.302734375	n/a	PROB	6929004	n/a	LTP386	ltpFR2	18	n/a	n/a	n/a	23	13	2	2	9
3384.9541015625	n/a	PROB	6932386	n/a	LTP386	ltpFR2	18	n/a	n/a	n/a	23	14	8	5	2
3387.6689453125	n/a	PROB	6937946	n/a	LTP386	ltpFR2	18	n/a	n/a	n/a	23	16	2	8	6
3389.13671875	n/a	PROB	6940952	n/a	LTP386	ltpFR2	18	n/a	n/a	n/a	23	16	9	3	4
3390.28564453125	n/a	PROB	6943305	n/a	LTP386	ltpFR2	18	n/a	n/a	n/a	23	13	5	1	7
3391.86962890625	n/a	PROB	6946549	n/a	LTP386	ltpFR2	18	n/a	n/a	n/a	23	18	9	1	8
3392.853515625	n/a	PROB	6948564	n/a	LTP386	ltpFR2	18	n/a	n/a	n/a	23	14	5	3	6
3394.36865234375	n/a	PROB	6951667	n/a	LTP386	ltpFR2	18	n/a	n/a	n/a	23	8	2	3	3
3395.552734375	n/a	PROB	6954092	n/a	LTP386	ltpFR2	18	n/a	n/a	n/a	23	8	1	6	1
3396.46875	n/a	PROB	6955968	n/a	LTP386	ltpFR2	18	n/a	n/a	n/a	23	5	2	1	2
3397.46826171875	n/a	PROB	6958015	n/a	LTP386	ltpFR2	18	n/a	n/a	n/a	23	1	8	9	7
3399.65234375	n/a	PROB	6962488	n/a	LTP386	ltpFR2	18	n/a	n/a	n/a	23	17	9	5	3
3401.265625	n/a	STOP	6965792	n/a	LTP386	ltpFR2	18	n/a	n/a	n/a	23	n/a	n/a	n/a	n/a
3404.43505859375	n/a	REC_START	6972283	n/a	LTP386	ltpFR2	18	16	n/a	n/a	n/a	n/a	0	0	0
3405.814453125	n/a	REC_WORD	6975108	wordpools/wasnorm_wordpool_576.txt	LTP386	ltpFR2	18	16	COUCH	386	n/a	n/a	0	0	0
3406.59716796875	n/a	REC_WORD	6976711	wordpools/wasnorm_wordpool_576.txt	LTP386	ltpFR2	18	16	PADDING	999	n/a	n/a	0	0	0
3407.47509765625	n/a	REC_WORD	6978509	wordpools/wasnorm_wordpool_576.txt	LTP386	ltpFR2	18	16	NEUTRON	947	n/a	n/a	0	0	0
3480.98291015625	n/a	REST_REWET	7129053	n/a	LTP386	ltpFR2	18	16	n/a	n/a	n/a	n/a	0	0	0
3644.3740234375	n/a	WORD	7463678	wordpools/wasnorm_wordpool_576.txt	LTP386	ltpFR2	18	17	SCALPEL	1243	n/a	n/a	0	0	0
3647.05810546875	n/a	WORD	7469175	wordpools/wasnorm_wordpool_576.txt	LTP386	ltpFR2	18	17	GIFT	635	n/a	n/a	0	0	0
3649.7568359375	n/a	WORD	7474702	wordpools/wasnorm_wordpool_576.txt	LTP386	ltpFR2	18	17	POWDER	1117	n/a	n/a	0	0	0
3652.2236328125	n/a	WORD	7479754	wordpools/wasnorm_wordpool_576.txt	LTP386	ltpFR2	18	17	FILM	565	n/a	n/a	0	0	0
3654.68994140625	n/a	WORD	7484805	wordpools/wasnorm_wordpool_576.txt	LTP386	ltpFR2	18	17	POPCORN	1104	n/a	n/a	0	0	0
3657.3408203125	n/a	WORD	7490234	wordpools/wasnorm_wordpool_576.txt	LTP386	ltpFR2	18	17	BROOK	177	n/a	n/a	0	0	0
3659.9248046875	n/a	WORD	7495526	wordpools/wasnorm_wordpool_576.txt	LTP386	ltpFR2	18	17	MAILMAN	858	n/a	n/a	0	0	0
3662.37353515625	n/a	WORD	7500541	wordpools/wasnorm_wordpool_576.txt	LTP386	ltpFR2	18	17	PIGEON	1065	n/a	n/a	0	0	0
3664.82421875	n/a	WORD	7505560	wordpools/wasnorm_wordpool_576.txt	LTP386	ltpFR2	18	17	FLUTE	585	n/a	n/a	0	0	0
3667.53955078125	n/a	WORD	7511121	wordpools/wasnorm_wordpool_576.txt	LTP386	ltpFR2	18	17	PACKAGE	997	n/a	n/a	0	0	0
3670.3232421875	n/a	WORD	7516822	wordpools/wasnorm_wordpool_576.txt	LTP386	ltpFR2	18	17	LUNCH	849	n/a	n/a	0	0	0
3672.97412109375	n/a	WORD	7522251	wordpools/wasnorm_wordpool_576.txt	LTP386	ltpFR2	18	17	CHAPEL	280	n/a	n/a	0	0	0
3675.50634765625	n/a	WORD	7527437	wordpools/wasnorm_wordpool_576.txt	LTP386	ltpFR2	18	17	AUTHOR	61	n/a	n/a	0	0	0
3678.27197265625	n/a	WORD	7533101	wordpools/wasnorm_wordpool_576.txt	LTP386	ltpFR2	18	17	CRIB	407	n/a	n/a	0	0	0
3680.83984375	n/a	WORD	7538360	wordpools/wasnorm_wordpool_576.txt	LTP386	ltpFR2	18	17	WIDOW	1608	n/a	n/a	0	0	0
3683.32177734375	n/a	WORD	7543443	wordpools/wasnorm_wordpool_576.txt	LTP386	ltpFR2	18	17	TOMBSTONE	1478	n/a	n/a	0	0	0
3685.97265625	n/a	WORD	7548872	wordpools/wasnorm_wordpool_576.txt	LTP386	ltpFR2	18	17	BRANCH	168	n/a	n/a	0	0	0
3688.5556640625	n/a	WORD	7554162	wordpools/wasnorm_wordpool_576.txt	LTP386	ltpFR2	18	17	EUROPE	541	n/a	n/a	0	0	0
3691.056640625	n/a	WORD	7559284	wordpools/wasnorm_wordpool_576.txt	LTP386	ltpFR2	18	17	PEBBLE	1035	n/a	n/a	0	0	0
3693.70556640625	n/a	WORD	7564709	wordpools/wasnorm_wordpool_576.txt	LTP386	ltpFR2	18	17	CLOTHES	327	n/a	n/a	0	0	0
3696.3212890625	n/a	WORD	7570066	wordpools/wasnorm_wordpool_576.txt	LTP386	ltpFR2	18	17	SHELF	1280	n/a	n/a	0	0	0
3698.87255859375	n/a	WORD	7575291	wordpools/wasnorm_wordpool_576.txt	LTP386	ltpFR2	18	17	SIBLING	1301	n/a	n/a	0	0	0
3701.67138671875	n/a	WORD	7581023	wordpools/wasnorm_wordpool_576.txt	LTP386	ltpFR2	18	17	DONOR	485	n/a	n/a	0	0	0
3704.43798828125	n/a	WORD	7586689	wordpools/wasnorm_wordpool_576.txt	LTP386	ltpFR2	18	17	LACE	792	n/a	n/a	0	0	0
3706.05517578125	n/a	START	7590001	n/a	LTP386	ltpFR2	18	n/a	n/a	n/a	24	n/a	n/a	n/a	n/a
3707.1953125	n/a	DISTRACTOR	7592336	n/a	LTP386	ltpFR2	18	17	n/a	n/a	n/a	n/a	0	0	0
3707.2041015625	n/a	PROB	7592354	n/a	LTP386	ltpFR2	18	n/a	n/a	n/a	24	19	6	9	4
3708.7880859375	n/a	PROB	7595598	n/a	LTP386	ltpFR2	18	n/a	n/a	n/a	24	15	2	7	6
3710.2041015625	n/a	PROB	7598498	n/a	LTP386	ltpFR2	18	n/a	n/a	n/a	24	19	9	8	2
3711.921875	n/a	PROB	7602016	n/a	LTP386	ltpFR2	18	n/a	n/a	n/a	24	14	4	2	8
3713.35400390625	n/a	PROB	7604949	n/a	LTP386	ltpFR2	18	n/a	n/a	n/a	24	11	3	2	6
3714.6376953125	n/a	PROB	7607578	n/a	LTP386	ltpFR2	18	n/a	n/a	n/a	24	10	4	2	4
3715.8876953125	n/a	PROB	7610138	n/a	LTP386	ltpFR2	18	n/a	n/a	n/a	24	18	8	7	3
3716.955078125	n/a	PROB	7612324	n/a	LTP386	ltpFR2	18	n/a	n/a	n/a	24	21	8	4	9
3718.65380859375	n/a	PROB	7615803	n/a	LTP386	ltpFR2	18	n/a	n/a	n/a	24	17	3	5	9
3720.37060546875	n/a	PROB	7619319	n/a	LTP386	ltpFR2	18	n/a	n/a	n/a	24	19	7	5	7
3722.07177734375	n/a	PROB	7622803	n/a	LTP386	ltpFR2	18	n/a	n/a	n/a	24	20	8	7	5
3723.470703125	n/a	PROB	7625668	n/a	LTP386	ltpFR2	18	n/a	n/a	n/a	24	16	6	7	3
3724.67041015625	n/a	PROB	7628125	n/a	LTP386	ltpFR2	18	n/a	n/a	n/a	24	17	7	5	5
3725.90478515625	n/a	PROB	7630653	n/a	LTP386	ltpFR2	18	n/a	n/a	n/a	24	15	2	7	6
3727.5537109375	n/a	PROB	7634030	n/a	LTP386	ltpFR2	18	n/a	n/a	n/a	24	18	5	9	4
3729.06640625	n/a	STOP	7637128	n/a	LTP386	ltpFR2	18	n/a	n/a	n/a	24	n/a	n/a	n/a	n/a
3732.00439453125	n/a	REC_START	7643145	n/a	LTP386	ltpFR2	18	17	n/a	n/a	n/a	n/a	0	0	0
3732.54052734375	n/a	REC_WORD	7644243	wordpools/wasnorm_wordpool_576.txt	LTP386	ltpFR2	18	17	LACE	792	n/a	n/a	0	0	0
3733.04443359375	n/a	REC_WORD	7645275	wordpools/wasnorm_wordpool_576.txt	LTP386	ltpFR2	18	17	SCALPEL	1243	n/a	n/a	0	0	0
3734.1865234375	n/a	REC_WORD	7647614	wordpools/wasnorm_wordpool_576.txt	LTP386	ltpFR2	18	17	GIFT	635	n/a	n/a	0	0	0
3822.44873046875	n/a	WORD	7828375	wordpools/wasnorm_wordpool_576.txt	LTP386	ltpFR2	18	18	ORCHID	982	n/a	n/a	0	0	0
3825.1484375	n/a	WORD	7833904	wordpools/wasnorm_wordpool_576.txt	LTP386	ltpFR2	18	18	PISTON	1076	n/a	n/a	0	0	0
3827.79833984375	n/a	WORD	7839331	wordpools/wasnorm_wordpool_576.txt	LTP386	ltpFR2	18	18	COBRA	336	n/a	n/a	0	0	0
3830.5322265625	n/a	WORD	7844930	wordpools/wasnorm_wordpool_576.txt	LTP386	ltpFR2	18	18	KETCHUP	771	n/a	n/a	0	0	0
3833.04931640625	n/a	WORD	7850085	wordpools/wasnorm_wordpool_576.txt	LTP386	ltpFR2	18	18	PATIENT	1024	n/a	n/a	0	0	0
3835.6982421875	n/a	WORD	7855510	wordpools/wasnorm_wordpool_576.txt	LTP386	ltpFR2	18	18	MARKER	870	n/a	n/a	0	0	0
3838.1650390625	n/a	WORD	7860562	wordpools/wasnorm_wordpool_576.txt	LTP386	ltpFR2	18	18	TILE	1468	n/a	n/a	0	0	0
3840.68212890625	n/a	WORD	7865717	wordpools/wasnorm_wordpool_576.txt	LTP386	ltpFR2	18	18	PUPIL	1143	n/a	n/a	0	0	0
3843.1650390625	n/a	WORD	7870802	wordpools/wasnorm_wordpool_576.txt	LTP386	ltpFR2	18	18	LASER	801	n/a	n/a	0	0	0
3845.93212890625	n/a	WORD	7876469	wordpools/wasnorm_wordpool_576.txt	LTP386	ltpFR2	18	18	FLASHLIGHT	575	n/a	n/a	0	0	0
3848.64794921875	n/a	WORD	7882031	wordpools/wasnorm_wordpool_576.txt	LTP386	ltpFR2	18	18	LETTUCE	814	n/a	n/a	0	0	0
3851.08203125	n/a	WORD	7887016	wordpools/wasnorm_wordpool_576.txt	LTP386	ltpFR2	18	18	COUSIN	392	n/a	n/a	0	0	0
3853.5478515625	n/a	WORD	7892066	wordpools/wasnorm_wordpool_576.txt	LTP386	ltpFR2	18	18	SLOPE	1328	n/a	n/a	0	0	0
3856.03173828125	n/a	WORD	7897153	wordpools/wasnorm_wordpool_576.txt	LTP386	ltpFR2	18	18	COCKTAIL	338	n/a	n/a	0	0	0
3858.66455078125	n/a	WORD	7902545	wordpools/wasnorm_wordpool_576.txt	LTP386	ltpFR2	18	18	MILK	895	n/a	n/a	0	0	0
3861.46435546875	n/a	WORD	7908279	wordpools/wasnorm_wordpool_576.txt	LTP386	ltpFR2	18	18	LONDON	843	n/a	n/a	0	0	0
3863.8984375	n/a	WORD	7913264	wordpools/wasnorm_wordpool_576.txt	LTP386	ltpFR2	18	18	ONION	977	n/a	n/a	0	0	0
3866.43017578125	n/a	WORD	7918449	wordpools/wasnorm_wordpool_576.txt	LTP386	ltpFR2	18	18	STREAM	1392	n/a	n/a	0	0	0
3868.9140625	n/a	WORD	7923536	wordpools/wasnorm_wordpool_576.txt	LTP386	ltpFR2	18	18	DIME	466	n/a	n/a	0	0	0
3871.43017578125	n/a	WORD	7928689	wordpools/wasnorm_wordpool_576.txt	LTP386	ltpFR2	18	18	CASKET	255	n/a	n/a	0	0	0
3873.96435546875	n/a	WORD	7933879	wordpools/wasnorm_wordpool_576.txt	LTP386	ltpFR2	18	18	PARSLEY	1016	n/a	n/a	0	0	0
3876.39697265625	n/a	WORD	7938861	wordpools/wasnorm_wordpool_576.txt	LTP386	ltpFR2	18	18	SALT	1229	n/a	n/a	0	0	0
3879.01416015625	n/a	WORD	7944221	wordpools/wasnorm_wordpool_576.txt	LTP386	ltpFR2	18	18	SWAMP	1416	n/a	n/a	0	0	0
3881.81396484375	n/a	WORD	7949955	wordpools/wasnorm_wordpool_576.txt	LTP386	ltpFR2	18	18	BANKER	84	n/a	n/a	0	0	0
3883.4296875	n/a	START	7953264	n/a	LTP386	ltpFR2	18	n/a	n/a	n/a	25	n/a	n/a	n/a	n/a
3884.3076171875	n/a	DISTRACTOR	7955062	n/a	LTP386	ltpFR2	18	18	n/a	n/a	n/a	n/a	0	0	0
3884.31298828125	n/a	PROB	7955073	n/a	LTP386	ltpFR2	18	n/a	n/a	n/a	25	15	7	2	6
3886.11376953125	n/a	PROB	7958761	n/a	LTP386	ltpFR2	18	n/a	n/a	n/a	25	18	9	7	2
3887.32958984375	n/a	PROB	7961251	n/a	LTP386	ltpFR2	18	n/a	n/a	n/a	25	6	1	1	4
3888.2958984375	n/a	PROB	7963230	n/a	LTP386	ltpFR2	18	n/a	n/a	n/a	25	17	2	8	7
3889.5126953125	n/a	PROB	7965722	n/a	LTP386	ltpFR2	18	n/a	n/a	n/a	25	14	1	8	5
3891.21240234375	n/a	PROB	7969203	n/a	LTP386	ltpFR2	18	n/a	n/a	n/a	25	16	7	2	7
3892.61279296875	n/a	PROB	7972071	n/a	LTP386	ltpFR2	18	n/a	n/a	n/a	25	13	1	4	8
3893.88037109375	n/a	PROB	7974667	n/a	LTP386	ltpFR2	18	n/a	n/a	n/a	25	12	3	6	3
3895.2294921875	n/a	PROB	7977430	n/a	LTP386	ltpFR2	18	n/a	n/a	n/a	25	16	5	5	6
3896.29541015625	n/a	PROB	7979613	n/a	LTP386	ltpFR2	18	n/a	n/a	n/a	25	11	2	2	7
3897.3955078125	n/a	PROB	7981866	n/a	LTP386	ltpFR2	18	n/a	n/a	n/a	25	20	8	5	8
3899.0634765625	n/a	PROB	7985282	n/a	LTP386	ltpFR2	18	n/a	n/a	n/a	25	18	9	2	7
3900.3291015625	n/a	PROB	7987874	n/a	LTP386	ltpFR2	18	n/a	n/a	n/a	25	14	9	4	1
3901.76220703125	n/a	PROB	7990809	n/a	LTP386	ltpFR2	18	n/a	n/a	n/a	25	12	4	6	2
3902.8291015625	n/a	PROB	7992994	n/a	LTP386	ltpFR2	18	n/a	n/a	n/a	25	6	1	2	3
3904.0791015625	n/a	PROB	7995554	n/a	LTP386	ltpFR2	18	n/a	n/a	n/a	25	12	1	7	4
3905.6123046875	n/a	PROB	7998694	n/a	LTP386	ltpFR2	18	n/a	n/a	n/a	25	16	4	5	7
3907.201171875	n/a	STOP	8001948	n/a	LTP386	ltpFR2	18	n/a	n/a	n/a	25	n/a	n/a	n/a	n/a
3909.34619140625	n/a	REC_START	8006341	n/a	LTP386	ltpFR2	18	18	n/a	n/a	n/a	n/a	0	0	0
3910.4560546875	n/a	REC_WORD	8008614	wordpools/wasnorm_wordpool_576.txt	LTP386	ltpFR2	18	18	PARSLEY	1016	n/a	n/a	0	0	0
3911.14404296875	n/a	REC_WORD	8010023	wordpools/wasnorm_wordpool_576.txt	LTP386	ltpFR2	18	18	SALT	1229	n/a	n/a	0	0	0
3999.7744140625	n/a	DISTRACTOR	8191538	n/a	LTP386	ltpFR2	18	19	n/a	n/a	n/a	n/a	0	0	0
3999.7744140625	n/a	START	8191538	n/a	LTP386	ltpFR2	18	n/a	n/a	n/a	26	n/a	n/a	n/a	n/a
3999.79150390625	n/a	PROB	8191573	n/a	LTP386	ltpFR2	18	n/a	n/a	n/a	26	15	9	2	4
4001.025390625	n/a	PROB	8194100	n/a	LTP386	ltpFR2	18	n/a	n/a	n/a	26	15	4	7	4
4002.30712890625	n/a	PROB	8196725	n/a	LTP386	ltpFR2	18	n/a	n/a	n/a	26	8	4	3	1
4003.39111328125	n/a	PROB	8198945	n/a	LTP386	ltpFR2	18	n/a	n/a	n/a	26	10	4	1	5
4004.84228515625	n/a	PROB	8201917	n/a	LTP386	ltpFR2	18	n/a	n/a	n/a	26	21	9	9	3
4006.77392578125	n/a	PROB	8205873	n/a	LTP386	ltpFR2	18	n/a	n/a	n/a	26	18	8	5	5
4007.7900390625	n/a	PROB	8207954	n/a	LTP386	ltpFR2	18	n/a	n/a	n/a	26	18	6	6	6
4009.14013671875	n/a	PROB	8210719	n/a	LTP386	ltpFR2	18	n/a	n/a	n/a	26	15	2	5	8
4010.48974609375	n/a	PROB	8213483	n/a	LTP386	ltpFR2	18	n/a	n/a	n/a	26	14	3	3	8
4011.80810546875	n/a	PROB	8216183	n/a	LTP386	ltpFR2	18	n/a	n/a	n/a	26	20	3	8	9
4014.60693359375	n/a	PROB	8221915	n/a	LTP386	ltpFR2	18	n/a	n/a	n/a	26	10	7	1	2
4015.85791015625	n/a	PROB	8224477	n/a	LTP386	ltpFR2	18	n/a	n/a	n/a	26	25	8	8	7
4018.04052734375	n/a	PROB	8228947	n/a	LTP386	ltpFR2	18	n/a	n/a	n/a	26	12	8	3	1
4019.27392578125	n/a	PROB	8231473	n/a	LTP386	ltpFR2	18	n/a	n/a	n/a	26	6	1	4	1
4020.439453125	n/a	PROB	8233860	n/a	LTP386	ltpFR2	18	n/a	n/a	n/a	26	11	6	4	1
4021.4736328125	n/a	PROB	8235978	n/a	LTP386	ltpFR2	18	n/a	n/a	n/a	26	15	6	5	4
4022.6494140625	n/a	STOP	8238386	n/a	LTP386	ltpFR2	18	n/a	n/a	n/a	26	n/a	n/a	n/a	n/a
4024.84033203125	n/a	WORD	8242873	wordpools/wasnorm_wordpool_576.txt	LTP386	ltpFR2	18	19	PLATE	1086	n/a	n/a	0	0	0
4027.5732421875	n/a	WORD	8248470	wordpools/wasnorm_wordpool_576.txt	LTP386	ltpFR2	18	19	SEAGULL	1261	n/a	n/a	0	0	0
4030.0576171875	n/a	WORD	8253558	wordpools/wasnorm_wordpool_576.txt	LTP386	ltpFR2	18	19	ULCER	1533	n/a	n/a	0	0	0
4032.67236328125	n/a	WORD	8258913	wordpools/wasnorm_wordpool_576.txt	LTP386	ltpFR2	18	19	FRIEND	606	n/a	n/a	0	0	0
4035.123046875	n/a	WORD	8263932	wordpools/wasnorm_wordpool_576.txt	LTP386	ltpFR2	18	19	YARN	1631	n/a	n/a	0	0	0
4037.7890625	n/a	WORD	8269392	wordpools/wasnorm_wordpool_576.txt	LTP386	ltpFR2	18	19	PREACHER	1119	n/a	n/a	0	0	0
4040.60595703125	n/a	WORD	8275161	wordpools/wasnorm_wordpool_576.txt	LTP386	ltpFR2	18	19	SHARK	1275	n/a	n/a	0	0	0
4043.3388671875	n/a	WORD	8280758	wordpools/wasnorm_wordpool_576.txt	LTP386	ltpFR2	18	19	BANQUET	86	n/a	n/a	0	0	0
4046.123046875	n/a	WORD	8286460	wordpools/wasnorm_wordpool_576.txt	LTP386	ltpFR2	18	19	TURKEY	1520	n/a	n/a	0	0	0
4048.5546875	n/a	WORD	8291440	wordpools/wasnorm_wordpool_576.txt	LTP386	ltpFR2	18	19	SEAL	1262	n/a	n/a	0	0	0
4051.02294921875	n/a	WORD	8296495	wordpools/wasnorm_wordpool_576.txt	LTP386	ltpFR2	18	19	DRESS	495	n/a	n/a	0	0	0
4053.78857421875	n/a	WORD	8302159	wordpools/wasnorm_wordpool_576.txt	LTP386	ltpFR2	18	19	FOOT	590	n/a	n/a	0	0	0
4056.45458984375	n/a	WORD	8307619	wordpools/wasnorm_wordpool_576.txt	LTP386	ltpFR2	18	19	AWARD	63	n/a	n/a	0	0	0
4059.03955078125	n/a	WORD	8312913	wordpools/wasnorm_wordpool_576.txt	LTP386	ltpFR2	18	19	DOLPHIN	483	n/a	n/a	0	0	0
4061.6884765625	n/a	WORD	8318338	wordpools/wasnorm_wordpool_576.txt	LTP386	ltpFR2	18	19	TROUT	1511	n/a	n/a	0	0	0
4064.25439453125	n/a	WORD	8323593	wordpools/wasnorm_wordpool_576.txt	LTP386	ltpFR2	18	19	JAPAN	749	n/a	n/a	0	0	0
4066.67138671875	n/a	WORD	8328543	wordpools/wasnorm_wordpool_576.txt	LTP386	ltpFR2	18	19	STATUE	1374	n/a	n/a	0	0	0
4069.3212890625	n/a	WORD	8333970	wordpools/wasnorm_wordpool_576.txt	LTP386	ltpFR2	18	19	BLOUSE	139	n/a	n/a	0	0	0
4071.97216796875	n/a	WORD	8339399	wordpools/wasnorm_wordpool_576.txt	LTP386	ltpFR2	18	19	SCOTCH	1251	n/a	n/a	0	0	0
4074.73681640625	n/a	WORD	8345061	wordpools/wasnorm_wordpool_576.txt	LTP386	ltpFR2	18	19	CAFE	216	n/a	n/a	0	0	0
4077.55419921875	n/a	WORD	8350831	wordpools/wasnorm_wordpool_576.txt	LTP386	ltpFR2	18	19	BINDER	127	n/a	n/a	0	0	0
4080.087890625	n/a	WORD	8356020	wordpools/wasnorm_wordpool_576.txt	LTP386	ltpFR2	18	19	NOVEL	960	n/a	n/a	0	0	0
4082.5869140625	n/a	WORD	8361138	wordpools/wasnorm_wordpool_576.txt	LTP386	ltpFR2	18	19	OYSTER	995	n/a	n/a	0	0	0
4085.10498046875	n/a	WORD	8366295	wordpools/wasnorm_wordpool_576.txt	LTP386	ltpFR2	18	19	CRAB	397	n/a	n/a	0	0	0
4086.720703125	n/a	START	8369604	n/a	LTP386	ltpFR2	18	n/a	n/a	n/a	27	n/a	n/a	n/a	n/a
4087.59375	n/a	DISTRACTOR	8371392	n/a	LTP386	ltpFR2	18	19	n/a	n/a	n/a	n/a	0	0	0
4087.603515625	n/a	PROB	8371412	n/a	LTP386	ltpFR2	18	n/a	n/a	n/a	27	12	3	6	3
4089.03759765625	n/a	PROB	8374349	n/a	LTP386	ltpFR2	18	n/a	n/a	n/a	27	19	4	9	6
4090.3193359375	n/a	PROB	8376974	n/a	LTP386	ltpFR2	18	n/a	n/a	n/a	27	8	3	1	4
4091.33642578125	n/a	PROB	8379057	n/a	LTP386	ltpFR2	18	n/a	n/a	n/a	27	9	5	3	1
4093.9375	n/a	PROB	8384384	n/a	LTP386	ltpFR2	18	n/a	n/a	n/a	27	18	1	9	8
4094.97021484375	n/a	PROB	8386499	n/a	LTP386	ltpFR2	18	n/a	n/a	n/a	27	16	5	1	8
4096.58642578125	n/a	PROB	8389809	n/a	LTP386	ltpFR2	18	n/a	n/a	n/a	27	13	2	3	8
4098.0703125	n/a	PROB	8392848	n/a	LTP386	ltpFR2	18	n/a	n/a	n/a	27	16	5	4	7
4099.38623046875	n/a	PROB	8395543	n/a	LTP386	ltpFR2	18	n/a	n/a	n/a	27	15	9	2	4
4100.68603515625	n/a	PROB	8398205	n/a	LTP386	ltpFR2	18	n/a	n/a	n/a	27	16	2	8	6
4101.9873046875	n/a	PROB	8400870	n/a	LTP386	ltpFR2	18	n/a	n/a	n/a	27	15	2	7	8
4104.3359375	n/a	PROB	8405680	n/a	LTP386	ltpFR2	18	n/a	n/a	n/a	27	16	3	9	3
4105.5859375	n/a	PROB	8408240	n/a	LTP386	ltpFR2	18	n/a	n/a	n/a	27	15	5	5	5
4106.6533203125	n/a	PROB	8410426	n/a	LTP386	ltpFR2	18	n/a	n/a	n/a	27	13	1	7	5
4108.15283203125	n/a	PROB	8413497	n/a	LTP386	ltpFR2	18	n/a	n/a	n/a	27	18	7	2	9
4109.4248046875	n/a	STOP	8416102	n/a	LTP386	ltpFR2	18	n/a	n/a	n/a	27	n/a	n/a	n/a	n/a
4112.5361328125	n/a	REC_START	8422474	n/a	LTP386	ltpFR2	18	19	n/a	n/a	n/a	n/a	0	0	0
4113.48779296875	n/a	REC_WORD	8424423	wordpools/wasnorm_wordpool_576.txt	LTP386	ltpFR2	18	19	SHARK	1275	n/a	n/a	0	0	0
4114.2119140625	n/a	REC_WORD	8425906	wordpools/wasnorm_wordpool_576.txt	LTP386	ltpFR2	18	19	SEAL	1262	n/a	n/a	0	0	0
4118.505859375	n/a	REC_WORD	8434700	wordpools/wasnorm_wordpool_576.txt	LTP386	ltpFR2	18	19	ULCER	1533	n/a	n/a	0	0	0
4202.96630859375	n/a	DISTRACTOR	8607675	n/a	LTP386	ltpFR2	18	20	n/a	n/a	n/a	n/a	0	0	0
4202.96630859375	n/a	START	8607675	n/a	LTP386	ltpFR2	18	n/a	n/a	n/a	28	n/a	n/a	n/a	n/a
4202.982421875	n/a	PROB	8607708	n/a	LTP386	ltpFR2	18	n/a	n/a	n/a	28	20	9	5	6
4204.43115234375	n/a	PROB	8610675	n/a	LTP386	ltpFR2	18	n/a	n/a	n/a	28	18	9	3	6
4205.84912109375	n/a	PROB	8613579	n/a	LTP386	ltpFR2	18	n/a	n/a	n/a	28	21	7	9	5
4207.28125	n/a	PROB	8616512	n/a	LTP386	ltpFR2	18	n/a	n/a	n/a	28	10	2	4	4
4208.56494140625	n/a	PROB	8619141	n/a	LTP386	ltpFR2	18	n/a	n/a	n/a	28	23	9	9	5
