mstime	trial_type	stim_file	subject	experiment	session	trial	task	item_name	item_num	recog_conf	resp	color_b	color_g	color_r	case	font
0	SESS_START	n/a	LTP142	ltpFR	2	n/a	n/a	n/a	n/a	5	n/a	n/a	n/a	n/a	n/a	n/a
121487	WORD	wordpools/wasnorm_wordpool.txt	LTP142	ltpFR	2	1	0	MAMMAL	861	n/a	1	1	0.412841796875	0.57763671875	upper	../fonts/amplitud.ttf
125566	WORD	wordpools/wasnorm_wordpool.txt	LTP142	ltpFR	2	1	0	SHEET	1279	n/a	0	1	0.412841796875	0.57763671875	upper	../fonts/amplitud.ttf
129495	WORD	wordpools/wasnorm_wordpool.txt	LTP142	ltpFR	2	1	1	TRAY	1498	n/a	0	0	0.5869140625	0.422607421875	lower	../fonts/zerothre.ttf
133316	WORD	wordpools/wasnorm_wordpool.txt	LTP142	ltpFR	2	1	1	MULE	931	n/a	1	0	0.5869140625	0.422607421875	lower	../fonts/zerothre.ttf
137402	WORD	wordpools/wasnorm_wordpool.txt	LTP142	ltpFR	2	1	0	CAB	209	n/a	1	1	0.412841796875	0.57763671875	upper	../fonts/amplitud.ttf
141547	WORD	wordpools/wasnorm_wordpool.txt	LTP142	ltpFR	2	1	0	CARAVAN	242	n/a	1	1	0.412841796875	0.57763671875	upper	../fonts/amplitud.ttf
145751	WORD	wordpools/wasnorm_wordpool.txt	LTP142	ltpFR	2	1	0	CHAPEL	280	n/a	1	1	0.412841796875	0.57763671875	upper	../fonts/amplitud.ttf
149713	WORD	wordpools/wasnorm_wordpool.txt	LTP142	ltpFR	2	1	0	DAGGER	434	n/a	0	1	0.412841796875	0.57763671875	upper	../fonts/amplitud.ttf
153775	WORD	wordpools/wasnorm_wordpool.txt	LTP142	ltpFR	2	1	0	SURGEON	1413	n/a	1	1	0.412841796875	0.57763671875	upper	../fonts/amplitud.ttf
157695	WORD	wordpools/wasnorm_wordpool.txt	LTP142	ltpFR	2	1	0	BEAST	108	n/a	1	1	0.412841796875	0.57763671875	upper	../fonts/amplitud.ttf
161857	WORD	wordpools/wasnorm_wordpool.txt	LTP142	ltpFR	2	1	1	DOUGHNUT	490	n/a	0	0	0.5869140625	0.422607421875	lower	../fonts/zerothre.ttf
166060	WORD	wordpools/wasnorm_wordpool.txt	LTP142	ltpFR	2	1	1	FOLDER	588	n/a	0	0	0.5869140625	0.422607421875	lower	../fonts/zerothre.ttf
170164	WORD	wordpools/wasnorm_wordpool.txt	LTP142	ltpFR	2	1	1	CHEST	295	n/a	0	0	0.5869140625	0.422607421875	lower	../fonts/zerothre.ttf
174359	WORD	wordpools/wasnorm_wordpool.txt	LTP142	ltpFR	2	1	1	SHAMPOO	1274	n/a	0	0	0.5869140625	0.422607421875	lower	../fonts/zerothre.ttf
178314	WORD	wordpools/wasnorm_wordpool.txt	LTP142	ltpFR	2	1	1	THERMOMETER	1453	n/a	0	0	0.5869140625	0.422607421875	lower	../fonts/zerothre.ttf
182301	WORD	wordpools/wasnorm_wordpool.txt	LTP142	ltpFR	2	1	1	HAWK	692	n/a	1	0	0.5869140625	0.422607421875	lower	../fonts/zerothre.ttf
188077	REC_START	n/a	LTP142	ltpFR	2	1	n/a	n/a	n/a	n/a	n/a	n/a	n/a	n/a	n/a	n/a
188665	REC_WORD	wordpools/wasnorm_wordpool.txt	LTP142	ltpFR	2	1	1	HAWK	692	n/a	1	n/a	n/a	n/a	n/a	n/a
189673	REC_WORD	wordpools/wasnorm_wordpool.txt	LTP142	ltpFR	2	1	1	THERMOMETER	1453	n/a	0	n/a	n/a	n/a	n/a	n/a
190880	REC_WORD	wordpools/wasnorm_wordpool.txt	LTP142	ltpFR	2	1	0	CARAVAN	242	n/a	1	n/a	n/a	n/a	n/a	n/a
192157	REC_WORD	wordpools/wasnorm_wordpool.txt	LTP142	ltpFR	2	1	0	CAB	209	n/a	1	n/a	n/a	n/a	n/a	n/a
193429	REC_WORD	wordpools/wasnorm_wordpool.txt	LTP142	ltpFR	2	1	0	SURGEON	1413	n/a	1	n/a	n/a	n/a	n/a	n/a
195036	REC_WORD	wordpools/wasnorm_wordpool.txt	LTP142	ltpFR	2	1	0	DAGGER	434	n/a	0	n/a	n/a	n/a	n/a	n/a
196183	REC_WORD	wordpools/wasnorm_wordpool.txt	LTP142	ltpFR	2	1	1	MULE	931	n/a	1	n/a	n/a	n/a	n/a	n/a
197585	REC_WORD	wordpools/wasnorm_wordpool.txt	LTP142	ltpFR	2	1	0	SHEET	1279	n/a	0	n/a	n/a	n/a	n/a	n/a
210980	REC_WORD	wordpools/wasnorm_wordpool.txt	LTP142	ltpFR	2	1	1	FOLDER	588	n/a	0	n/a	n/a	n/a	n/a	n/a
214138	REC_WORD	wordpools/wasnorm_wordpool.txt	LTP142	ltpFR	2	1	0	BEAST	108	n/a	1	n/a	n/a	n/a	n/a	n/a
279021	WORD	wordpools/wasnorm_wordpool.txt	LTP142	ltpFR	2	2	1	INSTRUCTOR	741	n/a	1	0	0.5869140625	0.422607421875	lower	../fonts/zerothre.ttf
282983	WORD	wordpools/wasnorm_wordpool.txt	LTP142	ltpFR	2	2	1	CARD	243	n/a	0	0	0.5869140625	0.422607421875	lower	../fonts/zerothre.ttf
287062	WORD	wordpools/wasnorm_wordpool.txt	LTP142	ltpFR	2	2	0	SCOTCH	1251	n/a	0	1	0.412841796875	0.57763671875	upper	../fonts/amplitud.ttf
291191	WORD	wordpools/wasnorm_wordpool.txt	LTP142	ltpFR	2	2	0	HEAD	695	n/a	1	1	0.412841796875	0.57763671875	upper	../fonts/amplitud.ttf
295269	WORD	wordpools/wasnorm_wordpool.txt	LTP142	ltpFR	2	2	0	CONDUCTOR	362	n/a	1	1	0.412841796875	0.57763671875	upper	../fonts/amplitud.ttf
299190	WORD	wordpools/wasnorm_wordpool.txt	LTP142	ltpFR	2	2	0	SAXOPHONE	1240	n/a	1	1	0.412841796875	0.57763671875	upper	../fonts/amplitud.ttf
303303	WORD	wordpools/wasnorm_wordpool.txt	LTP142	ltpFR	2	2	1	HEADBAND	696	n/a	0	0	0.5869140625	0.422607421875	lower	../fonts/zerothre.ttf
307488	WORD	wordpools/wasnorm_wordpool.txt	LTP142	ltpFR	2	2	1	MANAGER	863	n/a	1	0	0.5869140625	0.422607421875	lower	../fonts/zerothre.ttf
311534	WORD	wordpools/wasnorm_wordpool.txt	LTP142	ltpFR	2	2	0	GRAPE	654	n/a	0	1	0.412841796875	0.57763671875	upper	../fonts/amplitud.ttf
315412	WORD	wordpools/wasnorm_wordpool.txt	LTP142	ltpFR	2	2	0	BARTENDER	92	n/a	1	1	0.412841796875	0.57763671875	upper	../fonts/amplitud.ttf
319342	WORD	wordpools/wasnorm_wordpool.txt	LTP142	ltpFR	2	2	0	JAPAN	749	n/a	1	1	0.412841796875	0.57763671875	upper	../fonts/amplitud.ttf
323253	WORD	wordpools/wasnorm_wordpool.txt	LTP142	ltpFR	2	2	0	TERRITORY	1452	n/a	1	1	0.412841796875	0.57763671875	upper	../fonts/amplitud.ttf
327424	WORD	wordpools/wasnorm_wordpool.txt	LTP142	ltpFR	2	2	1	MEADOW	881	n/a	0	0	0.5869140625	0.422607421875	lower	../fonts/zerothre.ttf
331337	WORD	wordpools/wasnorm_wordpool.txt	LTP142	ltpFR	2	2	1	HUSBAND	728	n/a	1	0	0.5869140625	0.422607421875	lower	../fonts/zerothre.ttf
335223	WORD	wordpools/wasnorm_wordpool.txt	LTP142	ltpFR	2	2	1	PAPER	1011	n/a	0	0	0.5869140625	0.422607421875	lower	../fonts/zerothre.ttf
339418	WORD	wordpools/wasnorm_wordpool.txt	LTP142	ltpFR	2	2	1	NOTEBOOK	959	n/a	0	0	0.5869140625	0.422607421875	lower	../fonts/zerothre.ttf
345212	REC_START	n/a	LTP142	ltpFR	2	2	n/a	n/a	n/a	n/a	n/a	n/a	n/a	n/a	n/a	n/a
345885	REC_WORD	wordpools/wasnorm_wordpool.txt	LTP142	ltpFR	2	2	1	NOTEBOOK	959	n/a	0	n/a	n/a	n/a	n/a	n/a
347147	REC_WORD	wordpools/wasnorm_wordpool.txt	LTP142	ltpFR	2	2	1	PAPER	1011	n/a	0	n/a	n/a	n/a	n/a	n/a
348194	REC_WORD	wordpools/wasnorm_wordpool.txt	LTP142	ltpFR	2	2	0	SCOTCH	1251	n/a	0	n/a	n/a	n/a	n/a	n/a
349741	REC_WORD	wordpools/wasnorm_wordpool.txt	LTP142	ltpFR	2	2	1	HUSBAND	728	n/a	1	n/a	n/a	n/a	n/a	n/a
351163	REC_WORD	wordpools/wasnorm_wordpool.txt	LTP142	ltpFR	2	2	0	BARTENDER	92	n/a	1	n/a	n/a	n/a	n/a	n/a
353184	REC_WORD	wordpools/wasnorm_wordpool.txt	LTP142	ltpFR	2	2	0	MAMMAL	861	n/a	1	n/a	n/a	n/a	n/a	n/a
359385	REC_WORD	wordpools/wasnorm_wordpool.txt	LTP142	ltpFR	2	2	0	CONDUCTOR	362	n/a	1	n/a	n/a	n/a	n/a	n/a
361076	REC_WORD	wordpools/wasnorm_wordpool.txt	LTP142	ltpFR	2	2	0	HEAD	695	n/a	1	n/a	n/a	n/a	n/a	n/a
371866	REC_WORD	wordpools/wasnorm_wordpool.txt	LTP142	ltpFR	2	2	0	TERRITORY	1452	n/a	1	n/a	n/a	n/a	n/a	n/a
373108	REC_WORD	wordpools/wasnorm_wordpool.txt	LTP142	ltpFR	2	2	0	JAPAN	749	n/a	1	n/a	n/a	n/a	n/a	n/a
383510	REC_WORD	wordpools/wasnorm_wordpool.txt	LTP142	ltpFR	2	2	1	NOTEBOOK	959	n/a	0	n/a	n/a	n/a	n/a	n/a
388687	REC_WORD	wordpools/wasnorm_wordpool.txt	LTP142	ltpFR	2	2	1	PAPER	1011	n/a	0	n/a	n/a	n/a	n/a	n/a
433401	WORD	wordpools/wasnorm_wordpool.txt	LTP142	ltpFR	2	3	0	FOX	598	n/a	0	1	0.412841796875	0.57763671875	upper	../fonts/amplitud.ttf
437263	WORD	wordpools/wasnorm_wordpool.txt	LTP142	ltpFR	2	3	0	EWE	542	n/a	1	1	0.412841796875	0.57763671875	upper	../fonts/amplitud.ttf
441267	WORD	wordpools/wasnorm_wordpool.txt	LTP142	ltpFR	2	3	0	CHALK	276	n/a	0	1	0.412841796875	0.57763671875	upper	../fonts/amplitud.ttf
445379	WORD	wordpools/wasnorm_wordpool.txt	LTP142	ltpFR	2	3	1	PLASTER	1085	n/a	0	0	0.5869140625	0.422607421875	lower	../fonts/zerothre.ttf
449524	WORD	wordpools/wasnorm_wordpool.txt	LTP142	ltpFR	2	3	1	STAMP	1370	n/a	0	0	0.5869140625	0.422607421875	lower	../fonts/zerothre.ttf
453461	WORD	wordpools/wasnorm_wordpool.txt	LTP142	ltpFR	2	3	0	NEPHEW	942	n/a	1	1	0.412841796875	0.57763671875	upper	../fonts/amplitud.ttf
457357	WORD	wordpools/wasnorm_wordpool.txt	LTP142	ltpFR	2	3	0	ELK	526	n/a	1	1	0.412841796875	0.57763671875	upper	../fonts/amplitud.ttf
461277	WORD	wordpools/wasnorm_wordpool.txt	LTP142	ltpFR	2	3	0	GAZELLE	628	n/a	1	1	0.412841796875	0.57763671875	upper	../fonts/amplitud.ttf
465389	WORD	wordpools/wasnorm_wordpool.txt	LTP142	ltpFR	2	3	1	COLOGNE	347	n/a	0	0	0.5869140625	0.422607421875	lower	../fonts/zerothre.ttf
469343	WORD	wordpools/wasnorm_wordpool.txt	LTP142	ltpFR	2	3	1	HIP	710	n/a	0	0	0.5869140625	0.422607421875	lower	../fonts/zerothre.ttf
473404	WORD	wordpools/wasnorm_wordpool.txt	LTP142	ltpFR	2	3	1	SHOULDER	1294	n/a	0	0	0.5869140625	0.422607421875	lower	../fonts/zerothre.ttf
477433	WORD	wordpools/wasnorm_wordpool.txt	LTP142	ltpFR	2	3	1	SUNSET	1408	n/a	0	0	0.5869140625	0.422607421875	lower	../fonts/zerothre.ttf
481512	WORD	wordpools/wasnorm_wordpool.txt	LTP142	ltpFR	2	3	1	ADOLESCENT	7	n/a	1	0	0.5869140625	0.422607421875	lower	../fonts/zerothre.ttf
485449	WORD	wordpools/wasnorm_wordpool.txt	LTP142	ltpFR	2	3	1	ERASER	538	n/a	0	0	0.5869140625	0.422607421875	lower	../fonts/zerothre.ttf
489561	WORD	wordpools/wasnorm_wordpool.txt	LTP142	ltpFR	2	3	0	STAKE	1368	n/a	1	1	0.412841796875	0.57763671875	upper	../fonts/amplitud.ttf
493465	WORD	wordpools/wasnorm_wordpool.txt	LTP142	ltpFR	2	3	0	SWING	1421	n/a	1	1	0.412841796875	0.57763671875	upper	../fonts/amplitud.ttf
499108	REC_START	n/a	LTP142	ltpFR	2	3	n/a	n/a	n/a	n/a	n/a	n/a	n/a	n/a	n/a	n/a
499661	REC_WORD	wordpools/wasnorm_wordpool.txt	LTP142	ltpFR	2	3	0	SWING	1421	n/a	1	n/a	n/a	n/a	n/a	n/a
500798	REC_WORD	wordpools/wasnorm_wordpool.txt	LTP142	ltpFR	2	3	1	SUNSET	1408	n/a	0	n/a	n/a	n/a	n/a	n/a
502215	REC_WORD	wordpools/wasnorm_wordpool.txt	LTP142	ltpFR	2	3	0	FOX	598	n/a	0	n/a	n/a	n/a	n/a	n/a
503677	REC_WORD	wordpools/wasnorm_wordpool.txt	LTP142	ltpFR	2	3	0	EWE	542	n/a	1	n/a	n/a	n/a	n/a	n/a
505094	REC_WORD	wordpools/wasnorm_wordpool.txt	LTP142	ltpFR	2	3	0	ELK	526	n/a	1	n/a	n/a	n/a	n/a	n/a
506721	REC_WORD	wordpools/wasnorm_wordpool.txt	LTP142	ltpFR	2	3	0	CHALK	276	n/a	0	n/a	n/a	n/a	n/a	n/a
509853	REC_WORD	wordpools/wasnorm_wordpool.txt	LTP142	ltpFR	2	3	1	ERASER	538	n/a	0	n/a	n/a	n/a	n/a	n/a
517217	REC_WORD	wordpools/wasnorm_wordpool.txt	LTP142	ltpFR	2	3	0	GAZELLE	628	n/a	1	n/a	n/a	n/a	n/a	n/a
524200	REC_WORD	wordpools/wasnorm_wordpool.txt	LTP142	ltpFR	2	3	1	SUNSET	1408	n/a	0	n/a	n/a	n/a	n/a	n/a
526580	REC_WORD	wordpools/wasnorm_wordpool.txt	LTP142	ltpFR	2	3	0	SWING	1421	n/a	1	n/a	n/a	n/a	n/a	n/a
529159	REC_WORD	wordpools/wasnorm_wordpool.txt	LTP142	ltpFR	2	3	1	ADOLESCENT	7	n/a	1	n/a	n/a	n/a	n/a	n/a
584617	WORD	wordpools/wasnorm_wordpool.txt	LTP142	ltpFR	2	4	1	KIWI	781	n/a	0	0	0.5869140625	0.422607421875	lower	../fonts/zerothre.ttf
588762	WORD	wordpools/wasnorm_wordpool.txt	LTP142	ltpFR	2	4	1	DOVE	491	n/a	1	0	0.5869140625	0.422607421875	lower	../fonts/zerothre.ttf
592774	WORD	wordpools/wasnorm_wordpool.txt	LTP142	ltpFR	2	4	1	CHAMPAGNE	278	n/a	0	0	0.5869140625	0.422607421875	lower	../fonts/zerothre.ttf
596928	WORD	wordpools/wasnorm_wordpool.txt	LTP142	ltpFR	2	4	1	CHURCH	307	n/a	0	0	0.5869140625	0.422607421875	lower	../fonts/zerothre.ttf
601057	WORD	wordpools/wasnorm_wordpool.txt	LTP142	ltpFR	2	4	1	CATHEDRAL	260	n/a	0	0	0.5869140625	0.422607421875	lower	../fonts/zerothre.ttf
605019	WORD	wordpools/wasnorm_wordpool.txt	LTP142	ltpFR	2	4	1	COTTAGE	384	n/a	0	0	0.5869140625	0.422607421875	lower	../fonts/zerothre.ttf
608897	WORD	wordpools/wasnorm_wordpool.txt	LTP142	ltpFR	2	4	1	BUILDER	190	n/a	1	0	0.5869140625	0.422607421875	lower	../fonts/zerothre.ttf
612809	WORD	wordpools/wasnorm_wordpool.txt	LTP142	ltpFR	2	4	1	YOKE	1632	n/a	0	0	0.5869140625	0.422607421875	lower	../fonts/zerothre.ttf
616930	WORD	wordpools/wasnorm_wordpool.txt	LTP142	ltpFR	2	4	1	BOLT	146	n/a	1	0	0.5869140625	0.422607421875	lower	../fonts/zerothre.ttf
621125	WORD	wordpools/wasnorm_wordpool.txt	LTP142	ltpFR	2	4	1	SHELTER	1282	n/a	0	0	0.5869140625	0.422607421875	lower	../fonts/zerothre.ttf
625162	WORD	wordpools/wasnorm_wordpool.txt	LTP142	ltpFR	2	4	1	VINEGAR	1569	n/a	0	0	0.5869140625	0.422607421875	lower	../fonts/zerothre.ttf
629091	WORD	wordpools/wasnorm_wordpool.txt	LTP142	ltpFR	2	4	1	OPERATOR	979	n/a	1	0	0.5869140625	0.422607421875	lower	../fonts/zerothre.ttf
633019	WORD	wordpools/wasnorm_wordpool.txt	LTP142	ltpFR	2	4	1	NUT	965	n/a	1	0	0.5869140625	0.422607421875	lower	../fonts/zerothre.ttf
636990	WORD	wordpools/wasnorm_wordpool.txt	LTP142	ltpFR	2	4	1	CONTRACTOR	369	n/a	1	0	0.5869140625	0.422607421875	lower	../fonts/zerothre.ttf
641143	WORD	wordpools/wasnorm_wordpool.txt	LTP142	ltpFR	2	4	1	CORAL	378	n/a	1	0	0.5869140625	0.422607421875	lower	../fonts/zerothre.ttf
645340	WORD	wordpools/wasnorm_wordpool.txt	LTP142	ltpFR	2	4	1	VILLAGE	1566	n/a	0	0	0.5869140625	0.422607421875	lower	../fonts/zerothre.ttf
651382	REC_START	n/a	LTP142	ltpFR	2	4	n/a	n/a	n/a	n/a	n/a	n/a	n/a	n/a	n/a	n/a
652499	REC_WORD	wordpools/wasnorm_wordpool.txt	LTP142	ltpFR	2	4	1	VILLAGE	1566	n/a	0	n/a	n/a	n/a	n/a	n/a
653701	REC_WORD	wordpools/wasnorm_wordpool.txt	LTP142	ltpFR	2	4	n/a	YOLK	1633	n/a	n/a	n/a	n/a	n/a	n/a	n/a
655023	REC_WORD	wordpools/wasnorm_wordpool.txt	LTP142	ltpFR	2	4	1	CONTRACTOR	369	n/a	1	n/a	n/a	n/a	n/a	n/a
656023	REC_WORD_VV	wordpools/wasnorm_wordpool.txt	LTP142	ltpFR	2	4	n/a	<>	-1	n/a	n/a	n/a	n/a	n/a	n/a	n/a
657832	REC_WORD	wordpools/wasnorm_wordpool.txt	LTP142	ltpFR	2	4	1	CHURCH	307	n/a	0	n/a	n/a	n/a	n/a	n/a
659314	REC_WORD	wordpools/wasnorm_wordpool.txt	LTP142	ltpFR	2	4	1	COTTAGE	384	n/a	0	n/a	n/a	n/a	n/a	n/a
660525	REC_WORD	wordpools/wasnorm_wordpool.txt	LTP142	ltpFR	2	4	1	CATHEDRAL	260	n/a	0	n/a	n/a	n/a	n/a	n/a
671750	REC_WORD	wordpools/wasnorm_wordpool.txt	LTP142	ltpFR	2	4	1	BUILDER	190	n/a	1	n/a	n/a	n/a	n/a	n/a
747029	WORD	wordpools/wasnorm_wordpool.txt	LTP142	ltpFR	2	5	0	SNAKE	1333	n/a	1	1	0.412841796875	0.57763671875	upper	../fonts/amplitud.ttf
750908	WORD	wordpools/wasnorm_wordpool.txt	LTP142	ltpFR	2	5	0	DOLL	481	n/a	1	1	0.412841796875	0.57763671875	upper	../fonts/amplitud.ttf
754828	WORD	wordpools/wasnorm_wordpool.txt	LTP142	ltpFR	2	5	0	CLOSET	326	n/a	1	1	0.412841796875	0.57763671875	upper	../fonts/amplitud.ttf
758815	WORD	wordpools/wasnorm_wordpool.txt	LTP142	ltpFR	2	5	0	KNOB	787	n/a	0	1	0.412841796875	0.57763671875	upper	../fonts/amplitud.ttf
762869	WORD	wordpools/wasnorm_wordpool.txt	LTP142	ltpFR	2	5	0	PADDING	999	n/a	0	1	0.412841796875	0.57763671875	upper	../fonts/amplitud.ttf
767039	WORD	wordpools/wasnorm_wordpool.txt	LTP142	ltpFR	2	5	0	TOTE	1487	n/a	0	1	0.412841796875	0.57763671875	upper	../fonts/amplitud.ttf
770951	WORD	wordpools/wasnorm_wordpool.txt	LTP142	ltpFR	2	5	0	FIST	572	n/a	0	1	0.412841796875	0.57763671875	upper	../fonts/amplitud.ttf
774805	WORD	wordpools/wasnorm_wordpool.txt	LTP142	ltpFR	2	5	0	ARENA	37	n/a	1	1	0.412841796875	0.57763671875	upper	../fonts/amplitud.ttf
778909	WORD	wordpools/wasnorm_wordpool.txt	LTP142	ltpFR	2	5	0	PADDLE	1000	n/a	1	1	0.412841796875	0.57763671875	upper	../fonts/amplitud.ttf
782787	WORD	wordpools/wasnorm_wordpool.txt	LTP142	ltpFR	2	5	0	MARINE	869	n/a	1	1	0.412841796875	0.57763671875	upper	../fonts/amplitud.ttf
786908	WORD	wordpools/wasnorm_wordpool.txt	LTP142	ltpFR	2	5	0	PUMP	1141	n/a	1	1	0.412841796875	0.57763671875	upper	../fonts/amplitud.ttf
790720	WORD	wordpools/wasnorm_wordpool.txt	LTP142	ltpFR	2	5	0	CAMERA	224	n/a	0	1	0.412841796875	0.57763671875	upper	../fonts/amplitud.ttf
794624	WORD	wordpools/wasnorm_wordpool.txt	LTP142	ltpFR	2	5	0	CREAM	402	n/a	0	1	0.412841796875	0.57763671875	upper	../fonts/amplitud.ttf
798711	WORD	wordpools/wasnorm_wordpool.txt	LTP142	ltpFR	2	5	0	GLACIER	638	n/a	1	1	0.412841796875	0.57763671875	upper	../fonts/amplitud.ttf
802606	WORD	wordpools/wasnorm_wordpool.txt	LTP142	ltpFR	2	5	0	KNUCKLE	789	n/a	0	1	0.412841796875	0.57763671875	upper	../fonts/amplitud.ttf
806552	WORD	wordpools/wasnorm_wordpool.txt	LTP142	ltpFR	2	5	0	SURF	1412	n/a	1	1	0.412841796875	0.57763671875	upper	../fonts/amplitud.ttf
812321	REC_START	n/a	LTP142	ltpFR	2	5	n/a	n/a	n/a	n/a	n/a	n/a	n/a	n/a	n/a	n/a
813118	REC_WORD	wordpools/wasnorm_wordpool.txt	LTP142	ltpFR	2	5	0	SURF	1412	n/a	1	n/a	n/a	n/a	n/a	n/a
814596	REC_WORD	wordpools/wasnorm_wordpool.txt	LTP142	ltpFR	2	5	0	GLACIER	638	n/a	1	n/a	n/a	n/a	n/a	n/a
816172	REC_WORD	wordpools/wasnorm_wordpool.txt	LTP142	ltpFR	2	5	0	PADDLE	1000	n/a	1	n/a	n/a	n/a	n/a	n/a
817593	REC_WORD	wordpools/wasnorm_wordpool.txt	LTP142	ltpFR	2	5	0	FIST	572	n/a	0	n/a	n/a	n/a	n/a	n/a
818876	REC_WORD	wordpools/wasnorm_wordpool.txt	LTP142	ltpFR	2	5	0	KNUCKLE	789	n/a	0	n/a	n/a	n/a	n/a	n/a
903040	WORD	wordpools/wasnorm_wordpool.txt	LTP142	ltpFR	2	6	0	VIOLIN	1571	n/a	1	1	0.412841796875	0.57763671875	upper	../fonts/amplitud.ttf
906894	WORD	wordpools/wasnorm_wordpool.txt	LTP142	ltpFR	2	6	0	VESSEL	1558	n/a	0	1	0.412841796875	0.57763671875	upper	../fonts/amplitud.ttf
910731	WORD	wordpools/wasnorm_wordpool.txt	LTP142	ltpFR	2	6	0	MOTOR	922	n/a	1	1	0.412841796875	0.57763671875	upper	../fonts/amplitud.ttf
914934	WORD	wordpools/wasnorm_wordpool.txt	LTP142	ltpFR	2	6	0	KLEENEX	782	n/a	0	1	0.412841796875	0.57763671875	upper	../fonts/amplitud.ttf
918905	WORD	wordpools/wasnorm_wordpool.txt	LTP142	ltpFR	2	6	0	NURSERY	964	n/a	1	1	0.412841796875	0.57763671875	upper	../fonts/amplitud.ttf
922759	WORD	wordpools/wasnorm_wordpool.txt	LTP142	ltpFR	2	6	0	CHILD	299	n/a	1	1	0.412841796875	0.57763671875	upper	../fonts/amplitud.ttf
926613	WORD	wordpools/wasnorm_wordpool.txt	LTP142	ltpFR	2	6	0	DOCK	477	n/a	1	1	0.412841796875	0.57763671875	upper	../fonts/amplitud.ttf
930724	WORD	wordpools/wasnorm_wordpool.txt	LTP142	ltpFR	2	6	0	PREDATOR	1120	n/a	1	1	0.412841796875	0.57763671875	upper	../fonts/amplitud.ttf
934545	WORD	wordpools/wasnorm_wordpool.txt	LTP142	ltpFR	2	6	0	CREATURE	403	n/a	1	1	0.412841796875	0.57763671875	upper	../fonts/amplitud.ttf
938632	WORD	wordpools/wasnorm_wordpool.txt	LTP142	ltpFR	2	6	0	THUMB	1462	n/a	0	1	0.412841796875	0.57763671875	upper	../fonts/amplitud.ttf
942785	WORD	wordpools/wasnorm_wordpool.txt	LTP142	ltpFR	2	6	0	PORCUPINE	1107	n/a	1	1	0.412841796875	0.57763671875	upper	../fonts/amplitud.ttf
946748	WORD	wordpools/wasnorm_wordpool.txt	LTP142	ltpFR	2	6	0	MOOSE	915	n/a	1	1	0.412841796875	0.57763671875	upper	../fonts/amplitud.ttf
950851	WORD	wordpools/wasnorm_wordpool.txt	LTP142	ltpFR	2	6	0	PUCK	1138	n/a	0	1	0.412841796875	0.57763671875	upper	../fonts/amplitud.ttf
954988	WORD	wordpools/wasnorm_wordpool.txt	LTP142	ltpFR	2	6	0	CANDY	230	n/a	0	1	0.412841796875	0.57763671875	upper	../fonts/amplitud.ttf
958883	WORD	wordpools/wasnorm_wordpool.txt	LTP142	ltpFR	2	6	0	BRICK	172	n/a	0	1	0.412841796875	0.57763671875	upper	../fonts/amplitud.ttf
963045	WORD	wordpools/wasnorm_wordpool.txt	LTP142	ltpFR	2	6	0	SALESMAN	1225	n/a	1	1	0.412841796875	0.57763671875	upper	../fonts/amplitud.ttf
968798	REC_START	n/a	LTP142	ltpFR	2	6	n/a	n/a	n/a	n/a	n/a	n/a	n/a	n/a	n/a	n/a
969585	REC_WORD	wordpools/wasnorm_wordpool.txt	LTP142	ltpFR	2	6	0	SALESMAN	1225	n/a	1	n/a	n/a	n/a	n/a	n/a
971407	REC_WORD	wordpools/wasnorm_wordpool.txt	LTP142	ltpFR	2	6	0	PUCK	1138	n/a	0	n/a	n/a	n/a	n/a	n/a
972923	REC_WORD	wordpools/wasnorm_wordpool.txt	LTP142	ltpFR	2	6	0	NURSERY	964	n/a	1	n/a	n/a	n/a	n/a	n/a
980281	REC_WORD	wordpools/wasnorm_wordpool.txt	LTP142	ltpFR	2	6	0	VESSEL	1558	n/a	0	n/a	n/a	n/a	n/a	n/a
981444	REC_WORD	wordpools/wasnorm_wordpool.txt	LTP142	ltpFR	2	6	0	KLEENEX	782	n/a	0	n/a	n/a	n/a	n/a	n/a
983130	REC_WORD	wordpools/wasnorm_wordpool.txt	LTP142	ltpFR	2	6	n/a	CHILDREN	-1	n/a	n/a	n/a	n/a	n/a	n/a	n/a
1018919	REC_WORD	wordpools/wasnorm_wordpool.txt	LTP142	ltpFR	2	6	0	PREDATOR	1120	n/a	1	n/a	n/a	n/a	n/a	n/a
1021972	REC_WORD	wordpools/wasnorm_wordpool.txt	LTP142	ltpFR	2	6	0	MOOSE	915	n/a	1	n/a	n/a	n/a	n/a	n/a
1022915	REC_WORD	wordpools/wasnorm_wordpool.txt	LTP142	ltpFR	2	6	0	PORCUPINE	1107	n/a	1	n/a	n/a	n/a	n/a	n/a
1034124	REC_WORD	wordpools/wasnorm_wordpool.txt	LTP142	ltpFR	2	6	0	PUCK	1138	n/a	0	n/a	n/a	n/a	n/a	n/a
1056787	WORD	wordpools/wasnorm_wordpool.txt	LTP142	ltpFR	2	7	1	TUNA	1518	n/a	1	0	0.5869140625	0.422607421875	lower	../fonts/zerothre.ttf
1060990	WORD	wordpools/wasnorm_wordpool.txt	LTP142	ltpFR	2	7	1	MARKET	871	n/a	0	0	0.5869140625	0.422607421875	lower	../fonts/zerothre.ttf
1064977	WORD	wordpools/wasnorm_wordpool.txt	LTP142	ltpFR	2	7	0	LACE	792	n/a	0	1	0.412841796875	0.57763671875	upper	../fonts/amplitud.ttf
1069164	WORD	wordpools/wasnorm_wordpool.txt	LTP142	ltpFR	2	7	0	DIRECTOR	471	n/a	1	1	0.412841796875	0.57763671875	upper	../fonts/amplitud.ttf
1072993	WORD	wordpools/wasnorm_wordpool.txt	LTP142	ltpFR	2	7	0	SEAFOOD	1260	n/a	1	1	0.412841796875	0.57763671875	upper	../fonts/amplitud.ttf
1076888	WORD	wordpools/wasnorm_wordpool.txt	LTP142	ltpFR	2	7	0	PIRATE	1074	n/a	1	1	0.412841796875	0.57763671875	upper	../fonts/amplitud.ttf
1080909	WORD	wordpools/wasnorm_wordpool.txt	LTP142	ltpFR	2	7	1	BOAT	144	n/a	0	0	0.5869140625	0.422607421875	lower	../fonts/zerothre.ttf
1085046	WORD	wordpools/wasnorm_wordpool.txt	LTP142	ltpFR	2	7	1	CRIMINAL	409	n/a	0	0	0.5869140625	0.422607421875	lower	../fonts/zerothre.ttf
1089249	WORD	wordpools/wasnorm_wordpool.txt	LTP142	ltpFR	2	7	0	ORANGE	980	n/a	0	1	0.412841796875	0.57763671875	upper	../fonts/amplitud.ttf
1093278	WORD	wordpools/wasnorm_wordpool.txt	LTP142	ltpFR	2	7	0	BRAN	167	n/a	0	1	0.412841796875	0.57763671875	upper	../fonts/amplitud.ttf
1097415	WORD	wordpools/wasnorm_wordpool.txt	LTP142	ltpFR	2	7	0	LETTUCE	814	n/a	0	1	0.412841796875	0.57763671875	upper	../fonts/amplitud.ttf
1101344	WORD	wordpools/wasnorm_wordpool.txt	LTP142	ltpFR	2	7	0	SHOE	1288	n/a	0	1	0.412841796875	0.57763671875	upper	../fonts/amplitud.ttf
1105298	WORD	wordpools/wasnorm_wordpool.txt	LTP142	ltpFR	2	7	1	MOUNTAIN	924	n/a	1	0	0.5869140625	0.422607421875	lower	../fonts/zerothre.ttf
1109143	WORD	wordpools/wasnorm_wordpool.txt	LTP142	ltpFR	2	7	1	KITE	779	n/a	0	0	0.5869140625	0.422607421875	lower	../fonts/zerothre.ttf
1113213	WORD	wordpools/wasnorm_wordpool.txt	LTP142	ltpFR	2	7	1	BISON	131	n/a	1	0	0.5869140625	0.422607421875	lower	../fonts/zerothre.ttf
1117225	WORD	wordpools/wasnorm_wordpool.txt	LTP142	ltpFR	2	7	1	OTTER	986	n/a	1	0	0.5869140625	0.422607421875	lower	../fonts/zerothre.ttf
1122911	REC_START	n/a	LTP142	ltpFR	2	7	n/a	n/a	n/a	n/a	n/a	n/a	n/a	n/a	n/a	n/a
1124128	REC_WORD	wordpools/wasnorm_wordpool.txt	LTP142	ltpFR	2	7	1	BISON	131	n/a	1	n/a	n/a	n/a	n/a	n/a
1125335	REC_WORD	wordpools/wasnorm_wordpool.txt	LTP142	ltpFR	2	7	1	OTTER	986	n/a	1	n/a	n/a	n/a	n/a	n/a
1127520	REC_WORD	wordpools/wasnorm_wordpool.txt	LTP142	ltpFR	2	7	1	TUNA	1518	n/a	1	n/a	n/a	n/a	n/a	n/a
1128827	REC_WORD	wordpools/wasnorm_wordpool.txt	LTP142	ltpFR	2	7	1	MARKET	871	n/a	0	n/a	n/a	n/a	n/a	n/a
1130088	REC_WORD	wordpools/wasnorm_wordpool.txt	LTP142	ltpFR	2	7	0	SEAFOOD	1260	n/a	1	n/a	n/a	n/a	n/a	n/a
1134998	REC_WORD	wordpools/wasnorm_wordpool.txt	LTP142	ltpFR	2	7	0	SHOE	1288	n/a	0	n/a	n/a	n/a	n/a	n/a
1136759	REC_WORD	wordpools/wasnorm_wordpool.txt	LTP142	ltpFR	2	7	0	ORANGE	980	n/a	0	n/a	n/a	n/a	n/a	n/a
1137922	REC_WORD	wordpools/wasnorm_wordpool.txt	LTP142	ltpFR	2	7	0	LETTUCE	814	n/a	0	n/a	n/a	n/a	n/a	n/a
1157856	REC_WORD	wordpools/wasnorm_wordpool.txt	LTP142	ltpFR	2	7	1	BOAT	144	n/a	0	n/a	n/a	n/a	n/a	n/a
1173206	REC_WORD	wordpools/wasnorm_wordpool.txt	LTP142	ltpFR	2	7	n/a	GLADIATOR	-1	n/a	n/a	n/a	n/a	n/a	n/a	n/a
1223727	WORD	wordpools/wasnorm_wordpool.txt	LTP142	ltpFR	2	8	0	WALRUS	1585	n/a	1	1	0.412841796875	0.57763671875	upper	../fonts/amplitud.ttf
1227764	WORD	wordpools/wasnorm_wordpool.txt	LTP142	ltpFR	2	8	0	PLAQUE	1084	n/a	0	1	0.412841796875	0.57763671875	upper	../fonts/amplitud.ttf
1231576	WORD	wordpools/wasnorm_wordpool.txt	LTP142	ltpFR	2	8	0	ANTENNA	28	n/a	0	1	0.412841796875	0.57763671875	upper	../fonts/amplitud.ttf
1235438	WORD	wordpools/wasnorm_wordpool.txt	LTP142	ltpFR	2	8	0	MAYONNAISE	880	n/a	0	1	0.412841796875	0.57763671875	upper	../fonts/amplitud.ttf
1239492	WORD	wordpools/wasnorm_wordpool.txt	LTP142	ltpFR	2	8	0	EAGLE	512	n/a	1	1	0.412841796875	0.57763671875	upper	../fonts/amplitud.ttf
1243603	WORD	wordpools/wasnorm_wordpool.txt	LTP142	ltpFR	2	8	1	CLAM	315	n/a	1	0	0.5869140625	0.422607421875	lower	../fonts/zerothre.ttf
1247416	WORD	wordpools/wasnorm_wordpool.txt	LTP142	ltpFR	2	8	1	SALIVA	1226	n/a	0	0	0.5869140625	0.422607421875	lower	../fonts/zerothre.ttf
1251511	WORD	wordpools/wasnorm_wordpool.txt	LTP142	ltpFR	2	8	1	CITY	314	n/a	0	0	0.5869140625	0.422607421875	lower	../fonts/zerothre.ttf
1255373	WORD	wordpools/wasnorm_wordpool.txt	LTP142	ltpFR	2	8	0	CAPITAL	238	n/a	1	1	0.412841796875	0.57763671875	upper	../fonts/amplitud.ttf
1259303	WORD	wordpools/wasnorm_wordpool.txt	LTP142	ltpFR	2	8	0	THORN	1459	n/a	0	1	0.412841796875	0.57763671875	upper	../fonts/amplitud.ttf
1263472	WORD	wordpools/wasnorm_wordpool.txt	LTP142	ltpFR	2	8	0	STEWARDESS	1381	n/a	1	1	0.412841796875	0.57763671875	upper	../fonts/amplitud.ttf
1267584	WORD	wordpools/wasnorm_wordpool.txt	LTP142	ltpFR	2	8	1	QUAIL	1147	n/a	1	0	0.5869140625	0.422607421875	lower	../fonts/zerothre.ttf
1271554	WORD	wordpools/wasnorm_wordpool.txt	LTP142	ltpFR	2	8	1	CEILING	265	n/a	0	0	0.5869140625	0.422607421875	lower	../fonts/zerothre.ttf
1275450	WORD	wordpools/wasnorm_wordpool.txt	LTP142	ltpFR	2	8	1	CARPENTER	246	n/a	1	0	0.5869140625	0.422607421875	lower	../fonts/zerothre.ttf
1279495	WORD	wordpools/wasnorm_wordpool.txt	LTP142	ltpFR	2	8	1	PLANE	1081	n/a	0	0	0.5869140625	0.422607421875	lower	../fonts/zerothre.ttf
1283507	WORD	wordpools/wasnorm_wordpool.txt	LTP142	ltpFR	2	8	1	CHIP	303	n/a	0	0	0.5869140625	0.422607421875	lower	../fonts/zerothre.ttf
1289335	REC_START	n/a	LTP142	ltpFR	2	8	n/a	n/a	n/a	n/a	n/a	n/a	n/a	n/a	n/a	n/a
1290188	REC_WORD	wordpools/wasnorm_wordpool.txt	LTP142	ltpFR	2	8	1	PLANE	1081	n/a	0	n/a	n/a	n/a	n/a	n/a
1291874	REC_WORD	wordpools/wasnorm_wordpool.txt	LTP142	ltpFR	2	8	1	CHIP	303	n/a	0	n/a	n/a	n/a	n/a	n/a
1293146	REC_WORD	wordpools/wasnorm_wordpool.txt	LTP142	ltpFR	2	8	0	WALRUS	1585	n/a	1	n/a	n/a	n/a	n/a	n/a
1294871	REC_WORD	wordpools/wasnorm_wordpool.txt	LTP142	ltpFR	2	8	0	STEWARDESS	1381	n/a	1	n/a	n/a	n/a	n/a	n/a
1297860	REC_WORD	wordpools/wasnorm_wordpool.txt	LTP142	ltpFR	2	8	1	QUAIL	1147	n/a	1	n/a	n/a	n/a	n/a	n/a
1307833	REC_WORD	wordpools/wasnorm_wordpool.txt	LTP142	ltpFR	2	8	1	CLAM	315	n/a	1	n/a	n/a	n/a	n/a	n/a
1505275	WORD	wordpools/wasnorm_wordpool.txt	LTP142	ltpFR	2	9	-1	RECIPE	1175	n/a	-1	1	1.0	1.0	upper	../fonts/Verdana.ttf
1509404	WORD	wordpools/wasnorm_wordpool.txt	LTP142	ltpFR	2	9	-1	CHICKEN	297	n/a	-1	1	1.0	1.0	upper	../fonts/Verdana.ttf
1513432	WORD	wordpools/wasnorm_wordpool.txt	LTP142	ltpFR	2	9	-1	BELT	120	n/a	-1	1	1.0	1.0	upper	../fonts/Verdana.ttf
1517278	WORD	wordpools/wasnorm_wordpool.txt	LTP142	ltpFR	2	9	-1	CELLAR	267	n/a	-1	1	1.0	1.0	upper	../fonts/Verdana.ttf
1521373	WORD	wordpools/wasnorm_wordpool.txt	LTP142	ltpFR	2	9	-1	BOXER	160	n/a	-1	1	1.0	1.0	upper	../fonts/Verdana.ttf
1525369	WORD	wordpools/wasnorm_wordpool.txt	LTP142	ltpFR	2	9	-1	SLIME	1327	n/a	-1	1	1.0	1.0	upper	../fonts/Verdana.ttf
1529332	WORD	wordpools/wasnorm_wordpool.txt	LTP142	ltpFR	2	9	-1	TURNIP	1521	n/a	-1	1	1.0	1.0	upper	../fonts/Verdana.ttf
1533501	WORD	wordpools/wasnorm_wordpool.txt	LTP142	ltpFR	2	9	-1	JAR	750	n/a	-1	1	1.0	1.0	upper	../fonts/Verdana.ttf
1537588	WORD	wordpools/wasnorm_wordpool.txt	LTP142	ltpFR	2	9	-1	OATMEAL	967	n/a	-1	1	1.0	1.0	upper	../fonts/Verdana.ttf
1541500	WORD	wordpools/wasnorm_wordpool.txt	LTP142	ltpFR	2	9	-1	FOOTBALL	591	n/a	-1	1	1.0	1.0	upper	../fonts/Verdana.ttf
1545520	WORD	wordpools/wasnorm_wordpool.txt	LTP142	ltpFR	2	9	-1	BARREL	91	n/a	-1	1	1.0	1.0	upper	../fonts/Verdana.ttf
1549574	WORD	wordpools/wasnorm_wordpool.txt	LTP142	ltpFR	2	9	-1	APARTMENT	30	n/a	-1	1	1.0	1.0	upper	../fonts/Verdana.ttf
1553461	WORD	wordpools/wasnorm_wordpool.txt	LTP142	ltpFR	2	9	-1	WAREHOUSE	1588	n/a	-1	1	1.0	1.0	upper	../fonts/Verdana.ttf
1557606	WORD	wordpools/wasnorm_wordpool.txt	LTP142	ltpFR	2	9	-1	ROOST	1208	n/a	-1	1	1.0	1.0	upper	../fonts/Verdana.ttf
1561443	WORD	wordpools/wasnorm_wordpool.txt	LTP142	ltpFR	2	9	-1	EDITOR	516	n/a	-1	1	1.0	1.0	upper	../fonts/Verdana.ttf
1565397	WORD	wordpools/wasnorm_wordpool.txt	LTP142	ltpFR	2	9	-1	PUBLICATION	1136	n/a	-1	1	1.0	1.0	upper	../fonts/Verdana.ttf
1571424	REC_START	n/a	LTP142	ltpFR	2	9	n/a	n/a	n/a	n/a	n/a	n/a	n/a	n/a	n/a	n/a
1572292	REC_WORD	wordpools/wasnorm_wordpool.txt	LTP142	ltpFR	2	9	-1	PUBLICATION	1136	n/a	-1	n/a	n/a	n/a	n/a	n/a
1573292	REC_WORD_VV	wordpools/wasnorm_wordpool.txt	LTP142	ltpFR	2	9	n/a	<>	-1	n/a	n/a	n/a	n/a	n/a	n/a	n/a
1573988	REC_WORD	wordpools/wasnorm_wordpool.txt	LTP142	ltpFR	2	9	-1	EDITOR	516	n/a	-1	n/a	n/a	n/a	n/a	n/a
1575315	REC_WORD	wordpools/wasnorm_wordpool.txt	LTP142	ltpFR	2	9	-1	RECIPE	1175	n/a	-1	n/a	n/a	n/a	n/a	n/a
1576717	REC_WORD	wordpools/wasnorm_wordpool.txt	LTP142	ltpFR	2	9	-1	CHICKEN	297	n/a	-1	n/a	n/a	n/a	n/a	n/a
1578183	REC_WORD	wordpools/wasnorm_wordpool.txt	LTP142	ltpFR	2	9	-1	TURNIP	1521	n/a	-1	n/a	n/a	n/a	n/a	n/a
1579505	REC_WORD	wordpools/wasnorm_wordpool.txt	LTP142	ltpFR	2	9	-1	OATMEAL	967	n/a	-1	n/a	n/a	n/a	n/a	n/a
1581077	REC_WORD	wordpools/wasnorm_wordpool.txt	LTP142	ltpFR	2	9	-1	BARREL	91	n/a	-1	n/a	n/a	n/a	n/a	n/a
1582324	REC_WORD	wordpools/wasnorm_wordpool.txt	LTP142	ltpFR	2	9	-1	JAR	750	n/a	-1	n/a	n/a	n/a	n/a	n/a
1585571	REC_WORD	wordpools/wasnorm_wordpool.txt	LTP142	ltpFR	2	9	-1	CELLAR	267	n/a	-1	n/a	n/a	n/a	n/a	n/a
1586719	REC_WORD	wordpools/wasnorm_wordpool.txt	LTP142	ltpFR	2	9	-1	APARTMENT	30	n/a	-1	n/a	n/a	n/a	n/a	n/a
1599605	REC_WORD	wordpools/wasnorm_wordpool.txt	LTP142	ltpFR	2	9	-1	ROOST	1208	n/a	-1	n/a	n/a	n/a	n/a	n/a
1626128	REC_WORD	wordpools/wasnorm_wordpool.txt	LTP142	ltpFR	2	9	-1	PUBLICATION	1136	n/a	-1	n/a	n/a	n/a	n/a	n/a
1659996	WORD	wordpools/wasnorm_wordpool.txt	LTP142	ltpFR	2	10	1	GIRL	637	n/a	1	0	0.5869140625	0.422607421875	lower	../fonts/zerothre.ttf
1664116	WORD	wordpools/wasnorm_wordpool.txt	LTP142	ltpFR	2	10	1	DAUGHTER	442	n/a	1	0	0.5869140625	0.422607421875	lower	../fonts/zerothre.ttf
1668028	WORD	wordpools/wasnorm_wordpool.txt	LTP142	ltpFR	2	10	1	CAR	241	n/a	0	0	0.5869140625	0.422607421875	lower	../fonts/zerothre.ttf
1672007	WORD	wordpools/wasnorm_wordpool.txt	LTP142	ltpFR	2	10	1	FRAGRANCE	599	n/a	0	0	0.5869140625	0.422607421875	lower	../fonts/zerothre.ttf
1676052	WORD	wordpools/wasnorm_wordpool.txt	LTP142	ltpFR	2	10	1	OYSTER	995	n/a	1	0	0.5869140625	0.422607421875	lower	../fonts/zerothre.ttf
1679956	WORD	wordpools/wasnorm_wordpool.txt	LTP142	ltpFR	2	10	1	GUM	672	n/a	0	0	0.5869140625	0.422607421875	lower	../fonts/zerothre.ttf
1683985	WORD	wordpools/wasnorm_wordpool.txt	LTP142	ltpFR	2	10	1	LUNCH	849	n/a	0	0	0.5869140625	0.422607421875	lower	../fonts/zerothre.ttf
1688063	WORD	wordpools/wasnorm_wordpool.txt	LTP142	ltpFR	2	10	1	DRINK	498	n/a	0	0	0.5869140625	0.422607421875	lower	../fonts/zerothre.ttf
1691976	WORD	wordpools/wasnorm_wordpool.txt	LTP142	ltpFR	2	10	1	BUCKET	184	n/a	0	0	0.5869140625	0.422607421875	lower	../fonts/zerothre.ttf
1696129	WORD	wordpools/wasnorm_wordpool.txt	LTP142	ltpFR	2	10	1	BATHTUB	100	n/a	0	0	0.5869140625	0.422607421875	lower	../fonts/zerothre.ttf
1700174	WORD	wordpools/wasnorm_wordpool.txt	LTP142	ltpFR	2	10	1	PUDDLE	1140	n/a	0	0	0.5869140625	0.422607421875	lower	../fonts/zerothre.ttf
1704378	WORD	wordpools/wasnorm_wordpool.txt	LTP142	ltpFR	2	10	1	CHEF	290	n/a	1	0	0.5869140625	0.422607421875	lower	../fonts/zerothre.ttf
1708415	WORD	wordpools/wasnorm_wordpool.txt	LTP142	ltpFR	2	10	1	BATTERY	101	n/a	0	0	0.5869140625	0.422607421875	lower	../fonts/zerothre.ttf
1712360	WORD	wordpools/wasnorm_wordpool.txt	LTP142	ltpFR	2	10	1	JOURNAL	760	n/a	0	0	0.5869140625	0.422607421875	lower	../fonts/zerothre.ttf
1716439	WORD	wordpools/wasnorm_wordpool.txt	LTP142	ltpFR	2	10	1	AUTHOR	61	n/a	0	0	0.5869140625	0.422607421875	lower	../fonts/zerothre.ttf
1720352	WORD	wordpools/wasnorm_wordpool.txt	LTP142	ltpFR	2	10	1	TEA	1439	n/a	0	0	0.5869140625	0.422607421875	lower	../fonts/zerothre.ttf
1726128	REC_START	n/a	LTP142	ltpFR	2	10	n/a	n/a	n/a	n/a	n/a	n/a	n/a	n/a	n/a	n/a
1727165	REC_WORD	wordpools/wasnorm_wordpool.txt	LTP142	ltpFR	2	10	1	TEA	1439	n/a	0	n/a	n/a	n/a	n/a	n/a
1728368	REC_WORD	wordpools/wasnorm_wordpool.txt	LTP142	ltpFR	2	10	1	GUM	672	n/a	0	n/a	n/a	n/a	n/a	n/a
1729485	REC_WORD	wordpools/wasnorm_wordpool.txt	LTP142	ltpFR	2	10	1	DRINK	498	n/a	0	n/a	n/a	n/a	n/a	n/a
1730812	REC_WORD	wordpools/wasnorm_wordpool.txt	LTP142	ltpFR	2	10	1	CHEF	290	n/a	1	n/a	n/a	n/a	n/a	n/a
1732209	REC_WORD	wordpools/wasnorm_wordpool.txt	LTP142	ltpFR	2	10	1	GIRL	637	n/a	1	n/a	n/a	n/a	n/a	n/a
1733297	REC_WORD	wordpools/wasnorm_wordpool.txt	LTP142	ltpFR	2	10	1	DAUGHTER	442	n/a	1	n/a	n/a	n/a	n/a	n/a
1741253	REC_WORD	wordpools/wasnorm_wordpool.txt	LTP142	ltpFR	2	10	1	CLAM	315	n/a	1	n/a	n/a	n/a	n/a	n/a
1747504	REC_WORD	wordpools/wasnorm_wordpool.txt	LTP142	ltpFR	2	10	1	PUDDLE	1140	n/a	0	n/a	n/a	n/a	n/a	n/a
1748462	REC_WORD	wordpools/wasnorm_wordpool.txt	LTP142	ltpFR	2	10	1	BATHTUB	100	n/a	0	n/a	n/a	n/a	n/a	n/a
1815874	WORD	wordpools/wasnorm_wordpool.txt	LTP142	ltpFR	2	11	-1	PACKAGE	997	n/a	-1	1	1.0	1.0	upper	../fonts/Verdana.ttf
1819711	WORD	wordpools/wasnorm_wordpool.txt	LTP142	ltpFR	2	11	-1	ENVELOPE	537	n/a	-1	1	1.0	1.0	upper	../fonts/Verdana.ttf
1823556	WORD	wordpools/wasnorm_wordpool.txt	LTP142	ltpFR	2	11	-1	FLOUR	583	n/a	-1	1	1.0	1.0	upper	../fonts/Verdana.ttf
1827485	WORD	wordpools/wasnorm_wordpool.txt	LTP142	ltpFR	2	11	-1	RUNNER	1218	n/a	-1	1	1.0	1.0	upper	../fonts/Verdana.ttf
1831572	WORD	wordpools/wasnorm_wordpool.txt	LTP142	ltpFR	2	11	-1	BUSH	202	n/a	-1	1	1.0	1.0	upper	../fonts/Verdana.ttf
1835509	WORD	wordpools/wasnorm_wordpool.txt	LTP142	ltpFR	2	11	-1	BEAR	106	n/a	-1	1	1.0	1.0	upper	../fonts/Verdana.ttf
1839646	WORD	wordpools/wasnorm_wordpool.txt	LTP142	ltpFR	2	11	-1	NEWSSTAND	949	n/a	-1	1	1.0	1.0	upper	../fonts/Verdana.ttf
1843591	WORD	wordpools/wasnorm_wordpool.txt	LTP142	ltpFR	2	11	-1	MEAL	882	n/a	-1	1	1.0	1.0	upper	../fonts/Verdana.ttf
1847612	WORD	wordpools/wasnorm_wordpool.txt	LTP142	ltpFR	2	11	-1	STRAW	1390	n/a	-1	1	1.0	1.0	upper	../fonts/Verdana.ttf
1851582	WORD	wordpools/wasnorm_wordpool.txt	LTP142	ltpFR	2	11	-1	OATS	968	n/a	-1	1	1.0	1.0	upper	../fonts/Verdana.ttf
1855569	WORD	wordpools/wasnorm_wordpool.txt	LTP142	ltpFR	2	11	-1	GROCERY	664	n/a	-1	1	1.0	1.0	upper	../fonts/Verdana.ttf
1859473	WORD	wordpools/wasnorm_wordpool.txt	LTP142	ltpFR	2	11	-1	DOCUMENT	479	n/a	-1	1	1.0	1.0	upper	../fonts/Verdana.ttf
1863393	WORD	wordpools/wasnorm_wordpool.txt	LTP142	ltpFR	2	11	-1	LANDSCAPE	799	n/a	-1	1	1.0	1.0	upper	../fonts/Verdana.ttf
1867256	WORD	wordpools/wasnorm_wordpool.txt	LTP142	ltpFR	2	11	-1	RIFLE	1192	n/a	-1	1	1.0	1.0	upper	../fonts/Verdana.ttf
1871085	WORD	wordpools/wasnorm_wordpool.txt	LTP142	ltpFR	2	11	-1	HOSPITAL	721	n/a	-1	1	1.0	1.0	upper	../fonts/Verdana.ttf
1875205	WORD	wordpools/wasnorm_wordpool.txt	LTP142	ltpFR	2	11	-1	VIRUS	1572	n/a	-1	1	1.0	1.0	upper	../fonts/Verdana.ttf
1881082	REC_START	n/a	LTP142	ltpFR	2	11	n/a	n/a	n/a	n/a	n/a	n/a	n/a	n/a	n/a	n/a
1882508	REC_WORD	wordpools/wasnorm_wordpool.txt	LTP142	ltpFR	2	11	-1	VIRUS	1572	n/a	-1	n/a	n/a	n/a	n/a	n/a
1883895	REC_WORD	wordpools/wasnorm_wordpool.txt	LTP142	ltpFR	2	11	-1	HOSPITAL	721	n/a	-1	n/a	n/a	n/a	n/a	n/a
1886085	REC_WORD	wordpools/wasnorm_wordpool.txt	LTP142	ltpFR	2	11	-1	PACKAGE	997	n/a	-1	n/a	n/a	n/a	n/a	n/a
1887497	REC_WORD	wordpools/wasnorm_wordpool.txt	LTP142	ltpFR	2	11	-1	NEWSSTAND	949	n/a	-1	n/a	n/a	n/a	n/a	n/a
1889323	REC_WORD	wordpools/wasnorm_wordpool.txt	LTP142	ltpFR	2	11	-1	FLOUR	583	n/a	-1	n/a	n/a	n/a	n/a	n/a
1891159	REC_WORD	wordpools/wasnorm_wordpool.txt	LTP142	ltpFR	2	11	-1	BUSH	202	n/a	-1	n/a	n/a	n/a	n/a	n/a
1892541	REC_WORD	wordpools/wasnorm_wordpool.txt	LTP142	ltpFR	2	11	-1	BEAR	106	n/a	-1	n/a	n/a	n/a	n/a	n/a
1896941	REC_WORD	wordpools/wasnorm_wordpool.txt	LTP142	ltpFR	2	11	-1	OATS	968	n/a	-1	n/a	n/a	n/a	n/a	n/a
1897953	REC_WORD	wordpools/wasnorm_wordpool.txt	LTP142	ltpFR	2	11	-1	STRAW	1390	n/a	-1	n/a	n/a	n/a	n/a	n/a
1899754	REC_WORD	wordpools/wasnorm_wordpool.txt	LTP142	ltpFR	2	11	-1	ENVELOPE	537	n/a	-1	n/a	n/a	n/a	n/a	n/a
1939993	REC_WORD	wordpools/wasnorm_wordpool.txt	LTP142	ltpFR	2	11	-1	RUNNER	1218	n/a	-1	n/a	n/a	n/a	n/a	n/a
1971219	WORD	wordpools/wasnorm_wordpool.txt	LTP142	ltpFR	2	12	0	CONE	363	n/a	0	1	0.412841796875	0.57763671875	upper	../fonts/amplitud.ttf
1975380	WORD	wordpools/wasnorm_wordpool.txt	LTP142	ltpFR	2	12	0	PRODUCER	1129	n/a	1	1	0.412841796875	0.57763671875	upper	../fonts/amplitud.ttf
1979284	WORD	wordpools/wasnorm_wordpool.txt	LTP142	ltpFR	2	12	0	MECHANIC	884	n/a	1	1	0.412841796875	0.57763671875	upper	../fonts/amplitud.ttf
1983396	WORD	wordpools/wasnorm_wordpool.txt	LTP142	ltpFR	2	12	0	RECORD	1176	n/a	0	1	0.412841796875	0.57763671875	upper	../fonts/amplitud.ttf
1987533	WORD	wordpools/wasnorm_wordpool.txt	LTP142	ltpFR	2	12	0	APRON	35	n/a	0	1	0.412841796875	0.57763671875	upper	../fonts/amplitud.ttf
1991653	WORD	wordpools/wasnorm_wordpool.txt	LTP142	ltpFR	2	12	0	COOK	372	n/a	1	1	0.412841796875	0.57763671875	upper	../fonts/amplitud.ttf
1995649	WORD	wordpools/wasnorm_wordpool.txt	LTP142	ltpFR	2	12	0	COOKBOOK	373	n/a	0	1	0.412841796875	0.57763671875	upper	../fonts/amplitud.ttf
1999694	WORD	wordpools/wasnorm_wordpool.txt	LTP142	ltpFR	2	12	0	SANDWICH	1232	n/a	0	1	0.412841796875	0.57763671875	upper	../fonts/amplitud.ttf
2003656	WORD	wordpools/wasnorm_wordpool.txt	LTP142	ltpFR	2	12	0	TIGER	1467	n/a	1	1	0.412841796875	0.57763671875	upper	../fonts/amplitud.ttf
2007643	WORD	wordpools/wasnorm_wordpool.txt	LTP142	ltpFR	2	12	0	GRIZZLY	662	n/a	1	1	0.412841796875	0.57763671875	upper	../fonts/amplitud.ttf
2011797	WORD	wordpools/wasnorm_wordpool.txt	LTP142	ltpFR	2	12	0	DIGGER	464	n/a	1	1	0.412841796875	0.57763671875	upper	../fonts/amplitud.ttf
2015684	WORD	wordpools/wasnorm_wordpool.txt	LTP142	ltpFR	2	12	0	FATHER	554	n/a	1	1	0.412841796875	0.57763671875	upper	../fonts/amplitud.ttf
2019521	WORD	wordpools/wasnorm_wordpool.txt	LTP142	ltpFR	2	12	0	FILM	565	n/a	0	1	0.412841796875	0.57763671875	upper	../fonts/amplitud.ttf
2023674	WORD	wordpools/wasnorm_wordpool.txt	LTP142	ltpFR	2	12	0	TROMBONE	1508	n/a	1	1	0.412841796875	0.57763671875	upper	../fonts/amplitud.ttf
2027603	WORD	wordpools/wasnorm_wordpool.txt	LTP142	ltpFR	2	12	0	KEEPER	769	n/a	1	1	0.412841796875	0.57763671875	upper	../fonts/amplitud.ttf
2031715	WORD	wordpools/wasnorm_wordpool.txt	LTP142	ltpFR	2	12	0	WINDSHIELD	1612	n/a	1	1	0.412841796875	0.57763671875	upper	../fonts/amplitud.ttf
2037709	REC_START	n/a	LTP142	ltpFR	2	12	n/a	n/a	n/a	n/a	n/a	n/a	n/a	n/a	n/a	n/a
2038835	REC_WORD	wordpools/wasnorm_wordpool.txt	LTP142	ltpFR	2	12	0	KEEPER	769	n/a	1	n/a	n/a	n/a	n/a	n/a
2040043	REC_WORD	wordpools/wasnorm_wordpool.txt	LTP142	ltpFR	2	12	0	WINDSHIELD	1612	n/a	1	n/a	n/a	n/a	n/a	n/a
2041385	REC_WORD	wordpools/wasnorm_wordpool.txt	LTP142	ltpFR	2	12	0	FATHER	554	n/a	1	n/a	n/a	n/a	n/a	n/a
2042921	REC_WORD	wordpools/wasnorm_wordpool.txt	LTP142	ltpFR	2	12	0	MECHANIC	884	n/a	1	n/a	n/a	n/a	n/a	n/a
2044517	REC_WORD	wordpools/wasnorm_wordpool.txt	LTP142	ltpFR	2	12	0	PRODUCER	1129	n/a	1	n/a	n/a	n/a	n/a	n/a
2046354	REC_WORD	wordpools/wasnorm_wordpool.txt	LTP142	ltpFR	2	12	0	FILM	565	n/a	0	n/a	n/a	n/a	n/a	n/a
2049203	REC_WORD	wordpools/wasnorm_wordpool.txt	LTP142	ltpFR	2	12	0	GRIZZLY	662	n/a	1	n/a	n/a	n/a	n/a	n/a
2050614	REC_WORD	wordpools/wasnorm_wordpool.txt	LTP142	ltpFR	2	12	0	TIGER	1467	n/a	1	n/a	n/a	n/a	n/a	n/a
2064443	REC_WORD	wordpools/wasnorm_wordpool.txt	LTP142	ltpFR	2	12	0	RECORD	1176	n/a	0	n/a	n/a	n/a	n/a	n/a
2113297	REST_REWET	n/a	LTP142	ltpFR	2	12	n/a	n/a	n/a	n/a	n/a	n/a	n/a	n/a	n/a	n/a
2355249	WORD	wordpools/wasnorm_wordpool.txt	LTP142	ltpFR	2	13	-1	CUP	424	n/a	-1	1	1.0	1.0	upper	../fonts/Verdana.ttf
2359119	WORD	wordpools/wasnorm_wordpool.txt	LTP142	ltpFR	2	13	-1	PLATE	1086	n/a	-1	1	1.0	1.0	upper	../fonts/Verdana.ttf
2362998	WORD	wordpools/wasnorm_wordpool.txt	LTP142	ltpFR	2	13	-1	COLUMN	350	n/a	-1	1	1.0	1.0	upper	../fonts/Verdana.ttf
2367068	WORD	wordpools/wasnorm_wordpool.txt	LTP142	ltpFR	2	13	-1	VEST	1559	n/a	-1	1	1.0	1.0	upper	../fonts/Verdana.ttf
2371197	WORD	wordpools/wasnorm_wordpool.txt	LTP142	ltpFR	2	13	-1	DRUG	501	n/a	-1	1	1.0	1.0	upper	../fonts/Verdana.ttf
2375234	WORD	wordpools/wasnorm_wordpool.txt	LTP142	ltpFR	2	13	-1	SKYSCRAPER	1322	n/a	-1	1	1.0	1.0	upper	../fonts/Verdana.ttf
2379154	WORD	wordpools/wasnorm_wordpool.txt	LTP142	ltpFR	2	13	-1	FEAST	556	n/a	-1	1	1.0	1.0	upper	../fonts/Verdana.ttf
2383249	WORD	wordpools/wasnorm_wordpool.txt	LTP142	ltpFR	2	13	-1	BARLEY	88	n/a	-1	1	1.0	1.0	upper	../fonts/Verdana.ttf
2387178	WORD	wordpools/wasnorm_wordpool.txt	LTP142	ltpFR	2	13	-1	CABIN	211	n/a	-1	1	1.0	1.0	upper	../fonts/Verdana.ttf
2391040	WORD	wordpools/wasnorm_wordpool.txt	LTP142	ltpFR	2	13	-1	BUTCHER	203	n/a	-1	1	1.0	1.0	upper	../fonts/Verdana.ttf
2395094	WORD	wordpools/wasnorm_wordpool.txt	LTP142	ltpFR	2	13	-1	POLYESTER	1100	n/a	-1	1	1.0	1.0	upper	../fonts/Verdana.ttf
2399299	WORD	wordpools/wasnorm_wordpool.txt	LTP142	ltpFR	2	13	-1	ROSE	1212	n/a	-1	1	1.0	1.0	upper	../fonts/Verdana.ttf
2403484	WORD	wordpools/wasnorm_wordpool.txt	LTP142	ltpFR	2	13	-1	PASTA	1021	n/a	-1	1	1.0	1.0	upper	../fonts/Verdana.ttf
2407388	WORD	wordpools/wasnorm_wordpool.txt	LTP142	ltpFR	2	13	-1	EDITORIAL	517	n/a	-1	1	1.0	1.0	upper	../fonts/Verdana.ttf
2411383	WORD	wordpools/wasnorm_wordpool.txt	LTP142	ltpFR	2	13	-1	TAR	1435	n/a	-1	1	1.0	1.0	upper	../fonts/Verdana.ttf
2415462	WORD	wordpools/wasnorm_wordpool.txt	LTP142	ltpFR	2	13	-1	PAVEMENT	1028	n/a	-1	1	1.0	1.0	upper	../fonts/Verdana.ttf
2421389	REC_START	n/a	LTP142	ltpFR	2	13	n/a	n/a	n/a	n/a	n/a	n/a	n/a	n/a	n/a	n/a
2422142	REC_WORD	wordpools/wasnorm_wordpool.txt	LTP142	ltpFR	2	13	n/a	GUITAR	670	n/a	n/a	n/a	n/a	n/a	n/a	n/a
2423314	REC_WORD	wordpools/wasnorm_wordpool.txt	LTP142	ltpFR	2	13	-1	PAVEMENT	1028	n/a	-1	n/a	n/a	n/a	n/a	n/a
2424581	REC_WORD	wordpools/wasnorm_wordpool.txt	LTP142	ltpFR	2	13	-1	CABIN	211	n/a	-1	n/a	n/a	n/a	n/a	n/a
2425998	REC_WORD	wordpools/wasnorm_wordpool.txt	LTP142	ltpFR	2	13	-1	PLATE	1086	n/a	-1	n/a	n/a	n/a	n/a	n/a
2427260	REC_WORD	wordpools/wasnorm_wordpool.txt	LTP142	ltpFR	2	13	-1	CUP	424	n/a	-1	n/a	n/a	n/a	n/a	n/a
2428353	REC_WORD	wordpools/wasnorm_wordpool.txt	LTP142	ltpFR	2	13	-1	BARLEY	88	n/a	-1	n/a	n/a	n/a	n/a	n/a
2429505	REC_WORD	wordpools/wasnorm_wordpool.txt	LTP142	ltpFR	2	13	-1	PASTA	1021	n/a	-1	n/a	n/a	n/a	n/a	n/a
2431162	REC_WORD	wordpools/wasnorm_wordpool.txt	LTP142	ltpFR	2	13	-1	BUTCHER	203	n/a	-1	n/a	n/a	n/a	n/a	n/a
2439168	REC_WORD_VV	wordpools/wasnorm_wordpool.txt	LTP142	ltpFR	2	13	n/a	<>	-1	n/a	n/a	n/a	n/a	n/a	n/a	n/a
2440200	REC_WORD	wordpools/wasnorm_wordpool.txt	LTP142	ltpFR	2	13	-1	SKYSCRAPER	1322	n/a	-1	n/a	n/a	n/a	n/a	n/a
2441200	REC_WORD_VV	wordpools/wasnorm_wordpool.txt	LTP142	ltpFR	2	13	n/a	<>	-1	n/a	n/a	n/a	n/a	n/a	n/a	n/a
2442556	REC_WORD	wordpools/wasnorm_wordpool.txt	LTP142	ltpFR	2	13	-1	DRUG	501	n/a	-1	n/a	n/a	n/a	n/a	n/a
2447793	REC_WORD	wordpools/wasnorm_wordpool.txt	LTP142	ltpFR	2	13	-1	FEAST	556	n/a	-1	n/a	n/a	n/a	n/a	n/a
2473221	REC_WORD	wordpools/wasnorm_wordpool.txt	LTP142	ltpFR	2	13	-1	ROSE	1212	n/a	-1	n/a	n/a	n/a	n/a	n/a
2477132	REC_WORD	wordpools/wasnorm_wordpool.txt	LTP142	ltpFR	2	13	-1	VEST	1559	n/a	-1	n/a	n/a	n/a	n/a	n/a
2478703	REC_WORD	wordpools/wasnorm_wordpool.txt	LTP142	ltpFR	2	13	-1	COLUMN	350	n/a	-1	n/a	n/a	n/a	n/a	n/a
2479891	REC_WORD	wordpools/wasnorm_wordpool.txt	LTP142	ltpFR	2	13	-1	POLYESTER	1100	n/a	-1	n/a	n/a	n/a	n/a	n/a
2508213	WORD	wordpools/wasnorm_wordpool.txt	LTP142	ltpFR	2	14	1	CATCHER	258	n/a	0	0	0.5869140625	0.422607421875	lower	../fonts/zerothre.ttf
2512366	WORD	wordpools/wasnorm_wordpool.txt	LTP142	ltpFR	2	14	1	CHECKERS	285	n/a	0	0	0.5869140625	0.422607421875	lower	../fonts/zerothre.ttf
2516330	WORD	wordpools/wasnorm_wordpool.txt	LTP142	ltpFR	2	14	1	ANTEATER	26	n/a	0	0	0.5869140625	0.422607421875	lower	../fonts/zerothre.ttf
2520391	WORD	wordpools/wasnorm_wordpool.txt	LTP142	ltpFR	2	14	0	CRUMB	416	n/a	0	1	0.412841796875	0.57763671875	upper	../fonts/amplitud.ttf
2524444	WORD	wordpools/wasnorm_wordpool.txt	LTP142	ltpFR	2	14	0	WINDOW	1611	n/a	1	1	0.412841796875	0.57763671875	upper	../fonts/amplitud.ttf
2528548	WORD	wordpools/wasnorm_wordpool.txt	LTP142	ltpFR	2	14	0	LAGOON	795	n/a	1	1	0.412841796875	0.57763671875	upper	../fonts/amplitud.ttf
2532560	WORD	wordpools/wasnorm_wordpool.txt	LTP142	ltpFR	2	14	0	RAFT	1159	n/a	1	1	0.412841796875	0.57763671875	upper	../fonts/amplitud.ttf
2536613	WORD	wordpools/wasnorm_wordpool.txt	LTP142	ltpFR	2	14	1	FIG	563	n/a	0	0	0.5869140625	0.422607421875	lower	../fonts/zerothre.ttf
2540692	WORD	wordpools/wasnorm_wordpool.txt	LTP142	ltpFR	2	14	1	WIFE	1609	n/a	1	0	0.5869140625	0.422607421875	lower	../fonts/zerothre.ttf
2544837	WORD	wordpools/wasnorm_wordpool.txt	LTP142	ltpFR	2	14	1	BUCKLE	185	n/a	0	0	0.5869140625	0.422607421875	lower	../fonts/zerothre.ttf
2548999	WORD	wordpools/wasnorm_wordpool.txt	LTP142	ltpFR	2	14	1	CLIMBER	323	n/a	1	0	0.5869140625	0.422607421875	lower	../fonts/zerothre.ttf
2553044	WORD	wordpools/wasnorm_wordpool.txt	LTP142	ltpFR	2	14	1	TIMBER	1469	n/a	0	0	0.5869140625	0.422607421875	lower	../fonts/zerothre.ttf
2557098	WORD	wordpools/wasnorm_wordpool.txt	LTP142	ltpFR	2	14	0	FARM	552	n/a	1	1	0.412841796875	0.57763671875	upper	../fonts/amplitud.ttf
2560985	WORD	wordpools/wasnorm_wordpool.txt	LTP142	ltpFR	2	14	0	BODY	145	n/a	1	1	0.412841796875	0.57763671875	upper	../fonts/amplitud.ttf
2565155	WORD	wordpools/wasnorm_wordpool.txt	LTP142	ltpFR	2	14	0	ABDOMEN	1	n/a	1	1	0.412841796875	0.57763671875	upper	../fonts/amplitud.ttf
2569051	WORD	wordpools/wasnorm_wordpool.txt	LTP142	ltpFR	2	14	0	FRIES	607	n/a	0	1	0.412841796875	0.57763671875	upper	../fonts/amplitud.ttf
2574770	REC_START	n/a	LTP142	ltpFR	2	14	n/a	n/a	n/a	n/a	n/a	n/a	n/a	n/a	n/a	n/a
2575737	REC_WORD	wordpools/wasnorm_wordpool.txt	LTP142	ltpFR	2	14	0	FRIES	607	n/a	0	n/a	n/a	n/a	n/a	n/a
2577164	REC_WORD	wordpools/wasnorm_wordpool.txt	LTP142	ltpFR	2	14	0	ABDOMEN	1	n/a	1	n/a	n/a	n/a	n/a	n/a
2579115	REC_WORD	wordpools/wasnorm_wordpool.txt	LTP142	ltpFR	2	14	0	BODY	145	n/a	1	n/a	n/a	n/a	n/a	n/a
2580357	REC_WORD	wordpools/wasnorm_wordpool.txt	LTP142	ltpFR	2	14	1	ANTEATER	26	n/a	0	n/a	n/a	n/a	n/a	n/a
2608338	REC_WORD	wordpools/wasnorm_wordpool.txt	LTP142	ltpFR	2	14	0	LAGOON	795	n/a	1	n/a	n/a	n/a	n/a	n/a
2609556	REC_WORD	wordpools/wasnorm_wordpool.txt	LTP142	ltpFR	2	14	0	WINDOW	1611	n/a	1	n/a	n/a	n/a	n/a	n/a
2616969	REC_WORD	wordpools/wasnorm_wordpool.txt	LTP142	ltpFR	2	14	0	RAFT	1159	n/a	1	n/a	n/a	n/a	n/a	n/a
2630957	REC_WORD	wordpools/wasnorm_wordpool.txt	LTP142	ltpFR	2	14	1	CATCHER	258	n/a	0	n/a	n/a	n/a	n/a	n/a
2633791	REC_WORD	wordpools/wasnorm_wordpool.txt	LTP142	ltpFR	2	14	1	WIFE	1609	n/a	1	n/a	n/a	n/a	n/a	n/a
2656383	WORD	wordpools/wasnorm_wordpool.txt	LTP142	ltpFR	2	15	1	MOWER	928	n/a	0	0	0.5869140625	0.422607421875	lower	../fonts/zerothre.ttf
2660545	WORD	wordpools/wasnorm_wordpool.txt	LTP142	ltpFR	2	15	1	RAKE	1164	n/a	0	0	0.5869140625	0.422607421875	lower	../fonts/zerothre.ttf
2664490	WORD	wordpools/wasnorm_wordpool.txt	LTP142	ltpFR	2	15	1	ROBIN	1199	n/a	1	0	0.5869140625	0.422607421875	lower	../fonts/zerothre.ttf
2668320	WORD	wordpools/wasnorm_wordpool.txt	LTP142	ltpFR	2	15	1	CORN	381	n/a	0	0	0.5869140625	0.422607421875	lower	../fonts/zerothre.ttf
2672181	WORD	wordpools/wasnorm_wordpool.txt	LTP142	ltpFR	2	15	1	SUPERMARKET	1409	n/a	0	0	0.5869140625	0.422607421875	lower	../fonts/zerothre.ttf
2676152	WORD	wordpools/wasnorm_wordpool.txt	LTP142	ltpFR	2	15	1	SERPENT	1270	n/a	1	0	0.5869140625	0.422607421875	lower	../fonts/zerothre.ttf
2680348	WORD	wordpools/wasnorm_wordpool.txt	LTP142	ltpFR	2	15	1	PARROT	1015	n/a	1	0	0.5869140625	0.422607421875	lower	../fonts/zerothre.ttf
2684176	WORD	wordpools/wasnorm_wordpool.txt	LTP142	ltpFR	2	15	1	SAND	1230	n/a	0	0	0.5869140625	0.422607421875	lower	../fonts/zerothre.ttf
2687988	WORD	wordpools/wasnorm_wordpool.txt	LTP142	ltpFR	2	15	1	COW	393	n/a	1	0	0.5869140625	0.422607421875	lower	../fonts/zerothre.ttf
2691950	WORD	wordpools/wasnorm_wordpool.txt	LTP142	ltpFR	2	15	1	TAPE	1433	n/a	0	0	0.5869140625	0.422607421875	lower	../fonts/zerothre.ttf
2696104	WORD	wordpools/wasnorm_wordpool.txt	LTP142	ltpFR	2	15	1	BANJO	82	n/a	0	0	0.5869140625	0.422607421875	lower	../fonts/zerothre.ttf
2699966	WORD	wordpools/wasnorm_wordpool.txt	LTP142	ltpFR	2	15	1	SPONGE	1355	n/a	0	0	0.5869140625	0.422607421875	lower	../fonts/zerothre.ttf
2703845	WORD	wordpools/wasnorm_wordpool.txt	LTP142	ltpFR	2	15	1	BOYFRIEND	162	n/a	1	0	0.5869140625	0.422607421875	lower	../fonts/zerothre.ttf
2707732	WORD	wordpools/wasnorm_wordpool.txt	LTP142	ltpFR	2	15	1	TURTLE	1522	n/a	1	0	0.5869140625	0.422607421875	lower	../fonts/zerothre.ttf
2711769	WORD	wordpools/wasnorm_wordpool.txt	LTP142	ltpFR	2	15	1	MOAT	903	n/a	0	0	0.5869140625	0.422607421875	lower	../fonts/zerothre.ttf
2715631	WORD	wordpools/wasnorm_wordpool.txt	LTP142	ltpFR	2	15	1	HEART	697	n/a	1	0	0.5869140625	0.422607421875	lower	../fonts/zerothre.ttf
2721293	REC_START	n/a	LTP142	ltpFR	2	15	n/a	n/a	n/a	n/a	n/a	n/a	n/a	n/a	n/a	n/a
2722300	REC_WORD	wordpools/wasnorm_wordpool.txt	LTP142	ltpFR	2	15	1	HEART	697	n/a	1	n/a	n/a	n/a	n/a	n/a
2723772	REC_WORD	wordpools/wasnorm_wordpool.txt	LTP142	ltpFR	2	15	1	MOWER	928	n/a	0	n/a	n/a	n/a	n/a	n/a
2725109	REC_WORD	wordpools/wasnorm_wordpool.txt	LTP142	ltpFR	2	15	1	RAKE	1164	n/a	0	n/a	n/a	n/a	n/a	n/a
2726965	REC_WORD	wordpools/wasnorm_wordpool.txt	LTP142	ltpFR	2	15	1	CORN	381	n/a	0	n/a	n/a	n/a	n/a	n/a
2728106	REC_WORD	wordpools/wasnorm_wordpool.txt	LTP142	ltpFR	2	15	1	SUPERMARKET	1409	n/a	0	n/a	n/a	n/a	n/a	n/a
2729948	REC_WORD	wordpools/wasnorm_wordpool.txt	LTP142	ltpFR	2	15	1	PARROT	1015	n/a	1	n/a	n/a	n/a	n/a	n/a
2731050	REC_WORD	wordpools/wasnorm_wordpool.txt	LTP142	ltpFR	2	15	1	SERPENT	1270	n/a	1	n/a	n/a	n/a	n/a	n/a
2734518	REC_WORD	wordpools/wasnorm_wordpool.txt	LTP142	ltpFR	2	15	1	BOYFRIEND	162	n/a	1	n/a	n/a	n/a	n/a	n/a
2745183	REC_WORD	wordpools/wasnorm_wordpool.txt	LTP142	ltpFR	2	15	1	MOAT	903	n/a	0	n/a	n/a	n/a	n/a	n/a
2759600	REC_WORD	wordpools/wasnorm_wordpool.txt	LTP142	ltpFR	2	15	1	HEART	697	n/a	1	n/a	n/a	n/a	n/a	n/a
2806434	WORD	wordpools/wasnorm_wordpool.txt	LTP142	ltpFR	2	16	-1	PLAZA	1088	n/a	-1	1	1.0	1.0	upper	../fonts/Verdana.ttf
2810331	WORD	wordpools/wasnorm_wordpool.txt	LTP142	ltpFR	2	16	-1	WHEAT	1602	n/a	-1	1	1.0	1.0	upper	../fonts/Verdana.ttf
2814208	WORD	wordpools/wasnorm_wordpool.txt	LTP142	ltpFR	2	16	-1	DETERGENT	455	n/a	-1	1	1.0	1.0	upper	../fonts/Verdana.ttf
2818370	WORD	wordpools/wasnorm_wordpool.txt	LTP142	ltpFR	2	16	-1	TART	1436	n/a	-1	1	1.0	1.0	upper	../fonts/Verdana.ttf
2822300	WORD	wordpools/wasnorm_wordpool.txt	LTP142	ltpFR	2	16	-1	SUPPER	1411	n/a	-1	1	1.0	1.0	upper	../fonts/Verdana.ttf
2826236	WORD	wordpools/wasnorm_wordpool.txt	LTP142	ltpFR	2	16	-1	WASHER	1592	n/a	-1	1	1.0	1.0	upper	../fonts/Verdana.ttf
2830123	WORD	wordpools/wasnorm_wordpool.txt	LTP142	ltpFR	2	16	-1	BAG	69	n/a	-1	1	1.0	1.0	upper	../fonts/Verdana.ttf
2834169	WORD	wordpools/wasnorm_wordpool.txt	LTP142	ltpFR	2	16	-1	BRIEFCASE	175	n/a	-1	1	1.0	1.0	upper	../fonts/Verdana.ttf
2838323	WORD	wordpools/wasnorm_wordpool.txt	LTP142	ltpFR	2	16	-1	OWNER	993	n/a	-1	1	1.0	1.0	upper	../fonts/Verdana.ttf
2842226	WORD	wordpools/wasnorm_wordpool.txt	LTP142	ltpFR	2	16	-1	BUYER	208	n/a	-1	1	1.0	1.0	upper	../fonts/Verdana.ttf
2846138	WORD	wordpools/wasnorm_wordpool.txt	LTP142	ltpFR	2	16	-1	PAWN	1030	n/a	-1	1	1.0	1.0	upper	../fonts/Verdana.ttf
2850225	WORD	wordpools/wasnorm_wordpool.txt	LTP142	ltpFR	2	16	-1	EYELASH	546	n/a	-1	1	1.0	1.0	upper	../fonts/Verdana.ttf
2854305	WORD	wordpools/wasnorm_wordpool.txt	LTP142	ltpFR	2	16	-1	ROUGE	1213	n/a	-1	1	1.0	1.0	upper	../fonts/Verdana.ttf
2858199	WORD	wordpools/wasnorm_wordpool.txt	LTP142	ltpFR	2	16	-1	WATERFALL	1595	n/a	-1	1	1.0	1.0	upper	../fonts/Verdana.ttf
2862078	WORD	wordpools/wasnorm_wordpool.txt	LTP142	ltpFR	2	16	-1	EMPIRE	530	n/a	-1	1	1.0	1.0	upper	../fonts/Verdana.ttf
2866090	WORD	wordpools/wasnorm_wordpool.txt	LTP142	ltpFR	2	16	-1	LOBSTER	837	n/a	-1	1	1.0	1.0	upper	../fonts/Verdana.ttf
2871692	REC_START	n/a	LTP142	ltpFR	2	16	n/a	n/a	n/a	n/a	n/a	n/a	n/a	n/a	n/a	n/a
2872615	REC_WORD	wordpools/wasnorm_wordpool.txt	LTP142	ltpFR	2	16	-1	EMPIRE	530	n/a	-1	n/a	n/a	n/a	n/a	n/a
2874012	REC_WORD	wordpools/wasnorm_wordpool.txt	LTP142	ltpFR	2	16	-1	LOBSTER	837	n/a	-1	n/a	n/a	n/a	n/a	n/a
2875413	REC_WORD	wordpools/wasnorm_wordpool.txt	LTP142	ltpFR	2	16	-1	ROUGE	1213	n/a	-1	n/a	n/a	n/a	n/a	n/a
2876940	REC_WORD	wordpools/wasnorm_wordpool.txt	LTP142	ltpFR	2	16	-1	EYELASH	546	n/a	-1	n/a	n/a	n/a	n/a	n/a
2882003	REC_WORD	wordpools/wasnorm_wordpool.txt	LTP142	ltpFR	2	16	-1	WATERFALL	1595	n/a	-1	n/a	n/a	n/a	n/a	n/a
2887077	REC_WORD	wordpools/wasnorm_wordpool.txt	LTP142	ltpFR	2	16	-1	PLAZA	1088	n/a	-1	n/a	n/a	n/a	n/a	n/a
2900960	REC_WORD	wordpools/wasnorm_wordpool.txt	LTP142	ltpFR	2	16	-1	BUYER	208	n/a	-1	n/a	n/a	n/a	n/a	n/a
2901948	REC_WORD	wordpools/wasnorm_wordpool.txt	LTP142	ltpFR	2	16	-1	OWNER	993	n/a	-1	n/a	n/a	n/a	n/a	n/a
2902851	REC_WORD	wordpools/wasnorm_wordpool.txt	LTP142	ltpFR	2	16	-1	BRIEFCASE	175	n/a	-1	n/a	n/a	n/a	n/a	n/a
2904068	REC_WORD	wordpools/wasnorm_wordpool.txt	LTP142	ltpFR	2	16	-1	PAWN	1030	n/a	-1	n/a	n/a	n/a	n/a	n/a
2983621	REC_START	n/a	LTP142	ltpFR	2	1	n/a	n/a	n/a	n/a	n/a	n/a	n/a	n/a	n/a	n/a
2983645	RECOG_LURE	n/a	LTP142	ltpFR	2	1	n/a	ELM	527	2	n/a	n/a	n/a	n/a	n/a	n/a
2987200	RECOG_RESP	n/a	LTP142	ltpFR	2	1	n/a	ELM	527	n/a	n/a	n/a	n/a	n/a	n/a	n/a
2989800	RECOG_CONF	n/a	LTP142	ltpFR	2	1	n/a	ELM	527	2	n/a	n/a	n/a	n/a	n/a	n/a
2991719	RECOG_TARGET	n/a	LTP142	ltpFR	2	1	1	HUSBAND	728	5	1	n/a	n/a	n/a	n/a	n/a
2992773	RECOG_RESP	n/a	LTP142	ltpFR	2	1	1	HUSBAND	728	n/a	1	n/a	n/a	n/a	n/a	n/a
2994611	RECOG_CONF	n/a	LTP142	ltpFR	2	1	1	HUSBAND	728	5	1	n/a	n/a	n/a	n/a	n/a
2996206	RECOG_LURE	n/a	LTP142	ltpFR	2	1	n/a	INVENTOR	743	3	n/a	n/a	n/a	n/a	n/a	n/a
2997166	RECOG_RESP	n/a	LTP142	ltpFR	2	1	n/a	INVENTOR	743	n/a	n/a	n/a	n/a	n/a	n/a	n/a
2998841	RECOG_CONF	n/a	LTP142	ltpFR	2	1	n/a	INVENTOR	743	3	n/a	n/a	n/a	n/a	n/a	n/a
3000584	RECOG_TARGET	n/a	LTP142	ltpFR	2	1	1	CARPENTER	246	2	1	n/a	n/a	n/a	n/a	n/a
3001938	RECOG_RESP	n/a	LTP142	ltpFR	2	1	1	CARPENTER	246	n/a	1	n/a	n/a	n/a	n/a	n/a
3003980	RECOG_CONF	n/a	LTP142	ltpFR	2	1	1	CARPENTER	246	2	1	n/a	n/a	n/a	n/a	n/a
3005570	RECOG_TARGET	n/a	LTP142	ltpFR	2	1	1	BUCKLE	185	1	0	n/a	n/a	n/a	n/a	n/a
3007505	RECOG_RESP	n/a	LTP142	ltpFR	2	1	1	BUCKLE	185	n/a	0	n/a	n/a	n/a	n/a	n/a
3009218	RECOG_CONF	n/a	LTP142	ltpFR	2	1	1	BUCKLE	185	1	0	n/a	n/a	n/a	n/a	n/a
3010980	RECOG_TARGET	n/a	LTP142	ltpFR	2	1	1	CATCHER	258	5	0	n/a	n/a	n/a	n/a	n/a
3012399	RECOG_RESP	n/a	LTP142	ltpFR	2	1	1	CATCHER	258	n/a	0	n/a	n/a	n/a	n/a	n/a
3013977	RECOG_CONF	n/a	LTP142	ltpFR	2	1	1	CATCHER	258	5	0	n/a	n/a	n/a	n/a	n/a
3015700	RECOG_TARGET	n/a	LTP142	ltpFR	2	1	0	CONE	363	4	0	n/a	n/a	n/a	n/a	n/a
3016848	RECOG_RESP	n/a	LTP142	ltpFR	2	1	0	CONE	363	n/a	0	n/a	n/a	n/a	n/a	n/a
3018347	RECOG_CONF	n/a	LTP142	ltpFR	2	1	0	CONE	363	4	0	n/a	n/a	n/a	n/a	n/a
3020211	RECOG_LURE	n/a	LTP142	ltpFR	2	1	n/a	SAGE	1222	2	n/a	n/a	n/a	n/a	n/a	n/a
3021746	RECOG_RESP	n/a	LTP142	ltpFR	2	1	n/a	SAGE	1222	n/a	n/a	n/a	n/a	n/a	n/a	n/a
3022989	RECOG_CONF	n/a	LTP142	ltpFR	2	1	n/a	SAGE	1222	2	n/a	n/a	n/a	n/a	n/a	n/a
3024631	RECOG_TARGET	n/a	LTP142	ltpFR	2	1	-1	EMPIRE	530	5	-1	n/a	n/a	n/a	n/a	n/a
3025502	RECOG_RESP	n/a	LTP142	ltpFR	2	1	-1	EMPIRE	530	n/a	-1	n/a	n/a	n/a	n/a	n/a
3027037	RECOG_CONF	n/a	LTP142	ltpFR	2	1	-1	EMPIRE	530	5	-1	n/a	n/a	n/a	n/a	n/a
3028593	RECOG_TARGET	n/a	LTP142	ltpFR	2	1	-1	VIRUS	1572	5	-1	n/a	n/a	n/a	n/a	n/a
3029403	RECOG_RESP	n/a	LTP142	ltpFR	2	1	-1	VIRUS	1572	n/a	-1	n/a	n/a	n/a	n/a	n/a
3030988	RECOG_CONF	n/a	LTP142	ltpFR	2	1	-1	VIRUS	1572	5	-1	n/a	n/a	n/a	n/a	n/a
3032530	RECOG_TARGET	n/a	LTP142	ltpFR	2	1	0	SURGEON	1413	5	1	n/a	n/a	n/a	n/a	n/a
3033282	RECOG_RESP	n/a	LTP142	ltpFR	2	1	0	SURGEON	1413	n/a	1	n/a	n/a	n/a	n/a	n/a
3034916	RECOG_CONF	n/a	LTP142	ltpFR	2	1	0	SURGEON	1413	5	1	n/a	n/a	n/a	n/a	n/a
3036551	RECOG_TARGET	n/a	LTP142	ltpFR	2	1	1	SERPENT	1270	5	1	n/a	n/a	n/a	n/a	n/a
3037118	RECOG_RESP	n/a	LTP142	ltpFR	2	1	1	SERPENT	1270	n/a	1	n/a	n/a	n/a	n/a	n/a
3038756	RECOG_CONF	n/a	LTP142	ltpFR	2	1	1	SERPENT	1270	5	1	n/a	n/a	n/a	n/a	n/a
3040255	RECOG_LURE	n/a	LTP142	ltpFR	2	1	n/a	VELVET	1555	2	n/a	n/a	n/a	n/a	n/a	n/a
3041503	RECOG_RESP	n/a	LTP142	ltpFR	2	1	n/a	VELVET	1555	n/a	n/a	n/a	n/a	n/a	n/a	n/a
3042852	RECOG_CONF	n/a	LTP142	ltpFR	2	1	n/a	VELVET	1555	2	n/a	n/a	n/a	n/a	n/a	n/a
3044343	RECOG_TARGET	n/a	LTP142	ltpFR	2	1	1	MARKET	871	1	0	n/a	n/a	n/a	n/a	n/a
3046754	RECOG_RESP	n/a	LTP142	ltpFR	2	1	1	MARKET	871	n/a	0	n/a	n/a	n/a	n/a	n/a
3047950	RECOG_CONF	n/a	LTP142	ltpFR	2	1	1	MARKET	871	1	0	n/a	n/a	n/a	n/a	n/a
3049544	RECOG_TARGET	n/a	LTP142	ltpFR	2	1	1	FOLDER	588	2	0	n/a	n/a	n/a	n/a	n/a
3050382	RECOG_RESP	n/a	LTP142	ltpFR	2	1	1	FOLDER	588	n/a	0	n/a	n/a	n/a	n/a	n/a
3051689	RECOG_CONF	n/a	LTP142	ltpFR	2	1	1	FOLDER	588	2	0	n/a	n/a	n/a	n/a	n/a
3053281	RECOG_TARGET	n/a	LTP142	ltpFR	2	1	1	ANTEATER	26	5	0	n/a	n/a	n/a	n/a	n/a
3054079	RECOG_RESP	n/a	LTP142	ltpFR	2	1	1	ANTEATER	26	n/a	0	n/a	n/a	n/a	n/a	n/a
3055471	RECOG_CONF	n/a	LTP142	ltpFR	2	1	1	ANTEATER	26	5	0	n/a	n/a	n/a	n/a	n/a
3057044	RECOG_TARGET	n/a	LTP142	ltpFR	2	1	-1	BRIEFCASE	175	5	-1	n/a	n/a	n/a	n/a	n/a
3057776	RECOG_RESP	n/a	LTP142	ltpFR	2	1	-1	BRIEFCASE	175	n/a	-1	n/a	n/a	n/a	n/a	n/a
3059180	RECOG_CONF	n/a	LTP142	ltpFR	2	1	-1	BRIEFCASE	175	5	-1	n/a	n/a	n/a	n/a	n/a
3060856	RECOG_LURE	n/a	LTP142	ltpFR	2	1	n/a	DANDELION	438	3	n/a	n/a	n/a	n/a	n/a	n/a
3061823	RECOG_RESP	n/a	LTP142	ltpFR	2	1	n/a	DANDELION	438	n/a	n/a	n/a	n/a	n/a	n/a	n/a
3063159	RECOG_CONF	n/a	LTP142	ltpFR	2	1	n/a	DANDELION	438	3	n/a	n/a	n/a	n/a	n/a	n/a
3064818	RECOG_LURE	n/a	LTP142	ltpFR	2	1	n/a	BOUQUET	157	3	n/a	n/a	n/a	n/a	n/a	n/a
3065791	RECOG_RESP	n/a	LTP142	ltpFR	2	1	n/a	BOUQUET	157	n/a	n/a	n/a	n/a	n/a	n/a	n/a
3067107	RECOG_CONF	n/a	LTP142	ltpFR	2	1	n/a	BOUQUET	157	3	n/a	n/a	n/a	n/a	n/a	n/a
3068688	RECOG_TARGET	n/a	LTP142	ltpFR	2	1	0	RAFT	1159	5	1	n/a	n/a	n/a	n/a	n/a
3069472	RECOG_RESP	n/a	LTP142	ltpFR	2	1	0	RAFT	1159	n/a	1	n/a	n/a	n/a	n/a	n/a
3070842	RECOG_CONF	n/a	LTP142	ltpFR	2	1	0	RAFT	1159	5	1	n/a	n/a	n/a	n/a	n/a
3076088	REC_START	n/a	LTP142	ltpFR	2	2	n/a	n/a	n/a	n/a	n/a	n/a	n/a	n/a	n/a	n/a
3076113	RECOG_LURE	n/a	LTP142	ltpFR	2	2	n/a	STY	1397	2	n/a	n/a	n/a	n/a	n/a	n/a
3077841	RECOG_RESP	n/a	LTP142	ltpFR	2	2	n/a	STY	1397	n/a	n/a	n/a	n/a	n/a	n/a	n/a
3078984	RECOG_CONF	n/a	LTP142	ltpFR	2	2	n/a	STY	1397	2	n/a	n/a	n/a	n/a	n/a	n/a
3080633	RECOG_LURE	n/a	LTP142	ltpFR	2	2	n/a	BOUILLON	154	4	n/a	n/a	n/a	n/a	n/a	n/a
3081603	RECOG_RESP	n/a	LTP142	ltpFR	2	2	n/a	BOUILLON	154	n/a	n/a	n/a	n/a	n/a	n/a	n/a
3083107	RECOG_CONF	n/a	LTP142	ltpFR	2	2	n/a	BOUILLON	154	4	n/a	n/a	n/a	n/a	n/a	n/a
3084695	RECOG_TARGET	n/a	LTP142	ltpFR	2	2	1	SHOULDER	1294	5	0	n/a	n/a	n/a	n/a	n/a
3085463	RECOG_RESP	n/a	LTP142	ltpFR	2	2	1	SHOULDER	1294	n/a	0	n/a	n/a	n/a	n/a	n/a
3086869	RECOG_CONF	n/a	LTP142	ltpFR	2	2	1	SHOULDER	1294	5	0	n/a	n/a	n/a	n/a	n/a
3088624	RECOG_TARGET	n/a	LTP142	ltpFR	2	2	1	CITY	314	3	0	n/a	n/a	n/a	n/a	n/a
3089653	RECOG_RESP	n/a	LTP142	ltpFR	2	2	1	CITY	314	n/a	0	n/a	n/a	n/a	n/a	n/a
3091059	RECOG_CONF	n/a	LTP142	ltpFR	2	2	1	CITY	314	3	0	n/a	n/a	n/a	n/a	n/a
3092669	RECOG_TARGET	n/a	LTP142	ltpFR	2	2	0	KEEPER	769	5	1	n/a	n/a	n/a	n/a	n/a
3093490	RECOG_RESP	n/a	LTP142	ltpFR	2	2	0	KEEPER	769	n/a	1	n/a	n/a	n/a	n/a	n/a
3094880	RECOG_CONF	n/a	LTP142	ltpFR	2	2	0	KEEPER	769	5	1	n/a	n/a	n/a	n/a	n/a
3096440	RECOG_TARGET	n/a	LTP142	ltpFR	2	2	-1	PUBLICATION	1136	5	-1	n/a	n/a	n/a	n/a	n/a
3097310	RECOG_RESP	n/a	LTP142	ltpFR	2	2	-1	PUBLICATION	1136	n/a	-1	n/a	n/a	n/a	n/a	n/a
3098759	RECOG_CONF	n/a	LTP142	ltpFR	2	2	-1	PUBLICATION	1136	5	-1	n/a	n/a	n/a	n/a	n/a
3100368	RECOG_TARGET	n/a	LTP142	ltpFR	2	2	1	CHEST	295	2	0	n/a	n/a	n/a	n/a	n/a
3101224	RECOG_RESP	n/a	LTP142	ltpFR	2	2	1	CHEST	295	n/a	0	n/a	n/a	n/a	n/a	n/a
3102882	RECOG_CONF	n/a	LTP142	ltpFR	2	2	1	CHEST	295	2	0	n/a	n/a	n/a	n/a	n/a
3104414	RECOG_TARGET	n/a	LTP142	ltpFR	2	2	1	QUAIL	1147	5	1	n/a	n/a	n/a	n/a	n/a
3105159	RECOG_RESP	n/a	LTP142	ltpFR	2	2	1	QUAIL	1147	n/a	1	n/a	n/a	n/a	n/a	n/a
3106596	RECOG_CONF	n/a	LTP142	ltpFR	2	2	1	QUAIL	1147	5	1	n/a	n/a	n/a	n/a	n/a
3108176	RECOG_TARGET	n/a	LTP142	ltpFR	2	2	1	CHAMPAGNE	278	2	0	n/a	n/a	n/a	n/a	n/a
3108970	RECOG_RESP	n/a	LTP142	ltpFR	2	2	1	CHAMPAGNE	278	n/a	0	n/a	n/a	n/a	n/a	n/a
3110323	RECOG_CONF	n/a	LTP142	ltpFR	2	2	1	CHAMPAGNE	278	2	0	n/a	n/a	n/a	n/a	n/a
3111880	RECOG_LURE	n/a	LTP142	ltpFR	2	2	n/a	DRILL	497	3	n/a	n/a	n/a	n/a	n/a	n/a
3112812	RECOG_RESP	n/a	LTP142	ltpFR	2	2	n/a	DRILL	497	n/a	n/a	n/a	n/a	n/a	n/a	n/a
3114115	RECOG_CONF	n/a	LTP142	ltpFR	2	2	n/a	DRILL	497	3	n/a	n/a	n/a	n/a	n/a	n/a
3115742	RECOG_TARGET	n/a	LTP142	ltpFR	2	2	-1	POLYESTER	1100	5	-1	n/a	n/a	n/a	n/a	n/a
3116500	RECOG_RESP	n/a	LTP142	ltpFR	2	2	-1	POLYESTER	1100	n/a	-1	n/a	n/a	n/a	n/a	n/a
3117938	RECOG_CONF	n/a	LTP142	ltpFR	2	2	-1	POLYESTER	1100	5	-1	n/a	n/a	n/a	n/a	n/a
3119405	RECOG_TARGET	n/a	LTP142	ltpFR	2	2	1	SPONGE	1355	5	0	n/a	n/a	n/a	n/a	n/a
3120105	RECOG_RESP	n/a	LTP142	ltpFR	2	2	1	SPONGE	1355	n/a	0	n/a	n/a	n/a	n/a	n/a
3121550	RECOG_CONF	n/a	LTP142	ltpFR	2	2	1	SPONGE	1355	5	0	n/a	n/a	n/a	n/a	n/a
3123075	RECOG_TARGET	n/a	LTP142	ltpFR	2	2	0	FATHER	554	5	1	n/a	n/a	n/a	n/a	n/a
3123821	RECOG_RESP	n/a	LTP142	ltpFR	2	2	0	FATHER	554	n/a	1	n/a	n/a	n/a	n/a	n/a
3125310	RECOG_CONF	n/a	LTP142	ltpFR	2	2	0	FATHER	554	5	1	n/a	n/a	n/a	n/a	n/a
3127137	RECOG_LURE	n/a	LTP142	ltpFR	2	2	n/a	TIE	1466	2	n/a	n/a	n/a	n/a	n/a	n/a
3128514	RECOG_RESP	n/a	LTP142	ltpFR	2	2	n/a	TIE	1466	n/a	n/a	n/a	n/a	n/a	n/a	n/a
3129696	RECOG_CONF	n/a	LTP142	ltpFR	2	2	n/a	TIE	1466	2	n/a	n/a	n/a	n/a	n/a	n/a
3131317	RECOG_LURE	n/a	LTP142	ltpFR	2	2	n/a	DIARY	460	5	n/a	n/a	n/a	n/a	n/a	n/a
3132112	RECOG_RESP	n/a	LTP142	ltpFR	2	2	n/a	DIARY	460	n/a	n/a	n/a	n/a	n/a	n/a	n/a
3133370	RECOG_CONF	n/a	LTP142	ltpFR	2	2	n/a	DIARY	460	5	n/a	n/a	n/a	n/a	n/a	n/a
3134937	RECOG_TARGET	n/a	LTP142	ltpFR	2	2	-1	SKYSCRAPER	1322	5	-1	n/a	n/a	n/a	n/a	n/a
3135708	RECOG_RESP	n/a	LTP142	ltpFR	2	2	-1	SKYSCRAPER	1322	n/a	-1	n/a	n/a	n/a	n/a	n/a
3137009	RECOG_CONF	n/a	LTP142	ltpFR	2	2	-1	SKYSCRAPER	1322	5	-1	n/a	n/a	n/a	n/a	n/a
3138674	RECOG_TARGET	n/a	LTP142	ltpFR	2	2	1	CHIP	303	5	0	n/a	n/a	n/a	n/a	n/a
3139371	RECOG_RESP	n/a	LTP142	ltpFR	2	2	1	CHIP	303	n/a	0	n/a	n/a	n/a	n/a	n/a
3140730	RECOG_CONF	n/a	LTP142	ltpFR	2	2	1	CHIP	303	5	0	n/a	n/a	n/a	n/a	n/a
3142287	RECOG_LURE	n/a	LTP142	ltpFR	2	2	n/a	TANK	1432	2	n/a	n/a	n/a	n/a	n/a	n/a
3143155	RECOG_RESP	n/a	LTP142	ltpFR	2	2	n/a	TANK	1432	n/a	n/a	n/a	n/a	n/a	n/a	n/a
3144755	RECOG_CONF	n/a	LTP142	ltpFR	2	2	n/a	TANK	1432	2	n/a	n/a	n/a	n/a	n/a	n/a
3146316	RECOG_LURE	n/a	LTP142	ltpFR	2	2	n/a	THRONE	1461	3	n/a	n/a	n/a	n/a	n/a	n/a
3147857	RECOG_RESP	n/a	LTP142	ltpFR	2	2	n/a	THRONE	1461	n/a	n/a	n/a	n/a	n/a	n/a	n/a
3149072	RECOG_CONF	n/a	LTP142	ltpFR	2	2	n/a	THRONE	1461	3	n/a	n/a	n/a	n/a	n/a	n/a
3150635	RECOG_TARGET	n/a	LTP142	ltpFR	2	2	0	ARENA	37	4	1	n/a	n/a	n/a	n/a	n/a
3151581	RECOG_RESP	n/a	LTP142	ltpFR	2	2	0	ARENA	37	n/a	1	n/a	n/a	n/a	n/a	n/a
3152984	RECOG_CONF	n/a	LTP142	ltpFR	2	2	0	ARENA	37	4	1	n/a	n/a	n/a	n/a	n/a
3156893	REC_START	n/a	LTP142	ltpFR	2	3	n/a	n/a	n/a	n/a	n/a	n/a	n/a	n/a	n/a	n/a
3156920	RECOG_TARGET	n/a	LTP142	ltpFR	2	3	1	MOAT	903	5	0	n/a	n/a	n/a	n/a	n/a
3157745	RECOG_RESP	n/a	LTP142	ltpFR	2	3	1	MOAT	903	n/a	0	n/a	n/a	n/a	n/a	n/a
3158989	RECOG_CONF	n/a	LTP142	ltpFR	2	3	1	MOAT	903	5	0	n/a	n/a	n/a	n/a	n/a
3160698	RECOG_TARGET	n/a	LTP142	ltpFR	2	3	-1	HOSPITAL	721	4	-1	n/a	n/a	n/a	n/a	n/a
3161915	RECOG_RESP	n/a	LTP142	ltpFR	2	3	-1	HOSPITAL	721	n/a	-1	n/a	n/a	n/a	n/a	n/a
3163028	RECOG_CONF	n/a	LTP142	ltpFR	2	3	-1	HOSPITAL	721	4	-1	n/a	n/a	n/a	n/a	n/a
3164527	RECOG_TARGET	n/a	LTP142	ltpFR	2	3	0	SNAKE	1333	1	1	n/a	n/a	n/a	n/a	n/a
3166064	RECOG_RESP	n/a	LTP142	ltpFR	2	3	0	SNAKE	1333	n/a	1	n/a	n/a	n/a	n/a	n/a
3167471	RECOG_CONF	n/a	LTP142	ltpFR	2	3	0	SNAKE	1333	1	1	n/a	n/a	n/a	n/a	n/a
3168906	RECOG_LURE	n/a	LTP142	ltpFR	2	3	n/a	SCROLL	1257	4	n/a	n/a	n/a	n/a	n/a	n/a
3169672	RECOG_RESP	n/a	LTP142	ltpFR	2	3	n/a	SCROLL	1257	n/a	n/a	n/a	n/a	n/a	n/a	n/a
3171735	RECOG_CONF	n/a	LTP142	ltpFR	2	3	n/a	SCROLL	1257	4	n/a	n/a	n/a	n/a	n/a	n/a
3173276	RECOG_TARGET	n/a	LTP142	ltpFR	2	3	-1	ROSE	1212	5	-1	n/a	n/a	n/a	n/a	n/a
3174091	RECOG_RESP	n/a	LTP142	ltpFR	2	3	-1	ROSE	1212	n/a	-1	n/a	n/a	n/a	n/a	n/a
3175396	RECOG_CONF	n/a	LTP142	ltpFR	2	3	-1	ROSE	1212	5	-1	n/a	n/a	n/a	n/a	n/a
3176921	RECOG_LURE	n/a	LTP142	ltpFR	2	3	n/a	PRINCE	1124	2	n/a	n/a	n/a	n/a	n/a	n/a
3178251	RECOG_RESP	n/a	LTP142	ltpFR	2	3	n/a	PRINCE	1124	n/a	n/a	n/a	n/a	n/a	n/a	n/a
3179472	RECOG_CONF	n/a	LTP142	ltpFR	2	3	n/a	PRINCE	1124	2	n/a	n/a	n/a	n/a	n/a	n/a
3181058	RECOG_TARGET	n/a	LTP142	ltpFR	2	3	0	WINDOW	1611	5	1	n/a	n/a	n/a	n/a	n/a
3181891	RECOG_RESP	n/a	LTP142	ltpFR	2	3	0	WINDOW	1611	n/a	1	n/a	n/a	n/a	n/a	n/a
3183457	RECOG_CONF	n/a	LTP142	ltpFR	2	3	0	WINDOW	1611	5	1	n/a	n/a	n/a	n/a	n/a
3184979	RECOG_LURE	n/a	LTP142	ltpFR	2	3	n/a	JACKET	747	4	n/a	n/a	n/a	n/a	n/a	n/a
3186000	RECOG_RESP	n/a	LTP142	ltpFR	2	3	n/a	JACKET	747	n/a	n/a	n/a	n/a	n/a	n/a	n/a
3187369	RECOG_CONF	n/a	LTP142	ltpFR	2	3	n/a	JACKET	747	4	n/a	n/a	n/a	n/a	n/a	n/a
3188941	RECOG_TARGET	n/a	LTP142	ltpFR	2	3	0	CAMERA	224	4	0	n/a	n/a	n/a	n/a	n/a
3190364	RECOG_RESP	n/a	LTP142	ltpFR	2	3	0	CAMERA	224	n/a	0	n/a	n/a	n/a	n/a	n/a
3191749	RECOG_CONF	n/a	LTP142	ltpFR	2	3	0	CAMERA	224	4	0	n/a	n/a	n/a	n/a	n/a
3193252	RECOG_LURE	n/a	LTP142	ltpFR	2	3	n/a	OMELET	976	3	n/a	n/a	n/a	n/a	n/a	n/a
3194266	RECOG_RESP	n/a	LTP142	ltpFR	2	3	n/a	OMELET	976	n/a	n/a	n/a	n/a	n/a	n/a	n/a
3195560	RECOG_CONF	n/a	LTP142	ltpFR	2	3	n/a	OMELET	976	3	n/a	n/a	n/a	n/a	n/a	n/a
3197148	RECOG_TARGET	n/a	LTP142	ltpFR	2	3	1	CHECKERS	285	5	0	n/a	n/a	n/a	n/a	n/a
3197925	RECOG_RESP	n/a	LTP142	ltpFR	2	3	1	CHECKERS	285	n/a	0	n/a	n/a	n/a	n/a	n/a
3199140	RECOG_CONF	n/a	LTP142	ltpFR	2	3	1	CHECKERS	285	5	0	n/a	n/a	n/a	n/a	n/a
3200694	RECOG_LURE	n/a	LTP142	ltpFR	2	3	n/a	MARKER	870	4	n/a	n/a	n/a	n/a	n/a	n/a
3201813	RECOG_RESP	n/a	LTP142	ltpFR	2	3	n/a	MARKER	870	n/a	n/a	n/a	n/a	n/a	n/a	n/a
3203013	RECOG_CONF	n/a	LTP142	ltpFR	2	3	n/a	MARKER	870	4	n/a	n/a	n/a	n/a	n/a	n/a
3204523	RECOG_LURE	n/a	LTP142	ltpFR	2	3	n/a	MACHINE	852	3	n/a	n/a	n/a	n/a	n/a	n/a
3205438	RECOG_RESP	n/a	LTP142	ltpFR	2	3	n/a	MACHINE	852	n/a	n/a	n/a	n/a	n/a	n/a	n/a
3206832	RECOG_CONF	n/a	LTP142	ltpFR	2	3	n/a	MACHINE	852	3	n/a	n/a	n/a	n/a	n/a	n/a
3208418	RECOG_LURE	n/a	LTP142	ltpFR	2	3	n/a	TUNNEL	1519	2	n/a	n/a	n/a	n/a	n/a	n/a
3209308	RECOG_RESP	n/a	LTP142	ltpFR	2	3	n/a	TUNNEL	1519	n/a	n/a	n/a	n/a	n/a	n/a	n/a
3210502	RECOG_CONF	n/a	LTP142	ltpFR	2	3	n/a	TUNNEL	1519	2	n/a	n/a	n/a	n/a	n/a	n/a
3212014	RECOG_TARGET	n/a	LTP142	ltpFR	2	3	-1	BARLEY	88	5	-1	n/a	n/a	n/a	n/a	n/a
3212697	RECOG_RESP	n/a	LTP142	ltpFR	2	3	-1	BARLEY	88	n/a	-1	n/a	n/a	n/a	n/a	n/a
3214144	RECOG_CONF	n/a	LTP142	ltpFR	2	3	-1	BARLEY	88	5	-1	n/a	n/a	n/a	n/a	n/a
3215801	RECOG_TARGET	n/a	LTP142	ltpFR	2	3	0	FRIES	607	2	0	n/a	n/a	n/a	n/a	n/a
3217263	RECOG_RESP	n/a	LTP142	ltpFR	2	3	0	FRIES	607	n/a	0	n/a	n/a	n/a	n/a	n/a
3218446	RECOG_CONF	n/a	LTP142	ltpFR	2	3	0	FRIES	607	2	0	n/a	n/a	n/a	n/a	n/a
3220080	RECOG_TARGET	n/a	LTP142	ltpFR	2	3	-1	WHEAT	1602	1	-1	n/a	n/a	n/a	n/a	n/a
3221252	RECOG_RESP	n/a	LTP142	ltpFR	2	3	-1	WHEAT	1602	n/a	-1	n/a	n/a	n/a	n/a	n/a
3222492	RECOG_CONF	n/a	LTP142	ltpFR	2	3	-1	WHEAT	1602	1	-1	n/a	n/a	n/a	n/a	n/a
3224225	RECOG_TARGET	n/a	LTP142	ltpFR	2	3	-1	PAWN	1030	5	-1	n/a	n/a	n/a	n/a	n/a
3224947	RECOG_RESP	n/a	LTP142	ltpFR	2	3	-1	PAWN	1030	n/a	-1	n/a	n/a	n/a	n/a	n/a
3226249	RECOG_CONF	n/a	LTP142	ltpFR	2	3	-1	PAWN	1030	5	-1	n/a	n/a	n/a	n/a	n/a
3227771	RECOG_TARGET	n/a	LTP142	ltpFR	2	3	0	MOOSE	915	5	1	n/a	n/a	n/a	n/a	n/a
3228542	RECOG_RESP	n/a	LTP142	ltpFR	2	3	0	MOOSE	915	n/a	1	n/a	n/a	n/a	n/a	n/a
3229842	RECOG_CONF	n/a	LTP142	ltpFR	2	3	0	MOOSE	915	5	1	n/a	n/a	n/a	n/a	n/a
3231258	RECOG_TARGET	n/a	LTP142	ltpFR	2	3	0	THUMB	1462	1	0	n/a	n/a	n/a	n/a	n/a
3232796	RECOG_RESP	n/a	LTP142	ltpFR	2	3	0	THUMB	1462	n/a	0	n/a	n/a	n/a	n/a	n/a
3234040	RECOG_CONF	n/a	LTP142	ltpFR	2	3	0	THUMB	1462	1	0	n/a	n/a	n/a	n/a	n/a
3237625	REC_START	n/a	LTP142	ltpFR	2	4	n/a	n/a	n/a	n/a	n/a	n/a	n/a	n/a	n/a	n/a
3237651	RECOG_TARGET	n/a	LTP142	ltpFR	2	4	-1	JAR	750	5	-1	n/a	n/a	n/a	n/a	n/a
3238484	RECOG_RESP	n/a	LTP142	ltpFR	2	4	-1	JAR	750	n/a	-1	n/a	n/a	n/a	n/a	n/a
3239940	RECOG_CONF	n/a	LTP142	ltpFR	2	4	-1	JAR	750	5	-1	n/a	n/a	n/a	n/a	n/a
3241363	RECOG_LURE	n/a	LTP142	ltpFR	2	4	n/a	REBEL	1172	5	n/a	n/a	n/a	n/a	n/a	n/a
3242139	RECOG_RESP	n/a	LTP142	ltpFR	2	4	n/a	REBEL	1172	n/a	n/a	n/a	n/a	n/a	n/a	n/a
3243679	RECOG_CONF	n/a	LTP142	ltpFR	2	4	n/a	REBEL	1172	5	n/a	n/a	n/a	n/a	n/a	n/a
3245301	RECOG_TARGET	n/a	LTP142	ltpFR	2	4	1	MOUNTAIN	924	5	1	n/a	n/a	n/a	n/a	n/a
3246279	RECOG_RESP	n/a	LTP142	ltpFR	2	4	1	MOUNTAIN	924	n/a	1	n/a	n/a	n/a	n/a	n/a
3247662	RECOG_CONF	n/a	LTP142	ltpFR	2	4	1	MOUNTAIN	924	5	1	n/a	n/a	n/a	n/a	n/a
3249479	RECOG_TARGET	n/a	LTP142	ltpFR	2	4	0	CAB	209	4	1	n/a	n/a	n/a	n/a	n/a
3250457	RECOG_RESP	n/a	LTP142	ltpFR	2	4	0	CAB	209	n/a	1	n/a	n/a	n/a	n/a	n/a
3251740	RECOG_CONF	n/a	LTP142	ltpFR	2	4	0	CAB	209	4	1	n/a	n/a	n/a	n/a	n/a
3253258	RECOG_LURE	n/a	LTP142	ltpFR	2	4	n/a	BASSINET	97	2	n/a	n/a	n/a	n/a	n/a	n/a
3255428	RECOG_RESP	n/a	LTP142	ltpFR	2	4	n/a	BASSINET	97	n/a	n/a	n/a	n/a	n/a	n/a	n/a
3256694	RECOG_CONF	n/a	LTP142	ltpFR	2	4	n/a	BASSINET	97	2	n/a	n/a	n/a	n/a	n/a	n/a
3258244	RECOG_TARGET	n/a	LTP142	ltpFR	2	4	1	MULE	931	1	1	n/a	n/a	n/a	n/a	n/a
3259494	RECOG_RESP	n/a	LTP142	ltpFR	2	4	1	MULE	931	n/a	1	n/a	n/a	n/a	n/a	n/a
3260928	RECOG_CONF	n/a	LTP142	ltpFR	2	4	1	MULE	931	1	1	n/a	n/a	n/a	n/a	n/a
3262397	RECOG_TARGET	n/a	LTP142	ltpFR	2	4	1	ERASER	538	5	0	n/a	n/a	n/a	n/a	n/a
3263226	RECOG_RESP	n/a	LTP142	ltpFR	2	4	1	ERASER	538	n/a	0	n/a	n/a	n/a	n/a	n/a
3264725	RECOG_CONF	n/a	LTP142	ltpFR	2	4	1	ERASER	538	5	0	n/a	n/a	n/a	n/a	n/a
3266468	RECOG_LURE	n/a	LTP142	ltpFR	2	4	n/a	SAILOR	1223	2	n/a	n/a	n/a	n/a	n/a	n/a
3267712	RECOG_RESP	n/a	LTP142	ltpFR	2	4	n/a	SAILOR	1223	n/a	n/a	n/a	n/a	n/a	n/a	n/a
3268895	RECOG_CONF	n/a	LTP142	ltpFR	2	4	n/a	SAILOR	1223	2	n/a	n/a	n/a	n/a	n/a	n/a
3270488	RECOG_TARGET	n/a	LTP142	ltpFR	2	4	0	CHILD	299	1	1	n/a	n/a	n/a	n/a	n/a
3271755	RECOG_RESP	n/a	LTP142	ltpFR	2	4	0	CHILD	299	n/a	1	n/a	n/a	n/a	n/a	n/a
3272936	RECOG_CONF	n/a	LTP142	ltpFR	2	4	0	CHILD	299	1	1	n/a	n/a	n/a	n/a	n/a
3274592	RECOG_TARGET	n/a	LTP142	ltpFR	2	4	1	DOVE	491	5	1	n/a	n/a	n/a	n/a	n/a
3275342	RECOG_RESP	n/a	LTP142	ltpFR	2	4	1	DOVE	491	n/a	1	n/a	n/a	n/a	n/a	n/a
3276764	RECOG_CONF	n/a	LTP142	ltpFR	2	4	1	DOVE	491	5	1	n/a	n/a	n/a	n/a	n/a
3278305	RECOG_TARGET	n/a	LTP142	ltpFR	2	4	0	DIRECTOR	471	4	1	n/a	n/a	n/a	n/a	n/a
3279315	RECOG_RESP	n/a	LTP142	ltpFR	2	4	0	DIRECTOR	471	n/a	1	n/a	n/a	n/a	n/a	n/a
3280505	RECOG_CONF	n/a	LTP142	ltpFR	2	4	0	DIRECTOR	471	4	1	n/a	n/a	n/a	n/a	n/a
3281966	RECOG_TARGET	n/a	LTP142	ltpFR	2	4	-1	BUTCHER	203	5	-1	n/a	n/a	n/a	n/a	n/a
3282757	RECOG_RESP	n/a	LTP142	ltpFR	2	4	-1	BUTCHER	203	n/a	-1	n/a	n/a	n/a	n/a	n/a
3284114	RECOG_CONF	n/a	LTP142	ltpFR	2	4	-1	BUTCHER	203	5	-1	n/a	n/a	n/a	n/a	n/a
3285596	RECOG_TARGET	n/a	LTP142	ltpFR	2	4	1	MEADOW	881	5	0	n/a	n/a	n/a	n/a	n/a
3286241	RECOG_RESP	n/a	LTP142	ltpFR	2	4	1	MEADOW	881	n/a	0	n/a	n/a	n/a	n/a	n/a
3287656	RECOG_CONF	n/a	LTP142	ltpFR	2	4	1	MEADOW	881	5	0	n/a	n/a	n/a	n/a	n/a
3289133	RECOG_TARGET	n/a	LTP142	ltpFR	2	4	-1	PASTA	1021	5	-1	n/a	n/a	n/a	n/a	n/a
3289811	RECOG_RESP	n/a	LTP142	ltpFR	2	4	-1	PASTA	1021	n/a	-1	n/a	n/a	n/a	n/a	n/a
3291114	RECOG_CONF	n/a	LTP142	ltpFR	2	4	-1	PASTA	1021	5	-1	n/a	n/a	n/a	n/a	n/a
3292671	RECOG_TARGET	n/a	LTP142	ltpFR	2	4	-1	DETERGENT	455	5	-1	n/a	n/a	n/a	n/a	n/a
3293441	RECOG_RESP	n/a	LTP142	ltpFR	2	4	-1	DETERGENT	455	n/a	-1	n/a	n/a	n/a	n/a	n/a
3294890	RECOG_CONF	n/a	LTP142	ltpFR	2	4	-1	DETERGENT	455	5	-1	n/a	n/a	n/a	n/a	n/a
3296334	RECOG_LURE	n/a	LTP142	ltpFR	2	4	n/a	KING	777	2	n/a	n/a	n/a	n/a	n/a	n/a
3297661	RECOG_RESP	n/a	LTP142	ltpFR	2	4	n/a	KING	777	n/a	n/a	n/a	n/a	n/a	n/a	n/a
3298750	RECOG_CONF	n/a	LTP142	ltpFR	2	4	n/a	KING	777	2	n/a	n/a	n/a	n/a	n/a	n/a
3300304	RECOG_LURE	n/a	LTP142	ltpFR	2	4	n/a	MOON	914	1	n/a	n/a	n/a	n/a	n/a	n/a
3301340	RECOG_RESP	n/a	LTP142	ltpFR	2	4	n/a	MOON	914	n/a	n/a	n/a	n/a	n/a	n/a	n/a
3302662	RECOG_CONF	n/a	LTP142	ltpFR	2	4	n/a	MOON	914	1	n/a	n/a	n/a	n/a	n/a	n/a
3304132	RECOG_TARGET	n/a	LTP142	ltpFR	2	4	0	FARM	552	3	1	n/a	n/a	n/a	n/a	n/a
3304881	RECOG_RESP	n/a	LTP142	ltpFR	2	4	0	FARM	552	n/a	1	n/a	n/a	n/a	n/a	n/a
3306194	RECOG_CONF	n/a	LTP142	ltpFR	2	4	0	FARM	552	3	1	n/a	n/a	n/a	n/a	n/a
3307695	RECOG_TARGET	n/a	LTP142	ltpFR	2	4	0	EWE	542	5	1	n/a	n/a	n/a	n/a	n/a
3308465	RECOG_RESP	n/a	LTP142	ltpFR	2	4	0	EWE	542	n/a	1	n/a	n/a	n/a	n/a	n/a
3309896	RECOG_CONF	n/a	LTP142	ltpFR	2	4	0	EWE	542	5	1	n/a	n/a	n/a	n/a	n/a
3311282	RECOG_TARGET	n/a	LTP142	ltpFR	2	4	0	WINDSHIELD	1612	5	1	n/a	n/a	n/a	n/a	n/a
3311947	RECOG_RESP	n/a	LTP142	ltpFR	2	4	0	WINDSHIELD	1612	n/a	1	n/a	n/a	n/a	n/a	n/a
3313212	RECOG_CONF	n/a	LTP142	ltpFR	2	4	0	WINDSHIELD	1612	5	1	n/a	n/a	n/a	n/a	n/a
3321000	REC_START	n/a	LTP142	ltpFR	2	5	n/a	n/a	n/a	n/a	n/a	n/a	n/a	n/a	n/a	n/a
3321029	RECOG_LURE	n/a	LTP142	ltpFR	2	5	n/a	STEW	1380	2	n/a	n/a	n/a	n/a	n/a	n/a
3321931	RECOG_RESP	n/a	LTP142	ltpFR	2	5	n/a	STEW	1380	n/a	n/a	n/a	n/a	n/a	n/a	n/a
3323434	RECOG_CONF	n/a	LTP142	ltpFR	2	5	n/a	STEW	1380	2	n/a	n/a	n/a	n/a	n/a	n/a
3324975	RECOG_TARGET	n/a	LTP142	ltpFR	2	5	0	GAZELLE	628	5	1	n/a	n/a	n/a	n/a	n/a
3325559	RECOG_RESP	n/a	LTP142	ltpFR	2	5	0	GAZELLE	628	n/a	1	n/a	n/a	n/a	n/a	n/a
3327061	RECOG_CONF	n/a	LTP142	ltpFR	2	5	0	GAZELLE	628	5	1	n/a	n/a	n/a	n/a	n/a
3328604	RECOG_TARGET	n/a	LTP142	ltpFR	2	5	-1	TAR	1435	5	-1	n/a	n/a	n/a	n/a	n/a
3329249	RECOG_RESP	n/a	LTP142	ltpFR	2	5	-1	TAR	1435	n/a	-1	n/a	n/a	n/a	n/a	n/a
3330751	RECOG_CONF	n/a	LTP142	ltpFR	2	5	-1	TAR	1435	5	-1	n/a	n/a	n/a	n/a	n/a
3332283	RECOG_TARGET	n/a	LTP142	ltpFR	2	5	0	DAGGER	434	5	0	n/a	n/a	n/a	n/a	n/a
3333021	RECOG_RESP	n/a	LTP142	ltpFR	2	5	0	DAGGER	434	n/a	0	n/a	n/a	n/a	n/a	n/a
3334392	RECOG_CONF	n/a	LTP142	ltpFR	2	5	0	DAGGER	434	5	0	n/a	n/a	n/a	n/a	n/a
3335829	RECOG_TARGET	n/a	LTP142	ltpFR	2	5	-1	DRUG	501	5	-1	n/a	n/a	n/a	n/a	n/a
3336556	RECOG_RESP	n/a	LTP142	ltpFR	2	5	-1	DRUG	501	n/a	-1	n/a	n/a	n/a	n/a	n/a
3338116	RECOG_CONF	n/a	LTP142	ltpFR	2	5	-1	DRUG	501	5	-1	n/a	n/a	n/a	n/a	n/a
3339658	RECOG_TARGET	n/a	LTP142	ltpFR	2	5	1	BOYFRIEND	162	5	1	n/a	n/a	n/a	n/a	n/a
3340327	RECOG_RESP	n/a	LTP142	ltpFR	2	5	1	BOYFRIEND	162	n/a	1	n/a	n/a	n/a	n/a	n/a
3341758	RECOG_CONF	n/a	LTP142	ltpFR	2	5	1	BOYFRIEND	162	5	1	n/a	n/a	n/a	n/a	n/a
3343254	RECOG_LURE	n/a	LTP142	ltpFR	2	5	n/a	SLOPE	1328	4	n/a	n/a	n/a	n/a	n/a	n/a
3344114	RECOG_RESP	n/a	LTP142	ltpFR	2	5	n/a	SLOPE	1328	n/a	n/a	n/a	n/a	n/a	n/a	n/a
3345380	RECOG_CONF	n/a	LTP142	ltpFR	2	5	n/a	SLOPE	1328	4	n/a	n/a	n/a	n/a	n/a	n/a
3346999	RECOG_LURE	n/a	LTP142	ltpFR	2	5	n/a	GRILL	661	2	n/a	n/a	n/a	n/a	n/a	n/a
3348044	RECOG_RESP	n/a	LTP142	ltpFR	2	5	n/a	GRILL	661	n/a	n/a	n/a	n/a	n/a	n/a	n/a
3349660	RECOG_CONF	n/a	LTP142	ltpFR	2	5	n/a	GRILL	661	2	n/a	n/a	n/a	n/a	n/a	n/a
3351144	RECOG_LURE	n/a	LTP142	ltpFR	2	5	n/a	SHEPHERD	1283	1	n/a	n/a	n/a	n/a	n/a	n/a
3352171	RECOG_RESP	n/a	LTP142	ltpFR	2	5	n/a	SHEPHERD	1283	n/a	n/a	n/a	n/a	n/a	n/a	n/a
3353471	RECOG_CONF	n/a	LTP142	ltpFR	2	5	n/a	SHEPHERD	1283	1	n/a	n/a	n/a	n/a	n/a	n/a
3355032	RECOG_LURE	n/a	LTP142	ltpFR	2	5	n/a	SPAGHETTI	1346	5	n/a	n/a	n/a	n/a	n/a	n/a
3356126	RECOG_RESP	n/a	LTP142	ltpFR	2	5	n/a	SPAGHETTI	1346	n/a	n/a	n/a	n/a	n/a	n/a	n/a
3357350	RECOG_CONF	n/a	LTP142	ltpFR	2	5	n/a	SPAGHETTI	1346	5	n/a	n/a	n/a	n/a	n/a	n/a
3358894	RECOG_TARGET	n/a	LTP142	ltpFR	2	5	-1	RECIPE	1175	5	-1	n/a	n/a	n/a	n/a	n/a
3359636	RECOG_RESP	n/a	LTP142	ltpFR	2	5	-1	RECIPE	1175	n/a	-1	n/a	n/a	n/a	n/a	n/a
3360857	RECOG_CONF	n/a	LTP142	ltpFR	2	5	-1	RECIPE	1175	5	-1	n/a	n/a	n/a	n/a	n/a
3362357	RECOG_TARGET	n/a	LTP142	ltpFR	2	5	1	TEA	1439	5	0	n/a	n/a	n/a	n/a	n/a
3363061	RECOG_RESP	n/a	LTP142	ltpFR	2	5	1	TEA	1439	n/a	0	n/a	n/a	n/a	n/a	n/a
3364386	RECOG_CONF	n/a	LTP142	ltpFR	2	5	1	TEA	1439	5	0	n/a	n/a	n/a	n/a	n/a
3365753	RECOG_TARGET	n/a	LTP142	ltpFR	2	5	1	PARROT	1015	5	1	n/a	n/a	n/a	n/a	n/a
3366952	RECOG_RESP	n/a	LTP142	ltpFR	2	5	1	PARROT	1015	n/a	1	n/a	n/a	n/a	n/a	n/a
3368347	RECOG_CONF	n/a	LTP142	ltpFR	2	5	1	PARROT	1015	5	1	n/a	n/a	n/a	n/a	n/a
3369964	RECOG_TARGET	n/a	LTP142	ltpFR	2	5	0	PUMP	1141	5	1	n/a	n/a	n/a	n/a	n/a
3370789	RECOG_RESP	n/a	LTP142	ltpFR	2	5	0	PUMP	1141	n/a	1	n/a	n/a	n/a	n/a	n/a
3372212	RECOG_CONF	n/a	LTP142	ltpFR	2	5	0	PUMP	1141	5	1	n/a	n/a	n/a	n/a	n/a
3373552	RECOG_TARGET	n/a	LTP142	ltpFR	2	5	1	NOTEBOOK	959	5	0	n/a	n/a	n/a	n/a	n/a
3374304	RECOG_RESP	n/a	LTP142	ltpFR	2	5	1	NOTEBOOK	959	n/a	0	n/a	n/a	n/a	n/a	n/a
3375830	RECOG_CONF	n/a	LTP142	ltpFR	2	5	1	NOTEBOOK	959	5	0	n/a	n/a	n/a	n/a	n/a
3377539	RECOG_TARGET	n/a	LTP142	ltpFR	2	5	0	PRODUCER	1129	5	1	n/a	n/a	n/a	n/a	n/a
3378173	RECOG_RESP	n/a	LTP142	ltpFR	2	5	0	PRODUCER	1129	n/a	1	n/a	n/a	n/a	n/a	n/a
3379681	RECOG_CONF	n/a	LTP142	ltpFR	2	5	0	PRODUCER	1129	5	1	n/a	n/a	n/a	n/a	n/a
3381052	RECOG_TARGET	n/a	LTP142	ltpFR	2	5	0	CREAM	402	5	0	n/a	n/a	n/a	n/a	n/a
3381806	RECOG_RESP	n/a	LTP142	ltpFR	2	5	0	CREAM	402	n/a	0	n/a	n/a	n/a	n/a	n/a
3383373	RECOG_CONF	n/a	LTP142	ltpFR	2	5	0	CREAM	402	5	0	n/a	n/a	n/a	n/a	n/a
3384864	RECOG_TARGET	n/a	LTP142	ltpFR	2	5	1	CHURCH	307	5	0	n/a	n/a	n/a	n/a	n/a
3385712	RECOG_RESP	n/a	LTP142	ltpFR	2	5	1	CHURCH	307	n/a	0	n/a	n/a	n/a	n/a	n/a
3387144	RECOG_CONF	n/a	LTP142	ltpFR	2	5	1	CHURCH	307	5	0	n/a	n/a	n/a	n/a	n/a
3388593	RECOG_TARGET	n/a	LTP142	ltpFR	2	5	1	SUPERMARKET	1409	5	0	n/a	n/a	n/a	n/a	n/a
3389284	RECOG_RESP	n/a	LTP142	ltpFR	2	5	1	SUPERMARKET	1409	n/a	0	n/a	n/a	n/a	n/a	n/a
3390789	RECOG_CONF	n/a	LTP142	ltpFR	2	5	1	SUPERMARKET	1409	5	0	n/a	n/a	n/a	n/a	n/a
3392255	RECOG_TARGET	n/a	LTP142	ltpFR	2	5	1	LUNCH	849	2	0	n/a	n/a	n/a	n/a	n/a
3393376	RECOG_RESP	n/a	LTP142	ltpFR	2	5	1	LUNCH	849	n/a	0	n/a	n/a	n/a	n/a	n/a
3395036	RECOG_CONF	n/a	LTP142	ltpFR	2	5	1	LUNCH	849	2	0	n/a	n/a	n/a	n/a	n/a
3403618	REC_START	n/a	LTP142	ltpFR	2	6	n/a	n/a	n/a	n/a	n/a	n/a	n/a	n/a	n/a	n/a
3403642	RECOG_TARGET	n/a	LTP142	ltpFR	2	6	-1	CABIN	211	5	-1	n/a	n/a	n/a	n/a	n/a
3404738	RECOG_RESP	n/a	LTP142	ltpFR	2	6	-1	CABIN	211	n/a	-1	n/a	n/a	n/a	n/a	n/a
3405935	RECOG_CONF	n/a	LTP142	ltpFR	2	6	-1	CABIN	211	5	-1	n/a	n/a	n/a	n/a	n/a
3407563	RECOG_LURE	n/a	LTP142	ltpFR	2	6	n/a	INDIAN	736	5	n/a	n/a	n/a	n/a	n/a	n/a
3408281	RECOG_RESP	n/a	LTP142	ltpFR	2	6	n/a	INDIAN	736	n/a	n/a	n/a	n/a	n/a	n/a	n/a
3409483	RECOG_CONF	n/a	LTP142	ltpFR	2	6	n/a	INDIAN	736	5	n/a	n/a	n/a	n/a	n/a	n/a
3410992	RECOG_TARGET	n/a	LTP142	ltpFR	2	6	1	CHEF	290	5	1	n/a	n/a	n/a	n/a	n/a
3411734	RECOG_RESP	n/a	LTP142	ltpFR	2	6	1	CHEF	290	n/a	1	n/a	n/a	n/a	n/a	n/a
3412976	RECOG_CONF	n/a	LTP142	ltpFR	2	6	1	CHEF	290	5	1	n/a	n/a	n/a	n/a	n/a
3414446	RECOG_TARGET	n/a	LTP142	ltpFR	2	6	0	ANTENNA	28	5	0	n/a	n/a	n/a	n/a	n/a
3415283	RECOG_RESP	n/a	LTP142	ltpFR	2	6	0	ANTENNA	28	n/a	0	n/a	n/a	n/a	n/a	n/a
3416723	RECOG_CONF	n/a	LTP142	ltpFR	2	6	0	ANTENNA	28	5	0	n/a	n/a	n/a	n/a	n/a
3418142	RECOG_LURE	n/a	LTP142	ltpFR	2	6	n/a	CATTLE	261	5	n/a	n/a	n/a	n/a	n/a	n/a
3419084	RECOG_RESP	n/a	LTP142	ltpFR	2	6	n/a	CATTLE	261	n/a	n/a	n/a	n/a	n/a	n/a	n/a
3420270	RECOG_CONF	n/a	LTP142	ltpFR	2	6	n/a	CATTLE	261	5	n/a	n/a	n/a	n/a	n/a	n/a
3421871	RECOG_TARGET	n/a	LTP142	ltpFR	2	6	-1	BARREL	91	5	-1	n/a	n/a	n/a	n/a	n/a
3422692	RECOG_RESP	n/a	LTP142	ltpFR	2	6	-1	BARREL	91	n/a	-1	n/a	n/a	n/a	n/a	n/a
3423951	RECOG_CONF	n/a	LTP142	ltpFR	2	6	-1	BARREL	91	5	-1	n/a	n/a	n/a	n/a	n/a
3425575	RECOG_TARGET	n/a	LTP142	ltpFR	2	6	-1	PACKAGE	997	5	-1	n/a	n/a	n/a	n/a	n/a
3426368	RECOG_RESP	n/a	LTP142	ltpFR	2	6	-1	PACKAGE	997	n/a	-1	n/a	n/a	n/a	n/a	n/a
3427708	RECOG_CONF	n/a	LTP142	ltpFR	2	6	-1	PACKAGE	997	5	-1	n/a	n/a	n/a	n/a	n/a
3429154	RECOG_TARGET	n/a	LTP142	ltpFR	2	6	1	FRAGRANCE	599	3	0	n/a	n/a	n/a	n/a	n/a
3430793	RECOG_RESP	n/a	LTP142	ltpFR	2	6	1	FRAGRANCE	599	n/a	0	n/a	n/a	n/a	n/a	n/a
3431869	RECOG_CONF	n/a	LTP142	ltpFR	2	6	1	FRAGRANCE	599	3	0	n/a	n/a	n/a	n/a	n/a
3433524	RECOG_TARGET	n/a	LTP142	ltpFR	2	6	1	DAUGHTER	442	5	1	n/a	n/a	n/a	n/a	n/a
3434239	RECOG_RESP	n/a	LTP142	ltpFR	2	6	1	DAUGHTER	442	n/a	1	n/a	n/a	n/a	n/a	n/a
3435577	RECOG_CONF	n/a	LTP142	ltpFR	2	6	1	DAUGHTER	442	5	1	n/a	n/a	n/a	n/a	n/a
3437153	RECOG_TARGET	n/a	LTP142	ltpFR	2	6	-1	TURNIP	1521	5	-1	n/a	n/a	n/a	n/a	n/a
3437753	RECOG_RESP	n/a	LTP142	ltpFR	2	6	-1	TURNIP	1521	n/a	-1	n/a	n/a	n/a	n/a	n/a
3439045	RECOG_CONF	n/a	LTP142	ltpFR	2	6	-1	TURNIP	1521	5	-1	n/a	n/a	n/a	n/a	n/a
3440524	RECOG_TARGET	n/a	LTP142	ltpFR	2	6	0	MAMMAL	861	5	1	n/a	n/a	n/a	n/a	n/a
3441199	RECOG_RESP	n/a	LTP142	ltpFR	2	6	0	MAMMAL	861	n/a	1	n/a	n/a	n/a	n/a	n/a
3442514	RECOG_CONF	n/a	LTP142	ltpFR	2	6	0	MAMMAL	861	5	1	n/a	n/a	n/a	n/a	n/a
3444079	RECOG_TARGET	n/a	LTP142	ltpFR	2	6	0	CAPITAL	238	5	1	n/a	n/a	n/a	n/a	n/a
3444790	RECOG_RESP	n/a	LTP142	ltpFR	2	6	0	CAPITAL	238	n/a	1	n/a	n/a	n/a	n/a	n/a
3446196	RECOG_CONF	n/a	LTP142	ltpFR	2	6	0	CAPITAL	238	5	1	n/a	n/a	n/a	n/a	n/a
3447741	RECOG_TARGET	n/a	LTP142	ltpFR	2	6	-1	ENVELOPE	537	5	-1	n/a	n/a	n/a	n/a	n/a
3448426	RECOG_RESP	n/a	LTP142	ltpFR	2	6	-1	ENVELOPE	537	n/a	-1	n/a	n/a	n/a	n/a	n/a
3449938	RECOG_CONF	n/a	LTP142	ltpFR	2	6	-1	ENVELOPE	537	5	-1	n/a	n/a	n/a	n/a	n/a
3451603	RECOG_LURE	n/a	LTP142	ltpFR	2	6	n/a	SADDLE	1221	4	n/a	n/a	n/a	n/a	n/a	n/a
3452432	RECOG_RESP	n/a	LTP142	ltpFR	2	6	n/a	SADDLE	1221	n/a	n/a	n/a	n/a	n/a	n/a	n/a
3453631	RECOG_CONF	n/a	LTP142	ltpFR	2	6	n/a	SADDLE	1221	4	n/a	n/a	n/a	n/a	n/a	n/a
3455207	RECOG_LURE	n/a	LTP142	ltpFR	2	6	n/a	BACON	67	1	n/a	n/a	n/a	n/a	n/a	n/a
3456726	RECOG_RESP	n/a	LTP142	ltpFR	2	6	n/a	BACON	67	n/a	n/a	n/a	n/a	n/a	n/a	n/a
3457800	RECOG_CONF	n/a	LTP142	ltpFR	2	6	n/a	BACON	67	1	n/a	n/a	n/a	n/a	n/a	n/a
3459253	RECOG_TARGET	n/a	LTP142	ltpFR	2	6	0	TOTE	1487	5	0	n/a	n/a	n/a	n/a	n/a
3459945	RECOG_RESP	n/a	LTP142	ltpFR	2	6	0	TOTE	1487	n/a	0	n/a	n/a	n/a	n/a	n/a
3461282	RECOG_CONF	n/a	LTP142	ltpFR	2	6	0	TOTE	1487	5	0	n/a	n/a	n/a	n/a	n/a
3462798	RECOG_TARGET	n/a	LTP142	ltpFR	2	6	0	BODY	145	5	1	n/a	n/a	n/a	n/a	n/a
3463491	RECOG_RESP	n/a	LTP142	ltpFR	2	6	0	BODY	145	n/a	1	n/a	n/a	n/a	n/a	n/a
3464683	RECOG_CONF	n/a	LTP142	ltpFR	2	6	0	BODY	145	5	1	n/a	n/a	n/a	n/a	n/a
3466386	RECOG_LURE	n/a	LTP142	ltpFR	2	6	n/a	ROAD	1196	1	n/a	n/a	n/a	n/a	n/a	n/a
3467901	RECOG_RESP	n/a	LTP142	ltpFR	2	6	n/a	ROAD	1196	n/a	n/a	n/a	n/a	n/a	n/a	n/a
3470748	RECOG_CONF	n/a	LTP142	ltpFR	2	6	n/a	ROAD	1196	1	n/a	n/a	n/a	n/a	n/a	n/a
3472279	RECOG_TARGET	n/a	LTP142	ltpFR	2	6	1	BISON	131	3	1	n/a	n/a	n/a	n/a	n/a
3473498	RECOG_RESP	n/a	LTP142	ltpFR	2	6	1	BISON	131	n/a	1	n/a	n/a	n/a	n/a	n/a
3474710	RECOG_CONF	n/a	LTP142	ltpFR	2	6	1	BISON	131	3	1	n/a	n/a	n/a	n/a	n/a
3476233	RECOG_TARGET	n/a	LTP142	ltpFR	2	6	1	DRINK	498	4	0	n/a	n/a	n/a	n/a	n/a
3477143	RECOG_RESP	n/a	LTP142	ltpFR	2	6	1	DRINK	498	n/a	0	n/a	n/a	n/a	n/a	n/a
3478309	RECOG_CONF	n/a	LTP142	ltpFR	2	6	1	DRINK	498	4	0	n/a	n/a	n/a	n/a	n/a
3483585	REC_START	n/a	LTP142	ltpFR	2	7	n/a	n/a	n/a	n/a	n/a	n/a	n/a	n/a	n/a	n/a
3483616	RECOG_TARGET	n/a	LTP142	ltpFR	2	7	-1	WATERFALL	1595	5	-1	n/a	n/a	n/a	n/a	n/a
3484551	RECOG_RESP	n/a	LTP142	ltpFR	2	7	-1	WATERFALL	1595	n/a	-1	n/a	n/a	n/a	n/a	n/a
3485777	RECOG_CONF	n/a	LTP142	ltpFR	2	7	-1	WATERFALL	1595	5	-1	n/a	n/a	n/a	n/a	n/a
3487329	RECOG_TARGET	n/a	LTP142	ltpFR	2	7	0	PLAQUE	1084	5	0	n/a	n/a	n/a	n/a	n/a
3488032	RECOG_RESP	n/a	LTP142	ltpFR	2	7	0	PLAQUE	1084	n/a	0	n/a	n/a	n/a	n/a	n/a
3489334	RECOG_CONF	n/a	LTP142	ltpFR	2	7	0	PLAQUE	1084	5	0	n/a	n/a	n/a	n/a	n/a
3490799	RECOG_TARGET	n/a	LTP142	ltpFR	2	7	-1	FEAST	556	5	-1	n/a	n/a	n/a	n/a	n/a
3491741	RECOG_RESP	n/a	LTP142	ltpFR	2	7	-1	FEAST	556	n/a	-1	n/a	n/a	n/a	n/a	n/a
3492997	RECOG_CONF	n/a	LTP142	ltpFR	2	7	-1	FEAST	556	5	-1	n/a	n/a	n/a	n/a	n/a
3494437	RECOG_TARGET	n/a	LTP142	ltpFR	2	7	-1	LOBSTER	837	5	-1	n/a	n/a	n/a	n/a	n/a
3495143	RECOG_RESP	n/a	LTP142	ltpFR	2	7	-1	LOBSTER	837	n/a	-1	n/a	n/a	n/a	n/a	n/a
3496421	RECOG_CONF	n/a	LTP142	ltpFR	2	7	-1	LOBSTER	837	5	-1	n/a	n/a	n/a	n/a	n/a
3497908	RECOG_TARGET	n/a	LTP142	ltpFR	2	7	-1	BUYER	208	5	-1	n/a	n/a	n/a	n/a	n/a
3498702	RECOG_RESP	n/a	LTP142	ltpFR	2	7	-1	BUYER	208	n/a	-1	n/a	n/a	n/a	n/a	n/a
3500007	RECOG_CONF	n/a	LTP142	ltpFR	2	7	-1	BUYER	208	5	-1	n/a	n/a	n/a	n/a	n/a
3501520	RECOG_TARGET	n/a	LTP142	ltpFR	2	7	-1	CUP	424	5	-1	n/a	n/a	n/a	n/a	n/a
3502385	RECOG_RESP	n/a	LTP142	ltpFR	2	7	-1	CUP	424	n/a	-1	n/a	n/a	n/a	n/a	n/a
3503624	RECOG_CONF	n/a	LTP142	ltpFR	2	7	-1	CUP	424	5	-1	n/a	n/a	n/a	n/a	n/a
3505000	RECOG_TARGET	n/a	LTP142	ltpFR	2	7	0	BARTENDER	92	4	1	n/a	n/a	n/a	n/a	n/a
3505625	RECOG_RESP	n/a	LTP142	ltpFR	2	7	0	BARTENDER	92	n/a	1	n/a	n/a	n/a	n/a	n/a
3506897	RECOG_CONF	n/a	LTP142	ltpFR	2	7	0	BARTENDER	92	4	1	n/a	n/a	n/a	n/a	n/a
3508313	RECOG_TARGET	n/a	LTP142	ltpFR	2	7	0	CHAPEL	280	5	1	n/a	n/a	n/a	n/a	n/a
3508911	RECOG_RESP	n/a	LTP142	ltpFR	2	7	0	CHAPEL	280	n/a	1	n/a	n/a	n/a	n/a	n/a
3510179	RECOG_CONF	n/a	LTP142	ltpFR	2	7	0	CHAPEL	280	5	1	n/a	n/a	n/a	n/a	n/a
3511609	RECOG_LURE	n/a	LTP142	ltpFR	2	7	n/a	CUE	422	4	n/a	n/a	n/a	n/a	n/a	n/a
3512434	RECOG_RESP	n/a	LTP142	ltpFR	2	7	n/a	CUE	422	n/a	n/a	n/a	n/a	n/a	n/a	n/a
3513701	RECOG_CONF	n/a	LTP142	ltpFR	2	7	n/a	CUE	422	4	n/a	n/a	n/a	n/a	n/a	n/a
3515213	RECOG_TARGET	n/a	LTP142	ltpFR	2	7	0	SANDWICH	1232	1	0	n/a	n/a	n/a	n/a	n/a
3516661	RECOG_RESP	n/a	LTP142	ltpFR	2	7	0	SANDWICH	1232	n/a	0	n/a	n/a	n/a	n/a	n/a
3517852	RECOG_CONF	n/a	LTP142	ltpFR	2	7	0	SANDWICH	1232	1	0	n/a	n/a	n/a	n/a	n/a
3519292	RECOG_TARGET	n/a	LTP142	ltpFR	2	7	1	WIFE	1609	5	1	n/a	n/a	n/a	n/a	n/a
3520005	RECOG_RESP	n/a	LTP142	ltpFR	2	7	1	WIFE	1609	n/a	1	n/a	n/a	n/a	n/a	n/a
3521244	RECOG_CONF	n/a	LTP142	ltpFR	2	7	1	WIFE	1609	5	1	n/a	n/a	n/a	n/a	n/a
3522671	RECOG_TARGET	n/a	LTP142	ltpFR	2	7	-1	PLAZA	1088	5	-1	n/a	n/a	n/a	n/a	n/a
3523386	RECOG_RESP	n/a	LTP142	ltpFR	2	7	-1	PLAZA	1088	n/a	-1	n/a	n/a	n/a	n/a	n/a
3524548	RECOG_CONF	n/a	LTP142	ltpFR	2	7	-1	PLAZA	1088	5	-1	n/a	n/a	n/a	n/a	n/a
3526075	RECOG_TARGET	n/a	LTP142	ltpFR	2	7	1	NUT	965	5	1	n/a	n/a	n/a	n/a	n/a
3526820	RECOG_RESP	n/a	LTP142	ltpFR	2	7	1	NUT	965	n/a	1	n/a	n/a	n/a	n/a	n/a
3528089	RECOG_CONF	n/a	LTP142	ltpFR	2	7	1	NUT	965	5	1	n/a	n/a	n/a	n/a	n/a
3529480	RECOG_TARGET	n/a	LTP142	ltpFR	2	7	1	THERMOMETER	1453	5	0	n/a	n/a	n/a	n/a	n/a
3530196	RECOG_RESP	n/a	LTP142	ltpFR	2	7	1	THERMOMETER	1453	n/a	0	n/a	n/a	n/a	n/a	n/a
3531671	RECOG_CONF	n/a	LTP142	ltpFR	2	7	1	THERMOMETER	1453	5	0	n/a	n/a	n/a	n/a	n/a
3533075	RECOG_TARGET	n/a	LTP142	ltpFR	2	7	0	SHOE	1288	5	0	n/a	n/a	n/a	n/a	n/a
3533728	RECOG_RESP	n/a	LTP142	ltpFR	2	7	0	SHOE	1288	n/a	0	n/a	n/a	n/a	n/a	n/a
3535158	RECOG_CONF	n/a	LTP142	ltpFR	2	7	0	SHOE	1288	5	0	n/a	n/a	n/a	n/a	n/a
3536705	RECOG_TARGET	n/a	LTP142	ltpFR	2	7	1	CLAM	315	5	1	n/a	n/a	n/a	n/a	n/a
3537316	RECOG_RESP	n/a	LTP142	ltpFR	2	7	1	CLAM	315	n/a	1	n/a	n/a	n/a	n/a	n/a
3538764	RECOG_CONF	n/a	LTP142	ltpFR	2	7	1	CLAM	315	5	1	n/a	n/a	n/a	n/a	n/a
3540525	RECOG_LURE	n/a	LTP142	ltpFR	2	7	n/a	PORTRAIT	1111	5	n/a	n/a	n/a	n/a	n/a	n/a
3541552	RECOG_RESP	n/a	LTP142	ltpFR	2	7	n/a	PORTRAIT	1111	n/a	n/a	n/a	n/a	n/a	n/a	n/a
3542725	RECOG_CONF	n/a	LTP142	ltpFR	2	7	n/a	PORTRAIT	1111	5	n/a	n/a	n/a	n/a	n/a	n/a
3544271	RECOG_LURE	n/a	LTP142	ltpFR	2	7	n/a	SCALE	1241	4	n/a	n/a	n/a	n/a	n/a	n/a
3545202	RECOG_RESP	n/a	LTP142	ltpFR	2	7	n/a	SCALE	1241	n/a	n/a	n/a	n/a	n/a	n/a	n/a
3546440	RECOG_CONF	n/a	LTP142	ltpFR	2	7	n/a	SCALE	1241	4	n/a	n/a	n/a	n/a	n/a	n/a
3547975	RECOG_TARGET	n/a	LTP142	ltpFR	2	7	-1	SUPPER	1411	4	-1	n/a	n/a	n/a	n/a	n/a
3548898	RECOG_RESP	n/a	LTP142	ltpFR	2	7	-1	SUPPER	1411	n/a	-1	n/a	n/a	n/a	n/a	n/a
3550161	RECOG_CONF	n/a	LTP142	ltpFR	2	7	-1	SUPPER	1411	4	-1	n/a	n/a	n/a	n/a	n/a
3551712	RECOG_TARGET	n/a	LTP142	ltpFR	2	7	0	CLOSET	326	5	1	n/a	n/a	n/a	n/a	n/a
3552575	RECOG_RESP	n/a	LTP142	ltpFR	2	7	0	CLOSET	326	n/a	1	n/a	n/a	n/a	n/a	n/a
3553890	RECOG_CONF	n/a	LTP142	ltpFR	2	7	0	CLOSET	326	5	1	n/a	n/a	n/a	n/a	n/a
3557618	REC_START	n/a	LTP142	ltpFR	2	8	n/a	n/a	n/a	n/a	n/a	n/a	n/a	n/a	n/a	n/a
3557647	RECOG_TARGET	n/a	LTP142	ltpFR	2	8	1	CARD	243	2	0	n/a	n/a	n/a	n/a	n/a
3558633	RECOG_RESP	n/a	LTP142	ltpFR	2	8	1	CARD	243	n/a	0	n/a	n/a	n/a	n/a	n/a
3559933	RECOG_CONF	n/a	LTP142	ltpFR	2	8	1	CARD	243	2	0	n/a	n/a	n/a	n/a	n/a
3561418	RECOG_TARGET	n/a	LTP142	ltpFR	2	8	0	RECORD	1176	5	0	n/a	n/a	n/a	n/a	n/a
3562232	RECOG_RESP	n/a	LTP142	ltpFR	2	8	0	RECORD	1176	n/a	0	n/a	n/a	n/a	n/a	n/a
3563530	RECOG_CONF	n/a	LTP142	ltpFR	2	8	0	RECORD	1176	5	0	n/a	n/a	n/a	n/a	n/a
3565188	RECOG_LURE	n/a	LTP142	ltpFR	2	8	n/a	MAILBOX	857	4	n/a	n/a	n/a	n/a	n/a	n/a
3566160	RECOG_RESP	n/a	LTP142	ltpFR	2	8	n/a	MAILBOX	857	n/a	n/a	n/a	n/a	n/a	n/a	n/a
3567351	RECOG_CONF	n/a	LTP142	ltpFR	2	8	n/a	MAILBOX	857	4	n/a	n/a	n/a	n/a	n/a	n/a
3568751	RECOG_TARGET	n/a	LTP142	ltpFR	2	8	1	COTTAGE	384	5	0	n/a	n/a	n/a	n/a	n/a
3569501	RECOG_RESP	n/a	LTP142	ltpFR	2	8	1	COTTAGE	384	n/a	0	n/a	n/a	n/a	n/a	n/a
3570653	RECOG_CONF	n/a	LTP142	ltpFR	2	8	1	COTTAGE	384	5	0	n/a	n/a	n/a	n/a	n/a
3572180	RECOG_TARGET	n/a	LTP142	ltpFR	2	8	0	MECHANIC	884	5	1	n/a	n/a	n/a	n/a	n/a
3572849	RECOG_RESP	n/a	LTP142	ltpFR	2	8	0	MECHANIC	884	n/a	1	n/a	n/a	n/a	n/a	n/a
3574215	RECOG_CONF	n/a	LTP142	ltpFR	2	8	0	MECHANIC	884	5	1	n/a	n/a	n/a	n/a	n/a
3575618	RECOG_TARGET	n/a	LTP142	ltpFR	2	8	1	ADOLESCENT	7	5	1	n/a	n/a	n/a	n/a	n/a
3576327	RECOG_RESP	n/a	LTP142	ltpFR	2	8	1	ADOLESCENT	7	n/a	1	n/a	n/a	n/a	n/a	n/a
3577677	RECOG_CONF	n/a	LTP142	ltpFR	2	8	1	ADOLESCENT	7	5	1	n/a	n/a	n/a	n/a	n/a
3579130	RECOG_LURE	n/a	LTP142	ltpFR	2	8	n/a	COUSIN	392	5	n/a	n/a	n/a	n/a	n/a	n/a
3579871	RECOG_RESP	n/a	LTP142	ltpFR	2	8	n/a	COUSIN	392	n/a	n/a	n/a	n/a	n/a	n/a	n/a
3581017	RECOG_CONF	n/a	LTP142	ltpFR	2	8	n/a	COUSIN	392	5	n/a	n/a	n/a	n/a	n/a	n/a
3582393	RECOG_LURE	n/a	LTP142	ltpFR	2	8	n/a	BACKBONE	66	5	n/a	n/a	n/a	n/a	n/a	n/a
3583235	RECOG_RESP	n/a	LTP142	ltpFR	2	8	n/a	BACKBONE	66	n/a	n/a	n/a	n/a	n/a	n/a	n/a
3584452	RECOG_CONF	n/a	LTP142	ltpFR	2	8	n/a	BACKBONE	66	5	n/a	n/a	n/a	n/a	n/a	n/a
3585798	RECOG_TARGET	n/a	LTP142	ltpFR	2	8	-1	COLUMN	350	5	-1	n/a	n/a	n/a	n/a	n/a
3586580	RECOG_RESP	n/a	LTP142	ltpFR	2	8	-1	COLUMN	350	n/a	-1	n/a	n/a	n/a	n/a	n/a
3587864	RECOG_CONF	n/a	LTP142	ltpFR	2	8	-1	COLUMN	350	5	-1	n/a	n/a	n/a	n/a	n/a
3589377	RECOG_TARGET	n/a	LTP142	ltpFR	2	8	0	NEPHEW	942	5	1	n/a	n/a	n/a	n/a	n/a
3590619	RECOG_RESP	n/a	LTP142	ltpFR	2	8	0	NEPHEW	942	n/a	1	n/a	n/a	n/a	n/a	n/a
3591790	RECOG_CONF	n/a	LTP142	ltpFR	2	8	0	NEPHEW	942	5	1	n/a	n/a	n/a	n/a	n/a
3593231	RECOG_TARGET	n/a	LTP142	ltpFR	2	8	0	HEAD	695	1	1	n/a	n/a	n/a	n/a	n/a
3594026	RECOG_RESP	n/a	LTP142	ltpFR	2	8	0	HEAD	695	n/a	1	n/a	n/a	n/a	n/a	n/a
3595407	RECOG_CONF	n/a	LTP142	ltpFR	2	8	0	HEAD	695	1	1	n/a	n/a	n/a	n/a	n/a
3596976	RECOG_TARGET	n/a	LTP142	ltpFR	2	8	1	TUNA	1518	5	1	n/a	n/a	n/a	n/a	n/a
3597624	RECOG_RESP	n/a	LTP142	ltpFR	2	8	1	TUNA	1518	n/a	1	n/a	n/a	n/a	n/a	n/a
3598884	RECOG_CONF	n/a	LTP142	ltpFR	2	8	1	TUNA	1518	5	1	n/a	n/a	n/a	n/a	n/a
3600281	RECOG_TARGET	n/a	LTP142	ltpFR	2	8	0	DOLL	481	5	1	n/a	n/a	n/a	n/a	n/a
3600990	RECOG_RESP	n/a	LTP142	ltpFR	2	8	0	DOLL	481	n/a	1	n/a	n/a	n/a	n/a	n/a
3602375	RECOG_CONF	n/a	LTP142	ltpFR	2	8	0	DOLL	481	5	1	n/a	n/a	n/a	n/a	n/a
3603677	RECOG_LURE	n/a	LTP142	ltpFR	2	8	n/a	BUNNY	198	4	n/a	n/a	n/a	n/a	n/a	n/a
3604688	RECOG_RESP	n/a	LTP142	ltpFR	2	8	n/a	BUNNY	198	n/a	n/a	n/a	n/a	n/a	n/a	n/a
3605903	RECOG_CONF	n/a	LTP142	ltpFR	2	8	n/a	BUNNY	198	4	n/a	n/a	n/a	n/a	n/a	n/a
3607398	RECOG_TARGET	n/a	LTP142	ltpFR	2	8	1	COW	393	2	1	n/a	n/a	n/a	n/a	n/a
3608380	RECOG_RESP	n/a	LTP142	ltpFR	2	8	1	COW	393	n/a	1	n/a	n/a	n/a	n/a	n/a
3609608	RECOG_CONF	n/a	LTP142	ltpFR	2	8	1	COW	393	2	1	n/a	n/a	n/a	n/a	n/a
3611085	RECOG_TARGET	n/a	LTP142	ltpFR	2	8	-1	TART	1436	5	-1	n/a	n/a	n/a	n/a	n/a
3611777	RECOG_RESP	n/a	LTP142	ltpFR	2	8	-1	TART	1436	n/a	-1	n/a	n/a	n/a	n/a	n/a
3613057	RECOG_CONF	n/a	LTP142	ltpFR	2	8	-1	TART	1436	5	-1	n/a	n/a	n/a	n/a	n/a
3614406	RECOG_TARGET	n/a	LTP142	ltpFR	2	8	1	BUCKET	184	2	0	n/a	n/a	n/a	n/a	n/a
3615306	RECOG_RESP	n/a	LTP142	ltpFR	2	8	1	BUCKET	184	n/a	0	n/a	n/a	n/a	n/a	n/a
3616443	RECOG_CONF	n/a	LTP142	ltpFR	2	8	1	BUCKET	184	2	0	n/a	n/a	n/a	n/a	n/a
3617885	RECOG_LURE	n/a	LTP142	ltpFR	2	8	n/a	GARBAGE	622	5	n/a	n/a	n/a	n/a	n/a	n/a
3618755	RECOG_RESP	n/a	LTP142	ltpFR	2	8	n/a	GARBAGE	622	n/a	n/a	n/a	n/a	n/a	n/a	n/a
3619817	RECOG_CONF	n/a	LTP142	ltpFR	2	8	n/a	GARBAGE	622	5	n/a	n/a	n/a	n/a	n/a	n/a
3621565	RECOG_TARGET	n/a	LTP142	ltpFR	2	8	0	PORCUPINE	1107	5	1	n/a	n/a	n/a	n/a	n/a
3622859	RECOG_RESP_VV	n/a	LTP142	ltpFR	2	8	0	PORCUPINE	1107	n/a	1	n/a	n/a	n/a	n/a	n/a
3624190	RECOG_RESP	n/a	LTP142	ltpFR	2	8	0	PORCUPINE	1107	n/a	1	n/a	n/a	n/a	n/a	n/a
3625684	RECOG_CONF	n/a	LTP142	ltpFR	2	8	0	PORCUPINE	1107	5	1	n/a	n/a	n/a	n/a	n/a
3627258	RECOG_TARGET	n/a	LTP142	ltpFR	2	8	0	CHALK	276	5	0	n/a	n/a	n/a	n/a	n/a
3628671	RECOG_RESP	n/a	LTP142	ltpFR	2	8	0	CHALK	276	n/a	0	n/a	n/a	n/a	n/a	n/a
3630044	RECOG_CONF	n/a	LTP142	ltpFR	2	8	0	CHALK	276	5	0	n/a	n/a	n/a	n/a	n/a
3640212	REC_START	n/a	LTP142	ltpFR	2	9	n/a	n/a	n/a	n/a	n/a	n/a	n/a	n/a	n/a	n/a
3640235	RECOG_TARGET	n/a	LTP142	ltpFR	2	9	0	LACE	792	1	0	n/a	n/a	n/a	n/a	n/a
3641504	RECOG_RESP	n/a	LTP142	ltpFR	2	9	0	LACE	792	n/a	0	n/a	n/a	n/a	n/a	n/a
3642670	RECOG_CONF	n/a	LTP142	ltpFR	2	9	0	LACE	792	1	0	n/a	n/a	n/a	n/a	n/a
3644113	RECOG_TARGET	n/a	LTP142	ltpFR	2	9	-1	MEAL	882	4	-1	n/a	n/a	n/a	n/a	n/a
3644933	RECOG_RESP	n/a	LTP142	ltpFR	2	9	-1	MEAL	882	n/a	-1	n/a	n/a	n/a	n/a	n/a
3646233	RECOG_CONF	n/a	LTP142	ltpFR	2	9	-1	MEAL	882	4	-1	n/a	n/a	n/a	n/a	n/a
3647726	RECOG_LURE	n/a	LTP142	ltpFR	2	9	n/a	VAULT	1550	2	n/a	n/a	n/a	n/a	n/a	n/a
3648783	RECOG_RESP	n/a	LTP142	ltpFR	2	9	n/a	VAULT	1550	n/a	n/a	n/a	n/a	n/a	n/a	n/a
3649957	RECOG_CONF	n/a	LTP142	ltpFR	2	9	n/a	VAULT	1550	2	n/a	n/a	n/a	n/a	n/a	n/a
3651422	RECOG_LURE	n/a	LTP142	ltpFR	2	9	n/a	VEIN	1554	5	n/a	n/a	n/a	n/a	n/a	n/a
3652931	RECOG_RESP	n/a	LTP142	ltpFR	2	9	n/a	VEIN	1554	n/a	n/a	n/a	n/a	n/a	n/a	n/a
3654153	RECOG_CONF	n/a	LTP142	ltpFR	2	9	n/a	VEIN	1554	5	n/a	n/a	n/a	n/a	n/a	n/a
3655800	RECOG_TARGET	n/a	LTP142	ltpFR	2	9	0	BEAST	108	5	1	n/a	n/a	n/a	n/a	n/a
3656520	RECOG_RESP	n/a	LTP142	ltpFR	2	9	0	BEAST	108	n/a	1	n/a	n/a	n/a	n/a	n/a
3657767	RECOG_CONF	n/a	LTP142	ltpFR	2	9	0	BEAST	108	5	1	n/a	n/a	n/a	n/a	n/a
3659046	RECOG_TARGET	n/a	LTP142	ltpFR	2	9	0	COOK	372	4	1	n/a	n/a	n/a	n/a	n/a
3659800	RECOG_RESP	n/a	LTP142	ltpFR	2	9	0	COOK	372	n/a	1	n/a	n/a	n/a	n/a	n/a
3661249	RECOG_CONF	n/a	LTP142	ltpFR	2	9	0	COOK	372	4	1	n/a	n/a	n/a	n/a	n/a
3662725	RECOG_TARGET	n/a	LTP142	ltpFR	2	9	-1	OATMEAL	967	5	-1	n/a	n/a	n/a	n/a	n/a
3663512	RECOG_RESP	n/a	LTP142	ltpFR	2	9	-1	OATMEAL	967	n/a	-1	n/a	n/a	n/a	n/a	n/a
3664741	RECOG_CONF	n/a	LTP142	ltpFR	2	9	-1	OATMEAL	967	5	-1	n/a	n/a	n/a	n/a	n/a
3666288	RECOG_LURE	n/a	LTP142	ltpFR	2	9	n/a	THREAD	1460	2	n/a	n/a	n/a	n/a	n/a	n/a
3667105	RECOG_RESP	n/a	LTP142	ltpFR	2	9	n/a	THREAD	1460	n/a	n/a	n/a	n/a	n/a	n/a	n/a
3668510	RECOG_CONF	n/a	LTP142	ltpFR	2	9	n/a	THREAD	1460	2	n/a	n/a	n/a	n/a	n/a	n/a
3670000	RECOG_TARGET	n/a	LTP142	ltpFR	2	9	0	CARAVAN	242	1	1	n/a	n/a	n/a	n/a	n/a
3671195	RECOG_RESP	n/a	LTP142	ltpFR	2	9	0	CARAVAN	242	n/a	1	n/a	n/a	n/a	n/a	n/a
3672593	RECOG_CONF	n/a	LTP142	ltpFR	2	9	0	CARAVAN	242	1	1	n/a	n/a	n/a	n/a	n/a
3674079	RECOG_LURE	n/a	LTP142	ltpFR	2	9	n/a	COB	334	2	n/a	n/a	n/a	n/a	n/a	n/a
3676015	RECOG_RESP	n/a	LTP142	ltpFR	2	9	n/a	COB	334	n/a	n/a	n/a	n/a	n/a	n/a	n/a
3677287	RECOG_CONF	n/a	LTP142	ltpFR	2	9	n/a	COB	334	2	n/a	n/a	n/a	n/a	n/a	n/a
3678707	RECOG_TARGET	n/a	LTP142	ltpFR	2	9	0	JAPAN	749	5	1	n/a	n/a	n/a	n/a	n/a
3679394	RECOG_RESP	n/a	LTP142	ltpFR	2	9	0	JAPAN	749	n/a	1	n/a	n/a	n/a	n/a	n/a
3680709	RECOG_CONF	n/a	LTP142	ltpFR	2	9	0	JAPAN	749	5	1	n/a	n/a	n/a	n/a	n/a
3682144	RECOG_TARGET	n/a	LTP142	ltpFR	2	9	1	KITE	779	5	0	n/a	n/a	n/a	n/a	n/a
3682844	RECOG_RESP	n/a	LTP142	ltpFR	2	9	1	KITE	779	n/a	0	n/a	n/a	n/a	n/a	n/a
3684187	RECOG_CONF	n/a	LTP142	ltpFR	2	9	1	KITE	779	5	0	n/a	n/a	n/a	n/a	n/a
3685665	RECOG_TARGET	n/a	LTP142	ltpFR	2	9	0	SAXOPHONE	1240	5	1	n/a	n/a	n/a	n/a	n/a
3686379	RECOG_RESP	n/a	LTP142	ltpFR	2	9	0	SAXOPHONE	1240	n/a	1	n/a	n/a	n/a	n/a	n/a
3687609	RECOG_CONF	n/a	LTP142	ltpFR	2	9	0	SAXOPHONE	1240	5	1	n/a	n/a	n/a	n/a	n/a
3689120	RECOG_TARGET	n/a	LTP142	ltpFR	2	9	1	HIP	710	1	0	n/a	n/a	n/a	n/a	n/a
3691042	RECOG_RESP	n/a	LTP142	ltpFR	2	9	1	HIP	710	n/a	0	n/a	n/a	n/a	n/a	n/a
3692219	RECOG_CONF	n/a	LTP142	ltpFR	2	9	1	HIP	710	1	0	n/a	n/a	n/a	n/a	n/a
3693631	RECOG_TARGET	n/a	LTP142	ltpFR	2	9	1	SHAMPOO	1274	5	0	n/a	n/a	n/a	n/a	n/a
3694286	RECOG_RESP	n/a	LTP142	ltpFR	2	9	1	SHAMPOO	1274	n/a	0	n/a	n/a	n/a	n/a	n/a
3695531	RECOG_CONF	n/a	LTP142	ltpFR	2	9	1	SHAMPOO	1274	5	0	n/a	n/a	n/a	n/a	n/a
3696936	RECOG_TARGET	n/a	LTP142	ltpFR	2	9	0	SALESMAN	1225	3	1	n/a	n/a	n/a	n/a	n/a
3697871	RECOG_RESP	n/a	LTP142	ltpFR	2	9	0	SALESMAN	1225	n/a	1	n/a	n/a	n/a	n/a	n/a
3699143	RECOG_CONF	n/a	LTP142	ltpFR	2	9	0	SALESMAN	1225	3	1	n/a	n/a	n/a	n/a	n/a
3700698	RECOG_TARGET	n/a	LTP142	ltpFR	2	9	1	CORAL	378	5	1	n/a	n/a	n/a	n/a	n/a
3701597	RECOG_RESP	n/a	LTP142	ltpFR	2	9	1	CORAL	378	n/a	1	n/a	n/a	n/a	n/a	n/a
3703043	RECOG_CONF	n/a	LTP142	ltpFR	2	9	1	CORAL	378	5	1	n/a	n/a	n/a	n/a	n/a
3704610	RECOG_TARGET	n/a	LTP142	ltpFR	2	9	-1	VEST	1559	5	-1	n/a	n/a	n/a	n/a	n/a
3705326	RECOG_RESP	n/a	LTP142	ltpFR	2	9	-1	VEST	1559	n/a	-1	n/a	n/a	n/a	n/a	n/a
3706546	RECOG_CONF	n/a	LTP142	ltpFR	2	9	-1	VEST	1559	5	-1	n/a	n/a	n/a	n/a	n/a
3708006	RECOG_TARGET	n/a	LTP142	ltpFR	2	9	1	VINEGAR	1569	5	0	n/a	n/a	n/a	n/a	n/a
3708715	RECOG_RESP	n/a	LTP142	ltpFR	2	9	1	VINEGAR	1569	n/a	0	n/a	n/a	n/a	n/a	n/a
3709978	RECOG_CONF	n/a	LTP142	ltpFR	2	9	1	VINEGAR	1569	5	0	n/a	n/a	n/a	n/a	n/a
3711402	RECOG_LURE	n/a	LTP142	ltpFR	2	9	n/a	GATE	625	4	n/a	n/a	n/a	n/a	n/a	n/a
3712149	RECOG_RESP	n/a	LTP142	ltpFR	2	9	n/a	GATE	625	n/a	n/a	n/a	n/a	n/a	n/a	n/a
3713263	RECOG_CONF	n/a	LTP142	ltpFR	2	9	n/a	GATE	625	4	n/a	n/a	n/a	n/a	n/a	n/a
3716572	REC_START	n/a	LTP142	ltpFR	2	10	n/a	n/a	n/a	n/a	n/a	n/a	n/a	n/a	n/a	n/a
3716604	RECOG_TARGET	n/a	LTP142	ltpFR	2	10	0	TERRITORY	1452	5	1	n/a	n/a	n/a	n/a	n/a
3717380	RECOG_RESP	n/a	LTP142	ltpFR	2	10	0	TERRITORY	1452	n/a	1	n/a	n/a	n/a	n/a	n/a
3718742	RECOG_CONF	n/a	LTP142	ltpFR	2	10	0	TERRITORY	1452	5	1	n/a	n/a	n/a	n/a	n/a
3720250	RECOG_TARGET	n/a	LTP142	ltpFR	2	10	0	LETTUCE	814	5	0	n/a	n/a	n/a	n/a	n/a
3720820	RECOG_RESP	n/a	LTP142	ltpFR	2	10	0	LETTUCE	814	n/a	0	n/a	n/a	n/a	n/a	n/a
3722237	RECOG_CONF	n/a	LTP142	ltpFR	2	10	0	LETTUCE	814	5	0	n/a	n/a	n/a	n/a	n/a
3723721	RECOG_TARGET	n/a	LTP142	ltpFR	2	10	-1	SLIME	1327	5	-1	n/a	n/a	n/a	n/a	n/a
3724862	RECOG_RESP	n/a	LTP142	ltpFR	2	10	-1	SLIME	1327	n/a	-1	n/a	n/a	n/a	n/a	n/a
3726145	RECOG_CONF	n/a	LTP142	ltpFR	2	10	-1	SLIME	1327	5	-1	n/a	n/a	n/a	n/a	n/a
3727916	RECOG_TARGET	n/a	LTP142	ltpFR	2	10	0	CRUMB	416	5	0	n/a	n/a	n/a	n/a	n/a
3728452	RECOG_RESP	n/a	LTP142	ltpFR	2	10	0	CRUMB	416	n/a	0	n/a	n/a	n/a	n/a	n/a
3729907	RECOG_CONF	n/a	LTP142	ltpFR	2	10	0	CRUMB	416	5	0	n/a	n/a	n/a	n/a	n/a
3731654	RECOG_TARGET	n/a	LTP142	ltpFR	2	10	-1	FLOUR	583	5	-1	n/a	n/a	n/a	n/a	n/a
3732262	RECOG_RESP	n/a	LTP142	ltpFR	2	10	-1	FLOUR	583	n/a	-1	n/a	n/a	n/a	n/a	n/a
3733678	RECOG_CONF	n/a	LTP142	ltpFR	2	10	-1	FLOUR	583	5	-1	n/a	n/a	n/a	n/a	n/a
3735200	RECOG_TARGET	n/a	LTP142	ltpFR	2	10	0	MOTOR	922	5	1	n/a	n/a	n/a	n/a	n/a
3735793	RECOG_RESP	n/a	LTP142	ltpFR	2	10	0	MOTOR	922	n/a	1	n/a	n/a	n/a	n/a	n/a
3737230	RECOG_CONF	n/a	LTP142	ltpFR	2	10	0	MOTOR	922	5	1	n/a	n/a	n/a	n/a	n/a
3738621	RECOG_TARGET	n/a	LTP142	ltpFR	2	10	1	OTTER	986	3	1	n/a	n/a	n/a	n/a	n/a
3739659	RECOG_RESP	n/a	LTP142	ltpFR	2	10	1	OTTER	986	n/a	1	n/a	n/a	n/a	n/a	n/a
3740694	RECOG_CONF	n/a	LTP142	ltpFR	2	10	1	OTTER	986	3	1	n/a	n/a	n/a	n/a	n/a
3742216	RECOG_TARGET	n/a	LTP142	ltpFR	2	10	-1	STRAW	1390	5	-1	n/a	n/a	n/a	n/a	n/a
3742882	RECOG_RESP	n/a	LTP142	ltpFR	2	10	-1	STRAW	1390	n/a	-1	n/a	n/a	n/a	n/a	n/a
3744144	RECOG_CONF	n/a	LTP142	ltpFR	2	10	-1	STRAW	1390	5	-1	n/a	n/a	n/a	n/a	n/a
3745679	RECOG_TARGET	n/a	LTP142	ltpFR	2	10	1	FIG	563	5	0	n/a	n/a	n/a	n/a	n/a
3746309	RECOG_RESP	n/a	LTP142	ltpFR	2	10	1	FIG	563	n/a	0	n/a	n/a	n/a	n/a	n/a
3747646	RECOG_CONF	n/a	LTP142	ltpFR	2	10	1	FIG	563	5	0	n/a	n/a	n/a	n/a	n/a
3748950	RECOG_TARGET	n/a	LTP142	ltpFR	2	10	-1	BUSH	202	5	-1	n/a	n/a	n/a	n/a	n/a
3749587	RECOG_RESP	n/a	LTP142	ltpFR	2	10	-1	BUSH	202	n/a	-1	n/a	n/a	n/a	n/a	n/a
3751008	RECOG_CONF	n/a	LTP142	ltpFR	2	10	-1	BUSH	202	5	-1	n/a	n/a	n/a	n/a	n/a
3752646	RECOG_LURE	n/a	LTP142	ltpFR	2	10	n/a	SUN	1406	5	n/a	n/a	n/a	n/a	n/a	n/a
3753369	RECOG_RESP	n/a	LTP142	ltpFR	2	10	n/a	SUN	1406	n/a	n/a	n/a	n/a	n/a	n/a	n/a
3754706	RECOG_CONF	n/a	LTP142	ltpFR	2	10	n/a	SUN	1406	5	n/a	n/a	n/a	n/a	n/a	n/a
3756109	RECOG_LURE	n/a	LTP142	ltpFR	2	10	n/a	STETHOSCOPE	1379	5	n/a	n/a	n/a	n/a	n/a	n/a
3756998	RECOG_RESP	n/a	LTP142	ltpFR	2	10	n/a	STETHOSCOPE	1379	n/a	n/a	n/a	n/a	n/a	n/a	n/a
3758152	RECOG_CONF	n/a	LTP142	ltpFR	2	10	n/a	STETHOSCOPE	1379	5	n/a	n/a	n/a	n/a	n/a	n/a
3759729	RECOG_TARGET	n/a	LTP142	ltpFR	2	10	0	GRAPE	654	1	0	n/a	n/a	n/a	n/a	n/a
3760635	RECOG_RESP	n/a	LTP142	ltpFR	2	10	0	GRAPE	654	n/a	0	n/a	n/a	n/a	n/a	n/a
3761994	RECOG_CONF	n/a	LTP142	ltpFR	2	10	0	GRAPE	654	1	0	n/a	n/a	n/a	n/a	n/a
3763335	RECOG_TARGET	n/a	LTP142	ltpFR	2	10	1	SHELTER	1282	4	0	n/a	n/a	n/a	n/a	n/a
3764516	RECOG_RESP	n/a	LTP142	ltpFR	2	10	1	SHELTER	1282	n/a	0	n/a	n/a	n/a	n/a	n/a
