onset	duration	trial_type	sample	stim_file	subject	experiment	session	trial	task	item_name	item_num	recog_resp	recog_conf	resp	color_r	color_g	color_b	case	font
253.772	n/a	SESS_START	126886	n/a	LTP131	ltpFR	1	n/a	n/a	n/a	n/a	0	5	n/a	n/a	n/a	n/a	n/a	n/a
353.192	n/a	WORD	176596	wordpools/wasnorm_wordpool.txt	LTP131	ltpFR	1	1	1	GROUND	666	1	n/a	0	0.422607421875	0.5869140625	0	upper	zerothre.ttf
357.326	n/a	WORD	178663	wordpools/wasnorm_wordpool.txt	LTP131	ltpFR	1	1	1	MOSS	918	n/a	n/a	1	0.422607421875	0.5869140625	0	upper	zerothre.ttf
361.282	n/a	WORD	180641	wordpools/wasnorm_wordpool.txt	LTP131	ltpFR	1	1	0	TIMBER	1469	n/a	n/a	1	0.57763671875	0.412841796875	1	lower	amplitud.ttf
365.272	n/a	WORD	182636	wordpools/wasnorm_wordpool.txt	LTP131	ltpFR	1	1	0	JEWEL	757	n/a	n/a	0	0.57763671875	0.412841796875	1	lower	amplitud.ttf
369.388	n/a	WORD	184694	wordpools/wasnorm_wordpool.txt	LTP131	ltpFR	1	1	0	GLUE	643	n/a	n/a	0	0.57763671875	0.412841796875	1	lower	amplitud.ttf
373.288	n/a	WORD	186644	wordpools/wasnorm_wordpool.txt	LTP131	ltpFR	1	1	0	KITTEN	780	n/a	n/a	0	0.57763671875	0.412841796875	1	lower	amplitud.ttf
377.252	n/a	WORD	188626	wordpools/wasnorm_wordpool.txt	LTP131	ltpFR	1	1	0	FORT	595	n/a	n/a	1	0.57763671875	0.412841796875	1	lower	amplitud.ttf
381.092	n/a	WORD	190546	wordpools/wasnorm_wordpool.txt	LTP131	ltpFR	1	1	0	BARLEY	88	n/a	n/a	0	0.57763671875	0.412841796875	1	lower	amplitud.ttf
385.134	n/a	WORD	192567	wordpools/wasnorm_wordpool.txt	LTP131	ltpFR	1	1	1	CHAMPAGNE	278	n/a	n/a	0	0.422607421875	0.5869140625	0	upper	zerothre.ttf
389.116	n/a	WORD	194558	wordpools/wasnorm_wordpool.txt	LTP131	ltpFR	1	1	1	PARIS	1014	n/a	n/a	0	0.422607421875	0.5869140625	0	upper	zerothre.ttf
393.322	n/a	WORD	196661	wordpools/wasnorm_wordpool.txt	LTP131	ltpFR	1	1	1	SAPPHIRE	1234	n/a	n/a	0	0.422607421875	0.5869140625	0	upper	zerothre.ttf
397.338	n/a	WORD	198669	wordpools/wasnorm_wordpool.txt	LTP131	ltpFR	1	1	1	TICKET	1464	n/a	n/a	0	0.422607421875	0.5869140625	0	upper	zerothre.ttf
401.42	n/a	WORD	200710	wordpools/wasnorm_wordpool.txt	LTP131	ltpFR	1	1	1	PILOT	1070	n/a	n/a	1	0.422607421875	0.5869140625	0	upper	zerothre.ttf
405.594	n/a	WORD	202797	wordpools/wasnorm_wordpool.txt	LTP131	ltpFR	1	1	1	MARSH	874	n/a	n/a	0	0.422607421875	0.5869140625	0	upper	zerothre.ttf
409.744	n/a	WORD	204872	wordpools/wasnorm_wordpool.txt	LTP131	ltpFR	1	1	0	BOXER	160	n/a	n/a	1	0.57763671875	0.412841796875	1	lower	amplitud.ttf
413.716	n/a	WORD	206858	wordpools/wasnorm_wordpool.txt	LTP131	ltpFR	1	1	0	RANCH	1166	n/a	n/a	1	0.57763671875	0.412841796875	1	lower	amplitud.ttf
419.49	n/a	REC_START	209745	n/a	LTP131	ltpFR	1	1	n/a	n/a	n/a	n/a	n/a	n/a	n/a	n/a	n/a	n/a	n/a
420.788	n/a	REC_WORD	210394	wordpools/wasnorm_wordpool.txt	LTP131	ltpFR	1	1	0	BOXER	160	n/a	n/a	1	n/a	n/a	n/a	n/a	n/a
422.1	n/a	REC_WORD	211050	wordpools/wasnorm_wordpool.txt	LTP131	ltpFR	1	1	0	RANCH	1166	n/a	n/a	1	n/a	n/a	n/a	n/a	n/a
423.552	n/a	REC_WORD	211776	wordpools/wasnorm_wordpool.txt	LTP131	ltpFR	1	1	1	PILOT	1070	n/a	n/a	1	n/a	n/a	n/a	n/a	n/a
425.996	n/a	REC_WORD	212998	wordpools/wasnorm_wordpool.txt	LTP131	ltpFR	1	1	1	MARSH	874	n/a	n/a	0	n/a	n/a	n/a	n/a	n/a
427.562	n/a	REC_WORD	213781	wordpools/wasnorm_wordpool.txt	LTP131	ltpFR	1	1	1	GROUND	666	n/a	n/a	0	n/a	n/a	n/a	n/a	n/a
432.158	n/a	REC_WORD	216079	wordpools/wasnorm_wordpool.txt	LTP131	ltpFR	1	1	0	JEWEL	757	n/a	n/a	0	n/a	n/a	n/a	n/a	n/a
433.854	n/a	REC_WORD	216927	wordpools/wasnorm_wordpool.txt	LTP131	ltpFR	1	1	0	KITTEN	780	n/a	n/a	0	n/a	n/a	n/a	n/a	n/a
436.438	n/a	REC_WORD	218219	wordpools/wasnorm_wordpool.txt	LTP131	ltpFR	1	1	0	FORT	595	n/a	n/a	1	n/a	n/a	n/a	n/a	n/a
444.73	n/a	REC_WORD	222365	wordpools/wasnorm_wordpool.txt	LTP131	ltpFR	1	1	0	BOXER	160	n/a	n/a	1	n/a	n/a	n/a	n/a	n/a
474.518	n/a	REC_WORD	237259	wordpools/wasnorm_wordpool.txt	LTP131	ltpFR	1	1	0	GLUE	643	n/a	n/a	0	n/a	n/a	n/a	n/a	n/a
507.38	n/a	WORD	253690	wordpools/wasnorm_wordpool.txt	LTP131	ltpFR	1	2	0	NOVEL	960	n/a	n/a	0	0.57763671875	0.412841796875	1	lower	amplitud.ttf
511.404	n/a	WORD	255702	wordpools/wasnorm_wordpool.txt	LTP131	ltpFR	1	2	0	ACTOR	5	n/a	n/a	1	0.57763671875	0.412841796875	1	lower	amplitud.ttf
515.46	n/a	WORD	257730	wordpools/wasnorm_wordpool.txt	LTP131	ltpFR	1	2	0	CALENDAR	221	n/a	n/a	0	0.57763671875	0.412841796875	1	lower	amplitud.ttf
519.576	n/a	WORD	259788	wordpools/wasnorm_wordpool.txt	LTP131	ltpFR	1	2	0	DELINQUENT	445	n/a	n/a	1	0.57763671875	0.412841796875	1	lower	amplitud.ttf
523.734	n/a	WORD	261867	wordpools/wasnorm_wordpool.txt	LTP131	ltpFR	1	2	1	TORTOISE	1486	n/a	n/a	1	0.422607421875	0.5869140625	0	upper	zerothre.ttf
527.598	n/a	WORD	263799	wordpools/wasnorm_wordpool.txt	LTP131	ltpFR	1	2	1	DIARY	460	n/a	n/a	0	0.422607421875	0.5869140625	0	upper	zerothre.ttf
531.53	n/a	WORD	265765	wordpools/wasnorm_wordpool.txt	LTP131	ltpFR	1	2	1	CASTLE	256	n/a	n/a	0	0.422607421875	0.5869140625	0	upper	zerothre.ttf
535.588	n/a	WORD	267794	wordpools/wasnorm_wordpool.txt	LTP131	ltpFR	1	2	1	QUEEN	1149	n/a	n/a	1	0.422607421875	0.5869140625	0	upper	zerothre.ttf
539.528	n/a	WORD	269764	wordpools/wasnorm_wordpool.txt	LTP131	ltpFR	1	2	1	STEM	1376	n/a	n/a	1	0.422607421875	0.5869140625	0	upper	zerothre.ttf
543.652	n/a	WORD	271826	wordpools/wasnorm_wordpool.txt	LTP131	ltpFR	1	2	0	BARN	89	n/a	n/a	1	0.57763671875	0.412841796875	1	lower	amplitud.ttf
547.642	n/a	WORD	273821	wordpools/wasnorm_wordpool.txt	LTP131	ltpFR	1	2	0	ALLIGATOR	16	n/a	n/a	1	0.57763671875	0.412841796875	1	lower	amplitud.ttf
551.8	n/a	WORD	275900	wordpools/wasnorm_wordpool.txt	LTP131	ltpFR	1	2	0	BOY	161	n/a	n/a	1	0.57763671875	0.412841796875	1	lower	amplitud.ttf
555.848	n/a	WORD	277924	wordpools/wasnorm_wordpool.txt	LTP131	ltpFR	1	2	0	CLIFF	322	n/a	n/a	1	0.57763671875	0.412841796875	1	lower	amplitud.ttf
559.922	n/a	WORD	279961	wordpools/wasnorm_wordpool.txt	LTP131	ltpFR	1	2	1	SLOPE	1328	n/a	n/a	0	0.422607421875	0.5869140625	0	upper	zerothre.ttf
564.012	n/a	WORD	282006	wordpools/wasnorm_wordpool.txt	LTP131	ltpFR	1	2	1	STAGE	1366	n/a	n/a	0	0.422607421875	0.5869140625	0	upper	zerothre.ttf
567.954	n/a	WORD	283977	wordpools/wasnorm_wordpool.txt	LTP131	ltpFR	1	2	1	PALM	1007	n/a	n/a	0	0.422607421875	0.5869140625	0	upper	zerothre.ttf
573.902	n/a	REC_START	286951	n/a	LTP131	ltpFR	1	2	n/a	n/a	n/a	n/a	n/a	n/a	n/a	n/a	n/a	n/a	n/a
574.444	n/a	REC_WORD	287222	wordpools/wasnorm_wordpool.txt	LTP131	ltpFR	1	2	1	SLOPE	1328	n/a	n/a	0	n/a	n/a	n/a	n/a	n/a
575.662	n/a	REC_WORD	287831	wordpools/wasnorm_wordpool.txt	LTP131	ltpFR	1	2	1	STAGE	1366	n/a	n/a	0	n/a	n/a	n/a	n/a	n/a
577.22	n/a	REC_WORD	288610	wordpools/wasnorm_wordpool.txt	LTP131	ltpFR	1	2	1	PALM	1007	n/a	n/a	0	n/a	n/a	n/a	n/a	n/a
579.13	n/a	REC_WORD	289565	wordpools/wasnorm_wordpool.txt	LTP131	ltpFR	1	2	1	CASTLE	256	n/a	n/a	0	n/a	n/a	n/a	n/a	n/a
581.116	n/a	REC_WORD	290558	wordpools/wasnorm_wordpool.txt	LTP131	ltpFR	1	2	1	QUEEN	1149	n/a	n/a	1	n/a	n/a	n/a	n/a	n/a
582.398	n/a	REC_WORD	291199	wordpools/wasnorm_wordpool.txt	LTP131	ltpFR	1	2	0	ACTOR	5	n/a	n/a	1	n/a	n/a	n/a	n/a	n/a
583.54	n/a	REC_WORD	291770	wordpools/wasnorm_wordpool.txt	LTP131	ltpFR	1	2	0	DELINQUENT	445	n/a	n/a	1	n/a	n/a	n/a	n/a	n/a
588.948	n/a	REC_WORD	294474	wordpools/wasnorm_wordpool.txt	LTP131	ltpFR	1	2	0	ALLIGATOR	16	n/a	n/a	1	n/a	n/a	n/a	n/a	n/a
599.66	n/a	REC_WORD	299830	wordpools/wasnorm_wordpool.txt	LTP131	ltpFR	1	2	0	CLIFF	322	n/a	n/a	1	n/a	n/a	n/a	n/a	n/a
662.358	n/a	WORD	331179	wordpools/wasnorm_wordpool.txt	LTP131	ltpFR	1	3	0	CANDLE	229	n/a	n/a	0	0.57763671875	0.412841796875	1	lower	amplitud.ttf
666.456	n/a	WORD	333228	wordpools/wasnorm_wordpool.txt	LTP131	ltpFR	1	3	0	WAX	1597	n/a	n/a	0	0.57763671875	0.412841796875	1	lower	amplitud.ttf
670.43	n/a	WORD	335215	wordpools/wasnorm_wordpool.txt	LTP131	ltpFR	1	3	0	CRAYON	401	n/a	n/a	0	0.57763671875	0.412841796875	1	lower	amplitud.ttf
674.604	n/a	WORD	337302	wordpools/wasnorm_wordpool.txt	LTP131	ltpFR	1	3	0	MOUNTAIN	924	n/a	n/a	1	0.57763671875	0.412841796875	1	lower	amplitud.ttf
678.628	n/a	WORD	339314	wordpools/wasnorm_wordpool.txt	LTP131	ltpFR	1	3	0	SAUSAGE	1238	n/a	n/a	0	0.57763671875	0.412841796875	1	lower	amplitud.ttf
682.644	n/a	WORD	341322	wordpools/wasnorm_wordpool.txt	LTP131	ltpFR	1	3	0	NUT	965	n/a	n/a	0	0.57763671875	0.412841796875	1	lower	amplitud.ttf
686.758	n/a	WORD	343379	wordpools/wasnorm_wordpool.txt	LTP131	ltpFR	1	3	0	RAM	1165	n/a	n/a	1	0.57763671875	0.412841796875	1	lower	amplitud.ttf
690.734	n/a	WORD	345367	wordpools/wasnorm_wordpool.txt	LTP131	ltpFR	1	3	0	SKELETON	1314	n/a	n/a	1	0.57763671875	0.412841796875	1	lower	amplitud.ttf
694.632	n/a	WORD	347316	wordpools/wasnorm_wordpool.txt	LTP131	ltpFR	1	3	0	CASHEW	253	n/a	n/a	0	0.57763671875	0.412841796875	1	lower	amplitud.ttf
698.772	n/a	WORD	349386	wordpools/wasnorm_wordpool.txt	LTP131	ltpFR	1	3	0	GROCERIES	663	n/a	n/a	1	0.57763671875	0.412841796875	1	lower	amplitud.ttf
702.696	n/a	WORD	351348	wordpools/wasnorm_wordpool.txt	LTP131	ltpFR	1	3	0	BROCCOLI	176	n/a	n/a	0	0.57763671875	0.412841796875	1	lower	amplitud.ttf
706.66	n/a	WORD	353330	wordpools/wasnorm_wordpool.txt	LTP131	ltpFR	1	3	0	SOFTBALL	1343	n/a	n/a	0	0.57763671875	0.412841796875	1	lower	amplitud.ttf
710.502	n/a	WORD	355251	wordpools/wasnorm_wordpool.txt	LTP131	ltpFR	1	3	0	MALL	860	n/a	n/a	1	0.57763671875	0.412841796875	1	lower	amplitud.ttf
714.518	n/a	WORD	357259	wordpools/wasnorm_wordpool.txt	LTP131	ltpFR	1	3	0	SPINE	1353	n/a	n/a	1	0.57763671875	0.412841796875	1	lower	amplitud.ttf
718.716	n/a	WORD	359358	wordpools/wasnorm_wordpool.txt	LTP131	ltpFR	1	3	0	SERGEANT	1269	n/a	n/a	1	0.57763671875	0.412841796875	1	lower	amplitud.ttf
722.772	n/a	WORD	361386	wordpools/wasnorm_wordpool.txt	LTP131	ltpFR	1	3	0	UNIFORM	1539	n/a	n/a	0	0.57763671875	0.412841796875	1	lower	amplitud.ttf
728.406	n/a	REC_START	364203	n/a	LTP131	ltpFR	1	3	n/a	n/a	n/a	n/a	n/a	n/a	n/a	n/a	n/a	n/a	n/a
729.658	n/a	REC_WORD	364829	wordpools/wasnorm_wordpool.txt	LTP131	ltpFR	1	3	0	UNIFORM	1539	n/a	n/a	0	n/a	n/a	n/a	n/a	n/a
731.324	n/a	REC_WORD	365662	wordpools/wasnorm_wordpool.txt	LTP131	ltpFR	1	3	0	SKELETON	1314	n/a	n/a	1	n/a	n/a	n/a	n/a	n/a
735.02	n/a	REC_WORD	367510	wordpools/wasnorm_wordpool.txt	LTP131	ltpFR	1	3	0	CANDLE	229	n/a	n/a	0	n/a	n/a	n/a	n/a	n/a
736.996	n/a	REC_WORD	368498	wordpools/wasnorm_wordpool.txt	LTP131	ltpFR	1	3	0	WAX	1597	n/a	n/a	0	n/a	n/a	n/a	n/a	n/a
739.286	n/a	REC_WORD	369643	wordpools/wasnorm_wordpool.txt	LTP131	ltpFR	1	3	0	CRAYON	401	n/a	n/a	0	n/a	n/a	n/a	n/a	n/a
744.454	n/a	REC_WORD	372227	wordpools/wasnorm_wordpool.txt	LTP131	ltpFR	1	3	0	SOFTBALL	1343	n/a	n/a	0	n/a	n/a	n/a	n/a	n/a
748.232	n/a	REC_WORD	374116	wordpools/wasnorm_wordpool.txt	LTP131	ltpFR	1	3	0	MALL	860	n/a	n/a	1	n/a	n/a	n/a	n/a	n/a
754.276	n/a	REC_WORD	377138	wordpools/wasnorm_wordpool.txt	LTP131	ltpFR	1	3	0	FORT	595	n/a	n/a	1	n/a	n/a	n/a	n/a	n/a
818.652	n/a	WORD	409326	wordpools/wasnorm_wordpool.txt	LTP131	ltpFR	1	4	1	WINDSHIELD	1612	n/a	n/a	0	0.422607421875	0.5869140625	0	upper	zerothre.ttf
822.792	n/a	WORD	411396	wordpools/wasnorm_wordpool.txt	LTP131	ltpFR	1	4	1	KNUCKLE	789	n/a	n/a	0	0.422607421875	0.5869140625	0	upper	zerothre.ttf
826.958	n/a	WORD	413479	wordpools/wasnorm_wordpool.txt	LTP131	ltpFR	1	4	1	TAR	1435	n/a	n/a	0	0.422607421875	0.5869140625	0	upper	zerothre.ttf
830.89	n/a	WORD	415445	wordpools/wasnorm_wordpool.txt	LTP131	ltpFR	1	4	1	LETTUCE	814	n/a	n/a	1	0.422607421875	0.5869140625	0	upper	zerothre.ttf
834.88	n/a	WORD	417440	wordpools/wasnorm_wordpool.txt	LTP131	ltpFR	1	4	0	APPLE	33	n/a	n/a	0	0.57763671875	0.412841796875	1	lower	amplitud.ttf
839.054	n/a	WORD	419527	wordpools/wasnorm_wordpool.txt	LTP131	ltpFR	1	4	0	TELEPHONE	1445	n/a	n/a	0	0.57763671875	0.412841796875	1	lower	amplitud.ttf
843.128	n/a	WORD	421564	wordpools/wasnorm_wordpool.txt	LTP131	ltpFR	1	4	0	BOOTH	151	n/a	n/a	1	0.57763671875	0.412841796875	1	lower	amplitud.ttf
847.002	n/a	WORD	423501	wordpools/wasnorm_wordpool.txt	LTP131	ltpFR	1	4	1	MANAGER	863	n/a	n/a	1	0.422607421875	0.5869140625	0	upper	zerothre.ttf
850.976	n/a	WORD	425488	wordpools/wasnorm_wordpool.txt	LTP131	ltpFR	1	4	1	MOUSE	925	n/a	n/a	1	0.422607421875	0.5869140625	0	upper	zerothre.ttf
854.8	n/a	WORD	427400	wordpools/wasnorm_wordpool.txt	LTP131	ltpFR	1	4	1	COUGAR	387	n/a	n/a	1	0.422607421875	0.5869140625	0	upper	zerothre.ttf
858.982	n/a	WORD	429491	wordpools/wasnorm_wordpool.txt	LTP131	ltpFR	1	4	1	LADDER	793	n/a	n/a	0	0.422607421875	0.5869140625	0	upper	zerothre.ttf
862.99	n/a	WORD	431495	wordpools/wasnorm_wordpool.txt	LTP131	ltpFR	1	4	0	RECEPTIONIST	1174	n/a	n/a	1	0.57763671875	0.412841796875	1	lower	amplitud.ttf
867.062	n/a	WORD	433531	wordpools/wasnorm_wordpool.txt	LTP131	ltpFR	1	4	0	PANTHER	1009	n/a	n/a	1	0.57763671875	0.412841796875	1	lower	amplitud.ttf
871.218	n/a	WORD	435609	wordpools/wasnorm_wordpool.txt	LTP131	ltpFR	1	4	0	ARCHITECT	36	n/a	n/a	1	0.57763671875	0.412841796875	1	lower	amplitud.ttf
875.368	n/a	WORD	437684	wordpools/wasnorm_wordpool.txt	LTP131	ltpFR	1	4	0	SILK	1307	n/a	n/a	0	0.57763671875	0.412841796875	1	lower	amplitud.ttf
879.366	n/a	WORD	439683	wordpools/wasnorm_wordpool.txt	LTP131	ltpFR	1	4	0	LACE	792	n/a	n/a	0	0.57763671875	0.412841796875	1	lower	amplitud.ttf
885.116	n/a	REC_START	442558	n/a	LTP131	ltpFR	1	4	n/a	n/a	n/a	n/a	n/a	n/a	n/a	n/a	n/a	n/a	n/a
885.764	n/a	REC_WORD	442882	wordpools/wasnorm_wordpool.txt	LTP131	ltpFR	1	4	0	SILK	1307	n/a	n/a	0	n/a	n/a	n/a	n/a	n/a
887.082	n/a	REC_WORD	443541	wordpools/wasnorm_wordpool.txt	LTP131	ltpFR	1	4	0	LACE	792	n/a	n/a	0	n/a	n/a	n/a	n/a	n/a
888.294	n/a	REC_WORD	444147	wordpools/wasnorm_wordpool.txt	LTP131	ltpFR	1	4	0	ARCHITECT	36	n/a	n/a	1	n/a	n/a	n/a	n/a	n/a
889.64	n/a	REC_WORD	444820	wordpools/wasnorm_wordpool.txt	LTP131	ltpFR	1	4	0	RECEPTIONIST	1174	n/a	n/a	1	n/a	n/a	n/a	n/a	n/a
893.488	n/a	REC_WORD	446744	wordpools/wasnorm_wordpool.txt	LTP131	ltpFR	1	4	0	PANTHER	1009	n/a	n/a	1	n/a	n/a	n/a	n/a	n/a
895.304	n/a	REC_WORD	447652	wordpools/wasnorm_wordpool.txt	LTP131	ltpFR	1	4	1	COUGAR	387	n/a	n/a	1	n/a	n/a	n/a	n/a	n/a
898.884	n/a	REC_WORD	449442	wordpools/wasnorm_wordpool.txt	LTP131	ltpFR	1	4	1	MOUSE	925	n/a	n/a	1	n/a	n/a	n/a	n/a	n/a
901.664	n/a	REC_WORD	450832	wordpools/wasnorm_wordpool.txt	LTP131	ltpFR	1	4	1	KNUCKLE	789	n/a	n/a	0	n/a	n/a	n/a	n/a	n/a
905.964	n/a	REC_WORD	452982	wordpools/wasnorm_wordpool.txt	LTP131	ltpFR	1	4	1	TAR	1435	n/a	n/a	0	n/a	n/a	n/a	n/a	n/a
915.898	n/a	REC_WORD	457949	wordpools/wasnorm_wordpool.txt	LTP131	ltpFR	1	4	0	SILK	1307	n/a	n/a	0	n/a	n/a	n/a	n/a	n/a
988.468	n/a	WORD	494234	wordpools/wasnorm_wordpool.txt	LTP131	ltpFR	1	5	0	GRASS	655	n/a	n/a	0	0.57763671875	0.412841796875	1	lower	amplitud.ttf
992.34	n/a	WORD	496170	wordpools/wasnorm_wordpool.txt	LTP131	ltpFR	1	5	0	CELERY	266	n/a	n/a	0	0.57763671875	0.412841796875	1	lower	amplitud.ttf
996.382	n/a	WORD	498191	wordpools/wasnorm_wordpool.txt	LTP131	ltpFR	1	5	0	GRILL	661	n/a	n/a	1	0.57763671875	0.412841796875	1	lower	amplitud.ttf
1000.564	n/a	WORD	500282	wordpools/wasnorm_wordpool.txt	LTP131	ltpFR	1	5	0	RUM	1217	n/a	n/a	0	0.57763671875	0.412841796875	1	lower	amplitud.ttf
1004.504	n/a	WORD	502252	wordpools/wasnorm_wordpool.txt	LTP131	ltpFR	1	5	0	COLT	349	n/a	n/a	1	0.57763671875	0.412841796875	1	lower	amplitud.ttf
1008.502	n/a	WORD	504251	wordpools/wasnorm_wordpool.txt	LTP131	ltpFR	1	5	0	RIB	1188	n/a	n/a	0	0.57763671875	0.412841796875	1	lower	amplitud.ttf
1012.542	n/a	WORD	506271	wordpools/wasnorm_wordpool.txt	LTP131	ltpFR	1	5	0	SCHOOL	1248	n/a	n/a	1	0.57763671875	0.412841796875	1	lower	amplitud.ttf
1016.584	n/a	WORD	508292	wordpools/wasnorm_wordpool.txt	LTP131	ltpFR	1	5	0	BALCONY	72	n/a	n/a	1	0.57763671875	0.412841796875	1	lower	amplitud.ttf
1020.45	n/a	WORD	510225	wordpools/wasnorm_wordpool.txt	LTP131	ltpFR	1	5	0	MAMMAL	861	n/a	n/a	1	0.57763671875	0.412841796875	1	lower	amplitud.ttf
1024.482	n/a	WORD	512241	wordpools/wasnorm_wordpool.txt	LTP131	ltpFR	1	5	0	DOLPHIN	483	n/a	n/a	1	0.57763671875	0.412841796875	1	lower	amplitud.ttf
1028.654	n/a	WORD	514327	wordpools/wasnorm_wordpool.txt	LTP131	ltpFR	1	5	0	TANK	1432	n/a	n/a	1	0.57763671875	0.412841796875	1	lower	amplitud.ttf
1032.722	n/a	WORD	516361	wordpools/wasnorm_wordpool.txt	LTP131	ltpFR	1	5	0	FARM	552	n/a	n/a	1	0.57763671875	0.412841796875	1	lower	amplitud.ttf
1036.694	n/a	WORD	518347	wordpools/wasnorm_wordpool.txt	LTP131	ltpFR	1	5	0	JUG	762	n/a	n/a	0	0.57763671875	0.412841796875	1	lower	amplitud.ttf
1040.694	n/a	WORD	520347	wordpools/wasnorm_wordpool.txt	LTP131	ltpFR	1	5	0	POISON	1096	n/a	n/a	0	0.57763671875	0.412841796875	1	lower	amplitud.ttf
1044.85	n/a	WORD	522425	wordpools/wasnorm_wordpool.txt	LTP131	ltpFR	1	5	0	GRAVE	658	n/a	n/a	1	0.57763671875	0.412841796875	1	lower	amplitud.ttf
1048.882	n/a	WORD	524441	wordpools/wasnorm_wordpool.txt	LTP131	ltpFR	1	5	0	MAJOR	859	n/a	n/a	1	0.57763671875	0.412841796875	1	lower	amplitud.ttf
1054.582	n/a	REC_START	527291	n/a	LTP131	ltpFR	1	5	n/a	n/a	n/a	n/a	n/a	n/a	n/a	n/a	n/a	n/a	n/a
1055.48	n/a	REC_WORD	527740	wordpools/wasnorm_wordpool.txt	LTP131	ltpFR	1	5	0	MAJOR	859	n/a	n/a	1	n/a	n/a	n/a	n/a	n/a
1056.936	n/a	REC_WORD	528468	wordpools/wasnorm_wordpool.txt	LTP131	ltpFR	1	5	0	GRAVE	658	n/a	n/a	1	n/a	n/a	n/a	n/a	n/a
1058.452	n/a	REC_WORD	529226	wordpools/wasnorm_wordpool.txt	LTP131	ltpFR	1	5	0	GRASS	655	n/a	n/a	0	n/a	n/a	n/a	n/a	n/a
1065.266	n/a	REC_WORD	532633	wordpools/wasnorm_wordpool.txt	LTP131	ltpFR	1	5	0	RUM	1217	n/a	n/a	0	n/a	n/a	n/a	n/a	n/a
1073.904	n/a	REC_WORD	536952	wordpools/wasnorm_wordpool.txt	LTP131	ltpFR	1	5	0	DOLPHIN	483	n/a	n/a	1	n/a	n/a	n/a	n/a	n/a
1075.734	n/a	REC_WORD	537867	wordpools/wasnorm_wordpool.txt	LTP131	ltpFR	1	5	0	MAMMAL	861	n/a	n/a	1	n/a	n/a	n/a	n/a	n/a
1077.52	n/a	REC_WORD	538760	wordpools/wasnorm_wordpool.txt	LTP131	ltpFR	1	5	0	TANK	1432	n/a	n/a	1	n/a	n/a	n/a	n/a	n/a
1092.472	n/a	REC_WORD	546236	wordpools/wasnorm_wordpool.txt	LTP131	ltpFR	1	5	0	GRASS	655	n/a	n/a	0	n/a	n/a	n/a	n/a	n/a
1102.036	n/a	REC_WORD	551018	wordpools/wasnorm_wordpool.txt	LTP131	ltpFR	1	5	0	GRILL	661	n/a	n/a	1	n/a	n/a	n/a	n/a	n/a
1147.736	n/a	WORD	573868	wordpools/wasnorm_wordpool.txt	LTP131	ltpFR	1	6	-1	JET	756	n/a	n/a	-1	1.0	1.0	1	upper	Verdana.ttf
1151.718	n/a	WORD	575859	wordpools/wasnorm_wordpool.txt	LTP131	ltpFR	1	6	-1	KEYBOARD	774	n/a	n/a	-1	1.0	1.0	1	upper	Verdana.ttf
1155.666	n/a	WORD	577833	wordpools/wasnorm_wordpool.txt	LTP131	ltpFR	1	6	-1	JUGGLER	763	n/a	n/a	-1	1.0	1.0	1	upper	Verdana.ttf
1159.59	n/a	WORD	579795	wordpools/wasnorm_wordpool.txt	LTP131	ltpFR	1	6	-1	COMPANION	357	n/a	n/a	-1	1.0	1.0	1	upper	Verdana.ttf
1163.464	n/a	WORD	581732	wordpools/wasnorm_wordpool.txt	LTP131	ltpFR	1	6	-1	ADOLESCENT	7	n/a	n/a	-1	1.0	1.0	1	upper	Verdana.ttf
1167.338	n/a	WORD	583669	wordpools/wasnorm_wordpool.txt	LTP131	ltpFR	1	6	-1	KEEPER	769	n/a	n/a	-1	1.0	1.0	1	upper	Verdana.ttf
1171.386	n/a	WORD	585693	wordpools/wasnorm_wordpool.txt	LTP131	ltpFR	1	6	-1	FEAST	556	n/a	n/a	-1	1.0	1.0	1	upper	Verdana.ttf
1175.502	n/a	WORD	587751	wordpools/wasnorm_wordpool.txt	LTP131	ltpFR	1	6	-1	RICE	1190	n/a	n/a	-1	1.0	1.0	1	upper	Verdana.ttf
1179.584	n/a	WORD	589792	wordpools/wasnorm_wordpool.txt	LTP131	ltpFR	1	6	-1	BULL	193	n/a	n/a	-1	1.0	1.0	1	upper	Verdana.ttf
1183.458	n/a	WORD	591729	wordpools/wasnorm_wordpool.txt	LTP131	ltpFR	1	6	-1	FIGHTER	564	n/a	n/a	-1	1.0	1.0	1	upper	Verdana.ttf
1187.566	n/a	WORD	593783	wordpools/wasnorm_wordpool.txt	LTP131	ltpFR	1	6	-1	ANCESTOR	20	n/a	n/a	-1	1.0	1.0	1	upper	Verdana.ttf
1191.514	n/a	WORD	595757	wordpools/wasnorm_wordpool.txt	LTP131	ltpFR	1	6	-1	ATOM	55	n/a	n/a	-1	1.0	1.0	1	upper	Verdana.ttf
1195.546	n/a	WORD	597773	wordpools/wasnorm_wordpool.txt	LTP131	ltpFR	1	6	-1	PROTON	1132	n/a	n/a	-1	1.0	1.0	1	upper	Verdana.ttf
1199.578	n/a	WORD	599789	wordpools/wasnorm_wordpool.txt	LTP131	ltpFR	1	6	-1	DAUGHTER	442	n/a	n/a	-1	1.0	1.0	1	upper	Verdana.ttf
1203.726	n/a	WORD	601863	wordpools/wasnorm_wordpool.txt	LTP131	ltpFR	1	6	-1	CHECK	284	n/a	n/a	-1	1.0	1.0	1	upper	Verdana.ttf
1207.768	n/a	WORD	603884	wordpools/wasnorm_wordpool.txt	LTP131	ltpFR	1	6	-1	TOURIST	1488	n/a	n/a	-1	1.0	1.0	1	upper	Verdana.ttf
1213.758	n/a	REC_START	606879	n/a	LTP131	ltpFR	1	6	n/a	n/a	n/a	n/a	n/a	n/a	n/a	n/a	n/a	n/a	n/a
1214.41	n/a	REC_WORD	607205	wordpools/wasnorm_wordpool.txt	LTP131	ltpFR	1	6	-1	CHECK	284	n/a	n/a	-1	n/a	n/a	n/a	n/a	n/a
1215.768	n/a	REC_WORD	607884	wordpools/wasnorm_wordpool.txt	LTP131	ltpFR	1	6	-1	TOURIST	1488	n/a	n/a	-1	n/a	n/a	n/a	n/a	n/a
1217.33	n/a	REC_WORD	608665	wordpools/wasnorm_wordpool.txt	LTP131	ltpFR	1	6	-1	KEYBOARD	774	n/a	n/a	-1	n/a	n/a	n/a	n/a	n/a
1220.168	n/a	REC_WORD	610084	wordpools/wasnorm_wordpool.txt	LTP131	ltpFR	1	6	-1	ATOM	55	n/a	n/a	-1	n/a	n/a	n/a	n/a	n/a
1221.754	n/a	REC_WORD	610877	wordpools/wasnorm_wordpool.txt	LTP131	ltpFR	1	6	-1	PROTON	1132	n/a	n/a	-1	n/a	n/a	n/a	n/a	n/a
1225.306	n/a	REC_WORD	612653	wordpools/wasnorm_wordpool.txt	LTP131	ltpFR	1	6	-1	BULL	193	n/a	n/a	-1	n/a	n/a	n/a	n/a	n/a
1226.968	n/a	REC_WORD	613484	wordpools/wasnorm_wordpool.txt	LTP131	ltpFR	1	6	-1	FIGHTER	564	n/a	n/a	-1	n/a	n/a	n/a	n/a	n/a
1232.436	n/a	REC_WORD	616218	wordpools/wasnorm_wordpool.txt	LTP131	ltpFR	1	6	-1	ADOLESCENT	7	n/a	n/a	-1	n/a	n/a	n/a	n/a	n/a
1240.558	n/a	REC_WORD	620279	wordpools/wasnorm_wordpool.txt	LTP131	ltpFR	1	6	-1	ANCESTOR	20	n/a	n/a	-1	n/a	n/a	n/a	n/a	n/a
1242.294	n/a	REC_WORD	621147	wordpools/wasnorm_wordpool.txt	LTP131	ltpFR	1	6	-1	DAUGHTER	442	n/a	n/a	-1	n/a	n/a	n/a	n/a	n/a
1247.982	n/a	REC_WORD	623991	wordpools/wasnorm_wordpool.txt	LTP131	ltpFR	1	6	-1	COMPANION	357	n/a	n/a	-1	n/a	n/a	n/a	n/a	n/a
1312.826	n/a	WORD	656413	wordpools/wasnorm_wordpool.txt	LTP131	ltpFR	1	7	1	MARKET	871	n/a	n/a	0	0.422607421875	0.5869140625	0	upper	zerothre.ttf
1316.926	n/a	WORD	658463	wordpools/wasnorm_wordpool.txt	LTP131	ltpFR	1	7	1	DISH	474	n/a	n/a	0	0.422607421875	0.5869140625	0	upper	zerothre.ttf
1320.842	n/a	WORD	660421	wordpools/wasnorm_wordpool.txt	LTP131	ltpFR	1	7	1	STRAW	1390	n/a	n/a	1	0.422607421875	0.5869140625	0	upper	zerothre.ttf
1324.682	n/a	WORD	662341	wordpools/wasnorm_wordpool.txt	LTP131	ltpFR	1	7	1	BRANDY	169	n/a	n/a	0	0.422607421875	0.5869140625	0	upper	zerothre.ttf
1328.706	n/a	WORD	664353	wordpools/wasnorm_wordpool.txt	LTP131	ltpFR	1	7	1	COWBOY	395	n/a	n/a	1	0.422607421875	0.5869140625	0	upper	zerothre.ttf
1332.588	n/a	WORD	666294	wordpools/wasnorm_wordpool.txt	LTP131	ltpFR	1	7	1	CHOCOLATE	306	n/a	n/a	0	0.422607421875	0.5869140625	0	upper	zerothre.ttf
1336.462	n/a	WORD	668231	wordpools/wasnorm_wordpool.txt	LTP131	ltpFR	1	7	1	PORPOISE	1109	n/a	n/a	1	0.422607421875	0.5869140625	0	upper	zerothre.ttf
1340.494	n/a	WORD	670247	wordpools/wasnorm_wordpool.txt	LTP131	ltpFR	1	7	1	RING	1193	n/a	n/a	0	0.422607421875	0.5869140625	0	upper	zerothre.ttf
1344.484	n/a	WORD	672242	wordpools/wasnorm_wordpool.txt	LTP131	ltpFR	1	7	1	SADDLE	1221	n/a	n/a	n/a	0.422607421875	0.5869140625	0	upper	zerothre.ttf
1347.508	n/a	SLOW_MSG	673754	n/a	LTP131	ltpFR	1	7	n/a	n/a	n/a	n/a	n/a	n/a	n/a	n/a	n/a	n/a	n/a
1349.916	n/a	WORD	674958	wordpools/wasnorm_wordpool.txt	LTP131	ltpFR	1	7	1	RIDER	1191	n/a	n/a	1	0.422607421875	0.5869140625	0	upper	zerothre.ttf
1354.056	n/a	WORD	677028	wordpools/wasnorm_wordpool.txt	LTP131	ltpFR	1	7	1	PEOPLE	1046	n/a	n/a	1	0.422607421875	0.5869140625	0	upper	zerothre.ttf
1357.964	n/a	WORD	678982	wordpools/wasnorm_wordpool.txt	LTP131	ltpFR	1	7	1	AUDIENCE	59	n/a	n/a	1	0.422607421875	0.5869140625	0	upper	zerothre.ttf
1361.896	n/a	WORD	680948	wordpools/wasnorm_wordpool.txt	LTP131	ltpFR	1	7	1	COBBLER	335	n/a	n/a	0	0.422607421875	0.5869140625	0	upper	zerothre.ttf
1366.086	n/a	WORD	683043	wordpools/wasnorm_wordpool.txt	LTP131	ltpFR	1	7	1	BELL	118	n/a	n/a	0	0.422607421875	0.5869140625	0	upper	zerothre.ttf
1370.142	n/a	WORD	685071	wordpools/wasnorm_wordpool.txt	LTP131	ltpFR	1	7	1	ROAD	1196	n/a	n/a	0	0.422607421875	0.5869140625	0	upper	zerothre.ttf
1373.958	n/a	WORD	686979	wordpools/wasnorm_wordpool.txt	LTP131	ltpFR	1	7	1	LANDSCAPE	799	n/a	n/a	0	0.422607421875	0.5869140625	0	upper	zerothre.ttf
1379.592	n/a	REC_START	689796	n/a	LTP131	ltpFR	1	7	n/a	n/a	n/a	n/a	n/a	n/a	n/a	n/a	n/a	n/a	n/a
1380.036	n/a	REC_WORD	690018	wordpools/wasnorm_wordpool.txt	LTP131	ltpFR	1	7	1	COBBLER	335	n/a	n/a	0	n/a	n/a	n/a	n/a	n/a
1380.978	n/a	REC_WORD	690489	wordpools/wasnorm_wordpool.txt	LTP131	ltpFR	1	7	1	BELL	118	n/a	n/a	0	n/a	n/a	n/a	n/a	n/a
1381.96	n/a	REC_WORD	690980	wordpools/wasnorm_wordpool.txt	LTP131	ltpFR	1	7	1	ROAD	1196	n/a	n/a	0	n/a	n/a	n/a	n/a	n/a
1383.024	n/a	REC_WORD	691512	wordpools/wasnorm_wordpool.txt	LTP131	ltpFR	1	7	1	LANDSCAPE	799	n/a	n/a	0	n/a	n/a	n/a	n/a	n/a
1393.29	n/a	REC_WORD	696645	wordpools/wasnorm_wordpool.txt	LTP131	ltpFR	1	7	1	SADDLE	1221	n/a	n/a	n/a	n/a	n/a	n/a	n/a	n/a
1395.062	n/a	REC_WORD	697531	wordpools/wasnorm_wordpool.txt	LTP131	ltpFR	1	7	1	PORPOISE	1109	n/a	n/a	1	n/a	n/a	n/a	n/a	n/a
1398.748	n/a	REC_WORD	699374	wordpools/wasnorm_wordpool.txt	LTP131	ltpFR	1	7	1	STRAW	1390	n/a	n/a	1	n/a	n/a	n/a	n/a	n/a
1401.472	n/a	REC_WORD	700736	wordpools/wasnorm_wordpool.txt	LTP131	ltpFR	1	7	1	BRANDY	169	n/a	n/a	0	n/a	n/a	n/a	n/a	n/a
1408.258	n/a	REC_WORD	704129	wordpools/wasnorm_wordpool.txt	LTP131	ltpFR	1	7	1	COWBOY	395	n/a	n/a	1	n/a	n/a	n/a	n/a	n/a
1435.676	n/a	REC_WORD	717838	wordpools/wasnorm_wordpool.txt	LTP131	ltpFR	1	7	1	COBBLER	335	n/a	n/a	0	n/a	n/a	n/a	n/a	n/a
1465.38	n/a	WORD	732690	wordpools/wasnorm_wordpool.txt	LTP131	ltpFR	1	8	1	GOOSE	649	n/a	n/a	1	0.422607421875	0.5869140625	0	upper	zerothre.ttf
1469.204	n/a	WORD	734602	wordpools/wasnorm_wordpool.txt	LTP131	ltpFR	1	8	1	HAY	693	n/a	n/a	0	0.422607421875	0.5869140625	0	upper	zerothre.ttf
1473.202	n/a	WORD	736601	wordpools/wasnorm_wordpool.txt	LTP131	ltpFR	1	8	1	UMPIRE	1535	n/a	n/a	1	0.422607421875	0.5869140625	0	upper	zerothre.ttf
1477.01	n/a	WORD	738505	wordpools/wasnorm_wordpool.txt	LTP131	ltpFR	1	8	1	STOVE	1388	n/a	n/a	0	0.422607421875	0.5869140625	0	upper	zerothre.ttf
1480.918	n/a	WORD	740459	wordpools/wasnorm_wordpool.txt	LTP131	ltpFR	1	8	1	QUILT	1151	n/a	n/a	0	0.422607421875	0.5869140625	0	upper	zerothre.ttf
1485.082	n/a	WORD	742541	wordpools/wasnorm_wordpool.txt	LTP131	ltpFR	1	8	1	SINK	1309	n/a	n/a	0	0.422607421875	0.5869140625	0	upper	zerothre.ttf
1489.098	n/a	WORD	744549	wordpools/wasnorm_wordpool.txt	LTP131	ltpFR	1	8	1	TAXI	1438	n/a	n/a	0	0.422607421875	0.5869140625	0	upper	zerothre.ttf
1493.288	n/a	WORD	746644	wordpools/wasnorm_wordpool.txt	LTP131	ltpFR	1	8	1	GROOM	665	n/a	n/a	1	0.422607421875	0.5869140625	0	upper	zerothre.ttf
1497.13	n/a	WORD	748565	wordpools/wasnorm_wordpool.txt	LTP131	ltpFR	1	8	1	NAPKIN	937	n/a	n/a	0	0.422607421875	0.5869140625	0	upper	zerothre.ttf
1501.086	n/a	WORD	750543	wordpools/wasnorm_wordpool.txt	LTP131	ltpFR	1	8	1	PLANET	1082	n/a	n/a	0	0.422607421875	0.5869140625	0	upper	zerothre.ttf
1505.21	n/a	WORD	752605	wordpools/wasnorm_wordpool.txt	LTP131	ltpFR	1	8	1	ASTEROID	50	n/a	n/a	0	0.422607421875	0.5869140625	0	upper	zerothre.ttf
1509.134	n/a	WORD	754567	wordpools/wasnorm_wordpool.txt	LTP131	ltpFR	1	8	1	NICKEL	950	n/a	n/a	0	0.422607421875	0.5869140625	0	upper	zerothre.ttf
1512.95	n/a	WORD	756475	wordpools/wasnorm_wordpool.txt	LTP131	ltpFR	1	8	1	VAULT	1550	n/a	n/a	0	0.422607421875	0.5869140625	0	upper	zerothre.ttf
1517.116	n/a	WORD	758558	wordpools/wasnorm_wordpool.txt	LTP131	ltpFR	1	8	1	HAYSTACK	694	n/a	n/a	0	0.422607421875	0.5869140625	0	upper	zerothre.ttf
1521.114	n/a	WORD	760557	wordpools/wasnorm_wordpool.txt	LTP131	ltpFR	1	8	1	TEAM	1441	n/a	n/a	1	0.422607421875	0.5869140625	0	upper	zerothre.ttf
1525.07	n/a	WORD	762535	wordpools/wasnorm_wordpool.txt	LTP131	ltpFR	1	8	1	PONY	1102	n/a	n/a	1	0.422607421875	0.5869140625	0	upper	zerothre.ttf
1530.862	n/a	REC_START	765431	n/a	LTP131	ltpFR	1	8	n/a	n/a	n/a	n/a	n/a	n/a	n/a	n/a	n/a	n/a	n/a
1531.546	n/a	REC_WORD	765773	wordpools/wasnorm_wordpool.txt	LTP131	ltpFR	1	8	1	GOOSE	649	n/a	n/a	1	n/a	n/a	n/a	n/a	n/a
1532.634	n/a	REC_WORD	766317	wordpools/wasnorm_wordpool.txt	LTP131	ltpFR	1	8	1	UMPIRE	1535	n/a	n/a	1	n/a	n/a	n/a	n/a	n/a
1533.7	n/a	REC_WORD	766850	wordpools/wasnorm_wordpool.txt	LTP131	ltpFR	1	8	1	GROOM	665	n/a	n/a	1	n/a	n/a	n/a	n/a	n/a
1534.918	n/a	REC_WORD	767459	wordpools/wasnorm_wordpool.txt	LTP131	ltpFR	1	8	1	TEAM	1441	n/a	n/a	1	n/a	n/a	n/a	n/a	n/a
1536.09	n/a	REC_WORD	768045	wordpools/wasnorm_wordpool.txt	LTP131	ltpFR	1	8	1	PONY	1102	n/a	n/a	1	n/a	n/a	n/a	n/a	n/a
1537.548	n/a	REC_WORD	768774	wordpools/wasnorm_wordpool.txt	LTP131	ltpFR	1	8	1	PONY	1102	n/a	n/a	1	n/a	n/a	n/a	n/a	n/a
1538.654	n/a	REC_WORD	769327	wordpools/wasnorm_wordpool.txt	LTP131	ltpFR	1	8	1	HAYSTACK	694	n/a	n/a	0	n/a	n/a	n/a	n/a	n/a
1539.816	n/a	REC_WORD	769908	wordpools/wasnorm_wordpool.txt	LTP131	ltpFR	1	8	1	STOVE	1388	n/a	n/a	0	n/a	n/a	n/a	n/a	n/a
1557.582	n/a	REC_WORD	778791	wordpools/wasnorm_wordpool.txt	LTP131	ltpFR	1	8	1	VAULT	1550	n/a	n/a	0	n/a	n/a	n/a	n/a	n/a
1559.498	n/a	REC_WORD	779749	wordpools/wasnorm_wordpool.txt	LTP131	ltpFR	1	8	1	NICKEL	950	n/a	n/a	0	n/a	n/a	n/a	n/a	n/a
1621.374	n/a	WORD	810687	wordpools/wasnorm_wordpool.txt	LTP131	ltpFR	1	9	-1	REEF	1177	n/a	n/a	-1	1.0	1.0	1	upper	Verdana.ttf
1625.458	n/a	WORD	812729	wordpools/wasnorm_wordpool.txt	LTP131	ltpFR	1	9	-1	DISC	473	n/a	n/a	-1	1.0	1.0	1	upper	Verdana.ttf
1629.348	n/a	WORD	814674	wordpools/wasnorm_wordpool.txt	LTP131	ltpFR	1	9	-1	FRAME	600	n/a	n/a	-1	1.0	1.0	1	upper	Verdana.ttf
1633.322	n/a	WORD	816661	wordpools/wasnorm_wordpool.txt	LTP131	ltpFR	1	9	-1	SKETCH	1315	n/a	n/a	-1	1.0	1.0	1	upper	Verdana.ttf
1637.496	n/a	WORD	818748	wordpools/wasnorm_wordpool.txt	LTP131	ltpFR	1	9	-1	CHIME	300	n/a	n/a	-1	1.0	1.0	1	upper	Verdana.ttf
1641.478	n/a	WORD	820739	wordpools/wasnorm_wordpool.txt	LTP131	ltpFR	1	9	-1	TUBA	1515	n/a	n/a	-1	1.0	1.0	1	upper	Verdana.ttf
1645.31	n/a	WORD	822655	wordpools/wasnorm_wordpool.txt	LTP131	ltpFR	1	9	-1	TOOL	1480	n/a	n/a	-1	1.0	1.0	1	upper	Verdana.ttf
1649.434	n/a	WORD	824717	wordpools/wasnorm_wordpool.txt	LTP131	ltpFR	1	9	-1	DRUM	502	n/a	n/a	-1	1.0	1.0	1	upper	Verdana.ttf
1653.324	n/a	WORD	826662	wordpools/wasnorm_wordpool.txt	LTP131	ltpFR	1	9	-1	PUBLICATION	1136	n/a	n/a	-1	1.0	1.0	1	upper	Verdana.ttf
1657.34	n/a	WORD	828670	wordpools/wasnorm_wordpool.txt	LTP131	ltpFR	1	9	-1	WOUND	1624	n/a	n/a	-1	1.0	1.0	1	upper	Verdana.ttf
1661.238	n/a	WORD	830619	wordpools/wasnorm_wordpool.txt	LTP131	ltpFR	1	9	-1	FORK	594	n/a	n/a	-1	1.0	1.0	1	upper	Verdana.ttf
1665.428	n/a	WORD	832714	wordpools/wasnorm_wordpool.txt	LTP131	ltpFR	1	9	-1	PEN	1041	n/a	n/a	-1	1.0	1.0	1	upper	Verdana.ttf
1669.37	n/a	WORD	834685	wordpools/wasnorm_wordpool.txt	LTP131	ltpFR	1	9	-1	BOOK	149	n/a	n/a	-1	1.0	1.0	1	upper	Verdana.ttf
1673.25	n/a	WORD	836625	wordpools/wasnorm_wordpool.txt	LTP131	ltpFR	1	9	-1	DETERGENT	455	n/a	n/a	-1	1.0	1.0	1	upper	Verdana.ttf
1677.324	n/a	WORD	838662	wordpools/wasnorm_wordpool.txt	LTP131	ltpFR	1	9	-1	BATH	98	n/a	n/a	-1	1.0	1.0	1	upper	Verdana.ttf
1681.174	n/a	WORD	840587	wordpools/wasnorm_wordpool.txt	LTP131	ltpFR	1	9	-1	SLIDE	1326	n/a	n/a	-1	1.0	1.0	1	upper	Verdana.ttf
1687.206	n/a	REC_START	843603	n/a	LTP131	ltpFR	1	9	n/a	n/a	n/a	n/a	n/a	n/a	n/a	n/a	n/a	n/a	n/a
1688.268	n/a	REC_WORD	844134	wordpools/wasnorm_wordpool.txt	LTP131	ltpFR	1	9	-1	REEF	1177	n/a	n/a	-1	n/a	n/a	n/a	n/a	n/a
1689.36	n/a	REC_WORD	844680	wordpools/wasnorm_wordpool.txt	LTP131	ltpFR	1	9	-1	SLIDE	1326	n/a	n/a	-1	n/a	n/a	n/a	n/a	n/a
1690.832	n/a	REC_WORD	845416	wordpools/wasnorm_wordpool.txt	LTP131	ltpFR	1	9	-1	BOOK	149	n/a	n/a	-1	n/a	n/a	n/a	n/a	n/a
1701.998	n/a	REC_WORD	850999	wordpools/wasnorm_wordpool.txt	LTP131	ltpFR	1	9	-1	TUBA	1515	n/a	n/a	-1	n/a	n/a	n/a	n/a	n/a
1703.598	n/a	REC_WORD	851799	wordpools/wasnorm_wordpool.txt	LTP131	ltpFR	1	9	-1	SKETCH	1315	n/a	n/a	-1	n/a	n/a	n/a	n/a	n/a
1705.46	n/a	REC_WORD	852730	wordpools/wasnorm_wordpool.txt	LTP131	ltpFR	1	9	-1	DRUM	502	n/a	n/a	-1	n/a	n/a	n/a	n/a	n/a
1709.206	n/a	REC_WORD	854603	wordpools/wasnorm_wordpool.txt	LTP131	ltpFR	1	9	-1	FRAME	600	n/a	n/a	-1	n/a	n/a	n/a	n/a	n/a
1710.852	n/a	REC_WORD	855426	wordpools/wasnorm_wordpool.txt	LTP131	ltpFR	1	9	-1	DISC	473	n/a	n/a	-1	n/a	n/a	n/a	n/a	n/a
1734.34	n/a	REC_WORD	867170	wordpools/wasnorm_wordpool.txt	LTP131	ltpFR	1	9	-1	PUBLICATION	1136	n/a	n/a	-1	n/a	n/a	n/a	n/a	n/a
1787.684	n/a	WORD	893842	wordpools/wasnorm_wordpool.txt	LTP131	ltpFR	1	10	-1	SCARF	1246	n/a	n/a	-1	1.0	1.0	1	upper	Verdana.ttf
1791.524	n/a	WORD	895762	wordpools/wasnorm_wordpool.txt	LTP131	ltpFR	1	10	-1	GHOST	634	n/a	n/a	-1	1.0	1.0	1	upper	Verdana.ttf
1795.682	n/a	WORD	897841	wordpools/wasnorm_wordpool.txt	LTP131	ltpFR	1	10	-1	WITCH	1617	n/a	n/a	-1	1.0	1.0	1	upper	Verdana.ttf
1799.78	n/a	WORD	899890	wordpools/wasnorm_wordpool.txt	LTP131	ltpFR	1	10	-1	SWIMMER	1420	n/a	n/a	-1	1.0	1.0	1	upper	Verdana.ttf
1803.82	n/a	WORD	901910	wordpools/wasnorm_wordpool.txt	LTP131	ltpFR	1	10	-1	HAM	678	n/a	n/a	-1	1.0	1.0	1	upper	Verdana.ttf
1807.86	n/a	WORD	903930	wordpools/wasnorm_wordpool.txt	LTP131	ltpFR	1	10	-1	BACON	67	n/a	n/a	-1	1.0	1.0	1	upper	Verdana.ttf
1811.808	n/a	WORD	905904	wordpools/wasnorm_wordpool.txt	LTP131	ltpFR	1	10	-1	LIST	830	n/a	n/a	-1	1.0	1.0	1	upper	Verdana.ttf
1815.8	n/a	WORD	907900	wordpools/wasnorm_wordpool.txt	LTP131	ltpFR	1	10	-1	STAPLER	1372	n/a	n/a	-1	1.0	1.0	1	upper	Verdana.ttf
1819.856	n/a	WORD	909928	wordpools/wasnorm_wordpool.txt	LTP131	ltpFR	1	10	-1	STREAM	1392	n/a	n/a	-1	1.0	1.0	1	upper	Verdana.ttf
1823.814	n/a	WORD	911907	wordpools/wasnorm_wordpool.txt	LTP131	ltpFR	1	10	-1	BUILDING	191	n/a	n/a	-1	1.0	1.0	1	upper	Verdana.ttf
1827.754	n/a	WORD	913877	wordpools/wasnorm_wordpool.txt	LTP131	ltpFR	1	10	-1	SICKLE	1302	n/a	n/a	-1	1.0	1.0	1	upper	Verdana.ttf
1831.836	n/a	WORD	915918	wordpools/wasnorm_wordpool.txt	LTP131	ltpFR	1	10	-1	SUMMIT	1405	n/a	n/a	-1	1.0	1.0	1	upper	Verdana.ttf
1836.01	n/a	WORD	918005	wordpools/wasnorm_wordpool.txt	LTP131	ltpFR	1	10	-1	GLASSES	640	n/a	n/a	-1	1.0	1.0	1	upper	Verdana.ttf
1839.976	n/a	WORD	919988	wordpools/wasnorm_wordpool.txt	LTP131	ltpFR	1	10	-1	ICEBERG	731	n/a	n/a	-1	1.0	1.0	1	upper	Verdana.ttf
1844.166	n/a	WORD	922083	wordpools/wasnorm_wordpool.txt	LTP131	ltpFR	1	10	-1	ENGINEER	536	n/a	n/a	-1	1.0	1.0	1	upper	Verdana.ttf
1848.288	n/a	WORD	924144	wordpools/wasnorm_wordpool.txt	LTP131	ltpFR	1	10	-1	TRENCH	1503	n/a	n/a	-1	1.0	1.0	1	upper	Verdana.ttf
1854.13	n/a	REC_START	927065	n/a	LTP131	ltpFR	1	10	n/a	n/a	n/a	n/a	n/a	n/a	n/a	n/a	n/a	n/a	n/a
1855.138	n/a	REC_WORD	927569	wordpools/wasnorm_wordpool.txt	LTP131	ltpFR	1	10	-1	TRENCH	1503	n/a	n/a	-1	n/a	n/a	n/a	n/a	n/a
1856.166	n/a	REC_WORD	928083	wordpools/wasnorm_wordpool.txt	LTP131	ltpFR	1	10	-1	ENGINEER	536	n/a	n/a	-1	n/a	n/a	n/a	n/a	n/a
1857.558	n/a	REC_WORD	928779	wordpools/wasnorm_wordpool.txt	LTP131	ltpFR	1	10	-1	ICEBERG	731	n/a	n/a	-1	n/a	n/a	n/a	n/a	n/a
1859.0	n/a	REC_WORD	929500	wordpools/wasnorm_wordpool.txt	LTP131	ltpFR	1	10	-1	SCARF	1246	n/a	n/a	-1	n/a	n/a	n/a	n/a	n/a
1860.856	n/a	REC_WORD	930428	wordpools/wasnorm_wordpool.txt	LTP131	ltpFR	1	10	-1	GLASSES	640	n/a	n/a	-1	n/a	n/a	n/a	n/a	n/a
1865.01	n/a	REC_WORD	932505	wordpools/wasnorm_wordpool.txt	LTP131	ltpFR	1	10	-1	SWIMMER	1420	n/a	n/a	-1	n/a	n/a	n/a	n/a	n/a
1873.926	n/a	REC_WORD	936963	wordpools/wasnorm_wordpool.txt	LTP131	ltpFR	1	10	-1	STREAM	1392	n/a	n/a	-1	n/a	n/a	n/a	n/a	n/a
1901.294	n/a	REC_WORD	950647	wordpools/wasnorm_wordpool.txt	LTP131	ltpFR	1	10	-1	SUMMIT	1405	n/a	n/a	-1	n/a	n/a	n/a	n/a	n/a
1944.26	n/a	WORD	972130	wordpools/wasnorm_wordpool.txt	LTP131	ltpFR	1	11	0	AUTHOR	61	n/a	n/a	1	0.57763671875	0.412841796875	1	lower	amplitud.ttf
1948.326	n/a	WORD	974163	wordpools/wasnorm_wordpool.txt	LTP131	ltpFR	1	11	0	LIBRARY	816	n/a	n/a	1	0.57763671875	0.412841796875	1	lower	amplitud.ttf
1952.216	n/a	WORD	976108	wordpools/wasnorm_wordpool.txt	LTP131	ltpFR	1	11	0	PRISON	1127	n/a	n/a	1	0.57763671875	0.412841796875	1	lower	amplitud.ttf
1956.222	n/a	WORD	978111	wordpools/wasnorm_wordpool.txt	LTP131	ltpFR	1	11	0	COOKIE	374	n/a	n/a	0	0.57763671875	0.412841796875	1	lower	amplitud.ttf
1960.304	n/a	WORD	980152	wordpools/wasnorm_wordpool.txt	LTP131	ltpFR	1	11	0	PUMPKIN	1142	n/a	n/a	1	0.57763671875	0.412841796875	1	lower	amplitud.ttf
1964.33	n/a	WORD	982165	wordpools/wasnorm_wordpool.txt	LTP131	ltpFR	1	11	0	BOYFRIEND	162	n/a	n/a	1	0.57763671875	0.412841796875	1	lower	amplitud.ttf
1968.302	n/a	WORD	984151	wordpools/wasnorm_wordpool.txt	LTP131	ltpFR	1	11	0	NOSE	957	n/a	n/a	0	0.57763671875	0.412841796875	1	lower	amplitud.ttf
1972.36	n/a	WORD	986180	wordpools/wasnorm_wordpool.txt	LTP131	ltpFR	1	11	0	JAW	751	n/a	n/a	0	0.57763671875	0.412841796875	1	lower	amplitud.ttf
1976.242	n/a	WORD	988121	wordpools/wasnorm_wordpool.txt	LTP131	ltpFR	1	11	0	ASPIRIN	47	n/a	n/a	0	0.57763671875	0.412841796875	1	lower	amplitud.ttf
1980.082	n/a	WORD	990041	wordpools/wasnorm_wordpool.txt	LTP131	ltpFR	1	11	0	CHECKERS	285	n/a	n/a	0	0.57763671875	0.412841796875	1	lower	amplitud.ttf
1984.264	n/a	WORD	992132	wordpools/wasnorm_wordpool.txt	LTP131	ltpFR	1	11	0	SUPPER	1411	n/a	n/a	1	0.57763671875	0.412841796875	1	lower	amplitud.ttf
1988.198	n/a	WORD	994099	wordpools/wasnorm_wordpool.txt	LTP131	ltpFR	1	11	0	TUNNEL	1519	n/a	n/a	1	0.57763671875	0.412841796875	1	lower	amplitud.ttf
1992.362	n/a	WORD	996181	wordpools/wasnorm_wordpool.txt	LTP131	ltpFR	1	11	0	BUYER	208	n/a	n/a	1	0.57763671875	0.412841796875	1	lower	amplitud.ttf
1996.378	n/a	WORD	998189	wordpools/wasnorm_wordpool.txt	LTP131	ltpFR	1	11	0	PLUM	1090	n/a	n/a	0	0.57763671875	0.412841796875	1	lower	amplitud.ttf
2000.352	n/a	WORD	1000176	wordpools/wasnorm_wordpool.txt	LTP131	ltpFR	1	11	0	DAM	436	n/a	n/a	1	0.57763671875	0.412841796875	1	lower	amplitud.ttf
2004.376	n/a	WORD	1002188	wordpools/wasnorm_wordpool.txt	LTP131	ltpFR	1	11	0	PIER	1063	n/a	n/a	1	0.57763671875	0.412841796875	1	lower	amplitud.ttf
2010.058	n/a	REC_START	1005029	n/a	LTP131	ltpFR	1	11	n/a	n/a	n/a	n/a	n/a	n/a	n/a	n/a	n/a	n/a	n/a
2010.872	n/a	REC_WORD	1005436	wordpools/wasnorm_wordpool.txt	LTP131	ltpFR	1	11	0	PIER	1063	n/a	n/a	1	n/a	n/a	n/a	n/a	n/a
2011.86	n/a	REC_WORD	1005930	wordpools/wasnorm_wordpool.txt	LTP131	ltpFR	1	11	0	PRISON	1127	n/a	n/a	1	n/a	n/a	n/a	n/a	n/a
2012.856	n/a	REC_WORD	1006428	wordpools/wasnorm_wordpool.txt	LTP131	ltpFR	1	11	0	LIBRARY	816	n/a	n/a	1	n/a	n/a	n/a	n/a	n/a
2014.158	n/a	REC_WORD	1007079	wordpools/wasnorm_wordpool.txt	LTP131	ltpFR	1	11	0	PUMPKIN	1142	n/a	n/a	1	n/a	n/a	n/a	n/a	n/a
2015.392	n/a	REC_WORD	1007696	wordpools/wasnorm_wordpool.txt	LTP131	ltpFR	1	11	0	TUNNEL	1519	n/a	n/a	1	n/a	n/a	n/a	n/a	n/a
2018.744	n/a	REC_WORD	1009372	wordpools/wasnorm_wordpool.txt	LTP131	ltpFR	1	11	0	BOYFRIEND	162	n/a	n/a	1	n/a	n/a	n/a	n/a	n/a
2020.1	n/a	REC_WORD	1010050	wordpools/wasnorm_wordpool.txt	LTP131	ltpFR	1	11	0	AUTHOR	61	n/a	n/a	1	n/a	n/a	n/a	n/a	n/a
2024.132	n/a	REC_WORD	1012066	wordpools/wasnorm_wordpool.txt	LTP131	ltpFR	1	11	0	DAM	436	n/a	n/a	1	n/a	n/a	n/a	n/a	n/a
2031.58	n/a	REC_WORD	1015790	wordpools/wasnorm_wordpool.txt	LTP131	ltpFR	1	11	0	PLUM	1090	n/a	n/a	0	n/a	n/a	n/a	n/a	n/a
2080.632	n/a	REC_WORD	1040316	wordpools/wasnorm_wordpool.txt	LTP131	ltpFR	1	11	0	CHECKERS	285	n/a	n/a	0	n/a	n/a	n/a	n/a	n/a
2119.442	n/a	WORD	1059721	wordpools/wasnorm_wordpool.txt	LTP131	ltpFR	1	12	-1	WHISKERS	1605	n/a	n/a	-1	1.0	1.0	1	upper	Verdana.ttf
2123.498	n/a	WORD	1061749	wordpools/wasnorm_wordpool.txt	LTP131	ltpFR	1	12	-1	CRAB	397	n/a	n/a	-1	1.0	1.0	1	upper	Verdana.ttf
2127.688	n/a	WORD	1063844	wordpools/wasnorm_wordpool.txt	LTP131	ltpFR	1	12	-1	ANTEATER	26	n/a	n/a	-1	1.0	1.0	1	upper	Verdana.ttf
2131.604	n/a	WORD	1065802	wordpools/wasnorm_wordpool.txt	LTP131	ltpFR	1	12	-1	PREDATOR	1120	n/a	n/a	-1	1.0	1.0	1	upper	Verdana.ttf
2135.428	n/a	WORD	1067714	wordpools/wasnorm_wordpool.txt	LTP131	ltpFR	1	12	-1	PERFUME	1049	n/a	n/a	-1	1.0	1.0	1	upper	Verdana.ttf
2139.476	n/a	WORD	1069738	wordpools/wasnorm_wordpool.txt	LTP131	ltpFR	1	12	-1	INCENSE	735	n/a	n/a	-1	1.0	1.0	1	upper	Verdana.ttf
2143.642	n/a	WORD	1071821	wordpools/wasnorm_wordpool.txt	LTP131	ltpFR	1	12	-1	FLEA	577	n/a	n/a	-1	1.0	1.0	1	upper	Verdana.ttf
2147.582	n/a	WORD	1073791	wordpools/wasnorm_wordpool.txt	LTP131	ltpFR	1	12	-1	TULIP	1517	n/a	n/a	-1	1.0	1.0	1	upper	Verdana.ttf
2151.606	n/a	WORD	1075803	wordpools/wasnorm_wordpool.txt	LTP131	ltpFR	1	12	-1	TROMBONE	1508	n/a	n/a	-1	1.0	1.0	1	upper	Verdana.ttf
2155.512	n/a	WORD	1077756	wordpools/wasnorm_wordpool.txt	LTP131	ltpFR	1	12	-1	TREASURE	1500	n/a	n/a	-1	1.0	1.0	1	upper	Verdana.ttf
2159.462	n/a	WORD	1079731	wordpools/wasnorm_wordpool.txt	LTP131	ltpFR	1	12	-1	TILE	1468	n/a	n/a	-1	1.0	1.0	1	upper	Verdana.ttf
2163.594	n/a	WORD	1081797	wordpools/wasnorm_wordpool.txt	LTP131	ltpFR	1	12	-1	COYOTE	396	n/a	n/a	-1	1.0	1.0	1	upper	Verdana.ttf
2167.726	n/a	WORD	1083863	wordpools/wasnorm_wordpool.txt	LTP131	ltpFR	1	12	-1	MICROPHONE	890	n/a	n/a	-1	1.0	1.0	1	upper	Verdana.ttf
2171.824	n/a	WORD	1085912	wordpools/wasnorm_wordpool.txt	LTP131	ltpFR	1	12	-1	SLUG	1329	n/a	n/a	-1	1.0	1.0	1	upper	Verdana.ttf
2175.74	n/a	WORD	1087870	wordpools/wasnorm_wordpool.txt	LTP131	ltpFR	1	12	-1	ERASER	538	n/a	n/a	-1	1.0	1.0	1	upper	Verdana.ttf
2179.656	n/a	WORD	1089828	wordpools/wasnorm_wordpool.txt	LTP131	ltpFR	1	12	-1	MONEY	908	n/a	n/a	-1	1.0	1.0	1	upper	Verdana.ttf
2185.746	n/a	REC_START	1092873	n/a	LTP131	ltpFR	1	12	n/a	n/a	n/a	n/a	n/a	n/a	n/a	n/a	n/a	n/a	n/a
2186.03	n/a	REC_WORD	1093015	wordpools/wasnorm_wordpool.txt	LTP131	ltpFR	1	12	-1	SLUG	1329	n/a	n/a	-1	n/a	n/a	n/a	n/a	n/a
2186.954	n/a	REC_WORD	1093477	wordpools/wasnorm_wordpool.txt	LTP131	ltpFR	1	12	-1	ERASER	538	n/a	n/a	-1	n/a	n/a	n/a	n/a	n/a
2187.956	n/a	REC_WORD	1093978	wordpools/wasnorm_wordpool.txt	LTP131	ltpFR	1	12	-1	MONEY	908	n/a	n/a	-1	n/a	n/a	n/a	n/a	n/a
2189.052	n/a	REC_WORD	1094526	wordpools/wasnorm_wordpool.txt	LTP131	ltpFR	1	12	-1	MICROPHONE	890	n/a	n/a	-1	n/a	n/a	n/a	n/a	n/a
2192.222	n/a	REC_WORD	1096111	wordpools/wasnorm_wordpool.txt	LTP131	ltpFR	1	12	-1	TULIP	1517	n/a	n/a	-1	n/a	n/a	n/a	n/a	n/a
2194.402	n/a	REC_WORD	1097201	wordpools/wasnorm_wordpool.txt	LTP131	ltpFR	1	12	-1	PREDATOR	1120	n/a	n/a	-1	n/a	n/a	n/a	n/a	n/a
2195.506	n/a	REC_WORD	1097753	wordpools/wasnorm_wordpool.txt	LTP131	ltpFR	1	12	-1	COYOTE	396	n/a	n/a	-1	n/a	n/a	n/a	n/a	n/a
2196.588	n/a	REC_WORD	1098294	wordpools/wasnorm_wordpool.txt	LTP131	ltpFR	1	12	-1	FLEA	577	n/a	n/a	-1	n/a	n/a	n/a	n/a	n/a
2197.8	n/a	REC_WORD	1098900	wordpools/wasnorm_wordpool.txt	LTP131	ltpFR	1	12	-1	ANTEATER	26	n/a	n/a	-1	n/a	n/a	n/a	n/a	n/a
2199.836	n/a	REC_WORD	1099918	wordpools/wasnorm_wordpool.txt	LTP131	ltpFR	1	12	-1	WHISKERS	1605	n/a	n/a	-1	n/a	n/a	n/a	n/a	n/a
2201.008	n/a	REC_WORD	1100504	wordpools/wasnorm_wordpool.txt	LTP131	ltpFR	1	12	-1	CRAB	397	n/a	n/a	-1	n/a	n/a	n/a	n/a	n/a
2210.96	n/a	REC_WORD	1105480	wordpools/wasnorm_wordpool.txt	LTP131	ltpFR	1	12	-1	TILE	1468	n/a	n/a	-1	n/a	n/a	n/a	n/a	n/a
2228.68	n/a	REC_WORD	1114340	wordpools/wasnorm_wordpool.txt	LTP131	ltpFR	1	12	-1	TROMBONE	1508	n/a	n/a	-1	n/a	n/a	n/a	n/a	n/a
2261.33	n/a	REST_REWET	1130665	n/a	LTP131	ltpFR	1	12	n/a	n/a	n/a	n/a	n/a	n/a	n/a	n/a	n/a	n/a	n/a
2927.712	n/a	WORD	1463856	wordpools/wasnorm_wordpool.txt	LTP131	ltpFR	1	13	0	APARTMENT	30	n/a	n/a	1	0.57763671875	0.412841796875	1	lower	amplitud.ttf
2931.72	n/a	WORD	1465860	wordpools/wasnorm_wordpool.txt	LTP131	ltpFR	1	13	0	BRIDGE	174	n/a	n/a	1	0.57763671875	0.412841796875	1	lower	amplitud.ttf
2935.734	n/a	WORD	1467867	wordpools/wasnorm_wordpool.txt	LTP131	ltpFR	1	13	1	SWAMP	1416	n/a	n/a	1	0.422607421875	0.5869140625	0	upper	zerothre.ttf
2939.926	n/a	WORD	1469963	wordpools/wasnorm_wordpool.txt	LTP131	ltpFR	1	13	1	WHEAT	1602	n/a	n/a	1	0.422607421875	0.5869140625	0	upper	zerothre.ttf
2944.116	n/a	WORD	1472058	wordpools/wasnorm_wordpool.txt	LTP131	ltpFR	1	13	1	SANDWICH	1232	n/a	n/a	0	0.422607421875	0.5869140625	0	upper	zerothre.ttf
2948.172	n/a	WORD	1474086	wordpools/wasnorm_wordpool.txt	LTP131	ltpFR	1	13	1	BLUEJAY	141	n/a	n/a	1	0.422607421875	0.5869140625	0	upper	zerothre.ttf
2952.038	n/a	WORD	1476019	wordpools/wasnorm_wordpool.txt	LTP131	ltpFR	1	13	1	KETCHUP	771	n/a	n/a	0	0.422607421875	0.5869140625	0	upper	zerothre.ttf
2956.036	n/a	WORD	1478018	wordpools/wasnorm_wordpool.txt	LTP131	ltpFR	1	13	1	TOWN	1491	n/a	n/a	0	0.422607421875	0.5869140625	0	upper	zerothre.ttf
2960.244	n/a	WORD	1480122	wordpools/wasnorm_wordpool.txt	LTP131	ltpFR	1	13	0	PEBBLE	1035	n/a	n/a	0	0.57763671875	0.412841796875	1	lower	amplitud.ttf
2964.308	n/a	WORD	1482154	wordpools/wasnorm_wordpool.txt	LTP131	ltpFR	1	13	0	FIREMAN	569	n/a	n/a	1	0.57763671875	0.412841796875	1	lower	amplitud.ttf
2968.476	n/a	WORD	1484238	wordpools/wasnorm_wordpool.txt	LTP131	ltpFR	1	13	0	DOCUMENT	479	n/a	n/a	0	0.57763671875	0.412841796875	1	lower	amplitud.ttf
2972.332	n/a	WORD	1486166	wordpools/wasnorm_wordpool.txt	LTP131	ltpFR	1	13	1	BISON	131	n/a	n/a	1	0.422607421875	0.5869140625	0	upper	zerothre.ttf
2976.314	n/a	WORD	1488157	wordpools/wasnorm_wordpool.txt	LTP131	ltpFR	1	13	1	RACCOON	1153	n/a	n/a	1	0.422607421875	0.5869140625	0	upper	zerothre.ttf
2980.296	n/a	WORD	1490148	wordpools/wasnorm_wordpool.txt	LTP131	ltpFR	1	13	0	VINEGAR	1569	n/a	n/a	0	0.57763671875	0.412841796875	1	lower	amplitud.ttf
2984.27	n/a	WORD	1492135	wordpools/wasnorm_wordpool.txt	LTP131	ltpFR	1	13	0	DOVE	491	n/a	n/a	0	0.57763671875	0.412841796875	1	lower	amplitud.ttf
2988.16	n/a	WORD	1494080	wordpools/wasnorm_wordpool.txt	LTP131	ltpFR	1	13	0	POTATO	1115	n/a	n/a	0	0.57763671875	0.412841796875	1	lower	amplitud.ttf
2993.96	n/a	REC_START	1496980	n/a	LTP131	ltpFR	1	13	n/a	n/a	n/a	n/a	n/a	n/a	n/a	n/a	n/a	n/a	n/a
2994.624	n/a	REC_WORD	1497312	wordpools/wasnorm_wordpool.txt	LTP131	ltpFR	1	13	0	VINEGAR	1569	n/a	n/a	0	n/a	n/a	n/a	n/a	n/a
2995.612	n/a	REC_WORD	1497806	wordpools/wasnorm_wordpool.txt	LTP131	ltpFR	1	13	0	DOVE	491	n/a	n/a	0	n/a	n/a	n/a	n/a	n/a
2996.4	n/a	REC_WORD	1498200	wordpools/wasnorm_wordpool.txt	LTP131	ltpFR	1	13	0	POTATO	1115	n/a	n/a	0	n/a	n/a	n/a	n/a	n/a
2997.602	n/a	REC_WORD	1498801	wordpools/wasnorm_wordpool.txt	LTP131	ltpFR	1	13	1	BISON	131	n/a	n/a	1	n/a	n/a	n/a	n/a	n/a
2999.174	n/a	REC_WORD	1499587	wordpools/wasnorm_wordpool.txt	LTP131	ltpFR	1	13	0	APARTMENT	30	n/a	n/a	1	n/a	n/a	n/a	n/a	n/a
3000.47	n/a	REC_WORD	1500235	wordpools/wasnorm_wordpool.txt	LTP131	ltpFR	1	13	0	BRIDGE	174	n/a	n/a	1	n/a	n/a	n/a	n/a	n/a
3001.788	n/a	REC_WORD	1500894	wordpools/wasnorm_wordpool.txt	LTP131	ltpFR	1	13	1	WHEAT	1602	n/a	n/a	1	n/a	n/a	n/a	n/a	n/a
3004.158	n/a	REC_WORD	1502079	wordpools/wasnorm_wordpool.txt	LTP131	ltpFR	1	13	1	TOWN	1491	n/a	n/a	0	n/a	n/a	n/a	n/a	n/a
3007.236	n/a	REC_WORD	1503618	wordpools/wasnorm_wordpool.txt	LTP131	ltpFR	1	13	1	SWAMP	1416	n/a	n/a	1	n/a	n/a	n/a	n/a	n/a
3012.324	n/a	REC_WORD	1506162	wordpools/wasnorm_wordpool.txt	LTP131	ltpFR	1	13	0	DOCUMENT	479	n/a	n/a	0	n/a	n/a	n/a	n/a	n/a
3079.942	n/a	WORD	1539971	wordpools/wasnorm_wordpool.txt	LTP131	ltpFR	1	14	1	SUPERMARKET	1409	n/a	n/a	0	0.422607421875	0.5869140625	0	upper	zerothre.ttf
3084.056	n/a	WORD	1542028	wordpools/wasnorm_wordpool.txt	LTP131	ltpFR	1	14	1	BANKER	84	n/a	n/a	1	0.422607421875	0.5869140625	0	upper	zerothre.ttf
3087.996	n/a	WORD	1543998	wordpools/wasnorm_wordpool.txt	LTP131	ltpFR	1	14	1	HEATER	698	n/a	n/a	0	0.422607421875	0.5869140625	0	upper	zerothre.ttf
3092.138	n/a	WORD	1546069	wordpools/wasnorm_wordpool.txt	LTP131	ltpFR	1	14	1	FIREPLACE	570	n/a	n/a	0	0.422607421875	0.5869140625	0	upper	zerothre.ttf
3096.186	n/a	WORD	1548093	wordpools/wasnorm_wordpool.txt	LTP131	ltpFR	1	14	1	GARBAGE	622	n/a	n/a	0	0.422607421875	0.5869140625	0	upper	zerothre.ttf
3100.268	n/a	WORD	1550134	wordpools/wasnorm_wordpool.txt	LTP131	ltpFR	1	14	1	FRIAR	605	n/a	n/a	0	0.422607421875	0.5869140625	0	upper	zerothre.ttf
3104.1	n/a	WORD	1552050	wordpools/wasnorm_wordpool.txt	LTP131	ltpFR	1	14	1	CAKE	219	n/a	n/a	0	0.422607421875	0.5869140625	0	upper	zerothre.ttf
3108.032	n/a	WORD	1554016	wordpools/wasnorm_wordpool.txt	LTP131	ltpFR	1	14	1	EMPLOYEE	531	n/a	n/a	1	0.422607421875	0.5869140625	0	upper	zerothre.ttf
3112.04	n/a	WORD	1556020	wordpools/wasnorm_wordpool.txt	LTP131	ltpFR	1	14	1	CRITIC	410	n/a	n/a	1	0.422607421875	0.5869140625	0	upper	zerothre.ttf
3116.088	n/a	WORD	1558044	wordpools/wasnorm_wordpool.txt	LTP131	ltpFR	1	14	1	JURY	766	n/a	n/a	1	0.422607421875	0.5869140625	0	upper	zerothre.ttf
3120.188	n/a	WORD	1560094	wordpools/wasnorm_wordpool.txt	LTP131	ltpFR	1	14	1	JUDGE	761	n/a	n/a	1	0.422607421875	0.5869140625	0	upper	zerothre.ttf
3124.302	n/a	WORD	1562151	wordpools/wasnorm_wordpool.txt	LTP131	ltpFR	1	14	1	MECHANIC	884	n/a	n/a	1	0.422607421875	0.5869140625	0	upper	zerothre.ttf
3128.41	n/a	WORD	1564205	wordpools/wasnorm_wordpool.txt	LTP131	ltpFR	1	14	1	CART	250	n/a	n/a	0	0.422607421875	0.5869140625	0	upper	zerothre.ttf
3132.584	n/a	WORD	1566292	wordpools/wasnorm_wordpool.txt	LTP131	ltpFR	1	14	1	DUMP	505	n/a	n/a	0	0.422607421875	0.5869140625	0	upper	zerothre.ttf
3136.608	n/a	WORD	1568304	wordpools/wasnorm_wordpool.txt	LTP131	ltpFR	1	14	1	MASCARA	875	n/a	n/a	0	0.422607421875	0.5869140625	0	upper	zerothre.ttf
3140.798	n/a	WORD	1570399	wordpools/wasnorm_wordpool.txt	LTP131	ltpFR	1	14	1	SHRINE	1298	n/a	n/a	0	0.422607421875	0.5869140625	0	upper	zerothre.ttf
3146.688	n/a	REC_START	1573344	n/a	LTP131	ltpFR	1	14	n/a	n/a	n/a	n/a	n/a	n/a	n/a	n/a	n/a	n/a	n/a
3147.572	n/a	REC_WORD	1573786	wordpools/wasnorm_wordpool.txt	LTP131	ltpFR	1	14	1	MASCARA	875	n/a	n/a	0	n/a	n/a	n/a	n/a	n/a
3148.424	n/a	REC_WORD	1574212	wordpools/wasnorm_wordpool.txt	LTP131	ltpFR	1	14	1	SHRINE	1298	n/a	n/a	0	n/a	n/a	n/a	n/a	n/a
3149.438	n/a	REC_WORD	1574719	wordpools/wasnorm_wordpool.txt	LTP131	ltpFR	1	14	1	CRITIC	410	n/a	n/a	1	n/a	n/a	n/a	n/a	n/a
3150.444	n/a	REC_WORD	1575222	wordpools/wasnorm_wordpool.txt	LTP131	ltpFR	1	14	1	JURY	766	n/a	n/a	1	n/a	n/a	n/a	n/a	n/a
3151.342	n/a	REC_WORD	1575671	wordpools/wasnorm_wordpool.txt	LTP131	ltpFR	1	14	1	JUDGE	761	n/a	n/a	1	n/a	n/a	n/a	n/a	n/a
3152.534	n/a	REC_WORD	1576267	wordpools/wasnorm_wordpool.txt	LTP131	ltpFR	1	14	1	EMPLOYEE	531	n/a	n/a	1	n/a	n/a	n/a	n/a	n/a
3153.976	n/a	REC_WORD	1576988	wordpools/wasnorm_wordpool.txt	LTP131	ltpFR	1	14	1	FRIAR	605	n/a	n/a	0	n/a	n/a	n/a	n/a	n/a
3155.268	n/a	REC_WORD	1577634	wordpools/wasnorm_wordpool.txt	LTP131	ltpFR	1	14	1	SUPERMARKET	1409	n/a	n/a	0	n/a	n/a	n/a	n/a	n/a
3233.662	n/a	WORD	1616831	wordpools/wasnorm_wordpool.txt	LTP131	ltpFR	1	15	0	EMPLOYER	532	n/a	n/a	1	0.57763671875	0.412841796875	1	lower	amplitud.ttf
3237.586	n/a	WORD	1618793	wordpools/wasnorm_wordpool.txt	LTP131	ltpFR	1	15	0	SARDINE	1235	n/a	n/a	0	0.57763671875	0.412841796875	1	lower	amplitud.ttf
3241.418	n/a	WORD	1620709	wordpools/wasnorm_wordpool.txt	LTP131	ltpFR	1	15	0	MOON	914	n/a	n/a	1	0.57763671875	0.412841796875	1	lower	amplitud.ttf
3245.492	n/a	WORD	1622746	wordpools/wasnorm_wordpool.txt	LTP131	ltpFR	1	15	1	PERSONNEL	1053	n/a	n/a	0	0.422607421875	0.5869140625	0	upper	zerothre.ttf
3249.616	n/a	WORD	1624808	wordpools/wasnorm_wordpool.txt	LTP131	ltpFR	1	15	1	CABBAGE	210	n/a	n/a	1	0.422607421875	0.5869140625	0	upper	zerothre.ttf
3253.614	n/a	WORD	1626807	wordpools/wasnorm_wordpool.txt	LTP131	ltpFR	1	15	0	WINDOW	1611	n/a	n/a	1	0.57763671875	0.412841796875	1	lower	amplitud.ttf
3257.478	n/a	WORD	1628739	wordpools/wasnorm_wordpool.txt	LTP131	ltpFR	1	15	0	DOOR	486	n/a	n/a	1	0.57763671875	0.412841796875	1	lower	amplitud.ttf
3261.628	n/a	WORD	1630814	wordpools/wasnorm_wordpool.txt	LTP131	ltpFR	1	15	0	CABIN	211	n/a	n/a	1	0.57763671875	0.412841796875	1	lower	amplitud.ttf
3265.46	n/a	WORD	1632730	wordpools/wasnorm_wordpool.txt	LTP131	ltpFR	1	15	0	GENTLEMAN	631	n/a	n/a	1	0.57763671875	0.412841796875	1	lower	amplitud.ttf
3269.334	n/a	WORD	1634667	wordpools/wasnorm_wordpool.txt	LTP131	ltpFR	1	15	0	SUN	1406	n/a	n/a	1	0.57763671875	0.412841796875	1	lower	amplitud.ttf
3273.474	n/a	WORD	1636737	wordpools/wasnorm_wordpool.txt	LTP131	ltpFR	1	15	1	WICK	1607	n/a	n/a	0	0.422607421875	0.5869140625	0	upper	zerothre.ttf
3277.548	n/a	WORD	1638774	wordpools/wasnorm_wordpool.txt	LTP131	ltpFR	1	15	1	METEOR	889	n/a	n/a	0	0.422607421875	0.5869140625	0	upper	zerothre.ttf
3281.472	n/a	WORD	1640736	wordpools/wasnorm_wordpool.txt	LTP131	ltpFR	1	15	1	LUMBER	848	n/a	n/a	0	0.422607421875	0.5869140625	0	upper	zerothre.ttf
3285.37	n/a	WORD	1642685	wordpools/wasnorm_wordpool.txt	LTP131	ltpFR	1	15	1	CINNAMON	310	n/a	n/a	0	0.422607421875	0.5869140625	0	upper	zerothre.ttf
3289.478	n/a	WORD	1644739	wordpools/wasnorm_wordpool.txt	LTP131	ltpFR	1	15	1	SAGE	1222	n/a	n/a	1	0.422607421875	0.5869140625	0	upper	zerothre.ttf
3293.326	n/a	WORD	1646663	wordpools/wasnorm_wordpool.txt	LTP131	ltpFR	1	15	1	SKUNK	1321	n/a	n/a	1	0.422607421875	0.5869140625	0	upper	zerothre.ttf
3299.2	n/a	REC_START	1649600	n/a	LTP131	ltpFR	1	15	n/a	n/a	n/a	n/a	n/a	n/a	n/a	n/a	n/a	n/a	n/a
3299.91	n/a	REC_WORD	1649955	wordpools/wasnorm_wordpool.txt	LTP131	ltpFR	1	15	1	SAGE	1222	n/a	n/a	1	n/a	n/a	n/a	n/a	n/a
3300.768	n/a	REC_WORD	1650384	wordpools/wasnorm_wordpool.txt	LTP131	ltpFR	1	15	1	SKUNK	1321	n/a	n/a	1	n/a	n/a	n/a	n/a	n/a
3301.766	n/a	REC_WORD	1650883	wordpools/wasnorm_wordpool.txt	LTP131	ltpFR	1	15	1	CINNAMON	310	n/a	n/a	0	n/a	n/a	n/a	n/a	n/a
3305.372	n/a	REC_WORD	1652686	wordpools/wasnorm_wordpool.txt	LTP131	ltpFR	1	15	0	EMPLOYER	532	n/a	n/a	1	n/a	n/a	n/a	n/a	n/a
3306.22	n/a	REC_WORD	1653110	wordpools/wasnorm_wordpool.txt	LTP131	ltpFR	1	15	0	MOON	914	n/a	n/a	1	n/a	n/a	n/a	n/a	n/a
3307.008	n/a	REC_WORD	1653504	wordpools/wasnorm_wordpool.txt	LTP131	ltpFR	1	15	0	SUN	1406	n/a	n/a	1	n/a	n/a	n/a	n/a	n/a
3308.176	n/a	REC_WORD	1654088	wordpools/wasnorm_wordpool.txt	LTP131	ltpFR	1	15	0	WINDOW	1611	n/a	n/a	1	n/a	n/a	n/a	n/a	n/a
3309.278	n/a	REC_WORD	1654639	wordpools/wasnorm_wordpool.txt	LTP131	ltpFR	1	15	0	DOOR	486	n/a	n/a	1	n/a	n/a	n/a	n/a	n/a
3310.322	n/a	REC_WORD	1655161	wordpools/wasnorm_wordpool.txt	LTP131	ltpFR	1	15	1	METEOR	889	n/a	n/a	0	n/a	n/a	n/a	n/a	n/a
3315.398	n/a	REC_WORD	1657699	wordpools/wasnorm_wordpool.txt	LTP131	ltpFR	1	15	0	GENTLEMAN	631	n/a	n/a	1	n/a	n/a	n/a	n/a	n/a
3324.634	n/a	REC_WORD	1662317	wordpools/wasnorm_wordpool.txt	LTP131	ltpFR	1	15	1	WICK	1607	n/a	n/a	0	n/a	n/a	n/a	n/a	n/a
3386.166	n/a	WORD	1693083	wordpools/wasnorm_wordpool.txt	LTP131	ltpFR	1	16	1	QUAIL	1147	n/a	n/a	1	0.422607421875	0.5869140625	0	upper	zerothre.ttf
3390.18	n/a	WORD	1695090	wordpools/wasnorm_wordpool.txt	LTP131	ltpFR	1	16	1	CUE	422	n/a	n/a	0	0.422607421875	0.5869140625	0	upper	zerothre.ttf
3394.22	n/a	WORD	1697110	wordpools/wasnorm_wordpool.txt	LTP131	ltpFR	1	16	0	PUDDLE	1140	n/a	n/a	1	0.57763671875	0.412841796875	1	lower	amplitud.ttf
3398.246	n/a	WORD	1699123	wordpools/wasnorm_wordpool.txt	LTP131	ltpFR	1	16	0	TABLE	1426	n/a	n/a	1	0.57763671875	0.412841796875	1	lower	amplitud.ttf
3402.326	n/a	WORD	1701163	wordpools/wasnorm_wordpool.txt	LTP131	ltpFR	1	16	0	BANDIT	81	n/a	n/a	1	0.57763671875	0.412841796875	1	lower	amplitud.ttf
3406.242	n/a	WORD	1703121	wordpools/wasnorm_wordpool.txt	LTP131	ltpFR	1	16	1	BURGLAR	200	n/a	n/a	1	0.422607421875	0.5869140625	0	upper	zerothre.ttf
3410.208	n/a	WORD	1705104	wordpools/wasnorm_wordpool.txt	LTP131	ltpFR	1	16	1	HOOD	714	n/a	n/a	0	0.422607421875	0.5869140625	0	upper	zerothre.ttf
3414.29	n/a	WORD	1707145	wordpools/wasnorm_wordpool.txt	LTP131	ltpFR	1	16	1	LOUNGE	845	n/a	n/a	0	0.422607421875	0.5869140625	0	upper	zerothre.ttf
3418.48	n/a	WORD	1709240	wordpools/wasnorm_wordpool.txt	LTP131	ltpFR	1	16	0	VINE	1568	n/a	n/a	1	0.57763671875	0.412841796875	1	lower	amplitud.ttf
3422.412	n/a	WORD	1711206	wordpools/wasnorm_wordpool.txt	LTP131	ltpFR	1	16	0	CAP	236	n/a	n/a	0	0.57763671875	0.412841796875	1	lower	amplitud.ttf
3426.502	n/a	WORD	1713251	wordpools/wasnorm_wordpool.txt	LTP131	ltpFR	1	16	0	TAG	1429	n/a	n/a	0	0.57763671875	0.412841796875	1	lower	amplitud.ttf
3430.618	n/a	WORD	1715309	wordpools/wasnorm_wordpool.txt	LTP131	ltpFR	1	16	0	ATTIRE	57	n/a	n/a	0	0.57763671875	0.412841796875	1	lower	amplitud.ttf
3434.784	n/a	WORD	1717392	wordpools/wasnorm_wordpool.txt	LTP131	ltpFR	1	16	0	LINT	826	n/a	n/a	0	0.57763671875	0.412841796875	1	lower	amplitud.ttf
3438.642	n/a	WORD	1719321	wordpools/wasnorm_wordpool.txt	LTP131	ltpFR	1	16	1	MARROW	872	n/a	n/a	0	0.422607421875	0.5869140625	0	upper	zerothre.ttf
3442.824	n/a	WORD	1721412	wordpools/wasnorm_wordpool.txt	LTP131	ltpFR	1	16	1	GUARDIAN	668	n/a	n/a	1	0.422607421875	0.5869140625	0	upper	zerothre.ttf
3446.796	n/a	WORD	1723398	wordpools/wasnorm_wordpool.txt	LTP131	ltpFR	1	16	1	COSTUME	383	n/a	n/a	0	0.422607421875	0.5869140625	0	upper	zerothre.ttf
3452.496	n/a	REC_START	1726248	n/a	LTP131	ltpFR	1	16	n/a	n/a	n/a	n/a	n/a	n/a	n/a	n/a	n/a	n/a	n/a
3452.98	n/a	REC_WORD	1726490	wordpools/wasnorm_wordpool.txt	LTP131	ltpFR	1	16	1	COSTUME	383	n/a	n/a	0	n/a	n/a	n/a	n/a	n/a
3453.928	n/a	REC_WORD	1726964	wordpools/wasnorm_wordpool.txt	LTP131	ltpFR	1	16	0	ATTIRE	57	n/a	n/a	0	n/a	n/a	n/a	n/a	n/a
3455.284	n/a	REC_WORD	1727642	wordpools/wasnorm_wordpool.txt	LTP131	ltpFR	1	16	1	BURGLAR	200	n/a	n/a	1	n/a	n/a	n/a	n/a	n/a
3457.41	n/a	REC_WORD	1728705	wordpools/wasnorm_wordpool.txt	LTP131	ltpFR	1	16	0	PUDDLE	1140	n/a	n/a	1	n/a	n/a	n/a	n/a	n/a
3462.672	n/a	REC_WORD	1731336	wordpools/wasnorm_wordpool.txt	LTP131	ltpFR	1	16	0	VINE	1568	n/a	n/a	1	n/a	n/a	n/a	n/a	n/a
3476.248	n/a	REC_WORD	1738124	wordpools/wasnorm_wordpool.txt	LTP131	ltpFR	1	16	1	QUAIL	1147	n/a	n/a	1	n/a	n/a	n/a	n/a	n/a
3559.748	n/a	REC_START	1779874	n/a	LTP131	ltpFR	1	1	n/a	n/a	n/a	n/a	n/a	n/a	n/a	n/a	n/a	n/a	n/a
3559.788	n/a	RECOG_TARGET	1779894	n/a	LTP131	ltpFR	1	1	1	BLUEJAY	141	0	5	1	n/a	n/a	n/a	n/a	n/a
3561.366	n/a	RECOG_RESP	1780683	n/a	LTP131	ltpFR	1	1	1	BLUEJAY	141	0	n/a	1	n/a	n/a	n/a	n/a	n/a
3562.936	n/a	RECOG_CONF	1781468	n/a	LTP131	ltpFR	1	1	1	BLUEJAY	141	n/a	5	1	n/a	n/a	n/a	n/a	n/a
3564.436	n/a	RECOG_LURE	1782218	n/a	LTP131	ltpFR	1	1	n/a	LONDON	843	0	5	n/a	n/a	n/a	n/a	n/a	n/a
3565.462	n/a	RECOG_RESP	1782731	n/a	LTP131	ltpFR	1	1	n/a	LONDON	843	0	n/a	n/a	n/a	n/a	n/a	n/a	n/a
3566.812	n/a	RECOG_CONF	1783406	n/a	LTP131	ltpFR	1	1	n/a	LONDON	843	n/a	5	n/a	n/a	n/a	n/a	n/a	n/a
3568.786	n/a	RECOG_TARGET	1784393	n/a	LTP131	ltpFR	1	1	-1	BUILDING	191	1	5	-1	n/a	n/a	n/a	n/a	n/a
3569.832	n/a	RECOG_RESP	1784916	n/a	LTP131	ltpFR	1	1	-1	BUILDING	191	1	n/a	-1	n/a	n/a	n/a	n/a	n/a
3571.048	n/a	RECOG_CONF	1785524	n/a	LTP131	ltpFR	1	1	-1	BUILDING	191	n/a	5	-1	n/a	n/a	n/a	n/a	n/a
3572.726	n/a	RECOG_TARGET	1786363	n/a	LTP131	ltpFR	1	1	1	TORTOISE	1486	1	4	1	n/a	n/a	n/a	n/a	n/a
3574.516	n/a	RECOG_RESP	1787258	n/a	LTP131	ltpFR	1	1	1	TORTOISE	1486	1	n/a	1	n/a	n/a	n/a	n/a	n/a
3576.052	n/a	RECOG_CONF	1788026	n/a	LTP131	ltpFR	1	1	1	TORTOISE	1486	n/a	4	1	n/a	n/a	n/a	n/a	n/a
3577.682	n/a	RECOG_LURE	1788841	n/a	LTP131	ltpFR	1	1	n/a	APPLICATION	34	0	3	n/a	n/a	n/a	n/a	n/a	n/a
3579.012	n/a	RECOG_RESP	1789506	n/a	LTP131	ltpFR	1	1	n/a	APPLICATION	34	0	n/a	n/a	n/a	n/a	n/a	n/a	n/a
3580.946	n/a	RECOG_CONF	1790473	n/a	LTP131	ltpFR	1	1	n/a	APPLICATION	34	n/a	3	n/a	n/a	n/a	n/a	n/a	n/a
3582.606	n/a	RECOG_TARGET	1791303	n/a	LTP131	ltpFR	1	1	-1	TREASURE	1500	1	5	-1	n/a	n/a	n/a	n/a	n/a
3584.064	n/a	RECOG_RESP	1792032	n/a	LTP131	ltpFR	1	1	-1	TREASURE	1500	1	n/a	-1	n/a	n/a	n/a	n/a	n/a
3585.26	n/a	RECOG_CONF	1792630	n/a	LTP131	ltpFR	1	1	-1	TREASURE	1500	n/a	5	-1	n/a	n/a	n/a	n/a	n/a
3586.93	n/a	RECOG_TARGET	1793465	n/a	LTP131	ltpFR	1	1	0	BROCCOLI	176	1	3	0	n/a	n/a	n/a	n/a	n/a
3589.098	n/a	RECOG_RESP	1794549	n/a	LTP131	ltpFR	1	1	0	BROCCOLI	176	1	n/a	0	n/a	n/a	n/a	n/a	n/a
3590.524	n/a	RECOG_CONF	1795262	n/a	LTP131	ltpFR	1	1	0	BROCCOLI	176	n/a	3	0	n/a	n/a	n/a	n/a	n/a
3592.336	n/a	RECOG_TARGET	1796168	n/a	LTP131	ltpFR	1	1	-1	MICROPHONE	890	1	5	-1	n/a	n/a	n/a	n/a	n/a
3593.894	n/a	RECOG_RESP	1796947	n/a	LTP131	ltpFR	1	1	-1	MICROPHONE	890	1	n/a	-1	n/a	n/a	n/a	n/a	n/a
3595.04	n/a	RECOG_CONF	1797520	n/a	LTP131	ltpFR	1	1	-1	MICROPHONE	890	n/a	5	-1	n/a	n/a	n/a	n/a	n/a
3596.66	n/a	RECOG_TARGET	1798330	n/a	LTP131	ltpFR	1	1	0	VINE	1568	1	5	1	n/a	n/a	n/a	n/a	n/a
3597.392	n/a	RECOG_RESP	1798696	n/a	LTP131	ltpFR	1	1	0	VINE	1568	1	n/a	1	n/a	n/a	n/a	n/a	n/a
3598.396	n/a	RECOG_CONF	1799198	n/a	LTP131	ltpFR	1	1	0	VINE	1568	n/a	5	1	n/a	n/a	n/a	n/a	n/a
3599.984	n/a	RECOG_TARGET	1799992	n/a	LTP131	ltpFR	1	1	-1	BULL	193	1	5	-1	n/a	n/a	n/a	n/a	n/a
3601.786	n/a	RECOG_RESP	1800893	n/a	LTP131	ltpFR	1	1	-1	BULL	193	1	n/a	-1	n/a	n/a	n/a	n/a	n/a
3602.996	n/a	RECOG_CONF	1801498	n/a	LTP131	ltpFR	1	1	-1	BULL	193	n/a	5	-1	n/a	n/a	n/a	n/a	n/a
3604.574	n/a	RECOG_LURE	1802287	n/a	LTP131	ltpFR	1	1	n/a	BED	110	0	2	n/a	n/a	n/a	n/a	n/a	n/a
3607.018	n/a	RECOG_RESP	1803509	n/a	LTP131	ltpFR	1	1	n/a	BED	110	0	n/a	n/a	n/a	n/a	n/a	n/a	n/a
3608.528	n/a	RECOG_CONF	1804264	n/a	LTP131	ltpFR	1	1	n/a	BED	110	n/a	2	n/a	n/a	n/a	n/a	n/a	n/a
3610.13	n/a	RECOG_TARGET	1805065	n/a	LTP131	ltpFR	1	1	0	FIREMAN	569	1	3	1	n/a	n/a	n/a	n/a	n/a
3612.362	n/a	RECOG_RESP	1806181	n/a	LTP131	ltpFR	1	1	0	FIREMAN	569	1	n/a	1	n/a	n/a	n/a	n/a	n/a
3613.568	n/a	RECOG_CONF	1806784	n/a	LTP131	ltpFR	1	1	0	FIREMAN	569	n/a	3	1	n/a	n/a	n/a	n/a	n/a
3615.488	n/a	RECOG_TARGET	1807744	n/a	LTP131	ltpFR	1	1	1	CASTLE	256	1	5	0	n/a	n/a	n/a	n/a	n/a
3616.378	n/a	RECOG_RESP	1808189	n/a	LTP131	ltpFR	1	1	1	CASTLE	256	1	n/a	0	n/a	n/a	n/a	n/a	n/a
3617.404	n/a	RECOG_CONF	1808702	n/a	LTP131	ltpFR	1	1	1	CASTLE	256	n/a	5	0	n/a	n/a	n/a	n/a	n/a
3618.836	n/a	RECOG_TARGET	1809418	n/a	LTP131	ltpFR	1	1	-1	MONEY	908	1	4	-1	n/a	n/a	n/a	n/a	n/a
3619.868	n/a	RECOG_RESP	1809934	n/a	LTP131	ltpFR	1	1	-1	MONEY	908	1	n/a	-1	n/a	n/a	n/a	n/a	n/a
3620.826	n/a	RECOG_CONF	1810413	n/a	LTP131	ltpFR	1	1	-1	MONEY	908	n/a	4	-1	n/a	n/a	n/a	n/a	n/a
3622.384	n/a	RECOG_TARGET	1811192	n/a	LTP131	ltpFR	1	1	1	KNUCKLE	789	1	5	0	n/a	n/a	n/a	n/a	n/a
3623.126	n/a	RECOG_RESP	1811563	n/a	LTP131	ltpFR	1	1	1	KNUCKLE	789	1	n/a	0	n/a	n/a	n/a	n/a	n/a
3624.116	n/a	RECOG_CONF	1812058	n/a	LTP131	ltpFR	1	1	1	KNUCKLE	789	n/a	5	0	n/a	n/a	n/a	n/a	n/a
3625.594	n/a	RECOG_TARGET	1812797	n/a	LTP131	ltpFR	1	1	0	CASHEW	253	1	4	0	n/a	n/a	n/a	n/a	n/a
3627.176	n/a	RECOG_RESP	1813588	n/a	LTP131	ltpFR	1	1	0	CASHEW	253	1	n/a	0	n/a	n/a	n/a	n/a	n/a
3628.204	n/a	RECOG_CONF	1814102	n/a	LTP131	ltpFR	1	1	0	CASHEW	253	n/a	4	0	n/a	n/a	n/a	n/a	n/a
3629.816	n/a	RECOG_TARGET	1814908	n/a	LTP131	ltpFR	1	1	0	BOY	161	0	2	1	n/a	n/a	n/a	n/a	n/a
3634.09	n/a	RECOG_RESP	1817045	n/a	LTP131	ltpFR	1	1	0	BOY	161	0	n/a	1	n/a	n/a	n/a	n/a	n/a
3635.526	n/a	RECOG_CONF	1817763	n/a	LTP131	ltpFR	1	1	0	BOY	161	n/a	2	1	n/a	n/a	n/a	n/a	n/a
3637.048	n/a	RECOG_TARGET	1818524	n/a	LTP131	ltpFR	1	1	1	QUEEN	1149	1	5	1	n/a	n/a	n/a	n/a	n/a
3637.956	n/a	RECOG_RESP	1818978	n/a	LTP131	ltpFR	1	1	1	QUEEN	1149	1	n/a	1	n/a	n/a	n/a	n/a	n/a
3639.014	n/a	RECOG_CONF	1819507	n/a	LTP131	ltpFR	1	1	1	QUEEN	1149	n/a	5	1	n/a	n/a	n/a	n/a	n/a
3640.604	n/a	RECOG_LURE	1820302	n/a	LTP131	ltpFR	1	1	n/a	ARENA	37	0	3	n/a	n/a	n/a	n/a	n/a	n/a
3641.948	n/a	RECOG_RESP	1820974	n/a	LTP131	ltpFR	1	1	n/a	ARENA	37	0	n/a	n/a	n/a	n/a	n/a	n/a	n/a
3643.384	n/a	RECOG_CONF	1821692	n/a	LTP131	ltpFR	1	1	n/a	ARENA	37	n/a	3	n/a	n/a	n/a	n/a	n/a	n/a
3644.854	n/a	RECOG_TARGET	1822427	n/a	LTP131	ltpFR	1	1	1	MOUSE	925	1	5	1	n/a	n/a	n/a	n/a	n/a
3645.728	n/a	RECOG_RESP	1822864	n/a	LTP131	ltpFR	1	1	1	MOUSE	925	1	n/a	1	n/a	n/a	n/a	n/a	n/a
3646.654	n/a	RECOG_CONF	1823327	n/a	LTP131	ltpFR	1	1	1	MOUSE	925	n/a	5	1	n/a	n/a	n/a	n/a	n/a
3651.096	n/a	REC_START	1825548	n/a	LTP131	ltpFR	1	2	n/a	n/a	n/a	n/a	n/a	n/a	n/a	n/a	n/a	n/a	n/a
3651.126	n/a	RECOG_TARGET	1825563	n/a	LTP131	ltpFR	1	2	-1	BATH	98	1	4	-1	n/a	n/a	n/a	n/a	n/a
3652.408	n/a	RECOG_RESP	1826204	n/a	LTP131	ltpFR	1	2	-1	BATH	98	1	n/a	-1	n/a	n/a	n/a	n/a	n/a
3653.494	n/a	RECOG_CONF	1826747	n/a	LTP131	ltpFR	1	2	-1	BATH	98	n/a	4	-1	n/a	n/a	n/a	n/a	n/a
3654.984	n/a	RECOG_TARGET	1827492	n/a	LTP131	ltpFR	1	2	0	SAUSAGE	1238	1	5	0	n/a	n/a	n/a	n/a	n/a
3655.786	n/a	RECOG_RESP	1827893	n/a	LTP131	ltpFR	1	2	0	SAUSAGE	1238	1	n/a	0	n/a	n/a	n/a	n/a	n/a
3656.798	n/a	RECOG_CONF	1828399	n/a	LTP131	ltpFR	1	2	0	SAUSAGE	1238	n/a	5	0	n/a	n/a	n/a	n/a	n/a
3658.208	n/a	RECOG_TARGET	1829104	n/a	LTP131	ltpFR	1	2	1	STAGE	1366	1	3	0	n/a	n/a	n/a	n/a	n/a
3659.626	n/a	RECOG_RESP	1829813	n/a	LTP131	ltpFR	1	2	1	STAGE	1366	1	n/a	0	n/a	n/a	n/a	n/a	n/a
3660.634	n/a	RECOG_CONF	1830317	n/a	LTP131	ltpFR	1	2	1	STAGE	1366	n/a	3	0	n/a	n/a	n/a	n/a	n/a
3662.032	n/a	RECOG_TARGET	1831016	n/a	LTP131	ltpFR	1	2	1	NICKEL	950	1	5	0	n/a	n/a	n/a	n/a	n/a
3662.834	n/a	RECOG_RESP	1831417	n/a	LTP131	ltpFR	1	2	1	NICKEL	950	1	n/a	0	n/a	n/a	n/a	n/a	n/a
3663.826	n/a	RECOG_CONF	1831913	n/a	LTP131	ltpFR	1	2	1	NICKEL	950	n/a	5	0	n/a	n/a	n/a	n/a	n/a
3665.29	n/a	RECOG_TARGET	1832645	n/a	LTP131	ltpFR	1	2	0	CAP	236	1	5	0	n/a	n/a	n/a	n/a	n/a
3666.05	n/a	RECOG_RESP	1833025	n/a	LTP131	ltpFR	1	2	0	CAP	236	1	n/a	0	n/a	n/a	n/a	n/a	n/a
3667.002	n/a	RECOG_CONF	1833501	n/a	LTP131	ltpFR	1	2	0	CAP	236	n/a	5	0	n/a	n/a	n/a	n/a	n/a
3668.472	n/a	RECOG_TARGET	1834236	n/a	LTP131	ltpFR	1	2	1	HAY	693	1	5	0	n/a	n/a	n/a	n/a	n/a
3669.168	n/a	RECOG_RESP	1834584	n/a	LTP131	ltpFR	1	2	1	HAY	693	1	n/a	0	n/a	n/a	n/a	n/a	n/a
3670.05	n/a	RECOG_CONF	1835025	n/a	LTP131	ltpFR	1	2	1	HAY	693	n/a	5	0	n/a	n/a	n/a	n/a	n/a
3671.546	n/a	RECOG_TARGET	1835773	n/a	LTP131	ltpFR	1	2	-1	PREDATOR	1120	1	5	-1	n/a	n/a	n/a	n/a	n/a
3672.232	n/a	RECOG_RESP	1836116	n/a	LTP131	ltpFR	1	2	-1	PREDATOR	1120	1	n/a	-1	n/a	n/a	n/a	n/a	n/a
3673.088	n/a	RECOG_CONF	1836544	n/a	LTP131	ltpFR	1	2	-1	PREDATOR	1120	n/a	5	-1	n/a	n/a	n/a	n/a	n/a
3674.72	n/a	RECOG_TARGET	1837360	n/a	LTP131	ltpFR	1	2	-1	TOURIST	1488	1	2	-1	n/a	n/a	n/a	n/a	n/a
3678.612	n/a	RECOG_RESP	1839306	n/a	LTP131	ltpFR	1	2	-1	TOURIST	1488	1	n/a	-1	n/a	n/a	n/a	n/a	n/a
3679.804	n/a	RECOG_CONF	1839902	n/a	LTP131	ltpFR	1	2	-1	TOURIST	1488	n/a	2	-1	n/a	n/a	n/a	n/a	n/a
3681.342	n/a	RECOG_LURE	1840671	n/a	LTP131	ltpFR	1	2	n/a	FUDGE	611	0	4	n/a	n/a	n/a	n/a	n/a	n/a
3682.484	n/a	RECOG_RESP	1841242	n/a	LTP131	ltpFR	1	2	n/a	FUDGE	611	0	n/a	n/a	n/a	n/a	n/a	n/a	n/a
3683.616	n/a	RECOG_CONF	1841808	n/a	LTP131	ltpFR	1	2	n/a	FUDGE	611	n/a	4	n/a	n/a	n/a	n/a	n/a	n/a
3685.166	n/a	RECOG_TARGET	1842583	n/a	LTP131	ltpFR	1	2	1	VAULT	1550	1	5	0	n/a	n/a	n/a	n/a	n/a
3685.956	n/a	RECOG_RESP	1842978	n/a	LTP131	ltpFR	1	2	1	VAULT	1550	1	n/a	0	n/a	n/a	n/a	n/a	n/a
3686.928	n/a	RECOG_CONF	1843464	n/a	LTP131	ltpFR	1	2	1	VAULT	1550	n/a	5	0	n/a	n/a	n/a	n/a	n/a
3688.466	n/a	RECOG_TARGET	1844233	n/a	LTP131	ltpFR	1	2	1	STEM	1376	1	5	1	n/a	n/a	n/a	n/a	n/a
3691.782	n/a	RECOG_RESP	1845891	n/a	LTP131	ltpFR	1	2	1	STEM	1376	1	n/a	1	n/a	n/a	n/a	n/a	n/a
3692.738	n/a	RECOG_CONF	1846369	n/a	LTP131	ltpFR	1	2	1	STEM	1376	n/a	5	1	n/a	n/a	n/a	n/a	n/a
3694.288	n/a	RECOG_TARGET	1847144	n/a	LTP131	ltpFR	1	2	0	GRAVE	658	1	5	1	n/a	n/a	n/a	n/a	n/a
3695.292	n/a	RECOG_RESP	1847646	n/a	LTP131	ltpFR	1	2	0	GRAVE	658	1	n/a	1	n/a	n/a	n/a	n/a	n/a
3696.228	n/a	RECOG_CONF	1848114	n/a	LTP131	ltpFR	1	2	0	GRAVE	658	n/a	5	1	n/a	n/a	n/a	n/a	n/a
3697.812	n/a	RECOG_TARGET	1848906	n/a	LTP131	ltpFR	1	2	0	BOYFRIEND	162	0	5	1	n/a	n/a	n/a	n/a	n/a
3699.106	n/a	RECOG_RESP	1849553	n/a	LTP131	ltpFR	1	2	0	BOYFRIEND	162	0	n/a	1	n/a	n/a	n/a	n/a	n/a
3699.994	n/a	RECOG_CONF	1849997	n/a	LTP131	ltpFR	1	2	0	BOYFRIEND	162	n/a	5	1	n/a	n/a	n/a	n/a	n/a
3701.562	n/a	RECOG_TARGET	1850781	n/a	LTP131	ltpFR	1	2	-1	COMPANION	357	1	4	-1	n/a	n/a	n/a	n/a	n/a
3702.974	n/a	RECOG_RESP	1851487	n/a	LTP131	ltpFR	1	2	-1	COMPANION	357	1	n/a	-1	n/a	n/a	n/a	n/a	n/a
3704.372	n/a	RECOG_CONF	1852186	n/a	LTP131	ltpFR	1	2	-1	COMPANION	357	n/a	4	-1	n/a	n/a	n/a	n/a	n/a
3705.844	n/a	RECOG_LURE	1852922	n/a	LTP131	ltpFR	1	2	n/a	MATTRESS	879	0	3	n/a	n/a	n/a	n/a	n/a	n/a
3708.672	n/a	RECOG_RESP	1854336	n/a	LTP131	ltpFR	1	2	n/a	MATTRESS	879	0	n/a	n/a	n/a	n/a	n/a	n/a	n/a
3709.998	n/a	RECOG_CONF	1854999	n/a	LTP131	ltpFR	1	2	n/a	MATTRESS	879	n/a	3	n/a	n/a	n/a	n/a	n/a	n/a
3711.534	n/a	RECOG_LURE	1855767	n/a	LTP131	ltpFR	1	2	n/a	ARTICLE	42	0	4	n/a	n/a	n/a	n/a	n/a	n/a
3713.06	n/a	RECOG_RESP	1856530	n/a	LTP131	ltpFR	1	2	n/a	ARTICLE	42	0	n/a	n/a	n/a	n/a	n/a	n/a	n/a
3714.22	n/a	RECOG_CONF	1857110	n/a	LTP131	ltpFR	1	2	n/a	ARTICLE	42	n/a	4	n/a	n/a	n/a	n/a	n/a	n/a
3715.898	n/a	RECOG_TARGET	1857949	n/a	LTP131	ltpFR	1	2	1	SKUNK	1321	1	5	1	n/a	n/a	n/a	n/a	n/a
3716.712	n/a	RECOG_RESP	1858356	n/a	LTP131	ltpFR	1	2	1	SKUNK	1321	1	n/a	1	n/a	n/a	n/a	n/a	n/a
3717.716	n/a	RECOG_CONF	1858858	n/a	LTP131	ltpFR	1	2	1	SKUNK	1321	n/a	5	1	n/a	n/a	n/a	n/a	n/a
3719.248	n/a	RECOG_TARGET	1859624	n/a	LTP131	ltpFR	1	2	1	HOOD	714	1	4	0	n/a	n/a	n/a	n/a	n/a
3720.742	n/a	RECOG_RESP	1860371	n/a	LTP131	ltpFR	1	2	1	HOOD	714	1	n/a	0	n/a	n/a	n/a	n/a	n/a
3722.08	n/a	RECOG_CONF	1861040	n/a	LTP131	ltpFR	1	2	1	HOOD	714	n/a	4	0	n/a	n/a	n/a	n/a	n/a
3723.538	n/a	RECOG_TARGET	1861769	n/a	LTP131	ltpFR	1	2	-1	GHOST	634	1	5	-1	n/a	n/a	n/a	n/a	n/a
3724.256	n/a	RECOG_RESP	1862128	n/a	LTP131	ltpFR	1	2	-1	GHOST	634	1	n/a	-1	n/a	n/a	n/a	n/a	n/a
3725.21	n/a	RECOG_CONF	1862605	n/a	LTP131	ltpFR	1	2	-1	GHOST	634	n/a	5	-1	n/a	n/a	n/a	n/a	n/a
3726.738	n/a	RECOG_TARGET	1863369	n/a	LTP131	ltpFR	1	2	-1	WITCH	1617	1	5	-1	n/a	n/a	n/a	n/a	n/a
3727.444	n/a	RECOG_RESP	1863722	n/a	LTP131	ltpFR	1	2	-1	WITCH	1617	1	n/a	-1	n/a	n/a	n/a	n/a	n/a
3728.36	n/a	RECOG_CONF	1864180	n/a	LTP131	ltpFR	1	2	-1	WITCH	1617	n/a	5	-1	n/a	n/a	n/a	n/a	n/a
3734.272	n/a	REC_START	1867136	n/a	LTP131	ltpFR	1	3	n/a	n/a	n/a	n/a	n/a	n/a	n/a	n/a	n/a	n/a	n/a
3734.308	n/a	RECOG_TARGET	1867154	n/a	LTP131	ltpFR	1	3	1	COSTUME	383	1	5	0	n/a	n/a	n/a	n/a	n/a
3735.71	n/a	RECOG_RESP	1867855	n/a	LTP131	ltpFR	1	3	1	COSTUME	383	1	n/a	0	n/a	n/a	n/a	n/a	n/a
3736.67	n/a	RECOG_CONF	1868335	n/a	LTP131	ltpFR	1	3	1	COSTUME	383	n/a	5	0	n/a	n/a	n/a	n/a	n/a
3738.292	n/a	RECOG_LURE	1869146	n/a	LTP131	ltpFR	1	3	n/a	HAND	683	0	4	n/a	n/a	n/a	n/a	n/a	n/a
3739.828	n/a	RECOG_RESP	1869914	n/a	LTP131	ltpFR	1	3	n/a	HAND	683	0	n/a	n/a	n/a	n/a	n/a	n/a	n/a
3740.764	n/a	RECOG_CONF	1870382	n/a	LTP131	ltpFR	1	3	n/a	HAND	683	n/a	4	n/a	n/a	n/a	n/a	n/a	n/a
3742.29	n/a	RECOG_TARGET	1871145	n/a	LTP131	ltpFR	1	3	1	LUMBER	848	1	5	0	n/a	n/a	n/a	n/a	n/a
3743.338	n/a	RECOG_RESP	1871669	n/a	LTP131	ltpFR	1	3	1	LUMBER	848	1	n/a	0	n/a	n/a	n/a	n/a	n/a
3744.314	n/a	RECOG_CONF	1872157	n/a	LTP131	ltpFR	1	3	1	LUMBER	848	n/a	5	0	n/a	n/a	n/a	n/a	n/a
3745.714	n/a	RECOG_LURE	1872857	n/a	LTP131	ltpFR	1	3	n/a	VELVET	1555	0	4	n/a	n/a	n/a	n/a	n/a	n/a
3746.848	n/a	RECOG_RESP	1873424	n/a	LTP131	ltpFR	1	3	n/a	VELVET	1555	0	n/a	n/a	n/a	n/a	n/a	n/a	n/a
3747.996	n/a	RECOG_CONF	1873998	n/a	LTP131	ltpFR	1	3	n/a	VELVET	1555	n/a	4	n/a	n/a	n/a	n/a	n/a	n/a
3749.412	n/a	RECOG_TARGET	1874706	n/a	LTP131	ltpFR	1	3	-1	ANCESTOR	20	1	5	-1	n/a	n/a	n/a	n/a	n/a
3750.28	n/a	RECOG_RESP	1875140	n/a	LTP131	ltpFR	1	3	-1	ANCESTOR	20	1	n/a	-1	n/a	n/a	n/a	n/a	n/a
3751.194	n/a	RECOG_CONF	1875597	n/a	LTP131	ltpFR	1	3	-1	ANCESTOR	20	n/a	5	-1	n/a	n/a	n/a	n/a	n/a
3752.662	n/a	RECOG_TARGET	1876331	n/a	LTP131	ltpFR	1	3	1	HEATER	698	1	5	0	n/a	n/a	n/a	n/a	n/a
3753.712	n/a	RECOG_RESP	1876856	n/a	LTP131	ltpFR	1	3	1	HEATER	698	1	n/a	0	n/a	n/a	n/a	n/a	n/a
3754.52	n/a	RECOG_CONF	1877260	n/a	LTP131	ltpFR	1	3	1	HEATER	698	n/a	5	0	n/a	n/a	n/a	n/a	n/a
3756.062	n/a	RECOG_TARGET	1878031	n/a	LTP131	ltpFR	1	3	0	GRILL	661	1	5	1	n/a	n/a	n/a	n/a	n/a
3756.886	n/a	RECOG_RESP	1878443	n/a	LTP131	ltpFR	1	3	0	GRILL	661	1	n/a	1	n/a	n/a	n/a	n/a	n/a
3757.804	n/a	RECOG_CONF	1878902	n/a	LTP131	ltpFR	1	3	0	GRILL	661	n/a	5	1	n/a	n/a	n/a	n/a	n/a
3759.236	n/a	RECOG_LURE	1879618	n/a	LTP131	ltpFR	1	3	n/a	LABEL	790	0	3	n/a	n/a	n/a	n/a	n/a	n/a
3760.738	n/a	RECOG_RESP	1880369	n/a	LTP131	ltpFR	1	3	n/a	LABEL	790	0	n/a	n/a	n/a	n/a	n/a	n/a	n/a
3762.026	n/a	RECOG_CONF	1881013	n/a	LTP131	ltpFR	1	3	n/a	LABEL	790	n/a	3	n/a	n/a	n/a	n/a	n/a	n/a
3763.484	n/a	RECOG_TARGET	1881742	n/a	LTP131	ltpFR	1	3	1	HAYSTACK	694	1	5	0	n/a	n/a	n/a	n/a	n/a
3765.48	n/a	RECOG_RESP	1882740	n/a	LTP131	ltpFR	1	3	1	HAYSTACK	694	1	n/a	0	n/a	n/a	n/a	n/a	n/a
3766.354	n/a	RECOG_CONF	1883177	n/a	LTP131	ltpFR	1	3	1	HAYSTACK	694	n/a	5	0	n/a	n/a	n/a	n/a	n/a
3767.874	n/a	RECOG_LURE	1883937	n/a	LTP131	ltpFR	1	3	n/a	VIOLA	1570	0	5	n/a	n/a	n/a	n/a	n/a	n/a
3768.77	n/a	RECOG_RESP	1884385	n/a	LTP131	ltpFR	1	3	n/a	VIOLA	1570	0	n/a	n/a	n/a	n/a	n/a	n/a	n/a
3769.594	n/a	RECOG_CONF	1884797	n/a	LTP131	ltpFR	1	3	n/a	VIOLA	1570	n/a	5	n/a	n/a	n/a	n/a	n/a	n/a
3771.124	n/a	RECOG_TARGET	1885562	n/a	LTP131	ltpFR	1	3	0	SUPPER	1411	1	3	1	n/a	n/a	n/a	n/a	n/a
3772.97	n/a	RECOG_RESP	1886485	n/a	LTP131	ltpFR	1	3	0	SUPPER	1411	1	n/a	1	n/a	n/a	n/a	n/a	n/a
3774.098	n/a	RECOG_CONF	1887049	n/a	LTP131	ltpFR	1	3	0	SUPPER	1411	n/a	3	1	n/a	n/a	n/a	n/a	n/a
3775.606	n/a	RECOG_LURE	1887803	n/a	LTP131	ltpFR	1	3	n/a	GAVEL	627	0	5	n/a	n/a	n/a	n/a	n/a	n/a
3776.672	n/a	RECOG_RESP	1888336	n/a	LTP131	ltpFR	1	3	n/a	GAVEL	627	0	n/a	n/a	n/a	n/a	n/a	n/a	n/a
3777.75	n/a	RECOG_CONF	1888875	n/a	LTP131	ltpFR	1	3	n/a	GAVEL	627	n/a	5	n/a	n/a	n/a	n/a	n/a	n/a
3779.328	n/a	RECOG_TARGET	1889664	n/a	LTP131	ltpFR	1	3	0	BOXER	160	1	2	1	n/a	n/a	n/a	n/a	n/a
3782.154	n/a	RECOG_RESP	1891077	n/a	LTP131	ltpFR	1	3	0	BOXER	160	1	n/a	1	n/a	n/a	n/a	n/a	n/a
3783.714	n/a	RECOG_CONF	1891857	n/a	LTP131	ltpFR	1	3	0	BOXER	160	n/a	2	1	n/a	n/a	n/a	n/a	n/a
3785.194	n/a	RECOG_TARGET	1892597	n/a	LTP131	ltpFR	1	3	1	AUDIENCE	59	1	2	1	n/a	n/a	n/a	n/a	n/a
3789.266	n/a	RECOG_RESP	1894633	n/a	LTP131	ltpFR	1	3	1	AUDIENCE	59	1	n/a	1	n/a	n/a	n/a	n/a	n/a
3790.618	n/a	RECOG_CONF	1895309	n/a	LTP131	ltpFR	1	3	1	AUDIENCE	59	n/a	2	1	n/a	n/a	n/a	n/a	n/a
3792.166	n/a	RECOG_TARGET	1896083	n/a	LTP131	ltpFR	1	3	1	UMPIRE	1535	1	2	1	n/a	n/a	n/a	n/a	n/a
3793.774	n/a	RECOG_RESP	1896887	n/a	LTP131	ltpFR	1	3	1	UMPIRE	1535	1	n/a	1	n/a	n/a	n/a	n/a	n/a
3795.214	n/a	RECOG_CONF	1897607	n/a	LTP131	ltpFR	1	3	1	UMPIRE	1535	n/a	2	1	n/a	n/a	n/a	n/a	n/a
3796.658	n/a	RECOG_TARGET	1898329	n/a	LTP131	ltpFR	1	3	0	BRIDGE	174	1	5	1	n/a	n/a	n/a	n/a	n/a
3798.212	n/a	RECOG_RESP	1899106	n/a	LTP131	ltpFR	1	3	0	BRIDGE	174	1	n/a	1	n/a	n/a	n/a	n/a	n/a
3799.194	n/a	RECOG_CONF	1899597	n/a	LTP131	ltpFR	1	3	0	BRIDGE	174	n/a	5	1	n/a	n/a	n/a	n/a	n/a
3800.782	n/a	RECOG_TARGET	1900391	n/a	LTP131	ltpFR	1	3	-1	INCENSE	735	1	5	-1	n/a	n/a	n/a	n/a	n/a
3801.7	n/a	RECOG_RESP	1900850	n/a	LTP131	ltpFR	1	3	-1	INCENSE	735	1	n/a	-1	n/a	n/a	n/a	n/a	n/a
3802.624	n/a	RECOG_CONF	1901312	n/a	LTP131	ltpFR	1	3	-1	INCENSE	735	n/a	5	-1	n/a	n/a	n/a	n/a	n/a
3804.08	n/a	RECOG_TARGET	1902040	n/a	LTP131	ltpFR	1	3	-1	KEEPER	769	0	4	-1	n/a	n/a	n/a	n/a	n/a
3804.932	n/a	RECOG_RESP	1902466	n/a	LTP131	ltpFR	1	3	-1	KEEPER	769	0	n/a	-1	n/a	n/a	n/a	n/a	n/a
3806.356	n/a	RECOG_CONF	1903178	n/a	LTP131	ltpFR	1	3	-1	KEEPER	769	n/a	4	-1	n/a	n/a	n/a	n/a	n/a
3807.77	n/a	RECOG_TARGET	1903885	n/a	LTP131	ltpFR	1	3	1	KETCHUP	771	1	5	0	n/a	n/a	n/a	n/a	n/a
3809.982	n/a	RECOG_RESP	1904991	n/a	LTP131	ltpFR	1	3	1	KETCHUP	771	1	n/a	0	n/a	n/a	n/a	n/a	n/a
3811.066	n/a	RECOG_CONF	1905533	n/a	LTP131	ltpFR	1	3	1	KETCHUP	771	n/a	5	0	n/a	n/a	n/a	n/a	n/a
3812.744	n/a	RECOG_TARGET	1906372	n/a	LTP131	ltpFR	1	3	0	MOON	914	1	5	1	n/a	n/a	n/a	n/a	n/a
3813.384	n/a	RECOG_RESP	1906692	n/a	LTP131	ltpFR	1	3	0	MOON	914	1	n/a	1	n/a	n/a	n/a	n/a	n/a
3814.26	n/a	RECOG_CONF	1907130	n/a	LTP131	ltpFR	1	3	0	MOON	914	n/a	5	1	n/a	n/a	n/a	n/a	n/a
3817.658	n/a	REC_START	1908829	n/a	LTP131	ltpFR	1	4	n/a	n/a	n/a	n/a	n/a	n/a	n/a	n/a	n/a	n/a	n/a
3817.694	n/a	RECOG_TARGET	1908847	n/a	LTP131	ltpFR	1	4	0	NOSE	957	1	2	0	n/a	n/a	n/a	n/a	n/a
3822.468	n/a	RECOG_RESP	1911234	n/a	LTP131	ltpFR	1	4	0	NOSE	957	1	n/a	0	n/a	n/a	n/a	n/a	n/a
3823.736	n/a	RECOG_CONF	1911868	n/a	LTP131	ltpFR	1	4	0	NOSE	957	n/a	2	0	n/a	n/a	n/a	n/a	n/a
3825.224	n/a	RECOG_TARGET	1912612	n/a	LTP131	ltpFR	1	4	1	SUPERMARKET	1409	1	5	0	n/a	n/a	n/a	n/a	n/a
3826.666	n/a	RECOG_RESP	1913333	n/a	LTP131	ltpFR	1	4	1	SUPERMARKET	1409	1	n/a	0	n/a	n/a	n/a	n/a	n/a
3827.57	n/a	RECOG_CONF	1913785	n/a	LTP131	ltpFR	1	4	1	SUPERMARKET	1409	n/a	5	0	n/a	n/a	n/a	n/a	n/a
3829.03	n/a	RECOG_TARGET	1914515	n/a	LTP131	ltpFR	1	4	1	SLOPE	1328	0	4	0	n/a	n/a	n/a	n/a	n/a
3831.46	n/a	RECOG_RESP	1915730	n/a	LTP131	ltpFR	1	4	1	SLOPE	1328	0	n/a	0	n/a	n/a	n/a	n/a	n/a
3832.568	n/a	RECOG_CONF	1916284	n/a	LTP131	ltpFR	1	4	1	SLOPE	1328	n/a	4	0	n/a	n/a	n/a	n/a	n/a
3834.122	n/a	RECOG_LURE	1917061	n/a	LTP131	ltpFR	1	4	n/a	HAMMER	680	0	4	n/a	n/a	n/a	n/a	n/a	n/a
3835.134	n/a	RECOG_RESP	1917567	n/a	LTP131	ltpFR	1	4	n/a	HAMMER	680	0	n/a	n/a	n/a	n/a	n/a	n/a	n/a
3836.36	n/a	RECOG_CONF	1918180	n/a	LTP131	ltpFR	1	4	n/a	HAMMER	680	n/a	4	n/a	n/a	n/a	n/a	n/a	n/a
3837.846	n/a	RECOG_TARGET	1918923	n/a	LTP131	ltpFR	1	4	0	TANK	1432	1	5	1	n/a	n/a	n/a	n/a	n/a
3838.81	n/a	RECOG_RESP	1919405	n/a	LTP131	ltpFR	1	4	0	TANK	1432	1	n/a	1	n/a	n/a	n/a	n/a	n/a
3839.696	n/a	RECOG_CONF	1919848	n/a	LTP131	ltpFR	1	4	0	TANK	1432	n/a	5	1	n/a	n/a	n/a	n/a	n/a
3841.21	n/a	RECOG_LURE	1920605	n/a	LTP131	ltpFR	1	4	n/a	DEPUTY	450	0	3	n/a	n/a	n/a	n/a	n/a	n/a
3842.72	n/a	RECOG_RESP	1921360	n/a	LTP131	ltpFR	1	4	n/a	DEPUTY	450	0	n/a	n/a	n/a	n/a	n/a	n/a	n/a
3843.68	n/a	RECOG_CONF	1921840	n/a	LTP131	ltpFR	1	4	n/a	DEPUTY	450	n/a	3	n/a	n/a	n/a	n/a	n/a	n/a
3845.242	n/a	RECOG_TARGET	1922621	n/a	LTP131	ltpFR	1	4	-1	SKETCH	1315	1	5	-1	n/a	n/a	n/a	n/a	n/a
3846.04	n/a	RECOG_RESP	1923020	n/a	LTP131	ltpFR	1	4	-1	SKETCH	1315	1	n/a	-1	n/a	n/a	n/a	n/a	n/a
3846.864	n/a	RECOG_CONF	1923432	n/a	LTP131	ltpFR	1	4	-1	SKETCH	1315	n/a	5	-1	n/a	n/a	n/a	n/a	n/a
3848.45	n/a	RECOG_TARGET	1924225	n/a	LTP131	ltpFR	1	4	0	SCHOOL	1248	0	1	1	n/a	n/a	n/a	n/a	n/a
3855.212	n/a	RECOG_RESP	1927606	n/a	LTP131	ltpFR	1	4	0	SCHOOL	1248	0	n/a	1	n/a	n/a	n/a	n/a	n/a
3856.248	n/a	RECOG_CONF	1928124	n/a	LTP131	ltpFR	1	4	0	SCHOOL	1248	n/a	1	1	n/a	n/a	n/a	n/a	n/a
3857.898	n/a	RECOG_TARGET	1928949	n/a	LTP131	ltpFR	1	4	1	MARSH	874	1	5	0	n/a	n/a	n/a	n/a	n/a
3859.11	n/a	RECOG_RESP	1929555	n/a	LTP131	ltpFR	1	4	1	MARSH	874	1	n/a	0	n/a	n/a	n/a	n/a	n/a
3859.94	n/a	RECOG_CONF	1929970	n/a	LTP131	ltpFR	1	4	1	MARSH	874	n/a	5	0	n/a	n/a	n/a	n/a	n/a
3861.488	n/a	RECOG_LURE	1930744	n/a	LTP131	ltpFR	1	4	n/a	DESK	452	0	4	n/a	n/a	n/a	n/a	n/a	n/a
3862.688	n/a	RECOG_RESP	1931344	n/a	LTP131	ltpFR	1	4	n/a	DESK	452	0	n/a	n/a	n/a	n/a	n/a	n/a	n/a
3863.82	n/a	RECOG_CONF	1931910	n/a	LTP131	ltpFR	1	4	n/a	DESK	452	n/a	4	n/a	n/a	n/a	n/a	n/a	n/a
3865.17	n/a	RECOG_TARGET	1932585	n/a	LTP131	ltpFR	1	4	-1	TUBA	1515	1	5	-1	n/a	n/a	n/a	n/a	n/a
3865.886	n/a	RECOG_RESP	1932943	n/a	LTP131	ltpFR	1	4	-1	TUBA	1515	1	n/a	-1	n/a	n/a	n/a	n/a	n/a
3866.762	n/a	RECOG_CONF	1933381	n/a	LTP131	ltpFR	1	4	-1	TUBA	1515	n/a	5	-1	n/a	n/a	n/a	n/a	n/a
3868.16	n/a	RECOG_TARGET	1934080	n/a	LTP131	ltpFR	1	4	0	GLUE	643	0	5	0	n/a	n/a	n/a	n/a	n/a
3869.034	n/a	RECOG_RESP	1934517	n/a	LTP131	ltpFR	1	4	0	GLUE	643	0	n/a	0	n/a	n/a	n/a	n/a	n/a
3870.136	n/a	RECOG_CONF	1935068	n/a	LTP131	ltpFR	1	4	0	GLUE	643	n/a	5	0	n/a	n/a	n/a	n/a	n/a
3871.576	n/a	RECOG_TARGET	1935788	n/a	LTP131	ltpFR	1	4	1	DUMP	505	1	4	0	n/a	n/a	n/a	n/a	n/a
3874.764	n/a	RECOG_RESP	1937382	n/a	LTP131	ltpFR	1	4	1	DUMP	505	1	n/a	0	n/a	n/a	n/a	n/a	n/a
3875.748	n/a	RECOG_CONF	1937874	n/a	LTP131	ltpFR	1	4	1	DUMP	505	n/a	4	0	n/a	n/a	n/a	n/a	n/a
3877.266	n/a	RECOG_TARGET	1938633	n/a	LTP131	ltpFR	1	4	1	COUGAR	387	1	5	1	n/a	n/a	n/a	n/a	n/a
3878.17	n/a	RECOG_RESP	1939085	n/a	LTP131	ltpFR	1	4	1	COUGAR	387	1	n/a	1	n/a	n/a	n/a	n/a	n/a
3879.176	n/a	RECOG_CONF	1939588	n/a	LTP131	ltpFR	1	4	1	COUGAR	387	n/a	5	1	n/a	n/a	n/a	n/a	n/a
3880.708	n/a	RECOG_TARGET	1940354	n/a	LTP131	ltpFR	1	4	1	STOVE	1388	1	2	0	n/a	n/a	n/a	n/a	n/a
3882.79	n/a	RECOG_RESP	1941395	n/a	LTP131	ltpFR	1	4	1	STOVE	1388	1	n/a	0	n/a	n/a	n/a	n/a	n/a
3883.914	n/a	RECOG_CONF	1941957	n/a	LTP131	ltpFR	1	4	1	STOVE	1388	n/a	2	0	n/a	n/a	n/a	n/a	n/a
3885.396	n/a	RECOG_TARGET	1942698	n/a	LTP131	ltpFR	1	4	1	LANDSCAPE	799	1	5	0	n/a	n/a	n/a	n/a	n/a
3887.156	n/a	RECOG_RESP	1943578	n/a	LTP131	ltpFR	1	4	1	LANDSCAPE	799	1	n/a	0	n/a	n/a	n/a	n/a	n/a
3887.96	n/a	RECOG_CONF	1943980	n/a	LTP131	ltpFR	1	4	1	LANDSCAPE	799	n/a	5	0	n/a	n/a	n/a	n/a	n/a
3889.394	n/a	RECOG_LURE	1944697	n/a	LTP131	ltpFR	1	4	n/a	CANYON	235	1	3	n/a	n/a	n/a	n/a	n/a	n/a
3891.24	n/a	RECOG_RESP	1945620	n/a	LTP131	ltpFR	1	4	n/a	CANYON	235	1	n/a	n/a	n/a	n/a	n/a	n/a	n/a
3892.246	n/a	RECOG_CONF	1946123	n/a	LTP131	ltpFR	1	4	n/a	CANYON	235	n/a	3	n/a	n/a	n/a	n/a	n/a	n/a
3893.854	n/a	RECOG_TARGET	1946927	n/a	LTP131	ltpFR	1	4	-1	DISC	473	1	5	-1	n/a	n/a	n/a	n/a	n/a
3894.598	n/a	RECOG_RESP	1947299	n/a	LTP131	ltpFR	1	4	-1	DISC	473	1	n/a	-1	n/a	n/a	n/a	n/a	n/a
3895.78	n/a	RECOG_CONF	1947890	n/a	LTP131	ltpFR	1	4	-1	DISC	473	n/a	5	-1	n/a	n/a	n/a	n/a	n/a
3897.384	n/a	RECOG_TARGET	1948692	n/a	LTP131	ltpFR	1	4	-1	ICEBERG	731	1	5	-1	n/a	n/a	n/a	n/a	n/a
3898.29	n/a	RECOG_RESP	1949145	n/a	LTP131	ltpFR	1	4	-1	ICEBERG	731	1	n/a	-1	n/a	n/a	n/a	n/a	n/a
3899.4	n/a	RECOG_CONF	1949700	n/a	LTP131	ltpFR	1	4	-1	ICEBERG	731	n/a	5	-1	n/a	n/a	n/a	n/a	n/a
3900.926	n/a	RECOG_TARGET	1950463	n/a	LTP131	ltpFR	1	4	0	RECEPTIONIST	1174	1	2	1	n/a	n/a	n/a	n/a	n/a
3906.032	n/a	RECOG_RESP	1953016	n/a	LTP131	ltpFR	1	4	0	RECEPTIONIST	1174	1	n/a	1	n/a	n/a	n/a	n/a	n/a
3907.144	n/a	RECOG_CONF	1953572	n/a	LTP131	ltpFR	1	4	0	RECEPTIONIST	1174	n/a	2	1	n/a	n/a	n/a	n/a	n/a
3911.074	n/a	REC_START	1955537	n/a	LTP131	ltpFR	1	5	n/a	n/a	n/a	n/a	n/a	n/a	n/a	n/a	n/a	n/a	n/a
3911.106	n/a	RECOG_TARGET	1955553	n/a	LTP131	ltpFR	1	5	0	BARLEY	88	1	5	0	n/a	n/a	n/a	n/a	n/a
3912.144	n/a	RECOG_RESP	1956072	n/a	LTP131	ltpFR	1	5	0	BARLEY	88	1	n/a	0	n/a	n/a	n/a	n/a	n/a
3913.11	n/a	RECOG_CONF	1956555	n/a	LTP131	ltpFR	1	5	0	BARLEY	88	n/a	5	0	n/a	n/a	n/a	n/a	n/a
3914.646	n/a	RECOG_TARGET	1957323	n/a	LTP131	ltpFR	1	5	-1	PEN	1041	1	4	-1	n/a	n/a	n/a	n/a	n/a
3919.074	n/a	RECOG_RESP	1959537	n/a	LTP131	ltpFR	1	5	-1	PEN	1041	1	n/a	-1	n/a	n/a	n/a	n/a	n/a
3920.058	n/a	RECOG_CONF	1960029	n/a	LTP131	ltpFR	1	5	-1	PEN	1041	n/a	4	-1	n/a	n/a	n/a	n/a	n/a
3921.678	n/a	RECOG_LURE	1960839	n/a	LTP131	ltpFR	1	5	n/a	ANT	25	0	5	n/a	n/a	n/a	n/a	n/a	n/a
3922.562	n/a	RECOG_RESP_VV	1961281	n/a	LTP131	ltpFR	1	5	n/a	ANT	25	1	n/a	n/a	n/a	n/a	n/a	n/a	n/a
3925.118	n/a	RECOG_RESP	1962559	n/a	LTP131	ltpFR	1	5	n/a	ANT	25	0	n/a	n/a	n/a	n/a	n/a	n/a	n/a
3926.39	n/a	RECOG_CONF	1963195	n/a	LTP131	ltpFR	1	5	n/a	ANT	25	n/a	5	n/a	n/a	n/a	n/a	n/a	n/a
3928.044	n/a	RECOG_TARGET	1964022	n/a	LTP131	ltpFR	1	5	1	SHRINE	1298	1	2	0	n/a	n/a	n/a	n/a	n/a
3931.244	n/a	RECOG_RESP	1965622	n/a	LTP131	ltpFR	1	5	1	SHRINE	1298	1	n/a	0	n/a	n/a	n/a	n/a	n/a
3932.494	n/a	RECOG_CONF	1966247	n/a	LTP131	ltpFR	1	5	1	SHRINE	1298	n/a	2	0	n/a	n/a	n/a	n/a	n/a
3934.116	n/a	RECOG_TARGET	1967058	n/a	LTP131	ltpFR	1	5	0	GRASS	655	1	5	0	n/a	n/a	n/a	n/a	n/a
3935.008	n/a	RECOG_RESP	1967504	n/a	LTP131	ltpFR	1	5	0	GRASS	655	1	n/a	0	n/a	n/a	n/a	n/a	n/a
3936.024	n/a	RECOG_CONF	1968012	n/a	LTP131	ltpFR	1	5	0	GRASS	655	n/a	5	0	n/a	n/a	n/a	n/a	n/a
3937.456	n/a	RECOG_TARGET	1968728	n/a	LTP131	ltpFR	1	5	1	ROAD	1196	1	4	0	n/a	n/a	n/a	n/a	n/a
3938.518	n/a	RECOG_RESP	1969259	n/a	LTP131	ltpFR	1	5	1	ROAD	1196	1	n/a	0	n/a	n/a	n/a	n/a	n/a
3939.442	n/a	RECOG_CONF	1969721	n/a	LTP131	ltpFR	1	5	1	ROAD	1196	n/a	4	0	n/a	n/a	n/a	n/a	n/a
3940.998	n/a	RECOG_TARGET	1970499	n/a	LTP131	ltpFR	1	5	0	TABLE	1426	1	5	1	n/a	n/a	n/a	n/a	n/a
3941.87	n/a	RECOG_RESP	1970935	n/a	LTP131	ltpFR	1	5	0	TABLE	1426	1	n/a	1	n/a	n/a	n/a	n/a	n/a
3942.718	n/a	RECOG_CONF	1971359	n/a	LTP131	ltpFR	1	5	0	TABLE	1426	n/a	5	1	n/a	n/a	n/a	n/a	n/a
3944.23	n/a	RECOG_TARGET	1972115	n/a	LTP131	ltpFR	1	5	0	PRISON	1127	1	5	1	n/a	n/a	n/a	n/a	n/a
3945.02	n/a	RECOG_RESP	1972510	n/a	LTP131	ltpFR	1	5	0	PRISON	1127	1	n/a	1	n/a	n/a	n/a	n/a	n/a
3945.952	n/a	RECOG_CONF	1972976	n/a	LTP131	ltpFR	1	5	0	PRISON	1127	n/a	5	1	n/a	n/a	n/a	n/a	n/a
3947.404	n/a	RECOG_TARGET	1973702	n/a	LTP131	ltpFR	1	5	-1	WOUND	1624	1	5	-1	n/a	n/a	n/a	n/a	n/a
3948.072	n/a	RECOG_RESP	1974036	n/a	LTP131	ltpFR	1	5	-1	WOUND	1624	1	n/a	-1	n/a	n/a	n/a	n/a	n/a
3948.974	n/a	RECOG_CONF	1974487	n/a	LTP131	ltpFR	1	5	-1	WOUND	1624	n/a	5	-1	n/a	n/a	n/a	n/a	n/a
3950.544	n/a	RECOG_TARGET	1975272	n/a	LTP131	ltpFR	1	5	-1	TRENCH	1503	1	5	-1	n/a	n/a	n/a	n/a	n/a
3951.26	n/a	RECOG_RESP	1975630	n/a	LTP131	ltpFR	1	5	-1	TRENCH	1503	1	n/a	-1	n/a	n/a	n/a	n/a	n/a
3952.256	n/a	RECOG_CONF	1976128	n/a	LTP131	ltpFR	1	5	-1	TRENCH	1503	n/a	5	-1	n/a	n/a	n/a	n/a	n/a
3953.794	n/a	RECOG_TARGET	1976897	n/a	LTP131	ltpFR	1	5	1	BELL	118	1	4	0	n/a	n/a	n/a	n/a	n/a
3955.092	n/a	RECOG_RESP	1977546	n/a	LTP131	ltpFR	1	5	1	BELL	118	1	n/a	0	n/a	n/a	n/a	n/a	n/a
3956.026	n/a	RECOG_CONF	1978013	n/a	LTP131	ltpFR	1	5	1	BELL	118	n/a	4	0	n/a	n/a	n/a	n/a	n/a
3957.558	n/a	RECOG_TARGET	1978779	n/a	LTP131	ltpFR	1	5	1	PARIS	1014	1	5	0	n/a	n/a	n/a	n/a	n/a
3958.736	n/a	RECOG_RESP	1979368	n/a	LTP131	ltpFR	1	5	1	PARIS	1014	1	n/a	0	n/a	n/a	n/a	n/a	n/a
3959.68	n/a	RECOG_CONF	1979840	n/a	LTP131	ltpFR	1	5	1	PARIS	1014	n/a	5	0	n/a	n/a	n/a	n/a	n/a
3961.374	n/a	RECOG_TARGET	1980687	n/a	LTP131	ltpFR	1	5	0	BALCONY	72	1	5	1	n/a	n/a	n/a	n/a	n/a
3962.1	n/a	RECOG_RESP	1981050	n/a	LTP131	ltpFR	1	5	0	BALCONY	72	1	n/a	1	n/a	n/a	n/a	n/a	n/a
3962.984	n/a	RECOG_CONF	1981492	n/a	LTP131	ltpFR	1	5	0	BALCONY	72	n/a	5	1	n/a	n/a	n/a	n/a	n/a
3964.456	n/a	RECOG_TARGET	1982228	n/a	LTP131	ltpFR	1	5	-1	JUGGLER	763	1	5	-1	n/a	n/a	n/a	n/a	n/a
3966.552	n/a	RECOG_RESP	1983276	n/a	LTP131	ltpFR	1	5	-1	JUGGLER	763	1	n/a	-1	n/a	n/a	n/a	n/a	n/a
3967.548	n/a	RECOG_CONF	1983774	n/a	LTP131	ltpFR	1	5	-1	JUGGLER	763	n/a	5	-1	n/a	n/a	n/a	n/a	n/a
3969.548	n/a	RECOG_TARGET	1984774	n/a	LTP131	ltpFR	1	5	-1	LIST	830	1	5	-1	n/a	n/a	n/a	n/a	n/a
3970.476	n/a	RECOG_RESP	1985238	n/a	LTP131	ltpFR	1	5	-1	LIST	830	1	n/a	-1	n/a	n/a	n/a	n/a	n/a
3971.296	n/a	RECOG_CONF	1985648	n/a	LTP131	ltpFR	1	5	-1	LIST	830	n/a	5	-1	n/a	n/a	n/a	n/a	n/a
3972.888	n/a	RECOG_LURE	1986444	n/a	LTP131	ltpFR	1	5	n/a	ZEBRA	1635	0	3	n/a	n/a	n/a	n/a	n/a	n/a
3975.014	n/a	RECOG_RESP	1987507	n/a	LTP131	ltpFR	1	5	n/a	ZEBRA	1635	0	n/a	n/a	n/a	n/a	n/a	n/a	n/a
3975.91	n/a	RECOG_CONF	1987955	n/a	LTP131	ltpFR	1	5	n/a	ZEBRA	1635	n/a	3	n/a	n/a	n/a	n/a	n/a	n/a
3977.552	n/a	RECOG_LURE	1988776	n/a	LTP131	ltpFR	1	5	n/a	POPE	1105	0	2	n/a	n/a	n/a	n/a	n/a	n/a
3979.166	n/a	RECOG_RESP	1989583	n/a	LTP131	ltpFR	1	5	n/a	POPE	1105	0	n/a	n/a	n/a	n/a	n/a	n/a	n/a
3980.184	n/a	RECOG_CONF	1990092	n/a	LTP131	ltpFR	1	5	n/a	POPE	1105	n/a	2	n/a	n/a	n/a	n/a	n/a	n/a
3981.668	n/a	RECOG_TARGET	1990834	n/a	LTP131	ltpFR	1	5	1	SANDWICH	1232	0	2	0	n/a	n/a	n/a	n/a	n/a
3982.51	n/a	RECOG_RESP	1991255	n/a	LTP131	ltpFR	1	5	1	SANDWICH	1232	0	n/a	0	n/a	n/a	n/a	n/a	n/a
3984.27	n/a	RECOG_CONF	1992135	n/a	LTP131	ltpFR	1	5	1	SANDWICH	1232	n/a	2	0	n/a	n/a	n/a	n/a	n/a
3985.61	n/a	RECOG_TARGET	1992805	n/a	LTP131	ltpFR	1	5	1	WINDSHIELD	1612	1	3	0	n/a	n/a	n/a	n/a	n/a
3989.542	n/a	RECOG_RESP	1994771	n/a	LTP131	ltpFR	1	5	1	WINDSHIELD	1612	1	n/a	0	n/a	n/a	n/a	n/a	n/a
3990.6	n/a	RECOG_CONF	1995300	n/a	LTP131	ltpFR	1	5	1	WINDSHIELD	1612	n/a	3	0	n/a	n/a	n/a	n/a	n/a
3992.206	n/a	RECOG_TARGET	1996103	n/a	LTP131	ltpFR	1	5	0	SILK	1307	1	2	0	n/a	n/a	n/a	n/a	n/a
3994.482	n/a	RECOG_RESP	1997241	n/a	LTP131	ltpFR	1	5	0	SILK	1307	1	n/a	0	n/a	n/a	n/a	n/a	n/a
3995.538	n/a	RECOG_CONF	1997769	n/a	LTP131	ltpFR	1	5	0	SILK	1307	n/a	2	0	n/a	n/a	n/a	n/a	n/a
4006.85	n/a	REC_START	2003425	n/a	LTP131	ltpFR	1	6	n/a	n/a	n/a	n/a	n/a	n/a	n/a	n/a	n/a	n/a	n/a
4006.886	n/a	RECOG_LURE	2003443	n/a	LTP131	ltpFR	1	6	n/a	ALLEY	15	0	4	n/a	n/a	n/a	n/a	n/a	n/a
4007.844	n/a	RECOG_RESP	2003922	n/a	LTP131	ltpFR	1	6	n/a	ALLEY	15	0	n/a	n/a	n/a	n/a	n/a	n/a	n/a
4009.428	n/a	RECOG_CONF	2004714	n/a	LTP131	ltpFR	1	6	n/a	ALLEY	15	n/a	4	n/a	n/a	n/a	n/a	n/a	n/a
4010.76	n/a	RECOG_LURE	2005380	n/a	LTP131	ltpFR	1	6	n/a	STEP	1377	0	3	n/a	n/a	n/a	n/a	n/a	n/a
4013.782	n/a	RECOG_RESP	2006891	n/a	LTP131	ltpFR	1	6	n/a	STEP	1377	0	n/a	n/a	n/a	n/a	n/a	n/a	n/a
4015.0	n/a	RECOG_CONF	2007500	n/a	LTP131	ltpFR	1	6	n/a	STEP	1377	n/a	3	n/a	n/a	n/a	n/a	n/a	n/a
4016.54	n/a	RECOG_TARGET	2008270	n/a	LTP131	ltpFR	1	6	1	PALM	1007	1	5	0	n/a	n/a	n/a	n/a	n/a
4017.932	n/a	RECOG_RESP	2008966	n/a	LTP131	ltpFR	1	6	1	PALM	1007	1	n/a	0	n/a	n/a	n/a	n/a	n/a
4019.02	n/a	RECOG_CONF	2009510	n/a	LTP131	ltpFR	1	6	1	PALM	1007	n/a	5	0	n/a	n/a	n/a	n/a	n/a
4020.582	n/a	RECOG_TARGET	2010291	n/a	LTP131	ltpFR	1	6	1	CRITIC	410	1	5	1	n/a	n/a	n/a	n/a	n/a
4021.478	n/a	RECOG_RESP	2010739	n/a	LTP131	ltpFR	1	6	1	CRITIC	410	1	n/a	1	n/a	n/a	n/a	n/a	n/a
4022.588	n/a	RECOG_CONF	2011294	n/a	LTP131	ltpFR	1	6	1	CRITIC	410	n/a	5	1	n/a	n/a	n/a	n/a	n/a
4023.914	n/a	RECOG_TARGET	2011957	n/a	LTP131	ltpFR	1	6	-1	DAUGHTER	442	1	5	-1	n/a	n/a	n/a	n/a	n/a
4024.61	n/a	RECOG_RESP	2012305	n/a	LTP131	ltpFR	1	6	-1	DAUGHTER	442	1	n/a	-1	n/a	n/a	n/a	n/a	n/a
4025.616	n/a	RECOG_CONF	2012808	n/a	LTP131	ltpFR	1	6	-1	DAUGHTER	442	n/a	5	-1	n/a	n/a	n/a	n/a	n/a
4027.038	n/a	RECOG_TARGET	2013519	n/a	LTP131	ltpFR	1	6	0	VINEGAR	1569	1	5	0	n/a	n/a	n/a	n/a	n/a
4028.726	n/a	RECOG_RESP	2014363	n/a	LTP131	ltpFR	1	6	0	VINEGAR	1569	1	n/a	0	n/a	n/a	n/a	n/a	n/a
4029.734	n/a	RECOG_CONF	2014867	n/a	LTP131	ltpFR	1	6	0	VINEGAR	1569	n/a	5	0	n/a	n/a	n/a	n/a	n/a
4031.304	n/a	RECOG_TARGET	2015652	n/a	LTP131	ltpFR	1	6	1	LADDER	793	1	3	0	n/a	n/a	n/a	n/a	n/a
4032.68	n/a	RECOG_RESP	2016340	n/a	LTP131	ltpFR	1	6	1	LADDER	793	1	n/a	0	n/a	n/a	n/a	n/a	n/a
4033.924	n/a	RECOG_CONF	2016962	n/a	LTP131	ltpFR	1	6	1	LADDER	793	n/a	3	0	n/a	n/a	n/a	n/a	n/a
4035.41	n/a	RECOG_TARGET	2017705	n/a	LTP131	ltpFR	1	6	0	UNIFORM	1539	0	2	0	n/a	n/a	n/a	n/a	n/a
4043.01	n/a	RECOG_RESP	2021505	n/a	LTP131	ltpFR	1	6	0	UNIFORM	1539	0	n/a	0	n/a	n/a	n/a	n/a	n/a
4045.44	n/a	RECOG_CONF	2022720	n/a	LTP131	ltpFR	1	6	0	UNIFORM	1539	n/a	2	0	n/a	n/a	n/a	n/a	n/a
4046.998	n/a	RECOG_TARGET	2023499	n/a	LTP131	ltpFR	1	6	1	LOUNGE	845	1	5	0	n/a	n/a	n/a	n/a	n/a
4047.796	n/a	RECOG_RESP	2023898	n/a	LTP131	ltpFR	1	6	1	LOUNGE	845	1	n/a	0	n/a	n/a	n/a	n/a	n/a
4048.71	n/a	RECOG_CONF	2024355	n/a	LTP131	ltpFR	1	6	1	LOUNGE	845	n/a	5	0	n/a	n/a	n/a	n/a	n/a
4050.114	n/a	RECOG_TARGET	2025057	n/a	LTP131	ltpFR	1	6	1	COBBLER	335	1	5	0	n/a	n/a	n/a	n/a	n/a
4050.89	n/a	RECOG_RESP	2025445	n/a	LTP131	ltpFR	1	6	1	COBBLER	335	1	n/a	0	n/a	n/a	n/a	n/a	n/a
4051.674	n/a	RECOG_CONF	2025837	n/a	LTP131	ltpFR	1	6	1	COBBLER	335	n/a	5	0	n/a	n/a	n/a	n/a	n/a
4053.122	n/a	RECOG_TARGET	2026561	n/a	LTP131	ltpFR	1	6	0	WAX	1597	1	5	0	n/a	n/a	n/a	n/a	n/a
4055.996	n/a	RECOG_RESP	2027998	n/a	LTP131	ltpFR	1	6	0	WAX	1597	1	n/a	0	n/a	n/a	n/a	n/a	n/a
4057.226	n/a	RECOG_CONF	2028613	n/a	LTP131	ltpFR	1	6	0	WAX	1597	n/a	5	0	n/a	n/a	n/a	n/a	n/a
4058.97	n/a	RECOG_LURE	2029485	n/a	LTP131	ltpFR	1	6	n/a	NEPTUNE	943	0	5	n/a	n/a	n/a	n/a	n/a	n/a
4060.18	n/a	RECOG_RESP	2030090	n/a	LTP131	ltpFR	1	6	n/a	NEPTUNE	943	0	n/a	n/a	n/a	n/a	n/a	n/a	n/a
4061.216	n/a	RECOG_CONF	2030608	n/a	LTP131	ltpFR	1	6	n/a	NEPTUNE	943	n/a	5	n/a	n/a	n/a	n/a	n/a	n/a
4062.66	n/a	RECOG_TARGET	2031330	n/a	LTP131	ltpFR	1	6	-1	TOOL	1480	0	3	-1	n/a	n/a	n/a	n/a	n/a
4063.784	n/a	RECOG_RESP	2031892	n/a	LTP131	ltpFR	1	6	-1	TOOL	1480	0	n/a	-1	n/a	n/a	n/a	n/a	n/a
4065.482	n/a	RECOG_CONF	2032741	n/a	LTP131	ltpFR	1	6	-1	TOOL	1480	n/a	3	-1	n/a	n/a	n/a	n/a	n/a
4066.868	n/a	RECOG_LURE	2033434	n/a	LTP131	ltpFR	1	6	n/a	SNAKE	1333	0	4	n/a	n/a	n/a	n/a	n/a	n/a
4068.408	n/a	RECOG_RESP	2034204	n/a	LTP131	ltpFR	1	6	n/a	SNAKE	1333	0	n/a	n/a	n/a	n/a	n/a	n/a	n/a
4069.554	n/a	RECOG_CONF	2034777	n/a	LTP131	ltpFR	1	6	n/a	SNAKE	1333	n/a	4	n/a	n/a	n/a	n/a	n/a	n/a
4070.858	n/a	RECOG_LURE	2035429	n/a	LTP131	ltpFR	1	6	n/a	CARNIVAL	245	0	2	n/a	n/a	n/a	n/a	n/a	n/a
4072.64	n/a	RECOG_RESP	2036320	n/a	LTP131	ltpFR	1	6	n/a	CARNIVAL	245	0	n/a	n/a	n/a	n/a	n/a	n/a	n/a
4074.14	n/a	RECOG_CONF	2037070	n/a	LTP131	ltpFR	1	6	n/a	CARNIVAL	245	n/a	2	n/a	n/a	n/a	n/a	n/a	n/a
4075.606	n/a	RECOG_TARGET	2037803	n/a	LTP131	ltpFR	1	6	1	EMPLOYEE	531	1	5	1	n/a	n/a	n/a	n/a	n/a
4076.896	n/a	RECOG_RESP	2038448	n/a	LTP131	ltpFR	1	6	1	EMPLOYEE	531	1	n/a	1	n/a	n/a	n/a	n/a	n/a
4078.74	n/a	RECOG_CONF	2039370	n/a	LTP131	ltpFR	1	6	1	EMPLOYEE	531	n/a	5	1	n/a	n/a	n/a	n/a	n/a
4080.37	n/a	RECOG_LURE	2040185	n/a	LTP131	ltpFR	1	6	n/a	EAR	513	1	4	n/a	n/a	n/a	n/a	n/a	n/a
4081.97	n/a	RECOG_RESP	2040985	n/a	LTP131	ltpFR	1	6	n/a	EAR	513	1	n/a	n/a	n/a	n/a	n/a	n/a	n/a
4083.106	n/a	RECOG_CONF	2041553	n/a	LTP131	ltpFR	1	6	n/a	EAR	513	n/a	4	n/a	n/a	n/a	n/a	n/a	n/a
4084.57	n/a	RECOG_TARGET	2042285	n/a	LTP131	ltpFR	1	6	1	FIREPLACE	570	0	2	0	n/a	n/a	n/a	n/a	n/a
4088.372	n/a	RECOG_RESP	2044186	n/a	LTP131	ltpFR	1	6	1	FIREPLACE	570	0	n/a	0	n/a	n/a	n/a	n/a	n/a
4089.4	n/a	RECOG_CONF	2044700	n/a	LTP131	ltpFR	1	6	1	FIREPLACE	570	n/a	2	0	n/a	n/a	n/a	n/a	n/a
4090.876	n/a	RECOG_TARGET	2045438	n/a	LTP131	ltpFR	1	6	1	GARBAGE	622	1	3	0	n/a	n/a	n/a	n/a	n/a
4092.022	n/a	RECOG_RESP	2046011	n/a	LTP131	ltpFR	1	6	1	GARBAGE	622	1	n/a	0	n/a	n/a	n/a	n/a	n/a
4093.182	n/a	RECOG_CONF	2046591	n/a	LTP131	ltpFR	1	6	1	GARBAGE	622	n/a	3	0	n/a	n/a	n/a	n/a	n/a
4094.626	n/a	RECOG_LURE	2047313	n/a	LTP131	ltpFR	1	6	n/a	CELLAR	267	0	4	n/a	n/a	n/a	n/a	n/a	n/a
4095.97	n/a	RECOG_RESP	2047985	n/a	LTP131	ltpFR	1	6	n/a	CELLAR	267	0	n/a	n/a	n/a	n/a	n/a	n/a	n/a
4096.958	n/a	RECOG_CONF	2048479	n/a	LTP131	ltpFR	1	6	n/a	CELLAR	267	n/a	4	n/a	n/a	n/a	n/a	n/a	n/a
4100.366	n/a	REC_START	2050183	n/a	LTP131	ltpFR	1	7	n/a	n/a	n/a	n/a	n/a	n/a	n/a	n/a	n/a	n/a	n/a
4100.398	n/a	RECOG_TARGET	2050199	n/a	LTP131	ltpFR	1	7	0	RANCH	1166	0	4	1	n/a	n/a	n/a	n/a	n/a
4103.028	n/a	RECOG_RESP	2051514	n/a	LTP131	ltpFR	1	7	0	RANCH	1166	0	n/a	1	n/a	n/a	n/a	n/a	n/a
4104.406	n/a	RECOG_CONF	2052203	n/a	LTP131	ltpFR	1	7	0	RANCH	1166	n/a	4	1	n/a	n/a	n/a	n/a	n/a
4106.022	n/a	RECOG_TARGET	2053011	n/a	LTP131	ltpFR	1	7	0	PLUM	1090	1	5	0	n/a	n/a	n/a	n/a	n/a
4107.658	n/a	RECOG_RESP	2053829	n/a	LTP131	ltpFR	1	7	0	PLUM	1090	1	n/a	0	n/a	n/a	n/a	n/a	n/a
4108.662	n/a	RECOG_CONF	2054331	n/a	LTP131	ltpFR	1	7	0	PLUM	1090	n/a	5	0	n/a	n/a	n/a	n/a	n/a
4110.312	n/a	RECOG_TARGET	2055156	n/a	LTP131	ltpFR	1	7	0	NOVEL	960	1	4	0	n/a	n/a	n/a	n/a	n/a
4112.368	n/a	RECOG_RESP	2056184	n/a	LTP131	ltpFR	1	7	0	NOVEL	960	1	n/a	0	n/a	n/a	n/a	n/a	n/a
4113.446	n/a	RECOG_CONF	2056723	n/a	LTP131	ltpFR	1	7	0	NOVEL	960	n/a	4	0	n/a	n/a	n/a	n/a	n/a
4114.902	n/a	RECOG_TARGET	2057451	n/a	LTP131	ltpFR	1	7	1	ASTEROID	50	1	5	0	n/a	n/a	n/a	n/a	n/a
4115.696	n/a	RECOG_RESP	2057848	n/a	LTP131	ltpFR	1	7	1	ASTEROID	50	1	n/a	0	n/a	n/a	n/a	n/a	n/a
4116.644	n/a	RECOG_CONF	2058322	n/a	LTP131	ltpFR	1	7	1	ASTEROID	50	n/a	5	0	n/a	n/a	n/a	n/a	n/a
4118.202	n/a	RECOG_TARGET	2059101	n/a	LTP131	ltpFR	1	7	-1	FRAME	600	1	5	-1	n/a	n/a	n/a	n/a	n/a
4118.972	n/a	RECOG_RESP	2059486	n/a	LTP131	ltpFR	1	7	-1	FRAME	600	1	n/a	-1	n/a	n/a	n/a	n/a	n/a
4119.942	n/a	RECOG_CONF	2059971	n/a	LTP131	ltpFR	1	7	-1	FRAME	600	n/a	5	-1	n/a	n/a	n/a	n/a	n/a
4121.502	n/a	RECOG_TARGET	2060751	n/a	LTP131	ltpFR	1	7	0	LACE	792	1	3	0	n/a	n/a	n/a	n/a	n/a
4123.164	n/a	RECOG_RESP	2061582	n/a	LTP131	ltpFR	1	7	0	LACE	792	1	n/a	0	n/a	n/a	n/a	n/a	n/a
4125.15	n/a	RECOG_CONF	2062575	n/a	LTP131	ltpFR	1	7	0	LACE	792	n/a	3	0	n/a	n/a	n/a	n/a	n/a
4126.766	n/a	RECOG_LURE	2063383	n/a	LTP131	ltpFR	1	7	n/a	BROTHER	179	0	3	n/a	n/a	n/a	n/a	n/a	n/a
4128.538	n/a	RECOG_RESP	2064269	n/a	LTP131	ltpFR	1	7	n/a	BROTHER	179	0	n/a	n/a	n/a	n/a	n/a	n/a	n/a
4129.706	n/a	RECOG_CONF	2064853	n/a	LTP131	ltpFR	1	7	n/a	BROTHER	179	n/a	3	n/a	n/a	n/a	n/a	n/a	n/a
4131.164	n/a	RECOG_TARGET	2065582	n/a	LTP131	ltpFR	1	7	-1	FIGHTER	564	0	2	-1	n/a	n/a	n/a	n/a	n/a
4133.302	n/a	RECOG_RESP	2066651	n/a	LTP131	ltpFR	1	7	-1	FIGHTER	564	0	n/a	-1	n/a	n/a	n/a	n/a	n/a
4135.432	n/a	RECOG_CONF	2067716	n/a	LTP131	ltpFR	1	7	-1	FIGHTER	564	n/a	2	-1	n/a	n/a	n/a	n/a	n/a
4136.87	n/a	RECOG_TARGET	2068435	n/a	LTP131	ltpFR	1	7	-1	SLIDE	1326	1	5	-1	n/a	n/a	n/a	n/a	n/a
4137.882	n/a	RECOG_RESP	2068941	n/a	LTP131	ltpFR	1	7	-1	SLIDE	1326	1	n/a	-1	n/a	n/a	n/a	n/a	n/a
4138.98	n/a	RECOG_CONF	2069490	n/a	LTP131	ltpFR	1	7	-1	SLIDE	1326	n/a	5	-1	n/a	n/a	n/a	n/a	n/a
4140.504	n/a	RECOG_TARGET	2070252	n/a	LTP131	ltpFR	1	7	-1	FORK	594	1	5	-1	n/a	n/a	n/a	n/a	n/a
4141.71	n/a	RECOG_RESP	2070855	n/a	LTP131	ltpFR	1	7	-1	FORK	594	1	n/a	-1	n/a	n/a	n/a	n/a	n/a
4142.796	n/a	RECOG_CONF	2071398	n/a	LTP131	ltpFR	1	7	-1	FORK	594	n/a	5	-1	n/a	n/a	n/a	n/a	n/a
4144.402	n/a	RECOG_TARGET	2072201	n/a	LTP131	ltpFR	1	7	1	STRAW	1390	1	5	1	n/a	n/a	n/a	n/a	n/a
4145.996	n/a	RECOG_RESP	2072998	n/a	LTP131	ltpFR	1	7	1	STRAW	1390	1	n/a	1	n/a	n/a	n/a	n/a	n/a
4146.914	n/a	RECOG_CONF	2073457	n/a	LTP131	ltpFR	1	7	1	STRAW	1390	n/a	5	1	n/a	n/a	n/a	n/a	n/a
4148.358	n/a	RECOG_LURE	2074179	n/a	LTP131	ltpFR	1	7	n/a	PAGE	1001	0	2	n/a	n/a	n/a	n/a	n/a	n/a
4149.426	n/a	RECOG_RESP	2074713	n/a	LTP131	ltpFR	1	7	n/a	PAGE	1001	0	n/a	n/a	n/a	n/a	n/a	n/a	n/a
4151.126	n/a	RECOG_CONF	2075563	n/a	LTP131	ltpFR	1	7	n/a	PAGE	1001	n/a	2	n/a	n/a	n/a	n/a	n/a	n/a
4152.566	n/a	RECOG_TARGET	2076283	n/a	LTP131	ltpFR	1	7	-1	ADOLESCENT	7	1	5	-1	n/a	n/a	n/a	n/a	n/a
4153.556	n/a	RECOG_RESP	2076778	n/a	LTP131	ltpFR	1	7	-1	ADOLESCENT	7	1	n/a	-1	n/a	n/a	n/a	n/a	n/a
4154.482	n/a	RECOG_CONF	2077241	n/a	LTP131	ltpFR	1	7	-1	ADOLESCENT	7	n/a	5	-1	n/a	n/a	n/a	n/a	n/a
4155.964	n/a	RECOG_TARGET	2077982	n/a	LTP131	ltpFR	1	7	1	RACCOON	1153	1	5	1	n/a	n/a	n/a	n/a	n/a
4156.74	n/a	RECOG_RESP	2078370	n/a	LTP131	ltpFR	1	7	1	RACCOON	1153	1	n/a	1	n/a	n/a	n/a	n/a	n/a
4157.91	n/a	RECOG_CONF	2078955	n/a	LTP131	ltpFR	1	7	1	RACCOON	1153	n/a	5	1	n/a	n/a	n/a	n/a	n/a
4159.032	n/a	RECOG_TARGET	2079516	n/a	LTP131	ltpFR	1	7	0	JUG	762	1	5	0	n/a	n/a	n/a	n/a	n/a
4160.046	n/a	RECOG_RESP	2080023	n/a	LTP131	ltpFR	1	7	0	JUG	762	1	n/a	0	n/a	n/a	n/a	n/a	n/a
4161.032	n/a	RECOG_CONF	2080516	n/a	LTP131	ltpFR	1	7	0	JUG	762	n/a	5	0	n/a	n/a	n/a	n/a	n/a
4162.522	n/a	RECOG_TARGET	2081261	n/a	LTP131	ltpFR	1	7	1	NAPKIN	937	0	2	0	n/a	n/a	n/a	n/a	n/a
4164.516	n/a	RECOG_RESP	2082258	n/a	LTP131	ltpFR	1	7	1	NAPKIN	937	0	n/a	0	n/a	n/a	n/a	n/a	n/a
4166.752	n/a	RECOG_CONF	2083376	n/a	LTP131	ltpFR	1	7	1	NAPKIN	937	n/a	2	0	n/a	n/a	n/a	n/a	n/a
4168.136	n/a	RECOG_TARGET	2084068	n/a	LTP131	ltpFR	1	7	0	TIMBER	1469	0	5	1	n/a	n/a	n/a	n/a	n/a
4169.188	n/a	RECOG_RESP	2084594	n/a	LTP131	ltpFR	1	7	0	TIMBER	1469	0	n/a	1	n/a	n/a	n/a	n/a	n/a
4170.286	n/a	RECOG_CONF	2085143	n/a	LTP131	ltpFR	1	7	0	TIMBER	1469	n/a	5	1	n/a	n/a	n/a	n/a	n/a
4171.552	n/a	RECOG_LURE	2085776	n/a	LTP131	ltpFR	1	7	n/a	SNOB	1335	0	3	n/a	n/a	n/a	n/a	n/a	n/a
4173.088	n/a	RECOG_RESP	2086544	n/a	LTP131	ltpFR	1	7	n/a	SNOB	1335	0	n/a	n/a	n/a	n/a	n/a	n/a	n/a
4174.258	n/a	RECOG_CONF	2087129	n/a	LTP131	ltpFR	1	7	n/a	SNOB	1335	n/a	3	n/a	n/a	n/a	n/a	n/a	n/a
4175.71	n/a	RECOG_TARGET	2087855	n/a	LTP131	ltpFR	1	7	0	CHECKERS	285	1	5	0	n/a	n/a	n/a	n/a	n/a
4176.48	n/a	RECOG_RESP	2088240	n/a	LTP131	ltpFR	1	7	0	CHECKERS	285	1	n/a	0	n/a	n/a	n/a	n/a	n/a
4177.598	n/a	RECOG_CONF	2088799	n/a	LTP131	ltpFR	1	7	0	CHECKERS	285	n/a	5	0	n/a	n/a	n/a	n/a	n/a
4179.25	n/a	RECOG_TARGET	2089625	n/a	LTP131	ltpFR	1	7	1	GUARDIAN	668	0	2	1	n/a	n/a	n/a	n/a	n/a
4182.394	n/a	RECOG_RESP	2091197	n/a	LTP131	ltpFR	1	7	1	GUARDIAN	668	0	n/a	1	n/a	n/a	n/a	n/a	n/a
4183.644	n/a	RECOG_CONF	2091822	n/a	LTP131	ltpFR	1	7	1	GUARDIAN	668	n/a	2	1	n/a	n/a	n/a	n/a	n/a
4196.012	n/a	REC_START	2098006	n/a	LTP131	ltpFR	1	8	n/a	n/a	n/a	n/a	n/a	n/a	n/a	n/a	n/a	n/a	n/a
4196.046	n/a	RECOG_LURE	2098023	n/a	LTP131	ltpFR	1	8	n/a	MAID	856	1	3	n/a	n/a	n/a	n/a	n/a	n/a
4198.91	n/a	RECOG_RESP	2099455	n/a	LTP131	ltpFR	1	8	n/a	MAID	856	1	n/a	n/a	n/a	n/a	n/a	n/a	n/a
4200.536	n/a	RECOG_CONF	2100268	n/a	LTP131	ltpFR	1	8	n/a	MAID	856	n/a	3	n/a	n/a	n/a	n/a	n/a	n/a
4202.16	n/a	RECOG_TARGET	2101080	n/a	LTP131	ltpFR	1	8	0	BARN	89	1	5	1	n/a	n/a	n/a	n/a	n/a
4203.414	n/a	RECOG_RESP	2101707	n/a	LTP131	ltpFR	1	8	0	BARN	89	1	n/a	1	n/a	n/a	n/a	n/a	n/a
4204.448	n/a	RECOG_CONF	2102224	n/a	LTP131	ltpFR	1	8	0	BARN	89	n/a	5	1	n/a	n/a	n/a	n/a	n/a
4205.842	n/a	RECOG_TARGET	2102921	n/a	LTP131	ltpFR	1	8	1	CHAMPAGNE	278	0	5	0	n/a	n/a	n/a	n/a	n/a
4206.718	n/a	RECOG_RESP	2103359	n/a	LTP131	ltpFR	1	8	1	CHAMPAGNE	278	0	n/a	0	n/a	n/a	n/a	n/a	n/a
4208.05	n/a	RECOG_CONF	2104025	n/a	LTP131	ltpFR	1	8	1	CHAMPAGNE	278	n/a	5	0	n/a	n/a	n/a	n/a	n/a
4209.414	n/a	RECOG_TARGET	2104707	n/a	LTP131	ltpFR	1	8	1	DISH	474	0	2	0	n/a	n/a	n/a	n/a	n/a
4214.052	n/a	RECOG_RESP	2107026	n/a	LTP131	ltpFR	1	8	1	DISH	474	0	n/a	0	n/a	n/a	n/a	n/a	n/a
4215.19	n/a	RECOG_CONF	2107595	n/a	LTP131	ltpFR	1	8	1	DISH	474	n/a	2	0	n/a	n/a	n/a	n/a	n/a
4216.664	n/a	RECOG_LURE	2108332	n/a	LTP131	ltpFR	1	8	n/a	VICTOR	1563	1	4	n/a	n/a	n/a	n/a	n/a	n/a
4218.104	n/a	RECOG_RESP	2109052	n/a	LTP131	ltpFR	1	8	n/a	VICTOR	1563	1	n/a	n/a	n/a	n/a	n/a	n/a	n/a
4219.106	n/a	RECOG_CONF	2109553	n/a	LTP131	ltpFR	1	8	n/a	VICTOR	1563	n/a	4	n/a	n/a	n/a	n/a	n/a	n/a
4220.788	n/a	RECOG_LURE	2110394	n/a	LTP131	ltpFR	1	8	n/a	PARCEL	1012	0	4	n/a	n/a	n/a	n/a	n/a	n/a
4221.838	n/a	RECOG_RESP	2110919	n/a	LTP131	ltpFR	1	8	n/a	PARCEL	1012	0	n/a	n/a	n/a	n/a	n/a	n/a	n/a
4223.096	n/a	RECOG_CONF	2111548	n/a	LTP131	ltpFR	1	8	n/a	PARCEL	1012	n/a	4	n/a	n/a	n/a	n/a	n/a	n/a
4224.544	n/a	RECOG_TARGET	2112272	n/a	LTP131	ltpFR	1	8	1	BURGLAR	200	1	5	1	n/a	n/a	n/a	n/a	n/a
4225.578	n/a	RECOG_RESP	2112789	n/a	LTP131	ltpFR	1	8	1	BURGLAR	200	1	n/a	1	n/a	n/a	n/a	n/a	n/a
4226.67	n/a	RECOG_CONF	2113335	n/a	LTP131	ltpFR	1	8	1	BURGLAR	200	n/a	5	1	n/a	n/a	n/a	n/a	n/a
4228.084	n/a	RECOG_LURE	2114042	n/a	LTP131	ltpFR	1	8	n/a	GIRL	637	0	3	n/a	n/a	n/a	n/a	n/a	n/a
4229.19	n/a	RECOG_RESP	2114595	n/a	LTP131	ltpFR	1	8	n/a	GIRL	637	0	n/a	n/a	n/a	n/a	n/a	n/a	n/a
4230.874	n/a	RECOG_CONF	2115437	n/a	LTP131	ltpFR	1	8	n/a	GIRL	637	n/a	3	n/a	n/a	n/a	n/a	n/a	n/a
4232.176	n/a	RECOG_TARGET	2116088	n/a	LTP131	ltpFR	1	8	0	MALL	860	1	5	1	n/a	n/a	n/a	n/a	n/a
4233.322	n/a	RECOG_RESP	2116661	n/a	LTP131	ltpFR	1	8	0	MALL	860	1	n/a	1	n/a	n/a	n/a	n/a	n/a
4234.698	n/a	RECOG_CONF	2117349	n/a	LTP131	ltpFR	1	8	0	MALL	860	n/a	5	1	n/a	n/a	n/a	n/a	n/a
4236.282	n/a	RECOG_LURE	2118141	n/a	LTP131	ltpFR	1	8	n/a	XEROX	1628	0	5	n/a	n/a	n/a	n/a	n/a	n/a
