mstime	trial_type	stim_file	subject	experiment	session	trial	task	item_name	item_num	recog_resp	recog_conf	resp	answer	test_x	test_y	test_z	color_r	color_g	color_b	case	font
0	SESS_START	n/a	LTP265	ltpFR	11	n/a	n/a	n/a	n/a	1	4	n/a	n/a	0	0	0	n/a	n/a	n/a	n/a	n/a
35999	START	n/a	LTP265	ltpFR	11	n/a	n/a	n/a	n/a	n/a	n/a	n/a	n/a	n/a	n/a	n/a	n/a	n/a	n/a	n/a	n/a
36048	PROB	n/a	LTP265	ltpFR	11	n/a	n/a	n/a	n/a	n/a	n/a	n/a	19	9	8	2	n/a	n/a	n/a	n/a	n/a
38441	PROB	n/a	LTP265	ltpFR	11	n/a	n/a	n/a	n/a	n/a	n/a	n/a	13	3	7	3	n/a	n/a	n/a	n/a	n/a
39846	PROB	n/a	LTP265	ltpFR	11	n/a	n/a	n/a	n/a	n/a	n/a	n/a	11	9	1	1	n/a	n/a	n/a	n/a	n/a
41034	PROB	n/a	LTP265	ltpFR	11	n/a	n/a	n/a	n/a	n/a	n/a	n/a	12	7	1	4	n/a	n/a	n/a	n/a	n/a
42690	PROB	n/a	LTP265	ltpFR	11	n/a	n/a	n/a	n/a	n/a	n/a	n/a	15	7	7	2	n/a	n/a	n/a	n/a	n/a
44246	PROB	n/a	LTP265	ltpFR	11	n/a	n/a	n/a	n/a	n/a	n/a	n/a	10	2	6	2	n/a	n/a	n/a	n/a	n/a
46739	PROB	n/a	LTP265	ltpFR	11	n/a	n/a	n/a	n/a	n/a	n/a	n/a	8	5	1	2	n/a	n/a	n/a	n/a	n/a
48529	PROB	n/a	LTP265	ltpFR	11	n/a	n/a	n/a	n/a	n/a	n/a	n/a	17	9	3	5	n/a	n/a	n/a	n/a	n/a
50888	PROB	n/a	LTP265	ltpFR	11	n/a	n/a	n/a	n/a	n/a	n/a	n/a	15	1	5	9	n/a	n/a	n/a	n/a	n/a
52517	PROB	n/a	LTP265	ltpFR	11	n/a	n/a	n/a	n/a	n/a	n/a	n/a	16	5	4	7	n/a	n/a	n/a	n/a	n/a
54533	STOP	n/a	LTP265	ltpFR	11	n/a	n/a	n/a	n/a	n/a	n/a	n/a	n/a	n/a	n/a	n/a	n/a	n/a	n/a	n/a	n/a
97052	START	n/a	LTP265	ltpFR	11	n/a	n/a	n/a	n/a	n/a	n/a	n/a	n/a	n/a	n/a	n/a	n/a	n/a	n/a	n/a	n/a
98567	PROB	n/a	LTP265	ltpFR	11	n/a	n/a	n/a	n/a	n/a	n/a	n/a	20	9	5	6	n/a	n/a	n/a	n/a	n/a
101328	PROB	n/a	LTP265	ltpFR	11	n/a	n/a	n/a	n/a	n/a	n/a	n/a	17	5	3	9	n/a	n/a	n/a	n/a	n/a
102950	PROB	n/a	LTP265	ltpFR	11	n/a	n/a	n/a	n/a	n/a	n/a	n/a	18	5	4	9	n/a	n/a	n/a	n/a	n/a
104309	STOP	n/a	LTP265	ltpFR	11	n/a	n/a	n/a	n/a	n/a	n/a	n/a	n/a	n/a	n/a	n/a	n/a	n/a	n/a	n/a	n/a
106236	WORD	wordpools/wasnorm_wordpool_less_exclusions.txt	LTP265	ltpFR	11	1	0	ASSISTANT	48	0	n/a	1	n/a	0	0	0	0.57763671875	0.412841796875	1	lower	amplitud.ttf
109248	START	n/a	LTP265	ltpFR	11	n/a	n/a	n/a	n/a	n/a	n/a	n/a	n/a	n/a	n/a	n/a	n/a	n/a	n/a	n/a	n/a
110445	PROB	n/a	LTP265	ltpFR	11	n/a	n/a	n/a	n/a	n/a	n/a	n/a	10	6	2	2	n/a	n/a	n/a	n/a	n/a
111907	PROB	n/a	LTP265	ltpFR	11	n/a	n/a	n/a	n/a	n/a	n/a	n/a	11	7	3	1	n/a	n/a	n/a	n/a	n/a
113062	PROB	n/a	LTP265	ltpFR	11	n/a	n/a	n/a	n/a	n/a	n/a	n/a	8	3	2	3	n/a	n/a	n/a	n/a	n/a
114395	PROB	n/a	LTP265	ltpFR	11	n/a	n/a	n/a	n/a	n/a	n/a	n/a	11	1	7	3	n/a	n/a	n/a	n/a	n/a
116374	STOP	n/a	LTP265	ltpFR	11	n/a	n/a	n/a	n/a	n/a	n/a	n/a	n/a	n/a	n/a	n/a	n/a	n/a	n/a	n/a	n/a
118258	WORD	wordpools/wasnorm_wordpool_less_exclusions.txt	LTP265	ltpFR	11	1	0	SNACK	1331	n/a	n/a	0	n/a	0	0	0	0.57763671875	0.412841796875	1	lower	amplitud.ttf
121270	START	n/a	LTP265	ltpFR	11	n/a	n/a	n/a	n/a	n/a	n/a	n/a	n/a	n/a	n/a	n/a	n/a	n/a	n/a	n/a	n/a
122240	PROB	n/a	LTP265	ltpFR	11	n/a	n/a	n/a	n/a	n/a	n/a	n/a	17	5	7	5	n/a	n/a	n/a	n/a	n/a
124003	PROB	n/a	LTP265	ltpFR	11	n/a	n/a	n/a	n/a	n/a	n/a	n/a	8	2	4	4	n/a	n/a	n/a	n/a	n/a
125525	PROB	n/a	LTP265	ltpFR	11	n/a	n/a	n/a	n/a	n/a	n/a	n/a	19	5	7	7	n/a	n/a	n/a	n/a	n/a
128525	STOP	n/a	LTP265	ltpFR	11	n/a	n/a	n/a	n/a	n/a	n/a	n/a	n/a	n/a	n/a	n/a	n/a	n/a	n/a	n/a	n/a
130176	WORD	wordpools/wasnorm_wordpool_less_exclusions.txt	LTP265	ltpFR	11	1	1	TRIGGER	1507	n/a	n/a	1	n/a	0	0	0	0.422607421875	0.5869140625	0	upper	zerothre.ttf
133188	START	n/a	LTP265	ltpFR	11	n/a	n/a	n/a	n/a	n/a	n/a	n/a	n/a	n/a	n/a	n/a	n/a	n/a	n/a	n/a	n/a
134051	PROB	n/a	LTP265	ltpFR	11	n/a	n/a	n/a	n/a	n/a	n/a	n/a	14	6	1	7	n/a	n/a	n/a	n/a	n/a
136410	PROB	n/a	LTP265	ltpFR	11	n/a	n/a	n/a	n/a	n/a	n/a	n/a	10	1	1	8	n/a	n/a	n/a	n/a	n/a
137638	PROB	n/a	LTP265	ltpFR	11	n/a	n/a	n/a	n/a	n/a	n/a	n/a	14	2	5	7	n/a	n/a	n/a	n/a	n/a
139070	PROB	n/a	LTP265	ltpFR	11	n/a	n/a	n/a	n/a	n/a	n/a	n/a	13	6	8	1	n/a	n/a	n/a	n/a	n/a
140797	STOP	n/a	LTP265	ltpFR	11	n/a	n/a	n/a	n/a	n/a	n/a	n/a	n/a	n/a	n/a	n/a	n/a	n/a	n/a	n/a	n/a
142155	WORD	wordpools/wasnorm_wordpool_less_exclusions.txt	LTP265	ltpFR	11	1	1	FAIRY	549	n/a	n/a	1	n/a	0	0	0	0.422607421875	0.5869140625	0	upper	zerothre.ttf
145167	START	n/a	LTP265	ltpFR	11	n/a	n/a	n/a	n/a	n/a	n/a	n/a	n/a	n/a	n/a	n/a	n/a	n/a	n/a	n/a	n/a
146287	PROB	n/a	LTP265	ltpFR	11	n/a	n/a	n/a	n/a	n/a	n/a	n/a	16	6	9	1	n/a	n/a	n/a	n/a	n/a
148406	PROB	n/a	LTP265	ltpFR	11	n/a	n/a	n/a	n/a	n/a	n/a	n/a	16	2	6	8	n/a	n/a	n/a	n/a	n/a
153166	STOP	n/a	LTP265	ltpFR	11	n/a	n/a	n/a	n/a	n/a	n/a	n/a	n/a	n/a	n/a	n/a	n/a	n/a	n/a	n/a	n/a
154010	WORD	wordpools/wasnorm_wordpool_less_exclusions.txt	LTP265	ltpFR	11	1	1	CAPTAIN	239	n/a	n/a	1	n/a	0	0	0	0.422607421875	0.5869140625	0	upper	zerothre.ttf
157022	START	n/a	LTP265	ltpFR	11	n/a	n/a	n/a	n/a	n/a	n/a	n/a	n/a	n/a	n/a	n/a	n/a	n/a	n/a	n/a	n/a
157931	PROB	n/a	LTP265	ltpFR	11	n/a	n/a	n/a	n/a	n/a	n/a	n/a	10	2	3	5	n/a	n/a	n/a	n/a	n/a
159754	PROB	n/a	LTP265	ltpFR	11	n/a	n/a	n/a	n/a	n/a	n/a	n/a	16	5	7	4	n/a	n/a	n/a	n/a	n/a
161354	PROB	n/a	LTP265	ltpFR	11	n/a	n/a	n/a	n/a	n/a	n/a	n/a	16	4	3	9	n/a	n/a	n/a	n/a	n/a
162893	PROB	n/a	LTP265	ltpFR	11	n/a	n/a	n/a	n/a	n/a	n/a	n/a	15	2	5	8	n/a	n/a	n/a	n/a	n/a
164269	STOP	n/a	LTP265	ltpFR	11	n/a	n/a	n/a	n/a	n/a	n/a	n/a	n/a	n/a	n/a	n/a	n/a	n/a	n/a	n/a	n/a
166222	WORD	wordpools/wasnorm_wordpool_less_exclusions.txt	LTP265	ltpFR	11	1	1	FORT	595	n/a	n/a	0	n/a	0	0	0	0.422607421875	0.5869140625	0	upper	zerothre.ttf
169235	START	n/a	LTP265	ltpFR	11	n/a	n/a	n/a	n/a	n/a	n/a	n/a	n/a	n/a	n/a	n/a	n/a	n/a	n/a	n/a	n/a
170294	PROB	n/a	LTP265	ltpFR	11	n/a	n/a	n/a	n/a	n/a	n/a	n/a	25	8	9	8	n/a	n/a	n/a	n/a	n/a
172931	PROB	n/a	LTP265	ltpFR	11	n/a	n/a	n/a	n/a	n/a	n/a	n/a	19	6	4	9	n/a	n/a	n/a	n/a	n/a
174387	PROB	n/a	LTP265	ltpFR	11	n/a	n/a	n/a	n/a	n/a	n/a	n/a	13	7	2	4	n/a	n/a	n/a	n/a	n/a
175821	STOP	n/a	LTP265	ltpFR	11	n/a	n/a	n/a	n/a	n/a	n/a	n/a	n/a	n/a	n/a	n/a	n/a	n/a	n/a	n/a	n/a
178452	WORD	wordpools/wasnorm_wordpool_less_exclusions.txt	LTP265	ltpFR	11	1	1	CATCHER	258	n/a	n/a	1	n/a	0	0	0	0.422607421875	0.5869140625	0	upper	zerothre.ttf
181464	START	n/a	LTP265	ltpFR	11	n/a	n/a	n/a	n/a	n/a	n/a	n/a	n/a	n/a	n/a	n/a	n/a	n/a	n/a	n/a	n/a
182423	PROB	n/a	LTP265	ltpFR	11	n/a	n/a	n/a	n/a	n/a	n/a	n/a	14	5	5	4	n/a	n/a	n/a	n/a	n/a
183805	PROB	n/a	LTP265	ltpFR	11	n/a	n/a	n/a	n/a	n/a	n/a	n/a	13	3	9	1	n/a	n/a	n/a	n/a	n/a
185468	PROB	n/a	LTP265	ltpFR	11	n/a	n/a	n/a	n/a	n/a	n/a	n/a	12	8	3	1	n/a	n/a	n/a	n/a	n/a
188085	STOP	n/a	LTP265	ltpFR	11	n/a	n/a	n/a	n/a	n/a	n/a	n/a	n/a	n/a	n/a	n/a	n/a	n/a	n/a	n/a	n/a
190637	WORD	wordpools/wasnorm_wordpool_less_exclusions.txt	LTP265	ltpFR	11	1	0	LINEN	825	n/a	n/a	0	n/a	0	0	0	0.57763671875	0.412841796875	1	lower	amplitud.ttf
193649	START	n/a	LTP265	ltpFR	11	n/a	n/a	n/a	n/a	n/a	n/a	n/a	n/a	n/a	n/a	n/a	n/a	n/a	n/a	n/a	n/a
194770	PROB	n/a	LTP265	ltpFR	11	n/a	n/a	n/a	n/a	n/a	n/a	n/a	17	8	6	3	n/a	n/a	n/a	n/a	n/a
197156	PROB	n/a	LTP265	ltpFR	11	n/a	n/a	n/a	n/a	n/a	n/a	n/a	15	9	5	1	n/a	n/a	n/a	n/a	n/a
201648	STOP	n/a	LTP265	ltpFR	11	n/a	n/a	n/a	n/a	n/a	n/a	n/a	n/a	n/a	n/a	n/a	n/a	n/a	n/a	n/a	n/a
202576	WORD	wordpools/wasnorm_wordpool_less_exclusions.txt	LTP265	ltpFR	11	1	0	PILLOW	1069	n/a	n/a	1	n/a	0	0	0	0.57763671875	0.412841796875	1	lower	amplitud.ttf
205588	START	n/a	LTP265	ltpFR	11	n/a	n/a	n/a	n/a	n/a	n/a	n/a	n/a	n/a	n/a	n/a	n/a	n/a	n/a	n/a	n/a
206758	PROB	n/a	LTP265	ltpFR	11	n/a	n/a	n/a	n/a	n/a	n/a	n/a	12	7	3	2	n/a	n/a	n/a	n/a	n/a
208013	PROB	n/a	LTP265	ltpFR	11	n/a	n/a	n/a	n/a	n/a	n/a	n/a	19	5	8	6	n/a	n/a	n/a	n/a	n/a
210094	PROB	n/a	LTP265	ltpFR	11	n/a	n/a	n/a	n/a	n/a	n/a	n/a	20	9	6	5	n/a	n/a	n/a	n/a	n/a
213573	STOP	n/a	LTP265	ltpFR	11	n/a	n/a	n/a	n/a	n/a	n/a	n/a	n/a	n/a	n/a	n/a	n/a	n/a	n/a	n/a	n/a
214527	WORD	wordpools/wasnorm_wordpool_less_exclusions.txt	LTP265	ltpFR	11	1	0	RICE	1190	n/a	n/a	0	n/a	0	0	0	0.57763671875	0.412841796875	1	lower	amplitud.ttf
217539	START	n/a	LTP265	ltpFR	11	n/a	n/a	n/a	n/a	n/a	n/a	n/a	n/a	n/a	n/a	n/a	n/a	n/a	n/a	n/a	n/a
218603	PROB	n/a	LTP265	ltpFR	11	n/a	n/a	n/a	n/a	n/a	n/a	n/a	19	5	9	5	n/a	n/a	n/a	n/a	n/a
221303	PROB	n/a	LTP265	ltpFR	11	n/a	n/a	n/a	n/a	n/a	n/a	n/a	7	1	5	1	n/a	n/a	n/a	n/a	n/a
222702	PROB	n/a	LTP265	ltpFR	11	n/a	n/a	n/a	n/a	n/a	n/a	n/a	12	8	1	3	n/a	n/a	n/a	n/a	n/a
224629	STOP	n/a	LTP265	ltpFR	11	n/a	n/a	n/a	n/a	n/a	n/a	n/a	n/a	n/a	n/a	n/a	n/a	n/a	n/a	n/a	n/a
226690	WORD	wordpools/wasnorm_wordpool_less_exclusions.txt	LTP265	ltpFR	11	1	1	JAM	748	n/a	n/a	0	n/a	0	0	0	0.422607421875	0.5869140625	0	upper	zerothre.ttf
229702	START	n/a	LTP265	ltpFR	11	n/a	n/a	n/a	n/a	n/a	n/a	n/a	n/a	n/a	n/a	n/a	n/a	n/a	n/a	n/a	n/a
230883	PROB	n/a	LTP265	ltpFR	11	n/a	n/a	n/a	n/a	n/a	n/a	n/a	16	8	7	1	n/a	n/a	n/a	n/a	n/a
232338	PROB	n/a	LTP265	ltpFR	11	n/a	n/a	n/a	n/a	n/a	n/a	n/a	18	8	2	8	n/a	n/a	n/a	n/a	n/a
233716	PROB	n/a	LTP265	ltpFR	11	n/a	n/a	n/a	n/a	n/a	n/a	n/a	15	5	3	7	n/a	n/a	n/a	n/a	n/a
235684	PROB	n/a	LTP265	ltpFR	11	n/a	n/a	n/a	n/a	n/a	n/a	n/a	17	3	9	5	n/a	n/a	n/a	n/a	n/a
237485	STOP	n/a	LTP265	ltpFR	11	n/a	n/a	n/a	n/a	n/a	n/a	n/a	n/a	n/a	n/a	n/a	n/a	n/a	n/a	n/a	n/a
238913	WORD	wordpools/wasnorm_wordpool_less_exclusions.txt	LTP265	ltpFR	11	1	1	UMPIRE	1535	n/a	n/a	1	n/a	0	0	0	0.422607421875	0.5869140625	0	upper	zerothre.ttf
241925	START	n/a	LTP265	ltpFR	11	n/a	n/a	n/a	n/a	n/a	n/a	n/a	n/a	n/a	n/a	n/a	n/a	n/a	n/a	n/a	n/a
242951	PROB	n/a	LTP265	ltpFR	11	n/a	n/a	n/a	n/a	n/a	n/a	n/a	17	7	5	5	n/a	n/a	n/a	n/a	n/a
244658	PROB	n/a	LTP265	ltpFR	11	n/a	n/a	n/a	n/a	n/a	n/a	n/a	7	2	2	3	n/a	n/a	n/a	n/a	n/a
247386	PROB	n/a	LTP265	ltpFR	11	n/a	n/a	n/a	n/a	n/a	n/a	n/a	16	3	4	9	n/a	n/a	n/a	n/a	n/a
249101	STOP	n/a	LTP265	ltpFR	11	n/a	n/a	n/a	n/a	n/a	n/a	n/a	n/a	n/a	n/a	n/a	n/a	n/a	n/a	n/a	n/a
250981	WORD	wordpools/wasnorm_wordpool_less_exclusions.txt	LTP265	ltpFR	11	1	1	CARDINAL	244	n/a	n/a	1	n/a	0	0	0	0.422607421875	0.5869140625	0	upper	zerothre.ttf
253994	START	n/a	LTP265	ltpFR	11	n/a	n/a	n/a	n/a	n/a	n/a	n/a	n/a	n/a	n/a	n/a	n/a	n/a	n/a	n/a	n/a
254980	PROB	n/a	LTP265	ltpFR	11	n/a	n/a	n/a	n/a	n/a	n/a	n/a	7	1	1	5	n/a	n/a	n/a	n/a	n/a
256345	PROB	n/a	LTP265	ltpFR	11	n/a	n/a	n/a	n/a	n/a	n/a	n/a	9	1	4	4	n/a	n/a	n/a	n/a	n/a
258209	PROB	n/a	LTP265	ltpFR	11	n/a	n/a	n/a	n/a	n/a	n/a	n/a	11	1	9	1	n/a	n/a	n/a	n/a	n/a
259357	PROB	n/a	LTP265	ltpFR	11	n/a	n/a	n/a	n/a	n/a	n/a	n/a	9	1	4	4	n/a	n/a	n/a	n/a	n/a
260941	STOP	n/a	LTP265	ltpFR	11	n/a	n/a	n/a	n/a	n/a	n/a	n/a	n/a	n/a	n/a	n/a	n/a	n/a	n/a	n/a	n/a
263144	WORD	wordpools/wasnorm_wordpool_less_exclusions.txt	LTP265	ltpFR	11	1	0	PENGUIN	1044	n/a	n/a	1	n/a	0	0	0	0.57763671875	0.412841796875	1	lower	amplitud.ttf
266156	START	n/a	LTP265	ltpFR	11	n/a	n/a	n/a	n/a	n/a	n/a	n/a	n/a	n/a	n/a	n/a	n/a	n/a	n/a	n/a	n/a
267326	PROB	n/a	LTP265	ltpFR	11	n/a	n/a	n/a	n/a	n/a	n/a	n/a	17	4	4	9	n/a	n/a	n/a	n/a	n/a
269334	PROB	n/a	LTP265	ltpFR	11	n/a	n/a	n/a	n/a	n/a	n/a	n/a	12	7	4	1	n/a	n/a	n/a	n/a	n/a
271469	PROB	n/a	LTP265	ltpFR	11	n/a	n/a	n/a	n/a	n/a	n/a	n/a	17	3	7	7	n/a	n/a	n/a	n/a	n/a
272837	STOP	n/a	LTP265	ltpFR	11	n/a	n/a	n/a	n/a	n/a	n/a	n/a	n/a	n/a	n/a	n/a	n/a	n/a	n/a	n/a	n/a
275206	WORD	wordpools/wasnorm_wordpool_less_exclusions.txt	LTP265	ltpFR	11	1	0	DRESSER	496	n/a	n/a	1	n/a	0	0	0	0.57763671875	0.412841796875	1	lower	amplitud.ttf
278218	START	n/a	LTP265	ltpFR	11	n/a	n/a	n/a	n/a	n/a	n/a	n/a	n/a	n/a	n/a	n/a	n/a	n/a	n/a	n/a	n/a
279104	PROB	n/a	LTP265	ltpFR	11	n/a	n/a	n/a	n/a	n/a	n/a	n/a	11	3	5	3	n/a	n/a	n/a	n/a	n/a
280670	PROB	n/a	LTP265	ltpFR	11	n/a	n/a	n/a	n/a	n/a	n/a	n/a	13	6	2	5	n/a	n/a	n/a	n/a	n/a
282785	PROB	n/a	LTP265	ltpFR	11	n/a	n/a	n/a	n/a	n/a	n/a	n/a	25	9	8	8	n/a	n/a	n/a	n/a	n/a
284901	STOP	n/a	LTP265	ltpFR	11	n/a	n/a	n/a	n/a	n/a	n/a	n/a	n/a	n/a	n/a	n/a	n/a	n/a	n/a	n/a	n/a
287380	WORD	wordpools/wasnorm_wordpool_less_exclusions.txt	LTP265	ltpFR	11	1	0	NITROGEN	954	n/a	n/a	0	n/a	0	0	0	0.57763671875	0.412841796875	1	lower	amplitud.ttf
290392	START	n/a	LTP265	ltpFR	11	n/a	n/a	n/a	n/a	n/a	n/a	n/a	n/a	n/a	n/a	n/a	n/a	n/a	n/a	n/a	n/a
291494	PROB	n/a	LTP265	ltpFR	11	n/a	n/a	n/a	n/a	n/a	n/a	n/a	23	5	9	9	n/a	n/a	n/a	n/a	n/a
294362	PROB	n/a	LTP265	ltpFR	11	n/a	n/a	n/a	n/a	n/a	n/a	n/a	9	1	5	3	n/a	n/a	n/a	n/a	n/a
296838	PROB	n/a	LTP265	ltpFR	11	n/a	n/a	n/a	n/a	n/a	n/a	n/a	12	1	9	2	n/a	n/a	n/a	n/a	n/a
298341	STOP	n/a	LTP265	ltpFR	11	n/a	n/a	n/a	n/a	n/a	n/a	n/a	n/a	n/a	n/a	n/a	n/a	n/a	n/a	n/a	n/a
300178	REC_START	n/a	LTP265	ltpFR	11	1	n/a	n/a	n/a	n/a	n/a	n/a	n/a	0	0	0	n/a	n/a	n/a	n/a	n/a
301367	REC_WORD	wordpools/wasnorm_wordpool_less_exclusions.txt	LTP265	ltpFR	11	1	0	NITROGEN	954	n/a	n/a	0	n/a	0	0	0	n/a	n/a	n/a	n/a	n/a
302542	REC_WORD	wordpools/wasnorm_wordpool_less_exclusions.txt	LTP265	ltpFR	11	1	1	CARDINAL	244	n/a	n/a	1	n/a	0	0	0	n/a	n/a	n/a	n/a	n/a
304079	REC_WORD	wordpools/wasnorm_wordpool_less_exclusions.txt	LTP265	ltpFR	11	1	1	CATCHER	258	n/a	n/a	1	n/a	0	0	0	n/a	n/a	n/a	n/a	n/a
304950	REC_WORD	wordpools/wasnorm_wordpool_less_exclusions.txt	LTP265	ltpFR	11	1	1	UMPIRE	1535	n/a	n/a	1	n/a	0	0	0	n/a	n/a	n/a	n/a	n/a
305921	REC_WORD	wordpools/wasnorm_wordpool_less_exclusions.txt	LTP265	ltpFR	11	1	0	ASSISTANT	48	n/a	n/a	1	n/a	0	0	0	n/a	n/a	n/a	n/a	n/a
308346	REC_WORD	wordpools/wasnorm_wordpool_less_exclusions.txt	LTP265	ltpFR	11	1	0	SNACK	1331	n/a	n/a	0	n/a	0	0	0	n/a	n/a	n/a	n/a	n/a
309721	REC_WORD	wordpools/wasnorm_wordpool_less_exclusions.txt	LTP265	ltpFR	11	1	1	JAM	748	n/a	n/a	0	n/a	0	0	0	n/a	n/a	n/a	n/a	n/a
310792	REC_WORD	wordpools/wasnorm_wordpool_less_exclusions.txt	LTP265	ltpFR	11	1	1	FAIRY	549	n/a	n/a	1	n/a	0	0	0	n/a	n/a	n/a	n/a	n/a
312422	REC_WORD	wordpools/wasnorm_wordpool_less_exclusions.txt	LTP265	ltpFR	11	1	0	PENGUIN	1044	n/a	n/a	1	n/a	0	0	0	n/a	n/a	n/a	n/a	n/a
314914	REC_WORD	wordpools/wasnorm_wordpool_less_exclusions.txt	LTP265	ltpFR	11	1	0	LINEN	825	n/a	n/a	0	n/a	0	0	0	n/a	n/a	n/a	n/a	n/a
322503	REC_WORD	wordpools/wasnorm_wordpool_less_exclusions.txt	LTP265	ltpFR	11	1	0	DRESSER	496	n/a	n/a	1	n/a	0	0	0	n/a	n/a	n/a	n/a	n/a
358327	REC_WORD	wordpools/wasnorm_wordpool_less_exclusions.txt	LTP265	ltpFR	11	1	0	RICE	1190	n/a	n/a	0	n/a	0	0	0	n/a	n/a	n/a	n/a	n/a
383431	WORD	wordpools/wasnorm_wordpool_less_exclusions.txt	LTP265	ltpFR	11	2	0	UNIVERSE	1540	n/a	n/a	1	n/a	0	0	0	0.57763671875	0.412841796875	1	lower	amplitud.ttf
387530	WORD	wordpools/wasnorm_wordpool_less_exclusions.txt	LTP265	ltpFR	11	2	0	OMELET	976	n/a	n/a	1	n/a	0	0	0	0.57763671875	0.412841796875	1	lower	amplitud.ttf
391488	WORD	wordpools/wasnorm_wordpool_less_exclusions.txt	LTP265	ltpFR	11	2	1	TIDE	1465	n/a	n/a	0	n/a	0	0	0	0.422607421875	0.5869140625	0	upper	zerothre.ttf
395493	WORD	wordpools/wasnorm_wordpool_less_exclusions.txt	LTP265	ltpFR	11	2	1	CYCLONE	431	n/a	n/a	0	n/a	0	0	0	0.422607421875	0.5869140625	0	upper	zerothre.ttf
399375	WORD	wordpools/wasnorm_wordpool_less_exclusions.txt	LTP265	ltpFR	11	2	1	SPRINKLE	1359	n/a	n/a	0	n/a	0	0	0	0.422607421875	0.5869140625	0	upper	zerothre.ttf
403205	WORD	wordpools/wasnorm_wordpool_less_exclusions.txt	LTP265	ltpFR	11	2	1	HAM	678	n/a	n/a	0	n/a	0	0	0	0.422607421875	0.5869140625	0	upper	zerothre.ttf
407372	WORD	wordpools/wasnorm_wordpool_less_exclusions.txt	LTP265	ltpFR	11	2	0	PILL	1068	n/a	n/a	0	n/a	0	0	0	0.57763671875	0.412841796875	1	lower	amplitud.ttf
411503	WORD	wordpools/wasnorm_wordpool_less_exclusions.txt	LTP265	ltpFR	11	2	0	TYPIST	1532	n/a	n/a	1	n/a	0	0	0	0.57763671875	0.412841796875	1	lower	amplitud.ttf
415679	WORD	wordpools/wasnorm_wordpool_less_exclusions.txt	LTP265	ltpFR	11	2	0	BACON	67	n/a	n/a	0	n/a	0	0	0	0.57763671875	0.412841796875	1	lower	amplitud.ttf
419835	WORD	wordpools/wasnorm_wordpool_less_exclusions.txt	LTP265	ltpFR	11	2	0	WINE	1613	n/a	n/a	0	n/a	0	0	0	0.57763671875	0.412841796875	1	lower	amplitud.ttf
423883	WORD	wordpools/wasnorm_wordpool_less_exclusions.txt	LTP265	ltpFR	11	2	0	SCOTCH	1251	n/a	n/a	0	n/a	0	0	0	0.57763671875	0.412841796875	1	lower	amplitud.ttf
427975	WORD	wordpools/wasnorm_wordpool_less_exclusions.txt	LTP265	ltpFR	11	2	0	FOLLOWER	589	n/a	n/a	1	n/a	0	0	0	0.57763671875	0.412841796875	1	lower	amplitud.ttf
432024	WORD	wordpools/wasnorm_wordpool_less_exclusions.txt	LTP265	ltpFR	11	2	1	COMMANDER	354	n/a	n/a	1	n/a	0	0	0	0.422607421875	0.5869140625	0	upper	zerothre.ttf
435872	WORD	wordpools/wasnorm_wordpool_less_exclusions.txt	LTP265	ltpFR	11	2	1	GIRAFFE	636	n/a	n/a	1	n/a	0	0	0	0.422607421875	0.5869140625	0	upper	zerothre.ttf
439726	WORD	wordpools/wasnorm_wordpool_less_exclusions.txt	LTP265	ltpFR	11	2	1	JUPITER	765	n/a	n/a	1	n/a	0	0	0	0.422607421875	0.5869140625	0	upper	zerothre.ttf
443925	WORD	wordpools/wasnorm_wordpool_less_exclusions.txt	LTP265	ltpFR	11	2	1	POND	1101	n/a	n/a	1	n/a	0	0	0	0.422607421875	0.5869140625	0	upper	zerothre.ttf
446937	START	n/a	LTP265	ltpFR	11	n/a	n/a	n/a	n/a	n/a	n/a	n/a	n/a	n/a	n/a	n/a	n/a	n/a	n/a	n/a	n/a
448108	PROB	n/a	LTP265	ltpFR	11	n/a	n/a	n/a	n/a	n/a	n/a	n/a	21	4	8	9	n/a	n/a	n/a	n/a	n/a
451521	PROB	n/a	LTP265	ltpFR	11	n/a	n/a	n/a	n/a	n/a	n/a	n/a	6	3	2	1	n/a	n/a	n/a	n/a	n/a
453070	PROB	n/a	LTP265	ltpFR	11	n/a	n/a	n/a	n/a	n/a	n/a	n/a	20	4	8	8	n/a	n/a	n/a	n/a	n/a
454701	STOP	n/a	LTP265	ltpFR	11	n/a	n/a	n/a	n/a	n/a	n/a	n/a	n/a	n/a	n/a	n/a	n/a	n/a	n/a	n/a	n/a
456852	REC_START	n/a	LTP265	ltpFR	11	2	n/a	n/a	n/a	n/a	n/a	n/a	n/a	0	0	0	n/a	n/a	n/a	n/a	n/a
458447	REC_WORD	wordpools/wasnorm_wordpool_less_exclusions.txt	LTP265	ltpFR	11	2	1	POND	1101	n/a	n/a	1	n/a	0	0	0	n/a	n/a	n/a	n/a	n/a
460673	REC_WORD	wordpools/wasnorm_wordpool_less_exclusions.txt	LTP265	ltpFR	11	2	1	TIDE	1465	n/a	n/a	0	n/a	0	0	0	n/a	n/a	n/a	n/a	n/a
464695	REC_WORD	wordpools/wasnorm_wordpool_less_exclusions.txt	LTP265	ltpFR	11	2	0	WINE	1613	n/a	n/a	0	n/a	0	0	0	n/a	n/a	n/a	n/a	n/a
465660	REC_WORD	wordpools/wasnorm_wordpool_less_exclusions.txt	LTP265	ltpFR	11	2	0	SCOTCH	1251	n/a	n/a	0	n/a	0	0	0	n/a	n/a	n/a	n/a	n/a
466753	REC_WORD	wordpools/wasnorm_wordpool_less_exclusions.txt	LTP265	ltpFR	11	2	0	BACON	67	n/a	n/a	0	n/a	0	0	0	n/a	n/a	n/a	n/a	n/a
467591	REC_WORD	wordpools/wasnorm_wordpool_less_exclusions.txt	LTP265	ltpFR	11	2	0	OMELET	976	n/a	n/a	1	n/a	0	0	0	n/a	n/a	n/a	n/a	n/a
469931	REC_WORD	wordpools/wasnorm_wordpool_less_exclusions.txt	LTP265	ltpFR	11	2	0	UNIVERSE	1540	n/a	n/a	1	n/a	0	0	0	n/a	n/a	n/a	n/a	n/a
472498	REC_WORD	wordpools/wasnorm_wordpool_less_exclusions.txt	LTP265	ltpFR	11	2	1	COMMANDER	354	n/a	n/a	1	n/a	0	0	0	n/a	n/a	n/a	n/a	n/a
473534	REC_WORD	wordpools/wasnorm_wordpool_less_exclusions.txt	LTP265	ltpFR	11	2	0	FOLLOWER	589	n/a	n/a	1	n/a	0	0	0	n/a	n/a	n/a	n/a	n/a
479588	REC_WORD	wordpools/wasnorm_wordpool_less_exclusions.txt	LTP265	ltpFR	11	2	0	TYPIST	1532	n/a	n/a	1	n/a	0	0	0	n/a	n/a	n/a	n/a	n/a
483725	REC_WORD	wordpools/wasnorm_wordpool_less_exclusions.txt	LTP265	ltpFR	11	2	1	JUPITER	765	n/a	n/a	1	n/a	0	0	0	n/a	n/a	n/a	n/a	n/a
493894	REC_WORD	wordpools/wasnorm_wordpool_less_exclusions.txt	LTP265	ltpFR	11	2	1	CYCLONE	431	n/a	n/a	0	n/a	0	0	0	n/a	n/a	n/a	n/a	n/a
499838	REC_WORD	wordpools/wasnorm_wordpool_less_exclusions.txt	LTP265	ltpFR	11	2	1	SPRINKLE	1359	n/a	n/a	0	n/a	0	0	0	n/a	n/a	n/a	n/a	n/a
537538	WORD	wordpools/wasnorm_wordpool_less_exclusions.txt	LTP265	ltpFR	11	3	1	LEG	809	n/a	n/a	0	n/a	0	0	0	0.422607421875	0.5869140625	0	upper	zerothre.ttf
541711	WORD	wordpools/wasnorm_wordpool_less_exclusions.txt	LTP265	ltpFR	11	3	1	CARTON	251	n/a	n/a	0	n/a	0	0	0	0.422607421875	0.5869140625	0	upper	zerothre.ttf
545736	WORD	wordpools/wasnorm_wordpool_less_exclusions.txt	LTP265	ltpFR	11	3	1	EARTH	515	n/a	n/a	1	n/a	0	0	0	0.422607421875	0.5869140625	0	upper	zerothre.ttf
549607	WORD	wordpools/wasnorm_wordpool_less_exclusions.txt	LTP265	ltpFR	11	3	0	SPIDER	1351	n/a	n/a	0	n/a	0	0	0	0.57763671875	0.412841796875	1	lower	amplitud.ttf
553649	WORD	wordpools/wasnorm_wordpool_less_exclusions.txt	LTP265	ltpFR	11	3	0	CRICKET	408	n/a	n/a	0	n/a	0	0	0	0.57763671875	0.412841796875	1	lower	amplitud.ttf
557581	WORD	wordpools/wasnorm_wordpool_less_exclusions.txt	LTP265	ltpFR	11	3	1	STAR	1373	n/a	n/a	1	n/a	0	0	0	0.422607421875	0.5869140625	0	upper	zerothre.ttf
561519	WORD	wordpools/wasnorm_wordpool_less_exclusions.txt	LTP265	ltpFR	11	3	1	MERMAID	887	n/a	n/a	1	n/a	0	0	0	0.422607421875	0.5869140625	0	upper	zerothre.ttf
565601	WORD	wordpools/wasnorm_wordpool_less_exclusions.txt	LTP265	ltpFR	11	3	0	GALLON	618	n/a	n/a	1	n/a	0	0	0	0.57763671875	0.412841796875	1	lower	amplitud.ttf
569448	WORD	wordpools/wasnorm_wordpool_less_exclusions.txt	LTP265	ltpFR	11	3	0	JOINT	758	n/a	n/a	0	n/a	0	0	0	0.57763671875	0.412841796875	1	lower	amplitud.ttf
573330	WORD	wordpools/wasnorm_wordpool_less_exclusions.txt	LTP265	ltpFR	11	3	0	ISLAND	745	n/a	n/a	1	n/a	0	0	0	0.57763671875	0.412841796875	1	lower	amplitud.ttf
577445	WORD	wordpools/wasnorm_wordpool_less_exclusions.txt	LTP265	ltpFR	11	3	0	PIER	1063	n/a	n/a	1	n/a	0	0	0	0.57763671875	0.412841796875	1	lower	amplitud.ttf
581604	WORD	wordpools/wasnorm_wordpool_less_exclusions.txt	LTP265	ltpFR	11	3	0	PROTON	1132	n/a	n/a	0	n/a	0	0	0	0.57763671875	0.412841796875	1	lower	amplitud.ttf
585626	WORD	wordpools/wasnorm_wordpool_less_exclusions.txt	LTP265	ltpFR	11	3	0	HERO	706	n/a	n/a	1	n/a	0	0	0	0.57763671875	0.412841796875	1	lower	amplitud.ttf
589608	WORD	wordpools/wasnorm_wordpool_less_exclusions.txt	LTP265	ltpFR	11	3	1	JUG	762	n/a	n/a	0	n/a	0	0	0	0.422607421875	0.5869140625	0	upper	zerothre.ttf
593556	WORD	wordpools/wasnorm_wordpool_less_exclusions.txt	LTP265	ltpFR	11	3	1	CHEST	295	n/a	n/a	0	n/a	0	0	0	0.422607421875	0.5869140625	0	upper	zerothre.ttf
597755	WORD	wordpools/wasnorm_wordpool_less_exclusions.txt	LTP265	ltpFR	11	3	1	RIBBON	1189	n/a	n/a	0	n/a	0	0	0	0.422607421875	0.5869140625	0	upper	zerothre.ttf
600767	START	n/a	LTP265	ltpFR	11	n/a	n/a	n/a	n/a	n/a	n/a	n/a	n/a	n/a	n/a	n/a	n/a	n/a	n/a	n/a	n/a
601904	PROB	n/a	LTP265	ltpFR	11	n/a	n/a	n/a	n/a	n/a	n/a	n/a	22	8	7	7	n/a	n/a	n/a	n/a	n/a
603805	PROB	n/a	LTP265	ltpFR	11	n/a	n/a	n/a	n/a	n/a	n/a	n/a	19	9	8	2	n/a	n/a	n/a	n/a	n/a
605484	PROB	n/a	LTP265	ltpFR	11	n/a	n/a	n/a	n/a	n/a	n/a	n/a	17	2	9	6	n/a	n/a	n/a	n/a	n/a
607207	PROB	n/a	LTP265	ltpFR	11	n/a	n/a	n/a	n/a	n/a	n/a	n/a	13	4	3	6	n/a	n/a	n/a	n/a	n/a
608640	PROB	n/a	LTP265	ltpFR	11	n/a	n/a	n/a	n/a	n/a	n/a	n/a	11	1	5	5	n/a	n/a	n/a	n/a	n/a
610118	PROB	n/a	LTP265	ltpFR	11	n/a	n/a	n/a	n/a	n/a	n/a	n/a	12	2	4	6	n/a	n/a	n/a	n/a	n/a
611919	PROB	n/a	LTP265	ltpFR	11	n/a	n/a	n/a	n/a	n/a	n/a	n/a	17	8	1	8	n/a	n/a	n/a	n/a	n/a
613776	PROB	n/a	LTP265	ltpFR	11	n/a	n/a	n/a	n/a	n/a	n/a	n/a	15	3	8	4	n/a	n/a	n/a	n/a	n/a
615437	STOP	n/a	LTP265	ltpFR	11	n/a	n/a	n/a	n/a	n/a	n/a	n/a	n/a	n/a	n/a	n/a	n/a	n/a	n/a	n/a	n/a
618518	REC_START	n/a	LTP265	ltpFR	11	3	n/a	n/a	n/a	n/a	n/a	n/a	n/a	0	0	0	n/a	n/a	n/a	n/a	n/a
619597	REC_WORD	wordpools/wasnorm_wordpool_less_exclusions.txt	LTP265	ltpFR	11	3	1	JUG	762	n/a	n/a	0	n/a	0	0	0	n/a	n/a	n/a	n/a	n/a
620468	REC_WORD	wordpools/wasnorm_wordpool_less_exclusions.txt	LTP265	ltpFR	11	3	1	LEG	809	n/a	n/a	0	n/a	0	0	0	n/a	n/a	n/a	n/a	n/a
621536	REC_WORD	wordpools/wasnorm_wordpool_less_exclusions.txt	LTP265	ltpFR	11	3	1	CHEST	295	n/a	n/a	0	n/a	0	0	0	n/a	n/a	n/a	n/a	n/a
622661	REC_WORD	wordpools/wasnorm_wordpool_less_exclusions.txt	LTP265	ltpFR	11	3	1	MERMAID	887	n/a	n/a	1	n/a	0	0	0	n/a	n/a	n/a	n/a	n/a
625824	REC_WORD	wordpools/wasnorm_wordpool_less_exclusions.txt	LTP265	ltpFR	11	3	1	EARTH	515	n/a	n/a	1	n/a	0	0	0	n/a	n/a	n/a	n/a	n/a
626940	REC_WORD	wordpools/wasnorm_wordpool_less_exclusions.txt	LTP265	ltpFR	11	3	0	CRICKET	408	n/a	n/a	0	n/a	0	0	0	n/a	n/a	n/a	n/a	n/a
627781	REC_WORD	wordpools/wasnorm_wordpool_less_exclusions.txt	LTP265	ltpFR	11	3	0	SPIDER	1351	n/a	n/a	0	n/a	0	0	0	n/a	n/a	n/a	n/a	n/a
632515	REC_WORD	wordpools/wasnorm_wordpool_less_exclusions.txt	LTP265	ltpFR	11	3	0	HERO	706	n/a	n/a	1	n/a	0	0	0	n/a	n/a	n/a	n/a	n/a
645679	REC_WORD	wordpools/wasnorm_wordpool_less_exclusions.txt	LTP265	ltpFR	11	3	0	ISLAND	745	n/a	n/a	1	n/a	0	0	0	n/a	n/a	n/a	n/a	n/a
646461	REC_WORD	wordpools/wasnorm_wordpool_less_exclusions.txt	LTP265	ltpFR	11	3	0	PIER	1063	n/a	n/a	1	n/a	0	0	0	n/a	n/a	n/a	n/a	n/a
698284	WORD	wordpools/wasnorm_wordpool_less_exclusions.txt	LTP265	ltpFR	11	4	1	BRACELET	163	n/a	n/a	0	n/a	0	0	0	0.422607421875	0.5869140625	0	upper	zerothre.ttf
702159	WORD	wordpools/wasnorm_wordpool_less_exclusions.txt	LTP265	ltpFR	11	4	1	TOMATO	1476	n/a	n/a	1	n/a	0	0	0	0.422607421875	0.5869140625	0	upper	zerothre.ttf
706164	WORD	wordpools/wasnorm_wordpool_less_exclusions.txt	LTP265	ltpFR	11	4	1	RECEPTIONIST	1174	n/a	n/a	1	n/a	0	0	0	0.422607421875	0.5869140625	0	upper	zerothre.ttf
710356	WORD	wordpools/wasnorm_wordpool_less_exclusions.txt	LTP265	ltpFR	11	4	0	MEDAL	885	n/a	n/a	0	n/a	0	0	0	0.57763671875	0.412841796875	1	lower	amplitud.ttf
714278	WORD	wordpools/wasnorm_wordpool_less_exclusions.txt	LTP265	ltpFR	11	4	0	MAN	862	n/a	n/a	1	n/a	0	0	0	0.57763671875	0.412841796875	1	lower	amplitud.ttf
718209	WORD	wordpools/wasnorm_wordpool_less_exclusions.txt	LTP265	ltpFR	11	4	0	PASTA	1021	n/a	n/a	0	n/a	0	0	0	0.57763671875	0.412841796875	1	lower	amplitud.ttf
722403	WORD	wordpools/wasnorm_wordpool_less_exclusions.txt	LTP265	ltpFR	11	4	0	CONSUMER	365	n/a	n/a	1	n/a	0	0	0	0.57763671875	0.412841796875	1	lower	amplitud.ttf
726401	WORD	wordpools/wasnorm_wordpool_less_exclusions.txt	LTP265	ltpFR	11	4	0	CITIZEN	312	n/a	n/a	1	n/a	0	0	0	0.57763671875	0.412841796875	1	lower	amplitud.ttf
730606	WORD	wordpools/wasnorm_wordpool_less_exclusions.txt	LTP265	ltpFR	11	4	0	BRUNETTE	181	n/a	n/a	1	n/a	0	0	0	0.57763671875	0.412841796875	1	lower	amplitud.ttf
734531	WORD	wordpools/wasnorm_wordpool_less_exclusions.txt	LTP265	ltpFR	11	4	1	NECK	939	n/a	n/a	0	n/a	0	0	0	0.422607421875	0.5869140625	0	upper	zerothre.ttf
738529	WORD	wordpools/wasnorm_wordpool_less_exclusions.txt	LTP265	ltpFR	11	4	1	BUYER	208	n/a	n/a	1	n/a	0	0	0	0.422607421875	0.5869140625	0	upper	zerothre.ttf
742368	WORD	wordpools/wasnorm_wordpool_less_exclusions.txt	LTP265	ltpFR	11	4	1	PIANO	1057	n/a	n/a	0	n/a	0	0	0	0.422607421875	0.5869140625	0	upper	zerothre.ttf
746432	WORD	wordpools/wasnorm_wordpool_less_exclusions.txt	LTP265	ltpFR	11	4	1	BAND	78	n/a	n/a	0	n/a	0	0	0	0.422607421875	0.5869140625	0	upper	zerothre.ttf
750330	WORD	wordpools/wasnorm_wordpool_less_exclusions.txt	LTP265	ltpFR	11	4	1	PLASTER	1085	n/a	n/a	0	n/a	0	0	0	0.422607421875	0.5869140625	0	upper	zerothre.ttf
754262	WORD	wordpools/wasnorm_wordpool_less_exclusions.txt	LTP265	ltpFR	11	4	0	CEILING	265	n/a	n/a	0	n/a	0	0	0	0.57763671875	0.412841796875	1	lower	amplitud.ttf
758395	WORD	wordpools/wasnorm_wordpool_less_exclusions.txt	LTP265	ltpFR	11	4	0	KITE	779	n/a	n/a	1	n/a	0	0	0	0.57763671875	0.412841796875	1	lower	amplitud.ttf
761407	START	n/a	LTP265	ltpFR	11	n/a	n/a	n/a	n/a	n/a	n/a	n/a	n/a	n/a	n/a	n/a	n/a	n/a	n/a	n/a	n/a
762269	PROB	n/a	LTP265	ltpFR	11	n/a	n/a	n/a	n/a	n/a	n/a	n/a	19	9	6	4	n/a	n/a	n/a	n/a	n/a
763992	PROB	n/a	LTP265	ltpFR	11	n/a	n/a	n/a	n/a	n/a	n/a	n/a	19	2	9	8	n/a	n/a	n/a	n/a	n/a
765554	PROB	n/a	LTP265	ltpFR	11	n/a	n/a	n/a	n/a	n/a	n/a	n/a	12	5	4	3	n/a	n/a	n/a	n/a	n/a
767027	PROB	n/a	LTP265	ltpFR	11	n/a	n/a	n/a	n/a	n/a	n/a	n/a	17	8	4	5	n/a	n/a	n/a	n/a	n/a
768773	STOP	n/a	LTP265	ltpFR	11	n/a	n/a	n/a	n/a	n/a	n/a	n/a	n/a	n/a	n/a	n/a	n/a	n/a	n/a	n/a	n/a
771337	REC_START	n/a	LTP265	ltpFR	11	4	n/a	n/a	n/a	n/a	n/a	n/a	n/a	0	0	0	n/a	n/a	n/a	n/a	n/a
772472	REC_WORD	wordpools/wasnorm_wordpool_less_exclusions.txt	LTP265	ltpFR	11	4	1	BAND	78	n/a	n/a	0	n/a	0	0	0	n/a	n/a	n/a	n/a	n/a
773143	REC_WORD	wordpools/wasnorm_wordpool_less_exclusions.txt	LTP265	ltpFR	11	4	1	PLASTER	1085	n/a	n/a	0	n/a	0	0	0	n/a	n/a	n/a	n/a	n/a
773972	REC_WORD	wordpools/wasnorm_wordpool_less_exclusions.txt	LTP265	ltpFR	11	4	0	CEILING	265	n/a	n/a	0	n/a	0	0	0	n/a	n/a	n/a	n/a	n/a
776046	REC_WORD	wordpools/wasnorm_wordpool_less_exclusions.txt	LTP265	ltpFR	11	4	1	PIANO	1057	n/a	n/a	0	n/a	0	0	0	n/a	n/a	n/a	n/a	n/a
778100	REC_WORD	wordpools/wasnorm_wordpool_less_exclusions.txt	LTP265	ltpFR	11	4	0	ASSISTANT	48	n/a	n/a	1	n/a	0	0	0	n/a	n/a	n/a	n/a	n/a
779282	REC_WORD_VV	wordpools/wasnorm_wordpool_less_exclusions.txt	LTP265	ltpFR	11	4	n/a	<>	-1	n/a	n/a	n/a	n/a	0	0	0	n/a	n/a	n/a	n/a	n/a
779935	REC_WORD	wordpools/wasnorm_wordpool_less_exclusions.txt	LTP265	ltpFR	11	4	1	RECEPTIONIST	1174	n/a	n/a	1	n/a	0	0	0	n/a	n/a	n/a	n/a	n/a
782762	REC_WORD	wordpools/wasnorm_wordpool_less_exclusions.txt	LTP265	ltpFR	11	4	0	MAN	862	n/a	n/a	1	n/a	0	0	0	n/a	n/a	n/a	n/a	n/a
783870	REC_WORD	wordpools/wasnorm_wordpool_less_exclusions.txt	LTP265	ltpFR	11	4	1	BUYER	208	n/a	n/a	1	n/a	0	0	0	n/a	n/a	n/a	n/a	n/a
784467	REC_WORD	wordpools/wasnorm_wordpool_less_exclusions.txt	LTP265	ltpFR	11	4	0	CONSUMER	365	n/a	n/a	1	n/a	0	0	0	n/a	n/a	n/a	n/a	n/a
785387	REC_WORD	wordpools/wasnorm_wordpool_less_exclusions.txt	LTP265	ltpFR	11	4	0	CITIZEN	312	n/a	n/a	1	n/a	0	0	0	n/a	n/a	n/a	n/a	n/a
786528	REC_WORD	wordpools/wasnorm_wordpool_less_exclusions.txt	LTP265	ltpFR	11	4	0	BRUNETTE	181	n/a	n/a	1	n/a	0	0	0	n/a	n/a	n/a	n/a	n/a
787623	REC_WORD	wordpools/wasnorm_wordpool_less_exclusions.txt	LTP265	ltpFR	11	4	1	NECK	939	n/a	n/a	0	n/a	0	0	0	n/a	n/a	n/a	n/a	n/a
790483	REC_WORD	wordpools/wasnorm_wordpool_less_exclusions.txt	LTP265	ltpFR	11	4	0	KITE	779	n/a	n/a	1	n/a	0	0	0	n/a	n/a	n/a	n/a	n/a
858856	WORD	wordpools/wasnorm_wordpool_less_exclusions.txt	LTP265	ltpFR	11	5	0	TOWEL	1489	n/a	n/a	1	n/a	0	0	0	0.57763671875	0.412841796875	1	lower	amplitud.ttf
862831	WORD	wordpools/wasnorm_wordpool_less_exclusions.txt	LTP265	ltpFR	11	5	0	MINER	896	n/a	n/a	1	n/a	0	0	0	0.57763671875	0.412841796875	1	lower	amplitud.ttf
866886	WORD	wordpools/wasnorm_wordpool_less_exclusions.txt	LTP265	ltpFR	11	5	0	COAT	333	n/a	n/a	1	n/a	0	0	0	0.57763671875	0.412841796875	1	lower	amplitud.ttf
870895	WORD	wordpools/wasnorm_wordpool_less_exclusions.txt	LTP265	ltpFR	11	5	1	STABLE	1363	n/a	n/a	0	n/a	0	0	0	0.422607421875	0.5869140625	0	upper	zerothre.ttf
874900	WORD	wordpools/wasnorm_wordpool_less_exclusions.txt	LTP265	ltpFR	11	5	1	ZEBRA	1635	n/a	n/a	1	n/a	0	0	0	0.422607421875	0.5869140625	0	upper	zerothre.ttf
878915	WORD	wordpools/wasnorm_wordpool_less_exclusions.txt	LTP265	ltpFR	11	5	1	TRENCH	1503	n/a	n/a	0	n/a	0	0	0	0.422607421875	0.5869140625	0	upper	zerothre.ttf
882913	WORD	wordpools/wasnorm_wordpool_less_exclusions.txt	LTP265	ltpFR	11	5	1	DINNER	468	n/a	n/a	0	n/a	0	0	0	0.422607421875	0.5869140625	0	upper	zerothre.ttf
887012	WORD	wordpools/wasnorm_wordpool_less_exclusions.txt	LTP265	ltpFR	11	5	0	TURNIP	1521	n/a	n/a	0	n/a	0	0	0	0.57763671875	0.412841796875	1	lower	amplitud.ttf
890910	WORD	wordpools/wasnorm_wordpool_less_exclusions.txt	LTP265	ltpFR	11	5	0	MOTHER	921	n/a	n/a	1	n/a	0	0	0	0.57763671875	0.412841796875	1	lower	amplitud.ttf
894791	WORD	wordpools/wasnorm_wordpool_less_exclusions.txt	LTP265	ltpFR	11	5	0	LEOPARD	812	n/a	n/a	1	n/a	0	0	0	0.57763671875	0.412841796875	1	lower	amplitud.ttf
898917	WORD	wordpools/wasnorm_wordpool_less_exclusions.txt	LTP265	ltpFR	11	5	0	POSSUM	1112	n/a	n/a	0	n/a	0	0	0	0.57763671875	0.412841796875	1	lower	amplitud.ttf
902922	WORD	wordpools/wasnorm_wordpool_less_exclusions.txt	LTP265	ltpFR	11	5	0	SHOWER	1296	n/a	n/a	1	n/a	0	0	0	0.57763671875	0.412841796875	1	lower	amplitud.ttf
906864	WORD	wordpools/wasnorm_wordpool_less_exclusions.txt	LTP265	ltpFR	11	5	1	BOX	159	n/a	n/a	0	n/a	0	0	0	0.422607421875	0.5869140625	0	upper	zerothre.ttf
910929	WORD	wordpools/wasnorm_wordpool_less_exclusions.txt	LTP265	ltpFR	11	5	1	PEN	1041	n/a	n/a	0	n/a	0	0	0	0.422607421875	0.5869140625	0	upper	zerothre.ttf
914917	WORD	wordpools/wasnorm_wordpool_less_exclusions.txt	LTP265	ltpFR	11	5	1	FAN	551	n/a	n/a	0	n/a	0	0	0	0.422607421875	0.5869140625	0	upper	zerothre.ttf
918792	WORD	wordpools/wasnorm_wordpool_less_exclusions.txt	LTP265	ltpFR	11	5	1	TORCH	1484	n/a	n/a	0	n/a	0	0	0	0.422607421875	0.5869140625	0	upper	zerothre.ttf
924548	REC_START	n/a	LTP265	ltpFR	11	5	n/a	n/a	n/a	n/a	n/a	n/a	n/a	0	0	0	n/a	n/a	n/a	n/a	n/a
925569	REC_WORD	wordpools/wasnorm_wordpool_less_exclusions.txt	LTP265	ltpFR	11	5	1	TORCH	1484	n/a	n/a	0	n/a	0	0	0	n/a	n/a	n/a	n/a	n/a
926399	REC_WORD	wordpools/wasnorm_wordpool_less_exclusions.txt	LTP265	ltpFR	11	5	1	FAN	551	n/a	n/a	0	n/a	0	0	0	n/a	n/a	n/a	n/a	n/a
927634	REC_WORD	wordpools/wasnorm_wordpool_less_exclusions.txt	LTP265	ltpFR	11	5	0	MOTHER	921	n/a	n/a	1	n/a	0	0	0	n/a	n/a	n/a	n/a	n/a
928569	REC_WORD	wordpools/wasnorm_wordpool_less_exclusions.txt	LTP265	ltpFR	11	5	0	TURNIP	1521	n/a	n/a	0	n/a	0	0	0	n/a	n/a	n/a	n/a	n/a
929594	REC_WORD	wordpools/wasnorm_wordpool_less_exclusions.txt	LTP265	ltpFR	11	5	1	DINNER	468	n/a	n/a	0	n/a	0	0	0	n/a	n/a	n/a	n/a	n/a
936844	REC_WORD	wordpools/wasnorm_wordpool_less_exclusions.txt	LTP265	ltpFR	11	5	1	ZEBRA	1635	n/a	n/a	1	n/a	0	0	0	n/a	n/a	n/a	n/a	n/a
939898	REC_WORD	wordpools/wasnorm_wordpool_less_exclusions.txt	LTP265	ltpFR	11	5	1	TRENCH	1503	n/a	n/a	0	n/a	0	0	0	n/a	n/a	n/a	n/a	n/a
942860	REC_WORD	wordpools/wasnorm_wordpool_less_exclusions.txt	LTP265	ltpFR	11	5	0	SHOWER	1296	n/a	n/a	1	n/a	0	0	0	n/a	n/a	n/a	n/a	n/a
948092	REC_WORD	wordpools/wasnorm_wordpool_less_exclusions.txt	LTP265	ltpFR	11	5	0	POSSUM	1112	n/a	n/a	0	n/a	0	0	0	n/a	n/a	n/a	n/a	n/a
990994	REC_WORD	wordpools/wasnorm_wordpool_less_exclusions.txt	LTP265	ltpFR	11	5	1	PEN	1041	n/a	n/a	0	n/a	0	0	0	n/a	n/a	n/a	n/a	n/a
993657	REC_WORD	wordpools/wasnorm_wordpool_less_exclusions.txt	LTP265	ltpFR	11	5	1	BOX	159	n/a	n/a	0	n/a	0	0	0	n/a	n/a	n/a	n/a	n/a
1002280	START	n/a	LTP265	ltpFR	11	n/a	n/a	n/a	n/a	n/a	n/a	n/a	n/a	n/a	n/a	n/a	n/a	n/a	n/a	n/a	n/a
1003796	PROB	n/a	LTP265	ltpFR	11	n/a	n/a	n/a	n/a	n/a	n/a	n/a	20	7	5	8	n/a	n/a	n/a	n/a	n/a
1005770	PROB	n/a	LTP265	ltpFR	11	n/a	n/a	n/a	n/a	n/a	n/a	n/a	11	2	2	7	n/a	n/a	n/a	n/a	n/a
1007115	PROB	n/a	LTP265	ltpFR	11	n/a	n/a	n/a	n/a	n/a	n/a	n/a	9	1	2	6	n/a	n/a	n/a	n/a	n/a
1008537	PROB	n/a	LTP265	ltpFR	11	n/a	n/a	n/a	n/a	n/a	n/a	n/a	18	8	9	1	n/a	n/a	n/a	n/a	n/a
1009965	STOP	n/a	LTP265	ltpFR	11	n/a	n/a	n/a	n/a	n/a	n/a	n/a	n/a	n/a	n/a	n/a	n/a	n/a	n/a	n/a	n/a
1011392	WORD	wordpools/wasnorm_wordpool_less_exclusions.txt	LTP265	ltpFR	11	6	1	BUGLE	189	n/a	n/a	0	n/a	0	0	0	0.422607421875	0.5869140625	0	upper	zerothre.ttf
1014404	START	n/a	LTP265	ltpFR	11	n/a	n/a	n/a	n/a	n/a	n/a	n/a	n/a	n/a	n/a	n/a	n/a	n/a	n/a	n/a	n/a
1015239	PROB	n/a	LTP265	ltpFR	11	n/a	n/a	n/a	n/a	n/a	n/a	n/a	12	7	1	4	n/a	n/a	n/a	n/a	n/a
1016835	PROB	n/a	LTP265	ltpFR	11	n/a	n/a	n/a	n/a	n/a	n/a	n/a	21	4	8	9	n/a	n/a	n/a	n/a	n/a
1019622	PROB	n/a	LTP265	ltpFR	11	n/a	n/a	n/a	n/a	n/a	n/a	n/a	14	3	3	8	n/a	n/a	n/a	n/a	n/a
1021349	STOP	n/a	LTP265	ltpFR	11	n/a	n/a	n/a	n/a	n/a	n/a	n/a	n/a	n/a	n/a	n/a	n/a	n/a	n/a	n/a	n/a
1023259	WORD	wordpools/wasnorm_wordpool_less_exclusions.txt	LTP265	ltpFR	11	6	1	TUNNEL	1519	n/a	n/a	0	n/a	0	0	0	0.422607421875	0.5869140625	0	upper	zerothre.ttf
1026271	START	n/a	LTP265	ltpFR	11	n/a	n/a	n/a	n/a	n/a	n/a	n/a	n/a	n/a	n/a	n/a	n/a	n/a	n/a	n/a	n/a
1027291	PROB	n/a	LTP265	ltpFR	11	n/a	n/a	n/a	n/a	n/a	n/a	n/a	17	6	5	6	n/a	n/a	n/a	n/a	n/a
1029081	PROB	n/a	LTP265	ltpFR	11	n/a	n/a	n/a	n/a	n/a	n/a	n/a	11	8	2	1	n/a	n/a	n/a	n/a	n/a
1030469	PROB	n/a	LTP265	ltpFR	11	n/a	n/a	n/a	n/a	n/a	n/a	n/a	8	3	2	3	n/a	n/a	n/a	n/a	n/a
1032136	PROB	n/a	LTP265	ltpFR	11	n/a	n/a	n/a	n/a	n/a	n/a	n/a	14	6	5	3	n/a	n/a	n/a	n/a	n/a
1033677	STOP	n/a	LTP265	ltpFR	11	n/a	n/a	n/a	n/a	n/a	n/a	n/a	n/a	n/a	n/a	n/a	n/a	n/a	n/a	n/a	n/a
1035415	WORD	wordpools/wasnorm_wordpool_less_exclusions.txt	LTP265	ltpFR	11	6	1	ELF	525	n/a	n/a	1	n/a	0	0	0	0.422607421875	0.5869140625	0	upper	zerothre.ttf
1038427	START	n/a	LTP265	ltpFR	11	n/a	n/a	n/a	n/a	n/a	n/a	n/a	n/a	n/a	n/a	n/a	n/a	n/a	n/a	n/a	n/a
1039363	PROB	n/a	LTP265	ltpFR	11	n/a	n/a	n/a	n/a	n/a	n/a	n/a	9	3	3	3	n/a	n/a	n/a	n/a	n/a
1040809	PROB	n/a	LTP265	ltpFR	11	n/a	n/a	n/a	n/a	n/a	n/a	n/a	8	1	6	1	n/a	n/a	n/a	n/a	n/a
1042080	PROB	n/a	LTP265	ltpFR	11	n/a	n/a	n/a	n/a	n/a	n/a	n/a	8	4	1	3	n/a	n/a	n/a	n/a	n/a
1044248	PROB	n/a	LTP265	ltpFR	11	n/a	n/a	n/a	n/a	n/a	n/a	n/a	17	7	4	6	n/a	n/a	n/a	n/a	n/a
1045701	STOP	n/a	LTP265	ltpFR	11	n/a	n/a	n/a	n/a	n/a	n/a	n/a	n/a	n/a	n/a	n/a	n/a	n/a	n/a	n/a	n/a
1047394	WORD	wordpools/wasnorm_wordpool_less_exclusions.txt	LTP265	ltpFR	11	6	1	OBOE	969	n/a	n/a	0	n/a	0	0	0	0.422607421875	0.5869140625	0	upper	zerothre.ttf
1050406	START	n/a	LTP265	ltpFR	11	n/a	n/a	n/a	n/a	n/a	n/a	n/a	n/a	n/a	n/a	n/a	n/a	n/a	n/a	n/a	n/a
1051609	PROB	n/a	LTP265	ltpFR	11	n/a	n/a	n/a	n/a	n/a	n/a	n/a	19	9	4	6	n/a	n/a	n/a	n/a	n/a
1054025	PROB	n/a	LTP265	ltpFR	11	n/a	n/a	n/a	n/a	n/a	n/a	n/a	17	6	2	9	n/a	n/a	n/a	n/a	n/a
1055965	PROB	n/a	LTP265	ltpFR	11	n/a	n/a	n/a	n/a	n/a	n/a	n/a	20	7	5	8	n/a	n/a	n/a	n/a	n/a
1057565	STOP	n/a	LTP265	ltpFR	11	n/a	n/a	n/a	n/a	n/a	n/a	n/a	n/a	n/a	n/a	n/a	n/a	n/a	n/a	n/a	n/a
1059512	WORD	wordpools/wasnorm_wordpool_less_exclusions.txt	LTP265	ltpFR	11	6	1	SUIT	1402	n/a	n/a	0	n/a	0	0	0	0.422607421875	0.5869140625	0	upper	zerothre.ttf
1062524	START	n/a	LTP265	ltpFR	11	n/a	n/a	n/a	n/a	n/a	n/a	n/a	n/a	n/a	n/a	n/a	n/a	n/a	n/a	n/a	n/a
1063454	PROB	n/a	LTP265	ltpFR	11	n/a	n/a	n/a	n/a	n/a	n/a	n/a	15	1	9	5	n/a	n/a	n/a	n/a	n/a
1064799	PROB	n/a	LTP265	ltpFR	11	n/a	n/a	n/a	n/a	n/a	n/a	n/a	14	2	3	9	n/a	n/a	n/a	n/a	n/a
1067051	PROB	n/a	LTP265	ltpFR	11	n/a	n/a	n/a	n/a	n/a	n/a	n/a	22	8	7	7	n/a	n/a	n/a	n/a	n/a
1069141	STOP	n/a	LTP265	ltpFR	11	n/a	n/a	n/a	n/a	n/a	n/a	n/a	n/a	n/a	n/a	n/a	n/a	n/a	n/a	n/a	n/a
1071434	WORD	wordpools/wasnorm_wordpool_less_exclusions.txt	LTP265	ltpFR	11	6	1	SHEEP	1278	n/a	n/a	1	n/a	0	0	0	0.422607421875	0.5869140625	0	upper	zerothre.ttf
1074446	START	n/a	LTP265	ltpFR	11	n/a	n/a	n/a	n/a	n/a	n/a	n/a	n/a	n/a	n/a	n/a	n/a	n/a	n/a	n/a	n/a
1075305	PROB	n/a	LTP265	ltpFR	11	n/a	n/a	n/a	n/a	n/a	n/a	n/a	15	6	7	2	n/a	n/a	n/a	n/a	n/a
1077391	PROB	n/a	LTP265	ltpFR	11	n/a	n/a	n/a	n/a	n/a	n/a	n/a	12	3	5	4	n/a	n/a	n/a	n/a	n/a
1078818	PROB	n/a	LTP265	ltpFR	11	n/a	n/a	n/a	n/a	n/a	n/a	n/a	7	2	1	4	n/a	n/a	n/a	n/a	n/a
1080357	PROB	n/a	LTP265	ltpFR	11	n/a	n/a	n/a	n/a	n/a	n/a	n/a	23	9	7	7	n/a	n/a	n/a	n/a	n/a
1082069	STOP	n/a	LTP265	ltpFR	11	n/a	n/a	n/a	n/a	n/a	n/a	n/a	n/a	n/a	n/a	n/a	n/a	n/a	n/a	n/a	n/a
1083370	WORD	wordpools/wasnorm_wordpool_less_exclusions.txt	LTP265	ltpFR	11	6	1	CREATURE	403	n/a	n/a	1	n/a	0	0	0	0.422607421875	0.5869140625	0	upper	zerothre.ttf
1086382	START	n/a	LTP265	ltpFR	11	n/a	n/a	n/a	n/a	n/a	n/a	n/a	n/a	n/a	n/a	n/a	n/a	n/a	n/a	n/a	n/a
1087368	PROB	n/a	LTP265	ltpFR	11	n/a	n/a	n/a	n/a	n/a	n/a	n/a	6	1	1	4	n/a	n/a	n/a	n/a	n/a
1088588	PROB	n/a	LTP265	ltpFR	11	n/a	n/a	n/a	n/a	n/a	n/a	n/a	7	2	3	2	n/a	n/a	n/a	n/a	n/a
1090445	PROB	n/a	LTP265	ltpFR	11	n/a	n/a	n/a	n/a	n/a	n/a	n/a	18	7	2	9	n/a	n/a	n/a	n/a	n/a
1092179	PROB	n/a	LTP265	ltpFR	11	n/a	n/a	n/a	n/a	n/a	n/a	n/a	21	6	7	8	n/a	n/a	n/a	n/a	n/a
1093733	STOP	n/a	LTP265	ltpFR	11	n/a	n/a	n/a	n/a	n/a	n/a	n/a	n/a	n/a	n/a	n/a	n/a	n/a	n/a	n/a	n/a
1095280	WORD	wordpools/wasnorm_wordpool_less_exclusions.txt	LTP265	ltpFR	11	6	1	ACORN	3	n/a	n/a	1	n/a	0	0	0	0.422607421875	0.5869140625	0	upper	zerothre.ttf
1098293	START	n/a	LTP265	ltpFR	11	n/a	n/a	n/a	n/a	n/a	n/a	n/a	n/a	n/a	n/a	n/a	n/a	n/a	n/a	n/a	n/a
1099128	PROB	n/a	LTP265	ltpFR	11	n/a	n/a	n/a	n/a	n/a	n/a	n/a	15	6	3	6	n/a	n/a	n/a	n/a	n/a
1100678	PROB	n/a	LTP265	ltpFR	11	n/a	n/a	n/a	n/a	n/a	n/a	n/a	16	9	1	6	n/a	n/a	n/a	n/a	n/a
1102056	PROB	n/a	LTP265	ltpFR	11	n/a	n/a	n/a	n/a	n/a	n/a	n/a	11	2	1	8	n/a	n/a	n/a	n/a	n/a
1103372	PROB	n/a	LTP265	ltpFR	11	n/a	n/a	n/a	n/a	n/a	n/a	n/a	20	5	7	8	n/a	n/a	n/a	n/a	n/a
1104757	STOP	n/a	LTP265	ltpFR	11	n/a	n/a	n/a	n/a	n/a	n/a	n/a	n/a	n/a	n/a	n/a	n/a	n/a	n/a	n/a	n/a
1107185	WORD	wordpools/wasnorm_wordpool_less_exclusions.txt	LTP265	ltpFR	11	6	1	SQUIRREL	1362	n/a	n/a	1	n/a	0	0	0	0.422607421875	0.5869140625	0	upper	zerothre.ttf
1110198	START	n/a	LTP265	ltpFR	11	n/a	n/a	n/a	n/a	n/a	n/a	n/a	n/a	n/a	n/a	n/a	n/a	n/a	n/a	n/a	n/a
1111207	PROB	n/a	LTP265	ltpFR	11	n/a	n/a	n/a	n/a	n/a	n/a	n/a	16	5	8	3	n/a	n/a	n/a	n/a	n/a
1113091	PROB	n/a	LTP265	ltpFR	11	n/a	n/a	n/a	n/a	n/a	n/a	n/a	15	9	4	2	n/a	n/a	n/a	n/a	n/a
1116203	PROB	n/a	LTP265	ltpFR	11	n/a	n/a	n/a	n/a	n/a	n/a	n/a	19	8	4	7	n/a	n/a	n/a	n/a	n/a
1118149	STOP	n/a	LTP265	ltpFR	11	n/a	n/a	n/a	n/a	n/a	n/a	n/a	n/a	n/a	n/a	n/a	n/a	n/a	n/a	n/a	n/a
1119321	WORD	wordpools/wasnorm_wordpool_less_exclusions.txt	LTP265	ltpFR	11	6	1	SICKLE	1302	n/a	n/a	0	n/a	0	0	0	0.422607421875	0.5869140625	0	upper	zerothre.ttf
1122333	START	n/a	LTP265	ltpFR	11	n/a	n/a	n/a	n/a	n/a	n/a	n/a	n/a	n/a	n/a	n/a	n/a	n/a	n/a	n/a	n/a
1123336	PROB	n/a	LTP265	ltpFR	11	n/a	n/a	n/a	n/a	n/a	n/a	n/a	16	1	7	8	n/a	n/a	n/a	n/a	n/a
1125538	PROB	n/a	LTP265	ltpFR	11	n/a	n/a	n/a	n/a	n/a	n/a	n/a	6	4	1	1	n/a	n/a	n/a	n/a	n/a
1126759	PROB	n/a	LTP265	ltpFR	11	n/a	n/a	n/a	n/a	n/a	n/a	n/a	17	3	6	8	n/a	n/a	n/a	n/a	n/a
1128606	PROB	n/a	LTP265	ltpFR	11	n/a	n/a	n/a	n/a	n/a	n/a	n/a	17	2	7	8	n/a	n/a	n/a	n/a	n/a
1130189	STOP	n/a	LTP265	ltpFR	11	n/a	n/a	n/a	n/a	n/a	n/a	n/a	n/a	n/a	n/a	n/a	n/a	n/a	n/a	n/a	n/a
1131384	WORD	wordpools/wasnorm_wordpool_less_exclusions.txt	LTP265	ltpFR	11	6	1	POT	1114	n/a	n/a	0	n/a	0	0	0	0.422607421875	0.5869140625	0	upper	zerothre.ttf
1134396	START	n/a	LTP265	ltpFR	11	n/a	n/a	n/a	n/a	n/a	n/a	n/a	n/a	n/a	n/a	n/a	n/a	n/a	n/a	n/a	n/a
1135465	PROB	n/a	LTP265	ltpFR	11	n/a	n/a	n/a	n/a	n/a	n/a	n/a	11	1	4	6	n/a	n/a	n/a	n/a	n/a
1137121	PROB	n/a	LTP265	ltpFR	11	n/a	n/a	n/a	n/a	n/a	n/a	n/a	14	4	4	6	n/a	n/a	n/a	n/a	n/a
1138754	PROB	n/a	LTP265	ltpFR	11	n/a	n/a	n/a	n/a	n/a	n/a	n/a	12	2	8	2	n/a	n/a	n/a	n/a	n/a
1140009	PROB	n/a	LTP265	ltpFR	11	n/a	n/a	n/a	n/a	n/a	n/a	n/a	6	1	2	3	n/a	n/a	n/a	n/a	n/a
1141797	STOP	n/a	LTP265	ltpFR	11	n/a	n/a	n/a	n/a	n/a	n/a	n/a	n/a	n/a	n/a	n/a	n/a	n/a	n/a	n/a	n/a
1143328	WORD	wordpools/wasnorm_wordpool_less_exclusions.txt	LTP265	ltpFR	11	6	1	CHEF	290	n/a	n/a	1	n/a	0	0	0	0.422607421875	0.5869140625	0	upper	zerothre.ttf
1146340	START	n/a	LTP265	ltpFR	11	n/a	n/a	n/a	n/a	n/a	n/a	n/a	n/a	n/a	n/a	n/a	n/a	n/a	n/a	n/a	n/a
1147487	PROB	n/a	LTP265	ltpFR	11	n/a	n/a	n/a	n/a	n/a	n/a	n/a	14	6	5	3	n/a	n/a	n/a	n/a	n/a
1149143	PROB	n/a	LTP265	ltpFR	11	n/a	n/a	n/a	n/a	n/a	n/a	n/a	15	8	6	1	n/a	n/a	n/a	n/a	n/a
1151034	PROB	n/a	LTP265	ltpFR	11	n/a	n/a	n/a	n/a	n/a	n/a	n/a	18	5	4	9	n/a	n/a	n/a	n/a	n/a
1152630	PROB	n/a	LTP265	ltpFR	11	n/a	n/a	n/a	n/a	n/a	n/a	n/a	15	3	7	5	n/a	n/a	n/a	n/a	n/a
1153789	STOP	n/a	LTP265	ltpFR	11	n/a	n/a	n/a	n/a	n/a	n/a	n/a	n/a	n/a	n/a	n/a	n/a	n/a	n/a	n/a	n/a
1155290	WORD	wordpools/wasnorm_wordpool_less_exclusions.txt	LTP265	ltpFR	11	6	1	TRAIN	1494	n/a	n/a	0	n/a	0	0	0	0.422607421875	0.5869140625	0	upper	zerothre.ttf
1158302	START	n/a	LTP265	ltpFR	11	n/a	n/a	n/a	n/a	n/a	n/a	n/a	n/a	n/a	n/a	n/a	n/a	n/a	n/a	n/a	n/a
1159472	PROB	n/a	LTP265	ltpFR	11	n/a	n/a	n/a	n/a	n/a	n/a	n/a	17	9	3	5	n/a	n/a	n/a	n/a	n/a
1161397	PROB	n/a	LTP265	ltpFR	11	n/a	n/a	n/a	n/a	n/a	n/a	n/a	23	9	5	9	n/a	n/a	n/a	n/a	n/a
1163671	PROB	n/a	LTP265	ltpFR	11	n/a	n/a	n/a	n/a	n/a	n/a	n/a	15	9	1	5	n/a	n/a	n/a	n/a	n/a
1164909	STOP	n/a	LTP265	ltpFR	11	n/a	n/a	n/a	n/a	n/a	n/a	n/a	n/a	n/a	n/a	n/a	n/a	n/a	n/a	n/a	n/a
1167436	WORD	wordpools/wasnorm_wordpool_less_exclusions.txt	LTP265	ltpFR	11	6	1	BARLEY	88	n/a	n/a	0	n/a	0	0	0	0.422607421875	0.5869140625	0	upper	zerothre.ttf
1170448	START	n/a	LTP265	ltpFR	11	n/a	n/a	n/a	n/a	n/a	n/a	n/a	n/a	n/a	n/a	n/a	n/a	n/a	n/a	n/a	n/a
1171283	PROB	n/a	LTP265	ltpFR	11	n/a	n/a	n/a	n/a	n/a	n/a	n/a	23	6	9	8	n/a	n/a	n/a	n/a	n/a
1174037	PROB	n/a	LTP265	ltpFR	11	n/a	n/a	n/a	n/a	n/a	n/a	n/a	14	3	2	9	n/a	n/a	n/a	n/a	n/a
1175968	PROB	n/a	LTP265	ltpFR	11	n/a	n/a	n/a	n/a	n/a	n/a	n/a	9	1	5	3	n/a	n/a	n/a	n/a	n/a
1177653	STOP	n/a	LTP265	ltpFR	11	n/a	n/a	n/a	n/a	n/a	n/a	n/a	n/a	n/a	n/a	n/a	n/a	n/a	n/a	n/a	n/a
1179541	WORD	wordpools/wasnorm_wordpool_less_exclusions.txt	LTP265	ltpFR	11	6	1	SCOUT	1252	n/a	n/a	1	n/a	0	0	0	0.422607421875	0.5869140625	0	upper	zerothre.ttf
1182553	START	n/a	LTP265	ltpFR	11	n/a	n/a	n/a	n/a	n/a	n/a	n/a	n/a	n/a	n/a	n/a	n/a	n/a	n/a	n/a	n/a
1183506	PROB	n/a	LTP265	ltpFR	11	n/a	n/a	n/a	n/a	n/a	n/a	n/a	12	7	2	3	n/a	n/a	n/a	n/a	n/a
1185062	PROB	n/a	LTP265	ltpFR	11	n/a	n/a	n/a	n/a	n/a	n/a	n/a	15	5	7	3	n/a	n/a	n/a	n/a	n/a
1186919	PROB	n/a	LTP265	ltpFR	11	n/a	n/a	n/a	n/a	n/a	n/a	n/a	13	3	2	8	n/a	n/a	n/a	n/a	n/a
1188376	PROB	n/a	LTP265	ltpFR	11	n/a	n/a	n/a	n/a	n/a	n/a	n/a	15	8	6	1	n/a	n/a	n/a	n/a	n/a
1190077	STOP	n/a	LTP265	ltpFR	11	n/a	n/a	n/a	n/a	n/a	n/a	n/a	n/a	n/a	n/a	n/a	n/a	n/a	n/a	n/a	n/a
1191610	WORD	wordpools/wasnorm_wordpool_less_exclusions.txt	LTP265	ltpFR	11	6	1	CLOUD	328	n/a	n/a	0	n/a	0	0	0	0.422607421875	0.5869140625	0	upper	zerothre.ttf
1194622	START	n/a	LTP265	ltpFR	11	n/a	n/a	n/a	n/a	n/a	n/a	n/a	n/a	n/a	n/a	n/a	n/a	n/a	n/a	n/a	n/a
1195819	PROB	n/a	LTP265	ltpFR	11	n/a	n/a	n/a	n/a	n/a	n/a	n/a	8	4	2	2	n/a	n/a	n/a	n/a	n/a
1197359	PROB	n/a	LTP265	ltpFR	11	n/a	n/a	n/a	n/a	n/a	n/a	n/a	22	6	8	8	n/a	n/a	n/a	n/a	n/a
1199891	PROB	n/a	LTP265	ltpFR	11	n/a	n/a	n/a	n/a	n/a	n/a	n/a	19	5	8	6	n/a	n/a	n/a	n/a	n/a
1201549	STOP	n/a	LTP265	ltpFR	11	n/a	n/a	n/a	n/a	n/a	n/a	n/a	n/a	n/a	n/a	n/a	n/a	n/a	n/a	n/a	n/a
1204553	REC_START	n/a	LTP265	ltpFR	11	6	n/a	n/a	n/a	n/a	n/a	n/a	n/a	0	0	0	n/a	n/a	n/a	n/a	n/a
1205538	REC_WORD	wordpools/wasnorm_wordpool_less_exclusions.txt	LTP265	ltpFR	11	6	1	SCOUT	1252	n/a	n/a	1	n/a	0	0	0	n/a	n/a	n/a	n/a	n/a
1206573	REC_WORD	wordpools/wasnorm_wordpool_less_exclusions.txt	LTP265	ltpFR	11	6	1	CHEF	290	n/a	n/a	1	n/a	0	0	0	n/a	n/a	n/a	n/a	n/a
1207596	REC_WORD	wordpools/wasnorm_wordpool_less_exclusions.txt	LTP265	ltpFR	11	6	1	POT	1114	n/a	n/a	0	n/a	0	0	0	n/a	n/a	n/a	n/a	n/a
1208656	REC_WORD	wordpools/wasnorm_wordpool_less_exclusions.txt	LTP265	ltpFR	11	6	1	SQUIRREL	1362	n/a	n/a	1	n/a	0	0	0	n/a	n/a	n/a	n/a	n/a
1209919	REC_WORD	wordpools/wasnorm_wordpool_less_exclusions.txt	LTP265	ltpFR	11	6	1	ACORN	3	n/a	n/a	1	n/a	0	0	0	n/a	n/a	n/a	n/a	n/a
1210803	REC_WORD	wordpools/wasnorm_wordpool_less_exclusions.txt	LTP265	ltpFR	11	6	1	SICKLE	1302	n/a	n/a	0	n/a	0	0	0	n/a	n/a	n/a	n/a	n/a
1213856	REC_WORD	wordpools/wasnorm_wordpool_less_exclusions.txt	LTP265	ltpFR	11	6	1	ELF	525	n/a	n/a	1	n/a	0	0	0	n/a	n/a	n/a	n/a	n/a
1214936	REC_WORD	wordpools/wasnorm_wordpool_less_exclusions.txt	LTP265	ltpFR	11	6	1	CREATURE	403	n/a	n/a	1	n/a	0	0	0	n/a	n/a	n/a	n/a	n/a
1217139	REC_WORD	wordpools/wasnorm_wordpool_less_exclusions.txt	LTP265	ltpFR	11	6	1	BUGLE	189	n/a	n/a	0	n/a	0	0	0	n/a	n/a	n/a	n/a	n/a
1218041	REC_WORD	wordpools/wasnorm_wordpool_less_exclusions.txt	LTP265	ltpFR	11	6	1	OBOE	969	n/a	n/a	0	n/a	0	0	0	n/a	n/a	n/a	n/a	n/a
1218959	REC_WORD	wordpools/wasnorm_wordpool_less_exclusions.txt	LTP265	ltpFR	11	6	1	SUIT	1402	n/a	n/a	0	n/a	0	0	0	n/a	n/a	n/a	n/a	n/a
1282486	START	n/a	LTP265	ltpFR	11	n/a	n/a	n/a	n/a	n/a	n/a	n/a	n/a	n/a	n/a	n/a	n/a	n/a	n/a	n/a	n/a
1284002	PROB	n/a	LTP265	ltpFR	11	n/a	n/a	n/a	n/a	n/a	n/a	n/a	14	8	1	5	n/a	n/a	n/a	n/a	n/a
1285826	PROB	n/a	LTP265	ltpFR	11	n/a	n/a	n/a	n/a	n/a	n/a	n/a	16	3	5	8	n/a	n/a	n/a	n/a	n/a
1287297	PROB	n/a	LTP265	ltpFR	11	n/a	n/a	n/a	n/a	n/a	n/a	n/a	20	9	6	5	n/a	n/a	n/a	n/a	n/a
1288904	PROB	n/a	LTP265	ltpFR	11	n/a	n/a	n/a	n/a	n/a	n/a	n/a	20	5	8	7	n/a	n/a	n/a	n/a	n/a
1292065	PROB	n/a	LTP265	ltpFR	11	n/a	n/a	n/a	n/a	n/a	n/a	n/a	24	7	8	9	n/a	n/a	n/a	n/a	n/a
1294157	PROB	n/a	LTP265	ltpFR	11	n/a	n/a	n/a	n/a	n/a	n/a	n/a	13	5	5	3	n/a	n/a	n/a	n/a	n/a
1295418	PROB	n/a	LTP265	ltpFR	11	n/a	n/a	n/a	n/a	n/a	n/a	n/a	19	8	3	8	n/a	n/a	n/a	n/a	n/a
1297077	STOP	n/a	LTP265	ltpFR	11	n/a	n/a	n/a	n/a	n/a	n/a	n/a	n/a	n/a	n/a	n/a	n/a	n/a	n/a	n/a	n/a
1299366	WORD	wordpools/wasnorm_wordpool_less_exclusions.txt	LTP265	ltpFR	11	7	1	ZOO	1637	n/a	n/a	1	n/a	0	0	0	0.422607421875	0.5869140625	0	upper	zerothre.ttf
1302379	START	n/a	LTP265	ltpFR	11	n/a	n/a	n/a	n/a	n/a	n/a	n/a	n/a	n/a	n/a	n/a	n/a	n/a	n/a	n/a	n/a
1303482	PROB	n/a	LTP265	ltpFR	11	n/a	n/a	n/a	n/a	n/a	n/a	n/a	15	1	6	8	n/a	n/a	n/a	n/a	n/a
1305339	PROB	n/a	LTP265	ltpFR	11	n/a	n/a	n/a	n/a	n/a	n/a	n/a	16	1	9	6	n/a	n/a	n/a	n/a	n/a
1307524	PROB	n/a	LTP265	ltpFR	11	n/a	n/a	n/a	n/a	n/a	n/a	n/a	17	9	1	7	n/a	n/a	n/a	n/a	n/a
1310318	PROB	n/a	LTP265	ltpFR	11	n/a	n/a	n/a	n/a	n/a	n/a	n/a	14	6	4	4	n/a	n/a	n/a	n/a	n/a
1311740	PROB	n/a	LTP265	ltpFR	11	n/a	n/a	n/a	n/a	n/a	n/a	n/a	17	2	8	7	n/a	n/a	n/a	n/a	n/a
1313068	PROB	n/a	LTP265	ltpFR	11	n/a	n/a	n/a	n/a	n/a	n/a	n/a	25	8	8	9	n/a	n/a	n/a	n/a	n/a
1315035	PROB	n/a	LTP265	ltpFR	11	n/a	n/a	n/a	n/a	n/a	n/a	n/a	1	6	3	1	n/a	n/a	n/a	n/a	n/a
1318379	STOP	n/a	LTP265	ltpFR	11	n/a	n/a	n/a	n/a	n/a	n/a	n/a	n/a	n/a	n/a	n/a	n/a	n/a	n/a	n/a	n/a
1319519	WORD	wordpools/wasnorm_wordpool_less_exclusions.txt	LTP265	ltpFR	11	7	1	PUBLICATION	1136	n/a	n/a	0	n/a	0	0	0	0.422607421875	0.5869140625	0	upper	zerothre.ttf
1322531	START	n/a	LTP265	ltpFR	11	n/a	n/a	n/a	n/a	n/a	n/a	n/a	n/a	n/a	n/a	n/a	n/a	n/a	n/a	n/a	n/a
1323668	PROB	n/a	LTP265	ltpFR	11	n/a	n/a	n/a	n/a	n/a	n/a	n/a	14	6	2	6	n/a	n/a	n/a	n/a	n/a
1325274	PROB	n/a	LTP265	ltpFR	11	n/a	n/a	n/a	n/a	n/a	n/a	n/a	11	6	1	4	n/a	n/a	n/a	n/a	n/a
1327131	PROB	n/a	LTP265	ltpFR	11	n/a	n/a	n/a	n/a	n/a	n/a	n/a	16	6	7	3	n/a	n/a	n/a	n/a	n/a
1328861	PROB	n/a	LTP265	ltpFR	11	n/a	n/a	n/a	n/a	n/a	n/a	n/a	15	4	6	5	n/a	n/a	n/a	n/a	n/a
1330199	PROB	n/a	LTP265	ltpFR	11	n/a	n/a	n/a	n/a	n/a	n/a	n/a	18	6	3	9	n/a	n/a	n/a	n/a	n/a
1331872	PROB	n/a	LTP265	ltpFR	11	n/a	n/a	n/a	n/a	n/a	n/a	n/a	19	8	3	8	n/a	n/a	n/a	n/a	n/a
1333505	PROB	n/a	LTP265	ltpFR	11	n/a	n/a	n/a	n/a	n/a	n/a	n/a	25	8	8	9	n/a	n/a	n/a	n/a	n/a
1335736	PROB	n/a	LTP265	ltpFR	11	n/a	n/a	n/a	n/a	n/a	n/a	n/a	15	7	4	4	n/a	n/a	n/a	n/a	n/a
1337125	STOP	n/a	LTP265	ltpFR	11	n/a	n/a	n/a	n/a	n/a	n/a	n/a	n/a	n/a	n/a	n/a	n/a	n/a	n/a	n/a	n/a
1339568	WORD	wordpools/wasnorm_wordpool_less_exclusions.txt	LTP265	ltpFR	11	7	1	BIKE	125	n/a	n/a	0	n/a	0	0	0	0.422607421875	0.5869140625	0	upper	zerothre.ttf
1342580	START	n/a	LTP265	ltpFR	11	n/a	n/a	n/a	n/a	n/a	n/a	n/a	n/a	n/a	n/a	n/a	n/a	n/a	n/a	n/a	n/a
1343415	PROB	n/a	LTP265	ltpFR	11	n/a	n/a	n/a	n/a	n/a	n/a	n/a	8	1	3	4	n/a	n/a	n/a	n/a	n/a
1345172	PROB	n/a	LTP265	ltpFR	11	n/a	n/a	n/a	n/a	n/a	n/a	n/a	16	5	4	7	n/a	n/a	n/a	n/a	n/a
1347759	PROB	n/a	LTP265	ltpFR	11	n/a	n/a	n/a	n/a	n/a	n/a	n/a	12	8	2	2	n/a	n/a	n/a	n/a	n/a
1348880	PROB	n/a	LTP265	ltpFR	11	n/a	n/a	n/a	n/a	n/a	n/a	n/a	12	1	3	8	n/a	n/a	n/a	n/a	n/a
1350576	PROB	n/a	LTP265	ltpFR	11	n/a	n/a	n/a	n/a	n/a	n/a	n/a	17	9	2	6	n/a	n/a	n/a	n/a	n/a
1352734	PROB	n/a	LTP265	ltpFR	11	n/a	n/a	n/a	n/a	n/a	n/a	n/a	14	4	5	5	n/a	n/a	n/a	n/a	n/a
1354624	PROB	n/a	LTP265	ltpFR	11	n/a	n/a	n/a	n/a	n/a	n/a	n/a	13	1	4	8	n/a	n/a	n/a	n/a	n/a
1356598	PROB	n/a	LTP265	ltpFR	11	n/a	n/a	n/a	n/a	n/a	n/a	n/a	15	4	3	8	n/a	n/a	n/a	n/a	n/a
1357973	STOP	n/a	LTP265	ltpFR	11	n/a	n/a	n/a	n/a	n/a	n/a	n/a	n/a	n/a	n/a	n/a	n/a	n/a	n/a	n/a	n/a
1359660	WORD	wordpools/wasnorm_wordpool_less_exclusions.txt	LTP265	ltpFR	11	7	1	PEDAL	1037	n/a	n/a	0	n/a	0	0	0	0.422607421875	0.5869140625	0	upper	zerothre.ttf
1362672	START	n/a	LTP265	ltpFR	11	n/a	n/a	n/a	n/a	n/a	n/a	n/a	n/a	n/a	n/a	n/a	n/a	n/a	n/a	n/a	n/a
1363842	PROB	n/a	LTP265	ltpFR	11	n/a	n/a	n/a	n/a	n/a	n/a	n/a	21	4	9	8	n/a	n/a	n/a	n/a	n/a
1366295	PROB	n/a	LTP265	ltpFR	11	n/a	n/a	n/a	n/a	n/a	n/a	n/a	11	2	5	4	n/a	n/a	n/a	n/a	n/a
1367757	PROB	n/a	LTP265	ltpFR	11	n/a	n/a	n/a	n/a	n/a	n/a	n/a	13	8	3	2	n/a	n/a	n/a	n/a	n/a
1369363	PROB	n/a	LTP265	ltpFR	11	n/a	n/a	n/a	n/a	n/a	n/a	n/a	16	3	6	7	n/a	n/a	n/a	n/a	n/a
1370953	PROB	n/a	LTP265	ltpFR	11	n/a	n/a	n/a	n/a	n/a	n/a	n/a	7	3	2	2	n/a	n/a	n/a	n/a	n/a
1372803	PROB	n/a	LTP265	ltpFR	11	n/a	n/a	n/a	n/a	n/a	n/a	n/a	25	7	9	9	n/a	n/a	n/a	n/a	n/a
1376801	PROB	n/a	LTP265	ltpFR	11	n/a	n/a	n/a	n/a	n/a	n/a	n/a	14	6	2	6	n/a	n/a	n/a	n/a	n/a
1378221	STOP	n/a	LTP265	ltpFR	11	n/a	n/a	n/a	n/a	n/a	n/a	n/a	n/a	n/a	n/a	n/a	n/a	n/a	n/a	n/a	n/a
1379786	WORD	wordpools/wasnorm_wordpool_less_exclusions.txt	LTP265	ltpFR	11	7	1	NAPKIN	937	n/a	n/a	0	n/a	0	0	0	0.422607421875	0.5869140625	0	upper	zerothre.ttf
1382798	START	n/a	LTP265	ltpFR	11	n/a	n/a	n/a	n/a	n/a	n/a	n/a	n/a	n/a	n/a	n/a	n/a	n/a	n/a	n/a	n/a
1383768	PROB	n/a	LTP265	ltpFR	11	n/a	n/a	n/a	n/a	n/a	n/a	n/a	13	8	4	1	n/a	n/a	n/a	n/a	n/a
1385250	PROB	n/a	LTP265	ltpFR	11	n/a	n/a	n/a	n/a	n/a	n/a	n/a	16	7	7	1	n/a	n/a	n/a	n/a	n/a
1387164	PROB	n/a	LTP265	ltpFR	11	n/a	n/a	n/a	n/a	n/a	n/a	n/a	9	3	1	2	n/a	n/a	n/a	n/a	n/a
1390794	PROB	n/a	LTP265	ltpFR	11	n/a	n/a	n/a	n/a	n/a	n/a	n/a	11	6	3	2	n/a	n/a	n/a	n/a	n/a
1392835	PROB	n/a	LTP265	ltpFR	11	n/a	n/a	n/a	n/a	n/a	n/a	n/a	9	5	2	2	n/a	n/a	n/a	n/a	n/a
1395020	PROB	n/a	LTP265	ltpFR	11	n/a	n/a	n/a	n/a	n/a	n/a	n/a	22	7	8	7	n/a	n/a	n/a	n/a	n/a
1397095	PROB	n/a	LTP265	ltpFR	11	n/a	n/a	n/a	n/a	n/a	n/a	n/a	20	8	3	9	n/a	n/a	n/a	n/a	n/a
1398701	STOP	n/a	LTP265	ltpFR	11	n/a	n/a	n/a	n/a	n/a	n/a	n/a	n/a	n/a	n/a	n/a	n/a	n/a	n/a	n/a	n/a
1399755	WORD	wordpools/wasnorm_wordpool_less_exclusions.txt	LTP265	ltpFR	11	7	1	CALENDAR	221	n/a	n/a	0	n/a	0	0	0	0.422607421875	0.5869140625	0	upper	zerothre.ttf
1402767	START	n/a	LTP265	ltpFR	11	n/a	n/a	n/a	n/a	n/a	n/a	n/a	n/a	n/a	n/a	n/a	n/a	n/a	n/a	n/a	n/a
1403904	PROB	n/a	LTP265	ltpFR	11	n/a	n/a	n/a	n/a	n/a	n/a	n/a	12	5	5	2	n/a	n/a	n/a	n/a	n/a
1405359	PROB	n/a	LTP265	ltpFR	11	n/a	n/a	n/a	n/a	n/a	n/a	n/a	12	4	3	5	n/a	n/a	n/a	n/a	n/a
1406972	PROB	n/a	LTP265	ltpFR	11	n/a	n/a	n/a	n/a	n/a	n/a	n/a	13	1	6	6	n/a	n/a	n/a	n/a	n/a
1409331	PROB	n/a	LTP265	ltpFR	11	n/a	n/a	n/a	n/a	n/a	n/a	n/a	18	9	6	3	n/a	n/a	n/a	n/a	n/a
1411014	PROB	n/a	LTP265	ltpFR	11	n/a	n/a	n/a	n/a	n/a	n/a	n/a	11	1	9	1	n/a	n/a	n/a	n/a	n/a
1412419	PROB	n/a	LTP265	ltpFR	11	n/a	n/a	n/a	n/a	n/a	n/a	n/a	24	9	8	7	n/a	n/a	n/a	n/a	n/a
1415046	PROB	n/a	LTP265	ltpFR	11	n/a	n/a	n/a	n/a	n/a	n/a	n/a	17	9	5	3	n/a	n/a	n/a	n/a	n/a
1417413	STOP	n/a	LTP265	ltpFR	11	n/a	n/a	n/a	n/a	n/a	n/a	n/a	n/a	n/a	n/a	n/a	n/a	n/a	n/a	n/a	n/a
1419971	WORD	wordpools/wasnorm_wordpool_less_exclusions.txt	LTP265	ltpFR	11	7	1	FIG	563	n/a	n/a	1	n/a	0	0	0	0.422607421875	0.5869140625	0	upper	zerothre.ttf
1422983	START	n/a	LTP265	ltpFR	11	n/a	n/a	n/a	n/a	n/a	n/a	n/a	n/a	n/a	n/a	n/a	n/a	n/a	n/a	n/a	n/a
1423952	PROB	n/a	LTP265	ltpFR	11	n/a	n/a	n/a	n/a	n/a	n/a	n/a	11	4	3	4	n/a	n/a	n/a	n/a	n/a
1425475	PROB	n/a	LTP265	ltpFR	11	n/a	n/a	n/a	n/a	n/a	n/a	n/a	15	9	5	1	n/a	n/a	n/a	n/a	n/a
1427800	PROB	n/a	LTP265	ltpFR	11	n/a	n/a	n/a	n/a	n/a	n/a	n/a	14	6	1	7	n/a	n/a	n/a	n/a	n/a
1430293	PROB	n/a	LTP265	ltpFR	11	n/a	n/a	n/a	n/a	n/a	n/a	n/a	15	5	3	7	n/a	n/a	n/a	n/a	n/a
1431815	PROB	n/a	LTP265	ltpFR	11	n/a	n/a	n/a	n/a	n/a	n/a	n/a	8	2	5	1	n/a	n/a	n/a	n/a	n/a
1433271	PROB	n/a	LTP265	ltpFR	11	n/a	n/a	n/a	n/a	n/a	n/a	n/a	17	4	8	5	n/a	n/a	n/a	n/a	n/a
1436232	PROB	n/a	LTP265	ltpFR	11	n/a	n/a	n/a	n/a	n/a	n/a	n/a	11	1	7	3	n/a	n/a	n/a	n/a	n/a
1437813	STOP	n/a	LTP265	ltpFR	11	n/a	n/a	n/a	n/a	n/a	n/a	n/a	n/a	n/a	n/a	n/a	n/a	n/a	n/a	n/a	n/a
1439996	WORD	wordpools/wasnorm_wordpool_less_exclusions.txt	LTP265	ltpFR	11	7	1	EAR	513	n/a	n/a	0	n/a	0	0	0	0.422607421875	0.5869140625	0	upper	zerothre.ttf
1443008	START	n/a	LTP265	ltpFR	11	n/a	n/a	n/a	n/a	n/a	n/a	n/a	n/a	n/a	n/a	n/a	n/a	n/a	n/a	n/a	n/a
1444195	PROB	n/a	LTP265	ltpFR	11	n/a	n/a	n/a	n/a	n/a	n/a	n/a	21	8	9	4	n/a	n/a	n/a	n/a	n/a
1445945	PROB	n/a	LTP265	ltpFR	11	n/a	n/a	n/a	n/a	n/a	n/a	n/a	17	4	9	4	n/a	n/a	n/a	n/a	n/a
1448221	PROB	n/a	LTP265	ltpFR	11	n/a	n/a	n/a	n/a	n/a	n/a	n/a	13	6	5	2	n/a	n/a	n/a	n/a	n/a
1449760	PROB	n/a	LTP265	ltpFR	11	n/a	n/a	n/a	n/a	n/a	n/a	n/a	12	1	7	4	n/a	n/a	n/a	n/a	n/a
1451483	PROB	n/a	LTP265	ltpFR	11	n/a	n/a	n/a	n/a	n/a	n/a	n/a	9	3	1	4	n/a	n/a	n/a	n/a	n/a
1453340	PROB	n/a	LTP265	ltpFR	11	n/a	n/a	n/a	n/a	n/a	n/a	n/a	21	9	9	3	n/a	n/a	n/a	n/a	n/a
1459008	STOP	n/a	LTP265	ltpFR	11	n/a	n/a	n/a	n/a	n/a	n/a	n/a	n/a	n/a	n/a	n/a	n/a	n/a	n/a	n/a	n/a
1460139	WORD	wordpools/wasnorm_wordpool_less_exclusions.txt	LTP265	ltpFR	11	7	1	CAMEL	223	n/a	n/a	1	n/a	0	0	0	0.422607421875	0.5869140625	0	upper	zerothre.ttf
1463151	START	n/a	LTP265	ltpFR	11	n/a	n/a	n/a	n/a	n/a	n/a	n/a	n/a	n/a	n/a	n/a	n/a	n/a	n/a	n/a	n/a
1464131	PROB	n/a	LTP265	ltpFR	11	n/a	n/a	n/a	n/a	n/a	n/a	n/a	8	4	2	2	n/a	n/a	n/a	n/a	n/a
1465810	PROB	n/a	LTP265	ltpFR	11	n/a	n/a	n/a	n/a	n/a	n/a	n/a	24	6	9	9	n/a	n/a	n/a	n/a	n/a
1468715	PROB	n/a	LTP265	ltpFR	11	n/a	n/a	n/a	n/a	n/a	n/a	n/a	20	7	7	6	n/a	n/a	n/a	n/a	n/a
1470578	PROB	n/a	LTP265	ltpFR	11	n/a	n/a	n/a	n/a	n/a	n/a	n/a	3	1	1	1	n/a	n/a	n/a	n/a	n/a
1471682	PROB	n/a	LTP265	ltpFR	11	n/a	n/a	n/a	n/a	n/a	n/a	n/a	13	1	3	9	n/a	n/a	n/a	n/a	n/a
1473706	PROB	n/a	LTP265	ltpFR	11	n/a	n/a	n/a	n/a	n/a	n/a	n/a	15	6	6	3	n/a	n/a	n/a	n/a	n/a
1476176	PROB	n/a	LTP265	ltpFR	11	n/a	n/a	n/a	n/a	n/a	n/a	n/a	14	4	4	5	n/a	n/a	n/a	n/a	n/a
1477949	STOP	n/a	LTP265	ltpFR	11	n/a	n/a	n/a	n/a	n/a	n/a	n/a	n/a	n/a	n/a	n/a	n/a	n/a	n/a	n/a	n/a
1480291	WORD	wordpools/wasnorm_wordpool_less_exclusions.txt	LTP265	ltpFR	11	7	1	MOSS	918	n/a	n/a	0	n/a	0	0	0	0.422607421875	0.5869140625	0	upper	zerothre.ttf
1483303	START	n/a	LTP265	ltpFR	11	n/a	n/a	n/a	n/a	n/a	n/a	n/a	n/a	n/a	n/a	n/a	n/a	n/a	n/a	n/a	n/a
1484464	PROB	n/a	LTP265	ltpFR	11	n/a	n/a	n/a	n/a	n/a	n/a	n/a	25	7	9	9	n/a	n/a	n/a	n/a	n/a
1489516	PROB	n/a	LTP265	ltpFR	11	n/a	n/a	n/a	n/a	n/a	n/a	n/a	18	6	5	7	n/a	n/a	n/a	n/a	n/a
1491484	PROB	n/a	LTP265	ltpFR	11	n/a	n/a	n/a	n/a	n/a	n/a	n/a	11	2	2	7	n/a	n/a	n/a	n/a	n/a
1492929	PROB	n/a	LTP265	ltpFR	11	n/a	n/a	n/a	n/a	n/a	n/a	n/a	10	1	4	5	n/a	n/a	n/a	n/a	n/a
1494478	PROB	n/a	LTP265	ltpFR	11	n/a	n/a	n/a	n/a	n/a	n/a	n/a	20	9	5	6	n/a	n/a	n/a	n/a	n/a
1496904	PROB	n/a	LTP265	ltpFR	11	n/a	n/a	n/a	n/a	n/a	n/a	n/a	19	7	5	7	n/a	n/a	n/a	n/a	n/a
1498821	STOP	n/a	LTP265	ltpFR	11	n/a	n/a	n/a	n/a	n/a	n/a	n/a	n/a	n/a	n/a	n/a	n/a	n/a	n/a	n/a	n/a
1500484	WORD	wordpools/wasnorm_wordpool_less_exclusions.txt	LTP265	ltpFR	11	7	1	CHIMPANZEE	302	n/a	n/a	1	n/a	0	0	0	0.422607421875	0.5869140625	0	upper	zerothre.ttf
1503496	START	n/a	LTP265	ltpFR	11	n/a	n/a	n/a	n/a	n/a	n/a	n/a	n/a	n/a	n/a	n/a	n/a	n/a	n/a	n/a	n/a
1504633	PROB	n/a	LTP265	ltpFR	11	n/a	n/a	n/a	n/a	n/a	n/a	n/a	15	2	6	7	n/a	n/a	n/a	n/a	n/a
1507176	PROB	n/a	LTP265	ltpFR	11	n/a	n/a	n/a	n/a	n/a	n/a	n/a	11	2	2	7	n/a	n/a	n/a	n/a	n/a
1508765	PROB	n/a	LTP265	ltpFR	11	n/a	n/a	n/a	n/a	n/a	n/a	n/a	12	4	3	5	n/a	n/a	n/a	n/a	n/a
1510254	PROB	n/a	LTP265	ltpFR	11	n/a	n/a	n/a	n/a	n/a	n/a	n/a	20	9	9	2	n/a	n/a	n/a	n/a	n/a
1512128	PROB	n/a	LTP265	ltpFR	11	n/a	n/a	n/a	n/a	n/a	n/a	n/a	17	5	9	3	n/a	n/a	n/a	n/a	n/a
1515062	PROB	n/a	LTP265	ltpFR	11	n/a	n/a	n/a	n/a	n/a	n/a	n/a	20	7	8	5	n/a	n/a	n/a	n/a	n/a
1516652	PROB	n/a	LTP265	ltpFR	11	n/a	n/a	n/a	n/a	n/a	n/a	n/a	17	6	7	4	n/a	n/a	n/a	n/a	n/a
1518749	STOP	n/a	LTP265	ltpFR	11	n/a	n/a	n/a	n/a	n/a	n/a	n/a	n/a	n/a	n/a	n/a	n/a	n/a	n/a	n/a	n/a
1520449	WORD	wordpools/wasnorm_wordpool_less_exclusions.txt	LTP265	ltpFR	11	7	1	TUB	1514	n/a	n/a	0	n/a	0	0	0	0.422607421875	0.5869140625	0	upper	zerothre.ttf
1523461	START	n/a	LTP265	ltpFR	11	n/a	n/a	n/a	n/a	n/a	n/a	n/a	n/a	n/a	n/a	n/a	n/a	n/a	n/a	n/a	n/a
1524491	PROB	n/a	LTP265	ltpFR	11	n/a	n/a	n/a	n/a	n/a	n/a	n/a	9	5	3	1	n/a	n/a	n/a	n/a	n/a
1525970	PROB	n/a	LTP265	ltpFR	11	n/a	n/a	n/a	n/a	n/a	n/a	n/a	20	5	8	7	n/a	n/a	n/a	n/a	n/a
1528423	PROB	n/a	LTP265	ltpFR	11	n/a	n/a	n/a	n/a	n/a	n/a	n/a	14	1	4	8	n/a	n/a	n/a	n/a	n/a
1530330	PROB	n/a	LTP265	ltpFR	11	n/a	n/a	n/a	n/a	n/a	n/a	n/a	9	1	6	2	n/a	n/a	n/a	n/a	n/a
1532210	PROB	n/a	LTP265	ltpFR	11	n/a	n/a	n/a	n/a	n/a	n/a	n/a	21	8	4	9	n/a	n/a	n/a	n/a	n/a
1534011	PROB	n/a	LTP265	ltpFR	11	n/a	n/a	n/a	n/a	n/a	n/a	n/a	18	4	8	6	n/a	n/a	n/a	n/a	n/a
1536135	PROB	n/a	LTP265	ltpFR	11	n/a	n/a	n/a	n/a	n/a	n/a	n/a	21	6	8	7	n/a	n/a	n/a	n/a	n/a
1538253	STOP	n/a	LTP265	ltpFR	11	n/a	n/a	n/a	n/a	n/a	n/a	n/a	n/a	n/a	n/a	n/a	n/a	n/a	n/a	n/a	n/a
1540542	WORD	wordpools/wasnorm_wordpool_less_exclusions.txt	LTP265	ltpFR	11	7	1	REEF	1177	n/a	n/a	0	n/a	0	0	0	0.422607421875	0.5869140625	0	upper	zerothre.ttf
1543554	START	n/a	LTP265	ltpFR	11	n/a	n/a	n/a	n/a	n/a	n/a	n/a	n/a	n/a	n/a	n/a	n/a	n/a	n/a	n/a	n/a
1544484	PROB	n/a	LTP265	ltpFR	11	n/a	n/a	n/a	n/a	n/a	n/a	n/a	17	6	7	4	n/a	n/a	n/a	n/a	n/a
1546375	PROB	n/a	LTP265	ltpFR	11	n/a	n/a	n/a	n/a	n/a	n/a	n/a	11	6	2	3	n/a	n/a	n/a	n/a	n/a
1547930	PROB	n/a	LTP265	ltpFR	11	n/a	n/a	n/a	n/a	n/a	n/a	n/a	11	6	1	4	n/a	n/a	n/a	n/a	n/a
1550390	PROB	n/a	LTP265	ltpFR	11	n/a	n/a	n/a	n/a	n/a	n/a	n/a	10	3	2	5	n/a	n/a	n/a	n/a	n/a
1552112	PROB	n/a	LTP265	ltpFR	11	n/a	n/a	n/a	n/a	n/a	n/a	n/a	12	1	5	6	n/a	n/a	n/a	n/a	n/a
1553685	PROB	n/a	LTP265	ltpFR	11	n/a	n/a	n/a	n/a	n/a	n/a	n/a	18	6	3	9	n/a	n/a	n/a	n/a	n/a
1556268	PROB	n/a	LTP265	ltpFR	11	n/a	n/a	n/a	n/a	n/a	n/a	n/a	24	6	9	9	n/a	n/a	n/a	n/a	n/a
1558749	STOP	n/a	LTP265	ltpFR	11	n/a	n/a	n/a	n/a	n/a	n/a	n/a	n/a	n/a	n/a	n/a	n/a	n/a	n/a	n/a	n/a
1560578	WORD	wordpools/wasnorm_wordpool_less_exclusions.txt	LTP265	ltpFR	11	7	1	SIBLING	1301	n/a	n/a	1	n/a	0	0	0	0.422607421875	0.5869140625	0	upper	zerothre.ttf
1563596	START	n/a	LTP265	ltpFR	11	n/a	n/a	n/a	n/a	n/a	n/a	n/a	n/a	n/a	n/a	n/a	n/a	n/a	n/a	n/a	n/a
1564515	PROB	n/a	LTP265	ltpFR	11	n/a	n/a	n/a	n/a	n/a	n/a	n/a	24	8	9	7	n/a	n/a	n/a	n/a	n/a
1566433	PROB	n/a	LTP265	ltpFR	11	n/a	n/a	n/a	n/a	n/a	n/a	n/a	17	9	7	1	n/a	n/a	n/a	n/a	n/a
1568648	PROB	n/a	LTP265	ltpFR	11	n/a	n/a	n/a	n/a	n/a	n/a	n/a	16	5	2	9	n/a	n/a	n/a	n/a	n/a
1570304	PROB	n/a	LTP265	ltpFR	11	n/a	n/a	n/a	n/a	n/a	n/a	n/a	17	7	3	7	n/a	n/a	n/a	n/a	n/a
1571810	PROB	n/a	LTP265	ltpFR	11	n/a	n/a	n/a	n/a	n/a	n/a	n/a	10	4	3	3	n/a	n/a	n/a	n/a	n/a
1573483	PROB	n/a	LTP265	ltpFR	11	n/a	n/a	n/a	n/a	n/a	n/a	n/a	9	1	5	3	n/a	n/a	n/a	n/a	n/a
1575249	PROB	n/a	LTP265	ltpFR	11	n/a	n/a	n/a	n/a	n/a	n/a	n/a	10	3	2	5	n/a	n/a	n/a	n/a	n/a
1576872	PROB	n/a	LTP265	ltpFR	11	n/a	n/a	n/a	n/a	n/a	n/a	n/a	10	7	2	1	n/a	n/a	n/a	n/a	n/a
1578309	STOP	n/a	LTP265	ltpFR	11	n/a	n/a	n/a	n/a	n/a	n/a	n/a	n/a	n/a	n/a	n/a	n/a	n/a	n/a	n/a	n/a
1580586	WORD	wordpools/wasnorm_wordpool_less_exclusions.txt	LTP265	ltpFR	11	7	1	DICE	461	n/a	n/a	0	n/a	0	0	0	0.422607421875	0.5869140625	0	upper	zerothre.ttf
1583598	START	n/a	LTP265	ltpFR	11	n/a	n/a	n/a	n/a	n/a	n/a	n/a	n/a	n/a	n/a	n/a	n/a	n/a	n/a	n/a	n/a
1584568	PROB	n/a	LTP265	ltpFR	11	n/a	n/a	n/a	n/a	n/a	n/a	n/a	14	6	5	3	n/a	n/a	n/a	n/a	n/a
1586376	PROB	n/a	LTP265	ltpFR	11	n/a	n/a	n/a	n/a	n/a	n/a	n/a	12	1	3	8	n/a	n/a	n/a	n/a	n/a
1588400	PROB	n/a	LTP265	ltpFR	11	n/a	n/a	n/a	n/a	n/a	n/a	n/a	12	4	4	4	n/a	n/a	n/a	n/a	n/a
1589537	PROB	n/a	LTP265	ltpFR	11	n/a	n/a	n/a	n/a	n/a	n/a	n/a	19	2	8	9	n/a	n/a	n/a	n/a	n/a
1591199	PROB	n/a	LTP265	ltpFR	11	n/a	n/a	n/a	n/a	n/a	n/a	n/a	8	2	5	1	n/a	n/a	n/a	n/a	n/a
1592849	PROB	n/a	LTP265	ltpFR	11	n/a	n/a	n/a	n/a	n/a	n/a	n/a	18	7	8	3	n/a	n/a	n/a	n/a	n/a
1594706	PROB	n/a	LTP265	ltpFR	11	n/a	n/a	n/a	n/a	n/a	n/a	n/a	17	2	9	6	n/a	n/a	n/a	n/a	n/a
1596670	PROB	n/a	LTP265	ltpFR	11	n/a	n/a	n/a	n/a	n/a	n/a	n/a	20	8	6	6	n/a	n/a	n/a	n/a	n/a
1598341	STOP	n/a	LTP265	ltpFR	11	n/a	n/a	n/a	n/a	n/a	n/a	n/a	n/a	n/a	n/a	n/a	n/a	n/a	n/a	n/a	n/a
1600812	WORD	wordpools/wasnorm_wordpool_less_exclusions.txt	LTP265	ltpFR	11	7	1	VOLLEYBALL	1576	n/a	n/a	0	n/a	0	0	0	0.422607421875	0.5869140625	0	upper	zerothre.ttf
1603824	START	n/a	LTP265	ltpFR	11	n/a	n/a	n/a	n/a	n/a	n/a	n/a	n/a	n/a	n/a	n/a	n/a	n/a	n/a	n/a	n/a
1604811	PROB	n/a	LTP265	ltpFR	11	n/a	n/a	n/a	n/a	n/a	n/a	n/a	12	7	3	2	n/a	n/a	n/a	n/a	n/a
1606066	PROB	n/a	LTP265	ltpFR	11	n/a	n/a	n/a	n/a	n/a	n/a	n/a	9	2	1	6	n/a	n/a	n/a	n/a	n/a
1607395	PROB	n/a	LTP265	ltpFR	11	n/a	n/a	n/a	n/a	n/a	n/a	n/a	5	1	1	3	n/a	n/a	n/a	n/a	n/a
1608558	PROB	n/a	LTP265	ltpFR	11	n/a	n/a	n/a	n/a	n/a	n/a	n/a	16	1	7	8	n/a	n/a	n/a	n/a	n/a
1610047	PROB	n/a	LTP265	ltpFR	11	n/a	n/a	n/a	n/a	n/a	n/a	n/a	12	6	3	3	n/a	n/a	n/a	n/a	n/a
1611994	PROB	n/a	LTP265	ltpFR	11	n/a	n/a	n/a	n/a	n/a	n/a	n/a	17	5	3	9	n/a	n/a	n/a	n/a	n/a
1613701	PROB	n/a	LTP265	ltpFR	11	n/a	n/a	n/a	n/a	n/a	n/a	n/a	15	4	6	5	n/a	n/a	n/a	n/a	n/a
1615049	PROB	n/a	LTP265	ltpFR	11	n/a	n/a	n/a	n/a	n/a	n/a	n/a	11	2	1	7	n/a	n/a	n/a	n/a	n/a
1616612	PROB	n/a	LTP265	ltpFR	11	n/a	n/a	n/a	n/a	n/a	n/a	n/a	13	7	5	1	n/a	n/a	n/a	n/a	n/a
1618797	STOP	n/a	LTP265	ltpFR	11	n/a	n/a	n/a	n/a	n/a	n/a	n/a	n/a	n/a	n/a	n/a	n/a	n/a	n/a	n/a	n/a
1621715	REC_START	n/a	LTP265	ltpFR	11	7	n/a	n/a	n/a	n/a	n/a	n/a	n/a	0	0	0	n/a	n/a	n/a	n/a	n/a
1623731	REC_WORD	wordpools/wasnorm_wordpool_less_exclusions.txt	LTP265	ltpFR	11	7	1	VOLLEYBALL	1576	n/a	n/a	0	n/a	0	0	0	n/a	n/a	n/a	n/a	n/a
1627098	REC_WORD	wordpools/wasnorm_wordpool_less_exclusions.txt	LTP265	ltpFR	11	7	1	PEDAL	1037	n/a	n/a	0	n/a	0	0	0	n/a	n/a	n/a	n/a	n/a
1628110	REC_WORD	wordpools/wasnorm_wordpool_less_exclusions.txt	LTP265	ltpFR	11	7	1	BIKE	125	n/a	n/a	0	n/a	0	0	0	n/a	n/a	n/a	n/a	n/a
1630102	REC_WORD	wordpools/wasnorm_wordpool_less_exclusions.txt	LTP265	ltpFR	11	7	1	ZOO	1637	n/a	n/a	1	n/a	0	0	0	n/a	n/a	n/a	n/a	n/a
1635469	REC_WORD	wordpools/wasnorm_wordpool_less_exclusions.txt	LTP265	ltpFR	11	7	n/a	DOCUMENT	479	n/a	n/a	n/a	n/a	0	0	0	n/a	n/a	n/a	n/a	n/a
1638498	REC_WORD	wordpools/wasnorm_wordpool_less_exclusions.txt	LTP265	ltpFR	11	7	1	FIG	563	n/a	n/a	1	n/a	0	0	0	n/a	n/a	n/a	n/a	n/a
1639401	REC_WORD	wordpools/wasnorm_wordpool_less_exclusions.txt	LTP265	ltpFR	11	7	1	NAPKIN	937	n/a	n/a	0	n/a	0	0	0	n/a	n/a	n/a	n/a	n/a
1676219	REC_WORD	wordpools/wasnorm_wordpool_less_exclusions.txt	LTP265	ltpFR	11	7	1	MOSS	918	n/a	n/a	0	n/a	0	0	0	n/a	n/a	n/a	n/a	n/a
1686061	REC_WORD	wordpools/wasnorm_wordpool_less_exclusions.txt	LTP265	ltpFR	11	7	1	SIBLING	1301	n/a	n/a	1	n/a	0	0	0	n/a	n/a	n/a	n/a	n/a
1705463	WORD	wordpools/wasnorm_wordpool_less_exclusions.txt	LTP265	ltpFR	11	8	0	BUTLER	204	n/a	n/a	1	n/a	0	0	0	0.57763671875	0.412841796875	1	lower	amplitud.ttf
1709439	WORD	wordpools/wasnorm_wordpool_less_exclusions.txt	LTP265	ltpFR	11	8	0	PIT	1077	n/a	n/a	1	n/a	0	0	0	0.57763671875	0.412841796875	1	lower	amplitud.ttf
1713437	WORD	wordpools/wasnorm_wordpool_less_exclusions.txt	LTP265	ltpFR	11	8	0	RAFT	1159	n/a	n/a	1	n/a	0	0	0	0.57763671875	0.412841796875	1	lower	amplitud.ttf
1717502	WORD	wordpools/wasnorm_wordpool_less_exclusions.txt	LTP265	ltpFR	11	8	0	RIVER	1194	n/a	n/a	1	n/a	0	0	0	0.57763671875	0.412841796875	1	lower	amplitud.ttf
1721634	WORD	wordpools/wasnorm_wordpool_less_exclusions.txt	LTP265	ltpFR	11	8	0	OTTER	986	n/a	n/a	1	n/a	0	0	0	0.57763671875	0.412841796875	1	lower	amplitud.ttf
1725673	WORD	wordpools/wasnorm_wordpool_less_exclusions.txt	LTP265	ltpFR	11	8	0	WALL	1582	n/a	n/a	1	n/a	0	0	0	0.57763671875	0.412841796875	1	lower	amplitud.ttf
1729815	WORD	wordpools/wasnorm_wordpool_less_exclusions.txt	LTP265	ltpFR	11	8	0	DONKEY	484	n/a	n/a	1	n/a	0	0	0	0.57763671875	0.412841796875	1	lower	amplitud.ttf
1733814	WORD	wordpools/wasnorm_wordpool_less_exclusions.txt	LTP265	ltpFR	11	8	0	WATER	1594	n/a	n/a	1	n/a	0	0	0	0.57763671875	0.412841796875	1	lower	amplitud.ttf
1737668	WORD	wordpools/wasnorm_wordpool_less_exclusions.txt	LTP265	ltpFR	11	8	0	BATHROOM	99	n/a	n/a	1	n/a	0	0	0	0.57763671875	0.412841796875	1	lower	amplitud.ttf
1741817	WORD	wordpools/wasnorm_wordpool_less_exclusions.txt	LTP265	ltpFR	11	8	0	COOK	372	n/a	n/a	1	n/a	0	0	0	0.57763671875	0.412841796875	1	lower	amplitud.ttf
1745799	WORD	wordpools/wasnorm_wordpool_less_exclusions.txt	LTP265	ltpFR	11	8	0	ESSAY	540	n/a	n/a	1	n/a	0	0	0	0.57763671875	0.412841796875	1	lower	amplitud.ttf
1750015	WORD	wordpools/wasnorm_wordpool_less_exclusions.txt	LTP265	ltpFR	11	8	0	SIRLOIN	1311	n/a	n/a	0	n/a	0	0	0	0.57763671875	0.412841796875	1	lower	amplitud.ttf
1754214	WORD	wordpools/wasnorm_wordpool_less_exclusions.txt	LTP265	ltpFR	11	8	0	BUN	197	n/a	n/a	0	n/a	0	0	0	0.57763671875	0.412841796875	1	lower	amplitud.ttf
1758380	WORD	wordpools/wasnorm_wordpool_less_exclusions.txt	LTP265	ltpFR	11	8	0	PADDING	999	n/a	n/a	1	n/a	0	0	0	0.57763671875	0.412841796875	1	lower	amplitud.ttf
1762528	WORD	wordpools/wasnorm_wordpool_less_exclusions.txt	LTP265	ltpFR	11	8	0	COLUMN	350	n/a	n/a	1	n/a	0	0	0	0.57763671875	0.412841796875	1	lower	amplitud.ttf
1766687	WORD	wordpools/wasnorm_wordpool_less_exclusions.txt	LTP265	ltpFR	11	8	0	MAGAZINE	853	n/a	n/a	1	n/a	0	0	0	0.57763671875	0.412841796875	1	lower	amplitud.ttf
1769699	START	n/a	LTP265	ltpFR	11	n/a	n/a	n/a	n/a	n/a	n/a	n/a	n/a	n/a	n/a	n/a	n/a	n/a	n/a	n/a	n/a
1770810	PROB	n/a	LTP265	ltpFR	11	n/a	n/a	n/a	n/a	n/a	n/a	n/a	14	9	3	2	n/a	n/a	n/a	n/a	n/a
1773246	PROB	n/a	LTP265	ltpFR	11	n/a	n/a	n/a	n/a	n/a	n/a	n/a	19	6	7	6	n/a	n/a	n/a	n/a	n/a
1774852	PROB	n/a	LTP265	ltpFR	11	n/a	n/a	n/a	n/a	n/a	n/a	n/a	10	4	1	5	n/a	n/a	n/a	n/a	n/a
1776645	STOP	n/a	LTP265	ltpFR	11	n/a	n/a	n/a	n/a	n/a	n/a	n/a	n/a	n/a	n/a	n/a	n/a	n/a	n/a	n/a	n/a
1779620	REC_START	n/a	LTP265	ltpFR	11	8	n/a	n/a	n/a	n/a	n/a	n/a	n/a	0	0	0	n/a	n/a	n/a	n/a	n/a
1780992	REC_WORD	wordpools/wasnorm_wordpool_less_exclusions.txt	LTP265	ltpFR	11	8	0	OTTER	986	n/a	n/a	1	n/a	0	0	0	n/a	n/a	n/a	n/a	n/a
1782137	REC_WORD	wordpools/wasnorm_wordpool_less_exclusions.txt	LTP265	ltpFR	11	8	0	RIVER	1194	n/a	n/a	1	n/a	0	0	0	n/a	n/a	n/a	n/a	n/a
1783192	REC_WORD	wordpools/wasnorm_wordpool_less_exclusions.txt	LTP265	ltpFR	11	8	0	RAFT	1159	n/a	n/a	1	n/a	0	0	0	n/a	n/a	n/a	n/a	n/a
1784207	REC_WORD	wordpools/wasnorm_wordpool_less_exclusions.txt	LTP265	ltpFR	11	8	0	WATER	1594	n/a	n/a	1	n/a	0	0	0	n/a	n/a	n/a	n/a	n/a
1785262	REC_WORD	wordpools/wasnorm_wordpool_less_exclusions.txt	LTP265	ltpFR	11	8	0	BATHROOM	99	n/a	n/a	1	n/a	0	0	0	n/a	n/a	n/a	n/a	n/a
1786388	REC_WORD	wordpools/wasnorm_wordpool_less_exclusions.txt	LTP265	ltpFR	11	8	0	BUTLER	204	n/a	n/a	1	n/a	0	0	0	n/a	n/a	n/a	n/a	n/a
1787308	REC_WORD	wordpools/wasnorm_wordpool_less_exclusions.txt	LTP265	ltpFR	11	8	0	COOK	372	n/a	n/a	1	n/a	0	0	0	n/a	n/a	n/a	n/a	n/a
1788351	REC_WORD	wordpools/wasnorm_wordpool_less_exclusions.txt	LTP265	ltpFR	11	8	0	SIRLOIN	1311	n/a	n/a	0	n/a	0	0	0	n/a	n/a	n/a	n/a	n/a
1791555	REC_WORD	wordpools/wasnorm_wordpool_less_exclusions.txt	LTP265	ltpFR	11	8	0	COLUMN	350	n/a	n/a	1	n/a	0	0	0	n/a	n/a	n/a	n/a	n/a
1792783	REC_WORD	wordpools/wasnorm_wordpool_less_exclusions.txt	LTP265	ltpFR	11	8	0	MAGAZINE	853	n/a	n/a	1	n/a	0	0	0	n/a	n/a	n/a	n/a	n/a
1796325	REC_WORD	wordpools/wasnorm_wordpool_less_exclusions.txt	LTP265	ltpFR	11	8	0	ESSAY	540	n/a	n/a	1	n/a	0	0	0	n/a	n/a	n/a	n/a	n/a
1802983	REC_WORD	wordpools/wasnorm_wordpool_less_exclusions.txt	LTP265	ltpFR	11	8	0	DONKEY	484	n/a	n/a	1	n/a	0	0	0	n/a	n/a	n/a	n/a	n/a
1816074	REC_WORD	wordpools/wasnorm_wordpool_less_exclusions.txt	LTP265	ltpFR	11	8	0	PIT	1077	n/a	n/a	1	n/a	0	0	0	n/a	n/a	n/a	n/a	n/a
1862840	WORD	wordpools/wasnorm_wordpool_less_exclusions.txt	LTP265	ltpFR	11	9	1	CONTRACTOR	369	n/a	n/a	1	n/a	0	0	0	0.422607421875	0.5869140625	0	upper	zerothre.ttf
1866671	WORD	wordpools/wasnorm_wordpool_less_exclusions.txt	LTP265	ltpFR	11	9	1	CROCODILE	411	n/a	n/a	1	n/a	0	0	0	0.422607421875	0.5869140625	0	upper	zerothre.ttf
1870853	WORD	wordpools/wasnorm_wordpool_less_exclusions.txt	LTP265	ltpFR	11	9	1	INTESTINE	742	n/a	n/a	0	n/a	0	0	0	0.422607421875	0.5869140625	0	upper	zerothre.ttf
1874728	WORD	wordpools/wasnorm_wordpool_less_exclusions.txt	LTP265	ltpFR	11	9	1	VEAL	1551	n/a	n/a	0	n/a	0	0	0	0.422607421875	0.5869140625	0	upper	zerothre.ttf
1878800	WORD	wordpools/wasnorm_wordpool_less_exclusions.txt	LTP265	ltpFR	11	9	1	BARREL	91	n/a	n/a	0	n/a	0	0	0	0.422607421875	0.5869140625	0	upper	zerothre.ttf
1882731	WORD	wordpools/wasnorm_wordpool_less_exclusions.txt	LTP265	ltpFR	11	9	1	BEE	112	n/a	n/a	1	n/a	0	0	0	0.422607421875	0.5869140625	0	upper	zerothre.ttf
1886773	WORD	wordpools/wasnorm_wordpool_less_exclusions.txt	LTP265	ltpFR	11	9	1	DIPLOMA	470	n/a	n/a	0	n/a	0	0	0	0.422607421875	0.5869140625	0	upper	zerothre.ttf
1890845	WORD	wordpools/wasnorm_wordpool_less_exclusions.txt	LTP265	ltpFR	11	9	1	BOULEVARD	156	n/a	n/a	0	n/a	0	0	0	0.422607421875	0.5869140625	0	upper	zerothre.ttf
1894888	WORD	wordpools/wasnorm_wordpool_less_exclusions.txt	LTP265	ltpFR	11	9	1	DOVE	491	n/a	n/a	1	n/a	0	0	0	0.422607421875	0.5869140625	0	upper	zerothre.ttf
1898825	WORD	wordpools/wasnorm_wordpool_less_exclusions.txt	LTP265	ltpFR	11	9	1	WASP	1593	n/a	n/a	1	n/a	0	0	0	0.422607421875	0.5869140625	0	upper	zerothre.ttf
1902841	WORD	wordpools/wasnorm_wordpool_less_exclusions.txt	LTP265	ltpFR	11	9	1	REGISTER	1180	n/a	n/a	0	n/a	0	0	0	0.422607421875	0.5869140625	0	upper	zerothre.ttf
1906688	WORD	wordpools/wasnorm_wordpool_less_exclusions.txt	LTP265	ltpFR	11	9	1	BANKER	84	n/a	n/a	1	n/a	0	0	0	0.422607421875	0.5869140625	0	upper	zerothre.ttf
1910915	WORD	wordpools/wasnorm_wordpool_less_exclusions.txt	LTP265	ltpFR	11	9	1	PUB	1135	n/a	n/a	0	n/a	0	0	0	0.422607421875	0.5869140625	0	upper	zerothre.ttf
1915087	WORD	wordpools/wasnorm_wordpool_less_exclusions.txt	LTP265	ltpFR	11	9	1	DEPARTMENT	449	n/a	n/a	0	n/a	0	0	0	0.422607421875	0.5869140625	0	upper	zerothre.ttf
1918978	WORD	wordpools/wasnorm_wordpool_less_exclusions.txt	LTP265	ltpFR	11	9	1	POOL	1103	n/a	n/a	0	n/a	0	0	0	0.422607421875	0.5869140625	0	upper	zerothre.ttf
1922849	WORD	wordpools/wasnorm_wordpool_less_exclusions.txt	LTP265	ltpFR	11	9	1	WATERFALL	1595	n/a	n/a	0	n/a	0	0	0	0.422607421875	0.5869140625	0	upper	zerothre.ttf
1925861	START	n/a	LTP265	ltpFR	11	n/a	n/a	n/a	n/a	n/a	n/a	n/a	n/a	n/a	n/a	n/a	n/a	n/a	n/a	n/a	n/a
1926931	PROB	n/a	LTP265	ltpFR	11	n/a	n/a	n/a	n/a	n/a	n/a	n/a	9	2	2	5	n/a	n/a	n/a	n/a	n/a
1929357	PROB	n/a	LTP265	ltpFR	11	n/a	n/a	n/a	n/a	n/a	n/a	n/a	10	4	2	4	n/a	n/a	n/a	n/a	n/a
1930806	PROB	n/a	LTP265	ltpFR	11	n/a	n/a	n/a	n/a	n/a	n/a	n/a	18	8	6	4	n/a	n/a	n/a	n/a	n/a
1932268	PROB	n/a	LTP265	ltpFR	11	n/a	n/a	n/a	n/a	n/a	n/a	n/a	17	9	1	7	n/a	n/a	n/a	n/a	n/a
1933951	PROB	n/a	LTP265	ltpFR	11	n/a	n/a	n/a	n/a	n/a	n/a	n/a	14	9	1	4	n/a	n/a	n/a	n/a	n/a
1935765	PROB	n/a	LTP265	ltpFR	11	n/a	n/a	n/a	n/a	n/a	n/a	n/a	21	8	6	7	n/a	n/a	n/a	n/a	n/a
1937933	PROB	n/a	LTP265	ltpFR	11	n/a	n/a	n/a	n/a	n/a	n/a	n/a	22	9	9	4	n/a	n/a	n/a	n/a	n/a
1939495	PROB	n/a	LTP265	ltpFR	11	n/a	n/a	n/a	n/a	n/a	n/a	n/a	10	3	3	6	n/a	n/a	n/a	n/a	n/a
1941093	STOP	n/a	LTP265	ltpFR	11	n/a	n/a	n/a	n/a	n/a	n/a	n/a	n/a	n/a	n/a	n/a	n/a	n/a	n/a	n/a	n/a
1943679	REC_START	n/a	LTP265	ltpFR	11	9	n/a	n/a	n/a	n/a	n/a	n/a	n/a	0	0	0	n/a	n/a	n/a	n/a	n/a
1946569	REC_WORD	wordpools/wasnorm_wordpool_less_exclusions.txt	LTP265	ltpFR	11	9	1	WATERFALL	1595	n/a	n/a	0	n/a	0	0	0	n/a	n/a	n/a	n/a	n/a
1951093	REC_WORD	wordpools/wasnorm_wordpool_less_exclusions.txt	LTP265	ltpFR	11	9	1	CONTRACTOR	369	n/a	n/a	1	n/a	0	0	0	n/a	n/a	n/a	n/a	n/a
1957496	REC_WORD	wordpools/wasnorm_wordpool_less_exclusions.txt	LTP265	ltpFR	11	9	1	DOVE	491	n/a	n/a	1	n/a	0	0	0	n/a	n/a	n/a	n/a	n/a
1959297	REC_WORD	wordpools/wasnorm_wordpool_less_exclusions.txt	LTP265	ltpFR	11	9	1	BEE	112	n/a	n/a	1	n/a	0	0	0	n/a	n/a	n/a	n/a	n/a
1960112	REC_WORD	wordpools/wasnorm_wordpool_less_exclusions.txt	LTP265	ltpFR	11	9	1	WASP	1593	n/a	n/a	1	n/a	0	0	0	n/a	n/a	n/a	n/a	n/a
2024091	WORD	wordpools/wasnorm_wordpool_less_exclusions.txt	LTP265	ltpFR	11	10	1	VENT	1556	n/a	n/a	0	n/a	0	0	0	0.422607421875	0.5869140625	0	upper	zerothre.ttf
2028029	WORD	wordpools/wasnorm_wordpool_less_exclusions.txt	LTP265	ltpFR	11	10	1	BALLOON	75	n/a	n/a	0	n/a	0	0	0	0.422607421875	0.5869140625	0	upper	zerothre.ttf
2032105	WORD	wordpools/wasnorm_wordpool_less_exclusions.txt	LTP265	ltpFR	11	10	0	BEETLE	116	n/a	n/a	0	n/a	0	0	0	0.57763671875	0.412841796875	1	lower	amplitud.ttf
2036036	WORD	wordpools/wasnorm_wordpool_less_exclusions.txt	LTP265	ltpFR	11	10	0	SLUG	1329	n/a	n/a	0	n/a	0	0	0	0.57763671875	0.412841796875	1	lower	amplitud.ttf
2040218	WORD	wordpools/wasnorm_wordpool_less_exclusions.txt	LTP265	ltpFR	11	10	0	LOCK	838	n/a	n/a	0	n/a	0	0	0	0.57763671875	0.412841796875	1	lower	amplitud.ttf
2044257	WORD	wordpools/wasnorm_wordpool_less_exclusions.txt	LTP265	ltpFR	11	10	0	RACCOON	1153	n/a	n/a	1	n/a	0	0	0	0.57763671875	0.412841796875	1	lower	amplitud.ttf
2048299	WORD	wordpools/wasnorm_wordpool_less_exclusions.txt	LTP265	ltpFR	11	10	1	AIRCRAFT	11	n/a	n/a	0	n/a	0	0	0	0.422607421875	0.5869140625	0	upper	zerothre.ttf
2052337	WORD	wordpools/wasnorm_wordpool_less_exclusions.txt	LTP265	ltpFR	11	10	1	RODENT	1204	n/a	n/a	1	n/a	0	0	0	0.422607421875	0.5869140625	0	upper	zerothre.ttf
2056352	WORD	wordpools/wasnorm_wordpool_less_exclusions.txt	LTP265	ltpFR	11	10	0	MAT	877	n/a	n/a	0	n/a	0	0	0	0.57763671875	0.412841796875	1	lower	amplitud.ttf
2060568	WORD	wordpools/wasnorm_wordpool_less_exclusions.txt	LTP265	ltpFR	11	10	0	RUNNER	1218	n/a	n/a	1	n/a	0	0	0	0.57763671875	0.412841796875	1	lower	amplitud.ttf
2064533	WORD	wordpools/wasnorm_wordpool_less_exclusions.txt	LTP265	ltpFR	11	10	0	MOUSE	925	n/a	n/a	0	n/a	0	0	0	0.57763671875	0.412841796875	1	lower	amplitud.ttf
2068559	WORD	wordpools/wasnorm_wordpool_less_exclusions.txt	LTP265	ltpFR	11	10	0	DRUM	502	n/a	n/a	1	n/a	0	0	0	0.57763671875	0.412841796875	1	lower	amplitud.ttf
2072580	WORD	wordpools/wasnorm_wordpool_less_exclusions.txt	LTP265	ltpFR	11	10	1	RADIO	1157	n/a	n/a	0	n/a	0	0	0	0.422607421875	0.5869140625	0	upper	zerothre.ttf
2076672	WORD	wordpools/wasnorm_wordpool_less_exclusions.txt	LTP265	ltpFR	11	10	1	POLICE	1098	n/a	n/a	1	n/a	0	0	0	0.422607421875	0.5869140625	0	upper	zerothre.ttf
2080838	WORD	wordpools/wasnorm_wordpool_less_exclusions.txt	LTP265	ltpFR	11	10	1	CASTLE	256	n/a	n/a	0	n/a	0	0	0	0.422607421875	0.5869140625	0	upper	zerothre.ttf
2084904	WORD	wordpools/wasnorm_wordpool_less_exclusions.txt	LTP265	ltpFR	11	10	1	CHESS	294	n/a	n/a	0	n/a	0	0	0	0.422607421875	0.5869140625	0	upper	zerothre.ttf
2090649	REC_START	n/a	LTP265	ltpFR	11	10	n/a	n/a	n/a	n/a	n/a	n/a	n/a	0	0	0	n/a	n/a	n/a	n/a	n/a
2091468	REC_WORD	wordpools/wasnorm_wordpool_less_exclusions.txt	LTP265	ltpFR	11	10	1	CHESS	294	n/a	n/a	0	n/a	0	0	0	n/a	n/a	n/a	n/a	n/a
2092646	REC_WORD	wordpools/wasnorm_wordpool_less_exclusions.txt	LTP265	ltpFR	11	10	1	CASTLE	256	n/a	n/a	0	n/a	0	0	0	n/a	n/a	n/a	n/a	n/a
2093868	REC_WORD	wordpools/wasnorm_wordpool_less_exclusions.txt	LTP265	ltpFR	11	10	0	BEETLE	116	n/a	n/a	0	n/a	0	0	0	n/a	n/a	n/a	n/a	n/a
2094793	REC_WORD	wordpools/wasnorm_wordpool_less_exclusions.txt	LTP265	ltpFR	11	10	0	SLUG	1329	n/a	n/a	0	n/a	0	0	0	n/a	n/a	n/a	n/a	n/a
2095838	REC_WORD	wordpools/wasnorm_wordpool_less_exclusions.txt	LTP265	ltpFR	11	10	0	RACCOON	1153	n/a	n/a	1	n/a	0	0	0	n/a	n/a	n/a	n/a	n/a
2102721	REC_WORD	wordpools/wasnorm_wordpool_less_exclusions.txt	LTP265	ltpFR	11	10	0	DRUM	502	n/a	n/a	1	n/a	0	0	0	n/a	n/a	n/a	n/a	n/a
2106633	REC_WORD	wordpools/wasnorm_wordpool_less_exclusions.txt	LTP265	ltpFR	11	10	1	BALLOON	75	n/a	n/a	0	n/a	0	0	0	n/a	n/a	n/a	n/a	n/a
2107343	REC_WORD	wordpools/wasnorm_wordpool_less_exclusions.txt	LTP265	ltpFR	11	10	1	VENT	1556	n/a	n/a	0	n/a	0	0	0	n/a	n/a	n/a	n/a	n/a
2108398	REC_WORD	wordpools/wasnorm_wordpool_less_exclusions.txt	LTP265	ltpFR	11	10	1	AIRCRAFT	11	n/a	n/a	0	n/a	0	0	0	n/a	n/a	n/a	n/a	n/a
2143500	REC_WORD	wordpools/wasnorm_wordpool_less_exclusions.txt	LTP265	ltpFR	11	10	1	RODENT	1204	n/a	n/a	1	n/a	0	0	0	n/a	n/a	n/a	n/a	n/a
2166300	REST_REWET	n/a	LTP265	ltpFR	11	10	n/a	n/a	n/a	n/a	n/a	n/a	n/a	0	0	0	n/a	n/a	n/a	n/a	n/a
2615360	START	n/a	LTP265	ltpFR	11	n/a	n/a	n/a	n/a	n/a	n/a	n/a	n/a	n/a	n/a	n/a	n/a	n/a	n/a	n/a	n/a
2616875	PROB	n/a	LTP265	ltpFR	11	n/a	n/a	n/a	n/a	n/a	n/a	n/a	16	6	3	7	n/a	n/a	n/a	n/a	n/a
2618738	PROB	n/a	LTP265	ltpFR	11	n/a	n/a	n/a	n/a	n/a	n/a	n/a	7	2	1	4	n/a	n/a	n/a	n/a	n/a
2620204	PROB	n/a	LTP265	ltpFR	11	n/a	n/a	n/a	n/a	n/a	n/a	n/a	19	5	6	8	n/a	n/a	n/a	n/a	n/a
2621827	PROB	n/a	LTP265	ltpFR	11	n/a	n/a	n/a	n/a	n/a	n/a	n/a	15	1	6	8	n/a	n/a	n/a	n/a	n/a
2623968	PROB	n/a	LTP265	ltpFR	11	n/a	n/a	n/a	n/a	n/a	n/a	n/a	15	5	4	6	n/a	n/a	n/a	n/a	n/a
2625524	PROB	n/a	LTP265	ltpFR	11	n/a	n/a	n/a	n/a	n/a	n/a	n/a	17	1	7	9	n/a	n/a	n/a	n/a	n/a
2627549	PROB	n/a	LTP265	ltpFR	11	n/a	n/a	n/a	n/a	n/a	n/a	n/a	15	1	6	8	n/a	n/a	n/a	n/a	n/a
2629144	PROB	n/a	LTP265	ltpFR	11	n/a	n/a	n/a	n/a	n/a	n/a	n/a	11	8	1	2	n/a	n/a	n/a	n/a	n/a
2631261	STOP	n/a	LTP265	ltpFR	11	n/a	n/a	n/a	n/a	n/a	n/a	n/a	n/a	n/a	n/a	n/a	n/a	n/a	n/a	n/a	n/a
2632189	WORD	wordpools/wasnorm_wordpool_less_exclusions.txt	LTP265	ltpFR	11	11	0	KING	777	n/a	n/a	1	n/a	0	0	0	0.57763671875	0.412841796875	1	lower	amplitud.ttf
2635201	START	n/a	LTP265	ltpFR	11	n/a	n/a	n/a	n/a	n/a	n/a	n/a	n/a	n/a	n/a	n/a	n/a	n/a	n/a	n/a	n/a
2636373	PROB	n/a	LTP265	ltpFR	11	n/a	n/a	n/a	n/a	n/a	n/a	n/a	17	6	4	7	n/a	n/a	n/a	n/a	n/a
2638122	PROB	n/a	LTP265	ltpFR	11	n/a	n/a	n/a	n/a	n/a	n/a	n/a	18	7	8	3	n/a	n/a	n/a	n/a	n/a
2639734	PROB	n/a	LTP265	ltpFR	11	n/a	n/a	n/a	n/a	n/a	n/a	n/a	20	8	9	3	n/a	n/a	n/a	n/a	n/a
2641368	PROB	n/a	LTP265	ltpFR	11	n/a	n/a	n/a	n/a	n/a	n/a	n/a	20	6	6	7	n/a	n/a	n/a	n/a	n/a
2643559	PROB	n/a	LTP265	ltpFR	11	n/a	n/a	n/a	n/a	n/a	n/a	n/a	16	4	8	4	n/a	n/a	n/a	n/a	n/a
2646721	PROB	n/a	LTP265	ltpFR	11	n/a	n/a	n/a	n/a	n/a	n/a	n/a	8	1	4	3	n/a	n/a	n/a	n/a	n/a
2648662	PROB	n/a	LTP265	ltpFR	11	n/a	n/a	n/a	n/a	n/a	n/a	n/a	19	9	6	4	n/a	n/a	n/a	n/a	n/a
2650069	STOP	n/a	LTP265	ltpFR	11	n/a	n/a	n/a	n/a	n/a	n/a	n/a	n/a	n/a	n/a	n/a	n/a	n/a	n/a	n/a	n/a
2652409	WORD	wordpools/wasnorm_wordpool_less_exclusions.txt	LTP265	ltpFR	11	11	0	FARM	552	n/a	n/a	1	n/a	0	0	0	0.57763671875	0.412841796875	1	lower	amplitud.ttf
2655421	START	n/a	LTP265	ltpFR	11	n/a	n/a	n/a	n/a	n/a	n/a	n/a	n/a	n/a	n/a	n/a	n/a	n/a	n/a	n/a	n/a
2656581	PROB	n/a	LTP265	ltpFR	11	n/a	n/a	n/a	n/a	n/a	n/a	n/a	22	5	9	8	n/a	n/a	n/a	n/a	n/a
2658616	PROB	n/a	LTP265	ltpFR	11	n/a	n/a	n/a	n/a	n/a	n/a	n/a	14	2	6	6	n/a	n/a	n/a	n/a	n/a
2660506	PROB	n/a	LTP265	ltpFR	11	n/a	n/a	n/a	n/a	n/a	n/a	n/a	23	6	8	9	n/a	n/a	n/a	n/a	n/a
2662398	PROB	n/a	LTP265	ltpFR	11	n/a	n/a	n/a	n/a	n/a	n/a	n/a	20	9	6	5	n/a	n/a	n/a	n/a	n/a
2663875	PROB	n/a	LTP265	ltpFR	11	n/a	n/a	n/a	n/a	n/a	n/a	n/a	16	6	5	5	n/a	n/a	n/a	n/a	n/a
2665431	PROB	n/a	LTP265	ltpFR	11	n/a	n/a	n/a	n/a	n/a	n/a	n/a	14	8	3	3	n/a	n/a	n/a	n/a	n/a
2667482	PROB	n/a	LTP265	ltpFR	11	n/a	n/a	n/a	n/a	n/a	n/a	n/a	13	3	9	1	n/a	n/a	n/a	n/a	n/a
2669122	PROB	n/a	LTP265	ltpFR	11	n/a	n/a	n/a	n/a	n/a	n/a	n/a	13	6	3	4	n/a	n/a	n/a	n/a	n/a
2670717	STOP	n/a	LTP265	ltpFR	11	n/a	n/a	n/a	n/a	n/a	n/a	n/a	n/a	n/a	n/a	n/a	n/a	n/a	n/a	n/a	n/a
2672642	WORD	wordpools/wasnorm_wordpool_less_exclusions.txt	LTP265	ltpFR	11	11	0	FARMER	553	n/a	n/a	1	n/a	0	0	0	0.57763671875	0.412841796875	1	lower	amplitud.ttf
2675654	START	n/a	LTP265	ltpFR	11	n/a	n/a	n/a	n/a	n/a	n/a	n/a	n/a	n/a	n/a	n/a	n/a	n/a	n/a	n/a	n/a
2676573	PROB	n/a	LTP265	ltpFR	11	n/a	n/a	n/a	n/a	n/a	n/a	n/a	13	1	6	6	n/a	n/a	n/a	n/a	n/a
2678223	PROB	n/a	LTP265	ltpFR	11	n/a	n/a	n/a	n/a	n/a	n/a	n/a	15	2	8	5	n/a	n/a	n/a	n/a	n/a
2679685	PROB	n/a	LTP265	ltpFR	11	n/a	n/a	n/a	n/a	n/a	n/a	n/a	10	1	5	4	n/a	n/a	n/a	n/a	n/a
2681753	PROB	n/a	LTP265	ltpFR	11	n/a	n/a	n/a	n/a	n/a	n/a	n/a	15	7	5	3	n/a	n/a	n/a	n/a	n/a
2683750	PROB	n/a	LTP265	ltpFR	11	n/a	n/a	n/a	n/a	n/a	n/a	n/a	20	5	6	9	n/a	n/a	n/a	n/a	n/a
2685825	PROB	n/a	LTP265	ltpFR	11	n/a	n/a	n/a	n/a	n/a	n/a	n/a	17	8	4	5	n/a	n/a	n/a	n/a	n/a
2688050	PROB	n/a	LTP265	ltpFR	11	n/a	n/a	n/a	n/a	n/a	n/a	n/a	16	8	6	2	n/a	n/a	n/a	n/a	n/a
2691654	STOP	n/a	LTP265	ltpFR	11	n/a	n/a	n/a	n/a	n/a	n/a	n/a	n/a	n/a	n/a	n/a	n/a	n/a	n/a	n/a	n/a
2692584	WORD	wordpools/wasnorm_wordpool_less_exclusions.txt	LTP265	ltpFR	11	11	0	COOKIE	374	n/a	n/a	0	n/a	0	0	0	0.57763671875	0.412841796875	1	lower	amplitud.ttf
2695596	START	n/a	LTP265	ltpFR	11	n/a	n/a	n/a	n/a	n/a	n/a	n/a	n/a	n/a	n/a	n/a	n/a	n/a	n/a	n/a	n/a
2696532	PROB	n/a	LTP265	ltpFR	11	n/a	n/a	n/a	n/a	n/a	n/a	n/a	13	3	5	5	n/a	n/a	n/a	n/a	n/a
2699727	PROB	n/a	LTP265	ltpFR	11	n/a	n/a	n/a	n/a	n/a	n/a	n/a	9	4	2	3	n/a	n/a	n/a	n/a	n/a
2701293	PROB	n/a	LTP265	ltpFR	11	n/a	n/a	n/a	n/a	n/a	n/a	n/a	14	7	6	1	n/a	n/a	n/a	n/a	n/a
2702923	PROB	n/a	LTP265	ltpFR	11	n/a	n/a	n/a	n/a	n/a	n/a	n/a	10	4	1	5	n/a	n/a	n/a	n/a	n/a
2704589	PROB	n/a	LTP265	ltpFR	11	n/a	n/a	n/a	n/a	n/a	n/a	n/a	11	2	6	3	n/a	n/a	n/a	n/a	n/a
2706051	PROB	n/a	LTP265	ltpFR	11	n/a	n/a	n/a	n/a	n/a	n/a	n/a	16	2	9	5	n/a	n/a	n/a	n/a	n/a
2707724	PROB	n/a	LTP265	ltpFR	11	n/a	n/a	n/a	n/a	n/a	n/a	n/a	12	7	4	1	n/a	n/a	n/a	n/a	n/a
2709179	PROB	n/a	LTP265	ltpFR	11	n/a	n/a	n/a	n/a	n/a	n/a	n/a	9	3	1	5	n/a	n/a	n/a	n/a	n/a
2710589	STOP	n/a	LTP265	ltpFR	11	n/a	n/a	n/a	n/a	n/a	n/a	n/a	n/a	n/a	n/a	n/a	n/a	n/a	n/a	n/a	n/a
2712542	WORD	wordpools/wasnorm_wordpool_less_exclusions.txt	LTP265	ltpFR	11	11	0	FLESH	579	n/a	n/a	0	n/a	0	0	0	0.57763671875	0.412841796875	1	lower	amplitud.ttf
2715554	START	n/a	LTP265	ltpFR	11	n/a	n/a	n/a	n/a	n/a	n/a	n/a	n/a	n/a	n/a	n/a	n/a	n/a	n/a	n/a	n/a
2716557	PROB	n/a	LTP265	ltpFR	11	n/a	n/a	n/a	n/a	n/a	n/a	n/a	7	3	3	1	n/a	n/a	n/a	n/a	n/a
2717906	PROB	n/a	LTP265	ltpFR	11	n/a	n/a	n/a	n/a	n/a	n/a	n/a	14	7	5	2	n/a	n/a	n/a	n/a	n/a
2719462	PROB	n/a	LTP265	ltpFR	11	n/a	n/a	n/a	n/a	n/a	n/a	n/a	10	2	5	3	n/a	n/a	n/a	n/a	n/a
2721041	PROB	n/a	LTP265	ltpFR	11	n/a	n/a	n/a	n/a	n/a	n/a	n/a	16	7	1	8	n/a	n/a	n/a	n/a	n/a
2722724	PROB	n/a	LTP265	ltpFR	11	n/a	n/a	n/a	n/a	n/a	n/a	n/a	17	4	6	7	n/a	n/a	n/a	n/a	n/a
2724169	PROB	n/a	LTP265	ltpFR	11	n/a	n/a	n/a	n/a	n/a	n/a	n/a	10	2	6	2	n/a	n/a	n/a	n/a	n/a
2725993	PROB	n/a	LTP265	ltpFR	11	n/a	n/a	n/a	n/a	n/a	n/a	n/a	12	4	4	4	n/a	n/a	n/a	n/a	n/a
2727241	PROB	n/a	LTP265	ltpFR	11	n/a	n/a	n/a	n/a	n/a	n/a	n/a	8	4	1	3	n/a	n/a	n/a	n/a	n/a
2729373	PROB	n/a	LTP265	ltpFR	11	n/a	n/a	n/a	n/a	n/a	n/a	n/a	11	2	7	2	n/a	n/a	n/a	n/a	n/a
2730789	STOP	n/a	LTP265	ltpFR	11	n/a	n/a	n/a	n/a	n/a	n/a	n/a	n/a	n/a	n/a	n/a	n/a	n/a	n/a	n/a	n/a
2732578	WORD	wordpools/wasnorm_wordpool_less_exclusions.txt	LTP265	ltpFR	11	11	0	FOREST	593	n/a	n/a	1	n/a	0	0	0	0.57763671875	0.412841796875	1	lower	amplitud.ttf
2735590	START	n/a	LTP265	ltpFR	11	n/a	n/a	n/a	n/a	n/a	n/a	n/a	n/a	n/a	n/a	n/a	n/a	n/a	n/a	n/a	n/a
2736549	PROB	n/a	LTP265	ltpFR	11	n/a	n/a	n/a	n/a	n/a	n/a	n/a	19	6	4	9	n/a	n/a	n/a	n/a	n/a
2737921	PROB	n/a	LTP265	ltpFR	11	n/a	n/a	n/a	n/a	n/a	n/a	n/a	18	8	2	8	n/a	n/a	n/a	n/a	n/a
2739343	PROB	n/a	LTP265	ltpFR	11	n/a	n/a	n/a	n/a	n/a	n/a	n/a	15	7	1	7	n/a	n/a	n/a	n/a	n/a
2741183	PROB	n/a	LTP265	ltpFR	11	n/a	n/a	n/a	n/a	n/a	n/a	n/a	14	4	7	3	n/a	n/a	n/a	n/a	n/a
2742900	PROB	n/a	LTP265	ltpFR	11	n/a	n/a	n/a	n/a	n/a	n/a	n/a	8	3	3	2	n/a	n/a	n/a	n/a	n/a
2744489	PROB	n/a	LTP265	ltpFR	11	n/a	n/a	n/a	n/a	n/a	n/a	n/a	10	5	4	1	n/a	n/a	n/a	n/a	n/a
2745817	PROB	n/a	LTP265	ltpFR	11	n/a	n/a	n/a	n/a	n/a	n/a	n/a	21	7	5	9	n/a	n/a	n/a	n/a	n/a
2747417	PROB	n/a	LTP265	ltpFR	11	n/a	n/a	n/a	n/a	n/a	n/a	n/a	15	3	9	3	n/a	n/a	n/a	n/a	n/a
2749843	PROB	n/a	LTP265	ltpFR	11	n/a	n/a	n/a	n/a	n/a	n/a	n/a	17	2	9	6	n/a	n/a	n/a	n/a	n/a
2751485	STOP	n/a	LTP265	ltpFR	11	n/a	n/a	n/a	n/a	n/a	n/a	n/a	n/a	n/a	n/a	n/a	n/a	n/a	n/a	n/a	n/a
2752603	WORD	wordpools/wasnorm_wordpool_less_exclusions.txt	LTP265	ltpFR	11	11	0	BUG	187	n/a	n/a	0	n/a	0	0	0	0.57763671875	0.412841796875	1	lower	amplitud.ttf
2755615	START	n/a	LTP265	ltpFR	11	n/a	n/a	n/a	n/a	n/a	n/a	n/a	n/a	n/a	n/a	n/a	n/a	n/a	n/a	n/a	n/a
2756441	PROB	n/a	LTP265	ltpFR	11	n/a	n/a	n/a	n/a	n/a	n/a	n/a	19	3	9	7	n/a	n/a	n/a	n/a	n/a
2758877	PROB	n/a	LTP265	ltpFR	11	n/a	n/a	n/a	n/a	n/a	n/a	n/a	17	7	1	9	n/a	n/a	n/a	n/a	n/a
2760556	PROB	n/a	LTP265	ltpFR	11	n/a	n/a	n/a	n/a	n/a	n/a	n/a	21	7	9	5	n/a	n/a	n/a	n/a	n/a
2762256	PROB	n/a	LTP265	ltpFR	11	n/a	n/a	n/a	n/a	n/a	n/a	n/a	17	3	9	5	n/a	n/a	n/a	n/a	n/a
2764388	PROB	n/a	LTP265	ltpFR	11	n/a	n/a	n/a	n/a	n/a	n/a	n/a	20	6	8	6	n/a	n/a	n/a	n/a	n/a
2766060	PROB	n/a	LTP265	ltpFR	11	n/a	n/a	n/a	n/a	n/a	n/a	n/a	5	2	1	2	n/a	n/a	n/a	n/a	n/a
2767432	PROB	n/a	LTP265	ltpFR	11	n/a	n/a	n/a	n/a	n/a	n/a	n/a	13	2	3	8	n/a	n/a	n/a	n/a	n/a
2769299	PROB	n/a	LTP265	ltpFR	11	n/a	n/a	n/a	n/a	n/a	n/a	n/a	11	5	3	3	n/a	n/a	n/a	n/a	n/a
2770581	STOP	n/a	LTP265	ltpFR	11	n/a	n/a	n/a	n/a	n/a	n/a	n/a	n/a	n/a	n/a	n/a	n/a	n/a	n/a	n/a	n/a
2772468	WORD	wordpools/wasnorm_wordpool_less_exclusions.txt	LTP265	ltpFR	11	11	0	GOVERNOR	651	n/a	n/a	1	n/a	0	0	0	0.57763671875	0.412841796875	1	lower	amplitud.ttf
2775480	START	n/a	LTP265	ltpFR	11	n/a	n/a	n/a	n/a	n/a	n/a	n/a	n/a	n/a	n/a	n/a	n/a	n/a	n/a	n/a	n/a
2776466	PROB	n/a	LTP265	ltpFR	11	n/a	n/a	n/a	n/a	n/a	n/a	n/a	15	6	4	5	n/a	n/a	n/a	n/a	n/a
2777648	PROB	n/a	LTP265	ltpFR	11	n/a	n/a	n/a	n/a	n/a	n/a	n/a	10	2	6	2	n/a	n/a	n/a	n/a	n/a
2779160	PROB	n/a	LTP265	ltpFR	11	n/a	n/a	n/a	n/a	n/a	n/a	n/a	25	9	8	8	n/a	n/a	n/a	n/a	n/a
2781050	PROB	n/a	LTP265	ltpFR	11	n/a	n/a	n/a	n/a	n/a	n/a	n/a	12	6	5	1	n/a	n/a	n/a	n/a	n/a
2782516	PROB	n/a	LTP265	ltpFR	11	n/a	n/a	n/a	n/a	n/a	n/a	n/a	14	3	2	9	n/a	n/a	n/a	n/a	n/a
2784105	PROB	n/a	LTP265	ltpFR	11	n/a	n/a	n/a	n/a	n/a	n/a	n/a	15	1	8	6	n/a	n/a	n/a	n/a	n/a
2786765	PROB	n/a	LTP265	ltpFR	11	n/a	n/a	n/a	n/a	n/a	n/a	n/a	22	9	8	5	n/a	n/a	n/a	n/a	n/a
2788646	PROB	n/a	LTP265	ltpFR	11	n/a	n/a	n/a	n/a	n/a	n/a	n/a	18	5	9	4	n/a	n/a	n/a	n/a	n/a
2790197	STOP	n/a	LTP265	ltpFR	11	n/a	n/a	n/a	n/a	n/a	n/a	n/a	n/a	n/a	n/a	n/a	n/a	n/a	n/a	n/a	n/a
2792554	WORD	wordpools/wasnorm_wordpool_less_exclusions.txt	LTP265	ltpFR	11	11	0	CHAIRPERSON	275	n/a	n/a	1	n/a	0	0	0	0.57763671875	0.412841796875	1	lower	amplitud.ttf
2795566	START	n/a	LTP265	ltpFR	11	n/a	n/a	n/a	n/a	n/a	n/a	n/a	n/a	n/a	n/a	n/a	n/a	n/a	n/a	n/a	n/a
2796592	PROB	n/a	LTP265	ltpFR	11	n/a	n/a	n/a	n/a	n/a	n/a	n/a	16	2	5	9	n/a	n/a	n/a	n/a	n/a
2798108	PROB	n/a	LTP265	ltpFR	11	n/a	n/a	n/a	n/a	n/a	n/a	n/a	21	5	7	6	n/a	n/a	n/a	n/a	n/a
2800551	PROB	n/a	LTP265	ltpFR	11	n/a	n/a	n/a	n/a	n/a	n/a	n/a	11	3	6	2	n/a	n/a	n/a	n/a	n/a
2802699	PROB	n/a	LTP265	ltpFR	11	n/a	n/a	n/a	n/a	n/a	n/a	n/a	10	4	5	1	n/a	n/a	n/a	n/a	n/a
2804137	PROB	n/a	LTP265	ltpFR	11	n/a	n/a	n/a	n/a	n/a	n/a	n/a	11	2	3	6	n/a	n/a	n/a	n/a	n/a
2805703	PROB	n/a	LTP265	ltpFR	11	n/a	n/a	n/a	n/a	n/a	n/a	n/a	7	4	2	1	n/a	n/a	n/a	n/a	n/a
2807226	PROB	n/a	LTP265	ltpFR	11	n/a	n/a	n/a	n/a	n/a	n/a	n/a	16	4	8	4	n/a	n/a	n/a	n/a	n/a
2808999	PROB	n/a	LTP265	ltpFR	11	n/a	n/a	n/a	n/a	n/a	n/a	n/a	21	8	5	9	n/a	n/a	n/a	n/a	n/a
2811269	STOP	n/a	LTP265	ltpFR	11	n/a	n/a	n/a	n/a	n/a	n/a	n/a	n/a	n/a	n/a	n/a	n/a	n/a	n/a	n/a	n/a
2812536	WORD	wordpools/wasnorm_wordpool_less_exclusions.txt	LTP265	ltpFR	11	11	0	LIMB	822	n/a	n/a	0	n/a	0	0	0	0.57763671875	0.412841796875	1	lower	amplitud.ttf
2815548	START	n/a	LTP265	ltpFR	11	n/a	n/a	n/a	n/a	n/a	n/a	n/a	n/a	n/a	n/a	n/a	n/a	n/a	n/a	n/a	n/a
2816410	PROB	n/a	LTP265	ltpFR	11	n/a	n/a	n/a	n/a	n/a	n/a	n/a	16	3	4	9	n/a	n/a	n/a	n/a	n/a
2819780	PROB	n/a	LTP265	ltpFR	11	n/a	n/a	n/a	n/a	n/a	n/a	n/a	9	3	2	4	n/a	n/a	n/a	n/a	n/a
2821687	PROB	n/a	LTP265	ltpFR	11	n/a	n/a	n/a	n/a	n/a	n/a	n/a	17	3	7	7	n/a	n/a	n/a	n/a	n/a
2823270	PROB	n/a	LTP265	ltpFR	11	n/a	n/a	n/a	n/a	n/a	n/a	n/a	15	6	5	4	n/a	n/a	n/a	n/a	n/a
2824959	PROB	n/a	LTP265	ltpFR	11	n/a	n/a	n/a	n/a	n/a	n/a	n/a	22	6	7	9	n/a	n/a	n/a	n/a	n/a
2826923	PROB	n/a	LTP265	ltpFR	11	n/a	n/a	n/a	n/a	n/a	n/a	n/a	14	6	6	2	n/a	n/a	n/a	n/a	n/a
2829091	PROB	n/a	LTP265	ltpFR	11	n/a	n/a	n/a	n/a	n/a	n/a	n/a	12	2	6	4	n/a	n/a	n/a	n/a	n/a
2830501	STOP	n/a	LTP265	ltpFR	11	n/a	n/a	n/a	n/a	n/a	n/a	n/a	n/a	n/a	n/a	n/a	n/a	n/a	n/a	n/a	n/a
2832528	WORD	wordpools/wasnorm_wordpool_less_exclusions.txt	LTP265	ltpFR	11	11	0	MOSQUITO	917	n/a	n/a	0	n/a	0	0	0	0.57763671875	0.412841796875	1	lower	amplitud.ttf
2835540	START	n/a	LTP265	ltpFR	11	n/a	n/a	n/a	n/a	n/a	n/a	n/a	n/a	n/a	n/a	n/a	n/a	n/a	n/a	n/a	n/a
2836693	PROB	n/a	LTP265	ltpFR	11	n/a	n/a	n/a	n/a	n/a	n/a	n/a	20	4	7	9	n/a	n/a	n/a	n/a	n/a
2838494	PROB	n/a	LTP265	ltpFR	11	n/a	n/a	n/a	n/a	n/a	n/a	n/a	11	5	5	1	n/a	n/a	n/a	n/a	n/a
2839631	PROB	n/a	LTP265	ltpFR	11	n/a	n/a	n/a	n/a	n/a	n/a	n/a	15	8	4	3	n/a	n/a	n/a	n/a	n/a
2841294	PROB	n/a	LTP265	ltpFR	11	n/a	n/a	n/a	n/a	n/a	n/a	n/a	19	5	6	8	n/a	n/a	n/a	n/a	n/a
2842850	PROB	n/a	LTP265	ltpFR	11	n/a	n/a	n/a	n/a	n/a	n/a	n/a	13	4	1	8	n/a	n/a	n/a	n/a	n/a
2844339	PROB	n/a	LTP265	ltpFR	11	n/a	n/a	n/a	n/a	n/a	n/a	n/a	18	8	9	1	n/a	n/a	n/a	n/a	n/a
2846122	PROB	n/a	LTP265	ltpFR	11	n/a	n/a	n/a	n/a	n/a	n/a	n/a	10	4	3	3	n/a	n/a	n/a	n/a	n/a
2847752	PROB	n/a	LTP265	ltpFR	11	n/a	n/a	n/a	n/a	n/a	n/a	n/a	19	7	5	7	n/a	n/a	n/a	n/a	n/a
2849502	PROB	n/a	LTP265	ltpFR	11	n/a	n/a	n/a	n/a	n/a	n/a	n/a	17	8	8	1	n/a	n/a	n/a	n/a	n/a
2850861	STOP	n/a	LTP265	ltpFR	11	n/a	n/a	n/a	n/a	n/a	n/a	n/a	n/a	n/a	n/a	n/a	n/a	n/a	n/a	n/a	n/a
2852704	WORD	wordpools/wasnorm_wordpool_less_exclusions.txt	LTP265	ltpFR	11	11	0	CHIEF	298	n/a	n/a	1	n/a	0	0	0	0.57763671875	0.412841796875	1	lower	amplitud.ttf
2855716	START	n/a	LTP265	ltpFR	11	n/a	n/a	n/a	n/a	n/a	n/a	n/a	n/a	n/a	n/a	n/a	n/a	n/a	n/a	n/a	n/a
2856746	PROB	n/a	LTP265	ltpFR	11	n/a	n/a	n/a	n/a	n/a	n/a	n/a	13	1	8	4	n/a	n/a	n/a	n/a	n/a
2858475	PROB	n/a	LTP265	ltpFR	11	n/a	n/a	n/a	n/a	n/a	n/a	n/a	20	9	7	4	n/a	n/a	n/a	n/a	n/a
2861029	PROB	n/a	LTP265	ltpFR	11	n/a	n/a	n/a	n/a	n/a	n/a	n/a	16	5	2	9	n/a	n/a	n/a	n/a	n/a
2862507	PROB	n/a	LTP265	ltpFR	11	n/a	n/a	n/a	n/a	n/a	n/a	n/a	11	1	6	4	n/a	n/a	n/a	n/a	n/a
2864532	PROB	n/a	LTP265	ltpFR	11	n/a	n/a	n/a	n/a	n/a	n/a	n/a	16	1	9	6	n/a	n/a	n/a	n/a	n/a
2865830	PROB	n/a	LTP265	ltpFR	11	n/a	n/a	n/a	n/a	n/a	n/a	n/a	17	8	5	4	n/a	n/a	n/a	n/a	n/a
2867921	PROB	n/a	LTP265	ltpFR	11	n/a	n/a	n/a	n/a	n/a	n/a	n/a	17	7	4	6	n/a	n/a	n/a	n/a	n/a
2869510	PROB	n/a	LTP265	ltpFR	11	n/a	n/a	n/a	n/a	n/a	n/a	n/a	15	2	4	9	n/a	n/a	n/a	n/a	n/a
2870862	STOP	n/a	LTP265	ltpFR	11	n/a	n/a	n/a	n/a	n/a	n/a	n/a	n/a	n/a	n/a	n/a	n/a	n/a	n/a	n/a	n/a
2872706	WORD	wordpools/wasnorm_wordpool_less_exclusions.txt	LTP265	ltpFR	11	11	0	MANAGER	863	n/a	n/a	1	n/a	0	0	0	0.57763671875	0.412841796875	1	lower	amplitud.ttf
2875718	START	n/a	LTP265	ltpFR	11	n/a	n/a	n/a	n/a	n/a	n/a	n/a	n/a	n/a	n/a	n/a	n/a	n/a	n/a	n/a	n/a
2876627	PROB	n/a	LTP265	ltpFR	11	n/a	n/a	n/a	n/a	n/a	n/a	n/a	17	7	2	8	n/a	n/a	n/a	n/a	n/a
2878685	PROB	n/a	LTP265	ltpFR	11	n/a	n/a	n/a	n/a	n/a	n/a	n/a	21	8	7	6	n/a	n/a	n/a	n/a	n/a
2881104	PROB	n/a	LTP265	ltpFR	11	n/a	n/a	n/a	n/a	n/a	n/a	n/a	16	9	6	1	n/a	n/a	n/a	n/a	n/a
2882576	PROB	n/a	LTP265	ltpFR	11	n/a	n/a	n/a	n/a	n/a	n/a	n/a	13	6	4	3	n/a	n/a	n/a	n/a	n/a
2884132	PROB	n/a	LTP265	ltpFR	11	n/a	n/a	n/a	n/a	n/a	n/a	n/a	24	8	7	9	n/a	n/a	n/a	n/a	n/a
2885879	PROB	n/a	LTP265	ltpFR	11	n/a	n/a	n/a	n/a	n/a	n/a	n/a	24	8	9	7	n/a	n/a	n/a	n/a	n/a
2887635	PROB	n/a	LTP265	ltpFR	11	n/a	n/a	n/a	n/a	n/a	n/a	n/a	20	6	6	8	n/a	n/a	n/a	n/a	n/a
2890413	STOP	n/a	LTP265	ltpFR	11	n/a	n/a	n/a	n/a	n/a	n/a	n/a	n/a	n/a	n/a	n/a	n/a	n/a	n/a	n/a	n/a
2892755	WORD	wordpools/wasnorm_wordpool_less_exclusions.txt	LTP265	ltpFR	11	11	0	RADISH	1158	n/a	n/a	0	n/a	0	0	0	0.57763671875	0.412841796875	1	lower	amplitud.ttf
2895767	START	n/a	LTP265	ltpFR	11	n/a	n/a	n/a	n/a	n/a	n/a	n/a	n/a	n/a	n/a	n/a	n/a	n/a	n/a	n/a	n/a
2896713	PROB	n/a	LTP265	ltpFR	11	n/a	n/a	n/a	n/a	n/a	n/a	n/a	18	1	8	9	n/a	n/a	n/a	n/a	n/a
2898637	PROB	n/a	LTP265	ltpFR	11	n/a	n/a	n/a	n/a	n/a	n/a	n/a	11	4	6	1	n/a	n/a	n/a	n/a	n/a
2899908	PROB	n/a	LTP265	ltpFR	11	n/a	n/a	n/a	n/a	n/a	n/a	n/a	14	7	2	5	n/a	n/a	n/a	n/a	n/a
2902267	PROB	n/a	LTP265	ltpFR	11	n/a	n/a	n/a	n/a	n/a	n/a	n/a	7	1	2	4	n/a	n/a	n/a	n/a	n/a
2903595	PROB	n/a	LTP265	ltpFR	11	n/a	n/a	n/a	n/a	n/a	n/a	n/a	12	7	1	4	n/a	n/a	n/a	n/a	n/a
2905881	PROB	n/a	LTP265	ltpFR	11	n/a	n/a	n/a	n/a	n/a	n/a	n/a	14	7	3	4	n/a	n/a	n/a	n/a	n/a
2907243	PROB	n/a	LTP265	ltpFR	11	n/a	n/a	n/a	n/a	n/a	n/a	n/a	15	7	7	1	n/a	n/a	n/a	n/a	n/a
2908474	PROB	n/a	LTP265	ltpFR	11	n/a	n/a	n/a	n/a	n/a	n/a	n/a	14	1	9	4	n/a	n/a	n/a	n/a	n/a
2909852	PROB	n/a	LTP265	ltpFR	11	n/a	n/a	n/a	n/a	n/a	n/a	n/a	7	3	3	1	n/a	n/a	n/a	n/a	n/a
2911093	STOP	n/a	LTP265	ltpFR	11	n/a	n/a	n/a	n/a	n/a	n/a	n/a	n/a	n/a	n/a	n/a	n/a	n/a	n/a	n/a	n/a
2912596	WORD	wordpools/wasnorm_wordpool_less_exclusions.txt	LTP265	ltpFR	11	11	0	CART	250	n/a	n/a	1	n/a	0	0	0	0.57763671875	0.412841796875	1	lower	amplitud.ttf
2915608	START	n/a	LTP265	ltpFR	11	n/a	n/a	n/a	n/a	n/a	n/a	n/a	n/a	n/a	n/a	n/a	n/a	n/a	n/a	n/a	n/a
2916789	PROB	n/a	LTP265	ltpFR	11	n/a	n/a	n/a	n/a	n/a	n/a	n/a	13	2	7	4	n/a	n/a	n/a	n/a	n/a
2920810	PROB	n/a	LTP265	ltpFR	11	n/a	n/a	n/a	n/a	n/a	n/a	n/a	10	7	2	1	n/a	n/a	n/a	n/a	n/a
2922835	PROB	n/a	LTP265	ltpFR	11	n/a	n/a	n/a	n/a	n/a	n/a	n/a	16	4	8	4	n/a	n/a	n/a	n/a	n/a
2924541	PROB	n/a	LTP265	ltpFR	11	n/a	n/a	n/a	n/a	n/a	n/a	n/a	9	3	5	1	n/a	n/a	n/a	n/a	n/a
2927101	PROB	n/a	LTP265	ltpFR	11	n/a	n/a	n/a	n/a	n/a	n/a	n/a	19	5	7	7	n/a	n/a	n/a	n/a	n/a
2931608	STOP	n/a	LTP265	ltpFR	11	n/a	n/a	n/a	n/a	n/a	n/a	n/a	n/a	n/a	n/a	n/a	n/a	n/a	n/a	n/a	n/a
2932521	WORD	wordpools/wasnorm_wordpool_less_exclusions.txt	LTP265	ltpFR	11	11	0	FINGERNAIL	568	n/a	n/a	0	n/a	0	0	0	0.57763671875	0.412841796875	1	lower	amplitud.ttf
2935533	START	n/a	LTP265	ltpFR	11	n/a	n/a	n/a	n/a	n/a	n/a	n/a	n/a	n/a	n/a	n/a	n/a	n/a	n/a	n/a	n/a
2936453	PROB	n/a	LTP265	ltpFR	11	n/a	n/a	n/a	n/a	n/a	n/a	n/a	14	6	3	5	n/a	n/a	n/a	n/a	n/a
2938109	PROB	n/a	LTP265	ltpFR	11	n/a	n/a	n/a	n/a	n/a	n/a	n/a	11	1	9	1	n/a	n/a	n/a	n/a	n/a
2939457	PROB	n/a	LTP265	ltpFR	11	n/a	n/a	n/a	n/a	n/a	n/a	n/a	13	1	4	9	n/a	n/a	n/a	n/a	n/a
2940946	PROB	n/a	LTP265	ltpFR	11	n/a	n/a	n/a	n/a	n/a	n/a	n/a	23	7	7	9	n/a	n/a	n/a	n/a	n/a
2944817	PROB	n/a	LTP265	ltpFR	11	n/a	n/a	n/a	n/a	n/a	n/a	n/a	20	3	8	9	n/a	n/a	n/a	n/a	n/a
2946634	PROB	n/a	LTP265	ltpFR	11	n/a	n/a	n/a	n/a	n/a	n/a	n/a	9	5	1	3	n/a	n/a	n/a	n/a	n/a
2948692	PROB	n/a	LTP265	ltpFR	11	n/a	n/a	n/a	n/a	n/a	n/a	n/a	14	8	2	4	n/a	n/a	n/a	n/a	n/a
2950029	STOP	n/a	LTP265	ltpFR	11	n/a	n/a	n/a	n/a	n/a	n/a	n/a	n/a	n/a	n/a	n/a	n/a	n/a	n/a	n/a	n/a
2953451	REC_START	n/a	LTP265	ltpFR	11	11	n/a	n/a	n/a	n/a	n/a	n/a	n/a	0	0	0	n/a	n/a	n/a	n/a	n/a
2954903	REC_WORD	wordpools/wasnorm_wordpool_less_exclusions.txt	LTP265	ltpFR	11	11	0	CART	250	n/a	n/a	1	n/a	0	0	0	n/a	n/a	n/a	n/a	n/a
2955695	REC_WORD	wordpools/wasnorm_wordpool_less_exclusions.txt	LTP265	ltpFR	11	11	0	FARMER	553	n/a	n/a	1	n/a	0	0	0	n/a	n/a	n/a	n/a	n/a
2956862	REC_WORD	wordpools/wasnorm_wordpool_less_exclusions.txt	LTP265	ltpFR	11	11	0	FARM	552	n/a	n/a	1	n/a	0	0	0	n/a	n/a	n/a	n/a	n/a
2958406	REC_WORD	wordpools/wasnorm_wordpool_less_exclusions.txt	LTP265	ltpFR	11	11	0	GOVERNOR	651	n/a	n/a	1	n/a	0	0	0	n/a	n/a	n/a	n/a	n/a
2959471	REC_WORD	wordpools/wasnorm_wordpool_less_exclusions.txt	LTP265	ltpFR	11	11	0	CHIEF	298	n/a	n/a	1	n/a	0	0	0	n/a	n/a	n/a	n/a	n/a
2960514	REC_WORD	wordpools/wasnorm_wordpool_less_exclusions.txt	LTP265	ltpFR	11	11	0	CHAIRPERSON	275	n/a	n/a	1	n/a	0	0	0	n/a	n/a	n/a	n/a	n/a
2961771	REC_WORD	wordpools/wasnorm_wordpool_less_exclusions.txt	LTP265	ltpFR	11	11	0	MANAGER	863	n/a	n/a	1	n/a	0	0	0	n/a	n/a	n/a	n/a	n/a
2965175	REC_WORD	wordpools/wasnorm_wordpool_less_exclusions.txt	LTP265	ltpFR	11	11	0	MOSQUITO	917	n/a	n/a	0	n/a	0	0	0	n/a	n/a	n/a	n/a	n/a
2966438	REC_WORD	wordpools/wasnorm_wordpool_less_exclusions.txt	LTP265	ltpFR	11	11	0	LIMB	822	n/a	n/a	0	n/a	0	0	0	n/a	n/a	n/a	n/a	n/a
3015207	REC_WORD	wordpools/wasnorm_wordpool_less_exclusions.txt	LTP265	ltpFR	11	11	0	COOKIE	374	n/a	n/a	0	n/a	0	0	0	n/a	n/a	n/a	n/a	n/a
3030852	START	n/a	LTP265	ltpFR	11	n/a	n/a	n/a	n/a	n/a	n/a	n/a	n/a	n/a	n/a	n/a	n/a	n/a	n/a	n/a	n/a
3032364	PROB	n/a	LTP265	ltpFR	11	n/a	n/a	n/a	n/a	n/a	n/a	n/a	20	6	5	9	n/a	n/a	n/a	n/a	n/a
3034599	PROB	n/a	LTP265	ltpFR	11	n/a	n/a	n/a	n/a	n/a	n/a	n/a	14	8	4	5	n/a	n/a	n/a	n/a	n/a
3038851	STOP	n/a	LTP265	ltpFR	11	n/a	n/a	n/a	n/a	n/a	n/a	n/a	n/a	n/a	n/a	n/a	n/a	n/a	n/a	n/a	n/a
3039869	WORD	wordpools/wasnorm_wordpool_less_exclusions.txt	LTP265	ltpFR	11	12	0	SEAL	1262	n/a	n/a	1	n/a	0	0	0	0.57763671875	0.412841796875	1	lower	amplitud.ttf
3042881	START	n/a	LTP265	ltpFR	11	n/a	n/a	n/a	n/a	n/a	n/a	n/a	n/a	n/a	n/a	n/a	n/a	n/a	n/a	n/a	n/a
3043740	PROB	n/a	LTP265	ltpFR	11	n/a	n/a	n/a	n/a	n/a	n/a	n/a	18	4	6	8	n/a	n/a	n/a	n/a	n/a
3045497	PROB	n/a	LTP265	ltpFR	11	n/a	n/a	n/a	n/a	n/a	n/a	n/a	21	9	8	4	n/a	n/a	n/a	n/a	n/a
3047030	PROB	n/a	LTP265	ltpFR	11	n/a	n/a	n/a	n/a	n/a	n/a	n/a	17	5	5	7	n/a	n/a	n/a	n/a	n/a
3050880	STOP	n/a	LTP265	ltpFR	11	n/a	n/a	n/a	n/a	n/a	n/a	n/a	n/a	n/a	n/a	n/a	n/a	n/a	n/a	n/a	n/a
3051931	WORD	wordpools/wasnorm_wordpool_less_exclusions.txt	LTP265	ltpFR	11	12	0	VEST	1559	n/a	n/a	0	n/a	0	0	0	0.57763671875	0.412841796875	1	lower	amplitud.ttf
3054943	START	n/a	LTP265	ltpFR	11	n/a	n/a	n/a	n/a	n/a	n/a	n/a	n/a	n/a	n/a	n/a	n/a	n/a	n/a	n/a	n/a
3056037	PROB	n/a	LTP265	ltpFR	11	n/a	n/a	n/a	n/a	n/a	n/a	n/a	14	5	8	1	n/a	n/a	n/a	n/a	n/a
3058021	PROB	n/a	LTP265	ltpFR	11	n/a	n/a	n/a	n/a	n/a	n/a	n/a	15	5	3	7	n/a	n/a	n/a	n/a	n/a
3059460	PROB	n/a	LTP265	ltpFR	11	n/a	n/a	n/a	n/a	n/a	n/a	n/a	20	5	8	7	n/a	n/a	n/a	n/a	n/a
3062942	STOP	n/a	LTP265	ltpFR	11	n/a	n/a	n/a	n/a	n/a	n/a	n/a	n/a	n/a	n/a	n/a	n/a	n/a	n/a	n/a	n/a
3064027	WORD	wordpools/wasnorm_wordpool_less_exclusions.txt	LTP265	ltpFR	11	12	0	CAP	236	n/a	n/a	0	n/a	0	0	0	0.57763671875	0.412841796875	1	lower	amplitud.ttf
3067039	START	n/a	LTP265	ltpFR	11	n/a	n/a	n/a	n/a	n/a	n/a	n/a	n/a	n/a	n/a	n/a	n/a	n/a	n/a	n/a	n/a
3068233	PROB	n/a	LTP265	ltpFR	11	n/a	n/a	n/a	n/a	n/a	n/a	n/a	19	9	1	9	n/a	n/a	n/a	n/a	n/a
3069749	PROB	n/a	LTP265	ltpFR	11	n/a	n/a	n/a	n/a	n/a	n/a	n/a	19	6	4	9	n/a	n/a	n/a	n/a	n/a
3071060	PROB	n/a	LTP265	ltpFR	11	n/a	n/a	n/a	n/a	n/a	n/a	n/a	12	2	5	5	n/a	n/a	n/a	n/a	n/a
3072743	PROB	n/a	LTP265	ltpFR	11	n/a	n/a	n/a	n/a	n/a	n/a	n/a	20	9	9	2	n/a	n/a	n/a	n/a	n/a
3074214	STOP	n/a	LTP265	ltpFR	11	n/a	n/a	n/a	n/a	n/a	n/a	n/a	n/a	n/a	n/a	n/a	n/a	n/a	n/a	n/a	n/a
3076173	WORD	wordpools/wasnorm_wordpool_less_exclusions.txt	LTP265	ltpFR	11	12	0	CARAVAN	242	n/a	n/a	1	n/a	0	0	0	0.57763671875	0.412841796875	1	lower	amplitud.ttf
3079185	START	n/a	LTP265	ltpFR	11	n/a	n/a	n/a	n/a	n/a	n/a	n/a	n/a	n/a	n/a	n/a	n/a	n/a	n/a	n/a	n/a
3080178	PROB	n/a	LTP265	ltpFR	11	n/a	n/a	n/a	n/a	n/a	n/a	n/a	17	1	8	8	n/a	n/a	n/a	n/a	n/a
3081867	PROB	n/a	LTP265	ltpFR	11	n/a	n/a	n/a	n/a	n/a	n/a	n/a	21	4	9	8	n/a	n/a	n/a	n/a	n/a
3083835	PROB	n/a	LTP265	ltpFR	11	n/a	n/a	n/a	n/a	n/a	n/a	n/a	20	4	8	8	n/a	n/a	n/a	n/a	n/a
3087185	STOP	n/a	LTP265	ltpFR	11	n/a	n/a	n/a	n/a	n/a	n/a	n/a	n/a	n/a	n/a	n/a	n/a	n/a	n/a	n/a	n/a
3088118	WORD	wordpools/wasnorm_wordpool_less_exclusions.txt	LTP265	ltpFR	11	12	0	SHARK	1275	n/a	n/a	1	n/a	0	0	0	0.57763671875	0.412841796875	1	lower	amplitud.ttf
3091130	START	n/a	LTP265	ltpFR	11	n/a	n/a	n/a	n/a	n/a	n/a	n/a	n/a	n/a	n/a	n/a	n/a	n/a	n/a	n/a	n/a
3092022	PROB	n/a	LTP265	ltpFR	11	n/a	n/a	n/a	n/a	n/a	n/a	n/a	15	4	7	4	n/a	n/a	n/a	n/a	n/a
3095452	PROB	n/a	LTP265	ltpFR	11	n/a	n/a	n/a	n/a	n/a	n/a	n/a	16	6	9	1	n/a	n/a	n/a	n/a	n/a
3096851	PROB	n/a	LTP265	ltpFR	11	n/a	n/a	n/a	n/a	n/a	n/a	n/a	12	2	3	7	n/a	n/a	n/a	n/a	n/a
3098205	STOP	n/a	LTP265	ltpFR	11	n/a	n/a	n/a	n/a	n/a	n/a	n/a	n/a	n/a	n/a	n/a	n/a	n/a	n/a	n/a	n/a
