onset	duration	trial_type	sample	stim_file	subject	experiment	session	trial	task	item_name	item_num	recog_conf	resp	color_b	color_g	color_r	case	font
313.98	n/a	SESS_START	156990	n/a	LTP222	ltpFR	1	n/a	n/a	n/a	n/a	2	n/a	n/a	n/a	n/a	n/a	n/a
546.942	n/a	WORD	273471	wordpools/wasnorm_wordpool_less_exclusions.txt	LTP222	ltpFR	1	1	0	TYPEWRITER	1531	n/a	1	0	0.5869140625	0.422607421875	upper	../fonts/amplitud.ttf
551.1	n/a	WORD	275550	wordpools/wasnorm_wordpool_less_exclusions.txt	LTP222	ltpFR	1	1	0	LIST	830	n/a	0	0	0.5869140625	0.422607421875	upper	../fonts/amplitud.ttf
555.04	n/a	WORD	277520	wordpools/wasnorm_wordpool_less_exclusions.txt	LTP222	ltpFR	1	1	0	PATIO	1025	n/a	1	0	0.5869140625	0.422607421875	upper	../fonts/amplitud.ttf
559.072	n/a	WORD	279536	wordpools/wasnorm_wordpool_less_exclusions.txt	LTP222	ltpFR	1	1	0	HEDGE	699	n/a	1	0	0.5869140625	0.422607421875	upper	../fonts/amplitud.ttf
563.198	n/a	WORD	281599	wordpools/wasnorm_wordpool_less_exclusions.txt	LTP222	ltpFR	1	1	1	GALAXY	617	n/a	0	1	0.412841796875	0.57763671875	lower	../fonts/zerothre.ttf
567.22	n/a	WORD	283610	wordpools/wasnorm_wordpool_less_exclusions.txt	LTP222	ltpFR	1	1	1	FLASHLIGHT	575	n/a	0	1	0.412841796875	0.57763671875	lower	../fonts/zerothre.ttf
571.052	n/a	WORD	285526	wordpools/wasnorm_wordpool_less_exclusions.txt	LTP222	ltpFR	1	1	1	EAGLE	512	n/a	1	1	0.412841796875	0.57763671875	lower	../fonts/zerothre.ttf
575.192	n/a	WORD	287596	wordpools/wasnorm_wordpool_less_exclusions.txt	LTP222	ltpFR	1	1	1	WAX	1597	n/a	0	1	0.412841796875	0.57763671875	lower	../fonts/zerothre.ttf
579.292	n/a	WORD	289646	wordpools/wasnorm_wordpool_less_exclusions.txt	LTP222	ltpFR	1	1	1	TOAD	1470	n/a	1	1	0.412841796875	0.57763671875	lower	../fonts/zerothre.ttf
583.282	n/a	WORD	291641	wordpools/wasnorm_wordpool_less_exclusions.txt	LTP222	ltpFR	1	1	1	CATCHER	258	n/a	1	1	0.412841796875	0.57763671875	lower	../fonts/zerothre.ttf
587.196	n/a	WORD	293598	wordpools/wasnorm_wordpool_less_exclusions.txt	LTP222	ltpFR	1	1	0	PORT	1110	n/a	2	0	0.5869140625	0.422607421875	upper	../fonts/amplitud.ttf
588.736	n/a	KEY_MSG	294368	n/a	LTP222	ltpFR	1	1	n/a	n/a	n/a	n/a	n/a	n/a	n/a	n/a	n/a	n/a
591.254	n/a	WORD	295627	wordpools/wasnorm_wordpool_less_exclusions.txt	LTP222	ltpFR	1	1	0	CANOE	233	n/a	1	0	0.5869140625	0.422607421875	upper	../fonts/amplitud.ttf
595.336	n/a	WORD	297668	wordpools/wasnorm_wordpool_less_exclusions.txt	LTP222	ltpFR	1	1	0	JUPITER	765	n/a	1	0	0.5869140625	0.422607421875	upper	../fonts/amplitud.ttf
599.536	n/a	WORD	299768	wordpools/wasnorm_wordpool_less_exclusions.txt	LTP222	ltpFR	1	1	0	WAITER	1580	n/a	1	0	0.5869140625	0.422607421875	upper	../fonts/amplitud.ttf
603.39	n/a	WORD	301695	wordpools/wasnorm_wordpool_less_exclusions.txt	LTP222	ltpFR	1	1	1	TURKEY	1520	n/a	1	1	0.412841796875	0.57763671875	lower	../fonts/zerothre.ttf
607.55	n/a	WORD	303775	wordpools/wasnorm_wordpool_less_exclusions.txt	LTP222	ltpFR	1	1	1	PIGEON	1065	n/a	1	1	0.412841796875	0.57763671875	lower	../fonts/zerothre.ttf
613.238	n/a	REC_START	306619	n/a	LTP222	ltpFR	1	1	n/a	n/a	n/a	n/a	n/a	n/a	n/a	n/a	n/a	n/a
621.636	n/a	REC_WORD	310818	wordpools/wasnorm_wordpool_less_exclusions.txt	LTP222	ltpFR	1	1	1	GALAXY	617	n/a	0	n/a	n/a	n/a	n/a	n/a
625.642	n/a	REC_WORD	312821	wordpools/wasnorm_wordpool_less_exclusions.txt	LTP222	ltpFR	1	1	0	TYPEWRITER	1531	n/a	1	n/a	n/a	n/a	n/a	n/a
634.746	n/a	REC_WORD	317373	wordpools/wasnorm_wordpool_less_exclusions.txt	LTP222	ltpFR	1	1	n/a	WAITRESS	1581	n/a	n/a	n/a	n/a	n/a	n/a	n/a
641.596	n/a	REC_WORD	320798	wordpools/wasnorm_wordpool_less_exclusions.txt	LTP222	ltpFR	1	1	0	HEDGE	699	n/a	1	n/a	n/a	n/a	n/a	n/a
644.998	n/a	REC_WORD	322499	wordpools/wasnorm_wordpool_less_exclusions.txt	LTP222	ltpFR	1	1	1	CATCHER	258	n/a	1	n/a	n/a	n/a	n/a	n/a
649.658	n/a	REC_WORD	324829	wordpools/wasnorm_wordpool_less_exclusions.txt	LTP222	ltpFR	1	1	1	TOAD	1470	n/a	1	n/a	n/a	n/a	n/a	n/a
656.812	n/a	REC_WORD	328406	wordpools/wasnorm_wordpool_less_exclusions.txt	LTP222	ltpFR	1	1	n/a	SEAPORT	-1	n/a	n/a	n/a	n/a	n/a	n/a	n/a
682.928	n/a	REC_WORD	341464	wordpools/wasnorm_wordpool_less_exclusions.txt	LTP222	ltpFR	1	1	1	PIGEON	1065	n/a	1	n/a	n/a	n/a	n/a	n/a
697.242	n/a	WORD	348621	wordpools/wasnorm_wordpool_less_exclusions.txt	LTP222	ltpFR	1	2	1	SURVEY	1414	n/a	0	1	0.412841796875	0.57763671875	lower	../fonts/zerothre.ttf
701.208	n/a	WORD	350604	wordpools/wasnorm_wordpool_less_exclusions.txt	LTP222	ltpFR	1	2	1	HAMBURGER	679	n/a	0	1	0.412841796875	0.57763671875	lower	../fonts/zerothre.ttf
705.248	n/a	WORD	352624	wordpools/wasnorm_wordpool_less_exclusions.txt	LTP222	ltpFR	1	2	0	BREAST	171	n/a	0	0	0.5869140625	0.422607421875	upper	../fonts/amplitud.ttf
709.328	n/a	WORD	354664	wordpools/wasnorm_wordpool_less_exclusions.txt	LTP222	ltpFR	1	2	0	CHICK	296	n/a	3	0	0.5869140625	0.422607421875	upper	../fonts/amplitud.ttf
711.388	n/a	KEY_MSG	355694	n/a	LTP222	ltpFR	1	2	n/a	n/a	n/a	n/a	n/a	n/a	n/a	n/a	n/a	n/a
714.09	n/a	WORD	357045	wordpools/wasnorm_wordpool_less_exclusions.txt	LTP222	ltpFR	1	2	0	LIMOUSINE	824	n/a	1	0	0.5869140625	0.422607421875	upper	../fonts/amplitud.ttf
718.114	n/a	WORD	359057	wordpools/wasnorm_wordpool_less_exclusions.txt	LTP222	ltpFR	1	2	0	CAR	241	n/a	1	0	0.5869140625	0.422607421875	upper	../fonts/amplitud.ttf
722.204	n/a	WORD	361102	wordpools/wasnorm_wordpool_less_exclusions.txt	LTP222	ltpFR	1	2	1	CAMEL	223	n/a	1	1	0.412841796875	0.57763671875	lower	../fonts/zerothre.ttf
726.12	n/a	WORD	363060	wordpools/wasnorm_wordpool_less_exclusions.txt	LTP222	ltpFR	1	2	1	FLASK	576	n/a	0	1	0.412841796875	0.57763671875	lower	../fonts/zerothre.ttf
730.036	n/a	WORD	365018	wordpools/wasnorm_wordpool_less_exclusions.txt	LTP222	ltpFR	1	2	1	GIFT	635	n/a	0	1	0.412841796875	0.57763671875	lower	../fonts/zerothre.ttf
734.068	n/a	WORD	367034	wordpools/wasnorm_wordpool_less_exclusions.txt	LTP222	ltpFR	1	2	1	ELECTRON	522	n/a	0	1	0.412841796875	0.57763671875	lower	../fonts/zerothre.ttf
738.14	n/a	WORD	369070	wordpools/wasnorm_wordpool_less_exclusions.txt	LTP222	ltpFR	1	2	0	WILDERNESS	1610	n/a	1	0	0.5869140625	0.422607421875	upper	../fonts/amplitud.ttf
742.304	n/a	WORD	371152	wordpools/wasnorm_wordpool_less_exclusions.txt	LTP222	ltpFR	1	2	0	LOG	841	n/a	0	0	0.5869140625	0.422607421875	upper	../fonts/amplitud.ttf
746.264	n/a	WORD	373132	wordpools/wasnorm_wordpool_less_exclusions.txt	LTP222	ltpFR	1	2	0	SARDINE	1235	n/a	0	0	0.5869140625	0.422607421875	upper	../fonts/amplitud.ttf
750.402	n/a	WORD	375201	wordpools/wasnorm_wordpool_less_exclusions.txt	LTP222	ltpFR	1	2	0	BARTENDER	92	n/a	1	0	0.5869140625	0.422607421875	upper	../fonts/amplitud.ttf
754.444	n/a	WORD	377222	wordpools/wasnorm_wordpool_less_exclusions.txt	LTP222	ltpFR	1	2	1	CRAB	397	n/a	1	1	0.412841796875	0.57763671875	lower	../fonts/zerothre.ttf
758.51	n/a	WORD	379255	wordpools/wasnorm_wordpool_less_exclusions.txt	LTP222	ltpFR	1	2	1	LOBSTER	837	n/a	1	1	0.412841796875	0.57763671875	lower	../fonts/zerothre.ttf
764.382	n/a	REC_START	382191	n/a	LTP222	ltpFR	1	2	n/a	n/a	n/a	n/a	n/a	n/a	n/a	n/a	n/a	n/a
766.886	n/a	REC_WORD	383443	wordpools/wasnorm_wordpool_less_exclusions.txt	LTP222	ltpFR	1	2	1	CRAB	397	n/a	1	n/a	n/a	n/a	n/a	n/a
767.98	n/a	REC_WORD	383990	wordpools/wasnorm_wordpool_less_exclusions.txt	LTP222	ltpFR	1	2	1	LOBSTER	837	n/a	1	n/a	n/a	n/a	n/a	n/a
769.322	n/a	REC_WORD	384661	wordpools/wasnorm_wordpool_less_exclusions.txt	LTP222	ltpFR	1	2	0	BARTENDER	92	n/a	1	n/a	n/a	n/a	n/a	n/a
784.378	n/a	REC_WORD	392189	wordpools/wasnorm_wordpool_less_exclusions.txt	LTP222	ltpFR	1	2	1	FLASK	576	n/a	0	n/a	n/a	n/a	n/a	n/a
790.366	n/a	REC_WORD	395183	wordpools/wasnorm_wordpool_less_exclusions.txt	LTP222	ltpFR	1	2	0	CAR	241	n/a	1	n/a	n/a	n/a	n/a	n/a
791.436	n/a	REC_WORD	395718	wordpools/wasnorm_wordpool_less_exclusions.txt	LTP222	ltpFR	1	2	0	LIMOUSINE	824	n/a	1	n/a	n/a	n/a	n/a	n/a
805.552	n/a	REC_WORD	402776	wordpools/wasnorm_wordpool_less_exclusions.txt	LTP222	ltpFR	1	2	n/a	MENU	-1	n/a	n/a	n/a	n/a	n/a	n/a	n/a
806.292	n/a	REC_WORD_VV	403146	wordpools/wasnorm_wordpool_less_exclusions.txt	LTP222	ltpFR	1	2	n/a	<>	-1	n/a	n/a	n/a	n/a	n/a	n/a	n/a
816.228	n/a	REC_WORD	408114	wordpools/wasnorm_wordpool_less_exclusions.txt	LTP222	ltpFR	1	2	n/a	NEURON	-1	n/a	n/a	n/a	n/a	n/a	n/a	n/a
817.732	n/a	REC_WORD	408866	wordpools/wasnorm_wordpool_less_exclusions.txt	LTP222	ltpFR	1	2	1	ELECTRON	522	n/a	0	n/a	n/a	n/a	n/a	n/a
820.892	n/a	REC_WORD_VV	410446	wordpools/wasnorm_wordpool_less_exclusions.txt	LTP222	ltpFR	1	2	n/a	<>	-1	n/a	n/a	n/a	n/a	n/a	n/a	n/a
833.42	n/a	REC_WORD	416710	wordpools/wasnorm_wordpool_less_exclusions.txt	LTP222	ltpFR	1	2	1	FLASHLIGHT	575	n/a	0	n/a	n/a	n/a	n/a	n/a
845.836	n/a	WORD	422918	wordpools/wasnorm_wordpool_less_exclusions.txt	LTP222	ltpFR	1	3	0	LILY	821	n/a	n/a	0	0.5869140625	0.422607421875	upper	../fonts/amplitud.ttf
848.88	n/a	SLOW_MSG	424440	n/a	LTP222	ltpFR	1	3	n/a	n/a	n/a	n/a	n/a	n/a	n/a	n/a	n/a	n/a
851.482	n/a	WORD	425741	wordpools/wasnorm_wordpool_less_exclusions.txt	LTP222	ltpFR	1	3	0	BUN	197	n/a	n/a	0	0.5869140625	0.422607421875	upper	../fonts/amplitud.ttf
854.528	n/a	SLOW_MSG	427264	n/a	LTP222	ltpFR	1	3	n/a	n/a	n/a	n/a	n/a	n/a	n/a	n/a	n/a	n/a
857.086	n/a	WORD	428543	wordpools/wasnorm_wordpool_less_exclusions.txt	LTP222	ltpFR	1	3	0	SPIDER	1351	n/a	0	0	0.5869140625	0.422607421875	upper	../fonts/amplitud.ttf
861.136	n/a	WORD	430568	wordpools/wasnorm_wordpool_less_exclusions.txt	LTP222	ltpFR	1	3	0	COTTON	385	n/a	0	0	0.5869140625	0.422607421875	upper	../fonts/amplitud.ttf
865.108	n/a	WORD	432554	wordpools/wasnorm_wordpool_less_exclusions.txt	LTP222	ltpFR	1	3	1	SHEEP	1278	n/a	1	1	0.412841796875	0.57763671875	lower	../fonts/zerothre.ttf
869.266	n/a	WORD	434633	wordpools/wasnorm_wordpool_less_exclusions.txt	LTP222	ltpFR	1	3	1	SWATTER	1418	n/a	0	1	0.412841796875	0.57763671875	lower	../fonts/zerothre.ttf
873.332	n/a	WORD	436666	wordpools/wasnorm_wordpool_less_exclusions.txt	LTP222	ltpFR	1	3	1	GOO	648	n/a	0	1	0.412841796875	0.57763671875	lower	../fonts/zerothre.ttf
877.404	n/a	WORD	438702	wordpools/wasnorm_wordpool_less_exclusions.txt	LTP222	ltpFR	1	3	1	CONSUMER	365	n/a	1	1	0.412841796875	0.57763671875	lower	../fonts/zerothre.ttf
881.436	n/a	WORD	440718	wordpools/wasnorm_wordpool_less_exclusions.txt	LTP222	ltpFR	1	3	0	OWNER	993	n/a	0	0	0.5869140625	0.422607421875	upper	../fonts/amplitud.ttf
885.36	n/a	WORD	442680	wordpools/wasnorm_wordpool_less_exclusions.txt	LTP222	ltpFR	1	3	0	SHARK	1275	n/a	1	0	0.5869140625	0.422607421875	upper	../fonts/amplitud.ttf
889.434	n/a	WORD	444717	wordpools/wasnorm_wordpool_less_exclusions.txt	LTP222	ltpFR	1	3	0	SQUID	1361	n/a	0	0	0.5869140625	0.422607421875	upper	../fonts/amplitud.ttf
893.316	n/a	WORD	446658	wordpools/wasnorm_wordpool_less_exclusions.txt	LTP222	ltpFR	1	3	0	PISTON	1076	n/a	0	0	0.5869140625	0.422607421875	upper	../fonts/amplitud.ttf
897.532	n/a	WORD	448766	wordpools/wasnorm_wordpool_less_exclusions.txt	LTP222	ltpFR	1	3	1	TOOL	1480	n/a	0	1	0.412841796875	0.57763671875	lower	../fonts/zerothre.ttf
901.574	n/a	WORD	450787	wordpools/wasnorm_wordpool_less_exclusions.txt	LTP222	ltpFR	1	3	1	MUFFIN	929	n/a	0	1	0.412841796875	0.57763671875	lower	../fonts/zerothre.ttf
905.63	n/a	WORD	452815	wordpools/wasnorm_wordpool_less_exclusions.txt	LTP222	ltpFR	1	3	1	ANT	25	n/a	1	1	0.412841796875	0.57763671875	lower	../fonts/zerothre.ttf
909.57	n/a	WORD	454785	wordpools/wasnorm_wordpool_less_exclusions.txt	LTP222	ltpFR	1	3	1	CAMERA	224	n/a	0	1	0.412841796875	0.57763671875	lower	../fonts/zerothre.ttf
915.594	n/a	REC_START	457797	n/a	LTP222	ltpFR	1	3	n/a	n/a	n/a	n/a	n/a	n/a	n/a	n/a	n/a	n/a
919.832	n/a	REC_WORD	459916	wordpools/wasnorm_wordpool_less_exclusions.txt	LTP222	ltpFR	1	3	1	CAMERA	224	n/a	0	n/a	n/a	n/a	n/a	n/a
927.7	n/a	REC_WORD	463850	wordpools/wasnorm_wordpool_less_exclusions.txt	LTP222	ltpFR	1	3	0	LILY	821	n/a	n/a	n/a	n/a	n/a	n/a	n/a
940.654	n/a	REC_WORD	470327	wordpools/wasnorm_wordpool_less_exclusions.txt	LTP222	ltpFR	1	3	0	OWNER	993	n/a	0	n/a	n/a	n/a	n/a	n/a
1143.038	n/a	WORD	571519	wordpools/wasnorm_wordpool_less_exclusions.txt	LTP222	ltpFR	1	4	-1	ZEBRA	1635	n/a	-1	1	1.0	1.0	upper	../fonts/Verdana.ttf
1146.894	n/a	WORD	573447	wordpools/wasnorm_wordpool_less_exclusions.txt	LTP222	ltpFR	1	4	-1	CATERPILLAR	259	n/a	-1	1	1.0	1.0	upper	../fonts/Verdana.ttf
1150.868	n/a	WORD	575434	wordpools/wasnorm_wordpool_less_exclusions.txt	LTP222	ltpFR	1	4	-1	ASTRONAUT	51	n/a	-1	1	1.0	1.0	upper	../fonts/Verdana.ttf
1155.0	n/a	WORD	577500	wordpools/wasnorm_wordpool_less_exclusions.txt	LTP222	ltpFR	1	4	-1	CONCRETE	361	n/a	-1	1	1.0	1.0	upper	../fonts/Verdana.ttf
1159.166	n/a	WORD	579583	wordpools/wasnorm_wordpool_less_exclusions.txt	LTP222	ltpFR	1	4	-1	LIVER	833	n/a	-1	1	1.0	1.0	upper	../fonts/Verdana.ttf
1163.224	n/a	WORD	581612	wordpools/wasnorm_wordpool_less_exclusions.txt	LTP222	ltpFR	1	4	-1	CARAVAN	242	n/a	-1	1	1.0	1.0	upper	../fonts/Verdana.ttf
1167.13	n/a	WORD	583565	wordpools/wasnorm_wordpool_less_exclusions.txt	LTP222	ltpFR	1	4	-1	HOOD	714	n/a	-1	1	1.0	1.0	upper	../fonts/Verdana.ttf
1171.062	n/a	WORD	585531	wordpools/wasnorm_wordpool_less_exclusions.txt	LTP222	ltpFR	1	4	-1	BRACELET	163	n/a	-1	1	1.0	1.0	upper	../fonts/Verdana.ttf
1175.202	n/a	WORD	587601	wordpools/wasnorm_wordpool_less_exclusions.txt	LTP222	ltpFR	1	4	-1	LETTUCE	814	n/a	-1	1	1.0	1.0	upper	../fonts/Verdana.ttf
1179.308	n/a	WORD	589654	wordpools/wasnorm_wordpool_less_exclusions.txt	LTP222	ltpFR	1	4	-1	SPACE	1345	n/a	-1	1	1.0	1.0	upper	../fonts/Verdana.ttf
1183.358	n/a	WORD	591679	wordpools/wasnorm_wordpool_less_exclusions.txt	LTP222	ltpFR	1	4	-1	ROOF	1205	n/a	-1	1	1.0	1.0	upper	../fonts/Verdana.ttf
1187.44	n/a	WORD	593720	wordpools/wasnorm_wordpool_less_exclusions.txt	LTP222	ltpFR	1	4	-1	OUTLAW	989	n/a	-1	1	1.0	1.0	upper	../fonts/Verdana.ttf
1191.404	n/a	WORD	595702	wordpools/wasnorm_wordpool_less_exclusions.txt	LTP222	ltpFR	1	4	-1	TICK	1463	n/a	-1	1	1.0	1.0	upper	../fonts/Verdana.ttf
1195.546	n/a	WORD	597773	wordpools/wasnorm_wordpool_less_exclusions.txt	LTP222	ltpFR	1	4	-1	HAND	683	n/a	-1	1	1.0	1.0	upper	../fonts/Verdana.ttf
1199.748	n/a	WORD	599874	wordpools/wasnorm_wordpool_less_exclusions.txt	LTP222	ltpFR	1	4	-1	FINGER	567	n/a	-1	1	1.0	1.0	upper	../fonts/Verdana.ttf
1203.804	n/a	WORD	601902	wordpools/wasnorm_wordpool_less_exclusions.txt	LTP222	ltpFR	1	4	-1	RUG	1215	n/a	-1	1	1.0	1.0	upper	../fonts/Verdana.ttf
1209.752	n/a	REC_START	604876	n/a	LTP222	ltpFR	1	4	n/a	n/a	n/a	n/a	n/a	n/a	n/a	n/a	n/a	n/a
1212.338	n/a	REC_WORD	606169	wordpools/wasnorm_wordpool_less_exclusions.txt	LTP222	ltpFR	1	4	-1	RUG	1215	n/a	-1	n/a	n/a	n/a	n/a	n/a
1213.634	n/a	REC_WORD	606817	wordpools/wasnorm_wordpool_less_exclusions.txt	LTP222	ltpFR	1	4	-1	CATERPILLAR	259	n/a	-1	n/a	n/a	n/a	n/a	n/a
1215.154	n/a	REC_WORD	607577	wordpools/wasnorm_wordpool_less_exclusions.txt	LTP222	ltpFR	1	4	-1	HAND	683	n/a	-1	n/a	n/a	n/a	n/a	n/a
1216.486	n/a	REC_WORD	608243	wordpools/wasnorm_wordpool_less_exclusions.txt	LTP222	ltpFR	1	4	-1	FINGER	567	n/a	-1	n/a	n/a	n/a	n/a	n/a
1218.204	n/a	REC_WORD	609102	wordpools/wasnorm_wordpool_less_exclusions.txt	LTP222	ltpFR	1	4	n/a	NECKLACE	940	n/a	n/a	n/a	n/a	n/a	n/a	n/a
1242.72	n/a	REC_WORD	621360	wordpools/wasnorm_wordpool_less_exclusions.txt	LTP222	ltpFR	1	4	-1	HOOD	714	n/a	-1	n/a	n/a	n/a	n/a	n/a
1270.408	n/a	REC_WORD	635204	wordpools/wasnorm_wordpool_less_exclusions.txt	LTP222	ltpFR	1	4	1	ANT	25	n/a	1	n/a	n/a	n/a	n/a	n/a
1293.262	n/a	WORD	646631	wordpools/wasnorm_wordpool_less_exclusions.txt	LTP222	ltpFR	1	5	0	RICE	1190	n/a	0	0	0.5869140625	0.422607421875	upper	../fonts/amplitud.ttf
1297.46	n/a	WORD	648730	wordpools/wasnorm_wordpool_less_exclusions.txt	LTP222	ltpFR	1	5	0	BEAN	105	n/a	0	0	0.5869140625	0.422607421875	upper	../fonts/amplitud.ttf
1301.342	n/a	WORD	650671	wordpools/wasnorm_wordpool_less_exclusions.txt	LTP222	ltpFR	1	5	0	BASKET	95	n/a	0	0	0.5869140625	0.422607421875	upper	../fonts/amplitud.ttf
1305.224	n/a	WORD	652612	wordpools/wasnorm_wordpool_less_exclusions.txt	LTP222	ltpFR	1	5	0	WHISKERS	1605	n/a	0	0	0.5869140625	0.422607421875	upper	../fonts/amplitud.ttf
1309.222	n/a	WORD	654611	wordpools/wasnorm_wordpool_less_exclusions.txt	LTP222	ltpFR	1	5	0	SPIT	1354	n/a	0	0	0.5869140625	0.422607421875	upper	../fonts/amplitud.ttf
1313.38	n/a	WORD	656690	wordpools/wasnorm_wordpool_less_exclusions.txt	LTP222	ltpFR	1	5	0	BARK	87	n/a	0	0	0.5869140625	0.422607421875	upper	../fonts/amplitud.ttf
1317.286	n/a	WORD	658643	wordpools/wasnorm_wordpool_less_exclusions.txt	LTP222	ltpFR	1	5	0	PERCH	1048	n/a	0	0	0.5869140625	0.422607421875	upper	../fonts/amplitud.ttf
1321.452	n/a	WORD	660726	wordpools/wasnorm_wordpool_less_exclusions.txt	LTP222	ltpFR	1	5	0	WITCH	1617	n/a	1	0	0.5869140625	0.422607421875	upper	../fonts/amplitud.ttf
1325.494	n/a	WORD	662747	wordpools/wasnorm_wordpool_less_exclusions.txt	LTP222	ltpFR	1	5	0	DAISY	435	n/a	0	0	0.5869140625	0.422607421875	upper	../fonts/amplitud.ttf
1329.358	n/a	WORD	664679	wordpools/wasnorm_wordpool_less_exclusions.txt	LTP222	ltpFR	1	5	0	GARDEN	623	n/a	1	0	0.5869140625	0.422607421875	upper	../fonts/amplitud.ttf
1333.348	n/a	WORD	666674	wordpools/wasnorm_wordpool_less_exclusions.txt	LTP222	ltpFR	1	5	0	REFRIGERATOR	1179	n/a	0	0	0.5869140625	0.422607421875	upper	../fonts/amplitud.ttf
1337.462	n/a	WORD	668731	wordpools/wasnorm_wordpool_less_exclusions.txt	LTP222	ltpFR	1	5	0	TROPHY	1509	n/a	0	0	0.5869140625	0.422607421875	upper	../fonts/amplitud.ttf
1341.58	n/a	WORD	670790	wordpools/wasnorm_wordpool_less_exclusions.txt	LTP222	ltpFR	1	5	0	BROOM	178	n/a	1	0	0.5869140625	0.422607421875	upper	../fonts/amplitud.ttf
1345.738	n/a	WORD	672869	wordpools/wasnorm_wordpool_less_exclusions.txt	LTP222	ltpFR	1	5	0	FEATHER	557	n/a	0	0	0.5869140625	0.422607421875	upper	../fonts/amplitud.ttf
1349.644	n/a	WORD	674822	wordpools/wasnorm_wordpool_less_exclusions.txt	LTP222	ltpFR	1	5	0	SISTER	1312	n/a	1	0	0.5869140625	0.422607421875	upper	../fonts/amplitud.ttf
1353.71	n/a	WORD	676855	wordpools/wasnorm_wordpool_less_exclusions.txt	LTP222	ltpFR	1	5	0	LUNCH	849	n/a	0	0	0.5869140625	0.422607421875	upper	../fonts/amplitud.ttf
1359.732	n/a	REC_START	679866	n/a	LTP222	ltpFR	1	5	n/a	n/a	n/a	n/a	n/a	n/a	n/a	n/a	n/a	n/a
1363.06	n/a	REC_WORD	681530	wordpools/wasnorm_wordpool_less_exclusions.txt	LTP222	ltpFR	1	5	0	LUNCH	849	n/a	0	n/a	n/a	n/a	n/a	n/a
1364.128	n/a	REC_WORD	682064	wordpools/wasnorm_wordpool_less_exclusions.txt	LTP222	ltpFR	1	5	0	WITCH	1617	n/a	1	n/a	n/a	n/a	n/a	n/a
1365.406	n/a	REC_WORD	682703	wordpools/wasnorm_wordpool_less_exclusions.txt	LTP222	ltpFR	1	5	0	BROOM	178	n/a	1	n/a	n/a	n/a	n/a	n/a
1369.706	n/a	REC_WORD	684853	wordpools/wasnorm_wordpool_less_exclusions.txt	LTP222	ltpFR	1	5	0	REFRIGERATOR	1179	n/a	0	n/a	n/a	n/a	n/a	n/a
1370.704	n/a	REC_WORD_VV	685352	wordpools/wasnorm_wordpool_less_exclusions.txt	LTP222	ltpFR	1	5	n/a	<>	-1	n/a	n/a	n/a	n/a	n/a	n/a	n/a
1375.192	n/a	REC_WORD	687596	wordpools/wasnorm_wordpool_less_exclusions.txt	LTP222	ltpFR	1	5	0	LILY	821	n/a	n/a	n/a	n/a	n/a	n/a	n/a
1397.902	n/a	REC_WORD	698951	wordpools/wasnorm_wordpool_less_exclusions.txt	LTP222	ltpFR	1	5	0	RICE	1190	n/a	0	n/a	n/a	n/a	n/a	n/a
1401.574	n/a	REC_WORD	700787	wordpools/wasnorm_wordpool_less_exclusions.txt	LTP222	ltpFR	1	5	0	GARDEN	623	n/a	1	n/a	n/a	n/a	n/a	n/a
1410.522	n/a	REC_WORD	705261	wordpools/wasnorm_wordpool_less_exclusions.txt	LTP222	ltpFR	1	5	0	SISTER	1312	n/a	1	n/a	n/a	n/a	n/a	n/a
1433.958	n/a	REC_WORD	716979	wordpools/wasnorm_wordpool_less_exclusions.txt	LTP222	ltpFR	1	5	0	BROOM	178	n/a	1	n/a	n/a	n/a	n/a	n/a
1440.466	n/a	WORD	720233	wordpools/wasnorm_wordpool_less_exclusions.txt	LTP222	ltpFR	1	6	0	GARBAGE	622	n/a	n/a	0	0.5869140625	0.422607421875	upper	../fonts/amplitud.ttf
1443.512	n/a	SLOW_MSG	721756	n/a	LTP222	ltpFR	1	6	n/a	n/a	n/a	n/a	n/a	n/a	n/a	n/a	n/a	n/a
1445.972	n/a	WORD	722986	wordpools/wasnorm_wordpool_less_exclusions.txt	LTP222	ltpFR	1	6	0	FILM	565	n/a	n/a	0	0.5869140625	0.422607421875	upper	../fonts/amplitud.ttf
1449.016	n/a	SLOW_MSG	724508	n/a	LTP222	ltpFR	1	6	n/a	n/a	n/a	n/a	n/a	n/a	n/a	n/a	n/a	n/a
1451.76	n/a	WORD	725880	wordpools/wasnorm_wordpool_less_exclusions.txt	LTP222	ltpFR	1	6	0	DISC	473	n/a	0	0	0.5869140625	0.422607421875	upper	../fonts/amplitud.ttf
1455.966	n/a	WORD	727983	wordpools/wasnorm_wordpool_less_exclusions.txt	LTP222	ltpFR	1	6	0	HALL	677	n/a	1	0	0.5869140625	0.422607421875	upper	../fonts/amplitud.ttf
1460.132	n/a	WORD	730066	wordpools/wasnorm_wordpool_less_exclusions.txt	LTP222	ltpFR	1	6	0	LOCK	838	n/a	0	0	0.5869140625	0.422607421875	upper	../fonts/amplitud.ttf
1464.032	n/a	WORD	732016	wordpools/wasnorm_wordpool_less_exclusions.txt	LTP222	ltpFR	1	6	0	BLUEJAY	141	n/a	0	0	0.5869140625	0.422607421875	upper	../fonts/amplitud.ttf
1467.988	n/a	WORD	733994	wordpools/wasnorm_wordpool_less_exclusions.txt	LTP222	ltpFR	1	6	0	BALLERINA	74	n/a	1	0	0.5869140625	0.422607421875	upper	../fonts/amplitud.ttf
1472.004	n/a	WORD	736002	wordpools/wasnorm_wordpool_less_exclusions.txt	LTP222	ltpFR	1	6	0	FOUNTAIN	597	n/a	1	0	0.5869140625	0.422607421875	upper	../fonts/amplitud.ttf
1476.22	n/a	WORD	738110	wordpools/wasnorm_wordpool_less_exclusions.txt	LTP222	ltpFR	1	6	0	CONTAINER	366	n/a	1	0	0.5869140625	0.422607421875	upper	../fonts/amplitud.ttf
1480.284	n/a	WORD	740142	wordpools/wasnorm_wordpool_less_exclusions.txt	LTP222	ltpFR	1	6	0	BOUQUET	157	n/a	1	0	0.5869140625	0.422607421875	upper	../fonts/amplitud.ttf
1484.418	n/a	WORD	742209	wordpools/wasnorm_wordpool_less_exclusions.txt	LTP222	ltpFR	1	6	0	CRITIC	410	n/a	1	0	0.5869140625	0.422607421875	upper	../fonts/amplitud.ttf
1488.24	n/a	WORD	744120	wordpools/wasnorm_wordpool_less_exclusions.txt	LTP222	ltpFR	1	6	0	WASP	1593	n/a	0	0	0.5869140625	0.422607421875	upper	../fonts/amplitud.ttf
1492.248	n/a	WORD	746124	wordpools/wasnorm_wordpool_less_exclusions.txt	LTP222	ltpFR	1	6	0	VIOLIN	1571	n/a	1	0	0.5869140625	0.422607421875	upper	../fonts/amplitud.ttf
1496.304	n/a	WORD	748152	wordpools/wasnorm_wordpool_less_exclusions.txt	LTP222	ltpFR	1	6	0	MILITARY	894	n/a	1	0	0.5869140625	0.422607421875	upper	../fonts/amplitud.ttf
1500.296	n/a	WORD	750148	wordpools/wasnorm_wordpool_less_exclusions.txt	LTP222	ltpFR	1	6	0	TANK	1432	n/a	1	0	0.5869140625	0.422607421875	upper	../fonts/amplitud.ttf
1504.41	n/a	WORD	752205	wordpools/wasnorm_wordpool_less_exclusions.txt	LTP222	ltpFR	1	6	0	ROUGE	1213	n/a	0	0	0.5869140625	0.422607421875	upper	../fonts/amplitud.ttf
1510.518	n/a	REC_START	755259	n/a	LTP222	ltpFR	1	6	n/a	n/a	n/a	n/a	n/a	n/a	n/a	n/a	n/a	n/a
1513.218	n/a	REC_WORD	756609	wordpools/wasnorm_wordpool_less_exclusions.txt	LTP222	ltpFR	1	6	0	ROUGE	1213	n/a	0	n/a	n/a	n/a	n/a	n/a
1514.798	n/a	REC_WORD	757399	wordpools/wasnorm_wordpool_less_exclusions.txt	LTP222	ltpFR	1	6	0	MILITARY	894	n/a	1	n/a	n/a	n/a	n/a	n/a
1515.802	n/a	REC_WORD_VV	757901	wordpools/wasnorm_wordpool_less_exclusions.txt	LTP222	ltpFR	1	6	n/a	<>	-1	n/a	n/a	n/a	n/a	n/a	n/a	n/a
1516.57	n/a	REC_WORD	758285	wordpools/wasnorm_wordpool_less_exclusions.txt	LTP222	ltpFR	1	6	0	BOUQUET	157	n/a	1	n/a	n/a	n/a	n/a	n/a
1517.558	n/a	REC_WORD_VV	758779	wordpools/wasnorm_wordpool_less_exclusions.txt	LTP222	ltpFR	1	6	n/a	<>	-1	n/a	n/a	n/a	n/a	n/a	n/a	n/a
1518.306	n/a	REC_WORD	759153	wordpools/wasnorm_wordpool_less_exclusions.txt	LTP222	ltpFR	1	6	0	BALLERINA	74	n/a	1	n/a	n/a	n/a	n/a	n/a
1536.634	n/a	REC_WORD	768317	wordpools/wasnorm_wordpool_less_exclusions.txt	LTP222	ltpFR	1	6	0	TANK	1432	n/a	1	n/a	n/a	n/a	n/a	n/a
1541.604	n/a	REC_WORD	770802	wordpools/wasnorm_wordpool_less_exclusions.txt	LTP222	ltpFR	1	6	0	ROUGE	1213	n/a	0	n/a	n/a	n/a	n/a	n/a
1543.716	n/a	REC_WORD_VV	771858	wordpools/wasnorm_wordpool_less_exclusions.txt	LTP222	ltpFR	1	6	n/a	<>	-1	n/a	n/a	n/a	n/a	n/a	n/a	n/a
1591.962	n/a	WORD	795981	wordpools/wasnorm_wordpool_less_exclusions.txt	LTP222	ltpFR	1	7	1	SWORD	1423	n/a	0	1	0.412841796875	0.57763671875	lower	../fonts/zerothre.ttf
1596.086	n/a	WORD	798043	wordpools/wasnorm_wordpool_less_exclusions.txt	LTP222	ltpFR	1	7	1	DAM	436	n/a	0	1	0.412841796875	0.57763671875	lower	../fonts/zerothre.ttf
1600.1	n/a	WORD	800050	wordpools/wasnorm_wordpool_less_exclusions.txt	LTP222	ltpFR	1	7	1	PORCH	1106	n/a	0	1	0.412841796875	0.57763671875	lower	../fonts/zerothre.ttf
1604.032	n/a	WORD	802016	wordpools/wasnorm_wordpool_less_exclusions.txt	LTP222	ltpFR	1	7	1	ATTORNEY	58	n/a	1	1	0.412841796875	0.57763671875	lower	../fonts/zerothre.ttf
1607.94	n/a	WORD	803970	wordpools/wasnorm_wordpool_less_exclusions.txt	LTP222	ltpFR	1	7	1	SIGNATURE	1306	n/a	0	1	0.412841796875	0.57763671875	lower	../fonts/zerothre.ttf
1611.762	n/a	WORD	805881	wordpools/wasnorm_wordpool_less_exclusions.txt	LTP222	ltpFR	1	7	1	WRITER	1627	n/a	1	1	0.412841796875	0.57763671875	lower	../fonts/zerothre.ttf
1615.594	n/a	WORD	807797	wordpools/wasnorm_wordpool_less_exclusions.txt	LTP222	ltpFR	1	7	1	PUBLISHER	1137	n/a	1	1	0.412841796875	0.57763671875	lower	../fonts/zerothre.ttf
1619.608	n/a	WORD	809804	wordpools/wasnorm_wordpool_less_exclusions.txt	LTP222	ltpFR	1	7	1	LUMBER	848	n/a	0	1	0.412841796875	0.57763671875	lower	../fonts/zerothre.ttf
1623.834	n/a	WORD	811917	wordpools/wasnorm_wordpool_less_exclusions.txt	LTP222	ltpFR	1	7	1	FIREPLACE	570	n/a	0	1	0.412841796875	0.57763671875	lower	../fonts/zerothre.ttf
1628.04	n/a	WORD	814020	wordpools/wasnorm_wordpool_less_exclusions.txt	LTP222	ltpFR	1	7	1	BALCONY	72	n/a	0	1	0.412841796875	0.57763671875	lower	../fonts/zerothre.ttf
1632.05	n/a	WORD	816025	wordpools/wasnorm_wordpool_less_exclusions.txt	LTP222	ltpFR	1	7	1	SUSPECT	1415	n/a	1	1	0.412841796875	0.57763671875	lower	../fonts/zerothre.ttf
1636.232	n/a	WORD	818116	wordpools/wasnorm_wordpool_less_exclusions.txt	LTP222	ltpFR	1	7	1	CREVICE	405	n/a	0	1	0.412841796875	0.57763671875	lower	../fonts/zerothre.ttf
1640.304	n/a	WORD	820152	wordpools/wasnorm_wordpool_less_exclusions.txt	LTP222	ltpFR	1	7	1	COOK	372	n/a	1	1	0.412841796875	0.57763671875	lower	../fonts/zerothre.ttf
1644.236	n/a	WORD	822118	wordpools/wasnorm_wordpool_less_exclusions.txt	LTP222	ltpFR	1	7	1	STOCKING	1383	n/a	0	1	0.412841796875	0.57763671875	lower	../fonts/zerothre.ttf
1648.318	n/a	WORD	824159	wordpools/wasnorm_wordpool_less_exclusions.txt	LTP222	ltpFR	1	7	1	ANTEATER	26	n/a	0	1	0.412841796875	0.57763671875	lower	../fonts/zerothre.ttf
1652.334	n/a	WORD	826167	wordpools/wasnorm_wordpool_less_exclusions.txt	LTP222	ltpFR	1	7	1	MOAT	903	n/a	0	1	0.412841796875	0.57763671875	lower	../fonts/zerothre.ttf
1658.284	n/a	REC_START	829142	n/a	LTP222	ltpFR	1	7	n/a	n/a	n/a	n/a	n/a	n/a	n/a	n/a	n/a	n/a
1661.022	n/a	REC_WORD	830511	wordpools/wasnorm_wordpool_less_exclusions.txt	LTP222	ltpFR	1	7	1	MOAT	903	n/a	0	n/a	n/a	n/a	n/a	n/a
1661.864	n/a	REC_WORD	830932	wordpools/wasnorm_wordpool_less_exclusions.txt	LTP222	ltpFR	1	7	1	ATTORNEY	58	n/a	1	n/a	n/a	n/a	n/a	n/a
1663.286	n/a	REC_WORD	831643	wordpools/wasnorm_wordpool_less_exclusions.txt	LTP222	ltpFR	1	7	1	PUBLISHER	1137	n/a	1	n/a	n/a	n/a	n/a	n/a
1667.088	n/a	REC_WORD	833544	wordpools/wasnorm_wordpool_less_exclusions.txt	LTP222	ltpFR	1	7	1	WRITER	1627	n/a	1	n/a	n/a	n/a	n/a	n/a
1668.462	n/a	REC_WORD	834231	wordpools/wasnorm_wordpool_less_exclusions.txt	LTP222	ltpFR	1	7	1	ANTEATER	26	n/a	0	n/a	n/a	n/a	n/a	n/a
1670.142	n/a	REC_WORD	835071	wordpools/wasnorm_wordpool_less_exclusions.txt	LTP222	ltpFR	1	7	1	DAM	436	n/a	0	n/a	n/a	n/a	n/a	n/a
1673.828	n/a	REC_WORD	836914	wordpools/wasnorm_wordpool_less_exclusions.txt	LTP222	ltpFR	1	7	1	FIREPLACE	570	n/a	0	n/a	n/a	n/a	n/a	n/a
1683.716	n/a	REC_WORD	841858	wordpools/wasnorm_wordpool_less_exclusions.txt	LTP222	ltpFR	1	7	1	MOAT	903	n/a	0	n/a	n/a	n/a	n/a	n/a
1686.226	n/a	REC_WORD	843113	wordpools/wasnorm_wordpool_less_exclusions.txt	LTP222	ltpFR	1	7	1	CREVICE	405	n/a	0	n/a	n/a	n/a	n/a	n/a
1738.054	n/a	WORD	869027	wordpools/wasnorm_wordpool_less_exclusions.txt	LTP222	ltpFR	1	8	-1	CARPENTER	246	n/a	-1	1	1.0	1.0	upper	../fonts/Verdana.ttf
1741.934	n/a	WORD	870967	wordpools/wasnorm_wordpool_less_exclusions.txt	LTP222	ltpFR	1	8	-1	ROAD	1196	n/a	-1	1	1.0	1.0	upper	../fonts/Verdana.ttf
1746.052	n/a	WORD	873026	wordpools/wasnorm_wordpool_less_exclusions.txt	LTP222	ltpFR	1	8	-1	PATH	1023	n/a	-1	1	1.0	1.0	upper	../fonts/Verdana.ttf
1750.124	n/a	WORD	875062	wordpools/wasnorm_wordpool_less_exclusions.txt	LTP222	ltpFR	1	8	-1	FOLDER	588	n/a	-1	1	1.0	1.0	upper	../fonts/Verdana.ttf
1753.964	n/a	WORD	876982	wordpools/wasnorm_wordpool_less_exclusions.txt	LTP222	ltpFR	1	8	-1	PUBLICATION	1136	n/a	-1	1	1.0	1.0	upper	../fonts/Verdana.ttf
1757.98	n/a	WORD	878990	wordpools/wasnorm_wordpool_less_exclusions.txt	LTP222	ltpFR	1	8	-1	PARENT	1013	n/a	-1	1	1.0	1.0	upper	../fonts/Verdana.ttf
1762.07	n/a	WORD	881035	wordpools/wasnorm_wordpool_less_exclusions.txt	LTP222	ltpFR	1	8	-1	WOMAN	1620	n/a	-1	1	1.0	1.0	upper	../fonts/Verdana.ttf
1766.002	n/a	WORD	883001	wordpools/wasnorm_wordpool_less_exclusions.txt	LTP222	ltpFR	1	8	-1	PEPPER	1047	n/a	-1	1	1.0	1.0	upper	../fonts/Verdana.ttf
1769.866	n/a	WORD	884933	wordpools/wasnorm_wordpool_less_exclusions.txt	LTP222	ltpFR	1	8	-1	POND	1101	n/a	-1	1	1.0	1.0	upper	../fonts/Verdana.ttf
1773.882	n/a	WORD	886941	wordpools/wasnorm_wordpool_less_exclusions.txt	LTP222	ltpFR	1	8	-1	SCROLL	1257	n/a	-1	1	1.0	1.0	upper	../fonts/Verdana.ttf
1777.812	n/a	WORD	888906	wordpools/wasnorm_wordpool_less_exclusions.txt	LTP222	ltpFR	1	8	-1	CYLINDER	432	n/a	-1	1	1.0	1.0	upper	../fonts/Verdana.ttf
1781.922	n/a	WORD	890961	wordpools/wasnorm_wordpool_less_exclusions.txt	LTP222	ltpFR	1	8	-1	JEEP	753	n/a	-1	1	1.0	1.0	upper	../fonts/Verdana.ttf
1786.122	n/a	WORD	893061	wordpools/wasnorm_wordpool_less_exclusions.txt	LTP222	ltpFR	1	8	-1	REPORT	1184	n/a	-1	1	1.0	1.0	upper	../fonts/Verdana.ttf
1789.952	n/a	WORD	894976	wordpools/wasnorm_wordpool_less_exclusions.txt	LTP222	ltpFR	1	8	-1	GIRL	637	n/a	-1	1	1.0	1.0	upper	../fonts/Verdana.ttf
1793.958	n/a	WORD	896979	wordpools/wasnorm_wordpool_less_exclusions.txt	LTP222	ltpFR	1	8	-1	TAIL	1430	n/a	-1	1	1.0	1.0	upper	../fonts/Verdana.ttf
1798.024	n/a	WORD	899012	wordpools/wasnorm_wordpool_less_exclusions.txt	LTP222	ltpFR	1	8	-1	FATHER	554	n/a	-1	1	1.0	1.0	upper	../fonts/Verdana.ttf
1803.948	n/a	REC_START	901974	n/a	LTP222	ltpFR	1	8	n/a	n/a	n/a	n/a	n/a	n/a	n/a	n/a	n/a	n/a
1805.334	n/a	REC_WORD	902667	wordpools/wasnorm_wordpool_less_exclusions.txt	LTP222	ltpFR	1	8	-1	CARPENTER	246	n/a	-1	n/a	n/a	n/a	n/a	n/a
1806.412	n/a	REC_WORD	903206	wordpools/wasnorm_wordpool_less_exclusions.txt	LTP222	ltpFR	1	8	-1	ROAD	1196	n/a	-1	n/a	n/a	n/a	n/a	n/a
1807.58	n/a	REC_WORD	903790	wordpools/wasnorm_wordpool_less_exclusions.txt	LTP222	ltpFR	1	8	-1	PATH	1023	n/a	-1	n/a	n/a	n/a	n/a	n/a
1808.746	n/a	REC_WORD	904373	wordpools/wasnorm_wordpool_less_exclusions.txt	LTP222	ltpFR	1	8	-1	PUBLICATION	1136	n/a	-1	n/a	n/a	n/a	n/a	n/a
1810.198	n/a	REC_WORD	905099	wordpools/wasnorm_wordpool_less_exclusions.txt	LTP222	ltpFR	1	8	-1	PARENT	1013	n/a	-1	n/a	n/a	n/a	n/a	n/a
1811.58	n/a	REC_WORD	905790	wordpools/wasnorm_wordpool_less_exclusions.txt	LTP222	ltpFR	1	8	0	SISTER	1312	n/a	1	n/a	n/a	n/a	n/a	n/a
1812.418	n/a	REC_WORD	906209	wordpools/wasnorm_wordpool_less_exclusions.txt	LTP222	ltpFR	1	8	-1	WOMAN	1620	n/a	-1	n/a	n/a	n/a	n/a	n/a
1813.272	n/a	REC_WORD	906636	wordpools/wasnorm_wordpool_less_exclusions.txt	LTP222	ltpFR	1	8	-1	GIRL	637	n/a	-1	n/a	n/a	n/a	n/a	n/a
1813.958	n/a	REC_WORD	906979	wordpools/wasnorm_wordpool_less_exclusions.txt	LTP222	ltpFR	1	8	-1	FATHER	554	n/a	-1	n/a	n/a	n/a	n/a	n/a
1816.754	n/a	REC_WORD	908377	wordpools/wasnorm_wordpool_less_exclusions.txt	LTP222	ltpFR	1	8	-1	JEEP	753	n/a	-1	n/a	n/a	n/a	n/a	n/a
1820.264	n/a	REC_WORD	910132	wordpools/wasnorm_wordpool_less_exclusions.txt	LTP222	ltpFR	1	8	-1	CYLINDER	432	n/a	-1	n/a	n/a	n/a	n/a	n/a
1875.2	n/a	REC_WORD	937600	wordpools/wasnorm_wordpool_less_exclusions.txt	LTP222	ltpFR	1	8	-1	FOLDER	588	n/a	-1	n/a	n/a	n/a	n/a	n/a
1883.408	n/a	WORD	941704	wordpools/wasnorm_wordpool_less_exclusions.txt	LTP222	ltpFR	1	9	0	MUSHROOM	934	n/a	0	0	0.5869140625	0.422607421875	upper	../fonts/amplitud.ttf
1887.542	n/a	WORD	943771	wordpools/wasnorm_wordpool_less_exclusions.txt	LTP222	ltpFR	1	9	0	VET	1560	n/a	1	0	0.5869140625	0.422607421875	upper	../fonts/amplitud.ttf
1891.43	n/a	WORD	945715	wordpools/wasnorm_wordpool_less_exclusions.txt	LTP222	ltpFR	1	9	0	MAMMAL	861	n/a	1	0	0.5869140625	0.422607421875	upper	../fonts/amplitud.ttf
1895.504	n/a	WORD	947752	wordpools/wasnorm_wordpool_less_exclusions.txt	LTP222	ltpFR	1	9	0	PADDLE	1000	n/a	1	0	0.5869140625	0.422607421875	upper	../fonts/amplitud.ttf
1899.722	n/a	WORD	949861	wordpools/wasnorm_wordpool_less_exclusions.txt	LTP222	ltpFR	1	9	0	PLUMBER	1091	n/a	1	0	0.5869140625	0.422607421875	upper	../fonts/amplitud.ttf
1903.896	n/a	WORD	951948	wordpools/wasnorm_wordpool_less_exclusions.txt	LTP222	ltpFR	1	9	0	RACK	1154	n/a	1	0	0.5869140625	0.422607421875	upper	../fonts/amplitud.ttf
1907.786	n/a	WORD	953893	wordpools/wasnorm_wordpool_less_exclusions.txt	LTP222	ltpFR	1	9	0	CLAY	320	n/a	0	0	0.5869140625	0.422607421875	upper	../fonts/amplitud.ttf
1911.868	n/a	WORD	955934	wordpools/wasnorm_wordpool_less_exclusions.txt	LTP222	ltpFR	1	9	0	RAG	1160	n/a	0	0	0.5869140625	0.422607421875	upper	../fonts/amplitud.ttf
1915.874	n/a	WORD	957937	wordpools/wasnorm_wordpool_less_exclusions.txt	LTP222	ltpFR	1	9	0	ZIPPER	1636	n/a	0	0	0.5869140625	0.422607421875	upper	../fonts/amplitud.ttf
1919.79	n/a	WORD	959895	wordpools/wasnorm_wordpool_less_exclusions.txt	LTP222	ltpFR	1	9	0	PANTS	1010	n/a	1	0	0.5869140625	0.422607421875	upper	../fonts/amplitud.ttf
1923.804	n/a	WORD	961902	wordpools/wasnorm_wordpool_less_exclusions.txt	LTP222	ltpFR	1	9	0	MALL	860	n/a	1	0	0.5869140625	0.422607421875	upper	../fonts/amplitud.ttf
1927.904	n/a	WORD	963952	wordpools/wasnorm_wordpool_less_exclusions.txt	LTP222	ltpFR	1	9	0	SHOELACE	1289	n/a	0	0	0.5869140625	0.422607421875	upper	../fonts/amplitud.ttf
1931.896	n/a	WORD	965948	wordpools/wasnorm_wordpool_less_exclusions.txt	LTP222	ltpFR	1	9	0	PIER	1063	n/a	1	0	0.5869140625	0.422607421875	upper	../fonts/amplitud.ttf
1935.926	n/a	WORD	967963	wordpools/wasnorm_wordpool_less_exclusions.txt	LTP222	ltpFR	1	9	0	PERSONNEL	1053	n/a	1	0	0.5869140625	0.422607421875	upper	../fonts/amplitud.ttf
1939.9	n/a	WORD	969950	wordpools/wasnorm_wordpool_less_exclusions.txt	LTP222	ltpFR	1	9	0	BOSS	152	n/a	1	0	0.5869140625	0.422607421875	upper	../fonts/amplitud.ttf
1944.014	n/a	WORD	972007	wordpools/wasnorm_wordpool_less_exclusions.txt	LTP222	ltpFR	1	9	0	TOILET	1475	n/a	1	0	0.5869140625	0.422607421875	upper	../fonts/amplitud.ttf
1949.888	n/a	REC_START	974944	n/a	LTP222	ltpFR	1	9	n/a	n/a	n/a	n/a	n/a	n/a	n/a	n/a	n/a	n/a
1951.878	n/a	REC_WORD	975939	wordpools/wasnorm_wordpool_less_exclusions.txt	LTP222	ltpFR	1	9	0	TOILET	1475	n/a	1	n/a	n/a	n/a	n/a	n/a
1953.46	n/a	REC_WORD	976730	wordpools/wasnorm_wordpool_less_exclusions.txt	LTP222	ltpFR	1	9	0	MALL	860	n/a	1	n/a	n/a	n/a	n/a	n/a
1954.772	n/a	REC_WORD	977386	wordpools/wasnorm_wordpool_less_exclusions.txt	LTP222	ltpFR	1	9	0	PLUMBER	1091	n/a	1	n/a	n/a	n/a	n/a	n/a
1956.564	n/a	REC_WORD	978282	wordpools/wasnorm_wordpool_less_exclusions.txt	LTP222	ltpFR	1	9	0	BOSS	152	n/a	1	n/a	n/a	n/a	n/a	n/a
1980.856	n/a	REC_WORD	990428	wordpools/wasnorm_wordpool_less_exclusions.txt	LTP222	ltpFR	1	9	0	CLAY	320	n/a	0	n/a	n/a	n/a	n/a	n/a
2029.45	n/a	WORD	1014725	wordpools/wasnorm_wordpool_less_exclusions.txt	LTP222	ltpFR	1	10	-1	ICING	732	n/a	-1	1	1.0	1.0	upper	../fonts/Verdana.ttf
2033.642	n/a	WORD	1016821	wordpools/wasnorm_wordpool_less_exclusions.txt	LTP222	ltpFR	1	10	-1	DRIVER	499	n/a	-1	1	1.0	1.0	upper	../fonts/Verdana.ttf
2037.598	n/a	WORD	1018799	wordpools/wasnorm_wordpool_less_exclusions.txt	LTP222	ltpFR	1	10	-1	WINDSHIELD	1612	n/a	-1	1	1.0	1.0	upper	../fonts/Verdana.ttf
2041.68	n/a	WORD	1020840	wordpools/wasnorm_wordpool_less_exclusions.txt	LTP222	ltpFR	1	10	-1	LAPEL	800	n/a	-1	1	1.0	1.0	upper	../fonts/Verdana.ttf
2045.838	n/a	WORD	1022919	wordpools/wasnorm_wordpool_less_exclusions.txt	LTP222	ltpFR	1	10	-1	HIGHWAY	707	n/a	-1	1	1.0	1.0	upper	../fonts/Verdana.ttf
2049.936	n/a	WORD	1024968	wordpools/wasnorm_wordpool_less_exclusions.txt	LTP222	ltpFR	1	10	-1	SHELTER	1282	n/a	-1	1	1.0	1.0	upper	../fonts/Verdana.ttf
2054.002	n/a	WORD	1027001	wordpools/wasnorm_wordpool_less_exclusions.txt	LTP222	ltpFR	1	10	-1	DORM	488	n/a	-1	1	1.0	1.0	upper	../fonts/Verdana.ttf
2058.094	n/a	WORD	1029047	wordpools/wasnorm_wordpool_less_exclusions.txt	LTP222	ltpFR	1	10	-1	MICROWAVE	892	n/a	-1	1	1.0	1.0	upper	../fonts/Verdana.ttf
2061.966	n/a	WORD	1030983	wordpools/wasnorm_wordpool_less_exclusions.txt	LTP222	ltpFR	1	10	-1	ZUCCHINI	1638	n/a	-1	1	1.0	1.0	upper	../fonts/Verdana.ttf
2066.098	n/a	WORD	1033049	wordpools/wasnorm_wordpool_less_exclusions.txt	LTP222	ltpFR	1	10	-1	BANDANNA	80	n/a	-1	1	1.0	1.0	upper	../fonts/Verdana.ttf
2070.214	n/a	WORD	1035107	wordpools/wasnorm_wordpool_less_exclusions.txt	LTP222	ltpFR	1	10	-1	CARPET	247	n/a	-1	1	1.0	1.0	upper	../fonts/Verdana.ttf
2074.096	n/a	WORD	1037048	wordpools/wasnorm_wordpool_less_exclusions.txt	LTP222	ltpFR	1	10	-1	PAD	998	n/a	-1	1	1.0	1.0	upper	../fonts/Verdana.ttf
2077.96	n/a	WORD	1038980	wordpools/wasnorm_wordpool_less_exclusions.txt	LTP222	ltpFR	1	10	-1	OFFICE	972	n/a	-1	1	1.0	1.0	upper	../fonts/Verdana.ttf
2081.902	n/a	WORD	1040951	wordpools/wasnorm_wordpool_less_exclusions.txt	LTP222	ltpFR	1	10	-1	CAFETERIA	217	n/a	-1	1	1.0	1.0	upper	../fonts/Verdana.ttf
2085.916	n/a	WORD	1042958	wordpools/wasnorm_wordpool_less_exclusions.txt	LTP222	ltpFR	1	10	-1	SILVERWARE	1308	n/a	-1	1	1.0	1.0	upper	../fonts/Verdana.ttf
2089.906	n/a	WORD	1044953	wordpools/wasnorm_wordpool_less_exclusions.txt	LTP222	ltpFR	1	10	-1	BUTTON	207	n/a	-1	1	1.0	1.0	upper	../fonts/Verdana.ttf
2095.906	n/a	REC_START	1047953	n/a	LTP222	ltpFR	1	10	n/a	n/a	n/a	n/a	n/a	n/a	n/a	n/a	n/a	n/a
2097.782	n/a	REC_WORD	1048891	wordpools/wasnorm_wordpool_less_exclusions.txt	LTP222	ltpFR	1	10	-1	DRIVER	499	n/a	-1	n/a	n/a	n/a	n/a	n/a
2099.398	n/a	REC_WORD	1049699	wordpools/wasnorm_wordpool_less_exclusions.txt	LTP222	ltpFR	1	10	n/a	ICY	-1	n/a	n/a	n/a	n/a	n/a	n/a	n/a
2100.826	n/a	REC_WORD	1050413	wordpools/wasnorm_wordpool_less_exclusions.txt	LTP222	ltpFR	1	10	-1	WINDSHIELD	1612	n/a	-1	n/a	n/a	n/a	n/a	n/a
2102.262	n/a	REC_WORD	1051131	wordpools/wasnorm_wordpool_less_exclusions.txt	LTP222	ltpFR	1	10	-1	SHELTER	1282	n/a	-1	n/a	n/a	n/a	n/a	n/a
2103.742	n/a	REC_WORD	1051871	wordpools/wasnorm_wordpool_less_exclusions.txt	LTP222	ltpFR	1	10	-1	LAPEL	800	n/a	-1	n/a	n/a	n/a	n/a	n/a
2105.674	n/a	REC_WORD	1052837	wordpools/wasnorm_wordpool_less_exclusions.txt	LTP222	ltpFR	1	10	-1	BUTTON	207	n/a	-1	n/a	n/a	n/a	n/a	n/a
2106.982	n/a	REC_WORD	1053491	wordpools/wasnorm_wordpool_less_exclusions.txt	LTP222	ltpFR	1	10	-1	OFFICE	972	n/a	-1	n/a	n/a	n/a	n/a	n/a
2108.408	n/a	REC_WORD	1054204	wordpools/wasnorm_wordpool_less_exclusions.txt	LTP222	ltpFR	1	10	-1	PAD	998	n/a	-1	n/a	n/a	n/a	n/a	n/a
2169.572	n/a	REC_WORD	1084786	wordpools/wasnorm_wordpool_less_exclusions.txt	LTP222	ltpFR	1	10	n/a	SIDEWALK	1303	n/a	n/a	n/a	n/a	n/a	n/a	n/a
2175.978	n/a	WORD	1087989	wordpools/wasnorm_wordpool_less_exclusions.txt	LTP222	ltpFR	1	11	1	BAKER	71	n/a	1	1	0.412841796875	0.57763671875	lower	../fonts/zerothre.ttf
2179.968	n/a	WORD	1089984	wordpools/wasnorm_wordpool_less_exclusions.txt	LTP222	ltpFR	1	11	1	DISH	474	n/a	0	1	0.412841796875	0.57763671875	lower	../fonts/zerothre.ttf
2183.874	n/a	WORD	1091937	wordpools/wasnorm_wordpool_less_exclusions.txt	LTP222	ltpFR	1	11	1	RADIATOR	1156	n/a	0	1	0.412841796875	0.57763671875	lower	../fonts/zerothre.ttf
2187.712	n/a	WORD	1093856	wordpools/wasnorm_wordpool_less_exclusions.txt	LTP222	ltpFR	1	11	1	REEF	1177	n/a	0	1	0.412841796875	0.57763671875	lower	../fonts/zerothre.ttf
2191.628	n/a	WORD	1095814	wordpools/wasnorm_wordpool_less_exclusions.txt	LTP222	ltpFR	1	11	1	LIP	828	n/a	0	1	0.412841796875	0.57763671875	lower	../fonts/zerothre.ttf
2195.728	n/a	WORD	1097864	wordpools/wasnorm_wordpool_less_exclusions.txt	LTP222	ltpFR	1	11	1	TONGUE	1479	n/a	1	1	0.412841796875	0.57763671875	lower	../fonts/zerothre.ttf
2199.818	n/a	WORD	1099909	wordpools/wasnorm_wordpool_less_exclusions.txt	LTP222	ltpFR	1	11	1	POTATO	1115	n/a	0	1	0.412841796875	0.57763671875	lower	../fonts/zerothre.ttf
2203.858	n/a	WORD	1101929	wordpools/wasnorm_wordpool_less_exclusions.txt	LTP222	ltpFR	1	11	1	FRIES	607	n/a	0	1	0.412841796875	0.57763671875	lower	../fonts/zerothre.ttf
2207.824	n/a	WORD	1103912	wordpools/wasnorm_wordpool_less_exclusions.txt	LTP222	ltpFR	1	11	1	ELEVATOR	524	n/a	0	1	0.412841796875	0.57763671875	lower	../fonts/zerothre.ttf
2212.038	n/a	WORD	1106019	wordpools/wasnorm_wordpool_less_exclusions.txt	LTP222	ltpFR	1	11	1	SLUG	1329	n/a	1	1	0.412841796875	0.57763671875	lower	../fonts/zerothre.ttf
2216.098	n/a	WORD	1108049	wordpools/wasnorm_wordpool_less_exclusions.txt	LTP222	ltpFR	1	11	1	BAY	102	n/a	0	1	0.412841796875	0.57763671875	lower	../fonts/zerothre.ttf
2220.138	n/a	WORD	1110069	wordpools/wasnorm_wordpool_less_exclusions.txt	LTP222	ltpFR	1	11	1	CREEK	404	n/a	0	1	0.412841796875	0.57763671875	lower	../fonts/zerothre.ttf
2224.352	n/a	WORD	1112176	wordpools/wasnorm_wordpool_less_exclusions.txt	LTP222	ltpFR	1	11	1	COD	340	n/a	1	1	0.412841796875	0.57763671875	lower	../fonts/zerothre.ttf
2228.352	n/a	WORD	1114176	wordpools/wasnorm_wordpool_less_exclusions.txt	LTP222	ltpFR	1	11	1	TOASTER	1472	n/a	0	1	0.412841796875	0.57763671875	lower	../fonts/zerothre.ttf
2232.294	n/a	WORD	1116147	wordpools/wasnorm_wordpool_less_exclusions.txt	LTP222	ltpFR	1	11	1	DICTATOR	462	n/a	1	1	0.412841796875	0.57763671875	lower	../fonts/zerothre.ttf
2236.442	n/a	WORD	1118221	wordpools/wasnorm_wordpool_less_exclusions.txt	LTP222	ltpFR	1	11	1	HIKER	708	n/a	1	1	0.412841796875	0.57763671875	lower	../fonts/zerothre.ttf
2242.156	n/a	REC_START	1121078	n/a	LTP222	ltpFR	1	11	n/a	n/a	n/a	n/a	n/a	n/a	n/a	n/a	n/a	n/a
2246.634	n/a	REC_WORD	1123317	wordpools/wasnorm_wordpool_less_exclusions.txt	LTP222	ltpFR	1	11	1	HIKER	708	n/a	1	n/a	n/a	n/a	n/a	n/a
2248.354	n/a	REC_WORD	1124177	wordpools/wasnorm_wordpool_less_exclusions.txt	LTP222	ltpFR	1	11	1	DICTATOR	462	n/a	1	n/a	n/a	n/a	n/a	n/a
2250.402	n/a	REC_WORD	1125201	wordpools/wasnorm_wordpool_less_exclusions.txt	LTP222	ltpFR	1	11	1	COD	340	n/a	1	n/a	n/a	n/a	n/a	n/a
2265.132	n/a	REC_WORD	1132566	wordpools/wasnorm_wordpool_less_exclusions.txt	LTP222	ltpFR	1	11	n/a	RIVER	1194	n/a	n/a	n/a	n/a	n/a	n/a	n/a
2289.444	n/a	REC_WORD	1144722	wordpools/wasnorm_wordpool_less_exclusions.txt	LTP222	ltpFR	1	11	1	SLUG	1329	n/a	1	n/a	n/a	n/a	n/a	n/a
2301.998	n/a	REC_WORD	1150999	wordpools/wasnorm_wordpool_less_exclusions.txt	LTP222	ltpFR	1	11	1	TOASTER	1472	n/a	0	n/a	n/a	n/a	n/a	n/a
2322.036	n/a	WORD	1161018	wordpools/wasnorm_wordpool_less_exclusions.txt	LTP222	ltpFR	1	12	0	HERD	705	n/a	1	0	0.5869140625	0.422607421875	upper	../fonts/amplitud.ttf
2326.034	n/a	WORD	1163017	wordpools/wasnorm_wordpool_less_exclusions.txt	LTP222	ltpFR	1	12	0	DANCER	437	n/a	1	0	0.5869140625	0.422607421875	upper	../fonts/amplitud.ttf
2330.04	n/a	WORD	1165020	wordpools/wasnorm_wordpool_less_exclusions.txt	LTP222	ltpFR	1	12	0	BINDER	127	n/a	1	0	0.5869140625	0.422607421875	upper	../fonts/amplitud.ttf
2333.988	n/a	WORD	1166994	wordpools/wasnorm_wordpool_less_exclusions.txt	LTP222	ltpFR	1	12	0	VIOLA	1570	n/a	1	0	0.5869140625	0.422607421875	upper	../fonts/amplitud.ttf
2338.114	n/a	WORD	1169057	wordpools/wasnorm_wordpool_less_exclusions.txt	LTP222	ltpFR	1	12	1	TAPE	1433	n/a	0	1	0.412841796875	0.57763671875	lower	../fonts/zerothre.ttf
2342.002	n/a	WORD	1171001	wordpools/wasnorm_wordpool_less_exclusions.txt	LTP222	ltpFR	1	12	1	CABINET	212	n/a	0	1	0.412841796875	0.57763671875	lower	../fonts/zerothre.ttf
2345.86	n/a	WORD	1172930	wordpools/wasnorm_wordpool_less_exclusions.txt	LTP222	ltpFR	1	12	1	CALF	222	n/a	1	1	0.412841796875	0.57763671875	lower	../fonts/zerothre.ttf
2350.06	n/a	WORD	1175030	wordpools/wasnorm_wordpool_less_exclusions.txt	LTP222	ltpFR	1	12	1	CATTLE	261	n/a	1	1	0.412841796875	0.57763671875	lower	../fonts/zerothre.ttf
2353.992	n/a	WORD	1176996	wordpools/wasnorm_wordpool_less_exclusions.txt	LTP222	ltpFR	1	12	1	TUTU	1524	n/a	0	1	0.412841796875	0.57763671875	lower	../fonts/zerothre.ttf
2357.846	n/a	WORD	1178923	wordpools/wasnorm_wordpool_less_exclusions.txt	LTP222	ltpFR	1	12	1	DART	440	n/a	0	1	0.412841796875	0.57763671875	lower	../fonts/zerothre.ttf
2361.694	n/a	WORD	1180847	wordpools/wasnorm_wordpool_less_exclusions.txt	LTP222	ltpFR	1	12	0	EWE	542	n/a	1	0	0.5869140625	0.422607421875	upper	../fonts/amplitud.ttf
2365.644	n/a	WORD	1182822	wordpools/wasnorm_wordpool_less_exclusions.txt	LTP222	ltpFR	1	12	0	INTESTINE	742	n/a	1	0	0.5869140625	0.422607421875	upper	../fonts/amplitud.ttf
2369.836	n/a	WORD	1184918	wordpools/wasnorm_wordpool_less_exclusions.txt	LTP222	ltpFR	1	12	1	CUBE	420	n/a	0	1	0.412841796875	0.57763671875	lower	../fonts/zerothre.ttf
2373.908	n/a	WORD	1186954	wordpools/wasnorm_wordpool_less_exclusions.txt	LTP222	ltpFR	1	12	1	PARCEL	1012	n/a	0	1	0.412841796875	0.57763671875	lower	../fonts/zerothre.ttf
2377.79	n/a	WORD	1188895	wordpools/wasnorm_wordpool_less_exclusions.txt	LTP222	ltpFR	1	12	0	FLESH	579	n/a	1	0	0.5869140625	0.422607421875	upper	../fonts/amplitud.ttf
2381.73	n/a	WORD	1190865	wordpools/wasnorm_wordpool_less_exclusions.txt	LTP222	ltpFR	1	12	0	CREW	406	n/a	1	0	0.5869140625	0.422607421875	upper	../fonts/amplitud.ttf
2387.788	n/a	REC_START	1193894	n/a	LTP222	ltpFR	1	12	n/a	n/a	n/a	n/a	n/a	n/a	n/a	n/a	n/a	n/a
2392.5	n/a	REC_WORD	1196250	wordpools/wasnorm_wordpool_less_exclusions.txt	LTP222	ltpFR	1	12	0	FLESH	579	n/a	1	n/a	n/a	n/a	n/a	n/a
2394.128	n/a	REC_WORD	1197064	wordpools/wasnorm_wordpool_less_exclusions.txt	LTP222	ltpFR	1	12	0	CREW	406	n/a	1	n/a	n/a	n/a	n/a	n/a
2395.884	n/a	REC_WORD_VV	1197942	wordpools/wasnorm_wordpool_less_exclusions.txt	LTP222	ltpFR	1	12	n/a	<>	-1	n/a	n/a	n/a	n/a	n/a	n/a	n/a
2412.752	n/a	REC_WORD	1206376	wordpools/wasnorm_wordpool_less_exclusions.txt	LTP222	ltpFR	1	12	0	HERD	705	n/a	1	n/a	n/a	n/a	n/a	n/a
2417.246	n/a	REC_WORD	1208623	wordpools/wasnorm_wordpool_less_exclusions.txt	LTP222	ltpFR	1	12	1	CALF	222	n/a	1	n/a	n/a	n/a	n/a	n/a
2421.562	n/a	REC_WORD	1210781	wordpools/wasnorm_wordpool_less_exclusions.txt	LTP222	ltpFR	1	12	0	VIOLA	1570	n/a	1	n/a	n/a	n/a	n/a	n/a
2463.432	n/a	REST_REWET	1231716	n/a	LTP222	ltpFR	1	12	n/a	n/a	n/a	n/a	n/a	n/a	n/a	n/a	n/a	n/a
2765.538	n/a	WORD	1382769	wordpools/wasnorm_wordpool_less_exclusions.txt	LTP222	ltpFR	1	13	-1	ENGINE	535	n/a	-1	1	1.0	1.0	upper	../fonts/Verdana.ttf
2769.452	n/a	WORD	1384726	wordpools/wasnorm_wordpool_less_exclusions.txt	LTP222	ltpFR	1	13	-1	PEDESTRIAN	1038	n/a	-1	1	1.0	1.0	upper	../fonts/Verdana.ttf
2773.46	n/a	WORD	1386730	wordpools/wasnorm_wordpool_less_exclusions.txt	LTP222	ltpFR	1	13	-1	ESSAY	540	n/a	-1	1	1.0	1.0	upper	../fonts/Verdana.ttf
2777.534	n/a	WORD	1388767	wordpools/wasnorm_wordpool_less_exclusions.txt	LTP222	ltpFR	1	13	-1	RUNNER	1218	n/a	-1	1	1.0	1.0	upper	../fonts/Verdana.ttf
2781.398	n/a	WORD	1390699	wordpools/wasnorm_wordpool_less_exclusions.txt	LTP222	ltpFR	1	13	-1	WITNESS	1618	n/a	-1	1	1.0	1.0	upper	../fonts/Verdana.ttf
2785.598	n/a	WORD	1392799	wordpools/wasnorm_wordpool_less_exclusions.txt	LTP222	ltpFR	1	13	-1	MINER	896	n/a	-1	1	1.0	1.0	upper	../fonts/Verdana.ttf
2789.68	n/a	WORD	1394840	wordpools/wasnorm_wordpool_less_exclusions.txt	LTP222	ltpFR	1	13	-1	LETTER	813	n/a	-1	1	1.0	1.0	upper	../fonts/Verdana.ttf
2793.628	n/a	WORD	1396814	wordpools/wasnorm_wordpool_less_exclusions.txt	LTP222	ltpFR	1	13	-1	BRIDGE	174	n/a	-1	1	1.0	1.0	upper	../fonts/Verdana.ttf
2797.828	n/a	WORD	1398914	wordpools/wasnorm_wordpool_less_exclusions.txt	LTP222	ltpFR	1	13	-1	GLASS	639	n/a	-1	1	1.0	1.0	upper	../fonts/Verdana.ttf
2801.736	n/a	WORD	1400868	wordpools/wasnorm_wordpool_less_exclusions.txt	LTP222	ltpFR	1	13	-1	CRYSTAL	418	n/a	-1	1	1.0	1.0	upper	../fonts/Verdana.ttf
2805.868	n/a	WORD	1402934	wordpools/wasnorm_wordpool_less_exclusions.txt	LTP222	ltpFR	1	13	-1	SPRINKLE	1359	n/a	-1	1	1.0	1.0	upper	../fonts/Verdana.ttf
2809.716	n/a	WORD	1404858	wordpools/wasnorm_wordpool_less_exclusions.txt	LTP222	ltpFR	1	13	-1	BISCUIT	130	n/a	-1	1	1.0	1.0	upper	../fonts/Verdana.ttf
2813.672	n/a	WORD	1406836	wordpools/wasnorm_wordpool_less_exclusions.txt	LTP222	ltpFR	1	13	-1	CRUMB	416	n/a	-1	1	1.0	1.0	upper	../fonts/Verdana.ttf
2817.546	n/a	WORD	1408773	wordpools/wasnorm_wordpool_less_exclusions.txt	LTP222	ltpFR	1	13	-1	TREASURE	1500	n/a	-1	1	1.0	1.0	upper	../fonts/Verdana.ttf
2821.702	n/a	WORD	1410851	wordpools/wasnorm_wordpool_less_exclusions.txt	LTP222	ltpFR	1	13	-1	MESSAGE	888	n/a	-1	1	1.0	1.0	upper	../fonts/Verdana.ttf
2825.868	n/a	WORD	1412934	wordpools/wasnorm_wordpool_less_exclusions.txt	LTP222	ltpFR	1	13	-1	JUDGE	761	n/a	-1	1	1.0	1.0	upper	../fonts/Verdana.ttf
2831.868	n/a	REC_START	1415934	n/a	LTP222	ltpFR	1	13	n/a	n/a	n/a	n/a	n/a	n/a	n/a	n/a	n/a	n/a
2832.616	n/a	REC_WORD	1416308	wordpools/wasnorm_wordpool_less_exclusions.txt	LTP222	ltpFR	1	13	-1	MINER	896	n/a	-1	n/a	n/a	n/a	n/a	n/a
2833.724	n/a	REC_WORD	1416862	wordpools/wasnorm_wordpool_less_exclusions.txt	LTP222	ltpFR	1	13	-1	LETTER	813	n/a	-1	n/a	n/a	n/a	n/a	n/a
2834.95	n/a	REC_WORD	1417475	wordpools/wasnorm_wordpool_less_exclusions.txt	LTP222	ltpFR	1	13	-1	BRIDGE	174	n/a	-1	n/a	n/a	n/a	n/a	n/a
2836.388	n/a	REC_WORD	1418194	wordpools/wasnorm_wordpool_less_exclusions.txt	LTP222	ltpFR	1	13	-1	GLASS	639	n/a	-1	n/a	n/a	n/a	n/a	n/a
2838.084	n/a	REC_WORD	1419042	wordpools/wasnorm_wordpool_less_exclusions.txt	LTP222	ltpFR	1	13	-1	RUNNER	1218	n/a	-1	n/a	n/a	n/a	n/a	n/a
2843.098	n/a	REC_WORD	1421549	wordpools/wasnorm_wordpool_less_exclusions.txt	LTP222	ltpFR	1	13	-1	JUDGE	761	n/a	-1	n/a	n/a	n/a	n/a	n/a
2912.108	n/a	WORD	1456054	wordpools/wasnorm_wordpool_less_exclusions.txt	LTP222	ltpFR	1	14	1	MOUTH	926	n/a	0	1	0.412841796875	0.57763671875	lower	../fonts/zerothre.ttf
2916.09	n/a	WORD	1458045	wordpools/wasnorm_wordpool_less_exclusions.txt	LTP222	ltpFR	1	14	1	MONSTER	912	n/a	n/a	1	0.412841796875	0.57763671875	lower	../fonts/zerothre.ttf
2919.134	n/a	SLOW_MSG	1459567	n/a	LTP222	ltpFR	1	14	n/a	n/a	n/a	n/a	n/a	n/a	n/a	n/a	n/a	n/a
2921.752	n/a	WORD	1460876	wordpools/wasnorm_wordpool_less_exclusions.txt	LTP222	ltpFR	1	14	1	KANGAROO	768	n/a	1	1	0.412841796875	0.57763671875	lower	../fonts/zerothre.ttf
2925.95	n/a	WORD	1462975	wordpools/wasnorm_wordpool_less_exclusions.txt	LTP222	ltpFR	1	14	1	DECK	443	n/a	0	1	0.412841796875	0.57763671875	lower	../fonts/zerothre.ttf
2929.816	n/a	WORD	1464908	wordpools/wasnorm_wordpool_less_exclusions.txt	LTP222	ltpFR	1	14	1	HUT	729	n/a	0	1	0.412841796875	0.57763671875	lower	../fonts/zerothre.ttf
2933.966	n/a	WORD	1466983	wordpools/wasnorm_wordpool_less_exclusions.txt	LTP222	ltpFR	1	14	1	TRIBE	1505	n/a	1	1	0.412841796875	0.57763671875	lower	../fonts/zerothre.ttf
2938.156	n/a	WORD	1469078	wordpools/wasnorm_wordpool_less_exclusions.txt	LTP222	ltpFR	1	14	0	VIKING	1565	n/a	1	0	0.5869140625	0.422607421875	upper	../fonts/amplitud.ttf
2942.088	n/a	WORD	1471044	wordpools/wasnorm_wordpool_less_exclusions.txt	LTP222	ltpFR	1	14	0	WALRUS	1585	n/a	1	0	0.5869140625	0.422607421875	upper	../fonts/amplitud.ttf
2946.096	n/a	WORD	1473048	wordpools/wasnorm_wordpool_less_exclusions.txt	LTP222	ltpFR	1	14	0	BANKER	84	n/a	1	0	0.5869140625	0.422607421875	upper	../fonts/amplitud.ttf
2949.994	n/a	WORD	1474997	wordpools/wasnorm_wordpool_less_exclusions.txt	LTP222	ltpFR	1	14	1	MOVIE	927	n/a	0	1	0.412841796875	0.57763671875	lower	../fonts/zerothre.ttf
2953.974	n/a	WORD	1476987	wordpools/wasnorm_wordpool_less_exclusions.txt	LTP222	ltpFR	1	14	1	BARLEY	88	n/a	0	1	0.412841796875	0.57763671875	lower	../fonts/zerothre.ttf
2957.832	n/a	WORD	1478916	wordpools/wasnorm_wordpool_less_exclusions.txt	LTP222	ltpFR	1	14	0	TAVERN	1437	n/a	1	0	0.5869140625	0.422607421875	upper	../fonts/amplitud.ttf
2961.746	n/a	WORD	1480873	wordpools/wasnorm_wordpool_less_exclusions.txt	LTP222	ltpFR	1	14	0	LION	827	n/a	1	0	0.5869140625	0.422607421875	upper	../fonts/amplitud.ttf
2965.914	n/a	WORD	1482957	wordpools/wasnorm_wordpool_less_exclusions.txt	LTP222	ltpFR	1	14	0	SAPPHIRE	1234	n/a	0	0	0.5869140625	0.422607421875	upper	../fonts/amplitud.ttf
2970.13	n/a	WORD	1485065	wordpools/wasnorm_wordpool_less_exclusions.txt	LTP222	ltpFR	1	14	0	LOAF	835	n/a	0	0	0.5869140625	0.422607421875	upper	../fonts/amplitud.ttf
2974.218	n/a	WORD	1487109	wordpools/wasnorm_wordpool_less_exclusions.txt	LTP222	ltpFR	1	14	0	TOAST	1471	n/a	0	0	0.5869140625	0.422607421875	upper	../fonts/amplitud.ttf
2980.05	n/a	REC_START	1490025	n/a	LTP222	ltpFR	1	14	n/a	n/a	n/a	n/a	n/a	n/a	n/a	n/a	n/a	n/a
2983.458	n/a	REC_WORD	1491729	wordpools/wasnorm_wordpool_less_exclusions.txt	LTP222	ltpFR	1	14	0	LOAF	835	n/a	0	n/a	n/a	n/a	n/a	n/a
2985.28	n/a	REC_WORD	1492640	wordpools/wasnorm_wordpool_less_exclusions.txt	LTP222	ltpFR	1	14	0	TOAST	1471	n/a	0	n/a	n/a	n/a	n/a	n/a
3006.542	n/a	REC_WORD	1503271	wordpools/wasnorm_wordpool_less_exclusions.txt	LTP222	ltpFR	1	14	1	MONSTER	912	n/a	n/a	n/a	n/a	n/a	n/a	n/a
3016.68	n/a	REC_WORD	1508340	wordpools/wasnorm_wordpool_less_exclusions.txt	LTP222	ltpFR	1	14	1	MOVIE	927	n/a	0	n/a	n/a	n/a	n/a	n/a
3032.768	n/a	REC_WORD	1516384	wordpools/wasnorm_wordpool_less_exclusions.txt	LTP222	ltpFR	1	14	-1	BISCUIT	130	n/a	-1	n/a	n/a	n/a	n/a	n/a
3059.872	n/a	WORD	1529936	wordpools/wasnorm_wordpool_less_exclusions.txt	LTP222	ltpFR	1	15	1	BELT	120	n/a	0	1	0.412841796875	0.57763671875	lower	../fonts/zerothre.ttf
3063.962	n/a	WORD	1531981	wordpools/wasnorm_wordpool_less_exclusions.txt	LTP222	ltpFR	1	15	1	ARCHITECT	36	n/a	1	1	0.412841796875	0.57763671875	lower	../fonts/zerothre.ttf
3067.952	n/a	WORD	1533976	wordpools/wasnorm_wordpool_less_exclusions.txt	LTP222	ltpFR	1	15	1	SKETCH	1315	n/a	0	1	0.412841796875	0.57763671875	lower	../fonts/zerothre.ttf
3071.918	n/a	WORD	1535959	wordpools/wasnorm_wordpool_less_exclusions.txt	LTP222	ltpFR	1	15	1	JACKET	747	n/a	0	1	0.412841796875	0.57763671875	lower	../fonts/zerothre.ttf
3075.984	n/a	WORD	1537992	wordpools/wasnorm_wordpool_less_exclusions.txt	LTP222	ltpFR	1	15	1	TROUSERS	1510	n/a	0	1	0.412841796875	0.57763671875	lower	../fonts/zerothre.ttf
3079.822	n/a	WORD	1539911	wordpools/wasnorm_wordpool_less_exclusions.txt	LTP222	ltpFR	1	15	1	STAGE	1366	n/a	0	1	0.412841796875	0.57763671875	lower	../fonts/zerothre.ttf
3084.006	n/a	WORD	1542003	wordpools/wasnorm_wordpool_less_exclusions.txt	LTP222	ltpFR	1	15	1	FOREHEAD	592	n/a	0	1	0.412841796875	0.57763671875	lower	../fonts/zerothre.ttf
3088.18	n/a	WORD	1544090	wordpools/wasnorm_wordpool_less_exclusions.txt	LTP222	ltpFR	1	15	1	PITCHFORK	1078	n/a	0	1	0.412841796875	0.57763671875	lower	../fonts/zerothre.ttf
3092.396	n/a	WORD	1546198	wordpools/wasnorm_wordpool_less_exclusions.txt	LTP222	ltpFR	1	15	1	MANAGER	863	n/a	1	1	0.412841796875	0.57763671875	lower	../fonts/zerothre.ttf
3096.612	n/a	WORD	1548306	wordpools/wasnorm_wordpool_less_exclusions.txt	LTP222	ltpFR	1	15	1	ALBUM	14	n/a	0	1	0.412841796875	0.57763671875	lower	../fonts/zerothre.ttf
3100.628	n/a	WORD	1550314	wordpools/wasnorm_wordpool_less_exclusions.txt	LTP222	ltpFR	1	15	1	IDOL	733	n/a	0	1	0.412841796875	0.57763671875	lower	../fonts/zerothre.ttf
3104.776	n/a	WORD	1552388	wordpools/wasnorm_wordpool_less_exclusions.txt	LTP222	ltpFR	1	15	1	COMET	353	n/a	0	1	0.412841796875	0.57763671875	lower	../fonts/zerothre.ttf
3108.776	n/a	WORD	1554388	wordpools/wasnorm_wordpool_less_exclusions.txt	LTP222	ltpFR	1	15	1	SHOULDER	1294	n/a	0	1	0.412841796875	0.57763671875	lower	../fonts/zerothre.ttf
3112.698	n/a	WORD	1556349	wordpools/wasnorm_wordpool_less_exclusions.txt	LTP222	ltpFR	1	15	1	ARM	38	n/a	0	1	0.412841796875	0.57763671875	lower	../fonts/zerothre.ttf
3116.748	n/a	WORD	1558374	wordpools/wasnorm_wordpool_less_exclusions.txt	LTP222	ltpFR	1	15	1	SHAMPOO	1274	n/a	0	1	0.412841796875	0.57763671875	lower	../fonts/zerothre.ttf
3120.906	n/a	WORD	1560453	wordpools/wasnorm_wordpool_less_exclusions.txt	LTP222	ltpFR	1	15	1	ACTOR	5	n/a	1	1	0.412841796875	0.57763671875	lower	../fonts/zerothre.ttf
3126.846	n/a	REC_START	1563423	n/a	LTP222	ltpFR	1	15	n/a	n/a	n/a	n/a	n/a	n/a	n/a	n/a	n/a	n/a
3129.344	n/a	REC_WORD	1564672	wordpools/wasnorm_wordpool_less_exclusions.txt	LTP222	ltpFR	1	15	1	ACTOR	5	n/a	1	n/a	n/a	n/a	n/a	n/a
3131.29	n/a	REC_WORD	1565645	wordpools/wasnorm_wordpool_less_exclusions.txt	LTP222	ltpFR	1	15	1	IDOL	733	n/a	0	n/a	n/a	n/a	n/a	n/a
3132.532	n/a	REC_WORD	1566266	wordpools/wasnorm_wordpool_less_exclusions.txt	LTP222	ltpFR	1	15	1	SHOULDER	1294	n/a	0	n/a	n/a	n/a	n/a	n/a
3134.424	n/a	REC_WORD	1567212	wordpools/wasnorm_wordpool_less_exclusions.txt	LTP222	ltpFR	1	15	1	ARM	38	n/a	0	n/a	n/a	n/a	n/a	n/a
3136.034	n/a	REC_WORD	1568017	wordpools/wasnorm_wordpool_less_exclusions.txt	LTP222	ltpFR	1	15	1	FOREHEAD	592	n/a	0	n/a	n/a	n/a	n/a	n/a
3145.334	n/a	REC_WORD	1572667	wordpools/wasnorm_wordpool_less_exclusions.txt	LTP222	ltpFR	1	15	1	SHAMPOO	1274	n/a	0	n/a	n/a	n/a	n/a	n/a
3207.568	n/a	WORD	1603784	wordpools/wasnorm_wordpool_less_exclusions.txt	LTP222	ltpFR	1	16	1	REPTILE	1185	n/a	1	1	0.412841796875	0.57763671875	lower	../fonts/zerothre.ttf
3211.408	n/a	WORD	1605704	wordpools/wasnorm_wordpool_less_exclusions.txt	LTP222	ltpFR	1	16	1	MUSTARD	935	n/a	0	1	0.412841796875	0.57763671875	lower	../fonts/zerothre.ttf
3215.24	n/a	WORD	1607620	wordpools/wasnorm_wordpool_less_exclusions.txt	LTP222	ltpFR	1	16	0	CLARINET	317	n/a	1	0	0.5869140625	0.422607421875	upper	../fonts/amplitud.ttf
3219.122	n/a	WORD	1609561	wordpools/wasnorm_wordpool_less_exclusions.txt	LTP222	ltpFR	1	16	0	WORM	1623	n/a	0	0	0.5869140625	0.422607421875	upper	../fonts/amplitud.ttf
3223.154	n/a	WORD	1611577	wordpools/wasnorm_wordpool_less_exclusions.txt	LTP222	ltpFR	1	16	1	DISHWASHER	475	n/a	0	1	0.412841796875	0.57763671875	lower	../fonts/zerothre.ttf
3226.984	n/a	WORD	1613492	wordpools/wasnorm_wordpool_less_exclusions.txt	LTP222	ltpFR	1	16	1	ELM	527	n/a	0	1	0.412841796875	0.57763671875	lower	../fonts/zerothre.ttf
3231.076	n/a	WORD	1615538	wordpools/wasnorm_wordpool_less_exclusions.txt	LTP222	ltpFR	1	16	0	PAVEMENT	1028	n/a	1	0	0.5869140625	0.422607421875	upper	../fonts/amplitud.ttf
3234.982	n/a	WORD	1617491	wordpools/wasnorm_wordpool_less_exclusions.txt	LTP222	ltpFR	1	16	0	PUDDLE	1140	n/a	0	0	0.5869140625	0.422607421875	upper	../fonts/amplitud.ttf
3239.014	n/a	WORD	1619507	wordpools/wasnorm_wordpool_less_exclusions.txt	LTP222	ltpFR	1	16	0	RELISH	1183	n/a	0	0	0.5869140625	0.422607421875	upper	../fonts/amplitud.ttf
3243.146	n/a	WORD	1621573	wordpools/wasnorm_wordpool_less_exclusions.txt	LTP222	ltpFR	1	16	0	BUTTER	205	n/a	0	0	0.5869140625	0.422607421875	upper	../fonts/amplitud.ttf
3247.346	n/a	WORD	1623673	wordpools/wasnorm_wordpool_less_exclusions.txt	LTP222	ltpFR	1	16	0	SWAN	1417	n/a	1	0	0.5869140625	0.422607421875	upper	../fonts/amplitud.ttf
3251.328	n/a	WORD	1625664	wordpools/wasnorm_wordpool_less_exclusions.txt	LTP222	ltpFR	1	16	0	ROBIN	1199	n/a	1	0	0.5869140625	0.422607421875	upper	../fonts/amplitud.ttf
3255.42	n/a	WORD	1627710	wordpools/wasnorm_wordpool_less_exclusions.txt	LTP222	ltpFR	1	16	1	HOSE	720	n/a	0	1	0.412841796875	0.57763671875	lower	../fonts/zerothre.ttf
3259.642	n/a	WORD	1629821	wordpools/wasnorm_wordpool_less_exclusions.txt	LTP222	ltpFR	1	16	1	METEOR	889	n/a	0	1	0.412841796875	0.57763671875	lower	../fonts/zerothre.ttf
3263.776	n/a	WORD	1631888	wordpools/wasnorm_wordpool_less_exclusions.txt	LTP222	ltpFR	1	16	1	NAVIGATOR	938	n/a	1	1	0.412841796875	0.57763671875	lower	../fonts/zerothre.ttf
3267.884	n/a	WORD	1633942	wordpools/wasnorm_wordpool_less_exclusions.txt	LTP222	ltpFR	1	16	1	STEWARDESS	1381	n/a	1	1	0.412841796875	0.57763671875	lower	../fonts/zerothre.ttf
3273.724	n/a	REC_START	1636862	n/a	LTP222	ltpFR	1	16	n/a	n/a	n/a	n/a	n/a	n/a	n/a	n/a	n/a	n/a
3274.906	n/a	REC_WORD	1637453	wordpools/wasnorm_wordpool_less_exclusions.txt	LTP222	ltpFR	1	16	1	NAVIGATOR	938	n/a	1	n/a	n/a	n/a	n/a	n/a
3276.516	n/a	REC_WORD	1638258	wordpools/wasnorm_wordpool_less_exclusions.txt	LTP222	ltpFR	1	16	1	STEWARDESS	1381	n/a	1	n/a	n/a	n/a	n/a	n/a
3277.522	n/a	REC_WORD_VV	1638761	wordpools/wasnorm_wordpool_less_exclusions.txt	LTP222	ltpFR	1	16	n/a	<>	-1	n/a	n/a	n/a	n/a	n/a	n/a	n/a
3279.53	n/a	REC_WORD	1639765	wordpools/wasnorm_wordpool_less_exclusions.txt	LTP222	ltpFR	1	16	n/a	MONITOR	-1	n/a	n/a	n/a	n/a	n/a	n/a	n/a
3280.578	n/a	REC_WORD	1640289	wordpools/wasnorm_wordpool_less_exclusions.txt	LTP222	ltpFR	1	16	1	COMET	353	n/a	0	n/a	n/a	n/a	n/a	n/a
3281.53	n/a	REC_WORD	1640765	wordpools/wasnorm_wordpool_less_exclusions.txt	LTP222	ltpFR	1	16	1	ELM	527	n/a	0	n/a	n/a	n/a	n/a	n/a
3459.35	n/a	REC_START	1729675	n/a	LTP222	ltpFR	1	1	n/a	n/a	n/a	n/a	n/a	n/a	n/a	n/a	n/a	n/a
3459.406	n/a	RECOG_TARGET	1729703	n/a	LTP222	ltpFR	1	1	-1	LETTUCE	814	3	-1	n/a	n/a	n/a	n/a	n/a
3462.936	n/a	RECOG_RESP	1731468	n/a	LTP222	ltpFR	1	1	-1	LETTUCE	814	n/a	-1	n/a	n/a	n/a	n/a	n/a
3466.664	n/a	RECOG_CONF	1733332	n/a	LTP222	ltpFR	1	1	-1	LETTUCE	814	3	-1	n/a	n/a	n/a	n/a	n/a
3469.42	n/a	RECOG_TARGET	1734710	n/a	LTP222	ltpFR	1	1	1	CAMERA	224	3	0	n/a	n/a	n/a	n/a	n/a
3472.542	n/a	RECOG_RESP	1736271	n/a	LTP222	ltpFR	1	1	1	CAMERA	224	n/a	0	n/a	n/a	n/a	n/a	n/a
3474.862	n/a	RECOG_CONF	1737431	n/a	LTP222	ltpFR	1	1	1	CAMERA	224	3	0	n/a	n/a	n/a	n/a	n/a
3477.084	n/a	RECOG_LURE	1738542	n/a	LTP222	ltpFR	1	1	n/a	NOVEL	960	3	n/a	n/a	n/a	n/a	n/a	n/a
3479.484	n/a	RECOG_RESP	1739742	n/a	LTP222	ltpFR	1	1	n/a	NOVEL	960	n/a	n/a	n/a	n/a	n/a	n/a	n/a
3481.264	n/a	RECOG_CONF	1740632	n/a	LTP222	ltpFR	1	1	n/a	NOVEL	960	3	n/a	n/a	n/a	n/a	n/a	n/a
3482.996	n/a	RECOG_TARGET	1741498	n/a	LTP222	ltpFR	1	1	-1	PATH	1023	5	-1	n/a	n/a	n/a	n/a	n/a
3485.088	n/a	RECOG_RESP	1742544	n/a	LTP222	ltpFR	1	1	-1	PATH	1023	n/a	-1	n/a	n/a	n/a	n/a	n/a
3489.746	n/a	RECOG_CONF	1744873	n/a	LTP222	ltpFR	1	1	-1	PATH	1023	5	-1	n/a	n/a	n/a	n/a	n/a
3491.824	n/a	RECOG_TARGET	1745912	n/a	LTP222	ltpFR	1	1	1	NAVIGATOR	938	5	1	n/a	n/a	n/a	n/a	n/a
3493.392	n/a	RECOG_RESP	1746696	n/a	LTP222	ltpFR	1	1	1	NAVIGATOR	938	n/a	1	n/a	n/a	n/a	n/a	n/a
3496.748	n/a	RECOG_CONF	1748374	n/a	LTP222	ltpFR	1	1	1	NAVIGATOR	938	5	1	n/a	n/a	n/a	n/a	n/a
3498.908	n/a	RECOG_TARGET	1749454	n/a	LTP222	ltpFR	1	1	-1	REPORT	1184	4	-1	n/a	n/a	n/a	n/a	n/a
3501.856	n/a	RECOG_RESP	1750928	n/a	LTP222	ltpFR	1	1	-1	REPORT	1184	n/a	-1	n/a	n/a	n/a	n/a	n/a
3504.744	n/a	RECOG_CONF	1752372	n/a	LTP222	ltpFR	1	1	-1	REPORT	1184	4	-1	n/a	n/a	n/a	n/a	n/a
3506.612	n/a	RECOG_TARGET	1753306	n/a	LTP222	ltpFR	1	1	1	EAGLE	512	2	1	n/a	n/a	n/a	n/a	n/a
3510.694	n/a	RECOG_RESP	1755347	n/a	LTP222	ltpFR	1	1	1	EAGLE	512	n/a	1	n/a	n/a	n/a	n/a	n/a
3513.354	n/a	RECOG_CONF	1756677	n/a	LTP222	ltpFR	1	1	1	EAGLE	512	2	1	n/a	n/a	n/a	n/a	n/a
3515.414	n/a	RECOG_TARGET	1757707	n/a	LTP222	ltpFR	1	1	-1	ICING	732	5	-1	n/a	n/a	n/a	n/a	n/a
3517.446	n/a	RECOG_RESP	1758723	n/a	LTP222	ltpFR	1	1	-1	ICING	732	n/a	-1	n/a	n/a	n/a	n/a	n/a
3519.74	n/a	RECOG_CONF	1759870	n/a	LTP222	ltpFR	1	1	-1	ICING	732	5	-1	n/a	n/a	n/a	n/a	n/a
3521.794	n/a	RECOG_TARGET	1760897	n/a	LTP222	ltpFR	1	1	0	CANOE	233	4	1	n/a	n/a	n/a	n/a	n/a
3523.518	n/a	RECOG_RESP	1761759	n/a	LTP222	ltpFR	1	1	0	CANOE	233	n/a	1	n/a	n/a	n/a	n/a	n/a
3525.586	n/a	RECOG_CONF	1762793	n/a	LTP222	ltpFR	1	1	0	CANOE	233	4	1	n/a	n/a	n/a	n/a	n/a
3527.392	n/a	RECOG_LURE	1763696	n/a	LTP222	ltpFR	1	1	n/a	BASEMENT	94	2	n/a	n/a	n/a	n/a	n/a	n/a
3529.1	n/a	RECOG_RESP	1764550	n/a	LTP222	ltpFR	1	1	n/a	BASEMENT	94	n/a	n/a	n/a	n/a	n/a	n/a	n/a
3531.864	n/a	RECOG_CONF	1765932	n/a	LTP222	ltpFR	1	1	n/a	BASEMENT	94	2	n/a	n/a	n/a	n/a	n/a	n/a
3534.008	n/a	RECOG_LURE	1767004	n/a	LTP222	ltpFR	1	1	n/a	NIECE	952	2	n/a	n/a	n/a	n/a	n/a	n/a
3536.676	n/a	RECOG_RESP	1768338	n/a	LTP222	ltpFR	1	1	n/a	NIECE	952	n/a	n/a	n/a	n/a	n/a	n/a	n/a
3539.106	n/a	RECOG_CONF	1769553	n/a	LTP222	ltpFR	1	1	n/a	NIECE	952	2	n/a	n/a	n/a	n/a	n/a	n/a
3541.194	n/a	RECOG_TARGET	1770597	n/a	LTP222	ltpFR	1	1	1	PORCH	1106	4	0	n/a	n/a	n/a	n/a	n/a
3543.96	n/a	RECOG_RESP	1771980	n/a	LTP222	ltpFR	1	1	1	PORCH	1106	n/a	0	n/a	n/a	n/a	n/a	n/a
3545.742	n/a	RECOG_CONF	1772871	n/a	LTP222	ltpFR	1	1	1	PORCH	1106	4	0	n/a	n/a	n/a	n/a	n/a
3547.376	n/a	RECOG_TARGET	1773688	n/a	LTP222	ltpFR	1	1	-1	BRACELET	163	1	-1	n/a	n/a	n/a	n/a	n/a
3549.296	n/a	RECOG_RESP	1774648	n/a	LTP222	ltpFR	1	1	-1	BRACELET	163	n/a	-1	n/a	n/a	n/a	n/a	n/a
3552.506	n/a	RECOG_CONF	1776253	n/a	LTP222	ltpFR	1	1	-1	BRACELET	163	1	-1	n/a	n/a	n/a	n/a	n/a
3554.462	n/a	RECOG_TARGET	1777231	n/a	LTP222	ltpFR	1	1	1	GALAXY	617	5	0	n/a	n/a	n/a	n/a	n/a
3556.386	n/a	RECOG_RESP	1778193	n/a	LTP222	ltpFR	1	1	1	GALAXY	617	n/a	0	n/a	n/a	n/a	n/a	n/a
3557.906	n/a	RECOG_CONF	1778953	n/a	LTP222	ltpFR	1	1	1	GALAXY	617	5	0	n/a	n/a	n/a	n/a	n/a
3559.832	n/a	RECOG_TARGET	1779916	n/a	LTP222	ltpFR	1	1	1	SWORD	1423	3	0	n/a	n/a	n/a	n/a	n/a
3561.694	n/a	RECOG_RESP	1780847	n/a	LTP222	ltpFR	1	1	1	SWORD	1423	n/a	0	n/a	n/a	n/a	n/a	n/a
3563.378	n/a	RECOG_CONF	1781689	n/a	LTP222	ltpFR	1	1	1	SWORD	1423	3	0	n/a	n/a	n/a	n/a	n/a
3565.396	n/a	RECOG_TARGET	1782698	n/a	LTP222	ltpFR	1	1	0	HALL	677	2	1	n/a	n/a	n/a	n/a	n/a
3567.138	n/a	RECOG_RESP	1783569	n/a	LTP222	ltpFR	1	1	0	HALL	677	n/a	1	n/a	n/a	n/a	n/a	n/a
3569.138	n/a	RECOG_CONF	1784569	n/a	LTP222	ltpFR	1	1	0	HALL	677	2	1	n/a	n/a	n/a	n/a	n/a
3571.042	n/a	RECOG_TARGET	1785521	n/a	LTP222	ltpFR	1	1	1	TUTU	1524	5	0	n/a	n/a	n/a	n/a	n/a
3572.4	n/a	RECOG_RESP	1786200	n/a	LTP222	ltpFR	1	1	1	TUTU	1524	n/a	0	n/a	n/a	n/a	n/a	n/a
3574.236	n/a	RECOG_CONF	1787118	n/a	LTP222	ltpFR	1	1	1	TUTU	1524	5	0	n/a	n/a	n/a	n/a	n/a
3575.75	n/a	RECOG_TARGET	1787875	n/a	LTP222	ltpFR	1	1	0	CREW	406	5	1	n/a	n/a	n/a	n/a	n/a
3577.508	n/a	RECOG_RESP	1788754	n/a	LTP222	ltpFR	1	1	0	CREW	406	n/a	1	n/a	n/a	n/a	n/a	n/a
3579.046	n/a	RECOG_CONF	1789523	n/a	LTP222	ltpFR	1	1	0	CREW	406	5	1	n/a	n/a	n/a	n/a	n/a
3580.736	n/a	RECOG_TARGET	1790368	n/a	LTP222	ltpFR	1	1	1	FOREHEAD	592	5	0	n/a	n/a	n/a	n/a	n/a
3581.826	n/a	RECOG_RESP	1790913	n/a	LTP222	ltpFR	1	1	1	FOREHEAD	592	n/a	0	n/a	n/a	n/a	n/a	n/a
3583.38	n/a	RECOG_CONF	1791690	n/a	LTP222	ltpFR	1	1	1	FOREHEAD	592	5	0	n/a	n/a	n/a	n/a	n/a
3585.388	n/a	RECOG_TARGET	1792694	n/a	LTP222	ltpFR	1	1	0	LOAF	835	5	0	n/a	n/a	n/a	n/a	n/a
3586.384	n/a	RECOG_RESP	1793192	n/a	LTP222	ltpFR	1	1	0	LOAF	835	n/a	0	n/a	n/a	n/a	n/a	n/a
3588.058	n/a	RECOG_CONF	1794029	n/a	LTP222	ltpFR	1	1	0	LOAF	835	5	0	n/a	n/a	n/a	n/a	n/a
3595.466	n/a	REC_START	1797733	n/a	LTP222	ltpFR	1	2	n/a	n/a	n/a	n/a	n/a	n/a	n/a	n/a	n/a	n/a
3595.518	n/a	RECOG_TARGET	1797759	n/a	LTP222	ltpFR	1	2	1	DISH	474	4	0	n/a	n/a	n/a	n/a	n/a
3597.768	n/a	RECOG_RESP	1798884	n/a	LTP222	ltpFR	1	2	1	DISH	474	n/a	0	n/a	n/a	n/a	n/a	n/a
3599.252	n/a	RECOG_CONF	1799626	n/a	LTP222	ltpFR	1	2	1	DISH	474	4	0	n/a	n/a	n/a	n/a	n/a
3600.404	n/a	RECOG_TARGET	1800202	n/a	LTP222	ltpFR	1	2	-1	FATHER	554	5	-1	n/a	n/a	n/a	n/a	n/a
3602.034	n/a	RECOG_RESP	1801017	n/a	LTP222	ltpFR	1	2	-1	FATHER	554	n/a	-1	n/a	n/a	n/a	n/a	n/a
3603.474	n/a	RECOG_CONF	1801737	n/a	LTP222	ltpFR	1	2	-1	FATHER	554	5	-1	n/a	n/a	n/a	n/a	n/a
3605.18	n/a	RECOG_TARGET	1802590	n/a	LTP222	ltpFR	1	2	-1	HIGHWAY	707	5	-1	n/a	n/a	n/a	n/a	n/a
3606.66	n/a	RECOG_RESP	1803330	n/a	LTP222	ltpFR	1	2	-1	HIGHWAY	707	n/a	-1	n/a	n/a	n/a	n/a	n/a
3608.216	n/a	RECOG_CONF	1804108	n/a	LTP222	ltpFR	1	2	-1	HIGHWAY	707	5	-1	n/a	n/a	n/a	n/a	n/a
3610.024	n/a	RECOG_TARGET	1805012	n/a	LTP222	ltpFR	1	2	0	WALRUS	1585	2	1	n/a	n/a	n/a	n/a	n/a
3613.192	n/a	RECOG_RESP	1806596	n/a	LTP222	ltpFR	1	2	0	WALRUS	1585	n/a	1	n/a	n/a	n/a	n/a	n/a
3615.178	n/a	RECOG_CONF	1807589	n/a	LTP222	ltpFR	1	2	0	WALRUS	1585	2	1	n/a	n/a	n/a	n/a	n/a
3616.734	n/a	RECOG_TARGET	1808367	n/a	LTP222	ltpFR	1	2	-1	MESSAGE	888	5	-1	n/a	n/a	n/a	n/a	n/a
3619.102	n/a	RECOG_RESP	1809551	n/a	LTP222	ltpFR	1	2	-1	MESSAGE	888	n/a	-1	n/a	n/a	n/a	n/a	n/a
3620.654	n/a	RECOG_CONF	1810327	n/a	LTP222	ltpFR	1	2	-1	MESSAGE	888	5	-1	n/a	n/a	n/a	n/a	n/a
3622.046	n/a	RECOG_TARGET	1811023	n/a	LTP222	ltpFR	1	2	-1	TICK	1463	2	-1	n/a	n/a	n/a	n/a	n/a
3624.578	n/a	RECOG_RESP	1812289	n/a	LTP222	ltpFR	1	2	-1	TICK	1463	n/a	-1	n/a	n/a	n/a	n/a	n/a
3626.464	n/a	RECOG_CONF	1813232	n/a	LTP222	ltpFR	1	2	-1	TICK	1463	2	-1	n/a	n/a	n/a	n/a	n/a
3627.9	n/a	RECOG_LURE	1813950	n/a	LTP222	ltpFR	1	2	n/a	PALM	1007	1	n/a	n/a	n/a	n/a	n/a	n/a
3630.038	n/a	RECOG_RESP	1815019	n/a	LTP222	ltpFR	1	2	n/a	PALM	1007	n/a	n/a	n/a	n/a	n/a	n/a	n/a
3631.622	n/a	RECOG_CONF	1815811	n/a	LTP222	ltpFR	1	2	n/a	PALM	1007	1	n/a	n/a	n/a	n/a	n/a	n/a
3633.054	n/a	RECOG_LURE	1816527	n/a	LTP222	ltpFR	1	2	n/a	CLAW	319	1	n/a	n/a	n/a	n/a	n/a	n/a
3635.2	n/a	RECOG_RESP	1817600	n/a	LTP222	ltpFR	1	2	n/a	CLAW	319	n/a	n/a	n/a	n/a	n/a	n/a	n/a
3637.152	n/a	RECOG_CONF	1818576	n/a	LTP222	ltpFR	1	2	n/a	CLAW	319	1	n/a	n/a	n/a	n/a	n/a	n/a
3638.59	n/a	RECOG_TARGET	1819295	n/a	LTP222	ltpFR	1	2	1	CATTLE	261	5	1	n/a	n/a	n/a	n/a	n/a
3640.49	n/a	RECOG_RESP	1820245	n/a	LTP222	ltpFR	1	2	1	CATTLE	261	n/a	1	n/a	n/a	n/a	n/a	n/a
3642.048	n/a	RECOG_CONF	1821024	n/a	LTP222	ltpFR	1	2	1	CATTLE	261	5	1	n/a	n/a	n/a	n/a	n/a
3643.51	n/a	RECOG_TARGET	1821755	n/a	LTP222	ltpFR	1	2	-1	ROOF	1205	4	-1	n/a	n/a	n/a	n/a	n/a
3645.358	n/a	RECOG_RESP	1822679	n/a	LTP222	ltpFR	1	2	-1	ROOF	1205	n/a	-1	n/a	n/a	n/a	n/a	n/a
3647.126	n/a	RECOG_CONF	1823563	n/a	LTP222	ltpFR	1	2	-1	ROOF	1205	4	-1	n/a	n/a	n/a	n/a	n/a
3648.772	n/a	RECOG_TARGET	1824386	n/a	LTP222	ltpFR	1	2	0	SQUID	1361	4	0	n/a	n/a	n/a	n/a	n/a
3650.226	n/a	RECOG_RESP	1825113	n/a	LTP222	ltpFR	1	2	0	SQUID	1361	n/a	0	n/a	n/a	n/a	n/a	n/a
3651.936	n/a	RECOG_CONF	1825968	n/a	LTP222	ltpFR	1	2	0	SQUID	1361	4	0	n/a	n/a	n/a	n/a	n/a
3653.766	n/a	RECOG_TARGET	1826883	n/a	LTP222	ltpFR	1	2	0	RACK	1154	5	1	n/a	n/a	n/a	n/a	n/a
3654.91	n/a	RECOG_RESP	1827455	n/a	LTP222	ltpFR	1	2	0	RACK	1154	n/a	1	n/a	n/a	n/a	n/a	n/a
3656.684	n/a	RECOG_CONF	1828342	n/a	LTP222	ltpFR	1	2	0	RACK	1154	5	1	n/a	n/a	n/a	n/a	n/a
3658.04	n/a	RECOG_LURE	1829020	n/a	LTP222	ltpFR	1	2	n/a	SAND	1230	2	n/a	n/a	n/a	n/a	n/a	n/a
3660.008	n/a	RECOG_RESP	1830004	n/a	LTP222	ltpFR	1	2	n/a	SAND	1230	n/a	n/a	n/a	n/a	n/a	n/a	n/a
3661.994	n/a	RECOG_CONF	1830997	n/a	LTP222	ltpFR	1	2	n/a	SAND	1230	2	n/a	n/a	n/a	n/a	n/a	n/a
3663.804	n/a	RECOG_TARGET	1831902	n/a	LTP222	ltpFR	1	2	1	PARCEL	1012	5	0	n/a	n/a	n/a	n/a	n/a
3666.054	n/a	RECOG_RESP	1833027	n/a	LTP222	ltpFR	1	2	1	PARCEL	1012	n/a	0	n/a	n/a	n/a	n/a	n/a
3667.42	n/a	RECOG_CONF	1833710	n/a	LTP222	ltpFR	1	2	1	PARCEL	1012	5	0	n/a	n/a	n/a	n/a	n/a
3668.64	n/a	RECOG_TARGET	1834320	n/a	LTP222	ltpFR	1	2	0	MAMMAL	861	5	1	n/a	n/a	n/a	n/a	n/a
3670.396	n/a	RECOG_RESP	1835198	n/a	LTP222	ltpFR	1	2	0	MAMMAL	861	n/a	1	n/a	n/a	n/a	n/a	n/a
3671.87	n/a	RECOG_CONF	1835935	n/a	LTP222	ltpFR	1	2	0	MAMMAL	861	5	1	n/a	n/a	n/a	n/a	n/a
3673.768	n/a	RECOG_TARGET	1836884	n/a	LTP222	ltpFR	1	2	1	CALF	222	5	1	n/a	n/a	n/a	n/a	n/a
3674.742	n/a	RECOG_RESP	1837371	n/a	LTP222	ltpFR	1	2	1	CALF	222	n/a	1	n/a	n/a	n/a	n/a	n/a
3676.362	n/a	RECOG_CONF	1838181	n/a	LTP222	ltpFR	1	2	1	CALF	222	5	1	n/a	n/a	n/a	n/a	n/a
3678.226	n/a	RECOG_TARGET	1839113	n/a	LTP222	ltpFR	1	2	-1	CARPET	247	5	-1	n/a	n/a	n/a	n/a	n/a
3679.318	n/a	RECOG_RESP	1839659	n/a	LTP222	ltpFR	1	2	-1	CARPET	247	n/a	-1	n/a	n/a	n/a	n/a	n/a
3680.892	n/a	RECOG_CONF	1840446	n/a	LTP222	ltpFR	1	2	-1	CARPET	247	5	-1	n/a	n/a	n/a	n/a	n/a
3682.058	n/a	RECOG_TARGET	1841029	n/a	LTP222	ltpFR	1	2	0	SISTER	1312	5	1	n/a	n/a	n/a	n/a	n/a
3683.01	n/a	RECOG_RESP	1841505	n/a	LTP222	ltpFR	1	2	0	SISTER	1312	n/a	1	n/a	n/a	n/a	n/a	n/a
3684.592	n/a	RECOG_CONF	1842296	n/a	LTP222	ltpFR	1	2	0	SISTER	1312	5	1	n/a	n/a	n/a	n/a	n/a
3685.78	n/a	RECOG_TARGET	1842890	n/a	LTP222	ltpFR	1	2	1	ATTORNEY	58	5	1	n/a	n/a	n/a	n/a	n/a
3686.964	n/a	RECOG_RESP	1843482	n/a	LTP222	ltpFR	1	2	1	ATTORNEY	58	n/a	1	n/a	n/a	n/a	n/a	n/a
3688.098	n/a	RECOG_CONF	1844049	n/a	LTP222	ltpFR	1	2	1	ATTORNEY	58	5	1	n/a	n/a	n/a	n/a	n/a
3689.436	n/a	RECOG_LURE	1844718	n/a	LTP222	ltpFR	1	2	n/a	NERVE	944	n/a	n/a	n/a	n/a	n/a	n/a	n/a
3692.264	n/a	RECOG_RESP	1846132	n/a	LTP222	ltpFR	1	2	n/a	NERVE	944	n/a	n/a	n/a	n/a	n/a	n/a	n/a
3700.77	n/a	REC_START	1850385	n/a	LTP222	ltpFR	1	3	n/a	n/a	n/a	n/a	n/a	n/a	n/a	n/a	n/a	n/a
3700.822	n/a	RECOG_TARGET	1850411	n/a	LTP222	ltpFR	1	3	0	PANTS	1010	5	1	n/a	n/a	n/a	n/a	n/a
3703.138	n/a	RECOG_RESP	1851569	n/a	LTP222	ltpFR	1	3	0	PANTS	1010	n/a	1	n/a	n/a	n/a	n/a	n/a
3704.706	n/a	RECOG_CONF	1852353	n/a	LTP222	ltpFR	1	3	0	PANTS	1010	5	1	n/a	n/a	n/a	n/a	n/a
3705.858	n/a	RECOG_TARGET	1852929	n/a	LTP222	ltpFR	1	3	0	CAR	241	5	1	n/a	n/a	n/a	n/a	n/a
3708.096	n/a	RECOG_RESP	1854048	n/a	LTP222	ltpFR	1	3	0	CAR	241	n/a	1	n/a	n/a	n/a	n/a	n/a
3710.244	n/a	RECOG_CONF	1855122	n/a	LTP222	ltpFR	1	3	0	CAR	241	5	1	n/a	n/a	n/a	n/a	n/a
3711.998	n/a	RECOG_TARGET	1855999	n/a	LTP222	ltpFR	1	3	1	MOAT	903	5	0	n/a	n/a	n/a	n/a	n/a
3713.408	n/a	RECOG_RESP	1856704	n/a	LTP222	ltpFR	1	3	1	MOAT	903	n/a	0	n/a	n/a	n/a	n/a	n/a
3715.232	n/a	RECOG_CONF	1857616	n/a	LTP222	ltpFR	1	3	1	MOAT	903	5	0	n/a	n/a	n/a	n/a	n/a
3717.508	n/a	RECOG_TARGET	1858754	n/a	LTP222	ltpFR	1	3	-1	ROAD	1196	5	-1	n/a	n/a	n/a	n/a	n/a
3719.536	n/a	RECOG_RESP	1859768	n/a	LTP222	ltpFR	1	3	-1	ROAD	1196	n/a	-1	n/a	n/a	n/a	n/a	n/a
3721.8	n/a	RECOG_CONF	1860900	n/a	LTP222	ltpFR	1	3	-1	ROAD	1196	5	-1	n/a	n/a	n/a	n/a	n/a
3724.026	n/a	RECOG_LURE	1862013	n/a	LTP222	ltpFR	1	3	n/a	EXPERT	543	2	n/a	n/a	n/a	n/a	n/a	n/a
3726.044	n/a	RECOG_RESP	1863022	n/a	LTP222	ltpFR	1	3	n/a	EXPERT	543	n/a	n/a	n/a	n/a	n/a	n/a	n/a
3728.692	n/a	RECOG_CONF	1864346	n/a	LTP222	ltpFR	1	3	n/a	EXPERT	543	2	n/a	n/a	n/a	n/a	n/a	n/a
3730.91	n/a	RECOG_LURE	1865455	n/a	LTP222	ltpFR	1	3	n/a	DRAGON	492	2	n/a	n/a	n/a	n/a	n/a	n/a
3732.522	n/a	RECOG_RESP	1866261	n/a	LTP222	ltpFR	1	3	n/a	DRAGON	492	n/a	n/a	n/a	n/a	n/a	n/a	n/a
3735.01	n/a	RECOG_CONF	1867505	n/a	LTP222	ltpFR	1	3	n/a	DRAGON	492	2	n/a	n/a	n/a	n/a	n/a	n/a
3737.578	n/a	RECOG_TARGET	1868789	n/a	LTP222	ltpFR	1	3	1	RADIATOR	1156	5	0	n/a	n/a	n/a	n/a	n/a
3739.306	n/a	RECOG_RESP	1869653	n/a	LTP222	ltpFR	1	3	1	RADIATOR	1156	n/a	0	n/a	n/a	n/a	n/a	n/a
3741.944	n/a	RECOG_CONF	1870972	n/a	LTP222	ltpFR	1	3	1	RADIATOR	1156	5	0	n/a	n/a	n/a	n/a	n/a
3744.17	n/a	RECOG_TARGET	1872085	n/a	LTP222	ltpFR	1	3	-1	ZUCCHINI	1638	2	-1	n/a	n/a	n/a	n/a	n/a
3745.704	n/a	RECOG_RESP	1872852	n/a	LTP222	ltpFR	1	3	-1	ZUCCHINI	1638	n/a	-1	n/a	n/a	n/a	n/a	n/a
3749.02	n/a	RECOG_CONF	1874510	n/a	LTP222	ltpFR	1	3	-1	ZUCCHINI	1638	2	-1	n/a	n/a	n/a	n/a	n/a
3751.214	n/a	RECOG_TARGET	1875607	n/a	LTP222	ltpFR	1	3	-1	HAND	683	5	-1	n/a	n/a	n/a	n/a	n/a
3752.714	n/a	RECOG_RESP	1876357	n/a	LTP222	ltpFR	1	3	-1	HAND	683	n/a	-1	n/a	n/a	n/a	n/a	n/a
3754.816	n/a	RECOG_CONF	1877408	n/a	LTP222	ltpFR	1	3	-1	HAND	683	5	-1	n/a	n/a	n/a	n/a	n/a
3756.558	n/a	RECOG_TARGET	1878279	n/a	LTP222	ltpFR	1	3	-1	POND	1101	5	-1	n/a	n/a	n/a	n/a	n/a
3759.256	n/a	RECOG_RESP	1879628	n/a	LTP222	ltpFR	1	3	-1	POND	1101	n/a	-1	n/a	n/a	n/a	n/a	n/a
3761.276	n/a	RECOG_CONF	1880638	n/a	LTP222	ltpFR	1	3	-1	POND	1101	5	-1	n/a	n/a	n/a	n/a	n/a
3763.284	n/a	RECOG_TARGET	1881642	n/a	LTP222	ltpFR	1	3	0	FOUNTAIN	597	5	1	n/a	n/a	n/a	n/a	n/a
3764.376	n/a	RECOG_RESP	1882188	n/a	LTP222	ltpFR	1	3	0	FOUNTAIN	597	n/a	1	n/a	n/a	n/a	n/a	n/a
3766.06	n/a	RECOG_CONF	1883030	n/a	LTP222	ltpFR	1	3	0	FOUNTAIN	597	5	1	n/a	n/a	n/a	n/a	n/a
3768.012	n/a	RECOG_TARGET	1884006	n/a	LTP222	ltpFR	1	3	0	CONTAINER	366	5	1	n/a	n/a	n/a	n/a	n/a
3769.132	n/a	RECOG_RESP	1884566	n/a	LTP222	ltpFR	1	3	0	CONTAINER	366	n/a	1	n/a	n/a	n/a	n/a	n/a
3770.834	n/a	RECOG_CONF	1885417	n/a	LTP222	ltpFR	1	3	0	CONTAINER	366	5	1	n/a	n/a	n/a	n/a	n/a
3773.156	n/a	RECOG_LURE	1886578	n/a	LTP222	ltpFR	1	3	n/a	CHAIN	273	5	n/a	n/a	n/a	n/a	n/a	n/a
3774.632	n/a	RECOG_RESP	1887316	n/a	LTP222	ltpFR	1	3	n/a	CHAIN	273	n/a	n/a	n/a	n/a	n/a	n/a	n/a
3776.622	n/a	RECOG_CONF	1888311	n/a	LTP222	ltpFR	1	3	n/a	CHAIN	273	5	n/a	n/a	n/a	n/a	n/a	n/a
3778.652	n/a	RECOG_TARGET	1889326	n/a	LTP222	ltpFR	1	3	0	DANCER	437	5	1	n/a	n/a	n/a	n/a	n/a
3780.336	n/a	RECOG_RESP	1890168	n/a	LTP222	ltpFR	1	3	0	DANCER	437	n/a	1	n/a	n/a	n/a	n/a	n/a
3781.964	n/a	RECOG_CONF	1890982	n/a	LTP222	ltpFR	1	3	0	DANCER	437	5	1	n/a	n/a	n/a	n/a	n/a
3783.672	n/a	RECOG_TARGET	1891836	n/a	LTP222	ltpFR	1	3	-1	JEEP	753	4	-1	n/a	n/a	n/a	n/a	n/a
3784.86	n/a	RECOG_RESP	1892430	n/a	LTP222	ltpFR	1	3	-1	JEEP	753	n/a	-1	n/a	n/a	n/a	n/a	n/a
3786.774	n/a	RECOG_CONF	1893387	n/a	LTP222	ltpFR	1	3	-1	JEEP	753	4	-1	n/a	n/a	n/a	n/a	n/a
3788.606	n/a	RECOG_LURE	1894303	n/a	LTP222	ltpFR	1	3	n/a	GARAGE	621	1	n/a	n/a	n/a	n/a	n/a	n/a
3790.088	n/a	RECOG_RESP	1895044	n/a	LTP222	ltpFR	1	3	n/a	GARAGE	621	n/a	n/a	n/a	n/a	n/a	n/a	n/a
3792.362	n/a	RECOG_CONF	1896181	n/a	LTP222	ltpFR	1	3	n/a	GARAGE	621	1	n/a	n/a	n/a	n/a	n/a	n/a
3794.336	n/a	RECOG_TARGET	1897168	n/a	LTP222	ltpFR	1	3	1	SKETCH	1315	2	0	n/a	n/a	n/a	n/a	n/a
3797.666	n/a	RECOG_RESP	1898833	n/a	LTP222	ltpFR	1	3	1	SKETCH	1315	n/a	0	n/a	n/a	n/a	n/a	n/a
3799.706	n/a	RECOG_CONF	1899853	n/a	LTP222	ltpFR	1	3	1	SKETCH	1315	2	0	n/a	n/a	n/a	n/a	n/a
3801.464	n/a	RECOG_TARGET	1900732	n/a	LTP222	ltpFR	1	3	1	DART	440	5	0	n/a	n/a	n/a	n/a	n/a
3803.086	n/a	RECOG_RESP	1901543	n/a	LTP222	ltpFR	1	3	1	DART	440	n/a	0	n/a	n/a	n/a	n/a	n/a
3804.804	n/a	RECOG_CONF	1902402	n/a	LTP222	ltpFR	1	3	1	DART	440	5	0	n/a	n/a	n/a	n/a	n/a
3806.826	n/a	RECOG_LURE	1903413	n/a	LTP222	ltpFR	1	3	n/a	TILE	1468	5	n/a	n/a	n/a	n/a	n/a	n/a
3808.104	n/a	RECOG_RESP	1904052	n/a	LTP222	ltpFR	1	3	n/a	TILE	1468	n/a	n/a	n/a	n/a	n/a	n/a	n/a
3809.684	n/a	RECOG_CONF	1904842	n/a	LTP222	ltpFR	1	3	n/a	TILE	1468	5	n/a	n/a	n/a	n/a	n/a	n/a
3811.586	n/a	RECOG_LURE	1905793	n/a	LTP222	ltpFR	1	3	n/a	DIAPER	459	3	n/a	n/a	n/a	n/a	n/a	n/a
3813.916	n/a	RECOG_RESP	1906958	n/a	LTP222	ltpFR	1	3	n/a	DIAPER	459	n/a	n/a	n/a	n/a	n/a	n/a	n/a
3816.026	n/a	RECOG_CONF	1908013	n/a	LTP222	ltpFR	1	3	n/a	DIAPER	459	3	n/a	n/a	n/a	n/a	n/a	n/a
3822.616	n/a	REC_START	1911308	n/a	LTP222	ltpFR	1	4	n/a	n/a	n/a	n/a	n/a	n/a	n/a	n/a	n/a	n/a
3822.678	n/a	RECOG_TARGET	1911339	n/a	LTP222	ltpFR	1	4	1	FLASHLIGHT	575	5	0	n/a	n/a	n/a	n/a	n/a
3824.13	n/a	RECOG_RESP	1912065	n/a	LTP222	ltpFR	1	4	1	FLASHLIGHT	575	n/a	0	n/a	n/a	n/a	n/a	n/a
3825.868	n/a	RECOG_CONF	1912934	n/a	LTP222	ltpFR	1	4	1	FLASHLIGHT	575	5	0	n/a	n/a	n/a	n/a	n/a
3827.974	n/a	RECOG_TARGET	1913987	n/a	LTP222	ltpFR	1	4	0	LION	827	2	1	n/a	n/a	n/a	n/a	n/a
3829.574	n/a	RECOG_RESP	1914787	n/a	LTP222	ltpFR	1	4	0	LION	827	n/a	1	n/a	n/a	n/a	n/a	n/a
3831.538	n/a	RECOG_CONF	1915769	n/a	LTP222	ltpFR	1	4	0	LION	827	2	1	n/a	n/a	n/a	n/a	n/a
3833.594	n/a	RECOG_TARGET	1916797	n/a	LTP222	ltpFR	1	4	-1	BANDANNA	80	5	-1	n/a	n/a	n/a	n/a	n/a
3834.764	n/a	RECOG_RESP	1917382	n/a	LTP222	ltpFR	1	4	-1	BANDANNA	80	n/a	-1	n/a	n/a	n/a	n/a	n/a
3836.526	n/a	RECOG_CONF	1918263	n/a	LTP222	ltpFR	1	4	-1	BANDANNA	80	5	-1	n/a	n/a	n/a	n/a	n/a
3838.648	n/a	RECOG_TARGET	1919324	n/a	LTP222	ltpFR	1	4	1	BARLEY	88	5	0	n/a	n/a	n/a	n/a	n/a
3839.686	n/a	RECOG_RESP	1919843	n/a	LTP222	ltpFR	1	4	1	BARLEY	88	n/a	0	n/a	n/a	n/a	n/a	n/a
3841.37	n/a	RECOG_CONF	1920685	n/a	LTP222	ltpFR	1	4	1	BARLEY	88	5	0	n/a	n/a	n/a	n/a	n/a
3843.29	n/a	RECOG_LURE	1921645	n/a	LTP222	ltpFR	1	4	n/a	CHAMPAGNE	278	2	n/a	n/a	n/a	n/a	n/a	n/a
3844.46	n/a	RECOG_RESP	1922230	n/a	LTP222	ltpFR	1	4	n/a	CHAMPAGNE	278	n/a	n/a	n/a	n/a	n/a	n/a	n/a
3846.258	n/a	RECOG_CONF	1923129	n/a	LTP222	ltpFR	1	4	n/a	CHAMPAGNE	278	2	n/a	n/a	n/a	n/a	n/a	n/a
3848.394	n/a	RECOG_TARGET	1924197	n/a	LTP222	ltpFR	1	4	1	ELEVATOR	524	5	0	n/a	n/a	n/a	n/a	n/a
3849.412	n/a	RECOG_RESP	1924706	n/a	LTP222	ltpFR	1	4	1	ELEVATOR	524	n/a	0	n/a	n/a	n/a	n/a	n/a
3851.088	n/a	RECOG_CONF	1925544	n/a	LTP222	ltpFR	1	4	1	ELEVATOR	524	5	0	n/a	n/a	n/a	n/a	n/a
3852.836	n/a	RECOG_TARGET	1926418	n/a	LTP222	ltpFR	1	4	1	LUMBER	848	5	0	n/a	n/a	n/a	n/a	n/a
3853.814	n/a	RECOG_RESP	1926907	n/a	LTP222	ltpFR	1	4	1	LUMBER	848	n/a	0	n/a	n/a	n/a	n/a	n/a
3855.468	n/a	RECOG_CONF	1927734	n/a	LTP222	ltpFR	1	4	1	LUMBER	848	5	0	n/a	n/a	n/a	n/a	n/a
3857.404	n/a	RECOG_TARGET	1928702	n/a	LTP222	ltpFR	1	4	-1	CYLINDER	432	5	-1	n/a	n/a	n/a	n/a	n/a
3858.322	n/a	RECOG_RESP	1929161	n/a	LTP222	ltpFR	1	4	-1	CYLINDER	432	n/a	-1	n/a	n/a	n/a	n/a	n/a
3860.038	n/a	RECOG_CONF	1930019	n/a	LTP222	ltpFR	1	4	-1	CYLINDER	432	5	-1	n/a	n/a	n/a	n/a	n/a
3861.87	n/a	RECOG_TARGET	1930935	n/a	LTP222	ltpFR	1	4	1	MANAGER	863	5	1	n/a	n/a	n/a	n/a	n/a
3862.75	n/a	RECOG_RESP	1931375	n/a	LTP222	ltpFR	1	4	1	MANAGER	863	n/a	1	n/a	n/a	n/a	n/a	n/a
3864.264	n/a	RECOG_CONF	1932132	n/a	LTP222	ltpFR	1	4	1	MANAGER	863	5	1	n/a	n/a	n/a	n/a	n/a
3866.144	n/a	RECOG_TARGET	1933072	n/a	LTP222	ltpFR	1	4	0	TOAST	1471	5	0	n/a	n/a	n/a	n/a	n/a
3867.054	n/a	RECOG_RESP	1933527	n/a	LTP222	ltpFR	1	4	0	TOAST	1471	n/a	0	n/a	n/a	n/a	n/a	n/a
3868.65	n/a	RECOG_CONF	1934325	n/a	LTP222	ltpFR	1	4	0	TOAST	1471	5	0	n/a	n/a	n/a	n/a	n/a
3870.344	n/a	RECOG_TARGET	1935172	n/a	LTP222	ltpFR	1	4	0	SARDINE	1235	5	0	n/a	n/a	n/a	n/a	n/a
3871.176	n/a	RECOG_RESP	1935588	n/a	LTP222	ltpFR	1	4	0	SARDINE	1235	n/a	0	n/a	n/a	n/a	n/a	n/a
3872.96	n/a	RECOG_CONF	1936480	n/a	LTP222	ltpFR	1	4	0	SARDINE	1235	5	0	n/a	n/a	n/a	n/a	n/a
3874.82	n/a	RECOG_TARGET	1937410	n/a	LTP222	ltpFR	1	4	-1	ASTRONAUT	51	5	-1	n/a	n/a	n/a	n/a	n/a
3875.904	n/a	RECOG_RESP	1937952	n/a	LTP222	ltpFR	1	4	-1	ASTRONAUT	51	n/a	-1	n/a	n/a	n/a	n/a	n/a
3877.752	n/a	RECOG_CONF	1938876	n/a	LTP222	ltpFR	1	4	-1	ASTRONAUT	51	5	-1	n/a	n/a	n/a	n/a	n/a
3879.578	n/a	RECOG_TARGET	1939789	n/a	LTP222	ltpFR	1	4	1	TROUSERS	1510	3	0	n/a	n/a	n/a	n/a	n/a
3880.534	n/a	RECOG_RESP	1940267	n/a	LTP222	ltpFR	1	4	1	TROUSERS	1510	n/a	0	n/a	n/a	n/a	n/a	n/a
3883.32	n/a	RECOG_CONF	1941660	n/a	LTP222	ltpFR	1	4	1	TROUSERS	1510	3	0	n/a	n/a	n/a	n/a	n/a
3884.984	n/a	RECOG_TARGET	1942492	n/a	LTP222	ltpFR	1	4	-1	HOOD	714	4	-1	n/a	n/a	n/a	n/a	n/a
3886.076	n/a	RECOG_RESP	1943038	n/a	LTP222	ltpFR	1	4	-1	HOOD	714	n/a	-1	n/a	n/a	n/a	n/a	n/a
3887.68	n/a	RECOG_CONF	1943840	n/a	LTP222	ltpFR	1	4	-1	HOOD	714	4	-1	n/a	n/a	n/a	n/a	n/a
3889.702	n/a	RECOG_LURE	1944851	n/a	LTP222	ltpFR	1	4	n/a	VILLAIN	1567	1	n/a	n/a	n/a	n/a	n/a	n/a
3891.088	n/a	RECOG_RESP	1945544	n/a	LTP222	ltpFR	1	4	n/a	VILLAIN	1567	n/a	n/a	n/a	n/a	n/a	n/a	n/a
3892.94	n/a	RECOG_CONF	1946470	n/a	LTP222	ltpFR	1	4	n/a	VILLAIN	1567	1	n/a	n/a	n/a	n/a	n/a	n/a
3894.864	n/a	RECOG_TARGET	1947432	n/a	LTP222	ltpFR	1	4	-1	CRUMB	416	1	-1	n/a	n/a	n/a	n/a	n/a
3896.386	n/a	RECOG_RESP	1948193	n/a	LTP222	ltpFR	1	4	-1	CRUMB	416	n/a	-1	n/a	n/a	n/a	n/a	n/a
3898.48	n/a	RECOG_CONF	1949240	n/a	LTP222	ltpFR	1	4	-1	CRUMB	416	1	-1	n/a	n/a	n/a	n/a	n/a
3900.418	n/a	RECOG_TARGET	1950209	n/a	LTP222	ltpFR	1	4	0	CLAY	320	5	0	n/a	n/a	n/a	n/a	n/a
3901.606	n/a	RECOG_RESP	1950803	n/a	LTP222	ltpFR	1	4	0	CLAY	320	n/a	0	n/a	n/a	n/a	n/a	n/a
3903.572	n/a	RECOG_CONF	1951786	n/a	LTP222	ltpFR	1	4	0	CLAY	320	5	0	n/a	n/a	n/a	n/a	n/a
3905.412	n/a	RECOG_TARGET	1952706	n/a	LTP222	ltpFR	1	4	0	WAITER	1580	2	1	n/a	n/a	n/a	n/a	n/a
3907.586	n/a	RECOG_RESP	1953793	n/a	LTP222	ltpFR	1	4	0	WAITER	1580	n/a	1	n/a	n/a	n/a	n/a	n/a
3909.602	n/a	RECOG_CONF	1954801	n/a	LTP222	ltpFR	1	4	0	WAITER	1580	2	1	n/a	n/a	n/a	n/a	n/a
3911.542	n/a	RECOG_TARGET	1955771	n/a	LTP222	ltpFR	1	4	-1	OUTLAW	989	1	-1	n/a	n/a	n/a	n/a	n/a
3913.08	n/a	RECOG_RESP	1956540	n/a	LTP222	ltpFR	1	4	-1	OUTLAW	989	n/a	-1	n/a	n/a	n/a	n/a	n/a
3914.886	n/a	RECOG_CONF	1957443	n/a	LTP222	ltpFR	1	4	-1	OUTLAW	989	1	-1	n/a	n/a	n/a	n/a	n/a
3916.922	n/a	RECOG_TARGET	1958461	n/a	LTP222	ltpFR	1	4	0	SWAN	1417	4	1	n/a	n/a	n/a	n/a	n/a
3918.206	n/a	RECOG_RESP	1959103	n/a	LTP222	ltpFR	1	4	0	SWAN	1417	n/a	1	n/a	n/a	n/a	n/a	n/a
3919.836	n/a	RECOG_CONF	1959918	n/a	LTP222	ltpFR	1	4	0	SWAN	1417	4	1	n/a	n/a	n/a	n/a	n/a
3925.464	n/a	REC_START	1962732	n/a	LTP222	ltpFR	1	5	n/a	n/a	n/a	n/a	n/a	n/a	n/a	n/a	n/a	n/a
3925.512	n/a	RECOG_TARGET	1962756	n/a	LTP222	ltpFR	1	5	1	BALCONY	72	2	0	n/a	n/a	n/a	n/a	n/a
3930.8	n/a	RECOG_RESP	1965400	n/a	LTP222	ltpFR	1	5	1	BALCONY	72	n/a	0	n/a	n/a	n/a	n/a	n/a
3932.124	n/a	RECOG_CONF	1966062	n/a	LTP222	ltpFR	1	5	1	BALCONY	72	2	0	n/a	n/a	n/a	n/a	n/a
3938.018	n/a	RECOG_TARGET	1969009	n/a	LTP222	ltpFR	1	5	0	LIST	830	5	0	n/a	n/a	n/a	n/a	n/a
3941.576	n/a	RECOG_RESP	1970788	n/a	LTP222	ltpFR	1	5	0	LIST	830	n/a	0	n/a	n/a	n/a	n/a	n/a
3943.26	n/a	RECOG_CONF	1971630	n/a	LTP222	ltpFR	1	5	0	LIST	830	5	0	n/a	n/a	n/a	n/a	n/a
3945.54	n/a	RECOG_TARGET	1972770	n/a	LTP222	ltpFR	1	5	0	RAG	1160	5	0	n/a	n/a	n/a	n/a	n/a
3946.88	n/a	RECOG_RESP	1973440	n/a	LTP222	ltpFR	1	5	0	RAG	1160	n/a	0	n/a	n/a	n/a	n/a	n/a
3948.796	n/a	RECOG_CONF	1974398	n/a	LTP222	ltpFR	1	5	0	RAG	1160	5	0	n/a	n/a	n/a	n/a	n/a
3950.776	n/a	RECOG_TARGET	1975388	n/a	LTP222	ltpFR	1	5	-1	CARPENTER	246	5	-1	n/a	n/a	n/a	n/a	n/a
3951.68	n/a	RECOG_RESP	1975840	n/a	LTP222	ltpFR	1	5	-1	CARPENTER	246	n/a	-1	n/a	n/a	n/a	n/a	n/a
3953.472	n/a	RECOG_CONF	1976736	n/a	LTP222	ltpFR	1	5	-1	CARPENTER	246	5	-1	n/a	n/a	n/a	n/a	n/a
3955.552	n/a	RECOG_TARGET	1977776	n/a	LTP222	ltpFR	1	5	-1	TAIL	1430	2	-1	n/a	n/a	n/a	n/a	n/a
3957.896	n/a	RECOG_RESP	1978948	n/a	LTP222	ltpFR	1	5	-1	TAIL	1430	n/a	-1	n/a	n/a	n/a	n/a	n/a
3959.738	n/a	RECOG_CONF	1979869	n/a	LTP222	ltpFR	1	5	-1	TAIL	1430	2	-1	n/a	n/a	n/a	n/a	n/a
3961.6	n/a	RECOG_TARGET	1980800	n/a	LTP222	ltpFR	1	5	1	CREVICE	405	5	0	n/a	n/a	n/a	n/a	n/a
3962.584	n/a	RECOG_RESP	1981292	n/a	LTP222	ltpFR	1	5	1	CREVICE	405	n/a	0	n/a	n/a	n/a	n/a	n/a
3964.412	n/a	RECOG_CONF	1982206	n/a	LTP222	ltpFR	1	5	1	CREVICE	405	5	0	n/a	n/a	n/a	n/a	n/a
3966.526	n/a	RECOG_TARGET	1983263	n/a	LTP222	ltpFR	1	5	1	BAY	102	4	0	n/a	n/a	n/a	n/a	n/a
3967.894	n/a	RECOG_RESP	1983947	n/a	LTP222	ltpFR	1	5	1	BAY	102	n/a	0	n/a	n/a	n/a	n/a	n/a
3969.418	n/a	RECOG_CONF	1984709	n/a	LTP222	ltpFR	1	5	1	BAY	102	4	0	n/a	n/a	n/a	n/a	n/a
3971.406	n/a	RECOG_TARGET	1985703	n/a	LTP222	ltpFR	1	5	0	RICE	1190	5	0	n/a	n/a	n/a	n/a	n/a
3972.704	n/a	RECOG_RESP	1986352	n/a	LTP222	ltpFR	1	5	0	RICE	1190	n/a	0	n/a	n/a	n/a	n/a	n/a
3974.578	n/a	RECOG_CONF	1987289	n/a	LTP222	ltpFR	1	5	0	RICE	1190	5	0	n/a	n/a	n/a	n/a	n/a
3976.884	n/a	RECOG_TARGET	1988442	n/a	LTP222	ltpFR	1	5	0	VET	1560	5	1	n/a	n/a	n/a	n/a	n/a
3978.248	n/a	RECOG_RESP	1989124	n/a	LTP222	ltpFR	1	5	0	VET	1560	n/a	1	n/a	n/a	n/a	n/a	n/a
3979.958	n/a	RECOG_CONF	1989979	n/a	LTP222	ltpFR	1	5	0	VET	1560	5	1	n/a	n/a	n/a	n/a	n/a
3982.02	n/a	RECOG_TARGET	1991010	n/a	LTP222	ltpFR	1	5	1	STEWARDESS	1381	5	1	n/a	n/a	n/a	n/a	n/a
3983.006	n/a	RECOG_RESP	1991503	n/a	LTP222	ltpFR	1	5	1	STEWARDESS	1381	n/a	1	n/a	n/a	n/a	n/a	n/a
3984.696	n/a	RECOG_CONF	1992348	n/a	LTP222	ltpFR	1	5	1	STEWARDESS	1381	5	1	n/a	n/a	n/a	n/a	n/a
3986.63	n/a	RECOG_TARGET	1993315	n/a	LTP222	ltpFR	1	5	0	TROPHY	1509	5	0	n/a	n/a	n/a	n/a	n/a
3987.708	n/a	RECOG_RESP	1993854	n/a	LTP222	ltpFR	1	5	0	TROPHY	1509	n/a	0	n/a	n/a	n/a	n/a	n/a
3989.192	n/a	RECOG_CONF	1994596	n/a	LTP222	ltpFR	1	5	0	TROPHY	1509	5	0	n/a	n/a	n/a	n/a	n/a
3991.072	n/a	RECOG_LURE	1995536	n/a	LTP222	ltpFR	1	5	n/a	SICKLE	1302	2	n/a	n/a	n/a	n/a	n/a	n/a
3993.55	n/a	RECOG_RESP	1996775	n/a	LTP222	ltpFR	1	5	n/a	SICKLE	1302	n/a	n/a	n/a	n/a	n/a	n/a	n/a
3995.042	n/a	RECOG_CONF	1997521	n/a	LTP222	ltpFR	1	5	n/a	SICKLE	1302	2	n/a	n/a	n/a	n/a	n/a	n/a
3996.978	n/a	RECOG_LURE	1998489	n/a	LTP222	ltpFR	1	5	n/a	STICKER	1382	2	n/a	n/a	n/a	n/a	n/a	n/a
3998.526	n/a	RECOG_RESP	1999263	n/a	LTP222	ltpFR	1	5	n/a	STICKER	1382	n/a	n/a	n/a	n/a	n/a	n/a	n/a
4000.22	n/a	RECOG_CONF	2000110	n/a	LTP222	ltpFR	1	5	n/a	STICKER	1382	2	n/a	n/a	n/a	n/a	n/a	n/a
4001.93	n/a	RECOG_TARGET	2000965	n/a	LTP222	ltpFR	1	5	1	PIGEON	1065	2	1	n/a	n/a	n/a	n/a	n/a
4003.394	n/a	RECOG_RESP	2001697	n/a	LTP222	ltpFR	1	5	1	PIGEON	1065	n/a	1	n/a	n/a	n/a	n/a	n/a
4005.11	n/a	RECOG_CONF	2002555	n/a	LTP222	ltpFR	1	5	1	PIGEON	1065	2	1	n/a	n/a	n/a	n/a	n/a
4007.066	n/a	RECOG_LURE	2003533	n/a	LTP222	ltpFR	1	5	n/a	FRIEND	606	3	n/a	n/a	n/a	n/a	n/a	n/a
4008.41	n/a	RECOG_RESP	2004205	n/a	LTP222	ltpFR	1	5	n/a	FRIEND	606	n/a	n/a	n/a	n/a	n/a	n/a	n/a
4010.026	n/a	RECOG_CONF	2005013	n/a	LTP222	ltpFR	1	5	n/a	FRIEND	606	3	n/a	n/a	n/a	n/a	n/a	n/a
4011.818	n/a	RECOG_TARGET	2005909	n/a	LTP222	ltpFR	1	5	0	PLUMBER	1091	5	1	n/a	n/a	n/a	n/a	n/a
4012.908	n/a	RECOG_RESP	2006454	n/a	LTP222	ltpFR	1	5	0	PLUMBER	1091	n/a	1	n/a	n/a	n/a	n/a	n/a
4014.518	n/a	RECOG_CONF	2007259	n/a	LTP222	ltpFR	1	5	0	PLUMBER	1091	5	1	n/a	n/a	n/a	n/a	n/a
4016.72	n/a	RECOG_LURE	2008360	n/a	LTP222	ltpFR	1	5	n/a	PLATE	1086	4	n/a	n/a	n/a	n/a	n/a	n/a
4018.662	n/a	RECOG_RESP	2009331	n/a	LTP222	ltpFR	1	5	n/a	PLATE	1086	n/a	n/a	n/a	n/a	n/a	n/a	n/a
4020.148	n/a	RECOG_CONF	2010074	n/a	LTP222	ltpFR	1	5	n/a	PLATE	1086	4	n/a	n/a	n/a	n/a	n/a	n/a
4021.706	n/a	RECOG_LURE	2010853	n/a	LTP222	ltpFR	1	5	n/a	TERRITORY	1452	1	n/a	n/a	n/a	n/a	n/a	n/a
4023.588	n/a	RECOG_RESP	2011794	n/a	LTP222	ltpFR	1	5	n/a	TERRITORY	1452	n/a	n/a	n/a	n/a	n/a	n/a	n/a
4025.11	n/a	RECOG_CONF	2012555	n/a	LTP222	ltpFR	1	5	n/a	TERRITORY	1452	1	n/a	n/a	n/a	n/a	n/a	n/a
4026.734	n/a	RECOG_LURE	2013367	n/a	LTP222	ltpFR	1	5	n/a	VICTIM	1562	1	n/a	n/a	n/a	n/a	n/a	n/a
4028.39	n/a	RECOG_RESP	2014195	n/a	LTP222	ltpFR	1	5	n/a	VICTIM	1562	n/a	n/a	n/a	n/a	n/a	n/a	n/a
4030.352	n/a	RECOG_CONF	2015176	n/a	LTP222	ltpFR	1	5	n/a	VICTIM	1562	1	n/a	n/a	n/a	n/a	n/a	n/a
4032.178	n/a	RECOG_LURE	2016089	n/a	LTP222	ltpFR	1	5	n/a	MACARONI	851	2	n/a	n/a	n/a	n/a	n/a	n/a
4033.288	n/a	RECOG_RESP	2016644	n/a	LTP222	ltpFR	1	5	n/a	MACARONI	851	n/a	n/a	n/a	n/a	n/a	n/a	n/a
4035.314	n/a	RECOG_CONF	2017657	n/a	LTP222	ltpFR	1	5	n/a	MACARONI	851	2	n/a	n/a	n/a	n/a	n/a	n/a
4041.558	n/a	REC_START	2020779	n/a	LTP222	ltpFR	1	6	n/a	n/a	n/a	n/a	n/a	n/a	n/a	n/a	n/a	n/a
4041.606	n/a	RECOG_TARGET	2020803	n/a	LTP222	ltpFR	1	6	1	CAMEL	223	4	1	n/a	n/a	n/a	n/a	n/a
4044.034	n/a	RECOG_RESP	2022017	n/a	LTP222	ltpFR	1	6	1	CAMEL	223	n/a	1	n/a	n/a	n/a	n/a	n/a
4045.672	n/a	RECOG_CONF	2022836	n/a	LTP222	ltpFR	1	6	1	CAMEL	223	4	1	n/a	n/a	n/a	n/a	n/a
4047.078	n/a	RECOG_TARGET	2023539	n/a	LTP222	ltpFR	1	6	0	WHISKERS	1605	3	0	n/a	n/a	n/a	n/a	n/a
4048.896	n/a	RECOG_RESP	2024448	n/a	LTP222	ltpFR	1	6	0	WHISKERS	1605	n/a	0	n/a	n/a	n/a	n/a	n/a
4050.566	n/a	RECOG_CONF	2025283	n/a	LTP222	ltpFR	1	6	0	WHISKERS	1605	3	0	n/a	n/a	n/a	n/a	n/a
4052.214	n/a	RECOG_TARGET	2026107	n/a	LTP222	ltpFR	1	6	1	SUSPECT	1415	3	1	n/a	n/a	n/a	n/a	n/a
4053.414	n/a	RECOG_RESP	2026707	n/a	LTP222	ltpFR	1	6	1	SUSPECT	1415	n/a	1	n/a	n/a	n/a	n/a	n/a
4055.092	n/a	RECOG_CONF	2027546	n/a	LTP222	ltpFR	1	6	1	SUSPECT	1415	3	1	n/a	n/a	n/a	n/a	n/a
4056.85	n/a	RECOG_TARGET	2028425	n/a	LTP222	ltpFR	1	6	-1	PEDESTRIAN	1038	2	-1	n/a	n/a	n/a	n/a	n/a
4060.212	n/a	RECOG_RESP	2030106	n/a	LTP222	ltpFR	1	6	-1	PEDESTRIAN	1038	n/a	-1	n/a	n/a	n/a	n/a	n/a
4061.92	n/a	RECOG_CONF	2030960	n/a	LTP222	ltpFR	1	6	-1	PEDESTRIAN	1038	2	-1	n/a	n/a	n/a	n/a	n/a
4063.708	n/a	RECOG_TARGET	2031854	n/a	LTP222	ltpFR	1	6	0	WASP	1593	3	0	n/a	n/a	n/a	n/a	n/a
4065.496	n/a	RECOG_RESP	2032748	n/a	LTP222	ltpFR	1	6	0	WASP	1593	n/a	0	n/a	n/a	n/a	n/a	n/a
4067.316	n/a	RECOG_CONF	2033658	n/a	LTP222	ltpFR	1	6	0	WASP	1593	3	0	n/a	n/a	n/a	n/a	n/a
4068.844	n/a	RECOG_TARGET	2034422	n/a	LTP222	ltpFR	1	6	1	ARM	38	5	0	n/a	n/a	n/a	n/a	n/a
4070.224	n/a	RECOG_RESP	2035112	n/a	LTP222	ltpFR	1	6	1	ARM	38	n/a	0	n/a	n/a	n/a	n/a	n/a
4071.834	n/a	RECOG_CONF	2035917	n/a	LTP222	ltpFR	1	6	1	ARM	38	5	0	n/a	n/a	n/a	n/a	n/a
4073.312	n/a	RECOG_LURE	2036656	n/a	LTP222	ltpFR	1	6	n/a	WINNER	1615	2	n/a	n/a	n/a	n/a	n/a	n/a
4074.774	n/a	RECOG_RESP	2037387	n/a	LTP222	ltpFR	1	6	n/a	WINNER	1615	n/a	n/a	n/a	n/a	n/a	n/a	n/a
4076.462	n/a	RECOG_CONF	2038231	n/a	LTP222	ltpFR	1	6	n/a	WINNER	1615	2	n/a	n/a	n/a	n/a	n/a	n/a
4078.282	n/a	RECOG_TARGET	2039141	n/a	LTP222	ltpFR	1	6	-1	RUNNER	1218	5	-1	n/a	n/a	n/a	n/a	n/a
4079.32	n/a	RECOG_RESP	2039660	n/a	LTP222	ltpFR	1	6	-1	RUNNER	1218	n/a	-1	n/a	n/a	n/a	n/a	n/a
4081.01	n/a	RECOG_CONF	2040505	n/a	LTP222	ltpFR	1	6	-1	RUNNER	1218	5	-1	n/a	n/a	n/a	n/a	n/a
4082.882	n/a	RECOG_TARGET	2041441	n/a	LTP222	ltpFR	1	6	0	LILY	821	4	n/a	n/a	n/a	n/a	n/a	n/a
4083.76	n/a	RECOG_RESP	2041880	n/a	LTP222	ltpFR	1	6	0	LILY	821	n/a	n/a	n/a	n/a	n/a	n/a	n/a
4085.474	n/a	RECOG_CONF	2042737	n/a	LTP222	ltpFR	1	6	0	LILY	821	4	n/a	n/a	n/a	n/a	n/a	n/a
4086.988	n/a	RECOG_LURE	2043494	n/a	LTP222	ltpFR	1	6	n/a	DENIM	446	1	n/a	n/a	n/a	n/a	n/a	n/a
4088.206	n/a	RECOG_RESP	2044103	n/a	LTP222	ltpFR	1	6	n/a	DENIM	446	n/a	n/a	n/a	n/a	n/a	n/a	n/a
4090.124	n/a	RECOG_CONF	2045062	n/a	LTP222	ltpFR	1	6	n/a	DENIM	446	1	n/a	n/a	n/a	n/a	n/a	n/a
4091.824	n/a	RECOG_TARGET	2045912	n/a	LTP222	ltpFR	1	6	0	INTESTINE	742	3	1	n/a	n/a	n/a	n/a	n/a
4095.568	n/a	RECOG_RESP	2047784	n/a	LTP222	ltpFR	1	6	0	INTESTINE	742	n/a	1	n/a	n/a	n/a	n/a	n/a
4097.498	n/a	RECOG_CONF	2048749	n/a	LTP222	ltpFR	1	6	0	INTESTINE	742	3	1	n/a	n/a	n/a	n/a	n/a
4099.452	n/a	RECOG_TARGET	2049726	n/a	LTP222	ltpFR	1	6	-1	CONCRETE	361	4	-1	n/a	n/a	n/a	n/a	n/a
4100.838	n/a	RECOG_RESP	2050419	n/a	LTP222	ltpFR	1	6	-1	CONCRETE	361	n/a	-1	n/a	n/a	n/a	n/a	n/a
4102.426	n/a	RECOG_CONF	2051213	n/a	LTP222	ltpFR	1	6	-1	CONCRETE	361	4	-1	n/a	n/a	n/a	n/a	n/a
4104.204	n/a	RECOG_TARGET	2052102	n/a	LTP222	ltpFR	1	6	-1	CARAVAN	242	2	-1	n/a	n/a	n/a	n/a	n/a
4106.52	n/a	RECOG_RESP	2053260	n/a	LTP222	ltpFR	1	6	-1	CARAVAN	242	n/a	-1	n/a	n/a	n/a	n/a	n/a
4108.294	n/a	RECOG_CONF	2054147	n/a	LTP222	ltpFR	1	6	-1	CARAVAN	242	2	-1	n/a	n/a	n/a	n/a	n/a
4109.86	n/a	RECOG_LURE	2054930	n/a	LTP222	ltpFR	1	6	n/a	CHAIRPERSON	275	1	n/a	n/a	n/a	n/a	n/a	n/a
4111.808	n/a	RECOG_RESP	2055904	n/a	LTP222	ltpFR	1	6	n/a	CHAIRPERSON	275	n/a	n/a	n/a	n/a	n/a	n/a	n/a
4113.43	n/a	RECOG_CONF	2056715	n/a	LTP222	ltpFR	1	6	n/a	CHAIRPERSON	275	1	n/a	n/a	n/a	n/a	n/a	n/a
4115.23	n/a	RECOG_TARGET	2057615	n/a	LTP222	ltpFR	1	6	0	BUN	197	1	n/a	n/a	n/a	n/a	n/a	n/a
4116.884	n/a	RECOG_RESP	2058442	n/a	LTP222	ltpFR	1	6	0	BUN	197	n/a	n/a	n/a	n/a	n/a	n/a	n/a
4119.596	n/a	RECOG_CONF	2059798	n/a	LTP222	ltpFR	1	6	0	BUN	197	1	n/a	n/a	n/a	n/a	n/a	n/a
4121.034	n/a	RECOG_TARGET	2060517	n/a	LTP222	ltpFR	1	6	1	CRAB	397	2	1	n/a	n/a	n/a	n/a	n/a
4122.892	n/a	RECOG_RESP	2061446	n/a	LTP222	ltpFR	1	6	1	CRAB	397	n/a	1	n/a	n/a	n/a	n/a	n/a
4125.086	n/a	RECOG_CONF	2062543	n/a	LTP222	ltpFR	1	6	1	CRAB	397	2	1	n/a	n/a	n/a	n/a	n/a
4126.85	n/a	RECOG_TARGET	2063425	n/a	LTP222	ltpFR	1	6	1	REPTILE	1185	1	1	n/a	n/a	n/a	n/a	n/a
4129.138	n/a	RECOG_RESP	2064569	n/a	LTP222	ltpFR	1	6	1	REPTILE	1185	n/a	1	n/a	n/a	n/a	n/a	n/a
4131.108	n/a	RECOG_CONF	2065554	n/a	LTP222	ltpFR	1	6	1	REPTILE	1185	1	1	n/a	n/a	n/a	n/a	n/a
4133.198	n/a	RECOG_TARGET	2066599	n/a	LTP222	ltpFR	1	6	1	SHOULDER	1294	5	0	n/a	n/a	n/a	n/a	n/a
4134.13	n/a	RECOG_RESP	2067065	n/a	LTP222	ltpFR	1	6	1	SHOULDER	1294	n/a	0	n/a	n/a	n/a	n/a	n/a
4135.57	n/a	RECOG_CONF	2067785	n/a	LTP222	ltpFR	1	6	1	SHOULDER	1294	5	0	n/a	n/a	n/a	n/a	n/a
4137.598	n/a	RECOG_TARGET	2068799	n/a	LTP222	ltpFR	1	6	1	BELT	120	3	0	n/a	n/a	n/a	n/a	n/a
4138.6	n/a	RECOG_RESP	2069300	n/a	LTP222	ltpFR	1	6	1	BELT	120	n/a	0	n/a	n/a	n/a	n/a	n/a
4140.362	n/a	RECOG_CONF	2070181	n/a	LTP222	ltpFR	1	6	1	BELT	120	3	0	n/a	n/a	n/a	n/a	n/a
4142.3	n/a	RECOG_TARGET	2071150	n/a	LTP222	ltpFR	1	6	-1	GIRL	637	5	-1	n/a	n/a	n/a	n/a	n/a
4143.352	n/a	RECOG_RESP	2071676	n/a	LTP222	ltpFR	1	6	-1	GIRL	637	n/a	-1	n/a	n/a	n/a	n/a	n/a
4144.904	n/a	RECOG_CONF	2072452	n/a	LTP222	ltpFR	1	6	-1	GIRL	637	5	-1	n/a	n/a	n/a	n/a	n/a
4150.024	n/a	REC_START	2075012	n/a	LTP222	ltpFR	1	7	n/a	n/a	n/a	n/a	n/a	n/a	n/a	n/a	n/a	n/a
4150.072	n/a	RECOG_TARGET	2075036	n/a	LTP222	ltpFR	1	7	1	ELM	527	5	0	n/a	n/a	n/a	n/a	n/a
4151.31	n/a	RECOG_RESP	2075655	n/a	LTP222	ltpFR	1	7	1	ELM	527	n/a	0	n/a	n/a	n/a	n/a	n/a
4152.762	n/a	RECOG_CONF	2076381	n/a	LTP222	ltpFR	1	7	1	ELM	527	5	0	n/a	n/a	n/a	n/a	n/a
4154.144	n/a	RECOG_TARGET	2077072	n/a	LTP222	ltpFR	1	7	0	BANKER	84	5	1	n/a	n/a	n/a	n/a	n/a
4155.638	n/a	RECOG_RESP	2077819	n/a	LTP222	ltpFR	1	7	0	BANKER	84	n/a	1	n/a	n/a	n/a	n/a	n/a
4156.934	n/a	RECOG_CONF	2078467	n/a	LTP222	ltpFR	1	7	0	BANKER	84	5	1	n/a	n/a	n/a	n/a	n/a
4158.856	n/a	RECOG_LURE	2079428	n/a	LTP222	ltpFR	1	7	n/a	COLOGNE	347	3	n/a	n/a	n/a	n/a	n/a	n/a
4160.028	n/a	RECOG_RESP	2080014	n/a	LTP222	ltpFR	1	7	n/a	COLOGNE	347	n/a	n/a	n/a	n/a	n/a	n/a	n/a
4162.17	n/a	RECOG_CONF	2081085	n/a	LTP222	ltpFR	1	7	n/a	COLOGNE	347	3	n/a	n/a	n/a	n/a	n/a	n/a
4164.728	n/a	RECOG_TARGET	2082364	n/a	LTP222	ltpFR	1	7	1	FLASK	576	5	0	n/a	n/a	n/a	n/a	n/a
4165.814	n/a	RECOG_RESP	2082907	n/a	LTP222	ltpFR	1	7	1	FLASK	576	n/a	0	n/a	n/a	n/a	n/a	n/a
4167.52	n/a	RECOG_CONF	2083760	n/a	LTP222	ltpFR	1	7	1	FLASK	576	5	0	n/a	n/a	n/a	n/a	n/a
4169.404	n/a	RECOG_TARGET	2084702	n/a	LTP222	ltpFR	1	7	0	FEATHER	557	5	0	n/a	n/a	n/a	n/a	n/a
4170.65	n/a	RECOG_RESP	2085325	n/a	LTP222	ltpFR	1	7	0	FEATHER	557	n/a	0	n/a	n/a	n/a	n/a	n/a
4172.458	n/a	RECOG_CONF	2086229	n/a	LTP222	ltpFR	1	7	0	FEATHER	557	5	0	n/a	n/a	n/a	n/a	n/a
4173.912	n/a	RECOG_LURE	2086956	n/a	LTP222	ltpFR	1	7	n/a	BOTTLE	153	2	n/a	n/a	n/a	n/a	n/a	n/a
4175.598	n/a	RECOG_RESP	2087799	n/a	LTP222	ltpFR	1	7	n/a	BOTTLE	153	n/a	n/a	n/a	n/a	n/a	n/a	n/a
4177.654	n/a	RECOG_CONF	2088827	n/a	LTP222	ltpFR	1	7	n/a	BOTTLE	153	2	n/a	n/a	n/a	n/a	n/a	n/a
4179.616	n/a	RECOG_TARGET	2089808	n/a	LTP222	ltpFR	1	7	1	JACKET	747	5	0	n/a	n/a	n/a	n/a	n/a
4180.704	n/a	RECOG_RESP	2090352	n/a	LTP222	ltpFR	1	7	1	JACKET	747	n/a	0	n/a	n/a	n/a	n/a	n/a
4182.294	n/a	RECOG_CONF	2091147	n/a	LTP222	ltpFR	1	7	1	JACKET	747	5	0	n/a	n/a	n/a	n/a	n/a
4184.252	n/a	RECOG_TARGET	2092126	n/a	LTP222	ltpFR	1	7	1	MUFFIN	929	4	0	n/a	n/a	n/a	n/a	n/a
4185.684	n/a	RECOG_RESP	2092842	n/a	LTP222	ltpFR	1	7	1	MUFFIN	929	n/a	0	n/a	n/a	n/a	n/a	n/a
4186.916	n/a	RECOG_CONF	2093458	n/a	LTP222	ltpFR	1	7	1	MUFFIN	929	4	0	n/a	n/a	n/a	n/a	n/a
4189.004	n/a	RECOG_TARGET	2094502	n/a	LTP222	ltpFR	1	7	1	DISHWASHER	475	3	0	n/a	n/a	n/a	n/a	n/a
4190.902	n/a	RECOG_RESP	2095451	n/a	LTP222	ltpFR	1	7	1	DISHWASHER	475	n/a	0	n/a	n/a	n/a	n/a	n/a
4192.808	n/a	RECOG_CONF	2096404	n/a	LTP222	ltpFR	1	7	1	DISHWASHER	475	3	0	n/a	n/a	n/a	n/a	n/a
4194.9	n/a	RECOG_TARGET	2097450	n/a	LTP222	ltpFR	1	7	0	PATIO	1025	1	1	n/a	n/a	n/a	n/a	n/a
4197.676	n/a	RECOG_RESP	2098838	n/a	LTP222	ltpFR	1	7	0	PATIO	1025	n/a	1	n/a	n/a	n/a	n/a	n/a
4199.75	n/a	RECOG_CONF	2099875	n/a	LTP222	ltpFR	1	7	0	PATIO	1025	1	1	n/a	n/a	n/a	n/a	n/a
4201.692	n/a	RECOG_TARGET	2100846	n/a	LTP222	ltpFR	1	7	0	BARK	87	5	0	n/a	n/a	n/a	n/a	n/a
4203.006	n/a	RECOG_RESP	2101503	n/a	LTP222	ltpFR	1	7	0	BARK	87	n/a	0	n/a	n/a	n/a	n/a	n/a
4204.488	n/a	RECOG_CONF	2102244	n/a	LTP222	ltpFR	1	7	0	BARK	87	5	0	n/a	n/a	n/a	n/a	n/a
4206.136	n/a	RECOG_LURE	2103068	n/a	LTP222	ltpFR	1	7	n/a	ORNAMENT	985	2	n/a	n/a	n/a	n/a	n/a	n/a
4207.32	n/a	RECOG_RESP	2103660	n/a	LTP222	ltpFR	1	7	n/a	ORNAMENT	985	n/a	n/a	n/a	n/a	n/a	n/a	n/a
4209.226	n/a	RECOG_CONF	2104613	n/a	LTP222	ltpFR	1	7	n/a	ORNAMENT	985	2	n/a	n/a	n/a	n/a	n/a	n/a
4211.364	n/a	RECOG_LURE	2105682	n/a	LTP222	ltpFR	1	7	n/a	SKUNK	1321	3	n/a	n/a	n/a	n/a	n/a	n/a
4213.76	n/a	RECOG_RESP	2106880	n/a	LTP222	ltpFR	1	7	n/a	SKUNK	1321	n/a	n/a	n/a	n/a	n/a	n/a	n/a
4215.512	n/a	RECOG_CONF	2107756	n/a	LTP222	ltpFR	1	7	n/a	SKUNK	1321	3	n/a	n/a	n/a	n/a	n/a	n/a
4217.494	n/a	RECOG_LURE	2108747	n/a	LTP222	ltpFR	1	7	n/a	FAN	551	2	n/a	n/a	n/a	n/a	n/a	n/a
4218.974	n/a	RECOG_RESP	2109487	n/a	LTP222	ltpFR	1	7	n/a	FAN	551	n/a	n/a	n/a	n/a	n/a	n/a	n/a
4220.786	n/a	RECOG_CONF	2110393	n/a	LTP222	ltpFR	1	7	n/a	FAN	551	2	n/a	n/a	n/a	n/a	n/a	n/a
4222.774	n/a	RECOG_TARGET	2111387	n/a	LTP222	ltpFR	1	7	-1	SCROLL	1257	2	-1	n/a	n/a	n/a	n/a	n/a
4224.828	n/a	RECOG_RESP	2112414	n/a	LTP222	ltpFR	1	7	-1	SCROLL	1257	n/a	-1	n/a	n/a	n/a	n/a	n/a
4226.28	n/a	RECOG_CONF	2113140	n/a	LTP222	ltpFR	1	7	-1	SCROLL	1257	2	-1	n/a	n/a	n/a	n/a	n/a
4227.952	n/a	RECOG_TARGET	2113976	n/a	LTP222	ltpFR	1	7	1	GIFT	635	5	0	n/a	n/a	n/a	n/a	n/a
4228.9	n/a	RECOG_RESP	2114450	n/a	LTP222	ltpFR	1	7	1	GIFT	635	n/a	0	n/a	n/a	n/a	n/a	n/a
4230.46	n/a	RECOG_CONF	2115230	n/a	LTP222	ltpFR	1	7	1	GIFT	635	5	0	n/a	n/a	n/a	n/a	n/a
4232.236	n/a	RECOG_TARGET	2116118	n/a	LTP222	ltpFR	1	7	0	GARDEN	623	5	1	n/a	n/a	n/a	n/a	n/a
4233.358	n/a	RECOG_RESP	2116679	n/a	LTP222	ltpFR	1	7	0	GARDEN	623	n/a	1	n/a	n/a	n/a	n/a	n/a
4234.944	n/a	RECOG_CONF	2117472	n/a	LTP222	ltpFR	1	7	0	GARDEN	623	5	1	n/a	n/a	n/a	n/a	n/a
4236.46	n/a	RECOG_TARGET	2118230	n/a	LTP222	ltpFR	1	7	-1	SHELTER	1282	5	-1	n/a	n/a	n/a	n/a	n/a
4237.458	n/a	RECOG_RESP	2118729	n/a	LTP222	ltpFR	1	7	-1	SHELTER	1282	n/a	-1	n/a	n/a	n/a	n/a	n/a
4239.096	n/a	RECOG_CONF	2119548	n/a	LTP222	ltpFR	1	7	-1	SHELTER	1282	5	-1	n/a	n/a	n/a	n/a	n/a
4241.086	n/a	RECOG_LURE	2120543	n/a	LTP222	ltpFR	1	7	n/a	PENNY	1045	2	n/a	n/a	n/a	n/a	n/a	n/a
4242.404	n/a	RECOG_RESP	2121202	n/a	LTP222	ltpFR	1	7	n/a	PENNY	1045	n/a	n/a	n/a	n/a	n/a	n/a	n/a
4244.266	n/a	RECOG_CONF	2122133	n/a	LTP222	ltpFR	1	7	n/a	PENNY	1045	2	n/a	n/a	n/a	n/a	n/a	n/a
4246.364	n/a	RECOG_TARGET	2123182	n/a	LTP222	ltpFR	1	7	-1	PARENT	1013	5	-1	n/a	n/a	n/a	n/a	n/a
4247.212	n/a	RECOG_RESP	2123606	n/a	LTP222	ltpFR	1	7	-1	PARENT	1013	n/a	-1	n/a	n/a	n/a	n/a	n/a
4248.706	n/a	RECOG_CONF	2124353	n/a	LTP222	ltpFR	1	7	-1	PARENT	1013	5	-1	n/a	n/a	n/a	n/a	n/a
4253.862	n/a	REC_START	2126931	n/a	LTP222	ltpFR	1	8	n/a	n/a	n/a	n/a	n/a	n/a	n/a	n/a	n/a	n/a
4253.918	n/a	RECOG_TARGET	2126959	n/a	LTP222	ltpFR	1	8	1	SHEEP	1278	3	1	n/a	n/a	n/a	n/a	n/a
4257.178	n/a	RECOG_RESP	2128589	n/a	LTP222	ltpFR	1	8	1	SHEEP	1278	n/a	1	n/a	n/a	n/a	n/a	n/a
4258.438	n/a	RECOG_CONF	2129219	n/a	LTP222	ltpFR	1	8	1	SHEEP	1278	3	1	n/a	n/a	n/a	n/a	n/a
4260.25	n/a	RECOG_TARGET	2130125	n/a	LTP222	ltpFR	1	8	-1	PAD	998	5	-1	n/a	n/a	n/a	n/a	n/a
4261.416	n/a	RECOG_RESP	2130708	n/a	LTP222	ltpFR	1	8	-1	PAD	998	n/a	-1	n/a	n/a	n/a	n/a	n/a
4262.778	n/a	RECOG_CONF	2131389	n/a	LTP222	ltpFR	1	8	-1	PAD	998	5	-1	n/a	n/a	n/a	n/a	n/a
