mstime	trial_type	stim_file	subject	experiment	session	trial	task	item_name	item_num	recog_conf	resp	color_b	color_g	color_r	case	font
0	SESS_START	n/a	LTP134	ltpFR	5	n/a	n/a	n/a	n/a	3	n/a	n/a	n/a	n/a	n/a	n/a
145408	WORD	wordpools/wasnorm_wordpool.txt	LTP134	ltpFR	5	1	1	PARROT	1015	n/a	1	0	0.5869140625	0.422607421875	upper	../fonts/amplitud.ttf
149290	WORD	wordpools/wasnorm_wordpool.txt	LTP134	ltpFR	5	1	1	KING	777	n/a	1	0	0.5869140625	0.422607421875	upper	../fonts/amplitud.ttf
153157	WORD	wordpools/wasnorm_wordpool.txt	LTP134	ltpFR	5	1	0	BANANA	77	n/a	0	1	0.412841796875	0.57763671875	lower	../fonts/zerothre.ttf
157329	WORD	wordpools/wasnorm_wordpool.txt	LTP134	ltpFR	5	1	0	APE	31	n/a	1	1	0.412841796875	0.57763671875	lower	../fonts/zerothre.ttf
161478	WORD	wordpools/wasnorm_wordpool.txt	LTP134	ltpFR	5	1	0	SHORE	1291	n/a	1	1	0.412841796875	0.57763671875	lower	../fonts/zerothre.ttf
165660	WORD	wordpools/wasnorm_wordpool.txt	LTP134	ltpFR	5	1	1	WELL	1600	n/a	0	0	0.5869140625	0.422607421875	upper	../fonts/amplitud.ttf
169666	WORD	wordpools/wasnorm_wordpool.txt	LTP134	ltpFR	5	1	1	CENT	270	n/a	0	0	0.5869140625	0.422607421875	upper	../fonts/amplitud.ttf
173590	WORD	wordpools/wasnorm_wordpool.txt	LTP134	ltpFR	5	1	1	WHALE	1601	n/a	1	0	0.5869140625	0.422607421875	upper	../fonts/amplitud.ttf
177405	WORD	wordpools/wasnorm_wordpool.txt	LTP134	ltpFR	5	1	1	DUMP	505	n/a	0	0	0.5869140625	0.422607421875	upper	../fonts/amplitud.ttf
181446	WORD	wordpools/wasnorm_wordpool.txt	LTP134	ltpFR	5	1	0	POCKETBOOK	1094	n/a	0	1	0.412841796875	0.57763671875	lower	../fonts/zerothre.ttf
185569	WORD	wordpools/wasnorm_wordpool.txt	LTP134	ltpFR	5	1	0	QUEEN	1149	n/a	1	1	0.412841796875	0.57763671875	lower	../fonts/zerothre.ttf
189551	WORD	wordpools/wasnorm_wordpool.txt	LTP134	ltpFR	5	1	0	OCTOPUS	971	n/a	1	1	0.412841796875	0.57763671875	lower	../fonts/zerothre.ttf
193383	WORD	wordpools/wasnorm_wordpool.txt	LTP134	ltpFR	5	1	0	SHEPHERD	1283	n/a	1	1	0.412841796875	0.57763671875	lower	../fonts/zerothre.ttf
197565	WORD	wordpools/wasnorm_wordpool.txt	LTP134	ltpFR	5	1	0	TELESCOPE	1446	n/a	1	1	0.412841796875	0.57763671875	lower	../fonts/zerothre.ttf
201405	WORD	wordpools/wasnorm_wordpool.txt	LTP134	ltpFR	5	1	1	MEAL	882	n/a	0	0	0.5869140625	0.422607421875	upper	../fonts/amplitud.ttf
205470	WORD	wordpools/wasnorm_wordpool.txt	LTP134	ltpFR	5	1	1	PLATE	1086	n/a	0	0	0.5869140625	0.422607421875	upper	../fonts/amplitud.ttf
211037	REC_START	n/a	LTP134	ltpFR	5	1	n/a	n/a	n/a	n/a	n/a	n/a	n/a	n/a	n/a	n/a
214120	REC_WORD	wordpools/wasnorm_wordpool.txt	LTP134	ltpFR	5	1	1	KING	777	n/a	1	n/a	n/a	n/a	n/a	n/a
215103	REC_WORD_VV	wordpools/wasnorm_wordpool.txt	LTP134	ltpFR	5	1	n/a	<>	-1	n/a	n/a	n/a	n/a	n/a	n/a	n/a
216390	REC_WORD	wordpools/wasnorm_wordpool.txt	LTP134	ltpFR	5	1	1	PARROT	1015	n/a	1	n/a	n/a	n/a	n/a	n/a
218176	REC_WORD	wordpools/wasnorm_wordpool.txt	LTP134	ltpFR	5	1	0	BANANA	77	n/a	0	n/a	n/a	n/a	n/a	n/a
219872	REC_WORD	wordpools/wasnorm_wordpool.txt	LTP134	ltpFR	5	1	0	APE	31	n/a	1	n/a	n/a	n/a	n/a	n/a
221204	REC_WORD	wordpools/wasnorm_wordpool.txt	LTP134	ltpFR	5	1	0	SHORE	1291	n/a	1	n/a	n/a	n/a	n/a	n/a
222930	REC_WORD	wordpools/wasnorm_wordpool.txt	LTP134	ltpFR	5	1	1	WELL	1600	n/a	0	n/a	n/a	n/a	n/a	n/a
224660	REC_WORD	wordpools/wasnorm_wordpool.txt	LTP134	ltpFR	5	1	1	CENT	270	n/a	0	n/a	n/a	n/a	n/a	n/a
227160	REC_WORD	wordpools/wasnorm_wordpool.txt	LTP134	ltpFR	5	1	1	WHALE	1601	n/a	1	n/a	n/a	n/a	n/a	n/a
232274	REC_WORD	wordpools/wasnorm_wordpool.txt	LTP134	ltpFR	5	1	0	QUEEN	1149	n/a	1	n/a	n/a	n/a	n/a	n/a
234239	REC_WORD	wordpools/wasnorm_wordpool.txt	LTP134	ltpFR	5	1	0	SHEPHERD	1283	n/a	1	n/a	n/a	n/a	n/a	n/a
239427	REC_WORD	wordpools/wasnorm_wordpool.txt	LTP134	ltpFR	5	1	0	TELESCOPE	1446	n/a	1	n/a	n/a	n/a	n/a	n/a
244964	REC_WORD	wordpools/wasnorm_wordpool.txt	LTP134	ltpFR	5	1	1	PLATE	1086	n/a	0	n/a	n/a	n/a	n/a	n/a
260105	REC_WORD	wordpools/wasnorm_wordpool.txt	LTP134	ltpFR	5	1	0	POCKETBOOK	1094	n/a	0	n/a	n/a	n/a	n/a	n/a
278058	REC_WORD	wordpools/wasnorm_wordpool.txt	LTP134	ltpFR	5	1	0	OCTOPUS	971	n/a	1	n/a	n/a	n/a	n/a	n/a
290665	WORD	wordpools/wasnorm_wordpool.txt	LTP134	ltpFR	5	2	0	CARPENTER	246	n/a	1	1	0.412841796875	0.57763671875	lower	../fonts/zerothre.ttf
294864	WORD	wordpools/wasnorm_wordpool.txt	LTP134	ltpFR	5	2	0	SKUNK	1321	n/a	1	1	0.412841796875	0.57763671875	lower	../fonts/zerothre.ttf
298854	WORD	wordpools/wasnorm_wordpool.txt	LTP134	ltpFR	5	2	1	WALNUT	1584	n/a	0	0	0.5869140625	0.422607421875	upper	../fonts/amplitud.ttf
302869	WORD	wordpools/wasnorm_wordpool.txt	LTP134	ltpFR	5	2	1	COMMANDER	354	n/a	1	0	0.5869140625	0.422607421875	upper	../fonts/amplitud.ttf
306834	WORD	wordpools/wasnorm_wordpool.txt	LTP134	ltpFR	5	2	1	PRESIDENT	1121	n/a	1	0	0.5869140625	0.422607421875	upper	../fonts/amplitud.ttf
311042	WORD	wordpools/wasnorm_wordpool.txt	LTP134	ltpFR	5	2	1	DASHBOARD	441	n/a	0	0	0.5869140625	0.422607421875	upper	../fonts/amplitud.ttf
315149	WORD	wordpools/wasnorm_wordpool.txt	LTP134	ltpFR	5	2	0	TAXI	1438	n/a	1	1	0.412841796875	0.57763671875	lower	../fonts/zerothre.ttf
319148	WORD	wordpools/wasnorm_wordpool.txt	LTP134	ltpFR	5	2	0	PORTRAIT	1111	n/a	1	1	0.412841796875	0.57763671875	lower	../fonts/zerothre.ttf
323130	WORD	wordpools/wasnorm_wordpool.txt	LTP134	ltpFR	5	2	1	BRACES	164	n/a	0	0	0.5869140625	0.422607421875	upper	../fonts/amplitud.ttf
327310	WORD	wordpools/wasnorm_wordpool.txt	LTP134	ltpFR	5	2	1	HEADBAND	696	n/a	0	0	0.5869140625	0.422607421875	upper	../fonts/amplitud.ttf
331384	WORD	wordpools/wasnorm_wordpool.txt	LTP134	ltpFR	5	2	1	SQUIRREL	1362	n/a	1	0	0.5869140625	0.422607421875	upper	../fonts/amplitud.ttf
335358	WORD	wordpools/wasnorm_wordpool.txt	LTP134	ltpFR	5	2	1	FINGER	567	n/a	1	0	0.5869140625	0.422607421875	upper	../fonts/amplitud.ttf
339448	WORD	wordpools/wasnorm_wordpool.txt	LTP134	ltpFR	5	2	0	CHAUFFEUR	283	n/a	1	1	0.412841796875	0.57763671875	lower	../fonts/zerothre.ttf
343405	WORD	wordpools/wasnorm_wordpool.txt	LTP134	ltpFR	5	2	0	GROCERY	664	n/a	1	1	0.412841796875	0.57763671875	lower	../fonts/zerothre.ttf
347545	WORD	wordpools/wasnorm_wordpool.txt	LTP134	ltpFR	5	2	0	SUBWAY	1400	n/a	1	1	0.412841796875	0.57763671875	lower	../fonts/zerothre.ttf
351568	WORD	wordpools/wasnorm_wordpool.txt	LTP134	ltpFR	5	2	0	PASSENGER	1020	n/a	1	1	0.412841796875	0.57763671875	lower	../fonts/zerothre.ttf
357550	REC_START	n/a	LTP134	ltpFR	5	2	n/a	n/a	n/a	n/a	n/a	n/a	n/a	n/a	n/a	n/a
359894	REC_WORD	wordpools/wasnorm_wordpool.txt	LTP134	ltpFR	5	2	0	PASSENGER	1020	n/a	1	n/a	n/a	n/a	n/a	n/a
361520	REC_WORD	wordpools/wasnorm_wordpool.txt	LTP134	ltpFR	5	2	0	SUBWAY	1400	n/a	1	n/a	n/a	n/a	n/a	n/a
363766	REC_WORD	wordpools/wasnorm_wordpool.txt	LTP134	ltpFR	5	2	0	CARPENTER	246	n/a	1	n/a	n/a	n/a	n/a	n/a
367032	REC_WORD	wordpools/wasnorm_wordpool.txt	LTP134	ltpFR	5	2	1	SQUIRREL	1362	n/a	1	n/a	n/a	n/a	n/a	n/a
370715	REC_WORD	wordpools/wasnorm_wordpool.txt	LTP134	ltpFR	5	2	1	WALNUT	1584	n/a	0	n/a	n/a	n/a	n/a	n/a
376027	REC_WORD	wordpools/wasnorm_wordpool.txt	LTP134	ltpFR	5	2	1	PRESIDENT	1121	n/a	1	n/a	n/a	n/a	n/a	n/a
382613	REC_WORD	wordpools/wasnorm_wordpool.txt	LTP134	ltpFR	5	2	1	DASHBOARD	441	n/a	0	n/a	n/a	n/a	n/a	n/a
384683	REC_WORD	wordpools/wasnorm_wordpool.txt	LTP134	ltpFR	5	2	1	HEADBAND	696	n/a	0	n/a	n/a	n/a	n/a	n/a
387012	REC_WORD	wordpools/wasnorm_wordpool.txt	LTP134	ltpFR	5	2	1	FINGER	567	n/a	1	n/a	n/a	n/a	n/a	n/a
390325	REC_WORD	wordpools/wasnorm_wordpool.txt	LTP134	ltpFR	5	2	n/a	CAB	209	n/a	n/a	n/a	n/a	n/a	n/a	n/a
392994	REC_WORD	wordpools/wasnorm_wordpool.txt	LTP134	ltpFR	5	2	0	PORTRAIT	1111	n/a	1	n/a	n/a	n/a	n/a	n/a
395005	REC_WORD	wordpools/wasnorm_wordpool.txt	LTP134	ltpFR	5	2	1	BRACES	164	n/a	0	n/a	n/a	n/a	n/a	n/a
406818	REC_WORD	wordpools/wasnorm_wordpool.txt	LTP134	ltpFR	5	2	1	COMMANDER	354	n/a	1	n/a	n/a	n/a	n/a	n/a
441311	WORD	wordpools/wasnorm_wordpool.txt	LTP134	ltpFR	5	3	0	DINNER	468	n/a	1	1	0.412841796875	0.57763671875	lower	../fonts/zerothre.ttf
445218	WORD	wordpools/wasnorm_wordpool.txt	LTP134	ltpFR	5	3	0	ROOST	1208	n/a	1	1	0.412841796875	0.57763671875	lower	../fonts/zerothre.ttf
449217	WORD	wordpools/wasnorm_wordpool.txt	LTP134	ltpFR	5	3	0	EXPERT	543	n/a	1	1	0.412841796875	0.57763671875	lower	../fonts/zerothre.ttf
453117	WORD	wordpools/wasnorm_wordpool.txt	LTP134	ltpFR	5	3	0	ROOF	1205	n/a	1	1	0.412841796875	0.57763671875	lower	../fonts/zerothre.ttf
457297	WORD	wordpools/wasnorm_wordpool.txt	LTP134	ltpFR	5	3	0	MEDAL	885	n/a	1	1	0.412841796875	0.57763671875	lower	../fonts/zerothre.ttf
461139	WORD	wordpools/wasnorm_wordpool.txt	LTP134	ltpFR	5	3	0	MINER	896	n/a	1	1	0.412841796875	0.57763671875	lower	../fonts/zerothre.ttf
465220	WORD	wordpools/wasnorm_wordpool.txt	LTP134	ltpFR	5	3	1	ENGINEER	536	n/a	1	0	0.5869140625	0.422607421875	upper	../fonts/amplitud.ttf
469203	WORD	wordpools/wasnorm_wordpool.txt	LTP134	ltpFR	5	3	1	CROW	414	n/a	1	0	0.5869140625	0.422607421875	upper	../fonts/amplitud.ttf
473193	WORD	wordpools/wasnorm_wordpool.txt	LTP134	ltpFR	5	3	0	LUNCH	849	n/a	0	1	0.412841796875	0.57763671875	lower	../fonts/zerothre.ttf
477307	WORD	wordpools/wasnorm_wordpool.txt	LTP134	ltpFR	5	3	0	PATROL	1027	n/a	1	1	0.412841796875	0.57763671875	lower	../fonts/zerothre.ttf
481414	WORD	wordpools/wasnorm_wordpool.txt	LTP134	ltpFR	5	3	1	HOSTESS	723	n/a	1	0	0.5869140625	0.422607421875	upper	../fonts/amplitud.ttf
485629	WORD	wordpools/wasnorm_wordpool.txt	LTP134	ltpFR	5	3	1	CLOCK	325	n/a	0	0	0.5869140625	0.422607421875	upper	../fonts/amplitud.ttf
489461	WORD	wordpools/wasnorm_wordpool.txt	LTP134	ltpFR	5	3	1	EDITOR	516	n/a	1	0	0.5869140625	0.422607421875	upper	../fonts/amplitud.ttf
493318	WORD	wordpools/wasnorm_wordpool.txt	LTP134	ltpFR	5	3	1	JOURNAL	760	n/a	0	0	0.5869140625	0.422607421875	upper	../fonts/amplitud.ttf
497467	WORD	wordpools/wasnorm_wordpool.txt	LTP134	ltpFR	5	3	1	STRAW	1390	n/a	0	0	0.5869140625	0.422607421875	upper	../fonts/amplitud.ttf
501657	WORD	wordpools/wasnorm_wordpool.txt	LTP134	ltpFR	5	3	1	BEER	114	n/a	0	0	0.5869140625	0.422607421875	upper	../fonts/amplitud.ttf
507439	REC_START	n/a	LTP134	ltpFR	5	3	n/a	n/a	n/a	n/a	n/a	n/a	n/a	n/a	n/a	n/a
510676	REC_WORD	wordpools/wasnorm_wordpool.txt	LTP134	ltpFR	5	3	1	EDITOR	516	n/a	1	n/a	n/a	n/a	n/a	n/a
511834	REC_WORD	wordpools/wasnorm_wordpool.txt	LTP134	ltpFR	5	3	1	JOURNAL	760	n/a	0	n/a	n/a	n/a	n/a	n/a
513141	REC_WORD	wordpools/wasnorm_wordpool.txt	LTP134	ltpFR	5	3	1	STRAW	1390	n/a	0	n/a	n/a	n/a	n/a	n/a
515106	REC_WORD	wordpools/wasnorm_wordpool.txt	LTP134	ltpFR	5	3	1	BEER	114	n/a	0	n/a	n/a	n/a	n/a	n/a
548894	REC_WORD	wordpools/wasnorm_wordpool.txt	LTP134	ltpFR	5	3	0	ROOF	1205	n/a	1	n/a	n/a	n/a	n/a	n/a
549917	REC_WORD	wordpools/wasnorm_wordpool.txt	LTP134	ltpFR	5	3	n/a	PROFESSIONAL	1130	n/a	n/a	n/a	n/a	n/a	n/a	n/a
552471	REC_WORD	wordpools/wasnorm_wordpool.txt	LTP134	ltpFR	5	3	0	ROOST	1208	n/a	1	n/a	n/a	n/a	n/a	n/a
557415	REC_WORD	wordpools/wasnorm_wordpool.txt	LTP134	ltpFR	5	3	0	MINER	896	n/a	1	n/a	n/a	n/a	n/a	n/a
558657	REC_WORD	wordpools/wasnorm_wordpool.txt	LTP134	ltpFR	5	3	0	MEDAL	885	n/a	1	n/a	n/a	n/a	n/a	n/a
569782	REC_WORD	wordpools/wasnorm_wordpool.txt	LTP134	ltpFR	5	3	0	DINNER	468	n/a	1	n/a	n/a	n/a	n/a	n/a
570585	REC_WORD	wordpools/wasnorm_wordpool.txt	LTP134	ltpFR	5	3	0	LUNCH	849	n/a	0	n/a	n/a	n/a	n/a	n/a
588359	WORD	wordpools/wasnorm_wordpool.txt	LTP134	ltpFR	5	4	1	GANGSTER	620	n/a	1	0	0.5869140625	0.422607421875	upper	../fonts/amplitud.ttf
592324	WORD	wordpools/wasnorm_wordpool.txt	LTP134	ltpFR	5	4	1	LASER	801	n/a	0	0	0.5869140625	0.422607421875	upper	../fonts/amplitud.ttf
596281	WORD	wordpools/wasnorm_wordpool.txt	LTP134	ltpFR	5	4	1	LEAF	808	n/a	1	0	0.5869140625	0.422607421875	upper	../fonts/amplitud.ttf
600313	WORD	wordpools/wasnorm_wordpool.txt	LTP134	ltpFR	5	4	1	PIGEON	1065	n/a	1	0	0.5869140625	0.422607421875	upper	../fonts/amplitud.ttf
604229	WORD	wordpools/wasnorm_wordpool.txt	LTP134	ltpFR	5	4	1	SPARROW	1347	n/a	1	0	0.5869140625	0.422607421875	upper	../fonts/amplitud.ttf
608203	WORD	wordpools/wasnorm_wordpool.txt	LTP134	ltpFR	5	4	1	PLANT	1083	n/a	1	0	0.5869140625	0.422607421875	upper	../fonts/amplitud.ttf
612317	WORD	wordpools/wasnorm_wordpool.txt	LTP134	ltpFR	5	4	1	NECK	939	n/a	0	0	0.5869140625	0.422607421875	upper	../fonts/amplitud.ttf
616416	WORD	wordpools/wasnorm_wordpool.txt	LTP134	ltpFR	5	4	1	LION	827	n/a	1	0	0.5869140625	0.422607421875	upper	../fonts/amplitud.ttf
620531	WORD	wordpools/wasnorm_wordpool.txt	LTP134	ltpFR	5	4	1	DAUGHTER	442	n/a	1	0	0.5869140625	0.422607421875	upper	../fonts/amplitud.ttf
624738	WORD	wordpools/wasnorm_wordpool.txt	LTP134	ltpFR	5	4	1	DAD	433	n/a	1	0	0.5869140625	0.422607421875	upper	../fonts/amplitud.ttf
628703	WORD	wordpools/wasnorm_wordpool.txt	LTP134	ltpFR	5	4	1	MUFFIN	929	n/a	0	0	0.5869140625	0.422607421875	upper	../fonts/amplitud.ttf
632602	WORD	wordpools/wasnorm_wordpool.txt	LTP134	ltpFR	5	4	1	SPATULA	1348	n/a	0	0	0.5869140625	0.422607421875	upper	../fonts/amplitud.ttf
636792	WORD	wordpools/wasnorm_wordpool.txt	LTP134	ltpFR	5	4	1	APARTMENT	30	n/a	0	0	0.5869140625	0.422607421875	upper	../fonts/amplitud.ttf
640915	WORD	wordpools/wasnorm_wordpool.txt	LTP134	ltpFR	5	4	1	AUDIENCE	59	n/a	0	0	0.5869140625	0.422607421875	upper	../fonts/amplitud.ttf
645015	WORD	wordpools/wasnorm_wordpool.txt	LTP134	ltpFR	5	4	1	CHALK	276	n/a	0	0	0.5869140625	0.422607421875	upper	../fonts/amplitud.ttf
648929	WORD	wordpools/wasnorm_wordpool.txt	LTP134	ltpFR	5	4	1	PASSAGE	1019	n/a	0	0	0.5869140625	0.422607421875	upper	../fonts/amplitud.ttf
654869	REC_START	n/a	LTP134	ltpFR	5	4	n/a	n/a	n/a	n/a	n/a	n/a	n/a	n/a	n/a	n/a
658925	REC_WORD	wordpools/wasnorm_wordpool.txt	LTP134	ltpFR	5	4	1	PASSAGE	1019	n/a	0	n/a	n/a	n/a	n/a	n/a
661678	REC_WORD	wordpools/wasnorm_wordpool.txt	LTP134	ltpFR	5	4	1	CHALK	276	n/a	0	n/a	n/a	n/a	n/a	n/a
664966	REC_WORD	wordpools/wasnorm_wordpool.txt	LTP134	ltpFR	5	4	1	DAD	433	n/a	1	n/a	n/a	n/a	n/a	n/a
666976	REC_WORD	wordpools/wasnorm_wordpool.txt	LTP134	ltpFR	5	4	1	DAUGHTER	442	n/a	1	n/a	n/a	n/a	n/a	n/a
668727	REC_WORD	wordpools/wasnorm_wordpool.txt	LTP134	ltpFR	5	4	1	LION	827	n/a	1	n/a	n/a	n/a	n/a	n/a
670897	REC_WORD	wordpools/wasnorm_wordpool.txt	LTP134	ltpFR	5	4	1	APARTMENT	30	n/a	0	n/a	n/a	n/a	n/a	n/a
672449	REC_WORD	wordpools/wasnorm_wordpool.txt	LTP134	ltpFR	5	4	1	MUFFIN	929	n/a	0	n/a	n/a	n/a	n/a	n/a
674174	REC_WORD	wordpools/wasnorm_wordpool.txt	LTP134	ltpFR	5	4	1	SPATULA	1348	n/a	0	n/a	n/a	n/a	n/a	n/a
690677	REC_WORD	wordpools/wasnorm_wordpool.txt	LTP134	ltpFR	5	4	1	GANGSTER	620	n/a	1	n/a	n/a	n/a	n/a	n/a
692443	REC_WORD	wordpools/wasnorm_wordpool.txt	LTP134	ltpFR	5	4	1	LASER	801	n/a	0	n/a	n/a	n/a	n/a	n/a
694150	REC_WORD	wordpools/wasnorm_wordpool.txt	LTP134	ltpFR	5	4	1	LEAF	808	n/a	1	n/a	n/a	n/a	n/a	n/a
700584	REC_WORD	wordpools/wasnorm_wordpool.txt	LTP134	ltpFR	5	4	1	PIGEON	1065	n/a	1	n/a	n/a	n/a	n/a	n/a
702186	REC_WORD	wordpools/wasnorm_wordpool.txt	LTP134	ltpFR	5	4	1	SPARROW	1347	n/a	1	n/a	n/a	n/a	n/a	n/a
711385	REC_WORD	wordpools/wasnorm_wordpool.txt	LTP134	ltpFR	5	4	1	PLANT	1083	n/a	1	n/a	n/a	n/a	n/a	n/a
743637	WORD	wordpools/wasnorm_wordpool.txt	LTP134	ltpFR	5	5	0	SCALPEL	1243	n/a	1	1	0.412841796875	0.57763671875	lower	../fonts/zerothre.ttf
747811	WORD	wordpools/wasnorm_wordpool.txt	LTP134	ltpFR	5	5	0	DOCTOR	478	n/a	1	1	0.412841796875	0.57763671875	lower	../fonts/zerothre.ttf
751793	WORD	wordpools/wasnorm_wordpool.txt	LTP134	ltpFR	5	5	0	PIPE	1073	n/a	0	1	0.412841796875	0.57763671875	lower	../fonts/zerothre.ttf
755941	WORD	wordpools/wasnorm_wordpool.txt	LTP134	ltpFR	5	5	0	SKIN	1318	n/a	0	1	0.412841796875	0.57763671875	lower	../fonts/zerothre.ttf
759948	WORD	wordpools/wasnorm_wordpool.txt	LTP134	ltpFR	5	5	0	LOAF	835	n/a	1	1	0.412841796875	0.57763671875	lower	../fonts/zerothre.ttf
764131	WORD	wordpools/wasnorm_wordpool.txt	LTP134	ltpFR	5	5	0	HEN	703	n/a	1	1	0.412841796875	0.57763671875	lower	../fonts/zerothre.ttf
768138	WORD	wordpools/wasnorm_wordpool.txt	LTP134	ltpFR	5	5	0	ASPIRIN	47	n/a	0	1	0.412841796875	0.57763671875	lower	../fonts/zerothre.ttf
772178	WORD	wordpools/wasnorm_wordpool.txt	LTP134	ltpFR	5	5	0	SISTER	1312	n/a	1	1	0.412841796875	0.57763671875	lower	../fonts/zerothre.ttf
776010	WORD	wordpools/wasnorm_wordpool.txt	LTP134	ltpFR	5	5	0	FELLOW	558	n/a	1	1	0.412841796875	0.57763671875	lower	../fonts/zerothre.ttf
779824	WORD	wordpools/wasnorm_wordpool.txt	LTP134	ltpFR	5	5	0	FIREMAN	569	n/a	1	1	0.412841796875	0.57763671875	lower	../fonts/zerothre.ttf
783973	WORD	wordpools/wasnorm_wordpool.txt	LTP134	ltpFR	5	5	0	BUN	197	n/a	1	1	0.412841796875	0.57763671875	lower	../fonts/zerothre.ttf
787822	WORD	wordpools/wasnorm_wordpool.txt	LTP134	ltpFR	5	5	0	GUN	673	n/a	1	1	0.412841796875	0.57763671875	lower	../fonts/zerothre.ttf
791745	WORD	wordpools/wasnorm_wordpool.txt	LTP134	ltpFR	5	5	0	COLUMN	350	n/a	1	1	0.412841796875	0.57763671875	lower	../fonts/zerothre.ttf
795952	WORD	wordpools/wasnorm_wordpool.txt	LTP134	ltpFR	5	5	0	NEWSSTAND	949	n/a	1	1	0.412841796875	0.57763671875	lower	../fonts/zerothre.ttf
799934	WORD	wordpools/wasnorm_wordpool.txt	LTP134	ltpFR	5	5	0	VELVET	1555	n/a	0	1	0.412841796875	0.57763671875	lower	../fonts/zerothre.ttf
804000	WORD	wordpools/wasnorm_wordpool.txt	LTP134	ltpFR	5	5	0	JUG	762	n/a	1	1	0.412841796875	0.57763671875	lower	../fonts/zerothre.ttf
809864	REC_START	n/a	LTP134	ltpFR	5	5	n/a	n/a	n/a	n/a	n/a	n/a	n/a	n/a	n/a	n/a
812263	REC_WORD	wordpools/wasnorm_wordpool.txt	LTP134	ltpFR	5	5	0	JUG	762	n/a	1	n/a	n/a	n/a	n/a	n/a
813480	REC_WORD	wordpools/wasnorm_wordpool.txt	LTP134	ltpFR	5	5	0	VELVET	1555	n/a	0	n/a	n/a	n/a	n/a	n/a
815037	REC_WORD	wordpools/wasnorm_wordpool.txt	LTP134	ltpFR	5	5	0	NEWSSTAND	949	n/a	1	n/a	n/a	n/a	n/a	n/a
817013	REC_WORD	wordpools/wasnorm_wordpool.txt	LTP134	ltpFR	5	5	0	COLUMN	350	n/a	1	n/a	n/a	n/a	n/a	n/a
819038	REC_WORD	wordpools/wasnorm_wordpool.txt	LTP134	ltpFR	5	5	0	DOCTOR	478	n/a	1	n/a	n/a	n/a	n/a	n/a
820190	REC_WORD	wordpools/wasnorm_wordpool.txt	LTP134	ltpFR	5	5	0	SCALPEL	1243	n/a	1	n/a	n/a	n/a	n/a	n/a
822066	REC_WORD	wordpools/wasnorm_wordpool.txt	LTP134	ltpFR	5	5	0	PIPE	1073	n/a	0	n/a	n/a	n/a	n/a	n/a
824071	REC_WORD	wordpools/wasnorm_wordpool.txt	LTP134	ltpFR	5	5	0	SKIN	1318	n/a	0	n/a	n/a	n/a	n/a	n/a
826386	REC_WORD	wordpools/wasnorm_wordpool.txt	LTP134	ltpFR	5	5	0	LOAF	835	n/a	1	n/a	n/a	n/a	n/a	n/a
828182	REC_WORD	wordpools/wasnorm_wordpool.txt	LTP134	ltpFR	5	5	0	HEN	703	n/a	1	n/a	n/a	n/a	n/a	n/a
830791	REC_WORD	wordpools/wasnorm_wordpool.txt	LTP134	ltpFR	5	5	0	SISTER	1312	n/a	1	n/a	n/a	n/a	n/a	n/a
833420	REC_WORD	wordpools/wasnorm_wordpool.txt	LTP134	ltpFR	5	5	0	FIREMAN	569	n/a	1	n/a	n/a	n/a	n/a	n/a
834916	REC_WORD	wordpools/wasnorm_wordpool.txt	LTP134	ltpFR	5	5	0	FELLOW	558	n/a	1	n/a	n/a	n/a	n/a	n/a
838459	REC_WORD	wordpools/wasnorm_wordpool.txt	LTP134	ltpFR	5	5	0	GUN	673	n/a	1	n/a	n/a	n/a	n/a	n/a
843423	REC_WORD	wordpools/wasnorm_wordpool.txt	LTP134	ltpFR	5	5	0	BUN	197	n/a	1	n/a	n/a	n/a	n/a	n/a
890095	WORD	wordpools/wasnorm_wordpool.txt	LTP134	ltpFR	5	6	1	ARM	38	n/a	0	0	0.5869140625	0.422607421875	upper	../fonts/amplitud.ttf
894076	WORD	wordpools/wasnorm_wordpool.txt	LTP134	ltpFR	5	6	1	PRODUCER	1129	n/a	0	0	0.5869140625	0.422607421875	upper	../fonts/amplitud.ttf
897957	WORD	wordpools/wasnorm_wordpool.txt	LTP134	ltpFR	5	6	1	PISTON	1076	n/a	0	0	0.5869140625	0.422607421875	upper	../fonts/amplitud.ttf
902049	WORD	wordpools/wasnorm_wordpool.txt	LTP134	ltpFR	5	6	1	INSECT	740	n/a	1	0	0.5869140625	0.422607421875	upper	../fonts/amplitud.ttf
906072	WORD	wordpools/wasnorm_wordpool.txt	LTP134	ltpFR	5	6	1	NIGHTGOWN	953	n/a	0	0	0.5869140625	0.422607421875	upper	../fonts/amplitud.ttf
910212	WORD	wordpools/wasnorm_wordpool.txt	LTP134	ltpFR	5	6	1	PEAR	1033	n/a	1	0	0.5869140625	0.422607421875	upper	../fonts/amplitud.ttf
914327	WORD	wordpools/wasnorm_wordpool.txt	LTP134	ltpFR	5	6	1	SHORTCAKE	1292	n/a	1	0	0.5869140625	0.422607421875	upper	../fonts/amplitud.ttf
918417	WORD	wordpools/wasnorm_wordpool.txt	LTP134	ltpFR	5	6	1	PONY	1102	n/a	1	0	0.5869140625	0.422607421875	upper	../fonts/amplitud.ttf
922349	WORD	wordpools/wasnorm_wordpool.txt	LTP134	ltpFR	5	6	1	BUGGY	188	n/a	0	0	0.5869140625	0.422607421875	upper	../fonts/amplitud.ttf
926372	WORD	wordpools/wasnorm_wordpool.txt	LTP134	ltpFR	5	6	1	KITE	779	n/a	0	0	0.5869140625	0.422607421875	upper	../fonts/amplitud.ttf
930487	WORD	wordpools/wasnorm_wordpool.txt	LTP134	ltpFR	5	6	1	JEEP	753	n/a	0	0	0.5869140625	0.422607421875	upper	../fonts/amplitud.ttf
934503	WORD	wordpools/wasnorm_wordpool.txt	LTP134	ltpFR	5	6	1	BRIEFCASE	175	n/a	0	0	0.5869140625	0.422607421875	upper	../fonts/amplitud.ttf
938385	WORD	wordpools/wasnorm_wordpool.txt	LTP134	ltpFR	5	6	1	BEAVER	109	n/a	1	0	0.5869140625	0.422607421875	upper	../fonts/amplitud.ttf
942375	WORD	wordpools/wasnorm_wordpool.txt	LTP134	ltpFR	5	6	1	BAY	102	n/a	0	0	0.5869140625	0.422607421875	upper	../fonts/amplitud.ttf
946216	WORD	wordpools/wasnorm_wordpool.txt	LTP134	ltpFR	5	6	1	WRITER	1627	n/a	0	0	0.5869140625	0.422607421875	upper	../fonts/amplitud.ttf
950140	WORD	wordpools/wasnorm_wordpool.txt	LTP134	ltpFR	5	6	1	FLASK	576	n/a	0	0	0.5869140625	0.422607421875	upper	../fonts/amplitud.ttf
955821	REC_START	n/a	LTP134	ltpFR	5	6	n/a	n/a	n/a	n/a	n/a	n/a	n/a	n/a	n/a	n/a
960450	REC_WORD	wordpools/wasnorm_wordpool.txt	LTP134	ltpFR	5	6	1	PRODUCER	1129	n/a	0	n/a	n/a	n/a	n/a	n/a
962735	REC_WORD	wordpools/wasnorm_wordpool.txt	LTP134	ltpFR	5	6	1	ARM	38	n/a	0	n/a	n/a	n/a	n/a	n/a
965219	REC_WORD	wordpools/wasnorm_wordpool.txt	LTP134	ltpFR	5	6	1	PISTON	1076	n/a	0	n/a	n/a	n/a	n/a	n/a
971150	REC_WORD	wordpools/wasnorm_wordpool.txt	LTP134	ltpFR	5	6	n/a	FLY	586	n/a	n/a	n/a	n/a	n/a	n/a	n/a
973301	REC_WORD	wordpools/wasnorm_wordpool.txt	LTP134	ltpFR	5	6	1	BUGGY	188	n/a	0	n/a	n/a	n/a	n/a	n/a
977850	REC_WORD	wordpools/wasnorm_wordpool.txt	LTP134	ltpFR	5	6	1	PONY	1102	n/a	1	n/a	n/a	n/a	n/a	n/a
980265	REC_WORD	wordpools/wasnorm_wordpool.txt	LTP134	ltpFR	5	6	1	KITE	779	n/a	0	n/a	n/a	n/a	n/a	n/a
986476	REC_WORD	wordpools/wasnorm_wordpool.txt	LTP134	ltpFR	5	6	1	JEEP	753	n/a	0	n/a	n/a	n/a	n/a	n/a
1056767	WORD	wordpools/wasnorm_wordpool.txt	LTP134	ltpFR	5	7	-1	STUMP	1396	n/a	-1	1	1.0	1.0	upper	../fonts/Verdana.ttf
1060783	WORD	wordpools/wasnorm_wordpool.txt	LTP134	ltpFR	5	7	-1	TREAT	1501	n/a	-1	1	1.0	1.0	upper	../fonts/Verdana.ttf
1064931	WORD	wordpools/wasnorm_wordpool.txt	LTP134	ltpFR	5	7	-1	ABDOMEN	1	n/a	-1	1	1.0	1.0	upper	../fonts/Verdana.ttf
1068938	WORD	wordpools/wasnorm_wordpool.txt	LTP134	ltpFR	5	7	-1	RAIL	1161	n/a	-1	1	1.0	1.0	upper	../fonts/Verdana.ttf
1072787	WORD	wordpools/wasnorm_wordpool.txt	LTP134	ltpFR	5	7	-1	RAILROAD	1162	n/a	-1	1	1.0	1.0	upper	../fonts/Verdana.ttf
1076802	WORD	wordpools/wasnorm_wordpool.txt	LTP134	ltpFR	5	7	-1	WINGS	1614	n/a	-1	1	1.0	1.0	upper	../fonts/Verdana.ttf
1080717	WORD	wordpools/wasnorm_wordpool.txt	LTP134	ltpFR	5	7	-1	TURKEY	1520	n/a	-1	1	1.0	1.0	upper	../fonts/Verdana.ttf
1084841	WORD	wordpools/wasnorm_wordpool.txt	LTP134	ltpFR	5	7	-1	CELERY	266	n/a	-1	1	1.0	1.0	upper	../fonts/Verdana.ttf
1088698	WORD	wordpools/wasnorm_wordpool.txt	LTP134	ltpFR	5	7	-1	HARE	688	n/a	-1	1	1.0	1.0	upper	../fonts/Verdana.ttf
1092846	WORD	wordpools/wasnorm_wordpool.txt	LTP134	ltpFR	5	7	-1	CIGARETTE	309	n/a	-1	1	1.0	1.0	upper	../fonts/Verdana.ttf
1096996	WORD	wordpools/wasnorm_wordpool.txt	LTP134	ltpFR	5	7	-1	SURF	1412	n/a	-1	1	1.0	1.0	upper	../fonts/Verdana.ttf
1100827	WORD	wordpools/wasnorm_wordpool.txt	LTP134	ltpFR	5	7	-1	DAGGER	434	n/a	-1	1	1.0	1.0	upper	../fonts/Verdana.ttf
1104825	WORD	wordpools/wasnorm_wordpool.txt	LTP134	ltpFR	5	7	-1	SHUTTER	1300	n/a	-1	1	1.0	1.0	upper	../fonts/Verdana.ttf
1108882	WORD	wordpools/wasnorm_wordpool.txt	LTP134	ltpFR	5	7	-1	ELM	527	n/a	-1	1	1.0	1.0	upper	../fonts/Verdana.ttf
1113032	WORD	wordpools/wasnorm_wordpool.txt	LTP134	ltpFR	5	7	-1	MINT	898	n/a	-1	1	1.0	1.0	upper	../fonts/Verdana.ttf
1117130	WORD	wordpools/wasnorm_wordpool.txt	LTP134	ltpFR	5	7	-1	CAPE	237	n/a	-1	1	1.0	1.0	upper	../fonts/Verdana.ttf
1122861	REC_START	n/a	LTP134	ltpFR	5	7	n/a	n/a	n/a	n/a	n/a	n/a	n/a	n/a	n/a	n/a
1125620	REC_WORD	wordpools/wasnorm_wordpool.txt	LTP134	ltpFR	5	7	-1	CAPE	237	n/a	-1	n/a	n/a	n/a	n/a	n/a
1127291	REC_WORD	wordpools/wasnorm_wordpool.txt	LTP134	ltpFR	5	7	-1	ELM	527	n/a	-1	n/a	n/a	n/a	n/a	n/a
1128752	REC_WORD	wordpools/wasnorm_wordpool.txt	LTP134	ltpFR	5	7	-1	SHUTTER	1300	n/a	-1	n/a	n/a	n/a	n/a	n/a
1130832	REC_WORD	wordpools/wasnorm_wordpool.txt	LTP134	ltpFR	5	7	-1	SURF	1412	n/a	-1	n/a	n/a	n/a	n/a	n/a
1133331	REC_WORD	wordpools/wasnorm_wordpool.txt	LTP134	ltpFR	5	7	-1	STUMP	1396	n/a	-1	n/a	n/a	n/a	n/a	n/a
1135830	REC_WORD	wordpools/wasnorm_wordpool.txt	LTP134	ltpFR	5	7	n/a	SUITE	1404	n/a	n/a	n/a	n/a	n/a	n/a	n/a
1139992	REC_WORD	wordpools/wasnorm_wordpool.txt	LTP134	ltpFR	5	7	-1	ABDOMEN	1	n/a	-1	n/a	n/a	n/a	n/a	n/a
1143624	REC_WORD	wordpools/wasnorm_wordpool.txt	LTP134	ltpFR	5	7	-1	RAIL	1161	n/a	-1	n/a	n/a	n/a	n/a	n/a
1145225	REC_WORD	wordpools/wasnorm_wordpool.txt	LTP134	ltpFR	5	7	-1	RAILROAD	1162	n/a	-1	n/a	n/a	n/a	n/a	n/a
1149126	REC_WORD	wordpools/wasnorm_wordpool.txt	LTP134	ltpFR	5	7	-1	CELERY	266	n/a	-1	n/a	n/a	n/a	n/a	n/a
1150961	REC_WORD	wordpools/wasnorm_wordpool.txt	LTP134	ltpFR	5	7	-1	CIGARETTE	309	n/a	-1	n/a	n/a	n/a	n/a	n/a
1152907	REC_WORD	wordpools/wasnorm_wordpool.txt	LTP134	ltpFR	5	7	-1	HARE	688	n/a	-1	n/a	n/a	n/a	n/a	n/a
1154798	REC_WORD	wordpools/wasnorm_wordpool.txt	LTP134	ltpFR	5	7	-1	TURKEY	1520	n/a	-1	n/a	n/a	n/a	n/a	n/a
1157298	REC_WORD	wordpools/wasnorm_wordpool.txt	LTP134	ltpFR	5	7	-1	WINGS	1614	n/a	-1	n/a	n/a	n/a	n/a	n/a
1246775	WORD	wordpools/wasnorm_wordpool.txt	LTP134	ltpFR	5	8	-1	DETERGENT	455	n/a	-1	1	1.0	1.0	upper	../fonts/Verdana.ttf
1250782	WORD	wordpools/wasnorm_wordpool.txt	LTP134	ltpFR	5	8	-1	YARD	1630	n/a	-1	1	1.0	1.0	upper	../fonts/Verdana.ttf
1254739	WORD	wordpools/wasnorm_wordpool.txt	LTP134	ltpFR	5	8	-1	SWING	1421	n/a	-1	1	1.0	1.0	upper	../fonts/Verdana.ttf
1258879	WORD	wordpools/wasnorm_wordpool.txt	LTP134	ltpFR	5	8	-1	EGYPT	519	n/a	-1	1	1.0	1.0	upper	../fonts/Verdana.ttf
1262711	WORD	wordpools/wasnorm_wordpool.txt	LTP134	ltpFR	5	8	-1	WALRUS	1585	n/a	-1	1	1.0	1.0	upper	../fonts/Verdana.ttf
1266668	WORD	wordpools/wasnorm_wordpool.txt	LTP134	ltpFR	5	8	-1	CANAL	226	n/a	-1	1	1.0	1.0	upper	../fonts/Verdana.ttf
1270558	WORD	wordpools/wasnorm_wordpool.txt	LTP134	ltpFR	5	8	-1	BATHTUB	100	n/a	-1	1	1.0	1.0	upper	../fonts/Verdana.ttf
1274515	WORD	wordpools/wasnorm_wordpool.txt	LTP134	ltpFR	5	8	-1	RIVER	1194	n/a	-1	1	1.0	1.0	upper	../fonts/Verdana.ttf
1278597	WORD	wordpools/wasnorm_wordpool.txt	LTP134	ltpFR	5	8	-1	LEVER	815	n/a	-1	1	1.0	1.0	upper	../fonts/Verdana.ttf
1282604	WORD	wordpools/wasnorm_wordpool.txt	LTP134	ltpFR	5	8	-1	MUMMY	932	n/a	-1	1	1.0	1.0	upper	../fonts/Verdana.ttf
1286744	WORD	wordpools/wasnorm_wordpool.txt	LTP134	ltpFR	5	8	-1	POTTERY	1116	n/a	-1	1	1.0	1.0	upper	../fonts/Verdana.ttf
1290676	WORD	wordpools/wasnorm_wordpool.txt	LTP134	ltpFR	5	8	-1	APPLE	33	n/a	-1	1	1.0	1.0	upper	../fonts/Verdana.ttf
1294866	WORD	wordpools/wasnorm_wordpool.txt	LTP134	ltpFR	5	8	-1	YOKE	1632	n/a	-1	1	1.0	1.0	upper	../fonts/Verdana.ttf
1298823	WORD	wordpools/wasnorm_wordpool.txt	LTP134	ltpFR	5	8	-1	COBRA	336	n/a	-1	1	1.0	1.0	upper	../fonts/Verdana.ttf
1302880	WORD	wordpools/wasnorm_wordpool.txt	LTP134	ltpFR	5	8	-1	SNAKE	1333	n/a	-1	1	1.0	1.0	upper	../fonts/Verdana.ttf
1306903	WORD	wordpools/wasnorm_wordpool.txt	LTP134	ltpFR	5	8	-1	SIBLING	1301	n/a	-1	1	1.0	1.0	upper	../fonts/Verdana.ttf
1312510	REC_START	n/a	LTP134	ltpFR	5	8	n/a	n/a	n/a	n/a	n/a	n/a	n/a	n/a	n/a	n/a
1314909	REC_WORD	wordpools/wasnorm_wordpool.txt	LTP134	ltpFR	5	8	-1	DETERGENT	455	n/a	-1	n/a	n/a	n/a	n/a	n/a
1316561	REC_WORD	wordpools/wasnorm_wordpool.txt	LTP134	ltpFR	5	8	-1	YARD	1630	n/a	-1	n/a	n/a	n/a	n/a	n/a
1318147	REC_WORD	wordpools/wasnorm_wordpool.txt	LTP134	ltpFR	5	8	-1	SWING	1421	n/a	-1	n/a	n/a	n/a	n/a	n/a
1319878	REC_WORD	wordpools/wasnorm_wordpool.txt	LTP134	ltpFR	5	8	-1	EGYPT	519	n/a	-1	n/a	n/a	n/a	n/a	n/a
1321644	REC_WORD	wordpools/wasnorm_wordpool.txt	LTP134	ltpFR	5	8	-1	WALRUS	1585	n/a	-1	n/a	n/a	n/a	n/a	n/a
1323649	REC_WORD	wordpools/wasnorm_wordpool.txt	LTP134	ltpFR	5	8	-1	RIVER	1194	n/a	-1	n/a	n/a	n/a	n/a	n/a
1324996	REC_WORD	wordpools/wasnorm_wordpool.txt	LTP134	ltpFR	5	8	-1	CANAL	226	n/a	-1	n/a	n/a	n/a	n/a	n/a
1327251	REC_WORD	wordpools/wasnorm_wordpool.txt	LTP134	ltpFR	5	8	-1	BATHTUB	100	n/a	-1	n/a	n/a	n/a	n/a	n/a
1330165	REC_WORD	wordpools/wasnorm_wordpool.txt	LTP134	ltpFR	5	8	-1	LEVER	815	n/a	-1	n/a	n/a	n/a	n/a	n/a
1333068	REC_WORD	wordpools/wasnorm_wordpool.txt	LTP134	ltpFR	5	8	n/a	MONEY	908	n/a	n/a	n/a	n/a	n/a	n/a	n/a
1334869	REC_WORD	wordpools/wasnorm_wordpool.txt	LTP134	ltpFR	5	8	-1	COBRA	336	n/a	-1	n/a	n/a	n/a	n/a	n/a
1336495	REC_WORD	wordpools/wasnorm_wordpool.txt	LTP134	ltpFR	5	8	-1	SNAKE	1333	n/a	-1	n/a	n/a	n/a	n/a	n/a
1338795	REC_WORD	wordpools/wasnorm_wordpool.txt	LTP134	ltpFR	5	8	-1	APPLE	33	n/a	-1	n/a	n/a	n/a	n/a	n/a
1340875	REC_WORD	wordpools/wasnorm_wordpool.txt	LTP134	ltpFR	5	8	-1	YOKE	1632	n/a	-1	n/a	n/a	n/a	n/a	n/a
1347131	REC_WORD	wordpools/wasnorm_wordpool.txt	LTP134	ltpFR	5	8	-1	POTTERY	1116	n/a	-1	n/a	n/a	n/a	n/a	n/a
1394972	WORD	wordpools/wasnorm_wordpool.txt	LTP134	ltpFR	5	9	0	RAFT	1159	n/a	1	1	0.412841796875	0.57763671875	lower	../fonts/zerothre.ttf
1399022	WORD	wordpools/wasnorm_wordpool.txt	LTP134	ltpFR	5	9	0	LAGOON	795	n/a	1	1	0.412841796875	0.57763671875	lower	../fonts/zerothre.ttf
1402869	WORD	wordpools/wasnorm_wordpool.txt	LTP134	ltpFR	5	9	0	WINNER	1615	n/a	1	1	0.412841796875	0.57763671875	lower	../fonts/zerothre.ttf
1407002	WORD	wordpools/wasnorm_wordpool.txt	LTP134	ltpFR	5	9	0	BUREAU	199	n/a	1	1	0.412841796875	0.57763671875	lower	../fonts/zerothre.ttf
1411067	WORD	wordpools/wasnorm_wordpool.txt	LTP134	ltpFR	5	9	1	SENATE	1267	n/a	1	0	0.5869140625	0.422607421875	upper	../fonts/amplitud.ttf
1415240	WORD	wordpools/wasnorm_wordpool.txt	LTP134	ltpFR	5	9	1	TROPHY	1509	n/a	0	0	0.5869140625	0.422607421875	upper	../fonts/amplitud.ttf
1419238	WORD	wordpools/wasnorm_wordpool.txt	LTP134	ltpFR	5	9	1	LOBSTER	837	n/a	1	0	0.5869140625	0.422607421875	upper	../fonts/amplitud.ttf
1423121	WORD	wordpools/wasnorm_wordpool.txt	LTP134	ltpFR	5	9	1	SEED	1266	n/a	0	0	0.5869140625	0.422607421875	upper	../fonts/amplitud.ttf
1427162	WORD	wordpools/wasnorm_wordpool.txt	LTP134	ltpFR	5	9	0	METEOR	889	n/a	1	1	0.412841796875	0.57763671875	lower	../fonts/zerothre.ttf
1431342	WORD	wordpools/wasnorm_wordpool.txt	LTP134	ltpFR	5	9	0	TOAST	1471	n/a	0	1	0.412841796875	0.57763671875	lower	../fonts/zerothre.ttf
1435217	WORD	wordpools/wasnorm_wordpool.txt	LTP134	ltpFR	5	9	1	STAKE	1368	n/a	0	0	0.5869140625	0.422607421875	upper	../fonts/amplitud.ttf
1439306	WORD	wordpools/wasnorm_wordpool.txt	LTP134	ltpFR	5	9	1	SHRUB	1299	n/a	1	0	0.5869140625	0.422607421875	upper	../fonts/amplitud.ttf
1443405	WORD	wordpools/wasnorm_wordpool.txt	LTP134	ltpFR	5	9	1	LINEN	825	n/a	0	0	0.5869140625	0.422607421875	upper	../fonts/amplitud.ttf
1447320	WORD	wordpools/wasnorm_wordpool.txt	LTP134	ltpFR	5	9	1	GENTLEMAN	631	n/a	1	0	0.5869140625	0.422607421875	upper	../fonts/amplitud.ttf
1451435	WORD	wordpools/wasnorm_wordpool.txt	LTP134	ltpFR	5	9	0	AIRPLANE	12	n/a	1	1	0.412841796875	0.57763671875	lower	../fonts/zerothre.ttf
1455542	WORD	wordpools/wasnorm_wordpool.txt	LTP134	ltpFR	5	9	0	ASTRONAUT	51	n/a	1	1	0.412841796875	0.57763671875	lower	../fonts/zerothre.ttf
1461316	REC_START	n/a	LTP134	ltpFR	5	9	n/a	n/a	n/a	n/a	n/a	n/a	n/a	n/a	n/a	n/a
1463645	REC_WORD	wordpools/wasnorm_wordpool.txt	LTP134	ltpFR	5	9	0	AIRPLANE	12	n/a	1	n/a	n/a	n/a	n/a	n/a
1465406	REC_WORD	wordpools/wasnorm_wordpool.txt	LTP134	ltpFR	5	9	0	ASTRONAUT	51	n/a	1	n/a	n/a	n/a	n/a	n/a
1492510	REC_WORD	wordpools/wasnorm_wordpool.txt	LTP134	ltpFR	5	9	1	TROPHY	1509	n/a	0	n/a	n/a	n/a	n/a	n/a
1494924	REC_WORD	wordpools/wasnorm_wordpool.txt	LTP134	ltpFR	5	9	0	RAFT	1159	n/a	1	n/a	n/a	n/a	n/a	n/a
1496735	REC_WORD	wordpools/wasnorm_wordpool.txt	LTP134	ltpFR	5	9	0	LAGOON	795	n/a	1	n/a	n/a	n/a	n/a	n/a
1499938	REC_WORD	wordpools/wasnorm_wordpool.txt	LTP134	ltpFR	5	9	1	SEED	1266	n/a	0	n/a	n/a	n/a	n/a	n/a
1501594	REC_WORD	wordpools/wasnorm_wordpool.txt	LTP134	ltpFR	5	9	0	METEOR	889	n/a	1	n/a	n/a	n/a	n/a	n/a
1506009	REC_WORD	wordpools/wasnorm_wordpool.txt	LTP134	ltpFR	5	9	1	SENATE	1267	n/a	1	n/a	n/a	n/a	n/a	n/a
1510449	REC_WORD	wordpools/wasnorm_wordpool.txt	LTP134	ltpFR	5	9	0	BUREAU	199	n/a	1	n/a	n/a	n/a	n/a	n/a
1534120	REC_WORD	wordpools/wasnorm_wordpool.txt	LTP134	ltpFR	5	9	1	LOBSTER	837	n/a	1	n/a	n/a	n/a	n/a	n/a
1541038	WORD	wordpools/wasnorm_wordpool.txt	LTP134	ltpFR	5	10	0	DEPARTMENT	449	n/a	1	1	0.412841796875	0.57763671875	lower	../fonts/zerothre.ttf
1545103	WORD	wordpools/wasnorm_wordpool.txt	LTP134	ltpFR	5	10	0	OPERA	978	n/a	1	1	0.412841796875	0.57763671875	lower	../fonts/zerothre.ttf
1548993	WORD	wordpools/wasnorm_wordpool.txt	LTP134	ltpFR	5	10	0	SHIP	1286	n/a	1	1	0.412841796875	0.57763671875	lower	../fonts/zerothre.ttf
1552849	WORD	wordpools/wasnorm_wordpool.txt	LTP134	ltpFR	5	10	0	FOOT	590	n/a	0	1	0.412841796875	0.57763671875	lower	../fonts/zerothre.ttf
1556681	WORD	wordpools/wasnorm_wordpool.txt	LTP134	ltpFR	5	10	0	COBBLER	335	n/a	0	1	0.412841796875	0.57763671875	lower	../fonts/zerothre.ttf
1560838	WORD	wordpools/wasnorm_wordpool.txt	LTP134	ltpFR	5	10	0	HANDCUFFS	685	n/a	0	1	0.412841796875	0.57763671875	lower	../fonts/zerothre.ttf
1564703	WORD	wordpools/wasnorm_wordpool.txt	LTP134	ltpFR	5	10	0	NOTE	958	n/a	0	1	0.412841796875	0.57763671875	lower	../fonts/zerothre.ttf
1568527	WORD	wordpools/wasnorm_wordpool.txt	LTP134	ltpFR	5	10	0	RAM	1165	n/a	1	1	0.412841796875	0.57763671875	lower	../fonts/zerothre.ttf
1572476	WORD	wordpools/wasnorm_wordpool.txt	LTP134	ltpFR	5	10	0	MALL	860	n/a	1	1	0.412841796875	0.57763671875	lower	../fonts/zerothre.ttf
1576391	WORD	wordpools/wasnorm_wordpool.txt	LTP134	ltpFR	5	10	0	ALMOND	18	n/a	0	1	0.412841796875	0.57763671875	lower	../fonts/zerothre.ttf
1580389	WORD	wordpools/wasnorm_wordpool.txt	LTP134	ltpFR	5	10	0	ANTLER	29	n/a	1	1	0.412841796875	0.57763671875	lower	../fonts/zerothre.ttf
1584371	WORD	wordpools/wasnorm_wordpool.txt	LTP134	ltpFR	5	10	0	MARINE	869	n/a	1	1	0.412841796875	0.57763671875	lower	../fonts/zerothre.ttf
1588278	WORD	wordpools/wasnorm_wordpool.txt	LTP134	ltpFR	5	10	0	BOOK	149	n/a	0	1	0.412841796875	0.57763671875	lower	../fonts/zerothre.ttf
1592477	WORD	wordpools/wasnorm_wordpool.txt	LTP134	ltpFR	5	10	0	AUTHOR	61	n/a	1	1	0.412841796875	0.57763671875	lower	../fonts/zerothre.ttf
1596492	WORD	wordpools/wasnorm_wordpool.txt	LTP134	ltpFR	5	10	0	ZUCCHINI	1638	n/a	0	1	0.412841796875	0.57763671875	lower	../fonts/zerothre.ttf
1600441	WORD	wordpools/wasnorm_wordpool.txt	LTP134	ltpFR	5	10	0	BARLEY	88	n/a	0	1	0.412841796875	0.57763671875	lower	../fonts/zerothre.ttf
1606339	REC_START	n/a	LTP134	ltpFR	5	10	n/a	n/a	n/a	n/a	n/a	n/a	n/a	n/a	n/a	n/a
1608264	REC_WORD	wordpools/wasnorm_wordpool.txt	LTP134	ltpFR	5	10	0	ZUCCHINI	1638	n/a	0	n/a	n/a	n/a	n/a	n/a
1610574	REC_WORD	wordpools/wasnorm_wordpool.txt	LTP134	ltpFR	5	10	0	BARLEY	88	n/a	0	n/a	n/a	n/a	n/a	n/a
1613193	REC_WORD	wordpools/wasnorm_wordpool.txt	LTP134	ltpFR	5	10	0	DEPARTMENT	449	n/a	1	n/a	n/a	n/a	n/a	n/a
1615433	REC_WORD	wordpools/wasnorm_wordpool.txt	LTP134	ltpFR	5	10	0	OPERA	978	n/a	1	n/a	n/a	n/a	n/a	n/a
1621260	REC_WORD	wordpools/wasnorm_wordpool.txt	LTP134	ltpFR	5	10	0	NOTE	958	n/a	0	n/a	n/a	n/a	n/a	n/a
1624522	REC_WORD	wordpools/wasnorm_wordpool.txt	LTP134	ltpFR	5	10	0	SHIP	1286	n/a	1	n/a	n/a	n/a	n/a	n/a
1627545	REC_WORD	wordpools/wasnorm_wordpool.txt	LTP134	ltpFR	5	10	0	FOOT	590	n/a	0	n/a	n/a	n/a	n/a	n/a
1635323	REC_WORD	wordpools/wasnorm_wordpool.txt	LTP134	ltpFR	5	10	0	MARINE	869	n/a	1	n/a	n/a	n/a	n/a	n/a
1636984	REC_WORD	wordpools/wasnorm_wordpool.txt	LTP134	ltpFR	5	10	0	BOOK	149	n/a	0	n/a	n/a	n/a	n/a	n/a
1638281	REC_WORD	wordpools/wasnorm_wordpool.txt	LTP134	ltpFR	5	10	0	AUTHOR	61	n/a	1	n/a	n/a	n/a	n/a	n/a
1639737	REC_WORD	wordpools/wasnorm_wordpool.txt	LTP134	ltpFR	5	10	0	ZUCCHINI	1638	n/a	0	n/a	n/a	n/a	n/a	n/a
1643454	REC_WORD	wordpools/wasnorm_wordpool.txt	LTP134	ltpFR	5	10	0	BARLEY	88	n/a	0	n/a	n/a	n/a	n/a	n/a
1654499	REC_WORD	wordpools/wasnorm_wordpool.txt	LTP134	ltpFR	5	10	0	RAM	1165	n/a	1	n/a	n/a	n/a	n/a	n/a
1659333	REC_WORD	wordpools/wasnorm_wordpool.txt	LTP134	ltpFR	5	10	0	MALL	860	n/a	1	n/a	n/a	n/a	n/a	n/a
1660700	REC_WORD	wordpools/wasnorm_wordpool.txt	LTP134	ltpFR	5	10	0	ALMOND	18	n/a	0	n/a	n/a	n/a	n/a	n/a
1662925	REC_WORD	wordpools/wasnorm_wordpool.txt	LTP134	ltpFR	5	10	0	ANTLER	29	n/a	1	n/a	n/a	n/a	n/a	n/a
1671660	REC_WORD	wordpools/wasnorm_wordpool.txt	LTP134	ltpFR	5	10	0	COBBLER	335	n/a	0	n/a	n/a	n/a	n/a	n/a
1686802	WORD	wordpools/wasnorm_wordpool.txt	LTP134	ltpFR	5	11	1	DRINK	498	n/a	0	0	0.5869140625	0.422607421875	upper	../fonts/amplitud.ttf
1690958	WORD	wordpools/wasnorm_wordpool.txt	LTP134	ltpFR	5	11	1	GUM	672	n/a	0	0	0.5869140625	0.422607421875	upper	../fonts/amplitud.ttf
1695058	WORD	wordpools/wasnorm_wordpool.txt	LTP134	ltpFR	5	11	1	FOLLOWER	589	n/a	0	0	0.5869140625	0.422607421875	upper	../fonts/amplitud.ttf
1698956	WORD	wordpools/wasnorm_wordpool.txt	LTP134	ltpFR	5	11	1	STUDENT	1395	n/a	1	0	0.5869140625	0.422607421875	upper	../fonts/amplitud.ttf
1702854	WORD	wordpools/wasnorm_wordpool.txt	LTP134	ltpFR	5	11	0	CHICK	296	n/a	1	1	0.412841796875	0.57763671875	lower	../fonts/zerothre.ttf
1707037	WORD	wordpools/wasnorm_wordpool.txt	LTP134	ltpFR	5	11	0	EGG	518	n/a	0	1	0.412841796875	0.57763671875	lower	../fonts/zerothre.ttf
1711027	WORD	wordpools/wasnorm_wordpool.txt	LTP134	ltpFR	5	11	0	GROOM	665	n/a	1	1	0.412841796875	0.57763671875	lower	../fonts/zerothre.ttf
1715009	WORD	wordpools/wasnorm_wordpool.txt	LTP134	ltpFR	5	11	0	TRUMPET	1513	n/a	1	1	0.412841796875	0.57763671875	lower	../fonts/zerothre.ttf
1719133	WORD	wordpools/wasnorm_wordpool.txt	LTP134	ltpFR	5	11	1	JAW	751	n/a	0	0	0.5869140625	0.422607421875	upper	../fonts/amplitud.ttf
1722955	WORD	wordpools/wasnorm_wordpool.txt	LTP134	ltpFR	5	11	1	SHARK	1275	n/a	1	0	0.5869140625	0.422607421875	upper	../fonts/amplitud.ttf
1726854	WORD	wordpools/wasnorm_wordpool.txt	LTP134	ltpFR	5	11	1	MOSQUITO	917	n/a	1	0	0.5869140625	0.422607421875	upper	../fonts/amplitud.ttf
1730761	WORD	wordpools/wasnorm_wordpool.txt	LTP134	ltpFR	5	11	1	TRASH	1497	n/a	0	0	0.5869140625	0.422607421875	upper	../fonts/amplitud.ttf
1734968	WORD	wordpools/wasnorm_wordpool.txt	LTP134	ltpFR	5	11	0	GRILL	661	n/a	1	1	0.412841796875	0.57763671875	lower	../fonts/zerothre.ttf
1739126	WORD	wordpools/wasnorm_wordpool.txt	LTP134	ltpFR	5	11	0	CLARINET	317	n/a	1	1	0.412841796875	0.57763671875	lower	../fonts/zerothre.ttf
1743281	WORD	wordpools/wasnorm_wordpool.txt	LTP134	ltpFR	5	11	0	EMPEROR	529	n/a	1	1	0.412841796875	0.57763671875	lower	../fonts/zerothre.ttf
1747355	WORD	wordpools/wasnorm_wordpool.txt	LTP134	ltpFR	5	11	0	BUTCHER	203	n/a	1	1	0.412841796875	0.57763671875	lower	../fonts/zerothre.ttf
1753412	REC_START	n/a	LTP134	ltpFR	5	11	n/a	n/a	n/a	n/a	n/a	n/a	n/a	n/a	n/a	n/a
1755233	REC_WORD	wordpools/wasnorm_wordpool.txt	LTP134	ltpFR	5	11	0	GRILL	661	n/a	1	n/a	n/a	n/a	n/a	n/a
1756669	REC_WORD	wordpools/wasnorm_wordpool.txt	LTP134	ltpFR	5	11	0	EMPEROR	529	n/a	1	n/a	n/a	n/a	n/a	n/a
1758191	REC_WORD	wordpools/wasnorm_wordpool.txt	LTP134	ltpFR	5	11	0	BUTCHER	203	n/a	1	n/a	n/a	n/a	n/a	n/a
1792523	REC_WORD	wordpools/wasnorm_wordpool.txt	LTP134	ltpFR	5	11	1	DRINK	498	n/a	0	n/a	n/a	n/a	n/a	n/a
1795092	REC_WORD	wordpools/wasnorm_wordpool.txt	LTP134	ltpFR	5	11	1	GUM	672	n/a	0	n/a	n/a	n/a	n/a	n/a
1797965	REC_WORD	wordpools/wasnorm_wordpool.txt	LTP134	ltpFR	5	11	1	FOLLOWER	589	n/a	0	n/a	n/a	n/a	n/a	n/a
1799432	REC_WORD	wordpools/wasnorm_wordpool.txt	LTP134	ltpFR	5	11	n/a	GIRL	637	n/a	n/a	n/a	n/a	n/a	n/a	n/a
1801937	REC_WORD	wordpools/wasnorm_wordpool.txt	LTP134	ltpFR	5	11	0	GROOM	665	n/a	1	n/a	n/a	n/a	n/a	n/a
1803009	REC_WORD	wordpools/wasnorm_wordpool.txt	LTP134	ltpFR	5	11	0	TRUMPET	1513	n/a	1	n/a	n/a	n/a	n/a	n/a
1805518	REC_WORD	wordpools/wasnorm_wordpool.txt	LTP134	ltpFR	5	11	1	JAW	751	n/a	0	n/a	n/a	n/a	n/a	n/a
1807064	REC_WORD	wordpools/wasnorm_wordpool.txt	LTP134	ltpFR	5	11	1	STUDENT	1395	n/a	1	n/a	n/a	n/a	n/a	n/a
1811026	REC_WORD	wordpools/wasnorm_wordpool.txt	LTP134	ltpFR	5	11	1	SHARK	1275	n/a	1	n/a	n/a	n/a	n/a	n/a
1812677	REC_WORD	wordpools/wasnorm_wordpool.txt	LTP134	ltpFR	5	11	1	MOSQUITO	917	n/a	1	n/a	n/a	n/a	n/a	n/a
1813964	REC_WORD	wordpools/wasnorm_wordpool.txt	LTP134	ltpFR	5	11	n/a	GARAGE	621	n/a	n/a	n/a	n/a	n/a	n/a	n/a
1816483	REC_WORD	wordpools/wasnorm_wordpool.txt	LTP134	ltpFR	5	11	0	GROOM	665	n/a	1	n/a	n/a	n/a	n/a	n/a
1817227	REC_WORD	wordpools/wasnorm_wordpool.txt	LTP134	ltpFR	5	11	0	CLARINET	317	n/a	1	n/a	n/a	n/a	n/a	n/a
1832325	WORD	wordpools/wasnorm_wordpool.txt	LTP134	ltpFR	5	12	0	LAUNDRY	803	n/a	1	1	0.412841796875	0.57763671875	lower	../fonts/zerothre.ttf
1836208	WORD	wordpools/wasnorm_wordpool.txt	LTP134	ltpFR	5	12	0	SUGAR	1401	n/a	0	1	0.412841796875	0.57763671875	lower	../fonts/zerothre.ttf
1840056	WORD	wordpools/wasnorm_wordpool.txt	LTP134	ltpFR	5	12	0	TART	1436	n/a	0	1	0.412841796875	0.57763671875	lower	../fonts/zerothre.ttf
1843962	WORD	wordpools/wasnorm_wordpool.txt	LTP134	ltpFR	5	12	0	STEW	1380	n/a	0	1	0.412841796875	0.57763671875	lower	../fonts/zerothre.ttf
1847936	WORD	wordpools/wasnorm_wordpool.txt	LTP134	ltpFR	5	12	0	NURSERY	964	n/a	1	1	0.412841796875	0.57763671875	lower	../fonts/zerothre.ttf
1852035	WORD	wordpools/wasnorm_wordpool.txt	LTP134	ltpFR	5	12	0	FRAME	600	n/a	0	1	0.412841796875	0.57763671875	lower	../fonts/zerothre.ttf
1855950	WORD	wordpools/wasnorm_wordpool.txt	LTP134	ltpFR	5	12	0	ROOSTER	1209	n/a	1	1	0.412841796875	0.57763671875	lower	../fonts/zerothre.ttf
1859823	WORD	wordpools/wasnorm_wordpool.txt	LTP134	ltpFR	5	12	0	BANJO	82	n/a	1	1	0.412841796875	0.57763671875	lower	../fonts/zerothre.ttf
1863672	WORD	wordpools/wasnorm_wordpool.txt	LTP134	ltpFR	5	12	0	BAND	78	n/a	1	1	0.412841796875	0.57763671875	lower	../fonts/zerothre.ttf
1867770	WORD	wordpools/wasnorm_wordpool.txt	LTP134	ltpFR	5	12	0	MOP	916	n/a	1	1	0.412841796875	0.57763671875	lower	../fonts/zerothre.ttf
1871844	WORD	wordpools/wasnorm_wordpool.txt	LTP134	ltpFR	5	12	0	WARRIOR	1589	n/a	1	1	0.412841796875	0.57763671875	lower	../fonts/zerothre.ttf
1875793	WORD	wordpools/wasnorm_wordpool.txt	LTP134	ltpFR	5	12	0	COLLEGE	346	n/a	1	1	0.412841796875	0.57763671875	lower	../fonts/zerothre.ttf
1879733	WORD	wordpools/wasnorm_wordpool.txt	LTP134	ltpFR	5	12	0	PHOTO	1055	n/a	0	1	0.412841796875	0.57763671875	lower	../fonts/zerothre.ttf
1883723	WORD	wordpools/wasnorm_wordpool.txt	LTP134	ltpFR	5	12	0	ADULT	8	n/a	1	1	0.412841796875	0.57763671875	lower	../fonts/zerothre.ttf
1887680	WORD	wordpools/wasnorm_wordpool.txt	LTP134	ltpFR	5	12	0	BASSINET	97	n/a	1	1	0.412841796875	0.57763671875	lower	../fonts/zerothre.ttf
1891604	WORD	wordpools/wasnorm_wordpool.txt	LTP134	ltpFR	5	12	0	SALT	1229	n/a	1	1	0.412841796875	0.57763671875	lower	../fonts/zerothre.ttf
1897610	REC_START	n/a	LTP134	ltpFR	5	12	n/a	n/a	n/a	n/a	n/a	n/a	n/a	n/a	n/a	n/a
1899150	REC_WORD	wordpools/wasnorm_wordpool.txt	LTP134	ltpFR	5	12	0	SALT	1229	n/a	1	n/a	n/a	n/a	n/a	n/a
1901182	REC_WORD	wordpools/wasnorm_wordpool.txt	LTP134	ltpFR	5	12	0	SUGAR	1401	n/a	0	n/a	n/a	n/a	n/a	n/a
1904838	REC_WORD	wordpools/wasnorm_wordpool.txt	LTP134	ltpFR	5	12	0	LAUNDRY	803	n/a	1	n/a	n/a	n/a	n/a	n/a
1911237	REC_WORD	wordpools/wasnorm_wordpool.txt	LTP134	ltpFR	5	12	0	STEW	1380	n/a	0	n/a	n/a	n/a	n/a	n/a
1923251	REC_WORD	wordpools/wasnorm_wordpool.txt	LTP134	ltpFR	5	12	n/a	DAYCARE	-1	n/a	n/a	n/a	n/a	n/a	n/a	n/a
1973201	REST_REWET	n/a	LTP134	ltpFR	5	12	n/a	n/a	n/a	n/a	n/a	n/a	n/a	n/a	n/a	n/a
2459418	WORD	wordpools/wasnorm_wordpool.txt	LTP134	ltpFR	5	13	-1	STADIUM	1364	n/a	-1	1	1.0	1.0	upper	../fonts/Verdana.ttf
2463275	WORD	wordpools/wasnorm_wordpool.txt	LTP134	ltpFR	5	13	-1	FIELD	562	n/a	-1	1	1.0	1.0	upper	../fonts/Verdana.ttf
2467407	WORD	wordpools/wasnorm_wordpool.txt	LTP134	ltpFR	5	13	-1	MOTOR	922	n/a	-1	1	1.0	1.0	upper	../fonts/Verdana.ttf
2471256	WORD	wordpools/wasnorm_wordpool.txt	LTP134	ltpFR	5	13	-1	RUBY	1214	n/a	-1	1	1.0	1.0	upper	../fonts/Verdana.ttf
2475288	WORD	wordpools/wasnorm_wordpool.txt	LTP134	ltpFR	5	13	-1	CLOSET	326	n/a	-1	1	1.0	1.0	upper	../fonts/Verdana.ttf
2479344	WORD	wordpools/wasnorm_wordpool.txt	LTP134	ltpFR	5	13	-1	SHINGLE	1285	n/a	-1	1	1.0	1.0	upper	../fonts/Verdana.ttf
2483526	WORD	wordpools/wasnorm_wordpool.txt	LTP134	ltpFR	5	13	-1	BLACKBOARD	133	n/a	-1	1	1.0	1.0	upper	../fonts/Verdana.ttf
2487367	WORD	wordpools/wasnorm_wordpool.txt	LTP134	ltpFR	5	13	-1	BULLETIN	195	n/a	-1	1	1.0	1.0	upper	../fonts/Verdana.ttf
2491457	WORD	wordpools/wasnorm_wordpool.txt	LTP134	ltpFR	5	13	-1	KNAPSACK	783	n/a	-1	1	1.0	1.0	upper	../fonts/Verdana.ttf
2495289	WORD	wordpools/wasnorm_wordpool.txt	LTP134	ltpFR	5	13	-1	WIDOW	1608	n/a	-1	1	1.0	1.0	upper	../fonts/Verdana.ttf
2499287	WORD	wordpools/wasnorm_wordpool.txt	LTP134	ltpFR	5	13	-1	DESIGNER	451	n/a	-1	1	1.0	1.0	upper	../fonts/Verdana.ttf
2503319	WORD	wordpools/wasnorm_wordpool.txt	LTP134	ltpFR	5	13	-1	BEET	115	n/a	-1	1	1.0	1.0	upper	../fonts/Verdana.ttf
2507218	WORD	wordpools/wasnorm_wordpool.txt	LTP134	ltpFR	5	13	-1	PATIO	1025	n/a	-1	1	1.0	1.0	upper	../fonts/Verdana.ttf
2511425	WORD	wordpools/wasnorm_wordpool.txt	LTP134	ltpFR	5	13	-1	GUARD	667	n/a	-1	1	1.0	1.0	upper	../fonts/Verdana.ttf
2515407	WORD	wordpools/wasnorm_wordpool.txt	LTP134	ltpFR	5	13	-1	BELL	118	n/a	-1	1	1.0	1.0	upper	../fonts/Verdana.ttf
2519297	WORD	wordpools/wasnorm_wordpool.txt	LTP134	ltpFR	5	13	-1	CORD	379	n/a	-1	1	1.0	1.0	upper	../fonts/Verdana.ttf
2525096	REC_START	n/a	LTP134	ltpFR	5	13	n/a	n/a	n/a	n/a	n/a	n/a	n/a	n/a	n/a	n/a
2526981	REC_WORD	wordpools/wasnorm_wordpool.txt	LTP134	ltpFR	5	13	-1	CORD	379	n/a	-1	n/a	n/a	n/a	n/a	n/a
2528663	REC_WORD	wordpools/wasnorm_wordpool.txt	LTP134	ltpFR	5	13	-1	BELL	118	n/a	-1	n/a	n/a	n/a	n/a	n/a
2530239	REC_WORD	wordpools/wasnorm_wordpool.txt	LTP134	ltpFR	5	13	-1	PATIO	1025	n/a	-1	n/a	n/a	n/a	n/a	n/a
2532035	REC_WORD	wordpools/wasnorm_wordpool.txt	LTP134	ltpFR	5	13	-1	GUARD	667	n/a	-1	n/a	n/a	n/a	n/a	n/a
2535337	REC_WORD	wordpools/wasnorm_wordpool.txt	LTP134	ltpFR	5	13	-1	STADIUM	1364	n/a	-1	n/a	n/a	n/a	n/a	n/a
2536774	REC_WORD	wordpools/wasnorm_wordpool.txt	LTP134	ltpFR	5	13	-1	FIELD	562	n/a	-1	n/a	n/a	n/a	n/a	n/a
2538675	REC_WORD	wordpools/wasnorm_wordpool.txt	LTP134	ltpFR	5	13	-1	MOTOR	922	n/a	-1	n/a	n/a	n/a	n/a	n/a
2540565	REC_WORD	wordpools/wasnorm_wordpool.txt	LTP134	ltpFR	5	13	-1	CLOSET	326	n/a	-1	n/a	n/a	n/a	n/a	n/a
2542317	REC_WORD	wordpools/wasnorm_wordpool.txt	LTP134	ltpFR	5	13	n/a	GEM	629	n/a	n/a	n/a	n/a	n/a	n/a	n/a
2544028	REC_WORD	wordpools/wasnorm_wordpool.txt	LTP134	ltpFR	5	13	-1	BLACKBOARD	133	n/a	-1	n/a	n/a	n/a	n/a	n/a
2545739	REC_WORD	wordpools/wasnorm_wordpool.txt	LTP134	ltpFR	5	13	-1	BULLETIN	195	n/a	-1	n/a	n/a	n/a	n/a	n/a
2549430	REC_WORD	wordpools/wasnorm_wordpool.txt	LTP134	ltpFR	5	13	-1	KNAPSACK	783	n/a	-1	n/a	n/a	n/a	n/a	n/a
2551371	REC_WORD	wordpools/wasnorm_wordpool.txt	LTP134	ltpFR	5	13	-1	WIDOW	1608	n/a	-1	n/a	n/a	n/a	n/a	n/a
2553486	REC_WORD	wordpools/wasnorm_wordpool.txt	LTP134	ltpFR	5	13	-1	DESIGNER	451	n/a	-1	n/a	n/a	n/a	n/a	n/a
2555522	REC_WORD	wordpools/wasnorm_wordpool.txt	LTP134	ltpFR	5	13	-1	BEET	115	n/a	-1	n/a	n/a	n/a	n/a	n/a
2623178	WORD	wordpools/wasnorm_wordpool.txt	LTP134	ltpFR	5	14	1	VAMPIRE	1547	n/a	1	0	0.5869140625	0.422607421875	upper	../fonts/amplitud.ttf
2627283	WORD	wordpools/wasnorm_wordpool.txt	LTP134	ltpFR	5	14	1	CHARCOAL	281	n/a	0	0	0.5869140625	0.422607421875	upper	../fonts/amplitud.ttf
2631490	WORD	wordpools/wasnorm_wordpool.txt	LTP134	ltpFR	5	14	0	HONEY	713	n/a	0	1	0.412841796875	0.57763671875	lower	../fonts/zerothre.ttf
2635697	WORD	wordpools/wasnorm_wordpool.txt	LTP134	ltpFR	5	14	0	SCAPEGOAT	1244	n/a	1	1	0.412841796875	0.57763671875	lower	../fonts/zerothre.ttf
2639821	WORD	wordpools/wasnorm_wordpool.txt	LTP134	ltpFR	5	14	0	PRAIRIE	1118	n/a	1	1	0.412841796875	0.57763671875	lower	../fonts/zerothre.ttf
2643694	WORD	wordpools/wasnorm_wordpool.txt	LTP134	ltpFR	5	14	0	BATTERY	101	n/a	1	1	0.412841796875	0.57763671875	lower	../fonts/zerothre.ttf
2647734	WORD	wordpools/wasnorm_wordpool.txt	LTP134	ltpFR	5	14	1	DRIVEWAY	500	n/a	0	0	0.5869140625	0.422607421875	upper	../fonts/amplitud.ttf
2651633	WORD	wordpools/wasnorm_wordpool.txt	LTP134	ltpFR	5	14	1	ANTEATER	26	n/a	1	0	0.5869140625	0.422607421875	upper	../fonts/amplitud.ttf
2655557	WORD	wordpools/wasnorm_wordpool.txt	LTP134	ltpFR	5	14	0	BEAR	106	n/a	1	1	0.412841796875	0.57763671875	lower	../fonts/zerothre.ttf
2659614	WORD	wordpools/wasnorm_wordpool.txt	LTP134	ltpFR	5	14	0	STY	1397	n/a	1	1	0.412841796875	0.57763671875	lower	../fonts/zerothre.ttf
2663529	WORD	wordpools/wasnorm_wordpool.txt	LTP134	ltpFR	5	14	0	FIREPLACE	570	n/a	1	1	0.412841796875	0.57763671875	lower	../fonts/zerothre.ttf
2667652	WORD	wordpools/wasnorm_wordpool.txt	LTP134	ltpFR	5	14	0	HATCHET	691	n/a	1	1	0.412841796875	0.57763671875	lower	../fonts/zerothre.ttf
2671668	WORD	wordpools/wasnorm_wordpool.txt	LTP134	ltpFR	5	14	1	SHERIFF	1284	n/a	1	0	0.5869140625	0.422607421875	upper	../fonts/amplitud.ttf
2675683	WORD	wordpools/wasnorm_wordpool.txt	LTP134	ltpFR	5	14	1	WASP	1593	n/a	1	0	0.5869140625	0.422607421875	upper	../fonts/amplitud.ttf
2679740	WORD	wordpools/wasnorm_wordpool.txt	LTP134	ltpFR	5	14	1	BOULDER	155	n/a	0	0	0.5869140625	0.422607421875	upper	../fonts/amplitud.ttf
2683730	WORD	wordpools/wasnorm_wordpool.txt	LTP134	ltpFR	5	14	1	MARBLE	867	n/a	0	0	0.5869140625	0.422607421875	upper	../fonts/amplitud.ttf
2689745	REC_START	n/a	LTP134	ltpFR	5	14	n/a	n/a	n/a	n/a	n/a	n/a	n/a	n/a	n/a	n/a
2691890	REC_WORD	wordpools/wasnorm_wordpool.txt	LTP134	ltpFR	5	14	1	BOULDER	155	n/a	0	n/a	n/a	n/a	n/a	n/a
2693122	REC_WORD	wordpools/wasnorm_wordpool.txt	LTP134	ltpFR	5	14	1	MARBLE	867	n/a	0	n/a	n/a	n/a	n/a	n/a
2694758	REC_WORD	wordpools/wasnorm_wordpool.txt	LTP134	ltpFR	5	14	1	SHERIFF	1284	n/a	1	n/a	n/a	n/a	n/a	n/a
2696649	REC_WORD	wordpools/wasnorm_wordpool.txt	LTP134	ltpFR	5	14	1	WASP	1593	n/a	1	n/a	n/a	n/a	n/a	n/a
2698430	REC_WORD	wordpools/wasnorm_wordpool.txt	LTP134	ltpFR	5	14	0	HATCHET	691	n/a	1	n/a	n/a	n/a	n/a	n/a
2700136	REC_WORD	wordpools/wasnorm_wordpool.txt	LTP134	ltpFR	5	14	0	FIREPLACE	570	n/a	1	n/a	n/a	n/a	n/a	n/a
2702246	REC_WORD	wordpools/wasnorm_wordpool.txt	LTP134	ltpFR	5	14	0	STY	1397	n/a	1	n/a	n/a	n/a	n/a	n/a
2704740	REC_WORD	wordpools/wasnorm_wordpool.txt	LTP134	ltpFR	5	14	1	DRIVEWAY	500	n/a	0	n/a	n/a	n/a	n/a	n/a
2707090	REC_WORD	wordpools/wasnorm_wordpool.txt	LTP134	ltpFR	5	14	1	ANTEATER	26	n/a	1	n/a	n/a	n/a	n/a	n/a
2709275	REC_WORD	wordpools/wasnorm_wordpool.txt	LTP134	ltpFR	5	14	0	BEAR	106	n/a	1	n/a	n/a	n/a	n/a	n/a
2720445	REC_WORD	wordpools/wasnorm_wordpool.txt	LTP134	ltpFR	5	14	1	VAMPIRE	1547	n/a	1	n/a	n/a	n/a	n/a	n/a
2723723	REC_WORD	wordpools/wasnorm_wordpool.txt	LTP134	ltpFR	5	14	n/a	COAL	332	n/a	n/a	n/a	n/a	n/a	n/a	n/a
2726241	REC_WORD	wordpools/wasnorm_wordpool.txt	LTP134	ltpFR	5	14	0	SCAPEGOAT	1244	n/a	1	n/a	n/a	n/a	n/a	n/a
2728447	REC_WORD	wordpools/wasnorm_wordpool.txt	LTP134	ltpFR	5	14	0	HONEY	713	n/a	0	n/a	n/a	n/a	n/a	n/a
2753186	REC_WORD	wordpools/wasnorm_wordpool.txt	LTP134	ltpFR	5	14	1	MARBLE	867	n/a	0	n/a	n/a	n/a	n/a	n/a
2769566	WORD	wordpools/wasnorm_wordpool.txt	LTP134	ltpFR	5	15	-1	RADISH	1158	n/a	-1	1	1.0	1.0	upper	../fonts/Verdana.ttf
2773481	WORD	wordpools/wasnorm_wordpool.txt	LTP134	ltpFR	5	15	-1	OLIVE	975	n/a	-1	1	1.0	1.0	upper	../fonts/Verdana.ttf
2777572	WORD	wordpools/wasnorm_wordpool.txt	LTP134	ltpFR	5	15	-1	CATCHER	258	n/a	-1	1	1.0	1.0	upper	../fonts/Verdana.ttf
2781545	WORD	wordpools/wasnorm_wordpool.txt	LTP134	ltpFR	5	15	-1	PUCK	1138	n/a	-1	1	1.0	1.0	upper	../fonts/Verdana.ttf
2785677	WORD	wordpools/wasnorm_wordpool.txt	LTP134	ltpFR	5	15	-1	SHAMPOO	1274	n/a	-1	1	1.0	1.0	upper	../fonts/Verdana.ttf
2789692	WORD	wordpools/wasnorm_wordpool.txt	LTP134	ltpFR	5	15	-1	POPCORN	1104	n/a	-1	1	1.0	1.0	upper	../fonts/Verdana.ttf
2793549	WORD	wordpools/wasnorm_wordpool.txt	LTP134	ltpFR	5	15	-1	FILM	565	n/a	-1	1	1.0	1.0	upper	../fonts/Verdana.ttf
2797464	WORD	wordpools/wasnorm_wordpool.txt	LTP134	ltpFR	5	15	-1	CABBAGE	210	n/a	-1	1	1.0	1.0	upper	../fonts/Verdana.ttf
2801521	WORD	wordpools/wasnorm_wordpool.txt	LTP134	ltpFR	5	15	-1	CHEST	295	n/a	-1	1	1.0	1.0	upper	../fonts/Verdana.ttf
2805495	WORD	wordpools/wasnorm_wordpool.txt	LTP134	ltpFR	5	15	-1	MARS	873	n/a	-1	1	1.0	1.0	upper	../fonts/Verdana.ttf
2809568	WORD	wordpools/wasnorm_wordpool.txt	LTP134	ltpFR	5	15	-1	WAVE	1596	n/a	-1	1	1.0	1.0	upper	../fonts/Verdana.ttf
2813734	WORD	wordpools/wasnorm_wordpool.txt	LTP134	ltpFR	5	15	-1	DAM	436	n/a	-1	1	1.0	1.0	upper	../fonts/Verdana.ttf
2817816	WORD	wordpools/wasnorm_wordpool.txt	LTP134	ltpFR	5	15	-1	BOX	159	n/a	-1	1	1.0	1.0	upper	../fonts/Verdana.ttf
2821856	WORD	wordpools/wasnorm_wordpool.txt	LTP134	ltpFR	5	15	-1	CORN	381	n/a	-1	1	1.0	1.0	upper	../fonts/Verdana.ttf
2825696	WORD	wordpools/wasnorm_wordpool.txt	LTP134	ltpFR	5	15	-1	TERRITORY	1452	n/a	-1	1	1.0	1.0	upper	../fonts/Verdana.ttf
2829586	WORD	wordpools/wasnorm_wordpool.txt	LTP134	ltpFR	5	15	-1	ENGINE	535	n/a	-1	1	1.0	1.0	upper	../fonts/Verdana.ttf
2835277	REC_START	n/a	LTP134	ltpFR	5	15	n/a	n/a	n/a	n/a	n/a	n/a	n/a	n/a	n/a	n/a
2837542	REC_WORD	wordpools/wasnorm_wordpool.txt	LTP134	ltpFR	5	15	-1	ENGINE	535	n/a	-1	n/a	n/a	n/a	n/a	n/a
2839417	REC_WORD	wordpools/wasnorm_wordpool.txt	LTP134	ltpFR	5	15	-1	CORN	381	n/a	-1	n/a	n/a	n/a	n/a	n/a
2841109	REC_WORD	wordpools/wasnorm_wordpool.txt	LTP134	ltpFR	5	15	-1	BOX	159	n/a	-1	n/a	n/a	n/a	n/a	n/a
2842660	REC_WORD	wordpools/wasnorm_wordpool.txt	LTP134	ltpFR	5	15	-1	MARS	873	n/a	-1	n/a	n/a	n/a	n/a	n/a
2845009	REC_WORD	wordpools/wasnorm_wordpool.txt	LTP134	ltpFR	5	15	n/a	FLOOD	-1	n/a	n/a	n/a	n/a	n/a	n/a	n/a
2846641	REC_WORD	wordpools/wasnorm_wordpool.txt	LTP134	ltpFR	5	15	-1	WAVE	1596	n/a	-1	n/a	n/a	n/a	n/a	n/a
2848557	REC_WORD	wordpools/wasnorm_wordpool.txt	LTP134	ltpFR	5	15	-1	DAM	436	n/a	-1	n/a	n/a	n/a	n/a	n/a
2852124	REC_WORD	wordpools/wasnorm_wordpool.txt	LTP134	ltpFR	5	15	-1	CATCHER	258	n/a	-1	n/a	n/a	n/a	n/a	n/a
2854628	REC_WORD	wordpools/wasnorm_wordpool.txt	LTP134	ltpFR	5	15	-1	RADISH	1158	n/a	-1	n/a	n/a	n/a	n/a	n/a
2857676	REC_WORD	wordpools/wasnorm_wordpool.txt	LTP134	ltpFR	5	15	-1	SHAMPOO	1274	n/a	-1	n/a	n/a	n/a	n/a	n/a
2860125	REC_WORD	wordpools/wasnorm_wordpool.txt	LTP134	ltpFR	5	15	-1	PUCK	1138	n/a	-1	n/a	n/a	n/a	n/a	n/a
2864964	REC_WORD	wordpools/wasnorm_wordpool.txt	LTP134	ltpFR	5	15	-1	CABBAGE	210	n/a	-1	n/a	n/a	n/a	n/a	n/a
2868761	REC_WORD	wordpools/wasnorm_wordpool.txt	LTP134	ltpFR	5	15	n/a	TELEVISION	1447	n/a	n/a	n/a	n/a	n/a	n/a	n/a
2886371	REC_WORD	wordpools/wasnorm_wordpool.txt	LTP134	ltpFR	5	15	-1	POPCORN	1104	n/a	-1	n/a	n/a	n/a	n/a	n/a
2937191	WORD	wordpools/wasnorm_wordpool.txt	LTP134	ltpFR	5	16	1	PIMPLE	1071	n/a	0	0	0.5869140625	0.422607421875	upper	../fonts/amplitud.ttf
2941330	WORD	wordpools/wasnorm_wordpool.txt	LTP134	ltpFR	5	16	1	BISON	131	n/a	0	0	0.5869140625	0.422607421875	upper	../fonts/amplitud.ttf
2945378	WORD	wordpools/wasnorm_wordpool.txt	LTP134	ltpFR	5	16	1	FUNGUS	614	n/a	1	0	0.5869140625	0.422607421875	upper	../fonts/amplitud.ttf
2949277	WORD	wordpools/wasnorm_wordpool.txt	LTP134	ltpFR	5	16	1	BOTTLE	153	n/a	0	0	0.5869140625	0.422607421875	upper	../fonts/amplitud.ttf
2953168	WORD	wordpools/wasnorm_wordpool.txt	LTP134	ltpFR	5	16	1	GRADUATE	653	n/a	0	0	0.5869140625	0.422607421875	upper	../fonts/amplitud.ttf
2957150	WORD	wordpools/wasnorm_wordpool.txt	LTP134	ltpFR	5	16	1	MIRROR	899	n/a	0	0	0.5869140625	0.422607421875	upper	../fonts/amplitud.ttf
2961207	WORD	wordpools/wasnorm_wordpool.txt	LTP134	ltpFR	5	16	1	COLESLAW	344	n/a	0	0	0.5869140625	0.422607421875	upper	../fonts/amplitud.ttf
2965047	WORD	wordpools/wasnorm_wordpool.txt	LTP134	ltpFR	5	16	1	PICNIC	1060	n/a	0	0	0.5869140625	0.422607421875	upper	../fonts/amplitud.ttf
2969029	WORD	wordpools/wasnorm_wordpool.txt	LTP134	ltpFR	5	16	1	MUSHROOM	934	n/a	1	0	0.5869140625	0.422607421875	upper	../fonts/amplitud.ttf
2973170	WORD	wordpools/wasnorm_wordpool.txt	LTP134	ltpFR	5	16	1	PARIS	1014	n/a	0	0	0.5869140625	0.422607421875	upper	../fonts/amplitud.ttf
2977309	WORD	wordpools/wasnorm_wordpool.txt	LTP134	ltpFR	5	16	1	ROBE	1198	n/a	0	0	0.5869140625	0.422607421875	upper	../fonts/amplitud.ttf
2981466	WORD	wordpools/wasnorm_wordpool.txt	LTP134	ltpFR	5	16	1	APRON	35	n/a	0	0	0.5869140625	0.422607421875	upper	../fonts/amplitud.ttf
2985439	WORD	wordpools/wasnorm_wordpool.txt	LTP134	ltpFR	5	16	1	TEACHER	1440	n/a	1	0	0.5869140625	0.422607421875	upper	../fonts/amplitud.ttf
2989454	WORD	wordpools/wasnorm_wordpool.txt	LTP134	ltpFR	5	16	1	INSTRUCTOR	741	n/a	1	0	0.5869140625	0.422607421875	upper	../fonts/amplitud.ttf
2993370	WORD	wordpools/wasnorm_wordpool.txt	LTP134	ltpFR	5	16	1	PUB	1135	n/a	0	0	0.5869140625	0.422607421875	upper	../fonts/amplitud.ttf
2997535	WORD	wordpools/wasnorm_wordpool.txt	LTP134	ltpFR	5	16	1	CHIEF	298	n/a	0	0	0.5869140625	0.422607421875	upper	../fonts/amplitud.ttf
3003250	REC_START	n/a	LTP134	ltpFR	5	16	n/a	n/a	n/a	n/a	n/a	n/a	n/a	n/a	n/a	n/a
3005390	REC_WORD	wordpools/wasnorm_wordpool.txt	LTP134	ltpFR	5	16	1	CHIEF	298	n/a	0	n/a	n/a	n/a	n/a	n/a
3007775	REC_WORD	wordpools/wasnorm_wordpool.txt	LTP134	ltpFR	5	16	1	PUB	1135	n/a	0	n/a	n/a	n/a	n/a	n/a
3010099	REC_WORD	wordpools/wasnorm_wordpool.txt	LTP134	ltpFR	5	16	1	PARIS	1014	n/a	0	n/a	n/a	n/a	n/a	n/a
3012060	REC_WORD	wordpools/wasnorm_wordpool.txt	LTP134	ltpFR	5	16	1	PICNIC	1060	n/a	0	n/a	n/a	n/a	n/a	n/a
3014075	REC_WORD	wordpools/wasnorm_wordpool.txt	LTP134	ltpFR	5	16	1	TEACHER	1440	n/a	1	n/a	n/a	n/a	n/a	n/a
3015771	REC_WORD	wordpools/wasnorm_wordpool.txt	LTP134	ltpFR	5	16	1	INSTRUCTOR	741	n/a	1	n/a	n/a	n/a	n/a	n/a
3020915	REC_WORD	wordpools/wasnorm_wordpool.txt	LTP134	ltpFR	5	16	1	BISON	131	n/a	0	n/a	n/a	n/a	n/a	n/a
3022795	REC_WORD	wordpools/wasnorm_wordpool.txt	LTP134	ltpFR	5	16	1	PIMPLE	1071	n/a	0	n/a	n/a	n/a	n/a	n/a
3024965	REC_WORD	wordpools/wasnorm_wordpool.txt	LTP134	ltpFR	5	16	1	FUNGUS	614	n/a	1	n/a	n/a	n/a	n/a	n/a
3027160	REC_WORD	wordpools/wasnorm_wordpool.txt	LTP134	ltpFR	5	16	1	BOTTLE	153	n/a	0	n/a	n/a	n/a	n/a	n/a
3030158	REC_WORD	wordpools/wasnorm_wordpool.txt	LTP134	ltpFR	5	16	n/a	SCIENTIST	1249	n/a	n/a	n/a	n/a	n/a	n/a	n/a
3033027	REC_WORD	wordpools/wasnorm_wordpool.txt	LTP134	ltpFR	5	16	1	MIRROR	899	n/a	0	n/a	n/a	n/a	n/a	n/a
3036659	REC_WORD	wordpools/wasnorm_wordpool.txt	LTP134	ltpFR	5	16	1	MUSHROOM	934	n/a	1	n/a	n/a	n/a	n/a	n/a
3039862	REC_WORD	wordpools/wasnorm_wordpool.txt	LTP134	ltpFR	5	16	1	PICNIC	1060	n/a	0	n/a	n/a	n/a	n/a	n/a
3099966	REC_START	n/a	LTP134	ltpFR	5	1	n/a	n/a	n/a	n/a	n/a	n/a	n/a	n/a	n/a	n/a
3099999	RECOG_TARGET	n/a	LTP134	ltpFR	5	1	0	LAGOON	795	5	1	n/a	n/a	n/a	n/a	n/a
3101811	RECOG_RESP	n/a	LTP134	ltpFR	5	1	0	LAGOON	795	n/a	1	n/a	n/a	n/a	n/a	n/a
3102996	RECOG_CONF	n/a	LTP134	ltpFR	5	1	0	LAGOON	795	5	1	n/a	n/a	n/a	n/a	n/a
3104872	RECOG_TARGET	n/a	LTP134	ltpFR	5	1	0	PATROL	1027	2	1	n/a	n/a	n/a	n/a	n/a
3105832	RECOG_RESP	n/a	LTP134	ltpFR	5	1	0	PATROL	1027	n/a	1	n/a	n/a	n/a	n/a	n/a
3107292	RECOG_CONF	n/a	LTP134	ltpFR	5	1	0	PATROL	1027	2	1	n/a	n/a	n/a	n/a	n/a
3108904	RECOG_TARGET	n/a	LTP134	ltpFR	5	1	-1	SHAMPOO	1274	4	-1	n/a	n/a	n/a	n/a	n/a
3109805	RECOG_RESP	n/a	LTP134	ltpFR	5	1	-1	SHAMPOO	1274	n/a	-1	n/a	n/a	n/a	n/a	n/a
3110931	RECOG_CONF	n/a	LTP134	ltpFR	5	1	-1	SHAMPOO	1274	4	-1	n/a	n/a	n/a	n/a	n/a
3112611	RECOG_TARGET	n/a	LTP134	ltpFR	5	1	0	PHOTO	1055	4	0	n/a	n/a	n/a	n/a	n/a
3113460	RECOG_RESP	n/a	LTP134	ltpFR	5	1	0	PHOTO	1055	n/a	0	n/a	n/a	n/a	n/a	n/a
3114530	RECOG_CONF	n/a	LTP134	ltpFR	5	1	0	PHOTO	1055	4	0	n/a	n/a	n/a	n/a	n/a
3116284	RECOG_TARGET	n/a	LTP134	ltpFR	5	1	0	WARRIOR	1589	3	1	n/a	n/a	n/a	n/a	n/a
3117282	RECOG_RESP	n/a	LTP134	ltpFR	5	1	0	WARRIOR	1589	n/a	1	n/a	n/a	n/a	n/a	n/a
3118387	RECOG_CONF	n/a	LTP134	ltpFR	5	1	0	WARRIOR	1589	3	1	n/a	n/a	n/a	n/a	n/a
3120134	RECOG_TARGET	n/a	LTP134	ltpFR	5	1	-1	FIELD	562	3	-1	n/a	n/a	n/a	n/a	n/a
3121484	RECOG_RESP	n/a	LTP134	ltpFR	5	1	-1	FIELD	562	n/a	-1	n/a	n/a	n/a	n/a	n/a
3122578	RECOG_CONF	n/a	LTP134	ltpFR	5	1	-1	FIELD	562	3	-1	n/a	n/a	n/a	n/a	n/a
3124248	RECOG_TARGET	n/a	LTP134	ltpFR	5	1	0	POCKETBOOK	1094	3	0	n/a	n/a	n/a	n/a	n/a
3124957	RECOG_RESP	n/a	LTP134	ltpFR	5	1	0	POCKETBOOK	1094	n/a	0	n/a	n/a	n/a	n/a	n/a
3125953	RECOG_CONF	n/a	LTP134	ltpFR	5	1	0	POCKETBOOK	1094	3	0	n/a	n/a	n/a	n/a	n/a
3127522	RECOG_TARGET	n/a	LTP134	ltpFR	5	1	0	SUBWAY	1400	3	1	n/a	n/a	n/a	n/a	n/a
3128442	RECOG_RESP	n/a	LTP134	ltpFR	5	1	0	SUBWAY	1400	n/a	1	n/a	n/a	n/a	n/a	n/a
3129682	RECOG_CONF	n/a	LTP134	ltpFR	5	1	0	SUBWAY	1400	3	1	n/a	n/a	n/a	n/a	n/a
3131213	RECOG_TARGET	n/a	LTP134	ltpFR	5	1	0	TRUMPET	1513	3	1	n/a	n/a	n/a	n/a	n/a
3131873	RECOG_RESP	n/a	LTP134	ltpFR	5	1	0	TRUMPET	1513	n/a	1	n/a	n/a	n/a	n/a	n/a
3132847	RECOG_CONF	n/a	LTP134	ltpFR	5	1	0	TRUMPET	1513	3	1	n/a	n/a	n/a	n/a	n/a
3134436	RECOG_LURE	n/a	LTP134	ltpFR	5	1	n/a	STRANGER	1389	1	n/a	n/a	n/a	n/a	n/a	n/a
3135503	RECOG_RESP	n/a	LTP134	ltpFR	5	1	n/a	STRANGER	1389	n/a	n/a	n/a	n/a	n/a	n/a	n/a
3136513	RECOG_CONF	n/a	LTP134	ltpFR	5	1	n/a	STRANGER	1389	1	n/a	n/a	n/a	n/a	n/a	n/a
3138202	RECOG_TARGET	n/a	LTP134	ltpFR	5	1	-1	TURKEY	1520	2	-1	n/a	n/a	n/a	n/a	n/a
3139098	RECOG_RESP	n/a	LTP134	ltpFR	5	1	-1	TURKEY	1520	n/a	-1	n/a	n/a	n/a	n/a	n/a
3140292	RECOG_CONF	n/a	LTP134	ltpFR	5	1	-1	TURKEY	1520	2	-1	n/a	n/a	n/a	n/a	n/a
3141975	RECOG_TARGET	n/a	LTP134	ltpFR	5	1	1	KITE	779	3	0	n/a	n/a	n/a	n/a	n/a
3142764	RECOG_RESP	n/a	LTP134	ltpFR	5	1	1	KITE	779	n/a	0	n/a	n/a	n/a	n/a	n/a
3143919	RECOG_CONF	n/a	LTP134	ltpFR	5	1	1	KITE	779	3	0	n/a	n/a	n/a	n/a	n/a
3145491	RECOG_LURE	n/a	LTP134	ltpFR	5	1	n/a	CIGAR	308	3	n/a	n/a	n/a	n/a	n/a	n/a
3146402	RECOG_RESP	n/a	LTP134	ltpFR	5	1	n/a	CIGAR	308	n/a	n/a	n/a	n/a	n/a	n/a	n/a
3147471	RECOG_CONF	n/a	LTP134	ltpFR	5	1	n/a	CIGAR	308	3	n/a	n/a	n/a	n/a	n/a	n/a
3149049	RECOG_LURE	n/a	LTP134	ltpFR	5	1	n/a	BANKER	84	1	n/a	n/a	n/a	n/a	n/a	n/a
3150391	RECOG_RESP	n/a	LTP134	ltpFR	5	1	n/a	BANKER	84	n/a	n/a	n/a	n/a	n/a	n/a	n/a
3151464	RECOG_CONF	n/a	LTP134	ltpFR	5	1	n/a	BANKER	84	1	n/a	n/a	n/a	n/a	n/a	n/a
3153263	RECOG_TARGET	n/a	LTP134	ltpFR	5	1	0	BAND	78	3	1	n/a	n/a	n/a	n/a	n/a
3154242	RECOG_RESP	n/a	LTP134	ltpFR	5	1	0	BAND	78	n/a	1	n/a	n/a	n/a	n/a	n/a
3155368	RECOG_CONF	n/a	LTP134	ltpFR	5	1	0	BAND	78	3	1	n/a	n/a	n/a	n/a	n/a
3157021	RECOG_TARGET	n/a	LTP134	ltpFR	5	1	1	TEACHER	1440	4	1	n/a	n/a	n/a	n/a	n/a
3157906	RECOG_RESP	n/a	LTP134	ltpFR	5	1	1	TEACHER	1440	n/a	1	n/a	n/a	n/a	n/a	n/a
3158936	RECOG_CONF	n/a	LTP134	ltpFR	5	1	1	TEACHER	1440	4	1	n/a	n/a	n/a	n/a	n/a
3160718	RECOG_TARGET	n/a	LTP134	ltpFR	5	1	1	CLOCK	325	3	0	n/a	n/a	n/a	n/a	n/a
3161988	RECOG_RESP	n/a	LTP134	ltpFR	5	1	1	CLOCK	325	n/a	0	n/a	n/a	n/a	n/a	n/a
3163031	RECOG_CONF	n/a	LTP134	ltpFR	5	1	1	CLOCK	325	3	0	n/a	n/a	n/a	n/a	n/a
3164784	RECOG_TARGET	n/a	LTP134	ltpFR	5	1	0	FRAME	600	2	0	n/a	n/a	n/a	n/a	n/a
3166191	RECOG_RESP	n/a	LTP134	ltpFR	5	1	0	FRAME	600	n/a	0	n/a	n/a	n/a	n/a	n/a
3167341	RECOG_CONF	n/a	LTP134	ltpFR	5	1	0	FRAME	600	2	0	n/a	n/a	n/a	n/a	n/a
3169025	RECOG_LURE	n/a	LTP134	ltpFR	5	1	n/a	TONGUE	1479	2	n/a	n/a	n/a	n/a	n/a	n/a
3170163	RECOG_RESP	n/a	LTP134	ltpFR	5	1	n/a	TONGUE	1479	n/a	n/a	n/a	n/a	n/a	n/a	n/a
3171298	RECOG_CONF	n/a	LTP134	ltpFR	5	1	n/a	TONGUE	1479	2	n/a	n/a	n/a	n/a	n/a	n/a
3172981	RECOG_LURE	n/a	LTP134	ltpFR	5	1	n/a	BUCKLE	185	2	n/a	n/a	n/a	n/a	n/a	n/a
3173998	RECOG_RESP	n/a	LTP134	ltpFR	5	1	n/a	BUCKLE	185	n/a	n/a	n/a	n/a	n/a	n/a	n/a
3174961	RECOG_CONF	n/a	LTP134	ltpFR	5	1	n/a	BUCKLE	185	2	n/a	n/a	n/a	n/a	n/a	n/a
3180269	REC_START	n/a	LTP134	ltpFR	5	2	n/a	n/a	n/a	n/a	n/a	n/a	n/a	n/a	n/a	n/a
3180303	RECOG_TARGET	n/a	LTP134	ltpFR	5	2	0	ADULT	8	1	1	n/a	n/a	n/a	n/a	n/a
3181316	RECOG_RESP	n/a	LTP134	ltpFR	5	2	0	ADULT	8	n/a	1	n/a	n/a	n/a	n/a	n/a
3182369	RECOG_CONF	n/a	LTP134	ltpFR	5	2	0	ADULT	8	1	1	n/a	n/a	n/a	n/a	n/a
3183960	RECOG_TARGET	n/a	LTP134	ltpFR	5	2	1	LINEN	825	1	0	n/a	n/a	n/a	n/a	n/a
3184847	RECOG_RESP	n/a	LTP134	ltpFR	5	2	1	LINEN	825	n/a	0	n/a	n/a	n/a	n/a	n/a
3185766	RECOG_CONF	n/a	LTP134	ltpFR	5	2	1	LINEN	825	1	0	n/a	n/a	n/a	n/a	n/a
3187384	RECOG_TARGET	n/a	LTP134	ltpFR	5	2	1	JEEP	753	3	0	n/a	n/a	n/a	n/a	n/a
3188188	RECOG_RESP	n/a	LTP134	ltpFR	5	2	1	JEEP	753	n/a	0	n/a	n/a	n/a	n/a	n/a
3189227	RECOG_CONF	n/a	LTP134	ltpFR	5	2	1	JEEP	753	3	0	n/a	n/a	n/a	n/a	n/a
3190799	RECOG_TARGET	n/a	LTP134	ltpFR	5	2	-1	RAIL	1161	4	-1	n/a	n/a	n/a	n/a	n/a
3191548	RECOG_RESP	n/a	LTP134	ltpFR	5	2	-1	RAIL	1161	n/a	-1	n/a	n/a	n/a	n/a	n/a
3192316	RECOG_CONF	n/a	LTP134	ltpFR	5	2	-1	RAIL	1161	4	-1	n/a	n/a	n/a	n/a	n/a
3194016	RECOG_LURE	n/a	LTP134	ltpFR	5	2	n/a	EARTH	515	2	n/a	n/a	n/a	n/a	n/a	n/a
3194831	RECOG_RESP	n/a	LTP134	ltpFR	5	2	n/a	EARTH	515	n/a	n/a	n/a	n/a	n/a	n/a	n/a
3195819	RECOG_CONF	n/a	LTP134	ltpFR	5	2	n/a	EARTH	515	2	n/a	n/a	n/a	n/a	n/a	n/a
3197464	RECOG_TARGET	n/a	LTP134	ltpFR	5	2	0	ANTLER	29	3	1	n/a	n/a	n/a	n/a	n/a
3198552	RECOG_RESP	n/a	LTP134	ltpFR	5	2	0	ANTLER	29	n/a	1	n/a	n/a	n/a	n/a	n/a
3199648	RECOG_CONF	n/a	LTP134	ltpFR	5	2	0	ANTLER	29	3	1	n/a	n/a	n/a	n/a	n/a
3201329	RECOG_LURE	n/a	LTP134	ltpFR	5	2	n/a	COACH	331	2	n/a	n/a	n/a	n/a	n/a	n/a
3202353	RECOG_RESP	n/a	LTP134	ltpFR	5	2	n/a	COACH	331	n/a	n/a	n/a	n/a	n/a	n/a	n/a
3203372	RECOG_CONF	n/a	LTP134	ltpFR	5	2	n/a	COACH	331	2	n/a	n/a	n/a	n/a	n/a	n/a
3205004	RECOG_TARGET	n/a	LTP134	ltpFR	5	2	0	OCTOPUS	971	3	1	n/a	n/a	n/a	n/a	n/a
3205808	RECOG_RESP	n/a	LTP134	ltpFR	5	2	0	OCTOPUS	971	n/a	1	n/a	n/a	n/a	n/a	n/a
3206747	RECOG_CONF	n/a	LTP134	ltpFR	5	2	0	OCTOPUS	971	3	1	n/a	n/a	n/a	n/a	n/a
3208535	RECOG_TARGET	n/a	LTP134	ltpFR	5	2	-1	PUCK	1138	4	-1	n/a	n/a	n/a	n/a	n/a
3209419	RECOG_RESP	n/a	LTP134	ltpFR	5	2	-1	PUCK	1138	n/a	-1	n/a	n/a	n/a	n/a	n/a
3210314	RECOG_CONF	n/a	LTP134	ltpFR	5	2	-1	PUCK	1138	4	-1	n/a	n/a	n/a	n/a	n/a
3211959	RECOG_LURE	n/a	LTP134	ltpFR	5	2	n/a	WITNESS	1618	2	n/a	n/a	n/a	n/a	n/a	n/a
3212992	RECOG_RESP	n/a	LTP134	ltpFR	5	2	n/a	WITNESS	1618	n/a	n/a	n/a	n/a	n/a	n/a	n/a
3213932	RECOG_CONF	n/a	LTP134	ltpFR	5	2	n/a	WITNESS	1618	2	n/a	n/a	n/a	n/a	n/a	n/a
3215591	RECOG_TARGET	n/a	LTP134	ltpFR	5	2	0	HEN	703	2	1	n/a	n/a	n/a	n/a	n/a
3216774	RECOG_RESP	n/a	LTP134	ltpFR	5	2	0	HEN	703	n/a	1	n/a	n/a	n/a	n/a	n/a
3217878	RECOG_CONF	n/a	LTP134	ltpFR	5	2	0	HEN	703	2	1	n/a	n/a	n/a	n/a	n/a
3219448	RECOG_TARGET	n/a	LTP134	ltpFR	5	2	1	BOULDER	155	3	0	n/a	n/a	n/a	n/a	n/a
3220286	RECOG_RESP	n/a	LTP134	ltpFR	5	2	1	BOULDER	155	n/a	0	n/a	n/a	n/a	n/a	n/a
3221244	RECOG_CONF	n/a	LTP134	ltpFR	5	2	1	BOULDER	155	3	0	n/a	n/a	n/a	n/a	n/a
3222838	RECOG_TARGET	n/a	LTP134	ltpFR	5	2	0	MINER	896	3	1	n/a	n/a	n/a	n/a	n/a
3223619	RECOG_RESP	n/a	LTP134	ltpFR	5	2	0	MINER	896	n/a	1	n/a	n/a	n/a	n/a	n/a
3224495	RECOG_CONF	n/a	LTP134	ltpFR	5	2	0	MINER	896	3	1	n/a	n/a	n/a	n/a	n/a
3226038	RECOG_TARGET	n/a	LTP134	ltpFR	5	2	0	NOTE	958	2	0	n/a	n/a	n/a	n/a	n/a
3226938	RECOG_RESP	n/a	LTP134	ltpFR	5	2	0	NOTE	958	n/a	0	n/a	n/a	n/a	n/a	n/a
3228006	RECOG_CONF	n/a	LTP134	ltpFR	5	2	0	NOTE	958	2	0	n/a	n/a	n/a	n/a	n/a
3229586	RECOG_TARGET	n/a	LTP134	ltpFR	5	2	0	TOAST	1471	2	0	n/a	n/a	n/a	n/a	n/a
3230406	RECOG_RESP	n/a	LTP134	ltpFR	5	2	0	TOAST	1471	n/a	0	n/a	n/a	n/a	n/a	n/a
3231471	RECOG_CONF	n/a	LTP134	ltpFR	5	2	0	TOAST	1471	2	0	n/a	n/a	n/a	n/a	n/a
3233060	RECOG_TARGET	n/a	LTP134	ltpFR	5	2	-1	LEVER	815	4	-1	n/a	n/a	n/a	n/a	n/a
3234075	RECOG_RESP	n/a	LTP134	ltpFR	5	2	-1	LEVER	815	n/a	-1	n/a	n/a	n/a	n/a	n/a
3234977	RECOG_CONF	n/a	LTP134	ltpFR	5	2	-1	LEVER	815	4	-1	n/a	n/a	n/a	n/a	n/a
3236600	RECOG_TARGET	n/a	LTP134	ltpFR	5	2	0	CARPENTER	246	4	1	n/a	n/a	n/a	n/a	n/a
3237648	RECOG_RESP	n/a	LTP134	ltpFR	5	2	0	CARPENTER	246	n/a	1	n/a	n/a	n/a	n/a	n/a
3238571	RECOG_CONF	n/a	LTP134	ltpFR	5	2	0	CARPENTER	246	4	1	n/a	n/a	n/a	n/a	n/a
3240298	RECOG_TARGET	n/a	LTP134	ltpFR	5	2	1	NIGHTGOWN	953	3	0	n/a	n/a	n/a	n/a	n/a
3241159	RECOG_RESP	n/a	LTP134	ltpFR	5	2	1	NIGHTGOWN	953	n/a	0	n/a	n/a	n/a	n/a	n/a
3242134	RECOG_CONF	n/a	LTP134	ltpFR	5	2	1	NIGHTGOWN	953	3	0	n/a	n/a	n/a	n/a	n/a
3243789	RECOG_TARGET	n/a	LTP134	ltpFR	5	2	1	ROBE	1198	4	0	n/a	n/a	n/a	n/a	n/a
3244533	RECOG_RESP	n/a	LTP134	ltpFR	5	2	1	ROBE	1198	n/a	0	n/a	n/a	n/a	n/a	n/a
3245395	RECOG_CONF	n/a	LTP134	ltpFR	5	2	1	ROBE	1198	4	0	n/a	n/a	n/a	n/a	n/a
3247030	RECOG_LURE	n/a	LTP134	ltpFR	5	2	n/a	SERVANT	1271	3	n/a	n/a	n/a	n/a	n/a	n/a
3247951	RECOG_RESP	n/a	LTP134	ltpFR	5	2	n/a	SERVANT	1271	n/a	n/a	n/a	n/a	n/a	n/a	n/a
3248973	RECOG_CONF	n/a	LTP134	ltpFR	5	2	n/a	SERVANT	1271	3	n/a	n/a	n/a	n/a	n/a	n/a
3252975	REC_START	n/a	LTP134	ltpFR	5	3	n/a	n/a	n/a	n/a	n/a	n/a	n/a	n/a	n/a	n/a
3253028	RECOG_TARGET	n/a	LTP134	ltpFR	5	3	1	FOLLOWER	589	3	0	n/a	n/a	n/a	n/a	n/a
3253969	RECOG_RESP	n/a	LTP134	ltpFR	5	3	1	FOLLOWER	589	n/a	0	n/a	n/a	n/a	n/a	n/a
3255022	RECOG_CONF	n/a	LTP134	ltpFR	5	3	1	FOLLOWER	589	3	0	n/a	n/a	n/a	n/a	n/a
3256584	RECOG_TARGET	n/a	LTP134	ltpFR	5	3	0	EMPEROR	529	2	1	n/a	n/a	n/a	n/a	n/a
3257410	RECOG_RESP	n/a	LTP134	ltpFR	5	3	0	EMPEROR	529	n/a	1	n/a	n/a	n/a	n/a	n/a
3258419	RECOG_CONF	n/a	LTP134	ltpFR	5	3	0	EMPEROR	529	2	1	n/a	n/a	n/a	n/a	n/a
3259916	RECOG_TARGET	n/a	LTP134	ltpFR	5	3	-1	WALRUS	1585	3	-1	n/a	n/a	n/a	n/a	n/a
3260812	RECOG_RESP	n/a	LTP134	ltpFR	5	3	-1	WALRUS	1585	n/a	-1	n/a	n/a	n/a	n/a	n/a
3261663	RECOG_CONF	n/a	LTP134	ltpFR	5	3	-1	WALRUS	1585	3	-1	n/a	n/a	n/a	n/a	n/a
3263432	RECOG_LURE	n/a	LTP134	ltpFR	5	3	n/a	VEGETABLE	1552	2	n/a	n/a	n/a	n/a	n/a	n/a
3264445	RECOG_RESP	n/a	LTP134	ltpFR	5	3	n/a	VEGETABLE	1552	n/a	n/a	n/a	n/a	n/a	n/a	n/a
3265423	RECOG_CONF	n/a	LTP134	ltpFR	5	3	n/a	VEGETABLE	1552	2	n/a	n/a	n/a	n/a	n/a	n/a
3267148	RECOG_LURE	n/a	LTP134	ltpFR	5	3	n/a	SARDINE	1235	2	n/a	n/a	n/a	n/a	n/a	n/a
3268115	RECOG_RESP	n/a	LTP134	ltpFR	5	3	n/a	SARDINE	1235	n/a	n/a	n/a	n/a	n/a	n/a	n/a
3269112	RECOG_CONF	n/a	LTP134	ltpFR	5	3	n/a	SARDINE	1235	2	n/a	n/a	n/a	n/a	n/a	n/a
3270713	RECOG_LURE	n/a	LTP134	ltpFR	5	3	n/a	TRIANGLE	1504	2	n/a	n/a	n/a	n/a	n/a	n/a
3271686	RECOG_RESP	n/a	LTP134	ltpFR	5	3	n/a	TRIANGLE	1504	n/a	n/a	n/a	n/a	n/a	n/a	n/a
3272669	RECOG_CONF	n/a	LTP134	ltpFR	5	3	n/a	TRIANGLE	1504	2	n/a	n/a	n/a	n/a	n/a	n/a
3274228	RECOG_TARGET	n/a	LTP134	ltpFR	5	3	1	JOURNAL	760	2	0	n/a	n/a	n/a	n/a	n/a
3275154	RECOG_RESP	n/a	LTP134	ltpFR	5	3	1	JOURNAL	760	n/a	0	n/a	n/a	n/a	n/a	n/a
3276016	RECOG_CONF	n/a	LTP134	ltpFR	5	3	1	JOURNAL	760	2	0	n/a	n/a	n/a	n/a	n/a
3277602	RECOG_TARGET	n/a	LTP134	ltpFR	5	3	1	HEADBAND	696	3	0	n/a	n/a	n/a	n/a	n/a
3278473	RECOG_RESP	n/a	LTP134	ltpFR	5	3	1	HEADBAND	696	n/a	0	n/a	n/a	n/a	n/a	n/a
3279508	RECOG_CONF	n/a	LTP134	ltpFR	5	3	1	HEADBAND	696	3	0	n/a	n/a	n/a	n/a	n/a
3281210	RECOG_TARGET	n/a	LTP134	ltpFR	5	3	1	MARBLE	867	2	0	n/a	n/a	n/a	n/a	n/a
3282201	RECOG_RESP	n/a	LTP134	ltpFR	5	3	1	MARBLE	867	n/a	0	n/a	n/a	n/a	n/a	n/a
3283091	RECOG_CONF	n/a	LTP134	ltpFR	5	3	1	MARBLE	867	2	0	n/a	n/a	n/a	n/a	n/a
3284583	RECOG_TARGET	n/a	LTP134	ltpFR	5	3	0	SHEPHERD	1283	2	1	n/a	n/a	n/a	n/a	n/a
3285595	RECOG_RESP	n/a	LTP134	ltpFR	5	3	0	SHEPHERD	1283	n/a	1	n/a	n/a	n/a	n/a	n/a
3286506	RECOG_CONF	n/a	LTP134	ltpFR	5	3	0	SHEPHERD	1283	2	1	n/a	n/a	n/a	n/a	n/a
3288057	RECOG_LURE	n/a	LTP134	ltpFR	5	3	n/a	RING	1193	2	n/a	n/a	n/a	n/a	n/a	n/a
3288923	RECOG_RESP	n/a	LTP134	ltpFR	5	3	n/a	RING	1193	n/a	n/a	n/a	n/a	n/a	n/a	n/a
3289824	RECOG_CONF	n/a	LTP134	ltpFR	5	3	n/a	RING	1193	2	n/a	n/a	n/a	n/a	n/a	n/a
3291355	RECOG_TARGET	n/a	LTP134	ltpFR	5	3	0	FIREMAN	569	4	1	n/a	n/a	n/a	n/a	n/a
3292120	RECOG_RESP	n/a	LTP134	ltpFR	5	3	0	FIREMAN	569	n/a	1	n/a	n/a	n/a	n/a	n/a
3293045	RECOG_CONF	n/a	LTP134	ltpFR	5	3	0	FIREMAN	569	4	1	n/a	n/a	n/a	n/a	n/a
3294746	RECOG_TARGET	n/a	LTP134	ltpFR	5	3	1	EDITOR	516	2	1	n/a	n/a	n/a	n/a	n/a
3295960	RECOG_RESP	n/a	LTP134	ltpFR	5	3	1	EDITOR	516	n/a	1	n/a	n/a	n/a	n/a	n/a
3297064	RECOG_CONF	n/a	LTP134	ltpFR	5	3	1	EDITOR	516	2	1	n/a	n/a	n/a	n/a	n/a
3298653	RECOG_LURE	n/a	LTP134	ltpFR	5	3	n/a	MONEY	908	3	n/a	n/a	n/a	n/a	n/a	n/a
3299449	RECOG_RESP	n/a	LTP134	ltpFR	5	3	n/a	MONEY	908	n/a	n/a	n/a	n/a	n/a	n/a	n/a
3300426	RECOG_CONF	n/a	LTP134	ltpFR	5	3	n/a	MONEY	908	3	n/a	n/a	n/a	n/a	n/a	n/a
3302019	RECOG_LURE	n/a	LTP134	ltpFR	5	3	n/a	KIWI	781	3	n/a	n/a	n/a	n/a	n/a	n/a
3302798	RECOG_RESP	n/a	LTP134	ltpFR	5	3	n/a	KIWI	781	n/a	n/a	n/a	n/a	n/a	n/a	n/a
3303776	RECOG_CONF	n/a	LTP134	ltpFR	5	3	n/a	KIWI	781	3	n/a	n/a	n/a	n/a	n/a	n/a
3305392	RECOG_TARGET	n/a	LTP134	ltpFR	5	3	1	SHERIFF	1284	2	1	n/a	n/a	n/a	n/a	n/a
3306526	RECOG_RESP	n/a	LTP134	ltpFR	5	3	1	SHERIFF	1284	n/a	1	n/a	n/a	n/a	n/a	n/a
3308346	RECOG_CONF	n/a	LTP134	ltpFR	5	3	1	SHERIFF	1284	2	1	n/a	n/a	n/a	n/a	n/a
3310008	RECOG_LURE	n/a	LTP134	ltpFR	5	3	n/a	GIFT	635	2	n/a	n/a	n/a	n/a	n/a	n/a
3310746	RECOG_RESP	n/a	LTP134	ltpFR	5	3	n/a	GIFT	635	n/a	n/a	n/a	n/a	n/a	n/a	n/a
3311939	RECOG_CONF	n/a	LTP134	ltpFR	5	3	n/a	GIFT	635	2	n/a	n/a	n/a	n/a	n/a	n/a
3313497	RECOG_TARGET	n/a	LTP134	ltpFR	5	3	-1	BELL	118	4	-1	n/a	n/a	n/a	n/a	n/a
3314283	RECOG_RESP	n/a	LTP134	ltpFR	5	3	-1	BELL	118	n/a	-1	n/a	n/a	n/a	n/a	n/a
3315185	RECOG_CONF	n/a	LTP134	ltpFR	5	3	-1	BELL	118	4	-1	n/a	n/a	n/a	n/a	n/a
3316913	RECOG_TARGET	n/a	LTP134	ltpFR	5	3	-1	WIDOW	1608	4	-1	n/a	n/a	n/a	n/a	n/a
3317733	RECOG_RESP	n/a	LTP134	ltpFR	5	3	-1	WIDOW	1608	n/a	-1	n/a	n/a	n/a	n/a	n/a
3318760	RECOG_CONF	n/a	LTP134	ltpFR	5	3	-1	WIDOW	1608	4	-1	n/a	n/a	n/a	n/a	n/a
3320345	RECOG_TARGET	n/a	LTP134	ltpFR	5	3	-1	CLOSET	326	4	-1	n/a	n/a	n/a	n/a	n/a
3321042	RECOG_RESP	n/a	LTP134	ltpFR	5	3	-1	CLOSET	326	n/a	-1	n/a	n/a	n/a	n/a	n/a
3322112	RECOG_CONF	n/a	LTP134	ltpFR	5	3	-1	CLOSET	326	4	-1	n/a	n/a	n/a	n/a	n/a
3337097	REC_START	n/a	LTP134	ltpFR	5	4	n/a	n/a	n/a	n/a	n/a	n/a	n/a	n/a	n/a	n/a
3337132	RECOG_LURE	n/a	LTP134	ltpFR	5	4	n/a	CELLAR	267	2	n/a	n/a	n/a	n/a	n/a	n/a
3338413	RECOG_RESP	n/a	LTP134	ltpFR	5	4	n/a	CELLAR	267	n/a	n/a	n/a	n/a	n/a	n/a	n/a
3339607	RECOG_CONF	n/a	LTP134	ltpFR	5	4	n/a	CELLAR	267	2	n/a	n/a	n/a	n/a	n/a	n/a
3341229	RECOG_TARGET	n/a	LTP134	ltpFR	5	4	0	APE	31	2	1	n/a	n/a	n/a	n/a	n/a
3342247	RECOG_RESP	n/a	LTP134	ltpFR	5	4	0	APE	31	n/a	1	n/a	n/a	n/a	n/a	n/a
3343251	RECOG_CONF	n/a	LTP134	ltpFR	5	4	0	APE	31	2	1	n/a	n/a	n/a	n/a	n/a
3344786	RECOG_TARGET	n/a	LTP134	ltpFR	5	4	-1	PATIO	1025	3	-1	n/a	n/a	n/a	n/a	n/a
3346398	RECOG_RESP	n/a	LTP134	ltpFR	5	4	-1	PATIO	1025	n/a	-1	n/a	n/a	n/a	n/a	n/a
3347659	RECOG_CONF	n/a	LTP134	ltpFR	5	4	-1	PATIO	1025	3	-1	n/a	n/a	n/a	n/a	n/a
3349218	RECOG_TARGET	n/a	LTP134	ltpFR	5	4	0	FIREPLACE	570	4	1	n/a	n/a	n/a	n/a	n/a
3350087	RECOG_RESP	n/a	LTP134	ltpFR	5	4	0	FIREPLACE	570	n/a	1	n/a	n/a	n/a	n/a	n/a
3350980	RECOG_CONF	n/a	LTP134	ltpFR	5	4	0	FIREPLACE	570	4	1	n/a	n/a	n/a	n/a	n/a
3352575	RECOG_LURE	n/a	LTP134	ltpFR	5	4	n/a	EAR	513	2	n/a	n/a	n/a	n/a	n/a	n/a
3353585	RECOG_RESP	n/a	LTP134	ltpFR	5	4	n/a	EAR	513	n/a	n/a	n/a	n/a	n/a	n/a	n/a
3354424	RECOG_CONF	n/a	LTP134	ltpFR	5	4	n/a	EAR	513	2	n/a	n/a	n/a	n/a	n/a	n/a
3356092	RECOG_TARGET	n/a	LTP134	ltpFR	5	4	-1	CABBAGE	210	4	-1	n/a	n/a	n/a	n/a	n/a
3357034	RECOG_RESP	n/a	LTP134	ltpFR	5	4	-1	CABBAGE	210	n/a	-1	n/a	n/a	n/a	n/a	n/a
3358014	RECOG_CONF	n/a	LTP134	ltpFR	5	4	-1	CABBAGE	210	4	-1	n/a	n/a	n/a	n/a	n/a
3359656	RECOG_LURE	n/a	LTP134	ltpFR	5	4	n/a	PICTURE	1061	3	n/a	n/a	n/a	n/a	n/a	n/a
3360738	RECOG_RESP	n/a	LTP134	ltpFR	5	4	n/a	PICTURE	1061	n/a	n/a	n/a	n/a	n/a	n/a	n/a
3361862	RECOG_CONF	n/a	LTP134	ltpFR	5	4	n/a	PICTURE	1061	3	n/a	n/a	n/a	n/a	n/a	n/a
3363530	RECOG_TARGET	n/a	LTP134	ltpFR	5	4	-1	ENGINE	535	3	-1	n/a	n/a	n/a	n/a	n/a
3364695	RECOG_RESP	n/a	LTP134	ltpFR	5	4	-1	ENGINE	535	n/a	-1	n/a	n/a	n/a	n/a	n/a
3365770	RECOG_CONF	n/a	LTP134	ltpFR	5	4	-1	ENGINE	535	3	-1	n/a	n/a	n/a	n/a	n/a
3367420	RECOG_TARGET	n/a	LTP134	ltpFR	5	4	1	VAMPIRE	1547	5	1	n/a	n/a	n/a	n/a	n/a
3368185	RECOG_RESP	n/a	LTP134	ltpFR	5	4	1	VAMPIRE	1547	n/a	1	n/a	n/a	n/a	n/a	n/a
3369426	RECOG_CONF	n/a	LTP134	ltpFR	5	4	1	VAMPIRE	1547	5	1	n/a	n/a	n/a	n/a	n/a
3371161	RECOG_TARGET	n/a	LTP134	ltpFR	5	4	0	SCALPEL	1243	5	1	n/a	n/a	n/a	n/a	n/a
3372012	RECOG_RESP	n/a	LTP134	ltpFR	5	4	0	SCALPEL	1243	n/a	1	n/a	n/a	n/a	n/a	n/a
3372790	RECOG_CONF	n/a	LTP134	ltpFR	5	4	0	SCALPEL	1243	5	1	n/a	n/a	n/a	n/a	n/a
3374476	RECOG_TARGET	n/a	LTP134	ltpFR	5	4	0	JUG	762	5	1	n/a	n/a	n/a	n/a	n/a
3375159	RECOG_RESP	n/a	LTP134	ltpFR	5	4	0	JUG	762	n/a	1	n/a	n/a	n/a	n/a	n/a
3375995	RECOG_CONF	n/a	LTP134	ltpFR	5	4	0	JUG	762	5	1	n/a	n/a	n/a	n/a	n/a
3377658	RECOG_TARGET	n/a	LTP134	ltpFR	5	4	1	BRIEFCASE	175	4	0	n/a	n/a	n/a	n/a	n/a
3378481	RECOG_RESP	n/a	LTP134	ltpFR	5	4	1	BRIEFCASE	175	n/a	0	n/a	n/a	n/a	n/a	n/a
3379277	RECOG_CONF	n/a	LTP134	ltpFR	5	4	1	BRIEFCASE	175	4	0	n/a	n/a	n/a	n/a	n/a
3380790	RECOG_TARGET	n/a	LTP134	ltpFR	5	4	0	PORTRAIT	1111	3	1	n/a	n/a	n/a	n/a	n/a
3381724	RECOG_RESP	n/a	LTP134	ltpFR	5	4	0	PORTRAIT	1111	n/a	1	n/a	n/a	n/a	n/a	n/a
3382718	RECOG_CONF	n/a	LTP134	ltpFR	5	4	0	PORTRAIT	1111	3	1	n/a	n/a	n/a	n/a	n/a
3384289	RECOG_LURE	n/a	LTP134	ltpFR	5	4	n/a	CIRCUS	311	1	n/a	n/a	n/a	n/a	n/a	n/a
3385257	RECOG_RESP	n/a	LTP134	ltpFR	5	4	n/a	CIRCUS	311	n/a	n/a	n/a	n/a	n/a	n/a	n/a
3386226	RECOG_CONF	n/a	LTP134	ltpFR	5	4	n/a	CIRCUS	311	1	n/a	n/a	n/a	n/a	n/a	n/a
3387946	RECOG_TARGET	n/a	LTP134	ltpFR	5	4	0	SISTER	1312	3	1	n/a	n/a	n/a	n/a	n/a
3388747	RECOG_RESP	n/a	LTP134	ltpFR	5	4	0	SISTER	1312	n/a	1	n/a	n/a	n/a	n/a	n/a
3389750	RECOG_CONF	n/a	LTP134	ltpFR	5	4	0	SISTER	1312	3	1	n/a	n/a	n/a	n/a	n/a
3391320	RECOG_TARGET	n/a	LTP134	ltpFR	5	4	0	EXPERT	543	2	1	n/a	n/a	n/a	n/a	n/a
3392559	RECOG_RESP	n/a	LTP134	ltpFR	5	4	0	EXPERT	543	n/a	1	n/a	n/a	n/a	n/a	n/a
3393610	RECOG_CONF	n/a	LTP134	ltpFR	5	4	0	EXPERT	543	2	1	n/a	n/a	n/a	n/a	n/a
3395268	RECOG_LURE	n/a	LTP134	ltpFR	5	4	n/a	MOSS	918	3	n/a	n/a	n/a	n/a	n/a	n/a
3396244	RECOG_RESP	n/a	LTP134	ltpFR	5	4	n/a	MOSS	918	n/a	n/a	n/a	n/a	n/a	n/a	n/a
3397217	RECOG_CONF	n/a	LTP134	ltpFR	5	4	n/a	MOSS	918	3	n/a	n/a	n/a	n/a	n/a	n/a
3398917	RECOG_LURE	n/a	LTP134	ltpFR	5	4	n/a	COP	376	1	n/a	n/a	n/a	n/a	n/a	n/a
3399861	RECOG_RESP	n/a	LTP134	ltpFR	5	4	n/a	COP	376	n/a	n/a	n/a	n/a	n/a	n/a	n/a
3400894	RECOG_CONF	n/a	LTP134	ltpFR	5	4	n/a	COP	376	1	n/a	n/a	n/a	n/a	n/a	n/a
3402591	RECOG_TARGET	n/a	LTP134	ltpFR	5	4	0	FELLOW	558	2	1	n/a	n/a	n/a	n/a	n/a
3403901	RECOG_RESP_VV	n/a	LTP134	ltpFR	5	4	0	FELLOW	558	n/a	1	n/a	n/a	n/a	n/a	n/a
3405120	RECOG_RESP	n/a	LTP134	ltpFR	5	4	0	FELLOW	558	n/a	1	n/a	n/a	n/a	n/a	n/a
3406505	RECOG_CONF	n/a	LTP134	ltpFR	5	4	0	FELLOW	558	2	1	n/a	n/a	n/a	n/a	n/a
3408131	RECOG_TARGET	n/a	LTP134	ltpFR	5	4	-1	SIBLING	1301	3	-1	n/a	n/a	n/a	n/a	n/a
3409174	RECOG_RESP	n/a	LTP134	ltpFR	5	4	-1	SIBLING	1301	n/a	-1	n/a	n/a	n/a	n/a	n/a
3410241	RECOG_CONF	n/a	LTP134	ltpFR	5	4	-1	SIBLING	1301	3	-1	n/a	n/a	n/a	n/a	n/a
3420958	REC_START	n/a	LTP134	ltpFR	5	5	n/a	n/a	n/a	n/a	n/a	n/a	n/a	n/a	n/a	n/a
3421002	RECOG_TARGET	n/a	LTP134	ltpFR	5	5	0	MALL	860	3	1	n/a	n/a	n/a	n/a	n/a
3421959	RECOG_RESP	n/a	LTP134	ltpFR	5	5	0	MALL	860	n/a	1	n/a	n/a	n/a	n/a	n/a
3423128	RECOG_CONF	n/a	LTP134	ltpFR	5	5	0	MALL	860	3	1	n/a	n/a	n/a	n/a	n/a
3424666	RECOG_TARGET	n/a	LTP134	ltpFR	5	5	0	CLARINET	317	4	1	n/a	n/a	n/a	n/a	n/a
3425559	RECOG_RESP	n/a	LTP134	ltpFR	5	5	0	CLARINET	317	n/a	1	n/a	n/a	n/a	n/a	n/a
3426510	RECOG_CONF	n/a	LTP134	ltpFR	5	5	0	CLARINET	317	4	1	n/a	n/a	n/a	n/a	n/a
3428166	RECOG_TARGET	n/a	LTP134	ltpFR	5	5	0	VELVET	1555	3	0	n/a	n/a	n/a	n/a	n/a
3429069	RECOG_RESP	n/a	LTP134	ltpFR	5	5	0	VELVET	1555	n/a	0	n/a	n/a	n/a	n/a	n/a
3430061	RECOG_CONF	n/a	LTP134	ltpFR	5	5	0	VELVET	1555	3	0	n/a	n/a	n/a	n/a	n/a
3431680	RECOG_TARGET	n/a	LTP134	ltpFR	5	5	0	BANJO	82	3	1	n/a	n/a	n/a	n/a	n/a
3432372	RECOG_RESP	n/a	LTP134	ltpFR	5	5	0	BANJO	82	n/a	1	n/a	n/a	n/a	n/a	n/a
3433411	RECOG_CONF	n/a	LTP134	ltpFR	5	5	0	BANJO	82	3	1	n/a	n/a	n/a	n/a	n/a
3434938	RECOG_TARGET	n/a	LTP134	ltpFR	5	5	-1	CELERY	266	3	-1	n/a	n/a	n/a	n/a	n/a
3435687	RECOG_RESP	n/a	LTP134	ltpFR	5	5	-1	CELERY	266	n/a	-1	n/a	n/a	n/a	n/a	n/a
3436758	RECOG_CONF	n/a	LTP134	ltpFR	5	5	-1	CELERY	266	3	-1	n/a	n/a	n/a	n/a	n/a
3438620	RECOG_TARGET	n/a	LTP134	ltpFR	5	5	-1	TREAT	1501	2	-1	n/a	n/a	n/a	n/a	n/a
3439814	RECOG_RESP	n/a	LTP134	ltpFR	5	5	-1	TREAT	1501	n/a	-1	n/a	n/a	n/a	n/a	n/a
3440844	RECOG_CONF	n/a	LTP134	ltpFR	5	5	-1	TREAT	1501	2	-1	n/a	n/a	n/a	n/a	n/a
3442626	RECOG_TARGET	n/a	LTP134	ltpFR	5	5	1	SHARK	1275	4	1	n/a	n/a	n/a	n/a	n/a
3443385	RECOG_RESP	n/a	LTP134	ltpFR	5	5	1	SHARK	1275	n/a	1	n/a	n/a	n/a	n/a	n/a
3444420	RECOG_CONF	n/a	LTP134	ltpFR	5	5	1	SHARK	1275	4	1	n/a	n/a	n/a	n/a	n/a
3446134	RECOG_TARGET	n/a	LTP134	ltpFR	5	5	0	ASPIRIN	47	4	0	n/a	n/a	n/a	n/a	n/a
3447098	RECOG_RESP	n/a	LTP134	ltpFR	5	5	0	ASPIRIN	47	n/a	0	n/a	n/a	n/a	n/a	n/a
3447961	RECOG_CONF	n/a	LTP134	ltpFR	5	5	0	ASPIRIN	47	4	0	n/a	n/a	n/a	n/a	n/a
3449566	RECOG_TARGET	n/a	LTP134	ltpFR	5	5	-1	STUMP	1396	5	-1	n/a	n/a	n/a	n/a	n/a
3450258	RECOG_RESP	n/a	LTP134	ltpFR	5	5	-1	STUMP	1396	n/a	-1	n/a	n/a	n/a	n/a	n/a
3451054	RECOG_CONF	n/a	LTP134	ltpFR	5	5	-1	STUMP	1396	5	-1	n/a	n/a	n/a	n/a	n/a
3452739	RECOG_TARGET	n/a	LTP134	ltpFR	5	5	-1	SHUTTER	1300	5	-1	n/a	n/a	n/a	n/a	n/a
3453536	RECOG_RESP	n/a	LTP134	ltpFR	5	5	-1	SHUTTER	1300	n/a	-1	n/a	n/a	n/a	n/a	n/a
3454332	RECOG_CONF	n/a	LTP134	ltpFR	5	5	-1	SHUTTER	1300	5	-1	n/a	n/a	n/a	n/a	n/a
3456006	RECOG_TARGET	n/a	LTP134	ltpFR	5	5	0	WINNER	1615	3	1	n/a	n/a	n/a	n/a	n/a
3456919	RECOG_RESP	n/a	LTP134	ltpFR	5	5	0	WINNER	1615	n/a	1	n/a	n/a	n/a	n/a	n/a
3457911	RECOG_CONF	n/a	LTP134	ltpFR	5	5	0	WINNER	1615	3	1	n/a	n/a	n/a	n/a	n/a
3459595	RECOG_TARGET	n/a	LTP134	ltpFR	5	5	1	PARIS	1014	5	0	n/a	n/a	n/a	n/a	n/a
3460888	RECOG_RESP	n/a	LTP134	ltpFR	5	5	1	PARIS	1014	n/a	0	n/a	n/a	n/a	n/a	n/a
3461760	RECOG_CONF	n/a	LTP134	ltpFR	5	5	1	PARIS	1014	5	0	n/a	n/a	n/a	n/a	n/a
3463502	RECOG_LURE	n/a	LTP134	ltpFR	5	5	n/a	PRISONER	1128	3	n/a	n/a	n/a	n/a	n/a	n/a
3464398	RECOG_RESP	n/a	LTP134	ltpFR	5	5	n/a	PRISONER	1128	n/a	n/a	n/a	n/a	n/a	n/a	n/a
3465417	RECOG_CONF	n/a	LTP134	ltpFR	5	5	n/a	PRISONER	1128	3	n/a	n/a	n/a	n/a	n/a	n/a
3467027	RECOG_TARGET	n/a	LTP134	ltpFR	5	5	1	STAKE	1368	3	0	n/a	n/a	n/a	n/a	n/a
3467834	RECOG_RESP	n/a	LTP134	ltpFR	5	5	1	STAKE	1368	n/a	0	n/a	n/a	n/a	n/a	n/a
3468991	RECOG_CONF	n/a	LTP134	ltpFR	5	5	1	STAKE	1368	3	0	n/a	n/a	n/a	n/a	n/a
3470608	RECOG_TARGET	n/a	LTP134	ltpFR	5	5	-1	CIGARETTE	309	4	-1	n/a	n/a	n/a	n/a	n/a
3471360	RECOG_RESP	n/a	LTP134	ltpFR	5	5	-1	CIGARETTE	309	n/a	-1	n/a	n/a	n/a	n/a	n/a
3472356	RECOG_CONF	n/a	LTP134	ltpFR	5	5	-1	CIGARETTE	309	4	-1	n/a	n/a	n/a	n/a	n/a
3474100	RECOG_TARGET	n/a	LTP134	ltpFR	5	5	1	FLASK	576	3	0	n/a	n/a	n/a	n/a	n/a
3474824	RECOG_RESP	n/a	LTP134	ltpFR	5	5	1	FLASK	576	n/a	0	n/a	n/a	n/a	n/a	n/a
3475837	RECOG_CONF	n/a	LTP134	ltpFR	5	5	1	FLASK	576	3	0	n/a	n/a	n/a	n/a	n/a
3477431	RECOG_TARGET	n/a	LTP134	ltpFR	5	5	-1	RUBY	1214	5	-1	n/a	n/a	n/a	n/a	n/a
3478167	RECOG_RESP	n/a	LTP134	ltpFR	5	5	-1	RUBY	1214	n/a	-1	n/a	n/a	n/a	n/a	n/a
3479088	RECOG_CONF	n/a	LTP134	ltpFR	5	5	-1	RUBY	1214	5	-1	n/a	n/a	n/a	n/a	n/a
3480863	RECOG_TARGET	n/a	LTP134	ltpFR	5	5	1	DUMP	505	2	0	n/a	n/a	n/a	n/a	n/a
3481789	RECOG_RESP	n/a	LTP134	ltpFR	5	5	1	DUMP	505	n/a	0	n/a	n/a	n/a	n/a	n/a
3482771	RECOG_CONF	n/a	LTP134	ltpFR	5	5	1	DUMP	505	2	0	n/a	n/a	n/a	n/a	n/a
3484437	RECOG_TARGET	n/a	LTP134	ltpFR	5	5	-1	GUARD	667	4	-1	n/a	n/a	n/a	n/a	n/a
3485953	RECOG_RESP	n/a	LTP134	ltpFR	5	5	-1	GUARD	667	n/a	-1	n/a	n/a	n/a	n/a	n/a
3487022	RECOG_CONF	n/a	LTP134	ltpFR	5	5	-1	GUARD	667	4	-1	n/a	n/a	n/a	n/a	n/a
3488743	RECOG_TARGET	n/a	LTP134	ltpFR	5	5	1	TRASH	1497	2	0	n/a	n/a	n/a	n/a	n/a
3489852	RECOG_RESP_VV	n/a	LTP134	ltpFR	5	5	1	TRASH	1497	n/a	0	n/a	n/a	n/a	n/a	n/a
3491317	RECOG_RESP	n/a	LTP134	ltpFR	5	5	1	TRASH	1497	n/a	0	n/a	n/a	n/a	n/a	n/a
3492598	RECOG_CONF	n/a	LTP134	ltpFR	5	5	1	TRASH	1497	2	0	n/a	n/a	n/a	n/a	n/a
3498346	REC_START	n/a	LTP134	ltpFR	5	6	n/a	n/a	n/a	n/a	n/a	n/a	n/a	n/a	n/a	n/a
3498382	RECOG_TARGET	n/a	LTP134	ltpFR	5	6	1	TROPHY	1509	4	0	n/a	n/a	n/a	n/a	n/a
3499177	RECOG_RESP	n/a	LTP134	ltpFR	5	6	1	TROPHY	1509	n/a	0	n/a	n/a	n/a	n/a	n/a
3500545	RECOG_CONF	n/a	LTP134	ltpFR	5	6	1	TROPHY	1509	4	0	n/a	n/a	n/a	n/a	n/a
3502605	RECOG_TARGET	n/a	LTP134	ltpFR	5	6	1	PIGEON	1065	3	1	n/a	n/a	n/a	n/a	n/a
3503417	RECOG_RESP	n/a	LTP134	ltpFR	5	6	1	PIGEON	1065	n/a	1	n/a	n/a	n/a	n/a	n/a
3504586	RECOG_CONF	n/a	LTP134	ltpFR	5	6	1	PIGEON	1065	3	1	n/a	n/a	n/a	n/a	n/a
3506113	RECOG_TARGET	n/a	LTP134	ltpFR	5	6	1	DAD	433	4	1	n/a	n/a	n/a	n/a	n/a
3506760	RECOG_RESP	n/a	LTP134	ltpFR	5	6	1	DAD	433	n/a	1	n/a	n/a	n/a	n/a	n/a
3507560	RECOG_CONF	n/a	LTP134	ltpFR	5	6	1	DAD	433	4	1	n/a	n/a	n/a	n/a	n/a
3509244	RECOG_TARGET	n/a	LTP134	ltpFR	5	6	-1	BEET	115	4	-1	n/a	n/a	n/a	n/a	n/a
3509863	RECOG_RESP	n/a	LTP134	ltpFR	5	6	-1	BEET	115	n/a	-1	n/a	n/a	n/a	n/a	n/a
3510712	RECOG_CONF	n/a	LTP134	ltpFR	5	6	-1	BEET	115	4	-1	n/a	n/a	n/a	n/a	n/a
3512427	RECOG_TARGET	n/a	LTP134	ltpFR	5	6	-1	CATCHER	258	5	-1	n/a	n/a	n/a	n/a	n/a
3513136	RECOG_RESP	n/a	LTP134	ltpFR	5	6	-1	CATCHER	258	n/a	-1	n/a	n/a	n/a	n/a	n/a
3513956	RECOG_CONF	n/a	LTP134	ltpFR	5	6	-1	CATCHER	258	5	-1	n/a	n/a	n/a	n/a	n/a
3515700	RECOG_TARGET	n/a	LTP134	ltpFR	5	6	1	AUDIENCE	59	1	0	n/a	n/a	n/a	n/a	n/a
3516753	RECOG_RESP	n/a	LTP134	ltpFR	5	6	1	AUDIENCE	59	n/a	0	n/a	n/a	n/a	n/a	n/a
3518089	RECOG_CONF	n/a	LTP134	ltpFR	5	6	1	AUDIENCE	59	1	0	n/a	n/a	n/a	n/a	n/a
3519632	RECOG_TARGET	n/a	LTP134	ltpFR	5	6	1	PARROT	1015	5	1	n/a	n/a	n/a	n/a	n/a
3520353	RECOG_RESP	n/a	LTP134	ltpFR	5	6	1	PARROT	1015	n/a	1	n/a	n/a	n/a	n/a	n/a
3521285	RECOG_CONF	n/a	LTP134	ltpFR	5	6	1	PARROT	1015	5	1	n/a	n/a	n/a	n/a	n/a
3522964	RECOG_LURE	n/a	LTP134	ltpFR	5	6	n/a	FIGHTER	564	1	n/a	n/a	n/a	n/a	n/a	n/a
3523918	RECOG_RESP	n/a	LTP134	ltpFR	5	6	n/a	FIGHTER	564	n/a	n/a	n/a	n/a	n/a	n/a	n/a
3525004	RECOG_CONF	n/a	LTP134	ltpFR	5	6	n/a	FIGHTER	564	1	n/a	n/a	n/a	n/a	n/a	n/a
3526580	RECOG_TARGET	n/a	LTP134	ltpFR	5	6	1	BEAVER	109	3	1	n/a	n/a	n/a	n/a	n/a
3527300	RECOG_RESP	n/a	LTP134	ltpFR	5	6	1	BEAVER	109	n/a	1	n/a	n/a	n/a	n/a	n/a
3528364	RECOG_CONF	n/a	LTP134	ltpFR	5	6	1	BEAVER	109	3	1	n/a	n/a	n/a	n/a	n/a
3529879	RECOG_TARGET	n/a	LTP134	ltpFR	5	6	0	BEAR	106	3	1	n/a	n/a	n/a	n/a	n/a
3530530	RECOG_RESP	n/a	LTP134	ltpFR	5	6	0	BEAR	106	n/a	1	n/a	n/a	n/a	n/a	n/a
3531525	RECOG_CONF	n/a	LTP134	ltpFR	5	6	0	BEAR	106	3	1	n/a	n/a	n/a	n/a	n/a
3533129	RECOG_TARGET	n/a	LTP134	ltpFR	5	6	1	BUGGY	188	4	0	n/a	n/a	n/a	n/a	n/a
3533923	RECOG_RESP	n/a	LTP134	ltpFR	5	6	1	BUGGY	188	n/a	0	n/a	n/a	n/a	n/a	n/a
3534912	RECOG_CONF	n/a	LTP134	ltpFR	5	6	1	BUGGY	188	4	0	n/a	n/a	n/a	n/a	n/a
3536518	RECOG_TARGET	n/a	LTP134	ltpFR	5	6	-1	COBRA	336	5	-1	n/a	n/a	n/a	n/a	n/a
3537259	RECOG_RESP	n/a	LTP134	ltpFR	5	6	-1	COBRA	336	n/a	-1	n/a	n/a	n/a	n/a	n/a
3538160	RECOG_CONF	n/a	LTP134	ltpFR	5	6	-1	COBRA	336	5	-1	n/a	n/a	n/a	n/a	n/a
3539792	RECOG_TARGET	n/a	LTP134	ltpFR	5	6	0	GROCERY	664	1	1	n/a	n/a	n/a	n/a	n/a
3540906	RECOG_RESP	n/a	LTP134	ltpFR	5	6	0	GROCERY	664	n/a	1	n/a	n/a	n/a	n/a	n/a
3542241	RECOG_CONF	n/a	LTP134	ltpFR	5	6	0	GROCERY	664	1	1	n/a	n/a	n/a	n/a	n/a
3543840	RECOG_TARGET	n/a	LTP134	ltpFR	5	6	0	AIRPLANE	12	3	1	n/a	n/a	n/a	n/a	n/a
3544689	RECOG_RESP	n/a	LTP134	ltpFR	5	6	0	AIRPLANE	12	n/a	1	n/a	n/a	n/a	n/a	n/a
3545798	RECOG_CONF	n/a	LTP134	ltpFR	5	6	0	AIRPLANE	12	3	1	n/a	n/a	n/a	n/a	n/a
3547422	RECOG_TARGET	n/a	LTP134	ltpFR	5	6	1	WHALE	1601	4	1	n/a	n/a	n/a	n/a	n/a
3548431	RECOG_RESP	n/a	LTP134	ltpFR	5	6	1	WHALE	1601	n/a	1	n/a	n/a	n/a	n/a	n/a
3549307	RECOG_CONF	n/a	LTP134	ltpFR	5	6	1	WHALE	1601	4	1	n/a	n/a	n/a	n/a	n/a
3550930	RECOG_TARGET	n/a	LTP134	ltpFR	5	6	1	FINGER	567	4	1	n/a	n/a	n/a	n/a	n/a
3551858	RECOG_RESP	n/a	LTP134	ltpFR	5	6	1	FINGER	567	n/a	1	n/a	n/a	n/a	n/a	n/a
3552767	RECOG_CONF	n/a	LTP134	ltpFR	5	6	1	FINGER	567	4	1	n/a	n/a	n/a	n/a	n/a
3554512	RECOG_LURE	n/a	LTP134	ltpFR	5	6	n/a	SLEIGH	1325	3	n/a	n/a	n/a	n/a	n/a	n/a
3555362	RECOG_RESP	n/a	LTP134	ltpFR	5	6	n/a	SLEIGH	1325	n/a	n/a	n/a	n/a	n/a	n/a	n/a
3556446	RECOG_CONF	n/a	LTP134	ltpFR	5	6	n/a	SLEIGH	1325	3	n/a	n/a	n/a	n/a	n/a	n/a
3558061	RECOG_TARGET	n/a	LTP134	ltpFR	5	6	-1	YOKE	1632	3	-1	n/a	n/a	n/a	n/a	n/a
3558885	RECOG_RESP	n/a	LTP134	ltpFR	5	6	-1	YOKE	1632	n/a	-1	n/a	n/a	n/a	n/a	n/a
3559912	RECOG_CONF	n/a	LTP134	ltpFR	5	6	-1	YOKE	1632	3	-1	n/a	n/a	n/a	n/a	n/a
3561542	RECOG_LURE	n/a	LTP134	ltpFR	5	6	n/a	TOOTH	1481	3	n/a	n/a	n/a	n/a	n/a	n/a
3562419	RECOG_RESP	n/a	LTP134	ltpFR	5	6	n/a	TOOTH	1481	n/a	n/a	n/a	n/a	n/a	n/a	n/a
3563450	RECOG_CONF	n/a	LTP134	ltpFR	5	6	n/a	TOOTH	1481	3	n/a	n/a	n/a	n/a	n/a	n/a
3565200	RECOG_TARGET	n/a	LTP134	ltpFR	5	6	0	LOAF	835	4	1	n/a	n/a	n/a	n/a	n/a
3566107	RECOG_RESP_VV	n/a	LTP134	ltpFR	5	6	0	LOAF	835	4	1	n/a	n/a	n/a	n/a	n/a
3567055	RECOG_RESP	n/a	LTP134	ltpFR	5	6	0	LOAF	835	n/a	1	n/a	n/a	n/a	n/a	n/a
3568032	RECOG_CONF	n/a	LTP134	ltpFR	5	6	0	LOAF	835	4	1	n/a	n/a	n/a	n/a	n/a
3575132	REC_START	n/a	LTP134	ltpFR	5	7	n/a	n/a	n/a	n/a	n/a	n/a	n/a	n/a	n/a	n/a
3575164	RECOG_TARGET	n/a	LTP134	ltpFR	5	7	1	LION	827	4	1	n/a	n/a	n/a	n/a	n/a
3575950	RECOG_RESP	n/a	LTP134	ltpFR	5	7	1	LION	827	n/a	1	n/a	n/a	n/a	n/a	n/a
3576803	RECOG_CONF	n/a	LTP134	ltpFR	5	7	1	LION	827	4	1	n/a	n/a	n/a	n/a	n/a
3578386	RECOG_TARGET	n/a	LTP134	ltpFR	5	7	1	SEED	1266	4	0	n/a	n/a	n/a	n/a	n/a
3579105	RECOG_RESP	n/a	LTP134	ltpFR	5	7	1	SEED	1266	n/a	0	n/a	n/a	n/a	n/a	n/a
3579886	RECOG_CONF	n/a	LTP134	ltpFR	5	7	1	SEED	1266	4	0	n/a	n/a	n/a	n/a	n/a
3581619	RECOG_TARGET	n/a	LTP134	ltpFR	5	7	1	GRADUATE	653	3	0	n/a	n/a	n/a	n/a	n/a
3582560	RECOG_RESP	n/a	LTP134	ltpFR	5	7	1	GRADUATE	653	n/a	0	n/a	n/a	n/a	n/a	n/a
3583552	RECOG_CONF	n/a	LTP134	ltpFR	5	7	1	GRADUATE	653	3	0	n/a	n/a	n/a	n/a	n/a
3585251	RECOG_TARGET	n/a	LTP134	ltpFR	5	7	1	MEAL	882	2	0	n/a	n/a	n/a	n/a	n/a
3586234	RECOG_RESP	n/a	LTP134	ltpFR	5	7	1	MEAL	882	n/a	0	n/a	n/a	n/a	n/a	n/a
3587391	RECOG_CONF	n/a	LTP134	ltpFR	5	7	1	MEAL	882	2	0	n/a	n/a	n/a	n/a	n/a
3588891	RECOG_TARGET	n/a	LTP134	ltpFR	5	7	0	DINNER	468	4	1	n/a	n/a	n/a	n/a	n/a
3589718	RECOG_RESP	n/a	LTP134	ltpFR	5	7	0	DINNER	468	n/a	1	n/a	n/a	n/a	n/a	n/a
3590671	RECOG_CONF	n/a	LTP134	ltpFR	5	7	0	DINNER	468	4	1	n/a	n/a	n/a	n/a	n/a
3592331	RECOG_TARGET	n/a	LTP134	ltpFR	5	7	1	PRODUCER	1129	2	0	n/a	n/a	n/a	n/a	n/a
3593611	RECOG_RESP	n/a	LTP134	ltpFR	5	7	1	PRODUCER	1129	n/a	0	n/a	n/a	n/a	n/a	n/a
3594699	RECOG_CONF	n/a	LTP134	ltpFR	5	7	1	PRODUCER	1129	2	0	n/a	n/a	n/a	n/a	n/a
3596405	RECOG_LURE	n/a	LTP134	ltpFR	5	7	n/a	IDOL	733	1	n/a	n/a	n/a	n/a	n/a	n/a
3598019	RECOG_RESP	n/a	LTP134	ltpFR	5	7	n/a	IDOL	733	n/a	n/a	n/a	n/a	n/a	n/a	n/a
3598999	RECOG_CONF	n/a	LTP134	ltpFR	5	7	n/a	IDOL	733	1	n/a	n/a	n/a	n/a	n/a	n/a
3600629	RECOG_TARGET	n/a	LTP134	ltpFR	5	7	-1	BATHTUB	100	4	-1	n/a	n/a	n/a	n/a	n/a
3601511	RECOG_RESP	n/a	LTP134	ltpFR	5	7	-1	BATHTUB	100	n/a	-1	n/a	n/a	n/a	n/a	n/a
3602374	RECOG_CONF	n/a	LTP134	ltpFR	5	7	-1	BATHTUB	100	4	-1	n/a	n/a	n/a	n/a	n/a
3604095	RECOG_TARGET	n/a	LTP134	ltpFR	5	7	-1	DAGGER	434	4	-1	n/a	n/a	n/a	n/a	n/a
3605063	RECOG_RESP	n/a	LTP134	ltpFR	5	7	-1	DAGGER	434	n/a	-1	n/a	n/a	n/a	n/a	n/a
3605946	RECOG_CONF	n/a	LTP134	ltpFR	5	7	-1	DAGGER	434	4	-1	n/a	n/a	n/a	n/a	n/a
3607643	RECOG_TARGET	n/a	LTP134	ltpFR	5	7	-1	POTTERY	1116	2	-1	n/a	n/a	n/a	n/a	n/a
3608366	RECOG_RESP	n/a	LTP134	ltpFR	5	7	-1	POTTERY	1116	n/a	-1	n/a	n/a	n/a	n/a	n/a
3609289	RECOG_CONF	n/a	LTP134	ltpFR	5	7	-1	POTTERY	1116	2	-1	n/a	n/a	n/a	n/a	n/a
3610917	RECOG_TARGET	n/a	LTP134	ltpFR	5	7	1	CROW	414	2	1	n/a	n/a	n/a	n/a	n/a
3612542	RECOG_RESP_VV	n/a	LTP134	ltpFR	5	7	1	CROW	414	n/a	1	n/a	n/a	n/a	n/a	n/a
3613934	RECOG_RESP	n/a	LTP134	ltpFR	5	7	1	CROW	414	n/a	1	n/a	n/a	n/a	n/a	n/a
3615465	RECOG_CONF	n/a	LTP134	ltpFR	5	7	1	CROW	414	2	1	n/a	n/a	n/a	n/a	n/a
3617099	RECOG_LURE	n/a	LTP134	ltpFR	5	7	n/a	SCENERY	1247	1	n/a	n/a	n/a	n/a	n/a	n/a
3618162	RECOG_RESP	n/a	LTP134	ltpFR	5	7	n/a	SCENERY	1247	n/a	n/a	n/a	n/a	n/a	n/a	n/a
3619255	RECOG_CONF	n/a	LTP134	ltpFR	5	7	n/a	SCENERY	1247	1	n/a	n/a	n/a	n/a	n/a	n/a
3620846	RECOG_TARGET	n/a	LTP134	ltpFR	5	7	-1	DESIGNER	451	4	-1	n/a	n/a	n/a	n/a	n/a
3621701	RECOG_RESP	n/a	LTP134	ltpFR	5	7	-1	DESIGNER	451	n/a	-1	n/a	n/a	n/a	n/a	n/a
3622531	RECOG_CONF	n/a	LTP134	ltpFR	5	7	-1	DESIGNER	451	4	-1	n/a	n/a	n/a	n/a	n/a
3624204	RECOG_TARGET	n/a	LTP134	ltpFR	5	7	-1	STADIUM	1364	5	-1	n/a	n/a	n/a	n/a	n/a
3624936	RECOG_RESP	n/a	LTP134	ltpFR	5	7	-1	STADIUM	1364	n/a	-1	n/a	n/a	n/a	n/a	n/a
3625711	RECOG_CONF	n/a	LTP134	ltpFR	5	7	-1	STADIUM	1364	5	-1	n/a	n/a	n/a	n/a	n/a
3627402	RECOG_TARGET	n/a	LTP134	ltpFR	5	7	-1	DETERGENT	455	5	-1	n/a	n/a	n/a	n/a	n/a
3628163	RECOG_RESP	n/a	LTP134	ltpFR	5	7	-1	DETERGENT	455	n/a	-1	n/a	n/a	n/a	n/a	n/a
3629071	RECOG_CONF	n/a	LTP134	ltpFR	5	7	-1	DETERGENT	455	5	-1	n/a	n/a	n/a	n/a	n/a
3630734	RECOG_LURE	n/a	LTP134	ltpFR	5	7	n/a	DEPUTY	450	3	n/a	n/a	n/a	n/a	n/a	n/a
3631688	RECOG_RESP	n/a	LTP134	ltpFR	5	7	n/a	DEPUTY	450	n/a	n/a	n/a	n/a	n/a	n/a	n/a
3632817	RECOG_CONF	n/a	LTP134	ltpFR	5	7	n/a	DEPUTY	450	3	n/a	n/a	n/a	n/a	n/a	n/a
3634416	RECOG_LURE	n/a	LTP134	ltpFR	5	7	n/a	CROOK	412	3	n/a	n/a	n/a	n/a	n/a	n/a
3635753	RECOG_RESP	n/a	LTP134	ltpFR	5	7	n/a	CROOK	412	n/a	n/a	n/a	n/a	n/a	n/a	n/a
3637069	RECOG_CONF	n/a	LTP134	ltpFR	5	7	n/a	CROOK	412	3	n/a	n/a	n/a	n/a	n/a	n/a
3638673	RECOG_LURE	n/a	LTP134	ltpFR	5	7	n/a	COAT	333	1	n/a	n/a	n/a	n/a	n/a	n/a
3639826	RECOG_RESP	n/a	LTP134	ltpFR	5	7	n/a	COAT	333	n/a	n/a	n/a	n/a	n/a	n/a	n/a
3640871	RECOG_CONF	n/a	LTP134	ltpFR	5	7	n/a	COAT	333	1	n/a	n/a	n/a	n/a	n/a	n/a
3642672	RECOG_LURE	n/a	LTP134	ltpFR	5	7	n/a	CAVE	263	1	n/a	n/a	n/a	n/a	n/a	n/a
3643547	RECOG_RESP	n/a	LTP134	ltpFR	5	7	n/a	CAVE	263	n/a	n/a	n/a	n/a	n/a	n/a	n/a
3644680	RECOG_CONF	n/a	LTP134	ltpFR	5	7	n/a	CAVE	263	1	n/a	n/a	n/a	n/a	n/a	n/a
3646237	RECOG_TARGET	n/a	LTP134	ltpFR	5	7	1	SENATE	1267	4	1	n/a	n/a	n/a	n/a	n/a
3647037	RECOG_RESP	n/a	LTP134	ltpFR	5	7	1	SENATE	1267	n/a	1	n/a	n/a	n/a	n/a	n/a
3647861	RECOG_CONF	n/a	LTP134	ltpFR	5	7	1	SENATE	1267	4	1	n/a	n/a	n/a	n/a	n/a
3660631	REC_START	n/a	LTP134	ltpFR	5	8	n/a	n/a	n/a	n/a	n/a	n/a	n/a	n/a	n/a	n/a
3660665	RECOG_TARGET	n/a	LTP134	ltpFR	5	8	0	SHIP	1286	4	1	n/a	n/a	n/a	n/a	n/a
3661427	RECOG_RESP	n/a	LTP134	ltpFR	5	8	0	SHIP	1286	n/a	1	n/a	n/a	n/a	n/a	n/a
3662441	RECOG_CONF	n/a	LTP134	ltpFR	5	8	0	SHIP	1286	4	1	n/a	n/a	n/a	n/a	n/a
3664082	RECOG_TARGET	n/a	LTP134	ltpFR	5	8	0	RAFT	1159	5	1	n/a	n/a	n/a	n/a	n/a
3664745	RECOG_RESP	n/a	LTP134	ltpFR	5	8	0	RAFT	1159	n/a	1	n/a	n/a	n/a	n/a	n/a
3665574	RECOG_CONF	n/a	LTP134	ltpFR	5	8	0	RAFT	1159	5	1	n/a	n/a	n/a	n/a	n/a
3667173	RECOG_TARGET	n/a	LTP134	ltpFR	5	8	1	COMMANDER	354	4	1	n/a	n/a	n/a	n/a	n/a
3667804	RECOG_RESP	n/a	LTP134	ltpFR	5	8	1	COMMANDER	354	n/a	1	n/a	n/a	n/a	n/a	n/a
3668667	RECOG_CONF	n/a	LTP134	ltpFR	5	8	1	COMMANDER	354	4	1	n/a	n/a	n/a	n/a	n/a
3670213	RECOG_LURE	n/a	LTP134	ltpFR	5	8	n/a	SAND	1230	1	n/a	n/a	n/a	n/a	n/a	n/a
3670965	RECOG_RESP	n/a	LTP134	ltpFR	5	8	n/a	SAND	1230	n/a	n/a	n/a	n/a	n/a	n/a	n/a
3671968	RECOG_CONF	n/a	LTP134	ltpFR	5	8	n/a	SAND	1230	1	n/a	n/a	n/a	n/a	n/a	n/a
3673569	RECOG_TARGET	n/a	LTP134	ltpFR	5	8	1	BISON	131	5	0	n/a	n/a	n/a	n/a	n/a
3674445	RECOG_RESP	n/a	LTP134	ltpFR	5	8	1	BISON	131	n/a	0	n/a	n/a	n/a	n/a	n/a
3675302	RECOG_CONF	n/a	LTP134	ltpFR	5	8	1	BISON	131	5	0	n/a	n/a	n/a	n/a	n/a
3677036	RECOG_TARGET	n/a	LTP134	ltpFR	5	8	1	STRAW	1390	4	0	n/a	n/a	n/a	n/a	n/a
3677700	RECOG_RESP	n/a	LTP134	ltpFR	5	8	1	STRAW	1390	n/a	0	n/a	n/a	n/a	n/a	n/a
3678495	RECOG_CONF	n/a	LTP134	ltpFR	5	8	1	STRAW	1390	4	0	n/a	n/a	n/a	n/a	n/a
3680210	RECOG_TARGET	n/a	LTP134	ltpFR	5	8	1	ANTEATER	26	4	1	n/a	n/a	n/a	n/a	n/a
3681016	RECOG_RESP	n/a	LTP134	ltpFR	5	8	1	ANTEATER	26	n/a	1	n/a	n/a	n/a	n/a	n/a
3681831	RECOG_CONF	n/a	LTP134	ltpFR	5	8	1	ANTEATER	26	4	1	n/a	n/a	n/a	n/a	n/a
3683557	RECOG_TARGET	n/a	LTP134	ltpFR	5	8	0	DEPARTMENT	449	5	1	n/a	n/a	n/a	n/a	n/a
3684329	RECOG_RESP	n/a	LTP134	ltpFR	5	8	0	DEPARTMENT	449	n/a	1	n/a	n/a	n/a	n/a	n/a
3685184	RECOG_CONF	n/a	LTP134	ltpFR	5	8	0	DEPARTMENT	449	5	1	n/a	n/a	n/a	n/a	n/a
3686764	RECOG_TARGET	n/a	LTP134	ltpFR	5	8	1	LASER	801	4	0	n/a	n/a	n/a	n/a	n/a
3687637	RECOG_RESP	n/a	LTP134	ltpFR	5	8	1	LASER	801	n/a	0	n/a	n/a	n/a	n/a	n/a
3688418	RECOG_CONF	n/a	LTP134	ltpFR	5	8	1	LASER	801	4	0	n/a	n/a	n/a	n/a	n/a
3690106	RECOG_TARGET	n/a	LTP134	ltpFR	5	8	1	SHORTCAKE	1292	4	1	n/a	n/a	n/a	n/a	n/a
3690844	RECOG_RESP	n/a	LTP134	ltpFR	5	8	1	SHORTCAKE	1292	n/a	1	n/a	n/a	n/a	n/a	n/a
3691605	RECOG_CONF	n/a	LTP134	ltpFR	5	8	1	SHORTCAKE	1292	4	1	n/a	n/a	n/a	n/a	n/a
3693138	RECOG_TARGET	n/a	LTP134	ltpFR	5	8	0	MEDAL	885	5	1	n/a	n/a	n/a	n/a	n/a
3693815	RECOG_RESP	n/a	LTP134	ltpFR	5	8	0	MEDAL	885	n/a	1	n/a	n/a	n/a	n/a	n/a
3694602	RECOG_CONF	n/a	LTP134	ltpFR	5	8	0	MEDAL	885	5	1	n/a	n/a	n/a	n/a	n/a
3696269	RECOG_TARGET	n/a	LTP134	ltpFR	5	8	1	DAUGHTER	442	2	1	n/a	n/a	n/a	n/a	n/a
3696912	RECOG_RESP	n/a	LTP134	ltpFR	5	8	1	DAUGHTER	442	n/a	1	n/a	n/a	n/a	n/a	n/a
3698151	RECOG_CONF	n/a	LTP134	ltpFR	5	8	1	DAUGHTER	442	2	1	n/a	n/a	n/a	n/a	n/a
3699752	RECOG_TARGET	n/a	LTP134	ltpFR	5	8	-1	CAPE	237	3	-1	n/a	n/a	n/a	n/a	n/a
3700510	RECOG_RESP	n/a	LTP134	ltpFR	5	8	-1	CAPE	237	n/a	-1	n/a	n/a	n/a	n/a	n/a
3701404	RECOG_CONF	n/a	LTP134	ltpFR	5	8	-1	CAPE	237	3	-1	n/a	n/a	n/a	n/a	n/a
3702967	RECOG_TARGET	n/a	LTP134	ltpFR	5	8	0	TELESCOPE	1446	4	1	n/a	n/a	n/a	n/a	n/a
3703561	RECOG_RESP	n/a	LTP134	ltpFR	5	8	0	TELESCOPE	1446	n/a	1	n/a	n/a	n/a	n/a	n/a
3704331	RECOG_CONF	n/a	LTP134	ltpFR	5	8	0	TELESCOPE	1446	4	1	n/a	n/a	n/a	n/a	n/a
3706025	RECOG_TARGET	n/a	LTP134	ltpFR	5	8	0	COLUMN	350	4	1	n/a	n/a	n/a	n/a	n/a
3706771	RECOG_RESP	n/a	LTP134	ltpFR	5	8	0	COLUMN	350	n/a	1	n/a	n/a	n/a	n/a	n/a
3707599	RECOG_CONF	n/a	LTP134	ltpFR	5	8	0	COLUMN	350	4	1	n/a	n/a	n/a	n/a	n/a
3709265	RECOG_LURE	n/a	LTP134	ltpFR	5	8	n/a	SCRIBBLE	1256	3	n/a	n/a	n/a	n/a	n/a	n/a
3710091	RECOG_RESP	n/a	LTP134	ltpFR	5	8	n/a	SCRIBBLE	1256	n/a	n/a	n/a	n/a	n/a	n/a	n/a
3711034	RECOG_CONF	n/a	LTP134	ltpFR	5	8	n/a	SCRIBBLE	1256	3	n/a	n/a	n/a	n/a	n/a	n/a
3712639	RECOG_LURE	n/a	LTP134	ltpFR	5	8	n/a	SYRINGE	1424	3	n/a	n/a	n/a	n/a	n/a	n/a
3713632	RECOG_RESP	n/a	LTP134	ltpFR	5	8	n/a	SYRINGE	1424	n/a	n/a	n/a	n/a	n/a	n/a	n/a
3714637	RECOG_CONF	n/a	LTP134	ltpFR	5	8	n/a	SYRINGE	1424	3	n/a	n/a	n/a	n/a	n/a	n/a
3716254	RECOG_TARGET	n/a	LTP134	ltpFR	5	8	-1	CORN	381	4	-1	n/a	n/a	n/a	n/a	n/a
3716984	RECOG_RESP	n/a	LTP134	ltpFR	5	8	-1	CORN	381	n/a	-1	n/a	n/a	n/a	n/a	n/a
3718061	RECOG_CONF	n/a	LTP134	ltpFR	5	8	-1	CORN	381	4	-1	n/a	n/a	n/a	n/a	n/a
3719769	RECOG_TARGET	n/a	LTP134	ltpFR	5	8	1	WALNUT	1584	4	0	n/a	n/a	n/a	n/a	n/a
3720436	RECOG_RESP	n/a	LTP134	ltpFR	5	8	1	WALNUT	1584	n/a	0	n/a	n/a	n/a	n/a	n/a
3721337	RECOG_CONF	n/a	LTP134	ltpFR	5	8	1	WALNUT	1584	4	0	n/a	n/a	n/a	n/a	n/a
3722977	RECOG_TARGET	n/a	LTP134	ltpFR	5	8	1	CHARCOAL	281	1	0	n/a	n/a	n/a	n/a	n/a
3723758	RECOG_RESP	n/a	LTP134	ltpFR	5	8	1	CHARCOAL	281	n/a	0	n/a	n/a	n/a	n/a	n/a
3725812	RECOG_CONF	n/a	LTP134	ltpFR	5	8	1	CHARCOAL	281	1	0	n/a	n/a	n/a	n/a	n/a
3760067	REC_START	n/a	LTP134	ltpFR	5	9	n/a	n/a	n/a	n/a	n/a	n/a	n/a	n/a	n/a	n/a
3760106	RECOG_LURE	n/a	LTP134	ltpFR	5	9	n/a	CARNIVAL	245	1	n/a	n/a	n/a	n/a	n/a	n/a
3761313	RECOG_RESP	n/a	LTP134	ltpFR	5	9	n/a	CARNIVAL	245	n/a	n/a	n/a	n/a	n/a	n/a	n/a
3762549	RECOG_CONF	n/a	LTP134	ltpFR	5	9	n/a	CARNIVAL	245	1	n/a	n/a	n/a	n/a	n/a	n/a
3764245	RECOG_TARGET	n/a	LTP134	ltpFR	5	9	1	WASP	1593	4	1	n/a	n/a	n/a	n/a	n/a
3765064	RECOG_RESP	n/a	LTP134	ltpFR	5	9	1	WASP	1593	n/a	1	n/a	n/a	n/a	n/a	n/a
3765849	RECOG_CONF	n/a	LTP134	ltpFR	5	9	1	WASP	1593	4	1	n/a	n/a	n/a	n/a	n/a
3767552	RECOG_TARGET	n/a	LTP134	ltpFR	5	9	0	BARLEY	88	2	0	n/a	n/a	n/a	n/a	n/a
3768654	RECOG_RESP	n/a	LTP134	ltpFR	5	9	0	BARLEY	88	n/a	0	n/a	n/a	n/a	n/a	n/a
3769874	RECOG_CONF	n/a	LTP134	ltpFR	5	9	0	BARLEY	88	2	0	n/a	n/a	n/a	n/a	n/a
3771476	RECOG_TARGET	n/a	LTP134	ltpFR	5	9	-1	SNAKE	1333	4	-1	n/a	n/a	n/a	n/a	n/a
3772773	RECOG_RESP	n/a	LTP134	ltpFR	5	9	-1	SNAKE	1333	n/a	-1	n/a	n/a	n/a	n/a	n/a
3773735	RECOG_CONF	n/a	LTP134	ltpFR	5	9	-1	SNAKE	1333	4	-1	n/a	n/a	n/a	n/a	n/a
3775500	RECOG_TARGET	n/a	LTP134	ltpFR	5	9	-1	FILM	565	1	-1	n/a	n/a	n/a	n/a	n/a
3776482	RECOG_RESP	n/a	LTP134	ltpFR	5	9	-1	FILM	565	n/a	-1	n/a	n/a	n/a	n/a	n/a
3777557	RECOG_CONF	n/a	LTP134	ltpFR	5	9	-1	FILM	565	1	-1	n/a	n/a	n/a	n/a	n/a
3779282	RECOG_TARGET	n/a	LTP134	ltpFR	5	9	0	SKUNK	1321	4	1	n/a	n/a	n/a	n/a	n/a
3780218	RECOG_RESP	n/a	LTP134	ltpFR	5	9	0	SKUNK	1321	n/a	1	n/a	n/a	n/a	n/a	n/a
3781206	RECOG_CONF	n/a	LTP134	ltpFR	5	9	0	SKUNK	1321	4	1	n/a	n/a	n/a	n/a	n/a
3782872	RECOG_TARGET	n/a	LTP134	ltpFR	5	9	0	BANANA	77	2	0	n/a	n/a	n/a	n/a	n/a
3784009	RECOG_RESP	n/a	LTP134	ltpFR	5	9	0	BANANA	77	n/a	0	n/a	n/a	n/a	n/a	n/a
3785005	RECOG_CONF	n/a	LTP134	ltpFR	5	9	0	BANANA	77	2	0	n/a	n/a	n/a	n/a	n/a
3786579	RECOG_LURE	n/a	LTP134	ltpFR	5	9	n/a	TWINE	1529	3	n/a	n/a	n/a	n/a	n/a	n/a
3787477	RECOG_RESP	n/a	LTP134	ltpFR	5	9	n/a	TWINE	1529	n/a	n/a	n/a	n/a	n/a	n/a	n/a
3788521	RECOG_CONF	n/a	LTP134	ltpFR	5	9	n/a	TWINE	1529	3	n/a	n/a	n/a	n/a	n/a	n/a
3790112	RECOG_TARGET	n/a	LTP134	ltpFR	5	9	-1	SURF	1412	4	-1	n/a	n/a	n/a	n/a	n/a
3790905	RECOG_RESP	n/a	LTP134	ltpFR	5	9	-1	SURF	1412	n/a	-1	n/a	n/a	n/a	n/a	n/a
3791769	RECOG_CONF	n/a	LTP134	ltpFR	5	9	-1	SURF	1412	4	-1	n/a	n/a	n/a	n/a	n/a
3793535	RECOG_TARGET	n/a	LTP134	ltpFR	5	9	-1	RAILROAD	1162	5	-1	n/a	n/a	n/a	n/a	n/a
3794242	RECOG_RESP	n/a	LTP134	ltpFR	5	9	-1	RAILROAD	1162	n/a	-1	n/a	n/a	n/a	n/a	n/a
3794952	RECOG_CONF	n/a	LTP134	ltpFR	5	9	-1	RAILROAD	1162	5	-1	n/a	n/a	n/a	n/a	n/a
3796834	RECOG_TARGET	n/a	LTP134	ltpFR	5	9	1	MUFFIN	929	5	0	n/a	n/a	n/a	n/a	n/a
3797592	RECOG_RESP	n/a	LTP134	ltpFR	5	9	1	MUFFIN	929	n/a	0	n/a	n/a	n/a	n/a	n/a
3798320	RECOG_CONF	n/a	LTP134	ltpFR	5	9	1	MUFFIN	929	5	0	n/a	n/a	n/a	n/a	n/a
3800316	RECOG_LURE	n/a	LTP134	ltpFR	5	9	n/a	LOCK	838	1	n/a	n/a	n/a	n/a	n/a	n/a
