mstime	trial_type	stim_file	subject	experiment	session	trial	task	item_name	item_num	recog_resp	recog_conf	resp	color_r	color_g	color_b	case	font
0	SESS_START	n/a	LTP173	ltpFR	5	n/a	n/a	n/a	n/a	1	3	n/a	n/a	n/a	n/a	n/a	n/a
192211	WORD	wordpools/wasnorm_wordpool_less_exclusions.txt	LTP173	ltpFR	5	1	1	GYMNAST	675	1	5	1	0.422607421875	0.5869140625	0	upper	zerothre.ttf
196393	WORD	wordpools/wasnorm_wordpool_less_exclusions.txt	LTP173	ltpFR	5	1	1	ARENA	37	1	5	0	0.422607421875	0.5869140625	0	upper	zerothre.ttf
200225	WORD	wordpools/wasnorm_wordpool_less_exclusions.txt	LTP173	ltpFR	5	1	0	BRUNETTE	181	1	n/a	3	0.57763671875	0.412841796875	1	lower	amplitud.ttf
202357	KEY_MSG	n/a	LTP173	ltpFR	5	1	n/a	n/a	n/a	n/a	n/a	n/a	n/a	n/a	n/a	n/a	n/a
205056	WORD	wordpools/wasnorm_wordpool_less_exclusions.txt	LTP173	ltpFR	5	1	0	TEMPLE	1448	n/a	n/a	1	0.57763671875	0.412841796875	1	lower	amplitud.ttf
208980	WORD	wordpools/wasnorm_wordpool_less_exclusions.txt	LTP173	ltpFR	5	1	0	DOG	480	n/a	n/a	3	0.57763671875	0.412841796875	1	lower	amplitud.ttf
211012	KEY_MSG	n/a	LTP173	ltpFR	5	1	n/a	n/a	n/a	n/a	n/a	n/a	n/a	n/a	n/a	n/a	n/a
213588	WORD	wordpools/wasnorm_wordpool_less_exclusions.txt	LTP173	ltpFR	5	1	0	PUPPY	1144	n/a	n/a	1	0.57763671875	0.412841796875	1	lower	amplitud.ttf
217743	WORD	wordpools/wasnorm_wordpool_less_exclusions.txt	LTP173	ltpFR	5	1	0	WASHCLOTH	1591	n/a	n/a	0	0.57763671875	0.412841796875	1	lower	amplitud.ttf
221618	WORD	wordpools/wasnorm_wordpool_less_exclusions.txt	LTP173	ltpFR	5	1	1	SPHINX	1349	n/a	n/a	0	0.422607421875	0.5869140625	0	upper	zerothre.ttf
225799	WORD	wordpools/wasnorm_wordpool_less_exclusions.txt	LTP173	ltpFR	5	1	1	WINDSHIELD	1612	n/a	n/a	0	0.422607421875	0.5869140625	0	upper	zerothre.ttf
229674	WORD	wordpools/wasnorm_wordpool_less_exclusions.txt	LTP173	ltpFR	5	1	0	BUGGY	188	n/a	n/a	0	0.57763671875	0.412841796875	1	lower	amplitud.ttf
233514	WORD	wordpools/wasnorm_wordpool_less_exclusions.txt	LTP173	ltpFR	5	1	0	STAKE	1368	n/a	n/a	0	0.57763671875	0.412841796875	1	lower	amplitud.ttf
237571	WORD	wordpools/wasnorm_wordpool_less_exclusions.txt	LTP173	ltpFR	5	1	0	GRAPE	654	n/a	n/a	0	0.57763671875	0.412841796875	1	lower	amplitud.ttf
241553	WORD	wordpools/wasnorm_wordpool_less_exclusions.txt	LTP173	ltpFR	5	1	1	ANTEATER	26	n/a	n/a	1	0.422607421875	0.5869140625	0	upper	zerothre.ttf
245685	WORD	wordpools/wasnorm_wordpool_less_exclusions.txt	LTP173	ltpFR	5	1	1	WASP	1593	n/a	n/a	1	0.422607421875	0.5869140625	0	upper	zerothre.ttf
249874	WORD	wordpools/wasnorm_wordpool_less_exclusions.txt	LTP173	ltpFR	5	1	1	JUGGLER	763	n/a	n/a	1	0.422607421875	0.5869140625	0	upper	zerothre.ttf
253939	WORD	wordpools/wasnorm_wordpool_less_exclusions.txt	LTP173	ltpFR	5	1	1	NET	946	n/a	n/a	0	0.422607421875	0.5869140625	0	upper	zerothre.ttf
259655	REC_START	n/a	LTP173	ltpFR	5	1	n/a	n/a	n/a	n/a	n/a	n/a	n/a	n/a	n/a	n/a	n/a
261376	REC_WORD	wordpools/wasnorm_wordpool_less_exclusions.txt	LTP173	ltpFR	5	1	1	JUGGLER	763	n/a	n/a	1	n/a	n/a	n/a	n/a	n/a
262224	REC_WORD	wordpools/wasnorm_wordpool_less_exclusions.txt	LTP173	ltpFR	5	1	1	NET	946	n/a	n/a	0	n/a	n/a	n/a	n/a	n/a
263182	REC_WORD	wordpools/wasnorm_wordpool_less_exclusions.txt	LTP173	ltpFR	5	1	0	DOG	480	n/a	n/a	3	n/a	n/a	n/a	n/a	n/a
264484	REC_WORD	wordpools/wasnorm_wordpool_less_exclusions.txt	LTP173	ltpFR	5	1	0	PUPPY	1144	n/a	n/a	1	n/a	n/a	n/a	n/a	n/a
270941	REC_WORD_VV	wordpools/wasnorm_wordpool_less_exclusions.txt	LTP173	ltpFR	5	1	n/a	<>	-1	n/a	n/a	n/a	n/a	n/a	n/a	n/a	n/a
271767	REC_WORD	wordpools/wasnorm_wordpool_less_exclusions.txt	LTP173	ltpFR	5	1	1	ANTEATER	26	n/a	n/a	1	n/a	n/a	n/a	n/a	n/a
272767	REC_WORD_VV	wordpools/wasnorm_wordpool_less_exclusions.txt	LTP173	ltpFR	5	1	n/a	<>	-1	n/a	n/a	n/a	n/a	n/a	n/a	n/a	n/a
274212	REC_WORD	wordpools/wasnorm_wordpool_less_exclusions.txt	LTP173	ltpFR	5	1	1	WASP	1593	n/a	n/a	1	n/a	n/a	n/a	n/a	n/a
277155	REC_WORD	wordpools/wasnorm_wordpool_less_exclusions.txt	LTP173	ltpFR	5	1	1	NET	946	n/a	n/a	0	n/a	n/a	n/a	n/a	n/a
311826	REC_WORD	wordpools/wasnorm_wordpool_less_exclusions.txt	LTP173	ltpFR	5	1	1	JUGGLER	763	n/a	n/a	1	n/a	n/a	n/a	n/a	n/a
322239	REC_WORD_VV	wordpools/wasnorm_wordpool_less_exclusions.txt	LTP173	ltpFR	5	1	n/a	<>	-1	n/a	n/a	n/a	n/a	n/a	n/a	n/a	n/a
323129	REC_WORD	wordpools/wasnorm_wordpool_less_exclusions.txt	LTP173	ltpFR	5	1	0	DOG	480	n/a	n/a	3	n/a	n/a	n/a	n/a	n/a
323578	REC_WORD	wordpools/wasnorm_wordpool_less_exclusions.txt	LTP173	ltpFR	5	1	0	PUPPY	1144	n/a	n/a	1	n/a	n/a	n/a	n/a	n/a
331815	REC_WORD	wordpools/wasnorm_wordpool_less_exclusions.txt	LTP173	ltpFR	5	1	n/a	NEST	945	n/a	n/a	n/a	n/a	n/a	n/a	n/a	n/a
341634	WORD	wordpools/wasnorm_wordpool_less_exclusions.txt	LTP173	ltpFR	5	2	0	FLEET	578	n/a	n/a	0	0.57763671875	0.412841796875	1	lower	amplitud.ttf
345716	WORD	wordpools/wasnorm_wordpool_less_exclusions.txt	LTP173	ltpFR	5	2	0	MILITARY	894	n/a	n/a	1	0.57763671875	0.412841796875	1	lower	amplitud.ttf
349714	WORD	wordpools/wasnorm_wordpool_less_exclusions.txt	LTP173	ltpFR	5	2	0	HOOK	715	n/a	n/a	0	0.57763671875	0.412841796875	1	lower	amplitud.ttf
353870	WORD	wordpools/wasnorm_wordpool_less_exclusions.txt	LTP173	ltpFR	5	2	0	MUG	930	n/a	n/a	0	0.57763671875	0.412841796875	1	lower	amplitud.ttf
357769	WORD	wordpools/wasnorm_wordpool_less_exclusions.txt	LTP173	ltpFR	5	2	0	SPATULA	1348	n/a	n/a	0	0.57763671875	0.412841796875	1	lower	amplitud.ttf
361627	WORD	wordpools/wasnorm_wordpool_less_exclusions.txt	LTP173	ltpFR	5	2	1	CROWN	415	n/a	n/a	0	0.422607421875	0.5869140625	0	upper	zerothre.ttf
365584	WORD	wordpools/wasnorm_wordpool_less_exclusions.txt	LTP173	ltpFR	5	2	1	CLAMP	316	n/a	n/a	0	0.422607421875	0.5869140625	0	upper	zerothre.ttf
369440	WORD	wordpools/wasnorm_wordpool_less_exclusions.txt	LTP173	ltpFR	5	2	1	SALOON	1228	n/a	n/a	0	0.422607421875	0.5869140625	0	upper	zerothre.ttf
373346	WORD	wordpools/wasnorm_wordpool_less_exclusions.txt	LTP173	ltpFR	5	2	1	SHORTCAKE	1292	n/a	n/a	0	0.422607421875	0.5869140625	0	upper	zerothre.ttf
377529	WORD	wordpools/wasnorm_wordpool_less_exclusions.txt	LTP173	ltpFR	5	2	1	CUSTARD	429	n/a	n/a	0	0.422607421875	0.5869140625	0	upper	zerothre.ttf
381578	WORD	wordpools/wasnorm_wordpool_less_exclusions.txt	LTP173	ltpFR	5	2	0	CHICKEN	297	n/a	n/a	1	0.57763671875	0.412841796875	1	lower	amplitud.ttf
385742	WORD	wordpools/wasnorm_wordpool_less_exclusions.txt	LTP173	ltpFR	5	2	0	SALMON	1227	n/a	n/a	n/a	0.57763671875	0.412841796875	1	lower	amplitud.ttf
388766	SLOW_MSG	n/a	LTP173	ltpFR	5	2	n/a	n/a	n/a	n/a	n/a	n/a	n/a	n/a	n/a	n/a	n/a
391257	WORD	wordpools/wasnorm_wordpool_less_exclusions.txt	LTP173	ltpFR	5	2	0	TAIL	1430	n/a	n/a	0	0.57763671875	0.412841796875	1	lower	amplitud.ttf
395455	WORD	wordpools/wasnorm_wordpool_less_exclusions.txt	LTP173	ltpFR	5	2	1	FOX	598	n/a	n/a	1	0.422607421875	0.5869140625	0	upper	zerothre.ttf
399329	WORD	wordpools/wasnorm_wordpool_less_exclusions.txt	LTP173	ltpFR	5	2	1	COD	340	n/a	n/a	0	0.422607421875	0.5869140625	0	upper	zerothre.ttf
403377	WORD	wordpools/wasnorm_wordpool_less_exclusions.txt	LTP173	ltpFR	5	2	1	CLERK	321	n/a	n/a	1	0.422607421875	0.5869140625	0	upper	zerothre.ttf
409343	REC_START	n/a	LTP173	ltpFR	5	2	n/a	n/a	n/a	n/a	n/a	n/a	n/a	n/a	n/a	n/a	n/a
409531	REC_WORD_VV	wordpools/wasnorm_wordpool_less_exclusions.txt	LTP173	ltpFR	5	2	n/a	<>	-1	n/a	n/a	n/a	n/a	n/a	n/a	n/a	n/a
409931	REC_WORD	wordpools/wasnorm_wordpool_less_exclusions.txt	LTP173	ltpFR	5	2	1	COD	340	n/a	n/a	0	n/a	n/a	n/a	n/a	n/a
410759	REC_WORD	wordpools/wasnorm_wordpool_less_exclusions.txt	LTP173	ltpFR	5	2	1	CLERK	321	n/a	n/a	1	n/a	n/a	n/a	n/a	n/a
411916	REC_WORD	wordpools/wasnorm_wordpool_less_exclusions.txt	LTP173	ltpFR	5	2	1	FOX	598	n/a	n/a	1	n/a	n/a	n/a	n/a	n/a
412916	REC_WORD_VV	wordpools/wasnorm_wordpool_less_exclusions.txt	LTP173	ltpFR	5	2	n/a	<>	-1	n/a	n/a	n/a	n/a	n/a	n/a	n/a	n/a
430821	REC_WORD	wordpools/wasnorm_wordpool_less_exclusions.txt	LTP173	ltpFR	5	2	1	FOX	598	n/a	n/a	1	n/a	n/a	n/a	n/a	n/a
433985	REC_WORD_VV	wordpools/wasnorm_wordpool_less_exclusions.txt	LTP173	ltpFR	5	2	n/a	<>	-1	n/a	n/a	n/a	n/a	n/a	n/a	n/a	n/a
441040	REC_WORD	wordpools/wasnorm_wordpool_less_exclusions.txt	LTP173	ltpFR	5	2	0	MUG	930	n/a	n/a	0	n/a	n/a	n/a	n/a	n/a
452345	REC_WORD	wordpools/wasnorm_wordpool_less_exclusions.txt	LTP173	ltpFR	5	2	0	SALMON	1227	n/a	n/a	n/a	n/a	n/a	n/a	n/a	n/a
460940	REC_WORD	wordpools/wasnorm_wordpool_less_exclusions.txt	LTP173	ltpFR	5	2	0	HOOK	715	n/a	n/a	0	n/a	n/a	n/a	n/a	n/a
476545	REC_WORD	wordpools/wasnorm_wordpool_less_exclusions.txt	LTP173	ltpFR	5	2	0	TAIL	1430	n/a	n/a	0	n/a	n/a	n/a	n/a	n/a
489980	WORD	wordpools/wasnorm_wordpool_less_exclusions.txt	LTP173	ltpFR	5	3	-1	DAM	436	n/a	n/a	-1	1.0	1.0	1	upper	Verdana.ttf
494112	WORD	wordpools/wasnorm_wordpool_less_exclusions.txt	LTP173	ltpFR	5	3	-1	BED	110	n/a	n/a	-1	1.0	1.0	1	upper	Verdana.ttf
498044	WORD	wordpools/wasnorm_wordpool_less_exclusions.txt	LTP173	ltpFR	5	3	-1	LOFT	840	n/a	n/a	-1	1.0	1.0	1	upper	Verdana.ttf
501967	WORD	wordpools/wasnorm_wordpool_less_exclusions.txt	LTP173	ltpFR	5	3	-1	PARTY	1018	n/a	n/a	-1	1.0	1.0	1	upper	Verdana.ttf
506008	WORD	wordpools/wasnorm_wordpool_less_exclusions.txt	LTP173	ltpFR	5	3	-1	RIVER	1194	n/a	n/a	-1	1.0	1.0	1	upper	Verdana.ttf
510073	WORD	wordpools/wasnorm_wordpool_less_exclusions.txt	LTP173	ltpFR	5	3	-1	HOME	712	n/a	n/a	-1	1.0	1.0	1	upper	Verdana.ttf
514088	WORD	wordpools/wasnorm_wordpool_less_exclusions.txt	LTP173	ltpFR	5	3	-1	RUST	1219	n/a	n/a	-1	1.0	1.0	1	upper	Verdana.ttf
518020	WORD	wordpools/wasnorm_wordpool_less_exclusions.txt	LTP173	ltpFR	5	3	-1	GUITAR	670	n/a	n/a	-1	1.0	1.0	1	upper	Verdana.ttf
521885	WORD	wordpools/wasnorm_wordpool_less_exclusions.txt	LTP173	ltpFR	5	3	-1	KEYBOARD	774	n/a	n/a	-1	1.0	1.0	1	upper	Verdana.ttf
525817	WORD	wordpools/wasnorm_wordpool_less_exclusions.txt	LTP173	ltpFR	5	3	-1	CARNIVAL	245	n/a	n/a	-1	1.0	1.0	1	upper	Verdana.ttf
529941	WORD	wordpools/wasnorm_wordpool_less_exclusions.txt	LTP173	ltpFR	5	3	-1	COMPANION	357	n/a	n/a	-1	1.0	1.0	1	upper	Verdana.ttf
534106	WORD	wordpools/wasnorm_wordpool_less_exclusions.txt	LTP173	ltpFR	5	3	-1	ALBUM	14	n/a	n/a	-1	1.0	1.0	1	upper	Verdana.ttf
538130	WORD	wordpools/wasnorm_wordpool_less_exclusions.txt	LTP173	ltpFR	5	3	-1	BRACELET	163	n/a	n/a	-1	1.0	1.0	1	upper	Verdana.ttf
542145	WORD	wordpools/wasnorm_wordpool_less_exclusions.txt	LTP173	ltpFR	5	3	-1	NAPKIN	937	n/a	n/a	-1	1.0	1.0	1	upper	Verdana.ttf
546177	WORD	wordpools/wasnorm_wordpool_less_exclusions.txt	LTP173	ltpFR	5	3	-1	MAGAZINE	853	n/a	n/a	-1	1.0	1.0	1	upper	Verdana.ttf
550234	WORD	wordpools/wasnorm_wordpool_less_exclusions.txt	LTP173	ltpFR	5	3	-1	YARN	1631	n/a	n/a	-1	1.0	1.0	1	upper	Verdana.ttf
556149	REC_START	n/a	LTP173	ltpFR	5	3	n/a	n/a	n/a	n/a	n/a	n/a	n/a	n/a	n/a	n/a	n/a
556398	REC_WORD	wordpools/wasnorm_wordpool_less_exclusions.txt	LTP173	ltpFR	5	3	-1	COMPANION	357	n/a	n/a	-1	n/a	n/a	n/a	n/a	n/a
557443	REC_WORD	wordpools/wasnorm_wordpool_less_exclusions.txt	LTP173	ltpFR	5	3	-1	MAGAZINE	853	n/a	n/a	-1	n/a	n/a	n/a	n/a	n/a
559047	REC_WORD	wordpools/wasnorm_wordpool_less_exclusions.txt	LTP173	ltpFR	5	3	-1	YARN	1631	n/a	n/a	-1	n/a	n/a	n/a	n/a	n/a
560524	REC_WORD	wordpools/wasnorm_wordpool_less_exclusions.txt	LTP173	ltpFR	5	3	-1	BED	110	n/a	n/a	-1	n/a	n/a	n/a	n/a	n/a
561836	REC_WORD	wordpools/wasnorm_wordpool_less_exclusions.txt	LTP173	ltpFR	5	3	-1	LOFT	840	n/a	n/a	-1	n/a	n/a	n/a	n/a	n/a
563183	REC_WORD	wordpools/wasnorm_wordpool_less_exclusions.txt	LTP173	ltpFR	5	3	-1	PARTY	1018	n/a	n/a	-1	n/a	n/a	n/a	n/a	n/a
575357	REC_WORD_VV	wordpools/wasnorm_wordpool_less_exclusions.txt	LTP173	ltpFR	5	3	n/a	<>	-1	n/a	n/a	n/a	n/a	n/a	n/a	n/a	n/a
576357	REC_WORD_VV	wordpools/wasnorm_wordpool_less_exclusions.txt	LTP173	ltpFR	5	3	n/a	<>	-1	n/a	n/a	n/a	n/a	n/a	n/a	n/a	n/a
579270	REC_WORD_VV	wordpools/wasnorm_wordpool_less_exclusions.txt	LTP173	ltpFR	5	3	n/a	<>	-1	n/a	n/a	n/a	n/a	n/a	n/a	n/a	n/a
582190	REC_WORD	wordpools/wasnorm_wordpool_less_exclusions.txt	LTP173	ltpFR	5	3	-1	BRACELET	163	n/a	n/a	-1	n/a	n/a	n/a	n/a	n/a
586021	REC_WORD	wordpools/wasnorm_wordpool_less_exclusions.txt	LTP173	ltpFR	5	3	-1	KEYBOARD	774	n/a	n/a	-1	n/a	n/a	n/a	n/a	n/a
596517	REC_WORD_VV	wordpools/wasnorm_wordpool_less_exclusions.txt	LTP173	ltpFR	5	3	n/a	<>	-1	n/a	n/a	n/a	n/a	n/a	n/a	n/a	n/a
600443	REC_WORD	wordpools/wasnorm_wordpool_less_exclusions.txt	LTP173	ltpFR	5	3	1	CUSTARD	429	n/a	n/a	0	n/a	n/a	n/a	n/a	n/a
606320	REC_WORD	wordpools/wasnorm_wordpool_less_exclusions.txt	LTP173	ltpFR	5	3	-1	LOFT	840	n/a	n/a	-1	n/a	n/a	n/a	n/a	n/a
616796	REC_WORD	wordpools/wasnorm_wordpool_less_exclusions.txt	LTP173	ltpFR	5	3	-1	GUITAR	670	n/a	n/a	-1	n/a	n/a	n/a	n/a	n/a
621475	REC_WORD	wordpools/wasnorm_wordpool_less_exclusions.txt	LTP173	ltpFR	5	3	-1	RUST	1219	n/a	n/a	-1	n/a	n/a	n/a	n/a	n/a
629736	REC_WORD	wordpools/wasnorm_wordpool_less_exclusions.txt	LTP173	ltpFR	5	3	-1	YARN	1631	n/a	n/a	-1	n/a	n/a	n/a	n/a	n/a
656104	WORD	wordpools/wasnorm_wordpool_less_exclusions.txt	LTP173	ltpFR	5	4	1	TIMBER	1469	n/a	n/a	n/a	0.422607421875	0.5869140625	0	upper	zerothre.ttf
659128	SLOW_MSG	n/a	LTP173	ltpFR	5	4	n/a	n/a	n/a	n/a	n/a	n/a	n/a	n/a	n/a	n/a	n/a
661520	WORD	wordpools/wasnorm_wordpool_less_exclusions.txt	LTP173	ltpFR	5	4	1	SLACKS	1323	n/a	n/a	n/a	0.422607421875	0.5869140625	0	upper	zerothre.ttf
664544	SLOW_MSG	n/a	LTP173	ltpFR	5	4	n/a	n/a	n/a	n/a	n/a	n/a	n/a	n/a	n/a	n/a	n/a
666984	WORD	wordpools/wasnorm_wordpool_less_exclusions.txt	LTP173	ltpFR	5	4	1	LEOPARD	812	n/a	n/a	0	0.422607421875	0.5869140625	0	upper	zerothre.ttf
671182	WORD	wordpools/wasnorm_wordpool_less_exclusions.txt	LTP173	ltpFR	5	4	1	PORK	1108	n/a	n/a	n/a	0.422607421875	0.5869140625	0	upper	zerothre.ttf
674206	SLOW_MSG	n/a	LTP173	ltpFR	5	4	n/a	n/a	n/a	n/a	n/a	n/a	n/a	n/a	n/a	n/a	n/a
676872	WORD	wordpools/wasnorm_wordpool_less_exclusions.txt	LTP173	ltpFR	5	4	1	RADIO	1157	n/a	n/a	n/a	0.422607421875	0.5869140625	0	upper	zerothre.ttf
679896	SLOW_MSG	n/a	LTP173	ltpFR	5	4	n/a	n/a	n/a	n/a	n/a	n/a	n/a	n/a	n/a	n/a	n/a
682478	WORD	wordpools/wasnorm_wordpool_less_exclusions.txt	LTP173	ltpFR	5	4	1	PICNIC	1060	n/a	n/a	n/a	0.422607421875	0.5869140625	0	upper	zerothre.ttf
685503	SLOW_MSG	n/a	LTP173	ltpFR	5	4	n/a	n/a	n/a	n/a	n/a	n/a	n/a	n/a	n/a	n/a	n/a
688110	WORD	wordpools/wasnorm_wordpool_less_exclusions.txt	LTP173	ltpFR	5	4	1	LIMB	822	n/a	n/a	0	0.422607421875	0.5869140625	0	upper	zerothre.ttf
691992	WORD	wordpools/wasnorm_wordpool_less_exclusions.txt	LTP173	ltpFR	5	4	1	ROOT	1210	n/a	n/a	n/a	0.422607421875	0.5869140625	0	upper	zerothre.ttf
695015	SLOW_MSG	n/a	LTP173	ltpFR	5	4	n/a	n/a	n/a	n/a	n/a	n/a	n/a	n/a	n/a	n/a	n/a
697431	WORD	wordpools/wasnorm_wordpool_less_exclusions.txt	LTP173	ltpFR	5	4	1	VIKING	1565	n/a	n/a	0	0.422607421875	0.5869140625	0	upper	zerothre.ttf
701288	WORD	wordpools/wasnorm_wordpool_less_exclusions.txt	LTP173	ltpFR	5	4	1	BEAVER	109	n/a	n/a	0	0.422607421875	0.5869140625	0	upper	zerothre.ttf
705312	WORD	wordpools/wasnorm_wordpool_less_exclusions.txt	LTP173	ltpFR	5	4	1	ROBE	1198	n/a	n/a	n/a	0.422607421875	0.5869140625	0	upper	zerothre.ttf
708336	SLOW_MSG	n/a	LTP173	ltpFR	5	4	n/a	n/a	n/a	n/a	n/a	n/a	n/a	n/a	n/a	n/a	n/a
710793	WORD	wordpools/wasnorm_wordpool_less_exclusions.txt	LTP173	ltpFR	5	4	1	CORAL	378	n/a	n/a	n/a	0.422607421875	0.5869140625	0	upper	zerothre.ttf
713817	SLOW_MSG	n/a	LTP173	ltpFR	5	4	n/a	n/a	n/a	n/a	n/a	n/a	n/a	n/a	n/a	n/a	n/a
716283	WORD	wordpools/wasnorm_wordpool_less_exclusions.txt	LTP173	ltpFR	5	4	1	OCEAN	970	n/a	n/a	n/a	0.422607421875	0.5869140625	0	upper	zerothre.ttf
719307	SLOW_MSG	n/a	LTP173	ltpFR	5	4	n/a	n/a	n/a	n/a	n/a	n/a	n/a	n/a	n/a	n/a	n/a
721748	WORD	wordpools/wasnorm_wordpool_less_exclusions.txt	LTP173	ltpFR	5	4	1	OATMEAL	967	n/a	n/a	n/a	0.422607421875	0.5869140625	0	upper	zerothre.ttf
724772	SLOW_MSG	n/a	LTP173	ltpFR	5	4	n/a	n/a	n/a	n/a	n/a	n/a	n/a	n/a	n/a	n/a	n/a
727221	WORD	wordpools/wasnorm_wordpool_less_exclusions.txt	LTP173	ltpFR	5	4	1	RESTAURANT	1187	n/a	n/a	0	0.422607421875	0.5869140625	0	upper	zerothre.ttf
731228	WORD	wordpools/wasnorm_wordpool_less_exclusions.txt	LTP173	ltpFR	5	4	1	ELM	527	n/a	n/a	0	0.422607421875	0.5869140625	0	upper	zerothre.ttf
737034	REC_START	n/a	LTP173	ltpFR	5	4	n/a	n/a	n/a	n/a	n/a	n/a	n/a	n/a	n/a	n/a	n/a
737542	REC_WORD_VV	wordpools/wasnorm_wordpool_less_exclusions.txt	LTP173	ltpFR	5	4	n/a	<>	-1	n/a	n/a	n/a	n/a	n/a	n/a	n/a	n/a
738335	REC_WORD	wordpools/wasnorm_wordpool_less_exclusions.txt	LTP173	ltpFR	5	4	1	RESTAURANT	1187	n/a	n/a	0	n/a	n/a	n/a	n/a	n/a
739673	REC_WORD	wordpools/wasnorm_wordpool_less_exclusions.txt	LTP173	ltpFR	5	4	1	ELM	527	n/a	n/a	0	n/a	n/a	n/a	n/a	n/a
742257	REC_WORD	wordpools/wasnorm_wordpool_less_exclusions.txt	LTP173	ltpFR	5	4	1	PORK	1108	n/a	n/a	n/a	n/a	n/a	n/a	n/a	n/a
748154	REC_WORD	wordpools/wasnorm_wordpool_less_exclusions.txt	LTP173	ltpFR	5	4	1	BEAVER	109	n/a	n/a	0	n/a	n/a	n/a	n/a	n/a
765307	REC_WORD_VV	wordpools/wasnorm_wordpool_less_exclusions.txt	LTP173	ltpFR	5	4	n/a	<>	-1	n/a	n/a	n/a	n/a	n/a	n/a	n/a	n/a
776898	REC_WORD_VV	wordpools/wasnorm_wordpool_less_exclusions.txt	LTP173	ltpFR	5	4	n/a	<>	-1	n/a	n/a	n/a	n/a	n/a	n/a	n/a	n/a
785454	REC_WORD	wordpools/wasnorm_wordpool_less_exclusions.txt	LTP173	ltpFR	5	4	n/a	SHIRT	1287	n/a	n/a	n/a	n/a	n/a	n/a	n/a	n/a
798763	REC_WORD	wordpools/wasnorm_wordpool_less_exclusions.txt	LTP173	ltpFR	5	4	1	CUSTARD	429	n/a	n/a	0	n/a	n/a	n/a	n/a	n/a
800006	REC_WORD_VV	wordpools/wasnorm_wordpool_less_exclusions.txt	LTP173	ltpFR	5	4	n/a	<>	-1	n/a	n/a	n/a	n/a	n/a	n/a	n/a	n/a
811124	REC_WORD_VV	wordpools/wasnorm_wordpool_less_exclusions.txt	LTP173	ltpFR	5	4	n/a	<>	-1	n/a	n/a	n/a	n/a	n/a	n/a	n/a	n/a
839073	WORD	wordpools/wasnorm_wordpool_less_exclusions.txt	LTP173	ltpFR	5	5	1	CEILING	265	n/a	n/a	1	0.422607421875	0.5869140625	0	upper	zerothre.ttf
843171	WORD	wordpools/wasnorm_wordpool_less_exclusions.txt	LTP173	ltpFR	5	5	1	GAVEL	627	n/a	n/a	1	0.422607421875	0.5869140625	0	upper	zerothre.ttf
847170	WORD	wordpools/wasnorm_wordpool_less_exclusions.txt	LTP173	ltpFR	5	5	1	ROBIN	1199	n/a	n/a	n/a	0.422607421875	0.5869140625	0	upper	zerothre.ttf
850194	SLOW_MSG	n/a	LTP173	ltpFR	5	5	n/a	n/a	n/a	n/a	n/a	n/a	n/a	n/a	n/a	n/a	n/a
852669	WORD	wordpools/wasnorm_wordpool_less_exclusions.txt	LTP173	ltpFR	5	5	1	WALRUS	1585	n/a	n/a	n/a	0.422607421875	0.5869140625	0	upper	zerothre.ttf
855693	SLOW_MSG	n/a	LTP173	ltpFR	5	5	n/a	n/a	n/a	n/a	n/a	n/a	n/a	n/a	n/a	n/a	n/a
858149	WORD	wordpools/wasnorm_wordpool_less_exclusions.txt	LTP173	ltpFR	5	5	1	MEDAL	885	n/a	n/a	0	0.422607421875	0.5869140625	0	upper	zerothre.ttf
862223	WORD	wordpools/wasnorm_wordpool_less_exclusions.txt	LTP173	ltpFR	5	5	0	MINER	896	n/a	n/a	1	0.57763671875	0.412841796875	1	lower	amplitud.ttf
866163	WORD	wordpools/wasnorm_wordpool_less_exclusions.txt	LTP173	ltpFR	5	5	0	PAGE	1001	n/a	n/a	0	0.57763671875	0.412841796875	1	lower	amplitud.ttf
870028	WORD	wordpools/wasnorm_wordpool_less_exclusions.txt	LTP173	ltpFR	5	5	0	CITIZEN	312	n/a	n/a	1	0.57763671875	0.412841796875	1	lower	amplitud.ttf
874127	WORD	wordpools/wasnorm_wordpool_less_exclusions.txt	LTP173	ltpFR	5	5	0	SEED	1266	n/a	n/a	0	0.57763671875	0.412841796875	1	lower	amplitud.ttf
878100	WORD	wordpools/wasnorm_wordpool_less_exclusions.txt	LTP173	ltpFR	5	5	1	GARDEN	623	n/a	n/a	1	0.422607421875	0.5869140625	0	upper	zerothre.ttf
882249	WORD	wordpools/wasnorm_wordpool_less_exclusions.txt	LTP173	ltpFR	5	5	1	SHELF	1280	n/a	n/a	0	0.422607421875	0.5869140625	0	upper	zerothre.ttf
886264	WORD	wordpools/wasnorm_wordpool_less_exclusions.txt	LTP173	ltpFR	5	5	1	GENTLEMAN	631	n/a	n/a	1	0.422607421875	0.5869140625	0	upper	zerothre.ttf
890471	WORD	wordpools/wasnorm_wordpool_less_exclusions.txt	LTP173	ltpFR	5	5	0	HUMAN	726	n/a	n/a	1	0.57763671875	0.412841796875	1	lower	amplitud.ttf
894386	WORD	wordpools/wasnorm_wordpool_less_exclusions.txt	LTP173	ltpFR	5	5	0	CELLAR	267	n/a	n/a	1	0.57763671875	0.412841796875	1	lower	amplitud.ttf
898243	WORD	wordpools/wasnorm_wordpool_less_exclusions.txt	LTP173	ltpFR	5	5	0	ROCK	1201	n/a	n/a	1	0.57763671875	0.412841796875	1	lower	amplitud.ttf
902067	WORD	wordpools/wasnorm_wordpool_less_exclusions.txt	LTP173	ltpFR	5	5	0	LIVER	833	n/a	n/a	1	0.57763671875	0.412841796875	1	lower	amplitud.ttf
907625	REC_START	n/a	LTP173	ltpFR	5	5	n/a	n/a	n/a	n/a	n/a	n/a	n/a	n/a	n/a	n/a	n/a
908128	REC_WORD	wordpools/wasnorm_wordpool_less_exclusions.txt	LTP173	ltpFR	5	5	0	LIVER	833	n/a	n/a	1	n/a	n/a	n/a	n/a	n/a
909501	REC_WORD	wordpools/wasnorm_wordpool_less_exclusions.txt	LTP173	ltpFR	5	5	0	ROCK	1201	n/a	n/a	1	n/a	n/a	n/a	n/a	n/a
910703	REC_WORD	wordpools/wasnorm_wordpool_less_exclusions.txt	LTP173	ltpFR	5	5	1	CEILING	265	n/a	n/a	1	n/a	n/a	n/a	n/a	n/a
915590	REC_WORD_VV	wordpools/wasnorm_wordpool_less_exclusions.txt	LTP173	ltpFR	5	5	n/a	<>	-1	n/a	n/a	n/a	n/a	n/a	n/a	n/a	n/a
920530	REC_WORD_VV	wordpools/wasnorm_wordpool_less_exclusions.txt	LTP173	ltpFR	5	5	n/a	<>	-1	n/a	n/a	n/a	n/a	n/a	n/a	n/a	n/a
921723	REC_WORD_VV	wordpools/wasnorm_wordpool_less_exclusions.txt	LTP173	ltpFR	5	5	n/a	<>	-1	n/a	n/a	n/a	n/a	n/a	n/a	n/a	n/a
927205	REC_WORD	wordpools/wasnorm_wordpool_less_exclusions.txt	LTP173	ltpFR	5	5	1	WALRUS	1585	n/a	n/a	n/a	n/a	n/a	n/a	n/a	n/a
928313	REC_WORD	wordpools/wasnorm_wordpool_less_exclusions.txt	LTP173	ltpFR	5	5	1	ROBIN	1199	n/a	n/a	n/a	n/a	n/a	n/a	n/a	n/a
936476	REC_WORD_VV	wordpools/wasnorm_wordpool_less_exclusions.txt	LTP173	ltpFR	5	5	n/a	<>	-1	n/a	n/a	n/a	n/a	n/a	n/a	n/a	n/a
939622	REC_WORD	wordpools/wasnorm_wordpool_less_exclusions.txt	LTP173	ltpFR	5	5	n/a	ROOF	1205	n/a	n/a	n/a	n/a	n/a	n/a	n/a	n/a
944880	REC_WORD	wordpools/wasnorm_wordpool_less_exclusions.txt	LTP173	ltpFR	5	5	0	CITIZEN	312	n/a	n/a	1	n/a	n/a	n/a	n/a	n/a
946371	REC_WORD_VV	wordpools/wasnorm_wordpool_less_exclusions.txt	LTP173	ltpFR	5	5	n/a	<>	-1	n/a	n/a	n/a	n/a	n/a	n/a	n/a	n/a
947371	REC_WORD_VV	wordpools/wasnorm_wordpool_less_exclusions.txt	LTP173	ltpFR	5	5	n/a	<>	-1	n/a	n/a	n/a	n/a	n/a	n/a	n/a	n/a
948371	REC_WORD_VV	wordpools/wasnorm_wordpool_less_exclusions.txt	LTP173	ltpFR	5	5	n/a	<>	-1	n/a	n/a	n/a	n/a	n/a	n/a	n/a	n/a
949371	REC_WORD_VV	wordpools/wasnorm_wordpool_less_exclusions.txt	LTP173	ltpFR	5	5	n/a	<>	-1	n/a	n/a	n/a	n/a	n/a	n/a	n/a	n/a
950371	REC_WORD_VV	wordpools/wasnorm_wordpool_less_exclusions.txt	LTP173	ltpFR	5	5	n/a	<>	-1	n/a	n/a	n/a	n/a	n/a	n/a	n/a	n/a
951371	REC_WORD_VV	wordpools/wasnorm_wordpool_less_exclusions.txt	LTP173	ltpFR	5	5	n/a	<>	-1	n/a	n/a	n/a	n/a	n/a	n/a	n/a	n/a
954025	REC_WORD_VV	wordpools/wasnorm_wordpool_less_exclusions.txt	LTP173	ltpFR	5	5	n/a	<>	-1	n/a	n/a	n/a	n/a	n/a	n/a	n/a	n/a
955025	REC_WORD_VV	wordpools/wasnorm_wordpool_less_exclusions.txt	LTP173	ltpFR	5	5	n/a	<>	-1	n/a	n/a	n/a	n/a	n/a	n/a	n/a	n/a
955575	REC_WORD	wordpools/wasnorm_wordpool_less_exclusions.txt	LTP173	ltpFR	5	5	-1	COMPANION	357	n/a	n/a	-1	n/a	n/a	n/a	n/a	n/a
957749	REC_WORD_VV	wordpools/wasnorm_wordpool_less_exclusions.txt	LTP173	ltpFR	5	5	n/a	<>	-1	n/a	n/a	n/a	n/a	n/a	n/a	n/a	n/a
960538	REC_WORD_VV	wordpools/wasnorm_wordpool_less_exclusions.txt	LTP173	ltpFR	5	5	n/a	<>	-1	n/a	n/a	n/a	n/a	n/a	n/a	n/a	n/a
961538	REC_WORD_VV	wordpools/wasnorm_wordpool_less_exclusions.txt	LTP173	ltpFR	5	5	n/a	<>	-1	n/a	n/a	n/a	n/a	n/a	n/a	n/a	n/a
962538	REC_WORD_VV	wordpools/wasnorm_wordpool_less_exclusions.txt	LTP173	ltpFR	5	5	n/a	<>	-1	n/a	n/a	n/a	n/a	n/a	n/a	n/a	n/a
964735	REC_WORD	wordpools/wasnorm_wordpool_less_exclusions.txt	LTP173	ltpFR	5	5	0	LIVER	833	n/a	n/a	1	n/a	n/a	n/a	n/a	n/a
969150	REC_WORD_VV	wordpools/wasnorm_wordpool_less_exclusions.txt	LTP173	ltpFR	5	5	n/a	<>	-1	n/a	n/a	n/a	n/a	n/a	n/a	n/a	n/a
972097	REC_WORD_VV	wordpools/wasnorm_wordpool_less_exclusions.txt	LTP173	ltpFR	5	5	n/a	<>	-1	n/a	n/a	n/a	n/a	n/a	n/a	n/a	n/a
980634	REC_WORD_VV	wordpools/wasnorm_wordpool_less_exclusions.txt	LTP173	ltpFR	5	5	n/a	<>	-1	n/a	n/a	n/a	n/a	n/a	n/a	n/a	n/a
981297	REC_WORD	wordpools/wasnorm_wordpool_less_exclusions.txt	LTP173	ltpFR	5	5	1	SHELF	1280	n/a	n/a	0	n/a	n/a	n/a	n/a	n/a
992661	WORD	wordpools/wasnorm_wordpool_less_exclusions.txt	LTP173	ltpFR	5	6	1	LAWYER	806	n/a	n/a	n/a	0.422607421875	0.5869140625	0	upper	zerothre.ttf
995685	SLOW_MSG	n/a	LTP173	ltpFR	5	6	n/a	n/a	n/a	n/a	n/a	n/a	n/a	n/a	n/a	n/a	n/a
998316	WORD	wordpools/wasnorm_wordpool_less_exclusions.txt	LTP173	ltpFR	5	6	1	CUE	422	n/a	n/a	1	0.422607421875	0.5869140625	0	upper	zerothre.ttf
1002440	WORD	wordpools/wasnorm_wordpool_less_exclusions.txt	LTP173	ltpFR	5	6	1	FREEZER	604	n/a	n/a	1	0.422607421875	0.5869140625	0	upper	zerothre.ttf
1006514	WORD	wordpools/wasnorm_wordpool_less_exclusions.txt	LTP173	ltpFR	5	6	1	BARN	89	n/a	n/a	1	0.422607421875	0.5869140625	0	upper	zerothre.ttf
1010328	WORD	wordpools/wasnorm_wordpool_less_exclusions.txt	LTP173	ltpFR	5	6	1	COLT	349	n/a	n/a	n/a	0.422607421875	0.5869140625	0	upper	zerothre.ttf
1013352	SLOW_MSG	n/a	LTP173	ltpFR	5	6	n/a	n/a	n/a	n/a	n/a	n/a	n/a	n/a	n/a	n/a	n/a
1015877	WORD	wordpools/wasnorm_wordpool_less_exclusions.txt	LTP173	ltpFR	5	6	1	COLONEL	348	n/a	n/a	n/a	0.422607421875	0.5869140625	0	upper	zerothre.ttf
1018900	SLOW_MSG	n/a	LTP173	ltpFR	5	6	n/a	n/a	n/a	n/a	n/a	n/a	n/a	n/a	n/a	n/a	n/a
1021300	WORD	wordpools/wasnorm_wordpool_less_exclusions.txt	LTP173	ltpFR	5	6	1	ICEBERG	731	n/a	n/a	1	0.422607421875	0.5869140625	0	upper	zerothre.ttf
1025182	WORD	wordpools/wasnorm_wordpool_less_exclusions.txt	LTP173	ltpFR	5	6	1	CALF	222	n/a	n/a	n/a	0.422607421875	0.5869140625	0	upper	zerothre.ttf
1028205	SLOW_MSG	n/a	LTP173	ltpFR	5	6	n/a	n/a	n/a	n/a	n/a	n/a	n/a	n/a	n/a	n/a	n/a
1030771	WORD	wordpools/wasnorm_wordpool_less_exclusions.txt	LTP173	ltpFR	5	6	1	MARSH	874	n/a	n/a	1	0.422607421875	0.5869140625	0	upper	zerothre.ttf
1034861	WORD	wordpools/wasnorm_wordpool_less_exclusions.txt	LTP173	ltpFR	5	6	1	GREASE	660	n/a	n/a	1	0.422607421875	0.5869140625	0	upper	zerothre.ttf
1038768	WORD	wordpools/wasnorm_wordpool_less_exclusions.txt	LTP173	ltpFR	5	6	1	NIECE	952	n/a	n/a	n/a	0.422607421875	0.5869140625	0	upper	zerothre.ttf
1041792	SLOW_MSG	n/a	LTP173	ltpFR	5	6	n/a	n/a	n/a	n/a	n/a	n/a	n/a	n/a	n/a	n/a	n/a
1044466	WORD	wordpools/wasnorm_wordpool_less_exclusions.txt	LTP173	ltpFR	5	6	1	TART	1436	n/a	n/a	1	0.422607421875	0.5869140625	0	upper	zerothre.ttf
1048524	WORD	wordpools/wasnorm_wordpool_less_exclusions.txt	LTP173	ltpFR	5	6	1	SUGAR	1401	n/a	n/a	1	0.422607421875	0.5869140625	0	upper	zerothre.ttf
1052689	WORD	wordpools/wasnorm_wordpool_less_exclusions.txt	LTP173	ltpFR	5	6	1	TAG	1429	n/a	n/a	1	0.422607421875	0.5869140625	0	upper	zerothre.ttf
1056513	WORD	wordpools/wasnorm_wordpool_less_exclusions.txt	LTP173	ltpFR	5	6	1	ATOM	55	n/a	n/a	n/a	0.422607421875	0.5869140625	0	upper	zerothre.ttf
1059537	SLOW_MSG	n/a	LTP173	ltpFR	5	6	n/a	n/a	n/a	n/a	n/a	n/a	n/a	n/a	n/a	n/a	n/a
1062152	WORD	wordpools/wasnorm_wordpool_less_exclusions.txt	LTP173	ltpFR	5	6	1	BOMB	147	n/a	n/a	n/a	0.422607421875	0.5869140625	0	upper	zerothre.ttf
1065176	SLOW_MSG	n/a	LTP173	ltpFR	5	6	n/a	n/a	n/a	n/a	n/a	n/a	n/a	n/a	n/a	n/a	n/a
1069534	REC_START	n/a	LTP173	ltpFR	5	6	n/a	n/a	n/a	n/a	n/a	n/a	n/a	n/a	n/a	n/a	n/a
1071135	REC_WORD	wordpools/wasnorm_wordpool_less_exclusions.txt	LTP173	ltpFR	5	6	1	NIECE	952	n/a	n/a	n/a	n/a	n/a	n/a	n/a	n/a
1072232	REC_WORD	wordpools/wasnorm_wordpool_less_exclusions.txt	LTP173	ltpFR	5	6	1	COLONEL	348	n/a	n/a	n/a	n/a	n/a	n/a	n/a	n/a
1074113	REC_WORD	wordpools/wasnorm_wordpool_less_exclusions.txt	LTP173	ltpFR	5	6	1	BOMB	147	n/a	n/a	n/a	n/a	n/a	n/a	n/a	n/a
1095925	REC_WORD_VV	wordpools/wasnorm_wordpool_less_exclusions.txt	LTP173	ltpFR	5	6	n/a	<>	-1	n/a	n/a	n/a	n/a	n/a	n/a	n/a	n/a
1096925	REC_WORD_VV	wordpools/wasnorm_wordpool_less_exclusions.txt	LTP173	ltpFR	5	6	n/a	<>	-1	n/a	n/a	n/a	n/a	n/a	n/a	n/a	n/a
1101940	REC_WORD_VV	wordpools/wasnorm_wordpool_less_exclusions.txt	LTP173	ltpFR	5	6	n/a	<>	-1	n/a	n/a	n/a	n/a	n/a	n/a	n/a	n/a
1105417	REC_WORD	wordpools/wasnorm_wordpool_less_exclusions.txt	LTP173	ltpFR	5	6	-1	NAPKIN	937	n/a	n/a	-1	n/a	n/a	n/a	n/a	n/a
1144089	REC_WORD_VV	wordpools/wasnorm_wordpool_less_exclusions.txt	LTP173	ltpFR	5	6	n/a	<>	-1	n/a	n/a	n/a	n/a	n/a	n/a	n/a	n/a
1157001	WORD	wordpools/wasnorm_wordpool_less_exclusions.txt	LTP173	ltpFR	5	7	0	BRANCH	168	n/a	n/a	2	0.57763671875	0.412841796875	1	lower	amplitud.ttf
1158493	KEY_MSG	n/a	LTP173	ltpFR	5	7	n/a	n/a	n/a	n/a	n/a	n/a	n/a	n/a	n/a	n/a	n/a
1160992	WORD	wordpools/wasnorm_wordpool_less_exclusions.txt	LTP173	ltpFR	5	7	0	GUM	672	n/a	n/a	2	0.57763671875	0.412841796875	1	lower	amplitud.ttf
1162617	KEY_MSG	n/a	LTP173	ltpFR	5	7	n/a	n/a	n/a	n/a	n/a	n/a	n/a	n/a	n/a	n/a	n/a
1165207	WORD	wordpools/wasnorm_wordpool_less_exclusions.txt	LTP173	ltpFR	5	7	1	TUSK	1523	n/a	n/a	n/a	0.422607421875	0.5869140625	0	upper	zerothre.ttf
1168231	SLOW_MSG	n/a	LTP173	ltpFR	5	7	n/a	n/a	n/a	n/a	n/a	n/a	n/a	n/a	n/a	n/a	n/a
1170946	WORD	wordpools/wasnorm_wordpool_less_exclusions.txt	LTP173	ltpFR	5	7	1	DIAMOND	458	n/a	n/a	n/a	0.422607421875	0.5869140625	0	upper	zerothre.ttf
1173970	SLOW_MSG	n/a	LTP173	ltpFR	5	7	n/a	n/a	n/a	n/a	n/a	n/a	n/a	n/a	n/a	n/a	n/a
1176620	WORD	wordpools/wasnorm_wordpool_less_exclusions.txt	LTP173	ltpFR	5	7	1	PUDDLE	1140	n/a	n/a	n/a	0.422607421875	0.5869140625	0	upper	zerothre.ttf
1179644	SLOW_MSG	n/a	LTP173	ltpFR	5	7	n/a	n/a	n/a	n/a	n/a	n/a	n/a	n/a	n/a	n/a	n/a
1182242	WORD	wordpools/wasnorm_wordpool_less_exclusions.txt	LTP173	ltpFR	5	7	1	MICROWAVE	892	n/a	n/a	n/a	0.422607421875	0.5869140625	0	upper	zerothre.ttf
1185266	SLOW_MSG	n/a	LTP173	ltpFR	5	7	n/a	n/a	n/a	n/a	n/a	n/a	n/a	n/a	n/a	n/a	n/a
1187790	WORD	wordpools/wasnorm_wordpool_less_exclusions.txt	LTP173	ltpFR	5	7	0	FARM	552	n/a	n/a	n/a	0.57763671875	0.412841796875	1	lower	amplitud.ttf
1190814	SLOW_MSG	n/a	LTP173	ltpFR	5	7	n/a	n/a	n/a	n/a	n/a	n/a	n/a	n/a	n/a	n/a	n/a
1193447	WORD	wordpools/wasnorm_wordpool_less_exclusions.txt	LTP173	ltpFR	5	7	0	VINEGAR	1569	n/a	n/a	n/a	0.57763671875	0.412841796875	1	lower	amplitud.ttf
1196471	SLOW_MSG	n/a	LTP173	ltpFR	5	7	n/a	n/a	n/a	n/a	n/a	n/a	n/a	n/a	n/a	n/a	n/a
1198828	WORD	wordpools/wasnorm_wordpool_less_exclusions.txt	LTP173	ltpFR	5	7	0	SEAGULL	1261	n/a	n/a	n/a	0.57763671875	0.412841796875	1	lower	amplitud.ttf
1201852	SLOW_MSG	n/a	LTP173	ltpFR	5	7	n/a	n/a	n/a	n/a	n/a	n/a	n/a	n/a	n/a	n/a	n/a
1204476	WORD	wordpools/wasnorm_wordpool_less_exclusions.txt	LTP173	ltpFR	5	7	1	FLEA	577	n/a	n/a	1	0.422607421875	0.5869140625	0	upper	zerothre.ttf
1208308	WORD	wordpools/wasnorm_wordpool_less_exclusions.txt	LTP173	ltpFR	5	7	1	PAW	1029	n/a	n/a	0	0.422607421875	0.5869140625	0	upper	zerothre.ttf
1212373	WORD	wordpools/wasnorm_wordpool_less_exclusions.txt	LTP173	ltpFR	5	7	1	ARMY	39	n/a	n/a	1	0.422607421875	0.5869140625	0	upper	zerothre.ttf
1216464	WORD	wordpools/wasnorm_wordpool_less_exclusions.txt	LTP173	ltpFR	5	7	1	PAN	1008	n/a	n/a	0	0.422607421875	0.5869140625	0	upper	zerothre.ttf
1220354	WORD	wordpools/wasnorm_wordpool_less_exclusions.txt	LTP173	ltpFR	5	7	0	EAGLE	512	n/a	n/a	1	0.57763671875	0.412841796875	1	lower	amplitud.ttf
1224302	WORD	wordpools/wasnorm_wordpool_less_exclusions.txt	LTP173	ltpFR	5	7	0	PALM	1007	n/a	n/a	0	0.57763671875	0.412841796875	1	lower	amplitud.ttf
1228209	WORD	wordpools/wasnorm_wordpool_less_exclusions.txt	LTP173	ltpFR	5	7	0	MOSS	918	n/a	n/a	1	0.57763671875	0.412841796875	1	lower	amplitud.ttf
1233858	REC_START	n/a	LTP173	ltpFR	5	7	n/a	n/a	n/a	n/a	n/a	n/a	n/a	n/a	n/a	n/a	n/a
1234291	REC_WORD	wordpools/wasnorm_wordpool_less_exclusions.txt	LTP173	ltpFR	5	7	0	MOSS	918	n/a	n/a	1	n/a	n/a	n/a	n/a	n/a
1235659	REC_WORD	wordpools/wasnorm_wordpool_less_exclusions.txt	LTP173	ltpFR	5	7	0	EAGLE	512	n/a	n/a	1	n/a	n/a	n/a	n/a	n/a
1237320	REC_WORD	wordpools/wasnorm_wordpool_less_exclusions.txt	LTP173	ltpFR	5	7	0	PALM	1007	n/a	n/a	0	n/a	n/a	n/a	n/a	n/a
1254641	REC_WORD_VV	wordpools/wasnorm_wordpool_less_exclusions.txt	LTP173	ltpFR	5	7	n/a	<>	-1	n/a	n/a	n/a	n/a	n/a	n/a	n/a	n/a
1269617	REC_WORD_VV	wordpools/wasnorm_wordpool_less_exclusions.txt	LTP173	ltpFR	5	7	n/a	<>	-1	n/a	n/a	n/a	n/a	n/a	n/a	n/a	n/a
1270617	REC_WORD_VV	wordpools/wasnorm_wordpool_less_exclusions.txt	LTP173	ltpFR	5	7	n/a	<>	-1	n/a	n/a	n/a	n/a	n/a	n/a	n/a	n/a
1272969	REC_WORD_VV	wordpools/wasnorm_wordpool_less_exclusions.txt	LTP173	ltpFR	5	7	n/a	<>	-1	n/a	n/a	n/a	n/a	n/a	n/a	n/a	n/a
1285709	REC_WORD_VV	wordpools/wasnorm_wordpool_less_exclusions.txt	LTP173	ltpFR	5	7	n/a	<>	-1	n/a	n/a	n/a	n/a	n/a	n/a	n/a	n/a
1286709	REC_WORD_VV	wordpools/wasnorm_wordpool_less_exclusions.txt	LTP173	ltpFR	5	7	n/a	<>	-1	n/a	n/a	n/a	n/a	n/a	n/a	n/a	n/a
1298720	REC_WORD_VV	wordpools/wasnorm_wordpool_less_exclusions.txt	LTP173	ltpFR	5	7	n/a	<>	-1	n/a	n/a	n/a	n/a	n/a	n/a	n/a	n/a
1299720	REC_WORD_VV	wordpools/wasnorm_wordpool_less_exclusions.txt	LTP173	ltpFR	5	7	n/a	<>	-1	n/a	n/a	n/a	n/a	n/a	n/a	n/a	n/a
1300959	REC_WORD	wordpools/wasnorm_wordpool_less_exclusions.txt	LTP173	ltpFR	5	7	0	SEAGULL	1261	n/a	n/a	n/a	n/a	n/a	n/a	n/a	n/a
1318860	WORD	wordpools/wasnorm_wordpool_less_exclusions.txt	LTP173	ltpFR	5	8	0	UNDERWEAR	1537	n/a	n/a	2	0.57763671875	0.412841796875	1	lower	amplitud.ttf
1320901	KEY_MSG	n/a	LTP173	ltpFR	5	8	n/a	n/a	n/a	n/a	n/a	n/a	n/a	n/a	n/a	n/a	n/a
1323434	WORD	wordpools/wasnorm_wordpool_less_exclusions.txt	LTP173	ltpFR	5	8	0	RACK	1154	n/a	n/a	n/a	0.57763671875	0.412841796875	1	lower	amplitud.ttf
1326458	SLOW_MSG	n/a	LTP173	ltpFR	5	8	n/a	n/a	n/a	n/a	n/a	n/a	n/a	n/a	n/a	n/a	n/a
1329040	WORD	wordpools/wasnorm_wordpool_less_exclusions.txt	LTP173	ltpFR	5	8	0	STEWARDESS	1381	n/a	n/a	1	0.57763671875	0.412841796875	1	lower	amplitud.ttf
1333130	WORD	wordpools/wasnorm_wordpool_less_exclusions.txt	LTP173	ltpFR	5	8	0	BUCKET	184	n/a	n/a	0	0.57763671875	0.412841796875	1	lower	amplitud.ttf
1337129	WORD	wordpools/wasnorm_wordpool_less_exclusions.txt	LTP173	ltpFR	5	8	0	POTATO	1115	n/a	n/a	0	0.57763671875	0.412841796875	1	lower	amplitud.ttf
1341152	WORD	wordpools/wasnorm_wordpool_less_exclusions.txt	LTP173	ltpFR	5	8	0	ESSAY	540	n/a	n/a	0	0.57763671875	0.412841796875	1	lower	amplitud.ttf
1345334	WORD	wordpools/wasnorm_wordpool_less_exclusions.txt	LTP173	ltpFR	5	8	0	DIPLOMA	470	n/a	n/a	0	0.57763671875	0.412841796875	1	lower	amplitud.ttf
1349341	WORD	wordpools/wasnorm_wordpool_less_exclusions.txt	LTP173	ltpFR	5	8	0	BUGLE	189	n/a	n/a	0	0.57763671875	0.412841796875	1	lower	amplitud.ttf
1353499	WORD	wordpools/wasnorm_wordpool_less_exclusions.txt	LTP173	ltpFR	5	8	0	FOUNTAIN	597	n/a	n/a	1	0.57763671875	0.412841796875	1	lower	amplitud.ttf
1357581	WORD	wordpools/wasnorm_wordpool_less_exclusions.txt	LTP173	ltpFR	5	8	0	PAIL	1002	n/a	n/a	0	0.57763671875	0.412841796875	1	lower	amplitud.ttf
1361621	WORD	wordpools/wasnorm_wordpool_less_exclusions.txt	LTP173	ltpFR	5	8	0	SLIDE	1326	n/a	n/a	1	0.57763671875	0.412841796875	1	lower	amplitud.ttf
1365452	WORD	wordpools/wasnorm_wordpool_less_exclusions.txt	LTP173	ltpFR	5	8	0	ASIA	46	n/a	n/a	1	0.57763671875	0.412841796875	1	lower	amplitud.ttf
1369326	WORD	wordpools/wasnorm_wordpool_less_exclusions.txt	LTP173	ltpFR	5	8	0	EUROPE	541	n/a	n/a	1	0.57763671875	0.412841796875	1	lower	amplitud.ttf
1373183	WORD	wordpools/wasnorm_wordpool_less_exclusions.txt	LTP173	ltpFR	5	8	0	CARRIAGE	248	n/a	n/a	1	0.57763671875	0.412841796875	1	lower	amplitud.ttf
1377365	WORD	wordpools/wasnorm_wordpool_less_exclusions.txt	LTP173	ltpFR	5	8	0	RAIL	1161	n/a	n/a	1	0.57763671875	0.412841796875	1	lower	amplitud.ttf
1381405	WORD	wordpools/wasnorm_wordpool_less_exclusions.txt	LTP173	ltpFR	5	8	0	BANJO	82	n/a	n/a	0	0.57763671875	0.412841796875	1	lower	amplitud.ttf
1387029	REC_START	n/a	LTP173	ltpFR	5	8	n/a	n/a	n/a	n/a	n/a	n/a	n/a	n/a	n/a	n/a	n/a
1387313	REC_WORD	wordpools/wasnorm_wordpool_less_exclusions.txt	LTP173	ltpFR	5	8	0	CARRIAGE	248	n/a	n/a	1	n/a	n/a	n/a	n/a	n/a
1388301	REC_WORD	wordpools/wasnorm_wordpool_less_exclusions.txt	LTP173	ltpFR	5	8	0	BANJO	82	n/a	n/a	0	n/a	n/a	n/a	n/a	n/a
1389558	REC_WORD	wordpools/wasnorm_wordpool_less_exclusions.txt	LTP173	ltpFR	5	8	0	ASIA	46	n/a	n/a	1	n/a	n/a	n/a	n/a	n/a
1391034	REC_WORD	wordpools/wasnorm_wordpool_less_exclusions.txt	LTP173	ltpFR	5	8	0	EUROPE	541	n/a	n/a	1	n/a	n/a	n/a	n/a	n/a
1393186	REC_WORD_VV	wordpools/wasnorm_wordpool_less_exclusions.txt	LTP173	ltpFR	5	8	n/a	<>	-1	n/a	n/a	n/a	n/a	n/a	n/a	n/a	n/a
1396126	REC_WORD_VV	wordpools/wasnorm_wordpool_less_exclusions.txt	LTP173	ltpFR	5	8	n/a	<>	-1	n/a	n/a	n/a	n/a	n/a	n/a	n/a	n/a
1397126	REC_WORD_VV	wordpools/wasnorm_wordpool_less_exclusions.txt	LTP173	ltpFR	5	8	n/a	<>	-1	n/a	n/a	n/a	n/a	n/a	n/a	n/a	n/a
1398126	REC_WORD_VV	wordpools/wasnorm_wordpool_less_exclusions.txt	LTP173	ltpFR	5	8	n/a	<>	-1	n/a	n/a	n/a	n/a	n/a	n/a	n/a	n/a
1399126	REC_WORD_VV	wordpools/wasnorm_wordpool_less_exclusions.txt	LTP173	ltpFR	5	8	n/a	<>	-1	n/a	n/a	n/a	n/a	n/a	n/a	n/a	n/a
1409069	REC_WORD	wordpools/wasnorm_wordpool_less_exclusions.txt	LTP173	ltpFR	5	8	0	EAGLE	512	n/a	n/a	1	n/a	n/a	n/a	n/a	n/a
1413374	REC_WORD	wordpools/wasnorm_wordpool_less_exclusions.txt	LTP173	ltpFR	5	8	0	CARRIAGE	248	n/a	n/a	1	n/a	n/a	n/a	n/a	n/a
1416891	REC_WORD	wordpools/wasnorm_wordpool_less_exclusions.txt	LTP173	ltpFR	5	8	0	RAIL	1161	n/a	n/a	1	n/a	n/a	n/a	n/a	n/a
1419865	REC_WORD_VV	wordpools/wasnorm_wordpool_less_exclusions.txt	LTP173	ltpFR	5	8	n/a	<>	-1	n/a	n/a	n/a	n/a	n/a	n/a	n/a	n/a
1423656	REC_WORD	wordpools/wasnorm_wordpool_less_exclusions.txt	LTP173	ltpFR	5	8	0	ESSAY	540	n/a	n/a	0	n/a	n/a	n/a	n/a	n/a
1434900	REC_WORD	wordpools/wasnorm_wordpool_less_exclusions.txt	LTP173	ltpFR	5	8	0	BANJO	82	n/a	n/a	0	n/a	n/a	n/a	n/a	n/a
1444196	REC_WORD_VV	wordpools/wasnorm_wordpool_less_exclusions.txt	LTP173	ltpFR	5	8	n/a	<>	-1	n/a	n/a	n/a	n/a	n/a	n/a	n/a	n/a
1445196	REC_WORD_VV	wordpools/wasnorm_wordpool_less_exclusions.txt	LTP173	ltpFR	5	8	n/a	<>	-1	n/a	n/a	n/a	n/a	n/a	n/a	n/a	n/a
1446196	REC_WORD_VV	wordpools/wasnorm_wordpool_less_exclusions.txt	LTP173	ltpFR	5	8	n/a	<>	-1	n/a	n/a	n/a	n/a	n/a	n/a	n/a	n/a
1447196	REC_WORD_VV	wordpools/wasnorm_wordpool_less_exclusions.txt	LTP173	ltpFR	5	8	n/a	<>	-1	n/a	n/a	n/a	n/a	n/a	n/a	n/a	n/a
1448196	REC_WORD_VV	wordpools/wasnorm_wordpool_less_exclusions.txt	LTP173	ltpFR	5	8	n/a	<>	-1	n/a	n/a	n/a	n/a	n/a	n/a	n/a	n/a
1449196	REC_WORD_VV	wordpools/wasnorm_wordpool_less_exclusions.txt	LTP173	ltpFR	5	8	n/a	<>	-1	n/a	n/a	n/a	n/a	n/a	n/a	n/a	n/a
1450196	REC_WORD_VV	wordpools/wasnorm_wordpool_less_exclusions.txt	LTP173	ltpFR	5	8	n/a	<>	-1	n/a	n/a	n/a	n/a	n/a	n/a	n/a	n/a
1470332	WORD	wordpools/wasnorm_wordpool_less_exclusions.txt	LTP173	ltpFR	5	9	-1	BATHROOM	99	n/a	n/a	-1	1.0	1.0	1	upper	Verdana.ttf
1474472	WORD	wordpools/wasnorm_wordpool_less_exclusions.txt	LTP173	ltpFR	5	9	-1	TILE	1468	n/a	n/a	-1	1.0	1.0	1	upper	Verdana.ttf
1478655	WORD	wordpools/wasnorm_wordpool_less_exclusions.txt	LTP173	ltpFR	5	9	-1	CLAM	315	n/a	n/a	-1	1.0	1.0	1	upper	Verdana.ttf
1482852	WORD	wordpools/wasnorm_wordpool_less_exclusions.txt	LTP173	ltpFR	5	9	-1	PATIO	1025	n/a	n/a	-1	1.0	1.0	1	upper	Verdana.ttf
1486967	WORD	wordpools/wasnorm_wordpool_less_exclusions.txt	LTP173	ltpFR	5	9	-1	OVAL	990	n/a	n/a	-1	1.0	1.0	1	upper	Verdana.ttf
1491058	WORD	wordpools/wasnorm_wordpool_less_exclusions.txt	LTP173	ltpFR	5	9	-1	SAGE	1222	n/a	n/a	-1	1.0	1.0	1	upper	Verdana.ttf
1495223	WORD	wordpools/wasnorm_wordpool_less_exclusions.txt	LTP173	ltpFR	5	9	-1	BRICK	172	n/a	n/a	-1	1.0	1.0	1	upper	Verdana.ttf
1499346	WORD	wordpools/wasnorm_wordpool_less_exclusions.txt	LTP173	ltpFR	5	9	-1	POLITICIAN	1099	n/a	n/a	-1	1.0	1.0	1	upper	Verdana.ttf
1503386	WORD	wordpools/wasnorm_wordpool_less_exclusions.txt	LTP173	ltpFR	5	9	-1	BULLETIN	195	n/a	n/a	-1	1.0	1.0	1	upper	Verdana.ttf
1507202	WORD	wordpools/wasnorm_wordpool_less_exclusions.txt	LTP173	ltpFR	5	9	-1	PASSAGE	1019	n/a	n/a	-1	1.0	1.0	1	upper	Verdana.ttf
1511192	WORD	wordpools/wasnorm_wordpool_less_exclusions.txt	LTP173	ltpFR	5	9	-1	LITERATURE	831	n/a	n/a	-1	1.0	1.0	1	upper	Verdana.ttf
1515232	WORD	wordpools/wasnorm_wordpool_less_exclusions.txt	LTP173	ltpFR	5	9	-1	HERB	704	n/a	n/a	-1	1.0	1.0	1	upper	Verdana.ttf
1519323	WORD	wordpools/wasnorm_wordpool_less_exclusions.txt	LTP173	ltpFR	5	9	-1	WARRIOR	1589	n/a	n/a	-1	1.0	1.0	1	upper	Verdana.ttf
1523271	WORD	wordpools/wasnorm_wordpool_less_exclusions.txt	LTP173	ltpFR	5	9	-1	SHORE	1291	n/a	n/a	-1	1.0	1.0	1	upper	Verdana.ttf
1527461	WORD	wordpools/wasnorm_wordpool_less_exclusions.txt	LTP173	ltpFR	5	9	-1	PONY	1102	n/a	n/a	-1	1.0	1.0	1	upper	Verdana.ttf
1531511	WORD	wordpools/wasnorm_wordpool_less_exclusions.txt	LTP173	ltpFR	5	9	-1	UNICORN	1538	n/a	n/a	-1	1.0	1.0	1	upper	Verdana.ttf
1537425	REC_START	n/a	LTP173	ltpFR	5	9	n/a	n/a	n/a	n/a	n/a	n/a	n/a	n/a	n/a	n/a	n/a
1537809	REC_WORD	wordpools/wasnorm_wordpool_less_exclusions.txt	LTP173	ltpFR	5	9	-1	PATIO	1025	n/a	n/a	-1	n/a	n/a	n/a	n/a	n/a
1539306	REC_WORD	wordpools/wasnorm_wordpool_less_exclusions.txt	LTP173	ltpFR	5	9	-1	POLITICIAN	1099	n/a	n/a	-1	n/a	n/a	n/a	n/a	n/a
1540747	REC_WORD	wordpools/wasnorm_wordpool_less_exclusions.txt	LTP173	ltpFR	5	9	-1	WARRIOR	1589	n/a	n/a	-1	n/a	n/a	n/a	n/a	n/a
1554849	REC_WORD	wordpools/wasnorm_wordpool_less_exclusions.txt	LTP173	ltpFR	5	9	-1	WARRIOR	1589	n/a	n/a	-1	n/a	n/a	n/a	n/a	n/a
1555849	REC_WORD_VV	wordpools/wasnorm_wordpool_less_exclusions.txt	LTP173	ltpFR	5	9	n/a	<>	-1	n/a	n/a	n/a	n/a	n/a	n/a	n/a	n/a
1556849	REC_WORD_VV	wordpools/wasnorm_wordpool_less_exclusions.txt	LTP173	ltpFR	5	9	n/a	<>	-1	n/a	n/a	n/a	n/a	n/a	n/a	n/a	n/a
1558863	REC_WORD_VV	wordpools/wasnorm_wordpool_less_exclusions.txt	LTP173	ltpFR	5	9	n/a	<>	-1	n/a	n/a	n/a	n/a	n/a	n/a	n/a	n/a
1559863	REC_WORD_VV	wordpools/wasnorm_wordpool_less_exclusions.txt	LTP173	ltpFR	5	9	n/a	<>	-1	n/a	n/a	n/a	n/a	n/a	n/a	n/a	n/a
1561733	REC_WORD_VV	wordpools/wasnorm_wordpool_less_exclusions.txt	LTP173	ltpFR	5	9	n/a	<>	-1	n/a	n/a	n/a	n/a	n/a	n/a	n/a	n/a
1562303	REC_WORD	wordpools/wasnorm_wordpool_less_exclusions.txt	LTP173	ltpFR	5	9	0	ESSAY	540	n/a	n/a	0	n/a	n/a	n/a	n/a	n/a
1563784	REC_WORD_VV	wordpools/wasnorm_wordpool_less_exclusions.txt	LTP173	ltpFR	5	9	n/a	<>	-1	n/a	n/a	n/a	n/a	n/a	n/a	n/a	n/a
1573751	REC_WORD_VV	wordpools/wasnorm_wordpool_less_exclusions.txt	LTP173	ltpFR	5	9	n/a	<>	-1	n/a	n/a	n/a	n/a	n/a	n/a	n/a	n/a
1577135	REC_WORD_VV	wordpools/wasnorm_wordpool_less_exclusions.txt	LTP173	ltpFR	5	9	n/a	<>	-1	n/a	n/a	n/a	n/a	n/a	n/a	n/a	n/a
1580982	REC_WORD_VV	wordpools/wasnorm_wordpool_less_exclusions.txt	LTP173	ltpFR	5	9	n/a	<>	-1	n/a	n/a	n/a	n/a	n/a	n/a	n/a	n/a
1586793	REC_WORD_VV	wordpools/wasnorm_wordpool_less_exclusions.txt	LTP173	ltpFR	5	9	n/a	<>	-1	n/a	n/a	n/a	n/a	n/a	n/a	n/a	n/a
1587456	REC_WORD	wordpools/wasnorm_wordpool_less_exclusions.txt	LTP173	ltpFR	5	9	-1	BATHROOM	99	n/a	n/a	-1	n/a	n/a	n/a	n/a	n/a
1588514	REC_WORD	wordpools/wasnorm_wordpool_less_exclusions.txt	LTP173	ltpFR	5	9	-1	TILE	1468	n/a	n/a	-1	n/a	n/a	n/a	n/a	n/a
1589362	REC_WORD	wordpools/wasnorm_wordpool_less_exclusions.txt	LTP173	ltpFR	5	9	-1	OVAL	990	n/a	n/a	-1	n/a	n/a	n/a	n/a	n/a
1590085	REC_WORD	wordpools/wasnorm_wordpool_less_exclusions.txt	LTP173	ltpFR	5	9	-1	PATIO	1025	n/a	n/a	-1	n/a	n/a	n/a	n/a	n/a
1606607	REC_WORD_VV	wordpools/wasnorm_wordpool_less_exclusions.txt	LTP173	ltpFR	5	9	n/a	<>	-1	n/a	n/a	n/a	n/a	n/a	n/a	n/a	n/a
1617754	WORD	wordpools/wasnorm_wordpool_less_exclusions.txt	LTP173	ltpFR	5	10	1	LOLLIPOP	842	n/a	n/a	0	0.422607421875	0.5869140625	0	upper	zerothre.ttf
1621637	WORD	wordpools/wasnorm_wordpool_less_exclusions.txt	LTP173	ltpFR	5	10	1	DESSERT	453	n/a	n/a	0	0.422607421875	0.5869140625	0	upper	zerothre.ttf
1625502	WORD	wordpools/wasnorm_wordpool_less_exclusions.txt	LTP173	ltpFR	5	10	1	BERRY	122	n/a	n/a	0	0.422607421875	0.5869140625	0	upper	zerothre.ttf
1629718	WORD	wordpools/wasnorm_wordpool_less_exclusions.txt	LTP173	ltpFR	5	10	1	BLACKBERRY	132	n/a	n/a	0	0.422607421875	0.5869140625	0	upper	zerothre.ttf
1633848	WORD	wordpools/wasnorm_wordpool_less_exclusions.txt	LTP173	ltpFR	5	10	1	CHAIN	273	n/a	n/a	0	0.422607421875	0.5869140625	0	upper	zerothre.ttf
1638055	WORD	wordpools/wasnorm_wordpool_less_exclusions.txt	LTP173	ltpFR	5	10	1	PIRATE	1074	n/a	n/a	1	0.422607421875	0.5869140625	0	upper	zerothre.ttf
1641879	WORD	wordpools/wasnorm_wordpool_less_exclusions.txt	LTP173	ltpFR	5	10	1	SWATTER	1418	n/a	n/a	0	0.422607421875	0.5869140625	0	upper	zerothre.ttf
1645778	WORD	wordpools/wasnorm_wordpool_less_exclusions.txt	LTP173	ltpFR	5	10	1	FROST	609	n/a	n/a	0	0.422607421875	0.5869140625	0	upper	zerothre.ttf
1649876	WORD	wordpools/wasnorm_wordpool_less_exclusions.txt	LTP173	ltpFR	5	10	1	KLEENEX	782	n/a	n/a	0	0.422607421875	0.5869140625	0	upper	zerothre.ttf
1653841	WORD	wordpools/wasnorm_wordpool_less_exclusions.txt	LTP173	ltpFR	5	10	1	CREW	406	n/a	n/a	1	0.422607421875	0.5869140625	0	upper	zerothre.ttf
1657773	WORD	wordpools/wasnorm_wordpool_less_exclusions.txt	LTP173	ltpFR	5	10	1	GAZELLE	628	n/a	n/a	1	0.422607421875	0.5869140625	0	upper	zerothre.ttf
1661814	WORD	wordpools/wasnorm_wordpool_less_exclusions.txt	LTP173	ltpFR	5	10	1	PERSON	1052	n/a	n/a	1	0.422607421875	0.5869140625	0	upper	zerothre.ttf
1665779	WORD	wordpools/wasnorm_wordpool_less_exclusions.txt	LTP173	ltpFR	5	10	1	BOOK	149	n/a	n/a	0	0.422607421875	0.5869140625	0	upper	zerothre.ttf
1669836	WORD	wordpools/wasnorm_wordpool_less_exclusions.txt	LTP173	ltpFR	5	10	1	HANDKERCHIEF	686	n/a	n/a	0	0.422607421875	0.5869140625	0	upper	zerothre.ttf
1673710	WORD	wordpools/wasnorm_wordpool_less_exclusions.txt	LTP173	ltpFR	5	10	1	BEETLE	116	n/a	n/a	1	0.422607421875	0.5869140625	0	upper	zerothre.ttf
1677542	WORD	wordpools/wasnorm_wordpool_less_exclusions.txt	LTP173	ltpFR	5	10	1	GUEST	669	n/a	n/a	1	0.422607421875	0.5869140625	0	upper	zerothre.ttf
1683448	REC_START	n/a	LTP173	ltpFR	5	10	n/a	n/a	n/a	n/a	n/a	n/a	n/a	n/a	n/a	n/a	n/a
1684290	REC_WORD	wordpools/wasnorm_wordpool_less_exclusions.txt	LTP173	ltpFR	5	10	1	BEETLE	116	n/a	n/a	1	n/a	n/a	n/a	n/a	n/a
1685224	REC_WORD	wordpools/wasnorm_wordpool_less_exclusions.txt	LTP173	ltpFR	5	10	1	GUEST	669	n/a	n/a	1	n/a	n/a	n/a	n/a	n/a
1686600	REC_WORD	wordpools/wasnorm_wordpool_less_exclusions.txt	LTP173	ltpFR	5	10	1	KLEENEX	782	n/a	n/a	0	n/a	n/a	n/a	n/a	n/a
1689605	REC_WORD	wordpools/wasnorm_wordpool_less_exclusions.txt	LTP173	ltpFR	5	10	1	HANDKERCHIEF	686	n/a	n/a	0	n/a	n/a	n/a	n/a	n/a
1702405	REC_WORD_VV	wordpools/wasnorm_wordpool_less_exclusions.txt	LTP173	ltpFR	5	10	n/a	<>	-1	n/a	n/a	n/a	n/a	n/a	n/a	n/a	n/a
1702991	REC_WORD	wordpools/wasnorm_wordpool_less_exclusions.txt	LTP173	ltpFR	5	10	1	BEETLE	116	n/a	n/a	1	n/a	n/a	n/a	n/a	n/a
1703991	REC_WORD_VV	wordpools/wasnorm_wordpool_less_exclusions.txt	LTP173	ltpFR	5	10	n/a	<>	-1	n/a	n/a	n/a	n/a	n/a	n/a	n/a	n/a
1707434	REC_WORD_VV	wordpools/wasnorm_wordpool_less_exclusions.txt	LTP173	ltpFR	5	10	n/a	<>	-1	n/a	n/a	n/a	n/a	n/a	n/a	n/a	n/a
1726014	REC_WORD_VV	wordpools/wasnorm_wordpool_less_exclusions.txt	LTP173	ltpFR	5	10	n/a	<>	-1	n/a	n/a	n/a	n/a	n/a	n/a	n/a	n/a
1727014	REC_WORD_VV	wordpools/wasnorm_wordpool_less_exclusions.txt	LTP173	ltpFR	5	10	n/a	<>	-1	n/a	n/a	n/a	n/a	n/a	n/a	n/a	n/a
1729452	REC_WORD_VV	wordpools/wasnorm_wordpool_less_exclusions.txt	LTP173	ltpFR	5	10	n/a	<>	-1	n/a	n/a	n/a	n/a	n/a	n/a	n/a	n/a
1730452	REC_WORD_VV	wordpools/wasnorm_wordpool_less_exclusions.txt	LTP173	ltpFR	5	10	n/a	<>	-1	n/a	n/a	n/a	n/a	n/a	n/a	n/a	n/a
1731452	REC_WORD_VV	wordpools/wasnorm_wordpool_less_exclusions.txt	LTP173	ltpFR	5	10	n/a	<>	-1	n/a	n/a	n/a	n/a	n/a	n/a	n/a	n/a
1732452	REC_WORD_VV	wordpools/wasnorm_wordpool_less_exclusions.txt	LTP173	ltpFR	5	10	n/a	<>	-1	n/a	n/a	n/a	n/a	n/a	n/a	n/a	n/a
1739071	REC_WORD	wordpools/wasnorm_wordpool_less_exclusions.txt	LTP173	ltpFR	5	10	1	LOLLIPOP	842	n/a	n/a	0	n/a	n/a	n/a	n/a	n/a
1740329	REC_WORD	wordpools/wasnorm_wordpool_less_exclusions.txt	LTP173	ltpFR	5	10	1	PIRATE	1074	n/a	n/a	1	n/a	n/a	n/a	n/a	n/a
1745357	REC_WORD	wordpools/wasnorm_wordpool_less_exclusions.txt	LTP173	ltpFR	5	10	1	GAZELLE	628	n/a	n/a	1	n/a	n/a	n/a	n/a	n/a
1763952	WORD	wordpools/wasnorm_wordpool_less_exclusions.txt	LTP173	ltpFR	5	11	-1	ERASER	538	n/a	n/a	-1	1.0	1.0	1	upper	Verdana.ttf
1767976	WORD	wordpools/wasnorm_wordpool_less_exclusions.txt	LTP173	ltpFR	5	11	-1	TRIANGLE	1504	n/a	n/a	-1	1.0	1.0	1	upper	Verdana.ttf
1771816	WORD	wordpools/wasnorm_wordpool_less_exclusions.txt	LTP173	ltpFR	5	11	-1	ATLAS	53	n/a	n/a	-1	1.0	1.0	1	upper	Verdana.ttf
1775724	WORD	wordpools/wasnorm_wordpool_less_exclusions.txt	LTP173	ltpFR	5	11	-1	CHAMPAGNE	278	n/a	n/a	-1	1.0	1.0	1	upper	Verdana.ttf
1779581	WORD	wordpools/wasnorm_wordpool_less_exclusions.txt	LTP173	ltpFR	5	11	-1	WALL	1582	n/a	n/a	-1	1.0	1.0	1	upper	Verdana.ttf
1783630	WORD	wordpools/wasnorm_wordpool_less_exclusions.txt	LTP173	ltpFR	5	11	-1	MAT	877	n/a	n/a	-1	1.0	1.0	1	upper	Verdana.ttf
1787802	WORD	wordpools/wasnorm_wordpool_less_exclusions.txt	LTP173	ltpFR	5	11	-1	DRIVEWAY	500	n/a	n/a	-1	1.0	1.0	1	upper	Verdana.ttf
1791984	WORD	wordpools/wasnorm_wordpool_less_exclusions.txt	LTP173	ltpFR	5	11	-1	KIWI	781	n/a	n/a	-1	1.0	1.0	1	upper	Verdana.ttf
1796124	WORD	wordpools/wasnorm_wordpool_less_exclusions.txt	LTP173	ltpFR	5	11	-1	STRAWBERRY	1391	n/a	n/a	-1	1.0	1.0	1	upper	Verdana.ttf
1800006	WORD	wordpools/wasnorm_wordpool_less_exclusions.txt	LTP173	ltpFR	5	11	-1	CHECKERS	285	n/a	n/a	-1	1.0	1.0	1	upper	Verdana.ttf
1804171	WORD	wordpools/wasnorm_wordpool_less_exclusions.txt	LTP173	ltpFR	5	11	-1	TURNIP	1521	n/a	n/a	-1	1.0	1.0	1	upper	Verdana.ttf
1808111	WORD	wordpools/wasnorm_wordpool_less_exclusions.txt	LTP173	ltpFR	5	11	-1	POPE	1105	n/a	n/a	-1	1.0	1.0	1	upper	Verdana.ttf
1812168	WORD	wordpools/wasnorm_wordpool_less_exclusions.txt	LTP173	ltpFR	5	11	-1	WAITER	1580	n/a	n/a	-1	1.0	1.0	1	upper	Verdana.ttf
1816292	WORD	wordpools/wasnorm_wordpool_less_exclusions.txt	LTP173	ltpFR	5	11	-1	SAUSAGE	1238	n/a	n/a	-1	1.0	1.0	1	upper	Verdana.ttf
1820432	WORD	wordpools/wasnorm_wordpool_less_exclusions.txt	LTP173	ltpFR	5	11	-1	BEER	114	n/a	n/a	-1	1.0	1.0	1	upper	Verdana.ttf
1824372	WORD	wordpools/wasnorm_wordpool_less_exclusions.txt	LTP173	ltpFR	5	11	-1	CACTUS	215	n/a	n/a	-1	1.0	1.0	1	upper	Verdana.ttf
1830229	REC_START	n/a	LTP173	ltpFR	5	11	n/a	n/a	n/a	n/a	n/a	n/a	n/a	n/a	n/a	n/a	n/a
1830458	REC_WORD	wordpools/wasnorm_wordpool_less_exclusions.txt	LTP173	ltpFR	5	11	-1	STRAWBERRY	1391	n/a	n/a	-1	n/a	n/a	n/a	n/a	n/a
1831740	REC_WORD	wordpools/wasnorm_wordpool_less_exclusions.txt	LTP173	ltpFR	5	11	-1	BEER	114	n/a	n/a	-1	n/a	n/a	n/a	n/a	n/a
1833432	REC_WORD	wordpools/wasnorm_wordpool_less_exclusions.txt	LTP173	ltpFR	5	11	-1	CACTUS	215	n/a	n/a	-1	n/a	n/a	n/a	n/a	n/a
1835432	REC_WORD	wordpools/wasnorm_wordpool_less_exclusions.txt	LTP173	ltpFR	5	11	-1	POPE	1105	n/a	n/a	-1	n/a	n/a	n/a	n/a	n/a
1836744	REC_WORD	wordpools/wasnorm_wordpool_less_exclusions.txt	LTP173	ltpFR	5	11	n/a	ERASE	-1	n/a	n/a	n/a	n/a	n/a	n/a	n/a	n/a
1842925	REC_WORD	wordpools/wasnorm_wordpool_less_exclusions.txt	LTP173	ltpFR	5	11	-1	WALL	1582	n/a	n/a	-1	n/a	n/a	n/a	n/a	n/a
1844753	REC_WORD	wordpools/wasnorm_wordpool_less_exclusions.txt	LTP173	ltpFR	5	11	n/a	FLOOR	581	n/a	n/a	n/a	n/a	n/a	n/a	n/a	n/a
1845753	REC_WORD_VV	wordpools/wasnorm_wordpool_less_exclusions.txt	LTP173	ltpFR	5	11	n/a	<>	-1	n/a	n/a	n/a	n/a	n/a	n/a	n/a	n/a
1853942	REC_WORD	wordpools/wasnorm_wordpool_less_exclusions.txt	LTP173	ltpFR	5	11	-1	ERASER	538	n/a	n/a	-1	n/a	n/a	n/a	n/a	n/a
1861153	REC_WORD_VV	wordpools/wasnorm_wordpool_less_exclusions.txt	LTP173	ltpFR	5	11	n/a	<>	-1	n/a	n/a	n/a	n/a	n/a	n/a	n/a	n/a
1862989	REC_WORD_VV	wordpools/wasnorm_wordpool_less_exclusions.txt	LTP173	ltpFR	5	11	n/a	<>	-1	n/a	n/a	n/a	n/a	n/a	n/a	n/a	n/a
1863568	REC_WORD	wordpools/wasnorm_wordpool_less_exclusions.txt	LTP173	ltpFR	5	11	-1	TURNIP	1521	n/a	n/a	-1	n/a	n/a	n/a	n/a	n/a
1864844	REC_WORD_VV	wordpools/wasnorm_wordpool_less_exclusions.txt	LTP173	ltpFR	5	11	n/a	<>	-1	n/a	n/a	n/a	n/a	n/a	n/a	n/a	n/a
1866111	REC_WORD	wordpools/wasnorm_wordpool_less_exclusions.txt	LTP173	ltpFR	5	11	-1	STRAWBERRY	1391	n/a	n/a	-1	n/a	n/a	n/a	n/a	n/a
1867476	REC_WORD_VV	wordpools/wasnorm_wordpool_less_exclusions.txt	LTP173	ltpFR	5	11	n/a	<>	-1	n/a	n/a	n/a	n/a	n/a	n/a	n/a	n/a
1870083	REC_WORD	wordpools/wasnorm_wordpool_less_exclusions.txt	LTP173	ltpFR	5	11	1	ICEBERG	731	n/a	n/a	1	n/a	n/a	n/a	n/a	n/a
1876633	REC_WORD	wordpools/wasnorm_wordpool_less_exclusions.txt	LTP173	ltpFR	5	11	1	CHAIN	273	n/a	n/a	0	n/a	n/a	n/a	n/a	n/a
1889195	REC_WORD	wordpools/wasnorm_wordpool_less_exclusions.txt	LTP173	ltpFR	5	11	-1	MAT	877	n/a	n/a	-1	n/a	n/a	n/a	n/a	n/a
1899808	REC_WORD_VV	wordpools/wasnorm_wordpool_less_exclusions.txt	LTP173	ltpFR	5	11	n/a	<>	-1	n/a	n/a	n/a	n/a	n/a	n/a	n/a	n/a
1916406	WORD	wordpools/wasnorm_wordpool_less_exclusions.txt	LTP173	ltpFR	5	12	-1	YARD	1630	n/a	n/a	-1	1.0	1.0	1	upper	Verdana.ttf
1920548	WORD	wordpools/wasnorm_wordpool_less_exclusions.txt	LTP173	ltpFR	5	12	-1	BREAD	170	n/a	n/a	-1	1.0	1.0	1	upper	Verdana.ttf
1924629	WORD	wordpools/wasnorm_wordpool_less_exclusions.txt	LTP173	ltpFR	5	12	-1	LAGOON	795	n/a	n/a	-1	1.0	1.0	1	upper	Verdana.ttf
1928495	WORD	wordpools/wasnorm_wordpool_less_exclusions.txt	LTP173	ltpFR	5	12	-1	RAKE	1164	n/a	n/a	-1	1.0	1.0	1	upper	Verdana.ttf
1932309	WORD	wordpools/wasnorm_wordpool_less_exclusions.txt	LTP173	ltpFR	5	12	-1	STEW	1380	n/a	n/a	-1	1.0	1.0	1	upper	Verdana.ttf
1936508	WORD	wordpools/wasnorm_wordpool_less_exclusions.txt	LTP173	ltpFR	5	12	-1	CORN	381	n/a	n/a	-1	1.0	1.0	1	upper	Verdana.ttf
1940624	WORD	wordpools/wasnorm_wordpool_less_exclusions.txt	LTP173	ltpFR	5	12	-1	CHECK	284	n/a	n/a	-1	1.0	1.0	1	upper	Verdana.ttf
1944656	WORD	wordpools/wasnorm_wordpool_less_exclusions.txt	LTP173	ltpFR	5	12	-1	COIN	343	n/a	n/a	-1	1.0	1.0	1	upper	Verdana.ttf
1948488	WORD	wordpools/wasnorm_wordpool_less_exclusions.txt	LTP173	ltpFR	5	12	-1	TANK	1432	n/a	n/a	-1	1.0	1.0	1	upper	Verdana.ttf
1952653	WORD	wordpools/wasnorm_wordpool_less_exclusions.txt	LTP173	ltpFR	5	12	-1	BOLT	146	n/a	n/a	-1	1.0	1.0	1	upper	Verdana.ttf
1956518	WORD	wordpools/wasnorm_wordpool_less_exclusions.txt	LTP173	ltpFR	5	12	-1	MANSION	864	n/a	n/a	-1	1.0	1.0	1	upper	Verdana.ttf
1960550	WORD	wordpools/wasnorm_wordpool_less_exclusions.txt	LTP173	ltpFR	5	12	-1	LAKE	796	n/a	n/a	-1	1.0	1.0	1	upper	Verdana.ttf
1964598	WORD	wordpools/wasnorm_wordpool_less_exclusions.txt	LTP173	ltpFR	5	12	-1	GATE	625	n/a	n/a	-1	1.0	1.0	1	upper	Verdana.ttf
1968463	WORD	wordpools/wasnorm_wordpool_less_exclusions.txt	LTP173	ltpFR	5	12	-1	DOOR	486	n/a	n/a	-1	1.0	1.0	1	upper	Verdana.ttf
1972604	WORD	wordpools/wasnorm_wordpool_less_exclusions.txt	LTP173	ltpFR	5	12	-1	CENT	270	n/a	n/a	-1	1.0	1.0	1	upper	Verdana.ttf
1976503	WORD	wordpools/wasnorm_wordpool_less_exclusions.txt	LTP173	ltpFR	5	12	-1	COLUMN	350	n/a	n/a	-1	1.0	1.0	1	upper	Verdana.ttf
1982267	REC_START	n/a	LTP173	ltpFR	5	12	n/a	n/a	n/a	n/a	n/a	n/a	n/a	n/a	n/a	n/a	n/a
1982656	REC_WORD	wordpools/wasnorm_wordpool_less_exclusions.txt	LTP173	ltpFR	5	12	-1	COLUMN	350	n/a	n/a	-1	n/a	n/a	n/a	n/a	n/a
1983663	REC_WORD	wordpools/wasnorm_wordpool_less_exclusions.txt	LTP173	ltpFR	5	12	-1	COIN	343	n/a	n/a	-1	n/a	n/a	n/a	n/a	n/a
1984521	REC_WORD	wordpools/wasnorm_wordpool_less_exclusions.txt	LTP173	ltpFR	5	12	-1	CENT	270	n/a	n/a	-1	n/a	n/a	n/a	n/a	n/a
1986901	REC_WORD	wordpools/wasnorm_wordpool_less_exclusions.txt	LTP173	ltpFR	5	12	-1	MANSION	864	n/a	n/a	-1	n/a	n/a	n/a	n/a	n/a
1988922	REC_WORD	wordpools/wasnorm_wordpool_less_exclusions.txt	LTP173	ltpFR	5	12	-1	LAKE	796	n/a	n/a	-1	n/a	n/a	n/a	n/a	n/a
1995382	REC_WORD	wordpools/wasnorm_wordpool_less_exclusions.txt	LTP173	ltpFR	5	12	-1	YARD	1630	n/a	n/a	-1	n/a	n/a	n/a	n/a	n/a
2005689	REC_WORD_VV	wordpools/wasnorm_wordpool_less_exclusions.txt	LTP173	ltpFR	5	12	n/a	<>	-1	n/a	n/a	n/a	n/a	n/a	n/a	n/a	n/a
2007385	REC_WORD	wordpools/wasnorm_wordpool_less_exclusions.txt	LTP173	ltpFR	5	12	-1	BOLT	146	n/a	n/a	-1	n/a	n/a	n/a	n/a	n/a
2010068	REC_WORD	wordpools/wasnorm_wordpool_less_exclusions.txt	LTP173	ltpFR	5	12	n/a	BARRED	-1	n/a	n/a	n/a	n/a	n/a	n/a	n/a	n/a
2020784	REC_WORD_VV	wordpools/wasnorm_wordpool_less_exclusions.txt	LTP173	ltpFR	5	12	n/a	<>	-1	n/a	n/a	n/a	n/a	n/a	n/a	n/a	n/a
2024448	REC_WORD_VV	wordpools/wasnorm_wordpool_less_exclusions.txt	LTP173	ltpFR	5	12	n/a	<>	-1	n/a	n/a	n/a	n/a	n/a	n/a	n/a	n/a
2030911	REC_WORD	wordpools/wasnorm_wordpool_less_exclusions.txt	LTP173	ltpFR	5	12	-1	CHAMPAGNE	278	n/a	n/a	-1	n/a	n/a	n/a	n/a	n/a
2044076	REC_WORD_VV	wordpools/wasnorm_wordpool_less_exclusions.txt	LTP173	ltpFR	5	12	n/a	<>	-1	n/a	n/a	n/a	n/a	n/a	n/a	n/a	n/a
2046320	REC_WORD_VV	wordpools/wasnorm_wordpool_less_exclusions.txt	LTP173	ltpFR	5	12	n/a	<>	-1	n/a	n/a	n/a	n/a	n/a	n/a	n/a	n/a
2054376	REC_WORD_VV	wordpools/wasnorm_wordpool_less_exclusions.txt	LTP173	ltpFR	5	12	n/a	<>	-1	n/a	n/a	n/a	n/a	n/a	n/a	n/a	n/a
2057848	REST_REWET	n/a	LTP173	ltpFR	5	12	n/a	n/a	n/a	n/a	n/a	n/a	n/a	n/a	n/a	n/a	n/a
2408265	WORD	wordpools/wasnorm_wordpool_less_exclusions.txt	LTP173	ltpFR	5	13	0	COLLAR	345	n/a	n/a	0	0.57763671875	0.412841796875	1	lower	amplitud.ttf
2412372	WORD	wordpools/wasnorm_wordpool_less_exclusions.txt	LTP173	ltpFR	5	13	0	MINK	897	n/a	n/a	0	0.57763671875	0.412841796875	1	lower	amplitud.ttf
2416387	WORD	wordpools/wasnorm_wordpool_less_exclusions.txt	LTP173	ltpFR	5	13	0	EMPLOYEE	531	n/a	n/a	1	0.57763671875	0.412841796875	1	lower	amplitud.ttf
2420244	WORD	wordpools/wasnorm_wordpool_less_exclusions.txt	LTP173	ltpFR	5	13	0	PERSONNEL	1053	n/a	n/a	1	0.57763671875	0.412841796875	1	lower	amplitud.ttf
2424142	WORD	wordpools/wasnorm_wordpool_less_exclusions.txt	LTP173	ltpFR	5	13	1	SOAP	1337	n/a	n/a	0	0.422607421875	0.5869140625	0	upper	zerothre.ttf
2428099	WORD	wordpools/wasnorm_wordpool_less_exclusions.txt	LTP173	ltpFR	5	13	1	PRINCESS	1125	n/a	n/a	1	0.422607421875	0.5869140625	0	upper	zerothre.ttf
2432073	WORD	wordpools/wasnorm_wordpool_less_exclusions.txt	LTP173	ltpFR	5	13	1	OBOE	969	n/a	n/a	0	0.422607421875	0.5869140625	0	upper	zerothre.ttf
2436096	WORD	wordpools/wasnorm_wordpool_less_exclusions.txt	LTP173	ltpFR	5	13	1	MONSTER	912	n/a	n/a	0	0.422607421875	0.5869140625	0	upper	zerothre.ttf
2440178	WORD	wordpools/wasnorm_wordpool_less_exclusions.txt	LTP173	ltpFR	5	13	0	SICKLE	1302	n/a	n/a	0	0.57763671875	0.412841796875	1	lower	amplitud.ttf
2444152	WORD	wordpools/wasnorm_wordpool_less_exclusions.txt	LTP173	ltpFR	5	13	0	HARP	689	n/a	n/a	0	0.57763671875	0.412841796875	1	lower	amplitud.ttf
2448217	WORD	wordpools/wasnorm_wordpool_less_exclusions.txt	LTP173	ltpFR	5	13	0	RATTLE	1170	n/a	n/a	0	0.57763671875	0.412841796875	1	lower	amplitud.ttf
2452324	WORD	wordpools/wasnorm_wordpool_less_exclusions.txt	LTP173	ltpFR	5	13	0	DRIVER	499	n/a	n/a	1	0.57763671875	0.412841796875	1	lower	amplitud.ttf
2456273	WORD	wordpools/wasnorm_wordpool_less_exclusions.txt	LTP173	ltpFR	5	13	1	TAXI	1438	n/a	n/a	0	0.422607421875	0.5869140625	0	upper	zerothre.ttf
2460230	WORD	wordpools/wasnorm_wordpool_less_exclusions.txt	LTP173	ltpFR	5	13	1	BARK	87	n/a	n/a	0	0.422607421875	0.5869140625	0	upper	zerothre.ttf
2464095	WORD	wordpools/wasnorm_wordpool_less_exclusions.txt	LTP173	ltpFR	5	13	1	COSTUME	383	n/a	n/a	0	0.422607421875	0.5869140625	0	upper	zerothre.ttf
2467985	WORD	wordpools/wasnorm_wordpool_less_exclusions.txt	LTP173	ltpFR	5	13	1	SCREW	1254	n/a	n/a	0	0.422607421875	0.5869140625	0	upper	zerothre.ttf
2473925	REC_START	n/a	LTP173	ltpFR	5	13	n/a	n/a	n/a	n/a	n/a	n/a	n/a	n/a	n/a	n/a	n/a
2474419	REC_WORD	wordpools/wasnorm_wordpool_less_exclusions.txt	LTP173	ltpFR	5	13	1	TAXI	1438	n/a	n/a	0	n/a	n/a	n/a	n/a	n/a
2475421	REC_WORD	wordpools/wasnorm_wordpool_less_exclusions.txt	LTP173	ltpFR	5	13	1	BARK	87	n/a	n/a	0	n/a	n/a	n/a	n/a	n/a
2476240	REC_WORD	wordpools/wasnorm_wordpool_less_exclusions.txt	LTP173	ltpFR	5	13	1	SCREW	1254	n/a	n/a	0	n/a	n/a	n/a	n/a	n/a
2477616	REC_WORD	wordpools/wasnorm_wordpool_less_exclusions.txt	LTP173	ltpFR	5	13	1	PRINCESS	1125	n/a	n/a	1	n/a	n/a	n/a	n/a	n/a
2478769	REC_WORD	wordpools/wasnorm_wordpool_less_exclusions.txt	LTP173	ltpFR	5	13	1	MONSTER	912	n/a	n/a	0	n/a	n/a	n/a	n/a	n/a
2485219	REC_WORD	wordpools/wasnorm_wordpool_less_exclusions.txt	LTP173	ltpFR	5	13	1	OBOE	969	n/a	n/a	0	n/a	n/a	n/a	n/a	n/a
2492362	REC_WORD_VV	wordpools/wasnorm_wordpool_less_exclusions.txt	LTP173	ltpFR	5	13	n/a	<>	-1	n/a	n/a	n/a	n/a	n/a	n/a	n/a	n/a
2493362	REC_WORD_VV	wordpools/wasnorm_wordpool_less_exclusions.txt	LTP173	ltpFR	5	13	n/a	<>	-1	n/a	n/a	n/a	n/a	n/a	n/a	n/a	n/a
2494362	REC_WORD_VV	wordpools/wasnorm_wordpool_less_exclusions.txt	LTP173	ltpFR	5	13	n/a	<>	-1	n/a	n/a	n/a	n/a	n/a	n/a	n/a	n/a
2501658	REC_WORD_VV	wordpools/wasnorm_wordpool_less_exclusions.txt	LTP173	ltpFR	5	13	n/a	<>	-1	n/a	n/a	n/a	n/a	n/a	n/a	n/a	n/a
2502658	REC_WORD_VV	wordpools/wasnorm_wordpool_less_exclusions.txt	LTP173	ltpFR	5	13	n/a	<>	-1	n/a	n/a	n/a	n/a	n/a	n/a	n/a	n/a
2506721	REC_WORD_VV	wordpools/wasnorm_wordpool_less_exclusions.txt	LTP173	ltpFR	5	13	n/a	<>	-1	n/a	n/a	n/a	n/a	n/a	n/a	n/a	n/a
2512682	REC_WORD_VV	wordpools/wasnorm_wordpool_less_exclusions.txt	LTP173	ltpFR	5	13	n/a	<>	-1	n/a	n/a	n/a	n/a	n/a	n/a	n/a	n/a
2524460	REC_WORD_VV	wordpools/wasnorm_wordpool_less_exclusions.txt	LTP173	ltpFR	5	13	n/a	<>	-1	n/a	n/a	n/a	n/a	n/a	n/a	n/a	n/a
2525460	REC_WORD_VV	wordpools/wasnorm_wordpool_less_exclusions.txt	LTP173	ltpFR	5	13	n/a	<>	-1	n/a	n/a	n/a	n/a	n/a	n/a	n/a	n/a
2536436	REC_WORD	wordpools/wasnorm_wordpool_less_exclusions.txt	LTP173	ltpFR	5	13	1	COSTUME	383	n/a	n/a	0	n/a	n/a	n/a	n/a	n/a
2542022	REC_WORD_VV	wordpools/wasnorm_wordpool_less_exclusions.txt	LTP173	ltpFR	5	13	n/a	<>	-1	n/a	n/a	n/a	n/a	n/a	n/a	n/a	n/a
2543022	REC_WORD_VV	wordpools/wasnorm_wordpool_less_exclusions.txt	LTP173	ltpFR	5	13	n/a	<>	-1	n/a	n/a	n/a	n/a	n/a	n/a	n/a	n/a
2548615	REC_WORD_VV	wordpools/wasnorm_wordpool_less_exclusions.txt	LTP173	ltpFR	5	13	n/a	<>	-1	n/a	n/a	n/a	n/a	n/a	n/a	n/a	n/a
2554113	WORD	wordpools/wasnorm_wordpool_less_exclusions.txt	LTP173	ltpFR	5	14	0	INCENSE	735	n/a	n/a	2	0.57763671875	0.412841796875	1	lower	amplitud.ttf
2556404	KEY_MSG	n/a	LTP173	ltpFR	5	14	n/a	n/a	n/a	n/a	n/a	n/a	n/a	n/a	n/a	n/a	n/a
2558853	WORD	wordpools/wasnorm_wordpool_less_exclusions.txt	LTP173	ltpFR	5	14	0	BUILDING	191	n/a	n/a	1	0.57763671875	0.412841796875	1	lower	amplitud.ttf
2562661	WORD	wordpools/wasnorm_wordpool_less_exclusions.txt	LTP173	ltpFR	5	14	0	PLAZA	1088	n/a	n/a	1	0.57763671875	0.412841796875	1	lower	amplitud.ttf
2566850	WORD	wordpools/wasnorm_wordpool_less_exclusions.txt	LTP173	ltpFR	5	14	0	WINGS	1614	n/a	n/a	0	0.57763671875	0.412841796875	1	lower	amplitud.ttf
2570765	WORD	wordpools/wasnorm_wordpool_less_exclusions.txt	LTP173	ltpFR	5	14	0	FLY	586	n/a	n/a	1	0.57763671875	0.412841796875	1	lower	amplitud.ttf
2574972	WORD	wordpools/wasnorm_wordpool_less_exclusions.txt	LTP173	ltpFR	5	14	0	BAY	102	n/a	n/a	1	0.57763671875	0.412841796875	1	lower	amplitud.ttf
2579104	WORD	wordpools/wasnorm_wordpool_less_exclusions.txt	LTP173	ltpFR	5	14	0	FILM	565	n/a	n/a	0	0.57763671875	0.412841796875	1	lower	amplitud.ttf
2583277	WORD	wordpools/wasnorm_wordpool_less_exclusions.txt	LTP173	ltpFR	5	14	0	POOL	1103	n/a	n/a	1	0.57763671875	0.412841796875	1	lower	amplitud.ttf
2587151	WORD	wordpools/wasnorm_wordpool_less_exclusions.txt	LTP173	ltpFR	5	14	0	SUPPER	1411	n/a	n/a	1	0.57763671875	0.412841796875	1	lower	amplitud.ttf
2591333	WORD	wordpools/wasnorm_wordpool_less_exclusions.txt	LTP173	ltpFR	5	14	0	ISLAND	745	n/a	n/a	1	0.57763671875	0.412841796875	1	lower	amplitud.ttf
2595448	WORD	wordpools/wasnorm_wordpool_less_exclusions.txt	LTP173	ltpFR	5	14	0	SHOWER	1296	n/a	n/a	0	0.57763671875	0.412841796875	1	lower	amplitud.ttf
2599556	WORD	wordpools/wasnorm_wordpool_less_exclusions.txt	LTP173	ltpFR	5	14	0	PRODUCER	1129	n/a	n/a	1	0.57763671875	0.412841796875	1	lower	amplitud.ttf
2603680	WORD	wordpools/wasnorm_wordpool_less_exclusions.txt	LTP173	ltpFR	5	14	0	CLOSET	326	n/a	n/a	0	0.57763671875	0.412841796875	1	lower	amplitud.ttf
2607752	WORD	wordpools/wasnorm_wordpool_less_exclusions.txt	LTP173	ltpFR	5	14	0	LAUNDRY	803	n/a	n/a	1	0.57763671875	0.412841796875	1	lower	amplitud.ttf
2611618	WORD	wordpools/wasnorm_wordpool_less_exclusions.txt	LTP173	ltpFR	5	14	0	INSECT	740	n/a	n/a	0	0.57763671875	0.412841796875	1	lower	amplitud.ttf
2615642	WORD	wordpools/wasnorm_wordpool_less_exclusions.txt	LTP173	ltpFR	5	14	0	UMBRELLA	1534	n/a	n/a	0	0.57763671875	0.412841796875	1	lower	amplitud.ttf
2621482	REC_START	n/a	LTP173	ltpFR	5	14	n/a	n/a	n/a	n/a	n/a	n/a	n/a	n/a	n/a	n/a	n/a
2621781	REC_WORD	wordpools/wasnorm_wordpool_less_exclusions.txt	LTP173	ltpFR	5	14	0	INSECT	740	n/a	n/a	0	n/a	n/a	n/a	n/a	n/a
2622764	REC_WORD	wordpools/wasnorm_wordpool_less_exclusions.txt	LTP173	ltpFR	5	14	0	UMBRELLA	1534	n/a	n/a	0	n/a	n/a	n/a	n/a	n/a
2624195	REC_WORD	wordpools/wasnorm_wordpool_less_exclusions.txt	LTP173	ltpFR	5	14	0	FLY	586	n/a	n/a	1	n/a	n/a	n/a	n/a	n/a
2637843	REC_WORD_VV	wordpools/wasnorm_wordpool_less_exclusions.txt	LTP173	ltpFR	5	14	n/a	<>	-1	n/a	n/a	n/a	n/a	n/a	n/a	n/a	n/a
2638843	REC_WORD_VV	wordpools/wasnorm_wordpool_less_exclusions.txt	LTP173	ltpFR	5	14	n/a	<>	-1	n/a	n/a	n/a	n/a	n/a	n/a	n/a	n/a
2642831	REC_WORD_VV	wordpools/wasnorm_wordpool_less_exclusions.txt	LTP173	ltpFR	5	14	n/a	<>	-1	n/a	n/a	n/a	n/a	n/a	n/a	n/a	n/a
2644536	REC_WORD_VV	wordpools/wasnorm_wordpool_less_exclusions.txt	LTP173	ltpFR	5	14	n/a	<>	-1	n/a	n/a	n/a	n/a	n/a	n/a	n/a	n/a
2655311	REC_WORD_VV	wordpools/wasnorm_wordpool_less_exclusions.txt	LTP173	ltpFR	5	14	n/a	<>	-1	n/a	n/a	n/a	n/a	n/a	n/a	n/a	n/a
2657300	REC_WORD	wordpools/wasnorm_wordpool_less_exclusions.txt	LTP173	ltpFR	5	14	0	CLOSET	326	n/a	n/a	0	n/a	n/a	n/a	n/a	n/a
2662444	REC_WORD	wordpools/wasnorm_wordpool_less_exclusions.txt	LTP173	ltpFR	5	14	0	ISLAND	745	n/a	n/a	1	n/a	n/a	n/a	n/a	n/a
2669106	REC_WORD_VV	wordpools/wasnorm_wordpool_less_exclusions.txt	LTP173	ltpFR	5	14	n/a	<>	-1	n/a	n/a	n/a	n/a	n/a	n/a	n/a	n/a
2670106	REC_WORD_VV	wordpools/wasnorm_wordpool_less_exclusions.txt	LTP173	ltpFR	5	14	n/a	<>	-1	n/a	n/a	n/a	n/a	n/a	n/a	n/a	n/a
2671106	REC_WORD_VV	wordpools/wasnorm_wordpool_less_exclusions.txt	LTP173	ltpFR	5	14	n/a	<>	-1	n/a	n/a	n/a	n/a	n/a	n/a	n/a	n/a
2684361	REC_WORD_VV	wordpools/wasnorm_wordpool_less_exclusions.txt	LTP173	ltpFR	5	14	n/a	<>	-1	n/a	n/a	n/a	n/a	n/a	n/a	n/a	n/a
2688968	REC_WORD_VV	wordpools/wasnorm_wordpool_less_exclusions.txt	LTP173	ltpFR	5	14	n/a	<>	-1	n/a	n/a	n/a	n/a	n/a	n/a	n/a	n/a
2689968	REC_WORD_VV	wordpools/wasnorm_wordpool_less_exclusions.txt	LTP173	ltpFR	5	14	n/a	<>	-1	n/a	n/a	n/a	n/a	n/a	n/a	n/a	n/a
2703918	WORD	wordpools/wasnorm_wordpool_less_exclusions.txt	LTP173	ltpFR	5	15	0	HEAD	695	n/a	n/a	1	0.57763671875	0.412841796875	1	lower	amplitud.ttf
2708008	WORD	wordpools/wasnorm_wordpool_less_exclusions.txt	LTP173	ltpFR	5	15	0	GRASSHOPPER	656	n/a	n/a	0	0.57763671875	0.412841796875	1	lower	amplitud.ttf
2711865	WORD	wordpools/wasnorm_wordpool_less_exclusions.txt	LTP173	ltpFR	5	15	0	KANGAROO	768	n/a	n/a	1	0.57763671875	0.412841796875	1	lower	amplitud.ttf
2715797	WORD	wordpools/wasnorm_wordpool_less_exclusions.txt	LTP173	ltpFR	5	15	0	VAULT	1550	n/a	n/a	0	0.57763671875	0.412841796875	1	lower	amplitud.ttf
2719812	WORD	wordpools/wasnorm_wordpool_less_exclusions.txt	LTP173	ltpFR	5	15	0	ENCYCLOPEDIA	533	n/a	n/a	1	0.57763671875	0.412841796875	1	lower	amplitud.ttf
2723952	WORD	wordpools/wasnorm_wordpool_less_exclusions.txt	LTP173	ltpFR	5	15	0	NOVEL	960	n/a	n/a	1	0.57763671875	0.412841796875	1	lower	amplitud.ttf
2727851	WORD	wordpools/wasnorm_wordpool_less_exclusions.txt	LTP173	ltpFR	5	15	0	DRESSER	496	n/a	n/a	1	0.57763671875	0.412841796875	1	lower	amplitud.ttf
2731676	WORD	wordpools/wasnorm_wordpool_less_exclusions.txt	LTP173	ltpFR	5	15	0	CHEST	295	n/a	n/a	0	0.57763671875	0.412841796875	1	lower	amplitud.ttf
2735508	WORD	wordpools/wasnorm_wordpool_less_exclusions.txt	LTP173	ltpFR	5	15	0	KIDNEY	776	n/a	n/a	0	0.57763671875	0.412841796875	1	lower	amplitud.ttf
2739615	WORD	wordpools/wasnorm_wordpool_less_exclusions.txt	LTP173	ltpFR	5	15	0	GOBLIN	645	n/a	n/a	0	0.57763671875	0.412841796875	1	lower	amplitud.ttf
2743630	WORD	wordpools/wasnorm_wordpool_less_exclusions.txt	LTP173	ltpFR	5	15	0	WRENCH	1625	n/a	n/a	0	0.57763671875	0.412841796875	1	lower	amplitud.ttf
2747695	WORD	wordpools/wasnorm_wordpool_less_exclusions.txt	LTP173	ltpFR	5	15	0	BOULDER	155	n/a	n/a	1	0.57763671875	0.412841796875	1	lower	amplitud.ttf
2751893	WORD	wordpools/wasnorm_wordpool_less_exclusions.txt	LTP173	ltpFR	5	15	0	CHARCOAL	281	n/a	n/a	0	0.57763671875	0.412841796875	1	lower	amplitud.ttf
2755783	WORD	wordpools/wasnorm_wordpool_less_exclusions.txt	LTP173	ltpFR	5	15	0	WRITER	1627	n/a	n/a	1	0.57763671875	0.412841796875	1	lower	amplitud.ttf
2759915	WORD	wordpools/wasnorm_wordpool_less_exclusions.txt	LTP173	ltpFR	5	15	0	TERMITE	1451	n/a	n/a	0	0.57763671875	0.412841796875	1	lower	amplitud.ttf
2763963	WORD	wordpools/wasnorm_wordpool_less_exclusions.txt	LTP173	ltpFR	5	15	0	WITCH	1617	n/a	n/a	n/a	0.57763671875	0.412841796875	1	lower	amplitud.ttf
2766987	SLOW_MSG	n/a	LTP173	ltpFR	5	15	n/a	n/a	n/a	n/a	n/a	n/a	n/a	n/a	n/a	n/a	n/a
2771361	REC_START	n/a	LTP173	ltpFR	5	15	n/a	n/a	n/a	n/a	n/a	n/a	n/a	n/a	n/a	n/a	n/a
2772902	REC_WORD	wordpools/wasnorm_wordpool_less_exclusions.txt	LTP173	ltpFR	5	15	0	WRITER	1627	n/a	n/a	1	n/a	n/a	n/a	n/a	n/a
2774583	REC_WORD	wordpools/wasnorm_wordpool_less_exclusions.txt	LTP173	ltpFR	5	15	0	TERMITE	1451	n/a	n/a	0	n/a	n/a	n/a	n/a	n/a
2777247	REC_WORD	wordpools/wasnorm_wordpool_less_exclusions.txt	LTP173	ltpFR	5	15	0	WITCH	1617	n/a	n/a	n/a	n/a	n/a	n/a	n/a	n/a
2781388	REC_WORD	wordpools/wasnorm_wordpool_less_exclusions.txt	LTP173	ltpFR	5	15	0	KIDNEY	776	n/a	n/a	0	n/a	n/a	n/a	n/a	n/a
2799441	REC_WORD_VV	wordpools/wasnorm_wordpool_less_exclusions.txt	LTP173	ltpFR	5	15	n/a	<>	-1	n/a	n/a	n/a	n/a	n/a	n/a	n/a	n/a
2818883	REC_WORD	wordpools/wasnorm_wordpool_less_exclusions.txt	LTP173	ltpFR	5	15	0	GRASSHOPPER	656	n/a	n/a	0	n/a	n/a	n/a	n/a	n/a
2823018	REC_WORD	wordpools/wasnorm_wordpool_less_exclusions.txt	LTP173	ltpFR	5	15	0	FLY	586	n/a	n/a	1	n/a	n/a	n/a	n/a	n/a
2831050	REC_WORD	wordpools/wasnorm_wordpool_less_exclusions.txt	LTP173	ltpFR	5	15	0	WRENCH	1625	n/a	n/a	0	n/a	n/a	n/a	n/a	n/a
2838433	REC_WORD	wordpools/wasnorm_wordpool_less_exclusions.txt	LTP173	ltpFR	5	15	0	CHARCOAL	281	n/a	n/a	0	n/a	n/a	n/a	n/a	n/a
2843711	REC_WORD_VV	wordpools/wasnorm_wordpool_less_exclusions.txt	LTP173	ltpFR	5	15	n/a	<>	-1	n/a	n/a	n/a	n/a	n/a	n/a	n/a	n/a
2844789	REC_WORD	wordpools/wasnorm_wordpool_less_exclusions.txt	LTP173	ltpFR	5	15	0	CHEST	295	n/a	n/a	0	n/a	n/a	n/a	n/a	n/a
2851899	WORD	wordpools/wasnorm_wordpool_less_exclusions.txt	LTP173	ltpFR	5	16	1	MEAT	883	n/a	n/a	1	0.422607421875	0.5869140625	0	upper	zerothre.ttf
2856014	WORD	wordpools/wasnorm_wordpool_less_exclusions.txt	LTP173	ltpFR	5	16	1	SCALLOP	1242	n/a	n/a	1	0.422607421875	0.5869140625	0	upper	zerothre.ttf
2860037	WORD	wordpools/wasnorm_wordpool_less_exclusions.txt	LTP173	ltpFR	5	16	0	BATTERY	101	n/a	n/a	0	0.57763671875	0.412841796875	1	lower	amplitud.ttf
2864094	WORD	wordpools/wasnorm_wordpool_less_exclusions.txt	LTP173	ltpFR	5	16	0	BOX	159	n/a	n/a	1	0.57763671875	0.412841796875	1	lower	amplitud.ttf
2867985	WORD	wordpools/wasnorm_wordpool_less_exclusions.txt	LTP173	ltpFR	5	16	0	PLAID	1080	n/a	n/a	0	0.57763671875	0.412841796875	1	lower	amplitud.ttf
2872041	WORD	wordpools/wasnorm_wordpool_less_exclusions.txt	LTP173	ltpFR	5	16	1	CATTLE	261	n/a	n/a	3	0.422607421875	0.5869140625	0	upper	zerothre.ttf
2874658	KEY_MSG	n/a	LTP173	ltpFR	5	16	n/a	n/a	n/a	n/a	n/a	n/a	n/a	n/a	n/a	n/a	n/a
2877265	WORD	wordpools/wasnorm_wordpool_less_exclusions.txt	LTP173	ltpFR	5	16	1	PENCIL	1042	n/a	n/a	2	0.422607421875	0.5869140625	0	upper	zerothre.ttf
2878198	KEY_MSG	n/a	LTP173	ltpFR	5	16	n/a	n/a	n/a	n/a	n/a	n/a	n/a	n/a	n/a	n/a	n/a
2881097	WORD	wordpools/wasnorm_wordpool_less_exclusions.txt	LTP173	ltpFR	5	16	0	SUBMARINE	1398	n/a	n/a	1	0.57763671875	0.412841796875	1	lower	amplitud.ttf
2885004	WORD	wordpools/wasnorm_wordpool_less_exclusions.txt	LTP173	ltpFR	5	16	0	SWIMMER	1420	n/a	n/a	1	0.57763671875	0.412841796875	1	lower	amplitud.ttf
2889094	WORD	wordpools/wasnorm_wordpool_less_exclusions.txt	LTP173	ltpFR	5	16	0	MARS	873	n/a	n/a	1	0.57763671875	0.412841796875	1	lower	amplitud.ttf
2892917	WORD	wordpools/wasnorm_wordpool_less_exclusions.txt	LTP173	ltpFR	5	16	0	CHAMBER	277	n/a	n/a	1	0.57763671875	0.412841796875	1	lower	amplitud.ttf
2896883	WORD	wordpools/wasnorm_wordpool_less_exclusions.txt	LTP173	ltpFR	5	16	0	VEST	1559	n/a	n/a	0	0.57763671875	0.412841796875	1	lower	amplitud.ttf
2901048	WORD	wordpools/wasnorm_wordpool_less_exclusions.txt	LTP173	ltpFR	5	16	1	PLANET	1082	n/a	n/a	0	0.422607421875	0.5869140625	0	upper	zerothre.ttf
2905230	WORD	wordpools/wasnorm_wordpool_less_exclusions.txt	LTP173	ltpFR	5	16	1	VET	1560	n/a	n/a	1	0.422607421875	0.5869140625	0	upper	zerothre.ttf
2909378	WORD	wordpools/wasnorm_wordpool_less_exclusions.txt	LTP173	ltpFR	5	16	1	ZOO	1637	n/a	n/a	1	0.422607421875	0.5869140625	0	upper	zerothre.ttf
2913343	WORD	wordpools/wasnorm_wordpool_less_exclusions.txt	LTP173	ltpFR	5	16	1	PHILOSOPHER	1054	n/a	n/a	1	0.422607421875	0.5869140625	0	upper	zerothre.ttf
2918984	REC_START	n/a	LTP173	ltpFR	5	16	n/a	n/a	n/a	n/a	n/a	n/a	n/a	n/a	n/a	n/a	n/a
2919313	REC_WORD	wordpools/wasnorm_wordpool_less_exclusions.txt	LTP173	ltpFR	5	16	1	PHILOSOPHER	1054	n/a	n/a	1	n/a	n/a	n/a	n/a	n/a
2921188	REC_WORD	wordpools/wasnorm_wordpool_less_exclusions.txt	LTP173	ltpFR	5	16	0	SWIMMER	1420	n/a	n/a	1	n/a	n/a	n/a	n/a	n/a
2922188	REC_WORD_VV	wordpools/wasnorm_wordpool_less_exclusions.txt	LTP173	ltpFR	5	16	n/a	<>	-1	n/a	n/a	n/a	n/a	n/a	n/a	n/a	n/a
2924959	REC_WORD	wordpools/wasnorm_wordpool_less_exclusions.txt	LTP173	ltpFR	5	16	1	ZOO	1637	n/a	n/a	1	n/a	n/a	n/a	n/a	n/a
2928771	REC_WORD	wordpools/wasnorm_wordpool_less_exclusions.txt	LTP173	ltpFR	5	16	0	MARS	873	n/a	n/a	1	n/a	n/a	n/a	n/a	n/a
2931246	REC_WORD	wordpools/wasnorm_wordpool_less_exclusions.txt	LTP173	ltpFR	5	16	0	VEST	1559	n/a	n/a	0	n/a	n/a	n/a	n/a	n/a
2953147	REC_WORD_VV	wordpools/wasnorm_wordpool_less_exclusions.txt	LTP173	ltpFR	5	16	n/a	<>	-1	n/a	n/a	n/a	n/a	n/a	n/a	n/a	n/a
2957740	REC_WORD	wordpools/wasnorm_wordpool_less_exclusions.txt	LTP173	ltpFR	5	16	0	SUBMARINE	1398	n/a	n/a	1	n/a	n/a	n/a	n/a	n/a
2961558	REC_WORD_VV	wordpools/wasnorm_wordpool_less_exclusions.txt	LTP173	ltpFR	5	16	n/a	<>	-1	n/a	n/a	n/a	n/a	n/a	n/a	n/a	n/a
2963759	REC_WORD_VV	wordpools/wasnorm_wordpool_less_exclusions.txt	LTP173	ltpFR	5	16	n/a	<>	-1	n/a	n/a	n/a	n/a	n/a	n/a	n/a	n/a
2964759	REC_WORD	wordpools/wasnorm_wordpool_less_exclusions.txt	LTP173	ltpFR	5	16	n/a	SWIM	-1	n/a	n/a	n/a	n/a	n/a	n/a	n/a	n/a
2965663	REC_WORD_VV	wordpools/wasnorm_wordpool_less_exclusions.txt	LTP173	ltpFR	5	16	n/a	<>	-1	n/a	n/a	n/a	n/a	n/a	n/a	n/a	n/a
2965893	REC_WORD	wordpools/wasnorm_wordpool_less_exclusions.txt	LTP173	ltpFR	5	16	0	SWIMMER	1420	n/a	n/a	1	n/a	n/a	n/a	n/a	n/a
2975675	REC_WORD_VV	wordpools/wasnorm_wordpool_less_exclusions.txt	LTP173	ltpFR	5	16	n/a	<>	-1	n/a	n/a	n/a	n/a	n/a	n/a	n/a	n/a
2976675	REC_WORD_VV	wordpools/wasnorm_wordpool_less_exclusions.txt	LTP173	ltpFR	5	16	n/a	<>	-1	n/a	n/a	n/a	n/a	n/a	n/a	n/a	n/a
2991398	REC_WORD_VV	wordpools/wasnorm_wordpool_less_exclusions.txt	LTP173	ltpFR	5	16	n/a	<>	-1	n/a	n/a	n/a	n/a	n/a	n/a	n/a	n/a
2992398	REC_WORD_VV	wordpools/wasnorm_wordpool_less_exclusions.txt	LTP173	ltpFR	5	16	n/a	<>	-1	n/a	n/a	n/a	n/a	n/a	n/a	n/a	n/a
3033285	REC_START	n/a	LTP173	ltpFR	5	n/a	n/a	n/a	n/a	n/a	n/a	n/a	n/a	n/a	n/a	n/a	n/a
3036188	FFR_REC_WORD	wordpools/wasnorm_wordpool_less_exclusions.txt	LTP173	ltpFR	5	n/a	1	PHILOSOPHER	1054	n/a	n/a	1	n/a	n/a	n/a	n/a	n/a
3037188	FFR_REC_WORD_VV	wordpools/wasnorm_wordpool_less_exclusions.txt	LTP173	ltpFR	5	n/a	n/a	<>	-1	n/a	n/a	n/a	n/a	n/a	n/a	n/a	n/a
3045202	FFR_REC_WORD	wordpools/wasnorm_wordpool_less_exclusions.txt	LTP173	ltpFR	5	n/a	n/a	GRASS	655	n/a	n/a	n/a	n/a	n/a	n/a	n/a	n/a
3046052	FFR_REC_WORD	wordpools/wasnorm_wordpool_less_exclusions.txt	LTP173	ltpFR	5	n/a	0	GRASSHOPPER	656	n/a	n/a	0	n/a	n/a	n/a	n/a	n/a
3047256	FFR_REC_WORD_VV	wordpools/wasnorm_wordpool_less_exclusions.txt	LTP173	ltpFR	5	n/a	n/a	<>	-1	n/a	n/a	n/a	n/a	n/a	n/a	n/a	n/a
3048510	FFR_REC_WORD	wordpools/wasnorm_wordpool_less_exclusions.txt	LTP173	ltpFR	5	n/a	-1	MANSION	864	n/a	n/a	-1	n/a	n/a	n/a	n/a	n/a
3049483	FFR_REC_WORD	wordpools/wasnorm_wordpool_less_exclusions.txt	LTP173	ltpFR	5	n/a	n/a	HOUSE	725	n/a	n/a	n/a	n/a	n/a	n/a	n/a	n/a
3050580	FFR_REC_WORD	wordpools/wasnorm_wordpool_less_exclusions.txt	LTP173	ltpFR	5	n/a	-1	TILE	1468	n/a	n/a	-1	n/a	n/a	n/a	n/a	n/a
3051558	FFR_REC_WORD	wordpools/wasnorm_wordpool_less_exclusions.txt	LTP173	ltpFR	5	n/a	-1	WALL	1582	n/a	n/a	-1	n/a	n/a	n/a	n/a	n/a
3053773	FFR_REC_WORD	wordpools/wasnorm_wordpool_less_exclusions.txt	LTP173	ltpFR	5	n/a	n/a	FLOOR	581	n/a	n/a	n/a	n/a	n/a	n/a	n/a	n/a
3057320	FFR_REC_WORD	wordpools/wasnorm_wordpool_less_exclusions.txt	LTP173	ltpFR	5	n/a	-1	STRAWBERRY	1391	n/a	n/a	-1	n/a	n/a	n/a	n/a	n/a
3058482	FFR_REC_WORD	wordpools/wasnorm_wordpool_less_exclusions.txt	LTP173	ltpFR	5	n/a	1	BERRY	122	n/a	n/a	0	n/a	n/a	n/a	n/a	n/a
3059455	FFR_REC_WORD	wordpools/wasnorm_wordpool_less_exclusions.txt	LTP173	ltpFR	5	n/a	n/a	BLUEBERRY	140	n/a	n/a	n/a	n/a	n/a	n/a	n/a	n/a
3063257	FFR_REC_WORD	wordpools/wasnorm_wordpool_less_exclusions.txt	LTP173	ltpFR	5	n/a	0	MARS	873	n/a	n/a	1	n/a	n/a	n/a	n/a	n/a
3064094	FFR_REC_WORD	wordpools/wasnorm_wordpool_less_exclusions.txt	LTP173	ltpFR	5	n/a	0	SUBMARINE	1398	n/a	n/a	1	n/a	n/a	n/a	n/a	n/a
3064942	FFR_REC_WORD	wordpools/wasnorm_wordpool_less_exclusions.txt	LTP173	ltpFR	5	n/a	0	SWIMMER	1420	n/a	n/a	1	n/a	n/a	n/a	n/a	n/a
3071054	FFR_REC_WORD	wordpools/wasnorm_wordpool_less_exclusions.txt	LTP173	ltpFR	5	n/a	-1	NAPKIN	937	n/a	n/a	-1	n/a	n/a	n/a	n/a	n/a
3072116	FFR_REC_WORD	wordpools/wasnorm_wordpool_less_exclusions.txt	LTP173	ltpFR	5	n/a	1	KLEENEX	782	n/a	n/a	0	n/a	n/a	n/a	n/a	n/a
3074661	FFR_REC_WORD	wordpools/wasnorm_wordpool_less_exclusions.txt	LTP173	ltpFR	5	n/a	1	PENCIL	1042	n/a	n/a	2	n/a	n/a	n/a	n/a	n/a
3083591	FFR_REC_WORD_VV	wordpools/wasnorm_wordpool_less_exclusions.txt	LTP173	ltpFR	5	n/a	n/a	<>	-1	n/a	n/a	n/a	n/a	n/a	n/a	n/a	n/a
3084591	FFR_REC_WORD_VV	wordpools/wasnorm_wordpool_less_exclusions.txt	LTP173	ltpFR	5	n/a	n/a	<>	-1	n/a	n/a	n/a	n/a	n/a	n/a	n/a	n/a
3085591	FFR_REC_WORD_VV	wordpools/wasnorm_wordpool_less_exclusions.txt	LTP173	ltpFR	5	n/a	n/a	<>	-1	n/a	n/a	n/a	n/a	n/a	n/a	n/a	n/a
3086591	FFR_REC_WORD_VV	wordpools/wasnorm_wordpool_less_exclusions.txt	LTP173	ltpFR	5	n/a	n/a	<>	-1	n/a	n/a	n/a	n/a	n/a	n/a	n/a	n/a
3087716	FFR_REC_WORD_VV	wordpools/wasnorm_wordpool_less_exclusions.txt	LTP173	ltpFR	5	n/a	n/a	<>	-1	n/a	n/a	n/a	n/a	n/a	n/a	n/a	n/a
3088369	FFR_REC_WORD	wordpools/wasnorm_wordpool_less_exclusions.txt	LTP173	ltpFR	5	n/a	1	ROBIN	1199	n/a	n/a	n/a	n/a	n/a	n/a	n/a	n/a
3094880	FFR_REC_WORD	wordpools/wasnorm_wordpool_less_exclusions.txt	LTP173	ltpFR	5	n/a	1	BARN	89	n/a	n/a	1	n/a	n/a	n/a	n/a	n/a
3096326	FFR_REC_WORD	wordpools/wasnorm_wordpool_less_exclusions.txt	LTP173	ltpFR	5	n/a	n/a	HORSE	719	n/a	n/a	n/a	n/a	n/a	n/a	n/a	n/a
3100786	FFR_REC_WORD	wordpools/wasnorm_wordpool_less_exclusions.txt	LTP173	ltpFR	5	n/a	-1	WARRIOR	1589	n/a	n/a	-1	n/a	n/a	n/a	n/a	n/a
3113448	FFR_REC_WORD	wordpools/wasnorm_wordpool_less_exclusions.txt	LTP173	ltpFR	5	n/a	-1	LAGOON	795	n/a	n/a	-1	n/a	n/a	n/a	n/a	n/a
3116421	FFR_REC_WORD	wordpools/wasnorm_wordpool_less_exclusions.txt	LTP173	ltpFR	5	n/a	1	BARN	89	n/a	n/a	1	n/a	n/a	n/a	n/a	n/a
3122741	FFR_REC_WORD	wordpools/wasnorm_wordpool_less_exclusions.txt	LTP173	ltpFR	5	n/a	n/a	ERASE	-1	n/a	n/a	n/a	n/a	n/a	n/a	n/a	n/a
3129611	FFR_REC_WORD	wordpools/wasnorm_wordpool_less_exclusions.txt	LTP173	ltpFR	5	n/a	0	CHEST	295	n/a	n/a	0	n/a	n/a	n/a	n/a	n/a
3135392	FFR_REC_WORD_VV	wordpools/wasnorm_wordpool_less_exclusions.txt	LTP173	ltpFR	5	n/a	n/a	<>	-1	n/a	n/a	n/a	n/a	n/a	n/a	n/a	n/a
3135717	FFR_REC_WORD	wordpools/wasnorm_wordpool_less_exclusions.txt	LTP173	ltpFR	5	n/a	0	KIDNEY	776	n/a	n/a	0	n/a	n/a	n/a	n/a	n/a
3142196	FFR_REC_WORD_VV	wordpools/wasnorm_wordpool_less_exclusions.txt	LTP173	ltpFR	5	n/a	n/a	<>	-1	n/a	n/a	n/a	n/a	n/a	n/a	n/a	n/a
3142681	FFR_REC_WORD	wordpools/wasnorm_wordpool_less_exclusions.txt	LTP173	ltpFR	5	n/a	-1	GUITAR	670	n/a	n/a	-1	n/a	n/a	n/a	n/a	n/a
3144133	FFR_REC_WORD	wordpools/wasnorm_wordpool_less_exclusions.txt	LTP173	ltpFR	5	n/a	1	OBOE	969	n/a	n/a	0	n/a	n/a	n/a	n/a	n/a
3152948	FFR_REC_WORD	wordpools/wasnorm_wordpool_less_exclusions.txt	LTP173	ltpFR	5	n/a	1	GAZELLE	628	n/a	n/a	1	n/a	n/a	n/a	n/a	n/a
3162263	FFR_REC_WORD_VV	wordpools/wasnorm_wordpool_less_exclusions.txt	LTP173	ltpFR	5	n/a	n/a	<>	-1	n/a	n/a	n/a	n/a	n/a	n/a	n/a	n/a
3168891	FFR_REC_WORD	wordpools/wasnorm_wordpool_less_exclusions.txt	LTP173	ltpFR	5	n/a	1	COLONEL	348	n/a	n/a	n/a	n/a	n/a	n/a	n/a	n/a
3172588	FFR_REC_WORD_VV	wordpools/wasnorm_wordpool_less_exclusions.txt	LTP173	ltpFR	5	n/a	n/a	<>	-1	n/a	n/a	n/a	n/a	n/a	n/a	n/a	n/a
3174125	FFR_REC_WORD	wordpools/wasnorm_wordpool_less_exclusions.txt	LTP173	ltpFR	5	n/a	1	PERSON	1052	n/a	n/a	1	n/a	n/a	n/a	n/a	n/a
3183144	FFR_REC_WORD_VV	wordpools/wasnorm_wordpool_less_exclusions.txt	LTP173	ltpFR	5	n/a	n/a	<>	-1	n/a	n/a	n/a	n/a	n/a	n/a	n/a	n/a
3183334	FFR_REC_WORD	wordpools/wasnorm_wordpool_less_exclusions.txt	LTP173	ltpFR	5	n/a	0	PERSONNEL	1053	n/a	n/a	1	n/a	n/a	n/a	n/a	n/a
3195506	FFR_REC_WORD	wordpools/wasnorm_wordpool_less_exclusions.txt	LTP173	ltpFR	5	n/a	n/a	ICE	730	n/a	n/a	n/a	n/a	n/a	n/a	n/a	n/a
3196559	FFR_REC_WORD	wordpools/wasnorm_wordpool_less_exclusions.txt	LTP173	ltpFR	5	n/a	1	ICEBERG	731	n/a	n/a	1	n/a	n/a	n/a	n/a	n/a
3202500	FFR_REC_WORD	wordpools/wasnorm_wordpool_less_exclusions.txt	LTP173	ltpFR	5	n/a	-1	PARTY	1018	n/a	n/a	-1	n/a	n/a	n/a	n/a	n/a
3209649	FFR_REC_WORD	wordpools/wasnorm_wordpool_less_exclusions.txt	LTP173	ltpFR	5	n/a	0	ESSAY	540	n/a	n/a	0	n/a	n/a	n/a	n/a	n/a
3211295	FFR_REC_WORD	wordpools/wasnorm_wordpool_less_exclusions.txt	LTP173	ltpFR	5	n/a	0	NOVEL	960	n/a	n/a	1	n/a	n/a	n/a	n/a	n/a
3220752	FFR_REC_WORD_VV	wordpools/wasnorm_wordpool_less_exclusions.txt	LTP173	ltpFR	5	n/a	n/a	<>	-1	n/a	n/a	n/a	n/a	n/a	n/a	n/a	n/a
3221752	FFR_REC_WORD_VV	wordpools/wasnorm_wordpool_less_exclusions.txt	LTP173	ltpFR	5	n/a	n/a	<>	-1	n/a	n/a	n/a	n/a	n/a	n/a	n/a	n/a
3222752	FFR_REC_WORD_VV	wordpools/wasnorm_wordpool_less_exclusions.txt	LTP173	ltpFR	5	n/a	n/a	<>	-1	n/a	n/a	n/a	n/a	n/a	n/a	n/a	n/a
3223752	FFR_REC_WORD_VV	wordpools/wasnorm_wordpool_less_exclusions.txt	LTP173	ltpFR	5	n/a	n/a	<>	-1	n/a	n/a	n/a	n/a	n/a	n/a	n/a	n/a
3225247	FFR_REC_WORD_VV	wordpools/wasnorm_wordpool_less_exclusions.txt	LTP173	ltpFR	5	n/a	n/a	<>	-1	n/a	n/a	n/a	n/a	n/a	n/a	n/a	n/a
3226247	FFR_REC_WORD_VV	wordpools/wasnorm_wordpool_less_exclusions.txt	LTP173	ltpFR	5	n/a	n/a	<>	-1	n/a	n/a	n/a	n/a	n/a	n/a	n/a	n/a
3227074	FFR_REC_WORD	wordpools/wasnorm_wordpool_less_exclusions.txt	LTP173	ltpFR	5	n/a	-1	RAKE	1164	n/a	n/a	-1	n/a	n/a	n/a	n/a	n/a
3228611	FFR_REC_WORD	wordpools/wasnorm_wordpool_less_exclusions.txt	LTP173	ltpFR	5	n/a	-1	YARD	1630	n/a	n/a	-1	n/a	n/a	n/a	n/a	n/a
3230045	FFR_REC_WORD_VV	wordpools/wasnorm_wordpool_less_exclusions.txt	LTP173	ltpFR	5	n/a	n/a	<>	-1	n/a	n/a	n/a	n/a	n/a	n/a	n/a	n/a
3246777	FFR_REC_WORD_VV	wordpools/wasnorm_wordpool_less_exclusions.txt	LTP173	ltpFR	5	n/a	n/a	<>	-1	n/a	n/a	n/a	n/a	n/a	n/a	n/a	n/a
3247777	FFR_REC_WORD_VV	wordpools/wasnorm_wordpool_less_exclusions.txt	LTP173	ltpFR	5	n/a	n/a	<>	-1	n/a	n/a	n/a	n/a	n/a	n/a	n/a	n/a
3253847	FFR_REC_WORD_VV	wordpools/wasnorm_wordpool_less_exclusions.txt	LTP173	ltpFR	5	n/a	n/a	<>	-1	n/a	n/a	n/a	n/a	n/a	n/a	n/a	n/a
3254847	FFR_REC_WORD_VV	wordpools/wasnorm_wordpool_less_exclusions.txt	LTP173	ltpFR	5	n/a	n/a	<>	-1	n/a	n/a	n/a	n/a	n/a	n/a	n/a	n/a
3259306	FFR_REC_WORD	wordpools/wasnorm_wordpool_less_exclusions.txt	LTP173	ltpFR	5	n/a	0	MARS	873	n/a	n/a	1	n/a	n/a	n/a	n/a	n/a
3265722	FFR_REC_WORD	wordpools/wasnorm_wordpool_less_exclusions.txt	LTP173	ltpFR	5	n/a	n/a	SHIRT	1287	n/a	n/a	n/a	n/a	n/a	n/a	n/a	n/a
3271732	FFR_REC_WORD_VV	wordpools/wasnorm_wordpool_less_exclusions.txt	LTP173	ltpFR	5	n/a	n/a	<>	-1	n/a	n/a	n/a	n/a	n/a	n/a	n/a	n/a
3275265	FFR_REC_WORD_VV	wordpools/wasnorm_wordpool_less_exclusions.txt	LTP173	ltpFR	5	n/a	n/a	<>	-1	n/a	n/a	n/a	n/a	n/a	n/a	n/a	n/a
3281065	FFR_REC_WORD_VV	wordpools/wasnorm_wordpool_less_exclusions.txt	LTP173	ltpFR	5	n/a	n/a	<>	-1	n/a	n/a	n/a	n/a	n/a	n/a	n/a	n/a
3290943	FFR_REC_WORD	wordpools/wasnorm_wordpool_less_exclusions.txt	LTP173	ltpFR	5	n/a	0	FLY	586	n/a	n/a	1	n/a	n/a	n/a	n/a	n/a
3291943	FFR_REC_WORD_VV	wordpools/wasnorm_wordpool_less_exclusions.txt	LTP173	ltpFR	5	n/a	n/a	<>	-1	n/a	n/a	n/a	n/a	n/a	n/a	n/a	n/a
3300063	FFR_REC_WORD_VV	wordpools/wasnorm_wordpool_less_exclusions.txt	LTP173	ltpFR	5	n/a	n/a	<>	-1	n/a	n/a	n/a	n/a	n/a	n/a	n/a	n/a
3300305	FFR_REC_WORD	wordpools/wasnorm_wordpool_less_exclusions.txt	LTP173	ltpFR	5	n/a	n/a	DINNER	468	n/a	n/a	n/a	n/a	n/a	n/a	n/a	n/a
3301101	FFR_REC_WORD	wordpools/wasnorm_wordpool_less_exclusions.txt	LTP173	ltpFR	5	n/a	0	SUPPER	1411	n/a	n/a	1	n/a	n/a	n/a	n/a	n/a
3303804	FFR_REC_WORD_VV	wordpools/wasnorm_wordpool_less_exclusions.txt	LTP173	ltpFR	5	n/a	n/a	<>	-1	n/a	n/a	n/a	n/a	n/a	n/a	n/a	n/a
3304034	FFR_REC_WORD	wordpools/wasnorm_wordpool_less_exclusions.txt	LTP173	ltpFR	5	n/a	n/a	DINNER	468	n/a	n/a	n/a	n/a	n/a	n/a	n/a	n/a
3304246	FFR_REC_WORD	wordpools/wasnorm_wordpool_less_exclusions.txt	LTP173	ltpFR	5	n/a	0	SUPPER	1411	n/a	n/a	1	n/a	n/a	n/a	n/a	n/a
3307083	FFR_REC_WORD_VV	wordpools/wasnorm_wordpool_less_exclusions.txt	LTP173	ltpFR	5	n/a	n/a	<>	-1	n/a	n/a	n/a	n/a	n/a	n/a	n/a	n/a
3314032	FFR_REC_WORD	wordpools/wasnorm_wordpool_less_exclusions.txt	LTP173	ltpFR	5	n/a	-1	COIN	343	n/a	n/a	-1	n/a	n/a	n/a	n/a	n/a
3315089	FFR_REC_WORD	wordpools/wasnorm_wordpool_less_exclusions.txt	LTP173	ltpFR	5	n/a	-1	CENT	270	n/a	n/a	-1	n/a	n/a	n/a	n/a	n/a
3324714	FFR_REC_WORD	wordpools/wasnorm_wordpool_less_exclusions.txt	LTP173	ltpFR	5	n/a	1	COLONEL	348	n/a	n/a	n/a	n/a	n/a	n/a	n/a	n/a
3325539	FFR_REC_WORD	wordpools/wasnorm_wordpool_less_exclusions.txt	LTP173	ltpFR	5	n/a	-1	POLITICIAN	1099	n/a	n/a	-1	n/a	n/a	n/a	n/a	n/a
3411742	REC_START	n/a	LTP173	ltpFR	5	1	n/a	n/a	n/a	n/a	n/a	n/a	n/a	n/a	n/a	n/a	n/a
3411775	RECOG_LURE	n/a	LTP173	ltpFR	5	1	n/a	SUBURB	1399	0	3	n/a	n/a	n/a	n/a	n/a	n/a
3418193	RECOG_RESP	n/a	LTP173	ltpFR	5	1	n/a	SUBURB	1399	0	n/a	n/a	n/a	n/a	n/a	n/a	n/a
3427097	RECOG_CONF	n/a	LTP173	ltpFR	5	1	n/a	SUBURB	1399	n/a	3	n/a	n/a	n/a	n/a	n/a	n/a
3432643	RECOG_LURE	n/a	LTP173	ltpFR	5	1	n/a	SHOELACE	1289	0	5	n/a	n/a	n/a	n/a	n/a	n/a
3433965	RECOG_RESP	n/a	LTP173	ltpFR	5	1	n/a	SHOELACE	1289	0	n/a	n/a	n/a	n/a	n/a	n/a	n/a
3435767	RECOG_CONF	n/a	LTP173	ltpFR	5	1	n/a	SHOELACE	1289	n/a	5	n/a	n/a	n/a	n/a	n/a	n/a
3441456	RECOG_LURE	n/a	LTP173	ltpFR	5	1	n/a	LETTUCE	814	0	5	n/a	n/a	n/a	n/a	n/a	n/a
3442785	RECOG_RESP	n/a	LTP173	ltpFR	5	1	n/a	LETTUCE	814	0	n/a	n/a	n/a	n/a	n/a	n/a	n/a
3444293	RECOG_CONF	n/a	LTP173	ltpFR	5	1	n/a	LETTUCE	814	n/a	5	n/a	n/a	n/a	n/a	n/a	n/a
3450911	RECOG_LURE	n/a	LTP173	ltpFR	5	1	n/a	VIRUS	1572	0	5	n/a	n/a	n/a	n/a	n/a	n/a
3452295	RECOG_RESP	n/a	LTP173	ltpFR	5	1	n/a	VIRUS	1572	0	n/a	n/a	n/a	n/a	n/a	n/a	n/a
3455278	RECOG_CONF	n/a	LTP173	ltpFR	5	1	n/a	VIRUS	1572	n/a	5	n/a	n/a	n/a	n/a	n/a	n/a
3460683	RECOG_TARGET	n/a	LTP173	ltpFR	5	1	0	UMBRELLA	1534	1	5	0	n/a	n/a	n/a	n/a	n/a
3464098	RECOG_RESP	n/a	LTP173	ltpFR	5	1	0	UMBRELLA	1534	1	n/a	0	n/a	n/a	n/a	n/a	n/a
3465195	RECOG_CONF	n/a	LTP173	ltpFR	5	1	0	UMBRELLA	1534	n/a	5	0	n/a	n/a	n/a	n/a	n/a
3471721	RECOG_LURE	n/a	LTP173	ltpFR	5	1	n/a	PALACE	1006	0	3	n/a	n/a	n/a	n/a	n/a	n/a
3473097	RECOG_RESP	n/a	LTP173	ltpFR	5	1	n/a	PALACE	1006	0	n/a	n/a	n/a	n/a	n/a	n/a	n/a
3476592	RECOG_CONF	n/a	LTP173	ltpFR	5	1	n/a	PALACE	1006	n/a	3	n/a	n/a	n/a	n/a	n/a	n/a
3482366	RECOG_TARGET	n/a	LTP173	ltpFR	5	1	1	CREW	406	0	1	1	n/a	n/a	n/a	n/a	n/a
3484420	RECOG_RESP	n/a	LTP173	ltpFR	5	1	1	CREW	406	0	n/a	1	n/a	n/a	n/a	n/a	n/a
3487938	RECOG_CONF	n/a	LTP173	ltpFR	5	1	1	CREW	406	n/a	1	1	n/a	n/a	n/a	n/a	n/a
3492672	RECOG_LURE	n/a	LTP173	ltpFR	5	1	n/a	SERVANT	1271	1	2	n/a	n/a	n/a	n/a	n/a	n/a
3496170	RECOG_RESP	n/a	LTP173	ltpFR	5	1	n/a	SERVANT	1271	1	n/a	n/a	n/a	n/a	n/a	n/a	n/a
3498321	RECOG_CONF	n/a	LTP173	ltpFR	5	1	n/a	SERVANT	1271	n/a	2	n/a	n/a	n/a	n/a	n/a	n/a
3504701	RECOG_TARGET	n/a	LTP173	ltpFR	5	1	1	GUEST	669	0	5	1	n/a	n/a	n/a	n/a	n/a
3507437	RECOG_RESP	n/a	LTP173	ltpFR	5	1	1	GUEST	669	0	n/a	1	n/a	n/a	n/a	n/a	n/a
3508853	RECOG_CONF	n/a	LTP173	ltpFR	5	1	1	GUEST	669	n/a	5	1	n/a	n/a	n/a	n/a	n/a
3514514	RECOG_TARGET	n/a	LTP173	ltpFR	5	1	-1	ATLAS	53	1	5	-1	n/a	n/a	n/a	n/a	n/a
3516309	RECOG_RESP	n/a	LTP173	ltpFR	5	1	-1	ATLAS	53	1	n/a	-1	n/a	n/a	n/a	n/a	n/a
3518972	RECOG_CONF	n/a	LTP173	ltpFR	5	1	-1	ATLAS	53	n/a	5	-1	n/a	n/a	n/a	n/a	n/a
3524076	RECOG_TARGET	n/a	LTP173	ltpFR	5	1	0	DRIVER	499	0	5	1	n/a	n/a	n/a	n/a	n/a
3526488	RECOG_RESP_VV	n/a	LTP173	ltpFR	5	1	0	DRIVER	499	1	n/a	1	n/a	n/a	n/a	n/a	n/a
3534086	RECOG_RESP	n/a	LTP173	ltpFR	5	1	0	DRIVER	499	0	n/a	1	n/a	n/a	n/a	n/a	n/a
3537012	RECOG_CONF	n/a	LTP173	ltpFR	5	1	0	DRIVER	499	n/a	5	1	n/a	n/a	n/a	n/a	n/a
3541538	RECOG_LURE	n/a	LTP173	ltpFR	5	1	n/a	COMB	351	0	2	n/a	n/a	n/a	n/a	n/a	n/a
3543903	RECOG_RESP	n/a	LTP173	ltpFR	5	1	n/a	COMB	351	0	n/a	n/a	n/a	n/a	n/a	n/a	n/a
3548280	RECOG_CONF	n/a	LTP173	ltpFR	5	1	n/a	COMB	351	n/a	2	n/a	n/a	n/a	n/a	n/a	n/a
3553816	RECOG_LURE	n/a	LTP173	ltpFR	5	1	n/a	CLIPPERS	324	0	5	n/a	n/a	n/a	n/a	n/a	n/a
3555264	RECOG_RESP	n/a	LTP173	ltpFR	5	1	n/a	CLIPPERS	324	0	n/a	n/a	n/a	n/a	n/a	n/a	n/a
3556400	RECOG_CONF	n/a	LTP173	ltpFR	5	1	n/a	CLIPPERS	324	n/a	5	n/a	n/a	n/a	n/a	n/a	n/a
3564037	RECOG_LURE	n/a	LTP173	ltpFR	5	1	n/a	HIP	710	0	5	n/a	n/a	n/a	n/a	n/a	n/a
3565609	RECOG_RESP	n/a	LTP173	ltpFR	5	1	n/a	HIP	710	0	n/a	n/a	n/a	n/a	n/a	n/a	n/a
3566478	RECOG_CONF	n/a	LTP173	ltpFR	5	1	n/a	HIP	710	n/a	5	n/a	n/a	n/a	n/a	n/a	n/a
3573568	RECOG_LURE	n/a	LTP173	ltpFR	5	1	n/a	HAWK	692	0	1	n/a	n/a	n/a	n/a	n/a	n/a
3576386	RECOG_RESP	n/a	LTP173	ltpFR	5	1	n/a	HAWK	692	0	n/a	n/a	n/a	n/a	n/a	n/a	n/a
3577567	RECOG_CONF	n/a	LTP173	ltpFR	5	1	n/a	HAWK	692	n/a	1	n/a	n/a	n/a	n/a	n/a	n/a
3582955	RECOG_LURE	n/a	LTP173	ltpFR	5	1	n/a	DOCK	477	1	5	n/a	n/a	n/a	n/a	n/a	n/a
3585177	RECOG_RESP	n/a	LTP173	ltpFR	5	1	n/a	DOCK	477	1	n/a	n/a	n/a	n/a	n/a	n/a	n/a
3585896	RECOG_CONF	n/a	LTP173	ltpFR	5	1	n/a	DOCK	477	n/a	5	n/a	n/a	n/a	n/a	n/a	n/a
3592419	RECOG_TARGET	n/a	LTP173	ltpFR	5	1	-1	YARN	1631	1	5	-1	n/a	n/a	n/a	n/a	n/a
3595888	RECOG_RESP	n/a	LTP173	ltpFR	5	1	-1	YARN	1631	1	n/a	-1	n/a	n/a	n/a	n/a	n/a
3597555	RECOG_CONF	n/a	LTP173	ltpFR	5	1	-1	YARN	1631	n/a	5	-1	n/a	n/a	n/a	n/a	n/a
3602115	RECOG_LURE	n/a	LTP173	ltpFR	5	1	n/a	DANCER	437	1	5	n/a	n/a	n/a	n/a	n/a	n/a
3604131	RECOG_RESP	n/a	LTP173	ltpFR	5	1	n/a	DANCER	437	1	n/a	n/a	n/a	n/a	n/a	n/a	n/a
3604808	RECOG_CONF	n/a	LTP173	ltpFR	5	1	n/a	DANCER	437	n/a	5	n/a	n/a	n/a	n/a	n/a	n/a
3612504	RECOG_LURE	n/a	LTP173	ltpFR	5	1	n/a	MAGNET	855	0	1	n/a	n/a	n/a	n/a	n/a	n/a
3614221	RECOG_RESP_VV	n/a	LTP173	ltpFR	5	1	n/a	MAGNET	855	1	n/a	n/a	n/a	n/a	n/a	n/a	n/a
3615776	RECOG_RESP	n/a	LTP173	ltpFR	5	1	n/a	MAGNET	855	0	n/a	n/a	n/a	n/a	n/a	n/a	n/a
3618846	RECOG_CONF	n/a	LTP173	ltpFR	5	1	n/a	MAGNET	855	n/a	1	n/a	n/a	n/a	n/a	n/a	n/a
3625823	RECOG_TARGET	n/a	LTP173	ltpFR	5	1	1	NIECE	952	1	5	n/a	n/a	n/a	n/a	n/a	n/a
3627951	RECOG_RESP	n/a	LTP173	ltpFR	5	1	1	NIECE	952	1	n/a	n/a	n/a	n/a	n/a	n/a	n/a
3629201	RECOG_CONF	n/a	LTP173	ltpFR	5	1	1	NIECE	952	n/a	5	n/a	n/a	n/a	n/a	n/a	n/a
3640021	REC_START	n/a	LTP173	ltpFR	5	2	n/a	n/a	n/a	n/a	n/a	n/a	n/a	n/a	n/a	n/a	n/a
3640060	RECOG_LURE	n/a	LTP173	ltpFR	5	2	n/a	FOLLOWER	589	0	5	n/a	n/a	n/a	n/a	n/a	n/a
3641687	RECOG_RESP	n/a	LTP173	ltpFR	5	2	n/a	FOLLOWER	589	0	n/a	n/a	n/a	n/a	n/a	n/a	n/a
3642835	RECOG_CONF	n/a	LTP173	ltpFR	5	2	n/a	FOLLOWER	589	n/a	5	n/a	n/a	n/a	n/a	n/a	n/a
3649440	RECOG_TARGET	n/a	LTP173	ltpFR	5	2	1	GARDEN	623	0	3	1	n/a	n/a	n/a	n/a	n/a
3651353	RECOG_RESP	n/a	LTP173	ltpFR	5	2	1	GARDEN	623	0	n/a	1	n/a	n/a	n/a	n/a	n/a
3652767	RECOG_CONF	n/a	LTP173	ltpFR	5	2	1	GARDEN	623	n/a	3	1	n/a	n/a	n/a	n/a	n/a
3659087	RECOG_TARGET	n/a	LTP173	ltpFR	5	2	0	WRITER	1627	1	5	1	n/a	n/a	n/a	n/a	n/a
3660954	RECOG_RESP	n/a	LTP173	ltpFR	5	2	0	WRITER	1627	1	n/a	1	n/a	n/a	n/a	n/a	n/a
3661547	RECOG_RESP_VV	n/a	LTP173	ltpFR	5	2	0	WRITER	1627	n/a	5	1	n/a	n/a	n/a	n/a	n/a
3670477	RECOG_CONF	n/a	LTP173	ltpFR	5	2	0	WRITER	1627	n/a	5	1	n/a	n/a	n/a	n/a	n/a
3673632	RECOG_LURE	n/a	LTP173	ltpFR	5	2	n/a	ENEMY	534	0	1	n/a	n/a	n/a	n/a	n/a	n/a
3676677	RECOG_RESP	n/a	LTP173	ltpFR	5	2	n/a	ENEMY	534	0	n/a	n/a	n/a	n/a	n/a	n/a	n/a
3678441	RECOG_CONF	n/a	LTP173	ltpFR	5	2	n/a	ENEMY	534	n/a	1	n/a	n/a	n/a	n/a	n/a	n/a
3686443	RECOG_TARGET	n/a	LTP173	ltpFR	5	2	0	GUM	672	1	5	2	n/a	n/a	n/a	n/a	n/a
3688504	RECOG_RESP	n/a	LTP173	ltpFR	5	2	0	GUM	672	1	n/a	2	n/a	n/a	n/a	n/a	n/a
3689064	RECOG_CONF	n/a	LTP173	ltpFR	5	2	0	GUM	672	n/a	5	2	n/a	n/a	n/a	n/a	n/a
3697657	RECOG_LURE	n/a	LTP173	ltpFR	5	2	n/a	FINGERNAIL	568	0	2	n/a	n/a	n/a	n/a	n/a	n/a
3700111	RECOG_RESP	n/a	LTP173	ltpFR	5	2	n/a	FINGERNAIL	568	0	n/a	n/a	n/a	n/a	n/a	n/a	n/a
3701875	RECOG_CONF	n/a	LTP173	ltpFR	5	2	n/a	FINGERNAIL	568	n/a	2	n/a	n/a	n/a	n/a	n/a	n/a
3709844	RECOG_TARGET	n/a	LTP173	ltpFR	5	2	0	UNDERWEAR	1537	1	5	2	n/a	n/a	n/a	n/a	n/a
3712555	RECOG_RESP	n/a	LTP173	ltpFR	5	2	0	UNDERWEAR	1537	1	n/a	2	n/a	n/a	n/a	n/a	n/a
3713125	RECOG_CONF	n/a	LTP173	ltpFR	5	2	0	UNDERWEAR	1537	n/a	5	2	n/a	n/a	n/a	n/a	n/a
3722256	RECOG_TARGET	n/a	LTP173	ltpFR	5	2	1	GYMNAST	675	0	5	1	n/a	n/a	n/a	n/a	n/a
3723521	RECOG_RESP	n/a	LTP173	ltpFR	5	2	1	GYMNAST	675	0	n/a	1	n/a	n/a	n/a	n/a	n/a
3724569	RECOG_CONF	n/a	LTP173	ltpFR	5	2	1	GYMNAST	675	n/a	5	1	n/a	n/a	n/a	n/a	n/a
3732261	RECOG_LURE	n/a	LTP173	ltpFR	5	2	n/a	LASH	802	0	2	n/a	n/a	n/a	n/a	n/a	n/a
3733764	RECOG_RESP	n/a	LTP173	ltpFR	5	2	n/a	LASH	802	0	n/a	n/a	n/a	n/a	n/a	n/a	n/a
3735836	RECOG_CONF	n/a	LTP173	ltpFR	5	2	n/a	LASH	802	n/a	2	n/a	n/a	n/a	n/a	n/a	n/a
3744098	RECOG_TARGET	n/a	LTP173	ltpFR	5	2	0	FARM	552	1	5	n/a	n/a	n/a	n/a	n/a	n/a
3745784	RECOG_RESP	n/a	LTP173	ltpFR	5	2	0	FARM	552	1	n/a	n/a	n/a	n/a	n/a	n/a	n/a
3746314	RECOG_CONF	n/a	LTP173	ltpFR	5	2	0	FARM	552	n/a	5	n/a	n/a	n/a	n/a	n/a	n/a
3754712	RECOG_LURE	n/a	LTP173	ltpFR	5	2	n/a	LETTER	813	0	3	n/a	n/a	n/a	n/a	n/a	n/a
3756012	RECOG_RESP	n/a	LTP173	ltpFR	5	2	n/a	LETTER	813	0	n/a	n/a	n/a	n/a	n/a	n/a	n/a
3758157	RECOG_CONF	n/a	LTP173	ltpFR	5	2	n/a	LETTER	813	n/a	3	n/a	n/a	n/a	n/a	n/a	n/a
3766483	RECOG_TARGET	n/a	LTP173	ltpFR	5	2	-1	DAM	436	0	1	-1	n/a	n/a	n/a	n/a	n/a
3768455	RECOG_RESP	n/a	LTP173	ltpFR	5	2	-1	DAM	436	0	n/a	-1	n/a	n/a	n/a	n/a	n/a
3771906	RECOG_CONF	n/a	LTP173	ltpFR	5	2	-1	DAM	436	n/a	1	-1	n/a	n/a	n/a	n/a	n/a
3779260	RECOG_TARGET	n/a	LTP173	ltpFR	5	2	1	SUGAR	1401	1	5	1	n/a	n/a	n/a	n/a	n/a
3780749	RECOG_RESP	n/a	LTP173	ltpFR	5	2	1	SUGAR	1401	1	n/a	1	n/a	n/a	n/a	n/a	n/a
3781444	RECOG_CONF	n/a	LTP173	ltpFR	5	2	1	SUGAR	1401	n/a	5	1	n/a	n/a	n/a	n/a	n/a
3788216	RECOG_LURE	n/a	LTP173	ltpFR	5	2	n/a	STOVE	1388	0	5	n/a	n/a	n/a	n/a	n/a	n/a
3789616	RECOG_RESP	n/a	LTP173	ltpFR	5	2	n/a	STOVE	1388	0	n/a	n/a	n/a	n/a	n/a	n/a	n/a
3791674	RECOG_CONF	n/a	LTP173	ltpFR	5	2	n/a	STOVE	1388	n/a	5	n/a	n/a	n/a	n/a	n/a	n/a
3800020	RECOG_LURE	n/a	LTP173	ltpFR	5	2	n/a	LACE	792	0	1	n/a	n/a	n/a	n/a	n/a	n/a
3808735	RECOG_RESP	n/a	LTP173	ltpFR	5	2	n/a	LACE	792	0	n/a	n/a	n/a	n/a	n/a	n/a	n/a
3809883	RECOG_CONF	n/a	LTP173	ltpFR	5	2	n/a	LACE	792	n/a	1	n/a	n/a	n/a	n/a	n/a	n/a
3816247	RECOG_LURE	n/a	LTP173	ltpFR	5	2	n/a	REBEL	1172	1	5	n/a	n/a	n/a	n/a	n/a	n/a
3818925	RECOG_RESP	n/a	LTP173	ltpFR	5	2	n/a	REBEL	1172	1	n/a	n/a	n/a	n/a	n/a	n/a	n/a
3819608	RECOG_CONF	n/a	LTP173	ltpFR	5	2	n/a	REBEL	1172	n/a	5	n/a	n/a	n/a	n/a	n/a	n/a
3827528	RECOG_TARGET	n/a	LTP173	ltpFR	5	2	1	ANTEATER	26	1	5	1	n/a	n/a	n/a	n/a	n/a
3828921	RECOG_RESP	n/a	LTP173	ltpFR	5	2	1	ANTEATER	26	1	n/a	1	n/a	n/a	n/a	n/a	n/a
3829482	RECOG_CONF	n/a	LTP173	ltpFR	5	2	1	ANTEATER	26	n/a	5	1	n/a	n/a	n/a	n/a	n/a
3836740	RECOG_LURE	n/a	LTP173	ltpFR	5	2	n/a	PEBBLE	1035	0	1	n/a	n/a	n/a	n/a	n/a	n/a
3839657	RECOG_RESP	n/a	LTP173	ltpFR	5	2	n/a	PEBBLE	1035	0	n/a	n/a	n/a	n/a	n/a	n/a	n/a
3842549	RECOG_CONF	n/a	LTP173	ltpFR	5	2	n/a	PEBBLE	1035	n/a	1	n/a	n/a	n/a	n/a	n/a	n/a
3848128	RECOG_LURE	n/a	LTP173	ltpFR	5	2	n/a	EARRING	514	0	5	n/a	n/a	n/a	n/a	n/a	n/a
3849577	RECOG_RESP	n/a	LTP173	ltpFR	5	2	n/a	EARRING	514	0	n/a	n/a	n/a	n/a	n/a	n/a	n/a
3850768	RECOG_CONF	n/a	LTP173	ltpFR	5	2	n/a	EARRING	514	n/a	5	n/a	n/a	n/a	n/a	n/a	n/a
3860724	RECOG_TARGET	n/a	LTP173	ltpFR	5	2	0	PAGE	1001	0	1	0	n/a	n/a	n/a	n/a	n/a
3863424	RECOG_RESP	n/a	LTP173	ltpFR	5	2	0	PAGE	1001	0	n/a	0	n/a	n/a	n/a	n/a	n/a
3864521	RECOG_CONF	n/a	LTP173	ltpFR	5	2	0	PAGE	1001	n/a	1	0	n/a	n/a	n/a	n/a	n/a
3875591	REC_START	n/a	LTP173	ltpFR	5	3	n/a	n/a	n/a	n/a	n/a	n/a	n/a	n/a	n/a	n/a	n/a
3875627	RECOG_TARGET	n/a	LTP173	ltpFR	5	3	1	CUE	422	1	5	1	n/a	n/a	n/a	n/a	n/a
3878909	RECOG_RESP	n/a	LTP173	ltpFR	5	3	1	CUE	422	1	n/a	1	n/a	n/a	n/a	n/a	n/a
3879914	RECOG_CONF	n/a	LTP173	ltpFR	5	3	1	CUE	422	n/a	5	1	n/a	n/a	n/a	n/a	n/a
3888673	RECOG_TARGET	n/a	LTP173	ltpFR	5	3	1	JUGGLER	763	0	1	1	n/a	n/a	n/a	n/a	n/a
3901437	RECOG_RESP	n/a	LTP173	ltpFR	5	3	1	JUGGLER	763	0	n/a	1	n/a	n/a	n/a	n/a	n/a
3902510	RECOG_CONF	n/a	LTP173	ltpFR	5	3	1	JUGGLER	763	n/a	1	1	n/a	n/a	n/a	n/a	n/a
3908415	RECOG_TARGET	n/a	LTP173	ltpFR	5	3	1	VIKING	1565	1	5	0	n/a	n/a	n/a	n/a	n/a
3910599	RECOG_RESP	n/a	LTP173	ltpFR	5	3	1	VIKING	1565	1	n/a	0	n/a	n/a	n/a	n/a	n/a
3911806	RECOG_CONF	n/a	LTP173	ltpFR	5	3	1	VIKING	1565	n/a	5	0	n/a	n/a	n/a	n/a	n/a
3919512	RECOG_TARGET	n/a	LTP173	ltpFR	5	3	1	SHELF	1280	1	5	0	n/a	n/a	n/a	n/a	n/a
3921044	RECOG_RESP	n/a	LTP173	ltpFR	5	3	1	SHELF	1280	1	n/a	0	n/a	n/a	n/a	n/a	n/a
3921871	RECOG_CONF	n/a	LTP173	ltpFR	5	3	1	SHELF	1280	n/a	5	0	n/a	n/a	n/a	n/a	n/a
3929241	RECOG_TARGET	n/a	LTP173	ltpFR	5	3	-1	TRIANGLE	1504	1	5	-1	n/a	n/a	n/a	n/a	n/a
3930600	RECOG_RESP	n/a	LTP173	ltpFR	5	3	-1	TRIANGLE	1504	1	n/a	-1	n/a	n/a	n/a	n/a	n/a
3931445	RECOG_RESP_VV	n/a	LTP173	ltpFR	5	3	-1	TRIANGLE	1504	n/a	5	-1	n/a	n/a	n/a	n/a	n/a
3934352	RECOG_CONF	n/a	LTP173	ltpFR	5	3	-1	TRIANGLE	1504	n/a	5	-1	n/a	n/a	n/a	n/a	n/a
3938812	RECOG_TARGET	n/a	LTP173	ltpFR	5	3	-1	KEYBOARD	774	1	5	-1	n/a	n/a	n/a	n/a	n/a
3941067	RECOG_RESP	n/a	LTP173	ltpFR	5	3	-1	KEYBOARD	774	1	n/a	-1	n/a	n/a	n/a	n/a	n/a
3943296	RECOG_CONF	n/a	LTP173	ltpFR	5	3	-1	KEYBOARD	774	n/a	5	-1	n/a	n/a	n/a	n/a	n/a
3950141	RECOG_LURE	n/a	LTP173	ltpFR	5	3	n/a	PICTURE	1061	0	5	n/a	n/a	n/a	n/a	n/a	n/a
3951472	RECOG_RESP	n/a	LTP173	ltpFR	5	3	n/a	PICTURE	1061	0	n/a	n/a	n/a	n/a	n/a	n/a	n/a
3952341	RECOG_CONF	n/a	LTP173	ltpFR	5	3	n/a	PICTURE	1061	n/a	5	n/a	n/a	n/a	n/a	n/a	n/a
3958863	RECOG_LURE	n/a	LTP173	ltpFR	5	3	n/a	TELESCOPE	1446	1	5	n/a	n/a	n/a	n/a	n/a	n/a
3961207	RECOG_RESP	n/a	LTP173	ltpFR	5	3	n/a	TELESCOPE	1446	1	n/a	n/a	n/a	n/a	n/a	n/a	n/a
3961700	RECOG_CONF	n/a	LTP173	ltpFR	5	3	n/a	TELESCOPE	1446	n/a	5	n/a	n/a	n/a	n/a	n/a	n/a
3970434	RECOG_LURE	n/a	LTP173	ltpFR	5	3	n/a	MAPLE	866	1	3	n/a	n/a	n/a	n/a	n/a	n/a
3971764	RECOG_RESP	n/a	LTP173	ltpFR	5	3	n/a	MAPLE	866	1	n/a	n/a	n/a	n/a	n/a	n/a	n/a
3974796	RECOG_CONF	n/a	LTP173	ltpFR	5	3	n/a	MAPLE	866	n/a	3	n/a	n/a	n/a	n/a	n/a	n/a
3983514	RECOG_TARGET	n/a	LTP173	ltpFR	5	3	1	CATTLE	261	0	1	3	n/a	n/a	n/a	n/a	n/a
3993355	RECOG_RESP	n/a	LTP173	ltpFR	5	3	1	CATTLE	261	0	n/a	3	n/a	n/a	n/a	n/a	n/a
3994146	RECOG_CONF	n/a	LTP173	ltpFR	5	3	1	CATTLE	261	n/a	1	3	n/a	n/a	n/a	n/a	n/a
4001440	RECOG_LURE	n/a	LTP173	ltpFR	5	3	n/a	ELECTRON	522	0	1	n/a	n/a	n/a	n/a	n/a	n/a
4002853	RECOG_RESP	n/a	LTP173	ltpFR	5	3	n/a	ELECTRON	522	0	n/a	n/a	n/a	n/a	n/a	n/a	n/a
4003545	RECOG_CONF	n/a	LTP173	ltpFR	5	3	n/a	ELECTRON	522	n/a	1	n/a	n/a	n/a	n/a	n/a	n/a
4009770	RECOG_TARGET	n/a	LTP173	ltpFR	5	3	1	PICNIC	1060	1	5	n/a	n/a	n/a	n/a	n/a	n/a
4012327	RECOG_RESP	n/a	LTP173	ltpFR	5	3	1	PICNIC	1060	1	n/a	n/a	n/a	n/a	n/a	n/a	n/a
4013598	RECOG_CONF	n/a	LTP173	ltpFR	5	3	1	PICNIC	1060	n/a	5	n/a	n/a	n/a	n/a	n/a	n/a
4020850	RECOG_LURE	n/a	LTP173	ltpFR	5	3	n/a	ROOSTER	1209	0	5	n/a	n/a	n/a	n/a	n/a	n/a
4022438	RECOG_RESP	n/a	LTP173	ltpFR	5	3	n/a	ROOSTER	1209	0	n/a	n/a	n/a	n/a	n/a	n/a	n/a
4023410	RECOG_CONF	n/a	LTP173	ltpFR	5	3	n/a	ROOSTER	1209	n/a	5	n/a	n/a	n/a	n/a	n/a	n/a
4030838	RECOG_LURE	n/a	LTP173	ltpFR	5	3	n/a	LONDON	843	1	5	n/a	n/a	n/a	n/a	n/a	n/a
4032953	RECOG_RESP	n/a	LTP173	ltpFR	5	3	n/a	LONDON	843	1	n/a	n/a	n/a	n/a	n/a	n/a	n/a
4033597	RECOG_CONF	n/a	LTP173	ltpFR	5	3	n/a	LONDON	843	n/a	5	n/a	n/a	n/a	n/a	n/a	n/a
4041326	RECOG_LURE	n/a	LTP173	ltpFR	5	3	n/a	DETERGENT	455	0	1	n/a	n/a	n/a	n/a	n/a	n/a
4047494	RECOG_RESP	n/a	LTP173	ltpFR	5	3	n/a	DETERGENT	455	0	n/a	n/a	n/a	n/a	n/a	n/a	n/a
4048902	RECOG_CONF	n/a	LTP173	ltpFR	5	3	n/a	DETERGENT	455	n/a	1	n/a	n/a	n/a	n/a	n/a	n/a
4056613	RECOG_TARGET	n/a	LTP173	ltpFR	5	3	0	TEMPLE	1448	0	3	1	n/a	n/a	n/a	n/a	n/a
4058586	RECOG_RESP	n/a	LTP173	ltpFR	5	3	0	TEMPLE	1448	0	n/a	1	n/a	n/a	n/a	n/a	n/a
4059827	RECOG_CONF	n/a	LTP173	ltpFR	5	3	0	TEMPLE	1448	n/a	3	1	n/a	n/a	n/a	n/a	n/a
4068333	RECOG_TARGET	n/a	LTP173	ltpFR	5	3	-1	WAITER	1580	1	3	-1	n/a	n/a	n/a	n/a	n/a
4073433	RECOG_RESP_VV	n/a	LTP173	ltpFR	5	3	-1	WAITER	1580	1	n/a	-1	n/a	n/a	n/a	n/a	n/a
4075293	RECOG_RESP	n/a	LTP173	ltpFR	5	3	-1	WAITER	1580	1	n/a	-1	n/a	n/a	n/a	n/a	n/a
4077453	RECOG_CONF	n/a	LTP173	ltpFR	5	3	-1	WAITER	1580	n/a	3	-1	n/a	n/a	n/a	n/a	n/a
4082044	RECOG_TARGET	n/a	LTP173	ltpFR	5	3	-1	SAUSAGE	1238	1	5	-1	n/a	n/a	n/a	n/a	n/a
4083868	RECOG_RESP	n/a	LTP173	ltpFR	5	3	-1	SAUSAGE	1238	1	n/a	-1	n/a	n/a	n/a	n/a	n/a
4084371	RECOG_RESP_VV	n/a	LTP173	ltpFR	5	3	-1	SAUSAGE	1238	n/a	5	-1	n/a	n/a	n/a	n/a	n/a
