mstime	trial_type	stim_file	subject	experiment	session	trial	item_name	item_num	list	answer	test_x	test_y	test_z
0	SESS_START	n/a	LTP343	ltpFR2	18	n/a	n/a	n/a	n/a	n/a	0	0	0
13547	START	n/a	LTP343	ltpFR2	18	n/a	n/a	n/a	-1	n/a	n/a	n/a	n/a
13577	PROB	n/a	LTP343	ltpFR2	18	n/a	n/a	n/a	-1	11	4	1	6
15676	PROB	n/a	LTP343	ltpFR2	18	n/a	n/a	n/a	-1	18	4	9	5
17358	PROB	n/a	LTP343	ltpFR2	18	n/a	n/a	n/a	-1	9	3	1	5
18858	PROB	n/a	LTP343	ltpFR2	18	n/a	n/a	n/a	-1	15	4	3	8
22040	PROB	n/a	LTP343	ltpFR2	18	n/a	n/a	n/a	-1	15	3	7	5
23673	PROB	n/a	LTP343	ltpFR2	18	n/a	n/a	n/a	-1	8	3	3	2
24680	STOP	n/a	LTP343	ltpFR2	18	n/a	n/a	n/a	-1	n/a	n/a	n/a	n/a
55508	DISTRACTOR	n/a	LTP343	ltpFR2	18	1	n/a	n/a	n/a	n/a	0	0	0
55509	START	n/a	LTP343	ltpFR2	18	n/a	n/a	n/a	1	n/a	n/a	n/a	n/a
55525	PROB	n/a	LTP343	ltpFR2	18	n/a	n/a	n/a	1	17	8	1	8
57158	PROB	n/a	LTP343	ltpFR2	18	n/a	n/a	n/a	1	8	5	2	1
58141	PROB	n/a	LTP343	ltpFR2	18	n/a	n/a	n/a	1	16	1	9	6
59256	PROB	n/a	LTP343	ltpFR2	18	n/a	n/a	n/a	1	16	3	6	7
60322	PROB	n/a	LTP343	ltpFR2	18	n/a	n/a	n/a	1	17	6	3	8
64588	PROB	n/a	LTP343	ltpFR2	18	n/a	n/a	n/a	1	5	2	1	2
65537	PROB	n/a	LTP343	ltpFR2	18	n/a	n/a	n/a	1	13	7	1	5
66637	PROB	n/a	LTP343	ltpFR2	18	n/a	n/a	n/a	1	11	6	3	2
67703	PROB	n/a	LTP343	ltpFR2	18	n/a	n/a	n/a	1	10	4	4	2
68852	PROB	n/a	LTP343	ltpFR2	18	n/a	n/a	n/a	1	15	5	4	6
69935	PROB	n/a	LTP343	ltpFR2	18	n/a	n/a	n/a	1	20	6	6	8
71384	PROB	n/a	LTP343	ltpFR2	18	n/a	n/a	n/a	1	18	7	6	5
72967	PROB	n/a	LTP343	ltpFR2	18	n/a	n/a	n/a	1	14	5	5	4
74050	PROB	n/a	LTP343	ltpFR2	18	n/a	n/a	n/a	1	18	7	7	4
75183	PROB	n/a	LTP343	ltpFR2	18	n/a	n/a	n/a	1	4	1	1	2
76132	PROB	n/a	LTP343	ltpFR2	18	n/a	n/a	n/a	1	11	1	5	5
77082	PROB	n/a	LTP343	ltpFR2	18	n/a	n/a	n/a	1	24	8	7	9
78432	STOP	n/a	LTP343	ltpFR2	18	n/a	n/a	n/a	1	n/a	n/a	n/a	n/a
80630	WORD	wordpools/wasnorm_wordpool_576.txt	LTP343	ltpFR2	18	1	GRAVE	658	n/a	n/a	0	0	0
83262	WORD	wordpools/wasnorm_wordpool_576.txt	LTP343	ltpFR2	18	1	ROBOT	1200	n/a	n/a	0	0	0
85895	WORD	wordpools/wasnorm_wordpool_576.txt	LTP343	ltpFR2	18	1	SIBLING	1301	n/a	n/a	0	0	0
88510	WORD	wordpools/wasnorm_wordpool_576.txt	LTP343	ltpFR2	18	1	TROUT	1511	n/a	n/a	0	0	0
90942	WORD	wordpools/wasnorm_wordpool_576.txt	LTP343	ltpFR2	18	1	LIPSTICK	829	n/a	n/a	0	0	0
93641	WORD	wordpools/wasnorm_wordpool_576.txt	LTP343	ltpFR2	18	1	EYELASH	546	n/a	n/a	0	0	0
96073	WORD	wordpools/wasnorm_wordpool_576.txt	LTP343	ltpFR2	18	1	ITEM	746	n/a	n/a	0	0	0
98705	WORD	wordpools/wasnorm_wordpool_576.txt	LTP343	ltpFR2	18	1	WASHER	1592	n/a	n/a	0	0	0
101237	WORD	wordpools/wasnorm_wordpool_576.txt	LTP343	ltpFR2	18	1	MAPLE	866	n/a	n/a	0	0	0
104003	WORD	wordpools/wasnorm_wordpool_576.txt	LTP343	ltpFR2	18	1	SERVER	1272	n/a	n/a	0	0	0
106552	WORD	wordpools/wasnorm_wordpool_576.txt	LTP343	ltpFR2	18	1	SAUSAGE	1238	n/a	n/a	0	0	0
109250	WORD	wordpools/wasnorm_wordpool_576.txt	LTP343	ltpFR2	18	1	KITCHEN	778	n/a	n/a	0	0	0
111983	WORD	wordpools/wasnorm_wordpool_576.txt	LTP343	ltpFR2	18	1	APRON	35	n/a	n/a	0	0	0
114748	WORD	wordpools/wasnorm_wordpool_576.txt	LTP343	ltpFR2	18	1	PASSAGE	1019	n/a	n/a	0	0	0
117196	WORD	wordpools/wasnorm_wordpool_576.txt	LTP343	ltpFR2	18	1	STONE	1385	n/a	n/a	0	0	0
119713	WORD	wordpools/wasnorm_wordpool_576.txt	LTP343	ltpFR2	18	1	PLUTO	1092	n/a	n/a	0	0	0
122261	WORD	wordpools/wasnorm_wordpool_576.txt	LTP343	ltpFR2	18	1	HERO	706	n/a	n/a	0	0	0
124927	WORD	wordpools/wasnorm_wordpool_576.txt	LTP343	ltpFR2	18	1	JURY	766	n/a	n/a	0	0	0
127509	WORD	wordpools/wasnorm_wordpool_576.txt	LTP343	ltpFR2	18	1	DAISY	435	n/a	n/a	0	0	0
130025	WORD	wordpools/wasnorm_wordpool_576.txt	LTP343	ltpFR2	18	1	BRAKE	166	n/a	n/a	0	0	0
132507	WORD	wordpools/wasnorm_wordpool_576.txt	LTP343	ltpFR2	18	1	VAGRANT	1544	n/a	n/a	0	0	0
134972	WORD	wordpools/wasnorm_wordpool_576.txt	LTP343	ltpFR2	18	1	ISLAND	745	n/a	n/a	0	0	0
137420	WORD	wordpools/wasnorm_wordpool_576.txt	LTP343	ltpFR2	18	1	GRAVEL	659	n/a	n/a	0	0	0
139870	WORD	wordpools/wasnorm_wordpool_576.txt	LTP343	ltpFR2	18	1	SHARK	1275	n/a	n/a	0	0	0
141486	START	n/a	LTP343	ltpFR2	18	n/a	n/a	n/a	2	n/a	n/a	n/a	n/a
142424	DISTRACTOR	n/a	LTP343	ltpFR2	18	1	n/a	n/a	n/a	n/a	0	0	0
142435	PROB	n/a	LTP343	ltpFR2	18	n/a	n/a	n/a	2	14	6	1	7
144068	PROB	n/a	LTP343	ltpFR2	18	n/a	n/a	n/a	2	8	4	2	2
145051	PROB	n/a	LTP343	ltpFR2	18	n/a	n/a	n/a	2	15	3	5	7
146667	PROB	n/a	LTP343	ltpFR2	18	n/a	n/a	n/a	2	12	4	2	6
147850	PROB	n/a	LTP343	ltpFR2	18	n/a	n/a	n/a	2	16	8	4	4
149149	PROB	n/a	LTP343	ltpFR2	18	n/a	n/a	n/a	2	20	3	8	9
150482	PROB	n/a	LTP343	ltpFR2	18	n/a	n/a	n/a	2	22	9	9	4
152165	PROB	n/a	LTP343	ltpFR2	18	n/a	n/a	n/a	2	14	5	5	4
153246	PROB	n/a	LTP343	ltpFR2	18	n/a	n/a	n/a	2	11	8	1	2
154813	PROB	n/a	LTP343	ltpFR2	18	n/a	n/a	n/a	2	16	9	3	4
156195	PROB	n/a	LTP343	ltpFR2	18	n/a	n/a	n/a	2	9	5	3	1
157261	PROB	n/a	LTP343	ltpFR2	18	n/a	n/a	n/a	2	15	5	8	2
158662	PROB	n/a	LTP343	ltpFR2	18	n/a	n/a	n/a	2	9	2	3	4
159728	PROB	n/a	LTP343	ltpFR2	18	n/a	n/a	n/a	2	13	9	3	1
160994	PROB	n/a	LTP343	ltpFR2	18	n/a	n/a	n/a	2	14	4	7	3
162259	PROB	n/a	LTP343	ltpFR2	18	n/a	n/a	n/a	2	10	4	4	2
165484	STOP	n/a	LTP343	ltpFR2	18	n/a	n/a	n/a	2	n/a	n/a	n/a	n/a
167357	REC_START	n/a	LTP343	ltpFR2	18	1	n/a	n/a	n/a	n/a	0	0	0
168213	REC_WORD	wordpools/wasnorm_wordpool_576.txt	LTP343	ltpFR2	18	1	JURY	766	n/a	n/a	0	0	0
169133	REC_WORD	wordpools/wasnorm_wordpool_576.txt	LTP343	ltpFR2	18	1	DAISY	435	n/a	n/a	0	0	0
170047	REC_WORD	wordpools/wasnorm_wordpool_576.txt	LTP343	ltpFR2	18	1	BRAKE	166	n/a	n/a	0	0	0
172157	REC_WORD	wordpools/wasnorm_wordpool_576.txt	LTP343	ltpFR2	18	1	VAGRANT	1544	n/a	n/a	0	0	0
173701	REC_WORD	wordpools/wasnorm_wordpool_576.txt	LTP343	ltpFR2	18	1	GRAVEL	659	n/a	n/a	0	0	0
175244	REC_WORD	wordpools/wasnorm_wordpool_576.txt	LTP343	ltpFR2	18	1	LIPSTICK	829	n/a	n/a	0	0	0
176156	REC_WORD	wordpools/wasnorm_wordpool_576.txt	LTP343	ltpFR2	18	1	EYELASH	546	n/a	n/a	0	0	0
177236	REC_WORD	wordpools/wasnorm_wordpool_576.txt	LTP343	ltpFR2	18	1	ITEM	746	n/a	n/a	0	0	0
257800	DISTRACTOR	n/a	LTP343	ltpFR2	18	2	n/a	n/a	n/a	n/a	0	0	0
257800	START	n/a	LTP343	ltpFR2	18	n/a	n/a	n/a	3	n/a	n/a	n/a	n/a
257817	PROB	n/a	LTP343	ltpFR2	18	n/a	n/a	n/a	3	11	2	5	4
259415	PROB	n/a	LTP343	ltpFR2	18	n/a	n/a	n/a	3	12	7	4	1
260499	PROB	n/a	LTP343	ltpFR2	18	n/a	n/a	n/a	3	8	4	1	3
262280	PROB	n/a	LTP343	ltpFR2	18	n/a	n/a	n/a	3	21	8	7	6
263714	PROB	n/a	LTP343	ltpFR2	18	n/a	n/a	n/a	3	19	5	5	9
264730	PROB	n/a	LTP343	ltpFR2	18	n/a	n/a	n/a	3	19	9	5	5
265846	PROB	n/a	LTP343	ltpFR2	18	n/a	n/a	n/a	3	14	4	4	6
267079	PROB	n/a	LTP343	ltpFR2	18	n/a	n/a	n/a	3	14	1	8	5
268278	PROB	n/a	LTP343	ltpFR2	18	n/a	n/a	n/a	3	26	8	9	9
269611	PROB	n/a	LTP343	ltpFR2	18	n/a	n/a	n/a	3	16	1	9	6
270761	PROB	n/a	LTP343	ltpFR2	18	n/a	n/a	n/a	3	15	4	9	2
272242	PROB	n/a	LTP343	ltpFR2	18	n/a	n/a	n/a	3	19	4	9	6
275958	PROB	n/a	LTP343	ltpFR2	18	n/a	n/a	n/a	3	12	3	2	7
277223	PROB	n/a	LTP343	ltpFR2	18	n/a	n/a	n/a	3	17	7	7	3
280090	PROB	n/a	LTP343	ltpFR2	18	n/a	n/a	n/a	3	27	9	9	9
281191	STOP	n/a	LTP343	ltpFR2	18	n/a	n/a	n/a	3	n/a	n/a	n/a	n/a
282872	WORD	wordpools/wasnorm_wordpool_576.txt	LTP343	ltpFR2	18	2	SCISSORS	1250	n/a	n/a	0	0	0
285337	WORD	wordpools/wasnorm_wordpool_576.txt	LTP343	ltpFR2	18	2	OINTMENT	974	n/a	n/a	0	0	0
287970	WORD	wordpools/wasnorm_wordpool_576.txt	LTP343	ltpFR2	18	2	BRICK	172	n/a	n/a	0	0	0
290752	WORD	wordpools/wasnorm_wordpool_576.txt	LTP343	ltpFR2	18	2	PRIMATE	1123	n/a	n/a	0	0	0
293383	WORD	wordpools/wasnorm_wordpool_576.txt	LTP343	ltpFR2	18	2	HUSBAND	728	n/a	n/a	0	0	0
296099	WORD	wordpools/wasnorm_wordpool_576.txt	LTP343	ltpFR2	18	2	STALLION	1369	n/a	n/a	0	0	0
298831	WORD	wordpools/wasnorm_wordpool_576.txt	LTP343	ltpFR2	18	2	SADDLE	1221	n/a	n/a	0	0	0
301363	WORD	wordpools/wasnorm_wordpool_576.txt	LTP343	ltpFR2	18	2	JEANS	752	n/a	n/a	0	0	0
303896	WORD	wordpools/wasnorm_wordpool_576.txt	LTP343	ltpFR2	18	2	SPHINX	1349	n/a	n/a	0	0	0
306410	WORD	wordpools/wasnorm_wordpool_576.txt	LTP343	ltpFR2	18	2	COSTUME	383	n/a	n/a	0	0	0
309177	WORD	wordpools/wasnorm_wordpool_576.txt	LTP343	ltpFR2	18	2	LIGHTNING	820	n/a	n/a	0	0	0
311642	WORD	wordpools/wasnorm_wordpool_576.txt	LTP343	ltpFR2	18	2	YOLK	1633	n/a	n/a	0	0	0
314174	WORD	wordpools/wasnorm_wordpool_576.txt	LTP343	ltpFR2	18	2	ROOSTER	1209	n/a	n/a	0	0	0
316956	WORD	wordpools/wasnorm_wordpool_576.txt	LTP343	ltpFR2	18	2	SUNRISE	1407	n/a	n/a	0	0	0
319589	WORD	wordpools/wasnorm_wordpool_576.txt	LTP343	ltpFR2	18	2	AUTHOR	61	n/a	n/a	0	0	0
322088	WORD	wordpools/wasnorm_wordpool_576.txt	LTP343	ltpFR2	18	2	RADISH	1158	n/a	n/a	0	0	0
324670	WORD	wordpools/wasnorm_wordpool_576.txt	LTP343	ltpFR2	18	2	WIFE	1609	n/a	n/a	0	0	0
327367	WORD	wordpools/wasnorm_wordpool_576.txt	LTP343	ltpFR2	18	2	TYPIST	1532	n/a	n/a	0	0	0
329917	WORD	wordpools/wasnorm_wordpool_576.txt	LTP343	ltpFR2	18	2	ORCHID	982	n/a	n/a	0	0	0
332633	WORD	wordpools/wasnorm_wordpool_576.txt	LTP343	ltpFR2	18	2	SUNSET	1408	n/a	n/a	0	0	0
335132	WORD	wordpools/wasnorm_wordpool_576.txt	LTP343	ltpFR2	18	2	WARDROBE	1587	n/a	n/a	0	0	0
337747	WORD	wordpools/wasnorm_wordpool_576.txt	LTP343	ltpFR2	18	2	LEADER	807	n/a	n/a	0	0	0
340529	WORD	wordpools/wasnorm_wordpool_576.txt	LTP343	ltpFR2	18	2	PARSLEY	1016	n/a	n/a	0	0	0
343277	WORD	wordpools/wasnorm_wordpool_576.txt	LTP343	ltpFR2	18	2	WIDOW	1608	n/a	n/a	0	0	0
344894	START	n/a	LTP343	ltpFR2	18	n/a	n/a	n/a	4	n/a	n/a	n/a	n/a
345938	DISTRACTOR	n/a	LTP343	ltpFR2	18	2	n/a	n/a	n/a	n/a	0	0	0
345943	PROB	n/a	LTP343	ltpFR2	18	n/a	n/a	n/a	4	17	6	6	5
347593	PROB	n/a	LTP343	ltpFR2	18	n/a	n/a	n/a	4	15	8	1	6
348925	PROB	n/a	LTP343	ltpFR2	18	n/a	n/a	n/a	4	15	4	4	7
350141	PROB	n/a	LTP343	ltpFR2	18	n/a	n/a	n/a	4	15	6	8	1
352256	PROB	n/a	LTP343	ltpFR2	18	n/a	n/a	n/a	4	9	2	6	1
353322	PROB	n/a	LTP343	ltpFR2	18	n/a	n/a	n/a	4	7	1	5	1
354422	PROB	n/a	LTP343	ltpFR2	18	n/a	n/a	n/a	4	20	6	5	9
357038	PROB	n/a	LTP343	ltpFR2	18	n/a	n/a	n/a	4	8	2	1	5
358270	PROB	n/a	LTP343	ltpFR2	18	n/a	n/a	n/a	4	21	9	6	6
359704	PROB	n/a	LTP343	ltpFR2	18	n/a	n/a	n/a	4	15	2	7	6
360853	PROB	n/a	LTP343	ltpFR2	18	n/a	n/a	n/a	4	14	7	6	1
362086	PROB	n/a	LTP343	ltpFR2	18	n/a	n/a	n/a	4	11	3	2	6
363652	PROB	n/a	LTP343	ltpFR2	18	n/a	n/a	n/a	4	15	6	7	2
365217	PROB	n/a	LTP343	ltpFR2	18	n/a	n/a	n/a	4	17	6	7	4
366701	PROB	n/a	LTP343	ltpFR2	18	n/a	n/a	n/a	4	17	8	8	1
367842	STOP	n/a	LTP343	ltpFR2	18	n/a	n/a	n/a	4	n/a	n/a	n/a	n/a
370666	REC_START	n/a	LTP343	ltpFR2	18	2	n/a	n/a	n/a	n/a	0	0	0
371235	REC_WORD	wordpools/wasnorm_wordpool_576.txt	LTP343	ltpFR2	18	2	WIFE	1609	n/a	n/a	0	0	0
372234	REC_WORD	wordpools/wasnorm_wordpool_576.txt	LTP343	ltpFR2	18	2	TYPIST	1532	n/a	n/a	0	0	0
373127	REC_WORD	wordpools/wasnorm_wordpool_576.txt	LTP343	ltpFR2	18	2	SUNSET	1408	n/a	n/a	0	0	0
461108	WORD	wordpools/wasnorm_wordpool_576.txt	LTP343	ltpFR2	18	3	MOP	916	n/a	n/a	0	0	0
463790	WORD	wordpools/wasnorm_wordpool_576.txt	LTP343	ltpFR2	18	3	SHOULDER	1294	n/a	n/a	0	0	0
466238	WORD	wordpools/wasnorm_wordpool_576.txt	LTP343	ltpFR2	18	3	BASEMENT	94	n/a	n/a	0	0	0
468887	WORD	wordpools/wasnorm_wordpool_576.txt	LTP343	ltpFR2	18	3	POCKET	1093	n/a	n/a	0	0	0
471486	WORD	wordpools/wasnorm_wordpool_576.txt	LTP343	ltpFR2	18	3	AWARD	63	n/a	n/a	0	0	0
473985	WORD	wordpools/wasnorm_wordpool_576.txt	LTP343	ltpFR2	18	3	PERFUME	1049	n/a	n/a	0	0	0
476684	WORD	wordpools/wasnorm_wordpool_576.txt	LTP343	ltpFR2	18	3	ELBOW	520	n/a	n/a	0	0	0
479349	WORD	wordpools/wasnorm_wordpool_576.txt	LTP343	ltpFR2	18	3	EUROPE	541	n/a	n/a	0	0	0
481915	WORD	wordpools/wasnorm_wordpool_576.txt	LTP343	ltpFR2	18	3	COUNTY	389	n/a	n/a	0	0	0
484363	WORD	wordpools/wasnorm_wordpool_576.txt	LTP343	ltpFR2	18	3	HIGHWAY	707	n/a	n/a	0	0	0
486996	WORD	wordpools/wasnorm_wordpool_576.txt	LTP343	ltpFR2	18	3	CANDY	230	n/a	n/a	0	0	0
489761	WORD	wordpools/wasnorm_wordpool_576.txt	LTP343	ltpFR2	18	3	PASTRY	1022	n/a	n/a	0	0	0
492577	WORD	wordpools/wasnorm_wordpool_576.txt	LTP343	ltpFR2	18	3	PATIENT	1024	n/a	n/a	0	0	0
495291	WORD	wordpools/wasnorm_wordpool_576.txt	LTP343	ltpFR2	18	3	SWIMMER	1420	n/a	n/a	0	0	0
497808	WORD	wordpools/wasnorm_wordpool_576.txt	LTP343	ltpFR2	18	3	HARP	689	n/a	n/a	0	0	0
500440	WORD	wordpools/wasnorm_wordpool_576.txt	LTP343	ltpFR2	18	3	SWITCH	1422	n/a	n/a	0	0	0
503005	WORD	wordpools/wasnorm_wordpool_576.txt	LTP343	ltpFR2	18	3	BLOUSE	139	n/a	n/a	0	0	0
505754	WORD	wordpools/wasnorm_wordpool_576.txt	LTP343	ltpFR2	18	3	CONCERT	360	n/a	n/a	0	0	0
508470	WORD	wordpools/wasnorm_wordpool_576.txt	LTP343	ltpFR2	18	3	HONEY	713	n/a	n/a	0	0	0
511068	WORD	wordpools/wasnorm_wordpool_576.txt	LTP343	ltpFR2	18	3	WASP	1593	n/a	n/a	0	0	0
513884	WORD	wordpools/wasnorm_wordpool_576.txt	LTP343	ltpFR2	18	3	CASHIER	254	n/a	n/a	0	0	0
516315	WORD	wordpools/wasnorm_wordpool_576.txt	LTP343	ltpFR2	18	3	LABEL	790	n/a	n/a	0	0	0
519098	WORD	wordpools/wasnorm_wordpool_576.txt	LTP343	ltpFR2	18	3	GAZELLE	628	n/a	n/a	0	0	0
521864	WORD	wordpools/wasnorm_wordpool_576.txt	LTP343	ltpFR2	18	3	BATHTUB	100	n/a	n/a	0	0	0
523480	START	n/a	LTP343	ltpFR2	18	n/a	n/a	n/a	5	n/a	n/a	n/a	n/a
524340	DISTRACTOR	n/a	LTP343	ltpFR2	18	3	n/a	n/a	n/a	n/a	0	0	0
524345	PROB	n/a	LTP343	ltpFR2	18	n/a	n/a	n/a	5	7	1	3	3
525762	PROB	n/a	LTP343	ltpFR2	18	n/a	n/a	n/a	5	17	6	3	8
527178	PROB	n/a	LTP343	ltpFR2	18	n/a	n/a	n/a	5	8	5	1	2
528293	PROB	n/a	LTP343	ltpFR2	18	n/a	n/a	n/a	5	18	5	9	4
529560	PROB	n/a	LTP343	ltpFR2	18	n/a	n/a	n/a	5	8	1	3	4
530526	PROB	n/a	LTP343	ltpFR2	18	n/a	n/a	n/a	5	13	9	2	2
532208	PROB	n/a	LTP343	ltpFR2	18	n/a	n/a	n/a	5	11	3	7	1
533257	PROB	n/a	LTP343	ltpFR2	18	n/a	n/a	n/a	5	16	3	8	5
535024	PROB	n/a	LTP343	ltpFR2	18	n/a	n/a	n/a	5	17	8	1	8
536707	PROB	n/a	LTP343	ltpFR2	18	n/a	n/a	n/a	5	20	8	5	7
539156	PROB	n/a	LTP343	ltpFR2	18	n/a	n/a	n/a	5	20	6	7	7
540838	PROB	n/a	LTP343	ltpFR2	18	n/a	n/a	n/a	5	14	4	4	6
542088	PROB	n/a	LTP343	ltpFR2	18	n/a	n/a	n/a	5	7	4	1	2
543470	PROB	n/a	LTP343	ltpFR2	18	n/a	n/a	n/a	5	17	9	5	3
544786	PROB	n/a	LTP343	ltpFR2	18	n/a	n/a	n/a	5	19	9	8	2
546016	STOP	n/a	LTP343	ltpFR2	18	n/a	n/a	n/a	5	n/a	n/a	n/a	n/a
549367	REC_START	n/a	LTP343	ltpFR2	18	3	n/a	n/a	n/a	n/a	0	0	0
550124	REC_WORD	wordpools/wasnorm_wordpool_576.txt	LTP343	ltpFR2	18	3	SHOULDER	1294	n/a	n/a	0	0	0
550979	REC_WORD	wordpools/wasnorm_wordpool_576.txt	LTP343	ltpFR2	18	3	MOP	916	n/a	n/a	0	0	0
552045	REC_WORD	wordpools/wasnorm_wordpool_576.txt	LTP343	ltpFR2	18	3	POCKET	1093	n/a	n/a	0	0	0
552934	REC_WORD	wordpools/wasnorm_wordpool_576.txt	LTP343	ltpFR2	18	3	AWARD	63	n/a	n/a	0	0	0
554111	REC_WORD	wordpools/wasnorm_wordpool_576.txt	LTP343	ltpFR2	18	3	CASHIER	254	n/a	n/a	0	0	0
639810	DISTRACTOR	n/a	LTP343	ltpFR2	18	4	n/a	n/a	n/a	n/a	0	0	0
639810	START	n/a	LTP343	ltpFR2	18	n/a	n/a	n/a	6	n/a	n/a	n/a	n/a
639827	PROB	n/a	LTP343	ltpFR2	18	n/a	n/a	n/a	6	10	5	1	4
641342	PROB	n/a	LTP343	ltpFR2	18	n/a	n/a	n/a	6	5	1	3	1
642526	PROB	n/a	LTP343	ltpFR2	18	n/a	n/a	n/a	6	25	8	8	9
645591	PROB	n/a	LTP343	ltpFR2	18	n/a	n/a	n/a	6	23	8	8	7
648205	PROB	n/a	LTP343	ltpFR2	18	n/a	n/a	n/a	6	7	3	2	2
649872	PROB	n/a	LTP343	ltpFR2	18	n/a	n/a	n/a	6	14	5	6	3
651105	PROB	n/a	LTP343	ltpFR2	18	n/a	n/a	n/a	6	14	4	3	7
652387	PROB	n/a	LTP343	ltpFR2	18	n/a	n/a	n/a	6	20	9	5	6
654687	PROB	n/a	LTP343	ltpFR2	18	n/a	n/a	n/a	6	14	8	3	3
656252	PROB	n/a	LTP343	ltpFR2	18	n/a	n/a	n/a	6	9	4	4	1
657334	PROB	n/a	LTP343	ltpFR2	18	n/a	n/a	n/a	6	23	8	8	7
659668	PROB	n/a	LTP343	ltpFR2	18	n/a	n/a	n/a	6	25	8	9	8
662979	STOP	n/a	LTP343	ltpFR2	18	n/a	n/a	n/a	6	n/a	n/a	n/a	n/a
664699	WORD	wordpools/wasnorm_wordpool_576.txt	LTP343	ltpFR2	18	4	LASER	801	n/a	n/a	0	0	0
667363	WORD	wordpools/wasnorm_wordpool_576.txt	LTP343	ltpFR2	18	4	LAMP	798	n/a	n/a	0	0	0
669846	WORD	wordpools/wasnorm_wordpool_576.txt	LTP343	ltpFR2	18	4	SNAIL	1332	n/a	n/a	0	0	0
672512	WORD	wordpools/wasnorm_wordpool_576.txt	LTP343	ltpFR2	18	4	CAMEL	223	n/a	n/a	0	0	0
675193	WORD	wordpools/wasnorm_wordpool_576.txt	LTP343	ltpFR2	18	4	HATCHET	691	n/a	n/a	0	0	0
677976	WORD	wordpools/wasnorm_wordpool_576.txt	LTP343	ltpFR2	18	4	LILY	821	n/a	n/a	0	0	0
680525	WORD	wordpools/wasnorm_wordpool_576.txt	LTP343	ltpFR2	18	4	PEACH	1031	n/a	n/a	0	0	0
683140	WORD	wordpools/wasnorm_wordpool_576.txt	LTP343	ltpFR2	18	4	JELLO	754	n/a	n/a	0	0	0
685723	WORD	wordpools/wasnorm_wordpool_576.txt	LTP343	ltpFR2	18	4	COTTAGE	384	n/a	n/a	0	0	0
688220	WORD	wordpools/wasnorm_wordpool_576.txt	LTP343	ltpFR2	18	4	COOKBOOK	373	n/a	n/a	0	0	0
691020	WORD	wordpools/wasnorm_wordpool_576.txt	LTP343	ltpFR2	18	4	STAKE	1368	n/a	n/a	0	0	0
693819	WORD	wordpools/wasnorm_wordpool_576.txt	LTP343	ltpFR2	18	4	PIGMENT	1066	n/a	n/a	0	0	0
696501	WORD	wordpools/wasnorm_wordpool_576.txt	LTP343	ltpFR2	18	4	OZONE	996	n/a	n/a	0	0	0
699299	WORD	wordpools/wasnorm_wordpool_576.txt	LTP343	ltpFR2	18	4	PLATE	1086	n/a	n/a	0	0	0
701982	WORD	wordpools/wasnorm_wordpool_576.txt	LTP343	ltpFR2	18	4	POLICE	1098	n/a	n/a	0	0	0
704547	WORD	wordpools/wasnorm_wordpool_576.txt	LTP343	ltpFR2	18	4	CLAM	315	n/a	n/a	0	0	0
707013	WORD	wordpools/wasnorm_wordpool_576.txt	LTP343	ltpFR2	18	4	NAPKIN	937	n/a	n/a	0	0	0
709562	WORD	wordpools/wasnorm_wordpool_576.txt	LTP343	ltpFR2	18	4	ULCER	1533	n/a	n/a	0	0	0
712376	WORD	wordpools/wasnorm_wordpool_576.txt	LTP343	ltpFR2	18	4	BELLY	119	n/a	n/a	0	0	0
715026	WORD	wordpools/wasnorm_wordpool_576.txt	LTP343	ltpFR2	18	4	TUNNEL	1519	n/a	n/a	0	0	0
717541	WORD	wordpools/wasnorm_wordpool_576.txt	LTP343	ltpFR2	18	4	SANDWICH	1232	n/a	n/a	0	0	0
720124	WORD	wordpools/wasnorm_wordpool_576.txt	LTP343	ltpFR2	18	4	YACHT	1629	n/a	n/a	0	0	0
722572	WORD	wordpools/wasnorm_wordpool_576.txt	LTP343	ltpFR2	18	4	PATROL	1027	n/a	n/a	0	0	0
725254	WORD	wordpools/wasnorm_wordpool_576.txt	LTP343	ltpFR2	18	4	PACKAGE	997	n/a	n/a	0	0	0
726871	START	n/a	LTP343	ltpFR2	18	n/a	n/a	n/a	7	n/a	n/a	n/a	n/a
727898	DISTRACTOR	n/a	LTP343	ltpFR2	18	4	n/a	n/a	n/a	n/a	0	0	0
727903	PROB	n/a	LTP343	ltpFR2	18	n/a	n/a	n/a	7	13	3	3	7
730486	PROB	n/a	LTP343	ltpFR2	18	n/a	n/a	n/a	7	15	8	3	4
734767	PROB	n/a	LTP343	ltpFR2	18	n/a	n/a	n/a	7	10	3	2	5
736033	PROB	n/a	LTP343	ltpFR2	18	n/a	n/a	n/a	7	13	8	2	3
737949	PROB	n/a	LTP343	ltpFR2	18	n/a	n/a	n/a	7	14	8	2	4
739165	PROB	n/a	LTP343	ltpFR2	18	n/a	n/a	n/a	7	14	1	6	7
740413	PROB	n/a	LTP343	ltpFR2	18	n/a	n/a	n/a	7	18	8	2	8
741664	PROB	n/a	LTP343	ltpFR2	18	n/a	n/a	n/a	7	19	9	1	9
742797	PROB	n/a	LTP343	ltpFR2	18	n/a	n/a	n/a	7	6	1	1	4
743813	PROB	n/a	LTP343	ltpFR2	18	n/a	n/a	n/a	7	13	6	2	5
745579	PROB	n/a	LTP343	ltpFR2	18	n/a	n/a	n/a	7	16	6	1	9
746978	PROB	n/a	LTP343	ltpFR2	18	n/a	n/a	n/a	7	13	9	3	1
748761	PROB	n/a	LTP343	ltpFR2	18	n/a	n/a	n/a	7	17	3	7	7
750341	STOP	n/a	LTP343	ltpFR2	18	n/a	n/a	n/a	7	n/a	n/a	n/a	n/a
752676	REC_START	n/a	LTP343	ltpFR2	18	4	n/a	n/a	n/a	n/a	0	0	0
753946	REC_WORD	wordpools/wasnorm_wordpool_576.txt	LTP343	ltpFR2	18	4	PLATE	1086	n/a	n/a	0	0	0
754780	REC_WORD	wordpools/wasnorm_wordpool_576.txt	LTP343	ltpFR2	18	4	PATROL	1027	n/a	n/a	0	0	0
755845	REC_WORD	wordpools/wasnorm_wordpool_576.txt	LTP343	ltpFR2	18	4	POLICE	1098	n/a	n/a	0	0	0
757140	REC_WORD	wordpools/wasnorm_wordpool_576.txt	LTP343	ltpFR2	18	4	PACKAGE	997	n/a	n/a	0	0	0
843118	WORD	wordpools/wasnorm_wordpool_576.txt	LTP343	ltpFR2	18	5	COOK	372	n/a	n/a	0	0	0
845916	WORD	wordpools/wasnorm_wordpool_576.txt	LTP343	ltpFR2	18	5	TRACTOR	1493	n/a	n/a	0	0	0
848649	WORD	wordpools/wasnorm_wordpool_576.txt	LTP343	ltpFR2	18	5	ICING	732	n/a	n/a	0	0	0
851098	WORD	wordpools/wasnorm_wordpool_576.txt	LTP343	ltpFR2	18	5	CORAL	378	n/a	n/a	0	0	0
853746	WORD	wordpools/wasnorm_wordpool_576.txt	LTP343	ltpFR2	18	5	ZIPPER	1636	n/a	n/a	0	0	0
856277	WORD	wordpools/wasnorm_wordpool_576.txt	LTP343	ltpFR2	18	5	BUG	187	n/a	n/a	0	0	0
858861	WORD	wordpools/wasnorm_wordpool_576.txt	LTP343	ltpFR2	18	5	RECORD	1176	n/a	n/a	0	0	0
861308	WORD	wordpools/wasnorm_wordpool_576.txt	LTP343	ltpFR2	18	5	LETTUCE	814	n/a	n/a	0	0	0
863975	WORD	wordpools/wasnorm_wordpool_576.txt	LTP343	ltpFR2	18	5	RABBIT	1152	n/a	n/a	0	0	0
866590	WORD	wordpools/wasnorm_wordpool_576.txt	LTP343	ltpFR2	18	5	TUBA	1515	n/a	n/a	0	0	0
869255	WORD	wordpools/wasnorm_wordpool_576.txt	LTP343	ltpFR2	18	5	STREAM	1392	n/a	n/a	0	0	0
871938	WORD	wordpools/wasnorm_wordpool_576.txt	LTP343	ltpFR2	18	5	COUNTRY	388	n/a	n/a	0	0	0
874504	WORD	wordpools/wasnorm_wordpool_576.txt	LTP343	ltpFR2	18	5	LONDON	843	n/a	n/a	0	0	0
877136	WORD	wordpools/wasnorm_wordpool_576.txt	LTP343	ltpFR2	18	5	ASIA	46	n/a	n/a	0	0	0
879734	WORD	wordpools/wasnorm_wordpool_576.txt	LTP343	ltpFR2	18	5	NOMAD	955	n/a	n/a	0	0	0
882399	WORD	wordpools/wasnorm_wordpool_576.txt	LTP343	ltpFR2	18	5	WHISTLE	1606	n/a	n/a	0	0	0
885165	WORD	wordpools/wasnorm_wordpool_576.txt	LTP343	ltpFR2	18	5	COIN	343	n/a	n/a	0	0	0
887664	WORD	wordpools/wasnorm_wordpool_576.txt	LTP343	ltpFR2	18	5	HAMPER	682	n/a	n/a	0	0	0
890295	WORD	wordpools/wasnorm_wordpool_576.txt	LTP343	ltpFR2	18	5	WOMAN	1620	n/a	n/a	0	0	0
892845	WORD	wordpools/wasnorm_wordpool_576.txt	LTP343	ltpFR2	18	5	MISTER	901	n/a	n/a	0	0	0
895477	WORD	wordpools/wasnorm_wordpool_576.txt	LTP343	ltpFR2	18	5	VALVE	1546	n/a	n/a	0	0	0
898110	WORD	wordpools/wasnorm_wordpool_576.txt	LTP343	ltpFR2	18	5	COCOON	339	n/a	n/a	0	0	0
900908	WORD	wordpools/wasnorm_wordpool_576.txt	LTP343	ltpFR2	18	5	ROBBER	1197	n/a	n/a	0	0	0
903540	WORD	wordpools/wasnorm_wordpool_576.txt	LTP343	ltpFR2	18	5	OUTFIT	988	n/a	n/a	0	0	0
905156	START	n/a	LTP343	ltpFR2	18	n/a	n/a	n/a	8	n/a	n/a	n/a	n/a
905980	DISTRACTOR	n/a	LTP343	ltpFR2	18	5	n/a	n/a	n/a	n/a	0	0	0
905989	PROB	n/a	LTP343	ltpFR2	18	n/a	n/a	n/a	8	6	4	1	1
907488	PROB	n/a	LTP343	ltpFR2	18	n/a	n/a	n/a	8	18	8	9	1
908671	PROB	n/a	LTP343	ltpFR2	18	n/a	n/a	n/a	8	17	8	1	8
910154	PROB	n/a	LTP343	ltpFR2	18	n/a	n/a	n/a	8	16	6	4	6
911236	PROB	n/a	LTP343	ltpFR2	18	n/a	n/a	n/a	8	22	9	9	4
912419	PROB	n/a	LTP343	ltpFR2	18	n/a	n/a	n/a	8	14	1	8	5
913602	PROB	n/a	LTP343	ltpFR2	18	n/a	n/a	n/a	8	10	6	3	1
914702	PROB	n/a	LTP343	ltpFR2	18	n/a	n/a	n/a	8	9	4	1	4
915718	PROB	n/a	LTP343	ltpFR2	18	n/a	n/a	n/a	8	15	9	2	4
917118	PROB	n/a	LTP343	ltpFR2	18	n/a	n/a	n/a	8	12	7	2	3
918517	PROB	n/a	LTP343	ltpFR2	18	n/a	n/a	n/a	8	11	2	6	3
919766	PROB	n/a	LTP343	ltpFR2	18	n/a	n/a	n/a	8	11	2	1	8
920999	PROB	n/a	LTP343	ltpFR2	18	n/a	n/a	n/a	8	15	1	5	9
922397	PROB	n/a	LTP343	ltpFR2	18	n/a	n/a	n/a	8	23	5	9	9
923731	PROB	n/a	LTP343	ltpFR2	18	n/a	n/a	n/a	8	11	2	1	8
925047	PROB	n/a	LTP343	ltpFR2	18	n/a	n/a	n/a	8	14	2	9	3
926362	PROB	n/a	LTP343	ltpFR2	18	n/a	n/a	n/a	8	16	7	6	3
927546	PROB	n/a	LTP343	ltpFR2	18	n/a	n/a	n/a	8	14	3	6	5
928795	STOP	n/a	LTP343	ltpFR2	18	n/a	n/a	n/a	8	n/a	n/a	n/a	n/a
931028	REC_START	n/a	LTP343	ltpFR2	18	5	n/a	n/a	n/a	n/a	0	0	0
932238	REC_WORD	wordpools/wasnorm_wordpool_576.txt	LTP343	ltpFR2	18	5	COUNTRY	388	n/a	n/a	0	0	0
933302	REC_WORD	wordpools/wasnorm_wordpool_576.txt	LTP343	ltpFR2	18	5	LONDON	843	n/a	n/a	0	0	0
934429	REC_WORD	wordpools/wasnorm_wordpool_576.txt	LTP343	ltpFR2	18	5	ASIA	46	n/a	n/a	0	0	0
937113	REC_WORD	wordpools/wasnorm_wordpool_576.txt	LTP343	ltpFR2	18	5	COOK	372	n/a	n/a	0	0	0
938090	REC_WORD	wordpools/wasnorm_wordpool_576.txt	LTP343	ltpFR2	18	5	TRACTOR	1493	n/a	n/a	0	0	0
939588	REC_WORD	wordpools/wasnorm_wordpool_576.txt	LTP343	ltpFR2	18	5	LETTUCE	814	n/a	n/a	0	0	0
942562	REC_WORD	wordpools/wasnorm_wordpool_576.txt	LTP343	ltpFR2	18	5	ZIPPER	1636	n/a	n/a	0	0	0
944311	REC_WORD	wordpools/wasnorm_wordpool_576.txt	LTP343	ltpFR2	18	5	COTTAGE	384	n/a	n/a	0	0	0
953986	REC_WORD	wordpools/wasnorm_wordpool_576.txt	LTP343	ltpFR2	18	5	COIN	343	n/a	n/a	0	0	0
957161	REC_WORD	wordpools/wasnorm_wordpool_576.txt	LTP343	ltpFR2	18	5	HAMPER	682	n/a	n/a	0	0	0
958946	REC_WORD	wordpools/wasnorm_wordpool_576.txt	LTP343	ltpFR2	18	5	WOMAN	1620	n/a	n/a	0	0	0
1021470	WORD	wordpools/wasnorm_wordpool_576.txt	LTP343	ltpFR2	18	6	SCRIBBLE	1256	n/a	n/a	0	0	0
1024251	WORD	wordpools/wasnorm_wordpool_576.txt	LTP343	ltpFR2	18	6	MEAT	883	n/a	n/a	0	0	0
1027018	WORD	wordpools/wasnorm_wordpool_576.txt	LTP343	ltpFR2	18	6	ARMY	39	n/a	n/a	0	0	0
1029666	WORD	wordpools/wasnorm_wordpool_576.txt	LTP343	ltpFR2	18	6	DRIVER	499	n/a	n/a	0	0	0
1032231	WORD	wordpools/wasnorm_wordpool_576.txt	LTP343	ltpFR2	18	6	FLASK	576	n/a	n/a	0	0	0
1034798	WORD	wordpools/wasnorm_wordpool_576.txt	LTP343	ltpFR2	18	6	DOUGHNUT	490	n/a	n/a	0	0	0
1037245	WORD	wordpools/wasnorm_wordpool_576.txt	LTP343	ltpFR2	18	6	SUPPER	1411	n/a	n/a	0	0	0
1039879	WORD	wordpools/wasnorm_wordpool_576.txt	LTP343	ltpFR2	18	6	DENTIST	447	n/a	n/a	0	0	0
1042677	WORD	wordpools/wasnorm_wordpool_576.txt	LTP343	ltpFR2	18	6	RAFT	1159	n/a	n/a	0	0	0
1045375	WORD	wordpools/wasnorm_wordpool_576.txt	LTP343	ltpFR2	18	6	LAKE	796	n/a	n/a	0	0	0
1048125	WORD	wordpools/wasnorm_wordpool_576.txt	LTP343	ltpFR2	18	6	BODY	145	n/a	n/a	0	0	0
1050807	WORD	wordpools/wasnorm_wordpool_576.txt	LTP343	ltpFR2	18	6	HEADBAND	696	n/a	n/a	0	0	0
1053522	WORD	wordpools/wasnorm_wordpool_576.txt	LTP343	ltpFR2	18	6	SKIRT	1319	n/a	n/a	0	0	0
1056220	WORD	wordpools/wasnorm_wordpool_576.txt	LTP343	ltpFR2	18	6	DRESS	495	n/a	n/a	0	0	0
1058903	WORD	wordpools/wasnorm_wordpool_576.txt	LTP343	ltpFR2	18	6	STOMACH	1384	n/a	n/a	0	0	0
1061469	WORD	wordpools/wasnorm_wordpool_576.txt	LTP343	ltpFR2	18	6	BRACES	164	n/a	n/a	0	0	0
1064216	WORD	wordpools/wasnorm_wordpool_576.txt	LTP343	ltpFR2	18	6	QUARTER	1148	n/a	n/a	0	0	0
1066733	WORD	wordpools/wasnorm_wordpool_576.txt	LTP343	ltpFR2	18	6	BLACKBOARD	133	n/a	n/a	0	0	0
1069281	WORD	wordpools/wasnorm_wordpool_576.txt	LTP343	ltpFR2	18	6	ORANGE	980	n/a	n/a	0	0	0
1071731	WORD	wordpools/wasnorm_wordpool_576.txt	LTP343	ltpFR2	18	6	WAGON	1578	n/a	n/a	0	0	0
1074295	WORD	wordpools/wasnorm_wordpool_576.txt	LTP343	ltpFR2	18	6	VENUS	1557	n/a	n/a	0	0	0
1077062	WORD	wordpools/wasnorm_wordpool_576.txt	LTP343	ltpFR2	18	6	GLOBE	641	n/a	n/a	0	0	0
1079544	WORD	wordpools/wasnorm_wordpool_576.txt	LTP343	ltpFR2	18	6	CHILD	299	n/a	n/a	0	0	0
1082341	WORD	wordpools/wasnorm_wordpool_576.txt	LTP343	ltpFR2	18	6	TABLE	1426	n/a	n/a	0	0	0
1083942	START	n/a	LTP343	ltpFR2	18	n/a	n/a	n/a	9	n/a	n/a	n/a	n/a
1084919	DISTRACTOR	n/a	LTP343	ltpFR2	18	6	n/a	n/a	n/a	n/a	0	0	0
1084925	PROB	n/a	LTP343	ltpFR2	18	n/a	n/a	n/a	9	24	6	8	8
1086541	PROB	n/a	LTP343	ltpFR2	18	n/a	n/a	n/a	9	12	6	3	3
1088239	PROB	n/a	LTP343	ltpFR2	18	n/a	n/a	n/a	9	12	2	8	2
1089305	PROB	n/a	LTP343	ltpFR2	18	n/a	n/a	n/a	9	16	6	9	1
1090689	PROB	n/a	LTP343	ltpFR2	18	n/a	n/a	n/a	9	18	8	6	4
1091905	PROB	n/a	LTP343	ltpFR2	18	n/a	n/a	n/a	9	14	6	2	6
1093504	PROB	n/a	LTP343	ltpFR2	18	n/a	n/a	n/a	9	16	7	4	5
1095153	PROB	n/a	LTP343	ltpFR2	18	n/a	n/a	n/a	9	22	6	7	9
1097536	PROB	n/a	LTP343	ltpFR2	18	n/a	n/a	n/a	9	12	2	3	7
1098852	PROB	n/a	LTP343	ltpFR2	18	n/a	n/a	n/a	9	16	2	7	7
1099985	PROB	n/a	LTP343	ltpFR2	18	n/a	n/a	n/a	9	16	5	3	8
1101101	PROB	n/a	LTP343	ltpFR2	18	n/a	n/a	n/a	9	14	2	6	6
1102700	PROB	n/a	LTP343	ltpFR2	18	n/a	n/a	n/a	9	17	2	7	8
1104049	PROB	n/a	LTP343	ltpFR2	18	n/a	n/a	n/a	9	12	6	3	3
1105331	PROB	n/a	LTP343	ltpFR2	18	n/a	n/a	n/a	9	12	9	2	1
1106473	STOP	n/a	LTP343	ltpFR2	18	n/a	n/a	n/a	9	n/a	n/a	n/a	n/a
1109881	REC_START	n/a	LTP343	ltpFR2	18	6	n/a	n/a	n/a	n/a	0	0	0
1110212	REC_WORD	wordpools/wasnorm_wordpool_576.txt	LTP343	ltpFR2	18	6	WAGON	1578	n/a	n/a	0	0	0
1111032	REC_WORD	wordpools/wasnorm_wordpool_576.txt	LTP343	ltpFR2	18	6	VENUS	1557	n/a	n/a	0	0	0
1112041	REC_WORD	wordpools/wasnorm_wordpool_576.txt	LTP343	ltpFR2	18	6	CHILD	299	n/a	n/a	0	0	0
1132543	REC_WORD	wordpools/wasnorm_wordpool_576.txt	LTP343	ltpFR2	18	6	DENTIST	447	n/a	n/a	0	0	0
1200338	WORD	wordpools/wasnorm_wordpool_576.txt	LTP343	ltpFR2	18	7	LUGGAGE	847	n/a	n/a	0	0	0
1202971	WORD	wordpools/wasnorm_wordpool_576.txt	LTP343	ltpFR2	18	7	TOURIST	1488	n/a	n/a	0	0	0
1205653	WORD	wordpools/wasnorm_wordpool_576.txt	LTP343	ltpFR2	18	7	SPARROW	1347	n/a	n/a	0	0	0
1208452	WORD	wordpools/wasnorm_wordpool_576.txt	LTP343	ltpFR2	18	7	PERMIT	1051	n/a	n/a	0	0	0
1210901	WORD	wordpools/wasnorm_wordpool_576.txt	LTP343	ltpFR2	18	7	DANDRUFF	439	n/a	n/a	0	0	0
1213399	WORD	wordpools/wasnorm_wordpool_576.txt	LTP343	ltpFR2	18	7	REBEL	1172	n/a	n/a	0	0	0
1216098	WORD	wordpools/wasnorm_wordpool_576.txt	LTP343	ltpFR2	18	7	CROWN	415	n/a	n/a	0	0	0
1218831	WORD	wordpools/wasnorm_wordpool_576.txt	LTP343	ltpFR2	18	7	PUDDLE	1140	n/a	n/a	0	0	0
1221295	WORD	wordpools/wasnorm_wordpool_576.txt	LTP343	ltpFR2	18	7	MARSH	874	n/a	n/a	0	0	0
1223928	WORD	wordpools/wasnorm_wordpool_576.txt	LTP343	ltpFR2	18	7	FOX	598	n/a	n/a	0	0	0
1226710	WORD	wordpools/wasnorm_wordpool_576.txt	LTP343	ltpFR2	18	7	MATTRESS	879	n/a	n/a	0	0	0
1229258	WORD	wordpools/wasnorm_wordpool_576.txt	LTP343	ltpFR2	18	7	LOVER	846	n/a	n/a	0	0	0
1231925	WORD	wordpools/wasnorm_wordpool_576.txt	LTP343	ltpFR2	18	7	HORNET	718	n/a	n/a	0	0	0
1234657	WORD	wordpools/wasnorm_wordpool_576.txt	LTP343	ltpFR2	18	7	SEAGULL	1261	n/a	n/a	0	0	0
1237404	WORD	wordpools/wasnorm_wordpool_576.txt	LTP343	ltpFR2	18	7	GANGSTER	620	n/a	n/a	0	0	0
1240054	WORD	wordpools/wasnorm_wordpool_576.txt	LTP343	ltpFR2	18	7	JUNGLE	764	n/a	n/a	0	0	0
1242820	WORD	wordpools/wasnorm_wordpool_576.txt	LTP343	ltpFR2	18	7	KEEPER	769	n/a	n/a	0	0	0
1245334	WORD	wordpools/wasnorm_wordpool_576.txt	LTP343	ltpFR2	18	7	PUPPY	1144	n/a	n/a	0	0	0
1247817	WORD	wordpools/wasnorm_wordpool_576.txt	LTP343	ltpFR2	18	7	TRUCK	1512	n/a	n/a	0	0	0
1250483	WORD	wordpools/wasnorm_wordpool_576.txt	LTP343	ltpFR2	18	7	CRUTCH	417	n/a	n/a	0	0	0
1252965	WORD	wordpools/wasnorm_wordpool_576.txt	LTP343	ltpFR2	18	7	ANKLE	24	n/a	n/a	0	0	0
1255430	WORD	wordpools/wasnorm_wordpool_576.txt	LTP343	ltpFR2	18	7	HAND	683	n/a	n/a	0	0	0
1257946	WORD	wordpools/wasnorm_wordpool_576.txt	LTP343	ltpFR2	18	7	LUMBER	848	n/a	n/a	0	0	0
1260427	WORD	wordpools/wasnorm_wordpool_576.txt	LTP343	ltpFR2	18	7	NECKLACE	940	n/a	n/a	0	0	0
1262044	START	n/a	LTP343	ltpFR2	18	n/a	n/a	n/a	10	n/a	n/a	n/a	n/a
1263122	DISTRACTOR	n/a	LTP343	ltpFR2	18	7	n/a	n/a	n/a	n/a	0	0	0
1263127	PROB	n/a	LTP343	ltpFR2	18	n/a	n/a	n/a	10	19	9	4	6
1266425	PROB	n/a	LTP343	ltpFR2	18	n/a	n/a	n/a	10	7	2	1	4
1267958	PROB	n/a	LTP343	ltpFR2	18	n/a	n/a	n/a	10	7	5	1	1
1269158	PROB	n/a	LTP343	ltpFR2	18	n/a	n/a	n/a	10	22	9	8	5
1271406	PROB	n/a	LTP343	ltpFR2	18	n/a	n/a	n/a	10	20	7	4	9
1272723	PROB	n/a	LTP343	ltpFR2	18	n/a	n/a	n/a	10	14	6	5	3
1273955	PROB	n/a	LTP343	ltpFR2	18	n/a	n/a	n/a	10	18	8	1	9
1275172	PROB	n/a	LTP343	ltpFR2	18	n/a	n/a	n/a	10	18	7	9	2
1277236	PROB	n/a	LTP343	ltpFR2	18	n/a	n/a	n/a	10	17	5	7	5
1278820	PROB	n/a	LTP343	ltpFR2	18	n/a	n/a	n/a	10	9	4	2	3
1280268	PROB	n/a	LTP343	ltpFR2	18	n/a	n/a	n/a	10	15	9	3	3
1281852	PROB	n/a	LTP343	ltpFR2	18	n/a	n/a	n/a	10	17	4	7	6
1286030	STOP	n/a	LTP343	ltpFR2	18	n/a	n/a	n/a	10	n/a	n/a	n/a	n/a
1287916	REC_START	n/a	LTP343	ltpFR2	18	7	n/a	n/a	n/a	n/a	0	0	0
1288490	REC_WORD	wordpools/wasnorm_wordpool_576.txt	LTP343	ltpFR2	18	7	CRUTCH	417	n/a	n/a	0	0	0
1289386	REC_WORD	wordpools/wasnorm_wordpool_576.txt	LTP343	ltpFR2	18	7	PUPPY	1144	n/a	n/a	0	0	0
1290294	REC_WORD	wordpools/wasnorm_wordpool_576.txt	LTP343	ltpFR2	18	7	ANKLE	24	n/a	n/a	0	0	0
1291125	REC_WORD	wordpools/wasnorm_wordpool_576.txt	LTP343	ltpFR2	18	7	HAND	683	n/a	n/a	0	0	0
1296292	REC_WORD	wordpools/wasnorm_wordpool_576.txt	LTP343	ltpFR2	18	7	TOURIST	1488	n/a	n/a	0	0	0
1378357	DISTRACTOR	n/a	LTP343	ltpFR2	18	8	n/a	n/a	n/a	n/a	0	0	0
1378357	START	n/a	LTP343	ltpFR2	18	n/a	n/a	n/a	11	n/a	n/a	n/a	n/a
1378374	PROB	n/a	LTP343	ltpFR2	18	n/a	n/a	n/a	11	5	3	1	1
1381024	PROB	n/a	LTP343	ltpFR2	18	n/a	n/a	n/a	11	17	3	8	6
1383589	PROB	n/a	LTP343	ltpFR2	18	n/a	n/a	n/a	11	15	6	1	8
1384922	PROB	n/a	LTP343	ltpFR2	18	n/a	n/a	n/a	11	12	6	2	5
1386987	PROB	n/a	LTP343	ltpFR2	18	n/a	n/a	n/a	11	15	8	5	2
1389120	PROB	n/a	LTP343	ltpFR2	18	n/a	n/a	n/a	11	7	2	1	4
1390569	PROB	n/a	LTP343	ltpFR2	18	n/a	n/a	n/a	11	15	5	5	5
1391469	PROB	n/a	LTP343	ltpFR2	18	n/a	n/a	n/a	11	9	1	5	3
1392885	PROB	n/a	LTP343	ltpFR2	18	n/a	n/a	n/a	11	14	3	8	1
1394200	PROB	n/a	LTP343	ltpFR2	18	n/a	n/a	n/a	11	16	2	5	9
1395950	PROB	n/a	LTP343	ltpFR2	18	n/a	n/a	n/a	11	8	2	3	3
1397183	PROB	n/a	LTP343	ltpFR2	18	n/a	n/a	n/a	11	9	2	2	5
1398231	PROB	n/a	LTP343	ltpFR2	18	n/a	n/a	n/a	11	23	7	9	7
1400515	PROB	n/a	LTP343	ltpFR2	18	n/a	n/a	n/a	11	17	9	2	6
1402145	STOP	n/a	LTP343	ltpFR2	18	n/a	n/a	n/a	11	n/a	n/a	n/a	n/a
1403246	WORD	wordpools/wasnorm_wordpool_576.txt	LTP343	ltpFR2	18	8	CATCHER	258	n/a	n/a	0	0	0
1405762	WORD	wordpools/wasnorm_wordpool_576.txt	LTP343	ltpFR2	18	8	UMPIRE	1535	n/a	n/a	0	0	0
1408327	WORD	wordpools/wasnorm_wordpool_576.txt	LTP343	ltpFR2	18	8	SHELF	1280	n/a	n/a	0	0	0
1411093	WORD	wordpools/wasnorm_wordpool_576.txt	LTP343	ltpFR2	18	8	COD	340	n/a	n/a	0	0	0
1413675	WORD	wordpools/wasnorm_wordpool_576.txt	LTP343	ltpFR2	18	8	KIDNEY	776	n/a	n/a	0	0	0
1416306	WORD	wordpools/wasnorm_wordpool_576.txt	LTP343	ltpFR2	18	8	RECEIPT	1173	n/a	n/a	0	0	0
1418740	WORD	wordpools/wasnorm_wordpool_576.txt	LTP343	ltpFR2	18	8	STAPLE	1371	n/a	n/a	0	0	0
1421172	WORD	wordpools/wasnorm_wordpool_576.txt	LTP343	ltpFR2	18	8	PADDLE	1000	n/a	n/a	0	0	0
1423887	WORD	wordpools/wasnorm_wordpool_576.txt	LTP343	ltpFR2	18	8	THRONE	1461	n/a	n/a	0	0	0
1426569	WORD	wordpools/wasnorm_wordpool_576.txt	LTP343	ltpFR2	18	8	PRINCESS	1125	n/a	n/a	0	0	0
1429018	WORD	wordpools/wasnorm_wordpool_576.txt	LTP343	ltpFR2	18	8	YARN	1631	n/a	n/a	0	0	0
1431634	WORD	wordpools/wasnorm_wordpool_576.txt	LTP343	ltpFR2	18	8	GIFT	635	n/a	n/a	0	0	0
1434215	WORD	wordpools/wasnorm_wordpool_576.txt	LTP343	ltpFR2	18	8	FILM	565	n/a	n/a	0	0	0
1436965	WORD	wordpools/wasnorm_wordpool_576.txt	LTP343	ltpFR2	18	8	DIVER	476	n/a	n/a	0	0	0
1439464	WORD	wordpools/wasnorm_wordpool_576.txt	LTP343	ltpFR2	18	8	PLIERS	1089	n/a	n/a	0	0	0
1441896	WORD	wordpools/wasnorm_wordpool_576.txt	LTP343	ltpFR2	18	8	ACTRESS	6	n/a	n/a	0	0	0
1444545	WORD	wordpools/wasnorm_wordpool_576.txt	LTP343	ltpFR2	18	8	COMET	353	n/a	n/a	0	0	0
1447309	WORD	wordpools/wasnorm_wordpool_576.txt	LTP343	ltpFR2	18	8	CHAMPAGNE	278	n/a	n/a	0	0	0
1449859	WORD	wordpools/wasnorm_wordpool_576.txt	LTP343	ltpFR2	18	8	SHELTER	1282	n/a	n/a	0	0	0
1452641	WORD	wordpools/wasnorm_wordpool_576.txt	LTP343	ltpFR2	18	8	TART	1436	n/a	n/a	0	0	0
1455339	WORD	wordpools/wasnorm_wordpool_576.txt	LTP343	ltpFR2	18	8	OUTLAW	989	n/a	n/a	0	0	0
1457989	WORD	wordpools/wasnorm_wordpool_576.txt	LTP343	ltpFR2	18	8	FLIPPER	580	n/a	n/a	0	0	0
1460504	WORD	wordpools/wasnorm_wordpool_576.txt	LTP343	ltpFR2	18	8	LEG	809	n/a	n/a	0	0	0
1463302	WORD	wordpools/wasnorm_wordpool_576.txt	LTP343	ltpFR2	18	8	DRINK	498	n/a	n/a	0	0	0
1464919	START	n/a	LTP343	ltpFR2	18	n/a	n/a	n/a	12	n/a	n/a	n/a	n/a
1466043	DISTRACTOR	n/a	LTP343	ltpFR2	18	8	n/a	n/a	n/a	n/a	0	0	0
1466052	PROB	n/a	LTP343	ltpFR2	18	n/a	n/a	n/a	12	15	5	4	6
1467634	PROB	n/a	LTP343	ltpFR2	18	n/a	n/a	n/a	12	17	7	4	3
1469416	PROB	n/a	LTP343	ltpFR2	18	n/a	n/a	n/a	12	15	3	5	7
1470683	PROB	n/a	LTP343	ltpFR2	18	n/a	n/a	n/a	12	15	3	6	6
1471782	PROB	n/a	LTP343	ltpFR2	18	n/a	n/a	n/a	12	12	5	3	4
1472865	PROB	n/a	LTP343	ltpFR2	18	n/a	n/a	n/a	12	21	9	4	8
1474313	PROB	n/a	LTP343	ltpFR2	18	n/a	n/a	n/a	12	222	4	8	9
1475647	PROB	n/a	LTP343	ltpFR2	18	n/a	n/a	n/a	12	12	7	2	3
1478879	PROB	n/a	LTP343	ltpFR2	18	n/a	n/a	n/a	12	9	4	7	1
1480595	PROB	n/a	LTP343	ltpFR2	18	n/a	n/a	n/a	12	24	8	8	6
1481978	PROB	n/a	LTP343	ltpFR2	18	n/a	n/a	n/a	12	8	2	1	5
1484392	PROB	n/a	LTP343	ltpFR2	18	n/a	n/a	n/a	12	7	4	1	2
1485892	PROB	n/a	LTP343	ltpFR2	18	n/a	n/a	n/a	12	11	1	5	5
1486975	PROB	n/a	LTP343	ltpFR2	18	n/a	n/a	n/a	12	17	6	4	7
1488004	STOP	n/a	LTP343	ltpFR2	18	n/a	n/a	n/a	12	n/a	n/a	n/a	n/a
1490807	REC_START	n/a	LTP343	ltpFR2	18	8	n/a	n/a	n/a	n/a	0	0	0
1491910	REC_WORD	wordpools/wasnorm_wordpool_576.txt	LTP343	ltpFR2	18	8	OUTLAW	989	n/a	n/a	0	0	0
1492841	REC_WORD	wordpools/wasnorm_wordpool_576.txt	LTP343	ltpFR2	18	8	FLIPPER	580	n/a	n/a	0	0	0
1493782	REC_WORD	wordpools/wasnorm_wordpool_576.txt	LTP343	ltpFR2	18	8	LEG	809	n/a	n/a	0	0	0
1494700	REC_WORD	wordpools/wasnorm_wordpool_576.txt	LTP343	ltpFR2	18	8	DRINK	498	n/a	n/a	0	0	0
1500218	REC_WORD	wordpools/wasnorm_wordpool_576.txt	LTP343	ltpFR2	18	8	CATCHER	258	n/a	n/a	0	0	0
1502363	REC_WORD	wordpools/wasnorm_wordpool_576.txt	LTP343	ltpFR2	18	8	UMPIRE	1535	n/a	n/a	0	0	0
1503437	REC_WORD	wordpools/wasnorm_wordpool_576.txt	LTP343	ltpFR2	18	8	THRONE	1461	n/a	n/a	0	0	0
1504416	REC_WORD	wordpools/wasnorm_wordpool_576.txt	LTP343	ltpFR2	18	8	SHELF	1280	n/a	n/a	0	0	0
1505358	REC_WORD	wordpools/wasnorm_wordpool_576.txt	LTP343	ltpFR2	18	8	RECEIPT	1173	n/a	n/a	0	0	0
1506323	REC_WORD	wordpools/wasnorm_wordpool_576.txt	LTP343	ltpFR2	18	8	STAPLE	1371	n/a	n/a	0	0	0
1507524	REC_WORD	wordpools/wasnorm_wordpool_576.txt	LTP343	ltpFR2	18	8	COD	340	n/a	n/a	0	0	0
1509631	REC_WORD	wordpools/wasnorm_wordpool_576.txt	LTP343	ltpFR2	18	8	PRINCESS	1125	n/a	n/a	0	0	0
1510617	REC_WORD	wordpools/wasnorm_wordpool_576.txt	LTP343	ltpFR2	18	8	ACTRESS	6	n/a	n/a	0	0	0
1512790	REC_WORD	wordpools/wasnorm_wordpool_576.txt	LTP343	ltpFR2	18	8	KIDNEY	776	n/a	n/a	0	0	0
1567354	REST_REWET	n/a	LTP343	ltpFR2	18	8	n/a	n/a	n/a	n/a	0	0	0
1737495	WORD	wordpools/wasnorm_wordpool_576.txt	LTP343	ltpFR2	18	9	BACON	67	n/a	n/a	0	0	0
1740044	WORD	wordpools/wasnorm_wordpool_576.txt	LTP343	ltpFR2	18	9	CIGAR	308	n/a	n/a	0	0	0
1742476	WORD	wordpools/wasnorm_wordpool_576.txt	LTP343	ltpFR2	18	9	RIFLE	1192	n/a	n/a	0	0	0
1745191	WORD	wordpools/wasnorm_wordpool_576.txt	LTP343	ltpFR2	18	9	BRANDY	169	n/a	n/a	0	0	0
1747674	WORD	wordpools/wasnorm_wordpool_576.txt	LTP343	ltpFR2	18	9	TUTU	1524	n/a	n/a	0	0	0
1750288	WORD	wordpools/wasnorm_wordpool_576.txt	LTP343	ltpFR2	18	9	DANCER	437	n/a	n/a	0	0	0
1753055	WORD	wordpools/wasnorm_wordpool_576.txt	LTP343	ltpFR2	18	9	MARS	873	n/a	n/a	0	0	0
1755620	WORD	wordpools/wasnorm_wordpool_576.txt	LTP343	ltpFR2	18	9	CRATER	400	n/a	n/a	0	0	0
1758169	WORD	wordpools/wasnorm_wordpool_576.txt	LTP343	ltpFR2	18	9	SLIDE	1326	n/a	n/a	0	0	0
1760734	WORD	wordpools/wasnorm_wordpool_576.txt	LTP343	ltpFR2	18	9	JUDGE	761	n/a	n/a	0	0	0
1763316	WORD	wordpools/wasnorm_wordpool_576.txt	LTP343	ltpFR2	18	9	TURTLE	1522	n/a	n/a	0	0	0
1765865	WORD	wordpools/wasnorm_wordpool_576.txt	LTP343	ltpFR2	18	9	PLAYGROUND	1087	n/a	n/a	0	0	0
1768430	WORD	wordpools/wasnorm_wordpool_576.txt	LTP343	ltpFR2	18	9	SMOG	1330	n/a	n/a	0	0	0
1771163	WORD	wordpools/wasnorm_wordpool_576.txt	LTP343	ltpFR2	18	9	JELLY	755	n/a	n/a	0	0	0
1773845	WORD	wordpools/wasnorm_wordpool_576.txt	LTP343	ltpFR2	18	9	FRECKLE	602	n/a	n/a	0	0	0
1776326	WORD	wordpools/wasnorm_wordpool_576.txt	LTP343	ltpFR2	18	9	STATUE	1374	n/a	n/a	0	0	0
1778793	WORD	wordpools/wasnorm_wordpool_576.txt	LTP343	ltpFR2	18	9	MACHINE	852	n/a	n/a	0	0	0
1781424	WORD	wordpools/wasnorm_wordpool_576.txt	LTP343	ltpFR2	18	9	DASHBOARD	441	n/a	n/a	0	0	0
1783874	WORD	wordpools/wasnorm_wordpool_576.txt	LTP343	ltpFR2	18	9	CHIPMUNK	304	n/a	n/a	0	0	0
1786539	WORD	wordpools/wasnorm_wordpool_576.txt	LTP343	ltpFR2	18	9	FARMER	553	n/a	n/a	0	0	0
1789155	WORD	wordpools/wasnorm_wordpool_576.txt	LTP343	ltpFR2	18	9	CATTLE	261	n/a	n/a	0	0	0
1791770	WORD	wordpools/wasnorm_wordpool_576.txt	LTP343	ltpFR2	18	9	TREAT	1501	n/a	n/a	0	0	0
1794301	WORD	wordpools/wasnorm_wordpool_576.txt	LTP343	ltpFR2	18	9	PARENT	1013	n/a	n/a	0	0	0
1796885	WORD	wordpools/wasnorm_wordpool_576.txt	LTP343	ltpFR2	18	9	TORTOISE	1486	n/a	n/a	0	0	0
1798501	START	n/a	LTP343	ltpFR2	18	n/a	n/a	n/a	13	n/a	n/a	n/a	n/a
1799456	DISTRACTOR	n/a	LTP343	ltpFR2	18	9	n/a	n/a	n/a	n/a	0	0	0
1799467	PROB	n/a	LTP343	ltpFR2	18	n/a	n/a	n/a	13	15	8	2	5
1801432	PROB	n/a	LTP343	ltpFR2	18	n/a	n/a	n/a	13	17	8	1	8
1802849	PROB	n/a	LTP343	ltpFR2	18	n/a	n/a	n/a	13	16	6	1	9
1804280	PROB	n/a	LTP343	ltpFR2	18	n/a	n/a	n/a	13	20	8	6	6
1805747	PROB	n/a	LTP343	ltpFR2	18	n/a	n/a	n/a	13	10	7	1	2
1808629	PROB	n/a	LTP343	ltpFR2	18	n/a	n/a	n/a	13	10	5	2	3
1809879	PROB	n/a	LTP343	ltpFR2	18	n/a	n/a	n/a	13	21	6	7	8
1811745	PROB	n/a	LTP343	ltpFR2	18	n/a	n/a	n/a	13	21	8	9	4
1813226	PROB	n/a	LTP343	ltpFR2	18	n/a	n/a	n/a	13	24	8	8	6
1815093	PROB	n/a	LTP343	ltpFR2	18	n/a	n/a	n/a	13	18	6	9	3
1817241	PROB	n/a	LTP343	ltpFR2	18	n/a	n/a	n/a	13	17	7	7	5
1818591	PROB	n/a	LTP343	ltpFR2	18	n/a	n/a	n/a	13	12	5	4	3
1821054	STOP	n/a	LTP343	ltpFR2	18	n/a	n/a	n/a	13	n/a	n/a	n/a	n/a
1824405	REC_START	n/a	LTP343	ltpFR2	18	9	n/a	n/a	n/a	n/a	0	0	0
1824713	REC_WORD	wordpools/wasnorm_wordpool_576.txt	LTP343	ltpFR2	18	9	MACHINE	852	n/a	n/a	0	0	0
1825579	REC_WORD	wordpools/wasnorm_wordpool_576.txt	LTP343	ltpFR2	18	9	DASHBOARD	441	n/a	n/a	0	0	0
1826432	REC_WORD	wordpools/wasnorm_wordpool_576.txt	LTP343	ltpFR2	18	9	CHIPMUNK	304	n/a	n/a	0	0	0
1829641	REC_WORD	wordpools/wasnorm_wordpool_576.txt	LTP343	ltpFR2	18	9	BACON	67	n/a	n/a	0	0	0
1844406	REC_WORD	wordpools/wasnorm_wordpool_576.txt	LTP343	ltpFR2	18	9	TURTLE	1522	n/a	n/a	0	0	0
1914864	WORD	wordpools/wasnorm_wordpool_576.txt	LTP343	ltpFR2	18	10	COLONEL	348	n/a	n/a	0	0	0
1917563	WORD	wordpools/wasnorm_wordpool_576.txt	LTP343	ltpFR2	18	10	OMELET	976	n/a	n/a	0	0	0
1920145	WORD	wordpools/wasnorm_wordpool_576.txt	LTP343	ltpFR2	18	10	BACKBONE	66	n/a	n/a	0	0	0
1922761	WORD	wordpools/wasnorm_wordpool_576.txt	LTP343	ltpFR2	18	10	TRIBE	1505	n/a	n/a	0	0	0
1925425	WORD	wordpools/wasnorm_wordpool_576.txt	LTP343	ltpFR2	18	10	TOMBSTONE	1478	n/a	n/a	0	0	0
1928175	WORD	wordpools/wasnorm_wordpool_576.txt	LTP343	ltpFR2	18	10	PUPIL	1143	n/a	n/a	0	0	0
1930624	WORD	wordpools/wasnorm_wordpool_576.txt	LTP343	ltpFR2	18	10	BOX	159	n/a	n/a	0	0	0
1933388	WORD	wordpools/wasnorm_wordpool_576.txt	LTP343	ltpFR2	18	10	CASKET	255	n/a	n/a	0	0	0
1936055	WORD	wordpools/wasnorm_wordpool_576.txt	LTP343	ltpFR2	18	10	CITRUS	313	n/a	n/a	0	0	0
1938537	WORD	wordpools/wasnorm_wordpool_576.txt	LTP343	ltpFR2	18	10	DENIM	446	n/a	n/a	0	0	0
1941251	WORD	wordpools/wasnorm_wordpool_576.txt	LTP343	ltpFR2	18	10	FREEZER	604	n/a	n/a	0	0	0
1943985	WORD	wordpools/wasnorm_wordpool_576.txt	LTP343	ltpFR2	18	10	IGLOO	734	n/a	n/a	0	0	0
1946517	WORD	wordpools/wasnorm_wordpool_576.txt	LTP343	ltpFR2	18	10	LIVER	833	n/a	n/a	0	0	0
1949016	WORD	wordpools/wasnorm_wordpool_576.txt	LTP343	ltpFR2	18	10	RAZOR	1171	n/a	n/a	0	0	0
1951731	WORD	wordpools/wasnorm_wordpool_576.txt	LTP343	ltpFR2	18	10	PANTHER	1009	n/a	n/a	0	0	0
1954429	WORD	wordpools/wasnorm_wordpool_576.txt	LTP343	ltpFR2	18	10	RATTLE	1170	n/a	n/a	0	0	0
1957211	WORD	wordpools/wasnorm_wordpool_576.txt	LTP343	ltpFR2	18	10	POISON	1096	n/a	n/a	0	0	0
1960011	WORD	wordpools/wasnorm_wordpool_576.txt	LTP343	ltpFR2	18	10	MISSILE	900	n/a	n/a	0	0	0
1962709	WORD	wordpools/wasnorm_wordpool_576.txt	LTP343	ltpFR2	18	10	TOASTER	1472	n/a	n/a	0	0	0
1965491	WORD	wordpools/wasnorm_wordpool_576.txt	LTP343	ltpFR2	18	10	HOUND	724	n/a	n/a	0	0	0
1968124	WORD	wordpools/wasnorm_wordpool_576.txt	LTP343	ltpFR2	18	10	BUTCHER	203	n/a	n/a	0	0	0
1970556	WORD	wordpools/wasnorm_wordpool_576.txt	LTP343	ltpFR2	18	10	CREATURE	403	n/a	n/a	0	0	0
1973354	WORD	wordpools/wasnorm_wordpool_576.txt	LTP343	ltpFR2	18	10	FOOTBALL	591	n/a	n/a	0	0	0
1975837	WORD	wordpools/wasnorm_wordpool_576.txt	LTP343	ltpFR2	18	10	PADDING	999	n/a	n/a	0	0	0
1977453	START	n/a	LTP343	ltpFR2	18	n/a	n/a	n/a	14	n/a	n/a	n/a	n/a
1978283	DISTRACTOR	n/a	LTP343	ltpFR2	18	10	n/a	n/a	n/a	n/a	0	0	0
1978285	PROB	n/a	LTP343	ltpFR2	18	n/a	n/a	n/a	14	10	2	3	5
1979985	PROB	n/a	LTP343	ltpFR2	18	n/a	n/a	n/a	14	14	4	4	6
1982584	PROB	n/a	LTP343	ltpFR2	18	n/a	n/a	n/a	14	15	8	1	6
1983683	PROB	n/a	LTP343	ltpFR2	18	n/a	n/a	n/a	14	22	9	4	9
1986248	PROB	n/a	LTP343	ltpFR2	18	n/a	n/a	n/a	14	25	7	8	8
1988313	PROB	n/a	LTP343	ltpFR2	18	n/a	n/a	n/a	14	20	8	8	4
1989730	PROB	n/a	LTP343	ltpFR2	18	n/a	n/a	n/a	14	11	2	2	7
1991896	PROB	n/a	LTP343	ltpFR2	18	n/a	n/a	n/a	14	19	8	6	5
1993462	PROB	n/a	LTP343	ltpFR2	18	n/a	n/a	n/a	14	13	2	4	7
1994628	PROB	n/a	LTP343	ltpFR2	18	n/a	n/a	n/a	14	6	2	2	2
1995561	PROB	n/a	LTP343	ltpFR2	18	n/a	n/a	n/a	14	12	4	3	5
1996644	PROB	n/a	LTP343	ltpFR2	18	n/a	n/a	n/a	14	18	8	6	4
1997860	PROB	n/a	LTP343	ltpFR2	18	n/a	n/a	n/a	14	16	3	8	5
1998993	PROB	n/a	LTP343	ltpFR2	18	n/a	n/a	n/a	14	16	9	3	4
2000683	STOP	n/a	LTP343	ltpFR2	18	n/a	n/a	n/a	14	n/a	n/a	n/a	n/a
2003224	REC_START	n/a	LTP343	ltpFR2	18	10	n/a	n/a	n/a	n/a	0	0	0
2004191	REC_WORD	wordpools/wasnorm_wordpool_576.txt	LTP343	ltpFR2	18	10	CASKET	255	n/a	n/a	0	0	0
2005177	REC_WORD	wordpools/wasnorm_wordpool_576.txt	LTP343	ltpFR2	18	10	IGLOO	734	n/a	n/a	0	0	0
2033615	REC_WORD	wordpools/wasnorm_wordpool_576.txt	LTP343	ltpFR2	18	10	PUPIL	1143	n/a	n/a	0	0	0
2042538	REC_WORD	wordpools/wasnorm_wordpool_576.txt	LTP343	ltpFR2	18	10	POISON	1096	n/a	n/a	0	0	0
2093650	DISTRACTOR	n/a	LTP343	ltpFR2	18	11	n/a	n/a	n/a	n/a	0	0	0
2093650	START	n/a	LTP343	ltpFR2	18	n/a	n/a	n/a	15	n/a	n/a	n/a	n/a
2093667	PROB	n/a	LTP343	ltpFR2	18	n/a	n/a	n/a	15	11	1	1	9
2095582	PROB	n/a	LTP343	ltpFR2	18	n/a	n/a	n/a	15	8	4	1	3
2096832	PROB	n/a	LTP343	ltpFR2	18	n/a	n/a	n/a	15	17	5	6	6
2099031	PROB	n/a	LTP343	ltpFR2	18	n/a	n/a	n/a	15	20	9	6	5
2100747	PROB	n/a	LTP343	ltpFR2	18	n/a	n/a	n/a	15	17	8	7	2
2101963	PROB	n/a	LTP343	ltpFR2	18	n/a	n/a	n/a	15	19	8	8	3
2103029	PROB	n/a	LTP343	ltpFR2	18	n/a	n/a	n/a	15	17	9	1	7
2104194	PROB	n/a	LTP343	ltpFR2	18	n/a	n/a	n/a	15	16	4	7	5
2105327	PROB	n/a	LTP343	ltpFR2	18	n/a	n/a	n/a	15	17	2	6	9
2107777	PROB	n/a	LTP343	ltpFR2	18	n/a	n/a	n/a	15	21	7	8	6
2109076	PROB	n/a	LTP343	ltpFR2	18	n/a	n/a	n/a	15	22	9	6	7
2111175	PROB	n/a	LTP343	ltpFR2	18	n/a	n/a	n/a	15	11	5	5	1
2112158	PROB	n/a	LTP343	ltpFR2	18	n/a	n/a	n/a	15	9	1	6	2
2113423	PROB	n/a	LTP343	ltpFR2	18	n/a	n/a	n/a	15	16	4	8	4
2114557	PROB	n/a	LTP343	ltpFR2	18	n/a	n/a	n/a	15	12	1	6	5
2115690	PROB	n/a	LTP343	ltpFR2	18	n/a	n/a	n/a	15	16	4	3	9
2116703	STOP	n/a	LTP343	ltpFR2	18	n/a	n/a	n/a	15	n/a	n/a	n/a	n/a
2118505	WORD	wordpools/wasnorm_wordpool_576.txt	LTP343	ltpFR2	18	11	PEBBLE	1035	n/a	n/a	0	0	0
2121220	WORD	wordpools/wasnorm_wordpool_576.txt	LTP343	ltpFR2	18	11	OX	994	n/a	n/a	0	0	0
2123736	WORD	wordpools/wasnorm_wordpool_576.txt	LTP343	ltpFR2	18	11	PERCH	1048	n/a	n/a	0	0	0
2126217	WORD	wordpools/wasnorm_wordpool_576.txt	LTP343	ltpFR2	18	11	CRAB	397	n/a	n/a	0	0	0
2128934	WORD	wordpools/wasnorm_wordpool_576.txt	LTP343	ltpFR2	18	11	ACTOR	5	n/a	n/a	0	0	0
2131483	WORD	wordpools/wasnorm_wordpool_576.txt	LTP343	ltpFR2	18	11	COBRA	336	n/a	n/a	0	0	0
2133998	WORD	wordpools/wasnorm_wordpool_576.txt	LTP343	ltpFR2	18	11	SKILLET	1317	n/a	n/a	0	0	0
2136464	WORD	wordpools/wasnorm_wordpool_576.txt	LTP343	ltpFR2	18	11	COWBOY	395	n/a	n/a	0	0	0
2139029	WORD	wordpools/wasnorm_wordpool_576.txt	LTP343	ltpFR2	18	11	DONKEY	484	n/a	n/a	0	0	0
2141845	WORD	wordpools/wasnorm_wordpool_576.txt	LTP343	ltpFR2	18	11	PENGUIN	1044	n/a	n/a	0	0	0
2144527	WORD	wordpools/wasnorm_wordpool_576.txt	LTP343	ltpFR2	18	11	CONVICT	371	n/a	n/a	0	0	0
2147324	WORD	wordpools/wasnorm_wordpool_576.txt	LTP343	ltpFR2	18	11	SUSPECT	1415	n/a	n/a	0	0	0
2149891	WORD	wordpools/wasnorm_wordpool_576.txt	LTP343	ltpFR2	18	11	FUNGUS	614	n/a	n/a	0	0	0
2152339	WORD	wordpools/wasnorm_wordpool_576.txt	LTP343	ltpFR2	18	11	NURSE	963	n/a	n/a	0	0	0
2155055	WORD	wordpools/wasnorm_wordpool_576.txt	LTP343	ltpFR2	18	11	TERMITE	1451	n/a	n/a	0	0	0
2157704	WORD	wordpools/wasnorm_wordpool_576.txt	LTP343	ltpFR2	18	11	BRANCH	168	n/a	n/a	0	0	0
2160352	WORD	wordpools/wasnorm_wordpool_576.txt	LTP343	ltpFR2	18	11	GROUND	666	n/a	n/a	0	0	0
2163035	WORD	wordpools/wasnorm_wordpool_576.txt	LTP343	ltpFR2	18	11	SEAL	1262	n/a	n/a	0	0	0
2165551	WORD	wordpools/wasnorm_wordpool_576.txt	LTP343	ltpFR2	18	11	DUSTPAN	509	n/a	n/a	0	0	0
2168016	WORD	wordpools/wasnorm_wordpool_576.txt	LTP343	ltpFR2	18	11	FEMALE	559	n/a	n/a	0	0	0
2170632	WORD	wordpools/wasnorm_wordpool_576.txt	LTP343	ltpFR2	18	11	EMPIRE	530	n/a	n/a	0	0	0
2173130	WORD	wordpools/wasnorm_wordpool_576.txt	LTP343	ltpFR2	18	11	MESSAGE	888	n/a	n/a	0	0	0
2175796	WORD	wordpools/wasnorm_wordpool_576.txt	LTP343	ltpFR2	18	11	POSTAGE	1113	n/a	n/a	0	0	0
2178310	WORD	wordpools/wasnorm_wordpool_576.txt	LTP343	ltpFR2	18	11	GARBAGE	622	n/a	n/a	0	0	0
2179928	START	n/a	LTP343	ltpFR2	18	n/a	n/a	n/a	16	n/a	n/a	n/a	n/a
2180820	DISTRACTOR	n/a	LTP343	ltpFR2	18	11	n/a	n/a	n/a	n/a	0	0	0
2180827	PROB	n/a	LTP343	ltpFR2	18	n/a	n/a	n/a	16	20	9	9	2
2182510	PROB	n/a	LTP343	ltpFR2	18	n/a	n/a	n/a	16	11	2	2	7
2183676	PROB	n/a	LTP343	ltpFR2	18	n/a	n/a	n/a	16	19	9	3	7
2184992	PROB	n/a	LTP343	ltpFR2	18	n/a	n/a	n/a	16	12	8	2	2
2186508	PROB	n/a	LTP343	ltpFR2	18	n/a	n/a	n/a	16	15	4	9	2
2187907	PROB	n/a	LTP343	ltpFR2	18	n/a	n/a	n/a	16	12	8	3	1
2189040	PROB	n/a	LTP343	ltpFR2	18	n/a	n/a	n/a	16	21	9	5	7
2191255	PROB	n/a	LTP343	ltpFR2	18	n/a	n/a	n/a	16	20	9	6	5
2192655	PROB	n/a	LTP343	ltpFR2	18	n/a	n/a	n/a	16	19	7	6	6
2194253	PROB	n/a	LTP343	ltpFR2	18	n/a	n/a	n/a	16	17	4	6	7
2195487	PROB	n/a	LTP343	ltpFR2	18	n/a	n/a	n/a	16	15	9	3	3
2196720	PROB	n/a	LTP343	ltpFR2	18	n/a	n/a	n/a	16	7	5	1	1
2197753	PROB	n/a	LTP343	ltpFR2	18	n/a	n/a	n/a	16	13	2	4	7
2199085	PROB	n/a	LTP343	ltpFR2	18	n/a	n/a	n/a	16	9	7	1	1
2200451	PROB	n/a	LTP343	ltpFR2	18	n/a	n/a	n/a	16	14	4	1	9
2201951	PROB	n/a	LTP343	ltpFR2	18	n/a	n/a	n/a	16	17	8	1	8
2203265	STOP	n/a	LTP343	ltpFR2	18	n/a	n/a	n/a	16	n/a	n/a	n/a	n/a
2205699	REC_START	n/a	LTP343	ltpFR2	18	11	n/a	n/a	n/a	n/a	0	0	0
2206484	REC_WORD	wordpools/wasnorm_wordpool_576.txt	LTP343	ltpFR2	18	11	NURSE	963	n/a	n/a	0	0	0
2207133	REC_WORD	wordpools/wasnorm_wordpool_576.txt	LTP343	ltpFR2	18	11	TERMITE	1451	n/a	n/a	0	0	0
2207886	REC_WORD	wordpools/wasnorm_wordpool_576.txt	LTP343	ltpFR2	18	11	BRANCH	168	n/a	n/a	0	0	0
2208516	REC_WORD	wordpools/wasnorm_wordpool_576.txt	LTP343	ltpFR2	18	11	SEAL	1262	n/a	n/a	0	0	0
2209411	REC_WORD	wordpools/wasnorm_wordpool_576.txt	LTP343	ltpFR2	18	11	GROUND	666	n/a	n/a	0	0	0
2210434	REC_WORD	wordpools/wasnorm_wordpool_576.txt	LTP343	ltpFR2	18	11	FUNGUS	614	n/a	n/a	0	0	0
2212479	REC_WORD	wordpools/wasnorm_wordpool_576.txt	LTP343	ltpFR2	18	11	OX	994	n/a	n/a	0	0	0
2213557	REC_WORD	wordpools/wasnorm_wordpool_576.txt	LTP343	ltpFR2	18	11	DUSTPAN	509	n/a	n/a	0	0	0
2215082	REC_WORD	wordpools/wasnorm_wordpool_576.txt	LTP343	ltpFR2	18	11	DONKEY	484	n/a	n/a	0	0	0
2215989	REC_WORD	wordpools/wasnorm_wordpool_576.txt	LTP343	ltpFR2	18	11	PEBBLE	1035	n/a	n/a	0	0	0
2217171	REC_WORD	wordpools/wasnorm_wordpool_576.txt	LTP343	ltpFR2	18	11	PERCH	1048	n/a	n/a	0	0	0
2219974	REC_WORD	wordpools/wasnorm_wordpool_576.txt	LTP343	ltpFR2	18	11	COWBOY	395	n/a	n/a	0	0	0
2222217	REC_WORD	wordpools/wasnorm_wordpool_576.txt	LTP343	ltpFR2	18	11	SUSPECT	1415	n/a	n/a	0	0	0
2223162	REC_WORD	wordpools/wasnorm_wordpool_576.txt	LTP343	ltpFR2	18	11	CONVICT	371	n/a	n/a	0	0	0
2224008	REC_WORD	wordpools/wasnorm_wordpool_576.txt	LTP343	ltpFR2	18	11	FEMALE	559	n/a	n/a	0	0	0
2234164	REC_WORD	wordpools/wasnorm_wordpool_576.txt	LTP343	ltpFR2	18	11	PENGUIN	1044	n/a	n/a	0	0	0
2236167	REC_WORD	wordpools/wasnorm_wordpool_576.txt	LTP343	ltpFR2	18	11	TERMITE	1451	n/a	n/a	0	0	0
2296141	DISTRACTOR	n/a	LTP343	ltpFR2	18	12	n/a	n/a	n/a	n/a	0	0	0
2296141	START	n/a	LTP343	ltpFR2	18	n/a	n/a	n/a	17	n/a	n/a	n/a	n/a
2296158	PROB	n/a	LTP343	ltpFR2	18	n/a	n/a	n/a	17	22	9	7	5
2298990	PROB	n/a	LTP343	ltpFR2	18	n/a	n/a	n/a	17	13	1	3	9
2300255	PROB	n/a	LTP343	ltpFR2	18	n/a	n/a	n/a	17	22	5	8	9
2302538	PROB	n/a	LTP343	ltpFR2	18	n/a	n/a	n/a	17	16	5	4	7
2303688	PROB	n/a	LTP343	ltpFR2	18	n/a	n/a	n/a	17	5	3	1	1
2304671	PROB	n/a	LTP343	ltpFR2	18	n/a	n/a	n/a	17	15	7	7	1
2305970	PROB	n/a	LTP343	ltpFR2	18	n/a	n/a	n/a	17	14	6	5	3
2307335	PROB	n/a	LTP343	ltpFR2	18	n/a	n/a	n/a	17	8	5	2	1
2308736	PROB	n/a	LTP343	ltpFR2	18	n/a	n/a	n/a	17	14	6	3	5
2309952	PROB	n/a	LTP343	ltpFR2	18	n/a	n/a	n/a	17	12	5	4	3
2311084	PROB	n/a	LTP343	ltpFR2	18	n/a	n/a	n/a	17	22	7	6	9
2313650	PROB	n/a	LTP343	ltpFR2	18	n/a	n/a	n/a	17	16	6	1	9
2316115	PROB	n/a	LTP343	ltpFR2	18	n/a	n/a	n/a	17	13	4	8	1
2317414	PROB	n/a	LTP343	ltpFR2	18	n/a	n/a	n/a	17	11	6	3	2
2320141	STOP	n/a	LTP343	ltpFR2	18	n/a	n/a	n/a	17	n/a	n/a	n/a	n/a
2321262	WORD	wordpools/wasnorm_wordpool_576.txt	LTP343	ltpFR2	18	12	HEDGE	699	n/a	n/a	0	0	0
2323812	WORD	wordpools/wasnorm_wordpool_576.txt	LTP343	ltpFR2	18	12	TWIG	1527	n/a	n/a	0	0	0
2326426	WORD	wordpools/wasnorm_wordpool_576.txt	LTP343	ltpFR2	18	12	REPORT	1184	n/a	n/a	0	0	0
2329043	WORD	wordpools/wasnorm_wordpool_576.txt	LTP343	ltpFR2	18	12	HOOK	715	n/a	n/a	0	0	0
2331542	WORD	wordpools/wasnorm_wordpool_576.txt	LTP343	ltpFR2	18	12	SNAKE	1333	n/a	n/a	0	0	0
2334340	WORD	wordpools/wasnorm_wordpool_576.txt	LTP343	ltpFR2	18	12	SUMMIT	1405	n/a	n/a	0	0	0
2336889	WORD	wordpools/wasnorm_wordpool_576.txt	LTP343	ltpFR2	18	12	KETCHUP	771	n/a	n/a	0	0	0
2339671	WORD	wordpools/wasnorm_wordpool_576.txt	LTP343	ltpFR2	18	12	FLOWER	584	n/a	n/a	0	0	0
2342170	WORD	wordpools/wasnorm_wordpool_576.txt	LTP343	ltpFR2	18	12	FIREMAN	569	n/a	n/a	0	0	0
2344952	WORD	wordpools/wasnorm_wordpool_576.txt	LTP343	ltpFR2	18	12	MUFFIN	929	n/a	n/a	0	0	0
2347568	WORD	wordpools/wasnorm_wordpool_576.txt	LTP343	ltpFR2	18	12	SHOVEL	1295	n/a	n/a	0	0	0
2350349	WORD	wordpools/wasnorm_wordpool_576.txt	LTP343	ltpFR2	18	12	CANYON	235	n/a	n/a	0	0	0
2352999	WORD	wordpools/wasnorm_wordpool_576.txt	LTP343	ltpFR2	18	12	JUGGLER	763	n/a	n/a	0	0	0
2355631	WORD	wordpools/wasnorm_wordpool_576.txt	LTP343	ltpFR2	18	12	SHIRT	1287	n/a	n/a	0	0	0
2358212	WORD	wordpools/wasnorm_wordpool_576.txt	LTP343	ltpFR2	18	12	FLAG	573	n/a	n/a	0	0	0
2361045	WORD	wordpools/wasnorm_wordpool_576.txt	LTP343	ltpFR2	18	12	CRICKET	408	n/a	n/a	0	0	0
2363477	WORD	wordpools/wasnorm_wordpool_576.txt	LTP343	ltpFR2	18	12	LIZARD	834	n/a	n/a	0	0	0
2366010	WORD	wordpools/wasnorm_wordpool_576.txt	LTP343	ltpFR2	18	12	SLIME	1327	n/a	n/a	0	0	0
2368825	WORD	wordpools/wasnorm_wordpool_576.txt	LTP343	ltpFR2	18	12	SHRUB	1299	n/a	n/a	0	0	0
2371640	WORD	wordpools/wasnorm_wordpool_576.txt	LTP343	ltpFR2	18	12	GYMNAST	675	n/a	n/a	0	0	0
2374388	WORD	wordpools/wasnorm_wordpool_576.txt	LTP343	ltpFR2	18	12	RACKET	1155	n/a	n/a	0	0	0
2377088	WORD	wordpools/wasnorm_wordpool_576.txt	LTP343	ltpFR2	18	12	BINDER	127	n/a	n/a	0	0	0
2379553	WORD	wordpools/wasnorm_wordpool_576.txt	LTP343	ltpFR2	18	12	GUITAR	670	n/a	n/a	0	0	0
2382351	WORD	wordpools/wasnorm_wordpool_576.txt	LTP343	ltpFR2	18	12	FLUTE	585	n/a	n/a	0	0	0
2383968	START	n/a	LTP343	ltpFR2	18	n/a	n/a	n/a	18	n/a	n/a	n/a	n/a
2384886	DISTRACTOR	n/a	LTP343	ltpFR2	18	12	n/a	n/a	n/a	n/a	0	0	0
2384901	PROB	n/a	LTP343	ltpFR2	18	n/a	n/a	n/a	18	20	6	6	8
2386567	PROB	n/a	LTP343	ltpFR2	18	n/a	n/a	n/a	18	6	2	2	2
2387550	PROB	n/a	LTP343	ltpFR2	18	n/a	n/a	n/a	18	19	7	4	8
2390898	PROB	n/a	LTP343	ltpFR2	18	n/a	n/a	n/a	18	18	6	9	3
2392731	PROB	n/a	LTP343	ltpFR2	18	n/a	n/a	n/a	18	11	7	1	3
2393913	PROB	n/a	LTP343	ltpFR2	18	n/a	n/a	n/a	18	22	6	7	9
2396662	PROB	n/a	LTP343	ltpFR2	18	n/a	n/a	n/a	18	10	5	4	1
2397762	PROB	n/a	LTP343	ltpFR2	18	n/a	n/a	n/a	18	20	7	5	8
2399045	PROB	n/a	LTP343	ltpFR2	18	n/a	n/a	n/a	18	20	3	8	9
2400310	PROB	n/a	LTP343	ltpFR2	18	n/a	n/a	n/a	18	14	6	6	2
2401710	PROB	n/a	LTP343	ltpFR2	18	n/a	n/a	n/a	18	9	2	3	4
2402743	PROB	n/a	LTP343	ltpFR2	18	n/a	n/a	n/a	18	22	9	6	7
2404175	PROB	n/a	LTP343	ltpFR2	18	n/a	n/a	n/a	18	14	1	6	7
2405442	PROB	n/a	LTP343	ltpFR2	18	n/a	n/a	n/a	18	14	3	9	2
2406640	STOP	n/a	LTP343	ltpFR2	18	n/a	n/a	n/a	18	n/a	n/a	n/a	n/a
2409873	REC_START	n/a	LTP343	ltpFR2	18	12	n/a	n/a	n/a	n/a	0	0	0
2410299	REC_WORD	wordpools/wasnorm_wordpool_576.txt	LTP343	ltpFR2	18	12	RACKET	1155	n/a	n/a	0	0	0
2411123	REC_WORD	wordpools/wasnorm_wordpool_576.txt	LTP343	ltpFR2	18	12	BINDER	127	n/a	n/a	0	0	0
2411912	REC_WORD	wordpools/wasnorm_wordpool_576.txt	LTP343	ltpFR2	18	12	GUITAR	670	n/a	n/a	0	0	0
2412809	REC_WORD	wordpools/wasnorm_wordpool_576.txt	LTP343	ltpFR2	18	12	FLUTE	585	n/a	n/a	0	0	0
2413890	REC_WORD	wordpools/wasnorm_wordpool_576.txt	LTP343	ltpFR2	18	12	SHRUB	1299	n/a	n/a	0	0	0
2414865	REC_WORD	wordpools/wasnorm_wordpool_576.txt	LTP343	ltpFR2	18	12	HEDGE	699	n/a	n/a	0	0	0
2415809	REC_WORD	wordpools/wasnorm_wordpool_576.txt	LTP343	ltpFR2	18	12	SUMMIT	1405	n/a	n/a	0	0	0
2417492	REC_WORD	wordpools/wasnorm_wordpool_576.txt	LTP343	ltpFR2	18	12	FLOWER	584	n/a	n/a	0	0	0
2418794	REC_WORD	wordpools/wasnorm_wordpool_576.txt	LTP343	ltpFR2	18	12	FLOWER	584	n/a	n/a	0	0	0
2420317	REC_WORD	wordpools/wasnorm_wordpool_576.txt	LTP343	ltpFR2	18	12	HOOK	715	n/a	n/a	0	0	0
2421170	REC_WORD	wordpools/wasnorm_wordpool_576.txt	LTP343	ltpFR2	18	12	SNAKE	1333	n/a	n/a	0	0	0
2422935	REC_WORD	wordpools/wasnorm_wordpool_576.txt	LTP343	ltpFR2	18	12	TWIG	1527	n/a	n/a	0	0	0
2424599	REC_WORD	wordpools/wasnorm_wordpool_576.txt	LTP343	ltpFR2	18	12	FIREMAN	569	n/a	n/a	0	0	0
2425807	REC_WORD	wordpools/wasnorm_wordpool_576.txt	LTP343	ltpFR2	18	12	KETCHUP	771	n/a	n/a	0	0	0
2427563	REC_WORD	wordpools/wasnorm_wordpool_576.txt	LTP343	ltpFR2	18	12	SHIRT	1287	n/a	n/a	0	0	0
2428300	REC_WORD	wordpools/wasnorm_wordpool_576.txt	LTP343	ltpFR2	18	12	FLAG	573	n/a	n/a	0	0	0
2500331	WORD	wordpools/wasnorm_wordpool_576.txt	LTP343	ltpFR2	18	13	SNACK	1331	n/a	n/a	0	0	0
2503014	WORD	wordpools/wasnorm_wordpool_576.txt	LTP343	ltpFR2	18	13	SUBWAY	1400	n/a	n/a	0	0	0
2505513	WORD	wordpools/wasnorm_wordpool_576.txt	LTP343	ltpFR2	18	13	CREVICE	405	n/a	n/a	0	0	0
2508261	WORD	wordpools/wasnorm_wordpool_576.txt	LTP343	ltpFR2	18	13	THIEF	1456	n/a	n/a	0	0	0
2510744	WORD	wordpools/wasnorm_wordpool_576.txt	LTP343	ltpFR2	18	13	HELMET	702	n/a	n/a	0	0	0
2513509	WORD	wordpools/wasnorm_wordpool_576.txt	LTP343	ltpFR2	18	13	MARKET	871	n/a	n/a	0	0	0
2516008	WORD	wordpools/wasnorm_wordpool_576.txt	LTP343	ltpFR2	18	13	MARKER	870	n/a	n/a	0	0	0
2518640	WORD	wordpools/wasnorm_wordpool_576.txt	LTP343	ltpFR2	18	13	CRAYON	401	n/a	n/a	0	0	0
2521189	WORD	wordpools/wasnorm_wordpool_576.txt	LTP343	ltpFR2	18	13	MONEY	908	n/a	n/a	0	0	0
2523821	WORD	wordpools/wasnorm_wordpool_576.txt	LTP343	ltpFR2	18	13	CHEMIST	292	n/a	n/a	0	0	0
2526520	WORD	wordpools/wasnorm_wordpool_576.txt	LTP343	ltpFR2	18	13	WINDOW	1611	n/a	n/a	0	0	0
2529234	WORD	wordpools/wasnorm_wordpool_576.txt	LTP343	ltpFR2	18	13	MUSTARD	935	n/a	n/a	0	0	0
2531918	WORD	wordpools/wasnorm_wordpool_576.txt	LTP343	ltpFR2	18	13	PICNIC	1060	n/a	n/a	0	0	0
2534666	WORD	wordpools/wasnorm_wordpool_576.txt	LTP343	ltpFR2	18	13	PORK	1108	n/a	n/a	0	0	0
2537448	WORD	wordpools/wasnorm_wordpool_576.txt	LTP343	ltpFR2	18	13	VICTIM	1562	n/a	n/a	0	0	0
2539997	WORD	wordpools/wasnorm_wordpool_576.txt	LTP343	ltpFR2	18	13	CARRIAGE	248	n/a	n/a	0	0	0
2542463	WORD	wordpools/wasnorm_wordpool_576.txt	LTP343	ltpFR2	18	13	BABY	64	n/a	n/a	0	0	0
2545011	WORD	wordpools/wasnorm_wordpool_576.txt	LTP343	ltpFR2	18	13	ROD	1203	n/a	n/a	0	0	0
2547577	WORD	wordpools/wasnorm_wordpool_576.txt	LTP343	ltpFR2	18	13	FINGER	567	n/a	n/a	0	0	0
2550325	WORD	wordpools/wasnorm_wordpool_576.txt	LTP343	ltpFR2	18	13	WAITRESS	1581	n/a	n/a	0	0	0
2552791	WORD	wordpools/wasnorm_wordpool_576.txt	LTP343	ltpFR2	18	13	CHURCH	307	n/a	n/a	0	0	0
2555389	WORD	wordpools/wasnorm_wordpool_576.txt	LTP343	ltpFR2	18	13	WORLD	1622	n/a	n/a	0	0	0
2557922	WORD	wordpools/wasnorm_wordpool_576.txt	LTP343	ltpFR2	18	13	VIRUS	1572	n/a	n/a	0	0	0
2560604	WORD	wordpools/wasnorm_wordpool_576.txt	LTP343	ltpFR2	18	13	CURTAIN	427	n/a	n/a	0	0	0
2562220	START	n/a	LTP343	ltpFR2	18	n/a	n/a	n/a	19	n/a	n/a	n/a	n/a
2563232	DISTRACTOR	n/a	LTP343	ltpFR2	18	13	n/a	n/a	n/a	n/a	0	0	0
2563236	PROB	n/a	LTP343	ltpFR2	18	n/a	n/a	n/a	19	15	6	6	3
2564903	PROB	n/a	LTP343	ltpFR2	18	n/a	n/a	n/a	19	15	1	7	7
2566085	PROB	n/a	LTP343	ltpFR2	18	n/a	n/a	n/a	19	20	5	6	9
2569967	PROB	n/a	LTP343	ltpFR2	18	n/a	n/a	n/a	19	7	1	1	5
2571000	PROB	n/a	LTP343	ltpFR2	18	n/a	n/a	n/a	19	18	1	8	9
2572166	PROB	n/a	LTP343	ltpFR2	18	n/a	n/a	n/a	19	13	2	2	9
2573832	PROB	n/a	LTP343	ltpFR2	18	n/a	n/a	n/a	19	22	8	6	8
2576196	PROB	n/a	LTP343	ltpFR2	18	n/a	n/a	n/a	19	22	9	7	6
2579829	PROB	n/a	LTP343	ltpFR2	18	n/a	n/a	n/a	19	14	4	6	4
2581344	PROB	n/a	LTP343	ltpFR2	18	n/a	n/a	n/a	19	16	1	6	9
2582728	PROB	n/a	LTP343	ltpFR2	18	n/a	n/a	n/a	19	14	8	3	3
2583994	PROB	n/a	LTP343	ltpFR2	18	n/a	n/a	n/a	19	14	4	6	4
2585069	STOP	n/a	LTP343	ltpFR2	18	n/a	n/a	n/a	19	n/a	n/a	n/a	n/a
2588110	REC_START	n/a	LTP343	ltpFR2	18	13	n/a	n/a	n/a	n/a	0	0	0
2588527	REC_WORD	wordpools/wasnorm_wordpool_576.txt	LTP343	ltpFR2	18	13	ROD	1203	n/a	n/a	0	0	0
2589319	REC_WORD	wordpools/wasnorm_wordpool_576.txt	LTP343	ltpFR2	18	13	FINGER	567	n/a	n/a	0	0	0
2590303	REC_WORD	wordpools/wasnorm_wordpool_576.txt	LTP343	ltpFR2	18	13	WAITRESS	1581	n/a	n/a	0	0	0
2591214	REC_WORD	wordpools/wasnorm_wordpool_576.txt	LTP343	ltpFR2	18	13	WORLD	1622	n/a	n/a	0	0	0
2592041	REC_WORD	wordpools/wasnorm_wordpool_576.txt	LTP343	ltpFR2	18	13	VIRUS	1572	n/a	n/a	0	0	0
2593088	REC_WORD	wordpools/wasnorm_wordpool_576.txt	LTP343	ltpFR2	18	13	BABY	64	n/a	n/a	0	0	0
2594002	REC_WORD	wordpools/wasnorm_wordpool_576.txt	LTP343	ltpFR2	18	13	CARRIAGE	248	n/a	n/a	0	0	0
2678551	DISTRACTOR	n/a	LTP343	ltpFR2	18	14	n/a	n/a	n/a	n/a	0	0	0
2678551	START	n/a	LTP343	ltpFR2	18	n/a	n/a	n/a	20	n/a	n/a	n/a	n/a
2678567	PROB	n/a	LTP343	ltpFR2	18	n/a	n/a	n/a	20	12	9	1	2
2680399	PROB	n/a	LTP343	ltpFR2	18	n/a	n/a	n/a	20	12	1	3	8
2682815	PROB	n/a	LTP343	ltpFR2	18	n/a	n/a	n/a	20	23	9	9	5
2684065	PROB	n/a	LTP343	ltpFR2	18	n/a	n/a	n/a	20	13	1	8	4
2685380	PROB	n/a	LTP343	ltpFR2	18	n/a	n/a	n/a	20	7	2	4	1
2686531	PROB	n/a	LTP343	ltpFR2	18	n/a	n/a	n/a	20	18	9	3	6
2688146	PROB	n/a	LTP343	ltpFR2	18	n/a	n/a	n/a	20	15	6	1	8
2689312	PROB	n/a	LTP343	ltpFR2	18	n/a	n/a	n/a	20	17	2	7	8
2691078	PROB	n/a	LTP343	ltpFR2	18	n/a	n/a	n/a	20	27	9	9	9
2692394	PROB	n/a	LTP343	ltpFR2	18	n/a	n/a	n/a	20	16	6	6	4
2693727	PROB	n/a	LTP343	ltpFR2	18	n/a	n/a	n/a	20	11	2	5	4
2696225	PROB	n/a	LTP343	ltpFR2	18	n/a	n/a	n/a	20	20	7	9	4
2697842	PROB	n/a	LTP343	ltpFR2	18	n/a	n/a	n/a	20	16	7	2	7
2699491	PROB	n/a	LTP343	ltpFR2	18	n/a	n/a	n/a	20	9	5	1	3
2702550	STOP	n/a	LTP343	ltpFR2	18	n/a	n/a	n/a	20	n/a	n/a	n/a	n/a
2703388	WORD	wordpools/wasnorm_wordpool_576.txt	LTP343	ltpFR2	18	14	CELLAR	267	n/a	n/a	0	0	0
2706055	WORD	wordpools/wasnorm_wordpool_576.txt	LTP343	ltpFR2	18	14	POWDER	1117	n/a	n/a	0	0	0
2708687	WORD	wordpools/wasnorm_wordpool_576.txt	LTP343	ltpFR2	18	14	MILK	895	n/a	n/a	0	0	0
2711469	WORD	wordpools/wasnorm_wordpool_576.txt	LTP343	ltpFR2	18	14	SKETCH	1315	n/a	n/a	0	0	0
2714200	WORD	wordpools/wasnorm_wordpool_576.txt	LTP343	ltpFR2	18	14	BUNNY	198	n/a	n/a	0	0	0
2716667	WORD	wordpools/wasnorm_wordpool_576.txt	LTP343	ltpFR2	18	14	PISTON	1076	n/a	n/a	0	0	0
2719198	WORD	wordpools/wasnorm_wordpool_576.txt	LTP343	ltpFR2	18	14	PLAID	1080	n/a	n/a	0	0	0
2721998	WORD	wordpools/wasnorm_wordpool_576.txt	LTP343	ltpFR2	18	14	NIGHTGOWN	953	n/a	n/a	0	0	0
2724713	WORD	wordpools/wasnorm_wordpool_576.txt	LTP343	ltpFR2	18	14	XEROX	1628	n/a	n/a	0	0	0
2727145	WORD	wordpools/wasnorm_wordpool_576.txt	LTP343	ltpFR2	18	14	HANDBAG	684	n/a	n/a	0	0	0
2729578	WORD	wordpools/wasnorm_wordpool_576.txt	LTP343	ltpFR2	18	14	KNAPSACK	783	n/a	n/a	0	0	0
2732275	WORD	wordpools/wasnorm_wordpool_576.txt	LTP343	ltpFR2	18	14	PALACE	1006	n/a	n/a	0	0	0
2734725	WORD	wordpools/wasnorm_wordpool_576.txt	LTP343	ltpFR2	18	14	QUEEN	1149	n/a	n/a	0	0	0
2737174	WORD	wordpools/wasnorm_wordpool_576.txt	LTP343	ltpFR2	18	14	POET	1095	n/a	n/a	0	0	0
2739890	WORD	wordpools/wasnorm_wordpool_576.txt	LTP343	ltpFR2	18	14	WRIST	1626	n/a	n/a	0	0	0
2742387	WORD	wordpools/wasnorm_wordpool_576.txt	LTP343	ltpFR2	18	14	MATCH	878	n/a	n/a	0	0	0
2745137	WORD	wordpools/wasnorm_wordpool_576.txt	LTP343	ltpFR2	18	14	SERVANT	1271	n/a	n/a	0	0	0
2747869	WORD	wordpools/wasnorm_wordpool_576.txt	LTP343	ltpFR2	18	14	TAXI	1438	n/a	n/a	0	0	0
2750384	WORD	wordpools/wasnorm_wordpool_576.txt	LTP343	ltpFR2	18	14	PLASTER	1085	n/a	n/a	0	0	0
2753067	WORD	wordpools/wasnorm_wordpool_576.txt	LTP343	ltpFR2	18	14	KNIFE	785	n/a	n/a	0	0	0
2755616	WORD	wordpools/wasnorm_wordpool_576.txt	LTP343	ltpFR2	18	14	FLASHLIGHT	575	n/a	n/a	0	0	0
2758330	WORD	wordpools/wasnorm_wordpool_576.txt	LTP343	ltpFR2	18	14	LADDER	793	n/a	n/a	0	0	0
2760880	WORD	wordpools/wasnorm_wordpool_576.txt	LTP343	ltpFR2	18	14	BOARD	143	n/a	n/a	0	0	0
2763629	WORD	wordpools/wasnorm_wordpool_576.txt	LTP343	ltpFR2	18	14	PEANUT	1032	n/a	n/a	0	0	0
2765244	START	n/a	LTP343	ltpFR2	18	n/a	n/a	n/a	21	n/a	n/a	n/a	n/a
2766357	DISTRACTOR	n/a	LTP343	ltpFR2	18	14	n/a	n/a	n/a	n/a	0	0	0
2766360	PROB	n/a	LTP343	ltpFR2	18	n/a	n/a	n/a	21	19	1	9	9
2768010	PROB	n/a	LTP343	ltpFR2	18	n/a	n/a	n/a	21	19	8	7	4
2769292	PROB	n/a	LTP343	ltpFR2	18	n/a	n/a	n/a	21	9	2	3	4
2770776	PROB	n/a	LTP343	ltpFR2	18	n/a	n/a	n/a	21	13	2	4	7
2772058	PROB	n/a	LTP343	ltpFR2	18	n/a	n/a	n/a	21	17	2	7	8
2773323	PROB	n/a	LTP343	ltpFR2	18	n/a	n/a	n/a	21	16	9	1	6
2774356	PROB	n/a	LTP343	ltpFR2	18	n/a	n/a	n/a	21	7	1	4	2
2775440	PROB	n/a	LTP343	ltpFR2	18	n/a	n/a	n/a	21	10	1	7	2
2777123	PROB	n/a	LTP343	ltpFR2	18	n/a	n/a	n/a	21	18	8	3	7
2778304	PROB	n/a	LTP343	ltpFR2	18	n/a	n/a	n/a	21	9	3	2	4
2779421	PROB	n/a	LTP343	ltpFR2	18	n/a	n/a	n/a	21	17	3	7	7
2780638	PROB	n/a	LTP343	ltpFR2	18	n/a	n/a	n/a	21	17	5	5	7
2781804	PROB	n/a	LTP343	ltpFR2	18	n/a	n/a	n/a	21	18	4	6	8
2782837	PROB	n/a	LTP343	ltpFR2	18	n/a	n/a	n/a	21	20	8	9	3
2784119	PROB	n/a	LTP343	ltpFR2	18	n/a	n/a	n/a	21	11	7	2	2
2785652	PROB	n/a	LTP343	ltpFR2	18	n/a	n/a	n/a	21	18	8	1	9
2786885	PROB	n/a	LTP343	ltpFR2	18	n/a	n/a	n/a	21	9	3	4	2
2787867	STOP	n/a	LTP343	ltpFR2	18	n/a	n/a	n/a	21	n/a	n/a	n/a	n/a
2791167	REC_START	n/a	LTP343	ltpFR2	18	14	n/a	n/a	n/a	n/a	0	0	0
2792441	REC_WORD	wordpools/wasnorm_wordpool_576.txt	LTP343	ltpFR2	18	14	PALACE	1006	n/a	n/a	0	0	0
2793322	REC_WORD	wordpools/wasnorm_wordpool_576.txt	LTP343	ltpFR2	18	14	QUEEN	1149	n/a	n/a	0	0	0
2794261	REC_WORD	wordpools/wasnorm_wordpool_576.txt	LTP343	ltpFR2	18	14	POET	1095	n/a	n/a	0	0	0
2795086	REC_WORD	wordpools/wasnorm_wordpool_576.txt	LTP343	ltpFR2	18	14	WRIST	1626	n/a	n/a	0	0	0
2796075	REC_WORD	wordpools/wasnorm_wordpool_576.txt	LTP343	ltpFR2	18	14	MATCH	878	n/a	n/a	0	0	0
2801888	REC_WORD	wordpools/wasnorm_wordpool_576.txt	LTP343	ltpFR2	18	14	PLASTER	1085	n/a	n/a	0	0	0
2806389	REC_WORD	wordpools/wasnorm_wordpool_576.txt	LTP343	ltpFR2	18	14	CELLAR	267	n/a	n/a	0	0	0
2815138	REC_WORD	wordpools/wasnorm_wordpool_576.txt	LTP343	ltpFR2	18	14	BUNNY	198	n/a	n/a	0	0	0
2881625	WORD	wordpools/wasnorm_wordpool_576.txt	LTP343	ltpFR2	18	15	SPACE	1345	n/a	n/a	0	0	0
2884141	WORD	wordpools/wasnorm_wordpool_576.txt	LTP343	ltpFR2	18	15	LODGE	839	n/a	n/a	0	0	0
2886906	WORD	wordpools/wasnorm_wordpool_576.txt	LTP343	ltpFR2	18	15	MOTEL	919	n/a	n/a	0	0	0
2889488	WORD	wordpools/wasnorm_wordpool_576.txt	LTP343	ltpFR2	18	15	WHISKERS	1605	n/a	n/a	0	0	0
2892070	WORD	wordpools/wasnorm_wordpool_576.txt	LTP343	ltpFR2	18	15	MOTOR	922	n/a	n/a	0	0	0
2894836	WORD	wordpools/wasnorm_wordpool_576.txt	LTP343	ltpFR2	18	15	LAVA	804	n/a	n/a	0	0	0
2897300	WORD	wordpools/wasnorm_wordpool_576.txt	LTP343	ltpFR2	18	15	GARLIC	624	n/a	n/a	0	0	0
2899734	WORD	wordpools/wasnorm_wordpool_576.txt	LTP343	ltpFR2	18	15	ONION	977	n/a	n/a	0	0	0
2902215	WORD	wordpools/wasnorm_wordpool_576.txt	LTP343	ltpFR2	18	15	COFFEE	341	n/a	n/a	0	0	0
2904898	WORD	wordpools/wasnorm_wordpool_576.txt	LTP343	ltpFR2	18	15	CUSTARD	429	n/a	n/a	0	0	0
2907563	WORD	wordpools/wasnorm_wordpool_576.txt	LTP343	ltpFR2	18	15	FRAGRANCE	599	n/a	n/a	0	0	0
2910012	WORD	wordpools/wasnorm_wordpool_576.txt	LTP343	ltpFR2	18	15	SALMON	1227	n/a	n/a	0	0	0
2912678	WORD	wordpools/wasnorm_wordpool_576.txt	LTP343	ltpFR2	18	15	FOREHEAD	592	n/a	n/a	0	0	0
2915110	WORD	wordpools/wasnorm_wordpool_576.txt	LTP343	ltpFR2	18	15	EAGLE	512	n/a	n/a	0	0	0
2917626	WORD	wordpools/wasnorm_wordpool_576.txt	LTP343	ltpFR2	18	15	SCARECROW	1245	n/a	n/a	0	0	0
2920223	WORD	wordpools/wasnorm_wordpool_576.txt	LTP343	ltpFR2	18	15	PUDDING	1139	n/a	n/a	0	0	0
2922956	WORD	wordpools/wasnorm_wordpool_576.txt	LTP343	ltpFR2	18	15	SPOUSE	1358	n/a	n/a	0	0	0
2925672	WORD	wordpools/wasnorm_wordpool_576.txt	LTP343	ltpFR2	18	15	AIRPORT	13	n/a	n/a	0	0	0
2928137	WORD	wordpools/wasnorm_wordpool_576.txt	LTP343	ltpFR2	18	15	PROTON	1132	n/a	n/a	0	0	0
2930670	WORD	wordpools/wasnorm_wordpool_576.txt	LTP343	ltpFR2	18	15	MASK	876	n/a	n/a	0	0	0
2933152	WORD	wordpools/wasnorm_wordpool_576.txt	LTP343	ltpFR2	18	15	BARREL	91	n/a	n/a	0	0	0
2935667	WORD	wordpools/wasnorm_wordpool_576.txt	LTP343	ltpFR2	18	15	SCARF	1246	n/a	n/a	0	0	0
2938348	WORD	wordpools/wasnorm_wordpool_576.txt	LTP343	ltpFR2	18	15	MEDAL	885	n/a	n/a	0	0	0
2940782	WORD	wordpools/wasnorm_wordpool_576.txt	LTP343	ltpFR2	18	15	SALT	1229	n/a	n/a	0	0	0
2942397	START	n/a	LTP343	ltpFR2	18	n/a	n/a	n/a	22	n/a	n/a	n/a	n/a
2943337	DISTRACTOR	n/a	LTP343	ltpFR2	18	15	n/a	n/a	n/a	n/a	0	0	0
2943346	PROB	n/a	LTP343	ltpFR2	18	n/a	n/a	n/a	22	17	5	4	8
2945163	PROB	n/a	LTP343	ltpFR2	18	n/a	n/a	n/a	22	17	7	9	1
2946996	PROB	n/a	LTP343	ltpFR2	18	n/a	n/a	n/a	22	15	6	1	8
2949461	PROB	n/a	LTP343	ltpFR2	18	n/a	n/a	n/a	22	19	9	7	3
2950910	PROB	n/a	LTP343	ltpFR2	18	n/a	n/a	n/a	22	21	9	5	7
2952693	PROB	n/a	LTP343	ltpFR2	18	n/a	n/a	n/a	22	19	8	3	8
2954026	PROB	n/a	LTP343	ltpFR2	18	n/a	n/a	n/a	22	11	4	4	3
2955625	PROB	n/a	LTP343	ltpFR2	18	n/a	n/a	n/a	22	23	5	9	9
2957158	PROB	n/a	LTP343	ltpFR2	18	n/a	n/a	n/a	22	10	6	3	1
2958256	PROB	n/a	LTP343	ltpFR2	18	n/a	n/a	n/a	22	16	4	8	4
2959840	PROB	n/a	LTP343	ltpFR2	18	n/a	n/a	n/a	22	17	4	6	7
2961189	PROB	n/a	LTP343	ltpFR2	18	n/a	n/a	n/a	22	14	9	4	1
2962505	PROB	n/a	LTP343	ltpFR2	18	n/a	n/a	n/a	22	20	3	8	9
2963954	PROB	n/a	LTP343	ltpFR2	18	n/a	n/a	n/a	22	16	8	5	3
2965784	STOP	n/a	LTP343	ltpFR2	18	n/a	n/a	n/a	22	n/a	n/a	n/a	n/a
2968219	REC_START	n/a	LTP343	ltpFR2	18	15	n/a	n/a	n/a	n/a	0	0	0
2968594	REC_WORD	wordpools/wasnorm_wordpool_576.txt	LTP343	ltpFR2	18	15	MEDAL	885	n/a	n/a	0	0	0
2969422	REC_WORD	wordpools/wasnorm_wordpool_576.txt	LTP343	ltpFR2	18	15	SALT	1229	n/a	n/a	0	0	0
2971057	REC_WORD	wordpools/wasnorm_wordpool_576.txt	LTP343	ltpFR2	18	15	MOTEL	919	n/a	n/a	0	0	0
2972058	REC_WORD	wordpools/wasnorm_wordpool_576.txt	LTP343	ltpFR2	18	15	MOTOR	922	n/a	n/a	0	0	0
2973049	REC_WORD	wordpools/wasnorm_wordpool_576.txt	LTP343	ltpFR2	18	15	AIRPORT	13	n/a	n/a	0	0	0
2974199	REC_WORD	wordpools/wasnorm_wordpool_576.txt	LTP343	ltpFR2	18	15	SPOUSE	1358	n/a	n/a	0	0	0
2975256	REC_WORD	wordpools/wasnorm_wordpool_576.txt	LTP343	ltpFR2	18	15	BARREL	91	n/a	n/a	0	0	0
2976082	REC_WORD	wordpools/wasnorm_wordpool_576.txt	LTP343	ltpFR2	18	15	MASK	876	n/a	n/a	0	0	0
2977066	REC_WORD	wordpools/wasnorm_wordpool_576.txt	LTP343	ltpFR2	18	15	SCARF	1246	n/a	n/a	0	0	0
3058645	DISTRACTOR	n/a	LTP343	ltpFR2	18	16	n/a	n/a	n/a	n/a	0	0	0
3058645	START	n/a	LTP343	ltpFR2	18	n/a	n/a	n/a	23	n/a	n/a	n/a	n/a
3058661	PROB	n/a	LTP343	ltpFR2	18	n/a	n/a	n/a	23	16	6	3	7
3060343	PROB	n/a	LTP343	ltpFR2	18	n/a	n/a	n/a	23	16	4	7	5
3061693	PROB	n/a	LTP343	ltpFR2	18	n/a	n/a	n/a	23	9	6	5	2
3062843	PROB	n/a	LTP343	ltpFR2	18	n/a	n/a	n/a	23	19	7	5	7
3064391	PROB	n/a	LTP343	ltpFR2	18	n/a	n/a	n/a	23	19	8	5	6
3065875	PROB	n/a	LTP343	ltpFR2	18	n/a	n/a	n/a	23	15	6	1	8
3068440	PROB	n/a	LTP343	ltpFR2	18	n/a	n/a	n/a	23	20	6	5	9
3069923	PROB	n/a	LTP343	ltpFR2	18	n/a	n/a	n/a	23	15	3	7	5
3070956	PROB	n/a	LTP343	ltpFR2	18	n/a	n/a	n/a	23	12	1	3	8
3073122	PROB	n/a	LTP343	ltpFR2	18	n/a	n/a	n/a	23	14	2	6	6
3074604	PROB	n/a	LTP343	ltpFR2	18	n/a	n/a	n/a	23	15	6	5	4
3075754	PROB	n/a	LTP343	ltpFR2	18	n/a	n/a	n/a	23	14	3	3	8
3077419	PROB	n/a	LTP343	ltpFR2	18	n/a	n/a	n/a	23	21	7	6	8
3080085	PROB	n/a	LTP343	ltpFR2	18	n/a	n/a	n/a	23	2	7	8	6
3081347	STOP	n/a	LTP343	ltpFR2	18	n/a	n/a	n/a	23	n/a	n/a	n/a	n/a
3083584	WORD	wordpools/wasnorm_wordpool_576.txt	LTP343	ltpFR2	18	16	GRAPE	654	n/a	n/a	0	0	0
3086066	WORD	wordpools/wasnorm_wordpool_576.txt	LTP343	ltpFR2	18	16	DUST	508	n/a	n/a	0	0	0
3088515	WORD	wordpools/wasnorm_wordpool_576.txt	LTP343	ltpFR2	18	16	MAILBOX	857	n/a	n/a	0	0	0
3091196	WORD	wordpools/wasnorm_wordpool_576.txt	LTP343	ltpFR2	18	16	MARINE	869	n/a	n/a	0	0	0
3093895	WORD	wordpools/wasnorm_wordpool_576.txt	LTP343	ltpFR2	18	16	FLEET	578	n/a	n/a	0	0	0
3096594	WORD	wordpools/wasnorm_wordpool_576.txt	LTP343	ltpFR2	18	16	PIGEON	1065	n/a	n/a	0	0	0
3099160	WORD	wordpools/wasnorm_wordpool_576.txt	LTP343	ltpFR2	18	16	GOBLIN	645	n/a	n/a	0	0	0
3101975	WORD	wordpools/wasnorm_wordpool_576.txt	LTP343	ltpFR2	18	16	CABBAGE	210	n/a	n/a	0	0	0
3104724	WORD	wordpools/wasnorm_wordpool_576.txt	LTP343	ltpFR2	18	16	CUPBOARD	425	n/a	n/a	0	0	0
3107156	WORD	wordpools/wasnorm_wordpool_576.txt	LTP343	ltpFR2	18	16	SLUG	1329	n/a	n/a	0	0	0
3109622	WORD	wordpools/wasnorm_wordpool_576.txt	LTP343	ltpFR2	18	16	DRESSER	496	n/a	n/a	0	0	0
3112403	WORD	wordpools/wasnorm_wordpool_576.txt	LTP343	ltpFR2	18	16	CANAL	226	n/a	n/a	0	0	0
3114869	WORD	wordpools/wasnorm_wordpool_576.txt	LTP343	ltpFR2	18	16	RIVER	1194	n/a	n/a	0	0	0
3117618	WORD	wordpools/wasnorm_wordpool_576.txt	LTP343	ltpFR2	18	16	STICKER	1382	n/a	n/a	0	0	0
3120167	WORD	wordpools/wasnorm_wordpool_576.txt	LTP343	ltpFR2	18	16	SISTER	1312	n/a	n/a	0	0	0
3122766	WORD	wordpools/wasnorm_wordpool_576.txt	LTP343	ltpFR2	18	16	WRENCH	1625	n/a	n/a	0	0	0
3125448	WORD	wordpools/wasnorm_wordpool_576.txt	LTP343	ltpFR2	18	16	TWEEZERS	1526	n/a	n/a	0	0	0
3128063	WORD	wordpools/wasnorm_wordpool_576.txt	LTP343	ltpFR2	18	16	CLOCK	325	n/a	n/a	0	0	0
3130879	WORD	wordpools/wasnorm_wordpool_576.txt	LTP343	ltpFR2	18	16	BUGGY	188	n/a	n/a	0	0	0
3133444	WORD	wordpools/wasnorm_wordpool_576.txt	LTP343	ltpFR2	18	16	BULLET	194	n/a	n/a	0	0	0
3135943	WORD	wordpools/wasnorm_wordpool_576.txt	LTP343	ltpFR2	18	16	PARROT	1015	n/a	n/a	0	0	0
3138659	WORD	wordpools/wasnorm_wordpool_576.txt	LTP343	ltpFR2	18	16	SHORTS	1293	n/a	n/a	0	0	0
3141423	WORD	wordpools/wasnorm_wordpool_576.txt	LTP343	ltpFR2	18	16	GUARD	667	n/a	n/a	0	0	0
3143989	WORD	wordpools/wasnorm_wordpool_576.txt	LTP343	ltpFR2	18	16	FRUIT	610	n/a	n/a	0	0	0
3145605	START	n/a	LTP343	ltpFR2	18	n/a	n/a	n/a	24	n/a	n/a	n/a	n/a
3146540	DISTRACTOR	n/a	LTP343	ltpFR2	18	16	n/a	n/a	n/a	n/a	0	0	0
3146555	PROB	n/a	LTP343	ltpFR2	18	n/a	n/a	n/a	24	12	4	5	3
3148154	PROB	n/a	LTP343	ltpFR2	18	n/a	n/a	n/a	24	19	5	6	8
3150435	PROB	n/a	LTP343	ltpFR2	18	n/a	n/a	n/a	24	12	5	3	4
3151586	PROB	n/a	LTP343	ltpFR2	18	n/a	n/a	n/a	24	15	9	1	5
3152902	PROB	n/a	LTP343	ltpFR2	18	n/a	n/a	n/a	24	15	6	2	3
3154968	PROB	n/a	LTP343	ltpFR2	18	n/a	n/a	n/a	24	12	3	2	7
3156333	PROB	n/a	LTP343	ltpFR2	18	n/a	n/a	n/a	24	10	4	3	3
3159033	PROB	n/a	LTP343	ltpFR2	18	n/a	n/a	n/a	24	17	9	4	4
3160482	PROB	n/a	LTP343	ltpFR2	18	n/a	n/a	n/a	24	14	2	9	3
3161748	PROB	n/a	LTP343	ltpFR2	18	n/a	n/a	n/a	24	5	4	1	1
3162797	PROB	n/a	LTP343	ltpFR2	18	n/a	n/a	n/a	24	22	5	8	9
3164447	PROB	n/a	LTP343	ltpFR2	18	n/a	n/a	n/a	24	11	7	2	3
3165730	PROB	n/a	LTP343	ltpFR2	18	n/a	n/a	n/a	24	8	1	3	4
3166962	PROB	n/a	LTP343	ltpFR2	18	n/a	n/a	n/a	24	18	6	9	3
3168126	STOP	n/a	LTP343	ltpFR2	18	n/a	n/a	n/a	24	n/a	n/a	n/a	n/a
3171393	REC_START	n/a	LTP343	ltpFR2	18	16	n/a	n/a	n/a	n/a	0	0	0
3171781	REC_WORD	wordpools/wasnorm_wordpool_576.txt	LTP343	ltpFR2	18	16	WRENCH	1625	n/a	n/a	0	0	0
3172663	REC_WORD	wordpools/wasnorm_wordpool_576.txt	LTP343	ltpFR2	18	16	BUGGY	188	n/a	n/a	0	0	0
3173579	REC_WORD	wordpools/wasnorm_wordpool_576.txt	LTP343	ltpFR2	18	16	BULLET	194	n/a	n/a	0	0	0
3174418	REC_WORD	wordpools/wasnorm_wordpool_576.txt	LTP343	ltpFR2	18	16	PARROT	1015	n/a	n/a	0	0	0
3175331	REC_WORD	wordpools/wasnorm_wordpool_576.txt	LTP343	ltpFR2	18	16	TWEEZERS	1526	n/a	n/a	0	0	0
3177456	REC_WORD	wordpools/wasnorm_wordpool_576.txt	LTP343	ltpFR2	18	16	FRUIT	610	n/a	n/a	0	0	0
3178377	REC_WORD	wordpools/wasnorm_wordpool_576.txt	LTP343	ltpFR2	18	16	GUARD	667	n/a	n/a	0	0	0
3185862	REC_WORD	wordpools/wasnorm_wordpool_576.txt	LTP343	ltpFR2	18	16	BUGGY	188	n/a	n/a	0	0	0
3189673	REC_WORD	wordpools/wasnorm_wordpool_576.txt	LTP343	ltpFR2	18	16	DUST	508	n/a	n/a	0	0	0
3206123	REC_WORD	wordpools/wasnorm_wordpool_576.txt	LTP343	ltpFR2	18	16	FLEET	578	n/a	n/a	0	0	0
3207075	REC_WORD	wordpools/wasnorm_wordpool_576.txt	LTP343	ltpFR2	18	16	MARINE	869	n/a	n/a	0	0	0
3247925	REST_REWET	n/a	LTP343	ltpFR2	18	16	n/a	n/a	n/a	n/a	0	0	0
3341749	DISTRACTOR	n/a	LTP343	ltpFR2	18	17	n/a	n/a	n/a	n/a	0	0	0
3341750	START	n/a	LTP343	ltpFR2	18	n/a	n/a	n/a	25	n/a	n/a	n/a	n/a
3341766	PROB	n/a	LTP343	ltpFR2	18	n/a	n/a	n/a	25	18	4	8	6
3343298	PROB	n/a	LTP343	ltpFR2	18	n/a	n/a	n/a	25	15	4	6	5
3344748	PROB	n/a	LTP343	ltpFR2	18	n/a	n/a	n/a	25	12	5	3	4
3346597	PROB	n/a	LTP343	ltpFR2	18	n/a	n/a	n/a	25	13	5	6	2
3347797	PROB	n/a	LTP343	ltpFR2	18	n/a	n/a	n/a	25	11	4	4	3
3348796	PROB	n/a	LTP343	ltpFR2	18	n/a	n/a	n/a	25	11	8	2	1
3350428	PROB	n/a	LTP343	ltpFR2	18	n/a	n/a	n/a	25	19	6	9	4
3351995	PROB	n/a	LTP343	ltpFR2	18	n/a	n/a	n/a	25	10	3	2	5
3353544	PROB	n/a	LTP343	ltpFR2	18	n/a	n/a	n/a	25	19	4	6	9
3354594	PROB	n/a	LTP343	ltpFR2	18	n/a	n/a	n/a	25	20	3	9	8
3355943	PROB	n/a	LTP343	ltpFR2	18	n/a	n/a	n/a	25	12	8	2	2
3357059	PROB	n/a	LTP343	ltpFR2	18	n/a	n/a	n/a	25	17	5	3	9
3358725	PROB	n/a	LTP343	ltpFR2	18	n/a	n/a	n/a	25	13	3	1	9
3360541	PROB	n/a	LTP343	ltpFR2	18	n/a	n/a	n/a	25	21	9	3	9
3362707	PROB	n/a	LTP343	ltpFR2	18	n/a	n/a	n/a	25	12	2	6	4
3363923	PROB	n/a	LTP343	ltpFR2	18	n/a	n/a	n/a	25	20	8	9	3
3365355	STOP	n/a	LTP343	ltpFR2	18	n/a	n/a	n/a	25	n/a	n/a	n/a	n/a
3366888	WORD	wordpools/wasnorm_wordpool_576.txt	LTP343	ltpFR2	18	17	BUCKET	184	n/a	n/a	0	0	0
3369604	WORD	wordpools/wasnorm_wordpool_576.txt	LTP343	ltpFR2	18	17	BALLOON	75	n/a	n/a	0	0	0
3372102	WORD	wordpools/wasnorm_wordpool_576.txt	LTP343	ltpFR2	18	17	CLOUD	328	n/a	n/a	0	0	0
3374685	WORD	wordpools/wasnorm_wordpool_576.txt	LTP343	ltpFR2	18	17	OYSTER	995	n/a	n/a	0	0	0
3377249	WORD	wordpools/wasnorm_wordpool_576.txt	LTP343	ltpFR2	18	17	HOOD	714	n/a	n/a	0	0	0
3379932	WORD	wordpools/wasnorm_wordpool_576.txt	LTP343	ltpFR2	18	17	NOVEL	960	n/a	n/a	0	0	0
3382413	WORD	wordpools/wasnorm_wordpool_576.txt	LTP343	ltpFR2	18	17	SCALLOP	1242	n/a	n/a	0	0	0
3384897	WORD	wordpools/wasnorm_wordpool_576.txt	LTP343	ltpFR2	18	17	CAPTIVE	240	n/a	n/a	0	0	0
3387729	WORD	wordpools/wasnorm_wordpool_576.txt	LTP343	ltpFR2	18	17	INFANT	737	n/a	n/a	0	0	0
3390343	WORD	wordpools/wasnorm_wordpool_576.txt	LTP343	ltpFR2	18	17	VELVET	1555	n/a	n/a	0	0	0
3393109	WORD	wordpools/wasnorm_wordpool_576.txt	LTP343	ltpFR2	18	17	SILK	1307	n/a	n/a	0	0	0
3395642	WORD	wordpools/wasnorm_wordpool_576.txt	LTP343	ltpFR2	18	17	BIKE	125	n/a	n/a	0	0	0
3398373	WORD	wordpools/wasnorm_wordpool_576.txt	LTP343	ltpFR2	18	17	STAMP	1370	n/a	n/a	0	0	0
3401139	WORD	wordpools/wasnorm_wordpool_576.txt	LTP343	ltpFR2	18	17	MARROW	872	n/a	n/a	0	0	0
3403855	WORD	wordpools/wasnorm_wordpool_576.txt	LTP343	ltpFR2	18	17	MILDEW	893	n/a	n/a	0	0	0
3406520	WORD	wordpools/wasnorm_wordpool_576.txt	LTP343	ltpFR2	18	17	PLAZA	1088	n/a	n/a	0	0	0
3409119	WORD	wordpools/wasnorm_wordpool_576.txt	LTP343	ltpFR2	18	17	EXPERT	543	n/a	n/a	0	0	0
3411818	WORD	wordpools/wasnorm_wordpool_576.txt	LTP343	ltpFR2	18	17	ROCKET	1202	n/a	n/a	0	0	0
3414316	WORD	wordpools/wasnorm_wordpool_576.txt	LTP343	ltpFR2	18	17	OFFICE	972	n/a	n/a	0	0	0
3416782	WORD	wordpools/wasnorm_wordpool_576.txt	LTP343	ltpFR2	18	17	SIDEWALK	1303	n/a	n/a	0	0	0
3419413	WORD	wordpools/wasnorm_wordpool_576.txt	LTP343	ltpFR2	18	17	LAPEL	800	n/a	n/a	0	0	0
3421963	WORD	wordpools/wasnorm_wordpool_576.txt	LTP343	ltpFR2	18	17	BEEF	113	n/a	n/a	0	0	0
3424428	WORD	wordpools/wasnorm_wordpool_576.txt	LTP343	ltpFR2	18	17	GRILL	661	n/a	n/a	0	0	0
3427127	WORD	wordpools/wasnorm_wordpool_576.txt	LTP343	ltpFR2	18	17	JOURNAL	760	n/a	n/a	0	0	0
3428743	START	n/a	LTP343	ltpFR2	18	n/a	n/a	n/a	26	n/a	n/a	n/a	n/a
3429771	DISTRACTOR	n/a	LTP343	ltpFR2	18	17	n/a	n/a	n/a	n/a	0	0	0
3429776	PROB	n/a	LTP343	ltpFR2	18	n/a	n/a	n/a	26	20	6	6	8
3431291	PROB	n/a	LTP343	ltpFR2	18	n/a	n/a	n/a	26	19	9	6	4
3432558	PROB	n/a	LTP343	ltpFR2	18	n/a	n/a	n/a	26	17	3	7	7
3433691	PROB	n/a	LTP343	ltpFR2	18	n/a	n/a	n/a	26	17	4	4	9
3434857	PROB	n/a	LTP343	ltpFR2	18	n/a	n/a	n/a	26	12	6	4	2
3435940	PROB	n/a	LTP343	ltpFR2	18	n/a	n/a	n/a	26	13	5	7	1
3437123	PROB	n/a	LTP343	ltpFR2	18	n/a	n/a	n/a	26	13	3	7	3
3438305	PROB	n/a	LTP343	ltpFR2	18	n/a	n/a	n/a	26	114	1	6	7
3439822	PROB	n/a	LTP343	ltpFR2	18	n/a	n/a	n/a	26	16	1	7	8
3441171	PROB	n/a	LTP343	ltpFR2	18	n/a	n/a	n/a	26	14	2	5	2
3442419	PROB	n/a	LTP343	ltpFR2	18	n/a	n/a	n/a	26	14	8	5	1
3443670	PROB	n/a	LTP343	ltpFR2	18	n/a	n/a	n/a	26	12	1	3	8
3445469	PROB	n/a	LTP343	ltpFR2	18	n/a	n/a	n/a	26	15	7	3	5
3446868	PROB	n/a	LTP343	ltpFR2	18	n/a	n/a	n/a	26	16	5	2	9
3448333	PROB	n/a	LTP343	ltpFR2	18	n/a	n/a	n/a	26	15	6	2	7
3450349	PROB	n/a	LTP343	ltpFR2	18	n/a	n/a	n/a	26	11	4	4	3
3451983	STOP	n/a	LTP343	ltpFR2	18	n/a	n/a	n/a	26	n/a	n/a	n/a	n/a
3454565	REC_START	n/a	LTP343	ltpFR2	18	17	n/a	n/a	n/a	n/a	0	0	0
3455098	REC_WORD	wordpools/wasnorm_wordpool_576.txt	LTP343	ltpFR2	18	17	LAPEL	800	n/a	n/a	0	0	0
3459319	REC_WORD	wordpools/wasnorm_wordpool_576.txt	LTP343	ltpFR2	18	17	LAPEL	800	n/a	n/a	0	0	0
3460397	REC_WORD	wordpools/wasnorm_wordpool_576.txt	LTP343	ltpFR2	18	17	BEEF	113	n/a	n/a	0	0	0
3461157	REC_WORD	wordpools/wasnorm_wordpool_576.txt	LTP343	ltpFR2	18	17	JOURNAL	760	n/a	n/a	0	0	0
3462617	REC_WORD	wordpools/wasnorm_wordpool_576.txt	LTP343	ltpFR2	18	17	GRILL	661	n/a	n/a	0	0	0
3468073	REC_WORD	wordpools/wasnorm_wordpool_576.txt	LTP343	ltpFR2	18	17	BUCKET	184	n/a	n/a	0	0	0
3469937	REC_WORD	wordpools/wasnorm_wordpool_576.txt	LTP343	ltpFR2	18	17	VELVET	1555	n/a	n/a	0	0	0
3470755	REC_WORD	wordpools/wasnorm_wordpool_576.txt	LTP343	ltpFR2	18	17	SILK	1307	n/a	n/a	0	0	0
3471725	REC_WORD	wordpools/wasnorm_wordpool_576.txt	LTP343	ltpFR2	18	17	BIKE	125	n/a	n/a	0	0	0
3472322	REC_WORD	wordpools/wasnorm_wordpool_576.txt	LTP343	ltpFR2	18	17	STAMP	1370	n/a	n/a	0	0	0
3474483	REC_WORD	wordpools/wasnorm_wordpool_576.txt	LTP343	ltpFR2	18	17	INFANT	737	n/a	n/a	0	0	0
3478822	REC_WORD	wordpools/wasnorm_wordpool_576.txt	LTP343	ltpFR2	18	17	CLOUD	328	n/a	n/a	0	0	0
3504336	REC_WORD	wordpools/wasnorm_wordpool_576.txt	LTP343	ltpFR2	18	17	SCALLOP	1242	n/a	n/a	0	0	0
3544990	DISTRACTOR	n/a	LTP343	ltpFR2	18	18	n/a	n/a	n/a	n/a	0	0	0
3544991	START	n/a	LTP343	ltpFR2	18	n/a	n/a	n/a	27	n/a	n/a	n/a	n/a
3545007	PROB	n/a	LTP343	ltpFR2	18	n/a	n/a	n/a	27	16	6	1	9
3546973	PROB	n/a	LTP343	ltpFR2	18	n/a	n/a	n/a	27	16	8	5	3
3548271	PROB	n/a	LTP343	ltpFR2	18	n/a	n/a	n/a	27	14	7	2	5
3549655	PROB	n/a	LTP343	ltpFR2	18	n/a	n/a	n/a	27	10	3	4	3
3550921	PROB	n/a	LTP343	ltpFR2	18	n/a	n/a	n/a	27	12	5	4	3
3552369	PROB	n/a	LTP343	ltpFR2	18	n/a	n/a	n/a	27	26	9	8	9
3554186	PROB	n/a	LTP343	ltpFR2	18	n/a	n/a	n/a	27	14	5	5	4
3555218	PROB	n/a	LTP343	ltpFR2	18	n/a	n/a	n/a	27	19	8	9	2
3556384	PROB	n/a	LTP343	ltpFR2	18	n/a	n/a	n/a	27	17	6	7	4
3557651	PROB	n/a	LTP343	ltpFR2	18	n/a	n/a	n/a	27	11	2	5	4
3560034	PROB	n/a	LTP343	ltpFR2	18	n/a	n/a	n/a	27	10	5	3	2
3561349	PROB	n/a	LTP343	ltpFR2	18	n/a	n/a	n/a	27	8	2	2	4
3562432	PROB	n/a	LTP343	ltpFR2	18	n/a	n/a	n/a	27	17	1	8	8
3563782	PROB	n/a	LTP343	ltpFR2	18	n/a	n/a	n/a	27	19	9	1	9
3565531	PROB	n/a	LTP343	ltpFR2	18	n/a	n/a	n/a	27	16	1	6	9
3567014	PROB	n/a	LTP343	ltpFR2	18	n/a	n/a	n/a	27	9	3	4	2
3568002	STOP	n/a	LTP343	ltpFR2	18	n/a	n/a	n/a	27	n/a	n/a	n/a	n/a
3569829	WORD	wordpools/wasnorm_wordpool_576.txt	LTP343	ltpFR2	18	18	BUBBLE	183	n/a	n/a	0	0	0
3572461	WORD	wordpools/wasnorm_wordpool_576.txt	LTP343	ltpFR2	18	18	SWORD	1423	n/a	n/a	0	0	0
3575028	WORD	wordpools/wasnorm_wordpool_576.txt	LTP343	ltpFR2	18	18	HAWK	692	n/a	n/a	0	0	0
3577542	WORD	wordpools/wasnorm_wordpool_576.txt	LTP343	ltpFR2	18	18	SPONGE	1355	n/a	n/a	0	0	0
3580307	WORD	wordpools/wasnorm_wordpool_576.txt	LTP343	ltpFR2	18	18	BROOK	177	n/a	n/a	0	0	0
3582957	WORD	wordpools/wasnorm_wordpool_576.txt	LTP343	ltpFR2	18	18	BANQUET	86	n/a	n/a	0	0	0
3585472	WORD	wordpools/wasnorm_wordpool_576.txt	LTP343	ltpFR2	18	18	ZEBRA	1635	n/a	n/a	0	0	0
3588220	WORD	wordpools/wasnorm_wordpool_576.txt	LTP343	ltpFR2	18	18	LAGOON	795	n/a	n/a	0	0	0
3590720	WORD	wordpools/wasnorm_wordpool_576.txt	LTP343	ltpFR2	18	18	TWISTER	1530	n/a	n/a	0	0	0
3593434	WORD	wordpools/wasnorm_wordpool_576.txt	LTP343	ltpFR2	18	18	DRILL	497	n/a	n/a	0	0	0
3595884	WORD	wordpools/wasnorm_wordpool_576.txt	LTP343	ltpFR2	18	18	HORSE	719	n/a	n/a	0	0	0
3598683	WORD	wordpools/wasnorm_wordpool_576.txt	LTP343	ltpFR2	18	18	SPOOL	1356	n/a	n/a	0	0	0
3601281	WORD	wordpools/wasnorm_wordpool_576.txt	LTP343	ltpFR2	18	18	THREAD	1460	n/a	n/a	0	0	0
3603797	WORD	wordpools/wasnorm_wordpool_576.txt	LTP343	ltpFR2	18	18	COMPASS	358	n/a	n/a	0	0	0
3606479	WORD	wordpools/wasnorm_wordpool_576.txt	LTP343	ltpFR2	18	18	AGENT	10	n/a	n/a	0	0	0
3608911	WORD	wordpools/wasnorm_wordpool_576.txt	LTP343	ltpFR2	18	18	BADGE	68	n/a	n/a	0	0	0
3611644	WORD	wordpools/wasnorm_wordpool_576.txt	LTP343	ltpFR2	18	18	EGYPT	519	n/a	n/a	0	0	0
3614191	WORD	wordpools/wasnorm_wordpool_576.txt	LTP343	ltpFR2	18	18	BLADE	134	n/a	n/a	0	0	0
3616758	WORD	wordpools/wasnorm_wordpool_576.txt	LTP343	ltpFR2	18	18	BEAVER	109	n/a	n/a	0	0	0
3619457	WORD	wordpools/wasnorm_wordpool_576.txt	LTP343	ltpFR2	18	18	SCULPTURE	1258	n/a	n/a	0	0	0
3621889	WORD	wordpools/wasnorm_wordpool_576.txt	LTP343	ltpFR2	18	18	CRIB	407	n/a	n/a	0	0	0
3624320	WORD	wordpools/wasnorm_wordpool_576.txt	LTP343	ltpFR2	18	18	PISTOL	1075	n/a	n/a	0	0	0
3626787	WORD	wordpools/wasnorm_wordpool_576.txt	LTP343	ltpFR2	18	18	CABIN	211	n/a	n/a	0	0	0
3629469	WORD	wordpools/wasnorm_wordpool_576.txt	LTP343	ltpFR2	18	18	TURKEY	1520	n/a	n/a	0	0	0
3631085	START	n/a	LTP343	ltpFR2	18	n/a	n/a	n/a	28	n/a	n/a	n/a	n/a
3631984	DISTRACTOR	n/a	LTP343	ltpFR2	18	18	n/a	n/a	n/a	n/a	0	0	0
3632001	PROB	n/a	LTP343	ltpFR2	18	n/a	n/a	n/a	28	13	5	6	2
3633600	PROB	n/a	LTP343	ltpFR2	18	n/a	n/a	n/a	28	12	2	4	6
3634733	PROB	n/a	LTP343	ltpFR2	18	n/a	n/a	n/a	28	26	8	9	9
3636281	PROB	n/a	LTP343	ltpFR2	18	n/a	n/a	n/a	28	13	4	5	4
3637414	PROB	n/a	LTP343	ltpFR2	18	n/a	n/a	n/a	28	8	1	4	3
3639230	PROB	n/a	LTP343	ltpFR2	18	n/a	n/a	n/a	28	16	8	5	3
3640697	PROB	n/a	LTP343	ltpFR2	18	n/a	n/a	n/a	28	18	9	7	2
3641896	PROB	n/a	LTP343	ltpFR2	18	n/a	n/a	n/a	28	20	9	4	7
3643896	PROB	n/a	LTP343	ltpFR2	18	n/a	n/a	n/a	28	19	8	9	2
3645145	PROB	n/a	LTP343	ltpFR2	18	n/a	n/a	n/a	28	20	8	9	3
3646594	PROB	n/a	LTP343	ltpFR2	18	n/a	n/a	n/a	28	5	1	3	1
3647561	PROB	n/a	LTP343	ltpFR2	18	n/a	n/a	n/a	28	11	2	6	3
3648710	PROB	n/a	LTP343	ltpFR2	18	n/a	n/a	n/a	28	16	6	4	6
3649810	PROB	n/a	LTP343	ltpFR2	18	n/a	n/a	n/a	28	23	9	6	8
3651275	PROB	n/a	LTP343	ltpFR2	18	n/a	n/a	n/a	28	17	3	7	7
3652542	PROB	n/a	LTP343	ltpFR2	18	n/a	n/a	n/a	28	18	6	8	5
3653965	STOP	n/a	LTP343	ltpFR2	18	n/a	n/a	n/a	28	n/a	n/a	n/a	n/a
3656990	REC_START	n/a	LTP343	ltpFR2	18	18	n/a	n/a	n/a	n/a	0	0	0
3657429	REC_WORD	wordpools/wasnorm_wordpool_576.txt	LTP343	ltpFR2	18	18	CRIB	407	n/a	n/a	0	0	0
3658276	REC_WORD	wordpools/wasnorm_wordpool_576.txt	LTP343	ltpFR2	18	18	PISTOL	1075	n/a	n/a	0	0	0
3660317	REC_WORD	wordpools/wasnorm_wordpool_576.txt	LTP343	ltpFR2	18	18	CABIN	211	n/a	n/a	0	0	0
3662439	REC_WORD	wordpools/wasnorm_wordpool_576.txt	LTP343	ltpFR2	18	18	BLADE	134	n/a	n/a	0	0	0
3665438	REC_WORD	wordpools/wasnorm_wordpool_576.txt	LTP343	ltpFR2	18	18	SPOOL	1356	n/a	n/a	0	0	0
3667111	REC_WORD	wordpools/wasnorm_wordpool_576.txt	LTP343	ltpFR2	18	18	THREAD	1460	n/a	n/a	0	0	0
3671638	REC_WORD	wordpools/wasnorm_wordpool_576.txt	LTP343	ltpFR2	18	18	EGYPT	519	n/a	n/a	0	0	0
3674325	REC_WORD	wordpools/wasnorm_wordpool_576.txt	LTP343	ltpFR2	18	18	SCULPTURE	1258	n/a	n/a	0	0	0
3681649	REC_WORD	wordpools/wasnorm_wordpool_576.txt	LTP343	ltpFR2	18	18	CRIB	407	n/a	n/a	0	0	0
3747449	WORD	wordpools/wasnorm_wordpool_576.txt	LTP343	ltpFR2	18	19	CHAUFFEUR	283	n/a	n/a	0	0	0
3749981	WORD	wordpools/wasnorm_wordpool_576.txt	LTP343	ltpFR2	18	19	FRANCE	601	n/a	n/a	0	0	0
3752679	WORD	wordpools/wasnorm_wordpool_576.txt	LTP343	ltpFR2	18	19	SCALPEL	1243	n/a	n/a	0	0	0
3755394	WORD	wordpools/wasnorm_wordpool_576.txt	LTP343	ltpFR2	18	19	PAPER	1011	n/a	n/a	0	0	0
3757877	WORD	wordpools/wasnorm_wordpool_576.txt	LTP343	ltpFR2	18	19	PIMPLE	1071	n/a	n/a	0	0	0
3760692	WORD	wordpools/wasnorm_wordpool_576.txt	LTP343	ltpFR2	18	19	OUTDOORS	987	n/a	n/a	0	0	0
3763357	WORD	wordpools/wasnorm_wordpool_576.txt	LTP343	ltpFR2	18	19	FOREST	593	n/a	n/a	0	0	0
3765890	WORD	wordpools/wasnorm_wordpool_576.txt	LTP343	ltpFR2	18	19	PASTA	1021	n/a	n/a	0	0	0
3768321	WORD	wordpools/wasnorm_wordpool_576.txt	LTP343	ltpFR2	18	19	RUST	1219	n/a	n/a	0	0	0
3770755	WORD	wordpools/wasnorm_wordpool_576.txt	LTP343	ltpFR2	18	19	CHEST	295	n/a	n/a	0	0	0
3773386	WORD	wordpools/wasnorm_wordpool_576.txt	LTP343	ltpFR2	18	19	TURNIP	1521	n/a	n/a	0	0	0
3775919	WORD	wordpools/wasnorm_wordpool_576.txt	LTP343	ltpFR2	18	19	ATLAS	53	n/a	n/a	0	0	0
3778734	WORD	wordpools/wasnorm_wordpool_576.txt	LTP343	ltpFR2	18	19	PIZZA	1079	n/a	n/a	0	0	0
3781382	WORD	wordpools/wasnorm_wordpool_576.txt	LTP343	ltpFR2	18	19	SUITCASE	1403	n/a	n/a	0	0	0
3784065	WORD	wordpools/wasnorm_wordpool_576.txt	LTP343	ltpFR2	18	19	COUCH	386	n/a	n/a	0	0	0
3786647	WORD	wordpools/wasnorm_wordpool_576.txt	LTP343	ltpFR2	18	19	SHORTCAKE	1292	n/a	n/a	0	0	0
3789262	WORD	wordpools/wasnorm_wordpool_576.txt	LTP343	ltpFR2	18	19	DRAWING	494	n/a	n/a	0	0	0
3791862	WORD	wordpools/wasnorm_wordpool_576.txt	LTP343	ltpFR2	18	19	FRAME	600	n/a	n/a	0	0	0
3794627	WORD	wordpools/wasnorm_wordpool_576.txt	LTP343	ltpFR2	18	19	NOTEBOOK	959	n/a	n/a	0	0	0
3797275	WORD	wordpools/wasnorm_wordpool_576.txt	LTP343	ltpFR2	18	19	DRAGON	492	n/a	n/a	0	0	0
3800041	WORD	wordpools/wasnorm_wordpool_576.txt	LTP343	ltpFR2	18	19	FIREPLACE	570	n/a	n/a	0	0	0
3802507	WORD	wordpools/wasnorm_wordpool_576.txt	LTP343	ltpFR2	18	19	PRINCE	1124	n/a	n/a	0	0	0
3804972	WORD	wordpools/wasnorm_wordpool_576.txt	LTP343	ltpFR2	18	19	BURGLAR	200	n/a	n/a	0	0	0
3807455	WORD	wordpools/wasnorm_wordpool_576.txt	LTP343	ltpFR2	18	19	TEMPLE	1448	n/a	n/a	0	0	0
3809071	START	n/a	LTP343	ltpFR2	18	n/a	n/a	n/a	29	n/a	n/a	n/a	n/a
3810172	DISTRACTOR	n/a	LTP343	ltpFR2	18	19	n/a	n/a	n/a	n/a	0	0	0
3810187	PROB	n/a	LTP343	ltpFR2	18	n/a	n/a	n/a	29	9	4	4	1
3811636	PROB	n/a	LTP343	ltpFR2	18	n/a	n/a	n/a	29	15	2	4	9
3812985	PROB	n/a	LTP343	ltpFR2	18	n/a	n/a	n/a	29	12	4	3	5
3814384	PROB	n/a	LTP343	ltpFR2	18	n/a	n/a	n/a	29	21	6	6	9
3816034	PROB	n/a	LTP343	ltpFR2	18	n/a	n/a	n/a	29	15	6	5	4
3817283	PROB	n/a	LTP343	ltpFR2	18	n/a	n/a	n/a	29	12	2	2	8
3819382	PROB	n/a	LTP343	ltpFR2	18	n/a	n/a	n/a	29	16	3	8	5
3820732	PROB	n/a	LTP343	ltpFR2	18	n/a	n/a	n/a	29	7	5	1	1
3821731	PROB	n/a	LTP343	ltpFR2	18	n/a	n/a	n/a	29	13	2	3	8
3823014	PROB	n/a	LTP343	ltpFR2	18	n/a	n/a	n/a	29	18	4	6	8
3824030	PROB	n/a	LTP343	ltpFR2	18	n/a	n/a	n/a	29	21	8	4	9
3828578	PROB	n/a	LTP343	ltpFR2	18	n/a	n/a	n/a	29	16	8	7	1
3830028	PROB	n/a	LTP343	ltpFR2	18	n/a	n/a	n/a	29	16	6	3	7
3832018	STOP	n/a	LTP343	ltpFR2	18	n/a	n/a	n/a	29	n/a	n/a	n/a	n/a
3834893	REC_START	n/a	LTP343	ltpFR2	18	19	n/a	n/a	n/a	n/a	0	0	0
3835671	REC_WORD	wordpools/wasnorm_wordpool_576.txt	LTP343	ltpFR2	18	19	OUTDOORS	987	n/a	n/a	0	0	0
3836636	REC_WORD	wordpools/wasnorm_wordpool_576.txt	LTP343	ltpFR2	18	19	FOREST	593	n/a	n/a	0	0	0
3838157	REC_WORD	wordpools/wasnorm_wordpool_576.txt	LTP343	ltpFR2	18	19	TURNIP	1521	n/a	n/a	0	0	0
3842528	REC_WORD	wordpools/wasnorm_wordpool_576.txt	LTP343	ltpFR2	18	19	FIREPLACE	570	n/a	n/a	0	0	0
3844017	REC_WORD	wordpools/wasnorm_wordpool_576.txt	LTP343	ltpFR2	18	19	BURGLAR	200	n/a	n/a	0	0	0
3844924	REC_WORD	wordpools/wasnorm_wordpool_576.txt	LTP343	ltpFR2	18	19	PRINCE	1124	n/a	n/a	0	0	0
3845799	REC_WORD	wordpools/wasnorm_wordpool_576.txt	LTP343	ltpFR2	18	19	DRAGON	492	n/a	n/a	0	0	0
3846713	REC_WORD	wordpools/wasnorm_wordpool_576.txt	LTP343	ltpFR2	18	19	CHEST	295	n/a	n/a	0	0	0
3851375	REC_WORD	wordpools/wasnorm_wordpool_576.txt	LTP343	ltpFR2	18	19	RUST	1219	n/a	n/a	0	0	0
3852586	REC_WORD	wordpools/wasnorm_wordpool_576.txt	LTP343	ltpFR2	18	19	PIZZA	1079	n/a	n/a	0	0	0
3853926	REC_WORD	wordpools/wasnorm_wordpool_576.txt	LTP343	ltpFR2	18	19	SHORTCAKE	1292	n/a	n/a	0	0	0
3925333	DISTRACTOR	n/a	LTP343	ltpFR2	18	20	n/a	n/a	n/a	n/a	0	0	0
3925334	START	n/a	LTP343	ltpFR2	18	n/a	n/a	n/a	30	n/a	n/a	n/a	n/a
3925350	PROB	n/a	LTP343	ltpFR2	18	n/a	n/a	n/a	30	22	4	9	9
3927567	PROB	n/a	LTP343	ltpFR2	18	n/a	n/a	n/a	30	19	4	7	8
3928716	PROB	n/a	LTP343	ltpFR2	18	n/a	n/a	n/a	30	19	7	4	8
3929982	PROB	n/a	LTP343	ltpFR2	18	n/a	n/a	n/a	30	20	9	5	6
3931381	PROB	n/a	LTP343	ltpFR2	18	n/a	n/a	n/a	30	13	3	7	3
3932498	PROB	n/a	LTP343	ltpFR2	18	n/a	n/a	n/a	30	8	2	5	1
3933464	PROB	n/a	LTP343	ltpFR2	18	n/a	n/a	n/a	30	14	1	6	7
3934930	PROB	n/a	LTP343	ltpFR2	18	n/a	n/a	n/a	30	18	9	8	1
3936146	PROB	n/a	LTP343	ltpFR2	18	n/a	n/a	n/a	30	1	7	1	8
3937545	PROB	n/a	LTP343	ltpFR2	18	n/a	n/a	n/a	30	20	4	7	9
3938978	PROB	n/a	LTP343	ltpFR2	18	n/a	n/a	n/a	30	9	4	1	4
3940094	PROB	n/a	LTP343	ltpFR2	18	n/a	n/a	n/a	30	19	9	2	8
3942060	PROB	n/a	LTP343	ltpFR2	18	n/a	n/a	n/a	30	18	5	6	7
3943126	PROB	n/a	LTP343	ltpFR2	18	n/a	n/a	n/a	30	15	5	4	6
3944225	PROB	n/a	LTP343	ltpFR2	18	n/a	n/a	n/a	30	12	2	3	7
3945374	PROB	n/a	LTP343	ltpFR2	18	n/a	n/a	n/a	30	13	7	5	1
3946591	PROB	n/a	LTP343	ltpFR2	18	n/a	n/a	n/a	30	8	3	1	4
3947774	PROB	n/a	LTP343	ltpFR2	18	n/a	n/a	n/a	30	16	4	5	7
3949054	STOP	n/a	LTP343	ltpFR2	18	n/a	n/a	n/a	30	n/a	n/a	n/a	n/a
3950473	WORD	wordpools/wasnorm_wordpool_576.txt	LTP343	ltpFR2	18	20	WAITER	1580	n/a	n/a	0	0	0
3953188	WORD	wordpools/wasnorm_wordpool_576.txt	LTP343	ltpFR2	18	20	TEACHER	1440	n/a	n/a	0	0	0
3955721	WORD	wordpools/wasnorm_wordpool_576.txt	LTP343	ltpFR2	18	20	COURSE	390	n/a	n/a	0	0	0
3958268	WORD	wordpools/wasnorm_wordpool_576.txt	LTP343	ltpFR2	18	20	BOYFRIEND	162	n/a	n/a	0	0	0
3960935	WORD	wordpools/wasnorm_wordpool_576.txt	LTP343	ltpFR2	18	20	PARTNER	1017	n/a	n/a	0	0	0
3963700	WORD	wordpools/wasnorm_wordpool_576.txt	LTP343	ltpFR2	18	20	PORTRAIT	1111	n/a	n/a	0	0	0
3966132	WORD	wordpools/wasnorm_wordpool_576.txt	LTP343	ltpFR2	18	20	DRUG	501	n/a	n/a	0	0	0
3968598	WORD	wordpools/wasnorm_wordpool_576.txt	LTP343	ltpFR2	18	20	AIRPLANE	12	n/a	n/a	0	0	0
3971164	WORD	wordpools/wasnorm_wordpool_576.txt	LTP343	ltpFR2	18	20	SHERIFF	1284	n/a	n/a	0	0	0
3973712	WORD	wordpools/wasnorm_wordpool_576.txt	LTP343	ltpFR2	18	20	LADY	794	n/a	n/a	0	0	0
3976461	WORD	wordpools/wasnorm_wordpool_576.txt	LTP343	ltpFR2	18	20	GALLON	618	n/a	n/a	0	0	0
3978927	WORD	wordpools/wasnorm_wordpool_576.txt	LTP343	ltpFR2	18	20	LACE	792	n/a	n/a	0	0	0
3981408	WORD	wordpools/wasnorm_wordpool_576.txt	LTP343	ltpFR2	18	20	WORKER	1621	n/a	n/a	0	0	0
3984108	WORD	wordpools/wasnorm_wordpool_576.txt	LTP343	ltpFR2	18	20	HUMAN	726	n/a	n/a	0	0	0
3986723	WORD	wordpools/wasnorm_wordpool_576.txt	LTP343	ltpFR2	18	20	FOOT	590	n/a	n/a	0	0	0
3989388	WORD	wordpools/wasnorm_wordpool_576.txt	LTP343	ltpFR2	18	20	CAFE	216	n/a	n/a	0	0	0
3992104	WORD	wordpools/wasnorm_wordpool_576.txt	LTP343	ltpFR2	18	20	RUG	1215	n/a	n/a	0	0	0
3994819	WORD	wordpools/wasnorm_wordpool_576.txt	LTP343	ltpFR2	18	20	APPLE	33	n/a	n/a	0	0	0
3997334	WORD	wordpools/wasnorm_wordpool_576.txt	LTP343	ltpFR2	18	20	CEILING	265	n/a	n/a	0	0	0
4000117	WORD	wordpools/wasnorm_wordpool_576.txt	LTP343	ltpFR2	18	20	TILE	1468	n/a	n/a	0	0	0
4002849	WORD	wordpools/wasnorm_wordpool_576.txt	LTP343	ltpFR2	18	20	PICTURE	1061	n/a	n/a	0	0	0
4005481	WORD	wordpools/wasnorm_wordpool_576.txt	LTP343	ltpFR2	18	20	VIKING	1565	n/a	n/a	0	0	0
4008279	WORD	wordpools/wasnorm_wordpool_576.txt	LTP343	ltpFR2	18	20	PECAN	1036	n/a	n/a	0	0	0
4010812	WORD	wordpools/wasnorm_wordpool_576.txt	LTP343	ltpFR2	18	20	BLOCKADE	137	n/a	n/a	0	0	0
4012427	START	n/a	LTP343	ltpFR2	18	n/a	n/a	n/a	31	n/a	n/a	n/a	n/a
4013366	DISTRACTOR	n/a	LTP343	ltpFR2	18	20	n/a	n/a	n/a	n/a	0	0	0
4013377	PROB	n/a	LTP343	ltpFR2	18	n/a	n/a	n/a	31	11	4	3	4
4015293	PROB	n/a	LTP343	ltpFR2	18	n/a	n/a	n/a	31	12	6	3	3
4016493	PROB	n/a	LTP343	ltpFR2	18	n/a	n/a	n/a	31	17	8	8	1
4017942	PROB	n/a	LTP343	ltpFR2	18	n/a	n/a	n/a	31	18	5	9	4
4019025	PROB	n/a	LTP343	ltpFR2	18	n/a	n/a	n/a	31	14	9	1	4
4020374	PROB	n/a	LTP343	ltpFR2	18	n/a	n/a	n/a	31	26	9	8	9
4024255	PROB	n/a	LTP343	ltpFR2	18	n/a	n/a	n/a	31	17	8	6	3
4026388	PROB	n/a	LTP343	ltpFR2	18	n/a	n/a	n/a	31	8	4	3	1
4027320	PROB	n/a	LTP343	ltpFR2	18	n/a	n/a	n/a	31	11	4	1	6
4029203	PROB	n/a	LTP343	ltpFR2	18	n/a	n/a	n/a	31	12	1	5	6
4030620	PROB	n/a	LTP343	ltpFR2	18	n/a	n/a	n/a	31	15	6	7	2
4032052	PROB	n/a	LTP343	ltpFR2	18	n/a	n/a	n/a	31	17	8	1	8
4033351	PROB	n/a	LTP343	ltpFR2	18	n/a	n/a	n/a	31	25	8	8	7
4035295	STOP	n/a	LTP343	ltpFR2	18	n/a	n/a	n/a	31	n/a	n/a	n/a	n/a
4038366	REC_START	n/a	LTP343	ltpFR2	18	20	n/a	n/a	n/a	n/a	0	0	0
4038769	REC_WORD	wordpools/wasnorm_wordpool_576.txt	LTP343	ltpFR2	18	20	VIKING	1565	n/a	n/a	0	0	0
4039479	REC_WORD	wordpools/wasnorm_wordpool_576.txt	LTP343	ltpFR2	18	20	PECAN	1036	n/a	n/a	0	0	0
4041546	REC_WORD	wordpools/wasnorm_wordpool_576.txt	LTP343	ltpFR2	18	20	BLOCKADE	137	n/a	n/a	0	0	0
4043017	REC_WORD	wordpools/wasnorm_wordpool_576.txt	LTP343	ltpFR2	18	20	CAFE	216	n/a	n/a	0	0	0
4043780	REC_WORD_VV	wordpools/wasnorm_wordpool_576.txt	LTP343	ltpFR2	18	20	<>	-1	n/a	n/a	0	0	0
4043820	REC_WORD	wordpools/wasnorm_wordpool_576.txt	LTP343	ltpFR2	18	20	RUG	1215	n/a	n/a	0	0	0
4044622	REC_WORD	wordpools/wasnorm_wordpool_576.txt	LTP343	ltpFR2	18	20	CEILING	265	n/a	n/a	0	0	0
4045481	REC_WORD	wordpools/wasnorm_wordpool_576.txt	LTP343	ltpFR2	18	20	TILE	1468	n/a	n/a	0	0	0
4046616	REC_WORD	wordpools/wasnorm_wordpool_576.txt	LTP343	ltpFR2	18	20	PICTURE	1061	n/a	n/a	0	0	0
4047598	REC_WORD	wordpools/wasnorm_wordpool_576.txt	LTP343	ltpFR2	18	20	PORTRAIT	1111	n/a	n/a	0	0	0
4049856	REC_WORD	wordpools/wasnorm_wordpool_576.txt	LTP343	ltpFR2	18	20	TILE	1468	n/a	n/a	0	0	0
4055970	REC_WORD	wordpools/wasnorm_wordpool_576.txt	LTP343	ltpFR2	18	20	WOMAN	1620	n/a	n/a	0	0	0
4057627	REC_WORD	wordpools/wasnorm_wordpool_576.txt	LTP343	ltpFR2	18	20	LADY	794	n/a	n/a	0	0	0
4058455	REC_WORD	wordpools/wasnorm_wordpool_576.txt	LTP343	ltpFR2	18	20	WORKER	1621	n/a	n/a	0	0	0
4061316	REC_WORD	wordpools/wasnorm_wordpool_576.txt	LTP343	ltpFR2	18	20	SHERIFF	1284	n/a	n/a	0	0	0
4062620	REC_WORD	wordpools/wasnorm_wordpool_576.txt	LTP343	ltpFR2	18	20	HUMAN	726	n/a	n/a	0	0	0
4066264	REC_WORD	wordpools/wasnorm_wordpool_576.txt	LTP343	ltpFR2	18	20	LACE	792	n/a	n/a	0	0	0
4070408	REC_WORD	wordpools/wasnorm_wordpool_576.txt	LTP343	ltpFR2	18	20	APPLE	33	n/a	n/a	0	0	0
4071547	REC_WORD	wordpools/wasnorm_wordpool_576.txt	LTP343	ltpFR2	18	20	GALLON	618	n/a	n/a	0	0	0
4078205	REC_WORD	wordpools/wasnorm_wordpool_576.txt	LTP343	ltpFR2	18	20	AIRPLANE	12	n/a	n/a	0	0	0
4083398	REC_WORD	wordpools/wasnorm_wordpool_576.txt	LTP343	ltpFR2	18	20	BOYFRIEND	162	n/a	n/a	0	0	0
4084274	REC_WORD	wordpools/wasnorm_wordpool_576.txt	LTP343	ltpFR2	18	20	PARTNER	1017	n/a	n/a	0	0	0
4085148	REC_WORD	wordpools/wasnorm_wordpool_576.txt	LTP343	ltpFR2	18	20	TEACHER	1440	n/a	n/a	0	0	0
4128808	WORD	wordpools/wasnorm_wordpool_576.txt	LTP343	ltpFR2	18	21	HOSTESS	723	n/a	n/a	0	0	0
4131491	WORD	wordpools/wasnorm_wordpool_576.txt	LTP343	ltpFR2	18	21	LOFT	840	n/a	n/a	0	0	0
4133973	WORD	wordpools/wasnorm_wordpool_576.txt	LTP343	ltpFR2	18	21	DORM	488	n/a	n/a	0	0	0
4136772	WORD	wordpools/wasnorm_wordpool_576.txt	LTP343	ltpFR2	18	21	BROTHER	179	n/a	n/a	0	0	0
4139504	WORD	wordpools/wasnorm_wordpool_576.txt	LTP343	ltpFR2	18	21	BANKER	84	n/a	n/a	0	0	0
4142103	WORD	wordpools/wasnorm_wordpool_576.txt	LTP343	ltpFR2	18	21	DIME	466	n/a	n/a	0	0	0
4144535	WORD	wordpools/wasnorm_wordpool_576.txt	LTP343	ltpFR2	18	21	SALAD	1224	n/a	n/a	0	0	0
4147084	WORD	wordpools/wasnorm_wordpool_576.txt	LTP343	ltpFR2	18	21	LUNCH	849	n/a	n/a	0	0	0
4149649	WORD	wordpools/wasnorm_wordpool_576.txt	LTP343	ltpFR2	18	21	COUSIN	392	n/a	n/a	0	0	0
4152115	WORD	wordpools/wasnorm_wordpool_576.txt	LTP343	ltpFR2	18	21	GAVEL	627	n/a	n/a	0	0	0
4154747	WORD	wordpools/wasnorm_wordpool_576.txt	LTP343	ltpFR2	18	21	JAPAN	749	n/a	n/a	0	0	0
4157411	WORD	wordpools/wasnorm_wordpool_576.txt	LTP343	ltpFR2	18	21	SWAMP	1416	n/a	n/a	0	0	0
4160111	WORD	wordpools/wasnorm_wordpool_576.txt	LTP343	ltpFR2	18	21	BEAST	108	n/a	n/a	0	0	0
4162876	WORD	wordpools/wasnorm_wordpool_576.txt	LTP343	ltpFR2	18	21	CARROT	249	n/a	n/a	0	0	0
4165525	WORD	wordpools/wasnorm_wordpool_576.txt	LTP343	ltpFR2	18	21	CLAMP	316	n/a	n/a	0	0	0
4168356	WORD	wordpools/wasnorm_wordpool_576.txt	LTP343	ltpFR2	18	21	BLENDER	136	n/a	n/a	0	0	0
4171173	WORD	wordpools/wasnorm_wordpool_576.txt	LTP343	ltpFR2	18	21	SPOON	1357	n/a	n/a	0	0	0
4173705	WORD	wordpools/wasnorm_wordpool_576.txt	LTP343	ltpFR2	18	21	PAIL	1002	n/a	n/a	0	0	0
4176170	WORD	wordpools/wasnorm_wordpool_576.txt	LTP343	ltpFR2	18	21	UNCLE	1536	n/a	n/a	0	0	0
4178703	WORD	wordpools/wasnorm_wordpool_576.txt	LTP343	ltpFR2	18	21	BOUQUET	157	n/a	n/a	0	0	0
4181317	WORD	wordpools/wasnorm_wordpool_576.txt	LTP343	ltpFR2	18	21	STOVE	1388	n/a	n/a	0	0	0
4183967	WORD	wordpools/wasnorm_wordpool_576.txt	LTP343	ltpFR2	18	21	ATOM	55	n/a	n/a	0	0	0
4186582	WORD	wordpools/wasnorm_wordpool_576.txt	LTP343	ltpFR2	18	21	NEUTRON	947	n/a	n/a	0	0	0
4189114	WORD	wordpools/wasnorm_wordpool_576.txt	LTP343	ltpFR2	18	21	ANTLER	29	n/a	n/a	0	0	0
4190731	START	n/a	LTP343	ltpFR2	18	n/a	n/a	n/a	32	n/a	n/a	n/a	n/a
4191656	DISTRACTOR	n/a	LTP343	ltpFR2	18	21	n/a	n/a	n/a	n/a	0	0	0
4191663	PROB	n/a	LTP343	ltpFR2	18	n/a	n/a	n/a	32	19	5	9	5
4193096	PROB	n/a	LTP343	ltpFR2	18	n/a	n/a	n/a	32	19	3	8	8
4194344	PROB	n/a	LTP343	ltpFR2	18	n/a	n/a	n/a	32	21	8	5	8
4197028	PROB	n/a	LTP343	ltpFR2	18	n/a	n/a	n/a	32	8	3	1	4
4198359	PROB	n/a	LTP343	ltpFR2	18	n/a	n/a	n/a	32	16	5	2	9
4200258	PROB	n/a	LTP343	ltpFR2	18	n/a	n/a	n/a	32	20	3	8	9
4201575	PROB	n/a	LTP343	ltpFR2	18	n/a	n/a	n/a	32	14	2	8	4
4202708	PROB	n/a	LTP343	ltpFR2	18	n/a	n/a	n/a	32	24	6	9	9
4204158	PROB	n/a	LTP343	ltpFR2	18	n/a	n/a	n/a	32	10	1	1	8
4205273	PROB	n/a	LTP343	ltpFR2	18	n/a	n/a	n/a	32	10	1	3	6
4206673	PROB	n/a	LTP343	ltpFR2	18	n/a	n/a	n/a	32	10	1	6	2
4208839	PROB	n/a	LTP343	ltpFR2	18	n/a	n/a	n/a	32	14	6	3	5
4210420	PROB	n/a	LTP343	ltpFR2	18	n/a	n/a	n/a	32	16	5	9	2
4212220	PROB	n/a	LTP343	ltpFR2	18	n/a	n/a	n/a	32	11	2	8	1
4213413	STOP	n/a	LTP343	ltpFR2	18	n/a	n/a	n/a	32	n/a	n/a	n/a	n/a
4216586	REC_START	n/a	LTP343	ltpFR2	18	21	n/a	n/a	n/a	n/a	0	0	0
4216897	REC_WORD	wordpools/wasnorm_wordpool_576.txt	LTP343	ltpFR2	18	21	STOVE	1388	n/a	n/a	0	0	0
