mstime	trial_type	stim_file	subject	experiment	session	trial	task	item_name	item_num	recog_resp	recog_conf	resp	color_r	color_g	color_b	case	font
0	SESS_START	n/a	LTP278	ltpFR	17	n/a	n/a	n/a	n/a	1	4	n/a	n/a	n/a	n/a	n/a	n/a
23678	WORD	wordpools/wasnorm_wordpool_less_exclusions.txt	LTP278	ltpFR	17	1	1	SHORTCAKE	1292	0	n/a	0	0.422607421875	0.5869140625	0	lower	zerothre.ttf
27855	WORD	wordpools/wasnorm_wordpool_less_exclusions.txt	LTP278	ltpFR	17	1	1	LAWN	805	n/a	n/a	0	0.422607421875	0.5869140625	0	lower	zerothre.ttf
32032	WORD	wordpools/wasnorm_wordpool_less_exclusions.txt	LTP278	ltpFR	17	1	0	WEED	1599	n/a	n/a	0	0.57763671875	0.412841796875	1	upper	amplitud.ttf
36076	WORD	wordpools/wasnorm_wordpool_less_exclusions.txt	LTP278	ltpFR	17	1	0	ROCK	1201	n/a	n/a	0	0.57763671875	0.412841796875	1	upper	amplitud.ttf
40037	WORD	wordpools/wasnorm_wordpool_less_exclusions.txt	LTP278	ltpFR	17	1	0	TAPE	1433	n/a	n/a	0	0.57763671875	0.412841796875	1	upper	amplitud.ttf
43864	WORD	wordpools/wasnorm_wordpool_less_exclusions.txt	LTP278	ltpFR	17	1	0	IDOL	733	n/a	n/a	0	0.57763671875	0.412841796875	1	upper	amplitud.ttf
47942	WORD	wordpools/wasnorm_wordpool_less_exclusions.txt	LTP278	ltpFR	17	1	0	COW	393	n/a	n/a	1	0.57763671875	0.412841796875	1	upper	amplitud.ttf
51836	WORD	wordpools/wasnorm_wordpool_less_exclusions.txt	LTP278	ltpFR	17	1	0	PASTRY	1022	n/a	n/a	0	0.57763671875	0.412841796875	1	upper	amplitud.ttf
55896	WORD	wordpools/wasnorm_wordpool_less_exclusions.txt	LTP278	ltpFR	17	1	1	SCAPEGOAT	1244	n/a	n/a	0	0.422607421875	0.5869140625	0	lower	zerothre.ttf
59757	WORD	wordpools/wasnorm_wordpool_less_exclusions.txt	LTP278	ltpFR	17	1	1	ORCHID	982	n/a	n/a	0	0.422607421875	0.5869140625	0	lower	zerothre.ttf
63701	WORD	wordpools/wasnorm_wordpool_less_exclusions.txt	LTP278	ltpFR	17	1	1	HAYSTACK	694	n/a	n/a	0	0.422607421875	0.5869140625	0	lower	zerothre.ttf
67795	WORD	wordpools/wasnorm_wordpool_less_exclusions.txt	LTP278	ltpFR	17	1	1	STRANGER	1389	n/a	n/a	1	0.422607421875	0.5869140625	0	lower	zerothre.ttf
71873	WORD	wordpools/wasnorm_wordpool_less_exclusions.txt	LTP278	ltpFR	17	1	0	PIER	1063	n/a	n/a	0	0.57763671875	0.412841796875	1	upper	amplitud.ttf
75833	WORD	wordpools/wasnorm_wordpool_less_exclusions.txt	LTP278	ltpFR	17	1	0	PATH	1023	n/a	n/a	0	0.57763671875	0.412841796875	1	upper	amplitud.ttf
79727	WORD	wordpools/wasnorm_wordpool_less_exclusions.txt	LTP278	ltpFR	17	1	1	PASSAGE	1019	n/a	n/a	0	0.422607421875	0.5869140625	0	lower	zerothre.ttf
83788	WORD	wordpools/wasnorm_wordpool_less_exclusions.txt	LTP278	ltpFR	17	1	1	LILY	821	n/a	n/a	1	0.422607421875	0.5869140625	0	lower	zerothre.ttf
89813	REC_START	n/a	LTP278	ltpFR	17	1	n/a	n/a	n/a	n/a	n/a	n/a	n/a	n/a	n/a	n/a	n/a
92550	REC_WORD	wordpools/wasnorm_wordpool_less_exclusions.txt	LTP278	ltpFR	17	1	1	SHORTCAKE	1292	n/a	n/a	0	n/a	n/a	n/a	n/a	n/a
93863	REC_WORD	wordpools/wasnorm_wordpool_less_exclusions.txt	LTP278	ltpFR	17	1	1	LAWN	805	n/a	n/a	0	n/a	n/a	n/a	n/a	n/a
97633	REC_WORD	wordpools/wasnorm_wordpool_less_exclusions.txt	LTP278	ltpFR	17	1	0	ROCK	1201	n/a	n/a	0	n/a	n/a	n/a	n/a	n/a
98446	REC_WORD	wordpools/wasnorm_wordpool_less_exclusions.txt	LTP278	ltpFR	17	1	0	WEED	1599	n/a	n/a	0	n/a	n/a	n/a	n/a	n/a
99359	REC_WORD	wordpools/wasnorm_wordpool_less_exclusions.txt	LTP278	ltpFR	17	1	0	TAPE	1433	n/a	n/a	0	n/a	n/a	n/a	n/a	n/a
100335	REC_WORD	wordpools/wasnorm_wordpool_less_exclusions.txt	LTP278	ltpFR	17	1	0	COW	393	n/a	n/a	1	n/a	n/a	n/a	n/a	n/a
101544	REC_WORD	wordpools/wasnorm_wordpool_less_exclusions.txt	LTP278	ltpFR	17	1	0	IDOL	733	n/a	n/a	0	n/a	n/a	n/a	n/a	n/a
102834	REC_WORD	wordpools/wasnorm_wordpool_less_exclusions.txt	LTP278	ltpFR	17	1	1	SCAPEGOAT	1244	n/a	n/a	0	n/a	n/a	n/a	n/a	n/a
106273	REC_WORD	wordpools/wasnorm_wordpool_less_exclusions.txt	LTP278	ltpFR	17	1	1	LILY	821	n/a	n/a	1	n/a	n/a	n/a	n/a	n/a
107450	REC_WORD	wordpools/wasnorm_wordpool_less_exclusions.txt	LTP278	ltpFR	17	1	1	HAYSTACK	694	n/a	n/a	0	n/a	n/a	n/a	n/a	n/a
108731	REC_WORD	wordpools/wasnorm_wordpool_less_exclusions.txt	LTP278	ltpFR	17	1	1	ORCHID	982	n/a	n/a	0	n/a	n/a	n/a	n/a	n/a
110147	REC_WORD	wordpools/wasnorm_wordpool_less_exclusions.txt	LTP278	ltpFR	17	1	n/a	PIE	1062	n/a	n/a	n/a	n/a	n/a	n/a	n/a	n/a
111207	REC_WORD	wordpools/wasnorm_wordpool_less_exclusions.txt	LTP278	ltpFR	17	1	0	PATH	1023	n/a	n/a	0	n/a	n/a	n/a	n/a	n/a
112221	REC_WORD	wordpools/wasnorm_wordpool_less_exclusions.txt	LTP278	ltpFR	17	1	1	PASSAGE	1019	n/a	n/a	0	n/a	n/a	n/a	n/a	n/a
169527	WORD	wordpools/wasnorm_wordpool_less_exclusions.txt	LTP278	ltpFR	17	2	0	SISTER	1312	n/a	n/a	1	0.57763671875	0.412841796875	1	upper	amplitud.ttf
173754	WORD	wordpools/wasnorm_wordpool_less_exclusions.txt	LTP278	ltpFR	17	2	0	SNORKEL	1336	n/a	n/a	0	0.57763671875	0.412841796875	1	upper	amplitud.ttf
177748	WORD	wordpools/wasnorm_wordpool_less_exclusions.txt	LTP278	ltpFR	17	2	1	PERSONNEL	1053	n/a	n/a	0	0.422607421875	0.5869140625	0	lower	zerothre.ttf
181775	WORD	wordpools/wasnorm_wordpool_less_exclusions.txt	LTP278	ltpFR	17	2	1	CAFE	216	n/a	n/a	0	0.422607421875	0.5869140625	0	lower	zerothre.ttf
185619	WORD	wordpools/wasnorm_wordpool_less_exclusions.txt	LTP278	ltpFR	17	2	0	KITCHEN	778	n/a	n/a	1	0.57763671875	0.412841796875	1	upper	amplitud.ttf
189613	WORD	wordpools/wasnorm_wordpool_less_exclusions.txt	LTP278	ltpFR	17	2	0	MONEY	908	n/a	n/a	0	0.57763671875	0.412841796875	1	upper	amplitud.ttf
193674	WORD	wordpools/wasnorm_wordpool_less_exclusions.txt	LTP278	ltpFR	17	2	0	EMPLOYEE	531	n/a	n/a	1	0.57763671875	0.412841796875	1	upper	amplitud.ttf
197535	WORD	wordpools/wasnorm_wordpool_less_exclusions.txt	LTP278	ltpFR	17	2	1	LUNG	850	n/a	n/a	1	0.422607421875	0.5869140625	0	lower	zerothre.ttf
201479	WORD	wordpools/wasnorm_wordpool_less_exclusions.txt	LTP278	ltpFR	17	2	1	BROTHER	179	n/a	n/a	1	0.422607421875	0.5869140625	0	lower	zerothre.ttf
205623	WORD	wordpools/wasnorm_wordpool_less_exclusions.txt	LTP278	ltpFR	17	2	1	TORCH	1484	n/a	n/a	0	0.422607421875	0.5869140625	0	lower	zerothre.ttf
209800	WORD	wordpools/wasnorm_wordpool_less_exclusions.txt	LTP278	ltpFR	17	2	1	PLANET	1082	n/a	n/a	1	0.422607421875	0.5869140625	0	lower	zerothre.ttf
213761	WORD	wordpools/wasnorm_wordpool_less_exclusions.txt	LTP278	ltpFR	17	2	1	JOKER	759	n/a	n/a	1	0.422607421875	0.5869140625	0	lower	zerothre.ttf
217855	WORD	wordpools/wasnorm_wordpool_less_exclusions.txt	LTP278	ltpFR	17	2	1	BALLOON	75	n/a	n/a	0	0.422607421875	0.5869140625	0	lower	zerothre.ttf
221765	WORD	wordpools/wasnorm_wordpool_less_exclusions.txt	LTP278	ltpFR	17	2	0	SHELL	1281	n/a	n/a	0	0.57763671875	0.412841796875	1	upper	amplitud.ttf
225843	WORD	wordpools/wasnorm_wordpool_less_exclusions.txt	LTP278	ltpFR	17	2	0	ATOM	55	n/a	n/a	0	0.57763671875	0.412841796875	1	upper	amplitud.ttf
230036	WORD	wordpools/wasnorm_wordpool_less_exclusions.txt	LTP278	ltpFR	17	2	0	NEUTRON	947	n/a	n/a	0	0.57763671875	0.412841796875	1	upper	amplitud.ttf
235712	REC_START	n/a	LTP278	ltpFR	17	2	n/a	n/a	n/a	n/a	n/a	n/a	n/a	n/a	n/a	n/a	n/a
238779	REC_WORD	wordpools/wasnorm_wordpool_less_exclusions.txt	LTP278	ltpFR	17	2	0	SISTER	1312	n/a	n/a	1	n/a	n/a	n/a	n/a	n/a
239709	REC_WORD	wordpools/wasnorm_wordpool_less_exclusions.txt	LTP278	ltpFR	17	2	0	SNORKEL	1336	n/a	n/a	0	n/a	n/a	n/a	n/a	n/a
241510	REC_WORD	wordpools/wasnorm_wordpool_less_exclusions.txt	LTP278	ltpFR	17	2	1	PERSONNEL	1053	n/a	n/a	0	n/a	n/a	n/a	n/a	n/a
243186	REC_WORD	wordpools/wasnorm_wordpool_less_exclusions.txt	LTP278	ltpFR	17	2	1	CAFE	216	n/a	n/a	0	n/a	n/a	n/a	n/a	n/a
247966	REC_WORD	wordpools/wasnorm_wordpool_less_exclusions.txt	LTP278	ltpFR	17	2	0	ATOM	55	n/a	n/a	0	n/a	n/a	n/a	n/a	n/a
248307	REC_WORD	wordpools/wasnorm_wordpool_less_exclusions.txt	LTP278	ltpFR	17	2	0	NEUTRON	947	n/a	n/a	0	n/a	n/a	n/a	n/a	n/a
248911	REC_WORD	wordpools/wasnorm_wordpool_less_exclusions.txt	LTP278	ltpFR	17	2	1	BROTHER	179	n/a	n/a	1	n/a	n/a	n/a	n/a	n/a
249298	REC_WORD	wordpools/wasnorm_wordpool_less_exclusions.txt	LTP278	ltpFR	17	2	1	LUNG	850	n/a	n/a	1	n/a	n/a	n/a	n/a	n/a
255027	REC_WORD	wordpools/wasnorm_wordpool_less_exclusions.txt	LTP278	ltpFR	17	2	1	TORCH	1484	n/a	n/a	0	n/a	n/a	n/a	n/a	n/a
256450	REC_WORD	wordpools/wasnorm_wordpool_less_exclusions.txt	LTP278	ltpFR	17	2	1	JOKER	759	n/a	n/a	1	n/a	n/a	n/a	n/a	n/a
262786	REC_WORD	wordpools/wasnorm_wordpool_less_exclusions.txt	LTP278	ltpFR	17	2	1	PLANET	1082	n/a	n/a	1	n/a	n/a	n/a	n/a	n/a
313795	WORD	wordpools/wasnorm_wordpool_less_exclusions.txt	LTP278	ltpFR	17	3	0	DICE	461	n/a	n/a	0	0.57763671875	0.412841796875	1	upper	amplitud.ttf
317872	WORD	wordpools/wasnorm_wordpool_less_exclusions.txt	LTP278	ltpFR	17	3	0	BEAVER	109	n/a	n/a	1	0.57763671875	0.412841796875	1	upper	amplitud.ttf
321749	WORD	wordpools/wasnorm_wordpool_less_exclusions.txt	LTP278	ltpFR	17	3	0	PORCUPINE	1107	n/a	n/a	1	0.57763671875	0.412841796875	1	upper	amplitud.ttf
325694	WORD	wordpools/wasnorm_wordpool_less_exclusions.txt	LTP278	ltpFR	17	3	0	DOVE	491	n/a	n/a	0	0.57763671875	0.412841796875	1	upper	amplitud.ttf
329538	WORD	wordpools/wasnorm_wordpool_less_exclusions.txt	LTP278	ltpFR	17	3	0	EAGLE	512	n/a	n/a	1	0.57763671875	0.412841796875	1	upper	amplitud.ttf
333466	WORD	wordpools/wasnorm_wordpool_less_exclusions.txt	LTP278	ltpFR	17	3	0	CYLINDER	432	n/a	n/a	0	0.57763671875	0.412841796875	1	upper	amplitud.ttf
337427	WORD	wordpools/wasnorm_wordpool_less_exclusions.txt	LTP278	ltpFR	17	3	0	TIE	1466	n/a	n/a	0	0.57763671875	0.412841796875	1	upper	amplitud.ttf
341586	WORD	wordpools/wasnorm_wordpool_less_exclusions.txt	LTP278	ltpFR	17	3	0	PRIMATE	1123	n/a	n/a	0	0.57763671875	0.412841796875	1	upper	amplitud.ttf
345664	WORD	wordpools/wasnorm_wordpool_less_exclusions.txt	LTP278	ltpFR	17	3	0	MUFFIN	929	n/a	n/a	0	0.57763671875	0.412841796875	1	upper	amplitud.ttf
349674	WORD	wordpools/wasnorm_wordpool_less_exclusions.txt	LTP278	ltpFR	17	3	0	STOVE	1388	n/a	n/a	2	0.57763671875	0.412841796875	1	upper	amplitud.ttf
351671	KEY_MSG	n/a	LTP278	ltpFR	17	3	n/a	n/a	n/a	n/a	n/a	n/a	n/a	n/a	n/a	n/a	n/a
354334	WORD	wordpools/wasnorm_wordpool_less_exclusions.txt	LTP278	ltpFR	17	3	0	MARSH	874	n/a	n/a	0	0.57763671875	0.412841796875	1	upper	amplitud.ttf
358178	WORD	wordpools/wasnorm_wordpool_less_exclusions.txt	LTP278	ltpFR	17	3	0	COAT	333	n/a	n/a	0	0.57763671875	0.412841796875	1	upper	amplitud.ttf
362389	WORD	wordpools/wasnorm_wordpool_less_exclusions.txt	LTP278	ltpFR	17	3	0	STAPLE	1371	n/a	n/a	0	0.57763671875	0.412841796875	1	upper	amplitud.ttf
366566	WORD	wordpools/wasnorm_wordpool_less_exclusions.txt	LTP278	ltpFR	17	3	0	CANAL	226	n/a	n/a	0	0.57763671875	0.412841796875	1	upper	amplitud.ttf
370693	WORD	wordpools/wasnorm_wordpool_less_exclusions.txt	LTP278	ltpFR	17	3	0	FLANNEL	574	n/a	n/a	0	0.57763671875	0.412841796875	1	upper	amplitud.ttf
374754	WORD	wordpools/wasnorm_wordpool_less_exclusions.txt	LTP278	ltpFR	17	3	0	CARD	243	n/a	n/a	0	0.57763671875	0.412841796875	1	upper	amplitud.ttf
380529	REC_START	n/a	LTP278	ltpFR	17	3	n/a	n/a	n/a	n/a	n/a	n/a	n/a	n/a	n/a	n/a	n/a
382162	REC_WORD	wordpools/wasnorm_wordpool_less_exclusions.txt	LTP278	ltpFR	17	3	0	BEAVER	109	n/a	n/a	1	n/a	n/a	n/a	n/a	n/a
382806	REC_WORD	wordpools/wasnorm_wordpool_less_exclusions.txt	LTP278	ltpFR	17	3	0	DICE	461	n/a	n/a	0	n/a	n/a	n/a	n/a	n/a
383410	REC_WORD	wordpools/wasnorm_wordpool_less_exclusions.txt	LTP278	ltpFR	17	3	0	PORCUPINE	1107	n/a	n/a	1	n/a	n/a	n/a	n/a	n/a
384221	REC_WORD	wordpools/wasnorm_wordpool_less_exclusions.txt	LTP278	ltpFR	17	3	0	DOVE	491	n/a	n/a	0	n/a	n/a	n/a	n/a	n/a
384820	REC_WORD	wordpools/wasnorm_wordpool_less_exclusions.txt	LTP278	ltpFR	17	3	0	EAGLE	512	n/a	n/a	1	n/a	n/a	n/a	n/a	n/a
386448	REC_WORD	wordpools/wasnorm_wordpool_less_exclusions.txt	LTP278	ltpFR	17	3	0	MARSH	874	n/a	n/a	0	n/a	n/a	n/a	n/a	n/a
387284	REC_WORD	wordpools/wasnorm_wordpool_less_exclusions.txt	LTP278	ltpFR	17	3	0	CANAL	226	n/a	n/a	0	n/a	n/a	n/a	n/a	n/a
388167	REC_WORD	wordpools/wasnorm_wordpool_less_exclusions.txt	LTP278	ltpFR	17	3	0	FLANNEL	574	n/a	n/a	0	n/a	n/a	n/a	n/a	n/a
391587	REC_WORD	wordpools/wasnorm_wordpool_less_exclusions.txt	LTP278	ltpFR	17	3	0	COAT	333	n/a	n/a	0	n/a	n/a	n/a	n/a	n/a
393397	REC_WORD	wordpools/wasnorm_wordpool_less_exclusions.txt	LTP278	ltpFR	17	3	0	STAPLE	1371	n/a	n/a	0	n/a	n/a	n/a	n/a	n/a
398845	REC_WORD	wordpools/wasnorm_wordpool_less_exclusions.txt	LTP278	ltpFR	17	3	0	CARD	243	n/a	n/a	0	n/a	n/a	n/a	n/a	n/a
459594	WORD	wordpools/wasnorm_wordpool_less_exclusions.txt	LTP278	ltpFR	17	4	0	TWEEZERS	1526	n/a	n/a	0	0.57763671875	0.412841796875	1	upper	amplitud.ttf
463721	WORD	wordpools/wasnorm_wordpool_less_exclusions.txt	LTP278	ltpFR	17	4	0	MINK	897	n/a	n/a	0	0.57763671875	0.412841796875	1	upper	amplitud.ttf
467848	WORD	wordpools/wasnorm_wordpool_less_exclusions.txt	LTP278	ltpFR	17	4	0	VINEGAR	1569	n/a	n/a	0	0.57763671875	0.412841796875	1	upper	amplitud.ttf
471875	WORD	wordpools/wasnorm_wordpool_less_exclusions.txt	LTP278	ltpFR	17	4	0	MOTOR	922	n/a	n/a	1	0.57763671875	0.412841796875	1	upper	amplitud.ttf
476069	WORD	wordpools/wasnorm_wordpool_less_exclusions.txt	LTP278	ltpFR	17	4	0	AFRICA	9	n/a	n/a	1	0.57763671875	0.412841796875	1	upper	amplitud.ttf
480246	WORD	wordpools/wasnorm_wordpool_less_exclusions.txt	LTP278	ltpFR	17	4	0	OAR	966	n/a	n/a	0	0.57763671875	0.412841796875	1	upper	amplitud.ttf
484074	WORD	wordpools/wasnorm_wordpool_less_exclusions.txt	LTP278	ltpFR	17	4	0	TRUMPET	1513	n/a	n/a	0	0.57763671875	0.412841796875	1	upper	amplitud.ttf
488267	WORD	wordpools/wasnorm_wordpool_less_exclusions.txt	LTP278	ltpFR	17	4	0	DOG	480	n/a	n/a	0	0.57763671875	0.412841796875	1	upper	amplitud.ttf
492494	WORD	wordpools/wasnorm_wordpool_less_exclusions.txt	LTP278	ltpFR	17	4	0	MOUSE	925	n/a	n/a	1	0.57763671875	0.412841796875	1	upper	amplitud.ttf
496372	WORD	wordpools/wasnorm_wordpool_less_exclusions.txt	LTP278	ltpFR	17	4	0	JEEP	753	n/a	n/a	1	0.57763671875	0.412841796875	1	upper	amplitud.ttf
500283	WORD	wordpools/wasnorm_wordpool_less_exclusions.txt	LTP278	ltpFR	17	4	0	TRUCK	1512	n/a	n/a	0	0.57763671875	0.412841796875	1	upper	amplitud.ttf
504411	WORD	wordpools/wasnorm_wordpool_less_exclusions.txt	LTP278	ltpFR	17	4	0	ASIA	46	n/a	n/a	0	0.57763671875	0.412841796875	1	upper	amplitud.ttf
508337	WORD	wordpools/wasnorm_wordpool_less_exclusions.txt	LTP278	ltpFR	17	4	0	FACE	547	n/a	n/a	0	0.57763671875	0.412841796875	1	upper	amplitud.ttf
512449	WORD	wordpools/wasnorm_wordpool_less_exclusions.txt	LTP278	ltpFR	17	4	0	GOVERNOR	651	n/a	n/a	0	0.57763671875	0.412841796875	1	upper	amplitud.ttf
516443	WORD	wordpools/wasnorm_wordpool_less_exclusions.txt	LTP278	ltpFR	17	4	0	CLIPPERS	324	n/a	n/a	0	0.57763671875	0.412841796875	1	upper	amplitud.ttf
520286	WORD	wordpools/wasnorm_wordpool_less_exclusions.txt	LTP278	ltpFR	17	4	0	CRATER	400	n/a	n/a	0	0.57763671875	0.412841796875	1	upper	amplitud.ttf
525962	REC_START	n/a	LTP278	ltpFR	17	4	n/a	n/a	n/a	n/a	n/a	n/a	n/a	n/a	n/a	n/a	n/a
527674	REC_WORD	wordpools/wasnorm_wordpool_less_exclusions.txt	LTP278	ltpFR	17	4	0	GOVERNOR	651	n/a	n/a	0	n/a	n/a	n/a	n/a	n/a
528223	REC_WORD	wordpools/wasnorm_wordpool_less_exclusions.txt	LTP278	ltpFR	17	4	0	TWEEZERS	1526	n/a	n/a	0	n/a	n/a	n/a	n/a	n/a
528964	REC_WORD	wordpools/wasnorm_wordpool_less_exclusions.txt	LTP278	ltpFR	17	4	0	MINK	897	n/a	n/a	0	n/a	n/a	n/a	n/a	n/a
529612	REC_WORD	wordpools/wasnorm_wordpool_less_exclusions.txt	LTP278	ltpFR	17	4	0	VINEGAR	1569	n/a	n/a	0	n/a	n/a	n/a	n/a	n/a
604361	WORD	wordpools/wasnorm_wordpool_less_exclusions.txt	LTP278	ltpFR	17	5	0	MAYONNAISE	880	n/a	n/a	0	0.57763671875	0.412841796875	1	upper	amplitud.ttf
608355	WORD	wordpools/wasnorm_wordpool_less_exclusions.txt	LTP278	ltpFR	17	5	0	GLASS	639	n/a	n/a	1	0.57763671875	0.412841796875	1	upper	amplitud.ttf
612332	WORD	wordpools/wasnorm_wordpool_less_exclusions.txt	LTP278	ltpFR	17	5	0	MOSS	918	n/a	n/a	0	0.57763671875	0.412841796875	1	upper	amplitud.ttf
616293	WORD	wordpools/wasnorm_wordpool_less_exclusions.txt	LTP278	ltpFR	17	5	1	ELM	527	n/a	n/a	1	0.422607421875	0.5869140625	0	lower	zerothre.ttf
620370	WORD	wordpools/wasnorm_wordpool_less_exclusions.txt	LTP278	ltpFR	17	5	1	BARTENDER	92	n/a	n/a	1	0.422607421875	0.5869140625	0	lower	zerothre.ttf
624580	WORD	wordpools/wasnorm_wordpool_less_exclusions.txt	LTP278	ltpFR	17	5	0	SUN	1406	n/a	n/a	1	0.57763671875	0.412841796875	1	upper	amplitud.ttf
628409	WORD	wordpools/wasnorm_wordpool_less_exclusions.txt	LTP278	ltpFR	17	5	0	GOLD	647	n/a	n/a	0	0.57763671875	0.412841796875	1	upper	amplitud.ttf
632336	WORD	wordpools/wasnorm_wordpool_less_exclusions.txt	LTP278	ltpFR	17	5	0	KLEENEX	782	n/a	n/a	0	0.57763671875	0.412841796875	1	upper	amplitud.ttf
636330	WORD	wordpools/wasnorm_wordpool_less_exclusions.txt	LTP278	ltpFR	17	5	1	FRIES	607	n/a	n/a	0	0.422607421875	0.5869140625	0	lower	zerothre.ttf
640507	WORD	wordpools/wasnorm_wordpool_less_exclusions.txt	LTP278	ltpFR	17	5	1	LADY	794	n/a	n/a	1	0.422607421875	0.5869140625	0	lower	zerothre.ttf
644684	WORD	wordpools/wasnorm_wordpool_less_exclusions.txt	LTP278	ltpFR	17	5	1	BERRY	122	n/a	n/a	1	0.422607421875	0.5869140625	0	lower	zerothre.ttf
648695	WORD	wordpools/wasnorm_wordpool_less_exclusions.txt	LTP278	ltpFR	17	5	1	CAULIFLOWER	262	n/a	n/a	0	0.422607421875	0.5869140625	0	lower	zerothre.ttf
652805	WORD	wordpools/wasnorm_wordpool_less_exclusions.txt	LTP278	ltpFR	17	5	1	CAR	241	n/a	n/a	0	0.422607421875	0.5869140625	0	lower	zerothre.ttf
657015	WORD	wordpools/wasnorm_wordpool_less_exclusions.txt	LTP278	ltpFR	17	5	1	NOSE	957	n/a	n/a	0	0.422607421875	0.5869140625	0	lower	zerothre.ttf
660893	WORD	wordpools/wasnorm_wordpool_less_exclusions.txt	LTP278	ltpFR	17	5	0	MONK	910	n/a	n/a	1	0.57763671875	0.412841796875	1	upper	amplitud.ttf
665087	WORD	wordpools/wasnorm_wordpool_less_exclusions.txt	LTP278	ltpFR	17	5	0	TEMPLE	1448	n/a	n/a	0	0.57763671875	0.412841796875	1	upper	amplitud.ttf
670679	REC_START	n/a	LTP278	ltpFR	17	5	n/a	n/a	n/a	n/a	n/a	n/a	n/a	n/a	n/a	n/a	n/a
671727	REC_WORD	wordpools/wasnorm_wordpool_less_exclusions.txt	LTP278	ltpFR	17	5	1	LADY	794	n/a	n/a	1	n/a	n/a	n/a	n/a	n/a
672590	REC_WORD	wordpools/wasnorm_wordpool_less_exclusions.txt	LTP278	ltpFR	17	5	1	BERRY	122	n/a	n/a	1	n/a	n/a	n/a	n/a	n/a
673486	REC_WORD	wordpools/wasnorm_wordpool_less_exclusions.txt	LTP278	ltpFR	17	5	1	CAULIFLOWER	262	n/a	n/a	0	n/a	n/a	n/a	n/a	n/a
674138	REC_WORD	wordpools/wasnorm_wordpool_less_exclusions.txt	LTP278	ltpFR	17	5	1	NOSE	957	n/a	n/a	0	n/a	n/a	n/a	n/a	n/a
675164	REC_WORD	wordpools/wasnorm_wordpool_less_exclusions.txt	LTP278	ltpFR	17	5	0	TEMPLE	1448	n/a	n/a	0	n/a	n/a	n/a	n/a	n/a
675858	REC_WORD	wordpools/wasnorm_wordpool_less_exclusions.txt	LTP278	ltpFR	17	5	0	MONK	910	n/a	n/a	1	n/a	n/a	n/a	n/a	n/a
680017	REC_WORD	wordpools/wasnorm_wordpool_less_exclusions.txt	LTP278	ltpFR	17	5	1	BARTENDER	92	n/a	n/a	1	n/a	n/a	n/a	n/a	n/a
682239	REC_WORD	wordpools/wasnorm_wordpool_less_exclusions.txt	LTP278	ltpFR	17	5	0	MAYONNAISE	880	n/a	n/a	0	n/a	n/a	n/a	n/a	n/a
683239	REC_WORD_VV	wordpools/wasnorm_wordpool_less_exclusions.txt	LTP278	ltpFR	17	5	n/a	<>	-1	n/a	n/a	n/a	n/a	n/a	n/a	n/a	n/a
684517	REC_WORD	wordpools/wasnorm_wordpool_less_exclusions.txt	LTP278	ltpFR	17	5	0	GLASS	639	n/a	n/a	1	n/a	n/a	n/a	n/a	n/a
685914	REC_WORD	wordpools/wasnorm_wordpool_less_exclusions.txt	LTP278	ltpFR	17	5	0	MOSS	918	n/a	n/a	0	n/a	n/a	n/a	n/a	n/a
755285	WORD	wordpools/wasnorm_wordpool_less_exclusions.txt	LTP278	ltpFR	17	6	1	MONGOOSE	909	n/a	n/a	1	0.422607421875	0.5869140625	0	lower	zerothre.ttf
759363	WORD	wordpools/wasnorm_wordpool_less_exclusions.txt	LTP278	ltpFR	17	6	1	PICK	1058	n/a	n/a	0	0.422607421875	0.5869140625	0	lower	zerothre.ttf
763323	WORD	wordpools/wasnorm_wordpool_less_exclusions.txt	LTP278	ltpFR	17	6	1	BULLETIN	195	n/a	n/a	0	0.422607421875	0.5869140625	0	lower	zerothre.ttf
767435	WORD	wordpools/wasnorm_wordpool_less_exclusions.txt	LTP278	ltpFR	17	6	0	FROST	609	n/a	n/a	1	0.57763671875	0.412841796875	1	upper	amplitud.ttf
771328	WORD	wordpools/wasnorm_wordpool_less_exclusions.txt	LTP278	ltpFR	17	6	0	CELLAR	267	n/a	n/a	1	0.57763671875	0.412841796875	1	upper	amplitud.ttf
775239	WORD	wordpools/wasnorm_wordpool_less_exclusions.txt	LTP278	ltpFR	17	6	0	SOAP	1337	n/a	n/a	0	0.57763671875	0.412841796875	1	upper	amplitud.ttf
779116	WORD	wordpools/wasnorm_wordpool_less_exclusions.txt	LTP278	ltpFR	17	6	0	NUN	962	n/a	n/a	1	0.57763671875	0.412841796875	1	upper	amplitud.ttf
783144	WORD	wordpools/wasnorm_wordpool_less_exclusions.txt	LTP278	ltpFR	17	6	0	CHALK	276	n/a	n/a	0	0.57763671875	0.412841796875	1	upper	amplitud.ttf
787188	WORD	wordpools/wasnorm_wordpool_less_exclusions.txt	LTP278	ltpFR	17	6	1	WORM	1623	n/a	n/a	0	0.422607421875	0.5869140625	0	lower	zerothre.ttf
791082	WORD	wordpools/wasnorm_wordpool_less_exclusions.txt	LTP278	ltpFR	17	6	1	CLOWN	330	n/a	n/a	1	0.422607421875	0.5869140625	0	lower	zerothre.ttf
795026	WORD	wordpools/wasnorm_wordpool_less_exclusions.txt	LTP278	ltpFR	17	6	0	VIOLIN	1571	n/a	n/a	0	0.57763671875	0.412841796875	1	upper	amplitud.ttf
799136	WORD	wordpools/wasnorm_wordpool_less_exclusions.txt	LTP278	ltpFR	17	6	0	PIANO	1057	n/a	n/a	0	0.57763671875	0.412841796875	1	upper	amplitud.ttf
802964	WORD	wordpools/wasnorm_wordpool_less_exclusions.txt	LTP278	ltpFR	17	6	0	TOURIST	1488	n/a	n/a	1	0.57763671875	0.412841796875	1	upper	amplitud.ttf
807008	WORD	wordpools/wasnorm_wordpool_less_exclusions.txt	LTP278	ltpFR	17	6	1	DRUM	502	n/a	n/a	0	0.422607421875	0.5869140625	0	lower	zerothre.ttf
811218	WORD	wordpools/wasnorm_wordpool_less_exclusions.txt	LTP278	ltpFR	17	6	1	FEMALE	559	n/a	n/a	1	0.422607421875	0.5869140625	0	lower	zerothre.ttf
815179	WORD	wordpools/wasnorm_wordpool_less_exclusions.txt	LTP278	ltpFR	17	6	1	WOMAN	1620	n/a	n/a	0	0.422607421875	0.5869140625	0	lower	zerothre.ttf
821121	REC_START	n/a	LTP278	ltpFR	17	6	n/a	n/a	n/a	n/a	n/a	n/a	n/a	n/a	n/a	n/a	n/a
821925	REC_WORD	wordpools/wasnorm_wordpool_less_exclusions.txt	LTP278	ltpFR	17	6	1	WOMAN	1620	n/a	n/a	0	n/a	n/a	n/a	n/a	n/a
822713	REC_WORD	wordpools/wasnorm_wordpool_less_exclusions.txt	LTP278	ltpFR	17	6	1	MONGOOSE	909	n/a	n/a	1	n/a	n/a	n/a	n/a	n/a
823713	REC_WORD_VV	wordpools/wasnorm_wordpool_less_exclusions.txt	LTP278	ltpFR	17	6	n/a	<>	-1	n/a	n/a	n/a	n/a	n/a	n/a	n/a	n/a
824531	REC_WORD	wordpools/wasnorm_wordpool_less_exclusions.txt	LTP278	ltpFR	17	6	0	FROST	609	n/a	n/a	1	n/a	n/a	n/a	n/a	n/a
825426	REC_WORD	wordpools/wasnorm_wordpool_less_exclusions.txt	LTP278	ltpFR	17	6	0	CELLAR	267	n/a	n/a	1	n/a	n/a	n/a	n/a	n/a
826303	REC_WORD	wordpools/wasnorm_wordpool_less_exclusions.txt	LTP278	ltpFR	17	6	1	CLOWN	330	n/a	n/a	1	n/a	n/a	n/a	n/a	n/a
827118	REC_WORD	wordpools/wasnorm_wordpool_less_exclusions.txt	LTP278	ltpFR	17	6	1	WORM	1623	n/a	n/a	0	n/a	n/a	n/a	n/a	n/a
899786	WORD	wordpools/wasnorm_wordpool_less_exclusions.txt	LTP278	ltpFR	17	7	-1	HERD	705	n/a	n/a	-1	1.0	1.0	1	upper	Verdana.ttf
903847	WORD	wordpools/wasnorm_wordpool_less_exclusions.txt	LTP278	ltpFR	17	7	-1	HANDKERCHIEF	686	n/a	n/a	-1	1.0	1.0	1	upper	Verdana.ttf
907808	WORD	wordpools/wasnorm_wordpool_less_exclusions.txt	LTP278	ltpFR	17	7	-1	BROOK	177	n/a	n/a	-1	1.0	1.0	1	upper	Verdana.ttf
911951	WORD	wordpools/wasnorm_wordpool_less_exclusions.txt	LTP278	ltpFR	17	7	-1	FOX	598	n/a	n/a	-1	1.0	1.0	1	upper	Verdana.ttf
916079	WORD	wordpools/wasnorm_wordpool_less_exclusions.txt	LTP278	ltpFR	17	7	-1	JUGGLER	763	n/a	n/a	-1	1.0	1.0	1	upper	Verdana.ttf
920122	WORD	wordpools/wasnorm_wordpool_less_exclusions.txt	LTP278	ltpFR	17	7	-1	SHOWER	1296	n/a	n/a	-1	1.0	1.0	1	upper	Verdana.ttf
924250	WORD	wordpools/wasnorm_wordpool_less_exclusions.txt	LTP278	ltpFR	17	7	-1	DISHWASHER	475	n/a	n/a	-1	1.0	1.0	1	upper	Verdana.ttf
928127	WORD	wordpools/wasnorm_wordpool_less_exclusions.txt	LTP278	ltpFR	17	7	-1	DIGGER	464	n/a	n/a	-1	1.0	1.0	1	upper	Verdana.ttf
932171	WORD	wordpools/wasnorm_wordpool_less_exclusions.txt	LTP278	ltpFR	17	7	-1	SCARF	1246	n/a	n/a	-1	1.0	1.0	1	upper	Verdana.ttf
936365	WORD	wordpools/wasnorm_wordpool_less_exclusions.txt	LTP278	ltpFR	17	7	-1	HAT	690	n/a	n/a	-1	1.0	1.0	1	upper	Verdana.ttf
940376	WORD	wordpools/wasnorm_wordpool_less_exclusions.txt	LTP278	ltpFR	17	7	-1	SWIMMER	1420	n/a	n/a	-1	1.0	1.0	1	upper	Verdana.ttf
944320	WORD	wordpools/wasnorm_wordpool_less_exclusions.txt	LTP278	ltpFR	17	7	-1	ONION	977	n/a	n/a	-1	1.0	1.0	1	upper	Verdana.ttf
948280	WORD	wordpools/wasnorm_wordpool_less_exclusions.txt	LTP278	ltpFR	17	7	-1	MILITARY	894	n/a	n/a	-1	1.0	1.0	1	upper	Verdana.ttf
952459	WORD	wordpools/wasnorm_wordpool_less_exclusions.txt	LTP278	ltpFR	17	7	-1	BARREL	91	n/a	n/a	-1	1.0	1.0	1	upper	Verdana.ttf
956618	WORD	wordpools/wasnorm_wordpool_less_exclusions.txt	LTP278	ltpFR	17	7	-1	FINGER	567	n/a	n/a	-1	1.0	1.0	1	upper	Verdana.ttf
960612	WORD	wordpools/wasnorm_wordpool_less_exclusions.txt	LTP278	ltpFR	17	7	-1	GEM	629	n/a	n/a	-1	1.0	1.0	1	upper	Verdana.ttf
966570	REC_START	n/a	LTP278	ltpFR	17	7	n/a	n/a	n/a	n/a	n/a	n/a	n/a	n/a	n/a	n/a	n/a
967092	REC_WORD	wordpools/wasnorm_wordpool_less_exclusions.txt	LTP278	ltpFR	17	7	-1	FINGER	567	n/a	n/a	-1	n/a	n/a	n/a	n/a	n/a
967813	REC_WORD	wordpools/wasnorm_wordpool_less_exclusions.txt	LTP278	ltpFR	17	7	-1	GEM	629	n/a	n/a	-1	n/a	n/a	n/a	n/a	n/a
968369	REC_WORD	wordpools/wasnorm_wordpool_less_exclusions.txt	LTP278	ltpFR	17	7	-1	HERD	705	n/a	n/a	-1	n/a	n/a	n/a	n/a	n/a
969239	REC_WORD	wordpools/wasnorm_wordpool_less_exclusions.txt	LTP278	ltpFR	17	7	-1	HANDKERCHIEF	686	n/a	n/a	-1	n/a	n/a	n/a	n/a	n/a
970729	REC_WORD	wordpools/wasnorm_wordpool_less_exclusions.txt	LTP278	ltpFR	17	7	-1	BROOK	177	n/a	n/a	-1	n/a	n/a	n/a	n/a	n/a
972424	REC_WORD	wordpools/wasnorm_wordpool_less_exclusions.txt	LTP278	ltpFR	17	7	n/a	STREAM	1392	n/a	n/a	n/a	n/a	n/a	n/a	n/a	n/a
974219	REC_WORD	wordpools/wasnorm_wordpool_less_exclusions.txt	LTP278	ltpFR	17	7	-1	SCARF	1246	n/a	n/a	-1	n/a	n/a	n/a	n/a	n/a
975771	REC_WORD	wordpools/wasnorm_wordpool_less_exclusions.txt	LTP278	ltpFR	17	7	-1	DISHWASHER	475	n/a	n/a	-1	n/a	n/a	n/a	n/a	n/a
978490	REC_WORD	wordpools/wasnorm_wordpool_less_exclusions.txt	LTP278	ltpFR	17	7	-1	DIGGER	464	n/a	n/a	-1	n/a	n/a	n/a	n/a	n/a
991611	REC_WORD	wordpools/wasnorm_wordpool_less_exclusions.txt	LTP278	ltpFR	17	7	-1	MILITARY	894	n/a	n/a	-1	n/a	n/a	n/a	n/a	n/a
1045901	WORD	wordpools/wasnorm_wordpool_less_exclusions.txt	LTP278	ltpFR	17	8	0	FOOTBALL	591	n/a	n/a	0	0.57763671875	0.412841796875	1	upper	amplitud.ttf
1049929	WORD	wordpools/wasnorm_wordpool_less_exclusions.txt	LTP278	ltpFR	17	8	0	CRAB	397	n/a	n/a	1	0.57763671875	0.412841796875	1	upper	amplitud.ttf
1054072	WORD	wordpools/wasnorm_wordpool_less_exclusions.txt	LTP278	ltpFR	17	8	0	APRON	35	n/a	n/a	1	0.57763671875	0.412841796875	1	upper	amplitud.ttf
1058133	WORD	wordpools/wasnorm_wordpool_less_exclusions.txt	LTP278	ltpFR	17	8	1	MUSEUM	933	n/a	n/a	0	0.422607421875	0.5869140625	0	lower	zerothre.ttf
1062293	WORD	wordpools/wasnorm_wordpool_less_exclusions.txt	LTP278	ltpFR	17	8	1	JELLY	755	n/a	n/a	0	0.422607421875	0.5869140625	0	lower	zerothre.ttf
1066287	WORD	wordpools/wasnorm_wordpool_less_exclusions.txt	LTP278	ltpFR	17	8	1	CONDUCTOR	362	n/a	n/a	1	0.422607421875	0.5869140625	0	lower	zerothre.ttf
1070432	WORD	wordpools/wasnorm_wordpool_less_exclusions.txt	LTP278	ltpFR	17	8	1	SADDLE	1221	n/a	n/a	0	0.422607421875	0.5869140625	0	lower	zerothre.ttf
1074443	WORD	wordpools/wasnorm_wordpool_less_exclusions.txt	LTP278	ltpFR	17	8	0	ZEBRA	1635	n/a	n/a	0	0.57763671875	0.412841796875	1	upper	amplitud.ttf
1078503	WORD	wordpools/wasnorm_wordpool_less_exclusions.txt	LTP278	ltpFR	17	8	0	PUPIL	1143	n/a	n/a	1	0.57763671875	0.412841796875	1	upper	amplitud.ttf
1082497	WORD	wordpools/wasnorm_wordpool_less_exclusions.txt	LTP278	ltpFR	17	8	0	CHERRY	293	n/a	n/a	0	0.57763671875	0.412841796875	1	upper	amplitud.ttf
1086674	WORD	wordpools/wasnorm_wordpool_less_exclusions.txt	LTP278	ltpFR	17	8	0	UMPIRE	1535	n/a	n/a	0	0.57763671875	0.412841796875	1	upper	amplitud.ttf
1090585	WORD	wordpools/wasnorm_wordpool_less_exclusions.txt	LTP278	ltpFR	17	8	0	IGLOO	734	n/a	n/a	0	0.57763671875	0.412841796875	1	upper	amplitud.ttf
1094562	WORD	wordpools/wasnorm_wordpool_less_exclusions.txt	LTP278	ltpFR	17	8	1	KIWI	781	n/a	n/a	0	0.422607421875	0.5869140625	0	lower	zerothre.ttf
1098722	WORD	wordpools/wasnorm_wordpool_less_exclusions.txt	LTP278	ltpFR	17	8	1	DINER	467	n/a	n/a	0	0.422607421875	0.5869140625	0	lower	zerothre.ttf
1102583	WORD	wordpools/wasnorm_wordpool_less_exclusions.txt	LTP278	ltpFR	17	8	1	RICE	1190	n/a	n/a	0	0.422607421875	0.5869140625	0	lower	zerothre.ttf
1106429	WORD	wordpools/wasnorm_wordpool_less_exclusions.txt	LTP278	ltpFR	17	8	1	OYSTER	995	n/a	n/a	1	0.422607421875	0.5869140625	0	lower	zerothre.ttf
1112552	REC_START	n/a	LTP278	ltpFR	17	8	n/a	n/a	n/a	n/a	n/a	n/a	n/a	n/a	n/a	n/a	n/a
1113505	REC_WORD	wordpools/wasnorm_wordpool_less_exclusions.txt	LTP278	ltpFR	17	8	1	OYSTER	995	n/a	n/a	1	n/a	n/a	n/a	n/a	n/a
1114312	REC_WORD	wordpools/wasnorm_wordpool_less_exclusions.txt	LTP278	ltpFR	17	8	1	RICE	1190	n/a	n/a	0	n/a	n/a	n/a	n/a	n/a
1115074	REC_WORD	wordpools/wasnorm_wordpool_less_exclusions.txt	LTP278	ltpFR	17	8	1	DINER	467	n/a	n/a	0	n/a	n/a	n/a	n/a	n/a
1116002	REC_WORD	wordpools/wasnorm_wordpool_less_exclusions.txt	LTP278	ltpFR	17	8	1	KIWI	781	n/a	n/a	0	n/a	n/a	n/a	n/a	n/a
1117333	REC_WORD	wordpools/wasnorm_wordpool_less_exclusions.txt	LTP278	ltpFR	17	8	0	ZEBRA	1635	n/a	n/a	0	n/a	n/a	n/a	n/a	n/a
1118233	REC_WORD	wordpools/wasnorm_wordpool_less_exclusions.txt	LTP278	ltpFR	17	8	0	PUPIL	1143	n/a	n/a	1	n/a	n/a	n/a	n/a	n/a
1121157	REC_WORD	wordpools/wasnorm_wordpool_less_exclusions.txt	LTP278	ltpFR	17	8	0	FOOTBALL	591	n/a	n/a	0	n/a	n/a	n/a	n/a	n/a
1123239	REC_WORD	wordpools/wasnorm_wordpool_less_exclusions.txt	LTP278	ltpFR	17	8	1	MUSEUM	933	n/a	n/a	0	n/a	n/a	n/a	n/a	n/a
1125543	REC_WORD	wordpools/wasnorm_wordpool_less_exclusions.txt	LTP278	ltpFR	17	8	0	CRAB	397	n/a	n/a	1	n/a	n/a	n/a	n/a	n/a
1129404	REC_WORD	wordpools/wasnorm_wordpool_less_exclusions.txt	LTP278	ltpFR	17	8	1	OYSTER	995	n/a	n/a	1	n/a	n/a	n/a	n/a	n/a
1135381	REC_WORD	wordpools/wasnorm_wordpool_less_exclusions.txt	LTP278	ltpFR	17	8	1	CONDUCTOR	362	n/a	n/a	1	n/a	n/a	n/a	n/a	n/a
1188156	REST_REWET	n/a	LTP278	ltpFR	17	8	n/a	n/a	n/a	n/a	n/a	n/a	n/a	n/a	n/a	n/a	n/a
1594199	WORD	wordpools/wasnorm_wordpool_less_exclusions.txt	LTP278	ltpFR	17	9	-1	BATTERY	101	n/a	n/a	-1	1.0	1.0	1	upper	Verdana.ttf
1598243	WORD	wordpools/wasnorm_wordpool_less_exclusions.txt	LTP278	ltpFR	17	9	-1	DASHBOARD	441	n/a	n/a	-1	1.0	1.0	1	upper	Verdana.ttf
1602154	WORD	wordpools/wasnorm_wordpool_less_exclusions.txt	LTP278	ltpFR	17	9	-1	PORK	1108	n/a	n/a	-1	1.0	1.0	1	upper	Verdana.ttf
1606081	WORD	wordpools/wasnorm_wordpool_less_exclusions.txt	LTP278	ltpFR	17	9	-1	PLUM	1090	n/a	n/a	-1	1.0	1.0	1	upper	Verdana.ttf
1610059	WORD	wordpools/wasnorm_wordpool_less_exclusions.txt	LTP278	ltpFR	17	9	-1	SIDING	1304	n/a	n/a	-1	1.0	1.0	1	upper	Verdana.ttf
1614169	WORD	wordpools/wasnorm_wordpool_less_exclusions.txt	LTP278	ltpFR	17	9	-1	BUILDER	190	n/a	n/a	-1	1.0	1.0	1	upper	Verdana.ttf
1618130	WORD	wordpools/wasnorm_wordpool_less_exclusions.txt	LTP278	ltpFR	17	9	-1	JUPITER	765	n/a	n/a	-1	1.0	1.0	1	upper	Verdana.ttf
1622041	WORD	wordpools/wasnorm_wordpool_less_exclusions.txt	LTP278	ltpFR	17	9	-1	FRECKLE	602	n/a	n/a	-1	1.0	1.0	1	upper	Verdana.ttf
1626068	WORD	wordpools/wasnorm_wordpool_less_exclusions.txt	LTP278	ltpFR	17	9	-1	BOWL	158	n/a	n/a	-1	1.0	1.0	1	upper	Verdana.ttf
1630079	WORD	wordpools/wasnorm_wordpool_less_exclusions.txt	LTP278	ltpFR	17	9	-1	LEAF	808	n/a	n/a	-1	1.0	1.0	1	upper	Verdana.ttf
1633973	WORD	wordpools/wasnorm_wordpool_less_exclusions.txt	LTP278	ltpFR	17	9	-1	BLACKBOARD	133	n/a	n/a	-1	1.0	1.0	1	upper	Verdana.ttf
1637834	WORD	wordpools/wasnorm_wordpool_less_exclusions.txt	LTP278	ltpFR	17	9	-1	PIGEON	1065	n/a	n/a	-1	1.0	1.0	1	upper	Verdana.ttf
1641795	WORD	wordpools/wasnorm_wordpool_less_exclusions.txt	LTP278	ltpFR	17	9	-1	LAKE	796	n/a	n/a	-1	1.0	1.0	1	upper	Verdana.ttf
1645656	WORD	wordpools/wasnorm_wordpool_less_exclusions.txt	LTP278	ltpFR	17	9	-1	OTTER	986	n/a	n/a	-1	1.0	1.0	1	upper	Verdana.ttf
1649600	WORD	wordpools/wasnorm_wordpool_less_exclusions.txt	LTP278	ltpFR	17	9	-1	ERASER	538	n/a	n/a	-1	1.0	1.0	1	upper	Verdana.ttf
1653810	WORD	wordpools/wasnorm_wordpool_less_exclusions.txt	LTP278	ltpFR	17	9	-1	CANNON	232	n/a	n/a	-1	1.0	1.0	1	upper	Verdana.ttf
1659719	REC_START	n/a	LTP278	ltpFR	17	9	n/a	n/a	n/a	n/a	n/a	n/a	n/a	n/a	n/a	n/a	n/a
1661366	REC_WORD	wordpools/wasnorm_wordpool_less_exclusions.txt	LTP278	ltpFR	17	9	-1	CANNON	232	n/a	n/a	-1	n/a	n/a	n/a	n/a	n/a
1661895	REC_WORD	wordpools/wasnorm_wordpool_less_exclusions.txt	LTP278	ltpFR	17	9	-1	BATTERY	101	n/a	n/a	-1	n/a	n/a	n/a	n/a	n/a
1662897	REC_WORD	wordpools/wasnorm_wordpool_less_exclusions.txt	LTP278	ltpFR	17	9	-1	PORK	1108	n/a	n/a	-1	n/a	n/a	n/a	n/a	n/a
1663432	REC_WORD	wordpools/wasnorm_wordpool_less_exclusions.txt	LTP278	ltpFR	17	9	-1	DASHBOARD	441	n/a	n/a	-1	n/a	n/a	n/a	n/a	n/a
1664543	REC_WORD	wordpools/wasnorm_wordpool_less_exclusions.txt	LTP278	ltpFR	17	9	-1	SIDING	1304	n/a	n/a	-1	n/a	n/a	n/a	n/a	n/a
1665381	REC_WORD	wordpools/wasnorm_wordpool_less_exclusions.txt	LTP278	ltpFR	17	9	-1	BUILDER	190	n/a	n/a	-1	n/a	n/a	n/a	n/a	n/a
1669694	REC_WORD	wordpools/wasnorm_wordpool_less_exclusions.txt	LTP278	ltpFR	17	9	-1	PLUM	1090	n/a	n/a	-1	n/a	n/a	n/a	n/a	n/a
1738667	WORD	wordpools/wasnorm_wordpool_less_exclusions.txt	LTP278	ltpFR	17	10	-1	BUFFALO	186	n/a	n/a	-1	1.0	1.0	1	upper	Verdana.ttf
1742594	WORD	wordpools/wasnorm_wordpool_less_exclusions.txt	LTP278	ltpFR	17	10	-1	PISTON	1076	n/a	n/a	-1	1.0	1.0	1	upper	Verdana.ttf
1746605	WORD	wordpools/wasnorm_wordpool_less_exclusions.txt	LTP278	ltpFR	17	10	-1	ZUCCHINI	1638	n/a	n/a	-1	1.0	1.0	1	upper	Verdana.ttf
1750632	WORD	wordpools/wasnorm_wordpool_less_exclusions.txt	LTP278	ltpFR	17	10	-1	PICKLE	1059	n/a	n/a	-1	1.0	1.0	1	upper	Verdana.ttf
1754726	WORD	wordpools/wasnorm_wordpool_less_exclusions.txt	LTP278	ltpFR	17	10	-1	CONTRACTOR	369	n/a	n/a	-1	1.0	1.0	1	upper	Verdana.ttf
1758620	WORD	wordpools/wasnorm_wordpool_less_exclusions.txt	LTP278	ltpFR	17	10	-1	BINDER	127	n/a	n/a	-1	1.0	1.0	1	upper	Verdana.ttf
1762466	WORD	wordpools/wasnorm_wordpool_less_exclusions.txt	LTP278	ltpFR	17	10	-1	MAMMAL	861	n/a	n/a	-1	1.0	1.0	1	upper	Verdana.ttf
1766625	WORD	wordpools/wasnorm_wordpool_less_exclusions.txt	LTP278	ltpFR	17	10	-1	WATERFALL	1595	n/a	n/a	-1	1.0	1.0	1	upper	Verdana.ttf
1770686	WORD	wordpools/wasnorm_wordpool_less_exclusions.txt	LTP278	ltpFR	17	10	-1	CAMEL	223	n/a	n/a	-1	1.0	1.0	1	upper	Verdana.ttf
1774680	WORD	wordpools/wasnorm_wordpool_less_exclusions.txt	LTP278	ltpFR	17	10	-1	FOREHEAD	592	n/a	n/a	-1	1.0	1.0	1	upper	Verdana.ttf
1778757	WORD	wordpools/wasnorm_wordpool_less_exclusions.txt	LTP278	ltpFR	17	10	-1	BEARD	107	n/a	n/a	-1	1.0	1.0	1	upper	Verdana.ttf
1782601	WORD	wordpools/wasnorm_wordpool_less_exclusions.txt	LTP278	ltpFR	17	10	-1	HOSE	720	n/a	n/a	-1	1.0	1.0	1	upper	Verdana.ttf
1786579	WORD	wordpools/wasnorm_wordpool_less_exclusions.txt	LTP278	ltpFR	17	10	-1	DUMP	505	n/a	n/a	-1	1.0	1.0	1	upper	Verdana.ttf
1790489	WORD	wordpools/wasnorm_wordpool_less_exclusions.txt	LTP278	ltpFR	17	10	-1	CAGE	218	n/a	n/a	-1	1.0	1.0	1	upper	Verdana.ttf
1794617	WORD	wordpools/wasnorm_wordpool_less_exclusions.txt	LTP278	ltpFR	17	10	-1	BUCKET	184	n/a	n/a	-1	1.0	1.0	1	upper	Verdana.ttf
1798794	WORD	wordpools/wasnorm_wordpool_less_exclusions.txt	LTP278	ltpFR	17	10	-1	HAY	693	n/a	n/a	-1	1.0	1.0	1	upper	Verdana.ttf
1804636	REC_START	n/a	LTP278	ltpFR	17	10	n/a	n/a	n/a	n/a	n/a	n/a	n/a	n/a	n/a	n/a	n/a
1806259	REC_WORD	wordpools/wasnorm_wordpool_less_exclusions.txt	LTP278	ltpFR	17	10	-1	CAMEL	223	n/a	n/a	-1	n/a	n/a	n/a	n/a	n/a
1810522	REC_WORD	wordpools/wasnorm_wordpool_less_exclusions.txt	LTP278	ltpFR	17	10	n/a	DINNER	468	n/a	n/a	n/a	n/a	n/a	n/a	n/a	n/a
1810907	REC_WORD	wordpools/wasnorm_wordpool_less_exclusions.txt	LTP278	ltpFR	17	10	-1	BUFFALO	186	n/a	n/a	-1	n/a	n/a	n/a	n/a	n/a
1811649	REC_WORD	wordpools/wasnorm_wordpool_less_exclusions.txt	LTP278	ltpFR	17	10	-1	PISTON	1076	n/a	n/a	-1	n/a	n/a	n/a	n/a	n/a
1812352	REC_WORD	wordpools/wasnorm_wordpool_less_exclusions.txt	LTP278	ltpFR	17	10	-1	ZUCCHINI	1638	n/a	n/a	-1	n/a	n/a	n/a	n/a	n/a
1813281	REC_WORD	wordpools/wasnorm_wordpool_less_exclusions.txt	LTP278	ltpFR	17	10	-1	PICKLE	1059	n/a	n/a	-1	n/a	n/a	n/a	n/a	n/a
1822956	REC_WORD	wordpools/wasnorm_wordpool_less_exclusions.txt	LTP278	ltpFR	17	10	-1	CONTRACTOR	369	n/a	n/a	-1	n/a	n/a	n/a	n/a	n/a
1883767	WORD	wordpools/wasnorm_wordpool_less_exclusions.txt	LTP278	ltpFR	17	11	1	ARENA	37	n/a	n/a	1	0.422607421875	0.5869140625	0	lower	zerothre.ttf
1887794	WORD	wordpools/wasnorm_wordpool_less_exclusions.txt	LTP278	ltpFR	17	11	1	SCARECROW	1245	n/a	n/a	0	0.422607421875	0.5869140625	0	lower	zerothre.ttf
1891705	WORD	wordpools/wasnorm_wordpool_less_exclusions.txt	LTP278	ltpFR	17	11	1	MISTER	901	n/a	n/a	1	0.422607421875	0.5869140625	0	lower	zerothre.ttf
1895732	WORD	wordpools/wasnorm_wordpool_less_exclusions.txt	LTP278	ltpFR	17	11	1	PUCK	1138	n/a	n/a	0	0.422607421875	0.5869140625	0	lower	zerothre.ttf
1899643	WORD	wordpools/wasnorm_wordpool_less_exclusions.txt	LTP278	ltpFR	17	11	1	SENATOR	1268	n/a	n/a	1	0.422607421875	0.5869140625	0	lower	zerothre.ttf
1903837	WORD	wordpools/wasnorm_wordpool_less_exclusions.txt	LTP278	ltpFR	17	11	1	PERSON	1052	n/a	n/a	1	0.422607421875	0.5869140625	0	lower	zerothre.ttf
1907881	WORD	wordpools/wasnorm_wordpool_less_exclusions.txt	LTP278	ltpFR	17	11	1	RIB	1188	n/a	n/a	0	0.422607421875	0.5869140625	0	lower	zerothre.ttf
1911908	WORD	wordpools/wasnorm_wordpool_less_exclusions.txt	LTP278	ltpFR	17	11	1	TOE	1473	n/a	n/a	0	0.422607421875	0.5869140625	0	lower	zerothre.ttf
1915869	WORD	wordpools/wasnorm_wordpool_less_exclusions.txt	LTP278	ltpFR	17	11	1	EMPEROR	529	n/a	n/a	1	0.422607421875	0.5869140625	0	lower	zerothre.ttf
1919796	WORD	wordpools/wasnorm_wordpool_less_exclusions.txt	LTP278	ltpFR	17	11	1	THRONE	1461	n/a	n/a	1	0.422607421875	0.5869140625	0	lower	zerothre.ttf
1923973	WORD	wordpools/wasnorm_wordpool_less_exclusions.txt	LTP278	ltpFR	17	11	1	WAGON	1578	n/a	n/a	0	0.422607421875	0.5869140625	0	lower	zerothre.ttf
1927901	WORD	wordpools/wasnorm_wordpool_less_exclusions.txt	LTP278	ltpFR	17	11	1	TECHNICIAN	1443	n/a	n/a	1	0.422607421875	0.5869140625	0	lower	zerothre.ttf
1932011	WORD	wordpools/wasnorm_wordpool_less_exclusions.txt	LTP278	ltpFR	17	11	1	MAGAZINE	853	n/a	n/a	0	0.422607421875	0.5869140625	0	lower	zerothre.ttf
1936155	WORD	wordpools/wasnorm_wordpool_less_exclusions.txt	LTP278	ltpFR	17	11	1	SENATE	1267	n/a	n/a	1	0.422607421875	0.5869140625	0	lower	zerothre.ttf
1940149	WORD	wordpools/wasnorm_wordpool_less_exclusions.txt	LTP278	ltpFR	17	11	1	SUSPECT	1415	n/a	n/a	1	0.422607421875	0.5869140625	0	lower	zerothre.ttf
1944160	WORD	wordpools/wasnorm_wordpool_less_exclusions.txt	LTP278	ltpFR	17	11	1	CROOK	412	n/a	n/a	0	0.422607421875	0.5869140625	0	lower	zerothre.ttf
1950168	REC_START	n/a	LTP278	ltpFR	17	11	n/a	n/a	n/a	n/a	n/a	n/a	n/a	n/a	n/a	n/a	n/a
1950636	REC_WORD	wordpools/wasnorm_wordpool_less_exclusions.txt	LTP278	ltpFR	17	11	1	CROOK	412	n/a	n/a	0	n/a	n/a	n/a	n/a	n/a
1951477	REC_WORD	wordpools/wasnorm_wordpool_less_exclusions.txt	LTP278	ltpFR	17	11	1	SENATOR	1268	n/a	n/a	1	n/a	n/a	n/a	n/a	n/a
1952353	REC_WORD	wordpools/wasnorm_wordpool_less_exclusions.txt	LTP278	ltpFR	17	11	1	SENATE	1267	n/a	n/a	1	n/a	n/a	n/a	n/a	n/a
1954676	REC_WORD	wordpools/wasnorm_wordpool_less_exclusions.txt	LTP278	ltpFR	17	11	1	ARENA	37	n/a	n/a	1	n/a	n/a	n/a	n/a	n/a
1956663	REC_WORD	wordpools/wasnorm_wordpool_less_exclusions.txt	LTP278	ltpFR	17	11	1	SCARECROW	1245	n/a	n/a	0	n/a	n/a	n/a	n/a	n/a
2028368	WORD	wordpools/wasnorm_wordpool_less_exclusions.txt	LTP278	ltpFR	17	12	1	SHEPHERD	1283	n/a	n/a	1	0.422607421875	0.5869140625	0	lower	zerothre.ttf
2032378	WORD	wordpools/wasnorm_wordpool_less_exclusions.txt	LTP278	ltpFR	17	12	1	PARSLEY	1016	n/a	n/a	0	0.422607421875	0.5869140625	0	lower	zerothre.ttf
2036407	WORD	wordpools/wasnorm_wordpool_less_exclusions.txt	LTP278	ltpFR	17	12	1	CREATURE	403	n/a	n/a	1	0.422607421875	0.5869140625	0	lower	zerothre.ttf
2040250	WORD	wordpools/wasnorm_wordpool_less_exclusions.txt	LTP278	ltpFR	17	12	1	PORT	1110	n/a	n/a	0	0.422607421875	0.5869140625	0	lower	zerothre.ttf
2044177	WORD	wordpools/wasnorm_wordpool_less_exclusions.txt	LTP278	ltpFR	17	12	1	DILL	465	n/a	n/a	0	0.422607421875	0.5869140625	0	lower	zerothre.ttf
2048371	WORD	wordpools/wasnorm_wordpool_less_exclusions.txt	LTP278	ltpFR	17	12	1	GOAT	644	n/a	n/a	1	0.422607421875	0.5869140625	0	lower	zerothre.ttf
2052382	WORD	wordpools/wasnorm_wordpool_less_exclusions.txt	LTP278	ltpFR	17	12	1	TWIG	1527	n/a	n/a	0	0.422607421875	0.5869140625	0	lower	zerothre.ttf
2056359	WORD	wordpools/wasnorm_wordpool_less_exclusions.txt	LTP278	ltpFR	17	12	1	EWE	542	n/a	n/a	1	0.422607421875	0.5869140625	0	lower	zerothre.ttf
2060336	WORD	wordpools/wasnorm_wordpool_less_exclusions.txt	LTP278	ltpFR	17	12	1	PADDING	999	n/a	n/a	0	0.422607421875	0.5869140625	0	lower	zerothre.ttf
2064465	WORD	wordpools/wasnorm_wordpool_less_exclusions.txt	LTP278	ltpFR	17	12	1	FURNITURE	616	n/a	n/a	0	0.422607421875	0.5869140625	0	lower	zerothre.ttf
2068425	WORD	wordpools/wasnorm_wordpool_less_exclusions.txt	LTP278	ltpFR	17	12	1	ANTLER	29	n/a	n/a	0	0.422607421875	0.5869140625	0	lower	zerothre.ttf
2072552	WORD	wordpools/wasnorm_wordpool_less_exclusions.txt	LTP278	ltpFR	17	12	1	ELK	526	n/a	n/a	1	0.422607421875	0.5869140625	0	lower	zerothre.ttf
2076579	WORD	wordpools/wasnorm_wordpool_less_exclusions.txt	LTP278	ltpFR	17	12	1	TOWEL	1489	n/a	n/a	0	0.422607421875	0.5869140625	0	lower	zerothre.ttf
2080457	WORD	wordpools/wasnorm_wordpool_less_exclusions.txt	LTP278	ltpFR	17	12	1	CATHEDRAL	260	n/a	n/a	1	0.422607421875	0.5869140625	0	lower	zerothre.ttf
2084468	WORD	wordpools/wasnorm_wordpool_less_exclusions.txt	LTP278	ltpFR	17	12	1	MILK	895	n/a	n/a	0	0.422607421875	0.5869140625	0	lower	zerothre.ttf
2088628	WORD	wordpools/wasnorm_wordpool_less_exclusions.txt	LTP278	ltpFR	17	12	1	BREAST	171	n/a	n/a	n/a	0.422607421875	0.5869140625	0	lower	zerothre.ttf
2091656	SLOW_MSG	n/a	LTP278	ltpFR	17	12	n/a	n/a	n/a	n/a	n/a	n/a	n/a	n/a	n/a	n/a	n/a
2096034	REC_START	n/a	LTP278	ltpFR	17	12	n/a	n/a	n/a	n/a	n/a	n/a	n/a	n/a	n/a	n/a	n/a
2098015	REC_WORD	wordpools/wasnorm_wordpool_less_exclusions.txt	LTP278	ltpFR	17	12	1	GOAT	644	n/a	n/a	1	n/a	n/a	n/a	n/a	n/a
2098505	REC_WORD	wordpools/wasnorm_wordpool_less_exclusions.txt	LTP278	ltpFR	17	12	1	SHEPHERD	1283	n/a	n/a	1	n/a	n/a	n/a	n/a	n/a
2099165	REC_WORD	wordpools/wasnorm_wordpool_less_exclusions.txt	LTP278	ltpFR	17	12	1	DILL	465	n/a	n/a	0	n/a	n/a	n/a	n/a	n/a
2099841	REC_WORD	wordpools/wasnorm_wordpool_less_exclusions.txt	LTP278	ltpFR	17	12	1	PARSLEY	1016	n/a	n/a	0	n/a	n/a	n/a	n/a	n/a
2100480	REC_WORD	wordpools/wasnorm_wordpool_less_exclusions.txt	LTP278	ltpFR	17	12	1	CREATURE	403	n/a	n/a	1	n/a	n/a	n/a	n/a	n/a
2152350	REC_WORD	wordpools/wasnorm_wordpool_less_exclusions.txt	LTP278	ltpFR	17	12	1	PORT	1110	n/a	n/a	0	n/a	n/a	n/a	n/a	n/a
2158041	REC_WORD	wordpools/wasnorm_wordpool_less_exclusions.txt	LTP278	ltpFR	17	12	1	BREAST	171	n/a	n/a	n/a	n/a	n/a	n/a	n/a	n/a
2174233	WORD	wordpools/wasnorm_wordpool_less_exclusions.txt	LTP278	ltpFR	17	13	1	CUB	419	n/a	n/a	0	0.422607421875	0.5869140625	0	lower	zerothre.ttf
2178094	WORD	wordpools/wasnorm_wordpool_less_exclusions.txt	LTP278	ltpFR	17	13	1	ANIMAL	23	n/a	n/a	1	0.422607421875	0.5869140625	0	lower	zerothre.ttf
2182005	WORD	wordpools/wasnorm_wordpool_less_exclusions.txt	LTP278	ltpFR	17	13	1	ARTICLE	42	n/a	n/a	0	0.422607421875	0.5869140625	0	lower	zerothre.ttf
2186182	WORD	wordpools/wasnorm_wordpool_less_exclusions.txt	LTP278	ltpFR	17	13	1	TREAT	1501	n/a	n/a	0	0.422607421875	0.5869140625	0	lower	zerothre.ttf
2190309	WORD	wordpools/wasnorm_wordpool_less_exclusions.txt	LTP278	ltpFR	17	13	0	CHOCOLATE	306	n/a	n/a	0	0.57763671875	0.412841796875	1	upper	amplitud.ttf
2194153	WORD	wordpools/wasnorm_wordpool_less_exclusions.txt	LTP278	ltpFR	17	13	0	BRACES	164	n/a	n/a	0	0.57763671875	0.412841796875	1	upper	amplitud.ttf
2198231	WORD	wordpools/wasnorm_wordpool_less_exclusions.txt	LTP278	ltpFR	17	13	0	LIVER	833	n/a	n/a	0	0.57763671875	0.412841796875	1	upper	amplitud.ttf
2202291	WORD	wordpools/wasnorm_wordpool_less_exclusions.txt	LTP278	ltpFR	17	13	0	ARMY	39	n/a	n/a	0	0.57763671875	0.412841796875	1	upper	amplitud.ttf
2206152	WORD	wordpools/wasnorm_wordpool_less_exclusions.txt	LTP278	ltpFR	17	13	0	PIPE	1073	n/a	n/a	0	0.57763671875	0.412841796875	1	upper	amplitud.ttf
2210146	WORD	wordpools/wasnorm_wordpool_less_exclusions.txt	LTP278	ltpFR	17	13	0	SALMON	1227	n/a	n/a	0	0.57763671875	0.412841796875	1	upper	amplitud.ttf
2214024	WORD	wordpools/wasnorm_wordpool_less_exclusions.txt	LTP278	ltpFR	17	13	1	RACKET	1155	n/a	n/a	0	0.422607421875	0.5869140625	0	lower	zerothre.ttf
2218001	WORD	wordpools/wasnorm_wordpool_less_exclusions.txt	LTP278	ltpFR	17	13	1	DOORBELL	487	n/a	n/a	0	0.422607421875	0.5869140625	0	lower	zerothre.ttf
2222145	WORD	wordpools/wasnorm_wordpool_less_exclusions.txt	LTP278	ltpFR	17	13	1	CHIME	300	n/a	n/a	0	0.422607421875	0.5869140625	0	lower	zerothre.ttf
2226222	WORD	wordpools/wasnorm_wordpool_less_exclusions.txt	LTP278	ltpFR	17	13	1	VETERAN	1561	n/a	n/a	1	0.422607421875	0.5869140625	0	lower	zerothre.ttf
2230116	WORD	wordpools/wasnorm_wordpool_less_exclusions.txt	LTP278	ltpFR	17	13	0	CHICKEN	297	n/a	n/a	0	0.57763671875	0.412841796875	1	upper	amplitud.ttf
2233977	WORD	wordpools/wasnorm_wordpool_less_exclusions.txt	LTP278	ltpFR	17	13	0	JAW	751	n/a	n/a	0	0.57763671875	0.412841796875	1	upper	amplitud.ttf
2239719	REC_START	n/a	LTP278	ltpFR	17	13	n/a	n/a	n/a	n/a	n/a	n/a	n/a	n/a	n/a	n/a	n/a
2240405	REC_WORD	wordpools/wasnorm_wordpool_less_exclusions.txt	LTP278	ltpFR	17	13	0	JAW	751	n/a	n/a	0	n/a	n/a	n/a	n/a	n/a
2241265	REC_WORD	wordpools/wasnorm_wordpool_less_exclusions.txt	LTP278	ltpFR	17	13	0	CHICKEN	297	n/a	n/a	0	n/a	n/a	n/a	n/a	n/a
2242429	REC_WORD	wordpools/wasnorm_wordpool_less_exclusions.txt	LTP278	ltpFR	17	13	1	CUB	419	n/a	n/a	0	n/a	n/a	n/a	n/a	n/a
2243357	REC_WORD	wordpools/wasnorm_wordpool_less_exclusions.txt	LTP278	ltpFR	17	13	1	ANIMAL	23	n/a	n/a	1	n/a	n/a	n/a	n/a	n/a
2244199	REC_WORD	wordpools/wasnorm_wordpool_less_exclusions.txt	LTP278	ltpFR	17	13	1	ARTICLE	42	n/a	n/a	0	n/a	n/a	n/a	n/a	n/a
2245011	REC_WORD	wordpools/wasnorm_wordpool_less_exclusions.txt	LTP278	ltpFR	17	13	1	TREAT	1501	n/a	n/a	0	n/a	n/a	n/a	n/a	n/a
2246675	REC_WORD	wordpools/wasnorm_wordpool_less_exclusions.txt	LTP278	ltpFR	17	13	0	CHOCOLATE	306	n/a	n/a	0	n/a	n/a	n/a	n/a	n/a
2255601	REC_WORD	wordpools/wasnorm_wordpool_less_exclusions.txt	LTP278	ltpFR	17	13	1	DOORBELL	487	n/a	n/a	0	n/a	n/a	n/a	n/a	n/a
2256452	REC_WORD	wordpools/wasnorm_wordpool_less_exclusions.txt	LTP278	ltpFR	17	13	1	CHIME	300	n/a	n/a	0	n/a	n/a	n/a	n/a	n/a
2258218	REC_WORD	wordpools/wasnorm_wordpool_less_exclusions.txt	LTP278	ltpFR	17	13	1	RACKET	1155	n/a	n/a	0	n/a	n/a	n/a	n/a	n/a
2318268	WORD	wordpools/wasnorm_wordpool_less_exclusions.txt	LTP278	ltpFR	17	14	0	BEVERAGE	123	n/a	n/a	1	0.57763671875	0.412841796875	1	upper	amplitud.ttf
2322196	WORD	wordpools/wasnorm_wordpool_less_exclusions.txt	LTP278	ltpFR	17	14	0	FOUNTAIN	597	n/a	n/a	0	0.57763671875	0.412841796875	1	upper	amplitud.ttf
2326023	WORD	wordpools/wasnorm_wordpool_less_exclusions.txt	LTP278	ltpFR	17	14	0	BRICK	172	n/a	n/a	0	0.57763671875	0.412841796875	1	upper	amplitud.ttf
2329984	WORD	wordpools/wasnorm_wordpool_less_exclusions.txt	LTP278	ltpFR	17	14	0	HOSTESS	723	n/a	n/a	1	0.57763671875	0.412841796875	1	upper	amplitud.ttf
2334061	WORD	wordpools/wasnorm_wordpool_less_exclusions.txt	LTP278	ltpFR	17	14	0	SHIP	1286	n/a	n/a	1	0.57763671875	0.412841796875	1	upper	amplitud.ttf
2337939	WORD	wordpools/wasnorm_wordpool_less_exclusions.txt	LTP278	ltpFR	17	14	0	STAKE	1368	n/a	n/a	1	0.57763671875	0.412841796875	1	upper	amplitud.ttf
2341933	WORD	wordpools/wasnorm_wordpool_less_exclusions.txt	LTP278	ltpFR	17	14	0	POPCORN	1104	n/a	n/a	1	0.57763671875	0.412841796875	1	upper	amplitud.ttf
2345810	WORD	wordpools/wasnorm_wordpool_less_exclusions.txt	LTP278	ltpFR	17	14	0	ICING	732	n/a	n/a	0	0.57763671875	0.412841796875	1	upper	amplitud.ttf
2349937	WORD	wordpools/wasnorm_wordpool_less_exclusions.txt	LTP278	ltpFR	17	14	0	SUPERMARKET	1409	n/a	n/a	1	0.57763671875	0.412841796875	1	upper	amplitud.ttf
2354031	WORD	wordpools/wasnorm_wordpool_less_exclusions.txt	LTP278	ltpFR	17	14	0	CRITIC	410	n/a	n/a	0	0.57763671875	0.412841796875	1	upper	amplitud.ttf
2358042	WORD	wordpools/wasnorm_wordpool_less_exclusions.txt	LTP278	ltpFR	17	14	0	BULB	192	n/a	n/a	1	0.57763671875	0.412841796875	1	upper	amplitud.ttf
2361903	WORD	wordpools/wasnorm_wordpool_less_exclusions.txt	LTP278	ltpFR	17	14	0	SOCKET	1340	n/a	n/a	1	0.57763671875	0.412841796875	1	upper	amplitud.ttf
2365997	WORD	wordpools/wasnorm_wordpool_less_exclusions.txt	LTP278	ltpFR	17	14	0	PLATE	1086	n/a	n/a	1	0.57763671875	0.412841796875	1	upper	amplitud.ttf
2370057	WORD	wordpools/wasnorm_wordpool_less_exclusions.txt	LTP278	ltpFR	17	14	0	CUSHION	428	n/a	n/a	0	0.57763671875	0.412841796875	1	upper	amplitud.ttf
2374201	WORD	wordpools/wasnorm_wordpool_less_exclusions.txt	LTP278	ltpFR	17	14	0	PARROT	1015	n/a	n/a	0	0.57763671875	0.412841796875	1	upper	amplitud.ttf
2378129	WORD	wordpools/wasnorm_wordpool_less_exclusions.txt	LTP278	ltpFR	17	14	0	CARDINAL	244	n/a	n/a	1	0.57763671875	0.412841796875	1	upper	amplitud.ttf
2383987	REC_START	n/a	LTP278	ltpFR	17	14	n/a	n/a	n/a	n/a	n/a	n/a	n/a	n/a	n/a	n/a	n/a
2384693	REC_WORD	wordpools/wasnorm_wordpool_less_exclusions.txt	LTP278	ltpFR	17	14	0	CARDINAL	244	n/a	n/a	1	n/a	n/a	n/a	n/a	n/a
2385542	REC_WORD	wordpools/wasnorm_wordpool_less_exclusions.txt	LTP278	ltpFR	17	14	0	BRICK	172	n/a	n/a	0	n/a	n/a	n/a	n/a	n/a
2386477	REC_WORD	wordpools/wasnorm_wordpool_less_exclusions.txt	LTP278	ltpFR	17	14	0	BEVERAGE	123	n/a	n/a	1	n/a	n/a	n/a	n/a	n/a
2387397	REC_WORD	wordpools/wasnorm_wordpool_less_exclusions.txt	LTP278	ltpFR	17	14	0	FOUNTAIN	597	n/a	n/a	0	n/a	n/a	n/a	n/a	n/a
2391135	REC_WORD	wordpools/wasnorm_wordpool_less_exclusions.txt	LTP278	ltpFR	17	14	0	SUPERMARKET	1409	n/a	n/a	1	n/a	n/a	n/a	n/a	n/a
2404526	REC_WORD	wordpools/wasnorm_wordpool_less_exclusions.txt	LTP278	ltpFR	17	14	0	HOSTESS	723	n/a	n/a	1	n/a	n/a	n/a	n/a	n/a
2476232	WORD	wordpools/wasnorm_wordpool_less_exclusions.txt	LTP278	ltpFR	17	15	1	POLE	1097	n/a	n/a	1	0.422607421875	0.5869140625	0	lower	zerothre.ttf
2480243	WORD	wordpools/wasnorm_wordpool_less_exclusions.txt	LTP278	ltpFR	17	15	1	ROD	1203	n/a	n/a	0	0.422607421875	0.5869140625	0	lower	zerothre.ttf
2484253	WORD	wordpools/wasnorm_wordpool_less_exclusions.txt	LTP278	ltpFR	17	15	1	PILL	1068	n/a	n/a	0	0.422607421875	0.5869140625	0	lower	zerothre.ttf
2488264	WORD	wordpools/wasnorm_wordpool_less_exclusions.txt	LTP278	ltpFR	17	15	1	OINTMENT	974	n/a	n/a	0	0.422607421875	0.5869140625	0	lower	zerothre.ttf
2492158	WORD	wordpools/wasnorm_wordpool_less_exclusions.txt	LTP278	ltpFR	17	15	1	COWBOY	395	n/a	n/a	1	0.422607421875	0.5869140625	0	lower	zerothre.ttf
2496119	WORD	wordpools/wasnorm_wordpool_less_exclusions.txt	LTP278	ltpFR	17	15	1	WAITRESS	1581	n/a	n/a	1	0.422607421875	0.5869140625	0	lower	zerothre.ttf
2500146	WORD	wordpools/wasnorm_wordpool_less_exclusions.txt	LTP278	ltpFR	17	15	1	LIEUTENANT	818	n/a	n/a	1	0.422607421875	0.5869140625	0	lower	zerothre.ttf
2504207	WORD	wordpools/wasnorm_wordpool_less_exclusions.txt	LTP278	ltpFR	17	15	1	HOUSE	725	n/a	n/a	1	0.422607421875	0.5869140625	0	lower	zerothre.ttf
2508334	WORD	wordpools/wasnorm_wordpool_less_exclusions.txt	LTP278	ltpFR	17	15	1	BOOT	150	n/a	n/a	0	0.422607421875	0.5869140625	0	lower	zerothre.ttf
2512511	WORD	wordpools/wasnorm_wordpool_less_exclusions.txt	LTP278	ltpFR	17	15	1	CLOTHES	327	n/a	n/a	0	0.422607421875	0.5869140625	0	lower	zerothre.ttf
2516722	WORD	wordpools/wasnorm_wordpool_less_exclusions.txt	LTP278	ltpFR	17	15	1	LACE	792	n/a	n/a	0	0.422607421875	0.5869140625	0	lower	zerothre.ttf
2520699	WORD	wordpools/wasnorm_wordpool_less_exclusions.txt	LTP278	ltpFR	17	15	1	WORKER	1621	n/a	n/a	0	0.422607421875	0.5869140625	0	lower	zerothre.ttf
2524743	WORD	wordpools/wasnorm_wordpool_less_exclusions.txt	LTP278	ltpFR	17	15	1	SERVER	1272	n/a	n/a	0	0.422607421875	0.5869140625	0	lower	zerothre.ttf
2528620	WORD	wordpools/wasnorm_wordpool_less_exclusions.txt	LTP278	ltpFR	17	15	1	DICTATOR	462	n/a	n/a	1	0.422607421875	0.5869140625	0	lower	zerothre.ttf
2532598	WORD	wordpools/wasnorm_wordpool_less_exclusions.txt	LTP278	ltpFR	17	15	1	GOWN	652	n/a	n/a	0	0.422607421875	0.5869140625	0	lower	zerothre.ttf
2536692	WORD	wordpools/wasnorm_wordpool_less_exclusions.txt	LTP278	ltpFR	17	15	1	BUILDING	191	n/a	n/a	1	0.422607421875	0.5869140625	0	lower	zerothre.ttf
2542468	REC_START	n/a	LTP278	ltpFR	17	15	n/a	n/a	n/a	n/a	n/a	n/a	n/a	n/a	n/a	n/a	n/a
2543264	REC_WORD	wordpools/wasnorm_wordpool_less_exclusions.txt	LTP278	ltpFR	17	15	1	POLE	1097	n/a	n/a	1	n/a	n/a	n/a	n/a	n/a
2544023	REC_WORD	wordpools/wasnorm_wordpool_less_exclusions.txt	LTP278	ltpFR	17	15	1	ROD	1203	n/a	n/a	0	n/a	n/a	n/a	n/a	n/a
2544841	REC_WORD	wordpools/wasnorm_wordpool_less_exclusions.txt	LTP278	ltpFR	17	15	1	PILL	1068	n/a	n/a	0	n/a	n/a	n/a	n/a	n/a
2545662	REC_WORD	wordpools/wasnorm_wordpool_less_exclusions.txt	LTP278	ltpFR	17	15	1	OINTMENT	974	n/a	n/a	0	n/a	n/a	n/a	n/a	n/a
2546377	REC_WORD	wordpools/wasnorm_wordpool_less_exclusions.txt	LTP278	ltpFR	17	15	1	COWBOY	395	n/a	n/a	1	n/a	n/a	n/a	n/a	n/a
2547184	REC_WORD	wordpools/wasnorm_wordpool_less_exclusions.txt	LTP278	ltpFR	17	15	1	BOOT	150	n/a	n/a	0	n/a	n/a	n/a	n/a	n/a
2547740	REC_WORD	wordpools/wasnorm_wordpool_less_exclusions.txt	LTP278	ltpFR	17	15	1	WAITRESS	1581	n/a	n/a	1	n/a	n/a	n/a	n/a	n/a
2548517	REC_WORD	wordpools/wasnorm_wordpool_less_exclusions.txt	LTP278	ltpFR	17	15	1	WORKER	1621	n/a	n/a	0	n/a	n/a	n/a	n/a	n/a
2549365	REC_WORD	wordpools/wasnorm_wordpool_less_exclusions.txt	LTP278	ltpFR	17	15	1	DICTATOR	462	n/a	n/a	1	n/a	n/a	n/a	n/a	n/a
2550097	REC_WORD	wordpools/wasnorm_wordpool_less_exclusions.txt	LTP278	ltpFR	17	15	1	GOWN	652	n/a	n/a	0	n/a	n/a	n/a	n/a	n/a
2554400	REC_WORD	wordpools/wasnorm_wordpool_less_exclusions.txt	LTP278	ltpFR	17	15	1	BUILDING	191	n/a	n/a	1	n/a	n/a	n/a	n/a	n/a
2558152	REC_WORD	wordpools/wasnorm_wordpool_less_exclusions.txt	LTP278	ltpFR	17	15	1	CLOTHES	327	n/a	n/a	0	n/a	n/a	n/a	n/a	n/a
2559301	REC_WORD	wordpools/wasnorm_wordpool_less_exclusions.txt	LTP278	ltpFR	17	15	1	LACE	792	n/a	n/a	0	n/a	n/a	n/a	n/a	n/a
2626158	WORD	wordpools/wasnorm_wordpool_less_exclusions.txt	LTP278	ltpFR	17	16	-1	SODA	1341	n/a	n/a	-1	1.0	1.0	1	upper	Verdana.ttf
2630269	WORD	wordpools/wasnorm_wordpool_less_exclusions.txt	LTP278	ltpFR	17	16	-1	ELBOW	520	n/a	n/a	-1	1.0	1.0	1	upper	Verdana.ttf
2634346	WORD	wordpools/wasnorm_wordpool_less_exclusions.txt	LTP278	ltpFR	17	16	-1	FOOT	590	n/a	n/a	-1	1.0	1.0	1	upper	Verdana.ttf
2638474	WORD	wordpools/wasnorm_wordpool_less_exclusions.txt	LTP278	ltpFR	17	16	-1	BLUEBERRY	140	n/a	n/a	-1	1.0	1.0	1	upper	Verdana.ttf
2642567	WORD	wordpools/wasnorm_wordpool_less_exclusions.txt	LTP278	ltpFR	17	16	-1	PUMPKIN	1142	n/a	n/a	-1	1.0	1.0	1	upper	Verdana.ttf
2646429	WORD	wordpools/wasnorm_wordpool_less_exclusions.txt	LTP278	ltpFR	17	16	-1	OMELET	976	n/a	n/a	-1	1.0	1.0	1	upper	Verdana.ttf
2650423	WORD	wordpools/wasnorm_wordpool_less_exclusions.txt	LTP278	ltpFR	17	16	-1	BONE	148	n/a	n/a	-1	1.0	1.0	1	upper	Verdana.ttf
2654616	WORD	wordpools/wasnorm_wordpool_less_exclusions.txt	LTP278	ltpFR	17	16	-1	POTATO	1115	n/a	n/a	-1	1.0	1.0	1	upper	Verdana.ttf
2658793	WORD	wordpools/wasnorm_wordpool_less_exclusions.txt	LTP278	ltpFR	17	16	-1	SPOOL	1356	n/a	n/a	-1	1.0	1.0	1	upper	Verdana.ttf
2662787	WORD	wordpools/wasnorm_wordpool_less_exclusions.txt	LTP278	ltpFR	17	16	-1	CABIN	211	n/a	n/a	-1	1.0	1.0	1	upper	Verdana.ttf
2666914	WORD	wordpools/wasnorm_wordpool_less_exclusions.txt	LTP278	ltpFR	17	16	-1	COLESLAW	344	n/a	n/a	-1	1.0	1.0	1	upper	Verdana.ttf
2670758	WORD	wordpools/wasnorm_wordpool_less_exclusions.txt	LTP278	ltpFR	17	16	-1	ARM	38	n/a	n/a	-1	1.0	1.0	1	upper	Verdana.ttf
2674619	WORD	wordpools/wasnorm_wordpool_less_exclusions.txt	LTP278	ltpFR	17	16	-1	ROOM	1206	n/a	n/a	-1	1.0	1.0	1	upper	Verdana.ttf
2678813	WORD	wordpools/wasnorm_wordpool_less_exclusions.txt	LTP278	ltpFR	17	16	-1	ASTEROID	50	n/a	n/a	-1	1.0	1.0	1	upper	Verdana.ttf
2683023	WORD	wordpools/wasnorm_wordpool_less_exclusions.txt	LTP278	ltpFR	17	16	-1	PERISCOPE	1050	n/a	n/a	-1	1.0	1.0	1	upper	Verdana.ttf
2687200	WORD	wordpools/wasnorm_wordpool_less_exclusions.txt	LTP278	ltpFR	17	16	-1	HAM	678	n/a	n/a	-1	1.0	1.0	1	upper	Verdana.ttf
2693175	REC_START	n/a	LTP278	ltpFR	17	16	n/a	n/a	n/a	n/a	n/a	n/a	n/a	n/a	n/a	n/a	n/a
2693643	REC_WORD	wordpools/wasnorm_wordpool_less_exclusions.txt	LTP278	ltpFR	17	16	-1	PERISCOPE	1050	n/a	n/a	-1	n/a	n/a	n/a	n/a	n/a
2694482	REC_WORD	wordpools/wasnorm_wordpool_less_exclusions.txt	LTP278	ltpFR	17	16	-1	OMELET	976	n/a	n/a	-1	n/a	n/a	n/a	n/a	n/a
2695153	REC_WORD	wordpools/wasnorm_wordpool_less_exclusions.txt	LTP278	ltpFR	17	16	-1	HAM	678	n/a	n/a	-1	n/a	n/a	n/a	n/a	n/a
2695827	REC_WORD	wordpools/wasnorm_wordpool_less_exclusions.txt	LTP278	ltpFR	17	16	-1	SODA	1341	n/a	n/a	-1	n/a	n/a	n/a	n/a	n/a
2696603	REC_WORD	wordpools/wasnorm_wordpool_less_exclusions.txt	LTP278	ltpFR	17	16	-1	PUMPKIN	1142	n/a	n/a	-1	n/a	n/a	n/a	n/a	n/a
2697323	REC_WORD	wordpools/wasnorm_wordpool_less_exclusions.txt	LTP278	ltpFR	17	16	-1	BLUEBERRY	140	n/a	n/a	-1	n/a	n/a	n/a	n/a	n/a
2698073	REC_WORD	wordpools/wasnorm_wordpool_less_exclusions.txt	LTP278	ltpFR	17	16	-1	ARM	38	n/a	n/a	-1	n/a	n/a	n/a	n/a	n/a
2698780	REC_WORD	wordpools/wasnorm_wordpool_less_exclusions.txt	LTP278	ltpFR	17	16	-1	ELBOW	520	n/a	n/a	-1	n/a	n/a	n/a	n/a	n/a
2699337	REC_WORD	wordpools/wasnorm_wordpool_less_exclusions.txt	LTP278	ltpFR	17	16	-1	FOOT	590	n/a	n/a	-1	n/a	n/a	n/a	n/a	n/a
2700643	REC_WORD	wordpools/wasnorm_wordpool_less_exclusions.txt	LTP278	ltpFR	17	16	-1	CABIN	211	n/a	n/a	-1	n/a	n/a	n/a	n/a	n/a
2701369	REC_WORD	wordpools/wasnorm_wordpool_less_exclusions.txt	LTP278	ltpFR	17	16	-1	ROOM	1206	n/a	n/a	-1	n/a	n/a	n/a	n/a	n/a
3275290	REC_START	n/a	LTP278	ltpFR	17	1	n/a	n/a	n/a	n/a	n/a	n/a	n/a	n/a	n/a	n/a	n/a
3275322	RECOG_TARGET	n/a	LTP278	ltpFR	17	1	0	TRUMPET	1513	1	3	0	n/a	n/a	n/a	n/a	n/a
3276355	RECOG_RESP	n/a	LTP278	ltpFR	17	1	0	TRUMPET	1513	1	n/a	0	n/a	n/a	n/a	n/a	n/a
3279570	RECOG_CONF	n/a	LTP278	ltpFR	17	1	0	TRUMPET	1513	n/a	3	0	n/a	n/a	n/a	n/a	n/a
3281579	RECOG_TARGET	n/a	LTP278	ltpFR	17	1	-1	FOOT	590	1	4	-1	n/a	n/a	n/a	n/a	n/a
3282300	RECOG_RESP	n/a	LTP278	ltpFR	17	1	-1	FOOT	590	1	n/a	-1	n/a	n/a	n/a	n/a	n/a
3283020	RECOG_CONF	n/a	LTP278	ltpFR	17	1	-1	FOOT	590	n/a	4	-1	n/a	n/a	n/a	n/a	n/a
3284775	RECOG_LURE	n/a	LTP278	ltpFR	17	1	n/a	NITROGEN	954	0	1	n/a	n/a	n/a	n/a	n/a	n/a
3285660	RECOG_RESP	n/a	LTP278	ltpFR	17	1	n/a	NITROGEN	954	0	n/a	n/a	n/a	n/a	n/a	n/a	n/a
3286320	RECOG_CONF	n/a	LTP278	ltpFR	17	1	n/a	NITROGEN	954	n/a	1	n/a	n/a	n/a	n/a	n/a	n/a
3287903	RECOG_TARGET	n/a	LTP278	ltpFR	17	1	1	CONDUCTOR	362	1	4	1	n/a	n/a	n/a	n/a	n/a
3288390	RECOG_RESP	n/a	LTP278	ltpFR	17	1	1	CONDUCTOR	362	1	n/a	1	n/a	n/a	n/a	n/a	n/a
3288860	RECOG_CONF	n/a	LTP278	ltpFR	17	1	1	CONDUCTOR	362	n/a	4	1	n/a	n/a	n/a	n/a	n/a
3290666	RECOG_LURE	n/a	LTP278	ltpFR	17	1	n/a	PUMP	1141	0	3	n/a	n/a	n/a	n/a	n/a	n/a
3291320	RECOG_RESP	n/a	LTP278	ltpFR	17	1	n/a	PUMP	1141	0	n/a	n/a	n/a	n/a	n/a	n/a	n/a
3291800	RECOG_CONF	n/a	LTP278	ltpFR	17	1	n/a	PUMP	1141	n/a	3	n/a	n/a	n/a	n/a	n/a	n/a
3293595	RECOG_TARGET	n/a	LTP278	ltpFR	17	1	1	ANIMAL	23	1	4	1	n/a	n/a	n/a	n/a	n/a
3294075	RECOG_RESP	n/a	LTP278	ltpFR	17	1	1	ANIMAL	23	1	n/a	1	n/a	n/a	n/a	n/a	n/a
3294520	RECOG_CONF	n/a	LTP278	ltpFR	17	1	1	ANIMAL	23	n/a	4	1	n/a	n/a	n/a	n/a	n/a
3296357	RECOG_TARGET	n/a	LTP278	ltpFR	17	1	0	SALMON	1227	1	2	0	n/a	n/a	n/a	n/a	n/a
3296870	RECOG_RESP	n/a	LTP278	ltpFR	17	1	0	SALMON	1227	1	n/a	0	n/a	n/a	n/a	n/a	n/a
3297280	RECOG_CONF	n/a	LTP278	ltpFR	17	1	0	SALMON	1227	n/a	2	0	n/a	n/a	n/a	n/a	n/a
3299203	RECOG_TARGET	n/a	LTP278	ltpFR	17	1	1	CROOK	412	1	1	0	n/a	n/a	n/a	n/a	n/a
3299860	RECOG_RESP	n/a	LTP278	ltpFR	17	1	1	CROOK	412	1	n/a	0	n/a	n/a	n/a	n/a	n/a
3300260	RECOG_CONF	n/a	LTP278	ltpFR	17	1	1	CROOK	412	n/a	1	0	n/a	n/a	n/a	n/a	n/a
3302132	RECOG_TARGET	n/a	LTP278	ltpFR	17	1	1	SUSPECT	1415	1	1	1	n/a	n/a	n/a	n/a	n/a
3302760	RECOG_RESP	n/a	LTP278	ltpFR	17	1	1	SUSPECT	1415	1	n/a	1	n/a	n/a	n/a	n/a	n/a
3303540	RECOG_CONF	n/a	LTP278	ltpFR	17	1	1	SUSPECT	1415	n/a	1	1	n/a	n/a	n/a	n/a	n/a
3305261	RECOG_LURE	n/a	LTP278	ltpFR	17	1	n/a	SHOVEL	1295	0	1	n/a	n/a	n/a	n/a	n/a	n/a
3306175	RECOG_RESP	n/a	LTP278	ltpFR	17	1	n/a	SHOVEL	1295	0	n/a	n/a	n/a	n/a	n/a	n/a	n/a
3306730	RECOG_CONF	n/a	LTP278	ltpFR	17	1	n/a	SHOVEL	1295	n/a	1	n/a	n/a	n/a	n/a	n/a	n/a
3308440	RECOG_TARGET	n/a	LTP278	ltpFR	17	1	0	CHOCOLATE	306	1	4	0	n/a	n/a	n/a	n/a	n/a
3308940	RECOG_RESP	n/a	LTP278	ltpFR	17	1	0	CHOCOLATE	306	1	n/a	0	n/a	n/a	n/a	n/a	n/a
3309370	RECOG_CONF	n/a	LTP278	ltpFR	17	1	0	CHOCOLATE	306	n/a	4	0	n/a	n/a	n/a	n/a	n/a
3311169	RECOG_TARGET	n/a	LTP278	ltpFR	17	1	0	CELLAR	267	1	4	1	n/a	n/a	n/a	n/a	n/a
3311430	RECOG_RESP	n/a	LTP278	ltpFR	17	1	0	CELLAR	267	1	n/a	1	n/a	n/a	n/a	n/a	n/a
3311880	RECOG_CONF	n/a	LTP278	ltpFR	17	1	0	CELLAR	267	n/a	4	1	n/a	n/a	n/a	n/a	n/a
3313598	RECOG_TARGET	n/a	LTP278	ltpFR	17	1	1	MISTER	901	1	5	1	n/a	n/a	n/a	n/a	n/a
3314260	RECOG_RESP	n/a	LTP278	ltpFR	17	1	1	MISTER	901	1	n/a	1	n/a	n/a	n/a	n/a	n/a
3314710	RECOG_CONF	n/a	LTP278	ltpFR	17	1	1	MISTER	901	n/a	5	1	n/a	n/a	n/a	n/a	n/a
3316544	RECOG_TARGET	n/a	LTP278	ltpFR	17	1	-1	ERASER	538	1	1	-1	n/a	n/a	n/a	n/a	n/a
3316865	RECOG_RESP	n/a	LTP278	ltpFR	17	1	-1	ERASER	538	1	n/a	-1	n/a	n/a	n/a	n/a	n/a
3317590	RECOG_CONF	n/a	LTP278	ltpFR	17	1	-1	ERASER	538	n/a	1	-1	n/a	n/a	n/a	n/a	n/a
3319424	RECOG_TARGET	n/a	LTP278	ltpFR	17	1	-1	CAGE	218	1	2	-1	n/a	n/a	n/a	n/a	n/a
3319705	RECOG_RESP	n/a	LTP278	ltpFR	17	1	-1	CAGE	218	1	n/a	-1	n/a	n/a	n/a	n/a	n/a
3320130	RECOG_CONF	n/a	LTP278	ltpFR	17	1	-1	CAGE	218	n/a	2	-1	n/a	n/a	n/a	n/a	n/a
3321886	RECOG_TARGET	n/a	LTP278	ltpFR	17	1	1	SERVER	1272	1	3	0	n/a	n/a	n/a	n/a	n/a
3322420	RECOG_RESP	n/a	LTP278	ltpFR	17	1	1	SERVER	1272	1	n/a	0	n/a	n/a	n/a	n/a	n/a
3322850	RECOG_CONF	n/a	LTP278	ltpFR	17	1	1	SERVER	1272	n/a	3	0	n/a	n/a	n/a	n/a	n/a
3324532	RECOG_TARGET	n/a	LTP278	ltpFR	17	1	-1	JUGGLER	763	1	4	-1	n/a	n/a	n/a	n/a	n/a
3325310	RECOG_RESP	n/a	LTP278	ltpFR	17	1	-1	JUGGLER	763	1	n/a	-1	n/a	n/a	n/a	n/a	n/a
3325700	RECOG_CONF	n/a	LTP278	ltpFR	17	1	-1	JUGGLER	763	n/a	4	-1	n/a	n/a	n/a	n/a	n/a
3327311	RECOG_TARGET	n/a	LTP278	ltpFR	17	1	1	WORKER	1621	1	4	0	n/a	n/a	n/a	n/a	n/a
3328440	RECOG_RESP	n/a	LTP278	ltpFR	17	1	1	WORKER	1621	1	n/a	0	n/a	n/a	n/a	n/a	n/a
3328820	RECOG_CONF	n/a	LTP278	ltpFR	17	1	1	WORKER	1621	n/a	4	0	n/a	n/a	n/a	n/a	n/a
3330540	RECOG_TARGET	n/a	LTP278	ltpFR	17	1	0	COW	393	1	5	1	n/a	n/a	n/a	n/a	n/a
3331315	RECOG_RESP	n/a	LTP278	ltpFR	17	1	0	COW	393	1	n/a	1	n/a	n/a	n/a	n/a	n/a
3331750	RECOG_CONF	n/a	LTP278	ltpFR	17	1	0	COW	393	n/a	5	1	n/a	n/a	n/a	n/a	n/a
3338062	RECOG_LURE	n/a	LTP278	ltpFR	17	1	n/a	SICKLE	1302	0	1	n/a	n/a	n/a	n/a	n/a	n/a
3339245	RECOG_RESP	n/a	LTP278	ltpFR	17	1	n/a	SICKLE	1302	0	n/a	n/a	n/a	n/a	n/a	n/a	n/a
3339870	RECOG_CONF	n/a	LTP278	ltpFR	17	1	n/a	SICKLE	1302	n/a	1	n/a	n/a	n/a	n/a	n/a	n/a
3343159	REC_START	n/a	LTP278	ltpFR	17	2	n/a	n/a	n/a	n/a	n/a	n/a	n/a	n/a	n/a	n/a	n/a
3343187	RECOG_TARGET	n/a	LTP278	ltpFR	17	2	1	SENATE	1267	1	3	1	n/a	n/a	n/a	n/a	n/a
3346509	RECOG_RESP	n/a	LTP278	ltpFR	17	2	1	SENATE	1267	1	n/a	1	n/a	n/a	n/a	n/a	n/a
3347019	RECOG_CONF	n/a	LTP278	ltpFR	17	2	1	SENATE	1267	n/a	3	1	n/a	n/a	n/a	n/a	n/a
3348746	RECOG_TARGET	n/a	LTP278	ltpFR	17	2	1	TOE	1473	0	1	0	n/a	n/a	n/a	n/a	n/a
3349499	RECOG_RESP	n/a	LTP278	ltpFR	17	2	1	TOE	1473	0	n/a	0	n/a	n/a	n/a	n/a	n/a
3350069	RECOG_CONF	n/a	LTP278	ltpFR	17	2	1	TOE	1473	n/a	1	0	n/a	n/a	n/a	n/a	n/a
3351592	RECOG_TARGET	n/a	LTP278	ltpFR	17	2	-1	OMELET	976	1	4	-1	n/a	n/a	n/a	n/a	n/a
3351874	RECOG_RESP	n/a	LTP278	ltpFR	17	2	-1	OMELET	976	1	n/a	-1	n/a	n/a	n/a	n/a	n/a
3352339	RECOG_CONF	n/a	LTP278	ltpFR	17	2	-1	OMELET	976	n/a	4	-1	n/a	n/a	n/a	n/a	n/a
3353888	RECOG_TARGET	n/a	LTP278	ltpFR	17	2	1	CAULIFLOWER	262	1	3	0	n/a	n/a	n/a	n/a	n/a
3354764	RECOG_RESP	n/a	LTP278	ltpFR	17	2	1	CAULIFLOWER	262	1	n/a	0	n/a	n/a	n/a	n/a	n/a
3355209	RECOG_CONF	n/a	LTP278	ltpFR	17	2	1	CAULIFLOWER	262	n/a	3	0	n/a	n/a	n/a	n/a	n/a
3357017	RECOG_TARGET	n/a	LTP278	ltpFR	17	2	1	HAYSTACK	694	1	5	0	n/a	n/a	n/a	n/a	n/a
3357644	RECOG_RESP	n/a	LTP278	ltpFR	17	2	1	HAYSTACK	694	1	n/a	0	n/a	n/a	n/a	n/a	n/a
3358089	RECOG_CONF	n/a	LTP278	ltpFR	17	2	1	HAYSTACK	694	n/a	5	0	n/a	n/a	n/a	n/a	n/a
3359580	RECOG_TARGET	n/a	LTP278	ltpFR	17	2	0	DICE	461	1	5	0	n/a	n/a	n/a	n/a	n/a
3360109	RECOG_RESP	n/a	LTP278	ltpFR	17	2	0	DICE	461	1	n/a	0	n/a	n/a	n/a	n/a	n/a
3360469	RECOG_CONF	n/a	LTP278	ltpFR	17	2	0	DICE	461	n/a	5	0	n/a	n/a	n/a	n/a	n/a
3361976	RECOG_TARGET	n/a	LTP278	ltpFR	17	2	1	VETERAN	1561	1	4	1	n/a	n/a	n/a	n/a	n/a
3362504	RECOG_RESP	n/a	LTP278	ltpFR	17	2	1	VETERAN	1561	1	n/a	1	n/a	n/a	n/a	n/a	n/a
3362799	RECOG_CONF	n/a	LTP278	ltpFR	17	2	1	VETERAN	1561	n/a	4	1	n/a	n/a	n/a	n/a	n/a
3364389	RECOG_LURE	n/a	LTP278	ltpFR	17	2	n/a	BIBLE	124	0	3	n/a	n/a	n/a	n/a	n/a	n/a
3364839	RECOG_RESP_VV	n/a	LTP278	ltpFR	17	2	n/a	BIBLE	124	1	n/a	n/a	n/a	n/a	n/a	n/a	n/a
3365377	RECOG_RESP	n/a	LTP278	ltpFR	17	2	n/a	BIBLE	124	0	n/a	n/a	n/a	n/a	n/a	n/a	n/a
3366029	RECOG_CONF	n/a	LTP278	ltpFR	17	2	n/a	BIBLE	124	n/a	3	n/a	n/a	n/a	n/a	n/a	n/a
3367568	RECOG_TARGET	n/a	LTP278	ltpFR	17	2	0	IGLOO	734	1	1	0	n/a	n/a	n/a	n/a	n/a
3368149	RECOG_RESP	n/a	LTP278	ltpFR	17	2	0	IGLOO	734	1	n/a	0	n/a	n/a	n/a	n/a	n/a
3368639	RECOG_CONF	n/a	LTP278	ltpFR	17	2	0	IGLOO	734	n/a	1	0	n/a	n/a	n/a	n/a	n/a
3370230	RECOG_TARGET	n/a	LTP278	ltpFR	17	2	0	BEAVER	109	1	4	1	n/a	n/a	n/a	n/a	n/a
3370609	RECOG_RESP	n/a	LTP278	ltpFR	17	2	0	BEAVER	109	1	n/a	1	n/a	n/a	n/a	n/a	n/a
3370969	RECOG_CONF	n/a	LTP278	ltpFR	17	2	0	BEAVER	109	n/a	4	1	n/a	n/a	n/a	n/a	n/a
3372793	RECOG_TARGET	n/a	LTP278	ltpFR	17	2	1	BOOT	150	1	5	0	n/a	n/a	n/a	n/a	n/a
3373449	RECOG_RESP	n/a	LTP278	ltpFR	17	2	1	BOOT	150	1	n/a	0	n/a	n/a	n/a	n/a	n/a
3373829	RECOG_CONF	n/a	LTP278	ltpFR	17	2	1	BOOT	150	n/a	5	0	n/a	n/a	n/a	n/a	n/a
3375589	RECOG_TARGET	n/a	LTP278	ltpFR	17	2	1	KIWI	781	1	3	0	n/a	n/a	n/a	n/a	n/a
3376179	RECOG_RESP	n/a	LTP278	ltpFR	17	2	1	KIWI	781	1	n/a	0	n/a	n/a	n/a	n/a	n/a
3376679	RECOG_CONF	n/a	LTP278	ltpFR	17	2	1	KIWI	781	n/a	3	0	n/a	n/a	n/a	n/a	n/a
3378168	RECOG_TARGET	n/a	LTP278	ltpFR	17	2	-1	WATERFALL	1595	1	4	-1	n/a	n/a	n/a	n/a	n/a
3378804	RECOG_RESP	n/a	LTP278	ltpFR	17	2	-1	WATERFALL	1595	1	n/a	-1	n/a	n/a	n/a	n/a	n/a
3379159	RECOG_CONF	n/a	LTP278	ltpFR	17	2	-1	WATERFALL	1595	n/a	4	-1	n/a	n/a	n/a	n/a	n/a
3381048	RECOG_LURE	n/a	LTP278	ltpFR	17	2	n/a	MACARONI	851	1	4	n/a	n/a	n/a	n/a	n/a	n/a
3381514	RECOG_RESP	n/a	LTP278	ltpFR	17	2	n/a	MACARONI	851	1	n/a	n/a	n/a	n/a	n/a	n/a	n/a
3381959	RECOG_CONF	n/a	LTP278	ltpFR	17	2	n/a	MACARONI	851	n/a	4	n/a	n/a	n/a	n/a	n/a	n/a
3383478	RECOG_LURE	n/a	LTP278	ltpFR	17	2	n/a	SWEATER	1419	0	1	n/a	n/a	n/a	n/a	n/a	n/a
3384499	RECOG_RESP	n/a	LTP278	ltpFR	17	2	n/a	SWEATER	1419	0	n/a	n/a	n/a	n/a	n/a	n/a	n/a
3384949	RECOG_CONF	n/a	LTP278	ltpFR	17	2	n/a	SWEATER	1419	n/a	1	n/a	n/a	n/a	n/a	n/a	n/a
3386639	RECOG_TARGET	n/a	LTP278	ltpFR	17	2	1	SENATOR	1268	1	5	1	n/a	n/a	n/a	n/a	n/a
3387304	RECOG_RESP	n/a	LTP278	ltpFR	17	2	1	SENATOR	1268	1	n/a	1	n/a	n/a	n/a	n/a	n/a
3387729	RECOG_CONF	n/a	LTP278	ltpFR	17	2	1	SENATOR	1268	n/a	5	1	n/a	n/a	n/a	n/a	n/a
3389302	RECOG_TARGET	n/a	LTP278	ltpFR	17	2	0	CLIPPERS	324	1	1	0	n/a	n/a	n/a	n/a	n/a
3389834	RECOG_RESP	n/a	LTP278	ltpFR	17	2	0	CLIPPERS	324	1	n/a	0	n/a	n/a	n/a	n/a	n/a
3390229	RECOG_CONF	n/a	LTP278	ltpFR	17	2	0	CLIPPERS	324	n/a	1	0	n/a	n/a	n/a	n/a	n/a
3391931	RECOG_TARGET	n/a	LTP278	ltpFR	17	2	0	GLASS	639	1	4	1	n/a	n/a	n/a	n/a	n/a
3392514	RECOG_RESP	n/a	LTP278	ltpFR	17	2	0	GLASS	639	1	n/a	1	n/a	n/a	n/a	n/a	n/a
3392949	RECOG_CONF	n/a	LTP278	ltpFR	17	2	0	GLASS	639	n/a	4	1	n/a	n/a	n/a	n/a	n/a
3394478	RECOG_TARGET	n/a	LTP278	ltpFR	17	2	-1	PLUM	1090	1	5	-1	n/a	n/a	n/a	n/a	n/a
3395349	RECOG_RESP	n/a	LTP278	ltpFR	17	2	-1	PLUM	1090	1	n/a	-1	n/a	n/a	n/a	n/a	n/a
3395739	RECOG_CONF	n/a	LTP278	ltpFR	17	2	-1	PLUM	1090	n/a	5	-1	n/a	n/a	n/a	n/a	n/a
3397357	RECOG_TARGET	n/a	LTP278	ltpFR	17	2	-1	SHOWER	1296	1	3	-1	n/a	n/a	n/a	n/a	n/a
3398054	RECOG_RESP	n/a	LTP278	ltpFR	17	2	-1	SHOWER	1296	1	n/a	-1	n/a	n/a	n/a	n/a	n/a
3398499	RECOG_CONF	n/a	LTP278	ltpFR	17	2	-1	SHOWER	1296	n/a	3	-1	n/a	n/a	n/a	n/a	n/a
3401511	REC_START	n/a	LTP278	ltpFR	17	3	n/a	n/a	n/a	n/a	n/a	n/a	n/a	n/a	n/a	n/a	n/a
3401550	RECOG_LURE	n/a	LTP278	ltpFR	17	3	n/a	DRAGON	492	1	1	n/a	n/a	n/a	n/a	n/a	n/a
3402041	RECOG_RESP	n/a	LTP278	ltpFR	17	3	n/a	DRAGON	492	1	n/a	n/a	n/a	n/a	n/a	n/a	n/a
3402441	RECOG_CONF	n/a	LTP278	ltpFR	17	3	n/a	DRAGON	492	n/a	1	n/a	n/a	n/a	n/a	n/a	n/a
3404612	RECOG_TARGET	n/a	LTP278	ltpFR	17	3	0	CARD	243	1	4	0	n/a	n/a	n/a	n/a	n/a
3405651	RECOG_RESP	n/a	LTP278	ltpFR	17	3	0	CARD	243	1	n/a	0	n/a	n/a	n/a	n/a	n/a
3406011	RECOG_CONF	n/a	LTP278	ltpFR	17	3	0	CARD	243	n/a	4	0	n/a	n/a	n/a	n/a	n/a
3407674	RECOG_TARGET	n/a	LTP278	ltpFR	17	3	0	UMPIRE	1535	1	5	0	n/a	n/a	n/a	n/a	n/a
3407766	RECOG_RESP	n/a	LTP278	ltpFR	17	3	0	UMPIRE	1535	1	n/a	0	n/a	n/a	n/a	n/a	n/a
3408421	RECOG_CONF	n/a	LTP278	ltpFR	17	3	0	UMPIRE	1535	n/a	5	0	n/a	n/a	n/a	n/a	n/a
3410370	RECOG_TARGET	n/a	LTP278	ltpFR	17	3	-1	MILITARY	894	1	3	-1	n/a	n/a	n/a	n/a	n/a
3410891	RECOG_RESP	n/a	LTP278	ltpFR	17	3	-1	MILITARY	894	1	n/a	-1	n/a	n/a	n/a	n/a	n/a
3411401	RECOG_CONF	n/a	LTP278	ltpFR	17	3	-1	MILITARY	894	n/a	3	-1	n/a	n/a	n/a	n/a	n/a
3412933	RECOG_LURE	n/a	LTP278	ltpFR	17	3	n/a	WIDOW	1608	1	1	n/a	n/a	n/a	n/a	n/a	n/a
3414581	RECOG_RESP	n/a	LTP278	ltpFR	17	3	n/a	WIDOW	1608	1	n/a	n/a	n/a	n/a	n/a	n/a	n/a
3415101	RECOG_CONF	n/a	LTP278	ltpFR	17	3	n/a	WIDOW	1608	n/a	1	n/a	n/a	n/a	n/a	n/a	n/a
3416744	RECOG_TARGET	n/a	LTP278	ltpFR	17	3	-1	CONTRACTOR	369	1	4	-1	n/a	n/a	n/a	n/a	n/a
3417411	RECOG_RESP	n/a	LTP278	ltpFR	17	3	-1	CONTRACTOR	369	1	n/a	-1	n/a	n/a	n/a	n/a	n/a
3417781	RECOG_CONF	n/a	LTP278	ltpFR	17	3	-1	CONTRACTOR	369	n/a	4	-1	n/a	n/a	n/a	n/a	n/a
3419340	RECOG_TARGET	n/a	LTP278	ltpFR	17	3	-1	BLACKBOARD	133	0	3	-1	n/a	n/a	n/a	n/a	n/a
3420101	RECOG_RESP	n/a	LTP278	ltpFR	17	3	-1	BLACKBOARD	133	0	n/a	-1	n/a	n/a	n/a	n/a	n/a
3420701	RECOG_CONF	n/a	LTP278	ltpFR	17	3	-1	BLACKBOARD	133	n/a	3	-1	n/a	n/a	n/a	n/a	n/a
3422086	RECOG_TARGET	n/a	LTP278	ltpFR	17	3	1	BUILDING	191	1	4	1	n/a	n/a	n/a	n/a	n/a
3423701	RECOG_RESP	n/a	LTP278	ltpFR	17	3	1	BUILDING	191	1	n/a	1	n/a	n/a	n/a	n/a	n/a
3424141	RECOG_CONF	n/a	LTP278	ltpFR	17	3	1	BUILDING	191	n/a	4	1	n/a	n/a	n/a	n/a	n/a
3425914	RECOG_TARGET	n/a	LTP278	ltpFR	17	3	0	CHERRY	293	1	2	0	n/a	n/a	n/a	n/a	n/a
3426846	RECOG_RESP	n/a	LTP278	ltpFR	17	3	0	CHERRY	293	1	n/a	0	n/a	n/a	n/a	n/a	n/a
3427261	RECOG_CONF	n/a	LTP278	ltpFR	17	3	0	CHERRY	293	n/a	2	0	n/a	n/a	n/a	n/a	n/a
3429059	RECOG_TARGET	n/a	LTP278	ltpFR	17	3	0	CRATER	400	1	1	0	n/a	n/a	n/a	n/a	n/a
3429576	RECOG_RESP	n/a	LTP278	ltpFR	17	3	0	CRATER	400	1	n/a	0	n/a	n/a	n/a	n/a	n/a
3429991	RECOG_CONF	n/a	LTP278	ltpFR	17	3	0	CRATER	400	n/a	1	0	n/a	n/a	n/a	n/a	n/a
3431755	RECOG_LURE	n/a	LTP278	ltpFR	17	3	n/a	COUNTRY	388	0	1	n/a	n/a	n/a	n/a	n/a	n/a
3432571	RECOG_RESP	n/a	LTP278	ltpFR	17	3	n/a	COUNTRY	388	0	n/a	n/a	n/a	n/a	n/a	n/a	n/a
3433051	RECOG_CONF	n/a	LTP278	ltpFR	17	3	n/a	COUNTRY	388	n/a	1	n/a	n/a	n/a	n/a	n/a	n/a
3434651	RECOG_TARGET	n/a	LTP278	ltpFR	17	3	0	BRACES	164	1	4	0	n/a	n/a	n/a	n/a	n/a
3435321	RECOG_RESP	n/a	LTP278	ltpFR	17	3	0	BRACES	164	1	n/a	0	n/a	n/a	n/a	n/a	n/a
3435721	RECOG_CONF	n/a	LTP278	ltpFR	17	3	0	BRACES	164	n/a	4	0	n/a	n/a	n/a	n/a	n/a
3437380	RECOG_TARGET	n/a	LTP278	ltpFR	17	3	-1	LEAF	808	1	4	-1	n/a	n/a	n/a	n/a	n/a
3438126	RECOG_RESP	n/a	LTP278	ltpFR	17	3	-1	LEAF	808	1	n/a	-1	n/a	n/a	n/a	n/a	n/a
3438531	RECOG_CONF	n/a	LTP278	ltpFR	17	3	-1	LEAF	808	n/a	4	-1	n/a	n/a	n/a	n/a	n/a
3440209	RECOG_TARGET	n/a	LTP278	ltpFR	17	3	1	MONGOOSE	909	1	5	1	n/a	n/a	n/a	n/a	n/a
3440951	RECOG_RESP	n/a	LTP278	ltpFR	17	3	1	MONGOOSE	909	1	n/a	1	n/a	n/a	n/a	n/a	n/a
3441311	RECOG_CONF	n/a	LTP278	ltpFR	17	3	1	MONGOOSE	909	n/a	5	1	n/a	n/a	n/a	n/a	n/a
3442922	RECOG_TARGET	n/a	LTP278	ltpFR	17	3	1	WAGON	1578	1	2	0	n/a	n/a	n/a	n/a	n/a
3443651	RECOG_RESP	n/a	LTP278	ltpFR	17	3	1	WAGON	1578	1	n/a	0	n/a	n/a	n/a	n/a	n/a
3444051	RECOG_CONF	n/a	LTP278	ltpFR	17	3	1	WAGON	1578	n/a	2	0	n/a	n/a	n/a	n/a	n/a
3445751	RECOG_LURE	n/a	LTP278	ltpFR	17	3	n/a	SLACKS	1323	0	5	n/a	n/a	n/a	n/a	n/a	n/a
3447331	RECOG_RESP	n/a	LTP278	ltpFR	17	3	n/a	SLACKS	1323	0	n/a	n/a	n/a	n/a	n/a	n/a	n/a
3447881	RECOG_CONF	n/a	LTP278	ltpFR	17	3	n/a	SLACKS	1323	n/a	5	n/a	n/a	n/a	n/a	n/a	n/a
3449712	RECOG_TARGET	n/a	LTP278	ltpFR	17	3	-1	DUMP	505	1	4	-1	n/a	n/a	n/a	n/a	n/a
3450381	RECOG_RESP	n/a	LTP278	ltpFR	17	3	-1	DUMP	505	1	n/a	-1	n/a	n/a	n/a	n/a	n/a
3450801	RECOG_CONF	n/a	LTP278	ltpFR	17	3	-1	DUMP	505	n/a	4	-1	n/a	n/a	n/a	n/a	n/a
3452459	RECOG_TARGET	n/a	LTP278	ltpFR	17	3	0	TIE	1466	1	5	0	n/a	n/a	n/a	n/a	n/a
3453181	RECOG_RESP	n/a	LTP278	ltpFR	17	3	0	TIE	1466	1	n/a	0	n/a	n/a	n/a	n/a	n/a
3453591	RECOG_CONF	n/a	LTP278	ltpFR	17	3	0	TIE	1466	n/a	5	0	n/a	n/a	n/a	n/a	n/a
3455087	RECOG_TARGET	n/a	LTP278	ltpFR	17	3	1	OINTMENT	974	1	3	0	n/a	n/a	n/a	n/a	n/a
3455856	RECOG_RESP	n/a	LTP278	ltpFR	17	3	1	OINTMENT	974	1	n/a	0	n/a	n/a	n/a	n/a	n/a
3456221	RECOG_CONF	n/a	LTP278	ltpFR	17	3	1	OINTMENT	974	n/a	3	0	n/a	n/a	n/a	n/a	n/a
3457750	RECOG_TARGET	n/a	LTP278	ltpFR	17	3	0	CRAB	397	1	4	1	n/a	n/a	n/a	n/a	n/a
3458476	RECOG_RESP	n/a	LTP278	ltpFR	17	3	0	CRAB	397	1	n/a	1	n/a	n/a	n/a	n/a	n/a
3458851	RECOG_CONF	n/a	LTP278	ltpFR	17	3	0	CRAB	397	n/a	4	1	n/a	n/a	n/a	n/a	n/a
3461932	REC_START	n/a	LTP278	ltpFR	17	4	n/a	n/a	n/a	n/a	n/a	n/a	n/a	n/a	n/a	n/a	n/a
3461960	RECOG_TARGET	n/a	LTP278	ltpFR	17	4	1	HOUSE	725	1	2	1	n/a	n/a	n/a	n/a	n/a
3462657	RECOG_RESP	n/a	LTP278	ltpFR	17	4	1	HOUSE	725	1	n/a	1	n/a	n/a	n/a	n/a	n/a
3463062	RECOG_CONF	n/a	LTP278	ltpFR	17	4	1	HOUSE	725	n/a	2	1	n/a	n/a	n/a	n/a	n/a
3464839	RECOG_TARGET	n/a	LTP278	ltpFR	17	4	1	PASSAGE	1019	1	4	0	n/a	n/a	n/a	n/a	n/a
3465442	RECOG_RESP	n/a	LTP278	ltpFR	17	4	1	PASSAGE	1019	1	n/a	0	n/a	n/a	n/a	n/a	n/a
3465872	RECOG_CONF	n/a	LTP278	ltpFR	17	4	1	PASSAGE	1019	n/a	4	0	n/a	n/a	n/a	n/a	n/a
3467369	RECOG_TARGET	n/a	LTP278	ltpFR	17	4	-1	PIGEON	1065	1	5	-1	n/a	n/a	n/a	n/a	n/a
3467992	RECOG_RESP	n/a	LTP278	ltpFR	17	4	-1	PIGEON	1065	1	n/a	-1	n/a	n/a	n/a	n/a	n/a
3468382	RECOG_CONF	n/a	LTP278	ltpFR	17	4	-1	PIGEON	1065	n/a	5	-1	n/a	n/a	n/a	n/a	n/a
3469898	RECOG_TARGET	n/a	LTP278	ltpFR	17	4	0	SOAP	1337	1	4	0	n/a	n/a	n/a	n/a	n/a
3470627	RECOG_RESP	n/a	LTP278	ltpFR	17	4	0	SOAP	1337	1	n/a	0	n/a	n/a	n/a	n/a	n/a
3470952	RECOG_CONF	n/a	LTP278	ltpFR	17	4	0	SOAP	1337	n/a	4	0	n/a	n/a	n/a	n/a	n/a
3472627	RECOG_LURE	n/a	LTP278	ltpFR	17	4	n/a	BANNER	85	0	1	n/a	n/a	n/a	n/a	n/a	n/a
3473282	RECOG_RESP	n/a	LTP278	ltpFR	17	4	n/a	BANNER	85	0	n/a	n/a	n/a	n/a	n/a	n/a	n/a
3473782	RECOG_CONF	n/a	LTP278	ltpFR	17	4	n/a	BANNER	85	n/a	1	n/a	n/a	n/a	n/a	n/a	n/a
3475373	RECOG_TARGET	n/a	LTP278	ltpFR	17	4	1	TREAT	1501	1	4	0	n/a	n/a	n/a	n/a	n/a
3475912	RECOG_RESP	n/a	LTP278	ltpFR	17	4	1	TREAT	1501	1	n/a	0	n/a	n/a	n/a	n/a	n/a
3476242	RECOG_CONF	n/a	LTP278	ltpFR	17	4	1	TREAT	1501	n/a	4	0	n/a	n/a	n/a	n/a	n/a
3477853	RECOG_TARGET	n/a	LTP278	ltpFR	17	4	0	SNORKEL	1336	1	4	0	n/a	n/a	n/a	n/a	n/a
3478272	RECOG_RESP	n/a	LTP278	ltpFR	17	4	0	SNORKEL	1336	1	n/a	0	n/a	n/a	n/a	n/a	n/a
3478622	RECOG_CONF	n/a	LTP278	ltpFR	17	4	0	SNORKEL	1336	n/a	4	0	n/a	n/a	n/a	n/a	n/a
3480333	RECOG_TARGET	n/a	LTP278	ltpFR	17	4	0	CHALK	276	1	3	0	n/a	n/a	n/a	n/a	n/a
3480952	RECOG_RESP	n/a	LTP278	ltpFR	17	4	0	CHALK	276	1	n/a	0	n/a	n/a	n/a	n/a	n/a
3481312	RECOG_CONF	n/a	LTP278	ltpFR	17	4	0	CHALK	276	n/a	3	0	n/a	n/a	n/a	n/a	n/a
3487855	RECOG_TARGET	n/a	LTP278	ltpFR	17	4	1	SHORTCAKE	1292	1	5	0	n/a	n/a	n/a	n/a	n/a
3488657	RECOG_RESP	n/a	LTP278	ltpFR	17	4	1	SHORTCAKE	1292	1	n/a	0	n/a	n/a	n/a	n/a	n/a
3489072	RECOG_CONF	n/a	LTP278	ltpFR	17	4	1	SHORTCAKE	1292	n/a	5	0	n/a	n/a	n/a	n/a	n/a
3490900	RECOG_TARGET	n/a	LTP278	ltpFR	17	4	1	PUCK	1138	1	3	0	n/a	n/a	n/a	n/a	n/a
3491747	RECOG_RESP	n/a	LTP278	ltpFR	17	4	1	PUCK	1138	1	n/a	0	n/a	n/a	n/a	n/a	n/a
3492192	RECOG_CONF	n/a	LTP278	ltpFR	17	4	1	PUCK	1138	n/a	3	0	n/a	n/a	n/a	n/a	n/a
3493862	RECOG_TARGET	n/a	LTP278	ltpFR	17	4	-1	ONION	977	1	4	-1	n/a	n/a	n/a	n/a	n/a
3494452	RECOG_RESP	n/a	LTP278	ltpFR	17	4	-1	ONION	977	1	n/a	-1	n/a	n/a	n/a	n/a	n/a
3494852	RECOG_CONF	n/a	LTP278	ltpFR	17	4	-1	ONION	977	n/a	4	-1	n/a	n/a	n/a	n/a	n/a
3496460	RECOG_TARGET	n/a	LTP278	ltpFR	17	4	-1	PUMPKIN	1142	1	5	-1	n/a	n/a	n/a	n/a	n/a
3497187	RECOG_RESP	n/a	LTP278	ltpFR	17	4	-1	PUMPKIN	1142	1	n/a	-1	n/a	n/a	n/a	n/a	n/a
3497572	RECOG_CONF	n/a	LTP278	ltpFR	17	4	-1	PUMPKIN	1142	n/a	5	-1	n/a	n/a	n/a	n/a	n/a
3499171	RECOG_TARGET	n/a	LTP278	ltpFR	17	4	0	PASTRY	1022	1	4	0	n/a	n/a	n/a	n/a	n/a
3499932	RECOG_RESP	n/a	LTP278	ltpFR	17	4	0	PASTRY	1022	1	n/a	0	n/a	n/a	n/a	n/a	n/a
3500322	RECOG_CONF	n/a	LTP278	ltpFR	17	4	0	PASTRY	1022	n/a	4	0	n/a	n/a	n/a	n/a	n/a
3502084	RECOG_TARGET	n/a	LTP278	ltpFR	17	4	1	PARSLEY	1016	1	1	0	n/a	n/a	n/a	n/a	n/a
3502887	RECOG_RESP	n/a	LTP278	ltpFR	17	4	1	PARSLEY	1016	1	n/a	0	n/a	n/a	n/a	n/a	n/a
3503482	RECOG_CONF	n/a	LTP278	ltpFR	17	4	1	PARSLEY	1016	n/a	1	0	n/a	n/a	n/a	n/a	n/a
3505212	RECOG_TARGET	n/a	LTP278	ltpFR	17	4	-1	POTATO	1115	0	3	-1	n/a	n/a	n/a	n/a	n/a
3506076	RECOG_RESP	n/a	LTP278	ltpFR	17	4	-1	POTATO	1115	0	n/a	-1	n/a	n/a	n/a	n/a	n/a
3506532	RECOG_CONF	n/a	LTP278	ltpFR	17	4	-1	POTATO	1115	n/a	3	-1	n/a	n/a	n/a	n/a	n/a
3508307	RECOG_TARGET	n/a	LTP278	ltpFR	17	4	0	JAW	751	1	4	0	n/a	n/a	n/a	n/a	n/a
3508757	RECOG_RESP	n/a	LTP278	ltpFR	17	4	0	JAW	751	1	n/a	0	n/a	n/a	n/a	n/a	n/a
3509162	RECOG_CONF	n/a	LTP278	ltpFR	17	4	0	JAW	751	n/a	4	0	n/a	n/a	n/a	n/a	n/a
3510820	RECOG_LURE	n/a	LTP278	ltpFR	17	4	n/a	KITTEN	780	1	3	n/a	n/a	n/a	n/a	n/a	n/a
3511172	RECOG_RESP	n/a	LTP278	ltpFR	17	4	n/a	KITTEN	780	1	n/a	n/a	n/a	n/a	n/a	n/a	n/a
3511572	RECOG_CONF	n/a	LTP278	ltpFR	17	4	n/a	KITTEN	780	n/a	3	n/a	n/a	n/a	n/a	n/a	n/a
3513350	RECOG_TARGET	n/a	LTP278	ltpFR	17	4	1	ARENA	37	1	5	1	n/a	n/a	n/a	n/a	n/a
3513982	RECOG_RESP	n/a	LTP278	ltpFR	17	4	1	ARENA	37	1	n/a	1	n/a	n/a	n/a	n/a	n/a
3514332	RECOG_CONF	n/a	LTP278	ltpFR	17	4	1	ARENA	37	n/a	5	1	n/a	n/a	n/a	n/a	n/a
3516029	RECOG_TARGET	n/a	LTP278	ltpFR	17	4	0	STAPLE	1371	1	4	0	n/a	n/a	n/a	n/a	n/a
3516562	RECOG_RESP	n/a	LTP278	ltpFR	17	4	0	STAPLE	1371	1	n/a	0	n/a	n/a	n/a	n/a	n/a
3516952	RECOG_CONF	n/a	LTP278	ltpFR	17	4	0	STAPLE	1371	n/a	4	0	n/a	n/a	n/a	n/a	n/a
3518625	RECOG_LURE	n/a	LTP278	ltpFR	17	4	n/a	TAIL	1430	1	2	n/a	n/a	n/a	n/a	n/a	n/a
3519077	RECOG_RESP	n/a	LTP278	ltpFR	17	4	n/a	TAIL	1430	1	n/a	n/a	n/a	n/a	n/a	n/a	n/a
3519462	RECOG_CONF	n/a	LTP278	ltpFR	17	4	n/a	TAIL	1430	n/a	2	n/a	n/a	n/a	n/a	n/a	n/a
3522565	REC_START	n/a	LTP278	ltpFR	17	5	n/a	n/a	n/a	n/a	n/a	n/a	n/a	n/a	n/a	n/a	n/a
3522603	RECOG_LURE	n/a	LTP278	ltpFR	17	5	n/a	XEROX	1628	1	4	n/a	n/a	n/a	n/a	n/a	n/a
3523075	RECOG_RESP	n/a	LTP278	ltpFR	17	5	n/a	XEROX	1628	1	n/a	n/a	n/a	n/a	n/a	n/a	n/a
3523455	RECOG_CONF	n/a	LTP278	ltpFR	17	5	n/a	XEROX	1628	n/a	4	n/a	n/a	n/a	n/a	n/a	n/a
3524983	RECOG_TARGET	n/a	LTP278	ltpFR	17	5	-1	COLESLAW	344	1	2	-1	n/a	n/a	n/a	n/a	n/a
3525300	RECOG_RESP	n/a	LTP278	ltpFR	17	5	-1	COLESLAW	344	1	n/a	-1	n/a	n/a	n/a	n/a	n/a
3525675	RECOG_CONF	n/a	LTP278	ltpFR	17	5	-1	COLESLAW	344	n/a	2	-1	n/a	n/a	n/a	n/a	n/a
3527129	RECOG_LURE	n/a	LTP278	ltpFR	17	5	n/a	SAUSAGE	1238	1	4	n/a	n/a	n/a	n/a	n/a	n/a
3529195	RECOG_RESP	n/a	LTP278	ltpFR	17	5	n/a	SAUSAGE	1238	1	n/a	n/a	n/a	n/a	n/a	n/a	n/a
3529605	RECOG_CONF	n/a	LTP278	ltpFR	17	5	n/a	SAUSAGE	1238	n/a	4	n/a	n/a	n/a	n/a	n/a	n/a
3531307	RECOG_TARGET	n/a	LTP278	ltpFR	17	5	1	PLANET	1082	1	1	1	n/a	n/a	n/a	n/a	n/a
3533400	RECOG_RESP	n/a	LTP278	ltpFR	17	5	1	PLANET	1082	1	n/a	1	n/a	n/a	n/a	n/a	n/a
3533915	RECOG_CONF	n/a	LTP278	ltpFR	17	5	1	PLANET	1082	n/a	1	1	n/a	n/a	n/a	n/a	n/a
3535484	RECOG_LURE	n/a	LTP278	ltpFR	17	5	n/a	PEPPER	1047	0	4	n/a	n/a	n/a	n/a	n/a	n/a
3538820	RECOG_RESP	n/a	LTP278	ltpFR	17	5	n/a	PEPPER	1047	0	n/a	n/a	n/a	n/a	n/a	n/a	n/a
3539335	RECOG_CONF	n/a	LTP278	ltpFR	17	5	n/a	PEPPER	1047	n/a	4	n/a	n/a	n/a	n/a	n/a	n/a
3541042	RECOG_TARGET	n/a	LTP278	ltpFR	17	5	1	DICTATOR	462	1	5	1	n/a	n/a	n/a	n/a	n/a
3541275	RECOG_RESP	n/a	LTP278	ltpFR	17	5	1	DICTATOR	462	1	n/a	1	n/a	n/a	n/a	n/a	n/a
3541715	RECOG_CONF	n/a	LTP278	ltpFR	17	5	1	DICTATOR	462	n/a	5	1	n/a	n/a	n/a	n/a	n/a
3543406	RECOG_TARGET	n/a	LTP278	ltpFR	17	5	0	SHIP	1286	n/a	3	1	n/a	n/a	n/a	n/a	n/a
3543895	RECOG_CONF	n/a	LTP278	ltpFR	17	5	0	SHIP	1286	n/a	3	1	n/a	n/a	n/a	n/a	n/a
3545735	RECOG_LURE	n/a	LTP278	ltpFR	17	5	n/a	SYRUP	1425	1	1	n/a	n/a	n/a	n/a	n/a	n/a
3546700	RECOG_RESP	n/a	LTP278	ltpFR	17	5	n/a	SYRUP	1425	1	n/a	n/a	n/a	n/a	n/a	n/a	n/a
3547245	RECOG_CONF	n/a	LTP278	ltpFR	17	5	n/a	SYRUP	1425	n/a	1	n/a	n/a	n/a	n/a	n/a	n/a
3548847	RECOG_TARGET	n/a	LTP278	ltpFR	17	5	-1	FINGER	567	1	4	-1	n/a	n/a	n/a	n/a	n/a
3549540	RECOG_RESP	n/a	LTP278	ltpFR	17	5	-1	FINGER	567	1	n/a	-1	n/a	n/a	n/a	n/a	n/a
3550035	RECOG_CONF	n/a	LTP278	ltpFR	17	5	-1	FINGER	567	n/a	4	-1	n/a	n/a	n/a	n/a	n/a
3551743	RECOG_TARGET	n/a	LTP278	ltpFR	17	5	1	LAWN	805	1	5	0	n/a	n/a	n/a	n/a	n/a
3552420	RECOG_RESP	n/a	LTP278	ltpFR	17	5	1	LAWN	805	1	n/a	0	n/a	n/a	n/a	n/a	n/a
3552795	RECOG_CONF	n/a	LTP278	ltpFR	17	5	1	LAWN	805	n/a	5	0	n/a	n/a	n/a	n/a	n/a
3554355	RECOG_TARGET	n/a	LTP278	ltpFR	17	5	1	ORCHID	982	1	5	0	n/a	n/a	n/a	n/a	n/a
3554935	RECOG_RESP	n/a	LTP278	ltpFR	17	5	1	ORCHID	982	1	n/a	0	n/a	n/a	n/a	n/a	n/a
3555355	RECOG_CONF	n/a	LTP278	ltpFR	17	5	1	ORCHID	982	n/a	5	0	n/a	n/a	n/a	n/a	n/a
3557001	RECOG_TARGET	n/a	LTP278	ltpFR	17	5	0	ZEBRA	1635	1	5	0	n/a	n/a	n/a	n/a	n/a
3557340	RECOG_RESP	n/a	LTP278	ltpFR	17	5	0	ZEBRA	1635	1	n/a	0	n/a	n/a	n/a	n/a	n/a
3557845	RECOG_CONF	n/a	LTP278	ltpFR	17	5	0	ZEBRA	1635	n/a	5	0	n/a	n/a	n/a	n/a	n/a
3559465	RECOG_TARGET	n/a	LTP278	ltpFR	17	5	0	SHELL	1281	0	4	0	n/a	n/a	n/a	n/a	n/a
3560015	RECOG_RESP	n/a	LTP278	ltpFR	17	5	0	SHELL	1281	0	n/a	0	n/a	n/a	n/a	n/a	n/a
3560485	RECOG_CONF	n/a	LTP278	ltpFR	17	5	0	SHELL	1281	n/a	4	0	n/a	n/a	n/a	n/a	n/a
3562227	RECOG_TARGET	n/a	LTP278	ltpFR	17	5	0	MOUSE	925	1	4	1	n/a	n/a	n/a	n/a	n/a
3562495	RECOG_RESP	n/a	LTP278	ltpFR	17	5	0	MOUSE	925	1	n/a	1	n/a	n/a	n/a	n/a	n/a
3562985	RECOG_CONF	n/a	LTP278	ltpFR	17	5	0	MOUSE	925	n/a	4	1	n/a	n/a	n/a	n/a	n/a
3564507	RECOG_TARGET	n/a	LTP278	ltpFR	17	5	-1	SODA	1341	1	5	-1	n/a	n/a	n/a	n/a	n/a
3564850	RECOG_RESP	n/a	LTP278	ltpFR	17	5	-1	SODA	1341	1	n/a	-1	n/a	n/a	n/a	n/a	n/a
3565205	RECOG_CONF	n/a	LTP278	ltpFR	17	5	-1	SODA	1341	n/a	5	-1	n/a	n/a	n/a	n/a	n/a
3566754	RECOG_LURE	n/a	LTP278	ltpFR	17	5	n/a	CABOOSE	214	1	1	n/a	n/a	n/a	n/a	n/a	n/a
3568110	RECOG_RESP	n/a	LTP278	ltpFR	17	5	n/a	CABOOSE	214	1	n/a	n/a	n/a	n/a	n/a	n/a	n/a
3568595	RECOG_CONF	n/a	LTP278	ltpFR	17	5	n/a	CABOOSE	214	n/a	1	n/a	n/a	n/a	n/a	n/a	n/a
3570315	RECOG_TARGET	n/a	LTP278	ltpFR	17	5	-1	BUCKET	184	1	2	-1	n/a	n/a	n/a	n/a	n/a
3571160	RECOG_RESP	n/a	LTP278	ltpFR	17	5	-1	BUCKET	184	1	n/a	-1	n/a	n/a	n/a	n/a	n/a
3571575	RECOG_CONF	n/a	LTP278	ltpFR	17	5	-1	BUCKET	184	n/a	2	-1	n/a	n/a	n/a	n/a	n/a
3573127	RECOG_TARGET	n/a	LTP278	ltpFR	17	5	0	LIVER	833	0	4	0	n/a	n/a	n/a	n/a	n/a
3574255	RECOG_RESP	n/a	LTP278	ltpFR	17	5	0	LIVER	833	0	n/a	0	n/a	n/a	n/a	n/a	n/a
3574715	RECOG_CONF	n/a	LTP278	ltpFR	17	5	0	LIVER	833	n/a	4	0	n/a	n/a	n/a	n/a	n/a
3576323	RECOG_LURE	n/a	LTP278	ltpFR	17	5	n/a	TOTE	1487	1	1	n/a	n/a	n/a	n/a	n/a	n/a
3576890	RECOG_RESP	n/a	LTP278	ltpFR	17	5	n/a	TOTE	1487	1	n/a	n/a	n/a	n/a	n/a	n/a	n/a
3577355	RECOG_CONF	n/a	LTP278	ltpFR	17	5	n/a	TOTE	1487	n/a	1	n/a	n/a	n/a	n/a	n/a	n/a
3578935	RECOG_TARGET	n/a	LTP278	ltpFR	17	5	0	MUFFIN	929	1	4	0	n/a	n/a	n/a	n/a	n/a
3579155	RECOG_RESP	n/a	LTP278	ltpFR	17	5	0	MUFFIN	929	1	n/a	0	n/a	n/a	n/a	n/a	n/a
3579525	RECOG_CONF	n/a	LTP278	ltpFR	17	5	0	MUFFIN	929	n/a	4	0	n/a	n/a	n/a	n/a	n/a
3582486	REC_START	n/a	LTP278	ltpFR	17	6	n/a	n/a	n/a	n/a	n/a	n/a	n/a	n/a	n/a	n/a	n/a
3582513	RECOG_TARGET	n/a	LTP278	ltpFR	17	6	-1	ELBOW	520	1	5	-1	n/a	n/a	n/a	n/a	n/a
3584111	RECOG_RESP	n/a	LTP278	ltpFR	17	6	-1	ELBOW	520	1	n/a	-1	n/a	n/a	n/a	n/a	n/a
3584526	RECOG_CONF	n/a	LTP278	ltpFR	17	6	-1	ELBOW	520	n/a	5	-1	n/a	n/a	n/a	n/a	n/a
3586175	RECOG_LURE	n/a	LTP278	ltpFR	17	6	n/a	MAGICIAN	854	0	3	n/a	n/a	n/a	n/a	n/a	n/a
3587791	RECOG_RESP	n/a	LTP278	ltpFR	17	6	n/a	MAGICIAN	854	0	n/a	n/a	n/a	n/a	n/a	n/a	n/a
3588286	RECOG_CONF	n/a	LTP278	ltpFR	17	6	n/a	MAGICIAN	854	n/a	3	n/a	n/a	n/a	n/a	n/a	n/a
3589886	RECOG_TARGET	n/a	LTP278	ltpFR	17	6	-1	HAY	693	1	4	-1	n/a	n/a	n/a	n/a	n/a
3590431	RECOG_RESP	n/a	LTP278	ltpFR	17	6	-1	HAY	693	1	n/a	-1	n/a	n/a	n/a	n/a	n/a
3590796	RECOG_CONF	n/a	LTP278	ltpFR	17	6	-1	HAY	693	n/a	4	-1	n/a	n/a	n/a	n/a	n/a
3592315	RECOG_TARGET	n/a	LTP278	ltpFR	17	6	1	ROD	1203	1	5	0	n/a	n/a	n/a	n/a	n/a
3592711	RECOG_RESP	n/a	LTP278	ltpFR	17	6	1	ROD	1203	1	n/a	0	n/a	n/a	n/a	n/a	n/a
3593156	RECOG_CONF	n/a	LTP278	ltpFR	17	6	1	ROD	1203	n/a	5	0	n/a	n/a	n/a	n/a	n/a
3594695	RECOG_LURE	n/a	LTP278	ltpFR	17	6	n/a	MONASTERY	907	1	1	n/a	n/a	n/a	n/a	n/a	n/a
3595016	RECOG_RESP	n/a	LTP278	ltpFR	17	6	n/a	MONASTERY	907	1	n/a	n/a	n/a	n/a	n/a	n/a	n/a
3595456	RECOG_CONF	n/a	LTP278	ltpFR	17	6	n/a	MONASTERY	907	n/a	1	n/a	n/a	n/a	n/a	n/a	n/a
3597358	RECOG_TARGET	n/a	LTP278	ltpFR	17	6	0	CUSHION	428	1	4	0	n/a	n/a	n/a	n/a	n/a
3597846	RECOG_RESP	n/a	LTP278	ltpFR	17	6	0	CUSHION	428	1	n/a	0	n/a	n/a	n/a	n/a	n/a
3598376	RECOG_CONF	n/a	LTP278	ltpFR	17	6	0	CUSHION	428	n/a	4	0	n/a	n/a	n/a	n/a	n/a
3600104	RECOG_LURE	n/a	LTP278	ltpFR	17	6	n/a	RAIL	1161	0	1	n/a	n/a	n/a	n/a	n/a	n/a
3601711	RECOG_RESP	n/a	LTP278	ltpFR	17	6	n/a	RAIL	1161	0	n/a	n/a	n/a	n/a	n/a	n/a	n/a
3602216	RECOG_CONF	n/a	LTP278	ltpFR	17	6	n/a	RAIL	1161	n/a	1	n/a	n/a	n/a	n/a	n/a	n/a
3603881	RECOG_TARGET	n/a	LTP278	ltpFR	17	6	-1	MAMMAL	861	1	4	-1	n/a	n/a	n/a	n/a	n/a
3604076	RECOG_RESP	n/a	LTP278	ltpFR	17	6	-1	MAMMAL	861	1	n/a	-1	n/a	n/a	n/a	n/a	n/a
3604476	RECOG_CONF	n/a	LTP278	ltpFR	17	6	-1	MAMMAL	861	n/a	4	-1	n/a	n/a	n/a	n/a	n/a
3606045	RECOG_LURE	n/a	LTP278	ltpFR	17	6	n/a	TEAM	1441	1	5	n/a	n/a	n/a	n/a	n/a	n/a
3606256	RECOG_RESP	n/a	LTP278	ltpFR	17	6	n/a	TEAM	1441	1	n/a	n/a	n/a	n/a	n/a	n/a	n/a
3606656	RECOG_CONF	n/a	LTP278	ltpFR	17	6	n/a	TEAM	1441	n/a	5	n/a	n/a	n/a	n/a	n/a	n/a
3608258	RECOG_LURE	n/a	LTP278	ltpFR	17	6	n/a	CINNAMON	310	1	3	n/a	n/a	n/a	n/a	n/a	n/a
3608845	RECOG_RESP	n/a	LTP278	ltpFR	17	6	n/a	CINNAMON	310	1	n/a	n/a	n/a	n/a	n/a	n/a	n/a
3609336	RECOG_CONF	n/a	LTP278	ltpFR	17	6	n/a	CINNAMON	310	n/a	3	n/a	n/a	n/a	n/a	n/a	n/a
3615564	RECOG_TARGET	n/a	LTP278	ltpFR	17	6	1	TOWEL	1489	1	3	0	n/a	n/a	n/a	n/a	n/a
3616311	RECOG_RESP	n/a	LTP278	ltpFR	17	6	1	TOWEL	1489	1	n/a	0	n/a	n/a	n/a	n/a	n/a
3616756	RECOG_CONF	n/a	LTP278	ltpFR	17	6	1	TOWEL	1489	n/a	3	0	n/a	n/a	n/a	n/a	n/a
3618609	RECOG_TARGET	n/a	LTP278	ltpFR	17	6	1	PERSON	1052	1	4	1	n/a	n/a	n/a	n/a	n/a
3619276	RECOG_RESP	n/a	LTP278	ltpFR	17	6	1	PERSON	1052	1	n/a	1	n/a	n/a	n/a	n/a	n/a
3619746	RECOG_CONF	n/a	LTP278	ltpFR	17	6	1	PERSON	1052	n/a	4	1	n/a	n/a	n/a	n/a	n/a
3621389	RECOG_TARGET	n/a	LTP278	ltpFR	17	6	1	STRANGER	1389	0	1	1	n/a	n/a	n/a	n/a	n/a
3622136	RECOG_RESP	n/a	LTP278	ltpFR	17	6	1	STRANGER	1389	0	n/a	1	n/a	n/a	n/a	n/a	n/a
3622646	RECOG_CONF	n/a	LTP278	ltpFR	17	6	1	STRANGER	1389	n/a	1	1	n/a	n/a	n/a	n/a	n/a
3624251	RECOG_TARGET	n/a	LTP278	ltpFR	17	6	1	ANTLER	29	1	3	0	n/a	n/a	n/a	n/a	n/a
3625041	RECOG_RESP	n/a	LTP278	ltpFR	17	6	1	ANTLER	29	1	n/a	0	n/a	n/a	n/a	n/a	n/a
3625446	RECOG_CONF	n/a	LTP278	ltpFR	17	6	1	ANTLER	29	n/a	3	0	n/a	n/a	n/a	n/a	n/a
3627247	RECOG_TARGET	n/a	LTP278	ltpFR	17	6	0	VINEGAR	1569	1	5	0	n/a	n/a	n/a	n/a	n/a
3627796	RECOG_RESP	n/a	LTP278	ltpFR	17	6	0	VINEGAR	1569	1	n/a	0	n/a	n/a	n/a	n/a	n/a
3628216	RECOG_CONF	n/a	LTP278	ltpFR	17	6	0	VINEGAR	1569	n/a	5	0	n/a	n/a	n/a	n/a	n/a
3629909	RECOG_LURE	n/a	LTP278	ltpFR	17	6	n/a	MONUMENT	913	0	1	n/a	n/a	n/a	n/a	n/a	n/a
3630686	RECOG_RESP	n/a	LTP278	ltpFR	17	6	n/a	MONUMENT	913	0	n/a	n/a	n/a	n/a	n/a	n/a	n/a
3631116	RECOG_CONF	n/a	LTP278	ltpFR	17	6	n/a	MONUMENT	913	n/a	1	n/a	n/a	n/a	n/a	n/a	n/a
3632805	RECOG_TARGET	n/a	LTP278	ltpFR	17	6	1	EMPEROR	529	0	4	1	n/a	n/a	n/a	n/a	n/a
3633551	RECOG_RESP	n/a	LTP278	ltpFR	17	6	1	EMPEROR	529	0	n/a	1	n/a	n/a	n/a	n/a	n/a
3634026	RECOG_CONF	n/a	LTP278	ltpFR	17	6	1	EMPEROR	529	n/a	4	1	n/a	n/a	n/a	n/a	n/a
3635734	RECOG_LURE	n/a	LTP278	ltpFR	17	6	n/a	CLIFF	322	0	2	n/a	n/a	n/a	n/a	n/a	n/a
3636641	RECOG_RESP	n/a	LTP278	ltpFR	17	6	n/a	CLIFF	322	0	n/a	n/a	n/a	n/a	n/a	n/a	n/a
3637296	RECOG_CONF	n/a	LTP278	ltpFR	17	6	n/a	CLIFF	322	n/a	2	n/a	n/a	n/a	n/a	n/a	n/a
3638663	RECOG_TARGET	n/a	LTP278	ltpFR	17	6	1	PORT	1110	1	4	0	n/a	n/a	n/a	n/a	n/a
3640751	RECOG_RESP	n/a	LTP278	ltpFR	17	6	1	PORT	1110	1	n/a	0	n/a	n/a	n/a	n/a	n/a
3641196	RECOG_CONF	n/a	LTP278	ltpFR	17	6	1	PORT	1110	n/a	4	0	n/a	n/a	n/a	n/a	n/a
3642923	RECOG_TARGET	n/a	LTP278	ltpFR	17	6	1	JOKER	759	1	5	1	n/a	n/a	n/a	n/a	n/a
3643391	RECOG_RESP	n/a	LTP278	ltpFR	17	6	1	JOKER	759	1	n/a	1	n/a	n/a	n/a	n/a	n/a
3643776	RECOG_CONF	n/a	LTP278	ltpFR	17	6	1	JOKER	759	n/a	5	1	n/a	n/a	n/a	n/a	n/a
3646827	REC_START	n/a	LTP278	ltpFR	17	7	n/a	n/a	n/a	n/a	n/a	n/a	n/a	n/a	n/a	n/a	n/a
3646867	RECOG_TARGET	n/a	LTP278	ltpFR	17	7	0	MONEY	908	0	1	0	n/a	n/a	n/a	n/a	n/a
3647472	RECOG_RESP	n/a	LTP278	ltpFR	17	7	0	MONEY	908	0	n/a	0	n/a	n/a	n/a	n/a	n/a
3647997	RECOG_CONF	n/a	LTP278	ltpFR	17	7	0	MONEY	908	n/a	1	0	n/a	n/a	n/a	n/a	n/a
3649713	RECOG_TARGET	n/a	LTP278	ltpFR	17	7	1	DOORBELL	487	1	4	0	n/a	n/a	n/a	n/a	n/a
3650347	RECOG_RESP	n/a	LTP278	ltpFR	17	7	1	DOORBELL	487	1	n/a	0	n/a	n/a	n/a	n/a	n/a
3650737	RECOG_CONF	n/a	LTP278	ltpFR	17	7	1	DOORBELL	487	n/a	4	0	n/a	n/a	n/a	n/a	n/a
3652309	RECOG_LURE	n/a	LTP278	ltpFR	17	7	n/a	HATCHET	691	1	1	n/a	n/a	n/a	n/a	n/a	n/a
3652742	RECOG_RESP	n/a	LTP278	ltpFR	17	7	n/a	HATCHET	691	1	n/a	n/a	n/a	n/a	n/a	n/a	n/a
3653147	RECOG_CONF	n/a	LTP278	ltpFR	17	7	n/a	HATCHET	691	n/a	1	n/a	n/a	n/a	n/a	n/a	n/a
3655022	RECOG_TARGET	n/a	LTP278	ltpFR	17	7	-1	CANNON	232	1	1	-1	n/a	n/a	n/a	n/a	n/a
3655477	RECOG_RESP	n/a	LTP278	ltpFR	17	7	-1	CANNON	232	1	n/a	-1	n/a	n/a	n/a	n/a	n/a
3655837	RECOG_CONF	n/a	LTP278	ltpFR	17	7	-1	CANNON	232	n/a	1	-1	n/a	n/a	n/a	n/a	n/a
3657501	RECOG_TARGET	n/a	LTP278	ltpFR	17	7	0	KLEENEX	782	1	5	0	n/a	n/a	n/a	n/a	n/a
3657932	RECOG_RESP	n/a	LTP278	ltpFR	17	7	0	KLEENEX	782	1	n/a	0	n/a	n/a	n/a	n/a	n/a
3658367	RECOG_CONF	n/a	LTP278	ltpFR	17	7	0	KLEENEX	782	n/a	5	0	n/a	n/a	n/a	n/a	n/a
3659931	RECOG_TARGET	n/a	LTP278	ltpFR	17	7	1	RICE	1190	1	2	0	n/a	n/a	n/a	n/a	n/a
3660247	RECOG_RESP	n/a	LTP278	ltpFR	17	7	1	RICE	1190	1	n/a	0	n/a	n/a	n/a	n/a	n/a
3660597	RECOG_CONF	n/a	LTP278	ltpFR	17	7	1	RICE	1190	n/a	2	0	n/a	n/a	n/a	n/a	n/a
3662278	RECOG_TARGET	n/a	LTP278	ltpFR	17	7	1	SCARECROW	1245	1	3	0	n/a	n/a	n/a	n/a	n/a
3662537	RECOG_RESP	n/a	LTP278	ltpFR	17	7	1	SCARECROW	1245	1	n/a	0	n/a	n/a	n/a	n/a	n/a
3662957	RECOG_CONF	n/a	LTP278	ltpFR	17	7	1	SCARECROW	1245	n/a	3	0	n/a	n/a	n/a	n/a	n/a
3664641	RECOG_LURE	n/a	LTP278	ltpFR	17	7	n/a	COYOTE	396	1	1	n/a	n/a	n/a	n/a	n/a	n/a
3664872	RECOG_RESP	n/a	LTP278	ltpFR	17	7	n/a	COYOTE	396	1	n/a	n/a	n/a	n/a	n/a	n/a	n/a
3665457	RECOG_CONF	n/a	LTP278	ltpFR	17	7	n/a	COYOTE	396	n/a	1	n/a	n/a	n/a	n/a	n/a	n/a
3667254	RECOG_TARGET	n/a	LTP278	ltpFR	17	7	0	STAKE	1368	1	1	1	n/a	n/a	n/a	n/a	n/a
3667702	RECOG_RESP	n/a	LTP278	ltpFR	17	7	0	STAKE	1368	1	n/a	1	n/a	n/a	n/a	n/a	n/a
3668087	RECOG_CONF	n/a	LTP278	ltpFR	17	7	0	STAKE	1368	n/a	1	1	n/a	n/a	n/a	n/a	n/a
3669783	RECOG_TARGET	n/a	LTP278	ltpFR	17	7	0	CYLINDER	432	1	4	0	n/a	n/a	n/a	n/a	n/a
3670052	RECOG_RESP	n/a	LTP278	ltpFR	17	7	0	CYLINDER	432	1	n/a	0	n/a	n/a	n/a	n/a	n/a
3670457	RECOG_CONF	n/a	LTP278	ltpFR	17	7	0	CYLINDER	432	n/a	4	0	n/a	n/a	n/a	n/a	n/a
3672113	RECOG_TARGET	n/a	LTP278	ltpFR	17	7	0	POPCORN	1104	1	1	1	n/a	n/a	n/a	n/a	n/a
3672342	RECOG_RESP	n/a	LTP278	ltpFR	17	7	0	POPCORN	1104	1	n/a	1	n/a	n/a	n/a	n/a	n/a
3673007	RECOG_CONF	n/a	LTP278	ltpFR	17	7	0	POPCORN	1104	n/a	1	1	n/a	n/a	n/a	n/a	n/a
3674460	RECOG_LURE	n/a	LTP278	ltpFR	17	7	n/a	SOLDIER	1344	0	1	n/a	n/a	n/a	n/a	n/a	n/a
3675407	RECOG_RESP	n/a	LTP278	ltpFR	17	7	n/a	SOLDIER	1344	0	n/a	n/a	n/a	n/a	n/a	n/a	n/a
3675887	RECOG_CONF	n/a	LTP278	ltpFR	17	7	n/a	SOLDIER	1344	n/a	1	n/a	n/a	n/a	n/a	n/a	n/a
3677439	RECOG_TARGET	n/a	LTP278	ltpFR	17	7	1	PERSONNEL	1053	1	4	0	n/a	n/a	n/a	n/a	n/a
3677867	RECOG_RESP	n/a	LTP278	ltpFR	17	7	1	PERSONNEL	1053	1	n/a	0	n/a	n/a	n/a	n/a	n/a
3678257	RECOG_CONF	n/a	LTP278	ltpFR	17	7	1	PERSONNEL	1053	n/a	4	0	n/a	n/a	n/a	n/a	n/a
3679935	RECOG_TARGET	n/a	LTP278	ltpFR	17	7	1	GOWN	652	1	5	0	n/a	n/a	n/a	n/a	n/a
3680152	RECOG_RESP	n/a	LTP278	ltpFR	17	7	1	GOWN	652	1	n/a	0	n/a	n/a	n/a	n/a	n/a
3680537	RECOG_CONF	n/a	LTP278	ltpFR	17	7	1	GOWN	652	n/a	5	0	n/a	n/a	n/a	n/a	n/a
3682264	RECOG_TARGET	n/a	LTP278	ltpFR	17	7	-1	PISTON	1076	1	3	-1	n/a	n/a	n/a	n/a	n/a
3682487	RECOG_RESP	n/a	LTP278	ltpFR	17	7	-1	PISTON	1076	1	n/a	-1	n/a	n/a	n/a	n/a	n/a
3683017	RECOG_CONF	n/a	LTP278	ltpFR	17	7	-1	PISTON	1076	n/a	3	-1	n/a	n/a	n/a	n/a	n/a
3684677	RECOG_TARGET	n/a	LTP278	ltpFR	17	7	-1	PORK	1108	1	4	-1	n/a	n/a	n/a	n/a	n/a
3685042	RECOG_RESP	n/a	LTP278	ltpFR	17	7	-1	PORK	1108	1	n/a	-1	n/a	n/a	n/a	n/a	n/a
3685457	RECOG_CONF	n/a	LTP278	ltpFR	17	7	-1	PORK	1108	n/a	4	-1	n/a	n/a	n/a	n/a	n/a
3687091	RECOG_TARGET	n/a	LTP278	ltpFR	17	7	-1	SIDING	1304	1	5	-1	n/a	n/a	n/a	n/a	n/a
3687547	RECOG_RESP	n/a	LTP278	ltpFR	17	7	-1	SIDING	1304	1	n/a	-1	n/a	n/a	n/a	n/a	n/a
3687977	RECOG_CONF	n/a	LTP278	ltpFR	17	7	-1	SIDING	1304	n/a	5	-1	n/a	n/a	n/a	n/a	n/a
3689687	RECOG_TARGET	n/a	LTP278	ltpFR	17	7	-1	OTTER	986	1	5	-1	n/a	n/a	n/a	n/a	n/a
3690062	RECOG_RESP	n/a	LTP278	ltpFR	17	7	-1	OTTER	986	1	n/a	-1	n/a	n/a	n/a	n/a	n/a
3690517	RECOG_CONF	n/a	LTP278	ltpFR	17	7	-1	OTTER	986	n/a	5	-1	n/a	n/a	n/a	n/a	n/a
3692000	RECOG_TARGET	n/a	LTP278	ltpFR	17	7	-1	BARREL	91	1	1	-1	n/a	n/a	n/a	n/a	n/a
3692662	RECOG_RESP	n/a	LTP278	ltpFR	17	7	-1	BARREL	91	1	n/a	-1	n/a	n/a	n/a	n/a	n/a
3693077	RECOG_CONF	n/a	LTP278	ltpFR	17	7	-1	BARREL	91	n/a	1	-1	n/a	n/a	n/a	n/a	n/a
3694779	RECOG_TARGET	n/a	LTP278	ltpFR	17	7	1	LUNG	850	1	3	1	n/a	n/a	n/a	n/a	n/a
3694967	RECOG_RESP	n/a	LTP278	ltpFR	17	7	1	LUNG	850	1	n/a	1	n/a	n/a	n/a	n/a	n/a
3695437	RECOG_CONF	n/a	LTP278	ltpFR	17	7	1	LUNG	850	n/a	3	1	n/a	n/a	n/a	n/a	n/a
3699076	REC_START	n/a	LTP278	ltpFR	17	8	n/a	n/a	n/a	n/a	n/a	n/a	n/a	n/a	n/a	n/a	n/a
3699106	RECOG_TARGET	n/a	LTP278	ltpFR	17	8	1	ARTICLE	42	1	3	0	n/a	n/a	n/a	n/a	n/a
3699786	RECOG_RESP	n/a	LTP278	ltpFR	17	8	1	ARTICLE	42	1	n/a	0	n/a	n/a	n/a	n/a	n/a
3700536	RECOG_CONF	n/a	LTP278	ltpFR	17	8	1	ARTICLE	42	n/a	3	0	n/a	n/a	n/a	n/a	n/a
3702051	RECOG_TARGET	n/a	LTP278	ltpFR	17	8	0	TEMPLE	1448	1	4	0	n/a	n/a	n/a	n/a	n/a
3702241	RECOG_RESP	n/a	LTP278	ltpFR	17	8	0	TEMPLE	1448	1	n/a	0	n/a	n/a	n/a	n/a	n/a
3702646	RECOG_CONF	n/a	LTP278	ltpFR	17	8	0	TEMPLE	1448	n/a	4	0	n/a	n/a	n/a	n/a	n/a
3704315	RECOG_LURE	n/a	LTP278	ltpFR	17	8	n/a	FLEA	577	1	5	n/a	n/a	n/a	n/a	n/a	n/a
3704376	RECOG_RESP	n/a	LTP278	ltpFR	17	8	n/a	FLEA	577	1	n/a	n/a	n/a	n/a	n/a	n/a	n/a
3704796	RECOG_CONF	n/a	LTP278	ltpFR	17	8	n/a	FLEA	577	n/a	5	n/a	n/a	n/a	n/a	n/a	n/a
3706395	RECOG_TARGET	n/a	LTP278	ltpFR	17	8	0	TWEEZERS	1526	1	5	0	n/a	n/a	n/a	n/a	n/a
3707131	RECOG_RESP	n/a	LTP278	ltpFR	17	8	0	TWEEZERS	1526	1	n/a	0	n/a	n/a	n/a	n/a	n/a
3707496	RECOG_CONF	n/a	LTP278	ltpFR	17	8	0	TWEEZERS	1526	n/a	5	0	n/a	n/a	n/a	n/a	n/a
3709141	RECOG_TARGET	n/a	LTP278	ltpFR	17	8	1	MILK	895	0	4	0	n/a	n/a	n/a	n/a	n/a
3709796	RECOG_RESP	n/a	LTP278	ltpFR	17	8	1	MILK	895	0	n/a	0	n/a	n/a	n/a	n/a	n/a
3710196	RECOG_CONF	n/a	LTP278	ltpFR	17	8	1	MILK	895	n/a	4	0	n/a	n/a	n/a	n/a	n/a
3711987	RECOG_LURE	n/a	LTP278	ltpFR	17	8	n/a	LIBRARY	816	1	1	n/a	n/a	n/a	n/a	n/a	n/a
3712221	RECOG_RESP	n/a	LTP278	ltpFR	17	8	n/a	LIBRARY	816	1	n/a	n/a	n/a	n/a	n/a	n/a	n/a
3712606	RECOG_CONF	n/a	LTP278	ltpFR	17	8	n/a	LIBRARY	816	n/a	1	n/a	n/a	n/a	n/a	n/a	n/a
3714217	RECOG_TARGET	n/a	LTP278	ltpFR	17	8	0	GOVERNOR	651	1	1	0	n/a	n/a	n/a	n/a	n/a
3714431	RECOG_RESP	n/a	LTP278	ltpFR	17	8	0	GOVERNOR	651	1	n/a	0	n/a	n/a	n/a	n/a	n/a
3714796	RECOG_CONF	n/a	LTP278	ltpFR	17	8	0	GOVERNOR	651	n/a	1	0	n/a	n/a	n/a	n/a	n/a
3716314	RECOG_TARGET	n/a	LTP278	ltpFR	17	8	0	SUN	1406	1	4	1	n/a	n/a	n/a	n/a	n/a
3717666	RECOG_RESP	n/a	LTP278	ltpFR	17	8	0	SUN	1406	1	n/a	1	n/a	n/a	n/a	n/a	n/a
3718016	RECOG_CONF	n/a	LTP278	ltpFR	17	8	0	SUN	1406	n/a	4	1	n/a	n/a	n/a	n/a	n/a
3719525	RECOG_TARGET	n/a	LTP278	ltpFR	17	8	0	PLATE	1086	1	1	1	n/a	n/a	n/a	n/a	n/a
3719886	RECOG_RESP	n/a	LTP278	ltpFR	17	8	0	PLATE	1086	1	n/a	1	n/a	n/a	n/a	n/a	n/a
3720266	RECOG_CONF	n/a	LTP278	ltpFR	17	8	0	PLATE	1086	n/a	1	1	n/a	n/a	n/a	n/a	n/a
3721889	RECOG_TARGET	n/a	LTP278	ltpFR	17	8	0	MOTOR	922	1	3	1	n/a	n/a	n/a	n/a	n/a
3722176	RECOG_RESP	n/a	LTP278	ltpFR	17	8	0	MOTOR	922	1	n/a	1	n/a	n/a	n/a	n/a	n/a
3722556	RECOG_CONF	n/a	LTP278	ltpFR	17	8	0	MOTOR	922	n/a	3	1	n/a	n/a	n/a	n/a	n/a
3724318	RECOG_TARGET	n/a	LTP278	ltpFR	17	8	0	BULB	192	1	5	1	n/a	n/a	n/a	n/a	n/a
3724666	RECOG_RESP	n/a	LTP278	ltpFR	17	8	0	BULB	192	1	n/a	1	n/a	n/a	n/a	n/a	n/a
3725036	RECOG_CONF	n/a	LTP278	ltpFR	17	8	0	BULB	192	n/a	5	1	n/a	n/a	n/a	n/a	n/a
3726681	RECOG_TARGET	n/a	LTP278	ltpFR	17	8	0	ROCK	1201	1	4	0	n/a	n/a	n/a	n/a	n/a
3727896	RECOG_RESP	n/a	LTP278	ltpFR	17	8	0	ROCK	1201	1	n/a	0	n/a	n/a	n/a	n/a	n/a
3728236	RECOG_CONF	n/a	LTP278	ltpFR	17	8	0	ROCK	1201	n/a	4	0	n/a	n/a	n/a	n/a	n/a
3729793	RECOG_TARGET	n/a	LTP278	ltpFR	17	8	0	EAGLE	512	1	4	1	n/a	n/a	n/a	n/a	n/a
3730399	RECOG_RESP	n/a	LTP278	ltpFR	17	8	0	EAGLE	512	1	n/a	1	n/a	n/a	n/a	n/a	n/a
3730726	RECOG_CONF	n/a	LTP278	ltpFR	17	8	0	EAGLE	512	n/a	4	1	n/a	n/a	n/a	n/a	n/a
3732856	RECOG_TARGET	n/a	LTP278	ltpFR	17	8	1	MAGAZINE	853	1	3	0	n/a	n/a	n/a	n/a	n/a
3733531	RECOG_RESP	n/a	LTP278	ltpFR	17	8	1	MAGAZINE	853	1	n/a	0	n/a	n/a	n/a	n/a	n/a
3734056	RECOG_CONF	n/a	LTP278	ltpFR	17	8	1	MAGAZINE	853	n/a	3	0	n/a	n/a	n/a	n/a	n/a
3735618	RECOG_TARGET	n/a	LTP278	ltpFR	17	8	-1	PICKLE	1059	1	5	-1	n/a	n/a	n/a	n/a	n/a
3735861	RECOG_RESP	n/a	LTP278	ltpFR	17	8	-1	PICKLE	1059	1	n/a	-1	n/a	n/a	n/a	n/a	n/a
3736276	RECOG_CONF	n/a	LTP278	ltpFR	17	8	-1	PICKLE	1059	n/a	5	-1	n/a	n/a	n/a	n/a	n/a
3737981	RECOG_TARGET	n/a	LTP278	ltpFR	17	8	1	PICK	1058	1	1	0	n/a	n/a	n/a	n/a	n/a
3738351	RECOG_RESP	n/a	LTP278	ltpFR	17	8	1	PICK	1058	1	n/a	0	n/a	n/a	n/a	n/a	n/a
3739046	RECOG_CONF	n/a	LTP278	ltpFR	17	8	1	PICK	1058	n/a	1	0	n/a	n/a	n/a	n/a	n/a
3740594	RECOG_TARGET	n/a	LTP278	ltpFR	17	8	-1	SCARF	1246	1	4	-1	n/a	n/a	n/a	n/a	n/a
3740896	RECOG_RESP	n/a	LTP278	ltpFR	17	8	-1	SCARF	1246	1	n/a	-1	n/a	n/a	n/a	n/a	n/a
3741326	RECOG_CONF	n/a	LTP278	ltpFR	17	8	-1	SCARF	1246	n/a	4	-1	n/a	n/a	n/a	n/a	n/a
3743057	RECOG_TARGET	n/a	LTP278	ltpFR	17	8	-1	BEARD	107	1	5	-1	n/a	n/a	n/a	n/a	n/a
3743416	RECOG_RESP	n/a	LTP278	ltpFR	17	8	-1	BEARD	107	1	n/a	-1	n/a	n/a	n/a	n/a	n/a
3743806	RECOG_CONF	n/a	LTP278	ltpFR	17	8	-1	BEARD	107	n/a	5	-1	n/a	n/a	n/a	n/a	n/a
3745438	RECOG_TARGET	n/a	LTP278	ltpFR	17	8	-1	FOREHEAD	592	0	3	-1	n/a	n/a	n/a	n/a	n/a
3745781	RECOG_RESP_VV	n/a	LTP278	ltpFR	17	8	-1	FOREHEAD	592	1	n/a	-1	n/a	n/a	n/a	n/a	n/a
3746441	RECOG_RESP	n/a	LTP278	ltpFR	17	8	-1	FOREHEAD	592	0	n/a	-1	n/a	n/a	n/a	n/a	n/a
3746996	RECOG_CONF	n/a	LTP278	ltpFR	17	8	-1	FOREHEAD	592	n/a	3	-1	n/a	n/a	n/a	n/a	n/a
3748699	RECOG_TARGET	n/a	LTP278	ltpFR	17	8	0	PARROT	1015	1	4	0	n/a	n/a	n/a	n/a	n/a
3749186	RECOG_RESP	n/a	LTP278	ltpFR	17	8	0	PARROT	1015	1	n/a	0	n/a	n/a	n/a	n/a	n/a
3749656	RECOG_CONF	n/a	LTP278	ltpFR	17	8	0	PARROT	1015	n/a	4	0	n/a	n/a	n/a	n/a	n/a
3752782	REC_START	n/a	LTP278	ltpFR	17	9	n/a	n/a	n/a	n/a	n/a	n/a	n/a	n/a	n/a	n/a	n/a
3752809	RECOG_TARGET	n/a	LTP278	ltpFR	17	9	1	CLOTHES	327	1	5	0	n/a	n/a	n/a	n/a	n/a
3753542	RECOG_RESP	n/a	LTP278	ltpFR	17	9	1	CLOTHES	327	1	n/a	0	n/a	n/a	n/a	n/a	n/a
3754012	RECOG_CONF	n/a	LTP278	ltpFR	17	9	1	CLOTHES	327	n/a	5	0	n/a	n/a	n/a	n/a	n/a
3755473	RECOG_TARGET	n/a	LTP278	ltpFR	17	9	1	THRONE	1461	1	1	1	n/a	n/a	n/a	n/a	n/a
3755762	RECOG_RESP	n/a	LTP278	ltpFR	17	9	1	THRONE	1461	1	n/a	1	n/a	n/a	n/a	n/a	n/a
3756162	RECOG_CONF	n/a	LTP278	ltpFR	17	9	1	THRONE	1461	n/a	1	1	n/a	n/a	n/a	n/a	n/a
3757868	RECOG_TARGET	n/a	LTP278	ltpFR	17	9	-1	BONE	148	1	3	-1	n/a	n/a	n/a	n/a	n/a
3758142	RECOG_RESP	n/a	LTP278	ltpFR	17	9	-1	BONE	148	1	n/a	-1	n/a	n/a	n/a	n/a	n/a
3758562	RECOG_CONF	n/a	LTP278	ltpFR	17	9	-1	BONE	148	n/a	3	-1	n/a	n/a	n/a	n/a	n/a
3760165	RECOG_TARGET	n/a	LTP278	ltpFR	17	9	1	LADY	794	1	4	1	n/a	n/a	n/a	n/a	n/a
3760452	RECOG_RESP	n/a	LTP278	ltpFR	17	9	1	LADY	794	1	n/a	1	n/a	n/a	n/a	n/a	n/a
3760912	RECOG_CONF	n/a	LTP278	ltpFR	17	9	1	LADY	794	n/a	4	1	n/a	n/a	n/a	n/a	n/a
3762628	RECOG_TARGET	n/a	LTP278	ltpFR	17	9	1	ELK	526	1	5	1	n/a	n/a	n/a	n/a	n/a
3762852	RECOG_RESP	n/a	LTP278	ltpFR	17	9	1	ELK	526	1	n/a	1	n/a	n/a	n/a	n/a	n/a
3763392	RECOG_CONF	n/a	LTP278	ltpFR	17	9	1	ELK	526	n/a	5	1	n/a	n/a	n/a	n/a	n/a
3765057	RECOG_TARGET	n/a	LTP278	ltpFR	17	9	0	PIANO	1057	1	2	0	n/a	n/a	n/a	n/a	n/a
3765292	RECOG_RESP	n/a	LTP278	ltpFR	17	9	0	PIANO	1057	1	n/a	0	n/a	n/a	n/a	n/a	n/a
3765702	RECOG_CONF	n/a	LTP278	ltpFR	17	9	0	PIANO	1057	n/a	2	0	n/a	n/a	n/a	n/a	n/a
3767570	RECOG_TARGET	n/a	LTP278	ltpFR	17	9	0	SISTER	1312	1	4	1	n/a	n/a	n/a	n/a	n/a
3767617	RECOG_RESP	n/a	LTP278	ltpFR	17	9	0	SISTER	1312	1	n/a	1	n/a	n/a	n/a	n/a	n/a
3768032	RECOG_CONF	n/a	LTP278	ltpFR	17	9	0	SISTER	1312	n/a	4	1	n/a	n/a	n/a	n/a	n/a
