mstime	trial_type	stim_file	subject	experiment	session	trial	task	item_name	item_num	recog_resp	recog_conf	resp	color_r	color_g	color_b	case	font
0	SESS_START	n/a	LTP237	ltpFR	3	n/a	n/a	n/a	n/a	1	1	n/a	n/a	n/a	n/a	n/a	n/a
197298	SESS_START	n/a	LTP237	ltpFR	3	n/a	n/a	n/a	n/a	0	n/a	n/a	n/a	n/a	n/a	n/a	n/a
1232690	SESS_START	n/a	LTP237	ltpFR	3	n/a	n/a	n/a	n/a	n/a	n/a	n/a	n/a	n/a	n/a	n/a	n/a
1302634	WORD	wordpools/wasnorm_wordpool_less_exclusions.txt	LTP237	ltpFR	3	1	1	SILVERWARE	1308	n/a	n/a	0	0.422607421875	0.5869140625	0	upper	zerothre.ttf
1306511	WORD	wordpools/wasnorm_wordpool_less_exclusions.txt	LTP237	ltpFR	3	1	1	UMPIRE	1535	n/a	n/a	0	0.422607421875	0.5869140625	0	upper	zerothre.ttf
1310522	WORD	wordpools/wasnorm_wordpool_less_exclusions.txt	LTP237	ltpFR	3	1	1	CABBAGE	210	n/a	n/a	0	0.422607421875	0.5869140625	0	upper	zerothre.ttf
1314599	WORD	wordpools/wasnorm_wordpool_less_exclusions.txt	LTP237	ltpFR	3	1	1	FOLDER	588	n/a	n/a	0	0.422607421875	0.5869140625	0	upper	zerothre.ttf
1318577	WORD	wordpools/wasnorm_wordpool_less_exclusions.txt	LTP237	ltpFR	3	1	1	BINDER	127	n/a	n/a	0	0.422607421875	0.5869140625	0	upper	zerothre.ttf
1322404	WORD	wordpools/wasnorm_wordpool_less_exclusions.txt	LTP237	ltpFR	3	1	0	CATTLE	261	n/a	n/a	1	0.57763671875	0.412841796875	1	lower	amplitud.ttf
1326266	WORD	wordpools/wasnorm_wordpool_less_exclusions.txt	LTP237	ltpFR	3	1	0	FUR	615	n/a	n/a	0	0.57763671875	0.412841796875	1	lower	amplitud.ttf
1330392	WORD	wordpools/wasnorm_wordpool_less_exclusions.txt	LTP237	ltpFR	3	1	0	BIKE	125	n/a	n/a	1	0.57763671875	0.412841796875	1	lower	amplitud.ttf
1334536	WORD	wordpools/wasnorm_wordpool_less_exclusions.txt	LTP237	ltpFR	3	1	1	AUTHOR	61	n/a	n/a	1	0.422607421875	0.5869140625	0	upper	zerothre.ttf
1338597	WORD	wordpools/wasnorm_wordpool_less_exclusions.txt	LTP237	ltpFR	3	1	1	COW	393	n/a	n/a	1	0.422607421875	0.5869140625	0	upper	zerothre.ttf
1342541	WORD	wordpools/wasnorm_wordpool_less_exclusions.txt	LTP237	ltpFR	3	1	1	RABBIT	1152	n/a	n/a	1	0.422607421875	0.5869140625	0	upper	zerothre.ttf
1346435	WORD	wordpools/wasnorm_wordpool_less_exclusions.txt	LTP237	ltpFR	3	1	0	HANDBAG	684	n/a	n/a	1	0.57763671875	0.412841796875	1	lower	amplitud.ttf
1350579	WORD	wordpools/wasnorm_wordpool_less_exclusions.txt	LTP237	ltpFR	3	1	0	CROCODILE	411	n/a	n/a	1	0.57763671875	0.412841796875	1	lower	amplitud.ttf
1354774	WORD	wordpools/wasnorm_wordpool_less_exclusions.txt	LTP237	ltpFR	3	1	0	GIRAFFE	636	n/a	n/a	1	0.57763671875	0.412841796875	1	lower	amplitud.ttf
1358684	WORD	wordpools/wasnorm_wordpool_less_exclusions.txt	LTP237	ltpFR	3	1	0	SHIRT	1287	n/a	n/a	0	0.57763671875	0.412841796875	1	lower	amplitud.ttf
1362712	WORD	wordpools/wasnorm_wordpool_less_exclusions.txt	LTP237	ltpFR	3	1	0	JACKET	747	n/a	n/a	1	0.57763671875	0.412841796875	1	lower	amplitud.ttf
1368436	REC_START	n/a	LTP237	ltpFR	3	1	n/a	n/a	n/a	n/a	n/a	n/a	n/a	n/a	n/a	n/a	n/a
1369675	REC_WORD	wordpools/wasnorm_wordpool_less_exclusions.txt	LTP237	ltpFR	3	1	0	SHIRT	1287	n/a	n/a	0	n/a	n/a	n/a	n/a	n/a
1370845	REC_WORD	wordpools/wasnorm_wordpool_less_exclusions.txt	LTP237	ltpFR	3	1	0	JACKET	747	n/a	n/a	1	n/a	n/a	n/a	n/a	n/a
1372392	REC_WORD	wordpools/wasnorm_wordpool_less_exclusions.txt	LTP237	ltpFR	3	1	0	BIKE	125	n/a	n/a	1	n/a	n/a	n/a	n/a	n/a
1373868	REC_WORD	wordpools/wasnorm_wordpool_less_exclusions.txt	LTP237	ltpFR	3	1	1	AUTHOR	61	n/a	n/a	1	n/a	n/a	n/a	n/a	n/a
1376393	REC_WORD	wordpools/wasnorm_wordpool_less_exclusions.txt	LTP237	ltpFR	3	1	0	CROCODILE	411	n/a	n/a	1	n/a	n/a	n/a	n/a	n/a
1377780	REC_WORD	wordpools/wasnorm_wordpool_less_exclusions.txt	LTP237	ltpFR	3	1	0	GIRAFFE	636	n/a	n/a	1	n/a	n/a	n/a	n/a	n/a
1383576	REC_WORD	wordpools/wasnorm_wordpool_less_exclusions.txt	LTP237	ltpFR	3	1	1	BINDER	127	n/a	n/a	0	n/a	n/a	n/a	n/a	n/a
1386215	REC_WORD	wordpools/wasnorm_wordpool_less_exclusions.txt	LTP237	ltpFR	3	1	1	CABBAGE	210	n/a	n/a	0	n/a	n/a	n/a	n/a	n/a
1405881	REC_WORD	wordpools/wasnorm_wordpool_less_exclusions.txt	LTP237	ltpFR	3	1	1	COW	393	n/a	n/a	1	n/a	n/a	n/a	n/a	n/a
1449233	WORD	wordpools/wasnorm_wordpool_less_exclusions.txt	LTP237	ltpFR	3	2	0	DOG	480	n/a	n/a	1	0.57763671875	0.412841796875	1	lower	amplitud.ttf
1453227	WORD	wordpools/wasnorm_wordpool_less_exclusions.txt	LTP237	ltpFR	3	2	0	CAT	257	n/a	n/a	1	0.57763671875	0.412841796875	1	lower	amplitud.ttf
1457221	WORD	wordpools/wasnorm_wordpool_less_exclusions.txt	LTP237	ltpFR	3	2	0	SLEEVE	1324	n/a	n/a	0	0.57763671875	0.412841796875	1	lower	amplitud.ttf
1461248	WORD	wordpools/wasnorm_wordpool_less_exclusions.txt	LTP237	ltpFR	3	2	1	SHERIFF	1284	n/a	n/a	1	0.422607421875	0.5869140625	0	upper	zerothre.ttf
1465324	WORD	wordpools/wasnorm_wordpool_less_exclusions.txt	LTP237	ltpFR	3	2	1	DANDELION	438	n/a	n/a	1	0.422607421875	0.5869140625	0	upper	zerothre.ttf
1469169	WORD	wordpools/wasnorm_wordpool_less_exclusions.txt	LTP237	ltpFR	3	2	1	BUTLER	204	n/a	n/a	1	0.422607421875	0.5869140625	0	upper	zerothre.ttf
1473329	WORD	wordpools/wasnorm_wordpool_less_exclusions.txt	LTP237	ltpFR	3	2	1	KNEE	784	n/a	n/a	0	0.422607421875	0.5869140625	0	upper	zerothre.ttf
1477506	WORD	wordpools/wasnorm_wordpool_less_exclusions.txt	LTP237	ltpFR	3	2	0	FIST	572	n/a	n/a	1	0.57763671875	0.412841796875	1	lower	amplitud.ttf
1481467	WORD	wordpools/wasnorm_wordpool_less_exclusions.txt	LTP237	ltpFR	3	2	0	MEAT	883	n/a	n/a	1	0.57763671875	0.412841796875	1	lower	amplitud.ttf
1485311	WORD	wordpools/wasnorm_wordpool_less_exclusions.txt	LTP237	ltpFR	3	2	1	WEED	1599	n/a	n/a	1	0.422607421875	0.5869140625	0	upper	zerothre.ttf
1489140	WORD	wordpools/wasnorm_wordpool_less_exclusions.txt	LTP237	ltpFR	3	2	1	SIREN	1310	n/a	n/a	0	0.422607421875	0.5869140625	0	upper	zerothre.ttf
1493100	WORD	wordpools/wasnorm_wordpool_less_exclusions.txt	LTP237	ltpFR	3	2	1	WRENCH	1625	n/a	n/a	0	0.422607421875	0.5869140625	0	upper	zerothre.ttf
1497211	WORD	wordpools/wasnorm_wordpool_less_exclusions.txt	LTP237	ltpFR	3	2	1	STATUE	1374	n/a	n/a	0	0.422607421875	0.5869140625	0	upper	zerothre.ttf
1501354	WORD	wordpools/wasnorm_wordpool_less_exclusions.txt	LTP237	ltpFR	3	2	0	MUSEUM	933	n/a	n/a	1	0.57763671875	0.412841796875	1	lower	amplitud.ttf
1505448	WORD	wordpools/wasnorm_wordpool_less_exclusions.txt	LTP237	ltpFR	3	2	0	TART	1436	n/a	n/a	0	0.57763671875	0.412841796875	1	lower	amplitud.ttf
1509608	WORD	wordpools/wasnorm_wordpool_less_exclusions.txt	LTP237	ltpFR	3	2	0	TANGERINE	1431	n/a	n/a	0	0.57763671875	0.412841796875	1	lower	amplitud.ttf
1515350	REC_START	n/a	LTP237	ltpFR	3	2	n/a	n/a	n/a	n/a	n/a	n/a	n/a	n/a	n/a	n/a	n/a
1516247	REC_WORD	wordpools/wasnorm_wordpool_less_exclusions.txt	LTP237	ltpFR	3	2	0	FIST	572	n/a	n/a	1	n/a	n/a	n/a	n/a	n/a
1517705	REC_WORD	wordpools/wasnorm_wordpool_less_exclusions.txt	LTP237	ltpFR	3	2	0	MEAT	883	n/a	n/a	1	n/a	n/a	n/a	n/a	n/a
1519391	REC_WORD	wordpools/wasnorm_wordpool_less_exclusions.txt	LTP237	ltpFR	3	2	0	DOG	480	n/a	n/a	1	n/a	n/a	n/a	n/a	n/a
1520814	REC_WORD	wordpools/wasnorm_wordpool_less_exclusions.txt	LTP237	ltpFR	3	2	0	CAT	257	n/a	n/a	1	n/a	n/a	n/a	n/a	n/a
1522354	REC_WORD	wordpools/wasnorm_wordpool_less_exclusions.txt	LTP237	ltpFR	3	2	0	SLEEVE	1324	n/a	n/a	0	n/a	n/a	n/a	n/a	n/a
1532493	REC_WORD	wordpools/wasnorm_wordpool_less_exclusions.txt	LTP237	ltpFR	3	2	0	MUSEUM	933	n/a	n/a	1	n/a	n/a	n/a	n/a	n/a
1536113	REC_WORD	wordpools/wasnorm_wordpool_less_exclusions.txt	LTP237	ltpFR	3	2	1	KNEE	784	n/a	n/a	0	n/a	n/a	n/a	n/a	n/a
1548849	REC_WORD	wordpools/wasnorm_wordpool_less_exclusions.txt	LTP237	ltpFR	3	2	1	WEED	1599	n/a	n/a	1	n/a	n/a	n/a	n/a	n/a
1599641	WORD	wordpools/wasnorm_wordpool_less_exclusions.txt	LTP237	ltpFR	3	3	1	BOAT	144	n/a	n/a	0	0.422607421875	0.5869140625	0	upper	zerothre.ttf
1603501	WORD	wordpools/wasnorm_wordpool_less_exclusions.txt	LTP237	ltpFR	3	3	1	PORPOISE	1109	n/a	n/a	0	0.422607421875	0.5869140625	0	upper	zerothre.ttf
1607495	WORD	wordpools/wasnorm_wordpool_less_exclusions.txt	LTP237	ltpFR	3	3	1	VEAL	1551	n/a	n/a	0	0.422607421875	0.5869140625	0	upper	zerothre.ttf
1611606	WORD	wordpools/wasnorm_wordpool_less_exclusions.txt	LTP237	ltpFR	3	3	1	TURKEY	1520	n/a	n/a	1	0.422607421875	0.5869140625	0	upper	zerothre.ttf
1615784	WORD	wordpools/wasnorm_wordpool_less_exclusions.txt	LTP237	ltpFR	3	3	0	PRAIRIE	1118	n/a	n/a	1	0.57763671875	0.412841796875	1	lower	amplitud.ttf
1619627	WORD	wordpools/wasnorm_wordpool_less_exclusions.txt	LTP237	ltpFR	3	3	0	BIOLOGIST	128	n/a	n/a	1	0.57763671875	0.412841796875	1	lower	amplitud.ttf
1623471	WORD	wordpools/wasnorm_wordpool_less_exclusions.txt	LTP237	ltpFR	3	3	0	BEDROOM	111	n/a	n/a	1	0.57763671875	0.412841796875	1	lower	amplitud.ttf
1627432	WORD	wordpools/wasnorm_wordpool_less_exclusions.txt	LTP237	ltpFR	3	3	0	NIGHTGOWN	953	n/a	n/a	0	0.57763671875	0.412841796875	1	lower	amplitud.ttf
1631426	WORD	wordpools/wasnorm_wordpool_less_exclusions.txt	LTP237	ltpFR	3	3	0	NEPHEW	942	n/a	n/a	1	0.57763671875	0.412841796875	1	lower	amplitud.ttf
1635553	WORD	wordpools/wasnorm_wordpool_less_exclusions.txt	LTP237	ltpFR	3	3	1	RIBBON	1189	n/a	n/a	0	0.422607421875	0.5869140625	0	upper	zerothre.ttf
1639381	WORD	wordpools/wasnorm_wordpool_less_exclusions.txt	LTP237	ltpFR	3	3	1	VESSEL	1558	n/a	n/a	1	0.422607421875	0.5869140625	0	upper	zerothre.ttf
1643276	WORD	wordpools/wasnorm_wordpool_less_exclusions.txt	LTP237	ltpFR	3	3	1	GOWN	652	n/a	n/a	0	0.422607421875	0.5869140625	0	upper	zerothre.ttf
1647302	WORD	wordpools/wasnorm_wordpool_less_exclusions.txt	LTP237	ltpFR	3	3	1	BANDANNA	80	n/a	n/a	0	0.422607421875	0.5869140625	0	upper	zerothre.ttf
1651413	WORD	wordpools/wasnorm_wordpool_less_exclusions.txt	LTP237	ltpFR	3	3	0	BARRACUDA	90	n/a	n/a	1	0.57763671875	0.412841796875	1	lower	amplitud.ttf
1655573	WORD	wordpools/wasnorm_wordpool_less_exclusions.txt	LTP237	ltpFR	3	3	0	BROCCOLI	176	n/a	n/a	0	0.57763671875	0.412841796875	1	lower	amplitud.ttf
1659468	WORD	wordpools/wasnorm_wordpool_less_exclusions.txt	LTP237	ltpFR	3	3	0	CHERRY	293	n/a	n/a	n/a	0.57763671875	0.412841796875	1	lower	amplitud.ttf
1662496	SLOW_MSG	n/a	LTP237	ltpFR	3	3	n/a	n/a	n/a	n/a	n/a	n/a	n/a	n/a	n/a	n/a	n/a
1666758	REC_START	n/a	LTP237	ltpFR	3	3	n/a	n/a	n/a	n/a	n/a	n/a	n/a	n/a	n/a	n/a	n/a
1669018	REC_WORD	wordpools/wasnorm_wordpool_less_exclusions.txt	LTP237	ltpFR	3	3	0	BROCCOLI	176	n/a	n/a	0	n/a	n/a	n/a	n/a	n/a
1670290	REC_WORD	wordpools/wasnorm_wordpool_less_exclusions.txt	LTP237	ltpFR	3	3	0	BARRACUDA	90	n/a	n/a	1	n/a	n/a	n/a	n/a	n/a
1676740	REC_WORD	wordpools/wasnorm_wordpool_less_exclusions.txt	LTP237	ltpFR	3	3	1	GOWN	652	n/a	n/a	0	n/a	n/a	n/a	n/a	n/a
1701843	REC_WORD	wordpools/wasnorm_wordpool_less_exclusions.txt	LTP237	ltpFR	3	3	1	BANDANNA	80	n/a	n/a	0	n/a	n/a	n/a	n/a	n/a
1707115	REC_WORD	wordpools/wasnorm_wordpool_less_exclusions.txt	LTP237	ltpFR	3	3	1	VEAL	1551	n/a	n/a	0	n/a	n/a	n/a	n/a	n/a
1749917	WORD	wordpools/wasnorm_wordpool_less_exclusions.txt	LTP237	ltpFR	3	4	1	PIT	1077	n/a	n/a	0	0.422607421875	0.5869140625	0	upper	zerothre.ttf
1753977	WORD	wordpools/wasnorm_wordpool_less_exclusions.txt	LTP237	ltpFR	3	4	1	TORNADO	1485	n/a	n/a	0	0.422607421875	0.5869140625	0	upper	zerothre.ttf
1758005	WORD	wordpools/wasnorm_wordpool_less_exclusions.txt	LTP237	ltpFR	3	4	1	TUBE	1516	n/a	n/a	0	0.422607421875	0.5869140625	0	upper	zerothre.ttf
1761899	WORD	wordpools/wasnorm_wordpool_less_exclusions.txt	LTP237	ltpFR	3	4	1	FAUCET	555	n/a	n/a	0	0.422607421875	0.5869140625	0	upper	zerothre.ttf
1765943	WORD	wordpools/wasnorm_wordpool_less_exclusions.txt	LTP237	ltpFR	3	4	1	MEDAL	885	n/a	n/a	0	0.422607421875	0.5869140625	0	upper	zerothre.ttf
1770170	WORD	wordpools/wasnorm_wordpool_less_exclusions.txt	LTP237	ltpFR	3	4	1	PEACH	1031	n/a	n/a	0	0.422607421875	0.5869140625	0	upper	zerothre.ttf
1774230	WORD	wordpools/wasnorm_wordpool_less_exclusions.txt	LTP237	ltpFR	3	4	1	TREE	1502	n/a	n/a	1	0.422607421875	0.5869140625	0	upper	zerothre.ttf
1778208	WORD	wordpools/wasnorm_wordpool_less_exclusions.txt	LTP237	ltpFR	3	4	1	TWIG	1527	n/a	n/a	0	0.422607421875	0.5869140625	0	upper	zerothre.ttf
1782334	WORD	wordpools/wasnorm_wordpool_less_exclusions.txt	LTP237	ltpFR	3	4	1	BAKER	71	n/a	n/a	1	0.422607421875	0.5869140625	0	upper	zerothre.ttf
1786478	WORD	wordpools/wasnorm_wordpool_less_exclusions.txt	LTP237	ltpFR	3	4	1	CINNAMON	310	n/a	n/a	0	0.422607421875	0.5869140625	0	upper	zerothre.ttf
1790555	WORD	wordpools/wasnorm_wordpool_less_exclusions.txt	LTP237	ltpFR	3	4	1	CHISEL	305	n/a	n/a	0	0.422607421875	0.5869140625	0	upper	zerothre.ttf
1794416	WORD	wordpools/wasnorm_wordpool_less_exclusions.txt	LTP237	ltpFR	3	4	1	BANDIT	81	n/a	n/a	1	0.422607421875	0.5869140625	0	upper	zerothre.ttf
1798295	WORD	wordpools/wasnorm_wordpool_less_exclusions.txt	LTP237	ltpFR	3	4	1	OCEAN	970	n/a	n/a	0	0.422607421875	0.5869140625	0	upper	zerothre.ttf
1802454	WORD	wordpools/wasnorm_wordpool_less_exclusions.txt	LTP237	ltpFR	3	4	1	BRACELET	163	n/a	n/a	0	0.422607421875	0.5869140625	0	upper	zerothre.ttf
1806398	WORD	wordpools/wasnorm_wordpool_less_exclusions.txt	LTP237	ltpFR	3	4	1	GUEST	669	n/a	n/a	1	0.422607421875	0.5869140625	0	upper	zerothre.ttf
1810359	WORD	wordpools/wasnorm_wordpool_less_exclusions.txt	LTP237	ltpFR	3	4	1	DIVER	476	n/a	n/a	1	0.422607421875	0.5869140625	0	upper	zerothre.ttf
1816152	REC_START	n/a	LTP237	ltpFR	3	4	n/a	n/a	n/a	n/a	n/a	n/a	n/a	n/a	n/a	n/a	n/a
1817214	REC_WORD	wordpools/wasnorm_wordpool_less_exclusions.txt	LTP237	ltpFR	3	4	1	GUEST	669	n/a	n/a	1	n/a	n/a	n/a	n/a	n/a
1818496	REC_WORD	wordpools/wasnorm_wordpool_less_exclusions.txt	LTP237	ltpFR	3	4	1	DIVER	476	n/a	n/a	1	n/a	n/a	n/a	n/a	n/a
1820181	REC_WORD	wordpools/wasnorm_wordpool_less_exclusions.txt	LTP237	ltpFR	3	4	1	PEACH	1031	n/a	n/a	0	n/a	n/a	n/a	n/a	n/a
1821540	REC_WORD	wordpools/wasnorm_wordpool_less_exclusions.txt	LTP237	ltpFR	3	4	1	TREE	1502	n/a	n/a	1	n/a	n/a	n/a	n/a	n/a
1823176	REC_WORD	wordpools/wasnorm_wordpool_less_exclusions.txt	LTP237	ltpFR	3	4	1	TWIG	1527	n/a	n/a	0	n/a	n/a	n/a	n/a	n/a
1831377	REC_WORD	wordpools/wasnorm_wordpool_less_exclusions.txt	LTP237	ltpFR	3	4	1	BAKER	71	n/a	n/a	1	n/a	n/a	n/a	n/a	n/a
1907514	WORD	wordpools/wasnorm_wordpool_less_exclusions.txt	LTP237	ltpFR	3	5	0	THORN	1459	n/a	n/a	0	0.57763671875	0.412841796875	1	lower	amplitud.ttf
1911391	WORD	wordpools/wasnorm_wordpool_less_exclusions.txt	LTP237	ltpFR	3	5	0	THIGH	1457	n/a	n/a	0	0.57763671875	0.412841796875	1	lower	amplitud.ttf
1915552	WORD	wordpools/wasnorm_wordpool_less_exclusions.txt	LTP237	ltpFR	3	5	0	ALLEY	15	n/a	n/a	0	0.57763671875	0.412841796875	1	lower	amplitud.ttf
1919429	WORD	wordpools/wasnorm_wordpool_less_exclusions.txt	LTP237	ltpFR	3	5	0	HIGHWAY	707	n/a	n/a	1	0.57763671875	0.412841796875	1	lower	amplitud.ttf
1923274	WORD	wordpools/wasnorm_wordpool_less_exclusions.txt	LTP237	ltpFR	3	5	0	GEM	629	n/a	n/a	0	0.57763671875	0.412841796875	1	lower	amplitud.ttf
1927135	WORD	wordpools/wasnorm_wordpool_less_exclusions.txt	LTP237	ltpFR	3	5	0	THICKET	1455	n/a	n/a	1	0.57763671875	0.412841796875	1	lower	amplitud.ttf
1930963	WORD	wordpools/wasnorm_wordpool_less_exclusions.txt	LTP237	ltpFR	3	5	0	MOSS	918	n/a	n/a	1	0.57763671875	0.412841796875	1	lower	amplitud.ttf
1934957	WORD	wordpools/wasnorm_wordpool_less_exclusions.txt	LTP237	ltpFR	3	5	0	WHALE	1601	n/a	n/a	1	0.57763671875	0.412841796875	1	lower	amplitud.ttf
1938968	WORD	wordpools/wasnorm_wordpool_less_exclusions.txt	LTP237	ltpFR	3	5	0	ISLAND	745	n/a	n/a	1	0.57763671875	0.412841796875	1	lower	amplitud.ttf
1943161	WORD	wordpools/wasnorm_wordpool_less_exclusions.txt	LTP237	ltpFR	3	5	0	RULER	1216	n/a	n/a	1	0.57763671875	0.412841796875	1	lower	amplitud.ttf
1947122	WORD	wordpools/wasnorm_wordpool_less_exclusions.txt	LTP237	ltpFR	3	5	0	WINDSHIELD	1612	n/a	n/a	1	0.57763671875	0.412841796875	1	lower	amplitud.ttf
1951083	WORD	wordpools/wasnorm_wordpool_less_exclusions.txt	LTP237	ltpFR	3	5	0	BAIT	70	n/a	n/a	0	0.57763671875	0.412841796875	1	lower	amplitud.ttf
1954977	WORD	wordpools/wasnorm_wordpool_less_exclusions.txt	LTP237	ltpFR	3	5	0	BELL	118	n/a	n/a	1	0.57763671875	0.412841796875	1	lower	amplitud.ttf
1958855	WORD	wordpools/wasnorm_wordpool_less_exclusions.txt	LTP237	ltpFR	3	5	0	RING	1193	n/a	n/a	0	0.57763671875	0.412841796875	1	lower	amplitud.ttf
1962832	WORD	wordpools/wasnorm_wordpool_less_exclusions.txt	LTP237	ltpFR	3	5	0	PEDAL	1037	n/a	n/a	1	0.57763671875	0.412841796875	1	lower	amplitud.ttf
1966743	WORD	wordpools/wasnorm_wordpool_less_exclusions.txt	LTP237	ltpFR	3	5	0	SQUID	1361	n/a	n/a	1	0.57763671875	0.412841796875	1	lower	amplitud.ttf
1972534	REC_START	n/a	LTP237	ltpFR	3	5	n/a	n/a	n/a	n/a	n/a	n/a	n/a	n/a	n/a	n/a	n/a
1973542	REC_WORD	wordpools/wasnorm_wordpool_less_exclusions.txt	LTP237	ltpFR	3	5	0	SQUID	1361	n/a	n/a	1	n/a	n/a	n/a	n/a	n/a
1976181	REC_WORD	wordpools/wasnorm_wordpool_less_exclusions.txt	LTP237	ltpFR	3	5	0	THORN	1459	n/a	n/a	0	n/a	n/a	n/a	n/a	n/a
1977463	REC_WORD	wordpools/wasnorm_wordpool_less_exclusions.txt	LTP237	ltpFR	3	5	0	THIGH	1457	n/a	n/a	0	n/a	n/a	n/a	n/a	n/a
1979135	REC_WORD	wordpools/wasnorm_wordpool_less_exclusions.txt	LTP237	ltpFR	3	5	0	RULER	1216	n/a	n/a	1	n/a	n/a	n/a	n/a	n/a
1984798	REC_WORD	wordpools/wasnorm_wordpool_less_exclusions.txt	LTP237	ltpFR	3	5	0	THICKET	1455	n/a	n/a	1	n/a	n/a	n/a	n/a	n/a
1986647	REC_WORD	wordpools/wasnorm_wordpool_less_exclusions.txt	LTP237	ltpFR	3	5	0	GEM	629	n/a	n/a	0	n/a	n/a	n/a	n/a	n/a
1993834	REC_WORD	wordpools/wasnorm_wordpool_less_exclusions.txt	LTP237	ltpFR	3	5	0	HIGHWAY	707	n/a	n/a	1	n/a	n/a	n/a	n/a	n/a
1998061	REC_WORD	wordpools/wasnorm_wordpool_less_exclusions.txt	LTP237	ltpFR	3	5	0	BELL	118	n/a	n/a	1	n/a	n/a	n/a	n/a	n/a
2003229	REC_WORD	wordpools/wasnorm_wordpool_less_exclusions.txt	LTP237	ltpFR	3	5	0	RING	1193	n/a	n/a	0	n/a	n/a	n/a	n/a	n/a
2054494	WORD	wordpools/wasnorm_wordpool_less_exclusions.txt	LTP237	ltpFR	3	6	0	TUNA	1518	n/a	n/a	0	0.57763671875	0.412841796875	1	lower	amplitud.ttf
2058422	WORD	wordpools/wasnorm_wordpool_less_exclusions.txt	LTP237	ltpFR	3	6	0	CHECK	284	n/a	n/a	1	0.57763671875	0.412841796875	1	lower	amplitud.ttf
2062432	WORD	wordpools/wasnorm_wordpool_less_exclusions.txt	LTP237	ltpFR	3	6	1	SISTER	1312	n/a	n/a	1	0.422607421875	0.5869140625	0	upper	zerothre.ttf
2066261	WORD	wordpools/wasnorm_wordpool_less_exclusions.txt	LTP237	ltpFR	3	6	1	ELEVATOR	524	n/a	n/a	1	0.422607421875	0.5869140625	0	upper	zerothre.ttf
2070288	WORD	wordpools/wasnorm_wordpool_less_exclusions.txt	LTP237	ltpFR	3	6	1	LADDER	793	n/a	n/a	0	0.422607421875	0.5869140625	0	upper	zerothre.ttf
2074365	WORD	wordpools/wasnorm_wordpool_less_exclusions.txt	LTP237	ltpFR	3	6	0	CHIPMUNK	304	n/a	n/a	1	0.57763671875	0.412841796875	1	lower	amplitud.ttf
2078193	WORD	wordpools/wasnorm_wordpool_less_exclusions.txt	LTP237	ltpFR	3	6	0	TROUT	1511	n/a	n/a	1	0.57763671875	0.412841796875	1	lower	amplitud.ttf
2082187	WORD	wordpools/wasnorm_wordpool_less_exclusions.txt	LTP237	ltpFR	3	6	1	VIOLIN	1571	n/a	n/a	0	0.422607421875	0.5869140625	0	upper	zerothre.ttf
2086281	WORD	wordpools/wasnorm_wordpool_less_exclusions.txt	LTP237	ltpFR	3	6	1	STOVE	1388	n/a	n/a	0	0.422607421875	0.5869140625	0	upper	zerothre.ttf
2090159	WORD	wordpools/wasnorm_wordpool_less_exclusions.txt	LTP237	ltpFR	3	6	1	SHUTTER	1300	n/a	n/a	0	0.422607421875	0.5869140625	0	upper	zerothre.ttf
2094286	WORD	wordpools/wasnorm_wordpool_less_exclusions.txt	LTP237	ltpFR	3	6	1	SURVEY	1414	n/a	n/a	0	0.422607421875	0.5869140625	0	upper	zerothre.ttf
2098197	WORD	wordpools/wasnorm_wordpool_less_exclusions.txt	LTP237	ltpFR	3	6	1	KEYBOARD	774	n/a	n/a	0	0.422607421875	0.5869140625	0	upper	zerothre.ttf
2102091	WORD	wordpools/wasnorm_wordpool_less_exclusions.txt	LTP237	ltpFR	3	6	0	FLANNEL	574	n/a	n/a	0	0.57763671875	0.412841796875	1	lower	amplitud.ttf
2106201	WORD	wordpools/wasnorm_wordpool_less_exclusions.txt	LTP237	ltpFR	3	6	0	SKIRT	1319	n/a	n/a	0	0.57763671875	0.412841796875	1	lower	amplitud.ttf
2110311	WORD	wordpools/wasnorm_wordpool_less_exclusions.txt	LTP237	ltpFR	3	6	0	CONDUCTOR	362	n/a	n/a	1	0.57763671875	0.412841796875	1	lower	amplitud.ttf
2114156	WORD	wordpools/wasnorm_wordpool_less_exclusions.txt	LTP237	ltpFR	3	6	0	TEACHER	1440	n/a	n/a	1	0.57763671875	0.412841796875	1	lower	amplitud.ttf
2119915	REC_START	n/a	LTP237	ltpFR	3	6	n/a	n/a	n/a	n/a	n/a	n/a	n/a	n/a	n/a	n/a	n/a
2121602	REC_WORD	wordpools/wasnorm_wordpool_less_exclusions.txt	LTP237	ltpFR	3	6	0	FLANNEL	574	n/a	n/a	0	n/a	n/a	n/a	n/a	n/a
2122589	REC_WORD	wordpools/wasnorm_wordpool_less_exclusions.txt	LTP237	ltpFR	3	6	0	SKIRT	1319	n/a	n/a	0	n/a	n/a	n/a	n/a	n/a
2124145	REC_WORD	wordpools/wasnorm_wordpool_less_exclusions.txt	LTP237	ltpFR	3	6	0	CONDUCTOR	362	n/a	n/a	1	n/a	n/a	n/a	n/a	n/a
2125752	REC_WORD	wordpools/wasnorm_wordpool_less_exclusions.txt	LTP237	ltpFR	3	6	0	TEACHER	1440	n/a	n/a	1	n/a	n/a	n/a	n/a	n/a
2127398	REC_WORD	wordpools/wasnorm_wordpool_less_exclusions.txt	LTP237	ltpFR	3	6	0	TROUT	1511	n/a	n/a	1	n/a	n/a	n/a	n/a	n/a
2128825	REC_WORD	wordpools/wasnorm_wordpool_less_exclusions.txt	LTP237	ltpFR	3	6	0	TUNA	1518	n/a	n/a	0	n/a	n/a	n/a	n/a	n/a
2130541	REC_WORD	wordpools/wasnorm_wordpool_less_exclusions.txt	LTP237	ltpFR	3	6	1	SISTER	1312	n/a	n/a	1	n/a	n/a	n/a	n/a	n/a
2134072	REC_WORD	wordpools/wasnorm_wordpool_less_exclusions.txt	LTP237	ltpFR	3	6	1	LADDER	793	n/a	n/a	0	n/a	n/a	n/a	n/a	n/a
2135619	REC_WORD	wordpools/wasnorm_wordpool_less_exclusions.txt	LTP237	ltpFR	3	6	1	ELEVATOR	524	n/a	n/a	1	n/a	n/a	n/a	n/a	n/a
2138461	REC_WORD	wordpools/wasnorm_wordpool_less_exclusions.txt	LTP237	ltpFR	3	6	1	VIOLIN	1571	n/a	n/a	0	n/a	n/a	n/a	n/a	n/a
2202025	WORD	wordpools/wasnorm_wordpool_less_exclusions.txt	LTP237	ltpFR	3	7	1	MISSILE	900	n/a	n/a	0	0.422607421875	0.5869140625	0	upper	zerothre.ttf
2205869	WORD	wordpools/wasnorm_wordpool_less_exclusions.txt	LTP237	ltpFR	3	7	1	PILOT	1070	n/a	n/a	0	0.422607421875	0.5869140625	0	upper	zerothre.ttf
2209913	WORD	wordpools/wasnorm_wordpool_less_exclusions.txt	LTP237	ltpFR	3	7	1	HONEY	713	n/a	n/a	0	0.422607421875	0.5869140625	0	upper	zerothre.ttf
2213774	WORD	wordpools/wasnorm_wordpool_less_exclusions.txt	LTP237	ltpFR	3	7	1	RICE	1190	n/a	n/a	0	0.422607421875	0.5869140625	0	upper	zerothre.ttf
2217901	WORD	wordpools/wasnorm_wordpool_less_exclusions.txt	LTP237	ltpFR	3	7	1	TROUSERS	1510	n/a	n/a	0	0.422607421875	0.5869140625	0	upper	zerothre.ttf
2221729	WORD	wordpools/wasnorm_wordpool_less_exclusions.txt	LTP237	ltpFR	3	7	1	POLITICIAN	1099	n/a	n/a	1	0.422607421875	0.5869140625	0	upper	zerothre.ttf
2225640	WORD	wordpools/wasnorm_wordpool_less_exclusions.txt	LTP237	ltpFR	3	7	1	COLESLAW	344	n/a	n/a	0	0.422607421875	0.5869140625	0	upper	zerothre.ttf
2229466	WORD	wordpools/wasnorm_wordpool_less_exclusions.txt	LTP237	ltpFR	3	7	1	PITCHFORK	1078	n/a	n/a	1	0.422607421875	0.5869140625	0	upper	zerothre.ttf
2233543	WORD	wordpools/wasnorm_wordpool_less_exclusions.txt	LTP237	ltpFR	3	7	1	BARN	89	n/a	n/a	0	0.422607421875	0.5869140625	0	upper	zerothre.ttf
2237388	WORD	wordpools/wasnorm_wordpool_less_exclusions.txt	LTP237	ltpFR	3	7	1	SHORTS	1293	n/a	n/a	0	0.422607421875	0.5869140625	0	upper	zerothre.ttf
2241233	WORD	wordpools/wasnorm_wordpool_less_exclusions.txt	LTP237	ltpFR	3	7	1	SANDPAPER	1231	n/a	n/a	0	0.422607421875	0.5869140625	0	upper	zerothre.ttf
2245359	WORD	wordpools/wasnorm_wordpool_less_exclusions.txt	LTP237	ltpFR	3	7	1	DETECTIVE	454	n/a	n/a	1	0.422607421875	0.5869140625	0	upper	zerothre.ttf
2249453	WORD	wordpools/wasnorm_wordpool_less_exclusions.txt	LTP237	ltpFR	3	7	1	POLICE	1098	n/a	n/a	1	0.422607421875	0.5869140625	0	upper	zerothre.ttf
2253347	WORD	wordpools/wasnorm_wordpool_less_exclusions.txt	LTP237	ltpFR	3	7	1	SCRIBBLE	1256	n/a	n/a	0	0.422607421875	0.5869140625	0	upper	zerothre.ttf
2257441	WORD	wordpools/wasnorm_wordpool_less_exclusions.txt	LTP237	ltpFR	3	7	1	DRIVER	499	n/a	n/a	1	0.422607421875	0.5869140625	0	upper	zerothre.ttf
2261552	WORD	wordpools/wasnorm_wordpool_less_exclusions.txt	LTP237	ltpFR	3	7	1	COOKBOOK	373	n/a	n/a	0	0.422607421875	0.5869140625	0	upper	zerothre.ttf
2267477	REC_START	n/a	LTP237	ltpFR	3	7	n/a	n/a	n/a	n/a	n/a	n/a	n/a	n/a	n/a	n/a	n/a
2268340	REC_WORD	wordpools/wasnorm_wordpool_less_exclusions.txt	LTP237	ltpFR	3	7	1	COOKBOOK	373	n/a	n/a	0	n/a	n/a	n/a	n/a	n/a
2270335	REC_WORD	wordpools/wasnorm_wordpool_less_exclusions.txt	LTP237	ltpFR	3	7	1	SHORTS	1293	n/a	n/a	0	n/a	n/a	n/a	n/a	n/a
2271657	REC_WORD	wordpools/wasnorm_wordpool_less_exclusions.txt	LTP237	ltpFR	3	7	1	TROUSERS	1510	n/a	n/a	0	n/a	n/a	n/a	n/a	n/a
2273693	REC_WORD	wordpools/wasnorm_wordpool_less_exclusions.txt	LTP237	ltpFR	3	7	1	POLICE	1098	n/a	n/a	1	n/a	n/a	n/a	n/a	n/a
2275585	REC_WORD	wordpools/wasnorm_wordpool_less_exclusions.txt	LTP237	ltpFR	3	7	1	DETECTIVE	454	n/a	n/a	1	n/a	n/a	n/a	n/a	n/a
2278936	REC_WORD	wordpools/wasnorm_wordpool_less_exclusions.txt	LTP237	ltpFR	3	7	1	PILOT	1070	n/a	n/a	0	n/a	n/a	n/a	n/a	n/a
2284202	REC_WORD	wordpools/wasnorm_wordpool_less_exclusions.txt	LTP237	ltpFR	3	7	1	MISSILE	900	n/a	n/a	0	n/a	n/a	n/a	n/a	n/a
2359124	WORD	wordpools/wasnorm_wordpool_less_exclusions.txt	LTP237	ltpFR	3	8	-1	BASKET	95	n/a	n/a	-1	1.0	1.0	1	upper	Verdana.ttf
2362968	WORD	wordpools/wasnorm_wordpool_less_exclusions.txt	LTP237	ltpFR	3	8	-1	LITTER	832	n/a	n/a	-1	1.0	1.0	1	upper	Verdana.ttf
2367045	WORD	wordpools/wasnorm_wordpool_less_exclusions.txt	LTP237	ltpFR	3	8	-1	CORN	381	n/a	n/a	-1	1.0	1.0	1	upper	Verdana.ttf
2371255	WORD	wordpools/wasnorm_wordpool_less_exclusions.txt	LTP237	ltpFR	3	8	-1	PUBLICATION	1136	n/a	n/a	-1	1.0	1.0	1	upper	Verdana.ttf
2375448	WORD	wordpools/wasnorm_wordpool_less_exclusions.txt	LTP237	ltpFR	3	8	-1	ENVELOPE	537	n/a	n/a	-1	1.0	1.0	1	upper	Verdana.ttf
2379442	WORD	wordpools/wasnorm_wordpool_less_exclusions.txt	LTP237	ltpFR	3	8	-1	NOTE	958	n/a	n/a	-1	1.0	1.0	1	upper	Verdana.ttf
2383271	WORD	wordpools/wasnorm_wordpool_less_exclusions.txt	LTP237	ltpFR	3	8	-1	MOTH	920	n/a	n/a	-1	1.0	1.0	1	upper	Verdana.ttf
2387265	WORD	wordpools/wasnorm_wordpool_less_exclusions.txt	LTP237	ltpFR	3	8	-1	ARM	38	n/a	n/a	-1	1.0	1.0	1	upper	Verdana.ttf
2391308	WORD	wordpools/wasnorm_wordpool_less_exclusions.txt	LTP237	ltpFR	3	8	-1	PADDLE	1000	n/a	n/a	-1	1.0	1.0	1	upper	Verdana.ttf
2395270	WORD	wordpools/wasnorm_wordpool_less_exclusions.txt	LTP237	ltpFR	3	8	-1	SCULPTURE	1258	n/a	n/a	-1	1.0	1.0	1	upper	Verdana.ttf
2399247	WORD	wordpools/wasnorm_wordpool_less_exclusions.txt	LTP237	ltpFR	3	8	-1	OATS	968	n/a	n/a	-1	1.0	1.0	1	upper	Verdana.ttf
2403423	WORD	wordpools/wasnorm_wordpool_less_exclusions.txt	LTP237	ltpFR	3	8	-1	CAFETERIA	217	n/a	n/a	-1	1.0	1.0	1	upper	Verdana.ttf
2407517	WORD	wordpools/wasnorm_wordpool_less_exclusions.txt	LTP237	ltpFR	3	8	-1	SUBWAY	1400	n/a	n/a	-1	1.0	1.0	1	upper	Verdana.ttf
2411494	WORD	wordpools/wasnorm_wordpool_less_exclusions.txt	LTP237	ltpFR	3	8	-1	BEETLE	116	n/a	n/a	-1	1.0	1.0	1	upper	Verdana.ttf
2415455	WORD	wordpools/wasnorm_wordpool_less_exclusions.txt	LTP237	ltpFR	3	8	-1	PASSAGE	1019	n/a	n/a	-1	1.0	1.0	1	upper	Verdana.ttf
2419516	WORD	wordpools/wasnorm_wordpool_less_exclusions.txt	LTP237	ltpFR	3	8	-1	CARPENTER	246	n/a	n/a	-1	1.0	1.0	1	upper	Verdana.ttf
2425491	REC_START	n/a	LTP237	ltpFR	3	8	n/a	n/a	n/a	n/a	n/a	n/a	n/a	n/a	n/a	n/a	n/a
2426923	REC_WORD	wordpools/wasnorm_wordpool_less_exclusions.txt	LTP237	ltpFR	3	8	-1	ARM	38	n/a	n/a	-1	n/a	n/a	n/a	n/a	n/a
2428614	REC_WORD	wordpools/wasnorm_wordpool_less_exclusions.txt	LTP237	ltpFR	3	8	-1	CARPENTER	246	n/a	n/a	-1	n/a	n/a	n/a	n/a	n/a
2430469	REC_WORD	wordpools/wasnorm_wordpool_less_exclusions.txt	LTP237	ltpFR	3	8	-1	BASKET	95	n/a	n/a	-1	n/a	n/a	n/a	n/a	n/a
2431948	REC_WORD	wordpools/wasnorm_wordpool_less_exclusions.txt	LTP237	ltpFR	3	8	-1	LITTER	832	n/a	n/a	-1	n/a	n/a	n/a	n/a	n/a
2434396	REC_WORD	wordpools/wasnorm_wordpool_less_exclusions.txt	LTP237	ltpFR	3	8	-1	CAFETERIA	217	n/a	n/a	-1	n/a	n/a	n/a	n/a	n/a
2436591	REC_WORD	wordpools/wasnorm_wordpool_less_exclusions.txt	LTP237	ltpFR	3	8	-1	SUBWAY	1400	n/a	n/a	-1	n/a	n/a	n/a	n/a	n/a
2439793	REC_WORD	wordpools/wasnorm_wordpool_less_exclusions.txt	LTP237	ltpFR	3	8	-1	NOTE	958	n/a	n/a	-1	n/a	n/a	n/a	n/a	n/a
2441225	REC_WORD	wordpools/wasnorm_wordpool_less_exclusions.txt	LTP237	ltpFR	3	8	-1	ENVELOPE	537	n/a	n/a	-1	n/a	n/a	n/a	n/a	n/a
2464602	REC_WORD	wordpools/wasnorm_wordpool_less_exclusions.txt	LTP237	ltpFR	3	8	-1	SCULPTURE	1258	n/a	n/a	-1	n/a	n/a	n/a	n/a	n/a
2469245	REC_WORD	wordpools/wasnorm_wordpool_less_exclusions.txt	LTP237	ltpFR	3	8	-1	PUBLICATION	1136	n/a	n/a	-1	n/a	n/a	n/a	n/a	n/a
2519201	WORD	wordpools/wasnorm_wordpool_less_exclusions.txt	LTP237	ltpFR	3	9	-1	HELMET	702	n/a	n/a	-1	1.0	1.0	1	upper	Verdana.ttf
2523245	WORD	wordpools/wasnorm_wordpool_less_exclusions.txt	LTP237	ltpFR	3	9	-1	TAG	1429	n/a	n/a	-1	1.0	1.0	1	upper	Verdana.ttf
2527272	WORD	wordpools/wasnorm_wordpool_less_exclusions.txt	LTP237	ltpFR	3	9	-1	RACK	1154	n/a	n/a	-1	1.0	1.0	1	upper	Verdana.ttf
2531167	WORD	wordpools/wasnorm_wordpool_less_exclusions.txt	LTP237	ltpFR	3	9	-1	ZEBRA	1635	n/a	n/a	-1	1.0	1.0	1	upper	Verdana.ttf
2535309	WORD	wordpools/wasnorm_wordpool_less_exclusions.txt	LTP237	ltpFR	3	9	-1	GROOM	665	n/a	n/a	-1	1.0	1.0	1	upper	Verdana.ttf
2539436	WORD	wordpools/wasnorm_wordpool_less_exclusions.txt	LTP237	ltpFR	3	9	-1	BABY	64	n/a	n/a	-1	1.0	1.0	1	upper	Verdana.ttf
2543265	WORD	wordpools/wasnorm_wordpool_less_exclusions.txt	LTP237	ltpFR	3	9	-1	SKATE	1313	n/a	n/a	-1	1.0	1.0	1	upper	Verdana.ttf
2547425	WORD	wordpools/wasnorm_wordpool_less_exclusions.txt	LTP237	ltpFR	3	9	-1	ERASER	538	n/a	n/a	-1	1.0	1.0	1	upper	Verdana.ttf
2551352	WORD	wordpools/wasnorm_wordpool_less_exclusions.txt	LTP237	ltpFR	3	9	-1	SHACK	1273	n/a	n/a	-1	1.0	1.0	1	upper	Verdana.ttf
2555363	WORD	wordpools/wasnorm_wordpool_less_exclusions.txt	LTP237	ltpFR	3	9	-1	LEOPARD	812	n/a	n/a	-1	1.0	1.0	1	upper	Verdana.ttf
2559291	WORD	wordpools/wasnorm_wordpool_less_exclusions.txt	LTP237	ltpFR	3	9	-1	POPE	1105	n/a	n/a	-1	1.0	1.0	1	upper	Verdana.ttf
2563119	WORD	wordpools/wasnorm_wordpool_less_exclusions.txt	LTP237	ltpFR	3	9	-1	LIMOUSINE	824	n/a	n/a	-1	1.0	1.0	1	upper	Verdana.ttf
2567279	WORD	wordpools/wasnorm_wordpool_less_exclusions.txt	LTP237	ltpFR	3	9	-1	BANKER	84	n/a	n/a	-1	1.0	1.0	1	upper	Verdana.ttf
2571107	WORD	wordpools/wasnorm_wordpool_less_exclusions.txt	LTP237	ltpFR	3	9	-1	CASHIER	254	n/a	n/a	-1	1.0	1.0	1	upper	Verdana.ttf
2574951	WORD	wordpools/wasnorm_wordpool_less_exclusions.txt	LTP237	ltpFR	3	9	-1	PISTON	1076	n/a	n/a	-1	1.0	1.0	1	upper	Verdana.ttf
2579062	WORD	wordpools/wasnorm_wordpool_less_exclusions.txt	LTP237	ltpFR	3	9	-1	BIBLE	124	n/a	n/a	-1	1.0	1.0	1	upper	Verdana.ttf
2584870	REC_START	n/a	LTP237	ltpFR	3	9	n/a	n/a	n/a	n/a	n/a	n/a	n/a	n/a	n/a	n/a	n/a
2585972	REC_WORD	wordpools/wasnorm_wordpool_less_exclusions.txt	LTP237	ltpFR	3	9	-1	PISTON	1076	n/a	n/a	-1	n/a	n/a	n/a	n/a	n/a
2587344	REC_WORD	wordpools/wasnorm_wordpool_less_exclusions.txt	LTP237	ltpFR	3	9	-1	BIBLE	124	n/a	n/a	-1	n/a	n/a	n/a	n/a	n/a
2588776	REC_WORD	wordpools/wasnorm_wordpool_less_exclusions.txt	LTP237	ltpFR	3	9	-1	GROOM	665	n/a	n/a	-1	n/a	n/a	n/a	n/a	n/a
2590442	REC_WORD	wordpools/wasnorm_wordpool_less_exclusions.txt	LTP237	ltpFR	3	9	-1	RACK	1154	n/a	n/a	-1	n/a	n/a	n/a	n/a	n/a
2593131	REC_WORD	wordpools/wasnorm_wordpool_less_exclusions.txt	LTP237	ltpFR	3	9	-1	BABY	64	n/a	n/a	-1	n/a	n/a	n/a	n/a	n/a
2600205	REC_WORD	wordpools/wasnorm_wordpool_less_exclusions.txt	LTP237	ltpFR	3	9	-1	SKATE	1313	n/a	n/a	-1	n/a	n/a	n/a	n/a	n/a
2669693	WORD	wordpools/wasnorm_wordpool_less_exclusions.txt	LTP237	ltpFR	3	10	0	PIGEON	1065	n/a	n/a	0	0.57763671875	0.412841796875	1	lower	amplitud.ttf
2673670	WORD	wordpools/wasnorm_wordpool_less_exclusions.txt	LTP237	ltpFR	3	10	0	RELISH	1183	n/a	n/a	0	0.57763671875	0.412841796875	1	lower	amplitud.ttf
2677748	WORD	wordpools/wasnorm_wordpool_less_exclusions.txt	LTP237	ltpFR	3	10	0	DAD	433	n/a	n/a	1	0.57763671875	0.412841796875	1	lower	amplitud.ttf
2681624	WORD	wordpools/wasnorm_wordpool_less_exclusions.txt	LTP237	ltpFR	3	10	0	BROOK	177	n/a	n/a	0	0.57763671875	0.412841796875	1	lower	amplitud.ttf
2685769	WORD	wordpools/wasnorm_wordpool_less_exclusions.txt	LTP237	ltpFR	3	10	1	CREATURE	403	n/a	n/a	1	0.422607421875	0.5869140625	0	upper	zerothre.ttf
2689896	WORD	wordpools/wasnorm_wordpool_less_exclusions.txt	LTP237	ltpFR	3	10	1	MONSTER	912	n/a	n/a	1	0.422607421875	0.5869140625	0	upper	zerothre.ttf
2693973	WORD	wordpools/wasnorm_wordpool_less_exclusions.txt	LTP237	ltpFR	3	10	1	LOAF	835	n/a	n/a	0	0.422607421875	0.5869140625	0	upper	zerothre.ttf
2698184	WORD	wordpools/wasnorm_wordpool_less_exclusions.txt	LTP237	ltpFR	3	10	1	CABOOSE	214	n/a	n/a	0	0.422607421875	0.5869140625	0	upper	zerothre.ttf
2702343	WORD	wordpools/wasnorm_wordpool_less_exclusions.txt	LTP237	ltpFR	3	10	1	SPRINKLE	1359	n/a	n/a	0	0.422607421875	0.5869140625	0	upper	zerothre.ttf
2706504	WORD	wordpools/wasnorm_wordpool_less_exclusions.txt	LTP237	ltpFR	3	10	0	DRAGON	492	n/a	n/a	1	0.57763671875	0.412841796875	1	lower	amplitud.ttf
2710514	WORD	wordpools/wasnorm_wordpool_less_exclusions.txt	LTP237	ltpFR	3	10	0	STAKE	1368	n/a	n/a	0	0.57763671875	0.412841796875	1	lower	amplitud.ttf
2714642	WORD	wordpools/wasnorm_wordpool_less_exclusions.txt	LTP237	ltpFR	3	10	0	CHEST	295	n/a	n/a	0	0.57763671875	0.412841796875	1	lower	amplitud.ttf
2718703	WORD	wordpools/wasnorm_wordpool_less_exclusions.txt	LTP237	ltpFR	3	10	0	FATHER	554	n/a	n/a	1	0.57763671875	0.412841796875	1	lower	amplitud.ttf
2722897	WORD	wordpools/wasnorm_wordpool_less_exclusions.txt	LTP237	ltpFR	3	10	1	PARIS	1014	n/a	n/a	0	0.422607421875	0.5869140625	0	upper	zerothre.ttf
2726924	WORD	wordpools/wasnorm_wordpool_less_exclusions.txt	LTP237	ltpFR	3	10	1	LONDON	843	n/a	n/a	0	0.422607421875	0.5869140625	0	upper	zerothre.ttf
2731118	WORD	wordpools/wasnorm_wordpool_less_exclusions.txt	LTP237	ltpFR	3	10	1	BUTTERFLY	206	n/a	n/a	1	0.422607421875	0.5869140625	0	upper	zerothre.ttf
2736893	REC_START	n/a	LTP237	ltpFR	3	10	n/a	n/a	n/a	n/a	n/a	n/a	n/a	n/a	n/a	n/a	n/a
2737786	REC_WORD	wordpools/wasnorm_wordpool_less_exclusions.txt	LTP237	ltpFR	3	10	1	BUTTERFLY	206	n/a	n/a	1	n/a	n/a	n/a	n/a	n/a
2739527	REC_WORD	wordpools/wasnorm_wordpool_less_exclusions.txt	LTP237	ltpFR	3	10	1	PARIS	1014	n/a	n/a	0	n/a	n/a	n/a	n/a	n/a
2740694	REC_WORD	wordpools/wasnorm_wordpool_less_exclusions.txt	LTP237	ltpFR	3	10	1	LONDON	843	n/a	n/a	0	n/a	n/a	n/a	n/a	n/a
2742271	REC_WORD	wordpools/wasnorm_wordpool_less_exclusions.txt	LTP237	ltpFR	3	10	n/a	CHESS	294	n/a	n/a	n/a	n/a	n/a	n/a	n/a	n/a
2743772	REC_WORD	wordpools/wasnorm_wordpool_less_exclusions.txt	LTP237	ltpFR	3	10	0	CHEST	295	n/a	n/a	0	n/a	n/a	n/a	n/a	n/a
2745907	REC_WORD	wordpools/wasnorm_wordpool_less_exclusions.txt	LTP237	ltpFR	3	10	1	MONSTER	912	n/a	n/a	1	n/a	n/a	n/a	n/a	n/a
2747174	REC_WORD	wordpools/wasnorm_wordpool_less_exclusions.txt	LTP237	ltpFR	3	10	1	CREATURE	403	n/a	n/a	1	n/a	n/a	n/a	n/a	n/a
2749150	REC_WORD	wordpools/wasnorm_wordpool_less_exclusions.txt	LTP237	ltpFR	3	10	0	DRAGON	492	n/a	n/a	1	n/a	n/a	n/a	n/a	n/a
2751594	REC_WORD	wordpools/wasnorm_wordpool_less_exclusions.txt	LTP237	ltpFR	3	10	0	DAD	433	n/a	n/a	1	n/a	n/a	n/a	n/a	n/a
2753794	REC_WORD	wordpools/wasnorm_wordpool_less_exclusions.txt	LTP237	ltpFR	3	10	0	FATHER	554	n/a	n/a	1	n/a	n/a	n/a	n/a	n/a
2759087	REC_WORD	wordpools/wasnorm_wordpool_less_exclusions.txt	LTP237	ltpFR	3	10	0	PIGEON	1065	n/a	n/a	0	n/a	n/a	n/a	n/a	n/a
2823329	WORD	wordpools/wasnorm_wordpool_less_exclusions.txt	LTP237	ltpFR	3	11	1	CONCERT	360	n/a	n/a	0	0.422607421875	0.5869140625	0	upper	zerothre.ttf
2827506	WORD	wordpools/wasnorm_wordpool_less_exclusions.txt	LTP237	ltpFR	3	11	1	SNORKEL	1336	n/a	n/a	0	0.422607421875	0.5869140625	0	upper	zerothre.ttf
2831583	WORD	wordpools/wasnorm_wordpool_less_exclusions.txt	LTP237	ltpFR	3	11	0	ELECTRICIAN	521	n/a	n/a	1	0.57763671875	0.412841796875	1	lower	amplitud.ttf
2835511	WORD	wordpools/wasnorm_wordpool_less_exclusions.txt	LTP237	ltpFR	3	11	0	TECHNICIAN	1443	n/a	n/a	1	0.57763671875	0.412841796875	1	lower	amplitud.ttf
2839555	WORD	wordpools/wasnorm_wordpool_less_exclusions.txt	LTP237	ltpFR	3	11	0	SALMON	1227	n/a	n/a	1	0.57763671875	0.412841796875	1	lower	amplitud.ttf
2843666	WORD	wordpools/wasnorm_wordpool_less_exclusions.txt	LTP237	ltpFR	3	11	1	WHISKERS	1605	n/a	n/a	0	0.422607421875	0.5869140625	0	upper	zerothre.ttf
2847660	WORD	wordpools/wasnorm_wordpool_less_exclusions.txt	LTP237	ltpFR	3	11	1	COP	376	n/a	n/a	1	0.422607421875	0.5869140625	0	upper	zerothre.ttf
2851671	WORD	wordpools/wasnorm_wordpool_less_exclusions.txt	LTP237	ltpFR	3	11	1	RADIO	1157	n/a	n/a	0	0.422607421875	0.5869140625	0	upper	zerothre.ttf
2855548	WORD	wordpools/wasnorm_wordpool_less_exclusions.txt	LTP237	ltpFR	3	11	1	LEADER	807	n/a	n/a	1	0.422607421875	0.5869140625	0	upper	zerothre.ttf
2859608	WORD	wordpools/wasnorm_wordpool_less_exclusions.txt	LTP237	ltpFR	3	11	0	CAPE	237	n/a	n/a	0	0.57763671875	0.412841796875	1	lower	amplitud.ttf
2863469	WORD	wordpools/wasnorm_wordpool_less_exclusions.txt	LTP237	ltpFR	3	11	0	TRENCH	1503	n/a	n/a	1	0.57763671875	0.412841796875	1	lower	amplitud.ttf
2867513	WORD	wordpools/wasnorm_wordpool_less_exclusions.txt	LTP237	ltpFR	3	11	0	CONTAINER	366	n/a	n/a	0	0.57763671875	0.412841796875	1	lower	amplitud.ttf
2871557	WORD	wordpools/wasnorm_wordpool_less_exclusions.txt	LTP237	ltpFR	3	11	0	PLATE	1086	n/a	n/a	0	0.57763671875	0.412841796875	1	lower	amplitud.ttf
2875401	WORD	wordpools/wasnorm_wordpool_less_exclusions.txt	LTP237	ltpFR	3	11	0	PILLOW	1069	n/a	n/a	1	0.57763671875	0.412841796875	1	lower	amplitud.ttf
2879495	WORD	wordpools/wasnorm_wordpool_less_exclusions.txt	LTP237	ltpFR	3	11	1	WATER	1594	n/a	n/a	0	0.422607421875	0.5869140625	0	upper	zerothre.ttf
2883489	WORD	wordpools/wasnorm_wordpool_less_exclusions.txt	LTP237	ltpFR	3	11	1	SUBMARINE	1398	n/a	n/a	0	0.422607421875	0.5869140625	0	upper	zerothre.ttf
2889414	REC_START	n/a	LTP237	ltpFR	3	11	n/a	n/a	n/a	n/a	n/a	n/a	n/a	n/a	n/a	n/a	n/a
2890854	REC_WORD	wordpools/wasnorm_wordpool_less_exclusions.txt	LTP237	ltpFR	3	11	1	WATER	1594	n/a	n/a	0	n/a	n/a	n/a	n/a	n/a
2891689	REC_WORD	wordpools/wasnorm_wordpool_less_exclusions.txt	LTP237	ltpFR	3	11	1	SUBMARINE	1398	n/a	n/a	0	n/a	n/a	n/a	n/a	n/a
2894318	REC_WORD	wordpools/wasnorm_wordpool_less_exclusions.txt	LTP237	ltpFR	3	11	1	COP	376	n/a	n/a	1	n/a	n/a	n/a	n/a	n/a
2897036	REC_WORD	wordpools/wasnorm_wordpool_less_exclusions.txt	LTP237	ltpFR	3	11	0	TECHNICIAN	1443	n/a	n/a	1	n/a	n/a	n/a	n/a	n/a
2899780	REC_WORD	wordpools/wasnorm_wordpool_less_exclusions.txt	LTP237	ltpFR	3	11	0	ELECTRICIAN	521	n/a	n/a	1	n/a	n/a	n/a	n/a	n/a
2900780	REC_WORD_VV	wordpools/wasnorm_wordpool_less_exclusions.txt	LTP237	ltpFR	3	11	n/a	<>	-1	n/a	n/a	n/a	n/a	n/a	n/a	n/a	n/a
2910396	REC_WORD	wordpools/wasnorm_wordpool_less_exclusions.txt	LTP237	ltpFR	3	11	0	CAPE	237	n/a	n/a	0	n/a	n/a	n/a	n/a	n/a
2973355	WORD	wordpools/wasnorm_wordpool_less_exclusions.txt	LTP237	ltpFR	3	12	0	CUP	424	n/a	n/a	0	0.57763671875	0.412841796875	1	lower	amplitud.ttf
2977532	WORD	wordpools/wasnorm_wordpool_less_exclusions.txt	LTP237	ltpFR	3	12	0	RATTLE	1170	n/a	n/a	0	0.57763671875	0.412841796875	1	lower	amplitud.ttf
2981727	WORD	wordpools/wasnorm_wordpool_less_exclusions.txt	LTP237	ltpFR	3	12	0	BASSINET	97	n/a	n/a	1	0.57763671875	0.412841796875	1	lower	amplitud.ttf
2985570	WORD	wordpools/wasnorm_wordpool_less_exclusions.txt	LTP237	ltpFR	3	12	0	ANTEATER	26	n/a	n/a	1	0.57763671875	0.412841796875	1	lower	amplitud.ttf
2989748	WORD	wordpools/wasnorm_wordpool_less_exclusions.txt	LTP237	ltpFR	3	12	0	MOVIE	927	n/a	n/a	1	0.57763671875	0.412841796875	1	lower	amplitud.ttf
2993909	WORD	wordpools/wasnorm_wordpool_less_exclusions.txt	LTP237	ltpFR	3	12	0	CRITIC	410	n/a	n/a	1	0.57763671875	0.412841796875	1	lower	amplitud.ttf
2997803	WORD	wordpools/wasnorm_wordpool_less_exclusions.txt	LTP237	ltpFR	3	12	0	JOINT	758	n/a	n/a	0	0.57763671875	0.412841796875	1	lower	amplitud.ttf
3001747	WORD	wordpools/wasnorm_wordpool_less_exclusions.txt	LTP237	ltpFR	3	12	0	BOWL	158	n/a	n/a	0	0.57763671875	0.412841796875	1	lower	amplitud.ttf
3005674	WORD	wordpools/wasnorm_wordpool_less_exclusions.txt	LTP237	ltpFR	3	12	0	CAVE	263	n/a	n/a	0	0.57763671875	0.412841796875	1	lower	amplitud.ttf
3009618	WORD	wordpools/wasnorm_wordpool_less_exclusions.txt	LTP237	ltpFR	3	12	0	WILDERNESS	1610	n/a	n/a	1	0.57763671875	0.412841796875	1	lower	amplitud.ttf
3013679	WORD	wordpools/wasnorm_wordpool_less_exclusions.txt	LTP237	ltpFR	3	12	0	PAINT	1003	n/a	n/a	0	0.57763671875	0.412841796875	1	lower	amplitud.ttf
3017673	WORD	wordpools/wasnorm_wordpool_less_exclusions.txt	LTP237	ltpFR	3	12	0	CLIPPERS	324	n/a	n/a	0	0.57763671875	0.412841796875	1	lower	amplitud.ttf
3021684	WORD	wordpools/wasnorm_wordpool_less_exclusions.txt	LTP237	ltpFR	3	12	0	DEPUTY	450	n/a	n/a	1	0.57763671875	0.412841796875	1	lower	amplitud.ttf
3025544	WORD	wordpools/wasnorm_wordpool_less_exclusions.txt	LTP237	ltpFR	3	12	0	MARROW	872	n/a	n/a	0	0.57763671875	0.412841796875	1	lower	amplitud.ttf
3029371	WORD	wordpools/wasnorm_wordpool_less_exclusions.txt	LTP237	ltpFR	3	12	0	HOOD	714	n/a	n/a	1	0.57763671875	0.412841796875	1	lower	amplitud.ttf
3033449	WORD	wordpools/wasnorm_wordpool_less_exclusions.txt	LTP237	ltpFR	3	12	0	BLUEPRINT	142	n/a	n/a	1	0.57763671875	0.412841796875	1	lower	amplitud.ttf
3039075	REC_START	n/a	LTP237	ltpFR	3	12	n/a	n/a	n/a	n/a	n/a	n/a	n/a	n/a	n/a	n/a	n/a
3039787	REC_WORD	wordpools/wasnorm_wordpool_less_exclusions.txt	LTP237	ltpFR	3	12	0	HOOD	714	n/a	n/a	1	n/a	n/a	n/a	n/a	n/a
3041125	REC_WORD	wordpools/wasnorm_wordpool_less_exclusions.txt	LTP237	ltpFR	3	12	0	BLUEPRINT	142	n/a	n/a	1	n/a	n/a	n/a	n/a	n/a
3042751	REC_WORD	wordpools/wasnorm_wordpool_less_exclusions.txt	LTP237	ltpFR	3	12	0	CUP	424	n/a	n/a	0	n/a	n/a	n/a	n/a	n/a
3044922	REC_WORD	wordpools/wasnorm_wordpool_less_exclusions.txt	LTP237	ltpFR	3	12	n/a	BULL	193	n/a	n/a	n/a	n/a	n/a	n/a	n/a	n/a
3046308	REC_WORD	wordpools/wasnorm_wordpool_less_exclusions.txt	LTP237	ltpFR	3	12	0	JOINT	758	n/a	n/a	0	n/a	n/a	n/a	n/a	n/a
3051806	REC_WORD	wordpools/wasnorm_wordpool_less_exclusions.txt	LTP237	ltpFR	3	12	0	PLATE	1086	n/a	n/a	0	n/a	n/a	n/a	n/a	n/a
3114678	REST_REWET	n/a	LTP237	ltpFR	3	12	n/a	n/a	n/a	n/a	n/a	n/a	n/a	n/a	n/a	n/a	n/a
3364587	WORD	wordpools/wasnorm_wordpool_less_exclusions.txt	LTP237	ltpFR	3	13	-1	TAXI	1438	n/a	n/a	-1	1.0	1.0	1	upper	Verdana.ttf
3368531	WORD	wordpools/wasnorm_wordpool_less_exclusions.txt	LTP237	ltpFR	3	13	-1	DRIVEWAY	500	n/a	n/a	-1	1.0	1.0	1	upper	Verdana.ttf
3372542	WORD	wordpools/wasnorm_wordpool_less_exclusions.txt	LTP237	ltpFR	3	13	-1	RUNNER	1218	n/a	n/a	-1	1.0	1.0	1	upper	Verdana.ttf
3376536	WORD	wordpools/wasnorm_wordpool_less_exclusions.txt	LTP237	ltpFR	3	13	-1	VILLAGE	1566	n/a	n/a	-1	1.0	1.0	1	upper	Verdana.ttf
3380613	WORD	wordpools/wasnorm_wordpool_less_exclusions.txt	LTP237	ltpFR	3	13	-1	COMB	351	n/a	n/a	-1	1.0	1.0	1	upper	Verdana.ttf
3384775	WORD	wordpools/wasnorm_wordpool_less_exclusions.txt	LTP237	ltpFR	3	13	-1	PERMIT	1051	n/a	n/a	-1	1.0	1.0	1	upper	Verdana.ttf
3388885	WORD	wordpools/wasnorm_wordpool_less_exclusions.txt	LTP237	ltpFR	3	13	-1	HAM	678	n/a	n/a	-1	1.0	1.0	1	upper	Verdana.ttf
3393079	WORD	wordpools/wasnorm_wordpool_less_exclusions.txt	LTP237	ltpFR	3	13	-1	OCTOPUS	971	n/a	n/a	-1	1.0	1.0	1	upper	Verdana.ttf
3397206	WORD	wordpools/wasnorm_wordpool_less_exclusions.txt	LTP237	ltpFR	3	13	-1	TOWN	1491	n/a	n/a	-1	1.0	1.0	1	upper	Verdana.ttf
3401382	WORD	wordpools/wasnorm_wordpool_less_exclusions.txt	LTP237	ltpFR	3	13	-1	APARTMENT	30	n/a	n/a	-1	1.0	1.0	1	upper	Verdana.ttf
3405393	WORD	wordpools/wasnorm_wordpool_less_exclusions.txt	LTP237	ltpFR	3	13	-1	CELLAR	267	n/a	n/a	-1	1.0	1.0	1	upper	Verdana.ttf
3409288	WORD	wordpools/wasnorm_wordpool_less_exclusions.txt	LTP237	ltpFR	3	13	-1	GOO	648	n/a	n/a	-1	1.0	1.0	1	upper	Verdana.ttf
3413364	WORD	wordpools/wasnorm_wordpool_less_exclusions.txt	LTP237	ltpFR	3	13	-1	FROST	609	n/a	n/a	-1	1.0	1.0	1	upper	Verdana.ttf
3417475	WORD	wordpools/wasnorm_wordpool_less_exclusions.txt	LTP237	ltpFR	3	13	-1	PEARL	1034	n/a	n/a	-1	1.0	1.0	1	upper	Verdana.ttf
3421653	WORD	wordpools/wasnorm_wordpool_less_exclusions.txt	LTP237	ltpFR	3	13	-1	TREASURE	1500	n/a	n/a	-1	1.0	1.0	1	upper	Verdana.ttf
3425563	WORD	wordpools/wasnorm_wordpool_less_exclusions.txt	LTP237	ltpFR	3	13	-1	HEATER	698	n/a	n/a	-1	1.0	1.0	1	upper	Verdana.ttf
3431371	REC_START	n/a	LTP237	ltpFR	3	13	n/a	n/a	n/a	n/a	n/a	n/a	n/a	n/a	n/a	n/a	n/a
3432618	REC_WORD	wordpools/wasnorm_wordpool_less_exclusions.txt	LTP237	ltpFR	3	13	-1	HEATER	698	n/a	n/a	-1	n/a	n/a	n/a	n/a	n/a
3433542	REC_WORD	wordpools/wasnorm_wordpool_less_exclusions.txt	LTP237	ltpFR	3	13	-1	TREASURE	1500	n/a	n/a	-1	n/a	n/a	n/a	n/a	n/a
3434792	REC_WORD	wordpools/wasnorm_wordpool_less_exclusions.txt	LTP237	ltpFR	3	13	-1	PEARL	1034	n/a	n/a	-1	n/a	n/a	n/a	n/a	n/a
3436095	REC_WORD	wordpools/wasnorm_wordpool_less_exclusions.txt	LTP237	ltpFR	3	13	-1	TAXI	1438	n/a	n/a	-1	n/a	n/a	n/a	n/a	n/a
3439567	REC_WORD	wordpools/wasnorm_wordpool_less_exclusions.txt	LTP237	ltpFR	3	13	-1	RUNNER	1218	n/a	n/a	-1	n/a	n/a	n/a	n/a	n/a
3442890	REC_WORD	wordpools/wasnorm_wordpool_less_exclusions.txt	LTP237	ltpFR	3	13	-1	HAM	678	n/a	n/a	-1	n/a	n/a	n/a	n/a	n/a
3445379	REC_WORD	wordpools/wasnorm_wordpool_less_exclusions.txt	LTP237	ltpFR	3	13	-1	TOWN	1491	n/a	n/a	-1	n/a	n/a	n/a	n/a	n/a
3447258	REC_WORD	wordpools/wasnorm_wordpool_less_exclusions.txt	LTP237	ltpFR	3	13	-1	APARTMENT	30	n/a	n/a	-1	n/a	n/a	n/a	n/a	n/a
3480110	REC_WORD	wordpools/wasnorm_wordpool_less_exclusions.txt	LTP237	ltpFR	3	13	-1	GOO	648	n/a	n/a	-1	n/a	n/a	n/a	n/a	n/a
3512684	WORD	wordpools/wasnorm_wordpool_less_exclusions.txt	LTP237	ltpFR	3	14	-1	ATHLETE	52	n/a	n/a	-1	1.0	1.0	1	upper	Verdana.ttf
3516560	WORD	wordpools/wasnorm_wordpool_less_exclusions.txt	LTP237	ltpFR	3	14	-1	MILK	895	n/a	n/a	-1	1.0	1.0	1	upper	Verdana.ttf
3520705	WORD	wordpools/wasnorm_wordpool_less_exclusions.txt	LTP237	ltpFR	3	14	-1	HANDKERCHIEF	686	n/a	n/a	-1	1.0	1.0	1	upper	Verdana.ttf
3524832	WORD	wordpools/wasnorm_wordpool_less_exclusions.txt	LTP237	ltpFR	3	14	-1	MARINE	869	n/a	n/a	-1	1.0	1.0	1	upper	Verdana.ttf
3528743	WORD	wordpools/wasnorm_wordpool_less_exclusions.txt	LTP237	ltpFR	3	14	-1	TUB	1514	n/a	n/a	-1	1.0	1.0	1	upper	Verdana.ttf
3532671	WORD	wordpools/wasnorm_wordpool_less_exclusions.txt	LTP237	ltpFR	3	14	-1	WAITER	1580	n/a	n/a	-1	1.0	1.0	1	upper	Verdana.ttf
3536665	WORD	wordpools/wasnorm_wordpool_less_exclusions.txt	LTP237	ltpFR	3	14	-1	SERVER	1272	n/a	n/a	-1	1.0	1.0	1	upper	Verdana.ttf
3540825	WORD	wordpools/wasnorm_wordpool_less_exclusions.txt	LTP237	ltpFR	3	14	-1	CLOVE	329	n/a	n/a	-1	1.0	1.0	1	upper	Verdana.ttf
3544719	WORD	wordpools/wasnorm_wordpool_less_exclusions.txt	LTP237	ltpFR	3	14	-1	PAGE	1001	n/a	n/a	-1	1.0	1.0	1	upper	Verdana.ttf
3548697	WORD	wordpools/wasnorm_wordpool_less_exclusions.txt	LTP237	ltpFR	3	14	-1	SILK	1307	n/a	n/a	-1	1.0	1.0	1	upper	Verdana.ttf
3552890	WORD	wordpools/wasnorm_wordpool_less_exclusions.txt	LTP237	ltpFR	3	14	-1	CARPET	247	n/a	n/a	-1	1.0	1.0	1	upper	Verdana.ttf
3557084	WORD	wordpools/wasnorm_wordpool_less_exclusions.txt	LTP237	ltpFR	3	14	-1	EYELASH	546	n/a	n/a	-1	1.0	1.0	1	upper	Verdana.ttf
3560978	WORD	wordpools/wasnorm_wordpool_less_exclusions.txt	LTP237	ltpFR	3	14	-1	HERD	705	n/a	n/a	-1	1.0	1.0	1	upper	Verdana.ttf
3564889	WORD	wordpools/wasnorm_wordpool_less_exclusions.txt	LTP237	ltpFR	3	14	-1	BOULEVARD	156	n/a	n/a	-1	1.0	1.0	1	upper	Verdana.ttf
3568933	WORD	wordpools/wasnorm_wordpool_less_exclusions.txt	LTP237	ltpFR	3	14	-1	WASHER	1592	n/a	n/a	-1	1.0	1.0	1	upper	Verdana.ttf
3573010	WORD	wordpools/wasnorm_wordpool_less_exclusions.txt	LTP237	ltpFR	3	14	-1	BOOK	149	n/a	n/a	-1	1.0	1.0	1	upper	Verdana.ttf
3578852	REC_START	n/a	LTP237	ltpFR	3	14	n/a	n/a	n/a	n/a	n/a	n/a	n/a	n/a	n/a	n/a	n/a
3580069	REC_WORD	wordpools/wasnorm_wordpool_less_exclusions.txt	LTP237	ltpFR	3	14	-1	BOOK	149	n/a	n/a	-1	n/a	n/a	n/a	n/a	n/a
3581396	REC_WORD	wordpools/wasnorm_wordpool_less_exclusions.txt	LTP237	ltpFR	3	14	-1	WASHER	1592	n/a	n/a	-1	n/a	n/a	n/a	n/a	n/a
3583516	REC_WORD	wordpools/wasnorm_wordpool_less_exclusions.txt	LTP237	ltpFR	3	14	-1	HANDKERCHIEF	686	n/a	n/a	-1	n/a	n/a	n/a	n/a	n/a
3584516	REC_WORD_VV	wordpools/wasnorm_wordpool_less_exclusions.txt	LTP237	ltpFR	3	14	n/a	<>	-1	n/a	n/a	n/a	n/a	n/a	n/a	n/a	n/a
3585272	REC_WORD	wordpools/wasnorm_wordpool_less_exclusions.txt	LTP237	ltpFR	3	14	-1	PAGE	1001	n/a	n/a	-1	n/a	n/a	n/a	n/a	n/a
3589408	REC_WORD	wordpools/wasnorm_wordpool_less_exclusions.txt	LTP237	ltpFR	3	14	-1	ATHLETE	52	n/a	n/a	-1	n/a	n/a	n/a	n/a	n/a
3591227	REC_WORD	wordpools/wasnorm_wordpool_less_exclusions.txt	LTP237	ltpFR	3	14	-1	MILK	895	n/a	n/a	-1	n/a	n/a	n/a	n/a	n/a
3665604	WORD	wordpools/wasnorm_wordpool_less_exclusions.txt	LTP237	ltpFR	3	15	1	WAGON	1578	n/a	n/a	0	0.422607421875	0.5869140625	0	upper	zerothre.ttf
3669432	WORD	wordpools/wasnorm_wordpool_less_exclusions.txt	LTP237	ltpFR	3	15	1	VEGETABLE	1552	n/a	n/a	1	0.422607421875	0.5869140625	0	upper	zerothre.ttf
3673277	WORD	wordpools/wasnorm_wordpool_less_exclusions.txt	LTP237	ltpFR	3	15	1	MOUNTAIN	924	n/a	n/a	0	0.422607421875	0.5869140625	0	upper	zerothre.ttf
3677437	WORD	wordpools/wasnorm_wordpool_less_exclusions.txt	LTP237	ltpFR	3	15	1	RASH	1167	n/a	n/a	0	0.422607421875	0.5869140625	0	upper	zerothre.ttf
3681347	WORD	wordpools/wasnorm_wordpool_less_exclusions.txt	LTP237	ltpFR	3	15	1	EXPERT	543	n/a	n/a	1	0.422607421875	0.5869140625	0	upper	zerothre.ttf
3685375	WORD	wordpools/wasnorm_wordpool_less_exclusions.txt	LTP237	ltpFR	3	15	1	WORKER	1621	n/a	n/a	1	0.422607421875	0.5869140625	0	upper	zerothre.ttf
3689352	WORD	wordpools/wasnorm_wordpool_less_exclusions.txt	LTP237	ltpFR	3	15	1	MISTER	901	n/a	n/a	1	0.422607421875	0.5869140625	0	upper	zerothre.ttf
3693363	WORD	wordpools/wasnorm_wordpool_less_exclusions.txt	LTP237	ltpFR	3	15	1	COFFEE	341	n/a	n/a	0	0.422607421875	0.5869140625	0	upper	zerothre.ttf
3697192	WORD	wordpools/wasnorm_wordpool_less_exclusions.txt	LTP237	ltpFR	3	15	1	JUPITER	765	n/a	n/a	0	0.422607421875	0.5869140625	0	upper	zerothre.ttf
3701269	WORD	wordpools/wasnorm_wordpool_less_exclusions.txt	LTP237	ltpFR	3	15	1	MARS	873	n/a	n/a	0	0.422607421875	0.5869140625	0	upper	zerothre.ttf
3705478	WORD	wordpools/wasnorm_wordpool_less_exclusions.txt	LTP237	ltpFR	3	15	1	APPLE	33	n/a	n/a	0	0.422607421875	0.5869140625	0	upper	zerothre.ttf
3709605	WORD	wordpools/wasnorm_wordpool_less_exclusions.txt	LTP237	ltpFR	3	15	1	CLIMBER	323	n/a	n/a	1	0.422607421875	0.5869140625	0	upper	zerothre.ttf
3713549	WORD	wordpools/wasnorm_wordpool_less_exclusions.txt	LTP237	ltpFR	3	15	1	OTTER	986	n/a	n/a	1	0.422607421875	0.5869140625	0	upper	zerothre.ttf
3717427	WORD	wordpools/wasnorm_wordpool_less_exclusions.txt	LTP237	ltpFR	3	15	1	PAIL	1002	n/a	n/a	0	0.422607421875	0.5869140625	0	upper	zerothre.ttf
3721338	WORD	wordpools/wasnorm_wordpool_less_exclusions.txt	LTP237	ltpFR	3	15	1	MOTHER	921	n/a	n/a	1	0.422607421875	0.5869140625	0	upper	zerothre.ttf
3725349	WORD	wordpools/wasnorm_wordpool_less_exclusions.txt	LTP237	ltpFR	3	15	1	VIDEO	1564	n/a	n/a	0	0.422607421875	0.5869140625	0	upper	zerothre.ttf
3731125	REC_START	n/a	LTP237	ltpFR	3	15	n/a	n/a	n/a	n/a	n/a	n/a	n/a	n/a	n/a	n/a	n/a
3733698	REC_WORD	wordpools/wasnorm_wordpool_less_exclusions.txt	LTP237	ltpFR	3	15	1	MISTER	901	n/a	n/a	1	n/a	n/a	n/a	n/a	n/a
3736064	REC_WORD	wordpools/wasnorm_wordpool_less_exclusions.txt	LTP237	ltpFR	3	15	1	WORKER	1621	n/a	n/a	1	n/a	n/a	n/a	n/a	n/a
3737540	REC_WORD	wordpools/wasnorm_wordpool_less_exclusions.txt	LTP237	ltpFR	3	15	1	EXPERT	543	n/a	n/a	1	n/a	n/a	n/a	n/a	n/a
3739031	REC_WORD	wordpools/wasnorm_wordpool_less_exclusions.txt	LTP237	ltpFR	3	15	1	MOTHER	921	n/a	n/a	1	n/a	n/a	n/a	n/a	n/a
3741681	REC_WORD	wordpools/wasnorm_wordpool_less_exclusions.txt	LTP237	ltpFR	3	15	1	CLIMBER	323	n/a	n/a	1	n/a	n/a	n/a	n/a	n/a
3748165	REC_WORD	wordpools/wasnorm_wordpool_less_exclusions.txt	LTP237	ltpFR	3	15	1	VIDEO	1564	n/a	n/a	0	n/a	n/a	n/a	n/a	n/a
3791942	REC_WORD	wordpools/wasnorm_wordpool_less_exclusions.txt	LTP237	ltpFR	3	15	1	APPLE	33	n/a	n/a	0	n/a	n/a	n/a	n/a	n/a
3820091	WORD	wordpools/wasnorm_wordpool_less_exclusions.txt	LTP237	ltpFR	3	16	0	FLASHLIGHT	575	n/a	n/a	0	0.57763671875	0.412841796875	1	lower	amplitud.ttf
3824301	WORD	wordpools/wasnorm_wordpool_less_exclusions.txt	LTP237	ltpFR	3	16	0	SPHINX	1349	n/a	n/a	1	0.57763671875	0.412841796875	1	lower	amplitud.ttf
3828163	WORD	wordpools/wasnorm_wordpool_less_exclusions.txt	LTP237	ltpFR	3	16	0	BOTTLE	153	n/a	n/a	0	0.57763671875	0.412841796875	1	lower	amplitud.ttf
3832322	WORD	wordpools/wasnorm_wordpool_less_exclusions.txt	LTP237	ltpFR	3	16	0	MARKET	871	n/a	n/a	1	0.57763671875	0.412841796875	1	lower	amplitud.ttf
3836449	WORD	wordpools/wasnorm_wordpool_less_exclusions.txt	LTP237	ltpFR	3	16	0	GROCERIES	663	n/a	n/a	1	0.57763671875	0.412841796875	1	lower	amplitud.ttf
3840460	WORD	wordpools/wasnorm_wordpool_less_exclusions.txt	LTP237	ltpFR	3	16	0	FRIAR	605	n/a	n/a	0	0.57763671875	0.412841796875	1	lower	amplitud.ttf
3844671	WORD	wordpools/wasnorm_wordpool_less_exclusions.txt	LTP237	ltpFR	3	16	0	BROTHER	179	n/a	n/a	1	0.57763671875	0.412841796875	1	lower	amplitud.ttf
3848848	WORD	wordpools/wasnorm_wordpool_less_exclusions.txt	LTP237	ltpFR	3	16	0	KEG	770	n/a	n/a	1	0.57763671875	0.412841796875	1	lower	amplitud.ttf
3852992	WORD	wordpools/wasnorm_wordpool_less_exclusions.txt	LTP237	ltpFR	3	16	0	BELT	120	n/a	n/a	0	0.57763671875	0.412841796875	1	lower	amplitud.ttf
3857103	WORD	wordpools/wasnorm_wordpool_less_exclusions.txt	LTP237	ltpFR	3	16	0	WAIST	1579	n/a	n/a	1	0.57763671875	0.412841796875	1	lower	amplitud.ttf
3861312	WORD	wordpools/wasnorm_wordpool_less_exclusions.txt	LTP237	ltpFR	3	16	0	BONE	148	n/a	n/a	0	0.57763671875	0.412841796875	1	lower	amplitud.ttf
3865157	WORD	wordpools/wasnorm_wordpool_less_exclusions.txt	LTP237	ltpFR	3	16	0	CHURCH	307	n/a	n/a	1	0.57763671875	0.412841796875	1	lower	amplitud.ttf
3869301	WORD	wordpools/wasnorm_wordpool_less_exclusions.txt	LTP237	ltpFR	3	16	0	CANVAS	234	n/a	n/a	1	0.57763671875	0.412841796875	1	lower	amplitud.ttf
3873262	WORD	wordpools/wasnorm_wordpool_less_exclusions.txt	LTP237	ltpFR	3	16	0	VISITOR	1573	n/a	n/a	1	0.57763671875	0.412841796875	1	lower	amplitud.ttf
3877471	WORD	wordpools/wasnorm_wordpool_less_exclusions.txt	LTP237	ltpFR	3	16	0	PUMP	1141	n/a	n/a	0	0.57763671875	0.412841796875	1	lower	amplitud.ttf
3881632	WORD	wordpools/wasnorm_wordpool_less_exclusions.txt	LTP237	ltpFR	3	16	0	VINEGAR	1569	n/a	n/a	0	0.57763671875	0.412841796875	1	lower	amplitud.ttf
3887457	REC_START	n/a	LTP237	ltpFR	3	16	n/a	n/a	n/a	n/a	n/a	n/a	n/a	n/a	n/a	n/a	n/a
3888452	REC_WORD	wordpools/wasnorm_wordpool_less_exclusions.txt	LTP237	ltpFR	3	16	0	VINEGAR	1569	n/a	n/a	0	n/a	n/a	n/a	n/a	n/a
3890410	REC_WORD	wordpools/wasnorm_wordpool_less_exclusions.txt	LTP237	ltpFR	3	16	0	WAIST	1579	n/a	n/a	1	n/a	n/a	n/a	n/a	n/a
3892062	REC_WORD	wordpools/wasnorm_wordpool_less_exclusions.txt	LTP237	ltpFR	3	16	0	BELT	120	n/a	n/a	0	n/a	n/a	n/a	n/a	n/a
3893703	REC_WORD	wordpools/wasnorm_wordpool_less_exclusions.txt	LTP237	ltpFR	3	16	0	BONE	148	n/a	n/a	0	n/a	n/a	n/a	n/a	n/a
3895528	REC_WORD	wordpools/wasnorm_wordpool_less_exclusions.txt	LTP237	ltpFR	3	16	0	CHURCH	307	n/a	n/a	1	n/a	n/a	n/a	n/a	n/a
3896960	REC_WORD	wordpools/wasnorm_wordpool_less_exclusions.txt	LTP237	ltpFR	3	16	0	VISITOR	1573	n/a	n/a	1	n/a	n/a	n/a	n/a	n/a
3899844	REC_WORD	wordpools/wasnorm_wordpool_less_exclusions.txt	LTP237	ltpFR	3	16	0	SPHINX	1349	n/a	n/a	1	n/a	n/a	n/a	n/a	n/a
3902500	REC_WORD	wordpools/wasnorm_wordpool_less_exclusions.txt	LTP237	ltpFR	3	16	0	FRIAR	605	n/a	n/a	0	n/a	n/a	n/a	n/a	n/a
3916865	REC_WORD	wordpools/wasnorm_wordpool_less_exclusions.txt	LTP237	ltpFR	3	16	0	GROCERIES	663	n/a	n/a	1	n/a	n/a	n/a	n/a	n/a
3918341	REC_WORD	wordpools/wasnorm_wordpool_less_exclusions.txt	LTP237	ltpFR	3	16	0	MARKET	871	n/a	n/a	1	n/a	n/a	n/a	n/a	n/a
3988556	REC_START	n/a	LTP237	ltpFR	3	n/a	n/a	n/a	n/a	n/a	n/a	n/a	n/a	n/a	n/a	n/a	n/a
3989978	FFR_REC_WORD	wordpools/wasnorm_wordpool_less_exclusions.txt	LTP237	ltpFR	3	n/a	0	GROCERIES	663	n/a	n/a	1	n/a	n/a	n/a	n/a	n/a
3991484	FFR_REC_WORD	wordpools/wasnorm_wordpool_less_exclusions.txt	LTP237	ltpFR	3	n/a	0	MARKET	871	n/a	n/a	1	n/a	n/a	n/a	n/a	n/a
3992861	FFR_REC_WORD	wordpools/wasnorm_wordpool_less_exclusions.txt	LTP237	ltpFR	3	n/a	0	BONE	148	n/a	n/a	0	n/a	n/a	n/a	n/a	n/a
3994278	FFR_REC_WORD	wordpools/wasnorm_wordpool_less_exclusions.txt	LTP237	ltpFR	3	n/a	0	SPHINX	1349	n/a	n/a	1	n/a	n/a	n/a	n/a	n/a
3996612	FFR_REC_WORD	wordpools/wasnorm_wordpool_less_exclusions.txt	LTP237	ltpFR	3	n/a	-1	WAITER	1580	n/a	n/a	-1	n/a	n/a	n/a	n/a	n/a
3997625	FFR_REC_WORD	wordpools/wasnorm_wordpool_less_exclusions.txt	LTP237	ltpFR	3	n/a	-1	SERVER	1272	n/a	n/a	-1	n/a	n/a	n/a	n/a	n/a
3999311	FFR_REC_WORD	wordpools/wasnorm_wordpool_less_exclusions.txt	LTP237	ltpFR	3	n/a	1	WATER	1594	n/a	n/a	0	n/a	n/a	n/a	n/a	n/a
4002708	FFR_REC_WORD	wordpools/wasnorm_wordpool_less_exclusions.txt	LTP237	ltpFR	3	n/a	0	FIST	572	n/a	n/a	1	n/a	n/a	n/a	n/a	n/a
4004375	FFR_REC_WORD	wordpools/wasnorm_wordpool_less_exclusions.txt	LTP237	ltpFR	3	n/a	0	WAIST	1579	n/a	n/a	1	n/a	n/a	n/a	n/a	n/a
4005881	FFR_REC_WORD	wordpools/wasnorm_wordpool_less_exclusions.txt	LTP237	ltpFR	3	n/a	0	BONE	148	n/a	n/a	0	n/a	n/a	n/a	n/a	n/a
4007852	FFR_REC_WORD	wordpools/wasnorm_wordpool_less_exclusions.txt	LTP237	ltpFR	3	n/a	0	BELT	120	n/a	n/a	0	n/a	n/a	n/a	n/a	n/a
4010820	FFR_REC_WORD	wordpools/wasnorm_wordpool_less_exclusions.txt	LTP237	ltpFR	3	n/a	-1	BOOK	149	n/a	n/a	-1	n/a	n/a	n/a	n/a	n/a
4014232	FFR_REC_WORD	wordpools/wasnorm_wordpool_less_exclusions.txt	LTP237	ltpFR	3	n/a	-1	WASHER	1592	n/a	n/a	-1	n/a	n/a	n/a	n/a	n/a
4016846	FFR_REC_WORD	wordpools/wasnorm_wordpool_less_exclusions.txt	LTP237	ltpFR	3	n/a	0	FRIAR	605	n/a	n/a	0	n/a	n/a	n/a	n/a	n/a
4028694	FFR_REC_WORD	wordpools/wasnorm_wordpool_less_exclusions.txt	LTP237	ltpFR	3	n/a	1	WEED	1599	n/a	n/a	1	n/a	n/a	n/a	n/a	n/a
4031059	FFR_REC_WORD	wordpools/wasnorm_wordpool_less_exclusions.txt	LTP237	ltpFR	3	n/a	0	JOINT	758	n/a	n/a	0	n/a	n/a	n/a	n/a	n/a
4032117	FFR_REC_WORD	wordpools/wasnorm_wordpool_less_exclusions.txt	LTP237	ltpFR	3	n/a	0	BOWL	158	n/a	n/a	0	n/a	n/a	n/a	n/a	n/a
4042234	FFR_REC_WORD	wordpools/wasnorm_wordpool_less_exclusions.txt	LTP237	ltpFR	3	n/a	1	BRACELET	163	n/a	n/a	0	n/a	n/a	n/a	n/a	n/a
4043636	FFR_REC_WORD	wordpools/wasnorm_wordpool_less_exclusions.txt	LTP237	ltpFR	3	n/a	0	CHEST	295	n/a	n/a	0	n/a	n/a	n/a	n/a	n/a
4048036	FFR_REC_WORD	wordpools/wasnorm_wordpool_less_exclusions.txt	LTP237	ltpFR	3	n/a	0	SLEEVE	1324	n/a	n/a	0	n/a	n/a	n/a	n/a	n/a
4050310	FFR_REC_WORD	wordpools/wasnorm_wordpool_less_exclusions.txt	LTP237	ltpFR	3	n/a	-1	MILK	895	n/a	n/a	-1	n/a	n/a	n/a	n/a	n/a
4051987	FFR_REC_WORD	wordpools/wasnorm_wordpool_less_exclusions.txt	LTP237	ltpFR	3	n/a	-1	ARM	38	n/a	n/a	-1	n/a	n/a	n/a	n/a	n/a
4055444	FFR_REC_WORD	wordpools/wasnorm_wordpool_less_exclusions.txt	LTP237	ltpFR	3	n/a	n/a	CAP	236	n/a	n/a	n/a	n/a	n/a	n/a	n/a	n/a
4061201	FFR_REC_WORD	wordpools/wasnorm_wordpool_less_exclusions.txt	LTP237	ltpFR	3	n/a	1	VEAL	1551	n/a	n/a	0	n/a	n/a	n/a	n/a	n/a
4062772	FFR_REC_WORD	wordpools/wasnorm_wordpool_less_exclusions.txt	LTP237	ltpFR	3	n/a	0	MEAT	883	n/a	n/a	1	n/a	n/a	n/a	n/a	n/a
4065785	FFR_REC_WORD	wordpools/wasnorm_wordpool_less_exclusions.txt	LTP237	ltpFR	3	n/a	1	COW	393	n/a	n/a	1	n/a	n/a	n/a	n/a	n/a
4071772	FFR_REC_WORD	wordpools/wasnorm_wordpool_less_exclusions.txt	LTP237	ltpFR	3	n/a	0	CROCODILE	411	n/a	n/a	1	n/a	n/a	n/a	n/a	n/a
4074500	FFR_REC_WORD	wordpools/wasnorm_wordpool_less_exclusions.txt	LTP237	ltpFR	3	n/a	1	CABBAGE	210	n/a	n/a	0	n/a	n/a	n/a	n/a	n/a
4076376	FFR_REC_WORD	wordpools/wasnorm_wordpool_less_exclusions.txt	LTP237	ltpFR	3	n/a	1	APPLE	33	n/a	n/a	0	n/a	n/a	n/a	n/a	n/a
4087371	FFR_REC_WORD	wordpools/wasnorm_wordpool_less_exclusions.txt	LTP237	ltpFR	3	n/a	1	ELEVATOR	524	n/a	n/a	1	n/a	n/a	n/a	n/a	n/a
4090649	FFR_REC_WORD	wordpools/wasnorm_wordpool_less_exclusions.txt	LTP237	ltpFR	3	n/a	0	HIGHWAY	707	n/a	n/a	1	n/a	n/a	n/a	n/a	n/a
4093163	FFR_REC_WORD	wordpools/wasnorm_wordpool_less_exclusions.txt	LTP237	ltpFR	3	n/a	0	ELECTRICIAN	521	n/a	n/a	1	n/a	n/a	n/a	n/a	n/a
4094455	FFR_REC_WORD	wordpools/wasnorm_wordpool_less_exclusions.txt	LTP237	ltpFR	3	n/a	0	TECHNICIAN	1443	n/a	n/a	1	n/a	n/a	n/a	n/a	n/a
4098700	FFR_REC_WORD	wordpools/wasnorm_wordpool_less_exclusions.txt	LTP237	ltpFR	3	n/a	-1	BASKET	95	n/a	n/a	-1	n/a	n/a	n/a	n/a	n/a
4102169	FFR_REC_WORD	wordpools/wasnorm_wordpool_less_exclusions.txt	LTP237	ltpFR	3	n/a	-1	LITTER	832	n/a	n/a	-1	n/a	n/a	n/a	n/a	n/a
4104931	FFR_REC_WORD	wordpools/wasnorm_wordpool_less_exclusions.txt	LTP237	ltpFR	3	n/a	0	BOTTLE	153	n/a	n/a	0	n/a	n/a	n/a	n/a	n/a
4111616	FFR_REC_WORD	wordpools/wasnorm_wordpool_less_exclusions.txt	LTP237	ltpFR	3	n/a	0	CUP	424	n/a	n/a	0	n/a	n/a	n/a	n/a	n/a
4123414	FFR_REC_WORD	wordpools/wasnorm_wordpool_less_exclusions.txt	LTP237	ltpFR	3	n/a	-1	HANDKERCHIEF	686	n/a	n/a	-1	n/a	n/a	n/a	n/a	n/a
4126677	FFR_REC_WORD	wordpools/wasnorm_wordpool_less_exclusions.txt	LTP237	ltpFR	3	n/a	-1	PAGE	1001	n/a	n/a	-1	n/a	n/a	n/a	n/a	n/a
4142646	FFR_REC_WORD	wordpools/wasnorm_wordpool_less_exclusions.txt	LTP237	ltpFR	3	n/a	0	BARRACUDA	90	n/a	n/a	1	n/a	n/a	n/a	n/a	n/a
4157552	FFR_REC_WORD	wordpools/wasnorm_wordpool_less_exclusions.txt	LTP237	ltpFR	3	n/a	1	BINDER	127	n/a	n/a	0	n/a	n/a	n/a	n/a	n/a
4161757	FFR_REC_WORD	wordpools/wasnorm_wordpool_less_exclusions.txt	LTP237	ltpFR	3	n/a	0	CONDUCTOR	362	n/a	n/a	1	n/a	n/a	n/a	n/a	n/a
4163842	FFR_REC_WORD	wordpools/wasnorm_wordpool_less_exclusions.txt	LTP237	ltpFR	3	n/a	0	TEACHER	1440	n/a	n/a	1	n/a	n/a	n/a	n/a	n/a
4171196	FFR_REC_WORD	wordpools/wasnorm_wordpool_less_exclusions.txt	LTP237	ltpFR	3	n/a	-1	BABY	64	n/a	n/a	-1	n/a	n/a	n/a	n/a	n/a
4214856	FFR_REC_WORD	wordpools/wasnorm_wordpool_less_exclusions.txt	LTP237	ltpFR	3	n/a	-1	ZEBRA	1635	n/a	n/a	-1	n/a	n/a	n/a	n/a	n/a
4223208	FFR_REC_WORD	wordpools/wasnorm_wordpool_less_exclusions.txt	LTP237	ltpFR	3	n/a	1	COP	376	n/a	n/a	1	n/a	n/a	n/a	n/a	n/a
4227747	FFR_REC_WORD	wordpools/wasnorm_wordpool_less_exclusions.txt	LTP237	ltpFR	3	n/a	1	POLICE	1098	n/a	n/a	1	n/a	n/a	n/a	n/a	n/a
4231419	FFR_REC_WORD	wordpools/wasnorm_wordpool_less_exclusions.txt	LTP237	ltpFR	3	n/a	-1	TAXI	1438	n/a	n/a	-1	n/a	n/a	n/a	n/a	n/a
4234781	FFR_REC_WORD	wordpools/wasnorm_wordpool_less_exclusions.txt	LTP237	ltpFR	3	n/a	-1	HAM	678	n/a	n/a	-1	n/a	n/a	n/a	n/a	n/a
4241676	FFR_REC_WORD	wordpools/wasnorm_wordpool_less_exclusions.txt	LTP237	ltpFR	3	n/a	-1	PEARL	1034	n/a	n/a	-1	n/a	n/a	n/a	n/a	n/a
4242713	FFR_REC_WORD	wordpools/wasnorm_wordpool_less_exclusions.txt	LTP237	ltpFR	3	n/a	-1	TREASURE	1500	n/a	n/a	-1	n/a	n/a	n/a	n/a	n/a
4252827	FFR_REC_WORD	wordpools/wasnorm_wordpool_less_exclusions.txt	LTP237	ltpFR	3	n/a	1	MOTHER	921	n/a	n/a	1	n/a	n/a	n/a	n/a	n/a
4253979	FFR_REC_WORD	wordpools/wasnorm_wordpool_less_exclusions.txt	LTP237	ltpFR	3	n/a	0	FATHER	554	n/a	n/a	1	n/a	n/a	n/a	n/a	n/a
4255764	FFR_REC_WORD	wordpools/wasnorm_wordpool_less_exclusions.txt	LTP237	ltpFR	3	n/a	0	DAD	433	n/a	n/a	1	n/a	n/a	n/a	n/a	n/a
4266549	FFR_REC_WORD	wordpools/wasnorm_wordpool_less_exclusions.txt	LTP237	ltpFR	3	n/a	0	WHALE	1601	n/a	n/a	1	n/a	n/a	n/a	n/a	n/a
4275126	FFR_REC_WORD	wordpools/wasnorm_wordpool_less_exclusions.txt	LTP237	ltpFR	3	n/a	1	MISTER	901	n/a	n/a	1	n/a	n/a	n/a	n/a	n/a
4276362	FFR_REC_WORD	wordpools/wasnorm_wordpool_less_exclusions.txt	LTP237	ltpFR	3	n/a	1	EXPERT	543	n/a	n/a	1	n/a	n/a	n/a	n/a	n/a
4303319	REC_START	n/a	LTP237	ltpFR	3	1	n/a	n/a	n/a	n/a	n/a	n/a	n/a	n/a	n/a	n/a	n/a
4303352	RECOG_LURE	n/a	LTP237	ltpFR	3	1	n/a	CONE	363	1	2	n/a	n/a	n/a	n/a	n/a	n/a
4306003	RECOG_RESP	n/a	LTP237	ltpFR	3	1	n/a	CONE	363	1	n/a	n/a	n/a	n/a	n/a	n/a	n/a
4307648	RECOG_CONF	n/a	LTP237	ltpFR	3	1	n/a	CONE	363	n/a	2	n/a	n/a	n/a	n/a	n/a	n/a
4309593	RECOG_TARGET	n/a	LTP237	ltpFR	3	1	1	SILVERWARE	1308	0	3	0	n/a	n/a	n/a	n/a	n/a
4311161	RECOG_RESP	n/a	LTP237	ltpFR	3	1	1	SILVERWARE	1308	0	n/a	0	n/a	n/a	n/a	n/a	n/a
4312209	RECOG_CONF	n/a	LTP237	ltpFR	3	1	1	SILVERWARE	1308	n/a	3	0	n/a	n/a	n/a	n/a	n/a
4314004	RECOG_LURE	n/a	LTP237	ltpFR	3	1	n/a	BUG	187	1	1	n/a	n/a	n/a	n/a	n/a	n/a
4314987	RECOG_RESP	n/a	LTP237	ltpFR	3	1	n/a	BUG	187	1	n/a	n/a	n/a	n/a	n/a	n/a	n/a
4316198	RECOG_CONF	n/a	LTP237	ltpFR	3	1	n/a	BUG	187	n/a	1	n/a	n/a	n/a	n/a	n/a	n/a
4317981	RECOG_TARGET	n/a	LTP237	ltpFR	3	1	1	WAGON	1578	1	3	0	n/a	n/a	n/a	n/a	n/a
4318893	RECOG_RESP	n/a	LTP237	ltpFR	3	1	1	WAGON	1578	1	n/a	0	n/a	n/a	n/a	n/a	n/a
4320269	RECOG_CONF	n/a	LTP237	ltpFR	3	1	1	WAGON	1578	n/a	3	0	n/a	n/a	n/a	n/a	n/a
4322075	RECOG_TARGET	n/a	LTP237	ltpFR	3	1	1	TORNADO	1485	1	5	0	n/a	n/a	n/a	n/a	n/a
4322760	RECOG_RESP	n/a	LTP237	ltpFR	3	1	1	TORNADO	1485	1	n/a	0	n/a	n/a	n/a	n/a	n/a
4323737	RECOG_CONF	n/a	LTP237	ltpFR	3	1	1	TORNADO	1485	n/a	5	0	n/a	n/a	n/a	n/a	n/a
4325436	RECOG_TARGET	n/a	LTP237	ltpFR	3	1	0	FRIAR	605	1	5	0	n/a	n/a	n/a	n/a	n/a
4326063	RECOG_RESP	n/a	LTP237	ltpFR	3	1	0	FRIAR	605	1	n/a	0	n/a	n/a	n/a	n/a	n/a
4327090	RECOG_CONF	n/a	LTP237	ltpFR	3	1	0	FRIAR	605	n/a	5	0	n/a	n/a	n/a	n/a	n/a
4328931	RECOG_TARGET	n/a	LTP237	ltpFR	3	1	1	COFFEE	341	1	2	0	n/a	n/a	n/a	n/a	n/a
4330101	RECOG_RESP	n/a	LTP237	ltpFR	3	1	1	COFFEE	341	1	n/a	0	n/a	n/a	n/a	n/a	n/a
4331260	RECOG_CONF	n/a	LTP237	ltpFR	3	1	1	COFFEE	341	n/a	2	0	n/a	n/a	n/a	n/a	n/a
4333324	RECOG_TARGET	n/a	LTP237	ltpFR	3	1	0	MOVIE	927	1	3	1	n/a	n/a	n/a	n/a	n/a
4334206	RECOG_RESP	n/a	LTP237	ltpFR	3	1	0	MOVIE	927	1	n/a	1	n/a	n/a	n/a	n/a	n/a
4335158	RECOG_CONF	n/a	LTP237	ltpFR	3	1	0	MOVIE	927	n/a	3	1	n/a	n/a	n/a	n/a	n/a
4336736	RECOG_TARGET	n/a	LTP237	ltpFR	3	1	0	CONTAINER	366	1	4	0	n/a	n/a	n/a	n/a	n/a
4337491	RECOG_RESP	n/a	LTP237	ltpFR	3	1	0	CONTAINER	366	1	n/a	0	n/a	n/a	n/a	n/a	n/a
4338414	RECOG_CONF	n/a	LTP237	ltpFR	3	1	0	CONTAINER	366	n/a	4	0	n/a	n/a	n/a	n/a	n/a
4340165	RECOG_TARGET	n/a	LTP237	ltpFR	3	1	-1	COMB	351	1	4	-1	n/a	n/a	n/a	n/a	n/a
4340961	RECOG_RESP	n/a	LTP237	ltpFR	3	1	-1	COMB	351	1	n/a	-1	n/a	n/a	n/a	n/a	n/a
4341936	RECOG_CONF	n/a	LTP237	ltpFR	3	1	-1	COMB	351	n/a	4	-1	n/a	n/a	n/a	n/a	n/a
4343676	RECOG_LURE	n/a	LTP237	ltpFR	3	1	n/a	RUBY	1214	0	3	n/a	n/a	n/a	n/a	n/a	n/a
4344794	RECOG_RESP	n/a	LTP237	ltpFR	3	1	n/a	RUBY	1214	0	n/a	n/a	n/a	n/a	n/a	n/a	n/a
4345747	RECOG_CONF	n/a	LTP237	ltpFR	3	1	n/a	RUBY	1214	n/a	3	n/a	n/a	n/a	n/a	n/a	n/a
4347436	RECOG_LURE	n/a	LTP237	ltpFR	3	1	n/a	NIECE	952	0	1	n/a	n/a	n/a	n/a	n/a	n/a
4348520	RECOG_RESP	n/a	LTP237	ltpFR	3	1	n/a	NIECE	952	0	n/a	n/a	n/a	n/a	n/a	n/a	n/a
4349396	RECOG_CONF	n/a	LTP237	ltpFR	3	1	n/a	NIECE	952	n/a	1	n/a	n/a	n/a	n/a	n/a	n/a
4351098	RECOG_LURE	n/a	LTP237	ltpFR	3	1	n/a	OATMEAL	967	1	5	n/a	n/a	n/a	n/a	n/a	n/a
4351925	RECOG_RESP	n/a	LTP237	ltpFR	3	1	n/a	OATMEAL	967	1	n/a	n/a	n/a	n/a	n/a	n/a	n/a
4352732	RECOG_CONF	n/a	LTP237	ltpFR	3	1	n/a	OATMEAL	967	n/a	5	n/a	n/a	n/a	n/a	n/a	n/a
4354575	RECOG_TARGET	n/a	LTP237	ltpFR	3	1	1	CONCERT	360	1	3	0	n/a	n/a	n/a	n/a	n/a
4355772	RECOG_RESP	n/a	LTP237	ltpFR	3	1	1	CONCERT	360	1	n/a	0	n/a	n/a	n/a	n/a	n/a
4357091	RECOG_CONF	n/a	LTP237	ltpFR	3	1	1	CONCERT	360	n/a	3	0	n/a	n/a	n/a	n/a	n/a
4358903	RECOG_TARGET	n/a	LTP237	ltpFR	3	1	1	ELEVATOR	524	1	5	1	n/a	n/a	n/a	n/a	n/a
4359569	RECOG_RESP	n/a	LTP237	ltpFR	3	1	1	ELEVATOR	524	1	n/a	1	n/a	n/a	n/a	n/a	n/a
4360504	RECOG_CONF	n/a	LTP237	ltpFR	3	1	1	ELEVATOR	524	n/a	5	1	n/a	n/a	n/a	n/a	n/a
4362115	RECOG_TARGET	n/a	LTP237	ltpFR	3	1	0	TRENCH	1503	1	4	1	n/a	n/a	n/a	n/a	n/a
4362815	RECOG_RESP	n/a	LTP237	ltpFR	3	1	0	TRENCH	1503	1	n/a	1	n/a	n/a	n/a	n/a	n/a
4363661	RECOG_CONF	n/a	LTP237	ltpFR	3	1	0	TRENCH	1503	n/a	4	1	n/a	n/a	n/a	n/a	n/a
4365393	RECOG_TARGET	n/a	LTP237	ltpFR	3	1	0	CUP	424	1	3	0	n/a	n/a	n/a	n/a	n/a
4365993	RECOG_RESP	n/a	LTP237	ltpFR	3	1	0	CUP	424	1	n/a	0	n/a	n/a	n/a	n/a	n/a
4366997	RECOG_CONF	n/a	LTP237	ltpFR	3	1	0	CUP	424	n/a	3	0	n/a	n/a	n/a	n/a	n/a
4368689	RECOG_LURE	n/a	LTP237	ltpFR	3	1	n/a	PUDDING	1139	0	2	n/a	n/a	n/a	n/a	n/a	n/a
4369631	RECOG_RESP	n/a	LTP237	ltpFR	3	1	n/a	PUDDING	1139	0	n/a	n/a	n/a	n/a	n/a	n/a	n/a
4370652	RECOG_CONF	n/a	LTP237	ltpFR	3	1	n/a	PUDDING	1139	n/a	2	n/a	n/a	n/a	n/a	n/a	n/a
4372332	RECOG_TARGET	n/a	LTP237	ltpFR	3	1	0	TANGERINE	1431	1	1	0	n/a	n/a	n/a	n/a	n/a
4373402	RECOG_RESP	n/a	LTP237	ltpFR	3	1	0	TANGERINE	1431	1	n/a	0	n/a	n/a	n/a	n/a	n/a
4374334	RECOG_CONF	n/a	LTP237	ltpFR	3	1	0	TANGERINE	1431	n/a	1	0	n/a	n/a	n/a	n/a	n/a
4375994	RECOG_LURE	n/a	LTP237	ltpFR	3	1	n/a	ASHTRAY	45	0	5	n/a	n/a	n/a	n/a	n/a	n/a
4376894	RECOG_RESP	n/a	LTP237	ltpFR	3	1	n/a	ASHTRAY	45	0	n/a	n/a	n/a	n/a	n/a	n/a	n/a
4377673	RECOG_CONF	n/a	LTP237	ltpFR	3	1	n/a	ASHTRAY	45	n/a	5	n/a	n/a	n/a	n/a	n/a	n/a
4385268	REC_START	n/a	LTP237	ltpFR	3	2	n/a	n/a	n/a	n/a	n/a	n/a	n/a	n/a	n/a	n/a	n/a
4385297	RECOG_LURE	n/a	LTP237	ltpFR	3	2	n/a	DENIM	446	0	1	n/a	n/a	n/a	n/a	n/a	n/a
4386260	RECOG_RESP	n/a	LTP237	ltpFR	3	2	n/a	DENIM	446	0	n/a	n/a	n/a	n/a	n/a	n/a	n/a
4386999	RECOG_CONF	n/a	LTP237	ltpFR	3	2	n/a	DENIM	446	n/a	1	n/a	n/a	n/a	n/a	n/a	n/a
4388709	RECOG_LURE	n/a	LTP237	ltpFR	3	2	n/a	NOVEL	960	1	3	n/a	n/a	n/a	n/a	n/a	n/a
4389370	RECOG_RESP	n/a	LTP237	ltpFR	3	2	n/a	NOVEL	960	1	n/a	n/a	n/a	n/a	n/a	n/a	n/a
4390159	RECOG_CONF	n/a	LTP237	ltpFR	3	2	n/a	NOVEL	960	n/a	3	n/a	n/a	n/a	n/a	n/a	n/a
4391754	RECOG_TARGET	n/a	LTP237	ltpFR	3	2	0	MOSS	918	1	4	1	n/a	n/a	n/a	n/a	n/a
4392626	RECOG_RESP	n/a	LTP237	ltpFR	3	2	0	MOSS	918	1	n/a	1	n/a	n/a	n/a	n/a	n/a
4393295	RECOG_CONF	n/a	LTP237	ltpFR	3	2	0	MOSS	918	n/a	4	1	n/a	n/a	n/a	n/a	n/a
4394850	RECOG_TARGET	n/a	LTP237	ltpFR	3	2	-1	LIMOUSINE	824	1	5	-1	n/a	n/a	n/a	n/a	n/a
4395449	RECOG_RESP	n/a	LTP237	ltpFR	3	2	-1	LIMOUSINE	824	1	n/a	-1	n/a	n/a	n/a	n/a	n/a
4396040	RECOG_CONF	n/a	LTP237	ltpFR	3	2	-1	LIMOUSINE	824	n/a	5	-1	n/a	n/a	n/a	n/a	n/a
4397845	RECOG_TARGET	n/a	LTP237	ltpFR	3	2	0	TEACHER	1440	1	5	1	n/a	n/a	n/a	n/a	n/a
4398333	RECOG_RESP	n/a	LTP237	ltpFR	3	2	0	TEACHER	1440	1	n/a	1	n/a	n/a	n/a	n/a	n/a
4398962	RECOG_CONF	n/a	LTP237	ltpFR	3	2	0	TEACHER	1440	n/a	5	1	n/a	n/a	n/a	n/a	n/a
4400757	RECOG_TARGET	n/a	LTP237	ltpFR	3	2	-1	EYELASH	546	1	4	-1	n/a	n/a	n/a	n/a	n/a
4401490	RECOG_RESP	n/a	LTP237	ltpFR	3	2	-1	EYELASH	546	1	n/a	-1	n/a	n/a	n/a	n/a	n/a
4402264	RECOG_CONF	n/a	LTP237	ltpFR	3	2	-1	EYELASH	546	n/a	4	-1	n/a	n/a	n/a	n/a	n/a
4403820	RECOG_TARGET	n/a	LTP237	ltpFR	3	2	1	BARN	89	0	3	0	n/a	n/a	n/a	n/a	n/a
4405254	RECOG_RESP	n/a	LTP237	ltpFR	3	2	1	BARN	89	0	n/a	0	n/a	n/a	n/a	n/a	n/a
4406173	RECOG_CONF	n/a	LTP237	ltpFR	3	2	1	BARN	89	n/a	3	0	n/a	n/a	n/a	n/a	n/a
4407913	RECOG_TARGET	n/a	LTP237	ltpFR	3	2	0	GEM	629	1	5	0	n/a	n/a	n/a	n/a	n/a
4408639	RECOG_RESP	n/a	LTP237	ltpFR	3	2	0	GEM	629	1	n/a	0	n/a	n/a	n/a	n/a	n/a
4409478	RECOG_CONF	n/a	LTP237	ltpFR	3	2	0	GEM	629	n/a	5	0	n/a	n/a	n/a	n/a	n/a
4411192	RECOG_LURE	n/a	LTP237	ltpFR	3	2	n/a	DISHWASHER	475	1	5	n/a	n/a	n/a	n/a	n/a	n/a
4411789	RECOG_RESP	n/a	LTP237	ltpFR	3	2	n/a	DISHWASHER	475	1	n/a	n/a	n/a	n/a	n/a	n/a	n/a
4412710	RECOG_CONF	n/a	LTP237	ltpFR	3	2	n/a	DISHWASHER	475	n/a	5	n/a	n/a	n/a	n/a	n/a	n/a
4414403	RECOG_LURE	n/a	LTP237	ltpFR	3	2	n/a	WORLD	1622	0	4	n/a	n/a	n/a	n/a	n/a	n/a
4415359	RECOG_RESP	n/a	LTP237	ltpFR	3	2	n/a	WORLD	1622	0	n/a	n/a	n/a	n/a	n/a	n/a	n/a
4416245	RECOG_CONF	n/a	LTP237	ltpFR	3	2	n/a	WORLD	1622	n/a	4	n/a	n/a	n/a	n/a	n/a	n/a
4418098	RECOG_TARGET	n/a	LTP237	ltpFR	3	2	1	SNORKEL	1336	1	2	0	n/a	n/a	n/a	n/a	n/a
4418835	RECOG_RESP	n/a	LTP237	ltpFR	3	2	1	SNORKEL	1336	1	n/a	0	n/a	n/a	n/a	n/a	n/a
4419692	RECOG_CONF	n/a	LTP237	ltpFR	3	2	1	SNORKEL	1336	n/a	2	0	n/a	n/a	n/a	n/a	n/a
4421475	RECOG_TARGET	n/a	LTP237	ltpFR	3	2	1	MOTHER	921	1	3	1	n/a	n/a	n/a	n/a	n/a
4422036	RECOG_RESP	n/a	LTP237	ltpFR	3	2	1	MOTHER	921	1	n/a	1	n/a	n/a	n/a	n/a	n/a
4422884	RECOG_CONF	n/a	LTP237	ltpFR	3	2	1	MOTHER	921	n/a	3	1	n/a	n/a	n/a	n/a	n/a
4424521	RECOG_TARGET	n/a	LTP237	ltpFR	3	2	1	COP	376	1	5	1	n/a	n/a	n/a	n/a	n/a
4425167	RECOG_RESP	n/a	LTP237	ltpFR	3	2	1	COP	376	1	n/a	1	n/a	n/a	n/a	n/a	n/a
4425919	RECOG_CONF	n/a	LTP237	ltpFR	3	2	1	COP	376	n/a	5	1	n/a	n/a	n/a	n/a	n/a
4427684	RECOG_LURE	n/a	LTP237	ltpFR	3	2	n/a	SCARF	1246	0	2	n/a	n/a	n/a	n/a	n/a	n/a
4428494	RECOG_RESP	n/a	LTP237	ltpFR	3	2	n/a	SCARF	1246	0	n/a	n/a	n/a	n/a	n/a	n/a	n/a
4429370	RECOG_CONF	n/a	LTP237	ltpFR	3	2	n/a	SCARF	1246	n/a	2	n/a	n/a	n/a	n/a	n/a	n/a
4431129	RECOG_TARGET	n/a	LTP237	ltpFR	3	2	0	WAIST	1579	1	5	1	n/a	n/a	n/a	n/a	n/a
4431733	RECOG_RESP	n/a	LTP237	ltpFR	3	2	0	WAIST	1579	1	n/a	1	n/a	n/a	n/a	n/a	n/a
4432520	RECOG_CONF	n/a	LTP237	ltpFR	3	2	0	WAIST	1579	n/a	5	1	n/a	n/a	n/a	n/a	n/a
4434291	RECOG_TARGET	n/a	LTP237	ltpFR	3	2	0	MEAT	883	1	5	1	n/a	n/a	n/a	n/a	n/a
4434875	RECOG_RESP	n/a	LTP237	ltpFR	3	2	0	MEAT	883	1	n/a	1	n/a	n/a	n/a	n/a	n/a
4435768	RECOG_CONF	n/a	LTP237	ltpFR	3	2	0	MEAT	883	n/a	5	1	n/a	n/a	n/a	n/a	n/a
4437502	RECOG_TARGET	n/a	LTP237	ltpFR	3	2	-1	SCULPTURE	1258	1	4	-1	n/a	n/a	n/a	n/a	n/a
4438157	RECOG_RESP	n/a	LTP237	ltpFR	3	2	-1	SCULPTURE	1258	1	n/a	-1	n/a	n/a	n/a	n/a	n/a
4439276	RECOG_CONF	n/a	LTP237	ltpFR	3	2	-1	SCULPTURE	1258	n/a	4	-1	n/a	n/a	n/a	n/a	n/a
4440831	RECOG_TARGET	n/a	LTP237	ltpFR	3	2	1	LONDON	843	1	4	0	n/a	n/a	n/a	n/a	n/a
4441730	RECOG_RESP	n/a	LTP237	ltpFR	3	2	1	LONDON	843	1	n/a	0	n/a	n/a	n/a	n/a	n/a
4442672	RECOG_CONF	n/a	LTP237	ltpFR	3	2	1	LONDON	843	n/a	4	0	n/a	n/a	n/a	n/a	n/a
4444226	RECOG_TARGET	n/a	LTP237	ltpFR	3	2	-1	PUBLICATION	1136	1	3	-1	n/a	n/a	n/a	n/a	n/a
4444896	RECOG_RESP	n/a	LTP237	ltpFR	3	2	-1	PUBLICATION	1136	1	n/a	-1	n/a	n/a	n/a	n/a	n/a
4445833	RECOG_CONF	n/a	LTP237	ltpFR	3	2	-1	PUBLICATION	1136	n/a	3	-1	n/a	n/a	n/a	n/a	n/a
4447470	RECOG_TARGET	n/a	LTP237	ltpFR	3	2	0	MARKET	871	1	4	1	n/a	n/a	n/a	n/a	n/a
4448038	RECOG_RESP	n/a	LTP237	ltpFR	3	2	0	MARKET	871	1	n/a	1	n/a	n/a	n/a	n/a	n/a
4449288	RECOG_CONF	n/a	LTP237	ltpFR	3	2	0	MARKET	871	n/a	4	1	n/a	n/a	n/a	n/a	n/a
4453114	REC_START	n/a	LTP237	ltpFR	3	3	n/a	n/a	n/a	n/a	n/a	n/a	n/a	n/a	n/a	n/a	n/a
4453146	RECOG_TARGET	n/a	LTP237	ltpFR	3	3	1	JUPITER	765	1	5	0	n/a	n/a	n/a	n/a	n/a
4454028	RECOG_RESP	n/a	LTP237	ltpFR	3	3	1	JUPITER	765	1	n/a	0	n/a	n/a	n/a	n/a	n/a
4454769	RECOG_CONF	n/a	LTP237	ltpFR	3	3	1	JUPITER	765	n/a	5	0	n/a	n/a	n/a	n/a	n/a
4456556	RECOG_LURE	n/a	LTP237	ltpFR	3	3	n/a	JOURNAL	760	0	2	n/a	n/a	n/a	n/a	n/a	n/a
4457551	RECOG_RESP	n/a	LTP237	ltpFR	3	3	n/a	JOURNAL	760	0	n/a	n/a	n/a	n/a	n/a	n/a	n/a
4458415	RECOG_CONF	n/a	LTP237	ltpFR	3	3	n/a	JOURNAL	760	n/a	2	n/a	n/a	n/a	n/a	n/a	n/a
4460235	RECOG_TARGET	n/a	LTP237	ltpFR	3	3	0	TROUT	1511	1	3	1	n/a	n/a	n/a	n/a	n/a
4460909	RECOG_RESP	n/a	LTP237	ltpFR	3	3	0	TROUT	1511	1	n/a	1	n/a	n/a	n/a	n/a	n/a
4461761	RECOG_CONF	n/a	LTP237	ltpFR	3	3	0	TROUT	1511	n/a	3	1	n/a	n/a	n/a	n/a	n/a
4463463	RECOG_TARGET	n/a	LTP237	ltpFR	3	3	1	DIVER	476	1	2	1	n/a	n/a	n/a	n/a	n/a
4464132	RECOG_RESP	n/a	LTP237	ltpFR	3	3	1	DIVER	476	1	n/a	1	n/a	n/a	n/a	n/a	n/a
4465054	RECOG_CONF	n/a	LTP237	ltpFR	3	3	1	DIVER	476	n/a	2	1	n/a	n/a	n/a	n/a	n/a
4466659	RECOG_TARGET	n/a	LTP237	ltpFR	3	3	-1	BABY	64	1	5	-1	n/a	n/a	n/a	n/a	n/a
4467404	RECOG_RESP	n/a	LTP237	ltpFR	3	3	-1	BABY	64	1	n/a	-1	n/a	n/a	n/a	n/a	n/a
4468165	RECOG_CONF	n/a	LTP237	ltpFR	3	3	-1	BABY	64	n/a	5	-1	n/a	n/a	n/a	n/a	n/a
4469887	RECOG_TARGET	n/a	LTP237	ltpFR	3	3	-1	WASHER	1592	1	4	-1	n/a	n/a	n/a	n/a	n/a
4471173	RECOG_RESP	n/a	LTP237	ltpFR	3	3	-1	WASHER	1592	1	n/a	-1	n/a	n/a	n/a	n/a	n/a
4471907	RECOG_CONF	n/a	LTP237	ltpFR	3	3	-1	WASHER	1592	n/a	4	-1	n/a	n/a	n/a	n/a	n/a
4473815	RECOG_LURE	n/a	LTP237	ltpFR	3	3	n/a	MOP	916	0	2	n/a	n/a	n/a	n/a	n/a	n/a
4474450	RECOG_RESP_VV	n/a	LTP237	ltpFR	3	3	n/a	MOP	916	1	n/a	n/a	n/a	n/a	n/a	n/a	n/a
4475846	RECOG_RESP	n/a	LTP237	ltpFR	3	3	n/a	MOP	916	0	n/a	n/a	n/a	n/a	n/a	n/a	n/a
4477099	RECOG_CONF	n/a	LTP237	ltpFR	3	3	n/a	MOP	916	n/a	2	n/a	n/a	n/a	n/a	n/a	n/a
4478907	RECOG_TARGET	n/a	LTP237	ltpFR	3	3	-1	SILK	1307	0	3	-1	n/a	n/a	n/a	n/a	n/a
4479981	RECOG_RESP	n/a	LTP237	ltpFR	3	3	-1	SILK	1307	0	n/a	-1	n/a	n/a	n/a	n/a	n/a
4481937	RECOG_CONF	n/a	LTP237	ltpFR	3	3	-1	SILK	1307	n/a	3	-1	n/a	n/a	n/a	n/a	n/a
4483650	RECOG_TARGET	n/a	LTP237	ltpFR	3	3	1	BANDIT	81	1	1	1	n/a	n/a	n/a	n/a	n/a
4484778	RECOG_RESP	n/a	LTP237	ltpFR	3	3	1	BANDIT	81	1	n/a	1	n/a	n/a	n/a	n/a	n/a
4485939	RECOG_CONF	n/a	LTP237	ltpFR	3	3	1	BANDIT	81	n/a	1	1	n/a	n/a	n/a	n/a	n/a
4487610	RECOG_LURE	n/a	LTP237	ltpFR	3	3	n/a	WAND	1586	0	4	n/a	n/a	n/a	n/a	n/a	n/a
4488462	RECOG_RESP	n/a	LTP237	ltpFR	3	3	n/a	WAND	1586	0	n/a	n/a	n/a	n/a	n/a	n/a	n/a
4489366	RECOG_CONF	n/a	LTP237	ltpFR	3	3	n/a	WAND	1586	n/a	4	n/a	n/a	n/a	n/a	n/a	n/a
4490989	RECOG_TARGET	n/a	LTP237	ltpFR	3	3	0	CAT	257	1	5	1	n/a	n/a	n/a	n/a	n/a
4492192	RECOG_RESP_VV	n/a	LTP237	ltpFR	3	3	0	CAT	257	0	n/a	1	n/a	n/a	n/a	n/a	n/a
4493582	RECOG_RESP	n/a	LTP237	ltpFR	3	3	0	CAT	257	1	n/a	1	n/a	n/a	n/a	n/a	n/a
4494621	RECOG_CONF	n/a	LTP237	ltpFR	3	3	0	CAT	257	n/a	5	1	n/a	n/a	n/a	n/a	n/a
4496597	RECOG_TARGET	n/a	LTP237	ltpFR	3	3	-1	PADDLE	1000	1	3	-1	n/a	n/a	n/a	n/a	n/a
4497419	RECOG_RESP	n/a	LTP237	ltpFR	3	3	-1	PADDLE	1000	1	n/a	-1	n/a	n/a	n/a	n/a	n/a
4498474	RECOG_CONF	n/a	LTP237	ltpFR	3	3	-1	PADDLE	1000	n/a	3	-1	n/a	n/a	n/a	n/a	n/a
4500176	RECOG_TARGET	n/a	LTP237	ltpFR	3	3	0	ANTEATER	26	1	2	1	n/a	n/a	n/a	n/a	n/a
4500985	RECOG_RESP	n/a	LTP237	ltpFR	3	3	0	ANTEATER	26	1	n/a	1	n/a	n/a	n/a	n/a	n/a
4502134	RECOG_CONF	n/a	LTP237	ltpFR	3	3	0	ANTEATER	26	n/a	2	1	n/a	n/a	n/a	n/a	n/a
4503720	RECOG_TARGET	n/a	LTP237	ltpFR	3	3	0	BROTHER	179	1	4	1	n/a	n/a	n/a	n/a	n/a
4504773	RECOG_RESP	n/a	LTP237	ltpFR	3	3	0	BROTHER	179	1	n/a	1	n/a	n/a	n/a	n/a	n/a
4506088	RECOG_CONF	n/a	LTP237	ltpFR	3	3	0	BROTHER	179	n/a	4	1	n/a	n/a	n/a	n/a	n/a
4507781	RECOG_TARGET	n/a	LTP237	ltpFR	3	3	1	CREATURE	403	1	5	1	n/a	n/a	n/a	n/a	n/a
4508428	RECOG_RESP	n/a	LTP237	ltpFR	3	3	1	CREATURE	403	1	n/a	1	n/a	n/a	n/a	n/a	n/a
4509501	RECOG_CONF	n/a	LTP237	ltpFR	3	3	1	CREATURE	403	n/a	5	1	n/a	n/a	n/a	n/a	n/a
4511209	RECOG_TARGET	n/a	LTP237	ltpFR	3	3	1	WORKER	1621	1	4	1	n/a	n/a	n/a	n/a	n/a
4511825	RECOG_RESP	n/a	LTP237	ltpFR	3	3	1	WORKER	1621	1	n/a	1	n/a	n/a	n/a	n/a	n/a
4512643	RECOG_CONF	n/a	LTP237	ltpFR	3	3	1	WORKER	1621	n/a	4	1	n/a	n/a	n/a	n/a	n/a
4514470	RECOG_TARGET	n/a	LTP237	ltpFR	3	3	0	MARROW	872	1	2	0	n/a	n/a	n/a	n/a	n/a
4515405	RECOG_RESP	n/a	LTP237	ltpFR	3	3	0	MARROW	872	1	n/a	0	n/a	n/a	n/a	n/a	n/a
4516381	RECOG_CONF	n/a	LTP237	ltpFR	3	3	0	MARROW	872	n/a	2	0	n/a	n/a	n/a	n/a	n/a
4517966	RECOG_TARGET	n/a	LTP237	ltpFR	3	3	0	SALMON	1227	1	3	1	n/a	n/a	n/a	n/a	n/a
4518583	RECOG_RESP	n/a	LTP237	ltpFR	3	3	0	SALMON	1227	1	n/a	1	n/a	n/a	n/a	n/a	n/a
4519517	RECOG_CONF	n/a	LTP237	ltpFR	3	3	0	SALMON	1227	n/a	3	1	n/a	n/a	n/a	n/a	n/a
4521194	RECOG_TARGET	n/a	LTP237	ltpFR	3	3	0	SHIRT	1287	1	4	0	n/a	n/a	n/a	n/a	n/a
4521977	RECOG_RESP	n/a	LTP237	ltpFR	3	3	0	SHIRT	1287	1	n/a	0	n/a	n/a	n/a	n/a	n/a
4522819	RECOG_CONF	n/a	LTP237	ltpFR	3	3	0	SHIRT	1287	n/a	4	0	n/a	n/a	n/a	n/a	n/a
4524555	RECOG_LURE	n/a	LTP237	ltpFR	3	3	n/a	CONSUMER	365	1	1	n/a	n/a	n/a	n/a	n/a	n/a
4525250	RECOG_RESP	n/a	LTP237	ltpFR	3	3	n/a	CONSUMER	365	1	n/a	n/a	n/a	n/a	n/a	n/a	n/a
4526306	RECOG_CONF	n/a	LTP237	ltpFR	3	3	n/a	CONSUMER	365	n/a	1	n/a	n/a	n/a	n/a	n/a	n/a
4530143	REC_START	n/a	LTP237	ltpFR	3	4	n/a	n/a	n/a	n/a	n/a	n/a	n/a	n/a	n/a	n/a	n/a
4530181	RECOG_TARGET	n/a	LTP237	ltpFR	3	4	1	KEYBOARD	774	0	2	0	n/a	n/a	n/a	n/a	n/a
4531423	RECOG_RESP	n/a	LTP237	ltpFR	3	4	1	KEYBOARD	774	0	n/a	0	n/a	n/a	n/a	n/a	n/a
4532783	RECOG_CONF	n/a	LTP237	ltpFR	3	4	1	KEYBOARD	774	n/a	2	0	n/a	n/a	n/a	n/a	n/a
4534357	RECOG_TARGET	n/a	LTP237	ltpFR	3	4	1	LADDER	793	1	5	0	n/a	n/a	n/a	n/a	n/a
4535073	RECOG_RESP	n/a	LTP237	ltpFR	3	4	1	LADDER	793	1	n/a	0	n/a	n/a	n/a	n/a	n/a
4536014	RECOG_CONF	n/a	LTP237	ltpFR	3	4	1	LADDER	793	n/a	5	0	n/a	n/a	n/a	n/a	n/a
4537686	RECOG_LURE	n/a	LTP237	ltpFR	3	4	n/a	PARTY	1018	0	2	n/a	n/a	n/a	n/a	n/a	n/a
4538678	RECOG_RESP	n/a	LTP237	ltpFR	3	4	n/a	PARTY	1018	0	n/a	n/a	n/a	n/a	n/a	n/a	n/a
4539811	RECOG_CONF	n/a	LTP237	ltpFR	3	4	n/a	PARTY	1018	n/a	2	n/a	n/a	n/a	n/a	n/a	n/a
4541496	RECOG_TARGET	n/a	LTP237	ltpFR	3	4	-1	HAM	678	1	5	-1	n/a	n/a	n/a	n/a	n/a
4542175	RECOG_RESP	n/a	LTP237	ltpFR	3	4	-1	HAM	678	1	n/a	-1	n/a	n/a	n/a	n/a	n/a
4543048	RECOG_CONF	n/a	LTP237	ltpFR	3	4	-1	HAM	678	n/a	5	-1	n/a	n/a	n/a	n/a	n/a
4544525	RECOG_TARGET	n/a	LTP237	ltpFR	3	4	0	BIKE	125	1	4	1	n/a	n/a	n/a	n/a	n/a
4545803	RECOG_RESP	n/a	LTP237	ltpFR	3	4	0	BIKE	125	1	n/a	1	n/a	n/a	n/a	n/a	n/a
4546900	RECOG_CONF	n/a	LTP237	ltpFR	3	4	0	BIKE	125	n/a	4	1	n/a	n/a	n/a	n/a	n/a
4548619	RECOG_TARGET	n/a	LTP237	ltpFR	3	4	0	SLEEVE	1324	1	5	0	n/a	n/a	n/a	n/a	n/a
4549224	RECOG_RESP	n/a	LTP237	ltpFR	3	4	0	SLEEVE	1324	1	n/a	0	n/a	n/a	n/a	n/a	n/a
4550105	RECOG_CONF	n/a	LTP237	ltpFR	3	4	0	SLEEVE	1324	n/a	5	0	n/a	n/a	n/a	n/a	n/a
4551799	RECOG_TARGET	n/a	LTP237	ltpFR	3	4	1	SIREN	1310	0	2	0	n/a	n/a	n/a	n/a	n/a
4552655	RECOG_RESP	n/a	LTP237	ltpFR	3	4	1	SIREN	1310	0	n/a	0	n/a	n/a	n/a	n/a	n/a
4553779	RECOG_CONF	n/a	LTP237	ltpFR	3	4	1	SIREN	1310	n/a	2	0	n/a	n/a	n/a	n/a	n/a
4555392	RECOG_TARGET	n/a	LTP237	ltpFR	3	4	1	SANDPAPER	1231	0	5	0	n/a	n/a	n/a	n/a	n/a
4556228	RECOG_RESP	n/a	LTP237	ltpFR	3	4	1	SANDPAPER	1231	0	n/a	0	n/a	n/a	n/a	n/a	n/a
4557107	RECOG_CONF	n/a	LTP237	ltpFR	3	4	1	SANDPAPER	1231	n/a	5	0	n/a	n/a	n/a	n/a	n/a
4559004	RECOG_LURE	n/a	LTP237	ltpFR	3	4	n/a	PISTOL	1075	1	2	n/a	n/a	n/a	n/a	n/a	n/a
4560898	RECOG_RESP	n/a	LTP237	ltpFR	3	4	n/a	PISTOL	1075	1	n/a	n/a	n/a	n/a	n/a	n/a	n/a
4562275	RECOG_CONF	n/a	LTP237	ltpFR	3	4	n/a	PISTOL	1075	n/a	2	n/a	n/a	n/a	n/a	n/a	n/a
4564064	RECOG_TARGET	n/a	LTP237	ltpFR	3	4	1	SUBMARINE	1398	1	3	0	n/a	n/a	n/a	n/a	n/a
4564932	RECOG_RESP	n/a	LTP237	ltpFR	3	4	1	SUBMARINE	1398	1	n/a	0	n/a	n/a	n/a	n/a	n/a
4565980	RECOG_CONF	n/a	LTP237	ltpFR	3	4	1	SUBMARINE	1398	n/a	3	0	n/a	n/a	n/a	n/a	n/a
4567642	RECOG_TARGET	n/a	LTP237	ltpFR	3	4	1	MONSTER	912	1	5	1	n/a	n/a	n/a	n/a	n/a
4568251	RECOG_RESP	n/a	LTP237	ltpFR	3	4	1	MONSTER	912	1	n/a	1	n/a	n/a	n/a	n/a	n/a
4569066	RECOG_CONF	n/a	LTP237	ltpFR	3	4	1	MONSTER	912	n/a	5	1	n/a	n/a	n/a	n/a	n/a
4570853	RECOG_LURE	n/a	LTP237	ltpFR	3	4	n/a	VAGRANT	1544	0	4	n/a	n/a	n/a	n/a	n/a	n/a
4571813	RECOG_RESP	n/a	LTP237	ltpFR	3	4	n/a	VAGRANT	1544	0	n/a	n/a	n/a	n/a	n/a	n/a	n/a
4572978	RECOG_CONF	n/a	LTP237	ltpFR	3	4	n/a	VAGRANT	1544	n/a	4	n/a	n/a	n/a	n/a	n/a	n/a
4574831	RECOG_LURE	n/a	LTP237	ltpFR	3	4	n/a	MARGARINE	868	0	3	n/a	n/a	n/a	n/a	n/a	n/a
4575833	RECOG_RESP_VV	n/a	LTP237	ltpFR	3	4	n/a	MARGARINE	868	1	n/a	n/a	n/a	n/a	n/a	n/a	n/a
4576847	RECOG_RESP	n/a	LTP237	ltpFR	3	4	n/a	MARGARINE	868	0	n/a	n/a	n/a	n/a	n/a	n/a	n/a
4578761	RECOG_CONF	n/a	LTP237	ltpFR	3	4	n/a	MARGARINE	868	n/a	3	n/a	n/a	n/a	n/a	n/a	n/a
4580639	RECOG_LURE	n/a	LTP237	ltpFR	3	4	n/a	BARK	87	1	2	n/a	n/a	n/a	n/a	n/a	n/a
4582291	RECOG_RESP	n/a	LTP237	ltpFR	3	4	n/a	BARK	87	1	n/a	n/a	n/a	n/a	n/a	n/a	n/a
4583608	RECOG_CONF	n/a	LTP237	ltpFR	3	4	n/a	BARK	87	n/a	2	n/a	n/a	n/a	n/a	n/a	n/a
4585397	RECOG_LURE	n/a	LTP237	ltpFR	3	4	n/a	ROAD	1196	0	4	n/a	n/a	n/a	n/a	n/a	n/a
4586980	RECOG_RESP	n/a	LTP237	ltpFR	3	4	n/a	ROAD	1196	0	n/a	n/a	n/a	n/a	n/a	n/a	n/a
4588060	RECOG_CONF	n/a	LTP237	ltpFR	3	4	n/a	ROAD	1196	n/a	4	n/a	n/a	n/a	n/a	n/a	n/a
4589975	RECOG_LURE	n/a	LTP237	ltpFR	3	4	n/a	WHEAT	1602	0	4	n/a	n/a	n/a	n/a	n/a	n/a
4592060	RECOG_RESP	n/a	LTP237	ltpFR	3	4	n/a	WHEAT	1602	0	n/a	n/a	n/a	n/a	n/a	n/a	n/a
4592971	RECOG_CONF	n/a	LTP237	ltpFR	3	4	n/a	WHEAT	1602	n/a	4	n/a	n/a	n/a	n/a	n/a	n/a
4595017	RECOG_TARGET	n/a	LTP237	ltpFR	3	4	0	JACKET	747	0	1	1	n/a	n/a	n/a	n/a	n/a
4596035	RECOG_RESP	n/a	LTP237	ltpFR	3	4	0	JACKET	747	0	n/a	1	n/a	n/a	n/a	n/a	n/a
4597103	RECOG_CONF	n/a	LTP237	ltpFR	3	4	0	JACKET	747	n/a	1	1	n/a	n/a	n/a	n/a	n/a
4598928	RECOG_TARGET	n/a	LTP237	ltpFR	3	4	-1	RUNNER	1218	1	5	-1	n/a	n/a	n/a	n/a	n/a
4599504	RECOG_RESP	n/a	LTP237	ltpFR	3	4	-1	RUNNER	1218	1	n/a	-1	n/a	n/a	n/a	n/a	n/a
4600413	RECOG_CONF	n/a	LTP237	ltpFR	3	4	-1	RUNNER	1218	n/a	5	-1	n/a	n/a	n/a	n/a	n/a
4602322	RECOG_LURE	n/a	LTP237	ltpFR	3	4	n/a	ASSISTANT	48	0	4	n/a	n/a	n/a	n/a	n/a	n/a
4603217	RECOG_RESP	n/a	LTP237	ltpFR	3	4	n/a	ASSISTANT	48	0	n/a	n/a	n/a	n/a	n/a	n/a	n/a
4604533	RECOG_CONF	n/a	LTP237	ltpFR	3	4	n/a	ASSISTANT	48	n/a	4	n/a	n/a	n/a	n/a	n/a	n/a
4606217	RECOG_TARGET	n/a	LTP237	ltpFR	3	4	1	STOVE	1388	0	1	0	n/a	n/a	n/a	n/a	n/a
4607713	RECOG_RESP	n/a	LTP237	ltpFR	3	4	1	STOVE	1388	0	n/a	0	n/a	n/a	n/a	n/a	n/a
4608917	RECOG_CONF	n/a	LTP237	ltpFR	3	4	1	STOVE	1388	n/a	1	0	n/a	n/a	n/a	n/a	n/a
4613385	REC_START	n/a	LTP237	ltpFR	3	5	n/a	n/a	n/a	n/a	n/a	n/a	n/a	n/a	n/a	n/a	n/a
4613422	RECOG_TARGET	n/a	LTP237	ltpFR	3	5	-1	CLOVE	329	1	4	-1	n/a	n/a	n/a	n/a	n/a
4614684	RECOG_RESP	n/a	LTP237	ltpFR	3	5	-1	CLOVE	329	1	n/a	-1	n/a	n/a	n/a	n/a	n/a
4615432	RECOG_CONF	n/a	LTP237	ltpFR	3	5	-1	CLOVE	329	n/a	4	-1	n/a	n/a	n/a	n/a	n/a
4617151	RECOG_LURE	n/a	LTP237	ltpFR	3	5	n/a	LOCK	838	0	2	n/a	n/a	n/a	n/a	n/a	n/a
4618071	RECOG_RESP	n/a	LTP237	ltpFR	3	5	n/a	LOCK	838	0	n/a	n/a	n/a	n/a	n/a	n/a	n/a
4618886	RECOG_CONF	n/a	LTP237	ltpFR	3	5	n/a	LOCK	838	n/a	2	n/a	n/a	n/a	n/a	n/a	n/a
4620562	RECOG_TARGET	n/a	LTP237	ltpFR	3	5	1	SHERIFF	1284	1	3	1	n/a	n/a	n/a	n/a	n/a
4621329	RECOG_RESP	n/a	LTP237	ltpFR	3	5	1	SHERIFF	1284	1	n/a	1	n/a	n/a	n/a	n/a	n/a
4622210	RECOG_CONF	n/a	LTP237	ltpFR	3	5	1	SHERIFF	1284	n/a	3	1	n/a	n/a	n/a	n/a	n/a
4623991	RECOG_TARGET	n/a	LTP237	ltpFR	3	5	0	PUMP	1141	1	2	0	n/a	n/a	n/a	n/a	n/a
4624871	RECOG_RESP	n/a	LTP237	ltpFR	3	5	0	PUMP	1141	1	n/a	0	n/a	n/a	n/a	n/a	n/a
4625689	RECOG_CONF	n/a	LTP237	ltpFR	3	5	0	PUMP	1141	n/a	2	0	n/a	n/a	n/a	n/a	n/a
4627335	RECOG_TARGET	n/a	LTP237	ltpFR	3	5	1	RIBBON	1189	1	1	0	n/a	n/a	n/a	n/a	n/a
4628042	RECOG_RESP	n/a	LTP237	ltpFR	3	5	1	RIBBON	1189	1	n/a	0	n/a	n/a	n/a	n/a	n/a
4628944	RECOG_CONF	n/a	LTP237	ltpFR	3	5	1	RIBBON	1189	n/a	1	0	n/a	n/a	n/a	n/a	n/a
4630547	RECOG_LURE	n/a	LTP237	ltpFR	3	5	n/a	NEUTRON	947	1	1	n/a	n/a	n/a	n/a	n/a	n/a
4631234	RECOG_RESP	n/a	LTP237	ltpFR	3	5	n/a	NEUTRON	947	1	n/a	n/a	n/a	n/a	n/a	n/a	n/a
4632297	RECOG_CONF	n/a	LTP237	ltpFR	3	5	n/a	NEUTRON	947	n/a	1	n/a	n/a	n/a	n/a	n/a	n/a
4634076	RECOG_TARGET	n/a	LTP237	ltpFR	3	5	0	WILDERNESS	1610	1	1	1	n/a	n/a	n/a	n/a	n/a
4635795	RECOG_RESP	n/a	LTP237	ltpFR	3	5	0	WILDERNESS	1610	1	n/a	1	n/a	n/a	n/a	n/a	n/a
4636827	RECOG_CONF	n/a	LTP237	ltpFR	3	5	0	WILDERNESS	1610	n/a	1	1	n/a	n/a	n/a	n/a	n/a
4638435	RECOG_TARGET	n/a	LTP237	ltpFR	3	5	1	SHORTS	1293	1	5	0	n/a	n/a	n/a	n/a	n/a
4639125	RECOG_RESP	n/a	LTP237	ltpFR	3	5	1	SHORTS	1293	1	n/a	0	n/a	n/a	n/a	n/a	n/a
4639925	RECOG_CONF	n/a	LTP237	ltpFR	3	5	1	SHORTS	1293	n/a	5	0	n/a	n/a	n/a	n/a	n/a
4641731	RECOG_TARGET	n/a	LTP237	ltpFR	3	5	0	FATHER	554	1	5	1	n/a	n/a	n/a	n/a	n/a
4642336	RECOG_RESP	n/a	LTP237	ltpFR	3	5	0	FATHER	554	1	n/a	1	n/a	n/a	n/a	n/a	n/a
4643053	RECOG_CONF	n/a	LTP237	ltpFR	3	5	0	FATHER	554	n/a	5	1	n/a	n/a	n/a	n/a	n/a
4644592	RECOG_TARGET	n/a	LTP237	ltpFR	3	5	0	BLUEPRINT	142	1	4	1	n/a	n/a	n/a	n/a	n/a
4645374	RECOG_RESP	n/a	LTP237	ltpFR	3	5	0	BLUEPRINT	142	1	n/a	1	n/a	n/a	n/a	n/a	n/a
4646216	RECOG_CONF	n/a	LTP237	ltpFR	3	5	0	BLUEPRINT	142	n/a	4	1	n/a	n/a	n/a	n/a	n/a
4648005	RECOG_TARGET	n/a	LTP237	ltpFR	3	5	0	CONDUCTOR	362	1	5	1	n/a	n/a	n/a	n/a	n/a
4648634	RECOG_RESP	n/a	LTP237	ltpFR	3	5	0	CONDUCTOR	362	1	n/a	1	n/a	n/a	n/a	n/a	n/a
4649518	RECOG_CONF	n/a	LTP237	ltpFR	3	5	0	CONDUCTOR	362	n/a	5	1	n/a	n/a	n/a	n/a	n/a
4651117	RECOG_TARGET	n/a	LTP237	ltpFR	3	5	1	CLIMBER	323	1	5	1	n/a	n/a	n/a	n/a	n/a
4651796	RECOG_RESP	n/a	LTP237	ltpFR	3	5	1	CLIMBER	323	1	n/a	1	n/a	n/a	n/a	n/a	n/a
4652599	RECOG_CONF	n/a	LTP237	ltpFR	3	5	1	CLIMBER	323	n/a	5	1	n/a	n/a	n/a	n/a	n/a
4654494	RECOG_TARGET	n/a	LTP237	ltpFR	3	5	0	FLASHLIGHT	575	1	3	0	n/a	n/a	n/a	n/a	n/a
4655229	RECOG_RESP	n/a	LTP237	ltpFR	3	5	0	FLASHLIGHT	575	1	n/a	0	n/a	n/a	n/a	n/a	n/a
4656287	RECOG_CONF	n/a	LTP237	ltpFR	3	5	0	FLASHLIGHT	575	n/a	3	0	n/a	n/a	n/a	n/a	n/a
4658057	RECOG_TARGET	n/a	LTP237	ltpFR	3	5	1	HONEY	713	1	4	0	n/a	n/a	n/a	n/a	n/a
4658697	RECOG_RESP	n/a	LTP237	ltpFR	3	5	1	HONEY	713	1	n/a	0	n/a	n/a	n/a	n/a	n/a
4659621	RECOG_CONF	n/a	LTP237	ltpFR	3	5	1	HONEY	713	n/a	4	0	n/a	n/a	n/a	n/a	n/a
4661285	RECOG_TARGET	n/a	LTP237	ltpFR	3	5	1	UMPIRE	1535	1	5	0	n/a	n/a	n/a	n/a	n/a
4662261	RECOG_RESP	n/a	LTP237	ltpFR	3	5	1	UMPIRE	1535	1	n/a	0	n/a	n/a	n/a	n/a	n/a
4663157	RECOG_CONF	n/a	LTP237	ltpFR	3	5	1	UMPIRE	1535	n/a	5	0	n/a	n/a	n/a	n/a	n/a
4664813	RECOG_TARGET	n/a	LTP237	ltpFR	3	5	-1	SKATE	1313	1	5	-1	n/a	n/a	n/a	n/a	n/a
4665489	RECOG_RESP	n/a	LTP237	ltpFR	3	5	-1	SKATE	1313	1	n/a	-1	n/a	n/a	n/a	n/a	n/a
4666218	RECOG_CONF	n/a	LTP237	ltpFR	3	5	-1	SKATE	1313	n/a	5	-1	n/a	n/a	n/a	n/a	n/a
4668175	RECOG_TARGET	n/a	LTP237	ltpFR	3	5	0	CATTLE	261	0	2	1	n/a	n/a	n/a	n/a	n/a
4669073	RECOG_RESP	n/a	LTP237	ltpFR	3	5	0	CATTLE	261	0	n/a	1	n/a	n/a	n/a	n/a	n/a
4670042	RECOG_CONF	n/a	LTP237	ltpFR	3	5	0	CATTLE	261	n/a	2	1	n/a	n/a	n/a	n/a	n/a
4671686	RECOG_TARGET	n/a	LTP237	ltpFR	3	5	0	HANDBAG	684	0	1	1	n/a	n/a	n/a	n/a	n/a
4673742	RECOG_RESP	n/a	LTP237	ltpFR	3	5	0	HANDBAG	684	0	n/a	1	n/a	n/a	n/a	n/a	n/a
4674541	RECOG_CONF	n/a	LTP237	ltpFR	3	5	0	HANDBAG	684	n/a	1	1	n/a	n/a	n/a	n/a	n/a
4676296	RECOG_TARGET	n/a	LTP237	ltpFR	3	5	-1	BEETLE	116	0	3	-1	n/a	n/a	n/a	n/a	n/a
4677671	RECOG_RESP	n/a	LTP237	ltpFR	3	5	-1	BEETLE	116	0	n/a	-1	n/a	n/a	n/a	n/a	n/a
4678837	RECOG_CONF	n/a	LTP237	ltpFR	3	5	-1	BEETLE	116	n/a	3	-1	n/a	n/a	n/a	n/a	n/a
4680656	RECOG_TARGET	n/a	LTP237	ltpFR	3	5	1	VEAL	1551	1	4	0	n/a	n/a	n/a	n/a	n/a
4681341	RECOG_RESP	n/a	LTP237	ltpFR	3	5	1	VEAL	1551	1	n/a	0	n/a	n/a	n/a	n/a	n/a
4682233	RECOG_CONF	n/a	LTP237	ltpFR	3	5	1	VEAL	1551	n/a	4	0	n/a	n/a	n/a	n/a	n/a
4694904	REC_START	n/a	LTP237	ltpFR	3	6	n/a	n/a	n/a	n/a	n/a	n/a	n/a	n/a	n/a	n/a	n/a
4694935	RECOG_TARGET	n/a	LTP237	ltpFR	3	6	-1	BOOK	149	1	5	-1	n/a	n/a	n/a	n/a	n/a
4695676	RECOG_RESP	n/a	LTP237	ltpFR	3	6	-1	BOOK	149	1	n/a	-1	n/a	n/a	n/a	n/a	n/a
4696385	RECOG_CONF	n/a	LTP237	ltpFR	3	6	-1	BOOK	149	n/a	5	-1	n/a	n/a	n/a	n/a	n/a
4698097	RECOG_TARGET	n/a	LTP237	ltpFR	3	6	1	CINNAMON	310	0	3	0	n/a	n/a	n/a	n/a	n/a
4698885	RECOG_RESP	n/a	LTP237	ltpFR	3	6	1	CINNAMON	310	0	n/a	0	n/a	n/a	n/a	n/a	n/a
4699593	RECOG_CONF	n/a	LTP237	ltpFR	3	6	1	CINNAMON	310	n/a	3	0	n/a	n/a	n/a	n/a	n/a
4701292	RECOG_TARGET	n/a	LTP237	ltpFR	3	6	0	NEPHEW	942	0	2	1	n/a	n/a	n/a	n/a	n/a
4702158	RECOG_RESP	n/a	LTP237	ltpFR	3	6	0	NEPHEW	942	0	n/a	1	n/a	n/a	n/a	n/a	n/a
4702899	RECOG_CONF	n/a	LTP237	ltpFR	3	6	0	NEPHEW	942	n/a	2	1	n/a	n/a	n/a	n/a	n/a
4704586	RECOG_TARGET	n/a	LTP237	ltpFR	3	6	1	COOKBOOK	373	1	1	0	n/a	n/a	n/a	n/a	n/a
4705587	RECOG_RESP	n/a	LTP237	ltpFR	3	6	1	COOKBOOK	373	1	n/a	0	n/a	n/a	n/a	n/a	n/a
4706304	RECOG_CONF	n/a	LTP237	ltpFR	3	6	1	COOKBOOK	373	n/a	1	0	n/a	n/a	n/a	n/a	n/a
4708032	RECOG_TARGET	n/a	LTP237	ltpFR	3	6	-1	PISTON	1076	1	3	-1	n/a	n/a	n/a	n/a	n/a
4709080	RECOG_RESP	n/a	LTP237	ltpFR	3	6	-1	PISTON	1076	1	n/a	-1	n/a	n/a	n/a	n/a	n/a
4709953	RECOG_CONF	n/a	LTP237	ltpFR	3	6	-1	PISTON	1076	n/a	3	-1	n/a	n/a	n/a	n/a	n/a
4711592	RECOG_TARGET	n/a	LTP237	ltpFR	3	6	-1	NOTE	958	1	5	-1	n/a	n/a	n/a	n/a	n/a
4712862	RECOG_RESP	n/a	LTP237	ltpFR	3	6	-1	NOTE	958	1	n/a	-1	n/a	n/a	n/a	n/a	n/a
4713606	RECOG_CONF	n/a	LTP237	ltpFR	3	6	-1	NOTE	958	n/a	5	-1	n/a	n/a	n/a	n/a	n/a
4715503	RECOG_TARGET	n/a	LTP237	ltpFR	3	6	1	CHISEL	305	1	2	0	n/a	n/a	n/a	n/a	n/a
4716759	RECOG_RESP	n/a	LTP237	ltpFR	3	6	1	CHISEL	305	1	n/a	0	n/a	n/a	n/a	n/a	n/a
4717523	RECOG_CONF	n/a	LTP237	ltpFR	3	6	1	CHISEL	305	n/a	2	0	n/a	n/a	n/a	n/a	n/a
4719232	RECOG_TARGET	n/a	LTP237	ltpFR	3	6	1	PITCHFORK	1078	1	4	1	n/a	n/a	n/a	n/a	n/a
4719846	RECOG_RESP	n/a	LTP237	ltpFR	3	6	1	PITCHFORK	1078	1	n/a	1	n/a	n/a	n/a	n/a	n/a
4720600	RECOG_CONF	n/a	LTP237	ltpFR	3	6	1	PITCHFORK	1078	n/a	4	1	n/a	n/a	n/a	n/a	n/a
4722277	RECOG_TARGET	n/a	LTP237	ltpFR	3	6	-1	CAFETERIA	217	1	5	-1	n/a	n/a	n/a	n/a	n/a
4722954	RECOG_RESP	n/a	LTP237	ltpFR	3	6	-1	CAFETERIA	217	1	n/a	-1	n/a	n/a	n/a	n/a	n/a
4723703	RECOG_CONF	n/a	LTP237	ltpFR	3	6	-1	CAFETERIA	217	n/a	5	-1	n/a	n/a	n/a	n/a	n/a
4725472	RECOG_TARGET	n/a	LTP237	ltpFR	3	6	0	BAIT	70	1	2	0	n/a	n/a	n/a	n/a	n/a
4726222	RECOG_RESP	n/a	LTP237	ltpFR	3	6	0	BAIT	70	1	n/a	0	n/a	n/a	n/a	n/a	n/a
4727091	RECOG_CONF	n/a	LTP237	ltpFR	3	6	0	BAIT	70	n/a	2	0	n/a	n/a	n/a	n/a	n/a
4728801	RECOG_TARGET	n/a	LTP237	ltpFR	3	6	-1	BIBLE	124	1	4	-1	n/a	n/a	n/a	n/a	n/a
4729703	RECOG_RESP	n/a	LTP237	ltpFR	3	6	-1	BIBLE	124	1	n/a	-1	n/a	n/a	n/a	n/a	n/a
4730976	RECOG_CONF	n/a	LTP237	ltpFR	3	6	-1	BIBLE	124	n/a	4	-1	n/a	n/a	n/a	n/a	n/a
4732828	RECOG_TARGET	n/a	LTP237	ltpFR	3	6	0	TART	1436	1	1	0	n/a	n/a	n/a	n/a	n/a
4733614	RECOG_RESP	n/a	LTP237	ltpFR	3	6	0	TART	1436	1	n/a	0	n/a	n/a	n/a	n/a	n/a
4734553	RECOG_CONF	n/a	LTP237	ltpFR	3	6	0	TART	1436	n/a	1	0	n/a	n/a	n/a	n/a	n/a
4736173	RECOG_TARGET	n/a	LTP237	ltpFR	3	6	-1	ATHLETE	52	1	5	-1	n/a	n/a	n/a	n/a	n/a
4736755	RECOG_RESP	n/a	LTP237	ltpFR	3	6	-1	ATHLETE	52	1	n/a	-1	n/a	n/a	n/a	n/a	n/a
4737612	RECOG_CONF	n/a	LTP237	ltpFR	3	6	-1	ATHLETE	52	n/a	5	-1	n/a	n/a	n/a	n/a	n/a
4739202	RECOG_TARGET	n/a	LTP237	ltpFR	3	6	-1	HANDKERCHIEF	686	1	5	-1	n/a	n/a	n/a	n/a	n/a
4740030	RECOG_RESP	n/a	LTP237	ltpFR	3	6	-1	HANDKERCHIEF	686	1	n/a	-1	n/a	n/a	n/a	n/a	n/a
4740934	RECOG_CONF	n/a	LTP237	ltpFR	3	6	-1	HANDKERCHIEF	686	n/a	5	-1	n/a	n/a	n/a	n/a	n/a
4742479	RECOG_TARGET	n/a	LTP237	ltpFR	3	6	-1	CORN	381	1	4	-1	n/a	n/a	n/a	n/a	n/a
4743561	RECOG_RESP	n/a	LTP237	ltpFR	3	6	-1	CORN	381	1	n/a	-1	n/a	n/a	n/a	n/a	n/a
4744705	RECOG_CONF	n/a	LTP237	ltpFR	3	6	-1	CORN	381	n/a	4	-1	n/a	n/a	n/a	n/a	n/a
4746490	RECOG_TARGET	n/a	LTP237	ltpFR	3	6	0	FIST	572	1	5	1	n/a	n/a	n/a	n/a	n/a
4747145	RECOG_RESP	n/a	LTP237	ltpFR	3	6	0	FIST	572	1	n/a	1	n/a	n/a	n/a	n/a	n/a
4747898	RECOG_CONF	n/a	LTP237	ltpFR	3	6	0	FIST	572	n/a	5	1	n/a	n/a	n/a	n/a	n/a
4749336	RECOG_TARGET	n/a	LTP237	ltpFR	3	6	-1	POPE	1105	1	1	-1	n/a	n/a	n/a	n/a	n/a
4749835	RECOG_RESP	n/a	LTP237	ltpFR	3	6	-1	POPE	1105	1	n/a	-1	n/a	n/a	n/a	n/a	n/a
4750602	RECOG_CONF	n/a	LTP237	ltpFR	3	6	-1	POPE	1105	n/a	1	-1	n/a	n/a	n/a	n/a	n/a
4752282	RECOG_TARGET	n/a	LTP237	ltpFR	3	6	-1	TAXI	1438	1	3	-1	n/a	n/a	n/a	n/a	n/a
4752921	RECOG_RESP	n/a	LTP237	ltpFR	3	6	-1	TAXI	1438	1	n/a	-1	n/a	n/a	n/a	n/a	n/a
4753663	RECOG_CONF	n/a	LTP237	ltpFR	3	6	-1	TAXI	1438	n/a	3	-1	n/a	n/a	n/a	n/a	n/a
4755295	RECOG_TARGET	n/a	LTP237	ltpFR	3	6	1	RICE	1190	1	5	0	n/a	n/a	n/a	n/a	n/a
4755755	RECOG_RESP	n/a	LTP237	ltpFR	3	6	1	RICE	1190	1	n/a	0	n/a	n/a	n/a	n/a	n/a
4756409	RECOG_CONF	n/a	LTP237	ltpFR	3	6	1	RICE	1190	n/a	5	0	n/a	n/a	n/a	n/a	n/a
4758074	RECOG_TARGET	n/a	LTP237	ltpFR	3	6	0	RULER	1216	1	5	1	n/a	n/a	n/a	n/a	n/a
4758698	RECOG_RESP	n/a	LTP237	ltpFR	3	6	0	RULER	1216	1	n/a	1	n/a	n/a	n/a	n/a	n/a
4759502	RECOG_CONF	n/a	LTP237	ltpFR	3	6	0	RULER	1216	n/a	5	1	n/a	n/a	n/a	n/a	n/a
4765325	REC_START	n/a	LTP237	ltpFR	3	7	n/a	n/a	n/a	n/a	n/a	n/a	n/a	n/a	n/a	n/a	n/a
4765362	RECOG_LURE	n/a	LTP237	ltpFR	3	7	n/a	PACKAGE	997	0	3	n/a	n/a	n/a	n/a	n/a	n/a
4766312	RECOG_RESP	n/a	LTP237	ltpFR	3	7	n/a	PACKAGE	997	0	n/a	n/a	n/a	n/a	n/a	n/a	n/a
4766963	RECOG_CONF	n/a	LTP237	ltpFR	3	7	n/a	PACKAGE	997	n/a	3	n/a	n/a	n/a	n/a	n/a	n/a
4768658	RECOG_TARGET	n/a	LTP237	ltpFR	3	7	0	SKIRT	1319	1	5	0	n/a	n/a	n/a	n/a	n/a
4769253	RECOG_RESP	n/a	LTP237	ltpFR	3	7	0	SKIRT	1319	1	n/a	0	n/a	n/a	n/a	n/a	n/a
4769969	RECOG_CONF	n/a	LTP237	ltpFR	3	7	0	SKIRT	1319	n/a	5	0	n/a	n/a	n/a	n/a	n/a
4771536	RECOG_TARGET	n/a	LTP237	ltpFR	3	7	1	APPLE	33	1	5	0	n/a	n/a	n/a	n/a	n/a
4772087	RECOG_RESP	n/a	LTP237	ltpFR	3	7	1	APPLE	33	1	n/a	0	n/a	n/a	n/a	n/a	n/a
4772833	RECOG_CONF	n/a	LTP237	ltpFR	3	7	1	APPLE	33	n/a	5	0	n/a	n/a	n/a	n/a	n/a
4774682	RECOG_TARGET	n/a	LTP237	ltpFR	3	7	0	STAKE	1368	1	4	0	n/a	n/a	n/a	n/a	n/a
4775695	RECOG_RESP	n/a	LTP237	ltpFR	3	7	0	STAKE	1368	1	n/a	0	n/a	n/a	n/a	n/a	n/a
4776435	RECOG_CONF	n/a	LTP237	ltpFR	3	7	0	STAKE	1368	n/a	4	0	n/a	n/a	n/a	n/a	n/a
4778177	RECOG_LURE	n/a	LTP237	ltpFR	3	7	n/a	FUNGUS	614	0	2	n/a	n/a	n/a	n/a	n/a	n/a
4779147	RECOG_RESP	n/a	LTP237	ltpFR	3	7	n/a	FUNGUS	614	0	n/a	n/a	n/a	n/a	n/a	n/a	n/a
4780008	RECOG_CONF	n/a	LTP237	ltpFR	3	7	n/a	FUNGUS	614	n/a	2	n/a	n/a	n/a	n/a	n/a	n/a
4781688	RECOG_LURE	n/a	LTP237	ltpFR	3	7	n/a	DELINQUENT	445	0	4	n/a	n/a	n/a	n/a	n/a	n/a
4782454	RECOG_RESP	n/a	LTP237	ltpFR	3	7	n/a	DELINQUENT	445	0	n/a	n/a	n/a	n/a	n/a	n/a	n/a
4783091	RECOG_CONF	n/a	LTP237	ltpFR	3	7	n/a	DELINQUENT	445	n/a	4	n/a	n/a	n/a	n/a	n/a	n/a
4784851	RECOG_TARGET	n/a	LTP237	ltpFR	3	7	1	FOLDER	588	1	4	0	n/a	n/a	n/a	n/a	n/a
4785596	RECOG_RESP	n/a	LTP237	ltpFR	3	7	1	FOLDER	588	1	n/a	0	n/a	n/a	n/a	n/a	n/a
4786432	RECOG_CONF	n/a	LTP237	ltpFR	3	7	1	FOLDER	588	n/a	4	0	n/a	n/a	n/a	n/a	n/a
4788012	RECOG_TARGET	n/a	LTP237	ltpFR	3	7	1	TREE	1502	1	5	1	n/a	n/a	n/a	n/a	n/a
4788678	RECOG_RESP	n/a	LTP237	ltpFR	3	7	1	TREE	1502	1	n/a	1	n/a	n/a	n/a	n/a	n/a
4789494	RECOG_CONF	n/a	LTP237	ltpFR	3	7	1	TREE	1502	n/a	5	1	n/a	n/a	n/a	n/a	n/a
4791473	RECOG_TARGET	n/a	LTP237	ltpFR	3	7	-1	SUBWAY	1400	1	5	-1	n/a	n/a	n/a	n/a	n/a
4792041	RECOG_RESP	n/a	LTP237	ltpFR	3	7	-1	SUBWAY	1400	1	n/a	-1	n/a	n/a	n/a	n/a	n/a
4792857	RECOG_CONF	n/a	LTP237	ltpFR	3	7	-1	SUBWAY	1400	n/a	5	-1	n/a	n/a	n/a	n/a	n/a
4794502	RECOG_TARGET	n/a	LTP237	ltpFR	3	7	0	SQUID	1361	1	4	1	n/a	n/a	n/a	n/a	n/a
4795065	RECOG_RESP	n/a	LTP237	ltpFR	3	7	0	SQUID	1361	1	n/a	1	n/a	n/a	n/a	n/a	n/a
4795821	RECOG_CONF	n/a	LTP237	ltpFR	3	7	0	SQUID	1361	n/a	4	1	n/a	n/a	n/a	n/a	n/a
4797514	RECOG_TARGET	n/a	LTP237	ltpFR	3	7	0	VINEGAR	1569	1	3	0	n/a	n/a	n/a	n/a	n/a
4798147	RECOG_RESP	n/a	LTP237	ltpFR	3	7	0	VINEGAR	1569	1	n/a	0	n/a	n/a	n/a	n/a	n/a
4798961	RECOG_CONF	n/a	LTP237	ltpFR	3	7	0	VINEGAR	1569	n/a	3	0	n/a	n/a	n/a	n/a	n/a
4800526	RECOG_TARGET	n/a	LTP237	ltpFR	3	7	0	HIGHWAY	707	1	5	1	n/a	n/a	n/a	n/a	n/a
4801058	RECOG_RESP	n/a	LTP237	ltpFR	3	7	0	HIGHWAY	707	1	n/a	1	n/a	n/a	n/a	n/a	n/a
4801847	RECOG_CONF	n/a	LTP237	ltpFR	3	7	0	HIGHWAY	707	n/a	5	1	n/a	n/a	n/a	n/a	n/a
4803538	RECOG_TARGET	n/a	LTP237	ltpFR	3	7	0	THIGH	1457	1	5	0	n/a	n/a	n/a	n/a	n/a
4804081	RECOG_RESP	n/a	LTP237	ltpFR	3	7	0	THIGH	1457	1	n/a	0	n/a	n/a	n/a	n/a	n/a
4804990	RECOG_CONF	n/a	LTP237	ltpFR	3	7	0	THIGH	1457	n/a	5	0	n/a	n/a	n/a	n/a	n/a
4806701	RECOG_TARGET	n/a	LTP237	ltpFR	3	7	0	RATTLE	1170	0	2	0	n/a	n/a	n/a	n/a	n/a
4807443	RECOG_RESP	n/a	LTP237	ltpFR	3	7	0	RATTLE	1170	0	n/a	0	n/a	n/a	n/a	n/a	n/a
4808267	RECOG_CONF	n/a	LTP237	ltpFR	3	7	0	RATTLE	1170	n/a	2	0	n/a	n/a	n/a	n/a	n/a
4809846	RECOG_TARGET	n/a	LTP237	ltpFR	3	7	0	DEPUTY	450	0	1	1	n/a	n/a	n/a	n/a	n/a
4810660	RECOG_RESP	n/a	LTP237	ltpFR	3	7	0	DEPUTY	450	0	n/a	1	n/a	n/a	n/a	n/a	n/a
4811445	RECOG_CONF	n/a	LTP237	ltpFR	3	7	0	DEPUTY	450	n/a	1	1	n/a	n/a	n/a	n/a	n/a
4813125	RECOG_TARGET	n/a	LTP237	ltpFR	3	7	0	RELISH	1183	1	4	0	n/a	n/a	n/a	n/a	n/a
4813787	RECOG_RESP	n/a	LTP237	ltpFR	3	7	0	RELISH	1183	1	n/a	0	n/a	n/a	n/a	n/a	n/a
4814588	RECOG_CONF	n/a	LTP237	ltpFR	3	7	0	RELISH	1183	n/a	4	0	n/a	n/a	n/a	n/a	n/a
4816120	RECOG_TARGET	n/a	LTP237	ltpFR	3	7	-1	SHACK	1273	1	2	-1	n/a	n/a	n/a	n/a	n/a
4816721	RECOG_RESP	n/a	LTP237	ltpFR	3	7	-1	SHACK	1273	1	n/a	-1	n/a	n/a	n/a	n/a	n/a
4817696	RECOG_CONF	n/a	LTP237	ltpFR	3	7	-1	SHACK	1273	n/a	2	-1	n/a	n/a	n/a	n/a	n/a
4819348	RECOG_TARGET	n/a	LTP237	ltpFR	3	7	-1	ERASER	538	1	1	-1	n/a	n/a	n/a	n/a	n/a
4820318	RECOG_RESP	n/a	LTP237	ltpFR	3	7	-1	ERASER	538	1	n/a	-1	n/a	n/a	n/a	n/a	n/a
4821163	RECOG_CONF	n/a	LTP237	ltpFR	3	7	-1	ERASER	538	n/a	1	-1	n/a	n/a	n/a	n/a	n/a
4822894	RECOG_TARGET	n/a	LTP237	ltpFR	3	7	1	VIDEO	1564	1	4	0	n/a	n/a	n/a	n/a	n/a
4823463	RECOG_RESP	n/a	LTP237	ltpFR	3	7	1	VIDEO	1564	1	n/a	0	n/a	n/a	n/a	n/a	n/a
4824241	RECOG_CONF	n/a	LTP237	ltpFR	3	7	1	VIDEO	1564	n/a	4	0	n/a	n/a	n/a	n/a	n/a
4826106	RECOG_LURE	n/a	LTP237	ltpFR	3	7	n/a	BEE	112	1	2	n/a	n/a	n/a	n/a	n/a	n/a
4826764	RECOG_RESP	n/a	LTP237	ltpFR	3	7	n/a	BEE	112	1	n/a	n/a	n/a	n/a	n/a	n/a	n/a
4827718	RECOG_CONF	n/a	LTP237	ltpFR	3	7	n/a	BEE	112	n/a	2	n/a	n/a	n/a	n/a	n/a	n/a
4834428	REC_START	n/a	LTP237	ltpFR	3	8	n/a	n/a	n/a	n/a	n/a	n/a	n/a	n/a	n/a	n/a	n/a
4834459	RECOG_LURE	n/a	LTP237	ltpFR	3	8	n/a	PALM	1007	0	1	n/a	n/a	n/a	n/a	n/a	n/a
4835400	RECOG_RESP	n/a	LTP237	ltpFR	3	8	n/a	PALM	1007	0	n/a	n/a	n/a	n/a	n/a	n/a	n/a
4836203	RECOG_CONF	n/a	LTP237	ltpFR	3	8	n/a	PALM	1007	n/a	1	n/a	n/a	n/a	n/a	n/a	n/a
4837954	RECOG_TARGET	n/a	LTP237	ltpFR	3	8	0	NIGHTGOWN	953	0	4	0	n/a	n/a	n/a	n/a	n/a
4838960	RECOG_RESP	n/a	LTP237	ltpFR	3	8	0	NIGHTGOWN	953	0	n/a	0	n/a	n/a	n/a	n/a	n/a
4839741	RECOG_CONF	n/a	LTP237	ltpFR	3	8	0	NIGHTGOWN	953	n/a	4	0	n/a	n/a	n/a	n/a	n/a
4841299	RECOG_TARGET	n/a	LTP237	ltpFR	3	8	0	RING	1193	1	5	0	n/a	n/a	n/a	n/a	n/a
4841976	RECOG_RESP	n/a	LTP237	ltpFR	3	8	0	RING	1193	1	n/a	0	n/a	n/a	n/a	n/a	n/a
4842730	RECOG_CONF	n/a	LTP237	ltpFR	3	8	0	RING	1193	n/a	5	0	n/a	n/a	n/a	n/a	n/a
4844494	RECOG_TARGET	n/a	LTP237	ltpFR	3	8	0	MUSEUM	933	1	5	1	n/a	n/a	n/a	n/a	n/a
4845069	RECOG_RESP	n/a	LTP237	ltpFR	3	8	0	MUSEUM	933	1	n/a	1	n/a	n/a	n/a	n/a	n/a
4845887	RECOG_CONF	n/a	LTP237	ltpFR	3	8	0	MUSEUM	933	n/a	5	1	n/a	n/a	n/a	n/a	n/a
4847673	RECOG_TARGET	n/a	LTP237	ltpFR	3	8	1	VEGETABLE	1552	1	4	1	n/a	n/a	n/a	n/a	n/a
4848105	RECOG_RESP	n/a	LTP237	ltpFR	3	8	1	VEGETABLE	1552	1	n/a	1	n/a	n/a	n/a	n/a	n/a
4848920	RECOG_CONF	n/a	LTP237	ltpFR	3	8	1	VEGETABLE	1552	n/a	4	1	n/a	n/a	n/a	n/a	n/a
4850585	RECOG_LURE	n/a	LTP237	ltpFR	3	8	n/a	PAD	998	1	5	n/a	n/a	n/a	n/a	n/a	n/a
4851211	RECOG_RESP	n/a	LTP237	ltpFR	3	8	n/a	PAD	998	1	n/a	n/a	n/a	n/a	n/a	n/a	n/a
4851993	RECOG_CONF	n/a	LTP237	ltpFR	3	8	n/a	PAD	998	n/a	5	n/a	n/a	n/a	n/a	n/a	n/a
4853731	RECOG_TARGET	n/a	LTP237	ltpFR	3	8	0	PIGEON	1065	1	5	0	n/a	n/a	n/a	n/a	n/a
4854269	RECOG_RESP	n/a	LTP237	ltpFR	3	8	0	PIGEON	1065	1	n/a	0	n/a	n/a	n/a	n/a	n/a
4854966	RECOG_CONF	n/a	LTP237	ltpFR	3	8	0	PIGEON	1065	n/a	5	0	n/a	n/a	n/a	n/a	n/a
4856860	RECOG_TARGET	n/a	LTP237	ltpFR	3	8	0	FLANNEL	574	1	4	0	n/a	n/a	n/a	n/a	n/a
4857449	RECOG_RESP	n/a	LTP237	ltpFR	3	8	0	FLANNEL	574	1	n/a	0	n/a	n/a	n/a	n/a	n/a
