mstime	trial_type	stim_file	subject	experiment	session	trial	item_name	item_num	list	answer	test_x	test_y	test_z
0	SESS_START	n/a	LTP374	ltpFR2	14	n/a	n/a	n/a	n/a	n/a	0	0	0
13931	START	n/a	LTP374	ltpFR2	14	n/a	n/a	n/a	-1	n/a	n/a	n/a	n/a
13945	PROB	n/a	LTP374	ltpFR2	14	n/a	n/a	n/a	-1	12	3	6	3
14998	PROB	n/a	LTP374	ltpFR2	14	n/a	n/a	n/a	-1	12	3	6	3
15651	PROB	n/a	LTP374	ltpFR2	14	n/a	n/a	n/a	-1	9	4	2	3
17072	PROB	n/a	LTP374	ltpFR2	14	n/a	n/a	n/a	-1	10	3	2	5
17941	PROB	n/a	LTP374	ltpFR2	14	n/a	n/a	n/a	-1	17	4	5	8
19981	PROB	n/a	LTP374	ltpFR2	14	n/a	n/a	n/a	-1	13	4	5	4
21035	PROB	n/a	LTP374	ltpFR2	14	n/a	n/a	n/a	-1	14	9	3	2
22155	PROB	n/a	LTP374	ltpFR2	14	n/a	n/a	n/a	-1	10	3	5	2
23158	PROB	n/a	LTP374	ltpFR2	14	n/a	n/a	n/a	-1	10	3	4	3
24128	PROB	n/a	LTP374	ltpFR2	14	n/a	n/a	n/a	-1	17	8	4	5
25054	STOP	n/a	LTP374	ltpFR2	14	n/a	n/a	n/a	-1	n/a	n/a	n/a	n/a
54159	WORD	wordpools/wasnorm_wordpool_576.txt	LTP374	ltpFR2	14	1	BACON	67	n/a	n/a	0	0	0
56717	WORD	wordpools/wasnorm_wordpool_576.txt	LTP374	ltpFR2	14	1	WINDOW	1611	n/a	n/a	0	0	0
59258	WORD	wordpools/wasnorm_wordpool_576.txt	LTP374	ltpFR2	14	1	AGENT	10	n/a	n/a	0	0	0
61900	WORD	wordpools/wasnorm_wordpool_576.txt	LTP374	ltpFR2	14	1	ASIA	46	n/a	n/a	0	0	0
64593	WORD	wordpools/wasnorm_wordpool_576.txt	LTP374	ltpFR2	14	1	LONDON	843	n/a	n/a	0	0	0
67151	WORD	wordpools/wasnorm_wordpool_576.txt	LTP374	ltpFR2	14	1	REBEL	1172	n/a	n/a	0	0	0
69676	WORD	wordpools/wasnorm_wordpool_576.txt	LTP374	ltpFR2	14	1	HATCHET	691	n/a	n/a	0	0	0
72167	WORD	wordpools/wasnorm_wordpool_576.txt	LTP374	ltpFR2	14	1	WIFE	1609	n/a	n/a	0	0	0
74643	WORD	wordpools/wasnorm_wordpool_576.txt	LTP374	ltpFR2	14	1	SPOUSE	1358	n/a	n/a	0	0	0
77166	WORD	wordpools/wasnorm_wordpool_576.txt	LTP374	ltpFR2	14	1	BARREL	91	n/a	n/a	0	0	0
79592	WORD	wordpools/wasnorm_wordpool_576.txt	LTP374	ltpFR2	14	1	VAGRANT	1544	n/a	n/a	0	0	0
82351	WORD	wordpools/wasnorm_wordpool_576.txt	LTP374	ltpFR2	14	1	COUCH	386	n/a	n/a	0	0	0
84825	WORD	wordpools/wasnorm_wordpool_576.txt	LTP374	ltpFR2	14	1	CONTRACT	368	n/a	n/a	0	0	0
87401	WORD	wordpools/wasnorm_wordpool_576.txt	LTP374	ltpFR2	14	1	CURTAIN	427	n/a	n/a	0	0	0
90192	WORD	wordpools/wasnorm_wordpool_576.txt	LTP374	ltpFR2	14	1	CAMEL	223	n/a	n/a	0	0	0
92784	WORD	wordpools/wasnorm_wordpool_576.txt	LTP374	ltpFR2	14	1	CIGAR	308	n/a	n/a	0	0	0
95594	WORD	wordpools/wasnorm_wordpool_576.txt	LTP374	ltpFR2	14	1	DOUGHNUT	490	n/a	n/a	0	0	0
98218	WORD	wordpools/wasnorm_wordpool_576.txt	LTP374	ltpFR2	14	1	MACHINE	852	n/a	n/a	0	0	0
100743	WORD	wordpools/wasnorm_wordpool_576.txt	LTP374	ltpFR2	14	1	FOOT	590	n/a	n/a	0	0	0
103503	WORD	wordpools/wasnorm_wordpool_576.txt	LTP374	ltpFR2	14	1	PUPIL	1143	n/a	n/a	0	0	0
106060	WORD	wordpools/wasnorm_wordpool_576.txt	LTP374	ltpFR2	14	1	BLADE	134	n/a	n/a	0	0	0
108852	WORD	wordpools/wasnorm_wordpool_576.txt	LTP374	ltpFR2	14	1	LIPSTICK	829	n/a	n/a	0	0	0
111479	WORD	wordpools/wasnorm_wordpool_576.txt	LTP374	ltpFR2	14	1	GIFT	635	n/a	n/a	0	0	0
113952	WORD	wordpools/wasnorm_wordpool_576.txt	LTP374	ltpFR2	14	1	MAILMAN	858	n/a	n/a	0	0	0
115559	START	n/a	LTP374	ltpFR2	14	n/a	n/a	n/a	1	n/a	n/a	n/a	n/a
116534	DISTRACTOR	n/a	LTP374	ltpFR2	14	1	n/a	n/a	n/a	n/a	0	0	0
116545	PROB	n/a	LTP374	ltpFR2	14	n/a	n/a	n/a	1	7	4	1	2
117381	PROB	n/a	LTP374	ltpFR2	14	n/a	n/a	n/a	1	9	1	7	1
118216	PROB	n/a	LTP374	ltpFR2	14	n/a	n/a	n/a	1	10	1	6	3
119203	PROB	n/a	LTP374	ltpFR2	14	n/a	n/a	n/a	1	6	2	1	3
119955	PROB	n/a	LTP374	ltpFR2	14	n/a	n/a	n/a	1	18	2	8	8
121578	PROB	n/a	LTP374	ltpFR2	14	n/a	n/a	n/a	1	16	8	7	1
122397	PROB	n/a	LTP374	ltpFR2	14	n/a	n/a	n/a	1	14	1	4	9
123367	PROB	n/a	LTP374	ltpFR2	14	n/a	n/a	n/a	1	12	2	7	3
124504	PROB	n/a	LTP374	ltpFR2	14	n/a	n/a	n/a	1	10	1	6	3
125440	PROB	n/a	LTP374	ltpFR2	14	n/a	n/a	n/a	1	16	6	2	9
126477	PROB	n/a	LTP374	ltpFR2	14	n/a	n/a	n/a	1	10	6	3	1
127212	PROB	n/a	LTP374	ltpFR2	14	n/a	n/a	n/a	1	16	5	8	3
128148	PROB	n/a	LTP374	ltpFR2	14	n/a	n/a	n/a	1	18	5	8	5
129152	PROB	n/a	LTP374	ltpFR2	14	n/a	n/a	n/a	1	15	3	5	7
130356	PROB	n/a	LTP374	ltpFR2	14	n/a	n/a	n/a	1	15	7	1	7
131225	PROB	n/a	LTP374	ltpFR2	14	n/a	n/a	n/a	1	12	4	1	7
132078	PROB	n/a	LTP374	ltpFR2	14	n/a	n/a	n/a	1	17	5	7	5
133181	PROB	n/a	LTP374	ltpFR2	14	n/a	n/a	n/a	1	14	1	9	4
133984	PROB	n/a	LTP374	ltpFR2	14	n/a	n/a	n/a	1	18	7	7	4
134820	PROB	n/a	LTP374	ltpFR2	14	n/a	n/a	n/a	1	13	8	2	3
135823	PROB	n/a	LTP374	ltpFR2	14	n/a	n/a	n/a	1	8	4	1	3
136610	PROB	n/a	LTP374	ltpFR2	14	n/a	n/a	n/a	1	19	3	7	9
137496	PROB	n/a	LTP374	ltpFR2	14	n/a	n/a	n/a	1	23	9	7	7
138689	STOP	n/a	LTP374	ltpFR2	14	n/a	n/a	n/a	1	n/a	n/a	n/a	n/a
141343	REC_START	n/a	LTP374	ltpFR2	14	1	n/a	n/a	n/a	n/a	0	0	0
143197	REC_WORD	wordpools/wasnorm_wordpool_576.txt	LTP374	ltpFR2	14	1	AGENT	10	n/a	n/a	0	0	0
143728	REC_WORD	wordpools/wasnorm_wordpool_576.txt	LTP374	ltpFR2	14	1	MACHINE	852	n/a	n/a	0	0	0
144451	REC_WORD	wordpools/wasnorm_wordpool_576.txt	LTP374	ltpFR2	14	1	FOOT	590	n/a	n/a	0	0	0
146033	REC_WORD	wordpools/wasnorm_wordpool_576.txt	LTP374	ltpFR2	14	1	BLADE	134	n/a	n/a	0	0	0
146701	REC_WORD	wordpools/wasnorm_wordpool_576.txt	LTP374	ltpFR2	14	1	HATCHET	691	n/a	n/a	0	0	0
147511	REC_WORD	wordpools/wasnorm_wordpool_576.txt	LTP374	ltpFR2	14	1	WINDOW	1611	n/a	n/a	0	0	0
148539	REC_WORD	wordpools/wasnorm_wordpool_576.txt	LTP374	ltpFR2	14	1	CURTAIN	427	n/a	n/a	0	0	0
149478	REC_WORD	wordpools/wasnorm_wordpool_576.txt	LTP374	ltpFR2	14	1	CAMEL	223	n/a	n/a	0	0	0
150232	REC_WORD	wordpools/wasnorm_wordpool_576.txt	LTP374	ltpFR2	14	1	LONDON	843	n/a	n/a	0	0	0
151405	REC_WORD	wordpools/wasnorm_wordpool_576.txt	LTP374	ltpFR2	14	1	ASIA	46	n/a	n/a	0	0	0
152305	REC_WORD	wordpools/wasnorm_wordpool_576.txt	LTP374	ltpFR2	14	1	PUPIL	1143	n/a	n/a	0	0	0
156759	REC_WORD	wordpools/wasnorm_wordpool_576.txt	LTP374	ltpFR2	14	1	WIFE	1609	n/a	n/a	0	0	0
157435	REC_WORD	wordpools/wasnorm_wordpool_576.txt	LTP374	ltpFR2	14	1	SPOUSE	1358	n/a	n/a	0	0	0
159226	REC_WORD	wordpools/wasnorm_wordpool_576.txt	LTP374	ltpFR2	14	1	DOUGHNUT	490	n/a	n/a	0	0	0
159752	REC_WORD	wordpools/wasnorm_wordpool_576.txt	LTP374	ltpFR2	14	1	CIGAR	308	n/a	n/a	0	0	0
161033	REC_WORD	wordpools/wasnorm_wordpool_576.txt	LTP374	ltpFR2	14	1	COUCH	386	n/a	n/a	0	0	0
166624	REC_WORD	wordpools/wasnorm_wordpool_576.txt	LTP374	ltpFR2	14	1	BACON	67	n/a	n/a	0	0	0
167399	REC_WORD	wordpools/wasnorm_wordpool_576.txt	LTP374	ltpFR2	14	1	BARREL	91	n/a	n/a	0	0	0
169943	REC_WORD	wordpools/wasnorm_wordpool_576.txt	LTP374	ltpFR2	14	1	HATCHET	691	n/a	n/a	0	0	0
170732	REC_WORD	wordpools/wasnorm_wordpool_576.txt	LTP374	ltpFR2	14	1	BLADE	134	n/a	n/a	0	0	0
171312	REC_WORD	wordpools/wasnorm_wordpool_576.txt	LTP374	ltpFR2	14	1	WINDOW	1611	n/a	n/a	0	0	0
171971	REC_WORD	wordpools/wasnorm_wordpool_576.txt	LTP374	ltpFR2	14	1	CURTAIN	427	n/a	n/a	0	0	0
191282	REC_WORD	wordpools/wasnorm_wordpool_576.txt	LTP374	ltpFR2	14	1	CONTRACT	368	n/a	n/a	0	0	0
231784	DISTRACTOR	n/a	LTP374	ltpFR2	14	2	n/a	n/a	n/a	n/a	0	0	0
231784	START	n/a	LTP374	ltpFR2	14	n/a	n/a	n/a	2	n/a	n/a	n/a	n/a
231801	PROB	n/a	LTP374	ltpFR2	14	n/a	n/a	n/a	2	11	1	6	4
232604	PROB	n/a	LTP374	ltpFR2	14	n/a	n/a	n/a	2	15	9	4	2
233707	PROB	n/a	LTP374	ltpFR2	14	n/a	n/a	n/a	2	13	4	1	8
234460	PROB	n/a	LTP374	ltpFR2	14	n/a	n/a	n/a	2	20	9	4	7
235797	PROB	n/a	LTP374	ltpFR2	14	n/a	n/a	n/a	2	18	5	4	9
236850	PROB	n/a	LTP374	ltpFR2	14	n/a	n/a	n/a	2	14	6	4	4
237620	PROB	n/a	LTP374	ltpFR2	14	n/a	n/a	n/a	2	21	8	7	6
238624	PROB	n/a	LTP374	ltpFR2	14	n/a	n/a	n/a	2	2	9	9	7
239610	PROB	n/a	LTP374	ltpFR2	14	n/a	n/a	n/a	2	14	6	3	5
240547	PROB	n/a	LTP374	ltpFR2	14	n/a	n/a	n/a	2	16	5	3	8
241333	PROB	n/a	LTP374	ltpFR2	14	n/a	n/a	n/a	2	16	6	9	1
242386	PROB	n/a	LTP374	ltpFR2	14	n/a	n/a	n/a	2	15	3	4	8
243439	PROB	n/a	LTP374	ltpFR2	14	n/a	n/a	n/a	2	19	8	3	8
244392	PROB	n/a	LTP374	ltpFR2	14	n/a	n/a	n/a	2	9	4	2	3
245329	PROB	n/a	LTP374	ltpFR2	14	n/a	n/a	n/a	2	19	3	8	8
246682	PROB	n/a	LTP374	ltpFR2	14	n/a	n/a	n/a	2	17	5	6	6
247702	PROB	n/a	LTP374	ltpFR2	14	n/a	n/a	n/a	2	11	2	7	4
248906	PROB	n/a	LTP374	ltpFR2	14	n/a	n/a	n/a	2	15	3	3	9
249643	PROB	n/a	LTP374	ltpFR2	14	n/a	n/a	n/a	2	15	2	6	7
250479	PROB	n/a	LTP374	ltpFR2	14	n/a	n/a	n/a	2	6	1	4	1
251180	PROB	n/a	LTP374	ltpFR2	14	n/a	n/a	n/a	2	24	9	7	8
252100	PROB	n/a	LTP374	ltpFR2	14	n/a	n/a	n/a	2	13	3	5	5
252919	PROB	n/a	LTP374	ltpFR2	14	n/a	n/a	n/a	2	9	3	2	4
253738	PROB	n/a	LTP374	ltpFR2	14	n/a	n/a	n/a	2	5	3	1	1
254390	STOP	n/a	LTP374	ltpFR2	14	n/a	n/a	n/a	2	n/a	n/a	n/a	n/a
256832	WORD	wordpools/wasnorm_wordpool_576.txt	LTP374	ltpFR2	14	2	SCARF	1246	n/a	n/a	0	0	0
259475	WORD	wordpools/wasnorm_wordpool_576.txt	LTP374	ltpFR2	14	2	SILK	1307	n/a	n/a	0	0	0
262099	WORD	wordpools/wasnorm_wordpool_576.txt	LTP374	ltpFR2	14	2	CRATER	400	n/a	n/a	0	0	0
264574	WORD	wordpools/wasnorm_wordpool_576.txt	LTP374	ltpFR2	14	2	TEACHER	1440	n/a	n/a	0	0	0
267082	WORD	wordpools/wasnorm_wordpool_576.txt	LTP374	ltpFR2	14	2	STUDENT	1395	n/a	n/a	0	0	0
269641	WORD	wordpools/wasnorm_wordpool_576.txt	LTP374	ltpFR2	14	2	PICNIC	1060	n/a	n/a	0	0	0
272131	WORD	wordpools/wasnorm_wordpool_576.txt	LTP374	ltpFR2	14	2	PADDING	999	n/a	n/a	0	0	0
274790	WORD	wordpools/wasnorm_wordpool_576.txt	LTP374	ltpFR2	14	2	EXPERT	543	n/a	n/a	0	0	0
277383	WORD	wordpools/wasnorm_wordpool_576.txt	LTP374	ltpFR2	14	2	HEADBAND	696	n/a	n/a	0	0	0
279856	WORD	wordpools/wasnorm_wordpool_576.txt	LTP374	ltpFR2	14	2	FOREHEAD	592	n/a	n/a	0	0	0
282650	WORD	wordpools/wasnorm_wordpool_576.txt	LTP374	ltpFR2	14	2	GARDEN	623	n/a	n/a	0	0	0
285308	WORD	wordpools/wasnorm_wordpool_576.txt	LTP374	ltpFR2	14	2	IGLOO	734	n/a	n/a	0	0	0
287949	WORD	wordpools/wasnorm_wordpool_576.txt	LTP374	ltpFR2	14	2	MATTRESS	879	n/a	n/a	0	0	0
290626	WORD	wordpools/wasnorm_wordpool_576.txt	LTP374	ltpFR2	14	2	FRAGRANCE	599	n/a	n/a	0	0	0
293250	WORD	wordpools/wasnorm_wordpool_576.txt	LTP374	ltpFR2	14	2	CREVICE	405	n/a	n/a	0	0	0
295741	WORD	wordpools/wasnorm_wordpool_576.txt	LTP374	ltpFR2	14	2	RUG	1215	n/a	n/a	0	0	0
298417	WORD	wordpools/wasnorm_wordpool_576.txt	LTP374	ltpFR2	14	2	SLUG	1329	n/a	n/a	0	0	0
300908	WORD	wordpools/wasnorm_wordpool_576.txt	LTP374	ltpFR2	14	2	DASHBOARD	441	n/a	n/a	0	0	0
303383	WORD	wordpools/wasnorm_wordpool_576.txt	LTP374	ltpFR2	14	2	JAPAN	749	n/a	n/a	0	0	0
305974	WORD	wordpools/wasnorm_wordpool_576.txt	LTP374	ltpFR2	14	2	LOFT	840	n/a	n/a	0	0	0
308634	WORD	wordpools/wasnorm_wordpool_576.txt	LTP374	ltpFR2	14	2	RAZOR	1171	n/a	n/a	0	0	0
311393	WORD	wordpools/wasnorm_wordpool_576.txt	LTP374	ltpFR2	14	2	FINGER	567	n/a	n/a	0	0	0
313933	WORD	wordpools/wasnorm_wordpool_576.txt	LTP374	ltpFR2	14	2	GREASE	660	n/a	n/a	0	0	0
316459	WORD	wordpools/wasnorm_wordpool_576.txt	LTP374	ltpFR2	14	2	BANQUET	86	n/a	n/a	0	0	0
318064	START	n/a	LTP374	ltpFR2	14	n/a	n/a	n/a	3	n/a	n/a	n/a	n/a
319144	DISTRACTOR	n/a	LTP374	ltpFR2	14	2	n/a	n/a	n/a	n/a	0	0	0
319150	PROB	n/a	LTP374	ltpFR2	14	n/a	n/a	n/a	3	11	4	5	2
320053	PROB	n/a	LTP374	ltpFR2	14	n/a	n/a	n/a	3	23	9	5	9
321023	PROB	n/a	LTP374	ltpFR2	14	n/a	n/a	n/a	3	11	5	1	5
321943	PROB	n/a	LTP374	ltpFR2	14	n/a	n/a	n/a	3	18	8	7	3
323365	PROB	n/a	LTP374	ltpFR2	14	n/a	n/a	n/a	3	13	5	4	4
324166	PROB	n/a	LTP374	ltpFR2	14	n/a	n/a	n/a	3	16	8	7	1
324936	PROB	n/a	LTP374	ltpFR2	14	n/a	n/a	n/a	3	19	4	8	7
325805	PROB	n/a	LTP374	ltpFR2	14	n/a	n/a	n/a	3	17	2	7	8
326825	PROB	n/a	LTP374	ltpFR2	14	n/a	n/a	n/a	3	15	6	1	8
328331	PROB	n/a	LTP374	ltpFR2	14	n/a	n/a	n/a	3	13	7	4	2
329368	PROB	n/a	LTP374	ltpFR2	14	n/a	n/a	n/a	3	19	2	8	9
330086	PROB	n/a	LTP374	ltpFR2	14	n/a	n/a	n/a	3	12	8	9	6
331408	PROB	n/a	LTP374	ltpFR2	14	n/a	n/a	n/a	3	13	3	3	7
332628	PROB	n/a	LTP374	ltpFR2	14	n/a	n/a	n/a	3	13	7	3	3
333297	PROB	n/a	LTP374	ltpFR2	14	n/a	n/a	n/a	3	13	9	3	2
334451	PROB	n/a	LTP374	ltpFR2	14	n/a	n/a	n/a	3	16	7	8	1
335287	PROB	n/a	LTP374	ltpFR2	14	n/a	n/a	n/a	3	9	3	4	2
337410	PROB	n/a	LTP374	ltpFR2	14	n/a	n/a	n/a	3	20	6	5	9
338380	PROB	n/a	LTP374	ltpFR2	14	n/a	n/a	n/a	3	19	9	7	3
339165	PROB	n/a	LTP374	ltpFR2	14	n/a	n/a	n/a	3	20	9	3	8
340270	PROB	n/a	LTP374	ltpFR2	14	n/a	n/a	n/a	3	15	3	5	7
340975	STOP	n/a	LTP374	ltpFR2	14	n/a	n/a	n/a	3	n/a	n/a	n/a	n/a
343864	REC_START	n/a	LTP374	ltpFR2	14	2	n/a	n/a	n/a	n/a	0	0	0
346243	REC_WORD	wordpools/wasnorm_wordpool_576.txt	LTP374	ltpFR2	14	2	LOFT	840	n/a	n/a	0	0	0
347088	REC_WORD	wordpools/wasnorm_wordpool_576.txt	LTP374	ltpFR2	14	2	RAZOR	1171	n/a	n/a	0	0	0
347818	REC_WORD	wordpools/wasnorm_wordpool_576.txt	LTP374	ltpFR2	14	2	GREASE	660	n/a	n/a	0	0	0
348565	REC_WORD	wordpools/wasnorm_wordpool_576.txt	LTP374	ltpFR2	14	2	SLUG	1329	n/a	n/a	0	0	0
350219	REC_WORD	wordpools/wasnorm_wordpool_576.txt	LTP374	ltpFR2	14	2	PADDING	999	n/a	n/a	0	0	0
351348	REC_WORD	wordpools/wasnorm_wordpool_576.txt	LTP374	ltpFR2	14	2	GARDEN	623	n/a	n/a	0	0	0
353455	REC_WORD	wordpools/wasnorm_wordpool_576.txt	LTP374	ltpFR2	14	2	RUG	1215	n/a	n/a	0	0	0
354123	REC_WORD	wordpools/wasnorm_wordpool_576.txt	LTP374	ltpFR2	14	2	MATTRESS	879	n/a	n/a	0	0	0
354976	REC_WORD	wordpools/wasnorm_wordpool_576.txt	LTP374	ltpFR2	14	2	CRATER	400	n/a	n/a	0	0	0
355790	REC_WORD	wordpools/wasnorm_wordpool_576.txt	LTP374	ltpFR2	14	2	IGLOO	734	n/a	n/a	0	0	0
356416	REC_WORD	wordpools/wasnorm_wordpool_576.txt	LTP374	ltpFR2	14	2	JAPAN	749	n/a	n/a	0	0	0
357937	REC_WORD	wordpools/wasnorm_wordpool_576.txt	LTP374	ltpFR2	14	2	TEACHER	1440	n/a	n/a	0	0	0
361294	REC_WORD_VV	wordpools/wasnorm_wordpool_576.txt	LTP374	ltpFR2	14	2	<>	-1	n/a	n/a	0	0	0
366741	REC_WORD	wordpools/wasnorm_wordpool_576.txt	LTP374	ltpFR2	14	2	SILK	1307	n/a	n/a	0	0	0
367575	REC_WORD	wordpools/wasnorm_wordpool_576.txt	LTP374	ltpFR2	14	2	SCARF	1246	n/a	n/a	0	0	0
369880	REC_WORD	wordpools/wasnorm_wordpool_576.txt	LTP374	ltpFR2	14	2	STUDENT	1395	n/a	n/a	0	0	0
372481	REC_WORD	wordpools/wasnorm_wordpool_576.txt	LTP374	ltpFR2	14	2	HEADBAND	696	n/a	n/a	0	0	0
373082	REC_WORD	wordpools/wasnorm_wordpool_576.txt	LTP374	ltpFR2	14	2	FOREHEAD	592	n/a	n/a	0	0	0
377765	REC_WORD	wordpools/wasnorm_wordpool_576.txt	LTP374	ltpFR2	14	2	DASHBOARD	441	n/a	n/a	0	0	0
385112	REC_WORD	wordpools/wasnorm_wordpool_576.txt	LTP374	ltpFR2	14	2	FINGER	567	n/a	n/a	0	0	0
434324	WORD	wordpools/wasnorm_wordpool_576.txt	LTP374	ltpFR2	14	3	CONVICT	371	n/a	n/a	0	0	0
437082	WORD	wordpools/wasnorm_wordpool_576.txt	LTP374	ltpFR2	14	3	PICTURE	1061	n/a	n/a	0	0	0
439691	WORD	wordpools/wasnorm_wordpool_576.txt	LTP374	ltpFR2	14	3	RECORD	1176	n/a	n/a	0	0	0
442232	WORD	wordpools/wasnorm_wordpool_576.txt	LTP374	ltpFR2	14	3	HUSBAND	728	n/a	n/a	0	0	0
444658	WORD	wordpools/wasnorm_wordpool_576.txt	LTP374	ltpFR2	14	3	RACKET	1155	n/a	n/a	0	0	0
447198	WORD	wordpools/wasnorm_wordpool_576.txt	LTP374	ltpFR2	14	3	COCOON	339	n/a	n/a	0	0	0
449974	WORD	wordpools/wasnorm_wordpool_576.txt	LTP374	ltpFR2	14	3	PEBBLE	1035	n/a	n/a	0	0	0
452399	WORD	wordpools/wasnorm_wordpool_576.txt	LTP374	ltpFR2	14	3	TURTLE	1522	n/a	n/a	0	0	0
454840	WORD	wordpools/wasnorm_wordpool_576.txt	LTP374	ltpFR2	14	3	PALACE	1006	n/a	n/a	0	0	0
457499	WORD	wordpools/wasnorm_wordpool_576.txt	LTP374	ltpFR2	14	3	MOP	916	n/a	n/a	0	0	0
460224	WORD	wordpools/wasnorm_wordpool_576.txt	LTP374	ltpFR2	14	3	THIEF	1456	n/a	n/a	0	0	0
462832	WORD	wordpools/wasnorm_wordpool_576.txt	LTP374	ltpFR2	14	3	SLIME	1327	n/a	n/a	0	0	0
465325	WORD	wordpools/wasnorm_wordpool_576.txt	LTP374	ltpFR2	14	3	STICKER	1382	n/a	n/a	0	0	0
467999	WORD	wordpools/wasnorm_wordpool_576.txt	LTP374	ltpFR2	14	3	SNAIL	1332	n/a	n/a	0	0	0
470691	WORD	wordpools/wasnorm_wordpool_576.txt	LTP374	ltpFR2	14	3	CRICKET	408	n/a	n/a	0	0	0
473249	WORD	wordpools/wasnorm_wordpool_576.txt	LTP374	ltpFR2	14	3	SODA	1341	n/a	n/a	0	0	0
475707	WORD	wordpools/wasnorm_wordpool_576.txt	LTP374	ltpFR2	14	3	JELLO	754	n/a	n/a	0	0	0
478300	WORD	wordpools/wasnorm_wordpool_576.txt	LTP374	ltpFR2	14	3	CROSS	413	n/a	n/a	0	0	0
480941	WORD	wordpools/wasnorm_wordpool_576.txt	LTP374	ltpFR2	14	3	CAFE	216	n/a	n/a	0	0	0
483433	WORD	wordpools/wasnorm_wordpool_576.txt	LTP374	ltpFR2	14	3	COOKBOOK	373	n/a	n/a	0	0	0
485924	WORD	wordpools/wasnorm_wordpool_576.txt	LTP374	ltpFR2	14	3	FRECKLE	602	n/a	n/a	0	0	0
488733	WORD	wordpools/wasnorm_wordpool_576.txt	LTP374	ltpFR2	14	3	BLOCKADE	137	n/a	n/a	0	0	0
491409	WORD	wordpools/wasnorm_wordpool_576.txt	LTP374	ltpFR2	14	3	LUNCH	849	n/a	n/a	0	0	0
493933	WORD	wordpools/wasnorm_wordpool_576.txt	LTP374	ltpFR2	14	3	SCALLOP	1242	n/a	n/a	0	0	0
495539	START	n/a	LTP374	ltpFR2	14	n/a	n/a	n/a	4	n/a	n/a	n/a	n/a
496415	DISTRACTOR	n/a	LTP374	ltpFR2	14	3	n/a	n/a	n/a	n/a	0	0	0
496425	PROB	n/a	LTP374	ltpFR2	14	n/a	n/a	n/a	4	16	6	3	7
497896	PROB	n/a	LTP374	ltpFR2	14	n/a	n/a	n/a	4	26	8	8	9
498999	PROB	n/a	LTP374	ltpFR2	14	n/a	n/a	n/a	4	25	8	9	8
499969	PROB	n/a	LTP374	ltpFR2	14	n/a	n/a	n/a	4	19	6	7	2
500772	PROB	n/a	LTP374	ltpFR2	14	n/a	n/a	n/a	4	11	1	4	7
501609	PROB	n/a	LTP374	ltpFR2	14	n/a	n/a	n/a	4	13	3	6	2
502929	PROB	n/a	LTP374	ltpFR2	14	n/a	n/a	n/a	4	18	2	7	9
503882	PROB	n/a	LTP374	ltpFR2	14	n/a	n/a	n/a	4	13	4	1	9
504669	PROB	n/a	LTP374	ltpFR2	14	n/a	n/a	n/a	4	9	2	3	4
505555	PROB	n/a	LTP374	ltpFR2	14	n/a	n/a	n/a	4	20	5	6	9
506424	PROB	n/a	LTP374	ltpFR2	14	n/a	n/a	n/a	4	12	7	2	5
507444	PROB	n/a	LTP374	ltpFR2	14	n/a	n/a	n/a	4	19	9	5	5
508179	PROB	n/a	LTP374	ltpFR2	14	n/a	n/a	n/a	4	17	6	2	9
508998	PROB	n/a	LTP374	ltpFR2	14	n/a	n/a	n/a	4	8	3	4	1
510152	PROB	n/a	LTP374	ltpFR2	14	n/a	n/a	n/a	4	21	7	5	9
511105	PROB	n/a	LTP374	ltpFR2	14	n/a	n/a	n/a	4	18	8	5	5
511891	PROB	n/a	LTP374	ltpFR2	14	n/a	n/a	n/a	4	17	7	6	3
512995	PROB	n/a	LTP374	ltpFR2	14	n/a	n/a	n/a	4	14	7	4	3
514082	PROB	n/a	LTP374	ltpFR2	14	n/a	n/a	n/a	4	13	4	8	1
514968	PROB	n/a	LTP374	ltpFR2	14	n/a	n/a	n/a	4	21	9	3	9
515988	PROB	n/a	LTP374	ltpFR2	14	n/a	n/a	n/a	4	13	1	3	9
516857	PROB	n/a	LTP374	ltpFR2	14	n/a	n/a	n/a	4	19	1	9	9
517661	PROB	n/a	LTP374	ltpFR2	14	n/a	n/a	n/a	4	17	3	5	9
518406	STOP	n/a	LTP374	ltpFR2	14	n/a	n/a	n/a	4	n/a	n/a	n/a	n/a
521306	REC_START	n/a	LTP374	ltpFR2	14	3	n/a	n/a	n/a	n/a	0	0	0
524854	REC_WORD_VV	wordpools/wasnorm_wordpool_576.txt	LTP374	ltpFR2	14	3	<>	-1	n/a	n/a	0	0	0
526800	REC_WORD	wordpools/wasnorm_wordpool_576.txt	LTP374	ltpFR2	14	3	SNAIL	1332	n/a	n/a	0	0	0
527810	REC_WORD	wordpools/wasnorm_wordpool_576.txt	LTP374	ltpFR2	14	3	SLIME	1327	n/a	n/a	0	0	0
529408	REC_WORD	wordpools/wasnorm_wordpool_576.txt	LTP374	ltpFR2	14	3	PEBBLE	1035	n/a	n/a	0	0	0
530264	REC_WORD	wordpools/wasnorm_wordpool_576.txt	LTP374	ltpFR2	14	3	CONVICT	371	n/a	n/a	0	0	0
531101	REC_WORD	wordpools/wasnorm_wordpool_576.txt	LTP374	ltpFR2	14	3	THIEF	1456	n/a	n/a	0	0	0
532218	REC_WORD	wordpools/wasnorm_wordpool_576.txt	LTP374	ltpFR2	14	3	RECORD	1176	n/a	n/a	0	0	0
533104	REC_WORD	wordpools/wasnorm_wordpool_576.txt	LTP374	ltpFR2	14	3	PICTURE	1061	n/a	n/a	0	0	0
535636	REC_WORD	wordpools/wasnorm_wordpool_576.txt	LTP374	ltpFR2	14	3	CRICKET	408	n/a	n/a	0	0	0
537507	REC_WORD	wordpools/wasnorm_wordpool_576.txt	LTP374	ltpFR2	14	3	SCALLOP	1242	n/a	n/a	0	0	0
538507	REC_WORD_VV	wordpools/wasnorm_wordpool_576.txt	LTP374	ltpFR2	14	3	<>	-1	n/a	n/a	0	0	0
540002	REC_WORD	wordpools/wasnorm_wordpool_576.txt	LTP374	ltpFR2	14	3	TURTLE	1522	n/a	n/a	0	0	0
540786	REC_WORD	wordpools/wasnorm_wordpool_576.txt	LTP374	ltpFR2	14	3	STICKER	1382	n/a	n/a	0	0	0
543773	REC_WORD	wordpools/wasnorm_wordpool_576.txt	LTP374	ltpFR2	14	3	PALACE	1006	n/a	n/a	0	0	0
544593	REC_WORD	wordpools/wasnorm_wordpool_576.txt	LTP374	ltpFR2	14	3	CROSS	413	n/a	n/a	0	0	0
545829	REC_WORD	wordpools/wasnorm_wordpool_576.txt	LTP374	ltpFR2	14	3	JELLO	754	n/a	n/a	0	0	0
546617	REC_WORD	wordpools/wasnorm_wordpool_576.txt	LTP374	ltpFR2	14	3	SODA	1341	n/a	n/a	0	0	0
547579	REC_WORD	wordpools/wasnorm_wordpool_576.txt	LTP374	ltpFR2	14	3	CAFE	216	n/a	n/a	0	0	0
548565	REC_WORD	wordpools/wasnorm_wordpool_576.txt	LTP374	ltpFR2	14	3	LUNCH	849	n/a	n/a	0	0	0
560904	REC_WORD	wordpools/wasnorm_wordpool_576.txt	LTP374	ltpFR2	14	3	RACKET	1155	n/a	n/a	0	0	0
611748	DISTRACTOR	n/a	LTP374	ltpFR2	14	4	n/a	n/a	n/a	n/a	0	0	0
611748	START	n/a	LTP374	ltpFR2	14	n/a	n/a	n/a	5	n/a	n/a	n/a	n/a
611765	PROB	n/a	LTP374	ltpFR2	14	n/a	n/a	n/a	5	12	7	5	1
612468	PROB	n/a	LTP374	ltpFR2	14	n/a	n/a	n/a	5	12	5	1	6
613270	PROB	n/a	LTP374	ltpFR2	14	n/a	n/a	n/a	5	23	6	9	7
614324	PROB	n/a	LTP374	ltpFR2	14	n/a	n/a	n/a	5	18	5	8	5
615176	PROB	n/a	LTP374	ltpFR2	14	n/a	n/a	n/a	5	12	4	3	5
616012	PROB	n/a	LTP374	ltpFR2	14	n/a	n/a	n/a	5	8	4	1	2
616797	PROB	n/a	LTP374	ltpFR2	14	n/a	n/a	n/a	5	10	2	5	3
618337	PROB	n/a	LTP374	ltpFR2	14	n/a	n/a	n/a	5	20	7	5	8
619574	PROB	n/a	LTP374	ltpFR2	14	n/a	n/a	n/a	5	13	1	9	3
620360	PROB	n/a	LTP374	ltpFR2	14	n/a	n/a	n/a	5	15	6	8	1
621128	PROB	n/a	LTP374	ltpFR2	14	n/a	n/a	n/a	5	10	4	1	5
622668	PROB	n/a	LTP374	ltpFR2	14	n/a	n/a	n/a	5	14	5	7	2
623537	PROB	n/a	LTP374	ltpFR2	14	n/a	n/a	n/a	5	21	3	9	9
624757	PROB	n/a	LTP374	ltpFR2	14	n/a	n/a	n/a	5	11	9	1	1
625827	PROB	n/a	LTP374	ltpFR2	14	n/a	n/a	n/a	5	19	7	5	7
626763	PROB	n/a	LTP374	ltpFR2	14	n/a	n/a	n/a	5	11	1	3	7
627567	PROB	n/a	LTP374	ltpFR2	14	n/a	n/a	n/a	5	15	8	4	3
628486	PROB	n/a	LTP374	ltpFR2	14	n/a	n/a	n/a	5	23	8	6	9
630141	PROB	n/a	LTP374	ltpFR2	14	n/a	n/a	n/a	5	17	1	7	9
631429	PROB	n/a	LTP374	ltpFR2	14	n/a	n/a	n/a	5	14	3	5	6
632433	PROB	n/a	LTP374	ltpFR2	14	n/a	n/a	n/a	5	10	2	7	1
633302	PROB	n/a	LTP374	ltpFR2	14	n/a	n/a	n/a	5	14	1	5	8
634944	STOP	n/a	LTP374	ltpFR2	14	n/a	n/a	n/a	5	n/a	n/a	n/a	n/a
636712	WORD	wordpools/wasnorm_wordpool_576.txt	LTP374	ltpFR2	14	4	CABIN	211	n/a	n/a	0	0	0
639322	WORD	wordpools/wasnorm_wordpool_576.txt	LTP374	ltpFR2	14	4	CANDY	230	n/a	n/a	0	0	0
642029	WORD	wordpools/wasnorm_wordpool_576.txt	LTP374	ltpFR2	14	4	FRIAR	605	n/a	n/a	0	0	0
644822	WORD	wordpools/wasnorm_wordpool_576.txt	LTP374	ltpFR2	14	4	YOLK	1633	n/a	n/a	0	0	0
647347	WORD	wordpools/wasnorm_wordpool_576.txt	LTP374	ltpFR2	14	4	TOASTER	1472	n/a	n/a	0	0	0
649888	WORD	wordpools/wasnorm_wordpool_576.txt	LTP374	ltpFR2	14	4	STOVE	1388	n/a	n/a	0	0	0
652330	WORD	wordpools/wasnorm_wordpool_576.txt	LTP374	ltpFR2	14	4	YACHT	1629	n/a	n/a	0	0	0
654921	WORD	wordpools/wasnorm_wordpool_576.txt	LTP374	ltpFR2	14	4	MOTEL	919	n/a	n/a	0	0	0
657631	WORD	wordpools/wasnorm_wordpool_576.txt	LTP374	ltpFR2	14	4	BEAVER	109	n/a	n/a	0	0	0
660390	WORD	wordpools/wasnorm_wordpool_576.txt	LTP374	ltpFR2	14	4	CATCHER	258	n/a	n/a	0	0	0
662914	WORD	wordpools/wasnorm_wordpool_576.txt	LTP374	ltpFR2	14	4	JUGGLER	763	n/a	n/a	0	0	0
665356	WORD	wordpools/wasnorm_wordpool_576.txt	LTP374	ltpFR2	14	4	RAFT	1159	n/a	n/a	0	0	0
668047	WORD	wordpools/wasnorm_wordpool_576.txt	LTP374	ltpFR2	14	4	SCISSORS	1250	n/a	n/a	0	0	0
670539	WORD	wordpools/wasnorm_wordpool_576.txt	LTP374	ltpFR2	14	4	MAMMAL	861	n/a	n/a	0	0	0
673265	WORD	wordpools/wasnorm_wordpool_576.txt	LTP374	ltpFR2	14	4	MAPLE	866	n/a	n/a	0	0	0
675906	WORD	wordpools/wasnorm_wordpool_576.txt	LTP374	ltpFR2	14	4	HELMET	702	n/a	n/a	0	0	0
678632	WORD	wordpools/wasnorm_wordpool_576.txt	LTP374	ltpFR2	14	4	WASP	1593	n/a	n/a	0	0	0
681324	WORD	wordpools/wasnorm_wordpool_576.txt	LTP374	ltpFR2	14	4	SKILLET	1317	n/a	n/a	0	0	0
683965	WORD	wordpools/wasnorm_wordpool_576.txt	LTP374	ltpFR2	14	4	WASHER	1592	n/a	n/a	0	0	0
686741	WORD	wordpools/wasnorm_wordpool_576.txt	LTP374	ltpFR2	14	4	EMPIRE	530	n/a	n/a	0	0	0
689484	WORD	wordpools/wasnorm_wordpool_576.txt	LTP374	ltpFR2	14	4	HEART	697	n/a	n/a	0	0	0
692208	WORD	wordpools/wasnorm_wordpool_576.txt	LTP374	ltpFR2	14	4	TERMITE	1451	n/a	n/a	0	0	0
695018	WORD	wordpools/wasnorm_wordpool_576.txt	LTP374	ltpFR2	14	4	GANGSTER	620	n/a	n/a	0	0	0
697627	WORD	wordpools/wasnorm_wordpool_576.txt	LTP374	ltpFR2	14	4	RIFLE	1192	n/a	n/a	0	0	0
699231	START	n/a	LTP374	ltpFR2	14	n/a	n/a	n/a	6	n/a	n/a	n/a	n/a
700166	DISTRACTOR	n/a	LTP374	ltpFR2	14	4	n/a	n/a	n/a	n/a	0	0	0
700168	PROB	n/a	LTP374	ltpFR2	14	n/a	n/a	n/a	6	188	3	9	6
701556	PROB	n/a	LTP374	ltpFR2	14	n/a	n/a	n/a	6	18	5	4	7
702359	PROB	n/a	LTP374	ltpFR2	14	n/a	n/a	n/a	6	14	3	5	6
703580	PROB	n/a	LTP374	ltpFR2	14	n/a	n/a	n/a	6	20	6	9	5
704682	PROB	n/a	LTP374	ltpFR2	14	n/a	n/a	n/a	6	19	8	2	9
705519	PROB	n/a	LTP374	ltpFR2	14	n/a	n/a	n/a	6	21	9	3	9
706539	PROB	n/a	LTP374	ltpFR2	14	n/a	n/a	n/a	6	21	9	7	5
707476	PROB	n/a	LTP374	ltpFR2	14	n/a	n/a	n/a	6	4	1	1	2
708210	PROB	n/a	LTP374	ltpFR2	14	n/a	n/a	n/a	6	8	4	3	1
708979	PROB	n/a	LTP374	ltpFR2	14	n/a	n/a	n/a	6	14	5	8	1
710217	PROB	n/a	LTP374	ltpFR2	14	n/a	n/a	n/a	6	14	7	2	5
711688	PROB	n/a	LTP374	ltpFR2	14	n/a	n/a	n/a	6	9	2	2	5
712442	PROB	n/a	LTP374	ltpFR2	14	n/a	n/a	n/a	6	16	5	5	6
713243	PROB	n/a	LTP374	ltpFR2	14	n/a	n/a	n/a	6	21	9	3	9
714163	PROB	n/a	LTP374	ltpFR2	14	n/a	n/a	n/a	6	21	4	9	8
715133	PROB	n/a	LTP374	ltpFR2	14	n/a	n/a	n/a	6	17	4	6	7
715902	PROB	n/a	LTP374	ltpFR2	14	n/a	n/a	n/a	6	18	3	8	7
716838	PROB	n/a	LTP374	ltpFR2	14	n/a	n/a	n/a	6	14	8	2	4
717675	PROB	n/a	LTP374	ltpFR2	14	n/a	n/a	n/a	6	14	7	2	5
718561	PROB	n/a	LTP374	ltpFR2	14	n/a	n/a	n/a	6	9	3	4	2
719414	PROB	n/a	LTP374	ltpFR2	14	n/a	n/a	n/a	6	10	6	3	1
720249	PROB	n/a	LTP374	ltpFR2	14	n/a	n/a	n/a	6	19	9	2	8
721404	PROB	n/a	LTP374	ltpFR2	14	n/a	n/a	n/a	6	16	2	8	6
722147	STOP	n/a	LTP374	ltpFR2	14	n/a	n/a	n/a	6	n/a	n/a	n/a	n/a
725132	REC_START	n/a	LTP374	ltpFR2	14	4	n/a	n/a	n/a	n/a	0	0	0
730117	REC_WORD	wordpools/wasnorm_wordpool_576.txt	LTP374	ltpFR2	14	4	BEAVER	109	n/a	n/a	0	0	0
731377	REC_WORD	wordpools/wasnorm_wordpool_576.txt	LTP374	ltpFR2	14	4	TERMITE	1451	n/a	n/a	0	0	0
732869	REC_WORD	wordpools/wasnorm_wordpool_576.txt	LTP374	ltpFR2	14	4	HEART	697	n/a	n/a	0	0	0
734393	REC_WORD	wordpools/wasnorm_wordpool_576.txt	LTP374	ltpFR2	14	4	MAMMAL	861	n/a	n/a	0	0	0
735829	REC_WORD	wordpools/wasnorm_wordpool_576.txt	LTP374	ltpFR2	14	4	JUGGLER	763	n/a	n/a	0	0	0
736704	REC_WORD	wordpools/wasnorm_wordpool_576.txt	LTP374	ltpFR2	14	4	HELMET	702	n/a	n/a	0	0	0
737634	REC_WORD	wordpools/wasnorm_wordpool_576.txt	LTP374	ltpFR2	14	4	RAFT	1159	n/a	n/a	0	0	0
739196	REC_WORD	wordpools/wasnorm_wordpool_576.txt	LTP374	ltpFR2	14	4	SCISSORS	1250	n/a	n/a	0	0	0
741410	REC_WORD	wordpools/wasnorm_wordpool_576.txt	LTP374	ltpFR2	14	4	EMPIRE	530	n/a	n/a	0	0	0
743491	REC_WORD	wordpools/wasnorm_wordpool_576.txt	LTP374	ltpFR2	14	4	MOTEL	919	n/a	n/a	0	0	0
744559	REC_WORD	wordpools/wasnorm_wordpool_576.txt	LTP374	ltpFR2	14	4	CABIN	211	n/a	n/a	0	0	0
745582	REC_WORD	wordpools/wasnorm_wordpool_576.txt	LTP374	ltpFR2	14	4	YACHT	1629	n/a	n/a	0	0	0
750972	REC_WORD	wordpools/wasnorm_wordpool_576.txt	LTP374	ltpFR2	14	4	WASHER	1592	n/a	n/a	0	0	0
763050	REC_WORD	wordpools/wasnorm_wordpool_576.txt	LTP374	ltpFR2	14	4	MAPLE	866	n/a	n/a	0	0	0
768031	REC_WORD	wordpools/wasnorm_wordpool_576.txt	LTP374	ltpFR2	14	4	CANDY	230	n/a	n/a	0	0	0
769008	REC_WORD	wordpools/wasnorm_wordpool_576.txt	LTP374	ltpFR2	14	4	YOLK	1633	n/a	n/a	0	0	0
772064	REC_WORD	wordpools/wasnorm_wordpool_576.txt	LTP374	ltpFR2	14	4	TOASTER	1472	n/a	n/a	0	0	0
772753	REC_WORD	wordpools/wasnorm_wordpool_576.txt	LTP374	ltpFR2	14	4	FRIAR	605	n/a	n/a	0	0	0
773732	REC_WORD	wordpools/wasnorm_wordpool_576.txt	LTP374	ltpFR2	14	4	STOVE	1388	n/a	n/a	0	0	0
815576	DISTRACTOR	n/a	LTP374	ltpFR2	14	5	n/a	n/a	n/a	n/a	0	0	0
815576	START	n/a	LTP374	ltpFR2	14	n/a	n/a	n/a	7	n/a	n/a	n/a	n/a
815592	PROB	n/a	LTP374	ltpFR2	14	n/a	n/a	n/a	7	16	7	8	1
816345	PROB	n/a	LTP374	ltpFR2	14	n/a	n/a	n/a	7	16	4	8	4
817515	PROB	n/a	LTP374	ltpFR2	14	n/a	n/a	n/a	7	22	9	4	9
818852	PROB	n/a	LTP374	ltpFR2	14	n/a	n/a	n/a	7	16	4	8	4
819738	PROB	n/a	LTP374	ltpFR2	14	n/a	n/a	n/a	7	14	7	5	2
820625	PROB	n/a	LTP374	ltpFR2	14	n/a	n/a	n/a	7	16	7	6	3
821512	PROB	n/a	LTP374	ltpFR2	14	n/a	n/a	n/a	7	15	6	8	1
822314	PROB	n/a	LTP374	ltpFR2	14	n/a	n/a	n/a	7	23	8	9	6
823935	PROB	n/a	LTP374	ltpFR2	14	n/a	n/a	n/a	7	19	9	9	1
824721	PROB	n/a	LTP374	ltpFR2	14	n/a	n/a	n/a	7	20	6	8	6
825824	PROB	n/a	LTP374	ltpFR2	14	n/a	n/a	n/a	7	19	8	2	9
826727	PROB	n/a	LTP374	ltpFR2	14	n/a	n/a	n/a	7	18	5	6	7
827697	PROB	n/a	LTP374	ltpFR2	14	n/a	n/a	n/a	7	19	6	4	9
828484	PROB	n/a	LTP374	ltpFR2	14	n/a	n/a	n/a	7	8	2	3	2
829420	PROB	n/a	LTP374	ltpFR2	14	n/a	n/a	n/a	7	21	5	9	7
830541	PROB	n/a	LTP374	ltpFR2	14	n/a	n/a	n/a	7	22	7	6	9
831894	PROB	n/a	LTP374	ltpFR2	14	n/a	n/a	n/a	7	7	2	1	4
832614	PROB	n/a	LTP374	ltpFR2	14	n/a	n/a	n/a	7	20	5	9	6
833817	PROB	n/a	LTP374	ltpFR2	14	n/a	n/a	n/a	7	23	9	7	7
835004	PROB	n/a	LTP374	ltpFR2	14	n/a	n/a	n/a	7	16	7	7	2
835823	PROB	n/a	LTP374	ltpFR2	14	n/a	n/a	n/a	7	14	8	2	2
836693	PROB	n/a	LTP374	ltpFR2	14	n/a	n/a	n/a	7	14	5	4	5
837680	PROB	n/a	LTP374	ltpFR2	14	n/a	n/a	n/a	7	18	1	9	8
838399	STOP	n/a	LTP374	ltpFR2	14	n/a	n/a	n/a	7	n/a	n/a	n/a	n/a
840439	WORD	wordpools/wasnorm_wordpool_576.txt	LTP374	ltpFR2	14	5	WAITER	1580	n/a	n/a	0	0	0
843097	WORD	wordpools/wasnorm_wordpool_576.txt	LTP374	ltpFR2	14	5	ONION	977	n/a	n/a	0	0	0
845873	WORD	wordpools/wasnorm_wordpool_576.txt	LTP374	ltpFR2	14	5	DRAGON	492	n/a	n/a	0	0	0
848649	WORD	wordpools/wasnorm_wordpool_576.txt	LTP374	ltpFR2	14	5	FIREMAN	569	n/a	n/a	0	0	0
851140	WORD	wordpools/wasnorm_wordpool_576.txt	LTP374	ltpFR2	14	5	ATOM	55	n/a	n/a	0	0	0
853715	WORD	wordpools/wasnorm_wordpool_576.txt	LTP374	ltpFR2	14	5	BISON	131	n/a	n/a	0	0	0
856173	WORD	wordpools/wasnorm_wordpool_576.txt	LTP374	ltpFR2	14	5	LEOPARD	812	n/a	n/a	0	0	0
858882	WORD	wordpools/wasnorm_wordpool_576.txt	LTP374	ltpFR2	14	5	BANJO	82	n/a	n/a	0	0	0
861675	WORD	wordpools/wasnorm_wordpool_576.txt	LTP374	ltpFR2	14	5	PEDAL	1037	n/a	n/a	0	0	0
864300	WORD	wordpools/wasnorm_wordpool_576.txt	LTP374	ltpFR2	14	5	PIANO	1057	n/a	n/a	0	0	0
866924	WORD	wordpools/wasnorm_wordpool_576.txt	LTP374	ltpFR2	14	5	COSTUME	383	n/a	n/a	0	0	0
869667	WORD	wordpools/wasnorm_wordpool_576.txt	LTP374	ltpFR2	14	5	DANDRUFF	439	n/a	n/a	0	0	0
872293	WORD	wordpools/wasnorm_wordpool_576.txt	LTP374	ltpFR2	14	5	MONSTER	912	n/a	n/a	0	0	0
875067	WORD	wordpools/wasnorm_wordpool_576.txt	LTP374	ltpFR2	14	5	BUG	187	n/a	n/a	0	0	0
877860	WORD	wordpools/wasnorm_wordpool_576.txt	LTP374	ltpFR2	14	5	MISTER	901	n/a	n/a	0	0	0
880653	WORD	wordpools/wasnorm_wordpool_576.txt	LTP374	ltpFR2	14	5	FLAG	573	n/a	n/a	0	0	0
883077	WORD	wordpools/wasnorm_wordpool_576.txt	LTP374	ltpFR2	14	5	APPLE	33	n/a	n/a	0	0	0
885869	WORD	wordpools/wasnorm_wordpool_576.txt	LTP374	ltpFR2	14	5	VIKING	1565	n/a	n/a	0	0	0
888646	WORD	wordpools/wasnorm_wordpool_576.txt	LTP374	ltpFR2	14	5	DIME	466	n/a	n/a	0	0	0
891371	WORD	wordpools/wasnorm_wordpool_576.txt	LTP374	ltpFR2	14	5	HANDBAG	684	n/a	n/a	0	0	0
893878	WORD	wordpools/wasnorm_wordpool_576.txt	LTP374	ltpFR2	14	5	NOMAD	955	n/a	n/a	0	0	0
896605	WORD	wordpools/wasnorm_wordpool_576.txt	LTP374	ltpFR2	14	5	TUBA	1515	n/a	n/a	0	0	0
899280	WORD	wordpools/wasnorm_wordpool_576.txt	LTP374	ltpFR2	14	5	SAUSAGE	1238	n/a	n/a	0	0	0
902071	WORD	wordpools/wasnorm_wordpool_576.txt	LTP374	ltpFR2	14	5	COFFEE	341	n/a	n/a	0	0	0
903678	START	n/a	LTP374	ltpFR2	14	n/a	n/a	n/a	8	n/a	n/a	n/a	n/a
904855	DISTRACTOR	n/a	LTP374	ltpFR2	14	5	n/a	n/a	n/a	n/a	0	0	0
904864	PROB	n/a	LTP374	ltpFR2	14	n/a	n/a	n/a	8	18	5	5	8
905634	PROB	n/a	LTP374	ltpFR2	14	n/a	n/a	n/a	8	16	3	7	6
906420	PROB	n/a	LTP374	ltpFR2	14	n/a	n/a	n/a	8	7	1	5	1
907104	PROB	n/a	LTP374	ltpFR2	14	n/a	n/a	n/a	8	12	8	2	2
907773	PROB	n/a	LTP374	ltpFR2	14	n/a	n/a	n/a	8	14	2	4	8
908760	PROB	n/a	LTP374	ltpFR2	14	n/a	n/a	n/a	8	13	1	3	9
909780	PROB	n/a	LTP374	ltpFR2	14	n/a	n/a	n/a	8	6	1	2	3
910483	PROB	n/a	LTP374	ltpFR2	14	n/a	n/a	n/a	8	14	2	9	3
911520	PROB	n/a	LTP374	ltpFR2	14	n/a	n/a	n/a	8	12	1	6	5
912456	PROB	n/a	LTP374	ltpFR2	14	n/a	n/a	n/a	8	20	6	5	9
913326	PROB	n/a	LTP374	ltpFR2	14	n/a	n/a	n/a	8	17	3	7	7
914412	PROB	n/a	LTP374	ltpFR2	14	n/a	n/a	n/a	8	12	2	8	2
915080	PROB	n/a	LTP374	ltpFR2	14	n/a	n/a	n/a	8	20	3	8	9
916067	PROB	n/a	LTP374	ltpFR2	14	n/a	n/a	n/a	8	25	9	8	8
917322	PROB	n/a	LTP374	ltpFR2	14	n/a	n/a	n/a	8	16	5	2	9
918107	PROB	n/a	LTP374	ltpFR2	14	n/a	n/a	n/a	8	20	7	7	6
918943	PROB	n/a	LTP374	ltpFR2	14	n/a	n/a	n/a	8	8	4	2	4
919762	PROB	n/a	LTP374	ltpFR2	14	n/a	n/a	n/a	8	11	5	2	4
920698	PROB	n/a	LTP374	ltpFR2	14	n/a	n/a	n/a	8	17	2	6	9
921886	PROB	n/a	LTP374	ltpFR2	14	n/a	n/a	n/a	8	18	4	8	6
923442	PROB	n/a	LTP374	ltpFR2	14	n/a	n/a	n/a	8	13	8	2	3
924445	PROB	n/a	LTP374	ltpFR2	14	n/a	n/a	n/a	8	1	6	3	5
925832	PROB	n/a	LTP374	ltpFR2	14	n/a	n/a	n/a	8	8	6	1	1
926522	STOP	n/a	LTP374	ltpFR2	14	n/a	n/a	n/a	8	n/a	n/a	n/a	n/a
929462	REC_START	n/a	LTP374	ltpFR2	14	5	n/a	n/a	n/a	n/a	0	0	0
933350	REC_WORD	wordpools/wasnorm_wordpool_576.txt	LTP374	ltpFR2	14	5	FIREMAN	569	n/a	n/a	0	0	0
934583	REC_WORD	wordpools/wasnorm_wordpool_576.txt	LTP374	ltpFR2	14	5	BANJO	82	n/a	n/a	0	0	0
935413	REC_WORD	wordpools/wasnorm_wordpool_576.txt	LTP374	ltpFR2	14	5	TUBA	1515	n/a	n/a	0	0	0
936298	REC_WORD	wordpools/wasnorm_wordpool_576.txt	LTP374	ltpFR2	14	5	PIANO	1057	n/a	n/a	0	0	0
937284	REC_WORD	wordpools/wasnorm_wordpool_576.txt	LTP374	ltpFR2	14	5	HANDBAG	684	n/a	n/a	0	0	0
938445	REC_WORD	wordpools/wasnorm_wordpool_576.txt	LTP374	ltpFR2	14	5	PEDAL	1037	n/a	n/a	0	0	0
939470	REC_WORD	wordpools/wasnorm_wordpool_576.txt	LTP374	ltpFR2	14	5	DIME	466	n/a	n/a	0	0	0
940336	REC_WORD	wordpools/wasnorm_wordpool_576.txt	LTP374	ltpFR2	14	5	FLAG	573	n/a	n/a	0	0	0
941655	REC_WORD	wordpools/wasnorm_wordpool_576.txt	LTP374	ltpFR2	14	5	SAUSAGE	1238	n/a	n/a	0	0	0
944465	REC_WORD	wordpools/wasnorm_wordpool_576.txt	LTP374	ltpFR2	14	5	VIKING	1565	n/a	n/a	0	0	0
946136	REC_WORD	wordpools/wasnorm_wordpool_576.txt	LTP374	ltpFR2	14	5	BUG	187	n/a	n/a	0	0	0
947285	REC_WORD	wordpools/wasnorm_wordpool_576.txt	LTP374	ltpFR2	14	5	MONSTER	912	n/a	n/a	0	0	0
948964	REC_WORD	wordpools/wasnorm_wordpool_576.txt	LTP374	ltpFR2	14	5	DRAGON	492	n/a	n/a	0	0	0
950276	REC_WORD	wordpools/wasnorm_wordpool_576.txt	LTP374	ltpFR2	14	5	BISON	131	n/a	n/a	0	0	0
951563	REC_WORD	wordpools/wasnorm_wordpool_576.txt	LTP374	ltpFR2	14	5	LEOPARD	812	n/a	n/a	0	0	0
956921	REC_WORD	wordpools/wasnorm_wordpool_576.txt	LTP374	ltpFR2	14	5	COFFEE	341	n/a	n/a	0	0	0
958726	REC_WORD	wordpools/wasnorm_wordpool_576.txt	LTP374	ltpFR2	14	5	SAUSAGE	1238	n/a	n/a	0	0	0
969130	REC_WORD	wordpools/wasnorm_wordpool_576.txt	LTP374	ltpFR2	14	5	MISTER	901	n/a	n/a	0	0	0
974696	REC_WORD	wordpools/wasnorm_wordpool_576.txt	LTP374	ltpFR2	14	5	ATOM	55	n/a	n/a	0	0	0
978991	REC_WORD	wordpools/wasnorm_wordpool_576.txt	LTP374	ltpFR2	14	5	APPLE	33	n/a	n/a	0	0	0
1019920	WORD	wordpools/wasnorm_wordpool_576.txt	LTP374	ltpFR2	14	6	TUTU	1524	n/a	n/a	0	0	0
1022429	WORD	wordpools/wasnorm_wordpool_576.txt	LTP374	ltpFR2	14	6	DENIM	446	n/a	n/a	0	0	0
1024953	WORD	wordpools/wasnorm_wordpool_576.txt	LTP374	ltpFR2	14	6	CHIPMUNK	304	n/a	n/a	0	0	0
1027378	WORD	wordpools/wasnorm_wordpool_576.txt	LTP374	ltpFR2	14	6	MILK	895	n/a	n/a	0	0	0
1029936	WORD	wordpools/wasnorm_wordpool_576.txt	LTP374	ltpFR2	14	6	DRUG	501	n/a	n/a	0	0	0
1032745	WORD	wordpools/wasnorm_wordpool_576.txt	LTP374	ltpFR2	14	6	SCOTCH	1251	n/a	n/a	0	0	0
1035538	WORD	wordpools/wasnorm_wordpool_576.txt	LTP374	ltpFR2	14	6	PLAYGROUND	1087	n/a	n/a	0	0	0
1038196	WORD	wordpools/wasnorm_wordpool_576.txt	LTP374	ltpFR2	14	6	CONCERT	360	n/a	n/a	0	0	0
1040704	WORD	wordpools/wasnorm_wordpool_576.txt	LTP374	ltpFR2	14	6	JEANS	752	n/a	n/a	0	0	0
1043229	WORD	wordpools/wasnorm_wordpool_576.txt	LTP374	ltpFR2	14	6	STATUE	1374	n/a	n/a	0	0	0
1045804	WORD	wordpools/wasnorm_wordpool_576.txt	LTP374	ltpFR2	14	6	NURSE	963	n/a	n/a	0	0	0
1048614	WORD	wordpools/wasnorm_wordpool_576.txt	LTP374	ltpFR2	14	6	TART	1436	n/a	n/a	0	0	0
1051154	WORD	wordpools/wasnorm_wordpool_576.txt	LTP374	ltpFR2	14	6	SHORTCAKE	1292	n/a	n/a	0	0	0
1053696	WORD	wordpools/wasnorm_wordpool_576.txt	LTP374	ltpFR2	14	6	BRANCH	168	n/a	n/a	0	0	0
1056439	WORD	wordpools/wasnorm_wordpool_576.txt	LTP374	ltpFR2	14	6	PUPPY	1144	n/a	n/a	0	0	0
1058913	WORD	wordpools/wasnorm_wordpool_576.txt	LTP374	ltpFR2	14	6	LION	827	n/a	n/a	0	0	0
1061372	WORD	wordpools/wasnorm_wordpool_576.txt	LTP374	ltpFR2	14	6	ZEBRA	1635	n/a	n/a	0	0	0
1064180	WORD	wordpools/wasnorm_wordpool_576.txt	LTP374	ltpFR2	14	6	FLASK	576	n/a	n/a	0	0	0
1066855	WORD	wordpools/wasnorm_wordpool_576.txt	LTP374	ltpFR2	14	6	PARROT	1015	n/a	n/a	0	0	0
1069398	WORD	wordpools/wasnorm_wordpool_576.txt	LTP374	ltpFR2	14	6	HAWK	692	n/a	n/a	0	0	0
1072089	WORD	wordpools/wasnorm_wordpool_576.txt	LTP374	ltpFR2	14	6	MISSILE	900	n/a	n/a	0	0	0
1074697	WORD	wordpools/wasnorm_wordpool_576.txt	LTP374	ltpFR2	14	6	ROCKET	1202	n/a	n/a	0	0	0
1077507	WORD	wordpools/wasnorm_wordpool_576.txt	LTP374	ltpFR2	14	6	SMOG	1330	n/a	n/a	0	0	0
1080115	WORD	wordpools/wasnorm_wordpool_576.txt	LTP374	ltpFR2	14	6	SNAKE	1333	n/a	n/a	0	0	0
1081720	START	n/a	LTP374	ltpFR2	14	n/a	n/a	n/a	9	n/a	n/a	n/a	n/a
1082618	DISTRACTOR	n/a	LTP374	ltpFR2	14	6	n/a	n/a	n/a	n/a	0	0	0
1082624	PROB	n/a	LTP374	ltpFR2	14	n/a	n/a	n/a	9	16	8	2	6
1083543	PROB	n/a	LTP374	ltpFR2	14	n/a	n/a	n/a	9	5	1	2	2
1084194	PROB	n/a	LTP374	ltpFR2	14	n/a	n/a	n/a	9	10	2	3	5
1084913	PROB	n/a	LTP374	ltpFR2	14	n/a	n/a	n/a	9	12	6	5	1
1085583	PROB	n/a	LTP374	ltpFR2	14	n/a	n/a	n/a	9	14	2	6	6
1086336	PROB	n/a	LTP374	ltpFR2	14	n/a	n/a	n/a	9	16	2	5	9
1087121	PROB	n/a	LTP374	ltpFR2	14	n/a	n/a	n/a	9	11	4	2	5
1087957	PROB	n/a	LTP374	ltpFR2	14	n/a	n/a	n/a	9	19	6	5	8
1089094	PROB	n/a	LTP374	ltpFR2	14	n/a	n/a	n/a	9	22	8	9	4
1090299	PROB	n/a	LTP374	ltpFR2	14	n/a	n/a	n/a	9	23	8	6	9
1091736	PROB	n/a	LTP374	ltpFR2	14	n/a	n/a	n/a	9	20	6	8	6
1092940	PROB	n/a	LTP374	ltpFR2	14	n/a	n/a	n/a	9	10	1	2	7
1093742	PROB	n/a	LTP374	ltpFR2	14	n/a	n/a	n/a	9	16	2	5	9
1094546	PROB	n/a	LTP374	ltpFR2	14	n/a	n/a	n/a	9	16	3	8	5
1095765	PROB	n/a	LTP374	ltpFR2	14	n/a	n/a	n/a	9	20	6	9	5
1096952	PROB	n/a	LTP374	ltpFR2	14	n/a	n/a	n/a	9	8	2	2	4
1097688	PROB	n/a	LTP374	ltpFR2	14	n/a	n/a	n/a	9	17	6	8	3
1098676	PROB	n/a	LTP374	ltpFR2	14	n/a	n/a	n/a	9	5	1	1	3
1099328	PROB	n/a	LTP374	ltpFR2	14	n/a	n/a	n/a	9	13	9	1	4
1100129	PROB	n/a	LTP374	ltpFR2	14	n/a	n/a	n/a	9	17	8	7	2
1101166	PROB	n/a	LTP374	ltpFR2	14	n/a	n/a	n/a	9	20	7	5	8
1102136	PROB	n/a	LTP374	ltpFR2	14	n/a	n/a	n/a	9	15	6	6	3
1102855	PROB	n/a	LTP374	ltpFR2	14	n/a	n/a	n/a	9	17	9	3	5
1103841	PROB	n/a	LTP374	ltpFR2	14	n/a	n/a	n/a	9	5	1	3	1
1104439	STOP	n/a	LTP374	ltpFR2	14	n/a	n/a	n/a	9	n/a	n/a	n/a	n/a
1107639	REC_START	n/a	LTP374	ltpFR2	14	6	n/a	n/a	n/a	n/a	0	0	0
1108985	REC_WORD	wordpools/wasnorm_wordpool_576.txt	LTP374	ltpFR2	14	6	LION	827	n/a	n/a	0	0	0
1109701	REC_WORD	wordpools/wasnorm_wordpool_576.txt	LTP374	ltpFR2	14	6	ZEBRA	1635	n/a	n/a	0	0	0
1110411	REC_WORD	wordpools/wasnorm_wordpool_576.txt	LTP374	ltpFR2	14	6	HAWK	692	n/a	n/a	0	0	0
1111093	REC_WORD	wordpools/wasnorm_wordpool_576.txt	LTP374	ltpFR2	14	6	SNAKE	1333	n/a	n/a	0	0	0
1112107	REC_WORD	wordpools/wasnorm_wordpool_576.txt	LTP374	ltpFR2	14	6	SMOG	1330	n/a	n/a	0	0	0
1114208	REC_WORD	wordpools/wasnorm_wordpool_576.txt	LTP374	ltpFR2	14	6	CONCERT	360	n/a	n/a	0	0	0
1114967	REC_WORD	wordpools/wasnorm_wordpool_576.txt	LTP374	ltpFR2	14	6	STATUE	1374	n/a	n/a	0	0	0
1116365	REC_WORD	wordpools/wasnorm_wordpool_576.txt	LTP374	ltpFR2	14	6	ROCKET	1202	n/a	n/a	0	0	0
1117317	REC_WORD	wordpools/wasnorm_wordpool_576.txt	LTP374	ltpFR2	14	6	MISSILE	900	n/a	n/a	0	0	0
1125741	REC_WORD	wordpools/wasnorm_wordpool_576.txt	LTP374	ltpFR2	14	6	CHIPMUNK	304	n/a	n/a	0	0	0
1126554	REC_WORD	wordpools/wasnorm_wordpool_576.txt	LTP374	ltpFR2	14	6	DENIM	446	n/a	n/a	0	0	0
1127160	REC_WORD	wordpools/wasnorm_wordpool_576.txt	LTP374	ltpFR2	14	6	JEANS	752	n/a	n/a	0	0	0
1127969	REC_WORD	wordpools/wasnorm_wordpool_576.txt	LTP374	ltpFR2	14	6	FLASK	576	n/a	n/a	0	0	0
1135594	REC_WORD	wordpools/wasnorm_wordpool_576.txt	LTP374	ltpFR2	14	6	MILK	895	n/a	n/a	0	0	0
1198097	WORD	wordpools/wasnorm_wordpool_576.txt	LTP374	ltpFR2	14	7	TOURIST	1488	n/a	n/a	0	0	0
1200872	WORD	wordpools/wasnorm_wordpool_576.txt	LTP374	ltpFR2	14	7	EUROPE	541	n/a	n/a	0	0	0
1203298	WORD	wordpools/wasnorm_wordpool_576.txt	LTP374	ltpFR2	14	7	ISLAND	745	n/a	n/a	0	0	0
1206022	WORD	wordpools/wasnorm_wordpool_576.txt	LTP374	ltpFR2	14	7	MUSTARD	935	n/a	n/a	0	0	0
1208698	WORD	wordpools/wasnorm_wordpool_576.txt	LTP374	ltpFR2	14	7	EAGLE	512	n/a	n/a	0	0	0
1211407	WORD	wordpools/wasnorm_wordpool_576.txt	LTP374	ltpFR2	14	7	QUAIL	1147	n/a	n/a	0	0	0
1214048	WORD	wordpools/wasnorm_wordpool_576.txt	LTP374	ltpFR2	14	7	FUNGUS	614	n/a	n/a	0	0	0
1216591	WORD	wordpools/wasnorm_wordpool_576.txt	LTP374	ltpFR2	14	7	FRUIT	610	n/a	n/a	0	0	0
1219333	WORD	wordpools/wasnorm_wordpool_576.txt	LTP374	ltpFR2	14	7	OYSTER	995	n/a	n/a	0	0	0
1222091	WORD	wordpools/wasnorm_wordpool_576.txt	LTP374	ltpFR2	14	7	SEAFOOD	1260	n/a	n/a	0	0	0
1224867	WORD	wordpools/wasnorm_wordpool_576.txt	LTP374	ltpFR2	14	7	BURGLAR	200	n/a	n/a	0	0	0
1227292	WORD	wordpools/wasnorm_wordpool_576.txt	LTP374	ltpFR2	14	7	PADDLE	1000	n/a	n/a	0	0	0
1229967	WORD	wordpools/wasnorm_wordpool_576.txt	LTP374	ltpFR2	14	7	NECKLACE	940	n/a	n/a	0	0	0
1232676	WORD	wordpools/wasnorm_wordpool_576.txt	LTP374	ltpFR2	14	7	RADISH	1158	n/a	n/a	0	0	0
1235318	WORD	wordpools/wasnorm_wordpool_576.txt	LTP374	ltpFR2	14	7	CRUTCH	417	n/a	n/a	0	0	0
1237876	WORD	wordpools/wasnorm_wordpool_576.txt	LTP374	ltpFR2	14	7	BODY	145	n/a	n/a	0	0	0
1240652	WORD	wordpools/wasnorm_wordpool_576.txt	LTP374	ltpFR2	14	7	FREEZER	604	n/a	n/a	0	0	0
1243226	WORD	wordpools/wasnorm_wordpool_576.txt	LTP374	ltpFR2	14	7	GROUND	666	n/a	n/a	0	0	0
1245851	WORD	wordpools/wasnorm_wordpool_576.txt	LTP374	ltpFR2	14	7	MASK	876	n/a	n/a	0	0	0
1248544	WORD	wordpools/wasnorm_wordpool_576.txt	LTP374	ltpFR2	14	7	SCULPTURE	1258	n/a	n/a	0	0	0
1251235	WORD	wordpools/wasnorm_wordpool_576.txt	LTP374	ltpFR2	14	7	FRANCE	601	n/a	n/a	0	0	0
1254028	WORD	wordpools/wasnorm_wordpool_576.txt	LTP374	ltpFR2	14	7	PERMIT	1051	n/a	n/a	0	0	0
1256671	WORD	wordpools/wasnorm_wordpool_576.txt	LTP374	ltpFR2	14	7	SISTER	1312	n/a	n/a	0	0	0
1259396	WORD	wordpools/wasnorm_wordpool_576.txt	LTP374	ltpFR2	14	7	VELVET	1555	n/a	n/a	0	0	0
1261001	START	n/a	LTP374	ltpFR2	14	n/a	n/a	n/a	10	n/a	n/a	n/a	n/a
1262066	DISTRACTOR	n/a	LTP374	ltpFR2	14	7	n/a	n/a	n/a	n/a	0	0	0
1262071	PROB	n/a	LTP374	ltpFR2	14	n/a	n/a	n/a	10	15	3	8	4
1263342	PROB	n/a	LTP374	ltpFR2	14	n/a	n/a	n/a	10	16	8	2	6
1264044	PROB	n/a	LTP374	ltpFR2	14	n/a	n/a	n/a	10	165	5	9	2
1265231	PROB	n/a	LTP374	ltpFR2	14	n/a	n/a	n/a	10	25	9	6	9
1266469	PROB	n/a	LTP374	ltpFR2	14	n/a	n/a	n/a	10	16	2	8	6
1267873	PROB	n/a	LTP374	ltpFR2	14	n/a	n/a	n/a	10	13	3	1	9
1268626	PROB	n/a	LTP374	ltpFR2	14	n/a	n/a	n/a	10	16	2	6	5
1269846	PROB	n/a	LTP374	ltpFR2	14	n/a	n/a	n/a	10	18	7	1	9
1271083	PROB	n/a	LTP374	ltpFR2	14	n/a	n/a	n/a	10	13	3	8	2
1272103	PROB	n/a	LTP374	ltpFR2	14	n/a	n/a	n/a	10	15	2	9	4
1273274	PROB	n/a	LTP374	ltpFR2	14	n/a	n/a	n/a	10	15	9	6	1
1274243	PROB	n/a	LTP374	ltpFR2	14	n/a	n/a	n/a	10	1	3	9	1
1275264	PROB	n/a	LTP374	ltpFR2	14	n/a	n/a	n/a	10	10	4	5	1
1276083	PROB	n/a	LTP374	ltpFR2	14	n/a	n/a	n/a	10	17	8	8	1
1277253	PROB	n/a	LTP374	ltpFR2	14	n/a	n/a	n/a	10	13	7	1	3
1277955	PROB	n/a	LTP374	ltpFR2	14	n/a	n/a	n/a	10	22	8	9	3
1279545	PROB	n/a	LTP374	ltpFR2	14	n/a	n/a	n/a	10	14	1	8	5
1281199	PROB	n/a	LTP374	ltpFR2	14	n/a	n/a	n/a	10	20	9	2	9
1282052	PROB	n/a	LTP374	ltpFR2	14	n/a	n/a	n/a	10	15	3	6	6
1282938	PROB	n/a	LTP374	ltpFR2	14	n/a	n/a	n/a	10	19	9	7	3
1283747	STOP	n/a	LTP374	ltpFR2	14	n/a	n/a	n/a	10	n/a	n/a	n/a	n/a
1286868	REC_START	n/a	LTP374	ltpFR2	14	7	n/a	n/a	n/a	n/a	0	0	0
1291930	REC_WORD	wordpools/wasnorm_wordpool_576.txt	LTP374	ltpFR2	14	7	VELVET	1555	n/a	n/a	0	0	0
1292906	REC_WORD	wordpools/wasnorm_wordpool_576.txt	LTP374	ltpFR2	14	7	SISTER	1312	n/a	n/a	0	0	0
1296340	REC_WORD	wordpools/wasnorm_wordpool_576.txt	LTP374	ltpFR2	14	7	BURGLAR	200	n/a	n/a	0	0	0
1297115	REC_WORD	wordpools/wasnorm_wordpool_576.txt	LTP374	ltpFR2	14	7	PADDLE	1000	n/a	n/a	0	0	0
1297879	REC_WORD	wordpools/wasnorm_wordpool_576.txt	LTP374	ltpFR2	14	7	CRUTCH	417	n/a	n/a	0	0	0
1299107	REC_WORD	wordpools/wasnorm_wordpool_576.txt	LTP374	ltpFR2	14	7	BODY	145	n/a	n/a	0	0	0
1302219	REC_WORD	wordpools/wasnorm_wordpool_576.txt	LTP374	ltpFR2	14	7	NECKLACE	940	n/a	n/a	0	0	0
1303003	REC_WORD	wordpools/wasnorm_wordpool_576.txt	LTP374	ltpFR2	14	7	MASK	876	n/a	n/a	0	0	0
1303722	REC_WORD	wordpools/wasnorm_wordpool_576.txt	LTP374	ltpFR2	14	7	FREEZER	604	n/a	n/a	0	0	0
1304885	REC_WORD	wordpools/wasnorm_wordpool_576.txt	LTP374	ltpFR2	14	7	GROUND	666	n/a	n/a	0	0	0
1306136	REC_WORD	wordpools/wasnorm_wordpool_576.txt	LTP374	ltpFR2	14	7	TOURIST	1488	n/a	n/a	0	0	0
1309143	REC_WORD	wordpools/wasnorm_wordpool_576.txt	LTP374	ltpFR2	14	7	FRANCE	601	n/a	n/a	0	0	0
1310032	REC_WORD	wordpools/wasnorm_wordpool_576.txt	LTP374	ltpFR2	14	7	EUROPE	541	n/a	n/a	0	0	0
1311078	REC_WORD	wordpools/wasnorm_wordpool_576.txt	LTP374	ltpFR2	14	7	ISLAND	745	n/a	n/a	0	0	0
1314762	REC_WORD	wordpools/wasnorm_wordpool_576.txt	LTP374	ltpFR2	14	7	SCULPTURE	1258	n/a	n/a	0	0	0
1377328	WORD	wordpools/wasnorm_wordpool_576.txt	LTP374	ltpFR2	14	8	PIZZA	1079	n/a	n/a	0	0	0
1379885	WORD	wordpools/wasnorm_wordpool_576.txt	LTP374	ltpFR2	14	8	FILM	565	n/a	n/a	0	0	0
1382311	WORD	wordpools/wasnorm_wordpool_576.txt	LTP374	ltpFR2	14	8	SUPPER	1411	n/a	n/a	0	0	0
1384885	WORD	wordpools/wasnorm_wordpool_576.txt	LTP374	ltpFR2	14	8	SPIDER	1351	n/a	n/a	0	0	0
1387344	WORD	wordpools/wasnorm_wordpool_576.txt	LTP374	ltpFR2	14	8	HIGHWAY	707	n/a	n/a	0	0	0
1390001	WORD	wordpools/wasnorm_wordpool_576.txt	LTP374	ltpFR2	14	8	STONE	1385	n/a	n/a	0	0	0
1392693	WORD	wordpools/wasnorm_wordpool_576.txt	LTP374	ltpFR2	14	8	HUMAN	726	n/a	n/a	0	0	0
1395437	WORD	wordpools/wasnorm_wordpool_576.txt	LTP374	ltpFR2	14	8	MARKER	870	n/a	n/a	0	0	0
1397977	WORD	wordpools/wasnorm_wordpool_576.txt	LTP374	ltpFR2	14	8	SKETCH	1315	n/a	n/a	0	0	0
1400670	WORD	wordpools/wasnorm_wordpool_576.txt	LTP374	ltpFR2	14	8	POISON	1096	n/a	n/a	0	0	0
1403295	WORD	wordpools/wasnorm_wordpool_576.txt	LTP374	ltpFR2	14	8	RATTLE	1170	n/a	n/a	0	0	0
1406104	WORD	wordpools/wasnorm_wordpool_576.txt	LTP374	ltpFR2	14	8	BRICK	172	n/a	n/a	0	0	0
1408646	WORD	wordpools/wasnorm_wordpool_576.txt	LTP374	ltpFR2	14	8	CHAPEL	280	n/a	n/a	0	0	0
1411288	WORD	wordpools/wasnorm_wordpool_576.txt	LTP374	ltpFR2	14	8	VICTIM	1562	n/a	n/a	0	0	0
1413829	WORD	wordpools/wasnorm_wordpool_576.txt	LTP374	ltpFR2	14	8	STAKE	1368	n/a	n/a	0	0	0
1416639	WORD	wordpools/wasnorm_wordpool_576.txt	LTP374	ltpFR2	14	8	WRIST	1626	n/a	n/a	0	0	0
1419196	WORD	wordpools/wasnorm_wordpool_576.txt	LTP374	ltpFR2	14	8	SIDEWALK	1303	n/a	n/a	0	0	0
1421972	WORD	wordpools/wasnorm_wordpool_576.txt	LTP374	ltpFR2	14	8	APRON	35	n/a	n/a	0	0	0
1424548	WORD	wordpools/wasnorm_wordpool_576.txt	LTP374	ltpFR2	14	8	BOYFRIEND	162	n/a	n/a	0	0	0
1427323	WORD	wordpools/wasnorm_wordpool_576.txt	LTP374	ltpFR2	14	8	ANKLE	24	n/a	n/a	0	0	0
1429814	WORD	wordpools/wasnorm_wordpool_576.txt	LTP374	ltpFR2	14	8	VALVE	1546	n/a	n/a	0	0	0
1432607	WORD	wordpools/wasnorm_wordpool_576.txt	LTP374	ltpFR2	14	8	TRUCK	1512	n/a	n/a	0	0	0
1435332	WORD	wordpools/wasnorm_wordpool_576.txt	LTP374	ltpFR2	14	8	FLESH	579	n/a	n/a	0	0	0
1437873	WORD	wordpools/wasnorm_wordpool_576.txt	LTP374	ltpFR2	14	8	GLASS	639	n/a	n/a	0	0	0
1439480	START	n/a	LTP374	ltpFR2	14	n/a	n/a	n/a	11	n/a	n/a	n/a	n/a
1440515	DISTRACTOR	n/a	LTP374	ltpFR2	14	8	n/a	n/a	n/a	n/a	0	0	0
1440516	PROB	n/a	LTP374	ltpFR2	14	n/a	n/a	n/a	11	12	7	5	1
1441352	PROB	n/a	LTP374	ltpFR2	14	n/a	n/a	n/a	11	12	1	9	2
1442322	PROB	n/a	LTP374	ltpFR2	14	n/a	n/a	n/a	11	19	2	8	9
1443224	PROB	n/a	LTP374	ltpFR2	14	n/a	n/a	n/a	11	12	4	4	4
1443993	PROB	n/a	LTP374	ltpFR2	14	n/a	n/a	n/a	11	12	9	1	3
1445163	PROB	n/a	LTP374	ltpFR2	14	n/a	n/a	n/a	11	20	6	7	7
1446234	PROB	n/a	LTP374	ltpFR2	14	n/a	n/a	n/a	11	13	3	5	5
1447070	PROB	n/a	LTP374	ltpFR2	14	n/a	n/a	n/a	11	16	6	2	8
1447855	PROB	n/a	LTP374	ltpFR2	14	n/a	n/a	n/a	11	16	7	8	1
1448642	PROB	n/a	LTP374	ltpFR2	14	n/a	n/a	n/a	11	13	9	2	2
1449411	PROB	n/a	LTP374	ltpFR2	14	n/a	n/a	n/a	11	12	8	2	2
1450146	PROB	n/a	LTP374	ltpFR2	14	n/a	n/a	n/a	11	20	5	9	6
1451233	PROB	n/a	LTP374	ltpFR2	14	n/a	n/a	n/a	11	15	9	3	3
1452052	PROB	n/a	LTP374	ltpFR2	14	n/a	n/a	n/a	11	8	3	1	4
1452805	PROB	n/a	LTP374	ltpFR2	14	n/a	n/a	n/a	11	14	3	6	5
1454126	PROB	n/a	LTP374	ltpFR2	14	n/a	n/a	n/a	11	18	5	8	5
1455045	PROB	n/a	LTP374	ltpFR2	14	n/a	n/a	n/a	11	19	4	9	6
1456099	PROB	n/a	LTP374	ltpFR2	14	n/a	n/a	n/a	11	13	2	7	3
1456985	PROB	n/a	LTP374	ltpFR2	14	n/a	n/a	n/a	11	20	3	8	9
1458140	PROB	n/a	LTP374	ltpFR2	14	n/a	n/a	n/a	11	25	9	9	7
1459811	PROB	n/a	LTP374	ltpFR2	14	n/a	n/a	n/a	11	13	7	6	2
1460764	PROB	n/a	LTP374	ltpFR2	14	n/a	n/a	n/a	11	10	3	5	2
1462354	STOP	n/a	LTP374	ltpFR2	14	n/a	n/a	n/a	11	n/a	n/a	n/a	n/a
1465280	REC_START	n/a	LTP374	ltpFR2	14	8	n/a	n/a	n/a	n/a	0	0	0
1469496	REC_WORD	wordpools/wasnorm_wordpool_576.txt	LTP374	ltpFR2	14	8	FLESH	579	n/a	n/a	0	0	0
1471606	REC_WORD	wordpools/wasnorm_wordpool_576.txt	LTP374	ltpFR2	14	8	BOYFRIEND	162	n/a	n/a	0	0	0
1472802	REC_WORD	wordpools/wasnorm_wordpool_576.txt	LTP374	ltpFR2	14	8	TRUCK	1512	n/a	n/a	0	0	0
1473699	REC_WORD	wordpools/wasnorm_wordpool_576.txt	LTP374	ltpFR2	14	8	SIDEWALK	1303	n/a	n/a	0	0	0
1474560	REC_WORD	wordpools/wasnorm_wordpool_576.txt	LTP374	ltpFR2	14	8	VALVE	1546	n/a	n/a	0	0	0
1475618	REC_WORD	wordpools/wasnorm_wordpool_576.txt	LTP374	ltpFR2	14	8	CHAPEL	280	n/a	n/a	0	0	0
1476451	REC_WORD	wordpools/wasnorm_wordpool_576.txt	LTP374	ltpFR2	14	8	BRICK	172	n/a	n/a	0	0	0
1476978	REC_WORD	wordpools/wasnorm_wordpool_576.txt	LTP374	ltpFR2	14	8	HIGHWAY	707	n/a	n/a	0	0	0
1478012	REC_WORD	wordpools/wasnorm_wordpool_576.txt	LTP374	ltpFR2	14	8	HUMAN	726	n/a	n/a	0	0	0
1478983	REC_WORD	wordpools/wasnorm_wordpool_576.txt	LTP374	ltpFR2	14	8	ANKLE	24	n/a	n/a	0	0	0
1479726	REC_WORD	wordpools/wasnorm_wordpool_576.txt	LTP374	ltpFR2	14	8	WRIST	1626	n/a	n/a	0	0	0
1482967	REC_WORD	wordpools/wasnorm_wordpool_576.txt	LTP374	ltpFR2	14	8	VICTIM	1562	n/a	n/a	0	0	0
1483835	REC_WORD	wordpools/wasnorm_wordpool_576.txt	LTP374	ltpFR2	14	8	POISON	1096	n/a	n/a	0	0	0
1484444	REC_WORD	wordpools/wasnorm_wordpool_576.txt	LTP374	ltpFR2	14	8	SNAKE	1333	n/a	n/a	0	0	0
1485272	REC_WORD	wordpools/wasnorm_wordpool_576.txt	LTP374	ltpFR2	14	8	STAKE	1368	n/a	n/a	0	0	0
1490458	REC_WORD	wordpools/wasnorm_wordpool_576.txt	LTP374	ltpFR2	14	8	STONE	1385	n/a	n/a	0	0	0
1491360	REC_WORD	wordpools/wasnorm_wordpool_576.txt	LTP374	ltpFR2	14	8	MARKER	870	n/a	n/a	0	0	0
1492343	REC_WORD	wordpools/wasnorm_wordpool_576.txt	LTP374	ltpFR2	14	8	SKETCH	1315	n/a	n/a	0	0	0
1541810	REST_REWET	n/a	LTP374	ltpFR2	14	8	n/a	n/a	n/a	n/a	0	0	0
1700474	DISTRACTOR	n/a	LTP374	ltpFR2	14	9	n/a	n/a	n/a	n/a	0	0	0
1700475	START	n/a	LTP374	ltpFR2	14	n/a	n/a	n/a	12	n/a	n/a	n/a	n/a
1700491	PROB	n/a	LTP374	ltpFR2	14	n/a	n/a	n/a	12	15	2	4	9
1701192	PROB	n/a	LTP374	ltpFR2	14	n/a	n/a	n/a	12	16	9	2	5
1702196	PROB	n/a	LTP374	ltpFR2	14	n/a	n/a	n/a	12	18	1	7	9
1703249	PROB	n/a	LTP374	ltpFR2	14	n/a	n/a	n/a	12	13	2	6	5
1704185	PROB	n/a	LTP374	ltpFR2	14	n/a	n/a	n/a	12	12	3	7	2
1704955	PROB	n/a	LTP374	ltpFR2	14	n/a	n/a	n/a	12	5	2	1	2
1705641	PROB	n/a	LTP374	ltpFR2	14	n/a	n/a	n/a	12	15	8	5	2
1706527	PROB	n/a	LTP374	ltpFR2	14	n/a	n/a	n/a	12	14	5	1	8
1707380	PROB	n/a	LTP374	ltpFR2	14	n/a	n/a	n/a	12	12	9	3	1
1708198	PROB	n/a	LTP374	ltpFR2	14	n/a	n/a	n/a	12	20	9	6	6
1709068	PROB	n/a	LTP374	ltpFR2	14	n/a	n/a	n/a	12	15	6	8	1
1710473	PROB	n/a	LTP374	ltpFR2	14	n/a	n/a	n/a	12	13	7	2	6
1711443	PROB	n/a	LTP374	ltpFR2	14	n/a	n/a	n/a	12	8	3	1	4
1712346	PROB	n/a	LTP374	ltpFR2	14	n/a	n/a	n/a	12	16	9	2	5
1713867	PROB	n/a	LTP374	ltpFR2	14	n/a	n/a	n/a	12	18	1	8	9
1714654	PROB	n/a	LTP374	ltpFR2	14	n/a	n/a	n/a	12	11	1	9	1
1715473	PROB	n/a	LTP374	ltpFR2	14	n/a	n/a	n/a	12	14	7	1	6
1716510	PROB	n/a	LTP374	ltpFR2	14	n/a	n/a	n/a	12	22	8	7	7
1717746	PROB	n/a	LTP374	ltpFR2	14	n/a	n/a	n/a	12	15	3	3	9
1718466	PROB	n/a	LTP374	ltpFR2	14	n/a	n/a	n/a	12	9	2	3	4
1719285	PROB	n/a	LTP374	ltpFR2	14	n/a	n/a	n/a	12	13	3	8	2
1720322	PROB	n/a	LTP374	ltpFR2	14	n/a	n/a	n/a	12	16	7	2	7
1721559	PROB	n/a	LTP374	ltpFR2	14	n/a	n/a	n/a	12	4	1	2	1
1722646	PROB	n/a	LTP374	ltpFR2	14	n/a	n/a	n/a	12	20	3	9	8
1723633	STOP	n/a	LTP374	ltpFR2	14	n/a	n/a	n/a	12	n/a	n/a	n/a	n/a
1725505	WORD	wordpools/wasnorm_wordpool_576.txt	LTP374	ltpFR2	14	9	PEACH	1031	n/a	n/a	0	0	0
1727946	WORD	wordpools/wasnorm_wordpool_576.txt	LTP374	ltpFR2	14	9	CAPTIVE	240	n/a	n/a	0	0	0
1730622	WORD	wordpools/wasnorm_wordpool_576.txt	LTP374	ltpFR2	14	9	COUNTY	389	n/a	n/a	0	0	0
1733096	WORD	wordpools/wasnorm_wordpool_576.txt	LTP374	ltpFR2	14	9	COUNTRY	388	n/a	n/a	0	0	0
1735622	WORD	wordpools/wasnorm_wordpool_576.txt	LTP374	ltpFR2	14	9	TWIG	1527	n/a	n/a	0	0	0
1738414	WORD	wordpools/wasnorm_wordpool_576.txt	LTP374	ltpFR2	14	9	SPOON	1357	n/a	n/a	0	0	0
1741205	WORD	wordpools/wasnorm_wordpool_576.txt	LTP374	ltpFR2	14	9	KNIFE	785	n/a	n/a	0	0	0
1743814	WORD	wordpools/wasnorm_wordpool_576.txt	LTP374	ltpFR2	14	9	MEDAL	885	n/a	n/a	0	0	0
1746289	WORD	wordpools/wasnorm_wordpool_576.txt	LTP374	ltpFR2	14	9	BLACKBOARD	133	n/a	n/a	0	0	0
1749064	WORD	wordpools/wasnorm_wordpool_576.txt	LTP374	ltpFR2	14	9	LACE	792	n/a	n/a	0	0	0
1751557	WORD	wordpools/wasnorm_wordpool_576.txt	LTP374	ltpFR2	14	9	AIRPORT	13	n/a	n/a	0	0	0
1754349	WORD	wordpools/wasnorm_wordpool_576.txt	LTP374	ltpFR2	14	9	PLAID	1080	n/a	n/a	0	0	0
1757040	WORD	wordpools/wasnorm_wordpool_576.txt	LTP374	ltpFR2	14	9	GHETTO	633	n/a	n/a	0	0	0
1759516	WORD	wordpools/wasnorm_wordpool_576.txt	LTP374	ltpFR2	14	9	SHERIFF	1284	n/a	n/a	0	0	0
1762056	WORD	wordpools/wasnorm_wordpool_576.txt	LTP374	ltpFR2	14	9	SLOPE	1328	n/a	n/a	0	0	0
1764815	WORD	wordpools/wasnorm_wordpool_576.txt	LTP374	ltpFR2	14	9	GRAVEL	659	n/a	n/a	0	0	0
1767475	WORD	wordpools/wasnorm_wordpool_576.txt	LTP374	ltpFR2	14	9	PORK	1108	n/a	n/a	0	0	0
1770032	WORD	wordpools/wasnorm_wordpool_576.txt	LTP374	ltpFR2	14	9	SHRUB	1299	n/a	n/a	0	0	0
1772658	WORD	wordpools/wasnorm_wordpool_576.txt	LTP374	ltpFR2	14	9	SUSPECT	1415	n/a	n/a	0	0	0
1775082	WORD	wordpools/wasnorm_wordpool_576.txt	LTP374	ltpFR2	14	9	HERO	706	n/a	n/a	0	0	0
1777574	WORD	wordpools/wasnorm_wordpool_576.txt	LTP374	ltpFR2	14	9	KETCHUP	771	n/a	n/a	0	0	0
1780383	WORD	wordpools/wasnorm_wordpool_576.txt	LTP374	ltpFR2	14	9	TRACTOR	1493	n/a	n/a	0	0	0
1782890	WORD	wordpools/wasnorm_wordpool_576.txt	LTP374	ltpFR2	14	9	STALLION	1369	n/a	n/a	0	0	0
1785316	WORD	wordpools/wasnorm_wordpool_576.txt	LTP374	ltpFR2	14	9	AWARD	63	n/a	n/a	0	0	0
1786920	START	n/a	LTP374	ltpFR2	14	n/a	n/a	n/a	13	n/a	n/a	n/a	n/a
1788114	DISTRACTOR	n/a	LTP374	ltpFR2	14	9	n/a	n/a	n/a	n/a	0	0	0
1788124	PROB	n/a	LTP374	ltpFR2	14	n/a	n/a	n/a	13	17	8	6	3
1789379	PROB	n/a	LTP374	ltpFR2	14	n/a	n/a	n/a	13	16	1	7	8
1790164	PROB	n/a	LTP374	ltpFR2	14	n/a	n/a	n/a	13	15	3	7	4
1791134	PROB	n/a	LTP374	ltpFR2	14	n/a	n/a	n/a	13	9	1	1	7
1791836	PROB	n/a	LTP374	ltpFR2	14	n/a	n/a	n/a	13	16	3	5	8
1792689	PROB	n/a	LTP374	ltpFR2	14	n/a	n/a	n/a	13	16	4	3	9
1793459	PROB	n/a	LTP374	ltpFR2	14	n/a	n/a	n/a	13	13	8	2	3
1794160	PROB	n/a	LTP374	ltpFR2	14	n/a	n/a	n/a	13	14	7	1	6
1795365	PROB	n/a	LTP374	ltpFR2	14	n/a	n/a	n/a	13	19	3	8	5
1796452	PROB	n/a	LTP374	ltpFR2	14	n/a	n/a	n/a	13	10	2	6	2
1797438	PROB	n/a	LTP374	ltpFR2	14	n/a	n/a	n/a	13	13	1	3	9
1798274	PROB	n/a	LTP374	ltpFR2	14	n/a	n/a	n/a	13	19	2	9	7
1799411	PROB	n/a	LTP374	ltpFR2	14	n/a	n/a	n/a	13	9	4	2	3
1800230	PROB	n/a	LTP374	ltpFR2	14	n/a	n/a	n/a	13	13	2	2	9
1800932	PROB	n/a	LTP374	ltpFR2	14	n/a	n/a	n/a	13	16	4	7	5
1801868	PROB	n/a	LTP374	ltpFR2	14	n/a	n/a	n/a	13	19	7	5	7
1803122	PROB	n/a	LTP374	ltpFR2	14	n/a	n/a	n/a	13	16	5	9	2
1804042	PROB	n/a	LTP374	ltpFR2	14	n/a	n/a	n/a	13	17	8	1	8
1804912	PROB	n/a	LTP374	ltpFR2	14	n/a	n/a	n/a	13	19	8	8	3
1805931	PROB	n/a	LTP374	ltpFR2	14	n/a	n/a	n/a	13	11	1	5	5
1806818	PROB	n/a	LTP374	ltpFR2	14	n/a	n/a	n/a	13	16	2	9	5
1807672	PROB	n/a	LTP374	ltpFR2	14	n/a	n/a	n/a	13	11	8	2	1
1808641	PROB	n/a	LTP374	ltpFR2	14	n/a	n/a	n/a	13	5	1	3	1
1809394	PROB	n/a	LTP374	ltpFR2	14	n/a	n/a	n/a	13	17	9	7	1
1810284	STOP	n/a	LTP374	ltpFR2	14	n/a	n/a	n/a	13	n/a	n/a	n/a	n/a
1812738	REC_START	n/a	LTP374	ltpFR2	14	9	n/a	n/a	n/a	n/a	0	0	0
1813367	REC_WORD	wordpools/wasnorm_wordpool_576.txt	LTP374	ltpFR2	14	9	AWARD	63	n/a	n/a	0	0	0
1814014	REC_WORD	wordpools/wasnorm_wordpool_576.txt	LTP374	ltpFR2	14	9	HERO	706	n/a	n/a	0	0	0
1814651	REC_WORD	wordpools/wasnorm_wordpool_576.txt	LTP374	ltpFR2	14	9	MEDAL	885	n/a	n/a	0	0	0
1815301	REC_WORD	wordpools/wasnorm_wordpool_576.txt	LTP374	ltpFR2	14	9	TRACTOR	1493	n/a	n/a	0	0	0
1815884	REC_WORD	wordpools/wasnorm_wordpool_576.txt	LTP374	ltpFR2	14	9	SHERIFF	1284	n/a	n/a	0	0	0
1818614	REC_WORD	wordpools/wasnorm_wordpool_576.txt	LTP374	ltpFR2	14	9	WITNESS	1618	n/a	n/a	0	0	0
1819780	REC_WORD	wordpools/wasnorm_wordpool_576.txt	LTP374	ltpFR2	14	9	PORK	1108	n/a	n/a	0	0	0
1820422	REC_WORD	wordpools/wasnorm_wordpool_576.txt	LTP374	ltpFR2	14	9	KETCHUP	771	n/a	n/a	0	0	0
1821022	REC_WORD	wordpools/wasnorm_wordpool_576.txt	LTP374	ltpFR2	14	9	KNIFE	785	n/a	n/a	0	0	0
1821519	REC_WORD	wordpools/wasnorm_wordpool_576.txt	LTP374	ltpFR2	14	9	SPOON	1357	n/a	n/a	0	0	0
1823329	REC_WORD	wordpools/wasnorm_wordpool_576.txt	LTP374	ltpFR2	14	9	TWIG	1527	n/a	n/a	0	0	0
1824205	REC_WORD	wordpools/wasnorm_wordpool_576.txt	LTP374	ltpFR2	14	9	PLAID	1080	n/a	n/a	0	0	0
1825665	REC_WORD	wordpools/wasnorm_wordpool_576.txt	LTP374	ltpFR2	14	9	SHRUB	1299	n/a	n/a	0	0	0
1827300	REC_WORD	wordpools/wasnorm_wordpool_576.txt	LTP374	ltpFR2	14	9	PEACH	1031	n/a	n/a	0	0	0
1828335	REC_WORD	wordpools/wasnorm_wordpool_576.txt	LTP374	ltpFR2	14	9	LACE	792	n/a	n/a	0	0	0
1835774	REC_WORD	wordpools/wasnorm_wordpool_576.txt	LTP374	ltpFR2	14	9	COUNTY	389	n/a	n/a	0	0	0
1836384	REC_WORD	wordpools/wasnorm_wordpool_576.txt	LTP374	ltpFR2	14	9	COUNTRY	388	n/a	n/a	0	0	0
1837025	REC_WORD	wordpools/wasnorm_wordpool_576.txt	LTP374	ltpFR2	14	9	GHETTO	633	n/a	n/a	0	0	0
1838725	REC_WORD	wordpools/wasnorm_wordpool_576.txt	LTP374	ltpFR2	14	9	AIRPORT	13	n/a	n/a	0	0	0
1841643	REC_WORD	wordpools/wasnorm_wordpool_576.txt	LTP374	ltpFR2	14	9	GRAVEL	659	n/a	n/a	0	0	0
1903180	DISTRACTOR	n/a	LTP374	ltpFR2	14	10	n/a	n/a	n/a	n/a	0	0	0
1903180	START	n/a	LTP374	ltpFR2	14	n/a	n/a	n/a	14	n/a	n/a	n/a	n/a
1903197	PROB	n/a	LTP374	ltpFR2	14	n/a	n/a	n/a	14	12	8	2	2
1903882	PROB	n/a	LTP374	ltpFR2	14	n/a	n/a	n/a	14	13	9	4	1
1904802	PROB	n/a	LTP374	ltpFR2	14	n/a	n/a	n/a	14	20	4	8	8
1905688	PROB	n/a	LTP374	ltpFR2	14	n/a	n/a	n/a	14	15	7	4	4
1906542	PROB	n/a	LTP374	ltpFR2	14	n/a	n/a	n/a	14	24	7	8	9
1907461	PROB	n/a	LTP374	ltpFR2	14	n/a	n/a	n/a	14	120	2	9	9
1908731	PROB	n/a	LTP374	ltpFR2	14	n/a	n/a	n/a	14	7	4	2	1
1909701	PROB	n/a	LTP374	ltpFR2	14	n/a	n/a	n/a	14	11	5	3	3
1910704	PROB	n/a	LTP374	ltpFR2	14	n/a	n/a	n/a	14	19	2	9	8
1911741	PROB	n/a	LTP374	ltpFR2	14	n/a	n/a	n/a	14	13	9	2	3
1912561	PROB	n/a	LTP374	ltpFR2	14	n/a	n/a	n/a	14	20	9	6	5
1913581	PROB	n/a	LTP374	ltpFR2	14	n/a	n/a	n/a	14	14	5	2	7
1914484	PROB	n/a	LTP374	ltpFR2	14	n/a	n/a	n/a	14	7	2	1	4
1915287	PROB	n/a	LTP374	ltpFR2	14	n/a	n/a	n/a	14	13	2	6	8
1916374	PROB	n/a	LTP374	ltpFR2	14	n/a	n/a	n/a	14	10	6	1	3
1917175	PROB	n/a	LTP374	ltpFR2	14	n/a	n/a	n/a	14	25	8	9	6
1918730	PROB	n/a	LTP374	ltpFR2	14	n/a	n/a	n/a	14	16	9	2	5
1919733	PROB	n/a	LTP374	ltpFR2	14	n/a	n/a	n/a	14	15	6	1	8
1920971	PROB	n/a	LTP374	ltpFR2	14	n/a	n/a	n/a	14	19	7	9	4
1922091	PROB	n/a	LTP374	ltpFR2	14	n/a	n/a	n/a	14	18	5	5	8
1922894	PROB	n/a	LTP374	ltpFR2	14	n/a	n/a	n/a	14	14	2	8	4
1924215	PROB	n/a	LTP374	ltpFR2	14	n/a	n/a	n/a	14	20	8	9	3
1925369	PROB	n/a	LTP374	ltpFR2	14	n/a	n/a	n/a	14	9	4	1	4
1926503	STOP	n/a	LTP374	ltpFR2	14	n/a	n/a	n/a	14	n/a	n/a	n/a	n/a
1928379	WORD	wordpools/wasnorm_wordpool_576.txt	LTP374	ltpFR2	14	10	WIDOW	1608	n/a	n/a	0	0	0
1931087	WORD	wordpools/wasnorm_wordpool_576.txt	LTP374	ltpFR2	14	10	PUDDING	1139	n/a	n/a	0	0	0
1933779	WORD	wordpools/wasnorm_wordpool_576.txt	LTP374	ltpFR2	14	10	ACTRESS	6	n/a	n/a	0	0	0
1936271	WORD	wordpools/wasnorm_wordpool_576.txt	LTP374	ltpFR2	14	10	TRIBE	1505	n/a	n/a	0	0	0
1938979	WORD	wordpools/wasnorm_wordpool_576.txt	LTP374	ltpFR2	14	10	CUSTARD	429	n/a	n/a	0	0	0
1941471	WORD	wordpools/wasnorm_wordpool_576.txt	LTP374	ltpFR2	14	10	CLAM	315	n/a	n/a	0	0	0
1943995	WORD	wordpools/wasnorm_wordpool_576.txt	LTP374	ltpFR2	14	10	PANTHER	1009	n/a	n/a	0	0	0
1946605	WORD	wordpools/wasnorm_wordpool_576.txt	LTP374	ltpFR2	14	10	HONEY	713	n/a	n/a	0	0	0
1949297	WORD	wordpools/wasnorm_wordpool_576.txt	LTP374	ltpFR2	14	10	TRANSPLANT	1496	n/a	n/a	0	0	0
1951837	WORD	wordpools/wasnorm_wordpool_576.txt	LTP374	ltpFR2	14	10	CRITIC	410	n/a	n/a	0	0	0
1954313	WORD	wordpools/wasnorm_wordpool_576.txt	LTP374	ltpFR2	14	10	COCKTAIL	338	n/a	n/a	0	0	0
1956920	WORD	wordpools/wasnorm_wordpool_576.txt	LTP374	ltpFR2	14	10	SPONGE	1355	n/a	n/a	0	0	0
1959413	WORD	wordpools/wasnorm_wordpool_576.txt	LTP374	ltpFR2	14	10	BROOK	177	n/a	n/a	0	0	0
1962221	WORD	wordpools/wasnorm_wordpool_576.txt	LTP374	ltpFR2	14	10	SURVEY	1414	n/a	n/a	0	0	0
1964913	WORD	wordpools/wasnorm_wordpool_576.txt	LTP374	ltpFR2	14	10	PAPER	1011	n/a	n/a	0	0	0
1967722	WORD	wordpools/wasnorm_wordpool_576.txt	LTP374	ltpFR2	14	10	LEADER	807	n/a	n/a	0	0	0
1970499	WORD	wordpools/wasnorm_wordpool_576.txt	LTP374	ltpFR2	14	10	PRINCE	1124	n/a	n/a	0	0	0
1973039	WORD	wordpools/wasnorm_wordpool_576.txt	LTP374	ltpFR2	14	10	CLAMP	316	n/a	n/a	0	0	0
1975565	WORD	wordpools/wasnorm_wordpool_576.txt	LTP374	ltpFR2	14	10	STOMACH	1384	n/a	n/a	0	0	0
1978256	WORD	wordpools/wasnorm_wordpool_576.txt	LTP374	ltpFR2	14	10	ICING	732	n/a	n/a	0	0	0
1981015	WORD	wordpools/wasnorm_wordpool_576.txt	LTP374	ltpFR2	14	10	UNCLE	1536	n/a	n/a	0	0	0
1983524	WORD	wordpools/wasnorm_wordpool_576.txt	LTP374	ltpFR2	14	10	OZONE	996	n/a	n/a	0	0	0
1986249	WORD	wordpools/wasnorm_wordpool_576.txt	LTP374	ltpFR2	14	10	BALLOON	75	n/a	n/a	0	0	0
1988991	WORD	wordpools/wasnorm_wordpool_576.txt	LTP374	ltpFR2	14	10	WORKER	1621	n/a	n/a	0	0	0
1990598	START	n/a	LTP374	ltpFR2	14	n/a	n/a	n/a	15	n/a	n/a	n/a	n/a
1991492	DISTRACTOR	n/a	LTP374	ltpFR2	14	10	n/a	n/a	n/a	n/a	0	0	0
1991500	PROB	n/a	LTP374	ltpFR2	14	n/a	n/a	n/a	15	8	4	3	1
1992235	PROB	n/a	LTP374	ltpFR2	14	n/a	n/a	n/a	15	11	1	8	2
1993255	PROB	n/a	LTP374	ltpFR2	14	n/a	n/a	n/a	15	10	3	6	1
1994074	PROB	n/a	LTP374	ltpFR2	14	n/a	n/a	n/a	15	12	1	7	4
1994927	PROB	n/a	LTP374	ltpFR2	14	n/a	n/a	n/a	15	14	4	2	8
1996231	PROB	n/a	LTP374	ltpFR2	14	n/a	n/a	n/a	15	15	3	6	5
1997352	PROB	n/a	LTP374	ltpFR2	14	n/a	n/a	n/a	15	11	2	8	1
1998389	PROB	n/a	LTP374	ltpFR2	14	n/a	n/a	n/a	15	12	1	2	9
1999207	PROB	n/a	LTP374	ltpFR2	14	n/a	n/a	n/a	15	14	6	7	1
2000010	PROB	n/a	LTP374	ltpFR2	14	n/a	n/a	n/a	15	8	2	5	1
2000763	PROB	n/a	LTP374	ltpFR2	14	n/a	n/a	n/a	15	17	1	8	8
2001682	PROB	n/a	LTP374	ltpFR2	14	n/a	n/a	n/a	15	14	4	7	3
2002853	PROB	n/a	LTP374	ltpFR2	14	n/a	n/a	n/a	15	4	2	1	1
2003873	PROB	n/a	LTP374	ltpFR2	14	n/a	n/a	n/a	15	15	1	5	9
2004809	PROB	n/a	LTP374	ltpFR2	14	n/a	n/a	n/a	15	19	9	4	6
2005963	PROB	n/a	LTP374	ltpFR2	14	n/a	n/a	n/a	15	12	2	1	9
2006748	PROB	n/a	LTP374	ltpFR2	14	n/a	n/a	n/a	15	8	1	3	4
2007435	PROB	n/a	LTP374	ltpFR2	14	n/a	n/a	n/a	15	7	2	4	1
2008405	PROB	n/a	LTP374	ltpFR2	14	n/a	n/a	n/a	15	17	4	6	7
2009206	PROB	n/a	LTP374	ltpFR2	14	n/a	n/a	n/a	15	13	4	5	4
2010143	PROB	n/a	LTP374	ltpFR2	14	n/a	n/a	n/a	15	10	2	6	2
2011096	PROB	n/a	LTP374	ltpFR2	14	n/a	n/a	n/a	15	11	2	7	2
2012032	PROB	n/a	LTP374	ltpFR2	14	n/a	n/a	n/a	15	17	2	9	6
2013105	STOP	n/a	LTP374	ltpFR2	14	n/a	n/a	n/a	15	n/a	n/a	n/a	n/a
2016348	REC_START	n/a	LTP374	ltpFR2	14	10	n/a	n/a	n/a	n/a	0	0	0
2018086	REC_WORD	wordpools/wasnorm_wordpool_576.txt	LTP374	ltpFR2	14	10	UNCLE	1536	n/a	n/a	0	0	0
2018669	REC_WORD	wordpools/wasnorm_wordpool_576.txt	LTP374	ltpFR2	14	10	PRINCE	1124	n/a	n/a	0	0	0
2019338	REC_WORD	wordpools/wasnorm_wordpool_576.txt	LTP374	ltpFR2	14	10	OZONE	996	n/a	n/a	0	0	0
2019991	REC_WORD	wordpools/wasnorm_wordpool_576.txt	LTP374	ltpFR2	14	10	BALLOON	75	n/a	n/a	0	0	0
2020738	REC_WORD	wordpools/wasnorm_wordpool_576.txt	LTP374	ltpFR2	14	10	WORKER	1621	n/a	n/a	0	0	0
2022604	REC_WORD	wordpools/wasnorm_wordpool_576.txt	LTP374	ltpFR2	14	10	CRITIC	410	n/a	n/a	0	0	0
2023236	REC_WORD	wordpools/wasnorm_wordpool_576.txt	LTP374	ltpFR2	14	10	LEADER	807	n/a	n/a	0	0	0
2024121	REC_WORD	wordpools/wasnorm_wordpool_576.txt	LTP374	ltpFR2	14	10	PAPER	1011	n/a	n/a	0	0	0
2024730	REC_WORD	wordpools/wasnorm_wordpool_576.txt	LTP374	ltpFR2	14	10	SURVEY	1414	n/a	n/a	0	0	0
2029368	REC_WORD	wordpools/wasnorm_wordpool_576.txt	LTP374	ltpFR2	14	10	WIDOW	1608	n/a	n/a	0	0	0
2031214	REC_WORD	wordpools/wasnorm_wordpool_576.txt	LTP374	ltpFR2	14	10	ACTRESS	6	n/a	n/a	0	0	0
2034200	REC_WORD	wordpools/wasnorm_wordpool_576.txt	LTP374	ltpFR2	14	10	CUSTARD	429	n/a	n/a	0	0	0
2034952	REC_WORD	wordpools/wasnorm_wordpool_576.txt	LTP374	ltpFR2	14	10	PUDDING	1139	n/a	n/a	0	0	0
2106806	WORD	wordpools/wasnorm_wordpool_576.txt	LTP374	ltpFR2	14	11	CARROT	249	n/a	n/a	0	0	0
2109549	WORD	wordpools/wasnorm_wordpool_576.txt	LTP374	ltpFR2	14	11	COTTAGE	384	n/a	n/a	0	0	0
2112207	WORD	wordpools/wasnorm_wordpool_576.txt	LTP374	ltpFR2	14	11	JURY	766	n/a	n/a	0	0	0
2114649	WORD	wordpools/wasnorm_wordpool_576.txt	LTP374	ltpFR2	14	11	GUITAR	670	n/a	n/a	0	0	0
2117240	WORD	wordpools/wasnorm_wordpool_576.txt	LTP374	ltpFR2	14	11	WHISTLE	1606	n/a	n/a	0	0	0
2119932	WORD	wordpools/wasnorm_wordpool_576.txt	LTP374	ltpFR2	14	11	SNACK	1331	n/a	n/a	0	0	0
2122591	WORD	wordpools/wasnorm_wordpool_576.txt	LTP374	ltpFR2	14	11	IDOL	733	n/a	n/a	0	0	0
2125384	WORD	wordpools/wasnorm_wordpool_576.txt	LTP374	ltpFR2	14	11	GAVEL	627	n/a	n/a	0	0	0
2127941	WORD	wordpools/wasnorm_wordpool_576.txt	LTP374	ltpFR2	14	11	KNAPSACK	783	n/a	n/a	0	0	0
2130517	WORD	wordpools/wasnorm_wordpool_576.txt	LTP374	ltpFR2	14	11	PIMPLE	1071	n/a	n/a	0	0	0
2133177	WORD	wordpools/wasnorm_wordpool_576.txt	LTP374	ltpFR2	14	11	CATTLE	261	n/a	n/a	0	0	0
2135967	WORD	wordpools/wasnorm_wordpool_576.txt	LTP374	ltpFR2	14	11	PASTA	1021	n/a	n/a	0	0	0
2138709	WORD	wordpools/wasnorm_wordpool_576.txt	LTP374	ltpFR2	14	11	PASSAGE	1019	n/a	n/a	0	0	0
2141519	WORD	wordpools/wasnorm_wordpool_576.txt	LTP374	ltpFR2	14	11	QUARTER	1148	n/a	n/a	0	0	0
2144043	WORD	wordpools/wasnorm_wordpool_576.txt	LTP374	ltpFR2	14	11	LIGHTNING	820	n/a	n/a	0	0	0
2146835	WORD	wordpools/wasnorm_wordpool_576.txt	LTP374	ltpFR2	14	11	TORTOISE	1486	n/a	n/a	0	0	0
2149579	WORD	wordpools/wasnorm_wordpool_576.txt	LTP374	ltpFR2	14	11	RECEIPT	1173	n/a	n/a	0	0	0
2152253	WORD	wordpools/wasnorm_wordpool_576.txt	LTP374	ltpFR2	14	11	POSTAGE	1113	n/a	n/a	0	0	0
2154744	WORD	wordpools/wasnorm_wordpool_576.txt	LTP374	ltpFR2	14	11	STAMP	1370	n/a	n/a	0	0	0
2157337	WORD	wordpools/wasnorm_wordpool_576.txt	LTP374	ltpFR2	14	11	RELISH	1183	n/a	n/a	0	0	0
2159928	WORD	wordpools/wasnorm_wordpool_576.txt	LTP374	ltpFR2	14	11	SANDWICH	1232	n/a	n/a	0	0	0
2162654	WORD	wordpools/wasnorm_wordpool_576.txt	LTP374	ltpFR2	14	11	BLENDER	136	n/a	n/a	0	0	0
2165228	WORD	wordpools/wasnorm_wordpool_576.txt	LTP374	ltpFR2	14	11	SWORD	1423	n/a	n/a	0	0	0
2167971	WORD	wordpools/wasnorm_wordpool_576.txt	LTP374	ltpFR2	14	11	DRESS	495	n/a	n/a	0	0	0
2169577	START	n/a	LTP374	ltpFR2	14	n/a	n/a	n/a	16	n/a	n/a	n/a	n/a
2170712	DISTRACTOR	n/a	LTP374	ltpFR2	14	11	n/a	n/a	n/a	n/a	0	0	0
2170713	PROB	n/a	LTP374	ltpFR2	14	n/a	n/a	n/a	16	7	1	2	4
2171416	PROB	n/a	LTP374	ltpFR2	14	n/a	n/a	n/a	16	15	9	1	5
2172151	PROB	n/a	LTP374	ltpFR2	14	n/a	n/a	n/a	16	13	4	6	3
2172853	PROB	n/a	LTP374	ltpFR2	14	n/a	n/a	n/a	16	10	6	2	2
2173906	PROB	n/a	LTP374	ltpFR2	14	n/a	n/a	n/a	16	16	5	8	3
2174843	PROB	n/a	LTP374	ltpFR2	14	n/a	n/a	n/a	16	19	7	9	3
2175746	PROB	n/a	LTP374	ltpFR2	14	n/a	n/a	n/a	16	22	6	7	9
2176916	PROB	n/a	LTP374	ltpFR2	14	n/a	n/a	n/a	16	14	6	7	1
2177903	PROB	n/a	LTP374	ltpFR2	14	n/a	n/a	n/a	16	22	7	7	8
2178856	PROB	n/a	LTP374	ltpFR2	14	n/a	n/a	n/a	16	20	8	9	3
2179892	PROB	n/a	LTP374	ltpFR2	14	n/a	n/a	n/a	16	7	5	1	2
2180663	PROB	n/a	LTP374	ltpFR2	14	n/a	n/a	n/a	16	13	3	9	1
2181616	PROB	n/a	LTP374	ltpFR2	14	n/a	n/a	n/a	16	13	5	1	7
2182952	PROB	n/a	LTP374	ltpFR2	14	n/a	n/a	n/a	16	12	4	5	3
2183788	PROB	n/a	LTP374	ltpFR2	14	n/a	n/a	n/a	16	1	3	5	5
2184525	PROB	n/a	LTP374	ltpFR2	14	n/a	n/a	n/a	16	11	8	2	1
2185512	PROB	n/a	LTP374	ltpFR2	14	n/a	n/a	n/a	16	9	4	2	3
2186314	PROB	n/a	LTP374	ltpFR2	14	n/a	n/a	n/a	16	20	6	5	9
2187199	PROB	n/a	LTP374	ltpFR2	14	n/a	n/a	n/a	16	10	1	4	5
2188052	PROB	n/a	LTP374	ltpFR2	14	n/a	n/a	n/a	16	3	1	1	1
2188754	PROB	n/a	LTP374	ltpFR2	14	n/a	n/a	n/a	16	17	7	2	8
2189708	PROB	n/a	LTP374	ltpFR2	14	n/a	n/a	n/a	16	18	6	8	4
2190528	PROB	n/a	LTP374	ltpFR2	14	n/a	n/a	n/a	16	15	1	5	9
2191364	PROB	n/a	LTP374	ltpFR2	14	n/a	n/a	n/a	16	22	8	7	7
2192263	STOP	n/a	LTP374	ltpFR2	14	n/a	n/a	n/a	16	n/a	n/a	n/a	n/a
2195495	REC_START	n/a	LTP374	ltpFR2	14	11	n/a	n/a	n/a	n/a	0	0	0
2200108	REC_WORD	wordpools/wasnorm_wordpool_576.txt	LTP374	ltpFR2	14	11	CATTLE	261	n/a	n/a	0	0	0
2201198	REC_WORD	wordpools/wasnorm_wordpool_576.txt	LTP374	ltpFR2	14	11	TORTOISE	1486	n/a	n/a	0	0	0
2203549	REC_WORD	wordpools/wasnorm_wordpool_576.txt	LTP374	ltpFR2	14	11	KNAPSACK	783	n/a	n/a	0	0	0
2205132	REC_WORD	wordpools/wasnorm_wordpool_576.txt	LTP374	ltpFR2	14	11	GUITAR	670	n/a	n/a	0	0	0
2206246	REC_WORD	wordpools/wasnorm_wordpool_576.txt	LTP374	ltpFR2	14	11	PIMPLE	1071	n/a	n/a	0	0	0
2207664	REC_WORD	wordpools/wasnorm_wordpool_576.txt	LTP374	ltpFR2	14	11	SWORD	1423	n/a	n/a	0	0	0
2208744	REC_WORD	wordpools/wasnorm_wordpool_576.txt	LTP374	ltpFR2	14	11	LIGHTNING	820	n/a	n/a	0	0	0
2210117	REC_WORD	wordpools/wasnorm_wordpool_576.txt	LTP374	ltpFR2	14	11	JURY	766	n/a	n/a	0	0	0
2211097	REC_WORD	wordpools/wasnorm_wordpool_576.txt	LTP374	ltpFR2	14	11	SNACK	1331	n/a	n/a	0	0	0
2212646	REC_WORD	wordpools/wasnorm_wordpool_576.txt	LTP374	ltpFR2	14	11	RELISH	1183	n/a	n/a	0	0	0
2214022	REC_WORD	wordpools/wasnorm_wordpool_576.txt	LTP374	ltpFR2	14	11	SANDWICH	1232	n/a	n/a	0	0	0
2215260	REC_WORD	wordpools/wasnorm_wordpool_576.txt	LTP374	ltpFR2	14	11	PASTA	1021	n/a	n/a	0	0	0
2218860	REC_WORD	wordpools/wasnorm_wordpool_576.txt	LTP374	ltpFR2	14	11	SNACK	1331	n/a	n/a	0	0	0
2238158	REC_WORD	wordpools/wasnorm_wordpool_576.txt	LTP374	ltpFR2	14	11	COTTAGE	384	n/a	n/a	0	0	0
2239272	REC_WORD	wordpools/wasnorm_wordpool_576.txt	LTP374	ltpFR2	14	11	CARROT	249	n/a	n/a	0	0	0
2285936	DISTRACTOR	n/a	LTP374	ltpFR2	14	12	n/a	n/a	n/a	n/a	0	0	0
2285936	START	n/a	LTP374	ltpFR2	14	n/a	n/a	n/a	17	n/a	n/a	n/a	n/a
2285953	PROB	n/a	LTP374	ltpFR2	14	n/a	n/a	n/a	17	11	7	1	3
2286956	PROB	n/a	LTP374	ltpFR2	14	n/a	n/a	n/a	17	4	1	2	1
2287626	PROB	n/a	LTP374	ltpFR2	14	n/a	n/a	n/a	17	18	8	4	6
2288612	PROB	n/a	LTP374	ltpFR2	14	n/a	n/a	n/a	17	11	4	6	1
2289331	PROB	n/a	LTP374	ltpFR2	14	n/a	n/a	n/a	17	18	5	5	8
2290268	PROB	n/a	LTP374	ltpFR2	14	n/a	n/a	n/a	17	14	3	6	5
2291253	PROB	n/a	LTP374	ltpFR2	14	n/a	n/a	n/a	17	13	5	6	2
2292039	PROB	n/a	LTP374	ltpFR2	14	n/a	n/a	n/a	17	7	1	2	4
2292725	PROB	n/a	LTP374	ltpFR2	14	n/a	n/a	n/a	17	18	6	5	7
2293562	PROB	n/a	LTP374	ltpFR2	14	n/a	n/a	n/a	17	14	8	5	1
2294498	PROB	n/a	LTP374	ltpFR2	14	n/a	n/a	n/a	17	13	5	1	7
2295418	PROB	n/a	LTP374	ltpFR2	14	n/a	n/a	n/a	17	18	7	5	5
2296152	PROB	n/a	LTP374	ltpFR2	14	n/a	n/a	n/a	17	9	4	4	1
2296921	PROB	n/a	LTP374	ltpFR2	14	n/a	n/a	n/a	17	24	8	9	7
2297791	PROB	n/a	LTP374	ltpFR2	14	n/a	n/a	n/a	17	16	9	4	3
2299062	PROB	n/a	LTP374	ltpFR2	14	n/a	n/a	n/a	17	7	1	4	2
2299781	PROB	n/a	LTP374	ltpFR2	14	n/a	n/a	n/a	17	20	9	9	2
2300634	PROB	n/a	LTP374	ltpFR2	14	n/a	n/a	n/a	17	1	4	4	4
2301504	PROB	n/a	LTP374	ltpFR2	14	n/a	n/a	n/a	17	13	4	5	5
2302757	PROB	n/a	LTP374	ltpFR2	14	n/a	n/a	n/a	17	19	9	3	7
2303760	PROB	n/a	LTP374	ltpFR2	14	n/a	n/a	n/a	17	14	3	9	3
2305148	PROB	n/a	LTP374	ltpFR2	14	n/a	n/a	n/a	17	16	2	5	9
2305951	PROB	n/a	LTP374	ltpFR2	14	n/a	n/a	n/a	17	20	4	8	9
2306904	PROB	n/a	LTP374	ltpFR2	14	n/a	n/a	n/a	17	10	2	4	4
2307840	PROB	n/a	LTP374	ltpFR2	14	n/a	n/a	n/a	17	15	9	3	3
2308611	STOP	n/a	LTP374	ltpFR2	14	n/a	n/a	n/a	17	n/a	n/a	n/a	n/a
2310867	WORD	wordpools/wasnorm_wordpool_576.txt	LTP374	ltpFR2	14	12	CITRUS	313	n/a	n/a	0	0	0
2313309	WORD	wordpools/wasnorm_wordpool_576.txt	LTP374	ltpFR2	14	12	TAXI	1438	n/a	n/a	0	0	0
2315883	WORD	wordpools/wasnorm_wordpool_576.txt	LTP374	ltpFR2	14	12	DUST	508	n/a	n/a	0	0	0
2318459	WORD	wordpools/wasnorm_wordpool_576.txt	LTP374	ltpFR2	14	12	SERVER	1272	n/a	n/a	0	0	0
2321050	WORD	wordpools/wasnorm_wordpool_576.txt	LTP374	ltpFR2	14	12	ICEBERG	731	n/a	n/a	0	0	0
2323659	WORD	wordpools/wasnorm_wordpool_576.txt	LTP374	ltpFR2	14	12	KLEENEX	782	n/a	n/a	0	0	0
2326368	WORD	wordpools/wasnorm_wordpool_576.txt	LTP374	ltpFR2	14	12	DRESSER	496	n/a	n/a	0	0	0
2329176	WORD	wordpools/wasnorm_wordpool_576.txt	LTP374	ltpFR2	14	12	COLLEGE	346	n/a	n/a	0	0	0
2331784	WORD	wordpools/wasnorm_wordpool_576.txt	LTP374	ltpFR2	14	12	YARN	1631	n/a	n/a	0	0	0
2334377	WORD	wordpools/wasnorm_wordpool_576.txt	LTP374	ltpFR2	14	12	SPOOL	1356	n/a	n/a	0	0	0
2337102	WORD	wordpools/wasnorm_wordpool_576.txt	LTP374	ltpFR2	14	12	TROUT	1511	n/a	n/a	0	0	0
2339760	WORD	wordpools/wasnorm_wordpool_576.txt	LTP374	ltpFR2	14	12	PLAZA	1088	n/a	n/a	0	0	0
2342303	WORD	wordpools/wasnorm_wordpool_576.txt	LTP374	ltpFR2	14	12	BACKBONE	66	n/a	n/a	0	0	0
2345044	WORD	wordpools/wasnorm_wordpool_576.txt	LTP374	ltpFR2	14	12	CHEST	295	n/a	n/a	0	0	0
2347836	WORD	wordpools/wasnorm_wordpool_576.txt	LTP374	ltpFR2	14	12	OINTMENT	974	n/a	n/a	0	0	0
2350563	WORD	wordpools/wasnorm_wordpool_576.txt	LTP374	ltpFR2	14	12	POCKET	1093	n/a	n/a	0	0	0
2353254	WORD	wordpools/wasnorm_wordpool_576.txt	LTP374	ltpFR2	14	12	DONKEY	484	n/a	n/a	0	0	0
2355912	WORD	wordpools/wasnorm_wordpool_576.txt	LTP374	ltpFR2	14	12	TEMPLE	1448	n/a	n/a	0	0	0
2358572	WORD	wordpools/wasnorm_wordpool_576.txt	LTP374	ltpFR2	14	12	PREACHER	1119	n/a	n/a	0	0	0
2361348	WORD	wordpools/wasnorm_wordpool_576.txt	LTP374	ltpFR2	14	12	ACTOR	5	n/a	n/a	0	0	0
2363755	WORD	wordpools/wasnorm_wordpool_576.txt	LTP374	ltpFR2	14	12	ULCER	1533	n/a	n/a	0	0	0
2366347	WORD	wordpools/wasnorm_wordpool_576.txt	LTP374	ltpFR2	14	12	WHISKERS	1605	n/a	n/a	0	0	0
2369005	WORD	wordpools/wasnorm_wordpool_576.txt	LTP374	ltpFR2	14	12	NOTEBOOK	959	n/a	n/a	0	0	0
2371730	WORD	wordpools/wasnorm_wordpool_576.txt	LTP374	ltpFR2	14	12	ORANGE	980	n/a	n/a	0	0	0
2373337	START	n/a	LTP374	ltpFR2	14	n/a	n/a	n/a	18	n/a	n/a	n/a	n/a
2374371	DISTRACTOR	n/a	LTP374	ltpFR2	14	12	n/a	n/a	n/a	n/a	0	0	0
2374373	PROB	n/a	LTP374	ltpFR2	14	n/a	n/a	n/a	18	12	1	7	4
2375242	PROB	n/a	LTP374	ltpFR2	14	n/a	n/a	n/a	18	7	5	1	1
2376011	PROB	n/a	LTP374	ltpFR2	14	n/a	n/a	n/a	18	15	5	8	2
2376897	PROB	n/a	LTP374	ltpFR2	14	n/a	n/a	n/a	18	21	8	7	6
2378068	PROB	n/a	LTP374	ltpFR2	14	n/a	n/a	n/a	18	15	3	5	7
2378970	PROB	n/a	LTP374	ltpFR2	14	n/a	n/a	n/a	18	14	8	5	1
2379990	PROB	n/a	LTP374	ltpFR2	14	n/a	n/a	n/a	18	15	2	5	8
2380743	PROB	n/a	LTP374	ltpFR2	14	n/a	n/a	n/a	18	8	1	6	1
2381429	PROB	n/a	LTP374	ltpFR2	14	n/a	n/a	n/a	18	20	5	7	8
2382617	PROB	n/a	LTP374	ltpFR2	14	n/a	n/a	n/a	18	21	1	9	3
2383469	PROB	n/a	LTP374	ltpFR2	14	n/a	n/a	n/a	18	18	7	4	7
2384389	PROB	n/a	LTP374	ltpFR2	14	n/a	n/a	n/a	18	12	3	4	4
2385191	PROB	n/a	LTP374	ltpFR2	14	n/a	n/a	n/a	18	13	2	7	4
2386496	PROB	n/a	LTP374	ltpFR2	14	n/a	n/a	n/a	18	15	5	4	6
2387432	PROB	n/a	LTP374	ltpFR2	14	n/a	n/a	n/a	18	18	5	5	8
2388167	PROB	n/a	LTP374	ltpFR2	14	n/a	n/a	n/a	18	2	9	9	7
2389170	PROB	n/a	LTP374	ltpFR2	14	n/a	n/a	n/a	18	20	5	9	7
2390725	PROB	n/a	LTP374	ltpFR2	14	n/a	n/a	n/a	18	14	7	5	2
2391728	PROB	n/a	LTP374	ltpFR2	14	n/a	n/a	n/a	18	13	2	3	8
2393033	PROB	n/a	LTP374	ltpFR2	14	n/a	n/a	n/a	18	17	3	8	6
2394136	PROB	n/a	LTP374	ltpFR2	14	n/a	n/a	n/a	18	15	1	5	8
2395039	PROB	n/a	LTP374	ltpFR2	14	n/a	n/a	n/a	18	14	5	5	4
2395884	STOP	n/a	LTP374	ltpFR2	14	n/a	n/a	n/a	18	n/a	n/a	n/a	n/a
2399220	REC_START	n/a	LTP374	ltpFR2	14	12	n/a	n/a	n/a	n/a	0	0	0
2400604	REC_WORD	wordpools/wasnorm_wordpool_576.txt	LTP374	ltpFR2	14	12	ORANGE	980	n/a	n/a	0	0	0
2401173	REC_WORD	wordpools/wasnorm_wordpool_576.txt	LTP374	ltpFR2	14	12	CITRUS	313	n/a	n/a	0	0	0
2402071	REC_WORD	wordpools/wasnorm_wordpool_576.txt	LTP374	ltpFR2	14	12	TROUT	1511	n/a	n/a	0	0	0
2403192	REC_WORD	wordpools/wasnorm_wordpool_576.txt	LTP374	ltpFR2	14	12	DONKEY	484	n/a	n/a	0	0	0
2403997	REC_WORD	wordpools/wasnorm_wordpool_576.txt	LTP374	ltpFR2	14	12	WHISKERS	1605	n/a	n/a	0	0	0
2405189	REC_WORD	wordpools/wasnorm_wordpool_576.txt	LTP374	ltpFR2	14	12	SERVER	1272	n/a	n/a	0	0	0
2406354	REC_WORD	wordpools/wasnorm_wordpool_576.txt	LTP374	ltpFR2	14	12	TAXI	1438	n/a	n/a	0	0	0
2407390	REC_WORD	wordpools/wasnorm_wordpool_576.txt	LTP374	ltpFR2	14	12	POCKET	1093	n/a	n/a	0	0	0
2408534	REC_WORD	wordpools/wasnorm_wordpool_576.txt	LTP374	ltpFR2	14	12	NOTEBOOK	959	n/a	n/a	0	0	0
2411121	REC_WORD	wordpools/wasnorm_wordpool_576.txt	LTP374	ltpFR2	14	12	PREACHER	1119	n/a	n/a	0	0	0
2412759	REC_WORD	wordpools/wasnorm_wordpool_576.txt	LTP374	ltpFR2	14	12	ICEBERG	731	n/a	n/a	0	0	0
2436140	REC_WORD	wordpools/wasnorm_wordpool_576.txt	LTP374	ltpFR2	14	12	BACKBONE	66	n/a	n/a	0	0	0
2437402	REC_WORD	wordpools/wasnorm_wordpool_576.txt	LTP374	ltpFR2	14	12	CHEST	295	n/a	n/a	0	0	0
2438537	REC_WORD	wordpools/wasnorm_wordpool_576.txt	LTP374	ltpFR2	14	12	ULCER	1533	n/a	n/a	0	0	0
2439650	REC_WORD	wordpools/wasnorm_wordpool_576.txt	LTP374	ltpFR2	14	12	OINTMENT	974	n/a	n/a	0	0	0
2489680	WORD	wordpools/wasnorm_wordpool_576.txt	LTP374	ltpFR2	14	13	FLIPPER	580	n/a	n/a	0	0	0
2492170	WORD	wordpools/wasnorm_wordpool_576.txt	LTP374	ltpFR2	14	13	BOX	159	n/a	n/a	0	0	0
2494745	WORD	wordpools/wasnorm_wordpool_576.txt	LTP374	ltpFR2	14	13	WOMAN	1620	n/a	n/a	0	0	0
2497505	WORD	wordpools/wasnorm_wordpool_576.txt	LTP374	ltpFR2	14	13	GIRL	637	n/a	n/a	0	0	0
2500029	WORD	wordpools/wasnorm_wordpool_576.txt	LTP374	ltpFR2	14	13	SCARECROW	1245	n/a	n/a	0	0	0
2502588	WORD	wordpools/wasnorm_wordpool_576.txt	LTP374	ltpFR2	14	13	COIN	343	n/a	n/a	0	0	0
2505146	WORD	wordpools/wasnorm_wordpool_576.txt	LTP374	ltpFR2	14	13	COMET	353	n/a	n/a	0	0	0
2507804	WORD	wordpools/wasnorm_wordpool_576.txt	LTP374	ltpFR2	14	13	PRINCESS	1125	n/a	n/a	0	0	0
2510447	WORD	wordpools/wasnorm_wordpool_576.txt	LTP374	ltpFR2	14	13	SIBLING	1301	n/a	n/a	0	0	0
2513239	WORD	wordpools/wasnorm_wordpool_576.txt	LTP374	ltpFR2	14	13	FIDDLE	561	n/a	n/a	0	0	0
2515947	WORD	wordpools/wasnorm_wordpool_576.txt	LTP374	ltpFR2	14	13	FLUTE	585	n/a	n/a	0	0	0
2518706	WORD	wordpools/wasnorm_wordpool_576.txt	LTP374	ltpFR2	14	13	CROWN	415	n/a	n/a	0	0	0
2521181	WORD	wordpools/wasnorm_wordpool_576.txt	LTP374	ltpFR2	14	13	SEAGULL	1261	n/a	n/a	0	0	0
2523657	WORD	wordpools/wasnorm_wordpool_576.txt	LTP374	ltpFR2	14	13	BELLY	119	n/a	n/a	0	0	0
2526449	WORD	wordpools/wasnorm_wordpool_576.txt	LTP374	ltpFR2	14	13	GRIZZLY	662	n/a	n/a	0	0	0
2528990	WORD	wordpools/wasnorm_wordpool_576.txt	LTP374	ltpFR2	14	13	BEEF	113	n/a	n/a	0	0	0
2531732	WORD	wordpools/wasnorm_wordpool_576.txt	LTP374	ltpFR2	14	13	DOLPHIN	483	n/a	n/a	0	0	0
2534475	WORD	wordpools/wasnorm_wordpool_576.txt	LTP374	ltpFR2	14	13	REPORT	1184	n/a	n/a	0	0	0
2536965	WORD	wordpools/wasnorm_wordpool_576.txt	LTP374	ltpFR2	14	13	BINDER	127	n/a	n/a	0	0	0
2539424	WORD	wordpools/wasnorm_wordpool_576.txt	LTP374	ltpFR2	14	13	BEAKER	104	n/a	n/a	0	0	0
2542182	WORD	wordpools/wasnorm_wordpool_576.txt	LTP374	ltpFR2	14	13	GLOBE	641	n/a	n/a	0	0	0
2544690	WORD	wordpools/wasnorm_wordpool_576.txt	LTP374	ltpFR2	14	13	PROTON	1132	n/a	n/a	0	0	0
2547400	WORD	wordpools/wasnorm_wordpool_576.txt	LTP374	ltpFR2	14	13	NEUTRON	947	n/a	n/a	0	0	0
2550208	WORD	wordpools/wasnorm_wordpool_576.txt	LTP374	ltpFR2	14	13	TOMBSTONE	1478	n/a	n/a	0	0	0
2551814	START	n/a	LTP374	ltpFR2	14	n/a	n/a	n/a	19	n/a	n/a	n/a	n/a
2552921	DISTRACTOR	n/a	LTP374	ltpFR2	14	13	n/a	n/a	n/a	n/a	0	0	0
2552934	PROB	n/a	LTP374	ltpFR2	14	n/a	n/a	n/a	19	11	3	2	6
2554021	PROB	n/a	LTP374	ltpFR2	14	n/a	n/a	n/a	19	20	7	7	6
2554890	PROB	n/a	LTP374	ltpFR2	14	n/a	n/a	n/a	19	11	7	2	2
2555759	PROB	n/a	LTP374	ltpFR2	14	n/a	n/a	n/a	19	12	1	4	7
2556463	PROB	n/a	LTP374	ltpFR2	14	n/a	n/a	n/a	19	14	3	5	6
2557749	PROB	n/a	LTP374	ltpFR2	14	n/a	n/a	n/a	19	1	1	7	3
2558586	PROB	n/a	LTP374	ltpFR2	14	n/a	n/a	n/a	19	14	4	5	5
2559406	PROB	n/a	LTP374	ltpFR2	14	n/a	n/a	n/a	19	2	9	8	3
2560409	PROB	n/a	LTP374	ltpFR2	14	n/a	n/a	n/a	19	13	4	1	8
2561379	PROB	n/a	LTP374	ltpFR2	14	n/a	n/a	n/a	19	6	1	2	3
2562063	PROB	n/a	LTP374	ltpFR2	14	n/a	n/a	n/a	19	18	2	7	9
2563016	PROB	n/a	LTP374	ltpFR2	14	n/a	n/a	n/a	19	12	9	2	1
2563769	PROB	n/a	LTP374	ltpFR2	14	n/a	n/a	n/a	19	20	8	9	3
2564705	PROB	n/a	LTP374	ltpFR2	14	n/a	n/a	n/a	19	13	5	4	4
2565659	PROB	n/a	LTP374	ltpFR2	14	n/a	n/a	n/a	19	22	7	8	7
2566679	PROB	n/a	LTP374	ltpFR2	14	n/a	n/a	n/a	19	19	2	8	9
2567482	PROB	n/a	LTP374	ltpFR2	14	n/a	n/a	n/a	19	14	6	7	1
2568602	PROB	n/a	LTP374	ltpFR2	14	n/a	n/a	n/a	19	17	3	7	7
2569622	PROB	n/a	LTP374	ltpFR2	14	n/a	n/a	n/a	19	10	4	2	4
2570492	PROB	n/a	LTP374	ltpFR2	14	n/a	n/a	n/a	19	18	8	7	2
2571629	PROB	n/a	LTP374	ltpFR2	14	n/a	n/a	n/a	19	18	9	8	1
2572548	PROB	n/a	LTP374	ltpFR2	14	n/a	n/a	n/a	19	19	6	8	5
2573635	PROB	n/a	LTP374	ltpFR2	14	n/a	n/a	n/a	19	10	4	4	2
2574386	STOP	n/a	LTP374	ltpFR2	14	n/a	n/a	n/a	19	n/a	n/a	n/a	n/a
2577632	REC_START	n/a	LTP374	ltpFR2	14	13	n/a	n/a	n/a	n/a	0	0	0
2578507	REC_WORD	wordpools/wasnorm_wordpool_576.txt	LTP374	ltpFR2	14	13	GRIZZLY	662	n/a	n/a	0	0	0
2579506	REC_WORD	wordpools/wasnorm_wordpool_576.txt	LTP374	ltpFR2	14	13	DOLPHIN	483	n/a	n/a	0	0	0
2580553	REC_WORD	wordpools/wasnorm_wordpool_576.txt	LTP374	ltpFR2	14	13	BEEF	113	n/a	n/a	0	0	0
2581751	REC_WORD	wordpools/wasnorm_wordpool_576.txt	LTP374	ltpFR2	14	13	CROWN	415	n/a	n/a	0	0	0
2582665	REC_WORD	wordpools/wasnorm_wordpool_576.txt	LTP374	ltpFR2	14	13	COMET	353	n/a	n/a	0	0	0
2583791	REC_WORD	wordpools/wasnorm_wordpool_576.txt	LTP374	ltpFR2	14	13	BELLY	119	n/a	n/a	0	0	0
2586702	REC_WORD	wordpools/wasnorm_wordpool_576.txt	LTP374	ltpFR2	14	13	SISTER	1312	n/a	n/a	0	0	0
2587702	REC_WORD_VV	wordpools/wasnorm_wordpool_576.txt	LTP374	ltpFR2	14	13	<>	-1	n/a	n/a	0	0	0
2588102	REC_WORD	wordpools/wasnorm_wordpool_576.txt	LTP374	ltpFR2	14	13	GIRL	637	n/a	n/a	0	0	0
2588756	REC_WORD	wordpools/wasnorm_wordpool_576.txt	LTP374	ltpFR2	14	13	WOMAN	1620	n/a	n/a	0	0	0
2590022	REC_WORD	wordpools/wasnorm_wordpool_576.txt	LTP374	ltpFR2	14	13	BOX	159	n/a	n/a	0	0	0
2592769	REC_WORD	wordpools/wasnorm_wordpool_576.txt	LTP374	ltpFR2	14	13	COIN	343	n/a	n/a	0	0	0
2595644	REC_WORD	wordpools/wasnorm_wordpool_576.txt	LTP374	ltpFR2	14	13	FLIPPER	580	n/a	n/a	0	0	0
2597248	REC_WORD	wordpools/wasnorm_wordpool_576.txt	LTP374	ltpFR2	14	13	FIDDLE	561	n/a	n/a	0	0	0
2598196	REC_WORD	wordpools/wasnorm_wordpool_576.txt	LTP374	ltpFR2	14	13	FLUTE	585	n/a	n/a	0	0	0
2599834	REC_WORD	wordpools/wasnorm_wordpool_576.txt	LTP374	ltpFR2	14	13	BEAKER	104	n/a	n/a	0	0	0
2606244	REC_WORD	wordpools/wasnorm_wordpool_576.txt	LTP374	ltpFR2	14	13	PROTON	1132	n/a	n/a	0	0	0
2606883	REC_WORD	wordpools/wasnorm_wordpool_576.txt	LTP374	ltpFR2	14	13	NEUTRON	947	n/a	n/a	0	0	0
2668090	WORD	wordpools/wasnorm_wordpool_576.txt	LTP374	ltpFR2	14	14	PILOT	1070	n/a	n/a	0	0	0
2670749	WORD	wordpools/wasnorm_wordpool_576.txt	LTP374	ltpFR2	14	14	NAPKIN	937	n/a	n/a	0	0	0
2673206	WORD	wordpools/wasnorm_wordpool_576.txt	LTP374	ltpFR2	14	14	RIVER	1194	n/a	n/a	0	0	0
2675765	WORD	wordpools/wasnorm_wordpool_576.txt	LTP374	ltpFR2	14	14	PERFUME	1049	n/a	n/a	0	0	0
2678458	WORD	wordpools/wasnorm_wordpool_576.txt	LTP374	ltpFR2	14	14	HAND	683	n/a	n/a	0	0	0
2680965	WORD	wordpools/wasnorm_wordpool_576.txt	LTP374	ltpFR2	14	14	TWISTER	1530	n/a	n/a	0	0	0
2683658	WORD	wordpools/wasnorm_wordpool_576.txt	LTP374	ltpFR2	14	14	PATIENT	1024	n/a	n/a	0	0	0
2686132	WORD	wordpools/wasnorm_wordpool_576.txt	LTP374	ltpFR2	14	14	LAGOON	795	n/a	n/a	0	0	0
2688807	WORD	wordpools/wasnorm_wordpool_576.txt	LTP374	ltpFR2	14	14	HORSE	719	n/a	n/a	0	0	0
2691617	WORD	wordpools/wasnorm_wordpool_576.txt	LTP374	ltpFR2	14	14	OX	994	n/a	n/a	0	0	0
2694376	WORD	wordpools/wasnorm_wordpool_576.txt	LTP374	ltpFR2	14	14	CELLAR	267	n/a	n/a	0	0	0
2696950	WORD	wordpools/wasnorm_wordpool_576.txt	LTP374	ltpFR2	14	14	BASEMENT	94	n/a	n/a	0	0	0
2699560	WORD	wordpools/wasnorm_wordpool_576.txt	LTP374	ltpFR2	14	14	TWEEZERS	1526	n/a	n/a	0	0	0
2702167	WORD	wordpools/wasnorm_wordpool_576.txt	LTP374	ltpFR2	14	14	CUPBOARD	425	n/a	n/a	0	0	0
2704593	WORD	wordpools/wasnorm_wordpool_576.txt	LTP374	ltpFR2	14	14	DONOR	485	n/a	n/a	0	0	0
2707150	WORD	wordpools/wasnorm_wordpool_576.txt	LTP374	ltpFR2	14	14	COOK	372	n/a	n/a	0	0	0
2709642	WORD	wordpools/wasnorm_wordpool_576.txt	LTP374	ltpFR2	14	14	KITCHEN	778	n/a	n/a	0	0	0
2712334	WORD	wordpools/wasnorm_wordpool_576.txt	LTP374	ltpFR2	14	14	TABLE	1426	n/a	n/a	0	0	0
2714975	WORD	wordpools/wasnorm_wordpool_576.txt	LTP374	ltpFR2	14	14	CLOUD	328	n/a	n/a	0	0	0
2717451	WORD	wordpools/wasnorm_wordpool_576.txt	LTP374	ltpFR2	14	14	LAVA	804	n/a	n/a	0	0	0
2720175	WORD	wordpools/wasnorm_wordpool_576.txt	LTP374	ltpFR2	14	14	PAIL	1002	n/a	n/a	0	0	0
2722651	WORD	wordpools/wasnorm_wordpool_576.txt	LTP374	ltpFR2	14	14	HORNET	718	n/a	n/a	0	0	0
2725108	WORD	wordpools/wasnorm_wordpool_576.txt	LTP374	ltpFR2	14	14	TROMBONE	1508	n/a	n/a	0	0	0
2727850	WORD	wordpools/wasnorm_wordpool_576.txt	LTP374	ltpFR2	14	14	OFFICE	972	n/a	n/a	0	0	0
2729457	START	n/a	LTP374	ltpFR2	14	n/a	n/a	n/a	20	n/a	n/a	n/a	n/a
2730548	DISTRACTOR	n/a	LTP374	ltpFR2	14	14	n/a	n/a	n/a	n/a	0	0	0
2730560	PROB	n/a	LTP374	ltpFR2	14	n/a	n/a	n/a	20	12	8	2	2
2731346	PROB	n/a	LTP374	ltpFR2	14	n/a	n/a	n/a	20	11	3	3	5
2732181	PROB	n/a	LTP374	ltpFR2	14	n/a	n/a	n/a	20	9	1	1	7
2732866	PROB	n/a	LTP374	ltpFR2	14	n/a	n/a	n/a	20	1	7	2	7
2733819	PROB	n/a	LTP374	ltpFR2	14	n/a	n/a	n/a	20	12	4	2	5
2734673	PROB	n/a	LTP374	ltpFR2	14	n/a	n/a	n/a	20	7	1	2	4
2735476	PROB	n/a	LTP374	ltpFR2	14	n/a	n/a	n/a	20	15	7	6	4
2736579	PROB	n/a	LTP374	ltpFR2	14	n/a	n/a	n/a	20	21	7	7	7
2737332	PROB	n/a	LTP374	ltpFR2	14	n/a	n/a	n/a	20	17	8	3	6
2738486	PROB	n/a	LTP374	ltpFR2	14	n/a	n/a	n/a	20	20	8	4	8
2739939	PROB	n/a	LTP374	ltpFR2	14	n/a	n/a	n/a	20	12	6	2	4
2740775	PROB	n/a	LTP374	ltpFR2	14	n/a	n/a	n/a	20	15	2	4	9
2741596	PROB	n/a	LTP374	ltpFR2	14	n/a	n/a	n/a	20	15	3	7	5
2742549	PROB	n/a	LTP374	ltpFR2	14	n/a	n/a	n/a	20	10	5	4	1
2743502	PROB	n/a	LTP374	ltpFR2	14	n/a	n/a	n/a	20	14	4	6	4
2744236	PROB	n/a	LTP374	ltpFR2	14	n/a	n/a	n/a	20	1	5	7	7
2745089	PROB	n/a	LTP374	ltpFR2	14	n/a	n/a	n/a	20	17	5	7	5
2745992	PROB	n/a	LTP374	ltpFR2	14	n/a	n/a	n/a	20	10	1	6	3
2746812	PROB	n/a	LTP374	ltpFR2	14	n/a	n/a	n/a	20	16	6	3	7
2747598	PROB	n/a	LTP374	ltpFR2	14	n/a	n/a	n/a	20	14	3	7	4
2749035	PROB	n/a	LTP374	ltpFR2	14	n/a	n/a	n/a	20	17	9	3	5
2750156	PROB	n/a	LTP374	ltpFR2	14	n/a	n/a	n/a	20	7	4	1	2
2750908	PROB	n/a	LTP374	ltpFR2	14	n/a	n/a	n/a	20	22	5	8	9
2752151	STOP	n/a	LTP374	ltpFR2	14	n/a	n/a	n/a	20	n/a	n/a	n/a	n/a
2755341	REC_START	n/a	LTP374	ltpFR2	14	14	n/a	n/a	n/a	n/a	0	0	0
2756589	REC_WORD	wordpools/wasnorm_wordpool_576.txt	LTP374	ltpFR2	14	14	HORNET	718	n/a	n/a	0	0	0
2757161	REC_WORD	wordpools/wasnorm_wordpool_576.txt	LTP374	ltpFR2	14	14	TROMBONE	1508	n/a	n/a	0	0	0
2758263	REC_WORD	wordpools/wasnorm_wordpool_576.txt	LTP374	ltpFR2	14	14	CLOUD	328	n/a	n/a	0	0	0
2758964	REC_WORD	wordpools/wasnorm_wordpool_576.txt	LTP374	ltpFR2	14	14	LAVA	804	n/a	n/a	0	0	0
2761123	REC_WORD	wordpools/wasnorm_wordpool_576.txt	LTP374	ltpFR2	14	14	CELLAR	267	n/a	n/a	0	0	0
2762049	REC_WORD	wordpools/wasnorm_wordpool_576.txt	LTP374	ltpFR2	14	14	BASEMENT	94	n/a	n/a	0	0	0
2763449	REC_WORD	wordpools/wasnorm_wordpool_576.txt	LTP374	ltpFR2	14	14	KITCHEN	778	n/a	n/a	0	0	0
2764813	REC_WORD	wordpools/wasnorm_wordpool_576.txt	LTP374	ltpFR2	14	14	TABLE	1426	n/a	n/a	0	0	0
2767169	REC_WORD	wordpools/wasnorm_wordpool_576.txt	LTP374	ltpFR2	14	14	COOK	372	n/a	n/a	0	0	0
2772124	REC_WORD	wordpools/wasnorm_wordpool_576.txt	LTP374	ltpFR2	14	14	PILOT	1070	n/a	n/a	0	0	0
2772756	REC_WORD	wordpools/wasnorm_wordpool_576.txt	LTP374	ltpFR2	14	14	HAND	683	n/a	n/a	0	0	0
2773454	REC_WORD	wordpools/wasnorm_wordpool_576.txt	LTP374	ltpFR2	14	14	PERFUME	1049	n/a	n/a	0	0	0
2775061	REC_WORD	wordpools/wasnorm_wordpool_576.txt	LTP374	ltpFR2	14	14	TWISTER	1530	n/a	n/a	0	0	0
2778845	REC_WORD	wordpools/wasnorm_wordpool_576.txt	LTP374	ltpFR2	14	14	RIVER	1194	n/a	n/a	0	0	0
2779452	REC_WORD	wordpools/wasnorm_wordpool_576.txt	LTP374	ltpFR2	14	14	LAGOON	795	n/a	n/a	0	0	0
2783091	REC_WORD	wordpools/wasnorm_wordpool_576.txt	LTP374	ltpFR2	14	14	HORSE	719	n/a	n/a	0	0	0
2783983	REC_WORD	wordpools/wasnorm_wordpool_576.txt	LTP374	ltpFR2	14	14	OX	994	n/a	n/a	0	0	0
2845799	WORD	wordpools/wasnorm_wordpool_576.txt	LTP374	ltpFR2	14	15	PARENT	1013	n/a	n/a	0	0	0
2848525	WORD	wordpools/wasnorm_wordpool_576.txt	LTP374	ltpFR2	14	15	DRAWING	494	n/a	n/a	0	0	0
2851183	WORD	wordpools/wasnorm_wordpool_576.txt	LTP374	ltpFR2	14	15	FLASHLIGHT	575	n/a	n/a	0	0	0
2853758	WORD	wordpools/wasnorm_wordpool_576.txt	LTP374	ltpFR2	14	15	TUNNEL	1519	n/a	n/a	0	0	0
2856468	WORD	wordpools/wasnorm_wordpool_576.txt	LTP374	ltpFR2	14	15	SWITCH	1422	n/a	n/a	0	0	0
2858958	WORD	wordpools/wasnorm_wordpool_576.txt	LTP374	ltpFR2	14	15	OMELET	976	n/a	n/a	0	0	0
2861618	WORD	wordpools/wasnorm_wordpool_576.txt	LTP374	ltpFR2	14	15	LAKE	796	n/a	n/a	0	0	0
2864125	WORD	wordpools/wasnorm_wordpool_576.txt	LTP374	ltpFR2	14	15	MARINE	869	n/a	n/a	0	0	0
2866733	WORD	wordpools/wasnorm_wordpool_576.txt	LTP374	ltpFR2	14	15	FOREST	593	n/a	n/a	0	0	0
2869460	WORD	wordpools/wasnorm_wordpool_576.txt	LTP374	ltpFR2	14	15	LUMBER	848	n/a	n/a	0	0	0
2872101	WORD	wordpools/wasnorm_wordpool_576.txt	LTP374	ltpFR2	14	15	LASER	801	n/a	n/a	0	0	0
2874692	WORD	wordpools/wasnorm_wordpool_576.txt	LTP374	ltpFR2	14	15	SCALPEL	1243	n/a	n/a	0	0	0
2877184	WORD	wordpools/wasnorm_wordpool_576.txt	LTP374	ltpFR2	14	15	MARKET	871	n/a	n/a	0	0	0
2879609	WORD	wordpools/wasnorm_wordpool_576.txt	LTP374	ltpFR2	14	15	CASKET	255	n/a	n/a	0	0	0
2882183	WORD	wordpools/wasnorm_wordpool_576.txt	LTP374	ltpFR2	14	15	FIREPLACE	570	n/a	n/a	0	0	0
2884792	WORD	wordpools/wasnorm_wordpool_576.txt	LTP374	ltpFR2	14	15	FRAME	600	n/a	n/a	0	0	0
2887401	WORD	wordpools/wasnorm_wordpool_576.txt	LTP374	ltpFR2	14	15	VENUS	1557	n/a	n/a	0	0	0
2890042	WORD	wordpools/wasnorm_wordpool_576.txt	LTP374	ltpFR2	14	15	CYCLONE	431	n/a	n/a	0	0	0
2892801	WORD	wordpools/wasnorm_wordpool_576.txt	LTP374	ltpFR2	14	15	VIRUS	1572	n/a	n/a	0	0	0
2895225	WORD	wordpools/wasnorm_wordpool_576.txt	LTP374	ltpFR2	14	15	LIZARD	834	n/a	n/a	0	0	0
2897683	WORD	wordpools/wasnorm_wordpool_576.txt	LTP374	ltpFR2	14	15	GALLON	618	n/a	n/a	0	0	0
2900310	WORD	wordpools/wasnorm_wordpool_576.txt	LTP374	ltpFR2	14	15	BOUQUET	157	n/a	n/a	0	0	0
2902867	WORD	wordpools/wasnorm_wordpool_576.txt	LTP374	ltpFR2	14	15	LAMP	798	n/a	n/a	0	0	0
2905292	WORD	wordpools/wasnorm_wordpool_576.txt	LTP374	ltpFR2	14	15	PUDDLE	1140	n/a	n/a	0	0	0
2906897	START	n/a	LTP374	ltpFR2	14	n/a	n/a	n/a	21	n/a	n/a	n/a	n/a
2907895	DISTRACTOR	n/a	LTP374	ltpFR2	14	15	n/a	n/a	n/a	n/a	0	0	0
2907900	PROB	n/a	LTP374	ltpFR2	14	n/a	n/a	n/a	21	19	8	6	5
2909154	PROB	n/a	LTP374	ltpFR2	14	n/a	n/a	n/a	21	15	4	3	8
2909890	PROB	n/a	LTP374	ltpFR2	14	n/a	n/a	n/a	21	21	9	3	9
2910910	PROB	n/a	LTP374	ltpFR2	14	n/a	n/a	n/a	21	18	1	9	8
2911863	PROB	n/a	LTP374	ltpFR2	14	n/a	n/a	n/a	21	14	3	6	5
2912833	PROB	n/a	LTP374	ltpFR2	14	n/a	n/a	n/a	21	17	2	6	9
2913735	PROB	n/a	LTP374	ltpFR2	14	n/a	n/a	n/a	21	12	3	7	2
2914439	PROB	n/a	LTP374	ltpFR2	14	n/a	n/a	n/a	21	21	8	7	6
2915708	PROB	n/a	LTP374	ltpFR2	14	n/a	n/a	n/a	21	21	6	9	6
2916646	PROB	n/a	LTP374	ltpFR2	14	n/a	n/a	n/a	21	19	6	4	9
2917398	PROB	n/a	LTP374	ltpFR2	14	n/a	n/a	n/a	21	12	2	6	4
2918351	PROB	n/a	LTP374	ltpFR2	14	n/a	n/a	n/a	21	2	8	7	6
2919321	PROB	n/a	LTP374	ltpFR2	14	n/a	n/a	n/a	21	8	1	2	5
2920073	PROB	n/a	LTP374	ltpFR2	14	n/a	n/a	n/a	21	18	8	2	8
2920909	PROB	n/a	LTP374	ltpFR2	14	n/a	n/a	n/a	21	2	4	8	9
2921745	PROB	n/a	LTP374	ltpFR2	14	n/a	n/a	n/a	21	14	6	4	4
2922531	PROB	n/a	LTP374	ltpFR2	14	n/a	n/a	n/a	21	16	8	5	3
2923435	PROB	n/a	LTP374	ltpFR2	14	n/a	n/a	n/a	21	18	8	8	2
2924488	PROB	n/a	LTP374	ltpFR2	14	n/a	n/a	n/a	21	15	8	3	4
2925341	PROB	n/a	LTP374	ltpFR2	14	n/a	n/a	n/a	21	15	1	5	9
2926192	PROB	n/a	LTP374	ltpFR2	14	n/a	n/a	n/a	21	25	8	9	9
2927229	PROB	n/a	LTP374	ltpFR2	14	n/a	n/a	n/a	21	13	8	2	3
2928132	PROB	n/a	LTP374	ltpFR2	14	n/a	n/a	n/a	21	14	3	8	3
2929202	PROB	n/a	LTP374	ltpFR2	14	n/a	n/a	n/a	21	11	5	5	1
2929980	STOP	n/a	LTP374	ltpFR2	14	n/a	n/a	n/a	21	n/a	n/a	n/a	n/a
2932665	REC_START	n/a	LTP374	ltpFR2	14	15	n/a	n/a	n/a	n/a	0	0	0
2934596	REC_WORD	wordpools/wasnorm_wordpool_576.txt	LTP374	ltpFR2	14	15	VENUS	1557	n/a	n/a	0	0	0
2935469	REC_WORD	wordpools/wasnorm_wordpool_576.txt	LTP374	ltpFR2	14	15	CYCLONE	431	n/a	n/a	0	0	0
2937819	REC_WORD	wordpools/wasnorm_wordpool_576.txt	LTP374	ltpFR2	14	15	LIZARD	834	n/a	n/a	0	0	0
2938707	REC_WORD	wordpools/wasnorm_wordpool_576.txt	LTP374	ltpFR2	14	15	VIRUS	1572	n/a	n/a	0	0	0
2939801	REC_WORD	wordpools/wasnorm_wordpool_576.txt	LTP374	ltpFR2	14	15	PUDDLE	1140	n/a	n/a	0	0	0
2941641	REC_WORD	wordpools/wasnorm_wordpool_576.txt	LTP374	ltpFR2	14	15	FOREST	593	n/a	n/a	0	0	0
2942888	REC_WORD	wordpools/wasnorm_wordpool_576.txt	LTP374	ltpFR2	14	15	LUMBER	848	n/a	n/a	0	0	0
2945953	REC_WORD	wordpools/wasnorm_wordpool_576.txt	LTP374	ltpFR2	14	15	FIREPLACE	570	n/a	n/a	0	0	0
2946953	REC_WORD_VV	wordpools/wasnorm_wordpool_576.txt	LTP374	ltpFR2	14	15	<>	-1	n/a	n/a	0	0	0
2948782	REC_WORD	wordpools/wasnorm_wordpool_576.txt	LTP374	ltpFR2	14	15	MARINE	869	n/a	n/a	0	0	0
2950009	REC_WORD	wordpools/wasnorm_wordpool_576.txt	LTP374	ltpFR2	14	15	CASKET	255	n/a	n/a	0	0	0
2952790	REC_WORD	wordpools/wasnorm_wordpool_576.txt	LTP374	ltpFR2	14	15	RIVER	1194	n/a	n/a	0	0	0
2954514	REC_WORD	wordpools/wasnorm_wordpool_576.txt	LTP374	ltpFR2	14	15	PARENT	1013	n/a	n/a	0	0	0
2955260	REC_WORD	wordpools/wasnorm_wordpool_576.txt	LTP374	ltpFR2	14	15	GALLON	618	n/a	n/a	0	0	0
2956012	REC_WORD	wordpools/wasnorm_wordpool_576.txt	LTP374	ltpFR2	14	15	TUNNEL	1519	n/a	n/a	0	0	0
2958067	REC_WORD	wordpools/wasnorm_wordpool_576.txt	LTP374	ltpFR2	14	15	FRAME	600	n/a	n/a	0	0	0
2959141	REC_WORD	wordpools/wasnorm_wordpool_576.txt	LTP374	ltpFR2	14	15	DRAWING	494	n/a	n/a	0	0	0
2959992	REC_WORD	wordpools/wasnorm_wordpool_576.txt	LTP374	ltpFR2	14	15	OMELET	976	n/a	n/a	0	0	0
2963260	REC_WORD	wordpools/wasnorm_wordpool_576.txt	LTP374	ltpFR2	14	15	LAMP	798	n/a	n/a	0	0	0
2964357	REC_WORD	wordpools/wasnorm_wordpool_576.txt	LTP374	ltpFR2	14	15	SWITCH	1422	n/a	n/a	0	0	0
2965421	REC_WORD	wordpools/wasnorm_wordpool_576.txt	LTP374	ltpFR2	14	15	FLASHLIGHT	575	n/a	n/a	0	0	0
2966886	REC_WORD	wordpools/wasnorm_wordpool_576.txt	LTP374	ltpFR2	14	15	LASER	801	n/a	n/a	0	0	0
2970433	REC_WORD	wordpools/wasnorm_wordpool_576.txt	LTP374	ltpFR2	14	15	CASKET	255	n/a	n/a	0	0	0
3023123	WORD	wordpools/wasnorm_wordpool_576.txt	LTP374	ltpFR2	14	16	BLOUSE	139	n/a	n/a	0	0	0
3025815	WORD	wordpools/wasnorm_wordpool_576.txt	LTP374	ltpFR2	14	16	BREAST	171	n/a	n/a	0	0	0
3028508	WORD	wordpools/wasnorm_wordpool_576.txt	LTP374	ltpFR2	14	16	ROOSTER	1209	n/a	n/a	0	0	0
3031132	WORD	wordpools/wasnorm_wordpool_576.txt	LTP374	ltpFR2	14	16	CLIMBER	323	n/a	n/a	0	0	0
3033941	WORD	wordpools/wasnorm_wordpool_576.txt	LTP374	ltpFR2	14	16	SUMMIT	1405	n/a	n/a	0	0	0
3036417	WORD	wordpools/wasnorm_wordpool_576.txt	LTP374	ltpFR2	14	16	CHEMIST	292	n/a	n/a	0	0	0
3039091	WORD	wordpools/wasnorm_wordpool_576.txt	LTP374	ltpFR2	14	16	SHELTER	1282	n/a	n/a	0	0	0
3041884	WORD	wordpools/wasnorm_wordpool_576.txt	LTP374	ltpFR2	14	16	PEPPER	1047	n/a	n/a	0	0	0
3044593	WORD	wordpools/wasnorm_wordpool_576.txt	LTP374	ltpFR2	14	16	TILE	1468	n/a	n/a	0	0	0
3047117	WORD	wordpools/wasnorm_wordpool_576.txt	LTP374	ltpFR2	14	16	COWBOY	395	n/a	n/a	0	0	0
3049759	WORD	wordpools/wasnorm_wordpool_576.txt	LTP374	ltpFR2	14	16	FARMER	553	n/a	n/a	0	0	0
3052486	WORD	wordpools/wasnorm_wordpool_576.txt	LTP374	ltpFR2	14	16	CANYON	235	n/a	n/a	0	0	0
3055244	WORD	wordpools/wasnorm_wordpool_576.txt	LTP374	ltpFR2	14	16	PISTOL	1075	n/a	n/a	0	0	0
3057885	WORD	wordpools/wasnorm_wordpool_576.txt	LTP374	ltpFR2	14	16	RABBIT	1152	n/a	n/a	0	0	0
3060695	WORD	wordpools/wasnorm_wordpool_576.txt	LTP374	ltpFR2	14	16	SUITCASE	1403	n/a	n/a	0	0	0
3063304	WORD	wordpools/wasnorm_wordpool_576.txt	LTP374	ltpFR2	14	16	LIVER	833	n/a	n/a	0	0	0
3066062	WORD	wordpools/wasnorm_wordpool_576.txt	LTP374	ltpFR2	14	16	BADGE	68	n/a	n/a	0	0	0
3068521	WORD	wordpools/wasnorm_wordpool_576.txt	LTP374	ltpFR2	14	16	ROD	1203	n/a	n/a	0	0	0
3071280	WORD	wordpools/wasnorm_wordpool_576.txt	LTP374	ltpFR2	14	16	POPCORN	1104	n/a	n/a	0	0	0
3073703	WORD	wordpools/wasnorm_wordpool_576.txt	LTP374	ltpFR2	14	16	BARLEY	88	n/a	n/a	0	0	0
3076497	WORD	wordpools/wasnorm_wordpool_576.txt	LTP374	ltpFR2	14	16	BUCKET	184	n/a	n/a	0	0	0
3079004	WORD	wordpools/wasnorm_wordpool_576.txt	LTP374	ltpFR2	14	16	NIGHTGOWN	953	n/a	n/a	0	0	0
3081680	WORD	wordpools/wasnorm_wordpool_576.txt	LTP374	ltpFR2	14	16	CEILING	265	n/a	n/a	0	0	0
3084170	WORD	wordpools/wasnorm_wordpool_576.txt	LTP374	ltpFR2	14	16	SLIDE	1326	n/a	n/a	0	0	0
3085776	START	n/a	LTP374	ltpFR2	14	n/a	n/a	n/a	22	n/a	n/a	n/a	n/a
3086623	DISTRACTOR	n/a	LTP374	ltpFR2	14	16	n/a	n/a	n/a	n/a	0	0	0
3086630	PROB	n/a	LTP374	ltpFR2	14	n/a	n/a	n/a	22	220	9	5	6
3088719	PROB	n/a	LTP374	ltpFR2	14	n/a	n/a	n/a	22	16	9	5	2
3089622	PROB	n/a	LTP374	ltpFR2	14	n/a	n/a	n/a	22	20	7	7	6
3090458	PROB	n/a	LTP374	ltpFR2	14	n/a	n/a	n/a	22	15	8	3	6
3091829	PROB	n/a	LTP374	ltpFR2	14	n/a	n/a	n/a	22	9	4	1	4
3092715	PROB	n/a	LTP374	ltpFR2	14	n/a	n/a	n/a	22	12	8	4	2
3093669	PROB	n/a	LTP374	ltpFR2	14	n/a	n/a	n/a	22	11	1	3	7
3094622	PROB	n/a	LTP374	ltpFR2	14	n/a	n/a	n/a	22	19	8	4	7
3095925	PROB	n/a	LTP374	ltpFR2	14	n/a	n/a	n/a	22	16	3	9	4
3096995	PROB	n/a	LTP374	ltpFR2	14	n/a	n/a	n/a	22	18	5	6	6
3097915	PROB	n/a	LTP374	ltpFR2	14	n/a	n/a	n/a	22	16	8	7	1
3098751	PROB	n/a	LTP374	ltpFR2	14	n/a	n/a	n/a	22	17	3	8	7
3099754	PROB	n/a	LTP374	ltpFR2	14	n/a	n/a	n/a	22	17	2	9	6
3101075	PROB	n/a	LTP374	ltpFR2	14	n/a	n/a	n/a	22	13	7	1	3
3101945	PROB	n/a	LTP374	ltpFR2	14	n/a	n/a	n/a	22	16	4	7	5
3103165	PROB	n/a	LTP374	ltpFR2	14	n/a	n/a	n/a	22	21	8	8	5
3104169	PROB	n/a	LTP374	ltpFR2	14	n/a	n/a	n/a	22	3	1	1	1
3104821	PROB	n/a	LTP374	ltpFR2	14	n/a	n/a	n/a	22	14	5	3	6
3106041	PROB	n/a	LTP374	ltpFR2	14	n/a	n/a	n/a	22	19	9	8	2
3106827	PROB	n/a	LTP374	ltpFR2	14	n/a	n/a	n/a	22	16	1	6	8
3108378	STOP	n/a	LTP374	ltpFR2	14	n/a	n/a	n/a	22	n/a	n/a	n/a	n/a
3111694	REC_START	n/a	LTP374	ltpFR2	14	16	n/a	n/a	n/a	n/a	0	0	0
3115670	REC_WORD	wordpools/wasnorm_wordpool_576.txt	LTP374	ltpFR2	14	16	ROOSTER	1209	n/a	n/a	0	0	0
3116461	REC_WORD	wordpools/wasnorm_wordpool_576.txt	LTP374	ltpFR2	14	16	RABBIT	1152	n/a	n/a	0	0	0
3117497	REC_WORD	wordpools/wasnorm_wordpool_576.txt	LTP374	ltpFR2	14	16	FARMER	553	n/a	n/a	0	0	0
3118387	REC_WORD	wordpools/wasnorm_wordpool_576.txt	LTP374	ltpFR2	14	16	NIGHTGOWN	953	n/a	n/a	0	0	0
3119345	REC_WORD	wordpools/wasnorm_wordpool_576.txt	LTP374	ltpFR2	14	16	BREAST	171	n/a	n/a	0	0	0
3120413	REC_WORD	wordpools/wasnorm_wordpool_576.txt	LTP374	ltpFR2	14	16	BLOUSE	139	n/a	n/a	0	0	0
3121304	REC_WORD	wordpools/wasnorm_wordpool_576.txt	LTP374	ltpFR2	14	16	TILE	1468	n/a	n/a	0	0	0
3121793	REC_WORD	wordpools/wasnorm_wordpool_576.txt	LTP374	ltpFR2	14	16	CEILING	265	n/a	n/a	0	0	0
3122961	REC_WORD	wordpools/wasnorm_wordpool_576.txt	LTP374	ltpFR2	14	16	ROD	1203	n/a	n/a	0	0	0
3123607	REC_WORD	wordpools/wasnorm_wordpool_576.txt	LTP374	ltpFR2	14	16	COWBOY	395	n/a	n/a	0	0	0
3124310	REC_WORD	wordpools/wasnorm_wordpool_576.txt	LTP374	ltpFR2	14	16	CLIMBER	323	n/a	n/a	0	0	0
3130586	REC_WORD	wordpools/wasnorm_wordpool_576.txt	LTP374	ltpFR2	14	16	SLIDE	1326	n/a	n/a	0	0	0
3135790	REC_WORD	wordpools/wasnorm_wordpool_576.txt	LTP374	ltpFR2	14	16	CANYON	235	n/a	n/a	0	0	0
3138318	REC_WORD	wordpools/wasnorm_wordpool_576.txt	LTP374	ltpFR2	14	16	PISTOL	1075	n/a	n/a	0	0	0
3141867	REC_WORD	wordpools/wasnorm_wordpool_576.txt	LTP374	ltpFR2	14	16	BARLEY	88	n/a	n/a	0	0	0
3142973	REC_WORD	wordpools/wasnorm_wordpool_576.txt	LTP374	ltpFR2	14	16	POPCORN	1104	n/a	n/a	0	0	0
3143651	REC_WORD	wordpools/wasnorm_wordpool_576.txt	LTP374	ltpFR2	14	16	BUCKET	184	n/a	n/a	0	0	0
3148707	REC_WORD	wordpools/wasnorm_wordpool_576.txt	LTP374	ltpFR2	14	16	SUMMIT	1405	n/a	n/a	0	0	0
3188224	REST_REWET	n/a	LTP374	ltpFR2	14	16	n/a	n/a	n/a	n/a	0	0	0
3475572	DISTRACTOR	n/a	LTP374	ltpFR2	14	17	n/a	n/a	n/a	n/a	0	0	0
3475572	START	n/a	LTP374	ltpFR2	14	n/a	n/a	n/a	23	n/a	n/a	n/a	n/a
3475589	PROB	n/a	LTP374	ltpFR2	14	n/a	n/a	n/a	23	17	8	8	1
3476508	PROB	n/a	LTP374	ltpFR2	14	n/a	n/a	n/a	23	5	1	3	1
3477143	PROB	n/a	LTP374	ltpFR2	14	n/a	n/a	n/a	23	18	5	5	8
3478163	PROB	n/a	LTP374	ltpFR2	14	n/a	n/a	n/a	23	14	2	7	5
3479334	PROB	n/a	LTP374	ltpFR2	14	n/a	n/a	n/a	23	18	5	4	7
3480655	PROB	n/a	LTP374	ltpFR2	14	n/a	n/a	n/a	23	21	4	9	8
3481942	PROB	n/a	LTP374	ltpFR2	14	n/a	n/a	n/a	23	13	3	6	4
3483347	PROB	n/a	LTP374	ltpFR2	14	n/a	n/a	n/a	23	22	9	7	6
3484652	PROB	n/a	LTP374	ltpFR2	14	n/a	n/a	n/a	23	18	7	5	6
3485571	PROB	n/a	LTP374	ltpFR2	14	n/a	n/a	n/a	23	11	1	7	3
3486541	PROB	n/a	LTP374	ltpFR2	14	n/a	n/a	n/a	23	10	2	5	3
3487528	PROB	n/a	LTP374	ltpFR2	14	n/a	n/a	n/a	23	14	6	3	5
3488714	PROB	n/a	LTP374	ltpFR2	14	n/a	n/a	n/a	23	13	7	4	1
3489851	PROB	n/a	LTP374	ltpFR2	14	n/a	n/a	n/a	23	8	4	1	3
3490587	PROB	n/a	LTP374	ltpFR2	14	n/a	n/a	n/a	23	7	3	3	1
3491357	PROB	n/a	LTP374	ltpFR2	14	n/a	n/a	n/a	23	20	9	5	6
3492259	PROB	n/a	LTP374	ltpFR2	14	n/a	n/a	n/a	23	15	5	5	5
3492911	PROB	n/a	LTP374	ltpFR2	14	n/a	n/a	n/a	23	8	3	4	1
3493680	PROB	n/a	LTP374	ltpFR2	14	n/a	n/a	n/a	23	15	5	5	5
3494316	PROB	n/a	LTP374	ltpFR2	14	n/a	n/a	n/a	23	12	9	2	1
3495017	PROB	n/a	LTP374	ltpFR2	14	n/a	n/a	n/a	23	15	3	7	4
3495870	PROB	n/a	LTP374	ltpFR2	14	n/a	n/a	n/a	23	19	8	2	9
3496706	PROB	n/a	LTP374	ltpFR2	14	n/a	n/a	n/a	23	8	3	1	4
3498157	STOP	n/a	LTP374	ltpFR2	14	n/a	n/a	n/a	23	n/a	n/a	n/a	n/a
3500436	WORD	wordpools/wasnorm_wordpool_576.txt	LTP374	ltpFR2	14	17	SPHINX	1349	n/a	n/a	0	0	0
3503227	WORD	wordpools/wasnorm_wordpool_576.txt	LTP374	ltpFR2	14	17	EGYPT	519	n/a	n/a	0	0	0
3505970	WORD	wordpools/wasnorm_wordpool_576.txt	LTP374	ltpFR2	14	17	BRIEFCASE	175	n/a	n/a	0	0	0
