mstime	trial_type	stim_file	subject	experiment	session	trial	task	item_name	item_num	recog_resp	recog_conf	resp	color_r	color_g	color_b	case	font
0	SESS_START	n/a	LTP236	ltpFR	6	n/a	n/a	n/a	n/a	1	1	n/a	n/a	n/a	n/a	n/a	n/a
31820	WORD	wordpools/wasnorm_wordpool_less_exclusions.txt	LTP236	ltpFR	6	1	0	FRUIT	610	0	n/a	0	0.57763671875	0.412841796875	1	upper	amplitud.ttf
35664	WORD	wordpools/wasnorm_wordpool_less_exclusions.txt	LTP236	ltpFR	6	1	0	EMPLOYER	532	n/a	n/a	1	0.57763671875	0.412841796875	1	upper	amplitud.ttf
39708	WORD	wordpools/wasnorm_wordpool_less_exclusions.txt	LTP236	ltpFR	6	1	0	ALLIGATOR	16	n/a	n/a	1	0.57763671875	0.412841796875	1	upper	amplitud.ttf
43736	WORD	wordpools/wasnorm_wordpool_less_exclusions.txt	LTP236	ltpFR	6	1	0	PARSLEY	1016	n/a	n/a	1	0.57763671875	0.412841796875	1	upper	amplitud.ttf
47829	WORD	wordpools/wasnorm_wordpool_less_exclusions.txt	LTP236	ltpFR	6	1	0	MOSS	918	n/a	n/a	0	0.57763671875	0.412841796875	1	upper	amplitud.ttf
51874	WORD	wordpools/wasnorm_wordpool_less_exclusions.txt	LTP236	ltpFR	6	1	1	PIE	1062	n/a	n/a	0	0.422607421875	0.5869140625	0	lower	zerothre.ttf
55751	WORD	wordpools/wasnorm_wordpool_less_exclusions.txt	LTP236	ltpFR	6	1	1	COBBLER	335	n/a	n/a	0	0.422607421875	0.5869140625	0	lower	zerothre.ttf
59912	WORD	wordpools/wasnorm_wordpool_less_exclusions.txt	LTP236	ltpFR	6	1	0	CORPORATION	382	n/a	n/a	1	0.57763671875	0.412841796875	1	upper	amplitud.ttf
64073	WORD	wordpools/wasnorm_wordpool_less_exclusions.txt	LTP236	ltpFR	6	1	0	DINER	467	n/a	n/a	1	0.57763671875	0.412841796875	1	upper	amplitud.ttf
68084	WORD	wordpools/wasnorm_wordpool_less_exclusions.txt	LTP236	ltpFR	6	1	0	FEAST	556	n/a	n/a	0	0.57763671875	0.412841796875	1	upper	amplitud.ttf
72094	WORD	wordpools/wasnorm_wordpool_less_exclusions.txt	LTP236	ltpFR	6	1	1	OWNER	993	n/a	n/a	1	0.422607421875	0.5869140625	0	lower	zerothre.ttf
76288	WORD	wordpools/wasnorm_wordpool_less_exclusions.txt	LTP236	ltpFR	6	1	1	EAGLE	512	n/a	n/a	0	0.422607421875	0.5869140625	0	lower	zerothre.ttf
80232	WORD	wordpools/wasnorm_wordpool_less_exclusions.txt	LTP236	ltpFR	6	1	1	ROCK	1201	n/a	n/a	0	0.422607421875	0.5869140625	0	lower	zerothre.ttf
84143	WORD	wordpools/wasnorm_wordpool_less_exclusions.txt	LTP236	ltpFR	6	1	1	PLAZA	1088	n/a	n/a	0	0.422607421875	0.5869140625	0	lower	zerothre.ttf
88337	WORD	wordpools/wasnorm_wordpool_less_exclusions.txt	LTP236	ltpFR	6	1	1	PORCH	1106	n/a	n/a	0	0.422607421875	0.5869140625	0	lower	zerothre.ttf
92164	WORD	wordpools/wasnorm_wordpool_less_exclusions.txt	LTP236	ltpFR	6	1	1	BLUEBERRY	140	n/a	n/a	0	0.422607421875	0.5869140625	0	lower	zerothre.ttf
98056	REC_START	n/a	LTP236	ltpFR	6	1	n/a	n/a	n/a	n/a	n/a	n/a	n/a	n/a	n/a	n/a	n/a
99068	REC_WORD	wordpools/wasnorm_wordpool_less_exclusions.txt	LTP236	ltpFR	6	1	1	PLAZA	1088	n/a	n/a	0	n/a	n/a	n/a	n/a	n/a
100076	REC_WORD	wordpools/wasnorm_wordpool_less_exclusions.txt	LTP236	ltpFR	6	1	1	PORCH	1106	n/a	n/a	0	n/a	n/a	n/a	n/a	n/a
101079	REC_WORD	wordpools/wasnorm_wordpool_less_exclusions.txt	LTP236	ltpFR	6	1	1	BLUEBERRY	140	n/a	n/a	0	n/a	n/a	n/a	n/a	n/a
102581	REC_WORD	wordpools/wasnorm_wordpool_less_exclusions.txt	LTP236	ltpFR	6	1	n/a	OPENING	-1	n/a	n/a	n/a	n/a	n/a	n/a	n/a	n/a
104451	REC_WORD	wordpools/wasnorm_wordpool_less_exclusions.txt	LTP236	ltpFR	6	1	0	EMPLOYER	532	n/a	n/a	1	n/a	n/a	n/a	n/a	n/a
106746	REC_WORD	wordpools/wasnorm_wordpool_less_exclusions.txt	LTP236	ltpFR	6	1	1	OWNER	993	n/a	n/a	1	n/a	n/a	n/a	n/a	n/a
109749	REC_WORD	wordpools/wasnorm_wordpool_less_exclusions.txt	LTP236	ltpFR	6	1	1	COBBLER	335	n/a	n/a	0	n/a	n/a	n/a	n/a	n/a
111290	REC_WORD	wordpools/wasnorm_wordpool_less_exclusions.txt	LTP236	ltpFR	6	1	0	FEAST	556	n/a	n/a	0	n/a	n/a	n/a	n/a	n/a
112782	REC_WORD	wordpools/wasnorm_wordpool_less_exclusions.txt	LTP236	ltpFR	6	1	0	DINER	467	n/a	n/a	1	n/a	n/a	n/a	n/a	n/a
114708	REC_WORD	wordpools/wasnorm_wordpool_less_exclusions.txt	LTP236	ltpFR	6	1	0	MOSS	918	n/a	n/a	0	n/a	n/a	n/a	n/a	n/a
116609	REC_WORD	wordpools/wasnorm_wordpool_less_exclusions.txt	LTP236	ltpFR	6	1	0	ALLIGATOR	16	n/a	n/a	1	n/a	n/a	n/a	n/a	n/a
118863	REC_WORD	wordpools/wasnorm_wordpool_less_exclusions.txt	LTP236	ltpFR	6	1	1	EAGLE	512	n/a	n/a	0	n/a	n/a	n/a	n/a	n/a
132393	REC_WORD	wordpools/wasnorm_wordpool_less_exclusions.txt	LTP236	ltpFR	6	1	1	BLUEBERRY	140	n/a	n/a	0	n/a	n/a	n/a	n/a	n/a
141816	REC_WORD	wordpools/wasnorm_wordpool_less_exclusions.txt	LTP236	ltpFR	6	1	1	ROCK	1201	n/a	n/a	0	n/a	n/a	n/a	n/a	n/a
176787	WORD	wordpools/wasnorm_wordpool_less_exclusions.txt	LTP236	ltpFR	6	2	1	CONTRACTOR	369	n/a	n/a	1	0.422607421875	0.5869140625	0	lower	zerothre.ttf
180814	WORD	wordpools/wasnorm_wordpool_less_exclusions.txt	LTP236	ltpFR	6	2	1	BRICK	172	n/a	n/a	0	0.422607421875	0.5869140625	0	lower	zerothre.ttf
184926	WORD	wordpools/wasnorm_wordpool_less_exclusions.txt	LTP236	ltpFR	6	2	0	MAGAZINE	853	n/a	n/a	0	0.57763671875	0.412841796875	1	upper	amplitud.ttf
188869	WORD	wordpools/wasnorm_wordpool_less_exclusions.txt	LTP236	ltpFR	6	2	0	CLASS	318	n/a	n/a	0	0.57763671875	0.412841796875	1	upper	amplitud.ttf
192897	WORD	wordpools/wasnorm_wordpool_less_exclusions.txt	LTP236	ltpFR	6	2	0	PUPPY	1144	n/a	n/a	1	0.57763671875	0.412841796875	1	upper	amplitud.ttf
196891	WORD	wordpools/wasnorm_wordpool_less_exclusions.txt	LTP236	ltpFR	6	2	0	WALNUT	1584	n/a	n/a	0	0.57763671875	0.412841796875	1	upper	amplitud.ttf
200718	WORD	wordpools/wasnorm_wordpool_less_exclusions.txt	LTP236	ltpFR	6	2	1	THIMBLE	1458	n/a	n/a	0	0.422607421875	0.5869140625	0	lower	zerothre.ttf
204845	WORD	wordpools/wasnorm_wordpool_less_exclusions.txt	LTP236	ltpFR	6	2	1	CLAMP	316	n/a	n/a	0	0.422607421875	0.5869140625	0	lower	zerothre.ttf
208706	WORD	wordpools/wasnorm_wordpool_less_exclusions.txt	LTP236	ltpFR	6	2	1	FLIPPER	580	n/a	n/a	0	0.422607421875	0.5869140625	0	lower	zerothre.ttf
212850	WORD	wordpools/wasnorm_wordpool_less_exclusions.txt	LTP236	ltpFR	6	2	1	UMPIRE	1535	n/a	n/a	1	0.422607421875	0.5869140625	0	lower	zerothre.ttf
216727	WORD	wordpools/wasnorm_wordpool_less_exclusions.txt	LTP236	ltpFR	6	2	1	CATCHER	258	n/a	n/a	1	0.422607421875	0.5869140625	0	lower	zerothre.ttf
220838	WORD	wordpools/wasnorm_wordpool_less_exclusions.txt	LTP236	ltpFR	6	2	1	TUNA	1518	n/a	n/a	0	0.422607421875	0.5869140625	0	lower	zerothre.ttf
224949	WORD	wordpools/wasnorm_wordpool_less_exclusions.txt	LTP236	ltpFR	6	2	0	SYRUP	1425	n/a	n/a	0	0.57763671875	0.412841796875	1	upper	amplitud.ttf
228826	WORD	wordpools/wasnorm_wordpool_less_exclusions.txt	LTP236	ltpFR	6	2	0	GIRL	637	n/a	n/a	1	0.57763671875	0.412841796875	1	upper	amplitud.ttf
232921	WORD	wordpools/wasnorm_wordpool_less_exclusions.txt	LTP236	ltpFR	6	2	0	FOREST	593	n/a	n/a	1	0.57763671875	0.412841796875	1	upper	amplitud.ttf
237081	WORD	wordpools/wasnorm_wordpool_less_exclusions.txt	LTP236	ltpFR	6	2	0	YARN	1631	n/a	n/a	0	0.57763671875	0.412841796875	1	upper	amplitud.ttf
243056	REC_START	n/a	LTP236	ltpFR	6	2	n/a	n/a	n/a	n/a	n/a	n/a	n/a	n/a	n/a	n/a	n/a
244378	REC_WORD	wordpools/wasnorm_wordpool_less_exclusions.txt	LTP236	ltpFR	6	2	0	YARN	1631	n/a	n/a	0	n/a	n/a	n/a	n/a	n/a
245505	REC_WORD	wordpools/wasnorm_wordpool_less_exclusions.txt	LTP236	ltpFR	6	2	0	GIRL	637	n/a	n/a	1	n/a	n/a	n/a	n/a	n/a
246358	REC_WORD	wordpools/wasnorm_wordpool_less_exclusions.txt	LTP236	ltpFR	6	2	0	FOREST	593	n/a	n/a	1	n/a	n/a	n/a	n/a	n/a
247358	REC_WORD_VV	wordpools/wasnorm_wordpool_less_exclusions.txt	LTP236	ltpFR	6	2	n/a	<>	-1	n/a	n/a	n/a	n/a	n/a	n/a	n/a	n/a
249805	REC_WORD	wordpools/wasnorm_wordpool_less_exclusions.txt	LTP236	ltpFR	6	2	1	UMPIRE	1535	n/a	n/a	1	n/a	n/a	n/a	n/a	n/a
250898	REC_WORD	wordpools/wasnorm_wordpool_less_exclusions.txt	LTP236	ltpFR	6	2	1	CATCHER	258	n/a	n/a	1	n/a	n/a	n/a	n/a	n/a
253267	REC_WORD	wordpools/wasnorm_wordpool_less_exclusions.txt	LTP236	ltpFR	6	2	1	FLIPPER	580	n/a	n/a	0	n/a	n/a	n/a	n/a	n/a
254267	REC_WORD_VV	wordpools/wasnorm_wordpool_less_exclusions.txt	LTP236	ltpFR	6	2	n/a	<>	-1	n/a	n/a	n/a	n/a	n/a	n/a	n/a	n/a
265285	REC_WORD	wordpools/wasnorm_wordpool_less_exclusions.txt	LTP236	ltpFR	6	2	0	WALNUT	1584	n/a	n/a	0	n/a	n/a	n/a	n/a	n/a
266657	REC_WORD	wordpools/wasnorm_wordpool_less_exclusions.txt	LTP236	ltpFR	6	2	1	THIMBLE	1458	n/a	n/a	0	n/a	n/a	n/a	n/a	n/a
281209	REC_WORD	wordpools/wasnorm_wordpool_less_exclusions.txt	LTP236	ltpFR	6	2	0	MAGAZINE	853	n/a	n/a	0	n/a	n/a	n/a	n/a	n/a
282209	REC_WORD_VV	wordpools/wasnorm_wordpool_less_exclusions.txt	LTP236	ltpFR	6	2	n/a	<>	-1	n/a	n/a	n/a	n/a	n/a	n/a	n/a	n/a
284402	REC_WORD	wordpools/wasnorm_wordpool_less_exclusions.txt	LTP236	ltpFR	6	2	0	PUPPY	1144	n/a	n/a	1	n/a	n/a	n/a	n/a	n/a
290149	REC_WORD	wordpools/wasnorm_wordpool_less_exclusions.txt	LTP236	ltpFR	6	2	1	CONTRACTOR	369	n/a	n/a	1	n/a	n/a	n/a	n/a	n/a
291149	REC_WORD_VV	wordpools/wasnorm_wordpool_less_exclusions.txt	LTP236	ltpFR	6	2	n/a	<>	-1	n/a	n/a	n/a	n/a	n/a	n/a	n/a	n/a
297527	REC_WORD	wordpools/wasnorm_wordpool_less_exclusions.txt	LTP236	ltpFR	6	2	0	CLASS	318	n/a	n/a	0	n/a	n/a	n/a	n/a	n/a
321256	WORD	wordpools/wasnorm_wordpool_less_exclusions.txt	LTP236	ltpFR	6	3	0	DUMP	505	n/a	n/a	0	0.57763671875	0.412841796875	1	upper	amplitud.ttf
325250	WORD	wordpools/wasnorm_wordpool_less_exclusions.txt	LTP236	ltpFR	6	3	0	BASKET	95	n/a	n/a	1	0.57763671875	0.412841796875	1	upper	amplitud.ttf
329310	WORD	wordpools/wasnorm_wordpool_less_exclusions.txt	LTP236	ltpFR	6	3	0	CHICKEN	297	n/a	n/a	0	0.57763671875	0.412841796875	1	upper	amplitud.ttf
333304	WORD	wordpools/wasnorm_wordpool_less_exclusions.txt	LTP236	ltpFR	6	3	0	GANG	619	n/a	n/a	1	0.57763671875	0.412841796875	1	upper	amplitud.ttf
337465	WORD	wordpools/wasnorm_wordpool_less_exclusions.txt	LTP236	ltpFR	6	3	0	WHISTLE	1606	n/a	n/a	0	0.57763671875	0.412841796875	1	upper	amplitud.ttf
341392	WORD	wordpools/wasnorm_wordpool_less_exclusions.txt	LTP236	ltpFR	6	3	0	STEAM	1375	n/a	n/a	0	0.57763671875	0.412841796875	1	upper	amplitud.ttf
345536	WORD	wordpools/wasnorm_wordpool_less_exclusions.txt	LTP236	ltpFR	6	3	0	ANIMAL	23	n/a	n/a	1	0.57763671875	0.412841796875	1	upper	amplitud.ttf
349745	WORD	wordpools/wasnorm_wordpool_less_exclusions.txt	LTP236	ltpFR	6	3	0	SPOON	1357	n/a	n/a	0	0.57763671875	0.412841796875	1	upper	amplitud.ttf
353940	WORD	wordpools/wasnorm_wordpool_less_exclusions.txt	LTP236	ltpFR	6	3	0	SPONGE	1355	n/a	n/a	0	0.57763671875	0.412841796875	1	upper	amplitud.ttf
357901	WORD	wordpools/wasnorm_wordpool_less_exclusions.txt	LTP236	ltpFR	6	3	0	VICTOR	1563	n/a	n/a	1	0.57763671875	0.412841796875	1	upper	amplitud.ttf
361844	WORD	wordpools/wasnorm_wordpool_less_exclusions.txt	LTP236	ltpFR	6	3	0	POND	1101	n/a	n/a	1	0.57763671875	0.412841796875	1	upper	amplitud.ttf
365922	WORD	wordpools/wasnorm_wordpool_less_exclusions.txt	LTP236	ltpFR	6	3	0	COD	340	n/a	n/a	1	0.57763671875	0.412841796875	1	upper	amplitud.ttf
369849	WORD	wordpools/wasnorm_wordpool_less_exclusions.txt	LTP236	ltpFR	6	3	0	SALAD	1224	n/a	n/a	0	0.57763671875	0.412841796875	1	upper	amplitud.ttf
373993	WORD	wordpools/wasnorm_wordpool_less_exclusions.txt	LTP236	ltpFR	6	3	0	STEM	1376	n/a	n/a	0	0.57763671875	0.412841796875	1	upper	amplitud.ttf
378054	WORD	wordpools/wasnorm_wordpool_less_exclusions.txt	LTP236	ltpFR	6	3	0	GARDEN	623	n/a	n/a	1	0.57763671875	0.412841796875	1	upper	amplitud.ttf
382048	WORD	wordpools/wasnorm_wordpool_less_exclusions.txt	LTP236	ltpFR	6	3	0	SOCIETY	1338	n/a	n/a	1	0.57763671875	0.412841796875	1	upper	amplitud.ttf
388140	REC_START	n/a	LTP236	ltpFR	6	3	n/a	n/a	n/a	n/a	n/a	n/a	n/a	n/a	n/a	n/a	n/a
389103	REC_WORD	wordpools/wasnorm_wordpool_less_exclusions.txt	LTP236	ltpFR	6	3	0	SOCIETY	1338	n/a	n/a	1	n/a	n/a	n/a	n/a	n/a
390130	REC_WORD	wordpools/wasnorm_wordpool_less_exclusions.txt	LTP236	ltpFR	6	3	0	SALAD	1224	n/a	n/a	0	n/a	n/a	n/a	n/a	n/a
390993	REC_WORD	wordpools/wasnorm_wordpool_less_exclusions.txt	LTP236	ltpFR	6	3	0	STEM	1376	n/a	n/a	0	n/a	n/a	n/a	n/a	n/a
392265	REC_WORD	wordpools/wasnorm_wordpool_less_exclusions.txt	LTP236	ltpFR	6	3	0	GARDEN	623	n/a	n/a	1	n/a	n/a	n/a	n/a	n/a
394470	REC_WORD	wordpools/wasnorm_wordpool_less_exclusions.txt	LTP236	ltpFR	6	3	0	BASKET	95	n/a	n/a	1	n/a	n/a	n/a	n/a	n/a
395470	REC_WORD_VV	wordpools/wasnorm_wordpool_less_exclusions.txt	LTP236	ltpFR	6	3	n/a	<>	-1	n/a	n/a	n/a	n/a	n/a	n/a	n/a	n/a
397379	REC_WORD	wordpools/wasnorm_wordpool_less_exclusions.txt	LTP236	ltpFR	6	3	0	GANG	619	n/a	n/a	1	n/a	n/a	n/a	n/a	n/a
399908	REC_WORD	wordpools/wasnorm_wordpool_less_exclusions.txt	LTP236	ltpFR	6	3	0	DUMP	505	n/a	n/a	0	n/a	n/a	n/a	n/a	n/a
401719	REC_WORD	wordpools/wasnorm_wordpool_less_exclusions.txt	LTP236	ltpFR	6	3	0	CHICKEN	297	n/a	n/a	0	n/a	n/a	n/a	n/a	n/a
406513	REC_WORD	wordpools/wasnorm_wordpool_less_exclusions.txt	LTP236	ltpFR	6	3	n/a	PACKAGE	997	n/a	n/a	n/a	n/a	n/a	n/a	n/a	n/a
410498	REC_WORD_VV	wordpools/wasnorm_wordpool_less_exclusions.txt	LTP236	ltpFR	6	3	n/a	<>	-1	n/a	n/a	n/a	n/a	n/a	n/a	n/a	n/a
419224	REC_WORD	wordpools/wasnorm_wordpool_less_exclusions.txt	LTP236	ltpFR	6	3	0	STEAM	1375	n/a	n/a	0	n/a	n/a	n/a	n/a	n/a
420950	REC_WORD	wordpools/wasnorm_wordpool_less_exclusions.txt	LTP236	ltpFR	6	3	0	WHISTLE	1606	n/a	n/a	0	n/a	n/a	n/a	n/a	n/a
466306	WORD	wordpools/wasnorm_wordpool_less_exclusions.txt	LTP236	ltpFR	6	4	1	LOBSTER	837	n/a	n/a	1	0.422607421875	0.5869140625	0	lower	zerothre.ttf
470433	WORD	wordpools/wasnorm_wordpool_less_exclusions.txt	LTP236	ltpFR	6	4	1	DIAL	457	n/a	n/a	0	0.422607421875	0.5869140625	0	lower	zerothre.ttf
474360	WORD	wordpools/wasnorm_wordpool_less_exclusions.txt	LTP236	ltpFR	6	4	1	RAZOR	1171	n/a	n/a	0	0.422607421875	0.5869140625	0	lower	zerothre.ttf
478504	WORD	wordpools/wasnorm_wordpool_less_exclusions.txt	LTP236	ltpFR	6	4	1	GUEST	669	n/a	n/a	1	0.422607421875	0.5869140625	0	lower	zerothre.ttf
482597	WORD	wordpools/wasnorm_wordpool_less_exclusions.txt	LTP236	ltpFR	6	4	1	PERSON	1052	n/a	n/a	1	0.422607421875	0.5869140625	0	lower	zerothre.ttf
486591	WORD	wordpools/wasnorm_wordpool_less_exclusions.txt	LTP236	ltpFR	6	4	1	SPICE	1350	n/a	n/a	0	0.422607421875	0.5869140625	0	lower	zerothre.ttf
490668	WORD	wordpools/wasnorm_wordpool_less_exclusions.txt	LTP236	ltpFR	6	4	1	SAGE	1222	n/a	n/a	0	0.422607421875	0.5869140625	0	lower	zerothre.ttf
494779	WORD	wordpools/wasnorm_wordpool_less_exclusions.txt	LTP236	ltpFR	6	4	1	LAVA	804	n/a	n/a	0	0.422607421875	0.5869140625	0	lower	zerothre.ttf
498706	WORD	wordpools/wasnorm_wordpool_less_exclusions.txt	LTP236	ltpFR	6	4	1	SINK	1309	n/a	n/a	0	0.422607421875	0.5869140625	0	lower	zerothre.ttf
502817	WORD	wordpools/wasnorm_wordpool_less_exclusions.txt	LTP236	ltpFR	6	4	1	SHOWER	1296	n/a	n/a	0	0.422607421875	0.5869140625	0	lower	zerothre.ttf
506995	WORD	wordpools/wasnorm_wordpool_less_exclusions.txt	LTP236	ltpFR	6	4	1	FORK	594	n/a	n/a	0	0.422607421875	0.5869140625	0	lower	zerothre.ttf
511105	WORD	wordpools/wasnorm_wordpool_less_exclusions.txt	LTP236	ltpFR	6	4	1	WITCH	1617	n/a	n/a	1	0.422607421875	0.5869140625	0	lower	zerothre.ttf
515266	WORD	wordpools/wasnorm_wordpool_less_exclusions.txt	LTP236	ltpFR	6	4	1	COMEDIAN	352	n/a	n/a	1	0.422607421875	0.5869140625	0	lower	zerothre.ttf
519376	WORD	wordpools/wasnorm_wordpool_less_exclusions.txt	LTP236	ltpFR	6	4	1	RING	1193	n/a	n/a	0	0.422607421875	0.5869140625	0	lower	zerothre.ttf
523204	WORD	wordpools/wasnorm_wordpool_less_exclusions.txt	LTP236	ltpFR	6	4	1	CRAB	397	n/a	n/a	1	0.422607421875	0.5869140625	0	lower	zerothre.ttf
527298	WORD	wordpools/wasnorm_wordpool_less_exclusions.txt	LTP236	ltpFR	6	4	1	PIZZA	1079	n/a	n/a	0	0.422607421875	0.5869140625	0	lower	zerothre.ttf
533206	REC_START	n/a	LTP236	ltpFR	6	4	n/a	n/a	n/a	n/a	n/a	n/a	n/a	n/a	n/a	n/a	n/a
534393	REC_WORD	wordpools/wasnorm_wordpool_less_exclusions.txt	LTP236	ltpFR	6	4	1	RING	1193	n/a	n/a	0	n/a	n/a	n/a	n/a	n/a
535221	REC_WORD	wordpools/wasnorm_wordpool_less_exclusions.txt	LTP236	ltpFR	6	4	1	CRAB	397	n/a	n/a	1	n/a	n/a	n/a	n/a	n/a
536029	REC_WORD	wordpools/wasnorm_wordpool_less_exclusions.txt	LTP236	ltpFR	6	4	1	PIZZA	1079	n/a	n/a	0	n/a	n/a	n/a	n/a	n/a
536802	REC_WORD	wordpools/wasnorm_wordpool_less_exclusions.txt	LTP236	ltpFR	6	4	1	COMEDIAN	352	n/a	n/a	1	n/a	n/a	n/a	n/a	n/a
537701	REC_WORD	wordpools/wasnorm_wordpool_less_exclusions.txt	LTP236	ltpFR	6	4	1	LOBSTER	837	n/a	n/a	1	n/a	n/a	n/a	n/a	n/a
575919	REC_WORD	wordpools/wasnorm_wordpool_less_exclusions.txt	LTP236	ltpFR	6	4	1	LAVA	804	n/a	n/a	0	n/a	n/a	n/a	n/a	n/a
579565	REC_WORD	wordpools/wasnorm_wordpool_less_exclusions.txt	LTP236	ltpFR	6	4	n/a	KITCHEN	778	n/a	n/a	n/a	n/a	n/a	n/a	n/a	n/a
583192	REC_WORD	wordpools/wasnorm_wordpool_less_exclusions.txt	LTP236	ltpFR	6	4	1	SINK	1309	n/a	n/a	0	n/a	n/a	n/a	n/a	n/a
584050	REC_WORD	wordpools/wasnorm_wordpool_less_exclusions.txt	LTP236	ltpFR	6	4	1	SHOWER	1296	n/a	n/a	0	n/a	n/a	n/a	n/a	n/a
611489	WORD	wordpools/wasnorm_wordpool_less_exclusions.txt	LTP236	ltpFR	6	5	1	HANDBAG	684	n/a	n/a	0	0.422607421875	0.5869140625	0	lower	zerothre.ttf
615316	WORD	wordpools/wasnorm_wordpool_less_exclusions.txt	LTP236	ltpFR	6	5	1	PUBLISHER	1137	n/a	n/a	1	0.422607421875	0.5869140625	0	lower	zerothre.ttf
619360	WORD	wordpools/wasnorm_wordpool_less_exclusions.txt	LTP236	ltpFR	6	5	1	GAZELLE	628	n/a	n/a	1	0.422607421875	0.5869140625	0	lower	zerothre.ttf
623421	WORD	wordpools/wasnorm_wordpool_less_exclusions.txt	LTP236	ltpFR	6	5	1	NAIL	936	n/a	n/a	0	0.422607421875	0.5869140625	0	lower	zerothre.ttf
627532	WORD	wordpools/wasnorm_wordpool_less_exclusions.txt	LTP236	ltpFR	6	5	0	FIST	572	n/a	n/a	0	0.57763671875	0.412841796875	1	upper	amplitud.ttf
631376	WORD	wordpools/wasnorm_wordpool_less_exclusions.txt	LTP236	ltpFR	6	5	0	PALM	1007	n/a	n/a	0	0.57763671875	0.412841796875	1	upper	amplitud.ttf
635353	WORD	wordpools/wasnorm_wordpool_less_exclusions.txt	LTP236	ltpFR	6	5	0	INVENTOR	743	n/a	n/a	1	0.57763671875	0.412841796875	1	upper	amplitud.ttf
639347	WORD	wordpools/wasnorm_wordpool_less_exclusions.txt	LTP236	ltpFR	6	5	1	ROBE	1198	n/a	n/a	0	0.422607421875	0.5869140625	0	lower	zerothre.ttf
643408	WORD	wordpools/wasnorm_wordpool_less_exclusions.txt	LTP236	ltpFR	6	5	1	DESIGNER	451	n/a	n/a	1	0.422607421875	0.5869140625	0	lower	zerothre.ttf
647617	WORD	wordpools/wasnorm_wordpool_less_exclusions.txt	LTP236	ltpFR	6	5	1	PAWN	1030	n/a	n/a	0	0.422607421875	0.5869140625	0	lower	zerothre.ttf
651711	WORD	wordpools/wasnorm_wordpool_less_exclusions.txt	LTP236	ltpFR	6	5	1	STREAM	1392	n/a	n/a	0	0.422607421875	0.5869140625	0	lower	zerothre.ttf
655705	WORD	wordpools/wasnorm_wordpool_less_exclusions.txt	LTP236	ltpFR	6	5	0	KNIGHT	786	n/a	n/a	1	0.57763671875	0.412841796875	1	upper	amplitud.ttf
659933	WORD	wordpools/wasnorm_wordpool_less_exclusions.txt	LTP236	ltpFR	6	5	0	CENT	270	n/a	n/a	0	0.57763671875	0.412841796875	1	upper	amplitud.ttf
663760	WORD	wordpools/wasnorm_wordpool_less_exclusions.txt	LTP236	ltpFR	6	5	0	GIFT	635	n/a	n/a	0	0.57763671875	0.412841796875	1	upper	amplitud.ttf
667754	WORD	wordpools/wasnorm_wordpool_less_exclusions.txt	LTP236	ltpFR	6	5	0	SWIMMER	1420	n/a	n/a	0	0.57763671875	0.412841796875	1	upper	amplitud.ttf
671848	WORD	wordpools/wasnorm_wordpool_less_exclusions.txt	LTP236	ltpFR	6	5	0	FORT	595	n/a	n/a	1	0.57763671875	0.412841796875	1	upper	amplitud.ttf
677856	REC_START	n/a	LTP236	ltpFR	6	5	n/a	n/a	n/a	n/a	n/a	n/a	n/a	n/a	n/a	n/a	n/a
678948	REC_WORD	wordpools/wasnorm_wordpool_less_exclusions.txt	LTP236	ltpFR	6	5	0	SWIMMER	1420	n/a	n/a	0	n/a	n/a	n/a	n/a	n/a
679881	REC_WORD	wordpools/wasnorm_wordpool_less_exclusions.txt	LTP236	ltpFR	6	5	0	FORT	595	n/a	n/a	1	n/a	n/a	n/a	n/a	n/a
680779	REC_WORD	wordpools/wasnorm_wordpool_less_exclusions.txt	LTP236	ltpFR	6	5	0	KNIGHT	786	n/a	n/a	1	n/a	n/a	n/a	n/a	n/a
681807	REC_WORD	wordpools/wasnorm_wordpool_less_exclusions.txt	LTP236	ltpFR	6	5	0	GIFT	635	n/a	n/a	0	n/a	n/a	n/a	n/a	n/a
682535	REC_WORD	wordpools/wasnorm_wordpool_less_exclusions.txt	LTP236	ltpFR	6	5	0	CENT	270	n/a	n/a	0	n/a	n/a	n/a	n/a	n/a
688372	REC_WORD	wordpools/wasnorm_wordpool_less_exclusions.txt	LTP236	ltpFR	6	5	1	HANDBAG	684	n/a	n/a	0	n/a	n/a	n/a	n/a	n/a
689372	REC_WORD_VV	wordpools/wasnorm_wordpool_less_exclusions.txt	LTP236	ltpFR	6	5	n/a	<>	-1	n/a	n/a	n/a	n/a	n/a	n/a	n/a	n/a
702240	REC_WORD	wordpools/wasnorm_wordpool_less_exclusions.txt	LTP236	ltpFR	6	5	1	NAIL	936	n/a	n/a	0	n/a	n/a	n/a	n/a	n/a
703737	REC_WORD	wordpools/wasnorm_wordpool_less_exclusions.txt	LTP236	ltpFR	6	5	0	PALM	1007	n/a	n/a	0	n/a	n/a	n/a	n/a	n/a
712432	REC_WORD	wordpools/wasnorm_wordpool_less_exclusions.txt	LTP236	ltpFR	6	5	1	GAZELLE	628	n/a	n/a	1	n/a	n/a	n/a	n/a	n/a
727218	REC_WORD	wordpools/wasnorm_wordpool_less_exclusions.txt	LTP236	ltpFR	6	5	0	SWIMMER	1420	n/a	n/a	0	n/a	n/a	n/a	n/a	n/a
757686	WORD	wordpools/wasnorm_wordpool_less_exclusions.txt	LTP236	ltpFR	6	6	-1	JEWEL	757	n/a	n/a	-1	1.0	1.0	1	upper	Verdana.ttf
761863	WORD	wordpools/wasnorm_wordpool_less_exclusions.txt	LTP236	ltpFR	6	6	-1	ORNAMENT	985	n/a	n/a	-1	1.0	1.0	1	upper	Verdana.ttf
766025	WORD	wordpools/wasnorm_wordpool_less_exclusions.txt	LTP236	ltpFR	6	6	-1	ERASER	538	n/a	n/a	-1	1.0	1.0	1	upper	Verdana.ttf
769935	WORD	wordpools/wasnorm_wordpool_less_exclusions.txt	LTP236	ltpFR	6	6	-1	CORAL	378	n/a	n/a	-1	1.0	1.0	1	upper	Verdana.ttf
773896	WORD	wordpools/wasnorm_wordpool_less_exclusions.txt	LTP236	ltpFR	6	6	-1	MARKER	870	n/a	n/a	-1	1.0	1.0	1	upper	Verdana.ttf
778107	WORD	wordpools/wasnorm_wordpool_less_exclusions.txt	LTP236	ltpFR	6	6	-1	SUPERMARKET	1409	n/a	n/a	-1	1.0	1.0	1	upper	Verdana.ttf
782184	WORD	wordpools/wasnorm_wordpool_less_exclusions.txt	LTP236	ltpFR	6	6	-1	RUBY	1214	n/a	n/a	-1	1.0	1.0	1	upper	Verdana.ttf
786211	WORD	wordpools/wasnorm_wordpool_less_exclusions.txt	LTP236	ltpFR	6	6	-1	CINNAMON	310	n/a	n/a	-1	1.0	1.0	1	upper	Verdana.ttf
790388	WORD	wordpools/wasnorm_wordpool_less_exclusions.txt	LTP236	ltpFR	6	6	-1	REPORT	1184	n/a	n/a	-1	1.0	1.0	1	upper	Verdana.ttf
794366	WORD	wordpools/wasnorm_wordpool_less_exclusions.txt	LTP236	ltpFR	6	6	-1	PAD	998	n/a	n/a	-1	1.0	1.0	1	upper	Verdana.ttf
798227	WORD	wordpools/wasnorm_wordpool_less_exclusions.txt	LTP236	ltpFR	6	6	-1	TUBE	1516	n/a	n/a	-1	1.0	1.0	1	upper	Verdana.ttf
802054	WORD	wordpools/wasnorm_wordpool_less_exclusions.txt	LTP236	ltpFR	6	6	-1	DRIVER	499	n/a	n/a	-1	1.0	1.0	1	upper	Verdana.ttf
806015	WORD	wordpools/wasnorm_wordpool_less_exclusions.txt	LTP236	ltpFR	6	6	-1	SCRIBBLE	1256	n/a	n/a	-1	1.0	1.0	1	upper	Verdana.ttf
810192	WORD	wordpools/wasnorm_wordpool_less_exclusions.txt	LTP236	ltpFR	6	6	-1	ACORN	3	n/a	n/a	-1	1.0	1.0	1	upper	Verdana.ttf
814419	WORD	wordpools/wasnorm_wordpool_less_exclusions.txt	LTP236	ltpFR	6	6	-1	PIER	1063	n/a	n/a	-1	1.0	1.0	1	upper	Verdana.ttf
818530	WORD	wordpools/wasnorm_wordpool_less_exclusions.txt	LTP236	ltpFR	6	6	-1	RAFT	1159	n/a	n/a	-1	1.0	1.0	1	upper	Verdana.ttf
824471	REC_START	n/a	LTP236	ltpFR	6	6	n/a	n/a	n/a	n/a	n/a	n/a	n/a	n/a	n/a	n/a	n/a
826062	REC_WORD	wordpools/wasnorm_wordpool_less_exclusions.txt	LTP236	ltpFR	6	6	-1	SCRIBBLE	1256	n/a	n/a	-1	n/a	n/a	n/a	n/a	n/a
827110	REC_WORD	wordpools/wasnorm_wordpool_less_exclusions.txt	LTP236	ltpFR	6	6	-1	ACORN	3	n/a	n/a	-1	n/a	n/a	n/a	n/a	n/a
828013	REC_WORD	wordpools/wasnorm_wordpool_less_exclusions.txt	LTP236	ltpFR	6	6	-1	PIER	1063	n/a	n/a	-1	n/a	n/a	n/a	n/a	n/a
828871	REC_WORD	wordpools/wasnorm_wordpool_less_exclusions.txt	LTP236	ltpFR	6	6	-1	RAFT	1159	n/a	n/a	-1	n/a	n/a	n/a	n/a	n/a
830891	REC_WORD	wordpools/wasnorm_wordpool_less_exclusions.txt	LTP236	ltpFR	6	6	-1	MARKER	870	n/a	n/a	-1	n/a	n/a	n/a	n/a	n/a
831784	REC_WORD	wordpools/wasnorm_wordpool_less_exclusions.txt	LTP236	ltpFR	6	6	-1	SUPERMARKET	1409	n/a	n/a	-1	n/a	n/a	n/a	n/a	n/a
832784	REC_WORD_VV	wordpools/wasnorm_wordpool_less_exclusions.txt	LTP236	ltpFR	6	6	n/a	<>	-1	n/a	n/a	n/a	n/a	n/a	n/a	n/a	n/a
833131	REC_WORD	wordpools/wasnorm_wordpool_less_exclusions.txt	LTP236	ltpFR	6	6	-1	REPORT	1184	n/a	n/a	-1	n/a	n/a	n/a	n/a	n/a
834179	REC_WORD	wordpools/wasnorm_wordpool_less_exclusions.txt	LTP236	ltpFR	6	6	-1	DRIVER	499	n/a	n/a	-1	n/a	n/a	n/a	n/a	n/a
835760	REC_WORD	wordpools/wasnorm_wordpool_less_exclusions.txt	LTP236	ltpFR	6	6	-1	PAD	998	n/a	n/a	-1	n/a	n/a	n/a	n/a	n/a
836748	REC_WORD	wordpools/wasnorm_wordpool_less_exclusions.txt	LTP236	ltpFR	6	6	-1	TUBE	1516	n/a	n/a	-1	n/a	n/a	n/a	n/a	n/a
840425	REC_WORD	wordpools/wasnorm_wordpool_less_exclusions.txt	LTP236	ltpFR	6	6	-1	ORNAMENT	985	n/a	n/a	-1	n/a	n/a	n/a	n/a	n/a
841278	REC_WORD	wordpools/wasnorm_wordpool_less_exclusions.txt	LTP236	ltpFR	6	6	-1	JEWEL	757	n/a	n/a	-1	n/a	n/a	n/a	n/a	n/a
842270	REC_WORD	wordpools/wasnorm_wordpool_less_exclusions.txt	LTP236	ltpFR	6	6	-1	RUBY	1214	n/a	n/a	-1	n/a	n/a	n/a	n/a	n/a
843263	REC_WORD	wordpools/wasnorm_wordpool_less_exclusions.txt	LTP236	ltpFR	6	6	-1	CORAL	378	n/a	n/a	-1	n/a	n/a	n/a	n/a	n/a
844600	REC_WORD	wordpools/wasnorm_wordpool_less_exclusions.txt	LTP236	ltpFR	6	6	-1	ERASER	538	n/a	n/a	-1	n/a	n/a	n/a	n/a	n/a
849728	REC_WORD	wordpools/wasnorm_wordpool_less_exclusions.txt	LTP236	ltpFR	6	6	-1	CINNAMON	310	n/a	n/a	-1	n/a	n/a	n/a	n/a	n/a
904401	WORD	wordpools/wasnorm_wordpool_less_exclusions.txt	LTP236	ltpFR	6	7	1	FARM	552	n/a	n/a	0	0.422607421875	0.5869140625	0	lower	zerothre.ttf
908395	WORD	wordpools/wasnorm_wordpool_less_exclusions.txt	LTP236	ltpFR	6	7	1	ALMANAC	17	n/a	n/a	0	0.422607421875	0.5869140625	0	lower	zerothre.ttf
912605	WORD	wordpools/wasnorm_wordpool_less_exclusions.txt	LTP236	ltpFR	6	7	0	DONOR	485	n/a	n/a	1	0.57763671875	0.412841796875	1	upper	amplitud.ttf
916815	WORD	wordpools/wasnorm_wordpool_less_exclusions.txt	LTP236	ltpFR	6	7	0	COLONEL	348	n/a	n/a	1	0.57763671875	0.412841796875	1	upper	amplitud.ttf
920809	WORD	wordpools/wasnorm_wordpool_less_exclusions.txt	LTP236	ltpFR	6	7	0	UNIFORM	1539	n/a	n/a	1	0.57763671875	0.412841796875	1	upper	amplitud.ttf
924937	WORD	wordpools/wasnorm_wordpool_less_exclusions.txt	LTP236	ltpFR	6	7	0	SHEARS	1276	n/a	n/a	0	0.57763671875	0.412841796875	1	upper	amplitud.ttf
928898	WORD	wordpools/wasnorm_wordpool_less_exclusions.txt	LTP236	ltpFR	6	7	1	TORTOISE	1486	n/a	n/a	0	0.422607421875	0.5869140625	0	lower	zerothre.ttf
932892	WORD	wordpools/wasnorm_wordpool_less_exclusions.txt	LTP236	ltpFR	6	7	1	SCALLOP	1242	n/a	n/a	0	0.422607421875	0.5869140625	0	lower	zerothre.ttf
937052	WORD	wordpools/wasnorm_wordpool_less_exclusions.txt	LTP236	ltpFR	6	7	0	SCISSORS	1250	n/a	n/a	2	0.57763671875	0.412841796875	1	upper	amplitud.ttf
938699	KEY_MSG	n/a	LTP236	ltpFR	6	7	n/a	n/a	n/a	n/a	n/a	n/a	n/a	n/a	n/a	n/a	n/a
941146	WORD	wordpools/wasnorm_wordpool_less_exclusions.txt	LTP236	ltpFR	6	7	0	COIN	343	n/a	n/a	0	0.57763671875	0.412841796875	1	upper	amplitud.ttf
945207	WORD	wordpools/wasnorm_wordpool_less_exclusions.txt	LTP236	ltpFR	6	7	0	VAULT	1550	n/a	n/a	1	0.57763671875	0.412841796875	1	upper	amplitud.ttf
949134	WORD	wordpools/wasnorm_wordpool_less_exclusions.txt	LTP236	ltpFR	6	7	0	STRAW	1390	n/a	n/a	0	0.57763671875	0.412841796875	1	upper	amplitud.ttf
953245	WORD	wordpools/wasnorm_wordpool_less_exclusions.txt	LTP236	ltpFR	6	7	1	CLARINET	317	n/a	n/a	0	0.422607421875	0.5869140625	0	lower	zerothre.ttf
957139	WORD	wordpools/wasnorm_wordpool_less_exclusions.txt	LTP236	ltpFR	6	7	1	FLESH	579	n/a	n/a	0	0.422607421875	0.5869140625	0	lower	zerothre.ttf
961000	WORD	wordpools/wasnorm_wordpool_less_exclusions.txt	LTP236	ltpFR	6	7	1	BUFFALO	186	n/a	n/a	1	0.422607421875	0.5869140625	0	lower	zerothre.ttf
965111	WORD	wordpools/wasnorm_wordpool_less_exclusions.txt	LTP236	ltpFR	6	7	1	BALLOT	76	n/a	n/a	0	0.422607421875	0.5869140625	0	lower	zerothre.ttf
971135	REC_START	n/a	LTP236	ltpFR	6	7	n/a	n/a	n/a	n/a	n/a	n/a	n/a	n/a	n/a	n/a	n/a
972866	REC_WORD	wordpools/wasnorm_wordpool_less_exclusions.txt	LTP236	ltpFR	6	7	1	BUFFALO	186	n/a	n/a	1	n/a	n/a	n/a	n/a	n/a
974073	REC_WORD	wordpools/wasnorm_wordpool_less_exclusions.txt	LTP236	ltpFR	6	7	1	BALLOT	76	n/a	n/a	0	n/a	n/a	n/a	n/a	n/a
975015	REC_WORD	wordpools/wasnorm_wordpool_less_exclusions.txt	LTP236	ltpFR	6	7	1	SCALLOP	1242	n/a	n/a	0	n/a	n/a	n/a	n/a	n/a
976572	REC_WORD	wordpools/wasnorm_wordpool_less_exclusions.txt	LTP236	ltpFR	6	7	1	TORTOISE	1486	n/a	n/a	0	n/a	n/a	n/a	n/a	n/a
978318	REC_WORD	wordpools/wasnorm_wordpool_less_exclusions.txt	LTP236	ltpFR	6	7	0	COLONEL	348	n/a	n/a	1	n/a	n/a	n/a	n/a	n/a
979595	REC_WORD	wordpools/wasnorm_wordpool_less_exclusions.txt	LTP236	ltpFR	6	7	0	UNIFORM	1539	n/a	n/a	1	n/a	n/a	n/a	n/a	n/a
980595	REC_WORD_VV	wordpools/wasnorm_wordpool_less_exclusions.txt	LTP236	ltpFR	6	7	n/a	<>	-1	n/a	n/a	n/a	n/a	n/a	n/a	n/a	n/a
981666	REC_WORD	wordpools/wasnorm_wordpool_less_exclusions.txt	LTP236	ltpFR	6	7	0	SHEARS	1276	n/a	n/a	0	n/a	n/a	n/a	n/a	n/a
983052	REC_WORD	wordpools/wasnorm_wordpool_less_exclusions.txt	LTP236	ltpFR	6	7	0	SCISSORS	1250	n/a	n/a	2	n/a	n/a	n/a	n/a	n/a
984052	REC_WORD_VV	wordpools/wasnorm_wordpool_less_exclusions.txt	LTP236	ltpFR	6	7	n/a	<>	-1	n/a	n/a	n/a	n/a	n/a	n/a	n/a	n/a
987028	REC_WORD	wordpools/wasnorm_wordpool_less_exclusions.txt	LTP236	ltpFR	6	7	1	FARM	552	n/a	n/a	0	n/a	n/a	n/a	n/a	n/a
1028355	REC_WORD	wordpools/wasnorm_wordpool_less_exclusions.txt	LTP236	ltpFR	6	7	1	CLARINET	317	n/a	n/a	0	n/a	n/a	n/a	n/a	n/a
1029447	REC_WORD	wordpools/wasnorm_wordpool_less_exclusions.txt	LTP236	ltpFR	6	7	0	STRAW	1390	n/a	n/a	0	n/a	n/a	n/a	n/a	n/a
1031238	REC_WORD	wordpools/wasnorm_wordpool_less_exclusions.txt	LTP236	ltpFR	6	7	1	FLESH	579	n/a	n/a	0	n/a	n/a	n/a	n/a	n/a
1049800	WORD	wordpools/wasnorm_wordpool_less_exclusions.txt	LTP236	ltpFR	6	8	0	FUGITIVE	612	n/a	n/a	1	0.57763671875	0.412841796875	1	upper	amplitud.ttf
1053860	WORD	wordpools/wasnorm_wordpool_less_exclusions.txt	LTP236	ltpFR	6	8	0	PAINTING	1005	n/a	n/a	0	0.57763671875	0.412841796875	1	upper	amplitud.ttf
1057821	WORD	wordpools/wasnorm_wordpool_less_exclusions.txt	LTP236	ltpFR	6	8	0	FISH	571	n/a	n/a	0	0.57763671875	0.412841796875	1	upper	amplitud.ttf
1061732	WORD	wordpools/wasnorm_wordpool_less_exclusions.txt	LTP236	ltpFR	6	8	0	RAG	1160	n/a	n/a	1	0.57763671875	0.412841796875	1	upper	amplitud.ttf
1065593	WORD	wordpools/wasnorm_wordpool_less_exclusions.txt	LTP236	ltpFR	6	8	0	POLYESTER	1100	n/a	n/a	0	0.57763671875	0.412841796875	1	upper	amplitud.ttf
1069687	WORD	wordpools/wasnorm_wordpool_less_exclusions.txt	LTP236	ltpFR	6	8	0	RASH	1167	n/a	n/a	0	0.57763671875	0.412841796875	1	upper	amplitud.ttf
1073614	WORD	wordpools/wasnorm_wordpool_less_exclusions.txt	LTP236	ltpFR	6	8	0	BEE	112	n/a	n/a	0	0.57763671875	0.412841796875	1	upper	amplitud.ttf
1077658	WORD	wordpools/wasnorm_wordpool_less_exclusions.txt	LTP236	ltpFR	6	8	0	HONEY	713	n/a	n/a	0	0.57763671875	0.412841796875	1	upper	amplitud.ttf
1081702	WORD	wordpools/wasnorm_wordpool_less_exclusions.txt	LTP236	ltpFR	6	8	0	QUILT	1151	n/a	n/a	0	0.57763671875	0.412841796875	1	upper	amplitud.ttf
1085897	WORD	wordpools/wasnorm_wordpool_less_exclusions.txt	LTP236	ltpFR	6	8	0	HANDKERCHIEF	686	n/a	n/a	0	0.57763671875	0.412841796875	1	upper	amplitud.ttf
1089991	WORD	wordpools/wasnorm_wordpool_less_exclusions.txt	LTP236	ltpFR	6	8	0	BACON	67	n/a	n/a	0	0.57763671875	0.412841796875	1	upper	amplitud.ttf
1094101	WORD	wordpools/wasnorm_wordpool_less_exclusions.txt	LTP236	ltpFR	6	8	0	PIT	1077	n/a	n/a	1	0.57763671875	0.412841796875	1	upper	amplitud.ttf
1098245	WORD	wordpools/wasnorm_wordpool_less_exclusions.txt	LTP236	ltpFR	6	8	0	DRAWING	494	n/a	n/a	0	0.57763671875	0.412841796875	1	upper	amplitud.ttf
1102455	WORD	wordpools/wasnorm_wordpool_less_exclusions.txt	LTP236	ltpFR	6	8	0	OUTLAW	989	n/a	n/a	0	0.57763671875	0.412841796875	1	upper	amplitud.ttf
1106499	WORD	wordpools/wasnorm_wordpool_less_exclusions.txt	LTP236	ltpFR	6	8	0	CLAW	319	n/a	n/a	0	0.57763671875	0.412841796875	1	upper	amplitud.ttf
1110609	WORD	wordpools/wasnorm_wordpool_less_exclusions.txt	LTP236	ltpFR	6	8	0	CROOK	412	n/a	n/a	0	0.57763671875	0.412841796875	1	upper	amplitud.ttf
1116601	REC_START	n/a	LTP236	ltpFR	6	8	n/a	n/a	n/a	n/a	n/a	n/a	n/a	n/a	n/a	n/a	n/a
1117873	REC_WORD	wordpools/wasnorm_wordpool_less_exclusions.txt	LTP236	ltpFR	6	8	0	OUTLAW	989	n/a	n/a	0	n/a	n/a	n/a	n/a	n/a
1119219	REC_WORD	wordpools/wasnorm_wordpool_less_exclusions.txt	LTP236	ltpFR	6	8	0	CLAW	319	n/a	n/a	0	n/a	n/a	n/a	n/a	n/a
1120512	REC_WORD	wordpools/wasnorm_wordpool_less_exclusions.txt	LTP236	ltpFR	6	8	0	CROOK	412	n/a	n/a	0	n/a	n/a	n/a	n/a	n/a
1123435	REC_WORD	wordpools/wasnorm_wordpool_less_exclusions.txt	LTP236	ltpFR	6	8	0	DRAWING	494	n/a	n/a	0	n/a	n/a	n/a	n/a	n/a
1124538	REC_WORD	wordpools/wasnorm_wordpool_less_exclusions.txt	LTP236	ltpFR	6	8	0	PIT	1077	n/a	n/a	1	n/a	n/a	n/a	n/a	n/a
1125630	REC_WORD	wordpools/wasnorm_wordpool_less_exclusions.txt	LTP236	ltpFR	6	8	0	BACON	67	n/a	n/a	0	n/a	n/a	n/a	n/a	n/a
1126343	REC_WORD	wordpools/wasnorm_wordpool_less_exclusions.txt	LTP236	ltpFR	6	8	0	HANDKERCHIEF	686	n/a	n/a	0	n/a	n/a	n/a	n/a	n/a
1127343	REC_WORD_VV	wordpools/wasnorm_wordpool_less_exclusions.txt	LTP236	ltpFR	6	8	n/a	<>	-1	n/a	n/a	n/a	n/a	n/a	n/a	n/a	n/a
1127830	REC_WORD	wordpools/wasnorm_wordpool_less_exclusions.txt	LTP236	ltpFR	6	8	0	BEE	112	n/a	n/a	0	n/a	n/a	n/a	n/a	n/a
1128574	REC_WORD	wordpools/wasnorm_wordpool_less_exclusions.txt	LTP236	ltpFR	6	8	0	HONEY	713	n/a	n/a	0	n/a	n/a	n/a	n/a	n/a
1131881	REC_WORD	wordpools/wasnorm_wordpool_less_exclusions.txt	LTP236	ltpFR	6	8	0	FUGITIVE	612	n/a	n/a	1	n/a	n/a	n/a	n/a	n/a
1133896	REC_WORD	wordpools/wasnorm_wordpool_less_exclusions.txt	LTP236	ltpFR	6	8	0	PAINTING	1005	n/a	n/a	0	n/a	n/a	n/a	n/a	n/a
1143335	REC_WORD	wordpools/wasnorm_wordpool_less_exclusions.txt	LTP236	ltpFR	6	8	n/a	RUG	1215	n/a	n/a	n/a	n/a	n/a	n/a	n/a	n/a
1144647	REC_WORD	wordpools/wasnorm_wordpool_less_exclusions.txt	LTP236	ltpFR	6	8	0	QUILT	1151	n/a	n/a	0	n/a	n/a	n/a	n/a	n/a
1145670	REC_WORD	wordpools/wasnorm_wordpool_less_exclusions.txt	LTP236	ltpFR	6	8	0	POLYESTER	1100	n/a	n/a	0	n/a	n/a	n/a	n/a	n/a
1146670	REC_WORD_VV	wordpools/wasnorm_wordpool_less_exclusions.txt	LTP236	ltpFR	6	8	n/a	<>	-1	n/a	n/a	n/a	n/a	n/a	n/a	n/a	n/a
1195217	WORD	wordpools/wasnorm_wordpool_less_exclusions.txt	LTP236	ltpFR	6	9	0	COUNTRY	388	n/a	n/a	1	0.57763671875	0.412841796875	1	upper	amplitud.ttf
1199078	WORD	wordpools/wasnorm_wordpool_less_exclusions.txt	LTP236	ltpFR	6	9	0	DOLL	481	n/a	n/a	0	0.57763671875	0.412841796875	1	upper	amplitud.ttf
1203255	WORD	wordpools/wasnorm_wordpool_less_exclusions.txt	LTP236	ltpFR	6	9	1	WRITER	1627	n/a	n/a	1	0.422607421875	0.5869140625	0	lower	zerothre.ttf
1207099	WORD	wordpools/wasnorm_wordpool_less_exclusions.txt	LTP236	ltpFR	6	9	1	ARTICLE	42	n/a	n/a	0	0.422607421875	0.5869140625	0	lower	zerothre.ttf
1210993	WORD	wordpools/wasnorm_wordpool_less_exclusions.txt	LTP236	ltpFR	6	9	1	EDITOR	516	n/a	n/a	1	0.422607421875	0.5869140625	0	lower	zerothre.ttf
1214853	WORD	wordpools/wasnorm_wordpool_less_exclusions.txt	LTP236	ltpFR	6	9	1	SHEET	1279	n/a	n/a	0	0.422607421875	0.5869140625	0	lower	zerothre.ttf
1218831	WORD	wordpools/wasnorm_wordpool_less_exclusions.txt	LTP236	ltpFR	6	9	0	BINDER	127	n/a	n/a	1	0.57763671875	0.412841796875	1	upper	amplitud.ttf
1222658	WORD	wordpools/wasnorm_wordpool_less_exclusions.txt	LTP236	ltpFR	6	9	0	PICNIC	1060	n/a	n/a	1	0.57763671875	0.412841796875	1	upper	amplitud.ttf
1226802	WORD	wordpools/wasnorm_wordpool_less_exclusions.txt	LTP236	ltpFR	6	9	1	LADDER	793	n/a	n/a	0	0.422607421875	0.5869140625	0	lower	zerothre.ttf
1231013	WORD	wordpools/wasnorm_wordpool_less_exclusions.txt	LTP236	ltpFR	6	9	1	XEROX	1628	n/a	n/a	0	0.422607421875	0.5869140625	0	lower	zerothre.ttf
1235174	WORD	wordpools/wasnorm_wordpool_less_exclusions.txt	LTP236	ltpFR	6	9	1	JUNGLE	764	n/a	n/a	1	0.422607421875	0.5869140625	0	lower	zerothre.ttf
1239035	WORD	wordpools/wasnorm_wordpool_less_exclusions.txt	LTP236	ltpFR	6	9	1	PANTHER	1009	n/a	n/a	1	0.422607421875	0.5869140625	0	lower	zerothre.ttf
1243145	WORD	wordpools/wasnorm_wordpool_less_exclusions.txt	LTP236	ltpFR	6	9	0	CARPENTER	246	n/a	n/a	1	0.57763671875	0.412841796875	1	upper	amplitud.ttf
1246973	WORD	wordpools/wasnorm_wordpool_less_exclusions.txt	LTP236	ltpFR	6	9	0	CATERPILLAR	259	n/a	n/a	0	0.57763671875	0.412841796875	1	upper	amplitud.ttf
1251150	WORD	wordpools/wasnorm_wordpool_less_exclusions.txt	LTP236	ltpFR	6	9	0	BASSINET	97	n/a	n/a	0	0.57763671875	0.412841796875	1	upper	amplitud.ttf
1254978	WORD	wordpools/wasnorm_wordpool_less_exclusions.txt	LTP236	ltpFR	6	9	0	ASIA	46	n/a	n/a	1	0.57763671875	0.412841796875	1	upper	amplitud.ttf
1260986	REC_START	n/a	LTP236	ltpFR	6	9	n/a	n/a	n/a	n/a	n/a	n/a	n/a	n/a	n/a	n/a	n/a
1262158	REC_WORD	wordpools/wasnorm_wordpool_less_exclusions.txt	LTP236	ltpFR	6	9	0	ASIA	46	n/a	n/a	1	n/a	n/a	n/a	n/a	n/a
1263530	REC_WORD	wordpools/wasnorm_wordpool_less_exclusions.txt	LTP236	ltpFR	6	9	0	BASSINET	97	n/a	n/a	0	n/a	n/a	n/a	n/a	n/a
1264530	REC_WORD_VV	wordpools/wasnorm_wordpool_less_exclusions.txt	LTP236	ltpFR	6	9	n/a	<>	-1	n/a	n/a	n/a	n/a	n/a	n/a	n/a	n/a
1265166	REC_WORD	wordpools/wasnorm_wordpool_less_exclusions.txt	LTP236	ltpFR	6	9	0	CATERPILLAR	259	n/a	n/a	0	n/a	n/a	n/a	n/a	n/a
1266166	REC_WORD_VV	wordpools/wasnorm_wordpool_less_exclusions.txt	LTP236	ltpFR	6	9	n/a	<>	-1	n/a	n/a	n/a	n/a	n/a	n/a	n/a	n/a
1266977	REC_WORD	wordpools/wasnorm_wordpool_less_exclusions.txt	LTP236	ltpFR	6	9	0	CARPENTER	246	n/a	n/a	1	n/a	n/a	n/a	n/a	n/a
1267977	REC_WORD_VV	wordpools/wasnorm_wordpool_less_exclusions.txt	LTP236	ltpFR	6	9	n/a	<>	-1	n/a	n/a	n/a	n/a	n/a	n/a	n/a	n/a
1271063	REC_WORD	wordpools/wasnorm_wordpool_less_exclusions.txt	LTP236	ltpFR	6	9	0	COUNTRY	388	n/a	n/a	1	n/a	n/a	n/a	n/a	n/a
1272063	REC_WORD_VV	wordpools/wasnorm_wordpool_less_exclusions.txt	LTP236	ltpFR	6	9	n/a	<>	-1	n/a	n/a	n/a	n/a	n/a	n/a	n/a	n/a
1272305	REC_WORD	wordpools/wasnorm_wordpool_less_exclusions.txt	LTP236	ltpFR	6	9	0	DOLL	481	n/a	n/a	0	n/a	n/a	n/a	n/a	n/a
1274495	REC_WORD	wordpools/wasnorm_wordpool_less_exclusions.txt	LTP236	ltpFR	6	9	1	EDITOR	516	n/a	n/a	1	n/a	n/a	n/a	n/a	n/a
1276206	REC_WORD	wordpools/wasnorm_wordpool_less_exclusions.txt	LTP236	ltpFR	6	9	1	WRITER	1627	n/a	n/a	1	n/a	n/a	n/a	n/a	n/a
1277224	REC_WORD	wordpools/wasnorm_wordpool_less_exclusions.txt	LTP236	ltpFR	6	9	1	ARTICLE	42	n/a	n/a	0	n/a	n/a	n/a	n/a	n/a
1278224	REC_WORD	wordpools/wasnorm_wordpool_less_exclusions.txt	LTP236	ltpFR	6	9	1	SHEET	1279	n/a	n/a	0	n/a	n/a	n/a	n/a	n/a
1281649	REC_WORD	wordpools/wasnorm_wordpool_less_exclusions.txt	LTP236	ltpFR	6	9	1	XEROX	1628	n/a	n/a	0	n/a	n/a	n/a	n/a	n/a
1282649	REC_WORD_VV	wordpools/wasnorm_wordpool_less_exclusions.txt	LTP236	ltpFR	6	9	n/a	<>	-1	n/a	n/a	n/a	n/a	n/a	n/a	n/a	n/a
1283066	REC_WORD	wordpools/wasnorm_wordpool_less_exclusions.txt	LTP236	ltpFR	6	9	n/a	LEOPARD	812	n/a	n/a	n/a	n/a	n/a	n/a	n/a	n/a
1284427	REC_WORD	wordpools/wasnorm_wordpool_less_exclusions.txt	LTP236	ltpFR	6	9	1	JUNGLE	764	n/a	n/a	1	n/a	n/a	n/a	n/a	n/a
1285515	REC_WORD	wordpools/wasnorm_wordpool_less_exclusions.txt	LTP236	ltpFR	6	9	1	LADDER	793	n/a	n/a	0	n/a	n/a	n/a	n/a	n/a
1286603	REC_WORD	wordpools/wasnorm_wordpool_less_exclusions.txt	LTP236	ltpFR	6	9	0	PICNIC	1060	n/a	n/a	1	n/a	n/a	n/a	n/a	n/a
1297802	REC_WORD	wordpools/wasnorm_wordpool_less_exclusions.txt	LTP236	ltpFR	6	9	0	BINDER	127	n/a	n/a	1	n/a	n/a	n/a	n/a	n/a
1339435	WORD	wordpools/wasnorm_wordpool_less_exclusions.txt	LTP236	ltpFR	6	10	0	TOOTH	1481	n/a	n/a	0	0.57763671875	0.412841796875	1	upper	amplitud.ttf
1343644	WORD	wordpools/wasnorm_wordpool_less_exclusions.txt	LTP236	ltpFR	6	10	0	CHAIRPERSON	275	n/a	n/a	1	0.57763671875	0.412841796875	1	upper	amplitud.ttf
1347771	WORD	wordpools/wasnorm_wordpool_less_exclusions.txt	LTP236	ltpFR	6	10	0	WELL	1600	n/a	n/a	1	0.57763671875	0.412841796875	1	upper	amplitud.ttf
1351765	WORD	wordpools/wasnorm_wordpool_less_exclusions.txt	LTP236	ltpFR	6	10	0	POOL	1103	n/a	n/a	1	0.57763671875	0.412841796875	1	upper	amplitud.ttf
1355927	WORD	wordpools/wasnorm_wordpool_less_exclusions.txt	LTP236	ltpFR	6	10	0	LITTER	832	n/a	n/a	0	0.57763671875	0.412841796875	1	upper	amplitud.ttf
1359971	WORD	wordpools/wasnorm_wordpool_less_exclusions.txt	LTP236	ltpFR	6	10	0	CHIEF	298	n/a	n/a	1	0.57763671875	0.412841796875	1	upper	amplitud.ttf
1364131	WORD	wordpools/wasnorm_wordpool_less_exclusions.txt	LTP236	ltpFR	6	10	0	GENERAL	630	n/a	n/a	1	0.57763671875	0.412841796875	1	upper	amplitud.ttf
1368059	WORD	wordpools/wasnorm_wordpool_less_exclusions.txt	LTP236	ltpFR	6	10	0	CITY	314	n/a	n/a	1	0.57763671875	0.412841796875	1	upper	amplitud.ttf
1372203	WORD	wordpools/wasnorm_wordpool_less_exclusions.txt	LTP236	ltpFR	6	10	0	LINEN	825	n/a	n/a	0	0.57763671875	0.412841796875	1	upper	amplitud.ttf
1376080	WORD	wordpools/wasnorm_wordpool_less_exclusions.txt	LTP236	ltpFR	6	10	0	BOARD	143	n/a	n/a	1	0.57763671875	0.412841796875	1	upper	amplitud.ttf
1380274	WORD	wordpools/wasnorm_wordpool_less_exclusions.txt	LTP236	ltpFR	6	10	0	STOVE	1388	n/a	n/a	0	0.57763671875	0.412841796875	1	upper	amplitud.ttf
1384235	WORD	wordpools/wasnorm_wordpool_less_exclusions.txt	LTP236	ltpFR	6	10	0	WHEAT	1602	n/a	n/a	0	0.57763671875	0.412841796875	1	upper	amplitud.ttf
1388062	WORD	wordpools/wasnorm_wordpool_less_exclusions.txt	LTP236	ltpFR	6	10	0	FOOT	590	n/a	n/a	0	0.57763671875	0.412841796875	1	upper	amplitud.ttf
1392040	WORD	wordpools/wasnorm_wordpool_less_exclusions.txt	LTP236	ltpFR	6	10	0	HEEL	700	n/a	n/a	0	0.57763671875	0.412841796875	1	upper	amplitud.ttf
1395884	WORD	wordpools/wasnorm_wordpool_less_exclusions.txt	LTP236	ltpFR	6	10	0	ARMY	39	n/a	n/a	1	0.57763671875	0.412841796875	1	upper	amplitud.ttf
1400061	WORD	wordpools/wasnorm_wordpool_less_exclusions.txt	LTP236	ltpFR	6	10	0	COMMITTEE	355	n/a	n/a	1	0.57763671875	0.412841796875	1	upper	amplitud.ttf
1406086	REC_START	n/a	LTP236	ltpFR	6	10	n/a	n/a	n/a	n/a	n/a	n/a	n/a	n/a	n/a	n/a	n/a
1407538	REC_WORD	wordpools/wasnorm_wordpool_less_exclusions.txt	LTP236	ltpFR	6	10	0	COMMITTEE	355	n/a	n/a	1	n/a	n/a	n/a	n/a	n/a
1408795	REC_WORD	wordpools/wasnorm_wordpool_less_exclusions.txt	LTP236	ltpFR	6	10	0	HEEL	700	n/a	n/a	0	n/a	n/a	n/a	n/a	n/a
1410046	REC_WORD	wordpools/wasnorm_wordpool_less_exclusions.txt	LTP236	ltpFR	6	10	0	FOOT	590	n/a	n/a	0	n/a	n/a	n/a	n/a	n/a
1411046	REC_WORD_VV	wordpools/wasnorm_wordpool_less_exclusions.txt	LTP236	ltpFR	6	10	n/a	<>	-1	n/a	n/a	n/a	n/a	n/a	n/a	n/a	n/a
1413569	REC_WORD	wordpools/wasnorm_wordpool_less_exclusions.txt	LTP236	ltpFR	6	10	0	GENERAL	630	n/a	n/a	1	n/a	n/a	n/a	n/a	n/a
1415055	REC_WORD	wordpools/wasnorm_wordpool_less_exclusions.txt	LTP236	ltpFR	6	10	0	CHIEF	298	n/a	n/a	1	n/a	n/a	n/a	n/a	n/a
1426564	REC_WORD	wordpools/wasnorm_wordpool_less_exclusions.txt	LTP236	ltpFR	6	10	0	CHAIRPERSON	275	n/a	n/a	1	n/a	n/a	n/a	n/a	n/a
1427776	REC_WORD	wordpools/wasnorm_wordpool_less_exclusions.txt	LTP236	ltpFR	6	10	0	WELL	1600	n/a	n/a	1	n/a	n/a	n/a	n/a	n/a
1428984	REC_WORD	wordpools/wasnorm_wordpool_less_exclusions.txt	LTP236	ltpFR	6	10	0	POOL	1103	n/a	n/a	1	n/a	n/a	n/a	n/a	n/a
1429996	REC_WORD	wordpools/wasnorm_wordpool_less_exclusions.txt	LTP236	ltpFR	6	10	0	TOOTH	1481	n/a	n/a	0	n/a	n/a	n/a	n/a	n/a
1468359	REC_WORD	wordpools/wasnorm_wordpool_less_exclusions.txt	LTP236	ltpFR	6	10	0	FOOT	590	n/a	n/a	0	n/a	n/a	n/a	n/a	n/a
1469359	REC_WORD_VV	wordpools/wasnorm_wordpool_less_exclusions.txt	LTP236	ltpFR	6	10	n/a	<>	-1	n/a	n/a	n/a	n/a	n/a	n/a	n/a	n/a
1484833	WORD	wordpools/wasnorm_wordpool_less_exclusions.txt	LTP236	ltpFR	6	11	-1	ENVELOPE	537	n/a	n/a	-1	1.0	1.0	1	upper	Verdana.ttf
1488794	WORD	wordpools/wasnorm_wordpool_less_exclusions.txt	LTP236	ltpFR	6	11	-1	PACKAGE	997	n/a	n/a	-1	1.0	1.0	1	upper	Verdana.ttf
1492972	WORD	wordpools/wasnorm_wordpool_less_exclusions.txt	LTP236	ltpFR	6	11	-1	MOOSE	915	n/a	n/a	-1	1.0	1.0	1	upper	Verdana.ttf
1497116	WORD	wordpools/wasnorm_wordpool_less_exclusions.txt	LTP236	ltpFR	6	11	-1	SAW	1239	n/a	n/a	-1	1.0	1.0	1	upper	Verdana.ttf
1501093	WORD	wordpools/wasnorm_wordpool_less_exclusions.txt	LTP236	ltpFR	6	11	-1	EMPEROR	529	n/a	n/a	-1	1.0	1.0	1	upper	Verdana.ttf
1505270	WORD	wordpools/wasnorm_wordpool_less_exclusions.txt	LTP236	ltpFR	6	11	-1	JELLY	755	n/a	n/a	-1	1.0	1.0	1	upper	Verdana.ttf
1509265	WORD	wordpools/wasnorm_wordpool_less_exclusions.txt	LTP236	ltpFR	6	11	-1	STOCKING	1383	n/a	n/a	-1	1.0	1.0	1	upper	Verdana.ttf
1513342	WORD	wordpools/wasnorm_wordpool_less_exclusions.txt	LTP236	ltpFR	6	11	-1	CHAUFFEUR	283	n/a	n/a	-1	1.0	1.0	1	upper	Verdana.ttf
1517336	WORD	wordpools/wasnorm_wordpool_less_exclusions.txt	LTP236	ltpFR	6	11	-1	MECHANIC	884	n/a	n/a	-1	1.0	1.0	1	upper	Verdana.ttf
1521230	WORD	wordpools/wasnorm_wordpool_less_exclusions.txt	LTP236	ltpFR	6	11	-1	BANQUET	86	n/a	n/a	-1	1.0	1.0	1	upper	Verdana.ttf
1525174	WORD	wordpools/wasnorm_wordpool_less_exclusions.txt	LTP236	ltpFR	6	11	-1	NEWSSTAND	949	n/a	n/a	-1	1.0	1.0	1	upper	Verdana.ttf
1529301	WORD	wordpools/wasnorm_wordpool_less_exclusions.txt	LTP236	ltpFR	6	11	-1	JAM	748	n/a	n/a	-1	1.0	1.0	1	upper	Verdana.ttf
1533462	WORD	wordpools/wasnorm_wordpool_less_exclusions.txt	LTP236	ltpFR	6	11	-1	TREAD	1499	n/a	n/a	-1	1.0	1.0	1	upper	Verdana.ttf
1537356	WORD	wordpools/wasnorm_wordpool_less_exclusions.txt	LTP236	ltpFR	6	11	-1	MARKET	871	n/a	n/a	-1	1.0	1.0	1	upper	Verdana.ttf
1541450	WORD	wordpools/wasnorm_wordpool_less_exclusions.txt	LTP236	ltpFR	6	11	-1	PUBLICATION	1136	n/a	n/a	-1	1.0	1.0	1	upper	Verdana.ttf
1545277	WORD	wordpools/wasnorm_wordpool_less_exclusions.txt	LTP236	ltpFR	6	11	-1	SCROLL	1257	n/a	n/a	-1	1.0	1.0	1	upper	Verdana.ttf
1551336	REC_START	n/a	LTP236	ltpFR	6	11	n/a	n/a	n/a	n/a	n/a	n/a	n/a	n/a	n/a	n/a	n/a
1552648	REC_WORD	wordpools/wasnorm_wordpool_less_exclusions.txt	LTP236	ltpFR	6	11	0	CLASS	318	n/a	n/a	0	n/a	n/a	n/a	n/a	n/a
1553511	REC_WORD	wordpools/wasnorm_wordpool_less_exclusions.txt	LTP236	ltpFR	6	11	-1	TREAD	1499	n/a	n/a	-1	n/a	n/a	n/a	n/a	n/a
1554434	REC_WORD	wordpools/wasnorm_wordpool_less_exclusions.txt	LTP236	ltpFR	6	11	-1	MARKET	871	n/a	n/a	-1	n/a	n/a	n/a	n/a	n/a
1555137	REC_WORD	wordpools/wasnorm_wordpool_less_exclusions.txt	LTP236	ltpFR	6	11	-1	PUBLICATION	1136	n/a	n/a	-1	n/a	n/a	n/a	n/a	n/a
1556137	REC_WORD_VV	wordpools/wasnorm_wordpool_less_exclusions.txt	LTP236	ltpFR	6	11	n/a	<>	-1	n/a	n/a	n/a	n/a	n/a	n/a	n/a	n/a
1556778	REC_WORD	wordpools/wasnorm_wordpool_less_exclusions.txt	LTP236	ltpFR	6	11	-1	SCROLL	1257	n/a	n/a	-1	n/a	n/a	n/a	n/a	n/a
1563503	REC_WORD	wordpools/wasnorm_wordpool_less_exclusions.txt	LTP236	ltpFR	6	11	-1	EMPEROR	529	n/a	n/a	-1	n/a	n/a	n/a	n/a	n/a
1564503	REC_WORD_VV	wordpools/wasnorm_wordpool_less_exclusions.txt	LTP236	ltpFR	6	11	n/a	<>	-1	n/a	n/a	n/a	n/a	n/a	n/a	n/a	n/a
1601617	REC_WORD	wordpools/wasnorm_wordpool_less_exclusions.txt	LTP236	ltpFR	6	11	-1	JELLY	755	n/a	n/a	-1	n/a	n/a	n/a	n/a	n/a
1629901	WORD	wordpools/wasnorm_wordpool_less_exclusions.txt	LTP236	ltpFR	6	12	1	RACK	1154	n/a	n/a	0	0.422607421875	0.5869140625	0	lower	zerothre.ttf
1634061	WORD	wordpools/wasnorm_wordpool_less_exclusions.txt	LTP236	ltpFR	6	12	1	LAUNDRY	803	n/a	n/a	0	0.422607421875	0.5869140625	0	lower	zerothre.ttf
1638105	WORD	wordpools/wasnorm_wordpool_less_exclusions.txt	LTP236	ltpFR	6	12	1	TUSK	1523	n/a	n/a	0	0.422607421875	0.5869140625	0	lower	zerothre.ttf
1642116	WORD	wordpools/wasnorm_wordpool_less_exclusions.txt	LTP236	ltpFR	6	12	1	LIBRARY	816	n/a	n/a	0	0.422607421875	0.5869140625	0	lower	zerothre.ttf
1645960	WORD	wordpools/wasnorm_wordpool_less_exclusions.txt	LTP236	ltpFR	6	12	1	VINE	1568	n/a	n/a	0	0.422607421875	0.5869140625	0	lower	zerothre.ttf
1649787	WORD	wordpools/wasnorm_wordpool_less_exclusions.txt	LTP236	ltpFR	6	12	1	JUG	762	n/a	n/a	0	0.422607421875	0.5869140625	0	lower	zerothre.ttf
1653848	WORD	wordpools/wasnorm_wordpool_less_exclusions.txt	LTP236	ltpFR	6	12	1	CREW	406	n/a	n/a	1	0.422607421875	0.5869140625	0	lower	zerothre.ttf
1657942	WORD	wordpools/wasnorm_wordpool_less_exclusions.txt	LTP236	ltpFR	6	12	1	HOSTESS	723	n/a	n/a	1	0.422607421875	0.5869140625	0	lower	zerothre.ttf
1661802	WORD	wordpools/wasnorm_wordpool_less_exclusions.txt	LTP236	ltpFR	6	12	1	WAITER	1580	n/a	n/a	1	0.422607421875	0.5869140625	0	lower	zerothre.ttf
1665813	WORD	wordpools/wasnorm_wordpool_less_exclusions.txt	LTP236	ltpFR	6	12	1	SHOULDER	1294	n/a	n/a	0	0.422607421875	0.5869140625	0	lower	zerothre.ttf
1669790	WORD	wordpools/wasnorm_wordpool_less_exclusions.txt	LTP236	ltpFR	6	12	1	MONUMENT	913	n/a	n/a	0	0.422607421875	0.5869140625	0	lower	zerothre.ttf
1673968	WORD	wordpools/wasnorm_wordpool_less_exclusions.txt	LTP236	ltpFR	6	12	1	BERRY	122	n/a	n/a	0	0.422607421875	0.5869140625	0	lower	zerothre.ttf
1677828	WORD	wordpools/wasnorm_wordpool_less_exclusions.txt	LTP236	ltpFR	6	12	1	TYPEWRITER	1531	n/a	n/a	1	0.422607421875	0.5869140625	0	lower	zerothre.ttf
1681806	WORD	wordpools/wasnorm_wordpool_less_exclusions.txt	LTP236	ltpFR	6	12	1	LEAF	808	n/a	n/a	0	0.422607421875	0.5869140625	0	lower	zerothre.ttf
1685850	WORD	wordpools/wasnorm_wordpool_less_exclusions.txt	LTP236	ltpFR	6	12	1	PEAR	1033	n/a	n/a	0	0.422607421875	0.5869140625	0	lower	zerothre.ttf
1690028	WORD	wordpools/wasnorm_wordpool_less_exclusions.txt	LTP236	ltpFR	6	12	1	PIRATE	1074	n/a	n/a	1	0.422607421875	0.5869140625	0	lower	zerothre.ttf
1695886	REC_START	n/a	LTP236	ltpFR	6	12	n/a	n/a	n/a	n/a	n/a	n/a	n/a	n/a	n/a	n/a	n/a
1696968	REC_WORD	wordpools/wasnorm_wordpool_less_exclusions.txt	LTP236	ltpFR	6	12	1	TYPEWRITER	1531	n/a	n/a	1	n/a	n/a	n/a	n/a	n/a
1697981	REC_WORD	wordpools/wasnorm_wordpool_less_exclusions.txt	LTP236	ltpFR	6	12	1	LEAF	808	n/a	n/a	0	n/a	n/a	n/a	n/a	n/a
1698974	REC_WORD	wordpools/wasnorm_wordpool_less_exclusions.txt	LTP236	ltpFR	6	12	1	PEAR	1033	n/a	n/a	0	n/a	n/a	n/a	n/a	n/a
1700161	REC_WORD	wordpools/wasnorm_wordpool_less_exclusions.txt	LTP236	ltpFR	6	12	1	PIRATE	1074	n/a	n/a	1	n/a	n/a	n/a	n/a	n/a
1702286	REC_WORD	wordpools/wasnorm_wordpool_less_exclusions.txt	LTP236	ltpFR	6	12	1	HOSTESS	723	n/a	n/a	1	n/a	n/a	n/a	n/a	n/a
1703419	REC_WORD	wordpools/wasnorm_wordpool_less_exclusions.txt	LTP236	ltpFR	6	12	1	WAITER	1580	n/a	n/a	1	n/a	n/a	n/a	n/a	n/a
1753570	REC_WORD	wordpools/wasnorm_wordpool_less_exclusions.txt	LTP236	ltpFR	6	12	1	RACK	1154	n/a	n/a	0	n/a	n/a	n/a	n/a	n/a
1754478	REC_WORD	wordpools/wasnorm_wordpool_less_exclusions.txt	LTP236	ltpFR	6	12	1	LAUNDRY	803	n/a	n/a	0	n/a	n/a	n/a	n/a	n/a
1759471	REC_WORD	wordpools/wasnorm_wordpool_less_exclusions.txt	LTP236	ltpFR	6	12	1	BERRY	122	n/a	n/a	0	n/a	n/a	n/a	n/a	n/a
1771506	REST_REWET	n/a	LTP236	ltpFR	6	12	n/a	n/a	n/a	n/a	n/a	n/a	n/a	n/a	n/a	n/a	n/a
2237327	WORD	wordpools/wasnorm_wordpool_less_exclusions.txt	LTP236	ltpFR	6	13	0	LETTER	813	n/a	n/a	0	0.57763671875	0.412841796875	1	upper	amplitud.ttf
2241188	WORD	wordpools/wasnorm_wordpool_less_exclusions.txt	LTP236	ltpFR	6	13	0	LOCK	838	n/a	n/a	0	0.57763671875	0.412841796875	1	upper	amplitud.ttf
2245082	WORD	wordpools/wasnorm_wordpool_less_exclusions.txt	LTP236	ltpFR	6	13	0	PLASTER	1085	n/a	n/a	0	0.57763671875	0.412841796875	1	upper	amplitud.ttf
2249292	WORD	wordpools/wasnorm_wordpool_less_exclusions.txt	LTP236	ltpFR	6	13	0	JAR	750	n/a	n/a	0	0.57763671875	0.412841796875	1	upper	amplitud.ttf
2253137	WORD	wordpools/wasnorm_wordpool_less_exclusions.txt	LTP236	ltpFR	6	13	0	HAMBURGER	679	n/a	n/a	0	0.57763671875	0.412841796875	1	upper	amplitud.ttf
2257264	WORD	wordpools/wasnorm_wordpool_less_exclusions.txt	LTP236	ltpFR	6	13	1	CAR	241	n/a	n/a	0	0.422607421875	0.5869140625	0	lower	zerothre.ttf
2261125	WORD	wordpools/wasnorm_wordpool_less_exclusions.txt	LTP236	ltpFR	6	13	1	GARAGE	621	n/a	n/a	0	0.422607421875	0.5869140625	0	lower	zerothre.ttf
2265235	WORD	wordpools/wasnorm_wordpool_less_exclusions.txt	LTP236	ltpFR	6	13	1	RELATIVE	1182	n/a	n/a	1	0.422607421875	0.5869140625	0	lower	zerothre.ttf
2269379	WORD	wordpools/wasnorm_wordpool_less_exclusions.txt	LTP236	ltpFR	6	13	1	DENIM	446	n/a	n/a	0	0.422607421875	0.5869140625	0	lower	zerothre.ttf
2273207	WORD	wordpools/wasnorm_wordpool_less_exclusions.txt	LTP236	ltpFR	6	13	0	PAN	1008	n/a	n/a	0	0.57763671875	0.412841796875	1	upper	amplitud.ttf
2277251	WORD	wordpools/wasnorm_wordpool_less_exclusions.txt	LTP236	ltpFR	6	13	0	UNCLE	1536	n/a	n/a	1	0.57763671875	0.412841796875	1	upper	amplitud.ttf
2281428	WORD	wordpools/wasnorm_wordpool_less_exclusions.txt	LTP236	ltpFR	6	13	0	STICKER	1382	n/a	n/a	0	0.57763671875	0.412841796875	1	upper	amplitud.ttf
2285621	WORD	wordpools/wasnorm_wordpool_less_exclusions.txt	LTP236	ltpFR	6	13	1	SNOB	1335	n/a	n/a	1	0.422607421875	0.5869140625	0	lower	zerothre.ttf
2289831	WORD	wordpools/wasnorm_wordpool_less_exclusions.txt	LTP236	ltpFR	6	13	1	HALL	677	n/a	n/a	1	0.422607421875	0.5869140625	0	lower	zerothre.ttf
2293893	WORD	wordpools/wasnorm_wordpool_less_exclusions.txt	LTP236	ltpFR	6	13	1	AGENT	10	n/a	n/a	1	0.422607421875	0.5869140625	0	lower	zerothre.ttf
2297937	WORD	wordpools/wasnorm_wordpool_less_exclusions.txt	LTP236	ltpFR	6	13	1	COP	376	n/a	n/a	1	0.422607421875	0.5869140625	0	lower	zerothre.ttf
2303777	REC_START	n/a	LTP236	ltpFR	6	13	n/a	n/a	n/a	n/a	n/a	n/a	n/a	n/a	n/a	n/a	n/a
2304730	REC_WORD	wordpools/wasnorm_wordpool_less_exclusions.txt	LTP236	ltpFR	6	13	1	AGENT	10	n/a	n/a	1	n/a	n/a	n/a	n/a	n/a
2305677	REC_WORD	wordpools/wasnorm_wordpool_less_exclusions.txt	LTP236	ltpFR	6	13	1	COP	376	n/a	n/a	1	n/a	n/a	n/a	n/a	n/a
2306625	REC_WORD	wordpools/wasnorm_wordpool_less_exclusions.txt	LTP236	ltpFR	6	13	0	PAN	1008	n/a	n/a	0	n/a	n/a	n/a	n/a	n/a
2307498	REC_WORD	wordpools/wasnorm_wordpool_less_exclusions.txt	LTP236	ltpFR	6	13	0	STICKER	1382	n/a	n/a	0	n/a	n/a	n/a	n/a	n/a
2308575	REC_WORD	wordpools/wasnorm_wordpool_less_exclusions.txt	LTP236	ltpFR	6	13	1	SNOB	1335	n/a	n/a	1	n/a	n/a	n/a	n/a	n/a
2309728	REC_WORD	wordpools/wasnorm_wordpool_less_exclusions.txt	LTP236	ltpFR	6	13	0	UNCLE	1536	n/a	n/a	1	n/a	n/a	n/a	n/a	n/a
2310636	REC_WORD	wordpools/wasnorm_wordpool_less_exclusions.txt	LTP236	ltpFR	6	13	1	RELATIVE	1182	n/a	n/a	1	n/a	n/a	n/a	n/a	n/a
2311636	REC_WORD_VV	wordpools/wasnorm_wordpool_less_exclusions.txt	LTP236	ltpFR	6	13	n/a	<>	-1	n/a	n/a	n/a	n/a	n/a	n/a	n/a	n/a
2312038	REC_WORD	wordpools/wasnorm_wordpool_less_exclusions.txt	LTP236	ltpFR	6	13	1	CAR	241	n/a	n/a	0	n/a	n/a	n/a	n/a	n/a
2313225	REC_WORD	wordpools/wasnorm_wordpool_less_exclusions.txt	LTP236	ltpFR	6	13	1	GARAGE	621	n/a	n/a	0	n/a	n/a	n/a	n/a	n/a
2314408	REC_WORD	wordpools/wasnorm_wordpool_less_exclusions.txt	LTP236	ltpFR	6	13	1	DENIM	446	n/a	n/a	0	n/a	n/a	n/a	n/a	n/a
2319346	REC_WORD	wordpools/wasnorm_wordpool_less_exclusions.txt	LTP236	ltpFR	6	13	-1	ENVELOPE	537	n/a	n/a	-1	n/a	n/a	n/a	n/a	n/a
2366509	REC_WORD	wordpools/wasnorm_wordpool_less_exclusions.txt	LTP236	ltpFR	6	13	0	JAR	750	n/a	n/a	0	n/a	n/a	n/a	n/a	n/a
2386122	WORD	wordpools/wasnorm_wordpool_less_exclusions.txt	LTP236	ltpFR	6	14	1	SNACK	1331	n/a	n/a	0	0.422607421875	0.5869140625	0	lower	zerothre.ttf
2390049	WORD	wordpools/wasnorm_wordpool_less_exclusions.txt	LTP236	ltpFR	6	14	1	BOOK	149	n/a	n/a	0	0.422607421875	0.5869140625	0	lower	zerothre.ttf
2394026	WORD	wordpools/wasnorm_wordpool_less_exclusions.txt	LTP236	ltpFR	6	14	1	BARK	87	n/a	n/a	0	0.422607421875	0.5869140625	0	lower	zerothre.ttf
2398020	WORD	wordpools/wasnorm_wordpool_less_exclusions.txt	LTP236	ltpFR	6	14	1	DIAGRAM	456	n/a	n/a	0	0.422607421875	0.5869140625	0	lower	zerothre.ttf
2402131	WORD	wordpools/wasnorm_wordpool_less_exclusions.txt	LTP236	ltpFR	6	14	1	AIRPORT	13	n/a	n/a	0	0.422607421875	0.5869140625	0	lower	zerothre.ttf
2406125	WORD	wordpools/wasnorm_wordpool_less_exclusions.txt	LTP236	ltpFR	6	14	1	JET	756	n/a	n/a	0	0.422607421875	0.5869140625	0	lower	zerothre.ttf
2410252	WORD	wordpools/wasnorm_wordpool_less_exclusions.txt	LTP236	ltpFR	6	14	1	DIARY	460	n/a	n/a	0	0.422607421875	0.5869140625	0	lower	zerothre.ttf
2414313	WORD	wordpools/wasnorm_wordpool_less_exclusions.txt	LTP236	ltpFR	6	14	1	OBOE	969	n/a	n/a	0	0.422607421875	0.5869140625	0	lower	zerothre.ttf
2418174	WORD	wordpools/wasnorm_wordpool_less_exclusions.txt	LTP236	ltpFR	6	14	1	BELLY	119	n/a	n/a	0	0.422607421875	0.5869140625	0	lower	zerothre.ttf
2422334	WORD	wordpools/wasnorm_wordpool_less_exclusions.txt	LTP236	ltpFR	6	14	1	BACKBONE	66	n/a	n/a	0	0.422607421875	0.5869140625	0	lower	zerothre.ttf
2426228	WORD	wordpools/wasnorm_wordpool_less_exclusions.txt	LTP236	ltpFR	6	14	1	HERO	706	n/a	n/a	0	0.422607421875	0.5869140625	0	lower	zerothre.ttf
2430172	WORD	wordpools/wasnorm_wordpool_less_exclusions.txt	LTP236	ltpFR	6	14	1	NUN	962	n/a	n/a	1	0.422607421875	0.5869140625	0	lower	zerothre.ttf
2434133	WORD	wordpools/wasnorm_wordpool_less_exclusions.txt	LTP236	ltpFR	6	14	1	KITTEN	780	n/a	n/a	1	0.422607421875	0.5869140625	0	lower	zerothre.ttf
2437961	WORD	wordpools/wasnorm_wordpool_less_exclusions.txt	LTP236	ltpFR	6	14	1	TURTLE	1522	n/a	n/a	1	0.422607421875	0.5869140625	0	lower	zerothre.ttf
2441871	WORD	wordpools/wasnorm_wordpool_less_exclusions.txt	LTP236	ltpFR	6	14	1	HARE	688	n/a	n/a	1	0.422607421875	0.5869140625	0	lower	zerothre.ttf
2446015	WORD	wordpools/wasnorm_wordpool_less_exclusions.txt	LTP236	ltpFR	6	14	1	TRAY	1498	n/a	n/a	0	0.422607421875	0.5869140625	0	lower	zerothre.ttf
2451757	REC_START	n/a	LTP236	ltpFR	6	14	n/a	n/a	n/a	n/a	n/a	n/a	n/a	n/a	n/a	n/a	n/a
2453014	REC_WORD	wordpools/wasnorm_wordpool_less_exclusions.txt	LTP236	ltpFR	6	14	1	HERO	706	n/a	n/a	0	n/a	n/a	n/a	n/a	n/a
2453847	REC_WORD	wordpools/wasnorm_wordpool_less_exclusions.txt	LTP236	ltpFR	6	14	1	KITTEN	780	n/a	n/a	1	n/a	n/a	n/a	n/a	n/a
2454547	REC_WORD	wordpools/wasnorm_wordpool_less_exclusions.txt	LTP236	ltpFR	6	14	1	NUN	962	n/a	n/a	1	n/a	n/a	n/a	n/a	n/a
2455154	REC_WORD	wordpools/wasnorm_wordpool_less_exclusions.txt	LTP236	ltpFR	6	14	1	TURTLE	1522	n/a	n/a	1	n/a	n/a	n/a	n/a	n/a
2455833	REC_WORD	wordpools/wasnorm_wordpool_less_exclusions.txt	LTP236	ltpFR	6	14	1	TRAY	1498	n/a	n/a	0	n/a	n/a	n/a	n/a	n/a
2457479	REC_WORD	wordpools/wasnorm_wordpool_less_exclusions.txt	LTP236	ltpFR	6	14	1	OBOE	969	n/a	n/a	0	n/a	n/a	n/a	n/a	n/a
2459240	REC_WORD	wordpools/wasnorm_wordpool_less_exclusions.txt	LTP236	ltpFR	6	14	1	AIRPORT	13	n/a	n/a	0	n/a	n/a	n/a	n/a	n/a
2460203	REC_WORD	wordpools/wasnorm_wordpool_less_exclusions.txt	LTP236	ltpFR	6	14	1	JET	756	n/a	n/a	0	n/a	n/a	n/a	n/a	n/a
2461769	REC_WORD	wordpools/wasnorm_wordpool_less_exclusions.txt	LTP236	ltpFR	6	14	1	DIARY	460	n/a	n/a	0	n/a	n/a	n/a	n/a	n/a
2463301	REC_WORD	wordpools/wasnorm_wordpool_less_exclusions.txt	LTP236	ltpFR	6	14	1	BOOK	149	n/a	n/a	0	n/a	n/a	n/a	n/a	n/a
2477832	REC_WORD	wordpools/wasnorm_wordpool_less_exclusions.txt	LTP236	ltpFR	6	14	1	BARK	87	n/a	n/a	0	n/a	n/a	n/a	n/a	n/a
2513805	REC_WORD	wordpools/wasnorm_wordpool_less_exclusions.txt	LTP236	ltpFR	6	14	1	SNACK	1331	n/a	n/a	0	n/a	n/a	n/a	n/a	n/a
2530473	WORD	wordpools/wasnorm_wordpool_less_exclusions.txt	LTP236	ltpFR	6	15	-1	WHALE	1601	n/a	n/a	-1	1.0	1.0	1	upper	Verdana.ttf
2534350	WORD	wordpools/wasnorm_wordpool_less_exclusions.txt	LTP236	ltpFR	6	15	-1	WHIP	1604	n/a	n/a	-1	1.0	1.0	1	upper	Verdana.ttf
2538344	WORD	wordpools/wasnorm_wordpool_less_exclusions.txt	LTP236	ltpFR	6	15	-1	CASH	252	n/a	n/a	-1	1.0	1.0	1	upper	Verdana.ttf
2542554	WORD	wordpools/wasnorm_wordpool_less_exclusions.txt	LTP236	ltpFR	6	15	-1	FINGERNAIL	568	n/a	n/a	-1	1.0	1.0	1	upper	Verdana.ttf
2546432	WORD	wordpools/wasnorm_wordpool_less_exclusions.txt	LTP236	ltpFR	6	15	-1	HEATER	698	n/a	n/a	-1	1.0	1.0	1	upper	Verdana.ttf
2550260	WORD	wordpools/wasnorm_wordpool_less_exclusions.txt	LTP236	ltpFR	6	15	-1	LOG	841	n/a	n/a	-1	1.0	1.0	1	upper	Verdana.ttf
2554104	WORD	wordpools/wasnorm_wordpool_less_exclusions.txt	LTP236	ltpFR	6	15	-1	FEATHER	557	n/a	n/a	-1	1.0	1.0	1	upper	Verdana.ttf
2558298	WORD	wordpools/wasnorm_wordpool_less_exclusions.txt	LTP236	ltpFR	6	15	-1	LAWN	805	n/a	n/a	-1	1.0	1.0	1	upper	Verdana.ttf
2562308	WORD	wordpools/wasnorm_wordpool_less_exclusions.txt	LTP236	ltpFR	6	15	-1	BEAN	105	n/a	n/a	-1	1.0	1.0	1	upper	Verdana.ttf
2566203	WORD	wordpools/wasnorm_wordpool_less_exclusions.txt	LTP236	ltpFR	6	15	-1	POTATO	1115	n/a	n/a	-1	1.0	1.0	1	upper	Verdana.ttf
2570163	WORD	wordpools/wasnorm_wordpool_less_exclusions.txt	LTP236	ltpFR	6	15	-1	DAM	436	n/a	n/a	-1	1.0	1.0	1	upper	Verdana.ttf
2574057	WORD	wordpools/wasnorm_wordpool_less_exclusions.txt	LTP236	ltpFR	6	15	-1	ASH	44	n/a	n/a	-1	1.0	1.0	1	upper	Verdana.ttf
2578018	WORD	wordpools/wasnorm_wordpool_less_exclusions.txt	LTP236	ltpFR	6	15	-1	ASHTRAY	45	n/a	n/a	-1	1.0	1.0	1	upper	Verdana.ttf
2582229	WORD	wordpools/wasnorm_wordpool_less_exclusions.txt	LTP236	ltpFR	6	15	-1	QUARTER	1148	n/a	n/a	-1	1.0	1.0	1	upper	Verdana.ttf
2586156	WORD	wordpools/wasnorm_wordpool_less_exclusions.txt	LTP236	ltpFR	6	15	-1	ANKLE	24	n/a	n/a	-1	1.0	1.0	1	upper	Verdana.ttf
2590034	WORD	wordpools/wasnorm_wordpool_less_exclusions.txt	LTP236	ltpFR	6	15	-1	DIRT	472	n/a	n/a	-1	1.0	1.0	1	upper	Verdana.ttf
2595992	REC_START	n/a	LTP236	ltpFR	6	15	n/a	n/a	n/a	n/a	n/a	n/a	n/a	n/a	n/a	n/a	n/a
2597398	REC_WORD	wordpools/wasnorm_wordpool_less_exclusions.txt	LTP236	ltpFR	6	15	-1	QUARTER	1148	n/a	n/a	-1	n/a	n/a	n/a	n/a	n/a
2598351	REC_WORD	wordpools/wasnorm_wordpool_less_exclusions.txt	LTP236	ltpFR	6	15	-1	ANKLE	24	n/a	n/a	-1	n/a	n/a	n/a	n/a	n/a
2599523	REC_WORD	wordpools/wasnorm_wordpool_less_exclusions.txt	LTP236	ltpFR	6	15	-1	DIRT	472	n/a	n/a	-1	n/a	n/a	n/a	n/a	n/a
2600811	REC_WORD	wordpools/wasnorm_wordpool_less_exclusions.txt	LTP236	ltpFR	6	15	-1	ASHTRAY	45	n/a	n/a	-1	n/a	n/a	n/a	n/a	n/a
2601811	REC_WORD_VV	wordpools/wasnorm_wordpool_less_exclusions.txt	LTP236	ltpFR	6	15	n/a	<>	-1	n/a	n/a	n/a	n/a	n/a	n/a	n/a	n/a
2602552	REC_WORD	wordpools/wasnorm_wordpool_less_exclusions.txt	LTP236	ltpFR	6	15	-1	ASHTRAY	45	n/a	n/a	-1	n/a	n/a	n/a	n/a	n/a
2604747	REC_WORD	wordpools/wasnorm_wordpool_less_exclusions.txt	LTP236	ltpFR	6	15	-1	LOG	841	n/a	n/a	-1	n/a	n/a	n/a	n/a	n/a
2607461	REC_WORD	wordpools/wasnorm_wordpool_less_exclusions.txt	LTP236	ltpFR	6	15	-1	BEAN	105	n/a	n/a	-1	n/a	n/a	n/a	n/a	n/a
2608633	REC_WORD	wordpools/wasnorm_wordpool_less_exclusions.txt	LTP236	ltpFR	6	15	-1	POTATO	1115	n/a	n/a	-1	n/a	n/a	n/a	n/a	n/a
2609633	REC_WORD_VV	wordpools/wasnorm_wordpool_less_exclusions.txt	LTP236	ltpFR	6	15	n/a	<>	-1	n/a	n/a	n/a	n/a	n/a	n/a	n/a	n/a
2617288	REC_WORD	wordpools/wasnorm_wordpool_less_exclusions.txt	LTP236	ltpFR	6	15	-1	LAWN	805	n/a	n/a	-1	n/a	n/a	n/a	n/a	n/a
2655441	REC_WORD	wordpools/wasnorm_wordpool_less_exclusions.txt	LTP236	ltpFR	6	15	-1	QUARTER	1148	n/a	n/a	-1	n/a	n/a	n/a	n/a	n/a
2656441	REC_WORD_VV	wordpools/wasnorm_wordpool_less_exclusions.txt	LTP236	ltpFR	6	15	n/a	<>	-1	n/a	n/a	n/a	n/a	n/a	n/a	n/a	n/a
2660156	REC_WORD	wordpools/wasnorm_wordpool_less_exclusions.txt	LTP236	ltpFR	6	15	-1	DAM	436	n/a	n/a	-1	n/a	n/a	n/a	n/a	n/a
2665105	REC_WORD	wordpools/wasnorm_wordpool_less_exclusions.txt	LTP236	ltpFR	6	15	-1	WHIP	1604	n/a	n/a	-1	n/a	n/a	n/a	n/a	n/a
2667145	REC_WORD	wordpools/wasnorm_wordpool_less_exclusions.txt	LTP236	ltpFR	6	15	-1	WHALE	1601	n/a	n/a	-1	n/a	n/a	n/a	n/a	n/a
2674556	WORD	wordpools/wasnorm_wordpool_less_exclusions.txt	LTP236	ltpFR	6	16	-1	ICING	732	n/a	n/a	-1	1.0	1.0	1	upper	Verdana.ttf
2678501	WORD	wordpools/wasnorm_wordpool_less_exclusions.txt	LTP236	ltpFR	6	16	-1	PASTRY	1022	n/a	n/a	-1	1.0	1.0	1	upper	Verdana.ttf
2682412	WORD	wordpools/wasnorm_wordpool_less_exclusions.txt	LTP236	ltpFR	6	16	-1	RECEPTIONIST	1174	n/a	n/a	-1	1.0	1.0	1	upper	Verdana.ttf
2686456	WORD	wordpools/wasnorm_wordpool_less_exclusions.txt	LTP236	ltpFR	6	16	-1	RADISH	1158	n/a	n/a	-1	1.0	1.0	1	upper	Verdana.ttf
2690434	WORD	wordpools/wasnorm_wordpool_less_exclusions.txt	LTP236	ltpFR	6	16	-1	ROOT	1210	n/a	n/a	-1	1.0	1.0	1	upper	Verdana.ttf
2694261	WORD	wordpools/wasnorm_wordpool_less_exclusions.txt	LTP236	ltpFR	6	16	-1	THREAD	1460	n/a	n/a	-1	1.0	1.0	1	upper	Verdana.ttf
2698239	WORD	wordpools/wasnorm_wordpool_less_exclusions.txt	LTP236	ltpFR	6	16	-1	COTTAGE	384	n/a	n/a	-1	1.0	1.0	1	upper	Verdana.ttf
2702383	WORD	wordpools/wasnorm_wordpool_less_exclusions.txt	LTP236	ltpFR	6	16	-1	PATH	1023	n/a	n/a	-1	1.0	1.0	1	upper	Verdana.ttf
2706327	WORD	wordpools/wasnorm_wordpool_less_exclusions.txt	LTP236	ltpFR	6	16	-1	BUGGY	188	n/a	n/a	-1	1.0	1.0	1	upper	Verdana.ttf
2710371	WORD	wordpools/wasnorm_wordpool_less_exclusions.txt	LTP236	ltpFR	6	16	-1	BUSH	202	n/a	n/a	-1	1.0	1.0	1	upper	Verdana.ttf
2714448	WORD	wordpools/wasnorm_wordpool_less_exclusions.txt	LTP236	ltpFR	6	16	-1	STUMP	1396	n/a	n/a	-1	1.0	1.0	1	upper	Verdana.ttf
2718624	WORD	wordpools/wasnorm_wordpool_less_exclusions.txt	LTP236	ltpFR	6	16	-1	LIME	823	n/a	n/a	-1	1.0	1.0	1	upper	Verdana.ttf
2722784	WORD	wordpools/wasnorm_wordpool_less_exclusions.txt	LTP236	ltpFR	6	16	-1	TAXI	1438	n/a	n/a	-1	1.0	1.0	1	upper	Verdana.ttf
2726795	WORD	wordpools/wasnorm_wordpool_less_exclusions.txt	LTP236	ltpFR	6	16	-1	MAJOR	859	n/a	n/a	-1	1.0	1.0	1	upper	Verdana.ttf
2731006	WORD	wordpools/wasnorm_wordpool_less_exclusions.txt	LTP236	ltpFR	6	16	-1	SERGEANT	1269	n/a	n/a	-1	1.0	1.0	1	upper	Verdana.ttf
2735150	WORD	wordpools/wasnorm_wordpool_less_exclusions.txt	LTP236	ltpFR	6	16	-1	MULE	931	n/a	n/a	-1	1.0	1.0	1	upper	Verdana.ttf
2741125	REC_START	n/a	LTP236	ltpFR	6	16	n/a	n/a	n/a	n/a	n/a	n/a	n/a	n/a	n/a	n/a	n/a
2742177	REC_WORD	wordpools/wasnorm_wordpool_less_exclusions.txt	LTP236	ltpFR	6	16	-1	LIME	823	n/a	n/a	-1	n/a	n/a	n/a	n/a	n/a
2743001	REC_WORD	wordpools/wasnorm_wordpool_less_exclusions.txt	LTP236	ltpFR	6	16	-1	TAXI	1438	n/a	n/a	-1	n/a	n/a	n/a	n/a	n/a
2743798	REC_WORD	wordpools/wasnorm_wordpool_less_exclusions.txt	LTP236	ltpFR	6	16	-1	SERGEANT	1269	n/a	n/a	-1	n/a	n/a	n/a	n/a	n/a
2744861	REC_WORD	wordpools/wasnorm_wordpool_less_exclusions.txt	LTP236	ltpFR	6	16	-1	MULE	931	n/a	n/a	-1	n/a	n/a	n/a	n/a	n/a
2753482	REC_WORD	wordpools/wasnorm_wordpool_less_exclusions.txt	LTP236	ltpFR	6	16	-1	COTTAGE	384	n/a	n/a	-1	n/a	n/a	n/a	n/a	n/a
2774634	REC_WORD	wordpools/wasnorm_wordpool_less_exclusions.txt	LTP236	ltpFR	6	16	-1	ICING	732	n/a	n/a	-1	n/a	n/a	n/a	n/a	n/a
2775634	REC_WORD_VV	wordpools/wasnorm_wordpool_less_exclusions.txt	LTP236	ltpFR	6	16	n/a	<>	-1	n/a	n/a	n/a	n/a	n/a	n/a	n/a	n/a
2784187	REC_WORD	wordpools/wasnorm_wordpool_less_exclusions.txt	LTP236	ltpFR	6	16	-1	BUSH	202	n/a	n/a	-1	n/a	n/a	n/a	n/a	n/a
2806605	REC_WORD	wordpools/wasnorm_wordpool_less_exclusions.txt	LTP236	ltpFR	6	16	-1	THREAD	1460	n/a	n/a	-1	n/a	n/a	n/a	n/a	n/a
2807605	REC_WORD_VV	wordpools/wasnorm_wordpool_less_exclusions.txt	LTP236	ltpFR	6	16	n/a	<>	-1	n/a	n/a	n/a	n/a	n/a	n/a	n/a	n/a
2829976	REC_START	n/a	LTP236	ltpFR	6	n/a	n/a	n/a	n/a	n/a	n/a	n/a	n/a	n/a	n/a	n/a	n/a
2830814	FFR_REC_WORD	wordpools/wasnorm_wordpool_less_exclusions.txt	LTP236	ltpFR	6	n/a	-1	ICING	732	n/a	n/a	-1	n/a	n/a	n/a	n/a	n/a
2832255	FFR_REC_WORD	wordpools/wasnorm_wordpool_less_exclusions.txt	LTP236	ltpFR	6	n/a	-1	THREAD	1460	n/a	n/a	-1	n/a	n/a	n/a	n/a	n/a
2833255	FFR_REC_WORD_VV	wordpools/wasnorm_wordpool_less_exclusions.txt	LTP236	ltpFR	6	n/a	n/a	<>	-1	n/a	n/a	n/a	n/a	n/a	n/a	n/a	n/a
2835463	FFR_REC_WORD	wordpools/wasnorm_wordpool_less_exclusions.txt	LTP236	ltpFR	6	n/a	1	CAR	241	n/a	n/a	0	n/a	n/a	n/a	n/a	n/a
2836306	FFR_REC_WORD	wordpools/wasnorm_wordpool_less_exclusions.txt	LTP236	ltpFR	6	n/a	1	GARAGE	621	n/a	n/a	0	n/a	n/a	n/a	n/a	n/a
2837306	FFR_REC_WORD_VV	wordpools/wasnorm_wordpool_less_exclusions.txt	LTP236	ltpFR	6	n/a	n/a	<>	-1	n/a	n/a	n/a	n/a	n/a	n/a	n/a	n/a
2839224	FFR_REC_WORD	wordpools/wasnorm_wordpool_less_exclusions.txt	LTP236	ltpFR	6	n/a	-1	SERGEANT	1269	n/a	n/a	-1	n/a	n/a	n/a	n/a	n/a
2840224	FFR_REC_WORD_VV	wordpools/wasnorm_wordpool_less_exclusions.txt	LTP236	ltpFR	6	n/a	n/a	<>	-1	n/a	n/a	n/a	n/a	n/a	n/a	n/a	n/a
2843196	FFR_REC_WORD	wordpools/wasnorm_wordpool_less_exclusions.txt	LTP236	ltpFR	6	n/a	1	UMPIRE	1535	n/a	n/a	1	n/a	n/a	n/a	n/a	n/a
2844196	FFR_REC_WORD_VV	wordpools/wasnorm_wordpool_less_exclusions.txt	LTP236	ltpFR	6	n/a	n/a	<>	-1	n/a	n/a	n/a	n/a	n/a	n/a	n/a	n/a
2855892	FFR_REC_WORD	wordpools/wasnorm_wordpool_less_exclusions.txt	LTP236	ltpFR	6	n/a	-1	WHIP	1604	n/a	n/a	-1	n/a	n/a	n/a	n/a	n/a
2856885	FFR_REC_WORD	wordpools/wasnorm_wordpool_less_exclusions.txt	LTP236	ltpFR	6	n/a	-1	ICING	732	n/a	n/a	-1	n/a	n/a	n/a	n/a	n/a
2857728	FFR_REC_WORD	wordpools/wasnorm_wordpool_less_exclusions.txt	LTP236	ltpFR	6	n/a	1	BERRY	122	n/a	n/a	0	n/a	n/a	n/a	n/a	n/a
2858461	FFR_REC_WORD	wordpools/wasnorm_wordpool_less_exclusions.txt	LTP236	ltpFR	6	n/a	1	PEAR	1033	n/a	n/a	0	n/a	n/a	n/a	n/a	n/a
2859189	FFR_REC_WORD	wordpools/wasnorm_wordpool_less_exclusions.txt	LTP236	ltpFR	6	n/a	1	LEAF	808	n/a	n/a	0	n/a	n/a	n/a	n/a	n/a
2862810	FFR_REC_WORD	wordpools/wasnorm_wordpool_less_exclusions.txt	LTP236	ltpFR	6	n/a	0	SOCIETY	1338	n/a	n/a	1	n/a	n/a	n/a	n/a	n/a
2863810	FFR_REC_WORD_VV	wordpools/wasnorm_wordpool_less_exclusions.txt	LTP236	ltpFR	6	n/a	n/a	<>	-1	n/a	n/a	n/a	n/a	n/a	n/a	n/a	n/a
2870264	FFR_REC_WORD	wordpools/wasnorm_wordpool_less_exclusions.txt	LTP236	ltpFR	6	n/a	-1	FINGERNAIL	568	n/a	n/a	-1	n/a	n/a	n/a	n/a	n/a
2871264	FFR_REC_WORD_VV	wordpools/wasnorm_wordpool_less_exclusions.txt	LTP236	ltpFR	6	n/a	n/a	<>	-1	n/a	n/a	n/a	n/a	n/a	n/a	n/a	n/a
2872109	FFR_REC_WORD	wordpools/wasnorm_wordpool_less_exclusions.txt	LTP236	ltpFR	6	n/a	0	FOOT	590	n/a	n/a	0	n/a	n/a	n/a	n/a	n/a
2873008	FFR_REC_WORD	wordpools/wasnorm_wordpool_less_exclusions.txt	LTP236	ltpFR	6	n/a	0	HEEL	700	n/a	n/a	0	n/a	n/a	n/a	n/a	n/a
2879159	FFR_REC_WORD	wordpools/wasnorm_wordpool_less_exclusions.txt	LTP236	ltpFR	6	n/a	n/a	HAND	683	n/a	n/a	n/a	n/a	n/a	n/a	n/a	n/a
2879852	FFR_REC_WORD	wordpools/wasnorm_wordpool_less_exclusions.txt	LTP236	ltpFR	6	n/a	n/a	BAG	69	n/a	n/a	n/a	n/a	n/a	n/a	n/a	n/a
2881000	FFR_REC_WORD	wordpools/wasnorm_wordpool_less_exclusions.txt	LTP236	ltpFR	6	n/a	0	PALM	1007	n/a	n/a	0	n/a	n/a	n/a	n/a	n/a
2884985	FFR_REC_WORD	wordpools/wasnorm_wordpool_less_exclusions.txt	LTP236	ltpFR	6	n/a	-1	COTTAGE	384	n/a	n/a	-1	n/a	n/a	n/a	n/a	n/a
2885985	FFR_REC_WORD_VV	wordpools/wasnorm_wordpool_less_exclusions.txt	LTP236	ltpFR	6	n/a	n/a	<>	-1	n/a	n/a	n/a	n/a	n/a	n/a	n/a	n/a
2891975	FFR_REC_WORD	wordpools/wasnorm_wordpool_less_exclusions.txt	LTP236	ltpFR	6	n/a	1	BUFFALO	186	n/a	n/a	1	n/a	n/a	n/a	n/a	n/a
2892975	FFR_REC_WORD_VV	wordpools/wasnorm_wordpool_less_exclusions.txt	LTP236	ltpFR	6	n/a	n/a	<>	-1	n/a	n/a	n/a	n/a	n/a	n/a	n/a	n/a
2897147	FFR_REC_WORD	wordpools/wasnorm_wordpool_less_exclusions.txt	LTP236	ltpFR	6	n/a	1	EAGLE	512	n/a	n/a	0	n/a	n/a	n/a	n/a	n/a
2909997	FFR_REC_WORD_VV	wordpools/wasnorm_wordpool_less_exclusions.txt	LTP236	ltpFR	6	n/a	n/a	<>	-1	n/a	n/a	n/a	n/a	n/a	n/a	n/a	n/a
2912029	FFR_REC_WORD	wordpools/wasnorm_wordpool_less_exclusions.txt	LTP236	ltpFR	6	n/a	1	AGENT	10	n/a	n/a	1	n/a	n/a	n/a	n/a	n/a
2913029	FFR_REC_WORD_VV	wordpools/wasnorm_wordpool_less_exclusions.txt	LTP236	ltpFR	6	n/a	n/a	<>	-1	n/a	n/a	n/a	n/a	n/a	n/a	n/a	n/a
2920385	FFR_REC_WORD	wordpools/wasnorm_wordpool_less_exclusions.txt	LTP236	ltpFR	6	n/a	1	SINK	1309	n/a	n/a	0	n/a	n/a	n/a	n/a	n/a
2921428	FFR_REC_WORD	wordpools/wasnorm_wordpool_less_exclusions.txt	LTP236	ltpFR	6	n/a	1	SHOWER	1296	n/a	n/a	0	n/a	n/a	n/a	n/a	n/a
2922428	FFR_REC_WORD_VV	wordpools/wasnorm_wordpool_less_exclusions.txt	LTP236	ltpFR	6	n/a	n/a	<>	-1	n/a	n/a	n/a	n/a	n/a	n/a	n/a	n/a
2927793	FFR_REC_WORD	wordpools/wasnorm_wordpool_less_exclusions.txt	LTP236	ltpFR	6	n/a	0	GIRL	637	n/a	n/a	1	n/a	n/a	n/a	n/a	n/a
2932627	FFR_REC_WORD	wordpools/wasnorm_wordpool_less_exclusions.txt	LTP236	ltpFR	6	n/a	0	WALNUT	1584	n/a	n/a	0	n/a	n/a	n/a	n/a	n/a
2933627	FFR_REC_WORD_VV	wordpools/wasnorm_wordpool_less_exclusions.txt	LTP236	ltpFR	6	n/a	n/a	<>	-1	n/a	n/a	n/a	n/a	n/a	n/a	n/a	n/a
2949050	FFR_REC_WORD	wordpools/wasnorm_wordpool_less_exclusions.txt	LTP236	ltpFR	6	n/a	0	COLONEL	348	n/a	n/a	1	n/a	n/a	n/a	n/a	n/a
2955790	FFR_REC_WORD	wordpools/wasnorm_wordpool_less_exclusions.txt	LTP236	ltpFR	6	n/a	0	LETTER	813	n/a	n/a	0	n/a	n/a	n/a	n/a	n/a
2957022	FFR_REC_WORD	wordpools/wasnorm_wordpool_less_exclusions.txt	LTP236	ltpFR	6	n/a	-1	PACKAGE	997	n/a	n/a	-1	n/a	n/a	n/a	n/a	n/a
2958394	FFR_REC_WORD	wordpools/wasnorm_wordpool_less_exclusions.txt	LTP236	ltpFR	6	n/a	-1	ENVELOPE	537	n/a	n/a	-1	n/a	n/a	n/a	n/a	n/a
2963437	FFR_REC_WORD	wordpools/wasnorm_wordpool_less_exclusions.txt	LTP236	ltpFR	6	n/a	-1	SCRIBBLE	1256	n/a	n/a	-1	n/a	n/a	n/a	n/a	n/a
2964605	FFR_REC_WORD	wordpools/wasnorm_wordpool_less_exclusions.txt	LTP236	ltpFR	6	n/a	0	DRAWING	494	n/a	n/a	0	n/a	n/a	n/a	n/a	n/a
2965448	FFR_REC_WORD	wordpools/wasnorm_wordpool_less_exclusions.txt	LTP236	ltpFR	6	n/a	0	PAINTING	1005	n/a	n/a	0	n/a	n/a	n/a	n/a	n/a
2966481	FFR_REC_WORD	wordpools/wasnorm_wordpool_less_exclusions.txt	LTP236	ltpFR	6	n/a	0	FUGITIVE	612	n/a	n/a	1	n/a	n/a	n/a	n/a	n/a
2967481	FFR_REC_WORD_VV	wordpools/wasnorm_wordpool_less_exclusions.txt	LTP236	ltpFR	6	n/a	n/a	<>	-1	n/a	n/a	n/a	n/a	n/a	n/a	n/a	n/a
2968391	FFR_REC_WORD	wordpools/wasnorm_wordpool_less_exclusions.txt	LTP236	ltpFR	6	n/a	-1	WHALE	1601	n/a	n/a	-1	n/a	n/a	n/a	n/a	n/a
2972546	FFR_REC_WORD	wordpools/wasnorm_wordpool_less_exclusions.txt	LTP236	ltpFR	6	n/a	-1	SUPERMARKET	1409	n/a	n/a	-1	n/a	n/a	n/a	n/a	n/a
2973546	FFR_REC_WORD_VV	wordpools/wasnorm_wordpool_less_exclusions.txt	LTP236	ltpFR	6	n/a	n/a	<>	-1	n/a	n/a	n/a	n/a	n/a	n/a	n/a	n/a
2986306	FFR_REC_WORD	wordpools/wasnorm_wordpool_less_exclusions.txt	LTP236	ltpFR	6	n/a	1	OBOE	969	n/a	n/a	0	n/a	n/a	n/a	n/a	n/a
2987004	FFR_REC_WORD	wordpools/wasnorm_wordpool_less_exclusions.txt	LTP236	ltpFR	6	n/a	1	CLARINET	317	n/a	n/a	0	n/a	n/a	n/a	n/a	n/a
2988181	FFR_REC_WORD	wordpools/wasnorm_wordpool_less_exclusions.txt	LTP236	ltpFR	6	n/a	1	AIRPORT	13	n/a	n/a	0	n/a	n/a	n/a	n/a	n/a
2989004	FFR_REC_WORD	wordpools/wasnorm_wordpool_less_exclusions.txt	LTP236	ltpFR	6	n/a	1	JET	756	n/a	n/a	0	n/a	n/a	n/a	n/a	n/a
2990940	FFR_REC_WORD	wordpools/wasnorm_wordpool_less_exclusions.txt	LTP236	ltpFR	6	n/a	1	BOOK	149	n/a	n/a	0	n/a	n/a	n/a	n/a	n/a
2991823	FFR_REC_WORD	wordpools/wasnorm_wordpool_less_exclusions.txt	LTP236	ltpFR	6	n/a	1	DIARY	460	n/a	n/a	0	n/a	n/a	n/a	n/a	n/a
2993599	FFR_REC_WORD	wordpools/wasnorm_wordpool_less_exclusions.txt	LTP236	ltpFR	6	n/a	1	TYPEWRITER	1531	n/a	n/a	1	n/a	n/a	n/a	n/a	n/a
2994599	FFR_REC_WORD_VV	wordpools/wasnorm_wordpool_less_exclusions.txt	LTP236	ltpFR	6	n/a	n/a	<>	-1	n/a	n/a	n/a	n/a	n/a	n/a	n/a	n/a
2999860	FFR_REC_WORD	wordpools/wasnorm_wordpool_less_exclusions.txt	LTP236	ltpFR	6	n/a	1	EDITOR	516	n/a	n/a	1	n/a	n/a	n/a	n/a	n/a
3002234	FFR_REC_WORD	wordpools/wasnorm_wordpool_less_exclusions.txt	LTP236	ltpFR	6	n/a	1	WRITER	1627	n/a	n/a	1	n/a	n/a	n/a	n/a	n/a
3009348	FFR_REC_WORD	wordpools/wasnorm_wordpool_less_exclusions.txt	LTP236	ltpFR	6	n/a	1	ARTICLE	42	n/a	n/a	0	n/a	n/a	n/a	n/a	n/a
3012780	FFR_REC_WORD	wordpools/wasnorm_wordpool_less_exclusions.txt	LTP236	ltpFR	6	n/a	0	CLASS	318	n/a	n/a	0	n/a	n/a	n/a	n/a	n/a
3013780	FFR_REC_WORD_VV	wordpools/wasnorm_wordpool_less_exclusions.txt	LTP236	ltpFR	6	n/a	n/a	<>	-1	n/a	n/a	n/a	n/a	n/a	n/a	n/a	n/a
3015514	FFR_REC_WORD	wordpools/wasnorm_wordpool_less_exclusions.txt	LTP236	ltpFR	6	n/a	0	MAGAZINE	853	n/a	n/a	0	n/a	n/a	n/a	n/a	n/a
3016514	FFR_REC_WORD_VV	wordpools/wasnorm_wordpool_less_exclusions.txt	LTP236	ltpFR	6	n/a	n/a	<>	-1	n/a	n/a	n/a	n/a	n/a	n/a	n/a	n/a
3018752	FFR_REC_WORD	wordpools/wasnorm_wordpool_less_exclusions.txt	LTP236	ltpFR	6	n/a	0	PUPPY	1144	n/a	n/a	1	n/a	n/a	n/a	n/a	n/a
3022643	FFR_REC_WORD	wordpools/wasnorm_wordpool_less_exclusions.txt	LTP236	ltpFR	6	n/a	-1	BUGGY	188	n/a	n/a	-1	n/a	n/a	n/a	n/a	n/a
3037100	FFR_REC_WORD	wordpools/wasnorm_wordpool_less_exclusions.txt	LTP236	ltpFR	6	n/a	0	PIT	1077	n/a	n/a	1	n/a	n/a	n/a	n/a	n/a
3040497	FFR_REC_WORD	wordpools/wasnorm_wordpool_less_exclusions.txt	LTP236	ltpFR	6	n/a	0	HONEY	713	n/a	n/a	0	n/a	n/a	n/a	n/a	n/a
3041490	FFR_REC_WORD	wordpools/wasnorm_wordpool_less_exclusions.txt	LTP236	ltpFR	6	n/a	0	BEE	112	n/a	n/a	0	n/a	n/a	n/a	n/a	n/a
3049811	FFR_REC_WORD	wordpools/wasnorm_wordpool_less_exclusions.txt	LTP236	ltpFR	6	n/a	-1	CORAL	378	n/a	n/a	-1	n/a	n/a	n/a	n/a	n/a
3051452	FFR_REC_WORD	wordpools/wasnorm_wordpool_less_exclusions.txt	LTP236	ltpFR	6	n/a	-1	RUBY	1214	n/a	n/a	-1	n/a	n/a	n/a	n/a	n/a
3057489	FFR_REC_WORD	wordpools/wasnorm_wordpool_less_exclusions.txt	LTP236	ltpFR	6	n/a	-1	ERASER	538	n/a	n/a	-1	n/a	n/a	n/a	n/a	n/a
3058489	FFR_REC_WORD_VV	wordpools/wasnorm_wordpool_less_exclusions.txt	LTP236	ltpFR	6	n/a	n/a	<>	-1	n/a	n/a	n/a	n/a	n/a	n/a	n/a	n/a
3077289	FFR_REC_WORD	wordpools/wasnorm_wordpool_less_exclusions.txt	LTP236	ltpFR	6	n/a	1	LOBSTER	837	n/a	n/a	1	n/a	n/a	n/a	n/a	n/a
3078289	FFR_REC_WORD_VV	wordpools/wasnorm_wordpool_less_exclusions.txt	LTP236	ltpFR	6	n/a	n/a	<>	-1	n/a	n/a	n/a	n/a	n/a	n/a	n/a	n/a
3092789	FFR_REC_WORD	wordpools/wasnorm_wordpool_less_exclusions.txt	LTP236	ltpFR	6	n/a	0	CHAIRPERSON	275	n/a	n/a	1	n/a	n/a	n/a	n/a	n/a
3093789	FFR_REC_WORD_VV	wordpools/wasnorm_wordpool_less_exclusions.txt	LTP236	ltpFR	6	n/a	n/a	<>	-1	n/a	n/a	n/a	n/a	n/a	n/a	n/a	n/a
3104676	FFR_REC_WORD	wordpools/wasnorm_wordpool_less_exclusions.txt	LTP236	ltpFR	6	n/a	0	DINER	467	n/a	n/a	1	n/a	n/a	n/a	n/a	n/a
3117078	FFR_REC_WORD	wordpools/wasnorm_wordpool_less_exclusions.txt	LTP236	ltpFR	6	n/a	1	TORTOISE	1486	n/a	n/a	0	n/a	n/a	n/a	n/a	n/a
3117999	FFR_REC_WORD	wordpools/wasnorm_wordpool_less_exclusions.txt	LTP236	ltpFR	6	n/a	1	HARE	688	n/a	n/a	1	n/a	n/a	n/a	n/a	n/a
3152977	REC_START	n/a	LTP236	ltpFR	6	1	n/a	n/a	n/a	n/a	n/a	n/a	n/a	n/a	n/a	n/a	n/a
3153010	RECOG_TARGET	n/a	LTP236	ltpFR	6	1	-1	ERASER	538	1	5	-1	n/a	n/a	n/a	n/a	n/a
3154867	RECOG_RESP	n/a	LTP236	ltpFR	6	1	-1	ERASER	538	1	n/a	-1	n/a	n/a	n/a	n/a	n/a
3156564	RECOG_CONF	n/a	LTP236	ltpFR	6	1	-1	ERASER	538	n/a	5	-1	n/a	n/a	n/a	n/a	n/a
3158866	RECOG_TARGET	n/a	LTP236	ltpFR	6	1	0	PARSLEY	1016	0	5	1	n/a	n/a	n/a	n/a	n/a
3160040	RECOG_RESP	n/a	LTP236	ltpFR	6	1	0	PARSLEY	1016	0	n/a	1	n/a	n/a	n/a	n/a	n/a
3161654	RECOG_CONF	n/a	LTP236	ltpFR	6	1	0	PARSLEY	1016	n/a	5	1	n/a	n/a	n/a	n/a	n/a
3163659	RECOG_LURE	n/a	LTP236	ltpFR	6	1	n/a	NOTEBOOK	959	0	2	n/a	n/a	n/a	n/a	n/a	n/a
3164911	RECOG_RESP	n/a	LTP236	ltpFR	6	1	n/a	NOTEBOOK	959	0	n/a	n/a	n/a	n/a	n/a	n/a	n/a
3166486	RECOG_CONF	n/a	LTP236	ltpFR	6	1	n/a	NOTEBOOK	959	n/a	2	n/a	n/a	n/a	n/a	n/a	n/a
3168470	RECOG_LURE	n/a	LTP236	ltpFR	6	1	n/a	RIFLE	1192	0	1	n/a	n/a	n/a	n/a	n/a	n/a
3169768	RECOG_RESP	n/a	LTP236	ltpFR	6	1	n/a	RIFLE	1192	0	n/a	n/a	n/a	n/a	n/a	n/a	n/a
3171288	RECOG_CONF	n/a	LTP236	ltpFR	6	1	n/a	RIFLE	1192	n/a	1	n/a	n/a	n/a	n/a	n/a	n/a
3173429	RECOG_LURE	n/a	LTP236	ltpFR	6	1	n/a	TAR	1435	0	1	n/a	n/a	n/a	n/a	n/a	n/a
3174588	RECOG_RESP	n/a	LTP236	ltpFR	6	1	n/a	TAR	1435	0	n/a	n/a	n/a	n/a	n/a	n/a	n/a
3176183	RECOG_CONF	n/a	LTP236	ltpFR	6	1	n/a	TAR	1435	n/a	1	n/a	n/a	n/a	n/a	n/a	n/a
3178438	RECOG_LURE	n/a	LTP236	ltpFR	6	1	n/a	PERISCOPE	1050	0	2	n/a	n/a	n/a	n/a	n/a	n/a
3179652	RECOG_RESP	n/a	LTP236	ltpFR	6	1	n/a	PERISCOPE	1050	0	n/a	n/a	n/a	n/a	n/a	n/a	n/a
3181318	RECOG_CONF	n/a	LTP236	ltpFR	6	1	n/a	PERISCOPE	1050	n/a	2	n/a	n/a	n/a	n/a	n/a	n/a
3183531	RECOG_TARGET	n/a	LTP236	ltpFR	6	1	0	LITTER	832	1	5	0	n/a	n/a	n/a	n/a	n/a
3184469	RECOG_RESP	n/a	LTP236	ltpFR	6	1	0	LITTER	832	1	n/a	0	n/a	n/a	n/a	n/a	n/a
3186216	RECOG_CONF	n/a	LTP236	ltpFR	6	1	0	LITTER	832	n/a	5	0	n/a	n/a	n/a	n/a	n/a
3188440	RECOG_TARGET	n/a	LTP236	ltpFR	6	1	0	PAN	1008	1	3	0	n/a	n/a	n/a	n/a	n/a
3189225	RECOG_RESP	n/a	LTP236	ltpFR	6	1	0	PAN	1008	1	n/a	0	n/a	n/a	n/a	n/a	n/a
3191184	RECOG_CONF	n/a	LTP236	ltpFR	6	1	0	PAN	1008	n/a	3	0	n/a	n/a	n/a	n/a	n/a
3193316	RECOG_LURE	n/a	LTP236	ltpFR	6	1	n/a	BEETLE	116	0	1	n/a	n/a	n/a	n/a	n/a	n/a
3194381	RECOG_RESP	n/a	LTP236	ltpFR	6	1	n/a	BEETLE	116	0	n/a	n/a	n/a	n/a	n/a	n/a	n/a
3195958	RECOG_CONF	n/a	LTP236	ltpFR	6	1	n/a	BEETLE	116	n/a	1	n/a	n/a	n/a	n/a	n/a	n/a
3198209	RECOG_TARGET	n/a	LTP236	ltpFR	6	1	-1	FEATHER	557	1	4	-1	n/a	n/a	n/a	n/a	n/a
3199102	RECOG_RESP	n/a	LTP236	ltpFR	6	1	-1	FEATHER	557	1	n/a	-1	n/a	n/a	n/a	n/a	n/a
3200578	RECOG_CONF	n/a	LTP236	ltpFR	6	1	-1	FEATHER	557	n/a	4	-1	n/a	n/a	n/a	n/a	n/a
3202718	RECOG_TARGET	n/a	LTP236	ltpFR	6	1	0	WHEAT	1602	1	4	0	n/a	n/a	n/a	n/a	n/a
3203470	RECOG_RESP	n/a	LTP236	ltpFR	6	1	0	WHEAT	1602	1	n/a	0	n/a	n/a	n/a	n/a	n/a
3204994	RECOG_CONF	n/a	LTP236	ltpFR	6	1	0	WHEAT	1602	n/a	4	0	n/a	n/a	n/a	n/a	n/a
3207179	RECOG_TARGET	n/a	LTP236	ltpFR	6	1	1	GARAGE	621	1	5	0	n/a	n/a	n/a	n/a	n/a
3207913	RECOG_RESP	n/a	LTP236	ltpFR	6	1	1	GARAGE	621	1	n/a	0	n/a	n/a	n/a	n/a	n/a
3209374	RECOG_CONF	n/a	LTP236	ltpFR	6	1	1	GARAGE	621	n/a	5	0	n/a	n/a	n/a	n/a	n/a
3211787	RECOG_TARGET	n/a	LTP236	ltpFR	6	1	-1	POTATO	1115	1	5	-1	n/a	n/a	n/a	n/a	n/a
3212502	RECOG_RESP	n/a	LTP236	ltpFR	6	1	-1	POTATO	1115	1	n/a	-1	n/a	n/a	n/a	n/a	n/a
3213944	RECOG_CONF	n/a	LTP236	ltpFR	6	1	-1	POTATO	1115	n/a	5	-1	n/a	n/a	n/a	n/a	n/a
3216198	RECOG_TARGET	n/a	LTP236	ltpFR	6	1	1	BELLY	119	1	5	0	n/a	n/a	n/a	n/a	n/a
3216891	RECOG_RESP	n/a	LTP236	ltpFR	6	1	1	BELLY	119	1	n/a	0	n/a	n/a	n/a	n/a	n/a
3218301	RECOG_CONF	n/a	LTP236	ltpFR	6	1	1	BELLY	119	n/a	5	0	n/a	n/a	n/a	n/a	n/a
3220475	RECOG_TARGET	n/a	LTP236	ltpFR	6	1	0	PALM	1007	1	5	0	n/a	n/a	n/a	n/a	n/a
3221242	RECOG_RESP	n/a	LTP236	ltpFR	6	1	0	PALM	1007	1	n/a	0	n/a	n/a	n/a	n/a	n/a
3222654	RECOG_CONF	n/a	LTP236	ltpFR	6	1	0	PALM	1007	n/a	5	0	n/a	n/a	n/a	n/a	n/a
3224952	RECOG_TARGET	n/a	LTP236	ltpFR	6	1	-1	WHALE	1601	1	5	-1	n/a	n/a	n/a	n/a	n/a
3225607	RECOG_RESP	n/a	LTP236	ltpFR	6	1	-1	WHALE	1601	1	n/a	-1	n/a	n/a	n/a	n/a	n/a
3227074	RECOG_CONF	n/a	LTP236	ltpFR	6	1	-1	WHALE	1601	n/a	5	-1	n/a	n/a	n/a	n/a	n/a
3229395	RECOG_TARGET	n/a	LTP236	ltpFR	6	1	-1	ASH	44	1	5	-1	n/a	n/a	n/a	n/a	n/a
3230095	RECOG_RESP	n/a	LTP236	ltpFR	6	1	-1	ASH	44	1	n/a	-1	n/a	n/a	n/a	n/a	n/a
3231471	RECOG_CONF	n/a	LTP236	ltpFR	6	1	-1	ASH	44	n/a	5	-1	n/a	n/a	n/a	n/a	n/a
3233688	RECOG_TARGET	n/a	LTP236	ltpFR	6	1	-1	ORNAMENT	985	1	5	-1	n/a	n/a	n/a	n/a	n/a
3234429	RECOG_RESP	n/a	LTP236	ltpFR	6	1	-1	ORNAMENT	985	1	n/a	-1	n/a	n/a	n/a	n/a	n/a
3235741	RECOG_CONF	n/a	LTP236	ltpFR	6	1	-1	ORNAMENT	985	n/a	5	-1	n/a	n/a	n/a	n/a	n/a
3238016	RECOG_LURE	n/a	LTP236	ltpFR	6	1	n/a	CRADLE	399	1	2	n/a	n/a	n/a	n/a	n/a	n/a
3239027	RECOG_RESP	n/a	LTP236	ltpFR	6	1	n/a	CRADLE	399	1	n/a	n/a	n/a	n/a	n/a	n/a	n/a
3240377	RECOG_CONF	n/a	LTP236	ltpFR	6	1	n/a	CRADLE	399	n/a	2	n/a	n/a	n/a	n/a	n/a	n/a
3242509	RECOG_TARGET	n/a	LTP236	ltpFR	6	1	-1	LOG	841	1	5	-1	n/a	n/a	n/a	n/a	n/a
3243172	RECOG_RESP	n/a	LTP236	ltpFR	6	1	-1	LOG	841	1	n/a	-1	n/a	n/a	n/a	n/a	n/a
3244540	RECOG_CONF	n/a	LTP236	ltpFR	6	1	-1	LOG	841	n/a	5	-1	n/a	n/a	n/a	n/a	n/a
3248575	REC_START	n/a	LTP236	ltpFR	6	2	n/a	n/a	n/a	n/a	n/a	n/a	n/a	n/a	n/a	n/a	n/a
3248616	RECOG_LURE	n/a	LTP236	ltpFR	6	2	n/a	NEUTRON	947	0	5	n/a	n/a	n/a	n/a	n/a	n/a
3249531	RECOG_RESP	n/a	LTP236	ltpFR	6	2	n/a	NEUTRON	947	0	n/a	n/a	n/a	n/a	n/a	n/a	n/a
3250865	RECOG_CONF	n/a	LTP236	ltpFR	6	2	n/a	NEUTRON	947	n/a	5	n/a	n/a	n/a	n/a	n/a	n/a
3253044	RECOG_TARGET	n/a	LTP236	ltpFR	6	2	1	WAITER	1580	1	5	1	n/a	n/a	n/a	n/a	n/a
3254111	RECOG_RESP	n/a	LTP236	ltpFR	6	2	1	WAITER	1580	1	n/a	1	n/a	n/a	n/a	n/a	n/a
3255467	RECOG_CONF	n/a	LTP236	ltpFR	6	2	1	WAITER	1580	n/a	5	1	n/a	n/a	n/a	n/a	n/a
3257652	RECOG_LURE	n/a	LTP236	ltpFR	6	2	n/a	SKELETON	1314	1	5	n/a	n/a	n/a	n/a	n/a	n/a
3258356	RECOG_RESP	n/a	LTP236	ltpFR	6	2	n/a	SKELETON	1314	1	n/a	n/a	n/a	n/a	n/a	n/a	n/a
3259789	RECOG_CONF	n/a	LTP236	ltpFR	6	2	n/a	SKELETON	1314	n/a	5	n/a	n/a	n/a	n/a	n/a	n/a
3262030	RECOG_LURE	n/a	LTP236	ltpFR	6	2	n/a	BRIEFCASE	175	1	1	n/a	n/a	n/a	n/a	n/a	n/a
3262930	RECOG_RESP	n/a	LTP236	ltpFR	6	2	n/a	BRIEFCASE	175	1	n/a	n/a	n/a	n/a	n/a	n/a	n/a
3264302	RECOG_CONF	n/a	LTP236	ltpFR	6	2	n/a	BRIEFCASE	175	n/a	1	n/a	n/a	n/a	n/a	n/a	n/a
3266390	RECOG_LURE	n/a	LTP236	ltpFR	6	2	n/a	EGG	518	1	1	n/a	n/a	n/a	n/a	n/a	n/a
3267577	RECOG_RESP	n/a	LTP236	ltpFR	6	2	n/a	EGG	518	1	n/a	n/a	n/a	n/a	n/a	n/a	n/a
3269034	RECOG_CONF	n/a	LTP236	ltpFR	6	2	n/a	EGG	518	n/a	1	n/a	n/a	n/a	n/a	n/a	n/a
3271250	RECOG_TARGET	n/a	LTP236	ltpFR	6	2	0	STICKER	1382	1	4	0	n/a	n/a	n/a	n/a	n/a
3272076	RECOG_RESP	n/a	LTP236	ltpFR	6	2	0	STICKER	1382	1	n/a	0	n/a	n/a	n/a	n/a	n/a
3273297	RECOG_CONF	n/a	LTP236	ltpFR	6	2	0	STICKER	1382	n/a	4	0	n/a	n/a	n/a	n/a	n/a
3275559	RECOG_TARGET	n/a	LTP236	ltpFR	6	2	-1	DIRT	472	1	5	-1	n/a	n/a	n/a	n/a	n/a
3276267	RECOG_RESP	n/a	LTP236	ltpFR	6	2	-1	DIRT	472	1	n/a	-1	n/a	n/a	n/a	n/a	n/a
3277674	RECOG_CONF	n/a	LTP236	ltpFR	6	2	-1	DIRT	472	n/a	5	-1	n/a	n/a	n/a	n/a	n/a
3279869	RECOG_LURE	n/a	LTP236	ltpFR	6	2	n/a	BASEMENT	94	1	1	n/a	n/a	n/a	n/a	n/a	n/a
3280738	RECOG_RESP	n/a	LTP236	ltpFR	6	2	n/a	BASEMENT	94	1	n/a	n/a	n/a	n/a	n/a	n/a	n/a
3282173	RECOG_CONF	n/a	LTP236	ltpFR	6	2	n/a	BASEMENT	94	n/a	1	n/a	n/a	n/a	n/a	n/a	n/a
3284297	RECOG_LURE	n/a	LTP236	ltpFR	6	2	n/a	TOMB	1477	0	3	n/a	n/a	n/a	n/a	n/a	n/a
3285166	RECOG_RESP	n/a	LTP236	ltpFR	6	2	n/a	TOMB	1477	0	n/a	n/a	n/a	n/a	n/a	n/a	n/a
3286518	RECOG_CONF	n/a	LTP236	ltpFR	6	2	n/a	TOMB	1477	n/a	3	n/a	n/a	n/a	n/a	n/a	n/a
3288656	RECOG_LURE	n/a	LTP236	ltpFR	6	2	n/a	PLANE	1081	0	3	n/a	n/a	n/a	n/a	n/a	n/a
3289916	RECOG_RESP	n/a	LTP236	ltpFR	6	2	n/a	PLANE	1081	0	n/a	n/a	n/a	n/a	n/a	n/a	n/a
3291212	RECOG_CONF	n/a	LTP236	ltpFR	6	2	n/a	PLANE	1081	n/a	3	n/a	n/a	n/a	n/a	n/a	n/a
3293383	RECOG_LURE	n/a	LTP236	ltpFR	6	2	n/a	APARTMENT	30	0	3	n/a	n/a	n/a	n/a	n/a	n/a
3294266	RECOG_RESP	n/a	LTP236	ltpFR	6	2	n/a	APARTMENT	30	0	n/a	n/a	n/a	n/a	n/a	n/a	n/a
3295548	RECOG_CONF	n/a	LTP236	ltpFR	6	2	n/a	APARTMENT	30	n/a	3	n/a	n/a	n/a	n/a	n/a	n/a
3297692	RECOG_LURE	n/a	LTP236	ltpFR	6	2	n/a	LIGHTNING	820	0	3	n/a	n/a	n/a	n/a	n/a	n/a
3298552	RECOG_RESP	n/a	LTP236	ltpFR	6	2	n/a	LIGHTNING	820	0	n/a	n/a	n/a	n/a	n/a	n/a	n/a
3299850	RECOG_CONF	n/a	LTP236	ltpFR	6	2	n/a	LIGHTNING	820	n/a	3	n/a	n/a	n/a	n/a	n/a	n/a
3302070	RECOG_LURE	n/a	LTP236	ltpFR	6	2	n/a	AFRICA	9	0	4	n/a	n/a	n/a	n/a	n/a	n/a
3303098	RECOG_RESP	n/a	LTP236	ltpFR	6	2	n/a	AFRICA	9	0	n/a	n/a	n/a	n/a	n/a	n/a	n/a
3304632	RECOG_CONF	n/a	LTP236	ltpFR	6	2	n/a	AFRICA	9	n/a	4	n/a	n/a	n/a	n/a	n/a	n/a
3306579	RECOG_LURE	n/a	LTP236	ltpFR	6	2	n/a	SHACK	1273	0	2	n/a	n/a	n/a	n/a	n/a	n/a
3307446	RECOG_RESP	n/a	LTP236	ltpFR	6	2	n/a	SHACK	1273	0	n/a	n/a	n/a	n/a	n/a	n/a	n/a
3308810	RECOG_CONF	n/a	LTP236	ltpFR	6	2	n/a	SHACK	1273	n/a	2	n/a	n/a	n/a	n/a	n/a	n/a
3310839	RECOG_LURE	n/a	LTP236	ltpFR	6	2	n/a	ABDOMEN	1	0	5	n/a	n/a	n/a	n/a	n/a	n/a
3311791	RECOG_RESP	n/a	LTP236	ltpFR	6	2	n/a	ABDOMEN	1	0	n/a	n/a	n/a	n/a	n/a	n/a	n/a
3313031	RECOG_CONF	n/a	LTP236	ltpFR	6	2	n/a	ABDOMEN	1	n/a	5	n/a	n/a	n/a	n/a	n/a	n/a
3315217	RECOG_TARGET	n/a	LTP236	ltpFR	6	2	-1	RADISH	1158	0	1	-1	n/a	n/a	n/a	n/a	n/a
3316505	RECOG_RESP	n/a	LTP236	ltpFR	6	2	-1	RADISH	1158	0	n/a	-1	n/a	n/a	n/a	n/a	n/a
3317907	RECOG_CONF	n/a	LTP236	ltpFR	6	2	-1	RADISH	1158	n/a	1	-1	n/a	n/a	n/a	n/a	n/a
3320127	RECOG_TARGET	n/a	LTP236	ltpFR	6	2	-1	ACORN	3	0	2	-1	n/a	n/a	n/a	n/a	n/a
3321054	RECOG_RESP	n/a	LTP236	ltpFR	6	2	-1	ACORN	3	0	n/a	-1	n/a	n/a	n/a	n/a	n/a
3322649	RECOG_CONF	n/a	LTP236	ltpFR	6	2	-1	ACORN	3	n/a	2	-1	n/a	n/a	n/a	n/a	n/a
3324735	RECOG_LURE	n/a	LTP236	ltpFR	6	2	n/a	NAPKIN	937	0	1	n/a	n/a	n/a	n/a	n/a	n/a
3326297	RECOG_RESP	n/a	LTP236	ltpFR	6	2	n/a	NAPKIN	937	0	n/a	n/a	n/a	n/a	n/a	n/a	n/a
3327700	RECOG_CONF	n/a	LTP236	ltpFR	6	2	n/a	NAPKIN	937	n/a	1	n/a	n/a	n/a	n/a	n/a	n/a
3329945	RECOG_LURE	n/a	LTP236	ltpFR	6	2	n/a	HUT	729	0	2	n/a	n/a	n/a	n/a	n/a	n/a
3330919	RECOG_RESP	n/a	LTP236	ltpFR	6	2	n/a	HUT	729	0	n/a	n/a	n/a	n/a	n/a	n/a	n/a
3332452	RECOG_CONF	n/a	LTP236	ltpFR	6	2	n/a	HUT	729	n/a	2	n/a	n/a	n/a	n/a	n/a	n/a
3334472	RECOG_TARGET	n/a	LTP236	ltpFR	6	2	1	MONUMENT	913	1	1	0	n/a	n/a	n/a	n/a	n/a
3335547	RECOG_RESP	n/a	LTP236	ltpFR	6	2	1	MONUMENT	913	1	n/a	0	n/a	n/a	n/a	n/a	n/a
3337089	RECOG_CONF	n/a	LTP236	ltpFR	6	2	1	MONUMENT	913	n/a	1	0	n/a	n/a	n/a	n/a	n/a
3340928	REC_START	n/a	LTP236	ltpFR	6	3	n/a	n/a	n/a	n/a	n/a	n/a	n/a	n/a	n/a	n/a	n/a
3340962	RECOG_LURE	n/a	LTP236	ltpFR	6	3	n/a	SLIDE	1326	1	5	n/a	n/a	n/a	n/a	n/a	n/a
3341649	RECOG_RESP	n/a	LTP236	ltpFR	6	3	n/a	SLIDE	1326	1	n/a	n/a	n/a	n/a	n/a	n/a	n/a
3342983	RECOG_CONF	n/a	LTP236	ltpFR	6	3	n/a	SLIDE	1326	n/a	5	n/a	n/a	n/a	n/a	n/a	n/a
3345272	RECOG_LURE	n/a	LTP236	ltpFR	6	3	n/a	GLUE	643	0	5	n/a	n/a	n/a	n/a	n/a	n/a
3346223	RECOG_RESP	n/a	LTP236	ltpFR	6	3	n/a	GLUE	643	0	n/a	n/a	n/a	n/a	n/a	n/a	n/a
3347648	RECOG_CONF	n/a	LTP236	ltpFR	6	3	n/a	GLUE	643	n/a	5	n/a	n/a	n/a	n/a	n/a	n/a
3349665	RECOG_LURE	n/a	LTP236	ltpFR	6	3	n/a	HORNET	718	0	1	n/a	n/a	n/a	n/a	n/a	n/a
3350655	RECOG_RESP	n/a	LTP236	ltpFR	6	3	n/a	HORNET	718	0	n/a	n/a	n/a	n/a	n/a	n/a	n/a
3351995	RECOG_CONF	n/a	LTP236	ltpFR	6	3	n/a	HORNET	718	n/a	1	n/a	n/a	n/a	n/a	n/a	n/a
3354126	RECOG_TARGET	n/a	LTP236	ltpFR	6	3	1	GAZELLE	628	1	1	1	n/a	n/a	n/a	n/a	n/a
3354944	RECOG_RESP	n/a	LTP236	ltpFR	6	3	1	GAZELLE	628	1	n/a	1	n/a	n/a	n/a	n/a	n/a
3356423	RECOG_CONF	n/a	LTP236	ltpFR	6	3	1	GAZELLE	628	n/a	1	1	n/a	n/a	n/a	n/a	n/a
3358503	RECOG_LURE	n/a	LTP236	ltpFR	6	3	n/a	CRIMINAL	409	1	1	n/a	n/a	n/a	n/a	n/a	n/a
3359235	RECOG_RESP	n/a	LTP236	ltpFR	6	3	n/a	CRIMINAL	409	1	n/a	n/a	n/a	n/a	n/a	n/a	n/a
3360734	RECOG_CONF	n/a	LTP236	ltpFR	6	3	n/a	CRIMINAL	409	n/a	1	n/a	n/a	n/a	n/a	n/a	n/a
3362845	RECOG_TARGET	n/a	LTP236	ltpFR	6	3	0	SOCIETY	1338	1	5	1	n/a	n/a	n/a	n/a	n/a
3363563	RECOG_RESP	n/a	LTP236	ltpFR	6	3	0	SOCIETY	1338	1	n/a	1	n/a	n/a	n/a	n/a	n/a
3364815	RECOG_CONF	n/a	LTP236	ltpFR	6	3	0	SOCIETY	1338	n/a	5	1	n/a	n/a	n/a	n/a	n/a
3367090	RECOG_LURE	n/a	LTP236	ltpFR	6	3	n/a	NEPTUNE	943	0	5	n/a	n/a	n/a	n/a	n/a	n/a
3367891	RECOG_RESP	n/a	LTP236	ltpFR	6	3	n/a	NEPTUNE	943	0	n/a	n/a	n/a	n/a	n/a	n/a	n/a
3369202	RECOG_CONF	n/a	LTP236	ltpFR	6	3	n/a	NEPTUNE	943	n/a	5	n/a	n/a	n/a	n/a	n/a	n/a
3371234	RECOG_TARGET	n/a	LTP236	ltpFR	6	3	1	DESIGNER	451	1	5	1	n/a	n/a	n/a	n/a	n/a
3372256	RECOG_RESP	n/a	LTP236	ltpFR	6	3	1	DESIGNER	451	1	n/a	1	n/a	n/a	n/a	n/a	n/a
3373646	RECOG_CONF	n/a	LTP236	ltpFR	6	3	1	DESIGNER	451	n/a	5	1	n/a	n/a	n/a	n/a	n/a
3375893	RECOG_TARGET	n/a	LTP236	ltpFR	6	3	-1	TUBE	1516	1	5	-1	n/a	n/a	n/a	n/a	n/a
3376515	RECOG_RESP	n/a	LTP236	ltpFR	6	3	-1	TUBE	1516	1	n/a	-1	n/a	n/a	n/a	n/a	n/a
3377842	RECOG_CONF	n/a	LTP236	ltpFR	6	3	-1	TUBE	1516	n/a	5	-1	n/a	n/a	n/a	n/a	n/a
3379987	RECOG_TARGET	n/a	LTP236	ltpFR	6	3	0	GIFT	635	1	5	0	n/a	n/a	n/a	n/a	n/a
3380592	RECOG_RESP	n/a	LTP236	ltpFR	6	3	0	GIFT	635	1	n/a	0	n/a	n/a	n/a	n/a	n/a
3381860	RECOG_CONF	n/a	LTP236	ltpFR	6	3	0	GIFT	635	n/a	5	0	n/a	n/a	n/a	n/a	n/a
3383965	RECOG_LURE	n/a	LTP236	ltpFR	6	3	n/a	FLASK	576	0	3	n/a	n/a	n/a	n/a	n/a	n/a
3384911	RECOG_RESP	n/a	LTP236	ltpFR	6	3	n/a	FLASK	576	0	n/a	n/a	n/a	n/a	n/a	n/a	n/a
3386169	RECOG_CONF	n/a	LTP236	ltpFR	6	3	n/a	FLASK	576	n/a	3	n/a	n/a	n/a	n/a	n/a	n/a
3388308	RECOG_LURE	n/a	LTP236	ltpFR	6	3	n/a	CLAM	315	1	1	n/a	n/a	n/a	n/a	n/a	n/a
3389037	RECOG_RESP	n/a	LTP236	ltpFR	6	3	n/a	CLAM	315	1	n/a	n/a	n/a	n/a	n/a	n/a	n/a
3390548	RECOG_CONF	n/a	LTP236	ltpFR	6	3	n/a	CLAM	315	n/a	1	n/a	n/a	n/a	n/a	n/a	n/a
3392734	RECOG_TARGET	n/a	LTP236	ltpFR	6	3	0	CITY	314	1	3	1	n/a	n/a	n/a	n/a	n/a
3393767	RECOG_RESP	n/a	LTP236	ltpFR	6	3	0	CITY	314	1	n/a	1	n/a	n/a	n/a	n/a	n/a
3395150	RECOG_CONF	n/a	LTP236	ltpFR	6	3	0	CITY	314	n/a	3	1	n/a	n/a	n/a	n/a	n/a
3397261	RECOG_TARGET	n/a	LTP236	ltpFR	6	3	0	FRUIT	610	0	5	0	n/a	n/a	n/a	n/a	n/a
3398156	RECOG_RESP	n/a	LTP236	ltpFR	6	3	0	FRUIT	610	0	n/a	0	n/a	n/a	n/a	n/a	n/a
3399430	RECOG_CONF	n/a	LTP236	ltpFR	6	3	0	FRUIT	610	n/a	5	0	n/a	n/a	n/a	n/a	n/a
3401554	RECOG_TARGET	n/a	LTP236	ltpFR	6	3	0	CLASS	318	1	5	0	n/a	n/a	n/a	n/a	n/a
3403052	RECOG_RESP	n/a	LTP236	ltpFR	6	3	0	CLASS	318	1	n/a	0	n/a	n/a	n/a	n/a	n/a
3404442	RECOG_CONF	n/a	LTP236	ltpFR	6	3	0	CLASS	318	n/a	5	0	n/a	n/a	n/a	n/a	n/a
3406596	RECOG_LURE	n/a	LTP236	ltpFR	6	3	n/a	RULER	1216	1	4	n/a	n/a	n/a	n/a	n/a	n/a
3407452	RECOG_RESP	n/a	LTP236	ltpFR	6	3	n/a	RULER	1216	1	n/a	n/a	n/a	n/a	n/a	n/a	n/a
3409018	RECOG_CONF	n/a	LTP236	ltpFR	6	3	n/a	RULER	1216	n/a	4	n/a	n/a	n/a	n/a	n/a	n/a
3410991	RECOG_TARGET	n/a	LTP236	ltpFR	6	3	-1	RUBY	1214	1	5	-1	n/a	n/a	n/a	n/a	n/a
3412048	RECOG_RESP	n/a	LTP236	ltpFR	6	3	-1	RUBY	1214	1	n/a	-1	n/a	n/a	n/a	n/a	n/a
3413268	RECOG_CONF	n/a	LTP236	ltpFR	6	3	-1	RUBY	1214	n/a	5	-1	n/a	n/a	n/a	n/a	n/a
3415351	RECOG_TARGET	n/a	LTP236	ltpFR	6	3	-1	SAW	1239	1	5	-1	n/a	n/a	n/a	n/a	n/a
3416263	RECOG_RESP	n/a	LTP236	ltpFR	6	3	-1	SAW	1239	1	n/a	-1	n/a	n/a	n/a	n/a	n/a
3417473	RECOG_CONF	n/a	LTP236	ltpFR	6	3	-1	SAW	1239	n/a	5	-1	n/a	n/a	n/a	n/a	n/a
3419760	RECOG_LURE	n/a	LTP236	ltpFR	6	3	n/a	SLIME	1327	0	5	n/a	n/a	n/a	n/a	n/a	n/a
3420801	RECOG_RESP	n/a	LTP236	ltpFR	6	3	n/a	SLIME	1327	0	n/a	n/a	n/a	n/a	n/a	n/a	n/a
3422059	RECOG_CONF	n/a	LTP236	ltpFR	6	3	n/a	SLIME	1327	n/a	5	n/a	n/a	n/a	n/a	n/a	n/a
3424304	RECOG_TARGET	n/a	LTP236	ltpFR	6	3	1	FARM	552	1	2	0	n/a	n/a	n/a	n/a	n/a
3425297	RECOG_RESP	n/a	LTP236	ltpFR	6	3	1	FARM	552	1	n/a	0	n/a	n/a	n/a	n/a	n/a
3426754	RECOG_CONF	n/a	LTP236	ltpFR	6	3	1	FARM	552	n/a	2	0	n/a	n/a	n/a	n/a	n/a
3430469	REC_START	n/a	LTP236	ltpFR	6	4	n/a	n/a	n/a	n/a	n/a	n/a	n/a	n/a	n/a	n/a	n/a
3430495	RECOG_TARGET	n/a	LTP236	ltpFR	6	4	0	FUGITIVE	612	1	5	1	n/a	n/a	n/a	n/a	n/a
3431242	RECOG_RESP	n/a	LTP236	ltpFR	6	4	0	FUGITIVE	612	1	n/a	1	n/a	n/a	n/a	n/a	n/a
3432641	RECOG_CONF	n/a	LTP236	ltpFR	6	4	0	FUGITIVE	612	n/a	5	1	n/a	n/a	n/a	n/a	n/a
3434788	RECOG_LURE	n/a	LTP236	ltpFR	6	4	n/a	SLACKS	1323	0	4	n/a	n/a	n/a	n/a	n/a	n/a
3435726	RECOG_RESP	n/a	LTP236	ltpFR	6	4	n/a	SLACKS	1323	0	n/a	n/a	n/a	n/a	n/a	n/a	n/a
3437070	RECOG_CONF	n/a	LTP236	ltpFR	6	4	n/a	SLACKS	1323	n/a	4	n/a	n/a	n/a	n/a	n/a	n/a
3439116	RECOG_LURE	n/a	LTP236	ltpFR	6	4	n/a	MARGARINE	868	0	5	n/a	n/a	n/a	n/a	n/a	n/a
3440002	RECOG_RESP	n/a	LTP236	ltpFR	6	4	n/a	MARGARINE	868	0	n/a	n/a	n/a	n/a	n/a	n/a	n/a
3441708	RECOG_CONF	n/a	LTP236	ltpFR	6	4	n/a	MARGARINE	868	n/a	5	n/a	n/a	n/a	n/a	n/a	n/a
3443791	RECOG_LURE	n/a	LTP236	ltpFR	6	4	n/a	CUPBOARD	425	1	2	n/a	n/a	n/a	n/a	n/a	n/a
3444999	RECOG_RESP	n/a	LTP236	ltpFR	6	4	n/a	CUPBOARD	425	1	n/a	n/a	n/a	n/a	n/a	n/a	n/a
3446363	RECOG_CONF	n/a	LTP236	ltpFR	6	4	n/a	CUPBOARD	425	n/a	2	n/a	n/a	n/a	n/a	n/a	n/a
3448452	RECOG_LURE	n/a	LTP236	ltpFR	6	4	n/a	DWARF	510	0	5	n/a	n/a	n/a	n/a	n/a	n/a
3449710	RECOG_RESP	n/a	LTP236	ltpFR	6	4	n/a	DWARF	510	0	n/a	n/a	n/a	n/a	n/a	n/a	n/a
3451047	RECOG_CONF	n/a	LTP236	ltpFR	6	4	n/a	DWARF	510	n/a	5	n/a	n/a	n/a	n/a	n/a	n/a
3453261	RECOG_TARGET	n/a	LTP236	ltpFR	6	4	0	POND	1101	1	1	1	n/a	n/a	n/a	n/a	n/a
3454446	RECOG_RESP_VV	n/a	LTP236	ltpFR	6	4	0	POND	1101	0	n/a	1	n/a	n/a	n/a	n/a	n/a
3456805	RECOG_RESP	n/a	LTP236	ltpFR	6	4	0	POND	1101	1	n/a	1	n/a	n/a	n/a	n/a	n/a
3458563	RECOG_CONF	n/a	LTP236	ltpFR	6	4	0	POND	1101	n/a	1	1	n/a	n/a	n/a	n/a	n/a
3460716	RECOG_TARGET	n/a	LTP236	ltpFR	6	4	1	NAIL	936	1	1	0	n/a	n/a	n/a	n/a	n/a
3461834	RECOG_RESP	n/a	LTP236	ltpFR	6	4	1	NAIL	936	1	n/a	0	n/a	n/a	n/a	n/a	n/a
3463702	RECOG_CONF	n/a	LTP236	ltpFR	6	4	1	NAIL	936	n/a	1	0	n/a	n/a	n/a	n/a	n/a
3466092	RECOG_LURE	n/a	LTP236	ltpFR	6	4	n/a	SHEEP	1278	1	1	n/a	n/a	n/a	n/a	n/a	n/a
3466971	RECOG_RESP	n/a	LTP236	ltpFR	6	4	n/a	SHEEP	1278	1	n/a	n/a	n/a	n/a	n/a	n/a	n/a
3468532	RECOG_CONF	n/a	LTP236	ltpFR	6	4	n/a	SHEEP	1278	n/a	1	n/a	n/a	n/a	n/a	n/a	n/a
3470784	RECOG_LURE	n/a	LTP236	ltpFR	6	4	n/a	DOG	480	0	3	n/a	n/a	n/a	n/a	n/a	n/a
3471737	RECOG_RESP	n/a	LTP236	ltpFR	6	4	n/a	DOG	480	0	n/a	n/a	n/a	n/a	n/a	n/a	n/a
3473605	RECOG_CONF	n/a	LTP236	ltpFR	6	4	n/a	DOG	480	n/a	3	n/a	n/a	n/a	n/a	n/a	n/a
3475843	RECOG_LURE	n/a	LTP236	ltpFR	6	4	n/a	DANDELION	438	0	3	n/a	n/a	n/a	n/a	n/a	n/a
3477163	RECOG_RESP	n/a	LTP236	ltpFR	6	4	n/a	DANDELION	438	0	n/a	n/a	n/a	n/a	n/a	n/a	n/a
3478734	RECOG_CONF	n/a	LTP236	ltpFR	6	4	n/a	DANDELION	438	n/a	3	n/a	n/a	n/a	n/a	n/a	n/a
3480769	RECOG_LURE	n/a	LTP236	ltpFR	6	4	n/a	KNOT	788	1	5	n/a	n/a	n/a	n/a	n/a	n/a
3482661	RECOG_RESP	n/a	LTP236	ltpFR	6	4	n/a	KNOT	788	1	n/a	n/a	n/a	n/a	n/a	n/a	n/a
3484199	RECOG_CONF	n/a	LTP236	ltpFR	6	4	n/a	KNOT	788	n/a	5	n/a	n/a	n/a	n/a	n/a	n/a
3486362	RECOG_TARGET	n/a	LTP236	ltpFR	6	4	-1	SERGEANT	1269	1	5	-1	n/a	n/a	n/a	n/a	n/a
3487229	RECOG_RESP	n/a	LTP236	ltpFR	6	4	-1	SERGEANT	1269	1	n/a	-1	n/a	n/a	n/a	n/a	n/a
3488744	RECOG_CONF	n/a	LTP236	ltpFR	6	4	-1	SERGEANT	1269	n/a	5	-1	n/a	n/a	n/a	n/a	n/a
3490938	RECOG_LURE	n/a	LTP236	ltpFR	6	4	n/a	MOUSE	925	0	4	n/a	n/a	n/a	n/a	n/a	n/a
3491853	RECOG_RESP	n/a	LTP236	ltpFR	6	4	n/a	MOUSE	925	0	n/a	n/a	n/a	n/a	n/a	n/a	n/a
3493223	RECOG_CONF	n/a	LTP236	ltpFR	6	4	n/a	MOUSE	925	n/a	4	n/a	n/a	n/a	n/a	n/a	n/a
3495365	RECOG_LURE	n/a	LTP236	ltpFR	6	4	n/a	TOOTHBRUSH	1482	0	3	n/a	n/a	n/a	n/a	n/a	n/a
3496543	RECOG_RESP	n/a	LTP236	ltpFR	6	4	n/a	TOOTHBRUSH	1482	0	n/a	n/a	n/a	n/a	n/a	n/a	n/a
3498016	RECOG_CONF	n/a	LTP236	ltpFR	6	4	n/a	TOOTHBRUSH	1482	n/a	3	n/a	n/a	n/a	n/a	n/a	n/a
3500258	RECOG_TARGET	n/a	LTP236	ltpFR	6	4	1	DIARY	460	1	5	0	n/a	n/a	n/a	n/a	n/a
3501054	RECOG_RESP	n/a	LTP236	ltpFR	6	4	1	DIARY	460	1	n/a	0	n/a	n/a	n/a	n/a	n/a
3502433	RECOG_CONF	n/a	LTP236	ltpFR	6	4	1	DIARY	460	n/a	5	0	n/a	n/a	n/a	n/a	n/a
3504617	RECOG_LURE	n/a	LTP236	ltpFR	6	4	n/a	COUCH	386	0	5	n/a	n/a	n/a	n/a	n/a	n/a
3505663	RECOG_RESP	n/a	LTP236	ltpFR	6	4	n/a	COUCH	386	0	n/a	n/a	n/a	n/a	n/a	n/a	n/a
3506955	RECOG_CONF	n/a	LTP236	ltpFR	6	4	n/a	COUCH	386	n/a	5	n/a	n/a	n/a	n/a	n/a	n/a
3509194	RECOG_LURE	n/a	LTP236	ltpFR	6	4	n/a	MOUNTAIN	924	0	1	n/a	n/a	n/a	n/a	n/a	n/a
3510229	RECOG_RESP	n/a	LTP236	ltpFR	6	4	n/a	MOUNTAIN	924	0	n/a	n/a	n/a	n/a	n/a	n/a	n/a
3511633	RECOG_CONF	n/a	LTP236	ltpFR	6	4	n/a	MOUNTAIN	924	n/a	1	n/a	n/a	n/a	n/a	n/a	n/a
3513786	RECOG_LURE	n/a	LTP236	ltpFR	6	4	n/a	PAIL	1002	0	2	n/a	n/a	n/a	n/a	n/a	n/a
3514715	RECOG_RESP	n/a	LTP236	ltpFR	6	4	n/a	PAIL	1002	0	n/a	n/a	n/a	n/a	n/a	n/a	n/a
3516144	RECOG_CONF	n/a	LTP236	ltpFR	6	4	n/a	PAIL	1002	n/a	2	n/a	n/a	n/a	n/a	n/a	n/a
3518281	RECOG_LURE	n/a	LTP236	ltpFR	6	4	n/a	FRANCE	601	0	5	n/a	n/a	n/a	n/a	n/a	n/a
3519091	RECOG_RESP	n/a	LTP236	ltpFR	6	4	n/a	FRANCE	601	0	n/a	n/a	n/a	n/a	n/a	n/a	n/a
3520445	RECOG_CONF	n/a	LTP236	ltpFR	6	4	n/a	FRANCE	601	n/a	5	n/a	n/a	n/a	n/a	n/a	n/a
3522656	RECOG_LURE	n/a	LTP236	ltpFR	6	4	n/a	CHEDDAR	286	0	5	n/a	n/a	n/a	n/a	n/a	n/a
3523549	RECOG_RESP	n/a	LTP236	ltpFR	6	4	n/a	CHEDDAR	286	0	n/a	n/a	n/a	n/a	n/a	n/a	n/a
3524912	RECOG_CONF	n/a	LTP236	ltpFR	6	4	n/a	CHEDDAR	286	n/a	5	n/a	n/a	n/a	n/a	n/a	n/a
3528853	REC_START	n/a	LTP236	ltpFR	6	5	n/a	n/a	n/a	n/a	n/a	n/a	n/a	n/a	n/a	n/a	n/a
3528882	RECOG_TARGET	n/a	LTP236	ltpFR	6	5	1	BACKBONE	66	1	5	0	n/a	n/a	n/a	n/a	n/a
3530096	RECOG_RESP	n/a	LTP236	ltpFR	6	5	1	BACKBONE	66	1	n/a	0	n/a	n/a	n/a	n/a	n/a
3531545	RECOG_CONF	n/a	LTP236	ltpFR	6	5	1	BACKBONE	66	n/a	5	0	n/a	n/a	n/a	n/a	n/a
3533723	RECOG_TARGET	n/a	LTP236	ltpFR	6	5	-1	PUBLICATION	1136	0	5	-1	n/a	n/a	n/a	n/a	n/a
3534920	RECOG_RESP	n/a	LTP236	ltpFR	6	5	-1	PUBLICATION	1136	0	n/a	-1	n/a	n/a	n/a	n/a	n/a
3536405	RECOG_CONF	n/a	LTP236	ltpFR	6	5	-1	PUBLICATION	1136	n/a	5	-1	n/a	n/a	n/a	n/a	n/a
3538799	RECOG_LURE	n/a	LTP236	ltpFR	6	5	n/a	ZUCCHINI	1638	0	5	n/a	n/a	n/a	n/a	n/a	n/a
3539633	RECOG_RESP	n/a	LTP236	ltpFR	6	5	n/a	ZUCCHINI	1638	0	n/a	n/a	n/a	n/a	n/a	n/a	n/a
3541308	RECOG_CONF	n/a	LTP236	ltpFR	6	5	n/a	ZUCCHINI	1638	n/a	5	n/a	n/a	n/a	n/a	n/a	n/a
3543393	RECOG_LURE	n/a	LTP236	ltpFR	6	5	n/a	MOTORCYCLE	923	1	1	n/a	n/a	n/a	n/a	n/a	n/a
3544824	RECOG_RESP	n/a	LTP236	ltpFR	6	5	n/a	MOTORCYCLE	923	1	n/a	n/a	n/a	n/a	n/a	n/a	n/a
3546368	RECOG_CONF	n/a	LTP236	ltpFR	6	5	n/a	MOTORCYCLE	923	n/a	1	n/a	n/a	n/a	n/a	n/a	n/a
3548502	RECOG_LURE	n/a	LTP236	ltpFR	6	5	n/a	SHIRT	1287	0	3	n/a	n/a	n/a	n/a	n/a	n/a
3549466	RECOG_RESP	n/a	LTP236	ltpFR	6	5	n/a	SHIRT	1287	0	n/a	n/a	n/a	n/a	n/a	n/a	n/a
3550927	RECOG_CONF	n/a	LTP236	ltpFR	6	5	n/a	SHIRT	1287	n/a	3	n/a	n/a	n/a	n/a	n/a	n/a
3553245	RECOG_TARGET	n/a	LTP236	ltpFR	6	5	0	PIT	1077	1	5	1	n/a	n/a	n/a	n/a	n/a
3554102	RECOG_RESP	n/a	LTP236	ltpFR	6	5	0	PIT	1077	1	n/a	1	n/a	n/a	n/a	n/a	n/a
3555605	RECOG_CONF	n/a	LTP236	ltpFR	6	5	0	PIT	1077	n/a	5	1	n/a	n/a	n/a	n/a	n/a
3557837	RECOG_TARGET	n/a	LTP236	ltpFR	6	5	0	HONEY	713	1	5	0	n/a	n/a	n/a	n/a	n/a
3558568	RECOG_RESP	n/a	LTP236	ltpFR	6	5	0	HONEY	713	1	n/a	0	n/a	n/a	n/a	n/a	n/a
3560029	RECOG_CONF	n/a	LTP236	ltpFR	6	5	0	HONEY	713	n/a	5	0	n/a	n/a	n/a	n/a	n/a
3562431	RECOG_TARGET	n/a	LTP236	ltpFR	6	5	1	LADDER	793	1	5	0	n/a	n/a	n/a	n/a	n/a
3563100	RECOG_RESP	n/a	LTP236	ltpFR	6	5	1	LADDER	793	1	n/a	0	n/a	n/a	n/a	n/a	n/a
3564575	RECOG_CONF	n/a	LTP236	ltpFR	6	5	1	LADDER	793	n/a	5	0	n/a	n/a	n/a	n/a	n/a
3566774	RECOG_LURE	n/a	LTP236	ltpFR	6	5	n/a	ROACH	1195	0	4	n/a	n/a	n/a	n/a	n/a	n/a
3567697	RECOG_RESP	n/a	LTP236	ltpFR	6	5	n/a	ROACH	1195	0	n/a	n/a	n/a	n/a	n/a	n/a	n/a
3569194	RECOG_CONF	n/a	LTP236	ltpFR	6	5	n/a	ROACH	1195	n/a	4	n/a	n/a	n/a	n/a	n/a	n/a
3571401	RECOG_LURE	n/a	LTP236	ltpFR	6	5	n/a	BELL	118	0	2	n/a	n/a	n/a	n/a	n/a	n/a
3572479	RECOG_RESP	n/a	LTP236	ltpFR	6	5	n/a	BELL	118	0	n/a	n/a	n/a	n/a	n/a	n/a	n/a
3573932	RECOG_CONF	n/a	LTP236	ltpFR	6	5	n/a	BELL	118	n/a	2	n/a	n/a	n/a	n/a	n/a	n/a
3576244	RECOG_TARGET	n/a	LTP236	ltpFR	6	5	1	RAZOR	1171	1	5	0	n/a	n/a	n/a	n/a	n/a
3576981	RECOG_RESP	n/a	LTP236	ltpFR	6	5	1	RAZOR	1171	1	n/a	0	n/a	n/a	n/a	n/a	n/a
3578477	RECOG_CONF	n/a	LTP236	ltpFR	6	5	1	RAZOR	1171	n/a	5	0	n/a	n/a	n/a	n/a	n/a
3580753	RECOG_TARGET	n/a	LTP236	ltpFR	6	5	-1	MECHANIC	884	1	5	-1	n/a	n/a	n/a	n/a	n/a
3581525	RECOG_RESP	n/a	LTP236	ltpFR	6	5	-1	MECHANIC	884	1	n/a	-1	n/a	n/a	n/a	n/a	n/a
3582881	RECOG_CONF	n/a	LTP236	ltpFR	6	5	-1	MECHANIC	884	n/a	5	-1	n/a	n/a	n/a	n/a	n/a
3585081	RECOG_TARGET	n/a	LTP236	ltpFR	6	5	1	PAWN	1030	1	5	0	n/a	n/a	n/a	n/a	n/a
3586101	RECOG_RESP	n/a	LTP236	ltpFR	6	5	1	PAWN	1030	1	n/a	0	n/a	n/a	n/a	n/a	n/a
3587504	RECOG_CONF	n/a	LTP236	ltpFR	6	5	1	PAWN	1030	n/a	5	0	n/a	n/a	n/a	n/a	n/a
3589673	RECOG_TARGET	n/a	LTP236	ltpFR	6	5	0	CROOK	412	1	5	0	n/a	n/a	n/a	n/a	n/a
3590338	RECOG_RESP	n/a	LTP236	ltpFR	6	5	0	CROOK	412	1	n/a	0	n/a	n/a	n/a	n/a	n/a
3591895	RECOG_CONF	n/a	LTP236	ltpFR	6	5	0	CROOK	412	n/a	5	0	n/a	n/a	n/a	n/a	n/a
3593984	RECOG_LURE	n/a	LTP236	ltpFR	6	5	n/a	BROTHER	179	0	5	n/a	n/a	n/a	n/a	n/a	n/a
3594752	RECOG_RESP	n/a	LTP236	ltpFR	6	5	n/a	BROTHER	179	0	n/a	n/a	n/a	n/a	n/a	n/a	n/a
