mstime	trial_type	stim_file	subject	experiment	session	trial	item_name	item_num	list	answer	test_x	test_y	test_z
0	SESS_START	n/a	LTP331	ltpFR2	21	n/a	n/a	n/a	n/a	n/a	0	0	0
13896	START	n/a	LTP331	ltpFR2	21	n/a	n/a	n/a	-1	n/a	n/a	n/a	n/a
13926	PROB	n/a	LTP331	ltpFR2	21	n/a	n/a	n/a	-1	23	9	9	5
15925	PROB	n/a	LTP331	ltpFR2	21	n/a	n/a	n/a	-1	20	9	2	9
17607	PROB	n/a	LTP331	ltpFR2	21	n/a	n/a	n/a	-1	12	7	2	3
19140	PROB	n/a	LTP331	ltpFR2	21	n/a	n/a	n/a	-1	14	1	6	7
20273	PROB	n/a	LTP331	ltpFR2	21	n/a	n/a	n/a	-1	15	3	9	3
21572	PROB	n/a	LTP331	ltpFR2	21	n/a	n/a	n/a	-1	14	7	4	3
23005	PROB	n/a	LTP331	ltpFR2	21	n/a	n/a	n/a	-1	19	3	8	8
24848	STOP	n/a	LTP331	ltpFR2	21	n/a	n/a	n/a	-1	n/a	n/a	n/a	n/a
55838	DISTRACTOR	n/a	LTP331	ltpFR2	21	1	n/a	n/a	n/a	n/a	0	0	0
55838	START	n/a	LTP331	ltpFR2	21	n/a	n/a	n/a	1	n/a	n/a	n/a	n/a
55854	PROB	n/a	LTP331	ltpFR2	21	n/a	n/a	n/a	1	18	6	3	9
57720	PROB	n/a	LTP331	ltpFR2	21	n/a	n/a	n/a	1	20	6	5	9
58887	PROB	n/a	LTP331	ltpFR2	21	n/a	n/a	n/a	1	10	1	6	3
60137	PROB	n/a	LTP331	ltpFR2	21	n/a	n/a	n/a	1	25	8	8	9
61768	PROB	n/a	LTP331	ltpFR2	21	n/a	n/a	n/a	1	24	9	6	9
63385	PROB	n/a	LTP331	ltpFR2	21	n/a	n/a	n/a	1	23	8	8	7
65616	PROB	n/a	LTP331	ltpFR2	21	n/a	n/a	n/a	1	20	7	6	7
67017	PROB	n/a	LTP331	ltpFR2	21	n/a	n/a	n/a	1	17	4	5	8
68848	PROB	n/a	LTP331	ltpFR2	21	n/a	n/a	n/a	1	18	6	9	3
70547	PROB	n/a	LTP331	ltpFR2	21	n/a	n/a	n/a	1	11	2	6	3
71747	PROB	n/a	LTP331	ltpFR2	21	n/a	n/a	n/a	1	20	8	9	3
73164	PROB	n/a	LTP331	ltpFR2	21	n/a	n/a	n/a	1	21	8	6	7
75429	PROB	n/a	LTP331	ltpFR2	21	n/a	n/a	n/a	1	11	2	1	8
76544	PROB	n/a	LTP331	ltpFR2	21	n/a	n/a	n/a	1	9	3	2	4
79145	STOP	n/a	LTP331	ltpFR2	21	n/a	n/a	n/a	1	n/a	n/a	n/a	n/a
80742	WORD	wordpools/wasnorm_wordpool_576.txt	LTP331	ltpFR2	21	1	OFFICE	972	n/a	n/a	0	0	0
83242	WORD	wordpools/wasnorm_wordpool_576.txt	LTP331	ltpFR2	21	1	OUTLAW	989	n/a	n/a	0	0	0
86024	WORD	wordpools/wasnorm_wordpool_576.txt	LTP331	ltpFR2	21	1	SWITCH	1422	n/a	n/a	0	0	0
88622	WORD	wordpools/wasnorm_wordpool_576.txt	LTP331	ltpFR2	21	1	LAMP	798	n/a	n/a	0	0	0
91171	WORD	wordpools/wasnorm_wordpool_576.txt	LTP331	ltpFR2	21	1	HAMPER	682	n/a	n/a	0	0	0
93802	WORD	wordpools/wasnorm_wordpool_576.txt	LTP331	ltpFR2	21	1	MAMMAL	861	n/a	n/a	0	0	0
96485	WORD	wordpools/wasnorm_wordpool_576.txt	LTP331	ltpFR2	21	1	DONKEY	484	n/a	n/a	0	0	0
99101	WORD	wordpools/wasnorm_wordpool_576.txt	LTP331	ltpFR2	21	1	WOMAN	1620	n/a	n/a	0	0	0
101916	WORD	wordpools/wasnorm_wordpool_576.txt	LTP331	ltpFR2	21	1	SHARK	1275	n/a	n/a	0	0	0
104747	WORD	wordpools/wasnorm_wordpool_576.txt	LTP331	ltpFR2	21	1	PERCH	1048	n/a	n/a	0	0	0
107463	WORD	wordpools/wasnorm_wordpool_576.txt	LTP331	ltpFR2	21	1	TURKEY	1520	n/a	n/a	0	0	0
110195	WORD	wordpools/wasnorm_wordpool_576.txt	LTP331	ltpFR2	21	1	VIRUS	1572	n/a	n/a	0	0	0
112810	WORD	wordpools/wasnorm_wordpool_576.txt	LTP331	ltpFR2	21	1	CRITIC	410	n/a	n/a	0	0	0
115509	WORD	wordpools/wasnorm_wordpool_576.txt	LTP331	ltpFR2	21	1	POSSUM	1112	n/a	n/a	0	0	0
118075	WORD	wordpools/wasnorm_wordpool_576.txt	LTP331	ltpFR2	21	1	ORCHID	982	n/a	n/a	0	0	0
120739	WORD	wordpools/wasnorm_wordpool_576.txt	LTP331	ltpFR2	21	1	HAWK	692	n/a	n/a	0	0	0
123255	WORD	wordpools/wasnorm_wordpool_576.txt	LTP331	ltpFR2	21	1	BANJO	82	n/a	n/a	0	0	0
125904	WORD	wordpools/wasnorm_wordpool_576.txt	LTP331	ltpFR2	21	1	FLOWER	584	n/a	n/a	0	0	0
128618	WORD	wordpools/wasnorm_wordpool_576.txt	LTP331	ltpFR2	21	1	BISON	131	n/a	n/a	0	0	0
131051	WORD	wordpools/wasnorm_wordpool_576.txt	LTP331	ltpFR2	21	1	BARREL	91	n/a	n/a	0	0	0
133832	WORD	wordpools/wasnorm_wordpool_576.txt	LTP331	ltpFR2	21	1	TEMPLE	1448	n/a	n/a	0	0	0
136282	WORD	wordpools/wasnorm_wordpool_576.txt	LTP331	ltpFR2	21	1	SPOOL	1356	n/a	n/a	0	0	0
138780	WORD	wordpools/wasnorm_wordpool_576.txt	LTP331	ltpFR2	21	1	YARN	1631	n/a	n/a	0	0	0
141313	WORD	wordpools/wasnorm_wordpool_576.txt	LTP331	ltpFR2	21	1	CHAPEL	280	n/a	n/a	0	0	0
142929	START	n/a	LTP331	ltpFR2	21	n/a	n/a	n/a	2	n/a	n/a	n/a	n/a
144116	DISTRACTOR	n/a	LTP331	ltpFR2	21	1	n/a	n/a	n/a	n/a	0	0	0
144128	PROB	n/a	LTP331	ltpFR2	21	n/a	n/a	n/a	2	10	1	7	2
147859	PROB	n/a	LTP331	ltpFR2	21	n/a	n/a	n/a	2	20	5	6	9
149043	PROB	n/a	LTP331	ltpFR2	21	n/a	n/a	n/a	2	14	9	2	3
150925	PROB	n/a	LTP331	ltpFR2	21	n/a	n/a	n/a	2	6	1	3	2
152690	PROB	n/a	LTP331	ltpFR2	21	n/a	n/a	n/a	2	17	8	8	1
154190	PROB	n/a	LTP331	ltpFR2	21	n/a	n/a	n/a	2	17	3	8	6
155605	PROB	n/a	LTP331	ltpFR2	21	n/a	n/a	n/a	2	19	5	9	5
156989	PROB	n/a	LTP331	ltpFR2	21	n/a	n/a	n/a	2	14	4	5	5
158105	PROB	n/a	LTP331	ltpFR2	21	n/a	n/a	n/a	2	11	9	1	1
159354	PROB	n/a	LTP331	ltpFR2	21	n/a	n/a	n/a	2	14	6	7	1
160769	PROB	n/a	LTP331	ltpFR2	21	n/a	n/a	n/a	2	8	5	2	1
162003	PROB	n/a	LTP331	ltpFR2	21	n/a	n/a	n/a	2	15	6	2	7
163319	PROB	n/a	LTP331	ltpFR2	21	n/a	n/a	n/a	2	7	4	1	2
164750	PROB	n/a	LTP331	ltpFR2	21	n/a	n/a	n/a	2	22	5	8	9
166465	STOP	n/a	LTP331	ltpFR2	21	n/a	n/a	n/a	2	n/a	n/a	n/a	n/a
168716	REC_START	n/a	LTP331	ltpFR2	21	1	n/a	n/a	n/a	n/a	0	0	0
170687	REC_WORD	wordpools/wasnorm_wordpool_576.txt	LTP331	ltpFR2	21	1	YARN	1631	n/a	n/a	0	0	0
171250	REC_WORD	wordpools/wasnorm_wordpool_576.txt	LTP331	ltpFR2	21	1	CHAPEL	280	n/a	n/a	0	0	0
174824	REC_WORD	wordpools/wasnorm_wordpool_576.txt	LTP331	ltpFR2	21	1	SPOOL	1356	n/a	n/a	0	0	0
175653	REC_WORD	wordpools/wasnorm_wordpool_576.txt	LTP331	ltpFR2	21	1	TEMPLE	1448	n/a	n/a	0	0	0
178312	REC_WORD	wordpools/wasnorm_wordpool_576.txt	LTP331	ltpFR2	21	1	BISON	131	n/a	n/a	0	0	0
179799	REC_WORD	wordpools/wasnorm_wordpool_576.txt	LTP331	ltpFR2	21	1	BARREL	91	n/a	n/a	0	0	0
183227	REC_WORD	wordpools/wasnorm_wordpool_576.txt	LTP331	ltpFR2	21	1	FLOWER	584	n/a	n/a	0	0	0
184923	REC_WORD	wordpools/wasnorm_wordpool_576.txt	LTP331	ltpFR2	21	1	ORCHID	982	n/a	n/a	0	0	0
185835	REC_WORD	wordpools/wasnorm_wordpool_576.txt	LTP331	ltpFR2	21	1	POSSUM	1112	n/a	n/a	0	0	0
187519	REC_WORD	wordpools/wasnorm_wordpool_576.txt	LTP331	ltpFR2	21	1	HAWK	692	n/a	n/a	0	0	0
196536	REC_WORD	wordpools/wasnorm_wordpool_576.txt	LTP331	ltpFR2	21	1	OFFICE	972	n/a	n/a	0	0	0
198087	REC_WORD	wordpools/wasnorm_wordpool_576.txt	LTP331	ltpFR2	21	1	CONVICT	371	n/a	n/a	0	0	0
200571	REC_WORD	wordpools/wasnorm_wordpool_576.txt	LTP331	ltpFR2	21	1	SWITCH	1422	n/a	n/a	0	0	0
201463	REC_WORD	wordpools/wasnorm_wordpool_576.txt	LTP331	ltpFR2	21	1	LAMP	798	n/a	n/a	0	0	0
204220	REC_WORD	wordpools/wasnorm_wordpool_576.txt	LTP331	ltpFR2	21	1	DONKEY	484	n/a	n/a	0	0	0
205020	REC_WORD	wordpools/wasnorm_wordpool_576.txt	LTP331	ltpFR2	21	1	WOMAN	1620	n/a	n/a	0	0	0
207605	REC_WORD	wordpools/wasnorm_wordpool_576.txt	LTP331	ltpFR2	21	1	SHARK	1275	n/a	n/a	0	0	0
208384	REC_WORD	wordpools/wasnorm_wordpool_576.txt	LTP331	ltpFR2	21	1	PERCH	1048	n/a	n/a	0	0	0
209134	REC_WORD	wordpools/wasnorm_wordpool_576.txt	LTP331	ltpFR2	21	1	TURKEY	1520	n/a	n/a	0	0	0
209691	REC_WORD	wordpools/wasnorm_wordpool_576.txt	LTP331	ltpFR2	21	1	VIRUS	1572	n/a	n/a	0	0	0
210424	REC_WORD	wordpools/wasnorm_wordpool_576.txt	LTP331	ltpFR2	21	1	CRITIC	410	n/a	n/a	0	0	0
259138	DISTRACTOR	n/a	LTP331	ltpFR2	21	2	n/a	n/a	n/a	n/a	0	0	0
259138	START	n/a	LTP331	ltpFR2	21	n/a	n/a	n/a	3	n/a	n/a	n/a	n/a
259155	PROB	n/a	LTP331	ltpFR2	21	n/a	n/a	n/a	3	14	1	8	5
261453	PROB	n/a	LTP331	ltpFR2	21	n/a	n/a	n/a	3	16	2	5	9
262969	PROB	n/a	LTP331	ltpFR2	21	n/a	n/a	n/a	3	10	3	5	2
264817	PROB	n/a	LTP331	ltpFR2	21	n/a	n/a	n/a	3	12	4	2	6
265901	PROB	n/a	LTP331	ltpFR2	21	n/a	n/a	n/a	3	11	1	3	7
267117	PROB	n/a	LTP331	ltpFR2	21	n/a	n/a	n/a	3	16	4	3	9
268417	PROB	n/a	LTP331	ltpFR2	21	n/a	n/a	n/a	3	13	4	8	1
269848	PROB	n/a	LTP331	ltpFR2	21	n/a	n/a	n/a	3	12	3	6	3
270932	PROB	n/a	LTP331	ltpFR2	21	n/a	n/a	n/a	3	12	5	1	6
272131	PROB	n/a	LTP331	ltpFR2	21	n/a	n/a	n/a	3	20	7	8	5
273497	PROB	n/a	LTP331	ltpFR2	21	n/a	n/a	n/a	3	11	3	4	4
274646	PROB	n/a	LTP331	ltpFR2	21	n/a	n/a	n/a	3	15	2	6	7
275829	PROB	n/a	LTP331	ltpFR2	21	n/a	n/a	n/a	3	7	1	2	4
276996	PROB	n/a	LTP331	ltpFR2	21	n/a	n/a	n/a	3	24	7	9	8
278428	PROB	n/a	LTP331	ltpFR2	21	n/a	n/a	n/a	3	15	3	8	4
279994	PROB	n/a	LTP331	ltpFR2	21	n/a	n/a	n/a	3	12	7	3	2
281127	PROB	n/a	LTP331	ltpFR2	21	n/a	n/a	n/a	3	11	2	5	4
282097	STOP	n/a	LTP331	ltpFR2	21	n/a	n/a	n/a	3	n/a	n/a	n/a	n/a
284242	WORD	wordpools/wasnorm_wordpool_576.txt	LTP331	ltpFR2	21	2	ACTRESS	6	n/a	n/a	0	0	0
286707	WORD	wordpools/wasnorm_wordpool_576.txt	LTP331	ltpFR2	21	2	PARSLEY	1016	n/a	n/a	0	0	0
289523	WORD	wordpools/wasnorm_wordpool_576.txt	LTP331	ltpFR2	21	2	LAKE	796	n/a	n/a	0	0	0
292021	WORD	wordpools/wasnorm_wordpool_576.txt	LTP331	ltpFR2	21	2	CRUTCH	417	n/a	n/a	0	0	0
294769	WORD	wordpools/wasnorm_wordpool_576.txt	LTP331	ltpFR2	21	2	DUSTPAN	509	n/a	n/a	0	0	0
297485	WORD	wordpools/wasnorm_wordpool_576.txt	LTP331	ltpFR2	21	2	RIVER	1194	n/a	n/a	0	0	0
300068	WORD	wordpools/wasnorm_wordpool_576.txt	LTP331	ltpFR2	21	2	FOOT	590	n/a	n/a	0	0	0
302749	WORD	wordpools/wasnorm_wordpool_576.txt	LTP331	ltpFR2	21	2	BRACES	164	n/a	n/a	0	0	0
305332	WORD	wordpools/wasnorm_wordpool_576.txt	LTP331	ltpFR2	21	2	OUTFIT	988	n/a	n/a	0	0	0
307964	WORD	wordpools/wasnorm_wordpool_576.txt	LTP331	ltpFR2	21	2	MARINE	869	n/a	n/a	0	0	0
310578	WORD	wordpools/wasnorm_wordpool_576.txt	LTP331	ltpFR2	21	2	BOARD	143	n/a	n/a	0	0	0
313211	WORD	wordpools/wasnorm_wordpool_576.txt	LTP331	ltpFR2	21	2	PUPIL	1143	n/a	n/a	0	0	0
316010	WORD	wordpools/wasnorm_wordpool_576.txt	LTP331	ltpFR2	21	2	STUDENT	1395	n/a	n/a	0	0	0
318707	WORD	wordpools/wasnorm_wordpool_576.txt	LTP331	ltpFR2	21	2	TORTOISE	1486	n/a	n/a	0	0	0
321240	WORD	wordpools/wasnorm_wordpool_576.txt	LTP331	ltpFR2	21	2	CLAM	315	n/a	n/a	0	0	0
323871	WORD	wordpools/wasnorm_wordpool_576.txt	LTP331	ltpFR2	21	2	FRUIT	610	n/a	n/a	0	0	0
326703	WORD	wordpools/wasnorm_wordpool_576.txt	LTP331	ltpFR2	21	2	SALT	1229	n/a	n/a	0	0	0
329552	WORD	wordpools/wasnorm_wordpool_576.txt	LTP331	ltpFR2	21	2	DAUGHTER	442	n/a	n/a	0	0	0
332268	WORD	wordpools/wasnorm_wordpool_576.txt	LTP331	ltpFR2	21	2	HEADBAND	696	n/a	n/a	0	0	0
335067	WORD	wordpools/wasnorm_wordpool_576.txt	LTP331	ltpFR2	21	2	DANDRUFF	439	n/a	n/a	0	0	0
337499	WORD	wordpools/wasnorm_wordpool_576.txt	LTP331	ltpFR2	21	2	MEDAL	885	n/a	n/a	0	0	0
340014	WORD	wordpools/wasnorm_wordpool_576.txt	LTP331	ltpFR2	21	2	ACTOR	5	n/a	n/a	0	0	0
342729	WORD	wordpools/wasnorm_wordpool_576.txt	LTP331	ltpFR2	21	2	WASHER	1592	n/a	n/a	0	0	0
345178	WORD	wordpools/wasnorm_wordpool_576.txt	LTP331	ltpFR2	21	2	COOK	372	n/a	n/a	0	0	0
346794	START	n/a	LTP331	ltpFR2	21	n/a	n/a	n/a	4	n/a	n/a	n/a	n/a
347716	DISTRACTOR	n/a	LTP331	ltpFR2	21	2	n/a	n/a	n/a	n/a	0	0	0
347726	PROB	n/a	LTP331	ltpFR2	21	n/a	n/a	n/a	4	14	2	6	6
349875	PROB	n/a	LTP331	ltpFR2	21	n/a	n/a	n/a	4	14	7	5	2
351992	PROB	n/a	LTP331	ltpFR2	21	n/a	n/a	n/a	4	10	2	2	6
353557	PROB	n/a	LTP331	ltpFR2	21	n/a	n/a	n/a	4	23	8	9	6
354907	PROB	n/a	LTP331	ltpFR2	21	n/a	n/a	n/a	4	17	5	6	6
356406	PROB	n/a	LTP331	ltpFR2	21	n/a	n/a	n/a	4	13	6	1	6
357721	PROB	n/a	LTP331	ltpFR2	21	n/a	n/a	n/a	4	19	7	7	5
359288	PROB	n/a	LTP331	ltpFR2	21	n/a	n/a	n/a	4	14	4	1	9
360504	PROB	n/a	LTP331	ltpFR2	21	n/a	n/a	n/a	4	8	3	1	4
361719	PROB	n/a	LTP331	ltpFR2	21	n/a	n/a	n/a	4	20	9	8	3
363003	PROB	n/a	LTP331	ltpFR2	21	n/a	n/a	n/a	4	13	1	4	8
364152	PROB	n/a	LTP331	ltpFR2	21	n/a	n/a	n/a	4	14	3	7	4
365202	PROB	n/a	LTP331	ltpFR2	21	n/a	n/a	n/a	4	14	6	5	3
366850	PROB	n/a	LTP331	ltpFR2	21	n/a	n/a	n/a	4	18	5	9	4
368234	PROB	n/a	LTP331	ltpFR2	21	n/a	n/a	n/a	4	11	7	3	1
370794	STOP	n/a	LTP331	ltpFR2	21	n/a	n/a	n/a	4	n/a	n/a	n/a	n/a
372614	REC_START	n/a	LTP331	ltpFR2	21	2	n/a	n/a	n/a	n/a	0	0	0
376014	REC_WORD	wordpools/wasnorm_wordpool_576.txt	LTP331	ltpFR2	21	2	WASHER	1592	n/a	n/a	0	0	0
377287	REC_WORD	wordpools/wasnorm_wordpool_576.txt	LTP331	ltpFR2	21	2	COOK	372	n/a	n/a	0	0	0
383673	REC_WORD	wordpools/wasnorm_wordpool_576.txt	LTP331	ltpFR2	21	2	PARSLEY	1016	n/a	n/a	0	0	0
386198	REC_WORD	wordpools/wasnorm_wordpool_576.txt	LTP331	ltpFR2	21	2	ACTRESS	6	n/a	n/a	0	0	0
386942	REC_WORD	wordpools/wasnorm_wordpool_576.txt	LTP331	ltpFR2	21	2	BRACES	164	n/a	n/a	0	0	0
387912	REC_WORD	wordpools/wasnorm_wordpool_576.txt	LTP331	ltpFR2	21	2	OUTFIT	988	n/a	n/a	0	0	0
390320	REC_WORD	wordpools/wasnorm_wordpool_576.txt	LTP331	ltpFR2	21	2	DUSTPAN	509	n/a	n/a	0	0	0
392114	REC_WORD	wordpools/wasnorm_wordpool_576.txt	LTP331	ltpFR2	21	2	CRUTCH	417	n/a	n/a	0	0	0
394212	REC_WORD	wordpools/wasnorm_wordpool_576.txt	LTP331	ltpFR2	21	2	LAKE	796	n/a	n/a	0	0	0
396910	REC_WORD	wordpools/wasnorm_wordpool_576.txt	LTP331	ltpFR2	21	2	RIVER	1194	n/a	n/a	0	0	0
397446	REC_WORD	wordpools/wasnorm_wordpool_576.txt	LTP331	ltpFR2	21	2	FOOT	590	n/a	n/a	0	0	0
403556	REC_WORD	wordpools/wasnorm_wordpool_576.txt	LTP331	ltpFR2	21	2	MARINE	869	n/a	n/a	0	0	0
404471	REC_WORD	wordpools/wasnorm_wordpool_576.txt	LTP331	ltpFR2	21	2	BOARD	143	n/a	n/a	0	0	0
410778	REC_WORD	wordpools/wasnorm_wordpool_576.txt	LTP331	ltpFR2	21	2	STUDENT	1395	n/a	n/a	0	0	0
411690	REC_WORD	wordpools/wasnorm_wordpool_576.txt	LTP331	ltpFR2	21	2	PUPIL	1143	n/a	n/a	0	0	0
420863	REC_WORD	wordpools/wasnorm_wordpool_576.txt	LTP331	ltpFR2	21	2	TORTOISE	1486	n/a	n/a	0	0	0
421887	REC_WORD	wordpools/wasnorm_wordpool_576.txt	LTP331	ltpFR2	21	2	CLAM	315	n/a	n/a	0	0	0
424009	REC_WORD	wordpools/wasnorm_wordpool_576.txt	LTP331	ltpFR2	21	2	FRUIT	610	n/a	n/a	0	0	0
424846	REC_WORD	wordpools/wasnorm_wordpool_576.txt	LTP331	ltpFR2	21	2	SALT	1229	n/a	n/a	0	0	0
425706	REC_WORD	wordpools/wasnorm_wordpool_576.txt	LTP331	ltpFR2	21	2	DAUGHTER	442	n/a	n/a	0	0	0
426325	REC_WORD	wordpools/wasnorm_wordpool_576.txt	LTP331	ltpFR2	21	2	HEADBAND	696	n/a	n/a	0	0	0
430045	REC_WORD	wordpools/wasnorm_wordpool_576.txt	LTP331	ltpFR2	21	2	ACTOR	5	n/a	n/a	0	0	0
430314	REC_WORD	wordpools/wasnorm_wordpool_576.txt	LTP331	ltpFR2	21	2	MEDAL	885	n/a	n/a	0	0	0
431250	REC_WORD	wordpools/wasnorm_wordpool_576.txt	LTP331	ltpFR2	21	2	DANDRUFF	439	n/a	n/a	0	0	0
463070	DISTRACTOR	n/a	LTP331	ltpFR2	21	3	n/a	n/a	n/a	n/a	0	0	0
463070	START	n/a	LTP331	ltpFR2	21	n/a	n/a	n/a	5	n/a	n/a	n/a	n/a
463087	PROB	n/a	LTP331	ltpFR2	21	n/a	n/a	n/a	5	16	8	3	5
464936	PROB	n/a	LTP331	ltpFR2	21	n/a	n/a	n/a	5	24	9	6	9
466485	PROB	n/a	LTP331	ltpFR2	21	n/a	n/a	n/a	5	25	9	8	8
468251	PROB	n/a	LTP331	ltpFR2	21	n/a	n/a	n/a	5	16	7	4	5
469582	PROB	n/a	LTP331	ltpFR2	21	n/a	n/a	n/a	5	18	9	6	3
471631	PROB	n/a	LTP331	ltpFR2	21	n/a	n/a	n/a	5	19	8	2	9
472898	PROB	n/a	LTP331	ltpFR2	21	n/a	n/a	n/a	5	6	1	4	1
474114	PROB	n/a	LTP331	ltpFR2	21	n/a	n/a	n/a	5	6	2	2	2
475114	PROB	n/a	LTP331	ltpFR2	21	n/a	n/a	n/a	5	15	5	7	3
476629	PROB	n/a	LTP331	ltpFR2	21	n/a	n/a	n/a	5	9	4	4	1
477745	PROB	n/a	LTP331	ltpFR2	21	n/a	n/a	n/a	5	11	3	1	7
478995	PROB	n/a	LTP331	ltpFR2	21	n/a	n/a	n/a	5	4	1	1	2
480061	PROB	n/a	LTP331	ltpFR2	21	n/a	n/a	n/a	5	16	1	6	9
481477	PROB	n/a	LTP331	ltpFR2	21	n/a	n/a	n/a	5	24	8	7	9
482876	PROB	n/a	LTP331	ltpFR2	21	n/a	n/a	n/a	5	14	3	5	6
484691	PROB	n/a	LTP331	ltpFR2	21	n/a	n/a	n/a	5	15	9	2	4
486273	STOP	n/a	LTP331	ltpFR2	21	n/a	n/a	n/a	5	n/a	n/a	n/a	n/a
487908	WORD	wordpools/wasnorm_wordpool_576.txt	LTP331	ltpFR2	21	3	OMELET	976	n/a	n/a	0	0	0
490738	WORD	wordpools/wasnorm_wordpool_576.txt	LTP331	ltpFR2	21	3	RELISH	1183	n/a	n/a	0	0	0
493505	WORD	wordpools/wasnorm_wordpool_576.txt	LTP331	ltpFR2	21	3	DINER	467	n/a	n/a	0	0	0
496087	WORD	wordpools/wasnorm_wordpool_576.txt	LTP331	ltpFR2	21	3	SEAFOOD	1260	n/a	n/a	0	0	0
498718	WORD	wordpools/wasnorm_wordpool_576.txt	LTP331	ltpFR2	21	3	CRAB	397	n/a	n/a	0	0	0
501484	WORD	wordpools/wasnorm_wordpool_576.txt	LTP331	ltpFR2	21	3	BOYFRIEND	162	n/a	n/a	0	0	0
504016	WORD	wordpools/wasnorm_wordpool_576.txt	LTP331	ltpFR2	21	3	BUBBLE	183	n/a	n/a	0	0	0
506814	WORD	wordpools/wasnorm_wordpool_576.txt	LTP331	ltpFR2	21	3	SALAD	1224	n/a	n/a	0	0	0
509330	WORD	wordpools/wasnorm_wordpool_576.txt	LTP331	ltpFR2	21	3	PORTRAIT	1111	n/a	n/a	0	0	0
511879	WORD	wordpools/wasnorm_wordpool_576.txt	LTP331	ltpFR2	21	3	SKETCH	1315	n/a	n/a	0	0	0
514577	WORD	wordpools/wasnorm_wordpool_576.txt	LTP331	ltpFR2	21	3	HOOD	714	n/a	n/a	0	0	0
517343	WORD	wordpools/wasnorm_wordpool_576.txt	LTP331	ltpFR2	21	3	PARTNER	1017	n/a	n/a	0	0	0
519857	WORD	wordpools/wasnorm_wordpool_576.txt	LTP331	ltpFR2	21	3	RACKET	1155	n/a	n/a	0	0	0
522424	WORD	wordpools/wasnorm_wordpool_576.txt	LTP331	ltpFR2	21	3	PAPER	1011	n/a	n/a	0	0	0
525072	WORD	wordpools/wasnorm_wordpool_576.txt	LTP331	ltpFR2	21	3	SPARROW	1347	n/a	n/a	0	0	0
527870	WORD	wordpools/wasnorm_wordpool_576.txt	LTP331	ltpFR2	21	3	TUNNEL	1519	n/a	n/a	0	0	0
530320	WORD	wordpools/wasnorm_wordpool_576.txt	LTP331	ltpFR2	21	3	RABBIT	1152	n/a	n/a	0	0	0
532751	WORD	wordpools/wasnorm_wordpool_576.txt	LTP331	ltpFR2	21	3	ICEBERG	731	n/a	n/a	0	0	0
535334	WORD	wordpools/wasnorm_wordpool_576.txt	LTP331	ltpFR2	21	3	EYELASH	546	n/a	n/a	0	0	0
537966	WORD	wordpools/wasnorm_wordpool_576.txt	LTP331	ltpFR2	21	3	EUROPE	541	n/a	n/a	0	0	0
540730	WORD	wordpools/wasnorm_wordpool_576.txt	LTP331	ltpFR2	21	3	REPORT	1184	n/a	n/a	0	0	0
543197	WORD	wordpools/wasnorm_wordpool_576.txt	LTP331	ltpFR2	21	3	UNCLE	1536	n/a	n/a	0	0	0
545645	WORD	wordpools/wasnorm_wordpool_576.txt	LTP331	ltpFR2	21	3	HELMET	702	n/a	n/a	0	0	0
548311	WORD	wordpools/wasnorm_wordpool_576.txt	LTP331	ltpFR2	21	3	TABLE	1426	n/a	n/a	0	0	0
549927	START	n/a	LTP331	ltpFR2	21	n/a	n/a	n/a	6	n/a	n/a	n/a	n/a
550869	DISTRACTOR	n/a	LTP331	ltpFR2	21	3	n/a	n/a	n/a	n/a	0	0	0
550875	PROB	n/a	LTP331	ltpFR2	21	n/a	n/a	n/a	6	8	1	4	3
552442	PROB	n/a	LTP331	ltpFR2	21	n/a	n/a	n/a	6	12	4	6	2
554025	PROB	n/a	LTP331	ltpFR2	21	n/a	n/a	n/a	6	5	1	1	3
555374	PROB	n/a	LTP331	ltpFR2	21	n/a	n/a	n/a	6	17	3	5	9
556973	PROB	n/a	LTP331	ltpFR2	21	n/a	n/a	n/a	6	19	4	9	6
558922	PROB	n/a	LTP331	ltpFR2	21	n/a	n/a	n/a	6	12	1	4	7
560522	PROB	n/a	LTP331	ltpFR2	21	n/a	n/a	n/a	6	20	7	6	7
561820	PROB	n/a	LTP331	ltpFR2	21	n/a	n/a	n/a	6	12	2	9	1
563187	PROB	n/a	LTP331	ltpFR2	21	n/a	n/a	n/a	6	19	9	9	1
564503	PROB	n/a	LTP331	ltpFR2	21	n/a	n/a	n/a	6	14	6	6	2
565768	PROB	n/a	LTP331	ltpFR2	21	n/a	n/a	n/a	6	18	8	9	1
567135	PROB	n/a	LTP331	ltpFR2	21	n/a	n/a	n/a	6	23	8	8	7
568351	PROB	n/a	LTP331	ltpFR2	21	n/a	n/a	n/a	6	15	6	1	8
569517	PROB	n/a	LTP331	ltpFR2	21	n/a	n/a	n/a	6	12	6	5	1
572132	PROB	n/a	LTP331	ltpFR2	21	n/a	n/a	n/a	6	1	7	3	7
573257	STOP	n/a	LTP331	ltpFR2	21	n/a	n/a	n/a	6	n/a	n/a	n/a	n/a
575847	REC_START	n/a	LTP331	ltpFR2	21	3	n/a	n/a	n/a	n/a	0	0	0
578676	REC_WORD	wordpools/wasnorm_wordpool_576.txt	LTP331	ltpFR2	21	3	UNCLE	1536	n/a	n/a	0	0	0
579194	REC_WORD	wordpools/wasnorm_wordpool_576.txt	LTP331	ltpFR2	21	3	HELMET	702	n/a	n/a	0	0	0
579698	REC_WORD	wordpools/wasnorm_wordpool_576.txt	LTP331	ltpFR2	21	3	REPORT	1184	n/a	n/a	0	0	0
580915	REC_WORD_VV	wordpools/wasnorm_wordpool_576.txt	LTP331	ltpFR2	21	3	<>	-1	n/a	n/a	0	0	0
581548	REC_WORD	wordpools/wasnorm_wordpool_576.txt	LTP331	ltpFR2	21	3	ICEBERG	731	n/a	n/a	0	0	0
582186	REC_WORD	wordpools/wasnorm_wordpool_576.txt	LTP331	ltpFR2	21	3	EYELASH	546	n/a	n/a	0	0	0
582802	REC_WORD	wordpools/wasnorm_wordpool_576.txt	LTP331	ltpFR2	21	3	EUROPE	541	n/a	n/a	0	0	0
585557	REC_WORD	wordpools/wasnorm_wordpool_576.txt	LTP331	ltpFR2	21	3	RABBIT	1152	n/a	n/a	0	0	0
586109	REC_WORD	wordpools/wasnorm_wordpool_576.txt	LTP331	ltpFR2	21	3	TUNNEL	1519	n/a	n/a	0	0	0
587199	REC_WORD	wordpools/wasnorm_wordpool_576.txt	LTP331	ltpFR2	21	3	OMELET	976	n/a	n/a	0	0	0
587685	REC_WORD	wordpools/wasnorm_wordpool_576.txt	LTP331	ltpFR2	21	3	RELISH	1183	n/a	n/a	0	0	0
591661	REC_WORD	wordpools/wasnorm_wordpool_576.txt	LTP331	ltpFR2	21	3	DINER	467	n/a	n/a	0	0	0
593053	REC_WORD	wordpools/wasnorm_wordpool_576.txt	LTP331	ltpFR2	21	3	SEAFOOD	1260	n/a	n/a	0	0	0
594205	REC_WORD	wordpools/wasnorm_wordpool_576.txt	LTP331	ltpFR2	21	3	CRAB	397	n/a	n/a	0	0	0
596774	REC_WORD	wordpools/wasnorm_wordpool_576.txt	LTP331	ltpFR2	21	3	BOYFRIEND	162	n/a	n/a	0	0	0
598851	REC_WORD	wordpools/wasnorm_wordpool_576.txt	LTP331	ltpFR2	21	3	BUBBLE	183	n/a	n/a	0	0	0
600904	REC_WORD	wordpools/wasnorm_wordpool_576.txt	LTP331	ltpFR2	21	3	SALAD	1224	n/a	n/a	0	0	0
601836	REC_WORD	wordpools/wasnorm_wordpool_576.txt	LTP331	ltpFR2	21	3	PORTRAIT	1111	n/a	n/a	0	0	0
602478	REC_WORD	wordpools/wasnorm_wordpool_576.txt	LTP331	ltpFR2	21	3	SKETCH	1315	n/a	n/a	0	0	0
604320	REC_WORD	wordpools/wasnorm_wordpool_576.txt	LTP331	ltpFR2	21	3	PARTNER	1017	n/a	n/a	0	0	0
606275	REC_WORD	wordpools/wasnorm_wordpool_576.txt	LTP331	ltpFR2	21	3	RACKET	1155	n/a	n/a	0	0	0
607813	REC_WORD	wordpools/wasnorm_wordpool_576.txt	LTP331	ltpFR2	21	3	PAPER	1011	n/a	n/a	0	0	0
609856	REC_WORD	wordpools/wasnorm_wordpool_576.txt	LTP331	ltpFR2	21	3	SPARROW	1347	n/a	n/a	0	0	0
618711	REC_WORD	wordpools/wasnorm_wordpool_576.txt	LTP331	ltpFR2	21	3	RABBIT	1152	n/a	n/a	0	0	0
619171	REC_WORD	wordpools/wasnorm_wordpool_576.txt	LTP331	ltpFR2	21	3	TUNNEL	1519	n/a	n/a	0	0	0
666319	WORD	wordpools/wasnorm_wordpool_576.txt	LTP331	ltpFR2	21	4	FLIPPER	580	n/a	n/a	0	0	0
669117	WORD	wordpools/wasnorm_wordpool_576.txt	LTP331	ltpFR2	21	4	JEANS	752	n/a	n/a	0	0	0
671883	WORD	wordpools/wasnorm_wordpool_576.txt	LTP331	ltpFR2	21	4	HOSTESS	723	n/a	n/a	0	0	0
674614	WORD	wordpools/wasnorm_wordpool_576.txt	LTP331	ltpFR2	21	4	MONSTER	912	n/a	n/a	0	0	0
677263	WORD	wordpools/wasnorm_wordpool_576.txt	LTP331	ltpFR2	21	4	SPOON	1357	n/a	n/a	0	0	0
679811	WORD	wordpools/wasnorm_wordpool_576.txt	LTP331	ltpFR2	21	4	KNIFE	785	n/a	n/a	0	0	0
682494	WORD	wordpools/wasnorm_wordpool_576.txt	LTP331	ltpFR2	21	4	OX	994	n/a	n/a	0	0	0
685176	WORD	wordpools/wasnorm_wordpool_576.txt	LTP331	ltpFR2	21	4	PLAID	1080	n/a	n/a	0	0	0
687925	WORD	wordpools/wasnorm_wordpool_576.txt	LTP331	ltpFR2	21	4	BANQUET	86	n/a	n/a	0	0	0
690656	WORD	wordpools/wasnorm_wordpool_576.txt	LTP331	ltpFR2	21	4	WITNESS	1618	n/a	n/a	0	0	0
693156	WORD	wordpools/wasnorm_wordpool_576.txt	LTP331	ltpFR2	21	4	SEAGULL	1261	n/a	n/a	0	0	0
695687	WORD	wordpools/wasnorm_wordpool_576.txt	LTP331	ltpFR2	21	4	WIDOW	1608	n/a	n/a	0	0	0
698520	WORD	wordpools/wasnorm_wordpool_576.txt	LTP331	ltpFR2	21	4	STREAM	1392	n/a	n/a	0	0	0
701285	WORD	wordpools/wasnorm_wordpool_576.txt	LTP331	ltpFR2	21	4	STOVE	1388	n/a	n/a	0	0	0
703849	WORD	wordpools/wasnorm_wordpool_576.txt	LTP331	ltpFR2	21	4	LADY	794	n/a	n/a	0	0	0
706665	WORD	wordpools/wasnorm_wordpool_576.txt	LTP331	ltpFR2	21	4	TROUT	1511	n/a	n/a	0	0	0
709314	WORD	wordpools/wasnorm_wordpool_576.txt	LTP331	ltpFR2	21	4	WRENCH	1625	n/a	n/a	0	0	0
711795	WORD	wordpools/wasnorm_wordpool_576.txt	LTP331	ltpFR2	21	4	CHILD	299	n/a	n/a	0	0	0
714528	WORD	wordpools/wasnorm_wordpool_576.txt	LTP331	ltpFR2	21	4	ASIA	46	n/a	n/a	0	0	0
717160	WORD	wordpools/wasnorm_wordpool_576.txt	LTP331	ltpFR2	21	4	PLASTER	1085	n/a	n/a	0	0	0
719708	WORD	wordpools/wasnorm_wordpool_576.txt	LTP331	ltpFR2	21	4	LUNCH	849	n/a	n/a	0	0	0
722174	WORD	wordpools/wasnorm_wordpool_576.txt	LTP331	ltpFR2	21	4	PAIL	1002	n/a	n/a	0	0	0
724722	WORD	wordpools/wasnorm_wordpool_576.txt	LTP331	ltpFR2	21	4	OZONE	996	n/a	n/a	0	0	0
727172	WORD	wordpools/wasnorm_wordpool_576.txt	LTP331	ltpFR2	21	4	BALLOON	75	n/a	n/a	0	0	0
728787	START	n/a	LTP331	ltpFR2	21	n/a	n/a	n/a	7	n/a	n/a	n/a	n/a
729876	DISTRACTOR	n/a	LTP331	ltpFR2	21	4	n/a	n/a	n/a	n/a	0	0	0
729887	PROB	n/a	LTP331	ltpFR2	21	n/a	n/a	n/a	7	16	1	7	8
731602	PROB	n/a	LTP331	ltpFR2	21	n/a	n/a	n/a	7	14	4	1	9
732785	PROB	n/a	LTP331	ltpFR2	21	n/a	n/a	n/a	7	24	9	8	7
734002	PROB	n/a	LTP331	ltpFR2	21	n/a	n/a	n/a	7	17	7	5	5
735550	PROB	n/a	LTP331	ltpFR2	21	n/a	n/a	n/a	7	13	2	3	8
736783	PROB	n/a	LTP331	ltpFR2	21	n/a	n/a	n/a	7	9	2	1	6
738699	PROB	n/a	LTP331	ltpFR2	21	n/a	n/a	n/a	7	22	9	9	4
739982	PROB	n/a	LTP331	ltpFR2	21	n/a	n/a	n/a	7	12	3	2	7
741082	PROB	n/a	LTP331	ltpFR2	21	n/a	n/a	n/a	7	13	4	1	8
742398	PROB	n/a	LTP331	ltpFR2	21	n/a	n/a	n/a	7	20	4	8	8
744746	PROB	n/a	LTP331	ltpFR2	21	n/a	n/a	n/a	7	11	5	2	4
745879	PROB	n/a	LTP331	ltpFR2	21	n/a	n/a	n/a	7	24	7	8	9
747112	PROB	n/a	LTP331	ltpFR2	21	n/a	n/a	n/a	7	20	5	8	7
749344	PROB	n/a	LTP331	ltpFR2	21	n/a	n/a	n/a	7	22	8	9	5
752787	STOP	n/a	LTP331	ltpFR2	21	n/a	n/a	n/a	7	n/a	n/a	n/a	n/a
754725	REC_START	n/a	LTP331	ltpFR2	21	4	n/a	n/a	n/a	n/a	0	0	0
758522	REC_WORD_VV	wordpools/wasnorm_wordpool_576.txt	LTP331	ltpFR2	21	4	<>	-1	n/a	n/a	0	0	0
763703	REC_WORD	wordpools/wasnorm_wordpool_576.txt	LTP331	ltpFR2	21	4	FLIPPER	580	n/a	n/a	0	0	0
764891	REC_WORD	wordpools/wasnorm_wordpool_576.txt	LTP331	ltpFR2	21	4	JEANS	752	n/a	n/a	0	0	0
765641	REC_WORD	wordpools/wasnorm_wordpool_576.txt	LTP331	ltpFR2	21	4	HOSTESS	723	n/a	n/a	0	0	0
771474	REC_WORD	wordpools/wasnorm_wordpool_576.txt	LTP331	ltpFR2	21	4	MONSTER	912	n/a	n/a	0	0	0
772042	REC_WORD	wordpools/wasnorm_wordpool_576.txt	LTP331	ltpFR2	21	4	SPOON	1357	n/a	n/a	0	0	0
773659	REC_WORD	wordpools/wasnorm_wordpool_576.txt	LTP331	ltpFR2	21	4	KNIFE	785	n/a	n/a	0	0	0
774306	REC_WORD	wordpools/wasnorm_wordpool_576.txt	LTP331	ltpFR2	21	4	OX	994	n/a	n/a	0	0	0
776101	REC_WORD	wordpools/wasnorm_wordpool_576.txt	LTP331	ltpFR2	21	4	PLAID	1080	n/a	n/a	0	0	0
777051	REC_WORD	wordpools/wasnorm_wordpool_576.txt	LTP331	ltpFR2	21	4	BANQUET	86	n/a	n/a	0	0	0
779705	REC_WORD	wordpools/wasnorm_wordpool_576.txt	LTP331	ltpFR2	21	4	WITNESS	1618	n/a	n/a	0	0	0
780471	REC_WORD	wordpools/wasnorm_wordpool_576.txt	LTP331	ltpFR2	21	4	SEAGULL	1261	n/a	n/a	0	0	0
781324	REC_WORD	wordpools/wasnorm_wordpool_576.txt	LTP331	ltpFR2	21	4	WIDOW	1608	n/a	n/a	0	0	0
787062	REC_WORD	wordpools/wasnorm_wordpool_576.txt	LTP331	ltpFR2	21	4	OVEN	991	n/a	n/a	0	0	0
787775	REC_WORD	wordpools/wasnorm_wordpool_576.txt	LTP331	ltpFR2	21	4	LADY	794	n/a	n/a	0	0	0
788545	REC_WORD	wordpools/wasnorm_wordpool_576.txt	LTP331	ltpFR2	21	4	TROUT	1511	n/a	n/a	0	0	0
797807	REC_WORD	wordpools/wasnorm_wordpool_576.txt	LTP331	ltpFR2	21	4	CHILD	299	n/a	n/a	0	0	0
798938	REC_WORD	wordpools/wasnorm_wordpool_576.txt	LTP331	ltpFR2	21	4	ASIA	46	n/a	n/a	0	0	0
806633	REC_WORD	wordpools/wasnorm_wordpool_576.txt	LTP331	ltpFR2	21	4	PLASTER	1085	n/a	n/a	0	0	0
807622	REC_WORD	wordpools/wasnorm_wordpool_576.txt	LTP331	ltpFR2	21	4	PAIL	1002	n/a	n/a	0	0	0
809824	REC_WORD	wordpools/wasnorm_wordpool_576.txt	LTP331	ltpFR2	21	4	LUNCH	849	n/a	n/a	0	0	0
811326	REC_WORD	wordpools/wasnorm_wordpool_576.txt	LTP331	ltpFR2	21	4	BALLOON	75	n/a	n/a	0	0	0
812220	REC_WORD	wordpools/wasnorm_wordpool_576.txt	LTP331	ltpFR2	21	4	OZONE	996	n/a	n/a	0	0	0
845197	WORD	wordpools/wasnorm_wordpool_576.txt	LTP331	ltpFR2	21	5	TAXI	1438	n/a	n/a	0	0	0
847728	WORD	wordpools/wasnorm_wordpool_576.txt	LTP331	ltpFR2	21	5	CARRIAGE	248	n/a	n/a	0	0	0
850294	WORD	wordpools/wasnorm_wordpool_576.txt	LTP331	ltpFR2	21	5	CRIB	407	n/a	n/a	0	0	0
852775	WORD	wordpools/wasnorm_wordpool_576.txt	LTP331	ltpFR2	21	5	FOX	598	n/a	n/a	0	0	0
855342	WORD	wordpools/wasnorm_wordpool_576.txt	LTP331	ltpFR2	21	5	GROUND	666	n/a	n/a	0	0	0
857806	WORD	wordpools/wasnorm_wordpool_576.txt	LTP331	ltpFR2	21	5	CLAMP	316	n/a	n/a	0	0	0
860239	WORD	wordpools/wasnorm_wordpool_576.txt	LTP331	ltpFR2	21	5	GHETTO	633	n/a	n/a	0	0	0
862971	WORD	wordpools/wasnorm_wordpool_576.txt	LTP331	ltpFR2	21	5	LIZARD	834	n/a	n/a	0	0	0
865470	WORD	wordpools/wasnorm_wordpool_576.txt	LTP331	ltpFR2	21	5	PISTOL	1075	n/a	n/a	0	0	0
868102	WORD	wordpools/wasnorm_wordpool_576.txt	LTP331	ltpFR2	21	5	MISSILE	900	n/a	n/a	0	0	0
870866	WORD	wordpools/wasnorm_wordpool_576.txt	LTP331	ltpFR2	21	5	GALLON	618	n/a	n/a	0	0	0
873433	WORD	wordpools/wasnorm_wordpool_576.txt	LTP331	ltpFR2	21	5	PARROT	1015	n/a	n/a	0	0	0
876215	WORD	wordpools/wasnorm_wordpool_576.txt	LTP331	ltpFR2	21	5	GREASE	660	n/a	n/a	0	0	0
878913	WORD	wordpools/wasnorm_wordpool_576.txt	LTP331	ltpFR2	21	5	FRANCE	601	n/a	n/a	0	0	0
881611	WORD	wordpools/wasnorm_wordpool_576.txt	LTP331	ltpFR2	21	5	BUGGY	188	n/a	n/a	0	0	0
884077	WORD	wordpools/wasnorm_wordpool_576.txt	LTP331	ltpFR2	21	5	BRAKE	166	n/a	n/a	0	0	0
886893	WORD	wordpools/wasnorm_wordpool_576.txt	LTP331	ltpFR2	21	5	SPACE	1345	n/a	n/a	0	0	0
889475	WORD	wordpools/wasnorm_wordpool_576.txt	LTP331	ltpFR2	21	5	WASP	1593	n/a	n/a	0	0	0
891990	WORD	wordpools/wasnorm_wordpool_576.txt	LTP331	ltpFR2	21	5	HORNET	718	n/a	n/a	0	0	0
894721	WORD	wordpools/wasnorm_wordpool_576.txt	LTP331	ltpFR2	21	5	BLACKBOARD	133	n/a	n/a	0	0	0
897421	WORD	wordpools/wasnorm_wordpool_576.txt	LTP331	ltpFR2	21	5	CROSS	413	n/a	n/a	0	0	0
899869	WORD	wordpools/wasnorm_wordpool_576.txt	LTP331	ltpFR2	21	5	COTTAGE	384	n/a	n/a	0	0	0
902335	WORD	wordpools/wasnorm_wordpool_576.txt	LTP331	ltpFR2	21	5	ROCKET	1202	n/a	n/a	0	0	0
904884	WORD	wordpools/wasnorm_wordpool_576.txt	LTP331	ltpFR2	21	5	SERVANT	1271	n/a	n/a	0	0	0
906500	START	n/a	LTP331	ltpFR2	21	n/a	n/a	n/a	8	n/a	n/a	n/a	n/a
907600	DISTRACTOR	n/a	LTP331	ltpFR2	21	5	n/a	n/a	n/a	n/a	0	0	0
907615	PROB	n/a	LTP331	ltpFR2	21	n/a	n/a	n/a	8	5	1	3	1
909448	PROB	n/a	LTP331	ltpFR2	21	n/a	n/a	n/a	8	17	6	5	6
910863	PROB	n/a	LTP331	ltpFR2	21	n/a	n/a	n/a	8	11	9	1	1
911779	PROB	n/a	LTP331	ltpFR2	21	n/a	n/a	n/a	8	15	2	7	6
912913	PROB	n/a	LTP331	ltpFR2	21	n/a	n/a	n/a	8	20	9	2	9
915412	PROB	n/a	LTP331	ltpFR2	21	n/a	n/a	n/a	8	20	9	4	7
917927	PROB	n/a	LTP331	ltpFR2	21	n/a	n/a	n/a	8	10	1	8	1
919127	PROB	n/a	LTP331	ltpFR2	21	n/a	n/a	n/a	8	13	7	4	2
920376	PROB	n/a	LTP331	ltpFR2	21	n/a	n/a	n/a	8	16	3	6	7
922075	PROB	n/a	LTP331	ltpFR2	21	n/a	n/a	n/a	8	19	8	3	8
923408	PROB	n/a	LTP331	ltpFR2	21	n/a	n/a	n/a	8	12	3	5	3
925324	PROB	n/a	LTP331	ltpFR2	21	n/a	n/a	n/a	8	18	1	9	8
926739	PROB	n/a	LTP331	ltpFR2	21	n/a	n/a	n/a	8	10	4	5	1
927989	PROB	n/a	LTP331	ltpFR2	21	n/a	n/a	n/a	8	21	9	4	8
929489	STOP	n/a	LTP331	ltpFR2	21	n/a	n/a	n/a	8	n/a	n/a	n/a	n/a
932305	REC_START	n/a	LTP331	ltpFR2	21	5	n/a	n/a	n/a	n/a	0	0	0
942436	REC_WORD	wordpools/wasnorm_wordpool_576.txt	LTP331	ltpFR2	21	5	TAXI	1438	n/a	n/a	0	0	0
942927	REC_WORD	wordpools/wasnorm_wordpool_576.txt	LTP331	ltpFR2	21	5	CARRIAGE	248	n/a	n/a	0	0	0
943559	REC_WORD	wordpools/wasnorm_wordpool_576.txt	LTP331	ltpFR2	21	5	CRIB	407	n/a	n/a	0	0	0
944021	REC_WORD	wordpools/wasnorm_wordpool_576.txt	LTP331	ltpFR2	21	5	FOX	598	n/a	n/a	0	0	0
944702	REC_WORD	wordpools/wasnorm_wordpool_576.txt	LTP331	ltpFR2	21	5	CLAMP	316	n/a	n/a	0	0	0
945241	REC_WORD	wordpools/wasnorm_wordpool_576.txt	LTP331	ltpFR2	21	5	GROUND	666	n/a	n/a	0	0	0
946244	REC_WORD_VV	wordpools/wasnorm_wordpool_576.txt	LTP331	ltpFR2	21	5	<>	-1	n/a	n/a	0	0	0
946874	REC_WORD	wordpools/wasnorm_wordpool_576.txt	LTP331	ltpFR2	21	5	GHETTO	633	n/a	n/a	0	0	0
948382	REC_WORD	wordpools/wasnorm_wordpool_576.txt	LTP331	ltpFR2	21	5	LIZARD	834	n/a	n/a	0	0	0
949295	REC_WORD	wordpools/wasnorm_wordpool_576.txt	LTP331	ltpFR2	21	5	PISTOL	1075	n/a	n/a	0	0	0
951037	REC_WORD	wordpools/wasnorm_wordpool_576.txt	LTP331	ltpFR2	21	5	MISSILE	900	n/a	n/a	0	0	0
952880	REC_WORD	wordpools/wasnorm_wordpool_576.txt	LTP331	ltpFR2	21	5	PARROT	1015	n/a	n/a	0	0	0
953369	REC_WORD	wordpools/wasnorm_wordpool_576.txt	LTP331	ltpFR2	21	5	GALLON	618	n/a	n/a	0	0	0
953892	REC_WORD	wordpools/wasnorm_wordpool_576.txt	LTP331	ltpFR2	21	5	GREASE	660	n/a	n/a	0	0	0
955424	REC_WORD	wordpools/wasnorm_wordpool_576.txt	LTP331	ltpFR2	21	5	BUGGY	188	n/a	n/a	0	0	0
955982	REC_WORD	wordpools/wasnorm_wordpool_576.txt	LTP331	ltpFR2	21	5	BRAKE	166	n/a	n/a	0	0	0
960339	REC_WORD	wordpools/wasnorm_wordpool_576.txt	LTP331	ltpFR2	21	5	SPACE	1345	n/a	n/a	0	0	0
960935	REC_WORD	wordpools/wasnorm_wordpool_576.txt	LTP331	ltpFR2	21	5	HORNET	718	n/a	n/a	0	0	0
961385	REC_WORD	wordpools/wasnorm_wordpool_576.txt	LTP331	ltpFR2	21	5	WASP	1593	n/a	n/a	0	0	0
962215	REC_WORD	wordpools/wasnorm_wordpool_576.txt	LTP331	ltpFR2	21	5	COTTAGE	384	n/a	n/a	0	0	0
962959	REC_WORD	wordpools/wasnorm_wordpool_576.txt	LTP331	ltpFR2	21	5	BLACKBOARD	133	n/a	n/a	0	0	0
964961	REC_WORD	wordpools/wasnorm_wordpool_576.txt	LTP331	ltpFR2	21	5	ROCKET	1202	n/a	n/a	0	0	0
965587	REC_WORD	wordpools/wasnorm_wordpool_576.txt	LTP331	ltpFR2	21	5	SERVANT	1271	n/a	n/a	0	0	0
992483	REC_WORD	wordpools/wasnorm_wordpool_576.txt	LTP331	ltpFR2	21	5	FRANCE	601	n/a	n/a	0	0	0
1022758	WORD	wordpools/wasnorm_wordpool_576.txt	LTP331	ltpFR2	21	6	INFANT	737	n/a	n/a	0	0	0
1025457	WORD	wordpools/wasnorm_wordpool_576.txt	LTP331	ltpFR2	21	6	LASER	801	n/a	n/a	0	0	0
1028273	WORD	wordpools/wasnorm_wordpool_576.txt	LTP331	ltpFR2	21	6	SUITCASE	1403	n/a	n/a	0	0	0
1030754	WORD	wordpools/wasnorm_wordpool_576.txt	LTP331	ltpFR2	21	6	PECAN	1036	n/a	n/a	0	0	0
1033270	WORD	wordpools/wasnorm_wordpool_576.txt	LTP331	ltpFR2	21	6	CASHEW	253	n/a	n/a	0	0	0
1035751	WORD	wordpools/wasnorm_wordpool_576.txt	LTP331	ltpFR2	21	6	VAGRANT	1544	n/a	n/a	0	0	0
1038268	WORD	wordpools/wasnorm_wordpool_576.txt	LTP331	ltpFR2	21	6	CLOTHES	327	n/a	n/a	0	0	0
1040883	WORD	wordpools/wasnorm_wordpool_576.txt	LTP331	ltpFR2	21	6	SKILLET	1317	n/a	n/a	0	0	0
1043664	WORD	wordpools/wasnorm_wordpool_576.txt	LTP331	ltpFR2	21	6	SUSPECT	1415	n/a	n/a	0	0	0
1046280	WORD	wordpools/wasnorm_wordpool_576.txt	LTP331	ltpFR2	21	6	FLUTE	585	n/a	n/a	0	0	0
1049095	WORD	wordpools/wasnorm_wordpool_576.txt	LTP331	ltpFR2	21	6	BOX	159	n/a	n/a	0	0	0
1051528	WORD	wordpools/wasnorm_wordpool_576.txt	LTP331	ltpFR2	21	6	PLAZA	1088	n/a	n/a	0	0	0
1053976	WORD	wordpools/wasnorm_wordpool_576.txt	LTP331	ltpFR2	21	6	DUST	508	n/a	n/a	0	0	0
1056459	WORD	wordpools/wasnorm_wordpool_576.txt	LTP331	ltpFR2	21	6	PADDLE	1000	n/a	n/a	0	0	0
1058941	WORD	wordpools/wasnorm_wordpool_576.txt	LTP331	ltpFR2	21	6	DIVER	476	n/a	n/a	0	0	0
1061622	WORD	wordpools/wasnorm_wordpool_576.txt	LTP331	ltpFR2	21	6	CRICKET	408	n/a	n/a	0	0	0
1064305	WORD	wordpools/wasnorm_wordpool_576.txt	LTP331	ltpFR2	21	6	BASEMENT	94	n/a	n/a	0	0	0
1067120	WORD	wordpools/wasnorm_wordpool_576.txt	LTP331	ltpFR2	21	6	DRESSER	496	n/a	n/a	0	0	0
1069618	WORD	wordpools/wasnorm_wordpool_576.txt	LTP331	ltpFR2	21	6	CHEST	295	n/a	n/a	0	0	0
1072184	WORD	wordpools/wasnorm_wordpool_576.txt	LTP331	ltpFR2	21	6	SLIDE	1326	n/a	n/a	0	0	0
1074999	WORD	wordpools/wasnorm_wordpool_576.txt	LTP331	ltpFR2	21	6	SWORD	1423	n/a	n/a	0	0	0
1077547	WORD	wordpools/wasnorm_wordpool_576.txt	LTP331	ltpFR2	21	6	RATTLE	1170	n/a	n/a	0	0	0
1080213	WORD	wordpools/wasnorm_wordpool_576.txt	LTP331	ltpFR2	21	6	CARROT	249	n/a	n/a	0	0	0
1082794	WORD	wordpools/wasnorm_wordpool_576.txt	LTP331	ltpFR2	21	6	BUG	187	n/a	n/a	0	0	0
1084412	START	n/a	LTP331	ltpFR2	21	n/a	n/a	n/a	9	n/a	n/a	n/a	n/a
1085564	DISTRACTOR	n/a	LTP331	ltpFR2	21	6	n/a	n/a	n/a	n/a	0	0	0
1085576	PROB	n/a	LTP331	ltpFR2	21	n/a	n/a	n/a	9	10	3	6	1
1087377	PROB	n/a	LTP331	ltpFR2	21	n/a	n/a	n/a	9	12	8	3	1
1088625	PROB	n/a	LTP331	ltpFR2	21	n/a	n/a	n/a	9	16	8	5	3
1090408	PROB	n/a	LTP331	ltpFR2	21	n/a	n/a	n/a	9	10	8	1	1
1091757	PROB	n/a	LTP331	ltpFR2	21	n/a	n/a	n/a	9	15	3	4	8
1093324	PROB	n/a	LTP331	ltpFR2	21	n/a	n/a	n/a	9	15	1	7	7
1094672	PROB	n/a	LTP331	ltpFR2	21	n/a	n/a	n/a	9	17	9	6	2
1097122	PROB	n/a	LTP331	ltpFR2	21	n/a	n/a	n/a	9	13	3	3	7
1098787	PROB	n/a	LTP331	ltpFR2	21	n/a	n/a	n/a	9	11	1	6	4
1099987	PROB	n/a	LTP331	ltpFR2	21	n/a	n/a	n/a	9	18	9	2	7
1101520	PROB	n/a	LTP331	ltpFR2	21	n/a	n/a	n/a	9	15	5	5	5
1102601	PROB	n/a	LTP331	ltpFR2	21	n/a	n/a	n/a	9	10	3	4	1
1103817	PROB	n/a	LTP331	ltpFR2	21	n/a	n/a	n/a	9	22	5	9	8
1105866	PROB	n/a	LTP331	ltpFR2	21	n/a	n/a	n/a	9	14	6	2	6
1107305	STOP	n/a	LTP331	ltpFR2	21	n/a	n/a	n/a	9	n/a	n/a	n/a	n/a
1110199	REC_START	n/a	LTP331	ltpFR2	21	6	n/a	n/a	n/a	n/a	0	0	0
1112646	REC_WORD	wordpools/wasnorm_wordpool_576.txt	LTP331	ltpFR2	21	6	INFANT	737	n/a	n/a	0	0	0
1113400	REC_WORD	wordpools/wasnorm_wordpool_576.txt	LTP331	ltpFR2	21	6	LASER	801	n/a	n/a	0	0	0
1114440	REC_WORD	wordpools/wasnorm_wordpool_576.txt	LTP331	ltpFR2	21	6	VAGRANT	1544	n/a	n/a	0	0	0
1115185	REC_WORD	wordpools/wasnorm_wordpool_576.txt	LTP331	ltpFR2	21	6	CLOTHES	327	n/a	n/a	0	0	0
1116914	REC_WORD	wordpools/wasnorm_wordpool_576.txt	LTP331	ltpFR2	21	6	PECAN	1036	n/a	n/a	0	0	0
1117758	REC_WORD	wordpools/wasnorm_wordpool_576.txt	LTP331	ltpFR2	21	6	CASHEW	253	n/a	n/a	0	0	0
1118511	REC_WORD	wordpools/wasnorm_wordpool_576.txt	LTP331	ltpFR2	21	6	SUITCASE	1403	n/a	n/a	0	0	0
1122451	REC_WORD	wordpools/wasnorm_wordpool_576.txt	LTP331	ltpFR2	21	6	SKILLET	1317	n/a	n/a	0	0	0
1124567	REC_WORD	wordpools/wasnorm_wordpool_576.txt	LTP331	ltpFR2	21	6	SUSPECT	1415	n/a	n/a	0	0	0
1129421	REC_WORD	wordpools/wasnorm_wordpool_576.txt	LTP331	ltpFR2	21	6	BOX	159	n/a	n/a	0	0	0
1129995	REC_WORD	wordpools/wasnorm_wordpool_576.txt	LTP331	ltpFR2	21	6	PLAZA	1088	n/a	n/a	0	0	0
1134970	REC_WORD	wordpools/wasnorm_wordpool_576.txt	LTP331	ltpFR2	21	6	DUST	508	n/a	n/a	0	0	0
1138754	REC_WORD	wordpools/wasnorm_wordpool_576.txt	LTP331	ltpFR2	21	6	PADDLE	1000	n/a	n/a	0	0	0
1146910	REC_WORD	wordpools/wasnorm_wordpool_576.txt	LTP331	ltpFR2	21	6	DIVER	476	n/a	n/a	0	0	0
1147460	REC_WORD	wordpools/wasnorm_wordpool_576.txt	LTP331	ltpFR2	21	6	CRICKET	408	n/a	n/a	0	0	0
1147996	REC_WORD	wordpools/wasnorm_wordpool_576.txt	LTP331	ltpFR2	21	6	BASEMENT	94	n/a	n/a	0	0	0
1153083	REC_WORD	wordpools/wasnorm_wordpool_576.txt	LTP331	ltpFR2	21	6	BREAST	171	n/a	n/a	0	0	0
1154882	REC_WORD	wordpools/wasnorm_wordpool_576.txt	LTP331	ltpFR2	21	6	DRESSER	496	n/a	n/a	0	0	0
1156486	REC_WORD	wordpools/wasnorm_wordpool_576.txt	LTP331	ltpFR2	21	6	CHEST	295	n/a	n/a	0	0	0
1157776	REC_WORD	wordpools/wasnorm_wordpool_576.txt	LTP331	ltpFR2	21	6	DRESSER	496	n/a	n/a	0	0	0
1161385	REC_WORD	wordpools/wasnorm_wordpool_576.txt	LTP331	ltpFR2	21	6	SLIDE	1326	n/a	n/a	0	0	0
1162252	REC_WORD	wordpools/wasnorm_wordpool_576.txt	LTP331	ltpFR2	21	6	SWORD	1423	n/a	n/a	0	0	0
1162940	REC_WORD	wordpools/wasnorm_wordpool_576.txt	LTP331	ltpFR2	21	6	RATTLE	1170	n/a	n/a	0	0	0
1165317	REC_WORD_VV	wordpools/wasnorm_wordpool_576.txt	LTP331	ltpFR2	21	6	<>	-1	n/a	n/a	0	0	0
1165826	REC_WORD	wordpools/wasnorm_wordpool_576.txt	LTP331	ltpFR2	21	6	CARROT	249	n/a	n/a	0	0	0
1166346	REC_WORD	wordpools/wasnorm_wordpool_576.txt	LTP331	ltpFR2	21	6	BUG	187	n/a	n/a	0	0	0
1200669	WORD	wordpools/wasnorm_wordpool_576.txt	LTP331	ltpFR2	21	7	RECEIPT	1173	n/a	n/a	0	0	0
1203452	WORD	wordpools/wasnorm_wordpool_576.txt	LTP331	ltpFR2	21	7	SODA	1341	n/a	n/a	0	0	0
1206201	WORD	wordpools/wasnorm_wordpool_576.txt	LTP331	ltpFR2	21	7	AWARD	63	n/a	n/a	0	0	0
1208999	WORD	wordpools/wasnorm_wordpool_576.txt	LTP331	ltpFR2	21	7	JAPAN	749	n/a	n/a	0	0	0
1211747	WORD	wordpools/wasnorm_wordpool_576.txt	LTP331	ltpFR2	21	7	COUNTRY	388	n/a	n/a	0	0	0
1214397	WORD	wordpools/wasnorm_wordpool_576.txt	LTP331	ltpFR2	21	7	CAFE	216	n/a	n/a	0	0	0
1217062	WORD	wordpools/wasnorm_wordpool_576.txt	LTP331	ltpFR2	21	7	KNAPSACK	783	n/a	n/a	0	0	0
1219860	WORD	wordpools/wasnorm_wordpool_576.txt	LTP331	ltpFR2	21	7	PIANO	1057	n/a	n/a	0	0	0
1222658	WORD	wordpools/wasnorm_wordpool_576.txt	LTP331	ltpFR2	21	7	RECORD	1176	n/a	n/a	0	0	0
1225191	WORD	wordpools/wasnorm_wordpool_576.txt	LTP331	ltpFR2	21	7	BACKBONE	66	n/a	n/a	0	0	0
1227940	WORD	wordpools/wasnorm_wordpool_576.txt	LTP331	ltpFR2	21	7	COLLEGE	346	n/a	n/a	0	0	0
1230654	WORD	wordpools/wasnorm_wordpool_576.txt	LTP331	ltpFR2	21	7	PERMIT	1051	n/a	n/a	0	0	0
1233337	WORD	wordpools/wasnorm_wordpool_576.txt	LTP331	ltpFR2	21	7	ITEM	746	n/a	n/a	0	0	0
1236003	WORD	wordpools/wasnorm_wordpool_576.txt	LTP331	ltpFR2	21	7	AGENT	10	n/a	n/a	0	0	0
1238800	WORD	wordpools/wasnorm_wordpool_576.txt	LTP331	ltpFR2	21	7	AIRPORT	13	n/a	n/a	0	0	0
1241383	WORD	wordpools/wasnorm_wordpool_576.txt	LTP331	ltpFR2	21	7	MONEY	908	n/a	n/a	0	0	0
1243882	WORD	wordpools/wasnorm_wordpool_576.txt	LTP331	ltpFR2	21	7	HERO	706	n/a	n/a	0	0	0
1246696	WORD	wordpools/wasnorm_wordpool_576.txt	LTP331	ltpFR2	21	7	BUREAU	199	n/a	n/a	0	0	0
1249130	WORD	wordpools/wasnorm_wordpool_576.txt	LTP331	ltpFR2	21	7	VICTIM	1562	n/a	n/a	0	0	0
1251561	WORD	wordpools/wasnorm_wordpool_576.txt	LTP331	ltpFR2	21	7	COURSE	390	n/a	n/a	0	0	0
1254244	WORD	wordpools/wasnorm_wordpool_576.txt	LTP331	ltpFR2	21	7	JELLO	754	n/a	n/a	0	0	0
1256959	WORD	wordpools/wasnorm_wordpool_576.txt	LTP331	ltpFR2	21	7	PEACH	1031	n/a	n/a	0	0	0
1259508	WORD	wordpools/wasnorm_wordpool_576.txt	LTP331	ltpFR2	21	7	COIN	343	n/a	n/a	0	0	0
1262173	WORD	wordpools/wasnorm_wordpool_576.txt	LTP331	ltpFR2	21	7	PANTHER	1009	n/a	n/a	0	0	0
1263788	START	n/a	LTP331	ltpFR2	21	n/a	n/a	n/a	10	n/a	n/a	n/a	n/a
1264598	DISTRACTOR	n/a	LTP331	ltpFR2	21	7	n/a	n/a	n/a	n/a	0	0	0
1264604	PROB	n/a	LTP331	ltpFR2	21	n/a	n/a	n/a	10	8	1	3	4
1266371	PROB	n/a	LTP331	ltpFR2	21	n/a	n/a	n/a	10	21	7	9	5
1269086	PROB	n/a	LTP331	ltpFR2	21	n/a	n/a	n/a	10	6	1	2	3
1270868	PROB	n/a	LTP331	ltpFR2	21	n/a	n/a	n/a	10	16	2	8	6
1272035	PROB	n/a	LTP331	ltpFR2	21	n/a	n/a	n/a	10	23	8	9	6
1273501	PROB	n/a	LTP331	ltpFR2	21	n/a	n/a	n/a	10	15	2	9	4
1275017	PROB	n/a	LTP331	ltpFR2	21	n/a	n/a	n/a	10	16	4	8	4
1276499	PROB	n/a	LTP331	ltpFR2	21	n/a	n/a	n/a	10	17	2	6	9
1279265	PROB	n/a	LTP331	ltpFR2	21	n/a	n/a	n/a	10	9	6	2	1
1280464	PROB	n/a	LTP331	ltpFR2	21	n/a	n/a	n/a	10	6	2	2	2
1281430	PROB	n/a	LTP331	ltpFR2	21	n/a	n/a	n/a	10	17	2	9	6
1283146	PROB	n/a	LTP331	ltpFR2	21	n/a	n/a	n/a	10	19	4	7	8
1284711	PROB	n/a	LTP331	ltpFR2	21	n/a	n/a	n/a	10	11	5	4	2
1285928	PROB	n/a	LTP331	ltpFR2	21	n/a	n/a	n/a	10	22	9	7	6
1287473	STOP	n/a	LTP331	ltpFR2	21	n/a	n/a	n/a	10	n/a	n/a	n/a	n/a
1289676	REC_START	n/a	LTP331	ltpFR2	21	7	n/a	n/a	n/a	n/a	0	0	0
1303578	REC_WORD	wordpools/wasnorm_wordpool_576.txt	LTP331	ltpFR2	21	7	RECEIPT	1173	n/a	n/a	0	0	0
1304351	REC_WORD	wordpools/wasnorm_wordpool_576.txt	LTP331	ltpFR2	21	7	SODA	1341	n/a	n/a	0	0	0
1305369	REC_WORD	wordpools/wasnorm_wordpool_576.txt	LTP331	ltpFR2	21	7	JAPAN	749	n/a	n/a	0	0	0
1306181	REC_WORD	wordpools/wasnorm_wordpool_576.txt	LTP331	ltpFR2	21	7	COUNTRY	388	n/a	n/a	0	0	0
1307756	REC_WORD	wordpools/wasnorm_wordpool_576.txt	LTP331	ltpFR2	21	7	PIANO	1057	n/a	n/a	0	0	0
1308453	REC_WORD	wordpools/wasnorm_wordpool_576.txt	LTP331	ltpFR2	21	7	RECORD	1176	n/a	n/a	0	0	0
1310301	REC_WORD	wordpools/wasnorm_wordpool_576.txt	LTP331	ltpFR2	21	7	PERMIT	1051	n/a	n/a	0	0	0
1310835	REC_WORD	wordpools/wasnorm_wordpool_576.txt	LTP331	ltpFR2	21	7	ITEM	746	n/a	n/a	0	0	0
1311337	REC_WORD	wordpools/wasnorm_wordpool_576.txt	LTP331	ltpFR2	21	7	COLLEGE	346	n/a	n/a	0	0	0
1312055	REC_WORD	wordpools/wasnorm_wordpool_576.txt	LTP331	ltpFR2	21	7	BACKBONE	66	n/a	n/a	0	0	0
1314626	REC_WORD	wordpools/wasnorm_wordpool_576.txt	LTP331	ltpFR2	21	7	AGENT	10	n/a	n/a	0	0	0
1315204	REC_WORD	wordpools/wasnorm_wordpool_576.txt	LTP331	ltpFR2	21	7	AIRPORT	13	n/a	n/a	0	0	0
1317686	REC_WORD	wordpools/wasnorm_wordpool_576.txt	LTP331	ltpFR2	21	7	HERO	706	n/a	n/a	0	0	0
1323065	REC_WORD	wordpools/wasnorm_wordpool_576.txt	LTP331	ltpFR2	21	7	VICTIM	1562	n/a	n/a	0	0	0
1324132	REC_WORD	wordpools/wasnorm_wordpool_576.txt	LTP331	ltpFR2	21	7	COURSE	390	n/a	n/a	0	0	0
1324860	REC_WORD	wordpools/wasnorm_wordpool_576.txt	LTP331	ltpFR2	21	7	JELLO	754	n/a	n/a	0	0	0
1325626	REC_WORD	wordpools/wasnorm_wordpool_576.txt	LTP331	ltpFR2	21	7	PEACH	1031	n/a	n/a	0	0	0
1327305	REC_WORD	wordpools/wasnorm_wordpool_576.txt	LTP331	ltpFR2	21	7	COIN	343	n/a	n/a	0	0	0
1327989	REC_WORD	wordpools/wasnorm_wordpool_576.txt	LTP331	ltpFR2	21	7	PANTHER	1009	n/a	n/a	0	0	0
1380131	DISTRACTOR	n/a	LTP331	ltpFR2	21	8	n/a	n/a	n/a	n/a	0	0	0
1380131	START	n/a	LTP331	ltpFR2	21	n/a	n/a	n/a	11	n/a	n/a	n/a	n/a
1380148	PROB	n/a	LTP331	ltpFR2	21	n/a	n/a	n/a	11	23	8	9	6
1382147	PROB	n/a	LTP331	ltpFR2	21	n/a	n/a	n/a	11	16	8	3	5
1383778	PROB	n/a	LTP331	ltpFR2	21	n/a	n/a	n/a	11	23	7	7	9
1385229	PROB	n/a	LTP331	ltpFR2	21	n/a	n/a	n/a	11	16	5	7	4
1386710	PROB	n/a	LTP331	ltpFR2	21	n/a	n/a	n/a	11	11	3	1	7
1388227	PROB	n/a	LTP331	ltpFR2	21	n/a	n/a	n/a	11	12	2	5	5
1389460	PROB	n/a	LTP331	ltpFR2	21	n/a	n/a	n/a	11	12	5	4	3
1390658	PROB	n/a	LTP331	ltpFR2	21	n/a	n/a	n/a	11	5	3	1	1
1391641	PROB	n/a	LTP331	ltpFR2	21	n/a	n/a	n/a	11	21	9	4	8
1394656	PROB	n/a	LTP331	ltpFR2	21	n/a	n/a	n/a	11	16	5	5	6
1396456	PROB	n/a	LTP331	ltpFR2	21	n/a	n/a	n/a	11	18	6	5	7
1397771	PROB	n/a	LTP331	ltpFR2	21	n/a	n/a	n/a	11	17	6	4	7
1399038	PROB	n/a	LTP331	ltpFR2	21	n/a	n/a	n/a	11	10	6	1	3
1400521	PROB	n/a	LTP331	ltpFR2	21	n/a	n/a	n/a	11	12	5	8	8
1401937	PROB	n/a	LTP331	ltpFR2	21	n/a	n/a	n/a	11	15	3	3	9
1403616	STOP	n/a	LTP331	ltpFR2	21	n/a	n/a	n/a	11	n/a	n/a	n/a	n/a
1405185	WORD	wordpools/wasnorm_wordpool_576.txt	LTP331	ltpFR2	21	8	LAPEL	800	n/a	n/a	0	0	0
1407884	WORD	wordpools/wasnorm_wordpool_576.txt	LTP331	ltpFR2	21	8	LUGGAGE	847	n/a	n/a	0	0	0
1410383	WORD	wordpools/wasnorm_wordpool_576.txt	LTP331	ltpFR2	21	8	CRAYON	401	n/a	n/a	0	0	0
1412981	WORD	wordpools/wasnorm_wordpool_576.txt	LTP331	ltpFR2	21	8	CHEMIST	292	n/a	n/a	0	0	0
1415712	WORD	wordpools/wasnorm_wordpool_576.txt	LTP331	ltpFR2	21	8	GLASS	639	n/a	n/a	0	0	0
1418246	WORD	wordpools/wasnorm_wordpool_576.txt	LTP331	ltpFR2	21	8	CAMEL	223	n/a	n/a	0	0	0
1420810	WORD	wordpools/wasnorm_wordpool_576.txt	LTP331	ltpFR2	21	8	EMPIRE	530	n/a	n/a	0	0	0
1423510	WORD	wordpools/wasnorm_wordpool_576.txt	LTP331	ltpFR2	21	8	THRONE	1461	n/a	n/a	0	0	0
1426025	WORD	wordpools/wasnorm_wordpool_576.txt	LTP331	ltpFR2	21	8	TILE	1468	n/a	n/a	0	0	0
1428556	WORD	wordpools/wasnorm_wordpool_576.txt	LTP331	ltpFR2	21	8	BEAVER	109	n/a	n/a	0	0	0
1431189	WORD	wordpools/wasnorm_wordpool_576.txt	LTP331	ltpFR2	21	8	GAZELLE	628	n/a	n/a	0	0	0
1433853	WORD	wordpools/wasnorm_wordpool_576.txt	LTP331	ltpFR2	21	8	CONTRACT	368	n/a	n/a	0	0	0
1436602	WORD	wordpools/wasnorm_wordpool_576.txt	LTP331	ltpFR2	21	8	BROOK	177	n/a	n/a	0	0	0
1439135	WORD	wordpools/wasnorm_wordpool_576.txt	LTP331	ltpFR2	21	8	DENIM	446	n/a	n/a	0	0	0
1441934	WORD	wordpools/wasnorm_wordpool_576.txt	LTP331	ltpFR2	21	8	BRIEFCASE	175	n/a	n/a	0	0	0
1444615	WORD	wordpools/wasnorm_wordpool_576.txt	LTP331	ltpFR2	21	8	BANKER	84	n/a	n/a	0	0	0
1447314	WORD	wordpools/wasnorm_wordpool_576.txt	LTP331	ltpFR2	21	8	CIGAR	308	n/a	n/a	0	0	0
1449963	WORD	wordpools/wasnorm_wordpool_576.txt	LTP331	ltpFR2	21	8	MUFFIN	929	n/a	n/a	0	0	0
1452661	WORD	wordpools/wasnorm_wordpool_576.txt	LTP331	ltpFR2	21	8	GARDEN	623	n/a	n/a	0	0	0
1455477	WORD	wordpools/wasnorm_wordpool_576.txt	LTP331	ltpFR2	21	8	GRIZZLY	662	n/a	n/a	0	0	0
1458093	WORD	wordpools/wasnorm_wordpool_576.txt	LTP331	ltpFR2	21	8	FRIAR	605	n/a	n/a	0	0	0
1460590	WORD	wordpools/wasnorm_wordpool_576.txt	LTP331	ltpFR2	21	8	CANAL	226	n/a	n/a	0	0	0
1463190	WORD	wordpools/wasnorm_wordpool_576.txt	LTP331	ltpFR2	21	8	CABBAGE	210	n/a	n/a	0	0	0
1465754	WORD	wordpools/wasnorm_wordpool_576.txt	LTP331	ltpFR2	21	8	RADISH	1158	n/a	n/a	0	0	0
1467371	START	n/a	LTP331	ltpFR2	21	n/a	n/a	n/a	12	n/a	n/a	n/a	n/a
1468280	DISTRACTOR	n/a	LTP331	ltpFR2	21	8	n/a	n/a	n/a	n/a	0	0	0
1468287	PROB	n/a	LTP331	ltpFR2	21	n/a	n/a	n/a	12	9	5	2	2
1471452	PROB	n/a	LTP331	ltpFR2	21	n/a	n/a	n/a	12	16	8	6	2
1473085	PROB	n/a	LTP331	ltpFR2	21	n/a	n/a	n/a	12	16	6	8	2
1474850	PROB	n/a	LTP331	ltpFR2	21	n/a	n/a	n/a	12	9	3	4	2
1476133	PROB	n/a	LTP331	ltpFR2	21	n/a	n/a	n/a	12	18	3	8	7
1477582	PROB	n/a	LTP331	ltpFR2	21	n/a	n/a	n/a	12	23	9	7	7
1478915	PROB	n/a	LTP331	ltpFR2	21	n/a	n/a	n/a	12	15	9	4	2
1480981	PROB	n/a	LTP331	ltpFR2	21	n/a	n/a	n/a	12	16	1	6	9
1482130	PROB	n/a	LTP331	ltpFR2	21	n/a	n/a	n/a	12	10	6	2	2
1483313	PROB	n/a	LTP331	ltpFR2	21	n/a	n/a	n/a	12	18	6	5	7
1484628	PROB	n/a	LTP331	ltpFR2	21	n/a	n/a	n/a	12	14	8	1	5
1486744	PROB	n/a	LTP331	ltpFR2	21	n/a	n/a	n/a	12	15	2	4	9
1487978	PROB	n/a	LTP331	ltpFR2	21	n/a	n/a	n/a	12	12	7	2	3
1489443	PROB	n/a	LTP331	ltpFR2	21	n/a	n/a	n/a	12	16	1	6	9
1490521	STOP	n/a	LTP331	ltpFR2	21	n/a	n/a	n/a	12	n/a	n/a	n/a	n/a
1493309	REC_START	n/a	LTP331	ltpFR2	21	8	n/a	n/a	n/a	n/a	0	0	0
1498642	REC_WORD	wordpools/wasnorm_wordpool_576.txt	LTP331	ltpFR2	21	8	LAPEL	800	n/a	n/a	0	0	0
1499103	REC_WORD	wordpools/wasnorm_wordpool_576.txt	LTP331	ltpFR2	21	8	SUITCASE	1403	n/a	n/a	0	0	0
1501318	REC_WORD	wordpools/wasnorm_wordpool_576.txt	LTP331	ltpFR2	21	8	CRAYON	401	n/a	n/a	0	0	0
1502049	REC_WORD	wordpools/wasnorm_wordpool_576.txt	LTP331	ltpFR2	21	8	CHEMIST	292	n/a	n/a	0	0	0
1503416	REC_WORD	wordpools/wasnorm_wordpool_576.txt	LTP331	ltpFR2	21	8	GLASS	639	n/a	n/a	0	0	0
1506287	REC_WORD	wordpools/wasnorm_wordpool_576.txt	LTP331	ltpFR2	21	8	CAMEL	223	n/a	n/a	0	0	0
1506786	REC_WORD	wordpools/wasnorm_wordpool_576.txt	LTP331	ltpFR2	21	8	THRONE	1461	n/a	n/a	0	0	0
1507378	REC_WORD	wordpools/wasnorm_wordpool_576.txt	LTP331	ltpFR2	21	8	EMPIRE	530	n/a	n/a	0	0	0
1509757	REC_WORD	wordpools/wasnorm_wordpool_576.txt	LTP331	ltpFR2	21	8	TILE	1468	n/a	n/a	0	0	0
1510333	REC_WORD	wordpools/wasnorm_wordpool_576.txt	LTP331	ltpFR2	21	8	BEAVER	109	n/a	n/a	0	0	0
1513116	REC_WORD	wordpools/wasnorm_wordpool_576.txt	LTP331	ltpFR2	21	8	GAZELLE	628	n/a	n/a	0	0	0
1513728	REC_WORD	wordpools/wasnorm_wordpool_576.txt	LTP331	ltpFR2	21	8	BROOK	177	n/a	n/a	0	0	0
1514202	REC_WORD	wordpools/wasnorm_wordpool_576.txt	LTP331	ltpFR2	21	8	CONTRACT	368	n/a	n/a	0	0	0
1516319	REC_WORD	wordpools/wasnorm_wordpool_576.txt	LTP331	ltpFR2	21	8	DENIM	446	n/a	n/a	0	0	0
1520410	REC_WORD	wordpools/wasnorm_wordpool_576.txt	LTP331	ltpFR2	21	8	BANKER	84	n/a	n/a	0	0	0
1520939	REC_WORD	wordpools/wasnorm_wordpool_576.txt	LTP331	ltpFR2	21	8	CIGAR	308	n/a	n/a	0	0	0
1522975	REC_WORD	wordpools/wasnorm_wordpool_576.txt	LTP331	ltpFR2	21	8	MUFFIN	929	n/a	n/a	0	0	0
1524707	REC_WORD	wordpools/wasnorm_wordpool_576.txt	LTP331	ltpFR2	21	8	GARDEN	623	n/a	n/a	0	0	0
1525279	REC_WORD	wordpools/wasnorm_wordpool_576.txt	LTP331	ltpFR2	21	8	GRIZZLY	662	n/a	n/a	0	0	0
1526266	REC_WORD	wordpools/wasnorm_wordpool_576.txt	LTP331	ltpFR2	21	8	FRIAR	605	n/a	n/a	0	0	0
1527166	REC_WORD	wordpools/wasnorm_wordpool_576.txt	LTP331	ltpFR2	21	8	CANAL	226	n/a	n/a	0	0	0
1529043	REC_WORD	wordpools/wasnorm_wordpool_576.txt	LTP331	ltpFR2	21	8	CABBAGE	210	n/a	n/a	0	0	0
1529685	REC_WORD	wordpools/wasnorm_wordpool_576.txt	LTP331	ltpFR2	21	8	RADISH	1158	n/a	n/a	0	0	0
1536084	REC_WORD	wordpools/wasnorm_wordpool_576.txt	LTP331	ltpFR2	21	8	BRIEFCASE	175	n/a	n/a	0	0	0
1569853	REST_REWET	n/a	LTP331	ltpFR2	21	8	n/a	n/a	n/a	n/a	0	0	0
1617347	WORD	wordpools/wasnorm_wordpool_576.txt	LTP331	ltpFR2	21	9	CEILING	265	n/a	n/a	0	0	0
1620079	WORD	wordpools/wasnorm_wordpool_576.txt	LTP331	ltpFR2	21	9	STAR	1373	n/a	n/a	0	0	0
1622511	WORD	wordpools/wasnorm_wordpool_576.txt	LTP331	ltpFR2	21	9	RAFT	1159	n/a	n/a	0	0	0
1625159	WORD	wordpools/wasnorm_wordpool_576.txt	LTP331	ltpFR2	21	9	TABLET	1427	n/a	n/a	0	0	0
1627874	WORD	wordpools/wasnorm_wordpool_576.txt	LTP331	ltpFR2	21	9	HIGHWAY	707	n/a	n/a	0	0	0
1630323	WORD	wordpools/wasnorm_wordpool_576.txt	LTP331	ltpFR2	21	9	NOVEL	960	n/a	n/a	0	0	0
1632922	WORD	wordpools/wasnorm_wordpool_576.txt	LTP331	ltpFR2	21	9	WHISKERS	1605	n/a	n/a	0	0	0
1635720	WORD	wordpools/wasnorm_wordpool_576.txt	LTP331	ltpFR2	21	9	UMPIRE	1535	n/a	n/a	0	0	0
1638253	WORD	wordpools/wasnorm_wordpool_576.txt	LTP331	ltpFR2	21	9	POET	1095	n/a	n/a	0	0	0
1640684	WORD	wordpools/wasnorm_wordpool_576.txt	LTP331	ltpFR2	21	9	JOURNAL	760	n/a	n/a	0	0	0
1643334	WORD	wordpools/wasnorm_wordpool_576.txt	LTP331	ltpFR2	21	9	EGYPT	519	n/a	n/a	0	0	0
1645882	WORD	wordpools/wasnorm_wordpool_576.txt	LTP331	ltpFR2	21	9	PICNIC	1060	n/a	n/a	0	0	0
1648415	WORD	wordpools/wasnorm_wordpool_576.txt	LTP331	ltpFR2	21	9	CASHIER	254	n/a	n/a	0	0	0
1650980	WORD	wordpools/wasnorm_wordpool_576.txt	LTP331	ltpFR2	21	9	PEPPER	1047	n/a	n/a	0	0	0
1653728	WORD	wordpools/wasnorm_wordpool_576.txt	LTP331	ltpFR2	21	9	ATLAS	53	n/a	n/a	0	0	0
1656427	WORD	wordpools/wasnorm_wordpool_576.txt	LTP331	ltpFR2	21	9	NECKLACE	940	n/a	n/a	0	0	0
1658943	WORD	wordpools/wasnorm_wordpool_576.txt	LTP331	ltpFR2	21	9	PUDDLE	1140	n/a	n/a	0	0	0
1661707	WORD	wordpools/wasnorm_wordpool_576.txt	LTP331	ltpFR2	21	9	GRAVEL	659	n/a	n/a	0	0	0
1664257	WORD	wordpools/wasnorm_wordpool_576.txt	LTP331	ltpFR2	21	9	BOUQUET	157	n/a	n/a	0	0	0
1666955	WORD	wordpools/wasnorm_wordpool_576.txt	LTP331	ltpFR2	21	9	WAITER	1580	n/a	n/a	0	0	0
1669570	WORD	wordpools/wasnorm_wordpool_576.txt	LTP331	ltpFR2	21	9	DRIVER	499	n/a	n/a	0	0	0
1672219	WORD	wordpools/wasnorm_wordpool_576.txt	LTP331	ltpFR2	21	9	DASHBOARD	441	n/a	n/a	0	0	0
1674784	WORD	wordpools/wasnorm_wordpool_576.txt	LTP331	ltpFR2	21	9	WAITRESS	1581	n/a	n/a	0	0	0
1677300	WORD	wordpools/wasnorm_wordpool_576.txt	LTP331	ltpFR2	21	9	BARLEY	88	n/a	n/a	0	0	0
1678916	START	n/a	LTP331	ltpFR2	21	n/a	n/a	n/a	13	n/a	n/a	n/a	n/a
1680018	DISTRACTOR	n/a	LTP331	ltpFR2	21	9	n/a	n/a	n/a	n/a	0	0	0
1680032	PROB	n/a	LTP331	ltpFR2	21	n/a	n/a	n/a	13	18	5	6	7
1682348	PROB	n/a	LTP331	ltpFR2	21	n/a	n/a	n/a	13	15	6	3	6
1684280	PROB	n/a	LTP331	ltpFR2	21	n/a	n/a	n/a	13	11	7	1	3
1685628	PROB	n/a	LTP331	ltpFR2	21	n/a	n/a	n/a	13	13	8	2	3
1686761	PROB	n/a	LTP331	ltpFR2	21	n/a	n/a	n/a	13	13	2	6	5
1688577	PROB	n/a	LTP331	ltpFR2	21	n/a	n/a	n/a	13	13	1	5	7
1690260	PROB	n/a	LTP331	ltpFR2	21	n/a	n/a	n/a	13	20	9	8	3
1691575	PROB	n/a	LTP331	ltpFR2	21	n/a	n/a	n/a	13	20	9	5	6
1693375	PROB	n/a	LTP331	ltpFR2	21	n/a	n/a	n/a	13	9	5	2	2
1694774	PROB	n/a	LTP331	ltpFR2	21	n/a	n/a	n/a	13	22	7	6	9
1695974	PROB	n/a	LTP331	ltpFR2	21	n/a	n/a	n/a	13	14	4	9	1
1697507	PROB	n/a	LTP331	ltpFR2	21	n/a	n/a	n/a	13	12	5	4	3
1698655	PROB	n/a	LTP331	ltpFR2	21	n/a	n/a	n/a	13	18	9	1	8
1699956	PROB	n/a	LTP331	ltpFR2	21	n/a	n/a	n/a	13	18	7	9	2
1702915	STOP	n/a	LTP331	ltpFR2	21	n/a	n/a	n/a	13	n/a	n/a	n/a	n/a
1704869	REC_START	n/a	LTP331	ltpFR2	21	9	n/a	n/a	n/a	n/a	0	0	0
1708316	REC_WORD	wordpools/wasnorm_wordpool_576.txt	LTP331	ltpFR2	21	9	CEILING	265	n/a	n/a	0	0	0
1708964	REC_WORD	wordpools/wasnorm_wordpool_576.txt	LTP331	ltpFR2	21	9	STAR	1373	n/a	n/a	0	0	0
1709702	REC_WORD	wordpools/wasnorm_wordpool_576.txt	LTP331	ltpFR2	21	9	WHISKERS	1605	n/a	n/a	0	0	0
1712501	REC_WORD	wordpools/wasnorm_wordpool_576.txt	LTP331	ltpFR2	21	9	RAFT	1159	n/a	n/a	0	0	0
1712955	REC_WORD	wordpools/wasnorm_wordpool_576.txt	LTP331	ltpFR2	21	9	HIGHWAY	707	n/a	n/a	0	0	0
1713552	REC_WORD	wordpools/wasnorm_wordpool_576.txt	LTP331	ltpFR2	21	9	TABLET	1427	n/a	n/a	0	0	0
1714220	REC_WORD	wordpools/wasnorm_wordpool_576.txt	LTP331	ltpFR2	21	9	DASHBOARD	441	n/a	n/a	0	0	0
1715917	REC_WORD	wordpools/wasnorm_wordpool_576.txt	LTP331	ltpFR2	21	9	DRIVER	499	n/a	n/a	0	0	0
1718566	REC_WORD	wordpools/wasnorm_wordpool_576.txt	LTP331	ltpFR2	21	9	NOVEL	960	n/a	n/a	0	0	0
1724337	REC_WORD	wordpools/wasnorm_wordpool_576.txt	LTP331	ltpFR2	21	9	UMPIRE	1535	n/a	n/a	0	0	0
1725062	REC_WORD	wordpools/wasnorm_wordpool_576.txt	LTP331	ltpFR2	21	9	PICNIC	1060	n/a	n/a	0	0	0
1725729	REC_WORD	wordpools/wasnorm_wordpool_576.txt	LTP331	ltpFR2	21	9	EGYPT	519	n/a	n/a	0	0	0
1730086	REC_WORD	wordpools/wasnorm_wordpool_576.txt	LTP331	ltpFR2	21	9	WAITER	1580	n/a	n/a	0	0	0
1730996	REC_WORD	wordpools/wasnorm_wordpool_576.txt	LTP331	ltpFR2	21	9	BOUQUET	157	n/a	n/a	0	0	0
1733672	REC_WORD	wordpools/wasnorm_wordpool_576.txt	LTP331	ltpFR2	21	9	BARLEY	88	n/a	n/a	0	0	0
1736118	REC_WORD	wordpools/wasnorm_wordpool_576.txt	LTP331	ltpFR2	21	9	WATER	1594	n/a	n/a	0	0	0
1740213	REC_WORD	wordpools/wasnorm_wordpool_576.txt	LTP331	ltpFR2	21	9	CASHIER	254	n/a	n/a	0	0	0
1741213	REC_WORD	wordpools/wasnorm_wordpool_576.txt	LTP331	ltpFR2	21	9	PEPPER	1047	n/a	n/a	0	0	0
1746198	REC_WORD	wordpools/wasnorm_wordpool_576.txt	LTP331	ltpFR2	21	9	ATLAS	53	n/a	n/a	0	0	0
1746870	REC_WORD	wordpools/wasnorm_wordpool_576.txt	LTP331	ltpFR2	21	9	NECKLACE	940	n/a	n/a	0	0	0
1795308	DISTRACTOR	n/a	LTP331	ltpFR2	21	10	n/a	n/a	n/a	n/a	0	0	0
1795308	START	n/a	LTP331	ltpFR2	21	n/a	n/a	n/a	14	n/a	n/a	n/a	n/a
1795325	PROB	n/a	LTP331	ltpFR2	21	n/a	n/a	n/a	14	15	2	8	3
1797391	PROB	n/a	LTP331	ltpFR2	21	n/a	n/a	n/a	14	15	5	4	6
1799056	PROB	n/a	LTP331	ltpFR2	21	n/a	n/a	n/a	14	1	8	3	6
1801139	PROB	n/a	LTP331	ltpFR2	21	n/a	n/a	n/a	14	18	9	5	4
1802703	PROB	n/a	LTP331	ltpFR2	21	n/a	n/a	n/a	14	19	9	5	5
1803870	PROB	n/a	LTP331	ltpFR2	21	n/a	n/a	n/a	14	16	9	4	3
1805602	PROB	n/a	LTP331	ltpFR2	21	n/a	n/a	n/a	14	20	6	7	7
1807002	PROB	n/a	LTP331	ltpFR2	21	n/a	n/a	n/a	14	17	9	2	6
1808901	PROB	n/a	LTP331	ltpFR2	21	n/a	n/a	n/a	14	20	4	9	7
1811782	PROB	n/a	LTP331	ltpFR2	21	n/a	n/a	n/a	14	14	6	7	1
1813016	PROB	n/a	LTP331	ltpFR2	21	n/a	n/a	n/a	14	10	2	1	7
1814032	PROB	n/a	LTP331	ltpFR2	21	n/a	n/a	n/a	14	21	8	5	8
1816331	PROB	n/a	LTP331	ltpFR2	21	n/a	n/a	n/a	14	17	9	1	7
1817746	PROB	n/a	LTP331	ltpFR2	21	n/a	n/a	n/a	14	15	4	9	2
1819217	STOP	n/a	LTP331	ltpFR2	21	n/a	n/a	n/a	14	n/a	n/a	n/a	n/a
1820179	WORD	wordpools/wasnorm_wordpool_576.txt	LTP331	ltpFR2	21	10	TOMBSTONE	1478	n/a	n/a	0	0	0
1822644	WORD	wordpools/wasnorm_wordpool_576.txt	LTP331	ltpFR2	21	10	DOLPHIN	483	n/a	n/a	0	0	0
1825243	WORD	wordpools/wasnorm_wordpool_576.txt	LTP331	ltpFR2	21	10	GANGSTER	620	n/a	n/a	0	0	0
1827808	WORD	wordpools/wasnorm_wordpool_576.txt	LTP331	ltpFR2	21	10	STAPLE	1371	n/a	n/a	0	0	0
1830590	WORD	wordpools/wasnorm_wordpool_576.txt	LTP331	ltpFR2	21	10	LETTUCE	814	n/a	n/a	0	0	0
1833306	WORD	wordpools/wasnorm_wordpool_576.txt	LTP331	ltpFR2	21	10	LEG	809	n/a	n/a	0	0	0
1835971	WORD	wordpools/wasnorm_wordpool_576.txt	LTP331	ltpFR2	21	10	MUMMY	932	n/a	n/a	0	0	0
1838769	WORD	wordpools/wasnorm_wordpool_576.txt	LTP331	ltpFR2	21	10	WINDOW	1611	n/a	n/a	0	0	0
1841269	WORD	wordpools/wasnorm_wordpool_576.txt	LTP331	ltpFR2	21	10	STONE	1385	n/a	n/a	0	0	0
1844051	WORD	wordpools/wasnorm_wordpool_576.txt	LTP331	ltpFR2	21	10	SLIME	1327	n/a	n/a	0	0	0
1846565	WORD	wordpools/wasnorm_wordpool_576.txt	LTP331	ltpFR2	21	10	YOLK	1633	n/a	n/a	0	0	0
1849165	WORD	wordpools/wasnorm_wordpool_576.txt	LTP331	ltpFR2	21	10	HANDBAG	684	n/a	n/a	0	0	0
1851596	WORD	wordpools/wasnorm_wordpool_576.txt	LTP331	ltpFR2	21	10	LILY	821	n/a	n/a	0	0	0
1854046	WORD	wordpools/wasnorm_wordpool_576.txt	LTP331	ltpFR2	21	10	CURTAIN	427	n/a	n/a	0	0	0
1856743	WORD	wordpools/wasnorm_wordpool_576.txt	LTP331	ltpFR2	21	10	MARKER	870	n/a	n/a	0	0	0
1859526	WORD	wordpools/wasnorm_wordpool_576.txt	LTP331	ltpFR2	21	10	FLESH	579	n/a	n/a	0	0	0
1862142	WORD	wordpools/wasnorm_wordpool_576.txt	LTP331	ltpFR2	21	10	EAGLE	512	n/a	n/a	0	0	0
1864723	WORD	wordpools/wasnorm_wordpool_576.txt	LTP331	ltpFR2	21	10	OUTDOORS	987	n/a	n/a	0	0	0
1867323	WORD	wordpools/wasnorm_wordpool_576.txt	LTP331	ltpFR2	21	10	PEDAL	1037	n/a	n/a	0	0	0
1870138	WORD	wordpools/wasnorm_wordpool_576.txt	LTP331	ltpFR2	21	10	CHIPMUNK	304	n/a	n/a	0	0	0
1872819	WORD	wordpools/wasnorm_wordpool_576.txt	LTP331	ltpFR2	21	10	ROBBER	1197	n/a	n/a	0	0	0
1875418	WORD	wordpools/wasnorm_wordpool_576.txt	LTP331	ltpFR2	21	10	THIEF	1456	n/a	n/a	0	0	0
1877951	WORD	wordpools/wasnorm_wordpool_576.txt	LTP331	ltpFR2	21	10	COUCH	386	n/a	n/a	0	0	0
1880581	WORD	wordpools/wasnorm_wordpool_576.txt	LTP331	ltpFR2	21	10	PADDING	999	n/a	n/a	0	0	0
1882199	START	n/a	LTP331	ltpFR2	21	n/a	n/a	n/a	15	n/a	n/a	n/a	n/a
1883091	DISTRACTOR	n/a	LTP331	ltpFR2	21	10	n/a	n/a	n/a	n/a	0	0	0
1883098	PROB	n/a	LTP331	ltpFR2	21	n/a	n/a	n/a	15	15	5	6	4
1884997	PROB	n/a	LTP331	ltpFR2	21	n/a	n/a	n/a	15	11	4	6	1
1886330	PROB	n/a	LTP331	ltpFR2	21	n/a	n/a	n/a	15	12	4	4	4
1887379	PROB	n/a	LTP331	ltpFR2	21	n/a	n/a	n/a	15	25	9	9	7
1889228	PROB	n/a	LTP331	ltpFR2	21	n/a	n/a	n/a	15	16	6	4	6
1891559	PROB	n/a	LTP331	ltpFR2	21	n/a	n/a	n/a	15	12	3	5	4
1892742	PROB	n/a	LTP331	ltpFR2	21	n/a	n/a	n/a	15	15	3	7	5
1893976	PROB	n/a	LTP331	ltpFR2	21	n/a	n/a	n/a	15	19	9	7	3
1895525	PROB	n/a	LTP331	ltpFR2	21	n/a	n/a	n/a	15	15	4	6	5
1897158	PROB	n/a	LTP331	ltpFR2	21	n/a	n/a	n/a	15	19	2	9	8
1899040	PROB	n/a	LTP331	ltpFR2	21	n/a	n/a	n/a	15	13	4	7	2
1900822	PROB	n/a	LTP331	ltpFR2	21	n/a	n/a	n/a	15	12	2	8	2
1901889	PROB	n/a	LTP331	ltpFR2	21	n/a	n/a	n/a	15	23	9	8	6
1903888	PROB	n/a	LTP331	ltpFR2	21	n/a	n/a	n/a	15	15	5	7	3
1905089	STOP	n/a	LTP331	ltpFR2	21	n/a	n/a	n/a	15	n/a	n/a	n/a	n/a
1907986	REC_START	n/a	LTP331	ltpFR2	21	10	n/a	n/a	n/a	n/a	0	0	0
1912158	REC_WORD	wordpools/wasnorm_wordpool_576.txt	LTP331	ltpFR2	21	10	LEG	809	n/a	n/a	0	0	0
1912961	REC_WORD	wordpools/wasnorm_wordpool_576.txt	LTP331	ltpFR2	21	10	CABBAGE	210	n/a	n/a	0	0	0
1913585	REC_WORD	wordpools/wasnorm_wordpool_576.txt	LTP331	ltpFR2	21	10	CHIPMUNK	304	n/a	n/a	0	0	0
1913766	REC_WORD	wordpools/wasnorm_wordpool_576.txt	LTP331	ltpFR2	21	10	SLIME	1327	n/a	n/a	0	0	0
1914506	REC_WORD	wordpools/wasnorm_wordpool_576.txt	LTP331	ltpFR2	21	10	YOLK	1633	n/a	n/a	0	0	0
1915029	REC_WORD_VV	wordpools/wasnorm_wordpool_576.txt	LTP331	ltpFR2	21	10	<>	-1	n/a	n/a	0	0	0
1915683	REC_WORD	wordpools/wasnorm_wordpool_576.txt	LTP331	ltpFR2	21	10	WINDOW	1611	n/a	n/a	0	0	0
1917459	REC_WORD	wordpools/wasnorm_wordpool_576.txt	LTP331	ltpFR2	21	10	MUMMY	932	n/a	n/a	0	0	0
1920056	REC_WORD	wordpools/wasnorm_wordpool_576.txt	LTP331	ltpFR2	21	10	STONE	1385	n/a	n/a	0	0	0
1923186	REC_WORD	wordpools/wasnorm_wordpool_576.txt	LTP331	ltpFR2	21	10	LILY	821	n/a	n/a	0	0	0
1923928	REC_WORD	wordpools/wasnorm_wordpool_576.txt	LTP331	ltpFR2	21	10	HANDBAG	684	n/a	n/a	0	0	0
1924677	REC_WORD	wordpools/wasnorm_wordpool_576.txt	LTP331	ltpFR2	21	10	FLESH	579	n/a	n/a	0	0	0
1925512	REC_WORD	wordpools/wasnorm_wordpool_576.txt	LTP331	ltpFR2	21	10	CURTAIN	427	n/a	n/a	0	0	0
1927215	REC_WORD	wordpools/wasnorm_wordpool_576.txt	LTP331	ltpFR2	21	10	EAGLE	512	n/a	n/a	0	0	0
1927660	REC_WORD	wordpools/wasnorm_wordpool_576.txt	LTP331	ltpFR2	21	10	OUTDOORS	987	n/a	n/a	0	0	0
1931594	REC_WORD	wordpools/wasnorm_wordpool_576.txt	LTP331	ltpFR2	21	10	ROB	-1	n/a	n/a	0	0	0
1932686	REC_WORD	wordpools/wasnorm_wordpool_576.txt	LTP331	ltpFR2	21	10	ROBBER	1197	n/a	n/a	0	0	0
1934069	REC_WORD	wordpools/wasnorm_wordpool_576.txt	LTP331	ltpFR2	21	10	THIEF	1456	n/a	n/a	0	0	0
1998457	WORD	wordpools/wasnorm_wordpool_576.txt	LTP331	ltpFR2	21	11	LOFT	840	n/a	n/a	0	0	0
2000989	WORD	wordpools/wasnorm_wordpool_576.txt	LTP331	ltpFR2	21	11	BINDER	127	n/a	n/a	0	0	0
2003537	WORD	wordpools/wasnorm_wordpool_576.txt	LTP331	ltpFR2	21	11	APPLE	33	n/a	n/a	0	0	0
2006004	WORD	wordpools/wasnorm_wordpool_576.txt	LTP331	ltpFR2	21	11	KEEPER	769	n/a	n/a	0	0	0
2008519	WORD	wordpools/wasnorm_wordpool_576.txt	LTP331	ltpFR2	21	11	SHELTER	1282	n/a	n/a	0	0	0
2011001	WORD	wordpools/wasnorm_wordpool_576.txt	LTP331	ltpFR2	21	11	FOREST	593	n/a	n/a	0	0	0
2013815	WORD	wordpools/wasnorm_wordpool_576.txt	LTP331	ltpFR2	21	11	STAKE	1368	n/a	n/a	0	0	0
2016581	WORD	wordpools/wasnorm_wordpool_576.txt	LTP331	ltpFR2	21	11	TURTLE	1522	n/a	n/a	0	0	0
2019047	WORD	wordpools/wasnorm_wordpool_576.txt	LTP331	ltpFR2	21	11	SLUG	1329	n/a	n/a	0	0	0
2021861	WORD	wordpools/wasnorm_wordpool_576.txt	LTP331	ltpFR2	21	11	AUTHOR	61	n/a	n/a	0	0	0
2024643	WORD	wordpools/wasnorm_wordpool_576.txt	LTP331	ltpFR2	21	11	BEEF	113	n/a	n/a	0	0	0
2027260	WORD	wordpools/wasnorm_wordpool_576.txt	LTP331	ltpFR2	21	11	SCALLOP	1242	n/a	n/a	0	0	0
2029908	WORD	wordpools/wasnorm_wordpool_576.txt	LTP331	ltpFR2	21	11	SNAIL	1332	n/a	n/a	0	0	0
2032341	WORD	wordpools/wasnorm_wordpool_576.txt	LTP331	ltpFR2	21	11	GAVEL	627	n/a	n/a	0	0	0
2034989	WORD	wordpools/wasnorm_wordpool_576.txt	LTP331	ltpFR2	21	11	LUMBER	848	n/a	n/a	0	0	0
2037720	WORD	wordpools/wasnorm_wordpool_576.txt	LTP331	ltpFR2	21	11	DENTIST	447	n/a	n/a	0	0	0
2040420	WORD	wordpools/wasnorm_wordpool_576.txt	LTP331	ltpFR2	21	11	PLUTO	1092	n/a	n/a	0	0	0
2042969	WORD	wordpools/wasnorm_wordpool_576.txt	LTP331	ltpFR2	21	11	STAMP	1370	n/a	n/a	0	0	0
2045750	WORD	wordpools/wasnorm_wordpool_576.txt	LTP331	ltpFR2	21	11	MEAT	883	n/a	n/a	0	0	0
2048216	WORD	wordpools/wasnorm_wordpool_576.txt	LTP331	ltpFR2	21	11	PIGMENT	1066	n/a	n/a	0	0	0
2050864	WORD	wordpools/wasnorm_wordpool_576.txt	LTP331	ltpFR2	21	11	CELLAR	267	n/a	n/a	0	0	0
2053414	WORD	wordpools/wasnorm_wordpool_576.txt	LTP331	ltpFR2	21	11	CONCERT	360	n/a	n/a	0	0	0
2055861	WORD	wordpools/wasnorm_wordpool_576.txt	LTP331	ltpFR2	21	11	PISTON	1076	n/a	n/a	0	0	0
2058428	WORD	wordpools/wasnorm_wordpool_576.txt	LTP331	ltpFR2	21	11	SHOULDER	1294	n/a	n/a	0	0	0
2060044	START	n/a	LTP331	ltpFR2	21	n/a	n/a	n/a	16	n/a	n/a	n/a	n/a
2060920	DISTRACTOR	n/a	LTP331	ltpFR2	21	11	n/a	n/a	n/a	n/a	0	0	0
2060926	PROB	n/a	LTP331	ltpFR2	21	n/a	n/a	n/a	16	20	6	8	6
2063358	PROB	n/a	LTP331	ltpFR2	21	n/a	n/a	n/a	16	7	1	2	4
2064657	PROB	n/a	LTP331	ltpFR2	21	n/a	n/a	n/a	16	17	6	8	3
2065974	PROB	n/a	LTP331	ltpFR2	21	n/a	n/a	n/a	16	13	2	8	3
2067240	PROB	n/a	LTP331	ltpFR2	21	n/a	n/a	n/a	16	17	9	1	7
2068473	PROB	n/a	LTP331	ltpFR2	21	n/a	n/a	n/a	16	17	9	3	5
2069922	PROB	n/a	LTP331	ltpFR2	21	n/a	n/a	n/a	16	18	9	9	9
2071371	PROB	n/a	LTP331	ltpFR2	21	n/a	n/a	n/a	16	11	4	5	2
2072937	PROB	n/a	LTP331	ltpFR2	21	n/a	n/a	n/a	16	7	3	2	2
2075086	PROB	n/a	LTP331	ltpFR2	21	n/a	n/a	n/a	16	15	4	8	3
2076335	PROB	n/a	LTP331	ltpFR2	21	n/a	n/a	n/a	16	10	7	1	2
2077767	PROB	n/a	LTP331	ltpFR2	21	n/a	n/a	n/a	16	21	9	5	7
2079001	PROB	n/a	LTP331	ltpFR2	21	n/a	n/a	n/a	16	10	3	6	1
2080084	PROB	n/a	LTP331	ltpFR2	21	n/a	n/a	n/a	16	20	9	2	9
2083185	STOP	n/a	LTP331	ltpFR2	21	n/a	n/a	n/a	16	n/a	n/a	n/a	n/a
2085964	REC_START	n/a	LTP331	ltpFR2	21	11	n/a	n/a	n/a	n/a	0	0	0
2100136	REC_WORD	wordpools/wasnorm_wordpool_576.txt	LTP331	ltpFR2	21	11	SHELTER	1282	n/a	n/a	0	0	0
2102806	REC_WORD	wordpools/wasnorm_wordpool_576.txt	LTP331	ltpFR2	21	11	STAKE	1368	n/a	n/a	0	0	0
2103755	REC_WORD	wordpools/wasnorm_wordpool_576.txt	LTP331	ltpFR2	21	11	TURTLE	1522	n/a	n/a	0	0	0
2104432	REC_WORD	wordpools/wasnorm_wordpool_576.txt	LTP331	ltpFR2	21	11	SLUG	1329	n/a	n/a	0	0	0
2105170	REC_WORD	wordpools/wasnorm_wordpool_576.txt	LTP331	ltpFR2	21	11	SNAIL	1332	n/a	n/a	0	0	0
2108523	REC_WORD	wordpools/wasnorm_wordpool_576.txt	LTP331	ltpFR2	21	11	LOFT	840	n/a	n/a	0	0	0
2109322	REC_WORD	wordpools/wasnorm_wordpool_576.txt	LTP331	ltpFR2	21	11	BINDER	127	n/a	n/a	0	0	0
2109891	REC_WORD	wordpools/wasnorm_wordpool_576.txt	LTP331	ltpFR2	21	11	APPLE	33	n/a	n/a	0	0	0
2112830	REC_WORD	wordpools/wasnorm_wordpool_576.txt	LTP331	ltpFR2	21	11	BEEF	113	n/a	n/a	0	0	0
2113481	REC_WORD	wordpools/wasnorm_wordpool_576.txt	LTP331	ltpFR2	21	11	POET	1095	n/a	n/a	0	0	0
2176436	WORD	wordpools/wasnorm_wordpool_576.txt	LTP331	ltpFR2	21	12	SPIDER	1351	n/a	n/a	0	0	0
2179001	WORD	wordpools/wasnorm_wordpool_576.txt	LTP331	ltpFR2	21	12	SUNSET	1408	n/a	n/a	0	0	0
2181699	WORD	wordpools/wasnorm_wordpool_576.txt	LTP331	ltpFR2	21	12	SUNRISE	1407	n/a	n/a	0	0	0
2184282	WORD	wordpools/wasnorm_wordpool_576.txt	LTP331	ltpFR2	21	12	PALACE	1006	n/a	n/a	0	0	0
2186713	WORD	wordpools/wasnorm_wordpool_576.txt	LTP331	ltpFR2	21	12	HORSE	719	n/a	n/a	0	0	0
2189163	WORD	wordpools/wasnorm_wordpool_576.txt	LTP331	ltpFR2	21	12	PORK	1108	n/a	n/a	0	0	0
2191660	WORD	wordpools/wasnorm_wordpool_576.txt	LTP331	ltpFR2	21	12	CROWN	415	n/a	n/a	0	0	0
2194427	WORD	wordpools/wasnorm_wordpool_576.txt	LTP331	ltpFR2	21	12	QUARTER	1148	n/a	n/a	0	0	0
2196892	WORD	wordpools/wasnorm_wordpool_576.txt	LTP331	ltpFR2	21	12	LIVER	833	n/a	n/a	0	0	0
2199524	WORD	wordpools/wasnorm_wordpool_576.txt	LTP331	ltpFR2	21	12	KIDNEY	776	n/a	n/a	0	0	0
2202256	WORD	wordpools/wasnorm_wordpool_576.txt	LTP331	ltpFR2	21	12	ORANGE	980	n/a	n/a	0	0	0
2205005	WORD	wordpools/wasnorm_wordpool_576.txt	LTP331	ltpFR2	21	12	PUPPY	1144	n/a	n/a	0	0	0
2207652	WORD	wordpools/wasnorm_wordpool_576.txt	LTP331	ltpFR2	21	12	GRAPE	654	n/a	n/a	0	0	0
2210319	WORD	wordpools/wasnorm_wordpool_576.txt	LTP331	ltpFR2	21	12	PRIMATE	1123	n/a	n/a	0	0	0
2213051	WORD	wordpools/wasnorm_wordpool_576.txt	LTP331	ltpFR2	21	12	DAISY	435	n/a	n/a	0	0	0
2215565	WORD	wordpools/wasnorm_wordpool_576.txt	LTP331	ltpFR2	21	12	NOMAD	955	n/a	n/a	0	0	0
2218115	WORD	wordpools/wasnorm_wordpool_576.txt	LTP331	ltpFR2	21	12	SCULPTURE	1258	n/a	n/a	0	0	0
2220914	WORD	wordpools/wasnorm_wordpool_576.txt	LTP331	ltpFR2	21	12	PICTURE	1061	n/a	n/a	0	0	0
2223644	WORD	wordpools/wasnorm_wordpool_576.txt	LTP331	ltpFR2	21	12	HEART	697	n/a	n/a	0	0	0
2226111	WORD	wordpools/wasnorm_wordpool_576.txt	LTP331	ltpFR2	21	12	CHAUFFEUR	283	n/a	n/a	0	0	0
2228725	WORD	wordpools/wasnorm_wordpool_576.txt	LTP331	ltpFR2	21	12	COWBOY	395	n/a	n/a	0	0	0
2231308	WORD	wordpools/wasnorm_wordpool_576.txt	LTP331	ltpFR2	21	12	BACON	67	n/a	n/a	0	0	0
2233890	WORD	wordpools/wasnorm_wordpool_576.txt	LTP331	ltpFR2	21	12	SHOVEL	1295	n/a	n/a	0	0	0
2236339	WORD	wordpools/wasnorm_wordpool_576.txt	LTP331	ltpFR2	21	12	MARSH	874	n/a	n/a	0	0	0
2237955	START	n/a	LTP331	ltpFR2	21	n/a	n/a	n/a	17	n/a	n/a	n/a	n/a
2238969	DISTRACTOR	n/a	LTP331	ltpFR2	21	12	n/a	n/a	n/a	n/a	0	0	0
2238971	PROB	n/a	LTP331	ltpFR2	21	n/a	n/a	n/a	17	12	5	1	6
2242336	PROB	n/a	LTP331	ltpFR2	21	n/a	n/a	n/a	17	1	5	7	7
2245834	PROB	n/a	LTP331	ltpFR2	21	n/a	n/a	n/a	17	10	7	2	1
2247549	PROB	n/a	LTP331	ltpFR2	21	n/a	n/a	n/a	17	7	2	1	4
2249016	PROB	n/a	LTP331	ltpFR2	21	n/a	n/a	n/a	17	11	2	1	8
2250332	PROB	n/a	LTP331	ltpFR2	21	n/a	n/a	n/a	17	19	5	5	9
2252165	PROB	n/a	LTP331	ltpFR2	21	n/a	n/a	n/a	17	20	7	8	5
2253813	PROB	n/a	LTP331	ltpFR2	21	n/a	n/a	n/a	17	7	2	4	1
2255213	PROB	n/a	LTP331	ltpFR2	21	n/a	n/a	n/a	17	14	2	7	7
2256879	PROB	n/a	LTP331	ltpFR2	21	n/a	n/a	n/a	17	12	9	2	1
2258278	PROB	n/a	LTP331	ltpFR2	21	n/a	n/a	n/a	17	5	2	2	1
2259593	PROB	n/a	LTP331	ltpFR2	21	n/a	n/a	n/a	17	6	1	3	2
2261864	STOP	n/a	LTP331	ltpFR2	21	n/a	n/a	n/a	17	n/a	n/a	n/a	n/a
2263809	REC_START	n/a	LTP331	ltpFR2	21	12	n/a	n/a	n/a	n/a	0	0	0
2272044	REC_WORD	wordpools/wasnorm_wordpool_576.txt	LTP331	ltpFR2	21	12	SPIDER	1351	n/a	n/a	0	0	0
2274383	REC_WORD	wordpools/wasnorm_wordpool_576.txt	LTP331	ltpFR2	21	12	SUNSET	1408	n/a	n/a	0	0	0
2275005	REC_WORD	wordpools/wasnorm_wordpool_576.txt	LTP331	ltpFR2	21	12	SUNRISE	1407	n/a	n/a	0	0	0
2275779	REC_WORD	wordpools/wasnorm_wordpool_576.txt	LTP331	ltpFR2	21	12	PALACE	1006	n/a	n/a	0	0	0
2276372	REC_WORD	wordpools/wasnorm_wordpool_576.txt	LTP331	ltpFR2	21	12	HORSE	719	n/a	n/a	0	0	0
2278412	REC_WORD	wordpools/wasnorm_wordpool_576.txt	LTP331	ltpFR2	21	12	PORK	1108	n/a	n/a	0	0	0
2282044	REC_WORD	wordpools/wasnorm_wordpool_576.txt	LTP331	ltpFR2	21	12	CROWN	415	n/a	n/a	0	0	0
2283046	REC_WORD	wordpools/wasnorm_wordpool_576.txt	LTP331	ltpFR2	21	12	QUARTER	1148	n/a	n/a	0	0	0
2283591	REC_WORD	wordpools/wasnorm_wordpool_576.txt	LTP331	ltpFR2	21	12	LIVER	833	n/a	n/a	0	0	0
2284056	REC_WORD	wordpools/wasnorm_wordpool_576.txt	LTP331	ltpFR2	21	12	KIDNEY	776	n/a	n/a	0	0	0
2285845	REC_WORD	wordpools/wasnorm_wordpool_576.txt	LTP331	ltpFR2	21	12	ORANGE	980	n/a	n/a	0	0	0
2286466	REC_WORD	wordpools/wasnorm_wordpool_576.txt	LTP331	ltpFR2	21	12	PUPPY	1144	n/a	n/a	0	0	0
2287913	REC_WORD	wordpools/wasnorm_wordpool_576.txt	LTP331	ltpFR2	21	12	GRAPE	654	n/a	n/a	0	0	0
2288550	REC_WORD	wordpools/wasnorm_wordpool_576.txt	LTP331	ltpFR2	21	12	PRIMATE	1123	n/a	n/a	0	0	0
2290473	REC_WORD	wordpools/wasnorm_wordpool_576.txt	LTP331	ltpFR2	21	12	DAISY	435	n/a	n/a	0	0	0
2292226	REC_WORD	wordpools/wasnorm_wordpool_576.txt	LTP331	ltpFR2	21	12	COWBOY	395	n/a	n/a	0	0	0
2292816	REC_WORD	wordpools/wasnorm_wordpool_576.txt	LTP331	ltpFR2	21	12	CHAUFFEUR	283	n/a	n/a	0	0	0
2293590	REC_WORD	wordpools/wasnorm_wordpool_576.txt	LTP331	ltpFR2	21	12	BACON	67	n/a	n/a	0	0	0
2296817	REC_WORD	wordpools/wasnorm_wordpool_576.txt	LTP331	ltpFR2	21	12	MARSH	874	n/a	n/a	0	0	0
2297412	REC_WORD	wordpools/wasnorm_wordpool_576.txt	LTP331	ltpFR2	21	12	SHOVEL	1295	n/a	n/a	0	0	0
2322760	REC_WORD	wordpools/wasnorm_wordpool_576.txt	LTP331	ltpFR2	21	12	SCULPTURE	1258	n/a	n/a	0	0	0
2324571	REC_WORD	wordpools/wasnorm_wordpool_576.txt	LTP331	ltpFR2	21	12	HEART	697	n/a	n/a	0	0	0
2325897	REC_WORD	wordpools/wasnorm_wordpool_576.txt	LTP331	ltpFR2	21	12	PICTURE	1061	n/a	n/a	0	0	0
2354297	WORD	wordpools/wasnorm_wordpool_576.txt	LTP331	ltpFR2	21	13	COOKBOOK	373	n/a	n/a	0	0	0
2356828	WORD	wordpools/wasnorm_wordpool_576.txt	LTP331	ltpFR2	21	13	PROTON	1132	n/a	n/a	0	0	0
2359528	WORD	wordpools/wasnorm_wordpool_576.txt	LTP331	ltpFR2	21	13	DONOR	485	n/a	n/a	0	0	0
2362193	WORD	wordpools/wasnorm_wordpool_576.txt	LTP331	ltpFR2	21	13	ZIPPER	1636	n/a	n/a	0	0	0
2364874	WORD	wordpools/wasnorm_wordpool_576.txt	LTP331	ltpFR2	21	13	DRESS	495	n/a	n/a	0	0	0
2367424	WORD	wordpools/wasnorm_wordpool_576.txt	LTP331	ltpFR2	21	13	MISTER	901	n/a	n/a	0	0	0
2369940	WORD	wordpools/wasnorm_wordpool_576.txt	LTP331	ltpFR2	21	13	ZEBRA	1635	n/a	n/a	0	0	0
2372687	WORD	wordpools/wasnorm_wordpool_576.txt	LTP331	ltpFR2	21	13	BRANCH	168	n/a	n/a	0	0	0
2375170	WORD	wordpools/wasnorm_wordpool_576.txt	LTP331	ltpFR2	21	13	SHRUB	1299	n/a	n/a	0	0	0
2377818	WORD	wordpools/wasnorm_wordpool_576.txt	LTP331	ltpFR2	21	13	FIREPLACE	570	n/a	n/a	0	0	0
2380533	WORD	wordpools/wasnorm_wordpool_576.txt	LTP331	ltpFR2	21	13	JURY	766	n/a	n/a	0	0	0
2383066	WORD	wordpools/wasnorm_wordpool_576.txt	LTP331	ltpFR2	21	13	TREAT	1501	n/a	n/a	0	0	0
2385714	WORD	wordpools/wasnorm_wordpool_576.txt	LTP331	ltpFR2	21	13	SNACK	1331	n/a	n/a	0	0	0
2388330	WORD	wordpools/wasnorm_wordpool_576.txt	LTP331	ltpFR2	21	13	RUST	1219	n/a	n/a	0	0	0
2391012	WORD	wordpools/wasnorm_wordpool_576.txt	LTP331	ltpFR2	21	13	MILDEW	893	n/a	n/a	0	0	0
2393478	WORD	wordpools/wasnorm_wordpool_576.txt	LTP331	ltpFR2	21	13	TRIBE	1505	n/a	n/a	0	0	0
2395960	WORD	wordpools/wasnorm_wordpool_576.txt	LTP331	ltpFR2	21	13	KETCHUP	771	n/a	n/a	0	0	0
2398708	WORD	wordpools/wasnorm_wordpool_576.txt	LTP331	ltpFR2	21	13	OYSTER	995	n/a	n/a	0	0	0
2401524	WORD	wordpools/wasnorm_wordpool_576.txt	LTP331	ltpFR2	21	13	TERMITE	1451	n/a	n/a	0	0	0
2404289	WORD	wordpools/wasnorm_wordpool_576.txt	LTP331	ltpFR2	21	13	BREAST	171	n/a	n/a	0	0	0
2406905	WORD	wordpools/wasnorm_wordpool_576.txt	LTP331	ltpFR2	21	13	SUPPER	1411	n/a	n/a	0	0	0
2409503	WORD	wordpools/wasnorm_wordpool_576.txt	LTP331	ltpFR2	21	13	MOTOR	922	n/a	n/a	0	0	0
2411969	WORD	wordpools/wasnorm_wordpool_576.txt	LTP331	ltpFR2	21	13	TUBA	1515	n/a	n/a	0	0	0
2414683	WORD	wordpools/wasnorm_wordpool_576.txt	LTP331	ltpFR2	21	13	COCOON	339	n/a	n/a	0	0	0
2416300	START	n/a	LTP331	ltpFR2	21	n/a	n/a	n/a	18	n/a	n/a	n/a	n/a
2417477	DISTRACTOR	n/a	LTP331	ltpFR2	21	13	n/a	n/a	n/a	n/a	0	0	0
2417483	PROB	n/a	LTP331	ltpFR2	21	n/a	n/a	n/a	18	18	8	2	8
2419714	PROB	n/a	LTP331	ltpFR2	21	n/a	n/a	n/a	18	14	2	6	6
2421331	PROB	n/a	LTP331	ltpFR2	21	n/a	n/a	n/a	18	13	4	5	4
2424628	PROB	n/a	LTP331	ltpFR2	21	n/a	n/a	n/a	18	13	6	1	6
2427643	PROB	n/a	LTP331	ltpFR2	21	n/a	n/a	n/a	18	9	2	1	6
2429310	PROB	n/a	LTP331	ltpFR2	21	n/a	n/a	n/a	18	16	4	8	4
2430575	PROB	n/a	LTP331	ltpFR2	21	n/a	n/a	n/a	18	11	6	2	3
2432042	PROB	n/a	LTP331	ltpFR2	21	n/a	n/a	n/a	18	10	1	5	4
2433574	PROB	n/a	LTP331	ltpFR2	21	n/a	n/a	n/a	18	13	1	7	5
2435907	PROB	n/a	LTP331	ltpFR2	21	n/a	n/a	n/a	18	18	9	2	7
2437323	PROB	n/a	LTP331	ltpFR2	21	n/a	n/a	n/a	18	15	4	7	4
2440299	STOP	n/a	LTP331	ltpFR2	21	n/a	n/a	n/a	18	n/a	n/a	n/a	n/a
2442154	REC_START	n/a	LTP331	ltpFR2	21	13	n/a	n/a	n/a	n/a	0	0	0
2447477	REC_WORD	wordpools/wasnorm_wordpool_576.txt	LTP331	ltpFR2	21	13	PROTON	1132	n/a	n/a	0	0	0
2448557	REC_WORD	wordpools/wasnorm_wordpool_576.txt	LTP331	ltpFR2	21	13	COOKBOOK	373	n/a	n/a	0	0	0
2449518	REC_WORD	wordpools/wasnorm_wordpool_576.txt	LTP331	ltpFR2	21	13	DONOR	485	n/a	n/a	0	0	0
2451882	REC_WORD	wordpools/wasnorm_wordpool_576.txt	LTP331	ltpFR2	21	13	ZIPPER	1636	n/a	n/a	0	0	0
2453534	REC_WORD	wordpools/wasnorm_wordpool_576.txt	LTP331	ltpFR2	21	13	DRESS	495	n/a	n/a	0	0	0
2458036	REC_WORD	wordpools/wasnorm_wordpool_576.txt	LTP331	ltpFR2	21	13	MISTER	901	n/a	n/a	0	0	0
2458838	REC_WORD	wordpools/wasnorm_wordpool_576.txt	LTP331	ltpFR2	21	13	ZEBRA	1635	n/a	n/a	0	0	0
2459452	REC_WORD	wordpools/wasnorm_wordpool_576.txt	LTP331	ltpFR2	21	13	BRANCH	168	n/a	n/a	0	0	0
2461406	REC_WORD	wordpools/wasnorm_wordpool_576.txt	LTP331	ltpFR2	21	13	SHRUB	1299	n/a	n/a	0	0	0
2462590	REC_WORD	wordpools/wasnorm_wordpool_576.txt	LTP331	ltpFR2	21	13	FIREPLACE	570	n/a	n/a	0	0	0
2463740	REC_WORD	wordpools/wasnorm_wordpool_576.txt	LTP331	ltpFR2	21	13	JURY	766	n/a	n/a	0	0	0
2464143	REC_WORD	wordpools/wasnorm_wordpool_576.txt	LTP331	ltpFR2	21	13	SNACK	1331	n/a	n/a	0	0	0
2464854	REC_WORD	wordpools/wasnorm_wordpool_576.txt	LTP331	ltpFR2	21	13	TREAT	1501	n/a	n/a	0	0	0
2471385	REC_WORD	wordpools/wasnorm_wordpool_576.txt	LTP331	ltpFR2	21	13	BREAST	171	n/a	n/a	0	0	0
2472436	REC_WORD_VV	wordpools/wasnorm_wordpool_576.txt	LTP331	ltpFR2	21	13	<>	-1	n/a	n/a	0	0	0
2473061	REC_WORD	wordpools/wasnorm_wordpool_576.txt	LTP331	ltpFR2	21	13	TRIBE	1505	n/a	n/a	0	0	0
2474209	REC_WORD	wordpools/wasnorm_wordpool_576.txt	LTP331	ltpFR2	21	13	MILDEW	893	n/a	n/a	0	0	0
2479218	REC_WORD	wordpools/wasnorm_wordpool_576.txt	LTP331	ltpFR2	21	13	OYSTER	995	n/a	n/a	0	0	0
2479943	REC_WORD	wordpools/wasnorm_wordpool_576.txt	LTP331	ltpFR2	21	13	KETCHUP	771	n/a	n/a	0	0	0
2480519	REC_WORD	wordpools/wasnorm_wordpool_576.txt	LTP331	ltpFR2	21	13	TERMITE	1451	n/a	n/a	0	0	0
2481381	REC_WORD	wordpools/wasnorm_wordpool_576.txt	LTP331	ltpFR2	21	13	SUPPER	1411	n/a	n/a	0	0	0
2484226	REC_WORD	wordpools/wasnorm_wordpool_576.txt	LTP331	ltpFR2	21	13	MOTOR	922	n/a	n/a	0	0	0
2485308	REC_WORD	wordpools/wasnorm_wordpool_576.txt	LTP331	ltpFR2	21	13	BREAST	171	n/a	n/a	0	0	0
2488817	REC_WORD	wordpools/wasnorm_wordpool_576.txt	LTP331	ltpFR2	21	13	TUBA	1515	n/a	n/a	0	0	0
2489751	REC_WORD	wordpools/wasnorm_wordpool_576.txt	LTP331	ltpFR2	21	13	COCOON	339	n/a	n/a	0	0	0
2532608	DISTRACTOR	n/a	LTP331	ltpFR2	21	14	n/a	n/a	n/a	n/a	0	0	0
2532608	START	n/a	LTP331	ltpFR2	21	n/a	n/a	n/a	19	n/a	n/a	n/a	n/a
2532625	PROB	n/a	LTP331	ltpFR2	21	n/a	n/a	n/a	19	11	3	6	2
2534557	PROB	n/a	LTP331	ltpFR2	21	n/a	n/a	n/a	19	17	3	6	8
2536374	PROB	n/a	LTP331	ltpFR2	21	n/a	n/a	n/a	19	9	2	1	6
2539022	PROB	n/a	LTP331	ltpFR2	21	n/a	n/a	n/a	19	21	6	7	8
2540720	PROB	n/a	LTP331	ltpFR2	21	n/a	n/a	n/a	19	7	2	2	3
2542736	PROB	n/a	LTP331	ltpFR2	21	n/a	n/a	n/a	19	18	9	3	6
2544153	PROB	n/a	LTP331	ltpFR2	21	n/a	n/a	n/a	19	11	3	1	7
2545551	PROB	n/a	LTP331	ltpFR2	21	n/a	n/a	n/a	19	2	9	9	7
2547501	PROB	n/a	LTP331	ltpFR2	21	n/a	n/a	n/a	19	11	6	3	2
2548917	PROB	n/a	LTP331	ltpFR2	21	n/a	n/a	n/a	19	8	2	1	5
2550150	PROB	n/a	LTP331	ltpFR2	21	n/a	n/a	n/a	19	12	2	4	6
2551316	PROB	n/a	LTP331	ltpFR2	21	n/a	n/a	n/a	19	15	6	4	5
2552899	PROB	n/a	LTP331	ltpFR2	21	n/a	n/a	n/a	19	10	3	4	3
2554165	PROB	n/a	LTP331	ltpFR2	21	n/a	n/a	n/a	19	18	6	6	6
2555273	STOP	n/a	LTP331	ltpFR2	21	n/a	n/a	n/a	19	n/a	n/a	n/a	n/a
2557812	WORD	wordpools/wasnorm_wordpool_576.txt	LTP331	ltpFR2	21	14	BUNNY	198	n/a	n/a	0	0	0
2560594	WORD	wordpools/wasnorm_wordpool_576.txt	LTP331	ltpFR2	21	14	LODGE	839	n/a	n/a	0	0	0
2563144	WORD	wordpools/wasnorm_wordpool_576.txt	LTP331	ltpFR2	21	14	CABIN	211	n/a	n/a	0	0	0
2565575	WORD	wordpools/wasnorm_wordpool_576.txt	LTP331	ltpFR2	21	14	HATCHET	691	n/a	n/a	0	0	0
2568224	WORD	wordpools/wasnorm_wordpool_576.txt	LTP331	ltpFR2	21	14	SOFTBALL	1343	n/a	n/a	0	0	0
2570973	WORD	wordpools/wasnorm_wordpool_576.txt	LTP331	ltpFR2	21	14	SCOTCH	1251	n/a	n/a	0	0	0
2573587	WORD	wordpools/wasnorm_wordpool_576.txt	LTP331	ltpFR2	21	14	BIKE	125	n/a	n/a	0	0	0
2576137	WORD	wordpools/wasnorm_wordpool_576.txt	LTP331	ltpFR2	21	14	CATCHER	258	n/a	n/a	0	0	0
2578668	WORD	wordpools/wasnorm_wordpool_576.txt	LTP331	ltpFR2	21	14	PEBBLE	1035	n/a	n/a	0	0	0
2581351	WORD	wordpools/wasnorm_wordpool_576.txt	LTP331	ltpFR2	21	14	VIKING	1565	n/a	n/a	0	0	0
2584033	WORD	wordpools/wasnorm_wordpool_576.txt	LTP331	ltpFR2	21	14	POWDER	1117	n/a	n/a	0	0	0
2586748	WORD	wordpools/wasnorm_wordpool_576.txt	LTP331	ltpFR2	21	14	FOOTBALL	591	n/a	n/a	0	0	0
2589414	WORD	wordpools/wasnorm_wordpool_576.txt	LTP331	ltpFR2	21	14	SCISSORS	1250	n/a	n/a	0	0	0
2592013	WORD	wordpools/wasnorm_wordpool_576.txt	LTP331	ltpFR2	21	14	BLUEPRINT	142	n/a	n/a	0	0	0
2594710	WORD	wordpools/wasnorm_wordpool_576.txt	LTP331	ltpFR2	21	14	HUSBAND	728	n/a	n/a	0	0	0
2597160	WORD	wordpools/wasnorm_wordpool_576.txt	LTP331	ltpFR2	21	14	SPOUSE	1358	n/a	n/a	0	0	0
2599624	WORD	wordpools/wasnorm_wordpool_576.txt	LTP331	ltpFR2	21	14	SEAL	1262	n/a	n/a	0	0	0
2602241	WORD	wordpools/wasnorm_wordpool_576.txt	LTP331	ltpFR2	21	14	CRATER	400	n/a	n/a	0	0	0
2605006	WORD	wordpools/wasnorm_wordpool_576.txt	LTP331	ltpFR2	21	14	VALVE	1546	n/a	n/a	0	0	0
2607438	WORD	wordpools/wasnorm_wordpool_576.txt	LTP331	ltpFR2	21	14	PLAYGROUND	1087	n/a	n/a	0	0	0
2610004	WORD	wordpools/wasnorm_wordpool_576.txt	LTP331	ltpFR2	21	14	GLOBE	641	n/a	n/a	0	0	0
2612668	WORD	wordpools/wasnorm_wordpool_576.txt	LTP331	ltpFR2	21	14	MARS	873	n/a	n/a	0	0	0
2615334	WORD	wordpools/wasnorm_wordpool_576.txt	LTP331	ltpFR2	21	14	ROOSTER	1209	n/a	n/a	0	0	0
2618083	WORD	wordpools/wasnorm_wordpool_576.txt	LTP331	ltpFR2	21	14	SADDLE	1221	n/a	n/a	0	0	0
2619698	START	n/a	LTP331	ltpFR2	21	n/a	n/a	n/a	20	n/a	n/a	n/a	n/a
2620545	DISTRACTOR	n/a	LTP331	ltpFR2	21	14	n/a	n/a	n/a	n/a	0	0	0
2620547	PROB	n/a	LTP331	ltpFR2	21	n/a	n/a	n/a	20	9	2	5	2
2622281	PROB	n/a	LTP331	ltpFR2	21	n/a	n/a	n/a	20	18	8	5	5
2623812	PROB	n/a	LTP331	ltpFR2	21	n/a	n/a	n/a	20	11	1	6	4
2625030	PROB	n/a	LTP331	ltpFR2	21	n/a	n/a	n/a	20	22	9	5	8
2626379	PROB	n/a	LTP331	ltpFR2	21	n/a	n/a	n/a	20	14	3	5	6
2628295	PROB	n/a	LTP331	ltpFR2	21	n/a	n/a	n/a	20	11	5	2	4
2629477	PROB	n/a	LTP331	ltpFR2	21	n/a	n/a	n/a	20	17	9	6	2
2631193	PROB	n/a	LTP331	ltpFR2	21	n/a	n/a	n/a	20	16	1	8	7
2632858	PROB	n/a	LTP331	ltpFR2	21	n/a	n/a	n/a	20	15	9	1	4
2634208	PROB	n/a	LTP331	ltpFR2	21	n/a	n/a	n/a	20	15	2	2	1
2636007	PROB	n/a	LTP331	ltpFR2	21	n/a	n/a	n/a	20	14	2	9	3
2638040	PROB	n/a	LTP331	ltpFR2	21	n/a	n/a	n/a	20	19	6	6	7
2639289	PROB	n/a	LTP331	ltpFR2	21	n/a	n/a	n/a	20	12	2	7	3
2640621	PROB	n/a	LTP331	ltpFR2	21	n/a	n/a	n/a	20	13	3	2	8
2643698	STOP	n/a	LTP331	ltpFR2	21	n/a	n/a	n/a	20	n/a	n/a	n/a	n/a
2645536	REC_START	n/a	LTP331	ltpFR2	21	14	n/a	n/a	n/a	n/a	0	0	0
2648494	REC_WORD	wordpools/wasnorm_wordpool_576.txt	LTP331	ltpFR2	21	14	SCOTCH	1251	n/a	n/a	0	0	0
2649723	REC_WORD	wordpools/wasnorm_wordpool_576.txt	LTP331	ltpFR2	21	14	BLUEPRINT	142	n/a	n/a	0	0	0
2650379	REC_WORD	wordpools/wasnorm_wordpool_576.txt	LTP331	ltpFR2	21	14	SEAL	1262	n/a	n/a	0	0	0
2651053	REC_WORD	wordpools/wasnorm_wordpool_576.txt	LTP331	ltpFR2	21	14	CRATER	400	n/a	n/a	0	0	0
2651761	REC_WORD	wordpools/wasnorm_wordpool_576.txt	LTP331	ltpFR2	21	14	BIKE	125	n/a	n/a	0	0	0
2654673	REC_WORD	wordpools/wasnorm_wordpool_576.txt	LTP331	ltpFR2	21	14	LODGE	839	n/a	n/a	0	0	0
2657493	REC_WORD	wordpools/wasnorm_wordpool_576.txt	LTP331	ltpFR2	21	14	SPOUSE	1358	n/a	n/a	0	0	0
2658357	REC_WORD	wordpools/wasnorm_wordpool_576.txt	LTP331	ltpFR2	21	14	CABIN	211	n/a	n/a	0	0	0
2736008	DISTRACTOR	n/a	LTP331	ltpFR2	21	15	n/a	n/a	n/a	n/a	0	0	0
2736008	START	n/a	LTP331	ltpFR2	21	n/a	n/a	n/a	21	n/a	n/a	n/a	n/a
2736024	PROB	n/a	LTP331	ltpFR2	21	n/a	n/a	n/a	21	20	8	7	5
2737823	PROB	n/a	LTP331	ltpFR2	21	n/a	n/a	n/a	21	13	5	7	1
2739240	PROB	n/a	LTP331	ltpFR2	21	n/a	n/a	n/a	21	15	1	9	5
2740356	PROB	n/a	LTP331	ltpFR2	21	n/a	n/a	n/a	21	15	6	8	1
2741505	PROB	n/a	LTP331	ltpFR2	21	n/a	n/a	n/a	21	11	1	2	8
2742570	PROB	n/a	LTP331	ltpFR2	21	n/a	n/a	n/a	21	21	6	5	9
2743954	PROB	n/a	LTP331	ltpFR2	21	n/a	n/a	n/a	21	15	7	3	5
2745353	PROB	n/a	LTP331	ltpFR2	21	n/a	n/a	n/a	21	22	9	8	5
2747152	PROB	n/a	LTP331	ltpFR2	21	n/a	n/a	n/a	21	14	2	7	5
2748600	PROB	n/a	LTP331	ltpFR2	21	n/a	n/a	n/a	21	17	3	7	7
2749850	PROB	n/a	LTP331	ltpFR2	21	n/a	n/a	n/a	21	21	5	9	7
2751799	PROB	n/a	LTP331	ltpFR2	21	n/a	n/a	n/a	21	13	1	8	4
2753233	PROB	n/a	LTP331	ltpFR2	21	n/a	n/a	n/a	21	16	3	5	8
2754581	PROB	n/a	LTP331	ltpFR2	21	n/a	n/a	n/a	21	18	5	6	7
2755797	PROB	n/a	LTP331	ltpFR2	21	n/a	n/a	n/a	21	21	8	7	6
2757480	PROB	n/a	LTP331	ltpFR2	21	n/a	n/a	n/a	21	17	2	8	7
2759193	STOP	n/a	LTP331	ltpFR2	21	n/a	n/a	n/a	21	n/a	n/a	n/a	n/a
2760962	WORD	wordpools/wasnorm_wordpool_576.txt	LTP331	ltpFR2	21	15	CLIMBER	323	n/a	n/a	0	0	0
2763477	WORD	wordpools/wasnorm_wordpool_576.txt	LTP331	ltpFR2	21	15	CAPTIVE	240	n/a	n/a	0	0	0
2765959	WORD	wordpools/wasnorm_wordpool_576.txt	LTP331	ltpFR2	21	15	PARENT	1013	n/a	n/a	0	0	0
2768458	WORD	wordpools/wasnorm_wordpool_576.txt	LTP331	ltpFR2	21	15	PERFUME	1049	n/a	n/a	0	0	0
2771157	WORD	wordpools/wasnorm_wordpool_576.txt	LTP331	ltpFR2	21	15	DORM	488	n/a	n/a	0	0	0
2773621	WORD	wordpools/wasnorm_wordpool_576.txt	LTP331	ltpFR2	21	15	MILK	895	n/a	n/a	0	0	0
2776238	WORD	wordpools/wasnorm_wordpool_576.txt	LTP331	ltpFR2	21	15	BRANDY	169	n/a	n/a	0	0	0
2778819	WORD	wordpools/wasnorm_wordpool_576.txt	LTP331	ltpFR2	21	15	FRAGRANCE	599	n/a	n/a	0	0	0
2781352	WORD	wordpools/wasnorm_wordpool_576.txt	LTP331	ltpFR2	21	15	SUMMIT	1405	n/a	n/a	0	0	0
2783833	WORD	wordpools/wasnorm_wordpool_576.txt	LTP331	ltpFR2	21	15	MOP	916	n/a	n/a	0	0	0
2786548	WORD	wordpools/wasnorm_wordpool_576.txt	LTP331	ltpFR2	21	15	BUCKET	184	n/a	n/a	0	0	0
2789298	WORD	wordpools/wasnorm_wordpool_576.txt	LTP331	ltpFR2	21	15	PRINCE	1124	n/a	n/a	0	0	0
2791762	WORD	wordpools/wasnorm_wordpool_576.txt	LTP331	ltpFR2	21	15	BEAKER	104	n/a	n/a	0	0	0
2794462	WORD	wordpools/wasnorm_wordpool_576.txt	LTP331	ltpFR2	21	15	FRIEND	606	n/a	n/a	0	0	0
2797061	WORD	wordpools/wasnorm_wordpool_576.txt	LTP331	ltpFR2	21	15	LAVA	804	n/a	n/a	0	0	0
2799792	WORD	wordpools/wasnorm_wordpool_576.txt	LTP331	ltpFR2	21	15	CASKET	255	n/a	n/a	0	0	0
2802325	WORD	wordpools/wasnorm_wordpool_576.txt	LTP331	ltpFR2	21	15	GRAVE	658	n/a	n/a	0	0	0
2804823	WORD	wordpools/wasnorm_wordpool_576.txt	LTP331	ltpFR2	21	15	COUSIN	392	n/a	n/a	0	0	0
2807456	WORD	wordpools/wasnorm_wordpool_576.txt	LTP331	ltpFR2	21	15	CITRUS	313	n/a	n/a	0	0	0
2810188	WORD	wordpools/wasnorm_wordpool_576.txt	LTP331	ltpFR2	21	15	SHORTCAKE	1292	n/a	n/a	0	0	0
2812869	WORD	wordpools/wasnorm_wordpool_576.txt	LTP331	ltpFR2	21	15	QUEEN	1149	n/a	n/a	0	0	0
2815352	WORD	wordpools/wasnorm_wordpool_576.txt	LTP331	ltpFR2	21	15	PILOT	1070	n/a	n/a	0	0	0
2818050	WORD	wordpools/wasnorm_wordpool_576.txt	LTP331	ltpFR2	21	15	WARDROBE	1587	n/a	n/a	0	0	0
2820581	WORD	wordpools/wasnorm_wordpool_576.txt	LTP331	ltpFR2	21	15	MACHINE	852	n/a	n/a	0	0	0
2822199	START	n/a	LTP331	ltpFR2	21	n/a	n/a	n/a	22	n/a	n/a	n/a	n/a
2823015	DISTRACTOR	n/a	LTP331	ltpFR2	21	15	n/a	n/a	n/a	n/a	0	0	0
2823031	PROB	n/a	LTP331	ltpFR2	21	n/a	n/a	n/a	22	14	1	6	7
2825380	PROB	n/a	LTP331	ltpFR2	21	n/a	n/a	n/a	22	12	7	3	2
2826429	PROB	n/a	LTP331	ltpFR2	21	n/a	n/a	n/a	22	18	7	8	3
2827912	PROB	n/a	LTP331	ltpFR2	21	n/a	n/a	n/a	22	20	9	9	2
2829610	PROB	n/a	LTP331	ltpFR2	21	n/a	n/a	n/a	22	10	2	6	2
2830927	PROB	n/a	LTP331	ltpFR2	21	n/a	n/a	n/a	22	22	7	8	7
2832592	PROB	n/a	LTP331	ltpFR2	21	n/a	n/a	n/a	22	15	5	9	1
2833841	PROB	n/a	LTP331	ltpFR2	21	n/a	n/a	n/a	22	18	3	6	9
2834992	PROB	n/a	LTP331	ltpFR2	21	n/a	n/a	n/a	22	10	2	3	5
2836491	PROB	n/a	LTP331	ltpFR2	21	n/a	n/a	n/a	22	13	2	3	8
2837941	PROB	n/a	LTP331	ltpFR2	21	n/a	n/a	n/a	22	21	6	9	6
2839406	PROB	n/a	LTP331	ltpFR2	21	n/a	n/a	n/a	22	20	6	9	5
2841522	PROB	n/a	LTP331	ltpFR2	21	n/a	n/a	n/a	22	13	5	7	1
2842737	PROB	n/a	LTP331	ltpFR2	21	n/a	n/a	n/a	22	10	1	7	3
2843820	PROB	n/a	LTP331	ltpFR2	21	n/a	n/a	n/a	22	17	8	7	2
2845353	STOP	n/a	LTP331	ltpFR2	21	n/a	n/a	n/a	22	n/a	n/a	n/a	n/a
2848019	REC_START	n/a	LTP331	ltpFR2	21	15	n/a	n/a	n/a	n/a	0	0	0
2849027	REC_WORD	wordpools/wasnorm_wordpool_576.txt	LTP331	ltpFR2	21	15	QUEEN	1149	n/a	n/a	0	0	0
2849984	REC_WORD	wordpools/wasnorm_wordpool_576.txt	LTP331	ltpFR2	21	15	PILOT	1070	n/a	n/a	0	0	0
2850929	REC_WORD	wordpools/wasnorm_wordpool_576.txt	LTP331	ltpFR2	21	15	WARDROBE	1587	n/a	n/a	0	0	0
2853819	REC_WORD	wordpools/wasnorm_wordpool_576.txt	LTP331	ltpFR2	21	15	MILK	895	n/a	n/a	0	0	0
2855799	REC_WORD	wordpools/wasnorm_wordpool_576.txt	LTP331	ltpFR2	21	15	DORM	488	n/a	n/a	0	0	0
2856847	REC_WORD	wordpools/wasnorm_wordpool_576.txt	LTP331	ltpFR2	21	15	PARENT	1013	n/a	n/a	0	0	0
2858788	REC_WORD	wordpools/wasnorm_wordpool_576.txt	LTP331	ltpFR2	21	15	CAPTIVE	240	n/a	n/a	0	0	0
2863004	REC_WORD	wordpools/wasnorm_wordpool_576.txt	LTP331	ltpFR2	21	15	CLIMBER	323	n/a	n/a	0	0	0
2938457	DISTRACTOR	n/a	LTP331	ltpFR2	21	16	n/a	n/a	n/a	n/a	0	0	0
2938458	START	n/a	LTP331	ltpFR2	21	n/a	n/a	n/a	23	n/a	n/a	n/a	n/a
2938474	PROB	n/a	LTP331	ltpFR2	21	n/a	n/a	n/a	23	17	6	7	4
2941173	PROB	n/a	LTP331	ltpFR2	21	n/a	n/a	n/a	23	26	9	9	8
2943005	PROB	n/a	LTP331	ltpFR2	21	n/a	n/a	n/a	23	13	8	3	2
2945204	PROB	n/a	LTP331	ltpFR2	21	n/a	n/a	n/a	23	13	7	3	3
2946886	PROB	n/a	LTP331	ltpFR2	21	n/a	n/a	n/a	23	20	7	6	7
2948502	PROB	n/a	LTP331	ltpFR2	21	n/a	n/a	n/a	23	18	3	6	9
2949834	PROB	n/a	LTP331	ltpFR2	21	n/a	n/a	n/a	23	13	1	3	9
2951467	PROB	n/a	LTP331	ltpFR2	21	n/a	n/a	n/a	23	22	9	6	7
2953500	PROB	n/a	LTP331	ltpFR2	21	n/a	n/a	n/a	23	11	3	6	2
2954765	PROB	n/a	LTP331	ltpFR2	21	n/a	n/a	n/a	23	25	7	9	9
2956764	PROB	n/a	LTP331	ltpFR2	21	n/a	n/a	n/a	23	17	9	2	6
2958514	PROB	n/a	LTP331	ltpFR2	21	n/a	n/a	n/a	23	7	2	2	3
2959779	PROB	n/a	LTP331	ltpFR2	21	n/a	n/a	n/a	23	13	4	5	4
2962097	STOP	n/a	LTP331	ltpFR2	21	n/a	n/a	n/a	23	n/a	n/a	n/a	n/a
2963512	WORD	wordpools/wasnorm_wordpool_576.txt	LTP331	ltpFR2	21	16	CATTLE	261	n/a	n/a	0	0	0
2966094	WORD	wordpools/wasnorm_wordpool_576.txt	LTP331	ltpFR2	21	16	GYMNAST	675	n/a	n/a	0	0	0
2968741	WORD	wordpools/wasnorm_wordpool_576.txt	LTP331	ltpFR2	21	16	COFFEE	341	n/a	n/a	0	0	0
2971258	WORD	wordpools/wasnorm_wordpool_576.txt	LTP331	ltpFR2	21	16	GARBAGE	622	n/a	n/a	0	0	0
2973822	WORD	wordpools/wasnorm_wordpool_576.txt	LTP331	ltpFR2	21	16	SALMON	1227	n/a	n/a	0	0	0
2976604	WORD	wordpools/wasnorm_wordpool_576.txt	LTP331	ltpFR2	21	16	JUGGLER	763	n/a	n/a	0	0	0
2979354	WORD	wordpools/wasnorm_wordpool_576.txt	LTP331	ltpFR2	21	16	BLOUSE	139	n/a	n/a	0	0	0
2981835	WORD	wordpools/wasnorm_wordpool_576.txt	LTP331	ltpFR2	21	16	SHELF	1280	n/a	n/a	0	0	0
2984334	WORD	wordpools/wasnorm_wordpool_576.txt	LTP331	ltpFR2	21	16	PASSAGE	1019	n/a	n/a	0	0	0
2986799	WORD	wordpools/wasnorm_wordpool_576.txt	LTP331	ltpFR2	21	16	COUNTY	389	n/a	n/a	0	0	0
2989547	WORD	wordpools/wasnorm_wordpool_576.txt	LTP331	ltpFR2	21	16	LONDON	843	n/a	n/a	0	0	0
2992280	WORD	wordpools/wasnorm_wordpool_576.txt	LTP331	ltpFR2	21	16	NAPKIN	937	n/a	n/a	0	0	0
2995029	WORD	wordpools/wasnorm_wordpool_576.txt	LTP331	ltpFR2	21	16	BATHTUB	100	n/a	n/a	0	0	0
2997677	WORD	wordpools/wasnorm_wordpool_576.txt	LTP331	ltpFR2	21	16	PATROL	1027	n/a	n/a	0	0	0
3000310	WORD	wordpools/wasnorm_wordpool_576.txt	LTP331	ltpFR2	21	16	PLIERS	1089	n/a	n/a	0	0	0
3002758	WORD	wordpools/wasnorm_wordpool_576.txt	LTP331	ltpFR2	21	16	SPONGE	1355	n/a	n/a	0	0	0
3005573	WORD	wordpools/wasnorm_wordpool_576.txt	LTP331	ltpFR2	21	16	SHORTS	1293	n/a	n/a	0	0	0
3008039	WORD	wordpools/wasnorm_wordpool_576.txt	LTP331	ltpFR2	21	16	TWEEZERS	1526	n/a	n/a	0	0	0
3010787	WORD	wordpools/wasnorm_wordpool_576.txt	LTP331	ltpFR2	21	16	NURSE	963	n/a	n/a	0	0	0
3013387	WORD	wordpools/wasnorm_wordpool_576.txt	LTP331	ltpFR2	21	16	PATIENT	1024	n/a	n/a	0	0	0
3015952	WORD	wordpools/wasnorm_wordpool_576.txt	LTP331	ltpFR2	21	16	JELLY	755	n/a	n/a	0	0	0
3018716	WORD	wordpools/wasnorm_wordpool_576.txt	LTP331	ltpFR2	21	16	OINTMENT	974	n/a	n/a	0	0	0
3021233	WORD	wordpools/wasnorm_wordpool_576.txt	LTP331	ltpFR2	21	16	TRUCK	1512	n/a	n/a	0	0	0
3023847	WORD	wordpools/wasnorm_wordpool_576.txt	LTP331	ltpFR2	21	16	ISLAND	745	n/a	n/a	0	0	0
3025464	START	n/a	LTP331	ltpFR2	21	n/a	n/a	n/a	24	n/a	n/a	n/a	n/a
3026609	DISTRACTOR	n/a	LTP331	ltpFR2	21	16	n/a	n/a	n/a	n/a	0	0	0
3026612	PROB	n/a	LTP331	ltpFR2	21	n/a	n/a	n/a	24	12	4	2	6
3028561	PROB	n/a	LTP331	ltpFR2	21	n/a	n/a	n/a	24	20	6	5	9
3030611	PROB	n/a	LTP331	ltpFR2	21	n/a	n/a	n/a	24	21	8	8	5
3032077	PROB	n/a	LTP331	ltpFR2	21	n/a	n/a	n/a	24	16	7	8	1
3033460	PROB	n/a	LTP331	ltpFR2	21	n/a	n/a	n/a	24	17	5	4	8
3035259	PROB	n/a	LTP331	ltpFR2	21	n/a	n/a	n/a	24	8	2	2	4
3036541	PROB	n/a	LTP331	ltpFR2	21	n/a	n/a	n/a	24	13	6	5	2
3037707	PROB	n/a	LTP331	ltpFR2	21	n/a	n/a	n/a	24	8	2	2	4
3039240	PROB	n/a	LTP331	ltpFR2	21	n/a	n/a	n/a	24	17	9	3	5
3041073	PROB	n/a	LTP331	ltpFR2	21	n/a	n/a	n/a	24	5	1	3	1
3042056	PROB	n/a	LTP331	ltpFR2	21	n/a	n/a	n/a	24	1	5	2	6
3043637	PROB	n/a	LTP331	ltpFR2	21	n/a	n/a	n/a	24	12	9	3	1
3045154	PROB	n/a	LTP331	ltpFR2	21	n/a	n/a	n/a	24	10	3	3	4
3046769	PROB	n/a	LTP331	ltpFR2	21	n/a	n/a	n/a	24	12	3	3	6
3048393	STOP	n/a	LTP331	ltpFR2	21	n/a	n/a	n/a	24	n/a	n/a	n/a	n/a
3051335	REC_START	n/a	LTP331	ltpFR2	21	16	n/a	n/a	n/a	n/a	0	0	0
3052190	REC_WORD	wordpools/wasnorm_wordpool_576.txt	LTP331	ltpFR2	21	16	TRUCK	1512	n/a	n/a	0	0	0
3053192	REC_WORD	wordpools/wasnorm_wordpool_576.txt	LTP331	ltpFR2	21	16	OINTMENT	974	n/a	n/a	0	0	0
3054830	REC_WORD	wordpools/wasnorm_wordpool_576.txt	LTP331	ltpFR2	21	16	CATTLE	261	n/a	n/a	0	0	0
3055414	REC_WORD	wordpools/wasnorm_wordpool_576.txt	LTP331	ltpFR2	21	16	GYMNAST	675	n/a	n/a	0	0	0
3056115	REC_WORD	wordpools/wasnorm_wordpool_576.txt	LTP331	ltpFR2	21	16	JUGGLER	763	n/a	n/a	0	0	0
3056718	REC_WORD	wordpools/wasnorm_wordpool_576.txt	LTP331	ltpFR2	21	16	SALMON	1227	n/a	n/a	0	0	0
3058042	REC_WORD	wordpools/wasnorm_wordpool_576.txt	LTP331	ltpFR2	21	16	BLOUSE	139	n/a	n/a	0	0	0
3127880	REST_REWET	n/a	LTP331	ltpFR2	21	16	n/a	n/a	n/a	n/a	0	0	0
3177654	DISTRACTOR	n/a	LTP331	ltpFR2	21	17	n/a	n/a	n/a	n/a	0	0	0
3177654	START	n/a	LTP331	ltpFR2	21	n/a	n/a	n/a	25	n/a	n/a	n/a	n/a
3177671	PROB	n/a	LTP331	ltpFR2	21	n/a	n/a	n/a	25	18	9	1	8
3180104	PROB	n/a	LTP331	ltpFR2	21	n/a	n/a	n/a	25	17	7	3	7
3181370	PROB	n/a	LTP331	ltpFR2	21	n/a	n/a	n/a	25	13	2	8	3
3182486	PROB	n/a	LTP331	ltpFR2	21	n/a	n/a	n/a	25	17	8	6	3
3183952	PROB	n/a	LTP331	ltpFR2	21	n/a	n/a	n/a	25	18	8	4	6
3185351	PROB	n/a	LTP331	ltpFR2	21	n/a	n/a	n/a	25	15	3	9	3
3186917	PROB	n/a	LTP331	ltpFR2	21	n/a	n/a	n/a	25	13	3	7	3
3188133	PROB	n/a	LTP331	ltpFR2	21	n/a	n/a	n/a	25	25	9	7	9
3189681	PROB	n/a	LTP331	ltpFR2	21	n/a	n/a	n/a	25	9	1	5	3
3191547	PROB	n/a	LTP331	ltpFR2	21	n/a	n/a	n/a	25	14	1	5	9
3193131	PROB	n/a	LTP331	ltpFR2	21	n/a	n/a	n/a	25	24	9	6	9
3194529	PROB	n/a	LTP331	ltpFR2	21	n/a	n/a	n/a	25	17	4	4	9
3196146	PROB	n/a	LTP331	ltpFR2	21	n/a	n/a	n/a	25	10	2	5	3
3197445	PROB	n/a	LTP331	ltpFR2	21	n/a	n/a	n/a	25	10	8	1	1
3198777	PROB	n/a	LTP331	ltpFR2	21	n/a	n/a	n/a	25	15	3	4	8
3200044	PROB	n/a	LTP331	ltpFR2	21	n/a	n/a	n/a	25	17	3	8	6
3201265	STOP	n/a	LTP331	ltpFR2	21	n/a	n/a	n/a	25	n/a	n/a	n/a	n/a
3202708	WORD	wordpools/wasnorm_wordpool_576.txt	LTP331	ltpFR2	21	17	TART	1436	n/a	n/a	0	0	0
3205525	WORD	wordpools/wasnorm_wordpool_576.txt	LTP331	ltpFR2	21	17	CANDY	230	n/a	n/a	0	0	0
3207973	WORD	wordpools/wasnorm_wordpool_576.txt	LTP331	ltpFR2	21	17	STATUE	1374	n/a	n/a	0	0	0
3210754	WORD	wordpools/wasnorm_wordpool_576.txt	LTP331	ltpFR2	21	17	FILM	565	n/a	n/a	0	0	0
3213454	WORD	wordpools/wasnorm_wordpool_576.txt	LTP331	ltpFR2	21	17	CREATURE	403	n/a	n/a	0	0	0
3215919	WORD	wordpools/wasnorm_wordpool_576.txt	LTP331	ltpFR2	21	17	FLAG	573	n/a	n/a	0	0	0
3218717	WORD	wordpools/wasnorm_wordpool_576.txt	LTP331	ltpFR2	21	17	BABY	64	n/a	n/a	0	0	0
3221251	WORD	wordpools/wasnorm_wordpool_576.txt	LTP331	ltpFR2	21	17	MATTRESS	879	n/a	n/a	0	0	0
3224049	WORD	wordpools/wasnorm_wordpool_576.txt	LTP331	ltpFR2	21	17	LABEL	790	n/a	n/a	0	0	0
3226713	WORD	wordpools/wasnorm_wordpool_576.txt	LTP331	ltpFR2	21	17	TURNIP	1521	n/a	n/a	0	0	0
3229313	WORD	wordpools/wasnorm_wordpool_576.txt	LTP331	ltpFR2	21	17	SMOG	1330	n/a	n/a	0	0	0
3231777	WORD	wordpools/wasnorm_wordpool_576.txt	LTP331	ltpFR2	21	17	BLOCKADE	137	n/a	n/a	0	0	0
3234410	WORD	wordpools/wasnorm_wordpool_576.txt	LTP331	ltpFR2	21	17	POSTAGE	1113	n/a	n/a	0	0	0
3236976	WORD	wordpools/wasnorm_wordpool_576.txt	LTP331	ltpFR2	21	17	NIGHTGOWN	953	n/a	n/a	0	0	0
3239474	WORD	wordpools/wasnorm_wordpool_576.txt	LTP331	ltpFR2	21	17	DRAGON	492	n/a	n/a	0	0	0
3242073	WORD	wordpools/wasnorm_wordpool_576.txt	LTP331	ltpFR2	21	17	DRILL	497	n/a	n/a	0	0	0
3244888	WORD	wordpools/wasnorm_wordpool_576.txt	LTP331	ltpFR2	21	17	LEADER	807	n/a	n/a	0	0	0
3247404	WORD	wordpools/wasnorm_wordpool_576.txt	LTP331	ltpFR2	21	17	ICING	732	n/a	n/a	0	0	0
3249868	WORD	wordpools/wasnorm_wordpool_576.txt	LTP331	ltpFR2	21	17	PRINCESS	1125	n/a	n/a	0	0	0
3252501	WORD	wordpools/wasnorm_wordpool_576.txt	LTP331	ltpFR2	21	17	PIZZA	1079	n/a	n/a	0	0	0
3254967	WORD	wordpools/wasnorm_wordpool_576.txt	LTP331	ltpFR2	21	17	PACKAGE	997	n/a	n/a	0	0	0
3257598	WORD	wordpools/wasnorm_wordpool_576.txt	LTP331	ltpFR2	21	17	COMPASS	358	n/a	n/a	0	0	0
3260247	WORD	wordpools/wasnorm_wordpool_576.txt	LTP331	ltpFR2	21	17	REBEL	1172	n/a	n/a	0	0	0
3262963	WORD	wordpools/wasnorm_wordpool_576.txt	LTP331	ltpFR2	21	17	POPCORN	1104	n/a	n/a	0	0	0
3264578	START	n/a	LTP331	ltpFR2	21	n/a	n/a	n/a	26	n/a	n/a	n/a	n/a
3265699	DISTRACTOR	n/a	LTP331	ltpFR2	21	17	n/a	n/a	n/a	n/a	0	0	0
3265710	PROB	n/a	LTP331	ltpFR2	21	n/a	n/a	n/a	26	9	4	3	2
3267826	PROB	n/a	LTP331	ltpFR2	21	n/a	n/a	n/a	26	22	8	7	7
3269625	PROB	n/a	LTP331	ltpFR2	21	n/a	n/a	n/a	26	12	3	3	6
3271225	PROB	n/a	LTP331	ltpFR2	21	n/a	n/a	n/a	26	7	2	4	1
3272475	PROB	n/a	LTP331	ltpFR2	21	n/a	n/a	n/a	26	15	7	4	4
3273840	PROB	n/a	LTP331	ltpFR2	21	n/a	n/a	n/a	26	11	1	1	9
3274806	PROB	n/a	LTP331	ltpFR2	21	n/a	n/a	n/a	26	15	9	4	2
3276156	PROB	n/a	LTP331	ltpFR2	21	n/a	n/a	n/a	26	8	3	1	4
3278938	PROB	n/a	LTP331	ltpFR2	21	n/a	n/a	n/a	26	15	6	3	7
3280088	PROB	n/a	LTP331	ltpFR2	21	n/a	n/a	n/a	26	10	2	5	3
3281404	PROB	n/a	LTP331	ltpFR2	21	n/a	n/a	n/a	26	8	1	2	5
3282585	PROB	n/a	LTP331	ltpFR2	21	n/a	n/a	n/a	26	10	2	3	5
3284202	PROB	n/a	LTP331	ltpFR2	21	n/a	n/a	n/a	26	16	2	8	6
3285935	PROB	n/a	LTP331	ltpFR2	21	n/a	n/a	n/a	26	11	3	3	5
3287417	STOP	n/a	LTP331	ltpFR2	21	n/a	n/a	n/a	26	n/a	n/a	n/a	n/a
3290516	REC_START	n/a	LTP331	ltpFR2	21	17	n/a	n/a	n/a	n/a	0	0	0
3294402	REC_WORD	wordpools/wasnorm_wordpool_576.txt	LTP331	ltpFR2	21	17	TART	1436	n/a	n/a	0	0	0
3296480	REC_WORD	wordpools/wasnorm_wordpool_576.txt	LTP331	ltpFR2	21	17	STATUE	1374	n/a	n/a	0	0	0
3297370	REC_WORD	wordpools/wasnorm_wordpool_576.txt	LTP331	ltpFR2	21	17	BABY	64	n/a	n/a	0	0	0
3297854	REC_WORD	wordpools/wasnorm_wordpool_576.txt	LTP331	ltpFR2	21	17	MATTRESS	879	n/a	n/a	0	0	0
3299359	REC_WORD	wordpools/wasnorm_wordpool_576.txt	LTP331	ltpFR2	21	17	FILM	565	n/a	n/a	0	0	0
3300419	REC_WORD	wordpools/wasnorm_wordpool_576.txt	LTP331	ltpFR2	21	17	CREATURE	403	n/a	n/a	0	0	0
3300970	REC_WORD	wordpools/wasnorm_wordpool_576.txt	LTP331	ltpFR2	21	17	FLAG	573	n/a	n/a	0	0	0
3304471	REC_WORD	wordpools/wasnorm_wordpool_576.txt	LTP331	ltpFR2	21	17	BLOCKADE	137	n/a	n/a	0	0	0
3305167	REC_WORD	wordpools/wasnorm_wordpool_576.txt	LTP331	ltpFR2	21	17	SMOG	1330	n/a	n/a	0	0	0
3306046	REC_WORD	wordpools/wasnorm_wordpool_576.txt	LTP331	ltpFR2	21	17	NIGHTGOWN	953	n/a	n/a	0	0	0
3308082	REC_WORD	wordpools/wasnorm_wordpool_576.txt	LTP331	ltpFR2	21	17	DRAGON	492	n/a	n/a	0	0	0
3308893	REC_WORD	wordpools/wasnorm_wordpool_576.txt	LTP331	ltpFR2	21	17	DRILL	497	n/a	n/a	0	0	0
3309666	REC_WORD	wordpools/wasnorm_wordpool_576.txt	LTP331	ltpFR2	21	17	LEADER	807	n/a	n/a	0	0	0
3310851	REC_WORD	wordpools/wasnorm_wordpool_576.txt	LTP331	ltpFR2	21	17	ICING	732	n/a	n/a	0	0	0
3313540	REC_WORD	wordpools/wasnorm_wordpool_576.txt	LTP331	ltpFR2	21	17	PRINCESS	1125	n/a	n/a	0	0	0
3317319	REC_WORD	wordpools/wasnorm_wordpool_576.txt	LTP331	ltpFR2	21	17	PACKAGE	997	n/a	n/a	0	0	0
3380987	WORD	wordpools/wasnorm_wordpool_576.txt	LTP331	ltpFR2	21	18	BRICK	172	n/a	n/a	0	0	0
3383503	WORD	wordpools/wasnorm_wordpool_576.txt	LTP331	ltpFR2	21	18	BURGLAR	200	n/a	n/a	0	0	0
3386085	WORD	wordpools/wasnorm_wordpool_576.txt	LTP331	ltpFR2	21	18	TWISTER	1530	n/a	n/a	0	0	0
3388849	WORD	wordpools/wasnorm_wordpool_576.txt	LTP331	ltpFR2	21	18	TRACTOR	1493	n/a	n/a	0	0	0
3391466	WORD	wordpools/wasnorm_wordpool_576.txt	LTP331	ltpFR2	21	18	POLICE	1098	n/a	n/a	0	0	0
3393981	WORD	wordpools/wasnorm_wordpool_576.txt	LTP331	ltpFR2	21	18	FRAME	600	n/a	n/a	0	0	0
3396779	WORD	wordpools/wasnorm_wordpool_576.txt	LTP331	ltpFR2	21	18	FIREMAN	569	n/a	n/a	0	0	0
3399478	WORD	wordpools/wasnorm_wordpool_576.txt	LTP331	ltpFR2	21	18	PIGEON	1065	n/a	n/a	0	0	0
3402160	WORD	wordpools/wasnorm_wordpool_576.txt	LTP331	ltpFR2	21	18	SHERIFF	1284	n/a	n/a	0	0	0
3404675	WORD	wordpools/wasnorm_wordpool_576.txt	LTP331	ltpFR2	21	18	MOTEL	919	n/a	n/a	0	0	0
3407358	WORD	wordpools/wasnorm_wordpool_576.txt	LTP331	ltpFR2	21	18	MAILMAN	858	n/a	n/a	0	0	0
3409822	WORD	wordpools/wasnorm_wordpool_576.txt	LTP331	ltpFR2	21	18	HUMAN	726	n/a	n/a	0	0	0
3412505	WORD	wordpools/wasnorm_wordpool_576.txt	LTP331	ltpFR2	21	18	AIRPLANE	12	n/a	n/a	0	0	0
3415187	WORD	wordpools/wasnorm_wordpool_576.txt	LTP331	ltpFR2	21	18	GUARD	667	n/a	n/a	0	0	0
3417768	WORD	wordpools/wasnorm_wordpool_576.txt	LTP331	ltpFR2	21	18	RIFLE	1192	n/a	n/a	0	0	0
3420550	WORD	wordpools/wasnorm_wordpool_576.txt	LTP331	ltpFR2	21	18	SHIRT	1287	n/a	n/a	0	0	0
3423266	WORD	wordpools/wasnorm_wordpool_576.txt	LTP331	ltpFR2	21	18	SURVEY	1414	n/a	n/a	0	0	0
3425864	WORD	wordpools/wasnorm_wordpool_576.txt	LTP331	ltpFR2	21	18	KITCHEN	778	n/a	n/a	0	0	0
3428529	WORD	wordpools/wasnorm_wordpool_576.txt	LTP331	ltpFR2	21	18	APRON	35	n/a	n/a	0	0	0
3430979	WORD	wordpools/wasnorm_wordpool_576.txt	LTP331	ltpFR2	21	18	FLASHLIGHT	575	n/a	n/a	0	0	0
3433511	WORD	wordpools/wasnorm_wordpool_576.txt	LTP331	ltpFR2	21	18	MATCH	878	n/a	n/a	0	0	0
3435993	WORD	wordpools/wasnorm_wordpool_576.txt	LTP331	ltpFR2	21	18	BODY	145	n/a	n/a	0	0	0
3438608	WORD	wordpools/wasnorm_wordpool_576.txt	LTP331	ltpFR2	21	18	POCKET	1093	n/a	n/a	0	0	0
3441274	WORD	wordpools/wasnorm_wordpool_576.txt	LTP331	ltpFR2	21	18	MAILBOX	857	n/a	n/a	0	0	0
3442890	START	n/a	LTP331	ltpFR2	21	n/a	n/a	n/a	27	n/a	n/a	n/a	n/a
3443952	DISTRACTOR	n/a	LTP331	ltpFR2	21	18	n/a	n/a	n/a	n/a	0	0	0
3443956	PROB	n/a	LTP331	ltpFR2	21	n/a	n/a	n/a	27	15	8	5	2
3445638	PROB	n/a	LTP331	ltpFR2	21	n/a	n/a	n/a	27	1	3	5	5
3446837	PROB	n/a	LTP331	ltpFR2	21	n/a	n/a	n/a	27	10	3	6	1
3448521	PROB	n/a	LTP331	ltpFR2	21	n/a	n/a	n/a	27	14	7	4	3
3450136	PROB	n/a	LTP331	ltpFR2	21	n/a	n/a	n/a	27	19	8	6	5
3452534	PROB	n/a	LTP331	ltpFR2	21	n/a	n/a	n/a	27	20	7	7	6
3454301	PROB	n/a	LTP331	ltpFR2	21	n/a	n/a	n/a	27	17	9	8	2
3456400	PROB	n/a	LTP331	ltpFR2	21	n/a	n/a	n/a	27	12	1	7	4
3458066	PROB	n/a	LTP331	ltpFR2	21	n/a	n/a	n/a	27	9	4	4	1
3459215	PROB	n/a	LTP331	ltpFR2	21	n/a	n/a	n/a	27	14	8	3	3
3460797	PROB	n/a	LTP331	ltpFR2	21	n/a	n/a	n/a	27	7	4	1	2
3462480	PROB	n/a	LTP331	ltpFR2	21	n/a	n/a	n/a	27	14	1	4	9
3463662	PROB	n/a	LTP331	ltpFR2	21	n/a	n/a	n/a	27	12	4	6	2
3465012	PROB	n/a	LTP331	ltpFR2	21	n/a	n/a	n/a	27	17	8	2	7
3466241	STOP	n/a	LTP331	ltpFR2	21	n/a	n/a	n/a	27	n/a	n/a	n/a	n/a
3468677	REC_START	n/a	LTP331	ltpFR2	21	18	n/a	n/a	n/a	n/a	0	0	0
