onset	duration	trial_type	sample	stim_file	subject	experiment	session	trial	task	item_name	item_num	recog_resp	recog_conf	resp	answer	test_x	test_y	test_z	color_r	color_g	color_b	case	font
256.41	n/a	SESS_START	128205	n/a	LTP275	ltpFR	8	n/a	n/a	n/a	n/a	0	n/a	n/a	n/a	0	0	0	n/a	n/a	n/a	n/a	n/a
291.86	n/a	START	145930	n/a	LTP275	ltpFR	8	n/a	n/a	n/a	n/a	n/a	n/a	n/a	n/a	n/a	n/a	n/a	n/a	n/a	n/a	n/a	n/a
291.892	n/a	PROB	145946	n/a	LTP275	ltpFR	8	n/a	n/a	n/a	n/a	n/a	n/a	n/a	15	5	9	1	n/a	n/a	n/a	n/a	n/a
294.338	n/a	PROB	147169	n/a	LTP275	ltpFR	8	n/a	n/a	n/a	n/a	n/a	n/a	n/a	19	9	9	1	n/a	n/a	n/a	n/a	n/a
296.152	n/a	PROB	148076	n/a	LTP275	ltpFR	8	n/a	n/a	n/a	n/a	n/a	n/a	n/a	14	2	8	4	n/a	n/a	n/a	n/a	n/a
297.718	n/a	PROB	148859	n/a	LTP275	ltpFR	8	n/a	n/a	n/a	n/a	n/a	n/a	n/a	18	8	4	6	n/a	n/a	n/a	n/a	n/a
299.298	n/a	PROB	149649	n/a	LTP275	ltpFR	8	n/a	n/a	n/a	n/a	n/a	n/a	n/a	16	6	4	6	n/a	n/a	n/a	n/a	n/a
300.812	n/a	PROB	150406	n/a	LTP275	ltpFR	8	n/a	n/a	n/a	n/a	n/a	n/a	n/a	24	8	6	8	n/a	n/a	n/a	n/a	n/a
304.422	n/a	PROB	152211	n/a	LTP275	ltpFR	8	n/a	n/a	n/a	n/a	n/a	n/a	n/a	10	7	2	1	n/a	n/a	n/a	n/a	n/a
305.822	n/a	PROB	152911	n/a	LTP275	ltpFR	8	n/a	n/a	n/a	n/a	n/a	n/a	n/a	13	4	3	6	n/a	n/a	n/a	n/a	n/a
307.186	n/a	PROB	153593	n/a	LTP275	ltpFR	8	n/a	n/a	n/a	n/a	n/a	n/a	n/a	9	1	3	5	n/a	n/a	n/a	n/a	n/a
308.55	n/a	PROB	154275	n/a	LTP275	ltpFR	8	n/a	n/a	n/a	n/a	n/a	n/a	n/a	12	1	7	4	n/a	n/a	n/a	n/a	n/a
310.032	n/a	PROB	155016	n/a	LTP275	ltpFR	8	n/a	n/a	n/a	n/a	n/a	n/a	n/a	4	2	1	1	n/a	n/a	n/a	n/a	n/a
311.134	n/a	STOP	155567	n/a	LTP275	ltpFR	8	n/a	n/a	n/a	n/a	n/a	n/a	n/a	n/a	n/a	n/a	n/a	n/a	n/a	n/a	n/a	n/a
344.948	n/a	START	172474	n/a	LTP275	ltpFR	8	n/a	n/a	n/a	n/a	n/a	n/a	n/a	n/a	n/a	n/a	n/a	n/a	n/a	n/a	n/a	n/a
346.462	n/a	PROB	173231	n/a	LTP275	ltpFR	8	n/a	n/a	n/a	n/a	n/a	n/a	n/a	17	5	3	9	n/a	n/a	n/a	n/a	n/a
349.008	n/a	PROB	174504	n/a	LTP275	ltpFR	8	n/a	n/a	n/a	n/a	n/a	n/a	n/a	19	5	6	8	n/a	n/a	n/a	n/a	n/a
350.588	n/a	PROB	175294	n/a	LTP275	ltpFR	8	n/a	n/a	n/a	n/a	n/a	n/a	n/a	20	9	9	2	n/a	n/a	n/a	n/a	n/a
351.95	n/a	STOP	175975	n/a	LTP275	ltpFR	8	n/a	n/a	n/a	n/a	n/a	n/a	n/a	n/a	n/a	n/a	n/a	n/a	n/a	n/a	n/a	n/a
354.082	n/a	WORD	177041	wordpools/wasnorm_wordpool_less_exclusions.txt	LTP275	ltpFR	8	1	0	THUMB	1462	n/a	n/a	0	n/a	0	0	0	0.57763671875	0.412841796875	1	upper	amplitud.ttf
357.096	n/a	START	178548	n/a	LTP275	ltpFR	8	n/a	n/a	n/a	n/a	n/a	n/a	n/a	n/a	n/a	n/a	n/a	n/a	n/a	n/a	n/a	n/a
357.96	n/a	PROB	178980	n/a	LTP275	ltpFR	8	n/a	n/a	n/a	n/a	n/a	n/a	n/a	12	3	1	8	n/a	n/a	n/a	n/a	n/a
359.676	n/a	PROB	179838	n/a	LTP275	ltpFR	8	n/a	n/a	n/a	n/a	n/a	n/a	n/a	11	2	8	1	n/a	n/a	n/a	n/a	n/a
360.758	n/a	PROB	180379	n/a	LTP275	ltpFR	8	n/a	n/a	n/a	n/a	n/a	n/a	n/a	27	8	9	9	n/a	n/a	n/a	n/a	n/a
362.722	n/a	PROB	181361	n/a	LTP275	ltpFR	8	n/a	n/a	n/a	n/a	n/a	n/a	n/a	16	9	6	1	n/a	n/a	n/a	n/a	n/a
364.142	n/a	STOP	182071	n/a	LTP275	ltpFR	8	n/a	n/a	n/a	n/a	n/a	n/a	n/a	n/a	n/a	n/a	n/a	n/a	n/a	n/a	n/a	n/a
366.264	n/a	WORD	183132	wordpools/wasnorm_wordpool_less_exclusions.txt	LTP275	ltpFR	8	1	0	ANIMAL	23	n/a	n/a	1	n/a	0	0	0	0.57763671875	0.412841796875	1	upper	amplitud.ttf
369.278	n/a	START	184639	n/a	LTP275	ltpFR	8	n/a	n/a	n/a	n/a	n/a	n/a	n/a	n/a	n/a	n/a	n/a	n/a	n/a	n/a	n/a	n/a
370.476	n/a	PROB	185238	n/a	LTP275	ltpFR	8	n/a	n/a	n/a	n/a	n/a	n/a	n/a	15	1	9	5	n/a	n/a	n/a	n/a	n/a
371.674	n/a	PROB	185837	n/a	LTP275	ltpFR	8	n/a	n/a	n/a	n/a	n/a	n/a	n/a	17	1	8	8	n/a	n/a	n/a	n/a	n/a
373.088	n/a	PROB	186544	n/a	LTP275	ltpFR	8	n/a	n/a	n/a	n/a	n/a	n/a	n/a	12	3	6	3	n/a	n/a	n/a	n/a	n/a
374.704	n/a	PROB	187352	n/a	LTP275	ltpFR	8	n/a	n/a	n/a	n/a	n/a	n/a	n/a	12	7	3	2	n/a	n/a	n/a	n/a	n/a
375.744	n/a	STOP	187872	n/a	LTP275	ltpFR	8	n/a	n/a	n/a	n/a	n/a	n/a	n/a	n/a	n/a	n/a	n/a	n/a	n/a	n/a	n/a	n/a
378.214	n/a	WORD	189107	wordpools/wasnorm_wordpool_less_exclusions.txt	LTP275	ltpFR	8	1	0	WATER	1594	n/a	n/a	0	n/a	0	0	0	0.57763671875	0.412841796875	1	upper	amplitud.ttf
381.226	n/a	START	190613	n/a	LTP275	ltpFR	8	n/a	n/a	n/a	n/a	n/a	n/a	n/a	n/a	n/a	n/a	n/a	n/a	n/a	n/a	n/a	n/a
382.34	n/a	PROB	191170	n/a	LTP275	ltpFR	8	n/a	n/a	n/a	n/a	n/a	n/a	n/a	21	7	5	9	n/a	n/a	n/a	n/a	n/a
383.806	n/a	PROB	191903	n/a	LTP275	ltpFR	8	n/a	n/a	n/a	n/a	n/a	n/a	n/a	18	6	7	5	n/a	n/a	n/a	n/a	n/a
385.302	n/a	PROB	192651	n/a	LTP275	ltpFR	8	n/a	n/a	n/a	n/a	n/a	n/a	n/a	22	7	8	7	n/a	n/a	n/a	n/a	n/a
386.984	n/a	PROB	193492	n/a	LTP275	ltpFR	8	n/a	n/a	n/a	n/a	n/a	n/a	n/a	12	2	7	2	n/a	n/a	n/a	n/a	n/a
388.222	n/a	STOP	194111	n/a	LTP275	ltpFR	8	n/a	n/a	n/a	n/a	n/a	n/a	n/a	n/a	n/a	n/a	n/a	n/a	n/a	n/a	n/a	n/a
390.262	n/a	WORD	195131	wordpools/wasnorm_wordpool_less_exclusions.txt	LTP275	ltpFR	8	1	0	DIVER	476	n/a	n/a	1	n/a	0	0	0	0.57763671875	0.412841796875	1	upper	amplitud.ttf
393.274	n/a	START	196637	n/a	LTP275	ltpFR	8	n/a	n/a	n/a	n/a	n/a	n/a	n/a	n/a	n/a	n/a	n/a	n/a	n/a	n/a	n/a	n/a
394.106	n/a	PROB	197053	n/a	LTP275	ltpFR	8	n/a	n/a	n/a	n/a	n/a	n/a	n/a	14	6	1	7	n/a	n/a	n/a	n/a	n/a
395.738	n/a	PROB	197869	n/a	LTP275	ltpFR	8	n/a	n/a	n/a	n/a	n/a	n/a	n/a	16	4	7	5	n/a	n/a	n/a	n/a	n/a
397.186	n/a	PROB	198593	n/a	LTP275	ltpFR	8	n/a	n/a	n/a	n/a	n/a	n/a	n/a	22	9	9	4	n/a	n/a	n/a	n/a	n/a
398.45	n/a	PROB	199225	n/a	LTP275	ltpFR	8	n/a	n/a	n/a	n/a	n/a	n/a	n/a	7	1	4	2	n/a	n/a	n/a	n/a	n/a
399.728	n/a	STOP	199864	n/a	LTP275	ltpFR	8	n/a	n/a	n/a	n/a	n/a	n/a	n/a	n/a	n/a	n/a	n/a	n/a	n/a	n/a	n/a	n/a
402.478	n/a	WORD	201239	wordpools/wasnorm_wordpool_less_exclusions.txt	LTP275	ltpFR	8	1	1	PLANT	1083	n/a	n/a	0	n/a	0	0	0	0.422607421875	0.5869140625	0	lower	zerothre.ttf
405.49	n/a	START	202745	n/a	LTP275	ltpFR	8	n/a	n/a	n/a	n/a	n/a	n/a	n/a	n/a	n/a	n/a	n/a	n/a	n/a	n/a	n/a	n/a
406.372	n/a	PROB	203186	n/a	LTP275	ltpFR	8	n/a	n/a	n/a	n/a	n/a	n/a	n/a	6	1	3	2	n/a	n/a	n/a	n/a	n/a
407.92	n/a	PROB	203960	n/a	LTP275	ltpFR	8	n/a	n/a	n/a	n/a	n/a	n/a	n/a	21	5	8	8	n/a	n/a	n/a	n/a	n/a
409.416	n/a	PROB	204708	n/a	LTP275	ltpFR	8	n/a	n/a	n/a	n/a	n/a	n/a	n/a	21	6	7	8	n/a	n/a	n/a	n/a	n/a
410.732	n/a	PROB	205366	n/a	LTP275	ltpFR	8	n/a	n/a	n/a	n/a	n/a	n/a	n/a	21	9	6	6	n/a	n/a	n/a	n/a	n/a
412.222	n/a	STOP	206111	n/a	LTP275	ltpFR	8	n/a	n/a	n/a	n/a	n/a	n/a	n/a	n/a	n/a	n/a	n/a	n/a	n/a	n/a	n/a	n/a
414.576	n/a	WORD	207288	wordpools/wasnorm_wordpool_less_exclusions.txt	LTP275	ltpFR	8	1	1	BIOLOGIST	128	n/a	n/a	1	n/a	0	0	0	0.422607421875	0.5869140625	0	lower	zerothre.ttf
417.588	n/a	START	208794	n/a	LTP275	ltpFR	8	n/a	n/a	n/a	n/a	n/a	n/a	n/a	n/a	n/a	n/a	n/a	n/a	n/a	n/a	n/a	n/a
418.62	n/a	PROB	209310	n/a	LTP275	ltpFR	8	n/a	n/a	n/a	n/a	n/a	n/a	n/a	10	5	1	4	n/a	n/a	n/a	n/a	n/a
420.25	n/a	PROB	210125	n/a	LTP275	ltpFR	8	n/a	n/a	n/a	n/a	n/a	n/a	n/a	14	1	8	5	n/a	n/a	n/a	n/a	n/a
422.298	n/a	PROB	211149	n/a	LTP275	ltpFR	8	n/a	n/a	n/a	n/a	n/a	n/a	n/a	18	3	6	9	n/a	n/a	n/a	n/a	n/a
425.588	n/a	STOP	212794	n/a	LTP275	ltpFR	8	n/a	n/a	n/a	n/a	n/a	n/a	n/a	n/a	n/a	n/a	n/a	n/a	n/a	n/a	n/a	n/a
426.758	n/a	WORD	213379	wordpools/wasnorm_wordpool_less_exclusions.txt	LTP275	ltpFR	8	1	1	LIGHTER	819	n/a	n/a	0	n/a	0	0	0	0.422607421875	0.5869140625	0	lower	zerothre.ttf
429.772	n/a	START	214886	n/a	LTP275	ltpFR	8	n/a	n/a	n/a	n/a	n/a	n/a	n/a	n/a	n/a	n/a	n/a	n/a	n/a	n/a	n/a	n/a
430.736	n/a	PROB	215368	n/a	LTP275	ltpFR	8	n/a	n/a	n/a	n/a	n/a	n/a	n/a	14	2	9	3	n/a	n/a	n/a	n/a	n/a
432.35	n/a	PROB	216175	n/a	LTP275	ltpFR	8	n/a	n/a	n/a	n/a	n/a	n/a	n/a	14	7	3	4	n/a	n/a	n/a	n/a	n/a
433.482	n/a	PROB	216741	n/a	LTP275	ltpFR	8	n/a	n/a	n/a	n/a	n/a	n/a	n/a	20	3	9	8	n/a	n/a	n/a	n/a	n/a
435.262	n/a	PROB	217631	n/a	LTP275	ltpFR	8	n/a	n/a	n/a	n/a	n/a	n/a	n/a	16	6	7	3	n/a	n/a	n/a	n/a	n/a
436.464	n/a	STOP	218232	n/a	LTP275	ltpFR	8	n/a	n/a	n/a	n/a	n/a	n/a	n/a	n/a	n/a	n/a	n/a	n/a	n/a	n/a	n/a	n/a
438.792	n/a	WORD	219396	wordpools/wasnorm_wordpool_less_exclusions.txt	LTP275	ltpFR	8	1	1	HOOD	714	n/a	n/a	0	n/a	0	0	0	0.422607421875	0.5869140625	0	lower	zerothre.ttf
441.804	n/a	START	220902	n/a	LTP275	ltpFR	8	n/a	n/a	n/a	n/a	n/a	n/a	n/a	n/a	n/a	n/a	n/a	n/a	n/a	n/a	n/a	n/a
442.652	n/a	PROB	221326	n/a	LTP275	ltpFR	8	n/a	n/a	n/a	n/a	n/a	n/a	n/a	16	8	5	3	n/a	n/a	n/a	n/a	n/a
444.082	n/a	PROB	222041	n/a	LTP275	ltpFR	8	n/a	n/a	n/a	n/a	n/a	n/a	n/a	20	5	8	7	n/a	n/a	n/a	n/a	n/a
446.396	n/a	PROB	223198	n/a	LTP275	ltpFR	8	n/a	n/a	n/a	n/a	n/a	n/a	n/a	13	9	1	3	n/a	n/a	n/a	n/a	n/a
447.562	n/a	PROB	223781	n/a	LTP275	ltpFR	8	n/a	n/a	n/a	n/a	n/a	n/a	n/a	14	7	2	3	n/a	n/a	n/a	n/a	n/a
448.848	n/a	STOP	224424	n/a	LTP275	ltpFR	8	n/a	n/a	n/a	n/a	n/a	n/a	n/a	n/a	n/a	n/a	n/a	n/a	n/a	n/a	n/a	n/a
450.774	n/a	WORD	225387	wordpools/wasnorm_wordpool_less_exclusions.txt	LTP275	ltpFR	8	1	1	BARLEY	88	n/a	n/a	0	n/a	0	0	0	0.422607421875	0.5869140625	0	lower	zerothre.ttf
453.786	n/a	START	226893	n/a	LTP275	ltpFR	8	n/a	n/a	n/a	n/a	n/a	n/a	n/a	n/a	n/a	n/a	n/a	n/a	n/a	n/a	n/a	n/a
454.868	n/a	PROB	227434	n/a	LTP275	ltpFR	8	n/a	n/a	n/a	n/a	n/a	n/a	n/a	9	3	3	3	n/a	n/a	n/a	n/a	n/a
455.982	n/a	PROB	227991	n/a	LTP275	ltpFR	8	n/a	n/a	n/a	n/a	n/a	n/a	n/a	18	8	3	7	n/a	n/a	n/a	n/a	n/a
457.58	n/a	PROB	228790	n/a	LTP275	ltpFR	8	n/a	n/a	n/a	n/a	n/a	n/a	n/a	10	3	4	3	n/a	n/a	n/a	n/a	n/a
459.06	n/a	PROB	229530	n/a	LTP275	ltpFR	8	n/a	n/a	n/a	n/a	n/a	n/a	n/a	13	4	7	2	n/a	n/a	n/a	n/a	n/a
460.56	n/a	STOP	230280	n/a	LTP275	ltpFR	8	n/a	n/a	n/a	n/a	n/a	n/a	n/a	n/a	n/a	n/a	n/a	n/a	n/a	n/a	n/a	n/a
462.756	n/a	WORD	231378	wordpools/wasnorm_wordpool_less_exclusions.txt	LTP275	ltpFR	8	1	1	PEPPER	1047	n/a	n/a	0	n/a	0	0	0	0.422607421875	0.5869140625	0	lower	zerothre.ttf
465.768	n/a	START	232884	n/a	LTP275	ltpFR	8	n/a	n/a	n/a	n/a	n/a	n/a	n/a	n/a	n/a	n/a	n/a	n/a	n/a	n/a	n/a	n/a
466.684	n/a	PROB	233342	n/a	LTP275	ltpFR	8	n/a	n/a	n/a	n/a	n/a	n/a	n/a	17	7	9	1	n/a	n/a	n/a	n/a	n/a
468.246	n/a	PROB	234123	n/a	LTP275	ltpFR	8	n/a	n/a	n/a	n/a	n/a	n/a	n/a	14	9	4	1	n/a	n/a	n/a	n/a	n/a
469.578	n/a	PROB	234789	n/a	LTP275	ltpFR	8	n/a	n/a	n/a	n/a	n/a	n/a	n/a	23	9	6	7	n/a	n/a	n/a	n/a	n/a
471.826	n/a	PROB	235913	n/a	LTP275	ltpFR	8	n/a	n/a	n/a	n/a	n/a	n/a	n/a	10	2	3	5	n/a	n/a	n/a	n/a	n/a
473.392	n/a	STOP	236696	n/a	LTP275	ltpFR	8	n/a	n/a	n/a	n/a	n/a	n/a	n/a	n/a	n/a	n/a	n/a	n/a	n/a	n/a	n/a	n/a
474.722	n/a	WORD	237361	wordpools/wasnorm_wordpool_less_exclusions.txt	LTP275	ltpFR	8	1	0	BUFFALO	186	n/a	n/a	0	n/a	0	0	0	0.57763671875	0.412841796875	1	upper	amplitud.ttf
477.734	n/a	START	238867	n/a	LTP275	ltpFR	8	n/a	n/a	n/a	n/a	n/a	n/a	n/a	n/a	n/a	n/a	n/a	n/a	n/a	n/a	n/a	n/a
478.866	n/a	PROB	239433	n/a	LTP275	ltpFR	8	n/a	n/a	n/a	n/a	n/a	n/a	n/a	16	9	3	4	n/a	n/a	n/a	n/a	n/a
481.144	n/a	PROB	240572	n/a	LTP275	ltpFR	8	n/a	n/a	n/a	n/a	n/a	n/a	n/a	14	8	3	4	n/a	n/a	n/a	n/a	n/a
482.492	n/a	PROB	241246	n/a	LTP275	ltpFR	8	n/a	n/a	n/a	n/a	n/a	n/a	n/a	20	7	6	7	n/a	n/a	n/a	n/a	n/a
483.924	n/a	PROB	241962	n/a	LTP275	ltpFR	8	n/a	n/a	n/a	n/a	n/a	n/a	n/a	9	1	2	6	n/a	n/a	n/a	n/a	n/a
484.992	n/a	STOP	242496	n/a	LTP275	ltpFR	8	n/a	n/a	n/a	n/a	n/a	n/a	n/a	n/a	n/a	n/a	n/a	n/a	n/a	n/a	n/a	n/a
486.836	n/a	WORD	243418	wordpools/wasnorm_wordpool_less_exclusions.txt	LTP275	ltpFR	8	1	0	MITTEN	902	n/a	n/a	0	n/a	0	0	0	0.57763671875	0.412841796875	1	upper	amplitud.ttf
489.85	n/a	START	244925	n/a	LTP275	ltpFR	8	n/a	n/a	n/a	n/a	n/a	n/a	n/a	n/a	n/a	n/a	n/a	n/a	n/a	n/a	n/a	n/a
490.962	n/a	PROB	245481	n/a	LTP275	ltpFR	8	n/a	n/a	n/a	n/a	n/a	n/a	n/a	16	4	5	7	n/a	n/a	n/a	n/a	n/a
492.628	n/a	PROB	246314	n/a	LTP275	ltpFR	8	n/a	n/a	n/a	n/a	n/a	n/a	n/a	23	8	7	9	n/a	n/a	n/a	n/a	n/a
494.242	n/a	PROB	247121	n/a	LTP275	ltpFR	8	n/a	n/a	n/a	n/a	n/a	n/a	n/a	16	2	5	9	n/a	n/a	n/a	n/a	n/a
495.572	n/a	PROB	247786	n/a	LTP275	ltpFR	8	n/a	n/a	n/a	n/a	n/a	n/a	n/a	11	8	1	2	n/a	n/a	n/a	n/a	n/a
496.952	n/a	STOP	248476	n/a	LTP275	ltpFR	8	n/a	n/a	n/a	n/a	n/a	n/a	n/a	n/a	n/a	n/a	n/a	n/a	n/a	n/a	n/a	n/a
498.836	n/a	WORD	249418	wordpools/wasnorm_wordpool_less_exclusions.txt	LTP275	ltpFR	8	1	1	DRIVER	499	n/a	n/a	1	n/a	0	0	0	0.422607421875	0.5869140625	0	lower	zerothre.ttf
501.848	n/a	START	250924	n/a	LTP275	ltpFR	8	n/a	n/a	n/a	n/a	n/a	n/a	n/a	n/a	n/a	n/a	n/a	n/a	n/a	n/a	n/a	n/a
502.978	n/a	PROB	251489	n/a	LTP275	ltpFR	8	n/a	n/a	n/a	n/a	n/a	n/a	n/a	16	3	6	7	n/a	n/a	n/a	n/a	n/a
504.326	n/a	PROB	252163	n/a	LTP275	ltpFR	8	n/a	n/a	n/a	n/a	n/a	n/a	n/a	13	6	6	1	n/a	n/a	n/a	n/a	n/a
505.492	n/a	PROB	252746	n/a	LTP275	ltpFR	8	n/a	n/a	n/a	n/a	n/a	n/a	n/a	23	7	8	7	n/a	n/a	n/a	n/a	n/a
507.138	n/a	PROB	253569	n/a	LTP275	ltpFR	8	n/a	n/a	n/a	n/a	n/a	n/a	n/a	11	1	9	2	n/a	n/a	n/a	n/a	n/a
508.472	n/a	STOP	254236	n/a	LTP275	ltpFR	8	n/a	n/a	n/a	n/a	n/a	n/a	n/a	n/a	n/a	n/a	n/a	n/a	n/a	n/a	n/a	n/a
511.05	n/a	WORD	255525	wordpools/wasnorm_wordpool_less_exclusions.txt	LTP275	ltpFR	8	1	1	RANCH	1166	n/a	n/a	1	n/a	0	0	0	0.422607421875	0.5869140625	0	lower	zerothre.ttf
514.062	n/a	START	257031	n/a	LTP275	ltpFR	8	n/a	n/a	n/a	n/a	n/a	n/a	n/a	n/a	n/a	n/a	n/a	n/a	n/a	n/a	n/a	n/a
515.028	n/a	PROB	257514	n/a	LTP275	ltpFR	8	n/a	n/a	n/a	n/a	n/a	n/a	n/a	9	3	3	3	n/a	n/a	n/a	n/a	n/a
516.158	n/a	PROB	258079	n/a	LTP275	ltpFR	8	n/a	n/a	n/a	n/a	n/a	n/a	n/a	16	7	7	2	n/a	n/a	n/a	n/a	n/a
517.956	n/a	PROB	258978	n/a	LTP275	ltpFR	8	n/a	n/a	n/a	n/a	n/a	n/a	n/a	10	3	3	1	n/a	n/a	n/a	n/a	n/a
519.12	n/a	PROB	259560	n/a	LTP275	ltpFR	8	n/a	n/a	n/a	n/a	n/a	n/a	n/a	8	1	4	3	n/a	n/a	n/a	n/a	n/a
520.552	n/a	PROB	260276	n/a	LTP275	ltpFR	8	n/a	n/a	n/a	n/a	n/a	n/a	n/a	10	2	5	3	n/a	n/a	n/a	n/a	n/a
521.85	n/a	STOP	260925	n/a	LTP275	ltpFR	8	n/a	n/a	n/a	n/a	n/a	n/a	n/a	n/a	n/a	n/a	n/a	n/a	n/a	n/a	n/a	n/a
523.116	n/a	WORD	261558	wordpools/wasnorm_wordpool_less_exclusions.txt	LTP275	ltpFR	8	1	0	BAY	102	n/a	n/a	0	n/a	0	0	0	0.57763671875	0.412841796875	1	upper	amplitud.ttf
526.128	n/a	START	263064	n/a	LTP275	ltpFR	8	n/a	n/a	n/a	n/a	n/a	n/a	n/a	n/a	n/a	n/a	n/a	n/a	n/a	n/a	n/a	n/a
527.194	n/a	PROB	263597	n/a	LTP275	ltpFR	8	n/a	n/a	n/a	n/a	n/a	n/a	n/a	10	1	4	5	n/a	n/a	n/a	n/a	n/a
528.474	n/a	PROB	264237	n/a	LTP275	ltpFR	8	n/a	n/a	n/a	n/a	n/a	n/a	n/a	5	1	2	2	n/a	n/a	n/a	n/a	n/a
529.59	n/a	PROB	264795	n/a	LTP275	ltpFR	8	n/a	n/a	n/a	n/a	n/a	n/a	n/a	16	9	4	3	n/a	n/a	n/a	n/a	n/a
531.07	n/a	PROB	265535	n/a	LTP275	ltpFR	8	n/a	n/a	n/a	n/a	n/a	n/a	n/a	19	7	8	4	n/a	n/a	n/a	n/a	n/a
532.452	n/a	PROB	266226	n/a	LTP275	ltpFR	8	n/a	n/a	n/a	n/a	n/a	n/a	n/a	14	4	7	3	n/a	n/a	n/a	n/a	n/a
533.698	n/a	STOP	266849	n/a	LTP275	ltpFR	8	n/a	n/a	n/a	n/a	n/a	n/a	n/a	n/a	n/a	n/a	n/a	n/a	n/a	n/a	n/a	n/a
535.114	n/a	WORD	267557	wordpools/wasnorm_wordpool_less_exclusions.txt	LTP275	ltpFR	8	1	0	CONTRACTOR	369	n/a	n/a	1	n/a	0	0	0	0.57763671875	0.412841796875	1	upper	amplitud.ttf
538.128	n/a	START	269064	n/a	LTP275	ltpFR	8	n/a	n/a	n/a	n/a	n/a	n/a	n/a	n/a	n/a	n/a	n/a	n/a	n/a	n/a	n/a	n/a
538.958	n/a	PROB	269479	n/a	LTP275	ltpFR	8	n/a	n/a	n/a	n/a	n/a	n/a	n/a	14	7	5	2	n/a	n/a	n/a	n/a	n/a
540.44	n/a	PROB	270220	n/a	LTP275	ltpFR	8	n/a	n/a	n/a	n/a	n/a	n/a	n/a	23	9	6	7	n/a	n/a	n/a	n/a	n/a
542.022	n/a	PROB	271011	n/a	LTP275	ltpFR	8	n/a	n/a	n/a	n/a	n/a	n/a	n/a	19	1	9	9	n/a	n/a	n/a	n/a	n/a
543.502	n/a	PROB	271751	n/a	LTP275	ltpFR	8	n/a	n/a	n/a	n/a	n/a	n/a	n/a	19	5	7	7	n/a	n/a	n/a	n/a	n/a
545.304	n/a	STOP	272652	n/a	LTP275	ltpFR	8	n/a	n/a	n/a	n/a	n/a	n/a	n/a	n/a	n/a	n/a	n/a	n/a	n/a	n/a	n/a	n/a
547.914	n/a	REC_START	273957	n/a	LTP275	ltpFR	8	1	n/a	n/a	n/a	n/a	n/a	n/a	n/a	0	0	0	n/a	n/a	n/a	n/a	n/a
550.682	n/a	REC_WORD	275341	wordpools/wasnorm_wordpool_less_exclusions.txt	LTP275	ltpFR	8	1	0	BAY	102	n/a	n/a	0	n/a	0	0	0	n/a	n/a	n/a	n/a	n/a
552.052	n/a	REC_WORD	276026	wordpools/wasnorm_wordpool_less_exclusions.txt	LTP275	ltpFR	8	1	0	CONTRACTOR	369	n/a	n/a	1	n/a	0	0	0	n/a	n/a	n/a	n/a	n/a
554.394	n/a	REC_WORD	277197	wordpools/wasnorm_wordpool_less_exclusions.txt	LTP275	ltpFR	8	1	1	BIOLOGIST	128	n/a	n/a	1	n/a	0	0	0	n/a	n/a	n/a	n/a	n/a
556.706	n/a	REC_WORD	278353	wordpools/wasnorm_wordpool_less_exclusions.txt	LTP275	ltpFR	8	1	0	WATER	1594	n/a	n/a	0	n/a	0	0	0	n/a	n/a	n/a	n/a	n/a
558.658	n/a	REC_WORD	279329	wordpools/wasnorm_wordpool_less_exclusions.txt	LTP275	ltpFR	8	1	1	BARLEY	88	n/a	n/a	0	n/a	0	0	0	n/a	n/a	n/a	n/a	n/a
560.338	n/a	REC_WORD	280169	wordpools/wasnorm_wordpool_less_exclusions.txt	LTP275	ltpFR	8	1	1	PEPPER	1047	n/a	n/a	0	n/a	0	0	0	n/a	n/a	n/a	n/a	n/a
562.476	n/a	REC_WORD	281238	wordpools/wasnorm_wordpool_less_exclusions.txt	LTP275	ltpFR	8	1	0	ANIMAL	23	n/a	n/a	1	n/a	0	0	0	n/a	n/a	n/a	n/a	n/a
564.324	n/a	REC_WORD	282162	wordpools/wasnorm_wordpool_less_exclusions.txt	LTP275	ltpFR	8	1	0	THUMB	1462	n/a	n/a	0	n/a	0	0	0	n/a	n/a	n/a	n/a	n/a
574.346	n/a	REC_WORD	287173	wordpools/wasnorm_wordpool_less_exclusions.txt	LTP275	ltpFR	8	1	0	BUFFALO	186	n/a	n/a	0	n/a	0	0	0	n/a	n/a	n/a	n/a	n/a
576.036	n/a	REC_WORD	288018	wordpools/wasnorm_wordpool_less_exclusions.txt	LTP275	ltpFR	8	1	0	MITTEN	902	n/a	n/a	0	n/a	0	0	0	n/a	n/a	n/a	n/a	n/a
599.576	n/a	REC_WORD	299788	wordpools/wasnorm_wordpool_less_exclusions.txt	LTP275	ltpFR	8	1	n/a	BRANCH	168	n/a	n/a	n/a	n/a	0	0	0	n/a	n/a	n/a	n/a	n/a
631.138	n/a	WORD	315569	wordpools/wasnorm_wordpool_less_exclusions.txt	LTP275	ltpFR	8	2	1	BLUEJAY	141	n/a	n/a	0	n/a	0	0	0	0.422607421875	0.5869140625	0	lower	zerothre.ttf
635.25	n/a	WORD	317625	wordpools/wasnorm_wordpool_less_exclusions.txt	LTP275	ltpFR	8	2	1	FEATHER	557	n/a	n/a	0	n/a	0	0	0	0.422607421875	0.5869140625	0	lower	zerothre.ttf
639.11	n/a	WORD	319555	wordpools/wasnorm_wordpool_less_exclusions.txt	LTP275	ltpFR	8	2	1	DUMP	505	n/a	n/a	0	n/a	0	0	0	0.422607421875	0.5869140625	0	lower	zerothre.ttf
642.94	n/a	WORD	321470	wordpools/wasnorm_wordpool_less_exclusions.txt	LTP275	ltpFR	8	2	1	MOTOR	922	n/a	n/a	0	n/a	0	0	0	0.422607421875	0.5869140625	0	lower	zerothre.ttf
646.916	n/a	WORD	323458	wordpools/wasnorm_wordpool_less_exclusions.txt	LTP275	ltpFR	8	2	1	OFFICE	972	n/a	n/a	0	n/a	0	0	0	0.422607421875	0.5869140625	0	lower	zerothre.ttf
650.778	n/a	WORD	325389	wordpools/wasnorm_wordpool_less_exclusions.txt	LTP275	ltpFR	8	2	1	CORPORATION	382	n/a	n/a	0	n/a	0	0	0	0.422607421875	0.5869140625	0	lower	zerothre.ttf
654.788	n/a	WORD	327394	wordpools/wasnorm_wordpool_less_exclusions.txt	LTP275	ltpFR	8	2	1	FIREPLACE	570	n/a	n/a	0	n/a	0	0	0	0.422607421875	0.5869140625	0	lower	zerothre.ttf
658.716	n/a	WORD	329358	wordpools/wasnorm_wordpool_less_exclusions.txt	LTP275	ltpFR	8	2	1	CIGAR	308	n/a	n/a	0	n/a	0	0	0	0.422607421875	0.5869140625	0	lower	zerothre.ttf
662.842	n/a	WORD	331421	wordpools/wasnorm_wordpool_less_exclusions.txt	LTP275	ltpFR	8	2	1	CLIPPERS	324	n/a	n/a	0	n/a	0	0	0	0.422607421875	0.5869140625	0	lower	zerothre.ttf
667.036	n/a	WORD	333518	wordpools/wasnorm_wordpool_less_exclusions.txt	LTP275	ltpFR	8	2	1	SYRUP	1425	n/a	n/a	0	n/a	0	0	0	0.422607421875	0.5869140625	0	lower	zerothre.ttf
670.914	n/a	WORD	335457	wordpools/wasnorm_wordpool_less_exclusions.txt	LTP275	ltpFR	8	2	1	DUCK	504	n/a	n/a	1	n/a	0	0	0	0.422607421875	0.5869140625	0	lower	zerothre.ttf
675.024	n/a	WORD	337512	wordpools/wasnorm_wordpool_less_exclusions.txt	LTP275	ltpFR	8	2	1	SPARROW	1347	n/a	n/a	1	n/a	0	0	0	0.422607421875	0.5869140625	0	lower	zerothre.ttf
679.05	n/a	WORD	339525	wordpools/wasnorm_wordpool_less_exclusions.txt	LTP275	ltpFR	8	2	1	HARE	688	n/a	n/a	1	n/a	0	0	0	0.422607421875	0.5869140625	0	lower	zerothre.ttf
683.078	n/a	WORD	341539	wordpools/wasnorm_wordpool_less_exclusions.txt	LTP275	ltpFR	8	2	1	PASSENGER	1020	n/a	n/a	1	n/a	0	0	0	0.422607421875	0.5869140625	0	lower	zerothre.ttf
687.056	n/a	WORD	343528	wordpools/wasnorm_wordpool_less_exclusions.txt	LTP275	ltpFR	8	2	1	NEST	945	n/a	n/a	0	n/a	0	0	0	0.422607421875	0.5869140625	0	lower	zerothre.ttf
691.032	n/a	WORD	345516	wordpools/wasnorm_wordpool_less_exclusions.txt	LTP275	ltpFR	8	2	1	EAGLE	512	n/a	n/a	1	n/a	0	0	0	0.422607421875	0.5869140625	0	lower	zerothre.ttf
694.046	n/a	START	347023	n/a	LTP275	ltpFR	8	n/a	n/a	n/a	n/a	n/a	n/a	n/a	n/a	n/a	n/a	n/a	n/a	n/a	n/a	n/a	n/a
694.944	n/a	PROB	347472	n/a	LTP275	ltpFR	8	n/a	n/a	n/a	n/a	n/a	n/a	n/a	13	3	2	8	n/a	n/a	n/a	n/a	n/a
696.776	n/a	PROB	348388	n/a	LTP275	ltpFR	8	n/a	n/a	n/a	n/a	n/a	n/a	n/a	11	3	2	6	n/a	n/a	n/a	n/a	n/a
698.188	n/a	PROB	349094	n/a	LTP275	ltpFR	8	n/a	n/a	n/a	n/a	n/a	n/a	n/a	16	9	9	1	n/a	n/a	n/a	n/a	n/a
699.806	n/a	PROB	349903	n/a	LTP275	ltpFR	8	n/a	n/a	n/a	n/a	n/a	n/a	n/a	8	6	1	1	n/a	n/a	n/a	n/a	n/a
701.234	n/a	STOP	350617	n/a	LTP275	ltpFR	8	n/a	n/a	n/a	n/a	n/a	n/a	n/a	n/a	n/a	n/a	n/a	n/a	n/a	n/a	n/a	n/a
703.832	n/a	REC_START	351916	n/a	LTP275	ltpFR	8	2	n/a	n/a	n/a	n/a	n/a	n/a	n/a	0	0	0	n/a	n/a	n/a	n/a	n/a
705.09	n/a	REC_WORD	352545	wordpools/wasnorm_wordpool_less_exclusions.txt	LTP275	ltpFR	8	2	1	BLUEJAY	141	n/a	n/a	0	n/a	0	0	0	n/a	n/a	n/a	n/a	n/a
706.006	n/a	REC_WORD	353003	wordpools/wasnorm_wordpool_less_exclusions.txt	LTP275	ltpFR	8	2	1	FEATHER	557	n/a	n/a	0	n/a	0	0	0	n/a	n/a	n/a	n/a	n/a
707.192	n/a	REC_WORD	353596	wordpools/wasnorm_wordpool_less_exclusions.txt	LTP275	ltpFR	8	2	1	DUMP	505	n/a	n/a	0	n/a	0	0	0	n/a	n/a	n/a	n/a	n/a
708.24	n/a	REC_WORD	354120	wordpools/wasnorm_wordpool_less_exclusions.txt	LTP275	ltpFR	8	2	1	MOTOR	922	n/a	n/a	0	n/a	0	0	0	n/a	n/a	n/a	n/a	n/a
709.504	n/a	REC_WORD	354752	wordpools/wasnorm_wordpool_less_exclusions.txt	LTP275	ltpFR	8	2	1	OFFICE	972	n/a	n/a	0	n/a	0	0	0	n/a	n/a	n/a	n/a	n/a
710.51	n/a	REC_WORD	355255	wordpools/wasnorm_wordpool_less_exclusions.txt	LTP275	ltpFR	8	2	1	CORPORATION	382	n/a	n/a	0	n/a	0	0	0	n/a	n/a	n/a	n/a	n/a
712.266	n/a	REC_WORD	356133	wordpools/wasnorm_wordpool_less_exclusions.txt	LTP275	ltpFR	8	2	1	FIREPLACE	570	n/a	n/a	0	n/a	0	0	0	n/a	n/a	n/a	n/a	n/a
713.402	n/a	REC_WORD	356701	wordpools/wasnorm_wordpool_less_exclusions.txt	LTP275	ltpFR	8	2	1	CIGAR	308	n/a	n/a	0	n/a	0	0	0	n/a	n/a	n/a	n/a	n/a
714.796	n/a	REC_WORD	357398	wordpools/wasnorm_wordpool_less_exclusions.txt	LTP275	ltpFR	8	2	1	CLIPPERS	324	n/a	n/a	0	n/a	0	0	0	n/a	n/a	n/a	n/a	n/a
716.178	n/a	REC_WORD	358089	wordpools/wasnorm_wordpool_less_exclusions.txt	LTP275	ltpFR	8	2	1	SYRUP	1425	n/a	n/a	0	n/a	0	0	0	n/a	n/a	n/a	n/a	n/a
718.74	n/a	REC_WORD	359370	wordpools/wasnorm_wordpool_less_exclusions.txt	LTP275	ltpFR	8	2	1	DUCK	504	n/a	n/a	1	n/a	0	0	0	n/a	n/a	n/a	n/a	n/a
719.636	n/a	REC_WORD	359818	wordpools/wasnorm_wordpool_less_exclusions.txt	LTP275	ltpFR	8	2	1	SPARROW	1347	n/a	n/a	1	n/a	0	0	0	n/a	n/a	n/a	n/a	n/a
721.148	n/a	REC_WORD	360574	wordpools/wasnorm_wordpool_less_exclusions.txt	LTP275	ltpFR	8	2	1	EAGLE	512	n/a	n/a	1	n/a	0	0	0	n/a	n/a	n/a	n/a	n/a
722.558	n/a	REC_WORD	361279	wordpools/wasnorm_wordpool_less_exclusions.txt	LTP275	ltpFR	8	2	1	NEST	945	n/a	n/a	0	n/a	0	0	0	n/a	n/a	n/a	n/a	n/a
785.476	n/a	START	392738	n/a	LTP275	ltpFR	8	n/a	n/a	n/a	n/a	n/a	n/a	n/a	n/a	n/a	n/a	n/a	n/a	n/a	n/a	n/a	n/a
786.99	n/a	PROB	393495	n/a	LTP275	ltpFR	8	n/a	n/a	n/a	n/a	n/a	n/a	n/a	16	4	9	3	n/a	n/a	n/a	n/a	n/a
788.756	n/a	PROB	394378	n/a	LTP275	ltpFR	8	n/a	n/a	n/a	n/a	n/a	n/a	n/a	23	9	8	6	n/a	n/a	n/a	n/a	n/a
790.786	n/a	PROB	395393	n/a	LTP275	ltpFR	8	n/a	n/a	n/a	n/a	n/a	n/a	n/a	17	4	7	6	n/a	n/a	n/a	n/a	n/a
792.172	n/a	STOP	396086	n/a	LTP275	ltpFR	8	n/a	n/a	n/a	n/a	n/a	n/a	n/a	n/a	n/a	n/a	n/a	n/a	n/a	n/a	n/a	n/a
794.464	n/a	WORD	397232	wordpools/wasnorm_wordpool_less_exclusions.txt	LTP275	ltpFR	8	3	1	TRAY	1498	n/a	n/a	0	n/a	0	0	0	0.422607421875	0.5869140625	0	lower	zerothre.ttf
797.476	n/a	START	398738	n/a	LTP275	ltpFR	8	n/a	n/a	n/a	n/a	n/a	n/a	n/a	n/a	n/a	n/a	n/a	n/a	n/a	n/a	n/a	n/a
798.608	n/a	PROB	399304	n/a	LTP275	ltpFR	8	n/a	n/a	n/a	n/a	n/a	n/a	n/a	19	9	3	7	n/a	n/a	n/a	n/a	n/a
800.638	n/a	PROB	400319	n/a	LTP275	ltpFR	8	n/a	n/a	n/a	n/a	n/a	n/a	n/a	18	7	2	9	n/a	n/a	n/a	n/a	n/a
801.97	n/a	PROB	400985	n/a	LTP275	ltpFR	8	n/a	n/a	n/a	n/a	n/a	n/a	n/a	12	7	3	2	n/a	n/a	n/a	n/a	n/a
803.2	n/a	PROB	401600	n/a	LTP275	ltpFR	8	n/a	n/a	n/a	n/a	n/a	n/a	n/a	18	2	8	8	n/a	n/a	n/a	n/a	n/a
804.524	n/a	STOP	402262	n/a	LTP275	ltpFR	8	n/a	n/a	n/a	n/a	n/a	n/a	n/a	n/a	n/a	n/a	n/a	n/a	n/a	n/a	n/a	n/a
806.446	n/a	WORD	403223	wordpools/wasnorm_wordpool_less_exclusions.txt	LTP275	ltpFR	8	3	1	FEAST	556	n/a	n/a	0	n/a	0	0	0	0.422607421875	0.5869140625	0	lower	zerothre.ttf
809.458	n/a	START	404729	n/a	LTP275	ltpFR	8	n/a	n/a	n/a	n/a	n/a	n/a	n/a	n/a	n/a	n/a	n/a	n/a	n/a	n/a	n/a	n/a
810.64	n/a	PROB	405320	n/a	LTP275	ltpFR	8	n/a	n/a	n/a	n/a	n/a	n/a	n/a	16	4	8	1	n/a	n/a	n/a	n/a	n/a
812.17	n/a	PROB	406085	n/a	LTP275	ltpFR	8	n/a	n/a	n/a	n/a	n/a	n/a	n/a	23	8	7	8	n/a	n/a	n/a	n/a	n/a
814.602	n/a	PROB	407301	n/a	LTP275	ltpFR	8	n/a	n/a	n/a	n/a	n/a	n/a	n/a	12	7	3	2	n/a	n/a	n/a	n/a	n/a
817.458	n/a	STOP	408729	n/a	LTP275	ltpFR	8	n/a	n/a	n/a	n/a	n/a	n/a	n/a	n/a	n/a	n/a	n/a	n/a	n/a	n/a	n/a	n/a
818.294	n/a	WORD	409147	wordpools/wasnorm_wordpool_less_exclusions.txt	LTP275	ltpFR	8	3	1	FLESH	579	n/a	n/a	1	n/a	0	0	0	0.422607421875	0.5869140625	0	lower	zerothre.ttf
821.308	n/a	START	410654	n/a	LTP275	ltpFR	8	n/a	n/a	n/a	n/a	n/a	n/a	n/a	n/a	n/a	n/a	n/a	n/a	n/a	n/a	n/a	n/a
822.238	n/a	PROB	411119	n/a	LTP275	ltpFR	8	n/a	n/a	n/a	n/a	n/a	n/a	n/a	17	9	4	4	n/a	n/a	n/a	n/a	n/a
823.87	n/a	PROB	411935	n/a	LTP275	ltpFR	8	n/a	n/a	n/a	n/a	n/a	n/a	n/a	6	2	3	1	n/a	n/a	n/a	n/a	n/a
825.118	n/a	PROB	412559	n/a	LTP275	ltpFR	8	n/a	n/a	n/a	n/a	n/a	n/a	n/a	15	7	2	6	n/a	n/a	n/a	n/a	n/a
826.35	n/a	PROB	413175	n/a	LTP275	ltpFR	8	n/a	n/a	n/a	n/a	n/a	n/a	n/a	16	7	7	2	n/a	n/a	n/a	n/a	n/a
827.632	n/a	PROB	413816	n/a	LTP275	ltpFR	8	n/a	n/a	n/a	n/a	n/a	n/a	n/a	15	3	5	7	n/a	n/a	n/a	n/a	n/a
828.756	n/a	STOP	414378	n/a	LTP275	ltpFR	8	n/a	n/a	n/a	n/a	n/a	n/a	n/a	n/a	n/a	n/a	n/a	n/a	n/a	n/a	n/a	n/a
830.31	n/a	WORD	415155	wordpools/wasnorm_wordpool_less_exclusions.txt	LTP275	ltpFR	8	3	0	ARTERY	41	n/a	n/a	0	n/a	0	0	0	0.57763671875	0.412841796875	1	upper	amplitud.ttf
833.322	n/a	START	416661	n/a	LTP275	ltpFR	8	n/a	n/a	n/a	n/a	n/a	n/a	n/a	n/a	n/a	n/a	n/a	n/a	n/a	n/a	n/a	n/a
834.154	n/a	PROB	417077	n/a	LTP275	ltpFR	8	n/a	n/a	n/a	n/a	n/a	n/a	n/a	26	9	9	8	n/a	n/a	n/a	n/a	n/a
837.482	n/a	PROB	418741	n/a	LTP275	ltpFR	8	n/a	n/a	n/a	n/a	n/a	n/a	n/a	19	7	6	6	n/a	n/a	n/a	n/a	n/a
838.964	n/a	PROB	419482	n/a	LTP275	ltpFR	8	n/a	n/a	n/a	n/a	n/a	n/a	n/a	15	6	4	5	n/a	n/a	n/a	n/a	n/a
840.132	n/a	STOP	420066	n/a	LTP275	ltpFR	8	n/a	n/a	n/a	n/a	n/a	n/a	n/a	n/a	n/a	n/a	n/a	n/a	n/a	n/a	n/a	n/a
842.442	n/a	WORD	421221	wordpools/wasnorm_wordpool_less_exclusions.txt	LTP275	ltpFR	8	3	0	COUGAR	387	n/a	n/a	0	n/a	0	0	0	0.57763671875	0.412841796875	1	upper	amplitud.ttf
845.454	n/a	START	422727	n/a	LTP275	ltpFR	8	n/a	n/a	n/a	n/a	n/a	n/a	n/a	n/a	n/a	n/a	n/a	n/a	n/a	n/a	n/a	n/a
846.452	n/a	PROB	423226	n/a	LTP275	ltpFR	8	n/a	n/a	n/a	n/a	n/a	n/a	n/a	20	7	5	8	n/a	n/a	n/a	n/a	n/a
848.234	n/a	PROB	424117	n/a	LTP275	ltpFR	8	n/a	n/a	n/a	n/a	n/a	n/a	n/a	13	4	5	4	n/a	n/a	n/a	n/a	n/a
850.464	n/a	PROB	425232	n/a	LTP275	ltpFR	8	n/a	n/a	n/a	n/a	n/a	n/a	n/a	18	8	1	9	n/a	n/a	n/a	n/a	n/a
853.452	n/a	STOP	426726	n/a	LTP275	ltpFR	8	n/a	n/a	n/a	n/a	n/a	n/a	n/a	n/a	n/a	n/a	n/a	n/a	n/a	n/a	n/a	n/a
854.674	n/a	WORD	427337	wordpools/wasnorm_wordpool_less_exclusions.txt	LTP275	ltpFR	8	3	0	GARBAGE	622	n/a	n/a	0	n/a	0	0	0	0.57763671875	0.412841796875	1	upper	amplitud.ttf
857.688	n/a	START	428844	n/a	LTP275	ltpFR	8	n/a	n/a	n/a	n/a	n/a	n/a	n/a	n/a	n/a	n/a	n/a	n/a	n/a	n/a	n/a	n/a
858.752	n/a	PROB	429376	n/a	LTP275	ltpFR	8	n/a	n/a	n/a	n/a	n/a	n/a	n/a	21	6	8	7	n/a	n/a	n/a	n/a	n/a
860.332	n/a	PROB	430166	n/a	LTP275	ltpFR	8	n/a	n/a	n/a	n/a	n/a	n/a	n/a	20	6	5	9	n/a	n/a	n/a	n/a	n/a
862.396	n/a	PROB	431198	n/a	LTP275	ltpFR	8	n/a	n/a	n/a	n/a	n/a	n/a	n/a	14	7	3	4	n/a	n/a	n/a	n/a	n/a
864.076	n/a	PROB	432038	n/a	LTP275	ltpFR	8	n/a	n/a	n/a	n/a	n/a	n/a	n/a	15	2	4	9	n/a	n/a	n/a	n/a	n/a
865.5	n/a	STOP	432750	n/a	LTP275	ltpFR	8	n/a	n/a	n/a	n/a	n/a	n/a	n/a	n/a	n/a	n/a	n/a	n/a	n/a	n/a	n/a	n/a
866.84	n/a	WORD	433420	wordpools/wasnorm_wordpool_less_exclusions.txt	LTP275	ltpFR	8	3	1	SECRETARY	1265	n/a	n/a	1	n/a	0	0	0	0.422607421875	0.5869140625	0	lower	zerothre.ttf
869.852	n/a	START	434926	n/a	LTP275	ltpFR	8	n/a	n/a	n/a	n/a	n/a	n/a	n/a	n/a	n/a	n/a	n/a	n/a	n/a	n/a	n/a	n/a
870.8	n/a	PROB	435400	n/a	LTP275	ltpFR	8	n/a	n/a	n/a	n/a	n/a	n/a	n/a	17	6	5	6	n/a	n/a	n/a	n/a	n/a
872.632	n/a	PROB	436316	n/a	LTP275	ltpFR	8	n/a	n/a	n/a	n/a	n/a	n/a	n/a	9	1	5	3	n/a	n/a	n/a	n/a	n/a
874.012	n/a	PROB	437006	n/a	LTP275	ltpFR	8	n/a	n/a	n/a	n/a	n/a	n/a	n/a	24	9	9	6	n/a	n/a	n/a	n/a	n/a
875.794	n/a	PROB	437897	n/a	LTP275	ltpFR	8	n/a	n/a	n/a	n/a	n/a	n/a	n/a	17	8	1	8	n/a	n/a	n/a	n/a	n/a
877.124	n/a	STOP	438562	n/a	LTP275	ltpFR	8	n/a	n/a	n/a	n/a	n/a	n/a	n/a	n/a	n/a	n/a	n/a	n/a	n/a	n/a	n/a	n/a
879.054	n/a	WORD	439527	wordpools/wasnorm_wordpool_less_exclusions.txt	LTP275	ltpFR	8	3	1	CLARINET	317	n/a	n/a	0	n/a	0	0	0	0.422607421875	0.5869140625	0	lower	zerothre.ttf
882.068	n/a	START	441034	n/a	LTP275	ltpFR	8	n/a	n/a	n/a	n/a	n/a	n/a	n/a	n/a	n/a	n/a	n/a	n/a	n/a	n/a	n/a	n/a
883.266	n/a	PROB	441633	n/a	LTP275	ltpFR	8	n/a	n/a	n/a	n/a	n/a	n/a	n/a	14	8	1	5	n/a	n/a	n/a	n/a	n/a
884.664	n/a	PROB	442332	n/a	LTP275	ltpFR	8	n/a	n/a	n/a	n/a	n/a	n/a	n/a	14	8	3	3	n/a	n/a	n/a	n/a	n/a
886.228	n/a	PROB	443114	n/a	LTP275	ltpFR	8	n/a	n/a	n/a	n/a	n/a	n/a	n/a	8	5	2	1	n/a	n/a	n/a	n/a	n/a
887.442	n/a	PROB	443721	n/a	LTP275	ltpFR	8	n/a	n/a	n/a	n/a	n/a	n/a	n/a	5	2	2	1	n/a	n/a	n/a	n/a	n/a
888.458	n/a	PROB	444229	n/a	LTP275	ltpFR	8	n/a	n/a	n/a	n/a	n/a	n/a	n/a	9	5	1	3	n/a	n/a	n/a	n/a	n/a
889.596	n/a	STOP	444798	n/a	LTP275	ltpFR	8	n/a	n/a	n/a	n/a	n/a	n/a	n/a	n/a	n/a	n/a	n/a	n/a	n/a	n/a	n/a	n/a
891.004	n/a	WORD	445502	wordpools/wasnorm_wordpool_less_exclusions.txt	LTP275	ltpFR	8	3	0	ABDOMEN	1	n/a	n/a	1	n/a	0	0	0	0.57763671875	0.412841796875	1	upper	amplitud.ttf
894.016	n/a	START	447008	n/a	LTP275	ltpFR	8	n/a	n/a	n/a	n/a	n/a	n/a	n/a	n/a	n/a	n/a	n/a	n/a	n/a	n/a	n/a	n/a
894.964	n/a	PROB	447482	n/a	LTP275	ltpFR	8	n/a	n/a	n/a	n/a	n/a	n/a	n/a	21	9	5	7	n/a	n/a	n/a	n/a	n/a
896.512	n/a	PROB	448256	n/a	LTP275	ltpFR	8	n/a	n/a	n/a	n/a	n/a	n/a	n/a	17	8	7	2	n/a	n/a	n/a	n/a	n/a
897.96	n/a	PROB	448980	n/a	LTP275	ltpFR	8	n/a	n/a	n/a	n/a	n/a	n/a	n/a	12	5	5	2	n/a	n/a	n/a	n/a	n/a
899.042	n/a	PROB	449521	n/a	LTP275	ltpFR	8	n/a	n/a	n/a	n/a	n/a	n/a	n/a	18	6	6	6	n/a	n/a	n/a	n/a	n/a
900.942	n/a	STOP	450471	n/a	LTP275	ltpFR	8	n/a	n/a	n/a	n/a	n/a	n/a	n/a	n/a	n/a	n/a	n/a	n/a	n/a	n/a	n/a	n/a
903.102	n/a	WORD	451551	wordpools/wasnorm_wordpool_less_exclusions.txt	LTP275	ltpFR	8	3	0	NECK	939	n/a	n/a	0	n/a	0	0	0	0.57763671875	0.412841796875	1	upper	amplitud.ttf
906.116	n/a	START	453058	n/a	LTP275	ltpFR	8	n/a	n/a	n/a	n/a	n/a	n/a	n/a	n/a	n/a	n/a	n/a	n/a	n/a	n/a	n/a	n/a
907.046	n/a	PROB	453523	n/a	LTP275	ltpFR	8	n/a	n/a	n/a	n/a	n/a	n/a	n/a	14	4	7	3	n/a	n/a	n/a	n/a	n/a
908.344	n/a	PROB	454172	n/a	LTP275	ltpFR	8	n/a	n/a	n/a	n/a	n/a	n/a	n/a	8	2	3	3	n/a	n/a	n/a	n/a	n/a
909.726	n/a	PROB	454863	n/a	LTP275	ltpFR	8	n/a	n/a	n/a	n/a	n/a	n/a	n/a	23	9	5	9	n/a	n/a	n/a	n/a	n/a
911.74	n/a	PROB	455870	n/a	LTP275	ltpFR	8	n/a	n/a	n/a	n/a	n/a	n/a	n/a	19	8	8	3	n/a	n/a	n/a	n/a	n/a
912.894	n/a	STOP	456447	n/a	LTP275	ltpFR	8	n/a	n/a	n/a	n/a	n/a	n/a	n/a	n/a	n/a	n/a	n/a	n/a	n/a	n/a	n/a	n/a
915.084	n/a	WORD	457542	wordpools/wasnorm_wordpool_less_exclusions.txt	LTP275	ltpFR	8	3	0	BOOK	149	n/a	n/a	0	n/a	0	0	0	0.57763671875	0.412841796875	1	upper	amplitud.ttf
918.098	n/a	START	459049	n/a	LTP275	ltpFR	8	n/a	n/a	n/a	n/a	n/a	n/a	n/a	n/a	n/a	n/a	n/a	n/a	n/a	n/a	n/a	n/a
918.914	n/a	PROB	459457	n/a	LTP275	ltpFR	8	n/a	n/a	n/a	n/a	n/a	n/a	n/a	15	5	1	9	n/a	n/a	n/a	n/a	n/a
920.76	n/a	PROB	460380	n/a	LTP275	ltpFR	8	n/a	n/a	n/a	n/a	n/a	n/a	n/a	11	5	1	5	n/a	n/a	n/a	n/a	n/a
921.974	n/a	PROB	460987	n/a	LTP275	ltpFR	8	n/a	n/a	n/a	n/a	n/a	n/a	n/a	16	6	8	2	n/a	n/a	n/a	n/a	n/a
923.256	n/a	PROB	461628	n/a	LTP275	ltpFR	8	n/a	n/a	n/a	n/a	n/a	n/a	n/a	18	8	2	8	n/a	n/a	n/a	n/a	n/a
924.454	n/a	PROB	462227	n/a	LTP275	ltpFR	8	n/a	n/a	n/a	n/a	n/a	n/a	n/a	10	5	2	3	n/a	n/a	n/a	n/a	n/a
925.726	n/a	STOP	462863	n/a	LTP275	ltpFR	8	n/a	n/a	n/a	n/a	n/a	n/a	n/a	n/a	n/a	n/a	n/a	n/a	n/a	n/a	n/a	n/a
927.116	n/a	WORD	463558	wordpools/wasnorm_wordpool_less_exclusions.txt	LTP275	ltpFR	8	3	0	SPAGHETTI	1346	n/a	n/a	0	n/a	0	0	0	0.57763671875	0.412841796875	1	upper	amplitud.ttf
930.13	n/a	START	465065	n/a	LTP275	ltpFR	8	n/a	n/a	n/a	n/a	n/a	n/a	n/a	n/a	n/a	n/a	n/a	n/a	n/a	n/a	n/a	n/a
931.044	n/a	PROB	465522	n/a	LTP275	ltpFR	8	n/a	n/a	n/a	n/a	n/a	n/a	n/a	14	6	5	3	n/a	n/a	n/a	n/a	n/a
932.61	n/a	PROB	466305	n/a	LTP275	ltpFR	8	n/a	n/a	n/a	n/a	n/a	n/a	n/a	9	4	4	1	n/a	n/a	n/a	n/a	n/a
933.758	n/a	PROB	466879	n/a	LTP275	ltpFR	8	n/a	n/a	n/a	n/a	n/a	n/a	n/a	12	2	9	1	n/a	n/a	n/a	n/a	n/a
936.036	n/a	PROB	468018	n/a	LTP275	ltpFR	8	n/a	n/a	n/a	n/a	n/a	n/a	n/a	14	7	3	4	n/a	n/a	n/a	n/a	n/a
936.95	n/a	STOP	468475	n/a	LTP275	ltpFR	8	n/a	n/a	n/a	n/a	n/a	n/a	n/a	n/a	n/a	n/a	n/a	n/a	n/a	n/a	n/a	n/a
939.198	n/a	WORD	469599	wordpools/wasnorm_wordpool_less_exclusions.txt	LTP275	ltpFR	8	3	0	VIOLIN	1571	n/a	n/a	1	n/a	0	0	0	0.57763671875	0.412841796875	1	upper	amplitud.ttf
942.212	n/a	START	471106	n/a	LTP275	ltpFR	8	n/a	n/a	n/a	n/a	n/a	n/a	n/a	n/a	n/a	n/a	n/a	n/a	n/a	n/a	n/a	n/a
943.31	n/a	PROB	471655	n/a	LTP275	ltpFR	8	n/a	n/a	n/a	n/a	n/a	n/a	n/a	14	7	6	1	n/a	n/a	n/a	n/a	n/a
944.624	n/a	PROB	472312	n/a	LTP275	ltpFR	8	n/a	n/a	n/a	n/a	n/a	n/a	n/a	14	6	1	7	n/a	n/a	n/a	n/a	n/a
946.222	n/a	PROB	473111	n/a	LTP275	ltpFR	8	n/a	n/a	n/a	n/a	n/a	n/a	n/a	21	8	6	7	n/a	n/a	n/a	n/a	n/a
947.786	n/a	PROB	473893	n/a	LTP275	ltpFR	8	n/a	n/a	n/a	n/a	n/a	n/a	n/a	17	7	5	5	n/a	n/a	n/a	n/a	n/a
949.188	n/a	STOP	474594	n/a	LTP275	ltpFR	8	n/a	n/a	n/a	n/a	n/a	n/a	n/a	n/a	n/a	n/a	n/a	n/a	n/a	n/a	n/a	n/a
951.28	n/a	WORD	475640	wordpools/wasnorm_wordpool_less_exclusions.txt	LTP275	ltpFR	8	3	1	DOG	480	n/a	n/a	1	n/a	0	0	0	0.422607421875	0.5869140625	0	lower	zerothre.ttf
954.294	n/a	START	477147	n/a	LTP275	ltpFR	8	n/a	n/a	n/a	n/a	n/a	n/a	n/a	n/a	n/a	n/a	n/a	n/a	n/a	n/a	n/a	n/a
955.49	n/a	PROB	477745	n/a	LTP275	ltpFR	8	n/a	n/a	n/a	n/a	n/a	n/a	n/a	13	1	5	7	n/a	n/a	n/a	n/a	n/a
957.156	n/a	PROB	478578	n/a	LTP275	ltpFR	8	n/a	n/a	n/a	n/a	n/a	n/a	n/a	16	6	1	9	n/a	n/a	n/a	n/a	n/a
959.168	n/a	PROB	479584	n/a	LTP275	ltpFR	8	n/a	n/a	n/a	n/a	n/a	n/a	n/a	16	3	9	4	n/a	n/a	n/a	n/a	n/a
962.294	n/a	STOP	481147	n/a	LTP275	ltpFR	8	n/a	n/a	n/a	n/a	n/a	n/a	n/a	n/a	n/a	n/a	n/a	n/a	n/a	n/a	n/a	n/a
963.262	n/a	WORD	481631	wordpools/wasnorm_wordpool_less_exclusions.txt	LTP275	ltpFR	8	3	1	SACK	1220	n/a	n/a	0	n/a	0	0	0	0.422607421875	0.5869140625	0	lower	zerothre.ttf
966.276	n/a	START	483138	n/a	LTP275	ltpFR	8	n/a	n/a	n/a	n/a	n/a	n/a	n/a	n/a	n/a	n/a	n/a	n/a	n/a	n/a	n/a	n/a
967.192	n/a	PROB	483596	n/a	LTP275	ltpFR	8	n/a	n/a	n/a	n/a	n/a	n/a	n/a	12	3	5	4	n/a	n/a	n/a	n/a	n/a
968.872	n/a	PROB	484436	n/a	LTP275	ltpFR	8	n/a	n/a	n/a	n/a	n/a	n/a	n/a	13	1	6	6	n/a	n/a	n/a	n/a	n/a
970.186	n/a	PROB	485093	n/a	LTP275	ltpFR	8	n/a	n/a	n/a	n/a	n/a	n/a	n/a	25	8	8	9	n/a	n/a	n/a	n/a	n/a
974.27	n/a	STOP	487135	n/a	LTP275	ltpFR	8	n/a	n/a	n/a	n/a	n/a	n/a	n/a	n/a	n/a	n/a	n/a	n/a	n/a	n/a	n/a	n/a
975.446	n/a	WORD	487723	wordpools/wasnorm_wordpool_less_exclusions.txt	LTP275	ltpFR	8	3	1	JOKER	759	n/a	n/a	1	n/a	0	0	0	0.422607421875	0.5869140625	0	lower	zerothre.ttf
978.458	n/a	START	489229	n/a	LTP275	ltpFR	8	n/a	n/a	n/a	n/a	n/a	n/a	n/a	n/a	n/a	n/a	n/a	n/a	n/a	n/a	n/a	n/a
979.34	n/a	PROB	489670	n/a	LTP275	ltpFR	8	n/a	n/a	n/a	n/a	n/a	n/a	n/a	20	4	9	7	n/a	n/a	n/a	n/a	n/a
980.722	n/a	PROB	490361	n/a	LTP275	ltpFR	8	n/a	n/a	n/a	n/a	n/a	n/a	n/a	18	7	5	6	n/a	n/a	n/a	n/a	n/a
982.318	n/a	PROB	491159	n/a	LTP275	ltpFR	8	n/a	n/a	n/a	n/a	n/a	n/a	n/a	8	3	1	4	n/a	n/a	n/a	n/a	n/a
983.584	n/a	PROB	491792	n/a	LTP275	ltpFR	8	n/a	n/a	n/a	n/a	n/a	n/a	n/a	7	2	2	3	n/a	n/a	n/a	n/a	n/a
984.958	n/a	STOP	492479	n/a	LTP275	ltpFR	8	n/a	n/a	n/a	n/a	n/a	n/a	n/a	n/a	n/a	n/a	n/a	n/a	n/a	n/a	n/a	n/a
988.21	n/a	REC_START	494105	n/a	LTP275	ltpFR	8	3	n/a	n/a	n/a	n/a	n/a	n/a	n/a	0	0	0	n/a	n/a	n/a	n/a	n/a
989.318	n/a	REC_WORD	494659	wordpools/wasnorm_wordpool_less_exclusions.txt	LTP275	ltpFR	8	3	1	TRAY	1498	n/a	n/a	0	n/a	0	0	0	n/a	n/a	n/a	n/a	n/a
990.514	n/a	REC_WORD	495257	wordpools/wasnorm_wordpool_less_exclusions.txt	LTP275	ltpFR	8	3	n/a	BANQUET	86	n/a	n/a	n/a	n/a	0	0	0	n/a	n/a	n/a	n/a	n/a
991.378	n/a	REC_WORD	495689	wordpools/wasnorm_wordpool_less_exclusions.txt	LTP275	ltpFR	8	3	1	FLESH	579	n/a	n/a	1	n/a	0	0	0	n/a	n/a	n/a	n/a	n/a
992.716	n/a	REC_WORD	496358	wordpools/wasnorm_wordpool_less_exclusions.txt	LTP275	ltpFR	8	3	0	ARTERY	41	n/a	n/a	0	n/a	0	0	0	n/a	n/a	n/a	n/a	n/a
994.028	n/a	REC_WORD	497014	wordpools/wasnorm_wordpool_less_exclusions.txt	LTP275	ltpFR	8	3	0	ABDOMEN	1	n/a	n/a	1	n/a	0	0	0	n/a	n/a	n/a	n/a	n/a
995.218	n/a	REC_WORD	497609	wordpools/wasnorm_wordpool_less_exclusions.txt	LTP275	ltpFR	8	3	0	NECK	939	n/a	n/a	0	n/a	0	0	0	n/a	n/a	n/a	n/a	n/a
996.7	n/a	REC_WORD	498350	wordpools/wasnorm_wordpool_less_exclusions.txt	LTP275	ltpFR	8	3	1	SECRETARY	1265	n/a	n/a	1	n/a	0	0	0	n/a	n/a	n/a	n/a	n/a
998.354	n/a	REC_WORD	499177	wordpools/wasnorm_wordpool_less_exclusions.txt	LTP275	ltpFR	8	3	1	DOG	480	n/a	n/a	1	n/a	0	0	0	n/a	n/a	n/a	n/a	n/a
999.32	n/a	REC_WORD	499660	wordpools/wasnorm_wordpool_less_exclusions.txt	LTP275	ltpFR	8	3	1	SACK	1220	n/a	n/a	0	n/a	0	0	0	n/a	n/a	n/a	n/a	n/a
1000.764	n/a	REC_WORD	500382	wordpools/wasnorm_wordpool_less_exclusions.txt	LTP275	ltpFR	8	3	1	CLARINET	317	n/a	n/a	0	n/a	0	0	0	n/a	n/a	n/a	n/a	n/a
1001.92	n/a	REC_WORD	500960	wordpools/wasnorm_wordpool_less_exclusions.txt	LTP275	ltpFR	8	3	0	VIOLIN	1571	n/a	n/a	1	n/a	0	0	0	n/a	n/a	n/a	n/a	n/a
1003.448	n/a	REC_WORD	501724	wordpools/wasnorm_wordpool_less_exclusions.txt	LTP275	ltpFR	8	3	0	BOOK	149	n/a	n/a	0	n/a	0	0	0	n/a	n/a	n/a	n/a	n/a
1070.788	n/a	WORD	535394	wordpools/wasnorm_wordpool_less_exclusions.txt	LTP275	ltpFR	8	4	0	UNDERWEAR	1537	n/a	n/a	0	n/a	0	0	0	0.57763671875	0.412841796875	1	upper	amplitud.ttf
1074.898	n/a	WORD	537449	wordpools/wasnorm_wordpool_less_exclusions.txt	LTP275	ltpFR	8	4	0	ISLAND	745	n/a	n/a	1	n/a	0	0	0	0.57763671875	0.412841796875	1	upper	amplitud.ttf
1078.992	n/a	WORD	539496	wordpools/wasnorm_wordpool_less_exclusions.txt	LTP275	ltpFR	8	4	0	BATHTUB	100	n/a	n/a	1	n/a	0	0	0	0.57763671875	0.412841796875	1	upper	amplitud.ttf
1083.186	n/a	WORD	541593	wordpools/wasnorm_wordpool_less_exclusions.txt	LTP275	ltpFR	8	4	0	BISON	131	n/a	n/a	1	n/a	0	0	0	0.57763671875	0.412841796875	1	upper	amplitud.ttf
1087.296	n/a	WORD	543648	wordpools/wasnorm_wordpool_less_exclusions.txt	LTP275	ltpFR	8	4	0	POET	1095	n/a	n/a	1	n/a	0	0	0	0.57763671875	0.412841796875	1	upper	amplitud.ttf
1091.19	n/a	WORD	545595	wordpools/wasnorm_wordpool_less_exclusions.txt	LTP275	ltpFR	8	4	0	CHIPMUNK	304	n/a	n/a	0	n/a	0	0	0	0.57763671875	0.412841796875	1	upper	amplitud.ttf
1095.068	n/a	WORD	547534	wordpools/wasnorm_wordpool_less_exclusions.txt	LTP275	ltpFR	8	4	0	RODENT	1204	n/a	n/a	0	n/a	0	0	0	0.57763671875	0.412841796875	1	upper	amplitud.ttf
1098.93	n/a	WORD	549465	wordpools/wasnorm_wordpool_less_exclusions.txt	LTP275	ltpFR	8	4	0	GIRAFFE	636	n/a	n/a	1	n/a	0	0	0	0.57763671875	0.412841796875	1	upper	amplitud.ttf
1102.972	n/a	WORD	551486	wordpools/wasnorm_wordpool_less_exclusions.txt	LTP275	ltpFR	8	4	0	YOLK	1633	n/a	n/a	0	n/a	0	0	0	0.57763671875	0.412841796875	1	upper	amplitud.ttf
1107.0	n/a	WORD	553500	wordpools/wasnorm_wordpool_less_exclusions.txt	LTP275	ltpFR	8	4	0	BELLY	119	n/a	n/a	1	n/a	0	0	0	0.57763671875	0.412841796875	1	upper	amplitud.ttf
1111.144	n/a	WORD	555572	wordpools/wasnorm_wordpool_less_exclusions.txt	LTP275	ltpFR	8	4	0	TOWN	1491	n/a	n/a	1	n/a	0	0	0	0.57763671875	0.412841796875	1	upper	amplitud.ttf
1115.32	n/a	WORD	557660	wordpools/wasnorm_wordpool_less_exclusions.txt	LTP275	ltpFR	8	4	0	SCALLOP	1242	n/a	n/a	0	n/a	0	0	0	0.57763671875	0.412841796875	1	upper	amplitud.ttf
1119.282	n/a	WORD	559641	wordpools/wasnorm_wordpool_less_exclusions.txt	LTP275	ltpFR	8	4	0	CRAB	397	n/a	n/a	0	n/a	0	0	0	0.57763671875	0.412841796875	1	upper	amplitud.ttf
1123.492	n/a	WORD	561746	wordpools/wasnorm_wordpool_less_exclusions.txt	LTP275	ltpFR	8	4	0	BLADE	134	n/a	n/a	0	n/a	0	0	0	0.57763671875	0.412841796875	1	upper	amplitud.ttf
1127.352	n/a	WORD	563676	wordpools/wasnorm_wordpool_less_exclusions.txt	LTP275	ltpFR	8	4	0	NOTEBOOK	959	n/a	n/a	0	n/a	0	0	0	0.57763671875	0.412841796875	1	upper	amplitud.ttf
1131.33	n/a	WORD	565665	wordpools/wasnorm_wordpool_less_exclusions.txt	LTP275	ltpFR	8	4	0	HANGER	687	n/a	n/a	0	n/a	0	0	0	0.57763671875	0.412841796875	1	upper	amplitud.ttf
1134.342	n/a	START	567171	n/a	LTP275	ltpFR	8	n/a	n/a	n/a	n/a	n/a	n/a	n/a	n/a	n/a	n/a	n/a	n/a	n/a	n/a	n/a	n/a
1135.274	n/a	PROB	567637	n/a	LTP275	ltpFR	8	n/a	n/a	n/a	n/a	n/a	n/a	n/a	19	7	4	8	n/a	n/a	n/a	n/a	n/a
1137.188	n/a	PROB	568594	n/a	LTP275	ltpFR	8	n/a	n/a	n/a	n/a	n/a	n/a	n/a	13	3	2	9	n/a	n/a	n/a	n/a	n/a
1138.886	n/a	PROB	569443	n/a	LTP275	ltpFR	8	n/a	n/a	n/a	n/a	n/a	n/a	n/a	13	4	7	2	n/a	n/a	n/a	n/a	n/a
1140.334	n/a	PROB	570167	n/a	LTP275	ltpFR	8	n/a	n/a	n/a	n/a	n/a	n/a	n/a	6	3	2	1	n/a	n/a	n/a	n/a	n/a
1141.502	n/a	STOP	570751	n/a	LTP275	ltpFR	8	n/a	n/a	n/a	n/a	n/a	n/a	n/a	n/a	n/a	n/a	n/a	n/a	n/a	n/a	n/a	n/a
1144.244	n/a	REC_START	572122	n/a	LTP275	ltpFR	8	4	n/a	n/a	n/a	n/a	n/a	n/a	n/a	0	0	0	n/a	n/a	n/a	n/a	n/a
1146.132	n/a	REC_WORD	573066	wordpools/wasnorm_wordpool_less_exclusions.txt	LTP275	ltpFR	8	4	0	UNDERWEAR	1537	n/a	n/a	0	n/a	0	0	0	n/a	n/a	n/a	n/a	n/a
1147.528	n/a	REC_WORD	573764	wordpools/wasnorm_wordpool_less_exclusions.txt	LTP275	ltpFR	8	4	0	ISLAND	745	n/a	n/a	1	n/a	0	0	0	n/a	n/a	n/a	n/a	n/a
1148.8	n/a	REC_WORD	574400	wordpools/wasnorm_wordpool_less_exclusions.txt	LTP275	ltpFR	8	4	0	BATHTUB	100	n/a	n/a	1	n/a	0	0	0	n/a	n/a	n/a	n/a	n/a
1151.278	n/a	REC_WORD	575639	wordpools/wasnorm_wordpool_less_exclusions.txt	LTP275	ltpFR	8	4	0	BELLY	119	n/a	n/a	1	n/a	0	0	0	n/a	n/a	n/a	n/a	n/a
1152.322	n/a	REC_WORD	576161	wordpools/wasnorm_wordpool_less_exclusions.txt	LTP275	ltpFR	8	4	0	HANGER	687	n/a	n/a	0	n/a	0	0	0	n/a	n/a	n/a	n/a	n/a
1153.666	n/a	REC_WORD	576833	wordpools/wasnorm_wordpool_less_exclusions.txt	LTP275	ltpFR	8	4	0	NOTEBOOK	959	n/a	n/a	0	n/a	0	0	0	n/a	n/a	n/a	n/a	n/a
1157.638	n/a	REC_WORD	578819	wordpools/wasnorm_wordpool_less_exclusions.txt	LTP275	ltpFR	8	4	0	BISON	131	n/a	n/a	1	n/a	0	0	0	n/a	n/a	n/a	n/a	n/a
1158.826	n/a	REC_WORD	579413	wordpools/wasnorm_wordpool_less_exclusions.txt	LTP275	ltpFR	8	4	0	YOLK	1633	n/a	n/a	0	n/a	0	0	0	n/a	n/a	n/a	n/a	n/a
1160.13	n/a	REC_WORD	580065	wordpools/wasnorm_wordpool_less_exclusions.txt	LTP275	ltpFR	8	4	0	GIRAFFE	636	n/a	n/a	1	n/a	0	0	0	n/a	n/a	n/a	n/a	n/a
1161.704	n/a	REC_WORD	580852	wordpools/wasnorm_wordpool_less_exclusions.txt	LTP275	ltpFR	8	4	0	CHIPMUNK	304	n/a	n/a	0	n/a	0	0	0	n/a	n/a	n/a	n/a	n/a
1163.134	n/a	REC_WORD	581567	wordpools/wasnorm_wordpool_less_exclusions.txt	LTP275	ltpFR	8	4	0	RODENT	1204	n/a	n/a	0	n/a	0	0	0	n/a	n/a	n/a	n/a	n/a
1164.428	n/a	REC_WORD	582214	wordpools/wasnorm_wordpool_less_exclusions.txt	LTP275	ltpFR	8	4	0	CRAB	397	n/a	n/a	0	n/a	0	0	0	n/a	n/a	n/a	n/a	n/a
1165.956	n/a	REC_WORD	582978	wordpools/wasnorm_wordpool_less_exclusions.txt	LTP275	ltpFR	8	4	0	BLADE	134	n/a	n/a	0	n/a	0	0	0	n/a	n/a	n/a	n/a	n/a
1167.166	n/a	REC_WORD	583583	wordpools/wasnorm_wordpool_less_exclusions.txt	LTP275	ltpFR	8	4	0	SCALLOP	1242	n/a	n/a	0	n/a	0	0	0	n/a	n/a	n/a	n/a	n/a
1168.922	n/a	REC_WORD	584461	wordpools/wasnorm_wordpool_less_exclusions.txt	LTP275	ltpFR	8	4	0	POET	1095	n/a	n/a	1	n/a	0	0	0	n/a	n/a	n/a	n/a	n/a
1170.436	n/a	REC_WORD	585218	wordpools/wasnorm_wordpool_less_exclusions.txt	LTP275	ltpFR	8	4	0	TOWN	1491	n/a	n/a	1	n/a	0	0	0	n/a	n/a	n/a	n/a	n/a
1183.694	n/a	REC_WORD	591847	wordpools/wasnorm_wordpool_less_exclusions.txt	LTP275	ltpFR	8	4	n/a	TUB	1514	n/a	n/a	n/a	n/a	0	0	0	n/a	n/a	n/a	n/a	n/a
1225.34	n/a	WORD	612670	wordpools/wasnorm_wordpool_less_exclusions.txt	LTP275	ltpFR	8	5	0	QUILL	1150	n/a	n/a	0	n/a	0	0	0	0.57763671875	0.412841796875	1	upper	amplitud.ttf
1229.202	n/a	WORD	614601	wordpools/wasnorm_wordpool_less_exclusions.txt	LTP275	ltpFR	8	5	0	WILDERNESS	1610	n/a	n/a	1	n/a	0	0	0	0.57763671875	0.412841796875	1	upper	amplitud.ttf
1233.162	n/a	WORD	616581	wordpools/wasnorm_wordpool_less_exclusions.txt	LTP275	ltpFR	8	5	0	SUPERMARKET	1409	n/a	n/a	1	n/a	0	0	0	0.57763671875	0.412841796875	1	upper	amplitud.ttf
1237.358	n/a	WORD	618679	wordpools/wasnorm_wordpool_less_exclusions.txt	LTP275	ltpFR	8	5	0	CHEF	290	n/a	n/a	1	n/a	0	0	0	0.57763671875	0.412841796875	1	upper	amplitud.ttf
1241.252	n/a	WORD	620626	wordpools/wasnorm_wordpool_less_exclusions.txt	LTP275	ltpFR	8	5	1	PENGUIN	1044	n/a	n/a	1	n/a	0	0	0	0.422607421875	0.5869140625	0	lower	zerothre.ttf
1245.262	n/a	WORD	622631	wordpools/wasnorm_wordpool_less_exclusions.txt	LTP275	ltpFR	8	5	1	PIE	1062	n/a	n/a	0	n/a	0	0	0	0.422607421875	0.5869140625	0	lower	zerothre.ttf
1249.172	n/a	WORD	624586	wordpools/wasnorm_wordpool_less_exclusions.txt	LTP275	ltpFR	8	5	1	PIGEON	1065	n/a	n/a	1	n/a	0	0	0	0.422607421875	0.5869140625	0	lower	zerothre.ttf
1253.1	n/a	WORD	626550	wordpools/wasnorm_wordpool_less_exclusions.txt	LTP275	ltpFR	8	5	0	OFFICER	973	n/a	n/a	1	n/a	0	0	0	0.57763671875	0.412841796875	1	upper	amplitud.ttf
1256.994	n/a	WORD	628497	wordpools/wasnorm_wordpool_less_exclusions.txt	LTP275	ltpFR	8	5	0	CHIP	303	n/a	n/a	0	n/a	0	0	0	0.57763671875	0.412841796875	1	upper	amplitud.ttf
1261.006	n/a	WORD	630503	wordpools/wasnorm_wordpool_less_exclusions.txt	LTP275	ltpFR	8	5	0	BAG	69	n/a	n/a	0	n/a	0	0	0	0.57763671875	0.412841796875	1	upper	amplitud.ttf
1264.966	n/a	WORD	632483	wordpools/wasnorm_wordpool_less_exclusions.txt	LTP275	ltpFR	8	5	0	DRESS	495	n/a	n/a	1	n/a	0	0	0	0.57763671875	0.412841796875	1	upper	amplitud.ttf
1268.794	n/a	WORD	634397	wordpools/wasnorm_wordpool_less_exclusions.txt	LTP275	ltpFR	8	5	1	CUFF	423	n/a	n/a	0	n/a	0	0	0	0.422607421875	0.5869140625	0	lower	zerothre.ttf
1272.672	n/a	WORD	636336	wordpools/wasnorm_wordpool_less_exclusions.txt	LTP275	ltpFR	8	5	1	LANDSCAPE	799	n/a	n/a	1	n/a	0	0	0	0.422607421875	0.5869140625	0	lower	zerothre.ttf
1276.65	n/a	WORD	638325	wordpools/wasnorm_wordpool_less_exclusions.txt	LTP275	ltpFR	8	5	1	PATROL	1027	n/a	n/a	0	n/a	0	0	0	0.422607421875	0.5869140625	0	lower	zerothre.ttf
1280.51	n/a	WORD	640255	wordpools/wasnorm_wordpool_less_exclusions.txt	LTP275	ltpFR	8	5	1	DRILL	497	n/a	n/a	0	n/a	0	0	0	0.422607421875	0.5869140625	0	lower	zerothre.ttf
1284.604	n/a	WORD	642302	wordpools/wasnorm_wordpool_less_exclusions.txt	LTP275	ltpFR	8	5	1	SWAN	1417	n/a	n/a	1	n/a	0	0	0	0.422607421875	0.5869140625	0	lower	zerothre.ttf
1287.616	n/a	START	643808	n/a	LTP275	ltpFR	8	n/a	n/a	n/a	n/a	n/a	n/a	n/a	n/a	n/a	n/a	n/a	n/a	n/a	n/a	n/a	n/a
1288.648	n/a	PROB	644324	n/a	LTP275	ltpFR	8	n/a	n/a	n/a	n/a	n/a	n/a	n/a	19	6	3	5	n/a	n/a	n/a	n/a	n/a
1291.41	n/a	PROB	645705	n/a	LTP275	ltpFR	8	n/a	n/a	n/a	n/a	n/a	n/a	n/a	13	6	5	2	n/a	n/a	n/a	n/a	n/a
1292.776	n/a	PROB	646388	n/a	LTP275	ltpFR	8	n/a	n/a	n/a	n/a	n/a	n/a	n/a	13	7	3	3	n/a	n/a	n/a	n/a	n/a
1293.84	n/a	PROB	646920	n/a	LTP275	ltpFR	8	n/a	n/a	n/a	n/a	n/a	n/a	n/a	15	5	3	7	n/a	n/a	n/a	n/a	n/a
1295.42	n/a	PROB	647710	n/a	LTP275	ltpFR	8	n/a	n/a	n/a	n/a	n/a	n/a	n/a	19	9	2	8	n/a	n/a	n/a	n/a	n/a
1296.984	n/a	PROB	648492	n/a	LTP275	ltpFR	8	n/a	n/a	n/a	n/a	n/a	n/a	n/a	7	1	5	1	n/a	n/a	n/a	n/a	n/a
1298.3	n/a	PROB	649150	n/a	LTP275	ltpFR	8	n/a	n/a	n/a	n/a	n/a	n/a	n/a	6	1	2	3	n/a	n/a	n/a	n/a	n/a
1299.864	n/a	PROB	649932	n/a	LTP275	ltpFR	8	n/a	n/a	n/a	n/a	n/a	n/a	n/a	23	9	9	5	n/a	n/a	n/a	n/a	n/a
1301.778	n/a	PROB	650889	n/a	LTP275	ltpFR	8	n/a	n/a	n/a	n/a	n/a	n/a	n/a	6	2	2	2	n/a	n/a	n/a	n/a	n/a
1302.858	n/a	STOP	651429	n/a	LTP275	ltpFR	8	n/a	n/a	n/a	n/a	n/a	n/a	n/a	n/a	n/a	n/a	n/a	n/a	n/a	n/a	n/a	n/a
1305.456	n/a	REC_START	652728	n/a	LTP275	ltpFR	8	5	n/a	n/a	n/a	n/a	n/a	n/a	n/a	0	0	0	n/a	n/a	n/a	n/a	n/a
1307.008	n/a	REC_WORD	653504	wordpools/wasnorm_wordpool_less_exclusions.txt	LTP275	ltpFR	8	5	0	WILDERNESS	1610	n/a	n/a	1	n/a	0	0	0	n/a	n/a	n/a	n/a	n/a
1308.222	n/a	REC_WORD	654111	wordpools/wasnorm_wordpool_less_exclusions.txt	LTP275	ltpFR	8	5	0	QUILL	1150	n/a	n/a	0	n/a	0	0	0	n/a	n/a	n/a	n/a	n/a
1309.656	n/a	REC_WORD	654828	wordpools/wasnorm_wordpool_less_exclusions.txt	LTP275	ltpFR	8	5	0	SUPERMARKET	1409	n/a	n/a	1	n/a	0	0	0	n/a	n/a	n/a	n/a	n/a
1313.96	n/a	REC_WORD	656980	wordpools/wasnorm_wordpool_less_exclusions.txt	LTP275	ltpFR	8	5	0	OFFICER	973	n/a	n/a	1	n/a	0	0	0	n/a	n/a	n/a	n/a	n/a
1315.26	n/a	REC_WORD	657630	wordpools/wasnorm_wordpool_less_exclusions.txt	LTP275	ltpFR	8	5	1	DRILL	497	n/a	n/a	0	n/a	0	0	0	n/a	n/a	n/a	n/a	n/a
1316.486	n/a	REC_WORD	658243	wordpools/wasnorm_wordpool_less_exclusions.txt	LTP275	ltpFR	8	5	0	DRESS	495	n/a	n/a	1	n/a	0	0	0	n/a	n/a	n/a	n/a	n/a
1317.884	n/a	REC_WORD	658942	wordpools/wasnorm_wordpool_less_exclusions.txt	LTP275	ltpFR	8	5	1	CUFF	423	n/a	n/a	0	n/a	0	0	0	n/a	n/a	n/a	n/a	n/a
1320.648	n/a	REC_WORD	660324	wordpools/wasnorm_wordpool_less_exclusions.txt	LTP275	ltpFR	8	5	n/a	COOK	372	n/a	n/a	n/a	n/a	0	0	0	n/a	n/a	n/a	n/a	n/a
1323.554	n/a	REC_WORD	661777	wordpools/wasnorm_wordpool_less_exclusions.txt	LTP275	ltpFR	8	5	1	PENGUIN	1044	n/a	n/a	1	n/a	0	0	0	n/a	n/a	n/a	n/a	n/a
1324.614	n/a	REC_WORD	662307	wordpools/wasnorm_wordpool_less_exclusions.txt	LTP275	ltpFR	8	5	1	PIGEON	1065	n/a	n/a	1	n/a	0	0	0	n/a	n/a	n/a	n/a	n/a
1327.118	n/a	REC_WORD	663559	wordpools/wasnorm_wordpool_less_exclusions.txt	LTP275	ltpFR	8	5	1	PIE	1062	n/a	n/a	0	n/a	0	0	0	n/a	n/a	n/a	n/a	n/a
1350.476	n/a	REC_WORD	675238	wordpools/wasnorm_wordpool_less_exclusions.txt	LTP275	ltpFR	8	5	1	LANDSCAPE	799	n/a	n/a	1	n/a	0	0	0	n/a	n/a	n/a	n/a	n/a
1386.67	n/a	WORD	693335	wordpools/wasnorm_wordpool_less_exclusions.txt	LTP275	ltpFR	8	6	0	PUBLICATION	1136	n/a	n/a	0	n/a	0	0	0	0.57763671875	0.412841796875	1	upper	amplitud.ttf
1390.646	n/a	WORD	695323	wordpools/wasnorm_wordpool_less_exclusions.txt	LTP275	ltpFR	8	6	0	CARRIAGE	248	n/a	n/a	1	n/a	0	0	0	0.57763671875	0.412841796875	1	upper	amplitud.ttf
1394.69	n/a	WORD	697345	wordpools/wasnorm_wordpool_less_exclusions.txt	LTP275	ltpFR	8	6	0	NEWSPAPER	948	n/a	n/a	1	n/a	0	0	0	0.57763671875	0.412841796875	1	upper	amplitud.ttf
1398.652	n/a	WORD	699326	wordpools/wasnorm_wordpool_less_exclusions.txt	LTP275	ltpFR	8	6	0	PARSLEY	1016	n/a	n/a	0	n/a	0	0	0	0.57763671875	0.412841796875	1	upper	amplitud.ttf
1402.762	n/a	WORD	701381	wordpools/wasnorm_wordpool_less_exclusions.txt	LTP275	ltpFR	8	6	0	MAGAZINE	853	n/a	n/a	0	n/a	0	0	0	0.57763671875	0.412841796875	1	upper	amplitud.ttf
1406.906	n/a	WORD	703453	wordpools/wasnorm_wordpool_less_exclusions.txt	LTP275	ltpFR	8	6	0	TAPE	1433	n/a	n/a	0	n/a	0	0	0	0.57763671875	0.412841796875	1	upper	amplitud.ttf
1410.982	n/a	WORD	705491	wordpools/wasnorm_wordpool_less_exclusions.txt	LTP275	ltpFR	8	6	0	CRATER	400	n/a	n/a	1	n/a	0	0	0	0.57763671875	0.412841796875	1	upper	amplitud.ttf
1415.128	n/a	WORD	707564	wordpools/wasnorm_wordpool_less_exclusions.txt	LTP275	ltpFR	8	6	0	PUBLISHER	1137	n/a	n/a	1	n/a	0	0	0	0.57763671875	0.412841796875	1	upper	amplitud.ttf
1419.238	n/a	WORD	709619	wordpools/wasnorm_wordpool_less_exclusions.txt	LTP275	ltpFR	8	6	0	LEG	809	n/a	n/a	1	n/a	0	0	0	0.57763671875	0.412841796875	1	upper	amplitud.ttf
1423.166	n/a	WORD	711583	wordpools/wasnorm_wordpool_less_exclusions.txt	LTP275	ltpFR	8	6	0	SOCK	1339	n/a	n/a	0	n/a	0	0	0	0.57763671875	0.412841796875	1	upper	amplitud.ttf
1427.342	n/a	WORD	713671	wordpools/wasnorm_wordpool_less_exclusions.txt	LTP275	ltpFR	8	6	0	TEA	1439	n/a	n/a	0	n/a	0	0	0	0.57763671875	0.412841796875	1	upper	amplitud.ttf
1431.286	n/a	WORD	715643	wordpools/wasnorm_wordpool_less_exclusions.txt	LTP275	ltpFR	8	6	0	CUPBOARD	425	n/a	n/a	1	n/a	0	0	0	0.57763671875	0.412841796875	1	upper	amplitud.ttf
1435.414	n/a	WORD	717707	wordpools/wasnorm_wordpool_less_exclusions.txt	LTP275	ltpFR	8	6	0	NOVEL	960	n/a	n/a	0	n/a	0	0	0	0.57763671875	0.412841796875	1	upper	amplitud.ttf
1439.292	n/a	WORD	719646	wordpools/wasnorm_wordpool_less_exclusions.txt	LTP275	ltpFR	8	6	0	PILL	1068	n/a	n/a	0	n/a	0	0	0	0.57763671875	0.412841796875	1	upper	amplitud.ttf
1443.302	n/a	WORD	721651	wordpools/wasnorm_wordpool_less_exclusions.txt	LTP275	ltpFR	8	6	0	OINTMENT	974	n/a	n/a	0	n/a	0	0	0	0.57763671875	0.412841796875	1	upper	amplitud.ttf
1447.462	n/a	WORD	723731	wordpools/wasnorm_wordpool_less_exclusions.txt	LTP275	ltpFR	8	6	0	ZUCCHINI	1638	n/a	n/a	0	n/a	0	0	0	0.57763671875	0.412841796875	1	upper	amplitud.ttf
1453.304	n/a	REC_START	726652	n/a	LTP275	ltpFR	8	6	n/a	n/a	n/a	n/a	n/a	n/a	n/a	0	0	0	n/a	n/a	n/a	n/a	n/a
1454.978	n/a	REC_WORD	727489	wordpools/wasnorm_wordpool_less_exclusions.txt	LTP275	ltpFR	8	6	0	CARRIAGE	248	n/a	n/a	1	n/a	0	0	0	n/a	n/a	n/a	n/a	n/a
1455.994	n/a	REC_WORD	727997	wordpools/wasnorm_wordpool_less_exclusions.txt	LTP275	ltpFR	8	6	0	PUBLICATION	1136	n/a	n/a	0	n/a	0	0	0	n/a	n/a	n/a	n/a	n/a
1459.124	n/a	REC_WORD	729562	wordpools/wasnorm_wordpool_less_exclusions.txt	LTP275	ltpFR	8	6	0	MAGAZINE	853	n/a	n/a	0	n/a	0	0	0	n/a	n/a	n/a	n/a	n/a
1460.386	n/a	REC_WORD	730193	wordpools/wasnorm_wordpool_less_exclusions.txt	LTP275	ltpFR	8	6	0	NEWSPAPER	948	n/a	n/a	1	n/a	0	0	0	n/a	n/a	n/a	n/a	n/a
1462.034	n/a	REC_WORD	731017	wordpools/wasnorm_wordpool_less_exclusions.txt	LTP275	ltpFR	8	6	0	PARSLEY	1016	n/a	n/a	0	n/a	0	0	0	n/a	n/a	n/a	n/a	n/a
1463.438	n/a	REC_WORD	731719	wordpools/wasnorm_wordpool_less_exclusions.txt	LTP275	ltpFR	8	6	0	ZUCCHINI	1638	n/a	n/a	0	n/a	0	0	0	n/a	n/a	n/a	n/a	n/a
1464.84	n/a	REC_WORD	732420	wordpools/wasnorm_wordpool_less_exclusions.txt	LTP275	ltpFR	8	6	0	PILL	1068	n/a	n/a	0	n/a	0	0	0	n/a	n/a	n/a	n/a	n/a
1466.236	n/a	REC_WORD	733118	wordpools/wasnorm_wordpool_less_exclusions.txt	LTP275	ltpFR	8	6	0	OINTMENT	974	n/a	n/a	0	n/a	0	0	0	n/a	n/a	n/a	n/a	n/a
1467.794	n/a	REC_WORD	733897	wordpools/wasnorm_wordpool_less_exclusions.txt	LTP275	ltpFR	8	6	0	TAPE	1433	n/a	n/a	0	n/a	0	0	0	n/a	n/a	n/a	n/a	n/a
1469.168	n/a	REC_WORD	734584	wordpools/wasnorm_wordpool_less_exclusions.txt	LTP275	ltpFR	8	6	0	CRATER	400	n/a	n/a	1	n/a	0	0	0	n/a	n/a	n/a	n/a	n/a
1470.52	n/a	REC_WORD	735260	wordpools/wasnorm_wordpool_less_exclusions.txt	LTP275	ltpFR	8	6	0	LEG	809	n/a	n/a	1	n/a	0	0	0	n/a	n/a	n/a	n/a	n/a
1471.61	n/a	REC_WORD	735805	wordpools/wasnorm_wordpool_less_exclusions.txt	LTP275	ltpFR	8	6	0	SOCK	1339	n/a	n/a	0	n/a	0	0	0	n/a	n/a	n/a	n/a	n/a
1473.122	n/a	REC_WORD	736561	wordpools/wasnorm_wordpool_less_exclusions.txt	LTP275	ltpFR	8	6	0	TEA	1439	n/a	n/a	0	n/a	0	0	0	n/a	n/a	n/a	n/a	n/a
1474.428	n/a	REC_WORD	737214	wordpools/wasnorm_wordpool_less_exclusions.txt	LTP275	ltpFR	8	6	0	CUPBOARD	425	n/a	n/a	1	n/a	0	0	0	n/a	n/a	n/a	n/a	n/a
1475.84	n/a	REC_WORD	737920	wordpools/wasnorm_wordpool_less_exclusions.txt	LTP275	ltpFR	8	6	0	NOVEL	960	n/a	n/a	0	n/a	0	0	0	n/a	n/a	n/a	n/a	n/a
1477.286	n/a	REC_WORD	738643	wordpools/wasnorm_wordpool_less_exclusions.txt	LTP275	ltpFR	8	6	0	PUBLISHER	1137	n/a	n/a	1	n/a	0	0	0	n/a	n/a	n/a	n/a	n/a
1528.926	n/a	REST_REWET	764463	n/a	LTP275	ltpFR	8	6	n/a	n/a	n/a	n/a	n/a	n/a	n/a	0	0	0	n/a	n/a	n/a	n/a	n/a
2168.144	n/a	START	1084072	n/a	LTP275	ltpFR	8	n/a	n/a	n/a	n/a	n/a	n/a	n/a	n/a	n/a	n/a	n/a	n/a	n/a	n/a	n/a	n/a
2169.66	n/a	PROB	1084830	n/a	LTP275	ltpFR	8	n/a	n/a	n/a	n/a	n/a	n/a	n/a	21	8	5	8	n/a	n/a	n/a	n/a	n/a
2171.69	n/a	PROB	1085845	n/a	LTP275	ltpFR	8	n/a	n/a	n/a	n/a	n/a	n/a	n/a	18	2	7	9	n/a	n/a	n/a	n/a	n/a
2173.186	n/a	PROB	1086593	n/a	LTP275	ltpFR	8	n/a	n/a	n/a	n/a	n/a	n/a	n/a	8	3	4	1	n/a	n/a	n/a	n/a	n/a
2174.6	n/a	PROB	1087300	n/a	LTP275	ltpFR	8	n/a	n/a	n/a	n/a	n/a	n/a	n/a	12	3	3	6	n/a	n/a	n/a	n/a	n/a
2176.332	n/a	PROB	1088166	n/a	LTP275	ltpFR	8	n/a	n/a	n/a	n/a	n/a	n/a	n/a	11	2	3	6	n/a	n/a	n/a	n/a	n/a
2177.53	n/a	PROB	1088765	n/a	LTP275	ltpFR	8	n/a	n/a	n/a	n/a	n/a	n/a	n/a	12	1	4	7	n/a	n/a	n/a	n/a	n/a
2179.044	n/a	PROB	1089522	n/a	LTP275	ltpFR	8	n/a	n/a	n/a	n/a	n/a	n/a	n/a	16	7	8	1	n/a	n/a	n/a	n/a	n/a
2180.408	n/a	PROB	1090204	n/a	LTP275	ltpFR	8	n/a	n/a	n/a	n/a	n/a	n/a	n/a	16	5	8	3	n/a	n/a	n/a	n/a	n/a
2181.924	n/a	PROB	1090962	n/a	LTP275	ltpFR	8	n/a	n/a	n/a	n/a	n/a	n/a	n/a	10	2	7	1	n/a	n/a	n/a	n/a	n/a
2183.194	n/a	STOP	1091597	n/a	LTP275	ltpFR	8	n/a	n/a	n/a	n/a	n/a	n/a	n/a	n/a	n/a	n/a	n/a	n/a	n/a	n/a	n/a	n/a
2185.186	n/a	WORD	1092593	wordpools/wasnorm_wordpool_less_exclusions.txt	LTP275	ltpFR	8	7	1	PAW	1029	n/a	n/a	1	n/a	0	0	0	0.422607421875	0.5869140625	0	lower	zerothre.ttf
2188.198	n/a	START	1094099	n/a	LTP275	ltpFR	8	n/a	n/a	n/a	n/a	n/a	n/a	n/a	n/a	n/a	n/a	n/a	n/a	n/a	n/a	n/a	n/a
2189.18	n/a	PROB	1094590	n/a	LTP275	ltpFR	8	n/a	n/a	n/a	n/a	n/a	n/a	n/a	17	5	4	8	n/a	n/a	n/a	n/a	n/a
2191.426	n/a	PROB	1095713	n/a	LTP275	ltpFR	8	n/a	n/a	n/a	n/a	n/a	n/a	n/a	10	5	1	4	n/a	n/a	n/a	n/a	n/a
2192.908	n/a	PROB	1096454	n/a	LTP275	ltpFR	8	n/a	n/a	n/a	n/a	n/a	n/a	n/a	14	7	1	6	n/a	n/a	n/a	n/a	n/a
2194.888	n/a	PROB	1097444	n/a	LTP275	ltpFR	8	n/a	n/a	n/a	n/a	n/a	n/a	n/a	12	5	2	5	n/a	n/a	n/a	n/a	n/a
2196.202	n/a	PROB	1098101	n/a	LTP275	ltpFR	8	n/a	n/a	n/a	n/a	n/a	n/a	n/a	14	9	5	2	n/a	n/a	n/a	n/a	n/a
2197.982	n/a	PROB	1098991	n/a	LTP275	ltpFR	8	n/a	n/a	n/a	n/a	n/a	n/a	n/a	21	5	7	9	n/a	n/a	n/a	n/a	n/a
2199.632	n/a	PROB	1099816	n/a	LTP275	ltpFR	8	n/a	n/a	n/a	n/a	n/a	n/a	n/a	24	9	9	6	n/a	n/a	n/a	n/a	n/a
2201.862	n/a	PROB	1100931	n/a	LTP275	ltpFR	8	n/a	n/a	n/a	n/a	n/a	n/a	n/a	11	1	8	2	n/a	n/a	n/a	n/a	n/a
2203.948	n/a	STOP	1101974	n/a	LTP275	ltpFR	8	n/a	n/a	n/a	n/a	n/a	n/a	n/a	n/a	n/a	n/a	n/a	n/a	n/a	n/a	n/a	n/a
2205.088	n/a	WORD	1102544	wordpools/wasnorm_wordpool_less_exclusions.txt	LTP275	ltpFR	8	7	1	ZEBRA	1635	n/a	n/a	1	n/a	0	0	0	0.422607421875	0.5869140625	0	lower	zerothre.ttf
2208.102	n/a	START	1104051	n/a	LTP275	ltpFR	8	n/a	n/a	n/a	n/a	n/a	n/a	n/a	n/a	n/a	n/a	n/a	n/a	n/a	n/a	n/a	n/a
2208.966	n/a	PROB	1104483	n/a	LTP275	ltpFR	8	n/a	n/a	n/a	n/a	n/a	n/a	n/a	14	6	5	3	n/a	n/a	n/a	n/a	n/a
2210.38	n/a	PROB	1105190	n/a	LTP275	ltpFR	8	n/a	n/a	n/a	n/a	n/a	n/a	n/a	15	7	2	6	n/a	n/a	n/a	n/a	n/a
2212.194	n/a	PROB	1106097	n/a	LTP275	ltpFR	8	n/a	n/a	n/a	n/a	n/a	n/a	n/a	25	7	9	9	n/a	n/a	n/a	n/a	n/a
2214.742	n/a	PROB	1107371	n/a	LTP275	ltpFR	8	n/a	n/a	n/a	n/a	n/a	n/a	n/a	16	3	5	8	n/a	n/a	n/a	n/a	n/a
2216.14	n/a	PROB	1108070	n/a	LTP275	ltpFR	8	n/a	n/a	n/a	n/a	n/a	n/a	n/a	24	7	9	7	n/a	n/a	n/a	n/a	n/a
2218.186	n/a	PROB	1109093	n/a	LTP275	ltpFR	8	n/a	n/a	n/a	n/a	n/a	n/a	n/a	8	5	2	1	n/a	n/a	n/a	n/a	n/a
2219.668	n/a	PROB	1109834	n/a	LTP275	ltpFR	8	n/a	n/a	n/a	n/a	n/a	n/a	n/a	16	6	6	4	n/a	n/a	n/a	n/a	n/a
2221.082	n/a	PROB	1110541	n/a	LTP275	ltpFR	8	n/a	n/a	n/a	n/a	n/a	n/a	n/a	16	9	4	3	n/a	n/a	n/a	n/a	n/a
2222.43	n/a	PROB	1111215	n/a	LTP275	ltpFR	8	n/a	n/a	n/a	n/a	n/a	n/a	n/a	16	8	2	6	n/a	n/a	n/a	n/a	n/a
2223.46	n/a	STOP	1111730	n/a	LTP275	ltpFR	8	n/a	n/a	n/a	n/a	n/a	n/a	n/a	n/a	n/a	n/a	n/a	n/a	n/a	n/a	n/a	n/a
2224.928	n/a	WORD	1112464	wordpools/wasnorm_wordpool_less_exclusions.txt	LTP275	ltpFR	8	7	1	CACTUS	215	n/a	n/a	1	n/a	0	0	0	0.422607421875	0.5869140625	0	lower	zerothre.ttf
2227.94	n/a	START	1113970	n/a	LTP275	ltpFR	8	n/a	n/a	n/a	n/a	n/a	n/a	n/a	n/a	n/a	n/a	n/a	n/a	n/a	n/a	n/a	n/a
2228.988	n/a	PROB	1114494	n/a	LTP275	ltpFR	8	n/a	n/a	n/a	n/a	n/a	n/a	n/a	18	3	8	7	n/a	n/a	n/a	n/a	n/a
2230.602	n/a	PROB	1115301	n/a	LTP275	ltpFR	8	n/a	n/a	n/a	n/a	n/a	n/a	n/a	18	9	6	3	n/a	n/a	n/a	n/a	n/a
2232.032	n/a	PROB	1116016	n/a	LTP275	ltpFR	8	n/a	n/a	n/a	n/a	n/a	n/a	n/a	8	5	1	2	n/a	n/a	n/a	n/a	n/a
2233.848	n/a	PROB	1116924	n/a	LTP275	ltpFR	8	n/a	n/a	n/a	n/a	n/a	n/a	n/a	15	2	9	4	n/a	n/a	n/a	n/a	n/a
2235.228	n/a	PROB	1117614	n/a	LTP275	ltpFR	8	n/a	n/a	n/a	n/a	n/a	n/a	n/a	11	6	2	3	n/a	n/a	n/a	n/a	n/a
2236.876	n/a	PROB	1118438	n/a	LTP275	ltpFR	8	n/a	n/a	n/a	n/a	n/a	n/a	n/a	19	9	5	5	n/a	n/a	n/a	n/a	n/a
2238.324	n/a	PROB	1119162	n/a	LTP275	ltpFR	8	n/a	n/a	n/a	n/a	n/a	n/a	n/a	12	2	8	2	n/a	n/a	n/a	n/a	n/a
2239.672	n/a	PROB	1119836	n/a	LTP275	ltpFR	8	n/a	n/a	n/a	n/a	n/a	n/a	n/a	19	4	9	6	n/a	n/a	n/a	n/a	n/a
2241.17	n/a	PROB	1120585	n/a	LTP275	ltpFR	8	n/a	n/a	n/a	n/a	n/a	n/a	n/a	13	3	3	7	n/a	n/a	n/a	n/a	n/a
2242.492	n/a	STOP	1121246	n/a	LTP275	ltpFR	8	n/a	n/a	n/a	n/a	n/a	n/a	n/a	n/a	n/a	n/a	n/a	n/a	n/a	n/a	n/a	n/a
2244.864	n/a	WORD	1122432	wordpools/wasnorm_wordpool_less_exclusions.txt	LTP275	ltpFR	8	7	1	POPE	1105	n/a	n/a	1	n/a	0	0	0	0.422607421875	0.5869140625	0	lower	zerothre.ttf
2247.878	n/a	START	1123939	n/a	LTP275	ltpFR	8	n/a	n/a	n/a	n/a	n/a	n/a	n/a	n/a	n/a	n/a	n/a	n/a	n/a	n/a	n/a	n/a
2248.876	n/a	PROB	1124438	n/a	LTP275	ltpFR	8	n/a	n/a	n/a	n/a	n/a	n/a	n/a	13	2	7	4	n/a	n/a	n/a	n/a	n/a
2250.522	n/a	PROB	1125261	n/a	LTP275	ltpFR	8	n/a	n/a	n/a	n/a	n/a	n/a	n/a	8	2	1	5	n/a	n/a	n/a	n/a	n/a
2251.82	n/a	PROB	1125910	n/a	LTP275	ltpFR	8	n/a	n/a	n/a	n/a	n/a	n/a	n/a	15	5	4	6	n/a	n/a	n/a	n/a	n/a
2253.618	n/a	PROB	1126809	n/a	LTP275	ltpFR	8	n/a	n/a	n/a	n/a	n/a	n/a	n/a	19	8	3	8	n/a	n/a	n/a	n/a	n/a
2255.314	n/a	PROB	1127657	n/a	LTP275	ltpFR	8	n/a	n/a	n/a	n/a	n/a	n/a	n/a	15	7	5	3	n/a	n/a	n/a	n/a	n/a
2256.496	n/a	PROB	1128248	n/a	LTP275	ltpFR	8	n/a	n/a	n/a	n/a	n/a	n/a	n/a	21	9	7	5	n/a	n/a	n/a	n/a	n/a
2258.044	n/a	PROB	1129022	n/a	LTP275	ltpFR	8	n/a	n/a	n/a	n/a	n/a	n/a	n/a	20	5	9	6	n/a	n/a	n/a	n/a	n/a
2259.692	n/a	PROB	1129846	n/a	LTP275	ltpFR	8	n/a	n/a	n/a	n/a	n/a	n/a	n/a	20	6	5	9	n/a	n/a	n/a	n/a	n/a
2261.14	n/a	PROB	1130570	n/a	LTP275	ltpFR	8	n/a	n/a	n/a	n/a	n/a	n/a	n/a	11	8	1	2	n/a	n/a	n/a	n/a	n/a
2263.172	n/a	STOP	1131586	n/a	LTP275	ltpFR	8	n/a	n/a	n/a	n/a	n/a	n/a	n/a	n/a	n/a	n/a	n/a	n/a	n/a	n/a	n/a	n/a
2265.066	n/a	WORD	1132533	wordpools/wasnorm_wordpool_less_exclusions.txt	LTP275	ltpFR	8	7	1	LOBBY	836	n/a	n/a	0	n/a	0	0	0	0.422607421875	0.5869140625	0	lower	zerothre.ttf
2268.08	n/a	START	1134040	n/a	LTP275	ltpFR	8	n/a	n/a	n/a	n/a	n/a	n/a	n/a	n/a	n/a	n/a	n/a	n/a	n/a	n/a	n/a	n/a
2268.896	n/a	PROB	1134448	n/a	LTP275	ltpFR	8	n/a	n/a	n/a	n/a	n/a	n/a	n/a	9	1	6	2	n/a	n/a	n/a	n/a	n/a
2271.34	n/a	PROB	1135670	n/a	LTP275	ltpFR	8	n/a	n/a	n/a	n/a	n/a	n/a	n/a	18	6	6	6	n/a	n/a	n/a	n/a	n/a
2272.69	n/a	PROB	1136345	n/a	LTP275	ltpFR	8	n/a	n/a	n/a	n/a	n/a	n/a	n/a	19	8	4	7	n/a	n/a	n/a	n/a	n/a
2273.922	n/a	PROB	1136961	n/a	LTP275	ltpFR	8	n/a	n/a	n/a	n/a	n/a	n/a	n/a	23	8	6	9	n/a	n/a	n/a	n/a	n/a
2276.166	n/a	PROB	1138083	n/a	LTP275	ltpFR	8	n/a	n/a	n/a	n/a	n/a	n/a	n/a	19	6	2	1	n/a	n/a	n/a	n/a	n/a
2277.582	n/a	PROB	1138791	n/a	LTP275	ltpFR	8	n/a	n/a	n/a	n/a	n/a	n/a	n/a	12	4	2	6	n/a	n/a	n/a	n/a	n/a
2280.494	n/a	PROB	1140247	n/a	LTP275	ltpFR	8	n/a	n/a	n/a	n/a	n/a	n/a	n/a	15	5	6	4	n/a	n/a	n/a	n/a	n/a
2281.692	n/a	PROB	1140846	n/a	LTP275	ltpFR	8	n/a	n/a	n/a	n/a	n/a	n/a	n/a	18	4	8	6	n/a	n/a	n/a	n/a	n/a
2283.068	n/a	STOP	1141534	n/a	LTP275	ltpFR	8	n/a	n/a	n/a	n/a	n/a	n/a	n/a	n/a	n/a	n/a	n/a	n/a	n/a	n/a	n/a	n/a
2285.17	n/a	WORD	1142585	wordpools/wasnorm_wordpool_less_exclusions.txt	LTP275	ltpFR	8	7	1	COACH	331	n/a	n/a	1	n/a	0	0	0	0.422607421875	0.5869140625	0	lower	zerothre.ttf
2288.182	n/a	START	1144091	n/a	LTP275	ltpFR	8	n/a	n/a	n/a	n/a	n/a	n/a	n/a	n/a	n/a	n/a	n/a	n/a	n/a	n/a	n/a	n/a
2289.164	n/a	PROB	1144582	n/a	LTP275	ltpFR	8	n/a	n/a	n/a	n/a	n/a	n/a	n/a	13	5	3	5	n/a	n/a	n/a	n/a	n/a
2290.612	n/a	PROB	1145306	n/a	LTP275	ltpFR	8	n/a	n/a	n/a	n/a	n/a	n/a	n/a	14	1	8	5	n/a	n/a	n/a	n/a	n/a
2292.176	n/a	PROB	1146088	n/a	LTP275	ltpFR	8	n/a	n/a	n/a	n/a	n/a	n/a	n/a	17	9	5	3	n/a	n/a	n/a	n/a	n/a
2294.706	n/a	PROB	1147353	n/a	LTP275	ltpFR	8	n/a	n/a	n/a	n/a	n/a	n/a	n/a	16	3	6	7	n/a	n/a	n/a	n/a	n/a
2296.854	n/a	PROB	1148427	n/a	LTP275	ltpFR	8	n/a	n/a	n/a	n/a	n/a	n/a	n/a	19	9	4	6	n/a	n/a	n/a	n/a	n/a
2298.4	n/a	PROB	1149200	n/a	LTP275	ltpFR	8	n/a	n/a	n/a	n/a	n/a	n/a	n/a	32	7	7	9	n/a	n/a	n/a	n/a	n/a
2300.83	n/a	PROB	1150415	n/a	LTP275	ltpFR	8	n/a	n/a	n/a	n/a	n/a	n/a	n/a	15	9	4	2	n/a	n/a	n/a	n/a	n/a
2302.13	n/a	PROB	1151065	n/a	LTP275	ltpFR	8	n/a	n/a	n/a	n/a	n/a	n/a	n/a	19	7	9	3	n/a	n/a	n/a	n/a	n/a
2303.516	n/a	STOP	1151758	n/a	LTP275	ltpFR	8	n/a	n/a	n/a	n/a	n/a	n/a	n/a	n/a	n/a	n/a	n/a	n/a	n/a	n/a	n/a	n/a
2305.324	n/a	WORD	1152662	wordpools/wasnorm_wordpool_less_exclusions.txt	LTP275	ltpFR	8	7	1	SHRINE	1298	n/a	n/a	0	n/a	0	0	0	0.422607421875	0.5869140625	0	lower	zerothre.ttf
2308.336	n/a	START	1154168	n/a	LTP275	ltpFR	8	n/a	n/a	n/a	n/a	n/a	n/a	n/a	n/a	n/a	n/a	n/a	n/a	n/a	n/a	n/a	n/a
2309.268	n/a	PROB	1154634	n/a	LTP275	ltpFR	8	n/a	n/a	n/a	n/a	n/a	n/a	n/a	20	4	8	8	n/a	n/a	n/a	n/a	n/a
2311.548	n/a	PROB	1155774	n/a	LTP275	ltpFR	8	n/a	n/a	n/a	n/a	n/a	n/a	n/a	15	2	9	4	n/a	n/a	n/a	n/a	n/a
2313.03	n/a	PROB	1156515	n/a	LTP275	ltpFR	8	n/a	n/a	n/a	n/a	n/a	n/a	n/a	18	1	8	9	n/a	n/a	n/a	n/a	n/a
2314.294	n/a	PROB	1157147	n/a	LTP275	ltpFR	8	n/a	n/a	n/a	n/a	n/a	n/a	n/a	15	2	9	4	n/a	n/a	n/a	n/a	n/a
2315.558	n/a	PROB	1157779	n/a	LTP275	ltpFR	8	n/a	n/a	n/a	n/a	n/a	n/a	n/a	114	4	8	2	n/a	n/a	n/a	n/a	n/a
2317.372	n/a	PROB	1158686	n/a	LTP275	ltpFR	8	n/a	n/a	n/a	n/a	n/a	n/a	n/a	10	2	3	5	n/a	n/a	n/a	n/a	n/a
2318.988	n/a	PROB	1159494	n/a	LTP275	ltpFR	8	n/a	n/a	n/a	n/a	n/a	n/a	n/a	14	4	8	2	n/a	n/a	n/a	n/a	n/a
2320.236	n/a	PROB	1160118	n/a	LTP275	ltpFR	8	n/a	n/a	n/a	n/a	n/a	n/a	n/a	21	9	7	5	n/a	n/a	n/a	n/a	n/a
2322.1	n/a	PROB	1161050	n/a	LTP275	ltpFR	8	n/a	n/a	n/a	n/a	n/a	n/a	n/a	18	3	8	7	n/a	n/a	n/a	n/a	n/a
2323.372	n/a	STOP	1161686	n/a	LTP275	ltpFR	8	n/a	n/a	n/a	n/a	n/a	n/a	n/a	n/a	n/a	n/a	n/a	n/a	n/a	n/a	n/a	n/a
2325.262	n/a	WORD	1162631	wordpools/wasnorm_wordpool_less_exclusions.txt	LTP275	ltpFR	8	7	1	FRIAR	605	n/a	n/a	1	n/a	0	0	0	0.422607421875	0.5869140625	0	lower	zerothre.ttf
2328.274	n/a	START	1164137	n/a	LTP275	ltpFR	8	n/a	n/a	n/a	n/a	n/a	n/a	n/a	n/a	n/a	n/a	n/a	n/a	n/a	n/a	n/a	n/a
2329.422	n/a	PROB	1164711	n/a	LTP275	ltpFR	8	n/a	n/a	n/a	n/a	n/a	n/a	n/a	14	4	8	2	n/a	n/a	n/a	n/a	n/a
2330.754	n/a	PROB	1165377	n/a	LTP275	ltpFR	8	n/a	n/a	n/a	n/a	n/a	n/a	n/a	12	3	5	4	n/a	n/a	n/a	n/a	n/a
2332.868	n/a	PROB	1166434	n/a	LTP275	ltpFR	8	n/a	n/a	n/a	n/a	n/a	n/a	n/a	14	4	5	5	n/a	n/a	n/a	n/a	n/a
2334.38	n/a	PROB	1167190	n/a	LTP275	ltpFR	8	n/a	n/a	n/a	n/a	n/a	n/a	n/a	16	4	5	7	n/a	n/a	n/a	n/a	n/a
2335.846	n/a	PROB	1167923	n/a	LTP275	ltpFR	8	n/a	n/a	n/a	n/a	n/a	n/a	n/a	8	4	2	2	n/a	n/a	n/a	n/a	n/a
2337.476	n/a	PROB	1168738	n/a	LTP275	ltpFR	8	n/a	n/a	n/a	n/a	n/a	n/a	n/a	18	1	9	8	n/a	n/a	n/a	n/a	n/a
2339.008	n/a	PROB	1169504	n/a	LTP275	ltpFR	8	n/a	n/a	n/a	n/a	n/a	n/a	n/a	15	3	3	9	n/a	n/a	n/a	n/a	n/a
2340.604	n/a	PROB	1170302	n/a	LTP275	ltpFR	8	n/a	n/a	n/a	n/a	n/a	n/a	n/a	19	8	4	7	n/a	n/a	n/a	n/a	n/a
2342.806	n/a	STOP	1171403	n/a	LTP275	ltpFR	8	n/a	n/a	n/a	n/a	n/a	n/a	n/a	n/a	n/a	n/a	n/a	n/a	n/a	n/a	n/a	n/a
2345.198	n/a	WORD	1172599	wordpools/wasnorm_wordpool_less_exclusions.txt	LTP275	ltpFR	8	7	1	FIELD	562	n/a	n/a	0	n/a	0	0	0	0.422607421875	0.5869140625	0	lower	zerothre.ttf
2348.21	n/a	START	1174105	n/a	LTP275	ltpFR	8	n/a	n/a	n/a	n/a	n/a	n/a	n/a	n/a	n/a	n/a	n/a	n/a	n/a	n/a	n/a	n/a
2349.176	n/a	PROB	1174588	n/a	LTP275	ltpFR	8	n/a	n/a	n/a	n/a	n/a	n/a	n/a	22	7	6	9	n/a	n/a	n/a	n/a	n/a
2351.438	n/a	PROB	1175719	n/a	LTP275	ltpFR	8	n/a	n/a	n/a	n/a	n/a	n/a	n/a	16	9	3	4	n/a	n/a	n/a	n/a	n/a
2352.904	n/a	PROB	1176452	n/a	LTP275	ltpFR	8	n/a	n/a	n/a	n/a	n/a	n/a	n/a	21	7	9	5	n/a	n/a	n/a	n/a	n/a
2354.218	n/a	PROB	1177109	n/a	LTP275	ltpFR	8	n/a	n/a	n/a	n/a	n/a	n/a	n/a	16	4	8	4	n/a	n/a	n/a	n/a	n/a
2356.098	n/a	PROB	1178049	n/a	LTP275	ltpFR	8	n/a	n/a	n/a	n/a	n/a	n/a	n/a	14	2	3	9	n/a	n/a	n/a	n/a	n/a
2357.314	n/a	PROB	1178657	n/a	LTP275	ltpFR	8	n/a	n/a	n/a	n/a	n/a	n/a	n/a	14	1	7	6	n/a	n/a	n/a	n/a	n/a
2358.662	n/a	PROB	1179331	n/a	LTP275	ltpFR	8	n/a	n/a	n/a	n/a	n/a	n/a	n/a	22	9	9	3	n/a	n/a	n/a	n/a	n/a
2360.208	n/a	PROB	1180104	n/a	LTP275	ltpFR	8	n/a	n/a	n/a	n/a	n/a	n/a	n/a	19	8	2	9	n/a	n/a	n/a	n/a	n/a
2361.658	n/a	PROB	1180829	n/a	LTP275	ltpFR	8	n/a	n/a	n/a	n/a	n/a	n/a	n/a	8	5	2	1	n/a	n/a	n/a	n/a	n/a
2362.822	n/a	STOP	1181411	n/a	LTP275	ltpFR	8	n/a	n/a	n/a	n/a	n/a	n/a	n/a	n/a	n/a	n/a	n/a	n/a	n/a	n/a	n/a	n/a
2365.218	n/a	WORD	1182609	wordpools/wasnorm_wordpool_less_exclusions.txt	LTP275	ltpFR	8	7	1	ELEVATOR	524	n/a	n/a	0	n/a	0	0	0	0.422607421875	0.5869140625	0	lower	zerothre.ttf
2368.23	n/a	START	1184115	n/a	LTP275	ltpFR	8	n/a	n/a	n/a	n/a	n/a	n/a	n/a	n/a	n/a	n/a	n/a	n/a	n/a	n/a	n/a	n/a
2369.162	n/a	PROB	1184581	n/a	LTP275	ltpFR	8	n/a	n/a	n/a	n/a	n/a	n/a	n/a	22	8	7	7	n/a	n/a	n/a	n/a	n/a
2370.894	n/a	PROB	1185447	n/a	LTP275	ltpFR	8	n/a	n/a	n/a	n/a	n/a	n/a	n/a	17	7	4	6	n/a	n/a	n/a	n/a	n/a
2372.474	n/a	PROB	1186237	n/a	LTP275	ltpFR	8	n/a	n/a	n/a	n/a	n/a	n/a	n/a	17	2	6	9	n/a	n/a	n/a	n/a	n/a
2374.354	n/a	PROB	1187177	n/a	LTP275	ltpFR	8	n/a	n/a	n/a	n/a	n/a	n/a	n/a	19	4	6	9	n/a	n/a	n/a	n/a	n/a
2375.57	n/a	PROB	1187785	n/a	LTP275	ltpFR	8	n/a	n/a	n/a	n/a	n/a	n/a	n/a	16	1	6	9	n/a	n/a	n/a	n/a	n/a
2377.7	n/a	PROB	1188850	n/a	LTP275	ltpFR	8	n/a	n/a	n/a	n/a	n/a	n/a	n/a	16	4	9	3	n/a	n/a	n/a	n/a	n/a
2379.13	n/a	PROB	1189565	n/a	LTP275	ltpFR	8	n/a	n/a	n/a	n/a	n/a	n/a	n/a	6	1	1	4	n/a	n/a	n/a	n/a	n/a
2380.396	n/a	PROB	1190198	n/a	LTP275	ltpFR	8	n/a	n/a	n/a	n/a	n/a	n/a	n/a	11	4	2	5	n/a	n/a	n/a	n/a	n/a
2381.96	n/a	PROB	1190980	n/a	LTP275	ltpFR	8	n/a	n/a	n/a	n/a	n/a	n/a	n/a	11	1	9	1	n/a	n/a	n/a	n/a	n/a
2383.156	n/a	STOP	1191578	n/a	LTP275	ltpFR	8	n/a	n/a	n/a	n/a	n/a	n/a	n/a	n/a	n/a	n/a	n/a	n/a	n/a	n/a	n/a	n/a
2385.422	n/a	WORD	1192711	wordpools/wasnorm_wordpool_less_exclusions.txt	LTP275	ltpFR	8	7	1	STRAWBERRY	1391	n/a	n/a	1	n/a	0	0	0	0.422607421875	0.5869140625	0	lower	zerothre.ttf
2388.434	n/a	START	1194217	n/a	LTP275	ltpFR	8	n/a	n/a	n/a	n/a	n/a	n/a	n/a	n/a	n/a	n/a	n/a	n/a	n/a	n/a	n/a	n/a
2389.282	n/a	PROB	1194641	n/a	LTP275	ltpFR	8	n/a	n/a	n/a	n/a	n/a	n/a	n/a	15	3	4	8	n/a	n/a	n/a	n/a	n/a
2390.714	n/a	PROB	1195357	n/a	LTP275	ltpFR	8	n/a	n/a	n/a	n/a	n/a	n/a	n/a	19	5	5	7	n/a	n/a	n/a	n/a	n/a
2392.346	n/a	PROB	1196173	n/a	LTP275	ltpFR	8	n/a	n/a	n/a	n/a	n/a	n/a	n/a	19	8	9	2	n/a	n/a	n/a	n/a	n/a
2394.442	n/a	PROB	1197221	n/a	LTP275	ltpFR	8	n/a	n/a	n/a	n/a	n/a	n/a	n/a	16	6	4	6	n/a	n/a	n/a	n/a	n/a
2395.792	n/a	PROB	1197896	n/a	LTP275	ltpFR	8	n/a	n/a	n/a	n/a	n/a	n/a	n/a	12	3	6	3	n/a	n/a	n/a	n/a	n/a
2396.988	n/a	PROB	1198494	n/a	LTP275	ltpFR	8	n/a	n/a	n/a	n/a	n/a	n/a	n/a	23	7	8	8	n/a	n/a	n/a	n/a	n/a
2398.486	n/a	PROB	1199243	n/a	LTP275	ltpFR	8	n/a	n/a	n/a	n/a	n/a	n/a	n/a	7	3	2	2	n/a	n/a	n/a	n/a	n/a
2400.184	n/a	PROB	1200092	n/a	LTP275	ltpFR	8	n/a	n/a	n/a	n/a	n/a	n/a	n/a	17	7	7	3	n/a	n/a	n/a	n/a	n/a
2401.582	n/a	PROB	1200791	n/a	LTP275	ltpFR	8	n/a	n/a	n/a	n/a	n/a	n/a	n/a	18	9	4	5	n/a	n/a	n/a	n/a	n/a
2404.434	n/a	STOP	1202217	n/a	LTP275	ltpFR	8	n/a	n/a	n/a	n/a	n/a	n/a	n/a	n/a	n/a	n/a	n/a	n/a	n/a	n/a	n/a	n/a
2405.476	n/a	WORD	1202738	wordpools/wasnorm_wordpool_less_exclusions.txt	LTP275	ltpFR	8	7	1	BANANA	77	n/a	n/a	1	n/a	0	0	0	0.422607421875	0.5869140625	0	lower	zerothre.ttf
2408.488	n/a	START	1204244	n/a	LTP275	ltpFR	8	n/a	n/a	n/a	n/a	n/a	n/a	n/a	n/a	n/a	n/a	n/a	n/a	n/a	n/a	n/a	n/a
2409.586	n/a	PROB	1204793	n/a	LTP275	ltpFR	8	n/a	n/a	n/a	n/a	n/a	n/a	n/a	5	3	1	1	n/a	n/a	n/a	n/a	n/a
2410.802	n/a	PROB	1205401	n/a	LTP275	ltpFR	8	n/a	n/a	n/a	n/a	n/a	n/a	n/a	11	2	1	8	n/a	n/a	n/a	n/a	n/a
2412.316	n/a	PROB	1206158	n/a	LTP275	ltpFR	8	n/a	n/a	n/a	n/a	n/a	n/a	n/a	17	4	5	8	n/a	n/a	n/a	n/a	n/a
2413.732	n/a	PROB	1206866	n/a	LTP275	ltpFR	8	n/a	n/a	n/a	n/a	n/a	n/a	n/a	5	2	1	2	n/a	n/a	n/a	n/a	n/a
2415.544	n/a	PROB	1207772	n/a	LTP275	ltpFR	8	n/a	n/a	n/a	n/a	n/a	n/a	n/a	8	2	4	2	n/a	n/a	n/a	n/a	n/a
2417.026	n/a	PROB	1208513	n/a	LTP275	ltpFR	8	n/a	n/a	n/a	n/a	n/a	n/a	n/a	15	2	6	7	n/a	n/a	n/a	n/a	n/a
2418.34	n/a	PROB	1209170	n/a	LTP275	ltpFR	8	n/a	n/a	n/a	n/a	n/a	n/a	n/a	13	1	6	6	n/a	n/a	n/a	n/a	n/a
2419.588	n/a	PROB	1209794	n/a	LTP275	ltpFR	8	n/a	n/a	n/a	n/a	n/a	n/a	n/a	19	5	8	6	n/a	n/a	n/a	n/a	n/a
2421.052	n/a	PROB	1210526	n/a	LTP275	ltpFR	8	n/a	n/a	n/a	n/a	n/a	n/a	n/a	10	6	1	3	n/a	n/a	n/a	n/a	n/a
2422.768	n/a	PROB	1211384	n/a	LTP275	ltpFR	8	n/a	n/a	n/a	n/a	n/a	n/a	n/a	10	5	3	2	n/a	n/a	n/a	n/a	n/a
2423.886	n/a	STOP	1211943	n/a	LTP275	ltpFR	8	n/a	n/a	n/a	n/a	n/a	n/a	n/a	n/a	n/a	n/a	n/a	n/a	n/a	n/a	n/a	n/a
2425.63	n/a	WORD	1212815	wordpools/wasnorm_wordpool_less_exclusions.txt	LTP275	ltpFR	8	7	1	NECKLACE	940	n/a	n/a	0	n/a	0	0	0	0.422607421875	0.5869140625	0	lower	zerothre.ttf
2428.642	n/a	START	1214321	n/a	LTP275	ltpFR	8	n/a	n/a	n/a	n/a	n/a	n/a	n/a	n/a	n/a	n/a	n/a	n/a	n/a	n/a	n/a	n/a
2429.806	n/a	PROB	1214903	n/a	LTP275	ltpFR	8	n/a	n/a	n/a	n/a	n/a	n/a	n/a	17	3	6	8	n/a	n/a	n/a	n/a	n/a
2431.32	n/a	PROB	1215660	n/a	LTP275	ltpFR	8	n/a	n/a	n/a	n/a	n/a	n/a	n/a	12	2	4	6	n/a	n/a	n/a	n/a	n/a
2432.852	n/a	PROB	1216426	n/a	LTP275	ltpFR	8	n/a	n/a	n/a	n/a	n/a	n/a	n/a	16	6	2	8	n/a	n/a	n/a	n/a	n/a
2434.2	n/a	PROB	1217100	n/a	LTP275	ltpFR	8	n/a	n/a	n/a	n/a	n/a	n/a	n/a	15	3	8	4	n/a	n/a	n/a	n/a	n/a
2435.764	n/a	PROB	1217882	n/a	LTP275	ltpFR	8	n/a	n/a	n/a	n/a	n/a	n/a	n/a	20	9	4	7	n/a	n/a	n/a	n/a	n/a
2437.594	n/a	PROB	1218797	n/a	LTP275	ltpFR	8	n/a	n/a	n/a	n/a	n/a	n/a	n/a	10	1	8	1	n/a	n/a	n/a	n/a	n/a
2438.96	n/a	PROB	1219480	n/a	LTP275	ltpFR	8	n/a	n/a	n/a	n/a	n/a	n/a	n/a	20	8	5	7	n/a	n/a	n/a	n/a	n/a
2440.306	n/a	PROB	1220153	n/a	LTP275	ltpFR	8	n/a	n/a	n/a	n/a	n/a	n/a	n/a	15	5	2	9	n/a	n/a	n/a	n/a	n/a
2442.054	n/a	PROB	1221027	n/a	LTP275	ltpFR	8	n/a	n/a	n/a	n/a	n/a	n/a	n/a	6	3	1	2	n/a	n/a	n/a	n/a	n/a
2443.67	n/a	STOP	1221835	n/a	LTP275	ltpFR	8	n/a	n/a	n/a	n/a	n/a	n/a	n/a	n/a	n/a	n/a	n/a	n/a	n/a	n/a	n/a	n/a
2445.784	n/a	WORD	1222892	wordpools/wasnorm_wordpool_less_exclusions.txt	LTP275	ltpFR	8	7	1	RUBY	1214	n/a	n/a	0	n/a	0	0	0	0.422607421875	0.5869140625	0	lower	zerothre.ttf
2448.796	n/a	START	1224398	n/a	LTP275	ltpFR	8	n/a	n/a	n/a	n/a	n/a	n/a	n/a	n/a	n/a	n/a	n/a	n/a	n/a	n/a	n/a	n/a
2449.81	n/a	PROB	1224905	n/a	LTP275	ltpFR	8	n/a	n/a	n/a	n/a	n/a	n/a	n/a	6	2	3	1	n/a	n/a	n/a	n/a	n/a
2451.308	n/a	PROB	1225654	n/a	LTP275	ltpFR	8	n/a	n/a	n/a	n/a	n/a	n/a	n/a	16	2	8	6	n/a	n/a	n/a	n/a	n/a
2452.656	n/a	PROB	1226328	n/a	LTP275	ltpFR	8	n/a	n/a	n/a	n/a	n/a	n/a	n/a	15	4	5	6	n/a	n/a	n/a	n/a	n/a
2455.034	n/a	PROB	1227517	n/a	LTP275	ltpFR	8	n/a	n/a	n/a	n/a	n/a	n/a	n/a	12	2	4	6	n/a	n/a	n/a	n/a	n/a
2457.364	n/a	PROB	1228682	n/a	LTP275	ltpFR	8	n/a	n/a	n/a	n/a	n/a	n/a	n/a	13	2	7	4	n/a	n/a	n/a	n/a	n/a
2458.896	n/a	PROB	1229448	n/a	LTP275	ltpFR	8	n/a	n/a	n/a	n/a	n/a	n/a	n/a	13	2	8	3	n/a	n/a	n/a	n/a	n/a
2460.06	n/a	PROB	1230030	n/a	LTP275	ltpFR	8	n/a	n/a	n/a	n/a	n/a	n/a	n/a	23	9	9	5	n/a	n/a	n/a	n/a	n/a
2461.66	n/a	PROB	1230830	n/a	LTP275	ltpFR	8	n/a	n/a	n/a	n/a	n/a	n/a	n/a	18	8	4	6	n/a	n/a	n/a	n/a	n/a
2462.99	n/a	PROB	1231495	n/a	LTP275	ltpFR	8	n/a	n/a	n/a	n/a	n/a	n/a	n/a	12	5	2	5	n/a	n/a	n/a	n/a	n/a
2464.35	n/a	STOP	1232175	n/a	LTP275	ltpFR	8	n/a	n/a	n/a	n/a	n/a	n/a	n/a	n/a	n/a	n/a	n/a	n/a	n/a	n/a	n/a	n/a
2465.754	n/a	WORD	1232877	wordpools/wasnorm_wordpool_less_exclusions.txt	LTP275	ltpFR	8	7	1	BELL	118	n/a	n/a	0	n/a	0	0	0	0.422607421875	0.5869140625	0	lower	zerothre.ttf
2468.766	n/a	START	1234383	n/a	LTP275	ltpFR	8	n/a	n/a	n/a	n/a	n/a	n/a	n/a	n/a	n/a	n/a	n/a	n/a	n/a	n/a	n/a	n/a
2469.648	n/a	PROB	1234824	n/a	LTP275	ltpFR	8	n/a	n/a	n/a	n/a	n/a	n/a	n/a	18	8	5	5	n/a	n/a	n/a	n/a	n/a
2471.21	n/a	PROB	1235605	n/a	LTP275	ltpFR	8	n/a	n/a	n/a	n/a	n/a	n/a	n/a	17	6	5	6	n/a	n/a	n/a	n/a	n/a
2472.558	n/a	PROB	1236279	n/a	LTP275	ltpFR	8	n/a	n/a	n/a	n/a	n/a	n/a	n/a	10	1	8	1	n/a	n/a	n/a	n/a	n/a
2473.692	n/a	PROB	1236846	n/a	LTP275	ltpFR	8	n/a	n/a	n/a	n/a	n/a	n/a	n/a	11	4	1	6	n/a	n/a	n/a	n/a	n/a
2474.922	n/a	PROB	1237461	n/a	LTP275	ltpFR	8	n/a	n/a	n/a	n/a	n/a	n/a	n/a	9	4	4	1	n/a	n/a	n/a	n/a	n/a
2476.054	n/a	PROB	1238027	n/a	LTP275	ltpFR	8	n/a	n/a	n/a	n/a	n/a	n/a	n/a	17	2	6	9	n/a	n/a	n/a	n/a	n/a
2477.936	n/a	PROB	1238968	n/a	LTP275	ltpFR	8	n/a	n/a	n/a	n/a	n/a	n/a	n/a	20	4	7	9	n/a	n/a	n/a	n/a	n/a
2479.382	n/a	PROB	1239691	n/a	LTP275	ltpFR	8	n/a	n/a	n/a	n/a	n/a	n/a	n/a	16	6	4	6	n/a	n/a	n/a	n/a	n/a
2480.648	n/a	PROB	1240324	n/a	LTP275	ltpFR	8	n/a	n/a	n/a	n/a	n/a	n/a	n/a	18	2	8	8	n/a	n/a	n/a	n/a	n/a
2481.98	n/a	PROB	1240990	n/a	LTP275	ltpFR	8	n/a	n/a	n/a	n/a	n/a	n/a	n/a	10	6	2	2	n/a	n/a	n/a	n/a	n/a
2483.382	n/a	STOP	1241691	n/a	LTP275	ltpFR	8	n/a	n/a	n/a	n/a	n/a	n/a	n/a	n/a	n/a	n/a	n/a	n/a	n/a	n/a	n/a	n/a
2485.59	n/a	WORD	1242795	wordpools/wasnorm_wordpool_less_exclusions.txt	LTP275	ltpFR	8	7	1	UNCLE	1536	n/a	n/a	1	n/a	0	0	0	0.422607421875	0.5869140625	0	lower	zerothre.ttf
2488.602	n/a	START	1244301	n/a	LTP275	ltpFR	8	n/a	n/a	n/a	n/a	n/a	n/a	n/a	n/a	n/a	n/a	n/a	n/a	n/a	n/a	n/a	n/a
2489.736	n/a	PROB	1244868	n/a	LTP275	ltpFR	8	n/a	n/a	n/a	n/a	n/a	n/a	n/a	12	7	3	2	n/a	n/a	n/a	n/a	n/a
2490.75	n/a	PROB	1245375	n/a	LTP275	ltpFR	8	n/a	n/a	n/a	n/a	n/a	n/a	n/a	8	1	3	4	n/a	n/a	n/a	n/a	n/a
2492.564	n/a	PROB	1246282	n/a	LTP275	ltpFR	8	n/a	n/a	n/a	n/a	n/a	n/a	n/a	14	5	1	8	n/a	n/a	n/a	n/a	n/a
2494.844	n/a	PROB	1247422	n/a	LTP275	ltpFR	8	n/a	n/a	n/a	n/a	n/a	n/a	n/a	21	3	9	9	n/a	n/a	n/a	n/a	n/a
2496.374	n/a	PROB	1248187	n/a	LTP275	ltpFR	8	n/a	n/a	n/a	n/a	n/a	n/a	n/a	17	9	2	6	n/a	n/a	n/a	n/a	n/a
2498.338	n/a	PROB	1249169	n/a	LTP275	ltpFR	8	n/a	n/a	n/a	n/a	n/a	n/a	n/a	19	9	7	3	n/a	n/a	n/a	n/a	n/a
2499.82	n/a	PROB	1249910	n/a	LTP275	ltpFR	8	n/a	n/a	n/a	n/a	n/a	n/a	n/a	19	7	7	5	n/a	n/a	n/a	n/a	n/a
2501.95	n/a	PROB	1250975	n/a	LTP275	ltpFR	8	n/a	n/a	n/a	n/a	n/a	n/a	n/a	14	4	7	3	n/a	n/a	n/a	n/a	n/a
2503.158	n/a	STOP	1251579	n/a	LTP275	ltpFR	8	n/a	n/a	n/a	n/a	n/a	n/a	n/a	n/a	n/a	n/a	n/a	n/a	n/a	n/a	n/a	n/a
2506.426	n/a	REC_START	1253213	n/a	LTP275	ltpFR	8	7	n/a	n/a	n/a	n/a	n/a	n/a	n/a	0	0	0	n/a	n/a	n/a	n/a	n/a
2510.002	n/a	REC_WORD	1255001	wordpools/wasnorm_wordpool_less_exclusions.txt	LTP275	ltpFR	8	7	1	FRIAR	605	n/a	n/a	1	n/a	0	0	0	n/a	n/a	n/a	n/a	n/a
2512.204	n/a	REC_WORD	1256102	wordpools/wasnorm_wordpool_less_exclusions.txt	LTP275	ltpFR	8	7	1	POPE	1105	n/a	n/a	1	n/a	0	0	0	n/a	n/a	n/a	n/a	n/a
2513.894	n/a	REC_WORD	1256947	wordpools/wasnorm_wordpool_less_exclusions.txt	LTP275	ltpFR	8	7	1	SHRINE	1298	n/a	n/a	0	n/a	0	0	0	n/a	n/a	n/a	n/a	n/a
2515.484	n/a	REC_WORD	1257742	wordpools/wasnorm_wordpool_less_exclusions.txt	LTP275	ltpFR	8	7	1	STRAWBERRY	1391	n/a	n/a	1	n/a	0	0	0	n/a	n/a	n/a	n/a	n/a
2517.14	n/a	REC_WORD	1258570	wordpools/wasnorm_wordpool_less_exclusions.txt	LTP275	ltpFR	8	7	1	BANANA	77	n/a	n/a	1	n/a	0	0	0	n/a	n/a	n/a	n/a	n/a
2518.63	n/a	REC_WORD	1259315	wordpools/wasnorm_wordpool_less_exclusions.txt	LTP275	ltpFR	8	7	1	BELL	118	n/a	n/a	0	n/a	0	0	0	n/a	n/a	n/a	n/a	n/a
2520.004	n/a	REC_WORD	1260002	wordpools/wasnorm_wordpool_less_exclusions.txt	LTP275	ltpFR	8	7	1	NECKLACE	940	n/a	n/a	0	n/a	0	0	0	n/a	n/a	n/a	n/a	n/a
2521.5	n/a	REC_WORD	1260750	wordpools/wasnorm_wordpool_less_exclusions.txt	LTP275	ltpFR	8	7	1	RUBY	1214	n/a	n/a	0	n/a	0	0	0	n/a	n/a	n/a	n/a	n/a
2523.35	n/a	REC_WORD	1261675	wordpools/wasnorm_wordpool_less_exclusions.txt	LTP275	ltpFR	8	7	1	UNCLE	1536	n/a	n/a	1	n/a	0	0	0	n/a	n/a	n/a	n/a	n/a
2525.108	n/a	REC_WORD	1262554	wordpools/wasnorm_wordpool_less_exclusions.txt	LTP275	ltpFR	8	7	1	FIELD	562	n/a	n/a	0	n/a	0	0	0	n/a	n/a	n/a	n/a	n/a
2533.078	n/a	REC_WORD	1266539	wordpools/wasnorm_wordpool_less_exclusions.txt	LTP275	ltpFR	8	7	1	POPE	1105	n/a	n/a	1	n/a	0	0	0	n/a	n/a	n/a	n/a	n/a
2537.586	n/a	REC_WORD	1268793	wordpools/wasnorm_wordpool_less_exclusions.txt	LTP275	ltpFR	8	7	1	COACH	331	n/a	n/a	1	n/a	0	0	0	n/a	n/a	n/a	n/a	n/a
2545.85	n/a	REC_WORD	1272925	wordpools/wasnorm_wordpool_less_exclusions.txt	LTP275	ltpFR	8	7	1	BELL	118	n/a	n/a	0	n/a	0	0	0	n/a	n/a	n/a	n/a	n/a
2577.448	n/a	REC_WORD	1288724	wordpools/wasnorm_wordpool_less_exclusions.txt	LTP275	ltpFR	8	7	1	ZEBRA	1635	n/a	n/a	1	n/a	0	0	0	n/a	n/a	n/a	n/a	n/a
2578.844	n/a	REC_WORD	1289422	wordpools/wasnorm_wordpool_less_exclusions.txt	LTP275	ltpFR	8	7	1	PAW	1029	n/a	n/a	1	n/a	0	0	0	n/a	n/a	n/a	n/a	n/a
2586.892	n/a	WORD	1293446	wordpools/wasnorm_wordpool_less_exclusions.txt	LTP275	ltpFR	8	8	1	TOOTHPASTE	1483	n/a	n/a	0	n/a	0	0	0	0.422607421875	0.5869140625	0	lower	zerothre.ttf
2591.0	n/a	WORD	1295500	wordpools/wasnorm_wordpool_less_exclusions.txt	LTP275	ltpFR	8	8	1	TONGUE	1479	n/a	n/a	1	n/a	0	0	0	0.422607421875	0.5869140625	0	lower	zerothre.ttf
2595.028	n/a	WORD	1297514	wordpools/wasnorm_wordpool_less_exclusions.txt	LTP275	ltpFR	8	8	1	FOLLOWER	589	n/a	n/a	1	n/a	0	0	0	0.422607421875	0.5869140625	0	lower	zerothre.ttf
2598.956	n/a	WORD	1299478	wordpools/wasnorm_wordpool_less_exclusions.txt	LTP275	ltpFR	8	8	1	MARROW	872	n/a	n/a	1	n/a	0	0	0	0.422607421875	0.5869140625	0	lower	zerothre.ttf
2603.132	n/a	WORD	1301566	wordpools/wasnorm_wordpool_less_exclusions.txt	LTP275	ltpFR	8	8	1	HIGHWAY	707	n/a	n/a	0	n/a	0	0	0	0.422607421875	0.5869140625	0	lower	zerothre.ttf
2607.144	n/a	WORD	1303572	wordpools/wasnorm_wordpool_less_exclusions.txt	LTP275	ltpFR	8	8	1	SUBMARINE	1398	n/a	n/a	0	n/a	0	0	0	0.422607421875	0.5869140625	0	lower	zerothre.ttf
2611.304	n/a	WORD	1305652	wordpools/wasnorm_wordpool_less_exclusions.txt	LTP275	ltpFR	8	8	1	DICTATOR	462	n/a	n/a	1	n/a	0	0	0	0.422607421875	0.5869140625	0	lower	zerothre.ttf
2615.398	n/a	WORD	1307699	wordpools/wasnorm_wordpool_less_exclusions.txt	LTP275	ltpFR	8	8	1	SENATE	1267	n/a	n/a	0	n/a	0	0	0	0.422607421875	0.5869140625	0	lower	zerothre.ttf
2619.308	n/a	WORD	1309654	wordpools/wasnorm_wordpool_less_exclusions.txt	LTP275	ltpFR	8	8	1	PATIO	1025	n/a	n/a	0	n/a	0	0	0	0.422607421875	0.5869140625	0	lower	zerothre.ttf
2623.402	n/a	WORD	1311701	wordpools/wasnorm_wordpool_less_exclusions.txt	LTP275	ltpFR	8	8	1	CANOE	233	n/a	n/a	0	n/a	0	0	0	0.422607421875	0.5869140625	0	lower	zerothre.ttf
2627.364	n/a	WORD	1313682	wordpools/wasnorm_wordpool_less_exclusions.txt	LTP275	ltpFR	8	8	1	JAR	750	n/a	n/a	0	n/a	0	0	0	0.422607421875	0.5869140625	0	lower	zerothre.ttf
2631.39	n/a	WORD	1315695	wordpools/wasnorm_wordpool_less_exclusions.txt	LTP275	ltpFR	8	8	1	HAY	693	n/a	n/a	0	n/a	0	0	0	0.422607421875	0.5869140625	0	lower	zerothre.ttf
2635.584	n/a	WORD	1317792	wordpools/wasnorm_wordpool_less_exclusions.txt	LTP275	ltpFR	8	8	1	GALLON	618	n/a	n/a	0	n/a	0	0	0	0.422607421875	0.5869140625	0	lower	zerothre.ttf
2639.746	n/a	WORD	1319873	wordpools/wasnorm_wordpool_less_exclusions.txt	LTP275	ltpFR	8	8	1	SHRUB	1299	n/a	n/a	1	n/a	0	0	0	0.422607421875	0.5869140625	0	lower	zerothre.ttf
2643.79	n/a	WORD	1321895	wordpools/wasnorm_wordpool_less_exclusions.txt	LTP275	ltpFR	8	8	1	TURTLE	1522	n/a	n/a	1	n/a	0	0	0	0.422607421875	0.5869140625	0	lower	zerothre.ttf
2647.634	n/a	WORD	1323817	wordpools/wasnorm_wordpool_less_exclusions.txt	LTP275	ltpFR	8	8	1	SNAIL	1332	n/a	n/a	1	n/a	0	0	0	0.422607421875	0.5869140625	0	lower	zerothre.ttf
2650.646	n/a	START	1325323	n/a	LTP275	ltpFR	8	n/a	n/a	n/a	n/a	n/a	n/a	n/a	n/a	n/a	n/a	n/a	n/a	n/a	n/a	n/a	n/a
2651.594	n/a	PROB	1325797	n/a	LTP275	ltpFR	8	n/a	n/a	n/a	n/a	n/a	n/a	n/a	21	7	6	8	n/a	n/a	n/a	n/a	n/a
2653.89	n/a	PROB	1326945	n/a	LTP275	ltpFR	8	n/a	n/a	n/a	n/a	n/a	n/a	n/a	10	4	3	3	n/a	n/a	n/a	n/a	n/a
2655.272	n/a	PROB	1327636	n/a	LTP275	ltpFR	8	n/a	n/a	n/a	n/a	n/a	n/a	n/a	15	3	9	3	n/a	n/a	n/a	n/a	n/a
2656.536	n/a	PROB	1328268	n/a	LTP275	ltpFR	8	n/a	n/a	n/a	n/a	n/a	n/a	n/a	17	5	4	8	n/a	n/a	n/a	n/a	n/a
2658.05	n/a	PROB	1329025	n/a	LTP275	ltpFR	8	n/a	n/a	n/a	n/a	n/a	n/a	n/a	15	9	2	4	n/a	n/a	n/a	n/a	n/a
2659.216	n/a	PROB	1329608	n/a	LTP275	ltpFR	8	n/a	n/a	n/a	n/a	n/a	n/a	n/a	25	9	7	9	n/a	n/a	n/a	n/a	n/a
2661.978	n/a	PROB	1330989	n/a	LTP275	ltpFR	8	n/a	n/a	n/a	n/a	n/a	n/a	n/a	8	6	1	1	n/a	n/a	n/a	n/a	n/a
2663.544	n/a	PROB	1331772	n/a	LTP275	ltpFR	8	n/a	n/a	n/a	n/a	n/a	n/a	n/a	14	3	6	5	n/a	n/a	n/a	n/a	n/a
2666.648	n/a	STOP	1333324	n/a	LTP275	ltpFR	8	n/a	n/a	n/a	n/a	n/a	n/a	n/a	n/a	n/a	n/a	n/a	n/a	n/a	n/a	n/a	n/a
2668.42	n/a	REC_START	1334210	n/a	LTP275	ltpFR	8	8	n/a	n/a	n/a	n/a	n/a	n/a	n/a	0	0	0	n/a	n/a	n/a	n/a	n/a
2670.66	n/a	REC_WORD	1335330	wordpools/wasnorm_wordpool_less_exclusions.txt	LTP275	ltpFR	8	8	1	HIGHWAY	707	n/a	n/a	0	n/a	0	0	0	n/a	n/a	n/a	n/a	n/a
2672.058	n/a	REC_WORD	1336029	wordpools/wasnorm_wordpool_less_exclusions.txt	LTP275	ltpFR	8	8	1	SUBMARINE	1398	n/a	n/a	0	n/a	0	0	0	n/a	n/a	n/a	n/a	n/a
2673.746	n/a	REC_WORD	1336873	wordpools/wasnorm_wordpool_less_exclusions.txt	LTP275	ltpFR	8	8	1	FOLLOWER	589	n/a	n/a	1	n/a	0	0	0	n/a	n/a	n/a	n/a	n/a
2675.252	n/a	REC_WORD	1337626	wordpools/wasnorm_wordpool_less_exclusions.txt	LTP275	ltpFR	8	8	1	DICTATOR	462	n/a	n/a	1	n/a	0	0	0	n/a	n/a	n/a	n/a	n/a
2676.788	n/a	REC_WORD	1338394	wordpools/wasnorm_wordpool_less_exclusions.txt	LTP275	ltpFR	8	8	1	SENATE	1267	n/a	n/a	0	n/a	0	0	0	n/a	n/a	n/a	n/a	n/a
2679.856	n/a	REC_WORD	1339928	wordpools/wasnorm_wordpool_less_exclusions.txt	LTP275	ltpFR	8	8	1	TOOTHPASTE	1483	n/a	n/a	0	n/a	0	0	0	n/a	n/a	n/a	n/a	n/a
2681.49	n/a	REC_WORD	1340745	wordpools/wasnorm_wordpool_less_exclusions.txt	LTP275	ltpFR	8	8	1	TONGUE	1479	n/a	n/a	1	n/a	0	0	0	n/a	n/a	n/a	n/a	n/a
2683.202	n/a	REC_WORD	1341601	wordpools/wasnorm_wordpool_less_exclusions.txt	LTP275	ltpFR	8	8	1	MARROW	872	n/a	n/a	1	n/a	0	0	0	n/a	n/a	n/a	n/a	n/a
2684.942	n/a	REC_WORD	1342471	wordpools/wasnorm_wordpool_less_exclusions.txt	LTP275	ltpFR	8	8	1	CANOE	233	n/a	n/a	0	n/a	0	0	0	n/a	n/a	n/a	n/a	n/a
2686.604	n/a	REC_WORD	1343302	wordpools/wasnorm_wordpool_less_exclusions.txt	LTP275	ltpFR	8	8	1	SHRUB	1299	n/a	n/a	1	n/a	0	0	0	n/a	n/a	n/a	n/a	n/a
2688.762	n/a	REC_WORD	1344381	wordpools/wasnorm_wordpool_less_exclusions.txt	LTP275	ltpFR	8	8	1	HAY	693	n/a	n/a	0	n/a	0	0	0	n/a	n/a	n/a	n/a	n/a
2690.332	n/a	REC_WORD	1345166	wordpools/wasnorm_wordpool_less_exclusions.txt	LTP275	ltpFR	8	8	1	JAR	750	n/a	n/a	0	n/a	0	0	0	n/a	n/a	n/a	n/a	n/a
2691.88	n/a	REC_WORD	1345940	wordpools/wasnorm_wordpool_less_exclusions.txt	LTP275	ltpFR	8	8	1	GALLON	618	n/a	n/a	0	n/a	0	0	0	n/a	n/a	n/a	n/a	n/a
2693.666	n/a	REC_WORD	1346833	wordpools/wasnorm_wordpool_less_exclusions.txt	LTP275	ltpFR	8	8	1	SNAIL	1332	n/a	n/a	1	n/a	0	0	0	n/a	n/a	n/a	n/a	n/a
2698.41	n/a	REC_WORD	1349205	wordpools/wasnorm_wordpool_less_exclusions.txt	LTP275	ltpFR	8	8	1	TURTLE	1522	n/a	n/a	1	n/a	0	0	0	n/a	n/a	n/a	n/a	n/a
2700.374	n/a	REC_WORD	1350187	wordpools/wasnorm_wordpool_less_exclusions.txt	LTP275	ltpFR	8	8	1	JAR	750	n/a	n/a	0	n/a	0	0	0	n/a	n/a	n/a	n/a	n/a
2747.552	n/a	START	1373776	n/a	LTP275	ltpFR	8	n/a	n/a	n/a	n/a	n/a	n/a	n/a	n/a	n/a	n/a	n/a	n/a	n/a	n/a	n/a	n/a
2749.066	n/a	PROB	1374533	n/a	LTP275	ltpFR	8	n/a	n/a	n/a	n/a	n/a	n/a	n/a	9	3	1	5	n/a	n/a	n/a	n/a	n/a
2751.196	n/a	PROB	1375598	n/a	LTP275	ltpFR	8	n/a	n/a	n/a	n/a	n/a	n/a	n/a	11	5	3	3	n/a	n/a	n/a	n/a	n/a
2752.394	n/a	PROB	1376197	n/a	LTP275	ltpFR	8	n/a	n/a	n/a	n/a	n/a	n/a	n/a	12	4	4	4	n/a	n/a	n/a	n/a	n/a
2753.576	n/a	PROB	1376788	n/a	LTP275	ltpFR	8	n/a	n/a	n/a	n/a	n/a	n/a	n/a	11	5	5	1	n/a	n/a	n/a	n/a	n/a
2754.522	n/a	STOP	1377261	n/a	LTP275	ltpFR	8	n/a	n/a	n/a	n/a	n/a	n/a	n/a	n/a	n/a	n/a	n/a	n/a	n/a	n/a	n/a	n/a
2756.556	n/a	WORD	1378278	wordpools/wasnorm_wordpool_less_exclusions.txt	LTP275	ltpFR	8	9	1	MONKEY	911	n/a	n/a	1	n/a	0	0	0	0.422607421875	0.5869140625	0	lower	zerothre.ttf
2759.568	n/a	START	1379784	n/a	LTP275	ltpFR	8	n/a	n/a	n/a	n/a	n/a	n/a	n/a	n/a	n/a	n/a	n/a	n/a	n/a	n/a	n/a	n/a
2760.566	n/a	PROB	1380283	n/a	LTP275	ltpFR	8	n/a	n/a	n/a	n/a	n/a	n/a	n/a	16	5	9	1	n/a	n/a	n/a	n/a	n/a
2762.396	n/a	PROB	1381198	n/a	LTP275	ltpFR	8	n/a	n/a	n/a	n/a	n/a	n/a	n/a	9	1	1	7	n/a	n/a	n/a	n/a	n/a
2763.68	n/a	PROB	1381840	n/a	LTP275	ltpFR	8	n/a	n/a	n/a	n/a	n/a	n/a	n/a	25	9	8	8	n/a	n/a	n/a	n/a	n/a
2765.576	n/a	PROB	1382788	n/a	LTP275	ltpFR	8	n/a	n/a	n/a	n/a	n/a	n/a	n/a	9	4	1	4	n/a	n/a	n/a	n/a	n/a
2767.09	n/a	STOP	1383545	n/a	LTP275	ltpFR	8	n/a	n/a	n/a	n/a	n/a	n/a	n/a	n/a	n/a	n/a	n/a	n/a	n/a	n/a	n/a	n/a
2768.754	n/a	WORD	1384377	wordpools/wasnorm_wordpool_less_exclusions.txt	LTP275	ltpFR	8	9	1	JUNGLE	764	n/a	n/a	1	n/a	0	0	0	0.422607421875	0.5869140625	0	lower	zerothre.ttf
2771.768	n/a	START	1385884	n/a	LTP275	ltpFR	8	n/a	n/a	n/a	n/a	n/a	n/a	n/a	n/a	n/a	n/a	n/a	n/a	n/a	n/a	n/a	n/a
2772.782	n/a	PROB	1386391	n/a	LTP275	ltpFR	8	n/a	n/a	n/a	n/a	n/a	n/a	n/a	16	6	8	2	n/a	n/a	n/a	n/a	n/a
2774.246	n/a	PROB	1387123	n/a	LTP275	ltpFR	8	n/a	n/a	n/a	n/a	n/a	n/a	n/a	15	9	2	4	n/a	n/a	n/a	n/a	n/a
2775.81	n/a	PROB	1387905	n/a	LTP275	ltpFR	8	n/a	n/a	n/a	n/a	n/a	n/a	n/a	19	6	8	5	n/a	n/a	n/a	n/a	n/a
2777.674	n/a	PROB	1388837	n/a	LTP275	ltpFR	8	n/a	n/a	n/a	n/a	n/a	n/a	n/a	15	1	9	5	n/a	n/a	n/a	n/a	n/a
2778.898	n/a	STOP	1389449	n/a	LTP275	ltpFR	8	n/a	n/a	n/a	n/a	n/a	n/a	n/a	n/a	n/a	n/a	n/a	n/a	n/a	n/a	n/a	n/a
2780.67	n/a	WORD	1390335	wordpools/wasnorm_wordpool_less_exclusions.txt	LTP275	ltpFR	8	9	1	CROWN	415	n/a	n/a	0	n/a	0	0	0	0.422607421875	0.5869140625	0	lower	zerothre.ttf
2783.682	n/a	START	1391841	n/a	LTP275	ltpFR	8	n/a	n/a	n/a	n/a	n/a	n/a	n/a	n/a	n/a	n/a	n/a	n/a	n/a	n/a	n/a	n/a
2784.88	n/a	PROB	1392440	n/a	LTP275	ltpFR	8	n/a	n/a	n/a	n/a	n/a	n/a	n/a	11	2	6	3	n/a	n/a	n/a	n/a	n/a
2786.228	n/a	PROB	1393114	n/a	LTP275	ltpFR	8	n/a	n/a	n/a	n/a	n/a	n/a	n/a	198	7	5	6	n/a	n/a	n/a	n/a	n/a
2789.09	n/a	PROB	1394545	n/a	LTP275	ltpFR	8	n/a	n/a	n/a	n/a	n/a	n/a	n/a	15	8	8	9	n/a	n/a	n/a	n/a	n/a
2790.874	n/a	STOP	1395437	n/a	LTP275	ltpFR	8	n/a	n/a	n/a	n/a	n/a	n/a	n/a	n/a	n/a	n/a	n/a	n/a	n/a	n/a	n/a	n/a
2792.736	n/a	WORD	1396368	wordpools/wasnorm_wordpool_less_exclusions.txt	LTP275	ltpFR	8	9	1	PRINCESS	1125	n/a	n/a	1	n/a	0	0	0	0.422607421875	0.5869140625	0	lower	zerothre.ttf
2795.748	n/a	START	1397874	n/a	LTP275	ltpFR	8	n/a	n/a	n/a	n/a	n/a	n/a	n/a	n/a	n/a	n/a	n/a	n/a	n/a	n/a	n/a	n/a
2796.896	n/a	PROB	1398448	n/a	LTP275	ltpFR	8	n/a	n/a	n/a	n/a	n/a	n/a	n/a	20	8	3	9	n/a	n/a	n/a	n/a	n/a
2798.492	n/a	PROB	1399246	n/a	LTP275	ltpFR	8	n/a	n/a	n/a	n/a	n/a	n/a	n/a	16	7	8	1	n/a	n/a	n/a	n/a	n/a
2799.808	n/a	PROB	1399904	n/a	LTP275	ltpFR	8	n/a	n/a	n/a	n/a	n/a	n/a	n/a	9	1	1	7	n/a	n/a	n/a	n/a	n/a
2801.088	n/a	PROB	1400544	n/a	LTP275	ltpFR	8	n/a	n/a	n/a	n/a	n/a	n/a	n/a	9	5	3	1	n/a	n/a	n/a	n/a	n/a
2803.748	n/a	STOP	1401874	n/a	LTP275	ltpFR	8	n/a	n/a	n/a	n/a	n/a	n/a	n/a	n/a	n/a	n/a	n/a	n/a	n/a	n/a	n/a	n/a
2804.684	n/a	WORD	1402342	wordpools/wasnorm_wordpool_less_exclusions.txt	LTP275	ltpFR	8	9	0	RAIL	1161	n/a	n/a	1	n/a	0	0	0	0.57763671875	0.412841796875	1	upper	amplitud.ttf
2807.698	n/a	START	1403849	n/a	LTP275	ltpFR	8	n/a	n/a	n/a	n/a	n/a	n/a	n/a	n/a	n/a	n/a	n/a	n/a	n/a	n/a	n/a	n/a
2808.61	n/a	PROB	1404305	n/a	LTP275	ltpFR	8	n/a	n/a	n/a	n/a	n/a	n/a	n/a	16	7	3	6	n/a	n/a	n/a	n/a	n/a
2810.142	n/a	PROB	1405071	n/a	LTP275	ltpFR	8	n/a	n/a	n/a	n/a	n/a	n/a	n/a	19	5	7	7	n/a	n/a	n/a	n/a	n/a
2811.674	n/a	PROB	1405837	n/a	LTP275	ltpFR	8	n/a	n/a	n/a	n/a	n/a	n/a	n/a	15	3	8	4	n/a	n/a	n/a	n/a	n/a
2812.872	n/a	PROB	1406436	n/a	LTP275	ltpFR	8	n/a	n/a	n/a	n/a	n/a	n/a	n/a	14	8	1	5	n/a	n/a	n/a	n/a	n/a
2814.234	n/a	STOP	1407117	n/a	LTP275	ltpFR	8	n/a	n/a	n/a	n/a	n/a	n/a	n/a	n/a	n/a	n/a	n/a	n/a	n/a	n/a	n/a	n/a
2816.784	n/a	WORD	1408392	wordpools/wasnorm_wordpool_less_exclusions.txt	LTP275	ltpFR	8	9	0	VEAL	1551	n/a	n/a	1	n/a	0	0	0	0.57763671875	0.412841796875	1	upper	amplitud.ttf
2819.796	n/a	START	1409898	n/a	LTP275	ltpFR	8	n/a	n/a	n/a	n/a	n/a	n/a	n/a	n/a	n/a	n/a	n/a	n/a	n/a	n/a	n/a	n/a
2820.992	n/a	PROB	1410496	n/a	LTP275	ltpFR	8	n/a	n/a	n/a	n/a	n/a	n/a	n/a	16	7	7	2	n/a	n/a	n/a	n/a	n/a
2822.54	n/a	PROB	1411270	n/a	LTP275	ltpFR	8	n/a	n/a	n/a	n/a	n/a	n/a	n/a	14	9	3	2	n/a	n/a	n/a	n/a	n/a
2823.89	n/a	PROB	1411945	n/a	LTP275	ltpFR	8	n/a	n/a	n/a	n/a	n/a	n/a	n/a	19	9	1	9	n/a	n/a	n/a	n/a	n/a
2825.37	n/a	PROB	1412685	n/a	LTP275	ltpFR	8	n/a	n/a	n/a	n/a	n/a	n/a	n/a	17	5	9	3	n/a	n/a	n/a	n/a	n/a
2826.994	n/a	STOP	1413497	n/a	LTP275	ltpFR	8	n/a	n/a	n/a	n/a	n/a	n/a	n/a	n/a	n/a	n/a	n/a	n/a	n/a	n/a	n/a	n/a
2828.748	n/a	WORD	1414374	wordpools/wasnorm_wordpool_less_exclusions.txt	LTP275	ltpFR	8	9	0	POWDER	1117	n/a	n/a	0	n/a	0	0	0	0.57763671875	0.412841796875	1	upper	amplitud.ttf
2831.762	n/a	START	1415881	n/a	LTP275	ltpFR	8	n/a	n/a	n/a	n/a	n/a	n/a	n/a	n/a	n/a	n/a	n/a	n/a	n/a	n/a	n/a	n/a
2832.942	n/a	PROB	1416471	n/a	LTP275	ltpFR	8	n/a	n/a	n/a	n/a	n/a	n/a	n/a	21	9	6	6	n/a	n/a	n/a	n/a	n/a
2834.506	n/a	PROB	1417253	n/a	LTP275	ltpFR	8	n/a	n/a	n/a	n/a	n/a	n/a	n/a	12	3	2	7	n/a	n/a	n/a	n/a	n/a
2836.154	n/a	PROB	1418077	n/a	LTP275	ltpFR	8	n/a	n/a	n/a	n/a	n/a	n/a	n/a	14	3	8	3	n/a	n/a	n/a	n/a	n/a
2837.536	n/a	PROB	1418768	n/a	LTP275	ltpFR	8	n/a	n/a	n/a	n/a	n/a	n/a	n/a	20	4	8	8	n/a	n/a	n/a	n/a	n/a
2839.538	n/a	STOP	1419769	n/a	LTP275	ltpFR	8	n/a	n/a	n/a	n/a	n/a	n/a	n/a	n/a	n/a	n/a	n/a	n/a	n/a	n/a	n/a	n/a
2840.648	n/a	WORD	1420324	wordpools/wasnorm_wordpool_less_exclusions.txt	LTP275	ltpFR	8	9	0	LUNCH	849	n/a	n/a	0	n/a	0	0	0	0.57763671875	0.412841796875	1	upper	amplitud.ttf
2843.66	n/a	START	1421830	n/a	LTP275	ltpFR	8	n/a	n/a	n/a	n/a	n/a	n/a	n/a	n/a	n/a	n/a	n/a	n/a	n/a	n/a	n/a	n/a
2844.692	n/a	PROB	1422346	n/a	LTP275	ltpFR	8	n/a	n/a	n/a	n/a	n/a	n/a	n/a	12	4	1	7	n/a	n/a	n/a	n/a	n/a
2846.04	n/a	PROB	1423020	n/a	LTP275	ltpFR	8	n/a	n/a	n/a	n/a	n/a	n/a	n/a	19	7	5	7	n/a	n/a	n/a	n/a	n/a
2848.004	n/a	PROB	1424002	n/a	LTP275	ltpFR	8	n/a	n/a	n/a	n/a	n/a	n/a	n/a	12	3	2	7	n/a	n/a	n/a	n/a	n/a
2849.218	n/a	PROB	1424609	n/a	LTP275	ltpFR	8	n/a	n/a	n/a	n/a	n/a	n/a	n/a	21	6	8	7	n/a	n/a	n/a	n/a	n/a
2851.066	n/a	STOP	1425533	n/a	LTP275	ltpFR	8	n/a	n/a	n/a	n/a	n/a	n/a	n/a	n/a	n/a	n/a	n/a	n/a	n/a	n/a	n/a	n/a
2852.846	n/a	WORD	1426423	wordpools/wasnorm_wordpool_less_exclusions.txt	LTP275	ltpFR	8	9	1	CHAUFFEUR	283	n/a	n/a	1	n/a	0	0	0	0.422607421875	0.5869140625	0	lower	zerothre.ttf
2855.86	n/a	START	1427930	n/a	LTP275	ltpFR	8	n/a	n/a	n/a	n/a	n/a	n/a	n/a	n/a	n/a	n/a	n/a	n/a	n/a	n/a	n/a	n/a
2856.89	n/a	PROB	1428445	n/a	LTP275	ltpFR	8	n/a	n/a	n/a	n/a	n/a	n/a	n/a	19	8	4	7	n/a	n/a	n/a	n/a	n/a
2858.32	n/a	PROB	1429160	n/a	LTP275	ltpFR	8	n/a	n/a	n/a	n/a	n/a	n/a	n/a	13	1	4	8	n/a	n/a	n/a	n/a	n/a
2859.57	n/a	PROB	1429785	n/a	LTP275	ltpFR	8	n/a	n/a	n/a	n/a	n/a	n/a	n/a	11	2	5	4	n/a	n/a	n/a	n/a	n/a
2862.266	n/a	PROB	1431133	n/a	LTP275	ltpFR	8	n/a	n/a	n/a	n/a	n/a	n/a	n/a	12	4	3	5	n/a	n/a	n/a	n/a	n/a
2863.474	n/a	STOP	1431737	n/a	LTP275	ltpFR	8	n/a	n/a	n/a	n/a	n/a	n/a	n/a	n/a	n/a	n/a	n/a	n/a	n/a	n/a	n/a	n/a
2864.828	n/a	WORD	1432414	wordpools/wasnorm_wordpool_less_exclusions.txt	LTP275	ltpFR	8	9	1	PICTURE	1061	n/a	n/a	0	n/a	0	0	0	0.422607421875	0.5869140625	0	lower	zerothre.ttf
2867.842	n/a	START	1433921	n/a	LTP275	ltpFR	8	n/a	n/a	n/a	n/a	n/a	n/a	n/a	n/a	n/a	n/a	n/a	n/a	n/a	n/a	n/a	n/a
2868.79	n/a	PROB	1434395	n/a	LTP275	ltpFR	8	n/a	n/a	n/a	n/a	n/a	n/a	n/a	14	7	3	4	n/a	n/a	n/a	n/a	n/a
2870.004	n/a	PROB	1435002	n/a	LTP275	ltpFR	8	n/a	n/a	n/a	n/a	n/a	n/a	n/a	17	4	4	9	n/a	n/a	n/a	n/a	n/a
2872.034	n/a	PROB	1436017	n/a	LTP275	ltpFR	8	n/a	n/a	n/a	n/a	n/a	n/a	n/a	16	1	7	8	n/a	n/a	n/a	n/a	n/a
2873.898	n/a	PROB	1436949	n/a	LTP275	ltpFR	8	n/a	n/a	n/a	n/a	n/a	n/a	n/a	18	6	6	6	n/a	n/a	n/a	n/a	n/a
2875.62	n/a	STOP	1437810	n/a	LTP275	ltpFR	8	n/a	n/a	n/a	n/a	n/a	n/a	n/a	n/a	n/a	n/a	n/a	n/a	n/a	n/a	n/a	n/a
2876.844	n/a	WORD	1438422	wordpools/wasnorm_wordpool_less_exclusions.txt	LTP275	ltpFR	8	9	1	MAP	865	n/a	n/a	0	n/a	0	0	0	0.422607421875	0.5869140625	0	lower	zerothre.ttf
2879.856	n/a	START	1439928	n/a	LTP275	ltpFR	8	n/a	n/a	n/a	n/a	n/a	n/a	n/a	n/a	n/a	n/a	n/a	n/a	n/a	n/a	n/a	n/a
2880.738	n/a	PROB	1440369	n/a	LTP275	ltpFR	8	n/a	n/a	n/a	n/a	n/a	n/a	n/a	23	8	6	9	n/a	n/a	n/a	n/a	n/a
2882.402	n/a	PROB	1441201	n/a	LTP275	ltpFR	8	n/a	n/a	n/a	n/a	n/a	n/a	n/a	9	4	4	1	n/a	n/a	n/a	n/a	n/a
2883.516	n/a	PROB	1441758	n/a	LTP275	ltpFR	8	n/a	n/a	n/a	n/a	n/a	n/a	n/a	11	5	4	2	n/a	n/a	n/a	n/a	n/a
2884.816	n/a	PROB	1442408	n/a	LTP275	ltpFR	8	n/a	n/a	n/a	n/a	n/a	n/a	n/a	13	1	4	8	n/a	n/a	n/a	n/a	n/a
2887.856	n/a	STOP	1443928	n/a	LTP275	ltpFR	8	n/a	n/a	n/a	n/a	n/a	n/a	n/a	n/a	n/a	n/a	n/a	n/a	n/a	n/a	n/a	n/a
2888.776	n/a	WORD	1444388	wordpools/wasnorm_wordpool_less_exclusions.txt	LTP275	ltpFR	8	9	1	CALF	222	n/a	n/a	1	n/a	0	0	0	0.422607421875	0.5869140625	0	lower	zerothre.ttf
2891.79	n/a	START	1445895	n/a	LTP275	ltpFR	8	n/a	n/a	n/a	n/a	n/a	n/a	n/a	n/a	n/a	n/a	n/a	n/a	n/a	n/a	n/a	n/a
2892.82	n/a	PROB	1446410	n/a	LTP275	ltpFR	8	n/a	n/a	n/a	n/a	n/a	n/a	n/a	13	8	4	1	n/a	n/a	n/a	n/a	n/a
2894.35	n/a	PROB	1447175	n/a	LTP275	ltpFR	8	n/a	n/a	n/a	n/a	n/a	n/a	n/a	17	8	4	5	n/a	n/a	n/a	n/a	n/a
2896.664	n/a	PROB	1448332	n/a	LTP275	ltpFR	8	n/a	n/a	n/a	n/a	n/a	n/a	n/a	7	2	2	3	n/a	n/a	n/a	n/a	n/a
2898.29	n/a	STOP	1449145	n/a	LTP275	ltpFR	8	n/a	n/a	n/a	n/a	n/a	n/a	n/a	n/a	n/a	n/a	n/a	n/a	n/a	n/a	n/a	n/a
2900.726	n/a	WORD	1450363	wordpools/wasnorm_wordpool_less_exclusions.txt	LTP275	ltpFR	8	9	0	ENGINE	535	n/a	n/a	0	n/a	0	0	0	0.57763671875	0.412841796875	1	upper	amplitud.ttf
2903.738	n/a	START	1451869	n/a	LTP275	ltpFR	8	n/a	n/a	n/a	n/a	n/a	n/a	n/a	n/a	n/a	n/a	n/a	n/a	n/a	n/a	n/a	n/a
2904.568	n/a	PROB	1452284	n/a	LTP275	ltpFR	8	n/a	n/a	n/a	n/a	n/a	n/a	n/a	17	8	7	2	n/a	n/a	n/a	n/a	n/a
2906.116	n/a	PROB	1453058	n/a	LTP275	ltpFR	8	n/a	n/a	n/a	n/a	n/a	n/a	n/a	16	4	4	9	n/a	n/a	n/a	n/a	n/a
2908.13	n/a	PROB	1454065	n/a	LTP275	ltpFR	8	n/a	n/a	n/a	n/a	n/a	n/a	n/a	12	7	2	3	n/a	n/a	n/a	n/a	n/a
2909.612	n/a	PROB	1454806	n/a	LTP275	ltpFR	8	n/a	n/a	n/a	n/a	n/a	n/a	n/a	20	5	6	9	n/a	n/a	n/a	n/a	n/a
2910.964	n/a	STOP	1455482	n/a	LTP275	ltpFR	8	n/a	n/a	n/a	n/a	n/a	n/a	n/a	n/a	n/a	n/a	n/a	n/a	n/a	n/a	n/a	n/a
2912.658	n/a	WORD	1456329	wordpools/wasnorm_wordpool_less_exclusions.txt	LTP275	ltpFR	8	9	0	RUST	1219	n/a	n/a	0	n/a	0	0	0	0.57763671875	0.412841796875	1	upper	amplitud.ttf
2915.67	n/a	START	1457835	n/a	LTP275	ltpFR	8	n/a	n/a	n/a	n/a	n/a	n/a	n/a	n/a	n/a	n/a	n/a	n/a	n/a	n/a	n/a	n/a
2916.852	n/a	PROB	1458426	n/a	LTP275	ltpFR	8	n/a	n/a	n/a	n/a	n/a	n/a	n/a	9	2	3	4	n/a	n/a	n/a	n/a	n/a
2918.932	n/a	PROB	1459466	n/a	LTP275	ltpFR	8	n/a	n/a	n/a	n/a	n/a	n/a	n/a	13	5	3	5	n/a	n/a	n/a	n/a	n/a
2920.212	n/a	PROB	1460106	n/a	LTP275	ltpFR	8	n/a	n/a	n/a	n/a	n/a	n/a	n/a	11	1	9	1	n/a	n/a	n/a	n/a	n/a
2921.326	n/a	PROB	1460663	n/a	LTP275	ltpFR	8	n/a	n/a	n/a	n/a	n/a	n/a	n/a	12	2	9	1	n/a	n/a	n/a	n/a	n/a
2922.498	n/a	STOP	1461249	n/a	LTP275	ltpFR	8	n/a	n/a	n/a	n/a	n/a	n/a	n/a	n/a	n/a	n/a	n/a	n/a	n/a	n/a	n/a	n/a
2924.756	n/a	WORD	1462378	wordpools/wasnorm_wordpool_less_exclusions.txt	LTP275	ltpFR	8	9	0	DRESSER	496	n/a	n/a	1	n/a	0	0	0	0.57763671875	0.412841796875	1	upper	amplitud.ttf
2927.77	n/a	START	1463885	n/a	LTP275	ltpFR	8	n/a	n/a	n/a	n/a	n/a	n/a	n/a	n/a	n/a	n/a	n/a	n/a	n/a	n/a	n/a	n/a
2928.684	n/a	PROB	1464342	n/a	LTP275	ltpFR	8	n/a	n/a	n/a	n/a	n/a	n/a	n/a	23	7	8	7	n/a	n/a	n/a	n/a	n/a
2930.214	n/a	PROB	1465107	n/a	LTP275	ltpFR	8	n/a	n/a	n/a	n/a	n/a	n/a	n/a	15	8	5	2	n/a	n/a	n/a	n/a	n/a
2931.562	n/a	PROB	1465781	n/a	LTP275	ltpFR	8	n/a	n/a	n/a	n/a	n/a	n/a	n/a	11	5	2	4	n/a	n/a	n/a	n/a	n/a
2932.846	n/a	PROB	1466423	n/a	LTP275	ltpFR	8	n/a	n/a	n/a	n/a	n/a	n/a	n/a	19	8	5	6	n/a	n/a	n/a	n/a	n/a
2934.176	n/a	PROB	1467088	n/a	LTP275	ltpFR	8	n/a	n/a	n/a	n/a	n/a	n/a	n/a	23	7	8	8	n/a	n/a	n/a	n/a	n/a
2935.676	n/a	STOP	1467838	n/a	LTP275	ltpFR	8	n/a	n/a	n/a	n/a	n/a	n/a	n/a	n/a	n/a	n/a	n/a	n/a	n/a	n/a	n/a	n/a
2936.856	n/a	WORD	1468428	wordpools/wasnorm_wordpool_less_exclusions.txt	LTP275	ltpFR	8	9	0	POLITICIAN	1099	n/a	n/a	1	n/a	0	0	0	0.57763671875	0.412841796875	1	upper	amplitud.ttf
2939.868	n/a	START	1469934	n/a	LTP275	ltpFR	8	n/a	n/a	n/a	n/a	n/a	n/a	n/a	n/a	n/a	n/a	n/a	n/a	n/a	n/a	n/a	n/a
2940.9	n/a	PROB	1470450	n/a	LTP275	ltpFR	8	n/a	n/a	n/a	n/a	n/a	n/a	n/a	15	3	3	9	n/a	n/a	n/a	n/a	n/a
2942.296	n/a	PROB	1471148	n/a	LTP275	ltpFR	8	n/a	n/a	n/a	n/a	n/a	n/a	n/a	14	7	3	4	n/a	n/a	n/a	n/a	n/a
2943.512	n/a	PROB	1471756	n/a	LTP275	ltpFR	8	n/a	n/a	n/a	n/a	n/a	n/a	n/a	21	6	7	8	n/a	n/a	n/a	n/a	n/a
2945.092	n/a	PROB	1472546	n/a	LTP275	ltpFR	8	n/a	n/a	n/a	n/a	n/a	n/a	n/a	14	1	5	8	n/a	n/a	n/a	n/a	n/a
2946.324	n/a	STOP	1473162	n/a	LTP275	ltpFR	8	n/a	n/a	n/a	n/a	n/a	n/a	n/a	n/a	n/a	n/a	n/a	n/a	n/a	n/a	n/a	n/a
2949.638	n/a	REC_START	1474819	n/a	LTP275	ltpFR	8	9	n/a	n/a	n/a	n/a	n/a	n/a	n/a	0	0	0	n/a	n/a	n/a	n/a	n/a
2951.32	n/a	REC_WORD	1475660	wordpools/wasnorm_wordpool_less_exclusions.txt	LTP275	ltpFR	8	9	0	RAIL	1161	n/a	n/a	1	n/a	0	0	0	n/a	n/a	n/a	n/a	n/a
2952.52	n/a	REC_WORD	1476260	wordpools/wasnorm_wordpool_less_exclusions.txt	LTP275	ltpFR	8	9	0	VEAL	1551	n/a	n/a	1	n/a	0	0	0	n/a	n/a	n/a	n/a	n/a
2954.03	n/a	REC_WORD	1477015	wordpools/wasnorm_wordpool_less_exclusions.txt	LTP275	ltpFR	8	9	0	POWDER	1117	n/a	n/a	0	n/a	0	0	0	n/a	n/a	n/a	n/a	n/a
2955.638	n/a	REC_WORD	1477819	wordpools/wasnorm_wordpool_less_exclusions.txt	LTP275	ltpFR	8	9	0	LUNCH	849	n/a	n/a	0	n/a	0	0	0	n/a	n/a	n/a	n/a	n/a
2957.638	n/a	REC_WORD	1478819	wordpools/wasnorm_wordpool_less_exclusions.txt	LTP275	ltpFR	8	9	0	RUST	1219	n/a	n/a	0	n/a	0	0	0	n/a	n/a	n/a	n/a	n/a
2959.964	n/a	REC_WORD	1479982	wordpools/wasnorm_wordpool_less_exclusions.txt	LTP275	ltpFR	8	9	1	PRINCESS	1125	n/a	n/a	1	n/a	0	0	0	n/a	n/a	n/a	n/a	n/a
2960.918	n/a	REC_WORD	1480459	wordpools/wasnorm_wordpool_less_exclusions.txt	LTP275	ltpFR	8	9	1	CHAUFFEUR	283	n/a	n/a	1	n/a	0	0	0	n/a	n/a	n/a	n/a	n/a
2962.498	n/a	REC_WORD	1481249	wordpools/wasnorm_wordpool_less_exclusions.txt	LTP275	ltpFR	8	9	0	POLITICIAN	1099	n/a	n/a	1	n/a	0	0	0	n/a	n/a	n/a	n/a	n/a
2971.252	n/a	REC_WORD	1485626	wordpools/wasnorm_wordpool_less_exclusions.txt	LTP275	ltpFR	8	9	n/a	FOREST	593	n/a	n/a	n/a	n/a	0	0	0	n/a	n/a	n/a	n/a	n/a
3031.464	n/a	WORD	1515732	wordpools/wasnorm_wordpool_less_exclusions.txt	LTP275	ltpFR	8	10	0	BEAN	105	n/a	n/a	0	n/a	0	0	0	0.57763671875	0.412841796875	1	upper	amplitud.ttf
3035.592	n/a	WORD	1517796	wordpools/wasnorm_wordpool_less_exclusions.txt	LTP275	ltpFR	8	10	0	DIRECTOR	471	n/a	n/a	1	n/a	0	0	0	0.57763671875	0.412841796875	1	upper	amplitud.ttf
3039.52	n/a	WORD	1519760	wordpools/wasnorm_wordpool_less_exclusions.txt	LTP275	ltpFR	8	10	0	CRITIC	410	n/a	n/a	1	n/a	0	0	0	0.57763671875	0.412841796875	1	upper	amplitud.ttf
3043.68	n/a	WORD	1521840	wordpools/wasnorm_wordpool_less_exclusions.txt	LTP275	ltpFR	8	10	1	GUITAR	670	n/a	n/a	0	n/a	0	0	0	0.422607421875	0.5869140625	0	lower	zerothre.ttf
3047.574	n/a	WORD	1523787	wordpools/wasnorm_wordpool_less_exclusions.txt	LTP275	ltpFR	8	10	1	COURSE	390	n/a	n/a	0	n/a	0	0	0	0.422607421875	0.5869140625	0	lower	zerothre.ttf
3051.418	n/a	WORD	1525709	wordpools/wasnorm_wordpool_less_exclusions.txt	LTP275	ltpFR	8	10	1	KEEPER	769	n/a	n/a	1	n/a	0	0	0	0.422607421875	0.5869140625	0	lower	zerothre.ttf
3055.346	n/a	WORD	1527673	wordpools/wasnorm_wordpool_less_exclusions.txt	LTP275	ltpFR	8	10	0	BAIT	70	n/a	n/a	0	n/a	0	0	0	0.57763671875	0.412841796875	1	upper	amplitud.ttf
