mstime	trial_type	stim_file	subject	experiment	session	trial	task	item_name	item_num	recog_resp	recog_conf	resp	color_r	color_g	color_b	case	font
0	SESS_START	n/a	LTP200	ltpFR	19	n/a	n/a	n/a	n/a	0	4	n/a	n/a	n/a	n/a	n/a	n/a
45870	WORD	wordpools/wasnorm_wordpool_less_exclusions.txt	LTP200	ltpFR	19	1	1	POOL	1103	1	n/a	0	0.57763671875	0.412841796875	1	lower	amplitud.ttf
50047	WORD	wordpools/wasnorm_wordpool_less_exclusions.txt	LTP200	ltpFR	19	1	1	BOUQUET	157	n/a	n/a	1	0.57763671875	0.412841796875	1	lower	amplitud.ttf
54207	WORD	wordpools/wasnorm_wordpool_less_exclusions.txt	LTP200	ltpFR	19	1	0	SPRINKLE	1359	n/a	n/a	0	0.422607421875	0.5869140625	0	upper	zerothre.ttf
58335	WORD	wordpools/wasnorm_wordpool_less_exclusions.txt	LTP200	ltpFR	19	1	0	MULE	931	n/a	n/a	1	0.422607421875	0.5869140625	0	upper	zerothre.ttf
62428	WORD	wordpools/wasnorm_wordpool_less_exclusions.txt	LTP200	ltpFR	19	1	0	STEAM	1375	n/a	n/a	0	0.422607421875	0.5869140625	0	upper	zerothre.ttf
66589	WORD	wordpools/wasnorm_wordpool_less_exclusions.txt	LTP200	ltpFR	19	1	1	LAGOON	795	n/a	n/a	0	0.57763671875	0.412841796875	1	lower	amplitud.ttf
70566	WORD	wordpools/wasnorm_wordpool_less_exclusions.txt	LTP200	ltpFR	19	1	1	COWBOY	395	n/a	n/a	1	0.57763671875	0.412841796875	1	lower	amplitud.ttf
74693	WORD	wordpools/wasnorm_wordpool_less_exclusions.txt	LTP200	ltpFR	19	1	1	ROUGE	1213	n/a	n/a	0	0.57763671875	0.412841796875	1	lower	amplitud.ttf
78854	WORD	wordpools/wasnorm_wordpool_less_exclusions.txt	LTP200	ltpFR	19	1	1	THUMB	1462	n/a	n/a	0	0.57763671875	0.412841796875	1	lower	amplitud.ttf
82748	WORD	wordpools/wasnorm_wordpool_less_exclusions.txt	LTP200	ltpFR	19	1	1	FRIAR	605	n/a	n/a	1	0.57763671875	0.412841796875	1	lower	amplitud.ttf
86792	WORD	wordpools/wasnorm_wordpool_less_exclusions.txt	LTP200	ltpFR	19	1	1	PREACHER	1119	n/a	n/a	1	0.57763671875	0.412841796875	1	lower	amplitud.ttf
90819	WORD	wordpools/wasnorm_wordpool_less_exclusions.txt	LTP200	ltpFR	19	1	0	OLIVE	975	n/a	n/a	0	0.422607421875	0.5869140625	0	upper	zerothre.ttf
94847	WORD	wordpools/wasnorm_wordpool_less_exclusions.txt	LTP200	ltpFR	19	1	0	MEADOW	881	n/a	n/a	1	0.422607421875	0.5869140625	0	upper	zerothre.ttf
98841	WORD	wordpools/wasnorm_wordpool_less_exclusions.txt	LTP200	ltpFR	19	1	0	LAPEL	800	n/a	n/a	0	0.422607421875	0.5869140625	0	upper	zerothre.ttf
102951	WORD	wordpools/wasnorm_wordpool_less_exclusions.txt	LTP200	ltpFR	19	1	0	NAVIGATOR	938	n/a	n/a	1	0.422607421875	0.5869140625	0	upper	zerothre.ttf
106862	WORD	wordpools/wasnorm_wordpool_less_exclusions.txt	LTP200	ltpFR	19	1	0	PADDLE	1000	n/a	n/a	1	0.422607421875	0.5869140625	0	upper	zerothre.ttf
112704	REC_START	n/a	LTP200	ltpFR	19	1	n/a	n/a	n/a	n/a	n/a	n/a	n/a	n/a	n/a	n/a	n/a
114235	REC_WORD	wordpools/wasnorm_wordpool_less_exclusions.txt	LTP200	ltpFR	19	1	n/a	COW	393	n/a	n/a	n/a	n/a	n/a	n/a	n/a	n/a
114969	REC_WORD	wordpools/wasnorm_wordpool_less_exclusions.txt	LTP200	ltpFR	19	1	0	PADDLE	1000	n/a	n/a	1	n/a	n/a	n/a	n/a	n/a
115747	REC_WORD	wordpools/wasnorm_wordpool_less_exclusions.txt	LTP200	ltpFR	19	1	0	NAVIGATOR	938	n/a	n/a	1	n/a	n/a	n/a	n/a	n/a
116780	REC_WORD	wordpools/wasnorm_wordpool_less_exclusions.txt	LTP200	ltpFR	19	1	1	LAGOON	795	n/a	n/a	0	n/a	n/a	n/a	n/a	n/a
117667	REC_WORD	wordpools/wasnorm_wordpool_less_exclusions.txt	LTP200	ltpFR	19	1	0	STEAM	1375	n/a	n/a	0	n/a	n/a	n/a	n/a	n/a
118610	REC_WORD	wordpools/wasnorm_wordpool_less_exclusions.txt	LTP200	ltpFR	19	1	0	SPRINKLE	1359	n/a	n/a	0	n/a	n/a	n/a	n/a	n/a
119763	REC_WORD	wordpools/wasnorm_wordpool_less_exclusions.txt	LTP200	ltpFR	19	1	0	OLIVE	975	n/a	n/a	0	n/a	n/a	n/a	n/a	n/a
121115	REC_WORD	wordpools/wasnorm_wordpool_less_exclusions.txt	LTP200	ltpFR	19	1	1	BOUQUET	157	n/a	n/a	1	n/a	n/a	n/a	n/a	n/a
122117	REC_WORD	wordpools/wasnorm_wordpool_less_exclusions.txt	LTP200	ltpFR	19	1	0	MULE	931	n/a	n/a	1	n/a	n/a	n/a	n/a	n/a
123070	REC_WORD_VV	wordpools/wasnorm_wordpool_less_exclusions.txt	LTP200	ltpFR	19	1	n/a	<>	-1	n/a	n/a	n/a	n/a	n/a	n/a	n/a	n/a
123784	REC_WORD	wordpools/wasnorm_wordpool_less_exclusions.txt	LTP200	ltpFR	19	1	1	POOL	1103	n/a	n/a	0	n/a	n/a	n/a	n/a	n/a
131581	REC_WORD	wordpools/wasnorm_wordpool_less_exclusions.txt	LTP200	ltpFR	19	1	1	FRIAR	605	n/a	n/a	1	n/a	n/a	n/a	n/a	n/a
132624	REC_WORD	wordpools/wasnorm_wordpool_less_exclusions.txt	LTP200	ltpFR	19	1	n/a	PRIEST	1122	n/a	n/a	n/a	n/a	n/a	n/a	n/a	n/a
133511	REC_WORD	wordpools/wasnorm_wordpool_less_exclusions.txt	LTP200	ltpFR	19	1	0	LAPEL	800	n/a	n/a	0	n/a	n/a	n/a	n/a	n/a
146352	REC_WORD	wordpools/wasnorm_wordpool_less_exclusions.txt	LTP200	ltpFR	19	1	1	BOUQUET	157	n/a	n/a	1	n/a	n/a	n/a	n/a	n/a
214967	WORD	wordpools/wasnorm_wordpool_less_exclusions.txt	LTP200	ltpFR	19	2	0	ZEBRA	1635	n/a	n/a	1	0.422607421875	0.5869140625	0	upper	zerothre.ttf
219094	WORD	wordpools/wasnorm_wordpool_less_exclusions.txt	LTP200	ltpFR	19	2	0	RACCOON	1153	n/a	n/a	1	0.422607421875	0.5869140625	0	upper	zerothre.ttf
223122	WORD	wordpools/wasnorm_wordpool_less_exclusions.txt	LTP200	ltpFR	19	2	0	ISLAND	745	n/a	n/a	1	0.422607421875	0.5869140625	0	upper	zerothre.ttf
226966	WORD	wordpools/wasnorm_wordpool_less_exclusions.txt	LTP200	ltpFR	19	2	0	BULLY	196	n/a	n/a	1	0.422607421875	0.5869140625	0	upper	zerothre.ttf
230927	WORD	wordpools/wasnorm_wordpool_less_exclusions.txt	LTP200	ltpFR	19	2	0	MERMAID	887	n/a	n/a	1	0.422607421875	0.5869140625	0	upper	zerothre.ttf
234921	WORD	wordpools/wasnorm_wordpool_less_exclusions.txt	LTP200	ltpFR	19	2	0	PRINTER	1126	n/a	n/a	1	0.422607421875	0.5869140625	0	upper	zerothre.ttf
239098	WORD	wordpools/wasnorm_wordpool_less_exclusions.txt	LTP200	ltpFR	19	2	1	JOURNAL	760	n/a	n/a	0	0.57763671875	0.412841796875	1	lower	amplitud.ttf
243059	WORD	wordpools/wasnorm_wordpool_less_exclusions.txt	LTP200	ltpFR	19	2	1	DIME	466	n/a	n/a	0	0.57763671875	0.412841796875	1	lower	amplitud.ttf
247053	WORD	wordpools/wasnorm_wordpool_less_exclusions.txt	LTP200	ltpFR	19	2	1	REEF	1177	n/a	n/a	0	0.57763671875	0.412841796875	1	lower	amplitud.ttf
251230	WORD	wordpools/wasnorm_wordpool_less_exclusions.txt	LTP200	ltpFR	19	2	1	SPIT	1354	n/a	n/a	0	0.57763671875	0.412841796875	1	lower	amplitud.ttf
255091	WORD	wordpools/wasnorm_wordpool_less_exclusions.txt	LTP200	ltpFR	19	2	1	STATUE	1374	n/a	n/a	0	0.57763671875	0.412841796875	1	lower	amplitud.ttf
259218	WORD	wordpools/wasnorm_wordpool_less_exclusions.txt	LTP200	ltpFR	19	2	1	MONEY	908	n/a	n/a	0	0.57763671875	0.412841796875	1	lower	amplitud.ttf
263079	WORD	wordpools/wasnorm_wordpool_less_exclusions.txt	LTP200	ltpFR	19	2	0	CORPORATION	382	n/a	n/a	1	0.422607421875	0.5869140625	0	upper	zerothre.ttf
267139	WORD	wordpools/wasnorm_wordpool_less_exclusions.txt	LTP200	ltpFR	19	2	0	TWIG	1527	n/a	n/a	0	0.422607421875	0.5869140625	0	upper	zerothre.ttf
271183	WORD	wordpools/wasnorm_wordpool_less_exclusions.txt	LTP200	ltpFR	19	2	1	BUSH	202	n/a	n/a	0	0.57763671875	0.412841796875	1	lower	amplitud.ttf
275177	WORD	wordpools/wasnorm_wordpool_less_exclusions.txt	LTP200	ltpFR	19	2	1	PUMP	1141	n/a	n/a	0	0.57763671875	0.412841796875	1	lower	amplitud.ttf
280986	REC_START	n/a	LTP200	ltpFR	19	2	n/a	n/a	n/a	n/a	n/a	n/a	n/a	n/a	n/a	n/a	n/a
281689	REC_WORD	wordpools/wasnorm_wordpool_less_exclusions.txt	LTP200	ltpFR	19	2	1	PUMP	1141	n/a	n/a	0	n/a	n/a	n/a	n/a	n/a
282358	REC_WORD	wordpools/wasnorm_wordpool_less_exclusions.txt	LTP200	ltpFR	19	2	0	TWIG	1527	n/a	n/a	0	n/a	n/a	n/a	n/a	n/a
283226	REC_WORD	wordpools/wasnorm_wordpool_less_exclusions.txt	LTP200	ltpFR	19	2	1	BUSH	202	n/a	n/a	0	n/a	n/a	n/a	n/a	n/a
283984	REC_WORD	wordpools/wasnorm_wordpool_less_exclusions.txt	LTP200	ltpFR	19	2	0	ISLAND	745	n/a	n/a	1	n/a	n/a	n/a	n/a	n/a
284812	REC_WORD	wordpools/wasnorm_wordpool_less_exclusions.txt	LTP200	ltpFR	19	2	0	ZEBRA	1635	n/a	n/a	1	n/a	n/a	n/a	n/a	n/a
285655	REC_WORD	wordpools/wasnorm_wordpool_less_exclusions.txt	LTP200	ltpFR	19	2	0	RACCOON	1153	n/a	n/a	1	n/a	n/a	n/a	n/a	n/a
286872	REC_WORD	wordpools/wasnorm_wordpool_less_exclusions.txt	LTP200	ltpFR	19	2	0	BULLY	196	n/a	n/a	1	n/a	n/a	n/a	n/a	n/a
287830	REC_WORD	wordpools/wasnorm_wordpool_less_exclusions.txt	LTP200	ltpFR	19	2	0	MERMAID	887	n/a	n/a	1	n/a	n/a	n/a	n/a	n/a
288718	REC_WORD	wordpools/wasnorm_wordpool_less_exclusions.txt	LTP200	ltpFR	19	2	1	STATUE	1374	n/a	n/a	0	n/a	n/a	n/a	n/a	n/a
291232	REC_WORD	wordpools/wasnorm_wordpool_less_exclusions.txt	LTP200	ltpFR	19	2	0	TWIG	1527	n/a	n/a	0	n/a	n/a	n/a	n/a	n/a
299110	REC_WORD	wordpools/wasnorm_wordpool_less_exclusions.txt	LTP200	ltpFR	19	2	0	OLIVE	975	n/a	n/a	0	n/a	n/a	n/a	n/a	n/a
308228	REC_WORD	wordpools/wasnorm_wordpool_less_exclusions.txt	LTP200	ltpFR	19	2	1	SPIT	1354	n/a	n/a	0	n/a	n/a	n/a	n/a	n/a
309171	REC_WORD	wordpools/wasnorm_wordpool_less_exclusions.txt	LTP200	ltpFR	19	2	1	DIME	466	n/a	n/a	0	n/a	n/a	n/a	n/a	n/a
310174	REC_WORD	wordpools/wasnorm_wordpool_less_exclusions.txt	LTP200	ltpFR	19	2	1	MONEY	908	n/a	n/a	0	n/a	n/a	n/a	n/a	n/a
311172	REC_WORD	wordpools/wasnorm_wordpool_less_exclusions.txt	LTP200	ltpFR	19	2	0	PRINTER	1126	n/a	n/a	1	n/a	n/a	n/a	n/a	n/a
312250	REC_WORD	wordpools/wasnorm_wordpool_less_exclusions.txt	LTP200	ltpFR	19	2	1	JOURNAL	760	n/a	n/a	0	n/a	n/a	n/a	n/a	n/a
330543	REC_WORD	wordpools/wasnorm_wordpool_less_exclusions.txt	LTP200	ltpFR	19	2	1	THUMB	1462	n/a	n/a	0	n/a	n/a	n/a	n/a	n/a
344506	REC_WORD	wordpools/wasnorm_wordpool_less_exclusions.txt	LTP200	ltpFR	19	2	1	REEF	1177	n/a	n/a	0	n/a	n/a	n/a	n/a	n/a
352169	REC_WORD	wordpools/wasnorm_wordpool_less_exclusions.txt	LTP200	ltpFR	19	2	1	PUMP	1141	n/a	n/a	0	n/a	n/a	n/a	n/a	n/a
375411	WORD	wordpools/wasnorm_wordpool_less_exclusions.txt	LTP200	ltpFR	19	3	1	PERSON	1052	n/a	n/a	1	0.57763671875	0.412841796875	1	lower	amplitud.ttf
379288	WORD	wordpools/wasnorm_wordpool_less_exclusions.txt	LTP200	ltpFR	19	3	1	VILLAGE	1566	n/a	n/a	0	0.57763671875	0.412841796875	1	lower	amplitud.ttf
383133	WORD	wordpools/wasnorm_wordpool_less_exclusions.txt	LTP200	ltpFR	19	3	1	DILL	465	n/a	n/a	0	0.57763671875	0.412841796875	1	lower	amplitud.ttf
387043	WORD	wordpools/wasnorm_wordpool_less_exclusions.txt	LTP200	ltpFR	19	3	1	CHEF	290	n/a	n/a	1	0.57763671875	0.412841796875	1	lower	amplitud.ttf
391104	WORD	wordpools/wasnorm_wordpool_less_exclusions.txt	LTP200	ltpFR	19	3	1	COMMITTEE	355	n/a	n/a	1	0.57763671875	0.412841796875	1	lower	amplitud.ttf
395065	WORD	wordpools/wasnorm_wordpool_less_exclusions.txt	LTP200	ltpFR	19	3	1	PEOPLE	1046	n/a	n/a	1	0.57763671875	0.412841796875	1	lower	amplitud.ttf
399175	WORD	wordpools/wasnorm_wordpool_less_exclusions.txt	LTP200	ltpFR	19	3	1	DETECTIVE	454	n/a	n/a	1	0.57763671875	0.412841796875	1	lower	amplitud.ttf
403303	WORD	wordpools/wasnorm_wordpool_less_exclusions.txt	LTP200	ltpFR	19	3	1	SOCK	1339	n/a	n/a	0	0.57763671875	0.412841796875	1	lower	amplitud.ttf
407380	WORD	wordpools/wasnorm_wordpool_less_exclusions.txt	LTP200	ltpFR	19	3	1	POLITICIAN	1099	n/a	n/a	1	0.57763671875	0.412841796875	1	lower	amplitud.ttf
411474	WORD	wordpools/wasnorm_wordpool_less_exclusions.txt	LTP200	ltpFR	19	3	1	SEAGULL	1261	n/a	n/a	1	0.57763671875	0.412841796875	1	lower	amplitud.ttf
415401	WORD	wordpools/wasnorm_wordpool_less_exclusions.txt	LTP200	ltpFR	19	3	1	TOE	1473	n/a	n/a	0	0.57763671875	0.412841796875	1	lower	amplitud.ttf
419295	WORD	wordpools/wasnorm_wordpool_less_exclusions.txt	LTP200	ltpFR	19	3	1	PICNIC	1060	n/a	n/a	0	0.57763671875	0.412841796875	1	lower	amplitud.ttf
423189	WORD	wordpools/wasnorm_wordpool_less_exclusions.txt	LTP200	ltpFR	19	3	1	MALL	860	n/a	n/a	0	0.57763671875	0.412841796875	1	lower	amplitud.ttf
427017	WORD	wordpools/wasnorm_wordpool_less_exclusions.txt	LTP200	ltpFR	19	3	1	SKILLET	1317	n/a	n/a	0	0.57763671875	0.412841796875	1	lower	amplitud.ttf
431128	WORD	wordpools/wasnorm_wordpool_less_exclusions.txt	LTP200	ltpFR	19	3	1	TIDE	1465	n/a	n/a	0	0.57763671875	0.412841796875	1	lower	amplitud.ttf
435138	WORD	wordpools/wasnorm_wordpool_less_exclusions.txt	LTP200	ltpFR	19	3	1	WAVE	1596	n/a	n/a	0	0.57763671875	0.412841796875	1	lower	amplitud.ttf
440797	REC_START	n/a	LTP200	ltpFR	19	3	n/a	n/a	n/a	n/a	n/a	n/a	n/a	n/a	n/a	n/a	n/a
441694	REC_WORD	wordpools/wasnorm_wordpool_less_exclusions.txt	LTP200	ltpFR	19	3	1	SEAGULL	1261	n/a	n/a	1	n/a	n/a	n/a	n/a	n/a
442552	REC_WORD	wordpools/wasnorm_wordpool_less_exclusions.txt	LTP200	ltpFR	19	3	1	SKILLET	1317	n/a	n/a	0	n/a	n/a	n/a	n/a	n/a
443580	REC_WORD	wordpools/wasnorm_wordpool_less_exclusions.txt	LTP200	ltpFR	19	3	1	TIDE	1465	n/a	n/a	0	n/a	n/a	n/a	n/a	n/a
444538	REC_WORD	wordpools/wasnorm_wordpool_less_exclusions.txt	LTP200	ltpFR	19	3	1	WAVE	1596	n/a	n/a	0	n/a	n/a	n/a	n/a	n/a
445431	REC_WORD	wordpools/wasnorm_wordpool_less_exclusions.txt	LTP200	ltpFR	19	3	1	COMMITTEE	355	n/a	n/a	1	n/a	n/a	n/a	n/a	n/a
446309	REC_WORD	wordpools/wasnorm_wordpool_less_exclusions.txt	LTP200	ltpFR	19	3	1	DETECTIVE	454	n/a	n/a	1	n/a	n/a	n/a	n/a	n/a
448095	REC_WORD	wordpools/wasnorm_wordpool_less_exclusions.txt	LTP200	ltpFR	19	3	1	PERSON	1052	n/a	n/a	1	n/a	n/a	n/a	n/a	n/a
448948	REC_WORD	wordpools/wasnorm_wordpool_less_exclusions.txt	LTP200	ltpFR	19	3	1	PEOPLE	1046	n/a	n/a	1	n/a	n/a	n/a	n/a	n/a
449816	REC_WORD	wordpools/wasnorm_wordpool_less_exclusions.txt	LTP200	ltpFR	19	3	1	CHEF	290	n/a	n/a	1	n/a	n/a	n/a	n/a	n/a
450914	REC_WORD	wordpools/wasnorm_wordpool_less_exclusions.txt	LTP200	ltpFR	19	3	1	DILL	465	n/a	n/a	0	n/a	n/a	n/a	n/a	n/a
452001	REC_WORD	wordpools/wasnorm_wordpool_less_exclusions.txt	LTP200	ltpFR	19	3	1	VILLAGE	1566	n/a	n/a	0	n/a	n/a	n/a	n/a	n/a
453034	REC_WORD	wordpools/wasnorm_wordpool_less_exclusions.txt	LTP200	ltpFR	19	3	1	SOCK	1339	n/a	n/a	0	n/a	n/a	n/a	n/a	n/a
458302	REC_WORD	wordpools/wasnorm_wordpool_less_exclusions.txt	LTP200	ltpFR	19	3	0	PRINTER	1126	n/a	n/a	1	n/a	n/a	n/a	n/a	n/a
495797	REC_WORD	wordpools/wasnorm_wordpool_less_exclusions.txt	LTP200	ltpFR	19	3	1	COMMITTEE	355	n/a	n/a	1	n/a	n/a	n/a	n/a	n/a
543460	WORD	wordpools/wasnorm_wordpool_less_exclusions.txt	LTP200	ltpFR	19	4	0	FEATHER	557	n/a	n/a	0	0.422607421875	0.5869140625	0	upper	zerothre.ttf
547536	WORD	wordpools/wasnorm_wordpool_less_exclusions.txt	LTP200	ltpFR	19	4	0	BEAVER	109	n/a	n/a	0	0.422607421875	0.5869140625	0	upper	zerothre.ttf
551448	WORD	wordpools/wasnorm_wordpool_less_exclusions.txt	LTP200	ltpFR	19	4	1	GENERAL	630	n/a	n/a	1	0.57763671875	0.412841796875	1	lower	amplitud.ttf
555342	WORD	wordpools/wasnorm_wordpool_less_exclusions.txt	LTP200	ltpFR	19	4	1	MAJOR	859	n/a	n/a	1	0.57763671875	0.412841796875	1	lower	amplitud.ttf
559236	WORD	wordpools/wasnorm_wordpool_less_exclusions.txt	LTP200	ltpFR	19	4	1	LILY	821	n/a	n/a	1	0.57763671875	0.412841796875	1	lower	amplitud.ttf
563413	WORD	wordpools/wasnorm_wordpool_less_exclusions.txt	LTP200	ltpFR	19	4	1	EAGLE	512	n/a	n/a	1	0.57763671875	0.412841796875	1	lower	amplitud.ttf
567374	WORD	wordpools/wasnorm_wordpool_less_exclusions.txt	LTP200	ltpFR	19	4	1	NEST	945	n/a	n/a	0	0.57763671875	0.412841796875	1	lower	amplitud.ttf
571451	WORD	wordpools/wasnorm_wordpool_less_exclusions.txt	LTP200	ltpFR	19	4	1	CLARINET	317	n/a	n/a	0	0.57763671875	0.412841796875	1	lower	amplitud.ttf
575329	WORD	wordpools/wasnorm_wordpool_less_exclusions.txt	LTP200	ltpFR	19	4	0	PLAYGROUND	1087	n/a	n/a	1	0.422607421875	0.5869140625	0	upper	zerothre.ttf
579423	WORD	wordpools/wasnorm_wordpool_less_exclusions.txt	LTP200	ltpFR	19	4	0	BISON	131	n/a	n/a	1	0.422607421875	0.5869140625	0	upper	zerothre.ttf
583583	WORD	wordpools/wasnorm_wordpool_less_exclusions.txt	LTP200	ltpFR	19	4	0	COB	334	n/a	n/a	0	0.422607421875	0.5869140625	0	upper	zerothre.ttf
587661	WORD	wordpools/wasnorm_wordpool_less_exclusions.txt	LTP200	ltpFR	19	4	0	BASKET	95	n/a	n/a	0	0.422607421875	0.5869140625	0	upper	zerothre.ttf
591505	WORD	wordpools/wasnorm_wordpool_less_exclusions.txt	LTP200	ltpFR	19	4	0	FIDDLE	561	n/a	n/a	1	0.422607421875	0.5869140625	0	upper	zerothre.ttf
595632	WORD	wordpools/wasnorm_wordpool_less_exclusions.txt	LTP200	ltpFR	19	4	0	MONGOOSE	909	n/a	n/a	0	0.422607421875	0.5869140625	0	upper	zerothre.ttf
599842	WORD	wordpools/wasnorm_wordpool_less_exclusions.txt	LTP200	ltpFR	19	4	1	WOMAN	1620	n/a	n/a	1	0.57763671875	0.412841796875	1	lower	amplitud.ttf
603853	WORD	wordpools/wasnorm_wordpool_less_exclusions.txt	LTP200	ltpFR	19	4	1	CHEST	295	n/a	n/a	0	0.57763671875	0.412841796875	1	lower	amplitud.ttf
609795	REC_START	n/a	LTP200	ltpFR	19	4	n/a	n/a	n/a	n/a	n/a	n/a	n/a	n/a	n/a	n/a	n/a
610528	REC_WORD	wordpools/wasnorm_wordpool_less_exclusions.txt	LTP200	ltpFR	19	4	1	WOMAN	1620	n/a	n/a	1	n/a	n/a	n/a	n/a	n/a
611281	REC_WORD	wordpools/wasnorm_wordpool_less_exclusions.txt	LTP200	ltpFR	19	4	1	CHEST	295	n/a	n/a	0	n/a	n/a	n/a	n/a	n/a
612144	REC_WORD	wordpools/wasnorm_wordpool_less_exclusions.txt	LTP200	ltpFR	19	4	0	BISON	131	n/a	n/a	1	n/a	n/a	n/a	n/a	n/a
612983	REC_WORD	wordpools/wasnorm_wordpool_less_exclusions.txt	LTP200	ltpFR	19	4	0	BEAVER	109	n/a	n/a	0	n/a	n/a	n/a	n/a	n/a
613885	REC_WORD	wordpools/wasnorm_wordpool_less_exclusions.txt	LTP200	ltpFR	19	4	1	GENERAL	630	n/a	n/a	1	n/a	n/a	n/a	n/a	n/a
614853	REC_WORD	wordpools/wasnorm_wordpool_less_exclusions.txt	LTP200	ltpFR	19	4	1	MAJOR	859	n/a	n/a	1	n/a	n/a	n/a	n/a	n/a
616120	REC_WORD	wordpools/wasnorm_wordpool_less_exclusions.txt	LTP200	ltpFR	19	4	0	FEATHER	557	n/a	n/a	0	n/a	n/a	n/a	n/a	n/a
617163	REC_WORD	wordpools/wasnorm_wordpool_less_exclusions.txt	LTP200	ltpFR	19	4	1	EAGLE	512	n/a	n/a	1	n/a	n/a	n/a	n/a	n/a
618156	REC_WORD	wordpools/wasnorm_wordpool_less_exclusions.txt	LTP200	ltpFR	19	4	1	NEST	945	n/a	n/a	0	n/a	n/a	n/a	n/a	n/a
621463	REC_WORD	wordpools/wasnorm_wordpool_less_exclusions.txt	LTP200	ltpFR	19	4	1	LILY	821	n/a	n/a	1	n/a	n/a	n/a	n/a	n/a
630717	REC_WORD	wordpools/wasnorm_wordpool_less_exclusions.txt	LTP200	ltpFR	19	4	1	LAGOON	795	n/a	n/a	0	n/a	n/a	n/a	n/a	n/a
653934	REC_WORD	wordpools/wasnorm_wordpool_less_exclusions.txt	LTP200	ltpFR	19	4	0	COB	334	n/a	n/a	0	n/a	n/a	n/a	n/a	n/a
657930	REC_WORD	wordpools/wasnorm_wordpool_less_exclusions.txt	LTP200	ltpFR	19	4	0	FIDDLE	561	n/a	n/a	1	n/a	n/a	n/a	n/a	n/a
660959	REC_WORD	wordpools/wasnorm_wordpool_less_exclusions.txt	LTP200	ltpFR	19	4	0	MONGOOSE	909	n/a	n/a	0	n/a	n/a	n/a	n/a	n/a
707049	WORD	wordpools/wasnorm_wordpool_less_exclusions.txt	LTP200	ltpFR	19	5	0	POSSUM	1112	n/a	n/a	0	0.422607421875	0.5869140625	0	upper	zerothre.ttf
711059	WORD	wordpools/wasnorm_wordpool_less_exclusions.txt	LTP200	ltpFR	19	5	0	PIER	1063	n/a	n/a	1	0.422607421875	0.5869140625	0	upper	zerothre.ttf
715237	WORD	wordpools/wasnorm_wordpool_less_exclusions.txt	LTP200	ltpFR	19	5	1	ROOMMATE	1207	n/a	n/a	1	0.57763671875	0.412841796875	1	lower	amplitud.ttf
719364	WORD	wordpools/wasnorm_wordpool_less_exclusions.txt	LTP200	ltpFR	19	5	1	CHERRY	293	n/a	n/a	0	0.57763671875	0.412841796875	1	lower	amplitud.ttf
723524	WORD	wordpools/wasnorm_wordpool_less_exclusions.txt	LTP200	ltpFR	19	5	1	BOWL	158	n/a	n/a	0	0.57763671875	0.412841796875	1	lower	amplitud.ttf
727635	WORD	wordpools/wasnorm_wordpool_less_exclusions.txt	LTP200	ltpFR	19	5	1	OTTER	986	n/a	n/a	1	0.57763671875	0.412841796875	1	lower	amplitud.ttf
731612	WORD	wordpools/wasnorm_wordpool_less_exclusions.txt	LTP200	ltpFR	19	5	1	MICROWAVE	892	n/a	n/a	0	0.57763671875	0.412841796875	1	lower	amplitud.ttf
735590	WORD	wordpools/wasnorm_wordpool_less_exclusions.txt	LTP200	ltpFR	19	5	1	SHRINE	1298	n/a	n/a	0	0.57763671875	0.412841796875	1	lower	amplitud.ttf
739500	WORD	wordpools/wasnorm_wordpool_less_exclusions.txt	LTP200	ltpFR	19	5	0	PRIEST	1122	n/a	n/a	1	0.422607421875	0.5869140625	0	upper	zerothre.ttf
743378	WORD	wordpools/wasnorm_wordpool_less_exclusions.txt	LTP200	ltpFR	19	5	0	WASHER	1592	n/a	n/a	1	0.422607421875	0.5869140625	0	upper	zerothre.ttf
747572	WORD	wordpools/wasnorm_wordpool_less_exclusions.txt	LTP200	ltpFR	19	5	1	SPONGE	1355	n/a	n/a	0	0.57763671875	0.412841796875	1	lower	amplitud.ttf
751732	WORD	wordpools/wasnorm_wordpool_less_exclusions.txt	LTP200	ltpFR	19	5	1	TANGERINE	1431	n/a	n/a	0	0.57763671875	0.412841796875	1	lower	amplitud.ttf
755593	WORD	wordpools/wasnorm_wordpool_less_exclusions.txt	LTP200	ltpFR	19	5	0	ICEBERG	731	n/a	n/a	1	0.422607421875	0.5869140625	0	upper	zerothre.ttf
759587	WORD	wordpools/wasnorm_wordpool_less_exclusions.txt	LTP200	ltpFR	19	5	0	DAISY	435	n/a	n/a	0	0.422607421875	0.5869140625	0	upper	zerothre.ttf
763614	WORD	wordpools/wasnorm_wordpool_less_exclusions.txt	LTP200	ltpFR	19	5	0	ORCHID	982	n/a	n/a	0	0.422607421875	0.5869140625	0	upper	zerothre.ttf
767808	WORD	wordpools/wasnorm_wordpool_less_exclusions.txt	LTP200	ltpFR	19	5	0	SAILOR	1223	n/a	n/a	1	0.422607421875	0.5869140625	0	upper	zerothre.ttf
773850	REC_START	n/a	LTP200	ltpFR	19	5	n/a	n/a	n/a	n/a	n/a	n/a	n/a	n/a	n/a	n/a	n/a
774448	REC_WORD	wordpools/wasnorm_wordpool_less_exclusions.txt	LTP200	ltpFR	19	5	0	SAILOR	1223	n/a	n/a	1	n/a	n/a	n/a	n/a	n/a
775356	REC_WORD	wordpools/wasnorm_wordpool_less_exclusions.txt	LTP200	ltpFR	19	5	0	ORCHID	982	n/a	n/a	0	n/a	n/a	n/a	n/a	n/a
776214	REC_WORD	wordpools/wasnorm_wordpool_less_exclusions.txt	LTP200	ltpFR	19	5	0	DAISY	435	n/a	n/a	0	n/a	n/a	n/a	n/a	n/a
780495	REC_WORD	wordpools/wasnorm_wordpool_less_exclusions.txt	LTP200	ltpFR	19	5	0	BEAVER	109	n/a	n/a	0	n/a	n/a	n/a	n/a	n/a
803433	REC_WORD	wordpools/wasnorm_wordpool_less_exclusions.txt	LTP200	ltpFR	19	5	0	PIER	1063	n/a	n/a	1	n/a	n/a	n/a	n/a	n/a
804176	REC_WORD	wordpools/wasnorm_wordpool_less_exclusions.txt	LTP200	ltpFR	19	5	1	OTTER	986	n/a	n/a	1	n/a	n/a	n/a	n/a	n/a
805762	REC_WORD	wordpools/wasnorm_wordpool_less_exclusions.txt	LTP200	ltpFR	19	5	1	ROOMMATE	1207	n/a	n/a	1	n/a	n/a	n/a	n/a	n/a
806690	REC_WORD	wordpools/wasnorm_wordpool_less_exclusions.txt	LTP200	ltpFR	19	5	0	POSSUM	1112	n/a	n/a	0	n/a	n/a	n/a	n/a	n/a
813654	REC_WORD	wordpools/wasnorm_wordpool_less_exclusions.txt	LTP200	ltpFR	19	5	1	BOWL	158	n/a	n/a	0	n/a	n/a	n/a	n/a	n/a
814323	REC_WORD	wordpools/wasnorm_wordpool_less_exclusions.txt	LTP200	ltpFR	19	5	1	CHERRY	293	n/a	n/a	0	n/a	n/a	n/a	n/a	n/a
815116	REC_WORD	wordpools/wasnorm_wordpool_less_exclusions.txt	LTP200	ltpFR	19	5	1	TANGERINE	1431	n/a	n/a	0	n/a	n/a	n/a	n/a	n/a
816184	REC_WORD	wordpools/wasnorm_wordpool_less_exclusions.txt	LTP200	ltpFR	19	5	1	MICROWAVE	892	n/a	n/a	0	n/a	n/a	n/a	n/a	n/a
817849	REC_WORD	wordpools/wasnorm_wordpool_less_exclusions.txt	LTP200	ltpFR	19	5	1	SPONGE	1355	n/a	n/a	0	n/a	n/a	n/a	n/a	n/a
830137	REC_WORD	wordpools/wasnorm_wordpool_less_exclusions.txt	LTP200	ltpFR	19	5	1	EAGLE	512	n/a	n/a	1	n/a	n/a	n/a	n/a	n/a
872984	WORD	wordpools/wasnorm_wordpool_less_exclusions.txt	LTP200	ltpFR	19	6	0	GRILL	661	n/a	n/a	1	0.422607421875	0.5869140625	0	upper	zerothre.ttf
877128	WORD	wordpools/wasnorm_wordpool_less_exclusions.txt	LTP200	ltpFR	19	6	0	MOUNTAIN	924	n/a	n/a	1	0.422607421875	0.5869140625	0	upper	zerothre.ttf
881072	WORD	wordpools/wasnorm_wordpool_less_exclusions.txt	LTP200	ltpFR	19	6	0	LIST	830	n/a	n/a	0	0.422607421875	0.5869140625	0	upper	zerothre.ttf
884916	WORD	wordpools/wasnorm_wordpool_less_exclusions.txt	LTP200	ltpFR	19	6	0	ROAD	1196	n/a	n/a	1	0.422607421875	0.5869140625	0	upper	zerothre.ttf
889044	WORD	wordpools/wasnorm_wordpool_less_exclusions.txt	LTP200	ltpFR	19	6	0	HINGE	709	n/a	n/a	0	0.422607421875	0.5869140625	0	upper	zerothre.ttf
893104	WORD	wordpools/wasnorm_wordpool_less_exclusions.txt	LTP200	ltpFR	19	6	0	KEY	773	n/a	n/a	0	0.422607421875	0.5869140625	0	upper	zerothre.ttf
897015	WORD	wordpools/wasnorm_wordpool_less_exclusions.txt	LTP200	ltpFR	19	6	0	ROOST	1208	n/a	n/a	0	0.422607421875	0.5869140625	0	upper	zerothre.ttf
900942	WORD	wordpools/wasnorm_wordpool_less_exclusions.txt	LTP200	ltpFR	19	6	0	SCARECROW	1245	n/a	n/a	1	0.422607421875	0.5869140625	0	upper	zerothre.ttf
904853	WORD	wordpools/wasnorm_wordpool_less_exclusions.txt	LTP200	ltpFR	19	6	0	UNIVERSE	1540	n/a	n/a	1	0.422607421875	0.5869140625	0	upper	zerothre.ttf
908814	WORD	wordpools/wasnorm_wordpool_less_exclusions.txt	LTP200	ltpFR	19	6	0	HELMET	702	n/a	n/a	0	0.422607421875	0.5869140625	0	upper	zerothre.ttf
912941	WORD	wordpools/wasnorm_wordpool_less_exclusions.txt	LTP200	ltpFR	19	6	0	CUSTARD	429	n/a	n/a	0	0.422607421875	0.5869140625	0	upper	zerothre.ttf
917035	WORD	wordpools/wasnorm_wordpool_less_exclusions.txt	LTP200	ltpFR	19	6	0	REPORT	1184	n/a	n/a	0	0.422607421875	0.5869140625	0	upper	zerothre.ttf
921245	WORD	wordpools/wasnorm_wordpool_less_exclusions.txt	LTP200	ltpFR	19	6	0	CURB	426	n/a	n/a	0	0.422607421875	0.5869140625	0	upper	zerothre.ttf
925273	WORD	wordpools/wasnorm_wordpool_less_exclusions.txt	LTP200	ltpFR	19	6	0	ANTEATER	26	n/a	n/a	1	0.422607421875	0.5869140625	0	upper	zerothre.ttf
929134	WORD	wordpools/wasnorm_wordpool_less_exclusions.txt	LTP200	ltpFR	19	6	0	BRAN	167	n/a	n/a	0	0.422607421875	0.5869140625	0	upper	zerothre.ttf
933078	WORD	wordpools/wasnorm_wordpool_less_exclusions.txt	LTP200	ltpFR	19	6	0	RAISIN	1163	n/a	n/a	0	0.422607421875	0.5869140625	0	upper	zerothre.ttf
938903	REC_START	n/a	LTP200	ltpFR	19	6	n/a	n/a	n/a	n/a	n/a	n/a	n/a	n/a	n/a	n/a	n/a
939766	REC_WORD	wordpools/wasnorm_wordpool_less_exclusions.txt	LTP200	ltpFR	19	6	0	BRAN	167	n/a	n/a	0	n/a	n/a	n/a	n/a	n/a
940459	REC_WORD	wordpools/wasnorm_wordpool_less_exclusions.txt	LTP200	ltpFR	19	6	0	RAISIN	1163	n/a	n/a	0	n/a	n/a	n/a	n/a	n/a
941397	REC_WORD	wordpools/wasnorm_wordpool_less_exclusions.txt	LTP200	ltpFR	19	6	0	GRILL	661	n/a	n/a	1	n/a	n/a	n/a	n/a	n/a
942210	REC_WORD	wordpools/wasnorm_wordpool_less_exclusions.txt	LTP200	ltpFR	19	6	0	LIST	830	n/a	n/a	0	n/a	n/a	n/a	n/a	n/a
943108	REC_WORD	wordpools/wasnorm_wordpool_less_exclusions.txt	LTP200	ltpFR	19	6	0	MOUNTAIN	924	n/a	n/a	1	n/a	n/a	n/a	n/a	n/a
945503	REC_WORD	wordpools/wasnorm_wordpool_less_exclusions.txt	LTP200	ltpFR	19	6	0	ROAD	1196	n/a	n/a	1	n/a	n/a	n/a	n/a	n/a
946495	REC_WORD	wordpools/wasnorm_wordpool_less_exclusions.txt	LTP200	ltpFR	19	6	0	SCARECROW	1245	n/a	n/a	1	n/a	n/a	n/a	n/a	n/a
948631	REC_WORD	wordpools/wasnorm_wordpool_less_exclusions.txt	LTP200	ltpFR	19	6	0	KEY	773	n/a	n/a	0	n/a	n/a	n/a	n/a	n/a
949274	REC_WORD	wordpools/wasnorm_wordpool_less_exclusions.txt	LTP200	ltpFR	19	6	0	HINGE	709	n/a	n/a	0	n/a	n/a	n/a	n/a	n/a
949937	REC_WORD	wordpools/wasnorm_wordpool_less_exclusions.txt	LTP200	ltpFR	19	6	0	REPORT	1184	n/a	n/a	0	n/a	n/a	n/a	n/a	n/a
976812	REC_WORD	wordpools/wasnorm_wordpool_less_exclusions.txt	LTP200	ltpFR	19	6	0	COB	334	n/a	n/a	0	n/a	n/a	n/a	n/a	n/a
1035891	WORD	wordpools/wasnorm_wordpool_less_exclusions.txt	LTP200	ltpFR	19	7	-1	CAP	236	n/a	n/a	-1	1.0	1.0	1	upper	Verdana.ttf
1039852	WORD	wordpools/wasnorm_wordpool_less_exclusions.txt	LTP200	ltpFR	19	7	-1	HOOD	714	n/a	n/a	-1	1.0	1.0	1	upper	Verdana.ttf
1044029	WORD	wordpools/wasnorm_wordpool_less_exclusions.txt	LTP200	ltpFR	19	7	-1	BISCUIT	130	n/a	n/a	-1	1.0	1.0	1	upper	Verdana.ttf
1048239	WORD	wordpools/wasnorm_wordpool_less_exclusions.txt	LTP200	ltpFR	19	7	-1	STOCKING	1383	n/a	n/a	-1	1.0	1.0	1	upper	Verdana.ttf
1052450	WORD	wordpools/wasnorm_wordpool_less_exclusions.txt	LTP200	ltpFR	19	7	-1	EDITOR	516	n/a	n/a	-1	1.0	1.0	1	upper	Verdana.ttf
1056593	WORD	wordpools/wasnorm_wordpool_less_exclusions.txt	LTP200	ltpFR	19	7	-1	LOBBY	836	n/a	n/a	-1	1.0	1.0	1	upper	Verdana.ttf
1060804	WORD	wordpools/wasnorm_wordpool_less_exclusions.txt	LTP200	ltpFR	19	7	-1	CRITIC	410	n/a	n/a	-1	1.0	1.0	1	upper	Verdana.ttf
1064748	WORD	wordpools/wasnorm_wordpool_less_exclusions.txt	LTP200	ltpFR	19	7	-1	WALRUS	1585	n/a	n/a	-1	1.0	1.0	1	upper	Verdana.ttf
1068592	WORD	wordpools/wasnorm_wordpool_less_exclusions.txt	LTP200	ltpFR	19	7	-1	CRUMB	416	n/a	n/a	-1	1.0	1.0	1	upper	Verdana.ttf
1072553	WORD	wordpools/wasnorm_wordpool_less_exclusions.txt	LTP200	ltpFR	19	7	-1	TREAD	1499	n/a	n/a	-1	1.0	1.0	1	upper	Verdana.ttf
1076763	WORD	wordpools/wasnorm_wordpool_less_exclusions.txt	LTP200	ltpFR	19	7	-1	FLESH	579	n/a	n/a	-1	1.0	1.0	1	upper	Verdana.ttf
1080940	WORD	wordpools/wasnorm_wordpool_less_exclusions.txt	LTP200	ltpFR	19	7	-1	BOY	161	n/a	n/a	-1	1.0	1.0	1	upper	Verdana.ttf
1085101	WORD	wordpools/wasnorm_wordpool_less_exclusions.txt	LTP200	ltpFR	19	7	-1	GIRL	637	n/a	n/a	-1	1.0	1.0	1	upper	Verdana.ttf
1089011	WORD	wordpools/wasnorm_wordpool_less_exclusions.txt	LTP200	ltpFR	19	7	-1	CAGE	218	n/a	n/a	-1	1.0	1.0	1	upper	Verdana.ttf
1092956	WORD	wordpools/wasnorm_wordpool_less_exclusions.txt	LTP200	ltpFR	19	7	-1	DIVER	476	n/a	n/a	-1	1.0	1.0	1	upper	Verdana.ttf
1096900	WORD	wordpools/wasnorm_wordpool_less_exclusions.txt	LTP200	ltpFR	19	7	-1	OCTOPUS	971	n/a	n/a	-1	1.0	1.0	1	upper	Verdana.ttf
1102792	REC_START	n/a	LTP200	ltpFR	19	7	n/a	n/a	n/a	n/a	n/a	n/a	n/a	n/a	n/a	n/a	n/a
1103550	REC_WORD	wordpools/wasnorm_wordpool_less_exclusions.txt	LTP200	ltpFR	19	7	-1	DIVER	476	n/a	n/a	-1	n/a	n/a	n/a	n/a	n/a
1104283	REC_WORD	wordpools/wasnorm_wordpool_less_exclusions.txt	LTP200	ltpFR	19	7	-1	OCTOPUS	971	n/a	n/a	-1	n/a	n/a	n/a	n/a	n/a
1105321	REC_WORD	wordpools/wasnorm_wordpool_less_exclusions.txt	LTP200	ltpFR	19	7	-1	CAP	236	n/a	n/a	-1	n/a	n/a	n/a	n/a	n/a
1106104	REC_WORD	wordpools/wasnorm_wordpool_less_exclusions.txt	LTP200	ltpFR	19	7	-1	HOOD	714	n/a	n/a	-1	n/a	n/a	n/a	n/a	n/a
1107122	REC_WORD	wordpools/wasnorm_wordpool_less_exclusions.txt	LTP200	ltpFR	19	7	-1	BISCUIT	130	n/a	n/a	-1	n/a	n/a	n/a	n/a	n/a
1107995	REC_WORD	wordpools/wasnorm_wordpool_less_exclusions.txt	LTP200	ltpFR	19	7	-1	STOCKING	1383	n/a	n/a	-1	n/a	n/a	n/a	n/a	n/a
1129107	REC_WORD	wordpools/wasnorm_wordpool_less_exclusions.txt	LTP200	ltpFR	19	7	-1	LOBBY	836	n/a	n/a	-1	n/a	n/a	n/a	n/a	n/a
1210047	WORD	wordpools/wasnorm_wordpool_less_exclusions.txt	LTP200	ltpFR	19	8	0	TONGUE	1479	n/a	n/a	0	0.422607421875	0.5869140625	0	upper	zerothre.ttf
1214258	WORD	wordpools/wasnorm_wordpool_less_exclusions.txt	LTP200	ltpFR	19	8	0	ICE	730	n/a	n/a	0	0.422607421875	0.5869140625	0	upper	zerothre.ttf
1218218	WORD	wordpools/wasnorm_wordpool_less_exclusions.txt	LTP200	ltpFR	19	8	0	NET	946	n/a	n/a	0	0.422607421875	0.5869140625	0	upper	zerothre.ttf
1222046	WORD	wordpools/wasnorm_wordpool_less_exclusions.txt	LTP200	ltpFR	19	8	0	SEAFOOD	1260	n/a	n/a	0	0.422607421875	0.5869140625	0	upper	zerothre.ttf
1225957	WORD	wordpools/wasnorm_wordpool_less_exclusions.txt	LTP200	ltpFR	19	8	0	DIAL	457	n/a	n/a	0	0.422607421875	0.5869140625	0	upper	zerothre.ttf
1229835	WORD	wordpools/wasnorm_wordpool_less_exclusions.txt	LTP200	ltpFR	19	8	0	MESSAGE	888	n/a	n/a	0	0.422607421875	0.5869140625	0	upper	zerothre.ttf
1233912	WORD	wordpools/wasnorm_wordpool_less_exclusions.txt	LTP200	ltpFR	19	8	0	POLICE	1098	n/a	n/a	1	0.422607421875	0.5869140625	0	upper	zerothre.ttf
1237922	WORD	wordpools/wasnorm_wordpool_less_exclusions.txt	LTP200	ltpFR	19	8	0	ARCHITECT	36	n/a	n/a	1	0.422607421875	0.5869140625	0	upper	zerothre.ttf
1241833	WORD	wordpools/wasnorm_wordpool_less_exclusions.txt	LTP200	ltpFR	19	8	0	TERRITORY	1452	n/a	n/a	1	0.422607421875	0.5869140625	0	upper	zerothre.ttf
1245694	WORD	wordpools/wasnorm_wordpool_less_exclusions.txt	LTP200	ltpFR	19	8	0	IGLOO	734	n/a	n/a	1	0.422607421875	0.5869140625	0	upper	zerothre.ttf
1249588	WORD	wordpools/wasnorm_wordpool_less_exclusions.txt	LTP200	ltpFR	19	8	0	ASSOCIATE	49	n/a	n/a	1	0.422607421875	0.5869140625	0	upper	zerothre.ttf
1253616	WORD	wordpools/wasnorm_wordpool_less_exclusions.txt	LTP200	ltpFR	19	8	0	CONSOLE	364	n/a	n/a	1	0.422607421875	0.5869140625	0	upper	zerothre.ttf
1257477	WORD	wordpools/wasnorm_wordpool_less_exclusions.txt	LTP200	ltpFR	19	8	0	MUG	930	n/a	n/a	0	0.422607421875	0.5869140625	0	upper	zerothre.ttf
1261587	WORD	wordpools/wasnorm_wordpool_less_exclusions.txt	LTP200	ltpFR	19	8	0	DOUGHNUT	490	n/a	n/a	0	0.422607421875	0.5869140625	0	upper	zerothre.ttf
1265564	WORD	wordpools/wasnorm_wordpool_less_exclusions.txt	LTP200	ltpFR	19	8	0	APRON	35	n/a	n/a	0	0.422607421875	0.5869140625	0	upper	zerothre.ttf
1269575	WORD	wordpools/wasnorm_wordpool_less_exclusions.txt	LTP200	ltpFR	19	8	0	COOLER	375	n/a	n/a	n/a	0.422607421875	0.5869140625	0	upper	zerothre.ttf
1272604	SLOW_MSG	n/a	LTP200	ltpFR	19	8	n/a	n/a	n/a	n/a	n/a	n/a	n/a	n/a	n/a	n/a	n/a
1276932	REC_START	n/a	LTP200	ltpFR	19	8	n/a	n/a	n/a	n/a	n/a	n/a	n/a	n/a	n/a	n/a	n/a
1278967	REC_WORD	wordpools/wasnorm_wordpool_less_exclusions.txt	LTP200	ltpFR	19	8	0	COOLER	375	n/a	n/a	n/a	n/a	n/a	n/a	n/a	n/a
1279840	REC_WORD	wordpools/wasnorm_wordpool_less_exclusions.txt	LTP200	ltpFR	19	8	0	IGLOO	734	n/a	n/a	1	n/a	n/a	n/a	n/a	n/a
1280683	REC_WORD	wordpools/wasnorm_wordpool_less_exclusions.txt	LTP200	ltpFR	19	8	0	ICE	730	n/a	n/a	0	n/a	n/a	n/a	n/a	n/a
1281526	REC_WORD	wordpools/wasnorm_wordpool_less_exclusions.txt	LTP200	ltpFR	19	8	0	TONGUE	1479	n/a	n/a	0	n/a	n/a	n/a	n/a	n/a
1282524	REC_WORD	wordpools/wasnorm_wordpool_less_exclusions.txt	LTP200	ltpFR	19	8	0	NET	946	n/a	n/a	0	n/a	n/a	n/a	n/a	n/a
1283467	REC_WORD	wordpools/wasnorm_wordpool_less_exclusions.txt	LTP200	ltpFR	19	8	0	SEAFOOD	1260	n/a	n/a	0	n/a	n/a	n/a	n/a	n/a
1291484	REC_WORD	wordpools/wasnorm_wordpool_less_exclusions.txt	LTP200	ltpFR	19	8	0	DIAL	457	n/a	n/a	0	n/a	n/a	n/a	n/a	n/a
1292362	REC_WORD	wordpools/wasnorm_wordpool_less_exclusions.txt	LTP200	ltpFR	19	8	0	MESSAGE	888	n/a	n/a	0	n/a	n/a	n/a	n/a	n/a
1293349	REC_WORD	wordpools/wasnorm_wordpool_less_exclusions.txt	LTP200	ltpFR	19	8	0	POLICE	1098	n/a	n/a	1	n/a	n/a	n/a	n/a	n/a
1294652	REC_WORD	wordpools/wasnorm_wordpool_less_exclusions.txt	LTP200	ltpFR	19	8	0	CONSOLE	364	n/a	n/a	1	n/a	n/a	n/a	n/a	n/a
1317879	REC_WORD	wordpools/wasnorm_wordpool_less_exclusions.txt	LTP200	ltpFR	19	8	0	ARCHITECT	36	n/a	n/a	1	n/a	n/a	n/a	n/a	n/a
1374086	WORD	wordpools/wasnorm_wordpool_less_exclusions.txt	LTP200	ltpFR	19	9	-1	CHEERLEADER	288	n/a	n/a	-1	1.0	1.0	1	upper	Verdana.ttf
1378146	WORD	wordpools/wasnorm_wordpool_less_exclusions.txt	LTP200	ltpFR	19	9	-1	SAXOPHONE	1240	n/a	n/a	-1	1.0	1.0	1	upper	Verdana.ttf
1382157	WORD	wordpools/wasnorm_wordpool_less_exclusions.txt	LTP200	ltpFR	19	9	-1	PARIS	1014	n/a	n/a	-1	1.0	1.0	1	upper	Verdana.ttf
1386084	WORD	wordpools/wasnorm_wordpool_less_exclusions.txt	LTP200	ltpFR	19	9	-1	LONDON	843	n/a	n/a	-1	1.0	1.0	1	upper	Verdana.ttf
1390295	WORD	wordpools/wasnorm_wordpool_less_exclusions.txt	LTP200	ltpFR	19	9	-1	REGISTER	1180	n/a	n/a	-1	1.0	1.0	1	upper	Verdana.ttf
1394206	WORD	wordpools/wasnorm_wordpool_less_exclusions.txt	LTP200	ltpFR	19	9	-1	STOOL	1386	n/a	n/a	-1	1.0	1.0	1	upper	Verdana.ttf
1398233	WORD	wordpools/wasnorm_wordpool_less_exclusions.txt	LTP200	ltpFR	19	9	-1	TOILET	1475	n/a	n/a	-1	1.0	1.0	1	upper	Verdana.ttf
1402410	WORD	wordpools/wasnorm_wordpool_less_exclusions.txt	LTP200	ltpFR	19	9	-1	LIZARD	834	n/a	n/a	-1	1.0	1.0	1	upper	Verdana.ttf
1406521	WORD	wordpools/wasnorm_wordpool_less_exclusions.txt	LTP200	ltpFR	19	9	-1	PAPER	1011	n/a	n/a	-1	1.0	1.0	1	upper	Verdana.ttf
1410348	WORD	wordpools/wasnorm_wordpool_less_exclusions.txt	LTP200	ltpFR	19	9	-1	OFFICER	973	n/a	n/a	-1	1.0	1.0	1	upper	Verdana.ttf
1414359	WORD	wordpools/wasnorm_wordpool_less_exclusions.txt	LTP200	ltpFR	19	9	-1	WALLET	1583	n/a	n/a	-1	1.0	1.0	1	upper	Verdana.ttf
1418486	WORD	wordpools/wasnorm_wordpool_less_exclusions.txt	LTP200	ltpFR	19	9	-1	SERPENT	1270	n/a	n/a	-1	1.0	1.0	1	upper	Verdana.ttf
1422530	WORD	wordpools/wasnorm_wordpool_less_exclusions.txt	LTP200	ltpFR	19	9	-1	OAR	966	n/a	n/a	-1	1.0	1.0	1	upper	Verdana.ttf
1426391	WORD	wordpools/wasnorm_wordpool_less_exclusions.txt	LTP200	ltpFR	19	9	-1	SUBMARINE	1398	n/a	n/a	-1	1.0	1.0	1	upper	Verdana.ttf
1430618	WORD	wordpools/wasnorm_wordpool_less_exclusions.txt	LTP200	ltpFR	19	9	-1	EDITORIAL	517	n/a	n/a	-1	1.0	1.0	1	upper	Verdana.ttf
1434695	WORD	wordpools/wasnorm_wordpool_less_exclusions.txt	LTP200	ltpFR	19	9	-1	NEPHEW	942	n/a	n/a	-1	1.0	1.0	1	upper	Verdana.ttf
1440687	REC_START	n/a	LTP200	ltpFR	19	9	n/a	n/a	n/a	n/a	n/a	n/a	n/a	n/a	n/a	n/a	n/a
1441096	REC_WORD	wordpools/wasnorm_wordpool_less_exclusions.txt	LTP200	ltpFR	19	9	-1	EDITORIAL	517	n/a	n/a	-1	n/a	n/a	n/a	n/a	n/a
1442124	REC_WORD	wordpools/wasnorm_wordpool_less_exclusions.txt	LTP200	ltpFR	19	9	-1	NEPHEW	942	n/a	n/a	-1	n/a	n/a	n/a	n/a	n/a
1442987	REC_WORD	wordpools/wasnorm_wordpool_less_exclusions.txt	LTP200	ltpFR	19	9	-1	CHEERLEADER	288	n/a	n/a	-1	n/a	n/a	n/a	n/a	n/a
1444618	REC_WORD	wordpools/wasnorm_wordpool_less_exclusions.txt	LTP200	ltpFR	19	9	-1	SAXOPHONE	1240	n/a	n/a	-1	n/a	n/a	n/a	n/a	n/a
1445655	REC_WORD	wordpools/wasnorm_wordpool_less_exclusions.txt	LTP200	ltpFR	19	9	-1	STOOL	1386	n/a	n/a	-1	n/a	n/a	n/a	n/a	n/a
1446898	REC_WORD	wordpools/wasnorm_wordpool_less_exclusions.txt	LTP200	ltpFR	19	9	-1	PARIS	1014	n/a	n/a	-1	n/a	n/a	n/a	n/a	n/a
1447905	REC_WORD	wordpools/wasnorm_wordpool_less_exclusions.txt	LTP200	ltpFR	19	9	-1	LONDON	843	n/a	n/a	-1	n/a	n/a	n/a	n/a	n/a
1449173	REC_WORD	wordpools/wasnorm_wordpool_less_exclusions.txt	LTP200	ltpFR	19	9	-1	TOILET	1475	n/a	n/a	-1	n/a	n/a	n/a	n/a	n/a
1450155	REC_WORD	wordpools/wasnorm_wordpool_less_exclusions.txt	LTP200	ltpFR	19	9	-1	LIZARD	834	n/a	n/a	-1	n/a	n/a	n/a	n/a	n/a
1458626	REC_WORD	wordpools/wasnorm_wordpool_less_exclusions.txt	LTP200	ltpFR	19	9	-1	OAR	966	n/a	n/a	-1	n/a	n/a	n/a	n/a	n/a
1485535	REC_WORD	wordpools/wasnorm_wordpool_less_exclusions.txt	LTP200	ltpFR	19	9	-1	WALLET	1583	n/a	n/a	-1	n/a	n/a	n/a	n/a	n/a
1486298	REC_WORD	wordpools/wasnorm_wordpool_less_exclusions.txt	LTP200	ltpFR	19	9	-1	OFFICER	973	n/a	n/a	-1	n/a	n/a	n/a	n/a	n/a
1545163	WORD	wordpools/wasnorm_wordpool_less_exclusions.txt	LTP200	ltpFR	19	10	-1	MARINE	869	n/a	n/a	-1	1.0	1.0	1	upper	Verdana.ttf
1549157	WORD	wordpools/wasnorm_wordpool_less_exclusions.txt	LTP200	ltpFR	19	10	-1	EXPLOSION	544	n/a	n/a	-1	1.0	1.0	1	upper	Verdana.ttf
1553318	WORD	wordpools/wasnorm_wordpool_less_exclusions.txt	LTP200	ltpFR	19	10	-1	SWAN	1417	n/a	n/a	-1	1.0	1.0	1	upper	Verdana.ttf
1557195	WORD	wordpools/wasnorm_wordpool_less_exclusions.txt	LTP200	ltpFR	19	10	-1	DAM	436	n/a	n/a	-1	1.0	1.0	1	upper	Verdana.ttf
1561306	WORD	wordpools/wasnorm_wordpool_less_exclusions.txt	LTP200	ltpFR	19	10	-1	BOARD	143	n/a	n/a	-1	1.0	1.0	1	upper	Verdana.ttf
1565184	WORD	wordpools/wasnorm_wordpool_less_exclusions.txt	LTP200	ltpFR	19	10	-1	DINER	467	n/a	n/a	-1	1.0	1.0	1	upper	Verdana.ttf
1569261	WORD	wordpools/wasnorm_wordpool_less_exclusions.txt	LTP200	ltpFR	19	10	-1	SILVERWARE	1308	n/a	n/a	-1	1.0	1.0	1	upper	Verdana.ttf
1573471	WORD	wordpools/wasnorm_wordpool_less_exclusions.txt	LTP200	ltpFR	19	10	-1	BRIDGE	174	n/a	n/a	-1	1.0	1.0	1	upper	Verdana.ttf
1577465	WORD	wordpools/wasnorm_wordpool_less_exclusions.txt	LTP200	ltpFR	19	10	-1	MAGNET	855	n/a	n/a	-1	1.0	1.0	1	upper	Verdana.ttf
1581509	WORD	wordpools/wasnorm_wordpool_less_exclusions.txt	LTP200	ltpFR	19	10	-1	SACK	1220	n/a	n/a	-1	1.0	1.0	1	upper	Verdana.ttf
1585553	WORD	wordpools/wasnorm_wordpool_less_exclusions.txt	LTP200	ltpFR	19	10	-1	DOCK	477	n/a	n/a	-1	1.0	1.0	1	upper	Verdana.ttf
1589680	WORD	wordpools/wasnorm_wordpool_less_exclusions.txt	LTP200	ltpFR	19	10	-1	TURKEY	1520	n/a	n/a	-1	1.0	1.0	1	upper	Verdana.ttf
1593608	WORD	wordpools/wasnorm_wordpool_less_exclusions.txt	LTP200	ltpFR	19	10	-1	TWISTER	1530	n/a	n/a	-1	1.0	1.0	1	upper	Verdana.ttf
1597768	WORD	wordpools/wasnorm_wordpool_less_exclusions.txt	LTP200	ltpFR	19	10	-1	TORNADO	1485	n/a	n/a	-1	1.0	1.0	1	upper	Verdana.ttf
1601712	WORD	wordpools/wasnorm_wordpool_less_exclusions.txt	LTP200	ltpFR	19	10	-1	CONTRACT	368	n/a	n/a	-1	1.0	1.0	1	upper	Verdana.ttf
1605756	WORD	wordpools/wasnorm_wordpool_less_exclusions.txt	LTP200	ltpFR	19	10	-1	NOTEBOOK	959	n/a	n/a	-1	1.0	1.0	1	upper	Verdana.ttf
1611815	REC_START	n/a	LTP200	ltpFR	19	10	n/a	n/a	n/a	n/a	n/a	n/a	n/a	n/a	n/a	n/a	n/a
1612423	REC_WORD	wordpools/wasnorm_wordpool_less_exclusions.txt	LTP200	ltpFR	19	10	-1	CONTRACT	368	n/a	n/a	-1	n/a	n/a	n/a	n/a	n/a
1613331	REC_WORD	wordpools/wasnorm_wordpool_less_exclusions.txt	LTP200	ltpFR	19	10	-1	NOTEBOOK	959	n/a	n/a	-1	n/a	n/a	n/a	n/a	n/a
1614010	REC_WORD	wordpools/wasnorm_wordpool_less_exclusions.txt	LTP200	ltpFR	19	10	-1	MARINE	869	n/a	n/a	-1	n/a	n/a	n/a	n/a	n/a
1614738	REC_WORD	wordpools/wasnorm_wordpool_less_exclusions.txt	LTP200	ltpFR	19	10	-1	EXPLOSION	544	n/a	n/a	-1	n/a	n/a	n/a	n/a	n/a
1615980	REC_WORD	wordpools/wasnorm_wordpool_less_exclusions.txt	LTP200	ltpFR	19	10	-1	DAM	436	n/a	n/a	-1	n/a	n/a	n/a	n/a	n/a
1616654	REC_WORD	wordpools/wasnorm_wordpool_less_exclusions.txt	LTP200	ltpFR	19	10	-1	SWAN	1417	n/a	n/a	-1	n/a	n/a	n/a	n/a	n/a
1619812	REC_WORD	wordpools/wasnorm_wordpool_less_exclusions.txt	LTP200	ltpFR	19	10	-1	BRIDGE	174	n/a	n/a	-1	n/a	n/a	n/a	n/a	n/a
1620645	REC_WORD	wordpools/wasnorm_wordpool_less_exclusions.txt	LTP200	ltpFR	19	10	-1	MAGNET	855	n/a	n/a	-1	n/a	n/a	n/a	n/a	n/a
1623813	REC_WORD	wordpools/wasnorm_wordpool_less_exclusions.txt	LTP200	ltpFR	19	10	-1	DOCK	477	n/a	n/a	-1	n/a	n/a	n/a	n/a	n/a
1642191	REC_WORD	wordpools/wasnorm_wordpool_less_exclusions.txt	LTP200	ltpFR	19	10	-1	DINER	467	n/a	n/a	-1	n/a	n/a	n/a	n/a	n/a
1642769	REC_WORD	wordpools/wasnorm_wordpool_less_exclusions.txt	LTP200	ltpFR	19	10	-1	SILVERWARE	1308	n/a	n/a	-1	n/a	n/a	n/a	n/a	n/a
1711448	WORD	wordpools/wasnorm_wordpool_less_exclusions.txt	LTP200	ltpFR	19	11	0	MARBLE	867	n/a	n/a	0	0.422607421875	0.5869140625	0	upper	zerothre.ttf
1715526	WORD	wordpools/wasnorm_wordpool_less_exclusions.txt	LTP200	ltpFR	19	11	0	ANIMAL	23	n/a	n/a	0	0.422607421875	0.5869140625	0	upper	zerothre.ttf
1719686	WORD	wordpools/wasnorm_wordpool_less_exclusions.txt	LTP200	ltpFR	19	11	0	CLAW	319	n/a	n/a	0	0.422607421875	0.5869140625	0	upper	zerothre.ttf
1723797	WORD	wordpools/wasnorm_wordpool_less_exclusions.txt	LTP200	ltpFR	19	11	0	NEWSSTAND	949	n/a	n/a	1	0.422607421875	0.5869140625	0	upper	zerothre.ttf
1727791	WORD	wordpools/wasnorm_wordpool_less_exclusions.txt	LTP200	ltpFR	19	11	0	STRANGER	1389	n/a	n/a	1	0.422607421875	0.5869140625	0	upper	zerothre.ttf
1731968	WORD	wordpools/wasnorm_wordpool_less_exclusions.txt	LTP200	ltpFR	19	11	0	LAWN	805	n/a	n/a	1	0.422607421875	0.5869140625	0	upper	zerothre.ttf
1735912	WORD	wordpools/wasnorm_wordpool_less_exclusions.txt	LTP200	ltpFR	19	11	0	COOKIE	374	n/a	n/a	0	0.422607421875	0.5869140625	0	upper	zerothre.ttf
1739856	WORD	wordpools/wasnorm_wordpool_less_exclusions.txt	LTP200	ltpFR	19	11	0	STAPLER	1372	n/a	n/a	0	0.422607421875	0.5869140625	0	upper	zerothre.ttf
1744050	WORD	wordpools/wasnorm_wordpool_less_exclusions.txt	LTP200	ltpFR	19	11	0	CEREAL	272	n/a	n/a	0	0.422607421875	0.5869140625	0	upper	zerothre.ttf
1748077	WORD	wordpools/wasnorm_wordpool_less_exclusions.txt	LTP200	ltpFR	19	11	0	SHORTCAKE	1292	n/a	n/a	0	0.422607421875	0.5869140625	0	upper	zerothre.ttf
1752038	WORD	wordpools/wasnorm_wordpool_less_exclusions.txt	LTP200	ltpFR	19	11	0	THICKET	1455	n/a	n/a	1	0.422607421875	0.5869140625	0	upper	zerothre.ttf
1756082	WORD	wordpools/wasnorm_wordpool_less_exclusions.txt	LTP200	ltpFR	19	11	0	TOOTHPASTE	1483	n/a	n/a	0	0.422607421875	0.5869140625	0	upper	zerothre.ttf
1760059	WORD	wordpools/wasnorm_wordpool_less_exclusions.txt	LTP200	ltpFR	19	11	0	BROOM	178	n/a	n/a	1	0.422607421875	0.5869140625	0	upper	zerothre.ttf
1764203	WORD	wordpools/wasnorm_wordpool_less_exclusions.txt	LTP200	ltpFR	19	11	0	SALOON	1228	n/a	n/a	1	0.422607421875	0.5869140625	0	upper	zerothre.ttf
1768263	WORD	wordpools/wasnorm_wordpool_less_exclusions.txt	LTP200	ltpFR	19	11	0	LOAF	835	n/a	n/a	0	0.422607421875	0.5869140625	0	upper	zerothre.ttf
1772241	WORD	wordpools/wasnorm_wordpool_less_exclusions.txt	LTP200	ltpFR	19	11	0	TOASTER	1472	n/a	n/a	1	0.422607421875	0.5869140625	0	upper	zerothre.ttf
1778166	REC_START	n/a	LTP200	ltpFR	19	11	n/a	n/a	n/a	n/a	n/a	n/a	n/a	n/a	n/a	n/a	n/a
1778794	REC_WORD	wordpools/wasnorm_wordpool_less_exclusions.txt	LTP200	ltpFR	19	11	0	LOAF	835	n/a	n/a	0	n/a	n/a	n/a	n/a	n/a
1779553	REC_WORD	wordpools/wasnorm_wordpool_less_exclusions.txt	LTP200	ltpFR	19	11	0	TOASTER	1472	n/a	n/a	1	n/a	n/a	n/a	n/a	n/a
1781483	REC_WORD	wordpools/wasnorm_wordpool_less_exclusions.txt	LTP200	ltpFR	19	11	0	MARBLE	867	n/a	n/a	0	n/a	n/a	n/a	n/a	n/a
1782201	REC_WORD	wordpools/wasnorm_wordpool_less_exclusions.txt	LTP200	ltpFR	19	11	0	ANIMAL	23	n/a	n/a	0	n/a	n/a	n/a	n/a	n/a
1783149	REC_WORD	wordpools/wasnorm_wordpool_less_exclusions.txt	LTP200	ltpFR	19	11	0	CLAW	319	n/a	n/a	0	n/a	n/a	n/a	n/a	n/a
1784117	REC_WORD	wordpools/wasnorm_wordpool_less_exclusions.txt	LTP200	ltpFR	19	11	0	COOKIE	374	n/a	n/a	0	n/a	n/a	n/a	n/a	n/a
1786123	REC_WORD	wordpools/wasnorm_wordpool_less_exclusions.txt	LTP200	ltpFR	19	11	0	NEWSSTAND	949	n/a	n/a	1	n/a	n/a	n/a	n/a	n/a
1814773	REC_WORD	wordpools/wasnorm_wordpool_less_exclusions.txt	LTP200	ltpFR	19	11	0	LOAF	835	n/a	n/a	0	n/a	n/a	n/a	n/a	n/a
1815511	REC_WORD	wordpools/wasnorm_wordpool_less_exclusions.txt	LTP200	ltpFR	19	11	0	TOASTER	1472	n/a	n/a	1	n/a	n/a	n/a	n/a	n/a
1835590	REC_WORD	wordpools/wasnorm_wordpool_less_exclusions.txt	LTP200	ltpFR	19	11	0	FEATHER	557	n/a	n/a	0	n/a	n/a	n/a	n/a	n/a
1885056	WORD	wordpools/wasnorm_wordpool_less_exclusions.txt	LTP200	ltpFR	19	12	-1	TAVERN	1437	n/a	n/a	-1	1.0	1.0	1	upper	Verdana.ttf
1889249	WORD	wordpools/wasnorm_wordpool_less_exclusions.txt	LTP200	ltpFR	19	12	-1	VISITOR	1573	n/a	n/a	-1	1.0	1.0	1	upper	Verdana.ttf
1893110	WORD	wordpools/wasnorm_wordpool_less_exclusions.txt	LTP200	ltpFR	19	12	-1	GREASE	660	n/a	n/a	-1	1.0	1.0	1	upper	Verdana.ttf
1897171	WORD	wordpools/wasnorm_wordpool_less_exclusions.txt	LTP200	ltpFR	19	12	-1	GARAGE	621	n/a	n/a	-1	1.0	1.0	1	upper	Verdana.ttf
1901215	WORD	wordpools/wasnorm_wordpool_less_exclusions.txt	LTP200	ltpFR	19	12	-1	SCREWDRIVER	1255	n/a	n/a	-1	1.0	1.0	1	upper	Verdana.ttf
1905076	WORD	wordpools/wasnorm_wordpool_less_exclusions.txt	LTP200	ltpFR	19	12	-1	STEP	1377	n/a	n/a	-1	1.0	1.0	1	upper	Verdana.ttf
1909270	WORD	wordpools/wasnorm_wordpool_less_exclusions.txt	LTP200	ltpFR	19	12	-1	CARPENTER	246	n/a	n/a	-1	1.0	1.0	1	upper	Verdana.ttf
1913197	WORD	wordpools/wasnorm_wordpool_less_exclusions.txt	LTP200	ltpFR	19	12	-1	COYOTE	396	n/a	n/a	-1	1.0	1.0	1	upper	Verdana.ttf
1917108	WORD	wordpools/wasnorm_wordpool_less_exclusions.txt	LTP200	ltpFR	19	12	-1	APARTMENT	30	n/a	n/a	-1	1.0	1.0	1	upper	Verdana.ttf
1920952	WORD	wordpools/wasnorm_wordpool_less_exclusions.txt	LTP200	ltpFR	19	12	-1	SENATE	1267	n/a	n/a	-1	1.0	1.0	1	upper	Verdana.ttf
1925129	WORD	wordpools/wasnorm_wordpool_less_exclusions.txt	LTP200	ltpFR	19	12	-1	MOTOR	922	n/a	n/a	-1	1.0	1.0	1	upper	Verdana.ttf
1929306	WORD	wordpools/wasnorm_wordpool_less_exclusions.txt	LTP200	ltpFR	19	12	-1	DRIVER	499	n/a	n/a	-1	1.0	1.0	1	upper	Verdana.ttf
1933134	WORD	wordpools/wasnorm_wordpool_less_exclusions.txt	LTP200	ltpFR	19	12	-1	GROCERIES	663	n/a	n/a	-1	1.0	1.0	1	upper	Verdana.ttf
1937061	WORD	wordpools/wasnorm_wordpool_less_exclusions.txt	LTP200	ltpFR	19	12	-1	ESCALATOR	539	n/a	n/a	-1	1.0	1.0	1	upper	Verdana.ttf
1941172	WORD	wordpools/wasnorm_wordpool_less_exclusions.txt	LTP200	ltpFR	19	12	-1	BUBBLE	183	n/a	n/a	-1	1.0	1.0	1	upper	Verdana.ttf
1945016	WORD	wordpools/wasnorm_wordpool_less_exclusions.txt	LTP200	ltpFR	19	12	-1	KITCHEN	778	n/a	n/a	-1	1.0	1.0	1	upper	Verdana.ttf
1950842	REC_START	n/a	LTP200	ltpFR	19	12	n/a	n/a	n/a	n/a	n/a	n/a	n/a	n/a	n/a	n/a	n/a
1951760	REC_WORD	wordpools/wasnorm_wordpool_less_exclusions.txt	LTP200	ltpFR	19	12	-1	ESCALATOR	539	n/a	n/a	-1	n/a	n/a	n/a	n/a	n/a
1952503	REC_WORD	wordpools/wasnorm_wordpool_less_exclusions.txt	LTP200	ltpFR	19	12	-1	BUBBLE	183	n/a	n/a	-1	n/a	n/a	n/a	n/a	n/a
1953177	REC_WORD	wordpools/wasnorm_wordpool_less_exclusions.txt	LTP200	ltpFR	19	12	-1	KITCHEN	778	n/a	n/a	-1	n/a	n/a	n/a	n/a	n/a
1954933	REC_WORD	wordpools/wasnorm_wordpool_less_exclusions.txt	LTP200	ltpFR	19	12	-1	TAVERN	1437	n/a	n/a	-1	n/a	n/a	n/a	n/a	n/a
1955810	REC_WORD	wordpools/wasnorm_wordpool_less_exclusions.txt	LTP200	ltpFR	19	12	-1	VISITOR	1573	n/a	n/a	-1	n/a	n/a	n/a	n/a	n/a
1956579	REC_WORD	wordpools/wasnorm_wordpool_less_exclusions.txt	LTP200	ltpFR	19	12	-1	COYOTE	396	n/a	n/a	-1	n/a	n/a	n/a	n/a	n/a
1957527	REC_WORD	wordpools/wasnorm_wordpool_less_exclusions.txt	LTP200	ltpFR	19	12	-1	GARAGE	621	n/a	n/a	-1	n/a	n/a	n/a	n/a	n/a
1958849	REC_WORD	wordpools/wasnorm_wordpool_less_exclusions.txt	LTP200	ltpFR	19	12	-1	GREASE	660	n/a	n/a	-1	n/a	n/a	n/a	n/a	n/a
1959596	REC_WORD	wordpools/wasnorm_wordpool_less_exclusions.txt	LTP200	ltpFR	19	12	-1	STEP	1377	n/a	n/a	-1	n/a	n/a	n/a	n/a	n/a
1960375	REC_WORD	wordpools/wasnorm_wordpool_less_exclusions.txt	LTP200	ltpFR	19	12	-1	SCREWDRIVER	1255	n/a	n/a	-1	n/a	n/a	n/a	n/a	n/a
1961463	REC_WORD	wordpools/wasnorm_wordpool_less_exclusions.txt	LTP200	ltpFR	19	12	-1	CARPENTER	246	n/a	n/a	-1	n/a	n/a	n/a	n/a	n/a
1962231	REC_WORD	wordpools/wasnorm_wordpool_less_exclusions.txt	LTP200	ltpFR	19	12	-1	APARTMENT	30	n/a	n/a	-1	n/a	n/a	n/a	n/a	n/a
1976089	REC_WORD	wordpools/wasnorm_wordpool_less_exclusions.txt	LTP200	ltpFR	19	12	-1	GROCERIES	663	n/a	n/a	-1	n/a	n/a	n/a	n/a	n/a
2013210	REC_WORD	wordpools/wasnorm_wordpool_less_exclusions.txt	LTP200	ltpFR	19	12	-1	COYOTE	396	n/a	n/a	-1	n/a	n/a	n/a	n/a	n/a
2026444	REST_REWET	n/a	LTP200	ltpFR	19	12	n/a	n/a	n/a	n/a	n/a	n/a	n/a	n/a	n/a	n/a	n/a
2291465	WORD	wordpools/wasnorm_wordpool_less_exclusions.txt	LTP200	ltpFR	19	13	1	FREEWAY	603	n/a	n/a	0	0.57763671875	0.412841796875	1	lower	amplitud.ttf
2295676	WORD	wordpools/wasnorm_wordpool_less_exclusions.txt	LTP200	ltpFR	19	13	1	WORM	1623	n/a	n/a	1	0.57763671875	0.412841796875	1	lower	amplitud.ttf
2299803	WORD	wordpools/wasnorm_wordpool_less_exclusions.txt	LTP200	ltpFR	19	13	0	RATTLE	1170	n/a	n/a	0	0.422607421875	0.5869140625	0	upper	zerothre.ttf
2303880	WORD	wordpools/wasnorm_wordpool_less_exclusions.txt	LTP200	ltpFR	19	13	0	DUST	508	n/a	n/a	0	0.422607421875	0.5869140625	0	upper	zerothre.ttf
2307957	WORD	wordpools/wasnorm_wordpool_less_exclusions.txt	LTP200	ltpFR	19	13	0	NICKEL	950	n/a	n/a	0	0.422607421875	0.5869140625	0	upper	zerothre.ttf
2311935	WORD	wordpools/wasnorm_wordpool_less_exclusions.txt	LTP200	ltpFR	19	13	0	IRON	744	n/a	n/a	0	0.422607421875	0.5869140625	0	upper	zerothre.ttf
2315862	WORD	wordpools/wasnorm_wordpool_less_exclusions.txt	LTP200	ltpFR	19	13	1	CAULIFLOWER	262	n/a	n/a	0	0.57763671875	0.412841796875	1	lower	amplitud.ttf
2319906	WORD	wordpools/wasnorm_wordpool_less_exclusions.txt	LTP200	ltpFR	19	13	1	CABBAGE	210	n/a	n/a	0	0.57763671875	0.412841796875	1	lower	amplitud.ttf
2323867	WORD	wordpools/wasnorm_wordpool_less_exclusions.txt	LTP200	ltpFR	19	13	1	FOE	587	n/a	n/a	1	0.57763671875	0.412841796875	1	lower	amplitud.ttf
2327977	WORD	wordpools/wasnorm_wordpool_less_exclusions.txt	LTP200	ltpFR	19	13	0	BROCCOLI	176	n/a	n/a	0	0.422607421875	0.5869140625	0	upper	zerothre.ttf
2331872	WORD	wordpools/wasnorm_wordpool_less_exclusions.txt	LTP200	ltpFR	19	13	0	RUNNER	1218	n/a	n/a	1	0.422607421875	0.5869140625	0	upper	zerothre.ttf
2335932	WORD	wordpools/wasnorm_wordpool_less_exclusions.txt	LTP200	ltpFR	19	13	0	CHAUFFEUR	283	n/a	n/a	1	0.422607421875	0.5869140625	0	upper	zerothre.ttf
2339843	WORD	wordpools/wasnorm_wordpool_less_exclusions.txt	LTP200	ltpFR	19	13	0	BOYFRIEND	162	n/a	n/a	1	0.422607421875	0.5869140625	0	upper	zerothre.ttf
2343820	WORD	wordpools/wasnorm_wordpool_less_exclusions.txt	LTP200	ltpFR	19	13	1	SALAD	1224	n/a	n/a	0	0.57763671875	0.412841796875	1	lower	amplitud.ttf
2347781	WORD	wordpools/wasnorm_wordpool_less_exclusions.txt	LTP200	ltpFR	19	13	1	SCREEN	1253	n/a	n/a	0	0.57763671875	0.412841796875	1	lower	amplitud.ttf
2351642	WORD	wordpools/wasnorm_wordpool_less_exclusions.txt	LTP200	ltpFR	19	13	1	SHRIMP	1297	n/a	n/a	1	0.57763671875	0.412841796875	1	lower	amplitud.ttf
2357717	REC_START	n/a	LTP200	ltpFR	19	13	n/a	n/a	n/a	n/a	n/a	n/a	n/a	n/a	n/a	n/a	n/a
2358480	REC_WORD	wordpools/wasnorm_wordpool_less_exclusions.txt	LTP200	ltpFR	19	13	1	SHRIMP	1297	n/a	n/a	1	n/a	n/a	n/a	n/a	n/a
2359203	REC_WORD	wordpools/wasnorm_wordpool_less_exclusions.txt	LTP200	ltpFR	19	13	1	SCREEN	1253	n/a	n/a	0	n/a	n/a	n/a	n/a	n/a
2360116	REC_WORD	wordpools/wasnorm_wordpool_less_exclusions.txt	LTP200	ltpFR	19	13	1	SALAD	1224	n/a	n/a	0	n/a	n/a	n/a	n/a	n/a
2361044	REC_WORD	wordpools/wasnorm_wordpool_less_exclusions.txt	LTP200	ltpFR	19	13	0	BROCCOLI	176	n/a	n/a	0	n/a	n/a	n/a	n/a	n/a
2361832	REC_WORD	wordpools/wasnorm_wordpool_less_exclusions.txt	LTP200	ltpFR	19	13	1	CAULIFLOWER	262	n/a	n/a	0	n/a	n/a	n/a	n/a	n/a
2362995	REC_WORD	wordpools/wasnorm_wordpool_less_exclusions.txt	LTP200	ltpFR	19	13	1	CABBAGE	210	n/a	n/a	0	n/a	n/a	n/a	n/a	n/a
2363858	REC_WORD	wordpools/wasnorm_wordpool_less_exclusions.txt	LTP200	ltpFR	19	13	0	BOYFRIEND	162	n/a	n/a	1	n/a	n/a	n/a	n/a	n/a
2364506	REC_WORD	wordpools/wasnorm_wordpool_less_exclusions.txt	LTP200	ltpFR	19	13	0	CHAUFFEUR	283	n/a	n/a	1	n/a	n/a	n/a	n/a	n/a
2366008	REC_WORD	wordpools/wasnorm_wordpool_less_exclusions.txt	LTP200	ltpFR	19	13	1	WORM	1623	n/a	n/a	1	n/a	n/a	n/a	n/a	n/a
2366796	REC_WORD	wordpools/wasnorm_wordpool_less_exclusions.txt	LTP200	ltpFR	19	13	0	RATTLE	1170	n/a	n/a	0	n/a	n/a	n/a	n/a	n/a
2367739	REC_WORD	wordpools/wasnorm_wordpool_less_exclusions.txt	LTP200	ltpFR	19	13	0	DUST	508	n/a	n/a	0	n/a	n/a	n/a	n/a	n/a
2368682	REC_WORD	wordpools/wasnorm_wordpool_less_exclusions.txt	LTP200	ltpFR	19	13	0	IRON	744	n/a	n/a	0	n/a	n/a	n/a	n/a	n/a
2369595	REC_WORD	wordpools/wasnorm_wordpool_less_exclusions.txt	LTP200	ltpFR	19	13	0	NICKEL	950	n/a	n/a	0	n/a	n/a	n/a	n/a	n/a
2374678	REC_WORD	wordpools/wasnorm_wordpool_less_exclusions.txt	LTP200	ltpFR	19	13	1	FREEWAY	603	n/a	n/a	0	n/a	n/a	n/a	n/a	n/a
2377612	REC_WORD	wordpools/wasnorm_wordpool_less_exclusions.txt	LTP200	ltpFR	19	13	0	RUNNER	1218	n/a	n/a	1	n/a	n/a	n/a	n/a	n/a
2381807	REC_WORD	wordpools/wasnorm_wordpool_less_exclusions.txt	LTP200	ltpFR	19	13	0	CHAUFFEUR	283	n/a	n/a	1	n/a	n/a	n/a	n/a	n/a
2455370	WORD	wordpools/wasnorm_wordpool_less_exclusions.txt	LTP200	ltpFR	19	14	1	SNEAKER	1334	n/a	n/a	0	0.57763671875	0.412841796875	1	lower	amplitud.ttf
2459547	WORD	wordpools/wasnorm_wordpool_less_exclusions.txt	LTP200	ltpFR	19	14	1	CARAVAN	242	n/a	n/a	0	0.57763671875	0.412841796875	1	lower	amplitud.ttf
2463558	WORD	wordpools/wasnorm_wordpool_less_exclusions.txt	LTP200	ltpFR	19	14	1	TROMBONE	1508	n/a	n/a	0	0.57763671875	0.412841796875	1	lower	amplitud.ttf
2467419	WORD	wordpools/wasnorm_wordpool_less_exclusions.txt	LTP200	ltpFR	19	14	1	BUTTERFLY	206	n/a	n/a	1	0.57763671875	0.412841796875	1	lower	amplitud.ttf
2471580	WORD	wordpools/wasnorm_wordpool_less_exclusions.txt	LTP200	ltpFR	19	14	1	BEETLE	116	n/a	n/a	1	0.57763671875	0.412841796875	1	lower	amplitud.ttf
2475740	WORD	wordpools/wasnorm_wordpool_less_exclusions.txt	LTP200	ltpFR	19	14	1	COLT	349	n/a	n/a	1	0.57763671875	0.412841796875	1	lower	amplitud.ttf
2479917	WORD	wordpools/wasnorm_wordpool_less_exclusions.txt	LTP200	ltpFR	19	14	1	DOOR	486	n/a	n/a	0	0.57763671875	0.412841796875	1	lower	amplitud.ttf
2483761	WORD	wordpools/wasnorm_wordpool_less_exclusions.txt	LTP200	ltpFR	19	14	1	PIANO	1057	n/a	n/a	0	0.57763671875	0.412841796875	1	lower	amplitud.ttf
2487722	WORD	wordpools/wasnorm_wordpool_less_exclusions.txt	LTP200	ltpFR	19	14	1	COBBLER	335	n/a	n/a	1	0.57763671875	0.412841796875	1	lower	amplitud.ttf
2491733	WORD	wordpools/wasnorm_wordpool_less_exclusions.txt	LTP200	ltpFR	19	14	1	PERSONNEL	1053	n/a	n/a	1	0.57763671875	0.412841796875	1	lower	amplitud.ttf
2495910	WORD	wordpools/wasnorm_wordpool_less_exclusions.txt	LTP200	ltpFR	19	14	1	CRACKER	398	n/a	n/a	0	0.57763671875	0.412841796875	1	lower	amplitud.ttf
2499904	WORD	wordpools/wasnorm_wordpool_less_exclusions.txt	LTP200	ltpFR	19	14	1	STUMP	1396	n/a	n/a	0	0.57763671875	0.412841796875	1	lower	amplitud.ttf
2503948	WORD	wordpools/wasnorm_wordpool_less_exclusions.txt	LTP200	ltpFR	19	14	1	LUMBER	848	n/a	n/a	0	0.57763671875	0.412841796875	1	lower	amplitud.ttf
2507975	WORD	wordpools/wasnorm_wordpool_less_exclusions.txt	LTP200	ltpFR	19	14	1	SINK	1309	n/a	n/a	0	0.57763671875	0.412841796875	1	lower	amplitud.ttf
2512119	WORD	wordpools/wasnorm_wordpool_less_exclusions.txt	LTP200	ltpFR	19	14	1	ELECTRICIAN	521	n/a	n/a	0	0.57763671875	0.412841796875	1	lower	amplitud.ttf
2516163	WORD	wordpools/wasnorm_wordpool_less_exclusions.txt	LTP200	ltpFR	19	14	1	SPAGHETTI	1346	n/a	n/a	0	0.57763671875	0.412841796875	1	lower	amplitud.ttf
2521955	REC_START	n/a	LTP200	ltpFR	19	14	n/a	n/a	n/a	n/a	n/a	n/a	n/a	n/a	n/a	n/a	n/a
2522713	REC_WORD	wordpools/wasnorm_wordpool_less_exclusions.txt	LTP200	ltpFR	19	14	1	SPAGHETTI	1346	n/a	n/a	0	n/a	n/a	n/a	n/a	n/a
2523576	REC_WORD	wordpools/wasnorm_wordpool_less_exclusions.txt	LTP200	ltpFR	19	14	1	CRACKER	398	n/a	n/a	0	n/a	n/a	n/a	n/a	n/a
2524260	REC_WORD	wordpools/wasnorm_wordpool_less_exclusions.txt	LTP200	ltpFR	19	14	1	ELECTRICIAN	521	n/a	n/a	0	n/a	n/a	n/a	n/a	n/a
2526245	REC_WORD	wordpools/wasnorm_wordpool_less_exclusions.txt	LTP200	ltpFR	19	14	1	SINK	1309	n/a	n/a	0	n/a	n/a	n/a	n/a	n/a
2527791	REC_WORD	wordpools/wasnorm_wordpool_less_exclusions.txt	LTP200	ltpFR	19	14	1	SNEAKER	1334	n/a	n/a	0	n/a	n/a	n/a	n/a	n/a
2529273	REC_WORD	wordpools/wasnorm_wordpool_less_exclusions.txt	LTP200	ltpFR	19	14	1	DOOR	486	n/a	n/a	0	n/a	n/a	n/a	n/a	n/a
2530091	REC_WORD	wordpools/wasnorm_wordpool_less_exclusions.txt	LTP200	ltpFR	19	14	1	PIANO	1057	n/a	n/a	0	n/a	n/a	n/a	n/a	n/a
2530875	REC_WORD	wordpools/wasnorm_wordpool_less_exclusions.txt	LTP200	ltpFR	19	14	1	TROMBONE	1508	n/a	n/a	0	n/a	n/a	n/a	n/a	n/a
2537175	REC_WORD	wordpools/wasnorm_wordpool_less_exclusions.txt	LTP200	ltpFR	19	14	1	COLT	349	n/a	n/a	1	n/a	n/a	n/a	n/a	n/a
2540657	REC_WORD	wordpools/wasnorm_wordpool_less_exclusions.txt	LTP200	ltpFR	19	14	1	BUTTERFLY	206	n/a	n/a	1	n/a	n/a	n/a	n/a	n/a
2541530	REC_WORD	wordpools/wasnorm_wordpool_less_exclusions.txt	LTP200	ltpFR	19	14	1	BEETLE	116	n/a	n/a	1	n/a	n/a	n/a	n/a	n/a
2551517	REC_WORD	wordpools/wasnorm_wordpool_less_exclusions.txt	LTP200	ltpFR	19	14	1	STUMP	1396	n/a	n/a	0	n/a	n/a	n/a	n/a	n/a
2552326	REC_WORD	wordpools/wasnorm_wordpool_less_exclusions.txt	LTP200	ltpFR	19	14	1	LUMBER	848	n/a	n/a	0	n/a	n/a	n/a	n/a	n/a
2577229	REC_WORD	wordpools/wasnorm_wordpool_less_exclusions.txt	LTP200	ltpFR	19	14	1	FOE	587	n/a	n/a	1	n/a	n/a	n/a	n/a	n/a
2624035	WORD	wordpools/wasnorm_wordpool_less_exclusions.txt	LTP200	ltpFR	19	15	1	POCKETBOOK	1094	n/a	n/a	0	0.57763671875	0.412841796875	1	lower	amplitud.ttf
2627996	WORD	wordpools/wasnorm_wordpool_less_exclusions.txt	LTP200	ltpFR	19	15	1	NUN	962	n/a	n/a	1	0.57763671875	0.412841796875	1	lower	amplitud.ttf
2631923	WORD	wordpools/wasnorm_wordpool_less_exclusions.txt	LTP200	ltpFR	19	15	1	PUZZLE	1146	n/a	n/a	0	0.57763671875	0.412841796875	1	lower	amplitud.ttf
2636067	WORD	wordpools/wasnorm_wordpool_less_exclusions.txt	LTP200	ltpFR	19	15	0	SANDWICH	1232	n/a	n/a	0	0.422607421875	0.5869140625	0	upper	zerothre.ttf
2639895	WORD	wordpools/wasnorm_wordpool_less_exclusions.txt	LTP200	ltpFR	19	15	0	SALMON	1227	n/a	n/a	0	0.422607421875	0.5869140625	0	upper	zerothre.ttf
2643905	WORD	wordpools/wasnorm_wordpool_less_exclusions.txt	LTP200	ltpFR	19	15	0	FIN	566	n/a	n/a	0	0.422607421875	0.5869140625	0	upper	zerothre.ttf
2647966	WORD	wordpools/wasnorm_wordpool_less_exclusions.txt	LTP200	ltpFR	19	15	0	MINER	896	n/a	n/a	1	0.422607421875	0.5869140625	0	upper	zerothre.ttf
2652160	WORD	wordpools/wasnorm_wordpool_less_exclusions.txt	LTP200	ltpFR	19	15	1	BEAD	103	n/a	n/a	0	0.57763671875	0.412841796875	1	lower	amplitud.ttf
2656021	WORD	wordpools/wasnorm_wordpool_less_exclusions.txt	LTP200	ltpFR	19	15	1	CAVE	263	n/a	n/a	0	0.57763671875	0.412841796875	1	lower	amplitud.ttf
2659882	WORD	wordpools/wasnorm_wordpool_less_exclusions.txt	LTP200	ltpFR	19	15	1	PORT	1110	n/a	n/a	0	0.57763671875	0.412841796875	1	lower	amplitud.ttf
2663859	WORD	wordpools/wasnorm_wordpool_less_exclusions.txt	LTP200	ltpFR	19	15	1	LABYRINTH	791	n/a	n/a	0	0.57763671875	0.412841796875	1	lower	amplitud.ttf
2667836	WORD	wordpools/wasnorm_wordpool_less_exclusions.txt	LTP200	ltpFR	19	15	1	BAKER	71	n/a	n/a	1	0.57763671875	0.412841796875	1	lower	amplitud.ttf
2671780	WORD	wordpools/wasnorm_wordpool_less_exclusions.txt	LTP200	ltpFR	19	15	0	PLIERS	1089	n/a	n/a	0	0.422607421875	0.5869140625	0	upper	zerothre.ttf
2675758	WORD	wordpools/wasnorm_wordpool_less_exclusions.txt	LTP200	ltpFR	19	15	0	CRATER	400	n/a	n/a	1	0.422607421875	0.5869140625	0	upper	zerothre.ttf
2679952	WORD	wordpools/wasnorm_wordpool_less_exclusions.txt	LTP200	ltpFR	19	15	0	GANG	619	n/a	n/a	1	0.422607421875	0.5869140625	0	upper	zerothre.ttf
2684129	WORD	wordpools/wasnorm_wordpool_less_exclusions.txt	LTP200	ltpFR	19	15	0	REBEL	1172	n/a	n/a	1	0.422607421875	0.5869140625	0	upper	zerothre.ttf
2689954	REC_START	n/a	LTP200	ltpFR	19	15	n/a	n/a	n/a	n/a	n/a	n/a	n/a	n/a	n/a	n/a	n/a
2690602	REC_WORD	wordpools/wasnorm_wordpool_less_exclusions.txt	LTP200	ltpFR	19	15	0	REBEL	1172	n/a	n/a	1	n/a	n/a	n/a	n/a	n/a
2691256	REC_WORD	wordpools/wasnorm_wordpool_less_exclusions.txt	LTP200	ltpFR	19	15	0	GANG	619	n/a	n/a	1	n/a	n/a	n/a	n/a	n/a
2691944	REC_WORD	wordpools/wasnorm_wordpool_less_exclusions.txt	LTP200	ltpFR	19	15	0	PLIERS	1089	n/a	n/a	0	n/a	n/a	n/a	n/a	n/a
2692752	REC_WORD	wordpools/wasnorm_wordpool_less_exclusions.txt	LTP200	ltpFR	19	15	1	NUN	962	n/a	n/a	1	n/a	n/a	n/a	n/a	n/a
2693526	REC_WORD	wordpools/wasnorm_wordpool_less_exclusions.txt	LTP200	ltpFR	19	15	1	POCKETBOOK	1094	n/a	n/a	0	n/a	n/a	n/a	n/a	n/a
2694429	REC_WORD	wordpools/wasnorm_wordpool_less_exclusions.txt	LTP200	ltpFR	19	15	1	PUZZLE	1146	n/a	n/a	0	n/a	n/a	n/a	n/a	n/a
2695696	REC_WORD	wordpools/wasnorm_wordpool_less_exclusions.txt	LTP200	ltpFR	19	15	1	CAVE	263	n/a	n/a	0	n/a	n/a	n/a	n/a	n/a
2696334	REC_WORD	wordpools/wasnorm_wordpool_less_exclusions.txt	LTP200	ltpFR	19	15	0	MINER	896	n/a	n/a	1	n/a	n/a	n/a	n/a	n/a
2697187	REC_WORD	wordpools/wasnorm_wordpool_less_exclusions.txt	LTP200	ltpFR	19	15	1	LABYRINTH	791	n/a	n/a	0	n/a	n/a	n/a	n/a	n/a
2698150	REC_WORD	wordpools/wasnorm_wordpool_less_exclusions.txt	LTP200	ltpFR	19	15	1	BEAD	103	n/a	n/a	0	n/a	n/a	n/a	n/a	n/a
2711505	REC_WORD	wordpools/wasnorm_wordpool_less_exclusions.txt	LTP200	ltpFR	19	15	1	COLT	349	n/a	n/a	1	n/a	n/a	n/a	n/a	n/a
2737730	REC_WORD	wordpools/wasnorm_wordpool_less_exclusions.txt	LTP200	ltpFR	19	15	1	BAKER	71	n/a	n/a	1	n/a	n/a	n/a	n/a	n/a
2743013	REC_WORD	wordpools/wasnorm_wordpool_less_exclusions.txt	LTP200	ltpFR	19	15	0	CRATER	400	n/a	n/a	1	n/a	n/a	n/a	n/a	n/a
2790636	WORD	wordpools/wasnorm_wordpool_less_exclusions.txt	LTP200	ltpFR	19	16	1	BOXER	160	n/a	n/a	1	0.57763671875	0.412841796875	1	lower	amplitud.ttf
2794547	WORD	wordpools/wasnorm_wordpool_less_exclusions.txt	LTP200	ltpFR	19	16	1	CATERPILLAR	259	n/a	n/a	1	0.57763671875	0.412841796875	1	lower	amplitud.ttf
2798540	WORD	wordpools/wasnorm_wordpool_less_exclusions.txt	LTP200	ltpFR	19	16	1	MOSQUITO	917	n/a	n/a	1	0.57763671875	0.412841796875	1	lower	amplitud.ttf
2802735	WORD	wordpools/wasnorm_wordpool_less_exclusions.txt	LTP200	ltpFR	19	16	1	DIRECTOR	471	n/a	n/a	1	0.57763671875	0.412841796875	1	lower	amplitud.ttf
2806845	WORD	wordpools/wasnorm_wordpool_less_exclusions.txt	LTP200	ltpFR	19	16	1	KETTLE	772	n/a	n/a	0	0.57763671875	0.412841796875	1	lower	amplitud.ttf
2810806	WORD	wordpools/wasnorm_wordpool_less_exclusions.txt	LTP200	ltpFR	19	16	1	SAND	1230	n/a	n/a	0	0.57763671875	0.412841796875	1	lower	amplitud.ttf
2814650	WORD	wordpools/wasnorm_wordpool_less_exclusions.txt	LTP200	ltpFR	19	16	1	CLAM	315	n/a	n/a	1	0.57763671875	0.412841796875	1	lower	amplitud.ttf
2818761	WORD	wordpools/wasnorm_wordpool_less_exclusions.txt	LTP200	ltpFR	19	16	1	MATTRESS	879	n/a	n/a	0	0.57763671875	0.412841796875	1	lower	amplitud.ttf
2822705	WORD	wordpools/wasnorm_wordpool_less_exclusions.txt	LTP200	ltpFR	19	16	1	TABLE	1426	n/a	n/a	0	0.57763671875	0.412841796875	1	lower	amplitud.ttf
2826682	WORD	wordpools/wasnorm_wordpool_less_exclusions.txt	LTP200	ltpFR	19	16	1	MUSHROOM	934	n/a	n/a	1	0.57763671875	0.412841796875	1	lower	amplitud.ttf
2830893	WORD	wordpools/wasnorm_wordpool_less_exclusions.txt	LTP200	ltpFR	19	16	1	ACTOR	5	n/a	n/a	1	0.57763671875	0.412841796875	1	lower	amplitud.ttf
2834837	WORD	wordpools/wasnorm_wordpool_less_exclusions.txt	LTP200	ltpFR	19	16	1	LINEN	825	n/a	n/a	0	0.57763671875	0.412841796875	1	lower	amplitud.ttf
2838764	WORD	wordpools/wasnorm_wordpool_less_exclusions.txt	LTP200	ltpFR	19	16	1	ACORN	3	n/a	n/a	0	0.57763671875	0.412841796875	1	lower	amplitud.ttf
2842825	WORD	wordpools/wasnorm_wordpool_less_exclusions.txt	LTP200	ltpFR	19	16	1	REFRIGERATOR	1179	n/a	n/a	0	0.57763671875	0.412841796875	1	lower	amplitud.ttf
2846969	WORD	wordpools/wasnorm_wordpool_less_exclusions.txt	LTP200	ltpFR	19	16	1	SPATULA	1348	n/a	n/a	0	0.57763671875	0.412841796875	1	lower	amplitud.ttf
2850896	WORD	wordpools/wasnorm_wordpool_less_exclusions.txt	LTP200	ltpFR	19	16	1	BACON	67	n/a	n/a	0	0.57763671875	0.412841796875	1	lower	amplitud.ttf
2856688	REC_START	n/a	LTP200	ltpFR	19	16	n/a	n/a	n/a	n/a	n/a	n/a	n/a	n/a	n/a	n/a	n/a
2857960	REC_WORD	wordpools/wasnorm_wordpool_less_exclusions.txt	LTP200	ltpFR	19	16	1	SPATULA	1348	n/a	n/a	0	n/a	n/a	n/a	n/a	n/a
2858778	REC_WORD	wordpools/wasnorm_wordpool_less_exclusions.txt	LTP200	ltpFR	19	16	1	BACON	67	n/a	n/a	0	n/a	n/a	n/a	n/a	n/a
2859412	REC_WORD	wordpools/wasnorm_wordpool_less_exclusions.txt	LTP200	ltpFR	19	16	1	TABLE	1426	n/a	n/a	0	n/a	n/a	n/a	n/a	n/a
2859999	REC_WORD	wordpools/wasnorm_wordpool_less_exclusions.txt	LTP200	ltpFR	19	16	1	REFRIGERATOR	1179	n/a	n/a	0	n/a	n/a	n/a	n/a	n/a
2860988	REC_WORD	wordpools/wasnorm_wordpool_less_exclusions.txt	LTP200	ltpFR	19	16	1	MATTRESS	879	n/a	n/a	0	n/a	n/a	n/a	n/a	n/a
2861811	REC_WORD	wordpools/wasnorm_wordpool_less_exclusions.txt	LTP200	ltpFR	19	16	1	LINEN	825	n/a	n/a	0	n/a	n/a	n/a	n/a	n/a
2863303	REC_WORD	wordpools/wasnorm_wordpool_less_exclusions.txt	LTP200	ltpFR	19	16	1	ACORN	3	n/a	n/a	0	n/a	n/a	n/a	n/a	n/a
2864799	REC_WORD	wordpools/wasnorm_wordpool_less_exclusions.txt	LTP200	ltpFR	19	16	1	ACTOR	5	n/a	n/a	1	n/a	n/a	n/a	n/a	n/a
2865767	REC_WORD	wordpools/wasnorm_wordpool_less_exclusions.txt	LTP200	ltpFR	19	16	1	BOXER	160	n/a	n/a	1	n/a	n/a	n/a	n/a	n/a
2868825	REC_WORD	wordpools/wasnorm_wordpool_less_exclusions.txt	LTP200	ltpFR	19	16	1	MOSQUITO	917	n/a	n/a	1	n/a	n/a	n/a	n/a	n/a
2870162	REC_WORD	wordpools/wasnorm_wordpool_less_exclusions.txt	LTP200	ltpFR	19	16	1	CATERPILLAR	259	n/a	n/a	1	n/a	n/a	n/a	n/a	n/a
2871190	REC_WORD	wordpools/wasnorm_wordpool_less_exclusions.txt	LTP200	ltpFR	19	16	1	SAND	1230	n/a	n/a	0	n/a	n/a	n/a	n/a	n/a
2872906	REC_WORD	wordpools/wasnorm_wordpool_less_exclusions.txt	LTP200	ltpFR	19	16	1	CLAM	315	n/a	n/a	1	n/a	n/a	n/a	n/a	n/a
2957920	REC_START	n/a	LTP200	ltpFR	19	n/a	n/a	n/a	n/a	n/a	n/a	n/a	n/a	n/a	n/a	n/a	n/a
2958583	FFR_REC_WORD	wordpools/wasnorm_wordpool_less_exclusions.txt	LTP200	ltpFR	19	n/a	1	ACORN	3	n/a	n/a	0	n/a	n/a	n/a	n/a	n/a
2959247	FFR_REC_WORD	wordpools/wasnorm_wordpool_less_exclusions.txt	LTP200	ltpFR	19	n/a	1	MATTRESS	879	n/a	n/a	0	n/a	n/a	n/a	n/a	n/a
2959990	FFR_REC_WORD	wordpools/wasnorm_wordpool_less_exclusions.txt	LTP200	ltpFR	19	n/a	1	LINEN	825	n/a	n/a	0	n/a	n/a	n/a	n/a	n/a
2960673	FFR_REC_WORD	wordpools/wasnorm_wordpool_less_exclusions.txt	LTP200	ltpFR	19	n/a	1	SAND	1230	n/a	n/a	0	n/a	n/a	n/a	n/a	n/a
2961542	FFR_REC_WORD	wordpools/wasnorm_wordpool_less_exclusions.txt	LTP200	ltpFR	19	n/a	1	TABLE	1426	n/a	n/a	0	n/a	n/a	n/a	n/a	n/a
2962259	FFR_REC_WORD	wordpools/wasnorm_wordpool_less_exclusions.txt	LTP200	ltpFR	19	n/a	1	REFRIGERATOR	1179	n/a	n/a	0	n/a	n/a	n/a	n/a	n/a
2963861	FFR_REC_WORD	wordpools/wasnorm_wordpool_less_exclusions.txt	LTP200	ltpFR	19	n/a	1	BOXER	160	n/a	n/a	1	n/a	n/a	n/a	n/a	n/a
2964545	FFR_REC_WORD	wordpools/wasnorm_wordpool_less_exclusions.txt	LTP200	ltpFR	19	n/a	1	ACTOR	5	n/a	n/a	1	n/a	n/a	n/a	n/a	n/a
2965323	FFR_REC_WORD	wordpools/wasnorm_wordpool_less_exclusions.txt	LTP200	ltpFR	19	n/a	1	CATERPILLAR	259	n/a	n/a	1	n/a	n/a	n/a	n/a	n/a
2966400	FFR_REC_WORD	wordpools/wasnorm_wordpool_less_exclusions.txt	LTP200	ltpFR	19	n/a	1	MOSQUITO	917	n/a	n/a	1	n/a	n/a	n/a	n/a	n/a
2968142	FFR_REC_WORD	wordpools/wasnorm_wordpool_less_exclusions.txt	LTP200	ltpFR	19	n/a	1	CLAM	315	n/a	n/a	1	n/a	n/a	n/a	n/a	n/a
2970995	FFR_REC_WORD	wordpools/wasnorm_wordpool_less_exclusions.txt	LTP200	ltpFR	19	n/a	1	LAGOON	795	n/a	n/a	0	n/a	n/a	n/a	n/a	n/a
2971973	FFR_REC_WORD	wordpools/wasnorm_wordpool_less_exclusions.txt	LTP200	ltpFR	19	n/a	n/a	DUCK	504	n/a	n/a	n/a	n/a	n/a	n/a	n/a	n/a
2972761	FFR_REC_WORD	wordpools/wasnorm_wordpool_less_exclusions.txt	LTP200	ltpFR	19	n/a	0	PIER	1063	n/a	n/a	1	n/a	n/a	n/a	n/a	n/a
2974567	FFR_REC_WORD	wordpools/wasnorm_wordpool_less_exclusions.txt	LTP200	ltpFR	19	n/a	1	OTTER	986	n/a	n/a	1	n/a	n/a	n/a	n/a	n/a
2977356	FFR_REC_WORD	wordpools/wasnorm_wordpool_less_exclusions.txt	LTP200	ltpFR	19	n/a	-1	COYOTE	396	n/a	n/a	-1	n/a	n/a	n/a	n/a	n/a
2978293	FFR_REC_WORD	wordpools/wasnorm_wordpool_less_exclusions.txt	LTP200	ltpFR	19	n/a	-1	TAVERN	1437	n/a	n/a	-1	n/a	n/a	n/a	n/a	n/a
2982170	FFR_REC_WORD	wordpools/wasnorm_wordpool_less_exclusions.txt	LTP200	ltpFR	19	n/a	0	ASSOCIATE	49	n/a	n/a	1	n/a	n/a	n/a	n/a	n/a
2989757	FFR_REC_WORD	wordpools/wasnorm_wordpool_less_exclusions.txt	LTP200	ltpFR	19	n/a	1	TANGERINE	1431	n/a	n/a	0	n/a	n/a	n/a	n/a	n/a
2990810	FFR_REC_WORD	wordpools/wasnorm_wordpool_less_exclusions.txt	LTP200	ltpFR	19	n/a	1	CHERRY	293	n/a	n/a	0	n/a	n/a	n/a	n/a	n/a
2991673	FFR_REC_WORD	wordpools/wasnorm_wordpool_less_exclusions.txt	LTP200	ltpFR	19	n/a	1	BOWL	158	n/a	n/a	0	n/a	n/a	n/a	n/a	n/a
2992466	FFR_REC_WORD	wordpools/wasnorm_wordpool_less_exclusions.txt	LTP200	ltpFR	19	n/a	1	MICROWAVE	892	n/a	n/a	0	n/a	n/a	n/a	n/a	n/a
3007637	FFR_REC_WORD	wordpools/wasnorm_wordpool_less_exclusions.txt	LTP200	ltpFR	19	n/a	-1	OFFICER	973	n/a	n/a	-1	n/a	n/a	n/a	n/a	n/a
3008540	FFR_REC_WORD	wordpools/wasnorm_wordpool_less_exclusions.txt	LTP200	ltpFR	19	n/a	1	DETECTIVE	454	n/a	n/a	1	n/a	n/a	n/a	n/a	n/a
3009368	FFR_REC_WORD	wordpools/wasnorm_wordpool_less_exclusions.txt	LTP200	ltpFR	19	n/a	1	COMMITTEE	355	n/a	n/a	1	n/a	n/a	n/a	n/a	n/a
3011373	FFR_REC_WORD	wordpools/wasnorm_wordpool_less_exclusions.txt	LTP200	ltpFR	19	n/a	0	MESSAGE	888	n/a	n/a	0	n/a	n/a	n/a	n/a	n/a
3012111	FFR_REC_WORD	wordpools/wasnorm_wordpool_less_exclusions.txt	LTP200	ltpFR	19	n/a	0	REPORT	1184	n/a	n/a	0	n/a	n/a	n/a	n/a	n/a
3013144	FFR_REC_WORD	wordpools/wasnorm_wordpool_less_exclusions.txt	LTP200	ltpFR	19	n/a	0	LIST	830	n/a	n/a	0	n/a	n/a	n/a	n/a	n/a
3015629	FFR_REC_WORD	wordpools/wasnorm_wordpool_less_exclusions.txt	LTP200	ltpFR	19	n/a	0	PRINTER	1126	n/a	n/a	1	n/a	n/a	n/a	n/a	n/a
3017205	FFR_REC_WORD	wordpools/wasnorm_wordpool_less_exclusions.txt	LTP200	ltpFR	19	n/a	1	JOURNAL	760	n/a	n/a	0	n/a	n/a	n/a	n/a	n/a
3019375	FFR_REC_WORD	wordpools/wasnorm_wordpool_less_exclusions.txt	LTP200	ltpFR	19	n/a	0	MERMAID	887	n/a	n/a	1	n/a	n/a	n/a	n/a	n/a
3020318	FFR_REC_WORD	wordpools/wasnorm_wordpool_less_exclusions.txt	LTP200	ltpFR	19	n/a	0	ISLAND	745	n/a	n/a	1	n/a	n/a	n/a	n/a	n/a
3024324	FFR_REC_WORD	wordpools/wasnorm_wordpool_less_exclusions.txt	LTP200	ltpFR	19	n/a	0	BULLY	196	n/a	n/a	1	n/a	n/a	n/a	n/a	n/a
3028579	FFR_REC_WORD	wordpools/wasnorm_wordpool_less_exclusions.txt	LTP200	ltpFR	19	n/a	1	REEF	1177	n/a	n/a	0	n/a	n/a	n/a	n/a	n/a
3031507	FFR_REC_WORD	wordpools/wasnorm_wordpool_less_exclusions.txt	LTP200	ltpFR	19	n/a	0	CHAUFFEUR	283	n/a	n/a	1	n/a	n/a	n/a	n/a	n/a
3032939	FFR_REC_WORD	wordpools/wasnorm_wordpool_less_exclusions.txt	LTP200	ltpFR	19	n/a	0	BOYFRIEND	162	n/a	n/a	1	n/a	n/a	n/a	n/a	n/a
3035119	FFR_REC_WORD	wordpools/wasnorm_wordpool_less_exclusions.txt	LTP200	ltpFR	19	n/a	1	ELECTRICIAN	521	n/a	n/a	0	n/a	n/a	n/a	n/a	n/a
3036466	FFR_REC_WORD	wordpools/wasnorm_wordpool_less_exclusions.txt	LTP200	ltpFR	19	n/a	1	CRACKER	398	n/a	n/a	0	n/a	n/a	n/a	n/a	n/a
3037389	FFR_REC_WORD	wordpools/wasnorm_wordpool_less_exclusions.txt	LTP200	ltpFR	19	n/a	0	PLIERS	1089	n/a	n/a	0	n/a	n/a	n/a	n/a	n/a
3038422	FFR_REC_WORD	wordpools/wasnorm_wordpool_less_exclusions.txt	LTP200	ltpFR	19	n/a	-1	GARAGE	621	n/a	n/a	-1	n/a	n/a	n/a	n/a	n/a
3039404	FFR_REC_WORD	wordpools/wasnorm_wordpool_less_exclusions.txt	LTP200	ltpFR	19	n/a	-1	GREASE	660	n/a	n/a	-1	n/a	n/a	n/a	n/a	n/a
3041724	FFR_REC_WORD	wordpools/wasnorm_wordpool_less_exclusions.txt	LTP200	ltpFR	19	n/a	-1	SCREWDRIVER	1255	n/a	n/a	-1	n/a	n/a	n/a	n/a	n/a
3043465	FFR_REC_WORD	wordpools/wasnorm_wordpool_less_exclusions.txt	LTP200	ltpFR	19	n/a	-1	STEP	1377	n/a	n/a	-1	n/a	n/a	n/a	n/a	n/a
3049103	FFR_REC_WORD	wordpools/wasnorm_wordpool_less_exclusions.txt	LTP200	ltpFR	19	n/a	0	LAWN	805	n/a	n/a	1	n/a	n/a	n/a	n/a	n/a
3049956	FFR_REC_WORD	wordpools/wasnorm_wordpool_less_exclusions.txt	LTP200	ltpFR	19	n/a	n/a	LANDSCAPE	799	n/a	n/a	n/a	n/a	n/a	n/a	n/a	n/a
3057394	FFR_REC_WORD	wordpools/wasnorm_wordpool_less_exclusions.txt	LTP200	ltpFR	19	n/a	0	ZEBRA	1635	n/a	n/a	1	n/a	n/a	n/a	n/a	n/a
3058885	FFR_REC_WORD	wordpools/wasnorm_wordpool_less_exclusions.txt	LTP200	ltpFR	19	n/a	0	POSSUM	1112	n/a	n/a	0	n/a	n/a	n/a	n/a	n/a
3061454	FFR_REC_WORD	wordpools/wasnorm_wordpool_less_exclusions.txt	LTP200	ltpFR	19	n/a	0	MONGOOSE	909	n/a	n/a	0	n/a	n/a	n/a	n/a	n/a
3062422	FFR_REC_WORD	wordpools/wasnorm_wordpool_less_exclusions.txt	LTP200	ltpFR	19	n/a	0	RACCOON	1153	n/a	n/a	1	n/a	n/a	n/a	n/a	n/a
3067800	FFR_REC_WORD	wordpools/wasnorm_wordpool_less_exclusions.txt	LTP200	ltpFR	19	n/a	1	SALAD	1224	n/a	n/a	0	n/a	n/a	n/a	n/a	n/a
3068573	FFR_REC_WORD	wordpools/wasnorm_wordpool_less_exclusions.txt	LTP200	ltpFR	19	n/a	0	BROCCOLI	176	n/a	n/a	0	n/a	n/a	n/a	n/a	n/a
3069197	FFR_REC_WORD	wordpools/wasnorm_wordpool_less_exclusions.txt	LTP200	ltpFR	19	n/a	1	CAULIFLOWER	262	n/a	n/a	0	n/a	n/a	n/a	n/a	n/a
3070130	FFR_REC_WORD	wordpools/wasnorm_wordpool_less_exclusions.txt	LTP200	ltpFR	19	n/a	1	CABBAGE	210	n/a	n/a	0	n/a	n/a	n/a	n/a	n/a
3105799	FFR_REC_WORD	wordpools/wasnorm_wordpool_less_exclusions.txt	LTP200	ltpFR	19	n/a	-1	BOY	161	n/a	n/a	-1	n/a	n/a	n/a	n/a	n/a
3106484	FFR_REC_WORD	wordpools/wasnorm_wordpool_less_exclusions.txt	LTP200	ltpFR	19	n/a	-1	GIRL	637	n/a	n/a	-1	n/a	n/a	n/a	n/a	n/a
3109735	FFR_REC_WORD	wordpools/wasnorm_wordpool_less_exclusions.txt	LTP200	ltpFR	19	n/a	-1	NEPHEW	942	n/a	n/a	-1	n/a	n/a	n/a	n/a	n/a
3111196	FFR_REC_WORD	wordpools/wasnorm_wordpool_less_exclusions.txt	LTP200	ltpFR	19	n/a	-1	SAXOPHONE	1240	n/a	n/a	-1	n/a	n/a	n/a	n/a	n/a
3112084	FFR_REC_WORD	wordpools/wasnorm_wordpool_less_exclusions.txt	LTP200	ltpFR	19	n/a	1	TROMBONE	1508	n/a	n/a	0	n/a	n/a	n/a	n/a	n/a
3114090	FFR_REC_WORD	wordpools/wasnorm_wordpool_less_exclusions.txt	LTP200	ltpFR	19	n/a	-1	CHEERLEADER	288	n/a	n/a	-1	n/a	n/a	n/a	n/a	n/a
3115317	FFR_REC_WORD	wordpools/wasnorm_wordpool_less_exclusions.txt	LTP200	ltpFR	19	n/a	1	PIANO	1057	n/a	n/a	0	n/a	n/a	n/a	n/a	n/a
3118061	FFR_REC_WORD	wordpools/wasnorm_wordpool_less_exclusions.txt	LTP200	ltpFR	19	n/a	0	RATTLE	1170	n/a	n/a	0	n/a	n/a	n/a	n/a	n/a
3118859	FFR_REC_WORD	wordpools/wasnorm_wordpool_less_exclusions.txt	LTP200	ltpFR	19	n/a	0	DUST	508	n/a	n/a	0	n/a	n/a	n/a	n/a	n/a
3119672	FFR_REC_WORD	wordpools/wasnorm_wordpool_less_exclusions.txt	LTP200	ltpFR	19	n/a	1	WORM	1623	n/a	n/a	1	n/a	n/a	n/a	n/a	n/a
3128477	FFR_REC_WORD	wordpools/wasnorm_wordpool_less_exclusions.txt	LTP200	ltpFR	19	n/a	-1	PARIS	1014	n/a	n/a	-1	n/a	n/a	n/a	n/a	n/a
3129222	FFR_REC_WORD	wordpools/wasnorm_wordpool_less_exclusions.txt	LTP200	ltpFR	19	n/a	-1	LONDON	843	n/a	n/a	-1	n/a	n/a	n/a	n/a	n/a
3132613	FFR_REC_WORD	wordpools/wasnorm_wordpool_less_exclusions.txt	LTP200	ltpFR	19	n/a	0	LOAF	835	n/a	n/a	0	n/a	n/a	n/a	n/a	n/a
3133321	FFR_REC_WORD	wordpools/wasnorm_wordpool_less_exclusions.txt	LTP200	ltpFR	19	n/a	0	TOASTER	1472	n/a	n/a	1	n/a	n/a	n/a	n/a	n/a
3137601	FFR_REC_WORD	wordpools/wasnorm_wordpool_less_exclusions.txt	LTP200	ltpFR	19	n/a	0	NICKEL	950	n/a	n/a	0	n/a	n/a	n/a	n/a	n/a
3138380	FFR_REC_WORD	wordpools/wasnorm_wordpool_less_exclusions.txt	LTP200	ltpFR	19	n/a	1	DIME	466	n/a	n/a	0	n/a	n/a	n/a	n/a	n/a
3139158	FFR_REC_WORD	wordpools/wasnorm_wordpool_less_exclusions.txt	LTP200	ltpFR	19	n/a	1	MONEY	908	n/a	n/a	0	n/a	n/a	n/a	n/a	n/a
3139941	FFR_REC_WORD	wordpools/wasnorm_wordpool_less_exclusions.txt	LTP200	ltpFR	19	n/a	1	SPIT	1354	n/a	n/a	0	n/a	n/a	n/a	n/a	n/a
3151066	FFR_REC_WORD	wordpools/wasnorm_wordpool_less_exclusions.txt	LTP200	ltpFR	19	n/a	0	ORCHID	982	n/a	n/a	0	n/a	n/a	n/a	n/a	n/a
3151774	FFR_REC_WORD	wordpools/wasnorm_wordpool_less_exclusions.txt	LTP200	ltpFR	19	n/a	0	DAISY	435	n/a	n/a	0	n/a	n/a	n/a	n/a	n/a
3162919	FFR_REC_WORD	wordpools/wasnorm_wordpool_less_exclusions.txt	LTP200	ltpFR	19	n/a	0	TWIG	1527	n/a	n/a	0	n/a	n/a	n/a	n/a	n/a
3165502	FFR_REC_WORD	wordpools/wasnorm_wordpool_less_exclusions.txt	LTP200	ltpFR	19	n/a	0	THICKET	1455	n/a	n/a	1	n/a	n/a	n/a	n/a	n/a
3178099	FFR_REC_WORD	wordpools/wasnorm_wordpool_less_exclusions.txt	LTP200	ltpFR	19	n/a	0	MOUNTAIN	924	n/a	n/a	1	n/a	n/a	n/a	n/a	n/a
3178972	FFR_REC_WORD	wordpools/wasnorm_wordpool_less_exclusions.txt	LTP200	ltpFR	19	n/a	0	ROAD	1196	n/a	n/a	1	n/a	n/a	n/a	n/a	n/a
3181821	FFR_REC_WORD	wordpools/wasnorm_wordpool_less_exclusions.txt	LTP200	ltpFR	19	n/a	1	FREEWAY	603	n/a	n/a	0	n/a	n/a	n/a	n/a	n/a
3187942	FFR_REC_WORD	wordpools/wasnorm_wordpool_less_exclusions.txt	LTP200	ltpFR	19	n/a	0	GRILL	661	n/a	n/a	1	n/a	n/a	n/a	n/a	n/a
3188975	FFR_REC_WORD	wordpools/wasnorm_wordpool_less_exclusions.txt	LTP200	ltpFR	19	n/a	0	COB	334	n/a	n/a	0	n/a	n/a	n/a	n/a	n/a
3220752	FFR_REC_WORD	wordpools/wasnorm_wordpool_less_exclusions.txt	LTP200	ltpFR	19	n/a	0	IRON	744	n/a	n/a	0	n/a	n/a	n/a	n/a	n/a
3254201	FFR_REC_WORD	wordpools/wasnorm_wordpool_less_exclusions.txt	LTP200	ltpFR	19	n/a	1	SHRINE	1298	n/a	n/a	0	n/a	n/a	n/a	n/a	n/a
3291988	REC_START	n/a	LTP200	ltpFR	19	1	n/a	n/a	n/a	n/a	n/a	n/a	n/a	n/a	n/a	n/a	n/a
3292021	RECOG_LURE	n/a	LTP200	ltpFR	19	1	n/a	CREEK	404	0	4	n/a	n/a	n/a	n/a	n/a	n/a
3293235	RECOG_RESP	n/a	LTP200	ltpFR	19	1	n/a	CREEK	404	0	n/a	n/a	n/a	n/a	n/a	n/a	n/a
3293989	RECOG_CONF	n/a	LTP200	ltpFR	19	1	n/a	CREEK	404	n/a	4	n/a	n/a	n/a	n/a	n/a	n/a
3295848	RECOG_TARGET	n/a	LTP200	ltpFR	19	1	-1	GIRL	637	1	5	-1	n/a	n/a	n/a	n/a	n/a
3296472	RECOG_RESP	n/a	LTP200	ltpFR	19	1	-1	GIRL	637	1	n/a	-1	n/a	n/a	n/a	n/a	n/a
3297091	RECOG_CONF	n/a	LTP200	ltpFR	19	1	-1	GIRL	637	n/a	5	-1	n/a	n/a	n/a	n/a	n/a
3298744	RECOG_TARGET	n/a	LTP200	ltpFR	19	1	0	NEWSSTAND	949	1	4	1	n/a	n/a	n/a	n/a	n/a
3299421	RECOG_RESP	n/a	LTP200	ltpFR	19	1	0	NEWSSTAND	949	1	n/a	1	n/a	n/a	n/a	n/a	n/a
3299905	RECOG_CONF	n/a	LTP200	ltpFR	19	1	0	NEWSSTAND	949	n/a	4	1	n/a	n/a	n/a	n/a	n/a
3301606	RECOG_LURE	n/a	LTP200	ltpFR	19	1	n/a	CAPE	237	0	3	n/a	n/a	n/a	n/a	n/a	n/a
3302424	RECOG_RESP	n/a	LTP200	ltpFR	19	1	n/a	CAPE	237	0	n/a	n/a	n/a	n/a	n/a	n/a	n/a
3302930	RECOG_CONF	n/a	LTP200	ltpFR	19	1	n/a	CAPE	237	n/a	3	n/a	n/a	n/a	n/a	n/a	n/a
3304618	RECOG_LURE	n/a	LTP200	ltpFR	19	1	n/a	INN	739	0	3	n/a	n/a	n/a	n/a	n/a	n/a
3305368	RECOG_RESP	n/a	LTP200	ltpFR	19	1	n/a	INN	739	0	n/a	n/a	n/a	n/a	n/a	n/a	n/a
3306125	RECOG_CONF	n/a	LTP200	ltpFR	19	1	n/a	INN	739	n/a	3	n/a	n/a	n/a	n/a	n/a	n/a
3307980	RECOG_TARGET	n/a	LTP200	ltpFR	19	1	-1	FLESH	579	0	1	-1	n/a	n/a	n/a	n/a	n/a
3309044	RECOG_RESP	n/a	LTP200	ltpFR	19	1	-1	FLESH	579	0	n/a	-1	n/a	n/a	n/a	n/a	n/a
3309577	RECOG_CONF	n/a	LTP200	ltpFR	19	1	-1	FLESH	579	n/a	1	-1	n/a	n/a	n/a	n/a	n/a
3311175	RECOG_LURE	n/a	LTP200	ltpFR	19	1	n/a	DOCUMENT	479	0	2	n/a	n/a	n/a	n/a	n/a	n/a
3312251	RECOG_RESP	n/a	LTP200	ltpFR	19	1	n/a	DOCUMENT	479	0	n/a	n/a	n/a	n/a	n/a	n/a	n/a
3312857	RECOG_CONF	n/a	LTP200	ltpFR	19	1	n/a	DOCUMENT	479	n/a	2	n/a	n/a	n/a	n/a	n/a	n/a
3314421	RECOG_TARGET	n/a	LTP200	ltpFR	19	1	1	BOXER	160	1	5	1	n/a	n/a	n/a	n/a	n/a
3315092	RECOG_RESP	n/a	LTP200	ltpFR	19	1	1	BOXER	160	1	n/a	1	n/a	n/a	n/a	n/a	n/a
3315603	RECOG_CONF	n/a	LTP200	ltpFR	19	1	1	BOXER	160	n/a	5	1	n/a	n/a	n/a	n/a	n/a
3317283	RECOG_TARGET	n/a	LTP200	ltpFR	19	1	0	PRINTER	1126	1	5	1	n/a	n/a	n/a	n/a	n/a
3317887	RECOG_RESP	n/a	LTP200	ltpFR	19	1	0	PRINTER	1126	1	n/a	1	n/a	n/a	n/a	n/a	n/a
3318453	RECOG_CONF	n/a	LTP200	ltpFR	19	1	0	PRINTER	1126	n/a	5	1	n/a	n/a	n/a	n/a	n/a
3320029	RECOG_TARGET	n/a	LTP200	ltpFR	19	1	0	MEADOW	881	0	1	1	n/a	n/a	n/a	n/a	n/a
3320815	RECOG_RESP	n/a	LTP200	ltpFR	19	1	0	MEADOW	881	0	n/a	1	n/a	n/a	n/a	n/a	n/a
3321295	RECOG_CONF	n/a	LTP200	ltpFR	19	1	0	MEADOW	881	n/a	1	1	n/a	n/a	n/a	n/a	n/a
3322941	RECOG_TARGET	n/a	LTP200	ltpFR	19	1	-1	SENATE	1267	1	2	-1	n/a	n/a	n/a	n/a	n/a
3323729	RECOG_RESP	n/a	LTP200	ltpFR	19	1	-1	SENATE	1267	1	n/a	-1	n/a	n/a	n/a	n/a	n/a
3324257	RECOG_CONF	n/a	LTP200	ltpFR	19	1	-1	SENATE	1267	n/a	2	-1	n/a	n/a	n/a	n/a	n/a
3325770	RECOG_TARGET	n/a	LTP200	ltpFR	19	1	-1	TORNADO	1485	1	4	-1	n/a	n/a	n/a	n/a	n/a
3326454	RECOG_RESP	n/a	LTP200	ltpFR	19	1	-1	TORNADO	1485	1	n/a	-1	n/a	n/a	n/a	n/a	n/a
3326901	RECOG_CONF	n/a	LTP200	ltpFR	19	1	-1	TORNADO	1485	n/a	4	-1	n/a	n/a	n/a	n/a	n/a
3328483	RECOG_TARGET	n/a	LTP200	ltpFR	19	1	1	PUMP	1141	1	5	0	n/a	n/a	n/a	n/a	n/a
3329109	RECOG_RESP	n/a	LTP200	ltpFR	19	1	1	PUMP	1141	1	n/a	0	n/a	n/a	n/a	n/a	n/a
3329607	RECOG_CONF	n/a	LTP200	ltpFR	19	1	1	PUMP	1141	n/a	5	0	n/a	n/a	n/a	n/a	n/a
3331146	RECOG_LURE	n/a	LTP200	ltpFR	19	1	n/a	NECK	939	0	1	n/a	n/a	n/a	n/a	n/a	n/a
3331745	RECOG_RESP	n/a	LTP200	ltpFR	19	1	n/a	NECK	939	0	n/a	n/a	n/a	n/a	n/a	n/a	n/a
3332185	RECOG_CONF	n/a	LTP200	ltpFR	19	1	n/a	NECK	939	n/a	1	n/a	n/a	n/a	n/a	n/a	n/a
3333642	RECOG_TARGET	n/a	LTP200	ltpFR	19	1	1	CAULIFLOWER	262	0	4	0	n/a	n/a	n/a	n/a	n/a
3334292	RECOG_RESP	n/a	LTP200	ltpFR	19	1	1	CAULIFLOWER	262	0	n/a	0	n/a	n/a	n/a	n/a	n/a
3334775	RECOG_CONF	n/a	LTP200	ltpFR	19	1	1	CAULIFLOWER	262	n/a	4	0	n/a	n/a	n/a	n/a	n/a
3336271	RECOG_LURE	n/a	LTP200	ltpFR	19	1	n/a	ASPIRIN	47	0	3	n/a	n/a	n/a	n/a	n/a	n/a
3337175	RECOG_RESP	n/a	LTP200	ltpFR	19	1	n/a	ASPIRIN	47	0	n/a	n/a	n/a	n/a	n/a	n/a	n/a
3337714	RECOG_CONF	n/a	LTP200	ltpFR	19	1	n/a	ASPIRIN	47	n/a	3	n/a	n/a	n/a	n/a	n/a	n/a
3339250	RECOG_TARGET	n/a	LTP200	ltpFR	19	1	0	GRILL	661	1	3	1	n/a	n/a	n/a	n/a	n/a
3340093	RECOG_RESP	n/a	LTP200	ltpFR	19	1	0	GRILL	661	1	n/a	1	n/a	n/a	n/a	n/a	n/a
3340662	RECOG_CONF	n/a	LTP200	ltpFR	19	1	0	GRILL	661	n/a	3	1	n/a	n/a	n/a	n/a	n/a
3342229	RECOG_TARGET	n/a	LTP200	ltpFR	19	1	0	BASKET	95	1	4	0	n/a	n/a	n/a	n/a	n/a
3343276	RECOG_RESP	n/a	LTP200	ltpFR	19	1	0	BASKET	95	1	n/a	0	n/a	n/a	n/a	n/a	n/a
3343785	RECOG_CONF	n/a	LTP200	ltpFR	19	1	0	BASKET	95	n/a	4	0	n/a	n/a	n/a	n/a	n/a
3345358	RECOG_LURE	n/a	LTP200	ltpFR	19	1	n/a	SENATOR	1268	0	1	n/a	n/a	n/a	n/a	n/a	n/a
3346266	RECOG_RESP	n/a	LTP200	ltpFR	19	1	n/a	SENATOR	1268	0	n/a	n/a	n/a	n/a	n/a	n/a	n/a
3346722	RECOG_CONF	n/a	LTP200	ltpFR	19	1	n/a	SENATOR	1268	n/a	1	n/a	n/a	n/a	n/a	n/a	n/a
3348386	RECOG_TARGET	n/a	LTP200	ltpFR	19	1	0	POSSUM	1112	1	4	0	n/a	n/a	n/a	n/a	n/a
3349118	RECOG_RESP	n/a	LTP200	ltpFR	19	1	0	POSSUM	1112	1	n/a	0	n/a	n/a	n/a	n/a	n/a
3349662	RECOG_CONF	n/a	LTP200	ltpFR	19	1	0	POSSUM	1112	n/a	4	0	n/a	n/a	n/a	n/a	n/a
3353464	REC_START	n/a	LTP200	ltpFR	19	2	n/a	n/a	n/a	n/a	n/a	n/a	n/a	n/a	n/a	n/a	n/a
3353495	RECOG_LURE	n/a	LTP200	ltpFR	19	2	n/a	DRUM	502	0	3	n/a	n/a	n/a	n/a	n/a	n/a
3354294	RECOG_RESP	n/a	LTP200	ltpFR	19	2	n/a	DRUM	502	0	n/a	n/a	n/a	n/a	n/a	n/a	n/a
3354797	RECOG_CONF	n/a	LTP200	ltpFR	19	2	n/a	DRUM	502	n/a	3	n/a	n/a	n/a	n/a	n/a	n/a
3356341	RECOG_LURE	n/a	LTP200	ltpFR	19	2	n/a	CHEMIST	292	0	2	n/a	n/a	n/a	n/a	n/a	n/a
3356951	RECOG_RESP	n/a	LTP200	ltpFR	19	2	n/a	CHEMIST	292	0	n/a	n/a	n/a	n/a	n/a	n/a	n/a
3357437	RECOG_CONF	n/a	LTP200	ltpFR	19	2	n/a	CHEMIST	292	n/a	2	n/a	n/a	n/a	n/a	n/a	n/a
3358937	RECOG_TARGET	n/a	LTP200	ltpFR	19	2	-1	GARAGE	621	1	4	-1	n/a	n/a	n/a	n/a	n/a
3359542	RECOG_RESP	n/a	LTP200	ltpFR	19	2	-1	GARAGE	621	1	n/a	-1	n/a	n/a	n/a	n/a	n/a
3359969	RECOG_CONF	n/a	LTP200	ltpFR	19	2	-1	GARAGE	621	n/a	4	-1	n/a	n/a	n/a	n/a	n/a
3361467	RECOG_LURE	n/a	LTP200	ltpFR	19	2	n/a	CONVENT	370	0	1	n/a	n/a	n/a	n/a	n/a	n/a
3362565	RECOG_RESP	n/a	LTP200	ltpFR	19	2	n/a	CONVENT	370	0	n/a	n/a	n/a	n/a	n/a	n/a	n/a
3363072	RECOG_CONF	n/a	LTP200	ltpFR	19	2	n/a	CONVENT	370	n/a	1	n/a	n/a	n/a	n/a	n/a	n/a
3364679	RECOG_TARGET	n/a	LTP200	ltpFR	19	2	1	PORT	1110	0	1	0	n/a	n/a	n/a	n/a	n/a
3365624	RECOG_RESP	n/a	LTP200	ltpFR	19	2	1	PORT	1110	0	n/a	0	n/a	n/a	n/a	n/a	n/a
3366729	RECOG_CONF	n/a	LTP200	ltpFR	19	2	1	PORT	1110	n/a	1	0	n/a	n/a	n/a	n/a	n/a
3368273	RECOG_LURE	n/a	LTP200	ltpFR	19	2	n/a	DRIVEWAY	500	0	1	n/a	n/a	n/a	n/a	n/a	n/a
3369469	RECOG_RESP	n/a	LTP200	ltpFR	19	2	n/a	DRIVEWAY	500	0	n/a	n/a	n/a	n/a	n/a	n/a	n/a
3369943	RECOG_CONF	n/a	LTP200	ltpFR	19	2	n/a	DRIVEWAY	500	n/a	1	n/a	n/a	n/a	n/a	n/a	n/a
3371485	RECOG_TARGET	n/a	LTP200	ltpFR	19	2	1	CARAVAN	242	1	4	0	n/a	n/a	n/a	n/a	n/a
3372184	RECOG_RESP	n/a	LTP200	ltpFR	19	2	1	CARAVAN	242	1	n/a	0	n/a	n/a	n/a	n/a	n/a
3372665	RECOG_CONF	n/a	LTP200	ltpFR	19	2	1	CARAVAN	242	n/a	4	0	n/a	n/a	n/a	n/a	n/a
3374264	RECOG_LURE	n/a	LTP200	ltpFR	19	2	n/a	TREAT	1501	0	3	n/a	n/a	n/a	n/a	n/a	n/a
3374993	RECOG_RESP	n/a	LTP200	ltpFR	19	2	n/a	TREAT	1501	0	n/a	n/a	n/a	n/a	n/a	n/a	n/a
3375471	RECOG_CONF	n/a	LTP200	ltpFR	19	2	n/a	TREAT	1501	n/a	3	n/a	n/a	n/a	n/a	n/a	n/a
3376877	RECOG_TARGET	n/a	LTP200	ltpFR	19	2	0	THICKET	1455	1	5	1	n/a	n/a	n/a	n/a	n/a
3377608	RECOG_RESP	n/a	LTP200	ltpFR	19	2	0	THICKET	1455	1	n/a	1	n/a	n/a	n/a	n/a	n/a
3378119	RECOG_CONF	n/a	LTP200	ltpFR	19	2	0	THICKET	1455	n/a	5	1	n/a	n/a	n/a	n/a	n/a
3379623	RECOG_TARGET	n/a	LTP200	ltpFR	19	2	1	SEAGULL	1261	1	4	1	n/a	n/a	n/a	n/a	n/a
3380285	RECOG_RESP	n/a	LTP200	ltpFR	19	2	1	SEAGULL	1261	1	n/a	1	n/a	n/a	n/a	n/a	n/a
3380767	RECOG_CONF	n/a	LTP200	ltpFR	19	2	1	SEAGULL	1261	n/a	4	1	n/a	n/a	n/a	n/a	n/a
3382286	RECOG_LURE	n/a	LTP200	ltpFR	19	2	n/a	CRADLE	399	0	1	n/a	n/a	n/a	n/a	n/a	n/a
3383011	RECOG_RESP	n/a	LTP200	ltpFR	19	2	n/a	CRADLE	399	0	n/a	n/a	n/a	n/a	n/a	n/a	n/a
3383450	RECOG_CONF	n/a	LTP200	ltpFR	19	2	n/a	CRADLE	399	n/a	1	n/a	n/a	n/a	n/a	n/a	n/a
3385015	RECOG_LURE	n/a	LTP200	ltpFR	19	2	n/a	OPERATOR	979	0	3	n/a	n/a	n/a	n/a	n/a	n/a
3385801	RECOG_RESP	n/a	LTP200	ltpFR	19	2	n/a	OPERATOR	979	0	n/a	n/a	n/a	n/a	n/a	n/a	n/a
3386254	RECOG_CONF	n/a	LTP200	ltpFR	19	2	n/a	OPERATOR	979	n/a	3	n/a	n/a	n/a	n/a	n/a	n/a
3387811	RECOG_TARGET	n/a	LTP200	ltpFR	19	2	0	ANIMAL	23	1	3	0	n/a	n/a	n/a	n/a	n/a
3388607	RECOG_RESP	n/a	LTP200	ltpFR	19	2	0	ANIMAL	23	1	n/a	0	n/a	n/a	n/a	n/a	n/a
3389127	RECOG_CONF	n/a	LTP200	ltpFR	19	2	0	ANIMAL	23	n/a	3	0	n/a	n/a	n/a	n/a	n/a
3390524	RECOG_TARGET	n/a	LTP200	ltpFR	19	2	0	LOAF	835	1	5	0	n/a	n/a	n/a	n/a	n/a
3391155	RECOG_RESP	n/a	LTP200	ltpFR	19	2	0	LOAF	835	1	n/a	0	n/a	n/a	n/a	n/a	n/a
3391632	RECOG_CONF	n/a	LTP200	ltpFR	19	2	0	LOAF	835	n/a	5	0	n/a	n/a	n/a	n/a	n/a
3393120	RECOG_LURE	n/a	LTP200	ltpFR	19	2	n/a	FIGHTER	564	0	3	n/a	n/a	n/a	n/a	n/a	n/a
3393703	RECOG_RESP	n/a	LTP200	ltpFR	19	2	n/a	FIGHTER	564	0	n/a	n/a	n/a	n/a	n/a	n/a	n/a
3394163	RECOG_CONF	n/a	LTP200	ltpFR	19	2	n/a	FIGHTER	564	n/a	3	n/a	n/a	n/a	n/a	n/a	n/a
3395649	RECOG_TARGET	n/a	LTP200	ltpFR	19	2	0	RACCOON	1153	1	4	1	n/a	n/a	n/a	n/a	n/a
3396349	RECOG_RESP	n/a	LTP200	ltpFR	19	2	0	RACCOON	1153	1	n/a	1	n/a	n/a	n/a	n/a	n/a
3396860	RECOG_CONF	n/a	LTP200	ltpFR	19	2	0	RACCOON	1153	n/a	4	1	n/a	n/a	n/a	n/a	n/a
3398312	RECOG_TARGET	n/a	LTP200	ltpFR	19	2	1	SPATULA	1348	1	5	0	n/a	n/a	n/a	n/a	n/a
3399048	RECOG_RESP	n/a	LTP200	ltpFR	19	2	1	SPATULA	1348	1	n/a	0	n/a	n/a	n/a	n/a	n/a
3399544	RECOG_CONF	n/a	LTP200	ltpFR	19	2	1	SPATULA	1348	n/a	5	0	n/a	n/a	n/a	n/a	n/a
3401124	RECOG_TARGET	n/a	LTP200	ltpFR	19	2	0	DAISY	435	1	5	0	n/a	n/a	n/a	n/a	n/a
3401815	RECOG_RESP	n/a	LTP200	ltpFR	19	2	0	DAISY	435	1	n/a	0	n/a	n/a	n/a	n/a	n/a
3402288	RECOG_CONF	n/a	LTP200	ltpFR	19	2	0	DAISY	435	n/a	5	0	n/a	n/a	n/a	n/a	n/a
3403870	RECOG_TARGET	n/a	LTP200	ltpFR	19	2	1	COWBOY	395	1	3	1	n/a	n/a	n/a	n/a	n/a
3404618	RECOG_RESP	n/a	LTP200	ltpFR	19	2	1	COWBOY	395	1	n/a	1	n/a	n/a	n/a	n/a	n/a
3405183	RECOG_CONF	n/a	LTP200	ltpFR	19	2	1	COWBOY	395	n/a	3	1	n/a	n/a	n/a	n/a	n/a
3406666	RECOG_LURE	n/a	LTP200	ltpFR	19	2	n/a	FLEA	577	0	2	n/a	n/a	n/a	n/a	n/a	n/a
3407366	RECOG_RESP	n/a	LTP200	ltpFR	19	2	n/a	FLEA	577	0	n/a	n/a	n/a	n/a	n/a	n/a	n/a
3407866	RECOG_CONF	n/a	LTP200	ltpFR	19	2	n/a	FLEA	577	n/a	2	n/a	n/a	n/a	n/a	n/a	n/a
3412498	REC_START	n/a	LTP200	ltpFR	19	3	n/a	n/a	n/a	n/a	n/a	n/a	n/a	n/a	n/a	n/a	n/a
3412524	RECOG_TARGET	n/a	LTP200	ltpFR	19	3	-1	WALLET	1583	1	3	-1	n/a	n/a	n/a	n/a	n/a
3413504	RECOG_RESP	n/a	LTP200	ltpFR	19	3	-1	WALLET	1583	1	n/a	-1	n/a	n/a	n/a	n/a	n/a
3413996	RECOG_CONF	n/a	LTP200	ltpFR	19	3	-1	WALLET	1583	n/a	3	-1	n/a	n/a	n/a	n/a	n/a
3415503	RECOG_TARGET	n/a	LTP200	ltpFR	19	3	0	MERMAID	887	1	5	1	n/a	n/a	n/a	n/a	n/a
3416173	RECOG_RESP	n/a	LTP200	ltpFR	19	3	0	MERMAID	887	1	n/a	1	n/a	n/a	n/a	n/a	n/a
3416653	RECOG_CONF	n/a	LTP200	ltpFR	19	3	0	MERMAID	887	n/a	5	1	n/a	n/a	n/a	n/a	n/a
3418132	RECOG_TARGET	n/a	LTP200	ltpFR	19	3	0	APRON	35	1	4	0	n/a	n/a	n/a	n/a	n/a
3418767	RECOG_RESP	n/a	LTP200	ltpFR	19	3	0	APRON	35	1	n/a	0	n/a	n/a	n/a	n/a	n/a
3419205	RECOG_CONF	n/a	LTP200	ltpFR	19	3	0	APRON	35	n/a	4	0	n/a	n/a	n/a	n/a	n/a
3420795	RECOG_TARGET	n/a	LTP200	ltpFR	19	3	1	CRACKER	398	1	4	0	n/a	n/a	n/a	n/a	n/a
3421474	RECOG_RESP	n/a	LTP200	ltpFR	19	3	1	CRACKER	398	1	n/a	0	n/a	n/a	n/a	n/a	n/a
3421876	RECOG_CONF	n/a	LTP200	ltpFR	19	3	1	CRACKER	398	n/a	4	0	n/a	n/a	n/a	n/a	n/a
3423441	RECOG_TARGET	n/a	LTP200	ltpFR	19	3	0	TOASTER	1472	1	5	1	n/a	n/a	n/a	n/a	n/a
3424120	RECOG_RESP	n/a	LTP200	ltpFR	19	3	0	TOASTER	1472	1	n/a	1	n/a	n/a	n/a	n/a	n/a
3424546	RECOG_CONF	n/a	LTP200	ltpFR	19	3	0	TOASTER	1472	n/a	5	1	n/a	n/a	n/a	n/a	n/a
3426037	RECOG_TARGET	n/a	LTP200	ltpFR	19	3	-1	PARIS	1014	1	5	-1	n/a	n/a	n/a	n/a	n/a
3426720	RECOG_RESP	n/a	LTP200	ltpFR	19	3	-1	PARIS	1014	1	n/a	-1	n/a	n/a	n/a	n/a	n/a
3427179	RECOG_CONF	n/a	LTP200	ltpFR	19	3	-1	PARIS	1014	n/a	5	-1	n/a	n/a	n/a	n/a	n/a
3428633	RECOG_TARGET	n/a	LTP200	ltpFR	19	3	-1	MARINE	869	1	5	-1	n/a	n/a	n/a	n/a	n/a
3429317	RECOG_RESP	n/a	LTP200	ltpFR	19	3	-1	MARINE	869	1	n/a	-1	n/a	n/a	n/a	n/a	n/a
3429789	RECOG_CONF	n/a	LTP200	ltpFR	19	3	-1	MARINE	869	n/a	5	-1	n/a	n/a	n/a	n/a	n/a
3431296	RECOG_TARGET	n/a	LTP200	ltpFR	19	3	1	LABYRINTH	791	1	4	0	n/a	n/a	n/a	n/a	n/a
3432017	RECOG_RESP	n/a	LTP200	ltpFR	19	3	1	LABYRINTH	791	1	n/a	0	n/a	n/a	n/a	n/a	n/a
3432507	RECOG_CONF	n/a	LTP200	ltpFR	19	3	1	LABYRINTH	791	n/a	4	0	n/a	n/a	n/a	n/a	n/a
3433975	RECOG_LURE	n/a	LTP200	ltpFR	19	3	n/a	CHAIN	273	1	1	n/a	n/a	n/a	n/a	n/a	n/a
3436046	RECOG_RESP	n/a	LTP200	ltpFR	19	3	n/a	CHAIN	273	1	n/a	n/a	n/a	n/a	n/a	n/a	n/a
3436485	RECOG_CONF	n/a	LTP200	ltpFR	19	3	n/a	CHAIN	273	n/a	1	n/a	n/a	n/a	n/a	n/a	n/a
3438119	RECOG_TARGET	n/a	LTP200	ltpFR	19	3	1	BUTTERFLY	206	1	3	1	n/a	n/a	n/a	n/a	n/a
3438958	RECOG_RESP	n/a	LTP200	ltpFR	19	3	1	BUTTERFLY	206	1	n/a	1	n/a	n/a	n/a	n/a	n/a
3439409	RECOG_CONF	n/a	LTP200	ltpFR	19	3	1	BUTTERFLY	206	n/a	3	1	n/a	n/a	n/a	n/a	n/a
3441015	RECOG_LURE	n/a	LTP200	ltpFR	19	3	n/a	CLASS	318	0	2	n/a	n/a	n/a	n/a	n/a	n/a
3441776	RECOG_RESP	n/a	LTP200	ltpFR	19	3	n/a	CLASS	318	0	n/a	n/a	n/a	n/a	n/a	n/a	n/a
3442263	RECOG_CONF	n/a	LTP200	ltpFR	19	3	n/a	CLASS	318	n/a	2	n/a	n/a	n/a	n/a	n/a	n/a
3443744	RECOG_TARGET	n/a	LTP200	ltpFR	19	3	-1	REGISTER	1180	1	2	-1	n/a	n/a	n/a	n/a	n/a
3444444	RECOG_RESP	n/a	LTP200	ltpFR	19	3	-1	REGISTER	1180	1	n/a	-1	n/a	n/a	n/a	n/a	n/a
3444910	RECOG_CONF	n/a	LTP200	ltpFR	19	3	-1	REGISTER	1180	n/a	2	-1	n/a	n/a	n/a	n/a	n/a
3446523	RECOG_TARGET	n/a	LTP200	ltpFR	19	3	-1	EDITORIAL	517	1	1	-1	n/a	n/a	n/a	n/a	n/a
3447390	RECOG_RESP	n/a	LTP200	ltpFR	19	3	-1	EDITORIAL	517	1	n/a	-1	n/a	n/a	n/a	n/a	n/a
3447808	RECOG_CONF	n/a	LTP200	ltpFR	19	3	-1	EDITORIAL	517	n/a	1	-1	n/a	n/a	n/a	n/a	n/a
3449436	RECOG_TARGET	n/a	LTP200	ltpFR	19	3	-1	APARTMENT	30	1	4	-1	n/a	n/a	n/a	n/a	n/a
3450662	RECOG_RESP	n/a	LTP200	ltpFR	19	3	-1	APARTMENT	30	1	n/a	-1	n/a	n/a	n/a	n/a	n/a
3451155	RECOG_CONF	n/a	LTP200	ltpFR	19	3	-1	APARTMENT	30	n/a	4	-1	n/a	n/a	n/a	n/a	n/a
3452731	RECOG_TARGET	n/a	LTP200	ltpFR	19	3	1	MALL	860	1	3	0	n/a	n/a	n/a	n/a	n/a
3454001	RECOG_RESP	n/a	LTP200	ltpFR	19	3	1	MALL	860	1	n/a	0	n/a	n/a	n/a	n/a	n/a
3454563	RECOG_CONF	n/a	LTP200	ltpFR	19	3	1	MALL	860	n/a	3	0	n/a	n/a	n/a	n/a	n/a
3456042	RECOG_TARGET	n/a	LTP200	ltpFR	19	3	0	BROOM	178	1	5	1	n/a	n/a	n/a	n/a	n/a
3456888	RECOG_RESP	n/a	LTP200	ltpFR	19	3	0	BROOM	178	1	n/a	1	n/a	n/a	n/a	n/a	n/a
3457371	RECOG_CONF	n/a	LTP200	ltpFR	19	3	0	BROOM	178	n/a	5	1	n/a	n/a	n/a	n/a	n/a
3458938	RECOG_TARGET	n/a	LTP200	ltpFR	19	3	-1	OCTOPUS	971	1	5	-1	n/a	n/a	n/a	n/a	n/a
3459597	RECOG_RESP	n/a	LTP200	ltpFR	19	3	-1	OCTOPUS	971	1	n/a	-1	n/a	n/a	n/a	n/a	n/a
3460004	RECOG_CONF	n/a	LTP200	ltpFR	19	3	-1	OCTOPUS	971	n/a	5	-1	n/a	n/a	n/a	n/a	n/a
3461601	RECOG_TARGET	n/a	LTP200	ltpFR	19	3	0	RAISIN	1163	1	1	0	n/a	n/a	n/a	n/a	n/a
3462318	RECOG_RESP	n/a	LTP200	ltpFR	19	3	0	RAISIN	1163	1	n/a	0	n/a	n/a	n/a	n/a	n/a
3462756	RECOG_CONF	n/a	LTP200	ltpFR	19	3	0	RAISIN	1163	n/a	1	0	n/a	n/a	n/a	n/a	n/a
3464263	RECOG_TARGET	n/a	LTP200	ltpFR	19	3	1	COMMITTEE	355	1	2	1	n/a	n/a	n/a	n/a	n/a
3465066	RECOG_RESP	n/a	LTP200	ltpFR	19	3	1	COMMITTEE	355	1	n/a	1	n/a	n/a	n/a	n/a	n/a
3465533	RECOG_CONF	n/a	LTP200	ltpFR	19	3	1	COMMITTEE	355	n/a	2	1	n/a	n/a	n/a	n/a	n/a
3467109	RECOG_TARGET	n/a	LTP200	ltpFR	19	3	0	BRAN	167	1	3	0	n/a	n/a	n/a	n/a	n/a
3467808	RECOG_RESP	n/a	LTP200	ltpFR	19	3	0	BRAN	167	1	n/a	0	n/a	n/a	n/a	n/a	n/a
3468315	RECOG_CONF	n/a	LTP200	ltpFR	19	3	0	BRAN	167	n/a	3	0	n/a	n/a	n/a	n/a	n/a
3472188	REC_START	n/a	LTP200	ltpFR	19	4	n/a	n/a	n/a	n/a	n/a	n/a	n/a	n/a	n/a	n/a	n/a
3472218	RECOG_TARGET	n/a	LTP200	ltpFR	19	4	0	SALMON	1227	1	5	0	n/a	n/a	n/a	n/a	n/a
3472913	RECOG_RESP	n/a	LTP200	ltpFR	19	4	0	SALMON	1227	1	n/a	0	n/a	n/a	n/a	n/a	n/a
3473390	RECOG_CONF	n/a	LTP200	ltpFR	19	4	0	SALMON	1227	n/a	5	0	n/a	n/a	n/a	n/a	n/a
3474914	RECOG_TARGET	n/a	LTP200	ltpFR	19	4	1	REFRIGERATOR	1179	1	4	0	n/a	n/a	n/a	n/a	n/a
3475684	RECOG_RESP	n/a	LTP200	ltpFR	19	4	1	REFRIGERATOR	1179	1	n/a	0	n/a	n/a	n/a	n/a	n/a
3476104	RECOG_CONF	n/a	LTP200	ltpFR	19	4	1	REFRIGERATOR	1179	n/a	4	0	n/a	n/a	n/a	n/a	n/a
3477593	RECOG_LURE	n/a	LTP200	ltpFR	19	4	n/a	PROTRACTOR	1133	0	3	n/a	n/a	n/a	n/a	n/a	n/a
3478644	RECOG_RESP	n/a	LTP200	ltpFR	19	4	n/a	PROTRACTOR	1133	0	n/a	n/a	n/a	n/a	n/a	n/a	n/a
3479133	RECOG_CONF	n/a	LTP200	ltpFR	19	4	n/a	PROTRACTOR	1133	n/a	3	n/a	n/a	n/a	n/a	n/a	n/a
3480705	RECOG_TARGET	n/a	LTP200	ltpFR	19	4	1	TOE	1473	1	3	0	n/a	n/a	n/a	n/a	n/a
3481457	RECOG_RESP	n/a	LTP200	ltpFR	19	4	1	TOE	1473	1	n/a	0	n/a	n/a	n/a	n/a	n/a
3481921	RECOG_CONF	n/a	LTP200	ltpFR	19	4	1	TOE	1473	n/a	3	0	n/a	n/a	n/a	n/a	n/a
3483451	RECOG_TARGET	n/a	LTP200	ltpFR	19	4	1	CHEF	290	1	5	1	n/a	n/a	n/a	n/a	n/a
3484167	RECOG_RESP	n/a	LTP200	ltpFR	19	4	1	CHEF	290	1	n/a	1	n/a	n/a	n/a	n/a	n/a
3484625	RECOG_CONF	n/a	LTP200	ltpFR	19	4	1	CHEF	290	n/a	5	1	n/a	n/a	n/a	n/a	n/a
3486380	RECOG_TARGET	n/a	LTP200	ltpFR	19	4	1	DOOR	486	1	4	0	n/a	n/a	n/a	n/a	n/a
3487264	RECOG_RESP	n/a	LTP200	ltpFR	19	4	1	DOOR	486	1	n/a	0	n/a	n/a	n/a	n/a	n/a
3487837	RECOG_CONF	n/a	LTP200	ltpFR	19	4	1	DOOR	486	n/a	4	0	n/a	n/a	n/a	n/a	n/a
3489293	RECOG_TARGET	n/a	LTP200	ltpFR	19	4	0	POLICE	1098	1	4	1	n/a	n/a	n/a	n/a	n/a
3489945	RECOG_RESP	n/a	LTP200	ltpFR	19	4	0	POLICE	1098	1	n/a	1	n/a	n/a	n/a	n/a	n/a
3490471	RECOG_CONF	n/a	LTP200	ltpFR	19	4	0	POLICE	1098	n/a	4	1	n/a	n/a	n/a	n/a	n/a
3492039	RECOG_TARGET	n/a	LTP200	ltpFR	19	4	-1	CAGE	218	0	1	-1	n/a	n/a	n/a	n/a	n/a
3493186	RECOG_RESP	n/a	LTP200	ltpFR	19	4	-1	CAGE	218	0	n/a	-1	n/a	n/a	n/a	n/a	n/a
3493664	RECOG_CONF	n/a	LTP200	ltpFR	19	4	-1	CAGE	218	n/a	1	-1	n/a	n/a	n/a	n/a	n/a
3495167	RECOG_LURE	n/a	LTP200	ltpFR	19	4	n/a	BIRD	129	0	1	n/a	n/a	n/a	n/a	n/a	n/a
3496145	RECOG_RESP	n/a	LTP200	ltpFR	19	4	n/a	BIRD	129	0	n/a	n/a	n/a	n/a	n/a	n/a	n/a
3496591	RECOG_CONF	n/a	LTP200	ltpFR	19	4	n/a	BIRD	129	n/a	1	n/a	n/a	n/a	n/a	n/a	n/a
3498063	RECOG_TARGET	n/a	LTP200	ltpFR	19	4	0	CLAW	319	1	5	0	n/a	n/a	n/a	n/a	n/a
3498723	RECOG_RESP	n/a	LTP200	ltpFR	19	4	0	CLAW	319	1	n/a	0	n/a	n/a	n/a	n/a	n/a
3499132	RECOG_CONF	n/a	LTP200	ltpFR	19	4	0	CLAW	319	n/a	5	0	n/a	n/a	n/a	n/a	n/a
3500659	RECOG_LURE	n/a	LTP200	ltpFR	19	4	n/a	BANJO	82	0	3	n/a	n/a	n/a	n/a	n/a	n/a
3501357	RECOG_RESP	n/a	LTP200	ltpFR	19	4	n/a	BANJO	82	0	n/a	n/a	n/a	n/a	n/a	n/a	n/a
3501794	RECOG_CONF	n/a	LTP200	ltpFR	19	4	n/a	BANJO	82	n/a	3	n/a	n/a	n/a	n/a	n/a	n/a
3503322	RECOG_TARGET	n/a	LTP200	ltpFR	19	4	0	IGLOO	734	1	3	1	n/a	n/a	n/a	n/a	n/a
3503993	RECOG_RESP	n/a	LTP200	ltpFR	19	4	0	IGLOO	734	1	n/a	1	n/a	n/a	n/a	n/a	n/a
3504461	RECOG_CONF	n/a	LTP200	ltpFR	19	4	0	IGLOO	734	n/a	3	1	n/a	n/a	n/a	n/a	n/a
3506034	RECOG_LURE	n/a	LTP200	ltpFR	19	4	n/a	CUPBOARD	425	0	1	n/a	n/a	n/a	n/a	n/a	n/a
3506868	RECOG_RESP	n/a	LTP200	ltpFR	19	4	n/a	CUPBOARD	425	0	n/a	n/a	n/a	n/a	n/a	n/a	n/a
3507304	RECOG_CONF	n/a	LTP200	ltpFR	19	4	n/a	CUPBOARD	425	n/a	1	n/a	n/a	n/a	n/a	n/a	n/a
3509263	RECOG_TARGET	n/a	LTP200	ltpFR	19	4	1	THUMB	1462	1	2	0	n/a	n/a	n/a	n/a	n/a
3510676	RECOG_RESP	n/a	LTP200	ltpFR	19	4	1	THUMB	1462	1	n/a	0	n/a	n/a	n/a	n/a	n/a
3511256	RECOG_CONF	n/a	LTP200	ltpFR	19	4	1	THUMB	1462	n/a	2	0	n/a	n/a	n/a	n/a	n/a
3512874	RECOG_LURE	n/a	LTP200	ltpFR	19	4	n/a	MARSH	874	0	2	n/a	n/a	n/a	n/a	n/a	n/a
3514905	RECOG_RESP	n/a	LTP200	ltpFR	19	4	n/a	MARSH	874	0	n/a	n/a	n/a	n/a	n/a	n/a	n/a
3515401	RECOG_CONF	n/a	LTP200	ltpFR	19	4	n/a	MARSH	874	n/a	2	n/a	n/a	n/a	n/a	n/a	n/a
3517001	RECOG_TARGET	n/a	LTP200	ltpFR	19	4	1	TROMBONE	1508	1	5	0	n/a	n/a	n/a	n/a	n/a
3517745	RECOG_RESP	n/a	LTP200	ltpFR	19	4	1	TROMBONE	1508	1	n/a	0	n/a	n/a	n/a	n/a	n/a
3518174	RECOG_CONF	n/a	LTP200	ltpFR	19	4	1	TROMBONE	1508	n/a	5	0	n/a	n/a	n/a	n/a	n/a
3519780	RECOG_TARGET	n/a	LTP200	ltpFR	19	4	1	LINEN	825	1	5	0	n/a	n/a	n/a	n/a	n/a
3520445	RECOG_RESP	n/a	LTP200	ltpFR	19	4	1	LINEN	825	1	n/a	0	n/a	n/a	n/a	n/a	n/a
3520788	RECOG_CONF	n/a	LTP200	ltpFR	19	4	1	LINEN	825	n/a	5	0	n/a	n/a	n/a	n/a	n/a
3522260	RECOG_LURE	n/a	LTP200	ltpFR	19	4	n/a	PENCIL	1042	0	3	n/a	n/a	n/a	n/a	n/a	n/a
3522958	RECOG_RESP	n/a	LTP200	ltpFR	19	4	n/a	PENCIL	1042	0	n/a	n/a	n/a	n/a	n/a	n/a	n/a
3523376	RECOG_CONF	n/a	LTP200	ltpFR	19	4	n/a	PENCIL	1042	n/a	3	n/a	n/a	n/a	n/a	n/a	n/a
3524939	RECOG_TARGET	n/a	LTP200	ltpFR	19	4	0	REBEL	1172	1	4	1	n/a	n/a	n/a	n/a	n/a
3525541	RECOG_RESP	n/a	LTP200	ltpFR	19	4	0	REBEL	1172	1	n/a	1	n/a	n/a	n/a	n/a	n/a
3526040	RECOG_CONF	n/a	LTP200	ltpFR	19	4	0	REBEL	1172	n/a	4	1	n/a	n/a	n/a	n/a	n/a
3527519	RECOG_TARGET	n/a	LTP200	ltpFR	19	4	0	SANDWICH	1232	1	5	0	n/a	n/a	n/a	n/a	n/a
3528389	RECOG_RESP	n/a	LTP200	ltpFR	19	4	0	SANDWICH	1232	1	n/a	0	n/a	n/a	n/a	n/a	n/a
3528844	RECOG_CONF	n/a	LTP200	ltpFR	19	4	0	SANDWICH	1232	n/a	5	0	n/a	n/a	n/a	n/a	n/a
3539045	REC_START	n/a	LTP200	ltpFR	19	5	n/a	n/a	n/a	n/a	n/a	n/a	n/a	n/a	n/a	n/a	n/a
3539085	RECOG_TARGET	n/a	LTP200	ltpFR	19	5	1	CLAM	315	1	4	1	n/a	n/a	n/a	n/a	n/a
3539736	RECOG_RESP	n/a	LTP200	ltpFR	19	5	1	CLAM	315	1	n/a	1	n/a	n/a	n/a	n/a	n/a
3540147	RECOG_CONF	n/a	LTP200	ltpFR	19	5	1	CLAM	315	n/a	4	1	n/a	n/a	n/a	n/a	n/a
3541714	RECOG_TARGET	n/a	LTP200	ltpFR	19	5	-1	CAP	236	1	4	-1	n/a	n/a	n/a	n/a	n/a
3542273	RECOG_RESP	n/a	LTP200	ltpFR	19	5	-1	CAP	236	1	n/a	-1	n/a	n/a	n/a	n/a	n/a
3542627	RECOG_CONF	n/a	LTP200	ltpFR	19	5	-1	CAP	236	n/a	4	-1	n/a	n/a	n/a	n/a	n/a
3544227	RECOG_TARGET	n/a	LTP200	ltpFR	19	5	0	CUSTARD	429	0	3	0	n/a	n/a	n/a	n/a	n/a
3544902	RECOG_RESP	n/a	LTP200	ltpFR	19	5	0	CUSTARD	429	0	n/a	0	n/a	n/a	n/a	n/a	n/a
3545365	RECOG_CONF	n/a	LTP200	ltpFR	19	5	0	CUSTARD	429	n/a	3	0	n/a	n/a	n/a	n/a	n/a
3546823	RECOG_TARGET	n/a	LTP200	ltpFR	19	5	1	SHRIMP	1297	1	1	1	n/a	n/a	n/a	n/a	n/a
3547625	RECOG_RESP	n/a	LTP200	ltpFR	19	5	1	SHRIMP	1297	1	n/a	1	n/a	n/a	n/a	n/a	n/a
3548066	RECOG_CONF	n/a	LTP200	ltpFR	19	5	1	SHRIMP	1297	n/a	1	1	n/a	n/a	n/a	n/a	n/a
3549586	RECOG_TARGET	n/a	LTP200	ltpFR	19	5	-1	SILVERWARE	1308	1	2	-1	n/a	n/a	n/a	n/a	n/a
3550175	RECOG_RESP	n/a	LTP200	ltpFR	19	5	-1	SILVERWARE	1308	1	n/a	-1	n/a	n/a	n/a	n/a	n/a
3550618	RECOG_CONF	n/a	LTP200	ltpFR	19	5	-1	SILVERWARE	1308	n/a	2	-1	n/a	n/a	n/a	n/a	n/a
3552132	RECOG_TARGET	n/a	LTP200	ltpFR	19	5	0	RUNNER	1218	1	4	1	n/a	n/a	n/a	n/a	n/a
3552863	RECOG_RESP	n/a	LTP200	ltpFR	19	5	0	RUNNER	1218	1	n/a	1	n/a	n/a	n/a	n/a	n/a
3553311	RECOG_CONF	n/a	LTP200	ltpFR	19	5	0	RUNNER	1218	n/a	4	1	n/a	n/a	n/a	n/a	n/a
3554828	RECOG_TARGET	n/a	LTP200	ltpFR	19	5	0	DOUGHNUT	490	1	3	0	n/a	n/a	n/a	n/a	n/a
3555519	RECOG_RESP	n/a	LTP200	ltpFR	19	5	0	DOUGHNUT	490	1	n/a	0	n/a	n/a	n/a	n/a	n/a
3555956	RECOG_CONF	n/a	LTP200	ltpFR	19	5	0	DOUGHNUT	490	n/a	3	0	n/a	n/a	n/a	n/a	n/a
3557507	RECOG_TARGET	n/a	LTP200	ltpFR	19	5	1	CABBAGE	210	1	4	0	n/a	n/a	n/a	n/a	n/a
3558083	RECOG_RESP	n/a	LTP200	ltpFR	19	5	1	CABBAGE	210	1	n/a	0	n/a	n/a	n/a	n/a	n/a
3558595	RECOG_CONF	n/a	LTP200	ltpFR	19	5	1	CABBAGE	210	n/a	4	0	n/a	n/a	n/a	n/a	n/a
3560004	RECOG_TARGET	n/a	LTP200	ltpFR	19	5	-1	LONDON	843	1	5	-1	n/a	n/a	n/a	n/a	n/a
3560770	RECOG_RESP	n/a	LTP200	ltpFR	19	5	-1	LONDON	843	1	n/a	-1	n/a	n/a	n/a	n/a	n/a
3561152	RECOG_CONF	n/a	LTP200	ltpFR	19	5	-1	LONDON	843	n/a	5	-1	n/a	n/a	n/a	n/a	n/a
3562683	RECOG_TARGET	n/a	LTP200	ltpFR	19	5	-1	CONTRACT	368	0	1	-1	n/a	n/a	n/a	n/a	n/a
3563434	RECOG_RESP	n/a	LTP200	ltpFR	19	5	-1	CONTRACT	368	0	n/a	-1	n/a	n/a	n/a	n/a	n/a
3563883	RECOG_CONF	n/a	LTP200	ltpFR	19	5	-1	CONTRACT	368	n/a	1	-1	n/a	n/a	n/a	n/a	n/a
3565512	RECOG_TARGET	n/a	LTP200	ltpFR	19	5	-1	TURKEY	1520	1	2	-1	n/a	n/a	n/a	n/a	n/a
3566194	RECOG_RESP	n/a	LTP200	ltpFR	19	5	-1	TURKEY	1520	1	n/a	-1	n/a	n/a	n/a	n/a	n/a
3566727	RECOG_CONF	n/a	LTP200	ltpFR	19	5	-1	TURKEY	1520	n/a	2	-1	n/a	n/a	n/a	n/a	n/a
3568158	RECOG_LURE	n/a	LTP200	ltpFR	19	5	n/a	WINNER	1615	1	1	n/a	n/a	n/a	n/a	n/a	n/a
3568805	RECOG_RESP	n/a	LTP200	ltpFR	19	5	n/a	WINNER	1615	1	n/a	n/a	n/a	n/a	n/a	n/a	n/a
3569218	RECOG_CONF	n/a	LTP200	ltpFR	19	5	n/a	WINNER	1615	n/a	1	n/a	n/a	n/a	n/a	n/a	n/a
3570821	RECOG_TARGET	n/a	LTP200	ltpFR	19	5	-1	TWISTER	1530	1	4	-1	n/a	n/a	n/a	n/a	n/a
3571759	RECOG_RESP	n/a	LTP200	ltpFR	19	5	-1	TWISTER	1530	1	n/a	-1	n/a	n/a	n/a	n/a	n/a
