mstime	trial_type	stim_file	subject	experiment	session	trial	task	item_name	item_num	recog_conf	resp	color_b	color_g	color_r	case	font
0	SESS_START	n/a	LTP104	ltpFR	14	n/a	n/a	n/a	n/a	n/a	n/a	n/a	n/a	n/a	n/a	n/a
36232	WORD	wordpools/wasnorm_wordpool.txt	LTP104	ltpFR	14	1	0	WHEAT	1602	n/a	0	1	0.412841796875	0.57763671875	upper	../fonts/zerothre.ttf
40291	WORD	wordpools/wasnorm_wordpool.txt	LTP104	ltpFR	14	1	0	MERMAID	887	n/a	1	1	0.412841796875	0.57763671875	upper	../fonts/zerothre.ttf
44282	WORD	wordpools/wasnorm_wordpool.txt	LTP104	ltpFR	14	1	0	SHELL	1281	n/a	0	1	0.412841796875	0.57763671875	upper	../fonts/zerothre.ttf
48323	WORD	wordpools/wasnorm_wordpool.txt	LTP104	ltpFR	14	1	0	MARKET	871	n/a	1	1	0.412841796875	0.57763671875	upper	../fonts/zerothre.ttf
52130	WORD	wordpools/wasnorm_wordpool.txt	LTP104	ltpFR	14	1	1	PIKE	1067	n/a	1	0	0.5869140625	0.422607421875	lower	../fonts/amplitud.ttf
56055	WORD	wordpools/wasnorm_wordpool.txt	LTP104	ltpFR	14	1	1	BAG	69	n/a	0	0	0.5869140625	0.422607421875	lower	../fonts/amplitud.ttf
60264	WORD	wordpools/wasnorm_wordpool.txt	LTP104	ltpFR	14	1	0	TOTE	1487	n/a	0	1	0.412841796875	0.57763671875	upper	../fonts/zerothre.ttf
64355	WORD	wordpools/wasnorm_wordpool.txt	LTP104	ltpFR	14	1	0	SUPERMARKET	1409	n/a	1	1	0.412841796875	0.57763671875	upper	../fonts/zerothre.ttf
68196	WORD	wordpools/wasnorm_wordpool.txt	LTP104	ltpFR	14	1	1	WILDERNESS	1610	n/a	0	0	0.5869140625	0.422607421875	lower	../fonts/amplitud.ttf
72280	WORD	wordpools/wasnorm_wordpool.txt	LTP104	ltpFR	14	1	1	BUTLER	204	n/a	1	0	0.5869140625	0.422607421875	lower	../fonts/amplitud.ttf
76338	WORD	wordpools/wasnorm_wordpool.txt	LTP104	ltpFR	14	1	1	MONASTERY	907	n/a	0	0	0.5869140625	0.422607421875	lower	../fonts/amplitud.ttf
80228	WORD	wordpools/wasnorm_wordpool.txt	LTP104	ltpFR	14	1	1	GOAT	644	n/a	1	0	0.5869140625	0.422607421875	lower	../fonts/amplitud.ttf
84136	WORD	wordpools/wasnorm_wordpool.txt	LTP104	ltpFR	14	1	1	MILK	895	n/a	0	0	0.5869140625	0.422607421875	lower	../fonts/amplitud.ttf
88228	WORD	wordpools/wasnorm_wordpool.txt	LTP104	ltpFR	14	1	1	LOBSTER	837	n/a	1	0	0.5869140625	0.422607421875	lower	../fonts/amplitud.ttf
92102	WORD	wordpools/wasnorm_wordpool.txt	LTP104	ltpFR	14	1	0	FAMILY	550	n/a	1	1	0.412841796875	0.57763671875	upper	../fonts/zerothre.ttf
96052	WORD	wordpools/wasnorm_wordpool.txt	LTP104	ltpFR	14	1	0	MOB	904	n/a	1	1	0.412841796875	0.57763671875	upper	../fonts/zerothre.ttf
101977	REC_START	n/a	LTP104	ltpFR	14	1	n/a	n/a	n/a	n/a	n/a	n/a	n/a	n/a	n/a	n/a
103458	REC_WORD	wordpools/wasnorm_wordpool.txt	LTP104	ltpFR	14	1	0	MOB	904	n/a	1	n/a	n/a	n/a	n/a	n/a
104680	REC_WORD	wordpools/wasnorm_wordpool.txt	LTP104	ltpFR	14	1	0	FAMILY	550	n/a	1	n/a	n/a	n/a	n/a	n/a
106142	REC_WORD	wordpools/wasnorm_wordpool.txt	LTP104	ltpFR	14	1	0	WHEAT	1602	n/a	0	n/a	n/a	n/a	n/a	n/a
107330	REC_WORD	wordpools/wasnorm_wordpool.txt	LTP104	ltpFR	14	1	0	MERMAID	887	n/a	1	n/a	n/a	n/a	n/a	n/a
108891	REC_WORD	wordpools/wasnorm_wordpool.txt	LTP104	ltpFR	14	1	0	MARKET	871	n/a	1	n/a	n/a	n/a	n/a	n/a
110238	REC_WORD	wordpools/wasnorm_wordpool.txt	LTP104	ltpFR	14	1	0	SUPERMARKET	1409	n/a	1	n/a	n/a	n/a	n/a	n/a
111944	REC_WORD	wordpools/wasnorm_wordpool.txt	LTP104	ltpFR	14	1	1	PIKE	1067	n/a	1	n/a	n/a	n/a	n/a	n/a
113046	REC_WORD_VV	wordpools/wasnorm_wordpool.txt	LTP104	ltpFR	14	1	n/a	<>	-1	n/a	n/a	n/a	n/a	n/a	n/a	n/a
114364	REC_WORD	wordpools/wasnorm_wordpool.txt	LTP104	ltpFR	14	1	1	LOBSTER	837	n/a	1	n/a	n/a	n/a	n/a	n/a
115716	REC_WORD	wordpools/wasnorm_wordpool.txt	LTP104	ltpFR	14	1	1	GOAT	644	n/a	1	n/a	n/a	n/a	n/a	n/a
117287	REC_WORD	wordpools/wasnorm_wordpool.txt	LTP104	ltpFR	14	1	1	MILK	895	n/a	0	n/a	n/a	n/a	n/a	n/a
118494	REC_WORD	wordpools/wasnorm_wordpool.txt	LTP104	ltpFR	14	1	0	MOB	904	n/a	1	n/a	n/a	n/a	n/a	n/a
119841	REC_WORD	wordpools/wasnorm_wordpool.txt	LTP104	ltpFR	14	1	1	MONASTERY	907	n/a	0	n/a	n/a	n/a	n/a	n/a
121288	REC_WORD	wordpools/wasnorm_wordpool.txt	LTP104	ltpFR	14	1	1	BUTLER	204	n/a	1	n/a	n/a	n/a	n/a	n/a
122216	REC_WORD	wordpools/wasnorm_wordpool.txt	LTP104	ltpFR	14	1	0	FAMILY	550	n/a	1	n/a	n/a	n/a	n/a	n/a
125483	REC_WORD_VV	wordpools/wasnorm_wordpool.txt	LTP104	ltpFR	14	1	n/a	<>	-1	n/a	n/a	n/a	n/a	n/a	n/a	n/a
125818	REC_WORD	wordpools/wasnorm_wordpool.txt	LTP104	ltpFR	14	1	n/a	SEA	1259	n/a	n/a	n/a	n/a	n/a	n/a	n/a
126052	REC_WORD	wordpools/wasnorm_wordpool.txt	LTP104	ltpFR	14	1	0	SHELL	1281	n/a	0	n/a	n/a	n/a	n/a	n/a
133794	REC_WORD	wordpools/wasnorm_wordpool.txt	LTP104	ltpFR	14	1	0	TOTE	1487	n/a	0	n/a	n/a	n/a	n/a	n/a
134672	REC_WORD	wordpools/wasnorm_wordpool.txt	LTP104	ltpFR	14	1	1	BAG	69	n/a	0	n/a	n/a	n/a	n/a	n/a
180954	WORD	wordpools/wasnorm_wordpool.txt	LTP104	ltpFR	14	2	1	HOSPITAL	721	n/a	0	0	0.5869140625	0.422607421875	lower	../fonts/amplitud.ttf
184937	WORD	wordpools/wasnorm_wordpool.txt	LTP104	ltpFR	14	2	1	PEOPLE	1046	n/a	1	0	0.5869140625	0.422607421875	lower	../fonts/amplitud.ttf
188962	WORD	wordpools/wasnorm_wordpool.txt	LTP104	ltpFR	14	2	1	GREASE	660	n/a	0	0	0.5869140625	0.422607421875	lower	../fonts/amplitud.ttf
193145	WORD	wordpools/wasnorm_wordpool.txt	LTP104	ltpFR	14	2	0	ASSOCIATE	49	n/a	1	1	0.412841796875	0.57763671875	upper	../fonts/zerothre.ttf
197011	WORD	wordpools/wasnorm_wordpool.txt	LTP104	ltpFR	14	2	0	SWAMP	1416	n/a	1	1	0.412841796875	0.57763671875	upper	../fonts/zerothre.ttf
201061	WORD	wordpools/wasnorm_wordpool.txt	LTP104	ltpFR	14	2	0	CATERPILLAR	259	n/a	0	1	0.412841796875	0.57763671875	upper	../fonts/zerothre.ttf
205094	WORD	wordpools/wasnorm_wordpool.txt	LTP104	ltpFR	14	2	0	SPIDER	1351	n/a	0	1	0.412841796875	0.57763671875	upper	../fonts/zerothre.ttf
209319	WORD	wordpools/wasnorm_wordpool.txt	LTP104	ltpFR	14	2	0	LUMBER	848	n/a	1	1	0.412841796875	0.57763671875	upper	../fonts/zerothre.ttf
213352	WORD	wordpools/wasnorm_wordpool.txt	LTP104	ltpFR	14	2	1	CARPENTER	246	n/a	1	0	0.5869140625	0.422607421875	lower	../fonts/amplitud.ttf
217394	WORD	wordpools/wasnorm_wordpool.txt	LTP104	ltpFR	14	2	1	TOWN	1491	n/a	0	0	0.5869140625	0.422607421875	lower	../fonts/amplitud.ttf
221226	WORD	wordpools/wasnorm_wordpool.txt	LTP104	ltpFR	14	2	1	FELLOW	558	n/a	1	0	0.5869140625	0.422607421875	lower	../fonts/amplitud.ttf
225175	WORD	wordpools/wasnorm_wordpool.txt	LTP104	ltpFR	14	2	1	SYRINGE	1424	n/a	0	0	0.5869140625	0.422607421875	lower	../fonts/amplitud.ttf
229276	WORD	wordpools/wasnorm_wordpool.txt	LTP104	ltpFR	14	2	1	BROCCOLI	176	n/a	0	0	0.5869140625	0.422607421875	lower	../fonts/amplitud.ttf
233359	WORD	wordpools/wasnorm_wordpool.txt	LTP104	ltpFR	14	2	0	GANG	619	n/a	1	1	0.412841796875	0.57763671875	upper	../fonts/zerothre.ttf
237183	WORD	wordpools/wasnorm_wordpool.txt	LTP104	ltpFR	14	2	0	FLEET	578	n/a	1	1	0.412841796875	0.57763671875	upper	../fonts/zerothre.ttf
241149	WORD	wordpools/wasnorm_wordpool.txt	LTP104	ltpFR	14	2	0	WATERFALL	1595	n/a	1	1	0.412841796875	0.57763671875	upper	../fonts/zerothre.ttf
247000	REC_START	n/a	LTP104	ltpFR	14	2	n/a	n/a	n/a	n/a	n/a	n/a	n/a	n/a	n/a	n/a
248357	REC_WORD	wordpools/wasnorm_wordpool.txt	LTP104	ltpFR	14	2	0	GANG	619	n/a	1	n/a	n/a	n/a	n/a	n/a
249602	REC_WORD	wordpools/wasnorm_wordpool.txt	LTP104	ltpFR	14	2	0	FLEET	578	n/a	1	n/a	n/a	n/a	n/a	n/a
251090	REC_WORD	wordpools/wasnorm_wordpool.txt	LTP104	ltpFR	14	2	0	WATERFALL	1595	n/a	1	n/a	n/a	n/a	n/a	n/a
252996	REC_WORD	wordpools/wasnorm_wordpool.txt	LTP104	ltpFR	14	2	1	PEOPLE	1046	n/a	1	n/a	n/a	n/a	n/a	n/a
253979	REC_WORD	wordpools/wasnorm_wordpool.txt	LTP104	ltpFR	14	2	1	HOSPITAL	721	n/a	0	n/a	n/a	n/a	n/a	n/a
255321	REC_WORD	wordpools/wasnorm_wordpool.txt	LTP104	ltpFR	14	2	1	GREASE	660	n/a	0	n/a	n/a	n/a	n/a	n/a
256463	REC_WORD	wordpools/wasnorm_wordpool.txt	LTP104	ltpFR	14	2	0	CATERPILLAR	259	n/a	0	n/a	n/a	n/a	n/a	n/a
259177	REC_WORD	wordpools/wasnorm_wordpool.txt	LTP104	ltpFR	14	2	0	ASSOCIATE	49	n/a	1	n/a	n/a	n/a	n/a	n/a
260599	REC_WORD	wordpools/wasnorm_wordpool.txt	LTP104	ltpFR	14	2	0	SWAMP	1416	n/a	1	n/a	n/a	n/a	n/a	n/a
264216	REC_WORD	wordpools/wasnorm_wordpool.txt	LTP104	ltpFR	14	2	1	BROCCOLI	176	n/a	0	n/a	n/a	n/a	n/a	n/a
276193	REC_WORD	wordpools/wasnorm_wordpool.txt	LTP104	ltpFR	14	2	1	CARPENTER	246	n/a	1	n/a	n/a	n/a	n/a	n/a
300319	REC_WORD	wordpools/wasnorm_wordpool.txt	LTP104	ltpFR	14	2	1	SYRINGE	1424	n/a	0	n/a	n/a	n/a	n/a	n/a
309458	REC_WORD	wordpools/wasnorm_wordpool.txt	LTP104	ltpFR	14	2	0	LUMBER	848	n/a	1	n/a	n/a	n/a	n/a	n/a
326544	WORD	wordpools/wasnorm_wordpool.txt	LTP104	ltpFR	14	3	1	PILLOW	1069	n/a	0	0	0.5869140625	0.422607421875	lower	../fonts/amplitud.ttf
330393	WORD	wordpools/wasnorm_wordpool.txt	LTP104	ltpFR	14	3	1	RASH	1167	n/a	0	0	0.5869140625	0.422607421875	lower	../fonts/amplitud.ttf
334418	WORD	wordpools/wasnorm_wordpool.txt	LTP104	ltpFR	14	3	1	PUCK	1138	n/a	0	0	0.5869140625	0.422607421875	lower	../fonts/amplitud.ttf
338484	WORD	wordpools/wasnorm_wordpool.txt	LTP104	ltpFR	14	3	0	GYMNAST	675	n/a	1	1	0.412841796875	0.57763671875	upper	../fonts/zerothre.ttf
342551	WORD	wordpools/wasnorm_wordpool.txt	LTP104	ltpFR	14	3	0	PAINT	1003	n/a	0	1	0.412841796875	0.57763671875	upper	../fonts/zerothre.ttf
346734	WORD	wordpools/wasnorm_wordpool.txt	LTP104	ltpFR	14	3	0	WASHCLOTH	1591	n/a	0	1	0.412841796875	0.57763671875	upper	../fonts/zerothre.ttf
350733	WORD	wordpools/wasnorm_wordpool.txt	LTP104	ltpFR	14	3	0	FOX	598	n/a	1	1	0.412841796875	0.57763671875	upper	../fonts/zerothre.ttf
354733	WORD	wordpools/wasnorm_wordpool.txt	LTP104	ltpFR	14	3	1	CEMETERY	269	n/a	0	0	0.5869140625	0.422607421875	lower	../fonts/amplitud.ttf
358708	WORD	wordpools/wasnorm_wordpool.txt	LTP104	ltpFR	14	3	1	TOWEL	1489	n/a	0	0	0.5869140625	0.422607421875	lower	../fonts/amplitud.ttf
362541	WORD	wordpools/wasnorm_wordpool.txt	LTP104	ltpFR	14	3	0	PAPER	1011	n/a	2	1	0.412841796875	0.57763671875	upper	../fonts/zerothre.ttf
363881	KEY_MSG	n/a	LTP104	ltpFR	14	3	n/a	n/a	n/a	n/a	n/a	n/a	n/a	n/a	n/a	n/a
366391	WORD	wordpools/wasnorm_wordpool.txt	LTP104	ltpFR	14	3	0	DOCUMENT	479	n/a	0	1	0.412841796875	0.57763671875	upper	../fonts/zerothre.ttf
370390	WORD	wordpools/wasnorm_wordpool.txt	LTP104	ltpFR	14	3	0	BOXER	160	n/a	1	1	0.412841796875	0.57763671875	upper	../fonts/zerothre.ttf
374432	WORD	wordpools/wasnorm_wordpool.txt	LTP104	ltpFR	14	3	0	PUPPY	1144	n/a	0	1	0.412841796875	0.57763671875	upper	../fonts/zerothre.ttf
378306	WORD	wordpools/wasnorm_wordpool.txt	LTP104	ltpFR	14	3	1	PEAR	1033	n/a	0	0	0.5869140625	0.422607421875	lower	../fonts/amplitud.ttf
382423	WORD	wordpools/wasnorm_wordpool.txt	LTP104	ltpFR	14	3	1	MOOSE	915	n/a	1	0	0.5869140625	0.422607421875	lower	../fonts/amplitud.ttf
386456	WORD	wordpools/wasnorm_wordpool.txt	LTP104	ltpFR	14	3	1	CANVAS	234	n/a	2	0	0.5869140625	0.422607421875	lower	../fonts/amplitud.ttf
388406	KEY_MSG	n/a	LTP104	ltpFR	14	3	n/a	n/a	n/a	n/a	n/a	n/a	n/a	n/a	n/a	n/a
392805	REC_START	n/a	LTP104	ltpFR	14	3	n/a	n/a	n/a	n/a	n/a	n/a	n/a	n/a	n/a	n/a
394421	REC_WORD	wordpools/wasnorm_wordpool.txt	LTP104	ltpFR	14	3	1	CANVAS	234	n/a	2	n/a	n/a	n/a	n/a	n/a
396381	REC_WORD	wordpools/wasnorm_wordpool.txt	LTP104	ltpFR	14	3	0	PUPPY	1144	n/a	0	n/a	n/a	n/a	n/a	n/a
397609	REC_WORD	wordpools/wasnorm_wordpool.txt	LTP104	ltpFR	14	3	1	MOOSE	915	n/a	1	n/a	n/a	n/a	n/a	n/a
399719	REC_WORD	wordpools/wasnorm_wordpool.txt	LTP104	ltpFR	14	3	1	CEMETERY	269	n/a	0	n/a	n/a	n/a	n/a	n/a
401355	REC_WORD	wordpools/wasnorm_wordpool.txt	LTP104	ltpFR	14	3	1	TOWEL	1489	n/a	0	n/a	n/a	n/a	n/a	n/a
402812	REC_WORD	wordpools/wasnorm_wordpool.txt	LTP104	ltpFR	14	3	0	WASHCLOTH	1591	n/a	0	n/a	n/a	n/a	n/a	n/a
404303	REC_WORD	wordpools/wasnorm_wordpool.txt	LTP104	ltpFR	14	3	0	PAINT	1003	n/a	0	n/a	n/a	n/a	n/a	n/a
405386	REC_WORD	wordpools/wasnorm_wordpool.txt	LTP104	ltpFR	14	3	0	FOX	598	n/a	1	n/a	n/a	n/a	n/a	n/a
406873	REC_WORD	wordpools/wasnorm_wordpool.txt	LTP104	ltpFR	14	3	0	GYMNAST	675	n/a	1	n/a	n/a	n/a	n/a	n/a
408429	REC_WORD	wordpools/wasnorm_wordpool.txt	LTP104	ltpFR	14	3	1	PEAR	1033	n/a	0	n/a	n/a	n/a	n/a	n/a
424945	REC_WORD	wordpools/wasnorm_wordpool.txt	LTP104	ltpFR	14	3	0	PAPER	1011	n/a	2	n/a	n/a	n/a	n/a	n/a
425984	REC_WORD	wordpools/wasnorm_wordpool.txt	LTP104	ltpFR	14	3	0	DOCUMENT	479	n/a	0	n/a	n/a	n/a	n/a	n/a
436610	REC_WORD	wordpools/wasnorm_wordpool.txt	LTP104	ltpFR	14	3	0	GYMNAST	675	n/a	1	n/a	n/a	n/a	n/a	n/a
641486	WORD	wordpools/wasnorm_wordpool.txt	LTP104	ltpFR	14	4	-1	FAN	551	n/a	-1	1	1.0	1.0	upper	../fonts/Verdana.ttf
645502	WORD	wordpools/wasnorm_wordpool.txt	LTP104	ltpFR	14	4	-1	CHECKERS	285	n/a	-1	1	1.0	1.0	upper	../fonts/Verdana.ttf
649344	WORD	wordpools/wasnorm_wordpool.txt	LTP104	ltpFR	14	4	-1	RUBY	1214	n/a	-1	1	1.0	1.0	upper	../fonts/Verdana.ttf
653502	WORD	wordpools/wasnorm_wordpool.txt	LTP104	ltpFR	14	4	-1	SAPPHIRE	1234	n/a	-1	1	1.0	1.0	upper	../fonts/Verdana.ttf
657393	WORD	wordpools/wasnorm_wordpool.txt	LTP104	ltpFR	14	4	-1	STOOL	1386	n/a	-1	1	1.0	1.0	upper	../fonts/Verdana.ttf
661260	WORD	wordpools/wasnorm_wordpool.txt	LTP104	ltpFR	14	4	-1	CHAUFFEUR	283	n/a	-1	1	1.0	1.0	upper	../fonts/Verdana.ttf
665208	WORD	wordpools/wasnorm_wordpool.txt	LTP104	ltpFR	14	4	-1	GRADUATE	653	n/a	-1	1	1.0	1.0	upper	../fonts/Verdana.ttf
669326	WORD	wordpools/wasnorm_wordpool.txt	LTP104	ltpFR	14	4	-1	VAN	1548	n/a	-1	1	1.0	1.0	upper	../fonts/Verdana.ttf
673409	WORD	wordpools/wasnorm_wordpool.txt	LTP104	ltpFR	14	4	-1	BOOTH	151	n/a	-1	1	1.0	1.0	upper	../fonts/Verdana.ttf
677525	WORD	wordpools/wasnorm_wordpool.txt	LTP104	ltpFR	14	4	-1	TRAY	1498	n/a	-1	1	1.0	1.0	upper	../fonts/Verdana.ttf
681616	WORD	wordpools/wasnorm_wordpool.txt	LTP104	ltpFR	14	4	-1	HIKER	708	n/a	-1	1	1.0	1.0	upper	../fonts/Verdana.ttf
685741	WORD	wordpools/wasnorm_wordpool.txt	LTP104	ltpFR	14	4	-1	DRYER	503	n/a	-1	1	1.0	1.0	upper	../fonts/Verdana.ttf
689649	WORD	wordpools/wasnorm_wordpool.txt	LTP104	ltpFR	14	4	-1	ATMOSPHERE	54	n/a	-1	1	1.0	1.0	upper	../fonts/Verdana.ttf
693707	WORD	wordpools/wasnorm_wordpool.txt	LTP104	ltpFR	14	4	-1	BASKET	95	n/a	-1	1	1.0	1.0	upper	../fonts/Verdana.ttf
697665	WORD	wordpools/wasnorm_wordpool.txt	LTP104	ltpFR	14	4	-1	KETTLE	772	n/a	-1	1	1.0	1.0	upper	../fonts/Verdana.ttf
701615	WORD	wordpools/wasnorm_wordpool.txt	LTP104	ltpFR	14	4	-1	CUP	424	n/a	-1	1	1.0	1.0	upper	../fonts/Verdana.ttf
707348	REC_START	n/a	LTP104	ltpFR	14	4	n/a	n/a	n/a	n/a	n/a	n/a	n/a	n/a	n/a	n/a
708765	REC_WORD	wordpools/wasnorm_wordpool.txt	LTP104	ltpFR	14	4	-1	CUP	424	n/a	-1	n/a	n/a	n/a	n/a	n/a
709972	REC_WORD	wordpools/wasnorm_wordpool.txt	LTP104	ltpFR	14	4	-1	KETTLE	772	n/a	-1	n/a	n/a	n/a	n/a	n/a
711219	REC_WORD	wordpools/wasnorm_wordpool.txt	LTP104	ltpFR	14	4	n/a	TEA	1439	n/a	n/a	n/a	n/a	n/a	n/a	n/a
713653	REC_WORD	wordpools/wasnorm_wordpool.txt	LTP104	ltpFR	14	4	-1	DRYER	503	n/a	-1	n/a	n/a	n/a	n/a	n/a
715055	REC_WORD	wordpools/wasnorm_wordpool.txt	LTP104	ltpFR	14	4	-1	ATMOSPHERE	54	n/a	-1	n/a	n/a	n/a	n/a	n/a
716327	REC_WORD	wordpools/wasnorm_wordpool.txt	LTP104	ltpFR	14	4	n/a	OZONE	996	n/a	n/a	n/a	n/a	n/a	n/a	n/a
719450	REC_WORD	wordpools/wasnorm_wordpool.txt	LTP104	ltpFR	14	4	-1	BASKET	95	n/a	-1	n/a	n/a	n/a	n/a	n/a
721395	REC_WORD	wordpools/wasnorm_wordpool.txt	LTP104	ltpFR	14	4	-1	FAN	551	n/a	-1	n/a	n/a	n/a	n/a	n/a
723097	REC_WORD	wordpools/wasnorm_wordpool.txt	LTP104	ltpFR	14	4	-1	CHECKERS	285	n/a	-1	n/a	n/a	n/a	n/a	n/a
725018	REC_WORD	wordpools/wasnorm_wordpool.txt	LTP104	ltpFR	14	4	-1	RUBY	1214	n/a	-1	n/a	n/a	n/a	n/a	n/a
726340	REC_WORD	wordpools/wasnorm_wordpool.txt	LTP104	ltpFR	14	4	-1	SAPPHIRE	1234	n/a	-1	n/a	n/a	n/a	n/a	n/a
728340	REC_WORD	wordpools/wasnorm_wordpool.txt	LTP104	ltpFR	14	4	n/a	DIAMOND	458	n/a	n/a	n/a	n/a	n/a	n/a	n/a
730321	REC_WORD	wordpools/wasnorm_wordpool.txt	LTP104	ltpFR	14	4	-1	STOOL	1386	n/a	-1	n/a	n/a	n/a	n/a	n/a
732141	REC_WORD	wordpools/wasnorm_wordpool.txt	LTP104	ltpFR	14	4	-1	CHAUFFEUR	283	n/a	-1	n/a	n/a	n/a	n/a	n/a
733792	REC_WORD	wordpools/wasnorm_wordpool.txt	LTP104	ltpFR	14	4	-1	VAN	1548	n/a	-1	n/a	n/a	n/a	n/a	n/a
735883	REC_WORD	wordpools/wasnorm_wordpool.txt	LTP104	ltpFR	14	4	-1	GRADUATE	653	n/a	-1	n/a	n/a	n/a	n/a	n/a
737809	REC_WORD	wordpools/wasnorm_wordpool.txt	LTP104	ltpFR	14	4	n/a	KING	777	n/a	n/a	n/a	n/a	n/a	n/a	n/a
773542	REC_WORD	wordpools/wasnorm_wordpool.txt	LTP104	ltpFR	14	4	-1	TRAY	1498	n/a	-1	n/a	n/a	n/a	n/a	n/a
812348	WORD	wordpools/wasnorm_wordpool.txt	LTP104	ltpFR	14	5	0	BLADE	134	n/a	0	1	0.412841796875	0.57763671875	upper	../fonts/zerothre.ttf
816356	WORD	wordpools/wasnorm_wordpool.txt	LTP104	ltpFR	14	5	0	BUTCHER	203	n/a	1	1	0.412841796875	0.57763671875	upper	../fonts/zerothre.ttf
820364	WORD	wordpools/wasnorm_wordpool.txt	LTP104	ltpFR	14	5	0	PRESIDENT	1121	n/a	1	1	0.412841796875	0.57763671875	upper	../fonts/zerothre.ttf
824314	WORD	wordpools/wasnorm_wordpool.txt	LTP104	ltpFR	14	5	0	STREET	1393	n/a	1	1	0.412841796875	0.57763671875	upper	../fonts/zerothre.ttf
828280	WORD	wordpools/wasnorm_wordpool.txt	LTP104	ltpFR	14	5	1	PEDESTRIAN	1038	n/a	1	0	0.5869140625	0.422607421875	lower	../fonts/amplitud.ttf
832296	WORD	wordpools/wasnorm_wordpool.txt	LTP104	ltpFR	14	5	1	LEADER	807	n/a	1	0	0.5869140625	0.422607421875	lower	../fonts/amplitud.ttf
836288	WORD	wordpools/wasnorm_wordpool.txt	LTP104	ltpFR	14	5	1	CHICKEN	297	n/a	1	0	0.5869140625	0.422607421875	lower	../fonts/amplitud.ttf
840103	WORD	wordpools/wasnorm_wordpool.txt	LTP104	ltpFR	14	5	1	PARIS	1014	n/a	0	0	0.5869140625	0.422607421875	lower	../fonts/amplitud.ttf
844044	WORD	wordpools/wasnorm_wordpool.txt	LTP104	ltpFR	14	5	1	ACORN	3	n/a	0	0	0.5869140625	0.422607421875	lower	../fonts/amplitud.ttf
848011	WORD	wordpools/wasnorm_wordpool.txt	LTP104	ltpFR	14	5	0	FIG	563	n/a	0	1	0.412841796875	0.57763671875	upper	../fonts/zerothre.ttf
852094	WORD	wordpools/wasnorm_wordpool.txt	LTP104	ltpFR	14	5	0	SKIRT	1319	n/a	0	1	0.412841796875	0.57763671875	upper	../fonts/zerothre.ttf
855927	WORD	wordpools/wasnorm_wordpool.txt	LTP104	ltpFR	14	5	1	CABBAGE	210	n/a	0	0	0.5869140625	0.422607421875	lower	../fonts/amplitud.ttf
860052	WORD	wordpools/wasnorm_wordpool.txt	LTP104	ltpFR	14	5	1	LOVER	846	n/a	1	0	0.5869140625	0.422607421875	lower	../fonts/amplitud.ttf
863935	WORD	wordpools/wasnorm_wordpool.txt	LTP104	ltpFR	14	5	1	TRANSPLANT	1496	n/a	0	0	0.5869140625	0.422607421875	lower	../fonts/amplitud.ttf
868143	WORD	wordpools/wasnorm_wordpool.txt	LTP104	ltpFR	14	5	0	COAL	332	n/a	0	1	0.412841796875	0.57763671875	upper	../fonts/zerothre.ttf
872026	WORD	wordpools/wasnorm_wordpool.txt	LTP104	ltpFR	14	5	0	GOWN	652	n/a	0	1	0.412841796875	0.57763671875	upper	../fonts/zerothre.ttf
878026	REC_START	n/a	LTP104	ltpFR	14	5	n/a	n/a	n/a	n/a	n/a	n/a	n/a	n/a	n/a	n/a
878994	REC_WORD	wordpools/wasnorm_wordpool.txt	LTP104	ltpFR	14	5	0	GOWN	652	n/a	0	n/a	n/a	n/a	n/a	n/a
880016	REC_WORD	wordpools/wasnorm_wordpool.txt	LTP104	ltpFR	14	5	n/a	NIGHT	-1	n/a	n/a	n/a	n/a	n/a	n/a	n/a
881633	REC_WORD	wordpools/wasnorm_wordpool.txt	LTP104	ltpFR	14	5	0	COAL	332	n/a	0	n/a	n/a	n/a	n/a	n/a
883402	REC_WORD	wordpools/wasnorm_wordpool.txt	LTP104	ltpFR	14	5	n/a	OIL	-1	n/a	n/a	n/a	n/a	n/a	n/a	n/a
885564	REC_WORD	wordpools/wasnorm_wordpool.txt	LTP104	ltpFR	14	5	1	TRANSPLANT	1496	n/a	0	n/a	n/a	n/a	n/a	n/a
887125	REC_WORD	wordpools/wasnorm_wordpool.txt	LTP104	ltpFR	14	5	n/a	PIG	1064	n/a	n/a	n/a	n/a	n/a	n/a	n/a
888412	REC_WORD	wordpools/wasnorm_wordpool.txt	LTP104	ltpFR	14	5	n/a	ORGAN	984	n/a	n/a	n/a	n/a	n/a	n/a	n/a
890622	REC_WORD	wordpools/wasnorm_wordpool.txt	LTP104	ltpFR	14	5	1	LOVER	846	n/a	1	n/a	n/a	n/a	n/a	n/a
892029	REC_WORD	wordpools/wasnorm_wordpool.txt	LTP104	ltpFR	14	5	1	PARIS	1014	n/a	0	n/a	n/a	n/a	n/a	n/a
897576	REC_WORD	wordpools/wasnorm_wordpool.txt	LTP104	ltpFR	14	5	0	FIG	563	n/a	0	n/a	n/a	n/a	n/a	n/a
898779	REC_WORD	wordpools/wasnorm_wordpool.txt	LTP104	ltpFR	14	5	1	ACORN	3	n/a	0	n/a	n/a	n/a	n/a	n/a
899602	REC_WORD	wordpools/wasnorm_wordpool.txt	LTP104	ltpFR	14	5	n/a	SQUIRREL	1362	n/a	n/a	n/a	n/a	n/a	n/a	n/a
904700	REC_WORD	wordpools/wasnorm_wordpool.txt	LTP104	ltpFR	14	5	0	BLADE	134	n/a	0	n/a	n/a	n/a	n/a	n/a
905997	REC_WORD	wordpools/wasnorm_wordpool.txt	LTP104	ltpFR	14	5	0	BUTCHER	203	n/a	1	n/a	n/a	n/a	n/a	n/a
907645	REC_WORD	wordpools/wasnorm_wordpool.txt	LTP104	ltpFR	14	5	n/a	MEAT	883	n/a	n/a	n/a	n/a	n/a	n/a	n/a
909150	REC_WORD	wordpools/wasnorm_wordpool.txt	LTP104	ltpFR	14	5	0	PRESIDENT	1121	n/a	1	n/a	n/a	n/a	n/a	n/a
910617	REC_WORD	wordpools/wasnorm_wordpool.txt	LTP104	ltpFR	14	5	1	LEADER	807	n/a	1	n/a	n/a	n/a	n/a	n/a
912013	REC_WORD	wordpools/wasnorm_wordpool.txt	LTP104	ltpFR	14	5	1	PEDESTRIAN	1038	n/a	1	n/a	n/a	n/a	n/a	n/a
913500	REC_WORD	wordpools/wasnorm_wordpool.txt	LTP104	ltpFR	14	5	0	STREET	1393	n/a	1	n/a	n/a	n/a	n/a	n/a
915072	REC_WORD	wordpools/wasnorm_wordpool.txt	LTP104	ltpFR	14	5	n/a	BOULEVARD	156	n/a	n/a	n/a	n/a	n/a	n/a	n/a
919312	REC_WORD	wordpools/wasnorm_wordpool.txt	LTP104	ltpFR	14	5	1	CHICKEN	297	n/a	1	n/a	n/a	n/a	n/a	n/a
937266	REC_WORD	wordpools/wasnorm_wordpool.txt	LTP104	ltpFR	14	5	1	PARIS	1014	n/a	0	n/a	n/a	n/a	n/a	n/a
963894	WORD	wordpools/wasnorm_wordpool.txt	LTP104	ltpFR	14	6	-1	CLAW	319	n/a	-1	1	1.0	1.0	upper	../fonts/Verdana.ttf
967860	WORD	wordpools/wasnorm_wordpool.txt	LTP104	ltpFR	14	6	-1	ENGINE	535	n/a	-1	1	1.0	1.0	upper	../fonts/Verdana.ttf
971843	WORD	wordpools/wasnorm_wordpool.txt	LTP104	ltpFR	14	6	-1	RAG	1160	n/a	-1	1	1.0	1.0	upper	../fonts/Verdana.ttf
975784	WORD	wordpools/wasnorm_wordpool.txt	LTP104	ltpFR	14	6	-1	DUMP	505	n/a	-1	1	1.0	1.0	upper	../fonts/Verdana.ttf
979784	WORD	wordpools/wasnorm_wordpool.txt	LTP104	ltpFR	14	6	-1	DUCK	504	n/a	-1	1	1.0	1.0	upper	../fonts/Verdana.ttf
983975	WORD	wordpools/wasnorm_wordpool.txt	LTP104	ltpFR	14	6	-1	TUBA	1515	n/a	-1	1	1.0	1.0	upper	../fonts/Verdana.ttf
987992	WORD	wordpools/wasnorm_wordpool.txt	LTP104	ltpFR	14	6	-1	RADIO	1157	n/a	-1	1	1.0	1.0	upper	../fonts/Verdana.ttf
991833	WORD	wordpools/wasnorm_wordpool.txt	LTP104	ltpFR	14	6	-1	KING	777	n/a	-1	1	1.0	1.0	upper	../fonts/Verdana.ttf
995958	WORD	wordpools/wasnorm_wordpool.txt	LTP104	ltpFR	14	6	-1	CROWN	415	n/a	-1	1	1.0	1.0	upper	../fonts/Verdana.ttf
999891	WORD	wordpools/wasnorm_wordpool.txt	LTP104	ltpFR	14	6	-1	CLOTHES	327	n/a	-1	1	1.0	1.0	upper	../fonts/Verdana.ttf
1003857	WORD	wordpools/wasnorm_wordpool.txt	LTP104	ltpFR	14	6	-1	PAVEMENT	1028	n/a	-1	1	1.0	1.0	upper	../fonts/Verdana.ttf
1007907	WORD	wordpools/wasnorm_wordpool.txt	LTP104	ltpFR	14	6	-1	KIWI	781	n/a	-1	1	1.0	1.0	upper	../fonts/Verdana.ttf
1011749	WORD	wordpools/wasnorm_wordpool.txt	LTP104	ltpFR	14	6	-1	PIGEON	1065	n/a	-1	1	1.0	1.0	upper	../fonts/Verdana.ttf
1015641	WORD	wordpools/wasnorm_wordpool.txt	LTP104	ltpFR	14	6	-1	LITTER	832	n/a	-1	1	1.0	1.0	upper	../fonts/Verdana.ttf
1019665	WORD	wordpools/wasnorm_wordpool.txt	LTP104	ltpFR	14	6	-1	PLANE	1081	n/a	-1	1	1.0	1.0	upper	../fonts/Verdana.ttf
1023565	WORD	wordpools/wasnorm_wordpool.txt	LTP104	ltpFR	14	6	-1	NEST	945	n/a	-1	1	1.0	1.0	upper	../fonts/Verdana.ttf
1029565	REC_START	n/a	LTP104	ltpFR	14	6	n/a	n/a	n/a	n/a	n/a	n/a	n/a	n/a	n/a	n/a
1030742	REC_WORD	wordpools/wasnorm_wordpool.txt	LTP104	ltpFR	14	6	-1	PLANE	1081	n/a	-1	n/a	n/a	n/a	n/a	n/a
1031890	REC_WORD	wordpools/wasnorm_wordpool.txt	LTP104	ltpFR	14	6	n/a	JET	756	n/a	n/a	n/a	n/a	n/a	n/a	n/a
1033351	REC_WORD	wordpools/wasnorm_wordpool.txt	LTP104	ltpFR	14	6	-1	NEST	945	n/a	-1	n/a	n/a	n/a	n/a	n/a
1034514	REC_WORD	wordpools/wasnorm_wordpool.txt	LTP104	ltpFR	14	6	n/a	BIRD	129	n/a	n/a	n/a	n/a	n/a	n/a	n/a
1035571	REC_WORD	wordpools/wasnorm_wordpool.txt	LTP104	ltpFR	14	6	n/a	EGG	518	n/a	n/a	n/a	n/a	n/a	n/a	n/a
1037372	REC_WORD	wordpools/wasnorm_wordpool.txt	LTP104	ltpFR	14	6	-1	KIWI	781	n/a	-1	n/a	n/a	n/a	n/a	n/a
1041529	REC_WORD_VV	wordpools/wasnorm_wordpool.txt	LTP104	ltpFR	14	6	n/a	<>	-1	n/a	n/a	n/a	n/a	n/a	n/a	n/a
1042929	REC_WORD	wordpools/wasnorm_wordpool.txt	LTP104	ltpFR	14	6	-1	KING	777	n/a	-1	n/a	n/a	n/a	n/a	n/a
1044107	REC_WORD	wordpools/wasnorm_wordpool.txt	LTP104	ltpFR	14	6	-1	CROWN	415	n/a	-1	n/a	n/a	n/a	n/a	n/a
1045279	REC_WORD	wordpools/wasnorm_wordpool.txt	LTP104	ltpFR	14	6	-1	CLOTHES	327	n/a	-1	n/a	n/a	n/a	n/a	n/a
1053984	REC_WORD	wordpools/wasnorm_wordpool.txt	LTP104	ltpFR	14	6	-1	ENGINE	535	n/a	-1	n/a	n/a	n/a	n/a	n/a
1056045	REC_WORD	wordpools/wasnorm_wordpool.txt	LTP104	ltpFR	14	6	n/a	MOTOR	922	n/a	n/a	n/a	n/a	n/a	n/a	n/a
1058579	REC_WORD	wordpools/wasnorm_wordpool.txt	LTP104	ltpFR	14	6	-1	CLAW	319	n/a	-1	n/a	n/a	n/a	n/a	n/a
1061178	REC_WORD	wordpools/wasnorm_wordpool.txt	LTP104	ltpFR	14	6	-1	RAG	1160	n/a	-1	n/a	n/a	n/a	n/a	n/a
1062744	REC_WORD	wordpools/wasnorm_wordpool.txt	LTP104	ltpFR	14	6	-1	DUMP	505	n/a	-1	n/a	n/a	n/a	n/a	n/a
1064091	REC_WORD	wordpools/wasnorm_wordpool.txt	LTP104	ltpFR	14	6	-1	TUBA	1515	n/a	-1	n/a	n/a	n/a	n/a	n/a
1065249	REC_WORD	wordpools/wasnorm_wordpool.txt	LTP104	ltpFR	14	6	n/a	TROMBONE	1508	n/a	n/a	n/a	n/a	n/a	n/a	n/a
1069748	REC_WORD	wordpools/wasnorm_wordpool.txt	LTP104	ltpFR	14	6	-1	DUCK	504	n/a	-1	n/a	n/a	n/a	n/a	n/a
1070631	REC_WORD	wordpools/wasnorm_wordpool.txt	LTP104	ltpFR	14	6	n/a	LAME	-1	n/a	n/a	n/a	n/a	n/a	n/a	n/a
1079890	REC_WORD	wordpools/wasnorm_wordpool.txt	LTP104	ltpFR	14	6	-1	PIGEON	1065	n/a	-1	n/a	n/a	n/a	n/a	n/a
1080958	REC_WORD	wordpools/wasnorm_wordpool.txt	LTP104	ltpFR	14	6	-1	STOOL	1386	n/a	-1	n/a	n/a	n/a	n/a	n/a
1088301	REC_WORD	wordpools/wasnorm_wordpool.txt	LTP104	ltpFR	14	6	-1	LITTER	832	n/a	-1	n/a	n/a	n/a	n/a	n/a
1108224	WORD	wordpools/wasnorm_wordpool.txt	LTP104	ltpFR	14	7	0	TEA	1439	n/a	0	1	0.412841796875	0.57763671875	upper	../fonts/zerothre.ttf
1112325	WORD	wordpools/wasnorm_wordpool.txt	LTP104	ltpFR	14	7	0	BEETLE	116	n/a	0	1	0.412841796875	0.57763671875	upper	../fonts/zerothre.ttf
1116283	WORD	wordpools/wasnorm_wordpool.txt	LTP104	ltpFR	14	7	0	ASTRONAUT	51	n/a	1	1	0.412841796875	0.57763671875	upper	../fonts/zerothre.ttf
1120291	WORD	wordpools/wasnorm_wordpool.txt	LTP104	ltpFR	14	7	0	DRAWING	494	n/a	0	1	0.412841796875	0.57763671875	upper	../fonts/zerothre.ttf
1124341	WORD	wordpools/wasnorm_wordpool.txt	LTP104	ltpFR	14	7	0	ARTIST	43	n/a	1	1	0.412841796875	0.57763671875	upper	../fonts/zerothre.ttf
1128549	WORD	wordpools/wasnorm_wordpool.txt	LTP104	ltpFR	14	7	1	ANTEATER	26	n/a	1	0	0.5869140625	0.422607421875	lower	../fonts/amplitud.ttf
1132398	WORD	wordpools/wasnorm_wordpool.txt	LTP104	ltpFR	14	7	1	GRASSHOPPER	656	n/a	1	0	0.5869140625	0.422607421875	lower	../fonts/amplitud.ttf
1136590	WORD	wordpools/wasnorm_wordpool.txt	LTP104	ltpFR	14	7	1	CUCUMBER	421	n/a	0	0	0.5869140625	0.422607421875	lower	../fonts/amplitud.ttf
1140648	WORD	wordpools/wasnorm_wordpool.txt	LTP104	ltpFR	14	7	1	TOMATO	1476	n/a	0	0	0.5869140625	0.422607421875	lower	../fonts/amplitud.ttf
1144581	WORD	wordpools/wasnorm_wordpool.txt	LTP104	ltpFR	14	7	0	VET	1560	n/a	1	1	0.412841796875	0.57763671875	upper	../fonts/zerothre.ttf
1148572	WORD	wordpools/wasnorm_wordpool.txt	LTP104	ltpFR	14	7	0	LAPEL	800	n/a	0	1	0.412841796875	0.57763671875	upper	../fonts/zerothre.ttf
1152605	WORD	wordpools/wasnorm_wordpool.txt	LTP104	ltpFR	14	7	0	INSECT	740	n/a	0	1	0.412841796875	0.57763671875	upper	../fonts/zerothre.ttf
1156588	WORD	wordpools/wasnorm_wordpool.txt	LTP104	ltpFR	14	7	1	MOON	914	n/a	0	0	0.5869140625	0.422607421875	lower	../fonts/amplitud.ttf
1160713	WORD	wordpools/wasnorm_wordpool.txt	LTP104	ltpFR	14	7	1	BUTTON	207	n/a	1	0	0.5869140625	0.422607421875	lower	../fonts/amplitud.ttf
1164604	WORD	wordpools/wasnorm_wordpool.txt	LTP104	ltpFR	14	7	1	PANTS	1010	n/a	0	0	0.5869140625	0.422607421875	lower	../fonts/amplitud.ttf
1168737	WORD	wordpools/wasnorm_wordpool.txt	LTP104	ltpFR	14	7	1	PORCUPINE	1107	n/a	1	0	0.5869140625	0.422607421875	lower	../fonts/amplitud.ttf
1174738	REC_START	n/a	LTP104	ltpFR	14	7	n/a	n/a	n/a	n/a	n/a	n/a	n/a	n/a	n/a	n/a
1175701	REC_WORD	wordpools/wasnorm_wordpool.txt	LTP104	ltpFR	14	7	1	PORCUPINE	1107	n/a	1	n/a	n/a	n/a	n/a	n/a
1177082	REC_WORD	wordpools/wasnorm_wordpool.txt	LTP104	ltpFR	14	7	n/a	QUILL	1150	n/a	n/a	n/a	n/a	n/a	n/a	n/a
1178659	REC_WORD	wordpools/wasnorm_wordpool.txt	LTP104	ltpFR	14	7	1	ANTEATER	26	n/a	1	n/a	n/a	n/a	n/a	n/a
1180235	REC_WORD	wordpools/wasnorm_wordpool.txt	LTP104	ltpFR	14	7	n/a	ANT	25	n/a	n/a	n/a	n/a	n/a	n/a	n/a
1181791	REC_WORD	wordpools/wasnorm_wordpool.txt	LTP104	ltpFR	14	7	0	INSECT	740	n/a	0	n/a	n/a	n/a	n/a	n/a
1183014	REC_WORD	wordpools/wasnorm_wordpool.txt	LTP104	ltpFR	14	7	n/a	CRICKET	408	n/a	n/a	n/a	n/a	n/a	n/a	n/a
1184381	REC_WORD	wordpools/wasnorm_wordpool.txt	LTP104	ltpFR	14	7	0	BEETLE	116	n/a	0	n/a	n/a	n/a	n/a	n/a
1185603	REC_WORD	wordpools/wasnorm_wordpool.txt	LTP104	ltpFR	14	7	0	VET	1560	n/a	1	n/a	n/a	n/a	n/a	n/a
1186885	REC_WORD	wordpools/wasnorm_wordpool.txt	LTP104	ltpFR	14	7	n/a	DOG	480	n/a	n/a	n/a	n/a	n/a	n/a	n/a
1193575	REC_WORD	wordpools/wasnorm_wordpool.txt	LTP104	ltpFR	14	7	0	TEA	1439	n/a	0	n/a	n/a	n/a	n/a	n/a
1194578	REC_WORD	wordpools/wasnorm_wordpool.txt	LTP104	ltpFR	14	7	n/a	POT	1114	n/a	n/a	n/a	n/a	n/a	n/a	n/a
1195825	REC_WORD	wordpools/wasnorm_wordpool.txt	LTP104	ltpFR	14	7	-1	KETTLE	772	n/a	-1	n/a	n/a	n/a	n/a	n/a
1199881	REC_WORD	wordpools/wasnorm_wordpool.txt	LTP104	ltpFR	14	7	0	BEETLE	116	n/a	0	n/a	n/a	n/a	n/a	n/a
1201971	REC_WORD	wordpools/wasnorm_wordpool.txt	LTP104	ltpFR	14	7	0	DRAWING	494	n/a	0	n/a	n/a	n/a	n/a	n/a
1203238	REC_WORD	wordpools/wasnorm_wordpool.txt	LTP104	ltpFR	14	7	0	ARTIST	43	n/a	1	n/a	n/a	n/a	n/a	n/a
1204225	REC_WORD	wordpools/wasnorm_wordpool.txt	LTP104	ltpFR	14	7	n/a	PICASSO	-1	n/a	n/a	n/a	n/a	n/a	n/a	n/a
1211838	REC_WORD	wordpools/wasnorm_wordpool.txt	LTP104	ltpFR	14	7	0	LAPEL	800	n/a	0	n/a	n/a	n/a	n/a	n/a
1214333	REC_WORD	wordpools/wasnorm_wordpool.txt	LTP104	ltpFR	14	7	1	BUTTON	207	n/a	1	n/a	n/a	n/a	n/a	n/a
1215695	REC_WORD	wordpools/wasnorm_wordpool.txt	LTP104	ltpFR	14	7	1	PANTS	1010	n/a	0	n/a	n/a	n/a	n/a	n/a
1216961	REC_WORD	wordpools/wasnorm_wordpool.txt	LTP104	ltpFR	14	7	n/a	SLACKS	1323	n/a	n/a	n/a	n/a	n/a	n/a	n/a
1226121	REC_WORD	wordpools/wasnorm_wordpool.txt	LTP104	ltpFR	14	7	1	MOON	914	n/a	0	n/a	n/a	n/a	n/a	n/a
1227313	REC_WORD	wordpools/wasnorm_wordpool.txt	LTP104	ltpFR	14	7	n/a	CHEESE	289	n/a	n/a	n/a	n/a	n/a	n/a	n/a
1259530	WORD	wordpools/wasnorm_wordpool.txt	LTP104	ltpFR	14	8	-1	MINER	896	n/a	-1	1	1.0	1.0	upper	../fonts/Verdana.ttf
1263347	WORD	wordpools/wasnorm_wordpool.txt	LTP104	ltpFR	14	8	-1	FIREPLACE	570	n/a	-1	1	1.0	1.0	upper	../fonts/Verdana.ttf
1267388	WORD	wordpools/wasnorm_wordpool.txt	LTP104	ltpFR	14	8	-1	DEODORANT	448	n/a	-1	1	1.0	1.0	upper	../fonts/Verdana.ttf
1271279	WORD	wordpools/wasnorm_wordpool.txt	LTP104	ltpFR	14	8	-1	FOE	587	n/a	-1	1	1.0	1.0	upper	../fonts/Verdana.ttf
1275346	WORD	wordpools/wasnorm_wordpool.txt	LTP104	ltpFR	14	8	-1	FEATHER	557	n/a	-1	1	1.0	1.0	upper	../fonts/Verdana.ttf
1279161	WORD	wordpools/wasnorm_wordpool.txt	LTP104	ltpFR	14	8	-1	TRIANGLE	1504	n/a	-1	1	1.0	1.0	upper	../fonts/Verdana.ttf
1283227	WORD	wordpools/wasnorm_wordpool.txt	LTP104	ltpFR	14	8	-1	GARLIC	624	n/a	-1	1	1.0	1.0	upper	../fonts/Verdana.ttf
1287127	WORD	wordpools/wasnorm_wordpool.txt	LTP104	ltpFR	14	8	-1	TERMITE	1451	n/a	-1	1	1.0	1.0	upper	../fonts/Verdana.ttf
1291303	WORD	wordpools/wasnorm_wordpool.txt	LTP104	ltpFR	14	8	-1	FACTORY	548	n/a	-1	1	1.0	1.0	upper	../fonts/Verdana.ttf
1295378	WORD	wordpools/wasnorm_wordpool.txt	LTP104	ltpFR	14	8	-1	STEAM	1375	n/a	-1	1	1.0	1.0	upper	../fonts/Verdana.ttf
1299444	WORD	wordpools/wasnorm_wordpool.txt	LTP104	ltpFR	14	8	-1	DOOR	486	n/a	-1	1	1.0	1.0	upper	../fonts/Verdana.ttf
1303327	WORD	wordpools/wasnorm_wordpool.txt	LTP104	ltpFR	14	8	-1	LOCK	838	n/a	-1	1	1.0	1.0	upper	../fonts/Verdana.ttf
1307293	WORD	wordpools/wasnorm_wordpool.txt	LTP104	ltpFR	14	8	-1	EGYPT	519	n/a	-1	1	1.0	1.0	upper	../fonts/Verdana.ttf
1311360	WORD	wordpools/wasnorm_wordpool.txt	LTP104	ltpFR	14	8	-1	TAIL	1430	n/a	-1	1	1.0	1.0	upper	../fonts/Verdana.ttf
1315559	WORD	wordpools/wasnorm_wordpool.txt	LTP104	ltpFR	14	8	-1	BISON	131	n/a	-1	1	1.0	1.0	upper	../fonts/Verdana.ttf
1319367	WORD	wordpools/wasnorm_wordpool.txt	LTP104	ltpFR	14	8	-1	CAGE	218	n/a	-1	1	1.0	1.0	upper	../fonts/Verdana.ttf
1325108	REC_START	n/a	LTP104	ltpFR	14	8	n/a	n/a	n/a	n/a	n/a	n/a	n/a	n/a	n/a	n/a
1326036	REC_WORD	wordpools/wasnorm_wordpool.txt	LTP104	ltpFR	14	8	-1	CAGE	218	n/a	-1	n/a	n/a	n/a	n/a	n/a
1327133	REC_WORD	wordpools/wasnorm_wordpool.txt	LTP104	ltpFR	14	8	n/a	TRAP	-1	n/a	n/a	n/a	n/a	n/a	n/a	n/a
1328485	REC_WORD	wordpools/wasnorm_wordpool.txt	LTP104	ltpFR	14	8	-1	BISON	131	n/a	-1	n/a	n/a	n/a	n/a	n/a
1329643	REC_WORD	wordpools/wasnorm_wordpool.txt	LTP104	ltpFR	14	8	n/a	BUFFALO	186	n/a	n/a	n/a	n/a	n/a	n/a	n/a
1331069	REC_WORD	wordpools/wasnorm_wordpool.txt	LTP104	ltpFR	14	8	-1	EGYPT	519	n/a	-1	n/a	n/a	n/a	n/a	n/a
1332136	REC_WORD	wordpools/wasnorm_wordpool.txt	LTP104	ltpFR	14	8	n/a	SPHINX	1349	n/a	n/a	n/a	n/a	n/a	n/a	n/a
1334925	REC_WORD	wordpools/wasnorm_wordpool.txt	LTP104	ltpFR	14	8	-1	TAIL	1430	n/a	-1	n/a	n/a	n/a	n/a	n/a
1338388	REC_WORD	wordpools/wasnorm_wordpool.txt	LTP104	ltpFR	14	8	-1	LOCK	838	n/a	-1	n/a	n/a	n/a	n/a	n/a
1339625	REC_WORD	wordpools/wasnorm_wordpool.txt	LTP104	ltpFR	14	8	-1	DOOR	486	n/a	-1	n/a	n/a	n/a	n/a	n/a
1342513	REC_WORD	wordpools/wasnorm_wordpool.txt	LTP104	ltpFR	14	8	-1	MINER	896	n/a	-1	n/a	n/a	n/a	n/a	n/a
1343650	REC_WORD	wordpools/wasnorm_wordpool.txt	LTP104	ltpFR	14	8	-1	FIREPLACE	570	n/a	-1	n/a	n/a	n/a	n/a	n/a
1345147	REC_WORD	wordpools/wasnorm_wordpool.txt	LTP104	ltpFR	14	8	n/a	FIRE	-1	n/a	n/a	n/a	n/a	n/a	n/a	n/a
1346893	REC_WORD	wordpools/wasnorm_wordpool.txt	LTP104	ltpFR	14	8	n/a	CHIMNEY	301	n/a	n/a	n/a	n/a	n/a	n/a	n/a
1348699	REC_WORD	wordpools/wasnorm_wordpool.txt	LTP104	ltpFR	14	8	-1	FOE	587	n/a	-1	n/a	n/a	n/a	n/a	n/a
1350136	REC_WORD	wordpools/wasnorm_wordpool.txt	LTP104	ltpFR	14	8	n/a	ENEMY	534	n/a	n/a	n/a	n/a	n/a	n/a	n/a
1351817	REC_WORD	wordpools/wasnorm_wordpool.txt	LTP104	ltpFR	14	8	-1	FEATHER	557	n/a	-1	n/a	n/a	n/a	n/a	n/a
1353319	REC_WORD	wordpools/wasnorm_wordpool.txt	LTP104	ltpFR	14	8	-1	TRIANGLE	1504	n/a	-1	n/a	n/a	n/a	n/a	n/a
1354970	REC_WORD	wordpools/wasnorm_wordpool.txt	LTP104	ltpFR	14	8	n/a	SQUARE	-1	n/a	n/a	n/a	n/a	n/a	n/a	n/a
1360552	REC_WORD	wordpools/wasnorm_wordpool.txt	LTP104	ltpFR	14	8	-1	TERMITE	1451	n/a	-1	n/a	n/a	n/a	n/a	n/a
1361535	REC_WORD	wordpools/wasnorm_wordpool.txt	LTP104	ltpFR	14	8	-1	FACTORY	548	n/a	-1	n/a	n/a	n/a	n/a	n/a
1370056	REC_WORD	wordpools/wasnorm_wordpool.txt	LTP104	ltpFR	14	8	-1	STEAM	1375	n/a	-1	n/a	n/a	n/a	n/a	n/a
1371332	REC_WORD	wordpools/wasnorm_wordpool.txt	LTP104	ltpFR	14	8	-1	ENGINE	535	n/a	-1	n/a	n/a	n/a	n/a	n/a
1415527	WORD	wordpools/wasnorm_wordpool.txt	LTP104	ltpFR	14	9	1	SPOOL	1356	n/a	0	0	0.5869140625	0.422607421875	lower	../fonts/amplitud.ttf
1419376	WORD	wordpools/wasnorm_wordpool.txt	LTP104	ltpFR	14	9	1	POLITICIAN	1099	n/a	1	0	0.5869140625	0.422607421875	lower	../fonts/amplitud.ttf
1423384	WORD	wordpools/wasnorm_wordpool.txt	LTP104	ltpFR	14	9	1	COWBOY	395	n/a	1	0	0.5869140625	0.422607421875	lower	../fonts/amplitud.ttf
1427241	WORD	wordpools/wasnorm_wordpool.txt	LTP104	ltpFR	14	9	1	NOMAD	955	n/a	1	0	0.5869140625	0.422607421875	lower	../fonts/amplitud.ttf
1431091	WORD	wordpools/wasnorm_wordpool.txt	LTP104	ltpFR	14	9	1	PENGUIN	1044	n/a	1	0	0.5869140625	0.422607421875	lower	../fonts/amplitud.ttf
1435032	WORD	wordpools/wasnorm_wordpool.txt	LTP104	ltpFR	14	9	1	CROW	414	n/a	1	0	0.5869140625	0.422607421875	lower	../fonts/amplitud.ttf
1439165	WORD	wordpools/wasnorm_wordpool.txt	LTP104	ltpFR	14	9	1	LIBRARY	816	n/a	0	0	0.5869140625	0.422607421875	lower	../fonts/amplitud.ttf
1443048	WORD	wordpools/wasnorm_wordpool.txt	LTP104	ltpFR	14	9	1	ARTICLE	42	n/a	0	0	0.5869140625	0.422607421875	lower	../fonts/amplitud.ttf
1447156	WORD	wordpools/wasnorm_wordpool.txt	LTP104	ltpFR	14	9	1	MONK	910	n/a	1	0	0.5869140625	0.422607421875	lower	../fonts/amplitud.ttf
1451164	WORD	wordpools/wasnorm_wordpool.txt	LTP104	ltpFR	14	9	1	BOOK	149	n/a	0	0	0.5869140625	0.422607421875	lower	../fonts/amplitud.ttf
1455089	WORD	wordpools/wasnorm_wordpool.txt	LTP104	ltpFR	14	9	1	NEWSSTAND	949	n/a	0	0	0.5869140625	0.422607421875	lower	../fonts/amplitud.ttf
1459248	WORD	wordpools/wasnorm_wordpool.txt	LTP104	ltpFR	14	9	1	SKI	1316	n/a	0	0	0.5869140625	0.422607421875	lower	../fonts/amplitud.ttf
1463415	WORD	wordpools/wasnorm_wordpool.txt	LTP104	ltpFR	14	9	1	ATLAS	53	n/a	0	0	0.5869140625	0.422607421875	lower	../fonts/amplitud.ttf
1467331	WORD	wordpools/wasnorm_wordpool.txt	LTP104	ltpFR	14	9	1	WAITER	1580	n/a	1	0	0.5869140625	0.422607421875	lower	../fonts/amplitud.ttf
1471188	WORD	wordpools/wasnorm_wordpool.txt	LTP104	ltpFR	14	9	1	CAFETERIA	217	n/a	0	0	0.5869140625	0.422607421875	lower	../fonts/amplitud.ttf
1475347	WORD	wordpools/wasnorm_wordpool.txt	LTP104	ltpFR	14	9	1	CLOUD	328	n/a	0	0	0.5869140625	0.422607421875	lower	../fonts/amplitud.ttf
1481289	REC_START	n/a	LTP104	ltpFR	14	9	n/a	n/a	n/a	n/a	n/a	n/a	n/a	n/a	n/a	n/a
1482716	REC_WORD	wordpools/wasnorm_wordpool.txt	LTP104	ltpFR	14	9	1	SPOOL	1356	n/a	0	n/a	n/a	n/a	n/a	n/a
1484018	REC_WORD	wordpools/wasnorm_wordpool.txt	LTP104	ltpFR	14	9	n/a	THREAD	1460	n/a	n/a	n/a	n/a	n/a	n/a	n/a
1485484	REC_WORD	wordpools/wasnorm_wordpool.txt	LTP104	ltpFR	14	9	1	POLITICIAN	1099	n/a	1	n/a	n/a	n/a	n/a	n/a
1486726	REC_WORD	wordpools/wasnorm_wordpool.txt	LTP104	ltpFR	14	9	0	PRESIDENT	1121	n/a	1	n/a	n/a	n/a	n/a	n/a
1493117	REC_WORD	wordpools/wasnorm_wordpool.txt	LTP104	ltpFR	14	9	1	NOMAD	955	n/a	1	n/a	n/a	n/a	n/a	n/a
1494404	REC_WORD	wordpools/wasnorm_wordpool.txt	LTP104	ltpFR	14	9	n/a	WANDERER	-1	n/a	n/a	n/a	n/a	n/a	n/a	n/a
1497447	REC_WORD	wordpools/wasnorm_wordpool.txt	LTP104	ltpFR	14	9	1	PENGUIN	1044	n/a	1	n/a	n/a	n/a	n/a	n/a
1501009	REC_WORD	wordpools/wasnorm_wordpool.txt	LTP104	ltpFR	14	9	1	ATLAS	53	n/a	0	n/a	n/a	n/a	n/a	n/a
1502855	REC_WORD	wordpools/wasnorm_wordpool.txt	LTP104	ltpFR	14	9	1	NEWSSTAND	949	n/a	0	n/a	n/a	n/a	n/a	n/a
1505673	REC_WORD	wordpools/wasnorm_wordpool.txt	LTP104	ltpFR	14	9	n/a	NEWSPAPER	948	n/a	n/a	n/a	n/a	n/a	n/a	n/a
1509874	REC_WORD	wordpools/wasnorm_wordpool.txt	LTP104	ltpFR	14	9	1	LIBRARY	816	n/a	0	n/a	n/a	n/a	n/a	n/a
1511650	REC_WORD	wordpools/wasnorm_wordpool.txt	LTP104	ltpFR	14	9	1	ARTICLE	42	n/a	0	n/a	n/a	n/a	n/a	n/a
1512992	REC_WORD	wordpools/wasnorm_wordpool.txt	LTP104	ltpFR	14	9	0	DOCUMENT	479	n/a	0	n/a	n/a	n/a	n/a	n/a
1514723	REC_WORD	wordpools/wasnorm_wordpool.txt	LTP104	ltpFR	14	9	1	BOOK	149	n/a	0	n/a	n/a	n/a	n/a	n/a
1549494	REC_WORD	wordpools/wasnorm_wordpool.txt	LTP104	ltpFR	14	9	0	WATERFALL	1595	n/a	1	n/a	n/a	n/a	n/a	n/a
1561599	WORD	wordpools/wasnorm_wordpool.txt	LTP104	ltpFR	14	10	1	STEM	1376	n/a	0	0	0.5869140625	0.422607421875	lower	../fonts/amplitud.ttf
1565690	WORD	wordpools/wasnorm_wordpool.txt	LTP104	ltpFR	14	10	1	TURNIP	1521	n/a	0	0	0.5869140625	0.422607421875	lower	../fonts/amplitud.ttf
1569598	WORD	wordpools/wasnorm_wordpool.txt	LTP104	ltpFR	14	10	1	CINNAMON	310	n/a	0	0	0.5869140625	0.422607421875	lower	../fonts/amplitud.ttf
1573813	WORD	wordpools/wasnorm_wordpool.txt	LTP104	ltpFR	14	10	1	HERO	706	n/a	1	0	0.5869140625	0.422607421875	lower	../fonts/amplitud.ttf
1577996	WORD	wordpools/wasnorm_wordpool.txt	LTP104	ltpFR	14	10	1	PIG	1064	n/a	1	0	0.5869140625	0.422607421875	lower	../fonts/amplitud.ttf
1582163	WORD	wordpools/wasnorm_wordpool.txt	LTP104	ltpFR	14	10	1	SPRINKLE	1359	n/a	0	0	0.5869140625	0.422607421875	lower	../fonts/amplitud.ttf
1586246	WORD	wordpools/wasnorm_wordpool.txt	LTP104	ltpFR	14	10	1	YOUTH	1634	n/a	1	0	0.5869140625	0.422607421875	lower	../fonts/amplitud.ttf
1590388	WORD	wordpools/wasnorm_wordpool.txt	LTP104	ltpFR	14	10	1	OVEN	991	n/a	0	0	0.5869140625	0.422607421875	lower	../fonts/amplitud.ttf
1594380	WORD	wordpools/wasnorm_wordpool.txt	LTP104	ltpFR	14	10	1	GROCERY	664	n/a	0	0	0.5869140625	0.422607421875	lower	../fonts/amplitud.ttf
1598387	WORD	wordpools/wasnorm_wordpool.txt	LTP104	ltpFR	14	10	1	COOKBOOK	373	n/a	0	0	0.5869140625	0.422607421875	lower	../fonts/amplitud.ttf
1602429	WORD	wordpools/wasnorm_wordpool.txt	LTP104	ltpFR	14	10	1	SLACKS	1323	n/a	0	0	0.5869140625	0.422607421875	lower	../fonts/amplitud.ttf
1606620	WORD	wordpools/wasnorm_wordpool.txt	LTP104	ltpFR	14	10	1	TEENAGER	1444	n/a	1	0	0.5869140625	0.422607421875	lower	../fonts/amplitud.ttf
1610670	WORD	wordpools/wasnorm_wordpool.txt	LTP104	ltpFR	14	10	1	GAZELLE	628	n/a	0	0	0.5869140625	0.422607421875	lower	../fonts/amplitud.ttf
1614645	WORD	wordpools/wasnorm_wordpool.txt	LTP104	ltpFR	14	10	1	POCKET	1093	n/a	0	0	0.5869140625	0.422607421875	lower	../fonts/amplitud.ttf
1618827	WORD	wordpools/wasnorm_wordpool.txt	LTP104	ltpFR	14	10	1	ZUCCHINI	1638	n/a	0	0	0.5869140625	0.422607421875	lower	../fonts/amplitud.ttf
1622918	WORD	wordpools/wasnorm_wordpool.txt	LTP104	ltpFR	14	10	1	CUPBOARD	425	n/a	0	0	0.5869140625	0.422607421875	lower	../fonts/amplitud.ttf
1628810	REC_START	n/a	LTP104	ltpFR	14	10	n/a	n/a	n/a	n/a	n/a	n/a	n/a	n/a	n/a	n/a
1630451	REC_WORD	wordpools/wasnorm_wordpool.txt	LTP104	ltpFR	14	10	1	CUPBOARD	425	n/a	0	n/a	n/a	n/a	n/a	n/a
1631389	REC_WORD	wordpools/wasnorm_wordpool.txt	LTP104	ltpFR	14	10	n/a	SPICE	1350	n/a	n/a	n/a	n/a	n/a	n/a	n/a
1633434	REC_WORD	wordpools/wasnorm_wordpool.txt	LTP104	ltpFR	14	10	1	ZUCCHINI	1638	n/a	0	n/a	n/a	n/a	n/a	n/a
1635330	REC_WORD	wordpools/wasnorm_wordpool.txt	LTP104	ltpFR	14	10	n/a	SQUASH	-1	n/a	n/a	n/a	n/a	n/a	n/a	n/a
1637105	REC_WORD	wordpools/wasnorm_wordpool.txt	LTP104	ltpFR	14	10	1	STEM	1376	n/a	0	n/a	n/a	n/a	n/a	n/a
1638248	REC_WORD	wordpools/wasnorm_wordpool.txt	LTP104	ltpFR	14	10	n/a	FLOWER	584	n/a	n/a	n/a	n/a	n/a	n/a	n/a
1640538	REC_WORD	wordpools/wasnorm_wordpool.txt	LTP104	ltpFR	14	10	1	TURNIP	1521	n/a	0	n/a	n/a	n/a	n/a	n/a
1642369	REC_WORD	wordpools/wasnorm_wordpool.txt	LTP104	ltpFR	14	10	n/a	RADISH	1158	n/a	n/a	n/a	n/a	n/a	n/a	n/a
1644105	REC_WORD	wordpools/wasnorm_wordpool.txt	LTP104	ltpFR	14	10	1	CINNAMON	310	n/a	0	n/a	n/a	n/a	n/a	n/a
1646743	REC_WORD	wordpools/wasnorm_wordpool.txt	LTP104	ltpFR	14	10	1	SPRINKLE	1359	n/a	0	n/a	n/a	n/a	n/a	n/a
1648525	REC_WORD	wordpools/wasnorm_wordpool.txt	LTP104	ltpFR	14	10	1	CUPBOARD	425	n/a	0	n/a	n/a	n/a	n/a	n/a
1650515	REC_WORD	wordpools/wasnorm_wordpool.txt	LTP104	ltpFR	14	10	1	COOKBOOK	373	n/a	0	n/a	n/a	n/a	n/a	n/a
1652107	REC_WORD	wordpools/wasnorm_wordpool.txt	LTP104	ltpFR	14	10	1	OVEN	991	n/a	0	n/a	n/a	n/a	n/a	n/a
1653429	REC_WORD	wordpools/wasnorm_wordpool.txt	LTP104	ltpFR	14	10	n/a	STOVE	1388	n/a	n/a	n/a	n/a	n/a	n/a	n/a
1657704	REC_WORD	wordpools/wasnorm_wordpool.txt	LTP104	ltpFR	14	10	1	YOUTH	1634	n/a	1	n/a	n/a	n/a	n/a	n/a
1659181	REC_WORD	wordpools/wasnorm_wordpool.txt	LTP104	ltpFR	14	10	1	TEENAGER	1444	n/a	1	n/a	n/a	n/a	n/a	n/a
1661520	REC_WORD	wordpools/wasnorm_wordpool.txt	LTP104	ltpFR	14	10	n/a	ADOLESCENT	7	n/a	n/a	n/a	n/a	n/a	n/a	n/a
1664100	REC_WORD	wordpools/wasnorm_wordpool.txt	LTP104	ltpFR	14	10	1	PIG	1064	n/a	1	n/a	n/a	n/a	n/a	n/a
1677993	REC_WORD	wordpools/wasnorm_wordpool.txt	LTP104	ltpFR	14	10	1	SLACKS	1323	n/a	0	n/a	n/a	n/a	n/a	n/a
1679255	REC_WORD	wordpools/wasnorm_wordpool.txt	LTP104	ltpFR	14	10	1	PANTS	1010	n/a	0	n/a	n/a	n/a	n/a	n/a
1722478	WORD	wordpools/wasnorm_wordpool.txt	LTP104	ltpFR	14	11	0	NUT	965	n/a	0	1	0.412841796875	0.57763671875	upper	../fonts/zerothre.ttf
1726303	WORD	wordpools/wasnorm_wordpool.txt	LTP104	ltpFR	14	11	0	NIGHTGOWN	953	n/a	0	1	0.412841796875	0.57763671875	upper	../fonts/zerothre.ttf
1730394	WORD	wordpools/wasnorm_wordpool.txt	LTP104	ltpFR	14	11	0	TART	1436	n/a	0	1	0.412841796875	0.57763671875	upper	../fonts/zerothre.ttf
1734410	WORD	wordpools/wasnorm_wordpool.txt	LTP104	ltpFR	14	11	0	SHEET	1279	n/a	0	1	0.412841796875	0.57763671875	upper	../fonts/zerothre.ttf
1738335	WORD	wordpools/wasnorm_wordpool.txt	LTP104	ltpFR	14	11	0	CROCODILE	411	n/a	1	1	0.412841796875	0.57763671875	upper	../fonts/zerothre.ttf
1742184	WORD	wordpools/wasnorm_wordpool.txt	LTP104	ltpFR	14	11	0	MUG	930	n/a	0	1	0.412841796875	0.57763671875	upper	../fonts/zerothre.ttf
1746225	WORD	wordpools/wasnorm_wordpool.txt	LTP104	ltpFR	14	11	0	BEER	114	n/a	0	1	0.412841796875	0.57763671875	upper	../fonts/zerothre.ttf
1750067	WORD	wordpools/wasnorm_wordpool.txt	LTP104	ltpFR	14	11	0	CHAMPAGNE	278	n/a	0	1	0.412841796875	0.57763671875	upper	../fonts/zerothre.ttf
1754066	WORD	wordpools/wasnorm_wordpool.txt	LTP104	ltpFR	14	11	0	LINEN	825	n/a	0	1	0.412841796875	0.57763671875	upper	../fonts/zerothre.ttf
1757899	WORD	wordpools/wasnorm_wordpool.txt	LTP104	ltpFR	14	11	0	LOFT	840	n/a	0	1	0.412841796875	0.57763671875	upper	../fonts/zerothre.ttf
1761899	WORD	wordpools/wasnorm_wordpool.txt	LTP104	ltpFR	14	11	0	DOUGHNUT	490	n/a	0	1	0.412841796875	0.57763671875	upper	../fonts/zerothre.ttf
1765957	WORD	wordpools/wasnorm_wordpool.txt	LTP104	ltpFR	14	11	0	FUR	615	n/a	0	1	0.412841796875	0.57763671875	upper	../fonts/zerothre.ttf
1769782	WORD	wordpools/wasnorm_wordpool.txt	LTP104	ltpFR	14	11	0	CONE	363	n/a	1	1	0.412841796875	0.57763671875	upper	../fonts/zerothre.ttf
1773641	WORD	wordpools/wasnorm_wordpool.txt	LTP104	ltpFR	14	11	0	ESSAY	540	n/a	0	1	0.412841796875	0.57763671875	upper	../fonts/zerothre.ttf
1777457	WORD	wordpools/wasnorm_wordpool.txt	LTP104	ltpFR	14	11	0	MATTRESS	879	n/a	1	1	0.412841796875	0.57763671875	upper	../fonts/zerothre.ttf
1781390	WORD	wordpools/wasnorm_wordpool.txt	LTP104	ltpFR	14	11	0	GIRAFFE	636	n/a	1	1	0.412841796875	0.57763671875	upper	../fonts/zerothre.ttf
1787181	REC_START	n/a	LTP104	ltpFR	14	11	n/a	n/a	n/a	n/a	n/a	n/a	n/a	n/a	n/a	n/a
1788079	REC_WORD	wordpools/wasnorm_wordpool.txt	LTP104	ltpFR	14	11	0	GIRAFFE	636	n/a	1	n/a	n/a	n/a	n/a	n/a
1789331	REC_WORD	wordpools/wasnorm_wordpool.txt	LTP104	ltpFR	14	11	n/a	BROWN	-1	n/a	n/a	n/a	n/a	n/a	n/a	n/a
1790558	REC_WORD	wordpools/wasnorm_wordpool.txt	LTP104	ltpFR	14	11	n/a	NECK	939	n/a	n/a	n/a	n/a	n/a	n/a	n/a
1792339	REC_WORD	wordpools/wasnorm_wordpool.txt	LTP104	ltpFR	14	11	n/a	SPOT	-1	n/a	n/a	n/a	n/a	n/a	n/a	n/a
1795018	REC_WORD	wordpools/wasnorm_wordpool.txt	LTP104	ltpFR	14	11	0	MATTRESS	879	n/a	1	n/a	n/a	n/a	n/a	n/a
1796404	REC_WORD	wordpools/wasnorm_wordpool.txt	LTP104	ltpFR	14	11	n/a	SLEEPY	-1	n/a	n/a	n/a	n/a	n/a	n/a	n/a
1798455	REC_WORD	wordpools/wasnorm_wordpool.txt	LTP104	ltpFR	14	11	0	LINEN	825	n/a	0	n/a	n/a	n/a	n/a	n/a
1799787	REC_WORD	wordpools/wasnorm_wordpool.txt	LTP104	ltpFR	14	11	0	SHEET	1279	n/a	0	n/a	n/a	n/a	n/a	n/a
1803743	REC_WORD	wordpools/wasnorm_wordpool.txt	LTP104	ltpFR	14	11	0	CROCODILE	411	n/a	1	n/a	n/a	n/a	n/a	n/a
1805210	REC_WORD	wordpools/wasnorm_wordpool.txt	LTP104	ltpFR	14	11	n/a	SEWER	-1	n/a	n/a	n/a	n/a	n/a	n/a	n/a
1813561	REC_WORD	wordpools/wasnorm_wordpool.txt	LTP104	ltpFR	14	11	0	NUT	965	n/a	0	n/a	n/a	n/a	n/a	n/a
1815082	REC_WORD	wordpools/wasnorm_wordpool.txt	LTP104	ltpFR	14	11	n/a	BRAZIL	-1	n/a	n/a	n/a	n/a	n/a	n/a	n/a
1817976	REC_WORD	wordpools/wasnorm_wordpool.txt	LTP104	ltpFR	14	11	0	TART	1436	n/a	0	n/a	n/a	n/a	n/a	n/a
1819288	REC_WORD	wordpools/wasnorm_wordpool.txt	LTP104	ltpFR	14	11	n/a	APPLE	33	n/a	n/a	n/a	n/a	n/a	n/a	n/a
1821124	REC_WORD	wordpools/wasnorm_wordpool.txt	LTP104	ltpFR	14	11	0	NIGHTGOWN	953	n/a	0	n/a	n/a	n/a	n/a	n/a
1822580	REC_WORD	wordpools/wasnorm_wordpool.txt	LTP104	ltpFR	14	11	n/a	BED	110	n/a	n/a	n/a	n/a	n/a	n/a	n/a
1824506	REC_WORD	wordpools/wasnorm_wordpool.txt	LTP104	ltpFR	14	11	1	PILLOW	1069	n/a	0	n/a	n/a	n/a	n/a	n/a
1825943	REC_WORD	wordpools/wasnorm_wordpool.txt	LTP104	ltpFR	14	11	n/a	HEAD	695	n/a	n/a	n/a	n/a	n/a	n/a	n/a
1835007	REC_WORD	wordpools/wasnorm_wordpool.txt	LTP104	ltpFR	14	11	0	BEER	114	n/a	0	n/a	n/a	n/a	n/a	n/a
1836174	REC_WORD	wordpools/wasnorm_wordpool.txt	LTP104	ltpFR	14	11	n/a	WINE	1613	n/a	n/a	n/a	n/a	n/a	n/a	n/a
1837437	REC_WORD	wordpools/wasnorm_wordpool.txt	LTP104	ltpFR	14	11	0	CHAMPAGNE	278	n/a	0	n/a	n/a	n/a	n/a	n/a
1838918	REC_WORD	wordpools/wasnorm_wordpool.txt	LTP104	ltpFR	14	11	0	MUG	930	n/a	0	n/a	n/a	n/a	n/a	n/a
1840345	REC_WORD	wordpools/wasnorm_wordpool.txt	LTP104	ltpFR	14	11	n/a	GLASS	639	n/a	n/a	n/a	n/a	n/a	n/a	n/a
1875691	WORD	wordpools/wasnorm_wordpool.txt	LTP104	ltpFR	14	12	1	PAIL	1002	n/a	0	0	0.5869140625	0.422607421875	lower	../fonts/amplitud.ttf
1879508	WORD	wordpools/wasnorm_wordpool.txt	LTP104	ltpFR	14	12	1	CHEESE	289	n/a	0	0	0.5869140625	0.422607421875	lower	../fonts/amplitud.ttf
1883382	WORD	wordpools/wasnorm_wordpool.txt	LTP104	ltpFR	14	12	1	LAMB	797	n/a	1	0	0.5869140625	0.422607421875	lower	../fonts/amplitud.ttf
1887390	WORD	wordpools/wasnorm_wordpool.txt	LTP104	ltpFR	14	12	1	EARTH	515	n/a	0	0	0.5869140625	0.422607421875	lower	../fonts/amplitud.ttf
1891323	WORD	wordpools/wasnorm_wordpool.txt	LTP104	ltpFR	14	12	1	SHEARS	1276	n/a	0	0	0.5869140625	0.422607421875	lower	../fonts/amplitud.ttf
1895306	WORD	wordpools/wasnorm_wordpool.txt	LTP104	ltpFR	14	12	1	PUDDLE	1140	n/a	0	0	0.5869140625	0.422607421875	lower	../fonts/amplitud.ttf
1899506	WORD	wordpools/wasnorm_wordpool.txt	LTP104	ltpFR	14	12	1	PIE	1062	n/a	0	0	0.5869140625	0.422607421875	lower	../fonts/amplitud.ttf
1903664	WORD	wordpools/wasnorm_wordpool.txt	LTP104	ltpFR	14	12	1	CRUMB	416	n/a	0	0	0.5869140625	0.422607421875	lower	../fonts/amplitud.ttf
1907680	WORD	wordpools/wasnorm_wordpool.txt	LTP104	ltpFR	14	12	1	COLOGNE	347	n/a	0	0	0.5869140625	0.422607421875	lower	../fonts/amplitud.ttf
1911796	WORD	wordpools/wasnorm_wordpool.txt	LTP104	ltpFR	14	12	1	INCENSE	735	n/a	0	0	0.5869140625	0.422607421875	lower	../fonts/amplitud.ttf
1915845	WORD	wordpools/wasnorm_wordpool.txt	LTP104	ltpFR	14	12	1	DANDRUFF	439	n/a	0	0	0.5869140625	0.422607421875	lower	../fonts/amplitud.ttf
1919937	WORD	wordpools/wasnorm_wordpool.txt	LTP104	ltpFR	14	12	1	OTTER	986	n/a	1	0	0.5869140625	0.422607421875	lower	../fonts/amplitud.ttf
1923912	WORD	wordpools/wasnorm_wordpool.txt	LTP104	ltpFR	14	12	1	STORE	1387	n/a	0	0	0.5869140625	0.422607421875	lower	../fonts/amplitud.ttf
1927845	WORD	wordpools/wasnorm_wordpool.txt	LTP104	ltpFR	14	12	1	APE	31	n/a	1	0	0.5869140625	0.422607421875	lower	../fonts/amplitud.ttf
1932028	WORD	wordpools/wasnorm_wordpool.txt	LTP104	ltpFR	14	12	1	CHIPMUNK	304	n/a	1	0	0.5869140625	0.422607421875	lower	../fonts/amplitud.ttf
1936202	WORD	wordpools/wasnorm_wordpool.txt	LTP104	ltpFR	14	12	1	CUSTOMER	430	n/a	1	0	0.5869140625	0.422607421875	lower	../fonts/amplitud.ttf
1941961	REC_START	n/a	LTP104	ltpFR	14	12	n/a	n/a	n/a	n/a	n/a	n/a	n/a	n/a	n/a	n/a
1942699	REC_WORD	wordpools/wasnorm_wordpool.txt	LTP104	ltpFR	14	12	1	CUSTOMER	430	n/a	1	n/a	n/a	n/a	n/a	n/a
1943936	REC_WORD	wordpools/wasnorm_wordpool.txt	LTP104	ltpFR	14	12	n/a	CLIENT	-1	n/a	n/a	n/a	n/a	n/a	n/a	n/a
1945598	REC_WORD	wordpools/wasnorm_wordpool.txt	LTP104	ltpFR	14	12	1	APE	31	n/a	1	n/a	n/a	n/a	n/a	n/a
1946575	REC_WORD	wordpools/wasnorm_wordpool.txt	LTP104	ltpFR	14	12	n/a	GORILLA	650	n/a	n/a	n/a	n/a	n/a	n/a	n/a
1947733	REC_WORD	wordpools/wasnorm_wordpool.txt	LTP104	ltpFR	14	12	n/a	ORANGUTAN	-1	n/a	n/a	n/a	n/a	n/a	n/a	n/a
1949274	REC_WORD	wordpools/wasnorm_wordpool.txt	LTP104	ltpFR	14	12	1	CHIPMUNK	304	n/a	1	n/a	n/a	n/a	n/a	n/a
1950377	REC_WORD	wordpools/wasnorm_wordpool.txt	LTP104	ltpFR	14	12	n/a	SQUIRREL	1362	n/a	n/a	n/a	n/a	n/a	n/a	n/a
1952098	REC_WORD	wordpools/wasnorm_wordpool.txt	LTP104	ltpFR	14	12	1	STORE	1387	n/a	0	n/a	n/a	n/a	n/a	n/a
1953425	REC_WORD	wordpools/wasnorm_wordpool.txt	LTP104	ltpFR	14	12	1	STORE	1387	n/a	0	n/a	n/a	n/a	n/a	n/a
1955251	REC_WORD	wordpools/wasnorm_wordpool.txt	LTP104	ltpFR	14	12	1	GROCERY	664	n/a	0	n/a	n/a	n/a	n/a	n/a
1958753	REC_WORD	wordpools/wasnorm_wordpool.txt	LTP104	ltpFR	14	12	1	OTTER	986	n/a	1	n/a	n/a	n/a	n/a	n/a
1961082	REC_WORD	wordpools/wasnorm_wordpool.txt	LTP104	ltpFR	14	12	1	COLOGNE	347	n/a	0	n/a	n/a	n/a	n/a	n/a
1963033	REC_WORD	wordpools/wasnorm_wordpool.txt	LTP104	ltpFR	14	12	1	INCENSE	735	n/a	0	n/a	n/a	n/a	n/a	n/a
1964829	REC_WORD	wordpools/wasnorm_wordpool.txt	LTP104	ltpFR	14	12	1	COLOGNE	347	n/a	0	n/a	n/a	n/a	n/a	n/a
1970576	REC_WORD	wordpools/wasnorm_wordpool.txt	LTP104	ltpFR	14	12	1	EARTH	515	n/a	0	n/a	n/a	n/a	n/a	n/a
1971853	REC_WORD	wordpools/wasnorm_wordpool.txt	LTP104	ltpFR	14	12	n/a	GLOBE	641	n/a	n/a	n/a	n/a	n/a	n/a	n/a
1979381	REC_WORD	wordpools/wasnorm_wordpool.txt	LTP104	ltpFR	14	12	1	PIE	1062	n/a	0	n/a	n/a	n/a	n/a	n/a
1980518	REC_WORD	wordpools/wasnorm_wordpool.txt	LTP104	ltpFR	14	12	n/a	APPLE	33	n/a	n/a	n/a	n/a	n/a	n/a	n/a
1982314	REC_WORD	wordpools/wasnorm_wordpool.txt	LTP104	ltpFR	14	12	0	TART	1436	n/a	0	n/a	n/a	n/a	n/a	n/a
1984853	REC_WORD	wordpools/wasnorm_wordpool.txt	LTP104	ltpFR	14	12	1	LAMB	797	n/a	1	n/a	n/a	n/a	n/a	n/a
1986644	REC_WORD	wordpools/wasnorm_wordpool.txt	LTP104	ltpFR	14	12	1	SHEARS	1276	n/a	0	n/a	n/a	n/a	n/a	n/a
1989463	REC_WORD	wordpools/wasnorm_wordpool.txt	LTP104	ltpFR	14	12	1	SHEARS	1276	n/a	0	n/a	n/a	n/a	n/a	n/a
2004409	REC_WORD	wordpools/wasnorm_wordpool.txt	LTP104	ltpFR	14	12	1	CRUMB	416	n/a	0	n/a	n/a	n/a	n/a	n/a
2017555	REST_REWET	n/a	LTP104	ltpFR	14	12	n/a	n/a	n/a	n/a	n/a	n/a	n/a	n/a	n/a	n/a
3245910	WORD	wordpools/wasnorm_wordpool.txt	LTP104	ltpFR	14	13	0	PLATE	1086	n/a	0	1	0.412841796875	0.57763671875	upper	../fonts/zerothre.ttf
3250118	WORD	wordpools/wasnorm_wordpool.txt	LTP104	ltpFR	14	13	0	REFRIGERATOR	1179	n/a	1	1	0.412841796875	0.57763671875	upper	../fonts/zerothre.ttf
3254285	WORD	wordpools/wasnorm_wordpool.txt	LTP104	ltpFR	14	13	0	LIPSTICK	829	n/a	0	1	0.412841796875	0.57763671875	upper	../fonts/zerothre.ttf
3258260	WORD	wordpools/wasnorm_wordpool.txt	LTP104	ltpFR	14	13	0	FLUTE	585	n/a	0	1	0.412841796875	0.57763671875	upper	../fonts/zerothre.ttf
3262451	WORD	wordpools/wasnorm_wordpool.txt	LTP104	ltpFR	14	13	0	TRUMPET	1513	n/a	0	1	0.412841796875	0.57763671875	upper	../fonts/zerothre.ttf
3266376	WORD	wordpools/wasnorm_wordpool.txt	LTP104	ltpFR	14	13	0	VALVE	1546	n/a	0	1	0.412841796875	0.57763671875	upper	../fonts/zerothre.ttf
3270292	WORD	wordpools/wasnorm_wordpool.txt	LTP104	ltpFR	14	13	0	SALESMAN	1225	n/a	1	1	0.412841796875	0.57763671875	upper	../fonts/zerothre.ttf
3274425	WORD	wordpools/wasnorm_wordpool.txt	LTP104	ltpFR	14	13	0	PARTNER	1017	n/a	1	1	0.412841796875	0.57763671875	upper	../fonts/zerothre.ttf
3278433	WORD	wordpools/wasnorm_wordpool.txt	LTP104	ltpFR	14	13	0	CAB	209	n/a	1	1	0.412841796875	0.57763671875	upper	../fonts/zerothre.ttf
3282533	WORD	wordpools/wasnorm_wordpool.txt	LTP104	ltpFR	14	13	0	UNIFORM	1539	n/a	1	1	0.412841796875	0.57763671875	upper	../fonts/zerothre.ttf
3286616	WORD	wordpools/wasnorm_wordpool.txt	LTP104	ltpFR	14	13	0	RACK	1154	n/a	0	1	0.412841796875	0.57763671875	upper	../fonts/zerothre.ttf
3290557	WORD	wordpools/wasnorm_wordpool.txt	LTP104	ltpFR	14	13	0	FUNGUS	614	n/a	0	1	0.412841796875	0.57763671875	upper	../fonts/zerothre.ttf
3294607	WORD	wordpools/wasnorm_wordpool.txt	LTP104	ltpFR	14	13	0	FOOT	590	n/a	0	1	0.412841796875	0.57763671875	upper	../fonts/zerothre.ttf
3298773	WORD	wordpools/wasnorm_wordpool.txt	LTP104	ltpFR	14	13	0	BEET	115	n/a	0	1	0.412841796875	0.57763671875	upper	../fonts/zerothre.ttf
3302780	WORD	wordpools/wasnorm_wordpool.txt	LTP104	ltpFR	14	13	0	UNIVERSITY	1541	n/a	1	1	0.412841796875	0.57763671875	upper	../fonts/zerothre.ttf
3306838	WORD	wordpools/wasnorm_wordpool.txt	LTP104	ltpFR	14	13	0	POLE	1097	n/a	1	1	0.412841796875	0.57763671875	upper	../fonts/zerothre.ttf
3312515	REC_START	n/a	LTP104	ltpFR	14	13	n/a	n/a	n/a	n/a	n/a	n/a	n/a	n/a	n/a	n/a
3313692	REC_WORD	wordpools/wasnorm_wordpool.txt	LTP104	ltpFR	14	13	0	POLE	1097	n/a	1	n/a	n/a	n/a	n/a	n/a
3315129	REC_WORD	wordpools/wasnorm_wordpool.txt	LTP104	ltpFR	14	13	0	UNIVERSITY	1541	n/a	1	n/a	n/a	n/a	n/a	n/a
3316546	REC_WORD	wordpools/wasnorm_wordpool.txt	LTP104	ltpFR	14	13	n/a	PROFESSOR	1131	n/a	n/a	n/a	n/a	n/a	n/a	n/a
3317942	REC_WORD	wordpools/wasnorm_wordpool.txt	LTP104	ltpFR	14	13	n/a	SCHOOL	1248	n/a	n/a	n/a	n/a	n/a	n/a	n/a
3320113	REC_WORD	wordpools/wasnorm_wordpool.txt	LTP104	ltpFR	14	13	0	PLATE	1086	n/a	0	n/a	n/a	n/a	n/a	n/a
3321534	REC_WORD	wordpools/wasnorm_wordpool.txt	LTP104	ltpFR	14	13	0	REFRIGERATOR	1179	n/a	1	n/a	n/a	n/a	n/a	n/a
3323001	REC_WORD	wordpools/wasnorm_wordpool.txt	LTP104	ltpFR	14	13	n/a	FREEZER	604	n/a	n/a	n/a	n/a	n/a	n/a	n/a
3324662	REC_WORD	wordpools/wasnorm_wordpool.txt	LTP104	ltpFR	14	13	0	LIPSTICK	829	n/a	0	n/a	n/a	n/a	n/a	n/a
3330698	REC_WORD	wordpools/wasnorm_wordpool.txt	LTP104	ltpFR	14	13	0	PARTNER	1017	n/a	1	n/a	n/a	n/a	n/a	n/a
3331895	REC_WORD	wordpools/wasnorm_wordpool.txt	LTP104	ltpFR	14	13	n/a	SPOUSE	1358	n/a	n/a	n/a	n/a	n/a	n/a	n/a
3335692	REC_WORD	wordpools/wasnorm_wordpool.txt	LTP104	ltpFR	14	13	0	SALESMAN	1225	n/a	1	n/a	n/a	n/a	n/a	n/a
3339728	REC_WORD	wordpools/wasnorm_wordpool.txt	LTP104	ltpFR	14	13	0	CAB	209	n/a	1	n/a	n/a	n/a	n/a	n/a
3340995	REC_WORD	wordpools/wasnorm_wordpool.txt	LTP104	ltpFR	14	13	n/a	TAXI	1438	n/a	n/a	n/a	n/a	n/a	n/a	n/a
3342292	REC_WORD	wordpools/wasnorm_wordpool.txt	LTP104	ltpFR	14	13	n/a	YELLOW	-1	n/a	n/a	n/a	n/a	n/a	n/a	n/a
3343759	REC_WORD	wordpools/wasnorm_wordpool.txt	LTP104	ltpFR	14	13	n/a	CAR	241	n/a	n/a	n/a	n/a	n/a	n/a	n/a
3347460	REC_WORD	wordpools/wasnorm_wordpool.txt	LTP104	ltpFR	14	13	0	RACK	1154	n/a	0	n/a	n/a	n/a	n/a	n/a
3353793	REC_WORD	wordpools/wasnorm_wordpool.txt	LTP104	ltpFR	14	13	0	FOOT	590	n/a	0	n/a	n/a	n/a	n/a	n/a
3355113	REC_WORD	wordpools/wasnorm_wordpool.txt	LTP104	ltpFR	14	13	0	FOOT	590	n/a	0	n/a	n/a	n/a	n/a	n/a
3357956	REC_WORD	wordpools/wasnorm_wordpool.txt	LTP104	ltpFR	14	13	0	FUNGUS	614	n/a	0	n/a	n/a	n/a	n/a	n/a
3359433	REC_WORD	wordpools/wasnorm_wordpool.txt	LTP104	ltpFR	14	13	n/a	MILDEW	893	n/a	n/a	n/a	n/a	n/a	n/a	n/a
3361908	REC_WORD	wordpools/wasnorm_wordpool.txt	LTP104	ltpFR	14	13	n/a	ATHLETE	52	n/a	n/a	n/a	n/a	n/a	n/a	n/a
3364272	REC_WORD	wordpools/wasnorm_wordpool.txt	LTP104	ltpFR	14	13	n/a	SPORT	-1	n/a	n/a	n/a	n/a	n/a	n/a	n/a
3368347	REC_WORD	wordpools/wasnorm_wordpool.txt	LTP104	ltpFR	14	13	n/a	BEAT	-1	n/a	n/a	n/a	n/a	n/a	n/a	n/a
3392832	WORD	wordpools/wasnorm_wordpool.txt	LTP104	ltpFR	14	14	-1	DRILL	497	n/a	-1	1	1.0	1.0	upper	../fonts/Verdana.ttf
3396724	WORD	wordpools/wasnorm_wordpool.txt	LTP104	ltpFR	14	14	-1	RESTAURANT	1187	n/a	-1	1	1.0	1.0	upper	../fonts/Verdana.ttf
3400615	WORD	wordpools/wasnorm_wordpool.txt	LTP104	ltpFR	14	14	-1	SEAFOOD	1260	n/a	-1	1	1.0	1.0	upper	../fonts/Verdana.ttf
3404615	WORD	wordpools/wasnorm_wordpool.txt	LTP104	ltpFR	14	14	-1	MAMMAL	861	n/a	-1	1	1.0	1.0	upper	../fonts/Verdana.ttf
3408448	WORD	wordpools/wasnorm_wordpool.txt	LTP104	ltpFR	14	14	-1	SQUID	1361	n/a	-1	1	1.0	1.0	upper	../fonts/Verdana.ttf
3412456	WORD	wordpools/wasnorm_wordpool.txt	LTP104	ltpFR	14	14	-1	HAMMER	680	n/a	-1	1	1.0	1.0	upper	../fonts/Verdana.ttf
3416622	WORD	wordpools/wasnorm_wordpool.txt	LTP104	ltpFR	14	14	-1	SICKLE	1302	n/a	-1	1	1.0	1.0	upper	../fonts/Verdana.ttf
3420456	WORD	wordpools/wasnorm_wordpool.txt	LTP104	ltpFR	14	14	-1	BATTERY	101	n/a	-1	1	1.0	1.0	upper	../fonts/Verdana.ttf
3424597	WORD	wordpools/wasnorm_wordpool.txt	LTP104	ltpFR	14	14	-1	CUSHION	428	n/a	-1	1	1.0	1.0	upper	../fonts/Verdana.ttf
3428605	WORD	wordpools/wasnorm_wordpool.txt	LTP104	ltpFR	14	14	-1	SOFA	1342	n/a	-1	1	1.0	1.0	upper	../fonts/Verdana.ttf
3432455	WORD	wordpools/wasnorm_wordpool.txt	LTP104	ltpFR	14	14	-1	STAKE	1368	n/a	-1	1	1.0	1.0	upper	../fonts/Verdana.ttf
3436471	WORD	wordpools/wasnorm_wordpool.txt	LTP104	ltpFR	14	14	-1	SANDWICH	1232	n/a	-1	1	1.0	1.0	upper	../fonts/Verdana.ttf
3440379	WORD	wordpools/wasnorm_wordpool.txt	LTP104	ltpFR	14	14	-1	BEEF	113	n/a	-1	1	1.0	1.0	upper	../fonts/Verdana.ttf
3444379	WORD	wordpools/wasnorm_wordpool.txt	LTP104	ltpFR	14	14	-1	BANDAGE	79	n/a	-1	1	1.0	1.0	upper	../fonts/Verdana.ttf
3448287	WORD	wordpools/wasnorm_wordpool.txt	LTP104	ltpFR	14	14	-1	AUTOMOBILE	62	n/a	-1	1	1.0	1.0	upper	../fonts/Verdana.ttf
3452353	WORD	wordpools/wasnorm_wordpool.txt	LTP104	ltpFR	14	14	-1	BAND	78	n/a	-1	1	1.0	1.0	upper	../fonts/Verdana.ttf
3458412	REC_START	n/a	LTP104	ltpFR	14	14	n/a	n/a	n/a	n/a	n/a	n/a	n/a	n/a	n/a	n/a
3459434	REC_WORD	wordpools/wasnorm_wordpool.txt	LTP104	ltpFR	14	14	-1	BAND	78	n/a	-1	n/a	n/a	n/a	n/a	n/a
3460647	REC_WORD	wordpools/wasnorm_wordpool.txt	LTP104	ltpFR	14	14	n/a	DRUM	502	n/a	n/a	n/a	n/a	n/a	n/a	n/a
3463156	REC_WORD	wordpools/wasnorm_wordpool.txt	LTP104	ltpFR	14	14	n/a	MUSIC	-1	n/a	n/a	n/a	n/a	n/a	n/a	n/a
3467042	REC_WORD	wordpools/wasnorm_wordpool.txt	LTP104	ltpFR	14	14	-1	BANDAGE	79	n/a	-1	n/a	n/a	n/a	n/a	n/a
3470325	REC_WORD	wordpools/wasnorm_wordpool.txt	LTP104	ltpFR	14	14	-1	SOFA	1342	n/a	-1	n/a	n/a	n/a	n/a	n/a
3471886	REC_WORD	wordpools/wasnorm_wordpool.txt	LTP104	ltpFR	14	14	-1	CUSHION	428	n/a	-1	n/a	n/a	n/a	n/a	n/a
3474939	REC_WORD	wordpools/wasnorm_wordpool.txt	LTP104	ltpFR	14	14	-1	HAMMER	680	n/a	-1	n/a	n/a	n/a	n/a	n/a
3475827	REC_WORD	wordpools/wasnorm_wordpool.txt	LTP104	ltpFR	14	14	-1	SICKLE	1302	n/a	-1	n/a	n/a	n/a	n/a	n/a
3476970	REC_WORD	wordpools/wasnorm_wordpool.txt	LTP104	ltpFR	14	14	n/a	SCYTHE	-1	n/a	n/a	n/a	n/a	n/a	n/a	n/a
3482976	REC_WORD	wordpools/wasnorm_wordpool.txt	LTP104	ltpFR	14	14	n/a	COUCH	386	n/a	n/a	n/a	n/a	n/a	n/a	n/a
3486712	REC_WORD	wordpools/wasnorm_wordpool.txt	LTP104	ltpFR	14	14	-1	DRILL	497	n/a	-1	n/a	n/a	n/a	n/a	n/a
3488359	REC_WORD	wordpools/wasnorm_wordpool.txt	LTP104	ltpFR	14	14	-1	RESTAURANT	1187	n/a	-1	n/a	n/a	n/a	n/a	n/a
3490334	REC_WORD	wordpools/wasnorm_wordpool.txt	LTP104	ltpFR	14	14	1	CAFETERIA	217	n/a	0	n/a	n/a	n/a	n/a	n/a
3492569	REC_WORD	wordpools/wasnorm_wordpool.txt	LTP104	ltpFR	14	14	1	WAITER	1580	n/a	1	n/a	n/a	n/a	n/a	n/a
3537288	WORD	wordpools/wasnorm_wordpool.txt	LTP104	ltpFR	14	15	0	REEF	1177	n/a	1	1	0.412841796875	0.57763671875	upper	../fonts/zerothre.ttf
3541204	WORD	wordpools/wasnorm_wordpool.txt	LTP104	ltpFR	14	15	0	NOSE	957	n/a	0	1	0.412841796875	0.57763671875	upper	../fonts/zerothre.ttf
3545037	WORD	wordpools/wasnorm_wordpool.txt	LTP104	ltpFR	14	15	0	GRIZZLY	662	n/a	1	1	0.412841796875	0.57763671875	upper	../fonts/zerothre.ttf
3548945	WORD	wordpools/wasnorm_wordpool.txt	LTP104	ltpFR	14	15	0	GRAVEL	659	n/a	0	1	0.412841796875	0.57763671875	upper	../fonts/zerothre.ttf
3552978	WORD	wordpools/wasnorm_wordpool.txt	LTP104	ltpFR	14	15	0	GROUND	666	n/a	1	1	0.412841796875	0.57763671875	upper	../fonts/zerothre.ttf
3556902	WORD	wordpools/wasnorm_wordpool.txt	LTP104	ltpFR	14	15	0	DUSTPAN	509	n/a	0	1	0.412841796875	0.57763671875	upper	../fonts/zerothre.ttf
3560852	WORD	wordpools/wasnorm_wordpool.txt	LTP104	ltpFR	14	15	0	SHOULDER	1294	n/a	1	1	0.412841796875	0.57763671875	upper	../fonts/zerothre.ttf
3564843	WORD	wordpools/wasnorm_wordpool.txt	LTP104	ltpFR	14	15	0	WALL	1582	n/a	1	1	0.412841796875	0.57763671875	upper	../fonts/zerothre.ttf
3568860	WORD	wordpools/wasnorm_wordpool.txt	LTP104	ltpFR	14	15	0	POTATO	1115	n/a	0	1	0.412841796875	0.57763671875	upper	../fonts/zerothre.ttf
3572834	WORD	wordpools/wasnorm_wordpool.txt	LTP104	ltpFR	14	15	0	SCALLOP	1242	n/a	0	1	0.412841796875	0.57763671875	upper	../fonts/zerothre.ttf
3576801	WORD	wordpools/wasnorm_wordpool.txt	LTP104	ltpFR	14	15	0	FOREHEAD	592	n/a	1	1	0.412841796875	0.57763671875	upper	../fonts/zerothre.ttf
3581000	WORD	wordpools/wasnorm_wordpool.txt	LTP104	ltpFR	14	15	0	OCEAN	970	n/a	1	1	0.412841796875	0.57763671875	upper	../fonts/zerothre.ttf
3584950	WORD	wordpools/wasnorm_wordpool.txt	LTP104	ltpFR	14	15	0	PORT	1110	n/a	1	1	0.412841796875	0.57763671875	upper	../fonts/zerothre.ttf
3588883	WORD	wordpools/wasnorm_wordpool.txt	LTP104	ltpFR	14	15	0	RAFT	1159	n/a	1	1	0.412841796875	0.57763671875	upper	../fonts/zerothre.ttf
3592751	WORD	wordpools/wasnorm_wordpool.txt	LTP104	ltpFR	14	15	0	BUREAU	199	n/a	1	1	0.412841796875	0.57763671875	upper	../fonts/zerothre.ttf
3596883	WORD	wordpools/wasnorm_wordpool.txt	LTP104	ltpFR	14	15	0	DISHWASHER	475	n/a	1	1	0.412841796875	0.57763671875	upper	../fonts/zerothre.ttf
3602667	REC_START	n/a	LTP104	ltpFR	14	15	n/a	n/a	n/a	n/a	n/a	n/a	n/a	n/a	n/a	n/a
3603570	REC_WORD	wordpools/wasnorm_wordpool.txt	LTP104	ltpFR	14	15	0	DISHWASHER	475	n/a	1	n/a	n/a	n/a	n/a	n/a
3604837	REC_WORD	wordpools/wasnorm_wordpool.txt	LTP104	ltpFR	14	15	n/a	DISH	474	n/a	n/a	n/a	n/a	n/a	n/a	n/a
3605884	REC_WORD	wordpools/wasnorm_wordpool.txt	LTP104	ltpFR	14	15	n/a	DETERGENT	455	n/a	n/a	n/a	n/a	n/a	n/a	n/a
3607855	REC_WORD	wordpools/wasnorm_wordpool.txt	LTP104	ltpFR	14	15	0	BUREAU	199	n/a	1	n/a	n/a	n/a	n/a	n/a
3610788	REC_WORD	wordpools/wasnorm_wordpool.txt	LTP104	ltpFR	14	15	n/a	OFFICE	972	n/a	n/a	n/a	n/a	n/a	n/a	n/a
3621404	REC_WORD	wordpools/wasnorm_wordpool.txt	LTP104	ltpFR	14	15	0	REEF	1177	n/a	1	n/a	n/a	n/a	n/a	n/a
3623375	REC_WORD	wordpools/wasnorm_wordpool.txt	LTP104	ltpFR	14	15	n/a	CORAL	378	n/a	n/a	n/a	n/a	n/a	n/a	n/a
3625106	REC_WORD	wordpools/wasnorm_wordpool.txt	LTP104	ltpFR	14	15	n/a	PORCH	1106	n/a	n/a	n/a	n/a	n/a	n/a	n/a
3626498	REC_WORD	wordpools/wasnorm_wordpool.txt	LTP104	ltpFR	14	15	0	OCEAN	970	n/a	1	n/a	n/a	n/a	n/a	n/a
3627655	REC_WORD	wordpools/wasnorm_wordpool.txt	LTP104	ltpFR	14	15	n/a	SHIP	1286	n/a	n/a	n/a	n/a	n/a	n/a	n/a
3631327	REC_WORD	wordpools/wasnorm_wordpool.txt	LTP104	ltpFR	14	15	0	GRIZZLY	662	n/a	1	n/a	n/a	n/a	n/a	n/a
3632609	REC_WORD	wordpools/wasnorm_wordpool.txt	LTP104	ltpFR	14	15	0	NOSE	957	n/a	0	n/a	n/a	n/a	n/a	n/a
3633906	REC_WORD	wordpools/wasnorm_wordpool.txt	LTP104	ltpFR	14	15	n/a	MOUTH	926	n/a	n/a	n/a	n/a	n/a	n/a	n/a
3635422	REC_WORD	wordpools/wasnorm_wordpool.txt	LTP104	ltpFR	14	15	0	FOREHEAD	592	n/a	1	n/a	n/a	n/a	n/a	n/a
3637119	REC_WORD	wordpools/wasnorm_wordpool.txt	LTP104	ltpFR	14	15	0	SHOULDER	1294	n/a	1	n/a	n/a	n/a	n/a	n/a
3638635	REC_WORD	wordpools/wasnorm_wordpool.txt	LTP104	ltpFR	14	15	0	WALL	1582	n/a	1	n/a	n/a	n/a	n/a	n/a
3654753	REC_WORD	wordpools/wasnorm_wordpool.txt	LTP104	ltpFR	14	15	0	GRAVEL	659	n/a	0	n/a	n/a	n/a	n/a	n/a
3656145	REC_WORD	wordpools/wasnorm_wordpool.txt	LTP104	ltpFR	14	15	0	GROUND	666	n/a	1	n/a	n/a	n/a	n/a	n/a
3681727	WORD	wordpools/wasnorm_wordpool.txt	LTP104	ltpFR	14	16	1	MISSILE	900	n/a	0	0	0.5869140625	0.422607421875	lower	../fonts/amplitud.ttf
3685817	WORD	wordpools/wasnorm_wordpool.txt	LTP104	ltpFR	14	16	1	CAPTIVE	240	n/a	1	0	0.5869140625	0.422607421875	lower	../fonts/amplitud.ttf
3689626	WORD	wordpools/wasnorm_wordpool.txt	LTP104	ltpFR	14	16	1	HELMET	702	n/a	0	0	0.5869140625	0.422607421875	lower	../fonts/amplitud.ttf
3693551	WORD	wordpools/wasnorm_wordpool.txt	LTP104	ltpFR	14	16	1	AGENT	10	n/a	1	0	0.5869140625	0.422607421875	lower	../fonts/amplitud.ttf
3697392	WORD	wordpools/wasnorm_wordpool.txt	LTP104	ltpFR	14	16	0	ROD	1203	n/a	0	1	0.412841796875	0.57763671875	upper	../fonts/zerothre.ttf
3701576	WORD	wordpools/wasnorm_wordpool.txt	LTP104	ltpFR	14	16	0	STADIUM	1364	n/a	1	1	0.412841796875	0.57763671875	upper	../fonts/zerothre.ttf
3705433	WORD	wordpools/wasnorm_wordpool.txt	LTP104	ltpFR	14	16	0	BUS	201	n/a	1	1	0.412841796875	0.57763671875	upper	../fonts/zerothre.ttf
3709492	WORD	wordpools/wasnorm_wordpool.txt	LTP104	ltpFR	14	16	0	CHART	282	n/a	1	1	0.412841796875	0.57763671875	upper	../fonts/zerothre.ttf
3713683	WORD	wordpools/wasnorm_wordpool.txt	LTP104	ltpFR	14	16	0	PATROL	1027	n/a	1	1	0.412841796875	0.57763671875	upper	../fonts/zerothre.ttf
3717583	WORD	wordpools/wasnorm_wordpool.txt	LTP104	ltpFR	14	16	1	WINDSHIELD	1612	n/a	0	0	0.5869140625	0.422607421875	lower	../fonts/amplitud.ttf
3721466	WORD	wordpools/wasnorm_wordpool.txt	LTP104	ltpFR	14	16	1	DOCTOR	478	n/a	1	0	0.5869140625	0.422607421875	lower	../fonts/amplitud.ttf
3725349	WORD	wordpools/wasnorm_wordpool.txt	LTP104	ltpFR	14	16	1	SURGEON	1413	n/a	1	0	0.5869140625	0.422607421875	lower	../fonts/amplitud.ttf
3729248	WORD	wordpools/wasnorm_wordpool.txt	LTP104	ltpFR	14	16	1	SKUNK	1321	n/a	1	0	0.5869140625	0.422607421875	lower	../fonts/amplitud.ttf
3733381	WORD	wordpools/wasnorm_wordpool.txt	LTP104	ltpFR	14	16	0	PIPE	1073	n/a	0	1	0.412841796875	0.57763671875	upper	../fonts/zerothre.ttf
3737406	WORD	wordpools/wasnorm_wordpool.txt	LTP104	ltpFR	14	16	0	WORM	1623	n/a	0	1	0.412841796875	0.57763671875	upper	../fonts/zerothre.ttf
3741322	WORD	wordpools/wasnorm_wordpool.txt	LTP104	ltpFR	14	16	0	COD	340	n/a	0	1	0.412841796875	0.57763671875	upper	../fonts/zerothre.ttf
3747248	REC_START	n/a	LTP104	ltpFR	14	16	n/a	n/a	n/a	n/a	n/a	n/a	n/a	n/a	n/a	n/a
3747981	REC_WORD	wordpools/wasnorm_wordpool.txt	LTP104	ltpFR	14	16	1	SKUNK	1321	n/a	1	n/a	n/a	n/a	n/a	n/a
3749498	REC_WORD	wordpools/wasnorm_wordpool.txt	LTP104	ltpFR	14	16	0	PIPE	1073	n/a	0	n/a	n/a	n/a	n/a	n/a
3750415	REC_WORD	wordpools/wasnorm_wordpool.txt	LTP104	ltpFR	14	16	n/a	TOBACCO	-1	n/a	n/a	n/a	n/a	n/a	n/a	n/a
3752062	REC_WORD	wordpools/wasnorm_wordpool.txt	LTP104	ltpFR	14	16	0	WORM	1623	n/a	0	n/a	n/a	n/a	n/a	n/a
3753414	REC_WORD	wordpools/wasnorm_wordpool.txt	LTP104	ltpFR	14	16	n/a	COMPOST	-1	n/a	n/a	n/a	n/a	n/a	n/a	n/a
3762718	REC_WORD	wordpools/wasnorm_wordpool.txt	LTP104	ltpFR	14	16	1	MISSILE	900	n/a	0	n/a	n/a	n/a	n/a	n/a
3764439	REC_WORD	wordpools/wasnorm_wordpool.txt	LTP104	ltpFR	14	16	n/a	BOMB	147	n/a	n/a	n/a	n/a	n/a	n/a	n/a
3766070	REC_WORD	wordpools/wasnorm_wordpool.txt	LTP104	ltpFR	14	16	1	CAPTIVE	240	n/a	1	n/a	n/a	n/a	n/a	n/a
3767636	REC_WORD	wordpools/wasnorm_wordpool.txt	LTP104	ltpFR	14	16	1	AGENT	10	n/a	1	n/a	n/a	n/a	n/a	n/a
3768933	REC_WORD	wordpools/wasnorm_wordpool.txt	LTP104	ltpFR	14	16	n/a	CIA	-1	n/a	n/a	n/a	n/a	n/a	n/a	n/a
3787391	REC_WORD	wordpools/wasnorm_wordpool.txt	LTP104	ltpFR	14	16	1	WINDSHIELD	1612	n/a	0	n/a	n/a	n/a	n/a	n/a
3790460	REC_WORD	wordpools/wasnorm_wordpool.txt	LTP104	ltpFR	14	16	0	CHART	282	n/a	1	n/a	n/a	n/a	n/a	n/a
3792829	REC_WORD	wordpools/wasnorm_wordpool.txt	LTP104	ltpFR	14	16	0	STADIUM	1364	n/a	1	n/a	n/a	n/a	n/a	n/a
3794515	REC_WORD	wordpools/wasnorm_wordpool.txt	LTP104	ltpFR	14	16	n/a	FOOTBALL	591	n/a	n/a	n/a	n/a	n/a	n/a	n/a
3798671	REC_WORD	wordpools/wasnorm_wordpool.txt	LTP104	ltpFR	14	16	1	DOCTOR	478	n/a	1	n/a	n/a	n/a	n/a	n/a
3799848	REC_WORD	wordpools/wasnorm_wordpool.txt	LTP104	ltpFR	14	16	1	SURGEON	1413	n/a	1	n/a	n/a	n/a	n/a	n/a
3801899	REC_WORD	wordpools/wasnorm_wordpool.txt	LTP104	ltpFR	14	16	n/a	EPISIOPLASTY	-1	n/a	n/a	n/a	n/a	n/a	n/a	n/a
3844340	REC_START	n/a	LTP104	ltpFR	14	1	n/a	n/a	n/a	n/a	n/a	n/a	n/a	n/a	n/a	n/a
3844381	RECOG_TARGET	n/a	LTP104	ltpFR	14	1	1	TRANSPLANT	1496	n/a	0	n/a	n/a	n/a	n/a	n/a
3845664	RECOG_RESP	n/a	LTP104	ltpFR	14	1	1	TRANSPLANT	1496	n/a	0	n/a	n/a	n/a	n/a	n/a
3848389	RECOG_LURE	n/a	LTP104	ltpFR	14	1	n/a	STAPLE	1371	n/a	n/a	n/a	n/a	n/a	n/a	n/a
3849104	RECOG_RESP	n/a	LTP104	ltpFR	14	1	n/a	STAPLE	1371	n/a	n/a	n/a	n/a	n/a	n/a	n/a
3851306	RECOG_LURE	n/a	LTP104	ltpFR	14	1	n/a	AUTHOR	61	n/a	n/a	n/a	n/a	n/a	n/a	n/a
3851934	RECOG_RESP	n/a	LTP104	ltpFR	14	1	n/a	AUTHOR	61	n/a	n/a	n/a	n/a	n/a	n/a	n/a
3853938	RECOG_LURE	n/a	LTP104	ltpFR	14	1	n/a	BEDROOM	111	n/a	n/a	n/a	n/a	n/a	n/a	n/a
3854624	RECOG_RESP	n/a	LTP104	ltpFR	14	1	n/a	BEDROOM	111	n/a	n/a	n/a	n/a	n/a	n/a	n/a
3856597	RECOG_TARGET	n/a	LTP104	ltpFR	14	1	0	BUS	201	n/a	1	n/a	n/a	n/a	n/a	n/a
3857192	RECOG_RESP	n/a	LTP104	ltpFR	14	1	0	BUS	201	n/a	1	n/a	n/a	n/a	n/a	n/a
3859154	RECOG_LURE	n/a	LTP104	ltpFR	14	1	n/a	COMB	351	n/a	n/a	n/a	n/a	n/a	n/a	n/a
3859879	RECOG_RESP	n/a	LTP104	ltpFR	14	1	n/a	COMB	351	n/a	n/a	n/a	n/a	n/a	n/a	n/a
3861763	RECOG_TARGET	n/a	LTP104	ltpFR	14	1	1	COOKBOOK	373	n/a	0	n/a	n/a	n/a	n/a	n/a
3862362	RECOG_RESP	n/a	LTP104	ltpFR	14	1	1	COOKBOOK	373	n/a	0	n/a	n/a	n/a	n/a	n/a
3864229	RECOG_TARGET	n/a	LTP104	ltpFR	14	1	1	MOON	914	n/a	0	n/a	n/a	n/a	n/a	n/a
3864818	RECOG_RESP	n/a	LTP104	ltpFR	14	1	1	MOON	914	n/a	0	n/a	n/a	n/a	n/a	n/a
3866613	RECOG_TARGET	n/a	LTP104	ltpFR	14	1	-1	CLOTHES	327	n/a	-1	n/a	n/a	n/a	n/a	n/a
3867239	RECOG_RESP	n/a	LTP104	ltpFR	14	1	-1	CLOTHES	327	n/a	-1	n/a	n/a	n/a	n/a	n/a
3869078	RECOG_TARGET	n/a	LTP104	ltpFR	14	1	0	SUPERMARKET	1409	n/a	1	n/a	n/a	n/a	n/a	n/a
3869682	RECOG_RESP	n/a	LTP104	ltpFR	14	1	0	SUPERMARKET	1409	n/a	1	n/a	n/a	n/a	n/a	n/a
3871546	RECOG_TARGET	n/a	LTP104	ltpFR	14	1	1	PARIS	1014	n/a	0	n/a	n/a	n/a	n/a	n/a
3872144	RECOG_RESP	n/a	LTP104	ltpFR	14	1	1	PARIS	1014	n/a	0	n/a	n/a	n/a	n/a	n/a
3873953	RECOG_LURE	n/a	LTP104	ltpFR	14	1	n/a	BANQUET	86	n/a	n/a	n/a	n/a	n/a	n/a	n/a
3874814	RECOG_RESP	n/a	LTP104	ltpFR	14	1	n/a	BANQUET	86	n/a	n/a	n/a	n/a	n/a	n/a	n/a
3876629	RECOG_LURE	n/a	LTP104	ltpFR	14	1	n/a	PEACH	1031	n/a	n/a	n/a	n/a	n/a	n/a	n/a
3877362	RECOG_RESP	n/a	LTP104	ltpFR	14	1	n/a	PEACH	1031	n/a	n/a	n/a	n/a	n/a	n/a	n/a
3879244	RECOG_LURE	n/a	LTP104	ltpFR	14	1	n/a	PADDING	999	n/a	n/a	n/a	n/a	n/a	n/a	n/a
3879847	RECOG_RESP	n/a	LTP104	ltpFR	14	1	n/a	PADDING	999	n/a	n/a	n/a	n/a	n/a	n/a	n/a
3881687	RECOG_LURE	n/a	LTP104	ltpFR	14	1	n/a	AIRPORT	13	n/a	n/a	n/a	n/a	n/a	n/a	n/a
3882264	RECOG_RESP	n/a	LTP104	ltpFR	14	1	n/a	AIRPORT	13	n/a	n/a	n/a	n/a	n/a	n/a	n/a
3884127	RECOG_LURE	n/a	LTP104	ltpFR	14	1	n/a	PAWN	1030	n/a	n/a	n/a	n/a	n/a	n/a	n/a
3884652	RECOG_RESP	n/a	LTP104	ltpFR	14	1	n/a	PAWN	1030	n/a	n/a	n/a	n/a	n/a	n/a	n/a
3886511	RECOG_LURE	n/a	LTP104	ltpFR	14	1	n/a	GUITAR	670	n/a	n/a	n/a	n/a	n/a	n/a	n/a
3887484	RECOG_RESP	n/a	LTP104	ltpFR	14	1	n/a	GUITAR	670	n/a	n/a	n/a	n/a	n/a	n/a	n/a
3889494	RECOG_TARGET	n/a	LTP104	ltpFR	14	1	1	LEADER	807	n/a	1	n/a	n/a	n/a	n/a	n/a
3890083	RECOG_RESP	n/a	LTP104	ltpFR	14	1	1	LEADER	807	n/a	1	n/a	n/a	n/a	n/a	n/a
3892051	RECOG_TARGET	n/a	LTP104	ltpFR	14	1	1	CAPTIVE	240	n/a	1	n/a	n/a	n/a	n/a	n/a
3892577	RECOG_RESP	n/a	LTP104	ltpFR	14	1	1	CAPTIVE	240	n/a	1	n/a	n/a	n/a	n/a	n/a
3894494	RECOG_LURE	n/a	LTP104	ltpFR	14	1	n/a	PRINCE	1124	n/a	n/a	n/a	n/a	n/a	n/a	n/a
3895204	RECOG_RESP	n/a	LTP104	ltpFR	14	1	n/a	PRINCE	1124	n/a	n/a	n/a	n/a	n/a	n/a	n/a
3898819	REC_START	n/a	LTP104	ltpFR	14	2	n/a	n/a	n/a	n/a	n/a	n/a	n/a	n/a	n/a	n/a
3898851	RECOG_TARGET	n/a	LTP104	ltpFR	14	2	-1	EGYPT	519	n/a	-1	n/a	n/a	n/a	n/a	n/a
3899896	RECOG_RESP	n/a	LTP104	ltpFR	14	2	-1	EGYPT	519	n/a	-1	n/a	n/a	n/a	n/a	n/a
3901917	RECOG_TARGET	n/a	LTP104	ltpFR	14	2	1	DOCTOR	478	n/a	1	n/a	n/a	n/a	n/a	n/a
3902502	RECOG_RESP	n/a	LTP104	ltpFR	14	2	1	DOCTOR	478	n/a	1	n/a	n/a	n/a	n/a	n/a
3904410	RECOG_LURE	n/a	LTP104	ltpFR	14	2	n/a	BANJO	82	n/a	n/a	n/a	n/a	n/a	n/a	n/a
3904982	RECOG_RESP	n/a	LTP104	ltpFR	14	2	n/a	BANJO	82	n/a	n/a	n/a	n/a	n/a	n/a	n/a
3906834	RECOG_TARGET	n/a	LTP104	ltpFR	14	2	-1	CROWN	415	n/a	-1	n/a	n/a	n/a	n/a	n/a
3907394	RECOG_RESP	n/a	LTP104	ltpFR	14	2	-1	CROWN	415	n/a	-1	n/a	n/a	n/a	n/a	n/a
3909268	RECOG_TARGET	n/a	LTP104	ltpFR	14	2	0	BUTCHER	203	n/a	1	n/a	n/a	n/a	n/a	n/a
3909851	RECOG_RESP	n/a	LTP104	ltpFR	14	2	0	BUTCHER	203	n/a	1	n/a	n/a	n/a	n/a	n/a
3911768	RECOG_TARGET	n/a	LTP104	ltpFR	14	2	0	CHART	282	n/a	1	n/a	n/a	n/a	n/a	n/a
3912364	RECOG_RESP	n/a	LTP104	ltpFR	14	2	0	CHART	282	n/a	1	n/a	n/a	n/a	n/a	n/a
3914276	RECOG_LURE	n/a	LTP104	ltpFR	14	2	n/a	BANK	83	n/a	n/a	n/a	n/a	n/a	n/a	n/a
3914955	RECOG_RESP	n/a	LTP104	ltpFR	14	2	n/a	BANK	83	n/a	n/a	n/a	n/a	n/a	n/a	n/a
3916850	RECOG_LURE	n/a	LTP104	ltpFR	14	2	n/a	SCALPEL	1243	n/a	n/a	n/a	n/a	n/a	n/a	n/a
3917590	RECOG_RESP	n/a	LTP104	ltpFR	14	2	n/a	SCALPEL	1243	n/a	n/a	n/a	n/a	n/a	n/a	n/a
3919484	RECOG_TARGET	n/a	LTP104	ltpFR	14	2	1	GOAT	644	n/a	1	n/a	n/a	n/a	n/a	n/a
3920002	RECOG_RESP	n/a	LTP104	ltpFR	14	2	1	GOAT	644	n/a	1	n/a	n/a	n/a	n/a	n/a
3921908	RECOG_LURE	n/a	LTP104	ltpFR	14	2	n/a	MACHINE	852	n/a	n/a	n/a	n/a	n/a	n/a	n/a
3922601	RECOG_RESP	n/a	LTP104	ltpFR	14	2	n/a	MACHINE	852	n/a	n/a	n/a	n/a	n/a	n/a	n/a
3924467	RECOG_LURE	n/a	LTP104	ltpFR	14	2	n/a	NERVE	944	n/a	n/a	n/a	n/a	n/a	n/a	n/a
3925069	RECOG_RESP	n/a	LTP104	ltpFR	14	2	n/a	NERVE	944	n/a	n/a	n/a	n/a	n/a	n/a	n/a
3926915	RECOG_TARGET	n/a	LTP104	ltpFR	14	2	1	WAITER	1580	n/a	1	n/a	n/a	n/a	n/a	n/a
3927472	RECOG_RESP	n/a	LTP104	ltpFR	14	2	1	WAITER	1580	n/a	1	n/a	n/a	n/a	n/a	n/a
3929583	RECOG_LURE	n/a	LTP104	ltpFR	14	2	n/a	COOKIE	374	n/a	n/a	n/a	n/a	n/a	n/a	n/a
3930200	RECOG_RESP	n/a	LTP104	ltpFR	14	2	n/a	COOKIE	374	n/a	n/a	n/a	n/a	n/a	n/a	n/a
3932065	RECOG_LURE	n/a	LTP104	ltpFR	14	2	n/a	SLOPE	1328	n/a	n/a	n/a	n/a	n/a	n/a	n/a
3932636	RECOG_RESP	n/a	LTP104	ltpFR	14	2	n/a	SLOPE	1328	n/a	n/a	n/a	n/a	n/a	n/a	n/a
3934491	RECOG_TARGET	n/a	LTP104	ltpFR	14	2	-1	HAMMER	680	n/a	-1	n/a	n/a	n/a	n/a	n/a
3935086	RECOG_RESP	n/a	LTP104	ltpFR	14	2	-1	HAMMER	680	n/a	-1	n/a	n/a	n/a	n/a	n/a
3936998	RECOG_TARGET	n/a	LTP104	ltpFR	14	2	1	DANDRUFF	439	n/a	0	n/a	n/a	n/a	n/a	n/a
3937542	RECOG_RESP	n/a	LTP104	ltpFR	14	2	1	DANDRUFF	439	n/a	0	n/a	n/a	n/a	n/a	n/a
3939457	RECOG_LURE	n/a	LTP104	ltpFR	14	2	n/a	NUN	962	n/a	n/a	n/a	n/a	n/a	n/a	n/a
3940080	RECOG_RESP	n/a	LTP104	ltpFR	14	2	n/a	NUN	962	n/a	n/a	n/a	n/a	n/a	n/a	n/a
3941873	RECOG_LURE	n/a	LTP104	ltpFR	14	2	n/a	ASHTRAY	45	n/a	n/a	n/a	n/a	n/a	n/a	n/a
3942475	RECOG_RESP	n/a	LTP104	ltpFR	14	2	n/a	ASHTRAY	45	n/a	n/a	n/a	n/a	n/a	n/a	n/a
3944298	RECOG_LURE	n/a	LTP104	ltpFR	14	2	n/a	CLOVE	329	n/a	n/a	n/a	n/a	n/a	n/a	n/a
3944957	RECOG_RESP	n/a	LTP104	ltpFR	14	2	n/a	CLOVE	329	n/a	n/a	n/a	n/a	n/a	n/a	n/a
3946914	RECOG_TARGET	n/a	LTP104	ltpFR	14	2	1	NEWSSTAND	949	n/a	0	n/a	n/a	n/a	n/a	n/a
3947470	RECOG_RESP	n/a	LTP104	ltpFR	14	2	1	NEWSSTAND	949	n/a	0	n/a	n/a	n/a	n/a	n/a
3951218	REC_START	n/a	LTP104	ltpFR	14	3	n/a	n/a	n/a	n/a	n/a	n/a	n/a	n/a	n/a	n/a
3951256	RECOG_TARGET	n/a	LTP104	ltpFR	14	3	1	CANVAS	234	n/a	2	n/a	n/a	n/a	n/a	n/a
3952310	RECOG_RESP	n/a	LTP104	ltpFR	14	3	1	CANVAS	234	n/a	2	n/a	n/a	n/a	n/a	n/a
3954481	RECOG_TARGET	n/a	LTP104	ltpFR	14	3	1	OVEN	991	n/a	0	n/a	n/a	n/a	n/a	n/a
3955087	RECOG_RESP	n/a	LTP104	ltpFR	14	3	1	OVEN	991	n/a	0	n/a	n/a	n/a	n/a	n/a
3957038	RECOG_TARGET	n/a	LTP104	ltpFR	14	3	1	SPOOL	1356	n/a	0	n/a	n/a	n/a	n/a	n/a
3957674	RECOG_RESP	n/a	LTP104	ltpFR	14	3	1	SPOOL	1356	n/a	0	n/a	n/a	n/a	n/a	n/a
3959564	RECOG_LURE	n/a	LTP104	ltpFR	14	3	n/a	RAZOR	1171	n/a	n/a	n/a	n/a	n/a	n/a	n/a
3960197	RECOG_RESP	n/a	LTP104	ltpFR	14	3	n/a	RAZOR	1171	n/a	n/a	n/a	n/a	n/a	n/a	n/a
3962096	RECOG_LURE	n/a	LTP104	ltpFR	14	3	n/a	FAUCET	555	n/a	n/a	n/a	n/a	n/a	n/a	n/a
3962726	RECOG_RESP	n/a	LTP104	ltpFR	14	3	n/a	FAUCET	555	n/a	n/a	n/a	n/a	n/a	n/a	n/a
3964614	RECOG_TARGET	n/a	LTP104	ltpFR	14	3	1	HELMET	702	n/a	0	n/a	n/a	n/a	n/a	n/a
3965131	RECOG_RESP	n/a	LTP104	ltpFR	14	3	1	HELMET	702	n/a	0	n/a	n/a	n/a	n/a	n/a
3967021	RECOG_LURE	n/a	LTP104	ltpFR	14	3	n/a	STRAW	1390	n/a	n/a	n/a	n/a	n/a	n/a	n/a
3967694	RECOG_RESP	n/a	LTP104	ltpFR	14	3	n/a	STRAW	1390	n/a	n/a	n/a	n/a	n/a	n/a	n/a
3969655	RECOG_LURE	n/a	LTP104	ltpFR	14	3	n/a	BULL	193	n/a	n/a	n/a	n/a	n/a	n/a	n/a
3970251	RECOG_RESP	n/a	LTP104	ltpFR	14	3	n/a	BULL	193	n/a	n/a	n/a	n/a	n/a	n/a	n/a
3972054	RECOG_TARGET	n/a	LTP104	ltpFR	14	3	1	SKUNK	1321	n/a	1	n/a	n/a	n/a	n/a	n/a
3972588	RECOG_RESP	n/a	LTP104	ltpFR	14	3	1	SKUNK	1321	n/a	1	n/a	n/a	n/a	n/a	n/a
3974538	RECOG_LURE	n/a	LTP104	ltpFR	14	3	n/a	EAGLE	512	n/a	n/a	n/a	n/a	n/a	n/a	n/a
3975062	RECOG_RESP	n/a	LTP104	ltpFR	14	3	n/a	EAGLE	512	n/a	n/a	n/a	n/a	n/a	n/a	n/a
3977020	RECOG_TARGET	n/a	LTP104	ltpFR	14	3	0	FAMILY	550	n/a	1	n/a	n/a	n/a	n/a	n/a
3977550	RECOG_RESP	n/a	LTP104	ltpFR	14	3	0	FAMILY	550	n/a	1	n/a	n/a	n/a	n/a	n/a
3979512	RECOG_TARGET	n/a	LTP104	ltpFR	14	3	-1	RUBY	1214	n/a	-1	n/a	n/a	n/a	n/a	n/a
3980059	RECOG_RESP	n/a	LTP104	ltpFR	14	3	-1	RUBY	1214	n/a	-1	n/a	n/a	n/a	n/a	n/a
3981895	RECOG_TARGET	n/a	LTP104	ltpFR	14	3	0	UNIVERSITY	1541	n/a	1	n/a	n/a	n/a	n/a	n/a
3982457	RECOG_RESP	n/a	LTP104	ltpFR	14	3	0	UNIVERSITY	1541	n/a	1	n/a	n/a	n/a	n/a	n/a
3984412	RECOG_LURE	n/a	LTP104	ltpFR	14	3	n/a	SLUG	1329	n/a	n/a	n/a	n/a	n/a	n/a	n/a
3985412	RECOG_RESP	n/a	LTP104	ltpFR	14	3	n/a	SLUG	1329	n/a	n/a	n/a	n/a	n/a	n/a	n/a
3987428	RECOG_TARGET	n/a	LTP104	ltpFR	14	3	1	RASH	1167	n/a	0	n/a	n/a	n/a	n/a	n/a
3988044	RECOG_RESP	n/a	LTP104	ltpFR	14	3	1	RASH	1167	n/a	0	n/a	n/a	n/a	n/a	n/a
3989952	RECOG_TARGET	n/a	LTP104	ltpFR	14	3	0	MARKET	871	n/a	1	n/a	n/a	n/a	n/a	n/a
3990558	RECOG_RESP	n/a	LTP104	ltpFR	14	3	0	MARKET	871	n/a	1	n/a	n/a	n/a	n/a	n/a
3992470	RECOG_TARGET	n/a	LTP104	ltpFR	14	3	-1	DUMP	505	n/a	-1	n/a	n/a	n/a	n/a	n/a
3992987	RECOG_RESP	n/a	LTP104	ltpFR	14	3	-1	DUMP	505	n/a	-1	n/a	n/a	n/a	n/a	n/a
3994944	RECOG_TARGET	n/a	LTP104	ltpFR	14	3	-1	KING	777	n/a	-1	n/a	n/a	n/a	n/a	n/a
3995449	RECOG_RESP	n/a	LTP104	ltpFR	14	3	-1	KING	777	n/a	-1	n/a	n/a	n/a	n/a	n/a
3997319	RECOG_TARGET	n/a	LTP104	ltpFR	14	3	0	FOREHEAD	592	n/a	1	n/a	n/a	n/a	n/a	n/a
3997863	RECOG_RESP	n/a	LTP104	ltpFR	14	3	0	FOREHEAD	592	n/a	1	n/a	n/a	n/a	n/a	n/a
3999711	RECOG_TARGET	n/a	LTP104	ltpFR	14	3	0	FOX	598	n/a	1	n/a	n/a	n/a	n/a	n/a
4000315	RECOG_RESP	n/a	LTP104	ltpFR	14	3	0	FOX	598	n/a	1	n/a	n/a	n/a	n/a	n/a
4003812	REC_START	n/a	LTP104	ltpFR	14	4	n/a	n/a	n/a	n/a	n/a	n/a	n/a	n/a	n/a	n/a
4003851	RECOG_TARGET	n/a	LTP104	ltpFR	14	4	-1	TERMITE	1451	n/a	-1	n/a	n/a	n/a	n/a	n/a
4004372	RECOG_RESP	n/a	LTP104	ltpFR	14	4	-1	TERMITE	1451	n/a	-1	n/a	n/a	n/a	n/a	n/a
4006243	RECOG_TARGET	n/a	LTP104	ltpFR	14	4	0	VET	1560	n/a	1	n/a	n/a	n/a	n/a	n/a
4006794	RECOG_RESP	n/a	LTP104	ltpFR	14	4	0	VET	1560	n/a	1	n/a	n/a	n/a	n/a	n/a
4008660	RECOG_LURE	n/a	LTP104	ltpFR	14	4	n/a	KNOB	787	n/a	n/a	n/a	n/a	n/a	n/a	n/a
4009181	RECOG_RESP	n/a	LTP104	ltpFR	14	4	n/a	KNOB	787	n/a	n/a	n/a	n/a	n/a	n/a	n/a
4011026	RECOG_LURE	n/a	LTP104	ltpFR	14	4	n/a	GLOBE	641	n/a	n/a	n/a	n/a	n/a	n/a	n/a
4012005	RECOG_RESP	n/a	LTP104	ltpFR	14	4	n/a	GLOBE	641	n/a	n/a	n/a	n/a	n/a	n/a	n/a
4013975	RECOG_TARGET	n/a	LTP104	ltpFR	14	4	-1	ATMOSPHERE	54	n/a	-1	n/a	n/a	n/a	n/a	n/a
4014556	RECOG_RESP	n/a	LTP104	ltpFR	14	4	-1	ATMOSPHERE	54	n/a	-1	n/a	n/a	n/a	n/a	n/a
4016484	RECOG_LURE	n/a	LTP104	ltpFR	14	4	n/a	RAT	1169	n/a	n/a	n/a	n/a	n/a	n/a	n/a
4017140	RECOG_RESP	n/a	LTP104	ltpFR	14	4	n/a	RAT	1169	n/a	n/a	n/a	n/a	n/a	n/a	n/a
4018983	RECOG_TARGET	n/a	LTP104	ltpFR	14	4	0	SWAMP	1416	n/a	1	n/a	n/a	n/a	n/a	n/a
4019526	RECOG_RESP	n/a	LTP104	ltpFR	14	4	0	SWAMP	1416	n/a	1	n/a	n/a	n/a	n/a	n/a
4021476	RECOG_TARGET	n/a	LTP104	ltpFR	14	4	1	TOWN	1491	n/a	0	n/a	n/a	n/a	n/a	n/a
4022773	RECOG_RESP	n/a	LTP104	ltpFR	14	4	1	TOWN	1491	n/a	0	n/a	n/a	n/a	n/a	n/a
4024816	RECOG_TARGET	n/a	LTP104	ltpFR	14	4	1	PIE	1062	n/a	0	n/a	n/a	n/a	n/a	n/a
4025426	RECOG_RESP_VV	n/a	LTP104	ltpFR	14	4	1	PIE	1062	n/a	0	n/a	n/a	n/a	n/a	n/a
4025853	RECOG_RESP	n/a	LTP104	ltpFR	14	4	1	PIE	1062	n/a	0	n/a	n/a	n/a	n/a	n/a
4027933	RECOG_TARGET	n/a	LTP104	ltpFR	14	4	-1	SAPPHIRE	1234	n/a	-1	n/a	n/a	n/a	n/a	n/a
4028780	RECOG_RESP	n/a	LTP104	ltpFR	14	4	-1	SAPPHIRE	1234	n/a	-1	n/a	n/a	n/a	n/a	n/a
4030733	RECOG_LURE	n/a	LTP104	ltpFR	14	4	n/a	PARTY	1018	n/a	n/a	n/a	n/a	n/a	n/a	n/a
4031477	RECOG_RESP	n/a	LTP104	ltpFR	14	4	n/a	PARTY	1018	n/a	n/a	n/a	n/a	n/a	n/a	n/a
4033392	RECOG_LURE	n/a	LTP104	ltpFR	14	4	n/a	PUBLICATION	1136	n/a	n/a	n/a	n/a	n/a	n/a	n/a
4034021	RECOG_RESP	n/a	LTP104	ltpFR	14	4	n/a	PUBLICATION	1136	n/a	n/a	n/a	n/a	n/a	n/a	n/a
4036199	RECOG_LURE	n/a	LTP104	ltpFR	14	4	n/a	CACTUS	215	n/a	n/a	n/a	n/a	n/a	n/a	n/a
4036775	RECOG_RESP	n/a	LTP104	ltpFR	14	4	n/a	CACTUS	215	n/a	n/a	n/a	n/a	n/a	n/a	n/a
4038591	RECOG_TARGET	n/a	LTP104	ltpFR	14	4	0	DISHWASHER	475	n/a	1	n/a	n/a	n/a	n/a	n/a
4039139	RECOG_RESP	n/a	LTP104	ltpFR	14	4	0	DISHWASHER	475	n/a	1	n/a	n/a	n/a	n/a	n/a
4040990	RECOG_TARGET	n/a	LTP104	ltpFR	14	4	1	NOMAD	955	n/a	1	n/a	n/a	n/a	n/a	n/a
4041616	RECOG_RESP	n/a	LTP104	ltpFR	14	4	1	NOMAD	955	n/a	1	n/a	n/a	n/a	n/a	n/a
4043474	RECOG_LURE	n/a	LTP104	ltpFR	14	4	n/a	POPE	1105	n/a	n/a	n/a	n/a	n/a	n/a	n/a
4044173	RECOG_RESP	n/a	LTP104	ltpFR	14	4	n/a	POPE	1105	n/a	n/a	n/a	n/a	n/a	n/a	n/a
4046106	RECOG_LURE	n/a	LTP104	ltpFR	14	4	n/a	BEAR	106	n/a	n/a	n/a	n/a	n/a	n/a	n/a
4046927	RECOG_RESP	n/a	LTP104	ltpFR	14	4	n/a	BEAR	106	n/a	n/a	n/a	n/a	n/a	n/a	n/a
4048814	RECOG_TARGET	n/a	LTP104	ltpFR	14	4	1	STORE	1387	n/a	0	n/a	n/a	n/a	n/a	n/a
4049466	RECOG_RESP	n/a	LTP104	ltpFR	14	4	1	STORE	1387	n/a	0	n/a	n/a	n/a	n/a	n/a
4051432	RECOG_LURE	n/a	LTP104	ltpFR	14	4	n/a	PUMP	1141	n/a	n/a	n/a	n/a	n/a	n/a	n/a
4052385	RECOG_RESP	n/a	LTP104	ltpFR	14	4	n/a	PUMP	1141	n/a	n/a	n/a	n/a	n/a	n/a	n/a
4054373	RECOG_TARGET	n/a	LTP104	ltpFR	14	4	-1	MAMMAL	861	n/a	-1	n/a	n/a	n/a	n/a	n/a
4054941	RECOG_RESP	n/a	LTP104	ltpFR	14	4	-1	MAMMAL	861	n/a	-1	n/a	n/a	n/a	n/a	n/a
4058568	REC_START	n/a	LTP104	ltpFR	14	5	n/a	n/a	n/a	n/a	n/a	n/a	n/a	n/a	n/a	n/a
4058606	RECOG_TARGET	n/a	LTP104	ltpFR	14	5	1	LIBRARY	816	n/a	0	n/a	n/a	n/a	n/a	n/a
4059208	RECOG_RESP	n/a	LTP104	ltpFR	14	5	1	LIBRARY	816	n/a	0	n/a	n/a	n/a	n/a	n/a
4061105	RECOG_TARGET	n/a	LTP104	ltpFR	14	5	1	PEDESTRIAN	1038	n/a	1	n/a	n/a	n/a	n/a	n/a
4061737	RECOG_RESP	n/a	LTP104	ltpFR	14	5	1	PEDESTRIAN	1038	n/a	1	n/a	n/a	n/a	n/a	n/a
4063556	RECOG_TARGET	n/a	LTP104	ltpFR	14	5	0	FLEET	578	n/a	1	n/a	n/a	n/a	n/a	n/a
4064108	RECOG_RESP	n/a	LTP104	ltpFR	14	5	0	FLEET	578	n/a	1	n/a	n/a	n/a	n/a	n/a
4066030	RECOG_TARGET	n/a	LTP104	ltpFR	14	5	-1	PIGEON	1065	n/a	-1	n/a	n/a	n/a	n/a	n/a
4066607	RECOG_RESP	n/a	LTP104	ltpFR	14	5	-1	PIGEON	1065	n/a	-1	n/a	n/a	n/a	n/a	n/a
4068505	RECOG_TARGET	n/a	LTP104	ltpFR	14	5	-1	BANDAGE	79	n/a	-1	n/a	n/a	n/a	n/a	n/a
4069107	RECOG_RESP	n/a	LTP104	ltpFR	14	5	-1	BANDAGE	79	n/a	-1	n/a	n/a	n/a	n/a	n/a
4071021	RECOG_TARGET	n/a	LTP104	ltpFR	14	5	0	MUG	930	n/a	0	n/a	n/a	n/a	n/a	n/a
4071628	RECOG_RESP	n/a	LTP104	ltpFR	14	5	0	MUG	930	n/a	0	n/a	n/a	n/a	n/a	n/a
4073480	RECOG_TARGET	n/a	LTP104	ltpFR	14	5	1	YOUTH	1634	n/a	1	n/a	n/a	n/a	n/a	n/a
4074067	RECOG_RESP	n/a	LTP104	ltpFR	14	5	1	YOUTH	1634	n/a	1	n/a	n/a	n/a	n/a	n/a
4075929	RECOG_LURE	n/a	LTP104	ltpFR	14	5	n/a	LAWN	805	n/a	n/a	n/a	n/a	n/a	n/a	n/a
4076764	RECOG_RESP	n/a	LTP104	ltpFR	14	5	n/a	LAWN	805	n/a	n/a	n/a	n/a	n/a	n/a	n/a
4078671	RECOG_TARGET	n/a	LTP104	ltpFR	14	5	1	CUSTOMER	430	n/a	1	n/a	n/a	n/a	n/a	n/a
4079258	RECOG_RESP	n/a	LTP104	ltpFR	14	5	1	CUSTOMER	430	n/a	1	n/a	n/a	n/a	n/a	n/a
4081070	RECOG_TARGET	n/a	LTP104	ltpFR	14	5	-1	BASKET	95	n/a	-1	n/a	n/a	n/a	n/a	n/a
4081601	RECOG_RESP	n/a	LTP104	ltpFR	14	5	-1	BASKET	95	n/a	-1	n/a	n/a	n/a	n/a	n/a
4083471	RECOG_TARGET	n/a	LTP104	ltpFR	14	5	0	ARTIST	43	n/a	1	n/a	n/a	n/a	n/a	n/a
4084013	RECOG_RESP	n/a	LTP104	ltpFR	14	5	0	ARTIST	43	n/a	1	n/a	n/a	n/a	n/a	n/a
4085928	RECOG_TARGET	n/a	LTP104	ltpFR	14	5	-1	TRIANGLE	1504	n/a	-1	n/a	n/a	n/a	n/a	n/a
4086553	RECOG_RESP	n/a	LTP104	ltpFR	14	5	-1	TRIANGLE	1504	n/a	-1	n/a	n/a	n/a	n/a	n/a
4088379	RECOG_LURE	n/a	LTP104	ltpFR	14	5	n/a	CONSUMER	365	n/a	n/a	n/a	n/a	n/a	n/a	n/a
4089024	RECOG_RESP	n/a	LTP104	ltpFR	14	5	n/a	CONSUMER	365	n/a	n/a	n/a	n/a	n/a	n/a	n/a
4091003	RECOG_LURE	n/a	LTP104	ltpFR	14	5	n/a	SKATE	1313	n/a	n/a	n/a	n/a	n/a	n/a	n/a
4092985	RECOG_RESP	n/a	LTP104	ltpFR	14	5	n/a	SKATE	1313	n/a	n/a	n/a	n/a	n/a	n/a	n/a
4095136	RECOG_TARGET	n/a	LTP104	ltpFR	14	5	0	PLATE	1086	n/a	0	n/a	n/a	n/a	n/a	n/a
4095769	RECOG_RESP	n/a	LTP104	ltpFR	14	5	0	PLATE	1086	n/a	0	n/a	n/a	n/a	n/a	n/a
4097728	RECOG_LURE	n/a	LTP104	ltpFR	14	5	n/a	SIRLOIN	1311	n/a	n/a	n/a	n/a	n/a	n/a	n/a
4098448	RECOG_RESP	n/a	LTP104	ltpFR	14	5	n/a	SIRLOIN	1311	n/a	n/a	n/a	n/a	n/a	n/a	n/a
4100345	RECOG_LURE	n/a	LTP104	ltpFR	14	5	n/a	CAPTAIN	239	n/a	n/a	n/a	n/a	n/a	n/a	n/a
4101014	RECOG_RESP_VV	n/a	LTP104	ltpFR	14	5	n/a	CAPTAIN	239	n/a	n/a	n/a	n/a	n/a	n/a	n/a
4101576	RECOG_RESP	n/a	LTP104	ltpFR	14	5	n/a	CAPTAIN	239	n/a	n/a	n/a	n/a	n/a	n/a	n/a
4103536	RECOG_LURE	n/a	LTP104	ltpFR	14	5	n/a	JUDGE	761	n/a	n/a	n/a	n/a	n/a	n/a	n/a
4104232	RECOG_RESP	n/a	LTP104	ltpFR	14	5	n/a	JUDGE	761	n/a	n/a	n/a	n/a	n/a	n/a	n/a
4106143	RECOG_TARGET	n/a	LTP104	ltpFR	14	5	-1	CAGE	218	n/a	-1	n/a	n/a	n/a	n/a	n/a
4107415	RECOG_RESP	n/a	LTP104	ltpFR	14	5	-1	CAGE	218	n/a	-1	n/a	n/a	n/a	n/a	n/a
4109394	RECOG_TARGET	n/a	LTP104	ltpFR	14	5	0	TART	1436	n/a	0	n/a	n/a	n/a	n/a	n/a
4110063	RECOG_RESP	n/a	LTP104	ltpFR	14	5	0	TART	1436	n/a	0	n/a	n/a	n/a	n/a	n/a
4113381	REC_START	n/a	LTP104	ltpFR	14	6	n/a	n/a	n/a	n/a	n/a	n/a	n/a	n/a	n/a	n/a
4113419	RECOG_TARGET	n/a	LTP104	ltpFR	14	6	1	ATLAS	53	n/a	0	n/a	n/a	n/a	n/a	n/a
4114028	RECOG_RESP	n/a	LTP104	ltpFR	14	6	1	ATLAS	53	n/a	0	n/a	n/a	n/a	n/a	n/a
4115868	RECOG_TARGET	n/a	LTP104	ltpFR	14	6	1	BUTTON	207	n/a	1	n/a	n/a	n/a	n/a	n/a
4116532	RECOG_RESP	n/a	LTP104	ltpFR	14	6	1	BUTTON	207	n/a	1	n/a	n/a	n/a	n/a	n/a
4118335	RECOG_LURE	n/a	LTP104	ltpFR	14	6	n/a	VINE	1568	n/a	n/a	n/a	n/a	n/a	n/a	n/a
4118928	RECOG_RESP	n/a	LTP104	ltpFR	14	6	n/a	VINE	1568	n/a	n/a	n/a	n/a	n/a	n/a	n/a
4120751	RECOG_TARGET	n/a	LTP104	ltpFR	14	6	1	PAIL	1002	n/a	0	n/a	n/a	n/a	n/a	n/a
4121355	RECOG_RESP	n/a	LTP104	ltpFR	14	6	1	PAIL	1002	n/a	0	n/a	n/a	n/a	n/a	n/a
4123234	RECOG_TARGET	n/a	LTP104	ltpFR	14	6	0	LINEN	825	n/a	0	n/a	n/a	n/a	n/a	n/a
4123917	RECOG_RESP	n/a	LTP104	ltpFR	14	6	0	LINEN	825	n/a	0	n/a	n/a	n/a	n/a	n/a
4125726	RECOG_LURE	n/a	LTP104	ltpFR	14	6	n/a	PERFUME	1049	n/a	n/a	n/a	n/a	n/a	n/a	n/a
4126347	RECOG_RESP	n/a	LTP104	ltpFR	14	6	n/a	PERFUME	1049	n/a	n/a	n/a	n/a	n/a	n/a	n/a
4128158	RECOG_LURE	n/a	LTP104	ltpFR	14	6	n/a	VIOLA	1570	n/a	n/a	n/a	n/a	n/a	n/a	n/a
4128762	RECOG_RESP	n/a	LTP104	ltpFR	14	6	n/a	VIOLA	1570	n/a	n/a	n/a	n/a	n/a	n/a	n/a
4130542	RECOG_TARGET	n/a	LTP104	ltpFR	14	6	1	GRASSHOPPER	656	n/a	1	n/a	n/a	n/a	n/a	n/a
4131193	RECOG_RESP	n/a	LTP104	ltpFR	14	6	1	GRASSHOPPER	656	n/a	1	n/a	n/a	n/a	n/a	n/a
4133191	RECOG_LURE	n/a	LTP104	ltpFR	14	6	n/a	KITE	779	n/a	n/a	n/a	n/a	n/a	n/a	n/a
4133815	RECOG_RESP	n/a	LTP104	ltpFR	14	6	n/a	KITE	779	n/a	n/a	n/a	n/a	n/a	n/a	n/a
4135717	RECOG_TARGET	n/a	LTP104	ltpFR	14	6	1	CRUMB	416	n/a	0	n/a	n/a	n/a	n/a	n/a
4136316	RECOG_RESP	n/a	LTP104	ltpFR	14	6	1	CRUMB	416	n/a	0	n/a	n/a	n/a	n/a	n/a
4138182	RECOG_LURE	n/a	LTP104	ltpFR	14	6	n/a	CUFF	423	n/a	n/a	n/a	n/a	n/a	n/a	n/a
4138834	RECOG_RESP	n/a	LTP104	ltpFR	14	6	n/a	CUFF	423	n/a	n/a	n/a	n/a	n/a	n/a	n/a
4140700	RECOG_LURE	n/a	LTP104	ltpFR	14	6	n/a	KID	775	n/a	n/a	n/a	n/a	n/a	n/a	n/a
4141269	RECOG_RESP	n/a	LTP104	ltpFR	14	6	n/a	KID	775	n/a	n/a	n/a	n/a	n/a	n/a	n/a
4143040	RECOG_LURE	n/a	LTP104	ltpFR	14	6	n/a	SCARF	1246	n/a	n/a	n/a	n/a	n/a	n/a	n/a
4143677	RECOG_RESP	n/a	LTP104	ltpFR	14	6	n/a	SCARF	1246	n/a	n/a	n/a	n/a	n/a	n/a	n/a
4145525	RECOG_TARGET	n/a	LTP104	ltpFR	14	6	1	LOVER	846	n/a	1	n/a	n/a	n/a	n/a	n/a
4146106	RECOG_RESP	n/a	LTP104	ltpFR	14	6	1	LOVER	846	n/a	1	n/a	n/a	n/a	n/a	n/a
4148057	RECOG_TARGET	n/a	LTP104	ltpFR	14	6	0	WASHCLOTH	1591	n/a	0	n/a	n/a	n/a	n/a	n/a
4148657	RECOG_RESP	n/a	LTP104	ltpFR	14	6	0	WASHCLOTH	1591	n/a	0	n/a	n/a	n/a	n/a	n/a
4150524	RECOG_TARGET	n/a	LTP104	ltpFR	14	6	0	GANG	619	n/a	1	n/a	n/a	n/a	n/a	n/a
4151030	RECOG_RESP	n/a	LTP104	ltpFR	14	6	0	GANG	619	n/a	1	n/a	n/a	n/a	n/a	n/a
4152948	RECOG_LURE	n/a	LTP104	ltpFR	14	6	n/a	CLOSET	326	n/a	n/a	n/a	n/a	n/a	n/a	n/a
4153773	RECOG_RESP_VV	n/a	LTP104	ltpFR	14	6	n/a	CLOSET	326	n/a	n/a	n/a	n/a	n/a	n/a	n/a
4154282	RECOG_RESP	n/a	LTP104	ltpFR	14	6	n/a	CLOSET	326	n/a	n/a	n/a	n/a	n/a	n/a	n/a
4156307	RECOG_LURE	n/a	LTP104	ltpFR	14	6	n/a	COOLER	375	n/a	n/a	n/a	n/a	n/a	n/a	n/a
4156948	RECOG_RESP	n/a	LTP104	ltpFR	14	6	n/a	COOLER	375	n/a	n/a	n/a	n/a	n/a	n/a	n/a
4158806	RECOG_LURE	n/a	LTP104	ltpFR	14	6	n/a	LODGE	839	n/a	n/a	n/a	n/a	n/a	n/a	n/a
4159397	RECOG_RESP	n/a	LTP104	ltpFR	14	6	n/a	LODGE	839	n/a	n/a	n/a	n/a	n/a	n/a	n/a
4161257	RECOG_TARGET	n/a	LTP104	ltpFR	14	6	0	MATTRESS	879	n/a	1	n/a	n/a	n/a	n/a	n/a
4161885	RECOG_RESP	n/a	LTP104	ltpFR	14	6	0	MATTRESS	879	n/a	1	n/a	n/a	n/a	n/a	n/a
4165173	REC_START	n/a	LTP104	ltpFR	14	7	n/a	n/a	n/a	n/a	n/a	n/a	n/a	n/a	n/a	n/a
4165205	RECOG_TARGET	n/a	LTP104	ltpFR	14	7	-1	SQUID	1361	n/a	-1	n/a	n/a	n/a	n/a	n/a
4165795	RECOG_RESP	n/a	LTP104	ltpFR	14	7	-1	SQUID	1361	n/a	-1	n/a	n/a	n/a	n/a	n/a
4167623	RECOG_LURE	n/a	LTP104	ltpFR	14	7	n/a	CHALK	276	n/a	n/a	n/a	n/a	n/a	n/a	n/a
4168790	RECOG_RESP	n/a	LTP104	ltpFR	14	7	n/a	CHALK	276	n/a	n/a	n/a	n/a	n/a	n/a	n/a
4170739	RECOG_TARGET	n/a	LTP104	ltpFR	14	7	1	PENGUIN	1044	n/a	1	n/a	n/a	n/a	n/a	n/a
4171397	RECOG_RESP	n/a	LTP104	ltpFR	14	7	1	PENGUIN	1044	n/a	1	n/a	n/a	n/a	n/a	n/a
4173347	RECOG_LURE	n/a	LTP104	ltpFR	14	7	n/a	WAGON	1578	n/a	n/a	n/a	n/a	n/a	n/a	n/a
4173979	RECOG_RESP	n/a	LTP104	ltpFR	14	7	n/a	WAGON	1578	n/a	n/a	n/a	n/a	n/a	n/a	n/a
4175838	RECOG_TARGET	n/a	LTP104	ltpFR	14	7	0	PAPER	1011	n/a	2	n/a	n/a	n/a	n/a	n/a
4176478	RECOG_RESP	n/a	LTP104	ltpFR	14	7	0	PAPER	1011	n/a	2	n/a	n/a	n/a	n/a	n/a
4178539	RECOG_LURE	n/a	LTP104	ltpFR	14	7	n/a	SHAMPOO	1274	n/a	n/a	n/a	n/a	n/a	n/a	n/a
4179257	RECOG_RESP	n/a	LTP104	ltpFR	14	7	n/a	SHAMPOO	1274	n/a	n/a	n/a	n/a	n/a	n/a	n/a
4181146	RECOG_TARGET	n/a	LTP104	ltpFR	14	7	0	MOB	904	n/a	1	n/a	n/a	n/a	n/a	n/a
4181788	RECOG_RESP	n/a	LTP104	ltpFR	14	7	0	MOB	904	n/a	1	n/a	n/a	n/a	n/a	n/a
4183705	RECOG_TARGET	n/a	LTP104	ltpFR	14	7	0	INSECT	740	n/a	0	n/a	n/a	n/a	n/a	n/a
4184234	RECOG_RESP	n/a	LTP104	ltpFR	14	7	0	INSECT	740	n/a	0	n/a	n/a	n/a	n/a	n/a
4186112	RECOG_TARGET	n/a	LTP104	ltpFR	14	7	-1	ENGINE	535	n/a	-1	n/a	n/a	n/a	n/a	n/a
4186619	RECOG_RESP	n/a	LTP104	ltpFR	14	7	-1	ENGINE	535	n/a	-1	n/a	n/a	n/a	n/a	n/a
4188505	RECOG_TARGET	n/a	LTP104	ltpFR	14	7	1	TURNIP	1521	n/a	0	n/a	n/a	n/a	n/a	n/a
4189148	RECOG_RESP	n/a	LTP104	ltpFR	14	7	1	TURNIP	1521	n/a	0	n/a	n/a	n/a	n/a	n/a
4190953	RECOG_TARGET	n/a	LTP104	ltpFR	14	7	-1	SANDWICH	1232	n/a	-1	n/a	n/a	n/a	n/a	n/a
4191508	RECOG_RESP	n/a	LTP104	ltpFR	14	7	-1	SANDWICH	1232	n/a	-1	n/a	n/a	n/a	n/a	n/a
4193379	RECOG_TARGET	n/a	LTP104	ltpFR	14	7	1	COWBOY	395	n/a	1	n/a	n/a	n/a	n/a	n/a
4193901	RECOG_RESP	n/a	LTP104	ltpFR	14	7	1	COWBOY	395	n/a	1	n/a	n/a	n/a	n/a	n/a
4195654	RECOG_LURE	n/a	LTP104	ltpFR	14	7	n/a	FAIRY	549	n/a	n/a	n/a	n/a	n/a	n/a	n/a
4196269	RECOG_RESP	n/a	LTP104	ltpFR	14	7	n/a	FAIRY	549	n/a	n/a	n/a	n/a	n/a	n/a	n/a
4198078	RECOG_TARGET	n/a	LTP104	ltpFR	14	7	1	PORCUPINE	1107	n/a	1	n/a	n/a	n/a	n/a	n/a
4198635	RECOG_RESP	n/a	LTP104	ltpFR	14	7	1	PORCUPINE	1107	n/a	1	n/a	n/a	n/a	n/a	n/a
4200420	RECOG_LURE	n/a	LTP104	ltpFR	14	7	n/a	BULB	192	n/a	n/a	n/a	n/a	n/a	n/a	n/a
4201265	RECOG_RESP	n/a	LTP104	ltpFR	14	7	n/a	BULB	192	n/a	n/a	n/a	n/a	n/a	n/a	n/a
4203144	RECOG_TARGET	n/a	LTP104	ltpFR	14	7	-1	RADIO	1157	n/a	-1	n/a	n/a	n/a	n/a	n/a
4203793	RECOG_RESP	n/a	LTP104	ltpFR	14	7	-1	RADIO	1157	n/a	-1	n/a	n/a	n/a	n/a	n/a
4205737	RECOG_TARGET	n/a	LTP104	ltpFR	14	7	0	LIPSTICK	829	n/a	0	n/a	n/a	n/a	n/a	n/a
4206314	RECOG_RESP	n/a	LTP104	ltpFR	14	7	0	LIPSTICK	829	n/a	0	n/a	n/a	n/a	n/a	n/a
4208345	RECOG_TARGET	n/a	LTP104	ltpFR	14	7	0	SHELL	1281	n/a	0	n/a	n/a	n/a	n/a	n/a
4208888	RECOG_RESP	n/a	LTP104	ltpFR	14	7	0	SHELL	1281	n/a	0	n/a	n/a	n/a	n/a	n/a
4210785	RECOG_TARGET	n/a	LTP104	ltpFR	14	7	-1	TRAY	1498	n/a	-1	n/a	n/a	n/a	n/a	n/a
4211703	RECOG_RESP	n/a	LTP104	ltpFR	14	7	-1	TRAY	1498	n/a	-1	n/a	n/a	n/a	n/a	n/a
4213586	RECOG_LURE	n/a	LTP104	ltpFR	14	7	n/a	CAPITAL	238	n/a	n/a	n/a	n/a	n/a	n/a	n/a
4214214	RECOG_RESP	n/a	LTP104	ltpFR	14	7	n/a	CAPITAL	238	n/a	n/a	n/a	n/a	n/a	n/a	n/a
4217607	REC_START	n/a	LTP104	ltpFR	14	8	n/a	n/a	n/a	n/a	n/a	n/a	n/a	n/a	n/a	n/a
4217644	RECOG_TARGET	n/a	LTP104	ltpFR	14	8	-1	BATTERY	101	n/a	-1	n/a	n/a	n/a	n/a	n/a
4218191	RECOG_RESP	n/a	LTP104	ltpFR	14	8	-1	BATTERY	101	n/a	-1	n/a	n/a	n/a	n/a	n/a
4220026	RECOG_TARGET	n/a	LTP104	ltpFR	14	8	1	FELLOW	558	n/a	1	n/a	n/a	n/a	n/a	n/a
4220913	RECOG_RESP	n/a	LTP104	ltpFR	14	8	1	FELLOW	558	n/a	1	n/a	n/a	n/a	n/a	n/a
4223001	RECOG_LURE	n/a	LTP104	ltpFR	14	8	n/a	BULLETIN	195	n/a	n/a	n/a	n/a	n/a	n/a	n/a
4223728	RECOG_RESP	n/a	LTP104	ltpFR	14	8	n/a	BULLETIN	195	n/a	n/a	n/a	n/a	n/a	n/a	n/a
4225635	RECOG_LURE	n/a	LTP104	ltpFR	14	8	n/a	SUBURB	1399	n/a	n/a	n/a	n/a	n/a	n/a	n/a
4226422	RECOG_RESP	n/a	LTP104	ltpFR	14	8	n/a	SUBURB	1399	n/a	n/a	n/a	n/a	n/a	n/a	n/a
4228485	RECOG_LURE	n/a	LTP104	ltpFR	14	8	n/a	DOCK	477	n/a	n/a	n/a	n/a	n/a	n/a	n/a
4229738	RECOG_RESP	n/a	LTP104	ltpFR	14	8	n/a	DOCK	477	n/a	n/a	n/a	n/a	n/a	n/a	n/a
4231834	RECOG_TARGET	n/a	LTP104	ltpFR	14	8	0	PORT	1110	n/a	1	n/a	n/a	n/a	n/a	n/a
4232642	RECOG_RESP	n/a	LTP104	ltpFR	14	8	0	PORT	1110	n/a	1	n/a	n/a	n/a	n/a	n/a
4234543	RECOG_TARGET	n/a	LTP104	ltpFR	14	8	1	SKI	1316	n/a	0	n/a	n/a	n/a	n/a	n/a
4235190	RECOG_RESP	n/a	LTP104	ltpFR	14	8	1	SKI	1316	n/a	0	n/a	n/a	n/a	n/a	n/a
4237058	RECOG_LURE	n/a	LTP104	ltpFR	14	8	n/a	JURY	766	n/a	n/a	n/a	n/a	n/a	n/a	n/a
4237712	RECOG_RESP	n/a	LTP104	ltpFR	14	8	n/a	JURY	766	n/a	n/a	n/a	n/a	n/a	n/a	n/a
4239651	RECOG_TARGET	n/a	LTP104	ltpFR	14	8	0	WORM	1623	n/a	0	n/a	n/a	n/a	n/a	n/a
4240235	RECOG_RESP	n/a	LTP104	ltpFR	14	8	0	WORM	1623	n/a	0	n/a	n/a	n/a	n/a	n/a
4242149	RECOG_TARGET	n/a	LTP104	ltpFR	14	8	-1	BEEF	113	n/a	-1	n/a	n/a	n/a	n/a	n/a
4242724	RECOG_RESP	n/a	LTP104	ltpFR	14	8	-1	BEEF	113	n/a	-1	n/a	n/a	n/a	n/a	n/a
4244617	RECOG_LURE	n/a	LTP104	ltpFR	14	8	n/a	VALLEY	1545	n/a	n/a	n/a	n/a	n/a	n/a	n/a
4245186	RECOG_RESP	n/a	LTP104	ltpFR	14	8	n/a	VALLEY	1545	n/a	n/a	n/a	n/a	n/a	n/a	n/a
4247174	RECOG_LURE	n/a	LTP104	ltpFR	14	8	n/a	SKYSCRAPER	1322	n/a	n/a	n/a	n/a	n/a	n/a	n/a
4247776	RECOG_RESP	n/a	LTP104	ltpFR	14	8	n/a	SKYSCRAPER	1322	n/a	n/a	n/a	n/a	n/a	n/a	n/a
4249658	RECOG_TARGET	n/a	LTP104	ltpFR	14	8	0	CROCODILE	411	n/a	1	n/a	n/a	n/a	n/a	n/a
4250293	RECOG_RESP	n/a	LTP104	ltpFR	14	8	0	CROCODILE	411	n/a	1	n/a	n/a	n/a	n/a	n/a
4252140	RECOG_TARGET	n/a	LTP104	ltpFR	14	8	-1	CHECKERS	285	n/a	-1	n/a	n/a	n/a	n/a	n/a
4252741	RECOG_RESP	n/a	LTP104	ltpFR	14	8	-1	CHECKERS	285	n/a	-1	n/a	n/a	n/a	n/a	n/a
4254591	RECOG_TARGET	n/a	LTP104	ltpFR	14	8	1	CINNAMON	310	n/a	0	n/a	n/a	n/a	n/a	n/a
4255228	RECOG_RESP	n/a	LTP104	ltpFR	14	8	1	CINNAMON	310	n/a	0	n/a	n/a	n/a	n/a	n/a
4257140	RECOG_LURE	n/a	LTP104	ltpFR	14	8	n/a	PEANUT	1032	n/a	n/a	n/a	n/a	n/a	n/a	n/a
4257895	RECOG_RESP	n/a	LTP104	ltpFR	14	8	n/a	PEANUT	1032	n/a	n/a	n/a	n/a	n/a	n/a	n/a
4259749	RECOG_LURE	n/a	LTP104	ltpFR	14	8	n/a	LASH	802	n/a	n/a	n/a	n/a	n/a	n/a	n/a
4260587	RECOG_RESP	n/a	LTP104	ltpFR	14	8	n/a	LASH	802	n/a	n/a	n/a	n/a	n/a	n/a	n/a
4262482	RECOG_LURE	n/a	LTP104	ltpFR	14	8	n/a	STAIRS	1367	n/a	n/a	n/a	n/a	n/a	n/a	n/a
4263126	RECOG_RESP	n/a	LTP104	ltpFR	14	8	n/a	STAIRS	1367	n/a	n/a	n/a	n/a	n/a	n/a	n/a
4264998	RECOG_TARGET	n/a	LTP104	ltpFR	14	8	1	BROCCOLI	176	n/a	0	n/a	n/a	n/a	n/a	n/a
4265571	RECOG_RESP	n/a	LTP104	ltpFR	14	8	1	BROCCOLI	176	n/a	0	n/a	n/a	n/a	n/a	n/a
4267507	RECOG_TARGET	n/a	LTP104	ltpFR	14	8	1	PANTS	1010	n/a	0	n/a	n/a	n/a	n/a	n/a
4268194	RECOG_RESP	n/a	LTP104	ltpFR	14	8	1	PANTS	1010	n/a	0	n/a	n/a	n/a	n/a	n/a
4273450	REC_START	n/a	LTP104	ltpFR	14	9	n/a	n/a	n/a	n/a	n/a	n/a	n/a	n/a	n/a	n/a
4273481	RECOG_LURE	n/a	LTP104	ltpFR	14	9	n/a	CURB	426	n/a	n/a	n/a	n/a	n/a	n/a	n/a
4274212	RECOG_RESP	n/a	LTP104	ltpFR	14	9	n/a	CURB	426	n/a	n/a	n/a	n/a	n/a	n/a	n/a
4276314	RECOG_TARGET	n/a	LTP104	ltpFR	14	9	0	NIGHTGOWN	953	n/a	0	n/a	n/a	n/a	n/a	n/a
4276829	RECOG_RESP	n/a	LTP104	ltpFR	14	9	0	NIGHTGOWN	953	n/a	0	n/a	n/a	n/a	n/a	n/a
4278681	RECOG_LURE	n/a	LTP104	ltpFR	14	9	n/a	TAR	1435	n/a	n/a	n/a	n/a	n/a	n/a	n/a
4279257	RECOG_RESP	n/a	LTP104	ltpFR	14	9	n/a	TAR	1435	n/a	n/a	n/a	n/a	n/a	n/a	n/a
4281105	RECOG_LURE	n/a	LTP104	ltpFR	14	9	n/a	QUILT	1151	n/a	n/a	n/a	n/a	n/a	n/a	n/a
4281596	RECOG_RESP	n/a	LTP104	ltpFR	14	9	n/a	QUILT	1151	n/a	n/a	n/a	n/a	n/a	n/a	n/a
4283472	RECOG_LURE	n/a	LTP104	ltpFR	14	9	n/a	ELECTRON	522	n/a	n/a	n/a	n/a	n/a	n/a	n/a
4284012	RECOG_RESP	n/a	LTP104	ltpFR	14	9	n/a	ELECTRON	522	n/a	n/a	n/a	n/a	n/a	n/a	n/a
4285879	RECOG_LURE	n/a	LTP104	ltpFR	14	9	n/a	HAYSTACK	694	n/a	n/a	n/a	n/a	n/a	n/a	n/a
4286471	RECOG_RESP	n/a	LTP104	ltpFR	14	9	n/a	HAYSTACK	694	n/a	n/a	n/a	n/a	n/a	n/a	n/a
4288397	RECOG_LURE	n/a	LTP104	ltpFR	14	9	n/a	LEMON	810	n/a	n/a	n/a	n/a	n/a	n/a	n/a
4289037	RECOG_RESP	n/a	LTP104	ltpFR	14	9	n/a	LEMON	810	n/a	n/a	n/a	n/a	n/a	n/a	n/a
4290887	RECOG_TARGET	n/a	LTP104	ltpFR	14	9	-1	MINER	896	n/a	-1	n/a	n/a	n/a	n/a	n/a
4291471	RECOG_RESP	n/a	LTP104	ltpFR	14	9	-1	MINER	896	n/a	-1	n/a	n/a	n/a	n/a	n/a
4293396	RECOG_TARGET	n/a	LTP104	ltpFR	14	9	-1	BOOTH	151	n/a	-1	n/a	n/a	n/a	n/a	n/a
4293983	RECOG_RESP	n/a	LTP104	ltpFR	14	9	-1	BOOTH	151	n/a	-1	n/a	n/a	n/a	n/a	n/a
4295845	RECOG_TARGET	n/a	LTP104	ltpFR	14	9	-1	VAN	1548	n/a	-1	n/a	n/a	n/a	n/a	n/a
4296402	RECOG_RESP	n/a	LTP104	ltpFR	14	9	-1	VAN	1548	n/a	-1	n/a	n/a	n/a	n/a	n/a
4298296	RECOG_TARGET	n/a	LTP104	ltpFR	14	9	1	LOBSTER	837	n/a	1	n/a	n/a	n/a	n/a	n/a
4298902	RECOG_RESP	n/a	LTP104	ltpFR	14	9	1	LOBSTER	837	n/a	1	n/a	n/a	n/a	n/a	n/a
4300787	RECOG_TARGET	n/a	LTP104	ltpFR	14	9	1	CROW	414	n/a	1	n/a	n/a	n/a	n/a	n/a
4301364	RECOG_RESP	n/a	LTP104	ltpFR	14	9	1	CROW	414	n/a	1	n/a	n/a	n/a	n/a	n/a
4303236	RECOG_LURE	n/a	LTP104	ltpFR	14	9	n/a	SPACE	1345	n/a	n/a	n/a	n/a	n/a	n/a	n/a
4303839	RECOG_RESP	n/a	LTP104	ltpFR	14	9	n/a	SPACE	1345	n/a	n/a	n/a	n/a	n/a	n/a	n/a
4306053	RECOG_LURE	n/a	LTP104	ltpFR	14	9	n/a	EMPIRE	530	n/a	n/a	n/a	n/a	n/a	n/a	n/a
4307027	RECOG_RESP	n/a	LTP104	ltpFR	14	9	n/a	EMPIRE	530	n/a	n/a	n/a	n/a	n/a	n/a	n/a
4308986	RECOG_LURE	n/a	LTP104	ltpFR	14	9	n/a	LIZARD	834	n/a	n/a	n/a	n/a	n/a	n/a	n/a
4309555	RECOG_RESP	n/a	LTP104	ltpFR	14	9	n/a	LIZARD	834	n/a	n/a	n/a	n/a	n/a	n/a	n/a
4311462	RECOG_LURE	n/a	LTP104	ltpFR	14	9	n/a	NEEDLE	941	n/a	n/a	n/a	n/a	n/a	n/a	n/a
4312037	RECOG_RESP	n/a	LTP104	ltpFR	14	9	n/a	NEEDLE	941	n/a	n/a	n/a	n/a	n/a	n/a	n/a
4313969	RECOG_TARGET	n/a	LTP104	ltpFR	14	9	1	WINDSHIELD	1612	n/a	0	n/a	n/a	n/a	n/a	n/a
4314519	RECOG_RESP	n/a	LTP104	ltpFR	14	9	1	WINDSHIELD	1612	n/a	0	n/a	n/a	n/a	n/a	n/a
4316428	RECOG_LURE	n/a	LTP104	ltpFR	14	9	n/a	TIGER	1467	n/a	n/a	n/a	n/a	n/a	n/a	n/a
4317486	RECOG_RESP	n/a	LTP104	ltpFR	14	9	n/a	TIGER	1467	n/a	n/a	n/a	n/a	n/a	n/a	n/a
4319561	RECOG_TARGET	n/a	LTP104	ltpFR	14	9	-1	TUBA	1515	n/a	-1	n/a	n/a	n/a	n/a	n/a
4320199	RECOG_RESP	n/a	LTP104	ltpFR	14	9	-1	TUBA	1515	n/a	-1	n/a	n/a	n/a	n/a	n/a
4322160	RECOG_LURE	n/a	LTP104	ltpFR	14	9	n/a	PUZZLE	1146	n/a	n/a	n/a	n/a	n/a	n/a	n/a
4322765	RECOG_RESP	n/a	LTP104	ltpFR	14	9	n/a	PUZZLE	1146	n/a	n/a	n/a	n/a	n/a	n/a	n/a
4326290	REC_START	n/a	LTP104	ltpFR	14	10	n/a	n/a	n/a	n/a	n/a	n/a	n/a	n/a	n/a	n/a
4326327	RECOG_TARGET	n/a	LTP104	ltpFR	14	10	0	COAL	332	n/a	0	n/a	n/a	n/a	n/a	n/a
4326934	RECOG_RESP	n/a	LTP104	ltpFR	14	10	0	COAL	332	n/a	0	n/a	n/a	n/a	n/a	n/a
4328776	RECOG_LURE	n/a	LTP104	ltpFR	14	10	n/a	PAINTING	1005	n/a	n/a	n/a	n/a	n/a	n/a	n/a
4329472	RECOG_RESP	n/a	LTP104	ltpFR	14	10	n/a	PAINTING	1005	n/a	n/a	n/a	n/a	n/a	n/a	n/a
