mstime	trial_type	stim_file	subject	experiment	session	trial	item_name	item_num	list	answer	test_x	test_y	test_z
0	SESS_START	n/a	LTP117	ltpFR2	8	n/a	n/a	n/a	n/a	n/a	0	0	0
19588	START	n/a	LTP117	ltpFR2	8	n/a	n/a	n/a	-1	n/a	n/a	n/a	n/a
19637	PROB	n/a	LTP117	ltpFR2	8	n/a	n/a	n/a	-1	15	9	3	3
20641	PROB	n/a	LTP117	ltpFR2	8	n/a	n/a	n/a	-1	16	4	7	5
21829	PROB	n/a	LTP117	ltpFR2	8	n/a	n/a	n/a	-1	23	9	7	7
23518	PROB	n/a	LTP117	ltpFR2	8	n/a	n/a	n/a	-1	4	1	1	2
24305	PROB	n/a	LTP117	ltpFR2	8	n/a	n/a	n/a	-1	20	8	4	7
25827	PROB	n/a	LTP117	ltpFR2	8	n/a	n/a	n/a	-1	8	1	2	5
26831	PROB	n/a	LTP117	ltpFR2	8	n/a	n/a	n/a	-1	6	3	2	1
27617	PROB	n/a	LTP117	ltpFR2	8	n/a	n/a	n/a	-1	20	7	6	7
28654	PROB	n/a	LTP117	ltpFR2	8	n/a	n/a	n/a	-1	19	3	7	7
29842	PROB	n/a	LTP117	ltpFR2	8	n/a	n/a	n/a	-1	16	3	1	9
30711	STOP	n/a	LTP117	ltpFR2	8	n/a	n/a	n/a	-1	n/a	n/a	n/a	n/a
68387	DISTRACTOR	n/a	LTP117	ltpFR2	8	1	n/a	n/a	n/a	n/a	0	0	0
68388	START	n/a	LTP117	ltpFR2	8	n/a	n/a	n/a	1	n/a	n/a	n/a	n/a
68438	PROB	n/a	LTP117	ltpFR2	8	n/a	n/a	n/a	1	15	4	5	6
69308	PROB	n/a	LTP117	ltpFR2	8	n/a	n/a	n/a	1	9	1	7	1
70680	PROB	n/a	LTP117	ltpFR2	8	n/a	n/a	n/a	1	6	1	4	1
71549	PROB	n/a	LTP117	ltpFR2	8	n/a	n/a	n/a	1	10	2	5	3
72386	PROB	n/a	LTP117	ltpFR2	8	n/a	n/a	n/a	1	19	5	8	6
73808	PROB	n/a	LTP117	ltpFR2	8	n/a	n/a	n/a	1	21	8	7	6
74762	PROB	n/a	LTP117	ltpFR2	8	n/a	n/a	n/a	1	17	6	9	2
75866	PROB	n/a	LTP117	ltpFR2	8	n/a	n/a	n/a	1	21	9	7	5
77087	PROB	n/a	LTP117	ltpFR2	8	n/a	n/a	n/a	1	14	9	4	1
78024	PROB	n/a	LTP117	ltpFR2	8	n/a	n/a	n/a	1	8	6	1	2
79044	PROB	n/a	LTP117	ltpFR2	8	n/a	n/a	n/a	1	16	9	4	3
80617	PROB	n/a	LTP117	ltpFR2	8	n/a	n/a	n/a	1	15	9	2	4
81688	PROB	n/a	LTP117	ltpFR2	8	n/a	n/a	n/a	1	17	9	1	7
82675	PROB	n/a	LTP117	ltpFR2	8	n/a	n/a	n/a	1	13	1	7	5
83645	PROB	n/a	LTP117	ltpFR2	8	n/a	n/a	n/a	1	11	6	5	1
84582	PROB	n/a	LTP117	ltpFR2	8	n/a	n/a	n/a	1	19	5	6	8
85703	PROB	n/a	LTP117	ltpFR2	8	n/a	n/a	n/a	1	11	7	2	2
87660	PROB	n/a	LTP117	ltpFR2	8	n/a	n/a	n/a	1	21	7	6	8
88982	PROB	n/a	LTP117	ltpFR2	8	n/a	n/a	n/a	1	20	6	6	8
90337	PROB	n/a	LTP117	ltpFR2	8	n/a	n/a	n/a	1	10	4	3	3
91103	STOP	n/a	LTP117	ltpFR2	8	n/a	n/a	n/a	1	n/a	n/a	n/a	n/a
93281	WORD	wordpools/wasnorm_wordpool_576.txt	LTP117	ltpFR2	8	1	AUTHOR	61	n/a	n/a	0	0	0
95958	WORD	wordpools/wasnorm_wordpool_576.txt	LTP117	ltpFR2	8	1	FRANCE	601	n/a	n/a	0	0	0
98568	WORD	wordpools/wasnorm_wordpool_576.txt	LTP117	ltpFR2	8	1	AIRPLANE	12	n/a	n/a	0	0	0
101125	WORD	wordpools/wasnorm_wordpool_576.txt	LTP117	ltpFR2	8	1	RATTLE	1170	n/a	n/a	0	0	0
103788	WORD	wordpools/wasnorm_wordpool_576.txt	LTP117	ltpFR2	8	1	QUEEN	1149	n/a	n/a	0	0	0
106230	WORD	wordpools/wasnorm_wordpool_576.txt	LTP117	ltpFR2	8	1	CATTLE	261	n/a	n/a	0	0	0
108873	WORD	wordpools/wasnorm_wordpool_576.txt	LTP117	ltpFR2	8	1	MAILMAN	858	n/a	n/a	0	0	0
111600	WORD	wordpools/wasnorm_wordpool_576.txt	LTP117	ltpFR2	8	1	TWEEZERS	1526	n/a	n/a	0	0	0
114361	WORD	wordpools/wasnorm_wordpool_576.txt	LTP117	ltpFR2	8	1	SPHINX	1349	n/a	n/a	0	0	0
116904	WORD	wordpools/wasnorm_wordpool_576.txt	LTP117	ltpFR2	8	1	LAGOON	795	n/a	n/a	0	0	0
119698	WORD	wordpools/wasnorm_wordpool_576.txt	LTP117	ltpFR2	8	1	MARSH	874	n/a	n/a	0	0	0
122492	WORD	wordpools/wasnorm_wordpool_576.txt	LTP117	ltpFR2	8	1	APPLE	33	n/a	n/a	0	0	0
125085	WORD	wordpools/wasnorm_wordpool_576.txt	LTP117	ltpFR2	8	1	CRIB	407	n/a	n/a	0	0	0
127644	WORD	wordpools/wasnorm_wordpool_576.txt	LTP117	ltpFR2	8	1	PUPPY	1144	n/a	n/a	0	0	0
130103	WORD	wordpools/wasnorm_wordpool_576.txt	LTP117	ltpFR2	8	1	BRANCH	168	n/a	n/a	0	0	0
132613	WORD	wordpools/wasnorm_wordpool_576.txt	LTP117	ltpFR2	8	1	SHRUB	1299	n/a	n/a	0	0	0
135407	WORD	wordpools/wasnorm_wordpool_576.txt	LTP117	ltpFR2	8	1	EMPIRE	530	n/a	n/a	0	0	0
137983	WORD	wordpools/wasnorm_wordpool_576.txt	LTP117	ltpFR2	8	1	TERMITE	1451	n/a	n/a	0	0	0
140760	WORD	wordpools/wasnorm_wordpool_576.txt	LTP117	ltpFR2	8	1	FIREPLACE	570	n/a	n/a	0	0	0
143317	WORD	wordpools/wasnorm_wordpool_576.txt	LTP117	ltpFR2	8	1	WORKER	1621	n/a	n/a	0	0	0
146047	WORD	wordpools/wasnorm_wordpool_576.txt	LTP117	ltpFR2	8	1	RAZOR	1171	n/a	n/a	0	0	0
148740	WORD	wordpools/wasnorm_wordpool_576.txt	LTP117	ltpFR2	8	1	LUGGAGE	847	n/a	n/a	0	0	0
151300	WORD	wordpools/wasnorm_wordpool_576.txt	LTP117	ltpFR2	8	1	HORSE	719	n/a	n/a	0	0	0
153743	WORD	wordpools/wasnorm_wordpool_576.txt	LTP117	ltpFR2	8	1	CROWN	415	n/a	n/a	0	0	0
155349	START	n/a	LTP117	ltpFR2	8	n/a	n/a	n/a	2	n/a	n/a	n/a	n/a
156204	DISTRACTOR	n/a	LTP117	ltpFR2	8	1	n/a	n/a	n/a	n/a	0	0	0
156218	PROB	n/a	LTP117	ltpFR2	8	n/a	n/a	n/a	2	12	2	5	5
157523	PROB	n/a	LTP117	ltpFR2	8	n/a	n/a	n/a	2	12	2	4	6
158745	PROB	n/a	LTP117	ltpFR2	8	n/a	n/a	n/a	2	17	6	9	2
159899	PROB	n/a	LTP117	ltpFR2	8	n/a	n/a	n/a	2	25	8	8	9
161221	PROB	n/a	LTP117	ltpFR2	8	n/a	n/a	n/a	2	14	9	1	4
161973	PROB	n/a	LTP117	ltpFR2	8	n/a	n/a	n/a	2	15	3	5	7
163075	PROB	n/a	LTP117	ltpFR2	8	n/a	n/a	n/a	2	21	7	8	6
164450	PROB	n/a	LTP117	ltpFR2	8	n/a	n/a	n/a	2	19	5	9	5
165353	PROB	n/a	LTP117	ltpFR2	8	n/a	n/a	n/a	2	16	7	7	2
166557	PROB	n/a	LTP117	ltpFR2	8	n/a	n/a	n/a	2	12	1	8	3
167745	PROB	n/a	LTP117	ltpFR2	8	n/a	n/a	n/a	2	13	5	7	1
168816	PROB	n/a	LTP117	ltpFR2	8	n/a	n/a	n/a	2	6	1	4	1
170205	PROB	n/a	LTP117	ltpFR2	8	n/a	n/a	n/a	2	20	5	9	6
171259	PROB	n/a	LTP117	ltpFR2	8	n/a	n/a	n/a	2	10	8	1	1
172045	PROB	n/a	LTP117	ltpFR2	8	n/a	n/a	n/a	2	11	8	1	2
172948	PROB	n/a	LTP117	ltpFR2	8	n/a	n/a	n/a	2	10	1	1	8
173801	PROB	n/a	LTP117	ltpFR2	8	n/a	n/a	n/a	2	18	7	5	6
175692	PROB	n/a	LTP117	ltpFR2	8	n/a	n/a	n/a	2	8	1	3	4
176646	PROB	n/a	LTP117	ltpFR2	8	n/a	n/a	n/a	2	11	7	3	2
177465	PROB	n/a	LTP117	ltpFR2	8	n/a	n/a	n/a	2	14	8	1	5
179320	STOP	n/a	LTP117	ltpFR2	8	n/a	n/a	n/a	2	n/a	n/a	n/a	n/a
181171	REC_START	n/a	LTP117	ltpFR2	8	1	n/a	n/a	n/a	n/a	0	0	0
181922	REC_WORD	wordpools/wasnorm_wordpool_576.txt	LTP117	ltpFR2	8	1	TERMITE	1451	n/a	n/a	0	0	0
182571	REC_WORD	wordpools/wasnorm_wordpool_576.txt	LTP117	ltpFR2	8	1	TERMITE	1451	n/a	n/a	0	0	0
183268	REC_WORD	wordpools/wasnorm_wordpool_576.txt	LTP117	ltpFR2	8	1	RAZOR	1171	n/a	n/a	0	0	0
185146	REC_WORD	wordpools/wasnorm_wordpool_576.txt	LTP117	ltpFR2	8	1	LUGGAGE	847	n/a	n/a	0	0	0
185729	REC_WORD	wordpools/wasnorm_wordpool_576.txt	LTP117	ltpFR2	8	1	FIREPLACE	570	n/a	n/a	0	0	0
188248	REC_WORD	wordpools/wasnorm_wordpool_576.txt	LTP117	ltpFR2	8	1	CRIB	407	n/a	n/a	0	0	0
189097	REC_WORD	wordpools/wasnorm_wordpool_576.txt	LTP117	ltpFR2	8	1	EMPIRE	530	n/a	n/a	0	0	0
191325	REC_WORD	wordpools/wasnorm_wordpool_576.txt	LTP117	ltpFR2	8	1	SHRUB	1299	n/a	n/a	0	0	0
192438	REC_WORD	wordpools/wasnorm_wordpool_576.txt	LTP117	ltpFR2	8	1	MARSH	874	n/a	n/a	0	0	0
193524	REC_WORD	wordpools/wasnorm_wordpool_576.txt	LTP117	ltpFR2	8	1	LAGOON	795	n/a	n/a	0	0	0
195460	REC_WORD	wordpools/wasnorm_wordpool_576.txt	LTP117	ltpFR2	8	1	AUTHOR	61	n/a	n/a	0	0	0
197834	REC_WORD	wordpools/wasnorm_wordpool_576.txt	LTP117	ltpFR2	8	1	AIRPLANE	12	n/a	n/a	0	0	0
198506	REC_WORD	wordpools/wasnorm_wordpool_576.txt	LTP117	ltpFR2	8	1	FRANCE	601	n/a	n/a	0	0	0
199377	REC_WORD	wordpools/wasnorm_wordpool_576.txt	LTP117	ltpFR2	8	1	QUEEN	1149	n/a	n/a	0	0	0
200351	REC_WORD	wordpools/wasnorm_wordpool_576.txt	LTP117	ltpFR2	8	1	MAILMAN	858	n/a	n/a	0	0	0
201105	REC_WORD	wordpools/wasnorm_wordpool_576.txt	LTP117	ltpFR2	8	1	TWEEZERS	1526	n/a	n/a	0	0	0
201789	REC_WORD	wordpools/wasnorm_wordpool_576.txt	LTP117	ltpFR2	8	1	RATTLE	1170	n/a	n/a	0	0	0
203045	REC_WORD	wordpools/wasnorm_wordpool_576.txt	LTP117	ltpFR2	8	1	CATTLE	261	n/a	n/a	0	0	0
205308	REC_WORD	wordpools/wasnorm_wordpool_576.txt	LTP117	ltpFR2	8	1	APPLE	33	n/a	n/a	0	0	0
210936	REC_WORD	wordpools/wasnorm_wordpool_576.txt	LTP117	ltpFR2	8	1	SPHINX	1349	n/a	n/a	0	0	0
224875	REC_WORD	wordpools/wasnorm_wordpool_576.txt	LTP117	ltpFR2	8	1	LUGGAGE	847	n/a	n/a	0	0	0
253814	REC_WORD	wordpools/wasnorm_wordpool_576.txt	LTP117	ltpFR2	8	1	QUEEN	1149	n/a	n/a	0	0	0
254477	REC_WORD	wordpools/wasnorm_wordpool_576.txt	LTP117	ltpFR2	8	1	THRONE	1461	n/a	n/a	0	0	0
255490	REC_WORD	wordpools/wasnorm_wordpool_576.txt	LTP117	ltpFR2	8	1	CROWN	415	n/a	n/a	0	0	0
272206	DISTRACTOR	n/a	LTP117	ltpFR2	8	2	n/a	n/a	n/a	n/a	0	0	0
272206	START	n/a	LTP117	ltpFR2	8	n/a	n/a	n/a	3	n/a	n/a	n/a	n/a
272256	PROB	n/a	LTP117	ltpFR2	8	n/a	n/a	n/a	3	26	8	9	9
273778	PROB	n/a	LTP117	ltpFR2	8	n/a	n/a	n/a	3	21	8	4	9
275016	PROB	n/a	LTP117	ltpFR2	8	n/a	n/a	n/a	3	17	8	1	8
276238	PROB	n/a	LTP117	ltpFR2	8	n/a	n/a	n/a	3	16	1	9	6
277292	PROB	n/a	LTP117	ltpFR2	8	n/a	n/a	n/a	3	11	7	3	1
278011	PROB	n/a	LTP117	ltpFR2	8	n/a	n/a	n/a	3	20	8	8	6
279015	PROB	n/a	LTP117	ltpFR2	8	n/a	n/a	n/a	3	15	6	4	5
279865	PROB	n/a	LTP117	ltpFR2	8	n/a	n/a	n/a	3	9	1	1	7
280654	PROB	n/a	LTP117	ltpFR2	8	n/a	n/a	n/a	3	16	1	9	6
281558	PROB	n/a	LTP117	ltpFR2	8	n/a	n/a	n/a	3	13	7	3	3
282745	PROB	n/a	LTP117	ltpFR2	8	n/a	n/a	n/a	3	18	8	6	4
283847	PROB	n/a	LTP117	ltpFR2	8	n/a	n/a	n/a	3	17	8	7	2
285606	PROB	n/a	LTP117	ltpFR2	8	n/a	n/a	n/a	3	4	2	1	1
286459	PROB	n/a	LTP117	ltpFR2	8	n/a	n/a	n/a	3	19	5	5	9
287498	PROB	n/a	LTP117	ltpFR2	8	n/a	n/a	n/a	3	11	1	8	2
288481	PROB	n/a	LTP117	ltpFR2	8	n/a	n/a	n/a	3	20	4	8	8
289521	PROB	n/a	LTP117	ltpFR2	8	n/a	n/a	n/a	3	21	7	7	7
290374	PROB	n/a	LTP117	ltpFR2	8	n/a	n/a	n/a	3	8	4	2	2
292365	PROB	n/a	LTP117	ltpFR2	8	n/a	n/a	n/a	3	11	2	6	3
293319	PROB	n/a	LTP117	ltpFR2	8	n/a	n/a	n/a	3	18	4	9	5
294339	PROB	n/a	LTP117	ltpFR2	8	n/a	n/a	n/a	3	19	3	8	8
295720	STOP	n/a	LTP117	ltpFR2	8	n/a	n/a	n/a	3	n/a	n/a	n/a	n/a
297401	WORD	wordpools/wasnorm_wordpool_576.txt	LTP117	ltpFR2	8	2	PEPPER	1047	n/a	n/a	0	0	0
299860	WORD	wordpools/wasnorm_wordpool_576.txt	LTP117	ltpFR2	8	2	PROTON	1132	n/a	n/a	0	0	0
302637	WORD	wordpools/wasnorm_wordpool_576.txt	LTP117	ltpFR2	8	2	MARKET	871	n/a	n/a	0	0	0
305113	WORD	wordpools/wasnorm_wordpool_576.txt	LTP117	ltpFR2	8	2	PLAZA	1088	n/a	n/a	0	0	0
307871	WORD	wordpools/wasnorm_wordpool_576.txt	LTP117	ltpFR2	8	2	SUNRISE	1407	n/a	n/a	0	0	0
310634	WORD	wordpools/wasnorm_wordpool_576.txt	LTP117	ltpFR2	8	2	SOFTBALL	1343	n/a	n/a	0	0	0
313074	WORD	wordpools/wasnorm_wordpool_576.txt	LTP117	ltpFR2	8	2	PASTA	1021	n/a	n/a	0	0	0
315519	WORD	wordpools/wasnorm_wordpool_576.txt	LTP117	ltpFR2	8	2	GLOBE	641	n/a	n/a	0	0	0
318145	WORD	wordpools/wasnorm_wordpool_576.txt	LTP117	ltpFR2	8	2	DINER	467	n/a	n/a	0	0	0
320636	WORD	wordpools/wasnorm_wordpool_576.txt	LTP117	ltpFR2	8	2	OFFICE	972	n/a	n/a	0	0	0
323195	WORD	wordpools/wasnorm_wordpool_576.txt	LTP117	ltpFR2	8	2	BRIEFCASE	175	n/a	n/a	0	0	0
325757	WORD	wordpools/wasnorm_wordpool_576.txt	LTP117	ltpFR2	8	2	CEILING	265	n/a	n/a	0	0	0
328451	WORD	wordpools/wasnorm_wordpool_576.txt	LTP117	ltpFR2	8	2	TURNIP	1521	n/a	n/a	0	0	0
331245	WORD	wordpools/wasnorm_wordpool_576.txt	LTP117	ltpFR2	8	2	CRICKET	408	n/a	n/a	0	0	0
333938	WORD	wordpools/wasnorm_wordpool_576.txt	LTP117	ltpFR2	8	2	TILE	1468	n/a	n/a	0	0	0
336649	WORD	wordpools/wasnorm_wordpool_576.txt	LTP117	ltpFR2	8	2	ULCER	1533	n/a	n/a	0	0	0
339275	WORD	wordpools/wasnorm_wordpool_576.txt	LTP117	ltpFR2	8	2	COLONEL	348	n/a	n/a	0	0	0
342069	WORD	wordpools/wasnorm_wordpool_576.txt	LTP117	ltpFR2	8	2	SWITCH	1422	n/a	n/a	0	0	0
344796	WORD	wordpools/wasnorm_wordpool_576.txt	LTP117	ltpFR2	8	2	LODGE	839	n/a	n/a	0	0	0
347272	WORD	wordpools/wasnorm_wordpool_576.txt	LTP117	ltpFR2	8	2	PASSAGE	1019	n/a	n/a	0	0	0
350016	WORD	wordpools/wasnorm_wordpool_576.txt	LTP117	ltpFR2	8	2	SALAD	1224	n/a	n/a	0	0	0
352726	WORD	wordpools/wasnorm_wordpool_576.txt	LTP117	ltpFR2	8	2	GLOVE	642	n/a	n/a	0	0	0
355202	WORD	wordpools/wasnorm_wordpool_576.txt	LTP117	ltpFR2	8	2	ATOM	55	n/a	n/a	0	0	0
357778	WORD	wordpools/wasnorm_wordpool_576.txt	LTP117	ltpFR2	8	2	TURTLE	1522	n/a	n/a	0	0	0
359385	START	n/a	LTP117	ltpFR2	8	n/a	n/a	n/a	4	n/a	n/a	n/a	n/a
360244	DISTRACTOR	n/a	LTP117	ltpFR2	8	2	n/a	n/a	n/a	n/a	0	0	0
360254	PROB	n/a	LTP117	ltpFR2	8	n/a	n/a	n/a	4	24	7	9	8
361493	PROB	n/a	LTP117	ltpFR2	8	n/a	n/a	n/a	4	7	3	1	3
362396	PROB	n/a	LTP117	ltpFR2	8	n/a	n/a	n/a	4	12	9	2	1
363215	PROB	n/a	LTP117	ltpFR2	8	n/a	n/a	n/a	4	23	7	9	7
364585	PROB	n/a	LTP117	ltpFR2	8	n/a	n/a	n/a	4	15	4	2	7
365658	PROB	n/a	LTP117	ltpFR2	8	n/a	n/a	n/a	4	15	4	6	6
366628	PROB	n/a	LTP117	ltpFR2	8	n/a	n/a	n/a	4	19	9	8	2
368184	PROB	n/a	LTP117	ltpFR2	8	n/a	n/a	n/a	4	16	5	7	4
369690	PROB	n/a	LTP117	ltpFR2	8	n/a	n/a	n/a	4	20	7	8	7
370744	PROB	n/a	LTP117	ltpFR2	8	n/a	n/a	n/a	4	18	6	3	9
371697	PROB	n/a	LTP117	ltpFR2	8	n/a	n/a	n/a	4	17	7	5	4
372952	PROB	n/a	LTP117	ltpFR2	8	n/a	n/a	n/a	4	12	2	8	2
373889	PROB	n/a	LTP117	ltpFR2	8	n/a	n/a	n/a	4	9	3	4	2
374926	PROB	n/a	LTP117	ltpFR2	8	n/a	n/a	n/a	4	18	8	8	2
376011	PROB	n/a	LTP117	ltpFR2	8	n/a	n/a	n/a	4	16	2	5	9
377101	PROB	n/a	LTP117	ltpFR2	8	n/a	n/a	n/a	4	9	5	1	3
378155	PROB	n/a	LTP117	ltpFR2	8	n/a	n/a	n/a	4	16	6	8	2
379023	PROB	n/a	LTP117	ltpFR2	8	n/a	n/a	n/a	4	23	5	9	9
380313	PROB	n/a	LTP117	ltpFR2	8	n/a	n/a	n/a	4	8	2	4	2
381350	PROB	n/a	LTP117	ltpFR2	8	n/a	n/a	n/a	4	20	6	7	7
382496	STOP	n/a	LTP117	ltpFR2	8	n/a	n/a	n/a	4	n/a	n/a	n/a	n/a
385266	REC_START	n/a	LTP117	ltpFR2	8	2	n/a	n/a	n/a	n/a	0	0	0
388905	REC_WORD	wordpools/wasnorm_wordpool_576.txt	LTP117	ltpFR2	8	2	ATOM	55	n/a	n/a	0	0	0
391393	REC_WORD	wordpools/wasnorm_wordpool_576.txt	LTP117	ltpFR2	8	2	DINER	467	n/a	n/a	0	0	0
392893	REC_WORD	wordpools/wasnorm_wordpool_576.txt	LTP117	ltpFR2	8	2	OFFICE	972	n/a	n/a	0	0	0
393782	REC_WORD	wordpools/wasnorm_wordpool_576.txt	LTP117	ltpFR2	8	2	BRIEFCASE	175	n/a	n/a	0	0	0
394623	REC_WORD	wordpools/wasnorm_wordpool_576.txt	LTP117	ltpFR2	8	2	TILE	1468	n/a	n/a	0	0	0
396419	REC_WORD	wordpools/wasnorm_wordpool_576.txt	LTP117	ltpFR2	8	2	CEILING	265	n/a	n/a	0	0	0
397454	REC_WORD	wordpools/wasnorm_wordpool_576.txt	LTP117	ltpFR2	8	2	ULCER	1533	n/a	n/a	0	0	0
400740	REC_WORD	wordpools/wasnorm_wordpool_576.txt	LTP117	ltpFR2	8	2	TURNIP	1521	n/a	n/a	0	0	0
401448	REC_WORD	wordpools/wasnorm_wordpool_576.txt	LTP117	ltpFR2	8	2	SALAD	1224	n/a	n/a	0	0	0
403744	REC_WORD	wordpools/wasnorm_wordpool_576.txt	LTP117	ltpFR2	8	2	PASTA	1021	n/a	n/a	0	0	0
406040	REC_WORD	wordpools/wasnorm_wordpool_576.txt	LTP117	ltpFR2	8	2	PLAZA	1088	n/a	n/a	0	0	0
406904	REC_WORD	wordpools/wasnorm_wordpool_576.txt	LTP117	ltpFR2	8	2	PROTON	1132	n/a	n/a	0	0	0
408401	REC_WORD	wordpools/wasnorm_wordpool_576.txt	LTP117	ltpFR2	8	2	PEPPER	1047	n/a	n/a	0	0	0
409448	REC_WORD	wordpools/wasnorm_wordpool_576.txt	LTP117	ltpFR2	8	2	COLONEL	348	n/a	n/a	0	0	0
412260	REC_WORD	wordpools/wasnorm_wordpool_576.txt	LTP117	ltpFR2	8	2	PLAZA	1088	n/a	n/a	0	0	0
413438	REC_WORD	wordpools/wasnorm_wordpool_576.txt	LTP117	ltpFR2	8	2	MARKET	871	n/a	n/a	0	0	0
414826	REC_WORD	wordpools/wasnorm_wordpool_576.txt	LTP117	ltpFR2	8	2	SUNRISE	1407	n/a	n/a	0	0	0
442600	REC_WORD	wordpools/wasnorm_wordpool_576.txt	LTP117	ltpFR2	8	2	SOFTBALL	1343	n/a	n/a	0	0	0
455275	REC_WORD	wordpools/wasnorm_wordpool_576.txt	LTP117	ltpFR2	8	2	SWITCH	1422	n/a	n/a	0	0	0
476325	WORD	wordpools/wasnorm_wordpool_576.txt	LTP117	ltpFR2	8	3	VAGRANT	1544	n/a	n/a	0	0	0
478784	WORD	wordpools/wasnorm_wordpool_576.txt	LTP117	ltpFR2	8	3	EGYPT	519	n/a	n/a	0	0	0
481241	WORD	wordpools/wasnorm_wordpool_576.txt	LTP117	ltpFR2	8	3	TEMPLE	1448	n/a	n/a	0	0	0
484037	WORD	wordpools/wasnorm_wordpool_576.txt	LTP117	ltpFR2	8	3	BROTHER	179	n/a	n/a	0	0	0
486748	WORD	wordpools/wasnorm_wordpool_576.txt	LTP117	ltpFR2	8	3	PEBBLE	1035	n/a	n/a	0	0	0
489341	WORD	wordpools/wasnorm_wordpool_576.txt	LTP117	ltpFR2	8	3	STALLION	1369	n/a	n/a	0	0	0
492001	WORD	wordpools/wasnorm_wordpool_576.txt	LTP117	ltpFR2	8	3	BUGGY	188	n/a	n/a	0	0	0
494658	WORD	wordpools/wasnorm_wordpool_576.txt	LTP117	ltpFR2	8	3	CLAMP	316	n/a	n/a	0	0	0
497304	WORD	wordpools/wasnorm_wordpool_576.txt	LTP117	ltpFR2	8	3	PEACH	1031	n/a	n/a	0	0	0
499861	WORD	wordpools/wasnorm_wordpool_576.txt	LTP117	ltpFR2	8	3	SKETCH	1315	n/a	n/a	0	0	0
502508	WORD	wordpools/wasnorm_wordpool_576.txt	LTP117	ltpFR2	8	3	MUMMY	932	n/a	n/a	0	0	0
504933	WORD	wordpools/wasnorm_wordpool_576.txt	LTP117	ltpFR2	8	3	CAPTIVE	240	n/a	n/a	0	0	0
507626	WORD	wordpools/wasnorm_wordpool_576.txt	LTP117	ltpFR2	8	3	TUNNEL	1519	n/a	n/a	0	0	0
510370	WORD	wordpools/wasnorm_wordpool_576.txt	LTP117	ltpFR2	8	3	ZEBRA	1635	n/a	n/a	0	0	0
513181	WORD	wordpools/wasnorm_wordpool_576.txt	LTP117	ltpFR2	8	3	THIEF	1456	n/a	n/a	0	0	0
515924	WORD	wordpools/wasnorm_wordpool_576.txt	LTP117	ltpFR2	8	3	ROBBER	1197	n/a	n/a	0	0	0
518502	WORD	wordpools/wasnorm_wordpool_576.txt	LTP117	ltpFR2	8	3	LOFT	840	n/a	n/a	0	0	0
521074	WORD	wordpools/wasnorm_wordpool_576.txt	LTP117	ltpFR2	8	3	ANTLER	29	n/a	n/a	0	0	0
523653	WORD	wordpools/wasnorm_wordpool_576.txt	LTP117	ltpFR2	8	3	STICKER	1382	n/a	n/a	0	0	0
526261	WORD	wordpools/wasnorm_wordpool_576.txt	LTP117	ltpFR2	8	3	BOYFRIEND	162	n/a	n/a	0	0	0
528873	WORD	wordpools/wasnorm_wordpool_576.txt	LTP117	ltpFR2	8	3	CHEST	295	n/a	n/a	0	0	0
531483	WORD	wordpools/wasnorm_wordpool_576.txt	LTP117	ltpFR2	8	3	PORTRAIT	1111	n/a	n/a	0	0	0
534124	WORD	wordpools/wasnorm_wordpool_576.txt	LTP117	ltpFR2	8	3	NECKLACE	940	n/a	n/a	0	0	0
536836	WORD	wordpools/wasnorm_wordpool_576.txt	LTP117	ltpFR2	8	3	FLASHLIGHT	575	n/a	n/a	0	0	0
538443	START	n/a	LTP117	ltpFR2	8	n/a	n/a	n/a	5	n/a	n/a	n/a	n/a
539562	DISTRACTOR	n/a	LTP117	ltpFR2	8	3	n/a	n/a	n/a	n/a	0	0	0
539580	PROB	n/a	LTP117	ltpFR2	8	n/a	n/a	n/a	5	18	7	2	9
541052	PROB	n/a	LTP117	ltpFR2	8	n/a	n/a	n/a	5	18	1	8	9
542455	PROB	n/a	LTP117	ltpFR2	8	n/a	n/a	n/a	5	9	1	5	3
543361	PROB	n/a	LTP117	ltpFR2	8	n/a	n/a	n/a	5	9	2	2	5
544181	PROB	n/a	LTP117	ltpFR2	8	n/a	n/a	n/a	5	19	9	5	5
545151	PROB	n/a	LTP117	ltpFR2	8	n/a	n/a	n/a	5	14	3	3	8
546239	PROB	n/a	LTP117	ltpFR2	8	n/a	n/a	n/a	5	11	2	2	7
547476	PROB	n/a	LTP117	ltpFR2	8	n/a	n/a	n/a	5	14	6	1	7
548581	PROB	n/a	LTP117	ltpFR2	8	n/a	n/a	n/a	5	11	9	1	1
549350	PROB	n/a	LTP117	ltpFR2	8	n/a	n/a	n/a	5	14	1	4	9
550254	PROB	n/a	LTP117	ltpFR2	8	n/a	n/a	n/a	5	22	8	7	7
551759	PROB	n/a	LTP117	ltpFR2	8	n/a	n/a	n/a	5	18	8	5	5
552629	PROB	n/a	LTP117	ltpFR2	8	n/a	n/a	n/a	5	10	3	1	6
553750	PROB	n/a	LTP117	ltpFR2	8	n/a	n/a	n/a	5	18	5	2	8
554653	PROB	n/a	LTP117	ltpFR2	8	n/a	n/a	n/a	5	24	9	9	6
556176	PROB	n/a	LTP117	ltpFR2	8	n/a	n/a	n/a	5	11	1	9	1
556912	PROB	n/a	LTP117	ltpFR2	8	n/a	n/a	n/a	5	16	6	5	5
558117	PROB	n/a	LTP117	ltpFR2	8	n/a	n/a	n/a	5	7	1	3	3
559020	PROB	n/a	LTP117	ltpFR2	8	n/a	n/a	n/a	5	11	2	7	2
559789	PROB	n/a	LTP117	ltpFR2	8	n/a	n/a	n/a	5	22	8	6	8
561032	STOP	n/a	LTP117	ltpFR2	8	n/a	n/a	n/a	5	n/a	n/a	n/a	n/a
564357	REC_START	n/a	LTP117	ltpFR2	8	3	n/a	n/a	n/a	n/a	0	0	0
564789	REC_WORD	wordpools/wasnorm_wordpool_576.txt	LTP117	ltpFR2	8	3	STICKER	1382	n/a	n/a	0	0	0
565680	REC_WORD	wordpools/wasnorm_wordpool_576.txt	LTP117	ltpFR2	8	3	PORTRAIT	1111	n/a	n/a	0	0	0
566356	REC_WORD	wordpools/wasnorm_wordpool_576.txt	LTP117	ltpFR2	8	3	CHEST	295	n/a	n/a	0	0	0
567055	REC_WORD	wordpools/wasnorm_wordpool_576.txt	LTP117	ltpFR2	8	3	NECKLACE	940	n/a	n/a	0	0	0
567746	REC_WORD	wordpools/wasnorm_wordpool_576.txt	LTP117	ltpFR2	8	3	LOFT	840	n/a	n/a	0	0	0
568723	REC_WORD_VV	wordpools/wasnorm_wordpool_576.txt	LTP117	ltpFR2	8	3	<>	-1	n/a	n/a	0	0	0
569323	REC_WORD	wordpools/wasnorm_wordpool_576.txt	LTP117	ltpFR2	8	3	BOYFRIEND	162	n/a	n/a	0	0	0
572431	REC_WORD	wordpools/wasnorm_wordpool_576.txt	LTP117	ltpFR2	8	3	SKETCH	1315	n/a	n/a	0	0	0
573537	REC_WORD	wordpools/wasnorm_wordpool_576.txt	LTP117	ltpFR2	8	3	PEACH	1031	n/a	n/a	0	0	0
577303	REC_WORD	wordpools/wasnorm_wordpool_576.txt	LTP117	ltpFR2	8	3	ROBBER	1197	n/a	n/a	0	0	0
577975	REC_WORD	wordpools/wasnorm_wordpool_576.txt	LTP117	ltpFR2	8	3	THIEF	1456	n/a	n/a	0	0	0
578771	REC_WORD	wordpools/wasnorm_wordpool_576.txt	LTP117	ltpFR2	8	3	MUMMY	932	n/a	n/a	0	0	0
579701	REC_WORD	wordpools/wasnorm_wordpool_576.txt	LTP117	ltpFR2	8	3	ZEBRA	1635	n/a	n/a	0	0	0
582775	REC_WORD	wordpools/wasnorm_wordpool_576.txt	LTP117	ltpFR2	8	3	STALLION	1369	n/a	n/a	0	0	0
583767	REC_WORD	wordpools/wasnorm_wordpool_576.txt	LTP117	ltpFR2	8	3	BUGGY	188	n/a	n/a	0	0	0
584501	REC_WORD	wordpools/wasnorm_wordpool_576.txt	LTP117	ltpFR2	8	3	TUNNEL	1519	n/a	n/a	0	0	0
586224	REC_WORD	wordpools/wasnorm_wordpool_576.txt	LTP117	ltpFR2	8	3	EGYPT	519	n/a	n/a	0	0	0
586898	REC_WORD	wordpools/wasnorm_wordpool_576.txt	LTP117	ltpFR2	8	3	MUMMY	932	n/a	n/a	0	0	0
587733	REC_WORD	wordpools/wasnorm_wordpool_576.txt	LTP117	ltpFR2	8	3	TEMPLE	1448	n/a	n/a	0	0	0
589343	REC_WORD	wordpools/wasnorm_wordpool_576.txt	LTP117	ltpFR2	8	3	VAGRANT	1544	n/a	n/a	0	0	0
592912	REC_WORD	wordpools/wasnorm_wordpool_576.txt	LTP117	ltpFR2	8	3	CAPTIVE	240	n/a	n/a	0	0	0
619215	REC_WORD	wordpools/wasnorm_wordpool_576.txt	LTP117	ltpFR2	8	3	BROTHER	179	n/a	n/a	0	0	0
621703	REC_WORD	wordpools/wasnorm_wordpool_576.txt	LTP117	ltpFR2	8	3	PEBBLE	1035	n/a	n/a	0	0	0
655400	DISTRACTOR	n/a	LTP117	ltpFR2	8	4	n/a	n/a	n/a	n/a	0	0	0
655400	START	n/a	LTP117	ltpFR2	8	n/a	n/a	n/a	6	n/a	n/a	n/a	n/a
655450	PROB	n/a	LTP117	ltpFR2	8	n/a	n/a	n/a	6	21	6	9	6
656688	PROB	n/a	LTP117	ltpFR2	8	n/a	n/a	n/a	6	10	4	1	5
657572	PROB	n/a	LTP117	ltpFR2	8	n/a	n/a	n/a	6	10	1	2	7
658277	PROB	n/a	LTP117	ltpFR2	8	n/a	n/a	n/a	6	15	4	7	2
659666	PROB	n/a	LTP117	ltpFR2	8	n/a	n/a	n/a	6	17	7	2	8
660887	PROB	n/a	LTP117	ltpFR2	8	n/a	n/a	n/a	6	4	1	2	1
662092	PROB	n/a	LTP117	ltpFR2	8	n/a	n/a	n/a	6	12	3	3	6
662928	PROB	n/a	LTP117	ltpFR2	8	n/a	n/a	n/a	6	20	5	9	6
664334	PROB	n/a	LTP117	ltpFR2	8	n/a	n/a	n/a	6	21	4	8	9
665906	PROB	n/a	LTP117	ltpFR2	8	n/a	n/a	n/a	6	14	8	1	5
666891	PROB	n/a	LTP117	ltpFR2	8	n/a	n/a	n/a	6	10	1	3	4
667746	PROB	n/a	LTP117	ltpFR2	8	n/a	n/a	n/a	6	19	9	1	9
668647	PROB	n/a	LTP117	ltpFR2	8	n/a	n/a	n/a	6	17	6	6	5
669637	PROB	n/a	LTP117	ltpFR2	8	n/a	n/a	n/a	6	14	5	5	4
670471	PROB	n/a	LTP117	ltpFR2	8	n/a	n/a	n/a	6	25	9	9	7
671711	PROB	n/a	LTP117	ltpFR2	8	n/a	n/a	n/a	6	17	8	6	3
673014	PROB	n/a	LTP117	ltpFR2	8	n/a	n/a	n/a	6	10	4	3	3
674202	PROB	n/a	LTP117	ltpFR2	8	n/a	n/a	n/a	6	11	2	8	1
674957	PROB	n/a	LTP117	ltpFR2	8	n/a	n/a	n/a	6	15	9	1	5
675741	PROB	n/a	LTP117	ltpFR2	8	n/a	n/a	n/a	6	15	6	3	6
676778	PROB	n/a	LTP117	ltpFR2	8	n/a	n/a	n/a	6	13	5	6	2
678256	STOP	n/a	LTP117	ltpFR2	8	n/a	n/a	n/a	6	n/a	n/a	n/a	n/a
680377	WORD	wordpools/wasnorm_wordpool_576.txt	LTP117	ltpFR2	8	4	STONE	1385	n/a	n/a	0	0	0
683037	WORD	wordpools/wasnorm_wordpool_576.txt	LTP117	ltpFR2	8	4	BRANDY	169	n/a	n/a	0	0	0
685779	WORD	wordpools/wasnorm_wordpool_576.txt	LTP117	ltpFR2	8	4	BOARD	143	n/a	n/a	0	0	0
688341	WORD	wordpools/wasnorm_wordpool_576.txt	LTP117	ltpFR2	8	4	SADDLE	1221	n/a	n/a	0	0	0
690884	WORD	wordpools/wasnorm_wordpool_576.txt	LTP117	ltpFR2	8	4	FRAME	600	n/a	n/a	0	0	0
693511	WORD	wordpools/wasnorm_wordpool_576.txt	LTP117	ltpFR2	8	4	LAKE	796	n/a	n/a	0	0	0
696134	WORD	wordpools/wasnorm_wordpool_576.txt	LTP117	ltpFR2	8	4	MATCH	878	n/a	n/a	0	0	0
698895	WORD	wordpools/wasnorm_wordpool_576.txt	LTP117	ltpFR2	8	4	BATHTUB	100	n/a	n/a	0	0	0
701588	WORD	wordpools/wasnorm_wordpool_576.txt	LTP117	ltpFR2	8	4	SPONGE	1355	n/a	n/a	0	0	0
704050	WORD	wordpools/wasnorm_wordpool_576.txt	LTP117	ltpFR2	8	4	SPARROW	1347	n/a	n/a	0	0	0
706693	WORD	wordpools/wasnorm_wordpool_576.txt	LTP117	ltpFR2	8	4	SIBLING	1301	n/a	n/a	0	0	0
709169	WORD	wordpools/wasnorm_wordpool_576.txt	LTP117	ltpFR2	8	4	POISON	1096	n/a	n/a	0	0	0
711779	WORD	wordpools/wasnorm_wordpool_576.txt	LTP117	ltpFR2	8	4	SNAIL	1332	n/a	n/a	0	0	0
714573	WORD	wordpools/wasnorm_wordpool_576.txt	LTP117	ltpFR2	8	4	YACHT	1629	n/a	n/a	0	0	0
717216	WORD	wordpools/wasnorm_wordpool_576.txt	LTP117	ltpFR2	8	4	SEAGULL	1261	n/a	n/a	0	0	0
719893	WORD	wordpools/wasnorm_wordpool_576.txt	LTP117	ltpFR2	8	4	ELBOW	520	n/a	n/a	0	0	0
722484	WORD	wordpools/wasnorm_wordpool_576.txt	LTP117	ltpFR2	8	4	TEACHER	1440	n/a	n/a	0	0	0
725146	WORD	wordpools/wasnorm_wordpool_576.txt	LTP117	ltpFR2	8	4	CLAM	315	n/a	n/a	0	0	0
727823	WORD	wordpools/wasnorm_wordpool_576.txt	LTP117	ltpFR2	8	4	COIN	343	n/a	n/a	0	0	0
730614	WORD	wordpools/wasnorm_wordpool_576.txt	LTP117	ltpFR2	8	4	POCKET	1093	n/a	n/a	0	0	0
733360	WORD	wordpools/wasnorm_wordpool_576.txt	LTP117	ltpFR2	8	4	TURKEY	1520	n/a	n/a	0	0	0
736054	WORD	wordpools/wasnorm_wordpool_576.txt	LTP117	ltpFR2	8	4	MEAT	883	n/a	n/a	0	0	0
738664	WORD	wordpools/wasnorm_wordpool_576.txt	LTP117	ltpFR2	8	4	STAR	1373	n/a	n/a	0	0	0
741173	WORD	wordpools/wasnorm_wordpool_576.txt	LTP117	ltpFR2	8	4	GRAVE	658	n/a	n/a	0	0	0
742779	START	n/a	LTP117	ltpFR2	8	n/a	n/a	n/a	7	n/a	n/a	n/a	n/a
743678	DISTRACTOR	n/a	LTP117	ltpFR2	8	4	n/a	n/a	n/a	n/a	0	0	0
743683	PROB	n/a	LTP117	ltpFR2	8	n/a	n/a	n/a	7	9	4	4	1
745119	PROB	n/a	LTP117	ltpFR2	8	n/a	n/a	n/a	7	9	1	1	7
746092	PROB	n/a	LTP117	ltpFR2	8	n/a	n/a	n/a	7	15	9	2	6
747079	PROB	n/a	LTP117	ltpFR2	8	n/a	n/a	n/a	7	11	5	4	2
748032	PROB	n/a	LTP117	ltpFR2	8	n/a	n/a	n/a	7	24	9	6	9
749203	PROB	n/a	LTP117	ltpFR2	8	n/a	n/a	n/a	7	16	7	4	4
751060	PROB	n/a	LTP117	ltpFR2	8	n/a	n/a	n/a	7	15	3	4	8
752784	PROB	n/a	LTP117	ltpFR2	8	n/a	n/a	n/a	7	8	1	3	4
753634	PROB	n/a	LTP117	ltpFR2	8	n/a	n/a	n/a	7	19	7	4	8
755173	PROB	n/a	LTP117	ltpFR2	8	n/a	n/a	n/a	7	12	1	8	3
756012	PROB	n/a	LTP117	ltpFR2	8	n/a	n/a	n/a	7	5	1	1	3
756782	PROB	n/a	LTP117	ltpFR2	8	n/a	n/a	n/a	7	17	1	7	9
757817	PROB	n/a	LTP117	ltpFR2	8	n/a	n/a	n/a	7	17	5	6	6
759021	PROB	n/a	LTP117	ltpFR2	8	n/a	n/a	n/a	7	21	9	6	6
760176	PROB	n/a	LTP117	ltpFR2	8	n/a	n/a	n/a	7	6	2	1	3
761015	PROB	n/a	LTP117	ltpFR2	8	n/a	n/a	n/a	7	10	6	3	1
761882	PROB	n/a	LTP117	ltpFR2	8	n/a	n/a	n/a	7	10	3	3	4
762654	PROB	n/a	LTP117	ltpFR2	8	n/a	n/a	n/a	7	18	8	1	9
763605	PROB	n/a	LTP117	ltpFR2	8	n/a	n/a	n/a	7	16	8	1	7
764659	PROB	n/a	LTP117	ltpFR2	8	n/a	n/a	n/a	7	19	5	8	6
766072	STOP	n/a	LTP117	ltpFR2	8	n/a	n/a	n/a	7	n/a	n/a	n/a	n/a
768544	REC_START	n/a	LTP117	ltpFR2	8	4	n/a	n/a	n/a	n/a	0	0	0
769842	REC_WORD	wordpools/wasnorm_wordpool_576.txt	LTP117	ltpFR2	8	4	TEACHER	1440	n/a	n/a	0	0	0
770896	REC_WORD	wordpools/wasnorm_wordpool_576.txt	LTP117	ltpFR2	8	4	CLAM	315	n/a	n/a	0	0	0
771872	REC_WORD	wordpools/wasnorm_wordpool_576.txt	LTP117	ltpFR2	8	4	SPARROW	1347	n/a	n/a	0	0	0
773035	REC_WORD	wordpools/wasnorm_wordpool_576.txt	LTP117	ltpFR2	8	4	ELBOW	520	n/a	n/a	0	0	0
774096	REC_WORD	wordpools/wasnorm_wordpool_576.txt	LTP117	ltpFR2	8	4	POCKET	1093	n/a	n/a	0	0	0
776271	REC_WORD	wordpools/wasnorm_wordpool_576.txt	LTP117	ltpFR2	8	4	COIN	343	n/a	n/a	0	0	0
778139	REC_WORD	wordpools/wasnorm_wordpool_576.txt	LTP117	ltpFR2	8	4	BOARD	143	n/a	n/a	0	0	0
778884	REC_WORD	wordpools/wasnorm_wordpool_576.txt	LTP117	ltpFR2	8	4	FRAME	600	n/a	n/a	0	0	0
779774	REC_WORD	wordpools/wasnorm_wordpool_576.txt	LTP117	ltpFR2	8	4	MATCH	878	n/a	n/a	0	0	0
780725	REC_WORD	wordpools/wasnorm_wordpool_576.txt	LTP117	ltpFR2	8	4	BATHTUB	100	n/a	n/a	0	0	0
781573	REC_WORD	wordpools/wasnorm_wordpool_576.txt	LTP117	ltpFR2	8	4	LAKE	796	n/a	n/a	0	0	0
783391	REC_WORD	wordpools/wasnorm_wordpool_576.txt	LTP117	ltpFR2	8	4	YACHT	1629	n/a	n/a	0	0	0
784444	REC_WORD	wordpools/wasnorm_wordpool_576.txt	LTP117	ltpFR2	8	4	POISON	1096	n/a	n/a	0	0	0
785260	REC_WORD	wordpools/wasnorm_wordpool_576.txt	LTP117	ltpFR2	8	4	SIBLING	1301	n/a	n/a	0	0	0
786216	REC_WORD	wordpools/wasnorm_wordpool_576.txt	LTP117	ltpFR2	8	4	GRAVE	658	n/a	n/a	0	0	0
813577	REC_WORD	wordpools/wasnorm_wordpool_576.txt	LTP117	ltpFR2	8	4	ELBOW	520	n/a	n/a	0	0	0
859553	DISTRACTOR	n/a	LTP117	ltpFR2	8	5	n/a	n/a	n/a	n/a	0	0	0
859553	START	n/a	LTP117	ltpFR2	8	n/a	n/a	n/a	8	n/a	n/a	n/a	n/a
859603	PROB	n/a	LTP117	ltpFR2	8	n/a	n/a	n/a	8	17	6	9	2
861541	PROB	n/a	LTP117	ltpFR2	8	n/a	n/a	n/a	8	10	6	3	1
862311	PROB	n/a	LTP117	ltpFR2	8	n/a	n/a	n/a	8	15	4	5	6
863080	PROB	n/a	LTP117	ltpFR2	8	n/a	n/a	n/a	8	9	2	2	5
864101	PROB	n/a	LTP117	ltpFR2	8	n/a	n/a	n/a	8	10	1	8	1
864856	PROB	n/a	LTP117	ltpFR2	8	n/a	n/a	n/a	8	19	5	5	9
865707	PROB	n/a	LTP117	ltpFR2	8	n/a	n/a	n/a	8	112	1	3	8
866610	PROB	n/a	LTP117	ltpFR2	8	n/a	n/a	n/a	8	15	2	6	7
867580	PROB	n/a	LTP117	ltpFR2	8	n/a	n/a	n/a	8	21	6	9	6
869105	PROB	n/a	LTP117	ltpFR2	8	n/a	n/a	n/a	8	16	6	2	9
870343	PROB	n/a	LTP117	ltpFR2	8	n/a	n/a	n/a	8	13	3	9	1
871211	PROB	n/a	LTP117	ltpFR2	8	n/a	n/a	n/a	8	10	2	7	1
872148	PROB	n/a	LTP117	ltpFR2	8	n/a	n/a	n/a	8	9	6	2	1
873034	PROB	n/a	LTP117	ltpFR2	8	n/a	n/a	n/a	8	15	5	8	2
874306	PROB	n/a	LTP117	ltpFR2	8	n/a	n/a	n/a	8	20	5	7	8
875360	PROB	n/a	LTP117	ltpFR2	8	n/a	n/a	n/a	8	14	6	1	7
876249	PROB	n/a	LTP117	ltpFR2	8	n/a	n/a	n/a	8	12	2	5	5
877152	PROB	n/a	LTP117	ltpFR2	8	n/a	n/a	n/a	8	11	7	3	1
877919	PROB	n/a	LTP117	ltpFR2	8	n/a	n/a	n/a	8	8	6	1	1
879377	PROB	n/a	LTP117	ltpFR2	8	n/a	n/a	n/a	8	13	5	6	2
880264	PROB	n/a	LTP117	ltpFR2	8	n/a	n/a	n/a	8	11	4	2	5
881602	PROB	n/a	LTP117	ltpFR2	8	n/a	n/a	n/a	8	16	2	6	8
882880	STOP	n/a	LTP117	ltpFR2	8	n/a	n/a	n/a	8	n/a	n/a	n/a	n/a
884564	WORD	wordpools/wasnorm_wordpool_576.txt	LTP117	ltpFR2	8	5	SCALPEL	1243	n/a	n/a	0	0	0
887137	WORD	wordpools/wasnorm_wordpool_576.txt	LTP117	ltpFR2	8	5	MONSTER	912	n/a	n/a	0	0	0
889767	WORD	wordpools/wasnorm_wordpool_576.txt	LTP117	ltpFR2	8	5	GARBAGE	622	n/a	n/a	0	0	0
892560	WORD	wordpools/wasnorm_wordpool_576.txt	LTP117	ltpFR2	8	5	MOTEL	919	n/a	n/a	0	0	0
895036	WORD	wordpools/wasnorm_wordpool_576.txt	LTP117	ltpFR2	8	5	BARREL	91	n/a	n/a	0	0	0
897730	WORD	wordpools/wasnorm_wordpool_576.txt	LTP117	ltpFR2	8	5	PECAN	1036	n/a	n/a	0	0	0
900407	WORD	wordpools/wasnorm_wordpool_576.txt	LTP117	ltpFR2	8	5	FIREMAN	569	n/a	n/a	0	0	0
902950	WORD	wordpools/wasnorm_wordpool_576.txt	LTP117	ltpFR2	8	5	MILDEW	893	n/a	n/a	0	0	0
905727	WORD	wordpools/wasnorm_wordpool_576.txt	LTP117	ltpFR2	8	5	BUG	187	n/a	n/a	0	0	0
908152	WORD	wordpools/wasnorm_wordpool_576.txt	LTP117	ltpFR2	8	5	PICNIC	1060	n/a	n/a	0	0	0
910662	WORD	wordpools/wasnorm_wordpool_576.txt	LTP117	ltpFR2	8	5	BUBBLE	183	n/a	n/a	0	0	0
913389	WORD	wordpools/wasnorm_wordpool_576.txt	LTP117	ltpFR2	8	5	CRAYON	401	n/a	n/a	0	0	0
915982	WORD	wordpools/wasnorm_wordpool_576.txt	LTP117	ltpFR2	8	5	FLESH	579	n/a	n/a	0	0	0
918558	WORD	wordpools/wasnorm_wordpool_576.txt	LTP117	ltpFR2	8	5	GAVEL	627	n/a	n/a	0	0	0
921034	WORD	wordpools/wasnorm_wordpool_576.txt	LTP117	ltpFR2	8	5	BRICK	172	n/a	n/a	0	0	0
923611	WORD	wordpools/wasnorm_wordpool_576.txt	LTP117	ltpFR2	8	5	SILK	1307	n/a	n/a	0	0	0
926254	WORD	wordpools/wasnorm_wordpool_576.txt	LTP117	ltpFR2	8	5	INFANT	737	n/a	n/a	0	0	0
928713	WORD	wordpools/wasnorm_wordpool_576.txt	LTP117	ltpFR2	8	5	FINGER	567	n/a	n/a	0	0	0
931256	WORD	wordpools/wasnorm_wordpool_576.txt	LTP117	ltpFR2	8	5	DIVER	476	n/a	n/a	0	0	0
934017	WORD	wordpools/wasnorm_wordpool_576.txt	LTP117	ltpFR2	8	5	TWISTER	1530	n/a	n/a	0	0	0
936760	WORD	wordpools/wasnorm_wordpool_576.txt	LTP117	ltpFR2	8	5	PICTURE	1061	n/a	n/a	0	0	0
939303	WORD	wordpools/wasnorm_wordpool_576.txt	LTP117	ltpFR2	8	5	DRAWING	494	n/a	n/a	0	0	0
942080	WORD	wordpools/wasnorm_wordpool_576.txt	LTP117	ltpFR2	8	5	DRILL	497	n/a	n/a	0	0	0
944891	WORD	wordpools/wasnorm_wordpool_576.txt	LTP117	ltpFR2	8	5	COTTAGE	384	n/a	n/a	0	0	0
946498	START	n/a	LTP117	ltpFR2	8	n/a	n/a	n/a	9	n/a	n/a	n/a	n/a
947556	DISTRACTOR	n/a	LTP117	ltpFR2	8	5	n/a	n/a	n/a	n/a	0	0	0
947568	PROB	n/a	LTP117	ltpFR2	8	n/a	n/a	n/a	9	11	4	4	3
948569	PROB	n/a	LTP117	ltpFR2	8	n/a	n/a	n/a	9	18	5	6	7
949475	PROB	n/a	LTP117	ltpFR2	8	n/a	n/a	n/a	9	16	7	4	3
950496	PROB	n/a	LTP117	ltpFR2	8	n/a	n/a	n/a	9	17	2	8	7
951533	PROB	n/a	LTP117	ltpFR2	8	n/a	n/a	n/a	9	17	6	5	6
952637	PROB	n/a	LTP117	ltpFR2	8	n/a	n/a	n/a	9	14	4	3	6
953674	PROB	n/a	LTP117	ltpFR2	8	n/a	n/a	n/a	9	20	7	4	9
955545	PROB	n/a	LTP117	ltpFR2	8	n/a	n/a	n/a	9	8	3	4	1
956517	PROB	n/a	LTP117	ltpFR2	8	n/a	n/a	n/a	9	13	1	9	3
957302	PROB	n/a	LTP117	ltpFR2	8	n/a	n/a	n/a	9	13	7	3	3
958994	PROB	n/a	LTP117	ltpFR2	8	n/a	n/a	n/a	9	13	4	4	5
960182	PROB	n/a	LTP117	ltpFR2	8	n/a	n/a	n/a	9	10	4	4	2
961052	PROB	n/a	LTP117	ltpFR2	8	n/a	n/a	n/a	9	17	2	7	8
962089	PROB	n/a	LTP117	ltpFR2	8	n/a	n/a	n/a	9	12	5	2	5
962940	PROB	n/a	LTP117	ltpFR2	8	n/a	n/a	n/a	9	12	3	6	3
964579	PROB	n/a	LTP117	ltpFR2	8	n/a	n/a	n/a	9	5	2	2	1
965416	PROB	n/a	LTP117	ltpFR2	8	n/a	n/a	n/a	9	10	2	1	7
966369	PROB	n/a	LTP117	ltpFR2	8	n/a	n/a	n/a	9	13	3	1	9
967256	PROB	n/a	LTP117	ltpFR2	8	n/a	n/a	n/a	9	12	1	9	2
968279	PROB	n/a	LTP117	ltpFR2	8	n/a	n/a	n/a	9	13	4	3	6
969248	STOP	n/a	LTP117	ltpFR2	8	n/a	n/a	n/a	9	n/a	n/a	n/a	n/a
972429	REC_START	n/a	LTP117	ltpFR2	8	5	n/a	n/a	n/a	n/a	0	0	0
973099	REC_WORD	wordpools/wasnorm_wordpool_576.txt	LTP117	ltpFR2	8	5	TWISTER	1530	n/a	n/a	0	0	0
973986	REC_WORD	wordpools/wasnorm_wordpool_576.txt	LTP117	ltpFR2	8	5	PICTURE	1061	n/a	n/a	0	0	0
974888	REC_WORD	wordpools/wasnorm_wordpool_576.txt	LTP117	ltpFR2	8	5	DRAWING	494	n/a	n/a	0	0	0
977979	REC_WORD	wordpools/wasnorm_wordpool_576.txt	LTP117	ltpFR2	8	5	COTTAGE	384	n/a	n/a	0	0	0
980411	REC_WORD	wordpools/wasnorm_wordpool_576.txt	LTP117	ltpFR2	8	5	FIREMAN	569	n/a	n/a	0	0	0
982188	REC_WORD	wordpools/wasnorm_wordpool_576.txt	LTP117	ltpFR2	8	5	BRICK	172	n/a	n/a	0	0	0
991610	REC_WORD	wordpools/wasnorm_wordpool_576.txt	LTP117	ltpFR2	8	5	MONSTER	912	n/a	n/a	0	0	0
993893	REC_WORD	wordpools/wasnorm_wordpool_576.txt	LTP117	ltpFR2	8	5	BARREL	91	n/a	n/a	0	0	0
997229	REC_WORD	wordpools/wasnorm_wordpool_576.txt	LTP117	ltpFR2	8	5	CASHEW	253	n/a	n/a	0	0	0
1000420	REC_WORD	wordpools/wasnorm_wordpool_576.txt	LTP117	ltpFR2	8	5	MOTEL	919	n/a	n/a	0	0	0
1003450	REC_WORD	wordpools/wasnorm_wordpool_576.txt	LTP117	ltpFR2	8	5	FINGER	567	n/a	n/a	0	0	0
1016942	REC_WORD	wordpools/wasnorm_wordpool_576.txt	LTP117	ltpFR2	8	5	MILDEW	893	n/a	n/a	0	0	0
1017591	REC_WORD	wordpools/wasnorm_wordpool_576.txt	LTP117	ltpFR2	8	5	SILK	1307	n/a	n/a	0	0	0
1024760	REC_WORD	wordpools/wasnorm_wordpool_576.txt	LTP117	ltpFR2	8	5	FIREMAN	569	n/a	n/a	0	0	0
1045984	REC_WORD	wordpools/wasnorm_wordpool_576.txt	LTP117	ltpFR2	8	5	SCALPEL	1243	n/a	n/a	0	0	0
1063471	DISTRACTOR	n/a	LTP117	ltpFR2	8	6	n/a	n/a	n/a	n/a	0	0	0
1063471	START	n/a	LTP117	ltpFR2	8	n/a	n/a	n/a	10	n/a	n/a	n/a	n/a
1063521	PROB	n/a	LTP117	ltpFR2	8	n/a	n/a	n/a	10	14	2	4	8
1064439	PROB	n/a	LTP117	ltpFR2	8	n/a	n/a	n/a	10	9	1	3	5
1065613	PROB	n/a	LTP117	ltpFR2	8	n/a	n/a	n/a	10	13	4	1	8
1066731	PROB	n/a	LTP117	ltpFR2	8	n/a	n/a	n/a	10	1	9	7	2
1067651	PROB	n/a	LTP117	ltpFR2	8	n/a	n/a	n/a	10	13	8	1	4
1069157	PROB	n/a	LTP117	ltpFR2	8	n/a	n/a	n/a	10	20	9	9	2
1070361	PROB	n/a	LTP117	ltpFR2	8	n/a	n/a	n/a	10	20	7	9	4
1071619	PROB	n/a	LTP117	ltpFR2	8	n/a	n/a	n/a	10	13	8	3	2
1073091	PROB	n/a	LTP117	ltpFR2	8	n/a	n/a	n/a	10	17	3	6	8
1074360	PROB	n/a	LTP117	ltpFR2	8	n/a	n/a	n/a	10	17	7	4	6
1075333	PROB	n/a	LTP117	ltpFR2	8	n/a	n/a	n/a	10	10	1	8	1
1076420	PROB	n/a	LTP117	ltpFR2	8	n/a	n/a	n/a	10	16	6	9	1
1077304	PROB	n/a	LTP117	ltpFR2	8	n/a	n/a	n/a	10	17	6	8	3
1078910	PROB	n/a	LTP117	ltpFR2	8	n/a	n/a	n/a	10	14	6	7	1
1079833	PROB	n/a	LTP117	ltpFR2	8	n/a	n/a	n/a	10	12	7	1	4
1081539	PROB	n/a	LTP117	ltpFR2	8	n/a	n/a	n/a	10	15	5	8	2
1082577	PROB	n/a	LTP117	ltpFR2	8	n/a	n/a	n/a	10	17	9	4	4
1083614	PROB	n/a	LTP117	ltpFR2	8	n/a	n/a	n/a	10	8	1	1	6
1084499	PROB	n/a	LTP117	ltpFR2	8	n/a	n/a	n/a	10	10	5	4	1
1085287	PROB	n/a	LTP117	ltpFR2	8	n/a	n/a	n/a	10	12	4	4	4
1086560	STOP	n/a	LTP117	ltpFR2	8	n/a	n/a	n/a	10	n/a	n/a	n/a	n/a
1088315	WORD	wordpools/wasnorm_wordpool_576.txt	LTP117	ltpFR2	8	6	SPACE	1345	n/a	n/a	0	0	0
1090875	WORD	wordpools/wasnorm_wordpool_576.txt	LTP117	ltpFR2	8	6	CRATER	400	n/a	n/a	0	0	0
1093451	WORD	wordpools/wasnorm_wordpool_576.txt	LTP117	ltpFR2	8	6	WINDOW	1611	n/a	n/a	0	0	0
1096010	WORD	wordpools/wasnorm_wordpool_576.txt	LTP117	ltpFR2	8	6	NURSE	963	n/a	n/a	0	0	0
1098737	WORD	wordpools/wasnorm_wordpool_576.txt	LTP117	ltpFR2	8	6	PATIENT	1024	n/a	n/a	0	0	0
1101314	WORD	wordpools/wasnorm_wordpool_576.txt	LTP117	ltpFR2	8	6	DENTIST	447	n/a	n/a	0	0	0
1104125	WORD	wordpools/wasnorm_wordpool_576.txt	LTP117	ltpFR2	8	6	CIGAR	308	n/a	n/a	0	0	0
1106935	WORD	wordpools/wasnorm_wordpool_576.txt	LTP117	ltpFR2	8	6	SLUG	1329	n/a	n/a	0	0	0
1109444	WORD	wordpools/wasnorm_wordpool_576.txt	LTP117	ltpFR2	8	6	OX	994	n/a	n/a	0	0	0
1112136	WORD	wordpools/wasnorm_wordpool_576.txt	LTP117	ltpFR2	8	6	WARDROBE	1587	n/a	n/a	0	0	0
1114831	WORD	wordpools/wasnorm_wordpool_576.txt	LTP117	ltpFR2	8	6	LASER	801	n/a	n/a	0	0	0
1117324	WORD	wordpools/wasnorm_wordpool_576.txt	LTP117	ltpFR2	8	6	APRON	35	n/a	n/a	0	0	0
1119884	WORD	wordpools/wasnorm_wordpool_576.txt	LTP117	ltpFR2	8	6	SERVANT	1271	n/a	n/a	0	0	0
1122393	WORD	wordpools/wasnorm_wordpool_576.txt	LTP117	ltpFR2	8	6	PARSLEY	1016	n/a	n/a	0	0	0
1124903	WORD	wordpools/wasnorm_wordpool_576.txt	LTP117	ltpFR2	8	6	BUREAU	199	n/a	n/a	0	0	0
1127379	WORD	wordpools/wasnorm_wordpool_576.txt	LTP117	ltpFR2	8	6	LIVER	833	n/a	n/a	0	0	0
1130106	WORD	wordpools/wasnorm_wordpool_576.txt	LTP117	ltpFR2	8	6	ACTRESS	6	n/a	n/a	0	0	0
1132833	WORD	wordpools/wasnorm_wordpool_576.txt	LTP117	ltpFR2	8	6	DIME	466	n/a	n/a	0	0	0
1135275	WORD	wordpools/wasnorm_wordpool_576.txt	LTP117	ltpFR2	8	6	STREAM	1392	n/a	n/a	0	0	0
1138052	WORD	wordpools/wasnorm_wordpool_576.txt	LTP117	ltpFR2	8	6	BUTCHER	203	n/a	n/a	0	0	0
1140612	WORD	wordpools/wasnorm_wordpool_576.txt	LTP117	ltpFR2	8	6	KLEENEX	782	n/a	n/a	0	0	0
1143272	WORD	wordpools/wasnorm_wordpool_576.txt	LTP117	ltpFR2	8	6	LONDON	843	n/a	n/a	0	0	0
1145762	WORD	wordpools/wasnorm_wordpool_576.txt	LTP117	ltpFR2	8	6	CAMEL	223	n/a	n/a	0	0	0
1148358	WORD	wordpools/wasnorm_wordpool_576.txt	LTP117	ltpFR2	8	6	LAVA	804	n/a	n/a	0	0	0
1149964	START	n/a	LTP117	ltpFR2	8	n/a	n/a	n/a	11	n/a	n/a	n/a	n/a
1150786	DISTRACTOR	n/a	LTP117	ltpFR2	8	6	n/a	n/a	n/a	n/a	0	0	0
1150800	PROB	n/a	LTP117	ltpFR2	8	n/a	n/a	n/a	11	22	6	8	8
1152320	PROB	n/a	LTP117	ltpFR2	8	n/a	n/a	n/a	11	19	9	3	7
1153374	PROB	n/a	LTP117	ltpFR2	8	n/a	n/a	n/a	11	14	2	3	9
1154531	PROB	n/a	LTP117	ltpFR2	8	n/a	n/a	n/a	11	16	3	8	5
1155769	PROB	n/a	LTP117	ltpFR2	8	n/a	n/a	n/a	11	11	5	5	1
1156553	PROB	n/a	LTP117	ltpFR2	8	n/a	n/a	n/a	11	17	5	4	8
1157542	PROB	n/a	LTP117	ltpFR2	8	n/a	n/a	n/a	11	21	9	4	8
1158962	PROB	n/a	LTP117	ltpFR2	8	n/a	n/a	n/a	11	22	5	9	7
1160735	PROB	n/a	LTP117	ltpFR2	8	n/a	n/a	n/a	11	12	6	2	4
1161890	PROB	n/a	LTP117	ltpFR2	8	n/a	n/a	n/a	11	10	5	2	3
1163261	PROB	n/a	LTP117	ltpFR2	8	n/a	n/a	n/a	11	14	6	5	3
1164301	PROB	n/a	LTP117	ltpFR2	8	n/a	n/a	n/a	11	11	5	2	2
1165054	PROB	n/a	LTP117	ltpFR2	8	n/a	n/a	n/a	11	21	7	9	5
1167129	PROB	n/a	LTP117	ltpFR2	8	n/a	n/a	n/a	11	14	1	7	6
1168065	PROB	n/a	LTP117	ltpFR2	8	n/a	n/a	n/a	11	10	7	1	2
1168935	PROB	n/a	LTP117	ltpFR2	8	n/a	n/a	n/a	11	13	9	2	3
1170642	PROB	n/a	LTP117	ltpFR2	8	n/a	n/a	n/a	11	14	4	2	8
1173176	STOP	n/a	LTP117	ltpFR2	8	n/a	n/a	n/a	11	n/a	n/a	n/a	n/a
1175812	REC_START	n/a	LTP117	ltpFR2	8	6	n/a	n/a	n/a	n/a	0	0	0
1177791	REC_WORD	wordpools/wasnorm_wordpool_576.txt	LTP117	ltpFR2	8	6	BUTCHER	203	n/a	n/a	0	0	0
1178456	REC_WORD	wordpools/wasnorm_wordpool_576.txt	LTP117	ltpFR2	8	6	KLEENEX	782	n/a	n/a	0	0	0
1179092	REC_WORD	wordpools/wasnorm_wordpool_576.txt	LTP117	ltpFR2	8	6	LONDON	843	n/a	n/a	0	0	0
1180752	REC_WORD	wordpools/wasnorm_wordpool_576.txt	LTP117	ltpFR2	8	6	ACTRESS	6	n/a	n/a	0	0	0
1181459	REC_WORD	wordpools/wasnorm_wordpool_576.txt	LTP117	ltpFR2	8	6	DIME	466	n/a	n/a	0	0	0
1181908	REC_WORD	wordpools/wasnorm_wordpool_576.txt	LTP117	ltpFR2	8	6	STREAM	1392	n/a	n/a	0	0	0
1183757	REC_WORD	wordpools/wasnorm_wordpool_576.txt	LTP117	ltpFR2	8	6	SERVANT	1271	n/a	n/a	0	0	0
1184553	REC_WORD	wordpools/wasnorm_wordpool_576.txt	LTP117	ltpFR2	8	6	APRON	35	n/a	n/a	0	0	0
1185204	REC_WORD	wordpools/wasnorm_wordpool_576.txt	LTP117	ltpFR2	8	6	PARSLEY	1016	n/a	n/a	0	0	0
1185903	REC_WORD	wordpools/wasnorm_wordpool_576.txt	LTP117	ltpFR2	8	6	LIVER	833	n/a	n/a	0	0	0
1197736	REC_WORD	wordpools/wasnorm_wordpool_576.txt	LTP117	ltpFR2	8	6	SPACE	1345	n/a	n/a	0	0	0
1198637	REC_WORD	wordpools/wasnorm_wordpool_576.txt	LTP117	ltpFR2	8	6	CRATER	400	n/a	n/a	0	0	0
1199335	REC_WORD	wordpools/wasnorm_wordpool_576.txt	LTP117	ltpFR2	8	6	LASER	801	n/a	n/a	0	0	0
1200139	REC_WORD	wordpools/wasnorm_wordpool_576.txt	LTP117	ltpFR2	8	6	NURSE	963	n/a	n/a	0	0	0
1200938	REC_WORD	wordpools/wasnorm_wordpool_576.txt	LTP117	ltpFR2	8	6	DENTIST	447	n/a	n/a	0	0	0
1201688	REC_WORD	wordpools/wasnorm_wordpool_576.txt	LTP117	ltpFR2	8	6	PATIENT	1024	n/a	n/a	0	0	0
1202417	REC_WORD	wordpools/wasnorm_wordpool_576.txt	LTP117	ltpFR2	8	6	WINDOW	1611	n/a	n/a	0	0	0
1203907	REC_WORD	wordpools/wasnorm_wordpool_576.txt	LTP117	ltpFR2	8	6	BUREAU	199	n/a	n/a	0	0	0
1216454	REC_WORD	wordpools/wasnorm_wordpool_576.txt	LTP117	ltpFR2	8	6	KLEENEX	782	n/a	n/a	0	0	0
1224742	REC_WORD	wordpools/wasnorm_wordpool_576.txt	LTP117	ltpFR2	8	6	OX	994	n/a	n/a	0	0	0
1226565	REC_WORD	wordpools/wasnorm_wordpool_576.txt	LTP117	ltpFR2	8	6	CIGAR	308	n/a	n/a	0	0	0
1227274	REC_WORD	wordpools/wasnorm_wordpool_576.txt	LTP117	ltpFR2	8	6	CAMEL	223	n/a	n/a	0	0	0
1232379	REC_WORD	wordpools/wasnorm_wordpool_576.txt	LTP117	ltpFR2	8	6	SLUG	1329	n/a	n/a	0	0	0
1266838	DISTRACTOR	n/a	LTP117	ltpFR2	8	7	n/a	n/a	n/a	n/a	0	0	0
1266838	START	n/a	LTP117	ltpFR2	8	n/a	n/a	n/a	12	n/a	n/a	n/a	n/a
1266888	PROB	n/a	LTP117	ltpFR2	8	n/a	n/a	n/a	12	12	1	6	5
1267755	PROB	n/a	LTP117	ltpFR2	8	n/a	n/a	n/a	12	14	8	3	3
1268659	PROB	n/a	LTP117	ltpFR2	8	n/a	n/a	n/a	12	14	3	4	7
1270315	PROB	n/a	LTP117	ltpFR2	8	n/a	n/a	n/a	12	17	5	6	6
1271570	PROB	n/a	LTP117	ltpFR2	8	n/a	n/a	n/a	12	23	9	6	8
1273111	PROB	n/a	LTP117	ltpFR2	8	n/a	n/a	n/a	12	7	4	1	2
1274447	PROB	n/a	LTP117	ltpFR2	8	n/a	n/a	n/a	12	10	7	1	2
1275234	PROB	n/a	LTP117	ltpFR2	8	n/a	n/a	n/a	12	22	9	9	4
1276388	PROB	n/a	LTP117	ltpFR2	8	n/a	n/a	n/a	12	12	4	6	2
1277325	PROB	n/a	LTP117	ltpFR2	8	n/a	n/a	n/a	12	8	5	2	1
1278262	PROB	n/a	LTP117	ltpFR2	8	n/a	n/a	n/a	12	17	9	5	3
1279736	PROB	n/a	LTP117	ltpFR2	8	n/a	n/a	n/a	12	13	2	5	6
1280620	PROB	n/a	LTP117	ltpFR2	8	n/a	n/a	n/a	12	22	8	7	7
1281842	PROB	n/a	LTP117	ltpFR2	8	n/a	n/a	n/a	12	22	9	4	9
1283264	PROB	n/a	LTP117	ltpFR2	8	n/a	n/a	n/a	12	6	1	1	4
1284036	PROB	n/a	LTP117	ltpFR2	8	n/a	n/a	n/a	12	14	6	7	1
1284973	PROB	n/a	LTP117	ltpFR2	8	n/a	n/a	n/a	12	15	8	5	2
1285893	PROB	n/a	LTP117	ltpFR2	8	n/a	n/a	n/a	12	18	8	8	2
1287014	PROB	n/a	LTP117	ltpFR2	8	n/a	n/a	n/a	12	6	2	2	2
1288034	PROB	n/a	LTP117	ltpFR2	8	n/a	n/a	n/a	12	15	6	1	8
1290838	STOP	n/a	LTP117	ltpFR2	8	n/a	n/a	n/a	12	n/a	n/a	n/a	n/a
1291681	WORD	wordpools/wasnorm_wordpool_576.txt	LTP117	ltpFR2	8	7	FOX	598	n/a	n/a	0	0	0
1294208	WORD	wordpools/wasnorm_wordpool_576.txt	LTP117	ltpFR2	8	7	POSSUM	1112	n/a	n/a	0	0	0
1296801	WORD	wordpools/wasnorm_wordpool_576.txt	LTP117	ltpFR2	8	7	BREAST	171	n/a	n/a	0	0	0
1299324	WORD	wordpools/wasnorm_wordpool_576.txt	LTP117	ltpFR2	8	7	ANKLE	24	n/a	n/a	0	0	0
1301769	WORD	wordpools/wasnorm_wordpool_576.txt	LTP117	ltpFR2	8	7	ROBIN	1199	n/a	n/a	0	0	0
1304245	WORD	wordpools/wasnorm_wordpool_576.txt	LTP117	ltpFR2	8	7	RECORD	1176	n/a	n/a	0	0	0
1306786	WORD	wordpools/wasnorm_wordpool_576.txt	LTP117	ltpFR2	8	7	DAISY	435	n/a	n/a	0	0	0
1309432	WORD	wordpools/wasnorm_wordpool_576.txt	LTP117	ltpFR2	8	7	SEAFOOD	1260	n/a	n/a	0	0	0
1312106	WORD	wordpools/wasnorm_wordpool_576.txt	LTP117	ltpFR2	8	7	BANKER	84	n/a	n/a	0	0	0
1314852	WORD	wordpools/wasnorm_wordpool_576.txt	LTP117	ltpFR2	8	7	AGENT	10	n/a	n/a	0	0	0
1317494	WORD	wordpools/wasnorm_wordpool_576.txt	LTP117	ltpFR2	8	7	FOOT	590	n/a	n/a	0	0	0
1320005	WORD	wordpools/wasnorm_wordpool_576.txt	LTP117	ltpFR2	8	7	TROMBONE	1508	n/a	n/a	0	0	0
1322799	WORD	wordpools/wasnorm_wordpool_576.txt	LTP117	ltpFR2	8	7	CREVICE	405	n/a	n/a	0	0	0
1325592	WORD	wordpools/wasnorm_wordpool_576.txt	LTP117	ltpFR2	8	7	LEADER	807	n/a	n/a	0	0	0
1328303	WORD	wordpools/wasnorm_wordpool_576.txt	LTP117	ltpFR2	8	7	ROCKET	1202	n/a	n/a	0	0	0
1330963	WORD	wordpools/wasnorm_wordpool_576.txt	LTP117	ltpFR2	8	7	CURTAIN	427	n/a	n/a	0	0	0
1333455	WORD	wordpools/wasnorm_wordpool_576.txt	LTP117	ltpFR2	8	7	TUBA	1515	n/a	n/a	0	0	0
1336249	WORD	wordpools/wasnorm_wordpool_576.txt	LTP117	ltpFR2	8	7	CHURCH	307	n/a	n/a	0	0	0
1338709	WORD	wordpools/wasnorm_wordpool_576.txt	LTP117	ltpFR2	8	7	NEUTRON	947	n/a	n/a	0	0	0
1341149	WORD	wordpools/wasnorm_wordpool_576.txt	LTP117	ltpFR2	8	7	MARINE	869	n/a	n/a	0	0	0
1343962	WORD	wordpools/wasnorm_wordpool_576.txt	LTP117	ltpFR2	8	7	TORTOISE	1486	n/a	n/a	0	0	0
1346722	WORD	wordpools/wasnorm_wordpool_576.txt	LTP117	ltpFR2	8	7	LACE	792	n/a	n/a	0	0	0
1349332	WORD	wordpools/wasnorm_wordpool_576.txt	LTP117	ltpFR2	8	7	DRESS	495	n/a	n/a	0	0	0
1351841	WORD	wordpools/wasnorm_wordpool_576.txt	LTP117	ltpFR2	8	7	KIDNEY	776	n/a	n/a	0	0	0
1353448	START	n/a	LTP117	ltpFR2	8	n/a	n/a	n/a	13	n/a	n/a	n/a	n/a
1354398	DISTRACTOR	n/a	LTP117	ltpFR2	8	7	n/a	n/a	n/a	n/a	0	0	0
1354415	PROB	n/a	LTP117	ltpFR2	8	n/a	n/a	n/a	13	20	9	8	3
1356138	PROB	n/a	LTP117	ltpFR2	8	n/a	n/a	n/a	13	13	2	5	6
1357226	PROB	n/a	LTP117	ltpFR2	8	n/a	n/a	n/a	13	17	7	7	3
1358096	PROB	n/a	LTP117	ltpFR2	8	n/a	n/a	n/a	13	20	6	5	9
1358968	PROB	n/a	LTP117	ltpFR2	8	n/a	n/a	n/a	13	20	5	6	9
1360106	PROB	n/a	LTP117	ltpFR2	8	n/a	n/a	n/a	13	17	6	5	6
1361126	PROB	n/a	LTP117	ltpFR2	8	n/a	n/a	n/a	13	10	2	1	7
1362047	PROB	n/a	LTP117	ltpFR2	8	n/a	n/a	n/a	13	16	7	4	5
1363184	PROB	n/a	LTP117	ltpFR2	8	n/a	n/a	n/a	13	14	4	9	1
1363987	PROB	n/a	LTP117	ltpFR2	8	n/a	n/a	n/a	13	14	7	1	6
1365275	PROB	n/a	LTP117	ltpFR2	8	n/a	n/a	n/a	13	14	8	1	5
1366195	PROB	n/a	LTP117	ltpFR2	8	n/a	n/a	n/a	13	8	4	3	1
1367132	PROB	n/a	LTP117	ltpFR2	8	n/a	n/a	n/a	13	17	5	4	8
1368301	PROB	n/a	LTP117	ltpFR2	8	n/a	n/a	n/a	13	17	7	5	5
1370060	PROB	n/a	LTP117	ltpFR2	8	n/a	n/a	n/a	13	14	3	5	6
1371128	PROB	n/a	LTP117	ltpFR2	8	n/a	n/a	n/a	13	17	6	3	8
1372118	PROB	n/a	LTP117	ltpFR2	8	n/a	n/a	n/a	13	18	9	4	5
1372988	PROB	n/a	LTP117	ltpFR2	8	n/a	n/a	n/a	13	20	8	5	7
1374273	PROB	n/a	LTP117	ltpFR2	8	n/a	n/a	n/a	13	8	2	5	1
1375127	PROB	n/a	LTP117	ltpFR2	8	n/a	n/a	n/a	13	10	2	1	7
1376800	STOP	n/a	LTP117	ltpFR2	8	n/a	n/a	n/a	13	n/a	n/a	n/a	n/a
1379245	REC_START	n/a	LTP117	ltpFR2	8	7	n/a	n/a	n/a	n/a	0	0	0
1379930	REC_WORD	wordpools/wasnorm_wordpool_576.txt	LTP117	ltpFR2	8	7	NEUTRON	947	n/a	n/a	0	0	0
1380756	REC_WORD	wordpools/wasnorm_wordpool_576.txt	LTP117	ltpFR2	8	7	MARINE	869	n/a	n/a	0	0	0
1381946	REC_WORD	wordpools/wasnorm_wordpool_576.txt	LTP117	ltpFR2	8	7	TORTOISE	1486	n/a	n/a	0	0	0
1382910	REC_WORD	wordpools/wasnorm_wordpool_576.txt	LTP117	ltpFR2	8	7	LACE	792	n/a	n/a	0	0	0
1383854	REC_WORD	wordpools/wasnorm_wordpool_576.txt	LTP117	ltpFR2	8	7	DRESS	495	n/a	n/a	0	0	0
1385186	REC_WORD	wordpools/wasnorm_wordpool_576.txt	LTP117	ltpFR2	8	7	LEADER	807	n/a	n/a	0	0	0
1386193	REC_WORD	wordpools/wasnorm_wordpool_576.txt	LTP117	ltpFR2	8	7	MISSILE	900	n/a	n/a	0	0	0
1388377	REC_WORD	wordpools/wasnorm_wordpool_576.txt	LTP117	ltpFR2	8	7	CURTAIN	427	n/a	n/a	0	0	0
1396202	REC_WORD	wordpools/wasnorm_wordpool_576.txt	LTP117	ltpFR2	8	7	KIDNEY	776	n/a	n/a	0	0	0
1437487	REC_WORD	wordpools/wasnorm_wordpool_576.txt	LTP117	ltpFR2	8	7	CHEST	295	n/a	n/a	0	0	0
1438072	REC_WORD	wordpools/wasnorm_wordpool_576.txt	LTP117	ltpFR2	8	7	ROBIN	1199	n/a	n/a	0	0	0
1439613	REC_WORD	wordpools/wasnorm_wordpool_576.txt	LTP117	ltpFR2	8	7	FOOT	590	n/a	n/a	0	0	0
1440256	REC_WORD	wordpools/wasnorm_wordpool_576.txt	LTP117	ltpFR2	8	7	ANKLE	24	n/a	n/a	0	0	0
1442494	REC_WORD	wordpools/wasnorm_wordpool_576.txt	LTP117	ltpFR2	8	7	FOX	598	n/a	n/a	0	0	0
1447824	REC_WORD	wordpools/wasnorm_wordpool_576.txt	LTP117	ltpFR2	8	7	BANKER	84	n/a	n/a	0	0	0
1448436	REC_WORD	wordpools/wasnorm_wordpool_576.txt	LTP117	ltpFR2	8	7	AGENT	10	n/a	n/a	0	0	0
1450178	REC_WORD	wordpools/wasnorm_wordpool_576.txt	LTP117	ltpFR2	8	7	CREVICE	405	n/a	n/a	0	0	0
1470288	DISTRACTOR	n/a	LTP117	ltpFR2	8	8	n/a	n/a	n/a	n/a	0	0	0
1470288	START	n/a	LTP117	ltpFR2	8	n/a	n/a	n/a	14	n/a	n/a	n/a	n/a
1470338	PROB	n/a	LTP117	ltpFR2	8	n/a	n/a	n/a	14	12	3	2	7
1471891	PROB	n/a	LTP117	ltpFR2	8	n/a	n/a	n/a	14	15	1	7	7
1472945	PROB	n/a	LTP117	ltpFR2	8	n/a	n/a	n/a	14	16	4	6	6
1473782	PROB	n/a	LTP117	ltpFR2	8	n/a	n/a	n/a	14	16	9	1	6
1474535	PROB	n/a	LTP117	ltpFR2	8	n/a	n/a	n/a	14	20	6	7	6
1475489	PROB	n/a	LTP117	ltpFR2	8	n/a	n/a	n/a	14	10	1	1	8
1476260	PROB	n/a	LTP117	ltpFR2	8	n/a	n/a	n/a	14	11	2	4	5
1477063	PROB	n/a	LTP117	ltpFR2	8	n/a	n/a	n/a	14	16	5	4	7
1478134	PROB	n/a	LTP117	ltpFR2	8	n/a	n/a	n/a	14	16	7	3	6
1479001	PROB	n/a	LTP117	ltpFR2	8	n/a	n/a	n/a	14	23	7	9	7
1480122	PROB	n/a	LTP117	ltpFR2	8	n/a	n/a	n/a	14	15	5	5	5
1481145	PROB	n/a	LTP117	ltpFR2	8	n/a	n/a	n/a	14	13	4	5	4
1483351	PROB	n/a	LTP117	ltpFR2	8	n/a	n/a	n/a	14	10	7	2	1
1484207	PROB	n/a	LTP117	ltpFR2	8	n/a	n/a	n/a	14	14	6	2	6
1485325	PROB	n/a	LTP117	ltpFR2	8	n/a	n/a	n/a	14	12	3	1	8
1486262	PROB	n/a	LTP117	ltpFR2	8	n/a	n/a	n/a	14	11	3	4	4
1487770	PROB	n/a	LTP117	ltpFR2	8	n/a	n/a	n/a	14	16	1	9	6
1488540	PROB	n/a	LTP117	ltpFR2	8	n/a	n/a	n/a	14	8	4	3	1
1489527	PROB	n/a	LTP117	ltpFR2	8	n/a	n/a	n/a	14	20	7	4	8
1491100	PROB	n/a	LTP117	ltpFR2	8	n/a	n/a	n/a	14	19	7	4	8
1493150	STOP	n/a	LTP117	ltpFR2	8	n/a	n/a	n/a	14	n/a	n/a	n/a	n/a
1495349	WORD	wordpools/wasnorm_wordpool_576.txt	LTP117	ltpFR2	8	8	SUPPER	1411	n/a	n/a	0	0	0
1497822	WORD	wordpools/wasnorm_wordpool_576.txt	LTP117	ltpFR2	8	8	SWORD	1423	n/a	n/a	0	0	0
1500619	WORD	wordpools/wasnorm_wordpool_576.txt	LTP117	ltpFR2	8	8	ITEM	746	n/a	n/a	0	0	0
1503429	WORD	wordpools/wasnorm_wordpool_576.txt	LTP117	ltpFR2	8	8	GANGSTER	620	n/a	n/a	0	0	0
1506137	WORD	wordpools/wasnorm_wordpool_576.txt	LTP117	ltpFR2	8	8	PISTOL	1075	n/a	n/a	0	0	0
1508917	WORD	wordpools/wasnorm_wordpool_576.txt	LTP117	ltpFR2	8	8	SERVER	1272	n/a	n/a	0	0	0
1511627	WORD	wordpools/wasnorm_wordpool_576.txt	LTP117	ltpFR2	8	8	SANDWICH	1232	n/a	n/a	0	0	0
1514136	WORD	wordpools/wasnorm_wordpool_576.txt	LTP117	ltpFR2	8	8	SUITCASE	1403	n/a	n/a	0	0	0
1516880	WORD	wordpools/wasnorm_wordpool_576.txt	LTP117	ltpFR2	8	8	WAITER	1580	n/a	n/a	0	0	0
1519590	WORD	wordpools/wasnorm_wordpool_576.txt	LTP117	ltpFR2	8	8	PUPIL	1143	n/a	n/a	0	0	0
1522300	WORD	wordpools/wasnorm_wordpool_576.txt	LTP117	ltpFR2	8	8	STUDENT	1395	n/a	n/a	0	0	0
1524944	WORD	wordpools/wasnorm_wordpool_576.txt	LTP117	ltpFR2	8	8	BLENDER	136	n/a	n/a	0	0	0
1527637	WORD	wordpools/wasnorm_wordpool_576.txt	LTP117	ltpFR2	8	8	VALLEY	1545	n/a	n/a	0	0	0
1530063	WORD	wordpools/wasnorm_wordpool_576.txt	LTP117	ltpFR2	8	8	GARDEN	623	n/a	n/a	0	0	0
1532807	WORD	wordpools/wasnorm_wordpool_576.txt	LTP117	ltpFR2	8	8	CLOCK	325	n/a	n/a	0	0	0
1535467	WORD	wordpools/wasnorm_wordpool_576.txt	LTP117	ltpFR2	8	8	LOVER	846	n/a	n/a	0	0	0
1538177	WORD	wordpools/wasnorm_wordpool_576.txt	LTP117	ltpFR2	8	8	BIKE	125	n/a	n/a	0	0	0
1540653	WORD	wordpools/wasnorm_wordpool_576.txt	LTP117	ltpFR2	8	8	RIVER	1194	n/a	n/a	0	0	0
1543464	WORD	wordpools/wasnorm_wordpool_576.txt	LTP117	ltpFR2	8	8	TROUT	1511	n/a	n/a	0	0	0
1546107	WORD	wordpools/wasnorm_wordpool_576.txt	LTP117	ltpFR2	8	8	MEDAL	885	n/a	n/a	0	0	0
1548867	WORD	wordpools/wasnorm_wordpool_576.txt	LTP117	ltpFR2	8	8	WAITRESS	1581	n/a	n/a	0	0	0
1551360	WORD	wordpools/wasnorm_wordpool_576.txt	LTP117	ltpFR2	8	8	AIRPORT	13	n/a	n/a	0	0	0
1554034	WORD	wordpools/wasnorm_wordpool_576.txt	LTP117	ltpFR2	8	8	BEEF	113	n/a	n/a	0	0	0
1556580	WORD	wordpools/wasnorm_wordpool_576.txt	LTP117	ltpFR2	8	8	PASTRY	1022	n/a	n/a	0	0	0
1558186	START	n/a	LTP117	ltpFR2	8	n/a	n/a	n/a	15	n/a	n/a	n/a	n/a
1558989	DISTRACTOR	n/a	LTP117	ltpFR2	8	8	n/a	n/a	n/a	n/a	0	0	0
1559005	PROB	n/a	LTP117	ltpFR2	8	n/a	n/a	n/a	15	15	2	5	8
1559890	PROB	n/a	LTP117	ltpFR2	8	n/a	n/a	n/a	15	15	9	3	3
1561613	PROB	n/a	LTP117	ltpFR2	8	n/a	n/a	n/a	15	13	5	4	4
1563470	PROB	n/a	LTP117	ltpFR2	8	n/a	n/a	n/a	15	12	2	4	6
1564641	PROB	n/a	LTP117	ltpFR2	8	n/a	n/a	n/a	15	19	9	3	7
1565795	PROB	n/a	LTP117	ltpFR2	8	n/a	n/a	n/a	15	14	1	4	9
1566952	PROB	n/a	LTP117	ltpFR2	8	n/a	n/a	n/a	15	19	9	8	2
1568140	PROB	n/a	LTP117	ltpFR2	8	n/a	n/a	n/a	15	15	7	2	6
1569496	PROB	n/a	LTP117	ltpFR2	8	n/a	n/a	n/a	15	23	6	8	9
1570633	PROB	n/a	LTP117	ltpFR2	8	n/a	n/a	n/a	15	19	8	4	7
1572055	PROB	n/a	LTP117	ltpFR2	8	n/a	n/a	n/a	15	20	9	3	8
1573610	PROB	n/a	LTP117	ltpFR2	8	n/a	n/a	n/a	15	18	9	4	5
1574899	PROB	n/a	LTP117	ltpFR2	8	n/a	n/a	n/a	15	10	1	1	8
1575702	PROB	n/a	LTP117	ltpFR2	8	n/a	n/a	n/a	15	8	3	2	3
1576906	PROB	n/a	LTP117	ltpFR2	8	n/a	n/a	n/a	15	21	6	9	6
1578025	PROB	n/a	LTP117	ltpFR2	8	n/a	n/a	n/a	15	9	1	2	6
1579315	PROB	n/a	LTP117	ltpFR2	8	n/a	n/a	n/a	15	20	9	6	5
1580450	PROB	n/a	LTP117	ltpFR2	8	n/a	n/a	n/a	15	11	3	3	5
1581152	STOP	n/a	LTP117	ltpFR2	8	n/a	n/a	n/a	15	n/a	n/a	n/a	n/a
1583967	REC_START	n/a	LTP117	ltpFR2	8	8	n/a	n/a	n/a	n/a	0	0	0
1584548	REC_WORD	wordpools/wasnorm_wordpool_576.txt	LTP117	ltpFR2	8	8	AIRPORT	13	n/a	n/a	0	0	0
1585363	REC_WORD	wordpools/wasnorm_wordpool_576.txt	LTP117	ltpFR2	8	8	BEEF	113	n/a	n/a	0	0	0
1586037	REC_WORD	wordpools/wasnorm_wordpool_576.txt	LTP117	ltpFR2	8	8	PASTRY	1022	n/a	n/a	0	0	0
1586956	REC_WORD	wordpools/wasnorm_wordpool_576.txt	LTP117	ltpFR2	8	8	WAITER	1580	n/a	n/a	0	0	0
1587616	REC_WORD	wordpools/wasnorm_wordpool_576.txt	LTP117	ltpFR2	8	8	WAITRESS	1581	n/a	n/a	0	0	0
1588423	REC_WORD	wordpools/wasnorm_wordpool_576.txt	LTP117	ltpFR2	8	8	SERVER	1272	n/a	n/a	0	0	0
1590874	REC_WORD	wordpools/wasnorm_wordpool_576.txt	LTP117	ltpFR2	8	8	PUPIL	1143	n/a	n/a	0	0	0
1591610	REC_WORD	wordpools/wasnorm_wordpool_576.txt	LTP117	ltpFR2	8	8	STUDENT	1395	n/a	n/a	0	0	0
1592551	REC_WORD	wordpools/wasnorm_wordpool_576.txt	LTP117	ltpFR2	8	8	GANGSTER	620	n/a	n/a	0	0	0
1593192	REC_WORD	wordpools/wasnorm_wordpool_576.txt	LTP117	ltpFR2	8	8	SUITCASE	1403	n/a	n/a	0	0	0
1595566	REC_WORD	wordpools/wasnorm_wordpool_576.txt	LTP117	ltpFR2	8	8	SUPPER	1411	n/a	n/a	0	0	0
1597726	REC_WORD	wordpools/wasnorm_wordpool_576.txt	LTP117	ltpFR2	8	8	SWORD	1423	n/a	n/a	0	0	0
1600323	REC_WORD	wordpools/wasnorm_wordpool_576.txt	LTP117	ltpFR2	8	8	PISTOL	1075	n/a	n/a	0	0	0
1601413	REC_WORD	wordpools/wasnorm_wordpool_576.txt	LTP117	ltpFR2	8	8	ITEM	746	n/a	n/a	0	0	0
1603335	REC_WORD	wordpools/wasnorm_wordpool_576.txt	LTP117	ltpFR2	8	8	LOVER	846	n/a	n/a	0	0	0
1604233	REC_WORD	wordpools/wasnorm_wordpool_576.txt	LTP117	ltpFR2	8	8	BIKE	125	n/a	n/a	0	0	0
1605620	REC_WORD	wordpools/wasnorm_wordpool_576.txt	LTP117	ltpFR2	8	8	RIVER	1194	n/a	n/a	0	0	0
1660756	REST_REWET	n/a	LTP117	ltpFR2	8	8	n/a	n/a	n/a	n/a	0	0	0
2001055	DISTRACTOR	n/a	LTP117	ltpFR2	8	9	n/a	n/a	n/a	n/a	0	0	0
2001055	START	n/a	LTP117	ltpFR2	8	n/a	n/a	n/a	16	n/a	n/a	n/a	n/a
2001105	PROB	n/a	LTP117	ltpFR2	8	n/a	n/a	n/a	16	14	4	6	4
2002023	PROB	n/a	LTP117	ltpFR2	8	n/a	n/a	n/a	16	16	2	7	7
2003445	PROB	n/a	LTP117	ltpFR2	8	n/a	n/a	n/a	16	20	8	7	5
2004298	PROB	n/a	LTP117	ltpFR2	8	n/a	n/a	n/a	16	20	8	7	5
2005170	PROB	n/a	LTP117	ltpFR2	8	n/a	n/a	n/a	16	17	8	4	5
2006425	PROB	n/a	LTP117	ltpFR2	8	n/a	n/a	n/a	16	18	9	8	1
2007497	PROB	n/a	LTP117	ltpFR2	8	n/a	n/a	n/a	16	15	2	6	7
2008765	PROB	n/a	LTP117	ltpFR2	8	n/a	n/a	n/a	16	18	7	3	8
2009953	PROB	n/a	LTP117	ltpFR2	8	n/a	n/a	n/a	16	20	6	6	8
2011274	PROB	n/a	LTP117	ltpFR2	8	n/a	n/a	n/a	16	11	6	1	4
2012245	PROB	n/a	LTP117	ltpFR2	8	n/a	n/a	n/a	16	14	6	2	6
2013332	PROB	n/a	LTP117	ltpFR2	8	n/a	n/a	n/a	16	11	5	3	3
2014587	PROB	n/a	LTP117	ltpFR2	8	n/a	n/a	n/a	16	18	9	6	3
2016495	PROB	n/a	LTP117	ltpFR2	8	n/a	n/a	n/a	16	14	2	9	3
2017515	PROB	n/a	LTP117	ltpFR2	8	n/a	n/a	n/a	16	17	4	5	8
2018537	PROB	n/a	LTP117	ltpFR2	8	n/a	n/a	n/a	16	14	2	9	3
2019723	PROB	n/a	LTP117	ltpFR2	8	n/a	n/a	n/a	16	14	5	2	7
2020963	PROB	n/a	LTP117	ltpFR2	8	n/a	n/a	n/a	16	1	5	8	2
2022134	PROB	n/a	LTP117	ltpFR2	8	n/a	n/a	n/a	16	11	4	2	5
2023088	PROB	n/a	LTP117	ltpFR2	8	n/a	n/a	n/a	16	8	4	2	2
2023872	STOP	n/a	LTP117	ltpFR2	8	n/a	n/a	n/a	16	n/a	n/a	n/a	n/a
2026133	WORD	wordpools/wasnorm_wordpool_576.txt	LTP117	ltpFR2	8	9	COOK	372	n/a	n/a	0	0	0
2028692	WORD	wordpools/wasnorm_wordpool_576.txt	LTP117	ltpFR2	8	9	PISTON	1076	n/a	n/a	0	0	0
2031199	WORD	wordpools/wasnorm_wordpool_576.txt	LTP117	ltpFR2	8	9	RUST	1219	n/a	n/a	0	0	0
2033661	WORD	wordpools/wasnorm_wordpool_576.txt	LTP117	ltpFR2	8	9	SCARECROW	1245	n/a	n/a	0	0	0
2036405	WORD	wordpools/wasnorm_wordpool_576.txt	LTP117	ltpFR2	8	9	KITCHEN	778	n/a	n/a	0	0	0
2039132	WORD	wordpools/wasnorm_wordpool_576.txt	LTP117	ltpFR2	8	9	PILOT	1070	n/a	n/a	0	0	0
2041942	WORD	wordpools/wasnorm_wordpool_576.txt	LTP117	ltpFR2	8	9	CRAB	397	n/a	n/a	0	0	0
2044636	WORD	wordpools/wasnorm_wordpool_576.txt	LTP117	ltpFR2	8	9	MUSTARD	935	n/a	n/a	0	0	0
2047430	WORD	wordpools/wasnorm_wordpool_576.txt	LTP117	ltpFR2	8	9	DRUG	501	n/a	n/a	0	0	0
2050006	WORD	wordpools/wasnorm_wordpool_576.txt	LTP117	ltpFR2	8	9	TABLE	1426	n/a	n/a	0	0	0
2052449	WORD	wordpools/wasnorm_wordpool_576.txt	LTP117	ltpFR2	8	9	SCALLOP	1242	n/a	n/a	0	0	0
2055123	WORD	wordpools/wasnorm_wordpool_576.txt	LTP117	ltpFR2	8	9	DANCER	437	n/a	n/a	0	0	0
2057618	WORD	wordpools/wasnorm_wordpool_576.txt	LTP117	ltpFR2	8	9	SCOTCH	1251	n/a	n/a	0	0	0
2060412	WORD	wordpools/wasnorm_wordpool_576.txt	LTP117	ltpFR2	8	9	CORAL	378	n/a	n/a	0	0	0
2063223	WORD	wordpools/wasnorm_wordpool_576.txt	LTP117	ltpFR2	8	9	STOMACH	1384	n/a	n/a	0	0	0
2066031	WORD	wordpools/wasnorm_wordpool_576.txt	LTP117	ltpFR2	8	9	SPOOL	1356	n/a	n/a	0	0	0
2068844	WORD	wordpools/wasnorm_wordpool_576.txt	LTP117	ltpFR2	8	9	QUARTER	1148	n/a	n/a	0	0	0
2071334	WORD	wordpools/wasnorm_wordpool_576.txt	LTP117	ltpFR2	8	9	RECEIPT	1173	n/a	n/a	0	0	0
2073760	WORD	wordpools/wasnorm_wordpool_576.txt	LTP117	ltpFR2	8	9	BELLY	119	n/a	n/a	0	0	0
2076403	WORD	wordpools/wasnorm_wordpool_576.txt	LTP117	ltpFR2	8	9	PADDING	999	n/a	n/a	0	0	0
2079030	WORD	wordpools/wasnorm_wordpool_576.txt	LTP117	ltpFR2	8	9	PLIERS	1089	n/a	n/a	0	0	0
2081759	WORD	wordpools/wasnorm_wordpool_576.txt	LTP117	ltpFR2	8	9	STAKE	1368	n/a	n/a	0	0	0
2084302	WORD	wordpools/wasnorm_wordpool_576.txt	LTP117	ltpFR2	8	9	RELISH	1183	n/a	n/a	0	0	0
2086895	WORD	wordpools/wasnorm_wordpool_576.txt	LTP117	ltpFR2	8	9	OZONE	996	n/a	n/a	0	0	0
2088502	START	n/a	LTP117	ltpFR2	8	n/a	n/a	n/a	17	n/a	n/a	n/a	n/a
2089311	DISTRACTOR	n/a	LTP117	ltpFR2	8	9	n/a	n/a	n/a	n/a	0	0	0
2089321	PROB	n/a	LTP117	ltpFR2	8	n/a	n/a	n/a	17	17	7	3	7
2090241	PROB	n/a	LTP117	ltpFR2	8	n/a	n/a	n/a	17	21	9	7	5
2091293	PROB	n/a	LTP117	ltpFR2	8	n/a	n/a	n/a	17	23	8	8	7
2093116	PROB	n/a	LTP117	ltpFR2	8	n/a	n/a	n/a	17	17	6	6	5
2094086	PROB	n/a	LTP117	ltpFR2	8	n/a	n/a	n/a	17	11	3	6	2
2095073	PROB	n/a	LTP117	ltpFR2	8	n/a	n/a	n/a	17	18	9	3	6
2096529	PROB	n/a	LTP117	ltpFR2	8	n/a	n/a	n/a	17	12	4	2	6
2097901	PROB	n/a	LTP117	ltpFR2	8	n/a	n/a	n/a	17	13	3	4	6
2099607	PROB	n/a	LTP117	ltpFR2	8	n/a	n/a	n/a	17	16	8	1	7
2100561	PROB	n/a	LTP117	ltpFR2	8	n/a	n/a	n/a	17	15	8	1	6
2101799	PROB	n/a	LTP117	ltpFR2	8	n/a	n/a	n/a	17	15	4	8	3
2103307	PROB	n/a	LTP117	ltpFR2	8	n/a	n/a	n/a	17	10	1	3	6
2104475	PROB	n/a	LTP117	ltpFR2	8	n/a	n/a	n/a	17	13	7	2	4
2105415	PROB	n/a	LTP117	ltpFR2	8	n/a	n/a	n/a	17	12	3	5	4
2106385	PROB	n/a	LTP117	ltpFR2	8	n/a	n/a	n/a	17	17	3	8	6
2107507	PROB	n/a	LTP117	ltpFR2	8	n/a	n/a	n/a	17	13	9	2	2
2108409	PROB	n/a	LTP117	ltpFR2	8	n/a	n/a	n/a	17	11	8	2	1
2109363	PROB	n/a	LTP117	ltpFR2	8	n/a	n/a	n/a	17	15	8	2	5
2110465	PROB	n/a	LTP117	ltpFR2	8	n/a	n/a	n/a	17	1	2	2	8
2111704	STOP	n/a	LTP117	ltpFR2	8	n/a	n/a	n/a	17	n/a	n/a	n/a	n/a
2114450	REC_START	n/a	LTP117	ltpFR2	8	9	n/a	n/a	n/a	n/a	0	0	0
2115634	REC_WORD	wordpools/wasnorm_wordpool_576.txt	LTP117	ltpFR2	8	9	PLIERS	1089	n/a	n/a	0	0	0
2116475	REC_WORD	wordpools/wasnorm_wordpool_576.txt	LTP117	ltpFR2	8	9	STAKE	1368	n/a	n/a	0	0	0
2117446	REC_WORD	wordpools/wasnorm_wordpool_576.txt	LTP117	ltpFR2	8	9	RELISH	1183	n/a	n/a	0	0	0
2119219	REC_WORD	wordpools/wasnorm_wordpool_576.txt	LTP117	ltpFR2	8	9	QUARTER	1148	n/a	n/a	0	0	0
2119976	REC_WORD	wordpools/wasnorm_wordpool_576.txt	LTP117	ltpFR2	8	9	RECEIPT	1173	n/a	n/a	0	0	0
2126658	REC_WORD	wordpools/wasnorm_wordpool_576.txt	LTP117	ltpFR2	8	9	BELLY	119	n/a	n/a	0	0	0
2127260	REC_WORD	wordpools/wasnorm_wordpool_576.txt	LTP117	ltpFR2	8	9	STOMACH	1384	n/a	n/a	0	0	0
2128143	REC_WORD	wordpools/wasnorm_wordpool_576.txt	LTP117	ltpFR2	8	9	PADDING	999	n/a	n/a	0	0	0
2130064	REC_WORD	wordpools/wasnorm_wordpool_576.txt	LTP117	ltpFR2	8	9	COOK	372	n/a	n/a	0	0	0
2130761	REC_WORD	wordpools/wasnorm_wordpool_576.txt	LTP117	ltpFR2	8	9	KITCHEN	778	n/a	n/a	0	0	0
2131983	REC_WORD	wordpools/wasnorm_wordpool_576.txt	LTP117	ltpFR2	8	9	SCARECROW	1245	n/a	n/a	0	0	0
2133706	REC_WORD	wordpools/wasnorm_wordpool_576.txt	LTP117	ltpFR2	8	9	PISTON	1076	n/a	n/a	0	0	0
2134536	REC_WORD	wordpools/wasnorm_wordpool_576.txt	LTP117	ltpFR2	8	9	RUST	1219	n/a	n/a	0	0	0
2139393	REC_WORD	wordpools/wasnorm_wordpool_576.txt	LTP117	ltpFR2	8	9	CRAB	397	n/a	n/a	0	0	0
2140050	REC_WORD	wordpools/wasnorm_wordpool_576.txt	LTP117	ltpFR2	8	9	SCALLOP	1242	n/a	n/a	0	0	0
2140972	REC_WORD	wordpools/wasnorm_wordpool_576.txt	LTP117	ltpFR2	8	9	MUSTARD	935	n/a	n/a	0	0	0
2142905	REC_WORD	wordpools/wasnorm_wordpool_576.txt	LTP117	ltpFR2	8	9	TABLE	1426	n/a	n/a	0	0	0
2143811	REC_WORD	wordpools/wasnorm_wordpool_576.txt	LTP117	ltpFR2	8	9	DRUG	501	n/a	n/a	0	0	0
2149668	REC_WORD	wordpools/wasnorm_wordpool_576.txt	LTP117	ltpFR2	8	9	DANCER	437	n/a	n/a	0	0	0
2205475	WORD	wordpools/wasnorm_wordpool_576.txt	LTP117	ltpFR2	8	10	ISLAND	745	n/a	n/a	0	0	0
2208269	WORD	wordpools/wasnorm_wordpool_576.txt	LTP117	ltpFR2	8	10	COMPASS	358	n/a	n/a	0	0	0
2210745	WORD	wordpools/wasnorm_wordpool_576.txt	LTP117	ltpFR2	8	10	HOOK	715	n/a	n/a	0	0	0
2213539	WORD	wordpools/wasnorm_wordpool_576.txt	LTP117	ltpFR2	8	10	LETTUCE	814	n/a	n/a	0	0	0
2216316	WORD	wordpools/wasnorm_wordpool_576.txt	LTP117	ltpFR2	8	10	RADISH	1158	n/a	n/a	0	0	0
2219043	WORD	wordpools/wasnorm_wordpool_576.txt	LTP117	ltpFR2	8	10	HOOD	714	n/a	n/a	0	0	0
2221519	WORD	wordpools/wasnorm_wordpool_576.txt	LTP117	ltpFR2	8	10	MOTOR	922	n/a	n/a	0	0	0
2224296	WORD	wordpools/wasnorm_wordpool_576.txt	LTP117	ltpFR2	8	10	BANQUET	86	n/a	n/a	0	0	0
2226890	WORD	wordpools/wasnorm_wordpool_576.txt	LTP117	ltpFR2	8	10	PALACE	1006	n/a	n/a	0	0	0
2229616	WORD	wordpools/wasnorm_wordpool_576.txt	LTP117	ltpFR2	8	10	COD	340	n/a	n/a	0	0	0
2232243	WORD	wordpools/wasnorm_wordpool_576.txt	LTP117	ltpFR2	8	10	LION	827	n/a	n/a	0	0	0
2234903	WORD	wordpools/wasnorm_wordpool_576.txt	LTP117	ltpFR2	8	10	SHARK	1275	n/a	n/a	0	0	0
2237613	WORD	wordpools/wasnorm_wordpool_576.txt	LTP117	ltpFR2	8	10	PAIL	1002	n/a	n/a	0	0	0
2240056	WORD	wordpools/wasnorm_wordpool_576.txt	LTP117	ltpFR2	8	10	CUPBOARD	425	n/a	n/a	0	0	0
2242783	WORD	wordpools/wasnorm_wordpool_576.txt	LTP117	ltpFR2	8	10	MAILBOX	857	n/a	n/a	0	0	0
2245443	WORD	wordpools/wasnorm_wordpool_576.txt	LTP117	ltpFR2	8	10	SCRIBBLE	1256	n/a	n/a	0	0	0
2248237	WORD	wordpools/wasnorm_wordpool_576.txt	LTP117	ltpFR2	8	10	FREEZER	604	n/a	n/a	0	0	0
2250696	WORD	wordpools/wasnorm_wordpool_576.txt	LTP117	ltpFR2	8	10	HONEY	713	n/a	n/a	0	0	0
2253439	WORD	wordpools/wasnorm_wordpool_576.txt	LTP117	ltpFR2	8	10	VENUS	1557	n/a	n/a	0	0	0
2256013	WORD	wordpools/wasnorm_wordpool_576.txt	LTP117	ltpFR2	8	10	CABBAGE	210	n/a	n/a	0	0	0
2258709	WORD	wordpools/wasnorm_wordpool_576.txt	LTP117	ltpFR2	8	10	CHIPMUNK	304	n/a	n/a	0	0	0
2261283	WORD	wordpools/wasnorm_wordpool_576.txt	LTP117	ltpFR2	8	10	SHOVEL	1295	n/a	n/a	0	0	0
2263845	WORD	wordpools/wasnorm_wordpool_576.txt	LTP117	ltpFR2	8	10	COUSIN	392	n/a	n/a	0	0	0
2266656	WORD	wordpools/wasnorm_wordpool_576.txt	LTP117	ltpFR2	8	10	THRONE	1461	n/a	n/a	0	0	0
2268262	START	n/a	LTP117	ltpFR2	8	n/a	n/a	n/a	18	n/a	n/a	n/a	n/a
2269084	DISTRACTOR	n/a	LTP117	ltpFR2	8	10	n/a	n/a	n/a	n/a	0	0	0
2269098	PROB	n/a	LTP117	ltpFR2	8	n/a	n/a	n/a	18	16	6	2	8
2270035	PROB	n/a	LTP117	ltpFR2	8	n/a	n/a	n/a	18	11	7	2	2
2270869	PROB	n/a	LTP117	ltpFR2	8	n/a	n/a	n/a	18	17	8	5	4
2272810	PROB	n/a	LTP117	ltpFR2	8	n/a	n/a	n/a	18	17	9	7	1
2273666	PROB	n/a	LTP117	ltpFR2	8	n/a	n/a	n/a	18	19	9	6	4
2274602	PROB	n/a	LTP117	ltpFR2	8	n/a	n/a	n/a	18	13	3	3	7
2275422	PROB	n/a	LTP117	ltpFR2	8	n/a	n/a	n/a	18	18	2	8	8
2276259	PROB	n/a	LTP117	ltpFR2	8	n/a	n/a	n/a	18	17	6	6	5
2277129	PROB	n/a	LTP117	ltpFR2	8	n/a	n/a	n/a	18	21	3	9	9
2278283	PROB	n/a	LTP117	ltpFR2	8	n/a	n/a	n/a	18	6	3	1	2
2279100	PROB	n/a	LTP117	ltpFR2	8	n/a	n/a	n/a	18	15	5	4	6
2280004	PROB	n/a	LTP117	ltpFR2	8	n/a	n/a	n/a	18	11	3	1	7
2281007	PROB	n/a	LTP117	ltpFR2	8	n/a	n/a	n/a	18	9	1	6	2
2281894	PROB	n/a	LTP117	ltpFR2	8	n/a	n/a	n/a	18	15	5	9	1
2282931	PROB	n/a	LTP117	ltpFR2	8	n/a	n/a	n/a	18	17	3	8	5
2284005	PROB	n/a	LTP117	ltpFR2	8	n/a	n/a	n/a	18	17	9	5	3
2285159	PROB	n/a	LTP117	ltpFR2	8	n/a	n/a	n/a	18	21	6	7	8
2286177	PROB	n/a	LTP117	ltpFR2	8	n/a	n/a	n/a	18	12	2	8	2
2287080	PROB	n/a	LTP117	ltpFR2	8	n/a	n/a	n/a	18	15	2	8	5
2288338	PROB	n/a	LTP117	ltpFR2	8	n/a	n/a	n/a	18	12	3	6	3
2289375	PROB	n/a	LTP117	ltpFR2	8	n/a	n/a	n/a	18	9	4	1	4
2290245	PROB	n/a	LTP117	ltpFR2	8	n/a	n/a	n/a	18	10	5	3	2
2291064	STOP	n/a	LTP117	ltpFR2	8	n/a	n/a	n/a	18	n/a	n/a	n/a	n/a
2294210	REC_START	n/a	LTP117	ltpFR2	8	10	n/a	n/a	n/a	n/a	0	0	0
2294845	REC_WORD	wordpools/wasnorm_wordpool_576.txt	LTP117	ltpFR2	8	10	VENUS	1557	n/a	n/a	0	0	0
2295674	REC_WORD	wordpools/wasnorm_wordpool_576.txt	LTP117	ltpFR2	8	10	CHIPMUNK	304	n/a	n/a	0	0	0
2296449	REC_WORD	wordpools/wasnorm_wordpool_576.txt	LTP117	ltpFR2	8	10	SCRIBBLE	1256	n/a	n/a	0	0	0
2297261	REC_WORD	wordpools/wasnorm_wordpool_576.txt	LTP117	ltpFR2	8	10	THRONE	1461	n/a	n/a	0	0	0
2299516	REC_WORD	wordpools/wasnorm_wordpool_576.txt	LTP117	ltpFR2	8	10	PALACE	1006	n/a	n/a	0	0	0
2300342	REC_WORD	wordpools/wasnorm_wordpool_576.txt	LTP117	ltpFR2	8	10	BANQUET	86	n/a	n/a	0	0	0
2301136	REC_WORD	wordpools/wasnorm_wordpool_576.txt	LTP117	ltpFR2	8	10	CUPBOARD	425	n/a	n/a	0	0	0
2302295	REC_WORD	wordpools/wasnorm_wordpool_576.txt	LTP117	ltpFR2	8	10	MAILBOX	857	n/a	n/a	0	0	0
2306838	REC_WORD	wordpools/wasnorm_wordpool_576.txt	LTP117	ltpFR2	8	10	LETTUCE	814	n/a	n/a	0	0	0
2307630	REC_WORD	wordpools/wasnorm_wordpool_576.txt	LTP117	ltpFR2	8	10	CABBAGE	210	n/a	n/a	0	0	0
2308397	REC_WORD	wordpools/wasnorm_wordpool_576.txt	LTP117	ltpFR2	8	10	TURNIP	1521	n/a	n/a	0	0	0
2309082	REC_WORD	wordpools/wasnorm_wordpool_576.txt	LTP117	ltpFR2	8	10	LION	827	n/a	n/a	0	0	0
2309775	REC_WORD	wordpools/wasnorm_wordpool_576.txt	LTP117	ltpFR2	8	10	SHARK	1275	n/a	n/a	0	0	0
2311351	REC_WORD	wordpools/wasnorm_wordpool_576.txt	LTP117	ltpFR2	8	10	COD	340	n/a	n/a	0	0	0
2312702	REC_WORD	wordpools/wasnorm_wordpool_576.txt	LTP117	ltpFR2	8	10	FREEZER	604	n/a	n/a	0	0	0
2315409	REC_WORD	wordpools/wasnorm_wordpool_576.txt	LTP117	ltpFR2	8	10	ISLAND	745	n/a	n/a	0	0	0
2316140	REC_WORD	wordpools/wasnorm_wordpool_576.txt	LTP117	ltpFR2	8	10	HOOD	714	n/a	n/a	0	0	0
2316924	REC_WORD	wordpools/wasnorm_wordpool_576.txt	LTP117	ltpFR2	8	10	HOOK	715	n/a	n/a	0	0	0
2317955	REC_WORD	wordpools/wasnorm_wordpool_576.txt	LTP117	ltpFR2	8	10	COMPASS	358	n/a	n/a	0	0	0
2320927	REC_WORD	wordpools/wasnorm_wordpool_576.txt	LTP117	ltpFR2	8	10	MOTOR	922	n/a	n/a	0	0	0
2327117	REC_WORD	wordpools/wasnorm_wordpool_576.txt	LTP117	ltpFR2	8	10	VENUS	1557	n/a	n/a	0	0	0
2349691	REC_WORD	wordpools/wasnorm_wordpool_576.txt	LTP117	ltpFR2	8	10	ISLAND	745	n/a	n/a	0	0	0
2398804	WORD	wordpools/wasnorm_wordpool_576.txt	LTP117	ltpFR2	8	11	CLOTHES	327	n/a	n/a	0	0	0
2401364	WORD	wordpools/wasnorm_wordpool_576.txt	LTP117	ltpFR2	8	11	HERO	706	n/a	n/a	0	0	0
2404071	WORD	wordpools/wasnorm_wordpool_576.txt	LTP117	ltpFR2	8	11	RIFLE	1192	n/a	n/a	0	0	0
2406617	WORD	wordpools/wasnorm_wordpool_576.txt	LTP117	ltpFR2	8	11	HORNET	718	n/a	n/a	0	0	0
2409176	WORD	wordpools/wasnorm_wordpool_576.txt	LTP117	ltpFR2	8	11	JELLO	754	n/a	n/a	0	0	0
2411934	WORD	wordpools/wasnorm_wordpool_576.txt	LTP117	ltpFR2	8	11	CITRUS	313	n/a	n/a	0	0	0
2414530	WORD	wordpools/wasnorm_wordpool_576.txt	LTP117	ltpFR2	8	11	LUMBER	848	n/a	n/a	0	0	0
2417003	WORD	wordpools/wasnorm_wordpool_576.txt	LTP117	ltpFR2	8	11	PARENT	1013	n/a	n/a	0	0	0
2419649	WORD	wordpools/wasnorm_wordpool_576.txt	LTP117	ltpFR2	8	11	DAUGHTER	442	n/a	n/a	0	0	0
2422276	WORD	wordpools/wasnorm_wordpool_576.txt	LTP117	ltpFR2	8	11	CASKET	255	n/a	n/a	0	0	0
2424752	WORD	wordpools/wasnorm_wordpool_576.txt	LTP117	ltpFR2	8	11	GOBLIN	645	n/a	n/a	0	0	0
2427426	WORD	wordpools/wasnorm_wordpool_576.txt	LTP117	ltpFR2	8	11	CELLAR	267	n/a	n/a	0	0	0
2430172	WORD	wordpools/wasnorm_wordpool_576.txt	LTP117	ltpFR2	8	11	STOVE	1388	n/a	n/a	0	0	0
2432612	WORD	wordpools/wasnorm_wordpool_576.txt	LTP117	ltpFR2	8	11	PLATE	1086	n/a	n/a	0	0	0
2435158	WORD	wordpools/wasnorm_wordpool_576.txt	LTP117	ltpFR2	8	11	WIDOW	1608	n/a	n/a	0	0	0
2437966	WORD	wordpools/wasnorm_wordpool_576.txt	LTP117	ltpFR2	8	11	COOKBOOK	373	n/a	n/a	0	0	0
2440561	WORD	wordpools/wasnorm_wordpool_576.txt	LTP117	ltpFR2	8	11	POLICE	1098	n/a	n/a	0	0	0
2443071	WORD	wordpools/wasnorm_wordpool_576.txt	LTP117	ltpFR2	8	11	SNAKE	1333	n/a	n/a	0	0	0
2445547	WORD	wordpools/wasnorm_wordpool_576.txt	LTP117	ltpFR2	8	11	PARROT	1015	n/a	n/a	0	0	0
2448090	WORD	wordpools/wasnorm_wordpool_576.txt	LTP117	ltpFR2	8	11	NIGHTGOWN	953	n/a	n/a	0	0	0
2450700	WORD	wordpools/wasnorm_wordpool_576.txt	LTP117	ltpFR2	8	11	MATTRESS	879	n/a	n/a	0	0	0
2453259	WORD	wordpools/wasnorm_wordpool_576.txt	LTP117	ltpFR2	8	11	SNACK	1331	n/a	n/a	0	0	0
2455869	WORD	wordpools/wasnorm_wordpool_576.txt	LTP117	ltpFR2	8	11	HAMPER	682	n/a	n/a	0	0	0
2458378	WORD	wordpools/wasnorm_wordpool_576.txt	LTP117	ltpFR2	8	11	LUNCH	849	n/a	n/a	0	0	0
2459985	START	n/a	LTP117	ltpFR2	8	n/a	n/a	n/a	19	n/a	n/a	n/a	n/a
2460855	DISTRACTOR	n/a	LTP117	ltpFR2	8	11	n/a	n/a	n/a	n/a	0	0	0
2460871	PROB	n/a	LTP117	ltpFR2	8	n/a	n/a	n/a	19	16	9	3	4
2461923	PROB	n/a	LTP117	ltpFR2	8	n/a	n/a	n/a	19	14	3	7	4
2462759	PROB	n/a	LTP117	ltpFR2	8	n/a	n/a	n/a	19	19	6	8	5
2463930	PROB	n/a	LTP117	ltpFR2	8	n/a	n/a	n/a	19	9	1	5	3
2465085	PROB	n/a	LTP117	ltpFR2	8	n/a	n/a	n/a	19	13	8	2	3
2466540	PROB	n/a	LTP117	ltpFR2	8	n/a	n/a	n/a	19	19	4	9	6
2467814	PROB	n/a	LTP117	ltpFR2	8	n/a	n/a	n/a	19	10	2	5	3
2468901	PROB	n/a	LTP117	ltpFR2	8	n/a	n/a	n/a	19	18	5	4	9
2469939	PROB	n/a	LTP117	ltpFR2	8	n/a	n/a	n/a	19	17	3	9	7
2470890	PROB	n/a	LTP117	ltpFR2	8	n/a	n/a	n/a	19	14	4	5	5
2471812	PROB	n/a	LTP117	ltpFR2	8	n/a	n/a	n/a	19	18	9	3	6
2472883	PROB	n/a	LTP117	ltpFR2	8	n/a	n/a	n/a	19	12	1	7	4
2473954	PROB	n/a	LTP117	ltpFR2	8	n/a	n/a	n/a	19	13	6	1	6
2474807	PROB	n/a	LTP117	ltpFR2	8	n/a	n/a	n/a	19	13	1	7	5
2475708	PROB	n/a	LTP117	ltpFR2	8	n/a	n/a	n/a	19	12	5	2	5
2476515	PROB	n/a	LTP117	ltpFR2	8	n/a	n/a	n/a	19	14	6	1	8
2477317	PROB	n/a	LTP117	ltpFR2	8	n/a	n/a	n/a	19	18	2	8	8
2478586	PROB	n/a	LTP117	ltpFR2	8	n/a	n/a	n/a	19	12	8	1	3
2479408	PROB	n/a	LTP117	ltpFR2	8	n/a	n/a	n/a	19	16	5	8	3
2481181	PROB	n/a	LTP117	ltpFR2	8	n/a	n/a	n/a	19	13	7	4	2
2482417	PROB	n/a	LTP117	ltpFR2	8	n/a	n/a	n/a	19	17	1	9	7
2483144	STOP	n/a	LTP117	ltpFR2	8	n/a	n/a	n/a	19	n/a	n/a	n/a	n/a
2485766	REC_START	n/a	LTP117	ltpFR2	8	11	n/a	n/a	n/a	n/a	0	0	0
2486179	REC_WORD	wordpools/wasnorm_wordpool_576.txt	LTP117	ltpFR2	8	11	SNACK	1331	n/a	n/a	0	0	0
2486943	REC_WORD	wordpools/wasnorm_wordpool_576.txt	LTP117	ltpFR2	8	11	HAMPER	682	n/a	n/a	0	0	0
2487757	REC_WORD	wordpools/wasnorm_wordpool_576.txt	LTP117	ltpFR2	8	11	LUNCH	849	n/a	n/a	0	0	0
2488571	REC_WORD	wordpools/wasnorm_wordpool_576.txt	LTP117	ltpFR2	8	11	COOKBOOK	373	n/a	n/a	0	0	0
2489275	REC_WORD	wordpools/wasnorm_wordpool_576.txt	LTP117	ltpFR2	8	11	CELLAR	267	n/a	n/a	0	0	0
2491347	REC_WORD	wordpools/wasnorm_wordpool_576.txt	LTP117	ltpFR2	8	11	STOVE	1388	n/a	n/a	0	0	0
2492265	REC_WORD	wordpools/wasnorm_wordpool_576.txt	LTP117	ltpFR2	8	11	NIGHTGOWN	953	n/a	n/a	0	0	0
2494729	REC_WORD	wordpools/wasnorm_wordpool_576.txt	LTP117	ltpFR2	8	11	HERO	706	n/a	n/a	0	0	0
2495616	REC_WORD	wordpools/wasnorm_wordpool_576.txt	LTP117	ltpFR2	8	11	SNAKE	1333	n/a	n/a	0	0	0
2499010	REC_WORD	wordpools/wasnorm_wordpool_576.txt	LTP117	ltpFR2	8	11	POLICE	1098	n/a	n/a	0	0	0
2500754	REC_WORD	wordpools/wasnorm_wordpool_576.txt	LTP117	ltpFR2	8	11	CLOTHES	327	n/a	n/a	0	0	0
2501921	REC_WORD	wordpools/wasnorm_wordpool_576.txt	LTP117	ltpFR2	8	11	RIFLE	1192	n/a	n/a	0	0	0
2503656	REC_WORD	wordpools/wasnorm_wordpool_576.txt	LTP117	ltpFR2	8	11	CITRUS	313	n/a	n/a	0	0	0
2504464	REC_WORD	wordpools/wasnorm_wordpool_576.txt	LTP117	ltpFR2	8	11	JELLO	754	n/a	n/a	0	0	0
2506472	REC_WORD	wordpools/wasnorm_wordpool_576.txt	LTP117	ltpFR2	8	11	DAUGHTER	442	n/a	n/a	0	0	0
2508462	REC_WORD	wordpools/wasnorm_wordpool_576.txt	LTP117	ltpFR2	8	11	PARENT	1013	n/a	n/a	0	0	0
2509556	REC_WORD	wordpools/wasnorm_wordpool_576.txt	LTP117	ltpFR2	8	11	CASKET	255	n/a	n/a	0	0	0
2513915	REC_WORD	wordpools/wasnorm_wordpool_576.txt	LTP117	ltpFR2	8	11	GOBLIN	645	n/a	n/a	0	0	0
2531806	REC_WORD	wordpools/wasnorm_wordpool_576.txt	LTP117	ltpFR2	8	11	WIDOW	1608	n/a	n/a	0	0	0
2555175	REC_WORD	wordpools/wasnorm_wordpool_576.txt	LTP117	ltpFR2	8	11	CELLAR	267	n/a	n/a	0	0	0
2576791	WORD	wordpools/wasnorm_wordpool_576.txt	LTP117	ltpFR2	8	12	COWBOY	395	n/a	n/a	0	0	0
2579368	WORD	wordpools/wasnorm_wordpool_576.txt	LTP117	ltpFR2	8	12	BEAVER	109	n/a	n/a	0	0	0
2582061	WORD	wordpools/wasnorm_wordpool_576.txt	LTP117	ltpFR2	8	12	FIDDLE	561	n/a	n/a	0	0	0
2584769	WORD	wordpools/wasnorm_wordpool_576.txt	LTP117	ltpFR2	8	12	LILY	821	n/a	n/a	0	0	0
2587432	WORD	wordpools/wasnorm_wordpool_576.txt	LTP117	ltpFR2	8	12	BISON	131	n/a	n/a	0	0	0
2589941	WORD	wordpools/wasnorm_wordpool_576.txt	LTP117	ltpFR2	8	12	PEDAL	1037	n/a	n/a	0	0	0
2592434	WORD	wordpools/wasnorm_wordpool_576.txt	LTP117	ltpFR2	8	12	DASHBOARD	441	n/a	n/a	0	0	0
2594926	WORD	wordpools/wasnorm_wordpool_576.txt	LTP117	ltpFR2	8	12	BINDER	127	n/a	n/a	0	0	0
2597570	WORD	wordpools/wasnorm_wordpool_576.txt	LTP117	ltpFR2	8	12	COMET	353	n/a	n/a	0	0	0
2600213	WORD	wordpools/wasnorm_wordpool_576.txt	LTP117	ltpFR2	8	12	HEDGE	699	n/a	n/a	0	0	0
2602689	WORD	wordpools/wasnorm_wordpool_576.txt	LTP117	ltpFR2	8	12	FOREST	593	n/a	n/a	0	0	0
2605416	WORD	wordpools/wasnorm_wordpool_576.txt	LTP117	ltpFR2	8	12	BODY	145	n/a	n/a	0	0	0
2608224	WORD	wordpools/wasnorm_wordpool_576.txt	LTP117	ltpFR2	8	12	CARRIAGE	248	n/a	n/a	0	0	0
2610753	WORD	wordpools/wasnorm_wordpool_576.txt	LTP117	ltpFR2	8	12	CATCHER	258	n/a	n/a	0	0	0
2613245	WORD	wordpools/wasnorm_wordpool_576.txt	LTP117	ltpFR2	8	12	HOUND	724	n/a	n/a	0	0	0
2615822	WORD	wordpools/wasnorm_wordpool_576.txt	LTP117	ltpFR2	8	12	PRINCESS	1125	n/a	n/a	0	0	0
2618599	WORD	wordpools/wasnorm_wordpool_576.txt	LTP117	ltpFR2	8	12	NOTEBOOK	959	n/a	n/a	0	0	0
2621058	WORD	wordpools/wasnorm_wordpool_576.txt	LTP117	ltpFR2	8	12	SUSPECT	1415	n/a	n/a	0	0	0
2623768	WORD	wordpools/wasnorm_wordpool_576.txt	LTP117	ltpFR2	8	12	MISTER	901	n/a	n/a	0	0	0
2626395	WORD	wordpools/wasnorm_wordpool_576.txt	LTP117	ltpFR2	8	12	BLUEPRINT	142	n/a	n/a	0	0	0
2629088	WORD	wordpools/wasnorm_wordpool_576.txt	LTP117	ltpFR2	8	12	SHELTER	1282	n/a	n/a	0	0	0
2631782	WORD	wordpools/wasnorm_wordpool_576.txt	LTP117	ltpFR2	8	12	BRACES	164	n/a	n/a	0	0	0
2634409	WORD	wordpools/wasnorm_wordpool_576.txt	LTP117	ltpFR2	8	12	THREAD	1460	n/a	n/a	0	0	0
2636949	WORD	wordpools/wasnorm_wordpool_576.txt	LTP117	ltpFR2	8	12	STATUE	1374	n/a	n/a	0	0	0
2638558	START	n/a	LTP117	ltpFR2	8	n/a	n/a	n/a	20	n/a	n/a	n/a	n/a
2639612	DISTRACTOR	n/a	LTP117	ltpFR2	8	12	n/a	n/a	n/a	n/a	0	0	0
2639628	PROB	n/a	LTP117	ltpFR2	8	n/a	n/a	n/a	20	9	4	4	1
2640481	PROB	n/a	LTP117	ltpFR2	8	n/a	n/a	n/a	20	19	4	8	7
2642269	PROB	n/a	LTP117	ltpFR2	8	n/a	n/a	n/a	20	17	9	4	4
2643373	PROB	n/a	LTP117	ltpFR2	8	n/a	n/a	n/a	20	17	1	9	7
2644210	PROB	n/a	LTP117	ltpFR2	8	n/a	n/a	n/a	20	16	5	2	9
2645163	PROB	n/a	LTP117	ltpFR2	8	n/a	n/a	n/a	20	21	7	6	8
2646301	PROB	n/a	LTP117	ltpFR2	8	n/a	n/a	n/a	20	14	5	3	6
2648225	PROB	n/a	LTP117	ltpFR2	8	n/a	n/a	n/a	20	19	8	9	2
2649365	PROB	n/a	LTP117	ltpFR2	8	n/a	n/a	n/a	20	13	3	2	8
2650703	PROB	n/a	LTP117	ltpFR2	8	n/a	n/a	n/a	20	12	2	7	3
2652056	PROB	n/a	LTP117	ltpFR2	8	n/a	n/a	n/a	20	7	1	1	5
2652861	PROB	n/a	LTP117	ltpFR2	8	n/a	n/a	n/a	20	20	8	8	4
2654516	PROB	n/a	LTP117	ltpFR2	8	n/a	n/a	n/a	20	16	8	4	4
2656040	PROB	n/a	LTP117	ltpFR2	8	n/a	n/a	n/a	20	16	7	8	1
2656960	PROB	n/a	LTP117	ltpFR2	8	n/a	n/a	n/a	20	23	9	9	7
2658062	PROB	n/a	LTP117	ltpFR2	8	n/a	n/a	n/a	20	14	3	8	3
2659116	PROB	n/a	LTP117	ltpFR2	8	n/a	n/a	n/a	20	12	9	1	2
2659988	PROB	n/a	LTP117	ltpFR2	8	n/a	n/a	n/a	20	4	2	1	1
2662536	STOP	n/a	LTP117	ltpFR2	8	n/a	n/a	n/a	20	n/a	n/a	n/a	n/a
2664439	REC_START	n/a	LTP117	ltpFR2	8	12	n/a	n/a	n/a	n/a	0	0	0
2665028	REC_WORD	wordpools/wasnorm_wordpool_576.txt	LTP117	ltpFR2	8	12	PRINCESS	1125	n/a	n/a	0	0	0
2665829	REC_WORD	wordpools/wasnorm_wordpool_576.txt	LTP117	ltpFR2	8	12	SUSPECT	1415	n/a	n/a	0	0	0
2666818	REC_WORD	wordpools/wasnorm_wordpool_576.txt	LTP117	ltpFR2	8	12	BLUEPRINT	142	n/a	n/a	0	0	0
2667663	REC_WORD	wordpools/wasnorm_wordpool_576.txt	LTP117	ltpFR2	8	12	BRACES	164	n/a	n/a	0	0	0
2668852	REC_WORD	wordpools/wasnorm_wordpool_576.txt	LTP117	ltpFR2	8	12	THREAD	1460	n/a	n/a	0	0	0
2671297	REC_WORD	wordpools/wasnorm_wordpool_576.txt	LTP117	ltpFR2	8	12	COMET	353	n/a	n/a	0	0	0
2672594	REC_WORD	wordpools/wasnorm_wordpool_576.txt	LTP117	ltpFR2	8	12	BODY	145	n/a	n/a	0	0	0
2673673	REC_WORD	wordpools/wasnorm_wordpool_576.txt	LTP117	ltpFR2	8	12	CATCHER	258	n/a	n/a	0	0	0
2674673	REC_WORD_VV	wordpools/wasnorm_wordpool_576.txt	LTP117	ltpFR2	8	12	<>	-1	n/a	n/a	0	0	0
2675571	REC_WORD	wordpools/wasnorm_wordpool_576.txt	LTP117	ltpFR2	8	12	CARRIAGE	248	n/a	n/a	0	0	0
2683189	REC_WORD	wordpools/wasnorm_wordpool_576.txt	LTP117	ltpFR2	8	12	NOTEBOOK	959	n/a	n/a	0	0	0
2684117	REC_WORD	wordpools/wasnorm_wordpool_576.txt	LTP117	ltpFR2	8	12	DASHBOARD	441	n/a	n/a	0	0	0
2689176	REC_WORD	wordpools/wasnorm_wordpool_576.txt	LTP117	ltpFR2	8	12	BINDER	127	n/a	n/a	0	0	0
2690807	REC_WORD	wordpools/wasnorm_wordpool_576.txt	LTP117	ltpFR2	8	12	COWBOY	395	n/a	n/a	0	0	0
2691857	REC_WORD	wordpools/wasnorm_wordpool_576.txt	LTP117	ltpFR2	8	12	BISON	131	n/a	n/a	0	0	0
2692657	REC_WORD	wordpools/wasnorm_wordpool_576.txt	LTP117	ltpFR2	8	12	LILY	821	n/a	n/a	0	0	0
2693759	REC_WORD	wordpools/wasnorm_wordpool_576.txt	LTP117	ltpFR2	8	12	BEAVER	109	n/a	n/a	0	0	0
2755465	WORD	wordpools/wasnorm_wordpool_576.txt	LTP117	ltpFR2	8	13	DRIVER	499	n/a	n/a	0	0	0
2758091	WORD	wordpools/wasnorm_wordpool_576.txt	LTP117	ltpFR2	8	13	CHAUFFEUR	283	n/a	n/a	0	0	0
2760818	WORD	wordpools/wasnorm_wordpool_576.txt	LTP117	ltpFR2	8	13	SUMMIT	1405	n/a	n/a	0	0	0
2763345	WORD	wordpools/wasnorm_wordpool_576.txt	LTP117	ltpFR2	8	13	CRITIC	410	n/a	n/a	0	0	0
2766038	WORD	wordpools/wasnorm_wordpool_576.txt	LTP117	ltpFR2	8	13	BLACKBOARD	133	n/a	n/a	0	0	0
2768531	WORD	wordpools/wasnorm_wordpool_576.txt	LTP117	ltpFR2	8	13	LADDER	793	n/a	n/a	0	0	0
2771308	WORD	wordpools/wasnorm_wordpool_576.txt	LTP117	ltpFR2	8	13	CANYON	235	n/a	n/a	0	0	0
2773999	WORD	wordpools/wasnorm_wordpool_576.txt	LTP117	ltpFR2	8	13	STAMP	1370	n/a	n/a	0	0	0
2776762	WORD	wordpools/wasnorm_wordpool_576.txt	LTP117	ltpFR2	8	13	SKIRT	1319	n/a	n/a	0	0	0
2779386	WORD	wordpools/wasnorm_wordpool_576.txt	LTP117	ltpFR2	8	13	DENIM	446	n/a	n/a	0	0	0
2782115	WORD	wordpools/wasnorm_wordpool_576.txt	LTP117	ltpFR2	8	13	BASEMENT	94	n/a	n/a	0	0	0
2784859	WORD	wordpools/wasnorm_wordpool_576.txt	LTP117	ltpFR2	8	13	GREASE	660	n/a	n/a	0	0	0
2787452	WORD	wordpools/wasnorm_wordpool_576.txt	LTP117	ltpFR2	8	13	GRIZZLY	662	n/a	n/a	0	0	0
2790229	WORD	wordpools/wasnorm_wordpool_576.txt	LTP117	ltpFR2	8	13	OYSTER	995	n/a	n/a	0	0	0
2792806	WORD	wordpools/wasnorm_wordpool_576.txt	LTP117	ltpFR2	8	13	MARROW	872	n/a	n/a	0	0	0
2795415	WORD	wordpools/wasnorm_wordpool_576.txt	LTP117	ltpFR2	8	13	ICING	732	n/a	n/a	0	0	0
2798126	WORD	wordpools/wasnorm_wordpool_576.txt	LTP117	ltpFR2	8	13	GRAVEL	659	n/a	n/a	0	0	0
2800936	WORD	wordpools/wasnorm_wordpool_576.txt	LTP117	ltpFR2	8	13	POSTAGE	1113	n/a	n/a	0	0	0
2803610	WORD	wordpools/wasnorm_wordpool_576.txt	LTP117	ltpFR2	8	13	MILK	895	n/a	n/a	0	0	0
2806239	WORD	wordpools/wasnorm_wordpool_576.txt	LTP117	ltpFR2	8	13	TOASTER	1472	n/a	n/a	0	0	0
2808950	WORD	wordpools/wasnorm_wordpool_576.txt	LTP117	ltpFR2	8	13	EYELASH	546	n/a	n/a	0	0	0
2811557	WORD	wordpools/wasnorm_wordpool_576.txt	LTP117	ltpFR2	8	13	CONVICT	371	n/a	n/a	0	0	0
2814303	WORD	wordpools/wasnorm_wordpool_576.txt	LTP117	ltpFR2	8	13	PIANO	1057	n/a	n/a	0	0	0
2816944	WORD	wordpools/wasnorm_wordpool_576.txt	LTP117	ltpFR2	8	13	ACTOR	5	n/a	n/a	0	0	0
2818553	START	n/a	LTP117	ltpFR2	8	n/a	n/a	n/a	21	n/a	n/a	n/a	n/a
2819683	DISTRACTOR	n/a	LTP117	ltpFR2	8	13	n/a	n/a	n/a	n/a	0	0	0
2819690	PROB	n/a	LTP117	ltpFR2	8	n/a	n/a	n/a	21	13	7	5	1
2820742	PROB	n/a	LTP117	ltpFR2	8	n/a	n/a	n/a	21	11	3	6	2
2821578	PROB	n/a	LTP117	ltpFR2	8	n/a	n/a	n/a	21	12	6	4	2
2822384	PROB	n/a	LTP117	ltpFR2	8	n/a	n/a	n/a	21	15	6	5	4
2823387	PROB	n/a	LTP117	ltpFR2	8	n/a	n/a	n/a	21	14	6	5	3
2824339	PROB	n/a	LTP117	ltpFR2	8	n/a	n/a	n/a	21	17	2	8	7
2825494	PROB	n/a	LTP117	ltpFR2	8	n/a	n/a	n/a	21	13	5	1	7
2826580	PROB	n/a	LTP117	ltpFR2	8	n/a	n/a	n/a	21	19	7	9	3
2827971	PROB	n/a	LTP117	ltpFR2	8	n/a	n/a	n/a	21	14	2	8	4
2829276	PROB	n/a	LTP117	ltpFR2	8	n/a	n/a	n/a	21	8	1	4	3
2830263	PROB	n/a	LTP117	ltpFR2	8	n/a	n/a	n/a	21	15	9	3	3
2831200	PROB	n/a	LTP117	ltpFR2	8	n/a	n/a	n/a	21	20	7	9	4
2832254	PROB	n/a	LTP117	ltpFR2	8	n/a	n/a	n/a	21	18	8	5	5
2833107	PROB	n/a	LTP117	ltpFR2	8	n/a	n/a	n/a	21	10	2	3	5
2833961	PROB	n/a	LTP117	ltpFR2	8	n/a	n/a	n/a	21	17	8	6	3
2834948	PROB	n/a	LTP117	ltpFR2	8	n/a	n/a	n/a	21	8	1	6	1
2835782	PROB	n/a	LTP117	ltpFR2	8	n/a	n/a	n/a	21	11	7	2	2
2836570	PROB	n/a	LTP117	ltpFR2	8	n/a	n/a	n/a	21	10	5	4	1
2837307	PROB	n/a	LTP117	ltpFR2	8	n/a	n/a	n/a	21	17	8	8	1
2838510	PROB	n/a	LTP117	ltpFR2	8	n/a	n/a	n/a	21	20	9	6	5
2839462	PROB	n/a	LTP117	ltpFR2	8	n/a	n/a	n/a	21	16	7	3	4
2841018	PROB	n/a	LTP117	ltpFR2	8	n/a	n/a	n/a	21	7	5	1	1
2841856	STOP	n/a	LTP117	ltpFR2	8	n/a	n/a	n/a	21	n/a	n/a	n/a	n/a
2844317	REC_START	n/a	LTP117	ltpFR2	8	13	n/a	n/a	n/a	n/a	0	0	0
2845741	REC_WORD	wordpools/wasnorm_wordpool_576.txt	LTP117	ltpFR2	8	13	POSTAGE	1113	n/a	n/a	0	0	0
2846485	REC_WORD	wordpools/wasnorm_wordpool_576.txt	LTP117	ltpFR2	8	13	STAMP	1370	n/a	n/a	0	0	0
2847553	REC_WORD	wordpools/wasnorm_wordpool_576.txt	LTP117	ltpFR2	8	13	MILK	895	n/a	n/a	0	0	0
2848396	REC_WORD	wordpools/wasnorm_wordpool_576.txt	LTP117	ltpFR2	8	13	TOASTER	1472	n/a	n/a	0	0	0
2853648	REC_WORD	wordpools/wasnorm_wordpool_576.txt	LTP117	ltpFR2	8	13	GREASE	660	n/a	n/a	0	0	0
2854501	REC_WORD	wordpools/wasnorm_wordpool_576.txt	LTP117	ltpFR2	8	13	ICING	732	n/a	n/a	0	0	0
2855298	REC_WORD	wordpools/wasnorm_wordpool_576.txt	LTP117	ltpFR2	8	13	GRIZZLY	662	n/a	n/a	0	0	0
2856139	REC_WORD	wordpools/wasnorm_wordpool_576.txt	LTP117	ltpFR2	8	13	OYSTER	995	n/a	n/a	0	0	0
2856866	REC_WORD	wordpools/wasnorm_wordpool_576.txt	LTP117	ltpFR2	8	13	MARROW	872	n/a	n/a	0	0	0
2857720	REC_WORD	wordpools/wasnorm_wordpool_576.txt	LTP117	ltpFR2	8	13	CANYON	235	n/a	n/a	0	0	0
2859618	REC_WORD	wordpools/wasnorm_wordpool_576.txt	LTP117	ltpFR2	8	13	BASEMENT	94	n/a	n/a	0	0	0
2862729	REC_WORD	wordpools/wasnorm_wordpool_576.txt	LTP117	ltpFR2	8	13	DRIVER	499	n/a	n/a	0	0	0
2863286	REC_WORD	wordpools/wasnorm_wordpool_576.txt	LTP117	ltpFR2	8	13	CHAUFFEUR	283	n/a	n/a	0	0	0
2864752	REC_WORD	wordpools/wasnorm_wordpool_576.txt	LTP117	ltpFR2	8	13	SUMMIT	1405	n/a	n/a	0	0	0
2865759	REC_WORD	wordpools/wasnorm_wordpool_576.txt	LTP117	ltpFR2	8	13	LADDER	793	n/a	n/a	0	0	0
2883202	REC_WORD	wordpools/wasnorm_wordpool_576.txt	LTP117	ltpFR2	8	13	ACTOR	5	n/a	n/a	0	0	0
2886679	REC_WORD	wordpools/wasnorm_wordpool_576.txt	LTP117	ltpFR2	8	13	EYELASH	546	n/a	n/a	0	0	0
2897181	REC_WORD	wordpools/wasnorm_wordpool_576.txt	LTP117	ltpFR2	8	13	CANYON	235	n/a	n/a	0	0	0
2935360	DISTRACTOR	n/a	LTP117	ltpFR2	8	14	n/a	n/a	n/a	n/a	0	0	0
2935360	START	n/a	LTP117	ltpFR2	8	n/a	n/a	n/a	22	n/a	n/a	n/a	n/a
2935410	PROB	n/a	LTP117	ltpFR2	8	n/a	n/a	n/a	22	15	6	3	6
2936480	PROB	n/a	LTP117	ltpFR2	8	n/a	n/a	n/a	22	10	3	2	5
2937334	PROB	n/a	LTP117	ltpFR2	8	n/a	n/a	n/a	22	4	2	1	1
2938120	PROB	n/a	LTP117	ltpFR2	8	n/a	n/a	n/a	22	14	6	6	2
2938940	PROB	n/a	LTP117	ltpFR2	8	n/a	n/a	n/a	22	25	9	8	8
2940261	PROB	n/a	LTP117	ltpFR2	8	n/a	n/a	n/a	22	13	1	7	5
2941181	PROB	n/a	LTP117	ltpFR2	8	n/a	n/a	n/a	22	6	2	3	1
2942018	PROB	n/a	LTP117	ltpFR2	8	n/a	n/a	n/a	22	12	1	6	5
2942821	PROB	n/a	LTP117	ltpFR2	8	n/a	n/a	n/a	22	8	2	1	5
2944056	PROB	n/a	LTP117	ltpFR2	8	n/a	n/a	n/a	22	20	4	8	8
2945197	PROB	n/a	LTP117	ltpFR2	8	n/a	n/a	n/a	22	15	1	6	8
2946217	PROB	n/a	LTP117	ltpFR2	8	n/a	n/a	n/a	22	16	7	8	1
2947118	PROB	n/a	LTP117	ltpFR2	8	n/a	n/a	n/a	22	15	9	1	5
2947955	PROB	n/a	LTP117	ltpFR2	8	n/a	n/a	n/a	22	13	8	4	1
2948844	PROB	n/a	LTP117	ltpFR2	8	n/a	n/a	n/a	22	16	6	1	9
2949627	PROB	n/a	LTP117	ltpFR2	8	n/a	n/a	n/a	22	13	1	7	4
2950598	PROB	n/a	LTP117	ltpFR2	8	n/a	n/a	n/a	22	15	8	5	2
2952039	PROB	n/a	LTP117	ltpFR2	8	n/a	n/a	n/a	22	12	6	3	3
2952840	PROB	n/a	LTP117	ltpFR2	8	n/a	n/a	n/a	22	18	7	7	4
2953659	PROB	n/a	LTP117	ltpFR2	8	n/a	n/a	n/a	22	15	7	5	3
2955366	PROB	n/a	LTP117	ltpFR2	8	n/a	n/a	n/a	22	12	2	8	2
2956121	PROB	n/a	LTP117	ltpFR2	8	n/a	n/a	n/a	22	174	2	6	9
2957920	STOP	n/a	LTP117	ltpFR2	8	n/a	n/a	n/a	22	n/a	n/a	n/a	n/a
2960320	WORD	wordpools/wasnorm_wordpool_576.txt	LTP117	ltpFR2	8	14	FLIPPER	580	n/a	n/a	0	0	0
2962997	WORD	wordpools/wasnorm_wordpool_576.txt	LTP117	ltpFR2	8	14	UMPIRE	1535	n/a	n/a	0	0	0
2965521	WORD	wordpools/wasnorm_wordpool_576.txt	LTP117	ltpFR2	8	14	BEAKER	104	n/a	n/a	0	0	0
2968133	WORD	wordpools/wasnorm_wordpool_576.txt	LTP117	ltpFR2	8	14	CASHIER	254	n/a	n/a	0	0	0
2970726	WORD	wordpools/wasnorm_wordpool_576.txt	LTP117	ltpFR2	8	14	MONEY	908	n/a	n/a	0	0	0
2973269	WORD	wordpools/wasnorm_wordpool_576.txt	LTP117	ltpFR2	8	14	FOREHEAD	592	n/a	n/a	0	0	0
2975862	WORD	wordpools/wasnorm_wordpool_576.txt	LTP117	ltpFR2	8	14	MASK	876	n/a	n/a	0	0	0
2978319	WORD	wordpools/wasnorm_wordpool_576.txt	LTP117	ltpFR2	8	14	TRANSPLANT	1496	n/a	n/a	0	0	0
2981099	WORD	wordpools/wasnorm_wordpool_576.txt	LTP117	ltpFR2	8	14	CANAL	226	n/a	n/a	0	0	0
2983725	WORD	wordpools/wasnorm_wordpool_576.txt	LTP117	ltpFR2	8	14	DRINK	498	n/a	n/a	0	0	0
2986151	WORD	wordpools/wasnorm_wordpool_576.txt	LTP117	ltpFR2	8	14	DONOR	485	n/a	n/a	0	0	0
2988761	WORD	wordpools/wasnorm_wordpool_576.txt	LTP117	ltpFR2	8	14	VIRUS	1572	n/a	n/a	0	0	0
2991435	WORD	wordpools/wasnorm_wordpool_576.txt	LTP117	ltpFR2	8	14	TYPIST	1532	n/a	n/a	0	0	0
2994064	WORD	wordpools/wasnorm_wordpool_576.txt	LTP117	ltpFR2	8	14	FOOTBALL	591	n/a	n/a	0	0	0
2996523	WORD	wordpools/wasnorm_wordpool_576.txt	LTP117	ltpFR2	8	14	HANDBAG	684	n/a	n/a	0	0	0
2999334	WORD	wordpools/wasnorm_wordpool_576.txt	LTP117	ltpFR2	8	14	XEROX	1628	n/a	n/a	0	0	0
3001960	WORD	wordpools/wasnorm_wordpool_576.txt	LTP117	ltpFR2	8	14	PLAYGROUND	1087	n/a	n/a	0	0	0
3004754	WORD	wordpools/wasnorm_wordpool_576.txt	LTP117	ltpFR2	8	14	HAND	683	n/a	n/a	0	0	0
3007230	WORD	wordpools/wasnorm_wordpool_576.txt	LTP117	ltpFR2	8	14	ICEBERG	731	n/a	n/a	0	0	0
3009740	WORD	wordpools/wasnorm_wordpool_576.txt	LTP117	ltpFR2	8	14	GUITAR	670	n/a	n/a	0	0	0
3012366	WORD	wordpools/wasnorm_wordpool_576.txt	LTP117	ltpFR2	8	14	JURY	766	n/a	n/a	0	0	0
3014842	WORD	wordpools/wasnorm_wordpool_576.txt	LTP117	ltpFR2	8	14	JUDGE	761	n/a	n/a	0	0	0
3017586	WORD	wordpools/wasnorm_wordpool_576.txt	LTP117	ltpFR2	8	14	TAXI	1438	n/a	n/a	0	0	0
3020330	WORD	wordpools/wasnorm_wordpool_576.txt	LTP117	ltpFR2	8	14	CAFE	216	n/a	n/a	0	0	0
3021936	START	n/a	LTP117	ltpFR2	8	n/a	n/a	n/a	23	n/a	n/a	n/a	n/a
3022859	DISTRACTOR	n/a	LTP117	ltpFR2	8	14	n/a	n/a	n/a	n/a	0	0	0
3022873	PROB	n/a	LTP117	ltpFR2	8	n/a	n/a	n/a	23	13	4	7	2
3024914	PROB	n/a	LTP117	ltpFR2	8	n/a	n/a	n/a	23	20	8	3	9
3026066	PROB	n/a	LTP117	ltpFR2	8	n/a	n/a	n/a	23	1	6	7	2
3027390	PROB	n/a	LTP117	ltpFR2	8	n/a	n/a	n/a	23	4	1	2	1
3028424	PROB	n/a	LTP117	ltpFR2	8	n/a	n/a	n/a	23	21	9	9	3
3029445	PROB	n/a	LTP117	ltpFR2	8	n/a	n/a	n/a	23	119	6	8	5
3030967	PROB	n/a	LTP117	ltpFR2	8	n/a	n/a	n/a	23	14	7	1	6
3031888	PROB	n/a	LTP117	ltpFR2	8	n/a	n/a	n/a	23	18	9	2	7
3033544	PROB	n/a	LTP117	ltpFR2	8	n/a	n/a	n/a	23	15	2	8	5
3034614	PROB	n/a	LTP117	ltpFR2	8	n/a	n/a	n/a	23	5	3	1	1
3035451	PROB	n/a	LTP117	ltpFR2	8	n/a	n/a	n/a	23	25	9	9	7
3036725	PROB	n/a	LTP117	ltpFR2	8	n/a	n/a	n/a	23	10	6	2	2
3037659	PROB	n/a	LTP117	ltpFR2	8	n/a	n/a	n/a	23	15	1	7	7
3038563	PROB	n/a	LTP117	ltpFR2	8	n/a	n/a	n/a	23	11	1	6	4
3039566	PROB	n/a	LTP117	ltpFR2	8	n/a	n/a	n/a	23	17	8	7	2
3041189	PROB	n/a	LTP117	ltpFR2	8	n/a	n/a	n/a	23	17	8	2	7
3042112	PROB	n/a	LTP117	ltpFR2	8	n/a	n/a	n/a	23	19	8	6	5
3043280	PROB	n/a	LTP117	ltpFR2	8	n/a	n/a	n/a	23	9	1	4	4
3044134	PROB	n/a	LTP117	ltpFR2	8	n/a	n/a	n/a	23	20	4	8	8
3045208	STOP	n/a	LTP117	ltpFR2	8	n/a	n/a	n/a	23	n/a	n/a	n/a	n/a
3047884	REC_START	n/a	LTP117	ltpFR2	8	14	n/a	n/a	n/a	n/a	0	0	0
3048347	REC_WORD	wordpools/wasnorm_wordpool_576.txt	LTP117	ltpFR2	8	14	JUDGE	761	n/a	n/a	0	0	0
3049018	REC_WORD	wordpools/wasnorm_wordpool_576.txt	LTP117	ltpFR2	8	14	JURY	766	n/a	n/a	0	0	0
3049672	REC_WORD	wordpools/wasnorm_wordpool_576.txt	LTP117	ltpFR2	8	14	TAXI	1438	n/a	n/a	0	0	0
3050287	REC_WORD	wordpools/wasnorm_wordpool_576.txt	LTP117	ltpFR2	8	14	CAFE	216	n/a	n/a	0	0	0
3051192	REC_WORD	wordpools/wasnorm_wordpool_576.txt	LTP117	ltpFR2	8	14	ICEBERG	731	n/a	n/a	0	0	0
3051978	REC_WORD	wordpools/wasnorm_wordpool_576.txt	LTP117	ltpFR2	8	14	GUITAR	670	n/a	n/a	0	0	0
3056681	REC_WORD	wordpools/wasnorm_wordpool_576.txt	LTP117	ltpFR2	8	14	HAND	683	n/a	n/a	0	0	0
3057733	REC_WORD	wordpools/wasnorm_wordpool_576.txt	LTP117	ltpFR2	8	14	DONOR	485	n/a	n/a	0	0	0
3058315	REC_WORD	wordpools/wasnorm_wordpool_576.txt	LTP117	ltpFR2	8	14	TRANSPLANT	1496	n/a	n/a	0	0	0
3060016	REC_WORD	wordpools/wasnorm_wordpool_576.txt	LTP117	ltpFR2	8	14	CASHIER	254	n/a	n/a	0	0	0
3061533	REC_WORD	wordpools/wasnorm_wordpool_576.txt	LTP117	ltpFR2	8	14	MONEY	908	n/a	n/a	0	0	0
3063276	REC_WORD	wordpools/wasnorm_wordpool_576.txt	LTP117	ltpFR2	8	14	HANDBAG	684	n/a	n/a	0	0	0
3066894	REC_WORD	wordpools/wasnorm_wordpool_576.txt	LTP117	ltpFR2	8	14	MASK	876	n/a	n/a	0	0	0
3067419	REC_WORD	wordpools/wasnorm_wordpool_576.txt	LTP117	ltpFR2	8	14	FOREHEAD	592	n/a	n/a	0	0	0
3071296	REC_WORD	wordpools/wasnorm_wordpool_576.txt	LTP117	ltpFR2	8	14	VIRUS	1572	n/a	n/a	0	0	0
3096985	REC_WORD	wordpools/wasnorm_wordpool_576.txt	LTP117	ltpFR2	8	14	TYPIST	1532	n/a	n/a	0	0	0
3098654	REC_WORD	wordpools/wasnorm_wordpool_576.txt	LTP117	ltpFR2	8	14	XEROX	1628	n/a	n/a	0	0	0
3103452	REC_WORD	wordpools/wasnorm_wordpool_576.txt	LTP117	ltpFR2	8	14	FOOTBALL	591	n/a	n/a	0	0	0
3138960	WORD	wordpools/wasnorm_wordpool_576.txt	LTP117	ltpFR2	8	15	GLASS	639	n/a	n/a	0	0	0
3141670	WORD	wordpools/wasnorm_wordpool_576.txt	LTP117	ltpFR2	8	15	FRIAR	605	n/a	n/a	0	0	0
3144130	WORD	wordpools/wasnorm_wordpool_576.txt	LTP117	ltpFR2	8	15	CLIMBER	323	n/a	n/a	0	0	0
3146572	WORD	wordpools/wasnorm_wordpool_576.txt	LTP117	ltpFR2	8	15	MOP	916	n/a	n/a	0	0	0
3149182	WORD	wordpools/wasnorm_wordpool_576.txt	LTP117	ltpFR2	8	15	DUSTPAN	509	n/a	n/a	0	0	0
3151809	WORD	wordpools/wasnorm_wordpool_576.txt	LTP117	ltpFR2	8	15	EAGLE	512	n/a	n/a	0	0	0
3154402	WORD	wordpools/wasnorm_wordpool_576.txt	LTP117	ltpFR2	8	15	FILM	565	n/a	n/a	0	0	0
3157026	WORD	wordpools/wasnorm_wordpool_576.txt	LTP117	ltpFR2	8	15	PLASTER	1085	n/a	n/a	0	0	0
3159605	WORD	wordpools/wasnorm_wordpool_576.txt	LTP117	ltpFR2	8	15	DORM	488	n/a	n/a	0	0	0
3162315	WORD	wordpools/wasnorm_wordpool_576.txt	LTP117	ltpFR2	8	15	FLASK	576	n/a	n/a	0	0	0
3164958	WORD	wordpools/wasnorm_wordpool_576.txt	LTP117	ltpFR2	8	15	LEG	809	n/a	n/a	0	0	0
3167518	WORD	wordpools/wasnorm_wordpool_576.txt	LTP117	ltpFR2	8	15	COCOON	339	n/a	n/a	0	0	0
3170010	WORD	wordpools/wasnorm_wordpool_576.txt	LTP117	ltpFR2	8	15	HELMET	702	n/a	n/a	0	0	0
3172504	WORD	wordpools/wasnorm_wordpool_576.txt	LTP117	ltpFR2	8	15	CLOUD	328	n/a	n/a	0	0	0
3175180	WORD	wordpools/wasnorm_wordpool_576.txt	LTP117	ltpFR2	8	15	BULLET	194	n/a	n/a	0	0	0
3177689	WORD	wordpools/wasnorm_wordpool_576.txt	LTP117	ltpFR2	8	15	POPCORN	1104	n/a	n/a	0	0	0
3180364	WORD	wordpools/wasnorm_wordpool_576.txt	LTP117	ltpFR2	8	15	CREATURE	403	n/a	n/a	0	0	0
3183177	WORD	wordpools/wasnorm_wordpool_576.txt	LTP117	ltpFR2	8	15	LEOPARD	812	n/a	n/a	0	0	0
3185971	WORD	wordpools/wasnorm_wordpool_576.txt	LTP117	ltpFR2	8	15	SPIDER	1351	n/a	n/a	0	0	0
3188698	WORD	wordpools/wasnorm_wordpool_576.txt	LTP117	ltpFR2	8	15	JELLY	755	n/a	n/a	0	0	0
3191291	WORD	wordpools/wasnorm_wordpool_576.txt	LTP117	ltpFR2	8	15	FUNGUS	614	n/a	n/a	0	0	0
3193733	WORD	wordpools/wasnorm_wordpool_576.txt	LTP117	ltpFR2	8	15	TRUCK	1512	n/a	n/a	0	0	0
3196193	WORD	wordpools/wasnorm_wordpool_576.txt	LTP117	ltpFR2	8	15	CHEMIST	292	n/a	n/a	0	0	0
3198869	WORD	wordpools/wasnorm_wordpool_576.txt	LTP117	ltpFR2	8	15	COUNTY	389	n/a	n/a	0	0	0
3200476	START	n/a	LTP117	ltpFR2	8	n/a	n/a	n/a	24	n/a	n/a	n/a	n/a
3201511	DISTRACTOR	n/a	LTP117	ltpFR2	8	15	n/a	n/a	n/a	n/a	0	0	0
3201527	PROB	n/a	LTP117	ltpFR2	8	n/a	n/a	n/a	24	23	7	8	8
3203484	PROB	n/a	LTP117	ltpFR2	8	n/a	n/a	n/a	24	14	8	2	4
3204438	PROB	n/a	LTP117	ltpFR2	8	n/a	n/a	n/a	24	16	7	3	6
3205862	PROB	n/a	LTP117	ltpFR2	8	n/a	n/a	n/a	24	18	7	2	9
3207282	PROB	n/a	LTP117	ltpFR2	8	n/a	n/a	n/a	24	16	2	9	5
3208405	PROB	n/a	LTP117	ltpFR2	8	n/a	n/a	n/a	24	16	2	5	9
3209359	PROB	n/a	LTP117	ltpFR2	8	n/a	n/a	n/a	24	7	1	4	2
3210262	PROB	n/a	LTP117	ltpFR2	8	n/a	n/a	n/a	24	21	6	6	9
3211314	PROB	n/a	LTP117	ltpFR2	8	n/a	n/a	n/a	24	18	9	6	3
3212886	PROB	n/a	LTP117	ltpFR2	8	n/a	n/a	n/a	24	16	8	7	1
3213692	PROB	n/a	LTP117	ltpFR2	8	n/a	n/a	n/a	24	15	1	6	8
3215147	PROB	n/a	LTP117	ltpFR2	8	n/a	n/a	n/a	24	12	2	8	2
3216115	PROB	n/a	LTP117	ltpFR2	8	n/a	n/a	n/a	24	22	6	8	8
3217473	PROB	n/a	LTP117	ltpFR2	8	n/a	n/a	n/a	24	165	4	8	4
3219129	PROB	n/a	LTP117	ltpFR2	8	n/a	n/a	n/a	24	16	9	3	3
3220032	PROB	n/a	LTP117	ltpFR2	8	n/a	n/a	n/a	24	19	3	7	9
3221084	PROB	n/a	LTP117	ltpFR2	8	n/a	n/a	n/a	24	22	9	4	9
3222257	PROB	n/a	LTP117	ltpFR2	8	n/a	n/a	n/a	24	14	1	8	5
3223384	STOP	n/a	LTP117	ltpFR2	8	n/a	n/a	n/a	24	n/a	n/a	n/a	n/a
3226307	REC_START	n/a	LTP117	ltpFR2	8	15	n/a	n/a	n/a	n/a	0	0	0
3227799	REC_WORD	wordpools/wasnorm_wordpool_576.txt	LTP117	ltpFR2	8	15	CHEMIST	292	n/a	n/a	0	0	0
3228596	REC_WORD	wordpools/wasnorm_wordpool_576.txt	LTP117	ltpFR2	8	15	COUNTY	389	n/a	n/a	0	0	0
3232097	REC_WORD	wordpools/wasnorm_wordpool_576.txt	LTP117	ltpFR2	8	15	LEG	809	n/a	n/a	0	0	0
3233669	REC_WORD	wordpools/wasnorm_wordpool_576.txt	LTP117	ltpFR2	8	15	FLASK	576	n/a	n/a	0	0	0
3236617	REC_WORD	wordpools/wasnorm_wordpool_576.txt	LTP117	ltpFR2	8	15	FUNGUS	614	n/a	n/a	0	0	0
3239066	REC_WORD	wordpools/wasnorm_wordpool_576.txt	LTP117	ltpFR2	8	15	SPHINX	1349	n/a	n/a	0	0	0
3239882	REC_WORD	wordpools/wasnorm_wordpool_576.txt	LTP117	ltpFR2	8	15	GLASS	639	n/a	n/a	0	0	0
3240600	REC_WORD	wordpools/wasnorm_wordpool_576.txt	LTP117	ltpFR2	8	15	FILM	565	n/a	n/a	0	0	0
3241449	REC_WORD	wordpools/wasnorm_wordpool_576.txt	LTP117	ltpFR2	8	15	COCOON	339	n/a	n/a	0	0	0
3242450	REC_WORD	wordpools/wasnorm_wordpool_576.txt	LTP117	ltpFR2	8	15	CLIMBER	323	n/a	n/a	0	0	0
3243392	REC_WORD	wordpools/wasnorm_wordpool_576.txt	LTP117	ltpFR2	8	15	HELMET	702	n/a	n/a	0	0	0
3245287	REC_WORD	wordpools/wasnorm_wordpool_576.txt	LTP117	ltpFR2	8	15	BULLET	194	n/a	n/a	0	0	0
3246127	REC_WORD	wordpools/wasnorm_wordpool_576.txt	LTP117	ltpFR2	8	15	POPCORN	1104	n/a	n/a	0	0	0
3248009	REC_WORD	wordpools/wasnorm_wordpool_576.txt	LTP117	ltpFR2	8	15	LEOPARD	812	n/a	n/a	0	0	0
3249107	REC_WORD	wordpools/wasnorm_wordpool_576.txt	LTP117	ltpFR2	8	15	SPIDER	1351	n/a	n/a	0	0	0
3249909	REC_WORD	wordpools/wasnorm_wordpool_576.txt	LTP117	ltpFR2	8	15	CREATURE	403	n/a	n/a	0	0	0
3253003	REC_WORD	wordpools/wasnorm_wordpool_576.txt	LTP117	ltpFR2	8	15	CLOUD	328	n/a	n/a	0	0	0
3260236	REC_WORD	wordpools/wasnorm_wordpool_576.txt	LTP117	ltpFR2	8	15	DORM	488	n/a	n/a	0	0	0
3264454	REC_WORD	wordpools/wasnorm_wordpool_576.txt	LTP117	ltpFR2	8	15	FRIAR	605	n/a	n/a	0	0	0
3270441	REC_WORD	wordpools/wasnorm_wordpool_576.txt	LTP117	ltpFR2	8	15	MOP	916	n/a	n/a	0	0	0
3317332	WORD	wordpools/wasnorm_wordpool_576.txt	LTP117	ltpFR2	8	16	SEAL	1262	n/a	n/a	0	0	0
3320090	WORD	wordpools/wasnorm_wordpool_576.txt	LTP117	ltpFR2	8	16	BROOK	177	n/a	n/a	0	0	0
3322652	WORD	wordpools/wasnorm_wordpool_576.txt	LTP117	ltpFR2	8	16	ZIPPER	1636	n/a	n/a	0	0	0
3325396	WORD	wordpools/wasnorm_wordpool_576.txt	LTP117	ltpFR2	8	16	AWARD	63	n/a	n/a	0	0	0
3328090	WORD	wordpools/wasnorm_wordpool_576.txt	LTP117	ltpFR2	8	16	SURVEY	1414	n/a	n/a	0	0	0
3330850	WORD	wordpools/wasnorm_wordpool_576.txt	LTP117	ltpFR2	8	16	SLIDE	1326	n/a	n/a	0	0	0
3333494	WORD	wordpools/wasnorm_wordpool_576.txt	LTP117	ltpFR2	8	16	CHILD	299	n/a	n/a	0	0	0
3336151	WORD	wordpools/wasnorm_wordpool_576.txt	LTP117	ltpFR2	8	16	CONCERT	360	n/a	n/a	0	0	0
3338596	WORD	wordpools/wasnorm_wordpool_576.txt	LTP117	ltpFR2	8	16	BLOUSE	139	n/a	n/a	0	0	0
3341273	WORD	wordpools/wasnorm_wordpool_576.txt	LTP117	ltpFR2	8	16	DONKEY	484	n/a	n/a	0	0	0
3344083	WORD	wordpools/wasnorm_wordpool_576.txt	LTP117	ltpFR2	8	16	HEADBAND	696	n/a	n/a	0	0	0
3346660	WORD	wordpools/wasnorm_wordpool_576.txt	LTP117	ltpFR2	8	16	ORANGE	980	n/a	n/a	0	0	0
3349370	WORD	wordpools/wasnorm_wordpool_576.txt	LTP117	ltpFR2	8	16	SUNSET	1408	n/a	n/a	0	0	0
3352130	WORD	wordpools/wasnorm_wordpool_576.txt	LTP117	ltpFR2	8	16	OMELET	976	n/a	n/a	0	0	0
3354754	WORD	wordpools/wasnorm_wordpool_576.txt	LTP117	ltpFR2	8	16	BACON	67	n/a	n/a	0	0	0
3357250	WORD	wordpools/wasnorm_wordpool_576.txt	LTP117	ltpFR2	8	16	BEAST	108	n/a	n/a	0	0	0
3360010	WORD	wordpools/wasnorm_wordpool_576.txt	LTP117	ltpFR2	8	16	SMOG	1330	n/a	n/a	0	0	0
3362553	WORD	wordpools/wasnorm_wordpool_576.txt	LTP117	ltpFR2	8	16	POWDER	1117	n/a	n/a	0	0	0
3365163	WORD	wordpools/wasnorm_wordpool_576.txt	LTP117	ltpFR2	8	16	SCISSORS	1250	n/a	n/a	0	0	0
3367956	WORD	wordpools/wasnorm_wordpool_576.txt	LTP117	ltpFR2	8	16	SWAMP	1416	n/a	n/a	0	0	0
3370433	WORD	wordpools/wasnorm_wordpool_576.txt	LTP117	ltpFR2	8	16	PUDDLE	1140	n/a	n/a	0	0	0
3373143	WORD	wordpools/wasnorm_wordpool_576.txt	LTP117	ltpFR2	8	16	BARLEY	88	n/a	n/a	0	0	0
3375683	WORD	wordpools/wasnorm_wordpool_576.txt	LTP117	ltpFR2	8	16	MAMMAL	861	n/a	n/a	0	0	0
3378393	WORD	wordpools/wasnorm_wordpool_576.txt	LTP117	ltpFR2	8	16	SWIMMER	1420	n/a	n/a	0	0	0
3380002	START	n/a	LTP117	ltpFR2	8	n/a	n/a	n/a	25	n/a	n/a	n/a	n/a
3380836	DISTRACTOR	n/a	LTP117	ltpFR2	8	16	n/a	n/a	n/a	n/a	0	0	0
3380853	PROB	n/a	LTP117	ltpFR2	8	n/a	n/a	n/a	25	25	7	9	9
3382308	PROB	n/a	LTP117	ltpFR2	8	n/a	n/a	n/a	25	17	7	7	3
3383247	PROB	n/a	LTP117	ltpFR2	8	n/a	n/a	n/a	25	18	6	3	9
3384235	PROB	n/a	LTP117	ltpFR2	8	n/a	n/a	n/a	25	13	5	4	4
3386058	PROB	n/a	LTP117	ltpFR2	8	n/a	n/a	n/a	25	13	2	2	9
3387012	PROB	n/a	LTP117	ltpFR2	8	n/a	n/a	n/a	25	23	8	5	9
3388517	PROB	n/a	LTP117	ltpFR2	8	n/a	n/a	n/a	25	18	8	5	5
3389437	PROB	n/a	LTP117	ltpFR2	8	n/a	n/a	n/a	25	15	8	2	5
3391060	PROB	n/a	LTP117	ltpFR2	8	n/a	n/a	n/a	25	18	9	7	2
3392164	PROB	n/a	LTP117	ltpFR2	8	n/a	n/a	n/a	25	15	3	9	3
3393118	PROB	n/a	LTP117	ltpFR2	8	n/a	n/a	n/a	25	8	2	3	3
3393955	PROB	n/a	LTP117	ltpFR2	8	n/a	n/a	n/a	25	11	5	2	4
3395126	PROB	n/a	LTP117	ltpFR2	8	n/a	n/a	n/a	25	14	7	1	6
3396163	PROB	n/a	LTP117	ltpFR2	8	n/a	n/a	n/a	25	16	5	3	8
3397451	PROB	n/a	LTP117	ltpFR2	8	n/a	n/a	n/a	25	13	7	3	3
3398656	PROB	n/a	LTP117	ltpFR2	8	n/a	n/a	n/a	25	18	6	9	3
3399643	PROB	n/a	LTP117	ltpFR2	8	n/a	n/a	n/a	25	18	4	9	5
3400577	PROB	n/a	LTP117	ltpFR2	8	n/a	n/a	n/a	25	11	6	1	4
3401299	PROB	n/a	LTP117	ltpFR2	8	n/a	n/a	n/a	25	14	4	1	9
3402085	PROB	n/a	LTP117	ltpFR2	8	n/a	n/a	n/a	25	14	2	4	8
3402944	STOP	n/a	LTP117	ltpFR2	8	n/a	n/a	n/a	25	n/a	n/a	n/a	n/a
3405833	REC_START	n/a	LTP117	ltpFR2	8	16	n/a	n/a	n/a	n/a	0	0	0
3406283	REC_WORD	wordpools/wasnorm_wordpool_576.txt	LTP117	ltpFR2	8	16	PUDDLE	1140	n/a	n/a	0	0	0
3406947	REC_WORD	wordpools/wasnorm_wordpool_576.txt	LTP117	ltpFR2	8	16	MAMMAL	861	n/a	n/a	0	0	0
3407664	REC_WORD	wordpools/wasnorm_wordpool_576.txt	LTP117	ltpFR2	8	16	BARLEY	88	n/a	n/a	0	0	0
3408133	REC_WORD	wordpools/wasnorm_wordpool_576.txt	LTP117	ltpFR2	8	16	SWIMMER	1420	n/a	n/a	0	0	0
3409068	REC_WORD	wordpools/wasnorm_wordpool_576.txt	LTP117	ltpFR2	8	16	BEAST	108	n/a	n/a	0	0	0
3409799	REC_WORD	wordpools/wasnorm_wordpool_576.txt	LTP117	ltpFR2	8	16	BACON	67	n/a	n/a	0	0	0
3410516	REC_WORD	wordpools/wasnorm_wordpool_576.txt	LTP117	ltpFR2	8	16	OMELET	976	n/a	n/a	0	0	0
3421593	REC_WORD	wordpools/wasnorm_wordpool_576.txt	LTP117	ltpFR2	8	16	BROOK	177	n/a	n/a	0	0	0
3422199	REC_WORD	wordpools/wasnorm_wordpool_576.txt	LTP117	ltpFR2	8	16	ZIPPER	1636	n/a	n/a	0	0	0
3425565	REC_WORD	wordpools/wasnorm_wordpool_576.txt	LTP117	ltpFR2	8	16	SEAL	1262	n/a	n/a	0	0	0
3426319	REC_WORD	wordpools/wasnorm_wordpool_576.txt	LTP117	ltpFR2	8	16	AWARD	63	n/a	n/a	0	0	0
3426984	REC_WORD	wordpools/wasnorm_wordpool_576.txt	LTP117	ltpFR2	8	16	SURVEY	1414	n/a	n/a	0	0	0
3428133	REC_WORD	wordpools/wasnorm_wordpool_576.txt	LTP117	ltpFR2	8	16	CHILD	299	n/a	n/a	0	0	0
3428726	REC_WORD	wordpools/wasnorm_wordpool_576.txt	LTP117	ltpFR2	8	16	SLIDE	1326	n/a	n/a	0	0	0
3429663	REC_WORD	wordpools/wasnorm_wordpool_576.txt	LTP117	ltpFR2	8	16	SUNSET	1408	n/a	n/a	0	0	0
3430853	REC_WORD	wordpools/wasnorm_wordpool_576.txt	LTP117	ltpFR2	8	16	ORANGE	980	n/a	n/a	0	0	0
3431507	REC_WORD	wordpools/wasnorm_wordpool_576.txt	LTP117	ltpFR2	8	16	HEADBAND	696	n/a	n/a	0	0	0
3432441	REC_WORD	wordpools/wasnorm_wordpool_576.txt	LTP117	ltpFR2	8	16	BLOUSE	139	n/a	n/a	0	0	0
3433211	REC_WORD	wordpools/wasnorm_wordpool_576.txt	LTP117	ltpFR2	8	16	DONKEY	484	n/a	n/a	0	0	0
3466211	REC_WORD	wordpools/wasnorm_wordpool_576.txt	LTP117	ltpFR2	8	16	SLIDE	1326	n/a	n/a	0	0	0
3482622	REST_REWET	n/a	LTP117	ltpFR2	8	16	n/a	n/a	n/a	n/a	0	0	0
3730305	WORD	wordpools/wasnorm_wordpool_576.txt	LTP117	ltpFR2	8	17	PENGUIN	1044	n/a	n/a	0	0	0
3732748	WORD	wordpools/wasnorm_wordpool_576.txt	LTP117	ltpFR2	8	17	BADGE	68	n/a	n/a	0	0	0
3735425	WORD	wordpools/wasnorm_wordpool_576.txt	LTP117	ltpFR2	8	17	MUFFIN	929	n/a	n/a	0	0	0
3738235	WORD	wordpools/wasnorm_wordpool_576.txt	LTP117	ltpFR2	8	17	PEANUT	1032	n/a	n/a	0	0	0
3740745	WORD	wordpools/wasnorm_wordpool_576.txt	LTP117	ltpFR2	8	17	PADDLE	1000	n/a	n/a	0	0	0
3743388	WORD	wordpools/wasnorm_wordpool_576.txt	LTP117	ltpFR2	8	17	HAWK	692	n/a	n/a	0	0	0
3746132	WORD	wordpools/wasnorm_wordpool_576.txt	LTP117	ltpFR2	8	17	OUTLAW	989	n/a	n/a	0	0	0
3748806	WORD	wordpools/wasnorm_wordpool_576.txt	LTP117	ltpFR2	8	17	LAPEL	800	n/a	n/a	0	0	0
