onset	duration	trial_type	sample	stim_file	subject	experiment	session	trial	task	item_name	item_num	recog_resp	recog_conf	resp	color_r	color_g	color_b	case	font
333.226	n/a	SESS_START	166613	n/a	LTP274	ltpFR	4	n/a	n/a	n/a	n/a	1	4	n/a	n/a	n/a	n/a	n/a	n/a
408.744	n/a	WORD	204372	wordpools/wasnorm_wordpool_less_exclusions.txt	LTP274	ltpFR	4	1	0	VIKING	1565	1	n/a	1	0.422607421875	0.5869140625	0	lower	amplitud.ttf
412.588	n/a	WORD	206294	wordpools/wasnorm_wordpool_less_exclusions.txt	LTP274	ltpFR	4	1	0	PASTA	1021	0	n/a	0	0.422607421875	0.5869140625	0	lower	amplitud.ttf
416.682	n/a	WORD	208341	wordpools/wasnorm_wordpool_less_exclusions.txt	LTP274	ltpFR	4	1	0	CRICKET	408	n/a	n/a	0	0.422607421875	0.5869140625	0	lower	amplitud.ttf
420.726	n/a	WORD	210363	wordpools/wasnorm_wordpool_less_exclusions.txt	LTP274	ltpFR	4	1	0	PENGUIN	1044	n/a	n/a	1	0.422607421875	0.5869140625	0	lower	amplitud.ttf
424.688	n/a	WORD	212344	wordpools/wasnorm_wordpool_less_exclusions.txt	LTP274	ltpFR	4	1	1	FEATHER	557	n/a	n/a	0	0.57763671875	0.412841796875	1	upper	zerothre.ttf
428.632	n/a	WORD	214316	wordpools/wasnorm_wordpool_less_exclusions.txt	LTP274	ltpFR	4	1	1	LITTER	832	n/a	n/a	1	0.57763671875	0.412841796875	1	upper	zerothre.ttf
432.592	n/a	WORD	216296	wordpools/wasnorm_wordpool_less_exclusions.txt	LTP274	ltpFR	4	1	1	SODA	1341	n/a	n/a	0	0.57763671875	0.412841796875	1	upper	zerothre.ttf
436.586	n/a	WORD	218293	wordpools/wasnorm_wordpool_less_exclusions.txt	LTP274	ltpFR	4	1	1	SHOWER	1296	n/a	n/a	0	0.57763671875	0.412841796875	1	upper	zerothre.ttf
440.714	n/a	WORD	220357	wordpools/wasnorm_wordpool_less_exclusions.txt	LTP274	ltpFR	4	1	0	LAGOON	795	n/a	n/a	1	0.422607421875	0.5869140625	0	lower	amplitud.ttf
444.742	n/a	WORD	222371	wordpools/wasnorm_wordpool_less_exclusions.txt	LTP274	ltpFR	4	1	0	OWL	992	n/a	n/a	0	0.422607421875	0.5869140625	0	lower	amplitud.ttf
448.852	n/a	WORD	224426	wordpools/wasnorm_wordpool_less_exclusions.txt	LTP274	ltpFR	4	1	0	SWAN	1417	n/a	n/a	1	0.422607421875	0.5869140625	0	lower	amplitud.ttf
452.978	n/a	WORD	226489	wordpools/wasnorm_wordpool_less_exclusions.txt	LTP274	ltpFR	4	1	0	ROOF	1205	n/a	n/a	1	0.422607421875	0.5869140625	0	lower	amplitud.ttf
457.088	n/a	WORD	228544	wordpools/wasnorm_wordpool_less_exclusions.txt	LTP274	ltpFR	4	1	1	BLUEPRINT	142	n/a	n/a	0	0.57763671875	0.412841796875	1	upper	zerothre.ttf
461.066	n/a	WORD	230533	wordpools/wasnorm_wordpool_less_exclusions.txt	LTP274	ltpFR	4	1	1	VACUUM	1543	n/a	n/a	0	0.57763671875	0.412841796875	1	upper	zerothre.ttf
465.176	n/a	WORD	232588	wordpools/wasnorm_wordpool_less_exclusions.txt	LTP274	ltpFR	4	1	1	WATERFALL	1595	n/a	n/a	0	0.57763671875	0.412841796875	1	upper	zerothre.ttf
469.07	n/a	WORD	234535	wordpools/wasnorm_wordpool_less_exclusions.txt	LTP274	ltpFR	4	1	1	CREATURE	403	n/a	n/a	1	0.57763671875	0.412841796875	1	upper	zerothre.ttf
474.996	n/a	REC_START	237498	n/a	LTP274	ltpFR	4	1	n/a	n/a	n/a	n/a	n/a	n/a	n/a	n/a	n/a	n/a	n/a
477.41	n/a	REC_WORD	238705	wordpools/wasnorm_wordpool_less_exclusions.txt	LTP274	ltpFR	4	1	1	CREATURE	403	n/a	n/a	1	n/a	n/a	n/a	n/a	n/a
480.112	n/a	REC_WORD	240056	wordpools/wasnorm_wordpool_less_exclusions.txt	LTP274	ltpFR	4	1	1	WATERFALL	1595	n/a	n/a	0	n/a	n/a	n/a	n/a	n/a
483.606	n/a	REC_WORD	241803	wordpools/wasnorm_wordpool_less_exclusions.txt	LTP274	ltpFR	4	1	0	OWL	992	n/a	n/a	0	n/a	n/a	n/a	n/a	n/a
484.266	n/a	REC_WORD	242133	wordpools/wasnorm_wordpool_less_exclusions.txt	LTP274	ltpFR	4	1	0	SWAN	1417	n/a	n/a	1	n/a	n/a	n/a	n/a	n/a
491.872	n/a	REC_WORD	245936	wordpools/wasnorm_wordpool_less_exclusions.txt	LTP274	ltpFR	4	1	0	VIKING	1565	n/a	n/a	1	n/a	n/a	n/a	n/a	n/a
504.13	n/a	REC_WORD	252065	wordpools/wasnorm_wordpool_less_exclusions.txt	LTP274	ltpFR	4	1	0	LAGOON	795	n/a	n/a	1	n/a	n/a	n/a	n/a	n/a
554.512	n/a	WORD	277256	wordpools/wasnorm_wordpool_less_exclusions.txt	LTP274	ltpFR	4	2	1	BOSS	152	n/a	n/a	1	0.57763671875	0.412841796875	1	upper	zerothre.ttf
558.556	n/a	WORD	279278	wordpools/wasnorm_wordpool_less_exclusions.txt	LTP274	ltpFR	4	2	1	CUB	419	n/a	n/a	1	0.57763671875	0.412841796875	1	upper	zerothre.ttf
562.65	n/a	WORD	281325	wordpools/wasnorm_wordpool_less_exclusions.txt	LTP274	ltpFR	4	2	1	ROD	1203	n/a	n/a	0	0.57763671875	0.412841796875	1	upper	zerothre.ttf
566.728	n/a	WORD	283364	wordpools/wasnorm_wordpool_less_exclusions.txt	LTP274	ltpFR	4	2	1	BRUNETTE	181	n/a	n/a	1	0.57763671875	0.412841796875	1	upper	zerothre.ttf
570.688	n/a	WORD	285344	wordpools/wasnorm_wordpool_less_exclusions.txt	LTP274	ltpFR	4	2	1	ALLEY	15	n/a	n/a	0	0.57763671875	0.412841796875	1	upper	zerothre.ttf
574.748	n/a	WORD	287374	wordpools/wasnorm_wordpool_less_exclusions.txt	LTP274	ltpFR	4	2	0	LEOPARD	812	n/a	n/a	0	0.422607421875	0.5869140625	0	lower	amplitud.ttf
578.858	n/a	WORD	289429	wordpools/wasnorm_wordpool_less_exclusions.txt	LTP274	ltpFR	4	2	0	BOAT	144	n/a	n/a	1	0.422607421875	0.5869140625	0	lower	amplitud.ttf
582.836	n/a	WORD	291418	wordpools/wasnorm_wordpool_less_exclusions.txt	LTP274	ltpFR	4	2	0	BANNER	85	n/a	n/a	1	0.422607421875	0.5869140625	0	lower	amplitud.ttf
586.68	n/a	WORD	293340	wordpools/wasnorm_wordpool_less_exclusions.txt	LTP274	ltpFR	4	2	0	GRASS	655	n/a	n/a	1	0.422607421875	0.5869140625	0	lower	amplitud.ttf
590.576	n/a	WORD	295288	wordpools/wasnorm_wordpool_less_exclusions.txt	LTP274	ltpFR	4	2	0	SCENERY	1247	n/a	n/a	1	0.422607421875	0.5869140625	0	lower	amplitud.ttf
594.704	n/a	WORD	297352	wordpools/wasnorm_wordpool_less_exclusions.txt	LTP274	ltpFR	4	2	0	MUFFIN	929	n/a	n/a	0	0.422607421875	0.5869140625	0	lower	amplitud.ttf
598.896	n/a	WORD	299448	wordpools/wasnorm_wordpool_less_exclusions.txt	LTP274	ltpFR	4	2	1	BAKER	71	n/a	n/a	1	0.57763671875	0.412841796875	1	upper	zerothre.ttf
602.924	n/a	WORD	301462	wordpools/wasnorm_wordpool_less_exclusions.txt	LTP274	ltpFR	4	2	1	BROCCOLI	176	n/a	n/a	0	0.57763671875	0.412841796875	1	upper	zerothre.ttf
606.802	n/a	WORD	303401	wordpools/wasnorm_wordpool_less_exclusions.txt	LTP274	ltpFR	4	2	1	CLIPPERS	324	n/a	n/a	0	0.57763671875	0.412841796875	1	upper	zerothre.ttf
611.01	n/a	WORD	305505	wordpools/wasnorm_wordpool_less_exclusions.txt	LTP274	ltpFR	4	2	0	VESSEL	1558	n/a	n/a	0	0.422607421875	0.5869140625	0	lower	amplitud.ttf
615.038	n/a	WORD	307519	wordpools/wasnorm_wordpool_less_exclusions.txt	LTP274	ltpFR	4	2	0	ELBOW	520	n/a	n/a	0	0.422607421875	0.5869140625	0	lower	amplitud.ttf
620.93	n/a	REC_START	310465	n/a	LTP274	ltpFR	4	2	n/a	n/a	n/a	n/a	n/a	n/a	n/a	n/a	n/a	n/a	n/a
623.172	n/a	REC_WORD	311586	wordpools/wasnorm_wordpool_less_exclusions.txt	LTP274	ltpFR	4	2	0	ELBOW	520	n/a	n/a	0	n/a	n/a	n/a	n/a	n/a
625.88	n/a	REC_WORD	312940	wordpools/wasnorm_wordpool_less_exclusions.txt	LTP274	ltpFR	4	2	1	CLIPPERS	324	n/a	n/a	0	n/a	n/a	n/a	n/a	n/a
710.264	n/a	WORD	355132	wordpools/wasnorm_wordpool_less_exclusions.txt	LTP274	ltpFR	4	3	-1	SCULPTURE	1258	n/a	n/a	-1	1.0	1.0	1	upper	Verdana.ttf
714.358	n/a	WORD	357179	wordpools/wasnorm_wordpool_less_exclusions.txt	LTP274	ltpFR	4	3	-1	PATROL	1027	n/a	n/a	-1	1.0	1.0	1	upper	Verdana.ttf
718.218	n/a	WORD	359109	wordpools/wasnorm_wordpool_less_exclusions.txt	LTP274	ltpFR	4	3	-1	FLOOR	581	n/a	n/a	-1	1.0	1.0	1	upper	Verdana.ttf
722.28	n/a	WORD	361140	wordpools/wasnorm_wordpool_less_exclusions.txt	LTP274	ltpFR	4	3	-1	CEILING	265	n/a	n/a	-1	1.0	1.0	1	upper	Verdana.ttf
726.306	n/a	WORD	363153	wordpools/wasnorm_wordpool_less_exclusions.txt	LTP274	ltpFR	4	3	-1	MOUSE	925	n/a	n/a	-1	1.0	1.0	1	upper	Verdana.ttf
730.284	n/a	WORD	365142	wordpools/wasnorm_wordpool_less_exclusions.txt	LTP274	ltpFR	4	3	-1	SPACE	1345	n/a	n/a	-1	1.0	1.0	1	upper	Verdana.ttf
734.478	n/a	WORD	367239	wordpools/wasnorm_wordpool_less_exclusions.txt	LTP274	ltpFR	4	3	-1	TAXI	1438	n/a	n/a	-1	1.0	1.0	1	upper	Verdana.ttf
738.572	n/a	WORD	369286	wordpools/wasnorm_wordpool_less_exclusions.txt	LTP274	ltpFR	4	3	-1	KITTEN	780	n/a	n/a	-1	1.0	1.0	1	upper	Verdana.ttf
742.568	n/a	WORD	371284	wordpools/wasnorm_wordpool_less_exclusions.txt	LTP274	ltpFR	4	3	-1	SPIDER	1351	n/a	n/a	-1	1.0	1.0	1	upper	Verdana.ttf
746.446	n/a	WORD	373223	wordpools/wasnorm_wordpool_less_exclusions.txt	LTP274	ltpFR	4	3	-1	LADY	794	n/a	n/a	-1	1.0	1.0	1	upper	Verdana.ttf
750.572	n/a	WORD	375286	wordpools/wasnorm_wordpool_less_exclusions.txt	LTP274	ltpFR	4	3	-1	PERSONNEL	1053	n/a	n/a	-1	1.0	1.0	1	upper	Verdana.ttf
754.632	n/a	WORD	377316	wordpools/wasnorm_wordpool_less_exclusions.txt	LTP274	ltpFR	4	3	-1	PAINTING	1005	n/a	n/a	-1	1.0	1.0	1	upper	Verdana.ttf
758.528	n/a	WORD	379264	wordpools/wasnorm_wordpool_less_exclusions.txt	LTP274	ltpFR	4	3	-1	TEMPLE	1448	n/a	n/a	-1	1.0	1.0	1	upper	Verdana.ttf
762.388	n/a	WORD	381194	wordpools/wasnorm_wordpool_less_exclusions.txt	LTP274	ltpFR	4	3	-1	ROSE	1212	n/a	n/a	-1	1.0	1.0	1	upper	Verdana.ttf
766.232	n/a	WORD	383116	wordpools/wasnorm_wordpool_less_exclusions.txt	LTP274	ltpFR	4	3	-1	COSTUME	383	n/a	n/a	-1	1.0	1.0	1	upper	Verdana.ttf
770.41	n/a	WORD	385205	wordpools/wasnorm_wordpool_less_exclusions.txt	LTP274	ltpFR	4	3	-1	ROBE	1198	n/a	n/a	-1	1.0	1.0	1	upper	Verdana.ttf
776.484	n/a	REC_START	388242	n/a	LTP274	ltpFR	4	3	n/a	n/a	n/a	n/a	n/a	n/a	n/a	n/a	n/a	n/a	n/a
777.076	n/a	REC_WORD	388538	wordpools/wasnorm_wordpool_less_exclusions.txt	LTP274	ltpFR	4	3	-1	TEMPLE	1448	n/a	n/a	-1	n/a	n/a	n/a	n/a	n/a
777.698	n/a	REC_WORD	388849	wordpools/wasnorm_wordpool_less_exclusions.txt	LTP274	ltpFR	4	3	-1	ROSE	1212	n/a	n/a	-1	n/a	n/a	n/a	n/a	n/a
778.282	n/a	REC_WORD	389141	wordpools/wasnorm_wordpool_less_exclusions.txt	LTP274	ltpFR	4	3	n/a	STAR	1373	n/a	n/a	n/a	n/a	n/a	n/a	n/a	n/a
779.068	n/a	REC_WORD	389534	wordpools/wasnorm_wordpool_less_exclusions.txt	LTP274	ltpFR	4	3	-1	COSTUME	383	n/a	n/a	-1	n/a	n/a	n/a	n/a	n/a
779.734	n/a	REC_WORD	389867	wordpools/wasnorm_wordpool_less_exclusions.txt	LTP274	ltpFR	4	3	-1	ROBE	1198	n/a	n/a	-1	n/a	n/a	n/a	n/a	n/a
783.386	n/a	REC_WORD	391693	wordpools/wasnorm_wordpool_less_exclusions.txt	LTP274	ltpFR	4	3	-1	PERSONNEL	1053	n/a	n/a	-1	n/a	n/a	n/a	n/a	n/a
787.702	n/a	REC_WORD	393851	wordpools/wasnorm_wordpool_less_exclusions.txt	LTP274	ltpFR	4	3	-1	PATROL	1027	n/a	n/a	-1	n/a	n/a	n/a	n/a	n/a
791.864	n/a	REC_WORD	395932	wordpools/wasnorm_wordpool_less_exclusions.txt	LTP274	ltpFR	4	3	-1	SCULPTURE	1258	n/a	n/a	-1	n/a	n/a	n/a	n/a	n/a
792.864	n/a	REC_WORD_VV	396432	wordpools/wasnorm_wordpool_less_exclusions.txt	LTP274	ltpFR	4	3	n/a	<>	-1	n/a	n/a	n/a	n/a	n/a	n/a	n/a	n/a
793.37	n/a	REC_WORD	396685	wordpools/wasnorm_wordpool_less_exclusions.txt	LTP274	ltpFR	4	3	-1	CEILING	265	n/a	n/a	-1	n/a	n/a	n/a	n/a	n/a
795.546	n/a	REC_WORD	397773	wordpools/wasnorm_wordpool_less_exclusions.txt	LTP274	ltpFR	4	3	-1	PAINTING	1005	n/a	n/a	-1	n/a	n/a	n/a	n/a	n/a
803.054	n/a	REC_WORD	401527	wordpools/wasnorm_wordpool_less_exclusions.txt	LTP274	ltpFR	4	3	-1	LADY	794	n/a	n/a	-1	n/a	n/a	n/a	n/a	n/a
806.616	n/a	REC_WORD	403308	wordpools/wasnorm_wordpool_less_exclusions.txt	LTP274	ltpFR	4	3	-1	MOUSE	925	n/a	n/a	-1	n/a	n/a	n/a	n/a	n/a
807.452	n/a	REC_WORD	403726	wordpools/wasnorm_wordpool_less_exclusions.txt	LTP274	ltpFR	4	3	-1	KITTEN	780	n/a	n/a	-1	n/a	n/a	n/a	n/a	n/a
809.154	n/a	REC_WORD	404577	wordpools/wasnorm_wordpool_less_exclusions.txt	LTP274	ltpFR	4	3	-1	SPIDER	1351	n/a	n/a	-1	n/a	n/a	n/a	n/a	n/a
858.728	n/a	WORD	429364	wordpools/wasnorm_wordpool_less_exclusions.txt	LTP274	ltpFR	4	4	-1	TUXEDO	1525	n/a	n/a	-1	1.0	1.0	1	upper	Verdana.ttf
862.938	n/a	WORD	431469	wordpools/wasnorm_wordpool_less_exclusions.txt	LTP274	ltpFR	4	4	-1	LACE	792	n/a	n/a	-1	1.0	1.0	1	upper	Verdana.ttf
866.998	n/a	WORD	433499	wordpools/wasnorm_wordpool_less_exclusions.txt	LTP274	ltpFR	4	4	-1	BALLOT	76	n/a	n/a	-1	1.0	1.0	1	upper	Verdana.ttf
871.176	n/a	WORD	435588	wordpools/wasnorm_wordpool_less_exclusions.txt	LTP274	ltpFR	4	4	-1	PRESIDENT	1121	n/a	n/a	-1	1.0	1.0	1	upper	Verdana.ttf
875.252	n/a	WORD	437626	wordpools/wasnorm_wordpool_less_exclusions.txt	LTP274	ltpFR	4	4	-1	STEREO	1378	n/a	n/a	-1	1.0	1.0	1	upper	Verdana.ttf
879.314	n/a	WORD	439657	wordpools/wasnorm_wordpool_less_exclusions.txt	LTP274	ltpFR	4	4	-1	RIB	1188	n/a	n/a	-1	1.0	1.0	1	upper	Verdana.ttf
883.158	n/a	WORD	441579	wordpools/wasnorm_wordpool_less_exclusions.txt	LTP274	ltpFR	4	4	-1	CAFETERIA	217	n/a	n/a	-1	1.0	1.0	1	upper	Verdana.ttf
887.052	n/a	WORD	443526	wordpools/wasnorm_wordpool_less_exclusions.txt	LTP274	ltpFR	4	4	-1	DIRECTOR	471	n/a	n/a	-1	1.0	1.0	1	upper	Verdana.ttf
891.246	n/a	WORD	445623	wordpools/wasnorm_wordpool_less_exclusions.txt	LTP274	ltpFR	4	4	-1	ROBOT	1200	n/a	n/a	-1	1.0	1.0	1	upper	Verdana.ttf
895.19	n/a	WORD	447595	wordpools/wasnorm_wordpool_less_exclusions.txt	LTP274	ltpFR	4	4	-1	DRYER	503	n/a	n/a	-1	1.0	1.0	1	upper	Verdana.ttf
899.034	n/a	WORD	449517	wordpools/wasnorm_wordpool_less_exclusions.txt	LTP274	ltpFR	4	4	-1	CUSHION	428	n/a	n/a	-1	1.0	1.0	1	upper	Verdana.ttf
903.012	n/a	WORD	451506	wordpools/wasnorm_wordpool_less_exclusions.txt	LTP274	ltpFR	4	4	-1	CATERPILLAR	259	n/a	n/a	-1	1.0	1.0	1	upper	Verdana.ttf
906.84	n/a	WORD	453420	wordpools/wasnorm_wordpool_less_exclusions.txt	LTP274	ltpFR	4	4	-1	CURB	426	n/a	n/a	-1	1.0	1.0	1	upper	Verdana.ttf
910.934	n/a	WORD	455467	wordpools/wasnorm_wordpool_less_exclusions.txt	LTP274	ltpFR	4	4	-1	PLATE	1086	n/a	n/a	-1	1.0	1.0	1	upper	Verdana.ttf
914.944	n/a	WORD	457472	wordpools/wasnorm_wordpool_less_exclusions.txt	LTP274	ltpFR	4	4	-1	COOK	372	n/a	n/a	-1	1.0	1.0	1	upper	Verdana.ttf
918.972	n/a	WORD	459486	wordpools/wasnorm_wordpool_less_exclusions.txt	LTP274	ltpFR	4	4	-1	TAPE	1433	n/a	n/a	-1	1.0	1.0	1	upper	Verdana.ttf
924.83	n/a	REC_START	462415	n/a	LTP274	ltpFR	4	4	n/a	n/a	n/a	n/a	n/a	n/a	n/a	n/a	n/a	n/a	n/a
926.646	n/a	REC_WORD	463323	wordpools/wasnorm_wordpool_less_exclusions.txt	LTP274	ltpFR	4	4	-1	PLATE	1086	n/a	n/a	-1	n/a	n/a	n/a	n/a	n/a
927.244	n/a	REC_WORD	463622	wordpools/wasnorm_wordpool_less_exclusions.txt	LTP274	ltpFR	4	4	-1	COOK	372	n/a	n/a	-1	n/a	n/a	n/a	n/a	n/a
927.85	n/a	REC_WORD	463925	wordpools/wasnorm_wordpool_less_exclusions.txt	LTP274	ltpFR	4	4	-1	TAPE	1433	n/a	n/a	-1	n/a	n/a	n/a	n/a	n/a
933.314	n/a	REC_WORD	466657	wordpools/wasnorm_wordpool_less_exclusions.txt	LTP274	ltpFR	4	4	-1	ROBOT	1200	n/a	n/a	-1	n/a	n/a	n/a	n/a	n/a
936.75	n/a	REC_WORD	468375	wordpools/wasnorm_wordpool_less_exclusions.txt	LTP274	ltpFR	4	4	-1	PRESIDENT	1121	n/a	n/a	-1	n/a	n/a	n/a	n/a	n/a
941.4	n/a	REC_WORD	470700	wordpools/wasnorm_wordpool_less_exclusions.txt	LTP274	ltpFR	4	4	-1	BALLOT	76	n/a	n/a	-1	n/a	n/a	n/a	n/a	n/a
977.192	n/a	REC_WORD	488596	wordpools/wasnorm_wordpool_less_exclusions.txt	LTP274	ltpFR	4	4	-1	TUXEDO	1525	n/a	n/a	-1	n/a	n/a	n/a	n/a	n/a
1005.078	n/a	WORD	502539	wordpools/wasnorm_wordpool_less_exclusions.txt	LTP274	ltpFR	4	5	1	FOOT	590	n/a	n/a	1	0.57763671875	0.412841796875	1	upper	zerothre.ttf
1009.188	n/a	WORD	504594	wordpools/wasnorm_wordpool_less_exclusions.txt	LTP274	ltpFR	4	5	1	MOSS	918	n/a	n/a	1	0.57763671875	0.412841796875	1	upper	zerothre.ttf
1013.316	n/a	WORD	506658	wordpools/wasnorm_wordpool_less_exclusions.txt	LTP274	ltpFR	4	5	1	LUMBER	848	n/a	n/a	0	0.57763671875	0.412841796875	1	upper	zerothre.ttf
1017.41	n/a	WORD	508705	wordpools/wasnorm_wordpool_less_exclusions.txt	LTP274	ltpFR	4	5	1	POLYESTER	1100	n/a	n/a	0	0.57763671875	0.412841796875	1	upper	zerothre.ttf
1021.254	n/a	WORD	510627	wordpools/wasnorm_wordpool_less_exclusions.txt	LTP274	ltpFR	4	5	1	TIGER	1467	n/a	n/a	1	0.57763671875	0.412841796875	1	upper	zerothre.ttf
1025.414	n/a	WORD	512707	wordpools/wasnorm_wordpool_less_exclusions.txt	LTP274	ltpFR	4	5	1	HEEL	700	n/a	n/a	0	0.57763671875	0.412841796875	1	upper	zerothre.ttf
1029.508	n/a	WORD	514754	wordpools/wasnorm_wordpool_less_exclusions.txt	LTP274	ltpFR	4	5	1	BOUQUET	157	n/a	n/a	0	0.57763671875	0.412841796875	1	upper	zerothre.ttf
1033.336	n/a	WORD	516668	wordpools/wasnorm_wordpool_less_exclusions.txt	LTP274	ltpFR	4	5	1	ATTIRE	57	n/a	n/a	0	0.57763671875	0.412841796875	1	upper	zerothre.ttf
1037.18	n/a	WORD	518590	wordpools/wasnorm_wordpool_less_exclusions.txt	LTP274	ltpFR	4	5	1	ANIMAL	23	n/a	n/a	1	0.57763671875	0.412841796875	1	upper	zerothre.ttf
1041.04	n/a	WORD	520520	wordpools/wasnorm_wordpool_less_exclusions.txt	LTP274	ltpFR	4	5	1	PIKE	1067	n/a	n/a	1	0.57763671875	0.412841796875	1	upper	zerothre.ttf
1045.018	n/a	WORD	522509	wordpools/wasnorm_wordpool_less_exclusions.txt	LTP274	ltpFR	4	5	1	RACKET	1155	n/a	n/a	0	0.57763671875	0.412841796875	1	upper	zerothre.ttf
1049.18	n/a	WORD	524590	wordpools/wasnorm_wordpool_less_exclusions.txt	LTP274	ltpFR	4	5	1	TRUMPET	1513	n/a	n/a	0	0.57763671875	0.412841796875	1	upper	zerothre.ttf
1053.024	n/a	WORD	526512	wordpools/wasnorm_wordpool_less_exclusions.txt	LTP274	ltpFR	4	5	1	IDOL	733	n/a	n/a	1	0.57763671875	0.412841796875	1	upper	zerothre.ttf
1057.168	n/a	WORD	528584	wordpools/wasnorm_wordpool_less_exclusions.txt	LTP274	ltpFR	4	5	1	GALAXY	617	n/a	n/a	0	0.57763671875	0.412841796875	1	upper	zerothre.ttf
1061.162	n/a	WORD	530581	wordpools/wasnorm_wordpool_less_exclusions.txt	LTP274	ltpFR	4	5	1	LUNCH	849	n/a	n/a	0	0.57763671875	0.412841796875	1	upper	zerothre.ttf
1065.222	n/a	WORD	532611	wordpools/wasnorm_wordpool_less_exclusions.txt	LTP274	ltpFR	4	5	1	COOKBOOK	373	n/a	n/a	0	0.57763671875	0.412841796875	1	upper	zerothre.ttf
1070.88	n/a	REC_START	535440	n/a	LTP274	ltpFR	4	5	n/a	n/a	n/a	n/a	n/a	n/a	n/a	n/a	n/a	n/a	n/a
1073.426	n/a	REC_WORD	536713	wordpools/wasnorm_wordpool_less_exclusions.txt	LTP274	ltpFR	4	5	1	COOKBOOK	373	n/a	n/a	0	n/a	n/a	n/a	n/a	n/a
1074.454	n/a	REC_WORD	537227	wordpools/wasnorm_wordpool_less_exclusions.txt	LTP274	ltpFR	4	5	1	GALAXY	617	n/a	n/a	0	n/a	n/a	n/a	n/a	n/a
1104.594	n/a	REC_WORD	552297	wordpools/wasnorm_wordpool_less_exclusions.txt	LTP274	ltpFR	4	5	1	FOOT	590	n/a	n/a	1	n/a	n/a	n/a	n/a	n/a
1169.3	n/a	WORD	584650	wordpools/wasnorm_wordpool_less_exclusions.txt	LTP274	ltpFR	4	6	0	BED	110	n/a	n/a	1	0.422607421875	0.5869140625	0	lower	amplitud.ttf
1173.312	n/a	WORD	586656	wordpools/wasnorm_wordpool_less_exclusions.txt	LTP274	ltpFR	4	6	0	CORAL	378	n/a	n/a	1	0.422607421875	0.5869140625	0	lower	amplitud.ttf
1177.306	n/a	WORD	588653	wordpools/wasnorm_wordpool_less_exclusions.txt	LTP274	ltpFR	4	6	0	CROOK	412	n/a	n/a	1	0.422607421875	0.5869140625	0	lower	amplitud.ttf
1181.234	n/a	WORD	590617	wordpools/wasnorm_wordpool_less_exclusions.txt	LTP274	ltpFR	4	6	0	LETTER	813	n/a	n/a	0	0.422607421875	0.5869140625	0	lower	amplitud.ttf
1185.178	n/a	WORD	592589	wordpools/wasnorm_wordpool_less_exclusions.txt	LTP274	ltpFR	4	6	0	BOULDER	155	n/a	n/a	1	0.422607421875	0.5869140625	0	lower	amplitud.ttf
1189.406	n/a	WORD	594703	wordpools/wasnorm_wordpool_less_exclusions.txt	LTP274	ltpFR	4	6	0	UNDERWEAR	1537	n/a	n/a	0	0.422607421875	0.5869140625	0	lower	amplitud.ttf
1193.382	n/a	WORD	596691	wordpools/wasnorm_wordpool_less_exclusions.txt	LTP274	ltpFR	4	6	0	SKETCH	1315	n/a	n/a	0	0.422607421875	0.5869140625	0	lower	amplitud.ttf
1197.376	n/a	WORD	598688	wordpools/wasnorm_wordpool_less_exclusions.txt	LTP274	ltpFR	4	6	0	PICTURE	1061	n/a	n/a	0	0.422607421875	0.5869140625	0	lower	amplitud.ttf
1201.488	n/a	WORD	600744	wordpools/wasnorm_wordpool_less_exclusions.txt	LTP274	ltpFR	4	6	0	FUR	615	n/a	n/a	0	0.422607421875	0.5869140625	0	lower	amplitud.ttf
1205.516	n/a	WORD	602758	wordpools/wasnorm_wordpool_less_exclusions.txt	LTP274	ltpFR	4	6	0	BARN	89	n/a	n/a	1	0.422607421875	0.5869140625	0	lower	amplitud.ttf
1209.576	n/a	WORD	604788	wordpools/wasnorm_wordpool_less_exclusions.txt	LTP274	ltpFR	4	6	0	CHIMNEY	301	n/a	n/a	1	0.422607421875	0.5869140625	0	lower	amplitud.ttf
1213.404	n/a	WORD	606702	wordpools/wasnorm_wordpool_less_exclusions.txt	LTP274	ltpFR	4	6	0	ASHTRAY	45	n/a	n/a	0	0.422607421875	0.5869140625	0	lower	amplitud.ttf
1217.432	n/a	WORD	608716	wordpools/wasnorm_wordpool_less_exclusions.txt	LTP274	ltpFR	4	6	0	PLANET	1082	n/a	n/a	1	0.422607421875	0.5869140625	0	lower	amplitud.ttf
1221.274	n/a	WORD	610637	wordpools/wasnorm_wordpool_less_exclusions.txt	LTP274	ltpFR	4	6	0	NIGHTGOWN	953	n/a	n/a	0	0.422607421875	0.5869140625	0	lower	amplitud.ttf
1225.302	n/a	WORD	612651	wordpools/wasnorm_wordpool_less_exclusions.txt	LTP274	ltpFR	4	6	0	CABINET	212	n/a	n/a	1	0.422607421875	0.5869140625	0	lower	amplitud.ttf
1229.496	n/a	WORD	614748	wordpools/wasnorm_wordpool_less_exclusions.txt	LTP274	ltpFR	4	6	0	CELLO	268	n/a	n/a	1	0.422607421875	0.5869140625	0	lower	amplitud.ttf
1235.204	n/a	REC_START	617602	n/a	LTP274	ltpFR	4	6	n/a	n/a	n/a	n/a	n/a	n/a	n/a	n/a	n/a	n/a	n/a
1236.506	n/a	REC_WORD	618253	wordpools/wasnorm_wordpool_less_exclusions.txt	LTP274	ltpFR	4	6	0	NIGHTGOWN	953	n/a	n/a	0	n/a	n/a	n/a	n/a	n/a
1237.532	n/a	REC_WORD	618766	wordpools/wasnorm_wordpool_less_exclusions.txt	LTP274	ltpFR	4	6	0	CELLO	268	n/a	n/a	1	n/a	n/a	n/a	n/a	n/a
1238.498	n/a	REC_WORD	619249	wordpools/wasnorm_wordpool_less_exclusions.txt	LTP274	ltpFR	4	6	0	PLANET	1082	n/a	n/a	1	n/a	n/a	n/a	n/a	n/a
1241.248	n/a	REC_WORD	620624	wordpools/wasnorm_wordpool_less_exclusions.txt	LTP274	ltpFR	4	6	0	CROOK	412	n/a	n/a	1	n/a	n/a	n/a	n/a	n/a
1242.408	n/a	REC_WORD	621204	wordpools/wasnorm_wordpool_less_exclusions.txt	LTP274	ltpFR	4	6	0	CORAL	378	n/a	n/a	1	n/a	n/a	n/a	n/a	n/a
1246.748	n/a	REC_WORD	623374	wordpools/wasnorm_wordpool_less_exclusions.txt	LTP274	ltpFR	4	6	0	CHIMNEY	301	n/a	n/a	1	n/a	n/a	n/a	n/a	n/a
1247.644	n/a	REC_WORD	623822	wordpools/wasnorm_wordpool_less_exclusions.txt	LTP274	ltpFR	4	6	0	ASHTRAY	45	n/a	n/a	0	n/a	n/a	n/a	n/a	n/a
1249.154	n/a	REC_WORD	624577	wordpools/wasnorm_wordpool_less_exclusions.txt	LTP274	ltpFR	4	6	0	FUR	615	n/a	n/a	0	n/a	n/a	n/a	n/a	n/a
1251.156	n/a	REC_WORD	625578	wordpools/wasnorm_wordpool_less_exclusions.txt	LTP274	ltpFR	4	6	0	BARN	89	n/a	n/a	1	n/a	n/a	n/a	n/a	n/a
1322.458	n/a	WORD	661229	wordpools/wasnorm_wordpool_less_exclusions.txt	LTP274	ltpFR	4	7	0	BEET	115	n/a	n/a	0	0.422607421875	0.5869140625	0	lower	amplitud.ttf
1326.586	n/a	WORD	663293	wordpools/wasnorm_wordpool_less_exclusions.txt	LTP274	ltpFR	4	7	0	CHIMPANZEE	302	n/a	n/a	1	0.422607421875	0.5869140625	0	lower	amplitud.ttf
1330.78	n/a	WORD	665390	wordpools/wasnorm_wordpool_less_exclusions.txt	LTP274	ltpFR	4	7	0	JEANS	752	n/a	n/a	1	0.422607421875	0.5869140625	0	lower	amplitud.ttf
1334.906	n/a	WORD	667453	wordpools/wasnorm_wordpool_less_exclusions.txt	LTP274	ltpFR	4	7	1	ROUGE	1213	n/a	n/a	1	0.57763671875	0.412841796875	1	upper	zerothre.ttf
1338.818	n/a	WORD	669409	wordpools/wasnorm_wordpool_less_exclusions.txt	LTP274	ltpFR	4	7	1	BOWL	158	n/a	n/a	0	0.57763671875	0.412841796875	1	upper	zerothre.ttf
1342.812	n/a	WORD	671406	wordpools/wasnorm_wordpool_less_exclusions.txt	LTP274	ltpFR	4	7	0	MAMMAL	861	n/a	n/a	1	0.422607421875	0.5869140625	0	lower	amplitud.ttf
1346.872	n/a	WORD	673436	wordpools/wasnorm_wordpool_less_exclusions.txt	LTP274	ltpFR	4	7	0	RACCOON	1153	n/a	n/a	1	0.422607421875	0.5869140625	0	lower	amplitud.ttf
1350.768	n/a	WORD	675384	wordpools/wasnorm_wordpool_less_exclusions.txt	LTP274	ltpFR	4	7	1	HAND	683	n/a	n/a	0	0.57763671875	0.412841796875	1	upper	zerothre.ttf
1354.91	n/a	WORD	677455	wordpools/wasnorm_wordpool_less_exclusions.txt	LTP274	ltpFR	4	7	1	RANCH	1166	n/a	n/a	0	0.57763671875	0.412841796875	1	upper	zerothre.ttf
1358.938	n/a	WORD	679469	wordpools/wasnorm_wordpool_less_exclusions.txt	LTP274	ltpFR	4	7	1	COLT	349	n/a	n/a	0	0.57763671875	0.412841796875	1	upper	zerothre.ttf
1362.898	n/a	WORD	681449	wordpools/wasnorm_wordpool_less_exclusions.txt	LTP274	ltpFR	4	7	1	THORN	1459	n/a	n/a	0	0.57763671875	0.412841796875	1	upper	zerothre.ttf
1366.726	n/a	WORD	683363	wordpools/wasnorm_wordpool_less_exclusions.txt	LTP274	ltpFR	4	7	1	RELATIVE	1182	n/a	n/a	1	0.57763671875	0.412841796875	1	upper	zerothre.ttf
1370.688	n/a	WORD	685344	wordpools/wasnorm_wordpool_less_exclusions.txt	LTP274	ltpFR	4	7	1	DAD	433	n/a	n/a	1	0.57763671875	0.412841796875	1	upper	zerothre.ttf
1374.532	n/a	WORD	687266	wordpools/wasnorm_wordpool_less_exclusions.txt	LTP274	ltpFR	4	7	0	VASE	1549	n/a	n/a	n/a	0.422607421875	0.5869140625	0	lower	amplitud.ttf
1377.56	n/a	SLOW_MSG	688780	n/a	LTP274	ltpFR	4	7	n/a	n/a	n/a	n/a	n/a	n/a	n/a	n/a	n/a	n/a	n/a
1380.072	n/a	WORD	690036	wordpools/wasnorm_wordpool_less_exclusions.txt	LTP274	ltpFR	4	7	0	RAIL	1161	n/a	n/a	0	0.422607421875	0.5869140625	0	lower	amplitud.ttf
1384.016	n/a	WORD	692008	wordpools/wasnorm_wordpool_less_exclusions.txt	LTP274	ltpFR	4	7	0	BASKET	95	n/a	n/a	1	0.422607421875	0.5869140625	0	lower	amplitud.ttf
1390.042	n/a	REC_START	695021	n/a	LTP274	ltpFR	4	7	n/a	n/a	n/a	n/a	n/a	n/a	n/a	n/a	n/a	n/a	n/a
1392.044	n/a	REC_WORD	696022	wordpools/wasnorm_wordpool_less_exclusions.txt	LTP274	ltpFR	4	7	0	BASKET	95	n/a	n/a	1	n/a	n/a	n/a	n/a	n/a
1393.852	n/a	REC_WORD	696926	wordpools/wasnorm_wordpool_less_exclusions.txt	LTP274	ltpFR	4	7	1	DAD	433	n/a	n/a	1	n/a	n/a	n/a	n/a	n/a
1395.646	n/a	REC_WORD	697823	wordpools/wasnorm_wordpool_less_exclusions.txt	LTP274	ltpFR	4	7	1	RELATIVE	1182	n/a	n/a	1	n/a	n/a	n/a	n/a	n/a
1480.24	n/a	WORD	740120	wordpools/wasnorm_wordpool_less_exclusions.txt	LTP274	ltpFR	4	8	0	RAM	1165	n/a	n/a	1	0.422607421875	0.5869140625	0	lower	amplitud.ttf
1484.068	n/a	WORD	742034	wordpools/wasnorm_wordpool_less_exclusions.txt	LTP274	ltpFR	4	8	0	DASHBOARD	441	n/a	n/a	1	0.422607421875	0.5869140625	0	lower	amplitud.ttf
1488.246	n/a	WORD	744123	wordpools/wasnorm_wordpool_less_exclusions.txt	LTP274	ltpFR	4	8	0	KEY	773	n/a	n/a	0	0.422607421875	0.5869140625	0	lower	amplitud.ttf
1492.272	n/a	WORD	746136	wordpools/wasnorm_wordpool_less_exclusions.txt	LTP274	ltpFR	4	8	0	WAND	1586	n/a	n/a	0	0.422607421875	0.5869140625	0	lower	amplitud.ttf
1496.168	n/a	WORD	748084	wordpools/wasnorm_wordpool_less_exclusions.txt	LTP274	ltpFR	4	8	0	DRAWER	493	n/a	n/a	1	0.422607421875	0.5869140625	0	lower	amplitud.ttf
1500.078	n/a	WORD	750039	wordpools/wasnorm_wordpool_less_exclusions.txt	LTP274	ltpFR	4	8	1	CASHIER	254	n/a	n/a	1	0.57763671875	0.412841796875	1	upper	zerothre.ttf
1504.106	n/a	WORD	752053	wordpools/wasnorm_wordpool_less_exclusions.txt	LTP274	ltpFR	4	8	1	WICK	1607	n/a	n/a	0	0.57763671875	0.412841796875	1	upper	zerothre.ttf
1508.134	n/a	WORD	754067	wordpools/wasnorm_wordpool_less_exclusions.txt	LTP274	ltpFR	4	8	1	OATMEAL	967	n/a	n/a	0	0.57763671875	0.412841796875	1	upper	zerothre.ttf
1512.328	n/a	WORD	756164	wordpools/wasnorm_wordpool_less_exclusions.txt	LTP274	ltpFR	4	8	1	CHIEF	298	n/a	n/a	1	0.57763671875	0.412841796875	1	upper	zerothre.ttf
1516.154	n/a	WORD	758077	wordpools/wasnorm_wordpool_less_exclusions.txt	LTP274	ltpFR	4	8	1	TREASURE	1500	n/a	n/a	0	0.57763671875	0.412841796875	1	upper	zerothre.ttf
1520.348	n/a	WORD	760174	wordpools/wasnorm_wordpool_less_exclusions.txt	LTP274	ltpFR	4	8	0	SHEEP	1278	n/a	n/a	0	0.422607421875	0.5869140625	0	lower	amplitud.ttf
1524.276	n/a	WORD	762138	wordpools/wasnorm_wordpool_less_exclusions.txt	LTP274	ltpFR	4	8	0	SHELF	1280	n/a	n/a	1	0.422607421875	0.5869140625	0	lower	amplitud.ttf
1528.304	n/a	WORD	764152	wordpools/wasnorm_wordpool_less_exclusions.txt	LTP274	ltpFR	4	8	0	FRIAR	605	n/a	n/a	1	0.422607421875	0.5869140625	0	lower	amplitud.ttf
1532.264	n/a	WORD	766132	wordpools/wasnorm_wordpool_less_exclusions.txt	LTP274	ltpFR	4	8	1	MONK	910	n/a	n/a	1	0.57763671875	0.412841796875	1	upper	zerothre.ttf
1536.242	n/a	WORD	768121	wordpools/wasnorm_wordpool_less_exclusions.txt	LTP274	ltpFR	4	8	1	BOOTH	151	n/a	n/a	0	0.57763671875	0.412841796875	1	upper	zerothre.ttf
1540.136	n/a	WORD	770068	wordpools/wasnorm_wordpool_less_exclusions.txt	LTP274	ltpFR	4	8	1	MESSAGE	888	n/a	n/a	0	0.57763671875	0.412841796875	1	upper	zerothre.ttf
1546.11	n/a	REC_START	773055	n/a	LTP274	ltpFR	4	8	n/a	n/a	n/a	n/a	n/a	n/a	n/a	n/a	n/a	n/a	n/a
1549.302	n/a	REC_WORD	774651	wordpools/wasnorm_wordpool_less_exclusions.txt	LTP274	ltpFR	4	8	0	SHEEP	1278	n/a	n/a	0	n/a	n/a	n/a	n/a	n/a
1550.524	n/a	REC_WORD	775262	wordpools/wasnorm_wordpool_less_exclusions.txt	LTP274	ltpFR	4	8	0	FRIAR	605	n/a	n/a	1	n/a	n/a	n/a	n/a	n/a
1561.904	n/a	REC_WORD	780952	wordpools/wasnorm_wordpool_less_exclusions.txt	LTP274	ltpFR	4	8	1	MESSAGE	888	n/a	n/a	0	n/a	n/a	n/a	n/a	n/a
1621.716	n/a	REST_REWET	810858	n/a	LTP274	ltpFR	4	8	n/a	n/a	n/a	n/a	n/a	n/a	n/a	n/a	n/a	n/a	n/a
1769.314	n/a	WORD	884657	wordpools/wasnorm_wordpool_less_exclusions.txt	LTP274	ltpFR	4	9	-1	UNCLE	1536	n/a	n/a	-1	1.0	1.0	1	upper	Verdana.ttf
1773.324	n/a	WORD	886662	wordpools/wasnorm_wordpool_less_exclusions.txt	LTP274	ltpFR	4	9	-1	TELEPHONE	1445	n/a	n/a	-1	1.0	1.0	1	upper	Verdana.ttf
1777.218	n/a	WORD	888609	wordpools/wasnorm_wordpool_less_exclusions.txt	LTP274	ltpFR	4	9	-1	TORNADO	1485	n/a	n/a	-1	1.0	1.0	1	upper	Verdana.ttf
1781.162	n/a	WORD	890581	wordpools/wasnorm_wordpool_less_exclusions.txt	LTP274	ltpFR	4	9	-1	ONION	977	n/a	n/a	-1	1.0	1.0	1	upper	Verdana.ttf
1785.322	n/a	WORD	892661	wordpools/wasnorm_wordpool_less_exclusions.txt	LTP274	ltpFR	4	9	-1	FRAGRANCE	599	n/a	n/a	-1	1.0	1.0	1	upper	Verdana.ttf
1789.184	n/a	WORD	894592	wordpools/wasnorm_wordpool_less_exclusions.txt	LTP274	ltpFR	4	9	-1	PUDDING	1139	n/a	n/a	-1	1.0	1.0	1	upper	Verdana.ttf
1793.194	n/a	WORD	896597	wordpools/wasnorm_wordpool_less_exclusions.txt	LTP274	ltpFR	4	9	-1	REPTILE	1185	n/a	n/a	-1	1.0	1.0	1	upper	Verdana.ttf
1797.272	n/a	WORD	898636	wordpools/wasnorm_wordpool_less_exclusions.txt	LTP274	ltpFR	4	9	-1	HURRICANE	727	n/a	n/a	-1	1.0	1.0	1	upper	Verdana.ttf
1801.316	n/a	WORD	900658	wordpools/wasnorm_wordpool_less_exclusions.txt	LTP274	ltpFR	4	9	-1	STRAW	1390	n/a	n/a	-1	1.0	1.0	1	upper	Verdana.ttf
1805.428	n/a	WORD	902714	wordpools/wasnorm_wordpool_less_exclusions.txt	LTP274	ltpFR	4	9	-1	STABLE	1363	n/a	n/a	-1	1.0	1.0	1	upper	Verdana.ttf
1809.622	n/a	WORD	904811	wordpools/wasnorm_wordpool_less_exclusions.txt	LTP274	ltpFR	4	9	-1	PORCH	1106	n/a	n/a	-1	1.0	1.0	1	upper	Verdana.ttf
1813.582	n/a	WORD	906791	wordpools/wasnorm_wordpool_less_exclusions.txt	LTP274	ltpFR	4	9	-1	PERFUME	1049	n/a	n/a	-1	1.0	1.0	1	upper	Verdana.ttf
1817.76	n/a	WORD	908880	wordpools/wasnorm_wordpool_less_exclusions.txt	LTP274	ltpFR	4	9	-1	MICROPHONE	890	n/a	n/a	-1	1.0	1.0	1	upper	Verdana.ttf
1821.67	n/a	WORD	910835	wordpools/wasnorm_wordpool_less_exclusions.txt	LTP274	ltpFR	4	9	-1	POLICE	1098	n/a	n/a	-1	1.0	1.0	1	upper	Verdana.ttf
1825.73	n/a	WORD	912865	wordpools/wasnorm_wordpool_less_exclusions.txt	LTP274	ltpFR	4	9	-1	DETECTIVE	454	n/a	n/a	-1	1.0	1.0	1	upper	Verdana.ttf
1829.624	n/a	WORD	914812	wordpools/wasnorm_wordpool_less_exclusions.txt	LTP274	ltpFR	4	9	-1	LASER	801	n/a	n/a	-1	1.0	1.0	1	upper	Verdana.ttf
1835.416	n/a	REC_START	917708	n/a	LTP274	ltpFR	4	9	n/a	n/a	n/a	n/a	n/a	n/a	n/a	n/a	n/a	n/a	n/a
1836.468	n/a	REC_WORD	918234	wordpools/wasnorm_wordpool_less_exclusions.txt	LTP274	ltpFR	4	9	-1	POLICE	1098	n/a	n/a	-1	n/a	n/a	n/a	n/a	n/a
1837.094	n/a	REC_WORD	918547	wordpools/wasnorm_wordpool_less_exclusions.txt	LTP274	ltpFR	4	9	-1	DETECTIVE	454	n/a	n/a	-1	n/a	n/a	n/a	n/a	n/a
1837.726	n/a	REC_WORD	918863	wordpools/wasnorm_wordpool_less_exclusions.txt	LTP274	ltpFR	4	9	-1	LASER	801	n/a	n/a	-1	n/a	n/a	n/a	n/a	n/a
1840.732	n/a	REC_WORD	920366	wordpools/wasnorm_wordpool_less_exclusions.txt	LTP274	ltpFR	4	9	-1	FRAGRANCE	599	n/a	n/a	-1	n/a	n/a	n/a	n/a	n/a
1842.818	n/a	REC_WORD	921409	wordpools/wasnorm_wordpool_less_exclusions.txt	LTP274	ltpFR	4	9	-1	PERFUME	1049	n/a	n/a	-1	n/a	n/a	n/a	n/a	n/a
1845.344	n/a	REC_WORD	922672	wordpools/wasnorm_wordpool_less_exclusions.txt	LTP274	ltpFR	4	9	-1	UNCLE	1536	n/a	n/a	-1	n/a	n/a	n/a	n/a	n/a
1847.752	n/a	REC_WORD	923876	wordpools/wasnorm_wordpool_less_exclusions.txt	LTP274	ltpFR	4	9	-1	TELEPHONE	1445	n/a	n/a	-1	n/a	n/a	n/a	n/a	n/a
1850.318	n/a	REC_WORD	925159	wordpools/wasnorm_wordpool_less_exclusions.txt	LTP274	ltpFR	4	9	-1	HURRICANE	727	n/a	n/a	-1	n/a	n/a	n/a	n/a	n/a
1853.046	n/a	REC_WORD	926523	wordpools/wasnorm_wordpool_less_exclusions.txt	LTP274	ltpFR	4	9	-1	TORNADO	1485	n/a	n/a	-1	n/a	n/a	n/a	n/a	n/a
1891.936	n/a	REC_WORD	945968	wordpools/wasnorm_wordpool_less_exclusions.txt	LTP274	ltpFR	4	9	-1	STABLE	1363	n/a	n/a	-1	n/a	n/a	n/a	n/a	n/a
1893.22	n/a	REC_WORD	946610	wordpools/wasnorm_wordpool_less_exclusions.txt	LTP274	ltpFR	4	9	-1	PORCH	1106	n/a	n/a	-1	n/a	n/a	n/a	n/a	n/a
1894.196	n/a	REC_WORD	947098	wordpools/wasnorm_wordpool_less_exclusions.txt	LTP274	ltpFR	4	9	-1	STRAW	1390	n/a	n/a	-1	n/a	n/a	n/a	n/a	n/a
1915.346	n/a	WORD	957673	wordpools/wasnorm_wordpool_less_exclusions.txt	LTP274	ltpFR	4	10	1	YACHT	1629	n/a	n/a	0	0.57763671875	0.412841796875	1	upper	zerothre.ttf
1919.39	n/a	WORD	959695	wordpools/wasnorm_wordpool_less_exclusions.txt	LTP274	ltpFR	4	10	1	PIRATE	1074	n/a	n/a	1	0.57763671875	0.412841796875	1	upper	zerothre.ttf
1923.286	n/a	WORD	961643	wordpools/wasnorm_wordpool_less_exclusions.txt	LTP274	ltpFR	4	10	1	SUGAR	1401	n/a	n/a	0	0.57763671875	0.412841796875	1	upper	zerothre.ttf
1927.112	n/a	WORD	963556	wordpools/wasnorm_wordpool_less_exclusions.txt	LTP274	ltpFR	4	10	1	MONKEY	911	n/a	n/a	1	0.57763671875	0.412841796875	1	upper	zerothre.ttf
1931.106	n/a	WORD	965553	wordpools/wasnorm_wordpool_less_exclusions.txt	LTP274	ltpFR	4	10	1	BOULEVARD	156	n/a	n/a	0	0.57763671875	0.412841796875	1	upper	zerothre.ttf
1935.1	n/a	WORD	967550	wordpools/wasnorm_wordpool_less_exclusions.txt	LTP274	ltpFR	4	10	1	CHAUFFEUR	283	n/a	n/a	1	0.57763671875	0.412841796875	1	upper	zerothre.ttf
1939.112	n/a	WORD	969556	wordpools/wasnorm_wordpool_less_exclusions.txt	LTP274	ltpFR	4	10	1	SCREW	1254	n/a	n/a	0	0.57763671875	0.412841796875	1	upper	zerothre.ttf
1943.156	n/a	WORD	971578	wordpools/wasnorm_wordpool_less_exclusions.txt	LTP274	ltpFR	4	10	1	PIE	1062	n/a	n/a	0	0.57763671875	0.412841796875	1	upper	zerothre.ttf
1947.266	n/a	WORD	973633	wordpools/wasnorm_wordpool_less_exclusions.txt	LTP274	ltpFR	4	10	1	PRIMATE	1123	n/a	n/a	1	0.57763671875	0.412841796875	1	upper	zerothre.ttf
1951.378	n/a	WORD	975689	wordpools/wasnorm_wordpool_less_exclusions.txt	LTP274	ltpFR	4	10	1	MAYONNAISE	880	n/a	n/a	0	0.57763671875	0.412841796875	1	upper	zerothre.ttf
1955.44	n/a	WORD	977720	wordpools/wasnorm_wordpool_less_exclusions.txt	LTP274	ltpFR	4	10	1	SALT	1229	n/a	n/a	n/a	0.57763671875	0.412841796875	1	upper	zerothre.ttf
1958.468	n/a	SLOW_MSG	979234	n/a	LTP274	ltpFR	4	10	n/a	n/a	n/a	n/a	n/a	n/a	n/a	n/a	n/a	n/a	n/a
1960.964	n/a	WORD	980482	wordpools/wasnorm_wordpool_less_exclusions.txt	LTP274	ltpFR	4	10	1	FOLLOWER	589	n/a	n/a	1	0.57763671875	0.412841796875	1	upper	zerothre.ttf
1964.974	n/a	WORD	982487	wordpools/wasnorm_wordpool_less_exclusions.txt	LTP274	ltpFR	4	10	1	POLITICIAN	1099	n/a	n/a	1	0.57763671875	0.412841796875	1	upper	zerothre.ttf
1968.834	n/a	WORD	984417	wordpools/wasnorm_wordpool_less_exclusions.txt	LTP274	ltpFR	4	10	1	RULER	1216	n/a	n/a	1	0.57763671875	0.412841796875	1	upper	zerothre.ttf
1972.846	n/a	WORD	986423	wordpools/wasnorm_wordpool_less_exclusions.txt	LTP274	ltpFR	4	10	1	WORKER	1621	n/a	n/a	1	0.57763671875	0.412841796875	1	upper	zerothre.ttf
1977.072	n/a	WORD	988536	wordpools/wasnorm_wordpool_less_exclusions.txt	LTP274	ltpFR	4	10	1	SQUIRREL	1362	n/a	n/a	1	0.57763671875	0.412841796875	1	upper	zerothre.ttf
1982.998	n/a	REC_START	991499	n/a	LTP274	ltpFR	4	10	n/a	n/a	n/a	n/a	n/a	n/a	n/a	n/a	n/a	n/a	n/a
1983.808	n/a	REC_WORD	991904	wordpools/wasnorm_wordpool_less_exclusions.txt	LTP274	ltpFR	4	10	1	FOLLOWER	589	n/a	n/a	1	n/a	n/a	n/a	n/a	n/a
1985.134	n/a	REC_WORD	992567	wordpools/wasnorm_wordpool_less_exclusions.txt	LTP274	ltpFR	4	10	1	WORKER	1621	n/a	n/a	1	n/a	n/a	n/a	n/a	n/a
1986.548	n/a	REC_WORD	993274	wordpools/wasnorm_wordpool_less_exclusions.txt	LTP274	ltpFR	4	10	1	RULER	1216	n/a	n/a	1	n/a	n/a	n/a	n/a	n/a
1987.882	n/a	REC_WORD	993941	wordpools/wasnorm_wordpool_less_exclusions.txt	LTP274	ltpFR	4	10	1	POLITICIAN	1099	n/a	n/a	1	n/a	n/a	n/a	n/a	n/a
1989.392	n/a	REC_WORD	994696	wordpools/wasnorm_wordpool_less_exclusions.txt	LTP274	ltpFR	4	10	1	SQUIRREL	1362	n/a	n/a	1	n/a	n/a	n/a	n/a	n/a
2065.41	n/a	WORD	1032705	wordpools/wasnorm_wordpool_less_exclusions.txt	LTP274	ltpFR	4	11	0	MAJOR	859	n/a	n/a	1	0.422607421875	0.5869140625	0	lower	amplitud.ttf
2069.52	n/a	WORD	1034760	wordpools/wasnorm_wordpool_less_exclusions.txt	LTP274	ltpFR	4	11	0	COMMANDER	354	n/a	n/a	1	0.422607421875	0.5869140625	0	lower	amplitud.ttf
2073.514	n/a	WORD	1036757	wordpools/wasnorm_wordpool_less_exclusions.txt	LTP274	ltpFR	4	11	0	WORM	1623	n/a	n/a	1	0.422607421875	0.5869140625	0	lower	amplitud.ttf
2077.492	n/a	WORD	1038746	wordpools/wasnorm_wordpool_less_exclusions.txt	LTP274	ltpFR	4	11	0	JOURNAL	760	n/a	n/a	0	0.422607421875	0.5869140625	0	lower	amplitud.ttf
2081.602	n/a	WORD	1040801	wordpools/wasnorm_wordpool_less_exclusions.txt	LTP274	ltpFR	4	11	0	DINER	467	n/a	n/a	1	0.422607421875	0.5869140625	0	lower	amplitud.ttf
2085.696	n/a	WORD	1042848	wordpools/wasnorm_wordpool_less_exclusions.txt	LTP274	ltpFR	4	11	0	VIOLA	1570	n/a	n/a	0	0.422607421875	0.5869140625	0	lower	amplitud.ttf
2089.872	n/a	WORD	1044936	wordpools/wasnorm_wordpool_less_exclusions.txt	LTP274	ltpFR	4	11	0	OBOE	969	n/a	n/a	0	0.422607421875	0.5869140625	0	lower	amplitud.ttf
2093.966	n/a	WORD	1046983	wordpools/wasnorm_wordpool_less_exclusions.txt	LTP274	ltpFR	4	11	0	SAW	1239	n/a	n/a	0	0.422607421875	0.5869140625	0	lower	amplitud.ttf
2097.91	n/a	WORD	1048955	wordpools/wasnorm_wordpool_less_exclusions.txt	LTP274	ltpFR	4	11	0	HUMAN	726	n/a	n/a	1	0.422607421875	0.5869140625	0	lower	amplitud.ttf
2101.904	n/a	WORD	1050952	wordpools/wasnorm_wordpool_less_exclusions.txt	LTP274	ltpFR	4	11	0	DIVER	476	n/a	n/a	1	0.422607421875	0.5869140625	0	lower	amplitud.ttf
2106.016	n/a	WORD	1053008	wordpools/wasnorm_wordpool_less_exclusions.txt	LTP274	ltpFR	4	11	0	DICE	461	n/a	n/a	0	0.422607421875	0.5869140625	0	lower	amplitud.ttf
2110.06	n/a	WORD	1055030	wordpools/wasnorm_wordpool_less_exclusions.txt	LTP274	ltpFR	4	11	0	WOMAN	1620	n/a	n/a	1	0.422607421875	0.5869140625	0	lower	amplitud.ttf
2114.186	n/a	WORD	1057093	wordpools/wasnorm_wordpool_less_exclusions.txt	LTP274	ltpFR	4	11	0	SERVER	1272	n/a	n/a	1	0.422607421875	0.5869140625	0	lower	amplitud.ttf
2118.08	n/a	WORD	1059040	wordpools/wasnorm_wordpool_less_exclusions.txt	LTP274	ltpFR	4	11	0	STEM	1376	n/a	n/a	0	0.422607421875	0.5869140625	0	lower	amplitud.ttf
2122.158	n/a	WORD	1061079	wordpools/wasnorm_wordpool_less_exclusions.txt	LTP274	ltpFR	4	11	0	PUMP	1141	n/a	n/a	1	0.422607421875	0.5869140625	0	lower	amplitud.ttf
2126.086	n/a	WORD	1063043	wordpools/wasnorm_wordpool_less_exclusions.txt	LTP274	ltpFR	4	11	0	PUDDLE	1140	n/a	n/a	0	0.422607421875	0.5869140625	0	lower	amplitud.ttf
2131.778	n/a	REC_START	1065889	n/a	LTP274	ltpFR	4	11	n/a	n/a	n/a	n/a	n/a	n/a	n/a	n/a	n/a	n/a	n/a
2132.544	n/a	REC_WORD	1066272	wordpools/wasnorm_wordpool_less_exclusions.txt	LTP274	ltpFR	4	11	0	STEM	1376	n/a	n/a	0	n/a	n/a	n/a	n/a	n/a
2133.712	n/a	REC_WORD	1066856	wordpools/wasnorm_wordpool_less_exclusions.txt	LTP274	ltpFR	4	11	0	SERVER	1272	n/a	n/a	1	n/a	n/a	n/a	n/a	n/a
2134.766	n/a	REC_WORD	1067383	wordpools/wasnorm_wordpool_less_exclusions.txt	LTP274	ltpFR	4	11	0	MAJOR	859	n/a	n/a	1	n/a	n/a	n/a	n/a	n/a
2137.522	n/a	REC_WORD	1068761	wordpools/wasnorm_wordpool_less_exclusions.txt	LTP274	ltpFR	4	11	0	COMMANDER	354	n/a	n/a	1	n/a	n/a	n/a	n/a	n/a
2148.498	n/a	REC_WORD	1074249	wordpools/wasnorm_wordpool_less_exclusions.txt	LTP274	ltpFR	4	11	0	HUMAN	726	n/a	n/a	1	n/a	n/a	n/a	n/a	n/a
2149.73	n/a	REC_WORD	1074865	wordpools/wasnorm_wordpool_less_exclusions.txt	LTP274	ltpFR	4	11	0	DIVER	476	n/a	n/a	1	n/a	n/a	n/a	n/a	n/a
2222.126	n/a	WORD	1111063	wordpools/wasnorm_wordpool_less_exclusions.txt	LTP274	ltpFR	4	12	0	BISON	131	n/a	n/a	1	0.422607421875	0.5869140625	0	lower	amplitud.ttf
2226.17	n/a	WORD	1113085	wordpools/wasnorm_wordpool_less_exclusions.txt	LTP274	ltpFR	4	12	0	WASHCLOTH	1591	n/a	n/a	0	0.422607421875	0.5869140625	0	lower	amplitud.ttf
2230.348	n/a	WORD	1115174	wordpools/wasnorm_wordpool_less_exclusions.txt	LTP274	ltpFR	4	12	0	SUPERVISOR	1410	n/a	n/a	1	0.422607421875	0.5869140625	0	lower	amplitud.ttf
2234.426	n/a	WORD	1117213	wordpools/wasnorm_wordpool_less_exclusions.txt	LTP274	ltpFR	4	12	0	ERASER	538	n/a	n/a	0	0.422607421875	0.5869140625	0	lower	amplitud.ttf
2238.452	n/a	WORD	1119226	wordpools/wasnorm_wordpool_less_exclusions.txt	LTP274	ltpFR	4	12	0	APE	31	n/a	n/a	1	0.422607421875	0.5869140625	0	lower	amplitud.ttf
2242.28	n/a	WORD	1121140	wordpools/wasnorm_wordpool_less_exclusions.txt	LTP274	ltpFR	4	12	0	BANANA	77	n/a	n/a	1	0.422607421875	0.5869140625	0	lower	amplitud.ttf
2246.224	n/a	WORD	1123112	wordpools/wasnorm_wordpool_less_exclusions.txt	LTP274	ltpFR	4	12	0	ROOSTER	1209	n/a	n/a	1	0.422607421875	0.5869140625	0	lower	amplitud.ttf
2250.068	n/a	WORD	1125034	wordpools/wasnorm_wordpool_less_exclusions.txt	LTP274	ltpFR	4	12	0	FOOTBALL	591	n/a	n/a	1	0.422607421875	0.5869140625	0	lower	amplitud.ttf
2253.98	n/a	WORD	1126990	wordpools/wasnorm_wordpool_less_exclusions.txt	LTP274	ltpFR	4	12	0	COMMUNITY	356	n/a	n/a	1	0.422607421875	0.5869140625	0	lower	amplitud.ttf
2258.14	n/a	WORD	1129070	wordpools/wasnorm_wordpool_less_exclusions.txt	LTP274	ltpFR	4	12	0	ATTIC	56	n/a	n/a	1	0.422607421875	0.5869140625	0	lower	amplitud.ttf
2261.968	n/a	WORD	1130984	wordpools/wasnorm_wordpool_less_exclusions.txt	LTP274	ltpFR	4	12	0	WEB	1598	n/a	n/a	1	0.422607421875	0.5869140625	0	lower	amplitud.ttf
2266.062	n/a	WORD	1133031	wordpools/wasnorm_wordpool_less_exclusions.txt	LTP274	ltpFR	4	12	0	SNEAKER	1334	n/a	n/a	0	0.422607421875	0.5869140625	0	lower	amplitud.ttf
2270.138	n/a	WORD	1135069	wordpools/wasnorm_wordpool_less_exclusions.txt	LTP274	ltpFR	4	12	0	SHOELACE	1289	n/a	n/a	0	0.422607421875	0.5869140625	0	lower	amplitud.ttf
2274.116	n/a	WORD	1137058	wordpools/wasnorm_wordpool_less_exclusions.txt	LTP274	ltpFR	4	12	0	BASKETBALL	96	n/a	n/a	1	0.422607421875	0.5869140625	0	lower	amplitud.ttf
2278.028	n/a	WORD	1139014	wordpools/wasnorm_wordpool_less_exclusions.txt	LTP274	ltpFR	4	12	0	AUDIENCE	59	n/a	n/a	1	0.422607421875	0.5869140625	0	lower	amplitud.ttf
2282.138	n/a	WORD	1141069	wordpools/wasnorm_wordpool_less_exclusions.txt	LTP274	ltpFR	4	12	0	BEAR	106	n/a	n/a	1	0.422607421875	0.5869140625	0	lower	amplitud.ttf
2288.012	n/a	REC_START	1144006	n/a	LTP274	ltpFR	4	12	n/a	n/a	n/a	n/a	n/a	n/a	n/a	n/a	n/a	n/a	n/a
2289.432	n/a	REC_WORD	1144716	wordpools/wasnorm_wordpool_less_exclusions.txt	LTP274	ltpFR	4	12	0	BEAR	106	n/a	n/a	1	n/a	n/a	n/a	n/a	n/a
2289.864	n/a	REC_WORD	1144932	wordpools/wasnorm_wordpool_less_exclusions.txt	LTP274	ltpFR	4	12	0	SHOELACE	1289	n/a	n/a	0	n/a	n/a	n/a	n/a	n/a
2290.576	n/a	REC_WORD	1145288	wordpools/wasnorm_wordpool_less_exclusions.txt	LTP274	ltpFR	4	12	0	SNEAKER	1334	n/a	n/a	0	n/a	n/a	n/a	n/a	n/a
2314.68	n/a	REC_WORD	1157340	wordpools/wasnorm_wordpool_less_exclusions.txt	LTP274	ltpFR	4	12	0	HUMAN	726	n/a	n/a	1	n/a	n/a	n/a	n/a	n/a
2367.762	n/a	WORD	1183881	wordpools/wasnorm_wordpool_less_exclusions.txt	LTP274	ltpFR	4	13	-1	CLASS	318	n/a	n/a	-1	1.0	1.0	1	upper	Verdana.ttf
2371.622	n/a	WORD	1185811	wordpools/wasnorm_wordpool_less_exclusions.txt	LTP274	ltpFR	4	13	-1	BEAKER	104	n/a	n/a	-1	1.0	1.0	1	upper	Verdana.ttf
2375.766	n/a	WORD	1187883	wordpools/wasnorm_wordpool_less_exclusions.txt	LTP274	ltpFR	4	13	-1	FOREST	593	n/a	n/a	-1	1.0	1.0	1	upper	Verdana.ttf
2379.778	n/a	WORD	1189889	wordpools/wasnorm_wordpool_less_exclusions.txt	LTP274	ltpFR	4	13	-1	STOVE	1388	n/a	n/a	-1	1.0	1.0	1	upper	Verdana.ttf
2383.92	n/a	WORD	1191960	wordpools/wasnorm_wordpool_less_exclusions.txt	LTP274	ltpFR	4	13	-1	PACKAGE	997	n/a	n/a	-1	1.0	1.0	1	upper	Verdana.ttf
2388.03	n/a	WORD	1194015	wordpools/wasnorm_wordpool_less_exclusions.txt	LTP274	ltpFR	4	13	-1	DRIVEWAY	500	n/a	n/a	-1	1.0	1.0	1	upper	Verdana.ttf
2392.224	n/a	WORD	1196112	wordpools/wasnorm_wordpool_less_exclusions.txt	LTP274	ltpFR	4	13	-1	BUS	201	n/a	n/a	-1	1.0	1.0	1	upper	Verdana.ttf
2396.218	n/a	WORD	1198109	wordpools/wasnorm_wordpool_less_exclusions.txt	LTP274	ltpFR	4	13	-1	MOVIE	927	n/a	n/a	-1	1.0	1.0	1	upper	Verdana.ttf
2400.212	n/a	WORD	1200106	wordpools/wasnorm_wordpool_less_exclusions.txt	LTP274	ltpFR	4	13	-1	ROOT	1210	n/a	n/a	-1	1.0	1.0	1	upper	Verdana.ttf
2404.174	n/a	WORD	1202087	wordpools/wasnorm_wordpool_less_exclusions.txt	LTP274	ltpFR	4	13	-1	LIME	823	n/a	n/a	-1	1.0	1.0	1	upper	Verdana.ttf
2408.334	n/a	WORD	1204167	wordpools/wasnorm_wordpool_less_exclusions.txt	LTP274	ltpFR	4	13	-1	GARLIC	624	n/a	n/a	-1	1.0	1.0	1	upper	Verdana.ttf
2412.446	n/a	WORD	1206223	wordpools/wasnorm_wordpool_less_exclusions.txt	LTP274	ltpFR	4	13	-1	DEODORANT	448	n/a	n/a	-1	1.0	1.0	1	upper	Verdana.ttf
2416.624	n/a	WORD	1208312	wordpools/wasnorm_wordpool_less_exclusions.txt	LTP274	ltpFR	4	13	-1	SILK	1307	n/a	n/a	-1	1.0	1.0	1	upper	Verdana.ttf
2420.568	n/a	WORD	1210284	wordpools/wasnorm_wordpool_less_exclusions.txt	LTP274	ltpFR	4	13	-1	TURNIP	1521	n/a	n/a	-1	1.0	1.0	1	upper	Verdana.ttf
2424.394	n/a	WORD	1212197	wordpools/wasnorm_wordpool_less_exclusions.txt	LTP274	ltpFR	4	13	-1	THERMOMETER	1453	n/a	n/a	-1	1.0	1.0	1	upper	Verdana.ttf
2428.254	n/a	WORD	1214127	wordpools/wasnorm_wordpool_less_exclusions.txt	LTP274	ltpFR	4	13	-1	TREE	1502	n/a	n/a	-1	1.0	1.0	1	upper	Verdana.ttf
2433.964	n/a	REC_START	1216982	n/a	LTP274	ltpFR	4	13	n/a	n/a	n/a	n/a	n/a	n/a	n/a	n/a	n/a	n/a	n/a
2438.412	n/a	REC_WORD	1219206	wordpools/wasnorm_wordpool_less_exclusions.txt	LTP274	ltpFR	4	13	-1	DEODORANT	448	n/a	n/a	-1	n/a	n/a	n/a	n/a	n/a
2443.246	n/a	REC_WORD	1221623	wordpools/wasnorm_wordpool_less_exclusions.txt	LTP274	ltpFR	4	13	1	SALT	1229	n/a	n/a	n/a	n/a	n/a	n/a	n/a	n/a
2512.63	n/a	WORD	1256315	wordpools/wasnorm_wordpool_less_exclusions.txt	LTP274	ltpFR	4	14	1	CONE	363	n/a	n/a	0	0.57763671875	0.412841796875	1	upper	zerothre.ttf
2516.692	n/a	WORD	1258346	wordpools/wasnorm_wordpool_less_exclusions.txt	LTP274	ltpFR	4	14	1	FREEZER	604	n/a	n/a	0	0.57763671875	0.412841796875	1	upper	zerothre.ttf
2520.9	n/a	WORD	1260450	wordpools/wasnorm_wordpool_less_exclusions.txt	LTP274	ltpFR	4	14	0	PUBLISHER	1137	n/a	n/a	1	0.422607421875	0.5869140625	0	lower	amplitud.ttf
2524.73	n/a	WORD	1262365	wordpools/wasnorm_wordpool_less_exclusions.txt	LTP274	ltpFR	4	14	0	PUBLICATION	1136	n/a	n/a	1	0.422607421875	0.5869140625	0	lower	amplitud.ttf
2528.856	n/a	WORD	1264428	wordpools/wasnorm_wordpool_less_exclusions.txt	LTP274	ltpFR	4	14	0	ASTRONAUT	51	n/a	n/a	1	0.422607421875	0.5869140625	0	lower	amplitud.ttf
2532.95	n/a	WORD	1266475	wordpools/wasnorm_wordpool_less_exclusions.txt	LTP274	ltpFR	4	14	0	CHAPEL	280	n/a	n/a	0	0.422607421875	0.5869140625	0	lower	amplitud.ttf
2537.144	n/a	WORD	1268572	wordpools/wasnorm_wordpool_less_exclusions.txt	LTP274	ltpFR	4	14	0	TAG	1429	n/a	n/a	0	0.422607421875	0.5869140625	0	lower	amplitud.ttf
2541.004	n/a	WORD	1270502	wordpools/wasnorm_wordpool_less_exclusions.txt	LTP274	ltpFR	4	14	1	CHISEL	305	n/a	n/a	n/a	0.57763671875	0.412841796875	1	upper	zerothre.ttf
2544.032	n/a	SLOW_MSG	1272016	n/a	LTP274	ltpFR	4	14	n/a	n/a	n/a	n/a	n/a	n/a	n/a	n/a	n/a	n/a	n/a
2546.546	n/a	WORD	1273273	wordpools/wasnorm_wordpool_less_exclusions.txt	LTP274	ltpFR	4	14	1	STAR	1373	n/a	n/a	0	0.57763671875	0.412841796875	1	upper	zerothre.ttf
2550.558	n/a	WORD	1275279	wordpools/wasnorm_wordpool_less_exclusions.txt	LTP274	ltpFR	4	14	1	POT	1114	n/a	n/a	0	0.57763671875	0.412841796875	1	upper	zerothre.ttf
2554.636	n/a	WORD	1277318	wordpools/wasnorm_wordpool_less_exclusions.txt	LTP274	ltpFR	4	14	0	SKILLET	1317	n/a	n/a	0	0.422607421875	0.5869140625	0	lower	amplitud.ttf
2558.63	n/a	WORD	1279315	wordpools/wasnorm_wordpool_less_exclusions.txt	LTP274	ltpFR	4	14	0	STICKER	1382	n/a	n/a	0	0.422607421875	0.5869140625	0	lower	amplitud.ttf
2562.49	n/a	WORD	1281245	wordpools/wasnorm_wordpool_less_exclusions.txt	LTP274	ltpFR	4	14	0	SENATE	1267	n/a	n/a	1	0.422607421875	0.5869140625	0	lower	amplitud.ttf
2566.684	n/a	WORD	1283342	wordpools/wasnorm_wordpool_less_exclusions.txt	LTP274	ltpFR	4	14	1	PASSENGER	1020	n/a	n/a	1	0.57763671875	0.412841796875	1	upper	zerothre.ttf
2570.828	n/a	WORD	1285414	wordpools/wasnorm_wordpool_less_exclusions.txt	LTP274	ltpFR	4	14	1	FATHER	554	n/a	n/a	1	0.57763671875	0.412841796875	1	upper	zerothre.ttf
2574.838	n/a	WORD	1287419	wordpools/wasnorm_wordpool_less_exclusions.txt	LTP274	ltpFR	4	14	1	SICKLE	1302	n/a	n/a	0	0.57763671875	0.412841796875	1	upper	zerothre.ttf
2580.598	n/a	REC_START	1290299	n/a	LTP274	ltpFR	4	14	n/a	n/a	n/a	n/a	n/a	n/a	n/a	n/a	n/a	n/a	n/a
2582.192	n/a	REC_WORD	1291096	wordpools/wasnorm_wordpool_less_exclusions.txt	LTP274	ltpFR	4	14	1	PASSENGER	1020	n/a	n/a	1	n/a	n/a	n/a	n/a	n/a
2582.886	n/a	REC_WORD	1291443	wordpools/wasnorm_wordpool_less_exclusions.txt	LTP274	ltpFR	4	14	1	FATHER	554	n/a	n/a	1	n/a	n/a	n/a	n/a	n/a
2583.966	n/a	REC_WORD	1291983	wordpools/wasnorm_wordpool_less_exclusions.txt	LTP274	ltpFR	4	14	0	SENATE	1267	n/a	n/a	1	n/a	n/a	n/a	n/a	n/a
2585.32	n/a	REC_WORD	1292660	wordpools/wasnorm_wordpool_less_exclusions.txt	LTP274	ltpFR	4	14	1	SICKLE	1302	n/a	n/a	0	n/a	n/a	n/a	n/a	n/a
2587.402	n/a	REC_WORD	1293701	wordpools/wasnorm_wordpool_less_exclusions.txt	LTP274	ltpFR	4	14	0	ASTRONAUT	51	n/a	n/a	1	n/a	n/a	n/a	n/a	n/a
2588.062	n/a	REC_WORD	1294031	wordpools/wasnorm_wordpool_less_exclusions.txt	LTP274	ltpFR	4	14	0	PUBLISHER	1137	n/a	n/a	1	n/a	n/a	n/a	n/a	n/a
2589.032	n/a	REC_WORD	1294516	wordpools/wasnorm_wordpool_less_exclusions.txt	LTP274	ltpFR	4	14	0	PUBLICATION	1136	n/a	n/a	1	n/a	n/a	n/a	n/a	n/a
2591.016	n/a	REC_WORD	1295508	wordpools/wasnorm_wordpool_less_exclusions.txt	LTP274	ltpFR	4	14	1	CONE	363	n/a	n/a	0	n/a	n/a	n/a	n/a	n/a
2592.022	n/a	REC_WORD	1296011	wordpools/wasnorm_wordpool_less_exclusions.txt	LTP274	ltpFR	4	14	1	STAR	1373	n/a	n/a	0	n/a	n/a	n/a	n/a	n/a
2593.022	n/a	REC_WORD_VV	1296511	wordpools/wasnorm_wordpool_less_exclusions.txt	LTP274	ltpFR	4	14	n/a	<>	-1	n/a	n/a	n/a	n/a	n/a	n/a	n/a	n/a
2662.508	n/a	WORD	1331254	wordpools/wasnorm_wordpool_less_exclusions.txt	LTP274	ltpFR	4	15	1	SPY	1360	n/a	n/a	1	0.57763671875	0.412841796875	1	upper	zerothre.ttf
2666.47	n/a	WORD	1333235	wordpools/wasnorm_wordpool_less_exclusions.txt	LTP274	ltpFR	4	15	1	FROST	609	n/a	n/a	0	0.57763671875	0.412841796875	1	upper	zerothre.ttf
2670.664	n/a	WORD	1335332	wordpools/wasnorm_wordpool_less_exclusions.txt	LTP274	ltpFR	4	15	0	SMOG	1330	n/a	n/a	0	0.422607421875	0.5869140625	0	lower	amplitud.ttf
2674.824	n/a	WORD	1337412	wordpools/wasnorm_wordpool_less_exclusions.txt	LTP274	ltpFR	4	15	0	COYOTE	396	n/a	n/a	1	0.422607421875	0.5869140625	0	lower	amplitud.ttf
2678.702	n/a	WORD	1339351	wordpools/wasnorm_wordpool_less_exclusions.txt	LTP274	ltpFR	4	15	0	BUBBLE	183	n/a	n/a	0	0.422607421875	0.5869140625	0	lower	amplitud.ttf
2682.712	n/a	WORD	1341356	wordpools/wasnorm_wordpool_less_exclusions.txt	LTP274	ltpFR	4	15	1	FOUNTAIN	597	n/a	n/a	1	0.57763671875	0.412841796875	1	upper	zerothre.ttf
2686.79	n/a	WORD	1343395	wordpools/wasnorm_wordpool_less_exclusions.txt	LTP274	ltpFR	4	15	1	IGLOO	734	n/a	n/a	0	0.57763671875	0.412841796875	1	upper	zerothre.ttf
2691.016	n/a	WORD	1345508	wordpools/wasnorm_wordpool_less_exclusions.txt	LTP274	ltpFR	4	15	1	TIE	1466	n/a	n/a	0	0.57763671875	0.412841796875	1	upper	zerothre.ttf
2694.992	n/a	WORD	1347496	wordpools/wasnorm_wordpool_less_exclusions.txt	LTP274	ltpFR	4	15	1	ROBIN	1199	n/a	n/a	1	0.57763671875	0.412841796875	1	upper	zerothre.ttf
2698.886	n/a	WORD	1349443	wordpools/wasnorm_wordpool_less_exclusions.txt	LTP274	ltpFR	4	15	1	PARROT	1015	n/a	n/a	1	0.57763671875	0.412841796875	1	upper	zerothre.ttf
2703.016	n/a	WORD	1351508	wordpools/wasnorm_wordpool_less_exclusions.txt	LTP274	ltpFR	4	15	1	STRANGER	1389	n/a	n/a	1	0.57763671875	0.412841796875	1	upper	zerothre.ttf
2706.976	n/a	WORD	1353488	wordpools/wasnorm_wordpool_less_exclusions.txt	LTP274	ltpFR	4	15	0	SHORTCAKE	1292	n/a	n/a	0	0.422607421875	0.5869140625	0	lower	amplitud.ttf
2710.822	n/a	WORD	1355411	wordpools/wasnorm_wordpool_less_exclusions.txt	LTP274	ltpFR	4	15	0	GROCERIES	663	n/a	n/a	0	0.422607421875	0.5869140625	0	lower	amplitud.ttf
2714.748	n/a	WORD	1357374	wordpools/wasnorm_wordpool_less_exclusions.txt	LTP274	ltpFR	4	15	0	FIELD	562	n/a	n/a	1	0.422607421875	0.5869140625	0	lower	amplitud.ttf
2718.842	n/a	WORD	1359421	wordpools/wasnorm_wordpool_less_exclusions.txt	LTP274	ltpFR	4	15	0	MEADOW	881	n/a	n/a	1	0.422607421875	0.5869140625	0	lower	amplitud.ttf
2722.986	n/a	WORD	1361493	wordpools/wasnorm_wordpool_less_exclusions.txt	LTP274	ltpFR	4	15	0	TUBE	1516	n/a	n/a	0	0.422607421875	0.5869140625	0	lower	amplitud.ttf
2728.944	n/a	REC_START	1364472	n/a	LTP274	ltpFR	4	15	n/a	n/a	n/a	n/a	n/a	n/a	n/a	n/a	n/a	n/a	n/a
2729.988	n/a	REC_WORD	1364994	wordpools/wasnorm_wordpool_less_exclusions.txt	LTP274	ltpFR	4	15	0	TUBE	1516	n/a	n/a	0	n/a	n/a	n/a	n/a	n/a
2730.998	n/a	REC_WORD	1365499	wordpools/wasnorm_wordpool_less_exclusions.txt	LTP274	ltpFR	4	15	0	FIELD	562	n/a	n/a	1	n/a	n/a	n/a	n/a	n/a
2733.38	n/a	REC_WORD	1366690	wordpools/wasnorm_wordpool_less_exclusions.txt	LTP274	ltpFR	4	15	0	MEADOW	881	n/a	n/a	1	n/a	n/a	n/a	n/a	n/a
2737.1	n/a	REC_WORD	1368550	wordpools/wasnorm_wordpool_less_exclusions.txt	LTP274	ltpFR	4	15	0	SHORTCAKE	1292	n/a	n/a	0	n/a	n/a	n/a	n/a	n/a
2738.1	n/a	REC_WORD_VV	1369050	wordpools/wasnorm_wordpool_less_exclusions.txt	LTP274	ltpFR	4	15	n/a	<>	-1	n/a	n/a	n/a	n/a	n/a	n/a	n/a	n/a
2741.698	n/a	REC_WORD	1370849	wordpools/wasnorm_wordpool_less_exclusions.txt	LTP274	ltpFR	4	15	0	GROCERIES	663	n/a	n/a	0	n/a	n/a	n/a	n/a	n/a
2742.4	n/a	REC_WORD	1371200	wordpools/wasnorm_wordpool_less_exclusions.txt	LTP274	ltpFR	4	15	1	IGLOO	734	n/a	n/a	0	n/a	n/a	n/a	n/a	n/a
2743.124	n/a	REC_WORD	1371562	wordpools/wasnorm_wordpool_less_exclusions.txt	LTP274	ltpFR	4	15	1	FOUNTAIN	597	n/a	n/a	1	n/a	n/a	n/a	n/a	n/a
2745.124	n/a	REC_WORD	1372562	wordpools/wasnorm_wordpool_less_exclusions.txt	LTP274	ltpFR	4	15	1	PARROT	1015	n/a	n/a	1	n/a	n/a	n/a	n/a	n/a
2747.576	n/a	REC_WORD	1373788	wordpools/wasnorm_wordpool_less_exclusions.txt	LTP274	ltpFR	4	15	1	ROBIN	1199	n/a	n/a	1	n/a	n/a	n/a	n/a	n/a
2748.41	n/a	REC_WORD	1374205	wordpools/wasnorm_wordpool_less_exclusions.txt	LTP274	ltpFR	4	15	1	TIE	1466	n/a	n/a	0	n/a	n/a	n/a	n/a	n/a
2808.258	n/a	WORD	1404129	wordpools/wasnorm_wordpool_less_exclusions.txt	LTP274	ltpFR	4	16	1	GLASS	639	n/a	n/a	1	0.57763671875	0.412841796875	1	upper	zerothre.ttf
2812.42	n/a	WORD	1406210	wordpools/wasnorm_wordpool_less_exclusions.txt	LTP274	ltpFR	4	16	1	PEDESTRIAN	1038	n/a	n/a	1	0.57763671875	0.412841796875	1	upper	zerothre.ttf
2816.396	n/a	WORD	1408198	wordpools/wasnorm_wordpool_less_exclusions.txt	LTP274	ltpFR	4	16	1	PATH	1023	n/a	n/a	0	0.57763671875	0.412841796875	1	upper	zerothre.ttf
2820.324	n/a	WORD	1410162	wordpools/wasnorm_wordpool_less_exclusions.txt	LTP274	ltpFR	4	16	1	CHEMIST	292	n/a	n/a	1	0.57763671875	0.412841796875	1	upper	zerothre.ttf
2824.402	n/a	WORD	1412201	wordpools/wasnorm_wordpool_less_exclusions.txt	LTP274	ltpFR	4	16	1	NOMAD	955	n/a	n/a	1	0.57763671875	0.412841796875	1	upper	zerothre.ttf
2828.278	n/a	WORD	1414139	wordpools/wasnorm_wordpool_less_exclusions.txt	LTP274	ltpFR	4	16	1	BIBLE	124	n/a	n/a	0	0.57763671875	0.412841796875	1	upper	zerothre.ttf
2832.406	n/a	WORD	1416203	wordpools/wasnorm_wordpool_less_exclusions.txt	LTP274	ltpFR	4	16	1	GODDESS	646	n/a	n/a	1	0.57763671875	0.412841796875	1	upper	zerothre.ttf
2836.584	n/a	WORD	1418292	wordpools/wasnorm_wordpool_less_exclusions.txt	LTP274	ltpFR	4	16	1	COACH	331	n/a	n/a	1	0.57763671875	0.412841796875	1	upper	zerothre.ttf
2840.694	n/a	WORD	1420347	wordpools/wasnorm_wordpool_less_exclusions.txt	LTP274	ltpFR	4	16	1	SEA	1259	n/a	n/a	0	0.57763671875	0.412841796875	1	upper	zerothre.ttf
2844.822	n/a	WORD	1422411	wordpools/wasnorm_wordpool_less_exclusions.txt	LTP274	ltpFR	4	16	1	COTTON	385	n/a	n/a	0	0.57763671875	0.412841796875	1	upper	zerothre.ttf
2848.782	n/a	WORD	1424391	wordpools/wasnorm_wordpool_less_exclusions.txt	LTP274	ltpFR	4	16	1	CURTAIN	427	n/a	n/a	0	0.57763671875	0.412841796875	1	upper	zerothre.ttf
2852.942	n/a	WORD	1426471	wordpools/wasnorm_wordpool_less_exclusions.txt	LTP274	ltpFR	4	16	1	REEF	1177	n/a	n/a	0	0.57763671875	0.412841796875	1	upper	zerothre.ttf
2857.12	n/a	WORD	1428560	wordpools/wasnorm_wordpool_less_exclusions.txt	LTP274	ltpFR	4	16	1	CARRIAGE	248	n/a	n/a	0	0.57763671875	0.412841796875	1	upper	zerothre.ttf
2861.198	n/a	WORD	1430599	wordpools/wasnorm_wordpool_less_exclusions.txt	LTP274	ltpFR	4	16	1	GOO	648	n/a	n/a	0	0.57763671875	0.412841796875	1	upper	zerothre.ttf
2865.076	n/a	WORD	1432538	wordpools/wasnorm_wordpool_less_exclusions.txt	LTP274	ltpFR	4	16	1	STALLION	1369	n/a	n/a	1	0.57763671875	0.412841796875	1	upper	zerothre.ttf
2869.186	n/a	WORD	1434593	wordpools/wasnorm_wordpool_less_exclusions.txt	LTP274	ltpFR	4	16	1	MACARONI	851	n/a	n/a	0	0.57763671875	0.412841796875	1	upper	zerothre.ttf
2875.128	n/a	REC_START	1437564	n/a	LTP274	ltpFR	4	16	n/a	n/a	n/a	n/a	n/a	n/a	n/a	n/a	n/a	n/a	n/a
2878.438	n/a	REC_WORD	1439219	wordpools/wasnorm_wordpool_less_exclusions.txt	LTP274	ltpFR	4	16	1	NOMAD	955	n/a	n/a	1	n/a	n/a	n/a	n/a	n/a
2879.438	n/a	REC_WORD	1439719	wordpools/wasnorm_wordpool_less_exclusions.txt	LTP274	ltpFR	4	16	1	PEDESTRIAN	1038	n/a	n/a	1	n/a	n/a	n/a	n/a	n/a
2880.562	n/a	REC_WORD	1440281	wordpools/wasnorm_wordpool_less_exclusions.txt	LTP274	ltpFR	4	16	1	PATH	1023	n/a	n/a	0	n/a	n/a	n/a	n/a	n/a
2881.472	n/a	REC_WORD	1440736	wordpools/wasnorm_wordpool_less_exclusions.txt	LTP274	ltpFR	4	16	1	GLASS	639	n/a	n/a	1	n/a	n/a	n/a	n/a	n/a
2882.472	n/a	REC_WORD	1441236	wordpools/wasnorm_wordpool_less_exclusions.txt	LTP274	ltpFR	4	16	1	CHEMIST	292	n/a	n/a	1	n/a	n/a	n/a	n/a	n/a
2891.544	n/a	REC_WORD	1445772	wordpools/wasnorm_wordpool_less_exclusions.txt	LTP274	ltpFR	4	16	1	STALLION	1369	n/a	n/a	1	n/a	n/a	n/a	n/a	n/a
2905.876	n/a	REC_WORD	1452938	wordpools/wasnorm_wordpool_less_exclusions.txt	LTP274	ltpFR	4	16	1	GOO	648	n/a	n/a	0	n/a	n/a	n/a	n/a	n/a
2913.434	n/a	REC_WORD	1456717	wordpools/wasnorm_wordpool_less_exclusions.txt	LTP274	ltpFR	4	16	1	COTTON	385	n/a	n/a	0	n/a	n/a	n/a	n/a	n/a
2914.886	n/a	REC_WORD	1457443	wordpools/wasnorm_wordpool_less_exclusions.txt	LTP274	ltpFR	4	16	1	SEA	1259	n/a	n/a	0	n/a	n/a	n/a	n/a	n/a
2916.424	n/a	REC_WORD	1458212	wordpools/wasnorm_wordpool_less_exclusions.txt	LTP274	ltpFR	4	16	1	CURTAIN	427	n/a	n/a	0	n/a	n/a	n/a	n/a	n/a
3331.52	n/a	REC_START	1665760	n/a	LTP274	ltpFR	4	1	n/a	n/a	n/a	n/a	n/a	n/a	n/a	n/a	n/a	n/a	n/a
3331.552	n/a	RECOG_LURE	1665776	n/a	LTP274	ltpFR	4	1	n/a	DWARF	510	0	4	n/a	n/a	n/a	n/a	n/a	n/a
3333.304	n/a	RECOG_RESP	1666652	n/a	LTP274	ltpFR	4	1	n/a	DWARF	510	0	n/a	n/a	n/a	n/a	n/a	n/a	n/a
3335.74	n/a	RECOG_CONF	1667870	n/a	LTP274	ltpFR	4	1	n/a	DWARF	510	n/a	4	n/a	n/a	n/a	n/a	n/a	n/a
3337.892	n/a	RECOG_LURE	1668946	n/a	LTP274	ltpFR	4	1	n/a	ANCESTOR	20	0	4	n/a	n/a	n/a	n/a	n/a	n/a
3338.93	n/a	RECOG_RESP	1669465	n/a	LTP274	ltpFR	4	1	n/a	ANCESTOR	20	0	n/a	n/a	n/a	n/a	n/a	n/a	n/a
3340.28	n/a	RECOG_CONF	1670140	n/a	LTP274	ltpFR	4	1	n/a	ANCESTOR	20	n/a	4	n/a	n/a	n/a	n/a	n/a	n/a
3342.286	n/a	RECOG_LURE	1671143	n/a	LTP274	ltpFR	4	1	n/a	BOTTLE	153	0	2	n/a	n/a	n/a	n/a	n/a	n/a
3344.32	n/a	RECOG_RESP	1672160	n/a	LTP274	ltpFR	4	1	n/a	BOTTLE	153	0	n/a	n/a	n/a	n/a	n/a	n/a	n/a
3346.59	n/a	RECOG_CONF	1673295	n/a	LTP274	ltpFR	4	1	n/a	BOTTLE	153	n/a	2	n/a	n/a	n/a	n/a	n/a	n/a
3348.428	n/a	RECOG_TARGET	1674214	n/a	LTP274	ltpFR	4	1	0	DIVER	476	1	5	1	n/a	n/a	n/a	n/a	n/a
3349.364	n/a	RECOG_RESP	1674682	n/a	LTP274	ltpFR	4	1	0	DIVER	476	1	n/a	1	n/a	n/a	n/a	n/a	n/a
3351.11	n/a	RECOG_CONF	1675555	n/a	LTP274	ltpFR	4	1	0	DIVER	476	n/a	5	1	n/a	n/a	n/a	n/a	n/a
3352.902	n/a	RECOG_TARGET	1676451	n/a	LTP274	ltpFR	4	1	1	HEEL	700	1	1	0	n/a	n/a	n/a	n/a	n/a
3354.66	n/a	RECOG_RESP	1677330	n/a	LTP274	ltpFR	4	1	1	HEEL	700	1	n/a	0	n/a	n/a	n/a	n/a	n/a
3355.61	n/a	RECOG_CONF	1677805	n/a	LTP274	ltpFR	4	1	1	HEEL	700	n/a	1	0	n/a	n/a	n/a	n/a	n/a
3357.514	n/a	RECOG_LURE	1678757	n/a	LTP274	ltpFR	4	1	n/a	HIP	710	0	3	n/a	n/a	n/a	n/a	n/a	n/a
3358.57	n/a	RECOG_RESP	1679285	n/a	LTP274	ltpFR	4	1	n/a	HIP	710	0	n/a	n/a	n/a	n/a	n/a	n/a	n/a
3359.93	n/a	RECOG_CONF	1679965	n/a	LTP274	ltpFR	4	1	n/a	HIP	710	n/a	3	n/a	n/a	n/a	n/a	n/a	n/a
3361.708	n/a	RECOG_TARGET	1680854	n/a	LTP274	ltpFR	4	1	0	GROCERIES	663	1	4	0	n/a	n/a	n/a	n/a	n/a
3362.774	n/a	RECOG_RESP	1681387	n/a	LTP274	ltpFR	4	1	0	GROCERIES	663	1	n/a	0	n/a	n/a	n/a	n/a	n/a
3364.1	n/a	RECOG_CONF	1682050	n/a	LTP274	ltpFR	4	1	0	GROCERIES	663	n/a	4	0	n/a	n/a	n/a	n/a	n/a
3366.634	n/a	RECOG_LURE	1683317	n/a	LTP274	ltpFR	4	1	n/a	COUNTRY	388	1	2	n/a	n/a	n/a	n/a	n/a	n/a
3368.09	n/a	RECOG_RESP	1684045	n/a	LTP274	ltpFR	4	1	n/a	COUNTRY	388	1	n/a	n/a	n/a	n/a	n/a	n/a	n/a
3368.98	n/a	RECOG_CONF	1684490	n/a	LTP274	ltpFR	4	1	n/a	COUNTRY	388	n/a	2	n/a	n/a	n/a	n/a	n/a	n/a
3370.976	n/a	RECOG_TARGET	1685488	n/a	LTP274	ltpFR	4	1	-1	SPACE	1345	1	3	-1	n/a	n/a	n/a	n/a	n/a
3371.93	n/a	RECOG_RESP	1685965	n/a	LTP274	ltpFR	4	1	-1	SPACE	1345	1	n/a	-1	n/a	n/a	n/a	n/a	n/a
3372.75	n/a	RECOG_CONF	1686375	n/a	LTP274	ltpFR	4	1	-1	SPACE	1345	n/a	3	-1	n/a	n/a	n/a	n/a	n/a
3374.704	n/a	RECOG_TARGET	1687352	n/a	LTP274	ltpFR	4	1	0	ROOSTER	1209	1	2	1	n/a	n/a	n/a	n/a	n/a
3375.54	n/a	RECOG_RESP	1687770	n/a	LTP274	ltpFR	4	1	0	ROOSTER	1209	1	n/a	1	n/a	n/a	n/a	n/a	n/a
3376.43	n/a	RECOG_CONF	1688215	n/a	LTP274	ltpFR	4	1	0	ROOSTER	1209	n/a	2	1	n/a	n/a	n/a	n/a	n/a
3378.348	n/a	RECOG_LURE	1689174	n/a	LTP274	ltpFR	4	1	n/a	CRATER	400	0	2	n/a	n/a	n/a	n/a	n/a	n/a
3379.514	n/a	RECOG_RESP	1689757	n/a	LTP274	ltpFR	4	1	n/a	CRATER	400	0	n/a	n/a	n/a	n/a	n/a	n/a	n/a
3380.22	n/a	RECOG_CONF	1690110	n/a	LTP274	ltpFR	4	1	n/a	CRATER	400	n/a	2	n/a	n/a	n/a	n/a	n/a	n/a
3382.11	n/a	RECOG_TARGET	1691055	n/a	LTP274	ltpFR	4	1	0	LETTER	813	1	1	0	n/a	n/a	n/a	n/a	n/a
3383.82	n/a	RECOG_RESP	1691910	n/a	LTP274	ltpFR	4	1	0	LETTER	813	1	n/a	0	n/a	n/a	n/a	n/a	n/a
3384.52	n/a	RECOG_CONF	1692260	n/a	LTP274	ltpFR	4	1	0	LETTER	813	n/a	1	0	n/a	n/a	n/a	n/a	n/a
3386.422	n/a	RECOG_LURE	1693211	n/a	LTP274	ltpFR	4	1	n/a	VAMPIRE	1547	0	3	n/a	n/a	n/a	n/a	n/a	n/a
3387.43	n/a	RECOG_RESP	1693715	n/a	LTP274	ltpFR	4	1	n/a	VAMPIRE	1547	0	n/a	n/a	n/a	n/a	n/a	n/a	n/a
3388.37	n/a	RECOG_CONF	1694185	n/a	LTP274	ltpFR	4	1	n/a	VAMPIRE	1547	n/a	3	n/a	n/a	n/a	n/a	n/a	n/a
3390.664	n/a	RECOG_TARGET	1695332	n/a	LTP274	ltpFR	4	1	1	SODA	1341	0	3	0	n/a	n/a	n/a	n/a	n/a
3391.686	n/a	RECOG_RESP	1695843	n/a	LTP274	ltpFR	4	1	1	SODA	1341	0	n/a	0	n/a	n/a	n/a	n/a	n/a
3392.43	n/a	RECOG_CONF	1696215	n/a	LTP274	ltpFR	4	1	1	SODA	1341	n/a	3	0	n/a	n/a	n/a	n/a	n/a
3394.092	n/a	RECOG_TARGET	1697046	n/a	LTP274	ltpFR	4	1	-1	THERMOMETER	1453	1	4	-1	n/a	n/a	n/a	n/a	n/a
3394.996	n/a	RECOG_RESP	1697498	n/a	LTP274	ltpFR	4	1	-1	THERMOMETER	1453	1	n/a	-1	n/a	n/a	n/a	n/a	n/a
3395.76	n/a	RECOG_CONF	1697880	n/a	LTP274	ltpFR	4	1	-1	THERMOMETER	1453	n/a	4	-1	n/a	n/a	n/a	n/a	n/a
3397.538	n/a	RECOG_TARGET	1698769	n/a	LTP274	ltpFR	4	1	1	ALLEY	15	1	4	0	n/a	n/a	n/a	n/a	n/a
3398.41	n/a	RECOG_RESP_VV	1699205	n/a	LTP274	ltpFR	4	1	1	ALLEY	15	0	n/a	0	n/a	n/a	n/a	n/a	n/a
3399.756	n/a	RECOG_RESP	1699878	n/a	LTP274	ltpFR	4	1	1	ALLEY	15	1	n/a	0	n/a	n/a	n/a	n/a	n/a
3400.99	n/a	RECOG_CONF	1700495	n/a	LTP274	ltpFR	4	1	1	ALLEY	15	n/a	4	0	n/a	n/a	n/a	n/a	n/a
3402.928	n/a	RECOG_TARGET	1701464	n/a	LTP274	ltpFR	4	1	0	BASKET	95	1	4	1	n/a	n/a	n/a	n/a	n/a
3403.746	n/a	RECOG_RESP	1701873	n/a	LTP274	ltpFR	4	1	0	BASKET	95	1	n/a	1	n/a	n/a	n/a	n/a	n/a
3404.57	n/a	RECOG_CONF	1702285	n/a	LTP274	ltpFR	4	1	0	BASKET	95	n/a	4	1	n/a	n/a	n/a	n/a	n/a
3406.374	n/a	RECOG_LURE	1703187	n/a	LTP274	ltpFR	4	1	n/a	STAPLER	1372	0	2	n/a	n/a	n/a	n/a	n/a	n/a
3408.35	n/a	RECOG_RESP	1704175	n/a	LTP274	ltpFR	4	1	n/a	STAPLER	1372	0	n/a	n/a	n/a	n/a	n/a	n/a	n/a
3409.53	n/a	RECOG_CONF	1704765	n/a	LTP274	ltpFR	4	1	n/a	STAPLER	1372	n/a	2	n/a	n/a	n/a	n/a	n/a	n/a
3411.468	n/a	RECOG_LURE	1705734	n/a	LTP274	ltpFR	4	1	n/a	DUNGEON	507	0	5	n/a	n/a	n/a	n/a	n/a	n/a
3412.496	n/a	RECOG_RESP	1706248	n/a	LTP274	ltpFR	4	1	n/a	DUNGEON	507	0	n/a	n/a	n/a	n/a	n/a	n/a	n/a
3413.33	n/a	RECOG_CONF	1706665	n/a	LTP274	ltpFR	4	1	n/a	DUNGEON	507	n/a	5	n/a	n/a	n/a	n/a	n/a	n/a
3415.11	n/a	RECOG_LURE	1707555	n/a	LTP274	ltpFR	4	1	n/a	MATCH	878	1	1	n/a	n/a	n/a	n/a	n/a	n/a
3416.4	n/a	RECOG_RESP	1708200	n/a	LTP274	ltpFR	4	1	n/a	MATCH	878	1	n/a	n/a	n/a	n/a	n/a	n/a	n/a
3417.69	n/a	RECOG_CONF	1708845	n/a	LTP274	ltpFR	4	1	n/a	MATCH	878	n/a	1	n/a	n/a	n/a	n/a	n/a	n/a
3427.666	n/a	REC_START	1713833	n/a	LTP274	ltpFR	4	2	n/a	n/a	n/a	n/a	n/a	n/a	n/a	n/a	n/a	n/a	n/a
3427.692	n/a	RECOG_TARGET	1713846	n/a	LTP274	ltpFR	4	2	1	SALT	1229	1	4	n/a	n/a	n/a	n/a	n/a	n/a
3429.6	n/a	RECOG_RESP	1714800	n/a	LTP274	ltpFR	4	2	1	SALT	1229	1	n/a	n/a	n/a	n/a	n/a	n/a	n/a
3431.146	n/a	RECOG_CONF	1715573	n/a	LTP274	ltpFR	4	2	1	SALT	1229	n/a	4	n/a	n/a	n/a	n/a	n/a	n/a
3433.15	n/a	RECOG_TARGET	1716575	n/a	LTP274	ltpFR	4	2	0	RACCOON	1153	1	2	1	n/a	n/a	n/a	n/a	n/a
3434.48	n/a	RECOG_RESP	1717240	n/a	LTP274	ltpFR	4	2	0	RACCOON	1153	1	n/a	1	n/a	n/a	n/a	n/a	n/a
3435.746	n/a	RECOG_CONF	1717873	n/a	LTP274	ltpFR	4	2	0	RACCOON	1153	n/a	2	1	n/a	n/a	n/a	n/a	n/a
3437.612	n/a	RECOG_TARGET	1718806	n/a	LTP274	ltpFR	4	2	0	TAG	1429	1	5	0	n/a	n/a	n/a	n/a	n/a
3438.376	n/a	RECOG_RESP	1719188	n/a	LTP274	ltpFR	4	2	0	TAG	1429	1	n/a	0	n/a	n/a	n/a	n/a	n/a
3439.306	n/a	RECOG_CONF	1719653	n/a	LTP274	ltpFR	4	2	0	TAG	1429	n/a	5	0	n/a	n/a	n/a	n/a	n/a
3441.156	n/a	RECOG_TARGET	1720578	n/a	LTP274	ltpFR	4	2	1	COTTON	385	1	5	0	n/a	n/a	n/a	n/a	n/a
3442.776	n/a	RECOG_RESP	1721388	n/a	LTP274	ltpFR	4	2	1	COTTON	385	1	n/a	0	n/a	n/a	n/a	n/a	n/a
3443.636	n/a	RECOG_CONF	1721818	n/a	LTP274	ltpFR	4	2	1	COTTON	385	n/a	5	0	n/a	n/a	n/a	n/a	n/a
3445.632	n/a	RECOG_LURE	1722816	n/a	LTP274	ltpFR	4	2	n/a	HERO	706	0	2	n/a	n/a	n/a	n/a	n/a	n/a
3449.216	n/a	RECOG_RESP	1724608	n/a	LTP274	ltpFR	4	2	n/a	HERO	706	0	n/a	n/a	n/a	n/a	n/a	n/a	n/a
3450.036	n/a	RECOG_CONF	1725018	n/a	LTP274	ltpFR	4	2	n/a	HERO	706	n/a	2	n/a	n/a	n/a	n/a	n/a	n/a
3451.922	n/a	RECOG_TARGET	1725961	n/a	LTP274	ltpFR	4	2	1	MESSAGE	888	1	3	0	n/a	n/a	n/a	n/a	n/a
3454.076	n/a	RECOG_RESP	1727038	n/a	LTP274	ltpFR	4	2	1	MESSAGE	888	1	n/a	0	n/a	n/a	n/a	n/a	n/a
3455.046	n/a	RECOG_CONF	1727523	n/a	LTP274	ltpFR	4	2	1	MESSAGE	888	n/a	3	0	n/a	n/a	n/a	n/a	n/a
3456.982	n/a	RECOG_TARGET	1728491	n/a	LTP274	ltpFR	4	2	-1	KITTEN	780	1	4	-1	n/a	n/a	n/a	n/a	n/a
3457.866	n/a	RECOG_RESP	1728933	n/a	LTP274	ltpFR	4	2	-1	KITTEN	780	1	n/a	-1	n/a	n/a	n/a	n/a	n/a
3458.656	n/a	RECOG_CONF	1729328	n/a	LTP274	ltpFR	4	2	-1	KITTEN	780	n/a	4	-1	n/a	n/a	n/a	n/a	n/a
3460.462	n/a	RECOG_LURE	1730231	n/a	LTP274	ltpFR	4	2	n/a	TRUCK	1512	0	1	n/a	n/a	n/a	n/a	n/a	n/a
3461.876	n/a	RECOG_RESP	1730938	n/a	LTP274	ltpFR	4	2	n/a	TRUCK	1512	0	n/a	n/a	n/a	n/a	n/a	n/a	n/a
3462.806	n/a	RECOG_CONF	1731403	n/a	LTP274	ltpFR	4	2	n/a	TRUCK	1512	n/a	1	n/a	n/a	n/a	n/a	n/a	n/a
3464.638	n/a	RECOG_TARGET	1732319	n/a	LTP274	ltpFR	4	2	1	FOOT	590	1	2	1	n/a	n/a	n/a	n/a	n/a
3466.332	n/a	RECOG_RESP	1733166	n/a	LTP274	ltpFR	4	2	1	FOOT	590	1	n/a	1	n/a	n/a	n/a	n/a	n/a
3467.256	n/a	RECOG_CONF	1733628	n/a	LTP274	ltpFR	4	2	1	FOOT	590	n/a	2	1	n/a	n/a	n/a	n/a	n/a
3469.232	n/a	RECOG_TARGET	1734616	n/a	LTP274	ltpFR	4	2	-1	TUXEDO	1525	1	4	-1	n/a	n/a	n/a	n/a	n/a
3470.116	n/a	RECOG_RESP	1735058	n/a	LTP274	ltpFR	4	2	-1	TUXEDO	1525	1	n/a	-1	n/a	n/a	n/a	n/a	n/a
3470.916	n/a	RECOG_CONF	1735458	n/a	LTP274	ltpFR	4	2	-1	TUXEDO	1525	n/a	4	-1	n/a	n/a	n/a	n/a	n/a
3472.826	n/a	RECOG_TARGET	1736413	n/a	LTP274	ltpFR	4	2	0	MAJOR	859	1	5	1	n/a	n/a	n/a	n/a	n/a
3473.796	n/a	RECOG_RESP	1736898	n/a	LTP274	ltpFR	4	2	0	MAJOR	859	1	n/a	1	n/a	n/a	n/a	n/a	n/a
3474.626	n/a	RECOG_CONF	1737313	n/a	LTP274	ltpFR	4	2	0	MAJOR	859	n/a	5	1	n/a	n/a	n/a	n/a	n/a
3476.504	n/a	RECOG_LURE	1738252	n/a	LTP274	ltpFR	4	2	n/a	MEAT	883	0	3	n/a	n/a	n/a	n/a	n/a	n/a
3477.566	n/a	RECOG_RESP	1738783	n/a	LTP274	ltpFR	4	2	n/a	MEAT	883	0	n/a	n/a	n/a	n/a	n/a	n/a	n/a
3478.576	n/a	RECOG_CONF	1739288	n/a	LTP274	ltpFR	4	2	n/a	MEAT	883	n/a	3	n/a	n/a	n/a	n/a	n/a	n/a
3480.398	n/a	RECOG_TARGET	1740199	n/a	LTP274	ltpFR	4	2	-1	PRESIDENT	1121	1	5	-1	n/a	n/a	n/a	n/a	n/a
3481.256	n/a	RECOG_RESP	1740628	n/a	LTP274	ltpFR	4	2	-1	PRESIDENT	1121	1	n/a	-1	n/a	n/a	n/a	n/a	n/a
3482.026	n/a	RECOG_CONF	1741013	n/a	LTP274	ltpFR	4	2	-1	PRESIDENT	1121	n/a	5	-1	n/a	n/a	n/a	n/a	n/a
3484.158	n/a	RECOG_TARGET	1742079	n/a	LTP274	ltpFR	4	2	0	JOURNAL	760	0	2	0	n/a	n/a	n/a	n/a	n/a
3486.132	n/a	RECOG_RESP	1743066	n/a	LTP274	ltpFR	4	2	0	JOURNAL	760	0	n/a	0	n/a	n/a	n/a	n/a	n/a
3486.896	n/a	RECOG_CONF	1743448	n/a	LTP274	ltpFR	4	2	0	JOURNAL	760	n/a	2	0	n/a	n/a	n/a	n/a	n/a
3488.836	n/a	RECOG_TARGET	1744418	n/a	LTP274	ltpFR	4	2	-1	TEMPLE	1448	1	4	-1	n/a	n/a	n/a	n/a	n/a
3489.582	n/a	RECOG_RESP	1744791	n/a	LTP274	ltpFR	4	2	-1	TEMPLE	1448	1	n/a	-1	n/a	n/a	n/a	n/a	n/a
3490.296	n/a	RECOG_CONF	1745148	n/a	LTP274	ltpFR	4	2	-1	TEMPLE	1448	n/a	4	-1	n/a	n/a	n/a	n/a	n/a
3492.246	n/a	RECOG_TARGET	1746123	n/a	LTP274	ltpFR	4	2	0	CHIMPANZEE	302	1	3	1	n/a	n/a	n/a	n/a	n/a
3493.922	n/a	RECOG_RESP	1746961	n/a	LTP274	ltpFR	4	2	0	CHIMPANZEE	302	1	n/a	1	n/a	n/a	n/a	n/a	n/a
3494.766	n/a	RECOG_CONF	1747383	n/a	LTP274	ltpFR	4	2	0	CHIMPANZEE	302	n/a	3	1	n/a	n/a	n/a	n/a	n/a
3496.658	n/a	RECOG_TARGET	1748329	n/a	LTP274	ltpFR	4	2	-1	GARLIC	624	1	4	-1	n/a	n/a	n/a	n/a	n/a
3497.536	n/a	RECOG_RESP	1748768	n/a	LTP274	ltpFR	4	2	-1	GARLIC	624	1	n/a	-1	n/a	n/a	n/a	n/a	n/a
3498.266	n/a	RECOG_CONF	1749133	n/a	LTP274	ltpFR	4	2	-1	GARLIC	624	n/a	4	-1	n/a	n/a	n/a	n/a	n/a
3500.134	n/a	RECOG_LURE	1750067	n/a	LTP274	ltpFR	4	2	n/a	GAUZE	626	0	4	n/a	n/a	n/a	n/a	n/a	n/a
3501.122	n/a	RECOG_RESP	1750561	n/a	LTP274	ltpFR	4	2	n/a	GAUZE	626	0	n/a	n/a	n/a	n/a	n/a	n/a	n/a
3501.836	n/a	RECOG_CONF	1750918	n/a	LTP274	ltpFR	4	2	n/a	GAUZE	626	n/a	4	n/a	n/a	n/a	n/a	n/a	n/a
3503.63	n/a	RECOG_TARGET	1751815	n/a	LTP274	ltpFR	4	2	0	RAM	1165	1	4	1	n/a	n/a	n/a	n/a	n/a
3504.496	n/a	RECOG_RESP	1752248	n/a	LTP274	ltpFR	4	2	0	RAM	1165	1	n/a	1	n/a	n/a	n/a	n/a	n/a
3505.266	n/a	RECOG_CONF	1752633	n/a	LTP274	ltpFR	4	2	0	RAM	1165	n/a	4	1	n/a	n/a	n/a	n/a	n/a
3507.19	n/a	RECOG_LURE	1753595	n/a	LTP274	ltpFR	4	2	n/a	WARRIOR	1589	0	1	n/a	n/a	n/a	n/a	n/a	n/a
3508.362	n/a	RECOG_RESP	1754181	n/a	LTP274	ltpFR	4	2	n/a	WARRIOR	1589	0	n/a	n/a	n/a	n/a	n/a	n/a	n/a
3509.196	n/a	RECOG_CONF	1754598	n/a	LTP274	ltpFR	4	2	n/a	WARRIOR	1589	n/a	1	n/a	n/a	n/a	n/a	n/a	n/a
3515.562	n/a	REC_START	1757781	n/a	LTP274	ltpFR	4	3	n/a	n/a	n/a	n/a	n/a	n/a	n/a	n/a	n/a	n/a	n/a
3515.596	n/a	RECOG_TARGET	1757798	n/a	LTP274	ltpFR	4	3	0	BISON	131	1	4	1	n/a	n/a	n/a	n/a	n/a
3516.578	n/a	RECOG_RESP	1758289	n/a	LTP274	ltpFR	4	3	0	BISON	131	1	n/a	1	n/a	n/a	n/a	n/a	n/a
3517.432	n/a	RECOG_CONF	1758716	n/a	LTP274	ltpFR	4	3	0	BISON	131	n/a	4	1	n/a	n/a	n/a	n/a	n/a
3519.272	n/a	RECOG_TARGET	1759636	n/a	LTP274	ltpFR	4	3	-1	HURRICANE	727	1	5	-1	n/a	n/a	n/a	n/a	n/a
3520.142	n/a	RECOG_RESP	1760071	n/a	LTP274	ltpFR	4	3	-1	HURRICANE	727	1	n/a	-1	n/a	n/a	n/a	n/a	n/a
3520.872	n/a	RECOG_CONF	1760436	n/a	LTP274	ltpFR	4	3	-1	HURRICANE	727	n/a	5	-1	n/a	n/a	n/a	n/a	n/a
3522.752	n/a	RECOG_TARGET	1761376	n/a	LTP274	ltpFR	4	3	1	ANIMAL	23	1	3	1	n/a	n/a	n/a	n/a	n/a
3525.608	n/a	RECOG_RESP	1762804	n/a	LTP274	ltpFR	4	3	1	ANIMAL	23	1	n/a	1	n/a	n/a	n/a	n/a	n/a
3526.582	n/a	RECOG_CONF	1763291	n/a	LTP274	ltpFR	4	3	1	ANIMAL	23	n/a	3	1	n/a	n/a	n/a	n/a	n/a
3528.176	n/a	RECOG_TARGET	1764088	n/a	LTP274	ltpFR	4	3	-1	PERFUME	1049	1	3	-1	n/a	n/a	n/a	n/a	n/a
3529.122	n/a	RECOG_RESP	1764561	n/a	LTP274	ltpFR	4	3	-1	PERFUME	1049	1	n/a	-1	n/a	n/a	n/a	n/a	n/a
3530.162	n/a	RECOG_CONF	1765081	n/a	LTP274	ltpFR	4	3	-1	PERFUME	1049	n/a	3	-1	n/a	n/a	n/a	n/a	n/a
3531.954	n/a	RECOG_TARGET	1765977	n/a	LTP274	ltpFR	4	3	1	TREASURE	1500	0	2	0	n/a	n/a	n/a	n/a	n/a
3533.254	n/a	RECOG_RESP	1766627	n/a	LTP274	ltpFR	4	3	1	TREASURE	1500	0	n/a	0	n/a	n/a	n/a	n/a	n/a
3534.694	n/a	RECOG_CONF	1767347	n/a	LTP274	ltpFR	4	3	1	TREASURE	1500	n/a	2	0	n/a	n/a	n/a	n/a	n/a
3536.716	n/a	RECOG_TARGET	1768358	n/a	LTP274	ltpFR	4	3	1	LITTER	832	0	3	1	n/a	n/a	n/a	n/a	n/a
3539.498	n/a	RECOG_RESP	1769749	n/a	LTP274	ltpFR	4	3	1	LITTER	832	0	n/a	1	n/a	n/a	n/a	n/a	n/a
3542.644	n/a	RECOG_CONF	1771322	n/a	LTP274	ltpFR	4	3	1	LITTER	832	n/a	3	1	n/a	n/a	n/a	n/a	n/a
3544.67	n/a	RECOG_TARGET	1772335	n/a	LTP274	ltpFR	4	3	-1	PORCH	1106	1	4	-1	n/a	n/a	n/a	n/a	n/a
3545.688	n/a	RECOG_RESP	1772844	n/a	LTP274	ltpFR	4	3	-1	PORCH	1106	1	n/a	-1	n/a	n/a	n/a	n/a	n/a
3546.664	n/a	RECOG_CONF	1773332	n/a	LTP274	ltpFR	4	3	-1	PORCH	1106	n/a	4	-1	n/a	n/a	n/a	n/a	n/a
3548.448	n/a	RECOG_TARGET	1774224	n/a	LTP274	ltpFR	4	3	0	TUBE	1516	1	3	0	n/a	n/a	n/a	n/a	n/a
3549.234	n/a	RECOG_RESP	1774617	n/a	LTP274	ltpFR	4	3	0	TUBE	1516	1	n/a	0	n/a	n/a	n/a	n/a	n/a
3550.634	n/a	RECOG_CONF	1775317	n/a	LTP274	ltpFR	4	3	0	TUBE	1516	n/a	3	0	n/a	n/a	n/a	n/a	n/a
3552.426	n/a	RECOG_TARGET	1776213	n/a	LTP274	ltpFR	4	3	-1	COOK	372	1	3	-1	n/a	n/a	n/a	n/a	n/a
3556.434	n/a	RECOG_RESP	1778217	n/a	LTP274	ltpFR	4	3	-1	COOK	372	1	n/a	-1	n/a	n/a	n/a	n/a	n/a
3557.144	n/a	RECOG_CONF	1778572	n/a	LTP274	ltpFR	4	3	-1	COOK	372	n/a	3	-1	n/a	n/a	n/a	n/a	n/a
3559.014	n/a	RECOG_TARGET	1779507	n/a	LTP274	ltpFR	4	3	0	DASHBOARD	441	1	4	1	n/a	n/a	n/a	n/a	n/a
3560.558	n/a	RECOG_RESP	1780279	n/a	LTP274	ltpFR	4	3	0	DASHBOARD	441	1	n/a	1	n/a	n/a	n/a	n/a	n/a
3561.074	n/a	RECOG_CONF	1780537	n/a	LTP274	ltpFR	4	3	0	DASHBOARD	441	n/a	4	1	n/a	n/a	n/a	n/a	n/a
3562.926	n/a	RECOG_TARGET	1781463	n/a	LTP274	ltpFR	4	3	0	APE	31	1	4	1	n/a	n/a	n/a	n/a	n/a
3563.794	n/a	RECOG_RESP	1781897	n/a	LTP274	ltpFR	4	3	0	APE	31	1	n/a	1	n/a	n/a	n/a	n/a	n/a
3564.404	n/a	RECOG_CONF	1782202	n/a	LTP274	ltpFR	4	3	0	APE	31	n/a	4	1	n/a	n/a	n/a	n/a	n/a
3566.204	n/a	RECOG_TARGET	1783102	n/a	LTP274	ltpFR	4	3	-1	TAPE	1433	0	2	-1	n/a	n/a	n/a	n/a	n/a
3567.378	n/a	RECOG_RESP	1783689	n/a	LTP274	ltpFR	4	3	-1	TAPE	1433	0	n/a	-1	n/a	n/a	n/a	n/a	n/a
3568.744	n/a	RECOG_CONF	1784372	n/a	LTP274	ltpFR	4	3	-1	TAPE	1433	n/a	2	-1	n/a	n/a	n/a	n/a	n/a
3570.632	n/a	RECOG_TARGET	1785316	n/a	LTP274	ltpFR	4	3	-1	PATROL	1027	1	5	-1	n/a	n/a	n/a	n/a	n/a
3571.378	n/a	RECOG_RESP	1785689	n/a	LTP274	ltpFR	4	3	-1	PATROL	1027	1	n/a	-1	n/a	n/a	n/a	n/a	n/a
3572.034	n/a	RECOG_CONF	1786017	n/a	LTP274	ltpFR	4	3	-1	PATROL	1027	n/a	5	-1	n/a	n/a	n/a	n/a	n/a
3573.66	n/a	RECOG_TARGET	1786830	n/a	LTP274	ltpFR	4	3	1	STALLION	1369	1	5	1	n/a	n/a	n/a	n/a	n/a
3574.394	n/a	RECOG_RESP	1787197	n/a	LTP274	ltpFR	4	3	1	STALLION	1369	1	n/a	1	n/a	n/a	n/a	n/a	n/a
3575.044	n/a	RECOG_CONF	1787522	n/a	LTP274	ltpFR	4	3	1	STALLION	1369	n/a	5	1	n/a	n/a	n/a	n/a	n/a
3576.806	n/a	RECOG_TARGET	1788403	n/a	LTP274	ltpFR	4	3	0	PICTURE	1061	1	3	0	n/a	n/a	n/a	n/a	n/a
3578.418	n/a	RECOG_RESP	1789209	n/a	LTP274	ltpFR	4	3	0	PICTURE	1061	1	n/a	0	n/a	n/a	n/a	n/a	n/a
3579.524	n/a	RECOG_CONF	1789762	n/a	LTP274	ltpFR	4	3	0	PICTURE	1061	n/a	3	0	n/a	n/a	n/a	n/a	n/a
3581.264	n/a	RECOG_TARGET	1790632	n/a	LTP274	ltpFR	4	3	-1	ROSE	1212	1	4	-1	n/a	n/a	n/a	n/a	n/a
3582.014	n/a	RECOG_RESP	1791007	n/a	LTP274	ltpFR	4	3	-1	ROSE	1212	1	n/a	-1	n/a	n/a	n/a	n/a	n/a
3582.674	n/a	RECOG_CONF	1791337	n/a	LTP274	ltpFR	4	3	-1	ROSE	1212	n/a	4	-1	n/a	n/a	n/a	n/a	n/a
3584.36	n/a	RECOG_LURE	1792180	n/a	LTP274	ltpFR	4	3	n/a	CELLAR	267	1	1	n/a	n/a	n/a	n/a	n/a	n/a
3586.588	n/a	RECOG_RESP	1793294	n/a	LTP274	ltpFR	4	3	n/a	CELLAR	267	1	n/a	n/a	n/a	n/a	n/a	n/a	n/a
3587.264	n/a	RECOG_CONF	1793632	n/a	LTP274	ltpFR	4	3	n/a	CELLAR	267	n/a	1	n/a	n/a	n/a	n/a	n/a	n/a
3589.054	n/a	RECOG_TARGET	1794527	n/a	LTP274	ltpFR	4	3	1	REEF	1177	1	4	0	n/a	n/a	n/a	n/a	n/a
3589.864	n/a	RECOG_RESP	1794932	n/a	LTP274	ltpFR	4	3	1	REEF	1177	1	n/a	0	n/a	n/a	n/a	n/a	n/a
3590.494	n/a	RECOG_CONF	1795247	n/a	LTP274	ltpFR	4	3	1	REEF	1177	n/a	4	0	n/a	n/a	n/a	n/a	n/a
3592.264	n/a	RECOG_LURE	1796132	n/a	LTP274	ltpFR	4	3	n/a	MISTER	901	0	2	n/a	n/a	n/a	n/a	n/a	n/a
3593.584	n/a	RECOG_RESP	1796792	n/a	LTP274	ltpFR	4	3	n/a	MISTER	901	0	n/a	n/a	n/a	n/a	n/a	n/a	n/a
3594.314	n/a	RECOG_CONF	1797157	n/a	LTP274	ltpFR	4	3	n/a	MISTER	901	n/a	2	n/a	n/a	n/a	n/a	n/a	n/a
3596.06	n/a	RECOG_TARGET	1798030	n/a	LTP274	ltpFR	4	3	1	CHIEF	298	1	4	1	n/a	n/a	n/a	n/a	n/a
3597.238	n/a	RECOG_RESP	1798619	n/a	LTP274	ltpFR	4	3	1	CHIEF	298	1	n/a	1	n/a	n/a	n/a	n/a	n/a
3597.864	n/a	RECOG_CONF	1798932	n/a	LTP274	ltpFR	4	3	1	CHIEF	298	n/a	4	1	n/a	n/a	n/a	n/a	n/a
3601.922	n/a	REC_START	1800961	n/a	LTP274	ltpFR	4	4	n/a	n/a	n/a	n/a	n/a	n/a	n/a	n/a	n/a	n/a	n/a
3601.95	n/a	RECOG_LURE	1800975	n/a	LTP274	ltpFR	4	4	n/a	SEED	1266	0	1	n/a	n/a	n/a	n/a	n/a	n/a
3603.522	n/a	RECOG_RESP	1801761	n/a	LTP274	ltpFR	4	4	n/a	SEED	1266	0	n/a	n/a	n/a	n/a	n/a	n/a	n/a
3604.972	n/a	RECOG_CONF	1802486	n/a	LTP274	ltpFR	4	4	n/a	SEED	1266	n/a	1	n/a	n/a	n/a	n/a	n/a	n/a
3606.794	n/a	RECOG_TARGET	1803397	n/a	LTP274	ltpFR	4	4	0	CORAL	378	1	4	1	n/a	n/a	n/a	n/a	n/a
3607.478	n/a	RECOG_RESP	1803739	n/a	LTP274	ltpFR	4	4	0	CORAL	378	1	n/a	1	n/a	n/a	n/a	n/a	n/a
3608.092	n/a	RECOG_CONF	1804046	n/a	LTP274	ltpFR	4	4	0	CORAL	378	n/a	4	1	n/a	n/a	n/a	n/a	n/a
3609.89	n/a	RECOG_TARGET	1804945	n/a	LTP274	ltpFR	4	4	0	AUDIENCE	59	0	2	1	n/a	n/a	n/a	n/a	n/a
3610.828	n/a	RECOG_RESP	1805414	n/a	LTP274	ltpFR	4	4	0	AUDIENCE	59	0	n/a	1	n/a	n/a	n/a	n/a	n/a
3611.614	n/a	RECOG_CONF	1805807	n/a	LTP274	ltpFR	4	4	0	AUDIENCE	59	n/a	2	1	n/a	n/a	n/a	n/a	n/a
3613.068	n/a	RECOG_TARGET	1806534	n/a	LTP274	ltpFR	4	4	1	BOSS	152	1	3	1	n/a	n/a	n/a	n/a	n/a
3614.608	n/a	RECOG_RESP	1807304	n/a	LTP274	ltpFR	4	4	1	BOSS	152	1	n/a	1	n/a	n/a	n/a	n/a	n/a
3615.244	n/a	RECOG_CONF	1807622	n/a	LTP274	ltpFR	4	4	1	BOSS	152	n/a	3	1	n/a	n/a	n/a	n/a	n/a
3616.996	n/a	RECOG_LURE	1808498	n/a	LTP274	ltpFR	4	4	n/a	QUILL	1150	0	3	n/a	n/a	n/a	n/a	n/a	n/a
3618.074	n/a	RECOG_RESP	1809037	n/a	LTP274	ltpFR	4	4	n/a	QUILL	1150	0	n/a	n/a	n/a	n/a	n/a	n/a	n/a
3618.694	n/a	RECOG_CONF	1809347	n/a	LTP274	ltpFR	4	4	n/a	QUILL	1150	n/a	3	n/a	n/a	n/a	n/a	n/a	n/a
3620.258	n/a	RECOG_TARGET	1810129	n/a	LTP274	ltpFR	4	4	1	THORN	1459	1	3	0	n/a	n/a	n/a	n/a	n/a
3621.304	n/a	RECOG_RESP	1810652	n/a	LTP274	ltpFR	4	4	1	THORN	1459	1	n/a	0	n/a	n/a	n/a	n/a	n/a
3621.904	n/a	RECOG_CONF	1810952	n/a	LTP274	ltpFR	4	4	1	THORN	1459	n/a	3	0	n/a	n/a	n/a	n/a	n/a
3623.57	n/a	RECOG_LURE	1811785	n/a	LTP274	ltpFR	4	4	n/a	DOOR	486	1	2	n/a	n/a	n/a	n/a	n/a	n/a
3625.728	n/a	RECOG_RESP	1812864	n/a	LTP274	ltpFR	4	4	n/a	DOOR	486	1	n/a	n/a	n/a	n/a	n/a	n/a	n/a
3627.184	n/a	RECOG_CONF	1813592	n/a	LTP274	ltpFR	4	4	n/a	DOOR	486	n/a	2	n/a	n/a	n/a	n/a	n/a	n/a
3628.994	n/a	RECOG_TARGET	1814497	n/a	LTP274	ltpFR	4	4	0	PASTA	1021	0	1	0	n/a	n/a	n/a	n/a	n/a
3630.428	n/a	RECOG_RESP	1815214	n/a	LTP274	ltpFR	4	4	0	PASTA	1021	0	n/a	0	n/a	n/a	n/a	n/a	n/a
3631.164	n/a	RECOG_CONF	1815582	n/a	LTP274	ltpFR	4	4	0	PASTA	1021	n/a	1	0	n/a	n/a	n/a	n/a	n/a
3632.888	n/a	RECOG_LURE	1816444	n/a	LTP274	ltpFR	4	4	n/a	OATS	968	0	2	n/a	n/a	n/a	n/a	n/a	n/a
3634.388	n/a	RECOG_RESP	1817194	n/a	LTP274	ltpFR	4	4	n/a	OATS	968	0	n/a	n/a	n/a	n/a	n/a	n/a	n/a
3635.564	n/a	RECOG_CONF	1817782	n/a	LTP274	ltpFR	4	4	n/a	OATS	968	n/a	2	n/a	n/a	n/a	n/a	n/a	n/a
3637.582	n/a	RECOG_TARGET	1818791	n/a	LTP274	ltpFR	4	4	1	BAKER	71	1	2	1	n/a	n/a	n/a	n/a	n/a
3639.408	n/a	RECOG_RESP	1819704	n/a	LTP274	ltpFR	4	4	1	BAKER	71	1	n/a	1	n/a	n/a	n/a	n/a	n/a
3640.104	n/a	RECOG_CONF	1820052	n/a	LTP274	ltpFR	4	4	1	BAKER	71	n/a	2	1	n/a	n/a	n/a	n/a	n/a
3642.124	n/a	RECOG_LURE	1821062	n/a	LTP274	ltpFR	4	4	n/a	COURT	391	0	3	n/a	n/a	n/a	n/a	n/a	n/a
3643.048	n/a	RECOG_RESP	1821524	n/a	LTP274	ltpFR	4	4	n/a	COURT	391	0	n/a	n/a	n/a	n/a	n/a	n/a	n/a
3643.674	n/a	RECOG_CONF	1821837	n/a	LTP274	ltpFR	4	4	n/a	COURT	391	n/a	3	n/a	n/a	n/a	n/a	n/a	n/a
3645.354	n/a	RECOG_LURE	1822677	n/a	LTP274	ltpFR	4	4	n/a	SUBWAY	1400	0	5	n/a	n/a	n/a	n/a	n/a	n/a
3646.434	n/a	RECOG_RESP	1823217	n/a	LTP274	ltpFR	4	4	n/a	SUBWAY	1400	0	n/a	n/a	n/a	n/a	n/a	n/a	n/a
3646.984	n/a	RECOG_CONF	1823492	n/a	LTP274	ltpFR	4	4	n/a	SUBWAY	1400	n/a	5	n/a	n/a	n/a	n/a	n/a	n/a
3648.7	n/a	RECOG_LURE	1824350	n/a	LTP274	ltpFR	4	4	n/a	SOFTBALL	1343	0	4	n/a	n/a	n/a	n/a	n/a	n/a
3649.954	n/a	RECOG_RESP	1824977	n/a	LTP274	ltpFR	4	4	n/a	SOFTBALL	1343	0	n/a	n/a	n/a	n/a	n/a	n/a	n/a
3650.644	n/a	RECOG_CONF	1825322	n/a	LTP274	ltpFR	4	4	n/a	SOFTBALL	1343	n/a	4	n/a	n/a	n/a	n/a	n/a	n/a
3652.21	n/a	RECOG_LURE	1826105	n/a	LTP274	ltpFR	4	4	n/a	STONE	1385	1	4	n/a	n/a	n/a	n/a	n/a	n/a
3653.238	n/a	RECOG_RESP	1826619	n/a	LTP274	ltpFR	4	4	n/a	STONE	1385	1	n/a	n/a	n/a	n/a	n/a	n/a	n/a
3653.854	n/a	RECOG_CONF	1826927	n/a	LTP274	ltpFR	4	4	n/a	STONE	1385	n/a	4	n/a	n/a	n/a	n/a	n/a	n/a
3655.572	n/a	RECOG_TARGET	1827786	n/a	LTP274	ltpFR	4	4	0	BEAR	106	1	5	1	n/a	n/a	n/a	n/a	n/a
3656.268	n/a	RECOG_RESP	1828134	n/a	LTP274	ltpFR	4	4	0	BEAR	106	1	n/a	1	n/a	n/a	n/a	n/a	n/a
3656.854	n/a	RECOG_CONF	1828427	n/a	LTP274	ltpFR	4	4	0	BEAR	106	n/a	5	1	n/a	n/a	n/a	n/a	n/a
3658.652	n/a	RECOG_TARGET	1829326	n/a	LTP274	ltpFR	4	4	1	COACH	331	1	4	1	n/a	n/a	n/a	n/a	n/a
3659.418	n/a	RECOG_RESP	1829709	n/a	LTP274	ltpFR	4	4	1	COACH	331	1	n/a	1	n/a	n/a	n/a	n/a	n/a
3660.024	n/a	RECOG_CONF	1830012	n/a	LTP274	ltpFR	4	4	1	COACH	331	n/a	4	1	n/a	n/a	n/a	n/a	n/a
3661.846	n/a	RECOG_TARGET	1830923	n/a	LTP274	ltpFR	4	4	1	SCREW	1254	1	2	0	n/a	n/a	n/a	n/a	n/a
3662.844	n/a	RECOG_RESP	1831422	n/a	LTP274	ltpFR	4	4	1	SCREW	1254	1	n/a	0	n/a	n/a	n/a	n/a	n/a
3663.524	n/a	RECOG_CONF	1831762	n/a	LTP274	ltpFR	4	4	1	SCREW	1254	n/a	2	0	n/a	n/a	n/a	n/a	n/a
3665.524	n/a	RECOG_TARGET	1832762	n/a	LTP274	ltpFR	4	4	1	GOO	648	1	5	0	n/a	n/a	n/a	n/a	n/a
3666.228	n/a	RECOG_RESP	1833114	n/a	LTP274	ltpFR	4	4	1	GOO	648	1	n/a	0	n/a	n/a	n/a	n/a	n/a
3666.824	n/a	RECOG_CONF	1833412	n/a	LTP274	ltpFR	4	4	1	GOO	648	n/a	5	0	n/a	n/a	n/a	n/a	n/a
3668.554	n/a	RECOG_LURE	1834277	n/a	LTP274	ltpFR	4	4	n/a	FRAME	600	0	3	n/a	n/a	n/a	n/a	n/a	n/a
3669.558	n/a	RECOG_RESP	1834779	n/a	LTP274	ltpFR	4	4	n/a	FRAME	600	0	n/a	n/a	n/a	n/a	n/a	n/a	n/a
3670.184	n/a	RECOG_CONF	1835092	n/a	LTP274	ltpFR	4	4	n/a	FRAME	600	n/a	3	n/a	n/a	n/a	n/a	n/a	n/a
3671.98	n/a	RECOG_TARGET	1835990	n/a	LTP274	ltpFR	4	4	1	YACHT	1629	1	4	0	n/a	n/a	n/a	n/a	n/a
3674.038	n/a	RECOG_RESP	1837019	n/a	LTP274	ltpFR	4	4	1	YACHT	1629	1	n/a	0	n/a	n/a	n/a	n/a	n/a
3674.684	n/a	RECOG_CONF	1837342	n/a	LTP274	ltpFR	4	4	1	YACHT	1629	n/a	4	0	n/a	n/a	n/a	n/a	n/a
3678.26	n/a	REC_START	1839130	n/a	LTP274	ltpFR	4	5	n/a	n/a	n/a	n/a	n/a	n/a	n/a	n/a	n/a	n/a	n/a
3678.288	n/a	RECOG_LURE	1839144	n/a	LTP274	ltpFR	4	5	n/a	ROOM	1206	1	1	n/a	n/a	n/a	n/a	n/a	n/a
3680.454	n/a	RECOG_RESP	1840227	n/a	LTP274	ltpFR	4	5	n/a	ROOM	1206	1	n/a	n/a	n/a	n/a	n/a	n/a	n/a
3681.25	n/a	RECOG_CONF	1840625	n/a	LTP274	ltpFR	4	5	n/a	ROOM	1206	n/a	1	n/a	n/a	n/a	n/a	n/a	n/a
3683.098	n/a	RECOG_LURE	1841549	n/a	LTP274	ltpFR	4	5	n/a	ACID	2	0	3	n/a	n/a	n/a	n/a	n/a	n/a
3684.526	n/a	RECOG_RESP	1842263	n/a	LTP274	ltpFR	4	5	n/a	ACID	2	0	n/a	n/a	n/a	n/a	n/a	n/a	n/a
3685.31	n/a	RECOG_CONF	1842655	n/a	LTP274	ltpFR	4	5	n/a	ACID	2	n/a	3	n/a	n/a	n/a	n/a	n/a	n/a
3687.108	n/a	RECOG_LURE	1843554	n/a	LTP274	ltpFR	4	5	n/a	HOSTESS	723	0	4	n/a	n/a	n/a	n/a	n/a	n/a
3689.13	n/a	RECOG_RESP	1844565	n/a	LTP274	ltpFR	4	5	n/a	HOSTESS	723	0	n/a	n/a	n/a	n/a	n/a	n/a	n/a
3689.9	n/a	RECOG_CONF	1844950	n/a	LTP274	ltpFR	4	5	n/a	HOSTESS	723	n/a	4	n/a	n/a	n/a	n/a	n/a	n/a
3691.652	n/a	RECOG_TARGET	1845826	n/a	LTP274	ltpFR	4	5	1	POLITICIAN	1099	1	5	1	n/a	n/a	n/a	n/a	n/a
3692.856	n/a	RECOG_RESP	1846428	n/a	LTP274	ltpFR	4	5	1	POLITICIAN	1099	1	n/a	1	n/a	n/a	n/a	n/a	n/a
3693.4	n/a	RECOG_CONF	1846700	n/a	LTP274	ltpFR	4	5	1	POLITICIAN	1099	n/a	5	1	n/a	n/a	n/a	n/a	n/a
3695.096	n/a	RECOG_LURE	1847548	n/a	LTP274	ltpFR	4	5	n/a	CONTINENT	367	0	5	n/a	n/a	n/a	n/a	n/a	n/a
3696.116	n/a	RECOG_RESP	1848058	n/a	LTP274	ltpFR	4	5	n/a	CONTINENT	367	0	n/a	n/a	n/a	n/a	n/a	n/a	n/a
3696.72	n/a	RECOG_CONF	1848360	n/a	LTP274	ltpFR	4	5	n/a	CONTINENT	367	n/a	5	n/a	n/a	n/a	n/a	n/a	n/a
3698.408	n/a	RECOG_TARGET	1849204	n/a	LTP274	ltpFR	4	5	0	DRAWER	493	1	4	1	n/a	n/a	n/a	n/a	n/a
3699.44	n/a	RECOG_RESP	1849720	n/a	LTP274	ltpFR	4	5	0	DRAWER	493	1	n/a	1	n/a	n/a	n/a	n/a	n/a
3699.95	n/a	RECOG_CONF	1849975	n/a	LTP274	ltpFR	4	5	0	DRAWER	493	n/a	4	1	n/a	n/a	n/a	n/a	n/a
3702.004	n/a	RECOG_TARGET	1851002	n/a	LTP274	ltpFR	4	5	1	COLT	349	1	2	0	n/a	n/a	n/a	n/a	n/a
3704.506	n/a	RECOG_RESP	1852253	n/a	LTP274	ltpFR	4	5	1	COLT	349	1	n/a	0	n/a	n/a	n/a	n/a	n/a
3705.71	n/a	RECOG_CONF	1852855	n/a	LTP274	ltpFR	4	5	1	COLT	349	n/a	2	0	n/a	n/a	n/a	n/a	n/a
3707.58	n/a	RECOG_LURE	1853790	n/a	LTP274	ltpFR	4	5	n/a	ELEVATOR	524	0	1	n/a	n/a	n/a	n/a	n/a	n/a
3709.32	n/a	RECOG_RESP	1854660	n/a	LTP274	ltpFR	4	5	n/a	ELEVATOR	524	0	n/a	n/a	n/a	n/a	n/a	n/a	n/a
3710.28	n/a	RECOG_CONF	1855140	n/a	LTP274	ltpFR	4	5	n/a	ELEVATOR	524	n/a	1	n/a	n/a	n/a	n/a	n/a	n/a
3712.038	n/a	RECOG_LURE	1856019	n/a	LTP274	ltpFR	4	5	n/a	ELK	526	0	3	n/a	n/a	n/a	n/a	n/a	n/a
3712.856	n/a	RECOG_RESP	1856428	n/a	LTP274	ltpFR	4	5	n/a	ELK	526	0	n/a	n/a	n/a	n/a	n/a	n/a	n/a
3713.57	n/a	RECOG_CONF	1856785	n/a	LTP274	ltpFR	4	5	n/a	ELK	526	n/a	3	n/a	n/a	n/a	n/a	n/a	n/a
3715.334	n/a	RECOG_LURE	1857667	n/a	LTP274	ltpFR	4	5	n/a	MAGAZINE	853	1	3	n/a	n/a	n/a	n/a	n/a	n/a
3716.4	n/a	RECOG_RESP	1858200	n/a	LTP274	ltpFR	4	5	n/a	MAGAZINE	853	1	n/a	n/a	n/a	n/a	n/a	n/a	n/a
3717.15	n/a	RECOG_CONF	1858575	n/a	LTP274	ltpFR	4	5	n/a	MAGAZINE	853	n/a	3	n/a	n/a	n/a	n/a	n/a	n/a
3718.846	n/a	RECOG_TARGET	1859423	n/a	LTP274	ltpFR	4	5	0	WASHCLOTH	1591	1	4	0	n/a	n/a	n/a	n/a	n/a
3719.76	n/a	RECOG_RESP	1859880	n/a	LTP274	ltpFR	4	5	0	WASHCLOTH	1591	1	n/a	0	n/a	n/a	n/a	n/a	n/a
3720.4	n/a	RECOG_CONF	1860200	n/a	LTP274	ltpFR	4	5	0	WASHCLOTH	1591	n/a	4	0	n/a	n/a	n/a	n/a	n/a
3722.156	n/a	RECOG_LURE	1861078	n/a	LTP274	ltpFR	4	5	n/a	DISHWASHER	475	0	2	n/a	n/a	n/a	n/a	n/a	n/a
3723.396	n/a	RECOG_RESP	1861698	n/a	LTP274	ltpFR	4	5	n/a	DISHWASHER	475	0	n/a	n/a	n/a	n/a	n/a	n/a	n/a
3724.18	n/a	RECOG_CONF	1862090	n/a	LTP274	ltpFR	4	5	n/a	DISHWASHER	475	n/a	2	n/a	n/a	n/a	n/a	n/a	n/a
3725.934	n/a	RECOG_TARGET	1862967	n/a	LTP274	ltpFR	4	5	-1	TURNIP	1521	1	4	-1	n/a	n/a	n/a	n/a	n/a
3726.75	n/a	RECOG_RESP	1863375	n/a	LTP274	ltpFR	4	5	-1	TURNIP	1521	1	n/a	-1	n/a	n/a	n/a	n/a	n/a
3727.4	n/a	RECOG_CONF	1863700	n/a	LTP274	ltpFR	4	5	-1	TURNIP	1521	n/a	4	-1	n/a	n/a	n/a	n/a	n/a
3729.212	n/a	RECOG_LURE	1864606	n/a	LTP274	ltpFR	4	5	n/a	PEACH	1031	1	4	n/a	n/a	n/a	n/a	n/a	n/a
3729.916	n/a	RECOG_RESP	1864958	n/a	LTP274	ltpFR	4	5	n/a	PEACH	1031	1	n/a	n/a	n/a	n/a	n/a	n/a	n/a
3730.84	n/a	RECOG_CONF	1865420	n/a	LTP274	ltpFR	4	5	n/a	PEACH	1031	n/a	4	n/a	n/a	n/a	n/a	n/a	n/a
3732.492	n/a	RECOG_LURE	1866246	n/a	LTP274	ltpFR	4	5	n/a	RADIO	1157	0	3	n/a	n/a	n/a	n/a	n/a	n/a
3734.82	n/a	RECOG_RESP	1867410	n/a	LTP274	ltpFR	4	5	n/a	RADIO	1157	0	n/a	n/a	n/a	n/a	n/a	n/a	n/a
3735.97	n/a	RECOG_CONF	1867985	n/a	LTP274	ltpFR	4	5	n/a	RADIO	1157	n/a	3	n/a	n/a	n/a	n/a	n/a	n/a
3737.818	n/a	RECOG_TARGET	1868909	n/a	LTP274	ltpFR	4	5	1	POLYESTER	1100	0	4	0	n/a	n/a	n/a	n/a	n/a
3738.78	n/a	RECOG_RESP	1869390	n/a	LTP274	ltpFR	4	5	1	POLYESTER	1100	0	n/a	0	n/a	n/a	n/a	n/a	n/a
3739.41	n/a	RECOG_CONF	1869705	n/a	LTP274	ltpFR	4	5	1	POLYESTER	1100	n/a	4	0	n/a	n/a	n/a	n/a	n/a
3741.178	n/a	RECOG_TARGET	1870589	n/a	LTP274	ltpFR	4	5	-1	MOVIE	927	0	2	-1	n/a	n/a	n/a	n/a	n/a
3743.876	n/a	RECOG_RESP	1871938	n/a	LTP274	ltpFR	4	5	-1	MOVIE	927	0	n/a	-1	n/a	n/a	n/a	n/a	n/a
3744.74	n/a	RECOG_CONF	1872370	n/a	LTP274	ltpFR	4	5	-1	MOVIE	927	n/a	2	-1	n/a	n/a	n/a	n/a	n/a
3746.67	n/a	RECOG_TARGET	1873335	n/a	LTP274	ltpFR	4	5	1	BIBLE	124	1	5	0	n/a	n/a	n/a	n/a	n/a
3747.456	n/a	RECOG_RESP	1873728	n/a	LTP274	ltpFR	4	5	1	BIBLE	124	1	n/a	0	n/a	n/a	n/a	n/a	n/a
3748.12	n/a	RECOG_CONF	1874060	n/a	LTP274	ltpFR	4	5	1	BIBLE	124	n/a	5	0	n/a	n/a	n/a	n/a	n/a
3749.948	n/a	RECOG_LURE	1874974	n/a	LTP274	ltpFR	4	5	n/a	ENCYCLOPEDIA	533	0	3	n/a	n/a	n/a	n/a	n/a	n/a
3750.876	n/a	RECOG_RESP_VV	1875438	n/a	LTP274	ltpFR	4	5	n/a	ENCYCLOPEDIA	533	1	n/a	n/a	n/a	n/a	n/a	n/a	n/a
3751.956	n/a	RECOG_RESP	1875978	n/a	LTP274	ltpFR	4	5	n/a	ENCYCLOPEDIA	533	0	n/a	n/a	n/a	n/a	n/a	n/a	n/a
3754.67	n/a	RECOG_CONF	1877335	n/a	LTP274	ltpFR	4	5	n/a	ENCYCLOPEDIA	533	n/a	3	n/a	n/a	n/a	n/a	n/a	n/a
3756.672	n/a	RECOG_TARGET	1878336	n/a	LTP274	ltpFR	4	5	1	BOUQUET	157	1	4	0	n/a	n/a	n/a	n/a	n/a
3759.872	n/a	RECOG_RESP	1879936	n/a	LTP274	ltpFR	4	5	1	BOUQUET	157	1	n/a	0	n/a	n/a	n/a	n/a	n/a
3762.742	n/a	RECOG_CONF	1881371	n/a	LTP274	ltpFR	4	5	1	BOUQUET	157	n/a	4	0	n/a	n/a	n/a	n/a	n/a
3783.57	n/a	REC_START	1891785	n/a	LTP274	ltpFR	4	6	n/a	n/a	n/a	n/a	n/a	n/a	n/a	n/a	n/a	n/a	n/a
3783.716	n/a	RECOG_TARGET	1891858	n/a	LTP274	ltpFR	4	6	0	ELBOW	520	1	3	0	n/a	n/a	n/a	n/a	n/a
3786.55	n/a	RECOG_RESP	1893275	n/a	LTP274	ltpFR	4	6	0	ELBOW	520	1	n/a	0	n/a	n/a	n/a	n/a	n/a
3787.52	n/a	RECOG_CONF	1893760	n/a	LTP274	ltpFR	4	6	0	ELBOW	520	n/a	3	0	n/a	n/a	n/a	n/a	n/a
3789.89	n/a	RECOG_LURE	1894945	n/a	LTP274	ltpFR	4	6	n/a	HAMMER	680	0	2	n/a	n/a	n/a	n/a	n/a	n/a
3791.526	n/a	RECOG_RESP	1895763	n/a	LTP274	ltpFR	4	6	n/a	HAMMER	680	0	n/a	n/a	n/a	n/a	n/a	n/a	n/a
3792.43	n/a	RECOG_CONF	1896215	n/a	LTP274	ltpFR	4	6	n/a	HAMMER	680	n/a	2	n/a	n/a	n/a	n/a	n/a	n/a
3794.366	n/a	RECOG_TARGET	1897183	n/a	LTP274	ltpFR	4	6	0	PUBLISHER	1137	1	4	1	n/a	n/a	n/a	n/a	n/a
3795.176	n/a	RECOG_RESP	1897588	n/a	LTP274	ltpFR	4	6	0	PUBLISHER	1137	1	n/a	1	n/a	n/a	n/a	n/a	n/a
3796.18	n/a	RECOG_CONF	1898090	n/a	LTP274	ltpFR	4	6	0	PUBLISHER	1137	n/a	4	1	n/a	n/a	n/a	n/a	n/a
3798.06	n/a	RECOG_TARGET	1899030	n/a	LTP274	ltpFR	4	6	1	RULER	1216	1	3	1	n/a	n/a	n/a	n/a	n/a
3798.876	n/a	RECOG_RESP	1899438	n/a	LTP274	ltpFR	4	6	1	RULER	1216	1	n/a	1	n/a	n/a	n/a	n/a	n/a
3800.64	n/a	RECOG_CONF	1900320	n/a	LTP274	ltpFR	4	6	1	RULER	1216	n/a	3	1	n/a	n/a	n/a	n/a	n/a
3803.604	n/a	RECOG_TARGET	1901802	n/a	LTP274	ltpFR	4	6	1	CREATURE	403	1	4	1	n/a	n/a	n/a	n/a	n/a
3805.05	n/a	RECOG_RESP	1902525	n/a	LTP274	ltpFR	4	6	1	CREATURE	403	1	n/a	1	n/a	n/a	n/a	n/a	n/a
3805.89	n/a	RECOG_CONF	1902945	n/a	LTP274	ltpFR	4	6	1	CREATURE	403	n/a	4	1	n/a	n/a	n/a	n/a	n/a
3807.714	n/a	RECOG_TARGET	1903857	n/a	LTP274	ltpFR	4	6	-1	MOUSE	925	1	5	-1	n/a	n/a	n/a	n/a	n/a
3808.51	n/a	RECOG_RESP	1904255	n/a	LTP274	ltpFR	4	6	-1	MOUSE	925	1	n/a	-1	n/a	n/a	n/a	n/a	n/a
3809.11	n/a	RECOG_CONF	1904555	n/a	LTP274	ltpFR	4	6	-1	MOUSE	925	n/a	5	-1	n/a	n/a	n/a	n/a	n/a
3811.024	n/a	RECOG_LURE	1905512	n/a	LTP274	ltpFR	4	6	n/a	EMPIRE	530	1	2	n/a	n/a	n/a	n/a	n/a	n/a
3812.756	n/a	RECOG_RESP	1906378	n/a	LTP274	ltpFR	4	6	n/a	EMPIRE	530	1	n/a	n/a	n/a	n/a	n/a	n/a	n/a
3813.64	n/a	RECOG_CONF	1906820	n/a	LTP274	ltpFR	4	6	n/a	EMPIRE	530	n/a	2	n/a	n/a	n/a	n/a	n/a	n/a
3815.436	n/a	RECOG_LURE	1907718	n/a	LTP274	ltpFR	4	6	n/a	SENATOR	1268	0	2	n/a	n/a	n/a	n/a	n/a	n/a
3816.916	n/a	RECOG_RESP	1908458	n/a	LTP274	ltpFR	4	6	n/a	SENATOR	1268	0	n/a	n/a	n/a	n/a	n/a	n/a	n/a
3818.35	n/a	RECOG_CONF	1909175	n/a	LTP274	ltpFR	4	6	n/a	SENATOR	1268	n/a	2	n/a	n/a	n/a	n/a	n/a	n/a
3820.394	n/a	RECOG_TARGET	1910197	n/a	LTP274	ltpFR	4	6	0	WEB	1598	1	4	1	n/a	n/a	n/a	n/a	n/a
3821.31	n/a	RECOG_RESP	1910655	n/a	LTP274	ltpFR	4	6	0	WEB	1598	1	n/a	1	n/a	n/a	n/a	n/a	n/a
3822.09	n/a	RECOG_CONF	1911045	n/a	LTP274	ltpFR	4	6	0	WEB	1598	n/a	4	1	n/a	n/a	n/a	n/a	n/a
3823.656	n/a	RECOG_LURE	1911828	n/a	LTP274	ltpFR	4	6	n/a	JEWEL	757	0	3	n/a	n/a	n/a	n/a	n/a	n/a
3824.686	n/a	RECOG_RESP	1912343	n/a	LTP274	ltpFR	4	6	n/a	JEWEL	757	0	n/a	n/a	n/a	n/a	n/a	n/a	n/a
3826.3	n/a	RECOG_CONF	1913150	n/a	LTP274	ltpFR	4	6	n/a	JEWEL	757	n/a	3	n/a	n/a	n/a	n/a	n/a	n/a
3828.116	n/a	RECOG_LURE	1914058	n/a	LTP274	ltpFR	4	6	n/a	TRAIN	1494	1	3	n/a	n/a	n/a	n/a	n/a	n/a
3828.96	n/a	RECOG_RESP	1914480	n/a	LTP274	ltpFR	4	6	n/a	TRAIN	1494	1	n/a	n/a	n/a	n/a	n/a	n/a	n/a
3829.88	n/a	RECOG_CONF	1914940	n/a	LTP274	ltpFR	4	6	n/a	TRAIN	1494	n/a	3	n/a	n/a	n/a	n/a	n/a	n/a
3831.812	n/a	RECOG_LURE	1915906	n/a	LTP274	ltpFR	4	6	n/a	GLACIER	638	0	4	n/a	n/a	n/a	n/a	n/a	n/a
3832.92	n/a	RECOG_RESP	1916460	n/a	LTP274	ltpFR	4	6	n/a	GLACIER	638	0	n/a	n/a	n/a	n/a	n/a	n/a	n/a
3833.77	n/a	RECOG_CONF	1916885	n/a	LTP274	ltpFR	4	6	n/a	GLACIER	638	n/a	4	n/a	n/a	n/a	n/a	n/a	n/a
3835.64	n/a	RECOG_LURE	1917820	n/a	LTP274	ltpFR	4	6	n/a	DRINK	498	0	2	n/a	n/a	n/a	n/a	n/a	n/a
3837.712	n/a	RECOG_RESP	1918856	n/a	LTP274	ltpFR	4	6	n/a	DRINK	498	0	n/a	n/a	n/a	n/a	n/a	n/a	n/a
3840.432	n/a	RECOG_CONF	1920216	n/a	LTP274	ltpFR	4	6	n/a	DRINK	498	n/a	2	n/a	n/a	n/a	n/a	n/a	n/a
3842.662	n/a	RECOG_TARGET	1921331	n/a	LTP274	ltpFR	4	6	-1	BEAKER	104	1	5	-1	n/a	n/a	n/a	n/a	n/a
3843.862	n/a	RECOG_RESP	1921931	n/a	LTP274	ltpFR	4	6	-1	BEAKER	104	1	n/a	-1	n/a	n/a	n/a	n/a	n/a
3844.652	n/a	RECOG_CONF	1922326	n/a	LTP274	ltpFR	4	6	-1	BEAKER	104	n/a	5	-1	n/a	n/a	n/a	n/a	n/a
3846.322	n/a	RECOG_TARGET	1923161	n/a	LTP274	ltpFR	4	6	0	COYOTE	396	1	4	1	n/a	n/a	n/a	n/a	n/a
3848.096	n/a	RECOG_RESP	1924048	n/a	LTP274	ltpFR	4	6	0	COYOTE	396	1	n/a	1	n/a	n/a	n/a	n/a	n/a
3849.082	n/a	RECOG_CONF	1924541	n/a	LTP274	ltpFR	4	6	0	COYOTE	396	n/a	4	1	n/a	n/a	n/a	n/a	n/a
3850.882	n/a	RECOG_TARGET	1925441	n/a	LTP274	ltpFR	4	6	0	UNDERWEAR	1537	1	4	0	n/a	n/a	n/a	n/a	n/a
3853.386	n/a	RECOG_RESP	1926693	n/a	LTP274	ltpFR	4	6	0	UNDERWEAR	1537	1	n/a	0	n/a	n/a	n/a	n/a	n/a
3854.322	n/a	RECOG_CONF	1927161	n/a	LTP274	ltpFR	4	6	0	UNDERWEAR	1537	n/a	4	0	n/a	n/a	n/a	n/a	n/a
3856.208	n/a	RECOG_TARGET	1928104	n/a	LTP274	ltpFR	4	6	1	ATTIRE	57	0	2	0	n/a	n/a	n/a	n/a	n/a
3857.916	n/a	RECOG_RESP	1928958	n/a	LTP274	ltpFR	4	6	1	ATTIRE	57	0	n/a	0	n/a	n/a	n/a	n/a	n/a
3861.442	n/a	RECOG_CONF	1930721	n/a	LTP274	ltpFR	4	6	1	ATTIRE	57	n/a	2	0	n/a	n/a	n/a	n/a	n/a
3863.38	n/a	RECOG_TARGET	1931690	n/a	LTP274	ltpFR	4	6	0	BASKETBALL	96	1	4	1	n/a	n/a	n/a	n/a	n/a
3865.052	n/a	RECOG_RESP	1932526	n/a	LTP274	ltpFR	4	6	0	BASKETBALL	96	1	n/a	1	n/a	n/a	n/a	n/a	n/a
3866.492	n/a	RECOG_CONF	1933246	n/a	LTP274	ltpFR	4	6	0	BASKETBALL	96	n/a	4	1	n/a	n/a	n/a	n/a	n/a
3868.574	n/a	RECOG_TARGET	1934287	n/a	LTP274	ltpFR	4	6	0	SUPERVISOR	1410	1	2	1	n/a	n/a	n/a	n/a	n/a
3869.922	n/a	RECOG_RESP	1934961	n/a	LTP274	ltpFR	4	6	0	SUPERVISOR	1410	1	n/a	1	n/a	n/a	n/a	n/a	n/a
3870.342	n/a	RECOG_CONF	1935171	n/a	LTP274	ltpFR	4	6	0	SUPERVISOR	1410	n/a	2	1	n/a	n/a	n/a	n/a	n/a
3872.568	n/a	RECOG_TARGET	1936284	n/a	LTP274	ltpFR	4	6	0	ROOF	1205	1	3	1	n/a	n/a	n/a	n/a	n/a
3873.626	n/a	RECOG_RESP	1936813	n/a	LTP274	ltpFR	4	6	0	ROOF	1205	1	n/a	1	n/a	n/a	n/a	n/a	n/a
3874.372	n/a	RECOG_CONF	1937186	n/a	LTP274	ltpFR	4	6	0	ROOF	1205	n/a	3	1	n/a	n/a	n/a	n/a	n/a
3881.926	n/a	REC_START	1940963	n/a	LTP274	ltpFR	4	7	n/a	n/a	n/a	n/a	n/a	n/a	n/a	n/a	n/a	n/a	n/a
3881.954	n/a	RECOG_TARGET	1940977	n/a	LTP274	ltpFR	4	7	1	FATHER	554	1	5	1	n/a	n/a	n/a	n/a	n/a
3882.796	n/a	RECOG_RESP	1941398	n/a	LTP274	ltpFR	4	7	1	FATHER	554	1	n/a	1	n/a	n/a	n/a	n/a	n/a
3883.296	n/a	RECOG_CONF	1941648	n/a	LTP274	ltpFR	4	7	1	FATHER	554	n/a	5	1	n/a	n/a	n/a	n/a	n/a
3885.132	n/a	RECOG_LURE	1942566	n/a	LTP274	ltpFR	4	7	n/a	INDIAN	736	0	5	n/a	n/a	n/a	n/a	n/a	n/a
3886.036	n/a	RECOG_RESP	1943018	n/a	LTP274	ltpFR	4	7	n/a	INDIAN	736	0	n/a	n/a	n/a	n/a	n/a	n/a	n/a
3886.646	n/a	RECOG_CONF	1943323	n/a	LTP274	ltpFR	4	7	n/a	INDIAN	736	n/a	5	n/a	n/a	n/a	n/a	n/a	n/a
3888.41	n/a	RECOG_TARGET	1944205	n/a	LTP274	ltpFR	4	7	0	JEANS	752	1	3	1	n/a	n/a	n/a	n/a	n/a
3889.16	n/a	RECOG_RESP	1944580	n/a	LTP274	ltpFR	4	7	0	JEANS	752	1	n/a	1	n/a	n/a	n/a	n/a	n/a
3889.896	n/a	RECOG_CONF	1944948	n/a	LTP274	ltpFR	4	7	0	JEANS	752	n/a	3	1	n/a	n/a	n/a	n/a	n/a
3891.59	n/a	RECOG_LURE	1945795	n/a	LTP274	ltpFR	4	7	n/a	LOLLIPOP	842	0	4	n/a	n/a	n/a	n/a	n/a	n/a
3892.33	n/a	RECOG_RESP	1946165	n/a	LTP274	ltpFR	4	7	n/a	LOLLIPOP	842	0	n/a	n/a	n/a	n/a	n/a	n/a	n/a
3892.916	n/a	RECOG_CONF	1946458	n/a	LTP274	ltpFR	4	7	n/a	LOLLIPOP	842	n/a	4	n/a	n/a	n/a	n/a	n/a	n/a
3894.668	n/a	RECOG_TARGET	1947334	n/a	LTP274	ltpFR	4	7	-1	REPTILE	1185	1	4	-1	n/a	n/a	n/a	n/a	n/a
3895.356	n/a	RECOG_RESP	1947678	n/a	LTP274	ltpFR	4	7	-1	REPTILE	1185	1	n/a	-1	n/a	n/a	n/a	n/a	n/a
3895.976	n/a	RECOG_CONF	1947988	n/a	LTP274	ltpFR	4	7	-1	REPTILE	1185	n/a	4	-1	n/a	n/a	n/a	n/a	n/a
3897.798	n/a	RECOG_LURE	1948899	n/a	LTP274	ltpFR	4	7	n/a	VAGRANT	1544	0	2	n/a	n/a	n/a	n/a	n/a	n/a
3900.706	n/a	RECOG_RESP_VV	1950353	n/a	LTP274	ltpFR	4	7	n/a	VAGRANT	1544	1	n/a	n/a	n/a	n/a	n/a	n/a	n/a
3901.88	n/a	RECOG_RESP	1950940	n/a	LTP274	ltpFR	4	7	n/a	VAGRANT	1544	0	n/a	n/a	n/a	n/a	n/a	n/a	n/a
3904.636	n/a	RECOG_CONF	1952318	n/a	LTP274	ltpFR	4	7	n/a	VAGRANT	1544	n/a	2	n/a	n/a	n/a	n/a	n/a	n/a
3906.734	n/a	RECOG_TARGET	1953367	n/a	LTP274	ltpFR	4	7	-1	DRYER	503	0	1	-1	n/a	n/a	n/a	n/a	n/a
3908.046	n/a	RECOG_RESP	1954023	n/a	LTP274	ltpFR	4	7	-1	DRYER	503	0	n/a	-1	n/a	n/a	n/a	n/a	n/a
3911.146	n/a	RECOG_CONF	1955573	n/a	LTP274	ltpFR	4	7	-1	DRYER	503	n/a	1	-1	n/a	n/a	n/a	n/a	n/a
3913.158	n/a	RECOG_LURE	1956579	n/a	LTP274	ltpFR	4	7	n/a	TONGUE	1479	0	1	n/a	n/a	n/a	n/a	n/a	n/a
3914.786	n/a	RECOG_RESP	1957393	n/a	LTP274	ltpFR	4	7	n/a	TONGUE	1479	0	n/a	n/a	n/a	n/a	n/a	n/a	n/a
3915.566	n/a	RECOG_CONF	1957783	n/a	LTP274	ltpFR	4	7	n/a	TONGUE	1479	n/a	1	n/a	n/a	n/a	n/a	n/a	n/a
3917.318	n/a	RECOG_LURE	1958659	n/a	LTP274	ltpFR	4	7	n/a	SCROLL	1257	0	1	n/a	n/a	n/a	n/a	n/a	n/a
3919.462	n/a	RECOG_RESP	1959731	n/a	LTP274	ltpFR	4	7	n/a	SCROLL	1257	0	n/a	n/a	n/a	n/a	n/a	n/a	n/a
3920.186	n/a	RECOG_CONF	1960093	n/a	LTP274	ltpFR	4	7	n/a	SCROLL	1257	n/a	1	n/a	n/a	n/a	n/a	n/a	n/a
3922.194	n/a	RECOG_LURE	1961097	n/a	LTP274	ltpFR	4	7	n/a	BEGGAR	117	0	2	n/a	n/a	n/a	n/a	n/a	n/a
3923.836	n/a	RECOG_RESP	1961918	n/a	LTP274	ltpFR	4	7	n/a	BEGGAR	117	0	n/a	n/a	n/a	n/a	n/a	n/a	n/a
3925.066	n/a	RECOG_CONF	1962533	n/a	LTP274	ltpFR	4	7	n/a	BEGGAR	117	n/a	2	n/a	n/a	n/a	n/a	n/a	n/a
3926.904	n/a	RECOG_LURE	1963452	n/a	LTP274	ltpFR	4	7	n/a	HORSE	719	0	4	n/a	n/a	n/a	n/a	n/a	n/a
3927.956	n/a	RECOG_RESP	1963978	n/a	LTP274	ltpFR	4	7	n/a	HORSE	719	0	n/a	n/a	n/a	n/a	n/a	n/a	n/a
3928.836	n/a	RECOG_CONF	1964418	n/a	LTP274	ltpFR	4	7	n/a	HORSE	719	n/a	4	n/a	n/a	n/a	n/a	n/a	n/a
3930.682	n/a	RECOG_LURE	1965341	n/a	LTP274	ltpFR	4	7	n/a	AUTOMOBILE	62	0	5	n/a	n/a	n/a	n/a	n/a	n/a
3931.576	n/a	RECOG_RESP	1965788	n/a	LTP274	ltpFR	4	7	n/a	AUTOMOBILE	62	0	n/a	n/a	n/a	n/a	n/a	n/a	n/a
3932.256	n/a	RECOG_CONF	1966128	n/a	LTP274	ltpFR	4	7	n/a	AUTOMOBILE	62	n/a	5	n/a	n/a	n/a	n/a	n/a	n/a
3934.11	n/a	RECOG_LURE	1967055	n/a	LTP274	ltpFR	4	7	n/a	JOINT	758	0	5	n/a	n/a	n/a	n/a	n/a	n/a
3936.266	n/a	RECOG_RESP	1968133	n/a	LTP274	ltpFR	4	7	n/a	JOINT	758	0	n/a	n/a	n/a	n/a	n/a	n/a	n/a
3936.976	n/a	RECOG_CONF	1968488	n/a	LTP274	ltpFR	4	7	n/a	JOINT	758	n/a	5	n/a	n/a	n/a	n/a	n/a	n/a
3938.87	n/a	RECOG_TARGET	1969435	n/a	LTP274	ltpFR	4	7	0	VASE	1549	1	3	n/a	n/a	n/a	n/a	n/a	n/a
3940.576	n/a	RECOG_RESP	1970288	n/a	LTP274	ltpFR	4	7	0	VASE	1549	1	n/a	n/a	n/a	n/a	n/a	n/a	n/a
3941.286	n/a	RECOG_CONF	1970643	n/a	LTP274	ltpFR	4	7	0	VASE	1549	n/a	3	n/a	n/a	n/a	n/a	n/a	n/a
3942.962	n/a	RECOG_TARGET	1971481	n/a	LTP274	ltpFR	4	7	1	HAND	683	0	2	0	n/a	n/a	n/a	n/a	n/a
3945.462	n/a	RECOG_RESP	1972731	n/a	LTP274	ltpFR	4	7	1	HAND	683	0	n/a	0	n/a	n/a	n/a	n/a	n/a
3946.236	n/a	RECOG_CONF	1973118	n/a	LTP274	ltpFR	4	7	1	HAND	683	n/a	2	0	n/a	n/a	n/a	n/a	n/a
3948.022	n/a	RECOG_LURE	1974011	n/a	LTP274	ltpFR	4	7	n/a	STY	1397	0	4	n/a	n/a	n/a	n/a	n/a	n/a
3949.006	n/a	RECOG_RESP	1974503	n/a	LTP274	ltpFR	4	7	n/a	STY	1397	0	n/a	n/a	n/a	n/a	n/a	n/a	n/a
3949.596	n/a	RECOG_CONF	1974798	n/a	LTP274	ltpFR	4	7	n/a	STY	1397	n/a	4	n/a	n/a	n/a	n/a	n/a	n/a
3951.418	n/a	RECOG_LURE	1975709	n/a	LTP274	ltpFR	4	7	n/a	GEM	629	0	4	n/a	n/a	n/a	n/a	n/a	n/a
3952.086	n/a	RECOG_RESP	1976043	n/a	LTP274	ltpFR	4	7	n/a	GEM	629	0	n/a	n/a	n/a	n/a	n/a	n/a	n/a
3952.746	n/a	RECOG_CONF	1976373	n/a	LTP274	ltpFR	4	7	n/a	GEM	629	n/a	4	n/a	n/a	n/a	n/a	n/a	n/a
3954.48	n/a	RECOG_TARGET	1977240	n/a	LTP274	ltpFR	4	7	1	SHOWER	1296	0	2	0	n/a	n/a	n/a	n/a	n/a
3957.342	n/a	RECOG_RESP	1978671	n/a	LTP274	ltpFR	4	7	1	SHOWER	1296	0	n/a	0	n/a	n/a	n/a	n/a	n/a
3958.246	n/a	RECOG_CONF	1979123	n/a	LTP274	ltpFR	4	7	1	SHOWER	1296	n/a	2	0	n/a	n/a	n/a	n/a	n/a
3960.12	n/a	RECOG_TARGET	1980060	n/a	LTP274	ltpFR	4	7	-1	DRIVEWAY	500	0	3	-1	n/a	n/a	n/a	n/a	n/a
3961.046	n/a	RECOG_RESP	1980523	n/a	LTP274	ltpFR	4	7	-1	DRIVEWAY	500	0	n/a	-1	n/a	n/a	n/a	n/a	n/a
3961.946	n/a	RECOG_CONF	1980973	n/a	LTP274	ltpFR	4	7	-1	DRIVEWAY	500	n/a	3	-1	n/a	n/a	n/a	n/a	n/a
3963.716	n/a	RECOG_LURE	1981858	n/a	LTP274	ltpFR	4	7	n/a	SLOPE	1328	0	1	n/a	n/a	n/a	n/a	n/a	n/a
3965.352	n/a	RECOG_RESP	1982676	n/a	LTP274	ltpFR	4	7	n/a	SLOPE	1328	0	n/a	n/a	n/a	n/a	n/a	n/a	n/a
3966.146	n/a	RECOG_CONF	1983073	n/a	LTP274	ltpFR	4	7	n/a	SLOPE	1328	n/a	1	n/a	n/a	n/a	n/a	n/a	n/a
3970.108	n/a	REC_START	1985054	n/a	LTP274	ltpFR	4	8	n/a	n/a	n/a	n/a	n/a	n/a	n/a	n/a	n/a	n/a	n/a
3970.14	n/a	RECOG_TARGET	1985070	n/a	LTP274	ltpFR	4	8	1	FEATHER	557	1	4	0	n/a	n/a	n/a	n/a	n/a
3971.182	n/a	RECOG_RESP	1985591	n/a	LTP274	ltpFR	4	8	1	FEATHER	557	1	n/a	0	n/a	n/a	n/a	n/a	n/a
3972.618	n/a	RECOG_CONF	1986309	n/a	LTP274	ltpFR	4	8	1	FEATHER	557	n/a	4	0	n/a	n/a	n/a	n/a	n/a
3974.366	n/a	RECOG_TARGET	1987183	n/a	LTP274	ltpFR	4	8	0	HUMAN	726	1	4	1	n/a	n/a	n/a	n/a	n/a
3975.558	n/a	RECOG_RESP	1987779	n/a	LTP274	ltpFR	4	8	0	HUMAN	726	1	n/a	1	n/a	n/a	n/a	n/a	n/a
3976.158	n/a	RECOG_CONF	1988079	n/a	LTP274	ltpFR	4	8	0	HUMAN	726	n/a	4	1	n/a	n/a	n/a	n/a	n/a
3977.846	n/a	RECOG_TARGET	1988923	n/a	LTP274	ltpFR	4	8	0	CROOK	412	1	4	1	n/a	n/a	n/a	n/a	n/a
3978.852	n/a	RECOG_RESP	1989426	n/a	LTP274	ltpFR	4	8	0	CROOK	412	1	n/a	1	n/a	n/a	n/a	n/a	n/a
3979.458	n/a	RECOG_CONF	1989729	n/a	LTP274	ltpFR	4	8	0	CROOK	412	n/a	4	1	n/a	n/a	n/a	n/a	n/a
3981.09	n/a	RECOG_TARGET	1990545	n/a	LTP274	ltpFR	4	8	1	IDOL	733	0	3	1	n/a	n/a	n/a	n/a	n/a
3981.968	n/a	RECOG_RESP	1990984	n/a	LTP274	ltpFR	4	8	1	IDOL	733	0	n/a	1	n/a	n/a	n/a	n/a	n/a
3983.478	n/a	RECOG_CONF	1991739	n/a	LTP274	ltpFR	4	8	1	IDOL	733	n/a	3	1	n/a	n/a	n/a	n/a	n/a
3985.416	n/a	RECOG_LURE	1992708	n/a	LTP274	ltpFR	4	8	n/a	SPINE	1353	0	3	n/a	n/a	n/a	n/a	n/a	n/a
3986.154	n/a	RECOG_RESP	1993077	n/a	LTP274	ltpFR	4	8	n/a	SPINE	1353	0	n/a	n/a	n/a	n/a	n/a	n/a	n/a
3987.048	n/a	RECOG_CONF	1993524	n/a	LTP274	ltpFR	4	8	n/a	SPINE	1353	n/a	3	n/a	n/a	n/a	n/a	n/a	n/a
