onset	duration	trial_type	sample	stim_file	subject	experiment	session	trial	task	item_name	item_num	recog_resp	recog_conf	resp	answer	test_x	test_y	test_z	color_r	color_g	color_b	case	font
246.582	n/a	SESS_START	123291	n/a	LTP079	ltpFR	10	n/a	n/a	n/a	n/a	1	n/a	n/a	n/a	0	0	0	n/a	n/a	n/a	n/a	n/a
274.256	n/a	START	137128	n/a	LTP079	ltpFR	10	n/a	n/a	n/a	n/a	n/a	n/a	n/a	n/a	n/a	n/a	n/a	n/a	n/a	n/a	n/a	n/a
274.28	n/a	PROB	137140	n/a	LTP079	ltpFR	10	n/a	n/a	n/a	n/a	n/a	n/a	n/a	17	5	9	3	n/a	n/a	n/a	n/a	n/a
276.446	n/a	PROB	138223	n/a	LTP079	ltpFR	10	n/a	n/a	n/a	n/a	n/a	n/a	n/a	24	9	6	9	n/a	n/a	n/a	n/a	n/a
278.378	n/a	PROB	139189	n/a	LTP079	ltpFR	10	n/a	n/a	n/a	n/a	n/a	n/a	n/a	17	2	8	7	n/a	n/a	n/a	n/a	n/a
279.814	n/a	PROB	139907	n/a	LTP079	ltpFR	10	n/a	n/a	n/a	n/a	n/a	n/a	n/a	16	5	5	6	n/a	n/a	n/a	n/a	n/a
280.972	n/a	PROB	140486	n/a	LTP079	ltpFR	10	n/a	n/a	n/a	n/a	n/a	n/a	n/a	12	1	6	5	n/a	n/a	n/a	n/a	n/a
282.162	n/a	PROB	141081	n/a	LTP079	ltpFR	10	n/a	n/a	n/a	n/a	n/a	n/a	n/a	16	2	9	5	n/a	n/a	n/a	n/a	n/a
284.146	n/a	PROB	142073	n/a	LTP079	ltpFR	10	n/a	n/a	n/a	n/a	n/a	n/a	n/a	12	1	9	2	n/a	n/a	n/a	n/a	n/a
285.368	n/a	PROB	142684	n/a	LTP079	ltpFR	10	n/a	n/a	n/a	n/a	n/a	n/a	n/a	12	4	2	6	n/a	n/a	n/a	n/a	n/a
286.344	n/a	PROB	143172	n/a	LTP079	ltpFR	10	n/a	n/a	n/a	n/a	n/a	n/a	n/a	15	8	2	5	n/a	n/a	n/a	n/a	n/a
287.468	n/a	PROB	143734	n/a	LTP079	ltpFR	10	n/a	n/a	n/a	n/a	n/a	n/a	n/a	11	2	1	8	n/a	n/a	n/a	n/a	n/a
288.442	n/a	PROB	144221	n/a	LTP079	ltpFR	10	n/a	n/a	n/a	n/a	n/a	n/a	n/a	21	9	7	5	n/a	n/a	n/a	n/a	n/a
289.726	n/a	PROB	144863	n/a	LTP079	ltpFR	10	n/a	n/a	n/a	n/a	n/a	n/a	n/a	10	4	1	5	n/a	n/a	n/a	n/a	n/a
290.684	n/a	PROB	145342	n/a	LTP079	ltpFR	10	n/a	n/a	n/a	n/a	n/a	n/a	n/a	17	9	5	3	n/a	n/a	n/a	n/a	n/a
292.092	n/a	PROB	146046	n/a	LTP079	ltpFR	10	n/a	n/a	n/a	n/a	n/a	n/a	n/a	21	9	5	7	n/a	n/a	n/a	n/a	n/a
293.412	n/a	STOP	146706	n/a	LTP079	ltpFR	10	n/a	n/a	n/a	n/a	n/a	n/a	n/a	n/a	n/a	n/a	n/a	n/a	n/a	n/a	n/a	n/a
317.136	n/a	START	158568	n/a	LTP079	ltpFR	10	n/a	n/a	n/a	n/a	n/a	n/a	n/a	n/a	n/a	n/a	n/a	n/a	n/a	n/a	n/a	n/a
318.644	n/a	PROB	159322	n/a	LTP079	ltpFR	10	n/a	n/a	n/a	n/a	n/a	n/a	n/a	14	1	6	7	n/a	n/a	n/a	n/a	n/a
320.118	n/a	PROB	160059	n/a	LTP079	ltpFR	10	n/a	n/a	n/a	n/a	n/a	n/a	n/a	17	5	9	4	n/a	n/a	n/a	n/a	n/a
321.484	n/a	PROB	160742	n/a	LTP079	ltpFR	10	n/a	n/a	n/a	n/a	n/a	n/a	n/a	10	1	2	7	n/a	n/a	n/a	n/a	n/a
322.908	n/a	PROB	161454	n/a	LTP079	ltpFR	10	n/a	n/a	n/a	n/a	n/a	n/a	n/a	9	1	6	2	n/a	n/a	n/a	n/a	n/a
323.918	n/a	STOP	161959	n/a	LTP079	ltpFR	10	n/a	n/a	n/a	n/a	n/a	n/a	n/a	n/a	n/a	n/a	n/a	n/a	n/a	n/a	n/a	n/a
326.208	n/a	WORD	163104	wordpools/wasnorm_wordpool.txt	LTP079	ltpFR	10	1	0	SOCIETY	1338	n/a	n/a	1	n/a	0	0	0	0.57763671875	0.412841796875	1	lower	amplitud.ttf
329.216	n/a	START	164608	n/a	LTP079	ltpFR	10	n/a	n/a	n/a	n/a	n/a	n/a	n/a	n/a	n/a	n/a	n/a	n/a	n/a	n/a	n/a	n/a
330.072	n/a	PROB	165036	n/a	LTP079	ltpFR	10	n/a	n/a	n/a	n/a	n/a	n/a	n/a	4	2	1	1	n/a	n/a	n/a	n/a	n/a
331.09	n/a	PROB	165545	n/a	LTP079	ltpFR	10	n/a	n/a	n/a	n/a	n/a	n/a	n/a	16	4	7	5	n/a	n/a	n/a	n/a	n/a
333.404	n/a	PROB	166702	n/a	LTP079	ltpFR	10	n/a	n/a	n/a	n/a	n/a	n/a	n/a	15	3	4	8	n/a	n/a	n/a	n/a	n/a
335.096	n/a	PROB	167548	n/a	LTP079	ltpFR	10	n/a	n/a	n/a	n/a	n/a	n/a	n/a	22	8	5	9	n/a	n/a	n/a	n/a	n/a
336.542	n/a	STOP	168271	n/a	LTP079	ltpFR	10	n/a	n/a	n/a	n/a	n/a	n/a	n/a	n/a	n/a	n/a	n/a	n/a	n/a	n/a	n/a	n/a
338.096	n/a	WORD	169048	wordpools/wasnorm_wordpool.txt	LTP079	ltpFR	10	1	0	AUTOMOBILE	62	n/a	n/a	1	n/a	0	0	0	0.57763671875	0.412841796875	1	lower	amplitud.ttf
341.104	n/a	START	170552	n/a	LTP079	ltpFR	10	n/a	n/a	n/a	n/a	n/a	n/a	n/a	n/a	n/a	n/a	n/a	n/a	n/a	n/a	n/a	n/a
342.152	n/a	PROB	171076	n/a	LTP079	ltpFR	10	n/a	n/a	n/a	n/a	n/a	n/a	n/a	20	9	8	3	n/a	n/a	n/a	n/a	n/a
343.652	n/a	PROB	171826	n/a	LTP079	ltpFR	10	n/a	n/a	n/a	n/a	n/a	n/a	n/a	18	6	8	4	n/a	n/a	n/a	n/a	n/a
345.176	n/a	PROB	172588	n/a	LTP079	ltpFR	10	n/a	n/a	n/a	n/a	n/a	n/a	n/a	22	8	5	9	n/a	n/a	n/a	n/a	n/a
346.76	n/a	PROB	173380	n/a	LTP079	ltpFR	10	n/a	n/a	n/a	n/a	n/a	n/a	n/a	13	9	1	3	n/a	n/a	n/a	n/a	n/a
347.848	n/a	STOP	173924	n/a	LTP079	ltpFR	10	n/a	n/a	n/a	n/a	n/a	n/a	n/a	n/a	n/a	n/a	n/a	n/a	n/a	n/a	n/a	n/a
349.958	n/a	WORD	174979	wordpools/wasnorm_wordpool.txt	LTP079	ltpFR	10	1	0	ATLAS	53	n/a	n/a	0	n/a	0	0	0	0.57763671875	0.412841796875	1	lower	amplitud.ttf
352.966	n/a	START	176483	n/a	LTP079	ltpFR	10	n/a	n/a	n/a	n/a	n/a	n/a	n/a	n/a	n/a	n/a	n/a	n/a	n/a	n/a	n/a	n/a
353.832	n/a	PROB	176916	n/a	LTP079	ltpFR	10	n/a	n/a	n/a	n/a	n/a	n/a	n/a	12	8	3	1	n/a	n/a	n/a	n/a	n/a
355.164	n/a	PROB	177582	n/a	LTP079	ltpFR	10	n/a	n/a	n/a	n/a	n/a	n/a	n/a	12	1	7	4	n/a	n/a	n/a	n/a	n/a
356.764	n/a	PROB	178382	n/a	LTP079	ltpFR	10	n/a	n/a	n/a	n/a	n/a	n/a	n/a	11	6	2	3	n/a	n/a	n/a	n/a	n/a
358.14	n/a	PROB	179070	n/a	LTP079	ltpFR	10	n/a	n/a	n/a	n/a	n/a	n/a	n/a	12	9	2	1	n/a	n/a	n/a	n/a	n/a
360.968	n/a	STOP	180484	n/a	LTP079	ltpFR	10	n/a	n/a	n/a	n/a	n/a	n/a	n/a	n/a	n/a	n/a	n/a	n/a	n/a	n/a	n/a	n/a
362.088	n/a	WORD	181044	wordpools/wasnorm_wordpool.txt	LTP079	ltpFR	10	1	0	MOTOR	922	n/a	n/a	1	n/a	0	0	0	0.57763671875	0.412841796875	1	lower	amplitud.ttf
365.096	n/a	START	182548	n/a	LTP079	ltpFR	10	n/a	n/a	n/a	n/a	n/a	n/a	n/a	n/a	n/a	n/a	n/a	n/a	n/a	n/a	n/a	n/a
366.204	n/a	PROB	183102	n/a	LTP079	ltpFR	10	n/a	n/a	n/a	n/a	n/a	n/a	n/a	22	8	7	7	n/a	n/a	n/a	n/a	n/a
367.378	n/a	PROB	183689	n/a	LTP079	ltpFR	10	n/a	n/a	n/a	n/a	n/a	n/a	n/a	18	3	9	6	n/a	n/a	n/a	n/a	n/a
368.944	n/a	PROB	184472	n/a	LTP079	ltpFR	10	n/a	n/a	n/a	n/a	n/a	n/a	n/a	22	8	5	9	n/a	n/a	n/a	n/a	n/a
370.502	n/a	PROB	185251	n/a	LTP079	ltpFR	10	n/a	n/a	n/a	n/a	n/a	n/a	n/a	15	9	2	4	n/a	n/a	n/a	n/a	n/a
371.492	n/a	PROB	185746	n/a	LTP079	ltpFR	10	n/a	n/a	n/a	n/a	n/a	n/a	n/a	13	5	3	5	n/a	n/a	n/a	n/a	n/a
372.368	n/a	STOP	186184	n/a	LTP079	ltpFR	10	n/a	n/a	n/a	n/a	n/a	n/a	n/a	n/a	n/a	n/a	n/a	n/a	n/a	n/a	n/a	n/a
374.15	n/a	WORD	187075	wordpools/wasnorm_wordpool.txt	LTP079	ltpFR	10	1	1	CRITIC	410	n/a	n/a	1	n/a	0	0	0	0.422607421875	0.5869140625	0	upper	zerothre.ttf
377.16	n/a	START	188580	n/a	LTP079	ltpFR	10	n/a	n/a	n/a	n/a	n/a	n/a	n/a	n/a	n/a	n/a	n/a	n/a	n/a	n/a	n/a	n/a
378.05	n/a	PROB	189025	n/a	LTP079	ltpFR	10	n/a	n/a	n/a	n/a	n/a	n/a	n/a	11	1	3	7	n/a	n/a	n/a	n/a	n/a
379.432	n/a	PROB	189716	n/a	LTP079	ltpFR	10	n/a	n/a	n/a	n/a	n/a	n/a	n/a	15	8	6	1	n/a	n/a	n/a	n/a	n/a
380.932	n/a	PROB	190466	n/a	LTP079	ltpFR	10	n/a	n/a	n/a	n/a	n/a	n/a	n/a	19	5	8	7	n/a	n/a	n/a	n/a	n/a
382.698	n/a	PROB	191349	n/a	LTP079	ltpFR	10	n/a	n/a	n/a	n/a	n/a	n/a	n/a	5	2	2	1	n/a	n/a	n/a	n/a	n/a
383.65	n/a	STOP	191825	n/a	LTP079	ltpFR	10	n/a	n/a	n/a	n/a	n/a	n/a	n/a	n/a	n/a	n/a	n/a	n/a	n/a	n/a	n/a	n/a
385.972	n/a	WORD	192986	wordpools/wasnorm_wordpool.txt	LTP079	ltpFR	10	1	1	BLUEBERRY	140	n/a	n/a	0	n/a	0	0	0	0.422607421875	0.5869140625	0	upper	zerothre.ttf
388.98	n/a	START	194490	n/a	LTP079	ltpFR	10	n/a	n/a	n/a	n/a	n/a	n/a	n/a	n/a	n/a	n/a	n/a	n/a	n/a	n/a	n/a	n/a
390.012	n/a	PROB	195006	n/a	LTP079	ltpFR	10	n/a	n/a	n/a	n/a	n/a	n/a	n/a	11	8	1	2	n/a	n/a	n/a	n/a	n/a
391.52	n/a	PROB	195760	n/a	LTP079	ltpFR	10	n/a	n/a	n/a	n/a	n/a	n/a	n/a	11	2	1	8	n/a	n/a	n/a	n/a	n/a
392.612	n/a	PROB	196306	n/a	LTP079	ltpFR	10	n/a	n/a	n/a	n/a	n/a	n/a	n/a	25	7	9	9	n/a	n/a	n/a	n/a	n/a
394.212	n/a	PROB	197106	n/a	LTP079	ltpFR	10	n/a	n/a	n/a	n/a	n/a	n/a	n/a	19	5	5	9	n/a	n/a	n/a	n/a	n/a
395.136	n/a	PROB	197568	n/a	LTP079	ltpFR	10	n/a	n/a	n/a	n/a	n/a	n/a	n/a	16	7	7	2	n/a	n/a	n/a	n/a	n/a
396.194	n/a	STOP	198097	n/a	LTP079	ltpFR	10	n/a	n/a	n/a	n/a	n/a	n/a	n/a	n/a	n/a	n/a	n/a	n/a	n/a	n/a	n/a	n/a
397.886	n/a	WORD	198943	wordpools/wasnorm_wordpool.txt	LTP079	ltpFR	10	1	1	TOASTER	1472	n/a	n/a	0	n/a	0	0	0	0.422607421875	0.5869140625	0	upper	zerothre.ttf
400.894	n/a	START	200447	n/a	LTP079	ltpFR	10	n/a	n/a	n/a	n/a	n/a	n/a	n/a	n/a	n/a	n/a	n/a	n/a	n/a	n/a	n/a	n/a
401.934	n/a	PROB	200967	n/a	LTP079	ltpFR	10	n/a	n/a	n/a	n/a	n/a	n/a	n/a	10	2	2	6	n/a	n/a	n/a	n/a	n/a
403.358	n/a	PROB	201679	n/a	LTP079	ltpFR	10	n/a	n/a	n/a	n/a	n/a	n/a	n/a	10	1	2	7	n/a	n/a	n/a	n/a	n/a
404.176	n/a	PROB	202088	n/a	LTP079	ltpFR	10	n/a	n/a	n/a	n/a	n/a	n/a	n/a	11	1	5	5	n/a	n/a	n/a	n/a	n/a
405.016	n/a	PROB	202508	n/a	LTP079	ltpFR	10	n/a	n/a	n/a	n/a	n/a	n/a	n/a	5	2	1	2	n/a	n/a	n/a	n/a	n/a
405.808	n/a	PROB	202904	n/a	LTP079	ltpFR	10	n/a	n/a	n/a	n/a	n/a	n/a	n/a	22	9	8	5	n/a	n/a	n/a	n/a	n/a
407.348	n/a	PROB	203674	n/a	LTP079	ltpFR	10	n/a	n/a	n/a	n/a	n/a	n/a	n/a	15	5	3	7	n/a	n/a	n/a	n/a	n/a
408.586	n/a	STOP	204293	n/a	LTP079	ltpFR	10	n/a	n/a	n/a	n/a	n/a	n/a	n/a	n/a	n/a	n/a	n/a	n/a	n/a	n/a	n/a	n/a
409.716	n/a	WORD	204858	wordpools/wasnorm_wordpool.txt	LTP079	ltpFR	10	1	1	SUPERMARKET	1409	n/a	n/a	0	n/a	0	0	0	0.422607421875	0.5869140625	0	upper	zerothre.ttf
412.722	n/a	START	206361	n/a	LTP079	ltpFR	10	n/a	n/a	n/a	n/a	n/a	n/a	n/a	n/a	n/a	n/a	n/a	n/a	n/a	n/a	n/a	n/a
413.738	n/a	PROB	206869	n/a	LTP079	ltpFR	10	n/a	n/a	n/a	n/a	n/a	n/a	n/a	15	6	8	1	n/a	n/a	n/a	n/a	n/a
415.43	n/a	PROB	207715	n/a	LTP079	ltpFR	10	n/a	n/a	n/a	n/a	n/a	n/a	n/a	16	9	3	4	n/a	n/a	n/a	n/a	n/a
417.48	n/a	PROB	208740	n/a	LTP079	ltpFR	10	n/a	n/a	n/a	n/a	n/a	n/a	n/a	7	2	4	1	n/a	n/a	n/a	n/a	n/a
418.522	n/a	PROB	209261	n/a	LTP079	ltpFR	10	n/a	n/a	n/a	n/a	n/a	n/a	n/a	7	2	3	2	n/a	n/a	n/a	n/a	n/a
419.49	n/a	STOP	209745	n/a	LTP079	ltpFR	10	n/a	n/a	n/a	n/a	n/a	n/a	n/a	n/a	n/a	n/a	n/a	n/a	n/a	n/a	n/a	n/a
421.536	n/a	WORD	210768	wordpools/wasnorm_wordpool.txt	LTP079	ltpFR	10	1	1	POTATO	1115	n/a	n/a	0	n/a	0	0	0	0.422607421875	0.5869140625	0	upper	zerothre.ttf
424.544	n/a	START	212272	n/a	LTP079	ltpFR	10	n/a	n/a	n/a	n/a	n/a	n/a	n/a	n/a	n/a	n/a	n/a	n/a	n/a	n/a	n/a	n/a
425.476	n/a	PROB	212738	n/a	LTP079	ltpFR	10	n/a	n/a	n/a	n/a	n/a	n/a	n/a	23	7	8	8	n/a	n/a	n/a	n/a	n/a
426.826	n/a	PROB	213413	n/a	LTP079	ltpFR	10	n/a	n/a	n/a	n/a	n/a	n/a	n/a	13	3	4	6	n/a	n/a	n/a	n/a	n/a
429.316	n/a	PROB	214658	n/a	LTP079	ltpFR	10	n/a	n/a	n/a	n/a	n/a	n/a	n/a	11	5	4	2	n/a	n/a	n/a	n/a	n/a
430.432	n/a	PROB	215216	n/a	LTP079	ltpFR	10	n/a	n/a	n/a	n/a	n/a	n/a	n/a	7	5	1	1	n/a	n/a	n/a	n/a	n/a
431.306	n/a	STOP	215653	n/a	LTP079	ltpFR	10	n/a	n/a	n/a	n/a	n/a	n/a	n/a	n/a	n/a	n/a	n/a	n/a	n/a	n/a	n/a	n/a
433.498	n/a	WORD	216749	wordpools/wasnorm_wordpool.txt	LTP079	ltpFR	10	1	0	HERO	706	n/a	n/a	1	n/a	0	0	0	0.57763671875	0.412841796875	1	lower	amplitud.ttf
436.508	n/a	START	218254	n/a	LTP079	ltpFR	10	n/a	n/a	n/a	n/a	n/a	n/a	n/a	n/a	n/a	n/a	n/a	n/a	n/a	n/a	n/a	n/a
437.59	n/a	PROB	218795	n/a	LTP079	ltpFR	10	n/a	n/a	n/a	n/a	n/a	n/a	n/a	15	8	3	4	n/a	n/a	n/a	n/a	n/a
439.256	n/a	PROB	219628	n/a	LTP079	ltpFR	10	n/a	n/a	n/a	n/a	n/a	n/a	n/a	23	8	8	7	n/a	n/a	n/a	n/a	n/a
440.48	n/a	PROB	220240	n/a	LTP079	ltpFR	10	n/a	n/a	n/a	n/a	n/a	n/a	n/a	15	8	6	1	n/a	n/a	n/a	n/a	n/a
441.656	n/a	PROB	220828	n/a	LTP079	ltpFR	10	n/a	n/a	n/a	n/a	n/a	n/a	n/a	10	3	5	2	n/a	n/a	n/a	n/a	n/a
442.688	n/a	PROB	221344	n/a	LTP079	ltpFR	10	n/a	n/a	n/a	n/a	n/a	n/a	n/a	11	3	4	4	n/a	n/a	n/a	n/a	n/a
443.66	n/a	STOP	221830	n/a	LTP079	ltpFR	10	n/a	n/a	n/a	n/a	n/a	n/a	n/a	n/a	n/a	n/a	n/a	n/a	n/a	n/a	n/a	n/a
445.63	n/a	WORD	222815	wordpools/wasnorm_wordpool.txt	LTP079	ltpFR	10	1	0	OYSTER	995	n/a	n/a	0	n/a	0	0	0	0.57763671875	0.412841796875	1	lower	amplitud.ttf
448.638	n/a	START	224319	n/a	LTP079	ltpFR	10	n/a	n/a	n/a	n/a	n/a	n/a	n/a	n/a	n/a	n/a	n/a	n/a	n/a	n/a	n/a	n/a
449.702	n/a	PROB	224851	n/a	LTP079	ltpFR	10	n/a	n/a	n/a	n/a	n/a	n/a	n/a	17	3	7	7	n/a	n/a	n/a	n/a	n/a
451.368	n/a	PROB	225684	n/a	LTP079	ltpFR	10	n/a	n/a	n/a	n/a	n/a	n/a	n/a	15	7	7	1	n/a	n/a	n/a	n/a	n/a
452.268	n/a	PROB	226134	n/a	LTP079	ltpFR	10	n/a	n/a	n/a	n/a	n/a	n/a	n/a	17	6	6	5	n/a	n/a	n/a	n/a	n/a
454.26	n/a	PROB	227130	n/a	LTP079	ltpFR	10	n/a	n/a	n/a	n/a	n/a	n/a	n/a	18	5	5	8	n/a	n/a	n/a	n/a	n/a
455.71	n/a	STOP	227855	n/a	LTP079	ltpFR	10	n/a	n/a	n/a	n/a	n/a	n/a	n/a	n/a	n/a	n/a	n/a	n/a	n/a	n/a	n/a	n/a
457.61	n/a	WORD	228805	wordpools/wasnorm_wordpool.txt	LTP079	ltpFR	10	1	1	RADIATOR	1156	n/a	n/a	0	n/a	0	0	0	0.422607421875	0.5869140625	0	upper	zerothre.ttf
460.618	n/a	START	230309	n/a	LTP079	ltpFR	10	n/a	n/a	n/a	n/a	n/a	n/a	n/a	n/a	n/a	n/a	n/a	n/a	n/a	n/a	n/a	n/a
461.8	n/a	PROB	230900	n/a	LTP079	ltpFR	10	n/a	n/a	n/a	n/a	n/a	n/a	n/a	6	1	3	2	n/a	n/a	n/a	n/a	n/a
462.9	n/a	PROB	231450	n/a	LTP079	ltpFR	10	n/a	n/a	n/a	n/a	n/a	n/a	n/a	10	2	6	2	n/a	n/a	n/a	n/a	n/a
463.924	n/a	PROB	231962	n/a	LTP079	ltpFR	10	n/a	n/a	n/a	n/a	n/a	n/a	n/a	21	9	3	9	n/a	n/a	n/a	n/a	n/a
465.224	n/a	PROB	232612	n/a	LTP079	ltpFR	10	n/a	n/a	n/a	n/a	n/a	n/a	n/a	12	2	4	6	n/a	n/a	n/a	n/a	n/a
466.48	n/a	PROB	233240	n/a	LTP079	ltpFR	10	n/a	n/a	n/a	n/a	n/a	n/a	n/a	18	9	2	7	n/a	n/a	n/a	n/a	n/a
467.662	n/a	STOP	233831	n/a	LTP079	ltpFR	10	n/a	n/a	n/a	n/a	n/a	n/a	n/a	n/a	n/a	n/a	n/a	n/a	n/a	n/a	n/a	n/a
469.706	n/a	WORD	234853	wordpools/wasnorm_wordpool.txt	LTP079	ltpFR	10	1	1	TUNA	1518	n/a	n/a	1	n/a	0	0	0	0.422607421875	0.5869140625	0	upper	zerothre.ttf
472.712	n/a	START	236356	n/a	LTP079	ltpFR	10	n/a	n/a	n/a	n/a	n/a	n/a	n/a	n/a	n/a	n/a	n/a	n/a	n/a	n/a	n/a	n/a
473.896	n/a	PROB	236948	n/a	LTP079	ltpFR	10	n/a	n/a	n/a	n/a	n/a	n/a	n/a	13	3	9	1	n/a	n/a	n/a	n/a	n/a
475.246	n/a	PROB	237623	n/a	LTP079	ltpFR	10	n/a	n/a	n/a	n/a	n/a	n/a	n/a	17	4	4	9	n/a	n/a	n/a	n/a	n/a
476.486	n/a	PROB	238243	n/a	LTP079	ltpFR	10	n/a	n/a	n/a	n/a	n/a	n/a	n/a	9	3	2	4	n/a	n/a	n/a	n/a	n/a
477.512	n/a	PROB	238756	n/a	LTP079	ltpFR	10	n/a	n/a	n/a	n/a	n/a	n/a	n/a	15	6	1	8	n/a	n/a	n/a	n/a	n/a
480.712	n/a	STOP	240356	n/a	LTP079	ltpFR	10	n/a	n/a	n/a	n/a	n/a	n/a	n/a	n/a	n/a	n/a	n/a	n/a	n/a	n/a	n/a	n/a
481.836	n/a	WORD	240918	wordpools/wasnorm_wordpool.txt	LTP079	ltpFR	10	1	1	FISH	571	n/a	n/a	1	n/a	0	0	0	0.422607421875	0.5869140625	0	upper	zerothre.ttf
484.842	n/a	START	242421	n/a	LTP079	ltpFR	10	n/a	n/a	n/a	n/a	n/a	n/a	n/a	n/a	n/a	n/a	n/a	n/a	n/a	n/a	n/a	n/a
485.8	n/a	PROB	242900	n/a	LTP079	ltpFR	10	n/a	n/a	n/a	n/a	n/a	n/a	n/a	8	5	1	2	n/a	n/a	n/a	n/a	n/a
487.208	n/a	PROB	243604	n/a	LTP079	ltpFR	10	n/a	n/a	n/a	n/a	n/a	n/a	n/a	10	1	1	8	n/a	n/a	n/a	n/a	n/a
488.374	n/a	PROB	244187	n/a	LTP079	ltpFR	10	n/a	n/a	n/a	n/a	n/a	n/a	n/a	12	4	3	5	n/a	n/a	n/a	n/a	n/a
489.482	n/a	PROB	244741	n/a	LTP079	ltpFR	10	n/a	n/a	n/a	n/a	n/a	n/a	n/a	21	5	7	9	n/a	n/a	n/a	n/a	n/a
490.79	n/a	PROB	245395	n/a	LTP079	ltpFR	10	n/a	n/a	n/a	n/a	n/a	n/a	n/a	22	4	9	7	n/a	n/a	n/a	n/a	n/a
492.334	n/a	STOP	246167	n/a	LTP079	ltpFR	10	n/a	n/a	n/a	n/a	n/a	n/a	n/a	n/a	n/a	n/a	n/a	n/a	n/a	n/a	n/a	n/a
494.006	n/a	WORD	247003	wordpools/wasnorm_wordpool.txt	LTP079	ltpFR	10	1	0	COMMUNITY	356	n/a	n/a	1	n/a	0	0	0	0.57763671875	0.412841796875	1	lower	amplitud.ttf
497.014	n/a	START	248507	n/a	LTP079	ltpFR	10	n/a	n/a	n/a	n/a	n/a	n/a	n/a	n/a	n/a	n/a	n/a	n/a	n/a	n/a	n/a	n/a
498.198	n/a	PROB	249099	n/a	LTP079	ltpFR	10	n/a	n/a	n/a	n/a	n/a	n/a	n/a	18	5	6	7	n/a	n/a	n/a	n/a	n/a
500.23	n/a	PROB	250115	n/a	LTP079	ltpFR	10	n/a	n/a	n/a	n/a	n/a	n/a	n/a	21	5	7	9	n/a	n/a	n/a	n/a	n/a
501.554	n/a	PROB	250777	n/a	LTP079	ltpFR	10	n/a	n/a	n/a	n/a	n/a	n/a	n/a	13	3	9	1	n/a	n/a	n/a	n/a	n/a
502.554	n/a	PROB	251277	n/a	LTP079	ltpFR	10	n/a	n/a	n/a	n/a	n/a	n/a	n/a	20	8	9	3	n/a	n/a	n/a	n/a	n/a
503.928	n/a	STOP	251964	n/a	LTP079	ltpFR	10	n/a	n/a	n/a	n/a	n/a	n/a	n/a	n/a	n/a	n/a	n/a	n/a	n/a	n/a	n/a	n/a
505.96	n/a	WORD	252980	wordpools/wasnorm_wordpool.txt	LTP079	ltpFR	10	1	0	METEOR	889	n/a	n/a	1	n/a	0	0	0	0.57763671875	0.412841796875	1	lower	amplitud.ttf
508.968	n/a	START	254484	n/a	LTP079	ltpFR	10	n/a	n/a	n/a	n/a	n/a	n/a	n/a	n/a	n/a	n/a	n/a	n/a	n/a	n/a	n/a	n/a
509.834	n/a	PROB	254917	n/a	LTP079	ltpFR	10	n/a	n/a	n/a	n/a	n/a	n/a	n/a	11	7	3	1	n/a	n/a	n/a	n/a	n/a
510.984	n/a	PROB	255492	n/a	LTP079	ltpFR	10	n/a	n/a	n/a	n/a	n/a	n/a	n/a	15	1	6	8	n/a	n/a	n/a	n/a	n/a
511.942	n/a	PROB	255971	n/a	LTP079	ltpFR	10	n/a	n/a	n/a	n/a	n/a	n/a	n/a	11	6	3	2	n/a	n/a	n/a	n/a	n/a
513.042	n/a	PROB	256521	n/a	LTP079	ltpFR	10	n/a	n/a	n/a	n/a	n/a	n/a	n/a	19	4	7	6	n/a	n/a	n/a	n/a	n/a
514.474	n/a	PROB	257237	n/a	LTP079	ltpFR	10	n/a	n/a	n/a	n/a	n/a	n/a	n/a	18	4	9	5	n/a	n/a	n/a	n/a	n/a
515.936	n/a	STOP	257968	n/a	LTP079	ltpFR	10	n/a	n/a	n/a	n/a	n/a	n/a	n/a	n/a	n/a	n/a	n/a	n/a	n/a	n/a	n/a	n/a
518.7	n/a	REC_START	259350	n/a	LTP079	ltpFR	10	1	n/a	n/a	n/a	n/a	n/a	n/a	n/a	0	0	0	n/a	n/a	n/a	n/a	n/a
520.37	n/a	REC_WORD	260185	wordpools/wasnorm_wordpool.txt	LTP079	ltpFR	10	1	0	METEOR	889	n/a	n/a	1	n/a	0	0	0	n/a	n/a	n/a	n/a	n/a
521.872	n/a	REC_WORD	260936	wordpools/wasnorm_wordpool.txt	LTP079	ltpFR	10	1	0	COMMUNITY	356	n/a	n/a	1	n/a	0	0	0	n/a	n/a	n/a	n/a	n/a
524.54	n/a	REC_WORD	262270	wordpools/wasnorm_wordpool.txt	LTP079	ltpFR	10	1	1	FISH	571	n/a	n/a	1	n/a	0	0	0	n/a	n/a	n/a	n/a	n/a
526.442	n/a	REC_WORD	263221	wordpools/wasnorm_wordpool.txt	LTP079	ltpFR	10	1	1	TUNA	1518	n/a	n/a	1	n/a	0	0	0	n/a	n/a	n/a	n/a	n/a
528.452	n/a	REC_WORD	264226	wordpools/wasnorm_wordpool.txt	LTP079	ltpFR	10	1	1	RADIATOR	1156	n/a	n/a	0	n/a	0	0	0	n/a	n/a	n/a	n/a	n/a
532.05	n/a	REC_WORD	266025	wordpools/wasnorm_wordpool.txt	LTP079	ltpFR	10	1	1	BLUEBERRY	140	n/a	n/a	0	n/a	0	0	0	n/a	n/a	n/a	n/a	n/a
534.314	n/a	REC_WORD	267157	wordpools/wasnorm_wordpool.txt	LTP079	ltpFR	10	1	1	POTATO	1115	n/a	n/a	0	n/a	0	0	0	n/a	n/a	n/a	n/a	n/a
536.52	n/a	REC_WORD	268260	wordpools/wasnorm_wordpool.txt	LTP079	ltpFR	10	1	0	OYSTER	995	n/a	n/a	0	n/a	0	0	0	n/a	n/a	n/a	n/a	n/a
538.3	n/a	REC_WORD	269150	wordpools/wasnorm_wordpool.txt	LTP079	ltpFR	10	1	0	HERO	706	n/a	n/a	1	n/a	0	0	0	n/a	n/a	n/a	n/a	n/a
541.394	n/a	REC_WORD	270697	wordpools/wasnorm_wordpool.txt	LTP079	ltpFR	10	1	0	SOCIETY	1338	n/a	n/a	1	n/a	0	0	0	n/a	n/a	n/a	n/a	n/a
542.394	n/a	REC_WORD_VV	271197	wordpools/wasnorm_wordpool.txt	LTP079	ltpFR	10	1	n/a	<>	-1	n/a	n/a	n/a	n/a	0	0	0	n/a	n/a	n/a	n/a	n/a
545.51	n/a	REC_WORD	272755	wordpools/wasnorm_wordpool.txt	LTP079	ltpFR	10	1	0	ATLAS	53	n/a	n/a	0	n/a	0	0	0	n/a	n/a	n/a	n/a	n/a
547.0	n/a	REC_WORD	273500	wordpools/wasnorm_wordpool.txt	LTP079	ltpFR	10	1	0	MOTOR	922	n/a	n/a	1	n/a	0	0	0	n/a	n/a	n/a	n/a	n/a
548.428	n/a	REC_WORD	274214	wordpools/wasnorm_wordpool.txt	LTP079	ltpFR	10	1	1	CRITIC	410	n/a	n/a	1	n/a	0	0	0	n/a	n/a	n/a	n/a	n/a
555.308	n/a	REC_WORD	277654	wordpools/wasnorm_wordpool.txt	LTP079	ltpFR	10	1	1	TOASTER	1472	n/a	n/a	0	n/a	0	0	0	n/a	n/a	n/a	n/a	n/a
556.85	n/a	REC_WORD	278425	wordpools/wasnorm_wordpool.txt	LTP079	ltpFR	10	1	1	SUPERMARKET	1409	n/a	n/a	0	n/a	0	0	0	n/a	n/a	n/a	n/a	n/a
566.228	n/a	REC_WORD	283114	wordpools/wasnorm_wordpool.txt	LTP079	ltpFR	10	1	0	AUTOMOBILE	62	n/a	n/a	1	n/a	0	0	0	n/a	n/a	n/a	n/a	n/a
605.706	n/a	WORD	302853	wordpools/wasnorm_wordpool.txt	LTP079	ltpFR	10	2	0	MOOSE	915	n/a	n/a	1	n/a	0	0	0	0.57763671875	0.412841796875	1	lower	amplitud.ttf
609.738	n/a	WORD	304869	wordpools/wasnorm_wordpool.txt	LTP079	ltpFR	10	2	0	FARM	552	n/a	n/a	1	n/a	0	0	0	0.57763671875	0.412841796875	1	lower	amplitud.ttf
613.746	n/a	WORD	306873	wordpools/wasnorm_wordpool.txt	LTP079	ltpFR	10	2	1	PICNIC	1060	n/a	n/a	0	n/a	0	0	0	0.422607421875	0.5869140625	0	upper	zerothre.ttf
617.952	n/a	WORD	308976	wordpools/wasnorm_wordpool.txt	LTP079	ltpFR	10	2	1	SHEARS	1276	n/a	n/a	0	n/a	0	0	0	0.422607421875	0.5869140625	0	upper	zerothre.ttf
621.81	n/a	WORD	310905	wordpools/wasnorm_wordpool.txt	LTP079	ltpFR	10	2	1	BANANA	77	n/a	n/a	0	n/a	0	0	0	0.422607421875	0.5869140625	0	upper	zerothre.ttf
625.816	n/a	WORD	312908	wordpools/wasnorm_wordpool.txt	LTP079	ltpFR	10	2	1	RECIPE	1175	n/a	n/a	0	n/a	0	0	0	0.422607421875	0.5869140625	0	upper	zerothre.ttf
629.774	n/a	WORD	314887	wordpools/wasnorm_wordpool.txt	LTP079	ltpFR	10	2	0	TYPIST	1532	n/a	n/a	1	n/a	0	0	0	0.57763671875	0.412841796875	1	lower	amplitud.ttf
633.69	n/a	WORD	316845	wordpools/wasnorm_wordpool.txt	LTP079	ltpFR	10	2	0	ALLIGATOR	16	n/a	n/a	1	n/a	0	0	0	0.57763671875	0.412841796875	1	lower	amplitud.ttf
637.646	n/a	WORD	318823	wordpools/wasnorm_wordpool.txt	LTP079	ltpFR	10	2	0	RAISIN	1163	n/a	n/a	0	n/a	0	0	0	0.57763671875	0.412841796875	1	lower	amplitud.ttf
641.72	n/a	WORD	320860	wordpools/wasnorm_wordpool.txt	LTP079	ltpFR	10	2	0	LUNCH	849	n/a	n/a	1	n/a	0	0	0	0.57763671875	0.412841796875	1	lower	amplitud.ttf
645.536	n/a	WORD	322768	wordpools/wasnorm_wordpool.txt	LTP079	ltpFR	10	2	0	SOFA	1342	n/a	n/a	1	n/a	0	0	0	0.57763671875	0.412841796875	1	lower	amplitud.ttf
649.5	n/a	WORD	324750	wordpools/wasnorm_wordpool.txt	LTP079	ltpFR	10	2	0	BLANKET	135	n/a	n/a	1	n/a	0	0	0	0.57763671875	0.412841796875	1	lower	amplitud.ttf
653.508	n/a	WORD	326754	wordpools/wasnorm_wordpool.txt	LTP079	ltpFR	10	2	1	BUILDER	190	n/a	n/a	1	n/a	0	0	0	0.422607421875	0.5869140625	0	upper	zerothre.ttf
657.548	n/a	WORD	328774	wordpools/wasnorm_wordpool.txt	LTP079	ltpFR	10	2	1	MAILMAN	858	n/a	n/a	1	n/a	0	0	0	0.422607421875	0.5869140625	0	upper	zerothre.ttf
661.488	n/a	WORD	330744	wordpools/wasnorm_wordpool.txt	LTP079	ltpFR	10	2	1	STAMP	1370	n/a	n/a	0	n/a	0	0	0	0.422607421875	0.5869140625	0	upper	zerothre.ttf
665.328	n/a	WORD	332664	wordpools/wasnorm_wordpool.txt	LTP079	ltpFR	10	2	1	STAPLE	1371	n/a	n/a	0	n/a	0	0	0	0.422607421875	0.5869140625	0	upper	zerothre.ttf
668.336	n/a	START	334168	n/a	LTP079	ltpFR	10	n/a	n/a	n/a	n/a	n/a	n/a	n/a	n/a	n/a	n/a	n/a	n/a	n/a	n/a	n/a	n/a
669.52	n/a	PROB	334760	n/a	LTP079	ltpFR	10	n/a	n/a	n/a	n/a	n/a	n/a	n/a	10	5	3	2	n/a	n/a	n/a	n/a	n/a
671.012	n/a	PROB	335506	n/a	LTP079	ltpFR	10	n/a	n/a	n/a	n/a	n/a	n/a	n/a	21	9	3	9	n/a	n/a	n/a	n/a	n/a
674.468	n/a	PROB	337234	n/a	LTP079	ltpFR	10	n/a	n/a	n/a	n/a	n/a	n/a	n/a	23	5	9	9	n/a	n/a	n/a	n/a	n/a
675.778	n/a	STOP	337889	n/a	LTP079	ltpFR	10	n/a	n/a	n/a	n/a	n/a	n/a	n/a	n/a	n/a	n/a	n/a	n/a	n/a	n/a	n/a	n/a
678.226	n/a	REC_START	339113	n/a	LTP079	ltpFR	10	2	n/a	n/a	n/a	n/a	n/a	n/a	n/a	0	0	0	n/a	n/a	n/a	n/a	n/a
679.618	n/a	REC_WORD	339809	wordpools/wasnorm_wordpool.txt	LTP079	ltpFR	10	2	1	BUILDER	190	n/a	n/a	1	n/a	0	0	0	n/a	n/a	n/a	n/a	n/a
680.786	n/a	REC_WORD	340393	wordpools/wasnorm_wordpool.txt	LTP079	ltpFR	10	2	1	MAILMAN	858	n/a	n/a	1	n/a	0	0	0	n/a	n/a	n/a	n/a	n/a
682.276	n/a	REC_WORD	341138	wordpools/wasnorm_wordpool.txt	LTP079	ltpFR	10	2	1	STAMP	1370	n/a	n/a	0	n/a	0	0	0	n/a	n/a	n/a	n/a	n/a
684.258	n/a	REC_WORD	342129	wordpools/wasnorm_wordpool.txt	LTP079	ltpFR	10	2	0	BLANKET	135	n/a	n/a	1	n/a	0	0	0	n/a	n/a	n/a	n/a	n/a
688.798	n/a	REC_WORD	344399	wordpools/wasnorm_wordpool.txt	LTP079	ltpFR	10	2	0	ALLIGATOR	16	n/a	n/a	1	n/a	0	0	0	n/a	n/a	n/a	n/a	n/a
690.5	n/a	REC_WORD	345250	wordpools/wasnorm_wordpool.txt	LTP079	ltpFR	10	2	0	TYPIST	1532	n/a	n/a	1	n/a	0	0	0	n/a	n/a	n/a	n/a	n/a
694.854	n/a	REC_WORD	347427	wordpools/wasnorm_wordpool.txt	LTP079	ltpFR	10	2	0	RAISIN	1163	n/a	n/a	0	n/a	0	0	0	n/a	n/a	n/a	n/a	n/a
696.106	n/a	REC_WORD	348053	wordpools/wasnorm_wordpool.txt	LTP079	ltpFR	10	2	0	LUNCH	849	n/a	n/a	1	n/a	0	0	0	n/a	n/a	n/a	n/a	n/a
702.202	n/a	REC_WORD	351101	wordpools/wasnorm_wordpool.txt	LTP079	ltpFR	10	2	1	RECIPE	1175	n/a	n/a	0	n/a	0	0	0	n/a	n/a	n/a	n/a	n/a
703.754	n/a	REC_WORD	351877	wordpools/wasnorm_wordpool.txt	LTP079	ltpFR	10	2	1	BANANA	77	n/a	n/a	0	n/a	0	0	0	n/a	n/a	n/a	n/a	n/a
723.58	n/a	REC_WORD	361790	wordpools/wasnorm_wordpool.txt	LTP079	ltpFR	10	2	0	MOOSE	915	n/a	n/a	1	n/a	0	0	0	n/a	n/a	n/a	n/a	n/a
725.046	n/a	REC_WORD	362523	wordpools/wasnorm_wordpool.txt	LTP079	ltpFR	10	2	0	FARM	552	n/a	n/a	1	n/a	0	0	0	n/a	n/a	n/a	n/a	n/a
726.584	n/a	REC_WORD	363292	wordpools/wasnorm_wordpool.txt	LTP079	ltpFR	10	2	1	PICNIC	1060	n/a	n/a	0	n/a	0	0	0	n/a	n/a	n/a	n/a	n/a
727.856	n/a	REC_WORD	363928	wordpools/wasnorm_wordpool.txt	LTP079	ltpFR	10	2	1	SHEARS	1276	n/a	n/a	0	n/a	0	0	0	n/a	n/a	n/a	n/a	n/a
759.184	n/a	WORD	379592	wordpools/wasnorm_wordpool.txt	LTP079	ltpFR	10	3	1	JUVENILE	767	n/a	n/a	1	n/a	0	0	0	0.422607421875	0.5869140625	0	upper	zerothre.ttf
763.158	n/a	WORD	381579	wordpools/wasnorm_wordpool.txt	LTP079	ltpFR	10	3	1	PARENT	1013	n/a	n/a	1	n/a	0	0	0	0.422607421875	0.5869140625	0	upper	zerothre.ttf
766.982	n/a	WORD	383491	wordpools/wasnorm_wordpool.txt	LTP079	ltpFR	10	3	1	FUGITIVE	612	n/a	n/a	1	n/a	0	0	0	0.422607421875	0.5869140625	0	upper	zerothre.ttf
771.172	n/a	WORD	385586	wordpools/wasnorm_wordpool.txt	LTP079	ltpFR	10	3	1	POT	1114	n/a	n/a	0	n/a	0	0	0	0.422607421875	0.5869140625	0	upper	zerothre.ttf
775.096	n/a	WORD	387548	wordpools/wasnorm_wordpool.txt	LTP079	ltpFR	10	3	1	HEATER	698	n/a	n/a	0	n/a	0	0	0	0.422607421875	0.5869140625	0	upper	zerothre.ttf
779.044	n/a	WORD	389522	wordpools/wasnorm_wordpool.txt	LTP079	ltpFR	10	3	1	BRIDGE	174	n/a	n/a	0	n/a	0	0	0	0.422607421875	0.5869140625	0	upper	zerothre.ttf
783.134	n/a	WORD	391567	wordpools/wasnorm_wordpool.txt	LTP079	ltpFR	10	3	1	TOE	1473	n/a	n/a	0	n/a	0	0	0	0.422607421875	0.5869140625	0	upper	zerothre.ttf
787.252	n/a	WORD	393626	wordpools/wasnorm_wordpool.txt	LTP079	ltpFR	10	3	1	THUMB	1462	n/a	n/a	0	n/a	0	0	0	0.422607421875	0.5869140625	0	upper	zerothre.ttf
791.416	n/a	WORD	395708	wordpools/wasnorm_wordpool.txt	LTP079	ltpFR	10	3	1	MICROWAVE	892	n/a	n/a	0	n/a	0	0	0	0.422607421875	0.5869140625	0	upper	zerothre.ttf
795.514	n/a	WORD	397757	wordpools/wasnorm_wordpool.txt	LTP079	ltpFR	10	3	1	ROOT	1210	n/a	n/a	0	n/a	0	0	0	0.422607421875	0.5869140625	0	upper	zerothre.ttf
799.33	n/a	WORD	399665	wordpools/wasnorm_wordpool.txt	LTP079	ltpFR	10	3	1	SWAMP	1416	n/a	n/a	0	n/a	0	0	0	0.422607421875	0.5869140625	0	upper	zerothre.ttf
803.396	n/a	WORD	401698	wordpools/wasnorm_wordpool.txt	LTP079	ltpFR	10	3	1	GAVEL	627	n/a	n/a	0	n/a	0	0	0	0.422607421875	0.5869140625	0	upper	zerothre.ttf
807.604	n/a	WORD	403802	wordpools/wasnorm_wordpool.txt	LTP079	ltpFR	10	3	1	MAN	862	n/a	n/a	1	n/a	0	0	0	0.422607421875	0.5869140625	0	upper	zerothre.ttf
811.686	n/a	WORD	405843	wordpools/wasnorm_wordpool.txt	LTP079	ltpFR	10	3	1	MISTER	901	n/a	n/a	1	n/a	0	0	0	0.422607421875	0.5869140625	0	upper	zerothre.ttf
815.742	n/a	WORD	407871	wordpools/wasnorm_wordpool.txt	LTP079	ltpFR	10	3	1	PAN	1008	n/a	n/a	0	n/a	0	0	0	0.422607421875	0.5869140625	0	upper	zerothre.ttf
819.94	n/a	WORD	409970	wordpools/wasnorm_wordpool.txt	LTP079	ltpFR	10	3	1	HANDKERCHIEF	686	n/a	n/a	0	n/a	0	0	0	0.422607421875	0.5869140625	0	upper	zerothre.ttf
825.648	n/a	REC_START	412824	n/a	LTP079	ltpFR	10	3	n/a	n/a	n/a	n/a	n/a	n/a	n/a	0	0	0	n/a	n/a	n/a	n/a	n/a
826.856	n/a	REC_WORD	413428	wordpools/wasnorm_wordpool.txt	LTP079	ltpFR	10	3	1	HANDKERCHIEF	686	n/a	n/a	0	n/a	0	0	0	n/a	n/a	n/a	n/a	n/a
828.378	n/a	REC_WORD	414189	wordpools/wasnorm_wordpool.txt	LTP079	ltpFR	10	3	1	PAN	1008	n/a	n/a	0	n/a	0	0	0	n/a	n/a	n/a	n/a	n/a
829.724	n/a	REC_WORD	414862	wordpools/wasnorm_wordpool.txt	LTP079	ltpFR	10	3	1	MISTER	901	n/a	n/a	1	n/a	0	0	0	n/a	n/a	n/a	n/a	n/a
831.25	n/a	REC_WORD	415625	wordpools/wasnorm_wordpool.txt	LTP079	ltpFR	10	3	1	MAN	862	n/a	n/a	1	n/a	0	0	0	n/a	n/a	n/a	n/a	n/a
844.002	n/a	REC_WORD	422001	wordpools/wasnorm_wordpool.txt	LTP079	ltpFR	10	3	1	GAVEL	627	n/a	n/a	0	n/a	0	0	0	n/a	n/a	n/a	n/a	n/a
845.53	n/a	REC_WORD	422765	wordpools/wasnorm_wordpool.txt	LTP079	ltpFR	10	3	1	SWAMP	1416	n/a	n/a	0	n/a	0	0	0	n/a	n/a	n/a	n/a	n/a
862.546	n/a	REC_WORD	431273	wordpools/wasnorm_wordpool.txt	LTP079	ltpFR	10	3	1	ROOT	1210	n/a	n/a	0	n/a	0	0	0	n/a	n/a	n/a	n/a	n/a
864.302	n/a	REC_WORD	432151	wordpools/wasnorm_wordpool.txt	LTP079	ltpFR	10	3	1	MICROWAVE	892	n/a	n/a	0	n/a	0	0	0	n/a	n/a	n/a	n/a	n/a
866.182	n/a	REC_WORD	433091	wordpools/wasnorm_wordpool.txt	LTP079	ltpFR	10	3	1	THUMB	1462	n/a	n/a	0	n/a	0	0	0	n/a	n/a	n/a	n/a	n/a
867.974	n/a	REC_WORD	433987	wordpools/wasnorm_wordpool.txt	LTP079	ltpFR	10	3	1	TOE	1473	n/a	n/a	0	n/a	0	0	0	n/a	n/a	n/a	n/a	n/a
869.67	n/a	REC_WORD	434835	wordpools/wasnorm_wordpool.txt	LTP079	ltpFR	10	3	1	BRIDGE	174	n/a	n/a	0	n/a	0	0	0	n/a	n/a	n/a	n/a	n/a
871.272	n/a	REC_WORD	435636	wordpools/wasnorm_wordpool.txt	LTP079	ltpFR	10	3	1	HEATER	698	n/a	n/a	0	n/a	0	0	0	n/a	n/a	n/a	n/a	n/a
873.072	n/a	REC_WORD	436536	wordpools/wasnorm_wordpool.txt	LTP079	ltpFR	10	3	1	POT	1114	n/a	n/a	0	n/a	0	0	0	n/a	n/a	n/a	n/a	n/a
878.012	n/a	REC_WORD	439006	wordpools/wasnorm_wordpool.txt	LTP079	ltpFR	10	3	1	FUGITIVE	612	n/a	n/a	1	n/a	0	0	0	n/a	n/a	n/a	n/a	n/a
879.788	n/a	REC_WORD	439894	wordpools/wasnorm_wordpool.txt	LTP079	ltpFR	10	3	1	PARENT	1013	n/a	n/a	1	n/a	0	0	0	n/a	n/a	n/a	n/a	n/a
881.364	n/a	REC_WORD	440682	wordpools/wasnorm_wordpool.txt	LTP079	ltpFR	10	3	1	JUVENILE	767	n/a	n/a	1	n/a	0	0	0	n/a	n/a	n/a	n/a	n/a
911.064	n/a	WORD	455532	wordpools/wasnorm_wordpool.txt	LTP079	ltpFR	10	4	1	BATHTUB	100	n/a	n/a	0	n/a	0	0	0	0.422607421875	0.5869140625	0	upper	zerothre.ttf
915.254	n/a	WORD	457627	wordpools/wasnorm_wordpool.txt	LTP079	ltpFR	10	4	1	STRING	1394	n/a	n/a	0	n/a	0	0	0	0.422607421875	0.5869140625	0	upper	zerothre.ttf
919.252	n/a	WORD	459626	wordpools/wasnorm_wordpool.txt	LTP079	ltpFR	10	4	1	SUBURB	1399	n/a	n/a	0	n/a	0	0	0	0.422607421875	0.5869140625	0	upper	zerothre.ttf
923.316	n/a	WORD	461658	wordpools/wasnorm_wordpool.txt	LTP079	ltpFR	10	4	1	LOAF	835	n/a	n/a	0	n/a	0	0	0	0.422607421875	0.5869140625	0	upper	zerothre.ttf
927.432	n/a	WORD	463716	wordpools/wasnorm_wordpool.txt	LTP079	ltpFR	10	4	0	DOCTOR	478	n/a	n/a	1	n/a	0	0	0	0.57763671875	0.412841796875	1	lower	amplitud.ttf
931.38	n/a	WORD	465690	wordpools/wasnorm_wordpool.txt	LTP079	ltpFR	10	4	0	LEOPARD	812	n/a	n/a	1	n/a	0	0	0	0.57763671875	0.412841796875	1	lower	amplitud.ttf
935.388	n/a	WORD	467694	wordpools/wasnorm_wordpool.txt	LTP079	ltpFR	10	4	0	RAT	1169	n/a	n/a	0	n/a	0	0	0	0.57763671875	0.412841796875	1	lower	amplitud.ttf
939.222	n/a	WORD	469611	wordpools/wasnorm_wordpool.txt	LTP079	ltpFR	10	4	0	DONOR	485	n/a	n/a	1	n/a	0	0	0	0.57763671875	0.412841796875	1	lower	amplitud.ttf
943.07	n/a	WORD	471535	wordpools/wasnorm_wordpool.txt	LTP079	ltpFR	10	4	0	ORGAN	984	n/a	n/a	0	n/a	0	0	0	0.57763671875	0.412841796875	1	lower	amplitud.ttf
947.06	n/a	WORD	473530	wordpools/wasnorm_wordpool.txt	LTP079	ltpFR	10	4	1	TRANSPLANT	1496	n/a	n/a	0	n/a	0	0	0	0.422607421875	0.5869140625	0	upper	zerothre.ttf
951.01	n/a	WORD	475505	wordpools/wasnorm_wordpool.txt	LTP079	ltpFR	10	4	1	SHAMPOO	1274	n/a	n/a	0	n/a	0	0	0	0.422607421875	0.5869140625	0	upper	zerothre.ttf
955.208	n/a	WORD	477604	wordpools/wasnorm_wordpool.txt	LTP079	ltpFR	10	4	0	GARLIC	624	n/a	n/a	0	n/a	0	0	0	0.57763671875	0.412841796875	1	lower	amplitud.ttf
959.282	n/a	WORD	479641	wordpools/wasnorm_wordpool.txt	LTP079	ltpFR	10	4	0	CAPITAL	238	n/a	n/a	1	n/a	0	0	0	0.57763671875	0.412841796875	1	lower	amplitud.ttf
963.256	n/a	WORD	481628	wordpools/wasnorm_wordpool.txt	LTP079	ltpFR	10	4	0	MOUNTAIN	924	n/a	n/a	1	n/a	0	0	0	0.57763671875	0.412841796875	1	lower	amplitud.ttf
967.238	n/a	WORD	483619	wordpools/wasnorm_wordpool.txt	LTP079	ltpFR	10	4	1	SQUID	1361	n/a	n/a	1	n/a	0	0	0	0.422607421875	0.5869140625	0	upper	zerothre.ttf
971.418	n/a	WORD	485709	wordpools/wasnorm_wordpool.txt	LTP079	ltpFR	10	4	1	LOBSTER	837	n/a	n/a	1	n/a	0	0	0	0.422607421875	0.5869140625	0	upper	zerothre.ttf
974.426	n/a	START	487213	n/a	LTP079	ltpFR	10	n/a	n/a	n/a	n/a	n/a	n/a	n/a	n/a	n/a	n/a	n/a	n/a	n/a	n/a	n/a	n/a
975.552	n/a	PROB	487776	n/a	LTP079	ltpFR	10	n/a	n/a	n/a	n/a	n/a	n/a	n/a	19	5	7	7	n/a	n/a	n/a	n/a	n/a
977.234	n/a	PROB	488617	n/a	LTP079	ltpFR	10	n/a	n/a	n/a	n/a	n/a	n/a	n/a	18	2	9	7	n/a	n/a	n/a	n/a	n/a
978.984	n/a	PROB	489492	n/a	LTP079	ltpFR	10	n/a	n/a	n/a	n/a	n/a	n/a	n/a	9	2	6	1	n/a	n/a	n/a	n/a	n/a
980.192	n/a	PROB	490096	n/a	LTP079	ltpFR	10	n/a	n/a	n/a	n/a	n/a	n/a	n/a	15	4	5	6	n/a	n/a	n/a	n/a	n/a
981.642	n/a	STOP	490821	n/a	LTP079	ltpFR	10	n/a	n/a	n/a	n/a	n/a	n/a	n/a	n/a	n/a	n/a	n/a	n/a	n/a	n/a	n/a	n/a
984.34	n/a	REC_START	492170	n/a	LTP079	ltpFR	10	4	n/a	n/a	n/a	n/a	n/a	n/a	n/a	0	0	0	n/a	n/a	n/a	n/a	n/a
985.702	n/a	REC_WORD	492851	wordpools/wasnorm_wordpool.txt	LTP079	ltpFR	10	4	1	LOBSTER	837	n/a	n/a	1	n/a	0	0	0	n/a	n/a	n/a	n/a	n/a
986.98	n/a	REC_WORD	493490	wordpools/wasnorm_wordpool.txt	LTP079	ltpFR	10	4	1	SQUID	1361	n/a	n/a	1	n/a	0	0	0	n/a	n/a	n/a	n/a	n/a
988.97	n/a	REC_WORD	494485	wordpools/wasnorm_wordpool.txt	LTP079	ltpFR	10	4	0	MOUNTAIN	924	n/a	n/a	1	n/a	0	0	0	n/a	n/a	n/a	n/a	n/a
991.22	n/a	REC_WORD	495610	wordpools/wasnorm_wordpool.txt	LTP079	ltpFR	10	4	0	CAPITAL	238	n/a	n/a	1	n/a	0	0	0	n/a	n/a	n/a	n/a	n/a
1000.5	n/a	REC_WORD	500250	wordpools/wasnorm_wordpool.txt	LTP079	ltpFR	10	4	0	ORGAN	984	n/a	n/a	0	n/a	0	0	0	n/a	n/a	n/a	n/a	n/a
1002.086	n/a	REC_WORD	501043	wordpools/wasnorm_wordpool.txt	LTP079	ltpFR	10	4	0	DONOR	485	n/a	n/a	1	n/a	0	0	0	n/a	n/a	n/a	n/a	n/a
1003.618	n/a	REC_WORD	501809	wordpools/wasnorm_wordpool.txt	LTP079	ltpFR	10	4	1	TRANSPLANT	1496	n/a	n/a	0	n/a	0	0	0	n/a	n/a	n/a	n/a	n/a
1034.12	n/a	REC_WORD	517060	wordpools/wasnorm_wordpool.txt	LTP079	ltpFR	10	4	0	RAT	1169	n/a	n/a	0	n/a	0	0	0	n/a	n/a	n/a	n/a	n/a
1043.868	n/a	REC_WORD	521934	wordpools/wasnorm_wordpool.txt	LTP079	ltpFR	10	4	0	DOCTOR	478	n/a	n/a	1	n/a	0	0	0	n/a	n/a	n/a	n/a	n/a
1044.966	n/a	REC_WORD	522483	wordpools/wasnorm_wordpool.txt	LTP079	ltpFR	10	4	1	LOAF	835	n/a	n/a	0	n/a	0	0	0	n/a	n/a	n/a	n/a	n/a
1046.242	n/a	REC_WORD	523121	wordpools/wasnorm_wordpool.txt	LTP079	ltpFR	10	4	1	SUBURB	1399	n/a	n/a	0	n/a	0	0	0	n/a	n/a	n/a	n/a	n/a
1048.442	n/a	REC_WORD	524221	wordpools/wasnorm_wordpool.txt	LTP079	ltpFR	10	4	1	STRING	1394	n/a	n/a	0	n/a	0	0	0	n/a	n/a	n/a	n/a	n/a
1050.03	n/a	REC_WORD	525015	wordpools/wasnorm_wordpool.txt	LTP079	ltpFR	10	4	1	BATHTUB	100	n/a	n/a	0	n/a	0	0	0	n/a	n/a	n/a	n/a	n/a
1061.168	n/a	START	530584	n/a	LTP079	ltpFR	10	n/a	n/a	n/a	n/a	n/a	n/a	n/a	n/a	n/a	n/a	n/a	n/a	n/a	n/a	n/a	n/a
1062.676	n/a	PROB	531338	n/a	LTP079	ltpFR	10	n/a	n/a	n/a	n/a	n/a	n/a	n/a	23	9	6	8	n/a	n/a	n/a	n/a	n/a
1064.742	n/a	PROB	532371	n/a	LTP079	ltpFR	10	n/a	n/a	n/a	n/a	n/a	n/a	n/a	19	3	8	8	n/a	n/a	n/a	n/a	n/a
1066.364	n/a	PROB	533182	n/a	LTP079	ltpFR	10	n/a	n/a	n/a	n/a	n/a	n/a	n/a	18	6	9	3	n/a	n/a	n/a	n/a	n/a
1067.548	n/a	PROB	533774	n/a	LTP079	ltpFR	10	n/a	n/a	n/a	n/a	n/a	n/a	n/a	6	1	4	1	n/a	n/a	n/a	n/a	n/a
1068.404	n/a	STOP	534202	n/a	LTP079	ltpFR	10	n/a	n/a	n/a	n/a	n/a	n/a	n/a	n/a	n/a	n/a	n/a	n/a	n/a	n/a	n/a	n/a
1070.338	n/a	WORD	535169	wordpools/wasnorm_wordpool.txt	LTP079	ltpFR	10	5	1	SPIDER	1351	n/a	n/a	1	n/a	0	0	0	0.422607421875	0.5869140625	0	upper	zerothre.ttf
1073.346	n/a	START	536673	n/a	LTP079	ltpFR	10	n/a	n/a	n/a	n/a	n/a	n/a	n/a	n/a	n/a	n/a	n/a	n/a	n/a	n/a	n/a	n/a
1074.454	n/a	PROB	537227	n/a	LTP079	ltpFR	10	n/a	n/a	n/a	n/a	n/a	n/a	n/a	10	3	3	4	n/a	n/a	n/a	n/a	n/a
1075.964	n/a	PROB	537982	n/a	LTP079	ltpFR	10	n/a	n/a	n/a	n/a	n/a	n/a	n/a	12	4	4	4	n/a	n/a	n/a	n/a	n/a
1076.804	n/a	PROB	538402	n/a	LTP079	ltpFR	10	n/a	n/a	n/a	n/a	n/a	n/a	n/a	12	2	1	9	n/a	n/a	n/a	n/a	n/a
1077.804	n/a	PROB	538902	n/a	LTP079	ltpFR	10	n/a	n/a	n/a	n/a	n/a	n/a	n/a	15	2	6	7	n/a	n/a	n/a	n/a	n/a
1078.928	n/a	PROB	539464	n/a	LTP079	ltpFR	10	n/a	n/a	n/a	n/a	n/a	n/a	n/a	15	5	3	7	n/a	n/a	n/a	n/a	n/a
1080.206	n/a	STOP	540103	n/a	LTP079	ltpFR	10	n/a	n/a	n/a	n/a	n/a	n/a	n/a	n/a	n/a	n/a	n/a	n/a	n/a	n/a	n/a	n/a
1082.228	n/a	WORD	541114	wordpools/wasnorm_wordpool.txt	LTP079	ltpFR	10	5	1	TURNIP	1521	n/a	n/a	0	n/a	0	0	0	0.422607421875	0.5869140625	0	upper	zerothre.ttf
1085.236	n/a	START	542618	n/a	LTP079	ltpFR	10	n/a	n/a	n/a	n/a	n/a	n/a	n/a	n/a	n/a	n/a	n/a	n/a	n/a	n/a	n/a	n/a
1086.418	n/a	PROB	543209	n/a	LTP079	ltpFR	10	n/a	n/a	n/a	n/a	n/a	n/a	n/a	19	4	7	8	n/a	n/a	n/a	n/a	n/a
1087.676	n/a	PROB	543838	n/a	LTP079	ltpFR	10	n/a	n/a	n/a	n/a	n/a	n/a	n/a	19	4	7	8	n/a	n/a	n/a	n/a	n/a
1089.216	n/a	PROB	544608	n/a	LTP079	ltpFR	10	n/a	n/a	n/a	n/a	n/a	n/a	n/a	13	9	3	1	n/a	n/a	n/a	n/a	n/a
1090.634	n/a	PROB	545317	n/a	LTP079	ltpFR	10	n/a	n/a	n/a	n/a	n/a	n/a	n/a	12	5	2	5	n/a	n/a	n/a	n/a	n/a
1091.632	n/a	PROB	545816	n/a	LTP079	ltpFR	10	n/a	n/a	n/a	n/a	n/a	n/a	n/a	17	7	3	7	n/a	n/a	n/a	n/a	n/a
1092.958	n/a	STOP	546479	n/a	LTP079	ltpFR	10	n/a	n/a	n/a	n/a	n/a	n/a	n/a	n/a	n/a	n/a	n/a	n/a	n/a	n/a	n/a	n/a
1094.232	n/a	WORD	547116	wordpools/wasnorm_wordpool.txt	LTP079	ltpFR	10	5	1	BANQUET	86	n/a	n/a	0	n/a	0	0	0	0.422607421875	0.5869140625	0	upper	zerothre.ttf
1097.24	n/a	START	548620	n/a	LTP079	ltpFR	10	n/a	n/a	n/a	n/a	n/a	n/a	n/a	n/a	n/a	n/a	n/a	n/a	n/a	n/a	n/a	n/a
1098.446	n/a	PROB	549223	n/a	LTP079	ltpFR	10	n/a	n/a	n/a	n/a	n/a	n/a	n/a	10	4	4	2	n/a	n/a	n/a	n/a	n/a
1099.614	n/a	PROB	549807	n/a	LTP079	ltpFR	10	n/a	n/a	n/a	n/a	n/a	n/a	n/a	9	6	1	2	n/a	n/a	n/a	n/a	n/a
1100.63	n/a	PROB	550315	n/a	LTP079	ltpFR	10	n/a	n/a	n/a	n/a	n/a	n/a	n/a	15	6	3	6	n/a	n/a	n/a	n/a	n/a
1102.222	n/a	PROB	551111	n/a	LTP079	ltpFR	10	n/a	n/a	n/a	n/a	n/a	n/a	n/a	15	9	2	4	n/a	n/a	n/a	n/a	n/a
1105.24	n/a	STOP	552620	n/a	LTP079	ltpFR	10	n/a	n/a	n/a	n/a	n/a	n/a	n/a	n/a	n/a	n/a	n/a	n/a	n/a	n/a	n/a	n/a
1106.236	n/a	WORD	553118	wordpools/wasnorm_wordpool.txt	LTP079	ltpFR	10	5	0	CASHEW	253	n/a	n/a	0	n/a	0	0	0	0.57763671875	0.412841796875	1	lower	amplitud.ttf
1109.244	n/a	START	554622	n/a	LTP079	ltpFR	10	n/a	n/a	n/a	n/a	n/a	n/a	n/a	n/a	n/a	n/a	n/a	n/a	n/a	n/a	n/a	n/a
1110.078	n/a	PROB	555039	n/a	LTP079	ltpFR	10	n/a	n/a	n/a	n/a	n/a	n/a	n/a	11	2	5	4	n/a	n/a	n/a	n/a	n/a
1111.376	n/a	PROB	555688	n/a	LTP079	ltpFR	10	n/a	n/a	n/a	n/a	n/a	n/a	n/a	21	5	8	8	n/a	n/a	n/a	n/a	n/a
1112.918	n/a	PROB	556459	n/a	LTP079	ltpFR	10	n/a	n/a	n/a	n/a	n/a	n/a	n/a	13	4	1	8	n/a	n/a	n/a	n/a	n/a
1113.852	n/a	PROB	556926	n/a	LTP079	ltpFR	10	n/a	n/a	n/a	n/a	n/a	n/a	n/a	10	6	1	3	n/a	n/a	n/a	n/a	n/a
1114.76	n/a	PROB	557380	n/a	LTP079	ltpFR	10	n/a	n/a	n/a	n/a	n/a	n/a	n/a	16	2	6	8	n/a	n/a	n/a	n/a	n/a
1116.256	n/a	STOP	558128	n/a	LTP079	ltpFR	10	n/a	n/a	n/a	n/a	n/a	n/a	n/a	n/a	n/a	n/a	n/a	n/a	n/a	n/a	n/a	n/a
1118.25	n/a	WORD	559125	wordpools/wasnorm_wordpool.txt	LTP079	ltpFR	10	5	0	COACH	331	n/a	n/a	1	n/a	0	0	0	0.57763671875	0.412841796875	1	lower	amplitud.ttf
1121.258	n/a	START	560629	n/a	LTP079	ltpFR	10	n/a	n/a	n/a	n/a	n/a	n/a	n/a	n/a	n/a	n/a	n/a	n/a	n/a	n/a	n/a	n/a
1122.248	n/a	PROB	561124	n/a	LTP079	ltpFR	10	n/a	n/a	n/a	n/a	n/a	n/a	n/a	13	5	3	5	n/a	n/a	n/a	n/a	n/a
1123.53	n/a	PROB	561765	n/a	LTP079	ltpFR	10	n/a	n/a	n/a	n/a	n/a	n/a	n/a	9	4	2	3	n/a	n/a	n/a	n/a	n/a
1124.614	n/a	PROB	562307	n/a	LTP079	ltpFR	10	n/a	n/a	n/a	n/a	n/a	n/a	n/a	21	8	8	5	n/a	n/a	n/a	n/a	n/a
1126.422	n/a	PROB	563211	n/a	LTP079	ltpFR	10	n/a	n/a	n/a	n/a	n/a	n/a	n/a	7	1	2	4	n/a	n/a	n/a	n/a	n/a
1127.312	n/a	PROB	563656	n/a	LTP079	ltpFR	10	n/a	n/a	n/a	n/a	n/a	n/a	n/a	8	1	1	6	n/a	n/a	n/a	n/a	n/a
1128.176	n/a	STOP	564088	n/a	LTP079	ltpFR	10	n/a	n/a	n/a	n/a	n/a	n/a	n/a	n/a	n/a	n/a	n/a	n/a	n/a	n/a	n/a	n/a
1130.42	n/a	WORD	565210	wordpools/wasnorm_wordpool.txt	LTP079	ltpFR	10	5	1	PIRATE	1074	n/a	n/a	1	n/a	0	0	0	0.422607421875	0.5869140625	0	upper	zerothre.ttf
1133.428	n/a	START	566714	n/a	LTP079	ltpFR	10	n/a	n/a	n/a	n/a	n/a	n/a	n/a	n/a	n/a	n/a	n/a	n/a	n/a	n/a	n/a	n/a
1134.336	n/a	PROB	567168	n/a	LTP079	ltpFR	10	n/a	n/a	n/a	n/a	n/a	n/a	n/a	23	9	6	8	n/a	n/a	n/a	n/a	n/a
1137.844	n/a	PROB	568922	n/a	LTP079	ltpFR	10	n/a	n/a	n/a	n/a	n/a	n/a	n/a	13	4	2	7	n/a	n/a	n/a	n/a	n/a
1139.118	n/a	PROB	569559	n/a	LTP079	ltpFR	10	n/a	n/a	n/a	n/a	n/a	n/a	n/a	18	7	6	5	n/a	n/a	n/a	n/a	n/a
1140.36	n/a	STOP	570180	n/a	LTP079	ltpFR	10	n/a	n/a	n/a	n/a	n/a	n/a	n/a	n/a	n/a	n/a	n/a	n/a	n/a	n/a	n/a	n/a
1142.26	n/a	WORD	571130	wordpools/wasnorm_wordpool.txt	LTP079	ltpFR	10	5	1	PAD	998	n/a	n/a	0	n/a	0	0	0	0.422607421875	0.5869140625	0	upper	zerothre.ttf
1145.268	n/a	START	572634	n/a	LTP079	ltpFR	10	n/a	n/a	n/a	n/a	n/a	n/a	n/a	n/a	n/a	n/a	n/a	n/a	n/a	n/a	n/a	n/a
1146.282	n/a	PROB	573141	n/a	LTP079	ltpFR	10	n/a	n/a	n/a	n/a	n/a	n/a	n/a	11	3	2	6	n/a	n/a	n/a	n/a	n/a
1147.616	n/a	PROB	573808	n/a	LTP079	ltpFR	10	n/a	n/a	n/a	n/a	n/a	n/a	n/a	22	8	8	6	n/a	n/a	n/a	n/a	n/a
1149.874	n/a	PROB	574937	n/a	LTP079	ltpFR	10	n/a	n/a	n/a	n/a	n/a	n/a	n/a	7	3	2	2	n/a	n/a	n/a	n/a	n/a
1151.006	n/a	PROB	575503	n/a	LTP079	ltpFR	10	n/a	n/a	n/a	n/a	n/a	n/a	n/a	12	5	3	4	n/a	n/a	n/a	n/a	n/a
1152.218	n/a	STOP	576109	n/a	LTP079	ltpFR	10	n/a	n/a	n/a	n/a	n/a	n/a	n/a	n/a	n/a	n/a	n/a	n/a	n/a	n/a	n/a	n/a
1154.338	n/a	WORD	577169	wordpools/wasnorm_wordpool.txt	LTP079	ltpFR	10	5	1	NIGHTGOWN	953	n/a	n/a	0	n/a	0	0	0	0.422607421875	0.5869140625	0	upper	zerothre.ttf
1157.346	n/a	START	578673	n/a	LTP079	ltpFR	10	n/a	n/a	n/a	n/a	n/a	n/a	n/a	n/a	n/a	n/a	n/a	n/a	n/a	n/a	n/a	n/a
1158.404	n/a	PROB	579202	n/a	LTP079	ltpFR	10	n/a	n/a	n/a	n/a	n/a	n/a	n/a	10	2	6	2	n/a	n/a	n/a	n/a	n/a
1159.58	n/a	PROB	579790	n/a	LTP079	ltpFR	10	n/a	n/a	n/a	n/a	n/a	n/a	n/a	8	1	6	1	n/a	n/a	n/a	n/a	n/a
1160.494	n/a	PROB	580247	n/a	LTP079	ltpFR	10	n/a	n/a	n/a	n/a	n/a	n/a	n/a	16	2	7	7	n/a	n/a	n/a	n/a	n/a
1161.536	n/a	PROB	580768	n/a	LTP079	ltpFR	10	n/a	n/a	n/a	n/a	n/a	n/a	n/a	14	4	9	1	n/a	n/a	n/a	n/a	n/a
1162.82	n/a	PROB	581410	n/a	LTP079	ltpFR	10	n/a	n/a	n/a	n/a	n/a	n/a	n/a	11	5	1	5	n/a	n/a	n/a	n/a	n/a
1163.662	n/a	PROB	581831	n/a	LTP079	ltpFR	10	n/a	n/a	n/a	n/a	n/a	n/a	n/a	17	5	5	7	n/a	n/a	n/a	n/a	n/a
1164.906	n/a	STOP	582453	n/a	LTP079	ltpFR	10	n/a	n/a	n/a	n/a	n/a	n/a	n/a	n/a	n/a	n/a	n/a	n/a	n/a	n/a	n/a	n/a
1166.26	n/a	WORD	583130	wordpools/wasnorm_wordpool.txt	LTP079	ltpFR	10	5	0	QUILT	1151	n/a	n/a	0	n/a	0	0	0	0.57763671875	0.412841796875	1	lower	amplitud.ttf
1169.268	n/a	START	584634	n/a	LTP079	ltpFR	10	n/a	n/a	n/a	n/a	n/a	n/a	n/a	n/a	n/a	n/a	n/a	n/a	n/a	n/a	n/a	n/a
1170.192	n/a	PROB	585096	n/a	LTP079	ltpFR	10	n/a	n/a	n/a	n/a	n/a	n/a	n/a	8	2	1	5	n/a	n/a	n/a	n/a	n/a
1171.284	n/a	PROB	585642	n/a	LTP079	ltpFR	10	n/a	n/a	n/a	n/a	n/a	n/a	n/a	15	7	2	6	n/a	n/a	n/a	n/a	n/a
1172.726	n/a	PROB	586363	n/a	LTP079	ltpFR	10	n/a	n/a	n/a	n/a	n/a	n/a	n/a	14	2	6	6	n/a	n/a	n/a	n/a	n/a
1174.0	n/a	PROB	587000	n/a	LTP079	ltpFR	10	n/a	n/a	n/a	n/a	n/a	n/a	n/a	11	2	5	4	n/a	n/a	n/a	n/a	n/a
1175.324	n/a	PROB	587662	n/a	LTP079	ltpFR	10	n/a	n/a	n/a	n/a	n/a	n/a	n/a	17	7	6	4	n/a	n/a	n/a	n/a	n/a
1176.41	n/a	STOP	588205	n/a	LTP079	ltpFR	10	n/a	n/a	n/a	n/a	n/a	n/a	n/a	n/a	n/a	n/a	n/a	n/a	n/a	n/a	n/a	n/a
1178.44	n/a	WORD	589220	wordpools/wasnorm_wordpool.txt	LTP079	ltpFR	10	5	0	OX	994	n/a	n/a	1	n/a	0	0	0	0.57763671875	0.412841796875	1	lower	amplitud.ttf
1181.446	n/a	START	590723	n/a	LTP079	ltpFR	10	n/a	n/a	n/a	n/a	n/a	n/a	n/a	n/a	n/a	n/a	n/a	n/a	n/a	n/a	n/a	n/a
1182.522	n/a	PROB	591261	n/a	LTP079	ltpFR	10	n/a	n/a	n/a	n/a	n/a	n/a	n/a	7	4	2	1	n/a	n/a	n/a	n/a	n/a
1183.43	n/a	PROB	591715	n/a	LTP079	ltpFR	10	n/a	n/a	n/a	n/a	n/a	n/a	n/a	17	9	1	7	n/a	n/a	n/a	n/a	n/a
1184.68	n/a	PROB	592340	n/a	LTP079	ltpFR	10	n/a	n/a	n/a	n/a	n/a	n/a	n/a	13	2	7	4	n/a	n/a	n/a	n/a	n/a
1185.67	n/a	PROB	592835	n/a	LTP079	ltpFR	10	n/a	n/a	n/a	n/a	n/a	n/a	n/a	12	3	4	5	n/a	n/a	n/a	n/a	n/a
1186.536	n/a	PROB	593268	n/a	LTP079	ltpFR	10	n/a	n/a	n/a	n/a	n/a	n/a	n/a	17	9	2	6	n/a	n/a	n/a	n/a	n/a
1188.418	n/a	STOP	594209	n/a	LTP079	ltpFR	10	n/a	n/a	n/a	n/a	n/a	n/a	n/a	n/a	n/a	n/a	n/a	n/a	n/a	n/a	n/a	n/a
1190.418	n/a	WORD	595209	wordpools/wasnorm_wordpool.txt	LTP079	ltpFR	10	5	0	CAMEL	223	n/a	n/a	1	n/a	0	0	0	0.57763671875	0.412841796875	1	lower	amplitud.ttf
1193.426	n/a	START	596713	n/a	LTP079	ltpFR	10	n/a	n/a	n/a	n/a	n/a	n/a	n/a	n/a	n/a	n/a	n/a	n/a	n/a	n/a	n/a	n/a
1194.418	n/a	PROB	597209	n/a	LTP079	ltpFR	10	n/a	n/a	n/a	n/a	n/a	n/a	n/a	19	5	8	7	n/a	n/a	n/a	n/a	n/a
1196.518	n/a	PROB	598259	n/a	LTP079	ltpFR	10	n/a	n/a	n/a	n/a	n/a	n/a	n/a	17	2	8	7	n/a	n/a	n/a	n/a	n/a
1198.408	n/a	PROB	599204	n/a	LTP079	ltpFR	10	n/a	n/a	n/a	n/a	n/a	n/a	n/a	14	8	4	2	n/a	n/a	n/a	n/a	n/a
1199.85	n/a	PROB	599925	n/a	LTP079	ltpFR	10	n/a	n/a	n/a	n/a	n/a	n/a	n/a	18	8	4	6	n/a	n/a	n/a	n/a	n/a
1201.212	n/a	STOP	600606	n/a	LTP079	ltpFR	10	n/a	n/a	n/a	n/a	n/a	n/a	n/a	n/a	n/a	n/a	n/a	n/a	n/a	n/a	n/a	n/a
1202.242	n/a	WORD	601121	wordpools/wasnorm_wordpool.txt	LTP079	ltpFR	10	5	0	VOLLEYBALL	1576	n/a	n/a	0	n/a	0	0	0	0.57763671875	0.412841796875	1	lower	amplitud.ttf
1205.248	n/a	START	602624	n/a	LTP079	ltpFR	10	n/a	n/a	n/a	n/a	n/a	n/a	n/a	n/a	n/a	n/a	n/a	n/a	n/a	n/a	n/a	n/a
1206.232	n/a	PROB	603116	n/a	LTP079	ltpFR	10	n/a	n/a	n/a	n/a	n/a	n/a	n/a	20	4	9	7	n/a	n/a	n/a	n/a	n/a
1208.454	n/a	PROB	604227	n/a	LTP079	ltpFR	10	n/a	n/a	n/a	n/a	n/a	n/a	n/a	9	2	3	4	n/a	n/a	n/a	n/a	n/a
1209.454	n/a	PROB	604727	n/a	LTP079	ltpFR	10	n/a	n/a	n/a	n/a	n/a	n/a	n/a	15	8	3	4	n/a	n/a	n/a	n/a	n/a
1210.74	n/a	PROB	605370	n/a	LTP079	ltpFR	10	n/a	n/a	n/a	n/a	n/a	n/a	n/a	8	6	1	1	n/a	n/a	n/a	n/a	n/a
1211.556	n/a	PROB	605778	n/a	LTP079	ltpFR	10	n/a	n/a	n/a	n/a	n/a	n/a	n/a	18	9	2	7	n/a	n/a	n/a	n/a	n/a
1212.822	n/a	STOP	606411	n/a	LTP079	ltpFR	10	n/a	n/a	n/a	n/a	n/a	n/a	n/a	n/a	n/a	n/a	n/a	n/a	n/a	n/a	n/a	n/a
1214.122	n/a	WORD	607061	wordpools/wasnorm_wordpool.txt	LTP079	ltpFR	10	5	0	REPORT	1184	n/a	n/a	0	n/a	0	0	0	0.57763671875	0.412841796875	1	lower	amplitud.ttf
1217.128	n/a	START	608564	n/a	LTP079	ltpFR	10	n/a	n/a	n/a	n/a	n/a	n/a	n/a	n/a	n/a	n/a	n/a	n/a	n/a	n/a	n/a	n/a
1218.204	n/a	PROB	609102	n/a	LTP079	ltpFR	10	n/a	n/a	n/a	n/a	n/a	n/a	n/a	17	6	3	8	n/a	n/a	n/a	n/a	n/a
1220.61	n/a	PROB	610305	n/a	LTP079	ltpFR	10	n/a	n/a	n/a	n/a	n/a	n/a	n/a	21	8	7	6	n/a	n/a	n/a	n/a	n/a
1222.476	n/a	PROB	611238	n/a	LTP079	ltpFR	10	n/a	n/a	n/a	n/a	n/a	n/a	n/a	16	9	3	4	n/a	n/a	n/a	n/a	n/a
1224.222	n/a	STOP	612111	n/a	LTP079	ltpFR	10	n/a	n/a	n/a	n/a	n/a	n/a	n/a	n/a	n/a	n/a	n/a	n/a	n/a	n/a	n/a	n/a
1226.208	n/a	WORD	613104	wordpools/wasnorm_wordpool.txt	LTP079	ltpFR	10	5	0	PIE	1062	n/a	n/a	0	n/a	0	0	0	0.57763671875	0.412841796875	1	lower	amplitud.ttf
1229.218	n/a	START	614609	n/a	LTP079	ltpFR	10	n/a	n/a	n/a	n/a	n/a	n/a	n/a	n/a	n/a	n/a	n/a	n/a	n/a	n/a	n/a	n/a
1230.092	n/a	PROB	615046	n/a	LTP079	ltpFR	10	n/a	n/a	n/a	n/a	n/a	n/a	n/a	18	9	5	4	n/a	n/a	n/a	n/a	n/a
1231.332	n/a	PROB	615666	n/a	LTP079	ltpFR	10	n/a	n/a	n/a	n/a	n/a	n/a	n/a	20	9	5	6	n/a	n/a	n/a	n/a	n/a
1232.766	n/a	PROB	616383	n/a	LTP079	ltpFR	10	n/a	n/a	n/a	n/a	n/a	n/a	n/a	23	5	9	9	n/a	n/a	n/a	n/a	n/a
1234.906	n/a	PROB	617453	n/a	LTP079	ltpFR	10	n/a	n/a	n/a	n/a	n/a	n/a	n/a	21	9	3	9	n/a	n/a	n/a	n/a	n/a
1236.03	n/a	STOP	618015	n/a	LTP079	ltpFR	10	n/a	n/a	n/a	n/a	n/a	n/a	n/a	n/a	n/a	n/a	n/a	n/a	n/a	n/a	n/a	n/a
1238.18	n/a	WORD	619090	wordpools/wasnorm_wordpool.txt	LTP079	ltpFR	10	5	1	BUS	201	n/a	n/a	0	n/a	0	0	0	0.422607421875	0.5869140625	0	upper	zerothre.ttf
1241.188	n/a	START	620594	n/a	LTP079	ltpFR	10	n/a	n/a	n/a	n/a	n/a	n/a	n/a	n/a	n/a	n/a	n/a	n/a	n/a	n/a	n/a	n/a
1242.32	n/a	PROB	621160	n/a	LTP079	ltpFR	10	n/a	n/a	n/a	n/a	n/a	n/a	n/a	19	8	7	4	n/a	n/a	n/a	n/a	n/a
1245.136	n/a	PROB	622568	n/a	LTP079	ltpFR	10	n/a	n/a	n/a	n/a	n/a	n/a	n/a	13	4	1	8	n/a	n/a	n/a	n/a	n/a
1246.368	n/a	PROB	623184	n/a	LTP079	ltpFR	10	n/a	n/a	n/a	n/a	n/a	n/a	n/a	10	1	4	5	n/a	n/a	n/a	n/a	n/a
1247.278	n/a	PROB	623639	n/a	LTP079	ltpFR	10	n/a	n/a	n/a	n/a	n/a	n/a	n/a	11	6	3	2	n/a	n/a	n/a	n/a	n/a
1248.134	n/a	STOP	624067	n/a	LTP079	ltpFR	10	n/a	n/a	n/a	n/a	n/a	n/a	n/a	n/a	n/a	n/a	n/a	n/a	n/a	n/a	n/a	n/a
1250.144	n/a	WORD	625072	wordpools/wasnorm_wordpool.txt	LTP079	ltpFR	10	5	1	TRUCK	1512	n/a	n/a	0	n/a	0	0	0	0.422607421875	0.5869140625	0	upper	zerothre.ttf
1253.152	n/a	START	626576	n/a	LTP079	ltpFR	10	n/a	n/a	n/a	n/a	n/a	n/a	n/a	n/a	n/a	n/a	n/a	n/a	n/a	n/a	n/a	n/a
1254.026	n/a	PROB	627013	n/a	LTP079	ltpFR	10	n/a	n/a	n/a	n/a	n/a	n/a	n/a	22	7	8	7	n/a	n/a	n/a	n/a	n/a
1255.424	n/a	PROB	627712	n/a	LTP079	ltpFR	10	n/a	n/a	n/a	n/a	n/a	n/a	n/a	8	2	4	2	n/a	n/a	n/a	n/a	n/a
1256.708	n/a	PROB	628354	n/a	LTP079	ltpFR	10	n/a	n/a	n/a	n/a	n/a	n/a	n/a	11	5	1	5	n/a	n/a	n/a	n/a	n/a
1257.666	n/a	PROB	628833	n/a	LTP079	ltpFR	10	n/a	n/a	n/a	n/a	n/a	n/a	n/a	17	1	7	9	n/a	n/a	n/a	n/a	n/a
1258.982	n/a	PROB	629491	n/a	LTP079	ltpFR	10	n/a	n/a	n/a	n/a	n/a	n/a	n/a	15	3	9	3	n/a	n/a	n/a	n/a	n/a
1259.808	n/a	STOP	629904	n/a	LTP079	ltpFR	10	n/a	n/a	n/a	n/a	n/a	n/a	n/a	n/a	n/a	n/a	n/a	n/a	n/a	n/a	n/a	n/a
1263.074	n/a	REC_START	631537	n/a	LTP079	ltpFR	10	5	n/a	n/a	n/a	n/a	n/a	n/a	n/a	0	0	0	n/a	n/a	n/a	n/a	n/a
1264.91	n/a	REC_WORD	632455	wordpools/wasnorm_wordpool.txt	LTP079	ltpFR	10	5	1	TRUCK	1512	n/a	n/a	0	n/a	0	0	0	n/a	n/a	n/a	n/a	n/a
1274.514	n/a	REC_WORD	637257	wordpools/wasnorm_wordpool.txt	LTP079	ltpFR	10	5	0	OX	994	n/a	n/a	1	n/a	0	0	0	n/a	n/a	n/a	n/a	n/a
1276.02	n/a	REC_WORD	638010	wordpools/wasnorm_wordpool.txt	LTP079	ltpFR	10	5	0	CAMEL	223	n/a	n/a	1	n/a	0	0	0	n/a	n/a	n/a	n/a	n/a
1277.352	n/a	REC_WORD	638676	wordpools/wasnorm_wordpool.txt	LTP079	ltpFR	10	5	0	VOLLEYBALL	1576	n/a	n/a	0	n/a	0	0	0	n/a	n/a	n/a	n/a	n/a
1278.834	n/a	REC_WORD	639417	wordpools/wasnorm_wordpool.txt	LTP079	ltpFR	10	5	0	REPORT	1184	n/a	n/a	0	n/a	0	0	0	n/a	n/a	n/a	n/a	n/a
1280.336	n/a	REC_WORD	640168	wordpools/wasnorm_wordpool.txt	LTP079	ltpFR	10	5	1	PAD	998	n/a	n/a	0	n/a	0	0	0	n/a	n/a	n/a	n/a	n/a
1281.726	n/a	REC_WORD	640863	wordpools/wasnorm_wordpool.txt	LTP079	ltpFR	10	5	1	NIGHTGOWN	953	n/a	n/a	0	n/a	0	0	0	n/a	n/a	n/a	n/a	n/a
1283.234	n/a	REC_WORD	641617	wordpools/wasnorm_wordpool.txt	LTP079	ltpFR	10	5	0	QUILT	1151	n/a	n/a	0	n/a	0	0	0	n/a	n/a	n/a	n/a	n/a
1309.586	n/a	REC_WORD	654793	wordpools/wasnorm_wordpool.txt	LTP079	ltpFR	10	5	1	SPIDER	1351	n/a	n/a	1	n/a	0	0	0	n/a	n/a	n/a	n/a	n/a
1313.472	n/a	REC_WORD	656736	wordpools/wasnorm_wordpool.txt	LTP079	ltpFR	10	5	1	TURNIP	1521	n/a	n/a	0	n/a	0	0	0	n/a	n/a	n/a	n/a	n/a
1315.696	n/a	REC_WORD	657848	wordpools/wasnorm_wordpool.txt	LTP079	ltpFR	10	5	1	BANQUET	86	n/a	n/a	0	n/a	0	0	0	n/a	n/a	n/a	n/a	n/a
1317.982	n/a	REC_WORD	658991	wordpools/wasnorm_wordpool.txt	LTP079	ltpFR	10	5	0	CASHEW	253	n/a	n/a	0	n/a	0	0	0	n/a	n/a	n/a	n/a	n/a
1322.502	n/a	REC_WORD	661251	wordpools/wasnorm_wordpool.txt	LTP079	ltpFR	10	5	0	COACH	331	n/a	n/a	1	n/a	0	0	0	n/a	n/a	n/a	n/a	n/a
1347.248	n/a	WORD	673624	wordpools/wasnorm_wordpool.txt	LTP079	ltpFR	10	6	0	SPRINKLE	1359	n/a	n/a	0	n/a	0	0	0	0.57763671875	0.412841796875	1	lower	amplitud.ttf
1351.254	n/a	WORD	675627	wordpools/wasnorm_wordpool.txt	LTP079	ltpFR	10	6	0	ANTENNA	28	n/a	n/a	0	n/a	0	0	0	0.57763671875	0.412841796875	1	lower	amplitud.ttf
1355.36	n/a	WORD	677680	wordpools/wasnorm_wordpool.txt	LTP079	ltpFR	10	6	0	LITTER	832	n/a	n/a	0	n/a	0	0	0	0.57763671875	0.412841796875	1	lower	amplitud.ttf
1359.5	n/a	WORD	679750	wordpools/wasnorm_wordpool.txt	LTP079	ltpFR	10	6	0	DOLL	481	n/a	n/a	0	n/a	0	0	0	0.57763671875	0.412841796875	1	lower	amplitud.ttf
1363.4	n/a	WORD	681700	wordpools/wasnorm_wordpool.txt	LTP079	ltpFR	10	6	0	TANK	1432	n/a	n/a	1	n/a	0	0	0	0.57763671875	0.412841796875	1	lower	amplitud.ttf
1367.274	n/a	WORD	683637	wordpools/wasnorm_wordpool.txt	LTP079	ltpFR	10	6	0	CORK	380	n/a	n/a	0	n/a	0	0	0	0.57763671875	0.412841796875	1	lower	amplitud.ttf
1371.33	n/a	WORD	685665	wordpools/wasnorm_wordpool.txt	LTP079	ltpFR	10	6	0	WIRE	1616	n/a	n/a	0	n/a	0	0	0	0.57763671875	0.412841796875	1	lower	amplitud.ttf
1375.47	n/a	WORD	687735	wordpools/wasnorm_wordpool.txt	LTP079	ltpFR	10	6	0	SAPPHIRE	1234	n/a	n/a	0	n/a	0	0	0	0.57763671875	0.412841796875	1	lower	amplitud.ttf
1379.596	n/a	WORD	689798	wordpools/wasnorm_wordpool.txt	LTP079	ltpFR	10	6	0	EMERALD	528	n/a	n/a	0	n/a	0	0	0	0.57763671875	0.412841796875	1	lower	amplitud.ttf
1383.628	n/a	WORD	691814	wordpools/wasnorm_wordpool.txt	LTP079	ltpFR	10	6	0	CAT	257	n/a	n/a	0	n/a	0	0	0	0.57763671875	0.412841796875	1	lower	amplitud.ttf
1387.718	n/a	WORD	693859	wordpools/wasnorm_wordpool.txt	LTP079	ltpFR	10	6	0	DUMP	505	n/a	n/a	1	n/a	0	0	0	0.57763671875	0.412841796875	1	lower	amplitud.ttf
1391.734	n/a	WORD	695867	wordpools/wasnorm_wordpool.txt	LTP079	ltpFR	10	6	0	FIN	566	n/a	n/a	0	n/a	0	0	0	0.57763671875	0.412841796875	1	lower	amplitud.ttf
1395.74	n/a	WORD	697870	wordpools/wasnorm_wordpool.txt	LTP079	ltpFR	10	6	0	BODY	145	n/a	n/a	1	n/a	0	0	0	0.57763671875	0.412841796875	1	lower	amplitud.ttf
1399.64	n/a	WORD	699820	wordpools/wasnorm_wordpool.txt	LTP079	ltpFR	10	6	0	KIDNEY	776	n/a	n/a	0	n/a	0	0	0	0.57763671875	0.412841796875	1	lower	amplitud.ttf
1403.572	n/a	WORD	701786	wordpools/wasnorm_wordpool.txt	LTP079	ltpFR	10	6	0	VAN	1548	n/a	n/a	1	n/a	0	0	0	0.57763671875	0.412841796875	1	lower	amplitud.ttf
1407.47	n/a	WORD	703735	wordpools/wasnorm_wordpool.txt	LTP079	ltpFR	10	6	0	GIRL	637	n/a	n/a	1	n/a	0	0	0	0.57763671875	0.412841796875	1	lower	amplitud.ttf
1410.478	n/a	START	705239	n/a	LTP079	ltpFR	10	n/a	n/a	n/a	n/a	n/a	n/a	n/a	n/a	n/a	n/a	n/a	n/a	n/a	n/a	n/a	n/a
1411.444	n/a	PROB	705722	n/a	LTP079	ltpFR	10	n/a	n/a	n/a	n/a	n/a	n/a	n/a	18	4	5	9	n/a	n/a	n/a	n/a	n/a
1413.36	n/a	PROB	706680	n/a	LTP079	ltpFR	10	n/a	n/a	n/a	n/a	n/a	n/a	n/a	8	5	2	1	n/a	n/a	n/a	n/a	n/a
1414.334	n/a	PROB	707167	n/a	LTP079	ltpFR	10	n/a	n/a	n/a	n/a	n/a	n/a	n/a	14	3	5	6	n/a	n/a	n/a	n/a	n/a
1416.168	n/a	PROB	708084	n/a	LTP079	ltpFR	10	n/a	n/a	n/a	n/a	n/a	n/a	n/a	22	5	9	8	n/a	n/a	n/a	n/a	n/a
1418.266	n/a	PROB	709133	n/a	LTP079	ltpFR	10	n/a	n/a	n/a	n/a	n/a	n/a	n/a	16	2	6	8	n/a	n/a	n/a	n/a	n/a
1419.574	n/a	PROB	709787	n/a	LTP079	ltpFR	10	n/a	n/a	n/a	n/a	n/a	n/a	n/a	14	9	2	3	n/a	n/a	n/a	n/a	n/a
1420.932	n/a	PROB	710466	n/a	LTP079	ltpFR	10	n/a	n/a	n/a	n/a	n/a	n/a	n/a	19	6	5	8	n/a	n/a	n/a	n/a	n/a
1422.158	n/a	PROB	711079	n/a	LTP079	ltpFR	10	n/a	n/a	n/a	n/a	n/a	n/a	n/a	18	7	9	2	n/a	n/a	n/a	n/a	n/a
1423.64	n/a	PROB	711820	n/a	LTP079	ltpFR	10	n/a	n/a	n/a	n/a	n/a	n/a	n/a	21	7	8	6	n/a	n/a	n/a	n/a	n/a
1425.208	n/a	STOP	712604	n/a	LTP079	ltpFR	10	n/a	n/a	n/a	n/a	n/a	n/a	n/a	n/a	n/a	n/a	n/a	n/a	n/a	n/a	n/a	n/a
1428.282	n/a	REC_START	714141	n/a	LTP079	ltpFR	10	6	n/a	n/a	n/a	n/a	n/a	n/a	n/a	0	0	0	n/a	n/a	n/a	n/a	n/a
1429.848	n/a	REC_WORD	714924	wordpools/wasnorm_wordpool.txt	LTP079	ltpFR	10	6	0	GIRL	637	n/a	n/a	1	n/a	0	0	0	n/a	n/a	n/a	n/a	n/a
1431.124	n/a	REC_WORD	715562	wordpools/wasnorm_wordpool.txt	LTP079	ltpFR	10	6	0	VAN	1548	n/a	n/a	1	n/a	0	0	0	n/a	n/a	n/a	n/a	n/a
1432.712	n/a	REC_WORD	716356	wordpools/wasnorm_wordpool.txt	LTP079	ltpFR	10	6	0	BODY	145	n/a	n/a	1	n/a	0	0	0	n/a	n/a	n/a	n/a	n/a
1433.974	n/a	REC_WORD	716987	wordpools/wasnorm_wordpool.txt	LTP079	ltpFR	10	6	0	FIN	566	n/a	n/a	0	n/a	0	0	0	n/a	n/a	n/a	n/a	n/a
1435.554	n/a	REC_WORD	717777	wordpools/wasnorm_wordpool.txt	LTP079	ltpFR	10	6	0	DUMP	505	n/a	n/a	1	n/a	0	0	0	n/a	n/a	n/a	n/a	n/a
1437.072	n/a	REC_WORD	718536	wordpools/wasnorm_wordpool.txt	LTP079	ltpFR	10	6	0	CAT	257	n/a	n/a	0	n/a	0	0	0	n/a	n/a	n/a	n/a	n/a
1438.538	n/a	REC_WORD	719269	wordpools/wasnorm_wordpool.txt	LTP079	ltpFR	10	6	0	EMERALD	528	n/a	n/a	0	n/a	0	0	0	n/a	n/a	n/a	n/a	n/a
1439.78	n/a	REC_WORD	719890	wordpools/wasnorm_wordpool.txt	LTP079	ltpFR	10	6	0	SAPPHIRE	1234	n/a	n/a	0	n/a	0	0	0	n/a	n/a	n/a	n/a	n/a
1441.616	n/a	REC_WORD	720808	wordpools/wasnorm_wordpool.txt	LTP079	ltpFR	10	6	0	WIRE	1616	n/a	n/a	0	n/a	0	0	0	n/a	n/a	n/a	n/a	n/a
1444.072	n/a	REC_WORD	722036	wordpools/wasnorm_wordpool.txt	LTP079	ltpFR	10	6	0	CORK	380	n/a	n/a	0	n/a	0	0	0	n/a	n/a	n/a	n/a	n/a
1445.582	n/a	REC_WORD	722791	wordpools/wasnorm_wordpool.txt	LTP079	ltpFR	10	6	0	TANK	1432	n/a	n/a	1	n/a	0	0	0	n/a	n/a	n/a	n/a	n/a
1446.95	n/a	REC_WORD	723475	wordpools/wasnorm_wordpool.txt	LTP079	ltpFR	10	6	0	DOLL	481	n/a	n/a	0	n/a	0	0	0	n/a	n/a	n/a	n/a	n/a
1448.386	n/a	REC_WORD	724193	wordpools/wasnorm_wordpool.txt	LTP079	ltpFR	10	6	0	LITTER	832	n/a	n/a	0	n/a	0	0	0	n/a	n/a	n/a	n/a	n/a
1450.642	n/a	REC_WORD	725321	wordpools/wasnorm_wordpool.txt	LTP079	ltpFR	10	6	0	ANTENNA	28	n/a	n/a	0	n/a	0	0	0	n/a	n/a	n/a	n/a	n/a
1451.922	n/a	REC_WORD	725961	wordpools/wasnorm_wordpool.txt	LTP079	ltpFR	10	6	0	SPRINKLE	1359	n/a	n/a	0	n/a	0	0	0	n/a	n/a	n/a	n/a	n/a
1507.19	n/a	START	753595	n/a	LTP079	ltpFR	10	n/a	n/a	n/a	n/a	n/a	n/a	n/a	n/a	n/a	n/a	n/a	n/a	n/a	n/a	n/a	n/a
1508.698	n/a	PROB	754349	n/a	LTP079	ltpFR	10	n/a	n/a	n/a	n/a	n/a	n/a	n/a	13	4	8	1	n/a	n/a	n/a	n/a	n/a
1511.114	n/a	PROB	755557	n/a	LTP079	ltpFR	10	n/a	n/a	n/a	n/a	n/a	n/a	n/a	17	2	6	9	n/a	n/a	n/a	n/a	n/a
1512.63	n/a	PROB	756315	n/a	LTP079	ltpFR	10	n/a	n/a	n/a	n/a	n/a	n/a	n/a	13	1	4	8	n/a	n/a	n/a	n/a	n/a
1513.546	n/a	PROB	756773	n/a	LTP079	ltpFR	10	n/a	n/a	n/a	n/a	n/a	n/a	n/a	15	8	6	1	n/a	n/a	n/a	n/a	n/a
1514.762	n/a	PROB	757381	n/a	LTP079	ltpFR	10	n/a	n/a	n/a	n/a	n/a	n/a	n/a	14	3	7	4	n/a	n/a	n/a	n/a	n/a
1516.42	n/a	PROB	758210	n/a	LTP079	ltpFR	10	n/a	n/a	n/a	n/a	n/a	n/a	n/a	14	8	2	4	n/a	n/a	n/a	n/a	n/a
1517.704	n/a	PROB	758852	n/a	LTP079	ltpFR	10	n/a	n/a	n/a	n/a	n/a	n/a	n/a	12	9	2	1	n/a	n/a	n/a	n/a	n/a
1519.044	n/a	PROB	759522	n/a	LTP079	ltpFR	10	n/a	n/a	n/a	n/a	n/a	n/a	n/a	6	2	1	3	n/a	n/a	n/a	n/a	n/a
1519.896	n/a	PROB	759948	n/a	LTP079	ltpFR	10	n/a	n/a	n/a	n/a	n/a	n/a	n/a	19	3	9	7	n/a	n/a	n/a	n/a	n/a
1520.878	n/a	PROB	760439	n/a	LTP079	ltpFR	10	n/a	n/a	n/a	n/a	n/a	n/a	n/a	10	1	3	6	n/a	n/a	n/a	n/a	n/a
1521.79	n/a	STOP	760895	n/a	LTP079	ltpFR	10	n/a	n/a	n/a	n/a	n/a	n/a	n/a	n/a	n/a	n/a	n/a	n/a	n/a	n/a	n/a	n/a
1524.002	n/a	WORD	762001	wordpools/wasnorm_wordpool.txt	LTP079	ltpFR	10	7	0	PICK	1058	n/a	n/a	0	n/a	0	0	0	0.57763671875	0.412841796875	1	lower	amplitud.ttf
1527.01	n/a	START	763505	n/a	LTP079	ltpFR	10	n/a	n/a	n/a	n/a	n/a	n/a	n/a	n/a	n/a	n/a	n/a	n/a	n/a	n/a	n/a	n/a
1527.968	n/a	PROB	763984	n/a	LTP079	ltpFR	10	n/a	n/a	n/a	n/a	n/a	n/a	n/a	7	5	1	1	n/a	n/a	n/a	n/a	n/a
1528.876	n/a	PROB	764438	n/a	LTP079	ltpFR	10	n/a	n/a	n/a	n/a	n/a	n/a	n/a	19	8	9	2	n/a	n/a	n/a	n/a	n/a
1530.15	n/a	PROB	765075	n/a	LTP079	ltpFR	10	n/a	n/a	n/a	n/a	n/a	n/a	n/a	12	7	2	3	n/a	n/a	n/a	n/a	n/a
1531.866	n/a	PROB	765933	n/a	LTP079	ltpFR	10	n/a	n/a	n/a	n/a	n/a	n/a	n/a	14	1	6	7	n/a	n/a	n/a	n/a	n/a
1532.882	n/a	PROB	766441	n/a	LTP079	ltpFR	10	n/a	n/a	n/a	n/a	n/a	n/a	n/a	14	5	2	7	n/a	n/a	n/a	n/a	n/a
1534.38	n/a	PROB	767190	n/a	LTP079	ltpFR	10	n/a	n/a	n/a	n/a	n/a	n/a	n/a	17	5	6	4	n/a	n/a	n/a	n/a	n/a
1536.33	n/a	PROB	768165	n/a	LTP079	ltpFR	10	n/a	n/a	n/a	n/a	n/a	n/a	n/a	13	2	6	5	n/a	n/a	n/a	n/a	n/a
1538.164	n/a	PROB	769082	n/a	LTP079	ltpFR	10	n/a	n/a	n/a	n/a	n/a	n/a	n/a	10	5	3	2	n/a	n/a	n/a	n/a	n/a
1539.08	n/a	PROB	769540	n/a	LTP079	ltpFR	10	n/a	n/a	n/a	n/a	n/a	n/a	n/a	12	4	7	1	n/a	n/a	n/a	n/a	n/a
1541.08	n/a	PROB	770540	n/a	LTP079	ltpFR	10	n/a	n/a	n/a	n/a	n/a	n/a	n/a	17	5	3	9	n/a	n/a	n/a	n/a	n/a
1542.31	n/a	STOP	771155	n/a	LTP079	ltpFR	10	n/a	n/a	n/a	n/a	n/a	n/a	n/a	n/a	n/a	n/a	n/a	n/a	n/a	n/a	n/a	n/a
1544.07	n/a	WORD	772035	wordpools/wasnorm_wordpool.txt	LTP079	ltpFR	10	7	0	FURNITURE	616	n/a	n/a	1	n/a	0	0	0	0.57763671875	0.412841796875	1	lower	amplitud.ttf
1547.078	n/a	START	773539	n/a	LTP079	ltpFR	10	n/a	n/a	n/a	n/a	n/a	n/a	n/a	n/a	n/a	n/a	n/a	n/a	n/a	n/a	n/a	n/a
1547.994	n/a	PROB	773997	n/a	LTP079	ltpFR	10	n/a	n/a	n/a	n/a	n/a	n/a	n/a	15	3	9	3	n/a	n/a	n/a	n/a	n/a
1548.952	n/a	PROB	774476	n/a	LTP079	ltpFR	10	n/a	n/a	n/a	n/a	n/a	n/a	n/a	24	9	6	9	n/a	n/a	n/a	n/a	n/a
1550.368	n/a	PROB	775184	n/a	LTP079	ltpFR	10	n/a	n/a	n/a	n/a	n/a	n/a	n/a	3	1	1	1	n/a	n/a	n/a	n/a	n/a
1551.202	n/a	PROB	775601	n/a	LTP079	ltpFR	10	n/a	n/a	n/a	n/a	n/a	n/a	n/a	20	9	6	5	n/a	n/a	n/a	n/a	n/a
1552.492	n/a	PROB	776246	n/a	LTP079	ltpFR	10	n/a	n/a	n/a	n/a	n/a	n/a	n/a	14	6	1	7	n/a	n/a	n/a	n/a	n/a
1553.584	n/a	PROB	776792	n/a	LTP079	ltpFR	10	n/a	n/a	n/a	n/a	n/a	n/a	n/a	17	6	4	7	n/a	n/a	n/a	n/a	n/a
1554.808	n/a	PROB	777404	n/a	LTP079	ltpFR	10	n/a	n/a	n/a	n/a	n/a	n/a	n/a	8	4	3	1	n/a	n/a	n/a	n/a	n/a
1555.684	n/a	PROB	777842	n/a	LTP079	ltpFR	10	n/a	n/a	n/a	n/a	n/a	n/a	n/a	17	8	5	4	n/a	n/a	n/a	n/a	n/a
1556.942	n/a	PROB	778471	n/a	LTP079	ltpFR	10	n/a	n/a	n/a	n/a	n/a	n/a	n/a	17	1	8	8	n/a	n/a	n/a	n/a	n/a
1558.09	n/a	PROB	779045	n/a	LTP079	ltpFR	10	n/a	n/a	n/a	n/a	n/a	n/a	n/a	12	1	6	5	n/a	n/a	n/a	n/a	n/a
1559.166	n/a	PROB	779583	n/a	LTP079	ltpFR	10	n/a	n/a	n/a	n/a	n/a	n/a	n/a	19	8	6	5	n/a	n/a	n/a	n/a	n/a
1560.582	n/a	PROB	780291	n/a	LTP079	ltpFR	10	n/a	n/a	n/a	n/a	n/a	n/a	n/a	25	8	8	9	n/a	n/a	n/a	n/a	n/a
1562.272	n/a	STOP	781136	n/a	LTP079	ltpFR	10	n/a	n/a	n/a	n/a	n/a	n/a	n/a	n/a	n/a	n/a	n/a	n/a	n/a	n/a	n/a	n/a
1564.248	n/a	WORD	782124	wordpools/wasnorm_wordpool.txt	LTP079	ltpFR	10	7	0	BLOUSE	139	n/a	n/a	0	n/a	0	0	0	0.57763671875	0.412841796875	1	lower	amplitud.ttf
1567.256	n/a	START	783628	n/a	LTP079	ltpFR	10	n/a	n/a	n/a	n/a	n/a	n/a	n/a	n/a	n/a	n/a	n/a	n/a	n/a	n/a	n/a	n/a
1568.188	n/a	PROB	784094	n/a	LTP079	ltpFR	10	n/a	n/a	n/a	n/a	n/a	n/a	n/a	21	9	3	9	n/a	n/a	n/a	n/a	n/a
1569.346	n/a	PROB	784673	n/a	LTP079	ltpFR	10	n/a	n/a	n/a	n/a	n/a	n/a	n/a	15	2	7	6	n/a	n/a	n/a	n/a	n/a
1570.688	n/a	PROB	785344	n/a	LTP079	ltpFR	10	n/a	n/a	n/a	n/a	n/a	n/a	n/a	14	2	3	9	n/a	n/a	n/a	n/a	n/a
1571.836	n/a	PROB	785918	n/a	LTP079	ltpFR	10	n/a	n/a	n/a	n/a	n/a	n/a	n/a	18	9	5	4	n/a	n/a	n/a	n/a	n/a
1572.854	n/a	PROB	786427	n/a	LTP079	ltpFR	10	n/a	n/a	n/a	n/a	n/a	n/a	n/a	20	9	8	3	n/a	n/a	n/a	n/a	n/a
1574.828	n/a	PROB	787414	n/a	LTP079	ltpFR	10	n/a	n/a	n/a	n/a	n/a	n/a	n/a	13	8	4	1	n/a	n/a	n/a	n/a	n/a
1575.794	n/a	PROB	787897	n/a	LTP079	ltpFR	10	n/a	n/a	n/a	n/a	n/a	n/a	n/a	20	8	4	8	n/a	n/a	n/a	n/a	n/a
1576.936	n/a	PROB	788468	n/a	LTP079	ltpFR	10	n/a	n/a	n/a	n/a	n/a	n/a	n/a	15	4	4	7	n/a	n/a	n/a	n/a	n/a
1577.926	n/a	PROB	788963	n/a	LTP079	ltpFR	10	n/a	n/a	n/a	n/a	n/a	n/a	n/a	16	7	4	5	n/a	n/a	n/a	n/a	n/a
1579.51	n/a	PROB	789755	n/a	LTP079	ltpFR	10	n/a	n/a	n/a	n/a	n/a	n/a	n/a	10	4	2	4	n/a	n/a	n/a	n/a	n/a
1580.884	n/a	PROB	790442	n/a	LTP079	ltpFR	10	n/a	n/a	n/a	n/a	n/a	n/a	n/a	14	9	4	1	n/a	n/a	n/a	n/a	n/a
1582.848	n/a	STOP	791424	n/a	LTP079	ltpFR	10	n/a	n/a	n/a	n/a	n/a	n/a	n/a	n/a	n/a	n/a	n/a	n/a	n/a	n/a	n/a	n/a
1584.382	n/a	WORD	792191	wordpools/wasnorm_wordpool.txt	LTP079	ltpFR	10	7	0	SWEATER	1419	n/a	n/a	0	n/a	0	0	0	0.57763671875	0.412841796875	1	lower	amplitud.ttf
1587.39	n/a	START	793695	n/a	LTP079	ltpFR	10	n/a	n/a	n/a	n/a	n/a	n/a	n/a	n/a	n/a	n/a	n/a	n/a	n/a	n/a	n/a	n/a
1588.422	n/a	PROB	794211	n/a	LTP079	ltpFR	10	n/a	n/a	n/a	n/a	n/a	n/a	n/a	15	9	2	4	n/a	n/a	n/a	n/a	n/a
1589.498	n/a	PROB	794749	n/a	LTP079	ltpFR	10	n/a	n/a	n/a	n/a	n/a	n/a	n/a	15	8	2	5	n/a	n/a	n/a	n/a	n/a
1590.656	n/a	PROB	795328	n/a	LTP079	ltpFR	10	n/a	n/a	n/a	n/a	n/a	n/a	n/a	19	8	5	6	n/a	n/a	n/a	n/a	n/a
1591.79	n/a	PROB	795895	n/a	LTP079	ltpFR	10	n/a	n/a	n/a	n/a	n/a	n/a	n/a	22	9	4	9	n/a	n/a	n/a	n/a	n/a
1593.306	n/a	PROB	796653	n/a	LTP079	ltpFR	10	n/a	n/a	n/a	n/a	n/a	n/a	n/a	22	5	8	9	n/a	n/a	n/a	n/a	n/a
1595.096	n/a	PROB	797548	n/a	LTP079	ltpFR	10	n/a	n/a	n/a	n/a	n/a	n/a	n/a	21	5	8	8	n/a	n/a	n/a	n/a	n/a
1596.42	n/a	PROB	798210	n/a	LTP079	ltpFR	10	n/a	n/a	n/a	n/a	n/a	n/a	n/a	16	7	7	2	n/a	n/a	n/a	n/a	n/a
1597.42	n/a	PROB	798710	n/a	LTP079	ltpFR	10	n/a	n/a	n/a	n/a	n/a	n/a	n/a	8	4	3	1	n/a	n/a	n/a	n/a	n/a
1598.322	n/a	PROB	799161	n/a	LTP079	ltpFR	10	n/a	n/a	n/a	n/a	n/a	n/a	n/a	12	2	3	7	n/a	n/a	n/a	n/a	n/a
1600.12	n/a	PROB	800060	n/a	LTP079	ltpFR	10	n/a	n/a	n/a	n/a	n/a	n/a	n/a	18	5	9	4	n/a	n/a	n/a	n/a	n/a
1601.196	n/a	PROB	800598	n/a	LTP079	ltpFR	10	n/a	n/a	n/a	n/a	n/a	n/a	n/a	15	7	7	1	n/a	n/a	n/a	n/a	n/a
1602.026	n/a	STOP	801013	n/a	LTP079	ltpFR	10	n/a	n/a	n/a	n/a	n/a	n/a	n/a	n/a	n/a	n/a	n/a	n/a	n/a	n/a	n/a	n/a
1604.542	n/a	WORD	802271	wordpools/wasnorm_wordpool.txt	LTP079	ltpFR	10	7	0	TRAY	1498	n/a	n/a	0	n/a	0	0	0	0.57763671875	0.412841796875	1	lower	amplitud.ttf
1607.55	n/a	START	803775	n/a	LTP079	ltpFR	10	n/a	n/a	n/a	n/a	n/a	n/a	n/a	n/a	n/a	n/a	n/a	n/a	n/a	n/a	n/a	n/a
1608.424	n/a	PROB	804212	n/a	LTP079	ltpFR	10	n/a	n/a	n/a	n/a	n/a	n/a	n/a	24	9	6	9	n/a	n/a	n/a	n/a	n/a
1609.808	n/a	PROB	804904	n/a	LTP079	ltpFR	10	n/a	n/a	n/a	n/a	n/a	n/a	n/a	21	9	9	3	n/a	n/a	n/a	n/a	n/a
1611.058	n/a	PROB	805529	n/a	LTP079	ltpFR	10	n/a	n/a	n/a	n/a	n/a	n/a	n/a	11	4	2	5	n/a	n/a	n/a	n/a	n/a
1612.074	n/a	PROB	806037	n/a	LTP079	ltpFR	10	n/a	n/a	n/a	n/a	n/a	n/a	n/a	12	7	2	3	n/a	n/a	n/a	n/a	n/a
1614.098	n/a	PROB	807049	n/a	LTP079	ltpFR	10	n/a	n/a	n/a	n/a	n/a	n/a	n/a	12	8	1	3	n/a	n/a	n/a	n/a	n/a
1615.24	n/a	PROB	807620	n/a	LTP079	ltpFR	10	n/a	n/a	n/a	n/a	n/a	n/a	n/a	22	7	6	9	n/a	n/a	n/a	n/a	n/a
1617.522	n/a	PROB	808761	n/a	LTP079	ltpFR	10	n/a	n/a	n/a	n/a	n/a	n/a	n/a	27	9	9	9	n/a	n/a	n/a	n/a	n/a
1618.648	n/a	PROB	809324	n/a	LTP079	ltpFR	10	n/a	n/a	n/a	n/a	n/a	n/a	n/a	16	3	9	4	n/a	n/a	n/a	n/a	n/a
1619.714	n/a	PROB	809857	n/a	LTP079	ltpFR	10	n/a	n/a	n/a	n/a	n/a	n/a	n/a	9	2	2	5	n/a	n/a	n/a	n/a	n/a
1620.656	n/a	PROB	810328	n/a	LTP079	ltpFR	10	n/a	n/a	n/a	n/a	n/a	n/a	n/a	17	8	2	7	n/a	n/a	n/a	n/a	n/a
1622.442	n/a	STOP	811221	n/a	LTP079	ltpFR	10	n/a	n/a	n/a	n/a	n/a	n/a	n/a	n/a	n/a	n/a	n/a	n/a	n/a	n/a	n/a	n/a
1624.722	n/a	WORD	812361	wordpools/wasnorm_wordpool.txt	LTP079	ltpFR	10	7	0	SNACK	1331	n/a	n/a	0	n/a	0	0	0	0.57763671875	0.412841796875	1	lower	amplitud.ttf
1627.728	n/a	START	813864	n/a	LTP079	ltpFR	10	n/a	n/a	n/a	n/a	n/a	n/a	n/a	n/a	n/a	n/a	n/a	n/a	n/a	n/a	n/a	n/a
1628.902	n/a	PROB	814451	n/a	LTP079	ltpFR	10	n/a	n/a	n/a	n/a	n/a	n/a	n/a	16	3	9	4	n/a	n/a	n/a	n/a	n/a
1629.986	n/a	PROB	814993	n/a	LTP079	ltpFR	10	n/a	n/a	n/a	n/a	n/a	n/a	n/a	14	8	4	2	n/a	n/a	n/a	n/a	n/a
1631.802	n/a	PROB	815901	n/a	LTP079	ltpFR	10	n/a	n/a	n/a	n/a	n/a	n/a	n/a	18	7	2	9	n/a	n/a	n/a	n/a	n/a
1633.484	n/a	PROB	816742	n/a	LTP079	ltpFR	10	n/a	n/a	n/a	n/a	n/a	n/a	n/a	22	7	9	6	n/a	n/a	n/a	n/a	n/a
1635.018	n/a	PROB	817509	n/a	LTP079	ltpFR	10	n/a	n/a	n/a	n/a	n/a	n/a	n/a	19	5	8	6	n/a	n/a	n/a	n/a	n/a
1637.234	n/a	PROB	818617	n/a	LTP079	ltpFR	10	n/a	n/a	n/a	n/a	n/a	n/a	n/a	16	6	9	1	n/a	n/a	n/a	n/a	n/a
1638.5	n/a	PROB	819250	n/a	LTP079	ltpFR	10	n/a	n/a	n/a	n/a	n/a	n/a	n/a	11	2	3	6	n/a	n/a	n/a	n/a	n/a
1639.432	n/a	PROB	819716	n/a	LTP079	ltpFR	10	n/a	n/a	n/a	n/a	n/a	n/a	n/a	14	4	4	6	n/a	n/a	n/a	n/a	n/a
1642.676	n/a	STOP	821338	n/a	LTP079	ltpFR	10	n/a	n/a	n/a	n/a	n/a	n/a	n/a	n/a	n/a	n/a	n/a	n/a	n/a	n/a	n/a	n/a
1644.59	n/a	WORD	822295	wordpools/wasnorm_wordpool.txt	LTP079	ltpFR	10	7	0	MUMMY	932	n/a	n/a	1	n/a	0	0	0	0.57763671875	0.412841796875	1	lower	amplitud.ttf
1647.598	n/a	START	823799	n/a	LTP079	ltpFR	10	n/a	n/a	n/a	n/a	n/a	n/a	n/a	n/a	n/a	n/a	n/a	n/a	n/a	n/a	n/a	n/a
1648.664	n/a	PROB	824332	n/a	LTP079	ltpFR	10	n/a	n/a	n/a	n/a	n/a	n/a	n/a	16	6	3	7	n/a	n/a	n/a	n/a	n/a
1650.296	n/a	PROB	825148	n/a	LTP079	ltpFR	10	n/a	n/a	n/a	n/a	n/a	n/a	n/a	16	5	2	9	n/a	n/a	n/a	n/a	n/a
1652.054	n/a	PROB	826027	n/a	LTP079	ltpFR	10	n/a	n/a	n/a	n/a	n/a	n/a	n/a	21	7	9	5	n/a	n/a	n/a	n/a	n/a
1653.352	n/a	PROB	826676	n/a	LTP079	ltpFR	10	n/a	n/a	n/a	n/a	n/a	n/a	n/a	11	3	1	7	n/a	n/a	n/a	n/a	n/a
1654.728	n/a	PROB	827364	n/a	LTP079	ltpFR	10	n/a	n/a	n/a	n/a	n/a	n/a	n/a	19	3	9	7	n/a	n/a	n/a	n/a	n/a
1657.46	n/a	PROB	828730	n/a	LTP079	ltpFR	10	n/a	n/a	n/a	n/a	n/a	n/a	n/a	19	5	9	5	n/a	n/a	n/a	n/a	n/a
1658.352	n/a	PROB	829176	n/a	LTP079	ltpFR	10	n/a	n/a	n/a	n/a	n/a	n/a	n/a	16	6	6	4	n/a	n/a	n/a	n/a	n/a
1659.76	n/a	PROB	829880	n/a	LTP079	ltpFR	10	n/a	n/a	n/a	n/a	n/a	n/a	n/a	8	6	1	1	n/a	n/a	n/a	n/a	n/a
1660.644	n/a	PROB	830322	n/a	LTP079	ltpFR	10	n/a	n/a	n/a	n/a	n/a	n/a	n/a	14	4	5	5	n/a	n/a	n/a	n/a	n/a
1662.06	n/a	STOP	831030	n/a	LTP079	ltpFR	10	n/a	n/a	n/a	n/a	n/a	n/a	n/a	n/a	n/a	n/a	n/a	n/a	n/a	n/a	n/a	n/a
1664.8	n/a	WORD	832400	wordpools/wasnorm_wordpool.txt	LTP079	ltpFR	10	7	0	CABIN	211	n/a	n/a	1	n/a	0	0	0	0.57763671875	0.412841796875	1	lower	amplitud.ttf
1667.808	n/a	START	833904	n/a	LTP079	ltpFR	10	n/a	n/a	n/a	n/a	n/a	n/a	n/a	n/a	n/a	n/a	n/a	n/a	n/a	n/a	n/a	n/a
1668.624	n/a	PROB	834312	n/a	LTP079	ltpFR	10	n/a	n/a	n/a	n/a	n/a	n/a	n/a	7	1	4	2	n/a	n/a	n/a	n/a	n/a
1669.456	n/a	PROB	834728	n/a	LTP079	ltpFR	10	n/a	n/a	n/a	n/a	n/a	n/a	n/a	10	2	2	6	n/a	n/a	n/a	n/a	n/a
1670.44	n/a	PROB	835220	n/a	LTP079	ltpFR	10	n/a	n/a	n/a	n/a	n/a	n/a	n/a	18	4	5	9	n/a	n/a	n/a	n/a	n/a
1671.832	n/a	PROB	835916	n/a	LTP079	ltpFR	10	n/a	n/a	n/a	n/a	n/a	n/a	n/a	18	6	8	4	n/a	n/a	n/a	n/a	n/a
1673.53	n/a	PROB	836765	n/a	LTP079	ltpFR	10	n/a	n/a	n/a	n/a	n/a	n/a	n/a	17	6	8	3	n/a	n/a	n/a	n/a	n/a
1675.148	n/a	PROB	837574	n/a	LTP079	ltpFR	10	n/a	n/a	n/a	n/a	n/a	n/a	n/a	12	6	1	5	n/a	n/a	n/a	n/a	n/a
1676.09	n/a	PROB	838045	n/a	LTP079	ltpFR	10	n/a	n/a	n/a	n/a	n/a	n/a	n/a	17	6	9	2	n/a	n/a	n/a	n/a	n/a
1677.388	n/a	PROB	838694	n/a	LTP079	ltpFR	10	n/a	n/a	n/a	n/a	n/a	n/a	n/a	9	5	2	2	n/a	n/a	n/a	n/a	n/a
1678.256	n/a	PROB	839128	n/a	LTP079	ltpFR	10	n/a	n/a	n/a	n/a	n/a	n/a	n/a	20	9	9	2	n/a	n/a	n/a	n/a	n/a
1679.696	n/a	PROB	839848	n/a	LTP079	ltpFR	10	n/a	n/a	n/a	n/a	n/a	n/a	n/a	9	3	3	3	n/a	n/a	n/a	n/a	n/a
1680.504	n/a	PROB	840252	n/a	LTP079	ltpFR	10	n/a	n/a	n/a	n/a	n/a	n/a	n/a	17	5	5	7	n/a	n/a	n/a	n/a	n/a
1681.628	n/a	PROB	840814	n/a	LTP079	ltpFR	10	n/a	n/a	n/a	n/a	n/a	n/a	n/a	19	7	4	8	n/a	n/a	n/a	n/a	n/a
1682.782	n/a	STOP	841391	n/a	LTP079	ltpFR	10	n/a	n/a	n/a	n/a	n/a	n/a	n/a	n/a	n/a	n/a	n/a	n/a	n/a	n/a	n/a	n/a
1684.678	n/a	WORD	842339	wordpools/wasnorm_wordpool.txt	LTP079	ltpFR	10	7	0	LOOP	844	n/a	n/a	0	n/a	0	0	0	0.57763671875	0.412841796875	1	lower	amplitud.ttf
1687.686	n/a	START	843843	n/a	LTP079	ltpFR	10	n/a	n/a	n/a	n/a	n/a	n/a	n/a	n/a	n/a	n/a	n/a	n/a	n/a	n/a	n/a	n/a
1688.594	n/a	PROB	844297	n/a	LTP079	ltpFR	10	n/a	n/a	n/a	n/a	n/a	n/a	n/a	16	5	8	3	n/a	n/a	n/a	n/a	n/a
1690.366	n/a	PROB	845183	n/a	LTP079	ltpFR	10	n/a	n/a	n/a	n/a	n/a	n/a	n/a	12	6	1	5	n/a	n/a	n/a	n/a	n/a
1691.218	n/a	PROB	845609	n/a	LTP079	ltpFR	10	n/a	n/a	n/a	n/a	n/a	n/a	n/a	15	5	2	8	n/a	n/a	n/a	n/a	n/a
1692.308	n/a	PROB	846154	n/a	LTP079	ltpFR	10	n/a	n/a	n/a	n/a	n/a	n/a	n/a	4	1	1	2	n/a	n/a	n/a	n/a	n/a
1693.158	n/a	PROB	846579	n/a	LTP079	ltpFR	10	n/a	n/a	n/a	n/a	n/a	n/a	n/a	12	2	1	9	n/a	n/a	n/a	n/a	n/a
1694.174	n/a	PROB	847087	n/a	LTP079	ltpFR	10	n/a	n/a	n/a	n/a	n/a	n/a	n/a	20	7	7	6	n/a	n/a	n/a	n/a	n/a
1695.834	n/a	PROB	847917	n/a	LTP079	ltpFR	10	n/a	n/a	n/a	n/a	n/a	n/a	n/a	5	3	1	1	n/a	n/a	n/a	n/a	n/a
1696.548	n/a	PROB	848274	n/a	LTP079	ltpFR	10	n/a	n/a	n/a	n/a	n/a	n/a	n/a	17	1	7	9	n/a	n/a	n/a	n/a	n/a
1697.758	n/a	PROB	848879	n/a	LTP079	ltpFR	10	n/a	n/a	n/a	n/a	n/a	n/a	n/a	19	8	2	9	n/a	n/a	n/a	n/a	n/a
1698.99	n/a	PROB	849495	n/a	LTP079	ltpFR	10	n/a	n/a	n/a	n/a	n/a	n/a	n/a	19	9	6	4	n/a	n/a	n/a	n/a	n/a
1699.89	n/a	PROB	849945	n/a	LTP079	ltpFR	10	n/a	n/a	n/a	n/a	n/a	n/a	n/a	6	3	1	2	n/a	n/a	n/a	n/a	n/a
1700.656	n/a	PROB	850328	n/a	LTP079	ltpFR	10	n/a	n/a	n/a	n/a	n/a	n/a	n/a	19	8	8	3	n/a	n/a	n/a	n/a	n/a
1702.462	n/a	STOP	851231	n/a	LTP079	ltpFR	10	n/a	n/a	n/a	n/a	n/a	n/a	n/a	n/a	n/a	n/a	n/a	n/a	n/a	n/a	n/a	n/a
1704.688	n/a	WORD	852344	wordpools/wasnorm_wordpool.txt	LTP079	ltpFR	10	7	0	SAGE	1222	n/a	n/a	1	n/a	0	0	0	0.57763671875	0.412841796875	1	lower	amplitud.ttf
1707.696	n/a	START	853848	n/a	LTP079	ltpFR	10	n/a	n/a	n/a	n/a	n/a	n/a	n/a	n/a	n/a	n/a	n/a	n/a	n/a	n/a	n/a	n/a
1708.612	n/a	PROB	854306	n/a	LTP079	ltpFR	10	n/a	n/a	n/a	n/a	n/a	n/a	n/a	17	3	6	8	n/a	n/a	n/a	n/a	n/a
1710.12	n/a	PROB	855060	n/a	LTP079	ltpFR	10	n/a	n/a	n/a	n/a	n/a	n/a	n/a	18	5	4	9	n/a	n/a	n/a	n/a	n/a
1711.294	n/a	PROB	855647	n/a	LTP079	ltpFR	10	n/a	n/a	n/a	n/a	n/a	n/a	n/a	16	8	4	4	n/a	n/a	n/a	n/a	n/a
1712.752	n/a	PROB	856376	n/a	LTP079	ltpFR	10	n/a	n/a	n/a	n/a	n/a	n/a	n/a	16	8	5	3	n/a	n/a	n/a	n/a	n/a
1713.526	n/a	PROB	856763	n/a	LTP079	ltpFR	10	n/a	n/a	n/a	n/a	n/a	n/a	n/a	21	5	7	9	n/a	n/a	n/a	n/a	n/a
1714.76	n/a	PROB	857380	n/a	LTP079	ltpFR	10	n/a	n/a	n/a	n/a	n/a	n/a	n/a	21	7	5	9	n/a	n/a	n/a	n/a	n/a
1715.778	n/a	PROB	857889	n/a	LTP079	ltpFR	10	n/a	n/a	n/a	n/a	n/a	n/a	n/a	2	7	8	5	n/a	n/a	n/a	n/a	n/a
1718.202	n/a	PROB	859101	n/a	LTP079	ltpFR	10	n/a	n/a	n/a	n/a	n/a	n/a	n/a	19	4	7	8	n/a	n/a	n/a	n/a	n/a
1720.284	n/a	PROB	860142	n/a	LTP079	ltpFR	10	n/a	n/a	n/a	n/a	n/a	n/a	n/a	11	3	7	1	n/a	n/a	n/a	n/a	n/a
1721.416	n/a	PROB	860708	n/a	LTP079	ltpFR	10	n/a	n/a	n/a	n/a	n/a	n/a	n/a	13	5	1	7	n/a	n/a	n/a	n/a	n/a
1722.912	n/a	STOP	861456	n/a	LTP079	ltpFR	10	n/a	n/a	n/a	n/a	n/a	n/a	n/a	n/a	n/a	n/a	n/a	n/a	n/a	n/a	n/a	n/a
1724.698	n/a	WORD	862349	wordpools/wasnorm_wordpool.txt	LTP079	ltpFR	10	7	0	ATTIRE	57	n/a	n/a	1	n/a	0	0	0	0.57763671875	0.412841796875	1	lower	amplitud.ttf
1727.706	n/a	START	863853	n/a	LTP079	ltpFR	10	n/a	n/a	n/a	n/a	n/a	n/a	n/a	n/a	n/a	n/a	n/a	n/a	n/a	n/a	n/a	n/a
1728.554	n/a	PROB	864277	n/a	LTP079	ltpFR	10	n/a	n/a	n/a	n/a	n/a	n/a	n/a	16	2	8	6	n/a	n/a	n/a	n/a	n/a
1729.864	n/a	PROB	864932	n/a	LTP079	ltpFR	10	n/a	n/a	n/a	n/a	n/a	n/a	n/a	17	3	6	8	n/a	n/a	n/a	n/a	n/a
1731.638	n/a	PROB	865819	n/a	LTP079	ltpFR	10	n/a	n/a	n/a	n/a	n/a	n/a	n/a	19	1	9	9	n/a	n/a	n/a	n/a	n/a
1732.97	n/a	PROB	866485	n/a	LTP079	ltpFR	10	n/a	n/a	n/a	n/a	n/a	n/a	n/a	14	2	9	3	n/a	n/a	n/a	n/a	n/a
1735.312	n/a	PROB	867656	n/a	LTP079	ltpFR	10	n/a	n/a	n/a	n/a	n/a	n/a	n/a	11	2	4	5	n/a	n/a	n/a	n/a	n/a
1736.32	n/a	PROB	868160	n/a	LTP079	ltpFR	10	n/a	n/a	n/a	n/a	n/a	n/a	n/a	20	9	8	3	n/a	n/a	n/a	n/a	n/a
1737.57	n/a	PROB	868785	n/a	LTP079	ltpFR	10	n/a	n/a	n/a	n/a	n/a	n/a	n/a	13	6	2	5	n/a	n/a	n/a	n/a	n/a
1738.628	n/a	PROB	869314	n/a	LTP079	ltpFR	10	n/a	n/a	n/a	n/a	n/a	n/a	n/a	22	9	9	4	n/a	n/a	n/a	n/a	n/a
1739.752	n/a	PROB	869876	n/a	LTP079	ltpFR	10	n/a	n/a	n/a	n/a	n/a	n/a	n/a	17	3	7	7	n/a	n/a	n/a	n/a	n/a
1741.218	n/a	PROB	870609	n/a	LTP079	ltpFR	10	n/a	n/a	n/a	n/a	n/a	n/a	n/a	21	8	6	7	n/a	n/a	n/a	n/a	n/a
1742.96	n/a	STOP	871480	n/a	LTP079	ltpFR	10	n/a	n/a	n/a	n/a	n/a	n/a	n/a	n/a	n/a	n/a	n/a	n/a	n/a	n/a	n/a	n/a
1744.726	n/a	WORD	872363	wordpools/wasnorm_wordpool.txt	LTP079	ltpFR	10	7	0	PECAN	1036	n/a	n/a	0	n/a	0	0	0	0.57763671875	0.412841796875	1	lower	amplitud.ttf
1747.734	n/a	START	873867	n/a	LTP079	ltpFR	10	n/a	n/a	n/a	n/a	n/a	n/a	n/a	n/a	n/a	n/a	n/a	n/a	n/a	n/a	n/a	n/a
1748.624	n/a	PROB	874312	n/a	LTP079	ltpFR	10	n/a	n/a	n/a	n/a	n/a	n/a	n/a	17	5	8	4	n/a	n/a	n/a	n/a	n/a
1750.524	n/a	PROB	875262	n/a	LTP079	ltpFR	10	n/a	n/a	n/a	n/a	n/a	n/a	n/a	6	1	2	3	n/a	n/a	n/a	n/a	n/a
1751.298	n/a	PROB	875649	n/a	LTP079	ltpFR	10	n/a	n/a	n/a	n/a	n/a	n/a	n/a	9	2	2	5	n/a	n/a	n/a	n/a	n/a
1752.156	n/a	PROB	876078	n/a	LTP079	ltpFR	10	n/a	n/a	n/a	n/a	n/a	n/a	n/a	14	5	4	5	n/a	n/a	n/a	n/a	n/a
1753.266	n/a	PROB	876633	n/a	LTP079	ltpFR	10	n/a	n/a	n/a	n/a	n/a	n/a	n/a	13	6	3	4	n/a	n/a	n/a	n/a	n/a
1754.74	n/a	PROB	877370	n/a	LTP079	ltpFR	10	n/a	n/a	n/a	n/a	n/a	n/a	n/a	21	9	9	3	n/a	n/a	n/a	n/a	n/a
1755.914	n/a	PROB	877957	n/a	LTP079	ltpFR	10	n/a	n/a	n/a	n/a	n/a	n/a	n/a	19	8	5	6	n/a	n/a	n/a	n/a	n/a
1757.064	n/a	PROB	878532	n/a	LTP079	ltpFR	10	n/a	n/a	n/a	n/a	n/a	n/a	n/a	14	1	8	5	n/a	n/a	n/a	n/a	n/a
1758.83	n/a	PROB	879415	n/a	LTP079	ltpFR	10	n/a	n/a	n/a	n/a	n/a	n/a	n/a	16	9	6	1	n/a	n/a	n/a	n/a	n/a
1759.888	n/a	PROB	879944	n/a	LTP079	ltpFR	10	n/a	n/a	n/a	n/a	n/a	n/a	n/a	12	3	7	2	n/a	n/a	n/a	n/a	n/a
1761.088	n/a	PROB	880544	n/a	LTP079	ltpFR	10	n/a	n/a	n/a	n/a	n/a	n/a	n/a	16	7	6	3	n/a	n/a	n/a	n/a	n/a
1762.23	n/a	PROB	881115	n/a	LTP079	ltpFR	10	n/a	n/a	n/a	n/a	n/a	n/a	n/a	12	3	6	3	n/a	n/a	n/a	n/a	n/a
1763.392	n/a	STOP	881696	n/a	LTP079	ltpFR	10	n/a	n/a	n/a	n/a	n/a	n/a	n/a	n/a	n/a	n/a	n/a	n/a	n/a	n/a	n/a	n/a
1764.812	n/a	WORD	882406	wordpools/wasnorm_wordpool.txt	LTP079	ltpFR	10	7	0	PLUM	1090	n/a	n/a	0	n/a	0	0	0	0.57763671875	0.412841796875	1	lower	amplitud.ttf
1767.82	n/a	START	883910	n/a	LTP079	ltpFR	10	n/a	n/a	n/a	n/a	n/a	n/a	n/a	n/a	n/a	n/a	n/a	n/a	n/a	n/a	n/a	n/a
1768.736	n/a	PROB	884368	n/a	LTP079	ltpFR	10	n/a	n/a	n/a	n/a	n/a	n/a	n/a	20	3	8	9	n/a	n/a	n/a	n/a	n/a
1770.11	n/a	PROB	885055	n/a	LTP079	ltpFR	10	n/a	n/a	n/a	n/a	n/a	n/a	n/a	19	7	4	8	n/a	n/a	n/a	n/a	n/a
1771.392	n/a	PROB	885696	n/a	LTP079	ltpFR	10	n/a	n/a	n/a	n/a	n/a	n/a	n/a	12	2	2	8	n/a	n/a	n/a	n/a	n/a
1772.684	n/a	PROB	886342	n/a	LTP079	ltpFR	10	n/a	n/a	n/a	n/a	n/a	n/a	n/a	13	4	3	6	n/a	n/a	n/a	n/a	n/a
1774.218	n/a	PROB	887109	n/a	LTP079	ltpFR	10	n/a	n/a	n/a	n/a	n/a	n/a	n/a	17	8	8	1	n/a	n/a	n/a	n/a	n/a
1775.3	n/a	PROB	887650	n/a	LTP079	ltpFR	10	n/a	n/a	n/a	n/a	n/a	n/a	n/a	16	7	6	3	n/a	n/a	n/a	n/a	n/a
1776.6	n/a	PROB	888300	n/a	LTP079	ltpFR	10	n/a	n/a	n/a	n/a	n/a	n/a	n/a	19	4	7	8	n/a	n/a	n/a	n/a	n/a
1778.174	n/a	PROB	889087	n/a	LTP079	ltpFR	10	n/a	n/a	n/a	n/a	n/a	n/a	n/a	26	9	8	9	n/a	n/a	n/a	n/a	n/a
1780.698	n/a	PROB	890349	n/a	LTP079	ltpFR	10	n/a	n/a	n/a	n/a	n/a	n/a	n/a	17	8	4	5	n/a	n/a	n/a	n/a	n/a
1782.014	n/a	PROB	891007	n/a	LTP079	ltpFR	10	n/a	n/a	n/a	n/a	n/a	n/a	n/a	16	2	5	9	n/a	n/a	n/a	n/a	n/a
1783.074	n/a	STOP	891537	n/a	LTP079	ltpFR	10	n/a	n/a	n/a	n/a	n/a	n/a	n/a	n/a	n/a	n/a	n/a	n/a	n/a	n/a	n/a	n/a
1784.63	n/a	WORD	892315	wordpools/wasnorm_wordpool.txt	LTP079	ltpFR	10	7	0	CROWN	415	n/a	n/a	0	n/a	0	0	0	0.57763671875	0.412841796875	1	lower	amplitud.ttf
1787.638	n/a	START	893819	n/a	LTP079	ltpFR	10	n/a	n/a	n/a	n/a	n/a	n/a	n/a	n/a	n/a	n/a	n/a	n/a	n/a	n/a	n/a	n/a
1788.528	n/a	PROB	894264	n/a	LTP079	ltpFR	10	n/a	n/a	n/a	n/a	n/a	n/a	n/a	23	9	7	7	n/a	n/a	n/a	n/a	n/a
1790.312	n/a	PROB	895156	n/a	LTP079	ltpFR	10	n/a	n/a	n/a	n/a	n/a	n/a	n/a	19	7	5	8	n/a	n/a	n/a	n/a	n/a
1791.544	n/a	PROB	895772	n/a	LTP079	ltpFR	10	n/a	n/a	n/a	n/a	n/a	n/a	n/a	19	9	4	6	n/a	n/a	n/a	n/a	n/a
1792.628	n/a	PROB	896314	n/a	LTP079	ltpFR	10	n/a	n/a	n/a	n/a	n/a	n/a	n/a	20	8	8	4	n/a	n/a	n/a	n/a	n/a
1797.028	n/a	PROB	898514	n/a	LTP079	ltpFR	10	n/a	n/a	n/a	n/a	n/a	n/a	n/a	12	2	3	7	n/a	n/a	n/a	n/a	n/a
1798.11	n/a	PROB	899055	n/a	LTP079	ltpFR	10	n/a	n/a	n/a	n/a	n/a	n/a	n/a	14	2	7	5	n/a	n/a	n/a	n/a	n/a
1799.218	n/a	PROB	899609	n/a	LTP079	ltpFR	10	n/a	n/a	n/a	n/a	n/a	n/a	n/a	14	6	5	3	n/a	n/a	n/a	n/a	n/a
1801.21	n/a	PROB	900605	n/a	LTP079	ltpFR	10	n/a	n/a	n/a	n/a	n/a	n/a	n/a	16	2	8	6	n/a	n/a	n/a	n/a	n/a
1802.324	n/a	STOP	901162	n/a	LTP079	ltpFR	10	n/a	n/a	n/a	n/a	n/a	n/a	n/a	n/a	n/a	n/a	n/a	n/a	n/a	n/a	n/a	n/a
1804.658	n/a	WORD	902329	wordpools/wasnorm_wordpool.txt	LTP079	ltpFR	10	7	0	GATE	625	n/a	n/a	1	n/a	0	0	0	0.57763671875	0.412841796875	1	lower	amplitud.ttf
1807.666	n/a	START	903833	n/a	LTP079	ltpFR	10	n/a	n/a	n/a	n/a	n/a	n/a	n/a	n/a	n/a	n/a	n/a	n/a	n/a	n/a	n/a	n/a
1808.732	n/a	PROB	904366	n/a	LTP079	ltpFR	10	n/a	n/a	n/a	n/a	n/a	n/a	n/a	10	3	1	6	n/a	n/a	n/a	n/a	n/a
1810.056	n/a	PROB	905028	n/a	LTP079	ltpFR	10	n/a	n/a	n/a	n/a	n/a	n/a	n/a	21	9	8	4	n/a	n/a	n/a	n/a	n/a
1811.282	n/a	PROB	905641	n/a	LTP079	ltpFR	10	n/a	n/a	n/a	n/a	n/a	n/a	n/a	16	7	8	1	n/a	n/a	n/a	n/a	n/a
1812.78	n/a	PROB	906390	n/a	LTP079	ltpFR	10	n/a	n/a	n/a	n/a	n/a	n/a	n/a	26	9	8	9	n/a	n/a	n/a	n/a	n/a
1814.188	n/a	PROB	907094	n/a	LTP079	ltpFR	10	n/a	n/a	n/a	n/a	n/a	n/a	n/a	18	3	7	8	n/a	n/a	n/a	n/a	n/a
1815.772	n/a	PROB	907886	n/a	LTP079	ltpFR	10	n/a	n/a	n/a	n/a	n/a	n/a	n/a	14	3	9	2	n/a	n/a	n/a	n/a	n/a
1817.296	n/a	PROB	908648	n/a	LTP079	ltpFR	10	n/a	n/a	n/a	n/a	n/a	n/a	n/a	21	9	5	7	n/a	n/a	n/a	n/a	n/a
1818.502	n/a	PROB	909251	n/a	LTP079	ltpFR	10	n/a	n/a	n/a	n/a	n/a	n/a	n/a	13	3	9	1	n/a	n/a	n/a	n/a	n/a
1819.67	n/a	PROB	909835	n/a	LTP079	ltpFR	10	n/a	n/a	n/a	n/a	n/a	n/a	n/a	13	3	6	4	n/a	n/a	n/a	n/a	n/a
1820.836	n/a	PROB	910418	n/a	LTP079	ltpFR	10	n/a	n/a	n/a	n/a	n/a	n/a	n/a	17	9	2	6	n/a	n/a	n/a	n/a	n/a
1822.036	n/a	PROB	911018	n/a	LTP079	ltpFR	10	n/a	n/a	n/a	n/a	n/a	n/a	n/a	14	1	9	4	n/a	n/a	n/a	n/a	n/a
1822.972	n/a	STOP	911486	n/a	LTP079	ltpFR	10	n/a	n/a	n/a	n/a	n/a	n/a	n/a	n/a	n/a	n/a	n/a	n/a	n/a	n/a	n/a	n/a
1824.618	n/a	WORD	912309	wordpools/wasnorm_wordpool.txt	LTP079	ltpFR	10	7	0	DRESSER	496	n/a	n/a	1	n/a	0	0	0	0.57763671875	0.412841796875	1	lower	amplitud.ttf
1827.626	n/a	START	913813	n/a	LTP079	ltpFR	10	n/a	n/a	n/a	n/a	n/a	n/a	n/a	n/a	n/a	n/a	n/a	n/a	n/a	n/a	n/a	n/a
1828.574	n/a	PROB	914287	n/a	LTP079	ltpFR	10	n/a	n/a	n/a	n/a	n/a	n/a	n/a	9	4	1	4	n/a	n/a	n/a	n/a	n/a
1829.624	n/a	PROB	914812	n/a	LTP079	ltpFR	10	n/a	n/a	n/a	n/a	n/a	n/a	n/a	14	6	7	1	n/a	n/a	n/a	n/a	n/a
1830.718	n/a	PROB	915359	n/a	LTP079	ltpFR	10	n/a	n/a	n/a	n/a	n/a	n/a	n/a	15	9	1	5	n/a	n/a	n/a	n/a	n/a
1831.966	n/a	PROB	915983	n/a	LTP079	ltpFR	10	n/a	n/a	n/a	n/a	n/a	n/a	n/a	11	5	1	5	n/a	n/a	n/a	n/a	n/a
1832.892	n/a	PROB	916446	n/a	LTP079	ltpFR	10	n/a	n/a	n/a	n/a	n/a	n/a	n/a	9	6	1	2	n/a	n/a	n/a	n/a	n/a
1833.958	n/a	PROB	916979	n/a	LTP079	ltpFR	10	n/a	n/a	n/a	n/a	n/a	n/a	n/a	12	3	7	2	n/a	n/a	n/a	n/a	n/a
1835.216	n/a	PROB	917608	n/a	LTP079	ltpFR	10	n/a	n/a	n/a	n/a	n/a	n/a	n/a	18	7	2	9	n/a	n/a	n/a	n/a	n/a
1836.39	n/a	PROB	918195	n/a	LTP079	ltpFR	10	n/a	n/a	n/a	n/a	n/a	n/a	n/a	10	2	6	2	n/a	n/a	n/a	n/a	n/a
1837.388	n/a	PROB	918694	n/a	LTP079	ltpFR	10	n/a	n/a	n/a	n/a	n/a	n/a	n/a	23	8	9	6	n/a	n/a	n/a	n/a	n/a
1839.164	n/a	PROB	919582	n/a	LTP079	ltpFR	10	n/a	n/a	n/a	n/a	n/a	n/a	n/a	13	4	5	4	n/a	n/a	n/a	n/a	n/a
1840.446	n/a	PROB	920223	n/a	LTP079	ltpFR	10	n/a	n/a	n/a	n/a	n/a	n/a	n/a	7	4	1	2	n/a	n/a	n/a	n/a	n/a
1843.614	n/a	STOP	921807	n/a	LTP079	ltpFR	10	n/a	n/a	n/a	n/a	n/a	n/a	n/a	n/a	n/a	n/a	n/a	n/a	n/a	n/a	n/a	n/a
1845.404	n/a	REC_START	922702	n/a	LTP079	ltpFR	10	7	n/a	n/a	n/a	n/a	n/a	n/a	n/a	0	0	0	n/a	n/a	n/a	n/a	n/a
1847.298	n/a	REC_WORD	923649	wordpools/wasnorm_wordpool.txt	LTP079	ltpFR	10	7	0	DRESSER	496	n/a	n/a	1	n/a	0	0	0	n/a	n/a	n/a	n/a	n/a
1849.046	n/a	REC_WORD	924523	wordpools/wasnorm_wordpool.txt	LTP079	ltpFR	10	7	0	GATE	625	n/a	n/a	1	n/a	0	0	0	n/a	n/a	n/a	n/a	n/a
1850.702	n/a	REC_WORD	925351	wordpools/wasnorm_wordpool.txt	LTP079	ltpFR	10	7	0	CROWN	415	n/a	n/a	0	n/a	0	0	0	n/a	n/a	n/a	n/a	n/a
1852.388	n/a	REC_WORD	926194	wordpools/wasnorm_wordpool.txt	LTP079	ltpFR	10	7	0	PLUM	1090	n/a	n/a	0	n/a	0	0	0	n/a	n/a	n/a	n/a	n/a
1854.284	n/a	REC_WORD	927142	wordpools/wasnorm_wordpool.txt	LTP079	ltpFR	10	7	0	PECAN	1036	n/a	n/a	0	n/a	0	0	0	n/a	n/a	n/a	n/a	n/a
1859.542	n/a	REC_WORD	929771	wordpools/wasnorm_wordpool.txt	LTP079	ltpFR	10	7	0	ATTIRE	57	n/a	n/a	1	n/a	0	0	0	n/a	n/a	n/a	n/a	n/a
1861.158	n/a	REC_WORD	930579	wordpools/wasnorm_wordpool.txt	LTP079	ltpFR	10	7	0	SAGE	1222	n/a	n/a	1	n/a	0	0	0	n/a	n/a	n/a	n/a	n/a
1863.952	n/a	REC_WORD	931976	wordpools/wasnorm_wordpool.txt	LTP079	ltpFR	10	7	0	PICK	1058	n/a	n/a	0	n/a	0	0	0	n/a	n/a	n/a	n/a	n/a
1865.658	n/a	REC_WORD	932829	wordpools/wasnorm_wordpool.txt	LTP079	ltpFR	10	7	0	FURNITURE	616	n/a	n/a	1	n/a	0	0	0	n/a	n/a	n/a	n/a	n/a
1867.51	n/a	REC_WORD	933755	wordpools/wasnorm_wordpool.txt	LTP079	ltpFR	10	7	0	BLOUSE	139	n/a	n/a	0	n/a	0	0	0	n/a	n/a	n/a	n/a	n/a
1869.296	n/a	REC_WORD	934648	wordpools/wasnorm_wordpool.txt	LTP079	ltpFR	10	7	0	SWEATER	1419	n/a	n/a	0	n/a	0	0	0	n/a	n/a	n/a	n/a	n/a
1871.272	n/a	REC_WORD	935636	wordpools/wasnorm_wordpool.txt	LTP079	ltpFR	10	7	0	TRAY	1498	n/a	n/a	0	n/a	0	0	0	n/a	n/a	n/a	n/a	n/a
1872.892	n/a	REC_WORD	936446	wordpools/wasnorm_wordpool.txt	LTP079	ltpFR	10	7	0	SNACK	1331	n/a	n/a	0	n/a	0	0	0	n/a	n/a	n/a	n/a	n/a
1875.012	n/a	REC_WORD	937506	wordpools/wasnorm_wordpool.txt	LTP079	ltpFR	10	7	0	MUMMY	932	n/a	n/a	1	n/a	0	0	0	n/a	n/a	n/a	n/a	n/a
1876.998	n/a	REC_WORD	938499	wordpools/wasnorm_wordpool.txt	LTP079	ltpFR	10	7	0	CABIN	211	n/a	n/a	1	n/a	0	0	0	n/a	n/a	n/a	n/a	n/a
1923.922	n/a	WORD	961961	wordpools/wasnorm_wordpool.txt	LTP079	ltpFR	10	8	1	SALT	1229	n/a	n/a	0	n/a	0	0	0	0.422607421875	0.5869140625	0	upper	zerothre.ttf
1927.954	n/a	WORD	963977	wordpools/wasnorm_wordpool.txt	LTP079	ltpFR	10	8	1	CANARY	227	n/a	n/a	1	n/a	0	0	0	0.422607421875	0.5869140625	0	upper	zerothre.ttf
1932.02	n/a	WORD	966010	wordpools/wasnorm_wordpool.txt	LTP079	ltpFR	10	8	1	WILDERNESS	1610	n/a	n/a	0	n/a	0	0	0	0.422607421875	0.5869140625	0	upper	zerothre.ttf
1935.992	n/a	WORD	967996	wordpools/wasnorm_wordpool.txt	LTP079	ltpFR	10	8	1	OCEAN	970	n/a	n/a	0	n/a	0	0	0	0.422607421875	0.5869140625	0	upper	zerothre.ttf
1939.942	n/a	WORD	969971	wordpools/wasnorm_wordpool.txt	LTP079	ltpFR	10	8	1	SAW	1239	n/a	n/a	0	n/a	0	0	0	0.422607421875	0.5869140625	0	upper	zerothre.ttf
1943.866	n/a	WORD	971933	wordpools/wasnorm_wordpool.txt	LTP079	ltpFR	10	8	0	VEIN	1554	n/a	n/a	0	n/a	0	0	0	0.57763671875	0.412841796875	1	lower	amplitud.ttf
1948.056	n/a	WORD	974028	wordpools/wasnorm_wordpool.txt	LTP079	ltpFR	10	8	0	FLESH	579	n/a	n/a	0	n/a	0	0	0	0.57763671875	0.412841796875	1	lower	amplitud.ttf
1951.88	n/a	WORD	975940	wordpools/wasnorm_wordpool.txt	LTP079	ltpFR	10	8	0	SCHOOL	1248	n/a	n/a	1	n/a	0	0	0	0.57763671875	0.412841796875	1	lower	amplitud.ttf
1956.046	n/a	WORD	978023	wordpools/wasnorm_wordpool.txt	LTP079	ltpFR	10	8	0	APPENDAGE	32	n/a	n/a	0	n/a	0	0	0	0.57763671875	0.412841796875	1	lower	amplitud.ttf
1959.894	n/a	WORD	979947	wordpools/wasnorm_wordpool.txt	LTP079	ltpFR	10	8	1	FINGERNAIL	568	n/a	n/a	0	n/a	0	0	0	0.422607421875	0.5869140625	0	upper	zerothre.ttf
1963.734	n/a	WORD	981867	wordpools/wasnorm_wordpool.txt	LTP079	ltpFR	10	8	1	TROUT	1511	n/a	n/a	1	n/a	0	0	0	0.422607421875	0.5869140625	0	upper	zerothre.ttf
1967.626	n/a	WORD	983813	wordpools/wasnorm_wordpool.txt	LTP079	ltpFR	10	8	1	FACTORY	548	n/a	n/a	0	n/a	0	0	0	0.422607421875	0.5869140625	0	upper	zerothre.ttf
1971.74	n/a	WORD	985870	wordpools/wasnorm_wordpool.txt	LTP079	ltpFR	10	8	0	SCREWDRIVER	1255	n/a	n/a	0	n/a	0	0	0	0.57763671875	0.412841796875	1	lower	amplitud.ttf
1975.714	n/a	WORD	987857	wordpools/wasnorm_wordpool.txt	LTP079	ltpFR	10	8	0	CARDINAL	244	n/a	n/a	0	n/a	0	0	0	0.57763671875	0.412841796875	1	lower	amplitud.ttf
1979.896	n/a	WORD	989948	wordpools/wasnorm_wordpool.txt	LTP079	ltpFR	10	8	0	BARRACUDA	90	n/a	n/a	1	n/a	0	0	0	0.57763671875	0.412841796875	1	lower	amplitud.ttf
1983.994	n/a	WORD	991997	wordpools/wasnorm_wordpool.txt	LTP079	ltpFR	10	8	0	SALMON	1227	n/a	n/a	0	n/a	0	0	0	0.57763671875	0.412841796875	1	lower	amplitud.ttf
1987.002	n/a	START	993501	n/a	LTP079	ltpFR	10	n/a	n/a	n/a	n/a	n/a	n/a	n/a	n/a	n/a	n/a	n/a	n/a	n/a	n/a	n/a	n/a
1987.82	n/a	PROB	993910	n/a	LTP079	ltpFR	10	n/a	n/a	n/a	n/a	n/a	n/a	n/a	20	4	9	7	n/a	n/a	n/a	n/a	n/a
1991.692	n/a	PROB	995846	n/a	LTP079	ltpFR	10	n/a	n/a	n/a	n/a	n/a	n/a	n/a	7	2	1	4	n/a	n/a	n/a	n/a	n/a
1992.474	n/a	PROB	996237	n/a	LTP079	ltpFR	10	n/a	n/a	n/a	n/a	n/a	n/a	n/a	9	2	1	6	n/a	n/a	n/a	n/a	n/a
1993.58	n/a	STOP	996790	n/a	LTP079	ltpFR	10	n/a	n/a	n/a	n/a	n/a	n/a	n/a	n/a	n/a	n/a	n/a	n/a	n/a	n/a	n/a	n/a
1996.758	n/a	REC_START	998379	n/a	LTP079	ltpFR	10	8	n/a	n/a	n/a	n/a	n/a	n/a	n/a	0	0	0	n/a	n/a	n/a	n/a	n/a
1998.096	n/a	REC_WORD	999048	wordpools/wasnorm_wordpool.txt	LTP079	ltpFR	10	8	0	BARRACUDA	90	n/a	n/a	1	n/a	0	0	0	n/a	n/a	n/a	n/a	n/a
1999.712	n/a	REC_WORD	999856	wordpools/wasnorm_wordpool.txt	LTP079	ltpFR	10	8	0	SALMON	1227	n/a	n/a	0	n/a	0	0	0	n/a	n/a	n/a	n/a	n/a
2004.156	n/a	REC_WORD	1002078	wordpools/wasnorm_wordpool.txt	LTP079	ltpFR	10	8	1	FINGERNAIL	568	n/a	n/a	0	n/a	0	0	0	n/a	n/a	n/a	n/a	n/a
2005.5	n/a	REC_WORD	1002750	wordpools/wasnorm_wordpool.txt	LTP079	ltpFR	10	8	1	TROUT	1511	n/a	n/a	1	n/a	0	0	0	n/a	n/a	n/a	n/a	n/a
2010.808	n/a	REC_WORD	1005404	wordpools/wasnorm_wordpool.txt	LTP079	ltpFR	10	8	0	APPENDAGE	32	n/a	n/a	0	n/a	0	0	0	n/a	n/a	n/a	n/a	n/a
2012.1	n/a	REC_WORD	1006050	wordpools/wasnorm_wordpool.txt	LTP079	ltpFR	10	8	0	FLESH	579	n/a	n/a	0	n/a	0	0	0	n/a	n/a	n/a	n/a	n/a
2013.356	n/a	REC_WORD	1006678	wordpools/wasnorm_wordpool.txt	LTP079	ltpFR	10	8	0	SCHOOL	1248	n/a	n/a	1	n/a	0	0	0	n/a	n/a	n/a	n/a	n/a
2017.692	n/a	REC_WORD	1008846	wordpools/wasnorm_wordpool.txt	LTP079	ltpFR	10	8	0	VEIN	1554	n/a	n/a	0	n/a	0	0	0	n/a	n/a	n/a	n/a	n/a
2034.918	n/a	REC_WORD	1017459	wordpools/wasnorm_wordpool.txt	LTP079	ltpFR	10	8	1	OCEAN	970	n/a	n/a	0	n/a	0	0	0	n/a	n/a	n/a	n/a	n/a
2037.078	n/a	REC_WORD	1018539	wordpools/wasnorm_wordpool.txt	LTP079	ltpFR	10	8	1	CANARY	227	n/a	n/a	1	n/a	0	0	0	n/a	n/a	n/a	n/a	n/a
2039.08	n/a	REC_WORD	1019540	wordpools/wasnorm_wordpool.txt	LTP079	ltpFR	10	8	1	SALT	1229	n/a	n/a	0	n/a	0	0	0	n/a	n/a	n/a	n/a	n/a
2040.9	n/a	REC_WORD	1020450	wordpools/wasnorm_wordpool.txt	LTP079	ltpFR	10	8	1	WILDERNESS	1610	n/a	n/a	0	n/a	0	0	0	n/a	n/a	n/a	n/a	n/a
2044.254	n/a	REC_WORD	1022127	wordpools/wasnorm_wordpool.txt	LTP079	ltpFR	10	8	1	OCEAN	970	n/a	n/a	0	n/a	0	0	0	n/a	n/a	n/a	n/a	n/a
2045.814	n/a	REC_WORD	1022907	wordpools/wasnorm_wordpool.txt	LTP079	ltpFR	10	8	1	SAW	1239	n/a	n/a	0	n/a	0	0	0	n/a	n/a	n/a	n/a	n/a
2075.208	n/a	WORD	1037604	wordpools/wasnorm_wordpool.txt	LTP079	ltpFR	10	9	0	CROCODILE	411	n/a	n/a	1	n/a	0	0	0	0.57763671875	0.412841796875	1	lower	amplitud.ttf
2079.216	n/a	WORD	1039608	wordpools/wasnorm_wordpool.txt	LTP079	ltpFR	10	9	0	SNAKE	1333	n/a	n/a	1	n/a	0	0	0	0.57763671875	0.412841796875	1	lower	amplitud.ttf
2083.132	n/a	WORD	1041566	wordpools/wasnorm_wordpool.txt	LTP079	ltpFR	10	9	0	DINER	467	n/a	n/a	1	n/a	0	0	0	0.57763671875	0.412841796875	1	lower	amplitud.ttf
2087.28	n/a	WORD	1043640	wordpools/wasnorm_wordpool.txt	LTP079	ltpFR	10	9	1	JAR	750	n/a	n/a	0	n/a	0	0	0	0.422607421875	0.5869140625	0	upper	zerothre.ttf
2091.486	n/a	WORD	1045743	wordpools/wasnorm_wordpool.txt	LTP079	ltpFR	10	9	1	RAIL	1161	n/a	n/a	0	n/a	0	0	0	0.422607421875	0.5869140625	0	upper	zerothre.ttf
2095.56	n/a	WORD	1047780	wordpools/wasnorm_wordpool.txt	LTP079	ltpFR	10	9	1	SHORTS	1293	n/a	n/a	0	n/a	0	0	0	0.422607421875	0.5869140625	0	upper	zerothre.ttf
2099.618	n/a	WORD	1049809	wordpools/wasnorm_wordpool.txt	LTP079	ltpFR	10	9	0	HARE	688	n/a	n/a	0	n/a	0	0	0	0.57763671875	0.412841796875	1	lower	amplitud.ttf
2103.524	n/a	WORD	1051762	wordpools/wasnorm_wordpool.txt	LTP079	ltpFR	10	9	0	LILY	821	n/a	n/a	0	n/a	0	0	0	0.57763671875	0.412841796875	1	lower	amplitud.ttf
2107.574	n/a	WORD	1053787	wordpools/wasnorm_wordpool.txt	LTP079	ltpFR	10	9	0	STEM	1376	n/a	n/a	0	n/a	0	0	0	0.57763671875	0.412841796875	1	lower	amplitud.ttf
2111.772	n/a	WORD	1055886	wordpools/wasnorm_wordpool.txt	LTP079	ltpFR	10	9	0	SIDEWALK	1303	n/a	n/a	1	n/a	0	0	0	0.57763671875	0.412841796875	1	lower	amplitud.ttf
2115.654	n/a	WORD	1057827	wordpools/wasnorm_wordpool.txt	LTP079	ltpFR	10	9	0	LETTER	813	n/a	n/a	0	n/a	0	0	0	0.57763671875	0.412841796875	1	lower	amplitud.ttf
2119.854	n/a	WORD	1059927	wordpools/wasnorm_wordpool.txt	LTP079	ltpFR	10	9	1	JELLY	755	n/a	n/a	0	n/a	0	0	0	0.422607421875	0.5869140625	0	upper	zerothre.ttf
2123.762	n/a	WORD	1061881	wordpools/wasnorm_wordpool.txt	LTP079	ltpFR	10	9	1	BLACKBERRY	132	n/a	n/a	0	n/a	0	0	0	0.422607421875	0.5869140625	0	upper	zerothre.ttf
2127.752	n/a	WORD	1063876	wordpools/wasnorm_wordpool.txt	LTP079	ltpFR	10	9	1	CHAUFFEUR	283	n/a	n/a	1	n/a	0	0	0	0.422607421875	0.5869140625	0	upper	zerothre.ttf
2131.792	n/a	WORD	1065896	wordpools/wasnorm_wordpool.txt	LTP079	ltpFR	10	9	1	CART	250	n/a	n/a	0	n/a	0	0	0	0.422607421875	0.5869140625	0	upper	zerothre.ttf
2135.732	n/a	WORD	1067866	wordpools/wasnorm_wordpool.txt	LTP079	ltpFR	10	9	1	PORPOISE	1109	n/a	n/a	1	n/a	0	0	0	0.422607421875	0.5869140625	0	upper	zerothre.ttf
2141.798	n/a	REC_START	1070899	n/a	LTP079	ltpFR	10	9	n/a	n/a	n/a	n/a	n/a	n/a	n/a	0	0	0	n/a	n/a	n/a	n/a	n/a
2143.04	n/a	REC_WORD	1071520	wordpools/wasnorm_wordpool.txt	LTP079	ltpFR	10	9	1	PORPOISE	1109	n/a	n/a	1	n/a	0	0	0	n/a	n/a	n/a	n/a	n/a
2144.476	n/a	REC_WORD	1072238	wordpools/wasnorm_wordpool.txt	LTP079	ltpFR	10	9	1	CART	250	n/a	n/a	0	n/a	0	0	0	n/a	n/a	n/a	n/a	n/a
2145.868	n/a	REC_WORD	1072934	wordpools/wasnorm_wordpool.txt	LTP079	ltpFR	10	9	1	CHAUFFEUR	283	n/a	n/a	1	n/a	0	0	0	n/a	n/a	n/a	n/a	n/a
2148.432	n/a	REC_WORD	1074216	wordpools/wasnorm_wordpool.txt	LTP079	ltpFR	10	9	1	JAR	750	n/a	n/a	0	n/a	0	0	0	n/a	n/a	n/a	n/a	n/a
2149.85	n/a	REC_WORD	1074925	wordpools/wasnorm_wordpool.txt	LTP079	ltpFR	10	9	0	DINER	467	n/a	n/a	1	n/a	0	0	0	n/a	n/a	n/a	n/a	n/a
2151.04	n/a	REC_WORD	1075520	wordpools/wasnorm_wordpool.txt	LTP079	ltpFR	10	9	0	SNAKE	1333	n/a	n/a	1	n/a	0	0	0	n/a	n/a	n/a	n/a	n/a
2153.052	n/a	REC_WORD	1076526	wordpools/wasnorm_wordpool.txt	LTP079	ltpFR	10	9	0	CROCODILE	411	n/a	n/a	1	n/a	0	0	0	n/a	n/a	n/a	n/a	n/a
2205.6	n/a	REC_WORD	1102800	wordpools/wasnorm_wordpool.txt	LTP079	ltpFR	10	9	1	PORPOISE	1109	n/a	n/a	1	n/a	0	0	0	n/a	n/a	n/a	n/a	n/a
2218.516	n/a	START	1109258	n/a	LTP079	ltpFR	10	n/a	n/a	n/a	n/a	n/a	n/a	n/a	n/a	n/a	n/a	n/a	n/a	n/a	n/a	n/a	n/a
2220.016	n/a	PROB	1110008	n/a	LTP079	ltpFR	10	n/a	n/a	n/a	n/a	n/a	n/a	n/a	21	9	5	7	n/a	n/a	n/a	n/a	n/a
2221.632	n/a	PROB	1110816	n/a	LTP079	ltpFR	10	n/a	n/a	n/a	n/a	n/a	n/a	n/a	13	6	5	2	n/a	n/a	n/a	n/a	n/a
2223.472	n/a	PROB	1111736	n/a	LTP079	ltpFR	10	n/a	n/a	n/a	n/a	n/a	n/a	n/a	16	9	6	1	n/a	n/a	n/a	n/a	n/a
2224.614	n/a	PROB	1112307	n/a	LTP079	ltpFR	10	n/a	n/a	n/a	n/a	n/a	n/a	n/a	19	8	8	3	n/a	n/a	n/a	n/a	n/a
2226.146	n/a	STOP	1113073	n/a	LTP079	ltpFR	10	n/a	n/a	n/a	n/a	n/a	n/a	n/a	n/a	n/a	n/a	n/a	n/a	n/a	n/a	n/a	n/a
2227.578	n/a	WORD	1113789	wordpools/wasnorm_wordpool.txt	LTP079	ltpFR	10	10	1	ROOMMATE	1207	n/a	n/a	1	n/a	0	0	0	0.422607421875	0.5869140625	0	upper	zerothre.ttf
2230.586	n/a	START	1115293	n/a	LTP079	ltpFR	10	n/a	n/a	n/a	n/a	n/a	n/a	n/a	n/a	n/a	n/a	n/a	n/a	n/a	n/a	n/a	n/a
2231.694	n/a	PROB	1115847	n/a	LTP079	ltpFR	10	n/a	n/a	n/a	n/a	n/a	n/a	n/a	8	1	5	2	n/a	n/a	n/a	n/a	n/a
2232.836	n/a	PROB	1116418	n/a	LTP079	ltpFR	10	n/a	n/a	n/a	n/a	n/a	n/a	n/a	17	4	7	6	n/a	n/a	n/a	n/a	n/a
2234.434	n/a	PROB	1117217	n/a	LTP079	ltpFR	10	n/a	n/a	n/a	n/a	n/a	n/a	n/a	18	5	7	6	n/a	n/a	n/a	n/a	n/a
2235.792	n/a	PROB	1117896	n/a	LTP079	ltpFR	10	n/a	n/a	n/a	n/a	n/a	n/a	n/a	9	7	1	1	n/a	n/a	n/a	n/a	n/a
2236.592	n/a	PROB	1118296	n/a	LTP079	ltpFR	10	n/a	n/a	n/a	n/a	n/a	n/a	n/a	21	6	8	7	n/a	n/a	n/a	n/a	n/a
2238.37	n/a	STOP	1119185	n/a	LTP079	ltpFR	10	n/a	n/a	n/a	n/a	n/a	n/a	n/a	n/a	n/a	n/a	n/a	n/a	n/a	n/a	n/a	n/a
2239.584	n/a	WORD	1119792	wordpools/wasnorm_wordpool.txt	LTP079	ltpFR	10	10	1	FELLOW	558	n/a	n/a	1	n/a	0	0	0	0.422607421875	0.5869140625	0	upper	zerothre.ttf
2242.59	n/a	START	1121295	n/a	LTP079	ltpFR	10	n/a	n/a	n/a	n/a	n/a	n/a	n/a	n/a	n/a	n/a	n/a	n/a	n/a	n/a	n/a	n/a
2243.758	n/a	PROB	1121879	n/a	LTP079	ltpFR	10	n/a	n/a	n/a	n/a	n/a	n/a	n/a	12	3	5	4	n/a	n/a	n/a	n/a	n/a
2244.708	n/a	PROB	1122354	n/a	LTP079	ltpFR	10	n/a	n/a	n/a	n/a	n/a	n/a	n/a	17	9	3	5	n/a	n/a	n/a	n/a	n/a
2246.124	n/a	PROB	1123062	n/a	LTP079	ltpFR	10	n/a	n/a	n/a	n/a	n/a	n/a	n/a	14	5	5	4	n/a	n/a	n/a	n/a	n/a
2247.082	n/a	PROB	1123541	n/a	LTP079	ltpFR	10	n/a	n/a	n/a	n/a	n/a	n/a	n/a	17	1	9	7	n/a	n/a	n/a	n/a	n/a
2248.372	n/a	PROB	1124186	n/a	LTP079	ltpFR	10	n/a	n/a	n/a	n/a	n/a	n/a	n/a	12	7	4	1	n/a	n/a	n/a	n/a	n/a
2249.306	n/a	STOP	1124653	n/a	LTP079	ltpFR	10	n/a	n/a	n/a	n/a	n/a	n/a	n/a	n/a	n/a	n/a	n/a	n/a	n/a	n/a	n/a	n/a
2251.47	n/a	WORD	1125735	wordpools/wasnorm_wordpool.txt	LTP079	ltpFR	10	10	1	KNOB	787	n/a	n/a	0	n/a	0	0	0	0.422607421875	0.5869140625	0	upper	zerothre.ttf
2254.478	n/a	START	1127239	n/a	LTP079	ltpFR	10	n/a	n/a	n/a	n/a	n/a	n/a	n/a	n/a	n/a	n/a	n/a	n/a	n/a	n/a	n/a	n/a
2255.544	n/a	PROB	1127772	n/a	LTP079	ltpFR	10	n/a	n/a	n/a	n/a	n/a	n/a	n/a	13	4	1	8	n/a	n/a	n/a	n/a	n/a
2256.688	n/a	PROB	1128344	n/a	LTP079	ltpFR	10	n/a	n/a	n/a	n/a	n/a	n/a	n/a	13	8	1	4	n/a	n/a	n/a	n/a	n/a
2257.478	n/a	PROB	1128739	n/a	LTP079	ltpFR	10	n/a	n/a	n/a	n/a	n/a	n/a	n/a	15	6	4	5	n/a	n/a	n/a	n/a	n/a
2259.77	n/a	PROB	1129885	n/a	LTP079	ltpFR	10	n/a	n/a	n/a	n/a	n/a	n/a	n/a	9	6	1	2	n/a	n/a	n/a	n/a	n/a
2260.902	n/a	PROB	1130451	n/a	LTP079	ltpFR	10	n/a	n/a	n/a	n/a	n/a	n/a	n/a	8	3	3	2	n/a	n/a	n/a	n/a	n/a
2261.74	n/a	STOP	1130870	n/a	LTP079	ltpFR	10	n/a	n/a	n/a	n/a	n/a	n/a	n/a	n/a	n/a	n/a	n/a	n/a	n/a	n/a	n/a	n/a
2263.45	n/a	WORD	1131725	wordpools/wasnorm_wordpool.txt	LTP079	ltpFR	10	10	1	HOSTAGE	722	n/a	n/a	1	n/a	0	0	0	0.422607421875	0.5869140625	0	upper	zerothre.ttf
2266.458	n/a	START	1133229	n/a	LTP079	ltpFR	10	n/a	n/a	n/a	n/a	n/a	n/a	n/a	n/a	n/a	n/a	n/a	n/a	n/a	n/a	n/a	n/a
2267.342	n/a	PROB	1133671	n/a	LTP079	ltpFR	10	n/a	n/a	n/a	n/a	n/a	n/a	n/a	13	3	4	6	n/a	n/a	n/a	n/a	n/a
2268.884	n/a	PROB	1134442	n/a	LTP079	ltpFR	10	n/a	n/a	n/a	n/a	n/a	n/a	n/a	16	9	1	6	n/a	n/a	n/a	n/a	n/a
2270.05	n/a	PROB	1135025	n/a	LTP079	ltpFR	10	n/a	n/a	n/a	n/a	n/a	n/a	n/a	14	8	1	5	n/a	n/a	n/a	n/a	n/a
2271.598	n/a	PROB	1135799	n/a	LTP079	ltpFR	10	n/a	n/a	n/a	n/a	n/a	n/a	n/a	17	9	5	3	n/a	n/a	n/a	n/a	n/a
2274.458	n/a	STOP	1137229	n/a	LTP079	ltpFR	10	n/a	n/a	n/a	n/a	n/a	n/a	n/a	n/a	n/a	n/a	n/a	n/a	n/a	n/a	n/a	n/a
2275.682	n/a	WORD	1137841	wordpools/wasnorm_wordpool.txt	LTP079	ltpFR	10	10	1	COUNTY	389	n/a	n/a	0	n/a	0	0	0	0.422607421875	0.5869140625	0	upper	zerothre.ttf
2278.69	n/a	START	1139345	n/a	LTP079	ltpFR	10	n/a	n/a	n/a	n/a	n/a	n/a	n/a	n/a	n/a	n/a	n/a	n/a	n/a	n/a	n/a	n/a
2279.646	n/a	PROB	1139823	n/a	LTP079	ltpFR	10	n/a	n/a	n/a	n/a	n/a	n/a	n/a	12	4	1	7	n/a	n/a	n/a	n/a	n/a
2280.78	n/a	PROB	1140390	n/a	LTP079	ltpFR	10	n/a	n/a	n/a	n/a	n/a	n/a	n/a	15	5	7	3	n/a	n/a	n/a	n/a	n/a
2282.104	n/a	PROB	1141052	n/a	LTP079	ltpFR	10	n/a	n/a	n/a	n/a	n/a	n/a	n/a	9	5	3	1	n/a	n/a	n/a	n/a	n/a
2283.162	n/a	PROB	1141581	n/a	LTP079	ltpFR	10	n/a	n/a	n/a	n/a	n/a	n/a	n/a	14	9	2	3	n/a	n/a	n/a	n/a	n/a
2284.478	n/a	PROB	1142239	n/a	LTP079	ltpFR	10	n/a	n/a	n/a	n/a	n/a	n/a	n/a	17	2	6	9	n/a	n/a	n/a	n/a	n/a
2286.092	n/a	STOP	1143046	n/a	LTP079	ltpFR	10	n/a	n/a	n/a	n/a	n/a	n/a	n/a	n/a	n/a	n/a	n/a	n/a	n/a	n/a	n/a	n/a
2287.794	n/a	WORD	1143897	wordpools/wasnorm_wordpool.txt	LTP079	ltpFR	10	10	1	SENATE	1267	n/a	n/a	0	n/a	0	0	0	0.422607421875	0.5869140625	0	upper	zerothre.ttf
2290.802	n/a	START	1145401	n/a	LTP079	ltpFR	10	n/a	n/a	n/a	n/a	n/a	n/a	n/a	n/a	n/a	n/a	n/a	n/a	n/a	n/a	n/a	n/a
2291.702	n/a	PROB	1145851	n/a	LTP079	ltpFR	10	n/a	n/a	n/a	n/a	n/a	n/a	n/a	15	3	8	4	n/a	n/a	n/a	n/a	n/a
2293.684	n/a	PROB	1146842	n/a	LTP079	ltpFR	10	n/a	n/a	n/a	n/a	n/a	n/a	n/a	8	2	5	1	n/a	n/a	n/a	n/a	n/a
2294.55	n/a	PROB	1147275	n/a	LTP079	ltpFR	10	n/a	n/a	n/a	n/a	n/a	n/a	n/a	13	1	3	9	n/a	n/a	n/a	n/a	n/a
2295.474	n/a	PROB	1147737	n/a	LTP079	ltpFR	10	n/a	n/a	n/a	n/a	n/a	n/a	n/a	16	3	6	7	n/a	n/a	n/a	n/a	n/a
2296.758	n/a	PROB	1148379	n/a	LTP079	ltpFR	10	n/a	n/a	n/a	n/a	n/a	n/a	n/a	12	3	3	6	n/a	n/a	n/a	n/a	n/a
2297.678	n/a	STOP	1148839	n/a	LTP079	ltpFR	10	n/a	n/a	n/a	n/a	n/a	n/a	n/a	n/a	n/a	n/a	n/a	n/a	n/a	n/a	n/a	n/a
2299.808	n/a	WORD	1149904	wordpools/wasnorm_wordpool.txt	LTP079	ltpFR	10	10	1	MATCH	878	n/a	n/a	0	n/a	0	0	0	0.422607421875	0.5869140625	0	upper	zerothre.ttf
2302.816	n/a	START	1151408	n/a	LTP079	ltpFR	10	n/a	n/a	n/a	n/a	n/a	n/a	n/a	n/a	n/a	n/a	n/a	n/a	n/a	n/a	n/a	n/a
2303.914	n/a	PROB	1151957	n/a	LTP079	ltpFR	10	n/a	n/a	n/a	n/a	n/a	n/a	n/a	13	2	8	3	n/a	n/a	n/a	n/a	n/a
2305.454	n/a	PROB	1152727	n/a	LTP079	ltpFR	10	n/a	n/a	n/a	n/a	n/a	n/a	n/a	18	3	6	9	n/a	n/a	n/a	n/a	n/a
2306.538	n/a	PROB	1153269	n/a	LTP079	ltpFR	10	n/a	n/a	n/a	n/a	n/a	n/a	n/a	15	2	7	6	n/a	n/a	n/a	n/a	n/a
2310.814	n/a	STOP	1155407	n/a	LTP079	ltpFR	10	n/a	n/a	n/a	n/a	n/a	n/a	n/a	n/a	n/a	n/a	n/a	n/a	n/a	n/a	n/a	n/a
2311.636	n/a	WORD	1155818	wordpools/wasnorm_wordpool.txt	LTP079	ltpFR	10	10	1	APRON	35	n/a	n/a	0	n/a	0	0	0	0.422607421875	0.5869140625	0	upper	zerothre.ttf
2314.646	n/a	START	1157323	n/a	LTP079	ltpFR	10	n/a	n/a	n/a	n/a	n/a	n/a	n/a	n/a	n/a	n/a	n/a	n/a	n/a	n/a	n/a	n/a
2315.794	n/a	PROB	1157897	n/a	LTP079	ltpFR	10	n/a	n/a	n/a	n/a	n/a	n/a	n/a	14	1	6	7	n/a	n/a	n/a	n/a	n/a
2317.01	n/a	PROB	1158505	n/a	LTP079	ltpFR	10	n/a	n/a	n/a	n/a	n/a	n/a	n/a	17	9	5	3	n/a	n/a	n/a	n/a	n/a
2318.86	n/a	PROB	1159430	n/a	LTP079	ltpFR	10	n/a	n/a	n/a	n/a	n/a	n/a	n/a	10	4	5	1	n/a	n/a	n/a	n/a	n/a
2319.834	n/a	PROB	1159917	n/a	LTP079	ltpFR	10	n/a	n/a	n/a	n/a	n/a	n/a	n/a	17	4	5	8	n/a	n/a	n/a	n/a	n/a
2321.31	n/a	STOP	1160655	n/a	LTP079	ltpFR	10	n/a	n/a	n/a	n/a	n/a	n/a	n/a	n/a	n/a	n/a	n/a	n/a	n/a	n/a	n/a	n/a
2323.616	n/a	WORD	1161808	wordpools/wasnorm_wordpool.txt	LTP079	ltpFR	10	10	1	FENCE	560	n/a	n/a	0	n/a	0	0	0	0.422607421875	0.5869140625	0	upper	zerothre.ttf
2326.624	n/a	START	1163312	n/a	LTP079	ltpFR	10	n/a	n/a	n/a	n/a	n/a	n/a	n/a	n/a	n/a	n/a	n/a	n/a	n/a	n/a	n/a	n/a
2327.79	n/a	PROB	1163895	n/a	LTP079	ltpFR	10	n/a	n/a	n/a	n/a	n/a	n/a	n/a	7	1	4	2	n/a	n/a	n/a	n/a	n/a
2328.732	n/a	PROB	1164366	n/a	LTP079	ltpFR	10	n/a	n/a	n/a	n/a	n/a	n/a	n/a	10	1	7	2	n/a	n/a	n/a	n/a	n/a
2330.082	n/a	PROB	1165041	n/a	LTP079	ltpFR	10	n/a	n/a	n/a	n/a	n/a	n/a	n/a	17	6	6	5	n/a	n/a	n/a	n/a	n/a
2331.372	n/a	PROB	1165686	n/a	LTP079	ltpFR	10	n/a	n/a	n/a	n/a	n/a	n/a	n/a	24	8	9	7	n/a	n/a	n/a	n/a	n/a
2333.096	n/a	PROB	1166548	n/a	LTP079	ltpFR	10	n/a	n/a	n/a	n/a	n/a	n/a	n/a	15	8	2	5	n/a	n/a	n/a	n/a	n/a
2334.454	n/a	STOP	1167227	n/a	LTP079	ltpFR	10	n/a	n/a	n/a	n/a	n/a	n/a	n/a	n/a	n/a	n/a	n/a	n/a	n/a	n/a	n/a	n/a
2335.73	n/a	WORD	1167865	wordpools/wasnorm_wordpool.txt	LTP079	ltpFR	10	10	1	TRASH	1497	n/a	n/a	0	n/a	0	0	0	0.422607421875	0.5869140625	0	upper	zerothre.ttf
2338.738	n/a	START	1169369	n/a	LTP079	ltpFR	10	n/a	n/a	n/a	n/a	n/a	n/a	n/a	n/a	n/a	n/a	n/a	n/a	n/a	n/a	n/a	n/a
2339.77	n/a	PROB	1169885	n/a	LTP079	ltpFR	10	n/a	n/a	n/a	n/a	n/a	n/a	n/a	10	4	2	4	n/a	n/a	n/a	n/a	n/a
2340.862	n/a	PROB	1170431	n/a	LTP079	ltpFR	10	n/a	n/a	n/a	n/a	n/a	n/a	n/a	14	5	1	8	n/a	n/a	n/a	n/a	n/a
2343.652	n/a	PROB	1171826	n/a	LTP079	ltpFR	10	n/a	n/a	n/a	n/a	n/a	n/a	n/a	18	6	3	9	n/a	n/a	n/a	n/a	n/a
2344.66	n/a	PROB	1172330	n/a	LTP079	ltpFR	10	n/a	n/a	n/a	n/a	n/a	n/a	n/a	13	2	6	5	n/a	n/a	n/a	n/a	n/a
2345.534	n/a	STOP	1172767	n/a	LTP079	ltpFR	10	n/a	n/a	n/a	n/a	n/a	n/a	n/a	n/a	n/a	n/a	n/a	n/a	n/a	n/a	n/a	n/a
2347.918	n/a	WORD	1173959	wordpools/wasnorm_wordpool.txt	LTP079	ltpFR	10	10	1	DIARY	460	n/a	n/a	0	n/a	0	0	0	0.422607421875	0.5869140625	0	upper	zerothre.ttf
2350.926	n/a	START	1175463	n/a	LTP079	ltpFR	10	n/a	n/a	n/a	n/a	n/a	n/a	n/a	n/a	n/a	n/a	n/a	n/a	n/a	n/a	n/a	n/a
2352.082	n/a	PROB	1176041	n/a	LTP079	ltpFR	10	n/a	n/a	n/a	n/a	n/a	n/a	n/a	7	2	4	1	n/a	n/a	n/a	n/a	n/a
2352.966	n/a	PROB	1176483	n/a	LTP079	ltpFR	10	n/a	n/a	n/a	n/a	n/a	n/a	n/a	11	4	3	4	n/a	n/a	n/a	n/a	n/a
2354.058	n/a	PROB	1177029	n/a	LTP079	ltpFR	10	n/a	n/a	n/a	n/a	n/a	n/a	n/a	12	7	3	2	n/a	n/a	n/a	n/a	n/a
2355.35	n/a	PROB	1177675	n/a	LTP079	ltpFR	10	n/a	n/a	n/a	n/a	n/a	n/a	n/a	17	7	7	3	n/a	n/a	n/a	n/a	n/a
2356.924	n/a	PROB	1178462	n/a	LTP079	ltpFR	10	n/a	n/a	n/a	n/a	n/a	n/a	n/a	16	8	7	1	n/a	n/a	n/a	n/a	n/a
2358.272	n/a	STOP	1179136	n/a	LTP079	ltpFR	10	n/a	n/a	n/a	n/a	n/a	n/a	n/a	n/a	n/a	n/a	n/a	n/a	n/a	n/a	n/a	n/a
2359.864	n/a	WORD	1179932	wordpools/wasnorm_wordpool.txt	LTP079	ltpFR	10	10	1	BRUISE	180	n/a	n/a	0	n/a	0	0	0	0.422607421875	0.5869140625	0	upper	zerothre.ttf
2362.872	n/a	START	1181436	n/a	LTP079	ltpFR	10	n/a	n/a	n/a	n/a	n/a	n/a	n/a	n/a	n/a	n/a	n/a	n/a	n/a	n/a	n/a	n/a
2363.722	n/a	PROB	1181861	n/a	LTP079	ltpFR	10	n/a	n/a	n/a	n/a	n/a	n/a	n/a	17	5	7	5	n/a	n/a	n/a	n/a	n/a
2364.954	n/a	PROB	1182477	n/a	LTP079	ltpFR	10	n/a	n/a	n/a	n/a	n/a	n/a	n/a	20	9	9	2	n/a	n/a	n/a	n/a	n/a
2366.07	n/a	PROB	1183035	n/a	LTP079	ltpFR	10	n/a	n/a	n/a	n/a	n/a	n/a	n/a	22	5	9	8	n/a	n/a	n/a	n/a	n/a
2367.712	n/a	PROB	1183856	n/a	LTP079	ltpFR	10	n/a	n/a	n/a	n/a	n/a	n/a	n/a	19	4	7	8	n/a	n/a	n/a	n/a	n/a
2369.178	n/a	PROB	1184589	n/a	LTP079	ltpFR	10	n/a	n/a	n/a	n/a	n/a	n/a	n/a	12	2	4	6	n/a	n/a	n/a	n/a	n/a
2370.184	n/a	STOP	1185092	n/a	LTP079	ltpFR	10	n/a	n/a	n/a	n/a	n/a	n/a	n/a	n/a	n/a	n/a	n/a	n/a	n/a	n/a	n/a	n/a
2371.776	n/a	WORD	1185888	wordpools/wasnorm_wordpool.txt	LTP079	ltpFR	10	10	1	NOSE	957	n/a	n/a	0	n/a	0	0	0	0.422607421875	0.5869140625	0	upper	zerothre.ttf
