onset	duration	trial_type	sample	stim_file	subject	experiment	session	trial	task	item_name	item_num	recog_resp	recog_conf	resp	color_r	color_g	color_b	case	font
328.02	n/a	SESS_START	164010	n/a	LTP269	ltpFR	5	n/a	n/a	n/a	n/a	1	3	n/a	n/a	n/a	n/a	n/a	n/a
382.514	n/a	WORD	191257	wordpools/wasnorm_wordpool_less_exclusions.txt	LTP269	ltpFR	5	1	0	MARINE	869	0	n/a	1	0.57763671875	0.412841796875	1	upper	amplitud.ttf
386.73	n/a	WORD	193365	wordpools/wasnorm_wordpool_less_exclusions.txt	LTP269	ltpFR	5	1	0	GENERAL	630	n/a	n/a	1	0.57763671875	0.412841796875	1	upper	amplitud.ttf
390.946	n/a	WORD	195473	wordpools/wasnorm_wordpool_less_exclusions.txt	LTP269	ltpFR	5	1	1	POPE	1105	n/a	n/a	1	0.422607421875	0.5869140625	0	lower	zerothre.ttf
394.894	n/a	WORD	197447	wordpools/wasnorm_wordpool_less_exclusions.txt	LTP269	ltpFR	5	1	1	DISH	474	n/a	n/a	0	0.422607421875	0.5869140625	0	lower	zerothre.ttf
398.776	n/a	WORD	199388	wordpools/wasnorm_wordpool_less_exclusions.txt	LTP269	ltpFR	5	1	0	GLASS	639	n/a	n/a	1	0.57763671875	0.412841796875	1	upper	amplitud.ttf
402.874	n/a	WORD	201437	wordpools/wasnorm_wordpool_less_exclusions.txt	LTP269	ltpFR	5	1	0	SUPPER	1411	n/a	n/a	1	0.57763671875	0.412841796875	1	upper	amplitud.ttf
406.89	n/a	WORD	203445	wordpools/wasnorm_wordpool_less_exclusions.txt	LTP269	ltpFR	5	1	1	CAFETERIA	217	n/a	n/a	0	0.422607421875	0.5869140625	0	lower	zerothre.ttf
410.988	n/a	WORD	205494	wordpools/wasnorm_wordpool_less_exclusions.txt	LTP269	ltpFR	5	1	1	BUFFALO	186	n/a	n/a	1	0.422607421875	0.5869140625	0	lower	zerothre.ttf
415.014	n/a	WORD	207507	wordpools/wasnorm_wordpool_less_exclusions.txt	LTP269	ltpFR	5	1	1	CLAW	319	n/a	n/a	0	0.422607421875	0.5869140625	0	lower	zerothre.ttf
418.896	n/a	WORD	209448	wordpools/wasnorm_wordpool_less_exclusions.txt	LTP269	ltpFR	5	1	1	PAGE	1001	n/a	n/a	0	0.422607421875	0.5869140625	0	lower	zerothre.ttf
422.918	n/a	WORD	211459	wordpools/wasnorm_wordpool_less_exclusions.txt	LTP269	ltpFR	5	1	1	CALF	222	n/a	n/a	1	0.422607421875	0.5869140625	0	lower	zerothre.ttf
427.078	n/a	WORD	213539	wordpools/wasnorm_wordpool_less_exclusions.txt	LTP269	ltpFR	5	1	1	STREAM	1392	n/a	n/a	0	0.422607421875	0.5869140625	0	lower	zerothre.ttf
431.248	n/a	WORD	215624	wordpools/wasnorm_wordpool_less_exclusions.txt	LTP269	ltpFR	5	1	0	ANTEATER	26	n/a	n/a	1	0.57763671875	0.412841796875	1	upper	amplitud.ttf
435.326	n/a	WORD	217663	wordpools/wasnorm_wordpool_less_exclusions.txt	LTP269	ltpFR	5	1	0	OX	994	n/a	n/a	1	0.57763671875	0.412841796875	1	upper	amplitud.ttf
439.548	n/a	WORD	219774	wordpools/wasnorm_wordpool_less_exclusions.txt	LTP269	ltpFR	5	1	0	NET	946	n/a	n/a	1	0.57763671875	0.412841796875	1	upper	amplitud.ttf
443.776	n/a	WORD	221888	wordpools/wasnorm_wordpool_less_exclusions.txt	LTP269	ltpFR	5	1	0	ALLIGATOR	16	n/a	n/a	1	0.57763671875	0.412841796875	1	upper	amplitud.ttf
449.816	n/a	REC_START	224908	n/a	LTP269	ltpFR	5	1	n/a	n/a	n/a	n/a	n/a	n/a	n/a	n/a	n/a	n/a	n/a
450.494	n/a	REC_WORD	225247	wordpools/wasnorm_wordpool_less_exclusions.txt	LTP269	ltpFR	5	1	0	NET	946	n/a	n/a	1	n/a	n/a	n/a	n/a	n/a
451.802	n/a	REC_WORD	225901	wordpools/wasnorm_wordpool_less_exclusions.txt	LTP269	ltpFR	5	1	0	ALLIGATOR	16	n/a	n/a	1	n/a	n/a	n/a	n/a	n/a
457.328	n/a	REC_WORD	228664	wordpools/wasnorm_wordpool_less_exclusions.txt	LTP269	ltpFR	5	1	1	BUFFALO	186	n/a	n/a	1	n/a	n/a	n/a	n/a	n/a
459.458	n/a	REC_WORD	229729	wordpools/wasnorm_wordpool_less_exclusions.txt	LTP269	ltpFR	5	1	1	CLAW	319	n/a	n/a	0	n/a	n/a	n/a	n/a	n/a
460.694	n/a	REC_WORD	230347	wordpools/wasnorm_wordpool_less_exclusions.txt	LTP269	ltpFR	5	1	1	POPE	1105	n/a	n/a	1	n/a	n/a	n/a	n/a	n/a
461.938	n/a	REC_WORD	230969	wordpools/wasnorm_wordpool_less_exclusions.txt	LTP269	ltpFR	5	1	0	GENERAL	630	n/a	n/a	1	n/a	n/a	n/a	n/a	n/a
463.1	n/a	REC_WORD	231550	wordpools/wasnorm_wordpool_less_exclusions.txt	LTP269	ltpFR	5	1	0	SUPPER	1411	n/a	n/a	1	n/a	n/a	n/a	n/a	n/a
465.782	n/a	REC_WORD	232891	wordpools/wasnorm_wordpool_less_exclusions.txt	LTP269	ltpFR	5	1	0	GLASS	639	n/a	n/a	1	n/a	n/a	n/a	n/a	n/a
467.096	n/a	REC_WORD	233548	wordpools/wasnorm_wordpool_less_exclusions.txt	LTP269	ltpFR	5	1	1	PAGE	1001	n/a	n/a	0	n/a	n/a	n/a	n/a	n/a
473.382	n/a	REC_WORD	236691	wordpools/wasnorm_wordpool_less_exclusions.txt	LTP269	ltpFR	5	1	1	CAFETERIA	217	n/a	n/a	0	n/a	n/a	n/a	n/a	n/a
489.436	n/a	REC_WORD	244718	wordpools/wasnorm_wordpool_less_exclusions.txt	LTP269	ltpFR	5	1	0	OX	994	n/a	n/a	1	n/a	n/a	n/a	n/a	n/a
500.034	n/a	REC_WORD	250017	wordpools/wasnorm_wordpool_less_exclusions.txt	LTP269	ltpFR	5	1	0	ANTEATER	26	n/a	n/a	1	n/a	n/a	n/a	n/a	n/a
506.972	n/a	REC_WORD	253486	wordpools/wasnorm_wordpool_less_exclusions.txt	LTP269	ltpFR	5	1	0	MARINE	869	n/a	n/a	1	n/a	n/a	n/a	n/a	n/a
530.406	n/a	WORD	265203	wordpools/wasnorm_wordpool_less_exclusions.txt	LTP269	ltpFR	5	2	1	ENGINEER	536	n/a	n/a	1	0.422607421875	0.5869140625	0	lower	zerothre.ttf
534.404	n/a	WORD	267202	wordpools/wasnorm_wordpool_less_exclusions.txt	LTP269	ltpFR	5	2	1	BANJO	82	n/a	n/a	0	0.422607421875	0.5869140625	0	lower	zerothre.ttf
538.61	n/a	WORD	269305	wordpools/wasnorm_wordpool_less_exclusions.txt	LTP269	ltpFR	5	2	0	SANDWICH	1232	n/a	n/a	1	0.57763671875	0.412841796875	1	upper	amplitud.ttf
542.658	n/a	WORD	271329	wordpools/wasnorm_wordpool_less_exclusions.txt	LTP269	ltpFR	5	2	0	TREE	1502	n/a	n/a	1	0.57763671875	0.412841796875	1	upper	amplitud.ttf
546.79	n/a	WORD	273395	wordpools/wasnorm_wordpool_less_exclusions.txt	LTP269	ltpFR	5	2	0	RECIPE	1175	n/a	n/a	0	0.57763671875	0.412841796875	1	upper	amplitud.ttf
550.806	n/a	WORD	275403	wordpools/wasnorm_wordpool_less_exclusions.txt	LTP269	ltpFR	5	2	0	PRINCESS	1125	n/a	n/a	1	0.57763671875	0.412841796875	1	upper	amplitud.ttf
554.682	n/a	WORD	277341	wordpools/wasnorm_wordpool_less_exclusions.txt	LTP269	ltpFR	5	2	0	SERGEANT	1269	n/a	n/a	1	0.57763671875	0.412841796875	1	upper	amplitud.ttf
558.57	n/a	WORD	279285	wordpools/wasnorm_wordpool_less_exclusions.txt	LTP269	ltpFR	5	2	1	FLOOR	581	n/a	n/a	0	0.422607421875	0.5869140625	0	lower	zerothre.ttf
562.684	n/a	WORD	281342	wordpools/wasnorm_wordpool_less_exclusions.txt	LTP269	ltpFR	5	2	1	TILE	1468	n/a	n/a	0	0.422607421875	0.5869140625	0	lower	zerothre.ttf
566.762	n/a	WORD	283381	wordpools/wasnorm_wordpool_less_exclusions.txt	LTP269	ltpFR	5	2	0	BRIDE	173	n/a	n/a	1	0.57763671875	0.412841796875	1	upper	amplitud.ttf
570.81	n/a	WORD	285405	wordpools/wasnorm_wordpool_less_exclusions.txt	LTP269	ltpFR	5	2	0	MAGICIAN	854	n/a	n/a	1	0.57763671875	0.412841796875	1	upper	amplitud.ttf
574.798	n/a	WORD	287399	wordpools/wasnorm_wordpool_less_exclusions.txt	LTP269	ltpFR	5	2	0	BUNNY	198	n/a	n/a	0	0.57763671875	0.412841796875	1	upper	amplitud.ttf
578.63	n/a	WORD	289315	wordpools/wasnorm_wordpool_less_exclusions.txt	LTP269	ltpFR	5	2	1	ELF	525	n/a	n/a	1	0.422607421875	0.5869140625	0	lower	zerothre.ttf
582.47	n/a	WORD	291235	wordpools/wasnorm_wordpool_less_exclusions.txt	LTP269	ltpFR	5	2	1	CHEF	290	n/a	n/a	1	0.422607421875	0.5869140625	0	lower	zerothre.ttf
586.586	n/a	WORD	293293	wordpools/wasnorm_wordpool_less_exclusions.txt	LTP269	ltpFR	5	2	1	TOMATO	1476	n/a	n/a	1	0.422607421875	0.5869140625	0	lower	zerothre.ttf
590.676	n/a	WORD	295338	wordpools/wasnorm_wordpool_less_exclusions.txt	LTP269	ltpFR	5	2	1	SCALLOP	1242	n/a	n/a	1	0.422607421875	0.5869140625	0	lower	zerothre.ttf
596.644	n/a	REC_START	298322	n/a	LTP269	ltpFR	5	2	n/a	n/a	n/a	n/a	n/a	n/a	n/a	n/a	n/a	n/a	n/a
598.192	n/a	REC_WORD	299096	wordpools/wasnorm_wordpool_less_exclusions.txt	LTP269	ltpFR	5	2	1	TOMATO	1476	n/a	n/a	1	n/a	n/a	n/a	n/a	n/a
599.16	n/a	REC_WORD	299580	wordpools/wasnorm_wordpool_less_exclusions.txt	LTP269	ltpFR	5	2	1	SCALLOP	1242	n/a	n/a	1	n/a	n/a	n/a	n/a	n/a
600.354	n/a	REC_WORD	300177	wordpools/wasnorm_wordpool_less_exclusions.txt	LTP269	ltpFR	5	2	0	SANDWICH	1232	n/a	n/a	1	n/a	n/a	n/a	n/a	n/a
601.62	n/a	REC_WORD	300810	wordpools/wasnorm_wordpool_less_exclusions.txt	LTP269	ltpFR	5	2	0	RECIPE	1175	n/a	n/a	0	n/a	n/a	n/a	n/a	n/a
604.762	n/a	REC_WORD	302381	wordpools/wasnorm_wordpool_less_exclusions.txt	LTP269	ltpFR	5	2	0	PRINCESS	1125	n/a	n/a	1	n/a	n/a	n/a	n/a	n/a
606.974	n/a	REC_WORD	303487	wordpools/wasnorm_wordpool_less_exclusions.txt	LTP269	ltpFR	5	2	1	ENGINEER	536	n/a	n/a	1	n/a	n/a	n/a	n/a	n/a
608.644	n/a	REC_WORD	304322	wordpools/wasnorm_wordpool_less_exclusions.txt	LTP269	ltpFR	5	2	1	CHEF	290	n/a	n/a	1	n/a	n/a	n/a	n/a	n/a
628.448	n/a	REC_WORD	314224	wordpools/wasnorm_wordpool_less_exclusions.txt	LTP269	ltpFR	5	2	1	TILE	1468	n/a	n/a	0	n/a	n/a	n/a	n/a	n/a
629.382	n/a	REC_WORD	314691	wordpools/wasnorm_wordpool_less_exclusions.txt	LTP269	ltpFR	5	2	1	FLOOR	581	n/a	n/a	0	n/a	n/a	n/a	n/a	n/a
675.984	n/a	WORD	337992	wordpools/wasnorm_wordpool_less_exclusions.txt	LTP269	ltpFR	5	3	0	GOAT	644	n/a	n/a	1	0.57763671875	0.412841796875	1	upper	amplitud.ttf
680.094	n/a	WORD	340047	wordpools/wasnorm_wordpool_less_exclusions.txt	LTP269	ltpFR	5	3	0	TERMITE	1451	n/a	n/a	0	0.57763671875	0.412841796875	1	upper	amplitud.ttf
684.0	n/a	WORD	342000	wordpools/wasnorm_wordpool_less_exclusions.txt	LTP269	ltpFR	5	3	0	CHIME	300	n/a	n/a	1	0.57763671875	0.412841796875	1	upper	amplitud.ttf
688.182	n/a	WORD	344091	wordpools/wasnorm_wordpool_less_exclusions.txt	LTP269	ltpFR	5	3	0	DEODORANT	448	n/a	n/a	0	0.57763671875	0.412841796875	1	upper	amplitud.ttf
692.296	n/a	WORD	346148	wordpools/wasnorm_wordpool_less_exclusions.txt	LTP269	ltpFR	5	3	0	COLESLAW	344	n/a	n/a	0	0.57763671875	0.412841796875	1	upper	amplitud.ttf
696.212	n/a	WORD	348106	wordpools/wasnorm_wordpool_less_exclusions.txt	LTP269	ltpFR	5	3	0	DINER	467	n/a	n/a	1	0.57763671875	0.412841796875	1	upper	amplitud.ttf
700.372	n/a	WORD	350186	wordpools/wasnorm_wordpool_less_exclusions.txt	LTP269	ltpFR	5	3	0	DIAMOND	458	n/a	n/a	0	0.57763671875	0.412841796875	1	upper	amplitud.ttf
704.21	n/a	WORD	352105	wordpools/wasnorm_wordpool_less_exclusions.txt	LTP269	ltpFR	5	3	0	DECK	443	n/a	n/a	1	0.57763671875	0.412841796875	1	upper	amplitud.ttf
708.192	n/a	WORD	354096	wordpools/wasnorm_wordpool_less_exclusions.txt	LTP269	ltpFR	5	3	0	ANCHOR	21	n/a	n/a	1	0.57763671875	0.412841796875	1	upper	amplitud.ttf
712.356	n/a	WORD	356178	wordpools/wasnorm_wordpool_less_exclusions.txt	LTP269	ltpFR	5	3	0	SPOOL	1356	n/a	n/a	0	0.57763671875	0.412841796875	1	upper	amplitud.ttf
716.2	n/a	WORD	358100	wordpools/wasnorm_wordpool_less_exclusions.txt	LTP269	ltpFR	5	3	0	BRIEFCASE	175	n/a	n/a	1	0.57763671875	0.412841796875	1	upper	amplitud.ttf
720.288	n/a	WORD	360144	wordpools/wasnorm_wordpool_less_exclusions.txt	LTP269	ltpFR	5	3	0	FLASK	576	n/a	n/a	0	0.57763671875	0.412841796875	1	upper	amplitud.ttf
724.47	n/a	WORD	362235	wordpools/wasnorm_wordpool_less_exclusions.txt	LTP269	ltpFR	5	3	0	SCREWDRIVER	1255	n/a	n/a	0	0.57763671875	0.412841796875	1	upper	amplitud.ttf
728.502	n/a	WORD	364251	wordpools/wasnorm_wordpool_less_exclusions.txt	LTP269	ltpFR	5	3	0	VEAL	1551	n/a	n/a	1	0.57763671875	0.412841796875	1	upper	amplitud.ttf
732.366	n/a	WORD	366183	wordpools/wasnorm_wordpool_less_exclusions.txt	LTP269	ltpFR	5	3	0	VINEGAR	1569	n/a	n/a	0	0.57763671875	0.412841796875	1	upper	amplitud.ttf
736.578	n/a	WORD	368289	wordpools/wasnorm_wordpool_less_exclusions.txt	LTP269	ltpFR	5	3	0	DESSERT	453	n/a	n/a	0	0.57763671875	0.412841796875	1	upper	amplitud.ttf
742.434	n/a	REC_START	371217	n/a	LTP269	ltpFR	5	3	n/a	n/a	n/a	n/a	n/a	n/a	n/a	n/a	n/a	n/a	n/a
742.91	n/a	REC_WORD	371455	wordpools/wasnorm_wordpool_less_exclusions.txt	LTP269	ltpFR	5	3	0	DESSERT	453	n/a	n/a	0	n/a	n/a	n/a	n/a	n/a
744.108	n/a	REC_WORD	372054	wordpools/wasnorm_wordpool_less_exclusions.txt	LTP269	ltpFR	5	3	0	VINEGAR	1569	n/a	n/a	0	n/a	n/a	n/a	n/a	n/a
745.216	n/a	REC_WORD	372608	wordpools/wasnorm_wordpool_less_exclusions.txt	LTP269	ltpFR	5	3	0	VEAL	1551	n/a	n/a	1	n/a	n/a	n/a	n/a	n/a
746.52	n/a	REC_WORD	373260	wordpools/wasnorm_wordpool_less_exclusions.txt	LTP269	ltpFR	5	3	0	DINER	467	n/a	n/a	1	n/a	n/a	n/a	n/a	n/a
747.584	n/a	REC_WORD	373792	wordpools/wasnorm_wordpool_less_exclusions.txt	LTP269	ltpFR	5	3	0	COLESLAW	344	n/a	n/a	0	n/a	n/a	n/a	n/a	n/a
749.336	n/a	REC_WORD	374668	wordpools/wasnorm_wordpool_less_exclusions.txt	LTP269	ltpFR	5	3	0	TERMITE	1451	n/a	n/a	0	n/a	n/a	n/a	n/a	n/a
753.2	n/a	REC_WORD	376600	wordpools/wasnorm_wordpool_less_exclusions.txt	LTP269	ltpFR	5	3	0	GOAT	644	n/a	n/a	1	n/a	n/a	n/a	n/a	n/a
829.514	n/a	WORD	414757	wordpools/wasnorm_wordpool_less_exclusions.txt	LTP269	ltpFR	5	4	1	CATHEDRAL	260	n/a	n/a	0	0.422607421875	0.5869140625	0	lower	zerothre.ttf
833.554	n/a	WORD	416777	wordpools/wasnorm_wordpool_less_exclusions.txt	LTP269	ltpFR	5	4	1	MONASTERY	907	n/a	n/a	0	0.422607421875	0.5869140625	0	lower	zerothre.ttf
837.496	n/a	WORD	418748	wordpools/wasnorm_wordpool_less_exclusions.txt	LTP269	ltpFR	5	4	1	BLOCKADE	137	n/a	n/a	0	0.422607421875	0.5869140625	0	lower	zerothre.ttf
841.68	n/a	WORD	420840	wordpools/wasnorm_wordpool_less_exclusions.txt	LTP269	ltpFR	5	4	1	WALL	1582	n/a	n/a	0	0.422607421875	0.5869140625	0	lower	zerothre.ttf
845.65	n/a	WORD	422825	wordpools/wasnorm_wordpool_less_exclusions.txt	LTP269	ltpFR	5	4	1	TURNIP	1521	n/a	n/a	1	0.422607421875	0.5869140625	0	lower	zerothre.ttf
849.496	n/a	WORD	424748	wordpools/wasnorm_wordpool_less_exclusions.txt	LTP269	ltpFR	5	4	1	BISON	131	n/a	n/a	1	0.422607421875	0.5869140625	0	lower	zerothre.ttf
853.58	n/a	WORD	426790	wordpools/wasnorm_wordpool_less_exclusions.txt	LTP269	ltpFR	5	4	1	PORPOISE	1109	n/a	n/a	1	0.422607421875	0.5869140625	0	lower	zerothre.ttf
857.68	n/a	WORD	428840	wordpools/wasnorm_wordpool_less_exclusions.txt	LTP269	ltpFR	5	4	1	CHECKERS	285	n/a	n/a	0	0.422607421875	0.5869140625	0	lower	zerothre.ttf
861.772	n/a	WORD	430886	wordpools/wasnorm_wordpool_less_exclusions.txt	LTP269	ltpFR	5	4	1	DILL	465	n/a	n/a	1	0.422607421875	0.5869140625	0	lower	zerothre.ttf
865.86	n/a	WORD	432930	wordpools/wasnorm_wordpool_less_exclusions.txt	LTP269	ltpFR	5	4	1	DOUGHNUT	490	n/a	n/a	0	0.422607421875	0.5869140625	0	lower	zerothre.ttf
869.892	n/a	WORD	434946	wordpools/wasnorm_wordpool_less_exclusions.txt	LTP269	ltpFR	5	4	1	DUCK	504	n/a	n/a	1	0.422607421875	0.5869140625	0	lower	zerothre.ttf
873.824	n/a	WORD	436912	wordpools/wasnorm_wordpool_less_exclusions.txt	LTP269	ltpFR	5	4	1	PELICAN	1039	n/a	n/a	1	0.422607421875	0.5869140625	0	lower	zerothre.ttf
877.822	n/a	WORD	438911	wordpools/wasnorm_wordpool_less_exclusions.txt	LTP269	ltpFR	5	4	1	FRIAR	605	n/a	n/a	1	0.422607421875	0.5869140625	0	lower	zerothre.ttf
881.922	n/a	WORD	440961	wordpools/wasnorm_wordpool_less_exclusions.txt	LTP269	ltpFR	5	4	1	TWIG	1527	n/a	n/a	0	0.422607421875	0.5869140625	0	lower	zerothre.ttf
885.748	n/a	WORD	442874	wordpools/wasnorm_wordpool_less_exclusions.txt	LTP269	ltpFR	5	4	1	CHESS	294	n/a	n/a	0	0.422607421875	0.5869140625	0	lower	zerothre.ttf
889.736	n/a	WORD	444868	wordpools/wasnorm_wordpool_less_exclusions.txt	LTP269	ltpFR	5	4	1	FUR	615	n/a	n/a	0	0.422607421875	0.5869140625	0	lower	zerothre.ttf
895.626	n/a	REC_START	447813	n/a	LTP269	ltpFR	5	4	n/a	n/a	n/a	n/a	n/a	n/a	n/a	n/a	n/a	n/a	n/a
896.128	n/a	REC_WORD	448064	wordpools/wasnorm_wordpool_less_exclusions.txt	LTP269	ltpFR	5	4	1	FUR	615	n/a	n/a	0	n/a	n/a	n/a	n/a	n/a
897.264	n/a	REC_WORD	448632	wordpools/wasnorm_wordpool_less_exclusions.txt	LTP269	ltpFR	5	4	1	CHESS	294	n/a	n/a	0	n/a	n/a	n/a	n/a	n/a
898.184	n/a	REC_WORD	449092	wordpools/wasnorm_wordpool_less_exclusions.txt	LTP269	ltpFR	5	4	1	CHECKERS	285	n/a	n/a	0	n/a	n/a	n/a	n/a	n/a
899.396	n/a	REC_WORD	449698	wordpools/wasnorm_wordpool_less_exclusions.txt	LTP269	ltpFR	5	4	1	FRIAR	605	n/a	n/a	1	n/a	n/a	n/a	n/a	n/a
900.782	n/a	REC_WORD	450391	wordpools/wasnorm_wordpool_less_exclusions.txt	LTP269	ltpFR	5	4	1	MONASTERY	907	n/a	n/a	0	n/a	n/a	n/a	n/a	n/a
901.97	n/a	REC_WORD	450985	wordpools/wasnorm_wordpool_less_exclusions.txt	LTP269	ltpFR	5	4	1	CATHEDRAL	260	n/a	n/a	0	n/a	n/a	n/a	n/a	n/a
903.422	n/a	REC_WORD	451711	wordpools/wasnorm_wordpool_less_exclusions.txt	LTP269	ltpFR	5	4	1	WALL	1582	n/a	n/a	0	n/a	n/a	n/a	n/a	n/a
905.578	n/a	REC_WORD	452789	wordpools/wasnorm_wordpool_less_exclusions.txt	LTP269	ltpFR	5	4	1	TURNIP	1521	n/a	n/a	1	n/a	n/a	n/a	n/a	n/a
918.166	n/a	REC_WORD	459083	wordpools/wasnorm_wordpool_less_exclusions.txt	LTP269	ltpFR	5	4	1	BLOCKADE	137	n/a	n/a	0	n/a	n/a	n/a	n/a	n/a
976.226	n/a	WORD	488113	wordpools/wasnorm_wordpool_less_exclusions.txt	LTP269	ltpFR	5	5	0	DIAGRAM	456	n/a	n/a	0	0.57763671875	0.412841796875	1	upper	amplitud.ttf
980.264	n/a	WORD	490132	wordpools/wasnorm_wordpool_less_exclusions.txt	LTP269	ltpFR	5	5	0	RAM	1165	n/a	n/a	1	0.57763671875	0.412841796875	1	upper	amplitud.ttf
984.13	n/a	WORD	492065	wordpools/wasnorm_wordpool_less_exclusions.txt	LTP269	ltpFR	5	5	0	TORTOISE	1486	n/a	n/a	1	0.57763671875	0.412841796875	1	upper	amplitud.ttf
988.088	n/a	WORD	494044	wordpools/wasnorm_wordpool_less_exclusions.txt	LTP269	ltpFR	5	5	0	DOCK	477	n/a	n/a	1	0.57763671875	0.412841796875	1	upper	amplitud.ttf
992.204	n/a	WORD	496102	wordpools/wasnorm_wordpool_less_exclusions.txt	LTP269	ltpFR	5	5	0	DRAWING	494	n/a	n/a	0	0.57763671875	0.412841796875	1	upper	amplitud.ttf
996.27	n/a	WORD	498135	wordpools/wasnorm_wordpool_less_exclusions.txt	LTP269	ltpFR	5	5	0	CHILD	299	n/a	n/a	1	0.57763671875	0.412841796875	1	upper	amplitud.ttf
1000.352	n/a	WORD	500176	wordpools/wasnorm_wordpool_less_exclusions.txt	LTP269	ltpFR	5	5	0	CELLAR	267	n/a	n/a	1	0.57763671875	0.412841796875	1	upper	amplitud.ttf
1004.484	n/a	WORD	502242	wordpools/wasnorm_wordpool_less_exclusions.txt	LTP269	ltpFR	5	5	0	LOCK	838	n/a	n/a	0	0.57763671875	0.412841796875	1	upper	amplitud.ttf
1008.422	n/a	WORD	504211	wordpools/wasnorm_wordpool_less_exclusions.txt	LTP269	ltpFR	5	5	0	COTTON	385	n/a	n/a	0	0.57763671875	0.412841796875	1	upper	amplitud.ttf
1012.414	n/a	WORD	506207	wordpools/wasnorm_wordpool_less_exclusions.txt	LTP269	ltpFR	5	5	0	MESSAGE	888	n/a	n/a	1	0.57763671875	0.412841796875	1	upper	amplitud.ttf
1016.518	n/a	WORD	508259	wordpools/wasnorm_wordpool_less_exclusions.txt	LTP269	ltpFR	5	5	0	TORNADO	1485	n/a	n/a	1	0.57763671875	0.412841796875	1	upper	amplitud.ttf
1020.546	n/a	WORD	510273	wordpools/wasnorm_wordpool_less_exclusions.txt	LTP269	ltpFR	5	5	0	HURRICANE	727	n/a	n/a	1	0.57763671875	0.412841796875	1	upper	amplitud.ttf
1024.7	n/a	WORD	512350	wordpools/wasnorm_wordpool_less_exclusions.txt	LTP269	ltpFR	5	5	0	CAPTAIN	239	n/a	n/a	1	0.57763671875	0.412841796875	1	upper	amplitud.ttf
1028.728	n/a	WORD	514364	wordpools/wasnorm_wordpool_less_exclusions.txt	LTP269	ltpFR	5	5	0	EMPLOYER	532	n/a	n/a	1	0.57763671875	0.412841796875	1	upper	amplitud.ttf
1032.932	n/a	WORD	516466	wordpools/wasnorm_wordpool_less_exclusions.txt	LTP269	ltpFR	5	5	0	EMPIRE	530	n/a	n/a	1	0.57763671875	0.412841796875	1	upper	amplitud.ttf
1036.98	n/a	WORD	518490	wordpools/wasnorm_wordpool_less_exclusions.txt	LTP269	ltpFR	5	5	0	NOTE	958	n/a	n/a	0	0.57763671875	0.412841796875	1	upper	amplitud.ttf
1042.832	n/a	REC_START	521416	n/a	LTP269	ltpFR	5	5	n/a	n/a	n/a	n/a	n/a	n/a	n/a	n/a	n/a	n/a	n/a
1043.236	n/a	REC_WORD	521618	wordpools/wasnorm_wordpool_less_exclusions.txt	LTP269	ltpFR	5	5	0	NOTE	958	n/a	n/a	0	n/a	n/a	n/a	n/a	n/a
1044.12	n/a	REC_WORD	522060	wordpools/wasnorm_wordpool_less_exclusions.txt	LTP269	ltpFR	5	5	0	MESSAGE	888	n/a	n/a	1	n/a	n/a	n/a	n/a	n/a
1045.382	n/a	REC_WORD	522691	wordpools/wasnorm_wordpool_less_exclusions.txt	LTP269	ltpFR	5	5	0	CAPTAIN	239	n/a	n/a	1	n/a	n/a	n/a	n/a	n/a
1047.374	n/a	REC_WORD	523687	wordpools/wasnorm_wordpool_less_exclusions.txt	LTP269	ltpFR	5	5	0	DOCK	477	n/a	n/a	1	n/a	n/a	n/a	n/a	n/a
1052.12	n/a	REC_WORD	526060	wordpools/wasnorm_wordpool_less_exclusions.txt	LTP269	ltpFR	5	5	0	COTTON	385	n/a	n/a	0	n/a	n/a	n/a	n/a	n/a
1054.046	n/a	REC_WORD	527023	wordpools/wasnorm_wordpool_less_exclusions.txt	LTP269	ltpFR	5	5	0	DIAGRAM	456	n/a	n/a	0	n/a	n/a	n/a	n/a	n/a
1055.326	n/a	REC_WORD	527663	wordpools/wasnorm_wordpool_less_exclusions.txt	LTP269	ltpFR	5	5	0	DRAWING	494	n/a	n/a	0	n/a	n/a	n/a	n/a	n/a
1069.318	n/a	REC_WORD	534659	wordpools/wasnorm_wordpool_less_exclusions.txt	LTP269	ltpFR	5	5	0	CHILD	299	n/a	n/a	1	n/a	n/a	n/a	n/a	n/a
1086.43	n/a	REC_WORD	543215	wordpools/wasnorm_wordpool_less_exclusions.txt	LTP269	ltpFR	5	5	0	RAM	1165	n/a	n/a	1	n/a	n/a	n/a	n/a	n/a
1124.65	n/a	WORD	562325	wordpools/wasnorm_wordpool_less_exclusions.txt	LTP269	ltpFR	5	6	-1	SPARROW	1347	n/a	n/a	-1	1.0	1.0	1	upper	Verdana.ttf
1128.608	n/a	WORD	564304	wordpools/wasnorm_wordpool_less_exclusions.txt	LTP269	ltpFR	5	6	-1	PARROT	1015	n/a	n/a	-1	1.0	1.0	1	upper	Verdana.ttf
1132.708	n/a	WORD	566354	wordpools/wasnorm_wordpool_less_exclusions.txt	LTP269	ltpFR	5	6	-1	TREAD	1499	n/a	n/a	-1	1.0	1.0	1	upper	Verdana.ttf
1136.78	n/a	WORD	568390	wordpools/wasnorm_wordpool_less_exclusions.txt	LTP269	ltpFR	5	6	-1	PLUTO	1092	n/a	n/a	-1	1.0	1.0	1	upper	Verdana.ttf
1140.872	n/a	WORD	570436	wordpools/wasnorm_wordpool_less_exclusions.txt	LTP269	ltpFR	5	6	-1	CHIP	303	n/a	n/a	-1	1.0	1.0	1	upper	Verdana.ttf
1144.76	n/a	WORD	572380	wordpools/wasnorm_wordpool_less_exclusions.txt	LTP269	ltpFR	5	6	-1	HERO	706	n/a	n/a	-1	1.0	1.0	1	upper	Verdana.ttf
1148.942	n/a	WORD	574471	wordpools/wasnorm_wordpool_less_exclusions.txt	LTP269	ltpFR	5	6	-1	SAUSAGE	1238	n/a	n/a	-1	1.0	1.0	1	upper	Verdana.ttf
1153.07	n/a	WORD	576535	wordpools/wasnorm_wordpool_less_exclusions.txt	LTP269	ltpFR	5	6	-1	MOOSE	915	n/a	n/a	-1	1.0	1.0	1	upper	Verdana.ttf
1157.124	n/a	WORD	578562	wordpools/wasnorm_wordpool_less_exclusions.txt	LTP269	ltpFR	5	6	-1	DESIGNER	451	n/a	n/a	-1	1.0	1.0	1	upper	Verdana.ttf
1161.206	n/a	WORD	580603	wordpools/wasnorm_wordpool_less_exclusions.txt	LTP269	ltpFR	5	6	-1	DETERGENT	455	n/a	n/a	-1	1.0	1.0	1	upper	Verdana.ttf
1165.12	n/a	WORD	582560	wordpools/wasnorm_wordpool_less_exclusions.txt	LTP269	ltpFR	5	6	-1	PIGMENT	1066	n/a	n/a	-1	1.0	1.0	1	upper	Verdana.ttf
1169.096	n/a	WORD	584548	wordpools/wasnorm_wordpool_less_exclusions.txt	LTP269	ltpFR	5	6	-1	FLIPPER	580	n/a	n/a	-1	1.0	1.0	1	upper	Verdana.ttf
1173.002	n/a	WORD	586501	wordpools/wasnorm_wordpool_less_exclusions.txt	LTP269	ltpFR	5	6	-1	SHRIMP	1297	n/a	n/a	-1	1.0	1.0	1	upper	Verdana.ttf
1176.95	n/a	WORD	588475	wordpools/wasnorm_wordpool_less_exclusions.txt	LTP269	ltpFR	5	6	-1	SIRLOIN	1311	n/a	n/a	-1	1.0	1.0	1	upper	Verdana.ttf
1180.814	n/a	WORD	590407	wordpools/wasnorm_wordpool_less_exclusions.txt	LTP269	ltpFR	5	6	-1	GODDESS	646	n/a	n/a	-1	1.0	1.0	1	upper	Verdana.ttf
1184.83	n/a	WORD	592415	wordpools/wasnorm_wordpool_less_exclusions.txt	LTP269	ltpFR	5	6	-1	GAZELLE	628	n/a	n/a	-1	1.0	1.0	1	upper	Verdana.ttf
1190.48	n/a	REC_START	595240	n/a	LTP269	ltpFR	5	6	n/a	n/a	n/a	n/a	n/a	n/a	n/a	n/a	n/a	n/a	n/a
1191.35	n/a	REC_WORD	595675	wordpools/wasnorm_wordpool_less_exclusions.txt	LTP269	ltpFR	5	6	-1	GODDESS	646	n/a	n/a	-1	n/a	n/a	n/a	n/a	n/a
1192.292	n/a	REC_WORD	596146	wordpools/wasnorm_wordpool_less_exclusions.txt	LTP269	ltpFR	5	6	-1	GAZELLE	628	n/a	n/a	-1	n/a	n/a	n/a	n/a	n/a
1199.06	n/a	REC_WORD	599530	wordpools/wasnorm_wordpool_less_exclusions.txt	LTP269	ltpFR	5	6	-1	SIRLOIN	1311	n/a	n/a	-1	n/a	n/a	n/a	n/a	n/a
1209.202	n/a	REC_WORD	604601	wordpools/wasnorm_wordpool_less_exclusions.txt	LTP269	ltpFR	5	6	-1	SPARROW	1347	n/a	n/a	-1	n/a	n/a	n/a	n/a	n/a
1210.124	n/a	REC_WORD	605062	wordpools/wasnorm_wordpool_less_exclusions.txt	LTP269	ltpFR	5	6	-1	PARROT	1015	n/a	n/a	-1	n/a	n/a	n/a	n/a	n/a
1212.432	n/a	REC_WORD	606216	wordpools/wasnorm_wordpool_less_exclusions.txt	LTP269	ltpFR	5	6	-1	TREAD	1499	n/a	n/a	-1	n/a	n/a	n/a	n/a	n/a
1271.11	n/a	WORD	635555	wordpools/wasnorm_wordpool_less_exclusions.txt	LTP269	ltpFR	5	7	1	JUG	762	n/a	n/a	0	0.422607421875	0.5869140625	0	lower	zerothre.ttf
1274.974	n/a	WORD	637487	wordpools/wasnorm_wordpool_less_exclusions.txt	LTP269	ltpFR	5	7	1	CORPORATION	382	n/a	n/a	0	0.422607421875	0.5869140625	0	lower	zerothre.ttf
1278.9	n/a	WORD	639450	wordpools/wasnorm_wordpool_less_exclusions.txt	LTP269	ltpFR	5	7	0	MANSION	864	n/a	n/a	1	0.57763671875	0.412841796875	1	upper	amplitud.ttf
1282.814	n/a	WORD	641407	wordpools/wasnorm_wordpool_less_exclusions.txt	LTP269	ltpFR	5	7	0	BELT	120	n/a	n/a	0	0.57763671875	0.412841796875	1	upper	amplitud.ttf
1286.786	n/a	WORD	643393	wordpools/wasnorm_wordpool_less_exclusions.txt	LTP269	ltpFR	5	7	0	PEAR	1033	n/a	n/a	0	0.57763671875	0.412841796875	1	upper	amplitud.ttf
1290.662	n/a	WORD	645331	wordpools/wasnorm_wordpool_less_exclusions.txt	LTP269	ltpFR	5	7	1	COOLER	375	n/a	n/a	1	0.422607421875	0.5869140625	0	lower	zerothre.ttf
1294.498	n/a	WORD	647249	wordpools/wasnorm_wordpool_less_exclusions.txt	LTP269	ltpFR	5	7	1	AGENT	10	n/a	n/a	1	0.422607421875	0.5869140625	0	lower	zerothre.ttf
1298.442	n/a	WORD	649221	wordpools/wasnorm_wordpool_less_exclusions.txt	LTP269	ltpFR	5	7	1	UMPIRE	1535	n/a	n/a	1	0.422607421875	0.5869140625	0	lower	zerothre.ttf
1302.46	n/a	WORD	651230	wordpools/wasnorm_wordpool_less_exclusions.txt	LTP269	ltpFR	5	7	0	TERRITORY	1452	n/a	n/a	1	0.57763671875	0.412841796875	1	upper	amplitud.ttf
1306.646	n/a	WORD	653323	wordpools/wasnorm_wordpool_less_exclusions.txt	LTP269	ltpFR	5	7	0	BROOK	177	n/a	n/a	0	0.57763671875	0.412841796875	1	upper	amplitud.ttf
1310.76	n/a	WORD	655380	wordpools/wasnorm_wordpool_less_exclusions.txt	LTP269	ltpFR	5	7	0	SKI	1316	n/a	n/a	1	0.57763671875	0.412841796875	1	upper	amplitud.ttf
1314.676	n/a	WORD	657338	wordpools/wasnorm_wordpool_less_exclusions.txt	LTP269	ltpFR	5	7	0	MAT	877	n/a	n/a	1	0.57763671875	0.412841796875	1	upper	amplitud.ttf
1318.774	n/a	WORD	659387	wordpools/wasnorm_wordpool_less_exclusions.txt	LTP269	ltpFR	5	7	0	PERSONNEL	1053	n/a	n/a	1	0.57763671875	0.412841796875	1	upper	amplitud.ttf
1322.902	n/a	WORD	661451	wordpools/wasnorm_wordpool_less_exclusions.txt	LTP269	ltpFR	5	7	1	BANANA	77	n/a	n/a	1	0.422607421875	0.5869140625	0	lower	zerothre.ttf
1327.022	n/a	WORD	663511	wordpools/wasnorm_wordpool_less_exclusions.txt	LTP269	ltpFR	5	7	1	RACCOON	1153	n/a	n/a	1	0.422607421875	0.5869140625	0	lower	zerothre.ttf
1330.972	n/a	WORD	665486	wordpools/wasnorm_wordpool_less_exclusions.txt	LTP269	ltpFR	5	7	1	CHIPMUNK	304	n/a	n/a	1	0.422607421875	0.5869140625	0	lower	zerothre.ttf
1336.638	n/a	REC_START	668319	n/a	LTP269	ltpFR	5	7	n/a	n/a	n/a	n/a	n/a	n/a	n/a	n/a	n/a	n/a	n/a
1337.606	n/a	REC_WORD	668803	wordpools/wasnorm_wordpool_less_exclusions.txt	LTP269	ltpFR	5	7	1	CHIPMUNK	304	n/a	n/a	1	n/a	n/a	n/a	n/a	n/a
1338.606	n/a	REC_WORD	669303	wordpools/wasnorm_wordpool_less_exclusions.txt	LTP269	ltpFR	5	7	1	RACCOON	1153	n/a	n/a	1	n/a	n/a	n/a	n/a	n/a
1345.76	n/a	REC_WORD	672880	wordpools/wasnorm_wordpool_less_exclusions.txt	LTP269	ltpFR	5	7	0	PERSONNEL	1053	n/a	n/a	1	n/a	n/a	n/a	n/a	n/a
1349.64	n/a	REC_WORD	674820	wordpools/wasnorm_wordpool_less_exclusions.txt	LTP269	ltpFR	5	7	1	CORPORATION	382	n/a	n/a	0	n/a	n/a	n/a	n/a	n/a
1350.898	n/a	REC_WORD	675449	wordpools/wasnorm_wordpool_less_exclusions.txt	LTP269	ltpFR	5	7	0	MANSION	864	n/a	n/a	1	n/a	n/a	n/a	n/a	n/a
1353.114	n/a	REC_WORD	676557	wordpools/wasnorm_wordpool_less_exclusions.txt	LTP269	ltpFR	5	7	0	BROOK	177	n/a	n/a	0	n/a	n/a	n/a	n/a	n/a
1384.234	n/a	REC_WORD	692117	wordpools/wasnorm_wordpool_less_exclusions.txt	LTP269	ltpFR	5	7	0	BELT	120	n/a	n/a	0	n/a	n/a	n/a	n/a	n/a
1385.13	n/a	REC_WORD	692565	wordpools/wasnorm_wordpool_less_exclusions.txt	LTP269	ltpFR	5	7	0	PEAR	1033	n/a	n/a	0	n/a	n/a	n/a	n/a	n/a
1420.732	n/a	WORD	710366	wordpools/wasnorm_wordpool_less_exclusions.txt	LTP269	ltpFR	5	8	0	SUPERMARKET	1409	n/a	n/a	1	0.57763671875	0.412841796875	1	upper	amplitud.ttf
1424.764	n/a	WORD	712382	wordpools/wasnorm_wordpool_less_exclusions.txt	LTP269	ltpFR	5	8	0	CRAB	397	n/a	n/a	0	0.57763671875	0.412841796875	1	upper	amplitud.ttf
1428.722	n/a	WORD	714361	wordpools/wasnorm_wordpool_less_exclusions.txt	LTP269	ltpFR	5	8	0	EDITOR	516	n/a	n/a	1	0.57763671875	0.412841796875	1	upper	amplitud.ttf
1432.626	n/a	WORD	716313	wordpools/wasnorm_wordpool_less_exclusions.txt	LTP269	ltpFR	5	8	1	HUMAN	726	n/a	n/a	1	0.422607421875	0.5869140625	0	lower	zerothre.ttf
1436.676	n/a	WORD	718338	wordpools/wasnorm_wordpool_less_exclusions.txt	LTP269	ltpFR	5	8	1	HOSE	720	n/a	n/a	0	0.422607421875	0.5869140625	0	lower	zerothre.ttf
1440.522	n/a	WORD	720261	wordpools/wasnorm_wordpool_less_exclusions.txt	LTP269	ltpFR	5	8	1	BREAST	171	n/a	n/a	0	0.422607421875	0.5869140625	0	lower	zerothre.ttf
1444.606	n/a	WORD	722303	wordpools/wasnorm_wordpool_less_exclusions.txt	LTP269	ltpFR	5	8	1	BOWL	158	n/a	n/a	0	0.422607421875	0.5869140625	0	lower	zerothre.ttf
1448.648	n/a	WORD	724324	wordpools/wasnorm_wordpool_less_exclusions.txt	LTP269	ltpFR	5	8	0	REFEREE	1178	n/a	n/a	1	0.57763671875	0.412841796875	1	upper	amplitud.ttf
1452.528	n/a	WORD	726264	wordpools/wasnorm_wordpool_less_exclusions.txt	LTP269	ltpFR	5	8	0	BASEBALL	93	n/a	n/a	1	0.57763671875	0.412841796875	1	upper	amplitud.ttf
1456.736	n/a	WORD	728368	wordpools/wasnorm_wordpool_less_exclusions.txt	LTP269	ltpFR	5	8	1	SKILLET	1317	n/a	n/a	0	0.422607421875	0.5869140625	0	lower	zerothre.ttf
1460.8	n/a	WORD	730400	wordpools/wasnorm_wordpool_less_exclusions.txt	LTP269	ltpFR	5	8	1	WATER	1594	n/a	n/a	0	0.422607421875	0.5869140625	0	lower	zerothre.ttf
1464.9	n/a	WORD	732450	wordpools/wasnorm_wordpool_less_exclusions.txt	LTP269	ltpFR	5	8	1	HEN	703	n/a	n/a	1	0.422607421875	0.5869140625	0	lower	zerothre.ttf
1468.848	n/a	WORD	734424	wordpools/wasnorm_wordpool_less_exclusions.txt	LTP269	ltpFR	5	8	1	JURY	766	n/a	n/a	0	0.422607421875	0.5869140625	0	lower	zerothre.ttf
1472.74	n/a	WORD	736370	wordpools/wasnorm_wordpool_less_exclusions.txt	LTP269	ltpFR	5	8	0	APRON	35	n/a	n/a	0	0.57763671875	0.412841796875	1	upper	amplitud.ttf
1476.572	n/a	WORD	738286	wordpools/wasnorm_wordpool_less_exclusions.txt	LTP269	ltpFR	5	8	0	KEY	773	n/a	n/a	0	0.57763671875	0.412841796875	1	upper	amplitud.ttf
1480.726	n/a	WORD	740363	wordpools/wasnorm_wordpool_less_exclusions.txt	LTP269	ltpFR	5	8	0	KNOB	787	n/a	n/a	0	0.57763671875	0.412841796875	1	upper	amplitud.ttf
1486.694	n/a	REC_START	743347	n/a	LTP269	ltpFR	5	8	n/a	n/a	n/a	n/a	n/a	n/a	n/a	n/a	n/a	n/a	n/a
1488.088	n/a	REC_WORD	744044	wordpools/wasnorm_wordpool_less_exclusions.txt	LTP269	ltpFR	5	8	0	KEY	773	n/a	n/a	0	n/a	n/a	n/a	n/a	n/a
1489.296	n/a	REC_WORD	744648	wordpools/wasnorm_wordpool_less_exclusions.txt	LTP269	ltpFR	5	8	0	APRON	35	n/a	n/a	0	n/a	n/a	n/a	n/a	n/a
1490.354	n/a	REC_WORD	745177	wordpools/wasnorm_wordpool_less_exclusions.txt	LTP269	ltpFR	5	8	0	KNOB	787	n/a	n/a	0	n/a	n/a	n/a	n/a	n/a
1495.666	n/a	REC_WORD	747833	wordpools/wasnorm_wordpool_less_exclusions.txt	LTP269	ltpFR	5	8	0	EDITOR	516	n/a	n/a	1	n/a	n/a	n/a	n/a	n/a
1497.834	n/a	REC_WORD	748917	wordpools/wasnorm_wordpool_less_exclusions.txt	LTP269	ltpFR	5	8	0	REFEREE	1178	n/a	n/a	1	n/a	n/a	n/a	n/a	n/a
1499.15	n/a	REC_WORD	749575	wordpools/wasnorm_wordpool_less_exclusions.txt	LTP269	ltpFR	5	8	0	BASEBALL	93	n/a	n/a	1	n/a	n/a	n/a	n/a	n/a
1545.052	n/a	REC_WORD	772526	wordpools/wasnorm_wordpool_less_exclusions.txt	LTP269	ltpFR	5	8	0	CRAB	397	n/a	n/a	0	n/a	n/a	n/a	n/a	n/a
1548.774	n/a	REC_WORD	774387	wordpools/wasnorm_wordpool_less_exclusions.txt	LTP269	ltpFR	5	8	0	SUPERMARKET	1409	n/a	n/a	1	n/a	n/a	n/a	n/a	n/a
1562.366	n/a	REST_REWET	781183	n/a	LTP269	ltpFR	5	8	n/a	n/a	n/a	n/a	n/a	n/a	n/a	n/a	n/a	n/a	n/a
1911.072	n/a	WORD	955536	wordpools/wasnorm_wordpool_less_exclusions.txt	LTP269	ltpFR	5	9	-1	HEDGE	699	n/a	n/a	-1	1.0	1.0	1	upper	Verdana.ttf
1915.27	n/a	WORD	957635	wordpools/wasnorm_wordpool_less_exclusions.txt	LTP269	ltpFR	5	9	-1	MEADOW	881	n/a	n/a	-1	1.0	1.0	1	upper	Verdana.ttf
1919.386	n/a	WORD	959693	wordpools/wasnorm_wordpool_less_exclusions.txt	LTP269	ltpFR	5	9	-1	JUGGLER	763	n/a	n/a	-1	1.0	1.0	1	upper	Verdana.ttf
1923.312	n/a	WORD	961656	wordpools/wasnorm_wordpool_less_exclusions.txt	LTP269	ltpFR	5	9	-1	SENATOR	1268	n/a	n/a	-1	1.0	1.0	1	upper	Verdana.ttf
1927.178	n/a	WORD	963589	wordpools/wasnorm_wordpool_less_exclusions.txt	LTP269	ltpFR	5	9	-1	LACE	792	n/a	n/a	-1	1.0	1.0	1	upper	Verdana.ttf
1931.182	n/a	WORD	965591	wordpools/wasnorm_wordpool_less_exclusions.txt	LTP269	ltpFR	5	9	-1	ROSE	1212	n/a	n/a	-1	1.0	1.0	1	upper	Verdana.ttf
1935.358	n/a	WORD	967679	wordpools/wasnorm_wordpool_less_exclusions.txt	LTP269	ltpFR	5	9	-1	ATHLETE	52	n/a	n/a	-1	1.0	1.0	1	upper	Verdana.ttf
1939.512	n/a	WORD	969756	wordpools/wasnorm_wordpool_less_exclusions.txt	LTP269	ltpFR	5	9	-1	COUNTRY	388	n/a	n/a	-1	1.0	1.0	1	upper	Verdana.ttf
1943.378	n/a	WORD	971689	wordpools/wasnorm_wordpool_less_exclusions.txt	LTP269	ltpFR	5	9	-1	SADDLE	1221	n/a	n/a	-1	1.0	1.0	1	upper	Verdana.ttf
1947.494	n/a	WORD	973747	wordpools/wasnorm_wordpool_less_exclusions.txt	LTP269	ltpFR	5	9	-1	WHEAT	1602	n/a	n/a	-1	1.0	1.0	1	upper	Verdana.ttf
1951.502	n/a	WORD	975751	wordpools/wasnorm_wordpool_less_exclusions.txt	LTP269	ltpFR	5	9	-1	AUTHOR	61	n/a	n/a	-1	1.0	1.0	1	upper	Verdana.ttf
1955.624	n/a	WORD	977812	wordpools/wasnorm_wordpool_less_exclusions.txt	LTP269	ltpFR	5	9	-1	WRITER	1627	n/a	n/a	-1	1.0	1.0	1	upper	Verdana.ttf
1959.84	n/a	WORD	979920	wordpools/wasnorm_wordpool_less_exclusions.txt	LTP269	ltpFR	5	9	-1	CABIN	211	n/a	n/a	-1	1.0	1.0	1	upper	Verdana.ttf
1963.706	n/a	WORD	981853	wordpools/wasnorm_wordpool_less_exclusions.txt	LTP269	ltpFR	5	9	-1	LAKE	796	n/a	n/a	-1	1.0	1.0	1	upper	Verdana.ttf
1967.916	n/a	WORD	983958	wordpools/wasnorm_wordpool_less_exclusions.txt	LTP269	ltpFR	5	9	-1	TUB	1514	n/a	n/a	-1	1.0	1.0	1	upper	Verdana.ttf
1971.87	n/a	WORD	985935	wordpools/wasnorm_wordpool_less_exclusions.txt	LTP269	ltpFR	5	9	-1	STADIUM	1364	n/a	n/a	-1	1.0	1.0	1	upper	Verdana.ttf
1977.906	n/a	REC_START	988953	n/a	LTP269	ltpFR	5	9	n/a	n/a	n/a	n/a	n/a	n/a	n/a	n/a	n/a	n/a	n/a
1978.558	n/a	REC_WORD	989279	wordpools/wasnorm_wordpool_less_exclusions.txt	LTP269	ltpFR	5	9	-1	STADIUM	1364	n/a	n/a	-1	n/a	n/a	n/a	n/a	n/a
1979.888	n/a	REC_WORD	989944	wordpools/wasnorm_wordpool_less_exclusions.txt	LTP269	ltpFR	5	9	-1	CABIN	211	n/a	n/a	-1	n/a	n/a	n/a	n/a	n/a
1980.952	n/a	REC_WORD	990476	wordpools/wasnorm_wordpool_less_exclusions.txt	LTP269	ltpFR	5	9	-1	LAKE	796	n/a	n/a	-1	n/a	n/a	n/a	n/a	n/a
1984.706	n/a	REC_WORD	992353	wordpools/wasnorm_wordpool_less_exclusions.txt	LTP269	ltpFR	5	9	-1	SENATOR	1268	n/a	n/a	-1	n/a	n/a	n/a	n/a	n/a
1987.976	n/a	REC_WORD	993988	wordpools/wasnorm_wordpool_less_exclusions.txt	LTP269	ltpFR	5	9	-1	HEDGE	699	n/a	n/a	-1	n/a	n/a	n/a	n/a	n/a
1988.96	n/a	REC_WORD	994480	wordpools/wasnorm_wordpool_less_exclusions.txt	LTP269	ltpFR	5	9	-1	MEADOW	881	n/a	n/a	-1	n/a	n/a	n/a	n/a	n/a
1990.574	n/a	REC_WORD	995287	wordpools/wasnorm_wordpool_less_exclusions.txt	LTP269	ltpFR	5	9	-1	ROSE	1212	n/a	n/a	-1	n/a	n/a	n/a	n/a	n/a
1993.0	n/a	REC_WORD	996500	wordpools/wasnorm_wordpool_less_exclusions.txt	LTP269	ltpFR	5	9	-1	LACE	792	n/a	n/a	-1	n/a	n/a	n/a	n/a	n/a
1995.178	n/a	REC_WORD	997589	wordpools/wasnorm_wordpool_less_exclusions.txt	LTP269	ltpFR	5	9	-1	COUNTRY	388	n/a	n/a	-1	n/a	n/a	n/a	n/a	n/a
2012.534	n/a	REC_WORD	1006267	wordpools/wasnorm_wordpool_less_exclusions.txt	LTP269	ltpFR	5	9	n/a	CONSERVATIVE	-1	n/a	n/a	n/a	n/a	n/a	n/a	n/a	n/a
2040.896	n/a	REC_WORD	1020448	wordpools/wasnorm_wordpool_less_exclusions.txt	LTP269	ltpFR	5	9	-1	WHEAT	1602	n/a	n/a	-1	n/a	n/a	n/a	n/a	n/a
2044.038	n/a	REC_WORD	1022019	wordpools/wasnorm_wordpool_less_exclusions.txt	LTP269	ltpFR	5	9	n/a	HORSE	719	n/a	n/a	n/a	n/a	n/a	n/a	n/a	n/a
2071.312	n/a	WORD	1035656	wordpools/wasnorm_wordpool_less_exclusions.txt	LTP269	ltpFR	5	10	1	BELL	118	n/a	n/a	0	0.422607421875	0.5869140625	0	lower	zerothre.ttf
2075.45	n/a	WORD	1037725	wordpools/wasnorm_wordpool_less_exclusions.txt	LTP269	ltpFR	5	10	1	IDOL	733	n/a	n/a	1	0.422607421875	0.5869140625	0	lower	zerothre.ttf
2079.46	n/a	WORD	1039730	wordpools/wasnorm_wordpool_less_exclusions.txt	LTP269	ltpFR	5	10	1	GOVERNOR	651	n/a	n/a	1	0.422607421875	0.5869140625	0	lower	zerothre.ttf
2083.512	n/a	WORD	1041756	wordpools/wasnorm_wordpool_less_exclusions.txt	LTP269	ltpFR	5	10	1	PRESIDENT	1121	n/a	n/a	1	0.422607421875	0.5869140625	0	lower	zerothre.ttf
2087.63	n/a	WORD	1043815	wordpools/wasnorm_wordpool_less_exclusions.txt	LTP269	ltpFR	5	10	1	MOSQUITO	917	n/a	n/a	1	0.422607421875	0.5869140625	0	lower	zerothre.ttf
2091.594	n/a	WORD	1045797	wordpools/wasnorm_wordpool_less_exclusions.txt	LTP269	ltpFR	5	10	1	CATERPILLAR	259	n/a	n/a	1	0.422607421875	0.5869140625	0	lower	zerothre.ttf
2095.472	n/a	WORD	1047736	wordpools/wasnorm_wordpool_less_exclusions.txt	LTP269	ltpFR	5	10	1	THUMB	1462	n/a	n/a	0	0.422607421875	0.5869140625	0	lower	zerothre.ttf
2099.626	n/a	WORD	1049813	wordpools/wasnorm_wordpool_less_exclusions.txt	LTP269	ltpFR	5	10	1	SHOWER	1296	n/a	n/a	0	0.422607421875	0.5869140625	0	lower	zerothre.ttf
2103.758	n/a	WORD	1051879	wordpools/wasnorm_wordpool_less_exclusions.txt	LTP269	ltpFR	5	10	1	RELISH	1183	n/a	n/a	0	0.422607421875	0.5869140625	0	lower	zerothre.ttf
2107.806	n/a	WORD	1053903	wordpools/wasnorm_wordpool_less_exclusions.txt	LTP269	ltpFR	5	10	1	CYLINDER	432	n/a	n/a	0	0.422607421875	0.5869140625	0	lower	zerothre.ttf
2111.672	n/a	WORD	1055836	wordpools/wasnorm_wordpool_less_exclusions.txt	LTP269	ltpFR	5	10	1	SPONGE	1355	n/a	n/a	0	0.422607421875	0.5869140625	0	lower	zerothre.ttf
2115.586	n/a	WORD	1057793	wordpools/wasnorm_wordpool_less_exclusions.txt	LTP269	ltpFR	5	10	1	HAMMER	680	n/a	n/a	n/a	0.422607421875	0.5869140625	0	lower	zerothre.ttf
2118.632	n/a	SLOW_MSG	1059316	n/a	LTP269	ltpFR	5	10	n/a	n/a	n/a	n/a	n/a	n/a	n/a	n/a	n/a	n/a	n/a
2121.04	n/a	WORD	1060520	wordpools/wasnorm_wordpool_less_exclusions.txt	LTP269	ltpFR	5	10	1	HAM	678	n/a	n/a	0	0.422607421875	0.5869140625	0	lower	zerothre.ttf
2124.972	n/a	WORD	1062486	wordpools/wasnorm_wordpool_less_exclusions.txt	LTP269	ltpFR	5	10	1	GREASE	660	n/a	n/a	0	0.422607421875	0.5869140625	0	lower	zerothre.ttf
2128.836	n/a	WORD	1064418	wordpools/wasnorm_wordpool_less_exclusions.txt	LTP269	ltpFR	5	10	1	LEOPARD	812	n/a	n/a	1	0.422607421875	0.5869140625	0	lower	zerothre.ttf
2132.814	n/a	WORD	1066407	wordpools/wasnorm_wordpool_less_exclusions.txt	LTP269	ltpFR	5	10	1	REPTILE	1185	n/a	n/a	1	0.422607421875	0.5869140625	0	lower	zerothre.ttf
2138.574	n/a	REC_START	1069287	n/a	LTP269	ltpFR	5	10	n/a	n/a	n/a	n/a	n/a	n/a	n/a	n/a	n/a	n/a	n/a
2139.604	n/a	REC_WORD	1069802	wordpools/wasnorm_wordpool_less_exclusions.txt	LTP269	ltpFR	5	10	1	REPTILE	1185	n/a	n/a	1	n/a	n/a	n/a	n/a	n/a
2140.872	n/a	REC_WORD	1070436	wordpools/wasnorm_wordpool_less_exclusions.txt	LTP269	ltpFR	5	10	1	GREASE	660	n/a	n/a	0	n/a	n/a	n/a	n/a	n/a
2142.152	n/a	REC_WORD	1071076	wordpools/wasnorm_wordpool_less_exclusions.txt	LTP269	ltpFR	5	10	1	HAM	678	n/a	n/a	0	n/a	n/a	n/a	n/a	n/a
2143.296	n/a	REC_WORD	1071648	wordpools/wasnorm_wordpool_less_exclusions.txt	LTP269	ltpFR	5	10	1	HAMMER	680	n/a	n/a	n/a	n/a	n/a	n/a	n/a	n/a
2145.242	n/a	REC_WORD	1072621	wordpools/wasnorm_wordpool_less_exclusions.txt	LTP269	ltpFR	5	10	1	GOVERNOR	651	n/a	n/a	1	n/a	n/a	n/a	n/a	n/a
2145.92	n/a	REC_WORD	1072960	wordpools/wasnorm_wordpool_less_exclusions.txt	LTP269	ltpFR	5	10	1	PRESIDENT	1121	n/a	n/a	1	n/a	n/a	n/a	n/a	n/a
2218.764	n/a	WORD	1109382	wordpools/wasnorm_wordpool_less_exclusions.txt	LTP269	ltpFR	5	11	-1	RECEIPT	1173	n/a	n/a	-1	1.0	1.0	1	upper	Verdana.ttf
2222.662	n/a	WORD	1111331	wordpools/wasnorm_wordpool_less_exclusions.txt	LTP269	ltpFR	5	11	-1	TAPE	1433	n/a	n/a	-1	1.0	1.0	1	upper	Verdana.ttf
2226.76	n/a	WORD	1113380	wordpools/wasnorm_wordpool_less_exclusions.txt	LTP269	ltpFR	5	11	-1	DOLL	481	n/a	n/a	-1	1.0	1.0	1	upper	Verdana.ttf
2230.794	n/a	WORD	1115397	wordpools/wasnorm_wordpool_less_exclusions.txt	LTP269	ltpFR	5	11	-1	CENT	270	n/a	n/a	-1	1.0	1.0	1	upper	Verdana.ttf
2234.776	n/a	WORD	1117388	wordpools/wasnorm_wordpool_less_exclusions.txt	LTP269	ltpFR	5	11	-1	ELM	527	n/a	n/a	-1	1.0	1.0	1	upper	Verdana.ttf
2238.808	n/a	WORD	1119404	wordpools/wasnorm_wordpool_less_exclusions.txt	LTP269	ltpFR	5	11	-1	MAN	862	n/a	n/a	-1	1.0	1.0	1	upper	Verdana.ttf
2242.716	n/a	WORD	1121358	wordpools/wasnorm_wordpool_less_exclusions.txt	LTP269	ltpFR	5	11	-1	SEA	1259	n/a	n/a	-1	1.0	1.0	1	upper	Verdana.ttf
2246.95	n/a	WORD	1123475	wordpools/wasnorm_wordpool_less_exclusions.txt	LTP269	ltpFR	5	11	-1	MOAT	903	n/a	n/a	-1	1.0	1.0	1	upper	Verdana.ttf
2251.088	n/a	WORD	1125544	wordpools/wasnorm_wordpool_less_exclusions.txt	LTP269	ltpFR	5	11	-1	THICKET	1455	n/a	n/a	-1	1.0	1.0	1	upper	Verdana.ttf
2255.136	n/a	WORD	1127568	wordpools/wasnorm_wordpool_less_exclusions.txt	LTP269	ltpFR	5	11	-1	SEED	1266	n/a	n/a	-1	1.0	1.0	1	upper	Verdana.ttf
2259.252	n/a	WORD	1129626	wordpools/wasnorm_wordpool_less_exclusions.txt	LTP269	ltpFR	5	11	-1	RESORT	1186	n/a	n/a	-1	1.0	1.0	1	upper	Verdana.ttf
2263.268	n/a	WORD	1131634	wordpools/wasnorm_wordpool_less_exclusions.txt	LTP269	ltpFR	5	11	-1	INN	739	n/a	n/a	-1	1.0	1.0	1	upper	Verdana.ttf
2267.362	n/a	WORD	1133681	wordpools/wasnorm_wordpool_less_exclusions.txt	LTP269	ltpFR	5	11	-1	PUBLICATION	1136	n/a	n/a	-1	1.0	1.0	1	upper	Verdana.ttf
2271.466	n/a	WORD	1135733	wordpools/wasnorm_wordpool_less_exclusions.txt	LTP269	ltpFR	5	11	-1	APPLE	33	n/a	n/a	-1	1.0	1.0	1	upper	Verdana.ttf
2275.458	n/a	WORD	1137729	wordpools/wasnorm_wordpool_less_exclusions.txt	LTP269	ltpFR	5	11	-1	TOY	1492	n/a	n/a	-1	1.0	1.0	1	upper	Verdana.ttf
2279.612	n/a	WORD	1139806	wordpools/wasnorm_wordpool_less_exclusions.txt	LTP269	ltpFR	5	11	-1	MAMMAL	861	n/a	n/a	-1	1.0	1.0	1	upper	Verdana.ttf
2285.604	n/a	REC_START	1142802	n/a	LTP269	ltpFR	5	11	n/a	n/a	n/a	n/a	n/a	n/a	n/a	n/a	n/a	n/a	n/a
2286.4	n/a	REC_WORD	1143200	wordpools/wasnorm_wordpool_less_exclusions.txt	LTP269	ltpFR	5	11	-1	MAMMAL	861	n/a	n/a	-1	n/a	n/a	n/a	n/a	n/a
2287.688	n/a	REC_WORD	1143844	wordpools/wasnorm_wordpool_less_exclusions.txt	LTP269	ltpFR	5	11	-1	TOY	1492	n/a	n/a	-1	n/a	n/a	n/a	n/a	n/a
2364.984	n/a	WORD	1182492	wordpools/wasnorm_wordpool_less_exclusions.txt	LTP269	ltpFR	5	12	1	PAD	998	n/a	n/a	0	0.422607421875	0.5869140625	0	lower	zerothre.ttf
2369.15	n/a	WORD	1184575	wordpools/wasnorm_wordpool_less_exclusions.txt	LTP269	ltpFR	5	12	1	SHEET	1279	n/a	n/a	0	0.422607421875	0.5869140625	0	lower	zerothre.ttf
2373.338	n/a	WORD	1186669	wordpools/wasnorm_wordpool_less_exclusions.txt	LTP269	ltpFR	5	12	1	GOLD	647	n/a	n/a	0	0.422607421875	0.5869140625	0	lower	zerothre.ttf
2377.286	n/a	WORD	1188643	wordpools/wasnorm_wordpool_less_exclusions.txt	LTP269	ltpFR	5	12	0	MONEY	908	n/a	n/a	0	0.57763671875	0.412841796875	1	upper	amplitud.ttf
2381.13	n/a	WORD	1190565	wordpools/wasnorm_wordpool_less_exclusions.txt	LTP269	ltpFR	5	12	0	DRIVER	499	n/a	n/a	1	0.57763671875	0.412841796875	1	upper	amplitud.ttf
2385.016	n/a	WORD	1192508	wordpools/wasnorm_wordpool_less_exclusions.txt	LTP269	ltpFR	5	12	0	MULE	931	n/a	n/a	1	0.57763671875	0.412841796875	1	upper	amplitud.ttf
2389.176	n/a	WORD	1194588	wordpools/wasnorm_wordpool_less_exclusions.txt	LTP269	ltpFR	5	12	0	BARN	89	n/a	n/a	1	0.57763671875	0.412841796875	1	upper	amplitud.ttf
2393.38	n/a	WORD	1196690	wordpools/wasnorm_wordpool_less_exclusions.txt	LTP269	ltpFR	5	12	0	GORILLA	650	n/a	n/a	1	0.57763671875	0.412841796875	1	upper	amplitud.ttf
2397.242	n/a	WORD	1198621	wordpools/wasnorm_wordpool_less_exclusions.txt	LTP269	ltpFR	5	12	0	VESSEL	1558	n/a	n/a	1	0.57763671875	0.412841796875	1	upper	amplitud.ttf
2401.106	n/a	WORD	1200553	wordpools/wasnorm_wordpool_less_exclusions.txt	LTP269	ltpFR	5	12	1	METEOR	889	n/a	n/a	0	0.422607421875	0.5869140625	0	lower	zerothre.ttf
2405.288	n/a	WORD	1202644	wordpools/wasnorm_wordpool_less_exclusions.txt	LTP269	ltpFR	5	12	1	SHEARS	1276	n/a	n/a	0	0.422607421875	0.5869140625	0	lower	zerothre.ttf
2409.258	n/a	WORD	1204629	wordpools/wasnorm_wordpool_less_exclusions.txt	LTP269	ltpFR	5	12	1	GALAXY	617	n/a	n/a	0	0.422607421875	0.5869140625	0	lower	zerothre.ttf
2413.1	n/a	WORD	1206550	wordpools/wasnorm_wordpool_less_exclusions.txt	LTP269	ltpFR	5	12	1	SALESMAN	1225	n/a	n/a	1	0.422607421875	0.5869140625	0	lower	zerothre.ttf
2417.29	n/a	WORD	1208645	wordpools/wasnorm_wordpool_less_exclusions.txt	LTP269	ltpFR	5	12	1	BRUNETTE	181	n/a	n/a	1	0.422607421875	0.5869140625	0	lower	zerothre.ttf
2421.138	n/a	WORD	1210569	wordpools/wasnorm_wordpool_less_exclusions.txt	LTP269	ltpFR	5	12	0	JUNGLE	764	n/a	n/a	1	0.57763671875	0.412841796875	1	upper	amplitud.ttf
2424.968	n/a	WORD	1212484	wordpools/wasnorm_wordpool_less_exclusions.txt	LTP269	ltpFR	5	12	0	ANGEL	22	n/a	n/a	1	0.57763671875	0.412841796875	1	upper	amplitud.ttf
2431.104	n/a	REC_START	1215552	n/a	LTP269	ltpFR	5	12	n/a	n/a	n/a	n/a	n/a	n/a	n/a	n/a	n/a	n/a	n/a
2431.754	n/a	REC_WORD	1215877	wordpools/wasnorm_wordpool_less_exclusions.txt	LTP269	ltpFR	5	12	0	DRIVER	499	n/a	n/a	1	n/a	n/a	n/a	n/a	n/a
2432.666	n/a	REC_WORD	1216333	wordpools/wasnorm_wordpool_less_exclusions.txt	LTP269	ltpFR	5	12	0	MULE	931	n/a	n/a	1	n/a	n/a	n/a	n/a	n/a
2435.614	n/a	REC_WORD	1217807	wordpools/wasnorm_wordpool_less_exclusions.txt	LTP269	ltpFR	5	12	0	BARN	89	n/a	n/a	1	n/a	n/a	n/a	n/a	n/a
2439.418	n/a	REC_WORD	1219709	wordpools/wasnorm_wordpool_less_exclusions.txt	LTP269	ltpFR	5	12	1	GOLD	647	n/a	n/a	0	n/a	n/a	n/a	n/a	n/a
2440.376	n/a	REC_WORD	1220188	wordpools/wasnorm_wordpool_less_exclusions.txt	LTP269	ltpFR	5	12	0	MONEY	908	n/a	n/a	0	n/a	n/a	n/a	n/a	n/a
2464.33	n/a	REC_WORD	1232165	wordpools/wasnorm_wordpool_less_exclusions.txt	LTP269	ltpFR	5	12	n/a	UNIVERSE	1540	n/a	n/a	n/a	n/a	n/a	n/a	n/a	n/a
2465.544	n/a	REC_WORD	1232772	wordpools/wasnorm_wordpool_less_exclusions.txt	LTP269	ltpFR	5	12	1	GALAXY	617	n/a	n/a	0	n/a	n/a	n/a	n/a	n/a
2513.24	n/a	WORD	1256620	wordpools/wasnorm_wordpool_less_exclusions.txt	LTP269	ltpFR	5	13	-1	COUSIN	392	n/a	n/a	-1	1.0	1.0	1	upper	Verdana.ttf
2517.088	n/a	WORD	1258544	wordpools/wasnorm_wordpool_less_exclusions.txt	LTP269	ltpFR	5	13	-1	PARENT	1013	n/a	n/a	-1	1.0	1.0	1	upper	Verdana.ttf
2521.248	n/a	WORD	1260624	wordpools/wasnorm_wordpool_less_exclusions.txt	LTP269	ltpFR	5	13	-1	PAINTING	1005	n/a	n/a	-1	1.0	1.0	1	upper	Verdana.ttf
2525.452	n/a	WORD	1262726	wordpools/wasnorm_wordpool_less_exclusions.txt	LTP269	ltpFR	5	13	-1	MICROPHONE	890	n/a	n/a	-1	1.0	1.0	1	upper	Verdana.ttf
2529.318	n/a	WORD	1264659	wordpools/wasnorm_wordpool_less_exclusions.txt	LTP269	ltpFR	5	13	-1	UNDERWEAR	1537	n/a	n/a	-1	1.0	1.0	1	upper	Verdana.ttf
2533.5	n/a	WORD	1266750	wordpools/wasnorm_wordpool_less_exclusions.txt	LTP269	ltpFR	5	13	-1	SKETCH	1315	n/a	n/a	-1	1.0	1.0	1	upper	Verdana.ttf
2537.516	n/a	WORD	1268758	wordpools/wasnorm_wordpool_less_exclusions.txt	LTP269	ltpFR	5	13	-1	TANK	1432	n/a	n/a	-1	1.0	1.0	1	upper	Verdana.ttf
2541.632	n/a	WORD	1270816	wordpools/wasnorm_wordpool_less_exclusions.txt	LTP269	ltpFR	5	13	-1	JEEP	753	n/a	n/a	-1	1.0	1.0	1	upper	Verdana.ttf
2545.83	n/a	WORD	1272915	wordpools/wasnorm_wordpool_less_exclusions.txt	LTP269	ltpFR	5	13	-1	CLOUD	328	n/a	n/a	-1	1.0	1.0	1	upper	Verdana.ttf
2549.964	n/a	WORD	1274982	wordpools/wasnorm_wordpool_less_exclusions.txt	LTP269	ltpFR	5	13	-1	CARROT	249	n/a	n/a	-1	1.0	1.0	1	upper	Verdana.ttf
2553.844	n/a	WORD	1276922	wordpools/wasnorm_wordpool_less_exclusions.txt	LTP269	ltpFR	5	13	-1	CABBAGE	210	n/a	n/a	-1	1.0	1.0	1	upper	Verdana.ttf
2558.056	n/a	WORD	1279028	wordpools/wasnorm_wordpool_less_exclusions.txt	LTP269	ltpFR	5	13	-1	TELEPHONE	1445	n/a	n/a	-1	1.0	1.0	1	upper	Verdana.ttf
2562.138	n/a	WORD	1281069	wordpools/wasnorm_wordpool_less_exclusions.txt	LTP269	ltpFR	5	13	-1	OPERATOR	979	n/a	n/a	-1	1.0	1.0	1	upper	Verdana.ttf
2566.174	n/a	WORD	1283087	wordpools/wasnorm_wordpool_less_exclusions.txt	LTP269	ltpFR	5	13	-1	SINK	1309	n/a	n/a	-1	1.0	1.0	1	upper	Verdana.ttf
2570.374	n/a	WORD	1285187	wordpools/wasnorm_wordpool_less_exclusions.txt	LTP269	ltpFR	5	13	-1	COMEDIAN	352	n/a	n/a	-1	1.0	1.0	1	upper	Verdana.ttf
2574.418	n/a	WORD	1287209	wordpools/wasnorm_wordpool_less_exclusions.txt	LTP269	ltpFR	5	13	-1	BUGGY	188	n/a	n/a	-1	1.0	1.0	1	upper	Verdana.ttf
2580.19	n/a	REC_START	1290095	n/a	LTP269	ltpFR	5	13	n/a	n/a	n/a	n/a	n/a	n/a	n/a	n/a	n/a	n/a	n/a
2596.838	n/a	REC_WORD	1298419	wordpools/wasnorm_wordpool_less_exclusions.txt	LTP269	ltpFR	5	13	-1	PARENT	1013	n/a	n/a	-1	n/a	n/a	n/a	n/a	n/a
2597.604	n/a	REC_WORD	1298802	wordpools/wasnorm_wordpool_less_exclusions.txt	LTP269	ltpFR	5	13	-1	COUSIN	392	n/a	n/a	-1	n/a	n/a	n/a	n/a	n/a
2628.308	n/a	REC_WORD	1314154	wordpools/wasnorm_wordpool_less_exclusions.txt	LTP269	ltpFR	5	13	1	PAD	998	n/a	n/a	0	n/a	n/a	n/a	n/a	n/a
2642.838	n/a	REC_WORD	1321419	wordpools/wasnorm_wordpool_less_exclusions.txt	LTP269	ltpFR	5	13	-1	THICKET	1455	n/a	n/a	-1	n/a	n/a	n/a	n/a	n/a
2663.63	n/a	WORD	1331815	wordpools/wasnorm_wordpool_less_exclusions.txt	LTP269	ltpFR	5	14	1	WAITER	1580	n/a	n/a	1	0.422607421875	0.5869140625	0	lower	zerothre.ttf
2667.628	n/a	WORD	1333814	wordpools/wasnorm_wordpool_less_exclusions.txt	LTP269	ltpFR	5	14	1	BUTLER	204	n/a	n/a	1	0.422607421875	0.5869140625	0	lower	zerothre.ttf
2671.588	n/a	WORD	1335794	wordpools/wasnorm_wordpool_less_exclusions.txt	LTP269	ltpFR	5	14	1	WAIST	1579	n/a	n/a	0	0.422607421875	0.5869140625	0	lower	zerothre.ttf
2675.436	n/a	WORD	1337718	wordpools/wasnorm_wordpool_less_exclusions.txt	LTP269	ltpFR	5	14	1	EMPEROR	529	n/a	n/a	1	0.422607421875	0.5869140625	0	lower	zerothre.ttf
2679.386	n/a	WORD	1339693	wordpools/wasnorm_wordpool_less_exclusions.txt	LTP269	ltpFR	5	14	1	QUEEN	1149	n/a	n/a	1	0.422607421875	0.5869140625	0	lower	zerothre.ttf
2683.284	n/a	WORD	1341642	wordpools/wasnorm_wordpool_less_exclusions.txt	LTP269	ltpFR	5	14	1	BEDROOM	111	n/a	n/a	0	0.422607421875	0.5869140625	0	lower	zerothre.ttf
2687.272	n/a	WORD	1343636	wordpools/wasnorm_wordpool_less_exclusions.txt	LTP269	ltpFR	5	14	1	SUITCASE	1403	n/a	n/a	0	0.422607421875	0.5869140625	0	lower	zerothre.ttf
2691.436	n/a	WORD	1345718	wordpools/wasnorm_wordpool_less_exclusions.txt	LTP269	ltpFR	5	14	1	PIKE	1067	n/a	n/a	0	0.422607421875	0.5869140625	0	lower	zerothre.ttf
2695.386	n/a	WORD	1347693	wordpools/wasnorm_wordpool_less_exclusions.txt	LTP269	ltpFR	5	14	1	FRIEND	606	n/a	n/a	1	0.422607421875	0.5869140625	0	lower	zerothre.ttf
2699.318	n/a	WORD	1349659	wordpools/wasnorm_wordpool_less_exclusions.txt	LTP269	ltpFR	5	14	1	GANG	619	n/a	n/a	1	0.422607421875	0.5869140625	0	lower	zerothre.ttf
2703.3	n/a	WORD	1351650	wordpools/wasnorm_wordpool_less_exclusions.txt	LTP269	ltpFR	5	14	1	HELICOPTER	701	n/a	n/a	0	0.422607421875	0.5869140625	0	lower	zerothre.ttf
2707.314	n/a	WORD	1353657	wordpools/wasnorm_wordpool_less_exclusions.txt	LTP269	ltpFR	5	14	1	EYELASH	546	n/a	n/a	0	0.422607421875	0.5869140625	0	lower	zerothre.ttf
2711.274	n/a	WORD	1355637	wordpools/wasnorm_wordpool_less_exclusions.txt	LTP269	ltpFR	5	14	1	BANK	83	n/a	n/a	0	0.422607421875	0.5869140625	0	lower	zerothre.ttf
2715.312	n/a	WORD	1357656	wordpools/wasnorm_wordpool_less_exclusions.txt	LTP269	ltpFR	5	14	1	SHINGLE	1285	n/a	n/a	0	0.422607421875	0.5869140625	0	lower	zerothre.ttf
2719.438	n/a	WORD	1359719	wordpools/wasnorm_wordpool_less_exclusions.txt	LTP269	ltpFR	5	14	1	LUGGAGE	847	n/a	n/a	0	0.422607421875	0.5869140625	0	lower	zerothre.ttf
2723.604	n/a	WORD	1361802	wordpools/wasnorm_wordpool_less_exclusions.txt	LTP269	ltpFR	5	14	1	DORM	488	n/a	n/a	0	0.422607421875	0.5869140625	0	lower	zerothre.ttf
2729.382	n/a	REC_START	1364691	n/a	LTP269	ltpFR	5	14	n/a	n/a	n/a	n/a	n/a	n/a	n/a	n/a	n/a	n/a	n/a
2730.232	n/a	REC_WORD	1365116	wordpools/wasnorm_wordpool_less_exclusions.txt	LTP269	ltpFR	5	14	1	DORM	488	n/a	n/a	0	n/a	n/a	n/a	n/a	n/a
2731.048	n/a	REC_WORD	1365524	wordpools/wasnorm_wordpool_less_exclusions.txt	LTP269	ltpFR	5	14	1	SHINGLE	1285	n/a	n/a	0	n/a	n/a	n/a	n/a	n/a
2732.298	n/a	REC_WORD	1366149	wordpools/wasnorm_wordpool_less_exclusions.txt	LTP269	ltpFR	5	14	1	EYELASH	546	n/a	n/a	0	n/a	n/a	n/a	n/a	n/a
2733.37	n/a	REC_WORD	1366685	wordpools/wasnorm_wordpool_less_exclusions.txt	LTP269	ltpFR	5	14	1	WAIST	1579	n/a	n/a	0	n/a	n/a	n/a	n/a	n/a
2735.926	n/a	REC_WORD	1367963	wordpools/wasnorm_wordpool_less_exclusions.txt	LTP269	ltpFR	5	14	1	WAITER	1580	n/a	n/a	1	n/a	n/a	n/a	n/a	n/a
2736.926	n/a	REC_WORD	1368463	wordpools/wasnorm_wordpool_less_exclusions.txt	LTP269	ltpFR	5	14	1	BUTLER	204	n/a	n/a	1	n/a	n/a	n/a	n/a	n/a
2738.194	n/a	REC_WORD	1369097	wordpools/wasnorm_wordpool_less_exclusions.txt	LTP269	ltpFR	5	14	1	EMPEROR	529	n/a	n/a	1	n/a	n/a	n/a	n/a	n/a
2740.042	n/a	REC_WORD	1370021	wordpools/wasnorm_wordpool_less_exclusions.txt	LTP269	ltpFR	5	14	1	QUEEN	1149	n/a	n/a	1	n/a	n/a	n/a	n/a	n/a
2744.664	n/a	REC_WORD	1372332	wordpools/wasnorm_wordpool_less_exclusions.txt	LTP269	ltpFR	5	14	1	BEDROOM	111	n/a	n/a	0	n/a	n/a	n/a	n/a	n/a
2770.652	n/a	REC_WORD	1385326	wordpools/wasnorm_wordpool_less_exclusions.txt	LTP269	ltpFR	5	14	-1	SINK	1309	n/a	n/a	-1	n/a	n/a	n/a	n/a	n/a
2809.9	n/a	WORD	1404950	wordpools/wasnorm_wordpool_less_exclusions.txt	LTP269	ltpFR	5	15	0	ALLEY	15	n/a	n/a	1	0.57763671875	0.412841796875	1	upper	amplitud.ttf
2813.922	n/a	WORD	1406961	wordpools/wasnorm_wordpool_less_exclusions.txt	LTP269	ltpFR	5	15	0	RIBBON	1189	n/a	n/a	0	0.57763671875	0.412841796875	1	upper	amplitud.ttf
2818.054	n/a	WORD	1409027	wordpools/wasnorm_wordpool_less_exclusions.txt	LTP269	ltpFR	5	15	0	CRITIC	410	n/a	n/a	1	0.57763671875	0.412841796875	1	upper	amplitud.ttf
2822.03	n/a	WORD	1411015	wordpools/wasnorm_wordpool_less_exclusions.txt	LTP269	ltpFR	5	15	0	SCREEN	1253	n/a	n/a	1	0.57763671875	0.412841796875	1	upper	amplitud.ttf
2825.946	n/a	WORD	1412973	wordpools/wasnorm_wordpool_less_exclusions.txt	LTP269	ltpFR	5	15	0	OYSTER	995	n/a	n/a	0	0.57763671875	0.412841796875	1	upper	amplitud.ttf
2830.06	n/a	WORD	1415030	wordpools/wasnorm_wordpool_less_exclusions.txt	LTP269	ltpFR	5	15	0	BIRD	129	n/a	n/a	0	0.57763671875	0.412841796875	1	upper	amplitud.ttf
2834.1	n/a	WORD	1417050	wordpools/wasnorm_wordpool_less_exclusions.txt	LTP269	ltpFR	5	15	1	ROOSTER	1209	n/a	n/a	1	0.422607421875	0.5869140625	0	lower	zerothre.ttf
2838.176	n/a	WORD	1419088	wordpools/wasnorm_wordpool_less_exclusions.txt	LTP269	ltpFR	5	15	1	OFFICE	972	n/a	n/a	0	0.422607421875	0.5869140625	0	lower	zerothre.ttf
2842.208	n/a	WORD	1421104	wordpools/wasnorm_wordpool_less_exclusions.txt	LTP269	ltpFR	5	15	1	RAIL	1161	n/a	n/a	0	0.422607421875	0.5869140625	0	lower	zerothre.ttf
2846.29	n/a	WORD	1423145	wordpools/wasnorm_wordpool_less_exclusions.txt	LTP269	ltpFR	5	15	1	ITEM	746	n/a	n/a	0	0.422607421875	0.5869140625	0	lower	zerothre.ttf
2850.512	n/a	WORD	1425256	wordpools/wasnorm_wordpool_less_exclusions.txt	LTP269	ltpFR	5	15	0	JET	756	n/a	n/a	1	0.57763671875	0.412841796875	1	upper	amplitud.ttf
2854.662	n/a	WORD	1427331	wordpools/wasnorm_wordpool_less_exclusions.txt	LTP269	ltpFR	5	15	0	DOCUMENT	479	n/a	n/a	0	0.57763671875	0.412841796875	1	upper	amplitud.ttf
2858.86	n/a	WORD	1429430	wordpools/wasnorm_wordpool_less_exclusions.txt	LTP269	ltpFR	5	15	1	SILVERWARE	1308	n/a	n/a	0	0.422607421875	0.5869140625	0	lower	zerothre.ttf
2862.826	n/a	WORD	1431413	wordpools/wasnorm_wordpool_less_exclusions.txt	LTP269	ltpFR	5	15	1	COOKBOOK	373	n/a	n/a	0	0.422607421875	0.5869140625	0	lower	zerothre.ttf
2867.036	n/a	WORD	1433518	wordpools/wasnorm_wordpool_less_exclusions.txt	LTP269	ltpFR	5	15	1	CLAM	315	n/a	n/a	0	0.422607421875	0.5869140625	0	lower	zerothre.ttf
2871.158	n/a	WORD	1435579	wordpools/wasnorm_wordpool_less_exclusions.txt	LTP269	ltpFR	5	15	1	BULL	193	n/a	n/a	1	0.422607421875	0.5869140625	0	lower	zerothre.ttf
2876.992	n/a	REC_START	1438496	n/a	LTP269	ltpFR	5	15	n/a	n/a	n/a	n/a	n/a	n/a	n/a	n/a	n/a	n/a	n/a
2877.982	n/a	REC_WORD	1438991	wordpools/wasnorm_wordpool_less_exclusions.txt	LTP269	ltpFR	5	15	1	BULL	193	n/a	n/a	1	n/a	n/a	n/a	n/a	n/a
2879.046	n/a	REC_WORD	1439523	wordpools/wasnorm_wordpool_less_exclusions.txt	LTP269	ltpFR	5	15	1	CLAM	315	n/a	n/a	0	n/a	n/a	n/a	n/a	n/a
2880.858	n/a	REC_WORD	1440429	wordpools/wasnorm_wordpool_less_exclusions.txt	LTP269	ltpFR	5	15	0	RIBBON	1189	n/a	n/a	0	n/a	n/a	n/a	n/a	n/a
2881.818	n/a	REC_WORD	1440909	wordpools/wasnorm_wordpool_less_exclusions.txt	LTP269	ltpFR	5	15	0	OYSTER	995	n/a	n/a	0	n/a	n/a	n/a	n/a	n/a
2882.786	n/a	REC_WORD	1441393	wordpools/wasnorm_wordpool_less_exclusions.txt	LTP269	ltpFR	5	15	0	BIRD	129	n/a	n/a	0	n/a	n/a	n/a	n/a	n/a
2883.866	n/a	REC_WORD	1441933	wordpools/wasnorm_wordpool_less_exclusions.txt	LTP269	ltpFR	5	15	1	ROOSTER	1209	n/a	n/a	1	n/a	n/a	n/a	n/a	n/a
2885.684	n/a	REC_WORD	1442842	wordpools/wasnorm_wordpool_less_exclusions.txt	LTP269	ltpFR	5	15	0	ALLEY	15	n/a	n/a	1	n/a	n/a	n/a	n/a	n/a
2886.716	n/a	REC_WORD	1443358	wordpools/wasnorm_wordpool_less_exclusions.txt	LTP269	ltpFR	5	15	0	CRITIC	410	n/a	n/a	1	n/a	n/a	n/a	n/a	n/a
2887.694	n/a	REC_WORD	1443847	wordpools/wasnorm_wordpool_less_exclusions.txt	LTP269	ltpFR	5	15	0	SCREEN	1253	n/a	n/a	1	n/a	n/a	n/a	n/a	n/a
2959.076	n/a	WORD	1479538	wordpools/wasnorm_wordpool_less_exclusions.txt	LTP269	ltpFR	5	16	0	MILK	895	n/a	n/a	0	0.57763671875	0.412841796875	1	upper	amplitud.ttf
2963.226	n/a	WORD	1481613	wordpools/wasnorm_wordpool_less_exclusions.txt	LTP269	ltpFR	5	16	0	COMMANDER	354	n/a	n/a	1	0.57763671875	0.412841796875	1	upper	amplitud.ttf
2967.124	n/a	WORD	1483562	wordpools/wasnorm_wordpool_less_exclusions.txt	LTP269	ltpFR	5	16	0	YARN	1631	n/a	n/a	0	0.57763671875	0.412841796875	1	upper	amplitud.ttf
2971.106	n/a	WORD	1485553	wordpools/wasnorm_wordpool_less_exclusions.txt	LTP269	ltpFR	5	16	0	BANKER	84	n/a	n/a	1	0.57763671875	0.412841796875	1	upper	amplitud.ttf
2975.238	n/a	WORD	1487619	wordpools/wasnorm_wordpool_less_exclusions.txt	LTP269	ltpFR	5	16	0	LETTUCE	814	n/a	n/a	0	0.57763671875	0.412841796875	1	upper	amplitud.ttf
2979.304	n/a	WORD	1489652	wordpools/wasnorm_wordpool_less_exclusions.txt	LTP269	ltpFR	5	16	0	HAT	690	n/a	n/a	0	0.57763671875	0.412841796875	1	upper	amplitud.ttf
2983.382	n/a	WORD	1491691	wordpools/wasnorm_wordpool_less_exclusions.txt	LTP269	ltpFR	5	16	0	RECEPTIONIST	1174	n/a	n/a	1	0.57763671875	0.412841796875	1	upper	amplitud.ttf
2987.38	n/a	WORD	1493690	wordpools/wasnorm_wordpool_less_exclusions.txt	LTP269	ltpFR	5	16	0	HAMPER	682	n/a	n/a	1	0.57763671875	0.412841796875	1	upper	amplitud.ttf
2991.578	n/a	WORD	1495789	wordpools/wasnorm_wordpool_less_exclusions.txt	LTP269	ltpFR	5	16	0	TAG	1429	n/a	n/a	0	0.57763671875	0.412841796875	1	upper	amplitud.ttf
2995.766	n/a	WORD	1497883	wordpools/wasnorm_wordpool_less_exclusions.txt	LTP269	ltpFR	5	16	0	MIRROR	899	n/a	n/a	0	0.57763671875	0.412841796875	1	upper	amplitud.ttf
2999.966	n/a	WORD	1499983	wordpools/wasnorm_wordpool_less_exclusions.txt	LTP269	ltpFR	5	16	0	CONE	363	n/a	n/a	0	0.57763671875	0.412841796875	1	upper	amplitud.ttf
3004.066	n/a	WORD	1502033	wordpools/wasnorm_wordpool_less_exclusions.txt	LTP269	ltpFR	5	16	0	MANAGER	863	n/a	n/a	1	0.57763671875	0.412841796875	1	upper	amplitud.ttf
3008.264	n/a	WORD	1504132	wordpools/wasnorm_wordpool_less_exclusions.txt	LTP269	ltpFR	5	16	0	DASHBOARD	441	n/a	n/a	0	0.57763671875	0.412841796875	1	upper	amplitud.ttf
3012.28	n/a	WORD	1506140	wordpools/wasnorm_wordpool_less_exclusions.txt	LTP269	ltpFR	5	16	0	CAR	241	n/a	n/a	1	0.57763671875	0.412841796875	1	upper	amplitud.ttf
3016.49	n/a	WORD	1508245	wordpools/wasnorm_wordpool_less_exclusions.txt	LTP269	ltpFR	5	16	0	WALLET	1583	n/a	n/a	0	0.57763671875	0.412841796875	1	upper	amplitud.ttf
3020.394	n/a	WORD	1510197	wordpools/wasnorm_wordpool_less_exclusions.txt	LTP269	ltpFR	5	16	0	CURB	426	n/a	n/a	1	0.57763671875	0.412841796875	1	upper	amplitud.ttf
3026.228	n/a	REC_START	1513114	n/a	LTP269	ltpFR	5	16	n/a	n/a	n/a	n/a	n/a	n/a	n/a	n/a	n/a	n/a	n/a
3027.506	n/a	REC_WORD	1513753	wordpools/wasnorm_wordpool_less_exclusions.txt	LTP269	ltpFR	5	16	0	CAR	241	n/a	n/a	1	n/a	n/a	n/a	n/a	n/a
3028.716	n/a	REC_WORD	1514358	wordpools/wasnorm_wordpool_less_exclusions.txt	LTP269	ltpFR	5	16	0	CURB	426	n/a	n/a	1	n/a	n/a	n/a	n/a	n/a
3031.272	n/a	REC_WORD	1515636	wordpools/wasnorm_wordpool_less_exclusions.txt	LTP269	ltpFR	5	16	0	COMMANDER	354	n/a	n/a	1	n/a	n/a	n/a	n/a	n/a
3033.452	n/a	REC_WORD	1516726	wordpools/wasnorm_wordpool_less_exclusions.txt	LTP269	ltpFR	5	16	0	RECEPTIONIST	1174	n/a	n/a	1	n/a	n/a	n/a	n/a	n/a
3035.832	n/a	REC_WORD	1517916	wordpools/wasnorm_wordpool_less_exclusions.txt	LTP269	ltpFR	5	16	0	YARN	1631	n/a	n/a	0	n/a	n/a	n/a	n/a	n/a
3036.694	n/a	REC_WORD	1518347	wordpools/wasnorm_wordpool_less_exclusions.txt	LTP269	ltpFR	5	16	0	MILK	895	n/a	n/a	0	n/a	n/a	n/a	n/a	n/a
3046.224	n/a	REC_WORD	1523112	wordpools/wasnorm_wordpool_less_exclusions.txt	LTP269	ltpFR	5	16	0	LETTUCE	814	n/a	n/a	0	n/a	n/a	n/a	n/a	n/a
3051.656	n/a	REC_WORD	1525828	wordpools/wasnorm_wordpool_less_exclusions.txt	LTP269	ltpFR	5	16	0	MIRROR	899	n/a	n/a	0	n/a	n/a	n/a	n/a	n/a
3124.308	n/a	REC_START	1562154	n/a	LTP269	ltpFR	5	n/a	n/a	n/a	n/a	n/a	n/a	n/a	n/a	n/a	n/a	n/a	n/a
3125.4	n/a	FFR_REC_WORD	1562700	wordpools/wasnorm_wordpool_less_exclusions.txt	LTP269	ltpFR	5	n/a	0	OX	994	n/a	n/a	1	n/a	n/a	n/a	n/a	n/a
3127.386	n/a	FFR_REC_WORD	1563693	wordpools/wasnorm_wordpool_less_exclusions.txt	LTP269	ltpFR	5	n/a	0	COMMANDER	354	n/a	n/a	1	n/a	n/a	n/a	n/a	n/a
3128.468	n/a	FFR_REC_WORD	1564234	wordpools/wasnorm_wordpool_less_exclusions.txt	LTP269	ltpFR	5	n/a	1	EMPEROR	529	n/a	n/a	1	n/a	n/a	n/a	n/a	n/a
3129.94	n/a	FFR_REC_WORD	1564970	wordpools/wasnorm_wordpool_less_exclusions.txt	LTP269	ltpFR	5	n/a	1	QUEEN	1149	n/a	n/a	1	n/a	n/a	n/a	n/a	n/a
3132.73	n/a	FFR_REC_WORD	1566365	wordpools/wasnorm_wordpool_less_exclusions.txt	LTP269	ltpFR	5	n/a	0	MARINE	869	n/a	n/a	1	n/a	n/a	n/a	n/a	n/a
3135.17	n/a	FFR_REC_WORD	1567585	wordpools/wasnorm_wordpool_less_exclusions.txt	LTP269	ltpFR	5	n/a	0	RECEPTIONIST	1174	n/a	n/a	1	n/a	n/a	n/a	n/a	n/a
3137.26	n/a	FFR_REC_WORD	1568630	wordpools/wasnorm_wordpool_less_exclusions.txt	LTP269	ltpFR	5	n/a	1	CHEF	290	n/a	n/a	1	n/a	n/a	n/a	n/a	n/a
3139.036	n/a	FFR_REC_WORD	1569518	wordpools/wasnorm_wordpool_less_exclusions.txt	LTP269	ltpFR	5	n/a	1	GOVERNOR	651	n/a	n/a	1	n/a	n/a	n/a	n/a	n/a
3140.368	n/a	FFR_REC_WORD	1570184	wordpools/wasnorm_wordpool_less_exclusions.txt	LTP269	ltpFR	5	n/a	1	PRESIDENT	1121	n/a	n/a	1	n/a	n/a	n/a	n/a	n/a
3141.84	n/a	FFR_REC_WORD	1570920	wordpools/wasnorm_wordpool_less_exclusions.txt	LTP269	ltpFR	5	n/a	-1	COUNTRY	388	n/a	n/a	-1	n/a	n/a	n/a	n/a	n/a
3142.324	n/a	FFR_REC_WORD	1571162	wordpools/wasnorm_wordpool_less_exclusions.txt	LTP269	ltpFR	5	n/a	-1	SENATOR	1268	n/a	n/a	-1	n/a	n/a	n/a	n/a	n/a
3145.336	n/a	FFR_REC_WORD	1572668	wordpools/wasnorm_wordpool_less_exclusions.txt	LTP269	ltpFR	5	n/a	0	MANSION	864	n/a	n/a	1	n/a	n/a	n/a	n/a	n/a
3146.63	n/a	FFR_REC_WORD	1573315	wordpools/wasnorm_wordpool_less_exclusions.txt	LTP269	ltpFR	5	n/a	-1	HEDGE	699	n/a	n/a	-1	n/a	n/a	n/a	n/a	n/a
3147.552	n/a	FFR_REC_WORD	1573776	wordpools/wasnorm_wordpool_less_exclusions.txt	LTP269	ltpFR	5	n/a	-1	ROSE	1212	n/a	n/a	-1	n/a	n/a	n/a	n/a	n/a
3150.544	n/a	FFR_REC_WORD	1575272	wordpools/wasnorm_wordpool_less_exclusions.txt	LTP269	ltpFR	5	n/a	-1	MEADOW	881	n/a	n/a	-1	n/a	n/a	n/a	n/a	n/a
3151.474	n/a	FFR_REC_WORD	1575737	wordpools/wasnorm_wordpool_less_exclusions.txt	LTP269	ltpFR	5	n/a	-1	WHEAT	1602	n/a	n/a	-1	n/a	n/a	n/a	n/a	n/a
3152.282	n/a	FFR_REC_WORD	1576141	wordpools/wasnorm_wordpool_less_exclusions.txt	LTP269	ltpFR	5	n/a	n/a	HORSE	719	n/a	n/a	n/a	n/a	n/a	n/a	n/a	n/a
3154.536	n/a	FFR_REC_WORD	1577268	wordpools/wasnorm_wordpool_less_exclusions.txt	LTP269	ltpFR	5	n/a	0	ALLIGATOR	16	n/a	n/a	1	n/a	n/a	n/a	n/a	n/a
3155.36	n/a	FFR_REC_WORD	1577680	wordpools/wasnorm_wordpool_less_exclusions.txt	LTP269	ltpFR	5	n/a	0	NET	946	n/a	n/a	1	n/a	n/a	n/a	n/a	n/a
3156.478	n/a	FFR_REC_WORD	1578239	wordpools/wasnorm_wordpool_less_exclusions.txt	LTP269	ltpFR	5	n/a	1	CLAM	315	n/a	n/a	0	n/a	n/a	n/a	n/a	n/a
3157.336	n/a	FFR_REC_WORD	1578668	wordpools/wasnorm_wordpool_less_exclusions.txt	LTP269	ltpFR	5	n/a	0	OYSTER	995	n/a	n/a	0	n/a	n/a	n/a	n/a	n/a
3158.318	n/a	FFR_REC_WORD	1579159	wordpools/wasnorm_wordpool_less_exclusions.txt	LTP269	ltpFR	5	n/a	-1	SHRIMP	1297	n/a	n/a	-1	n/a	n/a	n/a	n/a	n/a
3160.304	n/a	FFR_REC_WORD	1580152	wordpools/wasnorm_wordpool_less_exclusions.txt	LTP269	ltpFR	5	n/a	0	DOCK	477	n/a	n/a	1	n/a	n/a	n/a	n/a	n/a
3161.176	n/a	FFR_REC_WORD	1580588	wordpools/wasnorm_wordpool_less_exclusions.txt	LTP269	ltpFR	5	n/a	0	DECK	443	n/a	n/a	1	n/a	n/a	n/a	n/a	n/a
3162.368	n/a	FFR_REC_WORD	1581184	wordpools/wasnorm_wordpool_less_exclusions.txt	LTP269	ltpFR	5	n/a	0	VESSEL	1558	n/a	n/a	1	n/a	n/a	n/a	n/a	n/a
3163.536	n/a	FFR_REC_WORD	1581768	wordpools/wasnorm_wordpool_less_exclusions.txt	LTP269	ltpFR	5	n/a	0	CAPTAIN	239	n/a	n/a	1	n/a	n/a	n/a	n/a	n/a
3176.956	n/a	FFR_REC_WORD	1588478	wordpools/wasnorm_wordpool_less_exclusions.txt	LTP269	ltpFR	5	n/a	1	PAD	998	n/a	n/a	0	n/a	n/a	n/a	n/a	n/a
3178.174	n/a	FFR_REC_WORD	1589087	wordpools/wasnorm_wordpool_less_exclusions.txt	LTP269	ltpFR	5	n/a	1	SHEET	1279	n/a	n/a	0	n/a	n/a	n/a	n/a	n/a
3181.746	n/a	FFR_REC_WORD	1590873	wordpools/wasnorm_wordpool_less_exclusions.txt	LTP269	ltpFR	5	n/a	1	ENGINEER	536	n/a	n/a	1	n/a	n/a	n/a	n/a	n/a
3189.03	n/a	FFR_REC_WORD	1594515	wordpools/wasnorm_wordpool_less_exclusions.txt	LTP269	ltpFR	5	n/a	0	CAR	241	n/a	n/a	1	n/a	n/a	n/a	n/a	n/a
3191.724	n/a	FFR_REC_WORD	1595862	wordpools/wasnorm_wordpool_less_exclusions.txt	LTP269	ltpFR	5	n/a	0	DASHBOARD	441	n/a	n/a	0	n/a	n/a	n/a	n/a	n/a
3194.462	n/a	FFR_REC_WORD	1597231	wordpools/wasnorm_wordpool_less_exclusions.txt	LTP269	ltpFR	5	n/a	0	CURB	426	n/a	n/a	1	n/a	n/a	n/a	n/a	n/a
3196.688	n/a	FFR_REC_WORD	1598344	wordpools/wasnorm_wordpool_less_exclusions.txt	LTP269	ltpFR	5	n/a	0	BIRD	129	n/a	n/a	0	n/a	n/a	n/a	n/a	n/a
3197.37	n/a	FFR_REC_WORD	1598685	wordpools/wasnorm_wordpool_less_exclusions.txt	LTP269	ltpFR	5	n/a	1	ROOSTER	1209	n/a	n/a	1	n/a	n/a	n/a	n/a	n/a
3198.418	n/a	FFR_REC_WORD	1599209	wordpools/wasnorm_wordpool_less_exclusions.txt	LTP269	ltpFR	5	n/a	-1	PARROT	1015	n/a	n/a	-1	n/a	n/a	n/a	n/a	n/a
3199.192	n/a	FFR_REC_WORD	1599596	wordpools/wasnorm_wordpool_less_exclusions.txt	LTP269	ltpFR	5	n/a	-1	SPARROW	1347	n/a	n/a	-1	n/a	n/a	n/a	n/a	n/a
3204.88	n/a	FFR_REC_WORD	1602440	wordpools/wasnorm_wordpool_less_exclusions.txt	LTP269	ltpFR	5	n/a	0	MILK	895	n/a	n/a	0	n/a	n/a	n/a	n/a	n/a
3205.822	n/a	FFR_REC_WORD	1602911	wordpools/wasnorm_wordpool_less_exclusions.txt	LTP269	ltpFR	5	n/a	0	LETTUCE	814	n/a	n/a	0	n/a	n/a	n/a	n/a	n/a
3206.96	n/a	FFR_REC_WORD	1603480	wordpools/wasnorm_wordpool_less_exclusions.txt	LTP269	ltpFR	5	n/a	0	YARN	1631	n/a	n/a	0	n/a	n/a	n/a	n/a	n/a
3208.566	n/a	FFR_REC_WORD	1604283	wordpools/wasnorm_wordpool_less_exclusions.txt	LTP269	ltpFR	5	n/a	0	RIBBON	1189	n/a	n/a	0	n/a	n/a	n/a	n/a	n/a
3212.748	n/a	FFR_REC_WORD	1606374	wordpools/wasnorm_wordpool_less_exclusions.txt	LTP269	ltpFR	5	n/a	n/a	UNIVERSE	1540	n/a	n/a	n/a	n/a	n/a	n/a	n/a	n/a
3213.814	n/a	FFR_REC_WORD	1606907	wordpools/wasnorm_wordpool_less_exclusions.txt	LTP269	ltpFR	5	n/a	1	GALAXY	617	n/a	n/a	0	n/a	n/a	n/a	n/a	n/a
3224.062	n/a	FFR_REC_WORD	1612031	wordpools/wasnorm_wordpool_less_exclusions.txt	LTP269	ltpFR	5	n/a	0	PRINCESS	1125	n/a	n/a	1	n/a	n/a	n/a	n/a	n/a
3226.008	n/a	FFR_REC_WORD	1613004	wordpools/wasnorm_wordpool_less_exclusions.txt	LTP269	ltpFR	5	n/a	0	CHILD	299	n/a	n/a	1	n/a	n/a	n/a	n/a	n/a
3232.344	n/a	FFR_REC_WORD	1616172	wordpools/wasnorm_wordpool_less_exclusions.txt	LTP269	ltpFR	5	n/a	0	ANTEATER	26	n/a	n/a	1	n/a	n/a	n/a	n/a	n/a
3234.988	n/a	FFR_REC_WORD	1617494	wordpools/wasnorm_wordpool_less_exclusions.txt	LTP269	ltpFR	5	n/a	1	LEOPARD	812	n/a	n/a	1	n/a	n/a	n/a	n/a	n/a
3239.932	n/a	FFR_REC_WORD	1619966	wordpools/wasnorm_wordpool_less_exclusions.txt	LTP269	ltpFR	5	n/a	1	TILE	1468	n/a	n/a	0	n/a	n/a	n/a	n/a	n/a
3241.158	n/a	FFR_REC_WORD	1620579	wordpools/wasnorm_wordpool_less_exclusions.txt	LTP269	ltpFR	5	n/a	1	FLOOR	581	n/a	n/a	0	n/a	n/a	n/a	n/a	n/a
3267.856	n/a	FFR_REC_WORD	1633928	wordpools/wasnorm_wordpool_less_exclusions.txt	LTP269	ltpFR	5	n/a	0	BROOK	177	n/a	n/a	0	n/a	n/a	n/a	n/a	n/a
3269.456	n/a	FFR_REC_WORD	1634728	wordpools/wasnorm_wordpool_less_exclusions.txt	LTP269	ltpFR	5	n/a	0	TORNADO	1485	n/a	n/a	1	n/a	n/a	n/a	n/a	n/a
3270.798	n/a	FFR_REC_WORD	1635399	wordpools/wasnorm_wordpool_less_exclusions.txt	LTP269	ltpFR	5	n/a	0	HURRICANE	727	n/a	n/a	1	n/a	n/a	n/a	n/a	n/a
3285.646	n/a	FFR_REC_WORD	1642823	wordpools/wasnorm_wordpool_less_exclusions.txt	LTP269	ltpFR	5	n/a	0	TERMITE	1451	n/a	n/a	0	n/a	n/a	n/a	n/a	n/a
3303.218	n/a	FFR_REC_WORD_VV	1651609	wordpools/wasnorm_wordpool_less_exclusions.txt	LTP269	ltpFR	5	n/a	n/a	<>	-1	n/a	n/a	n/a	n/a	n/a	n/a	n/a	n/a
3322.814	n/a	FFR_REC_WORD	1661407	wordpools/wasnorm_wordpool_less_exclusions.txt	LTP269	ltpFR	5	n/a	-1	SINK	1309	n/a	n/a	-1	n/a	n/a	n/a	n/a	n/a
3328.456	n/a	FFR_REC_WORD	1664228	wordpools/wasnorm_wordpool_less_exclusions.txt	LTP269	ltpFR	5	n/a	0	SUPERMARKET	1409	n/a	n/a	1	n/a	n/a	n/a	n/a	n/a
3367.044	n/a	FFR_REC_WORD	1683522	wordpools/wasnorm_wordpool_less_exclusions.txt	LTP269	ltpFR	5	n/a	1	BUTLER	204	n/a	n/a	1	n/a	n/a	n/a	n/a	n/a
3367.832	n/a	FFR_REC_WORD	1683916	wordpools/wasnorm_wordpool_less_exclusions.txt	LTP269	ltpFR	5	n/a	1	WAITER	1580	n/a	n/a	1	n/a	n/a	n/a	n/a	n/a
3369.14	n/a	FFR_REC_WORD	1684570	wordpools/wasnorm_wordpool_less_exclusions.txt	LTP269	ltpFR	5	n/a	0	DRIVER	499	n/a	n/a	1	n/a	n/a	n/a	n/a	n/a
3405.15	n/a	FFR_REC_WORD	1702575	wordpools/wasnorm_wordpool_less_exclusions.txt	LTP269	ltpFR	5	n/a	0	BASEBALL	93	n/a	n/a	1	n/a	n/a	n/a	n/a	n/a
3418.43	n/a	FFR_REC_WORD	1709215	wordpools/wasnorm_wordpool_less_exclusions.txt	LTP269	ltpFR	5	n/a	-1	PARENT	1013	n/a	n/a	-1	n/a	n/a	n/a	n/a	n/a
3419.08	n/a	FFR_REC_WORD	1709540	wordpools/wasnorm_wordpool_less_exclusions.txt	LTP269	ltpFR	5	n/a	-1	COUSIN	392	n/a	n/a	-1	n/a	n/a	n/a	n/a	n/a
3738.59	n/a	REC_START	1869295	n/a	LTP269	ltpFR	5	1	n/a	n/a	n/a	n/a	n/a	n/a	n/a	n/a	n/a	n/a	n/a
3738.65	n/a	RECOG_LURE	1869325	n/a	LTP269	ltpFR	5	1	n/a	NEPTUNE	943	0	3	n/a	n/a	n/a	n/a	n/a	n/a
3740.08	n/a	RECOG_RESP	1870040	n/a	LTP269	ltpFR	5	1	n/a	NEPTUNE	943	0	n/a	n/a	n/a	n/a	n/a	n/a	n/a
3742.0	n/a	RECOG_CONF	1871000	n/a	LTP269	ltpFR	5	1	n/a	NEPTUNE	943	n/a	3	n/a	n/a	n/a	n/a	n/a	n/a
3743.742	n/a	RECOG_LURE	1871871	n/a	LTP269	ltpFR	5	1	n/a	TABLET	1427	0	4	n/a	n/a	n/a	n/a	n/a	n/a
3744.994	n/a	RECOG_RESP	1872497	n/a	LTP269	ltpFR	5	1	n/a	TABLET	1427	0	n/a	n/a	n/a	n/a	n/a	n/a	n/a
3745.85	n/a	RECOG_CONF	1872925	n/a	LTP269	ltpFR	5	1	n/a	TABLET	1427	n/a	4	n/a	n/a	n/a	n/a	n/a	n/a
3747.372	n/a	RECOG_TARGET	1873686	n/a	LTP269	ltpFR	5	1	0	CAR	241	1	4	1	n/a	n/a	n/a	n/a	n/a
3748.184	n/a	RECOG_RESP	1874092	n/a	LTP269	ltpFR	5	1	0	CAR	241	1	n/a	1	n/a	n/a	n/a	n/a	n/a
3748.91	n/a	RECOG_CONF	1874455	n/a	LTP269	ltpFR	5	1	0	CAR	241	n/a	4	1	n/a	n/a	n/a	n/a	n/a
3750.534	n/a	RECOG_TARGET	1875267	n/a	LTP269	ltpFR	5	1	1	SHOWER	1296	0	3	0	n/a	n/a	n/a	n/a	n/a
3751.354	n/a	RECOG_RESP	1875677	n/a	LTP269	ltpFR	5	1	1	SHOWER	1296	0	n/a	0	n/a	n/a	n/a	n/a	n/a
3752.02	n/a	RECOG_CONF	1876010	n/a	LTP269	ltpFR	5	1	1	SHOWER	1296	n/a	3	0	n/a	n/a	n/a	n/a	n/a
3753.562	n/a	RECOG_TARGET	1876781	n/a	LTP269	ltpFR	5	1	1	TILE	1468	1	5	0	n/a	n/a	n/a	n/a	n/a
3754.4	n/a	RECOG_RESP	1877200	n/a	LTP269	ltpFR	5	1	1	TILE	1468	1	n/a	0	n/a	n/a	n/a	n/a	n/a
3755.03	n/a	RECOG_CONF	1877515	n/a	LTP269	ltpFR	5	1	1	TILE	1468	n/a	5	0	n/a	n/a	n/a	n/a	n/a
3756.436	n/a	RECOG_LURE	1878218	n/a	LTP269	ltpFR	5	1	n/a	STATUE	1374	0	3	n/a	n/a	n/a	n/a	n/a	n/a
3757.05	n/a	RECOG_RESP	1878525	n/a	LTP269	ltpFR	5	1	n/a	STATUE	1374	0	n/a	n/a	n/a	n/a	n/a	n/a	n/a
3757.68	n/a	RECOG_CONF	1878840	n/a	LTP269	ltpFR	5	1	n/a	STATUE	1374	n/a	3	n/a	n/a	n/a	n/a	n/a	n/a
3759.152	n/a	RECOG_TARGET	1879576	n/a	LTP269	ltpFR	5	1	0	COMMANDER	354	1	5	1	n/a	n/a	n/a	n/a	n/a
3759.85	n/a	RECOG_RESP	1879925	n/a	LTP269	ltpFR	5	1	0	COMMANDER	354	1	n/a	1	n/a	n/a	n/a	n/a	n/a
3760.46	n/a	RECOG_CONF	1880230	n/a	LTP269	ltpFR	5	1	0	COMMANDER	354	n/a	5	1	n/a	n/a	n/a	n/a	n/a
3762.074	n/a	RECOG_TARGET	1881037	n/a	LTP269	ltpFR	5	1	-1	TOY	1492	1	3	-1	n/a	n/a	n/a	n/a	n/a
3762.806	n/a	RECOG_RESP	1881403	n/a	LTP269	ltpFR	5	1	-1	TOY	1492	1	n/a	-1	n/a	n/a	n/a	n/a	n/a
3763.43	n/a	RECOG_CONF	1881715	n/a	LTP269	ltpFR	5	1	-1	TOY	1492	n/a	3	-1	n/a	n/a	n/a	n/a	n/a
3765.018	n/a	RECOG_TARGET	1882509	n/a	LTP269	ltpFR	5	1	0	MAT	877	1	3	1	n/a	n/a	n/a	n/a	n/a
3765.67	n/a	RECOG_RESP	1882835	n/a	LTP269	ltpFR	5	1	0	MAT	877	1	n/a	1	n/a	n/a	n/a	n/a	n/a
3766.23	n/a	RECOG_CONF	1883115	n/a	LTP269	ltpFR	5	1	0	MAT	877	n/a	3	1	n/a	n/a	n/a	n/a	n/a
3767.794	n/a	RECOG_LURE	1883897	n/a	LTP269	ltpFR	5	1	n/a	DINOSAUR	469	0	5	n/a	n/a	n/a	n/a	n/a	n/a
3768.476	n/a	RECOG_RESP	1884238	n/a	LTP269	ltpFR	5	1	n/a	DINOSAUR	469	0	n/a	n/a	n/a	n/a	n/a	n/a	n/a
3768.97	n/a	RECOG_CONF	1884485	n/a	LTP269	ltpFR	5	1	n/a	DINOSAUR	469	n/a	5	n/a	n/a	n/a	n/a	n/a	n/a
3770.56	n/a	RECOG_TARGET	1885280	n/a	LTP269	ltpFR	5	1	-1	JUGGLER	763	0	1	-1	n/a	n/a	n/a	n/a	n/a
3771.266	n/a	RECOG_RESP	1885633	n/a	LTP269	ltpFR	5	1	-1	JUGGLER	763	0	n/a	-1	n/a	n/a	n/a	n/a	n/a
3772.35	n/a	RECOG_CONF	1886175	n/a	LTP269	ltpFR	5	1	-1	JUGGLER	763	n/a	1	-1	n/a	n/a	n/a	n/a	n/a
3774.092	n/a	RECOG_TARGET	1887046	n/a	LTP269	ltpFR	5	1	0	TERRITORY	1452	1	3	1	n/a	n/a	n/a	n/a	n/a
3775.392	n/a	RECOG_RESP	1887696	n/a	LTP269	ltpFR	5	1	0	TERRITORY	1452	1	n/a	1	n/a	n/a	n/a	n/a	n/a
3776.132	n/a	RECOG_CONF	1888066	n/a	LTP269	ltpFR	5	1	0	TERRITORY	1452	n/a	3	1	n/a	n/a	n/a	n/a	n/a
3777.532	n/a	RECOG_LURE	1888766	n/a	LTP269	ltpFR	5	1	n/a	POSTAGE	1113	0	4	n/a	n/a	n/a	n/a	n/a	n/a
3778.376	n/a	RECOG_RESP	1889188	n/a	LTP269	ltpFR	5	1	n/a	POSTAGE	1113	0	n/a	n/a	n/a	n/a	n/a	n/a	n/a
3778.982	n/a	RECOG_CONF	1889491	n/a	LTP269	ltpFR	5	1	n/a	POSTAGE	1113	n/a	4	n/a	n/a	n/a	n/a	n/a	n/a
3780.482	n/a	RECOG_TARGET	1890241	n/a	LTP269	ltpFR	5	1	-1	MOAT	903	1	3	-1	n/a	n/a	n/a	n/a	n/a
3781.366	n/a	RECOG_RESP	1890683	n/a	LTP269	ltpFR	5	1	-1	MOAT	903	1	n/a	-1	n/a	n/a	n/a	n/a	n/a
3781.982	n/a	RECOG_CONF	1890991	n/a	LTP269	ltpFR	5	1	-1	MOAT	903	n/a	3	-1	n/a	n/a	n/a	n/a	n/a
3783.528	n/a	RECOG_TARGET	1891764	n/a	LTP269	ltpFR	5	1	-1	ELM	527	1	3	-1	n/a	n/a	n/a	n/a	n/a
3784.332	n/a	RECOG_RESP	1892166	n/a	LTP269	ltpFR	5	1	-1	ELM	527	1	n/a	-1	n/a	n/a	n/a	n/a	n/a
3784.932	n/a	RECOG_CONF	1892466	n/a	LTP269	ltpFR	5	1	-1	ELM	527	n/a	3	-1	n/a	n/a	n/a	n/a	n/a
3786.456	n/a	RECOG_TARGET	1893228	n/a	LTP269	ltpFR	5	1	1	CHECKERS	285	1	4	0	n/a	n/a	n/a	n/a	n/a
3787.116	n/a	RECOG_RESP	1893558	n/a	LTP269	ltpFR	5	1	1	CHECKERS	285	1	n/a	0	n/a	n/a	n/a	n/a	n/a
3787.502	n/a	RECOG_CONF	1893751	n/a	LTP269	ltpFR	5	1	1	CHECKERS	285	n/a	4	0	n/a	n/a	n/a	n/a	n/a
3789.16	n/a	RECOG_TARGET	1894580	n/a	LTP269	ltpFR	5	1	1	ELF	525	1	5	1	n/a	n/a	n/a	n/a	n/a
3789.972	n/a	RECOG_RESP	1894986	n/a	LTP269	ltpFR	5	1	1	ELF	525	1	n/a	1	n/a	n/a	n/a	n/a	n/a
3790.382	n/a	RECOG_CONF	1895191	n/a	LTP269	ltpFR	5	1	1	ELF	525	n/a	5	1	n/a	n/a	n/a	n/a	n/a
3791.96	n/a	RECOG_TARGET	1895980	n/a	LTP269	ltpFR	5	1	-1	APPLE	33	0	2	-1	n/a	n/a	n/a	n/a	n/a
3792.702	n/a	RECOG_RESP	1896351	n/a	LTP269	ltpFR	5	1	-1	APPLE	33	0	n/a	-1	n/a	n/a	n/a	n/a	n/a
3793.442	n/a	RECOG_CONF	1896721	n/a	LTP269	ltpFR	5	1	-1	APPLE	33	n/a	2	-1	n/a	n/a	n/a	n/a	n/a
3795.138	n/a	RECOG_LURE	1897569	n/a	LTP269	ltpFR	5	1	n/a	BULLETIN	195	0	2	n/a	n/a	n/a	n/a	n/a	n/a
3796.408	n/a	RECOG_RESP	1898204	n/a	LTP269	ltpFR	5	1	n/a	BULLETIN	195	0	n/a	n/a	n/a	n/a	n/a	n/a	n/a
3797.042	n/a	RECOG_CONF	1898521	n/a	LTP269	ltpFR	5	1	n/a	BULLETIN	195	n/a	2	n/a	n/a	n/a	n/a	n/a	n/a
3798.718	n/a	RECOG_LURE	1899359	n/a	LTP269	ltpFR	5	1	n/a	LOBBY	836	0	3	n/a	n/a	n/a	n/a	n/a	n/a
3799.712	n/a	RECOG_RESP	1899856	n/a	LTP269	ltpFR	5	1	n/a	LOBBY	836	0	n/a	n/a	n/a	n/a	n/a	n/a	n/a
3800.302	n/a	RECOG_CONF	1900151	n/a	LTP269	ltpFR	5	1	n/a	LOBBY	836	n/a	3	n/a	n/a	n/a	n/a	n/a	n/a
3804.322	n/a	REC_START	1902161	n/a	LTP269	ltpFR	5	2	n/a	n/a	n/a	n/a	n/a	n/a	n/a	n/a	n/a	n/a	n/a
3804.374	n/a	RECOG_TARGET	1902187	n/a	LTP269	ltpFR	5	2	1	BULL	193	1	3	1	n/a	n/a	n/a	n/a	n/a
3805.402	n/a	RECOG_RESP	1902701	n/a	LTP269	ltpFR	5	2	1	BULL	193	1	n/a	1	n/a	n/a	n/a	n/a	n/a
3806.152	n/a	RECOG_CONF	1903076	n/a	LTP269	ltpFR	5	2	1	BULL	193	n/a	3	1	n/a	n/a	n/a	n/a	n/a
3807.586	n/a	RECOG_LURE	1903793	n/a	LTP269	ltpFR	5	2	n/a	ROCKET	1202	0	2	n/a	n/a	n/a	n/a	n/a	n/a
3808.962	n/a	RECOG_RESP	1904481	n/a	LTP269	ltpFR	5	2	n/a	ROCKET	1202	0	n/a	n/a	n/a	n/a	n/a	n/a	n/a
3809.602	n/a	RECOG_CONF	1904801	n/a	LTP269	ltpFR	5	2	n/a	ROCKET	1202	n/a	2	n/a	n/a	n/a	n/a	n/a	n/a
3811.116	n/a	RECOG_TARGET	1905558	n/a	LTP269	ltpFR	5	2	0	HAMPER	682	1	4	1	n/a	n/a	n/a	n/a	n/a
3811.848	n/a	RECOG_RESP	1905924	n/a	LTP269	ltpFR	5	2	0	HAMPER	682	1	n/a	1	n/a	n/a	n/a	n/a	n/a
3812.282	n/a	RECOG_CONF	1906141	n/a	LTP269	ltpFR	5	2	0	HAMPER	682	n/a	4	1	n/a	n/a	n/a	n/a	n/a
3813.944	n/a	RECOG_LURE	1906972	n/a	LTP269	ltpFR	5	2	n/a	GARLIC	624	0	5	n/a	n/a	n/a	n/a	n/a	n/a
3814.678	n/a	RECOG_RESP	1907339	n/a	LTP269	ltpFR	5	2	n/a	GARLIC	624	0	n/a	n/a	n/a	n/a	n/a	n/a	n/a
3815.514	n/a	RECOG_CONF	1907757	n/a	LTP269	ltpFR	5	2	n/a	GARLIC	624	n/a	5	n/a	n/a	n/a	n/a	n/a	n/a
3816.788	n/a	RECOG_LURE	1908394	n/a	LTP269	ltpFR	5	2	n/a	CHALK	276	0	3	n/a	n/a	n/a	n/a	n/a	n/a
3817.578	n/a	RECOG_RESP	1908789	n/a	LTP269	ltpFR	5	2	n/a	CHALK	276	0	n/a	n/a	n/a	n/a	n/a	n/a	n/a
3818.212	n/a	RECOG_CONF	1909106	n/a	LTP269	ltpFR	5	2	n/a	CHALK	276	n/a	3	n/a	n/a	n/a	n/a	n/a	n/a
3819.866	n/a	RECOG_TARGET	1909933	n/a	LTP269	ltpFR	5	2	-1	WRITER	1627	1	3	-1	n/a	n/a	n/a	n/a	n/a
3820.742	n/a	RECOG_RESP	1910371	n/a	LTP269	ltpFR	5	2	-1	WRITER	1627	1	n/a	-1	n/a	n/a	n/a	n/a	n/a
3821.382	n/a	RECOG_CONF	1910691	n/a	LTP269	ltpFR	5	2	-1	WRITER	1627	n/a	3	-1	n/a	n/a	n/a	n/a	n/a
3822.99	n/a	RECOG_LURE	1911495	n/a	LTP269	ltpFR	5	2	n/a	BASEMENT	94	1	2	n/a	n/a	n/a	n/a	n/a	n/a
3824.232	n/a	RECOG_RESP	1912116	n/a	LTP269	ltpFR	5	2	n/a	BASEMENT	94	1	n/a	n/a	n/a	n/a	n/a	n/a	n/a
3824.982	n/a	RECOG_CONF	1912491	n/a	LTP269	ltpFR	5	2	n/a	BASEMENT	94	n/a	2	n/a	n/a	n/a	n/a	n/a	n/a
3826.536	n/a	RECOG_LURE	1913268	n/a	LTP269	ltpFR	5	2	n/a	JAPAN	749	0	3	n/a	n/a	n/a	n/a	n/a	n/a
3828.182	n/a	RECOG_RESP	1914091	n/a	LTP269	ltpFR	5	2	n/a	JAPAN	749	0	n/a	n/a	n/a	n/a	n/a	n/a	n/a
3828.762	n/a	RECOG_CONF	1914381	n/a	LTP269	ltpFR	5	2	n/a	JAPAN	749	n/a	3	n/a	n/a	n/a	n/a	n/a	n/a
3830.256	n/a	RECOG_TARGET	1915128	n/a	LTP269	ltpFR	5	2	1	BOWL	158	0	2	0	n/a	n/a	n/a	n/a	n/a
3831.128	n/a	RECOG_RESP	1915564	n/a	LTP269	ltpFR	5	2	1	BOWL	158	0	n/a	0	n/a	n/a	n/a	n/a	n/a
3831.654	n/a	RECOG_CONF	1915827	n/a	LTP269	ltpFR	5	2	1	BOWL	158	n/a	2	0	n/a	n/a	n/a	n/a	n/a
3833.196	n/a	RECOG_TARGET	1916598	n/a	LTP269	ltpFR	5	2	-1	MAMMAL	861	1	4	-1	n/a	n/a	n/a	n/a	n/a
3834.074	n/a	RECOG_RESP	1917037	n/a	LTP269	ltpFR	5	2	-1	MAMMAL	861	1	n/a	-1	n/a	n/a	n/a	n/a	n/a
3834.514	n/a	RECOG_CONF	1917257	n/a	LTP269	ltpFR	5	2	-1	MAMMAL	861	n/a	4	-1	n/a	n/a	n/a	n/a	n/a
3836.174	n/a	RECOG_LURE	1918087	n/a	LTP269	ltpFR	5	2	n/a	CONSOLE	364	0	1	n/a	n/a	n/a	n/a	n/a	n/a
3837.254	n/a	RECOG_RESP	1918627	n/a	LTP269	ltpFR	5	2	n/a	CONSOLE	364	0	n/a	n/a	n/a	n/a	n/a	n/a	n/a
3837.814	n/a	RECOG_CONF	1918907	n/a	LTP269	ltpFR	5	2	n/a	CONSOLE	364	n/a	1	n/a	n/a	n/a	n/a	n/a	n/a
3839.492	n/a	RECOG_TARGET	1919746	n/a	LTP269	ltpFR	5	2	-1	CENT	270	0	2	-1	n/a	n/a	n/a	n/a	n/a
3840.354	n/a	RECOG_RESP	1920177	n/a	LTP269	ltpFR	5	2	-1	CENT	270	0	n/a	-1	n/a	n/a	n/a	n/a	n/a
3840.894	n/a	RECOG_CONF	1920447	n/a	LTP269	ltpFR	5	2	-1	CENT	270	n/a	2	-1	n/a	n/a	n/a	n/a	n/a
3842.498	n/a	RECOG_LURE	1921249	n/a	LTP269	ltpFR	5	2	n/a	AUDIENCE	59	0	3	n/a	n/a	n/a	n/a	n/a	n/a
3844.13	n/a	RECOG_RESP	1922065	n/a	LTP269	ltpFR	5	2	n/a	AUDIENCE	59	0	n/a	n/a	n/a	n/a	n/a	n/a	n/a
3845.364	n/a	RECOG_CONF	1922682	n/a	LTP269	ltpFR	5	2	n/a	AUDIENCE	59	n/a	3	n/a	n/a	n/a	n/a	n/a	n/a
3847.036	n/a	RECOG_TARGET	1923518	n/a	LTP269	ltpFR	5	2	0	MARINE	869	1	4	1	n/a	n/a	n/a	n/a	n/a
3848.144	n/a	RECOG_RESP	1924072	n/a	LTP269	ltpFR	5	2	0	MARINE	869	1	n/a	1	n/a	n/a	n/a	n/a	n/a
3848.514	n/a	RECOG_CONF	1924257	n/a	LTP269	ltpFR	5	2	0	MARINE	869	n/a	4	1	n/a	n/a	n/a	n/a	n/a
3850.366	n/a	RECOG_TARGET	1925183	n/a	LTP269	ltpFR	5	2	-1	ATHLETE	52	1	4	-1	n/a	n/a	n/a	n/a	n/a
3851.19	n/a	RECOG_RESP	1925595	n/a	LTP269	ltpFR	5	2	-1	ATHLETE	52	1	n/a	-1	n/a	n/a	n/a	n/a	n/a
3851.714	n/a	RECOG_CONF	1925857	n/a	LTP269	ltpFR	5	2	-1	ATHLETE	52	n/a	4	-1	n/a	n/a	n/a	n/a	n/a
3853.338	n/a	RECOG_LURE	1926669	n/a	LTP269	ltpFR	5	2	n/a	FRECKLE	602	1	1	n/a	n/a	n/a	n/a	n/a	n/a
3855.304	n/a	RECOG_RESP	1927652	n/a	LTP269	ltpFR	5	2	n/a	FRECKLE	602	1	n/a	n/a	n/a	n/a	n/a	n/a	n/a
3856.284	n/a	RECOG_CONF	1928142	n/a	LTP269	ltpFR	5	2	n/a	FRECKLE	602	n/a	1	n/a	n/a	n/a	n/a	n/a	n/a
3857.906	n/a	RECOG_LURE	1928953	n/a	LTP269	ltpFR	5	2	n/a	HAMBURGER	679	0	3	n/a	n/a	n/a	n/a	n/a	n/a
3859.424	n/a	RECOG_RESP	1929712	n/a	LTP269	ltpFR	5	2	n/a	HAMBURGER	679	0	n/a	n/a	n/a	n/a	n/a	n/a	n/a
3859.674	n/a	RECOG_CONF	1929837	n/a	LTP269	ltpFR	5	2	n/a	HAMBURGER	679	n/a	3	n/a	n/a	n/a	n/a	n/a	n/a
3861.77	n/a	RECOG_TARGET	1930885	n/a	LTP269	ltpFR	5	2	1	COOLER	375	1	4	1	n/a	n/a	n/a	n/a	n/a
3862.624	n/a	RECOG_RESP	1931312	n/a	LTP269	ltpFR	5	2	1	COOLER	375	1	n/a	1	n/a	n/a	n/a	n/a	n/a
3863.024	n/a	RECOG_CONF	1931512	n/a	LTP269	ltpFR	5	2	1	COOLER	375	n/a	4	1	n/a	n/a	n/a	n/a	n/a
3864.738	n/a	RECOG_LURE	1932369	n/a	LTP269	ltpFR	5	2	n/a	VAGRANT	1544	0	3	n/a	n/a	n/a	n/a	n/a	n/a
3865.54	n/a	RECOG_RESP	1932770	n/a	LTP269	ltpFR	5	2	n/a	VAGRANT	1544	0	n/a	n/a	n/a	n/a	n/a	n/a	n/a
3866.224	n/a	RECOG_CONF	1933112	n/a	LTP269	ltpFR	5	2	n/a	VAGRANT	1544	n/a	3	n/a	n/a	n/a	n/a	n/a	n/a
3867.762	n/a	RECOG_LURE	1933881	n/a	LTP269	ltpFR	5	2	n/a	CEREAL	272	0	2	n/a	n/a	n/a	n/a	n/a	n/a
3868.76	n/a	RECOG_RESP	1934380	n/a	LTP269	ltpFR	5	2	n/a	CEREAL	272	0	n/a	n/a	n/a	n/a	n/a	n/a	n/a
3869.306	n/a	RECOG_CONF	1934653	n/a	LTP269	ltpFR	5	2	n/a	CEREAL	272	n/a	2	n/a	n/a	n/a	n/a	n/a	n/a
3872.896	n/a	REC_START	1936448	n/a	LTP269	ltpFR	5	3	n/a	n/a	n/a	n/a	n/a	n/a	n/a	n/a	n/a	n/a	n/a
3872.952	n/a	RECOG_TARGET	1936476	n/a	LTP269	ltpFR	5	3	0	MULE	931	1	4	1	n/a	n/a	n/a	n/a	n/a
3873.766	n/a	RECOG_RESP	1936883	n/a	LTP269	ltpFR	5	3	0	MULE	931	1	n/a	1	n/a	n/a	n/a	n/a	n/a
3874.166	n/a	RECOG_CONF	1937083	n/a	LTP269	ltpFR	5	3	0	MULE	931	n/a	4	1	n/a	n/a	n/a	n/a	n/a
3875.78	n/a	RECOG_TARGET	1937890	n/a	LTP269	ltpFR	5	3	0	SPOOL	1356	1	4	0	n/a	n/a	n/a	n/a	n/a
3876.562	n/a	RECOG_RESP	1938281	n/a	LTP269	ltpFR	5	3	0	SPOOL	1356	1	n/a	0	n/a	n/a	n/a	n/a	n/a
3877.136	n/a	RECOG_CONF	1938568	n/a	LTP269	ltpFR	5	3	0	SPOOL	1356	n/a	4	0	n/a	n/a	n/a	n/a	n/a
3878.64	n/a	RECOG_LURE	1939320	n/a	LTP269	ltpFR	5	3	n/a	VEGETABLE	1552	0	2	n/a	n/a	n/a	n/a	n/a	n/a
3879.906	n/a	RECOG_RESP	1939953	n/a	LTP269	ltpFR	5	3	n/a	VEGETABLE	1552	0	n/a	n/a	n/a	n/a	n/a	n/a	n/a
3880.486	n/a	RECOG_CONF	1940243	n/a	LTP269	ltpFR	5	3	n/a	VEGETABLE	1552	n/a	2	n/a	n/a	n/a	n/a	n/a	n/a
3882.064	n/a	RECOG_LURE	1941032	n/a	LTP269	ltpFR	5	3	n/a	PERMIT	1051	0	3	n/a	n/a	n/a	n/a	n/a	n/a
3883.272	n/a	RECOG_RESP	1941636	n/a	LTP269	ltpFR	5	3	n/a	PERMIT	1051	0	n/a	n/a	n/a	n/a	n/a	n/a	n/a
3883.646	n/a	RECOG_CONF	1941823	n/a	LTP269	ltpFR	5	3	n/a	PERMIT	1051	n/a	3	n/a	n/a	n/a	n/a	n/a	n/a
3885.382	n/a	RECOG_TARGET	1942691	n/a	LTP269	ltpFR	5	3	-1	CABBAGE	210	1	4	-1	n/a	n/a	n/a	n/a	n/a
3886.236	n/a	RECOG_RESP	1943118	n/a	LTP269	ltpFR	5	3	-1	CABBAGE	210	1	n/a	-1	n/a	n/a	n/a	n/a	n/a
3886.628	n/a	RECOG_CONF	1943314	n/a	LTP269	ltpFR	5	3	-1	CABBAGE	210	n/a	4	-1	n/a	n/a	n/a	n/a	n/a
3888.378	n/a	RECOG_TARGET	1944189	n/a	LTP269	ltpFR	5	3	1	BLOCKADE	137	1	5	0	n/a	n/a	n/a	n/a	n/a
3889.312	n/a	RECOG_RESP	1944656	n/a	LTP269	ltpFR	5	3	1	BLOCKADE	137	1	n/a	0	n/a	n/a	n/a	n/a	n/a
3889.888	n/a	RECOG_CONF	1944944	n/a	LTP269	ltpFR	5	3	1	BLOCKADE	137	n/a	5	0	n/a	n/a	n/a	n/a	n/a
3891.334	n/a	RECOG_TARGET	1945667	n/a	LTP269	ltpFR	5	3	0	DOCK	477	1	4	1	n/a	n/a	n/a	n/a	n/a
3892.018	n/a	RECOG_RESP	1946009	n/a	LTP269	ltpFR	5	3	0	DOCK	477	1	n/a	1	n/a	n/a	n/a	n/a	n/a
3892.548	n/a	RECOG_CONF	1946274	n/a	LTP269	ltpFR	5	3	0	DOCK	477	n/a	4	1	n/a	n/a	n/a	n/a	n/a
3894.134	n/a	RECOG_LURE	1947067	n/a	LTP269	ltpFR	5	3	n/a	PICK	1058	0	2	n/a	n/a	n/a	n/a	n/a	n/a
3894.982	n/a	RECOG_RESP	1947491	n/a	LTP269	ltpFR	5	3	n/a	PICK	1058	0	n/a	n/a	n/a	n/a	n/a	n/a	n/a
3895.528	n/a	RECOG_CONF	1947764	n/a	LTP269	ltpFR	5	3	n/a	PICK	1058	n/a	2	n/a	n/a	n/a	n/a	n/a	n/a
3897.106	n/a	RECOG_LURE	1948553	n/a	LTP269	ltpFR	5	3	n/a	MILDEW	893	0	3	n/a	n/a	n/a	n/a	n/a	n/a
3897.908	n/a	RECOG_RESP	1948954	n/a	LTP269	ltpFR	5	3	n/a	MILDEW	893	0	n/a	n/a	n/a	n/a	n/a	n/a	n/a
3898.498	n/a	RECOG_CONF	1949249	n/a	LTP269	ltpFR	5	3	n/a	MILDEW	893	n/a	3	n/a	n/a	n/a	n/a	n/a	n/a
3900.106	n/a	RECOG_TARGET	1950053	n/a	LTP269	ltpFR	5	3	0	TERMITE	1451	1	3	0	n/a	n/a	n/a	n/a	n/a
3900.938	n/a	RECOG_RESP_VV	1950469	n/a	LTP269	ltpFR	5	3	0	TERMITE	1451	0	n/a	0	n/a	n/a	n/a	n/a	n/a
3901.482	n/a	RECOG_RESP	1950741	n/a	LTP269	ltpFR	5	3	0	TERMITE	1451	1	n/a	0	n/a	n/a	n/a	n/a	n/a
3902.208	n/a	RECOG_CONF	1951104	n/a	LTP269	ltpFR	5	3	0	TERMITE	1451	n/a	3	0	n/a	n/a	n/a	n/a	n/a
3905.108	n/a	RECOG_LURE	1952554	n/a	LTP269	ltpFR	5	3	n/a	SUGAR	1401	0	2	n/a	n/a	n/a	n/a	n/a	n/a
3907.694	n/a	RECOG_RESP	1953847	n/a	LTP269	ltpFR	5	3	n/a	SUGAR	1401	0	n/a	n/a	n/a	n/a	n/a	n/a	n/a
3909.088	n/a	RECOG_CONF	1954544	n/a	LTP269	ltpFR	5	3	n/a	SUGAR	1401	n/a	2	n/a	n/a	n/a	n/a	n/a	n/a
3910.748	n/a	RECOG_TARGET	1955374	n/a	LTP269	ltpFR	5	3	1	BANK	83	0	2	0	n/a	n/a	n/a	n/a	n/a
3912.588	n/a	RECOG_RESP	1956294	n/a	LTP269	ltpFR	5	3	1	BANK	83	0	n/a	0	n/a	n/a	n/a	n/a	n/a
3913.408	n/a	RECOG_CONF	1956704	n/a	LTP269	ltpFR	5	3	1	BANK	83	n/a	2	0	n/a	n/a	n/a	n/a	n/a
3914.862	n/a	RECOG_TARGET	1957431	n/a	LTP269	ltpFR	5	3	-1	GAZELLE	628	1	4	-1	n/a	n/a	n/a	n/a	n/a
3915.714	n/a	RECOG_RESP	1957857	n/a	LTP269	ltpFR	5	3	-1	GAZELLE	628	1	n/a	-1	n/a	n/a	n/a	n/a	n/a
3916.248	n/a	RECOG_CONF	1958124	n/a	LTP269	ltpFR	5	3	-1	GAZELLE	628	n/a	4	-1	n/a	n/a	n/a	n/a	n/a
3917.84	n/a	RECOG_LURE	1958920	n/a	LTP269	ltpFR	5	3	n/a	ORNAMENT	985	0	3	n/a	n/a	n/a	n/a	n/a	n/a
3918.724	n/a	RECOG_RESP	1959362	n/a	LTP269	ltpFR	5	3	n/a	ORNAMENT	985	0	n/a	n/a	n/a	n/a	n/a	n/a	n/a
3919.258	n/a	RECOG_CONF	1959629	n/a	LTP269	ltpFR	5	3	n/a	ORNAMENT	985	n/a	3	n/a	n/a	n/a	n/a	n/a	n/a
3920.852	n/a	RECOG_TARGET	1960426	n/a	LTP269	ltpFR	5	3	0	SKI	1316	1	4	1	n/a	n/a	n/a	n/a	n/a
3921.594	n/a	RECOG_RESP	1960797	n/a	LTP269	ltpFR	5	3	0	SKI	1316	1	n/a	1	n/a	n/a	n/a	n/a	n/a
3921.988	n/a	RECOG_CONF	1960994	n/a	LTP269	ltpFR	5	3	0	SKI	1316	n/a	4	1	n/a	n/a	n/a	n/a	n/a
3923.69	n/a	RECOG_TARGET	1961845	n/a	LTP269	ltpFR	5	3	0	DECK	443	1	5	1	n/a	n/a	n/a	n/a	n/a
3924.364	n/a	RECOG_RESP	1962182	n/a	LTP269	ltpFR	5	3	0	DECK	443	1	n/a	1	n/a	n/a	n/a	n/a	n/a
3924.76	n/a	RECOG_CONF	1962380	n/a	LTP269	ltpFR	5	3	0	DECK	443	n/a	5	1	n/a	n/a	n/a	n/a	n/a
3926.306	n/a	RECOG_LURE	1963153	n/a	LTP269	ltpFR	5	3	n/a	THIEF	1456	1	3	n/a	n/a	n/a	n/a	n/a	n/a
3927.264	n/a	RECOG_RESP	1963632	n/a	LTP269	ltpFR	5	3	n/a	THIEF	1456	1	n/a	n/a	n/a	n/a	n/a	n/a	n/a
3928.08	n/a	RECOG_CONF	1964040	n/a	LTP269	ltpFR	5	3	n/a	THIEF	1456	n/a	3	n/a	n/a	n/a	n/a	n/a	n/a
3929.546	n/a	RECOG_LURE	1964773	n/a	LTP269	ltpFR	5	3	n/a	ANTLER	29	1	3	n/a	n/a	n/a	n/a	n/a	n/a
3930.534	n/a	RECOG_RESP	1965267	n/a	LTP269	ltpFR	5	3	n/a	ANTLER	29	1	n/a	n/a	n/a	n/a	n/a	n/a	n/a
3931.23	n/a	RECOG_CONF	1965615	n/a	LTP269	ltpFR	5	3	n/a	ANTLER	29	n/a	3	n/a	n/a	n/a	n/a	n/a	n/a
3932.814	n/a	RECOG_TARGET	1966407	n/a	LTP269	ltpFR	5	3	0	OYSTER	995	1	4	0	n/a	n/a	n/a	n/a	n/a
3933.644	n/a	RECOG_RESP	1966822	n/a	LTP269	ltpFR	5	3	0	OYSTER	995	1	n/a	0	n/a	n/a	n/a	n/a	n/a
3934.31	n/a	RECOG_CONF	1967155	n/a	LTP269	ltpFR	5	3	0	OYSTER	995	n/a	4	0	n/a	n/a	n/a	n/a	n/a
3935.81	n/a	RECOG_TARGET	1967905	n/a	LTP269	ltpFR	5	3	0	BELT	120	1	5	0	n/a	n/a	n/a	n/a	n/a
3936.61	n/a	RECOG_RESP	1968305	n/a	LTP269	ltpFR	5	3	0	BELT	120	1	n/a	0	n/a	n/a	n/a	n/a	n/a
3936.97	n/a	RECOG_CONF	1968485	n/a	LTP269	ltpFR	5	3	0	BELT	120	n/a	5	0	n/a	n/a	n/a	n/a	n/a
3941.77	n/a	REC_START	1970885	n/a	LTP269	ltpFR	5	4	n/a	n/a	n/a	n/a	n/a	n/a	n/a	n/a	n/a	n/a	n/a
3941.832	n/a	RECOG_LURE	1970916	n/a	LTP269	ltpFR	5	4	n/a	ATTORNEY	58	1	2	n/a	n/a	n/a	n/a	n/a	n/a
3943.496	n/a	RECOG_RESP	1971748	n/a	LTP269	ltpFR	5	4	n/a	ATTORNEY	58	1	n/a	n/a	n/a	n/a	n/a	n/a	n/a
3944.73	n/a	RECOG_CONF	1972365	n/a	LTP269	ltpFR	5	4	n/a	ATTORNEY	58	n/a	2	n/a	n/a	n/a	n/a	n/a	n/a
3946.26	n/a	RECOG_LURE	1973130	n/a	LTP269	ltpFR	5	4	n/a	AIRPLANE	12	0	3	n/a	n/a	n/a	n/a	n/a	n/a
3947.606	n/a	RECOG_RESP	1973803	n/a	LTP269	ltpFR	5	4	n/a	AIRPLANE	12	0	n/a	n/a	n/a	n/a	n/a	n/a	n/a
3948.19	n/a	RECOG_CONF	1974095	n/a	LTP269	ltpFR	5	4	n/a	AIRPLANE	12	n/a	3	n/a	n/a	n/a	n/a	n/a	n/a
3949.762	n/a	RECOG_TARGET	1974881	n/a	LTP269	ltpFR	5	4	1	CYLINDER	432	1	4	0	n/a	n/a	n/a	n/a	n/a
3950.65	n/a	RECOG_RESP	1975325	n/a	LTP269	ltpFR	5	4	1	CYLINDER	432	1	n/a	0	n/a	n/a	n/a	n/a	n/a
3951.19	n/a	RECOG_CONF	1975595	n/a	LTP269	ltpFR	5	4	1	CYLINDER	432	n/a	4	0	n/a	n/a	n/a	n/a	n/a
3952.774	n/a	RECOG_LURE	1976387	n/a	LTP269	ltpFR	5	4	n/a	GHETTO	633	0	5	n/a	n/a	n/a	n/a	n/a	n/a
3953.53	n/a	RECOG_RESP	1976765	n/a	LTP269	ltpFR	5	4	n/a	GHETTO	633	0	n/a	n/a	n/a	n/a	n/a	n/a	n/a
3954.48	n/a	RECOG_CONF	1977240	n/a	LTP269	ltpFR	5	4	n/a	GHETTO	633	n/a	5	n/a	n/a	n/a	n/a	n/a	n/a
3955.898	n/a	RECOG_TARGET	1977949	n/a	LTP269	ltpFR	5	4	1	SPONGE	1355	1	4	0	n/a	n/a	n/a	n/a	n/a
3956.866	n/a	RECOG_RESP	1978433	n/a	LTP269	ltpFR	5	4	1	SPONGE	1355	1	n/a	0	n/a	n/a	n/a	n/a	n/a
3957.38	n/a	RECOG_CONF	1978690	n/a	LTP269	ltpFR	5	4	1	SPONGE	1355	n/a	4	0	n/a	n/a	n/a	n/a	n/a
3959.076	n/a	RECOG_TARGET	1979538	n/a	LTP269	ltpFR	5	4	1	DORM	488	1	3	0	n/a	n/a	n/a	n/a	n/a
3959.74	n/a	RECOG_RESP	1979870	n/a	LTP269	ltpFR	5	4	1	DORM	488	1	n/a	0	n/a	n/a	n/a	n/a	n/a
3960.26	n/a	RECOG_CONF	1980130	n/a	LTP269	ltpFR	5	4	1	DORM	488	n/a	3	0	n/a	n/a	n/a	n/a	n/a
3961.742	n/a	RECOG_LURE	1980871	n/a	LTP269	ltpFR	5	4	n/a	ROUGE	1213	0	2	n/a	n/a	n/a	n/a	n/a	n/a
3963.232	n/a	RECOG_RESP	1981616	n/a	LTP269	ltpFR	5	4	n/a	ROUGE	1213	0	n/a	n/a	n/a	n/a	n/a	n/a	n/a
3964.022	n/a	RECOG_CONF	1982011	n/a	LTP269	ltpFR	5	4	n/a	ROUGE	1213	n/a	2	n/a	n/a	n/a	n/a	n/a	n/a
3965.506	n/a	RECOG_LURE	1982753	n/a	LTP269	ltpFR	5	4	n/a	BRUISE	180	0	2	n/a	n/a	n/a	n/a	n/a	n/a
3966.306	n/a	RECOG_RESP	1983153	n/a	LTP269	ltpFR	5	4	n/a	BRUISE	180	0	n/a	n/a	n/a	n/a	n/a	n/a	n/a
3966.912	n/a	RECOG_CONF	1983456	n/a	LTP269	ltpFR	5	4	n/a	BRUISE	180	n/a	2	n/a	n/a	n/a	n/a	n/a	n/a
3968.552	n/a	RECOG_LURE	1984276	n/a	LTP269	ltpFR	5	4	n/a	RIB	1188	1	3	n/a	n/a	n/a	n/a	n/a	n/a
3970.246	n/a	RECOG_RESP	1985123	n/a	LTP269	ltpFR	5	4	n/a	RIB	1188	1	n/a	n/a	n/a	n/a	n/a	n/a	n/a
3971.092	n/a	RECOG_CONF	1985546	n/a	LTP269	ltpFR	5	4	n/a	RIB	1188	n/a	3	n/a	n/a	n/a	n/a	n/a	n/a
3972.6	n/a	RECOG_LURE	1986300	n/a	LTP269	ltpFR	5	4	n/a	MAGAZINE	853	0	4	n/a	n/a	n/a	n/a	n/a	n/a
3973.896	n/a	RECOG_RESP	1986948	n/a	LTP269	ltpFR	5	4	n/a	MAGAZINE	853	0	n/a	n/a	n/a	n/a	n/a	n/a	n/a
3974.502	n/a	RECOG_CONF	1987251	n/a	LTP269	ltpFR	5	4	n/a	MAGAZINE	853	n/a	4	n/a	n/a	n/a	n/a	n/a	n/a
3976.114	n/a	RECOG_LURE	1988057	n/a	LTP269	ltpFR	5	4	n/a	SNAKE	1333	1	2	n/a	n/a	n/a	n/a	n/a	n/a
3977.136	n/a	RECOG_RESP	1988568	n/a	LTP269	ltpFR	5	4	n/a	SNAKE	1333	1	n/a	n/a	n/a	n/a	n/a	n/a	n/a
3978.362	n/a	RECOG_CONF	1989181	n/a	LTP269	ltpFR	5	4	n/a	SNAKE	1333	n/a	2	n/a	n/a	n/a	n/a	n/a	n/a
3979.944	n/a	RECOG_LURE	1989972	n/a	LTP269	ltpFR	5	4	n/a	REPORT	1184	0	2	n/a	n/a	n/a	n/a	n/a	n/a
3981.328	n/a	RECOG_RESP	1990664	n/a	LTP269	ltpFR	5	4	n/a	REPORT	1184	0	n/a	n/a	n/a	n/a	n/a	n/a	n/a
3982.052	n/a	RECOG_CONF	1991026	n/a	LTP269	ltpFR	5	4	n/a	REPORT	1184	n/a	2	n/a	n/a	n/a	n/a	n/a	n/a
3983.674	n/a	RECOG_TARGET	1991837	n/a	LTP269	ltpFR	5	4	1	PAGE	1001	1	5	0	n/a	n/a	n/a	n/a	n/a
3984.572	n/a	RECOG_RESP	1992286	n/a	LTP269	ltpFR	5	4	1	PAGE	1001	1	n/a	0	n/a	n/a	n/a	n/a	n/a
3985.192	n/a	RECOG_CONF	1992596	n/a	LTP269	ltpFR	5	4	1	PAGE	1001	n/a	5	0	n/a	n/a	n/a	n/a	n/a
3986.77	n/a	RECOG_TARGET	1993385	n/a	LTP269	ltpFR	5	4	0	RIBBON	1189	1	5	0	n/a	n/a	n/a	n/a	n/a
3987.572	n/a	RECOG_RESP	1993786	n/a	LTP269	ltpFR	5	4	0	RIBBON	1189	1	n/a	0	n/a	n/a	n/a	n/a	n/a
3988.132	n/a	RECOG_CONF	1994066	n/a	LTP269	ltpFR	5	4	0	RIBBON	1189	n/a	5	0	n/a	n/a	n/a	n/a	n/a
3989.76	n/a	RECOG_TARGET	1994880	n/a	LTP269	ltpFR	5	4	1	METEOR	889	0	2	0	n/a	n/a	n/a	n/a	n/a
3991.332	n/a	RECOG_RESP	1995666	n/a	LTP269	ltpFR	5	4	1	METEOR	889	0	n/a	0	n/a	n/a	n/a	n/a	n/a
3992.452	n/a	RECOG_CONF	1996226	n/a	LTP269	ltpFR	5	4	1	METEOR	889	n/a	2	0	n/a	n/a	n/a	n/a	n/a
3994.45	n/a	RECOG_LURE	1997225	n/a	LTP269	ltpFR	5	4	n/a	SEAL	1262	1	1	n/a	n/a	n/a	n/a	n/a	n/a
3996.028	n/a	RECOG_RESP	1998014	n/a	LTP269	ltpFR	5	4	n/a	SEAL	1262	1	n/a	n/a	n/a	n/a	n/a	n/a	n/a
3997.962	n/a	RECOG_CONF	1998981	n/a	LTP269	ltpFR	5	4	n/a	SEAL	1262	n/a	1	n/a	n/a	n/a	n/a	n/a	n/a
3999.62	n/a	RECOG_TARGET	1999810	n/a	LTP269	ltpFR	5	4	0	NOTE	958	1	4	0	n/a	n/a	n/a	n/a	n/a
4000.488	n/a	RECOG_RESP	2000244	n/a	LTP269	ltpFR	5	4	0	NOTE	958	1	n/a	0	n/a	n/a	n/a	n/a	n/a
4001.024	n/a	RECOG_CONF	2000512	n/a	LTP269	ltpFR	5	4	0	NOTE	958	n/a	4	0	n/a	n/a	n/a	n/a	n/a
4002.68	n/a	RECOG_LURE	2001340	n/a	LTP269	ltpFR	5	4	n/a	MONGOOSE	909	0	2	n/a	n/a	n/a	n/a	n/a	n/a
4003.658	n/a	RECOG_RESP	2001829	n/a	LTP269	ltpFR	5	4	n/a	MONGOOSE	909	0	n/a	n/a	n/a	n/a	n/a	n/a	n/a
4004.404	n/a	RECOG_CONF	2002202	n/a	LTP269	ltpFR	5	4	n/a	MONGOOSE	909	n/a	2	n/a	n/a	n/a	n/a	n/a	n/a
4006.012	n/a	RECOG_LURE	2003006	n/a	LTP269	ltpFR	5	4	n/a	KEEPER	769	0	3	n/a	n/a	n/a	n/a	n/a	n/a
4006.994	n/a	RECOG_RESP	2003497	n/a	LTP269	ltpFR	5	4	n/a	KEEPER	769	0	n/a	n/a	n/a	n/a	n/a	n/a	n/a
4007.524	n/a	RECOG_CONF	2003762	n/a	LTP269	ltpFR	5	4	n/a	KEEPER	769	n/a	3	n/a	n/a	n/a	n/a	n/a	n/a
4009.122	n/a	RECOG_LURE	2004561	n/a	LTP269	ltpFR	5	4	n/a	PATRIOT	1026	0	4	n/a	n/a	n/a	n/a	n/a	n/a
4010.108	n/a	RECOG_RESP	2005054	n/a	LTP269	ltpFR	5	4	n/a	PATRIOT	1026	0	n/a	n/a	n/a	n/a	n/a	n/a	n/a
4010.764	n/a	RECOG_CONF	2005382	n/a	LTP269	ltpFR	5	4	n/a	PATRIOT	1026	n/a	4	n/a	n/a	n/a	n/a	n/a	n/a
4014.488	n/a	REC_START	2007244	n/a	LTP269	ltpFR	5	5	n/a	n/a	n/a	n/a	n/a	n/a	n/a	n/a	n/a	n/a	n/a
4014.544	n/a	RECOG_LURE	2007272	n/a	LTP269	ltpFR	5	5	n/a	CHARCOAL	281	0	4	n/a	n/a	n/a	n/a	n/a	n/a
4015.564	n/a	RECOG_RESP	2007782	n/a	LTP269	ltpFR	5	5	n/a	CHARCOAL	281	0	n/a	n/a	n/a	n/a	n/a	n/a	n/a
4015.878	n/a	RECOG_CONF	2007939	n/a	LTP269	ltpFR	5	5	n/a	CHARCOAL	281	n/a	4	n/a	n/a	n/a	n/a	n/a	n/a
4017.666	n/a	RECOG_TARGET	2008833	n/a	LTP269	ltpFR	5	5	0	LOCK	838	1	5	0	n/a	n/a	n/a	n/a	n/a
4018.44	n/a	RECOG_RESP	2009220	n/a	LTP269	ltpFR	5	5	0	LOCK	838	1	n/a	0	n/a	n/a	n/a	n/a	n/a
4018.86	n/a	RECOG_CONF	2009430	n/a	LTP269	ltpFR	5	5	0	LOCK	838	n/a	5	0	n/a	n/a	n/a	n/a	n/a
4020.5	n/a	RECOG_TARGET	2010250	n/a	LTP269	ltpFR	5	5	0	PRINCESS	1125	1	5	1	n/a	n/a	n/a	n/a	n/a
4021.154	n/a	RECOG_RESP	2010577	n/a	LTP269	ltpFR	5	5	0	PRINCESS	1125	1	n/a	1	n/a	n/a	n/a	n/a	n/a
4021.69	n/a	RECOG_CONF	2010845	n/a	LTP269	ltpFR	5	5	0	PRINCESS	1125	n/a	5	1	n/a	n/a	n/a	n/a	n/a
4023.21	n/a	RECOG_TARGET	2011605	n/a	LTP269	ltpFR	5	5	-1	TANK	1432	1	3	-1	n/a	n/a	n/a	n/a	n/a
4024.224	n/a	RECOG_RESP	2012112	n/a	LTP269	ltpFR	5	5	-1	TANK	1432	1	n/a	-1	n/a	n/a	n/a	n/a	n/a
4024.77	n/a	RECOG_CONF	2012385	n/a	LTP269	ltpFR	5	5	-1	TANK	1432	n/a	3	-1	n/a	n/a	n/a	n/a	n/a
4026.272	n/a	RECOG_LURE	2013136	n/a	LTP269	ltpFR	5	5	n/a	BANDANNA	80	0	3	n/a	n/a	n/a	n/a	n/a	n/a
4027.58	n/a	RECOG_RESP	2013790	n/a	LTP269	ltpFR	5	5	n/a	BANDANNA	80	0	n/a	n/a	n/a	n/a	n/a	n/a	n/a
4028.54	n/a	RECOG_CONF	2014270	n/a	LTP269	ltpFR	5	5	n/a	BANDANNA	80	n/a	3	n/a	n/a	n/a	n/a	n/a	n/a
4030.154	n/a	RECOG_LURE	2015077	n/a	LTP269	ltpFR	5	5	n/a	PONY	1102	0	4	n/a	n/a	n/a	n/a	n/a	n/a
4030.984	n/a	RECOG_RESP	2015492	n/a	LTP269	ltpFR	5	5	n/a	PONY	1102	0	n/a	n/a	n/a	n/a	n/a	n/a	n/a
4031.45	n/a	RECOG_CONF	2015725	n/a	LTP269	ltpFR	5	5	n/a	PONY	1102	n/a	4	n/a	n/a	n/a	n/a	n/a	n/a
4033.042	n/a	RECOG_LURE	2016521	n/a	LTP269	ltpFR	5	5	n/a	FOLDER	588	0	4	n/a	n/a	n/a	n/a	n/a	n/a
4034.394	n/a	RECOG_RESP	2017197	n/a	LTP269	ltpFR	5	5	n/a	FOLDER	588	0	n/a	n/a	n/a	n/a	n/a	n/a	n/a
4034.87	n/a	RECOG_CONF	2017435	n/a	LTP269	ltpFR	5	5	n/a	FOLDER	588	n/a	4	n/a	n/a	n/a	n/a	n/a	n/a
4036.578	n/a	RECOG_LURE	2018289	n/a	LTP269	ltpFR	5	5	n/a	COPIER	377	0	5	n/a	n/a	n/a	n/a	n/a	n/a
4037.48	n/a	RECOG_RESP	2018740	n/a	LTP269	ltpFR	5	5	n/a	COPIER	377	0	n/a	n/a	n/a	n/a	n/a	n/a	n/a
4037.82	n/a	RECOG_CONF	2018910	n/a	LTP269	ltpFR	5	5	n/a	COPIER	377	n/a	5	n/a	n/a	n/a	n/a	n/a	n/a
4039.656	n/a	RECOG_TARGET	2019828	n/a	LTP269	ltpFR	5	5	1	STREAM	1392	0	2	0	n/a	n/a	n/a	n/a	n/a
4041.966	n/a	RECOG_RESP	2020983	n/a	LTP269	ltpFR	5	5	1	STREAM	1392	0	n/a	0	n/a	n/a	n/a	n/a	n/a
4042.67	n/a	RECOG_CONF	2021335	n/a	LTP269	ltpFR	5	5	1	STREAM	1392	n/a	2	0	n/a	n/a	n/a	n/a	n/a
4044.208	n/a	RECOG_LURE	2022104	n/a	LTP269	ltpFR	5	5	n/a	SUNSET	1408	0	3	n/a	n/a	n/a	n/a	n/a	n/a
4045.186	n/a	RECOG_RESP	2022593	n/a	LTP269	ltpFR	5	5	n/a	SUNSET	1408	0	n/a	n/a	n/a	n/a	n/a	n/a	n/a
4045.67	n/a	RECOG_CONF	2022835	n/a	LTP269	ltpFR	5	5	n/a	SUNSET	1408	n/a	3	n/a	n/a	n/a	n/a	n/a	n/a
4047.452	n/a	RECOG_TARGET	2023726	n/a	LTP269	ltpFR	5	5	0	PEAR	1033	1	4	0	n/a	n/a	n/a	n/a	n/a
4048.246	n/a	RECOG_RESP	2024123	n/a	LTP269	ltpFR	5	5	0	PEAR	1033	1	n/a	0	n/a	n/a	n/a	n/a	n/a
4048.72	n/a	RECOG_CONF	2024360	n/a	LTP269	ltpFR	5	5	0	PEAR	1033	n/a	4	0	n/a	n/a	n/a	n/a	n/a
4050.314	n/a	RECOG_TARGET	2025157	n/a	LTP269	ltpFR	5	5	0	RAM	1165	1	5	1	n/a	n/a	n/a	n/a	n/a
4051.0	n/a	RECOG_RESP	2025500	n/a	LTP269	ltpFR	5	5	0	RAM	1165	1	n/a	1	n/a	n/a	n/a	n/a	n/a
4051.48	n/a	RECOG_CONF	2025740	n/a	LTP269	ltpFR	5	5	0	RAM	1165	n/a	5	1	n/a	n/a	n/a	n/a	n/a
4052.952	n/a	RECOG_LURE	2026476	n/a	LTP269	ltpFR	5	5	n/a	CONSUMER	365	0	2	n/a	n/a	n/a	n/a	n/a	n/a
4054.37	n/a	RECOG_RESP	2027185	n/a	LTP269	ltpFR	5	5	n/a	CONSUMER	365	0	n/a	n/a	n/a	n/a	n/a	n/a	n/a
4054.97	n/a	RECOG_CONF	2027485	n/a	LTP269	ltpFR	5	5	n/a	CONSUMER	365	n/a	2	n/a	n/a	n/a	n/a	n/a	n/a
4056.572	n/a	RECOG_LURE	2028286	n/a	LTP269	ltpFR	5	5	n/a	LODGE	839	0	3	n/a	n/a	n/a	n/a	n/a	n/a
4057.592	n/a	RECOG_RESP	2028796	n/a	LTP269	ltpFR	5	5	n/a	LODGE	839	0	n/a	n/a	n/a	n/a	n/a	n/a	n/a
4058.162	n/a	RECOG_CONF	2029081	n/a	LTP269	ltpFR	5	5	n/a	LODGE	839	n/a	3	n/a	n/a	n/a	n/a	n/a	n/a
4059.666	n/a	RECOG_LURE	2029833	n/a	LTP269	ltpFR	5	5	n/a	DRUG	501	0	2	n/a	n/a	n/a	n/a	n/a	n/a
4060.686	n/a	RECOG_RESP	2030343	n/a	LTP269	ltpFR	5	5	n/a	DRUG	501	0	n/a	n/a	n/a	n/a	n/a	n/a	n/a
4061.492	n/a	RECOG_CONF	2030746	n/a	LTP269	ltpFR	5	5	n/a	DRUG	501	n/a	2	n/a	n/a	n/a	n/a	n/a	n/a
4063.04	n/a	RECOG_TARGET	2031520	n/a	LTP269	ltpFR	5	5	1	LUGGAGE	847	1	3	0	n/a	n/a	n/a	n/a	n/a
4064.762	n/a	RECOG_RESP	2032381	n/a	LTP269	ltpFR	5	5	1	LUGGAGE	847	1	n/a	0	n/a	n/a	n/a	n/a	n/a
4066.422	n/a	RECOG_CONF	2033211	n/a	LTP269	ltpFR	5	5	1	LUGGAGE	847	n/a	3	0	n/a	n/a	n/a	n/a	n/a
4068.032	n/a	RECOG_LURE	2034016	n/a	LTP269	ltpFR	5	5	n/a	PROFESSOR	1131	0	4	n/a	n/a	n/a	n/a	n/a	n/a
4069.166	n/a	RECOG_RESP	2034583	n/a	LTP269	ltpFR	5	5	n/a	PROFESSOR	1131	0	n/a	n/a	n/a	n/a	n/a	n/a	n/a
4069.932	n/a	RECOG_CONF	2034966	n/a	LTP269	ltpFR	5	5	n/a	PROFESSOR	1131	n/a	4	n/a	n/a	n/a	n/a	n/a	n/a
4071.578	n/a	RECOG_LURE	2035789	n/a	LTP269	ltpFR	5	5	n/a	PAN	1008	0	2	n/a	n/a	n/a	n/a	n/a	n/a
4073.066	n/a	RECOG_RESP	2036533	n/a	LTP269	ltpFR	5	5	n/a	PAN	1008	0	n/a	n/a	n/a	n/a	n/a	n/a	n/a
4073.782	n/a	RECOG_CONF	2036891	n/a	LTP269	ltpFR	5	5	n/a	PAN	1008	n/a	2	n/a	n/a	n/a	n/a	n/a	n/a
4075.338	n/a	RECOG_TARGET	2037669	n/a	LTP269	ltpFR	5	5	-1	PAINTING	1005	1	5	-1	n/a	n/a	n/a	n/a	n/a
4076.268	n/a	RECOG_RESP	2038134	n/a	LTP269	ltpFR	5	5	-1	PAINTING	1005	1	n/a	-1	n/a	n/a	n/a	n/a	n/a
4076.732	n/a	RECOG_CONF	2038366	n/a	LTP269	ltpFR	5	5	-1	PAINTING	1005	n/a	5	-1	n/a	n/a	n/a	n/a	n/a
4078.388	n/a	RECOG_TARGET	2039194	n/a	LTP269	ltpFR	5	5	-1	STADIUM	1364	1	4	-1	n/a	n/a	n/a	n/a	n/a
4079.142	n/a	RECOG_RESP	2039571	n/a	LTP269	ltpFR	5	5	-1	STADIUM	1364	1	n/a	-1	n/a	n/a	n/a	n/a	n/a
4079.692	n/a	RECOG_CONF	2039846	n/a	LTP269	ltpFR	5	5	-1	STADIUM	1364	n/a	4	-1	n/a	n/a	n/a	n/a	n/a
4083.282	n/a	REC_START	2041641	n/a	LTP269	ltpFR	5	6	n/a	n/a	n/a	n/a	n/a	n/a	n/a	n/a	n/a	n/a	n/a
4083.34	n/a	RECOG_TARGET	2041670	n/a	LTP269	ltpFR	5	6	1	HOSE	720	0	2	0	n/a	n/a	n/a	n/a	n/a
4084.828	n/a	RECOG_RESP	2042414	n/a	LTP269	ltpFR	5	6	1	HOSE	720	0	n/a	0	n/a	n/a	n/a	n/a	n/a
4085.592	n/a	RECOG_CONF	2042796	n/a	LTP269	ltpFR	5	6	1	HOSE	720	n/a	2	0	n/a	n/a	n/a	n/a	n/a
4087.188	n/a	RECOG_TARGET	2043594	n/a	LTP269	ltpFR	5	6	0	REFEREE	1178	0	1	1	n/a	n/a	n/a	n/a	n/a
4088.378	n/a	RECOG_RESP	2044189	n/a	LTP269	ltpFR	5	6	0	REFEREE	1178	0	n/a	1	n/a	n/a	n/a	n/a	n/a
4089.782	n/a	RECOG_CONF	2044891	n/a	LTP269	ltpFR	5	6	0	REFEREE	1178	n/a	1	1	n/a	n/a	n/a	n/a	n/a
4091.516	n/a	RECOG_LURE	2045758	n/a	LTP269	ltpFR	5	6	n/a	CHAMBER	277	0	3	n/a	n/a	n/a	n/a	n/a	n/a
4092.472	n/a	RECOG_RESP	2046236	n/a	LTP269	ltpFR	5	6	n/a	CHAMBER	277	0	n/a	n/a	n/a	n/a	n/a	n/a	n/a
4093.042	n/a	RECOG_CONF	2046521	n/a	LTP269	ltpFR	5	6	n/a	CHAMBER	277	n/a	3	n/a	n/a	n/a	n/a	n/a	n/a
4094.6	n/a	RECOG_TARGET	2047300	n/a	LTP269	ltpFR	5	6	-1	DETERGENT	455	0	4	-1	n/a	n/a	n/a	n/a	n/a
4095.464	n/a	RECOG_RESP	2047732	n/a	LTP269	ltpFR	5	6	-1	DETERGENT	455	0	n/a	-1	n/a	n/a	n/a	n/a	n/a
4096.054	n/a	RECOG_CONF	2048027	n/a	LTP269	ltpFR	5	6	-1	DETERGENT	455	n/a	4	-1	n/a	n/a	n/a	n/a	n/a
4097.594	n/a	RECOG_TARGET	2048797	n/a	LTP269	ltpFR	5	6	1	HEN	703	1	4	1	n/a	n/a	n/a	n/a	n/a
4098.404	n/a	RECOG_RESP	2049202	n/a	LTP269	ltpFR	5	6	1	HEN	703	1	n/a	1	n/a	n/a	n/a	n/a	n/a
4099.054	n/a	RECOG_CONF	2049527	n/a	LTP269	ltpFR	5	6	1	HEN	703	n/a	4	1	n/a	n/a	n/a	n/a	n/a
4100.59	n/a	RECOG_LURE	2050295	n/a	LTP269	ltpFR	5	6	n/a	LEMON	810	0	2	n/a	n/a	n/a	n/a	n/a	n/a
4102.334	n/a	RECOG_RESP	2051167	n/a	LTP269	ltpFR	5	6	n/a	LEMON	810	0	n/a	n/a	n/a	n/a	n/a	n/a	n/a
4102.874	n/a	RECOG_CONF	2051437	n/a	LTP269	ltpFR	5	6	n/a	LEMON	810	n/a	2	n/a	n/a	n/a	n/a	n/a	n/a
4104.464	n/a	RECOG_TARGET	2052232	n/a	LTP269	ltpFR	5	6	-1	MICROPHONE	890	1	5	-1	n/a	n/a	n/a	n/a	n/a
4105.314	n/a	RECOG_RESP	2052657	n/a	LTP269	ltpFR	5	6	-1	MICROPHONE	890	1	n/a	-1	n/a	n/a	n/a	n/a	n/a
4105.864	n/a	RECOG_CONF	2052932	n/a	LTP269	ltpFR	5	6	-1	MICROPHONE	890	n/a	5	-1	n/a	n/a	n/a	n/a	n/a
4107.448	n/a	RECOG_LURE	2053724	n/a	LTP269	ltpFR	5	6	n/a	SLOPE	1328	0	3	n/a	n/a	n/a	n/a	n/a	n/a
