onset	duration	trial_type	sample	stim_file	subject	experiment	session	trial	item_name	item_num	list	answer	test_x	test_y	test_z
198.10986328125	n/a	SESS_START	405729	n/a	LTP346	ltpFR2	20	n/a	n/a	n/a	n/a	n/a	0	0	0
217.15380859375	n/a	START	444731	n/a	LTP346	ltpFR2	20	n/a	n/a	n/a	-1	n/a	n/a	n/a	n/a
217.1845703125	n/a	PROB	444794	n/a	LTP346	ltpFR2	20	n/a	n/a	n/a	-1	23	9	6	8
220.5166015625	n/a	PROB	451618	n/a	LTP346	ltpFR2	20	n/a	n/a	n/a	-1	17	7	9	1
222.36669921875	n/a	PROB	455407	n/a	LTP346	ltpFR2	20	n/a	n/a	n/a	-1	5	3	1	1
223.88134765625	n/a	PROB	458509	n/a	LTP346	ltpFR2	20	n/a	n/a	n/a	-1	111	7	1	3
225.48046875	n/a	PROB	461784	n/a	LTP346	ltpFR2	20	n/a	n/a	n/a	-1	8	3	2	3
227.66650390625	n/a	STOP	466261	n/a	LTP346	ltpFR2	20	n/a	n/a	n/a	-1	n/a	n/a	n/a	n/a
299.7783203125	n/a	WORD	613946	wordpools/wasnorm_wordpool_576.txt	LTP346	ltpFR2	20	1	LIZARD	834	n/a	n/a	0	0	0
302.4931640625	n/a	WORD	619506	wordpools/wasnorm_wordpool_576.txt	LTP346	ltpFR2	20	1	HOOD	714	n/a	n/a	0	0	0
304.9921875	n/a	WORD	624624	wordpools/wasnorm_wordpool_576.txt	LTP346	ltpFR2	20	1	SWORD	1423	n/a	n/a	0	0	0
307.69140625	n/a	WORD	630152	wordpools/wasnorm_wordpool_576.txt	LTP346	ltpFR2	20	1	GOBLIN	645	n/a	n/a	0	0	0
310.27392578125	n/a	WORD	635441	wordpools/wasnorm_wordpool_576.txt	LTP346	ltpFR2	20	1	MONSTER	912	n/a	n/a	0	0	0
312.705078125	n/a	WORD	640420	wordpools/wasnorm_wordpool_576.txt	LTP346	ltpFR2	20	1	EUROPE	541	n/a	n/a	0	0	0
315.30517578125	n/a	WORD	645745	wordpools/wasnorm_wordpool_576.txt	LTP346	ltpFR2	20	1	STALLION	1369	n/a	n/a	0	0	0
318.0859375	n/a	WORD	651440	wordpools/wasnorm_wordpool_576.txt	LTP346	ltpFR2	20	1	AIRPLANE	12	n/a	n/a	0	0	0
320.751953125	n/a	WORD	656900	wordpools/wasnorm_wordpool_576.txt	LTP346	ltpFR2	20	1	ARMY	39	n/a	n/a	0	0	0
323.267578125	n/a	WORD	662052	wordpools/wasnorm_wordpool_576.txt	LTP346	ltpFR2	20	1	SCARECROW	1245	n/a	n/a	0	0	0
325.69873046875	n/a	WORD	667031	wordpools/wasnorm_wordpool_576.txt	LTP346	ltpFR2	20	1	HORNET	718	n/a	n/a	0	0	0
328.49755859375	n/a	WORD	672763	wordpools/wasnorm_wordpool_576.txt	LTP346	ltpFR2	20	1	GARBAGE	622	n/a	n/a	0	0	0
331.12939453125	n/a	WORD	678153	wordpools/wasnorm_wordpool_576.txt	LTP346	ltpFR2	20	1	TERMITE	1451	n/a	n/a	0	0	0
333.861328125	n/a	WORD	683748	wordpools/wasnorm_wordpool_576.txt	LTP346	ltpFR2	20	1	WORKER	1621	n/a	n/a	0	0	0
336.59326171875	n/a	WORD	689343	wordpools/wasnorm_wordpool_576.txt	LTP346	ltpFR2	20	1	FLEET	578	n/a	n/a	0	0	0
339.1923828125	n/a	WORD	694666	wordpools/wasnorm_wordpool_576.txt	LTP346	ltpFR2	20	1	RECORD	1176	n/a	n/a	0	0	0
341.92431640625	n/a	WORD	700261	wordpools/wasnorm_wordpool_576.txt	LTP346	ltpFR2	20	1	MOTEL	919	n/a	n/a	0	0	0
344.47314453125	n/a	WORD	705481	wordpools/wasnorm_wordpool_576.txt	LTP346	ltpFR2	20	1	SADDLE	1221	n/a	n/a	0	0	0
347.17236328125	n/a	WORD	711009	wordpools/wasnorm_wordpool_576.txt	LTP346	ltpFR2	20	1	PLASTER	1085	n/a	n/a	0	0	0
349.62109375	n/a	WORD	716024	wordpools/wasnorm_wordpool_576.txt	LTP346	ltpFR2	20	1	CLOUD	328	n/a	n/a	0	0	0
352.38720703125	n/a	WORD	721689	wordpools/wasnorm_wordpool_576.txt	LTP346	ltpFR2	20	1	JAPAN	749	n/a	n/a	0	0	0
354.98486328125	n/a	WORD	727009	wordpools/wasnorm_wordpool_576.txt	LTP346	ltpFR2	20	1	FLASHLIGHT	575	n/a	n/a	0	0	0
357.599609375	n/a	WORD	732364	wordpools/wasnorm_wordpool_576.txt	LTP346	ltpFR2	20	1	LASER	801	n/a	n/a	0	0	0
360.03271484375	n/a	WORD	737347	wordpools/wasnorm_wordpool_576.txt	LTP346	ltpFR2	20	1	DIVER	476	n/a	n/a	0	0	0
361.64892578125	n/a	START	740657	n/a	LTP346	ltpFR2	20	n/a	n/a	n/a	1	n/a	n/a	n/a	n/a
362.62060546875	n/a	DISTRACTOR	742647	n/a	LTP346	ltpFR2	20	1	n/a	n/a	n/a	n/a	0	0	0
362.6318359375	n/a	PROB	742670	n/a	LTP346	ltpFR2	20	n/a	n/a	n/a	1	12	4	7	1
363.99755859375	n/a	PROB	745467	n/a	LTP346	ltpFR2	20	n/a	n/a	n/a	1	18	9	5	4
365.91357421875	n/a	PROB	749391	n/a	LTP346	ltpFR2	20	n/a	n/a	n/a	1	23	9	8	6
367.263671875	n/a	PROB	752156	n/a	LTP346	ltpFR2	20	n/a	n/a	n/a	1	21	9	8	4
369.12841796875	n/a	PROB	755975	n/a	LTP346	ltpFR2	20	n/a	n/a	n/a	1	15	1	8	6
370.29541015625	n/a	PROB	758365	n/a	LTP346	ltpFR2	20	n/a	n/a	n/a	1	8	2	5	1
371.443359375	n/a	PROB	760716	n/a	LTP346	ltpFR2	20	n/a	n/a	n/a	1	6	3	1	2
372.54345703125	n/a	PROB	762969	n/a	LTP346	ltpFR2	20	n/a	n/a	n/a	1	18	7	6	5
374.42529296875	n/a	PROB	766823	n/a	LTP346	ltpFR2	20	n/a	n/a	n/a	1	14	4	4	6
375.70849609375	n/a	PROB	769451	n/a	LTP346	ltpFR2	20	n/a	n/a	n/a	1	11	4	6	1
376.84130859375	n/a	PROB	771771	n/a	LTP346	ltpFR2	20	n/a	n/a	n/a	1	12	8	2	2
377.89013671875	n/a	PROB	773919	n/a	LTP346	ltpFR2	20	n/a	n/a	n/a	1	18	2	8	8
380.1064453125	n/a	PROB	778458	n/a	LTP346	ltpFR2	20	n/a	n/a	n/a	1	18	2	9	7
381.77197265625	n/a	PROB	781869	n/a	LTP346	ltpFR2	20	n/a	n/a	n/a	1	16	8	2	4
385.64794921875	n/a	STOP	789807	n/a	LTP346	ltpFR2	20	n/a	n/a	n/a	1	n/a	n/a	n/a	n/a
387.52001953125	n/a	REC_START	793641	n/a	LTP346	ltpFR2	20	1	n/a	n/a	n/a	n/a	0	0	0
388.31298828125	n/a	REC_WORD	795265	wordpools/wasnorm_wordpool_576.txt	LTP346	ltpFR2	20	1	LIZARD	834	n/a	n/a	0	0	0
388.8671875	n/a	REC_WORD	796400	wordpools/wasnorm_wordpool_576.txt	LTP346	ltpFR2	20	1	HOOD	714	n/a	n/a	0	0	0
390.583984375	n/a	REC_WORD	799916	wordpools/wasnorm_wordpool_576.txt	LTP346	ltpFR2	20	1	SWORD	1423	n/a	n/a	0	0	0
393.10205078125	n/a	REC_WORD	805073	wordpools/wasnorm_wordpool_576.txt	LTP346	ltpFR2	20	1	GOBLIN	645	n/a	n/a	0	0	0
393.703125	n/a	REC_WORD	806304	wordpools/wasnorm_wordpool_576.txt	LTP346	ltpFR2	20	1	MONSTER	912	n/a	n/a	0	0	0
396.1748046875	n/a	REC_WORD	811366	wordpools/wasnorm_wordpool_576.txt	LTP346	ltpFR2	20	1	EUROPE	541	n/a	n/a	0	0	0
397.62255859375	n/a	REC_WORD	814331	wordpools/wasnorm_wordpool_576.txt	LTP346	ltpFR2	20	1	STALLION	1369	n/a	n/a	0	0	0
401.5986328125	n/a	REC_WORD	822474	wordpools/wasnorm_wordpool_576.txt	LTP346	ltpFR2	20	1	ARMY	39	n/a	n/a	0	0	0
402.11181640625	n/a	REC_WORD	823525	wordpools/wasnorm_wordpool_576.txt	LTP346	ltpFR2	20	1	AIRPLANE	12	n/a	n/a	0	0	0
402.99072265625	n/a	REC_WORD	825325	wordpools/wasnorm_wordpool_576.txt	LTP346	ltpFR2	20	1	SCARECROW	1245	n/a	n/a	0	0	0
406.525390625	n/a	REC_WORD	832564	wordpools/wasnorm_wordpool_576.txt	LTP346	ltpFR2	20	1	HORNET	718	n/a	n/a	0	0	0
407.11669921875	n/a	REC_WORD	833775	wordpools/wasnorm_wordpool_576.txt	LTP346	ltpFR2	20	1	TERMITE	1451	n/a	n/a	0	0	0
408.95556640625	n/a	REC_WORD	837541	wordpools/wasnorm_wordpool_576.txt	LTP346	ltpFR2	20	1	GARBAGE	622	n/a	n/a	0	0	0
412.8955078125	n/a	REC_WORD	845610	wordpools/wasnorm_wordpool_576.txt	LTP346	ltpFR2	20	1	FLEET	578	n/a	n/a	0	0	0
413.609375	n/a	REC_WORD	847072	wordpools/wasnorm_wordpool_576.txt	LTP346	ltpFR2	20	1	WORKER	1621	n/a	n/a	0	0	0
414.6474609375	n/a	REC_WORD	849198	wordpools/wasnorm_wordpool_576.txt	LTP346	ltpFR2	20	1	RECORD	1176	n/a	n/a	0	0	0
422.26806640625	n/a	REC_WORD	864805	wordpools/wasnorm_wordpool_576.txt	LTP346	ltpFR2	20	1	JAPAN	749	n/a	n/a	0	0	0
422.87109375	n/a	REC_WORD	866040	wordpools/wasnorm_wordpool_576.txt	LTP346	ltpFR2	20	1	CLOUD	328	n/a	n/a	0	0	0
424.5302734375	n/a	REC_WORD	869438	wordpools/wasnorm_wordpool_576.txt	LTP346	ltpFR2	20	1	MOTEL	919	n/a	n/a	0	0	0
425.1689453125	n/a	REC_WORD	870746	wordpools/wasnorm_wordpool_576.txt	LTP346	ltpFR2	20	1	SADDLE	1221	n/a	n/a	0	0	0
425.8818359375	n/a	REC_WORD	872206	wordpools/wasnorm_wordpool_576.txt	LTP346	ltpFR2	20	1	PLASTER	1085	n/a	n/a	0	0	0
428.59375	n/a	REC_WORD	877760	wordpools/wasnorm_wordpool_576.txt	LTP346	ltpFR2	20	1	DIVER	476	n/a	n/a	0	0	0
430.4638671875	n/a	REC_WORD	881590	wordpools/wasnorm_wordpool_576.txt	LTP346	ltpFR2	20	1	LASER	801	n/a	n/a	0	0	0
430.94970703125	n/a	REC_WORD	882585	wordpools/wasnorm_wordpool_576.txt	LTP346	ltpFR2	20	1	FLASHLIGHT	575	n/a	n/a	0	0	0
477.94287109375	n/a	DISTRACTOR	978827	n/a	LTP346	ltpFR2	20	2	n/a	n/a	n/a	n/a	0	0	0
477.94287109375	n/a	START	978827	n/a	LTP346	ltpFR2	20	n/a	n/a	n/a	2	n/a	n/a	n/a	n/a
477.95947265625	n/a	PROB	978861	n/a	LTP346	ltpFR2	20	n/a	n/a	n/a	2	10	6	3	1
479.12548828125	n/a	PROB	981249	n/a	LTP346	ltpFR2	20	n/a	n/a	n/a	2	19	7	6	6
480.79150390625	n/a	PROB	984661	n/a	LTP346	ltpFR2	20	n/a	n/a	n/a	2	10	5	1	4
481.974609375	n/a	PROB	987084	n/a	LTP346	ltpFR2	20	n/a	n/a	n/a	2	13	2	6	5
483.3076171875	n/a	PROB	989814	n/a	LTP346	ltpFR2	20	n/a	n/a	n/a	2	12	7	1	4
484.83935546875	n/a	PROB	992951	n/a	LTP346	ltpFR2	20	n/a	n/a	n/a	2	21	9	8	4
487.05517578125	n/a	PROB	997489	n/a	LTP346	ltpFR2	20	n/a	n/a	n/a	2	18	7	3	8
488.28857421875	n/a	PROB	1000015	n/a	LTP346	ltpFR2	20	n/a	n/a	n/a	2	22	7	6	9
489.97021484375	n/a	PROB	1003459	n/a	LTP346	ltpFR2	20	n/a	n/a	n/a	2	8	2	1	5
491.3701171875	n/a	PROB	1006326	n/a	LTP346	ltpFR2	20	n/a	n/a	n/a	2	11	6	2	3
492.93505859375	n/a	PROB	1009531	n/a	LTP346	ltpFR2	20	n/a	n/a	n/a	2	14	3	4	7
494.08544921875	n/a	PROB	1011887	n/a	LTP346	ltpFR2	20	n/a	n/a	n/a	2	19	5	5	9
495.21826171875	n/a	PROB	1014207	n/a	LTP346	ltpFR2	20	n/a	n/a	n/a	2	23	7	8	8
496.76708984375	n/a	PROB	1017379	n/a	LTP346	ltpFR2	20	n/a	n/a	n/a	2	20	9	3	8
498.46630859375	n/a	PROB	1020859	n/a	LTP346	ltpFR2	20	n/a	n/a	n/a	2	14	3	4	7
499.84912109375	n/a	PROB	1023691	n/a	LTP346	ltpFR2	20	n/a	n/a	n/a	2	12	5	2	5
500.8681640625	n/a	STOP	1025778	n/a	LTP346	ltpFR2	20	n/a	n/a	n/a	2	n/a	n/a	n/a	n/a
503.03076171875	n/a	WORD	1030207	wordpools/wasnorm_wordpool_576.txt	LTP346	ltpFR2	20	2	BANQUET	86	n/a	n/a	0	0	0
505.7958984375	n/a	WORD	1035870	wordpools/wasnorm_wordpool_576.txt	LTP346	ltpFR2	20	2	JOURNAL	760	n/a	n/a	0	0	0
508.27880859375	n/a	WORD	1040955	wordpools/wasnorm_wordpool_576.txt	LTP346	ltpFR2	20	2	PRINCESS	1125	n/a	n/a	0	0	0
511.009765625	n/a	WORD	1046548	wordpools/wasnorm_wordpool_576.txt	LTP346	ltpFR2	20	2	POET	1095	n/a	n/a	0	0	0
513.5927734375	n/a	WORD	1051838	wordpools/wasnorm_wordpool_576.txt	LTP346	ltpFR2	20	2	FUNGUS	614	n/a	n/a	0	0	0
516.2587890625	n/a	WORD	1057298	wordpools/wasnorm_wordpool_576.txt	LTP346	ltpFR2	20	2	MAMMAL	861	n/a	n/a	0	0	0
519.056640625	n/a	WORD	1063028	wordpools/wasnorm_wordpool_576.txt	LTP346	ltpFR2	20	2	COBRA	336	n/a	n/a	0	0	0
521.70458984375	n/a	WORD	1068451	wordpools/wasnorm_wordpool_576.txt	LTP346	ltpFR2	20	2	PATROL	1027	n/a	n/a	0	0	0
524.271484375	n/a	WORD	1073708	wordpools/wasnorm_wordpool_576.txt	LTP346	ltpFR2	20	2	PLAID	1080	n/a	n/a	0	0	0
527.08544921875	n/a	WORD	1079471	wordpools/wasnorm_wordpool_576.txt	LTP346	ltpFR2	20	2	MAILBOX	857	n/a	n/a	0	0	0
529.51806640625	n/a	WORD	1084453	wordpools/wasnorm_wordpool_576.txt	LTP346	ltpFR2	20	2	STAMP	1370	n/a	n/a	0	0	0
532.0830078125	n/a	WORD	1089706	wordpools/wasnorm_wordpool_576.txt	LTP346	ltpFR2	20	2	DONKEY	484	n/a	n/a	0	0	0
534.68212890625	n/a	WORD	1095029	wordpools/wasnorm_wordpool_576.txt	LTP346	ltpFR2	20	2	CABBAGE	210	n/a	n/a	0	0	0
537.1640625	n/a	WORD	1100112	wordpools/wasnorm_wordpool_576.txt	LTP346	ltpFR2	20	2	SHORTCAKE	1292	n/a	n/a	0	0	0
539.8798828125	n/a	WORD	1105674	wordpools/wasnorm_wordpool_576.txt	LTP346	ltpFR2	20	2	THREAD	1460	n/a	n/a	0	0	0
542.56201171875	n/a	WORD	1111167	wordpools/wasnorm_wordpool_576.txt	LTP346	ltpFR2	20	2	PREACHER	1119	n/a	n/a	0	0	0
545.3779296875	n/a	WORD	1116934	wordpools/wasnorm_wordpool_576.txt	LTP346	ltpFR2	20	2	WITNESS	1618	n/a	n/a	0	0	0
547.958984375	n/a	WORD	1122220	wordpools/wasnorm_wordpool_576.txt	LTP346	ltpFR2	20	2	SPOOL	1356	n/a	n/a	0	0	0
550.44189453125	n/a	WORD	1127305	wordpools/wasnorm_wordpool_576.txt	LTP346	ltpFR2	20	2	LION	827	n/a	n/a	0	0	0
553.173828125	n/a	WORD	1132900	wordpools/wasnorm_wordpool_576.txt	LTP346	ltpFR2	20	2	REPORT	1184	n/a	n/a	0	0	0
555.9384765625	n/a	WORD	1138562	wordpools/wasnorm_wordpool_576.txt	LTP346	ltpFR2	20	2	HOUND	724	n/a	n/a	0	0	0
558.70361328125	n/a	WORD	1144225	wordpools/wasnorm_wordpool_576.txt	LTP346	ltpFR2	20	2	DONOR	485	n/a	n/a	0	0	0
561.37060546875	n/a	WORD	1149687	wordpools/wasnorm_wordpool_576.txt	LTP346	ltpFR2	20	2	FLESH	579	n/a	n/a	0	0	0
564.0341796875	n/a	WORD	1155142	wordpools/wasnorm_wordpool_576.txt	LTP346	ltpFR2	20	2	STOVE	1388	n/a	n/a	0	0	0
565.650390625	n/a	START	1158452	n/a	LTP346	ltpFR2	20	n/a	n/a	n/a	3	n/a	n/a	n/a	n/a
566.49951171875	n/a	DISTRACTOR	1160191	n/a	LTP346	ltpFR2	20	2	n/a	n/a	n/a	n/a	0	0	0
566.51708984375	n/a	PROB	1160227	n/a	LTP346	ltpFR2	20	n/a	n/a	n/a	3	9	1	2	6
568.416015625	n/a	PROB	1164116	n/a	LTP346	ltpFR2	20	n/a	n/a	n/a	3	17	3	8	6
570.4482421875	n/a	PROB	1168278	n/a	LTP346	ltpFR2	20	n/a	n/a	n/a	3	14	2	6	6
571.93115234375	n/a	PROB	1171315	n/a	LTP346	ltpFR2	20	n/a	n/a	n/a	3	13	2	7	4
574.22998046875	n/a	PROB	1176023	n/a	LTP346	ltpFR2	20	n/a	n/a	n/a	3	9	4	4	1
575.31396484375	n/a	PROB	1178243	n/a	LTP346	ltpFR2	20	n/a	n/a	n/a	3	20	8	7	5
576.69482421875	n/a	PROB	1181071	n/a	LTP346	ltpFR2	20	n/a	n/a	n/a	3	14	6	7	1
577.81103515625	n/a	PROB	1183357	n/a	LTP346	ltpFR2	20	n/a	n/a	n/a	3	15	4	7	2
579.294921875	n/a	PROB	1186396	n/a	LTP346	ltpFR2	20	n/a	n/a	n/a	3	21	7	7	7
580.4599609375	n/a	PROB	1188782	n/a	LTP346	ltpFR2	20	n/a	n/a	n/a	3	12	7	3	2
581.49267578125	n/a	PROB	1190897	n/a	LTP346	ltpFR2	20	n/a	n/a	n/a	3	8	1	1	6
582.52587890625	n/a	PROB	1193013	n/a	LTP346	ltpFR2	20	n/a	n/a	n/a	3	11	3	1	7
583.57568359375	n/a	PROB	1195163	n/a	LTP346	ltpFR2	20	n/a	n/a	n/a	3	12	2	7	3
584.6748046875	n/a	PROB	1197414	n/a	LTP346	ltpFR2	20	n/a	n/a	n/a	3	16	5	5	6
585.82470703125	n/a	PROB	1199769	n/a	LTP346	ltpFR2	20	n/a	n/a	n/a	3	21	3	9	9
587.173828125	n/a	PROB	1202532	n/a	LTP346	ltpFR2	20	n/a	n/a	n/a	3	11	1	2	8
588.23681640625	n/a	STOP	1204709	n/a	LTP346	ltpFR2	20	n/a	n/a	n/a	3	n/a	n/a	n/a	n/a
591.4384765625	n/a	REC_START	1211266	n/a	LTP346	ltpFR2	20	2	n/a	n/a	n/a	n/a	0	0	0
591.49462890625	n/a	REC_WORD	1211381	wordpools/wasnorm_wordpool_576.txt	LTP346	ltpFR2	20	2	FLESH	579	n/a	n/a	0	0	0
592.17236328125	n/a	REC_WORD	1212769	wordpools/wasnorm_wordpool_576.txt	LTP346	ltpFR2	20	2	DONOR	485	n/a	n/a	0	0	0
592.53759765625	n/a	REC_WORD	1213517	wordpools/wasnorm_wordpool_576.txt	LTP346	ltpFR2	20	2	STOVE	1388	n/a	n/a	0	0	0
594.62353515625	n/a	REC_WORD	1217789	wordpools/wasnorm_wordpool_576.txt	LTP346	ltpFR2	20	2	BANQUET	86	n/a	n/a	0	0	0
595.71533203125	n/a	REC_WORD	1220025	wordpools/wasnorm_wordpool_576.txt	LTP346	ltpFR2	20	2	JOURNAL	760	n/a	n/a	0	0	0
597.57568359375	n/a	REC_WORD	1223835	wordpools/wasnorm_wordpool_576.txt	LTP346	ltpFR2	20	2	POET	1095	n/a	n/a	0	0	0
598.30419921875	n/a	REC_WORD	1225327	wordpools/wasnorm_wordpool_576.txt	LTP346	ltpFR2	20	2	PRINCESS	1125	n/a	n/a	0	0	0
599.1513671875	n/a	REC_WORD	1227062	wordpools/wasnorm_wordpool_576.txt	LTP346	ltpFR2	20	2	FUNGUS	614	n/a	n/a	0	0	0
605.00830078125	n/a	REC_WORD	1239057	wordpools/wasnorm_wordpool_576.txt	LTP346	ltpFR2	20	2	MAMMAL	861	n/a	n/a	0	0	0
606.58642578125	n/a	REC_WORD	1242289	wordpools/wasnorm_wordpool_576.txt	LTP346	ltpFR2	20	2	COBRA	336	n/a	n/a	0	0	0
607.3603515625	n/a	REC_WORD	1243874	wordpools/wasnorm_wordpool_576.txt	LTP346	ltpFR2	20	2	PATROL	1027	n/a	n/a	0	0	0
609.29736328125	n/a	REC_WORD	1247841	wordpools/wasnorm_wordpool_576.txt	LTP346	ltpFR2	20	2	PLAID	1080	n/a	n/a	0	0	0
609.7900390625	n/a	REC_WORD	1248850	wordpools/wasnorm_wordpool_576.txt	LTP346	ltpFR2	20	2	MAILBOX	857	n/a	n/a	0	0	0
610.51708984375	n/a	REC_WORD	1250339	wordpools/wasnorm_wordpool_576.txt	LTP346	ltpFR2	20	2	STAMP	1370	n/a	n/a	0	0	0
614.09814453125	n/a	REC_WORD	1257673	wordpools/wasnorm_wordpool_576.txt	LTP346	ltpFR2	20	2	SPOOL	1356	n/a	n/a	0	0	0
615.28515625	n/a	REC_WORD	1260104	wordpools/wasnorm_wordpool_576.txt	LTP346	ltpFR2	20	2	THREAD	1460	n/a	n/a	0	0	0
620.0380859375	n/a	REC_WORD	1269838	wordpools/wasnorm_wordpool_576.txt	LTP346	ltpFR2	20	2	DONKEY	484	n/a	n/a	0	0	0
621.9189453125	n/a	REC_WORD	1273690	wordpools/wasnorm_wordpool_576.txt	LTP346	ltpFR2	20	2	SHORTCAKE	1292	n/a	n/a	0	0	0
623.06298828125	n/a	REC_WORD	1276033	wordpools/wasnorm_wordpool_576.txt	LTP346	ltpFR2	20	2	LETTUCE	814	n/a	n/a	0	0	0
643.60498046875	n/a	REC_WORD	1318103	wordpools/wasnorm_wordpool_576.txt	LTP346	ltpFR2	20	2	FLESH	579	n/a	n/a	0	0	0
644.40234375	n/a	REC_WORD	1319736	wordpools/wasnorm_wordpool_576.txt	LTP346	ltpFR2	20	2	DONOR	485	n/a	n/a	0	0	0
644.8271484375	n/a	REC_WORD	1320606	wordpools/wasnorm_wordpool_576.txt	LTP346	ltpFR2	20	2	STOVE	1388	n/a	n/a	0	0	0
661.33251953125	n/a	REC_WORD	1354409	wordpools/wasnorm_wordpool_576.txt	LTP346	ltpFR2	20	2	REPORT	1184	n/a	n/a	0	0	0
661.9716796875	n/a	REC_WORD	1355718	wordpools/wasnorm_wordpool_576.txt	LTP346	ltpFR2	20	2	HOUND	724	n/a	n/a	0	0	0
662.77392578125	n/a	REC_WORD	1357361	wordpools/wasnorm_wordpool_576.txt	LTP346	ltpFR2	20	2	LION	827	n/a	n/a	0	0	0
681.89501953125	n/a	WORD	1396521	wordpools/wasnorm_wordpool_576.txt	LTP346	ltpFR2	20	3	SUPPER	1411	n/a	n/a	0	0	0
684.52734375	n/a	WORD	1401912	wordpools/wasnorm_wordpool_576.txt	LTP346	ltpFR2	20	3	STAPLE	1371	n/a	n/a	0	0	0
687.076171875	n/a	WORD	1407132	wordpools/wasnorm_wordpool_576.txt	LTP346	ltpFR2	20	3	FOX	598	n/a	n/a	0	0	0
689.89111328125	n/a	WORD	1412897	wordpools/wasnorm_wordpool_576.txt	LTP346	ltpFR2	20	3	COD	340	n/a	n/a	0	0	0
692.57275390625	n/a	WORD	1418389	wordpools/wasnorm_wordpool_576.txt	LTP346	ltpFR2	20	3	GUARD	667	n/a	n/a	0	0	0
695.23876953125	n/a	WORD	1423849	wordpools/wasnorm_wordpool_576.txt	LTP346	ltpFR2	20	3	OUTFIT	988	n/a	n/a	0	0	0
697.970703125	n/a	WORD	1429444	wordpools/wasnorm_wordpool_576.txt	LTP346	ltpFR2	20	3	DRESSER	496	n/a	n/a	0	0	0
700.6025390625	n/a	WORD	1434834	wordpools/wasnorm_wordpool_576.txt	LTP346	ltpFR2	20	3	TWEEZERS	1526	n/a	n/a	0	0	0
703.41748046875	n/a	WORD	1440599	wordpools/wasnorm_wordpool_576.txt	LTP346	ltpFR2	20	3	BELLY	119	n/a	n/a	0	0	0
706.18359375	n/a	WORD	1446264	wordpools/wasnorm_wordpool_576.txt	LTP346	ltpFR2	20	3	PICNIC	1060	n/a	n/a	0	0	0
708.78125	n/a	WORD	1451584	wordpools/wasnorm_wordpool_576.txt	LTP346	ltpFR2	20	3	LILY	821	n/a	n/a	0	0	0
711.447265625	n/a	WORD	1457044	wordpools/wasnorm_wordpool_576.txt	LTP346	ltpFR2	20	3	QUEEN	1149	n/a	n/a	0	0	0
714.146484375	n/a	WORD	1462572	wordpools/wasnorm_wordpool_576.txt	LTP346	ltpFR2	20	3	COUCH	386	n/a	n/a	0	0	0
716.67822265625	n/a	WORD	1467757	wordpools/wasnorm_wordpool_576.txt	LTP346	ltpFR2	20	3	STATUE	1374	n/a	n/a	0	0	0
719.1103515625	n/a	WORD	1472738	wordpools/wasnorm_wordpool_576.txt	LTP346	ltpFR2	20	3	GARDEN	623	n/a	n/a	0	0	0
721.6259765625	n/a	WORD	1477890	wordpools/wasnorm_wordpool_576.txt	LTP346	ltpFR2	20	3	SIDEWALK	1303	n/a	n/a	0	0	0
724.34228515625	n/a	WORD	1483453	wordpools/wasnorm_wordpool_576.txt	LTP346	ltpFR2	20	3	NOMAD	955	n/a	n/a	0	0	0
726.83984375	n/a	WORD	1488568	wordpools/wasnorm_wordpool_576.txt	LTP346	ltpFR2	20	3	BUG	187	n/a	n/a	0	0	0
729.57177734375	n/a	WORD	1494163	wordpools/wasnorm_wordpool_576.txt	LTP346	ltpFR2	20	3	COLONEL	348	n/a	n/a	0	0	0
732.3046875	n/a	WORD	1499760	wordpools/wasnorm_wordpool_576.txt	LTP346	ltpFR2	20	3	CUSTARD	429	n/a	n/a	0	0	0
734.8857421875	n/a	WORD	1505046	wordpools/wasnorm_wordpool_576.txt	LTP346	ltpFR2	20	3	PANTHER	1009	n/a	n/a	0	0	0
737.48486328125	n/a	WORD	1510369	wordpools/wasnorm_wordpool_576.txt	LTP346	ltpFR2	20	3	WHISKERS	1605	n/a	n/a	0	0	0
740.30078125	n/a	WORD	1516136	wordpools/wasnorm_wordpool_576.txt	LTP346	ltpFR2	20	3	RIFLE	1192	n/a	n/a	0	0	0
743.03271484375	n/a	WORD	1521731	wordpools/wasnorm_wordpool_576.txt	LTP346	ltpFR2	20	3	HAND	683	n/a	n/a	0	0	0
744.6484375	n/a	START	1525040	n/a	LTP346	ltpFR2	20	n/a	n/a	n/a	4	n/a	n/a	n/a	n/a
745.572265625	n/a	DISTRACTOR	1526932	n/a	LTP346	ltpFR2	20	3	n/a	n/a	n/a	n/a	0	0	0
745.58056640625	n/a	PROB	1526949	n/a	LTP346	ltpFR2	20	n/a	n/a	n/a	4	18	7	7	4
748.2646484375	n/a	PROB	1532446	n/a	LTP346	ltpFR2	20	n/a	n/a	n/a	4	16	5	5	6
749.38037109375	n/a	PROB	1534731	n/a	LTP346	ltpFR2	20	n/a	n/a	n/a	4	19	8	5	6
751.04541015625	n/a	PROB	1538141	n/a	LTP346	ltpFR2	20	n/a	n/a	n/a	4	20	8	4	8
752.4111328125	n/a	PROB	1540938	n/a	LTP346	ltpFR2	20	n/a	n/a	n/a	4	14	1	4	9
754.6103515625	n/a	PROB	1545442	n/a	LTP346	ltpFR2	20	n/a	n/a	n/a	4	8	1	1	6
757.34326171875	n/a	PROB	1551039	n/a	LTP346	ltpFR2	20	n/a	n/a	n/a	4	10	5	2	3
758.541015625	n/a	PROB	1553492	n/a	LTP346	ltpFR2	20	n/a	n/a	n/a	4	16	9	6	1
759.9072265625	n/a	PROB	1556290	n/a	LTP346	ltpFR2	20	n/a	n/a	n/a	4	13	6	1	6
762.005859375	n/a	PROB	1560588	n/a	LTP346	ltpFR2	20	n/a	n/a	n/a	4	9	2	6	1
763.13916015625	n/a	PROB	1562909	n/a	LTP346	ltpFR2	20	n/a	n/a	n/a	4	17	3	9	5
764.65478515625	n/a	PROB	1566013	n/a	LTP346	ltpFR2	20	n/a	n/a	n/a	4	13	2	2	9
766.10400390625	n/a	PROB	1568981	n/a	LTP346	ltpFR2	20	n/a	n/a	n/a	4	20	9	5	6
768.07666015625	n/a	STOP	1573021	n/a	LTP346	ltpFR2	20	n/a	n/a	n/a	4	n/a	n/a	n/a	n/a
770.45263671875	n/a	REC_START	1577887	n/a	LTP346	ltpFR2	20	3	n/a	n/a	n/a	n/a	0	0	0
771.23779296875	n/a	REC_WORD	1579495	wordpools/wasnorm_wordpool_576.txt	LTP346	ltpFR2	20	3	COLONEL	348	n/a	n/a	0	0	0
771.86767578125	n/a	REC_WORD	1580785	wordpools/wasnorm_wordpool_576.txt	LTP346	ltpFR2	20	3	CUSTARD	429	n/a	n/a	0	0	0
772.57763671875	n/a	REC_WORD	1582239	wordpools/wasnorm_wordpool_576.txt	LTP346	ltpFR2	20	3	PANTHER	1009	n/a	n/a	0	0	0
773.77587890625	n/a	REC_WORD	1584693	wordpools/wasnorm_wordpool_576.txt	LTP346	ltpFR2	20	3	WHISKERS	1605	n/a	n/a	0	0	0
774.6416015625	n/a	REC_WORD	1586466	wordpools/wasnorm_wordpool_576.txt	LTP346	ltpFR2	20	3	RIFLE	1192	n/a	n/a	0	0	0
775.86669921875	n/a	REC_WORD	1588975	wordpools/wasnorm_wordpool_576.txt	LTP346	ltpFR2	20	3	HAND	683	n/a	n/a	0	0	0
782.08837890625	n/a	REC_WORD	1601717	wordpools/wasnorm_wordpool_576.txt	LTP346	ltpFR2	20	3	SUPPER	1411	n/a	n/a	0	0	0
782.84130859375	n/a	REC_WORD	1603259	wordpools/wasnorm_wordpool_576.txt	LTP346	ltpFR2	20	3	STAPLE	1371	n/a	n/a	0	0	0
783.99169921875	n/a	REC_WORD	1605615	wordpools/wasnorm_wordpool_576.txt	LTP346	ltpFR2	20	3	COD	340	n/a	n/a	0	0	0
784.87255859375	n/a	REC_WORD	1607419	wordpools/wasnorm_wordpool_576.txt	LTP346	ltpFR2	20	3	FOX	598	n/a	n/a	0	0	0
788.197265625	n/a	REC_WORD	1614228	wordpools/wasnorm_wordpool_576.txt	LTP346	ltpFR2	20	3	BELLY	119	n/a	n/a	0	0	0
788.91943359375	n/a	REC_WORD	1615707	wordpools/wasnorm_wordpool_576.txt	LTP346	ltpFR2	20	3	PICNIC	1060	n/a	n/a	0	0	0
790.3671875	n/a	REC_WORD	1618672	wordpools/wasnorm_wordpool_576.txt	LTP346	ltpFR2	20	3	LILY	821	n/a	n/a	0	0	0
790.88525390625	n/a	REC_WORD	1619733	wordpools/wasnorm_wordpool_576.txt	LTP346	ltpFR2	20	3	QUEEN	1149	n/a	n/a	0	0	0
791.67333984375	n/a	REC_WORD	1621347	wordpools/wasnorm_wordpool_576.txt	LTP346	ltpFR2	20	3	COUCH	386	n/a	n/a	0	0	0
793.1484375	n/a	REC_WORD	1624368	wordpools/wasnorm_wordpool_576.txt	LTP346	ltpFR2	20	3	STATUE	1374	n/a	n/a	0	0	0
794.04833984375	n/a	REC_WORD	1626211	wordpools/wasnorm_wordpool_576.txt	LTP346	ltpFR2	20	3	GARDEN	623	n/a	n/a	0	0	0
794.83740234375	n/a	REC_WORD	1627827	wordpools/wasnorm_wordpool_576.txt	LTP346	ltpFR2	20	3	SIDEWALK	1303	n/a	n/a	0	0	0
806.7099609375	n/a	REC_WORD	1652142	wordpools/wasnorm_wordpool_576.txt	LTP346	ltpFR2	20	3	NOMAD	955	n/a	n/a	0	0	0
808.65478515625	n/a	REC_WORD	1656125	wordpools/wasnorm_wordpool_576.txt	LTP346	ltpFR2	20	3	BUG	187	n/a	n/a	0	0	0
829.50244140625	n/a	REC_WORD	1698821	wordpools/wasnorm_wordpool_576.txt	LTP346	ltpFR2	20	3	GUARD	667	n/a	n/a	0	0	0
830.0380859375	n/a	REC_WORD	1699918	wordpools/wasnorm_wordpool_576.txt	LTP346	ltpFR2	20	3	OUTFIT	988	n/a	n/a	0	0	0
831.18310546875	n/a	REC_WORD	1702263	wordpools/wasnorm_wordpool_576.txt	LTP346	ltpFR2	20	3	DRESSER	496	n/a	n/a	0	0	0
832.4072265625	n/a	REC_WORD	1704770	wordpools/wasnorm_wordpool_576.txt	LTP346	ltpFR2	20	3	TWEEZERS	1526	n/a	n/a	0	0	0
860.87548828125	n/a	DISTRACTOR	1763073	n/a	LTP346	ltpFR2	20	4	n/a	n/a	n/a	n/a	0	0	0
860.87548828125	n/a	START	1763073	n/a	LTP346	ltpFR2	20	n/a	n/a	n/a	5	n/a	n/a	n/a	n/a
860.892578125	n/a	PROB	1763108	n/a	LTP346	ltpFR2	20	n/a	n/a	n/a	5	6	3	2	1
862.1083984375	n/a	PROB	1765598	n/a	LTP346	ltpFR2	20	n/a	n/a	n/a	5	15	2	4	9
863.79052734375	n/a	PROB	1769043	n/a	LTP346	ltpFR2	20	n/a	n/a	n/a	5	17	8	8	1
864.95751953125	n/a	PROB	1771433	n/a	LTP346	ltpFR2	20	n/a	n/a	n/a	5	14	3	9	1
866.189453125	n/a	PROB	1773956	n/a	LTP346	ltpFR2	20	n/a	n/a	n/a	5	20	8	4	8
867.55615234375	n/a	PROB	1776755	n/a	LTP346	ltpFR2	20	n/a	n/a	n/a	5	16	4	5	7
869.23828125	n/a	PROB	1780200	n/a	LTP346	ltpFR2	20	n/a	n/a	n/a	5	14	8	3	3
870.4873046875	n/a	PROB	1782758	n/a	LTP346	ltpFR2	20	n/a	n/a	n/a	5	11	3	6	2
872.47021484375	n/a	PROB	1786819	n/a	LTP346	ltpFR2	20	n/a	n/a	n/a	5	24	7	9	8
873.63623046875	n/a	PROB	1789207	n/a	LTP346	ltpFR2	20	n/a	n/a	n/a	5	16	9	4	3
874.85205078125	n/a	PROB	1791697	n/a	LTP346	ltpFR2	20	n/a	n/a	n/a	5	18	7	4	7
876.06787109375	n/a	PROB	1794187	n/a	LTP346	ltpFR2	20	n/a	n/a	n/a	5	9	4	4	1
877.1181640625	n/a	PROB	1796338	n/a	LTP346	ltpFR2	20	n/a	n/a	n/a	5	14	3	7	4
878.1337890625	n/a	PROB	1798418	n/a	LTP346	ltpFR2	20	n/a	n/a	n/a	5	10	6	2	2
879.216796875	n/a	PROB	1800636	n/a	LTP346	ltpFR2	20	n/a	n/a	n/a	5	13	3	5	5
880.53271484375	n/a	PROB	1803331	n/a	LTP346	ltpFR2	20	n/a	n/a	n/a	5	25	8	8	9
882.2998046875	n/a	PROB	1806950	n/a	LTP346	ltpFR2	20	n/a	n/a	n/a	5	11	3	6	2
884.44580078125	n/a	STOP	1811345	n/a	LTP346	ltpFR2	20	n/a	n/a	n/a	5	n/a	n/a	n/a	n/a
885.97998046875	n/a	WORD	1814487	wordpools/wasnorm_wordpool_576.txt	LTP346	ltpFR2	20	4	CLOCK	325	n/a	n/a	0	0	0
888.595703125	n/a	WORD	1819844	wordpools/wasnorm_wordpool_576.txt	LTP346	ltpFR2	20	4	ROOSTER	1209	n/a	n/a	0	0	0
891.27880859375	n/a	WORD	1825339	wordpools/wasnorm_wordpool_576.txt	LTP346	ltpFR2	20	4	BREAST	171	n/a	n/a	0	0	0
894.09375	n/a	WORD	1831104	wordpools/wasnorm_wordpool_576.txt	LTP346	ltpFR2	20	4	WINDOW	1611	n/a	n/a	0	0	0
896.55859375	n/a	WORD	1836152	wordpools/wasnorm_wordpool_576.txt	LTP346	ltpFR2	20	4	SWAMP	1416	n/a	n/a	0	0	0
899.25830078125	n/a	WORD	1841681	wordpools/wasnorm_wordpool_576.txt	LTP346	ltpFR2	20	4	JUDGE	761	n/a	n/a	0	0	0
901.7392578125	n/a	WORD	1846762	wordpools/wasnorm_wordpool_576.txt	LTP346	ltpFR2	20	4	CATCHER	258	n/a	n/a	0	0	0
904.55419921875	n/a	WORD	1852527	wordpools/wasnorm_wordpool_576.txt	LTP346	ltpFR2	20	4	RACKET	1155	n/a	n/a	0	0	0
907.22021484375	n/a	WORD	1857987	wordpools/wasnorm_wordpool_576.txt	LTP346	ltpFR2	20	4	TEMPLE	1448	n/a	n/a	0	0	0
909.9189453125	n/a	WORD	1863514	wordpools/wasnorm_wordpool_576.txt	LTP346	ltpFR2	20	4	CROSS	413	n/a	n/a	0	0	0
912.71728515625	n/a	WORD	1869245	wordpools/wasnorm_wordpool_576.txt	LTP346	ltpFR2	20	4	MOP	916	n/a	n/a	0	0	0
915.48291015625	n/a	WORD	1874909	wordpools/wasnorm_wordpool_576.txt	LTP346	ltpFR2	20	4	YACHT	1629	n/a	n/a	0	0	0
918.19775390625	n/a	WORD	1880469	wordpools/wasnorm_wordpool_576.txt	LTP346	ltpFR2	20	4	BURGLAR	200	n/a	n/a	0	0	0
920.94677734375	n/a	WORD	1886099	wordpools/wasnorm_wordpool_576.txt	LTP346	ltpFR2	20	4	CELLAR	267	n/a	n/a	0	0	0
923.5615234375	n/a	WORD	1891454	wordpools/wasnorm_wordpool_576.txt	LTP346	ltpFR2	20	4	CREATURE	403	n/a	n/a	0	0	0
926.32861328125	n/a	WORD	1897121	wordpools/wasnorm_wordpool_576.txt	LTP346	ltpFR2	20	4	CRATER	400	n/a	n/a	0	0	0
928.90966796875	n/a	WORD	1902407	wordpools/wasnorm_wordpool_576.txt	LTP346	ltpFR2	20	4	BARREL	91	n/a	n/a	0	0	0
931.59130859375	n/a	WORD	1907899	wordpools/wasnorm_wordpool_576.txt	LTP346	ltpFR2	20	4	DOLPHIN	483	n/a	n/a	0	0	0
934.30859375	n/a	WORD	1913464	wordpools/wasnorm_wordpool_576.txt	LTP346	ltpFR2	20	4	LACE	792	n/a	n/a	0	0	0
936.9892578125	n/a	WORD	1918954	wordpools/wasnorm_wordpool_576.txt	LTP346	ltpFR2	20	4	CURTAIN	427	n/a	n/a	0	0	0
939.7373046875	n/a	WORD	1924582	wordpools/wasnorm_wordpool_576.txt	LTP346	ltpFR2	20	4	SUBWAY	1400	n/a	n/a	0	0	0
942.22021484375	n/a	WORD	1929667	wordpools/wasnorm_wordpool_576.txt	LTP346	ltpFR2	20	4	BASEMENT	94	n/a	n/a	0	0	0
944.68505859375	n/a	WORD	1934715	wordpools/wasnorm_wordpool_576.txt	LTP346	ltpFR2	20	4	MAPLE	866	n/a	n/a	0	0	0
947.3349609375	n/a	WORD	1940142	wordpools/wasnorm_wordpool_576.txt	LTP346	ltpFR2	20	4	BROTHER	179	n/a	n/a	0	0	0
948.9501953125	n/a	START	1943450	n/a	LTP346	ltpFR2	20	n/a	n/a	n/a	6	n/a	n/a	n/a	n/a
950.01025390625	n/a	DISTRACTOR	1945621	n/a	LTP346	ltpFR2	20	4	n/a	n/a	n/a	n/a	0	0	0
950.01611328125	n/a	PROB	1945633	n/a	LTP346	ltpFR2	20	n/a	n/a	n/a	6	26	8	9	9
952.31591796875	n/a	PROB	1950343	n/a	LTP346	ltpFR2	20	n/a	n/a	n/a	6	11	4	6	1
953.31591796875	n/a	PROB	1952391	n/a	LTP346	ltpFR2	20	n/a	n/a	n/a	6	17	7	2	8
954.69677734375	n/a	PROB	1955219	n/a	LTP346	ltpFR2	20	n/a	n/a	n/a	6	20	5	9	6
956.9130859375	n/a	PROB	1959758	n/a	LTP346	ltpFR2	20	n/a	n/a	n/a	6	18	6	4	8
958.74462890625	n/a	PROB	1963509	n/a	LTP346	ltpFR2	20	n/a	n/a	n/a	6	15	7	1	7
959.8779296875	n/a	PROB	1965830	n/a	LTP346	ltpFR2	20	n/a	n/a	n/a	6	21	6	8	7
961.49365234375	n/a	PROB	1969139	n/a	LTP346	ltpFR2	20	n/a	n/a	n/a	6	15	8	3	4
963.142578125	n/a	PROB	1972516	n/a	LTP346	ltpFR2	20	n/a	n/a	n/a	6	23	8	8	7
965.35986328125	n/a	PROB	1977057	n/a	LTP346	ltpFR2	20	n/a	n/a	n/a	6	8	1	1	6
966.37548828125	n/a	PROB	1979137	n/a	LTP346	ltpFR2	20	n/a	n/a	n/a	6	10	7	1	2
967.6748046875	n/a	PROB	1981798	n/a	LTP346	ltpFR2	20	n/a	n/a	n/a	6	21	7	8	6
969.04052734375	n/a	PROB	1984595	n/a	LTP346	ltpFR2	20	n/a	n/a	n/a	6	16	2	8	6
970.45654296875	n/a	PROB	1987495	n/a	LTP346	ltpFR2	20	n/a	n/a	n/a	6	13	5	5	3
971.67724609375	n/a	STOP	1989995	n/a	LTP346	ltpFR2	20	n/a	n/a	n/a	6	n/a	n/a	n/a	n/a
974.83837890625	n/a	REC_START	1996469	n/a	LTP346	ltpFR2	20	4	n/a	n/a	n/a	n/a	0	0	0
975.201171875	n/a	REC_WORD	1997212	wordpools/wasnorm_wordpool_576.txt	LTP346	ltpFR2	20	4	BASEMENT	94	n/a	n/a	0	0	0
975.88330078125	n/a	REC_WORD	1998609	wordpools/wasnorm_wordpool_576.txt	LTP346	ltpFR2	20	4	MAPLE	866	n/a	n/a	0	0	0
976.59423828125	n/a	REC_WORD	2000065	wordpools/wasnorm_wordpool_576.txt	LTP346	ltpFR2	20	4	BROTHER	179	n/a	n/a	0	0	0
977.1142578125	n/a	REC_WORD	2001130	wordpools/wasnorm_wordpool_576.txt	LTP346	ltpFR2	20	4	SWAMP	1416	n/a	n/a	0	0	0
978.0205078125	n/a	REC_WORD	2002986	wordpools/wasnorm_wordpool_576.txt	LTP346	ltpFR2	20	4	JUDGE	761	n/a	n/a	0	0	0
980.5732421875	n/a	REC_WORD	2008214	wordpools/wasnorm_wordpool_576.txt	LTP346	ltpFR2	20	4	CATCHER	258	n/a	n/a	0	0	0
981.35009765625	n/a	REC_WORD	2009805	wordpools/wasnorm_wordpool_576.txt	LTP346	ltpFR2	20	4	RACKET	1155	n/a	n/a	0	0	0
984.197265625	n/a	REC_WORD	2015636	wordpools/wasnorm_wordpool_576.txt	LTP346	ltpFR2	20	4	MOP	916	n/a	n/a	0	0	0
986.447265625	n/a	REC_WORD	2020244	wordpools/wasnorm_wordpool_576.txt	LTP346	ltpFR2	20	4	YACHT	1629	n/a	n/a	0	0	0
989.51708984375	n/a	REC_WORD	2026531	wordpools/wasnorm_wordpool_576.txt	LTP346	ltpFR2	20	4	CROSS	413	n/a	n/a	0	0	0
990.046875	n/a	REC_WORD	2027616	wordpools/wasnorm_wordpool_576.txt	LTP346	ltpFR2	20	4	TEMPLE	1448	n/a	n/a	0	0	0
993.3056640625	n/a	REC_WORD	2034290	wordpools/wasnorm_wordpool_576.txt	LTP346	ltpFR2	20	4	ROBBER	1197	n/a	n/a	0	0	0
993.7578125	n/a	REC_WORD	2035216	wordpools/wasnorm_wordpool_576.txt	LTP346	ltpFR2	20	4	CELLAR	267	n/a	n/a	0	0	0
1028.52392578125	n/a	REC_WORD	2106417	wordpools/wasnorm_wordpool_576.txt	LTP346	ltpFR2	20	4	CRATER	400	n/a	n/a	0	0	0
1029.10400390625	n/a	REC_WORD	2107605	wordpools/wasnorm_wordpool_576.txt	LTP346	ltpFR2	20	4	CREATURE	403	n/a	n/a	0	0	0
1065.26220703125	n/a	DISTRACTOR	2181657	n/a	LTP346	ltpFR2	20	5	n/a	n/a	n/a	n/a	0	0	0
1065.26220703125	n/a	START	2181657	n/a	LTP346	ltpFR2	20	n/a	n/a	n/a	7	n/a	n/a	n/a	n/a
1065.27880859375	n/a	PROB	2181691	n/a	LTP346	ltpFR2	20	n/a	n/a	n/a	7	12	4	3	5
1067.1767578125	n/a	PROB	2185578	n/a	LTP346	ltpFR2	20	n/a	n/a	n/a	7	13	4	1	8
1068.52587890625	n/a	PROB	2188341	n/a	LTP346	ltpFR2	20	n/a	n/a	n/a	7	14	2	5	7
1069.875	n/a	PROB	2191104	n/a	LTP346	ltpFR2	20	n/a	n/a	n/a	7	12	2	8	2
1071.40771484375	n/a	PROB	2194243	n/a	LTP346	ltpFR2	20	n/a	n/a	n/a	7	23	8	9	6
1074.29052734375	n/a	PROB	2200147	n/a	LTP346	ltpFR2	20	n/a	n/a	n/a	7	8	2	3	3
1075.505859375	n/a	PROB	2202636	n/a	LTP346	ltpFR2	20	n/a	n/a	n/a	7	17	4	5	8
1077.0048828125	n/a	PROB	2205706	n/a	LTP346	ltpFR2	20	n/a	n/a	n/a	7	15	5	1	9
1078.58740234375	n/a	PROB	2208947	n/a	LTP346	ltpFR2	20	n/a	n/a	n/a	7	17	7	3	7
1080.103515625	n/a	PROB	2212052	n/a	LTP346	ltpFR2	20	n/a	n/a	n/a	7	21	6	8	7
1081.353515625	n/a	PROB	2214612	n/a	LTP346	ltpFR2	20	n/a	n/a	n/a	7	10	2	5	3
1082.8193359375	n/a	PROB	2217614	n/a	LTP346	ltpFR2	20	n/a	n/a	n/a	7	11	4	4	3
1083.96826171875	n/a	PROB	2219967	n/a	LTP346	ltpFR2	20	n/a	n/a	n/a	7	9	1	2	6
1085.21728515625	n/a	PROB	2222525	n/a	LTP346	ltpFR2	20	n/a	n/a	n/a	7	17	2	6	9
1086.6171875	n/a	PROB	2225392	n/a	LTP346	ltpFR2	20	n/a	n/a	n/a	7	20	8	3	9
1088.43017578125	n/a	STOP	2229105	n/a	LTP346	ltpFR2	20	n/a	n/a	n/a	7	n/a	n/a	n/a	n/a
1090.26611328125	n/a	WORD	2232865	wordpools/wasnorm_wordpool_576.txt	LTP346	ltpFR2	20	5	LEADER	807	n/a	n/a	0	0	0
1092.71435546875	n/a	WORD	2237879	wordpools/wasnorm_wordpool_576.txt	LTP346	ltpFR2	20	5	TART	1436	n/a	n/a	0	0	0
1095.4462890625	n/a	WORD	2243474	wordpools/wasnorm_wordpool_576.txt	LTP346	ltpFR2	20	5	CANDY	230	n/a	n/a	0	0	0
1097.912109375	n/a	WORD	2248524	wordpools/wasnorm_wordpool_576.txt	LTP346	ltpFR2	20	5	ROD	1203	n/a	n/a	0	0	0
1100.72705078125	n/a	WORD	2254289	wordpools/wasnorm_wordpool_576.txt	LTP346	ltpFR2	20	5	FRANCE	601	n/a	n/a	0	0	0
1103.4921875	n/a	WORD	2259952	wordpools/wasnorm_wordpool_576.txt	LTP346	ltpFR2	20	5	SKETCH	1315	n/a	n/a	0	0	0
1106.041015625	n/a	WORD	2265172	wordpools/wasnorm_wordpool_576.txt	LTP346	ltpFR2	20	5	CABIN	211	n/a	n/a	0	0	0
1108.65673828125	n/a	WORD	2270529	wordpools/wasnorm_wordpool_576.txt	LTP346	ltpFR2	20	5	THRONE	1461	n/a	n/a	0	0	0
1111.43896484375	n/a	WORD	2276227	wordpools/wasnorm_wordpool_576.txt	LTP346	ltpFR2	20	5	GRAVE	658	n/a	n/a	0	0	0
1114.0537109375	n/a	WORD	2281582	wordpools/wasnorm_wordpool_576.txt	LTP346	ltpFR2	20	5	SPIDER	1351	n/a	n/a	0	0	0
1116.48681640625	n/a	WORD	2286565	wordpools/wasnorm_wordpool_576.txt	LTP346	ltpFR2	20	5	STICKER	1382	n/a	n/a	0	0	0
1119.302734375	n/a	WORD	2292332	wordpools/wasnorm_wordpool_576.txt	LTP346	ltpFR2	20	5	PROTON	1132	n/a	n/a	0	0	0
1121.93359375	n/a	WORD	2297720	wordpools/wasnorm_wordpool_576.txt	LTP346	ltpFR2	20	5	HIKER	708	n/a	n/a	0	0	0
1124.46533203125	n/a	WORD	2302905	wordpools/wasnorm_wordpool_576.txt	LTP346	ltpFR2	20	5	SCRIBBLE	1256	n/a	n/a	0	0	0
1127.16455078125	n/a	WORD	2308433	wordpools/wasnorm_wordpool_576.txt	LTP346	ltpFR2	20	5	CROWN	415	n/a	n/a	0	0	0
1129.830078125	n/a	WORD	2313892	wordpools/wasnorm_wordpool_576.txt	LTP346	ltpFR2	20	5	ROCKET	1202	n/a	n/a	0	0	0
1132.39501953125	n/a	WORD	2319145	wordpools/wasnorm_wordpool_576.txt	LTP346	ltpFR2	20	5	CONCERT	360	n/a	n/a	0	0	0
1134.92724609375	n/a	WORD	2324331	wordpools/wasnorm_wordpool_576.txt	LTP346	ltpFR2	20	5	PARENT	1013	n/a	n/a	0	0	0
1137.44287109375	n/a	WORD	2329483	wordpools/wasnorm_wordpool_576.txt	LTP346	ltpFR2	20	5	CHILD	299	n/a	n/a	0	0	0
1140.2080078125	n/a	WORD	2335146	wordpools/wasnorm_wordpool_576.txt	LTP346	ltpFR2	20	5	PADDLE	1000	n/a	n/a	0	0	0
1142.77392578125	n/a	WORD	2340401	wordpools/wasnorm_wordpool_576.txt	LTP346	ltpFR2	20	5	RELISH	1183	n/a	n/a	0	0	0
1145.505859375	n/a	WORD	2345996	wordpools/wasnorm_wordpool_576.txt	LTP346	ltpFR2	20	5	DRAWING	494	n/a	n/a	0	0	0
1148.28857421875	n/a	WORD	2351695	wordpools/wasnorm_wordpool_576.txt	LTP346	ltpFR2	20	5	PIGMENT	1066	n/a	n/a	0	0	0
1150.88671875	n/a	WORD	2357016	wordpools/wasnorm_wordpool_576.txt	LTP346	ltpFR2	20	5	GYMNAST	675	n/a	n/a	0	0	0
1152.50244140625	n/a	START	2360325	n/a	LTP346	ltpFR2	20	n/a	n/a	n/a	8	n/a	n/a	n/a	n/a
1153.3837890625	n/a	DISTRACTOR	2362130	n/a	LTP346	ltpFR2	20	5	n/a	n/a	n/a	n/a	0	0	0
1153.384765625	n/a	PROB	2362132	n/a	LTP346	ltpFR2	20	n/a	n/a	n/a	8	15	7	6	2
1154.86767578125	n/a	PROB	2365169	n/a	LTP346	ltpFR2	20	n/a	n/a	n/a	8	16	8	1	7
1156.0673828125	n/a	PROB	2367626	n/a	LTP346	ltpFR2	20	n/a	n/a	n/a	8	16	8	2	6
1157.56640625	n/a	PROB	2370696	n/a	LTP346	ltpFR2	20	n/a	n/a	n/a	8	17	2	8	7
1160.79833984375	n/a	PROB	2377315	n/a	LTP346	ltpFR2	20	n/a	n/a	n/a	8	18	2	7	9
1162.46435546875	n/a	PROB	2380727	n/a	LTP346	ltpFR2	20	n/a	n/a	n/a	8	11	1	8	2
1163.84619140625	n/a	PROB	2383557	n/a	LTP346	ltpFR2	20	n/a	n/a	n/a	8	13	9	1	3
1165.2470703125	n/a	PROB	2386426	n/a	LTP346	ltpFR2	20	n/a	n/a	n/a	8	14	6	7	1
1166.34619140625	n/a	PROB	2388677	n/a	LTP346	ltpFR2	20	n/a	n/a	n/a	8	22	8	6	8
1167.89501953125	n/a	PROB	2391849	n/a	LTP346	ltpFR2	20	n/a	n/a	n/a	8	13	8	4	1
1169.09423828125	n/a	PROB	2394305	n/a	LTP346	ltpFR2	20	n/a	n/a	n/a	8	9	3	3	3
1170.81005859375	n/a	PROB	2397819	n/a	LTP346	ltpFR2	20	n/a	n/a	n/a	8	19	6	7	6
1172.208984375	n/a	PROB	2400684	n/a	LTP346	ltpFR2	20	n/a	n/a	n/a	8	17	7	7	3
1174.0751953125	n/a	PROB	2404506	n/a	LTP346	ltpFR2	20	n/a	n/a	n/a	8	11	4	6	1
1175.0712890625	n/a	STOP	2406546	n/a	LTP346	ltpFR2	20	n/a	n/a	n/a	8	n/a	n/a	n/a	n/a
1178.39013671875	n/a	REC_START	2413343	n/a	LTP346	ltpFR2	20	5	n/a	n/a	n/a	n/a	0	0	0
1179.30712890625	n/a	REC_WORD	2415221	wordpools/wasnorm_wordpool_576.txt	LTP346	ltpFR2	20	5	PIGMENT	1066	n/a	n/a	0	0	0
1179.87890625	n/a	REC_WORD	2416392	wordpools/wasnorm_wordpool_576.txt	LTP346	ltpFR2	20	5	GYMNAST	675	n/a	n/a	0	0	0
1180.52001953125	n/a	REC_WORD	2417705	wordpools/wasnorm_wordpool_576.txt	LTP346	ltpFR2	20	5	RELISH	1183	n/a	n/a	0	0	0
1181.86181640625	n/a	REC_WORD	2420453	wordpools/wasnorm_wordpool_576.txt	LTP346	ltpFR2	20	5	RELISH	1183	n/a	n/a	0	0	0
1187.0546875	n/a	REC_WORD	2431088	wordpools/wasnorm_wordpool_576.txt	LTP346	ltpFR2	20	5	CHILD	299	n/a	n/a	0	0	0
1187.66162109375	n/a	REC_WORD	2432331	wordpools/wasnorm_wordpool_576.txt	LTP346	ltpFR2	20	5	PARENT	1013	n/a	n/a	0	0	0
1188.33154296875	n/a	REC_WORD	2433703	wordpools/wasnorm_wordpool_576.txt	LTP346	ltpFR2	20	5	PADDLE	1000	n/a	n/a	0	0	0
1189.83349609375	n/a	REC_WORD	2436779	wordpools/wasnorm_wordpool_576.txt	LTP346	ltpFR2	20	5	ROCKET	1202	n/a	n/a	0	0	0
1190.3544921875	n/a	REC_WORD	2437846	wordpools/wasnorm_wordpool_576.txt	LTP346	ltpFR2	20	5	CONCERT	360	n/a	n/a	0	0	0
1193.96337890625	n/a	REC_WORD	2445237	wordpools/wasnorm_wordpool_576.txt	LTP346	ltpFR2	20	5	CABIN	211	n/a	n/a	0	0	0
1194.41259765625	n/a	REC_WORD	2446157	wordpools/wasnorm_wordpool_576.txt	LTP346	ltpFR2	20	5	THRONE	1461	n/a	n/a	0	0	0
1195.7744140625	n/a	REC_WORD	2448946	wordpools/wasnorm_wordpool_576.txt	LTP346	ltpFR2	20	5	GRAVE	658	n/a	n/a	0	0	0
1196.1884765625	n/a	REC_WORD	2449794	wordpools/wasnorm_wordpool_576.txt	LTP346	ltpFR2	20	5	SPIDER	1351	n/a	n/a	0	0	0
1197.95361328125	n/a	REC_WORD	2453409	wordpools/wasnorm_wordpool_576.txt	LTP346	ltpFR2	20	5	LEADER	807	n/a	n/a	0	0	0
1198.58740234375	n/a	REC_WORD	2454707	wordpools/wasnorm_wordpool_576.txt	LTP346	ltpFR2	20	5	ROD	1203	n/a	n/a	0	0	0
1204.26220703125	n/a	REC_WORD	2466329	wordpools/wasnorm_wordpool_576.txt	LTP346	ltpFR2	20	5	CANDY	230	n/a	n/a	0	0	0
1204.8291015625	n/a	REC_WORD	2467490	wordpools/wasnorm_wordpool_576.txt	LTP346	ltpFR2	20	5	TART	1436	n/a	n/a	0	0	0
1205.7041015625	n/a	REC_WORD	2469282	wordpools/wasnorm_wordpool_576.txt	LTP346	ltpFR2	20	5	SKETCH	1315	n/a	n/a	0	0	0
1206.37109375	n/a	REC_WORD	2470648	wordpools/wasnorm_wordpool_576.txt	LTP346	ltpFR2	20	5	FRANCE	601	n/a	n/a	0	0	0
1210.01220703125	n/a	REC_WORD	2478105	wordpools/wasnorm_wordpool_576.txt	LTP346	ltpFR2	20	5	DRAWING	494	n/a	n/a	0	0	0
1224.5087890625	n/a	REC_WORD	2507794	wordpools/wasnorm_wordpool_576.txt	LTP346	ltpFR2	20	5	PALACE	1006	n/a	n/a	0	0	0
1227.36376953125	n/a	REC_WORD	2513641	wordpools/wasnorm_wordpool_576.txt	LTP346	ltpFR2	20	5	CROWN	415	n/a	n/a	0	0	0
1268.82958984375	n/a	DISTRACTOR	2598563	n/a	LTP346	ltpFR2	20	6	n/a	n/a	n/a	n/a	0	0	0
1268.82958984375	n/a	START	2598563	n/a	LTP346	ltpFR2	20	n/a	n/a	n/a	9	n/a	n/a	n/a	n/a
1268.8466796875	n/a	PROB	2598598	n/a	LTP346	ltpFR2	20	n/a	n/a	n/a	9	16	4	5	7
1271.111328125	n/a	PROB	2603236	n/a	LTP346	ltpFR2	20	n/a	n/a	n/a	9	11	1	8	2
1272.09423828125	n/a	PROB	2605249	n/a	LTP346	ltpFR2	20	n/a	n/a	n/a	9	12	2	3	7
1273.2275390625	n/a	PROB	2607570	n/a	LTP346	ltpFR2	20	n/a	n/a	n/a	9	11	1	6	4
1274.12744140625	n/a	PROB	2609413	n/a	LTP346	ltpFR2	20	n/a	n/a	n/a	9	15	6	3	6
1275.26123046875	n/a	PROB	2611735	n/a	LTP346	ltpFR2	20	n/a	n/a	n/a	9	19	2	8	9
1276.95947265625	n/a	PROB	2615213	n/a	LTP346	ltpFR2	20	n/a	n/a	n/a	9	9	2	2	5
1278.94140625	n/a	PROB	2619272	n/a	LTP346	ltpFR2	20	n/a	n/a	n/a	9	17	1	9	7
1280.2421875	n/a	PROB	2621936	n/a	LTP346	ltpFR2	20	n/a	n/a	n/a	9	20	9	4	7
1281.64013671875	n/a	PROB	2624799	n/a	LTP346	ltpFR2	20	n/a	n/a	n/a	9	13	3	2	8
1283.22314453125	n/a	PROB	2628041	n/a	LTP346	ltpFR2	20	n/a	n/a	n/a	9	18	8	2	8
1284.34033203125	n/a	PROB	2630329	n/a	LTP346	ltpFR2	20	n/a	n/a	n/a	9	11	6	4	1
1285.22216796875	n/a	PROB	2632135	n/a	LTP346	ltpFR2	20	n/a	n/a	n/a	9	14	3	7	4
1286.30615234375	n/a	PROB	2634355	n/a	LTP346	ltpFR2	20	n/a	n/a	n/a	9	12	2	7	3
1287.35498046875	n/a	PROB	2636503	n/a	LTP346	ltpFR2	20	n/a	n/a	n/a	9	24	8	8	8
1290.05322265625	n/a	PROB	2642029	n/a	LTP346	ltpFR2	20	n/a	n/a	n/a	9	15	4	6	5
1291.23681640625	n/a	PROB	2644453	n/a	LTP346	ltpFR2	20	n/a	n/a	n/a	9	17	9	2	6
1292.4228515625	n/a	STOP	2646882	n/a	LTP346	ltpFR2	20	n/a	n/a	n/a	9	n/a	n/a	n/a	n/a
1293.9677734375	n/a	WORD	2650046	wordpools/wasnorm_wordpool_576.txt	LTP346	ltpFR2	20	6	SCARF	1246	n/a	n/a	0	0	0
1296.599609375	n/a	WORD	2655436	wordpools/wasnorm_wordpool_576.txt	LTP346	ltpFR2	20	6	YARN	1631	n/a	n/a	0	0	0
1299.16455078125	n/a	WORD	2660689	wordpools/wasnorm_wordpool_576.txt	LTP346	ltpFR2	20	6	ANTLER	29	n/a	n/a	0	0	0
1301.73046875	n/a	WORD	2665944	wordpools/wasnorm_wordpool_576.txt	LTP346	ltpFR2	20	6	MARINE	869	n/a	n/a	0	0	0
1304.3134765625	n/a	WORD	2671234	wordpools/wasnorm_wordpool_576.txt	LTP346	ltpFR2	20	6	WRENCH	1625	n/a	n/a	0	0	0
1306.82763671875	n/a	WORD	2676383	wordpools/wasnorm_wordpool_576.txt	LTP346	ltpFR2	20	6	CLOTHES	327	n/a	n/a	0	0	0
1309.59326171875	n/a	WORD	2682047	wordpools/wasnorm_wordpool_576.txt	LTP346	ltpFR2	20	6	BUREAU	199	n/a	n/a	0	0	0
1312.3095703125	n/a	WORD	2687610	wordpools/wasnorm_wordpool_576.txt	LTP346	ltpFR2	20	6	SERVANT	1271	n/a	n/a	0	0	0
1314.79150390625	n/a	WORD	2692693	wordpools/wasnorm_wordpool_576.txt	LTP346	ltpFR2	20	6	PIZZA	1079	n/a	n/a	0	0	0
1317.5732421875	n/a	WORD	2698390	wordpools/wasnorm_wordpool_576.txt	LTP346	ltpFR2	20	6	MARROW	872	n/a	n/a	0	0	0
1320.072265625	n/a	WORD	2703508	wordpools/wasnorm_wordpool_576.txt	LTP346	ltpFR2	20	6	BRAKE	166	n/a	n/a	0	0	0
1322.52001953125	n/a	WORD	2708521	wordpools/wasnorm_wordpool_576.txt	LTP346	ltpFR2	20	6	BLACKBOARD	133	n/a	n/a	0	0	0
1325.30322265625	n/a	WORD	2714221	wordpools/wasnorm_wordpool_576.txt	LTP346	ltpFR2	20	6	SPOUSE	1358	n/a	n/a	0	0	0
1327.85107421875	n/a	WORD	2719439	wordpools/wasnorm_wordpool_576.txt	LTP346	ltpFR2	20	6	CORAL	378	n/a	n/a	0	0	0
1330.3349609375	n/a	WORD	2724526	wordpools/wasnorm_wordpool_576.txt	LTP346	ltpFR2	20	6	SHARK	1275	n/a	n/a	0	0	0
1333.08203125	n/a	WORD	2730152	wordpools/wasnorm_wordpool_576.txt	LTP346	ltpFR2	20	6	SCOTCH	1251	n/a	n/a	0	0	0
1335.5478515625	n/a	WORD	2735202	wordpools/wasnorm_wordpool_576.txt	LTP346	ltpFR2	20	6	POISON	1096	n/a	n/a	0	0	0
1338.24755859375	n/a	WORD	2740731	wordpools/wasnorm_wordpool_576.txt	LTP346	ltpFR2	20	6	COURSE	390	n/a	n/a	0	0	0
1340.71142578125	n/a	WORD	2745777	wordpools/wasnorm_wordpool_576.txt	LTP346	ltpFR2	20	6	HAMPER	682	n/a	n/a	0	0	0
1343.361328125	n/a	WORD	2751204	wordpools/wasnorm_wordpool_576.txt	LTP346	ltpFR2	20	6	WASHER	1592	n/a	n/a	0	0	0
1345.9423828125	n/a	WORD	2756490	wordpools/wasnorm_wordpool_576.txt	LTP346	ltpFR2	20	6	BLOCKADE	137	n/a	n/a	0	0	0
1348.474609375	n/a	WORD	2761676	wordpools/wasnorm_wordpool_576.txt	LTP346	ltpFR2	20	6	COLLEGE	346	n/a	n/a	0	0	0
1350.9072265625	n/a	WORD	2766658	wordpools/wasnorm_wordpool_576.txt	LTP346	ltpFR2	20	6	CEILING	265	n/a	n/a	0	0	0
1353.4892578125	n/a	WORD	2771946	wordpools/wasnorm_wordpool_576.txt	LTP346	ltpFR2	20	6	LETTUCE	814	n/a	n/a	0	0	0
1355.10546875	n/a	START	2775256	n/a	LTP346	ltpFR2	20	n/a	n/a	n/a	10	n/a	n/a	n/a	n/a
1355.91845703125	n/a	DISTRACTOR	2776921	n/a	LTP346	ltpFR2	20	6	n/a	n/a	n/a	n/a	0	0	0
1355.92138671875	n/a	PROB	2776927	n/a	LTP346	ltpFR2	20	n/a	n/a	n/a	10	17	9	4	4
1359.21923828125	n/a	PROB	2783681	n/a	LTP346	ltpFR2	20	n/a	n/a	n/a	10	18	2	7	9
1362.63525390625	n/a	PROB	2790677	n/a	LTP346	ltpFR2	20	n/a	n/a	n/a	10	17	7	2	8
1364.1337890625	n/a	PROB	2793746	n/a	LTP346	ltpFR2	20	n/a	n/a	n/a	10	17	4	5	8
1366.93310546875	n/a	PROB	2799479	n/a	LTP346	ltpFR2	20	n/a	n/a	n/a	10	17	3	5	9
1370.130859375	n/a	PROB	2806028	n/a	LTP346	ltpFR2	20	n/a	n/a	n/a	10	17	2	9	6
1373.39599609375	n/a	PROB	2812715	n/a	LTP346	ltpFR2	20	n/a	n/a	n/a	10	18	8	8	2
1374.7119140625	n/a	PROB	2815410	n/a	LTP346	ltpFR2	20	n/a	n/a	n/a	10	20	5	7	8
1377.49462890625	n/a	PROB	2821109	n/a	LTP346	ltpFR2	20	n/a	n/a	n/a	10	14	6	1	7
1379.0634765625	n/a	STOP	2824322	n/a	LTP346	ltpFR2	20	n/a	n/a	n/a	10	n/a	n/a	n/a	n/a
1380.99267578125	n/a	REC_WORD	2828273	wordpools/wasnorm_wordpool_576.txt	LTP346	ltpFR2	20	6	CEILING	265	n/a	n/a	0	0	0
1380.99267578125	n/a	REC_START	2828273	n/a	LTP346	ltpFR2	20	6	n/a	n/a	n/a	n/a	0	0	0
1381.642578125	n/a	REC_WORD	2829604	wordpools/wasnorm_wordpool_576.txt	LTP346	ltpFR2	20	6	LETTUCE	814	n/a	n/a	0	0	0
1382.763671875	n/a	REC_WORD	2831900	wordpools/wasnorm_wordpool_576.txt	LTP346	ltpFR2	20	6	COLLEGE	346	n/a	n/a	0	0	0
1383.32373046875	n/a	REC_WORD	2833047	wordpools/wasnorm_wordpool_576.txt	LTP346	ltpFR2	20	6	BLOCKADE	137	n/a	n/a	0	0	0
1385.3095703125	n/a	REC_WORD	2837114	wordpools/wasnorm_wordpool_576.txt	LTP346	ltpFR2	20	6	SCARF	1246	n/a	n/a	0	0	0
1386.017578125	n/a	REC_WORD	2838564	wordpools/wasnorm_wordpool_576.txt	LTP346	ltpFR2	20	6	YARN	1631	n/a	n/a	0	0	0
1388.453125	n/a	REC_WORD	2843552	wordpools/wasnorm_wordpool_576.txt	LTP346	ltpFR2	20	6	MARINE	869	n/a	n/a	0	0	0
1389.06640625	n/a	REC_WORD	2844808	wordpools/wasnorm_wordpool_576.txt	LTP346	ltpFR2	20	6	MARROW	872	n/a	n/a	0	0	0
1389.701171875	n/a	REC_WORD	2846108	wordpools/wasnorm_wordpool_576.txt	LTP346	ltpFR2	20	6	WRENCH	1625	n/a	n/a	0	0	0
1390.14453125	n/a	REC_WORD	2847016	wordpools/wasnorm_wordpool_576.txt	LTP346	ltpFR2	20	6	CLOTHES	327	n/a	n/a	0	0	0
1391.5751953125	n/a	REC_WORD	2849946	wordpools/wasnorm_wordpool_576.txt	LTP346	ltpFR2	20	6	BUREAU	199	n/a	n/a	0	0	0
1392.439453125	n/a	REC_WORD	2851716	wordpools/wasnorm_wordpool_576.txt	LTP346	ltpFR2	20	6	SERVANT	1271	n/a	n/a	0	0	0
1393.9150390625	n/a	REC_WORD	2854738	wordpools/wasnorm_wordpool_576.txt	LTP346	ltpFR2	20	6	PIZZA	1079	n/a	n/a	0	0	0
1394.818359375	n/a	REC_WORD	2856588	wordpools/wasnorm_wordpool_576.txt	LTP346	ltpFR2	20	6	MARROW	872	n/a	n/a	0	0	0
1395.9013671875	n/a	REC_WORD	2858806	wordpools/wasnorm_wordpool_576.txt	LTP346	ltpFR2	20	6	SPOUSE	1358	n/a	n/a	0	0	0
1397.26708984375	n/a	REC_WORD	2861603	wordpools/wasnorm_wordpool_576.txt	LTP346	ltpFR2	20	6	CORAL	378	n/a	n/a	0	0	0
1397.77490234375	n/a	REC_WORD	2862643	wordpools/wasnorm_wordpool_576.txt	LTP346	ltpFR2	20	6	SHARK	1275	n/a	n/a	0	0	0
1398.52099609375	n/a	REC_WORD	2864171	wordpools/wasnorm_wordpool_576.txt	LTP346	ltpFR2	20	6	BLACKBOARD	133	n/a	n/a	0	0	0
1404.591796875	n/a	REC_WORD	2876604	wordpools/wasnorm_wordpool_576.txt	LTP346	ltpFR2	20	6	COURSE	390	n/a	n/a	0	0	0
1405.1201171875	n/a	REC_WORD	2877686	wordpools/wasnorm_wordpool_576.txt	LTP346	ltpFR2	20	6	HAMPER	682	n/a	n/a	0	0	0
1405.673828125	n/a	REC_WORD	2878820	wordpools/wasnorm_wordpool_576.txt	LTP346	ltpFR2	20	6	WASHER	1592	n/a	n/a	0	0	0
1432.4541015625	n/a	REC_WORD	2933666	wordpools/wasnorm_wordpool_576.txt	LTP346	ltpFR2	20	6	SCOTCH	1251	n/a	n/a	0	0	0
1433.0361328125	n/a	REC_WORD	2934858	wordpools/wasnorm_wordpool_576.txt	LTP346	ltpFR2	20	6	POISON	1096	n/a	n/a	0	0	0
1438.46923828125	n/a	REC_WORD	2945985	wordpools/wasnorm_wordpool_576.txt	LTP346	ltpFR2	20	6	BOARD	143	n/a	n/a	0	0	0
1471.44921875	n/a	WORD	3013528	wordpools/wasnorm_wordpool_576.txt	LTP346	ltpFR2	20	7	WORLD	1622	n/a	n/a	0	0	0
1474.26513671875	n/a	WORD	3019295	wordpools/wasnorm_wordpool_576.txt	LTP346	ltpFR2	20	7	TURTLE	1522	n/a	n/a	0	0	0
1476.74609375	n/a	WORD	3024376	wordpools/wasnorm_wordpool_576.txt	LTP346	ltpFR2	20	7	ANKLE	24	n/a	n/a	0	0	0
1479.24609375	n/a	WORD	3029496	wordpools/wasnorm_wordpool_576.txt	LTP346	ltpFR2	20	7	ARM	38	n/a	n/a	0	0	0
1482.02685546875	n/a	WORD	3035191	wordpools/wasnorm_wordpool_576.txt	LTP346	ltpFR2	20	7	STAR	1373	n/a	n/a	0	0	0
1484.642578125	n/a	WORD	3040548	wordpools/wasnorm_wordpool_576.txt	LTP346	ltpFR2	20	7	CRITIC	410	n/a	n/a	0	0	0
1487.30859375	n/a	WORD	3046008	wordpools/wasnorm_wordpool_576.txt	LTP346	ltpFR2	20	7	SUNSET	1408	n/a	n/a	0	0	0
1490.08984375	n/a	WORD	3051704	wordpools/wasnorm_wordpool_576.txt	LTP346	ltpFR2	20	7	RABBIT	1152	n/a	n/a	0	0	0
1492.6884765625	n/a	WORD	3057026	wordpools/wasnorm_wordpool_576.txt	LTP346	ltpFR2	20	7	AWARD	63	n/a	n/a	0	0	0
1495.17041015625	n/a	WORD	3062109	wordpools/wasnorm_wordpool_576.txt	LTP346	ltpFR2	20	7	FIREPLACE	570	n/a	n/a	0	0	0
1497.853515625	n/a	WORD	3067604	wordpools/wasnorm_wordpool_576.txt	LTP346	ltpFR2	20	7	SUNRISE	1407	n/a	n/a	0	0	0
1500.6181640625	n/a	WORD	3073266	wordpools/wasnorm_wordpool_576.txt	LTP346	ltpFR2	20	7	BLENDER	136	n/a	n/a	0	0	0
1503.30126953125	n/a	WORD	3078761	wordpools/wasnorm_wordpool_576.txt	LTP346	ltpFR2	20	7	MATCH	878	n/a	n/a	0	0	0
1506.13232421875	n/a	WORD	3084559	wordpools/wasnorm_wordpool_576.txt	LTP346	ltpFR2	20	7	COMET	353	n/a	n/a	0	0	0
1508.79833984375	n/a	WORD	3090019	wordpools/wasnorm_wordpool_576.txt	LTP346	ltpFR2	20	7	REBEL	1172	n/a	n/a	0	0	0
1511.43017578125	n/a	WORD	3095409	wordpools/wasnorm_wordpool_576.txt	LTP346	ltpFR2	20	7	STREAM	1392	n/a	n/a	0	0	0
1514.044921875	n/a	WORD	3100764	wordpools/wasnorm_wordpool_576.txt	LTP346	ltpFR2	20	7	SPONGE	1355	n/a	n/a	0	0	0
1516.744140625	n/a	WORD	3106292	wordpools/wasnorm_wordpool_576.txt	LTP346	ltpFR2	20	7	EAGLE	512	n/a	n/a	0	0	0
1519.35986328125	n/a	WORD	3111649	wordpools/wasnorm_wordpool_576.txt	LTP346	ltpFR2	20	7	VIKING	1565	n/a	n/a	0	0	0
1521.82470703125	n/a	WORD	3116697	wordpools/wasnorm_wordpool_576.txt	LTP346	ltpFR2	20	7	FRIAR	605	n/a	n/a	0	0	0
1524.57373046875	n/a	WORD	3122327	wordpools/wasnorm_wordpool_576.txt	LTP346	ltpFR2	20	7	FOREST	593	n/a	n/a	0	0	0
1527.37255859375	n/a	WORD	3128059	wordpools/wasnorm_wordpool_576.txt	LTP346	ltpFR2	20	7	HEADBAND	696	n/a	n/a	0	0	0
1529.82080078125	n/a	WORD	3133073	wordpools/wasnorm_wordpool_576.txt	LTP346	ltpFR2	20	7	XEROX	1628	n/a	n/a	0	0	0
1532.5537109375	n/a	WORD	3138670	wordpools/wasnorm_wordpool_576.txt	LTP346	ltpFR2	20	7	PERMIT	1051	n/a	n/a	0	0	0
1534.16943359375	n/a	START	3141979	n/a	LTP346	ltpFR2	20	n/a	n/a	n/a	11	n/a	n/a	n/a	n/a
1535.3095703125	n/a	DISTRACTOR	3144314	n/a	LTP346	ltpFR2	20	7	n/a	n/a	n/a	n/a	0	0	0
1535.3193359375	n/a	PROB	3144334	n/a	LTP346	ltpFR2	20	n/a	n/a	n/a	11	13	1	3	9
1537.4345703125	n/a	PROB	3148666	n/a	LTP346	ltpFR2	20	n/a	n/a	n/a	11	17	4	7	6
1539.234375	n/a	PROB	3152352	n/a	LTP346	ltpFR2	20	n/a	n/a	n/a	11	7	2	2	3
1541.615234375	n/a	PROB	3157228	n/a	LTP346	ltpFR2	20	n/a	n/a	n/a	11	9	2	5	2
1542.76416015625	n/a	PROB	3159581	n/a	LTP346	ltpFR2	20	n/a	n/a	n/a	11	16	5	2	9
1544.1142578125	n/a	PROB	3162346	n/a	LTP346	ltpFR2	20	n/a	n/a	n/a	11	24	7	8	9
1545.197265625	n/a	PROB	3164564	n/a	LTP346	ltpFR2	20	n/a	n/a	n/a	11	22	8	9	5
1547.029296875	n/a	PROB	3168316	n/a	LTP346	ltpFR2	20	n/a	n/a	n/a	11	24	7	9	8
1548.12890625	n/a	PROB	3170568	n/a	LTP346	ltpFR2	20	n/a	n/a	n/a	11	6	1	2	3
1549.7109375	n/a	PROB	3173808	n/a	LTP346	ltpFR2	20	n/a	n/a	n/a	11	18	7	6	5
1551.84423828125	n/a	PROB	3178177	n/a	LTP346	ltpFR2	20	n/a	n/a	n/a	11	19	9	4	6
1553.81005859375	n/a	PROB	3182203	n/a	LTP346	ltpFR2	20	n/a	n/a	n/a	11	14	1	5	8
1555.27587890625	n/a	PROB	3185205	n/a	LTP346	ltpFR2	20	n/a	n/a	n/a	11	14	8	2	4
1556.30908203125	n/a	PROB	3187321	n/a	LTP346	ltpFR2	20	n/a	n/a	n/a	11	13	2	5	6
1557.671875	n/a	STOP	3190112	n/a	LTP346	ltpFR2	20	n/a	n/a	n/a	11	n/a	n/a	n/a	n/a
1560.07373046875	n/a	REC_START	3195031	n/a	LTP346	ltpFR2	20	7	n/a	n/a	n/a	n/a	0	0	0
1560.78369140625	n/a	REC_WORD	3196485	wordpools/wasnorm_wordpool_576.txt	LTP346	ltpFR2	20	7	PERMIT	1051	n/a	n/a	0	0	0
1561.24658203125	n/a	REC_WORD	3197433	wordpools/wasnorm_wordpool_576.txt	LTP346	ltpFR2	20	7	XEROX	1628	n/a	n/a	0	0	0
1561.876953125	n/a	REC_WORD	3198724	wordpools/wasnorm_wordpool_576.txt	LTP346	ltpFR2	20	7	HEADBAND	696	n/a	n/a	0	0	0
1562.40478515625	n/a	REC_WORD	3199805	wordpools/wasnorm_wordpool_576.txt	LTP346	ltpFR2	20	7	FOREST	593	n/a	n/a	0	0	0
1568.16455078125	n/a	REC_WORD	3211601	wordpools/wasnorm_wordpool_576.txt	LTP346	ltpFR2	20	7	STAR	1373	n/a	n/a	0	0	0
1568.83154296875	n/a	REC_WORD	3212967	wordpools/wasnorm_wordpool_576.txt	LTP346	ltpFR2	20	7	CRITIC	410	n/a	n/a	0	0	0
1572.8955078125	n/a	REC_WORD	3221290	wordpools/wasnorm_wordpool_576.txt	LTP346	ltpFR2	20	7	SUNRISE	1407	n/a	n/a	0	0	0
1573.6396484375	n/a	REC_WORD	3222814	wordpools/wasnorm_wordpool_576.txt	LTP346	ltpFR2	20	7	SUNSET	1408	n/a	n/a	0	0	0
1597.810546875	n/a	REC_WORD	3272316	wordpools/wasnorm_wordpool_576.txt	LTP346	ltpFR2	20	7	COMET	353	n/a	n/a	0	0	0
1598.759765625	n/a	REC_WORD	3274260	wordpools/wasnorm_wordpool_576.txt	LTP346	ltpFR2	20	7	REBEL	1172	n/a	n/a	0	0	0
1600.2119140625	n/a	REC_WORD	3277234	wordpools/wasnorm_wordpool_576.txt	LTP346	ltpFR2	20	7	STREAM	1392	n/a	n/a	0	0	0
1600.9755859375	n/a	REC_WORD	3278798	wordpools/wasnorm_wordpool_576.txt	LTP346	ltpFR2	20	7	FRIAR	605	n/a	n/a	0	0	0
1602.482421875	n/a	REC_WORD	3281884	wordpools/wasnorm_wordpool_576.txt	LTP346	ltpFR2	20	7	SPONGE	1355	n/a	n/a	0	0	0
1610.361328125	n/a	REC_WORD	3298020	wordpools/wasnorm_wordpool_576.txt	LTP346	ltpFR2	20	7	VIKING	1565	n/a	n/a	0	0	0
1614.2421875	n/a	REC_WORD	3305968	wordpools/wasnorm_wordpool_576.txt	LTP346	ltpFR2	20	7	EAGLE	512	n/a	n/a	0	0	0
1650.54638671875	n/a	WORD	3380319	wordpools/wasnorm_wordpool_576.txt	LTP346	ltpFR2	20	8	QUAIL	1147	n/a	n/a	0	0	0
1653.12841796875	n/a	WORD	3385607	wordpools/wasnorm_wordpool_576.txt	LTP346	ltpFR2	20	8	NIGHTGOWN	953	n/a	n/a	0	0	0
1655.71044921875	n/a	WORD	3390895	wordpools/wasnorm_wordpool_576.txt	LTP346	ltpFR2	20	8	GAVEL	627	n/a	n/a	0	0	0
1658.50927734375	n/a	WORD	3396627	wordpools/wasnorm_wordpool_576.txt	LTP346	ltpFR2	20	8	LAGOON	795	n/a	n/a	0	0	0
1661.02490234375	n/a	WORD	3401779	wordpools/wasnorm_wordpool_576.txt	LTP346	ltpFR2	20	8	COCKTAIL	338	n/a	n/a	0	0	0
1663.47314453125	n/a	WORD	3406793	wordpools/wasnorm_wordpool_576.txt	LTP346	ltpFR2	20	8	CAFE	216	n/a	n/a	0	0	0
1665.98876953125	n/a	WORD	3411945	wordpools/wasnorm_wordpool_576.txt	LTP346	ltpFR2	20	8	PLUTO	1092	n/a	n/a	0	0	0
1668.5537109375	n/a	WORD	3417198	wordpools/wasnorm_wordpool_576.txt	LTP346	ltpFR2	20	8	CASKET	255	n/a	n/a	0	0	0
1671.32080078125	n/a	WORD	3422865	wordpools/wasnorm_wordpool_576.txt	LTP346	ltpFR2	20	8	DRILL	497	n/a	n/a	0	0	0
1674.0849609375	n/a	WORD	3428526	wordpools/wasnorm_wordpool_576.txt	LTP346	ltpFR2	20	8	SMOG	1330	n/a	n/a	0	0	0
1676.6337890625	n/a	WORD	3433746	wordpools/wasnorm_wordpool_576.txt	LTP346	ltpFR2	20	8	SALMON	1227	n/a	n/a	0	0	0
1679.099609375	n/a	WORD	3438796	wordpools/wasnorm_wordpool_576.txt	LTP346	ltpFR2	20	8	HEDGE	699	n/a	n/a	0	0	0
1681.69775390625	n/a	WORD	3444117	wordpools/wasnorm_wordpool_576.txt	LTP346	ltpFR2	20	8	GLOVE	642	n/a	n/a	0	0	0
1684.1806640625	n/a	WORD	3449202	wordpools/wasnorm_wordpool_576.txt	LTP346	ltpFR2	20	8	FINGER	567	n/a	n/a	0	0	0
1686.9453125	n/a	WORD	3454864	wordpools/wasnorm_wordpool_576.txt	LTP346	ltpFR2	20	8	FIREMAN	569	n/a	n/a	0	0	0
1689.744140625	n/a	WORD	3460596	wordpools/wasnorm_wordpool_576.txt	LTP346	ltpFR2	20	8	TRANSPLANT	1496	n/a	n/a	0	0	0
1692.27734375	n/a	WORD	3465784	wordpools/wasnorm_wordpool_576.txt	LTP346	ltpFR2	20	8	POCKET	1093	n/a	n/a	0	0	0
1695.0751953125	n/a	WORD	3471514	wordpools/wasnorm_wordpool_576.txt	LTP346	ltpFR2	20	8	HANDBAG	684	n/a	n/a	0	0	0
1697.57421875	n/a	WORD	3476632	wordpools/wasnorm_wordpool_576.txt	LTP346	ltpFR2	20	8	VENUS	1557	n/a	n/a	0	0	0
1700.072265625	n/a	WORD	3481748	wordpools/wasnorm_wordpool_576.txt	LTP346	ltpFR2	20	8	CYCLONE	431	n/a	n/a	0	0	0
1702.72119140625	n/a	WORD	3487173	wordpools/wasnorm_wordpool_576.txt	LTP346	ltpFR2	20	8	TUBA	1515	n/a	n/a	0	0	0
1705.43701171875	n/a	WORD	3492735	wordpools/wasnorm_wordpool_576.txt	LTP346	ltpFR2	20	8	WHISTLE	1606	n/a	n/a	0	0	0
1708.21875	n/a	WORD	3498432	wordpools/wasnorm_wordpool_576.txt	LTP346	ltpFR2	20	8	FLASK	576	n/a	n/a	0	0	0
1710.8837890625	n/a	WORD	3503890	wordpools/wasnorm_wordpool_576.txt	LTP346	ltpFR2	20	8	FRAME	600	n/a	n/a	0	0	0
1712.49951171875	n/a	START	3507199	n/a	LTP346	ltpFR2	20	n/a	n/a	n/a	12	n/a	n/a	n/a	n/a
1713.49853515625	n/a	DISTRACTOR	3509245	n/a	LTP346	ltpFR2	20	8	n/a	n/a	n/a	n/a	0	0	0
1713.515625	n/a	PROB	3509280	n/a	LTP346	ltpFR2	20	n/a	n/a	n/a	12	10	3	1	6
1714.94873046875	n/a	PROB	3512215	n/a	LTP346	ltpFR2	20	n/a	n/a	n/a	12	14	1	7	6
1716.24853515625	n/a	PROB	3514877	n/a	LTP346	ltpFR2	20	n/a	n/a	n/a	12	15	5	7	3
1718.3974609375	n/a	PROB	3519278	n/a	LTP346	ltpFR2	20	n/a	n/a	n/a	12	7	3	3	1
1719.8466796875	n/a	PROB	3522246	n/a	LTP346	ltpFR2	20	n/a	n/a	n/a	12	10	4	4	2
1721.21240234375	n/a	PROB	3525043	n/a	LTP346	ltpFR2	20	n/a	n/a	n/a	12	8	2	4	2
1722.57861328125	n/a	PROB	3527841	n/a	LTP346	ltpFR2	20	n/a	n/a	n/a	12	16	3	6	7
1723.89453125	n/a	PROB	3530536	n/a	LTP346	ltpFR2	20	n/a	n/a	n/a	12	18	6	6	6
1725.01025390625	n/a	PROB	3532821	n/a	LTP346	ltpFR2	20	n/a	n/a	n/a	12	21	5	8	8
1726.42626953125	n/a	PROB	3535721	n/a	LTP346	ltpFR2	20	n/a	n/a	n/a	12	16	6	8	2
1727.75927734375	n/a	PROB	3538451	n/a	LTP346	ltpFR2	20	n/a	n/a	n/a	12	13	5	3	5
1728.92529296875	n/a	PROB	3540839	n/a	LTP346	ltpFR2	20	n/a	n/a	n/a	12	10	4	3	3
1730.30908203125	n/a	PROB	3543673	n/a	LTP346	ltpFR2	20	n/a	n/a	n/a	12	15	9	2	4
1731.740234375	n/a	PROB	3546604	n/a	LTP346	ltpFR2	20	n/a	n/a	n/a	12	20	5	6	9
1733.77294921875	n/a	PROB	3550767	n/a	LTP346	ltpFR2	20	n/a	n/a	n/a	12	16	2	9	5
1735.97705078125	n/a	STOP	3555281	n/a	LTP346	ltpFR2	20	n/a	n/a	n/a	12	n/a	n/a	n/a	n/a
1738.2890625	n/a	REC_START	3560016	n/a	LTP346	ltpFR2	20	8	n/a	n/a	n/a	n/a	0	0	0
1738.47705078125	n/a	REC_WORD	3560401	wordpools/wasnorm_wordpool_576.txt	LTP346	ltpFR2	20	8	FLASK	576	n/a	n/a	0	0	0
1739.17822265625	n/a	REC_WORD	3561837	wordpools/wasnorm_wordpool_576.txt	LTP346	ltpFR2	20	8	FRAME	600	n/a	n/a	0	0	0
1740.05517578125	n/a	REC_WORD	3563633	wordpools/wasnorm_wordpool_576.txt	LTP346	ltpFR2	20	8	SMOG	1330	n/a	n/a	0	0	0
1740.708984375	n/a	REC_WORD	3564972	wordpools/wasnorm_wordpool_576.txt	LTP346	ltpFR2	20	8	WHISTLE	1606	n/a	n/a	0	0	0
1763.87841796875	n/a	REC_WORD	3612423	wordpools/wasnorm_wordpool_576.txt	LTP346	ltpFR2	20	8	VENUS	1557	n/a	n/a	0	0	0
1764.55126953125	n/a	REC_WORD	3613801	wordpools/wasnorm_wordpool_576.txt	LTP346	ltpFR2	20	8	PLUTO	1092	n/a	n/a	0	0	0
1767.22119140625	n/a	REC_WORD	3619269	wordpools/wasnorm_wordpool_576.txt	LTP346	ltpFR2	20	8	CASKET	255	n/a	n/a	0	0	0
1768.3232421875	n/a	REC_WORD	3621526	wordpools/wasnorm_wordpool_576.txt	LTP346	ltpFR2	20	8	DRILL	497	n/a	n/a	0	0	0
1771.88134765625	n/a	REC_WORD	3628813	wordpools/wasnorm_wordpool_576.txt	LTP346	ltpFR2	20	8	SMOG	1330	n/a	n/a	0	0	0
1772.7099609375	n/a	REC_WORD	3630510	wordpools/wasnorm_wordpool_576.txt	LTP346	ltpFR2	20	8	SALMON	1227	n/a	n/a	0	0	0
1778.0869140625	n/a	REC_WORD	3641522	wordpools/wasnorm_wordpool_576.txt	LTP346	ltpFR2	20	8	CYCLONE	431	n/a	n/a	0	0	0
1808.794921875	n/a	REC_WORD	3704412	wordpools/wasnorm_wordpool_576.txt	LTP346	ltpFR2	20	8	HEDGE	699	n/a	n/a	0	0	0
1810.283203125	n/a	REC_WORD	3707460	wordpools/wasnorm_wordpool_576.txt	LTP346	ltpFR2	20	8	FIREMAN	569	n/a	n/a	0	0	0
1810.89892578125	n/a	REC_WORD	3708721	wordpools/wasnorm_wordpool_576.txt	LTP346	ltpFR2	20	8	GLOVE	642	n/a	n/a	0	0	0
1811.44189453125	n/a	REC_WORD	3709833	wordpools/wasnorm_wordpool_576.txt	LTP346	ltpFR2	20	8	FINGER	567	n/a	n/a	0	0	0
1811.98193359375	n/a	REC_WORD	3710939	wordpools/wasnorm_wordpool_576.txt	LTP346	ltpFR2	20	8	TRANSPLANT	1496	n/a	n/a	0	0	0
1812.791015625	n/a	REC_WORD	3712596	wordpools/wasnorm_wordpool_576.txt	LTP346	ltpFR2	20	8	POCKET	1093	n/a	n/a	0	0	0
1814.81689453125	n/a	REST_REWET	3716745	n/a	LTP346	ltpFR2	20	8	n/a	n/a	n/a	n/a	0	0	0
1939.54052734375	n/a	DISTRACTOR	3972179	n/a	LTP346	ltpFR2	20	9	n/a	n/a	n/a	n/a	0	0	0
1939.54052734375	n/a	START	3972179	n/a	LTP346	ltpFR2	20	n/a	n/a	n/a	13	n/a	n/a	n/a	n/a
1939.5576171875	n/a	PROB	3972214	n/a	LTP346	ltpFR2	20	n/a	n/a	n/a	13	16	2	9	5
1942.73974609375	n/a	PROB	3978731	n/a	LTP346	ltpFR2	20	n/a	n/a	n/a	13	21	7	8	6
1944.32275390625	n/a	PROB	3981973	n/a	LTP346	ltpFR2	20	n/a	n/a	n/a	13	10	1	4	5
1945.404296875	n/a	PROB	3984188	n/a	LTP346	ltpFR2	20	n/a	n/a	n/a	13	15	1	5	9
1946.92041015625	n/a	PROB	3987293	n/a	LTP346	ltpFR2	20	n/a	n/a	n/a	13	10	1	6	3
1948.1865234375	n/a	PROB	3989886	n/a	LTP346	ltpFR2	20	n/a	n/a	n/a	13	21	4	8	9
1950.7353515625	n/a	PROB	3995106	n/a	LTP346	ltpFR2	20	n/a	n/a	n/a	13	9	3	2	4
1952.43408203125	n/a	PROB	3998585	n/a	LTP346	ltpFR2	20	n/a	n/a	n/a	13	11	1	1	9
1953.68408203125	n/a	PROB	4001145	n/a	LTP346	ltpFR2	20	n/a	n/a	n/a	13	15	5	4	6
1955.88330078125	n/a	PROB	4005649	n/a	LTP346	ltpFR2	20	n/a	n/a	n/a	13	15	4	3	8
1957.9150390625	n/a	PROB	4009810	n/a	LTP346	ltpFR2	20	n/a	n/a	n/a	13	16	3	6	7
1963.5390625	n/a	STOP	4021328	n/a	LTP346	ltpFR2	20	n/a	n/a	n/a	13	n/a	n/a	n/a	n/a
1964.4951171875	n/a	WORD	4023286	wordpools/wasnorm_wordpool_576.txt	LTP346	ltpFR2	20	9	CRIB	407	n/a	n/a	0	0	0
1967.09375	n/a	WORD	4028608	wordpools/wasnorm_wordpool_576.txt	LTP346	ltpFR2	20	9	BABY	64	n/a	n/a	0	0	0
1969.81005859375	n/a	WORD	4034171	wordpools/wasnorm_wordpool_576.txt	LTP346	ltpFR2	20	9	STUDENT	1395	n/a	n/a	0	0	0
1972.44189453125	n/a	WORD	4039561	wordpools/wasnorm_wordpool_576.txt	LTP346	ltpFR2	20	9	FOREHEAD	592	n/a	n/a	0	0	0
1974.9736328125	n/a	WORD	4044746	wordpools/wasnorm_wordpool_576.txt	LTP346	ltpFR2	20	9	WAITRESS	1581	n/a	n/a	0	0	0
1977.72265625	n/a	WORD	4050376	wordpools/wasnorm_wordpool_576.txt	LTP346	ltpFR2	20	9	VALLEY	1545	n/a	n/a	0	0	0
1980.2724609375	n/a	WORD	4055598	wordpools/wasnorm_wordpool_576.txt	LTP346	ltpFR2	20	9	NOTEBOOK	959	n/a	n/a	0	0	0
1982.83642578125	n/a	WORD	4060849	wordpools/wasnorm_wordpool_576.txt	LTP346	ltpFR2	20	9	FREEZER	604	n/a	n/a	0	0	0
1985.6513671875	n/a	WORD	4066614	wordpools/wasnorm_wordpool_576.txt	LTP346	ltpFR2	20	9	FRECKLE	602	n/a	n/a	0	0	0
1988.2001953125	n/a	WORD	4071834	wordpools/wasnorm_wordpool_576.txt	LTP346	ltpFR2	20	9	NOVEL	960	n/a	n/a	0	0	0
1990.63330078125	n/a	WORD	4076817	wordpools/wasnorm_wordpool_576.txt	LTP346	ltpFR2	20	9	PASSAGE	1019	n/a	n/a	0	0	0
1993.115234375	n/a	WORD	4081900	wordpools/wasnorm_wordpool_576.txt	LTP346	ltpFR2	20	9	OUTDOORS	987	n/a	n/a	0	0	0
1995.580078125	n/a	WORD	4086948	wordpools/wasnorm_wordpool_576.txt	LTP346	ltpFR2	20	9	GLASS	639	n/a	n/a	0	0	0
1998.029296875	n/a	WORD	4091964	wordpools/wasnorm_wordpool_576.txt	LTP346	ltpFR2	20	9	PLAYGROUND	1087	n/a	n/a	0	0	0
2000.7939453125	n/a	WORD	4097626	wordpools/wasnorm_wordpool_576.txt	LTP346	ltpFR2	20	9	GRAVEL	659	n/a	n/a	0	0	0
2003.244140625	n/a	WORD	4102644	wordpools/wasnorm_wordpool_576.txt	LTP346	ltpFR2	20	9	BRANDY	169	n/a	n/a	0	0	0
2005.69189453125	n/a	WORD	4107657	wordpools/wasnorm_wordpool_576.txt	LTP346	ltpFR2	20	9	GHETTO	633	n/a	n/a	0	0	0
2008.27490234375	n/a	WORD	4112947	wordpools/wasnorm_wordpool_576.txt	LTP346	ltpFR2	20	9	SHELTER	1282	n/a	n/a	0	0	0
2010.85693359375	n/a	WORD	4118235	wordpools/wasnorm_wordpool_576.txt	LTP346	ltpFR2	20	9	KLEENEX	782	n/a	n/a	0	0	0
2013.45458984375	n/a	WORD	4123555	wordpools/wasnorm_wordpool_576.txt	LTP346	ltpFR2	20	9	CASHIER	254	n/a	n/a	0	0	0
2016.03759765625	n/a	WORD	4128845	wordpools/wasnorm_wordpool_576.txt	LTP346	ltpFR2	20	9	GIRL	637	n/a	n/a	0	0	0
2018.50244140625	n/a	WORD	4133893	wordpools/wasnorm_wordpool_576.txt	LTP346	ltpFR2	20	9	POLICE	1098	n/a	n/a	0	0	0
2021.1015625	n/a	WORD	4139216	wordpools/wasnorm_wordpool_576.txt	LTP346	ltpFR2	20	9	SUITCASE	1403	n/a	n/a	0	0	0
2023.68359375	n/a	WORD	4144504	wordpools/wasnorm_wordpool_576.txt	LTP346	ltpFR2	20	9	LOVER	846	n/a	n/a	0	0	0
2025.30029296875	n/a	START	4147815	n/a	LTP346	ltpFR2	20	n/a	n/a	n/a	14	n/a	n/a	n/a	n/a
2026.33544921875	n/a	DISTRACTOR	4149935	n/a	LTP346	ltpFR2	20	9	n/a	n/a	n/a	n/a	0	0	0
2026.3505859375	n/a	PROB	4149966	n/a	LTP346	ltpFR2	20	n/a	n/a	n/a	14	17	7	8	2
2028.1982421875	n/a	PROB	4153750	n/a	LTP346	ltpFR2	20	n/a	n/a	n/a	14	12	2	9	1
2029.34814453125	n/a	PROB	4156105	n/a	LTP346	ltpFR2	20	n/a	n/a	n/a	14	21	7	9	4
2030.81298828125	n/a	PROB	4159105	n/a	LTP346	ltpFR2	20	n/a	n/a	n/a	14	19	8	6	5
2033.06201171875	n/a	PROB	4163711	n/a	LTP346	ltpFR2	20	n/a	n/a	n/a	14	14	8	1	5
2034.92822265625	n/a	PROB	4167533	n/a	LTP346	ltpFR2	20	n/a	n/a	n/a	14	13	2	4	7
2036.61083984375	n/a	PROB	4170979	n/a	LTP346	ltpFR2	20	n/a	n/a	n/a	14	11	6	2	3
2038.54296875	n/a	PROB	4174936	n/a	LTP346	ltpFR2	20	n/a	n/a	n/a	14	10	1	2	7
2039.97607421875	n/a	PROB	4177871	n/a	LTP346	ltpFR2	20	n/a	n/a	n/a	14	20	5	9	6
2041.69189453125	n/a	PROB	4181385	n/a	LTP346	ltpFR2	20	n/a	n/a	n/a	14	16	1	7	8
2044.07373046875	n/a	PROB	4186263	n/a	LTP346	ltpFR2	20	n/a	n/a	n/a	14	20	9	4	7
2046.82275390625	n/a	PROB	4191893	n/a	LTP346	ltpFR2	20	n/a	n/a	n/a	14	12	4	7	1
2048.1298828125	n/a	STOP	4194570	n/a	LTP346	ltpFR2	20	n/a	n/a	n/a	14	n/a	n/a	n/a	n/a
2051.12060546875	n/a	REC_START	4200695	n/a	LTP346	ltpFR2	20	9	n/a	n/a	n/a	n/a	0	0	0
2051.513671875	n/a	REC_WORD	4201500	wordpools/wasnorm_wordpool_576.txt	LTP346	ltpFR2	20	9	GIRL	637	n/a	n/a	0	0	0
2051.923828125	n/a	REC_WORD	4202340	wordpools/wasnorm_wordpool_576.txt	LTP346	ltpFR2	20	9	CASHIER	254	n/a	n/a	0	0	0
2052.66650390625	n/a	REC_WORD	4203861	wordpools/wasnorm_wordpool_576.txt	LTP346	ltpFR2	20	9	LOVER	846	n/a	n/a	0	0	0
2053.1728515625	n/a	REC_WORD	4204898	wordpools/wasnorm_wordpool_576.txt	LTP346	ltpFR2	20	9	POLICE	1098	n/a	n/a	0	0	0
2053.6923828125	n/a	REC_WORD	4205962	wordpools/wasnorm_wordpool_576.txt	LTP346	ltpFR2	20	9	SUITCASE	1403	n/a	n/a	0	0	0
2055.07861328125	n/a	REC_WORD	4208801	wordpools/wasnorm_wordpool_576.txt	LTP346	ltpFR2	20	9	BABY	64	n/a	n/a	0	0	0
2055.525390625	n/a	REC_WORD	4209716	wordpools/wasnorm_wordpool_576.txt	LTP346	ltpFR2	20	9	CRIB	407	n/a	n/a	0	0	0
2057.53662109375	n/a	REC_WORD	4213835	wordpools/wasnorm_wordpool_576.txt	LTP346	ltpFR2	20	9	STUDENT	1395	n/a	n/a	0	0	0
2062.05517578125	n/a	REC_WORD	4223089	wordpools/wasnorm_wordpool_576.txt	LTP346	ltpFR2	20	9	OUTDOORS	987	n/a	n/a	0	0	0
2062.8544921875	n/a	REC_WORD	4224726	wordpools/wasnorm_wordpool_576.txt	LTP346	ltpFR2	20	9	PLAYGROUND	1087	n/a	n/a	0	0	0
2066.46337890625	n/a	REC_WORD	4232117	wordpools/wasnorm_wordpool_576.txt	LTP346	ltpFR2	20	9	WAITRESS	1581	n/a	n/a	0	0	0
2070.958984375	n/a	REC_WORD	4241324	wordpools/wasnorm_wordpool_576.txt	LTP346	ltpFR2	20	9	FRECKLE	602	n/a	n/a	0	0	0
2074.42822265625	n/a	REC_WORD	4248429	wordpools/wasnorm_wordpool_576.txt	LTP346	ltpFR2	20	9	GLASS	639	n/a	n/a	0	0	0
2075.66796875	n/a	REC_WORD	4250968	wordpools/wasnorm_wordpool_576.txt	LTP346	ltpFR2	20	9	GRAVEL	659	n/a	n/a	0	0	0
2081.9619140625	n/a	REC_WORD	4263858	wordpools/wasnorm_wordpool_576.txt	LTP346	ltpFR2	20	9	GHETTO	633	n/a	n/a	0	0	0
2103.80126953125	n/a	REC_WORD	4308585	wordpools/wasnorm_wordpool_576.txt	LTP346	ltpFR2	20	9	BRANDY	169	n/a	n/a	0	0	0
2105.55029296875	n/a	REC_WORD	4312167	wordpools/wasnorm_wordpool_576.txt	LTP346	ltpFR2	20	9	KLEENEX	782	n/a	n/a	0	0	0
2248.9755859375	n/a	DISTRACTOR	4605902	n/a	LTP346	ltpFR2	20	10	n/a	n/a	n/a	n/a	0	0	0
2248.9755859375	n/a	START	4605902	n/a	LTP346	ltpFR2	20	n/a	n/a	n/a	15	n/a	n/a	n/a	n/a
2248.9921875	n/a	PROB	4605936	n/a	LTP346	ltpFR2	20	n/a	n/a	n/a	15	10	3	1	6
2250.67431640625	n/a	PROB	4609381	n/a	LTP346	ltpFR2	20	n/a	n/a	n/a	15	11	6	3	2
2252.42333984375	n/a	PROB	4612963	n/a	LTP346	ltpFR2	20	n/a	n/a	n/a	15	8	1	6	1
2254.13916015625	n/a	PROB	4616477	n/a	LTP346	ltpFR2	20	n/a	n/a	n/a	15	20	7	8	5
2256.93798828125	n/a	PROB	4622209	n/a	LTP346	ltpFR2	20	n/a	n/a	n/a	15	13	2	9	2
2258.88720703125	n/a	PROB	4626201	n/a	LTP346	ltpFR2	20	n/a	n/a	n/a	15	10	3	2	5
2261.48583984375	n/a	PROB	4631523	n/a	LTP346	ltpFR2	20	n/a	n/a	n/a	15	12	6	3	3
2262.751953125	n/a	PROB	4634116	n/a	LTP346	ltpFR2	20	n/a	n/a	n/a	15	15	1	8	6
2264.68408203125	n/a	PROB	4638073	n/a	LTP346	ltpFR2	20	n/a	n/a	n/a	15	18	2	7	9
2266.8828125	n/a	PROB	4642576	n/a	LTP346	ltpFR2	20	n/a	n/a	n/a	15	10	1	5	4
2268.19970703125	n/a	PROB	4645273	n/a	LTP346	ltpFR2	20	n/a	n/a	n/a	15	10	2	1	7
2269.94873046875	n/a	PROB	4648855	n/a	LTP346	ltpFR2	20	n/a	n/a	n/a	15	20	5	6	9
2271.6826171875	n/a	STOP	4652406	n/a	LTP346	ltpFR2	20	n/a	n/a	n/a	15	n/a	n/a	n/a	n/a
2273.86376953125	n/a	WORD	4656873	wordpools/wasnorm_wordpool_576.txt	LTP346	ltpFR2	20	10	FRIEND	606	n/a	n/a	0	0	0
2276.595703125	n/a	WORD	4662468	wordpools/wasnorm_wordpool_576.txt	LTP346	ltpFR2	20	10	VELVET	1555	n/a	n/a	0	0	0
2279.41064453125	n/a	WORD	4668233	wordpools/wasnorm_wordpool_576.txt	LTP346	ltpFR2	20	10	DOUGHNUT	490	n/a	n/a	0	0	0
2282.12646484375	n/a	WORD	4673795	wordpools/wasnorm_wordpool_576.txt	LTP346	ltpFR2	20	10	BLUEPRINT	142	n/a	n/a	0	0	0
2284.6416015625	n/a	WORD	4678946	wordpools/wasnorm_wordpool_576.txt	LTP346	ltpFR2	20	10	COTTAGE	384	n/a	n/a	0	0	0
2287.40625	n/a	WORD	4684608	wordpools/wasnorm_wordpool_576.txt	LTP346	ltpFR2	20	10	LONDON	843	n/a	n/a	0	0	0
2289.92236328125	n/a	WORD	4689761	wordpools/wasnorm_wordpool_576.txt	LTP346	ltpFR2	20	10	LAPEL	800	n/a	n/a	0	0	0
2292.58740234375	n/a	WORD	4695219	wordpools/wasnorm_wordpool_576.txt	LTP346	ltpFR2	20	10	CIGAR	308	n/a	n/a	0	0	0
2295.22119140625	n/a	WORD	4700613	wordpools/wasnorm_wordpool_576.txt	LTP346	ltpFR2	20	10	OINTMENT	974	n/a	n/a	0	0	0
2297.88525390625	n/a	WORD	4706069	wordpools/wasnorm_wordpool_576.txt	LTP346	ltpFR2	20	10	TILE	1468	n/a	n/a	0	0	0
2300.31787109375	n/a	WORD	4711051	wordpools/wasnorm_wordpool_576.txt	LTP346	ltpFR2	20	10	PADDING	999	n/a	n/a	0	0	0
2303.1328125	n/a	WORD	4716816	wordpools/wasnorm_wordpool_576.txt	LTP346	ltpFR2	20	10	CLAMP	316	n/a	n/a	0	0	0
2305.6806640625	n/a	WORD	4722034	wordpools/wasnorm_wordpool_576.txt	LTP346	ltpFR2	20	10	ATOM	55	n/a	n/a	0	0	0
2308.2646484375	n/a	WORD	4727326	wordpools/wasnorm_wordpool_576.txt	LTP346	ltpFR2	20	10	CAMEL	223	n/a	n/a	0	0	0
2310.87890625	n/a	WORD	4732680	wordpools/wasnorm_wordpool_576.txt	LTP346	ltpFR2	20	10	SPHINX	1349	n/a	n/a	0	0	0
2313.3115234375	n/a	WORD	4737662	wordpools/wasnorm_wordpool_576.txt	LTP346	ltpFR2	20	10	MUSTARD	935	n/a	n/a	0	0	0
2316.10986328125	n/a	WORD	4743393	wordpools/wasnorm_wordpool_576.txt	LTP346	ltpFR2	20	10	MACHINE	852	n/a	n/a	0	0	0
2318.65869140625	n/a	WORD	4748613	wordpools/wasnorm_wordpool_576.txt	LTP346	ltpFR2	20	10	ROBOT	1200	n/a	n/a	0	0	0
2321.1904296875	n/a	WORD	4753798	wordpools/wasnorm_wordpool_576.txt	LTP346	ltpFR2	20	10	BOYFRIEND	162	n/a	n/a	0	0	0
2323.72265625	n/a	WORD	4758984	wordpools/wasnorm_wordpool_576.txt	LTP346	ltpFR2	20	10	PATIENT	1024	n/a	n/a	0	0	0
2326.42138671875	n/a	WORD	4764511	wordpools/wasnorm_wordpool_576.txt	LTP346	ltpFR2	20	10	CHEMIST	292	n/a	n/a	0	0	0
2329.22119140625	n/a	WORD	4770245	wordpools/wasnorm_wordpool_576.txt	LTP346	ltpFR2	20	10	TWISTER	1530	n/a	n/a	0	0	0
2332.01806640625	n/a	WORD	4775973	wordpools/wasnorm_wordpool_576.txt	LTP346	ltpFR2	20	10	GRILL	661	n/a	n/a	0	0	0
2334.63427734375	n/a	WORD	4781331	wordpools/wasnorm_wordpool_576.txt	LTP346	ltpFR2	20	10	EXPERT	543	n/a	n/a	0	0	0
2336.2509765625	n/a	START	4784642	n/a	LTP346	ltpFR2	20	n/a	n/a	n/a	16	n/a	n/a	n/a	n/a
2337.1220703125	n/a	DISTRACTOR	4786426	n/a	LTP346	ltpFR2	20	10	n/a	n/a	n/a	n/a	0	0	0
2337.13330078125	n/a	PROB	4786449	n/a	LTP346	ltpFR2	20	n/a	n/a	n/a	16	22	8	9	5
2339.23291015625	n/a	PROB	4790749	n/a	LTP346	ltpFR2	20	n/a	n/a	n/a	16	16	5	7	4
2342.06396484375	n/a	PROB	4796547	n/a	LTP346	ltpFR2	20	n/a	n/a	n/a	16	19	7	4	8
2343.5966796875	n/a	PROB	4799686	n/a	LTP346	ltpFR2	20	n/a	n/a	n/a	16	11	6	2	3
2346.11181640625	n/a	PROB	4804837	n/a	LTP346	ltpFR2	20	n/a	n/a	n/a	16	21	8	5	8
2348.52783203125	n/a	PROB	4809785	n/a	LTP346	ltpFR2	20	n/a	n/a	n/a	16	13	5	4	4
2351.40966796875	n/a	PROB	4815687	n/a	LTP346	ltpFR2	20	n/a	n/a	n/a	16	19	8	8	3
2353.091796875	n/a	PROB	4819132	n/a	LTP346	ltpFR2	20	n/a	n/a	n/a	16	8	1	6	1
2354.357421875	n/a	PROB	4821724	n/a	LTP346	ltpFR2	20	n/a	n/a	n/a	16	14	5	8	1
2355.74072265625	n/a	PROB	4824557	n/a	LTP346	ltpFR2	20	n/a	n/a	n/a	16	19	8	4	7
2357.2744140625	n/a	PROB	4827698	n/a	LTP346	ltpFR2	20	n/a	n/a	n/a	16	7	1	4	2
2358.8984375	n/a	STOP	4831024	n/a	LTP346	ltpFR2	20	n/a	n/a	n/a	16	n/a	n/a	n/a	n/a
2362.0712890625	n/a	REC_START	4837522	n/a	LTP346	ltpFR2	20	10	n/a	n/a	n/a	n/a	0	0	0
2362.63916015625	n/a	REC_WORD	4838685	wordpools/wasnorm_wordpool_576.txt	LTP346	ltpFR2	20	10	GRILL	661	n/a	n/a	0	0	0
2363.25048828125	n/a	REC_WORD	4839937	wordpools/wasnorm_wordpool_576.txt	LTP346	ltpFR2	20	10	EXPERT	543	n/a	n/a	0	0	0
2365.4482421875	n/a	REC_WORD	4844438	wordpools/wasnorm_wordpool_576.txt	LTP346	ltpFR2	20	10	FRIEND	606	n/a	n/a	0	0	0
2366.01953125	n/a	REC_WORD	4845608	wordpools/wasnorm_wordpool_576.txt	LTP346	ltpFR2	20	10	VELVET	1555	n/a	n/a	0	0	0
2369.248046875	n/a	REC_WORD	4852220	wordpools/wasnorm_wordpool_576.txt	LTP346	ltpFR2	20	10	DOUGHNUT	490	n/a	n/a	0	0	0
2371.81103515625	n/a	REC_WORD	4857469	wordpools/wasnorm_wordpool_576.txt	LTP346	ltpFR2	20	10	COTTAGE	384	n/a	n/a	0	0	0
2372.4443359375	n/a	REC_WORD	4858766	wordpools/wasnorm_wordpool_576.txt	LTP346	ltpFR2	20	10	BLUEPRINT	142	n/a	n/a	0	0	0
2373.89013671875	n/a	REC_WORD	4861727	wordpools/wasnorm_wordpool_576.txt	LTP346	ltpFR2	20	10	EUROPE	541	n/a	n/a	0	0	0
2376.56884765625	n/a	REC_WORD	4867213	wordpools/wasnorm_wordpool_576.txt	LTP346	ltpFR2	20	10	OINTMENT	974	n/a	n/a	0	0	0
2377.2421875	n/a	REC_WORD	4868592	wordpools/wasnorm_wordpool_576.txt	LTP346	ltpFR2	20	10	TILE	1468	n/a	n/a	0	0	0
2377.80419921875	n/a	REC_WORD	4869743	wordpools/wasnorm_wordpool_576.txt	LTP346	ltpFR2	20	10	PADDING	999	n/a	n/a	0	0	0
2380.26904296875	n/a	REC_WORD	4874791	wordpools/wasnorm_wordpool_576.txt	LTP346	ltpFR2	20	10	CLAMP	316	n/a	n/a	0	0	0
2380.78369140625	n/a	REC_WORD	4875845	wordpools/wasnorm_wordpool_576.txt	LTP346	ltpFR2	20	10	ATOM	55	n/a	n/a	0	0	0
2387.14892578125	n/a	REC_WORD	4888881	wordpools/wasnorm_wordpool_576.txt	LTP346	ltpFR2	20	10	BOYFRIEND	162	n/a	n/a	0	0	0
2387.9794921875	n/a	REC_WORD	4890582	wordpools/wasnorm_wordpool_576.txt	LTP346	ltpFR2	20	10	PATIENT	1024	n/a	n/a	0	0	0
2397.57958984375	n/a	REC_WORD	4910243	wordpools/wasnorm_wordpool_576.txt	LTP346	ltpFR2	20	10	CHEMIST	292	n/a	n/a	0	0	0
2400.49560546875	n/a	REC_WORD	4916215	wordpools/wasnorm_wordpool_576.txt	LTP346	ltpFR2	20	10	TWISTER	1530	n/a	n/a	0	0	0
2418.638671875	n/a	REC_WORD	4953372	wordpools/wasnorm_wordpool_576.txt	LTP346	ltpFR2	20	10	MUSTARD	935	n/a	n/a	0	0	0
2419.1787109375	n/a	REC_WORD	4954478	wordpools/wasnorm_wordpool_576.txt	LTP346	ltpFR2	20	10	MACHINE	852	n/a	n/a	0	0	0
2419.74267578125	n/a	REC_WORD	4955633	wordpools/wasnorm_wordpool_576.txt	LTP346	ltpFR2	20	10	ROBOT	1200	n/a	n/a	0	0	0
2452.52783203125	n/a	WORD	5022777	wordpools/wasnorm_wordpool_576.txt	LTP346	ltpFR2	20	11	COWBOY	395	n/a	n/a	0	0	0
2455.07568359375	n/a	WORD	5027995	wordpools/wasnorm_wordpool_576.txt	LTP346	ltpFR2	20	11	RIVER	1194	n/a	n/a	0	0	0
2457.875	n/a	WORD	5033728	wordpools/wasnorm_wordpool_576.txt	LTP346	ltpFR2	20	11	PUDDLE	1140	n/a	n/a	0	0	0
2460.57373046875	n/a	WORD	5039255	wordpools/wasnorm_wordpool_576.txt	LTP346	ltpFR2	20	11	EYELASH	546	n/a	n/a	0	0	0
2463.37255859375	n/a	WORD	5044987	wordpools/wasnorm_wordpool_576.txt	LTP346	ltpFR2	20	11	DAISY	435	n/a	n/a	0	0	0
2465.9375	n/a	WORD	5050240	wordpools/wasnorm_wordpool_576.txt	LTP346	ltpFR2	20	11	LAVA	804	n/a	n/a	0	0	0
2468.66943359375	n/a	WORD	5055835	wordpools/wasnorm_wordpool_576.txt	LTP346	ltpFR2	20	11	ISLAND	745	n/a	n/a	0	0	0
2471.3193359375	n/a	WORD	5061262	wordpools/wasnorm_wordpool_576.txt	LTP346	ltpFR2	20	11	SISTER	1312	n/a	n/a	0	0	0
2473.93359375	n/a	WORD	5066616	wordpools/wasnorm_wordpool_576.txt	LTP346	ltpFR2	20	11	SIBLING	1301	n/a	n/a	0	0	0
2476.482421875	n/a	WORD	5071836	wordpools/wasnorm_wordpool_576.txt	LTP346	ltpFR2	20	11	POPCORN	1104	n/a	n/a	0	0	0
2478.9140625	n/a	WORD	5076816	wordpools/wasnorm_wordpool_576.txt	LTP346	ltpFR2	20	11	APRON	35	n/a	n/a	0	0	0
2481.38037109375	n/a	WORD	5081867	wordpools/wasnorm_wordpool_576.txt	LTP346	ltpFR2	20	11	MEDAL	885	n/a	n/a	0	0	0
2483.8623046875	n/a	WORD	5086950	wordpools/wasnorm_wordpool_576.txt	LTP346	ltpFR2	20	11	SKILLET	1317	n/a	n/a	0	0	0
2486.6611328125	n/a	WORD	5092682	wordpools/wasnorm_wordpool_576.txt	LTP346	ltpFR2	20	11	JEANS	752	n/a	n/a	0	0	0
2489.22705078125	n/a	WORD	5097937	wordpools/wasnorm_wordpool_576.txt	LTP346	ltpFR2	20	11	BANJO	82	n/a	n/a	0	0	0
2491.72509765625	n/a	WORD	5103053	wordpools/wasnorm_wordpool_576.txt	LTP346	ltpFR2	20	11	POWDER	1117	n/a	n/a	0	0	0
2494.4736328125	n/a	WORD	5108682	wordpools/wasnorm_wordpool_576.txt	LTP346	ltpFR2	20	11	ZEBRA	1635	n/a	n/a	0	0	0
2496.95556640625	n/a	WORD	5113765	wordpools/wasnorm_wordpool_576.txt	LTP346	ltpFR2	20	11	VALVE	1546	n/a	n/a	0	0	0
2499.5048828125	n/a	WORD	5118986	wordpools/wasnorm_wordpool_576.txt	LTP346	ltpFR2	20	11	DRESS	495	n/a	n/a	0	0	0
2502.103515625	n/a	WORD	5124308	wordpools/wasnorm_wordpool_576.txt	LTP346	ltpFR2	20	11	NECKLACE	940	n/a	n/a	0	0	0
2504.58544921875	n/a	WORD	5129391	wordpools/wasnorm_wordpool_576.txt	LTP346	ltpFR2	20	11	BACKBONE	66	n/a	n/a	0	0	0
2507.1845703125	n/a	WORD	5134714	wordpools/wasnorm_wordpool_576.txt	LTP346	ltpFR2	20	11	COOK	372	n/a	n/a	0	0	0
2509.74951171875	n/a	WORD	5139967	wordpools/wasnorm_wordpool_576.txt	LTP346	ltpFR2	20	11	KITCHEN	778	n/a	n/a	0	0	0
2512.54833984375	n/a	WORD	5145699	wordpools/wasnorm_wordpool_576.txt	LTP346	ltpFR2	20	11	HATCHET	691	n/a	n/a	0	0	0
2514.16455078125	n/a	START	5149009	n/a	LTP346	ltpFR2	20	n/a	n/a	n/a	17	n/a	n/a	n/a	n/a
2515.0771484375	n/a	DISTRACTOR	5150878	n/a	LTP346	ltpFR2	20	11	n/a	n/a	n/a	n/a	0	0	0
2515.080078125	n/a	PROB	5150884	n/a	LTP346	ltpFR2	20	n/a	n/a	n/a	17	22	4	9	9
2517.1630859375	n/a	PROB	5155150	n/a	LTP346	ltpFR2	20	n/a	n/a	n/a	17	16	5	6	5
2518.2470703125	n/a	PROB	5157370	n/a	LTP346	ltpFR2	20	n/a	n/a	n/a	17	14	6	5	3
2519.87841796875	n/a	PROB	5160711	n/a	LTP346	ltpFR2	20	n/a	n/a	n/a	17	13	8	2	3
2521.06103515625	n/a	PROB	5163133	n/a	LTP346	ltpFR2	20	n/a	n/a	n/a	17	13	1	9	3
2522.494140625	n/a	PROB	5166068	n/a	LTP346	ltpFR2	20	n/a	n/a	n/a	17	13	9	1	3
2524.02587890625	n/a	PROB	5169205	n/a	LTP346	ltpFR2	20	n/a	n/a	n/a	17	14	5	3	6
2527.97509765625	n/a	PROB	5177293	n/a	LTP346	ltpFR2	20	n/a	n/a	n/a	17	5	2	1	2
2529.14111328125	n/a	PROB	5179681	n/a	LTP346	ltpFR2	20	n/a	n/a	n/a	17	11	3	7	1
2530.2578125	n/a	PROB	5181968	n/a	LTP346	ltpFR2	20	n/a	n/a	n/a	17	19	6	4	9
2532.005859375	n/a	PROB	5185548	n/a	LTP346	ltpFR2	20	n/a	n/a	n/a	17	10	4	2	4
2533.43896484375	n/a	PROB	5188483	n/a	LTP346	ltpFR2	20	n/a	n/a	n/a	17	25	8	8	9
2536.13671875	n/a	PROB	5194008	n/a	LTP346	ltpFR2	20	n/a	n/a	n/a	17	7	1	5	1
2538.01171875	n/a	STOP	5197848	n/a	LTP346	ltpFR2	20	n/a	n/a	n/a	17	n/a	n/a	n/a	n/a
2540.052734375	n/a	REC_START	5202028	n/a	LTP346	ltpFR2	20	11	n/a	n/a	n/a	n/a	0	0	0
2540.37060546875	n/a	REC_WORD	5202679	wordpools/wasnorm_wordpool_576.txt	LTP346	ltpFR2	20	11	COOK	372	n/a	n/a	0	0	0
2540.884765625	n/a	REC_WORD	5203732	wordpools/wasnorm_wordpool_576.txt	LTP346	ltpFR2	20	11	KITCHEN	778	n/a	n/a	0	0	0
2541.5224609375	n/a	REC_WORD	5205038	wordpools/wasnorm_wordpool_576.txt	LTP346	ltpFR2	20	11	BACKBONE	66	n/a	n/a	0	0	0
2542.228515625	n/a	REC_WORD	5206484	wordpools/wasnorm_wordpool_576.txt	LTP346	ltpFR2	20	11	VALVE	1546	n/a	n/a	0	0	0
2542.75244140625	n/a	REC_WORD	5207557	wordpools/wasnorm_wordpool_576.txt	LTP346	ltpFR2	20	11	DRESS	495	n/a	n/a	0	0	0
2544.29150390625	n/a	REC_WORD	5210709	wordpools/wasnorm_wordpool_576.txt	LTP346	ltpFR2	20	11	NECKLACE	940	n/a	n/a	0	0	0
2545.1103515625	n/a	REC_WORD	5212386	wordpools/wasnorm_wordpool_576.txt	LTP346	ltpFR2	20	11	POPCORN	1104	n/a	n/a	0	0	0
2549.8134765625	n/a	REC_WORD	5222018	wordpools/wasnorm_wordpool_576.txt	LTP346	ltpFR2	20	11	COWBOY	395	n/a	n/a	0	0	0
2551.2724609375	n/a	REC_WORD	5225006	wordpools/wasnorm_wordpool_576.txt	LTP346	ltpFR2	20	11	RIVER	1194	n/a	n/a	0	0	0
2552.64453125	n/a	REC_WORD	5227816	wordpools/wasnorm_wordpool_576.txt	LTP346	ltpFR2	20	11	PUDDLE	1140	n/a	n/a	0	0	0
2553.44140625	n/a	REC_WORD	5229448	wordpools/wasnorm_wordpool_576.txt	LTP346	ltpFR2	20	11	EYELASH	546	n/a	n/a	0	0	0
2554.21044921875	n/a	REC_WORD	5231023	wordpools/wasnorm_wordpool_576.txt	LTP346	ltpFR2	20	11	DAISY	435	n/a	n/a	0	0	0
2573.1259765625	n/a	REC_WORD	5269762	wordpools/wasnorm_wordpool_576.txt	LTP346	ltpFR2	20	11	SISTER	1312	n/a	n/a	0	0	0
2573.7578125	n/a	REC_WORD	5271056	wordpools/wasnorm_wordpool_576.txt	LTP346	ltpFR2	20	11	SIBLING	1301	n/a	n/a	0	0	0
2574.50390625	n/a	REC_WORD	5272584	wordpools/wasnorm_wordpool_576.txt	LTP346	ltpFR2	20	11	POPCORN	1104	n/a	n/a	0	0	0
2575.23583984375	n/a	REC_WORD	5274083	wordpools/wasnorm_wordpool_576.txt	LTP346	ltpFR2	20	11	APRON	35	n/a	n/a	0	0	0
2578.9296875	n/a	REC_WORD	5281648	wordpools/wasnorm_wordpool_576.txt	LTP346	ltpFR2	20	11	MEDAL	885	n/a	n/a	0	0	0
2579.48681640625	n/a	REC_WORD	5282789	wordpools/wasnorm_wordpool_576.txt	LTP346	ltpFR2	20	11	SKILLET	1317	n/a	n/a	0	0	0
2588.3173828125	n/a	REC_WORD	5300874	wordpools/wasnorm_wordpool_576.txt	LTP346	ltpFR2	20	11	ZEBRA	1635	n/a	n/a	0	0	0
2591.4462890625	n/a	REC_WORD	5307282	wordpools/wasnorm_wordpool_576.txt	LTP346	ltpFR2	20	11	POWDER	1117	n/a	n/a	0	0	0
2594.830078125	n/a	REC_WORD	5314212	wordpools/wasnorm_wordpool_576.txt	LTP346	ltpFR2	20	11	JEANS	752	n/a	n/a	0	0	0
2595.44140625	n/a	REC_WORD	5315464	wordpools/wasnorm_wordpool_576.txt	LTP346	ltpFR2	20	11	BANJO	82	n/a	n/a	0	0	0
2630.4921875	n/a	WORD	5387248	wordpools/wasnorm_wordpool_576.txt	LTP346	ltpFR2	20	12	MILK	895	n/a	n/a	0	0	0
2633.1572265625	n/a	WORD	5392706	wordpools/wasnorm_wordpool_576.txt	LTP346	ltpFR2	20	12	MEAT	883	n/a	n/a	0	0	0
2635.7392578125	n/a	WORD	5397994	wordpools/wasnorm_wordpool_576.txt	LTP346	ltpFR2	20	12	ATLAS	53	n/a	n/a	0	0	0
2638.38818359375	n/a	WORD	5403419	wordpools/wasnorm_wordpool_576.txt	LTP346	ltpFR2	20	12	GLOBE	641	n/a	n/a	0	0	0
2641.10400390625	n/a	WORD	5408981	wordpools/wasnorm_wordpool_576.txt	LTP346	ltpFR2	20	12	CLIMBER	323	n/a	n/a	0	0	0
2643.90185546875	n/a	WORD	5414711	wordpools/wasnorm_wordpool_576.txt	LTP346	ltpFR2	20	12	GALLON	618	n/a	n/a	0	0	0
2646.48388671875	n/a	WORD	5419999	wordpools/wasnorm_wordpool_576.txt	LTP346	ltpFR2	20	12	JELLO	754	n/a	n/a	0	0	0
2649.1328125	n/a	WORD	5425424	wordpools/wasnorm_wordpool_576.txt	LTP346	ltpFR2	20	12	SANDWICH	1232	n/a	n/a	0	0	0
2651.83154296875	n/a	WORD	5430951	wordpools/wasnorm_wordpool_576.txt	LTP346	ltpFR2	20	12	PERFUME	1049	n/a	n/a	0	0	0
2654.44775390625	n/a	WORD	5436309	wordpools/wasnorm_wordpool_576.txt	LTP346	ltpFR2	20	12	SAUSAGE	1238	n/a	n/a	0	0	0
2656.9453125	n/a	WORD	5441424	wordpools/wasnorm_wordpool_576.txt	LTP346	ltpFR2	20	12	OZONE	996	n/a	n/a	0	0	0
2659.64453125	n/a	WORD	5446952	wordpools/wasnorm_wordpool_576.txt	LTP346	ltpFR2	20	12	ICING	732	n/a	n/a	0	0	0
2662.3115234375	n/a	WORD	5452414	wordpools/wasnorm_wordpool_576.txt	LTP346	ltpFR2	20	12	CANAL	226	n/a	n/a	0	0	0
2664.92529296875	n/a	WORD	5457767	wordpools/wasnorm_wordpool_576.txt	LTP346	ltpFR2	20	12	STAKE	1368	n/a	n/a	0	0	0
2667.47412109375	n/a	WORD	5462987	wordpools/wasnorm_wordpool_576.txt	LTP346	ltpFR2	20	12	SUMMIT	1405	n/a	n/a	0	0	0
2670.240234375	n/a	WORD	5468652	wordpools/wasnorm_wordpool_576.txt	LTP346	ltpFR2	20	12	DRINK	498	n/a	n/a	0	0	0
2672.73828125	n/a	WORD	5473768	wordpools/wasnorm_wordpool_576.txt	LTP346	ltpFR2	20	12	BRANCH	168	n/a	n/a	0	0	0
2675.23828125	n/a	WORD	5478888	wordpools/wasnorm_wordpool_576.txt	LTP346	ltpFR2	20	12	CHAPEL	280	n/a	n/a	0	0	0
2677.802734375	n/a	WORD	5484140	wordpools/wasnorm_wordpool_576.txt	LTP346	ltpFR2	20	12	DINER	467	n/a	n/a	0	0	0
2680.41796875	n/a	WORD	5489496	wordpools/wasnorm_wordpool_576.txt	LTP346	ltpFR2	20	12	SNACK	1331	n/a	n/a	0	0	0
2683.099609375	n/a	WORD	5494988	wordpools/wasnorm_wordpool_576.txt	LTP346	ltpFR2	20	12	MARKET	871	n/a	n/a	0	0	0
2685.64892578125	n/a	WORD	5500209	wordpools/wasnorm_wordpool_576.txt	LTP346	ltpFR2	20	12	DANCER	437	n/a	n/a	0	0	0
2688.21484375	n/a	WORD	5505464	wordpools/wasnorm_wordpool_576.txt	LTP346	ltpFR2	20	12	STONE	1385	n/a	n/a	0	0	0
2690.69677734375	n/a	WORD	5510547	wordpools/wasnorm_wordpool_576.txt	LTP346	ltpFR2	20	12	KIDNEY	776	n/a	n/a	0	0	0
2692.3134765625	n/a	START	5513858	n/a	LTP346	ltpFR2	20	n/a	n/a	n/a	18	n/a	n/a	n/a	n/a
2693.24462890625	n/a	DISTRACTOR	5515765	n/a	LTP346	ltpFR2	20	12	n/a	n/a	n/a	n/a	0	0	0
2693.24658203125	n/a	PROB	5515769	n/a	LTP346	ltpFR2	20	n/a	n/a	n/a	18	17	7	8	2
2694.74462890625	n/a	PROB	5518837	n/a	LTP346	ltpFR2	20	n/a	n/a	n/a	18	18	4	9	5
2699.80859375	n/a	PROB	5529208	n/a	LTP346	ltpFR2	20	n/a	n/a	n/a	18	18	4	7	7
2706.34033203125	n/a	PROB	5542585	n/a	LTP346	ltpFR2	20	n/a	n/a	n/a	18	14	4	7	3
2707.58837890625	n/a	PROB	5545141	n/a	LTP346	ltpFR2	20	n/a	n/a	n/a	18	8	1	2	5
2709.18701171875	n/a	PROB	5548415	n/a	LTP346	ltpFR2	20	n/a	n/a	n/a	18	24	8	7	9
2710.5869140625	n/a	PROB	5551282	n/a	LTP346	ltpFR2	20	n/a	n/a	n/a	18	17	9	5	3
2714.76416015625	n/a	STOP	5559837	n/a	LTP346	ltpFR2	20	n/a	n/a	n/a	18	n/a	n/a	n/a	n/a
2718.18408203125	n/a	REC_START	5566841	n/a	LTP346	ltpFR2	20	12	n/a	n/a	n/a	n/a	0	0	0
2719.27587890625	n/a	REC_WORD	5569077	wordpools/wasnorm_wordpool_576.txt	LTP346	ltpFR2	20	12	DINER	467	n/a	n/a	0	0	0
2719.7587890625	n/a	REC_WORD	5570066	wordpools/wasnorm_wordpool_576.txt	LTP346	ltpFR2	20	12	SNACK	1331	n/a	n/a	0	0	0
2721.44677734375	n/a	REC_WORD	5573523	wordpools/wasnorm_wordpool_576.txt	LTP346	ltpFR2	20	12	MARKET	871	n/a	n/a	0	0	0
2722.20166015625	n/a	REC_WORD	5575069	wordpools/wasnorm_wordpool_576.txt	LTP346	ltpFR2	20	12	DANCER	437	n/a	n/a	0	0	0
2722.8857421875	n/a	REC_WORD	5576470	wordpools/wasnorm_wordpool_576.txt	LTP346	ltpFR2	20	12	KIDNEY	776	n/a	n/a	0	0	0
2724.2958984375	n/a	REC_WORD	5579358	wordpools/wasnorm_wordpool_576.txt	LTP346	ltpFR2	20	12	STONE	1385	n/a	n/a	0	0	0
2726.2275390625	n/a	REC_WORD	5583314	wordpools/wasnorm_wordpool_576.txt	LTP346	ltpFR2	20	12	MEAT	883	n/a	n/a	0	0	0
2727.5595703125	n/a	REC_WORD	5586042	wordpools/wasnorm_wordpool_576.txt	LTP346	ltpFR2	20	12	MILK	895	n/a	n/a	0	0	0
2735.8916015625	n/a	REC_WORD	5603106	wordpools/wasnorm_wordpool_576.txt	LTP346	ltpFR2	20	12	ATLAS	53	n/a	n/a	0	0	0
2736.59228515625	n/a	REC_WORD	5604541	wordpools/wasnorm_wordpool_576.txt	LTP346	ltpFR2	20	12	GLOBE	641	n/a	n/a	0	0	0
2739.21044921875	n/a	REC_WORD	5609903	wordpools/wasnorm_wordpool_576.txt	LTP346	ltpFR2	20	12	HIKER	708	n/a	n/a	0	0	0
2740.97314453125	n/a	REC_WORD	5613513	wordpools/wasnorm_wordpool_576.txt	LTP346	ltpFR2	20	12	GALLON	618	n/a	n/a	0	0	0
2741.51416015625	n/a	REC_WORD	5614621	wordpools/wasnorm_wordpool_576.txt	LTP346	ltpFR2	20	12	JELLO	754	n/a	n/a	0	0	0
2742.00048828125	n/a	REC_WORD	5615617	wordpools/wasnorm_wordpool_576.txt	LTP346	ltpFR2	20	12	SANDWICH	1232	n/a	n/a	0	0	0
2745.19140625	n/a	REC_WORD	5622152	wordpools/wasnorm_wordpool_576.txt	LTP346	ltpFR2	20	12	SAUSAGE	1238	n/a	n/a	0	0	0
2745.9951171875	n/a	REC_WORD	5623798	wordpools/wasnorm_wordpool_576.txt	LTP346	ltpFR2	20	12	STAKE	1368	n/a	n/a	0	0	0
2764.22265625	n/a	REC_WORD	5661128	wordpools/wasnorm_wordpool_576.txt	LTP346	ltpFR2	20	12	SUMMIT	1405	n/a	n/a	0	0	0
2765.32763671875	n/a	REC_WORD	5663391	wordpools/wasnorm_wordpool_576.txt	LTP346	ltpFR2	20	12	DRINK	498	n/a	n/a	0	0	0
2766.181640625	n/a	REC_WORD	5665140	wordpools/wasnorm_wordpool_576.txt	LTP346	ltpFR2	20	12	BRANCH	168	n/a	n/a	0	0	0
2869.81005859375	n/a	DISTRACTOR	5877371	n/a	LTP346	ltpFR2	20	13	n/a	n/a	n/a	n/a	0	0	0
2869.81103515625	n/a	START	5877373	n/a	LTP346	ltpFR2	20	n/a	n/a	n/a	19	n/a	n/a	n/a	n/a
2869.82666015625	n/a	PROB	5877405	n/a	LTP346	ltpFR2	20	n/a	n/a	n/a	19	16	5	2	9
2871.7255859375	n/a	PROB	5881294	n/a	LTP346	ltpFR2	20	n/a	n/a	n/a	19	15	5	1	9
2873.091796875	n/a	PROB	5884092	n/a	LTP346	ltpFR2	20	n/a	n/a	n/a	19	12	6	3	3
2874.29296875	n/a	PROB	5886552	n/a	LTP346	ltpFR2	20	n/a	n/a	n/a	19	12	2	7	3
2875.7578125	n/a	PROB	5889552	n/a	LTP346	ltpFR2	20	n/a	n/a	n/a	19	12	3	8	1
2878.45556640625	n/a	PROB	5895077	n/a	LTP346	ltpFR2	20	n/a	n/a	n/a	19	17	7	2	8
2879.95556640625	n/a	PROB	5898149	n/a	LTP346	ltpFR2	20	n/a	n/a	n/a	19	10	1	4	5
2881.17138671875	n/a	PROB	5900639	n/a	LTP346	ltpFR2	20	n/a	n/a	n/a	19	18	5	5	8
2882.404296875	n/a	PROB	5903164	n/a	LTP346	ltpFR2	20	n/a	n/a	n/a	19	17	5	6	6
2884.38623046875	n/a	PROB	5907223	n/a	LTP346	ltpFR2	20	n/a	n/a	n/a	19	13	3	8	2
2887.05126953125	n/a	PROB	5912681	n/a	LTP346	ltpFR2	20	n/a	n/a	n/a	19	21	3	9	9
2888.6015625	n/a	PROB	5915856	n/a	LTP346	ltpFR2	20	n/a	n/a	n/a	19	18	6	8	4
2889.91748046875	n/a	PROB	5918551	n/a	LTP346	ltpFR2	20	n/a	n/a	n/a	19	5	3	1	1
2890.88330078125	n/a	PROB	5920529	n/a	LTP346	ltpFR2	20	n/a	n/a	n/a	19	15	7	5	3
2891.96630859375	n/a	PROB	5922747	n/a	LTP346	ltpFR2	20	n/a	n/a	n/a	19	7	1	2	4
2893.13232421875	n/a	STOP	5925135	n/a	LTP346	ltpFR2	20	n/a	n/a	n/a	19	n/a	n/a	n/a	n/a
2894.76513671875	n/a	WORD	5928479	wordpools/wasnorm_wordpool_576.txt	LTP346	ltpFR2	20	13	BRICK	172	n/a	n/a	0	0	0
2897.546875	n/a	WORD	5934176	wordpools/wasnorm_wordpool_576.txt	LTP346	ltpFR2	20	13	ASIA	46	n/a	n/a	0	0	0
2900.330078125	n/a	WORD	5939876	wordpools/wasnorm_wordpool_576.txt	LTP346	ltpFR2	20	13	SPACE	1345	n/a	n/a	0	0	0
2903.06103515625	n/a	WORD	5945469	wordpools/wasnorm_wordpool_576.txt	LTP346	ltpFR2	20	13	IDOL	733	n/a	n/a	0	0	0
2905.72607421875	n/a	WORD	5950927	wordpools/wasnorm_wordpool_576.txt	LTP346	ltpFR2	20	13	LADDER	793	n/a	n/a	0	0	0
2908.3916015625	n/a	WORD	5956386	wordpools/wasnorm_wordpool_576.txt	LTP346	ltpFR2	20	13	SHORTS	1293	n/a	n/a	0	0	0
2911.04052734375	n/a	WORD	5961811	wordpools/wasnorm_wordpool_576.txt	LTP346	ltpFR2	20	13	MILDEW	893	n/a	n/a	0	0	0
2913.505859375	n/a	WORD	5966860	wordpools/wasnorm_wordpool_576.txt	LTP346	ltpFR2	20	13	PEBBLE	1035	n/a	n/a	0	0	0
2916.1044921875	n/a	WORD	5972182	wordpools/wasnorm_wordpool_576.txt	LTP346	ltpFR2	20	13	COSTUME	383	n/a	n/a	0	0	0
2918.63671875	n/a	WORD	5977368	wordpools/wasnorm_wordpool_576.txt	LTP346	ltpFR2	20	13	CHAMPAGNE	278	n/a	n/a	0	0	0
2921.26953125	n/a	WORD	5982760	wordpools/wasnorm_wordpool_576.txt	LTP346	ltpFR2	20	13	AIRPORT	13	n/a	n/a	0	0	0
2923.88427734375	n/a	WORD	5988115	wordpools/wasnorm_wordpool_576.txt	LTP346	ltpFR2	20	13	HARP	689	n/a	n/a	0	0	0
2926.69921875	n/a	WORD	5993880	wordpools/wasnorm_wordpool_576.txt	LTP346	ltpFR2	20	13	HUMAN	726	n/a	n/a	0	0	0
2929.1650390625	n/a	WORD	5998930	wordpools/wasnorm_wordpool_576.txt	LTP346	ltpFR2	20	13	NAPKIN	937	n/a	n/a	0	0	0
2931.88037109375	n/a	WORD	6004491	wordpools/wasnorm_wordpool_576.txt	LTP346	ltpFR2	20	13	PERCH	1048	n/a	n/a	0	0	0
2934.4619140625	n/a	WORD	6009778	wordpools/wasnorm_wordpool_576.txt	LTP346	ltpFR2	20	13	TABLET	1427	n/a	n/a	0	0	0
2936.9951171875	n/a	WORD	6014966	wordpools/wasnorm_wordpool_576.txt	LTP346	ltpFR2	20	13	HORSE	719	n/a	n/a	0	0	0
2939.79296875	n/a	WORD	6020696	wordpools/wasnorm_wordpool_576.txt	LTP346	ltpFR2	20	13	TROMBONE	1508	n/a	n/a	0	0	0
2942.57470703125	n/a	WORD	6026393	wordpools/wasnorm_wordpool_576.txt	LTP346	ltpFR2	20	13	KEEPER	769	n/a	n/a	0	0	0
2945.3408203125	n/a	WORD	6032058	wordpools/wasnorm_wordpool_576.txt	LTP346	ltpFR2	20	13	BANK	83	n/a	n/a	0	0	0
2947.90576171875	n/a	WORD	6037311	wordpools/wasnorm_wordpool_576.txt	LTP346	ltpFR2	20	13	SHIRT	1287	n/a	n/a	0	0	0
2950.5048828125	n/a	WORD	6042634	wordpools/wasnorm_wordpool_576.txt	LTP346	ltpFR2	20	13	ZIPPER	1636	n/a	n/a	0	0	0
2953.20458984375	n/a	WORD	6048163	wordpools/wasnorm_wordpool_576.txt	LTP346	ltpFR2	20	13	BUTCHER	203	n/a	n/a	0	0	0
2956.0185546875	n/a	WORD	6053926	wordpools/wasnorm_wordpool_576.txt	LTP346	ltpFR2	20	13	RAZOR	1171	n/a	n/a	0	0	0
2957.63427734375	n/a	START	6057235	n/a	LTP346	ltpFR2	20	n/a	n/a	n/a	20	n/a	n/a	n/a	n/a
2958.58154296875	n/a	DISTRACTOR	6059175	n/a	LTP346	ltpFR2	20	13	n/a	n/a	n/a	n/a	0	0	0
2958.58447265625	n/a	PROB	6059181	n/a	LTP346	ltpFR2	20	n/a	n/a	n/a	20	22	7	8	7
2961.56640625	n/a	PROB	6065288	n/a	LTP346	ltpFR2	20	n/a	n/a	n/a	20	20	7	8	5
2963.4482421875	n/a	PROB	6069142	n/a	LTP346	ltpFR2	20	n/a	n/a	n/a	20	17	9	3	5
2965.830078125	n/a	PROB	6074020	n/a	LTP346	ltpFR2	20	n/a	n/a	n/a	20	15	8	5	2
2967.6630859375	n/a	PROB	6077774	n/a	LTP346	ltpFR2	20	n/a	n/a	n/a	20	12	2	9	1
2970.09521484375	n/a	PROB	6082755	n/a	LTP346	ltpFR2	20	n/a	n/a	n/a	20	18	7	6	5
2972.9443359375	n/a	PROB	6088590	n/a	LTP346	ltpFR2	20	n/a	n/a	n/a	20	19	7	4	8
2981.6337890625	n/a	STOP	6106386	n/a	LTP346	ltpFR2	20	n/a	n/a	n/a	20	n/a	n/a	n/a	n/a
2983.505859375	n/a	REC_START	6110220	n/a	LTP346	ltpFR2	20	13	n/a	n/a	n/a	n/a	0	0	0
2986.4345703125	n/a	REC_WORD	6116218	wordpools/wasnorm_wordpool_576.txt	LTP346	ltpFR2	20	13	BOOK	149	n/a	n/a	0	0	0
2986.935546875	n/a	REC_WORD	6117244	wordpools/wasnorm_wordpool_576.txt	LTP346	ltpFR2	20	13	KEEPER	769	n/a	n/a	0	0	0
2987.8427734375	n/a	REC_WORD	6119102	wordpools/wasnorm_wordpool_576.txt	LTP346	ltpFR2	20	13	TROMBONE	1508	n/a	n/a	0	0	0
2989.29443359375	n/a	REC_WORD	6122075	wordpools/wasnorm_wordpool_576.txt	LTP346	ltpFR2	20	13	RAZOR	1171	n/a	n/a	0	0	0
2989.77783203125	n/a	REC_WORD	6123065	wordpools/wasnorm_wordpool_576.txt	LTP346	ltpFR2	20	13	ZIPPER	1636	n/a	n/a	0	0	0
2995.99365234375	n/a	REC_WORD	6135795	wordpools/wasnorm_wordpool_576.txt	LTP346	ltpFR2	20	13	BANK	83	n/a	n/a	0	0	0
2996.4814453125	n/a	REC_WORD	6136794	wordpools/wasnorm_wordpool_576.txt	LTP346	ltpFR2	20	13	BUTCHER	203	n/a	n/a	0	0	0
3000.33544921875	n/a	REC_WORD	6144687	wordpools/wasnorm_wordpool_576.txt	LTP346	ltpFR2	20	13	BRICK	172	n/a	n/a	0	0	0
3002.09716796875	n/a	REC_WORD	6148295	wordpools/wasnorm_wordpool_576.txt	LTP346	ltpFR2	20	13	ASIA	46	n/a	n/a	0	0	0
3016.6328125	n/a	REC_WORD	6178064	wordpools/wasnorm_wordpool_576.txt	LTP346	ltpFR2	20	13	IDOL	733	n/a	n/a	0	0	0
3017.501953125	n/a	REC_WORD	6179844	wordpools/wasnorm_wordpool_576.txt	LTP346	ltpFR2	20	13	LADDER	793	n/a	n/a	0	0	0
3018.22998046875	n/a	REC_WORD	6181335	wordpools/wasnorm_wordpool_576.txt	LTP346	ltpFR2	20	13	SHORTS	1293	n/a	n/a	0	0	0
3024.98876953125	n/a	REC_WORD	6195177	wordpools/wasnorm_wordpool_576.txt	LTP346	ltpFR2	20	13	PEBBLE	1035	n/a	n/a	0	0	0
3025.6015625	n/a	REC_WORD	6196432	wordpools/wasnorm_wordpool_576.txt	LTP346	ltpFR2	20	13	MILDEW	893	n/a	n/a	0	0	0
3028.982421875	n/a	REC_WORD	6203356	wordpools/wasnorm_wordpool_576.txt	LTP346	ltpFR2	20	13	CHAMPAGNE	278	n/a	n/a	0	0	0
3031.78955078125	n/a	REC_WORD	6209105	wordpools/wasnorm_wordpool_576.txt	LTP346	ltpFR2	20	13	COSTUME	383	n/a	n/a	0	0	0
3033.11767578125	n/a	REC_WORD	6211825	wordpools/wasnorm_wordpool_576.txt	LTP346	ltpFR2	20	13	AIRPORT	13	n/a	n/a	0	0	0
3035.33544921875	n/a	REC_WORD	6216367	wordpools/wasnorm_wordpool_576.txt	LTP346	ltpFR2	20	13	HUMAN	726	n/a	n/a	0	0	0
3035.9755859375	n/a	REC_WORD	6217678	wordpools/wasnorm_wordpool_576.txt	LTP346	ltpFR2	20	13	HARP	689	n/a	n/a	0	0	0
3036.71923828125	n/a	REC_WORD	6219201	wordpools/wasnorm_wordpool_576.txt	LTP346	ltpFR2	20	13	NAPKIN	937	n/a	n/a	0	0	0
3073.9453125	n/a	DISTRACTOR	6295440	n/a	LTP346	ltpFR2	20	14	n/a	n/a	n/a	n/a	0	0	0
3073.9453125	n/a	START	6295440	n/a	LTP346	ltpFR2	20	n/a	n/a	n/a	21	n/a	n/a	n/a	n/a
3073.96240234375	n/a	PROB	6295475	n/a	LTP346	ltpFR2	20	n/a	n/a	n/a	21	21	6	9	6
3076.1611328125	n/a	PROB	6299978	n/a	LTP346	ltpFR2	20	n/a	n/a	n/a	21	11	4	2	5
3081.5419921875	n/a	PROB	6310998	n/a	LTP346	ltpFR2	20	n/a	n/a	n/a	21	21	8	4	9
3084.34033203125	n/a	PROB	6316729	n/a	LTP346	ltpFR2	20	n/a	n/a	n/a	21	12	1	4	7
3086.05615234375	n/a	PROB	6320243	n/a	LTP346	ltpFR2	20	n/a	n/a	n/a	21	20	6	7	7
3087.9052734375	n/a	PROB	6324030	n/a	LTP346	ltpFR2	20	n/a	n/a	n/a	21	16	5	8	3
3090.32177734375	n/a	PROB	6328979	n/a	LTP346	ltpFR2	20	n/a	n/a	n/a	21	12	5	4	3
3091.63671875	n/a	PROB	6331672	n/a	LTP346	ltpFR2	20	n/a	n/a	n/a	21	12	1	3	8
3093.3359375	n/a	PROB	6335152	n/a	LTP346	ltpFR2	20	n/a	n/a	n/a	21	14	6	2	6
3097.94482421875	n/a	STOP	6344591	n/a	LTP346	ltpFR2	20	n/a	n/a	n/a	21	n/a	n/a	n/a	n/a
3098.81689453125	n/a	WORD	6346377	wordpools/wasnorm_wordpool_576.txt	LTP346	ltpFR2	20	14	GROUND	666	n/a	n/a	0	0	0
3101.36572265625	n/a	WORD	6351597	wordpools/wasnorm_wordpool_576.txt	LTP346	ltpFR2	20	14	TRACTOR	1493	n/a	n/a	0	0	0
3103.814453125	n/a	WORD	6356612	wordpools/wasnorm_wordpool_576.txt	LTP346	ltpFR2	20	14	POSTAGE	1113	n/a	n/a	0	0	0
3106.49658203125	n/a	WORD	6362105	wordpools/wasnorm_wordpool_576.txt	LTP346	ltpFR2	20	14	TWIG	1527	n/a	n/a	0	0	0
3109.12841796875	n/a	WORD	6367495	wordpools/wasnorm_wordpool_576.txt	LTP346	ltpFR2	20	14	PARSLEY	1016	n/a	n/a	0	0	0
3111.67724609375	n/a	WORD	6372715	wordpools/wasnorm_wordpool_576.txt	LTP346	ltpFR2	20	14	SLUG	1329	n/a	n/a	0	0	0
3114.4423828125	n/a	WORD	6378378	wordpools/wasnorm_wordpool_576.txt	LTP346	ltpFR2	20	14	DUSTPAN	509	n/a	n/a	0	0	0
3117.20947265625	n/a	WORD	6384045	wordpools/wasnorm_wordpool_576.txt	LTP346	ltpFR2	20	14	BINDER	127	n/a	n/a	0	0	0
3119.80615234375	n/a	WORD	6389363	wordpools/wasnorm_wordpool_576.txt	LTP346	ltpFR2	20	14	PAPER	1011	n/a	n/a	0	0	0
3122.27294921875	n/a	WORD	6394415	wordpools/wasnorm_wordpool_576.txt	LTP346	ltpFR2	20	14	LUMBER	848	n/a	n/a	0	0	0
3124.93701171875	n/a	WORD	6399871	wordpools/wasnorm_wordpool_576.txt	LTP346	ltpFR2	20	14	SNAIL	1332	n/a	n/a	0	0	0
3127.43603515625	n/a	WORD	6404989	wordpools/wasnorm_wordpool_576.txt	LTP346	ltpFR2	20	14	SEAFOOD	1260	n/a	n/a	0	0	0
3130.0517578125	n/a	WORD	6410346	wordpools/wasnorm_wordpool_576.txt	LTP346	ltpFR2	20	14	GARLIC	624	n/a	n/a	0	0	0
3132.6337890625	n/a	WORD	6415634	wordpools/wasnorm_wordpool_576.txt	LTP346	ltpFR2	20	14	LIPSTICK	829	n/a	n/a	0	0	0
3135.166015625	n/a	WORD	6420820	wordpools/wasnorm_wordpool_576.txt	LTP346	ltpFR2	20	14	SILK	1307	n/a	n/a	0	0	0
3137.931640625	n/a	WORD	6426484	wordpools/wasnorm_wordpool_576.txt	LTP346	ltpFR2	20	14	MATTRESS	879	n/a	n/a	0	0	0
3140.646484375	n/a	WORD	6432044	wordpools/wasnorm_wordpool_576.txt	LTP346	ltpFR2	20	14	AUTHOR	61	n/a	n/a	0	0	0
3143.27978515625	n/a	WORD	6437437	wordpools/wasnorm_wordpool_576.txt	LTP346	ltpFR2	20	14	PLAZA	1088	n/a	n/a	0	0	0
3145.7275390625	n/a	WORD	6442450	wordpools/wasnorm_wordpool_576.txt	LTP346	ltpFR2	20	14	SLOPE	1328	n/a	n/a	0	0	0
3148.40966796875	n/a	WORD	6447943	wordpools/wasnorm_wordpool_576.txt	LTP346	ltpFR2	20	14	PISTOL	1075	n/a	n/a	0	0	0
3150.84130859375	n/a	WORD	6452923	wordpools/wasnorm_wordpool_576.txt	LTP346	ltpFR2	20	14	UMPIRE	1535	n/a	n/a	0	0	0
3153.4404296875	n/a	WORD	6458246	wordpools/wasnorm_wordpool_576.txt	LTP346	ltpFR2	20	14	PEANUT	1032	n/a	n/a	0	0	0
3156.22314453125	n/a	WORD	6463945	wordpools/wasnorm_wordpool_576.txt	LTP346	ltpFR2	20	14	ICEBERG	731	n/a	n/a	0	0	0
3158.93798828125	n/a	WORD	6469505	wordpools/wasnorm_wordpool_576.txt	LTP346	ltpFR2	20	14	IGLOO	734	n/a	n/a	0	0	0
3160.55419921875	n/a	START	6472815	n/a	LTP346	ltpFR2	20	n/a	n/a	n/a	22	n/a	n/a	n/a	n/a
3161.5029296875	n/a	DISTRACTOR	6474758	n/a	LTP346	ltpFR2	20	14	n/a	n/a	n/a	n/a	0	0	0
3161.52001953125	n/a	PROB	6474793	n/a	LTP346	ltpFR2	20	n/a	n/a	n/a	22	6	1	2	3
3162.85302734375	n/a	PROB	6477523	n/a	LTP346	ltpFR2	20	n/a	n/a	n/a	22	17	9	1	7
3164.27001953125	n/a	PROB	6480425	n/a	LTP346	ltpFR2	20	n/a	n/a	n/a	22	21	7	7	7
3165.31884765625	n/a	PROB	6482573	n/a	LTP346	ltpFR2	20	n/a	n/a	n/a	22	22	9	9	4
3166.5341796875	n/a	PROB	6485062	n/a	LTP346	ltpFR2	20	n/a	n/a	n/a	22	17	1	7	9
3167.6669921875	n/a	PROB	6487382	n/a	LTP346	ltpFR2	20	n/a	n/a	n/a	22	11	3	3	5
3168.94970703125	n/a	PROB	6490009	n/a	LTP346	ltpFR2	20	n/a	n/a	n/a	22	11	5	1	5
3169.798828125	n/a	PROB	6491748	n/a	LTP346	ltpFR2	20	n/a	n/a	n/a	22	17	8	1	8
3170.916015625	n/a	PROB	6494036	n/a	LTP346	ltpFR2	20	n/a	n/a	n/a	22	11	9	1	1
3171.7646484375	n/a	PROB	6495774	n/a	LTP346	ltpFR2	20	n/a	n/a	n/a	22	12	3	8	1
3172.74755859375	n/a	PROB	6497787	n/a	LTP346	ltpFR2	20	n/a	n/a	n/a	22	18	1	8	9
3174.08056640625	n/a	PROB	6500517	n/a	LTP346	ltpFR2	20	n/a	n/a	n/a	22	1	8	7	1
3175.24755859375	n/a	PROB	6502907	n/a	LTP346	ltpFR2	20	n/a	n/a	n/a	22	22	9	9	4
3176.6796875	n/a	PROB	6505840	n/a	LTP346	ltpFR2	20	n/a	n/a	n/a	22	20	9	6	5
3178.02880859375	n/a	PROB	6508603	n/a	LTP346	ltpFR2	20	n/a	n/a	n/a	22	12	1	2	9
3179.2626953125	n/a	PROB	6511130	n/a	LTP346	ltpFR2	20	n/a	n/a	n/a	22	9	2	4	3
3180.4443359375	n/a	PROB	6513550	n/a	LTP346	ltpFR2	20	n/a	n/a	n/a	22	13	5	2	6
3182.49365234375	n/a	PROB	6517747	n/a	LTP346	ltpFR2	20	n/a	n/a	n/a	22	19	8	5	6
3184.109375	n/a	STOP	6521056	n/a	LTP346	ltpFR2	20	n/a	n/a	n/a	22	n/a	n/a	n/a	n/a
3186.3095703125	n/a	REC_START	6525562	n/a	LTP346	ltpFR2	20	14	n/a	n/a	n/a	n/a	0	0	0
3188.6044921875	n/a	REC_WORD	6530262	wordpools/wasnorm_wordpool_576.txt	LTP346	ltpFR2	20	14	GROUND	666	n/a	n/a	0	0	0
3189.33056640625	n/a	REC_WORD	6531749	wordpools/wasnorm_wordpool_576.txt	LTP346	ltpFR2	20	14	TRACTOR	1493	n/a	n/a	0	0	0
3190.2470703125	n/a	REC_WORD	6533626	wordpools/wasnorm_wordpool_576.txt	LTP346	ltpFR2	20	14	TWIG	1527	n/a	n/a	0	0	0
3191.35107421875	n/a	REC_WORD	6535887	wordpools/wasnorm_wordpool_576.txt	LTP346	ltpFR2	20	14	PARSLEY	1016	n/a	n/a	0	0	0
3197.9638671875	n/a	REC_WORD	6549430	wordpools/wasnorm_wordpool_576.txt	LTP346	ltpFR2	20	14	POSTAGE	1113	n/a	n/a	0	0	0
3199.548828125	n/a	REC_WORD	6552676	wordpools/wasnorm_wordpool_576.txt	LTP346	ltpFR2	20	14	SLUG	1329	n/a	n/a	0	0	0
3200.47705078125	n/a	REC_WORD	6554577	wordpools/wasnorm_wordpool_576.txt	LTP346	ltpFR2	20	14	SNAIL	1332	n/a	n/a	0	0	0
3201.39599609375	n/a	REC_WORD	6556459	wordpools/wasnorm_wordpool_576.txt	LTP346	ltpFR2	20	14	DUSTPAN	509	n/a	n/a	0	0	0
3202.81591796875	n/a	REC_WORD	6559367	wordpools/wasnorm_wordpool_576.txt	LTP346	ltpFR2	20	14	LUMBER	848	n/a	n/a	0	0	0
3246.85302734375	n/a	REC_WORD	6649555	wordpools/wasnorm_wordpool_576.txt	LTP346	ltpFR2	20	14	CATCHER	258	n/a	n/a	0	0	0
3247.78271484375	n/a	REC_WORD	6651459	wordpools/wasnorm_wordpool_576.txt	LTP346	ltpFR2	20	14	PEANUT	1032	n/a	n/a	0	0	0
3249.677734375	n/a	REC_WORD	6655340	wordpools/wasnorm_wordpool_576.txt	LTP346	ltpFR2	20	14	ICEBERG	731	n/a	n/a	0	0	0
3251.2275390625	n/a	REC_WORD	6658514	wordpools/wasnorm_wordpool_576.txt	LTP346	ltpFR2	20	14	IGLOO	734	n/a	n/a	0	0	0
3255.7783203125	n/a	REC_WORD	6667834	wordpools/wasnorm_wordpool_576.txt	LTP346	ltpFR2	20	14	PISTOL	1075	n/a	n/a	0	0	0
