mstime	trial_type	stim_file	subject	experiment	session	trial	task	item_name	item_num	recog_resp	recog_conf	resp	color_r	color_g	color_b	case	font
0	SESS_START	n/a	LTP150	ltpFR	6	n/a	n/a	n/a	n/a	1	2	n/a	n/a	n/a	n/a	n/a	n/a
31649	WORD	wordpools/wasnorm_wordpool.txt	LTP150	ltpFR	6	1	0	WORM	1623	1	n/a	0	0.422607421875	0.5869140625	0	lower	zerothre.ttf
35780	WORD	wordpools/wasnorm_wordpool.txt	LTP150	ltpFR	6	1	0	SQUID	1361	n/a	n/a	1	0.422607421875	0.5869140625	0	lower	zerothre.ttf
39912	WORD	wordpools/wasnorm_wordpool.txt	LTP150	ltpFR	6	1	0	EARTH	515	n/a	n/a	1	0.422607421875	0.5869140625	0	lower	zerothre.ttf
44002	WORD	wordpools/wasnorm_wordpool.txt	LTP150	ltpFR	6	1	0	RUST	1219	n/a	n/a	0	0.422607421875	0.5869140625	0	lower	zerothre.ttf
48026	WORD	wordpools/wasnorm_wordpool.txt	LTP150	ltpFR	6	1	1	PIRATE	1074	n/a	n/a	1	0.57763671875	0.412841796875	1	upper	amplitud.ttf
52184	WORD	wordpools/wasnorm_wordpool.txt	LTP150	ltpFR	6	1	1	CHIP	303	n/a	n/a	0	0.57763671875	0.412841796875	1	upper	amplitud.ttf
56132	WORD	wordpools/wasnorm_wordpool.txt	LTP150	ltpFR	6	1	1	VIKING	1565	n/a	n/a	1	0.57763671875	0.412841796875	1	upper	amplitud.ttf
60281	WORD	wordpools/wasnorm_wordpool.txt	LTP150	ltpFR	6	1	1	FRUIT	610	n/a	n/a	1	0.57763671875	0.412841796875	1	upper	amplitud.ttf
64154	WORD	wordpools/wasnorm_wordpool.txt	LTP150	ltpFR	6	1	0	RASPBERRY	1168	n/a	n/a	0	0.422607421875	0.5869140625	0	lower	zerothre.ttf
68069	WORD	wordpools/wasnorm_wordpool.txt	LTP150	ltpFR	6	1	0	NUT	965	n/a	n/a	0	0.422607421875	0.5869140625	0	lower	zerothre.ttf
72118	WORD	wordpools/wasnorm_wordpool.txt	LTP150	ltpFR	6	1	0	SPINACH	1352	n/a	n/a	0	0.422607421875	0.5869140625	0	lower	zerothre.ttf
76250	WORD	wordpools/wasnorm_wordpool.txt	LTP150	ltpFR	6	1	0	ELM	527	n/a	n/a	1	0.422607421875	0.5869140625	0	lower	zerothre.ttf
80324	WORD	wordpools/wasnorm_wordpool.txt	LTP150	ltpFR	6	1	1	ORNAMENT	985	n/a	n/a	0	0.57763671875	0.412841796875	1	upper	amplitud.ttf
84172	WORD	wordpools/wasnorm_wordpool.txt	LTP150	ltpFR	6	1	1	VESSEL	1558	n/a	n/a	0	0.57763671875	0.412841796875	1	upper	amplitud.ttf
88012	WORD	wordpools/wasnorm_wordpool.txt	LTP150	ltpFR	6	1	1	CONE	363	n/a	n/a	0	0.57763671875	0.412841796875	1	upper	amplitud.ttf
92052	WORD	wordpools/wasnorm_wordpool.txt	LTP150	ltpFR	6	1	1	DUST	508	n/a	n/a	0	0.57763671875	0.412841796875	1	upper	amplitud.ttf
97934	REC_START	n/a	LTP150	ltpFR	6	1	n/a	n/a	n/a	n/a	n/a	n/a	n/a	n/a	n/a	n/a	n/a
99056	REC_WORD	wordpools/wasnorm_wordpool.txt	LTP150	ltpFR	6	1	1	DUST	508	n/a	n/a	0	n/a	n/a	n/a	n/a	n/a
100573	REC_WORD	wordpools/wasnorm_wordpool.txt	LTP150	ltpFR	6	1	1	CONE	363	n/a	n/a	0	n/a	n/a	n/a	n/a	n/a
102179	REC_WORD	wordpools/wasnorm_wordpool.txt	LTP150	ltpFR	6	1	1	VIKING	1565	n/a	n/a	1	n/a	n/a	n/a	n/a	n/a
104513	REC_WORD	wordpools/wasnorm_wordpool.txt	LTP150	ltpFR	6	1	1	FRUIT	610	n/a	n/a	1	n/a	n/a	n/a	n/a	n/a
105930	REC_WORD	wordpools/wasnorm_wordpool.txt	LTP150	ltpFR	6	1	0	RASPBERRY	1168	n/a	n/a	0	n/a	n/a	n/a	n/a	n/a
107402	REC_WORD	wordpools/wasnorm_wordpool.txt	LTP150	ltpFR	6	1	0	NUT	965	n/a	n/a	0	n/a	n/a	n/a	n/a	n/a
108619	REC_WORD	wordpools/wasnorm_wordpool.txt	LTP150	ltpFR	6	1	0	SPINACH	1352	n/a	n/a	0	n/a	n/a	n/a	n/a	n/a
112486	REC_WORD	wordpools/wasnorm_wordpool.txt	LTP150	ltpFR	6	1	0	ELM	527	n/a	n/a	1	n/a	n/a	n/a	n/a	n/a
116452	REC_WORD	wordpools/wasnorm_wordpool.txt	LTP150	ltpFR	6	1	0	WORM	1623	n/a	n/a	0	n/a	n/a	n/a	n/a	n/a
117729	REC_WORD	wordpools/wasnorm_wordpool.txt	LTP150	ltpFR	6	1	0	SQUID	1361	n/a	n/a	1	n/a	n/a	n/a	n/a	n/a
119659	REC_WORD	wordpools/wasnorm_wordpool.txt	LTP150	ltpFR	6	1	0	EARTH	515	n/a	n/a	1	n/a	n/a	n/a	n/a	n/a
121041	REC_WORD	wordpools/wasnorm_wordpool.txt	LTP150	ltpFR	6	1	0	RUST	1219	n/a	n/a	0	n/a	n/a	n/a	n/a	n/a
122698	REC_WORD	wordpools/wasnorm_wordpool.txt	LTP150	ltpFR	6	1	1	PIRATE	1074	n/a	n/a	1	n/a	n/a	n/a	n/a	n/a
152255	REC_WORD	wordpools/wasnorm_wordpool.txt	LTP150	ltpFR	6	1	1	ORNAMENT	985	n/a	n/a	0	n/a	n/a	n/a	n/a	n/a
153986	REC_WORD	wordpools/wasnorm_wordpool.txt	LTP150	ltpFR	6	1	1	VESSEL	1558	n/a	n/a	0	n/a	n/a	n/a	n/a	n/a
175623	WORD	wordpools/wasnorm_wordpool.txt	LTP150	ltpFR	6	2	1	ASPIRIN	47	n/a	n/a	0	0.57763671875	0.412841796875	1	upper	amplitud.ttf
179489	WORD	wordpools/wasnorm_wordpool.txt	LTP150	ltpFR	6	2	1	TUXEDO	1525	n/a	n/a	0	0.57763671875	0.412841796875	1	upper	amplitud.ttf
183437	WORD	wordpools/wasnorm_wordpool.txt	LTP150	ltpFR	6	2	0	BOAT	144	n/a	n/a	0	0.422607421875	0.5869140625	0	lower	zerothre.ttf
187411	WORD	wordpools/wasnorm_wordpool.txt	LTP150	ltpFR	6	2	0	SCARECROW	1245	n/a	n/a	0	0.422607421875	0.5869140625	0	lower	zerothre.ttf
191376	WORD	wordpools/wasnorm_wordpool.txt	LTP150	ltpFR	6	2	0	PLAID	1080	n/a	n/a	n/a	0.422607421875	0.5869140625	0	lower	zerothre.ttf
194400	SLOW_MSG	n/a	LTP150	ltpFR	6	2	n/a	n/a	n/a	n/a	n/a	n/a	n/a	n/a	n/a	n/a	n/a
197040	WORD	wordpools/wasnorm_wordpool.txt	LTP150	ltpFR	6	2	0	SAILOR	1223	n/a	n/a	1	0.422607421875	0.5869140625	0	lower	zerothre.ttf
201223	WORD	wordpools/wasnorm_wordpool.txt	LTP150	ltpFR	6	2	1	BLUEJAY	141	n/a	n/a	1	0.57763671875	0.412841796875	1	upper	amplitud.ttf
205438	WORD	wordpools/wasnorm_wordpool.txt	LTP150	ltpFR	6	2	1	COTTAGE	384	n/a	n/a	0	0.57763671875	0.412841796875	1	upper	amplitud.ttf
209520	WORD	wordpools/wasnorm_wordpool.txt	LTP150	ltpFR	6	2	1	BUS	201	n/a	n/a	0	0.57763671875	0.412841796875	1	upper	amplitud.ttf
213460	WORD	wordpools/wasnorm_wordpool.txt	LTP150	ltpFR	6	2	1	WILDERNESS	1610	n/a	n/a	1	0.57763671875	0.412841796875	1	upper	amplitud.ttf
217442	WORD	wordpools/wasnorm_wordpool.txt	LTP150	ltpFR	6	2	0	BEAR	106	n/a	n/a	1	0.422607421875	0.5869140625	0	lower	zerothre.ttf
221640	WORD	wordpools/wasnorm_wordpool.txt	LTP150	ltpFR	6	2	0	EMPLOYER	532	n/a	n/a	1	0.422607421875	0.5869140625	0	lower	zerothre.ttf
225456	WORD	wordpools/wasnorm_wordpool.txt	LTP150	ltpFR	6	2	0	EMPLOYEE	531	n/a	n/a	1	0.422607421875	0.5869140625	0	lower	zerothre.ttf
229437	WORD	wordpools/wasnorm_wordpool.txt	LTP150	ltpFR	6	2	0	COPIER	377	n/a	n/a	1	0.422607421875	0.5869140625	0	lower	zerothre.ttf
233411	WORD	wordpools/wasnorm_wordpool.txt	LTP150	ltpFR	6	2	1	FILM	565	n/a	n/a	0	0.57763671875	0.412841796875	1	upper	amplitud.ttf
237510	WORD	wordpools/wasnorm_wordpool.txt	LTP150	ltpFR	6	2	1	DIAGRAM	456	n/a	n/a	0	0.57763671875	0.412841796875	1	upper	amplitud.ttf
243600	REC_START	n/a	LTP150	ltpFR	6	2	n/a	n/a	n/a	n/a	n/a	n/a	n/a	n/a	n/a	n/a	n/a
244468	REC_WORD	wordpools/wasnorm_wordpool.txt	LTP150	ltpFR	6	2	1	DIAGRAM	456	n/a	n/a	0	n/a	n/a	n/a	n/a	n/a
246029	REC_WORD	wordpools/wasnorm_wordpool.txt	LTP150	ltpFR	6	2	1	FILM	565	n/a	n/a	0	n/a	n/a	n/a	n/a	n/a
247621	REC_WORD	wordpools/wasnorm_wordpool.txt	LTP150	ltpFR	6	2	0	BEAR	106	n/a	n/a	1	n/a	n/a	n/a	n/a	n/a
248862	REC_WORD	wordpools/wasnorm_wordpool.txt	LTP150	ltpFR	6	2	0	EMPLOYER	532	n/a	n/a	1	n/a	n/a	n/a	n/a	n/a
250374	REC_WORD	wordpools/wasnorm_wordpool.txt	LTP150	ltpFR	6	2	0	EMPLOYEE	531	n/a	n/a	1	n/a	n/a	n/a	n/a	n/a
252076	REC_WORD	wordpools/wasnorm_wordpool.txt	LTP150	ltpFR	6	2	0	COPIER	377	n/a	n/a	1	n/a	n/a	n/a	n/a	n/a
254909	REC_WORD	wordpools/wasnorm_wordpool.txt	LTP150	ltpFR	6	2	1	DIAGRAM	456	n/a	n/a	0	n/a	n/a	n/a	n/a	n/a
267860	REC_WORD	wordpools/wasnorm_wordpool.txt	LTP150	ltpFR	6	2	1	BLUEJAY	141	n/a	n/a	1	n/a	n/a	n/a	n/a	n/a
269047	REC_WORD	wordpools/wasnorm_wordpool.txt	LTP150	ltpFR	6	2	1	COTTAGE	384	n/a	n/a	0	n/a	n/a	n/a	n/a	n/a
270384	REC_WORD	wordpools/wasnorm_wordpool.txt	LTP150	ltpFR	6	2	1	BUS	201	n/a	n/a	0	n/a	n/a	n/a	n/a	n/a
272988	REC_WORD	wordpools/wasnorm_wordpool.txt	LTP150	ltpFR	6	2	0	SCARECROW	1245	n/a	n/a	0	n/a	n/a	n/a	n/a	n/a
274649	REC_WORD	wordpools/wasnorm_wordpool.txt	LTP150	ltpFR	6	2	0	BOAT	144	n/a	n/a	0	n/a	n/a	n/a	n/a	n/a
276480	REC_WORD	wordpools/wasnorm_wordpool.txt	LTP150	ltpFR	6	2	1	ASPIRIN	47	n/a	n/a	0	n/a	n/a	n/a	n/a	n/a
277972	REC_WORD	wordpools/wasnorm_wordpool.txt	LTP150	ltpFR	6	2	1	TUXEDO	1525	n/a	n/a	0	n/a	n/a	n/a	n/a	n/a
284661	REC_WORD	wordpools/wasnorm_wordpool.txt	LTP150	ltpFR	6	2	0	PLAID	1080	n/a	n/a	n/a	n/a	n/a	n/a	n/a	n/a
295018	REC_WORD	wordpools/wasnorm_wordpool.txt	LTP150	ltpFR	6	2	1	WILDERNESS	1610	n/a	n/a	1	n/a	n/a	n/a	n/a	n/a
321230	WORD	wordpools/wasnorm_wordpool.txt	LTP150	ltpFR	6	3	1	SWAMP	1416	n/a	n/a	1	0.57763671875	0.412841796875	1	upper	amplitud.ttf
325437	WORD	wordpools/wasnorm_wordpool.txt	LTP150	ltpFR	6	3	1	LAGOON	795	n/a	n/a	1	0.57763671875	0.412841796875	1	upper	amplitud.ttf
329485	WORD	wordpools/wasnorm_wordpool.txt	LTP150	ltpFR	6	3	1	DAD	433	n/a	n/a	1	0.57763671875	0.412841796875	1	upper	amplitud.ttf
333367	WORD	wordpools/wasnorm_wordpool.txt	LTP150	ltpFR	6	3	1	PLASTER	1085	n/a	n/a	0	0.57763671875	0.412841796875	1	upper	amplitud.ttf
337541	WORD	wordpools/wasnorm_wordpool.txt	LTP150	ltpFR	6	3	1	COUNTRY	388	n/a	n/a	0	0.57763671875	0.412841796875	1	upper	amplitud.ttf
341431	WORD	wordpools/wasnorm_wordpool.txt	LTP150	ltpFR	6	3	1	ANGEL	22	n/a	n/a	1	0.57763671875	0.412841796875	1	upper	amplitud.ttf
345471	WORD	wordpools/wasnorm_wordpool.txt	LTP150	ltpFR	6	3	1	GUITAR	670	n/a	n/a	0	0.57763671875	0.412841796875	1	upper	amplitud.ttf
349362	WORD	wordpools/wasnorm_wordpool.txt	LTP150	ltpFR	6	3	1	SCAPEGOAT	1244	n/a	n/a	1	0.57763671875	0.412841796875	1	upper	amplitud.ttf
353235	WORD	wordpools/wasnorm_wordpool.txt	LTP150	ltpFR	6	3	1	WHEAT	1602	n/a	n/a	0	0.57763671875	0.412841796875	1	upper	amplitud.ttf
357250	WORD	wordpools/wasnorm_wordpool.txt	LTP150	ltpFR	6	3	1	HIP	710	n/a	n/a	0	0.57763671875	0.412841796875	1	upper	amplitud.ttf
361099	WORD	wordpools/wasnorm_wordpool.txt	LTP150	ltpFR	6	3	1	TREAT	1501	n/a	n/a	0	0.57763671875	0.412841796875	1	upper	amplitud.ttf
364963	WORD	wordpools/wasnorm_wordpool.txt	LTP150	ltpFR	6	3	1	FATHER	554	n/a	n/a	1	0.57763671875	0.412841796875	1	upper	amplitud.ttf
368795	WORD	wordpools/wasnorm_wordpool.txt	LTP150	ltpFR	6	3	1	COOLER	375	n/a	n/a	0	0.57763671875	0.412841796875	1	upper	amplitud.ttf
372994	WORD	wordpools/wasnorm_wordpool.txt	LTP150	ltpFR	6	3	1	CELERY	266	n/a	n/a	1	0.57763671875	0.412841796875	1	upper	amplitud.ttf
377067	WORD	wordpools/wasnorm_wordpool.txt	LTP150	ltpFR	6	3	1	LETTUCE	814	n/a	n/a	1	0.57763671875	0.412841796875	1	upper	amplitud.ttf
380991	WORD	wordpools/wasnorm_wordpool.txt	LTP150	ltpFR	6	3	1	DOUGH	489	n/a	n/a	0	0.57763671875	0.412841796875	1	upper	amplitud.ttf
386690	REC_START	n/a	LTP150	ltpFR	6	3	n/a	n/a	n/a	n/a	n/a	n/a	n/a	n/a	n/a	n/a	n/a
388042	REC_WORD	wordpools/wasnorm_wordpool.txt	LTP150	ltpFR	6	3	1	DOUGH	489	n/a	n/a	0	n/a	n/a	n/a	n/a	n/a
390501	REC_WORD	wordpools/wasnorm_wordpool.txt	LTP150	ltpFR	6	3	1	LETTUCE	814	n/a	n/a	1	n/a	n/a	n/a	n/a	n/a
391653	REC_WORD	wordpools/wasnorm_wordpool.txt	LTP150	ltpFR	6	3	1	CELERY	266	n/a	n/a	1	n/a	n/a	n/a	n/a	n/a
393265	REC_WORD	wordpools/wasnorm_wordpool.txt	LTP150	ltpFR	6	3	1	COOLER	375	n/a	n/a	0	n/a	n/a	n/a	n/a	n/a
394547	REC_WORD	wordpools/wasnorm_wordpool.txt	LTP150	ltpFR	6	3	1	FATHER	554	n/a	n/a	1	n/a	n/a	n/a	n/a	n/a
407213	REC_WORD	wordpools/wasnorm_wordpool.txt	LTP150	ltpFR	6	3	1	HIP	710	n/a	n/a	0	n/a	n/a	n/a	n/a	n/a
409059	REC_WORD	wordpools/wasnorm_wordpool.txt	LTP150	ltpFR	6	3	1	TREAT	1501	n/a	n/a	0	n/a	n/a	n/a	n/a	n/a
416382	REC_WORD	wordpools/wasnorm_wordpool.txt	LTP150	ltpFR	6	3	1	ANGEL	22	n/a	n/a	1	n/a	n/a	n/a	n/a	n/a
417689	REC_WORD	wordpools/wasnorm_wordpool.txt	LTP150	ltpFR	6	3	1	GUITAR	670	n/a	n/a	0	n/a	n/a	n/a	n/a	n/a
430405	REC_WORD	wordpools/wasnorm_wordpool.txt	LTP150	ltpFR	6	3	1	LAGOON	795	n/a	n/a	1	n/a	n/a	n/a	n/a	n/a
431897	REC_WORD	wordpools/wasnorm_wordpool.txt	LTP150	ltpFR	6	3	1	SWAMP	1416	n/a	n/a	1	n/a	n/a	n/a	n/a	n/a
433658	REC_WORD	wordpools/wasnorm_wordpool.txt	LTP150	ltpFR	6	3	1	DAD	433	n/a	n/a	1	n/a	n/a	n/a	n/a	n/a
435164	REC_WORD	wordpools/wasnorm_wordpool.txt	LTP150	ltpFR	6	3	1	PLASTER	1085	n/a	n/a	0	n/a	n/a	n/a	n/a	n/a
437020	REC_WORD	wordpools/wasnorm_wordpool.txt	LTP150	ltpFR	6	3	1	COUNTRY	388	n/a	n/a	0	n/a	n/a	n/a	n/a	n/a
452815	REC_WORD	wordpools/wasnorm_wordpool.txt	LTP150	ltpFR	6	3	1	DOUGH	489	n/a	n/a	0	n/a	n/a	n/a	n/a	n/a
465145	WORD	wordpools/wasnorm_wordpool.txt	LTP150	ltpFR	6	4	0	TAPIOCA	1434	n/a	n/a	0	0.422607421875	0.5869140625	0	lower	zerothre.ttf
469311	WORD	wordpools/wasnorm_wordpool.txt	LTP150	ltpFR	6	4	0	CUSTARD	429	n/a	n/a	0	0.422607421875	0.5869140625	0	lower	zerothre.ttf
473501	WORD	wordpools/wasnorm_wordpool.txt	LTP150	ltpFR	6	4	0	NOVEL	960	n/a	n/a	0	0.422607421875	0.5869140625	0	lower	zerothre.ttf
477349	WORD	wordpools/wasnorm_wordpool.txt	LTP150	ltpFR	6	4	1	PENGUIN	1044	n/a	n/a	1	0.57763671875	0.412841796875	1	upper	amplitud.ttf
481265	WORD	wordpools/wasnorm_wordpool.txt	LTP150	ltpFR	6	4	1	CARNIVAL	245	n/a	n/a	0	0.57763671875	0.412841796875	1	upper	amplitud.ttf
485247	WORD	wordpools/wasnorm_wordpool.txt	LTP150	ltpFR	6	4	1	NOTEBOOK	959	n/a	n/a	0	0.57763671875	0.412841796875	1	upper	amplitud.ttf
489095	WORD	wordpools/wasnorm_wordpool.txt	LTP150	ltpFR	6	4	1	PICK	1058	n/a	n/a	0	0.57763671875	0.412841796875	1	upper	amplitud.ttf
493068	WORD	wordpools/wasnorm_wordpool.txt	LTP150	ltpFR	6	4	0	PONY	1102	n/a	n/a	1	0.422607421875	0.5869140625	0	lower	zerothre.ttf
497184	WORD	wordpools/wasnorm_wordpool.txt	LTP150	ltpFR	6	4	0	SLOPE	1328	n/a	n/a	0	0.422607421875	0.5869140625	0	lower	zerothre.ttf
501274	WORD	wordpools/wasnorm_wordpool.txt	LTP150	ltpFR	6	4	0	ANT	25	n/a	n/a	0	0.422607421875	0.5869140625	0	lower	zerothre.ttf
505098	WORD	wordpools/wasnorm_wordpool.txt	LTP150	ltpFR	6	4	1	DOVE	491	n/a	n/a	1	0.57763671875	0.412841796875	1	upper	amplitud.ttf
509230	WORD	wordpools/wasnorm_wordpool.txt	LTP150	ltpFR	6	4	1	PASSAGE	1019	n/a	n/a	0	0.57763671875	0.412841796875	1	upper	amplitud.ttf
513370	WORD	wordpools/wasnorm_wordpool.txt	LTP150	ltpFR	6	4	1	MARSH	874	n/a	n/a	1	0.57763671875	0.412841796875	1	upper	amplitud.ttf
517352	WORD	wordpools/wasnorm_wordpool.txt	LTP150	ltpFR	6	4	1	CANVAS	234	n/a	n/a	0	0.57763671875	0.412841796875	1	upper	amplitud.ttf
521442	WORD	wordpools/wasnorm_wordpool.txt	LTP150	ltpFR	6	4	0	SCENERY	1247	n/a	n/a	1	0.422607421875	0.5869140625	0	lower	zerothre.ttf
525407	WORD	wordpools/wasnorm_wordpool.txt	LTP150	ltpFR	6	4	0	POET	1095	n/a	n/a	1	0.422607421875	0.5869140625	0	lower	zerothre.ttf
531030	REC_START	n/a	LTP150	ltpFR	6	4	n/a	n/a	n/a	n/a	n/a	n/a	n/a	n/a	n/a	n/a	n/a
531973	REC_WORD	wordpools/wasnorm_wordpool.txt	LTP150	ltpFR	6	4	0	POET	1095	n/a	n/a	1	n/a	n/a	n/a	n/a	n/a
533010	REC_WORD	wordpools/wasnorm_wordpool.txt	LTP150	ltpFR	6	4	0	SCENERY	1247	n/a	n/a	1	n/a	n/a	n/a	n/a	n/a
534522	REC_WORD	wordpools/wasnorm_wordpool.txt	LTP150	ltpFR	6	4	1	CANVAS	234	n/a	n/a	0	n/a	n/a	n/a	n/a	n/a
536073	REC_WORD	wordpools/wasnorm_wordpool.txt	LTP150	ltpFR	6	4	1	MARSH	874	n/a	n/a	1	n/a	n/a	n/a	n/a	n/a
537660	REC_WORD	wordpools/wasnorm_wordpool.txt	LTP150	ltpFR	6	4	1	PASSAGE	1019	n/a	n/a	0	n/a	n/a	n/a	n/a	n/a
540982	REC_WORD	wordpools/wasnorm_wordpool.txt	LTP150	ltpFR	6	4	0	ANT	25	n/a	n/a	0	n/a	n/a	n/a	n/a	n/a
544160	REC_WORD	wordpools/wasnorm_wordpool.txt	LTP150	ltpFR	6	4	0	SLOPE	1328	n/a	n/a	0	n/a	n/a	n/a	n/a	n/a
546460	REC_WORD	wordpools/wasnorm_wordpool.txt	LTP150	ltpFR	6	4	1	DOVE	491	n/a	n/a	1	n/a	n/a	n/a	n/a	n/a
548350	REC_WORD	wordpools/wasnorm_wordpool.txt	LTP150	ltpFR	6	4	0	PONY	1102	n/a	n/a	1	n/a	n/a	n/a	n/a	n/a
550256	REC_WORD	wordpools/wasnorm_wordpool.txt	LTP150	ltpFR	6	4	n/a	TAPE	1433	n/a	n/a	n/a	n/a	n/a	n/a	n/a	n/a
552356	REC_WORD	wordpools/wasnorm_wordpool.txt	LTP150	ltpFR	6	4	0	CUSTARD	429	n/a	n/a	0	n/a	n/a	n/a	n/a	n/a
555759	REC_WORD	wordpools/wasnorm_wordpool.txt	LTP150	ltpFR	6	4	0	NOVEL	960	n/a	n/a	0	n/a	n/a	n/a	n/a	n/a
557759	REC_WORD	wordpools/wasnorm_wordpool.txt	LTP150	ltpFR	6	4	1	PENGUIN	1044	n/a	n/a	1	n/a	n/a	n/a	n/a	n/a
559755	REC_WORD	wordpools/wasnorm_wordpool.txt	LTP150	ltpFR	6	4	1	PICK	1058	n/a	n/a	0	n/a	n/a	n/a	n/a	n/a
561960	REC_WORD	wordpools/wasnorm_wordpool.txt	LTP150	ltpFR	6	4	0	PONY	1102	n/a	n/a	1	n/a	n/a	n/a	n/a	n/a
563840	REC_WORD	wordpools/wasnorm_wordpool.txt	LTP150	ltpFR	6	4	1	NOTEBOOK	959	n/a	n/a	0	n/a	n/a	n/a	n/a	n/a
608686	WORD	wordpools/wasnorm_wordpool.txt	LTP150	ltpFR	6	5	-1	LUMBER	848	n/a	n/a	-1	1.0	1.0	1	upper	Verdana.ttf
612685	WORD	wordpools/wasnorm_wordpool.txt	LTP150	ltpFR	6	5	-1	FIREPLACE	570	n/a	n/a	-1	1.0	1.0	1	upper	Verdana.ttf
616517	WORD	wordpools/wasnorm_wordpool.txt	LTP150	ltpFR	6	5	-1	SEASHORE	1263	n/a	n/a	-1	1.0	1.0	1	upper	Verdana.ttf
620590	WORD	wordpools/wasnorm_wordpool.txt	LTP150	ltpFR	6	5	-1	POISON	1096	n/a	n/a	-1	1.0	1.0	1	upper	Verdana.ttf
624796	WORD	wordpools/wasnorm_wordpool.txt	LTP150	ltpFR	6	5	-1	CLAMP	316	n/a	n/a	-1	1.0	1.0	1	upper	Verdana.ttf
628720	WORD	wordpools/wasnorm_wordpool.txt	LTP150	ltpFR	6	5	-1	CRACKER	398	n/a	n/a	-1	1.0	1.0	1	upper	Verdana.ttf
632718	WORD	wordpools/wasnorm_wordpool.txt	LTP150	ltpFR	6	5	-1	COOKIE	374	n/a	n/a	-1	1.0	1.0	1	upper	Verdana.ttf
636684	WORD	wordpools/wasnorm_wordpool.txt	LTP150	ltpFR	6	5	-1	MOSS	918	n/a	n/a	-1	1.0	1.0	1	upper	Verdana.ttf
640824	WORD	wordpools/wasnorm_wordpool.txt	LTP150	ltpFR	6	5	-1	TWIG	1527	n/a	n/a	-1	1.0	1.0	1	upper	Verdana.ttf
644640	WORD	wordpools/wasnorm_wordpool.txt	LTP150	ltpFR	6	5	-1	STICKER	1382	n/a	n/a	-1	1.0	1.0	1	upper	Verdana.ttf
648464	WORD	wordpools/wasnorm_wordpool.txt	LTP150	ltpFR	6	5	-1	MONK	910	n/a	n/a	-1	1.0	1.0	1	upper	Verdana.ttf
652612	WORD	wordpools/wasnorm_wordpool.txt	LTP150	ltpFR	6	5	-1	WINE	1613	n/a	n/a	-1	1.0	1.0	1	upper	Verdana.ttf
656511	WORD	wordpools/wasnorm_wordpool.txt	LTP150	ltpFR	6	5	-1	BREAST	171	n/a	n/a	-1	1.0	1.0	1	upper	Verdana.ttf
660676	WORD	wordpools/wasnorm_wordpool.txt	LTP150	ltpFR	6	5	-1	THIMBLE	1458	n/a	n/a	-1	1.0	1.0	1	upper	Verdana.ttf
664715	WORD	wordpools/wasnorm_wordpool.txt	LTP150	ltpFR	6	5	-1	COFFIN	342	n/a	n/a	-1	1.0	1.0	1	upper	Verdana.ttf
668855	WORD	wordpools/wasnorm_wordpool.txt	LTP150	ltpFR	6	5	-1	CORAL	378	n/a	n/a	-1	1.0	1.0	1	upper	Verdana.ttf
674879	REC_START	n/a	LTP150	ltpFR	6	5	n/a	n/a	n/a	n/a	n/a	n/a	n/a	n/a	n/a	n/a	n/a
675732	REC_WORD	wordpools/wasnorm_wordpool.txt	LTP150	ltpFR	6	5	-1	CORAL	378	n/a	n/a	-1	n/a	n/a	n/a	n/a	n/a
679433	REC_WORD	wordpools/wasnorm_wordpool.txt	LTP150	ltpFR	6	5	-1	LUMBER	848	n/a	n/a	-1	n/a	n/a	n/a	n/a	n/a
681623	REC_WORD	wordpools/wasnorm_wordpool.txt	LTP150	ltpFR	6	5	-1	FIREPLACE	570	n/a	n/a	-1	n/a	n/a	n/a	n/a	n/a
683978	REC_WORD	wordpools/wasnorm_wordpool.txt	LTP150	ltpFR	6	5	-1	SEASHORE	1263	n/a	n/a	-1	n/a	n/a	n/a	n/a	n/a
692928	REC_WORD	wordpools/wasnorm_wordpool.txt	LTP150	ltpFR	6	5	-1	CRACKER	398	n/a	n/a	-1	n/a	n/a	n/a	n/a	n/a
694943	REC_WORD	wordpools/wasnorm_wordpool.txt	LTP150	ltpFR	6	5	-1	COOKIE	374	n/a	n/a	-1	n/a	n/a	n/a	n/a	n/a
697981	REC_WORD	wordpools/wasnorm_wordpool.txt	LTP150	ltpFR	6	5	-1	MOSS	918	n/a	n/a	-1	n/a	n/a	n/a	n/a	n/a
700410	REC_WORD	wordpools/wasnorm_wordpool.txt	LTP150	ltpFR	6	5	-1	TWIG	1527	n/a	n/a	-1	n/a	n/a	n/a	n/a	n/a
705080	REC_WORD	wordpools/wasnorm_wordpool.txt	LTP150	ltpFR	6	5	-1	STICKER	1382	n/a	n/a	-1	n/a	n/a	n/a	n/a	n/a
708293	REC_WORD	wordpools/wasnorm_wordpool.txt	LTP150	ltpFR	6	5	-1	MONK	910	n/a	n/a	-1	n/a	n/a	n/a	n/a	n/a
710523	REC_WORD	wordpools/wasnorm_wordpool.txt	LTP150	ltpFR	6	5	-1	WINE	1613	n/a	n/a	-1	n/a	n/a	n/a	n/a	n/a
712872	REC_WORD	wordpools/wasnorm_wordpool.txt	LTP150	ltpFR	6	5	-1	BREAST	171	n/a	n/a	-1	n/a	n/a	n/a	n/a	n/a
715287	REC_WORD	wordpools/wasnorm_wordpool.txt	LTP150	ltpFR	6	5	-1	THIMBLE	1458	n/a	n/a	-1	n/a	n/a	n/a	n/a	n/a
717297	REC_WORD	wordpools/wasnorm_wordpool.txt	LTP150	ltpFR	6	5	-1	COFFIN	342	n/a	n/a	-1	n/a	n/a	n/a	n/a	n/a
752759	WORD	wordpools/wasnorm_wordpool.txt	LTP150	ltpFR	6	6	-1	TOOTHBRUSH	1482	n/a	n/a	-1	1.0	1.0	1	upper	Verdana.ttf
756857	WORD	wordpools/wasnorm_wordpool.txt	LTP150	ltpFR	6	6	-1	COOKBOOK	373	n/a	n/a	-1	1.0	1.0	1	upper	Verdana.ttf
761031	WORD	wordpools/wasnorm_wordpool.txt	LTP150	ltpFR	6	6	-1	SALOON	1228	n/a	n/a	-1	1.0	1.0	1	upper	Verdana.ttf
765046	WORD	wordpools/wasnorm_wordpool.txt	LTP150	ltpFR	6	6	-1	CAP	236	n/a	n/a	-1	1.0	1.0	1	upper	Verdana.ttf
769154	WORD	wordpools/wasnorm_wordpool.txt	LTP150	ltpFR	6	6	-1	PROFESSIONAL	1130	n/a	n/a	-1	1.0	1.0	1	upper	Verdana.ttf
773286	WORD	wordpools/wasnorm_wordpool.txt	LTP150	ltpFR	6	6	-1	EXPERT	543	n/a	n/a	-1	1.0	1.0	1	upper	Verdana.ttf
777259	WORD	wordpools/wasnorm_wordpool.txt	LTP150	ltpFR	6	6	-1	SKILLET	1317	n/a	n/a	-1	1.0	1.0	1	upper	Verdana.ttf
781450	WORD	wordpools/wasnorm_wordpool.txt	LTP150	ltpFR	6	6	-1	STRING	1394	n/a	n/a	-1	1.0	1.0	1	upper	Verdana.ttf
785390	WORD	wordpools/wasnorm_wordpool.txt	LTP150	ltpFR	6	6	-1	PAWN	1030	n/a	n/a	-1	1.0	1.0	1	upper	Verdana.ttf
789572	WORD	wordpools/wasnorm_wordpool.txt	LTP150	ltpFR	6	6	-1	LETTER	813	n/a	n/a	-1	1.0	1.0	1	upper	Verdana.ttf
793579	WORD	wordpools/wasnorm_wordpool.txt	LTP150	ltpFR	6	6	-1	PARCEL	1012	n/a	n/a	-1	1.0	1.0	1	upper	Verdana.ttf
797734	WORD	wordpools/wasnorm_wordpool.txt	LTP150	ltpFR	6	6	-1	PLAZA	1088	n/a	n/a	-1	1.0	1.0	1	upper	Verdana.ttf
801684	WORD	wordpools/wasnorm_wordpool.txt	LTP150	ltpFR	6	6	-1	PURSE	1145	n/a	n/a	-1	1.0	1.0	1	upper	Verdana.ttf
805773	WORD	wordpools/wasnorm_wordpool.txt	LTP150	ltpFR	6	6	-1	MECHANIC	884	n/a	n/a	-1	1.0	1.0	1	upper	Verdana.ttf
809839	WORD	wordpools/wasnorm_wordpool.txt	LTP150	ltpFR	6	6	-1	RIBBON	1189	n/a	n/a	-1	1.0	1.0	1	upper	Verdana.ttf
813912	WORD	wordpools/wasnorm_wordpool.txt	LTP150	ltpFR	6	6	-1	CROOK	412	n/a	n/a	-1	1.0	1.0	1	upper	Verdana.ttf
819877	REC_START	n/a	LTP150	ltpFR	6	6	n/a	n/a	n/a	n/a	n/a	n/a	n/a	n/a	n/a	n/a	n/a
825798	REC_WORD	wordpools/wasnorm_wordpool.txt	LTP150	ltpFR	6	6	-1	CROOK	412	n/a	n/a	-1	n/a	n/a	n/a	n/a	n/a
831261	REC_WORD	wordpools/wasnorm_wordpool.txt	LTP150	ltpFR	6	6	-1	TOOTHBRUSH	1482	n/a	n/a	-1	n/a	n/a	n/a	n/a	n/a
833331	REC_WORD	wordpools/wasnorm_wordpool.txt	LTP150	ltpFR	6	6	-1	COOKBOOK	373	n/a	n/a	-1	n/a	n/a	n/a	n/a	n/a
835092	REC_WORD	wordpools/wasnorm_wordpool.txt	LTP150	ltpFR	6	6	-1	SALOON	1228	n/a	n/a	-1	n/a	n/a	n/a	n/a	n/a
840645	REC_WORD	wordpools/wasnorm_wordpool.txt	LTP150	ltpFR	6	6	-1	CAP	236	n/a	n/a	-1	n/a	n/a	n/a	n/a	n/a
842241	REC_WORD	wordpools/wasnorm_wordpool.txt	LTP150	ltpFR	6	6	-1	PROFESSIONAL	1130	n/a	n/a	-1	n/a	n/a	n/a	n/a	n/a
844271	REC_WORD	wordpools/wasnorm_wordpool.txt	LTP150	ltpFR	6	6	-1	EXPERT	543	n/a	n/a	-1	n/a	n/a	n/a	n/a	n/a
848976	REC_WORD	wordpools/wasnorm_wordpool.txt	LTP150	ltpFR	6	6	-1	PAWN	1030	n/a	n/a	-1	n/a	n/a	n/a	n/a	n/a
851784	REC_WORD	wordpools/wasnorm_wordpool.txt	LTP150	ltpFR	6	6	-1	SKILLET	1317	n/a	n/a	-1	n/a	n/a	n/a	n/a	n/a
854044	REC_WORD	wordpools/wasnorm_wordpool.txt	LTP150	ltpFR	6	6	-1	STRING	1394	n/a	n/a	-1	n/a	n/a	n/a	n/a	n/a
861053	REC_WORD	wordpools/wasnorm_wordpool.txt	LTP150	ltpFR	6	6	-1	LETTER	813	n/a	n/a	-1	n/a	n/a	n/a	n/a	n/a
863308	REC_WORD	wordpools/wasnorm_wordpool.txt	LTP150	ltpFR	6	6	-1	PARCEL	1012	n/a	n/a	-1	n/a	n/a	n/a	n/a	n/a
865633	REC_WORD	wordpools/wasnorm_wordpool.txt	LTP150	ltpFR	6	6	-1	PLAZA	1088	n/a	n/a	-1	n/a	n/a	n/a	n/a	n/a
872208	REC_WORD	wordpools/wasnorm_wordpool.txt	LTP150	ltpFR	6	6	-1	PURSE	1145	n/a	n/a	-1	n/a	n/a	n/a	n/a	n/a
874088	REC_WORD	wordpools/wasnorm_wordpool.txt	LTP150	ltpFR	6	6	-1	MECHANIC	884	n/a	n/a	-1	n/a	n/a	n/a	n/a	n/a
875969	REC_WORD	wordpools/wasnorm_wordpool.txt	LTP150	ltpFR	6	6	-1	RIBBON	1189	n/a	n/a	-1	n/a	n/a	n/a	n/a	n/a
897807	WORD	wordpools/wasnorm_wordpool.txt	LTP150	ltpFR	6	7	0	POCKET	1093	n/a	n/a	0	0.422607421875	0.5869140625	0	lower	zerothre.ttf
901831	WORD	wordpools/wasnorm_wordpool.txt	LTP150	ltpFR	6	7	0	GIRL	637	n/a	n/a	1	0.422607421875	0.5869140625	0	lower	zerothre.ttf
905896	WORD	wordpools/wasnorm_wordpool.txt	LTP150	ltpFR	6	7	0	BROOK	177	n/a	n/a	1	0.422607421875	0.5869140625	0	lower	zerothre.ttf
909711	WORD	wordpools/wasnorm_wordpool.txt	LTP150	ltpFR	6	7	0	BUCKET	184	n/a	n/a	1	0.422607421875	0.5869140625	0	lower	zerothre.ttf
913785	WORD	wordpools/wasnorm_wordpool.txt	LTP150	ltpFR	6	7	0	SHOULDER	1294	n/a	n/a	1	0.422607421875	0.5869140625	0	lower	zerothre.ttf
917725	WORD	wordpools/wasnorm_wordpool.txt	LTP150	ltpFR	6	7	0	PERISCOPE	1050	n/a	n/a	1	0.422607421875	0.5869140625	0	lower	zerothre.ttf
921832	WORD	wordpools/wasnorm_wordpool.txt	LTP150	ltpFR	6	7	0	ASTEROID	50	n/a	n/a	1	0.422607421875	0.5869140625	0	lower	zerothre.ttf
925764	WORD	wordpools/wasnorm_wordpool.txt	LTP150	ltpFR	6	7	0	OATS	968	n/a	n/a	0	0.422607421875	0.5869140625	0	lower	zerothre.ttf
929921	WORD	wordpools/wasnorm_wordpool.txt	LTP150	ltpFR	6	7	0	CHECKERS	285	n/a	n/a	0	0.422607421875	0.5869140625	0	lower	zerothre.ttf
933745	WORD	wordpools/wasnorm_wordpool.txt	LTP150	ltpFR	6	7	0	TUBA	1515	n/a	n/a	1	0.422607421875	0.5869140625	0	lower	zerothre.ttf
937768	WORD	wordpools/wasnorm_wordpool.txt	LTP150	ltpFR	6	7	0	COACH	331	n/a	n/a	1	0.422607421875	0.5869140625	0	lower	zerothre.ttf
941925	WORD	wordpools/wasnorm_wordpool.txt	LTP150	ltpFR	6	7	0	POT	1114	n/a	n/a	1	0.422607421875	0.5869140625	0	lower	zerothre.ttf
945982	WORD	wordpools/wasnorm_wordpool.txt	LTP150	ltpFR	6	7	0	HARP	689	n/a	n/a	1	0.422607421875	0.5869140625	0	lower	zerothre.ttf
949972	WORD	wordpools/wasnorm_wordpool.txt	LTP150	ltpFR	6	7	0	HOOP	716	n/a	n/a	1	0.422607421875	0.5869140625	0	lower	zerothre.ttf
953912	WORD	wordpools/wasnorm_wordpool.txt	LTP150	ltpFR	6	7	0	LACE	792	n/a	n/a	0	0.422607421875	0.5869140625	0	lower	zerothre.ttf
958019	WORD	wordpools/wasnorm_wordpool.txt	LTP150	ltpFR	6	7	0	REFEREE	1178	n/a	n/a	1	0.422607421875	0.5869140625	0	lower	zerothre.ttf
963652	REC_START	n/a	LTP150	ltpFR	6	7	n/a	n/a	n/a	n/a	n/a	n/a	n/a	n/a	n/a	n/a	n/a
964824	REC_WORD	wordpools/wasnorm_wordpool.txt	LTP150	ltpFR	6	7	0	REFEREE	1178	n/a	n/a	1	n/a	n/a	n/a	n/a	n/a
966924	REC_WORD	wordpools/wasnorm_wordpool.txt	LTP150	ltpFR	6	7	0	LACE	792	n/a	n/a	0	n/a	n/a	n/a	n/a	n/a
968755	REC_WORD	wordpools/wasnorm_wordpool.txt	LTP150	ltpFR	6	7	0	HOOP	716	n/a	n/a	1	n/a	n/a	n/a	n/a	n/a
970526	REC_WORD	wordpools/wasnorm_wordpool.txt	LTP150	ltpFR	6	7	0	HARP	689	n/a	n/a	1	n/a	n/a	n/a	n/a	n/a
973090	REC_WORD	wordpools/wasnorm_wordpool.txt	LTP150	ltpFR	6	7	0	TUBA	1515	n/a	n/a	1	n/a	n/a	n/a	n/a	n/a
979566	REC_WORD	wordpools/wasnorm_wordpool.txt	LTP150	ltpFR	6	7	0	POCKET	1093	n/a	n/a	0	n/a	n/a	n/a	n/a	n/a
981935	REC_WORD	wordpools/wasnorm_wordpool.txt	LTP150	ltpFR	6	7	0	GIRL	637	n/a	n/a	1	n/a	n/a	n/a	n/a	n/a
984001	REC_WORD	wordpools/wasnorm_wordpool.txt	LTP150	ltpFR	6	7	0	BROOK	177	n/a	n/a	1	n/a	n/a	n/a	n/a	n/a
986031	REC_WORD	wordpools/wasnorm_wordpool.txt	LTP150	ltpFR	6	7	0	BUCKET	184	n/a	n/a	1	n/a	n/a	n/a	n/a	n/a
987947	REC_WORD	wordpools/wasnorm_wordpool.txt	LTP150	ltpFR	6	7	0	SHOULDER	1294	n/a	n/a	1	n/a	n/a	n/a	n/a	n/a
992481	REC_WORD	wordpools/wasnorm_wordpool.txt	LTP150	ltpFR	6	7	0	PERISCOPE	1050	n/a	n/a	1	n/a	n/a	n/a	n/a	n/a
994806	REC_WORD	wordpools/wasnorm_wordpool.txt	LTP150	ltpFR	6	7	0	ASTEROID	50	n/a	n/a	1	n/a	n/a	n/a	n/a	n/a
996966	REC_WORD	wordpools/wasnorm_wordpool.txt	LTP150	ltpFR	6	7	0	OATS	968	n/a	n/a	0	n/a	n/a	n/a	n/a	n/a
998972	REC_WORD	wordpools/wasnorm_wordpool.txt	LTP150	ltpFR	6	7	0	CHECKERS	285	n/a	n/a	0	n/a	n/a	n/a	n/a	n/a
1017474	REC_WORD	wordpools/wasnorm_wordpool.txt	LTP150	ltpFR	6	7	0	REFEREE	1178	n/a	n/a	1	n/a	n/a	n/a	n/a	n/a
1019350	REC_WORD	wordpools/wasnorm_wordpool.txt	LTP150	ltpFR	6	7	0	COACH	331	n/a	n/a	1	n/a	n/a	n/a	n/a	n/a
1041698	WORD	wordpools/wasnorm_wordpool.txt	LTP150	ltpFR	6	8	1	BISON	131	n/a	n/a	1	0.57763671875	0.412841796875	1	upper	amplitud.ttf
1045746	WORD	wordpools/wasnorm_wordpool.txt	LTP150	ltpFR	6	8	1	SANDWICH	1232	n/a	n/a	0	0.57763671875	0.412841796875	1	upper	amplitud.ttf
1049695	WORD	wordpools/wasnorm_wordpool.txt	LTP150	ltpFR	6	8	0	BLADE	134	n/a	n/a	0	0.422607421875	0.5869140625	0	lower	zerothre.ttf
1053545	WORD	wordpools/wasnorm_wordpool.txt	LTP150	ltpFR	6	8	0	DAGGER	434	n/a	n/a	0	0.422607421875	0.5869140625	0	lower	zerothre.ttf
1057493	WORD	wordpools/wasnorm_wordpool.txt	LTP150	ltpFR	6	8	0	TRIBE	1505	n/a	n/a	1	0.422607421875	0.5869140625	0	lower	zerothre.ttf
1061367	WORD	wordpools/wasnorm_wordpool.txt	LTP150	ltpFR	6	8	0	MOUNTAIN	924	n/a	n/a	1	0.422607421875	0.5869140625	0	lower	zerothre.ttf
1065257	WORD	wordpools/wasnorm_wordpool.txt	LTP150	ltpFR	6	8	0	BELLY	119	n/a	n/a	1	0.422607421875	0.5869140625	0	lower	zerothre.ttf
1069364	WORD	wordpools/wasnorm_wordpool.txt	LTP150	ltpFR	6	8	0	FLEA	577	n/a	n/a	0	0.422607421875	0.5869140625	0	lower	zerothre.ttf
1073412	WORD	wordpools/wasnorm_wordpool.txt	LTP150	ltpFR	6	8	1	SHEPHERD	1283	n/a	n/a	1	0.57763671875	0.412841796875	1	upper	amplitud.ttf
1077603	WORD	wordpools/wasnorm_wordpool.txt	LTP150	ltpFR	6	8	1	DONOR	485	n/a	n/a	0	0.57763671875	0.412841796875	1	upper	amplitud.ttf
1081792	WORD	wordpools/wasnorm_wordpool.txt	LTP150	ltpFR	6	8	0	ORGAN	984	n/a	n/a	1	0.422607421875	0.5869140625	0	lower	zerothre.ttf
1085974	WORD	wordpools/wasnorm_wordpool.txt	LTP150	ltpFR	6	8	0	INTESTINE	742	n/a	n/a	1	0.422607421875	0.5869140625	0	lower	zerothre.ttf
1090140	WORD	wordpools/wasnorm_wordpool.txt	LTP150	ltpFR	6	8	1	KEYBOARD	774	n/a	n/a	0	0.57763671875	0.412841796875	1	upper	amplitud.ttf
1094105	WORD	wordpools/wasnorm_wordpool.txt	LTP150	ltpFR	6	8	1	FRAGRANCE	599	n/a	n/a	0	0.57763671875	0.412841796875	1	upper	amplitud.ttf
1098212	WORD	wordpools/wasnorm_wordpool.txt	LTP150	ltpFR	6	8	1	PASSENGER	1020	n/a	n/a	1	0.57763671875	0.412841796875	1	upper	amplitud.ttf
1102161	WORD	wordpools/wasnorm_wordpool.txt	LTP150	ltpFR	6	8	1	VIOLIN	1571	n/a	n/a	0	0.57763671875	0.412841796875	1	upper	amplitud.ttf
1108000	REC_START	n/a	LTP150	ltpFR	6	8	n/a	n/a	n/a	n/a	n/a	n/a	n/a	n/a	n/a	n/a	n/a
1108892	REC_WORD	wordpools/wasnorm_wordpool.txt	LTP150	ltpFR	6	8	1	VIOLIN	1571	n/a	n/a	0	n/a	n/a	n/a	n/a	n/a
1111158	REC_WORD	wordpools/wasnorm_wordpool.txt	LTP150	ltpFR	6	8	1	PASSENGER	1020	n/a	n/a	1	n/a	n/a	n/a	n/a	n/a
1114255	REC_WORD	wordpools/wasnorm_wordpool.txt	LTP150	ltpFR	6	8	1	FRAGRANCE	599	n/a	n/a	0	n/a	n/a	n/a	n/a	n/a
1116865	REC_WORD	wordpools/wasnorm_wordpool.txt	LTP150	ltpFR	6	8	n/a	PERFUME	1049	n/a	n/a	n/a	n/a	n/a	n/a	n/a	n/a
1119314	REC_WORD	wordpools/wasnorm_wordpool.txt	LTP150	ltpFR	6	8	1	KEYBOARD	774	n/a	n/a	0	n/a	n/a	n/a	n/a	n/a
1122262	REC_WORD	wordpools/wasnorm_wordpool.txt	LTP150	ltpFR	6	8	1	BISON	131	n/a	n/a	1	n/a	n/a	n/a	n/a	n/a
1124063	REC_WORD	wordpools/wasnorm_wordpool.txt	LTP150	ltpFR	6	8	1	SANDWICH	1232	n/a	n/a	0	n/a	n/a	n/a	n/a	n/a
1126358	REC_WORD	wordpools/wasnorm_wordpool.txt	LTP150	ltpFR	6	8	0	BLADE	134	n/a	n/a	0	n/a	n/a	n/a	n/a	n/a
1128478	REC_WORD	wordpools/wasnorm_wordpool.txt	LTP150	ltpFR	6	8	0	DAGGER	434	n/a	n/a	0	n/a	n/a	n/a	n/a	n/a
1131541	REC_WORD	wordpools/wasnorm_wordpool.txt	LTP150	ltpFR	6	8	0	TRIBE	1505	n/a	n/a	1	n/a	n/a	n/a	n/a	n/a
1133567	REC_WORD	wordpools/wasnorm_wordpool.txt	LTP150	ltpFR	6	8	0	MOUNTAIN	924	n/a	n/a	1	n/a	n/a	n/a	n/a	n/a
1137333	REC_WORD	wordpools/wasnorm_wordpool.txt	LTP150	ltpFR	6	8	0	BELLY	119	n/a	n/a	1	n/a	n/a	n/a	n/a	n/a
1139662	REC_WORD	wordpools/wasnorm_wordpool.txt	LTP150	ltpFR	6	8	0	FLEA	577	n/a	n/a	0	n/a	n/a	n/a	n/a	n/a
1146273	REC_WORD	wordpools/wasnorm_wordpool.txt	LTP150	ltpFR	6	8	1	SHEPHERD	1283	n/a	n/a	1	n/a	n/a	n/a	n/a	n/a
1148652	REC_WORD	wordpools/wasnorm_wordpool.txt	LTP150	ltpFR	6	8	1	DONOR	485	n/a	n/a	0	n/a	n/a	n/a	n/a	n/a
1150842	REC_WORD	wordpools/wasnorm_wordpool.txt	LTP150	ltpFR	6	8	0	ORGAN	984	n/a	n/a	1	n/a	n/a	n/a	n/a	n/a
1152997	REC_WORD	wordpools/wasnorm_wordpool.txt	LTP150	ltpFR	6	8	0	INTESTINE	742	n/a	n/a	1	n/a	n/a	n/a	n/a	n/a
1158914	REC_WORD	wordpools/wasnorm_wordpool.txt	LTP150	ltpFR	6	8	1	VIOLIN	1571	n/a	n/a	0	n/a	n/a	n/a	n/a	n/a
1186231	WORD	wordpools/wasnorm_wordpool.txt	LTP150	ltpFR	6	9	-1	HELMET	702	n/a	n/a	-1	1.0	1.0	1	upper	Verdana.ttf
1190246	WORD	wordpools/wasnorm_wordpool.txt	LTP150	ltpFR	6	9	-1	PORT	1110	n/a	n/a	-1	1.0	1.0	1	upper	Verdana.ttf
1194145	WORD	wordpools/wasnorm_wordpool.txt	LTP150	ltpFR	6	9	-1	ARROW	40	n/a	n/a	-1	1.0	1.0	1	upper	Verdana.ttf
1197984	WORD	wordpools/wasnorm_wordpool.txt	LTP150	ltpFR	6	9	-1	JEEP	753	n/a	n/a	-1	1.0	1.0	1	upper	Verdana.ttf
1202024	WORD	wordpools/wasnorm_wordpool.txt	LTP150	ltpFR	6	9	-1	PISTON	1076	n/a	n/a	-1	1.0	1.0	1	upper	Verdana.ttf
1206182	WORD	wordpools/wasnorm_wordpool.txt	LTP150	ltpFR	6	9	-1	MIRROR	899	n/a	n/a	-1	1.0	1.0	1	upper	Verdana.ttf
1210206	WORD	wordpools/wasnorm_wordpool.txt	LTP150	ltpFR	6	9	-1	FOREHEAD	592	n/a	n/a	-1	1.0	1.0	1	upper	Verdana.ttf
1214362	WORD	wordpools/wasnorm_wordpool.txt	LTP150	ltpFR	6	9	-1	LOLLIPOP	842	n/a	n/a	-1	1.0	1.0	1	upper	Verdana.ttf
1218261	WORD	wordpools/wasnorm_wordpool.txt	LTP150	ltpFR	6	9	-1	PROTON	1132	n/a	n/a	-1	1.0	1.0	1	upper	Verdana.ttf
1222360	WORD	wordpools/wasnorm_wordpool.txt	LTP150	ltpFR	6	9	-1	FOSSIL	596	n/a	n/a	-1	1.0	1.0	1	upper	Verdana.ttf
1226516	WORD	wordpools/wasnorm_wordpool.txt	LTP150	ltpFR	6	9	-1	ANCESTOR	20	n/a	n/a	-1	1.0	1.0	1	upper	Verdana.ttf
1230340	WORD	wordpools/wasnorm_wordpool.txt	LTP150	ltpFR	6	9	-1	SHAMPOO	1274	n/a	n/a	-1	1.0	1.0	1	upper	Verdana.ttf
1234372	WORD	wordpools/wasnorm_wordpool.txt	LTP150	ltpFR	6	9	-1	NEUTRON	947	n/a	n/a	-1	1.0	1.0	1	upper	Verdana.ttf
1238512	WORD	wordpools/wasnorm_wordpool.txt	LTP150	ltpFR	6	9	-1	BOOT	150	n/a	n/a	-1	1.0	1.0	1	upper	Verdana.ttf
1242477	WORD	wordpools/wasnorm_wordpool.txt	LTP150	ltpFR	6	9	-1	THIGH	1457	n/a	n/a	-1	1.0	1.0	1	upper	Verdana.ttf
1246409	WORD	wordpools/wasnorm_wordpool.txt	LTP150	ltpFR	6	9	-1	GUM	672	n/a	n/a	-1	1.0	1.0	1	upper	Verdana.ttf
1252091	REC_START	n/a	LTP150	ltpFR	6	9	n/a	n/a	n/a	n/a	n/a	n/a	n/a	n/a	n/a	n/a	n/a
1253438	REC_WORD	wordpools/wasnorm_wordpool.txt	LTP150	ltpFR	6	9	-1	GUM	672	n/a	n/a	-1	n/a	n/a	n/a	n/a	n/a
1254814	REC_WORD	wordpools/wasnorm_wordpool.txt	LTP150	ltpFR	6	9	-1	THIGH	1457	n/a	n/a	-1	n/a	n/a	n/a	n/a	n/a
1256745	REC_WORD	wordpools/wasnorm_wordpool.txt	LTP150	ltpFR	6	9	-1	BOOT	150	n/a	n/a	-1	n/a	n/a	n/a	n/a	n/a
1258361	REC_WORD	wordpools/wasnorm_wordpool.txt	LTP150	ltpFR	6	9	-1	NEUTRON	947	n/a	n/a	-1	n/a	n/a	n/a	n/a	n/a
1260043	REC_WORD	wordpools/wasnorm_wordpool.txt	LTP150	ltpFR	6	9	-1	SHAMPOO	1274	n/a	n/a	-1	n/a	n/a	n/a	n/a	n/a
1262233	REC_WORD	wordpools/wasnorm_wordpool.txt	LTP150	ltpFR	6	9	-1	ANCESTOR	20	n/a	n/a	-1	n/a	n/a	n/a	n/a	n/a
1264607	REC_WORD	wordpools/wasnorm_wordpool.txt	LTP150	ltpFR	6	9	-1	FOSSIL	596	n/a	n/a	-1	n/a	n/a	n/a	n/a	n/a
1266294	REC_WORD	wordpools/wasnorm_wordpool.txt	LTP150	ltpFR	6	9	-1	PROTON	1132	n/a	n/a	-1	n/a	n/a	n/a	n/a	n/a
1268269	REC_WORD	wordpools/wasnorm_wordpool.txt	LTP150	ltpFR	6	9	-1	HELMET	702	n/a	n/a	-1	n/a	n/a	n/a	n/a	n/a
1269925	REC_WORD	wordpools/wasnorm_wordpool.txt	LTP150	ltpFR	6	9	-1	PORT	1110	n/a	n/a	-1	n/a	n/a	n/a	n/a	n/a
1271527	REC_WORD	wordpools/wasnorm_wordpool.txt	LTP150	ltpFR	6	9	-1	ARROW	40	n/a	n/a	-1	n/a	n/a	n/a	n/a	n/a
1273078	REC_WORD	wordpools/wasnorm_wordpool.txt	LTP150	ltpFR	6	9	-1	JEEP	753	n/a	n/a	-1	n/a	n/a	n/a	n/a	n/a
1286642	REC_WORD	wordpools/wasnorm_wordpool.txt	LTP150	ltpFR	6	9	-1	PISTON	1076	n/a	n/a	-1	n/a	n/a	n/a	n/a	n/a
1288653	REC_WORD	wordpools/wasnorm_wordpool.txt	LTP150	ltpFR	6	9	-1	MIRROR	899	n/a	n/a	-1	n/a	n/a	n/a	n/a	n/a
1290279	REC_WORD	wordpools/wasnorm_wordpool.txt	LTP150	ltpFR	6	9	-1	FOREHEAD	592	n/a	n/a	-1	n/a	n/a	n/a	n/a	n/a
1292110	REC_WORD	wordpools/wasnorm_wordpool.txt	LTP150	ltpFR	6	9	-1	LOLLIPOP	842	n/a	n/a	-1	n/a	n/a	n/a	n/a	n/a
1335103	WORD	wordpools/wasnorm_wordpool.txt	LTP150	ltpFR	6	10	-1	TERMITE	1451	n/a	n/a	-1	1.0	1.0	1	upper	Verdana.ttf
1339000	WORD	wordpools/wasnorm_wordpool.txt	LTP150	ltpFR	6	10	-1	POTATO	1115	n/a	n/a	-1	1.0	1.0	1	upper	Verdana.ttf
1342832	WORD	wordpools/wasnorm_wordpool.txt	LTP150	ltpFR	6	10	-1	TYPEWRITER	1531	n/a	n/a	-1	1.0	1.0	1	upper	Verdana.ttf
1346889	WORD	wordpools/wasnorm_wordpool.txt	LTP150	ltpFR	6	10	-1	BRIEFCASE	175	n/a	n/a	-1	1.0	1.0	1	upper	Verdana.ttf
1350830	WORD	wordpools/wasnorm_wordpool.txt	LTP150	ltpFR	6	10	-1	THUMB	1462	n/a	n/a	-1	1.0	1.0	1	upper	Verdana.ttf
1355045	WORD	wordpools/wasnorm_wordpool.txt	LTP150	ltpFR	6	10	-1	RIB	1188	n/a	n/a	-1	1.0	1.0	1	upper	Verdana.ttf
1359169	WORD	wordpools/wasnorm_wordpool.txt	LTP150	ltpFR	6	10	-1	TEAPOT	1442	n/a	n/a	-1	1.0	1.0	1	upper	Verdana.ttf
1363218	WORD	wordpools/wasnorm_wordpool.txt	LTP150	ltpFR	6	10	-1	SURF	1412	n/a	n/a	-1	1.0	1.0	1	upper	Verdana.ttf
1367266	WORD	wordpools/wasnorm_wordpool.txt	LTP150	ltpFR	6	10	-1	LOAF	835	n/a	n/a	-1	1.0	1.0	1	upper	Verdana.ttf
1371398	WORD	wordpools/wasnorm_wordpool.txt	LTP150	ltpFR	6	10	-1	BAKER	71	n/a	n/a	-1	1.0	1.0	1	upper	Verdana.ttf
1375313	WORD	wordpools/wasnorm_wordpool.txt	LTP150	ltpFR	6	10	-1	BUTTERFLY	206	n/a	n/a	-1	1.0	1.0	1	upper	Verdana.ttf
1379337	WORD	wordpools/wasnorm_wordpool.txt	LTP150	ltpFR	6	10	-1	TOMATO	1476	n/a	n/a	-1	1.0	1.0	1	upper	Verdana.ttf
1383169	WORD	wordpools/wasnorm_wordpool.txt	LTP150	ltpFR	6	10	-1	PLIERS	1089	n/a	n/a	-1	1.0	1.0	1	upper	Verdana.ttf
1387084	WORD	wordpools/wasnorm_wordpool.txt	LTP150	ltpFR	6	10	-1	STRAW	1390	n/a	n/a	-1	1.0	1.0	1	upper	Verdana.ttf
1390990	WORD	wordpools/wasnorm_wordpool.txt	LTP150	ltpFR	6	10	-1	BAY	102	n/a	n/a	-1	1.0	1.0	1	upper	Verdana.ttf
1394822	WORD	wordpools/wasnorm_wordpool.txt	LTP150	ltpFR	6	10	-1	PALM	1007	n/a	n/a	-1	1.0	1.0	1	upper	Verdana.ttf
1400771	REC_START	n/a	LTP150	ltpFR	6	10	n/a	n/a	n/a	n/a	n/a	n/a	n/a	n/a	n/a	n/a	n/a
1401903	REC_WORD	wordpools/wasnorm_wordpool.txt	LTP150	ltpFR	6	10	-1	PALM	1007	n/a	n/a	-1	n/a	n/a	n/a	n/a	n/a
1403220	REC_WORD	wordpools/wasnorm_wordpool.txt	LTP150	ltpFR	6	10	-1	BAY	102	n/a	n/a	-1	n/a	n/a	n/a	n/a	n/a
1404762	REC_WORD	wordpools/wasnorm_wordpool.txt	LTP150	ltpFR	6	10	-1	STRAW	1390	n/a	n/a	-1	n/a	n/a	n/a	n/a	n/a
1406777	REC_WORD	wordpools/wasnorm_wordpool.txt	LTP150	ltpFR	6	10	-1	PLIERS	1089	n/a	n/a	-1	n/a	n/a	n/a	n/a	n/a
1408378	REC_WORD	wordpools/wasnorm_wordpool.txt	LTP150	ltpFR	6	10	-1	TOMATO	1476	n/a	n/a	-1	n/a	n/a	n/a	n/a	n/a
1410883	REC_WORD	wordpools/wasnorm_wordpool.txt	LTP150	ltpFR	6	10	-1	TERMITE	1451	n/a	n/a	-1	n/a	n/a	n/a	n/a	n/a
1412439	REC_WORD	wordpools/wasnorm_wordpool.txt	LTP150	ltpFR	6	10	-1	POTATO	1115	n/a	n/a	-1	n/a	n/a	n/a	n/a	n/a
1414160	REC_WORD	wordpools/wasnorm_wordpool.txt	LTP150	ltpFR	6	10	-1	TYPEWRITER	1531	n/a	n/a	-1	n/a	n/a	n/a	n/a	n/a
1416031	REC_WORD	wordpools/wasnorm_wordpool.txt	LTP150	ltpFR	6	10	-1	BRIEFCASE	175	n/a	n/a	-1	n/a	n/a	n/a	n/a	n/a
1417847	REC_WORD	wordpools/wasnorm_wordpool.txt	LTP150	ltpFR	6	10	-1	THUMB	1462	n/a	n/a	-1	n/a	n/a	n/a	n/a	n/a
1419518	REC_WORD	wordpools/wasnorm_wordpool.txt	LTP150	ltpFR	6	10	-1	RIB	1188	n/a	n/a	-1	n/a	n/a	n/a	n/a	n/a
1440930	REC_WORD	wordpools/wasnorm_wordpool.txt	LTP150	ltpFR	6	10	-1	TEAPOT	1442	n/a	n/a	-1	n/a	n/a	n/a	n/a	n/a
1443059	REC_WORD	wordpools/wasnorm_wordpool.txt	LTP150	ltpFR	6	10	-1	SURF	1412	n/a	n/a	-1	n/a	n/a	n/a	n/a	n/a
1445539	REC_WORD	wordpools/wasnorm_wordpool.txt	LTP150	ltpFR	6	10	-1	LOAF	835	n/a	n/a	-1	n/a	n/a	n/a	n/a	n/a
1447719	REC_WORD	wordpools/wasnorm_wordpool.txt	LTP150	ltpFR	6	10	-1	BAKER	71	n/a	n/a	-1	n/a	n/a	n/a	n/a	n/a
1449804	REC_WORD	wordpools/wasnorm_wordpool.txt	LTP150	ltpFR	6	10	-1	BUTTERFLY	206	n/a	n/a	-1	n/a	n/a	n/a	n/a	n/a
1482008	WORD	wordpools/wasnorm_wordpool.txt	LTP150	ltpFR	6	11	1	FIG	563	n/a	n/a	1	0.57763671875	0.412841796875	1	upper	amplitud.ttf
1486199	WORD	wordpools/wasnorm_wordpool.txt	LTP150	ltpFR	6	11	1	TIMBER	1469	n/a	n/a	0	0.57763671875	0.412841796875	1	upper	amplitud.ttf
1490181	WORD	wordpools/wasnorm_wordpool.txt	LTP150	ltpFR	6	11	1	GUEST	669	n/a	n/a	1	0.57763671875	0.412841796875	1	upper	amplitud.ttf
1494096	WORD	wordpools/wasnorm_wordpool.txt	LTP150	ltpFR	6	11	1	MANSION	864	n/a	n/a	0	0.57763671875	0.412841796875	1	upper	amplitud.ttf
1498035	WORD	wordpools/wasnorm_wordpool.txt	LTP150	ltpFR	6	11	1	SPINE	1353	n/a	n/a	0	0.57763671875	0.412841796875	1	upper	amplitud.ttf
1501901	WORD	wordpools/wasnorm_wordpool.txt	LTP150	ltpFR	6	11	1	EGYPT	519	n/a	n/a	0	0.57763671875	0.412841796875	1	upper	amplitud.ttf
1505924	WORD	wordpools/wasnorm_wordpool.txt	LTP150	ltpFR	6	11	1	SHED	1277	n/a	n/a	0	0.57763671875	0.412841796875	1	upper	amplitud.ttf
1509856	WORD	wordpools/wasnorm_wordpool.txt	LTP150	ltpFR	6	11	1	COLLEGE	346	n/a	n/a	0	0.57763671875	0.412841796875	1	upper	amplitud.ttf
1513673	WORD	wordpools/wasnorm_wordpool.txt	LTP150	ltpFR	6	11	1	STUDENT	1395	n/a	n/a	1	0.57763671875	0.412841796875	1	upper	amplitud.ttf
1517596	WORD	wordpools/wasnorm_wordpool.txt	LTP150	ltpFR	6	11	1	MOAT	903	n/a	n/a	0	0.57763671875	0.412841796875	1	upper	amplitud.ttf
1521503	WORD	wordpools/wasnorm_wordpool.txt	LTP150	ltpFR	6	11	1	MASCARA	875	n/a	n/a	0	0.57763671875	0.412841796875	1	upper	amplitud.ttf
1525568	WORD	wordpools/wasnorm_wordpool.txt	LTP150	ltpFR	6	11	1	CHEEK	287	n/a	n/a	0	0.57763671875	0.412841796875	1	upper	amplitud.ttf
1529559	WORD	wordpools/wasnorm_wordpool.txt	LTP150	ltpFR	6	11	1	TREAD	1499	n/a	n/a	0	0.57763671875	0.412841796875	1	upper	amplitud.ttf
1533399	WORD	wordpools/wasnorm_wordpool.txt	LTP150	ltpFR	6	11	1	HOSTAGE	722	n/a	n/a	1	0.57763671875	0.412841796875	1	upper	amplitud.ttf
1537248	WORD	wordpools/wasnorm_wordpool.txt	LTP150	ltpFR	6	11	1	FAMILY	550	n/a	n/a	1	0.57763671875	0.412841796875	1	upper	amplitud.ttf
1541304	WORD	wordpools/wasnorm_wordpool.txt	LTP150	ltpFR	6	11	1	VISITOR	1573	n/a	n/a	1	0.57763671875	0.412841796875	1	upper	amplitud.ttf
1546894	REC_START	n/a	LTP150	ltpFR	6	11	n/a	n/a	n/a	n/a	n/a	n/a	n/a	n/a	n/a	n/a	n/a
1549802	REC_WORD	wordpools/wasnorm_wordpool.txt	LTP150	ltpFR	6	11	1	FIG	563	n/a	n/a	1	n/a	n/a	n/a	n/a	n/a
1552072	REC_WORD	wordpools/wasnorm_wordpool.txt	LTP150	ltpFR	6	11	1	TIMBER	1469	n/a	n/a	0	n/a	n/a	n/a	n/a	n/a
1554217	REC_WORD	wordpools/wasnorm_wordpool.txt	LTP150	ltpFR	6	11	1	GUEST	669	n/a	n/a	1	n/a	n/a	n/a	n/a	n/a
1556412	REC_WORD	wordpools/wasnorm_wordpool.txt	LTP150	ltpFR	6	11	1	MANSION	864	n/a	n/a	0	n/a	n/a	n/a	n/a	n/a
1565252	REC_WORD	wordpools/wasnorm_wordpool.txt	LTP150	ltpFR	6	11	1	SHED	1277	n/a	n/a	0	n/a	n/a	n/a	n/a	n/a
1568225	REC_WORD	wordpools/wasnorm_wordpool.txt	LTP150	ltpFR	6	11	1	EGYPT	519	n/a	n/a	0	n/a	n/a	n/a	n/a	n/a
1577938	REC_WORD	wordpools/wasnorm_wordpool.txt	LTP150	ltpFR	6	11	1	COLLEGE	346	n/a	n/a	0	n/a	n/a	n/a	n/a	n/a
1580437	REC_WORD	wordpools/wasnorm_wordpool.txt	LTP150	ltpFR	6	11	1	STUDENT	1395	n/a	n/a	1	n/a	n/a	n/a	n/a	n/a
1590873	REC_WORD	wordpools/wasnorm_wordpool.txt	LTP150	ltpFR	6	11	1	FAMILY	550	n/a	n/a	1	n/a	n/a	n/a	n/a	n/a
1593218	REC_WORD	wordpools/wasnorm_wordpool.txt	LTP150	ltpFR	6	11	1	VISITOR	1573	n/a	n/a	1	n/a	n/a	n/a	n/a	n/a
1595703	REC_WORD	wordpools/wasnorm_wordpool.txt	LTP150	ltpFR	6	11	1	HOSTAGE	722	n/a	n/a	1	n/a	n/a	n/a	n/a	n/a
1619953	REC_WORD	wordpools/wasnorm_wordpool.txt	LTP150	ltpFR	6	11	1	SPINE	1353	n/a	n/a	0	n/a	n/a	n/a	n/a	n/a
1630847	WORD	wordpools/wasnorm_wordpool.txt	LTP150	ltpFR	6	12	0	ATLAS	53	n/a	n/a	1	0.422607421875	0.5869140625	0	lower	zerothre.ttf
1634688	WORD	wordpools/wasnorm_wordpool.txt	LTP150	ltpFR	6	12	0	PUMPKIN	1142	n/a	n/a	1	0.422607421875	0.5869140625	0	lower	zerothre.ttf
1638760	WORD	wordpools/wasnorm_wordpool.txt	LTP150	ltpFR	6	12	0	CAKE	219	n/a	n/a	1	0.422607421875	0.5869140625	0	lower	zerothre.ttf
1642817	WORD	wordpools/wasnorm_wordpool.txt	LTP150	ltpFR	6	12	0	AMBULANCE	19	n/a	n/a	1	0.422607421875	0.5869140625	0	lower	zerothre.ttf
1646891	WORD	wordpools/wasnorm_wordpool.txt	LTP150	ltpFR	6	12	0	OFFICER	973	n/a	n/a	1	0.422607421875	0.5869140625	0	lower	zerothre.ttf
1650715	WORD	wordpools/wasnorm_wordpool.txt	LTP150	ltpFR	6	12	0	PLUM	1090	n/a	n/a	0	0.422607421875	0.5869140625	0	lower	zerothre.ttf
1654905	WORD	wordpools/wasnorm_wordpool.txt	LTP150	ltpFR	6	12	0	NICOTINE	951	n/a	n/a	0	0.422607421875	0.5869140625	0	lower	zerothre.ttf
1658987	WORD	wordpools/wasnorm_wordpool.txt	LTP150	ltpFR	6	12	0	CAMEL	223	n/a	n/a	1	0.422607421875	0.5869140625	0	lower	zerothre.ttf
1662944	WORD	wordpools/wasnorm_wordpool.txt	LTP150	ltpFR	6	12	0	CHART	282	n/a	n/a	0	0.422607421875	0.5869140625	0	lower	zerothre.ttf
1666975	WORD	wordpools/wasnorm_wordpool.txt	LTP150	ltpFR	6	12	0	MARBLE	867	n/a	n/a	0	0.422607421875	0.5869140625	0	lower	zerothre.ttf
1671041	WORD	wordpools/wasnorm_wordpool.txt	LTP150	ltpFR	6	12	0	COFFEE	341	n/a	n/a	0	0.422607421875	0.5869140625	0	lower	zerothre.ttf
1674939	WORD	wordpools/wasnorm_wordpool.txt	LTP150	ltpFR	6	12	0	TURNIP	1521	n/a	n/a	0	0.422607421875	0.5869140625	0	lower	zerothre.ttf
1678821	WORD	wordpools/wasnorm_wordpool.txt	LTP150	ltpFR	6	12	0	SLIME	1327	n/a	n/a	0	0.422607421875	0.5869140625	0	lower	zerothre.ttf
1682861	WORD	wordpools/wasnorm_wordpool.txt	LTP150	ltpFR	6	12	0	LIME	823	n/a	n/a	0	0.422607421875	0.5869140625	0	lower	zerothre.ttf
1686710	WORD	wordpools/wasnorm_wordpool.txt	LTP150	ltpFR	6	12	0	AIRCRAFT	11	n/a	n/a	1	0.422607421875	0.5869140625	0	lower	zerothre.ttf
1690601	WORD	wordpools/wasnorm_wordpool.txt	LTP150	ltpFR	6	12	0	LAVA	804	n/a	n/a	0	0.422607421875	0.5869140625	0	lower	zerothre.ttf
1696392	REC_START	n/a	LTP150	ltpFR	6	12	n/a	n/a	n/a	n/a	n/a	n/a	n/a	n/a	n/a	n/a	n/a
1697509	REC_WORD	wordpools/wasnorm_wordpool.txt	LTP150	ltpFR	6	12	0	LAVA	804	n/a	n/a	0	n/a	n/a	n/a	n/a	n/a
1699156	REC_WORD	wordpools/wasnorm_wordpool.txt	LTP150	ltpFR	6	12	0	AIRCRAFT	11	n/a	n/a	1	n/a	n/a	n/a	n/a	n/a
1702363	REC_WORD	wordpools/wasnorm_wordpool.txt	LTP150	ltpFR	6	12	0	SLIME	1327	n/a	n/a	0	n/a	n/a	n/a	n/a	n/a
1704414	REC_WORD	wordpools/wasnorm_wordpool.txt	LTP150	ltpFR	6	12	0	LIME	823	n/a	n/a	0	n/a	n/a	n/a	n/a	n/a
1706534	REC_WORD	wordpools/wasnorm_wordpool.txt	LTP150	ltpFR	6	12	0	ATLAS	53	n/a	n/a	1	n/a	n/a	n/a	n/a	n/a
1708883	REC_WORD	wordpools/wasnorm_wordpool.txt	LTP150	ltpFR	6	12	0	PUMPKIN	1142	n/a	n/a	1	n/a	n/a	n/a	n/a	n/a
1710794	REC_WORD	wordpools/wasnorm_wordpool.txt	LTP150	ltpFR	6	12	0	CAKE	219	n/a	n/a	1	n/a	n/a	n/a	n/a	n/a
1712580	REC_WORD	wordpools/wasnorm_wordpool.txt	LTP150	ltpFR	6	12	0	AMBULANCE	19	n/a	n/a	1	n/a	n/a	n/a	n/a	n/a
1717978	REC_WORD	wordpools/wasnorm_wordpool.txt	LTP150	ltpFR	6	12	0	OFFICER	973	n/a	n/a	1	n/a	n/a	n/a	n/a	n/a
1720761	REC_WORD	wordpools/wasnorm_wordpool.txt	LTP150	ltpFR	6	12	0	PLUM	1090	n/a	n/a	0	n/a	n/a	n/a	n/a	n/a
1722742	REC_WORD	wordpools/wasnorm_wordpool.txt	LTP150	ltpFR	6	12	0	NICOTINE	951	n/a	n/a	0	n/a	n/a	n/a	n/a	n/a
1726164	REC_WORD	wordpools/wasnorm_wordpool.txt	LTP150	ltpFR	6	12	0	CAMEL	223	n/a	n/a	1	n/a	n/a	n/a	n/a	n/a
1728389	REC_WORD	wordpools/wasnorm_wordpool.txt	LTP150	ltpFR	6	12	0	CHART	282	n/a	n/a	0	n/a	n/a	n/a	n/a	n/a
1731512	REC_WORD	wordpools/wasnorm_wordpool.txt	LTP150	ltpFR	6	12	0	MARBLE	867	n/a	n/a	0	n/a	n/a	n/a	n/a	n/a
1734530	REC_WORD	wordpools/wasnorm_wordpool.txt	LTP150	ltpFR	6	12	0	COFFEE	341	n/a	n/a	0	n/a	n/a	n/a	n/a	n/a
1771971	REST_REWET	n/a	LTP150	ltpFR	6	12	n/a	n/a	n/a	n/a	n/a	n/a	n/a	n/a	n/a	n/a	n/a
1995858	WORD	wordpools/wasnorm_wordpool.txt	LTP150	ltpFR	6	13	0	CANNON	232	n/a	n/a	1	0.422607421875	0.5869140625	0	lower	zerothre.ttf
2000040	WORD	wordpools/wasnorm_wordpool.txt	LTP150	ltpFR	6	13	0	DONKEY	484	n/a	n/a	1	0.422607421875	0.5869140625	0	lower	zerothre.ttf
2004181	WORD	wordpools/wasnorm_wordpool.txt	LTP150	ltpFR	6	13	0	SHELL	1281	n/a	n/a	0	0.422607421875	0.5869140625	0	lower	zerothre.ttf
2008205	WORD	wordpools/wasnorm_wordpool.txt	LTP150	ltpFR	6	13	0	KING	777	n/a	n/a	1	0.422607421875	0.5869140625	0	lower	zerothre.ttf
2012237	WORD	wordpools/wasnorm_wordpool.txt	LTP150	ltpFR	6	13	0	JAPAN	749	n/a	n/a	1	0.422607421875	0.5869140625	0	lower	zerothre.ttf
2016211	WORD	wordpools/wasnorm_wordpool.txt	LTP150	ltpFR	6	13	0	ASH	44	n/a	n/a	0	0.422607421875	0.5869140625	0	lower	zerothre.ttf
2020417	WORD	wordpools/wasnorm_wordpool.txt	LTP150	ltpFR	6	13	1	CHAMPION	279	n/a	n/a	0	0.57763671875	0.412841796875	1	upper	amplitud.ttf
2024341	WORD	wordpools/wasnorm_wordpool.txt	LTP150	ltpFR	6	13	1	AWARD	63	n/a	n/a	0	0.57763671875	0.412841796875	1	upper	amplitud.ttf
2028348	WORD	wordpools/wasnorm_wordpool.txt	LTP150	ltpFR	6	13	1	CHIMNEY	301	n/a	n/a	0	0.57763671875	0.412841796875	1	upper	amplitud.ttf
2032538	WORD	wordpools/wasnorm_wordpool.txt	LTP150	ltpFR	6	13	0	FRIEND	606	n/a	n/a	1	0.422607421875	0.5869140625	0	lower	zerothre.ttf
2036503	WORD	wordpools/wasnorm_wordpool.txt	LTP150	ltpFR	6	13	0	WALNUT	1584	n/a	n/a	0	0.422607421875	0.5869140625	0	lower	zerothre.ttf
2040460	WORD	wordpools/wasnorm_wordpool.txt	LTP150	ltpFR	6	13	1	ROOMMATE	1207	n/a	n/a	1	0.57763671875	0.412841796875	1	upper	amplitud.ttf
2044500	WORD	wordpools/wasnorm_wordpool.txt	LTP150	ltpFR	6	13	1	SPOOL	1356	n/a	n/a	0	0.57763671875	0.412841796875	1	upper	amplitud.ttf
2048349	WORD	wordpools/wasnorm_wordpool.txt	LTP150	ltpFR	6	13	1	DOUGHNUT	490	n/a	n/a	0	0.57763671875	0.412841796875	1	upper	amplitud.ttf
2052248	WORD	wordpools/wasnorm_wordpool.txt	LTP150	ltpFR	6	13	1	DISHWASHER	475	n/a	n/a	1	0.57763671875	0.412841796875	1	upper	amplitud.ttf
2056088	WORD	wordpools/wasnorm_wordpool.txt	LTP150	ltpFR	6	13	1	WASHCLOTH	1591	n/a	n/a	0	0.57763671875	0.412841796875	1	upper	amplitud.ttf
2061836	REC_START	n/a	LTP150	ltpFR	6	13	n/a	n/a	n/a	n/a	n/a	n/a	n/a	n/a	n/a	n/a	n/a
2064714	REC_WORD	wordpools/wasnorm_wordpool.txt	LTP150	ltpFR	6	13	0	CANNON	232	n/a	n/a	1	n/a	n/a	n/a	n/a	n/a
2066530	REC_WORD	wordpools/wasnorm_wordpool.txt	LTP150	ltpFR	6	13	0	DONKEY	484	n/a	n/a	1	n/a	n/a	n/a	n/a	n/a
2068346	REC_WORD	wordpools/wasnorm_wordpool.txt	LTP150	ltpFR	6	13	0	SHELL	1281	n/a	n/a	0	n/a	n/a	n/a	n/a	n/a
2071938	REC_WORD	wordpools/wasnorm_wordpool.txt	LTP150	ltpFR	6	13	0	KING	777	n/a	n/a	1	n/a	n/a	n/a	n/a	n/a
2074801	REC_WORD	wordpools/wasnorm_wordpool.txt	LTP150	ltpFR	6	13	0	JAPAN	749	n/a	n/a	1	n/a	n/a	n/a	n/a	n/a
2077216	REC_WORD	wordpools/wasnorm_wordpool.txt	LTP150	ltpFR	6	13	0	ASH	44	n/a	n/a	0	n/a	n/a	n/a	n/a	n/a
2079496	REC_WORD	wordpools/wasnorm_wordpool.txt	LTP150	ltpFR	6	13	1	CHAMPION	279	n/a	n/a	0	n/a	n/a	n/a	n/a	n/a
2081671	REC_WORD	wordpools/wasnorm_wordpool.txt	LTP150	ltpFR	6	13	1	AWARD	63	n/a	n/a	0	n/a	n/a	n/a	n/a	n/a
2084125	REC_WORD	wordpools/wasnorm_wordpool.txt	LTP150	ltpFR	6	13	1	CHIMNEY	301	n/a	n/a	0	n/a	n/a	n/a	n/a	n/a
2102393	REC_WORD	wordpools/wasnorm_wordpool.txt	LTP150	ltpFR	6	13	0	FRIEND	606	n/a	n/a	1	n/a	n/a	n/a	n/a	n/a
2104933	REC_WORD	wordpools/wasnorm_wordpool.txt	LTP150	ltpFR	6	13	0	WALNUT	1584	n/a	n/a	0	n/a	n/a	n/a	n/a	n/a
2109138	REC_WORD	wordpools/wasnorm_wordpool.txt	LTP150	ltpFR	6	13	1	ROOMMATE	1207	n/a	n/a	1	n/a	n/a	n/a	n/a	n/a
2111124	REC_WORD	wordpools/wasnorm_wordpool.txt	LTP150	ltpFR	6	13	1	SPOOL	1356	n/a	n/a	0	n/a	n/a	n/a	n/a	n/a
2113349	REC_WORD	wordpools/wasnorm_wordpool.txt	LTP150	ltpFR	6	13	1	DOUGHNUT	490	n/a	n/a	0	n/a	n/a	n/a	n/a	n/a
2115559	REC_WORD	wordpools/wasnorm_wordpool.txt	LTP150	ltpFR	6	13	1	DISHWASHER	475	n/a	n/a	1	n/a	n/a	n/a	n/a	n/a
2117724	REC_WORD	wordpools/wasnorm_wordpool.txt	LTP150	ltpFR	6	13	1	WASHCLOTH	1591	n/a	n/a	0	n/a	n/a	n/a	n/a	n/a
2142374	WORD	wordpools/wasnorm_wordpool.txt	LTP150	ltpFR	6	14	1	FLESH	579	n/a	n/a	1	0.57763671875	0.412841796875	1	upper	amplitud.ttf
2146248	WORD	wordpools/wasnorm_wordpool.txt	LTP150	ltpFR	6	14	1	VELVET	1555	n/a	n/a	0	0.57763671875	0.412841796875	1	upper	amplitud.ttf
2150463	WORD	wordpools/wasnorm_wordpool.txt	LTP150	ltpFR	6	14	1	SALMON	1227	n/a	n/a	1	0.57763671875	0.412841796875	1	upper	amplitud.ttf
2154520	WORD	wordpools/wasnorm_wordpool.txt	LTP150	ltpFR	6	14	1	RACKET	1155	n/a	n/a	0	0.57763671875	0.412841796875	1	upper	amplitud.ttf
2158493	WORD	wordpools/wasnorm_wordpool.txt	LTP150	ltpFR	6	14	1	CURB	426	n/a	n/a	0	0.57763671875	0.412841796875	1	upper	amplitud.ttf
2162558	WORD	wordpools/wasnorm_wordpool.txt	LTP150	ltpFR	6	14	1	TRAITOR	1495	n/a	n/a	1	0.57763671875	0.412841796875	1	upper	amplitud.ttf
2166731	WORD	wordpools/wasnorm_wordpool.txt	LTP150	ltpFR	6	14	1	YARN	1631	n/a	n/a	0	0.57763671875	0.412841796875	1	upper	amplitud.ttf
2170664	WORD	wordpools/wasnorm_wordpool.txt	LTP150	ltpFR	6	14	1	HERD	705	n/a	n/a	0	0.57763671875	0.412841796875	1	upper	amplitud.ttf
2174786	WORD	wordpools/wasnorm_wordpool.txt	LTP150	ltpFR	6	14	1	SUSPECT	1415	n/a	n/a	1	0.57763671875	0.412841796875	1	upper	amplitud.ttf
2178594	WORD	wordpools/wasnorm_wordpool.txt	LTP150	ltpFR	6	14	1	SIDEWALK	1303	n/a	n/a	0	0.57763671875	0.412841796875	1	upper	amplitud.ttf
2182551	WORD	wordpools/wasnorm_wordpool.txt	LTP150	ltpFR	6	14	1	BATTERY	101	n/a	n/a	0	0.57763671875	0.412841796875	1	upper	amplitud.ttf
2186691	WORD	wordpools/wasnorm_wordpool.txt	LTP150	ltpFR	6	14	1	MOTOR	922	n/a	n/a	0	0.57763671875	0.412841796875	1	upper	amplitud.ttf
2190706	WORD	wordpools/wasnorm_wordpool.txt	LTP150	ltpFR	6	14	1	SPAGHETTI	1346	n/a	n/a	0	0.57763671875	0.412841796875	1	upper	amplitud.ttf
2194530	WORD	wordpools/wasnorm_wordpool.txt	LTP150	ltpFR	6	14	1	SWIMMER	1420	n/a	n/a	1	0.57763671875	0.412841796875	1	upper	amplitud.ttf
2198487	WORD	wordpools/wasnorm_wordpool.txt	LTP150	ltpFR	6	14	1	MULE	931	n/a	n/a	1	0.57763671875	0.412841796875	1	upper	amplitud.ttf
2202461	WORD	wordpools/wasnorm_wordpool.txt	LTP150	ltpFR	6	14	1	MAMMAL	861	n/a	n/a	1	0.57763671875	0.412841796875	1	upper	amplitud.ttf
2208201	REC_START	n/a	LTP150	ltpFR	6	14	n/a	n/a	n/a	n/a	n/a	n/a	n/a	n/a	n/a	n/a	n/a
2209617	REC_WORD	wordpools/wasnorm_wordpool.txt	LTP150	ltpFR	6	14	1	MAMMAL	861	n/a	n/a	1	n/a	n/a	n/a	n/a	n/a
2211379	REC_WORD	wordpools/wasnorm_wordpool.txt	LTP150	ltpFR	6	14	1	MULE	931	n/a	n/a	1	n/a	n/a	n/a	n/a	n/a
2212800	REC_WORD	wordpools/wasnorm_wordpool.txt	LTP150	ltpFR	6	14	1	SWIMMER	1420	n/a	n/a	1	n/a	n/a	n/a	n/a	n/a
2223182	REC_WORD	wordpools/wasnorm_wordpool.txt	LTP150	ltpFR	6	14	1	CURB	426	n/a	n/a	0	n/a	n/a	n/a	n/a	n/a
2225112	REC_WORD	wordpools/wasnorm_wordpool.txt	LTP150	ltpFR	6	14	1	TRAITOR	1495	n/a	n/a	1	n/a	n/a	n/a	n/a	n/a
2227607	REC_WORD	wordpools/wasnorm_wordpool.txt	LTP150	ltpFR	6	14	1	YARN	1631	n/a	n/a	0	n/a	n/a	n/a	n/a	n/a
2232291	REC_WORD	wordpools/wasnorm_wordpool.txt	LTP150	ltpFR	6	14	1	HERD	705	n/a	n/a	0	n/a	n/a	n/a	n/a	n/a
2234152	REC_WORD	wordpools/wasnorm_wordpool.txt	LTP150	ltpFR	6	14	1	SUSPECT	1415	n/a	n/a	1	n/a	n/a	n/a	n/a	n/a
2235892	REC_WORD	wordpools/wasnorm_wordpool.txt	LTP150	ltpFR	6	14	1	SIDEWALK	1303	n/a	n/a	0	n/a	n/a	n/a	n/a	n/a
2237893	REC_WORD	wordpools/wasnorm_wordpool.txt	LTP150	ltpFR	6	14	1	BATTERY	101	n/a	n/a	0	n/a	n/a	n/a	n/a	n/a
2239754	REC_WORD	wordpools/wasnorm_wordpool.txt	LTP150	ltpFR	6	14	1	MOTOR	922	n/a	n/a	0	n/a	n/a	n/a	n/a	n/a
2241270	REC_WORD	wordpools/wasnorm_wordpool.txt	LTP150	ltpFR	6	14	1	SPAGHETTI	1346	n/a	n/a	0	n/a	n/a	n/a	n/a	n/a
2250424	REC_WORD	wordpools/wasnorm_wordpool.txt	LTP150	ltpFR	6	14	1	FLESH	579	n/a	n/a	1	n/a	n/a	n/a	n/a	n/a
2252250	REC_WORD	wordpools/wasnorm_wordpool.txt	LTP150	ltpFR	6	14	1	VELVET	1555	n/a	n/a	0	n/a	n/a	n/a	n/a	n/a
2253932	REC_WORD	wordpools/wasnorm_wordpool.txt	LTP150	ltpFR	6	14	1	SALMON	1227	n/a	n/a	1	n/a	n/a	n/a	n/a	n/a
2255817	REC_WORD	wordpools/wasnorm_wordpool.txt	LTP150	ltpFR	6	14	1	RACKET	1155	n/a	n/a	0	n/a	n/a	n/a	n/a	n/a
2286830	WORD	wordpools/wasnorm_wordpool.txt	LTP150	ltpFR	6	15	0	FELLOW	558	n/a	n/a	1	0.422607421875	0.5869140625	0	lower	zerothre.ttf
2290895	WORD	wordpools/wasnorm_wordpool.txt	LTP150	ltpFR	6	15	0	GOBLIN	645	n/a	n/a	1	0.422607421875	0.5869140625	0	lower	zerothre.ttf
2294852	WORD	wordpools/wasnorm_wordpool.txt	LTP150	ltpFR	6	15	0	DILL	465	n/a	n/a	0	0.422607421875	0.5869140625	0	lower	zerothre.ttf
2298826	WORD	wordpools/wasnorm_wordpool.txt	LTP150	ltpFR	6	15	0	CORPORATION	382	n/a	n/a	1	0.422607421875	0.5869140625	0	lower	zerothre.ttf
2302699	WORD	wordpools/wasnorm_wordpool.txt	LTP150	ltpFR	6	15	0	NICKEL	950	n/a	n/a	0	0.422607421875	0.5869140625	0	lower	zerothre.ttf
2306666	WORD	wordpools/wasnorm_wordpool.txt	LTP150	ltpFR	6	15	0	SHERIFF	1284	n/a	n/a	1	0.422607421875	0.5869140625	0	lower	zerothre.ttf
2310738	WORD	wordpools/wasnorm_wordpool.txt	LTP150	ltpFR	6	15	0	MONSTER	912	n/a	n/a	1	0.422607421875	0.5869140625	0	lower	zerothre.ttf
2314895	WORD	wordpools/wasnorm_wordpool.txt	LTP150	ltpFR	6	15	0	CRITIC	410	n/a	n/a	1	0.422607421875	0.5869140625	0	lower	zerothre.ttf
2318877	WORD	wordpools/wasnorm_wordpool.txt	LTP150	ltpFR	6	15	0	ALBUM	14	n/a	n/a	0	0.422607421875	0.5869140625	0	lower	zerothre.ttf
2323050	WORD	wordpools/wasnorm_wordpool.txt	LTP150	ltpFR	6	15	0	FLAG	573	n/a	n/a	1	0.422607421875	0.5869140625	0	lower	zerothre.ttf
2326966	WORD	wordpools/wasnorm_wordpool.txt	LTP150	ltpFR	6	15	0	PATRIOT	1026	n/a	n/a	1	0.422607421875	0.5869140625	0	lower	zerothre.ttf
2330956	WORD	wordpools/wasnorm_wordpool.txt	LTP150	ltpFR	6	15	0	BOTTLE	153	n/a	n/a	0	0.422607421875	0.5869140625	0	lower	zerothre.ttf
2335063	WORD	wordpools/wasnorm_wordpool.txt	LTP150	ltpFR	6	15	0	BUN	197	n/a	n/a	0	0.422607421875	0.5869140625	0	lower	zerothre.ttf
2339196	WORD	wordpools/wasnorm_wordpool.txt	LTP150	ltpFR	6	15	0	SCOTCH	1251	n/a	n/a	0	0.422607421875	0.5869140625	0	lower	zerothre.ttf
2343161	WORD	wordpools/wasnorm_wordpool.txt	LTP150	ltpFR	6	15	0	PUB	1135	n/a	n/a	1	0.422607421875	0.5869140625	0	lower	zerothre.ttf
2347067	WORD	wordpools/wasnorm_wordpool.txt	LTP150	ltpFR	6	15	0	PORTRAIT	1111	n/a	n/a	1	0.422607421875	0.5869140625	0	lower	zerothre.ttf
2352782	REC_START	n/a	LTP150	ltpFR	6	15	n/a	n/a	n/a	n/a	n/a	n/a	n/a	n/a	n/a	n/a	n/a
2354523	REC_WORD	wordpools/wasnorm_wordpool.txt	LTP150	ltpFR	6	15	0	PORTRAIT	1111	n/a	n/a	1	n/a	n/a	n/a	n/a	n/a
2356134	REC_WORD	wordpools/wasnorm_wordpool.txt	LTP150	ltpFR	6	15	0	PUB	1135	n/a	n/a	1	n/a	n/a	n/a	n/a	n/a
2357411	REC_WORD	wordpools/wasnorm_wordpool.txt	LTP150	ltpFR	6	15	0	SCOTCH	1251	n/a	n/a	0	n/a	n/a	n/a	n/a	n/a
2359257	REC_WORD	wordpools/wasnorm_wordpool.txt	LTP150	ltpFR	6	15	0	BUN	197	n/a	n/a	0	n/a	n/a	n/a	n/a	n/a
2367837	REC_WORD	wordpools/wasnorm_wordpool.txt	LTP150	ltpFR	6	15	0	FELLOW	558	n/a	n/a	1	n/a	n/a	n/a	n/a	n/a
2369973	REC_WORD	wordpools/wasnorm_wordpool.txt	LTP150	ltpFR	6	15	0	GOBLIN	645	n/a	n/a	1	n/a	n/a	n/a	n/a	n/a
2371933	REC_WORD	wordpools/wasnorm_wordpool.txt	LTP150	ltpFR	6	15	0	DILL	465	n/a	n/a	0	n/a	n/a	n/a	n/a	n/a
2373559	REC_WORD	wordpools/wasnorm_wordpool.txt	LTP150	ltpFR	6	15	0	CORPORATION	382	n/a	n/a	1	n/a	n/a	n/a	n/a	n/a
2376069	REC_WORD	wordpools/wasnorm_wordpool.txt	LTP150	ltpFR	6	15	0	NICKEL	950	n/a	n/a	0	n/a	n/a	n/a	n/a	n/a
2379716	REC_WORD	wordpools/wasnorm_wordpool.txt	LTP150	ltpFR	6	15	0	SHERIFF	1284	n/a	n/a	1	n/a	n/a	n/a	n/a	n/a
2381676	REC_WORD	wordpools/wasnorm_wordpool.txt	LTP150	ltpFR	6	15	0	MONSTER	912	n/a	n/a	1	n/a	n/a	n/a	n/a	n/a
2400009	REC_WORD	wordpools/wasnorm_wordpool.txt	LTP150	ltpFR	6	15	0	CRITIC	410	n/a	n/a	1	n/a	n/a	n/a	n/a	n/a
2401731	REC_WORD	wordpools/wasnorm_wordpool.txt	LTP150	ltpFR	6	15	0	ALBUM	14	n/a	n/a	0	n/a	n/a	n/a	n/a	n/a
2403271	REC_WORD	wordpools/wasnorm_wordpool.txt	LTP150	ltpFR	6	15	0	FLAG	573	n/a	n/a	1	n/a	n/a	n/a	n/a	n/a
2405098	REC_WORD	wordpools/wasnorm_wordpool.txt	LTP150	ltpFR	6	15	0	PATRIOT	1026	n/a	n/a	1	n/a	n/a	n/a	n/a	n/a
2406794	REC_WORD	wordpools/wasnorm_wordpool.txt	LTP150	ltpFR	6	15	0	BOTTLE	153	n/a	n/a	0	n/a	n/a	n/a	n/a	n/a
2408555	REC_WORD	wordpools/wasnorm_wordpool.txt	LTP150	ltpFR	6	15	0	BUN	197	n/a	n/a	0	n/a	n/a	n/a	n/a	n/a
2415699	REC_WORD	wordpools/wasnorm_wordpool.txt	LTP150	ltpFR	6	15	0	SCOTCH	1251	n/a	n/a	0	n/a	n/a	n/a	n/a	n/a
2430987	WORD	wordpools/wasnorm_wordpool.txt	LTP150	ltpFR	6	16	1	DANDELION	438	n/a	n/a	1	0.57763671875	0.412841796875	1	upper	amplitud.ttf
2434836	WORD	wordpools/wasnorm_wordpool.txt	LTP150	ltpFR	6	16	1	ROSE	1212	n/a	n/a	1	0.57763671875	0.412841796875	1	upper	amplitud.ttf
2438734	WORD	wordpools/wasnorm_wordpool.txt	LTP150	ltpFR	6	16	1	STONE	1385	n/a	n/a	0	0.57763671875	0.412841796875	1	upper	amplitud.ttf
2442916	WORD	wordpools/wasnorm_wordpool.txt	LTP150	ltpFR	6	16	1	SPACE	1345	n/a	n/a	0	0.57763671875	0.412841796875	1	upper	amplitud.ttf
2446981	WORD	wordpools/wasnorm_wordpool.txt	LTP150	ltpFR	6	16	0	STAR	1373	n/a	n/a	1	0.422607421875	0.5869140625	0	lower	zerothre.ttf
2450947	WORD	wordpools/wasnorm_wordpool.txt	LTP150	ltpFR	6	16	0	HALL	677	n/a	n/a	1	0.422607421875	0.5869140625	0	lower	zerothre.ttf
2455070	WORD	wordpools/wasnorm_wordpool.txt	LTP150	ltpFR	6	16	0	OCTOPUS	971	n/a	n/a	1	0.422607421875	0.5869140625	0	lower	zerothre.ttf
2459261	WORD	wordpools/wasnorm_wordpool.txt	LTP150	ltpFR	6	16	1	FOREST	593	n/a	n/a	1	0.57763671875	0.412841796875	1	upper	amplitud.ttf
2463393	WORD	wordpools/wasnorm_wordpool.txt	LTP150	ltpFR	6	16	1	CONVENT	370	n/a	n/a	0	0.57763671875	0.412841796875	1	upper	amplitud.ttf
2467500	WORD	wordpools/wasnorm_wordpool.txt	LTP150	ltpFR	6	16	1	BOULDER	155	n/a	n/a	0	0.57763671875	0.412841796875	1	upper	amplitud.ttf
2471657	WORD	wordpools/wasnorm_wordpool.txt	LTP150	ltpFR	6	16	1	BEET	115	n/a	n/a	1	0.57763671875	0.412841796875	1	upper	amplitud.ttf
2475522	WORD	wordpools/wasnorm_wordpool.txt	LTP150	ltpFR	6	16	0	COD	340	n/a	n/a	0	0.422607421875	0.5869140625	0	lower	zerothre.ttf
2479512	WORD	wordpools/wasnorm_wordpool.txt	LTP150	ltpFR	6	16	0	COURSE	390	n/a	n/a	1	0.422607421875	0.5869140625	0	lower	zerothre.ttf
2483503	WORD	wordpools/wasnorm_wordpool.txt	LTP150	ltpFR	6	16	0	DEPUTY	450	n/a	n/a	1	0.422607421875	0.5869140625	0	lower	zerothre.ttf
2487360	WORD	wordpools/wasnorm_wordpool.txt	LTP150	ltpFR	6	16	0	TREE	1502	n/a	n/a	1	0.422607421875	0.5869140625	0	lower	zerothre.ttf
2491208	WORD	wordpools/wasnorm_wordpool.txt	LTP150	ltpFR	6	16	0	PLAYGROUND	1087	n/a	n/a	1	0.422607421875	0.5869140625	0	lower	zerothre.ttf
2496973	REC_START	n/a	LTP150	ltpFR	6	16	n/a	n/a	n/a	n/a	n/a	n/a	n/a	n/a	n/a	n/a	n/a
2498270	REC_WORD	wordpools/wasnorm_wordpool.txt	LTP150	ltpFR	6	16	0	TREE	1502	n/a	n/a	1	n/a	n/a	n/a	n/a	n/a
2500130	REC_WORD	wordpools/wasnorm_wordpool.txt	LTP150	ltpFR	6	16	0	PLAYGROUND	1087	n/a	n/a	1	n/a	n/a	n/a	n/a	n/a
2508406	REC_WORD	wordpools/wasnorm_wordpool.txt	LTP150	ltpFR	6	16	1	FOREST	593	n/a	n/a	1	n/a	n/a	n/a	n/a	n/a
2510150	REC_WORD	wordpools/wasnorm_wordpool.txt	LTP150	ltpFR	6	16	1	CONVENT	370	n/a	n/a	0	n/a	n/a	n/a	n/a	n/a
2516528	REC_WORD	wordpools/wasnorm_wordpool.txt	LTP150	ltpFR	6	16	1	BOULDER	155	n/a	n/a	0	n/a	n/a	n/a	n/a	n/a
2519247	REC_WORD	wordpools/wasnorm_wordpool.txt	LTP150	ltpFR	6	16	0	COURSE	390	n/a	n/a	1	n/a	n/a	n/a	n/a	n/a
2521895	REC_WORD	wordpools/wasnorm_wordpool.txt	LTP150	ltpFR	6	16	0	DEPUTY	450	n/a	n/a	1	n/a	n/a	n/a	n/a	n/a
2530956	REC_WORD	wordpools/wasnorm_wordpool.txt	LTP150	ltpFR	6	16	0	TREE	1502	n/a	n/a	1	n/a	n/a	n/a	n/a	n/a
2538558	REC_WORD	wordpools/wasnorm_wordpool.txt	LTP150	ltpFR	6	16	1	DANDELION	438	n/a	n/a	1	n/a	n/a	n/a	n/a	n/a
2540718	REC_WORD	wordpools/wasnorm_wordpool.txt	LTP150	ltpFR	6	16	1	ROSE	1212	n/a	n/a	1	n/a	n/a	n/a	n/a	n/a
2542664	REC_WORD	wordpools/wasnorm_wordpool.txt	LTP150	ltpFR	6	16	1	STONE	1385	n/a	n/a	0	n/a	n/a	n/a	n/a	n/a
2544649	REC_WORD	wordpools/wasnorm_wordpool.txt	LTP150	ltpFR	6	16	1	SPACE	1345	n/a	n/a	0	n/a	n/a	n/a	n/a	n/a
2546849	REC_WORD	wordpools/wasnorm_wordpool.txt	LTP150	ltpFR	6	16	0	STAR	1373	n/a	n/a	1	n/a	n/a	n/a	n/a	n/a
2548765	REC_WORD	wordpools/wasnorm_wordpool.txt	LTP150	ltpFR	6	16	0	HALL	677	n/a	n/a	1	n/a	n/a	n/a	n/a	n/a
2550671	REC_WORD	wordpools/wasnorm_wordpool.txt	LTP150	ltpFR	6	16	0	OCTOPUS	971	n/a	n/a	1	n/a	n/a	n/a	n/a	n/a
2569408	REC_WORD	wordpools/wasnorm_wordpool.txt	LTP150	ltpFR	6	16	0	COD	340	n/a	n/a	0	n/a	n/a	n/a	n/a	n/a
2589782	REC_START	n/a	LTP150	ltpFR	6	1	n/a	n/a	n/a	n/a	n/a	n/a	n/a	n/a	n/a	n/a	n/a
2589814	RECOG_TARGET	n/a	LTP150	ltpFR	6	1	1	VISITOR	1573	1	5	1	n/a	n/a	n/a	n/a	n/a
2591278	RECOG_RESP	n/a	LTP150	ltpFR	6	1	1	VISITOR	1573	1	n/a	1	n/a	n/a	n/a	n/a	n/a
2592846	RECOG_CONF	n/a	LTP150	ltpFR	6	1	1	VISITOR	1573	n/a	5	1	n/a	n/a	n/a	n/a	n/a
2594521	RECOG_LURE	n/a	LTP150	ltpFR	6	1	n/a	BEDROOM	111	1	1	n/a	n/a	n/a	n/a	n/a	n/a
2595394	RECOG_RESP	n/a	LTP150	ltpFR	6	1	n/a	BEDROOM	111	1	n/a	n/a	n/a	n/a	n/a	n/a	n/a
2597051	RECOG_CONF	n/a	LTP150	ltpFR	6	1	n/a	BEDROOM	111	n/a	1	n/a	n/a	n/a	n/a	n/a	n/a
2598487	RECOG_TARGET	n/a	LTP150	ltpFR	6	1	-1	SHAMPOO	1274	1	5	-1	n/a	n/a	n/a	n/a	n/a
2599336	RECOG_RESP	n/a	LTP150	ltpFR	6	1	-1	SHAMPOO	1274	1	n/a	-1	n/a	n/a	n/a	n/a	n/a
2600997	RECOG_CONF	n/a	LTP150	ltpFR	6	1	-1	SHAMPOO	1274	n/a	5	-1	n/a	n/a	n/a	n/a	n/a
2602951	RECOG_TARGET	n/a	LTP150	ltpFR	6	1	1	MAMMAL	861	1	5	1	n/a	n/a	n/a	n/a	n/a
2603592	RECOG_RESP	n/a	LTP150	ltpFR	6	1	1	MAMMAL	861	1	n/a	1	n/a	n/a	n/a	n/a	n/a
2604962	RECOG_CONF	n/a	LTP150	ltpFR	6	1	1	MAMMAL	861	n/a	5	1	n/a	n/a	n/a	n/a	n/a
2606467	RECOG_TARGET	n/a	LTP150	ltpFR	6	1	1	SANDWICH	1232	1	5	0	n/a	n/a	n/a	n/a	n/a
2607028	RECOG_RESP	n/a	LTP150	ltpFR	6	1	1	SANDWICH	1232	1	n/a	0	n/a	n/a	n/a	n/a	n/a
2608414	RECOG_CONF	n/a	LTP150	ltpFR	6	1	1	SANDWICH	1232	n/a	5	0	n/a	n/a	n/a	n/a	n/a
2609865	RECOG_LURE	n/a	LTP150	ltpFR	6	1	n/a	PIER	1063	0	4	n/a	n/a	n/a	n/a	n/a	n/a
2610763	RECOG_RESP	n/a	LTP150	ltpFR	6	1	n/a	PIER	1063	0	n/a	n/a	n/a	n/a	n/a	n/a	n/a
2612254	RECOG_CONF	n/a	LTP150	ltpFR	6	1	n/a	PIER	1063	n/a	4	n/a	n/a	n/a	n/a	n/a	n/a
2613681	RECOG_LURE	n/a	LTP150	ltpFR	6	1	n/a	DISH	474	0	4	n/a	n/a	n/a	n/a	n/a	n/a
2614613	RECOG_RESP	n/a	LTP150	ltpFR	6	1	n/a	DISH	474	0	n/a	n/a	n/a	n/a	n/a	n/a	n/a
2616248	RECOG_CONF	n/a	LTP150	ltpFR	6	1	n/a	DISH	474	n/a	4	n/a	n/a	n/a	n/a	n/a	n/a
2617712	RECOG_LURE	n/a	LTP150	ltpFR	6	1	n/a	ANKLE	24	0	5	n/a	n/a	n/a	n/a	n/a	n/a
2618388	RECOG_RESP	n/a	LTP150	ltpFR	6	1	n/a	ANKLE	24	0	n/a	n/a	n/a	n/a	n/a	n/a	n/a
2619828	RECOG_CONF	n/a	LTP150	ltpFR	6	1	n/a	ANKLE	24	n/a	5	n/a	n/a	n/a	n/a	n/a	n/a
2621254	RECOG_TARGET	n/a	LTP150	ltpFR	6	1	1	MULE	931	1	5	1	n/a	n/a	n/a	n/a	n/a
2622011	RECOG_RESP	n/a	LTP150	ltpFR	6	1	1	MULE	931	1	n/a	1	n/a	n/a	n/a	n/a	n/a
2623500	RECOG_CONF	n/a	LTP150	ltpFR	6	1	1	MULE	931	n/a	5	1	n/a	n/a	n/a	n/a	n/a
2625010	RECOG_LURE	n/a	LTP150	ltpFR	6	1	n/a	THRONE	1461	0	3	n/a	n/a	n/a	n/a	n/a	n/a
2625985	RECOG_RESP	n/a	LTP150	ltpFR	6	1	n/a	THRONE	1461	0	n/a	n/a	n/a	n/a	n/a	n/a	n/a
2627633	RECOG_CONF	n/a	LTP150	ltpFR	6	1	n/a	THRONE	1461	n/a	3	n/a	n/a	n/a	n/a	n/a	n/a
2628950	RECOG_TARGET	n/a	LTP150	ltpFR	6	1	1	EGYPT	519	1	5	0	n/a	n/a	n/a	n/a	n/a
2629694	RECOG_RESP	n/a	LTP150	ltpFR	6	1	1	EGYPT	519	1	n/a	0	n/a	n/a	n/a	n/a	n/a
2631198	RECOG_CONF	n/a	LTP150	ltpFR	6	1	1	EGYPT	519	n/a	5	0	n/a	n/a	n/a	n/a	n/a
2632699	RECOG_TARGET	n/a	LTP150	ltpFR	6	1	1	CARNIVAL	245	1	3	0	n/a	n/a	n/a	n/a	n/a
2633756	RECOG_RESP	n/a	LTP150	ltpFR	6	1	1	CARNIVAL	245	1	n/a	0	n/a	n/a	n/a	n/a	n/a
2635197	RECOG_CONF	n/a	LTP150	ltpFR	6	1	1	CARNIVAL	245	n/a	3	0	n/a	n/a	n/a	n/a	n/a
2636590	RECOG_TARGET	n/a	LTP150	ltpFR	6	1	0	CHART	282	1	3	0	n/a	n/a	n/a	n/a	n/a
2637619	RECOG_RESP	n/a	LTP150	ltpFR	6	1	0	CHART	282	1	n/a	0	n/a	n/a	n/a	n/a	n/a
2639072	RECOG_CONF	n/a	LTP150	ltpFR	6	1	0	CHART	282	n/a	3	0	n/a	n/a	n/a	n/a	n/a
2640538	RECOG_TARGET	n/a	LTP150	ltpFR	6	1	0	FLEA	577	1	5	0	n/a	n/a	n/a	n/a	n/a
2641233	RECOG_RESP	n/a	LTP150	ltpFR	6	1	0	FLEA	577	1	n/a	0	n/a	n/a	n/a	n/a	n/a
2642627	RECOG_CONF	n/a	LTP150	ltpFR	6	1	0	FLEA	577	n/a	5	0	n/a	n/a	n/a	n/a	n/a
2644053	RECOG_LURE	n/a	LTP150	ltpFR	6	1	n/a	RIVER	1194	0	1	n/a	n/a	n/a	n/a	n/a	n/a
2645551	RECOG_RESP	n/a	LTP150	ltpFR	6	1	n/a	RIVER	1194	0	n/a	n/a	n/a	n/a	n/a	n/a	n/a
2646898	RECOG_CONF	n/a	LTP150	ltpFR	6	1	n/a	RIVER	1194	n/a	1	n/a	n/a	n/a	n/a	n/a	n/a
2648244	RECOG_TARGET	n/a	LTP150	ltpFR	6	1	0	ELM	527	1	3	1	n/a	n/a	n/a	n/a	n/a
2649640	RECOG_RESP	n/a	LTP150	ltpFR	6	1	0	ELM	527	1	n/a	1	n/a	n/a	n/a	n/a	n/a
2651356	RECOG_CONF	n/a	LTP150	ltpFR	6	1	0	ELM	527	n/a	3	1	n/a	n/a	n/a	n/a	n/a
2652750	RECOG_TARGET	n/a	LTP150	ltpFR	6	1	1	PIRATE	1074	1	5	1	n/a	n/a	n/a	n/a	n/a
2653413	RECOG_RESP	n/a	LTP150	ltpFR	6	1	1	PIRATE	1074	1	n/a	1	n/a	n/a	n/a	n/a	n/a
2654929	RECOG_CONF	n/a	LTP150	ltpFR	6	1	1	PIRATE	1074	n/a	5	1	n/a	n/a	n/a	n/a	n/a
2656283	RECOG_TARGET	n/a	LTP150	ltpFR	6	1	0	HARP	689	1	5	1	n/a	n/a	n/a	n/a	n/a
2656982	RECOG_RESP	n/a	LTP150	ltpFR	6	1	0	HARP	689	1	n/a	1	n/a	n/a	n/a	n/a	n/a
2658464	RECOG_CONF	n/a	LTP150	ltpFR	6	1	0	HARP	689	n/a	5	1	n/a	n/a	n/a	n/a	n/a
2659847	RECOG_LURE	n/a	LTP150	ltpFR	6	1	n/a	BISCUIT	130	0	1	n/a	n/a	n/a	n/a	n/a	n/a
2661287	RECOG_RESP	n/a	LTP150	ltpFR	6	1	n/a	BISCUIT	130	0	n/a	n/a	n/a	n/a	n/a	n/a	n/a
2662686	RECOG_CONF	n/a	LTP150	ltpFR	6	1	n/a	BISCUIT	130	n/a	1	n/a	n/a	n/a	n/a	n/a	n/a
2664180	RECOG_TARGET	n/a	LTP150	ltpFR	6	1	0	COPIER	377	1	5	1	n/a	n/a	n/a	n/a	n/a
2664966	RECOG_RESP	n/a	LTP150	ltpFR	6	1	0	COPIER	377	1	n/a	1	n/a	n/a	n/a	n/a	n/a
2666295	RECOG_CONF	n/a	LTP150	ltpFR	6	1	0	COPIER	377	n/a	5	1	n/a	n/a	n/a	n/a	n/a
2671328	REC_START	n/a	LTP150	ltpFR	6	2	n/a	n/a	n/a	n/a	n/a	n/a	n/a	n/a	n/a	n/a	n/a
2671361	RECOG_TARGET	n/a	LTP150	ltpFR	6	2	-1	PLIERS	1089	1	5	-1	n/a	n/a	n/a	n/a	n/a
2672137	RECOG_RESP	n/a	LTP150	ltpFR	6	2	-1	PLIERS	1089	1	n/a	-1	n/a	n/a	n/a	n/a	n/a
2673449	RECOG_CONF	n/a	LTP150	ltpFR	6	2	-1	PLIERS	1089	n/a	5	-1	n/a	n/a	n/a	n/a	n/a
2675058	RECOG_LURE	n/a	LTP150	ltpFR	6	2	n/a	THERMOMETER	1453	0	5	n/a	n/a	n/a	n/a	n/a	n/a
2675823	RECOG_RESP	n/a	LTP150	ltpFR	6	2	n/a	THERMOMETER	1453	0	n/a	n/a	n/a	n/a	n/a	n/a	n/a
2677100	RECOG_CONF	n/a	LTP150	ltpFR	6	2	n/a	THERMOMETER	1453	n/a	5	n/a	n/a	n/a	n/a	n/a	n/a
2678583	RECOG_TARGET	n/a	LTP150	ltpFR	6	2	1	DIAGRAM	456	1	3	0	n/a	n/a	n/a	n/a	n/a
2679572	RECOG_RESP	n/a	LTP150	ltpFR	6	2	1	DIAGRAM	456	1	n/a	0	n/a	n/a	n/a	n/a	n/a
2680980	RECOG_CONF	n/a	LTP150	ltpFR	6	2	1	DIAGRAM	456	n/a	3	0	n/a	n/a	n/a	n/a	n/a
2682315	RECOG_LURE	n/a	LTP150	ltpFR	6	2	n/a	SIREN	1310	0	4	n/a	n/a	n/a	n/a	n/a	n/a
2683108	RECOG_RESP	n/a	LTP150	ltpFR	6	2	n/a	SIREN	1310	0	n/a	n/a	n/a	n/a	n/a	n/a	n/a
2684541	RECOG_CONF	n/a	LTP150	ltpFR	6	2	n/a	SIREN	1310	n/a	4	n/a	n/a	n/a	n/a	n/a	n/a
2685963	RECOG_TARGET	n/a	LTP150	ltpFR	6	2	1	PICK	1058	1	5	0	n/a	n/a	n/a	n/a	n/a
2686653	RECOG_RESP	n/a	LTP150	ltpFR	6	2	1	PICK	1058	1	n/a	0	n/a	n/a	n/a	n/a	n/a
2688012	RECOG_CONF	n/a	LTP150	ltpFR	6	2	1	PICK	1058	n/a	5	0	n/a	n/a	n/a	n/a	n/a
2689554	RECOG_LURE	n/a	LTP150	ltpFR	6	2	n/a	ORCHID	982	0	5	n/a	n/a	n/a	n/a	n/a	n/a
2690149	RECOG_RESP	n/a	LTP150	ltpFR	6	2	n/a	ORCHID	982	0	n/a	n/a	n/a	n/a	n/a	n/a	n/a
2691462	RECOG_CONF	n/a	LTP150	ltpFR	6	2	n/a	ORCHID	982	n/a	5	n/a	n/a	n/a	n/a	n/a	n/a
2692985	RECOG_TARGET	n/a	LTP150	ltpFR	6	2	0	CUSTARD	429	1	5	0	n/a	n/a	n/a	n/a	n/a
2693560	RECOG_RESP	n/a	LTP150	ltpFR	6	2	0	CUSTARD	429	1	n/a	0	n/a	n/a	n/a	n/a	n/a
2694879	RECOG_CONF	n/a	LTP150	ltpFR	6	2	0	CUSTARD	429	n/a	5	0	n/a	n/a	n/a	n/a	n/a
2696477	RECOG_LURE	n/a	LTP150	ltpFR	6	2	n/a	REPORT	1184	0	2	n/a	n/a	n/a	n/a	n/a	n/a
2697615	RECOG_RESP	n/a	LTP150	ltpFR	6	2	n/a	REPORT	1184	0	n/a	n/a	n/a	n/a	n/a	n/a	n/a
2699382	RECOG_CONF	n/a	LTP150	ltpFR	6	2	n/a	REPORT	1184	n/a	2	n/a	n/a	n/a	n/a	n/a	n/a
2700799	RECOG_TARGET	n/a	LTP150	ltpFR	6	2	-1	MOSS	918	1	5	-1	n/a	n/a	n/a	n/a	n/a
2701539	RECOG_RESP	n/a	LTP150	ltpFR	6	2	-1	MOSS	918	1	n/a	-1	n/a	n/a	n/a	n/a	n/a
2703122	RECOG_CONF	n/a	LTP150	ltpFR	6	2	-1	MOSS	918	n/a	5	-1	n/a	n/a	n/a	n/a	n/a
2704641	RECOG_TARGET	n/a	LTP150	ltpFR	6	2	-1	LETTER	813	1	5	-1	n/a	n/a	n/a	n/a	n/a
2705282	RECOG_RESP	n/a	LTP150	ltpFR	6	2	-1	LETTER	813	1	n/a	-1	n/a	n/a	n/a	n/a	n/a
2706624	RECOG_CONF	n/a	LTP150	ltpFR	6	2	-1	LETTER	813	n/a	5	-1	n/a	n/a	n/a	n/a	n/a
2708139	RECOG_TARGET	n/a	LTP150	ltpFR	6	2	-1	MECHANIC	884	1	5	-1	n/a	n/a	n/a	n/a	n/a
2708762	RECOG_RESP	n/a	LTP150	ltpFR	6	2	-1	MECHANIC	884	1	n/a	-1	n/a	n/a	n/a	n/a	n/a
2710116	RECOG_CONF	n/a	LTP150	ltpFR	6	2	-1	MECHANIC	884	n/a	5	-1	n/a	n/a	n/a	n/a	n/a
2711621	RECOG_TARGET	n/a	LTP150	ltpFR	6	2	0	MOUNTAIN	924	1	5	1	n/a	n/a	n/a	n/a	n/a
2712547	RECOG_RESP	n/a	LTP150	ltpFR	6	2	0	MOUNTAIN	924	1	n/a	1	n/a	n/a	n/a	n/a	n/a
2713934	RECOG_CONF	n/a	LTP150	ltpFR	6	2	0	MOUNTAIN	924	n/a	5	1	n/a	n/a	n/a	n/a	n/a
2715437	RECOG_TARGET	n/a	LTP150	ltpFR	6	2	1	CELERY	266	1	5	1	n/a	n/a	n/a	n/a	n/a
2716085	RECOG_RESP	n/a	LTP150	ltpFR	6	2	1	CELERY	266	1	n/a	1	n/a	n/a	n/a	n/a	n/a
2717527	RECOG_CONF	n/a	LTP150	ltpFR	6	2	1	CELERY	266	n/a	5	1	n/a	n/a	n/a	n/a	n/a
2718984	RECOG_TARGET	n/a	LTP150	ltpFR	6	2	0	AMBULANCE	19	1	5	1	n/a	n/a	n/a	n/a	n/a
2719626	RECOG_RESP	n/a	LTP150	ltpFR	6	2	0	AMBULANCE	19	1	n/a	1	n/a	n/a	n/a	n/a	n/a
2720988	RECOG_CONF	n/a	LTP150	ltpFR	6	2	0	AMBULANCE	19	n/a	5	1	n/a	n/a	n/a	n/a	n/a
2722451	RECOG_TARGET	n/a	LTP150	ltpFR	6	2	0	STAR	1373	1	5	1	n/a	n/a	n/a	n/a	n/a
2723089	RECOG_RESP	n/a	LTP150	ltpFR	6	2	0	STAR	1373	1	n/a	1	n/a	n/a	n/a	n/a	n/a
2724497	RECOG_CONF	n/a	LTP150	ltpFR	6	2	0	STAR	1373	n/a	5	1	n/a	n/a	n/a	n/a	n/a
2725974	RECOG_TARGET	n/a	LTP150	ltpFR	6	2	0	FLAG	573	1	5	1	n/a	n/a	n/a	n/a	n/a
2726584	RECOG_RESP	n/a	LTP150	ltpFR	6	2	0	FLAG	573	1	n/a	1	n/a	n/a	n/a	n/a	n/a
2728054	RECOG_CONF	n/a	LTP150	ltpFR	6	2	0	FLAG	573	n/a	5	1	n/a	n/a	n/a	n/a	n/a
2729473	RECOG_LURE	n/a	LTP150	ltpFR	6	2	n/a	BOUILLON	154	0	5	n/a	n/a	n/a	n/a	n/a	n/a
2730144	RECOG_RESP	n/a	LTP150	ltpFR	6	2	n/a	BOUILLON	154	0	n/a	n/a	n/a	n/a	n/a	n/a	n/a
2731471	RECOG_CONF	n/a	LTP150	ltpFR	6	2	n/a	BOUILLON	154	n/a	5	n/a	n/a	n/a	n/a	n/a	n/a
2732971	RECOG_LURE	n/a	LTP150	ltpFR	6	2	n/a	TIGER	1467	0	5	n/a	n/a	n/a	n/a	n/a	n/a
2733546	RECOG_RESP	n/a	LTP150	ltpFR	6	2	n/a	TIGER	1467	0	n/a	n/a	n/a	n/a	n/a	n/a	n/a
2734948	RECOG_CONF	n/a	LTP150	ltpFR	6	2	n/a	TIGER	1467	n/a	5	n/a	n/a	n/a	n/a	n/a	n/a
2736396	RECOG_LURE	n/a	LTP150	ltpFR	6	2	n/a	ITEM	746	0	3	n/a	n/a	n/a	n/a	n/a	n/a
2737258	RECOG_RESP	n/a	LTP150	ltpFR	6	2	n/a	ITEM	746	0	n/a	n/a	n/a	n/a	n/a	n/a	n/a
2738784	RECOG_CONF	n/a	LTP150	ltpFR	6	2	n/a	ITEM	746	n/a	3	n/a	n/a	n/a	n/a	n/a	n/a
2740178	RECOG_TARGET	n/a	LTP150	ltpFR	6	2	1	BISON	131	1	5	1	n/a	n/a	n/a	n/a	n/a
2740820	RECOG_RESP	n/a	LTP150	ltpFR	6	2	1	BISON	131	1	n/a	1	n/a	n/a	n/a	n/a	n/a
2742263	RECOG_CONF	n/a	LTP150	ltpFR	6	2	1	BISON	131	n/a	5	1	n/a	n/a	n/a	n/a	n/a
2751428	REC_START	n/a	LTP150	ltpFR	6	3	n/a	n/a	n/a	n/a	n/a	n/a	n/a	n/a	n/a	n/a	n/a
2751457	RECOG_TARGET	n/a	LTP150	ltpFR	6	3	0	TREE	1502	1	5	1	n/a	n/a	n/a	n/a	n/a
2752074	RECOG_RESP	n/a	LTP150	ltpFR	6	3	0	TREE	1502	1	n/a	1	n/a	n/a	n/a	n/a	n/a
2753787	RECOG_CONF	n/a	LTP150	ltpFR	6	3	0	TREE	1502	n/a	5	1	n/a	n/a	n/a	n/a	n/a
2755323	RECOG_TARGET	n/a	LTP150	ltpFR	6	3	-1	LUMBER	848	1	5	-1	n/a	n/a	n/a	n/a	n/a
2755977	RECOG_RESP	n/a	LTP150	ltpFR	6	3	-1	LUMBER	848	1	n/a	-1	n/a	n/a	n/a	n/a	n/a
2757359	RECOG_CONF	n/a	LTP150	ltpFR	6	3	-1	LUMBER	848	n/a	5	-1	n/a	n/a	n/a	n/a	n/a
2758720	RECOG_TARGET	n/a	LTP150	ltpFR	6	3	0	EMPLOYEE	531	1	5	1	n/a	n/a	n/a	n/a	n/a
2759359	RECOG_RESP	n/a	LTP150	ltpFR	6	3	0	EMPLOYEE	531	1	n/a	1	n/a	n/a	n/a	n/a	n/a
2760682	RECOG_CONF	n/a	LTP150	ltpFR	6	3	0	EMPLOYEE	531	n/a	5	1	n/a	n/a	n/a	n/a	n/a
2762179	RECOG_TARGET	n/a	LTP150	ltpFR	6	3	0	SCOTCH	1251	1	5	0	n/a	n/a	n/a	n/a	n/a
2762766	RECOG_RESP	n/a	LTP150	ltpFR	6	3	0	SCOTCH	1251	1	n/a	0	n/a	n/a	n/a	n/a	n/a
2764086	RECOG_CONF	n/a	LTP150	ltpFR	6	3	0	SCOTCH	1251	n/a	5	0	n/a	n/a	n/a	n/a	n/a
2765602	RECOG_TARGET	n/a	LTP150	ltpFR	6	3	1	FIG	563	1	5	1	n/a	n/a	n/a	n/a	n/a
2766142	RECOG_RESP	n/a	LTP150	ltpFR	6	3	1	FIG	563	1	n/a	1	n/a	n/a	n/a	n/a	n/a
2767509	RECOG_CONF	n/a	LTP150	ltpFR	6	3	1	FIG	563	n/a	5	1	n/a	n/a	n/a	n/a	n/a
2768900	RECOG_TARGET	n/a	LTP150	ltpFR	6	3	1	WILDERNESS	1610	0	2	1	n/a	n/a	n/a	n/a	n/a
2770465	RECOG_RESP	n/a	LTP150	ltpFR	6	3	1	WILDERNESS	1610	0	n/a	1	n/a	n/a	n/a	n/a	n/a
2772084	RECOG_CONF	n/a	LTP150	ltpFR	6	3	1	WILDERNESS	1610	n/a	2	1	n/a	n/a	n/a	n/a	n/a
2773458	RECOG_TARGET	n/a	LTP150	ltpFR	6	3	-1	TYPEWRITER	1531	1	5	-1	n/a	n/a	n/a	n/a	n/a
2774648	RECOG_RESP	n/a	LTP150	ltpFR	6	3	-1	TYPEWRITER	1531	1	n/a	-1	n/a	n/a	n/a	n/a	n/a
2775982	RECOG_CONF	n/a	LTP150	ltpFR	6	3	-1	TYPEWRITER	1531	n/a	5	-1	n/a	n/a	n/a	n/a	n/a
2777548	RECOG_TARGET	n/a	LTP150	ltpFR	6	3	0	AIRCRAFT	11	1	5	1	n/a	n/a	n/a	n/a	n/a
2778331	RECOG_RESP	n/a	LTP150	ltpFR	6	3	0	AIRCRAFT	11	1	n/a	1	n/a	n/a	n/a	n/a	n/a
2779717	RECOG_CONF	n/a	LTP150	ltpFR	6	3	0	AIRCRAFT	11	n/a	5	1	n/a	n/a	n/a	n/a	n/a
2781205	RECOG_TARGET	n/a	LTP150	ltpFR	6	3	0	LIME	823	1	5	0	n/a	n/a	n/a	n/a	n/a
2781909	RECOG_RESP	n/a	LTP150	ltpFR	6	3	0	LIME	823	1	n/a	0	n/a	n/a	n/a	n/a	n/a
2783305	RECOG_CONF	n/a	LTP150	ltpFR	6	3	0	LIME	823	n/a	5	0	n/a	n/a	n/a	n/a	n/a
2784903	RECOG_LURE	n/a	LTP150	ltpFR	6	3	n/a	LADDER	793	0	2	n/a	n/a	n/a	n/a	n/a	n/a
2786524	RECOG_RESP	n/a	LTP150	ltpFR	6	3	n/a	LADDER	793	0	n/a	n/a	n/a	n/a	n/a	n/a	n/a
2787944	RECOG_CONF	n/a	LTP150	ltpFR	6	3	n/a	LADDER	793	n/a	2	n/a	n/a	n/a	n/a	n/a	n/a
2789352	RECOG_TARGET	n/a	LTP150	ltpFR	6	3	1	SUSPECT	1415	1	5	1	n/a	n/a	n/a	n/a	n/a
2790032	RECOG_RESP	n/a	LTP150	ltpFR	6	3	1	SUSPECT	1415	1	n/a	1	n/a	n/a	n/a	n/a	n/a
2791495	RECOG_CONF	n/a	LTP150	ltpFR	6	3	1	SUSPECT	1415	n/a	5	1	n/a	n/a	n/a	n/a	n/a
2792991	RECOG_LURE	n/a	LTP150	ltpFR	6	3	n/a	BEARD	107	0	5	n/a	n/a	n/a	n/a	n/a	n/a
2793659	RECOG_RESP	n/a	LTP150	ltpFR	6	3	n/a	BEARD	107	0	n/a	n/a	n/a	n/a	n/a	n/a	n/a
2794905	RECOG_CONF	n/a	LTP150	ltpFR	6	3	n/a	BEARD	107	n/a	5	n/a	n/a	n/a	n/a	n/a	n/a
2796400	RECOG_LURE	n/a	LTP150	ltpFR	6	3	n/a	BLANKET	135	0	3	n/a	n/a	n/a	n/a	n/a	n/a
2797419	RECOG_RESP	n/a	LTP150	ltpFR	6	3	n/a	BLANKET	135	0	n/a	n/a	n/a	n/a	n/a	n/a	n/a
2798814	RECOG_CONF	n/a	LTP150	ltpFR	6	3	n/a	BLANKET	135	n/a	3	n/a	n/a	n/a	n/a	n/a	n/a
2800031	RECOG_TARGET	n/a	LTP150	ltpFR	6	3	-1	SKILLET	1317	1	5	-1	n/a	n/a	n/a	n/a	n/a
2800835	RECOG_RESP	n/a	LTP150	ltpFR	6	3	-1	SKILLET	1317	1	n/a	-1	n/a	n/a	n/a	n/a	n/a
2802256	RECOG_CONF	n/a	LTP150	ltpFR	6	3	-1	SKILLET	1317	n/a	5	-1	n/a	n/a	n/a	n/a	n/a
2803779	RECOG_TARGET	n/a	LTP150	ltpFR	6	3	0	PERISCOPE	1050	1	3	1	n/a	n/a	n/a	n/a	n/a
2805480	RECOG_RESP	n/a	LTP150	ltpFR	6	3	0	PERISCOPE	1050	1	n/a	1	n/a	n/a	n/a	n/a	n/a
2807712	RECOG_CONF	n/a	LTP150	ltpFR	6	3	0	PERISCOPE	1050	n/a	3	1	n/a	n/a	n/a	n/a	n/a
2809052	RECOG_TARGET	n/a	LTP150	ltpFR	6	3	1	LAGOON	795	1	5	1	n/a	n/a	n/a	n/a	n/a
2809760	RECOG_RESP	n/a	LTP150	ltpFR	6	3	1	LAGOON	795	1	n/a	1	n/a	n/a	n/a	n/a	n/a
2811057	RECOG_CONF	n/a	LTP150	ltpFR	6	3	1	LAGOON	795	n/a	5	1	n/a	n/a	n/a	n/a	n/a
2812486	RECOG_TARGET	n/a	LTP150	ltpFR	6	3	1	VIKING	1565	1	5	1	n/a	n/a	n/a	n/a	n/a
2813153	RECOG_RESP	n/a	LTP150	ltpFR	6	3	1	VIKING	1565	1	n/a	1	n/a	n/a	n/a	n/a	n/a
2814530	RECOG_CONF	n/a	LTP150	ltpFR	6	3	1	VIKING	1565	n/a	5	1	n/a	n/a	n/a	n/a	n/a
2815950	RECOG_LURE	n/a	LTP150	ltpFR	6	3	n/a	HINGE	709	0	5	n/a	n/a	n/a	n/a	n/a	n/a
2816742	RECOG_RESP	n/a	LTP150	ltpFR	6	3	n/a	HINGE	709	0	n/a	n/a	n/a	n/a	n/a	n/a	n/a
2818131	RECOG_CONF	n/a	LTP150	ltpFR	6	3	n/a	HINGE	709	n/a	5	n/a	n/a	n/a	n/a	n/a	n/a
2819533	RECOG_TARGET	n/a	LTP150	ltpFR	6	3	1	GUEST	669	1	5	1	n/a	n/a	n/a	n/a	n/a
2820171	RECOG_RESP	n/a	LTP150	ltpFR	6	3	1	GUEST	669	1	n/a	1	n/a	n/a	n/a	n/a	n/a
2821518	RECOG_CONF	n/a	LTP150	ltpFR	6	3	1	GUEST	669	n/a	5	1	n/a	n/a	n/a	n/a	n/a
2823006	RECOG_LURE	n/a	LTP150	ltpFR	6	3	n/a	PAN	1008	0	3	n/a	n/a	n/a	n/a	n/a	n/a
2823892	RECOG_RESP	n/a	LTP150	ltpFR	6	3	n/a	PAN	1008	0	n/a	n/a	n/a	n/a	n/a	n/a	n/a
2825380	RECOG_CONF	n/a	LTP150	ltpFR	6	3	n/a	PAN	1008	n/a	3	n/a	n/a	n/a	n/a	n/a	n/a
2828234	REC_START	n/a	LTP150	ltpFR	6	4	n/a	n/a	n/a	n/a	n/a	n/a	n/a	n/a	n/a	n/a	n/a
2828263	RECOG_LURE	n/a	LTP150	ltpFR	6	4	n/a	SOFA	1342	0	3	n/a	n/a	n/a	n/a	n/a	n/a
2828990	RECOG_RESP	n/a	LTP150	ltpFR	6	4	n/a	SOFA	1342	0	n/a	n/a	n/a	n/a	n/a	n/a	n/a
2830421	RECOG_CONF	n/a	LTP150	ltpFR	6	4	n/a	SOFA	1342	n/a	3	n/a	n/a	n/a	n/a	n/a	n/a
2831719	RECOG_TARGET	n/a	LTP150	ltpFR	6	4	0	SHERIFF	1284	1	5	1	n/a	n/a	n/a	n/a	n/a
2832338	RECOG_RESP	n/a	LTP150	ltpFR	6	4	0	SHERIFF	1284	1	n/a	1	n/a	n/a	n/a	n/a	n/a
2833682	RECOG_CONF	n/a	LTP150	ltpFR	6	4	0	SHERIFF	1284	n/a	5	1	n/a	n/a	n/a	n/a	n/a
2835119	RECOG_TARGET	n/a	LTP150	ltpFR	6	4	-1	MONK	910	1	5	-1	n/a	n/a	n/a	n/a	n/a
2835661	RECOG_RESP	n/a	LTP150	ltpFR	6	4	-1	MONK	910	1	n/a	-1	n/a	n/a	n/a	n/a	n/a
2837009	RECOG_CONF	n/a	LTP150	ltpFR	6	4	-1	MONK	910	n/a	5	-1	n/a	n/a	n/a	n/a	n/a
2838451	RECOG_TARGET	n/a	LTP150	ltpFR	6	4	-1	MIRROR	899	1	5	-1	n/a	n/a	n/a	n/a	n/a
2839043	RECOG_RESP	n/a	LTP150	ltpFR	6	4	-1	MIRROR	899	1	n/a	-1	n/a	n/a	n/a	n/a	n/a
2840348	RECOG_CONF	n/a	LTP150	ltpFR	6	4	-1	MIRROR	899	n/a	5	-1	n/a	n/a	n/a	n/a	n/a
2841899	RECOG_TARGET	n/a	LTP150	ltpFR	6	4	1	SHEPHERD	1283	1	5	1	n/a	n/a	n/a	n/a	n/a
2842687	RECOG_RESP	n/a	LTP150	ltpFR	6	4	1	SHEPHERD	1283	1	n/a	1	n/a	n/a	n/a	n/a	n/a
2843966	RECOG_CONF	n/a	LTP150	ltpFR	6	4	1	SHEPHERD	1283	n/a	5	1	n/a	n/a	n/a	n/a	n/a
2845366	RECOG_TARGET	n/a	LTP150	ltpFR	6	4	0	EMPLOYER	532	1	5	1	n/a	n/a	n/a	n/a	n/a
2845988	RECOG_RESP	n/a	LTP150	ltpFR	6	4	0	EMPLOYER	532	1	n/a	1	n/a	n/a	n/a	n/a	n/a
2847208	RECOG_CONF	n/a	LTP150	ltpFR	6	4	0	EMPLOYER	532	n/a	5	1	n/a	n/a	n/a	n/a	n/a
2848648	RECOG_TARGET	n/a	LTP150	ltpFR	6	4	-1	EXPERT	543	1	5	-1	n/a	n/a	n/a	n/a	n/a
2849566	RECOG_RESP	n/a	LTP150	ltpFR	6	4	-1	EXPERT	543	1	n/a	-1	n/a	n/a	n/a	n/a	n/a
2850760	RECOG_CONF	n/a	LTP150	ltpFR	6	4	-1	EXPERT	543	n/a	5	-1	n/a	n/a	n/a	n/a	n/a
2852213	RECOG_TARGET	n/a	LTP150	ltpFR	6	4	1	NOTEBOOK	959	1	5	0	n/a	n/a	n/a	n/a	n/a
2852825	RECOG_RESP	n/a	LTP150	ltpFR	6	4	1	NOTEBOOK	959	1	n/a	0	n/a	n/a	n/a	n/a	n/a
2854095	RECOG_CONF	n/a	LTP150	ltpFR	6	4	1	NOTEBOOK	959	n/a	5	0	n/a	n/a	n/a	n/a	n/a
2855570	RECOG_TARGET	n/a	LTP150	ltpFR	6	4	0	SHELL	1281	1	5	0	n/a	n/a	n/a	n/a	n/a
2856134	RECOG_RESP	n/a	LTP150	ltpFR	6	4	0	SHELL	1281	1	n/a	0	n/a	n/a	n/a	n/a	n/a
2857436	RECOG_CONF	n/a	LTP150	ltpFR	6	4	0	SHELL	1281	n/a	5	0	n/a	n/a	n/a	n/a	n/a
2858885	RECOG_TARGET	n/a	LTP150	ltpFR	6	4	1	VIOLIN	1571	1	5	0	n/a	n/a	n/a	n/a	n/a
2859364	RECOG_RESP	n/a	LTP150	ltpFR	6	4	1	VIOLIN	1571	1	n/a	0	n/a	n/a	n/a	n/a	n/a
2860672	RECOG_CONF	n/a	LTP150	ltpFR	6	4	1	VIOLIN	1571	n/a	5	0	n/a	n/a	n/a	n/a	n/a
2862050	RECOG_LURE	n/a	LTP150	ltpFR	6	4	n/a	SHRINE	1298	0	3	n/a	n/a	n/a	n/a	n/a	n/a
2862974	RECOG_RESP	n/a	LTP150	ltpFR	6	4	n/a	SHRINE	1298	0	n/a	n/a	n/a	n/a	n/a	n/a	n/a
2864472	RECOG_CONF	n/a	LTP150	ltpFR	6	4	n/a	SHRINE	1298	n/a	3	n/a	n/a	n/a	n/a	n/a	n/a
2865667	RECOG_TARGET	n/a	LTP150	ltpFR	6	4	-1	SALOON	1228	1	5	-1	n/a	n/a	n/a	n/a	n/a
2866340	RECOG_RESP	n/a	LTP150	ltpFR	6	4	-1	SALOON	1228	1	n/a	-1	n/a	n/a	n/a	n/a	n/a
2867582	RECOG_CONF	n/a	LTP150	ltpFR	6	4	-1	SALOON	1228	n/a	5	-1	n/a	n/a	n/a	n/a	n/a
2869064	RECOG_TARGET	n/a	LTP150	ltpFR	6	4	0	PUMPKIN	1142	1	5	1	n/a	n/a	n/a	n/a	n/a
2869575	RECOG_RESP	n/a	LTP150	ltpFR	6	4	0	PUMPKIN	1142	1	n/a	1	n/a	n/a	n/a	n/a	n/a
2870794	RECOG_CONF	n/a	LTP150	ltpFR	6	4	0	PUMPKIN	1142	n/a	5	1	n/a	n/a	n/a	n/a	n/a
2872223	RECOG_TARGET	n/a	LTP150	ltpFR	6	4	-1	STRAW	1390	1	5	-1	n/a	n/a	n/a	n/a	n/a
2872783	RECOG_RESP	n/a	LTP150	ltpFR	6	4	-1	STRAW	1390	1	n/a	-1	n/a	n/a	n/a	n/a	n/a
2874006	RECOG_CONF	n/a	LTP150	ltpFR	6	4	-1	STRAW	1390	n/a	5	-1	n/a	n/a	n/a	n/a	n/a
2875471	RECOG_TARGET	n/a	LTP150	ltpFR	6	4	-1	POTATO	1115	1	5	-1	n/a	n/a	n/a	n/a	n/a
2875965	RECOG_RESP	n/a	LTP150	ltpFR	6	4	-1	POTATO	1115	1	n/a	-1	n/a	n/a	n/a	n/a	n/a
2877134	RECOG_CONF	n/a	LTP150	ltpFR	6	4	-1	POTATO	1115	n/a	5	-1	n/a	n/a	n/a	n/a	n/a
2878587	RECOG_LURE	n/a	LTP150	ltpFR	6	4	n/a	SCHOOL	1248	0	3	n/a	n/a	n/a	n/a	n/a	n/a
2879545	RECOG_RESP	n/a	LTP150	ltpFR	6	4	n/a	SCHOOL	1248	0	n/a	n/a	n/a	n/a	n/a	n/a	n/a
2880907	RECOG_CONF	n/a	LTP150	ltpFR	6	4	n/a	SCHOOL	1248	n/a	3	n/a	n/a	n/a	n/a	n/a	n/a
2882127	RECOG_TARGET	n/a	LTP150	ltpFR	6	4	1	FRAGRANCE	599	1	5	0	n/a	n/a	n/a	n/a	n/a
2883081	RECOG_RESP	n/a	LTP150	ltpFR	6	4	1	FRAGRANCE	599	1	n/a	0	n/a	n/a	n/a	n/a	n/a
2884331	RECOG_CONF	n/a	LTP150	ltpFR	6	4	1	FRAGRANCE	599	n/a	5	0	n/a	n/a	n/a	n/a	n/a
2885717	RECOG_TARGET	n/a	LTP150	ltpFR	6	4	0	SLOPE	1328	1	5	0	n/a	n/a	n/a	n/a	n/a
2886285	RECOG_RESP	n/a	LTP150	ltpFR	6	4	0	SLOPE	1328	1	n/a	0	n/a	n/a	n/a	n/a	n/a
2887539	RECOG_CONF	n/a	LTP150	ltpFR	6	4	0	SLOPE	1328	n/a	5	0	n/a	n/a	n/a	n/a	n/a
2889049	RECOG_TARGET	n/a	LTP150	ltpFR	6	4	1	TIMBER	1469	1	5	0	n/a	n/a	n/a	n/a	n/a
2889586	RECOG_RESP	n/a	LTP150	ltpFR	6	4	1	TIMBER	1469	1	n/a	0	n/a	n/a	n/a	n/a	n/a
2890838	RECOG_CONF	n/a	LTP150	ltpFR	6	4	1	TIMBER	1469	n/a	5	0	n/a	n/a	n/a	n/a	n/a
2892307	RECOG_TARGET	n/a	LTP150	ltpFR	6	4	0	REFEREE	1178	1	5	1	n/a	n/a	n/a	n/a	n/a
2892868	RECOG_RESP	n/a	LTP150	ltpFR	6	4	0	REFEREE	1178	1	n/a	1	n/a	n/a	n/a	n/a	n/a
2894099	RECOG_CONF	n/a	LTP150	ltpFR	6	4	0	REFEREE	1178	n/a	5	1	n/a	n/a	n/a	n/a	n/a
2897274	REC_START	n/a	LTP150	ltpFR	6	5	n/a	n/a	n/a	n/a	n/a	n/a	n/a	n/a	n/a	n/a	n/a
2897314	RECOG_TARGET	n/a	LTP150	ltpFR	6	5	1	BATTERY	101	1	5	0	n/a	n/a	n/a	n/a	n/a
2897897	RECOG_RESP	n/a	LTP150	ltpFR	6	5	1	BATTERY	101	1	n/a	0	n/a	n/a	n/a	n/a	n/a
2899090	RECOG_CONF	n/a	LTP150	ltpFR	6	5	1	BATTERY	101	n/a	5	0	n/a	n/a	n/a	n/a	n/a
2900546	RECOG_TARGET	n/a	LTP150	ltpFR	6	5	-1	PURSE	1145	1	5	-1	n/a	n/a	n/a	n/a	n/a
2901016	RECOG_RESP	n/a	LTP150	ltpFR	6	5	-1	PURSE	1145	1	n/a	-1	n/a	n/a	n/a	n/a	n/a
2902194	RECOG_CONF	n/a	LTP150	ltpFR	6	5	-1	PURSE	1145	n/a	5	-1	n/a	n/a	n/a	n/a	n/a
2903495	RECOG_TARGET	n/a	LTP150	ltpFR	6	5	0	OATS	968	1	5	0	n/a	n/a	n/a	n/a	n/a
2904035	RECOG_RESP	n/a	LTP150	ltpFR	6	5	0	OATS	968	1	n/a	0	n/a	n/a	n/a	n/a	n/a
2905236	RECOG_CONF	n/a	LTP150	ltpFR	6	5	0	OATS	968	n/a	5	0	n/a	n/a	n/a	n/a	n/a
2906734	RECOG_TARGET	n/a	LTP150	ltpFR	6	5	1	FRUIT	610	1	5	1	n/a	n/a	n/a	n/a	n/a
2907421	RECOG_RESP	n/a	LTP150	ltpFR	6	5	1	FRUIT	610	1	n/a	1	n/a	n/a	n/a	n/a	n/a
2908522	RECOG_CONF	n/a	LTP150	ltpFR	6	5	1	FRUIT	610	n/a	5	1	n/a	n/a	n/a	n/a	n/a
2910050	RECOG_LURE	n/a	LTP150	ltpFR	6	5	n/a	WINDOW	1611	0	3	n/a	n/a	n/a	n/a	n/a	n/a
2911290	RECOG_RESP	n/a	LTP150	ltpFR	6	5	n/a	WINDOW	1611	0	n/a	n/a	n/a	n/a	n/a	n/a	n/a
2912713	RECOG_CONF	n/a	LTP150	ltpFR	6	5	n/a	WINDOW	1611	n/a	3	n/a	n/a	n/a	n/a	n/a	n/a
2914065	RECOG_TARGET	n/a	LTP150	ltpFR	6	5	-1	RIBBON	1189	1	5	-1	n/a	n/a	n/a	n/a	n/a
2914723	RECOG_RESP	n/a	LTP150	ltpFR	6	5	-1	RIBBON	1189	1	n/a	-1	n/a	n/a	n/a	n/a	n/a
2916082	RECOG_CONF	n/a	LTP150	ltpFR	6	5	-1	RIBBON	1189	n/a	5	-1	n/a	n/a	n/a	n/a	n/a
2917590	RECOG_TARGET	n/a	LTP150	ltpFR	6	5	0	SLIME	1327	1	5	0	n/a	n/a	n/a	n/a	n/a
2918088	RECOG_RESP	n/a	LTP150	ltpFR	6	5	0	SLIME	1327	1	n/a	0	n/a	n/a	n/a	n/a	n/a
2919303	RECOG_CONF	n/a	LTP150	ltpFR	6	5	0	SLIME	1327	n/a	5	0	n/a	n/a	n/a	n/a	n/a
2920838	RECOG_TARGET	n/a	LTP150	ltpFR	6	5	-1	POISON	1096	1	5	-1	n/a	n/a	n/a	n/a	n/a
2921366	RECOG_RESP	n/a	LTP150	ltpFR	6	5	-1	POISON	1096	1	n/a	-1	n/a	n/a	n/a	n/a	n/a
2922605	RECOG_CONF	n/a	LTP150	ltpFR	6	5	-1	POISON	1096	n/a	5	-1	n/a	n/a	n/a	n/a	n/a
2924112	RECOG_TARGET	n/a	LTP150	ltpFR	6	5	1	DOUGHNUT	490	1	5	0	n/a	n/a	n/a	n/a	n/a
2924676	RECOG_RESP	n/a	LTP150	ltpFR	6	5	1	DOUGHNUT	490	1	n/a	0	n/a	n/a	n/a	n/a	n/a
2926039	RECOG_CONF	n/a	LTP150	ltpFR	6	5	1	DOUGHNUT	490	n/a	5	0	n/a	n/a	n/a	n/a	n/a
2927403	RECOG_TARGET	n/a	LTP150	ltpFR	6	5	1	DOVE	491	1	5	1	n/a	n/a	n/a	n/a	n/a
2927922	RECOG_RESP	n/a	LTP150	ltpFR	6	5	1	DOVE	491	1	n/a	1	n/a	n/a	n/a	n/a	n/a
2929196	RECOG_CONF	n/a	LTP150	ltpFR	6	5	1	DOVE	491	n/a	5	1	n/a	n/a	n/a	n/a	n/a
2930759	RECOG_LURE	n/a	LTP150	ltpFR	6	5	n/a	FACTORY	548	1	1	n/a	n/a	n/a	n/a	n/a	n/a
2932540	RECOG_RESP	n/a	LTP150	ltpFR	6	5	n/a	FACTORY	548	1	n/a	n/a	n/a	n/a	n/a	n/a	n/a
2933861	RECOG_CONF	n/a	LTP150	ltpFR	6	5	n/a	FACTORY	548	n/a	1	n/a	n/a	n/a	n/a	n/a	n/a
2935425	RECOG_LURE	n/a	LTP150	ltpFR	6	5	n/a	SPONGE	1355	0	3	n/a	n/a	n/a	n/a	n/a	n/a
2936462	RECOG_RESP	n/a	LTP150	ltpFR	6	5	n/a	SPONGE	1355	0	n/a	n/a	n/a	n/a	n/a	n/a	n/a
2937996	RECOG_CONF	n/a	LTP150	ltpFR	6	5	n/a	SPONGE	1355	n/a	3	n/a	n/a	n/a	n/a	n/a	n/a
2939374	RECOG_LURE	n/a	LTP150	ltpFR	6	5	n/a	SHOE	1288	0	2	n/a	n/a	n/a	n/a	n/a	n/a
2940947	RECOG_RESP	n/a	LTP150	ltpFR	6	5	n/a	SHOE	1288	0	n/a	n/a	n/a	n/a	n/a	n/a	n/a
2942372	RECOG_CONF	n/a	LTP150	ltpFR	6	5	n/a	SHOE	1288	n/a	2	n/a	n/a	n/a	n/a	n/a	n/a
2943738	RECOG_TARGET	n/a	LTP150	ltpFR	6	5	-1	PAWN	1030	1	5	-1	n/a	n/a	n/a	n/a	n/a
2944353	RECOG_RESP	n/a	LTP150	ltpFR	6	5	-1	PAWN	1030	1	n/a	-1	n/a	n/a	n/a	n/a	n/a
2945649	RECOG_CONF	n/a	LTP150	ltpFR	6	5	-1	PAWN	1030	n/a	5	-1	n/a	n/a	n/a	n/a	n/a
2947053	RECOG_LURE	n/a	LTP150	ltpFR	6	5	n/a	YOUTH	1634	0	3	n/a	n/a	n/a	n/a	n/a	n/a
2947745	RECOG_RESP	n/a	LTP150	ltpFR	6	5	n/a	YOUTH	1634	0	n/a	n/a	n/a	n/a	n/a	n/a	n/a
2949217	RECOG_CONF	n/a	LTP150	ltpFR	6	5	n/a	YOUTH	1634	n/a	3	n/a	n/a	n/a	n/a	n/a	n/a
2950445	RECOG_TARGET	n/a	LTP150	ltpFR	6	5	1	WASHCLOTH	1591	1	5	0	n/a	n/a	n/a	n/a	n/a
2951064	RECOG_RESP	n/a	LTP150	ltpFR	6	5	1	WASHCLOTH	1591	1	n/a	0	n/a	n/a	n/a	n/a	n/a
2952269	RECOG_CONF	n/a	LTP150	ltpFR	6	5	1	WASHCLOTH	1591	n/a	5	0	n/a	n/a	n/a	n/a	n/a
2953726	RECOG_LURE	n/a	LTP150	ltpFR	6	5	n/a	CRATER	400	0	5	n/a	n/a	n/a	n/a	n/a	n/a
2954499	RECOG_RESP	n/a	LTP150	ltpFR	6	5	n/a	CRATER	400	0	n/a	n/a	n/a	n/a	n/a	n/a	n/a
2955683	RECOG_CONF	n/a	LTP150	ltpFR	6	5	n/a	CRATER	400	n/a	5	n/a	n/a	n/a	n/a	n/a	n/a
2957301	RECOG_TARGET	n/a	LTP150	ltpFR	6	5	-1	BRIEFCASE	175	1	5	-1	n/a	n/a	n/a	n/a	n/a
2957941	RECOG_RESP	n/a	LTP150	ltpFR	6	5	-1	BRIEFCASE	175	1	n/a	-1	n/a	n/a	n/a	n/a	n/a
2959129	RECOG_CONF	n/a	LTP150	ltpFR	6	5	-1	BRIEFCASE	175	n/a	5	-1	n/a	n/a	n/a	n/a	n/a
2960533	RECOG_TARGET	n/a	LTP150	ltpFR	6	5	1	SALMON	1227	1	5	1	n/a	n/a	n/a	n/a	n/a
2961060	RECOG_RESP	n/a	LTP150	ltpFR	6	5	1	SALMON	1227	1	n/a	1	n/a	n/a	n/a	n/a	n/a
2962326	RECOG_CONF	n/a	LTP150	ltpFR	6	5	1	SALMON	1227	n/a	5	1	n/a	n/a	n/a	n/a	n/a
2963831	RECOG_TARGET	n/a	LTP150	ltpFR	6	5	-1	BAKER	71	1	5	-1	n/a	n/a	n/a	n/a	n/a
2964579	RECOG_RESP	n/a	LTP150	ltpFR	6	5	-1	BAKER	71	1	n/a	-1	n/a	n/a	n/a	n/a	n/a
2965946	RECOG_CONF	n/a	LTP150	ltpFR	6	5	-1	BAKER	71	n/a	5	-1	n/a	n/a	n/a	n/a	n/a
2969185	REC_START	n/a	LTP150	ltpFR	6	6	n/a	n/a	n/a	n/a	n/a	n/a	n/a	n/a	n/a	n/a	n/a
2969221	RECOG_LURE	n/a	LTP150	ltpFR	6	6	n/a	MUSTARD	935	0	5	n/a	n/a	n/a	n/a	n/a	n/a
2970101	RECOG_RESP	n/a	LTP150	ltpFR	6	6	n/a	MUSTARD	935	0	n/a	n/a	n/a	n/a	n/a	n/a	n/a
2971381	RECOG_CONF	n/a	LTP150	ltpFR	6	6	n/a	MUSTARD	935	n/a	5	n/a	n/a	n/a	n/a	n/a	n/a
2972927	RECOG_LURE	n/a	LTP150	ltpFR	6	6	n/a	TORCH	1484	0	1	n/a	n/a	n/a	n/a	n/a	n/a
2974954	RECOG_RESP	n/a	LTP150	ltpFR	6	6	n/a	TORCH	1484	0	n/a	n/a	n/a	n/a	n/a	n/a	n/a
2976134	RECOG_CONF	n/a	LTP150	ltpFR	6	6	n/a	TORCH	1484	n/a	1	n/a	n/a	n/a	n/a	n/a	n/a
2977602	RECOG_TARGET	n/a	LTP150	ltpFR	6	6	-1	PALM	1007	1	5	-1	n/a	n/a	n/a	n/a	n/a
2978310	RECOG_RESP	n/a	LTP150	ltpFR	6	6	-1	PALM	1007	1	n/a	-1	n/a	n/a	n/a	n/a	n/a
2979675	RECOG_CONF	n/a	LTP150	ltpFR	6	6	-1	PALM	1007	n/a	5	-1	n/a	n/a	n/a	n/a	n/a
2981242	RECOG_TARGET	n/a	LTP150	ltpFR	6	6	0	LAVA	804	1	5	0	n/a	n/a	n/a	n/a	n/a
2981867	RECOG_RESP	n/a	LTP150	ltpFR	6	6	0	LAVA	804	1	n/a	0	n/a	n/a	n/a	n/a	n/a
2983095	RECOG_CONF	n/a	LTP150	ltpFR	6	6	0	LAVA	804	n/a	5	0	n/a	n/a	n/a	n/a	n/a
2984608	RECOG_TARGET	n/a	LTP150	ltpFR	6	6	-1	SEASHORE	1263	1	5	-1	n/a	n/a	n/a	n/a	n/a
2985222	RECOG_RESP	n/a	LTP150	ltpFR	6	6	-1	SEASHORE	1263	1	n/a	-1	n/a	n/a	n/a	n/a	n/a
2986476	RECOG_CONF	n/a	LTP150	ltpFR	6	6	-1	SEASHORE	1263	n/a	5	-1	n/a	n/a	n/a	n/a	n/a
2988072	RECOG_TARGET	n/a	LTP150	ltpFR	6	6	-1	PROTON	1132	1	5	-1	n/a	n/a	n/a	n/a	n/a
2988779	RECOG_RESP	n/a	LTP150	ltpFR	6	6	-1	PROTON	1132	1	n/a	-1	n/a	n/a	n/a	n/a	n/a
2990027	RECOG_CONF	n/a	LTP150	ltpFR	6	6	-1	PROTON	1132	n/a	5	-1	n/a	n/a	n/a	n/a	n/a
2991647	RECOG_TARGET	n/a	LTP150	ltpFR	6	6	0	MARBLE	867	1	5	0	n/a	n/a	n/a	n/a	n/a
2992180	RECOG_RESP	n/a	LTP150	ltpFR	6	6	0	MARBLE	867	1	n/a	0	n/a	n/a	n/a	n/a	n/a
2993396	RECOG_CONF	n/a	LTP150	ltpFR	6	6	0	MARBLE	867	n/a	5	0	n/a	n/a	n/a	n/a	n/a
2994970	RECOG_TARGET	n/a	LTP150	ltpFR	6	6	1	CHIP	303	1	5	0	n/a	n/a	n/a	n/a	n/a
2996162	RECOG_RESP	n/a	LTP150	ltpFR	6	6	1	CHIP	303	1	n/a	0	n/a	n/a	n/a	n/a	n/a
2997336	RECOG_CONF	n/a	LTP150	ltpFR	6	6	1	CHIP	303	n/a	5	0	n/a	n/a	n/a	n/a	n/a
2998827	RECOG_LURE	n/a	LTP150	ltpFR	6	6	n/a	SWITCH	1422	0	2	n/a	n/a	n/a	n/a	n/a	n/a
3000416	RECOG_RESP	n/a	LTP150	ltpFR	6	6	n/a	SWITCH	1422	0	n/a	n/a	n/a	n/a	n/a	n/a	n/a
3001774	RECOG_CONF	n/a	LTP150	ltpFR	6	6	n/a	SWITCH	1422	n/a	2	n/a	n/a	n/a	n/a	n/a	n/a
3003176	RECOG_TARGET	n/a	LTP150	ltpFR	6	6	0	COURSE	390	1	5	1	n/a	n/a	n/a	n/a	n/a
3004035	RECOG_RESP	n/a	LTP150	ltpFR	6	6	0	COURSE	390	1	n/a	1	n/a	n/a	n/a	n/a	n/a
3005406	RECOG_CONF	n/a	LTP150	ltpFR	6	6	0	COURSE	390	n/a	5	1	n/a	n/a	n/a	n/a	n/a
3006890	RECOG_TARGET	n/a	LTP150	ltpFR	6	6	0	ATLAS	53	1	5	1	n/a	n/a	n/a	n/a	n/a
3007413	RECOG_RESP	n/a	LTP150	ltpFR	6	6	0	ATLAS	53	1	n/a	1	n/a	n/a	n/a	n/a	n/a
3008688	RECOG_CONF	n/a	LTP150	ltpFR	6	6	0	ATLAS	53	n/a	5	1	n/a	n/a	n/a	n/a	n/a
3010248	RECOG_TARGET	n/a	LTP150	ltpFR	6	6	-1	TOMATO	1476	1	5	-1	n/a	n/a	n/a	n/a	n/a
3010699	RECOG_RESP	n/a	LTP150	ltpFR	6	6	-1	TOMATO	1476	1	n/a	-1	n/a	n/a	n/a	n/a	n/a
3012007	RECOG_CONF	n/a	LTP150	ltpFR	6	6	-1	TOMATO	1476	n/a	5	-1	n/a	n/a	n/a	n/a	n/a
3013489	RECOG_TARGET	n/a	LTP150	ltpFR	6	6	0	TRIBE	1505	1	5	1	n/a	n/a	n/a	n/a	n/a
3014072	RECOG_RESP	n/a	LTP150	ltpFR	6	6	0	TRIBE	1505	1	n/a	1	n/a	n/a	n/a	n/a	n/a
3015756	RECOG_CONF	n/a	LTP150	ltpFR	6	6	0	TRIBE	1505	n/a	5	1	n/a	n/a	n/a	n/a	n/a
3017304	RECOG_LURE	n/a	LTP150	ltpFR	6	6	n/a	TOWN	1491	0	2	n/a	n/a	n/a	n/a	n/a	n/a
3018453	RECOG_RESP	n/a	LTP150	ltpFR	6	6	n/a	TOWN	1491	0	n/a	n/a	n/a	n/a	n/a	n/a	n/a
3020354	RECOG_CONF	n/a	LTP150	ltpFR	6	6	n/a	TOWN	1491	n/a	2	n/a	n/a	n/a	n/a	n/a	n/a
3021935	RECOG_TARGET	n/a	LTP150	ltpFR	6	6	1	CANVAS	234	1	5	0	n/a	n/a	n/a	n/a	n/a
3022713	RECOG_RESP	n/a	LTP150	ltpFR	6	6	1	CANVAS	234	1	n/a	0	n/a	n/a	n/a	n/a	n/a
3024155	RECOG_CONF	n/a	LTP150	ltpFR	6	6	1	CANVAS	234	n/a	5	0	n/a	n/a	n/a	n/a	n/a
3025593	RECOG_TARGET	n/a	LTP150	ltpFR	6	6	0	SQUID	1361	1	5	1	n/a	n/a	n/a	n/a	n/a
3026137	RECOG_RESP	n/a	LTP150	ltpFR	6	6	0	SQUID	1361	1	n/a	1	n/a	n/a	n/a	n/a	n/a
3027413	RECOG_CONF	n/a	LTP150	ltpFR	6	6	0	SQUID	1361	n/a	5	1	n/a	n/a	n/a	n/a	n/a
3028899	RECOG_TARGET	n/a	LTP150	ltpFR	6	6	0	PLAID	1080	1	5	n/a	n/a	n/a	n/a	n/a	n/a
3029447	RECOG_RESP	n/a	LTP150	ltpFR	6	6	0	PLAID	1080	1	n/a	n/a	n/a	n/a	n/a	n/a	n/a
3030805	RECOG_CONF	n/a	LTP150	ltpFR	6	6	0	PLAID	1080	n/a	5	n/a	n/a	n/a	n/a	n/a	n/a
3032274	RECOG_TARGET	n/a	LTP150	ltpFR	6	6	1	SPACE	1345	1	5	0	n/a	n/a	n/a	n/a	n/a
3032865	RECOG_RESP	n/a	LTP150	ltpFR	6	6	1	SPACE	1345	1	n/a	0	n/a	n/a	n/a	n/a	n/a
3034202	RECOG_CONF	n/a	LTP150	ltpFR	6	6	1	SPACE	1345	n/a	5	0	n/a	n/a	n/a	n/a	n/a
3035722	RECOG_TARGET	n/a	LTP150	ltpFR	6	6	-1	HELMET	702	1	5	-1	n/a	n/a	n/a	n/a	n/a
3036385	RECOG_RESP	n/a	LTP150	ltpFR	6	6	-1	HELMET	702	1	n/a	-1	n/a	n/a	n/a	n/a	n/a
3037718	RECOG_CONF	n/a	LTP150	ltpFR	6	6	-1	HELMET	702	n/a	5	-1	n/a	n/a	n/a	n/a	n/a
3039305	RECOG_TARGET	n/a	LTP150	ltpFR	6	6	1	MANSION	864	1	5	0	n/a	n/a	n/a	n/a	n/a
3039932	RECOG_RESP	n/a	LTP150	ltpFR	6	6	1	MANSION	864	1	n/a	0	n/a	n/a	n/a	n/a	n/a
3041211	RECOG_CONF	n/a	LTP150	ltpFR	6	6	1	MANSION	864	n/a	5	0	n/a	n/a	n/a	n/a	n/a
3044708	REC_START	n/a	LTP150	ltpFR	6	7	n/a	n/a	n/a	n/a	n/a	n/a	n/a	n/a	n/a	n/a	n/a
3044744	RECOG_TARGET	n/a	LTP150	ltpFR	6	7	1	TREAD	1499	1	5	0	n/a	n/a	n/a	n/a	n/a
3045440	RECOG_RESP	n/a	LTP150	ltpFR	6	7	1	TREAD	1499	1	n/a	0	n/a	n/a	n/a	n/a	n/a
3046667	RECOG_CONF	n/a	LTP150	ltpFR	6	7	1	TREAD	1499	n/a	5	0	n/a	n/a	n/a	n/a	n/a
3048127	RECOG_LURE	n/a	LTP150	ltpFR	6	7	n/a	FOLDER	588	0	2	n/a	n/a	n/a	n/a	n/a	n/a
3049340	RECOG_RESP	n/a	LTP150	ltpFR	6	7	n/a	FOLDER	588	0	n/a	n/a	n/a	n/a	n/a	n/a	n/a
3050622	RECOG_CONF	n/a	LTP150	ltpFR	6	7	n/a	FOLDER	588	n/a	2	n/a	n/a	n/a	n/a	n/a	n/a
3051974	RECOG_TARGET	n/a	LTP150	ltpFR	6	7	1	DISHWASHER	475	1	5	1	n/a	n/a	n/a	n/a	n/a
3052537	RECOG_RESP	n/a	LTP150	ltpFR	6	7	1	DISHWASHER	475	1	n/a	1	n/a	n/a	n/a	n/a	n/a
3053773	RECOG_CONF	n/a	LTP150	ltpFR	6	7	1	DISHWASHER	475	n/a	5	1	n/a	n/a	n/a	n/a	n/a
3055233	RECOG_TARGET	n/a	LTP150	ltpFR	6	7	0	PUB	1135	1	5	1	n/a	n/a	n/a	n/a	n/a
3055726	RECOG_RESP	n/a	LTP150	ltpFR	6	7	0	PUB	1135	1	n/a	1	n/a	n/a	n/a	n/a	n/a
3056842	RECOG_CONF	n/a	LTP150	ltpFR	6	7	0	PUB	1135	n/a	5	1	n/a	n/a	n/a	n/a	n/a
3058415	RECOG_LURE	n/a	LTP150	ltpFR	6	7	n/a	ENVELOPE	537	0	2	n/a	n/a	n/a	n/a	n/a	n/a
3059812	RECOG_RESP	n/a	LTP150	ltpFR	6	7	n/a	ENVELOPE	537	0	n/a	n/a	n/a	n/a	n/a	n/a	n/a
3061188	RECOG_CONF	n/a	LTP150	ltpFR	6	7	n/a	ENVELOPE	537	n/a	2	n/a	n/a	n/a	n/a	n/a	n/a
3062505	RECOG_LURE	n/a	LTP150	ltpFR	6	7	n/a	BULLETIN	195	0	5	n/a	n/a	n/a	n/a	n/a	n/a
3063232	RECOG_RESP	n/a	LTP150	ltpFR	6	7	n/a	BULLETIN	195	0	n/a	n/a	n/a	n/a	n/a	n/a	n/a
3064405	RECOG_CONF	n/a	LTP150	ltpFR	6	7	n/a	BULLETIN	195	n/a	5	n/a	n/a	n/a	n/a	n/a	n/a
3065978	RECOG_TARGET	n/a	LTP150	ltpFR	6	7	-1	SURF	1412	1	5	-1	n/a	n/a	n/a	n/a	n/a
3066600	RECOG_RESP	n/a	LTP150	ltpFR	6	7	-1	SURF	1412	1	n/a	-1	n/a	n/a	n/a	n/a	n/a
3067853	RECOG_CONF	n/a	LTP150	ltpFR	6	7	-1	SURF	1412	n/a	5	-1	n/a	n/a	n/a	n/a	n/a
3069228	RECOG_TARGET	n/a	LTP150	ltpFR	6	7	0	BELLY	119	1	5	1	n/a	n/a	n/a	n/a	n/a
3069755	RECOG_RESP	n/a	LTP150	ltpFR	6	7	0	BELLY	119	1	n/a	1	n/a	n/a	n/a	n/a	n/a
3071058	RECOG_CONF	n/a	LTP150	ltpFR	6	7	0	BELLY	119	n/a	5	1	n/a	n/a	n/a	n/a	n/a
3072535	RECOG_TARGET	n/a	LTP150	ltpFR	6	7	1	SPINE	1353	1	5	0	n/a	n/a	n/a	n/a	n/a
3073169	RECOG_RESP	n/a	LTP150	ltpFR	6	7	1	SPINE	1353	1	n/a	0	n/a	n/a	n/a	n/a	n/a
3074585	RECOG_CONF	n/a	LTP150	ltpFR	6	7	1	SPINE	1353	n/a	5	0	n/a	n/a	n/a	n/a	n/a
3076075	RECOG_TARGET	n/a	LTP150	ltpFR	6	7	1	TREAT	1501	1	5	0	n/a	n/a	n/a	n/a	n/a
3076644	RECOG_RESP	n/a	LTP150	ltpFR	6	7	1	TREAT	1501	1	n/a	0	n/a	n/a	n/a	n/a	n/a
3077828	RECOG_CONF	n/a	LTP150	ltpFR	6	7	1	TREAT	1501	n/a	5	0	n/a	n/a	n/a	n/a	n/a
3079416	RECOG_TARGET	n/a	LTP150	ltpFR	6	7	0	DILL	465	1	5	0	n/a	n/a	n/a	n/a	n/a
3079882	RECOG_RESP	n/a	LTP150	ltpFR	6	7	0	DILL	465	1	n/a	0	n/a	n/a	n/a	n/a	n/a
3081091	RECOG_CONF	n/a	LTP150	ltpFR	6	7	0	DILL	465	n/a	5	0	n/a	n/a	n/a	n/a	n/a
3082573	RECOG_TARGET	n/a	LTP150	ltpFR	6	7	-1	RIB	1188	1	5	-1	n/a	n/a	n/a	n/a	n/a
3083155	RECOG_RESP	n/a	LTP150	ltpFR	6	7	-1	RIB	1188	1	n/a	-1	n/a	n/a	n/a	n/a	n/a
3084344	RECOG_CONF	n/a	LTP150	ltpFR	6	7	-1	RIB	1188	n/a	5	-1	n/a	n/a	n/a	n/a	n/a
3085837	RECOG_TARGET	n/a	LTP150	ltpFR	6	7	1	WHEAT	1602	1	5	0	n/a	n/a	n/a	n/a	n/a
3086303	RECOG_RESP	n/a	LTP150	ltpFR	6	7	1	WHEAT	1602	1	n/a	0	n/a	n/a	n/a	n/a	n/a
3087582	RECOG_CONF	n/a	LTP150	ltpFR	6	7	1	WHEAT	1602	n/a	5	0	n/a	n/a	n/a	n/a	n/a
3089129	RECOG_TARGET	n/a	LTP150	ltpFR	6	7	1	FILM	565	1	1	0	n/a	n/a	n/a	n/a	n/a
3091722	RECOG_RESP	n/a	LTP150	ltpFR	6	7	1	FILM	565	1	n/a	0	n/a	n/a	n/a	n/a	n/a
3092993	RECOG_CONF	n/a	LTP150	ltpFR	6	7	1	FILM	565	n/a	1	0	n/a	n/a	n/a	n/a	n/a
3094494	RECOG_TARGET	n/a	LTP150	ltpFR	6	7	0	EARTH	515	1	3	1	n/a	n/a	n/a	n/a	n/a
3095143	RECOG_RESP	n/a	LTP150	ltpFR	6	7	0	EARTH	515	1	n/a	1	n/a	n/a	n/a	n/a	n/a
3096598	RECOG_CONF	n/a	LTP150	ltpFR	6	7	0	EARTH	515	n/a	3	1	n/a	n/a	n/a	n/a	n/a
3097866	RECOG_TARGET	n/a	LTP150	ltpFR	6	7	1	MOTOR	922	1	5	0	n/a	n/a	n/a	n/a	n/a
3098472	RECOG_RESP	n/a	LTP150	ltpFR	6	7	1	MOTOR	922	1	n/a	0	n/a	n/a	n/a	n/a	n/a
3099884	RECOG_CONF	n/a	LTP150	ltpFR	6	7	1	MOTOR	922	n/a	5	0	n/a	n/a	n/a	n/a	n/a
3101274	RECOG_TARGET	n/a	LTP150	ltpFR	6	7	0	TAPIOCA	1434	1	5	0	n/a	n/a	n/a	n/a	n/a
3101820	RECOG_RESP	n/a	LTP150	ltpFR	6	7	0	TAPIOCA	1434	1	n/a	0	n/a	n/a	n/a	n/a	n/a
3103126	RECOG_CONF	n/a	LTP150	ltpFR	6	7	0	TAPIOCA	1434	n/a	5	0	n/a	n/a	n/a	n/a	n/a
3104632	RECOG_TARGET	n/a	LTP150	ltpFR	6	7	-1	PROFESSIONAL	1130	1	5	-1	n/a	n/a	n/a	n/a	n/a
3105220	RECOG_RESP	n/a	LTP150	ltpFR	6	7	-1	PROFESSIONAL	1130	1	n/a	-1	n/a	n/a	n/a	n/a	n/a
3106472	RECOG_CONF	n/a	LTP150	ltpFR	6	7	-1	PROFESSIONAL	1130	n/a	5	-1	n/a	n/a	n/a	n/a	n/a
3107904	RECOG_TARGET	n/a	LTP150	ltpFR	6	7	0	PLAYGROUND	1087	1	5	1	n/a	n/a	n/a	n/a	n/a
3108381	RECOG_RESP	n/a	LTP150	ltpFR	6	7	0	PLAYGROUND	1087	1	n/a	1	n/a	n/a	n/a	n/a	n/a
3109691	RECOG_CONF	n/a	LTP150	ltpFR	6	7	0	PLAYGROUND	1087	n/a	5	1	n/a	n/a	n/a	n/a	n/a
3111196	RECOG_TARGET	n/a	LTP150	ltpFR	6	7	0	BUN	197	1	5	0	n/a	n/a	n/a	n/a	n/a
3111674	RECOG_RESP	n/a	LTP150	ltpFR	6	7	0	BUN	197	1	n/a	0	n/a	n/a	n/a	n/a	n/a
3112954	RECOG_CONF	n/a	LTP150	ltpFR	6	7	0	BUN	197	n/a	5	0	n/a	n/a	n/a	n/a	n/a
3116435	REC_START	n/a	LTP150	ltpFR	6	8	n/a	n/a	n/a	n/a	n/a	n/a	n/a	n/a	n/a	n/a	n/a
3116469	RECOG_TARGET	n/a	LTP150	ltpFR	6	8	1	PENGUIN	1044	1	5	1	n/a	n/a	n/a	n/a	n/a
3117059	RECOG_RESP	n/a	LTP150	ltpFR	6	8	1	PENGUIN	1044	1	n/a	1	n/a	n/a	n/a	n/a	n/a
3118310	RECOG_CONF	n/a	LTP150	ltpFR	6	8	1	PENGUIN	1044	n/a	5	1	n/a	n/a	n/a	n/a	n/a
3119792	RECOG_TARGET	n/a	LTP150	ltpFR	6	8	0	KING	777	1	5	1	n/a	n/a	n/a	n/a	n/a
3120355	RECOG_RESP	n/a	LTP150	ltpFR	6	8	0	KING	777	1	n/a	1	n/a	n/a	n/a	n/a	n/a
3121611	RECOG_CONF	n/a	LTP150	ltpFR	6	8	0	KING	777	n/a	5	1	n/a	n/a	n/a	n/a	n/a
3123200	RECOG_TARGET	n/a	LTP150	ltpFR	6	8	0	CAMEL	223	1	5	1	n/a	n/a	n/a	n/a	n/a
3123740	RECOG_RESP	n/a	LTP150	ltpFR	6	8	0	CAMEL	223	1	n/a	1	n/a	n/a	n/a	n/a	n/a
3125072	RECOG_CONF	n/a	LTP150	ltpFR	6	8	0	CAMEL	223	n/a	5	1	n/a	n/a	n/a	n/a	n/a
3126649	RECOG_TARGET	n/a	LTP150	ltpFR	6	8	0	ALBUM	14	1	5	0	n/a	n/a	n/a	n/a	n/a
3127144	RECOG_RESP	n/a	LTP150	ltpFR	6	8	0	ALBUM	14	1	n/a	0	n/a	n/a	n/a	n/a	n/a
3128452	RECOG_CONF	n/a	LTP150	ltpFR	6	8	0	ALBUM	14	n/a	5	0	n/a	n/a	n/a	n/a	n/a
3130005	RECOG_TARGET	n/a	LTP150	ltpFR	6	8	-1	PISTON	1076	1	5	-1	n/a	n/a	n/a	n/a	n/a
3130575	RECOG_RESP	n/a	LTP150	ltpFR	6	8	-1	PISTON	1076	1	n/a	-1	n/a	n/a	n/a	n/a	n/a
3131815	RECOG_CONF	n/a	LTP150	ltpFR	6	8	-1	PISTON	1076	n/a	5	-1	n/a	n/a	n/a	n/a	n/a
3133255	RECOG_TARGET	n/a	LTP150	ltpFR	6	8	-1	JEEP	753	1	5	-1	n/a	n/a	n/a	n/a	n/a
3133804	RECOG_RESP	n/a	LTP150	ltpFR	6	8	-1	JEEP	753	1	n/a	-1	n/a	n/a	n/a	n/a	n/a
3135098	RECOG_CONF	n/a	LTP150	ltpFR	6	8	-1	JEEP	753	n/a	5	-1	n/a	n/a	n/a	n/a	n/a
3136529	RECOG_TARGET	n/a	LTP150	ltpFR	6	8	1	RACKET	1155	1	5	0	n/a	n/a	n/a	n/a	n/a
3137088	RECOG_RESP	n/a	LTP150	ltpFR	6	8	1	RACKET	1155	1	n/a	0	n/a	n/a	n/a	n/a	n/a
3138447	RECOG_CONF	n/a	LTP150	ltpFR	6	8	1	RACKET	1155	n/a	5	0	n/a	n/a	n/a	n/a	n/a
3139885	RECOG_TARGET	n/a	LTP150	ltpFR	6	8	1	YARN	1631	1	1	0	n/a	n/a	n/a	n/a	n/a
3140950	RECOG_RESP	n/a	LTP150	ltpFR	6	8	1	YARN	1631	1	n/a	0	n/a	n/a	n/a	n/a	n/a
3142242	RECOG_CONF	n/a	LTP150	ltpFR	6	8	1	YARN	1631	n/a	1	0	n/a	n/a	n/a	n/a	n/a
3143584	RECOG_TARGET	n/a	LTP150	ltpFR	6	8	1	BEET	115	1	5	1	n/a	n/a	n/a	n/a	n/a
3144166	RECOG_RESP	n/a	LTP150	ltpFR	6	8	1	BEET	115	1	n/a	1	n/a	n/a	n/a	n/a	n/a
3145395	RECOG_CONF	n/a	LTP150	ltpFR	6	8	1	BEET	115	n/a	5	1	n/a	n/a	n/a	n/a	n/a
3146916	RECOG_TARGET	n/a	LTP150	ltpFR	6	8	-1	CLAMP	316	1	5	-1	n/a	n/a	n/a	n/a	n/a
3147463	RECOG_RESP	n/a	LTP150	ltpFR	6	8	-1	CLAMP	316	1	n/a	-1	n/a	n/a	n/a	n/a	n/a
3148796	RECOG_CONF	n/a	LTP150	ltpFR	6	8	-1	CLAMP	316	n/a	5	-1	n/a	n/a	n/a	n/a	n/a
3150207	RECOG_TARGET	n/a	LTP150	ltpFR	6	8	0	BROOK	177	1	5	1	n/a	n/a	n/a	n/a	n/a
3150714	RECOG_RESP	n/a	LTP150	ltpFR	6	8	0	BROOK	177	1	n/a	1	n/a	n/a	n/a	n/a	n/a
