onset	duration	trial_type	sample	stim_file	subject	experiment	session	trial	task	item_name	item_num	recog_resp	recog_conf	resp	color_r	color_g	color_b	case	font
278.912	n/a	SESS_START	139456	n/a	LTP183	ltpFR	1	n/a	n/a	n/a	n/a	1	n/a	n/a	n/a	n/a	n/a	n/a	n/a
401.838	n/a	WORD	200919	wordpools/wasnorm_wordpool_less_exclusions.txt	LTP183	ltpFR	1	1	1	WINGS	1614	n/a	n/a	n/a	0.422607421875	0.5869140625	0	lower	amplitud.ttf
404.868	n/a	SLOW_MSG	202434	n/a	LTP183	ltpFR	1	1	n/a	n/a	n/a	n/a	n/a	n/a	n/a	n/a	n/a	n/a	n/a
407.44	n/a	WORD	203720	wordpools/wasnorm_wordpool_less_exclusions.txt	LTP183	ltpFR	1	1	1	STUDENT	1395	n/a	n/a	1	0.422607421875	0.5869140625	0	lower	amplitud.ttf
411.372	n/a	WORD	205686	wordpools/wasnorm_wordpool_less_exclusions.txt	LTP183	ltpFR	1	1	0	PAVEMENT	1028	n/a	n/a	1	0.57763671875	0.412841796875	1	upper	zerothre.ttf
415.52	n/a	WORD	207760	wordpools/wasnorm_wordpool_less_exclusions.txt	LTP183	ltpFR	1	1	0	UNIVERSE	1540	n/a	n/a	1	0.57763671875	0.412841796875	1	upper	zerothre.ttf
419.552	n/a	WORD	209776	wordpools/wasnorm_wordpool_less_exclusions.txt	LTP183	ltpFR	1	1	0	MICROSCOPE	891	n/a	n/a	1	0.57763671875	0.412841796875	1	upper	zerothre.ttf
423.684	n/a	WORD	211842	wordpools/wasnorm_wordpool_less_exclusions.txt	LTP183	ltpFR	1	1	1	CHEMIST	292	n/a	n/a	1	0.422607421875	0.5869140625	0	lower	amplitud.ttf
427.668	n/a	WORD	213834	wordpools/wasnorm_wordpool_less_exclusions.txt	LTP183	ltpFR	1	1	1	SPATULA	1348	n/a	n/a	0	0.422607421875	0.5869140625	0	lower	amplitud.ttf
431.8	n/a	WORD	215900	wordpools/wasnorm_wordpool_less_exclusions.txt	LTP183	ltpFR	1	1	0	ATMOSPHERE	54	n/a	n/a	1	0.57763671875	0.412841796875	1	upper	zerothre.ttf
435.714	n/a	WORD	217857	wordpools/wasnorm_wordpool_less_exclusions.txt	LTP183	ltpFR	1	1	0	SPIT	1354	n/a	n/a	0	0.57763671875	0.412841796875	1	upper	zerothre.ttf
439.73	n/a	WORD	219865	wordpools/wasnorm_wordpool_less_exclusions.txt	LTP183	ltpFR	1	1	0	SALIVA	1226	n/a	n/a	0	0.57763671875	0.412841796875	1	upper	zerothre.ttf
443.796	n/a	WORD	221898	wordpools/wasnorm_wordpool_less_exclusions.txt	LTP183	ltpFR	1	1	0	PLANET	1082	n/a	n/a	1	0.57763671875	0.412841796875	1	upper	zerothre.ttf
447.87	n/a	WORD	223935	wordpools/wasnorm_wordpool_less_exclusions.txt	LTP183	ltpFR	1	1	0	GAVEL	627	n/a	n/a	0	0.57763671875	0.412841796875	1	upper	zerothre.ttf
451.946	n/a	WORD	225973	wordpools/wasnorm_wordpool_less_exclusions.txt	LTP183	ltpFR	1	1	1	THRONE	1461	n/a	n/a	0	0.422607421875	0.5869140625	0	lower	amplitud.ttf
455.924	n/a	WORD	227962	wordpools/wasnorm_wordpool_less_exclusions.txt	LTP183	ltpFR	1	1	1	WAREHOUSE	1588	n/a	n/a	0	0.422607421875	0.5869140625	0	lower	amplitud.ttf
459.824	n/a	WORD	229912	wordpools/wasnorm_wordpool_less_exclusions.txt	LTP183	ltpFR	1	1	1	SHACK	1273	n/a	n/a	0	0.422607421875	0.5869140625	0	lower	amplitud.ttf
463.738	n/a	WORD	231869	wordpools/wasnorm_wordpool_less_exclusions.txt	LTP183	ltpFR	1	1	1	INSTRUCTOR	741	n/a	n/a	1	0.422607421875	0.5869140625	0	lower	amplitud.ttf
469.646	n/a	REC_START	234823	n/a	LTP183	ltpFR	1	1	n/a	n/a	n/a	n/a	n/a	n/a	n/a	n/a	n/a	n/a	n/a
473.776	n/a	REC_WORD	236888	wordpools/wasnorm_wordpool_less_exclusions.txt	LTP183	ltpFR	1	1	1	SHACK	1273	n/a	n/a	0	n/a	n/a	n/a	n/a	n/a
475.512	n/a	REC_WORD	237756	wordpools/wasnorm_wordpool_less_exclusions.txt	LTP183	ltpFR	1	1	1	INSTRUCTOR	741	n/a	n/a	1	n/a	n/a	n/a	n/a	n/a
477.512	n/a	REC_WORD	238756	wordpools/wasnorm_wordpool_less_exclusions.txt	LTP183	ltpFR	1	1	0	UNIVERSE	1540	n/a	n/a	1	n/a	n/a	n/a	n/a	n/a
479.448	n/a	REC_WORD	239724	wordpools/wasnorm_wordpool_less_exclusions.txt	LTP183	ltpFR	1	1	0	SPIT	1354	n/a	n/a	0	n/a	n/a	n/a	n/a	n/a
480.814	n/a	REC_WORD	240407	wordpools/wasnorm_wordpool_less_exclusions.txt	LTP183	ltpFR	1	1	n/a	GRAVEL	659	n/a	n/a	n/a	n/a	n/a	n/a	n/a	n/a
482.59	n/a	REC_WORD	241295	wordpools/wasnorm_wordpool_less_exclusions.txt	LTP183	ltpFR	1	1	1	THRONE	1461	n/a	n/a	0	n/a	n/a	n/a	n/a	n/a
491.092	n/a	REC_WORD	245546	wordpools/wasnorm_wordpool_less_exclusions.txt	LTP183	ltpFR	1	1	0	UNIVERSE	1540	n/a	n/a	1	n/a	n/a	n/a	n/a	n/a
492.584	n/a	REC_WORD	246292	wordpools/wasnorm_wordpool_less_exclusions.txt	LTP183	ltpFR	1	1	0	ATMOSPHERE	54	n/a	n/a	1	n/a	n/a	n/a	n/a	n/a
495.582	n/a	REC_WORD	247791	wordpools/wasnorm_wordpool_less_exclusions.txt	LTP183	ltpFR	1	1	0	MICROSCOPE	891	n/a	n/a	1	n/a	n/a	n/a	n/a	n/a
499.852	n/a	REC_WORD	249926	wordpools/wasnorm_wordpool_less_exclusions.txt	LTP183	ltpFR	1	1	0	SALIVA	1226	n/a	n/a	0	n/a	n/a	n/a	n/a	n/a
509.238	n/a	REC_WORD	254619	wordpools/wasnorm_wordpool_less_exclusions.txt	LTP183	ltpFR	1	1	1	WAREHOUSE	1588	n/a	n/a	0	n/a	n/a	n/a	n/a	n/a
551.34	n/a	WORD	275670	wordpools/wasnorm_wordpool_less_exclusions.txt	LTP183	ltpFR	1	2	0	POTTERY	1116	n/a	n/a	1	0.57763671875	0.412841796875	1	upper	zerothre.ttf
555.238	n/a	WORD	277619	wordpools/wasnorm_wordpool_less_exclusions.txt	LTP183	ltpFR	1	2	0	NEPHEW	942	n/a	n/a	1	0.57763671875	0.412841796875	1	upper	zerothre.ttf
559.12	n/a	WORD	279560	wordpools/wasnorm_wordpool_less_exclusions.txt	LTP183	ltpFR	1	2	0	ATOM	55	n/a	n/a	0	0.57763671875	0.412841796875	1	upper	zerothre.ttf
563.118	n/a	WORD	281559	wordpools/wasnorm_wordpool_less_exclusions.txt	LTP183	ltpFR	1	2	1	PROTON	1132	n/a	n/a	0	0.422607421875	0.5869140625	0	lower	amplitud.ttf
567.234	n/a	WORD	283617	wordpools/wasnorm_wordpool_less_exclusions.txt	LTP183	ltpFR	1	2	1	MOUNTAIN	924	n/a	n/a	0	0.422607421875	0.5869140625	0	lower	amplitud.ttf
571.416	n/a	WORD	285708	wordpools/wasnorm_wordpool_less_exclusions.txt	LTP183	ltpFR	1	2	1	SPY	1360	n/a	n/a	1	0.422607421875	0.5869140625	0	lower	amplitud.ttf
575.432	n/a	WORD	287716	wordpools/wasnorm_wordpool_less_exclusions.txt	LTP183	ltpFR	1	2	0	SLOPE	1328	n/a	n/a	1	0.57763671875	0.412841796875	1	upper	zerothre.ttf
579.264	n/a	WORD	289632	wordpools/wasnorm_wordpool_less_exclusions.txt	LTP183	ltpFR	1	2	0	CANDY	230	n/a	n/a	0	0.57763671875	0.412841796875	1	upper	zerothre.ttf
583.262	n/a	WORD	291631	wordpools/wasnorm_wordpool_less_exclusions.txt	LTP183	ltpFR	1	2	0	DESSERT	453	n/a	n/a	1	0.57763671875	0.412841796875	1	upper	zerothre.ttf
587.194	n/a	WORD	293597	wordpools/wasnorm_wordpool_less_exclusions.txt	LTP183	ltpFR	1	2	0	MECHANIC	884	n/a	n/a	1	0.57763671875	0.412841796875	1	upper	zerothre.ttf
591.09	n/a	WORD	295545	wordpools/wasnorm_wordpool_less_exclusions.txt	LTP183	ltpFR	1	2	0	SHELL	1281	n/a	n/a	0	0.57763671875	0.412841796875	1	upper	zerothre.ttf
595.14	n/a	WORD	297570	wordpools/wasnorm_wordpool_less_exclusions.txt	LTP183	ltpFR	1	2	1	DIVER	476	n/a	n/a	1	0.422607421875	0.5869140625	0	lower	amplitud.ttf
599.072	n/a	WORD	299536	wordpools/wasnorm_wordpool_less_exclusions.txt	LTP183	ltpFR	1	2	1	LID	817	n/a	n/a	0	0.422607421875	0.5869140625	0	lower	amplitud.ttf
602.97	n/a	WORD	301485	wordpools/wasnorm_wordpool_less_exclusions.txt	LTP183	ltpFR	1	2	1	PEBBLE	1035	n/a	n/a	0	0.422607421875	0.5869140625	0	lower	amplitud.ttf
606.902	n/a	WORD	303451	wordpools/wasnorm_wordpool_less_exclusions.txt	LTP183	ltpFR	1	2	1	CLIFF	322	n/a	n/a	0	0.422607421875	0.5869140625	0	lower	amplitud.ttf
610.97	n/a	WORD	305485	wordpools/wasnorm_wordpool_less_exclusions.txt	LTP183	ltpFR	1	2	1	JEEP	753	n/a	n/a	0	0.422607421875	0.5869140625	0	lower	amplitud.ttf
616.892	n/a	REC_START	308446	n/a	LTP183	ltpFR	1	2	n/a	n/a	n/a	n/a	n/a	n/a	n/a	n/a	n/a	n/a	n/a
618.588	n/a	REC_WORD	309294	wordpools/wasnorm_wordpool_less_exclusions.txt	LTP183	ltpFR	1	2	1	CLIFF	322	n/a	n/a	0	n/a	n/a	n/a	n/a	n/a
619.734	n/a	REC_WORD	309867	wordpools/wasnorm_wordpool_less_exclusions.txt	LTP183	ltpFR	1	2	1	JEEP	753	n/a	n/a	0	n/a	n/a	n/a	n/a	n/a
623.022	n/a	REC_WORD	311511	wordpools/wasnorm_wordpool_less_exclusions.txt	LTP183	ltpFR	1	2	1	PEBBLE	1035	n/a	n/a	0	n/a	n/a	n/a	n/a	n/a
660.992	n/a	REC_WORD	330496	wordpools/wasnorm_wordpool_less_exclusions.txt	LTP183	ltpFR	1	2	0	DESSERT	453	n/a	n/a	1	n/a	n/a	n/a	n/a	n/a
661.762	n/a	REC_WORD_VV	330881	wordpools/wasnorm_wordpool_less_exclusions.txt	LTP183	ltpFR	1	2	n/a	<>	-1	n/a	n/a	n/a	n/a	n/a	n/a	n/a	n/a
662.0	n/a	REC_WORD	331000	wordpools/wasnorm_wordpool_less_exclusions.txt	LTP183	ltpFR	1	2	0	DESSERT	453	n/a	n/a	1	n/a	n/a	n/a	n/a	n/a
662.844	n/a	REC_WORD_VV	331422	wordpools/wasnorm_wordpool_less_exclusions.txt	LTP183	ltpFR	1	2	n/a	<>	-1	n/a	n/a	n/a	n/a	n/a	n/a	n/a	n/a
663.844	n/a	REC_WORD_VV	331922	wordpools/wasnorm_wordpool_less_exclusions.txt	LTP183	ltpFR	1	2	n/a	<>	-1	n/a	n/a	n/a	n/a	n/a	n/a	n/a	n/a
697.816	n/a	WORD	348908	wordpools/wasnorm_wordpool_less_exclusions.txt	LTP183	ltpFR	1	3	1	MONK	910	n/a	n/a	1	0.422607421875	0.5869140625	0	lower	amplitud.ttf
701.648	n/a	WORD	350824	wordpools/wasnorm_wordpool_less_exclusions.txt	LTP183	ltpFR	1	3	1	SPRINKLE	1359	n/a	n/a	0	0.422607421875	0.5869140625	0	lower	amplitud.ttf
705.578	n/a	WORD	352789	wordpools/wasnorm_wordpool_less_exclusions.txt	LTP183	ltpFR	1	3	0	PUMP	1141	n/a	n/a	1	0.57763671875	0.412841796875	1	upper	zerothre.ttf
709.762	n/a	WORD	354881	wordpools/wasnorm_wordpool_less_exclusions.txt	LTP183	ltpFR	1	3	0	FLUTE	585	n/a	n/a	1	0.57763671875	0.412841796875	1	upper	zerothre.ttf
713.928	n/a	WORD	356964	wordpools/wasnorm_wordpool_less_exclusions.txt	LTP183	ltpFR	1	3	0	TUBA	1515	n/a	n/a	1	0.57763671875	0.412841796875	1	upper	zerothre.ttf
718.114	n/a	WORD	359057	wordpools/wasnorm_wordpool_less_exclusions.txt	LTP183	ltpFR	1	3	0	ISLAND	745	n/a	n/a	1	0.57763671875	0.412841796875	1	upper	zerothre.ttf
722.228	n/a	WORD	361114	wordpools/wasnorm_wordpool_less_exclusions.txt	LTP183	ltpFR	1	3	1	GRAVEL	659	n/a	n/a	0	0.422607421875	0.5869140625	0	lower	amplitud.ttf
726.358	n/a	WORD	363179	wordpools/wasnorm_wordpool_less_exclusions.txt	LTP183	ltpFR	1	3	1	REFEREE	1178	n/a	n/a	1	0.422607421875	0.5869140625	0	lower	amplitud.ttf
730.576	n/a	WORD	365288	wordpools/wasnorm_wordpool_less_exclusions.txt	LTP183	ltpFR	1	3	1	MAPLE	866	n/a	n/a	1	0.422607421875	0.5869140625	0	lower	amplitud.ttf
734.78	n/a	WORD	367390	wordpools/wasnorm_wordpool_less_exclusions.txt	LTP183	ltpFR	1	3	1	SAP	1233	n/a	n/a	1	0.422607421875	0.5869140625	0	lower	amplitud.ttf
738.606	n/a	WORD	369303	wordpools/wasnorm_wordpool_less_exclusions.txt	LTP183	ltpFR	1	3	0	TREAD	1499	n/a	n/a	0	0.57763671875	0.412841796875	1	upper	zerothre.ttf
742.604	n/a	WORD	371302	wordpools/wasnorm_wordpool_less_exclusions.txt	LTP183	ltpFR	1	3	0	PREACHER	1119	n/a	n/a	1	0.57763671875	0.412841796875	1	upper	zerothre.ttf
746.786	n/a	WORD	373393	wordpools/wasnorm_wordpool_less_exclusions.txt	LTP183	ltpFR	1	3	0	OWNER	993	n/a	n/a	1	0.57763671875	0.412841796875	1	upper	zerothre.ttf
750.62	n/a	WORD	375310	wordpools/wasnorm_wordpool_less_exclusions.txt	LTP183	ltpFR	1	3	0	BUGGY	188	n/a	n/a	1	0.57763671875	0.412841796875	1	upper	zerothre.ttf
754.466	n/a	WORD	377233	wordpools/wasnorm_wordpool_less_exclusions.txt	LTP183	ltpFR	1	3	1	KETCHUP	771	n/a	n/a	0	0.422607421875	0.5869140625	0	lower	amplitud.ttf
758.432	n/a	WORD	379216	wordpools/wasnorm_wordpool_less_exclusions.txt	LTP183	ltpFR	1	3	1	GALLON	618	n/a	n/a	0	0.422607421875	0.5869140625	0	lower	amplitud.ttf
764.304	n/a	REC_START	382152	n/a	LTP183	ltpFR	1	3	n/a	n/a	n/a	n/a	n/a	n/a	n/a	n/a	n/a	n/a	n/a
765.46	n/a	REC_WORD	382730	wordpools/wasnorm_wordpool_less_exclusions.txt	LTP183	ltpFR	1	3	1	KETCHUP	771	n/a	n/a	0	n/a	n/a	n/a	n/a	n/a
766.44	n/a	REC_WORD	383220	wordpools/wasnorm_wordpool_less_exclusions.txt	LTP183	ltpFR	1	3	1	GALLON	618	n/a	n/a	0	n/a	n/a	n/a	n/a	n/a
769.922	n/a	REC_WORD	384961	wordpools/wasnorm_wordpool_less_exclusions.txt	LTP183	ltpFR	1	3	0	BUGGY	188	n/a	n/a	1	n/a	n/a	n/a	n/a	n/a
791.0	n/a	REC_WORD	395500	wordpools/wasnorm_wordpool_less_exclusions.txt	LTP183	ltpFR	1	3	1	SAP	1233	n/a	n/a	1	n/a	n/a	n/a	n/a	n/a
796.108	n/a	REC_WORD	398054	wordpools/wasnorm_wordpool_less_exclusions.txt	LTP183	ltpFR	1	3	1	MAPLE	866	n/a	n/a	1	n/a	n/a	n/a	n/a	n/a
801.966	n/a	REC_WORD	400983	wordpools/wasnorm_wordpool_less_exclusions.txt	LTP183	ltpFR	1	3	0	FLUTE	585	n/a	n/a	1	n/a	n/a	n/a	n/a	n/a
804.276	n/a	REC_WORD	402138	wordpools/wasnorm_wordpool_less_exclusions.txt	LTP183	ltpFR	1	3	0	TUBA	1515	n/a	n/a	1	n/a	n/a	n/a	n/a	n/a
844.578	n/a	WORD	422289	wordpools/wasnorm_wordpool_less_exclusions.txt	LTP183	ltpFR	1	4	0	HELMET	702	n/a	n/a	1	0.57763671875	0.412841796875	1	upper	zerothre.ttf
848.442	n/a	WORD	424221	wordpools/wasnorm_wordpool_less_exclusions.txt	LTP183	ltpFR	1	4	0	BANK	83	n/a	n/a	1	0.57763671875	0.412841796875	1	upper	zerothre.ttf
852.592	n/a	WORD	426296	wordpools/wasnorm_wordpool_less_exclusions.txt	LTP183	ltpFR	1	4	0	MONEY	908	n/a	n/a	0	0.57763671875	0.412841796875	1	upper	zerothre.ttf
856.59	n/a	WORD	428295	wordpools/wasnorm_wordpool_less_exclusions.txt	LTP183	ltpFR	1	4	1	SCREWDRIVER	1255	n/a	n/a	0	0.422607421875	0.5869140625	0	lower	amplitud.ttf
860.438	n/a	WORD	430219	wordpools/wasnorm_wordpool_less_exclusions.txt	LTP183	ltpFR	1	4	1	DRINK	498	n/a	n/a	1	0.422607421875	0.5869140625	0	lower	amplitud.ttf
864.272	n/a	WORD	432136	wordpools/wasnorm_wordpool_less_exclusions.txt	LTP183	ltpFR	1	4	0	DOG	480	n/a	n/a	1	0.57763671875	0.412841796875	1	upper	zerothre.ttf
868.452	n/a	WORD	434226	wordpools/wasnorm_wordpool_less_exclusions.txt	LTP183	ltpFR	1	4	0	BILL	126	n/a	n/a	0	0.57763671875	0.412841796875	1	upper	zerothre.ttf
872.518	n/a	WORD	436259	wordpools/wasnorm_wordpool_less_exclusions.txt	LTP183	ltpFR	1	4	0	SILK	1307	n/a	n/a	0	0.57763671875	0.412841796875	1	upper	zerothre.ttf
876.632	n/a	WORD	438316	wordpools/wasnorm_wordpool_less_exclusions.txt	LTP183	ltpFR	1	4	1	LION	827	n/a	n/a	1	0.422607421875	0.5869140625	0	lower	amplitud.ttf
880.486	n/a	WORD	440243	wordpools/wasnorm_wordpool_less_exclusions.txt	LTP183	ltpFR	1	4	1	PEDAL	1037	n/a	n/a	0	0.422607421875	0.5869140625	0	lower	amplitud.ttf
884.346	n/a	WORD	442173	wordpools/wasnorm_wordpool_less_exclusions.txt	LTP183	ltpFR	1	4	1	MESSAGE	888	n/a	n/a	0	0.422607421875	0.5869140625	0	lower	amplitud.ttf
888.278	n/a	WORD	444139	wordpools/wasnorm_wordpool_less_exclusions.txt	LTP183	ltpFR	1	4	1	SAUSAGE	1238	n/a	n/a	0	0.422607421875	0.5869140625	0	lower	amplitud.ttf
892.376	n/a	WORD	446188	wordpools/wasnorm_wordpool_less_exclusions.txt	LTP183	ltpFR	1	4	1	SWEATER	1419	n/a	n/a	0	0.422607421875	0.5869140625	0	lower	amplitud.ttf
896.258	n/a	WORD	448129	wordpools/wasnorm_wordpool_less_exclusions.txt	LTP183	ltpFR	1	4	1	SWIMMER	1420	n/a	n/a	1	0.422607421875	0.5869140625	0	lower	amplitud.ttf
900.406	n/a	WORD	450203	wordpools/wasnorm_wordpool_less_exclusions.txt	LTP183	ltpFR	1	4	0	FOLLOWER	589	n/a	n/a	1	0.57763671875	0.412841796875	1	upper	zerothre.ttf
904.306	n/a	WORD	452153	wordpools/wasnorm_wordpool_less_exclusions.txt	LTP183	ltpFR	1	4	0	SENATOR	1268	n/a	n/a	1	0.57763671875	0.412841796875	1	upper	zerothre.ttf
910.196	n/a	REC_START	455098	n/a	LTP183	ltpFR	1	4	n/a	n/a	n/a	n/a	n/a	n/a	n/a	n/a	n/a	n/a	n/a
911.368	n/a	REC_WORD	455684	wordpools/wasnorm_wordpool_less_exclusions.txt	LTP183	ltpFR	1	4	0	FOLLOWER	589	n/a	n/a	1	n/a	n/a	n/a	n/a	n/a
912.66	n/a	REC_WORD	456330	wordpools/wasnorm_wordpool_less_exclusions.txt	LTP183	ltpFR	1	4	0	SENATOR	1268	n/a	n/a	1	n/a	n/a	n/a	n/a	n/a
915.158	n/a	REC_WORD	457579	wordpools/wasnorm_wordpool_less_exclusions.txt	LTP183	ltpFR	1	4	1	SWEATER	1419	n/a	n/a	0	n/a	n/a	n/a	n/a	n/a
916.432	n/a	REC_WORD	458216	wordpools/wasnorm_wordpool_less_exclusions.txt	LTP183	ltpFR	1	4	0	SILK	1307	n/a	n/a	0	n/a	n/a	n/a	n/a	n/a
917.828	n/a	REC_WORD	458914	wordpools/wasnorm_wordpool_less_exclusions.txt	LTP183	ltpFR	1	4	n/a	SUMMER	-1	n/a	n/a	n/a	n/a	n/a	n/a	n/a	n/a
921.132	n/a	REC_WORD	460566	wordpools/wasnorm_wordpool_less_exclusions.txt	LTP183	ltpFR	1	4	0	DOG	480	n/a	n/a	1	n/a	n/a	n/a	n/a	n/a
929.102	n/a	REC_WORD	464551	wordpools/wasnorm_wordpool_less_exclusions.txt	LTP183	ltpFR	1	4	n/a	THREAD	1460	n/a	n/a	n/a	n/a	n/a	n/a	n/a	n/a
939.152	n/a	REC_WORD	469576	wordpools/wasnorm_wordpool_less_exclusions.txt	LTP183	ltpFR	1	4	1	LION	827	n/a	n/a	1	n/a	n/a	n/a	n/a	n/a
953.832	n/a	REC_WORD	476916	wordpools/wasnorm_wordpool_less_exclusions.txt	LTP183	ltpFR	1	4	0	SENATOR	1268	n/a	n/a	1	n/a	n/a	n/a	n/a	n/a
957.7	n/a	REC_WORD	478850	wordpools/wasnorm_wordpool_less_exclusions.txt	LTP183	ltpFR	1	4	0	FOLLOWER	589	n/a	n/a	1	n/a	n/a	n/a	n/a	n/a
973.924	n/a	REC_WORD	486962	wordpools/wasnorm_wordpool_less_exclusions.txt	LTP183	ltpFR	1	4	n/a	ESSAY	540	n/a	n/a	n/a	n/a	n/a	n/a	n/a	n/a
991.674	n/a	WORD	495837	wordpools/wasnorm_wordpool_less_exclusions.txt	LTP183	ltpFR	1	5	0	DYNAMITE	511	n/a	n/a	1	0.57763671875	0.412841796875	1	upper	zerothre.ttf
995.872	n/a	WORD	497936	wordpools/wasnorm_wordpool_less_exclusions.txt	LTP183	ltpFR	1	5	0	TULIP	1517	n/a	n/a	0	0.57763671875	0.412841796875	1	upper	zerothre.ttf
1000.02	n/a	WORD	500010	wordpools/wasnorm_wordpool_less_exclusions.txt	LTP183	ltpFR	1	5	0	ELBOW	520	n/a	n/a	0	0.57763671875	0.412841796875	1	upper	zerothre.ttf
1003.886	n/a	WORD	501943	wordpools/wasnorm_wordpool_less_exclusions.txt	LTP183	ltpFR	1	5	0	ROBE	1198	n/a	n/a	1	0.57763671875	0.412841796875	1	upper	zerothre.ttf
1008.018	n/a	WORD	504009	wordpools/wasnorm_wordpool_less_exclusions.txt	LTP183	ltpFR	1	5	0	ZEBRA	1635	n/a	n/a	1	0.57763671875	0.412841796875	1	upper	zerothre.ttf
1012.234	n/a	WORD	506117	wordpools/wasnorm_wordpool_less_exclusions.txt	LTP183	ltpFR	1	5	0	CORAL	378	n/a	n/a	0	0.57763671875	0.412841796875	1	upper	zerothre.ttf
1016.284	n/a	WORD	508142	wordpools/wasnorm_wordpool_less_exclusions.txt	LTP183	ltpFR	1	5	0	SWITCH	1422	n/a	n/a	0	0.57763671875	0.412841796875	1	upper	zerothre.ttf
1020.232	n/a	WORD	510116	wordpools/wasnorm_wordpool_less_exclusions.txt	LTP183	ltpFR	1	5	0	LAMP	798	n/a	n/a	1	0.57763671875	0.412841796875	1	upper	zerothre.ttf
1024.18	n/a	WORD	512090	wordpools/wasnorm_wordpool_less_exclusions.txt	LTP183	ltpFR	1	5	0	SUBMARINE	1398	n/a	n/a	1	0.57763671875	0.412841796875	1	upper	zerothre.ttf
1028.362	n/a	WORD	514181	wordpools/wasnorm_wordpool_less_exclusions.txt	LTP183	ltpFR	1	5	0	VOLLEYBALL	1576	n/a	n/a	1	0.57763671875	0.412841796875	1	upper	zerothre.ttf
1032.562	n/a	WORD	516281	wordpools/wasnorm_wordpool_less_exclusions.txt	LTP183	ltpFR	1	5	0	CROCODILE	411	n/a	n/a	1	0.57763671875	0.412841796875	1	upper	zerothre.ttf
1036.382	n/a	WORD	518191	wordpools/wasnorm_wordpool_less_exclusions.txt	LTP183	ltpFR	1	5	0	ALLIGATOR	16	n/a	n/a	1	0.57763671875	0.412841796875	1	upper	zerothre.ttf
1040.526	n/a	WORD	520263	wordpools/wasnorm_wordpool_less_exclusions.txt	LTP183	ltpFR	1	5	0	NOSE	957	n/a	n/a	0	0.57763671875	0.412841796875	1	upper	zerothre.ttf
1044.458	n/a	WORD	522229	wordpools/wasnorm_wordpool_less_exclusions.txt	LTP183	ltpFR	1	5	0	SOCKET	1340	n/a	n/a	0	0.57763671875	0.412841796875	1	upper	zerothre.ttf
1048.372	n/a	WORD	524186	wordpools/wasnorm_wordpool_less_exclusions.txt	LTP183	ltpFR	1	5	0	SADDLE	1221	n/a	n/a	1	0.57763671875	0.412841796875	1	upper	zerothre.ttf
1052.288	n/a	WORD	526144	wordpools/wasnorm_wordpool_less_exclusions.txt	LTP183	ltpFR	1	5	0	PORT	1110	n/a	n/a	1	0.57763671875	0.412841796875	1	upper	zerothre.ttf
1058.278	n/a	REC_START	529139	n/a	LTP183	ltpFR	1	5	n/a	n/a	n/a	n/a	n/a	n/a	n/a	n/a	n/a	n/a	n/a
1059.624	n/a	REC_WORD	529812	wordpools/wasnorm_wordpool_less_exclusions.txt	LTP183	ltpFR	1	5	0	PORT	1110	n/a	n/a	1	n/a	n/a	n/a	n/a	n/a
1060.218	n/a	REC_WORD	530109	wordpools/wasnorm_wordpool_less_exclusions.txt	LTP183	ltpFR	1	5	0	SADDLE	1221	n/a	n/a	1	n/a	n/a	n/a	n/a	n/a
1062.094	n/a	REC_WORD	531047	wordpools/wasnorm_wordpool_less_exclusions.txt	LTP183	ltpFR	1	5	0	ALLIGATOR	16	n/a	n/a	1	n/a	n/a	n/a	n/a	n/a
1062.886	n/a	REC_WORD	531443	wordpools/wasnorm_wordpool_less_exclusions.txt	LTP183	ltpFR	1	5	0	CROCODILE	411	n/a	n/a	1	n/a	n/a	n/a	n/a	n/a
1071.892	n/a	REC_WORD	535946	wordpools/wasnorm_wordpool_less_exclusions.txt	LTP183	ltpFR	1	5	0	SWITCH	1422	n/a	n/a	0	n/a	n/a	n/a	n/a	n/a
1072.66	n/a	REC_WORD	536330	wordpools/wasnorm_wordpool_less_exclusions.txt	LTP183	ltpFR	1	5	0	LAMP	798	n/a	n/a	1	n/a	n/a	n/a	n/a	n/a
1075.514	n/a	REC_WORD	537757	wordpools/wasnorm_wordpool_less_exclusions.txt	LTP183	ltpFR	1	5	0	SOCKET	1340	n/a	n/a	0	n/a	n/a	n/a	n/a	n/a
1083.466	n/a	REC_WORD	541733	wordpools/wasnorm_wordpool_less_exclusions.txt	LTP183	ltpFR	1	5	0	ZEBRA	1635	n/a	n/a	1	n/a	n/a	n/a	n/a	n/a
1097.24	n/a	REC_WORD	548620	wordpools/wasnorm_wordpool_less_exclusions.txt	LTP183	ltpFR	1	5	0	ELBOW	520	n/a	n/a	0	n/a	n/a	n/a	n/a	n/a
1108.86	n/a	REC_WORD	554430	wordpools/wasnorm_wordpool_less_exclusions.txt	LTP183	ltpFR	1	5	0	SOCKET	1340	n/a	n/a	0	n/a	n/a	n/a	n/a	n/a
1139.088	n/a	WORD	569544	wordpools/wasnorm_wordpool_less_exclusions.txt	LTP183	ltpFR	1	6	1	KNUCKLE	789	n/a	n/a	0	0.422607421875	0.5869140625	0	lower	amplitud.ttf
1143.066	n/a	WORD	571533	wordpools/wasnorm_wordpool_less_exclusions.txt	LTP183	ltpFR	1	6	1	NICKEL	950	n/a	n/a	0	0.422607421875	0.5869140625	0	lower	amplitud.ttf
1147.1	n/a	WORD	573550	wordpools/wasnorm_wordpool_less_exclusions.txt	LTP183	ltpFR	1	6	1	CENT	270	n/a	n/a	0	0.422607421875	0.5869140625	0	lower	amplitud.ttf
1151.132	n/a	WORD	575566	wordpools/wasnorm_wordpool_less_exclusions.txt	LTP183	ltpFR	1	6	1	STAKE	1368	n/a	n/a	0	0.422607421875	0.5869140625	0	lower	amplitud.ttf
1155.282	n/a	WORD	577641	wordpools/wasnorm_wordpool_less_exclusions.txt	LTP183	ltpFR	1	6	1	OTTER	986	n/a	n/a	1	0.422607421875	0.5869140625	0	lower	amplitud.ttf
1159.464	n/a	WORD	579732	wordpools/wasnorm_wordpool_less_exclusions.txt	LTP183	ltpFR	1	6	1	PORCUPINE	1107	n/a	n/a	1	0.422607421875	0.5869140625	0	lower	amplitud.ttf
1163.428	n/a	WORD	581714	wordpools/wasnorm_wordpool_less_exclusions.txt	LTP183	ltpFR	1	6	0	SEAGULL	1261	n/a	n/a	1	0.57763671875	0.412841796875	1	upper	zerothre.ttf
1167.612	n/a	WORD	583806	wordpools/wasnorm_wordpool_less_exclusions.txt	LTP183	ltpFR	1	6	0	UMPIRE	1535	n/a	n/a	1	0.57763671875	0.412841796875	1	upper	zerothre.ttf
1171.778	n/a	WORD	585889	wordpools/wasnorm_wordpool_less_exclusions.txt	LTP183	ltpFR	1	6	0	DOVE	491	n/a	n/a	0	0.57763671875	0.412841796875	1	upper	zerothre.ttf
1175.812	n/a	WORD	587906	wordpools/wasnorm_wordpool_less_exclusions.txt	LTP183	ltpFR	1	6	0	BATH	98	n/a	n/a	1	0.57763671875	0.412841796875	1	upper	zerothre.ttf
1179.892	n/a	WORD	589946	wordpools/wasnorm_wordpool_less_exclusions.txt	LTP183	ltpFR	1	6	0	BIRD	129	n/a	n/a	0	0.57763671875	0.412841796875	1	upper	zerothre.ttf
1183.924	n/a	WORD	591962	wordpools/wasnorm_wordpool_less_exclusions.txt	LTP183	ltpFR	1	6	0	WEB	1598	n/a	n/a	0	0.57763671875	0.412841796875	1	upper	zerothre.ttf
1187.94	n/a	WORD	593970	wordpools/wasnorm_wordpool_less_exclusions.txt	LTP183	ltpFR	1	6	1	CANVAS	234	n/a	n/a	0	0.422607421875	0.5869140625	0	lower	amplitud.ttf
1192.138	n/a	WORD	596069	wordpools/wasnorm_wordpool_less_exclusions.txt	LTP183	ltpFR	1	6	1	TOENAIL	1474	n/a	n/a	1	0.422607421875	0.5869140625	0	lower	amplitud.ttf
1195.968	n/a	WORD	597984	wordpools/wasnorm_wordpool_less_exclusions.txt	LTP183	ltpFR	1	6	0	PORTRAIT	1111	n/a	n/a	1	0.57763671875	0.412841796875	1	upper	zerothre.ttf
1200.05	n/a	WORD	600025	wordpools/wasnorm_wordpool_less_exclusions.txt	LTP183	ltpFR	1	6	0	OFFICE	972	n/a	n/a	1	0.57763671875	0.412841796875	1	upper	zerothre.ttf
1206.026	n/a	REC_START	603013	n/a	LTP183	ltpFR	1	6	n/a	n/a	n/a	n/a	n/a	n/a	n/a	n/a	n/a	n/a	n/a
1207.082	n/a	REC_WORD	603541	wordpools/wasnorm_wordpool_less_exclusions.txt	LTP183	ltpFR	1	6	0	PORTRAIT	1111	n/a	n/a	1	n/a	n/a	n/a	n/a	n/a
1208.434	n/a	REC_WORD	604217	wordpools/wasnorm_wordpool_less_exclusions.txt	LTP183	ltpFR	1	6	0	OFFICE	972	n/a	n/a	1	n/a	n/a	n/a	n/a	n/a
1209.92	n/a	REC_WORD	604960	wordpools/wasnorm_wordpool_less_exclusions.txt	LTP183	ltpFR	1	6	n/a	SNAIL	1332	n/a	n/a	n/a	n/a	n/a	n/a	n/a	n/a
1210.838	n/a	REC_WORD	605419	wordpools/wasnorm_wordpool_less_exclusions.txt	LTP183	ltpFR	1	6	0	SEAGULL	1261	n/a	n/a	1	n/a	n/a	n/a	n/a	n/a
1214.346	n/a	REC_WORD	607173	wordpools/wasnorm_wordpool_less_exclusions.txt	LTP183	ltpFR	1	6	1	TOENAIL	1474	n/a	n/a	1	n/a	n/a	n/a	n/a	n/a
1216.87	n/a	REC_WORD	608435	wordpools/wasnorm_wordpool_less_exclusions.txt	LTP183	ltpFR	1	6	1	OTTER	986	n/a	n/a	1	n/a	n/a	n/a	n/a	n/a
1224.898	n/a	REC_WORD	612449	wordpools/wasnorm_wordpool_less_exclusions.txt	LTP183	ltpFR	1	6	0	UMPIRE	1535	n/a	n/a	1	n/a	n/a	n/a	n/a	n/a
1234.346	n/a	REC_WORD	617173	wordpools/wasnorm_wordpool_less_exclusions.txt	LTP183	ltpFR	1	6	0	OFFICE	972	n/a	n/a	1	n/a	n/a	n/a	n/a	n/a
1246.526	n/a	REC_WORD	623263	wordpools/wasnorm_wordpool_less_exclusions.txt	LTP183	ltpFR	1	6	1	KNUCKLE	789	n/a	n/a	0	n/a	n/a	n/a	n/a	n/a
1249.628	n/a	REC_WORD	624814	wordpools/wasnorm_wordpool_less_exclusions.txt	LTP183	ltpFR	1	6	n/a	COIN	343	n/a	n/a	n/a	n/a	n/a	n/a	n/a	n/a
1250.446	n/a	REC_WORD	625223	wordpools/wasnorm_wordpool_less_exclusions.txt	LTP183	ltpFR	1	6	1	CENT	270	n/a	n/a	0	n/a	n/a	n/a	n/a	n/a
1256.312	n/a	REC_WORD	628156	wordpools/wasnorm_wordpool_less_exclusions.txt	LTP183	ltpFR	1	6	0	BANK	83	n/a	n/a	1	n/a	n/a	n/a	n/a	n/a
1267.294	n/a	REC_WORD	633647	wordpools/wasnorm_wordpool_less_exclusions.txt	LTP183	ltpFR	1	6	n/a	VAULT	1550	n/a	n/a	n/a	n/a	n/a	n/a	n/a	n/a
1286.668	n/a	WORD	643334	wordpools/wasnorm_wordpool_less_exclusions.txt	LTP183	ltpFR	1	7	-1	JAR	750	n/a	n/a	-1	1.0	1.0	1	upper	Verdana.ttf
1290.564	n/a	WORD	645282	wordpools/wasnorm_wordpool_less_exclusions.txt	LTP183	ltpFR	1	7	-1	ROOSTER	1209	n/a	n/a	-1	1.0	1.0	1	upper	Verdana.ttf
1294.566	n/a	WORD	647283	wordpools/wasnorm_wordpool_less_exclusions.txt	LTP183	ltpFR	1	7	-1	MINK	897	n/a	n/a	-1	1.0	1.0	1	upper	Verdana.ttf
1298.562	n/a	WORD	649281	wordpools/wasnorm_wordpool_less_exclusions.txt	LTP183	ltpFR	1	7	-1	CONTAINER	366	n/a	n/a	-1	1.0	1.0	1	upper	Verdana.ttf
1302.762	n/a	WORD	651381	wordpools/wasnorm_wordpool_less_exclusions.txt	LTP183	ltpFR	1	7	-1	TORCH	1484	n/a	n/a	-1	1.0	1.0	1	upper	Verdana.ttf
1306.66	n/a	WORD	653330	wordpools/wasnorm_wordpool_less_exclusions.txt	LTP183	ltpFR	1	7	-1	MULE	931	n/a	n/a	-1	1.0	1.0	1	upper	Verdana.ttf
1310.574	n/a	WORD	655287	wordpools/wasnorm_wordpool_less_exclusions.txt	LTP183	ltpFR	1	7	-1	MACHINE	852	n/a	n/a	-1	1.0	1.0	1	upper	Verdana.ttf
1314.472	n/a	WORD	657236	wordpools/wasnorm_wordpool_less_exclusions.txt	LTP183	ltpFR	1	7	-1	COMPUTER	359	n/a	n/a	-1	1.0	1.0	1	upper	Verdana.ttf
1318.404	n/a	WORD	659202	wordpools/wasnorm_wordpool_less_exclusions.txt	LTP183	ltpFR	1	7	-1	CANAL	226	n/a	n/a	-1	1.0	1.0	1	upper	Verdana.ttf
1322.57	n/a	WORD	661285	wordpools/wasnorm_wordpool_less_exclusions.txt	LTP183	ltpFR	1	7	-1	VESSEL	1558	n/a	n/a	-1	1.0	1.0	1	upper	Verdana.ttf
1326.736	n/a	WORD	663368	wordpools/wasnorm_wordpool_less_exclusions.txt	LTP183	ltpFR	1	7	-1	WICK	1607	n/a	n/a	-1	1.0	1.0	1	upper	Verdana.ttf
1330.568	n/a	WORD	665284	wordpools/wasnorm_wordpool_less_exclusions.txt	LTP183	ltpFR	1	7	-1	SEA	1259	n/a	n/a	-1	1.0	1.0	1	upper	Verdana.ttf
1334.566	n/a	WORD	667283	wordpools/wasnorm_wordpool_less_exclusions.txt	LTP183	ltpFR	1	7	-1	EARRING	514	n/a	n/a	-1	1.0	1.0	1	upper	Verdana.ttf
1338.582	n/a	WORD	669291	wordpools/wasnorm_wordpool_less_exclusions.txt	LTP183	ltpFR	1	7	-1	BOUILLON	154	n/a	n/a	-1	1.0	1.0	1	upper	Verdana.ttf
1342.598	n/a	WORD	671299	wordpools/wasnorm_wordpool_less_exclusions.txt	LTP183	ltpFR	1	7	-1	OYSTER	995	n/a	n/a	-1	1.0	1.0	1	upper	Verdana.ttf
1346.578	n/a	WORD	673289	wordpools/wasnorm_wordpool_less_exclusions.txt	LTP183	ltpFR	1	7	-1	BLANKET	135	n/a	n/a	-1	1.0	1.0	1	upper	Verdana.ttf
1352.536	n/a	REC_START	676268	n/a	LTP183	ltpFR	1	7	n/a	n/a	n/a	n/a	n/a	n/a	n/a	n/a	n/a	n/a	n/a
1353.732	n/a	REC_WORD	676866	wordpools/wasnorm_wordpool_less_exclusions.txt	LTP183	ltpFR	1	7	-1	BLANKET	135	n/a	n/a	-1	n/a	n/a	n/a	n/a	n/a
1354.332	n/a	REC_WORD	677166	wordpools/wasnorm_wordpool_less_exclusions.txt	LTP183	ltpFR	1	7	-1	SEA	1259	n/a	n/a	-1	n/a	n/a	n/a	n/a	n/a
1355.324	n/a	REC_WORD	677662	wordpools/wasnorm_wordpool_less_exclusions.txt	LTP183	ltpFR	1	7	-1	BOUILLON	154	n/a	n/a	-1	n/a	n/a	n/a	n/a	n/a
1356.936	n/a	REC_WORD	678468	wordpools/wasnorm_wordpool_less_exclusions.txt	LTP183	ltpFR	1	7	-1	OYSTER	995	n/a	n/a	-1	n/a	n/a	n/a	n/a	n/a
1386.48	n/a	REC_WORD	693240	wordpools/wasnorm_wordpool_less_exclusions.txt	LTP183	ltpFR	1	7	-1	BLANKET	135	n/a	n/a	-1	n/a	n/a	n/a	n/a	n/a
1395.596	n/a	REC_WORD	697798	wordpools/wasnorm_wordpool_less_exclusions.txt	LTP183	ltpFR	1	7	-1	EARRING	514	n/a	n/a	-1	n/a	n/a	n/a	n/a	n/a
1436.004	n/a	WORD	718002	wordpools/wasnorm_wordpool_less_exclusions.txt	LTP183	ltpFR	1	8	-1	JOURNAL	760	n/a	n/a	-1	1.0	1.0	1	upper	Verdana.ttf
1439.868	n/a	WORD	719934	wordpools/wasnorm_wordpool_less_exclusions.txt	LTP183	ltpFR	1	8	-1	SHOP	1290	n/a	n/a	-1	1.0	1.0	1	upper	Verdana.ttf
1443.986	n/a	WORD	721993	wordpools/wasnorm_wordpool_less_exclusions.txt	LTP183	ltpFR	1	8	-1	MALL	860	n/a	n/a	-1	1.0	1.0	1	upper	Verdana.ttf
1448.014	n/a	WORD	724007	wordpools/wasnorm_wordpool_less_exclusions.txt	LTP183	ltpFR	1	8	-1	SKIN	1318	n/a	n/a	-1	1.0	1.0	1	upper	Verdana.ttf
1451.882	n/a	WORD	725941	wordpools/wasnorm_wordpool_less_exclusions.txt	LTP183	ltpFR	1	8	-1	NOVEL	960	n/a	n/a	-1	1.0	1.0	1	upper	Verdana.ttf
1455.712	n/a	WORD	727856	wordpools/wasnorm_wordpool_less_exclusions.txt	LTP183	ltpFR	1	8	-1	PASSAGE	1019	n/a	n/a	-1	1.0	1.0	1	upper	Verdana.ttf
1459.678	n/a	WORD	729839	wordpools/wasnorm_wordpool_less_exclusions.txt	LTP183	ltpFR	1	8	-1	WASHCLOTH	1591	n/a	n/a	-1	1.0	1.0	1	upper	Verdana.ttf
1463.592	n/a	WORD	731796	wordpools/wasnorm_wordpool_less_exclusions.txt	LTP183	ltpFR	1	8	-1	JACKET	747	n/a	n/a	-1	1.0	1.0	1	upper	Verdana.ttf
1467.456	n/a	WORD	733728	wordpools/wasnorm_wordpool_less_exclusions.txt	LTP183	ltpFR	1	8	-1	SOCK	1339	n/a	n/a	-1	1.0	1.0	1	upper	Verdana.ttf
1471.556	n/a	WORD	735778	wordpools/wasnorm_wordpool_less_exclusions.txt	LTP183	ltpFR	1	8	-1	BOAT	144	n/a	n/a	-1	1.0	1.0	1	upper	Verdana.ttf
1475.392	n/a	WORD	737696	wordpools/wasnorm_wordpool_less_exclusions.txt	LTP183	ltpFR	1	8	-1	BUTTER	205	n/a	n/a	-1	1.0	1.0	1	upper	Verdana.ttf
1479.404	n/a	WORD	739702	wordpools/wasnorm_wordpool_less_exclusions.txt	LTP183	ltpFR	1	8	-1	SNEAKER	1334	n/a	n/a	-1	1.0	1.0	1	upper	Verdana.ttf
1483.384	n/a	WORD	741692	wordpools/wasnorm_wordpool_less_exclusions.txt	LTP183	ltpFR	1	8	-1	ARTERY	41	n/a	n/a	-1	1.0	1.0	1	upper	Verdana.ttf
1487.35	n/a	WORD	743675	wordpools/wasnorm_wordpool_less_exclusions.txt	LTP183	ltpFR	1	8	-1	BOXER	160	n/a	n/a	-1	1.0	1.0	1	upper	Verdana.ttf
1491.466	n/a	WORD	745733	wordpools/wasnorm_wordpool_less_exclusions.txt	LTP183	ltpFR	1	8	-1	CHIP	303	n/a	n/a	-1	1.0	1.0	1	upper	Verdana.ttf
1495.682	n/a	WORD	747841	wordpools/wasnorm_wordpool_less_exclusions.txt	LTP183	ltpFR	1	8	-1	MOAT	903	n/a	n/a	-1	1.0	1.0	1	upper	Verdana.ttf
1501.588	n/a	REC_START	750794	n/a	LTP183	ltpFR	1	8	n/a	n/a	n/a	n/a	n/a	n/a	n/a	n/a	n/a	n/a	n/a
1502.72	n/a	REC_WORD	751360	wordpools/wasnorm_wordpool_less_exclusions.txt	LTP183	ltpFR	1	8	-1	MOAT	903	n/a	n/a	-1	n/a	n/a	n/a	n/a	n/a
1503.61	n/a	REC_WORD	751805	wordpools/wasnorm_wordpool_less_exclusions.txt	LTP183	ltpFR	1	8	-1	CHIP	303	n/a	n/a	-1	n/a	n/a	n/a	n/a	n/a
1504.776	n/a	REC_WORD	752388	wordpools/wasnorm_wordpool_less_exclusions.txt	LTP183	ltpFR	1	8	-1	BUTTER	205	n/a	n/a	-1	n/a	n/a	n/a	n/a	n/a
1505.724	n/a	REC_WORD	752862	wordpools/wasnorm_wordpool_less_exclusions.txt	LTP183	ltpFR	1	8	-1	NOVEL	960	n/a	n/a	-1	n/a	n/a	n/a	n/a	n/a
1506.672	n/a	REC_WORD	753336	wordpools/wasnorm_wordpool_less_exclusions.txt	LTP183	ltpFR	1	8	-1	JOURNAL	760	n/a	n/a	-1	n/a	n/a	n/a	n/a	n/a
1509.002	n/a	REC_WORD	754501	wordpools/wasnorm_wordpool_less_exclusions.txt	LTP183	ltpFR	1	8	-1	SNEAKER	1334	n/a	n/a	-1	n/a	n/a	n/a	n/a	n/a
1511.182	n/a	REC_WORD	755591	wordpools/wasnorm_wordpool_less_exclusions.txt	LTP183	ltpFR	1	8	-1	SOCK	1339	n/a	n/a	-1	n/a	n/a	n/a	n/a	n/a
1515.028	n/a	REC_WORD_VV	757514	wordpools/wasnorm_wordpool_less_exclusions.txt	LTP183	ltpFR	1	8	n/a	<>	-1	n/a	n/a	n/a	n/a	n/a	n/a	n/a	n/a
1519.28	n/a	REC_WORD	759640	wordpools/wasnorm_wordpool_less_exclusions.txt	LTP183	ltpFR	1	8	-1	JACKET	747	n/a	n/a	-1	n/a	n/a	n/a	n/a	n/a
1521.016	n/a	REC_WORD	760508	wordpools/wasnorm_wordpool_less_exclusions.txt	LTP183	ltpFR	1	8	-1	BOAT	144	n/a	n/a	-1	n/a	n/a	n/a	n/a	n/a
1525.55	n/a	REC_WORD	762775	wordpools/wasnorm_wordpool_less_exclusions.txt	LTP183	ltpFR	1	8	1	SWEATER	1419	n/a	n/a	0	n/a	n/a	n/a	n/a	n/a
1541.454	n/a	REC_WORD	770727	wordpools/wasnorm_wordpool_less_exclusions.txt	LTP183	ltpFR	1	8	-1	BOXER	160	n/a	n/a	-1	n/a	n/a	n/a	n/a	n/a
1546.778	n/a	REC_WORD	773389	wordpools/wasnorm_wordpool_less_exclusions.txt	LTP183	ltpFR	1	8	-1	ARTERY	41	n/a	n/a	-1	n/a	n/a	n/a	n/a	n/a
1586.08	n/a	WORD	793040	wordpools/wasnorm_wordpool_less_exclusions.txt	LTP183	ltpFR	1	9	0	PALM	1007	n/a	n/a	0	0.57763671875	0.412841796875	1	upper	zerothre.ttf
1590.108	n/a	WORD	795054	wordpools/wasnorm_wordpool_less_exclusions.txt	LTP183	ltpFR	1	9	0	ELM	527	n/a	n/a	1	0.57763671875	0.412841796875	1	upper	zerothre.ttf
1593.974	n/a	WORD	796987	wordpools/wasnorm_wordpool_less_exclusions.txt	LTP183	ltpFR	1	9	0	PAIL	1002	n/a	n/a	1	0.57763671875	0.412841796875	1	upper	zerothre.ttf
1598.038	n/a	WORD	799019	wordpools/wasnorm_wordpool_less_exclusions.txt	LTP183	ltpFR	1	9	0	SOFA	1342	n/a	n/a	1	0.57763671875	0.412841796875	1	upper	zerothre.ttf
1601.872	n/a	WORD	800936	wordpools/wasnorm_wordpool_less_exclusions.txt	LTP183	ltpFR	1	9	0	CUPBOARD	425	n/a	n/a	1	0.57763671875	0.412841796875	1	upper	zerothre.ttf
1605.892	n/a	WORD	802946	wordpools/wasnorm_wordpool_less_exclusions.txt	LTP183	ltpFR	1	9	0	POND	1101	n/a	n/a	1	0.57763671875	0.412841796875	1	upper	zerothre.ttf
1609.738	n/a	WORD	804869	wordpools/wasnorm_wordpool_less_exclusions.txt	LTP183	ltpFR	1	9	0	DUNE	506	n/a	n/a	1	0.57763671875	0.412841796875	1	upper	zerothre.ttf
1613.65	n/a	WORD	806825	wordpools/wasnorm_wordpool_less_exclusions.txt	LTP183	ltpFR	1	9	0	SUBURB	1399	n/a	n/a	1	0.57763671875	0.412841796875	1	upper	zerothre.ttf
1617.53	n/a	WORD	808765	wordpools/wasnorm_wordpool_less_exclusions.txt	LTP183	ltpFR	1	9	0	TEA	1439	n/a	n/a	0	0.57763671875	0.412841796875	1	upper	zerothre.ttf
1621.362	n/a	WORD	810681	wordpools/wasnorm_wordpool_less_exclusions.txt	LTP183	ltpFR	1	9	0	DUCK	504	n/a	n/a	1	0.57763671875	0.412841796875	1	upper	zerothre.ttf
1625.36	n/a	WORD	812680	wordpools/wasnorm_wordpool_less_exclusions.txt	LTP183	ltpFR	1	9	0	BUN	197	n/a	n/a	0	0.57763671875	0.412841796875	1	upper	zerothre.ttf
1629.292	n/a	WORD	814646	wordpools/wasnorm_wordpool_less_exclusions.txt	LTP183	ltpFR	1	9	0	LOAF	835	n/a	n/a	0	0.57763671875	0.412841796875	1	upper	zerothre.ttf
1633.36	n/a	WORD	816680	wordpools/wasnorm_wordpool_less_exclusions.txt	LTP183	ltpFR	1	9	0	STEM	1376	n/a	n/a	0	0.57763671875	0.412841796875	1	upper	zerothre.ttf
1637.49	n/a	WORD	818745	wordpools/wasnorm_wordpool_less_exclusions.txt	LTP183	ltpFR	1	9	0	KEY	773	n/a	n/a	0	0.57763671875	0.412841796875	1	upper	zerothre.ttf
1641.522	n/a	WORD	820761	wordpools/wasnorm_wordpool_less_exclusions.txt	LTP183	ltpFR	1	9	0	BLACKBERRY	132	n/a	n/a	0	0.57763671875	0.412841796875	1	upper	zerothre.ttf
1645.688	n/a	WORD	822844	wordpools/wasnorm_wordpool_less_exclusions.txt	LTP183	ltpFR	1	9	0	PECAN	1036	n/a	n/a	0	0.57763671875	0.412841796875	1	upper	zerothre.ttf
1651.46	n/a	REC_START	825730	n/a	LTP183	ltpFR	1	9	n/a	n/a	n/a	n/a	n/a	n/a	n/a	n/a	n/a	n/a	n/a
1652.278	n/a	REC_WORD	826139	wordpools/wasnorm_wordpool_less_exclusions.txt	LTP183	ltpFR	1	9	0	BLACKBERRY	132	n/a	n/a	0	n/a	n/a	n/a	n/a	n/a
1653.366	n/a	REC_WORD	826683	wordpools/wasnorm_wordpool_less_exclusions.txt	LTP183	ltpFR	1	9	0	PECAN	1036	n/a	n/a	0	n/a	n/a	n/a	n/a	n/a
1654.244	n/a	REC_WORD	827122	wordpools/wasnorm_wordpool_less_exclusions.txt	LTP183	ltpFR	1	9	0	LOAF	835	n/a	n/a	0	n/a	n/a	n/a	n/a	n/a
1655.442	n/a	REC_WORD	827721	wordpools/wasnorm_wordpool_less_exclusions.txt	LTP183	ltpFR	1	9	0	BUN	197	n/a	n/a	0	n/a	n/a	n/a	n/a	n/a
1659.608	n/a	REC_WORD	829804	wordpools/wasnorm_wordpool_less_exclusions.txt	LTP183	ltpFR	1	9	0	KEY	773	n/a	n/a	0	n/a	n/a	n/a	n/a	n/a
1675.092	n/a	REC_WORD	837546	wordpools/wasnorm_wordpool_less_exclusions.txt	LTP183	ltpFR	1	9	0	KEY	773	n/a	n/a	0	n/a	n/a	n/a	n/a	n/a
1683.146	n/a	REC_WORD	841573	wordpools/wasnorm_wordpool_less_exclusions.txt	LTP183	ltpFR	1	9	0	DUCK	504	n/a	n/a	1	n/a	n/a	n/a	n/a	n/a
1704.328	n/a	REC_WORD	852164	wordpools/wasnorm_wordpool_less_exclusions.txt	LTP183	ltpFR	1	9	0	STEM	1376	n/a	n/a	0	n/a	n/a	n/a	n/a	n/a
1714.15	n/a	REC_WORD	857075	wordpools/wasnorm_wordpool_less_exclusions.txt	LTP183	ltpFR	1	9	1	MAPLE	866	n/a	n/a	1	n/a	n/a	n/a	n/a	n/a
1733.54	n/a	WORD	866770	wordpools/wasnorm_wordpool_less_exclusions.txt	LTP183	ltpFR	1	10	-1	GUITAR	670	n/a	n/a	-1	1.0	1.0	1	upper	Verdana.ttf
1737.474	n/a	WORD	868737	wordpools/wasnorm_wordpool_less_exclusions.txt	LTP183	ltpFR	1	10	-1	SHINGLE	1285	n/a	n/a	-1	1.0	1.0	1	upper	Verdana.ttf
1741.404	n/a	WORD	870702	wordpools/wasnorm_wordpool_less_exclusions.txt	LTP183	ltpFR	1	10	-1	FIELD	562	n/a	n/a	-1	1.0	1.0	1	upper	Verdana.ttf
1745.504	n/a	WORD	872752	wordpools/wasnorm_wordpool_less_exclusions.txt	LTP183	ltpFR	1	10	-1	STADIUM	1364	n/a	n/a	-1	1.0	1.0	1	upper	Verdana.ttf
1749.402	n/a	WORD	874701	wordpools/wasnorm_wordpool_less_exclusions.txt	LTP183	ltpFR	1	10	-1	TROUT	1511	n/a	n/a	-1	1.0	1.0	1	upper	Verdana.ttf
1753.618	n/a	WORD	876809	wordpools/wasnorm_wordpool_less_exclusions.txt	LTP183	ltpFR	1	10	-1	STAGE	1366	n/a	n/a	-1	1.0	1.0	1	upper	Verdana.ttf
1757.834	n/a	WORD	878917	wordpools/wasnorm_wordpool_less_exclusions.txt	LTP183	ltpFR	1	10	-1	HOUSE	725	n/a	n/a	-1	1.0	1.0	1	upper	Verdana.ttf
1761.966	n/a	WORD	880983	wordpools/wasnorm_wordpool_less_exclusions.txt	LTP183	ltpFR	1	10	-1	TRICYCLE	1506	n/a	n/a	-1	1.0	1.0	1	upper	Verdana.ttf
1766.014	n/a	WORD	883007	wordpools/wasnorm_wordpool_less_exclusions.txt	LTP183	ltpFR	1	10	-1	PEACH	1031	n/a	n/a	-1	1.0	1.0	1	upper	Verdana.ttf
1770.062	n/a	WORD	885031	wordpools/wasnorm_wordpool_less_exclusions.txt	LTP183	ltpFR	1	10	-1	BANANA	77	n/a	n/a	-1	1.0	1.0	1	upper	Verdana.ttf
1774.23	n/a	WORD	887115	wordpools/wasnorm_wordpool_less_exclusions.txt	LTP183	ltpFR	1	10	-1	GLUE	643	n/a	n/a	-1	1.0	1.0	1	upper	Verdana.ttf
1778.06	n/a	WORD	889030	wordpools/wasnorm_wordpool_less_exclusions.txt	LTP183	ltpFR	1	10	-1	CACTUS	215	n/a	n/a	-1	1.0	1.0	1	upper	Verdana.ttf
1781.908	n/a	WORD	890954	wordpools/wasnorm_wordpool_less_exclusions.txt	LTP183	ltpFR	1	10	-1	FRAME	600	n/a	n/a	-1	1.0	1.0	1	upper	Verdana.ttf
1785.742	n/a	WORD	892871	wordpools/wasnorm_wordpool_less_exclusions.txt	LTP183	ltpFR	1	10	-1	DIAMOND	458	n/a	n/a	-1	1.0	1.0	1	upper	Verdana.ttf
1789.738	n/a	WORD	894869	wordpools/wasnorm_wordpool_less_exclusions.txt	LTP183	ltpFR	1	10	-1	DONKEY	484	n/a	n/a	-1	1.0	1.0	1	upper	Verdana.ttf
1793.688	n/a	WORD	896844	wordpools/wasnorm_wordpool_less_exclusions.txt	LTP183	ltpFR	1	10	-1	LOBSTER	837	n/a	n/a	-1	1.0	1.0	1	upper	Verdana.ttf
1799.46	n/a	REC_START	899730	n/a	LTP183	ltpFR	1	10	n/a	n/a	n/a	n/a	n/a	n/a	n/a	n/a	n/a	n/a	n/a
1800.872	n/a	REC_WORD	900436	wordpools/wasnorm_wordpool_less_exclusions.txt	LTP183	ltpFR	1	10	-1	DONKEY	484	n/a	n/a	-1	n/a	n/a	n/a	n/a	n/a
1802.184	n/a	REC_WORD	901092	wordpools/wasnorm_wordpool_less_exclusions.txt	LTP183	ltpFR	1	10	-1	LOBSTER	837	n/a	n/a	-1	n/a	n/a	n/a	n/a	n/a
1803.756	n/a	REC_WORD	901878	wordpools/wasnorm_wordpool_less_exclusions.txt	LTP183	ltpFR	1	10	-1	DIAMOND	458	n/a	n/a	-1	n/a	n/a	n/a	n/a	n/a
1807.756	n/a	REC_WORD	903878	wordpools/wasnorm_wordpool_less_exclusions.txt	LTP183	ltpFR	1	10	-1	PEACH	1031	n/a	n/a	-1	n/a	n/a	n/a	n/a	n/a
1809.034	n/a	REC_WORD	904517	wordpools/wasnorm_wordpool_less_exclusions.txt	LTP183	ltpFR	1	10	-1	BANANA	77	n/a	n/a	-1	n/a	n/a	n/a	n/a	n/a
1812.228	n/a	REC_WORD	906114	wordpools/wasnorm_wordpool_less_exclusions.txt	LTP183	ltpFR	1	10	-1	SHINGLE	1285	n/a	n/a	-1	n/a	n/a	n/a	n/a	n/a
1822.908	n/a	REC_WORD	911454	wordpools/wasnorm_wordpool_less_exclusions.txt	LTP183	ltpFR	1	10	-1	GUITAR	670	n/a	n/a	-1	n/a	n/a	n/a	n/a	n/a
1841.338	n/a	REC_WORD	920669	wordpools/wasnorm_wordpool_less_exclusions.txt	LTP183	ltpFR	1	10	0	BLACKBERRY	132	n/a	n/a	0	n/a	n/a	n/a	n/a	n/a
1881.006	n/a	WORD	940503	wordpools/wasnorm_wordpool_less_exclusions.txt	LTP183	ltpFR	1	11	1	WASP	1593	n/a	n/a	1	0.422607421875	0.5869140625	0	lower	amplitud.ttf
1885.068	n/a	WORD	942534	wordpools/wasnorm_wordpool_less_exclusions.txt	LTP183	ltpFR	1	11	1	TRUMPET	1513	n/a	n/a	0	0.422607421875	0.5869140625	0	lower	amplitud.ttf
1889.202	n/a	WORD	944601	wordpools/wasnorm_wordpool_less_exclusions.txt	LTP183	ltpFR	1	11	1	KING	777	n/a	n/a	1	0.422607421875	0.5869140625	0	lower	amplitud.ttf
1893.318	n/a	WORD	946659	wordpools/wasnorm_wordpool_less_exclusions.txt	LTP183	ltpFR	1	11	1	AIRPORT	13	n/a	n/a	0	0.422607421875	0.5869140625	0	lower	amplitud.ttf
1897.434	n/a	WORD	948717	wordpools/wasnorm_wordpool_less_exclusions.txt	LTP183	ltpFR	1	11	1	PILOT	1070	n/a	n/a	1	0.422607421875	0.5869140625	0	lower	amplitud.ttf
1901.632	n/a	WORD	950816	wordpools/wasnorm_wordpool_less_exclusions.txt	LTP183	ltpFR	1	11	1	RADIO	1157	n/a	n/a	0	0.422607421875	0.5869140625	0	lower	amplitud.ttf
1905.538	n/a	WORD	952769	wordpools/wasnorm_wordpool_less_exclusions.txt	LTP183	ltpFR	1	11	1	SPIDER	1351	n/a	n/a	1	0.422607421875	0.5869140625	0	lower	amplitud.ttf
1909.48	n/a	WORD	954740	wordpools/wasnorm_wordpool_less_exclusions.txt	LTP183	ltpFR	1	11	1	PALACE	1006	n/a	n/a	0	0.422607421875	0.5869140625	0	lower	amplitud.ttf
1913.512	n/a	WORD	956756	wordpools/wasnorm_wordpool_less_exclusions.txt	LTP183	ltpFR	1	11	1	TIGER	1467	n/a	n/a	1	0.422607421875	0.5869140625	0	lower	amplitud.ttf
1917.632	n/a	WORD	958816	wordpools/wasnorm_wordpool_less_exclusions.txt	LTP183	ltpFR	1	11	1	ROPE	1211	n/a	n/a	0	0.422607421875	0.5869140625	0	lower	amplitud.ttf
1921.492	n/a	WORD	960746	wordpools/wasnorm_wordpool_less_exclusions.txt	LTP183	ltpFR	1	11	1	XEROX	1628	n/a	n/a	0	0.422607421875	0.5869140625	0	lower	amplitud.ttf
1925.626	n/a	WORD	962813	wordpools/wasnorm_wordpool_less_exclusions.txt	LTP183	ltpFR	1	11	1	MOUTH	926	n/a	n/a	1	0.422607421875	0.5869140625	0	lower	amplitud.ttf
1929.794	n/a	WORD	964897	wordpools/wasnorm_wordpool_less_exclusions.txt	LTP183	ltpFR	1	11	1	GUM	672	n/a	n/a	0	0.422607421875	0.5869140625	0	lower	amplitud.ttf
1933.974	n/a	WORD	966987	wordpools/wasnorm_wordpool_less_exclusions.txt	LTP183	ltpFR	1	11	1	MAP	865	n/a	n/a	0	0.422607421875	0.5869140625	0	lower	amplitud.ttf
1937.838	n/a	WORD	968919	wordpools/wasnorm_wordpool_less_exclusions.txt	LTP183	ltpFR	1	11	1	HERD	705	n/a	n/a	1	0.422607421875	0.5869140625	0	lower	amplitud.ttf
1941.688	n/a	WORD	970844	wordpools/wasnorm_wordpool_less_exclusions.txt	LTP183	ltpFR	1	11	1	GIRAFFE	636	n/a	n/a	1	0.422607421875	0.5869140625	0	lower	amplitud.ttf
1947.51	n/a	REC_START	973755	n/a	LTP183	ltpFR	1	11	n/a	n/a	n/a	n/a	n/a	n/a	n/a	n/a	n/a	n/a	n/a
1948.492	n/a	REC_WORD	974246	wordpools/wasnorm_wordpool_less_exclusions.txt	LTP183	ltpFR	1	11	1	MAP	865	n/a	n/a	0	n/a	n/a	n/a	n/a	n/a
1949.19	n/a	REC_WORD	974595	wordpools/wasnorm_wordpool_less_exclusions.txt	LTP183	ltpFR	1	11	1	HERD	705	n/a	n/a	1	n/a	n/a	n/a	n/a	n/a
1950.144	n/a	REC_WORD	975072	wordpools/wasnorm_wordpool_less_exclusions.txt	LTP183	ltpFR	1	11	1	GIRAFFE	636	n/a	n/a	1	n/a	n/a	n/a	n/a	n/a
1951.74	n/a	REC_WORD	975870	wordpools/wasnorm_wordpool_less_exclusions.txt	LTP183	ltpFR	1	11	1	MOUTH	926	n/a	n/a	1	n/a	n/a	n/a	n/a	n/a
1954.248	n/a	REC_WORD	977124	wordpools/wasnorm_wordpool_less_exclusions.txt	LTP183	ltpFR	1	11	1	KING	777	n/a	n/a	1	n/a	n/a	n/a	n/a	n/a
1955.042	n/a	REC_WORD	977521	wordpools/wasnorm_wordpool_less_exclusions.txt	LTP183	ltpFR	1	11	1	PALACE	1006	n/a	n/a	0	n/a	n/a	n/a	n/a	n/a
1968.302	n/a	REC_WORD	984151	wordpools/wasnorm_wordpool_less_exclusions.txt	LTP183	ltpFR	1	11	1	WASP	1593	n/a	n/a	1	n/a	n/a	n/a	n/a	n/a
1975.602	n/a	REC_WORD	987801	wordpools/wasnorm_wordpool_less_exclusions.txt	LTP183	ltpFR	1	11	1	AIRPORT	13	n/a	n/a	0	n/a	n/a	n/a	n/a	n/a
1984.288	n/a	REC_WORD	992144	wordpools/wasnorm_wordpool_less_exclusions.txt	LTP183	ltpFR	1	11	1	THRONE	1461	n/a	n/a	0	n/a	n/a	n/a	n/a	n/a
2019.16	n/a	REC_WORD	1009580	wordpools/wasnorm_wordpool_less_exclusions.txt	LTP183	ltpFR	1	11	1	TIGER	1467	n/a	n/a	1	n/a	n/a	n/a	n/a	n/a
2029.338	n/a	WORD	1014669	wordpools/wasnorm_wordpool_less_exclusions.txt	LTP183	ltpFR	1	12	0	POSSUM	1112	n/a	n/a	1	0.57763671875	0.412841796875	1	upper	zerothre.ttf
2033.168	n/a	WORD	1016584	wordpools/wasnorm_wordpool_less_exclusions.txt	LTP183	ltpFR	1	12	0	PANTHER	1009	n/a	n/a	1	0.57763671875	0.412841796875	1	upper	zerothre.ttf
2037.286	n/a	WORD	1018643	wordpools/wasnorm_wordpool_less_exclusions.txt	LTP183	ltpFR	1	12	0	DECK	443	n/a	n/a	1	0.57763671875	0.412841796875	1	upper	zerothre.ttf
2041.318	n/a	WORD	1020659	wordpools/wasnorm_wordpool_less_exclusions.txt	LTP183	ltpFR	1	12	0	SOFTBALL	1343	n/a	n/a	0	0.57763671875	0.412841796875	1	upper	zerothre.ttf
2045.416	n/a	WORD	1022708	wordpools/wasnorm_wordpool_less_exclusions.txt	LTP183	ltpFR	1	12	0	BELL	118	n/a	n/a	0	0.57763671875	0.412841796875	1	upper	zerothre.ttf
2049.448	n/a	WORD	1024724	wordpools/wasnorm_wordpool_less_exclusions.txt	LTP183	ltpFR	1	12	0	BAKER	71	n/a	n/a	1	0.57763671875	0.412841796875	1	upper	zerothre.ttf
2053.55	n/a	WORD	1026775	wordpools/wasnorm_wordpool_less_exclusions.txt	LTP183	ltpFR	1	12	0	STEW	1380	n/a	n/a	0	0.57763671875	0.412841796875	1	upper	zerothre.ttf
2057.512	n/a	WORD	1028756	wordpools/wasnorm_wordpool_less_exclusions.txt	LTP183	ltpFR	1	12	0	ITEM	746	n/a	n/a	0	0.57763671875	0.412841796875	1	upper	zerothre.ttf
2061.532	n/a	WORD	1030766	wordpools/wasnorm_wordpool_less_exclusions.txt	LTP183	ltpFR	1	12	0	VAN	1548	n/a	n/a	1	0.57763671875	0.412841796875	1	upper	zerothre.ttf
2065.408	n/a	WORD	1032704	wordpools/wasnorm_wordpool_less_exclusions.txt	LTP183	ltpFR	1	12	0	DASHBOARD	441	n/a	n/a	1	0.57763671875	0.412841796875	1	upper	zerothre.ttf
2069.424	n/a	WORD	1034712	wordpools/wasnorm_wordpool_less_exclusions.txt	LTP183	ltpFR	1	12	0	VALLEY	1545	n/a	n/a	1	0.57763671875	0.412841796875	1	upper	zerothre.ttf
2073.39	n/a	WORD	1036695	wordpools/wasnorm_wordpool_less_exclusions.txt	LTP183	ltpFR	1	12	0	BALL	73	n/a	n/a	0	0.57763671875	0.412841796875	1	upper	zerothre.ttf
2077.606	n/a	WORD	1038803	wordpools/wasnorm_wordpool_less_exclusions.txt	LTP183	ltpFR	1	12	0	BASKETBALL	96	n/a	n/a	0	0.57763671875	0.412841796875	1	upper	zerothre.ttf
2081.588	n/a	WORD	1040794	wordpools/wasnorm_wordpool_less_exclusions.txt	LTP183	ltpFR	1	12	0	VIDEO	1564	n/a	n/a	0	0.57763671875	0.412841796875	1	upper	zerothre.ttf
2085.672	n/a	WORD	1042836	wordpools/wasnorm_wordpool_less_exclusions.txt	LTP183	ltpFR	1	12	0	METEOR	889	n/a	n/a	0	0.57763671875	0.412841796875	1	upper	zerothre.ttf
2089.886	n/a	WORD	1044943	wordpools/wasnorm_wordpool_less_exclusions.txt	LTP183	ltpFR	1	12	0	EMERALD	528	n/a	n/a	0	0.57763671875	0.412841796875	1	upper	zerothre.ttf
2095.926	n/a	REC_START	1047963	n/a	LTP183	ltpFR	1	12	n/a	n/a	n/a	n/a	n/a	n/a	n/a	n/a	n/a	n/a	n/a
2097.004	n/a	REC_WORD	1048502	wordpools/wasnorm_wordpool_less_exclusions.txt	LTP183	ltpFR	1	12	0	EMERALD	528	n/a	n/a	0	n/a	n/a	n/a	n/a	n/a
2099.02	n/a	REC_WORD	1049510	wordpools/wasnorm_wordpool_less_exclusions.txt	LTP183	ltpFR	1	12	0	BALL	73	n/a	n/a	0	n/a	n/a	n/a	n/a	n/a
2100.206	n/a	REC_WORD	1050103	wordpools/wasnorm_wordpool_less_exclusions.txt	LTP183	ltpFR	1	12	0	BASKETBALL	96	n/a	n/a	0	n/a	n/a	n/a	n/a	n/a
2101.578	n/a	REC_WORD	1050789	wordpools/wasnorm_wordpool_less_exclusions.txt	LTP183	ltpFR	1	12	0	SOFTBALL	1343	n/a	n/a	0	n/a	n/a	n/a	n/a	n/a
2105.14	n/a	REC_WORD	1052570	wordpools/wasnorm_wordpool_less_exclusions.txt	LTP183	ltpFR	1	12	0	VALLEY	1545	n/a	n/a	1	n/a	n/a	n/a	n/a	n/a
2150.36	n/a	REC_WORD	1075180	wordpools/wasnorm_wordpool_less_exclusions.txt	LTP183	ltpFR	1	12	0	POSSUM	1112	n/a	n/a	1	n/a	n/a	n/a	n/a	n/a
2171.548	n/a	REST_REWET	1085774	n/a	LTP183	ltpFR	1	12	n/a	n/a	n/a	n/a	n/a	n/a	n/a	n/a	n/a	n/a	n/a
2484.844	n/a	WORD	1242422	wordpools/wasnorm_wordpool_less_exclusions.txt	LTP183	ltpFR	1	13	0	MONGOOSE	909	n/a	n/a	1	0.57763671875	0.412841796875	1	upper	zerothre.ttf
2489.064	n/a	WORD	1244532	wordpools/wasnorm_wordpool_less_exclusions.txt	LTP183	ltpFR	1	13	0	NICOTINE	951	n/a	n/a	0	0.57763671875	0.412841796875	1	upper	zerothre.ttf
2493.11	n/a	WORD	1246555	wordpools/wasnorm_wordpool_less_exclusions.txt	LTP183	ltpFR	1	13	0	BATHTUB	100	n/a	n/a	1	0.57763671875	0.412841796875	1	upper	zerothre.ttf
2497.158	n/a	WORD	1248579	wordpools/wasnorm_wordpool_less_exclusions.txt	LTP183	ltpFR	1	13	0	WELL	1600	n/a	n/a	1	0.57763671875	0.412841796875	1	upper	zerothre.ttf
2501.192	n/a	WORD	1250596	wordpools/wasnorm_wordpool_less_exclusions.txt	LTP183	ltpFR	1	13	0	SCRIBBLE	1256	n/a	n/a	0	0.57763671875	0.412841796875	1	upper	zerothre.ttf
2505.172	n/a	WORD	1252586	wordpools/wasnorm_wordpool_less_exclusions.txt	LTP183	ltpFR	1	13	0	APE	31	n/a	n/a	1	0.57763671875	0.412841796875	1	upper	zerothre.ttf
2509.34	n/a	WORD	1254670	wordpools/wasnorm_wordpool_less_exclusions.txt	LTP183	ltpFR	1	13	1	DUST	508	n/a	n/a	0	0.422607421875	0.5869140625	0	lower	amplitud.ttf
2513.22	n/a	WORD	1256610	wordpools/wasnorm_wordpool_less_exclusions.txt	LTP183	ltpFR	1	13	1	DIGGER	464	n/a	n/a	0	0.422607421875	0.5869140625	0	lower	amplitud.ttf
2517.34	n/a	WORD	1258670	wordpools/wasnorm_wordpool_less_exclusions.txt	LTP183	ltpFR	1	13	1	PATIO	1025	n/a	n/a	0	0.422607421875	0.5869140625	0	lower	amplitud.ttf
2521.518	n/a	WORD	1260759	wordpools/wasnorm_wordpool_less_exclusions.txt	LTP183	ltpFR	1	13	1	PIPE	1073	n/a	n/a	0	0.422607421875	0.5869140625	0	lower	amplitud.ttf
2525.684	n/a	WORD	1262842	wordpools/wasnorm_wordpool_less_exclusions.txt	LTP183	ltpFR	1	13	1	SALT	1229	n/a	n/a	0	0.422607421875	0.5869140625	0	lower	amplitud.ttf
2529.666	n/a	WORD	1264833	wordpools/wasnorm_wordpool_less_exclusions.txt	LTP183	ltpFR	1	13	0	HERB	704	n/a	n/a	0	0.57763671875	0.412841796875	1	upper	zerothre.ttf
2533.816	n/a	WORD	1266908	wordpools/wasnorm_wordpool_less_exclusions.txt	LTP183	ltpFR	1	13	0	TREE	1502	n/a	n/a	1	0.57763671875	0.412841796875	1	upper	zerothre.ttf
2537.73	n/a	WORD	1268865	wordpools/wasnorm_wordpool_less_exclusions.txt	LTP183	ltpFR	1	13	1	DESK	452	n/a	n/a	0	0.422607421875	0.5869140625	0	lower	amplitud.ttf
2541.796	n/a	WORD	1270898	wordpools/wasnorm_wordpool_less_exclusions.txt	LTP183	ltpFR	1	13	1	QUAIL	1147	n/a	n/a	1	0.422607421875	0.5869140625	0	lower	amplitud.ttf
2545.728	n/a	WORD	1272864	wordpools/wasnorm_wordpool_less_exclusions.txt	LTP183	ltpFR	1	13	1	CAT	257	n/a	n/a	1	0.422607421875	0.5869140625	0	lower	amplitud.ttf
2551.518	n/a	REC_START	1275759	n/a	LTP183	ltpFR	1	13	n/a	n/a	n/a	n/a	n/a	n/a	n/a	n/a	n/a	n/a	n/a
2554.696	n/a	REC_WORD	1277348	wordpools/wasnorm_wordpool_less_exclusions.txt	LTP183	ltpFR	1	13	1	CAT	257	n/a	n/a	1	n/a	n/a	n/a	n/a	n/a
2555.698	n/a	REC_WORD	1277849	wordpools/wasnorm_wordpool_less_exclusions.txt	LTP183	ltpFR	1	13	1	QUAIL	1147	n/a	n/a	1	n/a	n/a	n/a	n/a	n/a
2556.85	n/a	REC_WORD	1278425	wordpools/wasnorm_wordpool_less_exclusions.txt	LTP183	ltpFR	1	13	0	MONGOOSE	909	n/a	n/a	1	n/a	n/a	n/a	n/a	n/a
2568.59	n/a	REC_WORD	1284295	wordpools/wasnorm_wordpool_less_exclusions.txt	LTP183	ltpFR	1	13	1	SALT	1229	n/a	n/a	0	n/a	n/a	n/a	n/a	n/a
2600.562	n/a	REC_WORD	1300281	wordpools/wasnorm_wordpool_less_exclusions.txt	LTP183	ltpFR	1	13	0	TREE	1502	n/a	n/a	1	n/a	n/a	n/a	n/a	n/a
2623.288	n/a	REC_WORD	1311644	wordpools/wasnorm_wordpool_less_exclusions.txt	LTP183	ltpFR	1	13	1	CAT	257	n/a	n/a	1	n/a	n/a	n/a	n/a	n/a
2631.842	n/a	WORD	1315921	wordpools/wasnorm_wordpool_less_exclusions.txt	LTP183	ltpFR	1	14	1	SEAL	1262	n/a	n/a	1	0.422607421875	0.5869140625	0	lower	amplitud.ttf
2635.928	n/a	WORD	1317964	wordpools/wasnorm_wordpool_less_exclusions.txt	LTP183	ltpFR	1	14	1	CHIPMUNK	304	n/a	n/a	1	0.422607421875	0.5869140625	0	lower	amplitud.ttf
2639.786	n/a	WORD	1319893	wordpools/wasnorm_wordpool_less_exclusions.txt	LTP183	ltpFR	1	14	1	RECIPE	1175	n/a	n/a	0	0.422607421875	0.5869140625	0	lower	amplitud.ttf
2643.87	n/a	WORD	1321935	wordpools/wasnorm_wordpool_less_exclusions.txt	LTP183	ltpFR	1	14	1	CHESS	294	n/a	n/a	0	0.422607421875	0.5869140625	0	lower	amplitud.ttf
2647.818	n/a	WORD	1323909	wordpools/wasnorm_wordpool_less_exclusions.txt	LTP183	ltpFR	1	14	1	ARENA	37	n/a	n/a	0	0.422607421875	0.5869140625	0	lower	amplitud.ttf
2652.018	n/a	WORD	1326009	wordpools/wasnorm_wordpool_less_exclusions.txt	LTP183	ltpFR	1	14	1	SLACKS	1323	n/a	n/a	0	0.422607421875	0.5869140625	0	lower	amplitud.ttf
2656.132	n/a	WORD	1328066	wordpools/wasnorm_wordpool_less_exclusions.txt	LTP183	ltpFR	1	14	1	SUPPER	1411	n/a	n/a	0	0.422607421875	0.5869140625	0	lower	amplitud.ttf
2660.08	n/a	WORD	1330040	wordpools/wasnorm_wordpool_less_exclusions.txt	LTP183	ltpFR	1	14	1	GROCERIES	663	n/a	n/a	0	0.422607421875	0.5869140625	0	lower	amplitud.ttf
2664.264	n/a	WORD	1332132	wordpools/wasnorm_wordpool_less_exclusions.txt	LTP183	ltpFR	1	14	1	SUPERMARKET	1409	n/a	n/a	0	0.422607421875	0.5869140625	0	lower	amplitud.ttf
2668.128	n/a	WORD	1334064	wordpools/wasnorm_wordpool_less_exclusions.txt	LTP183	ltpFR	1	14	1	CHICK	296	n/a	n/a	1	0.422607421875	0.5869140625	0	lower	amplitud.ttf
2672.144	n/a	WORD	1336072	wordpools/wasnorm_wordpool_less_exclusions.txt	LTP183	ltpFR	1	14	1	HORSE	719	n/a	n/a	1	0.422607421875	0.5869140625	0	lower	amplitud.ttf
2675.992	n/a	WORD	1337996	wordpools/wasnorm_wordpool_less_exclusions.txt	LTP183	ltpFR	1	14	1	OZONE	996	n/a	n/a	1	0.422607421875	0.5869140625	0	lower	amplitud.ttf
2679.928	n/a	WORD	1339964	wordpools/wasnorm_wordpool_less_exclusions.txt	LTP183	ltpFR	1	14	1	SPARROW	1347	n/a	n/a	1	0.422607421875	0.5869140625	0	lower	amplitud.ttf
2684.04	n/a	WORD	1342020	wordpools/wasnorm_wordpool_less_exclusions.txt	LTP183	ltpFR	1	14	1	COWBOY	395	n/a	n/a	1	0.422607421875	0.5869140625	0	lower	amplitud.ttf
2688.022	n/a	WORD	1344011	wordpools/wasnorm_wordpool_less_exclusions.txt	LTP183	ltpFR	1	14	1	BEEF	113	n/a	n/a	0	0.422607421875	0.5869140625	0	lower	amplitud.ttf
2692.12	n/a	WORD	1346060	wordpools/wasnorm_wordpool_less_exclusions.txt	LTP183	ltpFR	1	14	1	CARPET	247	n/a	n/a	0	0.422607421875	0.5869140625	0	lower	amplitud.ttf
2698.076	n/a	REC_START	1349038	n/a	LTP183	ltpFR	1	14	n/a	n/a	n/a	n/a	n/a	n/a	n/a	n/a	n/a	n/a	n/a
2699.01	n/a	REC_WORD	1349505	wordpools/wasnorm_wordpool_less_exclusions.txt	LTP183	ltpFR	1	14	1	BEEF	113	n/a	n/a	0	n/a	n/a	n/a	n/a	n/a
2699.912	n/a	REC_WORD	1349956	wordpools/wasnorm_wordpool_less_exclusions.txt	LTP183	ltpFR	1	14	1	CARPET	247	n/a	n/a	0	n/a	n/a	n/a	n/a	n/a
2701.22	n/a	REC_WORD	1350610	wordpools/wasnorm_wordpool_less_exclusions.txt	LTP183	ltpFR	1	14	1	OZONE	996	n/a	n/a	1	n/a	n/a	n/a	n/a	n/a
2720.746	n/a	REC_WORD	1360373	wordpools/wasnorm_wordpool_less_exclusions.txt	LTP183	ltpFR	1	14	1	SUPPER	1411	n/a	n/a	0	n/a	n/a	n/a	n/a	n/a
2755.374	n/a	REC_WORD	1377687	wordpools/wasnorm_wordpool_less_exclusions.txt	LTP183	ltpFR	1	14	0	ATMOSPHERE	54	n/a	n/a	1	n/a	n/a	n/a	n/a	n/a
2767.148	n/a	REC_WORD	1383574	wordpools/wasnorm_wordpool_less_exclusions.txt	LTP183	ltpFR	1	14	n/a	SNAIL	1332	n/a	n/a	n/a	n/a	n/a	n/a	n/a	n/a
2778.988	n/a	WORD	1389494	wordpools/wasnorm_wordpool_less_exclusions.txt	LTP183	ltpFR	1	15	-1	TEAPOT	1442	n/a	n/a	-1	1.0	1.0	1	upper	Verdana.ttf
2782.934	n/a	WORD	1391467	wordpools/wasnorm_wordpool_less_exclusions.txt	LTP183	ltpFR	1	15	-1	PEPPER	1047	n/a	n/a	-1	1.0	1.0	1	upper	Verdana.ttf
2786.782	n/a	WORD	1393391	wordpools/wasnorm_wordpool_less_exclusions.txt	LTP183	ltpFR	1	15	-1	ENCYCLOPEDIA	533	n/a	n/a	-1	1.0	1.0	1	upper	Verdana.ttf
2790.714	n/a	WORD	1395357	wordpools/wasnorm_wordpool_less_exclusions.txt	LTP183	ltpFR	1	15	-1	LIBRARY	816	n/a	n/a	-1	1.0	1.0	1	upper	Verdana.ttf
2794.58	n/a	WORD	1397290	wordpools/wasnorm_wordpool_less_exclusions.txt	LTP183	ltpFR	1	15	-1	SAW	1239	n/a	n/a	-1	1.0	1.0	1	upper	Verdana.ttf
2798.444	n/a	WORD	1399222	wordpools/wasnorm_wordpool_less_exclusions.txt	LTP183	ltpFR	1	15	-1	TOOL	1480	n/a	n/a	-1	1.0	1.0	1	upper	Verdana.ttf
2802.358	n/a	WORD	1401179	wordpools/wasnorm_wordpool_less_exclusions.txt	LTP183	ltpFR	1	15	-1	PILL	1068	n/a	n/a	-1	1.0	1.0	1	upper	Verdana.ttf
2806.542	n/a	WORD	1403271	wordpools/wasnorm_wordpool_less_exclusions.txt	LTP183	ltpFR	1	15	-1	HEDGE	699	n/a	n/a	-1	1.0	1.0	1	upper	Verdana.ttf
2810.744	n/a	WORD	1405372	wordpools/wasnorm_wordpool_less_exclusions.txt	LTP183	ltpFR	1	15	-1	VIKING	1565	n/a	n/a	-1	1.0	1.0	1	upper	Verdana.ttf
2814.924	n/a	WORD	1407462	wordpools/wasnorm_wordpool_less_exclusions.txt	LTP183	ltpFR	1	15	-1	MANSION	864	n/a	n/a	-1	1.0	1.0	1	upper	Verdana.ttf
2818.888	n/a	WORD	1409444	wordpools/wasnorm_wordpool_less_exclusions.txt	LTP183	ltpFR	1	15	-1	FREEZER	604	n/a	n/a	-1	1.0	1.0	1	upper	Verdana.ttf
2822.77	n/a	WORD	1411385	wordpools/wasnorm_wordpool_less_exclusions.txt	LTP183	ltpFR	1	15	-1	ELK	526	n/a	n/a	-1	1.0	1.0	1	upper	Verdana.ttf
2826.792	n/a	WORD	1413396	wordpools/wasnorm_wordpool_less_exclusions.txt	LTP183	ltpFR	1	15	-1	HOME	712	n/a	n/a	-1	1.0	1.0	1	upper	Verdana.ttf
2830.85	n/a	WORD	1415425	wordpools/wasnorm_wordpool_less_exclusions.txt	LTP183	ltpFR	1	15	-1	ZUCCHINI	1638	n/a	n/a	-1	1.0	1.0	1	upper	Verdana.ttf
2834.9	n/a	WORD	1417450	wordpools/wasnorm_wordpool_less_exclusions.txt	LTP183	ltpFR	1	15	-1	ICEBERG	731	n/a	n/a	-1	1.0	1.0	1	upper	Verdana.ttf
2838.748	n/a	WORD	1419374	wordpools/wasnorm_wordpool_less_exclusions.txt	LTP183	ltpFR	1	15	-1	PORCH	1106	n/a	n/a	-1	1.0	1.0	1	upper	Verdana.ttf
2844.62	n/a	REC_START	1422310	n/a	LTP183	ltpFR	1	15	n/a	n/a	n/a	n/a	n/a	n/a	n/a	n/a	n/a	n/a	n/a
2845.478	n/a	REC_WORD	1422739	wordpools/wasnorm_wordpool_less_exclusions.txt	LTP183	ltpFR	1	15	-1	HOME	712	n/a	n/a	-1	n/a	n/a	n/a	n/a	n/a
2846.43	n/a	REC_WORD	1423215	wordpools/wasnorm_wordpool_less_exclusions.txt	LTP183	ltpFR	1	15	-1	PORCH	1106	n/a	n/a	-1	n/a	n/a	n/a	n/a	n/a
2847.394	n/a	REC_WORD	1423697	wordpools/wasnorm_wordpool_less_exclusions.txt	LTP183	ltpFR	1	15	-1	ZUCCHINI	1638	n/a	n/a	-1	n/a	n/a	n/a	n/a	n/a
2849.174	n/a	REC_WORD	1424587	wordpools/wasnorm_wordpool_less_exclusions.txt	LTP183	ltpFR	1	15	-1	ENCYCLOPEDIA	533	n/a	n/a	-1	n/a	n/a	n/a	n/a	n/a
2850.174	n/a	REC_WORD_VV	1425087	wordpools/wasnorm_wordpool_less_exclusions.txt	LTP183	ltpFR	1	15	n/a	<>	-1	n/a	n/a	n/a	n/a	n/a	n/a	n/a	n/a
2854.04	n/a	REC_WORD	1427020	wordpools/wasnorm_wordpool_less_exclusions.txt	LTP183	ltpFR	1	15	-1	PILL	1068	n/a	n/a	-1	n/a	n/a	n/a	n/a	n/a
2872.624	n/a	REC_WORD	1436312	wordpools/wasnorm_wordpool_less_exclusions.txt	LTP183	ltpFR	1	15	-1	PORCH	1106	n/a	n/a	-1	n/a	n/a	n/a	n/a	n/a
2873.202	n/a	REC_WORD	1436601	wordpools/wasnorm_wordpool_less_exclusions.txt	LTP183	ltpFR	1	15	-1	HOME	712	n/a	n/a	-1	n/a	n/a	n/a	n/a	n/a
2904.044	n/a	REC_WORD	1452022	wordpools/wasnorm_wordpool_less_exclusions.txt	LTP183	ltpFR	1	15	-1	LIBRARY	816	n/a	n/a	-1	n/a	n/a	n/a	n/a	n/a
2914.82	n/a	REC_WORD	1457410	wordpools/wasnorm_wordpool_less_exclusions.txt	LTP183	ltpFR	1	15	n/a	BROCCOLI	176	n/a	n/a	n/a	n/a	n/a	n/a	n/a	n/a
2926.284	n/a	WORD	1463142	wordpools/wasnorm_wordpool_less_exclusions.txt	LTP183	ltpFR	1	16	1	PERSONNEL	1053	n/a	n/a	1	0.422607421875	0.5869140625	0	lower	amplitud.ttf
2930.298	n/a	WORD	1465149	wordpools/wasnorm_wordpool_less_exclusions.txt	LTP183	ltpFR	1	16	1	TOOTHBRUSH	1482	n/a	n/a	0	0.422607421875	0.5869140625	0	lower	amplitud.ttf
2934.128	n/a	WORD	1467064	wordpools/wasnorm_wordpool_less_exclusions.txt	LTP183	ltpFR	1	16	1	ANIMAL	23	n/a	n/a	1	0.422607421875	0.5869140625	0	lower	amplitud.ttf
2938.092	n/a	WORD	1469046	wordpools/wasnorm_wordpool_less_exclusions.txt	LTP183	ltpFR	1	16	1	SHEPHERD	1283	n/a	n/a	1	0.422607421875	0.5869140625	0	lower	amplitud.ttf
2942.124	n/a	WORD	1471062	wordpools/wasnorm_wordpool_less_exclusions.txt	LTP183	ltpFR	1	16	1	MARSH	874	n/a	n/a	1	0.422607421875	0.5869140625	0	lower	amplitud.ttf
2945.974	n/a	WORD	1472987	wordpools/wasnorm_wordpool_less_exclusions.txt	LTP183	ltpFR	1	16	1	RAM	1165	n/a	n/a	1	0.422607421875	0.5869140625	0	lower	amplitud.ttf
2950.04	n/a	WORD	1475020	wordpools/wasnorm_wordpool_less_exclusions.txt	LTP183	ltpFR	1	16	1	BEAST	108	n/a	n/a	1	0.422607421875	0.5869140625	0	lower	amplitud.ttf
2953.972	n/a	WORD	1476986	wordpools/wasnorm_wordpool_less_exclusions.txt	LTP183	ltpFR	1	16	1	PANTS	1010	n/a	n/a	0	0.422607421875	0.5869140625	0	lower	amplitud.ttf
2958.17	n/a	WORD	1479085	wordpools/wasnorm_wordpool_less_exclusions.txt	LTP183	ltpFR	1	16	1	JEANS	752	n/a	n/a	0	0.422607421875	0.5869140625	0	lower	amplitud.ttf
2962.036	n/a	WORD	1481018	wordpools/wasnorm_wordpool_less_exclusions.txt	LTP183	ltpFR	1	16	1	BUREAU	199	n/a	n/a	0	0.422607421875	0.5869140625	0	lower	amplitud.ttf
2966.122	n/a	WORD	1483061	wordpools/wasnorm_wordpool_less_exclusions.txt	LTP183	ltpFR	1	16	1	CHECK	284	n/a	n/a	0	0.422607421875	0.5869140625	0	lower	amplitud.ttf
2970.084	n/a	WORD	1485042	wordpools/wasnorm_wordpool_less_exclusions.txt	LTP183	ltpFR	1	16	1	SEED	1266	n/a	n/a	1	0.422607421875	0.5869140625	0	lower	amplitud.ttf
2974.114	n/a	WORD	1487057	wordpools/wasnorm_wordpool_less_exclusions.txt	LTP183	ltpFR	1	16	1	WOLF	1619	n/a	n/a	1	0.422607421875	0.5869140625	0	lower	amplitud.ttf
2978.18	n/a	WORD	1489090	wordpools/wasnorm_wordpool_less_exclusions.txt	LTP183	ltpFR	1	16	1	CORD	379	n/a	n/a	0	0.422607421875	0.5869140625	0	lower	amplitud.ttf
2982.012	n/a	WORD	1491006	wordpools/wasnorm_wordpool_less_exclusions.txt	LTP183	ltpFR	1	16	1	TOOTHPASTE	1483	n/a	n/a	0	0.422607421875	0.5869140625	0	lower	amplitud.ttf
2986.044	n/a	WORD	1493022	wordpools/wasnorm_wordpool_less_exclusions.txt	LTP183	ltpFR	1	16	1	REGISTER	1180	n/a	n/a	0	0.422607421875	0.5869140625	0	lower	amplitud.ttf
2991.816	n/a	REC_START	1495908	n/a	LTP183	ltpFR	1	16	n/a	n/a	n/a	n/a	n/a	n/a	n/a	n/a	n/a	n/a	n/a
2992.878	n/a	REC_WORD	1496439	wordpools/wasnorm_wordpool_less_exclusions.txt	LTP183	ltpFR	1	16	1	TOOTHPASTE	1483	n/a	n/a	0	n/a	n/a	n/a	n/a	n/a
2994.15	n/a	REC_WORD	1497075	wordpools/wasnorm_wordpool_less_exclusions.txt	LTP183	ltpFR	1	16	1	REGISTER	1180	n/a	n/a	0	n/a	n/a	n/a	n/a	n/a
2995.848	n/a	REC_WORD	1497924	wordpools/wasnorm_wordpool_less_exclusions.txt	LTP183	ltpFR	1	16	1	PANTS	1010	n/a	n/a	0	n/a	n/a	n/a	n/a	n/a
2997.258	n/a	REC_WORD	1498629	wordpools/wasnorm_wordpool_less_exclusions.txt	LTP183	ltpFR	1	16	1	JEANS	752	n/a	n/a	0	n/a	n/a	n/a	n/a	n/a
3006.074	n/a	REC_WORD	1503037	wordpools/wasnorm_wordpool_less_exclusions.txt	LTP183	ltpFR	1	16	1	TOOTHBRUSH	1482	n/a	n/a	0	n/a	n/a	n/a	n/a	n/a
3019.564	n/a	REC_WORD	1509782	wordpools/wasnorm_wordpool_less_exclusions.txt	LTP183	ltpFR	1	16	-1	ELK	526	n/a	n/a	-1	n/a	n/a	n/a	n/a	n/a
3024.324	n/a	REC_WORD	1512162	wordpools/wasnorm_wordpool_less_exclusions.txt	LTP183	ltpFR	1	16	1	SEED	1266	n/a	n/a	1	n/a	n/a	n/a	n/a	n/a
3042.12	n/a	REC_WORD	1521060	wordpools/wasnorm_wordpool_less_exclusions.txt	LTP183	ltpFR	1	16	1	PERSONNEL	1053	n/a	n/a	1	n/a	n/a	n/a	n/a	n/a
3053.214	n/a	REC_WORD	1526607	wordpools/wasnorm_wordpool_less_exclusions.txt	LTP183	ltpFR	1	16	0	BATH	98	n/a	n/a	1	n/a	n/a	n/a	n/a	n/a
3162.704	n/a	REC_START	1581352	n/a	LTP183	ltpFR	1	1	n/a	n/a	n/a	n/a	n/a	n/a	n/a	n/a	n/a	n/a	n/a
3162.752	n/a	RECOG_LURE	1581376	n/a	LTP183	ltpFR	1	1	n/a	KEYBOARD	774	0	3	n/a	n/a	n/a	n/a	n/a	n/a
3165.272	n/a	RECOG_RESP	1582636	n/a	LTP183	ltpFR	1	1	n/a	KEYBOARD	774	0	n/a	n/a	n/a	n/a	n/a	n/a	n/a
3168.074	n/a	RECOG_CONF	1584037	n/a	LTP183	ltpFR	1	1	n/a	KEYBOARD	774	n/a	3	n/a	n/a	n/a	n/a	n/a	n/a
3170.13	n/a	RECOG_TARGET	1585065	n/a	LTP183	ltpFR	1	1	0	PORTRAIT	1111	1	5	1	n/a	n/a	n/a	n/a	n/a
3172.042	n/a	RECOG_RESP	1586021	n/a	LTP183	ltpFR	1	1	0	PORTRAIT	1111	1	n/a	1	n/a	n/a	n/a	n/a	n/a
3174.258	n/a	RECOG_CONF	1587129	n/a	LTP183	ltpFR	1	1	0	PORTRAIT	1111	n/a	5	1	n/a	n/a	n/a	n/a	n/a
3176.104	n/a	RECOG_TARGET	1588052	n/a	LTP183	ltpFR	1	1	-1	LIBRARY	816	1	5	-1	n/a	n/a	n/a	n/a	n/a
3177.296	n/a	RECOG_RESP	1588648	n/a	LTP183	ltpFR	1	1	-1	LIBRARY	816	1	n/a	-1	n/a	n/a	n/a	n/a	n/a
3178.934	n/a	RECOG_CONF	1589467	n/a	LTP183	ltpFR	1	1	-1	LIBRARY	816	n/a	5	-1	n/a	n/a	n/a	n/a	n/a
3181.238	n/a	RECOG_TARGET	1590619	n/a	LTP183	ltpFR	1	1	1	GROCERIES	663	1	5	0	n/a	n/a	n/a	n/a	n/a
3182.764	n/a	RECOG_RESP	1591382	n/a	LTP183	ltpFR	1	1	1	GROCERIES	663	1	n/a	0	n/a	n/a	n/a	n/a	n/a
3184.676	n/a	RECOG_CONF	1592338	n/a	LTP183	ltpFR	1	1	1	GROCERIES	663	n/a	5	0	n/a	n/a	n/a	n/a	n/a
3187.062	n/a	RECOG_TARGET	1593531	n/a	LTP183	ltpFR	1	1	-1	PORCH	1106	1	5	-1	n/a	n/a	n/a	n/a	n/a
3188.106	n/a	RECOG_RESP	1594053	n/a	LTP183	ltpFR	1	1	-1	PORCH	1106	1	n/a	-1	n/a	n/a	n/a	n/a	n/a
3190.436	n/a	RECOG_CONF	1595218	n/a	LTP183	ltpFR	1	1	-1	PORCH	1106	n/a	5	-1	n/a	n/a	n/a	n/a	n/a
3192.35	n/a	RECOG_LURE	1596175	n/a	LTP183	ltpFR	1	1	n/a	WHIP	1604	0	5	n/a	n/a	n/a	n/a	n/a	n/a
3193.576	n/a	RECOG_RESP	1596788	n/a	LTP183	ltpFR	1	1	n/a	WHIP	1604	0	n/a	n/a	n/a	n/a	n/a	n/a	n/a
3195.472	n/a	RECOG_CONF	1597736	n/a	LTP183	ltpFR	1	1	n/a	WHIP	1604	n/a	5	n/a	n/a	n/a	n/a	n/a	n/a
3198.038	n/a	RECOG_TARGET	1599019	n/a	LTP183	ltpFR	1	1	0	WELL	1600	1	5	1	n/a	n/a	n/a	n/a	n/a
3199.76	n/a	RECOG_RESP	1599880	n/a	LTP183	ltpFR	1	1	0	WELL	1600	1	n/a	1	n/a	n/a	n/a	n/a	n/a
3201.338	n/a	RECOG_CONF	1600669	n/a	LTP183	ltpFR	1	1	0	WELL	1600	n/a	5	1	n/a	n/a	n/a	n/a	n/a
3203.776	n/a	RECOG_LURE	1601888	n/a	LTP183	ltpFR	1	1	n/a	CLOVE	329	0	5	n/a	n/a	n/a	n/a	n/a	n/a
3205.028	n/a	RECOG_RESP	1602514	n/a	LTP183	ltpFR	1	1	n/a	CLOVE	329	0	n/a	n/a	n/a	n/a	n/a	n/a	n/a
3206.914	n/a	RECOG_CONF	1603457	n/a	LTP183	ltpFR	1	1	n/a	CLOVE	329	n/a	5	n/a	n/a	n/a	n/a	n/a	n/a
3209.384	n/a	RECOG_TARGET	1604692	n/a	LTP183	ltpFR	1	1	-1	PASSAGE	1019	1	2	-1	n/a	n/a	n/a	n/a	n/a
3211.458	n/a	RECOG_RESP	1605729	n/a	LTP183	ltpFR	1	1	-1	PASSAGE	1019	1	n/a	-1	n/a	n/a	n/a	n/a	n/a
3213.166	n/a	RECOG_CONF	1606583	n/a	LTP183	ltpFR	1	1	-1	PASSAGE	1019	n/a	2	-1	n/a	n/a	n/a	n/a	n/a
3215.572	n/a	RECOG_TARGET	1607786	n/a	LTP183	ltpFR	1	1	0	SPIT	1354	1	5	0	n/a	n/a	n/a	n/a	n/a
3217.384	n/a	RECOG_RESP	1608692	n/a	LTP183	ltpFR	1	1	0	SPIT	1354	1	n/a	0	n/a	n/a	n/a	n/a	n/a
3218.92	n/a	RECOG_CONF	1609460	n/a	LTP183	ltpFR	1	1	0	SPIT	1354	n/a	5	0	n/a	n/a	n/a	n/a	n/a
3221.26	n/a	RECOG_TARGET	1610630	n/a	LTP183	ltpFR	1	1	0	ATMOSPHERE	54	1	5	1	n/a	n/a	n/a	n/a	n/a
3222.536	n/a	RECOG_RESP	1611268	n/a	LTP183	ltpFR	1	1	0	ATMOSPHERE	54	1	n/a	1	n/a	n/a	n/a	n/a	n/a
3224.48	n/a	RECOG_CONF	1612240	n/a	LTP183	ltpFR	1	1	0	ATMOSPHERE	54	n/a	5	1	n/a	n/a	n/a	n/a	n/a
3226.78	n/a	RECOG_TARGET	1613390	n/a	LTP183	ltpFR	1	1	-1	WICK	1607	1	4	-1	n/a	n/a	n/a	n/a	n/a
3228.166	n/a	RECOG_RESP	1614083	n/a	LTP183	ltpFR	1	1	-1	WICK	1607	1	n/a	-1	n/a	n/a	n/a	n/a	n/a
3229.854	n/a	RECOG_CONF	1614927	n/a	LTP183	ltpFR	1	1	-1	WICK	1607	n/a	4	-1	n/a	n/a	n/a	n/a	n/a
3232.2	n/a	RECOG_LURE	1616100	n/a	LTP183	ltpFR	1	1	n/a	JUGGLER	763	0	5	n/a	n/a	n/a	n/a	n/a	n/a
3233.524	n/a	RECOG_RESP	1616762	n/a	LTP183	ltpFR	1	1	n/a	JUGGLER	763	0	n/a	n/a	n/a	n/a	n/a	n/a	n/a
3235.238	n/a	RECOG_CONF	1617619	n/a	LTP183	ltpFR	1	1	n/a	JUGGLER	763	n/a	5	n/a	n/a	n/a	n/a	n/a	n/a
3237.556	n/a	RECOG_TARGET	1618778	n/a	LTP183	ltpFR	1	1	-1	PEACH	1031	1	5	-1	n/a	n/a	n/a	n/a	n/a
3238.674	n/a	RECOG_RESP	1619337	n/a	LTP183	ltpFR	1	1	-1	PEACH	1031	1	n/a	-1	n/a	n/a	n/a	n/a	n/a
3240.376	n/a	RECOG_CONF	1620188	n/a	LTP183	ltpFR	1	1	-1	PEACH	1031	n/a	5	-1	n/a	n/a	n/a	n/a	n/a
3242.796	n/a	RECOG_TARGET	1621398	n/a	LTP183	ltpFR	1	1	1	DIGGER	464	1	5	0	n/a	n/a	n/a	n/a	n/a
3244.088	n/a	RECOG_RESP	1622044	n/a	LTP183	ltpFR	1	1	1	DIGGER	464	1	n/a	0	n/a	n/a	n/a	n/a	n/a
3246.672	n/a	RECOG_CONF	1623336	n/a	LTP183	ltpFR	1	1	1	DIGGER	464	n/a	5	0	n/a	n/a	n/a	n/a	n/a
3249.818	n/a	RECOG_LURE	1624909	n/a	LTP183	ltpFR	1	1	n/a	COAL	332	0	5	n/a	n/a	n/a	n/a	n/a	n/a
3251.082	n/a	RECOG_RESP	1625541	n/a	LTP183	ltpFR	1	1	n/a	COAL	332	0	n/a	n/a	n/a	n/a	n/a	n/a	n/a
3253.516	n/a	RECOG_CONF	1626758	n/a	LTP183	ltpFR	1	1	n/a	COAL	332	n/a	5	n/a	n/a	n/a	n/a	n/a	n/a
3256.544	n/a	RECOG_TARGET	1628272	n/a	LTP183	ltpFR	1	1	-1	VESSEL	1558	1	2	-1	n/a	n/a	n/a	n/a	n/a
3259.1	n/a	RECOG_RESP	1629550	n/a	LTP183	ltpFR	1	1	-1	VESSEL	1558	1	n/a	-1	n/a	n/a	n/a	n/a	n/a
3261.634	n/a	RECOG_CONF	1630817	n/a	LTP183	ltpFR	1	1	-1	VESSEL	1558	n/a	2	-1	n/a	n/a	n/a	n/a	n/a
3264.408	n/a	RECOG_TARGET	1632204	n/a	LTP183	ltpFR	1	1	1	PEBBLE	1035	0	3	0	n/a	n/a	n/a	n/a	n/a
3266.764	n/a	RECOG_RESP	1633382	n/a	LTP183	ltpFR	1	1	1	PEBBLE	1035	0	n/a	0	n/a	n/a	n/a	n/a	n/a
3269.166	n/a	RECOG_CONF	1634583	n/a	LTP183	ltpFR	1	1	1	PEBBLE	1035	n/a	3	0	n/a	n/a	n/a	n/a	n/a
3271.92	n/a	RECOG_TARGET	1635960	n/a	LTP183	ltpFR	1	1	0	SWITCH	1422	1	5	0	n/a	n/a	n/a	n/a	n/a
3273.328	n/a	RECOG_RESP	1636664	n/a	LTP183	ltpFR	1	1	0	SWITCH	1422	1	n/a	0	n/a	n/a	n/a	n/a	n/a
3275.416	n/a	RECOG_CONF	1637708	n/a	LTP183	ltpFR	1	1	0	SWITCH	1422	n/a	5	0	n/a	n/a	n/a	n/a	n/a
3278.512	n/a	RECOG_TARGET	1639256	n/a	LTP183	ltpFR	1	1	1	DIVER	476	1	4	1	n/a	n/a	n/a	n/a	n/a
3279.65	n/a	RECOG_RESP	1639825	n/a	LTP183	ltpFR	1	1	1	DIVER	476	1	n/a	1	n/a	n/a	n/a	n/a	n/a
3281.932	n/a	RECOG_CONF	1640966	n/a	LTP183	ltpFR	1	1	1	DIVER	476	n/a	4	1	n/a	n/a	n/a	n/a	n/a
3290.808	n/a	REC_START	1645404	n/a	LTP183	ltpFR	1	2	n/a	n/a	n/a	n/a	n/a	n/a	n/a	n/a	n/a	n/a	n/a
3290.858	n/a	RECOG_TARGET	1645429	n/a	LTP183	ltpFR	1	2	0	BAKER	71	0	3	1	n/a	n/a	n/a	n/a	n/a
3292.892	n/a	RECOG_RESP	1646446	n/a	LTP183	ltpFR	1	2	0	BAKER	71	0	n/a	1	n/a	n/a	n/a	n/a	n/a
3295.198	n/a	RECOG_CONF	1647599	n/a	LTP183	ltpFR	1	2	0	BAKER	71	n/a	3	1	n/a	n/a	n/a	n/a	n/a
3298.236	n/a	RECOG_LURE	1649118	n/a	LTP183	ltpFR	1	2	n/a	PERFUME	1049	0	5	n/a	n/a	n/a	n/a	n/a	n/a
3299.958	n/a	RECOG_RESP	1649979	n/a	LTP183	ltpFR	1	2	n/a	PERFUME	1049	0	n/a	n/a	n/a	n/a	n/a	n/a	n/a
3302.216	n/a	RECOG_CONF	1651108	n/a	LTP183	ltpFR	1	2	n/a	PERFUME	1049	n/a	5	n/a	n/a	n/a	n/a	n/a	n/a
3304.962	n/a	RECOG_TARGET	1652481	n/a	LTP183	ltpFR	1	2	1	DUST	508	1	4	0	n/a	n/a	n/a	n/a	n/a
3306.658	n/a	RECOG_RESP	1653329	n/a	LTP183	ltpFR	1	2	1	DUST	508	1	n/a	0	n/a	n/a	n/a	n/a	n/a
3309.144	n/a	RECOG_CONF	1654572	n/a	LTP183	ltpFR	1	2	1	DUST	508	n/a	4	0	n/a	n/a	n/a	n/a	n/a
3312.058	n/a	RECOG_TARGET	1656029	n/a	LTP183	ltpFR	1	2	0	SILK	1307	1	5	0	n/a	n/a	n/a	n/a	n/a
3313.272	n/a	RECOG_RESP	1656636	n/a	LTP183	ltpFR	1	2	0	SILK	1307	1	n/a	0	n/a	n/a	n/a	n/a	n/a
3315.354	n/a	RECOG_CONF	1657677	n/a	LTP183	ltpFR	1	2	0	SILK	1307	n/a	5	0	n/a	n/a	n/a	n/a	n/a
3318.296	n/a	RECOG_TARGET	1659148	n/a	LTP183	ltpFR	1	2	-1	FIELD	562	0	3	-1	n/a	n/a	n/a	n/a	n/a
3319.856	n/a	RECOG_RESP	1659928	n/a	LTP183	ltpFR	1	2	-1	FIELD	562	0	n/a	-1	n/a	n/a	n/a	n/a	n/a
3322.092	n/a	RECOG_CONF	1661046	n/a	LTP183	ltpFR	1	2	-1	FIELD	562	n/a	3	-1	n/a	n/a	n/a	n/a	n/a
3325.056	n/a	RECOG_TARGET	1662528	n/a	LTP183	ltpFR	1	2	0	KEY	773	0	2	0	n/a	n/a	n/a	n/a	n/a
3326.99	n/a	RECOG_RESP	1663495	n/a	LTP183	ltpFR	1	2	0	KEY	773	0	n/a	0	n/a	n/a	n/a	n/a	n/a
3329.33	n/a	RECOG_CONF	1664665	n/a	LTP183	ltpFR	1	2	0	KEY	773	n/a	2	0	n/a	n/a	n/a	n/a	n/a
3332.216	n/a	RECOG_LURE	1666108	n/a	LTP183	ltpFR	1	2	n/a	ELF	525	0	3	n/a	n/a	n/a	n/a	n/a	n/a
3334.158	n/a	RECOG_RESP	1667079	n/a	LTP183	ltpFR	1	2	n/a	ELF	525	0	n/a	n/a	n/a	n/a	n/a	n/a	n/a
3336.612	n/a	RECOG_CONF	1668306	n/a	LTP183	ltpFR	1	2	n/a	ELF	525	n/a	3	n/a	n/a	n/a	n/a	n/a	n/a
3339.712	n/a	RECOG_LURE	1669856	n/a	LTP183	ltpFR	1	2	n/a	ZIPPER	1636	0	5	n/a	n/a	n/a	n/a	n/a	n/a
3341.306	n/a	RECOG_RESP	1670653	n/a	LTP183	ltpFR	1	2	n/a	ZIPPER	1636	0	n/a	n/a	n/a	n/a	n/a	n/a	n/a
3343.656	n/a	RECOG_CONF	1671828	n/a	LTP183	ltpFR	1	2	n/a	ZIPPER	1636	n/a	5	n/a	n/a	n/a	n/a	n/a	n/a
3346.776	n/a	RECOG_TARGET	1673388	n/a	LTP183	ltpFR	1	2	1	ARENA	37	0	2	0	n/a	n/a	n/a	n/a	n/a
3348.94	n/a	RECOG_RESP	1674470	n/a	LTP183	ltpFR	1	2	1	ARENA	37	0	n/a	0	n/a	n/a	n/a	n/a	n/a
3351.404	n/a	RECOG_CONF	1675702	n/a	LTP183	ltpFR	1	2	1	ARENA	37	n/a	2	0	n/a	n/a	n/a	n/a	n/a
3354.384	n/a	RECOG_TARGET	1677192	n/a	LTP183	ltpFR	1	2	-1	ICEBERG	731	1	5	-1	n/a	n/a	n/a	n/a	n/a
3356.228	n/a	RECOG_RESP	1678114	n/a	LTP183	ltpFR	1	2	-1	ICEBERG	731	1	n/a	-1	n/a	n/a	n/a	n/a	n/a
3358.746	n/a	RECOG_CONF	1679373	n/a	LTP183	ltpFR	1	2	-1	ICEBERG	731	n/a	5	-1	n/a	n/a	n/a	n/a	n/a
3361.882	n/a	RECOG_TARGET	1680941	n/a	LTP183	ltpFR	1	2	-1	MOAT	903	0	4	-1	n/a	n/a	n/a	n/a	n/a
3363.444	n/a	RECOG_RESP	1681722	n/a	LTP183	ltpFR	1	2	-1	MOAT	903	0	n/a	-1	n/a	n/a	n/a	n/a	n/a
3365.75	n/a	RECOG_CONF	1682875	n/a	LTP183	ltpFR	1	2	-1	MOAT	903	n/a	4	-1	n/a	n/a	n/a	n/a	n/a
3368.806	n/a	RECOG_TARGET	1684403	n/a	LTP183	ltpFR	1	2	0	TREAD	1499	1	4	0	n/a	n/a	n/a	n/a	n/a
3370.576	n/a	RECOG_RESP	1685288	n/a	LTP183	ltpFR	1	2	0	TREAD	1499	1	n/a	0	n/a	n/a	n/a	n/a	n/a
3373.128	n/a	RECOG_CONF	1686564	n/a	LTP183	ltpFR	1	2	0	TREAD	1499	n/a	4	0	n/a	n/a	n/a	n/a	n/a
3375.866	n/a	RECOG_TARGET	1687933	n/a	LTP183	ltpFR	1	2	1	SUPPER	1411	0	3	0	n/a	n/a	n/a	n/a	n/a
3377.88	n/a	RECOG_RESP	1688940	n/a	LTP183	ltpFR	1	2	1	SUPPER	1411	0	n/a	0	n/a	n/a	n/a	n/a	n/a
3379.82	n/a	RECOG_CONF	1689910	n/a	LTP183	ltpFR	1	2	1	SUPPER	1411	n/a	3	0	n/a	n/a	n/a	n/a	n/a
3382.744	n/a	RECOG_TARGET	1691372	n/a	LTP183	ltpFR	1	2	-1	VIKING	1565	1	5	-1	n/a	n/a	n/a	n/a	n/a
3384.374	n/a	RECOG_RESP	1692187	n/a	LTP183	ltpFR	1	2	-1	VIKING	1565	1	n/a	-1	n/a	n/a	n/a	n/a	n/a
3386.604	n/a	RECOG_CONF	1693302	n/a	LTP183	ltpFR	1	2	-1	VIKING	1565	n/a	5	-1	n/a	n/a	n/a	n/a	n/a
3389.486	n/a	RECOG_TARGET	1694743	n/a	LTP183	ltpFR	1	2	1	CHIPMUNK	304	0	5	1	n/a	n/a	n/a	n/a	n/a
3390.884	n/a	RECOG_RESP	1695442	n/a	LTP183	ltpFR	1	2	1	CHIPMUNK	304	0	n/a	1	n/a	n/a	n/a	n/a	n/a
3392.986	n/a	RECOG_CONF	1696493	n/a	LTP183	ltpFR	1	2	1	CHIPMUNK	304	n/a	5	1	n/a	n/a	n/a	n/a	n/a
3395.678	n/a	RECOG_LURE	1697839	n/a	LTP183	ltpFR	1	2	n/a	SPONGE	1355	0	2	n/a	n/a	n/a	n/a	n/a	n/a
3397.536	n/a	RECOG_RESP	1698768	n/a	LTP183	ltpFR	1	2	n/a	SPONGE	1355	0	n/a	n/a	n/a	n/a	n/a	n/a	n/a
3399.876	n/a	RECOG_CONF	1699938	n/a	LTP183	ltpFR	1	2	n/a	SPONGE	1355	n/a	2	n/a	n/a	n/a	n/a	n/a	n/a
3402.97	n/a	RECOG_TARGET	1701485	n/a	LTP183	ltpFR	1	2	0	CUPBOARD	425	0	1	1	n/a	n/a	n/a	n/a	n/a
3406.266	n/a	RECOG_RESP	1703133	n/a	LTP183	ltpFR	1	2	0	CUPBOARD	425	0	n/a	1	n/a	n/a	n/a	n/a	n/a
3408.052	n/a	RECOG_CONF	1704026	n/a	LTP183	ltpFR	1	2	0	CUPBOARD	425	n/a	1	1	n/a	n/a	n/a	n/a	n/a
3410.868	n/a	RECOG_TARGET	1705434	n/a	LTP183	ltpFR	1	2	1	NICKEL	950	1	5	0	n/a	n/a	n/a	n/a	n/a
3412.768	n/a	RECOG_RESP	1706384	n/a	LTP183	ltpFR	1	2	1	NICKEL	950	1	n/a	0	n/a	n/a	n/a	n/a	n/a
3415.156	n/a	RECOG_CONF	1707578	n/a	LTP183	ltpFR	1	2	1	NICKEL	950	n/a	5	0	n/a	n/a	n/a	n/a	n/a
3418.06	n/a	RECOG_TARGET	1709030	n/a	LTP183	ltpFR	1	2	1	RADIO	1157	0	5	0	n/a	n/a	n/a	n/a	n/a
3419.618	n/a	RECOG_RESP	1709809	n/a	LTP183	ltpFR	1	2	1	RADIO	1157	0	n/a	0	n/a	n/a	n/a	n/a	n/a
3421.906	n/a	RECOG_CONF	1710953	n/a	LTP183	ltpFR	1	2	1	RADIO	1157	n/a	5	0	n/a	n/a	n/a	n/a	n/a
3424.42	n/a	RECOG_LURE	1712210	n/a	LTP183	ltpFR	1	2	n/a	STAIRS	1367	0	1	n/a	n/a	n/a	n/a	n/a	n/a
3426.026	n/a	RECOG_RESP	1713013	n/a	LTP183	ltpFR	1	2	n/a	STAIRS	1367	0	n/a	n/a	n/a	n/a	n/a	n/a	n/a
3428.586	n/a	RECOG_CONF	1714293	n/a	LTP183	ltpFR	1	2	n/a	STAIRS	1367	n/a	1	n/a	n/a	n/a	n/a	n/a	n/a
3436.188	n/a	REC_START	1718094	n/a	LTP183	ltpFR	1	3	n/a	n/a	n/a	n/a	n/a	n/a	n/a	n/a	n/a	n/a	n/a
3436.23	n/a	RECOG_TARGET	1718115	n/a	LTP183	ltpFR	1	3	1	GRAVEL	659	1	2	0	n/a	n/a	n/a	n/a	n/a
3438.802	n/a	RECOG_RESP	1719401	n/a	LTP183	ltpFR	1	3	1	GRAVEL	659	1	n/a	0	n/a	n/a	n/a	n/a	n/a
3440.79	n/a	RECOG_CONF	1720395	n/a	LTP183	ltpFR	1	3	1	GRAVEL	659	n/a	2	0	n/a	n/a	n/a	n/a	n/a
3442.824	n/a	RECOG_LURE	1721412	n/a	LTP183	ltpFR	1	3	n/a	COCOON	339	0	5	n/a	n/a	n/a	n/a	n/a	n/a
3444.318	n/a	RECOG_RESP	1722159	n/a	LTP183	ltpFR	1	3	n/a	COCOON	339	0	n/a	n/a	n/a	n/a	n/a	n/a	n/a
3446.83	n/a	RECOG_CONF	1723415	n/a	LTP183	ltpFR	1	3	n/a	COCOON	339	n/a	5	n/a	n/a	n/a	n/a	n/a	n/a
3449.532	n/a	RECOG_TARGET	1724766	n/a	LTP183	ltpFR	1	3	0	PALM	1007	1	5	0	n/a	n/a	n/a	n/a	n/a
3450.948	n/a	RECOG_RESP	1725474	n/a	LTP183	ltpFR	1	3	0	PALM	1007	1	n/a	0	n/a	n/a	n/a	n/a	n/a
3453.454	n/a	RECOG_CONF	1726727	n/a	LTP183	ltpFR	1	3	0	PALM	1007	n/a	5	0	n/a	n/a	n/a	n/a	n/a
3456.458	n/a	RECOG_TARGET	1728229	n/a	LTP183	ltpFR	1	3	1	JEANS	752	1	5	0	n/a	n/a	n/a	n/a	n/a
3457.614	n/a	RECOG_RESP	1728807	n/a	LTP183	ltpFR	1	3	1	JEANS	752	1	n/a	0	n/a	n/a	n/a	n/a	n/a
3460.15	n/a	RECOG_CONF	1730075	n/a	LTP183	ltpFR	1	3	1	JEANS	752	n/a	5	0	n/a	n/a	n/a	n/a	n/a
3463.268	n/a	RECOG_TARGET	1731634	n/a	LTP183	ltpFR	1	3	1	SLACKS	1323	1	5	0	n/a	n/a	n/a	n/a	n/a
3464.74	n/a	RECOG_RESP	1732370	n/a	LTP183	ltpFR	1	3	1	SLACKS	1323	1	n/a	0	n/a	n/a	n/a	n/a	n/a
3467.306	n/a	RECOG_CONF	1733653	n/a	LTP183	ltpFR	1	3	1	SLACKS	1323	n/a	5	0	n/a	n/a	n/a	n/a	n/a
3470.294	n/a	RECOG_TARGET	1735147	n/a	LTP183	ltpFR	1	3	0	SOFTBALL	1343	1	5	0	n/a	n/a	n/a	n/a	n/a
3471.448	n/a	RECOG_RESP	1735724	n/a	LTP183	ltpFR	1	3	0	SOFTBALL	1343	1	n/a	0	n/a	n/a	n/a	n/a	n/a
3473.968	n/a	RECOG_CONF	1736984	n/a	LTP183	ltpFR	1	3	0	SOFTBALL	1343	n/a	5	0	n/a	n/a	n/a	n/a	n/a
3476.61	n/a	RECOG_LURE	1738305	n/a	LTP183	ltpFR	1	3	n/a	SCREW	1254	1	2	n/a	n/a	n/a	n/a	n/a	n/a
3478.58	n/a	RECOG_RESP	1739290	n/a	LTP183	ltpFR	1	3	n/a	SCREW	1254	1	n/a	n/a	n/a	n/a	n/a	n/a	n/a
3480.698	n/a	RECOG_CONF	1740349	n/a	LTP183	ltpFR	1	3	n/a	SCREW	1254	n/a	2	n/a	n/a	n/a	n/a	n/a	n/a
3483.612	n/a	RECOG_TARGET	1741806	n/a	LTP183	ltpFR	1	3	-1	BANANA	77	1	5	-1	n/a	n/a	n/a	n/a	n/a
3484.734	n/a	RECOG_RESP	1742367	n/a	LTP183	ltpFR	1	3	-1	BANANA	77	1	n/a	-1	n/a	n/a	n/a	n/a	n/a
3487.14	n/a	RECOG_CONF	1743570	n/a	LTP183	ltpFR	1	3	-1	BANANA	77	n/a	5	-1	n/a	n/a	n/a	n/a	n/a
3490.354	n/a	RECOG_LURE	1745177	n/a	LTP183	ltpFR	1	3	n/a	CORK	380	0	4	n/a	n/a	n/a	n/a	n/a	n/a
3491.976	n/a	RECOG_RESP	1745988	n/a	LTP183	ltpFR	1	3	n/a	CORK	380	0	n/a	n/a	n/a	n/a	n/a	n/a	n/a
3494.474	n/a	RECOG_CONF	1747237	n/a	LTP183	ltpFR	1	3	n/a	CORK	380	n/a	4	n/a	n/a	n/a	n/a	n/a	n/a
3497.064	n/a	RECOG_TARGET	1748532	n/a	LTP183	ltpFR	1	3	1	SHACK	1273	1	5	0	n/a	n/a	n/a	n/a	n/a
3498.392	n/a	RECOG_RESP	1749196	n/a	LTP183	ltpFR	1	3	1	SHACK	1273	1	n/a	0	n/a	n/a	n/a	n/a	n/a
3500.414	n/a	RECOG_CONF	1750207	n/a	LTP183	ltpFR	1	3	1	SHACK	1273	n/a	5	0	n/a	n/a	n/a	n/a	n/a
3503.22	n/a	RECOG_TARGET	1751610	n/a	LTP183	ltpFR	1	3	1	XEROX	1628	1	5	0	n/a	n/a	n/a	n/a	n/a
3504.468	n/a	RECOG_RESP	1752234	n/a	LTP183	ltpFR	1	3	1	XEROX	1628	1	n/a	0	n/a	n/a	n/a	n/a	n/a
3506.608	n/a	RECOG_CONF	1753304	n/a	LTP183	ltpFR	1	3	1	XEROX	1628	n/a	5	0	n/a	n/a	n/a	n/a	n/a
3509.494	n/a	RECOG_TARGET	1754747	n/a	LTP183	ltpFR	1	3	0	SADDLE	1221	1	5	1	n/a	n/a	n/a	n/a	n/a
3510.672	n/a	RECOG_RESP	1755336	n/a	LTP183	ltpFR	1	3	0	SADDLE	1221	1	n/a	1	n/a	n/a	n/a	n/a	n/a
3512.962	n/a	RECOG_CONF	1756481	n/a	LTP183	ltpFR	1	3	0	SADDLE	1221	n/a	5	1	n/a	n/a	n/a	n/a	n/a
3515.786	n/a	RECOG_TARGET	1757893	n/a	LTP183	ltpFR	1	3	1	BEAST	108	1	2	1	n/a	n/a	n/a	n/a	n/a
3517.716	n/a	RECOG_RESP	1758858	n/a	LTP183	ltpFR	1	3	1	BEAST	108	1	n/a	1	n/a	n/a	n/a	n/a	n/a
3519.936	n/a	RECOG_CONF	1759968	n/a	LTP183	ltpFR	1	3	1	BEAST	108	n/a	2	1	n/a	n/a	n/a	n/a	n/a
3522.762	n/a	RECOG_TARGET	1761381	n/a	LTP183	ltpFR	1	3	1	REFEREE	1178	1	4	1	n/a	n/a	n/a	n/a	n/a
3524.248	n/a	RECOG_RESP	1762124	n/a	LTP183	ltpFR	1	3	1	REFEREE	1178	1	n/a	1	n/a	n/a	n/a	n/a	n/a
3526.302	n/a	RECOG_CONF	1763151	n/a	LTP183	ltpFR	1	3	1	REFEREE	1178	n/a	4	1	n/a	n/a	n/a	n/a	n/a
3529.32	n/a	RECOG_TARGET	1764660	n/a	LTP183	ltpFR	1	3	-1	TOOL	1480	0	3	-1	n/a	n/a	n/a	n/a	n/a
3531.284	n/a	RECOG_RESP	1765642	n/a	LTP183	ltpFR	1	3	-1	TOOL	1480	0	n/a	-1	n/a	n/a	n/a	n/a	n/a
3533.87	n/a	RECOG_CONF	1766935	n/a	LTP183	ltpFR	1	3	-1	TOOL	1480	n/a	3	-1	n/a	n/a	n/a	n/a	n/a
3537.0	n/a	RECOG_TARGET	1768500	n/a	LTP183	ltpFR	1	3	1	PALACE	1006	1	5	0	n/a	n/a	n/a	n/a	n/a
3538.254	n/a	RECOG_RESP	1769127	n/a	LTP183	ltpFR	1	3	1	PALACE	1006	1	n/a	0	n/a	n/a	n/a	n/a	n/a
3540.55	n/a	RECOG_CONF	1770275	n/a	LTP183	ltpFR	1	3	1	PALACE	1006	n/a	5	0	n/a	n/a	n/a	n/a	n/a
3543.524	n/a	RECOG_TARGET	1771762	n/a	LTP183	ltpFR	1	3	0	WEB	1598	1	5	0	n/a	n/a	n/a	n/a	n/a
3544.832	n/a	RECOG_RESP	1772416	n/a	LTP183	ltpFR	1	3	0	WEB	1598	1	n/a	0	n/a	n/a	n/a	n/a	n/a
3547.176	n/a	RECOG_CONF	1773588	n/a	LTP183	ltpFR	1	3	0	WEB	1598	n/a	5	0	n/a	n/a	n/a	n/a	n/a
3550.016	n/a	RECOG_TARGET	1775008	n/a	LTP183	ltpFR	1	3	0	DUCK	504	1	5	1	n/a	n/a	n/a	n/a	n/a
3551.262	n/a	RECOG_RESP	1775631	n/a	LTP183	ltpFR	1	3	0	DUCK	504	1	n/a	1	n/a	n/a	n/a	n/a	n/a
3553.568	n/a	RECOG_CONF	1776784	n/a	LTP183	ltpFR	1	3	0	DUCK	504	n/a	5	1	n/a	n/a	n/a	n/a	n/a
3556.726	n/a	RECOG_TARGET	1778363	n/a	LTP183	ltpFR	1	3	0	PAIL	1002	1	3	1	n/a	n/a	n/a	n/a	n/a
3559.116	n/a	RECOG_RESP	1779558	n/a	LTP183	ltpFR	1	3	0	PAIL	1002	1	n/a	1	n/a	n/a	n/a	n/a	n/a
3561.458	n/a	RECOG_CONF	1780729	n/a	LTP183	ltpFR	1	3	0	PAIL	1002	n/a	3	1	n/a	n/a	n/a	n/a	n/a
3564.118	n/a	RECOG_TARGET	1782059	n/a	LTP183	ltpFR	1	3	-1	TROUT	1511	1	5	-1	n/a	n/a	n/a	n/a	n/a
3565.556	n/a	RECOG_RESP	1782778	n/a	LTP183	ltpFR	1	3	-1	TROUT	1511	1	n/a	-1	n/a	n/a	n/a	n/a	n/a
3567.694	n/a	RECOG_CONF	1783847	n/a	LTP183	ltpFR	1	3	-1	TROUT	1511	n/a	5	-1	n/a	n/a	n/a	n/a	n/a
3576.314	n/a	REC_START	1788157	n/a	LTP183	ltpFR	1	4	n/a	n/a	n/a	n/a	n/a	n/a	n/a	n/a	n/a	n/a	n/a
3576.352	n/a	RECOG_TARGET	1788176	n/a	LTP183	ltpFR	1	4	0	HERB	704	1	5	0	n/a	n/a	n/a	n/a	n/a
3577.77	n/a	RECOG_RESP	1788885	n/a	LTP183	ltpFR	1	4	0	HERB	704	1	n/a	0	n/a	n/a	n/a	n/a	n/a
3579.94	n/a	RECOG_CONF	1789970	n/a	LTP183	ltpFR	1	4	0	HERB	704	n/a	5	0	n/a	n/a	n/a	n/a	n/a
3583.394	n/a	RECOG_TARGET	1791697	n/a	LTP183	ltpFR	1	4	0	SENATOR	1268	1	5	1	n/a	n/a	n/a	n/a	n/a
3584.61	n/a	RECOG_RESP	1792305	n/a	LTP183	ltpFR	1	4	0	SENATOR	1268	1	n/a	1	n/a	n/a	n/a	n/a	n/a
3586.944	n/a	RECOG_CONF	1793472	n/a	LTP183	ltpFR	1	4	0	SENATOR	1268	n/a	5	1	n/a	n/a	n/a	n/a	n/a
3589.97	n/a	RECOG_TARGET	1794985	n/a	LTP183	ltpFR	1	4	1	WASP	1593	1	5	1	n/a	n/a	n/a	n/a	n/a
3590.946	n/a	RECOG_RESP	1795473	n/a	LTP183	ltpFR	1	4	1	WASP	1593	1	n/a	1	n/a	n/a	n/a	n/a	n/a
3593.534	n/a	RECOG_CONF	1796767	n/a	LTP183	ltpFR	1	4	1	WASP	1593	n/a	5	1	n/a	n/a	n/a	n/a	n/a
3596.594	n/a	RECOG_TARGET	1798297	n/a	LTP183	ltpFR	1	4	1	RAM	1165	0	4	1	n/a	n/a	n/a	n/a	n/a
3598.314	n/a	RECOG_RESP	1799157	n/a	LTP183	ltpFR	1	4	1	RAM	1165	0	n/a	1	n/a	n/a	n/a	n/a	n/a
3600.314	n/a	RECOG_CONF	1800157	n/a	LTP183	ltpFR	1	4	1	RAM	1165	n/a	4	1	n/a	n/a	n/a	n/a	n/a
3603.286	n/a	RECOG_TARGET	1801643	n/a	LTP183	ltpFR	1	4	-1	DONKEY	484	1	3	-1	n/a	n/a	n/a	n/a	n/a
3605.058	n/a	RECOG_RESP	1802529	n/a	LTP183	ltpFR	1	4	-1	DONKEY	484	1	n/a	-1	n/a	n/a	n/a	n/a	n/a
3607.236	n/a	RECOG_CONF	1803618	n/a	LTP183	ltpFR	1	4	-1	DONKEY	484	n/a	3	-1	n/a	n/a	n/a	n/a	n/a
3610.348	n/a	RECOG_TARGET	1805174	n/a	LTP183	ltpFR	1	4	-1	JAR	750	0	3	-1	n/a	n/a	n/a	n/a	n/a
3612.736	n/a	RECOG_RESP	1806368	n/a	LTP183	ltpFR	1	4	-1	JAR	750	0	n/a	-1	n/a	n/a	n/a	n/a	n/a
3615.052	n/a	RECOG_CONF	1807526	n/a	LTP183	ltpFR	1	4	-1	JAR	750	n/a	3	-1	n/a	n/a	n/a	n/a	n/a
3618.092	n/a	RECOG_TARGET	1809046	n/a	LTP183	ltpFR	1	4	0	LAMP	798	1	5	1	n/a	n/a	n/a	n/a	n/a
3619.28	n/a	RECOG_RESP	1809640	n/a	LTP183	ltpFR	1	4	0	LAMP	798	1	n/a	1	n/a	n/a	n/a	n/a	n/a
3621.572	n/a	RECOG_CONF	1810786	n/a	LTP183	ltpFR	1	4	0	LAMP	798	n/a	5	1	n/a	n/a	n/a	n/a	n/a
3624.852	n/a	RECOG_TARGET	1812426	n/a	LTP183	ltpFR	1	4	-1	MACHINE	852	0	2	-1	n/a	n/a	n/a	n/a	n/a
3626.736	n/a	RECOG_RESP	1813368	n/a	LTP183	ltpFR	1	4	-1	MACHINE	852	0	n/a	-1	n/a	n/a	n/a	n/a	n/a
3628.774	n/a	RECOG_CONF	1814387	n/a	LTP183	ltpFR	1	4	-1	MACHINE	852	n/a	2	-1	n/a	n/a	n/a	n/a	n/a
3631.562	n/a	RECOG_TARGET	1815781	n/a	LTP183	ltpFR	1	4	1	STAKE	1368	1	3	0	n/a	n/a	n/a	n/a	n/a
3633.212	n/a	RECOG_RESP	1816606	n/a	LTP183	ltpFR	1	4	1	STAKE	1368	1	n/a	0	n/a	n/a	n/a	n/a	n/a
3635.506	n/a	RECOG_CONF	1817753	n/a	LTP183	ltpFR	1	4	1	STAKE	1368	n/a	3	0	n/a	n/a	n/a	n/a	n/a
3638.436	n/a	RECOG_TARGET	1819218	n/a	LTP183	ltpFR	1	4	-1	TORCH	1484	0	2	-1	n/a	n/a	n/a	n/a	n/a
3640.23	n/a	RECOG_RESP	1820115	n/a	LTP183	ltpFR	1	4	-1	TORCH	1484	0	n/a	-1	n/a	n/a	n/a	n/a	n/a
3642.32	n/a	RECOG_CONF	1821160	n/a	LTP183	ltpFR	1	4	-1	TORCH	1484	n/a	2	-1	n/a	n/a	n/a	n/a	n/a
3645.178	n/a	RECOG_TARGET	1822589	n/a	LTP183	ltpFR	1	4	0	BLACKBERRY	132	1	5	0	n/a	n/a	n/a	n/a	n/a
3646.418	n/a	RECOG_RESP	1823209	n/a	LTP183	ltpFR	1	4	0	BLACKBERRY	132	1	n/a	0	n/a	n/a	n/a	n/a	n/a
3648.878	n/a	RECOG_CONF	1824439	n/a	LTP183	ltpFR	1	4	0	BLACKBERRY	132	n/a	5	0	n/a	n/a	n/a	n/a	n/a
3651.874	n/a	RECOG_LURE	1825937	n/a	LTP183	ltpFR	1	4	n/a	DUSTPAN	509	0	5	n/a	n/a	n/a	n/a	n/a	n/a
3653.34	n/a	RECOG_RESP	1826670	n/a	LTP183	ltpFR	1	4	n/a	DUSTPAN	509	0	n/a	n/a	n/a	n/a	n/a	n/a	n/a
3655.842	n/a	RECOG_CONF	1827921	n/a	LTP183	ltpFR	1	4	n/a	DUSTPAN	509	n/a	5	n/a	n/a	n/a	n/a	n/a	n/a
3658.514	n/a	RECOG_LURE	1829257	n/a	LTP183	ltpFR	1	4	n/a	TAPIOCA	1434	0	5	n/a	n/a	n/a	n/a	n/a	n/a
3659.876	n/a	RECOG_RESP	1829938	n/a	LTP183	ltpFR	1	4	n/a	TAPIOCA	1434	0	n/a	n/a	n/a	n/a	n/a	n/a	n/a
3662.218	n/a	RECOG_CONF	1831109	n/a	LTP183	ltpFR	1	4	n/a	TAPIOCA	1434	n/a	5	n/a	n/a	n/a	n/a	n/a	n/a
3665.01	n/a	RECOG_LURE	1832505	n/a	LTP183	ltpFR	1	4	n/a	CANE	231	0	5	n/a	n/a	n/a	n/a	n/a	n/a
3666.21	n/a	RECOG_RESP	1833105	n/a	LTP183	ltpFR	1	4	n/a	CANE	231	0	n/a	n/a	n/a	n/a	n/a	n/a	n/a
3668.764	n/a	RECOG_CONF	1834382	n/a	LTP183	ltpFR	1	4	n/a	CANE	231	n/a	5	n/a	n/a	n/a	n/a	n/a	n/a
3671.764	n/a	RECOG_TARGET	1835882	n/a	LTP183	ltpFR	1	4	1	KETCHUP	771	1	5	0	n/a	n/a	n/a	n/a	n/a
3672.922	n/a	RECOG_RESP	1836461	n/a	LTP183	ltpFR	1	4	1	KETCHUP	771	1	n/a	0	n/a	n/a	n/a	n/a	n/a
3675.294	n/a	RECOG_CONF	1837647	n/a	LTP183	ltpFR	1	4	1	KETCHUP	771	n/a	5	0	n/a	n/a	n/a	n/a	n/a
3678.222	n/a	RECOG_TARGET	1839111	n/a	LTP183	ltpFR	1	4	1	CORD	379	1	5	0	n/a	n/a	n/a	n/a	n/a
3679.408	n/a	RECOG_RESP	1839704	n/a	LTP183	ltpFR	1	4	1	CORD	379	1	n/a	0	n/a	n/a	n/a	n/a	n/a
3681.59	n/a	RECOG_CONF	1840795	n/a	LTP183	ltpFR	1	4	1	CORD	379	n/a	5	0	n/a	n/a	n/a	n/a	n/a
3684.62	n/a	RECOG_TARGET	1842310	n/a	LTP183	ltpFR	1	4	1	MESSAGE	888	1	5	0	n/a	n/a	n/a	n/a	n/a
3686.15	n/a	RECOG_RESP	1843075	n/a	LTP183	ltpFR	1	4	1	MESSAGE	888	1	n/a	0	n/a	n/a	n/a	n/a	n/a
3688.386	n/a	RECOG_CONF	1844193	n/a	LTP183	ltpFR	1	4	1	MESSAGE	888	n/a	5	0	n/a	n/a	n/a	n/a	n/a
3691.59	n/a	RECOG_TARGET	1845795	n/a	LTP183	ltpFR	1	4	1	MAP	865	1	5	0	n/a	n/a	n/a	n/a	n/a
3693.304	n/a	RECOG_RESP	1846652	n/a	LTP183	ltpFR	1	4	1	MAP	865	1	n/a	0	n/a	n/a	n/a	n/a	n/a
3695.742	n/a	RECOG_CONF	1847871	n/a	LTP183	ltpFR	1	4	1	MAP	865	n/a	5	0	n/a	n/a	n/a	n/a	n/a
3698.786	n/a	RECOG_TARGET	1849393	n/a	LTP183	ltpFR	1	4	0	ITEM	746	0	2	0	n/a	n/a	n/a	n/a	n/a
3701.006	n/a	RECOG_RESP	1850503	n/a	LTP183	ltpFR	1	4	0	ITEM	746	0	n/a	0	n/a	n/a	n/a	n/a	n/a
3703.116	n/a	RECOG_CONF	1851558	n/a	LTP183	ltpFR	1	4	0	ITEM	746	n/a	2	0	n/a	n/a	n/a	n/a	n/a
3705.862	n/a	RECOG_TARGET	1852931	n/a	LTP183	ltpFR	1	4	-1	GLUE	643	1	5	-1	n/a	n/a	n/a	n/a	n/a
3707.178	n/a	RECOG_RESP	1853589	n/a	LTP183	ltpFR	1	4	-1	GLUE	643	1	n/a	-1	n/a	n/a	n/a	n/a	n/a
3709.552	n/a	RECOG_CONF	1854776	n/a	LTP183	ltpFR	1	4	-1	GLUE	643	n/a	5	-1	n/a	n/a	n/a	n/a	n/a
3719.354	n/a	REC_START	1859677	n/a	LTP183	ltpFR	1	5	n/a	n/a	n/a	n/a	n/a	n/a	n/a	n/a	n/a	n/a	n/a
3719.396	n/a	RECOG_TARGET	1859698	n/a	LTP183	ltpFR	1	5	1	LION	827	1	4	1	n/a	n/a	n/a	n/a	n/a
3720.82	n/a	RECOG_RESP	1860410	n/a	LTP183	ltpFR	1	5	1	LION	827	1	n/a	1	n/a	n/a	n/a	n/a	n/a
3722.78	n/a	RECOG_CONF	1861390	n/a	LTP183	ltpFR	1	5	1	LION	827	n/a	4	1	n/a	n/a	n/a	n/a	n/a
3725.42	n/a	RECOG_LURE	1862710	n/a	LTP183	ltpFR	1	5	n/a	SCARECROW	1245	0	5	n/a	n/a	n/a	n/a	n/a	n/a
3726.856	n/a	RECOG_RESP	1863428	n/a	LTP183	ltpFR	1	5	n/a	SCARECROW	1245	0	n/a	n/a	n/a	n/a	n/a	n/a	n/a
3728.794	n/a	RECOG_CONF	1864397	n/a	LTP183	ltpFR	1	5	n/a	SCARECROW	1245	n/a	5	n/a	n/a	n/a	n/a	n/a	n/a
3731.81	n/a	RECOG_TARGET	1865905	n/a	LTP183	ltpFR	1	5	1	HERD	705	1	5	1	n/a	n/a	n/a	n/a	n/a
3733.01	n/a	RECOG_RESP	1866505	n/a	LTP183	ltpFR	1	5	1	HERD	705	1	n/a	1	n/a	n/a	n/a	n/a	n/a
3735.454	n/a	RECOG_CONF	1867727	n/a	LTP183	ltpFR	1	5	1	HERD	705	n/a	5	1	n/a	n/a	n/a	n/a	n/a
3738.05	n/a	RECOG_TARGET	1869025	n/a	LTP183	ltpFR	1	5	0	TUBA	1515	1	5	1	n/a	n/a	n/a	n/a	n/a
3739.22	n/a	RECOG_RESP	1869610	n/a	LTP183	ltpFR	1	5	0	TUBA	1515	1	n/a	1	n/a	n/a	n/a	n/a	n/a
3742.528	n/a	RECOG_CONF	1871264	n/a	LTP183	ltpFR	1	5	0	TUBA	1515	n/a	5	1	n/a	n/a	n/a	n/a	n/a
3745.496	n/a	RECOG_LURE	1872748	n/a	LTP183	ltpFR	1	5	n/a	MEAT	883	0	5	n/a	n/a	n/a	n/a	n/a	n/a
3747.226	n/a	RECOG_RESP	1873613	n/a	LTP183	ltpFR	1	5	n/a	MEAT	883	0	n/a	n/a	n/a	n/a	n/a	n/a	n/a
3749.972	n/a	RECOG_CONF	1874986	n/a	LTP183	ltpFR	1	5	n/a	MEAT	883	n/a	5	n/a	n/a	n/a	n/a	n/a	n/a
3752.874	n/a	RECOG_LURE	1876437	n/a	LTP183	ltpFR	1	5	n/a	JELLO	754	0	5	n/a	n/a	n/a	n/a	n/a	n/a
3754.048	n/a	RECOG_RESP	1877024	n/a	LTP183	ltpFR	1	5	n/a	JELLO	754	0	n/a	n/a	n/a	n/a	n/a	n/a	n/a
3756.306	n/a	RECOG_CONF	1878153	n/a	LTP183	ltpFR	1	5	n/a	JELLO	754	n/a	5	n/a	n/a	n/a	n/a	n/a	n/a
3759.45	n/a	RECOG_TARGET	1879725	n/a	LTP183	ltpFR	1	5	-1	TEAPOT	1442	1	5	-1	n/a	n/a	n/a	n/a	n/a
3760.89	n/a	RECOG_RESP	1880445	n/a	LTP183	ltpFR	1	5	-1	TEAPOT	1442	1	n/a	-1	n/a	n/a	n/a	n/a	n/a
3763.392	n/a	RECOG_CONF	1881696	n/a	LTP183	ltpFR	1	5	-1	TEAPOT	1442	n/a	5	-1	n/a	n/a	n/a	n/a	n/a
3766.494	n/a	RECOG_TARGET	1883247	n/a	LTP183	ltpFR	1	5	1	WINGS	1614	0	5	n/a	n/a	n/a	n/a	n/a	n/a
3767.938	n/a	RECOG_RESP	1883969	n/a	LTP183	ltpFR	1	5	1	WINGS	1614	0	n/a	n/a	n/a	n/a	n/a	n/a	n/a
3770.362	n/a	RECOG_CONF	1885181	n/a	LTP183	ltpFR	1	5	1	WINGS	1614	n/a	5	n/a	n/a	n/a	n/a	n/a	n/a
3773.352	n/a	RECOG_LURE	1886676	n/a	LTP183	ltpFR	1	5	n/a	HANGER	687	0	4	n/a	n/a	n/a	n/a	n/a	n/a
3775.148	n/a	RECOG_RESP	1887574	n/a	LTP183	ltpFR	1	5	n/a	HANGER	687	0	n/a	n/a	n/a	n/a	n/a	n/a	n/a
3778.332	n/a	RECOG_CONF	1889166	n/a	LTP183	ltpFR	1	5	n/a	HANGER	687	n/a	4	n/a	n/a	n/a	n/a	n/a	n/a
3781.248	n/a	RECOG_TARGET	1890624	n/a	LTP183	ltpFR	1	5	1	SWIMMER	1420	1	2	1	n/a	n/a	n/a	n/a	n/a
3785.114	n/a	RECOG_RESP	1892557	n/a	LTP183	ltpFR	1	5	1	SWIMMER	1420	1	n/a	1	n/a	n/a	n/a	n/a	n/a
3787.25	n/a	RECOG_CONF	1893625	n/a	LTP183	ltpFR	1	5	1	SWIMMER	1420	n/a	2	1	n/a	n/a	n/a	n/a	n/a
3790.05	n/a	RECOG_TARGET	1895025	n/a	LTP183	ltpFR	1	5	0	POSSUM	1112	1	5	1	n/a	n/a	n/a	n/a	n/a
3791.286	n/a	RECOG_RESP	1895643	n/a	LTP183	ltpFR	1	5	0	POSSUM	1112	1	n/a	1	n/a	n/a	n/a	n/a	n/a
3793.412	n/a	RECOG_CONF	1896706	n/a	LTP183	ltpFR	1	5	0	POSSUM	1112	n/a	5	1	n/a	n/a	n/a	n/a	n/a
3796.474	n/a	RECOG_TARGET	1898237	n/a	LTP183	ltpFR	1	5	-1	BOXER	160	0	1	-1	n/a	n/a	n/a	n/a	n/a
3799.178	n/a	RECOG_RESP	1899589	n/a	LTP183	ltpFR	1	5	-1	BOXER	160	0	n/a	-1	n/a	n/a	n/a	n/a	n/a
3801.35	n/a	RECOG_CONF	1900675	n/a	LTP183	ltpFR	1	5	-1	BOXER	160	n/a	1	-1	n/a	n/a	n/a	n/a	n/a
3804.22	n/a	RECOG_LURE	1902110	n/a	LTP183	ltpFR	1	5	n/a	BOOK	149	0	3	n/a	n/a	n/a	n/a	n/a	n/a
3806.482	n/a	RECOG_RESP	1903241	n/a	LTP183	ltpFR	1	5	n/a	BOOK	149	0	n/a	n/a	n/a	n/a	n/a	n/a	n/a
3808.93	n/a	RECOG_CONF	1904465	n/a	LTP183	ltpFR	1	5	n/a	BOOK	149	n/a	3	n/a	n/a	n/a	n/a	n/a	n/a
3811.616	n/a	RECOG_TARGET	1905808	n/a	LTP183	ltpFR	1	5	1	SAP	1233	1	5	1	n/a	n/a	n/a	n/a	n/a
3813.16	n/a	RECOG_RESP	1906580	n/a	LTP183	ltpFR	1	5	1	SAP	1233	1	n/a	1	n/a	n/a	n/a	n/a	n/a
3815.276	n/a	RECOG_CONF	1907638	n/a	LTP183	ltpFR	1	5	1	SAP	1233	n/a	5	1	n/a	n/a	n/a	n/a	n/a
3818.256	n/a	RECOG_LURE	1909128	n/a	LTP183	ltpFR	1	5	n/a	OVEN	991	0	5	n/a	n/a	n/a	n/a	n/a	n/a
3819.532	n/a	RECOG_RESP	1909766	n/a	LTP183	ltpFR	1	5	n/a	OVEN	991	0	n/a	n/a	n/a	n/a	n/a	n/a	n/a
3821.608	n/a	RECOG_CONF	1910804	n/a	LTP183	ltpFR	1	5	n/a	OVEN	991	n/a	5	n/a	n/a	n/a	n/a	n/a	n/a
3824.698	n/a	RECOG_TARGET	1912349	n/a	LTP183	ltpFR	1	5	-1	HOME	712	1	5	-1	n/a	n/a	n/a	n/a	n/a
3825.814	n/a	RECOG_RESP	1912907	n/a	LTP183	ltpFR	1	5	-1	HOME	712	1	n/a	-1	n/a	n/a	n/a	n/a	n/a
3828.428	n/a	RECOG_CONF	1914214	n/a	LTP183	ltpFR	1	5	-1	HOME	712	n/a	5	-1	n/a	n/a	n/a	n/a	n/a
3831.392	n/a	RECOG_TARGET	1915696	n/a	LTP183	ltpFR	1	5	0	STEW	1380	1	5	0	n/a	n/a	n/a	n/a	n/a
3833.814	n/a	RECOG_RESP	1916907	n/a	LTP183	ltpFR	1	5	0	STEW	1380	1	n/a	0	n/a	n/a	n/a	n/a	n/a
3835.794	n/a	RECOG_CONF	1917897	n/a	LTP183	ltpFR	1	5	0	STEW	1380	n/a	5	0	n/a	n/a	n/a	n/a	n/a
3839.14	n/a	RECOG_TARGET	1919570	n/a	LTP183	ltpFR	1	5	0	OFFICE	972	1	3	1	n/a	n/a	n/a	n/a	n/a
3840.54	n/a	RECOG_RESP	1920270	n/a	LTP183	ltpFR	1	5	0	OFFICE	972	1	n/a	1	n/a	n/a	n/a	n/a	n/a
3842.944	n/a	RECOG_CONF	1921472	n/a	LTP183	ltpFR	1	5	0	OFFICE	972	n/a	3	1	n/a	n/a	n/a	n/a	n/a
3846.08	n/a	RECOG_TARGET	1923040	n/a	LTP183	ltpFR	1	5	-1	MINK	897	1	5	-1	n/a	n/a	n/a	n/a	n/a
3847.488	n/a	RECOG_RESP	1923744	n/a	LTP183	ltpFR	1	5	-1	MINK	897	1	n/a	-1	n/a	n/a	n/a	n/a	n/a
3849.8	n/a	RECOG_CONF	1924900	n/a	LTP183	ltpFR	1	5	-1	MINK	897	n/a	5	-1	n/a	n/a	n/a	n/a	n/a
3852.956	n/a	RECOG_LURE	1926478	n/a	LTP183	ltpFR	1	5	n/a	SHRINE	1298	0	5	n/a	n/a	n/a	n/a	n/a	n/a
3854.388	n/a	RECOG_RESP	1927194	n/a	LTP183	ltpFR	1	5	n/a	SHRINE	1298	0	n/a	n/a	n/a	n/a	n/a	n/a	n/a
3856.64	n/a	RECOG_CONF	1928320	n/a	LTP183	ltpFR	1	5	n/a	SHRINE	1298	n/a	5	n/a	n/a	n/a	n/a	n/a	n/a
3865.826	n/a	REC_START	1932913	n/a	LTP183	ltpFR	1	6	n/a	n/a	n/a	n/a	n/a	n/a	n/a	n/a	n/a	n/a	n/a
3865.872	n/a	RECOG_LURE	1932936	n/a	LTP183	ltpFR	1	6	n/a	SIGN	1305	0	3	n/a	n/a	n/a	n/a	n/a	n/a
3867.724	n/a	RECOG_RESP	1933862	n/a	LTP183	ltpFR	1	6	n/a	SIGN	1305	0	n/a	n/a	n/a	n/a	n/a	n/a	n/a
3870.112	n/a	RECOG_CONF	1935056	n/a	LTP183	ltpFR	1	6	n/a	SIGN	1305	n/a	3	n/a	n/a	n/a	n/a	n/a	n/a
3872.666	n/a	RECOG_TARGET	1936333	n/a	LTP183	ltpFR	1	6	0	ZEBRA	1635	1	2	1	n/a	n/a	n/a	n/a	n/a
3874.348	n/a	RECOG_RESP	1937174	n/a	LTP183	ltpFR	1	6	0	ZEBRA	1635	1	n/a	1	n/a	n/a	n/a	n/a	n/a
3876.612	n/a	RECOG_CONF	1938306	n/a	LTP183	ltpFR	1	6	0	ZEBRA	1635	n/a	2	1	n/a	n/a	n/a	n/a	n/a
3879.156	n/a	RECOG_TARGET	1939578	n/a	LTP183	ltpFR	1	6	1	CAT	257	1	5	1	n/a	n/a	n/a	n/a	n/a
3880.262	n/a	RECOG_RESP	1940131	n/a	LTP183	ltpFR	1	6	1	CAT	257	1	n/a	1	n/a	n/a	n/a	n/a	n/a
3882.574	n/a	RECOG_CONF	1941287	n/a	LTP183	ltpFR	1	6	1	CAT	257	n/a	5	1	n/a	n/a	n/a	n/a	n/a
3885.162	n/a	RECOG_LURE	1942581	n/a	LTP183	ltpFR	1	6	n/a	OWL	992	0	5	n/a	n/a	n/a	n/a	n/a	n/a
3886.36	n/a	RECOG_RESP	1943180	n/a	LTP183	ltpFR	1	6	n/a	OWL	992	0	n/a	n/a	n/a	n/a	n/a	n/a	n/a
3888.76	n/a	RECOG_CONF	1944380	n/a	LTP183	ltpFR	1	6	n/a	OWL	992	n/a	5	n/a	n/a	n/a	n/a	n/a	n/a
3891.272	n/a	RECOG_LURE	1945636	n/a	LTP183	ltpFR	1	6	n/a	SIBLING	1301	0	5	n/a	n/a	n/a	n/a	n/a	n/a
3892.466	n/a	RECOG_RESP	1946233	n/a	LTP183	ltpFR	1	6	n/a	SIBLING	1301	0	n/a	n/a	n/a	n/a	n/a	n/a	n/a
3895.594	n/a	RECOG_CONF	1947797	n/a	LTP183	ltpFR	1	6	n/a	SIBLING	1301	n/a	5	n/a	n/a	n/a	n/a	n/a	n/a
3898.162	n/a	RECOG_TARGET	1949081	n/a	LTP183	ltpFR	1	6	1	PILOT	1070	0	2	1	n/a	n/a	n/a	n/a	n/a
3900.956	n/a	RECOG_RESP	1950478	n/a	LTP183	ltpFR	1	6	1	PILOT	1070	0	n/a	1	n/a	n/a	n/a	n/a	n/a
3902.88	n/a	RECOG_CONF	1951440	n/a	LTP183	ltpFR	1	6	1	PILOT	1070	n/a	2	1	n/a	n/a	n/a	n/a	n/a
3905.408	n/a	RECOG_TARGET	1952704	n/a	LTP183	ltpFR	1	6	-1	FREEZER	604	1	1	-1	n/a	n/a	n/a	n/a	n/a
3908.57	n/a	RECOG_RESP	1954285	n/a	LTP183	ltpFR	1	6	-1	FREEZER	604	1	n/a	-1	n/a	n/a	n/a	n/a	n/a
3910.578	n/a	RECOG_CONF	1955289	n/a	LTP183	ltpFR	1	6	-1	FREEZER	604	n/a	1	-1	n/a	n/a	n/a	n/a	n/a
3913.29	n/a	RECOG_TARGET	1956645	n/a	LTP183	ltpFR	1	6	0	MONEY	908	1	3	0	n/a	n/a	n/a	n/a	n/a
3914.872	n/a	RECOG_RESP	1957436	n/a	LTP183	ltpFR	1	6	0	MONEY	908	1	n/a	0	n/a	n/a	n/a	n/a	n/a
3917.2	n/a	RECOG_CONF	1958600	n/a	LTP183	ltpFR	1	6	0	MONEY	908	n/a	3	0	n/a	n/a	n/a	n/a	n/a
3920.032	n/a	RECOG_TARGET	1960016	n/a	LTP183	ltpFR	1	6	0	TEA	1439	1	5	0	n/a	n/a	n/a	n/a	n/a
3921.008	n/a	RECOG_RESP	1960504	n/a	LTP183	ltpFR	1	6	0	TEA	1439	1	n/a	0	n/a	n/a	n/a	n/a	n/a
3922.882	n/a	RECOG_CONF	1961441	n/a	LTP183	ltpFR	1	6	0	TEA	1439	n/a	5	0	n/a	n/a	n/a	n/a	n/a
3925.902	n/a	RECOG_LURE	1962951	n/a	LTP183	ltpFR	1	6	n/a	DOLPHIN	483	0	5	n/a	n/a	n/a	n/a	n/a	n/a
3927.272	n/a	RECOG_RESP	1963636	n/a	LTP183	ltpFR	1	6	n/a	DOLPHIN	483	0	n/a	n/a	n/a	n/a	n/a	n/a	n/a
3929.488	n/a	RECOG_CONF	1964744	n/a	LTP183	ltpFR	1	6	n/a	DOLPHIN	483	n/a	5	n/a	n/a	n/a	n/a	n/a	n/a
3931.96	n/a	RECOG_TARGET	1965980	n/a	LTP183	ltpFR	1	6	1	WAREHOUSE	1588	1	5	0	n/a	n/a	n/a	n/a	n/a
3933.62	n/a	RECOG_RESP	1966810	n/a	LTP183	ltpFR	1	6	1	WAREHOUSE	1588	1	n/a	0	n/a	n/a	n/a	n/a	n/a
3936.064	n/a	RECOG_CONF	1968032	n/a	LTP183	ltpFR	1	6	1	WAREHOUSE	1588	n/a	5	0	n/a	n/a	n/a	n/a	n/a
3938.868	n/a	RECOG_TARGET	1969434	n/a	LTP183	ltpFR	1	6	0	PORT	1110	0	2	1	n/a	n/a	n/a	n/a	n/a
3941.95	n/a	RECOG_RESP	1970975	n/a	LTP183	ltpFR	1	6	0	PORT	1110	0	n/a	1	n/a	n/a	n/a	n/a	n/a
3943.886	n/a	RECOG_CONF	1971943	n/a	LTP183	ltpFR	1	6	0	PORT	1110	n/a	2	1	n/a	n/a	n/a	n/a	n/a
3946.648	n/a	RECOG_TARGET	1973324	n/a	LTP183	ltpFR	1	6	0	HELMET	702	1	5	1	n/a	n/a	n/a	n/a	n/a
3947.89	n/a	RECOG_RESP	1973945	n/a	LTP183	ltpFR	1	6	0	HELMET	702	1	n/a	1	n/a	n/a	n/a	n/a	n/a
3949.808	n/a	RECOG_CONF	1974904	n/a	LTP183	ltpFR	1	6	0	HELMET	702	n/a	5	1	n/a	n/a	n/a	n/a	n/a
3952.756	n/a	RECOG_TARGET	1976378	n/a	LTP183	ltpFR	1	6	0	DESSERT	453	1	5	1	n/a	n/a	n/a	n/a	n/a
3954.026	n/a	RECOG_RESP	1977013	n/a	LTP183	ltpFR	1	6	0	DESSERT	453	1	n/a	1	n/a	n/a	n/a	n/a	n/a
3956.112	n/a	RECOG_CONF	1978056	n/a	LTP183	ltpFR	1	6	0	DESSERT	453	n/a	5	1	n/a	n/a	n/a	n/a	n/a
3959.228	n/a	RECOG_TARGET	1979614	n/a	LTP183	ltpFR	1	6	-1	DIAMOND	458	1	5	-1	n/a	n/a	n/a	n/a	n/a
3960.498	n/a	RECOG_RESP	1980249	n/a	LTP183	ltpFR	1	6	-1	DIAMOND	458	1	n/a	-1	n/a	n/a	n/a	n/a	n/a
3963.952	n/a	RECOG_CONF	1981976	n/a	LTP183	ltpFR	1	6	-1	DIAMOND	458	n/a	5	-1	n/a	n/a	n/a	n/a	n/a
3967.026	n/a	RECOG_TARGET	1983513	n/a	LTP183	ltpFR	1	6	1	TOOTHPASTE	1483	1	5	0	n/a	n/a	n/a	n/a	n/a
3968.208	n/a	RECOG_RESP	1984104	n/a	LTP183	ltpFR	1	6	1	TOOTHPASTE	1483	1	n/a	0	n/a	n/a	n/a	n/a	n/a
3971.092	n/a	RECOG_CONF	1985546	n/a	LTP183	ltpFR	1	6	1	TOOTHPASTE	1483	n/a	5	0	n/a	n/a	n/a	n/a	n/a
3974.304	n/a	RECOG_TARGET	1987152	n/a	LTP183	ltpFR	1	6	1	MOUTH	926	1	5	1	n/a	n/a	n/a	n/a	n/a
3975.818	n/a	RECOG_RESP	1987909	n/a	LTP183	ltpFR	1	6	1	MOUTH	926	1	n/a	1	n/a	n/a	n/a	n/a	n/a
3978.51	n/a	RECOG_CONF	1989255	n/a	LTP183	ltpFR	1	6	1	MOUTH	926	n/a	5	1	n/a	n/a	n/a	n/a	n/a
3981.298	n/a	RECOG_LURE	1990649	n/a	LTP183	ltpFR	1	6	n/a	BACK	65	0	5	n/a	n/a	n/a	n/a	n/a	n/a
3982.674	n/a	RECOG_RESP	1991337	n/a	LTP183	ltpFR	1	6	n/a	BACK	65	0	n/a	n/a	n/a	n/a	n/a	n/a	n/a
3985.054	n/a	RECOG_CONF	1992527	n/a	LTP183	ltpFR	1	6	n/a	BACK	65	n/a	5	n/a	n/a	n/a	n/a	n/a	n/a
3987.99	n/a	RECOG_TARGET	1993995	n/a	LTP183	ltpFR	1	6	0	TREE	1502	1	5	1	n/a	n/a	n/a	n/a	n/a
3989.234	n/a	RECOG_RESP	1994617	n/a	LTP183	ltpFR	1	6	0	TREE	1502	1	n/a	1	n/a	n/a	n/a	n/a	n/a
3991.612	n/a	RECOG_CONF	1995806	n/a	LTP183	ltpFR	1	6	0	TREE	1502	n/a	5	1	n/a	n/a	n/a	n/a	n/a
3994.686	n/a	RECOG_TARGET	1997343	n/a	LTP183	ltpFR	1	6	0	ROBE	1198	1	5	1	n/a	n/a	n/a	n/a	n/a
3995.812	n/a	RECOG_RESP	1997906	n/a	LTP183	ltpFR	1	6	0	ROBE	1198	1	n/a	1	n/a	n/a	n/a	n/a	n/a
3998.656	n/a	RECOG_CONF	1999328	n/a	LTP183	ltpFR	1	6	0	ROBE	1198	n/a	5	1	n/a	n/a	n/a	n/a	n/a
4008.864	n/a	REC_START	2004432	n/a	LTP183	ltpFR	1	7	n/a	n/a	n/a	n/a	n/a	n/a	n/a	n/a	n/a	n/a	n/a
4008.92	n/a	RECOG_TARGET	2004460	n/a	LTP183	ltpFR	1	7	1	STUDENT	1395	1	3	1	n/a	n/a	n/a	n/a	n/a
4010.892	n/a	RECOG_RESP	2005446	n/a	LTP183	ltpFR	1	7	1	STUDENT	1395	1	n/a	1	n/a	n/a	n/a	n/a	n/a
4013.042	n/a	RECOG_CONF	2006521	n/a	LTP183	ltpFR	1	7	1	STUDENT	1395	n/a	3	1	n/a	n/a	n/a	n/a	n/a
4015.578	n/a	RECOG_TARGET	2007789	n/a	LTP183	ltpFR	1	7	1	TOENAIL	1474	1	5	1	n/a	n/a	n/a	n/a	n/a
4017.054	n/a	RECOG_RESP	2008527	n/a	LTP183	ltpFR	1	7	1	TOENAIL	1474	1	n/a	1	n/a	n/a	n/a	n/a	n/a
4019.3	n/a	RECOG_CONF	2009650	n/a	LTP183	ltpFR	1	7	1	TOENAIL	1474	n/a	5	1	n/a	n/a	n/a	n/a	n/a
4022.204	n/a	RECOG_LURE	2011102	n/a	LTP183	ltpFR	1	7	n/a	PRINTER	1126	0	2	n/a	n/a	n/a	n/a	n/a	n/a
4023.824	n/a	RECOG_RESP	2011912	n/a	LTP183	ltpFR	1	7	n/a	PRINTER	1126	0	n/a	n/a	n/a	n/a	n/a	n/a	n/a
4026.256	n/a	RECOG_CONF	2013128	n/a	LTP183	ltpFR	1	7	n/a	PRINTER	1126	n/a	2	n/a	n/a	n/a	n/a	n/a	n/a
4028.696	n/a	RECOG_LURE	2014348	n/a	LTP183	ltpFR	1	7	n/a	STREAM	1392	0	3	n/a	n/a	n/a	n/a	n/a	n/a
4030.634	n/a	RECOG_RESP	2015317	n/a	LTP183	ltpFR	1	7	n/a	STREAM	1392	0	n/a	n/a	n/a	n/a	n/a	n/a	n/a
4032.876	n/a	RECOG_CONF	2016438	n/a	LTP183	ltpFR	1	7	n/a	STREAM	1392	n/a	3	n/a	n/a	n/a	n/a	n/a	n/a
4035.42	n/a	RECOG_TARGET	2017710	n/a	LTP183	ltpFR	1	7	-1	PEPPER	1047	1	5	-1	n/a	n/a	n/a	n/a	n/a
4036.854	n/a	RECOG_RESP	2018427	n/a	LTP183	ltpFR	1	7	-1	PEPPER	1047	1	n/a	-1	n/a	n/a	n/a	n/a	n/a
4038.884	n/a	RECOG_CONF	2019442	n/a	LTP183	ltpFR	1	7	-1	PEPPER	1047	n/a	5	-1	n/a	n/a	n/a	n/a	n/a
4042.046	n/a	RECOG_TARGET	2021023	n/a	LTP183	ltpFR	1	7	1	JEEP	753	1	4	0	n/a	n/a	n/a	n/a	n/a
4043.658	n/a	RECOG_RESP	2021829	n/a	LTP183	ltpFR	1	7	1	JEEP	753	1	n/a	0	n/a	n/a	n/a	n/a	n/a
4045.952	n/a	RECOG_CONF	2022976	n/a	LTP183	ltpFR	1	7	1	JEEP	753	n/a	4	0	n/a	n/a	n/a	n/a	n/a
4048.872	n/a	RECOG_TARGET	2024436	n/a	LTP183	ltpFR	1	7	0	MONGOOSE	909	1	5	1	n/a	n/a	n/a	n/a	n/a
4050.296	n/a	RECOG_RESP	2025148	n/a	LTP183	ltpFR	1	7	0	MONGOOSE	909	1	n/a	1	n/a	n/a	n/a	n/a	n/a
4052.822	n/a	RECOG_CONF	2026411	n/a	LTP183	ltpFR	1	7	0	MONGOOSE	909	n/a	5	1	n/a	n/a	n/a	n/a	n/a
4055.816	n/a	RECOG_TARGET	2027908	n/a	LTP183	ltpFR	1	7	0	APE	31	1	5	1	n/a	n/a	n/a	n/a	n/a
4056.94	n/a	RECOG_RESP	2028470	n/a	LTP183	ltpFR	1	7	0	APE	31	1	n/a	1	n/a	n/a	n/a	n/a	n/a
4059.112	n/a	RECOG_CONF	2029556	n/a	LTP183	ltpFR	1	7	0	APE	31	n/a	5	1	n/a	n/a	n/a	n/a	n/a
4062.272	n/a	RECOG_TARGET	2031136	n/a	LTP183	ltpFR	1	7	0	CANDY	230	0	3	0	n/a	n/a	n/a	n/a	n/a
4064.472	n/a	RECOG_RESP	2032236	n/a	LTP183	ltpFR	1	7	0	CANDY	230	0	n/a	0	n/a	n/a	n/a	n/a	n/a
4066.486	n/a	RECOG_CONF	2033243	n/a	LTP183	ltpFR	1	7	0	CANDY	230	n/a	3	0	n/a	n/a	n/a	n/a	n/a
4069.434	n/a	RECOG_TARGET	2034717	n/a	LTP183	ltpFR	1	7	0	SLOPE	1328	1	5	1	n/a	n/a	n/a	n/a	n/a
4070.618	n/a	RECOG_RESP	2035309	n/a	LTP183	ltpFR	1	7	0	SLOPE	1328	1	n/a	1	n/a	n/a	n/a	n/a	n/a
4072.33	n/a	RECOG_CONF	2036165	n/a	LTP183	ltpFR	1	7	0	SLOPE	1328	n/a	5	1	n/a	n/a	n/a	n/a	n/a
4075.276	n/a	RECOG_TARGET	2037638	n/a	LTP183	ltpFR	1	7	1	ROPE	1211	1	2	0	n/a	n/a	n/a	n/a	n/a
4077.792	n/a	RECOG_RESP	2038896	n/a	LTP183	ltpFR	1	7	1	ROPE	1211	1	n/a	0	n/a	n/a	n/a	n/a	n/a
4079.634	n/a	RECOG_CONF	2039817	n/a	LTP183	ltpFR	1	7	1	ROPE	1211	n/a	2	0	n/a	n/a	n/a	n/a	n/a
4082.42	n/a	RECOG_TARGET	2041210	n/a	LTP183	ltpFR	1	7	1	TIGER	1467	1	4	1	n/a	n/a	n/a	n/a	n/a
4083.668	n/a	RECOG_RESP	2041834	n/a	LTP183	ltpFR	1	7	1	TIGER	1467	1	n/a	1	n/a	n/a	n/a	n/a	n/a
4085.868	n/a	RECOG_CONF	2042934	n/a	LTP183	ltpFR	1	7	1	TIGER	1467	n/a	4	1	n/a	n/a	n/a	n/a	n/a
