mstime	trial_type	stim_file	subject	experiment	session	trial	item_name	item_num	list	answer	test_x	test_y	test_z
0	SESS_START	n/a	LTP341	ltpFR2	7	n/a	n/a	n/a	n/a	n/a	0	0	0
26641	START	n/a	LTP341	ltpFR2	7	n/a	n/a	n/a	-1	n/a	n/a	n/a	n/a
26655	PROB	n/a	LTP341	ltpFR2	7	n/a	n/a	n/a	-1	17	7	8	2
29453	PROB	n/a	LTP341	ltpFR2	7	n/a	n/a	n/a	-1	14	3	9	2
31203	PROB	n/a	LTP341	ltpFR2	7	n/a	n/a	n/a	-1	16	6	3	7
33635	PROB	n/a	LTP341	ltpFR2	7	n/a	n/a	n/a	-1	8	3	1	4
34784	PROB	n/a	LTP341	ltpFR2	7	n/a	n/a	n/a	-1	17	9	1	7
35867	PROB	n/a	LTP341	ltpFR2	7	n/a	n/a	n/a	-1	2	5	8	9
37369	STOP	n/a	LTP341	ltpFR2	7	n/a	n/a	n/a	-1	n/a	n/a	n/a	n/a
84962	DISTRACTOR	n/a	LTP341	ltpFR2	7	1	n/a	n/a	n/a	n/a	0	0	0
84962	START	n/a	LTP341	ltpFR2	7	n/a	n/a	n/a	1	n/a	n/a	n/a	n/a
84978	PROB	n/a	LTP341	ltpFR2	7	n/a	n/a	n/a	1	13	3	2	8
87211	PROB	n/a	LTP341	ltpFR2	7	n/a	n/a	n/a	1	9	1	3	5
88627	PROB	n/a	LTP341	ltpFR2	7	n/a	n/a	n/a	1	13	3	8	2
89593	PROB	n/a	LTP341	ltpFR2	7	n/a	n/a	n/a	1	1	6	5	5
90892	PROB	n/a	LTP341	ltpFR2	7	n/a	n/a	n/a	1	8	2	3	3
92308	PROB	n/a	LTP341	ltpFR2	7	n/a	n/a	n/a	1	21	6	6	9
94042	PROB	n/a	LTP341	ltpFR2	7	n/a	n/a	n/a	1	19	8	4	7
95407	PROB	n/a	LTP341	ltpFR2	7	n/a	n/a	n/a	1	17	1	8	8
96856	PROB	n/a	LTP341	ltpFR2	7	n/a	n/a	n/a	1	12	1	6	5
97739	PROB	n/a	LTP341	ltpFR2	7	n/a	n/a	n/a	1	10	3	4	3
99238	PROB	n/a	LTP341	ltpFR2	7	n/a	n/a	n/a	1	25	9	7	9
101055	PROB	n/a	LTP341	ltpFR2	7	n/a	n/a	n/a	1	18	8	4	6
103003	PROB	n/a	LTP341	ltpFR2	7	n/a	n/a	n/a	1	10	8	1	1
103953	PROB	n/a	LTP341	ltpFR2	7	n/a	n/a	n/a	1	5	1	3	1
104903	PROB	n/a	LTP341	ltpFR2	7	n/a	n/a	n/a	1	14	4	4	6
105935	PROB	n/a	LTP341	ltpFR2	7	n/a	n/a	n/a	1	13	3	7	2
106935	PROB	n/a	LTP341	ltpFR2	7	n/a	n/a	n/a	1	4	5	1	8
108020	STOP	n/a	LTP341	ltpFR2	7	n/a	n/a	n/a	1	n/a	n/a	n/a	n/a
110068	WORD	wordpools/wasnorm_wordpool_576.txt	LTP341	ltpFR2	7	1	MISTER	901	n/a	n/a	0	0	0
112632	WORD	wordpools/wasnorm_wordpool_576.txt	LTP341	ltpFR2	7	1	ROOSTER	1209	n/a	n/a	0	0	0
115248	WORD	wordpools/wasnorm_wordpool_576.txt	LTP341	ltpFR2	7	1	BUREAU	199	n/a	n/a	0	0	0
117897	WORD	wordpools/wasnorm_wordpool_576.txt	LTP341	ltpFR2	7	1	SPIDER	1351	n/a	n/a	0	0	0
120429	WORD	wordpools/wasnorm_wordpool_576.txt	LTP341	ltpFR2	7	1	MASK	876	n/a	n/a	0	0	0
123012	WORD	wordpools/wasnorm_wordpool_576.txt	LTP341	ltpFR2	7	1	FOREHEAD	592	n/a	n/a	0	0	0
125610	WORD	wordpools/wasnorm_wordpool_576.txt	LTP341	ltpFR2	7	1	SKILLET	1317	n/a	n/a	0	0	0
128309	WORD	wordpools/wasnorm_wordpool_576.txt	LTP341	ltpFR2	7	1	HAWK	692	n/a	n/a	0	0	0
131074	WORD	wordpools/wasnorm_wordpool_576.txt	LTP341	ltpFR2	7	1	PENGUIN	1044	n/a	n/a	0	0	0
133806	WORD	wordpools/wasnorm_wordpool_576.txt	LTP341	ltpFR2	7	1	ROD	1203	n/a	n/a	0	0	0
136272	WORD	wordpools/wasnorm_wordpool_576.txt	LTP341	ltpFR2	7	1	CRITIC	410	n/a	n/a	0	0	0
138920	WORD	wordpools/wasnorm_wordpool_576.txt	LTP341	ltpFR2	7	1	CREATURE	403	n/a	n/a	0	0	0
141736	WORD	wordpools/wasnorm_wordpool_576.txt	LTP341	ltpFR2	7	1	BEAKER	104	n/a	n/a	0	0	0
144468	WORD	wordpools/wasnorm_wordpool_576.txt	LTP341	ltpFR2	7	1	MUSTARD	935	n/a	n/a	0	0	0
147250	WORD	wordpools/wasnorm_wordpool_576.txt	LTP341	ltpFR2	7	1	BOX	159	n/a	n/a	0	0	0
149815	WORD	wordpools/wasnorm_wordpool_576.txt	LTP341	ltpFR2	7	1	OUTFIT	988	n/a	n/a	0	0	0
152414	WORD	wordpools/wasnorm_wordpool_576.txt	LTP341	ltpFR2	7	1	GALLON	618	n/a	n/a	0	0	0
155064	WORD	wordpools/wasnorm_wordpool_576.txt	LTP341	ltpFR2	7	1	FIREMAN	569	n/a	n/a	0	0	0
157762	WORD	wordpools/wasnorm_wordpool_576.txt	LTP341	ltpFR2	7	1	BREAST	171	n/a	n/a	0	0	0
160277	WORD	wordpools/wasnorm_wordpool_576.txt	LTP341	ltpFR2	7	1	TABLE	1426	n/a	n/a	0	0	0
162710	WORD	wordpools/wasnorm_wordpool_576.txt	LTP341	ltpFR2	7	1	PORK	1108	n/a	n/a	0	0	0
165292	WORD	wordpools/wasnorm_wordpool_576.txt	LTP341	ltpFR2	7	1	PRINCE	1124	n/a	n/a	0	0	0
167891	WORD	wordpools/wasnorm_wordpool_576.txt	LTP341	ltpFR2	7	1	SCALPEL	1243	n/a	n/a	0	0	0
170539	WORD	wordpools/wasnorm_wordpool_576.txt	LTP341	ltpFR2	7	1	ROCKET	1202	n/a	n/a	0	0	0
172156	START	n/a	LTP341	ltpFR2	7	n/a	n/a	n/a	2	n/a	n/a	n/a	n/a
173112	DISTRACTOR	n/a	LTP341	ltpFR2	7	1	n/a	n/a	n/a	n/a	0	0	0
173122	PROB	n/a	LTP341	ltpFR2	7	n/a	n/a	n/a	2	14	7	1	7
175004	PROB	n/a	LTP341	ltpFR2	7	n/a	n/a	n/a	2	14	6	2	6
177103	PROB	n/a	LTP341	ltpFR2	7	n/a	n/a	n/a	2	9	5	2	2
181651	PROB	n/a	LTP341	ltpFR2	7	n/a	n/a	n/a	2	18	9	5	4
184583	PROB	n/a	LTP341	ltpFR2	7	n/a	n/a	n/a	2	17	3	9	5
186249	PROB	n/a	LTP341	ltpFR2	7	n/a	n/a	n/a	2	15	4	2	9
187382	PROB	n/a	LTP341	ltpFR2	7	n/a	n/a	n/a	2	21	8	5	8
189264	PROB	n/a	LTP341	ltpFR2	7	n/a	n/a	n/a	2	8	1	5	2
190664	PROB	n/a	LTP341	ltpFR2	7	n/a	n/a	n/a	2	21	8	8	5
191780	PROB	n/a	LTP341	ltpFR2	7	n/a	n/a	n/a	2	18	7	3	8
193246	PROB	n/a	LTP341	ltpFR2	7	n/a	n/a	n/a	2	14	3	3	8
194694	STOP	n/a	LTP341	ltpFR2	7	n/a	n/a	n/a	2	n/a	n/a	n/a	n/a
197961	REC_START	n/a	LTP341	ltpFR2	7	1	n/a	n/a	n/a	n/a	0	0	0
198342	REC_WORD	wordpools/wasnorm_wordpool_576.txt	LTP341	ltpFR2	7	1	BREAST	171	n/a	n/a	0	0	0
198912	REC_WORD	wordpools/wasnorm_wordpool_576.txt	LTP341	ltpFR2	7	1	TABLE	1426	n/a	n/a	0	0	0
199403	REC_WORD	wordpools/wasnorm_wordpool_576.txt	LTP341	ltpFR2	7	1	PORK	1108	n/a	n/a	0	0	0
200045	REC_WORD	wordpools/wasnorm_wordpool_576.txt	LTP341	ltpFR2	7	1	PRINCE	1124	n/a	n/a	0	0	0
200608	REC_WORD	wordpools/wasnorm_wordpool_576.txt	LTP341	ltpFR2	7	1	SCALPEL	1243	n/a	n/a	0	0	0
201368	REC_WORD	wordpools/wasnorm_wordpool_576.txt	LTP341	ltpFR2	7	1	ROCKET	1202	n/a	n/a	0	0	0
203977	REC_WORD	wordpools/wasnorm_wordpool_576.txt	LTP341	ltpFR2	7	1	ROOSTER	1209	n/a	n/a	0	0	0
205609	REC_WORD	wordpools/wasnorm_wordpool_576.txt	LTP341	ltpFR2	7	1	MASK	876	n/a	n/a	0	0	0
207402	REC_WORD	wordpools/wasnorm_wordpool_576.txt	LTP341	ltpFR2	7	1	MISTER	901	n/a	n/a	0	0	0
242409	REC_WORD	wordpools/wasnorm_wordpool_576.txt	LTP341	ltpFR2	7	1	SPIDER	1351	n/a	n/a	0	0	0
288386	DISTRACTOR	n/a	LTP341	ltpFR2	7	2	n/a	n/a	n/a	n/a	0	0	0
288386	START	n/a	LTP341	ltpFR2	7	n/a	n/a	n/a	3	n/a	n/a	n/a	n/a
288402	PROB	n/a	LTP341	ltpFR2	7	n/a	n/a	n/a	3	21	5	7	9
290135	PROB	n/a	LTP341	ltpFR2	7	n/a	n/a	n/a	3	14	8	3	1
291118	PROB	n/a	LTP341	ltpFR2	7	n/a	n/a	n/a	3	13	3	5	5
292217	PROB	n/a	LTP341	ltpFR2	7	n/a	n/a	n/a	3	14	2	7	5
293484	PROB	n/a	LTP341	ltpFR2	7	n/a	n/a	n/a	3	19	5	9	5
294800	PROB	n/a	LTP341	ltpFR2	7	n/a	n/a	n/a	3	11	2	1	8
295882	PROB	n/a	LTP341	ltpFR2	7	n/a	n/a	n/a	3	16	1	8	7
297082	PROB	n/a	LTP341	ltpFR2	7	n/a	n/a	n/a	3	25	7	9	9
298681	PROB	n/a	LTP341	ltpFR2	7	n/a	n/a	n/a	3	9	1	2	6
299781	PROB	n/a	LTP341	ltpFR2	7	n/a	n/a	n/a	3	7	1	1	5
301297	PROB	n/a	LTP341	ltpFR2	7	n/a	n/a	n/a	3	18	6	4	8
302446	PROB	n/a	LTP341	ltpFR2	7	n/a	n/a	n/a	3	11	1	4	6
303562	PROB	n/a	LTP341	ltpFR2	7	n/a	n/a	n/a	3	19	9	6	4
304962	PROB	n/a	LTP341	ltpFR2	7	n/a	n/a	n/a	3	19	6	8	5
306728	PROB	n/a	LTP341	ltpFR2	7	n/a	n/a	n/a	3	14	9	3	2
307994	PROB	n/a	LTP341	ltpFR2	7	n/a	n/a	n/a	3	7	5	1	1
309027	PROB	n/a	LTP341	ltpFR2	7	n/a	n/a	n/a	3	13	4	3	6
310259	PROB	n/a	LTP341	ltpFR2	7	n/a	n/a	n/a	3	14	4	2	8
311985	STOP	n/a	LTP341	ltpFR2	7	n/a	n/a	n/a	3	n/a	n/a	n/a	n/a
313491	WORD	wordpools/wasnorm_wordpool_576.txt	LTP341	ltpFR2	7	2	FLESH	579	n/a	n/a	0	0	0
316256	WORD	wordpools/wasnorm_wordpool_576.txt	LTP341	ltpFR2	7	2	SPOOL	1356	n/a	n/a	0	0	0
318872	WORD	wordpools/wasnorm_wordpool_576.txt	LTP341	ltpFR2	7	2	STAPLE	1371	n/a	n/a	0	0	0
321537	WORD	wordpools/wasnorm_wordpool_576.txt	LTP341	ltpFR2	7	2	INMATE	738	n/a	n/a	0	0	0
324286	WORD	wordpools/wasnorm_wordpool_576.txt	LTP341	ltpFR2	7	2	FRANCE	601	n/a	n/a	0	0	0
326902	WORD	wordpools/wasnorm_wordpool_576.txt	LTP341	ltpFR2	7	2	CANAL	226	n/a	n/a	0	0	0
329584	WORD	wordpools/wasnorm_wordpool_576.txt	LTP341	ltpFR2	7	2	RAFT	1159	n/a	n/a	0	0	0
332266	WORD	wordpools/wasnorm_wordpool_576.txt	LTP341	ltpFR2	7	2	WRENCH	1625	n/a	n/a	0	0	0
334781	WORD	wordpools/wasnorm_wordpool_576.txt	LTP341	ltpFR2	7	2	POISON	1096	n/a	n/a	0	0	0
337414	WORD	wordpools/wasnorm_wordpool_576.txt	LTP341	ltpFR2	7	2	CHEST	295	n/a	n/a	0	0	0
340162	WORD	wordpools/wasnorm_wordpool_576.txt	LTP341	ltpFR2	7	2	GLOVE	642	n/a	n/a	0	0	0
342778	WORD	wordpools/wasnorm_wordpool_576.txt	LTP341	ltpFR2	7	2	FLOWER	584	n/a	n/a	0	0	0
345393	WORD	wordpools/wasnorm_wordpool_576.txt	LTP341	ltpFR2	7	2	PERFUME	1049	n/a	n/a	0	0	0
347959	WORD	wordpools/wasnorm_wordpool_576.txt	LTP341	ltpFR2	7	2	CROWN	415	n/a	n/a	0	0	0
350724	WORD	wordpools/wasnorm_wordpool_576.txt	LTP341	ltpFR2	7	2	APPLE	33	n/a	n/a	0	0	0
353323	WORD	wordpools/wasnorm_wordpool_576.txt	LTP341	ltpFR2	7	2	PECAN	1036	n/a	n/a	0	0	0
356056	WORD	wordpools/wasnorm_wordpool_576.txt	LTP341	ltpFR2	7	2	PRINCESS	1125	n/a	n/a	0	0	0
358854	WORD	wordpools/wasnorm_wordpool_576.txt	LTP341	ltpFR2	7	2	COFFEE	341	n/a	n/a	0	0	0
361453	WORD	wordpools/wasnorm_wordpool_576.txt	LTP341	ltpFR2	7	2	COBRA	336	n/a	n/a	0	0	0
364185	WORD	wordpools/wasnorm_wordpool_576.txt	LTP341	ltpFR2	7	2	CEILING	265	n/a	n/a	0	0	0
366684	WORD	wordpools/wasnorm_wordpool_576.txt	LTP341	ltpFR2	7	2	BARLEY	88	n/a	n/a	0	0	0
369183	WORD	wordpools/wasnorm_wordpool_576.txt	LTP341	ltpFR2	7	2	PEPPER	1047	n/a	n/a	0	0	0
371998	WORD	wordpools/wasnorm_wordpool_576.txt	LTP341	ltpFR2	7	2	SOFTBALL	1343	n/a	n/a	0	0	0
374630	WORD	wordpools/wasnorm_wordpool_576.txt	LTP341	ltpFR2	7	2	CRICKET	408	n/a	n/a	0	0	0
376246	START	n/a	LTP341	ltpFR2	7	n/a	n/a	n/a	4	n/a	n/a	n/a	n/a
377217	DISTRACTOR	n/a	LTP341	ltpFR2	7	2	n/a	n/a	n/a	n/a	0	0	0
377229	PROB	n/a	LTP341	ltpFR2	7	n/a	n/a	n/a	4	17	4	6	7
379428	PROB	n/a	LTP341	ltpFR2	7	n/a	n/a	n/a	4	23	9	8	6
382909	PROB	n/a	LTP341	ltpFR2	7	n/a	n/a	n/a	4	13	1	3	9
383792	PROB	n/a	LTP341	ltpFR2	7	n/a	n/a	n/a	4	8	5	2	1
384975	PROB	n/a	LTP341	ltpFR2	7	n/a	n/a	n/a	4	1	5	8	2
386375	PROB	n/a	LTP341	ltpFR2	7	n/a	n/a	n/a	4	14	3	6	5
387707	PROB	n/a	LTP341	ltpFR2	7	n/a	n/a	n/a	4	15	8	5	2
388990	PROB	n/a	LTP341	ltpFR2	7	n/a	n/a	n/a	4	18	2	7	9
390340	PROB	n/a	LTP341	ltpFR2	7	n/a	n/a	n/a	4	20	7	9	4
391772	PROB	n/a	LTP341	ltpFR2	7	n/a	n/a	n/a	4	18	7	9	2
393188	PROB	n/a	LTP341	ltpFR2	7	n/a	n/a	n/a	4	16	2	7	7
394854	PROB	n/a	LTP341	ltpFR2	7	n/a	n/a	n/a	4	10	3	4	3
396170	PROB	n/a	LTP341	ltpFR2	7	n/a	n/a	n/a	4	15	4	2	9
400246	STOP	n/a	LTP341	ltpFR2	7	n/a	n/a	n/a	4	n/a	n/a	n/a	n/a
402036	REC_START	n/a	LTP341	ltpFR2	7	2	n/a	n/a	n/a	n/a	0	0	0
402807	REC_WORD	wordpools/wasnorm_wordpool_576.txt	LTP341	ltpFR2	7	2	COBRA	336	n/a	n/a	0	0	0
404281	REC_WORD	wordpools/wasnorm_wordpool_576.txt	LTP341	ltpFR2	7	2	SCALPEL	1243	n/a	n/a	0	0	0
405459	REC_WORD	wordpools/wasnorm_wordpool_576.txt	LTP341	ltpFR2	7	2	INMATE	738	n/a	n/a	0	0	0
406136	REC_WORD	wordpools/wasnorm_wordpool_576.txt	LTP341	ltpFR2	7	2	FRANCE	601	n/a	n/a	0	0	0
407231	REC_WORD	wordpools/wasnorm_wordpool_576.txt	LTP341	ltpFR2	7	2	FLOWER	584	n/a	n/a	0	0	0
408693	REC_WORD	wordpools/wasnorm_wordpool_576.txt	LTP341	ltpFR2	7	2	PERFUME	1049	n/a	n/a	0	0	0
409865	REC_WORD	wordpools/wasnorm_wordpool_576.txt	LTP341	ltpFR2	7	2	PRINCESS	1125	n/a	n/a	0	0	0
414589	REC_WORD	wordpools/wasnorm_wordpool_576.txt	LTP341	ltpFR2	7	2	CROWN	415	n/a	n/a	0	0	0
416435	REC_WORD	wordpools/wasnorm_wordpool_576.txt	LTP341	ltpFR2	7	2	STAPLE	1371	n/a	n/a	0	0	0
419842	REC_WORD	wordpools/wasnorm_wordpool_576.txt	LTP341	ltpFR2	7	2	FRESH	-1	n/a	n/a	0	0	0
423748	REC_WORD	wordpools/wasnorm_wordpool_576.txt	LTP341	ltpFR2	7	2	CHEST	295	n/a	n/a	0	0	0
425332	REC_WORD	wordpools/wasnorm_wordpool_576.txt	LTP341	ltpFR2	7	2	POISON	1096	n/a	n/a	0	0	0
492460	DISTRACTOR	n/a	LTP341	ltpFR2	7	3	n/a	n/a	n/a	n/a	0	0	0
492460	START	n/a	LTP341	ltpFR2	7	n/a	n/a	n/a	5	n/a	n/a	n/a	n/a
492476	PROB	n/a	LTP341	ltpFR2	7	n/a	n/a	n/a	5	17	6	6	5
494109	PROB	n/a	LTP341	ltpFR2	7	n/a	n/a	n/a	5	19	6	4	9
495592	PROB	n/a	LTP341	ltpFR2	7	n/a	n/a	n/a	5	19	7	8	4
497009	PROB	n/a	LTP341	ltpFR2	7	n/a	n/a	n/a	5	18	8	4	6
498207	PROB	n/a	LTP341	ltpFR2	7	n/a	n/a	n/a	5	16	4	8	4
500007	PROB	n/a	LTP341	ltpFR2	7	n/a	n/a	n/a	5	14	8	3	3
501206	PROB	n/a	LTP341	ltpFR2	7	n/a	n/a	n/a	5	10	1	8	1
502272	PROB	n/a	LTP341	ltpFR2	7	n/a	n/a	n/a	5	18	7	9	2
504388	PROB	n/a	LTP341	ltpFR2	7	n/a	n/a	n/a	5	20	6	5	9
505537	PROB	n/a	LTP341	ltpFR2	7	n/a	n/a	n/a	5	17	7	6	4
507038	PROB	n/a	LTP341	ltpFR2	7	n/a	n/a	n/a	5	16	6	6	4
508486	PROB	n/a	LTP341	ltpFR2	7	n/a	n/a	n/a	5	23	9	9	5
510118	PROB	n/a	LTP341	ltpFR2	7	n/a	n/a	n/a	5	12	2	8	2
511268	PROB	n/a	LTP341	ltpFR2	7	n/a	n/a	n/a	5	7	3	1	3
512617	PROB	n/a	LTP341	ltpFR2	7	n/a	n/a	n/a	5	17	7	3	7
513983	PROB	n/a	LTP341	ltpFR2	7	n/a	n/a	n/a	5	18	8	6	4
515151	STOP	n/a	LTP341	ltpFR2	7	n/a	n/a	n/a	5	n/a	n/a	n/a	n/a
517382	WORD	wordpools/wasnorm_wordpool_576.txt	LTP341	ltpFR2	7	3	PIGMENT	1066	n/a	n/a	0	0	0
519814	WORD	wordpools/wasnorm_wordpool_576.txt	LTP341	ltpFR2	7	3	DONOR	485	n/a	n/a	0	0	0
522363	WORD	wordpools/wasnorm_wordpool_576.txt	LTP341	ltpFR2	7	3	QUEEN	1149	n/a	n/a	0	0	0
525046	WORD	wordpools/wasnorm_wordpool_576.txt	LTP341	ltpFR2	7	3	JAPAN	749	n/a	n/a	0	0	0
527744	WORD	wordpools/wasnorm_wordpool_576.txt	LTP341	ltpFR2	7	3	EUROPE	541	n/a	n/a	0	0	0
530426	WORD	wordpools/wasnorm_wordpool_576.txt	LTP341	ltpFR2	7	3	CHAUFFEUR	283	n/a	n/a	0	0	0
533208	WORD	wordpools/wasnorm_wordpool_576.txt	LTP341	ltpFR2	7	3	TART	1436	n/a	n/a	0	0	0
535990	WORD	wordpools/wasnorm_wordpool_576.txt	LTP341	ltpFR2	7	3	SODA	1341	n/a	n/a	0	0	0
538472	WORD	wordpools/wasnorm_wordpool_576.txt	LTP341	ltpFR2	7	3	RUST	1219	n/a	n/a	0	0	0
540988	WORD	wordpools/wasnorm_wordpool_576.txt	LTP341	ltpFR2	7	3	HUSBAND	728	n/a	n/a	0	0	0
543803	WORD	wordpools/wasnorm_wordpool_576.txt	LTP341	ltpFR2	7	3	LAVA	804	n/a	n/a	0	0	0
546568	WORD	wordpools/wasnorm_wordpool_576.txt	LTP341	ltpFR2	7	3	SHELF	1280	n/a	n/a	0	0	0
549134	WORD	wordpools/wasnorm_wordpool_576.txt	LTP341	ltpFR2	7	3	MOTOR	922	n/a	n/a	0	0	0
551816	WORD	wordpools/wasnorm_wordpool_576.txt	LTP341	ltpFR2	7	3	PISTON	1076	n/a	n/a	0	0	0
554448	WORD	wordpools/wasnorm_wordpool_576.txt	LTP341	ltpFR2	7	3	DRAWING	494	n/a	n/a	0	0	0
557264	WORD	wordpools/wasnorm_wordpool_576.txt	LTP341	ltpFR2	7	3	FREEZER	604	n/a	n/a	0	0	0
559879	WORD	wordpools/wasnorm_wordpool_576.txt	LTP341	ltpFR2	7	3	FLAG	573	n/a	n/a	0	0	0
562461	WORD	wordpools/wasnorm_wordpool_576.txt	LTP341	ltpFR2	7	3	CHIPMUNK	304	n/a	n/a	0	0	0
565227	WORD	wordpools/wasnorm_wordpool_576.txt	LTP341	ltpFR2	7	3	POSSUM	1112	n/a	n/a	0	0	0
567759	WORD	wordpools/wasnorm_wordpool_576.txt	LTP341	ltpFR2	7	3	COOKBOOK	373	n/a	n/a	0	0	0
570241	WORD	wordpools/wasnorm_wordpool_576.txt	LTP341	ltpFR2	7	3	WARDROBE	1587	n/a	n/a	0	0	0
572840	WORD	wordpools/wasnorm_wordpool_576.txt	LTP341	ltpFR2	7	3	FLUTE	585	n/a	n/a	0	0	0
575589	WORD	wordpools/wasnorm_wordpool_576.txt	LTP341	ltpFR2	7	3	DASHBOARD	441	n/a	n/a	0	0	0
578022	WORD	wordpools/wasnorm_wordpool_576.txt	LTP341	ltpFR2	7	3	CASHEW	253	n/a	n/a	0	0	0
579637	START	n/a	LTP341	ltpFR2	7	n/a	n/a	n/a	6	n/a	n/a	n/a	n/a
580676	DISTRACTOR	n/a	LTP341	ltpFR2	7	3	n/a	n/a	n/a	n/a	0	0	0
580686	PROB	n/a	LTP341	ltpFR2	7	n/a	n/a	n/a	6	19	9	6	4
582985	PROB	n/a	LTP341	ltpFR2	7	n/a	n/a	n/a	6	11	2	2	7
583935	PROB	n/a	LTP341	ltpFR2	7	n/a	n/a	n/a	6	10	1	5	4
585052	PROB	n/a	LTP341	ltpFR2	7	n/a	n/a	n/a	6	11	3	7	1
585934	PROB	n/a	LTP341	ltpFR2	7	n/a	n/a	n/a	6	16	3	5	8
587317	PROB	n/a	LTP341	ltpFR2	7	n/a	n/a	n/a	6	1	4	8	9
588300	PROB	n/a	LTP341	ltpFR2	7	n/a	n/a	n/a	6	25	9	7	9
590582	PROB	n/a	LTP341	ltpFR2	7	n/a	n/a	n/a	6	17	2	8	7
591881	PROB	n/a	LTP341	ltpFR2	7	n/a	n/a	n/a	6	17	5	5	7
593048	PROB	n/a	LTP341	ltpFR2	7	n/a	n/a	n/a	6	15	6	2	7
594413	PROB	n/a	LTP341	ltpFR2	7	n/a	n/a	n/a	6	14	6	6	2
595613	PROB	n/a	LTP341	ltpFR2	7	n/a	n/a	n/a	6	8	1	1	6
597196	PROB	n/a	LTP341	ltpFR2	7	n/a	n/a	n/a	6	16	4	5	7
598528	PROB	n/a	LTP341	ltpFR2	7	n/a	n/a	n/a	6	25	9	7	9
600744	PROB	n/a	LTP341	ltpFR2	7	n/a	n/a	n/a	6	12	4	5	3
601960	PROB	n/a	LTP341	ltpFR2	7	n/a	n/a	n/a	6	13	3	6	4
603218	STOP	n/a	LTP341	ltpFR2	7	n/a	n/a	n/a	6	n/a	n/a	n/a	n/a
605542	REC_START	n/a	LTP341	ltpFR2	7	3	n/a	n/a	n/a	n/a	0	0	0
605990	REC_WORD	wordpools/wasnorm_wordpool_576.txt	LTP341	ltpFR2	7	3	PIGMENT	1066	n/a	n/a	0	0	0
606910	REC_WORD	wordpools/wasnorm_wordpool_576.txt	LTP341	ltpFR2	7	3	DONOR	485	n/a	n/a	0	0	0
608166	REC_WORD	wordpools/wasnorm_wordpool_576.txt	LTP341	ltpFR2	7	3	EUROPE	541	n/a	n/a	0	0	0
610779	REC_WORD	wordpools/wasnorm_wordpool_576.txt	LTP341	ltpFR2	7	3	JAPAN	749	n/a	n/a	0	0	0
611817	REC_WORD	wordpools/wasnorm_wordpool_576.txt	LTP341	ltpFR2	7	3	QUEEN	1149	n/a	n/a	0	0	0
613190	REC_WORD	wordpools/wasnorm_wordpool_576.txt	LTP341	ltpFR2	7	3	HUSBAND	728	n/a	n/a	0	0	0
615270	REC_WORD	wordpools/wasnorm_wordpool_576.txt	LTP341	ltpFR2	7	3	TART	1436	n/a	n/a	0	0	0
615976	REC_WORD	wordpools/wasnorm_wordpool_576.txt	LTP341	ltpFR2	7	3	SODA	1341	n/a	n/a	0	0	0
622385	REC_WORD	wordpools/wasnorm_wordpool_576.txt	LTP341	ltpFR2	7	3	FREEZER	604	n/a	n/a	0	0	0
623516	REC_WORD	wordpools/wasnorm_wordpool_576.txt	LTP341	ltpFR2	7	3	DRAWING	494	n/a	n/a	0	0	0
625483	REC_WORD	wordpools/wasnorm_wordpool_576.txt	LTP341	ltpFR2	7	3	CHIPMUNK	304	n/a	n/a	0	0	0
626407	REC_WORD	wordpools/wasnorm_wordpool_576.txt	LTP341	ltpFR2	7	3	POSSUM	1112	n/a	n/a	0	0	0
695984	DISTRACTOR	n/a	LTP341	ltpFR2	7	4	n/a	n/a	n/a	n/a	0	0	0
695984	START	n/a	LTP341	ltpFR2	7	n/a	n/a	n/a	7	n/a	n/a	n/a	n/a
696001	PROB	n/a	LTP341	ltpFR2	7	n/a	n/a	n/a	7	11	8	1	2
697583	PROB	n/a	LTP341	ltpFR2	7	n/a	n/a	n/a	7	17	7	5	5
698799	PROB	n/a	LTP341	ltpFR2	7	n/a	n/a	n/a	7	20	3	9	8
700033	PROB	n/a	LTP341	ltpFR2	7	n/a	n/a	n/a	7	7	3	1	3
701115	PROB	n/a	LTP341	ltpFR2	7	n/a	n/a	n/a	7	14	6	7	1
702148	PROB	n/a	LTP341	ltpFR2	7	n/a	n/a	n/a	7	10	7	2	1
703048	PROB	n/a	LTP341	ltpFR2	7	n/a	n/a	n/a	7	13	5	6	2
704563	PROB	n/a	LTP341	ltpFR2	7	n/a	n/a	n/a	7	9	3	1	5
706113	PROB	n/a	LTP341	ltpFR2	7	n/a	n/a	n/a	7	17	2	8	7
707279	PROB	n/a	LTP341	ltpFR2	7	n/a	n/a	n/a	7	23	9	6	8
708828	PROB	n/a	LTP341	ltpFR2	7	n/a	n/a	n/a	7	24	8	7	9
710377	PROB	n/a	LTP341	ltpFR2	7	n/a	n/a	n/a	7	18	2	7	9
711743	PROB	n/a	LTP341	ltpFR2	7	n/a	n/a	n/a	7	20	3	9	8
713176	PROB	n/a	LTP341	ltpFR2	7	n/a	n/a	n/a	7	13	5	2	6
714859	PROB	n/a	LTP341	ltpFR2	7	n/a	n/a	n/a	7	9	2	2	5
716075	PROB	n/a	LTP341	ltpFR2	7	n/a	n/a	n/a	7	15	8	2	5
717174	PROB	n/a	LTP341	ltpFR2	7	n/a	n/a	n/a	7	12	2	2	8
718324	PROB	n/a	LTP341	ltpFR2	7	n/a	n/a	n/a	7	15	1	7	7
719501	STOP	n/a	LTP341	ltpFR2	7	n/a	n/a	n/a	7	n/a	n/a	n/a	n/a
720823	WORD	wordpools/wasnorm_wordpool_576.txt	LTP341	ltpFR2	7	4	CLOTHES	327	n/a	n/a	0	0	0
723355	WORD	wordpools/wasnorm_wordpool_576.txt	LTP341	ltpFR2	7	4	DRILL	497	n/a	n/a	0	0	0
726021	WORD	wordpools/wasnorm_wordpool_576.txt	LTP341	ltpFR2	7	4	LUMBER	848	n/a	n/a	0	0	0
728769	WORD	wordpools/wasnorm_wordpool_576.txt	LTP341	ltpFR2	7	4	LASER	801	n/a	n/a	0	0	0
731518	WORD	wordpools/wasnorm_wordpool_576.txt	LTP341	ltpFR2	7	4	SUPPER	1411	n/a	n/a	0	0	0
734117	WORD	wordpools/wasnorm_wordpool_576.txt	LTP341	ltpFR2	7	4	PARENT	1013	n/a	n/a	0	0	0
736882	WORD	wordpools/wasnorm_wordpool_576.txt	LTP341	ltpFR2	7	4	PANTHER	1009	n/a	n/a	0	0	0
739314	WORD	wordpools/wasnorm_wordpool_576.txt	LTP341	ltpFR2	7	4	QUARTER	1148	n/a	n/a	0	0	0
741846	WORD	wordpools/wasnorm_wordpool_576.txt	LTP341	ltpFR2	7	4	EXPERT	543	n/a	n/a	0	0	0
744412	WORD	wordpools/wasnorm_wordpool_576.txt	LTP341	ltpFR2	7	4	WAITRESS	1581	n/a	n/a	0	0	0
747111	WORD	wordpools/wasnorm_wordpool_576.txt	LTP341	ltpFR2	7	4	STICKER	1382	n/a	n/a	0	0	0
749876	WORD	wordpools/wasnorm_wordpool_576.txt	LTP341	ltpFR2	7	4	HORSE	719	n/a	n/a	0	0	0
752458	WORD	wordpools/wasnorm_wordpool_576.txt	LTP341	ltpFR2	7	4	MONSTER	912	n/a	n/a	0	0	0
755207	WORD	wordpools/wasnorm_wordpool_576.txt	LTP341	ltpFR2	7	4	FUNGUS	614	n/a	n/a	0	0	0
757956	WORD	wordpools/wasnorm_wordpool_576.txt	LTP341	ltpFR2	7	4	HOOK	715	n/a	n/a	0	0	0
760705	WORD	wordpools/wasnorm_wordpool_576.txt	LTP341	ltpFR2	7	4	LUNCH	849	n/a	n/a	0	0	0
763370	WORD	wordpools/wasnorm_wordpool_576.txt	LTP341	ltpFR2	7	4	BALLOON	75	n/a	n/a	0	0	0
766135	WORD	wordpools/wasnorm_wordpool_576.txt	LTP341	ltpFR2	7	4	OZONE	996	n/a	n/a	0	0	0
768718	WORD	wordpools/wasnorm_wordpool_576.txt	LTP341	ltpFR2	7	4	BADGE	68	n/a	n/a	0	0	0
771466	WORD	wordpools/wasnorm_wordpool_576.txt	LTP341	ltpFR2	7	4	PATROL	1027	n/a	n/a	0	0	0
774182	WORD	wordpools/wasnorm_wordpool_576.txt	LTP341	ltpFR2	7	4	PERMIT	1051	n/a	n/a	0	0	0
776981	WORD	wordpools/wasnorm_wordpool_576.txt	LTP341	ltpFR2	7	4	CARROT	249	n/a	n/a	0	0	0
779463	WORD	wordpools/wasnorm_wordpool_576.txt	LTP341	ltpFR2	7	4	PARSLEY	1016	n/a	n/a	0	0	0
781962	WORD	wordpools/wasnorm_wordpool_576.txt	LTP341	ltpFR2	7	4	YOLK	1633	n/a	n/a	0	0	0
783578	START	n/a	LTP341	ltpFR2	7	n/a	n/a	n/a	8	n/a	n/a	n/a	n/a
784429	DISTRACTOR	n/a	LTP341	ltpFR2	7	4	n/a	n/a	n/a	n/a	0	0	0
784444	PROB	n/a	LTP341	ltpFR2	7	n/a	n/a	n/a	8	20	4	5	8
786393	PROB	n/a	LTP341	ltpFR2	7	n/a	n/a	n/a	8	16	4	5	7
788192	PROB	n/a	LTP341	ltpFR2	7	n/a	n/a	n/a	8	19	3	7	9
789258	PROB	n/a	LTP341	ltpFR2	7	n/a	n/a	n/a	8	1	8	5	7
790324	PROB	n/a	LTP341	ltpFR2	7	n/a	n/a	n/a	8	23	9	5	9
792673	PROB	n/a	LTP341	ltpFR2	7	n/a	n/a	n/a	8	18	9	5	4
794139	PROB	n/a	LTP341	ltpFR2	7	n/a	n/a	n/a	8	19	9	5	5
795739	PROB	n/a	LTP341	ltpFR2	7	n/a	n/a	n/a	8	11	3	2	6
797621	PROB	n/a	LTP341	ltpFR2	7	n/a	n/a	n/a	8	16	2	5	9
800153	PROB	n/a	LTP341	ltpFR2	7	n/a	n/a	n/a	8	15	5	2	8
801419	PROB	n/a	LTP341	ltpFR2	7	n/a	n/a	n/a	8	13	2	7	4
802669	PROB	n/a	LTP341	ltpFR2	7	n/a	n/a	n/a	8	4	2	1	1
803668	PROB	n/a	LTP341	ltpFR2	7	n/a	n/a	n/a	8	13	8	1	4
805134	PROB	n/a	LTP341	ltpFR2	7	n/a	n/a	n/a	8	11	6	2	3
806400	STOP	n/a	LTP341	ltpFR2	7	n/a	n/a	n/a	8	n/a	n/a	n/a	n/a
809366	REC_START	n/a	LTP341	ltpFR2	7	4	n/a	n/a	n/a	n/a	0	0	0
809778	REC_WORD	wordpools/wasnorm_wordpool_576.txt	LTP341	ltpFR2	7	4	PATROL	1027	n/a	n/a	0	0	0
810427	REC_WORD	wordpools/wasnorm_wordpool_576.txt	LTP341	ltpFR2	7	4	PARSLEY	1016	n/a	n/a	0	0	0
812328	REC_WORD	wordpools/wasnorm_wordpool_576.txt	LTP341	ltpFR2	7	4	CARROT	249	n/a	n/a	0	0	0
814587	REC_WORD	wordpools/wasnorm_wordpool_576.txt	LTP341	ltpFR2	7	4	CLOTHES	327	n/a	n/a	0	0	0
815347	REC_WORD	wordpools/wasnorm_wordpool_576.txt	LTP341	ltpFR2	7	4	LUMBER	848	n/a	n/a	0	0	0
821915	REC_WORD	wordpools/wasnorm_wordpool_576.txt	LTP341	ltpFR2	7	4	PARENT	1013	n/a	n/a	0	0	0
822354	REC_WORD	wordpools/wasnorm_wordpool_576.txt	LTP341	ltpFR2	7	4	SUPPER	1411	n/a	n/a	0	0	0
822929	REC_WORD	wordpools/wasnorm_wordpool_576.txt	LTP341	ltpFR2	7	4	LUNCH	849	n/a	n/a	0	0	0
824454	REC_WORD	wordpools/wasnorm_wordpool_576.txt	LTP341	ltpFR2	7	4	WAITRESS	1581	n/a	n/a	0	0	0
825302	REC_WORD	wordpools/wasnorm_wordpool_576.txt	LTP341	ltpFR2	7	4	HOOK	715	n/a	n/a	0	0	0
881695	REC_WORD	wordpools/wasnorm_wordpool_576.txt	LTP341	ltpFR2	7	4	DRILL	497	n/a	n/a	0	0	0
899791	DISTRACTOR	n/a	LTP341	ltpFR2	7	5	n/a	n/a	n/a	n/a	0	0	0
899792	START	n/a	LTP341	ltpFR2	7	n/a	n/a	n/a	9	n/a	n/a	n/a	n/a
899808	PROB	n/a	LTP341	ltpFR2	7	n/a	n/a	n/a	9	14	3	2	9
901341	PROB	n/a	LTP341	ltpFR2	7	n/a	n/a	n/a	9	13	1	6	6
902707	PROB	n/a	LTP341	ltpFR2	7	n/a	n/a	n/a	9	15	6	3	6
904489	PROB	n/a	LTP341	ltpFR2	7	n/a	n/a	n/a	9	14	1	6	7
905672	PROB	n/a	LTP341	ltpFR2	7	n/a	n/a	n/a	9	12	5	6	1
906622	PROB	n/a	LTP341	ltpFR2	7	n/a	n/a	n/a	9	11	5	2	4
908154	PROB	n/a	LTP341	ltpFR2	7	n/a	n/a	n/a	9	15	6	4	5
909420	PROB	n/a	LTP341	ltpFR2	7	n/a	n/a	n/a	9	19	8	2	9
910520	PROB	n/a	LTP341	ltpFR2	7	n/a	n/a	n/a	9	17	7	1	9
912020	PROB	n/a	LTP341	ltpFR2	7	n/a	n/a	n/a	9	15	9	2	4
913502	PROB	n/a	LTP341	ltpFR2	7	n/a	n/a	n/a	9	14	2	7	5
915901	PROB	n/a	LTP341	ltpFR2	7	n/a	n/a	n/a	9	12	4	6	2
917035	PROB	n/a	LTP341	ltpFR2	7	n/a	n/a	n/a	9	12	3	2	7
918233	PROB	n/a	LTP341	ltpFR2	7	n/a	n/a	n/a	9	22	6	9	7
919999	PROB	n/a	LTP341	ltpFR2	7	n/a	n/a	n/a	9	16	6	2	8
921215	PROB	n/a	LTP341	ltpFR2	7	n/a	n/a	n/a	9	15	6	4	5
922555	STOP	n/a	LTP341	ltpFR2	7	n/a	n/a	n/a	9	n/a	n/a	n/a	n/a
924730	WORD	wordpools/wasnorm_wordpool_576.txt	LTP341	ltpFR2	7	5	BOYFRIEND	162	n/a	n/a	0	0	0
927529	WORD	wordpools/wasnorm_wordpool_576.txt	LTP341	ltpFR2	7	5	CANYON	235	n/a	n/a	0	0	0
930311	WORD	wordpools/wasnorm_wordpool_576.txt	LTP341	ltpFR2	7	5	CREVICE	405	n/a	n/a	0	0	0
933044	WORD	wordpools/wasnorm_wordpool_576.txt	LTP341	ltpFR2	7	5	QUAIL	1147	n/a	n/a	0	0	0
935808	WORD	wordpools/wasnorm_wordpool_576.txt	LTP341	ltpFR2	7	5	HEADBAND	696	n/a	n/a	0	0	0
938357	WORD	wordpools/wasnorm_wordpool_576.txt	LTP341	ltpFR2	7	5	SALAD	1224	n/a	n/a	0	0	0
941156	WORD	wordpools/wasnorm_wordpool_576.txt	LTP341	ltpFR2	7	5	RABBIT	1152	n/a	n/a	0	0	0
943921	WORD	wordpools/wasnorm_wordpool_576.txt	LTP341	ltpFR2	7	5	BUNNY	198	n/a	n/a	0	0	0
946587	WORD	wordpools/wasnorm_wordpool_576.txt	LTP341	ltpFR2	7	5	GLASS	639	n/a	n/a	0	0	0
949269	WORD	wordpools/wasnorm_wordpool_576.txt	LTP341	ltpFR2	7	5	CURTAIN	427	n/a	n/a	0	0	0
951951	WORD	wordpools/wasnorm_wordpool_576.txt	LTP341	ltpFR2	7	5	BLENDER	136	n/a	n/a	0	0	0
954450	WORD	wordpools/wasnorm_wordpool_576.txt	LTP341	ltpFR2	7	5	IGLOO	734	n/a	n/a	0	0	0
956965	WORD	wordpools/wasnorm_wordpool_576.txt	LTP341	ltpFR2	7	5	BARREL	91	n/a	n/a	0	0	0
959581	WORD	wordpools/wasnorm_wordpool_576.txt	LTP341	ltpFR2	7	5	KIDNEY	776	n/a	n/a	0	0	0
962396	WORD	wordpools/wasnorm_wordpool_576.txt	LTP341	ltpFR2	7	5	LOVER	846	n/a	n/a	0	0	0
965063	WORD	wordpools/wasnorm_wordpool_576.txt	LTP341	ltpFR2	7	5	GRAPE	654	n/a	n/a	0	0	0
967594	WORD	wordpools/wasnorm_wordpool_576.txt	LTP341	ltpFR2	7	5	THIEF	1456	n/a	n/a	0	0	0
970027	WORD	wordpools/wasnorm_wordpool_576.txt	LTP341	ltpFR2	7	5	VIRUS	1572	n/a	n/a	0	0	0
972458	WORD	wordpools/wasnorm_wordpool_576.txt	LTP341	ltpFR2	7	5	MARKET	871	n/a	n/a	0	0	0
974924	WORD	wordpools/wasnorm_wordpool_576.txt	LTP341	ltpFR2	7	5	FIDDLE	561	n/a	n/a	0	0	0
977656	WORD	wordpools/wasnorm_wordpool_576.txt	LTP341	ltpFR2	7	5	BRAKE	166	n/a	n/a	0	0	0
980122	WORD	wordpools/wasnorm_wordpool_576.txt	LTP341	ltpFR2	7	5	NIGHTGOWN	953	n/a	n/a	0	0	0
982820	WORD	wordpools/wasnorm_wordpool_576.txt	LTP341	ltpFR2	7	5	HORNET	718	n/a	n/a	0	0	0
985369	WORD	wordpools/wasnorm_wordpool_576.txt	LTP341	ltpFR2	7	5	STONE	1385	n/a	n/a	0	0	0
986985	START	n/a	LTP341	ltpFR2	7	n/a	n/a	n/a	10	n/a	n/a	n/a	n/a
988149	DISTRACTOR	n/a	LTP341	ltpFR2	7	5	n/a	n/a	n/a	n/a	0	0	0
988151	PROB	n/a	LTP341	ltpFR2	7	n/a	n/a	n/a	10	20	7	5	8
989901	PROB	n/a	LTP341	ltpFR2	7	n/a	n/a	n/a	10	15	4	5	6
991350	PROB	n/a	LTP341	ltpFR2	7	n/a	n/a	n/a	10	11	2	6	3
992616	PROB	n/a	LTP341	ltpFR2	7	n/a	n/a	n/a	10	20	6	9	5
993982	PROB	n/a	LTP341	ltpFR2	7	n/a	n/a	n/a	10	20	8	7	5
995448	PROB	n/a	LTP341	ltpFR2	7	n/a	n/a	n/a	10	15	7	6	2
996797	PROB	n/a	LTP341	ltpFR2	7	n/a	n/a	n/a	10	10	6	2	2
997680	PROB	n/a	LTP341	ltpFR2	7	n/a	n/a	n/a	10	22	8	6	8
999213	PROB	n/a	LTP341	ltpFR2	7	n/a	n/a	n/a	10	9	1	7	1
1000312	PROB	n/a	LTP341	ltpFR2	7	n/a	n/a	n/a	10	18	3	6	9
1001645	PROB	n/a	LTP341	ltpFR2	7	n/a	n/a	n/a	10	23	5	9	9
1003128	PROB	n/a	LTP341	ltpFR2	7	n/a	n/a	n/a	10	10	2	2	6
1004327	PROB	n/a	LTP341	ltpFR2	7	n/a	n/a	n/a	10	14	2	7	5
1006410	PROB	n/a	LTP341	ltpFR2	7	n/a	n/a	n/a	10	11	1	9	2
1007443	PROB	n/a	LTP341	ltpFR2	7	n/a	n/a	n/a	10	14	7	5	2
1009009	PROB	n/a	LTP341	ltpFR2	7	n/a	n/a	n/a	10	16	7	3	6
1010286	STOP	n/a	LTP341	ltpFR2	7	n/a	n/a	n/a	10	n/a	n/a	n/a	n/a
1012824	REC_START	n/a	LTP341	ltpFR2	7	5	n/a	n/a	n/a	n/a	0	0	0
1012918	REC_WORD	wordpools/wasnorm_wordpool_576.txt	LTP341	ltpFR2	7	5	VIRUS	1572	n/a	n/a	0	0	0
1013578	REC_WORD	wordpools/wasnorm_wordpool_576.txt	LTP341	ltpFR2	7	5	MARKET	871	n/a	n/a	0	0	0
1014100	REC_WORD	wordpools/wasnorm_wordpool_576.txt	LTP341	ltpFR2	7	5	FIDDLE	561	n/a	n/a	0	0	0
1014530	REC_WORD	wordpools/wasnorm_wordpool_576.txt	LTP341	ltpFR2	7	5	HORNET	718	n/a	n/a	0	0	0
1015124	REC_WORD	wordpools/wasnorm_wordpool_576.txt	LTP341	ltpFR2	7	5	STONE	1385	n/a	n/a	0	0	0
1017887	REC_WORD	wordpools/wasnorm_wordpool_576.txt	LTP341	ltpFR2	7	5	BOYFRIEND	162	n/a	n/a	0	0	0
1018522	REC_WORD	wordpools/wasnorm_wordpool_576.txt	LTP341	ltpFR2	7	5	LOVER	846	n/a	n/a	0	0	0
1019158	REC_WORD	wordpools/wasnorm_wordpool_576.txt	LTP341	ltpFR2	7	5	CANYON	235	n/a	n/a	0	0	0
1019927	REC_WORD	wordpools/wasnorm_wordpool_576.txt	LTP341	ltpFR2	7	5	CREVICE	405	n/a	n/a	0	0	0
1022017	REC_WORD	wordpools/wasnorm_wordpool_576.txt	LTP341	ltpFR2	7	5	GRAPE	654	n/a	n/a	0	0	0
1022505	REC_WORD	wordpools/wasnorm_wordpool_576.txt	LTP341	ltpFR2	7	5	SALAD	1224	n/a	n/a	0	0	0
1023540	REC_WORD	wordpools/wasnorm_wordpool_576.txt	LTP341	ltpFR2	7	5	BUNNY	198	n/a	n/a	0	0	0
1024095	REC_WORD	wordpools/wasnorm_wordpool_576.txt	LTP341	ltpFR2	7	5	RABBIT	1152	n/a	n/a	0	0	0
1025790	REC_WORD	wordpools/wasnorm_wordpool_576.txt	LTP341	ltpFR2	7	5	GLASS	639	n/a	n/a	0	0	0
1026594	REC_WORD	wordpools/wasnorm_wordpool_576.txt	LTP341	ltpFR2	7	5	BLENDER	136	n/a	n/a	0	0	0
1103266	WORD	wordpools/wasnorm_wordpool_576.txt	LTP341	ltpFR2	7	6	WIDOW	1608	n/a	n/a	0	0	0
1106081	WORD	wordpools/wasnorm_wordpool_576.txt	LTP341	ltpFR2	7	6	GRIZZLY	662	n/a	n/a	0	0	0
1108730	WORD	wordpools/wasnorm_wordpool_576.txt	LTP341	ltpFR2	7	6	HELMET	702	n/a	n/a	0	0	0
1111462	WORD	wordpools/wasnorm_wordpool_576.txt	LTP341	ltpFR2	7	6	UMPIRE	1535	n/a	n/a	0	0	0
1114127	WORD	wordpools/wasnorm_wordpool_576.txt	LTP341	ltpFR2	7	6	MARSH	874	n/a	n/a	0	0	0
1116810	WORD	wordpools/wasnorm_wordpool_576.txt	LTP341	ltpFR2	7	6	PORTRAIT	1111	n/a	n/a	0	0	0
1119558	WORD	wordpools/wasnorm_wordpool_576.txt	LTP341	ltpFR2	7	6	PICTURE	1061	n/a	n/a	0	0	0
1122174	WORD	wordpools/wasnorm_wordpool_576.txt	LTP341	ltpFR2	7	6	STAKE	1368	n/a	n/a	0	0	0
1124673	WORD	wordpools/wasnorm_wordpool_576.txt	LTP341	ltpFR2	7	6	LAGOON	795	n/a	n/a	0	0	0
1127305	WORD	wordpools/wasnorm_wordpool_576.txt	LTP341	ltpFR2	7	6	KITCHEN	778	n/a	n/a	0	0	0
1129837	WORD	wordpools/wasnorm_wordpool_576.txt	LTP341	ltpFR2	7	6	SLIDE	1326	n/a	n/a	0	0	0
1132436	WORD	wordpools/wasnorm_wordpool_576.txt	LTP341	ltpFR2	7	6	AIRPLANE	12	n/a	n/a	0	0	0
1134935	WORD	wordpools/wasnorm_wordpool_576.txt	LTP341	ltpFR2	7	6	WIFE	1609	n/a	n/a	0	0	0
1137433	WORD	wordpools/wasnorm_wordpool_576.txt	LTP341	ltpFR2	7	6	ULCER	1533	n/a	n/a	0	0	0
1140182	WORD	wordpools/wasnorm_wordpool_576.txt	LTP341	ltpFR2	7	6	BIKE	125	n/a	n/a	0	0	0
1142848	WORD	wordpools/wasnorm_wordpool_576.txt	LTP341	ltpFR2	7	6	COUNTY	389	n/a	n/a	0	0	0
1145546	WORD	wordpools/wasnorm_wordpool_576.txt	LTP341	ltpFR2	7	6	COUNTRY	388	n/a	n/a	0	0	0
1148013	WORD	wordpools/wasnorm_wordpool_576.txt	LTP341	ltpFR2	7	6	SCRIBBLE	1256	n/a	n/a	0	0	0
1150444	WORD	wordpools/wasnorm_wordpool_576.txt	LTP341	ltpFR2	7	6	PUDDING	1139	n/a	n/a	0	0	0
1153260	WORD	wordpools/wasnorm_wordpool_576.txt	LTP341	ltpFR2	7	6	DANDRUFF	439	n/a	n/a	0	0	0
1155808	WORD	wordpools/wasnorm_wordpool_576.txt	LTP341	ltpFR2	7	6	HEART	697	n/a	n/a	0	0	0
1158574	WORD	wordpools/wasnorm_wordpool_576.txt	LTP341	ltpFR2	7	6	GRAVEL	659	n/a	n/a	0	0	0
1161106	WORD	wordpools/wasnorm_wordpool_576.txt	LTP341	ltpFR2	7	6	NURSE	963	n/a	n/a	0	0	0
1163721	WORD	wordpools/wasnorm_wordpool_576.txt	LTP341	ltpFR2	7	6	HAMPER	682	n/a	n/a	0	0	0
1165338	START	n/a	LTP341	ltpFR2	7	n/a	n/a	n/a	11	n/a	n/a	n/a	n/a
1166414	DISTRACTOR	n/a	LTP341	ltpFR2	7	6	n/a	n/a	n/a	n/a	0	0	0
1166420	PROB	n/a	LTP341	ltpFR2	7	n/a	n/a	n/a	11	23	8	6	9
1169102	PROB	n/a	LTP341	ltpFR2	7	n/a	n/a	n/a	11	12	2	8	2
1170452	PROB	n/a	LTP341	ltpFR2	7	n/a	n/a	n/a	11	10	6	1	3
1171651	PROB	n/a	LTP341	ltpFR2	7	n/a	n/a	n/a	11	9	2	2	3
1173734	PROB	n/a	LTP341	ltpFR2	7	n/a	n/a	n/a	11	20	4	7	9
1175233	PROB	n/a	LTP341	ltpFR2	7	n/a	n/a	n/a	11	16	2	8	6
1176432	PROB	n/a	LTP341	ltpFR2	7	n/a	n/a	n/a	11	14	3	8	3
1178066	PROB	n/a	LTP341	ltpFR2	7	n/a	n/a	n/a	11	22	7	7	8
1182763	PROB	n/a	LTP341	ltpFR2	7	n/a	n/a	n/a	11	13	8	1	5
1183829	PROB	n/a	LTP341	ltpFR2	7	n/a	n/a	n/a	11	19	4	9	5
1185478	PROB	n/a	LTP341	ltpFR2	7	n/a	n/a	n/a	11	22	7	8	7
1187694	PROB	n/a	LTP341	ltpFR2	7	n/a	n/a	n/a	11	21	8	4	9
1188923	STOP	n/a	LTP341	ltpFR2	7	n/a	n/a	n/a	11	n/a	n/a	n/a	n/a
1191276	REC_START	n/a	LTP341	ltpFR2	7	6	n/a	n/a	n/a	n/a	0	0	0
1191582	REC_WORD	wordpools/wasnorm_wordpool_576.txt	LTP341	ltpFR2	7	6	SCRIBBLE	1256	n/a	n/a	0	0	0
1192175	REC_WORD	wordpools/wasnorm_wordpool_576.txt	LTP341	ltpFR2	7	6	PUDDING	1139	n/a	n/a	0	0	0
1192602	REC_WORD	wordpools/wasnorm_wordpool_576.txt	LTP341	ltpFR2	7	6	DANDRUFF	439	n/a	n/a	0	0	0
1193124	REC_WORD	wordpools/wasnorm_wordpool_576.txt	LTP341	ltpFR2	7	6	NURSE	963	n/a	n/a	0	0	0
1195221	REC_WORD	wordpools/wasnorm_wordpool_576.txt	LTP341	ltpFR2	7	6	GAVEL	627	n/a	n/a	0	0	0
1197600	REC_WORD	wordpools/wasnorm_wordpool_576.txt	LTP341	ltpFR2	7	6	WIDOW	1608	n/a	n/a	0	0	0
1198619	REC_WORD	wordpools/wasnorm_wordpool_576.txt	LTP341	ltpFR2	7	6	WIFE	1609	n/a	n/a	0	0	0
1199053	REC_WORD	wordpools/wasnorm_wordpool_576.txt	LTP341	ltpFR2	7	6	HELMET	702	n/a	n/a	0	0	0
1200530	REC_WORD	wordpools/wasnorm_wordpool_576.txt	LTP341	ltpFR2	7	6	CRITIC	410	n/a	n/a	0	0	0
1201680	REC_WORD	wordpools/wasnorm_wordpool_576.txt	LTP341	ltpFR2	7	6	MARSH	874	n/a	n/a	0	0	0
1205758	REC_WORD	wordpools/wasnorm_wordpool_576.txt	LTP341	ltpFR2	7	6	AIRPLANE	12	n/a	n/a	0	0	0
1219402	REC_WORD	wordpools/wasnorm_wordpool_576.txt	LTP341	ltpFR2	7	6	DRAWING	494	n/a	n/a	0	0	0
1219910	REC_WORD	wordpools/wasnorm_wordpool_576.txt	LTP341	ltpFR2	7	6	PICTURE	1061	n/a	n/a	0	0	0
1222672	REC_WORD_VV	wordpools/wasnorm_wordpool_576.txt	LTP341	ltpFR2	7	6	<>	-1	n/a	n/a	0	0	0
1224749	REC_WORD	wordpools/wasnorm_wordpool_576.txt	LTP341	ltpFR2	7	6	PICTURE	1061	n/a	n/a	0	0	0
1225169	REC_WORD	wordpools/wasnorm_wordpool_576.txt	LTP341	ltpFR2	7	6	PORTRAIT	1111	n/a	n/a	0	0	0
1281718	DISTRACTOR	n/a	LTP341	ltpFR2	7	7	n/a	n/a	n/a	n/a	0	0	0
1281718	START	n/a	LTP341	ltpFR2	7	n/a	n/a	n/a	12	n/a	n/a	n/a	n/a
1281734	PROB	n/a	LTP341	ltpFR2	7	n/a	n/a	n/a	12	14	1	5	8
1283734	PROB	n/a	LTP341	ltpFR2	7	n/a	n/a	n/a	12	10	1	6	3
1284733	PROB	n/a	LTP341	ltpFR2	7	n/a	n/a	n/a	12	19	6	8	5
1286749	PROB	n/a	LTP341	ltpFR2	7	n/a	n/a	n/a	12	10	3	3	4
1287632	PROB	n/a	LTP341	ltpFR2	7	n/a	n/a	n/a	12	21	4	9	8
1289098	PROB	n/a	LTP341	ltpFR2	7	n/a	n/a	n/a	12	24	9	9	6
1291364	PROB	n/a	LTP341	ltpFR2	7	n/a	n/a	n/a	12	13	2	2	9
1293014	PROB	n/a	LTP341	ltpFR2	7	n/a	n/a	n/a	12	19	7	7	5
1294412	PROB	n/a	LTP341	ltpFR2	7	n/a	n/a	n/a	12	19	6	5	8
1295645	PROB	n/a	LTP341	ltpFR2	7	n/a	n/a	n/a	12	18	3	7	8
1296828	PROB	n/a	LTP341	ltpFR2	7	n/a	n/a	n/a	12	15	6	5	4
1298827	PROB	n/a	LTP341	ltpFR2	7	n/a	n/a	n/a	12	14	5	4	4
1301044	PROB	n/a	LTP341	ltpFR2	7	n/a	n/a	n/a	12	14	1	7	6
1302209	PROB	n/a	LTP341	ltpFR2	7	n/a	n/a	n/a	12	19	9	2	8
1304042	PROB	n/a	LTP341	ltpFR2	7	n/a	n/a	n/a	12	16	5	6	5
1305383	STOP	n/a	LTP341	ltpFR2	7	n/a	n/a	n/a	12	n/a	n/a	n/a	n/a
1306557	WORD	wordpools/wasnorm_wordpool_576.txt	LTP341	ltpFR2	7	7	SHORTS	1293	n/a	n/a	0	0	0
1309205	WORD	wordpools/wasnorm_wordpool_576.txt	LTP341	ltpFR2	7	7	SHIRT	1287	n/a	n/a	0	0	0
1311654	WORD	wordpools/wasnorm_wordpool_576.txt	LTP341	ltpFR2	7	7	SKIRT	1319	n/a	n/a	0	0	0
1314236	WORD	wordpools/wasnorm_wordpool_576.txt	LTP341	ltpFR2	7	7	TWEEZERS	1526	n/a	n/a	0	0	0
1316735	WORD	wordpools/wasnorm_wordpool_576.txt	LTP341	ltpFR2	7	7	NEUTRON	947	n/a	n/a	0	0	0
1319251	WORD	wordpools/wasnorm_wordpool_576.txt	LTP341	ltpFR2	7	7	VALLEY	1545	n/a	n/a	0	0	0
1321900	WORD	wordpools/wasnorm_wordpool_576.txt	LTP341	ltpFR2	7	7	RIVER	1194	n/a	n/a	0	0	0
1324548	WORD	wordpools/wasnorm_wordpool_576.txt	LTP341	ltpFR2	7	7	ORCHID	982	n/a	n/a	0	0	0
1326997	WORD	wordpools/wasnorm_wordpool_576.txt	LTP341	ltpFR2	7	7	SUNRISE	1407	n/a	n/a	0	0	0
1329546	WORD	wordpools/wasnorm_wordpool_576.txt	LTP341	ltpFR2	7	7	JUGGLER	763	n/a	n/a	0	0	0
1332361	WORD	wordpools/wasnorm_wordpool_576.txt	LTP341	ltpFR2	7	7	TUNNEL	1519	n/a	n/a	0	0	0
1334977	WORD	wordpools/wasnorm_wordpool_576.txt	LTP341	ltpFR2	7	7	SUBWAY	1400	n/a	n/a	0	0	0
1337493	WORD	wordpools/wasnorm_wordpool_576.txt	LTP341	ltpFR2	7	7	BLUEPRINT	142	n/a	n/a	0	0	0
1340059	WORD	wordpools/wasnorm_wordpool_576.txt	LTP341	ltpFR2	7	7	OUTDOORS	987	n/a	n/a	0	0	0
1342857	WORD	wordpools/wasnorm_wordpool_576.txt	LTP341	ltpFR2	7	7	GAZELLE	628	n/a	n/a	0	0	0
1345289	WORD	wordpools/wasnorm_wordpool_576.txt	LTP341	ltpFR2	7	7	FRIAR	605	n/a	n/a	0	0	0
1348004	WORD	wordpools/wasnorm_wordpool_576.txt	LTP341	ltpFR2	7	7	GARDEN	623	n/a	n/a	0	0	0
1350770	WORD	wordpools/wasnorm_wordpool_576.txt	LTP341	ltpFR2	7	7	BRICK	172	n/a	n/a	0	0	0
1353485	WORD	wordpools/wasnorm_wordpool_576.txt	LTP341	ltpFR2	7	7	BLACKBOARD	133	n/a	n/a	0	0	0
1355934	WORD	wordpools/wasnorm_wordpool_576.txt	LTP341	ltpFR2	7	7	STAR	1373	n/a	n/a	0	0	0
1358400	WORD	wordpools/wasnorm_wordpool_576.txt	LTP341	ltpFR2	7	7	NOVEL	960	n/a	n/a	0	0	0
1361132	WORD	wordpools/wasnorm_wordpool_576.txt	LTP341	ltpFR2	7	7	WASHER	1592	n/a	n/a	0	0	0
1363831	WORD	wordpools/wasnorm_wordpool_576.txt	LTP341	ltpFR2	7	7	MATCH	878	n/a	n/a	0	0	0
1366363	WORD	wordpools/wasnorm_wordpool_576.txt	LTP341	ltpFR2	7	7	SWORD	1423	n/a	n/a	0	0	0
1367979	START	n/a	LTP341	ltpFR2	7	n/a	n/a	n/a	13	n/a	n/a	n/a	n/a
1369069	DISTRACTOR	n/a	LTP341	ltpFR2	7	7	n/a	n/a	n/a	n/a	0	0	0
1369078	PROB	n/a	LTP341	ltpFR2	7	n/a	n/a	n/a	13	14	4	6	4
1370744	PROB	n/a	LTP341	ltpFR2	7	n/a	n/a	n/a	13	22	8	5	9
1375159	PROB	n/a	LTP341	ltpFR2	7	n/a	n/a	n/a	13	11	1	1	9
1376175	PROB	n/a	LTP341	ltpFR2	7	n/a	n/a	n/a	13	14	7	3	4
1377324	PROB	n/a	LTP341	ltpFR2	7	n/a	n/a	n/a	13	17	6	3	8
1379440	PROB	n/a	LTP341	ltpFR2	7	n/a	n/a	n/a	13	14	7	5	2
1380740	PROB	n/a	LTP341	ltpFR2	7	n/a	n/a	n/a	13	18	8	6	4
1382405	PROB	n/a	LTP341	ltpFR2	7	n/a	n/a	n/a	13	17	4	9	4
1384388	PROB	n/a	LTP341	ltpFR2	7	n/a	n/a	n/a	13	12	1	3	8
1385621	PROB	n/a	LTP341	ltpFR2	7	n/a	n/a	n/a	13	17	5	3	9
1387054	PROB	n/a	LTP341	ltpFR2	7	n/a	n/a	n/a	13	9	1	7	1
1388269	PROB	n/a	LTP341	ltpFR2	7	n/a	n/a	n/a	13	16	8	4	4
1390335	PROB	n/a	LTP341	ltpFR2	7	n/a	n/a	n/a	13	15	5	7	3
1391873	STOP	n/a	LTP341	ltpFR2	7	n/a	n/a	n/a	13	n/a	n/a	n/a	n/a
1393767	REC_START	n/a	LTP341	ltpFR2	7	7	n/a	n/a	n/a	n/a	0	0	0
1393971	REC_WORD_VV	wordpools/wasnorm_wordpool_576.txt	LTP341	ltpFR2	7	7	<>	-1	n/a	n/a	0	0	0
1394565	REC_WORD	wordpools/wasnorm_wordpool_576.txt	LTP341	ltpFR2	7	7	STAR	1373	n/a	n/a	0	0	0
1395276	REC_WORD	wordpools/wasnorm_wordpool_576.txt	LTP341	ltpFR2	7	7	NOVEL	960	n/a	n/a	0	0	0
1397444	REC_WORD	wordpools/wasnorm_wordpool_576.txt	LTP341	ltpFR2	7	7	SWORD	1423	n/a	n/a	0	0	0
1416805	REC_WORD	wordpools/wasnorm_wordpool_576.txt	LTP341	ltpFR2	7	7	SKIRT	1319	n/a	n/a	0	0	0
1417373	REC_WORD	wordpools/wasnorm_wordpool_576.txt	LTP341	ltpFR2	7	7	SHIRT	1287	n/a	n/a	0	0	0
1417846	REC_WORD	wordpools/wasnorm_wordpool_576.txt	LTP341	ltpFR2	7	7	SHORTS	1293	n/a	n/a	0	0	0
1419520	REC_WORD	wordpools/wasnorm_wordpool_576.txt	LTP341	ltpFR2	7	7	TWEEZERS	1526	n/a	n/a	0	0	0
1420827	REC_WORD	wordpools/wasnorm_wordpool_576.txt	LTP341	ltpFR2	7	7	VALLEY	1545	n/a	n/a	0	0	0
1421525	REC_WORD	wordpools/wasnorm_wordpool_576.txt	LTP341	ltpFR2	7	7	RIVER	1194	n/a	n/a	0	0	0
1422110	REC_WORD	wordpools/wasnorm_wordpool_576.txt	LTP341	ltpFR2	7	7	SUBWAY	1400	n/a	n/a	0	0	0
1422919	REC_WORD	wordpools/wasnorm_wordpool_576.txt	LTP341	ltpFR2	7	7	TUNNEL	1519	n/a	n/a	0	0	0
1424346	REC_WORD	wordpools/wasnorm_wordpool_576.txt	LTP341	ltpFR2	7	7	BLUEPRINT	142	n/a	n/a	0	0	0
1456765	REC_WORD	wordpools/wasnorm_wordpool_576.txt	LTP341	ltpFR2	7	7	JUGGLER	763	n/a	n/a	0	0	0
1484209	WORD	wordpools/wasnorm_wordpool_576.txt	LTP341	ltpFR2	7	8	SPOUSE	1358	n/a	n/a	0	0	0
1486725	WORD	wordpools/wasnorm_wordpool_576.txt	LTP341	ltpFR2	7	8	POWDER	1117	n/a	n/a	0	0	0
1489257	WORD	wordpools/wasnorm_wordpool_576.txt	LTP341	ltpFR2	7	8	LEADER	807	n/a	n/a	0	0	0
1492057	WORD	wordpools/wasnorm_wordpool_576.txt	LTP341	ltpFR2	7	8	COOK	372	n/a	n/a	0	0	0
1494871	WORD	wordpools/wasnorm_wordpool_576.txt	LTP341	ltpFR2	7	8	ROBOT	1200	n/a	n/a	0	0	0
1497553	WORD	wordpools/wasnorm_wordpool_576.txt	LTP341	ltpFR2	7	8	CUSTARD	429	n/a	n/a	0	0	0
1500152	WORD	wordpools/wasnorm_wordpool_576.txt	LTP341	ltpFR2	7	8	RELISH	1183	n/a	n/a	0	0	0
1502667	WORD	wordpools/wasnorm_wordpool_576.txt	LTP341	ltpFR2	7	8	CROSS	413	n/a	n/a	0	0	0
1505150	WORD	wordpools/wasnorm_wordpool_576.txt	LTP341	ltpFR2	7	8	TURTLE	1522	n/a	n/a	0	0	0
1507815	WORD	wordpools/wasnorm_wordpool_576.txt	LTP341	ltpFR2	7	8	VELVET	1555	n/a	n/a	0	0	0
1510531	WORD	wordpools/wasnorm_wordpool_576.txt	LTP341	ltpFR2	7	8	PARROT	1015	n/a	n/a	0	0	0
1513146	WORD	wordpools/wasnorm_wordpool_576.txt	LTP341	ltpFR2	7	8	OX	994	n/a	n/a	0	0	0
1515578	WORD	wordpools/wasnorm_wordpool_576.txt	LTP341	ltpFR2	7	8	SCULPTURE	1258	n/a	n/a	0	0	0
1518277	WORD	wordpools/wasnorm_wordpool_576.txt	LTP341	ltpFR2	7	8	STATUE	1374	n/a	n/a	0	0	0
1520893	WORD	wordpools/wasnorm_wordpool_576.txt	LTP341	ltpFR2	7	8	WHISKERS	1605	n/a	n/a	0	0	0
1523708	WORD	wordpools/wasnorm_wordpool_576.txt	LTP341	ltpFR2	7	8	SWITCH	1422	n/a	n/a	0	0	0
1526173	WORD	wordpools/wasnorm_wordpool_576.txt	LTP341	ltpFR2	7	8	HAND	683	n/a	n/a	0	0	0
1528839	WORD	wordpools/wasnorm_wordpool_576.txt	LTP341	ltpFR2	7	8	BRANDY	169	n/a	n/a	0	0	0
1531371	WORD	wordpools/wasnorm_wordpool_576.txt	LTP341	ltpFR2	7	8	CHAMPAGNE	278	n/a	n/a	0	0	0
1534137	WORD	wordpools/wasnorm_wordpool_576.txt	LTP341	ltpFR2	7	8	BABY	64	n/a	n/a	0	0	0
1536585	WORD	wordpools/wasnorm_wordpool_576.txt	LTP341	ltpFR2	7	8	CAFE	216	n/a	n/a	0	0	0
1539301	WORD	wordpools/wasnorm_wordpool_576.txt	LTP341	ltpFR2	7	8	WORKER	1621	n/a	n/a	0	0	0
1542067	WORD	wordpools/wasnorm_wordpool_576.txt	LTP341	ltpFR2	7	8	HERO	706	n/a	n/a	0	0	0
1544615	WORD	wordpools/wasnorm_wordpool_576.txt	LTP341	ltpFR2	7	8	FINGER	567	n/a	n/a	0	0	0
1546231	START	n/a	LTP341	ltpFR2	7	n/a	n/a	n/a	14	n/a	n/a	n/a	n/a
1547063	DISTRACTOR	n/a	LTP341	ltpFR2	7	8	n/a	n/a	n/a	n/a	0	0	0
1547065	PROB	n/a	LTP341	ltpFR2	7	n/a	n/a	n/a	14	12	4	2	6
1549513	PROB	n/a	LTP341	ltpFR2	7	n/a	n/a	n/a	14	17	4	6	7
1550896	PROB	n/a	LTP341	ltpFR2	7	n/a	n/a	n/a	14	8	2	1	5
1551978	PROB	n/a	LTP341	ltpFR2	7	n/a	n/a	n/a	14	20	5	7	8
1553828	PROB	n/a	LTP341	ltpFR2	7	n/a	n/a	n/a	14	25	7	9	9
1555194	PROB	n/a	LTP341	ltpFR2	7	n/a	n/a	n/a	14	13	5	7	1
1556726	PROB	n/a	LTP341	ltpFR2	7	n/a	n/a	n/a	14	17	9	7	1
1559075	PROB	n/a	LTP341	ltpFR2	7	n/a	n/a	n/a	14	11	4	1	6
1560026	PROB	n/a	LTP341	ltpFR2	7	n/a	n/a	n/a	14	21	7	9	5
1561274	PROB	n/a	LTP341	ltpFR2	7	n/a	n/a	n/a	14	18	1	9	8
1562424	PROB	n/a	LTP341	ltpFR2	7	n/a	n/a	n/a	14	12	5	3	4
1563806	PROB	n/a	LTP341	ltpFR2	7	n/a	n/a	n/a	14	16	6	2	8
1565222	PROB	n/a	LTP341	ltpFR2	7	n/a	n/a	n/a	14	15	3	9	3
1566522	PROB	n/a	LTP341	ltpFR2	7	n/a	n/a	n/a	14	17	9	2	6
1567921	PROB	n/a	LTP341	ltpFR2	7	n/a	n/a	n/a	14	12	1	7	4
1569024	STOP	n/a	LTP341	ltpFR2	7	n/a	n/a	n/a	14	n/a	n/a	n/a	n/a
1572136	REC_START	n/a	LTP341	ltpFR2	7	8	n/a	n/a	n/a	n/a	0	0	0
1572813	REC_WORD	wordpools/wasnorm_wordpool_576.txt	LTP341	ltpFR2	7	8	HERO	706	n/a	n/a	0	0	0
1573445	REC_WORD	wordpools/wasnorm_wordpool_576.txt	LTP341	ltpFR2	7	8	FINGER	567	n/a	n/a	0	0	0
1576604	REC_WORD	wordpools/wasnorm_wordpool_576.txt	LTP341	ltpFR2	7	8	SPOUSE	1358	n/a	n/a	0	0	0
1582255	REC_WORD	wordpools/wasnorm_wordpool_576.txt	LTP341	ltpFR2	7	8	HAND	683	n/a	n/a	0	0	0
1585443	REC_WORD	wordpools/wasnorm_wordpool_576.txt	LTP341	ltpFR2	7	8	CAFE	216	n/a	n/a	0	0	0
1589197	REC_WORD	wordpools/wasnorm_wordpool_576.txt	LTP341	ltpFR2	7	8	BABY	64	n/a	n/a	0	0	0
1594004	REC_WORD	wordpools/wasnorm_wordpool_576.txt	LTP341	ltpFR2	7	8	CUSTARD	429	n/a	n/a	0	0	0
1597248	REC_WORD	wordpools/wasnorm_wordpool_576.txt	LTP341	ltpFR2	7	8	COOK	372	n/a	n/a	0	0	0
1598300	REC_WORD	wordpools/wasnorm_wordpool_576.txt	LTP341	ltpFR2	7	8	LEADER	807	n/a	n/a	0	0	0
1606446	REC_WORD	wordpools/wasnorm_wordpool_576.txt	LTP341	ltpFR2	7	8	STATUE	1374	n/a	n/a	0	0	0
1608907	REC_WORD	wordpools/wasnorm_wordpool_576.txt	LTP341	ltpFR2	7	8	SCULPTURE	1258	n/a	n/a	0	0	0
1611593	REC_WORD	wordpools/wasnorm_wordpool_576.txt	LTP341	ltpFR2	7	8	PARROT	1015	n/a	n/a	0	0	0
1613404	REC_WORD	wordpools/wasnorm_wordpool_576.txt	LTP341	ltpFR2	7	8	PANTHER	1009	n/a	n/a	0	0	0
1622983	REC_WORD	wordpools/wasnorm_wordpool_576.txt	LTP341	ltpFR2	7	8	BUFFALO	186	n/a	n/a	0	0	0
1648668	REST_REWET	n/a	LTP341	ltpFR2	7	8	n/a	n/a	n/a	n/a	0	0	0
1820490	WORD	wordpools/wasnorm_wordpool_576.txt	LTP341	ltpFR2	7	9	BROTHER	179	n/a	n/a	0	0	0
1823188	WORD	wordpools/wasnorm_wordpool_576.txt	LTP341	ltpFR2	7	9	DAUGHTER	442	n/a	n/a	0	0	0
1825971	WORD	wordpools/wasnorm_wordpool_576.txt	LTP341	ltpFR2	7	9	MOP	916	n/a	n/a	0	0	0
1828553	WORD	wordpools/wasnorm_wordpool_576.txt	LTP341	ltpFR2	7	9	SWIMMER	1420	n/a	n/a	0	0	0
1831185	WORD	wordpools/wasnorm_wordpool_576.txt	LTP341	ltpFR2	7	9	SISTER	1312	n/a	n/a	0	0	0
1833817	WORD	wordpools/wasnorm_wordpool_576.txt	LTP341	ltpFR2	7	9	ATOM	55	n/a	n/a	0	0	0
1836349	WORD	wordpools/wasnorm_wordpool_576.txt	LTP341	ltpFR2	7	9	PROTON	1132	n/a	n/a	0	0	0
1839165	WORD	wordpools/wasnorm_wordpool_576.txt	LTP341	ltpFR2	7	9	DIVER	476	n/a	n/a	0	0	0
1841613	WORD	wordpools/wasnorm_wordpool_576.txt	LTP341	ltpFR2	7	9	STOMACH	1384	n/a	n/a	0	0	0
1844179	WORD	wordpools/wasnorm_wordpool_576.txt	LTP341	ltpFR2	7	9	HUMAN	726	n/a	n/a	0	0	0
1846978	WORD	wordpools/wasnorm_wordpool_576.txt	LTP341	ltpFR2	7	9	VALVE	1546	n/a	n/a	0	0	0
1849510	WORD	wordpools/wasnorm_wordpool_576.txt	LTP341	ltpFR2	7	9	BUBBLE	183	n/a	n/a	0	0	0
1852109	WORD	wordpools/wasnorm_wordpool_576.txt	LTP341	ltpFR2	7	9	PLAZA	1088	n/a	n/a	0	0	0
1854558	WORD	wordpools/wasnorm_wordpool_576.txt	LTP341	ltpFR2	7	9	INFANT	737	n/a	n/a	0	0	0
1857123	WORD	wordpools/wasnorm_wordpool_576.txt	LTP341	ltpFR2	7	9	PIMPLE	1071	n/a	n/a	0	0	0
1859689	WORD	wordpools/wasnorm_wordpool_576.txt	LTP341	ltpFR2	7	9	COD	340	n/a	n/a	0	0	0
1862221	WORD	wordpools/wasnorm_wordpool_576.txt	LTP341	ltpFR2	7	9	BEEF	113	n/a	n/a	0	0	0
1865021	WORD	wordpools/wasnorm_wordpool_576.txt	LTP341	ltpFR2	7	9	BODY	145	n/a	n/a	0	0	0
1867818	WORD	wordpools/wasnorm_wordpool_576.txt	LTP341	ltpFR2	7	9	CRATER	400	n/a	n/a	0	0	0
1870434	WORD	wordpools/wasnorm_wordpool_576.txt	LTP341	ltpFR2	7	9	STREAM	1392	n/a	n/a	0	0	0
1873199	WORD	wordpools/wasnorm_wordpool_576.txt	LTP341	ltpFR2	7	9	CASHIER	254	n/a	n/a	0	0	0
1875631	WORD	wordpools/wasnorm_wordpool_576.txt	LTP341	ltpFR2	7	9	WRIST	1626	n/a	n/a	0	0	0
1878330	WORD	wordpools/wasnorm_wordpool_576.txt	LTP341	ltpFR2	7	9	ANKLE	24	n/a	n/a	0	0	0
1880829	WORD	wordpools/wasnorm_wordpool_576.txt	LTP341	ltpFR2	7	9	CLOUD	328	n/a	n/a	0	0	0
1882445	START	n/a	LTP341	ltpFR2	7	n/a	n/a	n/a	15	n/a	n/a	n/a	n/a
1883289	DISTRACTOR	n/a	LTP341	ltpFR2	7	9	n/a	n/a	n/a	n/a	0	0	0
1883295	PROB	n/a	LTP341	ltpFR2	7	n/a	n/a	n/a	15	19	8	7	4
1885394	PROB	n/a	LTP341	ltpFR2	7	n/a	n/a	n/a	15	14	2	5	7
1886543	PROB	n/a	LTP341	ltpFR2	7	n/a	n/a	n/a	15	12	8	1	2
1887376	PROB	n/a	LTP341	ltpFR2	7	n/a	n/a	n/a	15	18	6	4	8
1889258	PROB	n/a	LTP341	ltpFR2	7	n/a	n/a	n/a	15	13	1	5	7
1890458	PROB	n/a	LTP341	ltpFR2	7	n/a	n/a	n/a	15	13	6	5	2
1891607	PROB	n/a	LTP341	ltpFR2	7	n/a	n/a	n/a	15	14	4	9	2
1893207	PROB	n/a	LTP341	ltpFR2	7	n/a	n/a	n/a	15	8	2	2	4
1894639	PROB	n/a	LTP341	ltpFR2	7	n/a	n/a	n/a	15	11	8	1	2
1896255	PROB	n/a	LTP341	ltpFR2	7	n/a	n/a	n/a	15	10	1	3	6
1897688	PROB	n/a	LTP341	ltpFR2	7	n/a	n/a	n/a	15	17	9	6	2
1899055	PROB	n/a	LTP341	ltpFR2	7	n/a	n/a	n/a	15	16	4	4	8
1900303	PROB	n/a	LTP341	ltpFR2	7	n/a	n/a	n/a	15	14	2	4	8
1901486	PROB	n/a	LTP341	ltpFR2	7	n/a	n/a	n/a	15	16	1	7	8
1902652	PROB	n/a	LTP341	ltpFR2	7	n/a	n/a	n/a	15	154	5	8	1
1905857	STOP	n/a	LTP341	ltpFR2	7	n/a	n/a	n/a	15	n/a	n/a	n/a	n/a
1908284	REC_START	n/a	LTP341	ltpFR2	7	9	n/a	n/a	n/a	n/a	0	0	0
1908899	REC_WORD	wordpools/wasnorm_wordpool_576.txt	LTP341	ltpFR2	7	9	BEEF	113	n/a	n/a	0	0	0
1909365	REC_WORD	wordpools/wasnorm_wordpool_576.txt	LTP341	ltpFR2	7	9	ANKLE	24	n/a	n/a	0	0	0
1909953	REC_WORD	wordpools/wasnorm_wordpool_576.txt	LTP341	ltpFR2	7	9	CLOUD	328	n/a	n/a	0	0	0
1911380	REC_WORD	wordpools/wasnorm_wordpool_576.txt	LTP341	ltpFR2	7	9	SISTER	1312	n/a	n/a	0	0	0
1912065	REC_WORD	wordpools/wasnorm_wordpool_576.txt	LTP341	ltpFR2	7	9	BROTHER	179	n/a	n/a	0	0	0
1912841	REC_WORD	wordpools/wasnorm_wordpool_576.txt	LTP341	ltpFR2	7	9	DAUGHTER	442	n/a	n/a	0	0	0
1914449	REC_WORD	wordpools/wasnorm_wordpool_576.txt	LTP341	ltpFR2	7	9	HUMAN	726	n/a	n/a	0	0	0
1915003	REC_WORD	wordpools/wasnorm_wordpool_576.txt	LTP341	ltpFR2	7	9	STOMACH	1384	n/a	n/a	0	0	0
1921230	REC_WORD	wordpools/wasnorm_wordpool_576.txt	LTP341	ltpFR2	7	9	MOP	916	n/a	n/a	0	0	0
1921898	REC_WORD	wordpools/wasnorm_wordpool_576.txt	LTP341	ltpFR2	7	9	PROTON	1132	n/a	n/a	0	0	0
1923395	REC_WORD	wordpools/wasnorm_wordpool_576.txt	LTP341	ltpFR2	7	9	ATOM	55	n/a	n/a	0	0	0
1935806	REC_WORD	wordpools/wasnorm_wordpool_576.txt	LTP341	ltpFR2	7	9	VALVE	1546	n/a	n/a	0	0	0
1936620	REC_WORD	wordpools/wasnorm_wordpool_576.txt	LTP341	ltpFR2	7	9	BUBBLE	183	n/a	n/a	0	0	0
1998709	DISTRACTOR	n/a	LTP341	ltpFR2	7	10	n/a	n/a	n/a	n/a	0	0	0
1998709	START	n/a	LTP341	ltpFR2	7	n/a	n/a	n/a	16	n/a	n/a	n/a	n/a
1998725	PROB	n/a	LTP341	ltpFR2	7	n/a	n/a	n/a	16	19	2	9	8
2000558	PROB	n/a	LTP341	ltpFR2	7	n/a	n/a	n/a	16	19	9	2	8
2002091	PROB	n/a	LTP341	ltpFR2	7	n/a	n/a	n/a	16	17	4	7	6
2003840	PROB	n/a	LTP341	ltpFR2	7	n/a	n/a	n/a	16	10	2	3	5
2005272	PROB	n/a	LTP341	ltpFR2	7	n/a	n/a	n/a	16	22	6	8	8
2006988	PROB	n/a	LTP341	ltpFR2	7	n/a	n/a	n/a	16	16	8	1	7
2008039	PROB	n/a	LTP341	ltpFR2	7	n/a	n/a	n/a	16	11	7	1	3
2008854	PROB	n/a	LTP341	ltpFR2	7	n/a	n/a	n/a	16	16	9	6	1
2009870	PROB	n/a	LTP341	ltpFR2	7	n/a	n/a	n/a	16	19	9	6	4
2010937	PROB	n/a	LTP341	ltpFR2	7	n/a	n/a	n/a	16	14	3	8	3
2012286	PROB	n/a	LTP341	ltpFR2	7	n/a	n/a	n/a	16	12	1	5	6
2014485	PROB	n/a	LTP341	ltpFR2	7	n/a	n/a	n/a	16	12	5	2	5
2015601	PROB	n/a	LTP341	ltpFR2	7	n/a	n/a	n/a	16	16	8	6	2
2017117	PROB	n/a	LTP341	ltpFR2	7	n/a	n/a	n/a	16	16	6	8	2
2018316	PROB	n/a	LTP341	ltpFR2	7	n/a	n/a	n/a	16	12	5	6	1
2019183	PROB	n/a	LTP341	ltpFR2	7	n/a	n/a	n/a	16	16	7	5	4
2020482	PROB	n/a	LTP341	ltpFR2	7	n/a	n/a	n/a	16	14	5	8	1
2021684	STOP	n/a	LTP341	ltpFR2	7	n/a	n/a	n/a	16	n/a	n/a	n/a	n/a
2023831	WORD	wordpools/wasnorm_wordpool_576.txt	LTP341	ltpFR2	7	10	PASTA	1021	n/a	n/a	0	0	0
2026280	WORD	wordpools/wasnorm_wordpool_576.txt	LTP341	ltpFR2	7	10	TYPIST	1532	n/a	n/a	0	0	0
2028828	WORD	wordpools/wasnorm_wordpool_576.txt	LTP341	ltpFR2	7	10	FOOTBALL	591	n/a	n/a	0	0	0
2031511	WORD	wordpools/wasnorm_wordpool_576.txt	LTP341	ltpFR2	7	10	SWAMP	1416	n/a	n/a	0	0	0
2034226	WORD	wordpools/wasnorm_wordpool_576.txt	LTP341	ltpFR2	7	10	HIGHWAY	707	n/a	n/a	0	0	0
2036858	WORD	wordpools/wasnorm_wordpool_576.txt	LTP341	ltpFR2	7	10	UNCLE	1536	n/a	n/a	0	0	0
2039290	WORD	wordpools/wasnorm_wordpool_576.txt	LTP341	ltpFR2	7	10	SHORTCAKE	1292	n/a	n/a	0	0	0
2041756	WORD	wordpools/wasnorm_wordpool_576.txt	LTP341	ltpFR2	7	10	MAMMAL	861	n/a	n/a	0	0	0
2044455	WORD	wordpools/wasnorm_wordpool_576.txt	LTP341	ltpFR2	7	10	PUPPY	1144	n/a	n/a	0	0	0
2047270	WORD	wordpools/wasnorm_wordpool_576.txt	LTP341	ltpFR2	7	10	COMET	353	n/a	n/a	0	0	0
2050020	WORD	wordpools/wasnorm_wordpool_576.txt	LTP341	ltpFR2	7	10	ISLAND	745	n/a	n/a	0	0	0
2052734	WORD	wordpools/wasnorm_wordpool_576.txt	LTP341	ltpFR2	7	10	SEAGULL	1261	n/a	n/a	0	0	0
2055233	WORD	wordpools/wasnorm_wordpool_576.txt	LTP341	ltpFR2	7	10	WASP	1593	n/a	n/a	0	0	0
2058066	WORD	wordpools/wasnorm_wordpool_576.txt	LTP341	ltpFR2	7	10	GOBLIN	645	n/a	n/a	0	0	0
2060780	WORD	wordpools/wasnorm_wordpool_576.txt	LTP341	ltpFR2	7	10	TUTU	1524	n/a	n/a	0	0	0
2063346	WORD	wordpools/wasnorm_wordpool_576.txt	LTP341	ltpFR2	7	10	AIRPORT	13	n/a	n/a	0	0	0
2065912	WORD	wordpools/wasnorm_wordpool_576.txt	LTP341	ltpFR2	7	10	DRESSER	496	n/a	n/a	0	0	0
2068560	WORD	wordpools/wasnorm_wordpool_576.txt	LTP341	ltpFR2	7	10	MAILMAN	858	n/a	n/a	0	0	0
2071259	WORD	wordpools/wasnorm_wordpool_576.txt	LTP341	ltpFR2	7	10	COUSIN	392	n/a	n/a	0	0	0
2073741	WORD	wordpools/wasnorm_wordpool_576.txt	LTP341	ltpFR2	7	10	CATCHER	258	n/a	n/a	0	0	0
2076273	WORD	wordpools/wasnorm_wordpool_576.txt	LTP341	ltpFR2	7	10	DINER	467	n/a	n/a	0	0	0
2078739	WORD	wordpools/wasnorm_wordpool_576.txt	LTP341	ltpFR2	7	10	SNACK	1331	n/a	n/a	0	0	0
2081471	WORD	wordpools/wasnorm_wordpool_576.txt	LTP341	ltpFR2	7	10	KLEENEX	782	n/a	n/a	0	0	0
2084003	WORD	wordpools/wasnorm_wordpool_576.txt	LTP341	ltpFR2	7	10	PAPER	1011	n/a	n/a	0	0	0
2085619	START	n/a	LTP341	ltpFR2	7	n/a	n/a	n/a	17	n/a	n/a	n/a	n/a
2086732	DISTRACTOR	n/a	LTP341	ltpFR2	7	10	n/a	n/a	n/a	n/a	0	0	0
2086735	PROB	n/a	LTP341	ltpFR2	7	n/a	n/a	n/a	17	17	6	6	5
2088884	PROB	n/a	LTP341	ltpFR2	7	n/a	n/a	n/a	17	19	7	6	6
2090251	PROB	n/a	LTP341	ltpFR2	7	n/a	n/a	n/a	17	16	5	4	7
2091333	PROB	n/a	LTP341	ltpFR2	7	n/a	n/a	n/a	17	24	6	9	9
2093366	PROB	n/a	LTP341	ltpFR2	7	n/a	n/a	n/a	17	19	5	6	8
2094482	PROB	n/a	LTP341	ltpFR2	7	n/a	n/a	n/a	17	13	3	9	1
2095398	PROB	n/a	LTP341	ltpFR2	7	n/a	n/a	n/a	17	16	7	9	3
2096797	PROB	n/a	LTP341	ltpFR2	7	n/a	n/a	n/a	17	14	3	3	9
2097930	PROB	n/a	LTP341	ltpFR2	7	n/a	n/a	n/a	17	12	2	1	9
2099196	PROB	n/a	LTP341	ltpFR2	7	n/a	n/a	n/a	17	13	2	8	3
2100679	PROB	n/a	LTP341	ltpFR2	7	n/a	n/a	n/a	17	20	5	8	7
2101912	PROB	n/a	LTP341	ltpFR2	7	n/a	n/a	n/a	17	14	8	2	4
2102995	PROB	n/a	LTP341	ltpFR2	7	n/a	n/a	n/a	17	18	8	2	8
2104227	PROB	n/a	LTP341	ltpFR2	7	n/a	n/a	n/a	17	16	5	9	2
2105310	PROB	n/a	LTP341	ltpFR2	7	n/a	n/a	n/a	17	17	8	2	7
2106426	PROB	n/a	LTP341	ltpFR2	7	n/a	n/a	n/a	17	22	9	8	5
2107693	PROB	n/a	LTP341	ltpFR2	7	n/a	n/a	n/a	17	23	9	6	8
2108999	STOP	n/a	LTP341	ltpFR2	7	n/a	n/a	n/a	17	n/a	n/a	n/a	n/a
2111558	REC_START	n/a	LTP341	ltpFR2	7	10	n/a	n/a	n/a	n/a	0	0	0
2113930	REC_WORD	wordpools/wasnorm_wordpool_576.txt	LTP341	ltpFR2	7	10	COUSIN	392	n/a	n/a	0	0	0
2116666	REC_WORD	wordpools/wasnorm_wordpool_576.txt	LTP341	ltpFR2	7	10	DINER	467	n/a	n/a	0	0	0
2117942	REC_WORD	wordpools/wasnorm_wordpool_576.txt	LTP341	ltpFR2	7	10	SNACK	1331	n/a	n/a	0	0	0
2119233	REC_WORD	wordpools/wasnorm_wordpool_576.txt	LTP341	ltpFR2	7	10	CATCHER	258	n/a	n/a	0	0	0
2125393	REC_WORD	wordpools/wasnorm_wordpool_576.txt	LTP341	ltpFR2	7	10	TYPIST	1532	n/a	n/a	0	0	0
2126223	REC_WORD	wordpools/wasnorm_wordpool_576.txt	LTP341	ltpFR2	7	10	PASTA	1021	n/a	n/a	0	0	0
2127015	REC_WORD	wordpools/wasnorm_wordpool_576.txt	LTP341	ltpFR2	7	10	FOOTBALL	591	n/a	n/a	0	0	0
2128481	REC_WORD	wordpools/wasnorm_wordpool_576.txt	LTP341	ltpFR2	7	10	HIGHWAY	707	n/a	n/a	0	0	0
2129598	REC_WORD	wordpools/wasnorm_wordpool_576.txt	LTP341	ltpFR2	7	10	AIRPORT	13	n/a	n/a	0	0	0
2130561	REC_WORD	wordpools/wasnorm_wordpool_576.txt	LTP341	ltpFR2	7	10	UNCLE	1536	n/a	n/a	0	0	0
2131768	REC_WORD	wordpools/wasnorm_wordpool_576.txt	LTP341	ltpFR2	7	10	SHORTCAKE	1292	n/a	n/a	0	0	0
2134401	REC_WORD	wordpools/wasnorm_wordpool_576.txt	LTP341	ltpFR2	7	10	SEAGULL	1261	n/a	n/a	0	0	0
2135294	REC_WORD	wordpools/wasnorm_wordpool_576.txt	LTP341	ltpFR2	7	10	ISLAND	745	n/a	n/a	0	0	0
2136332	REC_WORD	wordpools/wasnorm_wordpool_576.txt	LTP341	ltpFR2	7	10	GOBLIN	645	n/a	n/a	0	0	0
2201983	DISTRACTOR	n/a	LTP341	ltpFR2	7	11	n/a	n/a	n/a	n/a	0	0	0
2201983	START	n/a	LTP341	ltpFR2	7	n/a	n/a	n/a	18	n/a	n/a	n/a	n/a
2202000	PROB	n/a	LTP341	ltpFR2	7	n/a	n/a	n/a	18	11	5	5	1
2204482	PROB	n/a	LTP341	ltpFR2	7	n/a	n/a	n/a	18	13	1	6	6
2205481	PROB	n/a	LTP341	ltpFR2	7	n/a	n/a	n/a	18	12	2	1	9
2206281	PROB	n/a	LTP341	ltpFR2	7	n/a	n/a	n/a	18	14	4	4	6
2208413	PROB	n/a	LTP341	ltpFR2	7	n/a	n/a	n/a	18	20	8	4	8
2209913	PROB	n/a	LTP341	ltpFR2	7	n/a	n/a	n/a	18	18	6	9	3
2211579	PROB	n/a	LTP341	ltpFR2	7	n/a	n/a	n/a	18	19	9	9	1
2212861	PROB	n/a	LTP341	ltpFR2	7	n/a	n/a	n/a	18	16	7	8	1
2214012	PROB	n/a	LTP341	ltpFR2	7	n/a	n/a	n/a	18	19	8	6	5
2215394	PROB	n/a	LTP341	ltpFR2	7	n/a	n/a	n/a	18	12	2	3	7
2216443	PROB	n/a	LTP341	ltpFR2	7	n/a	n/a	n/a	18	15	4	7	4
2218010	PROB	n/a	LTP341	ltpFR2	7	n/a	n/a	n/a	18	12	4	3	5
2219209	PROB	n/a	LTP341	ltpFR2	7	n/a	n/a	n/a	18	11	6	1	4
2220026	PROB	n/a	LTP341	ltpFR2	7	n/a	n/a	n/a	18	10	1	8	1
2221074	PROB	n/a	LTP341	ltpFR2	7	n/a	n/a	n/a	18	6	2	2	2
2222157	PROB	n/a	LTP341	ltpFR2	7	n/a	n/a	n/a	18	17	4	9	4
2224156	PROB	n/a	LTP341	ltpFR2	7	n/a	n/a	n/a	18	20	2	9	9
2225298	STOP	n/a	LTP341	ltpFR2	7	n/a	n/a	n/a	18	n/a	n/a	n/a	n/a
2227088	WORD	wordpools/wasnorm_wordpool_576.txt	LTP341	ltpFR2	7	11	RUG	1215	n/a	n/a	0	0	0
2229637	WORD	wordpools/wasnorm_wordpool_576.txt	LTP341	ltpFR2	7	11	TEMPLE	1448	n/a	n/a	0	0	0
2232386	WORD	wordpools/wasnorm_wordpool_576.txt	LTP341	ltpFR2	7	11	BANKER	84	n/a	n/a	0	0	0
2234835	WORD	wordpools/wasnorm_wordpool_576.txt	LTP341	ltpFR2	7	11	JOURNAL	760	n/a	n/a	0	0	0
2237634	WORD	wordpools/wasnorm_wordpool_576.txt	LTP341	ltpFR2	7	11	SCARECROW	1245	n/a	n/a	0	0	0
2240082	WORD	wordpools/wasnorm_wordpool_576.txt	LTP341	ltpFR2	7	11	BULLET	194	n/a	n/a	0	0	0
2242898	WORD	wordpools/wasnorm_wordpool_576.txt	LTP341	ltpFR2	7	11	HOOD	714	n/a	n/a	0	0	0
2245613	WORD	wordpools/wasnorm_wordpool_576.txt	LTP341	ltpFR2	7	11	SPARROW	1347	n/a	n/a	0	0	0
2248345	WORD	wordpools/wasnorm_wordpool_576.txt	LTP341	ltpFR2	7	11	BLADE	134	n/a	n/a	0	0	0
2251161	WORD	wordpools/wasnorm_wordpool_576.txt	LTP341	ltpFR2	7	11	SPHINX	1349	n/a	n/a	0	0	0
2253626	WORD	wordpools/wasnorm_wordpool_576.txt	LTP341	ltpFR2	7	11	CLIMBER	323	n/a	n/a	0	0	0
2256158	WORD	wordpools/wasnorm_wordpool_576.txt	LTP341	ltpFR2	7	11	SUMMIT	1405	n/a	n/a	0	0	0
2258957	WORD	wordpools/wasnorm_wordpool_576.txt	LTP341	ltpFR2	7	11	BATHTUB	100	n/a	n/a	0	0	0
2261423	WORD	wordpools/wasnorm_wordpool_576.txt	LTP341	ltpFR2	7	11	SPONGE	1355	n/a	n/a	0	0	0
2263872	WORD	wordpools/wasnorm_wordpool_576.txt	LTP341	ltpFR2	7	11	PALACE	1006	n/a	n/a	0	0	0
2266371	WORD	wordpools/wasnorm_wordpool_576.txt	LTP341	ltpFR2	7	11	DENTIST	447	n/a	n/a	0	0	0
2269037	WORD	wordpools/wasnorm_wordpool_576.txt	LTP341	ltpFR2	7	11	TURNIP	1521	n/a	n/a	0	0	0
2271668	WORD	wordpools/wasnorm_wordpool_576.txt	LTP341	ltpFR2	7	11	CHILD	299	n/a	n/a	0	0	0
2274284	WORD	wordpools/wasnorm_wordpool_576.txt	LTP341	ltpFR2	7	11	RAZOR	1171	n/a	n/a	0	0	0
2276916	WORD	wordpools/wasnorm_wordpool_576.txt	LTP341	ltpFR2	7	11	CLOCK	325	n/a	n/a	0	0	0
2279548	WORD	wordpools/wasnorm_wordpool_576.txt	LTP341	ltpFR2	7	11	MARINE	869	n/a	n/a	0	0	0
2282113	WORD	wordpools/wasnorm_wordpool_576.txt	LTP341	ltpFR2	7	11	BEAVER	109	n/a	n/a	0	0	0
2284895	WORD	wordpools/wasnorm_wordpool_576.txt	LTP341	ltpFR2	7	11	MUMMY	932	n/a	n/a	0	0	0
2287461	WORD	wordpools/wasnorm_wordpool_576.txt	LTP341	ltpFR2	7	11	LUGGAGE	847	n/a	n/a	0	0	0
2289078	START	n/a	LTP341	ltpFR2	7	n/a	n/a	n/a	19	n/a	n/a	n/a	n/a
2290096	DISTRACTOR	n/a	LTP341	ltpFR2	7	11	n/a	n/a	n/a	n/a	0	0	0
2290110	PROB	n/a	LTP341	ltpFR2	7	n/a	n/a	n/a	19	13	4	4	5
2292708	PROB	n/a	LTP341	ltpFR2	7	n/a	n/a	n/a	19	5	1	2	2
2293925	PROB	n/a	LTP341	ltpFR2	7	n/a	n/a	n/a	19	18	2	9	7
2295291	PROB	n/a	LTP341	ltpFR2	7	n/a	n/a	n/a	19	12	2	1	9
2296423	PROB	n/a	LTP341	ltpFR2	7	n/a	n/a	n/a	19	17	9	2	6
2298572	PROB	n/a	LTP341	ltpFR2	7	n/a	n/a	n/a	19	17	6	5	6
2300322	PROB	n/a	LTP341	ltpFR2	7	n/a	n/a	n/a	19	14	9	3	2
2301671	PROB	n/a	LTP341	ltpFR2	7	n/a	n/a	n/a	19	18	6	5	7
2302904	PROB	n/a	LTP341	ltpFR2	7	n/a	n/a	n/a	19	10	4	3	3
2304103	PROB	n/a	LTP341	ltpFR2	7	n/a	n/a	n/a	19	16	4	6	6
2306070	PROB	n/a	LTP341	ltpFR2	7	n/a	n/a	n/a	19	23	7	6	9
2307818	PROB	n/a	LTP341	ltpFR2	7	n/a	n/a	n/a	19	20	9	6	5
2309567	PROB	n/a	LTP341	ltpFR2	7	n/a	n/a	n/a	19	19	6	7	6
2311283	PROB	n/a	LTP341	ltpFR2	7	n/a	n/a	n/a	19	14	5	6	3
2312653	STOP	n/a	LTP341	ltpFR2	7	n/a	n/a	n/a	19	n/a	n/a	n/a	n/a
2314899	REC_START	n/a	LTP341	ltpFR2	7	11	n/a	n/a	n/a	n/a	0	0	0
2315316	REC_WORD	wordpools/wasnorm_wordpool_576.txt	LTP341	ltpFR2	7	11	MARINE	869	n/a	n/a	0	0	0
2315931	REC_WORD	wordpools/wasnorm_wordpool_576.txt	LTP341	ltpFR2	7	11	BEAVER	109	n/a	n/a	0	0	0
2316585	REC_WORD	wordpools/wasnorm_wordpool_576.txt	LTP341	ltpFR2	7	11	MUMMY	932	n/a	n/a	0	0	0
2317263	REC_WORD	wordpools/wasnorm_wordpool_576.txt	LTP341	ltpFR2	7	11	LUGGAGE	847	n/a	n/a	0	0	0
2320823	REC_WORD	wordpools/wasnorm_wordpool_576.txt	LTP341	ltpFR2	7	11	TEMPLE	1448	n/a	n/a	0	0	0
2321576	REC_WORD	wordpools/wasnorm_wordpool_576.txt	LTP341	ltpFR2	7	11	RUG	1215	n/a	n/a	0	0	0
2322445	REC_WORD	wordpools/wasnorm_wordpool_576.txt	LTP341	ltpFR2	7	11	BANKER	84	n/a	n/a	0	0	0
2340739	REC_WORD	wordpools/wasnorm_wordpool_576.txt	LTP341	ltpFR2	7	11	DENTIST	447	n/a	n/a	0	0	0
2386046	REC_WORD	wordpools/wasnorm_wordpool_576.txt	LTP341	ltpFR2	7	11	CLIMBER	323	n/a	n/a	0	0	0
2386725	REC_WORD	wordpools/wasnorm_wordpool_576.txt	LTP341	ltpFR2	7	11	SUMMIT	1405	n/a	n/a	0	0	0
2405341	WORD	wordpools/wasnorm_wordpool_576.txt	LTP341	ltpFR2	7	12	TOMBSTONE	1478	n/a	n/a	0	0	0
2408123	WORD	wordpools/wasnorm_wordpool_576.txt	LTP341	ltpFR2	7	12	DUSTPAN	509	n/a	n/a	0	0	0
2410771	WORD	wordpools/wasnorm_wordpool_576.txt	LTP341	ltpFR2	7	12	JUNGLE	764	n/a	n/a	0	0	0
2413454	WORD	wordpools/wasnorm_wordpool_576.txt	LTP341	ltpFR2	7	12	ELBOW	520	n/a	n/a	0	0	0
2415969	WORD	wordpools/wasnorm_wordpool_576.txt	LTP341	ltpFR2	7	12	CRUTCH	417	n/a	n/a	0	0	0
2418635	WORD	wordpools/wasnorm_wordpool_576.txt	LTP341	ltpFR2	7	12	OINTMENT	974	n/a	n/a	0	0	0
2421167	WORD	wordpools/wasnorm_wordpool_576.txt	LTP341	ltpFR2	7	12	TILE	1468	n/a	n/a	0	0	0
2423632	WORD	wordpools/wasnorm_wordpool_576.txt	LTP341	ltpFR2	7	12	PLAID	1080	n/a	n/a	0	0	0
2426198	WORD	wordpools/wasnorm_wordpool_576.txt	LTP341	ltpFR2	7	12	COSTUME	383	n/a	n/a	0	0	0
2428697	WORD	wordpools/wasnorm_wordpool_576.txt	LTP341	ltpFR2	7	12	ZEBRA	1635	n/a	n/a	0	0	0
2431279	WORD	wordpools/wasnorm_wordpool_576.txt	LTP341	ltpFR2	7	12	LEG	809	n/a	n/a	0	0	0
2433861	WORD	wordpools/wasnorm_wordpool_576.txt	LTP341	ltpFR2	7	12	POLICE	1098	n/a	n/a	0	0	0
2436660	WORD	wordpools/wasnorm_wordpool_576.txt	LTP341	ltpFR2	7	12	DUST	508	n/a	n/a	0	0	0
2439142	WORD	wordpools/wasnorm_wordpool_576.txt	LTP341	ltpFR2	7	12	CHURCH	307	n/a	n/a	0	0	0
2441674	WORD	wordpools/wasnorm_wordpool_576.txt	LTP341	ltpFR2	7	12	FRUIT	610	n/a	n/a	0	0	0
2444256	WORD	wordpools/wasnorm_wordpool_576.txt	LTP341	ltpFR2	7	12	WOMAN	1620	n/a	n/a	0	0	0
2446888	WORD	wordpools/wasnorm_wordpool_576.txt	LTP341	ltpFR2	7	12	JELLY	755	n/a	n/a	0	0	0
2449471	WORD	wordpools/wasnorm_wordpool_576.txt	LTP341	ltpFR2	7	12	HOSTESS	723	n/a	n/a	0	0	0
2452020	WORD	wordpools/wasnorm_wordpool_576.txt	LTP341	ltpFR2	7	12	PEACH	1031	n/a	n/a	0	0	0
2454485	WORD	wordpools/wasnorm_wordpool_576.txt	LTP341	ltpFR2	7	12	ANTLER	29	n/a	n/a	0	0	0
2457300	WORD	wordpools/wasnorm_wordpool_576.txt	LTP341	ltpFR2	7	12	BUGGY	188	n/a	n/a	0	0	0
2459866	WORD	wordpools/wasnorm_wordpool_576.txt	LTP341	ltpFR2	7	12	MILDEW	893	n/a	n/a	0	0	0
2462365	WORD	wordpools/wasnorm_wordpool_576.txt	LTP341	ltpFR2	7	12	BURGLAR	200	n/a	n/a	0	0	0
2465064	WORD	wordpools/wasnorm_wordpool_576.txt	LTP341	ltpFR2	7	12	OUTLAW	989	n/a	n/a	0	0	0
2466680	START	n/a	LTP341	ltpFR2	7	n/a	n/a	n/a	20	n/a	n/a	n/a	n/a
2467608	DISTRACTOR	n/a	LTP341	ltpFR2	7	12	n/a	n/a	n/a	n/a	0	0	0
2467612	PROB	n/a	LTP341	ltpFR2	7	n/a	n/a	n/a	20	3	1	1	1
2469645	PROB	n/a	LTP341	ltpFR2	7	n/a	n/a	n/a	20	16	5	7	4
2473776	PROB	n/a	LTP341	ltpFR2	7	n/a	n/a	n/a	20	19	3	7	9
2474892	PROB	n/a	LTP341	ltpFR2	7	n/a	n/a	n/a	20	12	7	4	1
2475809	PROB	n/a	LTP341	ltpFR2	7	n/a	n/a	n/a	20	17	7	8	2
2477091	PROB	n/a	LTP341	ltpFR2	7	n/a	n/a	n/a	20	19	6	4	9
2478274	PROB	n/a	LTP341	ltpFR2	7	n/a	n/a	n/a	20	16	6	4	6
2479923	PROB	n/a	LTP341	ltpFR2	7	n/a	n/a	n/a	20	8	1	5	2
2481123	PROB	n/a	LTP341	ltpFR2	7	n/a	n/a	n/a	20	15	3	5	7
2483255	PROB	n/a	LTP341	ltpFR2	7	n/a	n/a	n/a	20	7	1	2	4
2484405	PROB	n/a	LTP341	ltpFR2	7	n/a	n/a	n/a	20	8	1	5	2
2485871	PROB	n/a	LTP341	ltpFR2	7	n/a	n/a	n/a	20	6	2	1	3
2486987	PROB	n/a	LTP341	ltpFR2	7	n/a	n/a	n/a	20	17	7	3	7
2488520	PROB	n/a	LTP341	ltpFR2	7	n/a	n/a	n/a	20	19	9	5	5
2489618	STOP	n/a	LTP341	ltpFR2	7	n/a	n/a	n/a	20	n/a	n/a	n/a	n/a
2492618	REC_START	n/a	LTP341	ltpFR2	7	12	n/a	n/a	n/a	n/a	0	0	0
2493026	REC_WORD	wordpools/wasnorm_wordpool_576.txt	LTP341	ltpFR2	7	12	ANTLER	29	n/a	n/a	0	0	0
2493872	REC_WORD	wordpools/wasnorm_wordpool_576.txt	LTP341	ltpFR2	7	12	BUGGY	188	n/a	n/a	0	0	0
2495649	REC_WORD	wordpools/wasnorm_wordpool_576.txt	LTP341	ltpFR2	7	12	MILDEW	893	n/a	n/a	0	0	0
2496370	REC_WORD	wordpools/wasnorm_wordpool_576.txt	LTP341	ltpFR2	7	12	OUTLAW	989	n/a	n/a	0	0	0
2501301	REC_WORD	wordpools/wasnorm_wordpool_576.txt	LTP341	ltpFR2	7	12	TOMBSTONE	1478	n/a	n/a	0	0	0
2502476	REC_WORD	wordpools/wasnorm_wordpool_576.txt	LTP341	ltpFR2	7	12	DUSTPAN	509	n/a	n/a	0	0	0
2505234	REC_WORD	wordpools/wasnorm_wordpool_576.txt	LTP341	ltpFR2	7	12	JUNGLE	764	n/a	n/a	0	0	0
2511381	REC_WORD	wordpools/wasnorm_wordpool_576.txt	LTP341	ltpFR2	7	12	ZEBRA	1635	n/a	n/a	0	0	0
2512074	REC_WORD	wordpools/wasnorm_wordpool_576.txt	LTP341	ltpFR2	7	12	COSTUME	383	n/a	n/a	0	0	0
2513034	REC_WORD	wordpools/wasnorm_wordpool_576.txt	LTP341	ltpFR2	7	12	LEG	809	n/a	n/a	0	0	0
2583061	DISTRACTOR	n/a	LTP341	ltpFR2	7	13	n/a	n/a	n/a	n/a	0	0	0
2583061	START	n/a	LTP341	ltpFR2	7	n/a	n/a	n/a	21	n/a	n/a	n/a	n/a
2583077	PROB	n/a	LTP341	ltpFR2	7	n/a	n/a	n/a	21	19	9	4	6
2584809	PROB	n/a	LTP341	ltpFR2	7	n/a	n/a	n/a	21	14	7	4	3
2586043	PROB	n/a	LTP341	ltpFR2	7	n/a	n/a	n/a	21	18	5	8	5
2587508	PROB	n/a	LTP341	ltpFR2	7	n/a	n/a	n/a	21	13	3	8	2
2588591	PROB	n/a	LTP341	ltpFR2	7	n/a	n/a	n/a	21	21	6	9	6
2589990	PROB	n/a	LTP341	ltpFR2	7	n/a	n/a	n/a	21	11	3	5	3
2591373	PROB	n/a	LTP341	ltpFR2	7	n/a	n/a	n/a	21	23	6	7	9
2592789	PROB	n/a	LTP341	ltpFR2	7	n/a	n/a	n/a	21	16	5	6	5
2594105	PROB	n/a	LTP341	ltpFR2	7	n/a	n/a	n/a	21	123	9	8	6
2595904	PROB	n/a	LTP341	ltpFR2	7	n/a	n/a	n/a	21	16	5	9	2
2599054	PROB	n/a	LTP341	ltpFR2	7	n/a	n/a	n/a	21	21	6	8	7
2600652	PROB	n/a	LTP341	ltpFR2	7	n/a	n/a	n/a	21	19	3	7	9
2601718	PROB	n/a	LTP341	ltpFR2	7	n/a	n/a	n/a	21	9	5	3	1
2602668	PROB	n/a	LTP341	ltpFR2	7	n/a	n/a	n/a	21	14	4	2	8
2603801	PROB	n/a	LTP341	ltpFR2	7	n/a	n/a	n/a	21	18	7	3	8
2605316	PROB	n/a	LTP341	ltpFR2	7	n/a	n/a	n/a	21	17	7	5	5
2606366	STOP	n/a	LTP341	ltpFR2	7	n/a	n/a	n/a	21	n/a	n/a	n/a	n/a
2608216	WORD	wordpools/wasnorm_wordpool_576.txt	LTP341	ltpFR2	7	13	SNAIL	1332	n/a	n/a	0	0	0
2610697	WORD	wordpools/wasnorm_wordpool_576.txt	LTP341	ltpFR2	7	13	TRANSPLANT	1496	n/a	n/a	0	0	0
2613130	WORD	wordpools/wasnorm_wordpool_576.txt	LTP341	ltpFR2	7	13	THREAD	1460	n/a	n/a	0	0	0
2615745	WORD	wordpools/wasnorm_wordpool_576.txt	LTP341	ltpFR2	7	13	CABBAGE	210	n/a	n/a	0	0	0
2618394	WORD	wordpools/wasnorm_wordpool_576.txt	LTP341	ltpFR2	7	13	BANQUET	86	n/a	n/a	0	0	0
2620943	WORD	wordpools/wasnorm_wordpool_576.txt	LTP341	ltpFR2	7	13	ARM	38	n/a	n/a	0	0	0
2623692	WORD	wordpools/wasnorm_wordpool_576.txt	LTP341	ltpFR2	7	13	LIVER	833	n/a	n/a	0	0	0
2626424	WORD	wordpools/wasnorm_wordpool_576.txt	LTP341	ltpFR2	7	13	CITRUS	313	n/a	n/a	0	0	0
2629023	WORD	wordpools/wasnorm_wordpool_576.txt	LTP341	ltpFR2	7	13	ORANGE	980	n/a	n/a	0	0	0
2631654	WORD	wordpools/wasnorm_wordpool_576.txt	LTP341	ltpFR2	7	13	CATTLE	261	n/a	n/a	0	0	0
2634137	WORD	wordpools/wasnorm_wordpool_576.txt	LTP341	ltpFR2	7	13	GRAVE	658	n/a	n/a	0	0	0
2636636	WORD	wordpools/wasnorm_wordpool_576.txt	LTP341	ltpFR2	7	13	SLIME	1327	n/a	n/a	0	0	0
2639134	WORD	wordpools/wasnorm_wordpool_576.txt	LTP341	ltpFR2	7	13	LADDER	793	n/a	n/a	0	0	0
2641767	WORD	wordpools/wasnorm_wordpool_576.txt	LTP341	ltpFR2	7	13	SLOPE	1328	n/a	n/a	0	0	0
2644315	WORD	wordpools/wasnorm_wordpool_576.txt	LTP341	ltpFR2	7	13	PEDAL	1037	n/a	n/a	0	0	0
2646764	WORD	wordpools/wasnorm_wordpool_576.txt	LTP341	ltpFR2	7	13	BUTCHER	203	n/a	n/a	0	0	0
2649213	WORD	wordpools/wasnorm_wordpool_576.txt	LTP341	ltpFR2	7	13	SAUSAGE	1238	n/a	n/a	0	0	0
2651712	WORD	wordpools/wasnorm_wordpool_576.txt	LTP341	ltpFR2	7	13	SCARF	1246	n/a	n/a	0	0	0
2654344	WORD	wordpools/wasnorm_wordpool_576.txt	LTP341	ltpFR2	7	13	TORTOISE	1486	n/a	n/a	0	0	0
2657061	WORD	wordpools/wasnorm_wordpool_576.txt	LTP341	ltpFR2	7	13	RACKET	1155	n/a	n/a	0	0	0
2659708	WORD	wordpools/wasnorm_wordpool_576.txt	LTP341	ltpFR2	7	13	ITEM	746	n/a	n/a	0	0	0
2662174	WORD	wordpools/wasnorm_wordpool_576.txt	LTP341	ltpFR2	7	13	FARMER	553	n/a	n/a	0	0	0
2664956	WORD	wordpools/wasnorm_wordpool_576.txt	LTP341	ltpFR2	7	13	CABIN	211	n/a	n/a	0	0	0
2667388	WORD	wordpools/wasnorm_wordpool_576.txt	LTP341	ltpFR2	7	13	FEMALE	559	n/a	n/a	0	0	0
2669004	START	n/a	LTP341	ltpFR2	7	n/a	n/a	n/a	22	n/a	n/a	n/a	n/a
2669928	DISTRACTOR	n/a	LTP341	ltpFR2	7	13	n/a	n/a	n/a	n/a	0	0	0
2669937	PROB	n/a	LTP341	ltpFR2	7	n/a	n/a	n/a	22	23	7	7	9
2673769	PROB	n/a	LTP341	ltpFR2	7	n/a	n/a	n/a	22	11	8	2	1
2674685	PROB	n/a	LTP341	ltpFR2	7	n/a	n/a	n/a	22	6	1	2	3
2675818	PROB	n/a	LTP341	ltpFR2	7	n/a	n/a	n/a	22	19	9	8	2
2678100	PROB	n/a	LTP341	ltpFR2	7	n/a	n/a	n/a	22	20	2	9	9
2679383	PROB	n/a	LTP341	ltpFR2	7	n/a	n/a	n/a	22	6	1	4	1
2680399	PROB	n/a	LTP341	ltpFR2	7	n/a	n/a	n/a	22	24	9	9	6
2681832	PROB	n/a	LTP341	ltpFR2	7	n/a	n/a	n/a	22	6	2	1	3
2682898	PROB	n/a	LTP341	ltpFR2	7	n/a	n/a	n/a	22	12	7	3	2
2683847	PROB	n/a	LTP341	ltpFR2	7	n/a	n/a	n/a	22	14	5	7	2
2685447	PROB	n/a	LTP341	ltpFR2	7	n/a	n/a	n/a	22	11	7	1	3
2686546	PROB	n/a	LTP341	ltpFR2	7	n/a	n/a	n/a	22	14	3	9	2
2687829	PROB	n/a	LTP341	ltpFR2	7	n/a	n/a	n/a	22	12	1	6	5
2688729	PROB	n/a	LTP341	ltpFR2	7	n/a	n/a	n/a	22	9	3	5	1
2689845	PROB	n/a	LTP341	ltpFR2	7	n/a	n/a	n/a	22	18	2	7	9
2691496	STOP	n/a	LTP341	ltpFR2	7	n/a	n/a	n/a	22	n/a	n/a	n/a	n/a
2694893	REC_START	n/a	LTP341	ltpFR2	7	13	n/a	n/a	n/a	n/a	0	0	0
2695399	REC_WORD	wordpools/wasnorm_wordpool_576.txt	LTP341	ltpFR2	7	13	ITEM	746	n/a	n/a	0	0	0
2695991	REC_WORD	wordpools/wasnorm_wordpool_576.txt	LTP341	ltpFR2	7	13	FARMER	553	n/a	n/a	0	0	0
2696853	REC_WORD	wordpools/wasnorm_wordpool_576.txt	LTP341	ltpFR2	7	13	CABIN	211	n/a	n/a	0	0	0
2697672	REC_WORD	wordpools/wasnorm_wordpool_576.txt	LTP341	ltpFR2	7	13	FEMALE	559	n/a	n/a	0	0	0
2706965	REC_WORD	wordpools/wasnorm_wordpool_576.txt	LTP341	ltpFR2	7	13	BANQUET	86	n/a	n/a	0	0	0
2708892	REC_WORD	wordpools/wasnorm_wordpool_576.txt	LTP341	ltpFR2	7	13	BUTCHER	203	n/a	n/a	0	0	0
2709534	REC_WORD	wordpools/wasnorm_wordpool_576.txt	LTP341	ltpFR2	7	13	SAUSAGE	1238	n/a	n/a	0	0	0
2710924	REC_WORD	wordpools/wasnorm_wordpool_576.txt	LTP341	ltpFR2	7	13	CATTLE	261	n/a	n/a	0	0	0
2712365	REC_WORD	wordpools/wasnorm_wordpool_576.txt	LTP341	ltpFR2	7	13	ARM	38	n/a	n/a	0	0	0
2714678	REC_WORD	wordpools/wasnorm_wordpool_576.txt	LTP341	ltpFR2	7	13	LADDER	793	n/a	n/a	0	0	0
2715864	REC_WORD	wordpools/wasnorm_wordpool_576.txt	LTP341	ltpFR2	7	13	SLOPE	1328	n/a	n/a	0	0	0
2718119	REC_WORD	wordpools/wasnorm_wordpool_576.txt	LTP341	ltpFR2	7	13	PADDLE	1000	n/a	n/a	0	0	0
2729183	REC_WORD	wordpools/wasnorm_wordpool_576.txt	LTP341	ltpFR2	7	13	TRANSPLANT	1496	n/a	n/a	0	0	0
2730537	REC_WORD	wordpools/wasnorm_wordpool_576.txt	LTP341	ltpFR2	7	13	CABBAGE	210	n/a	n/a	0	0	0
2785351	DISTRACTOR	n/a	LTP341	ltpFR2	7	14	n/a	n/a	n/a	n/a	0	0	0
2785352	START	n/a	LTP341	ltpFR2	7	n/a	n/a	n/a	23	n/a	n/a	n/a	n/a
2785368	PROB	n/a	LTP341	ltpFR2	7	n/a	n/a	n/a	23	2	9	9	5
2787052	PROB	n/a	LTP341	ltpFR2	7	n/a	n/a	n/a	23	16	6	1	9
2788283	PROB	n/a	LTP341	ltpFR2	7	n/a	n/a	n/a	23	15	7	5	3
2790233	PROB	n/a	LTP341	ltpFR2	7	n/a	n/a	n/a	23	1	5	2	9
2791732	PROB	n/a	LTP341	ltpFR2	7	n/a	n/a	n/a	23	21	7	8	6
2794131	PROB	n/a	LTP341	ltpFR2	7	n/a	n/a	n/a	23	14	1	8	5
2795230	PROB	n/a	LTP341	ltpFR2	7	n/a	n/a	n/a	23	18	6	5	7
2796963	PROB	n/a	LTP341	ltpFR2	7	n/a	n/a	n/a	23	19	3	8	9
2798279	PROB	n/a	LTP341	ltpFR2	7	n/a	n/a	n/a	23	20	8	3	9
2799795	PROB	n/a	LTP341	ltpFR2	7	n/a	n/a	n/a	23	18	7	7	4
2801128	PROB	n/a	LTP341	ltpFR2	7	n/a	n/a	n/a	23	16	1	8	7
2802444	PROB	n/a	LTP341	ltpFR2	7	n/a	n/a	n/a	23	12	3	7	2
2803393	PROB	n/a	LTP341	ltpFR2	7	n/a	n/a	n/a	23	24	9	6	9
2805010	PROB	n/a	LTP341	ltpFR2	7	n/a	n/a	n/a	23	16	7	5	4
2806908	PROB	n/a	LTP341	ltpFR2	7	n/a	n/a	n/a	23	12	3	3	6
2807884	STOP	n/a	LTP341	ltpFR2	7	n/a	n/a	n/a	23	n/a	n/a	n/a	n/a
2810373	WORD	wordpools/wasnorm_wordpool_576.txt	LTP341	ltpFR2	7	14	LACE	792	n/a	n/a	0	0	0
2812822	WORD	wordpools/wasnorm_wordpool_576.txt	LTP341	ltpFR2	7	14	VENUS	1557	n/a	n/a	0	0	0
2815338	WORD	wordpools/wasnorm_wordpool_576.txt	LTP341	ltpFR2	7	14	RATTLE	1170	n/a	n/a	0	0	0
2817870	WORD	wordpools/wasnorm_wordpool_576.txt	LTP341	ltpFR2	7	14	PEANUT	1032	n/a	n/a	0	0	0
2820569	WORD	wordpools/wasnorm_wordpool_576.txt	LTP341	ltpFR2	7	14	FOX	598	n/a	n/a	0	0	0
2823251	WORD	wordpools/wasnorm_wordpool_576.txt	LTP341	ltpFR2	7	14	COURSE	390	n/a	n/a	0	0	0
2825750	WORD	wordpools/wasnorm_wordpool_576.txt	LTP341	ltpFR2	7	14	SHOVEL	1295	n/a	n/a	0	0	0
2828315	WORD	wordpools/wasnorm_wordpool_576.txt	LTP341	ltpFR2	7	14	ASIA	46	n/a	n/a	0	0	0
2831114	WORD	wordpools/wasnorm_wordpool_576.txt	LTP341	ltpFR2	7	14	MOTEL	919	n/a	n/a	0	0	0
2833713	WORD	wordpools/wasnorm_wordpool_576.txt	LTP341	ltpFR2	7	14	GROUND	666	n/a	n/a	0	0	0
2836229	WORD	wordpools/wasnorm_wordpool_576.txt	LTP341	ltpFR2	7	14	CARRIAGE	248	n/a	n/a	0	0	0
2838677	WORD	wordpools/wasnorm_wordpool_576.txt	LTP341	ltpFR2	7	14	EYELASH	546	n/a	n/a	0	0	0
2841326	WORD	wordpools/wasnorm_wordpool_576.txt	LTP341	ltpFR2	7	14	FRECKLE	602	n/a	n/a	0	0	0
2843858	WORD	wordpools/wasnorm_wordpool_576.txt	LTP341	ltpFR2	7	14	PLUTO	1092	n/a	n/a	0	0	0
2846640	WORD	wordpools/wasnorm_wordpool_576.txt	LTP341	ltpFR2	7	14	SKETCH	1315	n/a	n/a	0	0	0
2849339	WORD	wordpools/wasnorm_wordpool_576.txt	LTP341	ltpFR2	7	14	PRIMATE	1123	n/a	n/a	0	0	0
2851921	WORD	wordpools/wasnorm_wordpool_576.txt	LTP341	ltpFR2	7	14	PERCH	1048	n/a	n/a	0	0	0
2854370	WORD	wordpools/wasnorm_wordpool_576.txt	LTP341	ltpFR2	7	14	OYSTER	995	n/a	n/a	0	0	0
2857185	WORD	wordpools/wasnorm_wordpool_576.txt	LTP341	ltpFR2	7	14	CYCLONE	431	n/a	n/a	0	0	0
2859718	WORD	wordpools/wasnorm_wordpool_576.txt	LTP341	ltpFR2	7	14	PUDDLE	1140	n/a	n/a	0	0	0
2862200	WORD	wordpools/wasnorm_wordpool_576.txt	LTP341	ltpFR2	7	14	LAKE	796	n/a	n/a	0	0	0
2864999	WORD	wordpools/wasnorm_wordpool_576.txt	LTP341	ltpFR2	7	14	BUCKET	184	n/a	n/a	0	0	0
2867597	WORD	wordpools/wasnorm_wordpool_576.txt	LTP341	ltpFR2	7	14	LIZARD	834	n/a	n/a	0	0	0
2870246	WORD	wordpools/wasnorm_wordpool_576.txt	LTP341	ltpFR2	7	14	BROOK	177	n/a	n/a	0	0	0
2871862	START	n/a	LTP341	ltpFR2	7	n/a	n/a	n/a	24	n/a	n/a	n/a	n/a
2872668	DISTRACTOR	n/a	LTP341	ltpFR2	7	14	n/a	n/a	n/a	n/a	0	0	0
2872678	PROB	n/a	LTP341	ltpFR2	7	n/a	n/a	n/a	24	14	8	1	5
2875377	PROB	n/a	LTP341	ltpFR2	7	n/a	n/a	n/a	24	14	5	7	2
2880275	PROB	n/a	LTP341	ltpFR2	7	n/a	n/a	n/a	24	12	2	1	9
2881175	PROB	n/a	LTP341	ltpFR2	7	n/a	n/a	n/a	24	8	4	1	3
2882541	PROB	n/a	LTP341	ltpFR2	7	n/a	n/a	n/a	24	8	5	2	1
2883890	PROB	n/a	LTP341	ltpFR2	7	n/a	n/a	n/a	24	16	1	8	7
2885057	PROB	n/a	LTP341	ltpFR2	7	n/a	n/a	n/a	24	22	9	5	8
2886755	PROB	n/a	LTP341	ltpFR2	7	n/a	n/a	n/a	24	10	3	5	2
2887938	PROB	n/a	LTP341	ltpFR2	7	n/a	n/a	n/a	24	22	5	8	9
2889304	PROB	n/a	LTP341	ltpFR2	7	n/a	n/a	n/a	24	11	7	2	2
2890437	PROB	n/a	LTP341	ltpFR2	7	n/a	n/a	n/a	24	17	7	3	7
2891703	PROB	n/a	LTP341	ltpFR2	7	n/a	n/a	n/a	24	17	6	7	4
2893386	PROB	n/a	LTP341	ltpFR2	7	n/a	n/a	n/a	24	10	2	4	4
2894887	STOP	n/a	LTP341	ltpFR2	7	n/a	n/a	n/a	24	n/a	n/a	n/a	n/a
2897751	REC_START	n/a	LTP341	ltpFR2	7	14	n/a	n/a	n/a	n/a	0	0	0
2898091	REC_WORD	wordpools/wasnorm_wordpool_576.txt	LTP341	ltpFR2	7	14	PUDDLE	1140	n/a	n/a	0	0	0
2898765	REC_WORD	wordpools/wasnorm_wordpool_576.txt	LTP341	ltpFR2	7	14	LAKE	796	n/a	n/a	0	0	0
2899406	REC_WORD	wordpools/wasnorm_wordpool_576.txt	LTP341	ltpFR2	7	14	BLIZZARD	-1	n/a	n/a	0	0	0
2900181	REC_WORD	wordpools/wasnorm_wordpool_576.txt	LTP341	ltpFR2	7	14	BROOK	177	n/a	n/a	0	0	0
2902793	REC_WORD	wordpools/wasnorm_wordpool_576.txt	LTP341	ltpFR2	7	14	VENUS	1557	n/a	n/a	0	0	0
2903550	REC_WORD	wordpools/wasnorm_wordpool_576.txt	LTP341	ltpFR2	7	14	LACE	792	n/a	n/a	0	0	0
2907834	REC_WORD	wordpools/wasnorm_wordpool_576.txt	LTP341	ltpFR2	7	14	SHOVEL	1295	n/a	n/a	0	0	0
2909583	REC_WORD	wordpools/wasnorm_wordpool_576.txt	LTP341	ltpFR2	7	14	COURSE	390	n/a	n/a	0	0	0
2912072	REC_WORD	wordpools/wasnorm_wordpool_576.txt	LTP341	ltpFR2	7	14	ASIA	46	n/a	n/a	0	0	0
2913904	REC_WORD	wordpools/wasnorm_wordpool_576.txt	LTP341	ltpFR2	7	14	MOTEL	919	n/a	n/a	0	0	0
2917068	REC_WORD	wordpools/wasnorm_wordpool_576.txt	LTP341	ltpFR2	7	14	SKETCH	1315	n/a	n/a	0	0	0
2918262	REC_WORD	wordpools/wasnorm_wordpool_576.txt	LTP341	ltpFR2	7	14	PLUTO	1092	n/a	n/a	0	0	0
2919892	REC_WORD	wordpools/wasnorm_wordpool_576.txt	LTP341	ltpFR2	7	14	PRIMATE	1123	n/a	n/a	0	0	0
2920832	REC_WORD	wordpools/wasnorm_wordpool_576.txt	LTP341	ltpFR2	7	14	OYSTER	995	n/a	n/a	0	0	0
2988193	WORD	wordpools/wasnorm_wordpool_576.txt	LTP341	ltpFR2	7	15	NAPKIN	937	n/a	n/a	0	0	0
2990825	WORD	wordpools/wasnorm_wordpool_576.txt	LTP341	ltpFR2	7	15	MEDAL	885	n/a	n/a	0	0	0
2993523	WORD	wordpools/wasnorm_wordpool_576.txt	LTP341	ltpFR2	7	15	LION	827	n/a	n/a	0	0	0
2996239	WORD	wordpools/wasnorm_wordpool_576.txt	LTP341	ltpFR2	7	15	YACHT	1629	n/a	n/a	0	0	0
2999022	WORD	wordpools/wasnorm_wordpool_576.txt	LTP341	ltpFR2	7	15	NECKLACE	940	n/a	n/a	0	0	0
3001703	WORD	wordpools/wasnorm_wordpool_576.txt	LTP341	ltpFR2	7	15	BISON	131	n/a	n/a	0	0	0
3004452	WORD	wordpools/wasnorm_wordpool_576.txt	LTP341	ltpFR2	7	15	ICING	732	n/a	n/a	0	0	0
3006884	WORD	wordpools/wasnorm_wordpool_576.txt	LTP341	ltpFR2	7	15	LODGE	839	n/a	n/a	0	0	0
3009666	WORD	wordpools/wasnorm_wordpool_576.txt	LTP341	ltpFR2	7	15	TAXI	1438	n/a	n/a	0	0	0
3012098	WORD	wordpools/wasnorm_wordpool_576.txt	LTP341	ltpFR2	7	15	BANJO	82	n/a	n/a	0	0	0
3014614	WORD	wordpools/wasnorm_wordpool_576.txt	LTP341	ltpFR2	7	15	RADISH	1158	n/a	n/a	0	0	0
3017229	WORD	wordpools/wasnorm_wordpool_576.txt	LTP341	ltpFR2	7	15	BACON	67	n/a	n/a	0	0	0
3019662	WORD	wordpools/wasnorm_wordpool_576.txt	LTP341	ltpFR2	7	15	OMELET	976	n/a	n/a	0	0	0
3022110	WORD	wordpools/wasnorm_wordpool_576.txt	LTP341	ltpFR2	7	15	PADDLE	1000	n/a	n/a	0	0	0
3024793	WORD	wordpools/wasnorm_wordpool_576.txt	LTP341	ltpFR2	7	15	MAPLE	866	n/a	n/a	0	0	0
3027375	WORD	wordpools/wasnorm_wordpool_576.txt	LTP341	ltpFR2	7	15	HEDGE	699	n/a	n/a	0	0	0
3029824	WORD	wordpools/wasnorm_wordpool_576.txt	LTP341	ltpFR2	7	15	MONEY	908	n/a	n/a	0	0	0
3032423	WORD	wordpools/wasnorm_wordpool_576.txt	LTP341	ltpFR2	7	15	KETCHUP	771	n/a	n/a	0	0	0
3035071	WORD	wordpools/wasnorm_wordpool_576.txt	LTP341	ltpFR2	7	15	JURY	766	n/a	n/a	0	0	0
3037504	WORD	wordpools/wasnorm_wordpool_576.txt	LTP341	ltpFR2	7	15	DRINK	498	n/a	n/a	0	0	0
3040269	WORD	wordpools/wasnorm_wordpool_576.txt	LTP341	ltpFR2	7	15	REPORT	1184	n/a	n/a	0	0	0
3043019	WORD	wordpools/wasnorm_wordpool_576.txt	LTP341	ltpFR2	7	15	DORM	488	n/a	n/a	0	0	0
3045633	WORD	wordpools/wasnorm_wordpool_576.txt	LTP341	ltpFR2	7	15	COTTAGE	384	n/a	n/a	0	0	0
3048215	WORD	wordpools/wasnorm_wordpool_576.txt	LTP341	ltpFR2	7	15	CRAB	397	n/a	n/a	0	0	0
3049832	START	n/a	LTP341	ltpFR2	7	n/a	n/a	n/a	25	n/a	n/a	n/a	n/a
3050661	DISTRACTOR	n/a	LTP341	ltpFR2	7	15	n/a	n/a	n/a	n/a	0	0	0
3050664	PROB	n/a	LTP341	ltpFR2	7	n/a	n/a	n/a	25	23	5	9	9
3053746	PROB	n/a	LTP341	ltpFR2	7	n/a	n/a	n/a	25	11	2	4	5
3055395	PROB	n/a	LTP341	ltpFR2	7	n/a	n/a	n/a	25	17	8	8	1
3056745	PROB	n/a	LTP341	ltpFR2	7	n/a	n/a	n/a	25	15	7	4	4
3058094	PROB	n/a	LTP341	ltpFR2	7	n/a	n/a	n/a	25	15	6	4	5
3059427	PROB	n/a	LTP341	ltpFR2	7	n/a	n/a	n/a	25	14	4	3	7
3060576	PROB	n/a	LTP341	ltpFR2	7	n/a	n/a	n/a	25	19	2	8	9
3061692	PROB	n/a	LTP341	ltpFR2	7	n/a	n/a	n/a	25	20	7	6	7
3063975	PROB	n/a	LTP341	ltpFR2	7	n/a	n/a	n/a	25	14	7	2	5
3065108	PROB	n/a	LTP341	ltpFR2	7	n/a	n/a	n/a	25	20	8	7	5
3066590	PROB	n/a	LTP341	ltpFR2	7	n/a	n/a	n/a	25	12	2	6	4
3067623	PROB	n/a	LTP341	ltpFR2	7	n/a	n/a	n/a	25	15	5	8	2
3069073	PROB	n/a	LTP341	ltpFR2	7	n/a	n/a	n/a	25	20	9	3	8
3070622	PROB	n/a	LTP341	ltpFR2	7	n/a	n/a	n/a	25	17	6	3	8
3072104	PROB	n/a	LTP341	ltpFR2	7	n/a	n/a	n/a	25	12	5	5	2
3072908	STOP	n/a	LTP341	ltpFR2	7	n/a	n/a	n/a	25	n/a	n/a	n/a	n/a
3075587	REC_START	n/a	LTP341	ltpFR2	7	15	n/a	n/a	n/a	n/a	0	0	0
3075893	REC_WORD	wordpools/wasnorm_wordpool_576.txt	LTP341	ltpFR2	7	15	DRINK	498	n/a	n/a	0	0	0
3076340	REC_WORD_VV	wordpools/wasnorm_wordpool_576.txt	LTP341	ltpFR2	7	15	<>	-1	n/a	n/a	0	0	0
3076864	REC_WORD	wordpools/wasnorm_wordpool_576.txt	LTP341	ltpFR2	7	15	REPORT	1184	n/a	n/a	0	0	0
3077695	REC_WORD	wordpools/wasnorm_wordpool_576.txt	LTP341	ltpFR2	7	15	DORM	488	n/a	n/a	0	0	0
3078460	REC_WORD	wordpools/wasnorm_wordpool_576.txt	LTP341	ltpFR2	7	15	CRAB	397	n/a	n/a	0	0	0
3090879	REC_WORD	wordpools/wasnorm_wordpool_576.txt	LTP341	ltpFR2	7	15	NAPKIN	937	n/a	n/a	0	0	0
3091966	REC_WORD	wordpools/wasnorm_wordpool_576.txt	LTP341	ltpFR2	7	15	MEDAL	885	n/a	n/a	0	0	0
3092712	REC_WORD	wordpools/wasnorm_wordpool_576.txt	LTP341	ltpFR2	7	15	NECKLACE	940	n/a	n/a	0	0	0
3095162	REC_WORD	wordpools/wasnorm_wordpool_576.txt	LTP341	ltpFR2	7	15	YACHT	1629	n/a	n/a	0	0	0
3097307	REC_WORD	wordpools/wasnorm_wordpool_576.txt	LTP341	ltpFR2	7	15	PADDLE	1000	n/a	n/a	0	0	0
3102445	REC_WORD	wordpools/wasnorm_wordpool_576.txt	LTP341	ltpFR2	7	15	LION	827	n/a	n/a	0	0	0
3113389	REC_WORD	wordpools/wasnorm_wordpool_576.txt	LTP341	ltpFR2	7	15	MONEY	908	n/a	n/a	0	0	0
3114787	REC_WORD	wordpools/wasnorm_wordpool_576.txt	LTP341	ltpFR2	7	15	BANJO	82	n/a	n/a	0	0	0
3118498	REC_WORD	wordpools/wasnorm_wordpool_576.txt	LTP341	ltpFR2	7	15	TAXI	1438	n/a	n/a	0	0	0
3133593	REC_WORD	wordpools/wasnorm_wordpool_576.txt	LTP341	ltpFR2	7	15	OMELET	976	n/a	n/a	0	0	0
3140034	REC_WORD	wordpools/wasnorm_wordpool_576.txt	LTP341	ltpFR2	7	15	BACON	67	n/a	n/a	0	0	0
3145600	REC_WORD	wordpools/wasnorm_wordpool_576.txt	LTP341	ltpFR2	7	15	RADISH	1158	n/a	n/a	0	0	0
3149063	REC_WORD_VV	wordpools/wasnorm_wordpool_576.txt	LTP341	ltpFR2	7	15	<>	-1	n/a	n/a	0	0	0
3149420	REC_WORD	wordpools/wasnorm_wordpool_576.txt	LTP341	ltpFR2	7	15	TURNIP	1521	n/a	n/a	0	0	0
3166029	WORD	wordpools/wasnorm_wordpool_576.txt	LTP341	ltpFR2	7	16	FOREST	593	n/a	n/a	0	0	0
3168527	WORD	wordpools/wasnorm_wordpool_576.txt	LTP341	ltpFR2	7	16	BASEMENT	94	n/a	n/a	0	0	0
3171243	WORD	wordpools/wasnorm_wordpool_576.txt	LTP341	ltpFR2	7	16	CELLAR	267	n/a	n/a	0	0	0
3173792	WORD	wordpools/wasnorm_wordpool_576.txt	LTP341	ltpFR2	7	16	DENIM	446	n/a	n/a	0	0	0
3176240	WORD	wordpools/wasnorm_wordpool_576.txt	LTP341	ltpFR2	7	16	DOUGHNUT	490	n/a	n/a	0	0	0
3178706	WORD	wordpools/wasnorm_wordpool_576.txt	LTP341	ltpFR2	7	16	AGENT	10	n/a	n/a	0	0	0
3181421	WORD	wordpools/wasnorm_wordpool_576.txt	LTP341	ltpFR2	7	16	SHELTER	1282	n/a	n/a	0	0	0
3183870	WORD	wordpools/wasnorm_wordpool_576.txt	LTP341	ltpFR2	7	16	TURKEY	1520	n/a	n/a	0	0	0
3186402	WORD	wordpools/wasnorm_wordpool_576.txt	LTP341	ltpFR2	7	16	KNAPSACK	783	n/a	n/a	0	0	0
3188901	WORD	wordpools/wasnorm_wordpool_576.txt	LTP341	ltpFR2	7	16	PASSAGE	1019	n/a	n/a	0	0	0
3191467	WORD	wordpools/wasnorm_wordpool_576.txt	LTP341	ltpFR2	7	16	SLUG	1329	n/a	n/a	0	0	0
3193916	WORD	wordpools/wasnorm_wordpool_576.txt	LTP341	ltpFR2	7	16	CHAPEL	280	n/a	n/a	0	0	0
3196598	WORD	wordpools/wasnorm_wordpool_576.txt	LTP341	ltpFR2	7	16	PREACHER	1119	n/a	n/a	0	0	0
3199130	WORD	wordpools/wasnorm_wordpool_576.txt	LTP341	ltpFR2	7	16	DONKEY	484	n/a	n/a	0	0	0
3201679	WORD	wordpools/wasnorm_wordpool_576.txt	LTP341	ltpFR2	7	16	BOARD	143	n/a	n/a	0	0	0
3204444	WORD	wordpools/wasnorm_wordpool_576.txt	LTP341	ltpFR2	7	16	JUDGE	761	n/a	n/a	0	0	0
3206877	WORD	wordpools/wasnorm_wordpool_576.txt	LTP341	ltpFR2	7	16	ROBIN	1199	n/a	n/a	0	0	0
3209342	WORD	wordpools/wasnorm_wordpool_576.txt	LTP341	ltpFR2	7	16	DRESS	495	n/a	n/a	0	0	0
3212091	WORD	wordpools/wasnorm_wordpool_576.txt	LTP341	ltpFR2	7	16	MEAT	883	n/a	n/a	0	0	0
3214656	WORD	wordpools/wasnorm_wordpool_576.txt	LTP341	ltpFR2	7	16	EAGLE	512	n/a	n/a	0	0	0
3217338	WORD	wordpools/wasnorm_wordpool_576.txt	LTP341	ltpFR2	7	16	SHRUB	1299	n/a	n/a	0	0	0
3219804	WORD	wordpools/wasnorm_wordpool_576.txt	LTP341	ltpFR2	7	16	LETTUCE	814	n/a	n/a	0	0	0
3222369	WORD	wordpools/wasnorm_wordpool_576.txt	LTP341	ltpFR2	7	16	MILK	895	n/a	n/a	0	0	0
3225102	WORD	wordpools/wasnorm_wordpool_576.txt	LTP341	ltpFR2	7	16	GREASE	660	n/a	n/a	0	0	0
3226718	START	n/a	LTP341	ltpFR2	7	n/a	n/a	n/a	26	n/a	n/a	n/a	n/a
3227592	DISTRACTOR	n/a	LTP341	ltpFR2	7	16	n/a	n/a	n/a	n/a	0	0	0
3227600	PROB	n/a	LTP341	ltpFR2	7	n/a	n/a	n/a	26	15	2	4	9
3230099	PROB	n/a	LTP341	ltpFR2	7	n/a	n/a	n/a	26	4	1	2	1
3231165	PROB	n/a	LTP341	ltpFR2	7	n/a	n/a	n/a	26	16	8	4	4
3232965	PROB	n/a	LTP341	ltpFR2	7	n/a	n/a	n/a	26	13	2	5	6
3234481	PROB	n/a	LTP341	ltpFR2	7	n/a	n/a	n/a	26	14	8	6	2
3236048	PROB	n/a	LTP341	ltpFR2	7	n/a	n/a	n/a	26	14	5	6	3
3237429	PROB	n/a	LTP341	ltpFR2	7	n/a	n/a	n/a	26	20	6	8	6
3239312	PROB	n/a	LTP341	ltpFR2	7	n/a	n/a	n/a	26	11	3	6	2
3240678	PROB	n/a	LTP341	ltpFR2	7	n/a	n/a	n/a	26	7	1	4	2
3241944	PROB	n/a	LTP341	ltpFR2	7	n/a	n/a	n/a	26	19	9	8	2
3243110	PROB	n/a	LTP341	ltpFR2	7	n/a	n/a	n/a	26	13	1	7	5
3244160	PROB	n/a	LTP341	ltpFR2	7	n/a	n/a	n/a	26	13	4	3	6
3245626	PROB	n/a	LTP341	ltpFR2	7	n/a	n/a	n/a	26	14	2	8	4
3246842	PROB	n/a	LTP341	ltpFR2	7	n/a	n/a	n/a	26	13	5	7	1
3248191	PROB	n/a	LTP341	ltpFR2	7	n/a	n/a	n/a	26	19	5	6	8
3249465	STOP	n/a	LTP341	ltpFR2	7	n/a	n/a	n/a	26	n/a	n/a	n/a	n/a
3252656	REC_START	n/a	LTP341	ltpFR2	7	16	n/a	n/a	n/a	n/a	0	0	0
3252800	REC_WORD	wordpools/wasnorm_wordpool_576.txt	LTP341	ltpFR2	7	16	LETTUCE	814	n/a	n/a	0	0	0
3253227	REC_WORD	wordpools/wasnorm_wordpool_576.txt	LTP341	ltpFR2	7	16	MILK	895	n/a	n/a	0	0	0
3253745	REC_WORD	wordpools/wasnorm_wordpool_576.txt	LTP341	ltpFR2	7	16	GREASE	660	n/a	n/a	0	0	0
3254337	REC_WORD	wordpools/wasnorm_wordpool_576.txt	LTP341	ltpFR2	7	16	TURKEY	1520	n/a	n/a	0	0	0
3254802	REC_WORD	wordpools/wasnorm_wordpool_576.txt	LTP341	ltpFR2	7	16	KNAPSACK	783	n/a	n/a	0	0	0
3260349	REC_WORD	wordpools/wasnorm_wordpool_576.txt	LTP341	ltpFR2	7	16	ROBIN	1199	n/a	n/a	0	0	0
3278830	REC_WORD	wordpools/wasnorm_wordpool_576.txt	LTP341	ltpFR2	7	16	BASEMENT	94	n/a	n/a	0	0	0
3281143	REC_WORD	wordpools/wasnorm_wordpool_576.txt	LTP341	ltpFR2	7	16	CELLAR	267	n/a	n/a	0	0	0
3283578	REC_WORD	wordpools/wasnorm_wordpool_576.txt	LTP341	ltpFR2	7	16	DENIM	446	n/a	n/a	0	0	0
3285480	REC_WORD	wordpools/wasnorm_wordpool_576.txt	LTP341	ltpFR2	7	16	DOUGHNUT	490	n/a	n/a	0	0	0
3329204	REST_REWET	n/a	LTP341	ltpFR2	7	16	n/a	n/a	n/a	n/a	0	0	0
3473305	WORD	wordpools/wasnorm_wordpool_576.txt	LTP341	ltpFR2	7	17	CLAM	315	n/a	n/a	0	0	0
3475754	WORD	wordpools/wasnorm_wordpool_576.txt	LTP341	ltpFR2	7	17	HIKER	708	n/a	n/a	0	0	0
3478486	WORD	wordpools/wasnorm_wordpool_576.txt	LTP341	ltpFR2	7	17	SUITCASE	1403	n/a	n/a	0	0	0
3481135	WORD	wordpools/wasnorm_wordpool_576.txt	LTP341	ltpFR2	7	17	HARP	689	n/a	n/a	0	0	0
3483884	WORD	wordpools/wasnorm_wordpool_576.txt	LTP341	ltpFR2	7	17	TROMBONE	1508	n/a	n/a	0	0	0
3486583	WORD	wordpools/wasnorm_wordpool_576.txt	LTP341	ltpFR2	7	17	WHISTLE	1606	n/a	n/a	0	0	0
3489248	WORD	wordpools/wasnorm_wordpool_576.txt	LTP341	ltpFR2	7	17	VAGRANT	1544	n/a	n/a	0	0	0
3491897	WORD	wordpools/wasnorm_wordpool_576.txt	LTP341	ltpFR2	7	17	KNIFE	785	n/a	n/a	0	0	0
3494429	WORD	wordpools/wasnorm_wordpool_576.txt	LTP341	ltpFR2	7	17	SCISSORS	1250	n/a	n/a	0	0	0
3497111	WORD	wordpools/wasnorm_wordpool_576.txt	LTP341	ltpFR2	7	17	CORAL	378	n/a	n/a	0	0	0
3499710	WORD	wordpools/wasnorm_wordpool_576.txt	LTP341	ltpFR2	7	17	BACKBONE	66	n/a	n/a	0	0	0
3502409	WORD	wordpools/wasnorm_wordpool_576.txt	LTP341	ltpFR2	7	17	CASKET	255	n/a	n/a	0	0	0
3505224	WORD	wordpools/wasnorm_wordpool_576.txt	LTP341	ltpFR2	7	17	SURVEY	1414	n/a	n/a	0	0	0
3507690	WORD	wordpools/wasnorm_wordpool_576.txt	LTP341	ltpFR2	7	17	SEAFOOD	1260	n/a	n/a	0	0	0
3510439	WORD	wordpools/wasnorm_wordpool_576.txt	LTP341	ltpFR2	7	17	JEANS	752	n/a	n/a	0	0	0
3513087	WORD	wordpools/wasnorm_wordpool_576.txt	LTP341	ltpFR2	7	17	POCKET	1093	n/a	n/a	0	0	0
3515869	WORD	wordpools/wasnorm_wordpool_576.txt	LTP341	ltpFR2	7	17	PLATE	1086	n/a	n/a	0	0	0
3518668	WORD	wordpools/wasnorm_wordpool_576.txt	LTP341	ltpFR2	7	17	MISSILE	900	n/a	n/a	0	0	0
3521100	WORD	wordpools/wasnorm_wordpool_576.txt	LTP341	ltpFR2	7	17	LAPEL	800	n/a	n/a	0	0	0
3523633	WORD	wordpools/wasnorm_wordpool_576.txt	LTP341	ltpFR2	7	17	BLOUSE	139	n/a	n/a	0	0	0
3526431	WORD	wordpools/wasnorm_wordpool_576.txt	LTP341	ltpFR2	7	17	POET	1095	n/a	n/a	0	0	0
3529113	WORD	wordpools/wasnorm_wordpool_576.txt	LTP341	ltpFR2	7	17	GLOBE	641	n/a	n/a	0	0	0
3531945	WORD	wordpools/wasnorm_wordpool_576.txt	LTP341	ltpFR2	7	17	FRIEND	606	n/a	n/a	0	0	0
3534727	WORD	wordpools/wasnorm_wordpool_576.txt	LTP341	ltpFR2	7	17	SPOON	1357	n/a	n/a	0	0	0
3536344	START	n/a	LTP341	ltpFR2	7	n/a	n/a	n/a	27	n/a	n/a	n/a	n/a
3537277	DISTRACTOR	n/a	LTP341	ltpFR2	7	17	n/a	n/a	n/a	n/a	0	0	0
3537293	PROB	n/a	LTP341	ltpFR2	7	n/a	n/a	n/a	27	13	5	6	2
3539892	PROB	n/a	LTP341	ltpFR2	7	n/a	n/a	n/a	27	21	8	7	6
3542824	PROB	n/a	LTP341	ltpFR2	7	n/a	n/a	n/a	27	19	6	6	7
3544323	PROB	n/a	LTP341	ltpFR2	7	n/a	n/a	n/a	27	18	4	9	5
3546057	PROB	n/a	LTP341	ltpFR2	7	n/a	n/a	n/a	27	10	3	3	4
3547538	PROB	n/a	LTP341	ltpFR2	7	n/a	n/a	n/a	27	17	7	2	8
3549121	PROB	n/a	LTP341	ltpFR2	7	n/a	n/a	n/a	27	14	4	5	5
3550204	PROB	n/a	LTP341	ltpFR2	7	n/a	n/a	n/a	27	23	8	9	6
3552136	PROB	n/a	LTP341	ltpFR2	7	n/a	n/a	n/a	27	20	5	6	9
3553286	PROB	n/a	LTP341	ltpFR2	7	n/a	n/a	n/a	27	20	8	6	6
3554635	PROB	n/a	LTP341	ltpFR2	7	n/a	n/a	n/a	27	15	2	8	3
3556368	PROB	n/a	LTP341	ltpFR2	7	n/a	n/a	n/a	27	23	6	8	9
3560344	STOP	n/a	LTP341	ltpFR2	7	n/a	n/a	n/a	27	n/a	n/a	n/a	n/a
3562233	REC_START	n/a	LTP341	ltpFR2	7	17	n/a	n/a	n/a	n/a	0	0	0
3562429	REC_WORD	wordpools/wasnorm_wordpool_576.txt	LTP341	ltpFR2	7	17	BLOUSE	139	n/a	n/a	0	0	0
3562975	REC_WORD_VV	wordpools/wasnorm_wordpool_576.txt	LTP341	ltpFR2	7	17	<>	-1	n/a	n/a	0	0	0
3563421	REC_WORD	wordpools/wasnorm_wordpool_576.txt	LTP341	ltpFR2	7	17	POET	1095	n/a	n/a	0	0	0
3564102	REC_WORD	wordpools/wasnorm_wordpool_576.txt	LTP341	ltpFR2	7	17	FRIEND	606	n/a	n/a	0	0	0
3564858	REC_WORD	wordpools/wasnorm_wordpool_576.txt	LTP341	ltpFR2	7	17	GLOBE	641	n/a	n/a	0	0	0
3565487	REC_WORD	wordpools/wasnorm_wordpool_576.txt	LTP341	ltpFR2	7	17	SPOON	1357	n/a	n/a	0	0	0
3570354	REC_WORD	wordpools/wasnorm_wordpool_576.txt	LTP341	ltpFR2	7	17	HIKER	708	n/a	n/a	0	0	0
3571496	REC_WORD	wordpools/wasnorm_wordpool_576.txt	LTP341	ltpFR2	7	17	CLAM	315	n/a	n/a	0	0	0
3575384	REC_WORD	wordpools/wasnorm_wordpool_576.txt	LTP341	ltpFR2	7	17	SUITCASE	1403	n/a	n/a	0	0	0
3578774	REC_WORD	wordpools/wasnorm_wordpool_576.txt	LTP341	ltpFR2	7	17	HARP	689	n/a	n/a	0	0	0
3579665	REC_WORD	wordpools/wasnorm_wordpool_576.txt	LTP341	ltpFR2	7	17	TROMBONE	1508	n/a	n/a	0	0	0
3583265	REC_WORD	wordpools/wasnorm_wordpool_576.txt	LTP341	ltpFR2	7	17	SEAFOOD	1260	n/a	n/a	0	0	0
3585718	REC_WORD	wordpools/wasnorm_wordpool_576.txt	LTP341	ltpFR2	7	17	POCKET	1093	n/a	n/a	0	0	0
3652691	WORD	wordpools/wasnorm_wordpool_576.txt	LTP341	ltpFR2	7	18	LONDON	843	n/a	n/a	0	0	0
3655173	WORD	wordpools/wasnorm_wordpool_576.txt	LTP341	ltpFR2	7	18	GARBAGE	622	n/a	n/a	0	0	0
3657772	WORD	wordpools/wasnorm_wordpool_576.txt	LTP341	ltpFR2	7	18	TRUCK	1512	n/a	n/a	0	0	0
3660337	WORD	wordpools/wasnorm_wordpool_576.txt	LTP341	ltpFR2	7	18	SERVER	1272	n/a	n/a	0	0	0
3663103	WORD	wordpools/wasnorm_wordpool_576.txt	LTP341	ltpFR2	7	18	PICNIC	1060	n/a	n/a	0	0	0
3665768	WORD	wordpools/wasnorm_wordpool_576.txt	LTP341	ltpFR2	7	18	VIKING	1565	n/a	n/a	0	0	0
3668450	WORD	wordpools/wasnorm_wordpool_576.txt	LTP341	ltpFR2	7	18	PLASTER	1085	n/a	n/a	0	0	0
3671149	WORD	wordpools/wasnorm_wordpool_576.txt	LTP341	ltpFR2	7	18	GRILL	661	n/a	n/a	0	0	0
3673764	WORD	wordpools/wasnorm_wordpool_576.txt	LTP341	ltpFR2	7	18	APRON	35	n/a	n/a	0	0	0
3676496	WORD	wordpools/wasnorm_wordpool_576.txt	LTP341	ltpFR2	7	18	FOOT	590	n/a	n/a	0	0	0
3679162	WORD	wordpools/wasnorm_wordpool_576.txt	LTP341	ltpFR2	7	18	ARMY	39	n/a	n/a	0	0	0
3681844	WORD	wordpools/wasnorm_wordpool_576.txt	LTP341	ltpFR2	7	18	GIFT	635	n/a	n/a	0	0	0
3684310	WORD	wordpools/wasnorm_wordpool_576.txt	LTP341	ltpFR2	7	18	PACKAGE	997	n/a	n/a	0	0	0
3687026	WORD	wordpools/wasnorm_wordpool_576.txt	LTP341	ltpFR2	7	18	CIGAR	308	n/a	n/a	0	0	0
3689707	WORD	wordpools/wasnorm_wordpool_576.txt	LTP341	ltpFR2	7	18	STOVE	1388	n/a	n/a	0	0	0
3692139	WORD	wordpools/wasnorm_wordpool_576.txt	LTP341	ltpFR2	7	18	GUITAR	670	n/a	n/a	0	0	0
3694755	WORD	wordpools/wasnorm_wordpool_576.txt	LTP341	ltpFR2	7	18	CAPTIVE	240	n/a	n/a	0	0	0
3697204	WORD	wordpools/wasnorm_wordpool_576.txt	LTP341	ltpFR2	7	18	LILY	821	n/a	n/a	0	0	0
3699836	WORD	wordpools/wasnorm_wordpool_576.txt	LTP341	ltpFR2	7	18	BRIEFCASE	175	n/a	n/a	0	0	0
3702318	WORD	wordpools/wasnorm_wordpool_576.txt	LTP341	ltpFR2	7	18	VICTIM	1562	n/a	n/a	0	0	0
3704817	WORD	wordpools/wasnorm_wordpool_576.txt	LTP341	ltpFR2	7	18	SHOULDER	1294	n/a	n/a	0	0	0
3707566	WORD	wordpools/wasnorm_wordpool_576.txt	LTP341	ltpFR2	7	18	TRENCH	1503	n/a	n/a	0	0	0
3710198	WORD	wordpools/wasnorm_wordpool_576.txt	LTP341	ltpFR2	7	18	HONEY	713	n/a	n/a	0	0	0
3712730	WORD	wordpools/wasnorm_wordpool_576.txt	LTP341	ltpFR2	7	18	SANDWICH	1232	n/a	n/a	0	0	0
3714346	START	n/a	LTP341	ltpFR2	7	n/a	n/a	n/a	28	n/a	n/a	n/a	n/a
3715509	DISTRACTOR	n/a	LTP341	ltpFR2	7	18	n/a	n/a	n/a	n/a	0	0	0
3715512	PROB	n/a	LTP341	ltpFR2	7	n/a	n/a	n/a	28	6	1	2	3
3717761	PROB	n/a	LTP341	ltpFR2	7	n/a	n/a	n/a	28	19	6	4	9
3719577	PROB	n/a	LTP341	ltpFR2	7	n/a	n/a	n/a	28	20	7	6	7
3721609	PROB	n/a	LTP341	ltpFR2	7	n/a	n/a	n/a	28	10	6	1	3
3722792	PROB	n/a	LTP341	ltpFR2	7	n/a	n/a	n/a	28	22	9	5	8
3726490	PROB	n/a	LTP341	ltpFR2	7	n/a	n/a	n/a	28	21	9	9	3
3727973	PROB	n/a	LTP341	ltpFR2	7	n/a	n/a	n/a	28	13	2	9	2
3729222	PROB	n/a	LTP341	ltpFR2	7	n/a	n/a	n/a	28	16	9	2	5
3730638	PROB	n/a	LTP341	ltpFR2	7	n/a	n/a	n/a	28	24	9	8	7
3731938	PROB	n/a	LTP341	ltpFR2	7	n/a	n/a	n/a	28	15	7	7	4
3733187	PROB	n/a	LTP341	ltpFR2	7	n/a	n/a	n/a	28	24	8	7	9
3734603	PROB	n/a	LTP341	ltpFR2	7	n/a	n/a	n/a	28	10	1	7	2
3736419	PROB	n/a	LTP341	ltpFR2	7	n/a	n/a	n/a	28	20	6	8	6
3737704	STOP	n/a	LTP341	ltpFR2	7	n/a	n/a	n/a	28	n/a	n/a	n/a	n/a
3740285	REC_START	n/a	LTP341	ltpFR2	7	18	n/a	n/a	n/a	n/a	0	0	0
3740694	REC_WORD	wordpools/wasnorm_wordpool_576.txt	LTP341	ltpFR2	7	18	LILY	821	n/a	n/a	0	0	0
3741269	REC_WORD	wordpools/wasnorm_wordpool_576.txt	LTP341	ltpFR2	7	18	HONEY	713	n/a	n/a	0	0	0
3741848	REC_WORD	wordpools/wasnorm_wordpool_576.txt	LTP341	ltpFR2	7	18	SANDWICH	1232	n/a	n/a	0	0	0
3742806	REC_WORD	wordpools/wasnorm_wordpool_576.txt	LTP341	ltpFR2	7	18	BRIEFCASE	175	n/a	n/a	0	0	0
3743626	REC_WORD	wordpools/wasnorm_wordpool_576.txt	LTP341	ltpFR2	7	18	SHOULDER	1294	n/a	n/a	0	0	0
3747374	REC_WORD	wordpools/wasnorm_wordpool_576.txt	LTP341	ltpFR2	7	18	GARBAGE	622	n/a	n/a	0	0	0
3749187	REC_WORD	wordpools/wasnorm_wordpool_576.txt	LTP341	ltpFR2	7	18	TRUCK	1512	n/a	n/a	0	0	0
3752588	REC_WORD_VV	wordpools/wasnorm_wordpool_576.txt	LTP341	ltpFR2	7	18	<>	-1	n/a	n/a	0	0	0
3755755	REC_WORD	wordpools/wasnorm_wordpool_576.txt	LTP341	ltpFR2	7	18	GARBAGE	622	n/a	n/a	0	0	0
3756602	REC_WORD	wordpools/wasnorm_wordpool_576.txt	LTP341	ltpFR2	7	18	LONDON	843	n/a	n/a	0	0	0
3765465	REC_WORD	wordpools/wasnorm_wordpool_576.txt	LTP341	ltpFR2	7	18	PICNIC	1060	n/a	n/a	0	0	0
3766484	REC_WORD	wordpools/wasnorm_wordpool_576.txt	LTP341	ltpFR2	7	18	VIKING	1565	n/a	n/a	0	0	0
3767459	REC_WORD	wordpools/wasnorm_wordpool_576.txt	LTP341	ltpFR2	7	18	ARMY	39	n/a	n/a	0	0	0
3830726	WORD	wordpools/wasnorm_wordpool_576.txt	LTP341	ltpFR2	7	19	COIN	343	n/a	n/a	0	0	0
3833408	WORD	wordpools/wasnorm_wordpool_576.txt	LTP341	ltpFR2	7	19	RECEIPT	1173	n/a	n/a	0	0	0
3836190	WORD	wordpools/wasnorm_wordpool_576.txt	LTP341	ltpFR2	7	19	GIRL	637	n/a	n/a	0	0	0
3838806	WORD	wordpools/wasnorm_wordpool_576.txt	LTP341	ltpFR2	7	19	JELLO	754	n/a	n/a	0	0	0
3841555	WORD	wordpools/wasnorm_wordpool_576.txt	LTP341	ltpFR2	7	19	PASTRY	1022	n/a	n/a	0	0	0
3844337	WORD	wordpools/wasnorm_wordpool_576.txt	LTP341	ltpFR2	7	19	COUCH	386	n/a	n/a	0	0	0
3846869	WORD	wordpools/wasnorm_wordpool_576.txt	LTP341	ltpFR2	7	19	CLAMP	316	n/a	n/a	0	0	0
3849301	WORD	wordpools/wasnorm_wordpool_576.txt	LTP341	ltpFR2	7	19	FIREPLACE	570	n/a	n/a	0	0	0
3851967	WORD	wordpools/wasnorm_wordpool_576.txt	LTP341	ltpFR2	7	19	WAITER	1580	n/a	n/a	0	0	0
3854649	WORD	wordpools/wasnorm_wordpool_576.txt	LTP341	ltpFR2	7	19	BOUQUET	157	n/a	n/a	0	0	0
3857098	WORD	wordpools/wasnorm_wordpool_576.txt	LTP341	ltpFR2	7	19	COCOON	339	n/a	n/a	0	0	0
3859630	WORD	wordpools/wasnorm_wordpool_576.txt	LTP341	ltpFR2	7	19	DAISY	435	n/a	n/a	0	0	0
3862362	WORD	wordpools/wasnorm_wordpool_576.txt	LTP341	ltpFR2	7	19	LADY	794	n/a	n/a	0	0	0
3864927	WORD	wordpools/wasnorm_wordpool_576.txt	LTP341	ltpFR2	7	19	PADDING	999	n/a	n/a	0	0	0
3867560	WORD	wordpools/wasnorm_wordpool_576.txt	LTP341	ltpFR2	7	19	SCOTCH	1251	n/a	n/a	0	0	0
3870225	WORD	wordpools/wasnorm_wordpool_576.txt	LTP341	ltpFR2	7	19	TREAT	1501	n/a	n/a	0	0	0
3872691	WORD	wordpools/wasnorm_wordpool_576.txt	LTP341	ltpFR2	7	19	TERMITE	1451	n/a	n/a	0	0	0
3875289	WORD	wordpools/wasnorm_wordpool_576.txt	LTP341	ltpFR2	7	19	DRAGON	492	n/a	n/a	0	0	0
3877838	WORD	wordpools/wasnorm_wordpool_576.txt	LTP341	ltpFR2	7	19	PIANO	1057	n/a	n/a	0	0	0
3880354	WORD	wordpools/wasnorm_wordpool_576.txt	LTP341	ltpFR2	7	19	RECORD	1176	n/a	n/a	0	0	0
3883136	WORD	wordpools/wasnorm_wordpool_576.txt	LTP341	ltpFR2	7	19	TOURIST	1488	n/a	n/a	0	0	0
3885918	WORD	wordpools/wasnorm_wordpool_576.txt	LTP341	ltpFR2	7	19	ICEBERG	731	n/a	n/a	0	0	0
3888583	WORD	wordpools/wasnorm_wordpool_576.txt	LTP341	ltpFR2	7	19	FILM	565	n/a	n/a	0	0	0
3891282	WORD	wordpools/wasnorm_wordpool_576.txt	LTP341	ltpFR2	7	19	COMPASS	358	n/a	n/a	0	0	0
3892898	START	n/a	LTP341	ltpFR2	7	n/a	n/a	n/a	29	n/a	n/a	n/a	n/a
3894059	DISTRACTOR	n/a	LTP341	ltpFR2	7	19	n/a	n/a	n/a	n/a	0	0	0
3894065	PROB	n/a	LTP341	ltpFR2	7	n/a	n/a	n/a	29	8	5	2	1
3896147	PROB	n/a	LTP341	ltpFR2	7	n/a	n/a	n/a	29	17	6	9	2
3898829	PROB	n/a	LTP341	ltpFR2	7	n/a	n/a	n/a	29	16	6	6	4
3900046	PROB	n/a	LTP341	ltpFR2	7	n/a	n/a	n/a	29	15	9	2	4
3902144	PROB	n/a	LTP341	ltpFR2	7	n/a	n/a	n/a	29	10	5	3	2
3903343	PROB	n/a	LTP341	ltpFR2	7	n/a	n/a	n/a	29	16	5	2	8
3905642	PROB	n/a	LTP341	ltpFR2	7	n/a	n/a	n/a	29	16	6	5	5
3906892	PROB	n/a	LTP341	ltpFR2	7	n/a	n/a	n/a	29	10	2	7	1
3907858	PROB	n/a	LTP341	ltpFR2	7	n/a	n/a	n/a	29	10	5	2	3
3909191	PROB	n/a	LTP341	ltpFR2	7	n/a	n/a	n/a	29	23	7	9	7
3911723	PROB	n/a	LTP341	ltpFR2	7	n/a	n/a	n/a	29	11	7	1	3
3912756	PROB	n/a	LTP341	ltpFR2	7	n/a	n/a	n/a	29	14	8	3	3
3914488	PROB	n/a	LTP341	ltpFR2	7	n/a	n/a	n/a	29	14	6	5	3
3915701	STOP	n/a	LTP341	ltpFR2	7	n/a	n/a	n/a	29	n/a	n/a	n/a	n/a
3918687	REC_START	n/a	LTP341	ltpFR2	7	19	n/a	n/a	n/a	n/a	0	0	0
3919152	REC_WORD	wordpools/wasnorm_wordpool_576.txt	LTP341	ltpFR2	7	19	ICEBERG	731	n/a	n/a	0	0	0
3919870	REC_WORD	wordpools/wasnorm_wordpool_576.txt	LTP341	ltpFR2	7	19	PIANO	1057	n/a	n/a	0	0	0
3920381	REC_WORD	wordpools/wasnorm_wordpool_576.txt	LTP341	ltpFR2	7	19	FILM	565	n/a	n/a	0	0	0
3921162	REC_WORD	wordpools/wasnorm_wordpool_576.txt	LTP341	ltpFR2	7	19	COMPASS	358	n/a	n/a	0	0	0
3923381	REC_WORD	wordpools/wasnorm_wordpool_576.txt	LTP341	ltpFR2	7	19	COCOON	339	n/a	n/a	0	0	0
3924808	REC_WORD	wordpools/wasnorm_wordpool_576.txt	LTP341	ltpFR2	7	19	DAISY	435	n/a	n/a	0	0	0
3925646	REC_WORD	wordpools/wasnorm_wordpool_576.txt	LTP341	ltpFR2	7	19	LADY	794	n/a	n/a	0	0	0
3926734	REC_WORD	wordpools/wasnorm_wordpool_576.txt	LTP341	ltpFR2	7	19	WAITRESS	1581	n/a	n/a	0	0	0
3941460	REC_WORD	wordpools/wasnorm_wordpool_576.txt	LTP341	ltpFR2	7	19	COIN	343	n/a	n/a	0	0	0
3942267	REC_WORD	wordpools/wasnorm_wordpool_576.txt	LTP341	ltpFR2	7	19	RECEIPT	1173	n/a	n/a	0	0	0
3943422	REC_WORD	wordpools/wasnorm_wordpool_576.txt	LTP341	ltpFR2	7	19	GIRL	637	n/a	n/a	0	0	0
3944817	REC_WORD	wordpools/wasnorm_wordpool_576.txt	LTP341	ltpFR2	7	19	PASTRY	1022	n/a	n/a	0	0	0
3945819	REC_WORD	wordpools/wasnorm_wordpool_576.txt	LTP341	ltpFR2	7	19	JELLO	754	n/a	n/a	0	0	0
4009112	DISTRACTOR	n/a	LTP341	ltpFR2	7	20	n/a	n/a	n/a	n/a	0	0	0
4009112	START	n/a	LTP341	ltpFR2	7	n/a	n/a	n/a	30	n/a	n/a	n/a	n/a
4009129	PROB	n/a	LTP341	ltpFR2	7	n/a	n/a	n/a	30	8	3	2	3
4011544	PROB	n/a	LTP341	ltpFR2	7	n/a	n/a	n/a	30	11	4	3	4
4014210	PROB	n/a	LTP341	ltpFR2	7	n/a	n/a	n/a	30	12	2	6	4
4015509	PROB	n/a	LTP341	ltpFR2	7	n/a	n/a	n/a	30	14	7	1	6
4016775	PROB	n/a	LTP341	ltpFR2	7	n/a	n/a	n/a	30	19	7	7	5
4018658	PROB	n/a	LTP341	ltpFR2	7	n/a	n/a	n/a	30	11	9	1	1
4019691	PROB	n/a	LTP341	ltpFR2	7	n/a	n/a	n/a	30	12	4	5	3
4021024	PROB	n/a	LTP341	ltpFR2	7	n/a	n/a	n/a	30	11	8	2	1
4022406	PROB	n/a	LTP341	ltpFR2	7	n/a	n/a	n/a	30	15	7	1	7
4023589	PROB	n/a	LTP341	ltpFR2	7	n/a	n/a	n/a	30	11	1	6	4
4024472	PROB	n/a	LTP341	ltpFR2	7	n/a	n/a	n/a	30	10	6	3	1
4025921	PROB	n/a	LTP341	ltpFR2	7	n/a	n/a	n/a	30	11	6	4	1
4027220	PROB	n/a	LTP341	ltpFR2	7	n/a	n/a	n/a	30	13	2	2	9
4028786	PROB	n/a	LTP341	ltpFR2	7	n/a	n/a	n/a	30	15	4	4	7
4029986	PROB	n/a	LTP341	ltpFR2	7	n/a	n/a	n/a	30	13	1	7	5
4031036	PROB	n/a	LTP341	ltpFR2	7	n/a	n/a	n/a	30	16	8	5	3
4032408	STOP	n/a	LTP341	ltpFR2	7	n/a	n/a	n/a	30	n/a	n/a	n/a	n/a
4034201	WORD	wordpools/wasnorm_wordpool_576.txt	LTP341	ltpFR2	7	20	CRAYON	401	n/a	n/a	0	0	0
4036949	WORD	wordpools/wasnorm_wordpool_576.txt	LTP341	ltpFR2	7	20	MARKER	870	n/a	n/a	0	0	0
4039565	WORD	wordpools/wasnorm_wordpool_576.txt	LTP341	ltpFR2	7	20	NOTEBOOK	959	n/a	n/a	0	0	0
4042280	WORD	wordpools/wasnorm_wordpool_576.txt	LTP341	ltpFR2	7	20	LOFT	840	n/a	n/a	0	0	0
4044779	WORD	wordpools/wasnorm_wordpool_576.txt	LTP341	ltpFR2	7	20	BLOCKADE	137	n/a	n/a	0	0	0
4047411	WORD	wordpools/wasnorm_wordpool_576.txt	LTP341	ltpFR2	7	20	MUFFIN	929	n/a	n/a	0	0	0
4049910	WORD	wordpools/wasnorm_wordpool_576.txt	LTP341	ltpFR2	7	20	MATTRESS	879	n/a	n/a	0	0	0
4052709	WORD	wordpools/wasnorm_wordpool_576.txt	LTP341	ltpFR2	7	20	LABEL	790	n/a	n/a	0	0	0
4055174	WORD	wordpools/wasnorm_wordpool_576.txt	LTP341	ltpFR2	7	20	SILK	1307	n/a	n/a	0	0	0
4057807	WORD	wordpools/wasnorm_wordpool_576.txt	LTP341	ltpFR2	7	20	AWARD	63	n/a	n/a	0	0	0
4060305	WORD	wordpools/wasnorm_wordpool_576.txt	LTP341	ltpFR2	7	20	CANDY	230	n/a	n/a	0	0	0
4063071	WORD	wordpools/wasnorm_wordpool_576.txt	LTP341	ltpFR2	7	20	GYMNAST	675	n/a	n/a	0	0	0
4065520	WORD	wordpools/wasnorm_wordpool_576.txt	LTP341	ltpFR2	7	20	WINDOW	1611	n/a	n/a	0	0	0
4067985	WORD	wordpools/wasnorm_wordpool_576.txt	LTP341	ltpFR2	7	20	GARLIC	624	n/a	n/a	0	0	0
4070701	WORD	wordpools/wasnorm_wordpool_576.txt	LTP341	ltpFR2	7	20	PIZZA	1079	n/a	n/a	0	0	0
4073483	WORD	wordpools/wasnorm_wordpool_576.txt	LTP341	ltpFR2	7	20	SHERIFF	1284	n/a	n/a	0	0	0
4076132	WORD	wordpools/wasnorm_wordpool_576.txt	LTP341	ltpFR2	7	20	GUARD	667	n/a	n/a	0	0	0
4078630	WORD	wordpools/wasnorm_wordpool_576.txt	LTP341	ltpFR2	7	20	TOASTER	1472	n/a	n/a	0	0	0
4081064	WORD	wordpools/wasnorm_wordpool_576.txt	LTP341	ltpFR2	7	20	CONVICT	371	n/a	n/a	0	0	0
4083728	WORD	wordpools/wasnorm_wordpool_576.txt	LTP341	ltpFR2	7	20	EGYPT	519	n/a	n/a	0	0	0
