mstime	trial_type	stim_file	subject	experiment	session	trial	task	item_name	item_num	recog_resp	recog_conf	resp	answer	test_x	test_y	test_z	color_r	color_g	color_b	case	font
0	SESS_START	n/a	LTP211	ltpFR	15	n/a	n/a	n/a	n/a	1	5	n/a	n/a	0	0	0	n/a	n/a	n/a	n/a	n/a
214538	START	n/a	LTP211	ltpFR	15	n/a	n/a	n/a	n/a	n/a	n/a	n/a	n/a	n/a	n/a	n/a	n/a	n/a	n/a	n/a	n/a
214588	PROB	n/a	LTP211	ltpFR	15	n/a	n/a	n/a	n/a	n/a	n/a	n/a	15	5	3	7	n/a	n/a	n/a	n/a	n/a
217181	PROB	n/a	LTP211	ltpFR	15	n/a	n/a	n/a	n/a	n/a	n/a	n/a	21	8	9	4	n/a	n/a	n/a	n/a	n/a
219322	PROB	n/a	LTP211	ltpFR	15	n/a	n/a	n/a	n/a	n/a	n/a	n/a	12	3	4	5	n/a	n/a	n/a	n/a	n/a
220794	PROB	n/a	LTP211	ltpFR	15	n/a	n/a	n/a	n/a	n/a	n/a	n/a	19	3	6	7	n/a	n/a	n/a	n/a	n/a
223003	PROB	n/a	LTP211	ltpFR	15	n/a	n/a	n/a	n/a	n/a	n/a	n/a	14	4	1	9	n/a	n/a	n/a	n/a	n/a
224425	PROB	n/a	LTP211	ltpFR	15	n/a	n/a	n/a	n/a	n/a	n/a	n/a	11	7	3	1	n/a	n/a	n/a	n/a	n/a
225663	PROB	n/a	LTP211	ltpFR	15	n/a	n/a	n/a	n/a	n/a	n/a	n/a	12	4	3	5	n/a	n/a	n/a	n/a	n/a
227219	PROB	n/a	LTP211	ltpFR	15	n/a	n/a	n/a	n/a	n/a	n/a	n/a	16	6	1	9	n/a	n/a	n/a	n/a	n/a
228724	PROB	n/a	LTP211	ltpFR	15	n/a	n/a	n/a	n/a	n/a	n/a	n/a	16	6	2	8	n/a	n/a	n/a	n/a	n/a
230046	PROB	n/a	LTP211	ltpFR	15	n/a	n/a	n/a	n/a	n/a	n/a	n/a	16	7	2	7	n/a	n/a	n/a	n/a	n/a
231719	PROB	n/a	LTP211	ltpFR	15	n/a	n/a	n/a	n/a	n/a	n/a	n/a	18	7	3	8	n/a	n/a	n/a	n/a	n/a
233352	STOP	n/a	LTP211	ltpFR	15	n/a	n/a	n/a	n/a	n/a	n/a	n/a	n/a	n/a	n/a	n/a	n/a	n/a	n/a	n/a	n/a
261950	START	n/a	LTP211	ltpFR	15	n/a	n/a	n/a	n/a	n/a	n/a	n/a	n/a	n/a	n/a	n/a	n/a	n/a	n/a	n/a	n/a
263455	PROB	n/a	LTP211	ltpFR	15	n/a	n/a	n/a	n/a	n/a	n/a	n/a	6	2	1	3	n/a	n/a	n/a	n/a	n/a
265078	PROB	n/a	LTP211	ltpFR	15	n/a	n/a	n/a	n/a	n/a	n/a	n/a	15	6	4	5	n/a	n/a	n/a	n/a	n/a
266835	PROB	n/a	LTP211	ltpFR	15	n/a	n/a	n/a	n/a	n/a	n/a	n/a	17	7	4	6	n/a	n/a	n/a	n/a	n/a
268441	PROB	n/a	LTP211	ltpFR	15	n/a	n/a	n/a	n/a	n/a	n/a	n/a	9	1	1	7	n/a	n/a	n/a	n/a	n/a
269575	STOP	n/a	LTP211	ltpFR	15	n/a	n/a	n/a	n/a	n/a	n/a	n/a	n/a	n/a	n/a	n/a	n/a	n/a	n/a	n/a	n/a
271101	WORD	wordpools/wasnorm_wordpool_less_exclusions.txt	LTP211	ltpFR	15	1	0	PRUNE	1134	0	n/a	0	n/a	0	0	0	0.57763671875	0.412841796875	1	lower	amplitud.ttf
274113	START	n/a	LTP211	ltpFR	15	n/a	n/a	n/a	n/a	n/a	n/a	n/a	n/a	n/a	n/a	n/a	n/a	n/a	n/a	n/a	n/a
275133	PROB	n/a	LTP211	ltpFR	15	n/a	n/a	n/a	n/a	n/a	n/a	n/a	12	1	6	5	n/a	n/a	n/a	n/a	n/a
276805	PROB	n/a	LTP211	ltpFR	15	n/a	n/a	n/a	n/a	n/a	n/a	n/a	12	1	3	8	n/a	n/a	n/a	n/a	n/a
278294	PROB	n/a	LTP211	ltpFR	15	n/a	n/a	n/a	n/a	n/a	n/a	n/a	13	4	3	6	n/a	n/a	n/a	n/a	n/a
279917	PROB	n/a	LTP211	ltpFR	15	n/a	n/a	n/a	n/a	n/a	n/a	n/a	15	1	5	9	n/a	n/a	n/a	n/a	n/a
281352	STOP	n/a	LTP211	ltpFR	15	n/a	n/a	n/a	n/a	n/a	n/a	n/a	n/a	n/a	n/a	n/a	n/a	n/a	n/a	n/a	n/a
283163	WORD	wordpools/wasnorm_wordpool_less_exclusions.txt	LTP211	ltpFR	15	1	0	FRUIT	610	n/a	n/a	0	n/a	0	0	0	0.57763671875	0.412841796875	1	lower	amplitud.ttf
286175	START	n/a	LTP211	ltpFR	15	n/a	n/a	n/a	n/a	n/a	n/a	n/a	n/a	n/a	n/a	n/a	n/a	n/a	n/a	n/a	n/a
287027	PROB	n/a	LTP211	ltpFR	15	n/a	n/a	n/a	n/a	n/a	n/a	n/a	8	1	2	5	n/a	n/a	n/a	n/a	n/a
288350	PROB	n/a	LTP211	ltpFR	15	n/a	n/a	n/a	n/a	n/a	n/a	n/a	18	9	7	2	n/a	n/a	n/a	n/a	n/a
289888	PROB	n/a	LTP211	ltpFR	15	n/a	n/a	n/a	n/a	n/a	n/a	n/a	8	3	4	1	n/a	n/a	n/a	n/a	n/a
291528	PROB	n/a	LTP211	ltpFR	15	n/a	n/a	n/a	n/a	n/a	n/a	n/a	13	6	1	6	n/a	n/a	n/a	n/a	n/a
292983	STOP	n/a	LTP211	ltpFR	15	n/a	n/a	n/a	n/a	n/a	n/a	n/a	n/a	n/a	n/a	n/a	n/a	n/a	n/a	n/a	n/a
295041	WORD	wordpools/wasnorm_wordpool_less_exclusions.txt	LTP211	ltpFR	15	1	0	OCEAN	970	n/a	n/a	1	n/a	0	0	0	0.57763671875	0.412841796875	1	lower	amplitud.ttf
298053	START	n/a	LTP211	ltpFR	15	n/a	n/a	n/a	n/a	n/a	n/a	n/a	n/a	n/a	n/a	n/a	n/a	n/a	n/a	n/a	n/a
299039	PROB	n/a	LTP211	ltpFR	15	n/a	n/a	n/a	n/a	n/a	n/a	n/a	17	4	5	8	n/a	n/a	n/a	n/a	n/a
300679	PROB	n/a	LTP211	ltpFR	15	n/a	n/a	n/a	n/a	n/a	n/a	n/a	14	7	1	6	n/a	n/a	n/a	n/a	n/a
302130	PROB	n/a	LTP211	ltpFR	15	n/a	n/a	n/a	n/a	n/a	n/a	n/a	12	5	3	4	n/a	n/a	n/a	n/a	n/a
303590	PROB	n/a	LTP211	ltpFR	15	n/a	n/a	n/a	n/a	n/a	n/a	n/a	19	8	5	6	n/a	n/a	n/a	n/a	n/a
305239	STOP	n/a	LTP211	ltpFR	15	n/a	n/a	n/a	n/a	n/a	n/a	n/a	n/a	n/a	n/a	n/a	n/a	n/a	n/a	n/a	n/a
307187	WORD	wordpools/wasnorm_wordpool_less_exclusions.txt	LTP211	ltpFR	15	1	0	TORCH	1484	n/a	n/a	1	n/a	0	0	0	0.57763671875	0.412841796875	1	lower	amplitud.ttf
310199	START	n/a	LTP211	ltpFR	15	n/a	n/a	n/a	n/a	n/a	n/a	n/a	n/a	n/a	n/a	n/a	n/a	n/a	n/a	n/a	n/a
311168	PROB	n/a	LTP211	ltpFR	15	n/a	n/a	n/a	n/a	n/a	n/a	n/a	17	9	7	1	n/a	n/a	n/a	n/a	n/a
313272	PROB	n/a	LTP211	ltpFR	15	n/a	n/a	n/a	n/a	n/a	n/a	n/a	18	9	8	1	n/a	n/a	n/a	n/a	n/a
314799	PROB	n/a	LTP211	ltpFR	15	n/a	n/a	n/a	n/a	n/a	n/a	n/a	18	6	5	7	n/a	n/a	n/a	n/a	n/a
316887	STOP	n/a	LTP211	ltpFR	15	n/a	n/a	n/a	n/a	n/a	n/a	n/a	n/a	n/a	n/a	n/a	n/a	n/a	n/a	n/a	n/a
319199	WORD	wordpools/wasnorm_wordpool_less_exclusions.txt	LTP211	ltpFR	15	1	0	MUSTARD	935	n/a	n/a	0	n/a	0	0	0	0.57763671875	0.412841796875	1	lower	amplitud.ttf
322210	START	n/a	LTP211	ltpFR	15	n/a	n/a	n/a	n/a	n/a	n/a	n/a	n/a	n/a	n/a	n/a	n/a	n/a	n/a	n/a	n/a
323080	PROB	n/a	LTP211	ltpFR	15	n/a	n/a	n/a	n/a	n/a	n/a	n/a	15	5	4	6	n/a	n/a	n/a	n/a	n/a
324849	PROB	n/a	LTP211	ltpFR	15	n/a	n/a	n/a	n/a	n/a	n/a	n/a	18	6	3	9	n/a	n/a	n/a	n/a	n/a
326288	PROB	n/a	LTP211	ltpFR	15	n/a	n/a	n/a	n/a	n/a	n/a	n/a	12	9	1	2	n/a	n/a	n/a	n/a	n/a
328178	PROB	n/a	LTP211	ltpFR	15	n/a	n/a	n/a	n/a	n/a	n/a	n/a	14	5	3	6	n/a	n/a	n/a	n/a	n/a
329751	STOP	n/a	LTP211	ltpFR	15	n/a	n/a	n/a	n/a	n/a	n/a	n/a	n/a	n/a	n/a	n/a	n/a	n/a	n/a	n/a	n/a
331089	WORD	wordpools/wasnorm_wordpool_less_exclusions.txt	LTP211	ltpFR	15	1	0	SALOON	1228	n/a	n/a	1	n/a	0	0	0	0.57763671875	0.412841796875	1	lower	amplitud.ttf
334105	START	n/a	LTP211	ltpFR	15	n/a	n/a	n/a	n/a	n/a	n/a	n/a	n/a	n/a	n/a	n/a	n/a	n/a	n/a	n/a	n/a
335125	PROB	n/a	LTP211	ltpFR	15	n/a	n/a	n/a	n/a	n/a	n/a	n/a	26	9	9	8	n/a	n/a	n/a	n/a	n/a
337986	PROB	n/a	LTP211	ltpFR	15	n/a	n/a	n/a	n/a	n/a	n/a	n/a	15	2	8	5	n/a	n/a	n/a	n/a	n/a
339822	PROB	n/a	LTP211	ltpFR	15	n/a	n/a	n/a	n/a	n/a	n/a	n/a	14	6	4	4	n/a	n/a	n/a	n/a	n/a
341063	STOP	n/a	LTP211	ltpFR	15	n/a	n/a	n/a	n/a	n/a	n/a	n/a	n/a	n/a	n/a	n/a	n/a	n/a	n/a	n/a	n/a
343122	WORD	wordpools/wasnorm_wordpool_less_exclusions.txt	LTP211	ltpFR	15	1	0	MUG	930	n/a	n/a	0	n/a	0	0	0	0.57763671875	0.412841796875	1	lower	amplitud.ttf
346134	START	n/a	LTP211	ltpFR	15	n/a	n/a	n/a	n/a	n/a	n/a	n/a	n/a	n/a	n/a	n/a	n/a	n/a	n/a	n/a	n/a
347104	PROB	n/a	LTP211	ltpFR	15	n/a	n/a	n/a	n/a	n/a	n/a	n/a	21	6	8	7	n/a	n/a	n/a	n/a	n/a
348710	PROB	n/a	LTP211	ltpFR	15	n/a	n/a	n/a	n/a	n/a	n/a	n/a	24	8	8	7	n/a	n/a	n/a	n/a	n/a
350864	PROB	n/a	LTP211	ltpFR	15	n/a	n/a	n/a	n/a	n/a	n/a	n/a	19	3	9	7	n/a	n/a	n/a	n/a	n/a
353111	STOP	n/a	LTP211	ltpFR	15	n/a	n/a	n/a	n/a	n/a	n/a	n/a	n/a	n/a	n/a	n/a	n/a	n/a	n/a	n/a	n/a
355063	WORD	wordpools/wasnorm_wordpool_less_exclusions.txt	LTP211	ltpFR	15	1	0	GATE	625	n/a	n/a	1	n/a	0	0	0	0.57763671875	0.412841796875	1	lower	amplitud.ttf
358079	START	n/a	LTP211	ltpFR	15	n/a	n/a	n/a	n/a	n/a	n/a	n/a	n/a	n/a	n/a	n/a	n/a	n/a	n/a	n/a	n/a
359283	PROB	n/a	LTP211	ltpFR	15	n/a	n/a	n/a	n/a	n/a	n/a	n/a	17	3	9	5	n/a	n/a	n/a	n/a	n/a
361270	PROB	n/a	LTP211	ltpFR	15	n/a	n/a	n/a	n/a	n/a	n/a	n/a	11	4	3	4	n/a	n/a	n/a	n/a	n/a
362943	PROB	n/a	LTP211	ltpFR	15	n/a	n/a	n/a	n/a	n/a	n/a	n/a	24	7	9	8	n/a	n/a	n/a	n/a	n/a
365031	STOP	n/a	LTP211	ltpFR	15	n/a	n/a	n/a	n/a	n/a	n/a	n/a	n/a	n/a	n/a	n/a	n/a	n/a	n/a	n/a	n/a
367242	WORD	wordpools/wasnorm_wordpool_less_exclusions.txt	LTP211	ltpFR	15	1	0	IRON	744	n/a	n/a	0	n/a	0	0	0	0.57763671875	0.412841796875	1	lower	amplitud.ttf
370258	START	n/a	LTP211	ltpFR	15	n/a	n/a	n/a	n/a	n/a	n/a	n/a	n/a	n/a	n/a	n/a	n/a	n/a	n/a	n/a	n/a
371278	PROB	n/a	LTP211	ltpFR	15	n/a	n/a	n/a	n/a	n/a	n/a	n/a	14	8	3	3	n/a	n/a	n/a	n/a	n/a
373064	PROB	n/a	LTP211	ltpFR	15	n/a	n/a	n/a	n/a	n/a	n/a	n/a	16	7	1	8	n/a	n/a	n/a	n/a	n/a
374653	PROB	n/a	LTP211	ltpFR	15	n/a	n/a	n/a	n/a	n/a	n/a	n/a	17	3	7	7	n/a	n/a	n/a	n/a	n/a
376276	PROB	n/a	LTP211	ltpFR	15	n/a	n/a	n/a	n/a	n/a	n/a	n/a	15	5	5	5	n/a	n/a	n/a	n/a	n/a
377287	STOP	n/a	LTP211	ltpFR	15	n/a	n/a	n/a	n/a	n/a	n/a	n/a	n/a	n/a	n/a	n/a	n/a	n/a	n/a	n/a	n/a
379175	WORD	wordpools/wasnorm_wordpool_less_exclusions.txt	LTP211	ltpFR	15	1	0	MACARONI	851	n/a	n/a	0	n/a	0	0	0	0.57763671875	0.412841796875	1	lower	amplitud.ttf
382186	START	n/a	LTP211	ltpFR	15	n/a	n/a	n/a	n/a	n/a	n/a	n/a	n/a	n/a	n/a	n/a	n/a	n/a	n/a	n/a	n/a
383341	PROB	n/a	LTP211	ltpFR	15	n/a	n/a	n/a	n/a	n/a	n/a	n/a	24	7	8	8	n/a	n/a	n/a	n/a	n/a
385009	PROB	n/a	LTP211	ltpFR	15	n/a	n/a	n/a	n/a	n/a	n/a	n/a	13	1	3	9	n/a	n/a	n/a	n/a	n/a
386498	PROB	n/a	LTP211	ltpFR	15	n/a	n/a	n/a	n/a	n/a	n/a	n/a	24	9	8	7	n/a	n/a	n/a	n/a	n/a
387937	PROB	n/a	LTP211	ltpFR	15	n/a	n/a	n/a	n/a	n/a	n/a	n/a	21	9	6	6	n/a	n/a	n/a	n/a	n/a
389535	STOP	n/a	LTP211	ltpFR	15	n/a	n/a	n/a	n/a	n/a	n/a	n/a	n/a	n/a	n/a	n/a	n/a	n/a	n/a	n/a	n/a
391372	WORD	wordpools/wasnorm_wordpool_less_exclusions.txt	LTP211	ltpFR	15	1	0	COURT	391	n/a	n/a	1	n/a	0	0	0	0.57763671875	0.412841796875	1	lower	amplitud.ttf
394383	START	n/a	LTP211	ltpFR	15	n/a	n/a	n/a	n/a	n/a	n/a	n/a	n/a	n/a	n/a	n/a	n/a	n/a	n/a	n/a	n/a
395436	PROB	n/a	LTP211	ltpFR	15	n/a	n/a	n/a	n/a	n/a	n/a	n/a	16	9	5	2	n/a	n/a	n/a	n/a	n/a
397105	PROB	n/a	LTP211	ltpFR	15	n/a	n/a	n/a	n/a	n/a	n/a	n/a	14	4	2	8	n/a	n/a	n/a	n/a	n/a
398928	PROB	n/a	LTP211	ltpFR	15	n/a	n/a	n/a	n/a	n/a	n/a	n/a	22	6	8	8	n/a	n/a	n/a	n/a	n/a
401368	STOP	n/a	LTP211	ltpFR	15	n/a	n/a	n/a	n/a	n/a	n/a	n/a	n/a	n/a	n/a	n/a	n/a	n/a	n/a	n/a	n/a
403516	WORD	wordpools/wasnorm_wordpool_less_exclusions.txt	LTP211	ltpFR	15	1	0	GROCERIES	663	n/a	n/a	1	n/a	0	0	0	0.57763671875	0.412841796875	1	lower	amplitud.ttf
406528	START	n/a	LTP211	ltpFR	15	n/a	n/a	n/a	n/a	n/a	n/a	n/a	n/a	n/a	n/a	n/a	n/a	n/a	n/a	n/a	n/a
407348	PROB	n/a	LTP211	ltpFR	15	n/a	n/a	n/a	n/a	n/a	n/a	n/a	11	8	1	2	n/a	n/a	n/a	n/a	n/a
408820	PROB	n/a	LTP211	ltpFR	15	n/a	n/a	n/a	n/a	n/a	n/a	n/a	16	9	6	1	n/a	n/a	n/a	n/a	n/a
410509	PROB	n/a	LTP211	ltpFR	15	n/a	n/a	n/a	n/a	n/a	n/a	n/a	15	4	9	2	n/a	n/a	n/a	n/a	n/a
412462	PROB	n/a	LTP211	ltpFR	15	n/a	n/a	n/a	n/a	n/a	n/a	n/a	16	3	7	6	n/a	n/a	n/a	n/a	n/a
413575	STOP	n/a	LTP211	ltpFR	15	n/a	n/a	n/a	n/a	n/a	n/a	n/a	n/a	n/a	n/a	n/a	n/a	n/a	n/a	n/a	n/a
415461	WORD	wordpools/wasnorm_wordpool_less_exclusions.txt	LTP211	ltpFR	15	1	0	LIST	830	n/a	n/a	0	n/a	0	0	0	0.57763671875	0.412841796875	1	lower	amplitud.ttf
418473	START	n/a	LTP211	ltpFR	15	n/a	n/a	n/a	n/a	n/a	n/a	n/a	n/a	n/a	n/a	n/a	n/a	n/a	n/a	n/a	n/a
419543	PROB	n/a	LTP211	ltpFR	15	n/a	n/a	n/a	n/a	n/a	n/a	n/a	12	3	4	5	n/a	n/a	n/a	n/a	n/a
420961	PROB	n/a	LTP211	ltpFR	15	n/a	n/a	n/a	n/a	n/a	n/a	n/a	24	9	8	6	n/a	n/a	n/a	n/a	n/a
423688	PROB	n/a	LTP211	ltpFR	15	n/a	n/a	n/a	n/a	n/a	n/a	n/a	5	1	2	2	n/a	n/a	n/a	n/a	n/a
425263	STOP	n/a	LTP211	ltpFR	15	n/a	n/a	n/a	n/a	n/a	n/a	n/a	n/a	n/a	n/a	n/a	n/a	n/a	n/a	n/a	n/a
427473	WORD	wordpools/wasnorm_wordpool_less_exclusions.txt	LTP211	ltpFR	15	1	0	POTATO	1115	n/a	n/a	0	n/a	0	0	0	0.57763671875	0.412841796875	1	lower	amplitud.ttf
430485	START	n/a	LTP211	ltpFR	15	n/a	n/a	n/a	n/a	n/a	n/a	n/a	n/a	n/a	n/a	n/a	n/a	n/a	n/a	n/a	n/a
431505	PROB	n/a	LTP211	ltpFR	15	n/a	n/a	n/a	n/a	n/a	n/a	n/a	13	6	1	6	n/a	n/a	n/a	n/a	n/a
432956	PROB	n/a	LTP211	ltpFR	15	n/a	n/a	n/a	n/a	n/a	n/a	n/a	24	8	9	7	n/a	n/a	n/a	n/a	n/a
435014	PROB	n/a	LTP211	ltpFR	15	n/a	n/a	n/a	n/a	n/a	n/a	n/a	18	9	3	6	n/a	n/a	n/a	n/a	n/a
437303	STOP	n/a	LTP211	ltpFR	15	n/a	n/a	n/a	n/a	n/a	n/a	n/a	n/a	n/a	n/a	n/a	n/a	n/a	n/a	n/a	n/a
439369	WORD	wordpools/wasnorm_wordpool_less_exclusions.txt	LTP211	ltpFR	15	1	0	KETCHUP	771	n/a	n/a	0	n/a	0	0	0	0.57763671875	0.412841796875	1	lower	amplitud.ttf
442381	START	n/a	LTP211	ltpFR	15	n/a	n/a	n/a	n/a	n/a	n/a	n/a	n/a	n/a	n/a	n/a	n/a	n/a	n/a	n/a	n/a
443467	PROB	n/a	LTP211	ltpFR	15	n/a	n/a	n/a	n/a	n/a	n/a	n/a	17	8	3	6	n/a	n/a	n/a	n/a	n/a
446591	PROB	n/a	LTP211	ltpFR	15	n/a	n/a	n/a	n/a	n/a	n/a	n/a	16	7	2	7	n/a	n/a	n/a	n/a	n/a
450381	STOP	n/a	LTP211	ltpFR	15	n/a	n/a	n/a	n/a	n/a	n/a	n/a	n/a	n/a	n/a	n/a	n/a	n/a	n/a	n/a	n/a
451398	WORD	wordpools/wasnorm_wordpool_less_exclusions.txt	LTP211	ltpFR	15	1	0	FISH	571	n/a	n/a	0	n/a	0	0	0	0.57763671875	0.412841796875	1	lower	amplitud.ttf
454409	START	n/a	LTP211	ltpFR	15	n/a	n/a	n/a	n/a	n/a	n/a	n/a	n/a	n/a	n/a	n/a	n/a	n/a	n/a	n/a	n/a
455228	PROB	n/a	LTP211	ltpFR	15	n/a	n/a	n/a	n/a	n/a	n/a	n/a	17	5	4	8	n/a	n/a	n/a	n/a	n/a
456930	PROB	n/a	LTP211	ltpFR	15	n/a	n/a	n/a	n/a	n/a	n/a	n/a	25	9	6	9	n/a	n/a	n/a	n/a	n/a
459289	PROB	n/a	LTP211	ltpFR	15	n/a	n/a	n/a	n/a	n/a	n/a	n/a	11	2	5	4	n/a	n/a	n/a	n/a	n/a
461167	STOP	n/a	LTP211	ltpFR	15	n/a	n/a	n/a	n/a	n/a	n/a	n/a	n/a	n/a	n/a	n/a	n/a	n/a	n/a	n/a	n/a
464325	REC_START	n/a	LTP211	ltpFR	15	1	n/a	n/a	n/a	n/a	n/a	n/a	n/a	0	0	0	n/a	n/a	n/a	n/a	n/a
466290	REC_WORD	wordpools/wasnorm_wordpool_less_exclusions.txt	LTP211	ltpFR	15	1	0	PRUNE	1134	n/a	n/a	0	n/a	0	0	0	n/a	n/a	n/a	n/a	n/a
467033	REC_WORD	wordpools/wasnorm_wordpool_less_exclusions.txt	LTP211	ltpFR	15	1	0	FRUIT	610	n/a	n/a	0	n/a	0	0	0	n/a	n/a	n/a	n/a	n/a
468146	REC_WORD	wordpools/wasnorm_wordpool_less_exclusions.txt	LTP211	ltpFR	15	1	0	OCEAN	970	n/a	n/a	1	n/a	0	0	0	n/a	n/a	n/a	n/a	n/a
469128	REC_WORD	wordpools/wasnorm_wordpool_less_exclusions.txt	LTP211	ltpFR	15	1	0	TORCH	1484	n/a	n/a	1	n/a	0	0	0	n/a	n/a	n/a	n/a	n/a
471833	REC_WORD	wordpools/wasnorm_wordpool_less_exclusions.txt	LTP211	ltpFR	15	1	0	MUSTARD	935	n/a	n/a	0	n/a	0	0	0	n/a	n/a	n/a	n/a	n/a
473825	REC_WORD	wordpools/wasnorm_wordpool_less_exclusions.txt	LTP211	ltpFR	15	1	0	SALOON	1228	n/a	n/a	1	n/a	0	0	0	n/a	n/a	n/a	n/a	n/a
477245	REC_WORD	wordpools/wasnorm_wordpool_less_exclusions.txt	LTP211	ltpFR	15	1	0	MUG	930	n/a	n/a	0	n/a	0	0	0	n/a	n/a	n/a	n/a	n/a
478707	REC_WORD	wordpools/wasnorm_wordpool_less_exclusions.txt	LTP211	ltpFR	15	1	0	GATE	625	n/a	n/a	1	n/a	0	0	0	n/a	n/a	n/a	n/a	n/a
480655	REC_WORD	wordpools/wasnorm_wordpool_less_exclusions.txt	LTP211	ltpFR	15	1	0	IRON	744	n/a	n/a	0	n/a	0	0	0	n/a	n/a	n/a	n/a	n/a
483661	REC_WORD	wordpools/wasnorm_wordpool_less_exclusions.txt	LTP211	ltpFR	15	1	0	MACARONI	851	n/a	n/a	0	n/a	0	0	0	n/a	n/a	n/a	n/a	n/a
488056	REC_WORD	wordpools/wasnorm_wordpool_less_exclusions.txt	LTP211	ltpFR	15	1	0	COURT	391	n/a	n/a	1	n/a	0	0	0	n/a	n/a	n/a	n/a	n/a
491022	REC_WORD	wordpools/wasnorm_wordpool_less_exclusions.txt	LTP211	ltpFR	15	1	0	GROCERIES	663	n/a	n/a	1	n/a	0	0	0	n/a	n/a	n/a	n/a	n/a
492610	REC_WORD	wordpools/wasnorm_wordpool_less_exclusions.txt	LTP211	ltpFR	15	1	0	LIST	830	n/a	n/a	0	n/a	0	0	0	n/a	n/a	n/a	n/a	n/a
494561	REC_WORD	wordpools/wasnorm_wordpool_less_exclusions.txt	LTP211	ltpFR	15	1	0	POTATO	1115	n/a	n/a	0	n/a	0	0	0	n/a	n/a	n/a	n/a	n/a
497864	REC_WORD	wordpools/wasnorm_wordpool_less_exclusions.txt	LTP211	ltpFR	15	1	0	KETCHUP	771	n/a	n/a	0	n/a	0	0	0	n/a	n/a	n/a	n/a	n/a
499753	REC_WORD	wordpools/wasnorm_wordpool_less_exclusions.txt	LTP211	ltpFR	15	1	0	FISH	571	n/a	n/a	0	n/a	0	0	0	n/a	n/a	n/a	n/a	n/a
516631	REC_WORD	wordpools/wasnorm_wordpool_less_exclusions.txt	LTP211	ltpFR	15	1	0	GATE	625	n/a	n/a	1	n/a	0	0	0	n/a	n/a	n/a	n/a	n/a
544113	WORD	wordpools/wasnorm_wordpool_less_exclusions.txt	LTP211	ltpFR	15	2	0	HAY	693	n/a	n/a	0	n/a	0	0	0	0.57763671875	0.412841796875	1	lower	amplitud.ttf
548245	WORD	wordpools/wasnorm_wordpool_less_exclusions.txt	LTP211	ltpFR	15	2	0	PEOPLE	1046	n/a	n/a	1	n/a	0	0	0	0.57763671875	0.412841796875	1	lower	amplitud.ttf
552444	WORD	wordpools/wasnorm_wordpool_less_exclusions.txt	LTP211	ltpFR	15	2	1	SHOP	1290	n/a	n/a	1	n/a	0	0	0	0.422607421875	0.5869140625	0	upper	zerothre.ttf
556643	WORD	wordpools/wasnorm_wordpool_less_exclusions.txt	LTP211	ltpFR	15	2	1	ENGINEER	536	n/a	n/a	1	n/a	0	0	0	0.422607421875	0.5869140625	0	upper	zerothre.ttf
560771	WORD	wordpools/wasnorm_wordpool_less_exclusions.txt	LTP211	ltpFR	15	2	1	SOCIETY	1338	n/a	n/a	0	n/a	0	0	0	0.422607421875	0.5869140625	0	upper	zerothre.ttf
564657	WORD	wordpools/wasnorm_wordpool_less_exclusions.txt	LTP211	ltpFR	15	2	1	CAMEL	223	n/a	n/a	1	n/a	0	0	0	0.422607421875	0.5869140625	0	upper	zerothre.ttf
568752	WORD	wordpools/wasnorm_wordpool_less_exclusions.txt	LTP211	ltpFR	15	2	0	ASH	44	n/a	n/a	0	n/a	0	0	0	0.57763671875	0.412841796875	1	lower	amplitud.ttf
572905	WORD	wordpools/wasnorm_wordpool_less_exclusions.txt	LTP211	ltpFR	15	2	0	BANKER	84	n/a	n/a	1	n/a	0	0	0	0.57763671875	0.412841796875	1	lower	amplitud.ttf
576769	WORD	wordpools/wasnorm_wordpool_less_exclusions.txt	LTP211	ltpFR	15	2	0	HEART	697	n/a	n/a	1	n/a	0	0	0	0.57763671875	0.412841796875	1	lower	amplitud.ttf
580684	WORD	wordpools/wasnorm_wordpool_less_exclusions.txt	LTP211	ltpFR	15	2	1	FLESH	579	n/a	n/a	0	n/a	0	0	0	0.422607421875	0.5869140625	0	upper	zerothre.ttf
584699	WORD	wordpools/wasnorm_wordpool_less_exclusions.txt	LTP211	ltpFR	15	2	1	PASTRY	1022	n/a	n/a	0	n/a	0	0	0	0.422607421875	0.5869140625	0	upper	zerothre.ttf
588865	WORD	wordpools/wasnorm_wordpool_less_exclusions.txt	LTP211	ltpFR	15	2	1	CONTAINER	366	n/a	n/a	0	n/a	0	0	0	0.422607421875	0.5869140625	0	upper	zerothre.ttf
592729	WORD	wordpools/wasnorm_wordpool_less_exclusions.txt	LTP211	ltpFR	15	2	1	HALL	677	n/a	n/a	0	n/a	0	0	0	0.422607421875	0.5869140625	0	upper	zerothre.ttf
596644	WORD	wordpools/wasnorm_wordpool_less_exclusions.txt	LTP211	ltpFR	15	2	0	TWINE	1529	n/a	n/a	0	n/a	0	0	0	0.57763671875	0.412841796875	1	lower	amplitud.ttf
600726	WORD	wordpools/wasnorm_wordpool_less_exclusions.txt	LTP211	ltpFR	15	2	0	FACTORY	548	n/a	n/a	1	n/a	0	0	0	0.57763671875	0.412841796875	1	lower	amplitud.ttf
604925	WORD	wordpools/wasnorm_wordpool_less_exclusions.txt	LTP211	ltpFR	15	2	0	CUSTOMER	430	n/a	n/a	1	n/a	0	0	0	0.57763671875	0.412841796875	1	lower	amplitud.ttf
607937	START	n/a	LTP211	ltpFR	15	n/a	n/a	n/a	n/a	n/a	n/a	n/a	n/a	n/a	n/a	n/a	n/a	n/a	n/a	n/a	n/a
609091	PROB	n/a	LTP211	ltpFR	15	n/a	n/a	n/a	n/a	n/a	n/a	n/a	10	3	2	5	n/a	n/a	n/a	n/a	n/a
611563	PROB	n/a	LTP211	ltpFR	15	n/a	n/a	n/a	n/a	n/a	n/a	n/a	11	2	2	7	n/a	n/a	n/a	n/a	n/a
612834	PROB	n/a	LTP211	ltpFR	15	n/a	n/a	n/a	n/a	n/a	n/a	n/a	13	7	4	2	n/a	n/a	n/a	n/a	n/a
614392	STOP	n/a	LTP211	ltpFR	15	n/a	n/a	n/a	n/a	n/a	n/a	n/a	n/a	n/a	n/a	n/a	n/a	n/a	n/a	n/a	n/a
617791	REC_START	n/a	LTP211	ltpFR	15	2	n/a	n/a	n/a	n/a	n/a	n/a	n/a	0	0	0	n/a	n/a	n/a	n/a	n/a
620355	REC_WORD	wordpools/wasnorm_wordpool_less_exclusions.txt	LTP211	ltpFR	15	2	0	HAY	693	n/a	n/a	0	n/a	0	0	0	n/a	n/a	n/a	n/a	n/a
621398	REC_WORD	wordpools/wasnorm_wordpool_less_exclusions.txt	LTP211	ltpFR	15	2	0	PEOPLE	1046	n/a	n/a	1	n/a	0	0	0	n/a	n/a	n/a	n/a	n/a
622211	REC_WORD	wordpools/wasnorm_wordpool_less_exclusions.txt	LTP211	ltpFR	15	2	1	SHOP	1290	n/a	n/a	1	n/a	0	0	0	n/a	n/a	n/a	n/a	n/a
624336	REC_WORD	wordpools/wasnorm_wordpool_less_exclusions.txt	LTP211	ltpFR	15	2	1	ENGINEER	536	n/a	n/a	1	n/a	0	0	0	n/a	n/a	n/a	n/a	n/a
625293	REC_WORD	wordpools/wasnorm_wordpool_less_exclusions.txt	LTP211	ltpFR	15	2	1	SOCIETY	1338	n/a	n/a	0	n/a	0	0	0	n/a	n/a	n/a	n/a	n/a
627888	REC_WORD	wordpools/wasnorm_wordpool_less_exclusions.txt	LTP211	ltpFR	15	2	1	CAMEL	223	n/a	n/a	1	n/a	0	0	0	n/a	n/a	n/a	n/a	n/a
628935	REC_WORD	wordpools/wasnorm_wordpool_less_exclusions.txt	LTP211	ltpFR	15	2	0	ASH	44	n/a	n/a	0	n/a	0	0	0	n/a	n/a	n/a	n/a	n/a
629853	REC_WORD	wordpools/wasnorm_wordpool_less_exclusions.txt	LTP211	ltpFR	15	2	0	BANKER	84	n/a	n/a	1	n/a	0	0	0	n/a	n/a	n/a	n/a	n/a
631958	REC_WORD	wordpools/wasnorm_wordpool_less_exclusions.txt	LTP211	ltpFR	15	2	0	HEART	697	n/a	n/a	1	n/a	0	0	0	n/a	n/a	n/a	n/a	n/a
634540	REC_WORD	wordpools/wasnorm_wordpool_less_exclusions.txt	LTP211	ltpFR	15	2	1	FLESH	579	n/a	n/a	0	n/a	0	0	0	n/a	n/a	n/a	n/a	n/a
637546	REC_WORD	wordpools/wasnorm_wordpool_less_exclusions.txt	LTP211	ltpFR	15	2	1	PASTRY	1022	n/a	n/a	0	n/a	0	0	0	n/a	n/a	n/a	n/a	n/a
638398	REC_WORD	wordpools/wasnorm_wordpool_less_exclusions.txt	LTP211	ltpFR	15	2	1	CONTAINER	366	n/a	n/a	0	n/a	0	0	0	n/a	n/a	n/a	n/a	n/a
639417	REC_WORD	wordpools/wasnorm_wordpool_less_exclusions.txt	LTP211	ltpFR	15	2	0	TWINE	1529	n/a	n/a	0	n/a	0	0	0	n/a	n/a	n/a	n/a	n/a
641730	REC_WORD	wordpools/wasnorm_wordpool_less_exclusions.txt	LTP211	ltpFR	15	2	0	FACTORY	548	n/a	n/a	1	n/a	0	0	0	n/a	n/a	n/a	n/a	n/a
646057	REC_WORD	wordpools/wasnorm_wordpool_less_exclusions.txt	LTP211	ltpFR	15	2	0	CUSTOMER	430	n/a	n/a	1	n/a	0	0	0	n/a	n/a	n/a	n/a	n/a
696286	WORD	wordpools/wasnorm_wordpool_less_exclusions.txt	LTP211	ltpFR	15	3	0	WHEEL	1603	n/a	n/a	1	n/a	0	0	0	0.57763671875	0.412841796875	1	lower	amplitud.ttf
700180	WORD	wordpools/wasnorm_wordpool_less_exclusions.txt	LTP211	ltpFR	15	3	0	CARAVAN	242	n/a	n/a	1	n/a	0	0	0	0.57763671875	0.412841796875	1	lower	amplitud.ttf
704246	WORD	wordpools/wasnorm_wordpool_less_exclusions.txt	LTP211	ltpFR	15	3	0	SHOWER	1296	n/a	n/a	1	n/a	0	0	0	0.57763671875	0.412841796875	1	lower	amplitud.ttf
708379	WORD	wordpools/wasnorm_wordpool_less_exclusions.txt	LTP211	ltpFR	15	3	0	CROCODILE	411	n/a	n/a	1	n/a	0	0	0	0.57763671875	0.412841796875	1	lower	amplitud.ttf
712497	WORD	wordpools/wasnorm_wordpool_less_exclusions.txt	LTP211	ltpFR	15	3	1	JOKER	759	n/a	n/a	1	n/a	0	0	0	0.422607421875	0.5869140625	0	upper	zerothre.ttf
716446	WORD	wordpools/wasnorm_wordpool_less_exclusions.txt	LTP211	ltpFR	15	3	1	HAIL	676	n/a	n/a	0	n/a	0	0	0	0.422607421875	0.5869140625	0	upper	zerothre.ttf
720289	WORD	wordpools/wasnorm_wordpool_less_exclusions.txt	LTP211	ltpFR	15	3	1	PUDDLE	1140	n/a	n/a	0	n/a	0	0	0	0.422607421875	0.5869140625	0	upper	zerothre.ttf
724360	WORD	wordpools/wasnorm_wordpool_less_exclusions.txt	LTP211	ltpFR	15	3	0	GREASE	660	n/a	n/a	0	n/a	0	0	0	0.57763671875	0.412841796875	1	lower	amplitud.ttf
728424	WORD	wordpools/wasnorm_wordpool_less_exclusions.txt	LTP211	ltpFR	15	3	0	POPCORN	1104	n/a	n/a	0	n/a	0	0	0	0.57763671875	0.412841796875	1	lower	amplitud.ttf
732540	WORD	wordpools/wasnorm_wordpool_less_exclusions.txt	LTP211	ltpFR	15	3	0	APRON	35	n/a	n/a	0	n/a	0	0	0	0.57763671875	0.412841796875	1	lower	amplitud.ttf
736668	WORD	wordpools/wasnorm_wordpool_less_exclusions.txt	LTP211	ltpFR	15	3	0	PARROT	1015	n/a	n/a	0	n/a	0	0	0	0.57763671875	0.412841796875	1	lower	amplitud.ttf
740771	WORD	wordpools/wasnorm_wordpool_less_exclusions.txt	LTP211	ltpFR	15	3	1	MASCARA	875	n/a	n/a	0	n/a	0	0	0	0.422607421875	0.5869140625	0	upper	zerothre.ttf
744769	WORD	wordpools/wasnorm_wordpool_less_exclusions.txt	LTP211	ltpFR	15	3	1	CACTUS	215	n/a	n/a	0	n/a	0	0	0	0.422607421875	0.5869140625	0	upper	zerothre.ttf
748897	WORD	wordpools/wasnorm_wordpool_less_exclusions.txt	LTP211	ltpFR	15	3	1	BAKER	71	n/a	n/a	1	n/a	0	0	0	0.422607421875	0.5869140625	0	upper	zerothre.ttf
752883	WORD	wordpools/wasnorm_wordpool_less_exclusions.txt	LTP211	ltpFR	15	3	1	COOK	372	n/a	n/a	1	n/a	0	0	0	0.422607421875	0.5869140625	0	upper	zerothre.ttf
756999	WORD	wordpools/wasnorm_wordpool_less_exclusions.txt	LTP211	ltpFR	15	3	1	BRIDGE	174	n/a	n/a	0	n/a	0	0	0	0.422607421875	0.5869140625	0	upper	zerothre.ttf
760010	START	n/a	LTP211	ltpFR	15	n/a	n/a	n/a	n/a	n/a	n/a	n/a	n/a	n/a	n/a	n/a	n/a	n/a	n/a	n/a	n/a
761177	PROB	n/a	LTP211	ltpFR	15	n/a	n/a	n/a	n/a	n/a	n/a	n/a	20	8	5	7	n/a	n/a	n/a	n/a	n/a
764857	PROB	n/a	LTP211	ltpFR	15	n/a	n/a	n/a	n/a	n/a	n/a	n/a	8	1	1	6	n/a	n/a	n/a	n/a	n/a
765961	PROB	n/a	LTP211	ltpFR	15	n/a	n/a	n/a	n/a	n/a	n/a	n/a	21	7	9	5	n/a	n/a	n/a	n/a	n/a
768956	PROB	n/a	LTP211	ltpFR	15	n/a	n/a	n/a	n/a	n/a	n/a	n/a	12	5	6	1	n/a	n/a	n/a	n/a	n/a
773272	PROB	n/a	LTP211	ltpFR	15	n/a	n/a	n/a	n/a	n/a	n/a	n/a	19	7	9	3	n/a	n/a	n/a	n/a	n/a
775119	STOP	n/a	LTP211	ltpFR	15	n/a	n/a	n/a	n/a	n/a	n/a	n/a	n/a	n/a	n/a	n/a	n/a	n/a	n/a	n/a	n/a
777941	REC_START	n/a	LTP211	ltpFR	15	3	n/a	n/a	n/a	n/a	n/a	n/a	n/a	0	0	0	n/a	n/a	n/a	n/a	n/a
780156	REC_WORD	wordpools/wasnorm_wordpool_less_exclusions.txt	LTP211	ltpFR	15	3	0	WHEEL	1603	n/a	n/a	1	n/a	0	0	0	n/a	n/a	n/a	n/a	n/a
780949	REC_WORD	wordpools/wasnorm_wordpool_less_exclusions.txt	LTP211	ltpFR	15	3	0	CARAVAN	242	n/a	n/a	1	n/a	0	0	0	n/a	n/a	n/a	n/a	n/a
781927	REC_WORD	wordpools/wasnorm_wordpool_less_exclusions.txt	LTP211	ltpFR	15	3	0	SHOWER	1296	n/a	n/a	1	n/a	0	0	0	n/a	n/a	n/a	n/a	n/a
783004	REC_WORD	wordpools/wasnorm_wordpool_less_exclusions.txt	LTP211	ltpFR	15	3	0	CROCODILE	411	n/a	n/a	1	n/a	0	0	0	n/a	n/a	n/a	n/a	n/a
785326	REC_WORD	wordpools/wasnorm_wordpool_less_exclusions.txt	LTP211	ltpFR	15	3	1	HAIL	676	n/a	n/a	0	n/a	0	0	0	n/a	n/a	n/a	n/a	n/a
787584	REC_WORD	wordpools/wasnorm_wordpool_less_exclusions.txt	LTP211	ltpFR	15	3	1	PUDDLE	1140	n/a	n/a	0	n/a	0	0	0	n/a	n/a	n/a	n/a	n/a
789589	REC_WORD	wordpools/wasnorm_wordpool_less_exclusions.txt	LTP211	ltpFR	15	3	0	GREASE	660	n/a	n/a	0	n/a	0	0	0	n/a	n/a	n/a	n/a	n/a
790547	REC_WORD	wordpools/wasnorm_wordpool_less_exclusions.txt	LTP211	ltpFR	15	3	0	POPCORN	1104	n/a	n/a	0	n/a	0	0	0	n/a	n/a	n/a	n/a	n/a
791874	REC_WORD	wordpools/wasnorm_wordpool_less_exclusions.txt	LTP211	ltpFR	15	3	0	APRON	35	n/a	n/a	0	n/a	0	0	0	n/a	n/a	n/a	n/a	n/a
792877	REC_WORD	wordpools/wasnorm_wordpool_less_exclusions.txt	LTP211	ltpFR	15	3	0	PARROT	1015	n/a	n/a	0	n/a	0	0	0	n/a	n/a	n/a	n/a	n/a
793865	REC_WORD	wordpools/wasnorm_wordpool_less_exclusions.txt	LTP211	ltpFR	15	3	1	MASCARA	875	n/a	n/a	0	n/a	0	0	0	n/a	n/a	n/a	n/a	n/a
795256	REC_WORD	wordpools/wasnorm_wordpool_less_exclusions.txt	LTP211	ltpFR	15	3	1	CACTUS	215	n/a	n/a	0	n/a	0	0	0	n/a	n/a	n/a	n/a	n/a
796643	REC_WORD	wordpools/wasnorm_wordpool_less_exclusions.txt	LTP211	ltpFR	15	3	1	COOK	372	n/a	n/a	1	n/a	0	0	0	n/a	n/a	n/a	n/a	n/a
798275	REC_WORD	wordpools/wasnorm_wordpool_less_exclusions.txt	LTP211	ltpFR	15	3	n/a	CHEF	290	n/a	n/a	n/a	n/a	0	0	0	n/a	n/a	n/a	n/a	n/a
799856	REC_WORD	wordpools/wasnorm_wordpool_less_exclusions.txt	LTP211	ltpFR	15	3	1	BRIDGE	174	n/a	n/a	0	n/a	0	0	0	n/a	n/a	n/a	n/a	n/a
808247	REC_WORD	wordpools/wasnorm_wordpool_less_exclusions.txt	LTP211	ltpFR	15	3	1	BAKER	71	n/a	n/a	1	n/a	0	0	0	n/a	n/a	n/a	n/a	n/a
855202	START	n/a	LTP211	ltpFR	15	n/a	n/a	n/a	n/a	n/a	n/a	n/a	n/a	n/a	n/a	n/a	n/a	n/a	n/a	n/a	n/a
856720	PROB	n/a	LTP211	ltpFR	15	n/a	n/a	n/a	n/a	n/a	n/a	n/a	20	6	7	7	n/a	n/a	n/a	n/a	n/a
858878	PROB	n/a	LTP211	ltpFR	15	n/a	n/a	n/a	n/a	n/a	n/a	n/a	16	9	4	3	n/a	n/a	n/a	n/a	n/a
860501	PROB	n/a	LTP211	ltpFR	15	n/a	n/a	n/a	n/a	n/a	n/a	n/a	18	5	9	4	n/a	n/a	n/a	n/a	n/a
862128	PROB	n/a	LTP211	ltpFR	15	n/a	n/a	n/a	n/a	n/a	n/a	n/a	16	9	5	3	n/a	n/a	n/a	n/a	n/a
864968	PROB	n/a	LTP211	ltpFR	15	n/a	n/a	n/a	n/a	n/a	n/a	n/a	9	4	3	2	n/a	n/a	n/a	n/a	n/a
868063	PROB	n/a	LTP211	ltpFR	15	n/a	n/a	n/a	n/a	n/a	n/a	n/a	6	1	4	1	n/a	n/a	n/a	n/a	n/a
871202	STOP	n/a	LTP211	ltpFR	15	n/a	n/a	n/a	n/a	n/a	n/a	n/a	n/a	n/a	n/a	n/a	n/a	n/a	n/a	n/a	n/a
872216	WORD	wordpools/wasnorm_wordpool_less_exclusions.txt	LTP211	ltpFR	15	4	1	BARLEY	88	n/a	n/a	0	n/a	0	0	0	0.422607421875	0.5869140625	0	upper	zerothre.ttf
875228	START	n/a	LTP211	ltpFR	15	n/a	n/a	n/a	n/a	n/a	n/a	n/a	n/a	n/a	n/a	n/a	n/a	n/a	n/a	n/a	n/a
876315	PROB	n/a	LTP211	ltpFR	15	n/a	n/a	n/a	n/a	n/a	n/a	n/a	4	2	1	1	n/a	n/a	n/a	n/a	n/a
877536	PROB	n/a	LTP211	ltpFR	15	n/a	n/a	n/a	n/a	n/a	n/a	n/a	13	2	9	2	n/a	n/a	n/a	n/a	n/a
879126	PROB	n/a	LTP211	ltpFR	15	n/a	n/a	n/a	n/a	n/a	n/a	n/a	17	4	9	4	n/a	n/a	n/a	n/a	n/a
881028	PROB	n/a	LTP211	ltpFR	15	n/a	n/a	n/a	n/a	n/a	n/a	n/a	18	6	7	5	n/a	n/a	n/a	n/a	n/a
883069	PROB	n/a	LTP211	ltpFR	15	n/a	n/a	n/a	n/a	n/a	n/a	n/a	9	5	1	3	n/a	n/a	n/a	n/a	n/a
884897	PROB	n/a	LTP211	ltpFR	15	n/a	n/a	n/a	n/a	n/a	n/a	n/a	18	7	6	5	n/a	n/a	n/a	n/a	n/a
887089	PROB	n/a	LTP211	ltpFR	15	n/a	n/a	n/a	n/a	n/a	n/a	n/a	8	1	4	3	n/a	n/a	n/a	n/a	n/a
888824	PROB	n/a	LTP211	ltpFR	15	n/a	n/a	n/a	n/a	n/a	n/a	n/a	14	4	6	4	n/a	n/a	n/a	n/a	n/a
890384	STOP	n/a	LTP211	ltpFR	15	n/a	n/a	n/a	n/a	n/a	n/a	n/a	n/a	n/a	n/a	n/a	n/a	n/a	n/a	n/a	n/a
892175	WORD	wordpools/wasnorm_wordpool_less_exclusions.txt	LTP211	ltpFR	15	4	1	RASH	1167	n/a	n/a	0	n/a	0	0	0	0.422607421875	0.5869140625	0	upper	zerothre.ttf
895187	START	n/a	LTP211	ltpFR	15	n/a	n/a	n/a	n/a	n/a	n/a	n/a	n/a	n/a	n/a	n/a	n/a	n/a	n/a	n/a	n/a
896269	PROB	n/a	LTP211	ltpFR	15	n/a	n/a	n/a	n/a	n/a	n/a	n/a	13	5	5	3	n/a	n/a	n/a	n/a	n/a
897574	PROB	n/a	LTP211	ltpFR	15	n/a	n/a	n/a	n/a	n/a	n/a	n/a	19	6	8	5	n/a	n/a	n/a	n/a	n/a
899481	PROB	n/a	LTP211	ltpFR	15	n/a	n/a	n/a	n/a	n/a	n/a	n/a	11	2	5	4	n/a	n/a	n/a	n/a	n/a
900970	PROB	n/a	LTP211	ltpFR	15	n/a	n/a	n/a	n/a	n/a	n/a	n/a	9	2	5	2	n/a	n/a	n/a	n/a	n/a
903480	PROB	n/a	LTP211	ltpFR	15	n/a	n/a	n/a	n/a	n/a	n/a	n/a	13	9	1	3	n/a	n/a	n/a	n/a	n/a
904906	PROB	n/a	LTP211	ltpFR	15	n/a	n/a	n/a	n/a	n/a	n/a	n/a	19	6	7	7	n/a	n/a	n/a	n/a	n/a
907662	PROB	n/a	LTP211	ltpFR	15	n/a	n/a	n/a	n/a	n/a	n/a	n/a	18	4	8	6	n/a	n/a	n/a	n/a	n/a
910967	STOP	n/a	LTP211	ltpFR	15	n/a	n/a	n/a	n/a	n/a	n/a	n/a	n/a	n/a	n/a	n/a	n/a	n/a	n/a	n/a	n/a
912183	WORD	wordpools/wasnorm_wordpool_less_exclusions.txt	LTP211	ltpFR	15	4	1	PANTHER	1009	n/a	n/a	1	n/a	0	0	0	0.422607421875	0.5869140625	0	upper	zerothre.ttf
915195	START	n/a	LTP211	ltpFR	15	n/a	n/a	n/a	n/a	n/a	n/a	n/a	n/a	n/a	n/a	n/a	n/a	n/a	n/a	n/a	n/a
916098	PROB	n/a	LTP211	ltpFR	15	n/a	n/a	n/a	n/a	n/a	n/a	n/a	14	4	3	7	n/a	n/a	n/a	n/a	n/a
918720	PROB	n/a	LTP211	ltpFR	15	n/a	n/a	n/a	n/a	n/a	n/a	n/a	23	8	8	7	n/a	n/a	n/a	n/a	n/a
922000	PROB	n/a	LTP211	ltpFR	15	n/a	n/a	n/a	n/a	n/a	n/a	n/a	19	7	3	9	n/a	n/a	n/a	n/a	n/a
923723	PROB	n/a	LTP211	ltpFR	15	n/a	n/a	n/a	n/a	n/a	n/a	n/a	13	2	6	5	n/a	n/a	n/a	n/a	n/a
925551	PROB	n/a	LTP211	ltpFR	15	n/a	n/a	n/a	n/a	n/a	n/a	n/a	18	8	1	9	n/a	n/a	n/a	n/a	n/a
927253	PROB	n/a	LTP211	ltpFR	15	n/a	n/a	n/a	n/a	n/a	n/a	n/a	15	8	2	5	n/a	n/a	n/a	n/a	n/a
928959	PROB	n/a	LTP211	ltpFR	15	n/a	n/a	n/a	n/a	n/a	n/a	n/a	17	1	8	8	n/a	n/a	n/a	n/a	n/a
930271	STOP	n/a	LTP211	ltpFR	15	n/a	n/a	n/a	n/a	n/a	n/a	n/a	n/a	n/a	n/a	n/a	n/a	n/a	n/a	n/a	n/a
932109	WORD	wordpools/wasnorm_wordpool_less_exclusions.txt	LTP211	ltpFR	15	4	1	PONY	1102	n/a	n/a	1	n/a	0	0	0	0.422607421875	0.5869140625	0	upper	zerothre.ttf
935120	START	n/a	LTP211	ltpFR	15	n/a	n/a	n/a	n/a	n/a	n/a	n/a	n/a	n/a	n/a	n/a	n/a	n/a	n/a	n/a	n/a
936291	PROB	n/a	LTP211	ltpFR	15	n/a	n/a	n/a	n/a	n/a	n/a	n/a	20	8	6	6	n/a	n/a	n/a	n/a	n/a
938031	PROB	n/a	LTP211	ltpFR	15	n/a	n/a	n/a	n/a	n/a	n/a	n/a	23	8	8	5	n/a	n/a	n/a	n/a	n/a
940289	PROB	n/a	LTP211	ltpFR	15	n/a	n/a	n/a	n/a	n/a	n/a	n/a	12	7	1	4	n/a	n/a	n/a	n/a	n/a
943369	PROB	n/a	LTP211	ltpFR	15	n/a	n/a	n/a	n/a	n/a	n/a	n/a	15	7	3	5	n/a	n/a	n/a	n/a	n/a
944618	PROB	n/a	LTP211	ltpFR	15	n/a	n/a	n/a	n/a	n/a	n/a	n/a	24	9	6	9	n/a	n/a	n/a	n/a	n/a
946793	PROB	n/a	LTP211	ltpFR	15	n/a	n/a	n/a	n/a	n/a	n/a	n/a	11	5	1	6	n/a	n/a	n/a	n/a	n/a
948119	PROB	n/a	LTP211	ltpFR	15	n/a	n/a	n/a	n/a	n/a	n/a	n/a	23	5	9	9	n/a	n/a	n/a	n/a	n/a
950527	STOP	n/a	LTP211	ltpFR	15	n/a	n/a	n/a	n/a	n/a	n/a	n/a	n/a	n/a	n/a	n/a	n/a	n/a	n/a	n/a	n/a
952184	WORD	wordpools/wasnorm_wordpool_less_exclusions.txt	LTP211	ltpFR	15	4	1	WHISKERS	1605	n/a	n/a	0	n/a	0	0	0	0.422607421875	0.5869140625	0	upper	zerothre.ttf
955196	START	n/a	LTP211	ltpFR	15	n/a	n/a	n/a	n/a	n/a	n/a	n/a	n/a	n/a	n/a	n/a	n/a	n/a	n/a	n/a	n/a
956401	PROB	n/a	LTP211	ltpFR	15	n/a	n/a	n/a	n/a	n/a	n/a	n/a	16	8	1	7	n/a	n/a	n/a	n/a	n/a
958290	PROB	n/a	LTP211	ltpFR	15	n/a	n/a	n/a	n/a	n/a	n/a	n/a	23	8	9	6	n/a	n/a	n/a	n/a	n/a
960545	PROB	n/a	LTP211	ltpFR	15	n/a	n/a	n/a	n/a	n/a	n/a	n/a	14	6	6	2	n/a	n/a	n/a	n/a	n/a
962084	PROB	n/a	LTP211	ltpFR	15	n/a	n/a	n/a	n/a	n/a	n/a	n/a	22	5	9	8	n/a	n/a	n/a	n/a	n/a
964815	PROB	n/a	LTP211	ltpFR	15	n/a	n/a	n/a	n/a	n/a	n/a	n/a	17	4	6	7	n/a	n/a	n/a	n/a	n/a
966199	PROB	n/a	LTP211	ltpFR	15	n/a	n/a	n/a	n/a	n/a	n/a	n/a	9	2	4	3	n/a	n/a	n/a	n/a	n/a
968224	PROB	n/a	LTP211	ltpFR	15	n/a	n/a	n/a	n/a	n/a	n/a	n/a	10	3	4	3	n/a	n/a	n/a	n/a	n/a
969711	STOP	n/a	LTP211	ltpFR	15	n/a	n/a	n/a	n/a	n/a	n/a	n/a	n/a	n/a	n/a	n/a	n/a	n/a	n/a	n/a	n/a
972072	WORD	wordpools/wasnorm_wordpool_less_exclusions.txt	LTP211	ltpFR	15	4	1	GARLIC	624	n/a	n/a	0	n/a	0	0	0	0.422607421875	0.5869140625	0	upper	zerothre.ttf
975088	START	n/a	LTP211	ltpFR	15	n/a	n/a	n/a	n/a	n/a	n/a	n/a	n/a	n/a	n/a	n/a	n/a	n/a	n/a	n/a	n/a
976254	PROB	n/a	LTP211	ltpFR	15	n/a	n/a	n/a	n/a	n/a	n/a	n/a	24	7	9	7	n/a	n/a	n/a	n/a	n/a
982260	PROB	n/a	LTP211	ltpFR	15	n/a	n/a	n/a	n/a	n/a	n/a	n/a	16	7	3	6	n/a	n/a	n/a	n/a	n/a
983966	PROB	n/a	LTP211	ltpFR	15	n/a	n/a	n/a	n/a	n/a	n/a	n/a	19	8	9	2	n/a	n/a	n/a	n/a	n/a
985489	PROB	n/a	LTP211	ltpFR	15	n/a	n/a	n/a	n/a	n/a	n/a	n/a	15	9	1	5	n/a	n/a	n/a	n/a	n/a
986643	PROB	n/a	LTP211	ltpFR	15	n/a	n/a	n/a	n/a	n/a	n/a	n/a	12	2	5	5	n/a	n/a	n/a	n/a	n/a
988099	PROB	n/a	LTP211	ltpFR	15	n/a	n/a	n/a	n/a	n/a	n/a	n/a	20	7	7	6	n/a	n/a	n/a	n/a	n/a
990408	STOP	n/a	LTP211	ltpFR	15	n/a	n/a	n/a	n/a	n/a	n/a	n/a	n/a	n/a	n/a	n/a	n/a	n/a	n/a	n/a	n/a
992047	WORD	wordpools/wasnorm_wordpool_less_exclusions.txt	LTP211	ltpFR	15	4	1	COUGAR	387	n/a	n/a	1	n/a	0	0	0	0.422607421875	0.5869140625	0	upper	zerothre.ttf
995063	START	n/a	LTP211	ltpFR	15	n/a	n/a	n/a	n/a	n/a	n/a	n/a	n/a	n/a	n/a	n/a	n/a	n/a	n/a	n/a	n/a
995983	PROB	n/a	LTP211	ltpFR	15	n/a	n/a	n/a	n/a	n/a	n/a	n/a	19	9	5	5	n/a	n/a	n/a	n/a	n/a
997417	PROB	n/a	LTP211	ltpFR	15	n/a	n/a	n/a	n/a	n/a	n/a	n/a	15	5	8	2	n/a	n/a	n/a	n/a	n/a
999274	PROB	n/a	LTP211	ltpFR	15	n/a	n/a	n/a	n/a	n/a	n/a	n/a	10	1	6	2	n/a	n/a	n/a	n/a	n/a
1001185	PROB	n/a	LTP211	ltpFR	15	n/a	n/a	n/a	n/a	n/a	n/a	n/a	15	3	3	9	n/a	n/a	n/a	n/a	n/a
1004732	PROB	n/a	LTP211	ltpFR	15	n/a	n/a	n/a	n/a	n/a	n/a	n/a	12	4	1	7	n/a	n/a	n/a	n/a	n/a
1006154	PROB	n/a	LTP211	ltpFR	15	n/a	n/a	n/a	n/a	n/a	n/a	n/a	19	9	6	4	n/a	n/a	n/a	n/a	n/a
1007406	PROB	n/a	LTP211	ltpFR	15	n/a	n/a	n/a	n/a	n/a	n/a	n/a	13	2	5	6	n/a	n/a	n/a	n/a	n/a
1008760	PROB	n/a	LTP211	ltpFR	15	n/a	n/a	n/a	n/a	n/a	n/a	n/a	21	9	7	5	n/a	n/a	n/a	n/a	n/a
1010599	STOP	n/a	LTP211	ltpFR	15	n/a	n/a	n/a	n/a	n/a	n/a	n/a	n/a	n/a	n/a	n/a	n/a	n/a	n/a	n/a	n/a
1012261	WORD	wordpools/wasnorm_wordpool_less_exclusions.txt	LTP211	ltpFR	15	4	1	FOOTBALL	591	n/a	n/a	0	n/a	0	0	0	0.422607421875	0.5869140625	0	upper	zerothre.ttf
1015273	START	n/a	LTP211	ltpFR	15	n/a	n/a	n/a	n/a	n/a	n/a	n/a	n/a	n/a	n/a	n/a	n/a	n/a	n/a	n/a	n/a
1016360	PROB	n/a	LTP211	ltpFR	15	n/a	n/a	n/a	n/a	n/a	n/a	n/a	13	3	9	1	n/a	n/a	n/a	n/a	n/a
1018061	PROB	n/a	LTP211	ltpFR	15	n/a	n/a	n/a	n/a	n/a	n/a	n/a	16	4	7	5	n/a	n/a	n/a	n/a	n/a
1019785	PROB	n/a	LTP211	ltpFR	15	n/a	n/a	n/a	n/a	n/a	n/a	n/a	23	9	8	6	n/a	n/a	n/a	n/a	n/a
1021943	PROB	n/a	LTP211	ltpFR	15	n/a	n/a	n/a	n/a	n/a	n/a	n/a	9	1	4	4	n/a	n/a	n/a	n/a	n/a
1023370	PROB	n/a	LTP211	ltpFR	15	n/a	n/a	n/a	n/a	n/a	n/a	n/a	22	8	7	7	n/a	n/a	n/a	n/a	n/a
1025674	PROB	n/a	LTP211	ltpFR	15	n/a	n/a	n/a	n/a	n/a	n/a	n/a	17	7	2	8	n/a	n/a	n/a	n/a	n/a
1027263	PROB	n/a	LTP211	ltpFR	15	n/a	n/a	n/a	n/a	n/a	n/a	n/a	17	4	8	5	n/a	n/a	n/a	n/a	n/a
1031273	STOP	n/a	LTP211	ltpFR	15	n/a	n/a	n/a	n/a	n/a	n/a	n/a	n/a	n/a	n/a	n/a	n/a	n/a	n/a	n/a	n/a
1032148	WORD	wordpools/wasnorm_wordpool_less_exclusions.txt	LTP211	ltpFR	15	4	1	PREACHER	1119	n/a	n/a	1	n/a	0	0	0	0.422607421875	0.5869140625	0	upper	zerothre.ttf
1035164	START	n/a	LTP211	ltpFR	15	n/a	n/a	n/a	n/a	n/a	n/a	n/a	n/a	n/a	n/a	n/a	n/a	n/a	n/a	n/a	n/a
1036318	PROB	n/a	LTP211	ltpFR	15	n/a	n/a	n/a	n/a	n/a	n/a	n/a	12	1	4	7	n/a	n/a	n/a	n/a	n/a
1038505	PROB	n/a	LTP211	ltpFR	15	n/a	n/a	n/a	n/a	n/a	n/a	n/a	15	6	6	3	n/a	n/a	n/a	n/a	n/a
1040433	PROB	n/a	LTP211	ltpFR	15	n/a	n/a	n/a	n/a	n/a	n/a	n/a	15	1	7	7	n/a	n/a	n/a	n/a	n/a
1043194	PROB	n/a	LTP211	ltpFR	15	n/a	n/a	n/a	n/a	n/a	n/a	n/a	15	3	6	6	n/a	n/a	n/a	n/a	n/a
1045465	PROB	n/a	LTP211	ltpFR	15	n/a	n/a	n/a	n/a	n/a	n/a	n/a	19	7	8	4	n/a	n/a	n/a	n/a	n/a
1047356	PROB	n/a	LTP211	ltpFR	15	n/a	n/a	n/a	n/a	n/a	n/a	n/a	16	5	7	4	n/a	n/a	n/a	n/a	n/a
1049216	PROB	n/a	LTP211	ltpFR	15	n/a	n/a	n/a	n/a	n/a	n/a	n/a	9	6	1	2	n/a	n/a	n/a	n/a	n/a
1051031	STOP	n/a	LTP211	ltpFR	15	n/a	n/a	n/a	n/a	n/a	n/a	n/a	n/a	n/a	n/a	n/a	n/a	n/a	n/a	n/a	n/a
1052245	WORD	wordpools/wasnorm_wordpool_less_exclusions.txt	LTP211	ltpFR	15	4	1	CONVENT	370	n/a	n/a	0	n/a	0	0	0	0.422607421875	0.5869140625	0	upper	zerothre.ttf
1055256	START	n/a	LTP211	ltpFR	15	n/a	n/a	n/a	n/a	n/a	n/a	n/a	n/a	n/a	n/a	n/a	n/a	n/a	n/a	n/a	n/a
1056243	PROB	n/a	LTP211	ltpFR	15	n/a	n/a	n/a	n/a	n/a	n/a	n/a	9	7	1	1	n/a	n/a	n/a	n/a	n/a
1057715	PROB	n/a	LTP211	ltpFR	15	n/a	n/a	n/a	n/a	n/a	n/a	n/a	17	5	7	5	n/a	n/a	n/a	n/a	n/a
1059351	PROB	n/a	LTP211	ltpFR	15	n/a	n/a	n/a	n/a	n/a	n/a	n/a	9	2	5	2	n/a	n/a	n/a	n/a	n/a
1060873	PROB	n/a	LTP211	ltpFR	15	n/a	n/a	n/a	n/a	n/a	n/a	n/a	21	8	8	5	n/a	n/a	n/a	n/a	n/a
1063683	PROB	n/a	LTP211	ltpFR	15	n/a	n/a	n/a	n/a	n/a	n/a	n/a	24	8	7	9	n/a	n/a	n/a	n/a	n/a
1065574	PROB	n/a	LTP211	ltpFR	15	n/a	n/a	n/a	n/a	n/a	n/a	n/a	7	3	1	3	n/a	n/a	n/a	n/a	n/a
1067598	PROB	n/a	LTP211	ltpFR	15	n/a	n/a	n/a	n/a	n/a	n/a	n/a	13	7	2	4	n/a	n/a	n/a	n/a	n/a
1069221	PROB	n/a	LTP211	ltpFR	15	n/a	n/a	n/a	n/a	n/a	n/a	n/a	22	7	6	9	n/a	n/a	n/a	n/a	n/a
1071183	STOP	n/a	LTP211	ltpFR	15	n/a	n/a	n/a	n/a	n/a	n/a	n/a	n/a	n/a	n/a	n/a	n/a	n/a	n/a	n/a	n/a
1072203	WORD	wordpools/wasnorm_wordpool_less_exclusions.txt	LTP211	ltpFR	15	4	1	DILL	465	n/a	n/a	0	n/a	0	0	0	0.422607421875	0.5869140625	0	upper	zerothre.ttf
1075215	START	n/a	LTP211	ltpFR	15	n/a	n/a	n/a	n/a	n/a	n/a	n/a	n/a	n/a	n/a	n/a	n/a	n/a	n/a	n/a	n/a
1076068	PROB	n/a	LTP211	ltpFR	15	n/a	n/a	n/a	n/a	n/a	n/a	n/a	18	6	9	3	n/a	n/a	n/a	n/a	n/a
1078037	PROB	n/a	LTP211	ltpFR	15	n/a	n/a	n/a	n/a	n/a	n/a	n/a	24	7	8	8	n/a	n/a	n/a	n/a	n/a
1079610	PROB	n/a	LTP211	ltpFR	15	n/a	n/a	n/a	n/a	n/a	n/a	n/a	20	8	7	5	n/a	n/a	n/a	n/a	n/a
1082019	PROB	n/a	LTP211	ltpFR	15	n/a	n/a	n/a	n/a	n/a	n/a	n/a	21	8	7	6	n/a	n/a	n/a	n/a	n/a
1083642	PROB	n/a	LTP211	ltpFR	15	n/a	n/a	n/a	n/a	n/a	n/a	n/a	18	8	7	3	n/a	n/a	n/a	n/a	n/a
1085650	PROB	n/a	LTP211	ltpFR	15	n/a	n/a	n/a	n/a	n/a	n/a	n/a	17	9	7	1	n/a	n/a	n/a	n/a	n/a
1087724	PROB	n/a	LTP211	ltpFR	15	n/a	n/a	n/a	n/a	n/a	n/a	n/a	10	1	8	1	n/a	n/a	n/a	n/a	n/a
1088996	PROB	n/a	LTP211	ltpFR	15	n/a	n/a	n/a	n/a	n/a	n/a	n/a	16	6	8	2	n/a	n/a	n/a	n/a	n/a
1090263	STOP	n/a	LTP211	ltpFR	15	n/a	n/a	n/a	n/a	n/a	n/a	n/a	n/a	n/a	n/a	n/a	n/a	n/a	n/a	n/a	n/a
1092279	WORD	wordpools/wasnorm_wordpool_less_exclusions.txt	LTP211	ltpFR	15	4	1	RICE	1190	n/a	n/a	0	n/a	0	0	0	0.422607421875	0.5869140625	0	upper	zerothre.ttf
1095291	START	n/a	LTP211	ltpFR	15	n/a	n/a	n/a	n/a	n/a	n/a	n/a	n/a	n/a	n/a	n/a	n/a	n/a	n/a	n/a	n/a
1096345	PROB	n/a	LTP211	ltpFR	15	n/a	n/a	n/a	n/a	n/a	n/a	n/a	11	6	2	3	n/a	n/a	n/a	n/a	n/a
1097979	PROB	n/a	LTP211	ltpFR	15	n/a	n/a	n/a	n/a	n/a	n/a	n/a	20	3	9	8	n/a	n/a	n/a	n/a	n/a
1100455	PROB	n/a	LTP211	ltpFR	15	n/a	n/a	n/a	n/a	n/a	n/a	n/a	9	2	6	1	n/a	n/a	n/a	n/a	n/a
1102584	PROB	n/a	LTP211	ltpFR	15	n/a	n/a	n/a	n/a	n/a	n/a	n/a	12	4	6	2	n/a	n/a	n/a	n/a	n/a
1103889	PROB	n/a	LTP211	ltpFR	15	n/a	n/a	n/a	n/a	n/a	n/a	n/a	20	7	8	5	n/a	n/a	n/a	n/a	n/a
1105177	PROB	n/a	LTP211	ltpFR	15	n/a	n/a	n/a	n/a	n/a	n/a	n/a	14	3	2	9	n/a	n/a	n/a	n/a	n/a
1107131	PROB	n/a	LTP211	ltpFR	15	n/a	n/a	n/a	n/a	n/a	n/a	n/a	21	9	4	8	n/a	n/a	n/a	n/a	n/a
1108824	PROB	n/a	LTP211	ltpFR	15	n/a	n/a	n/a	n/a	n/a	n/a	n/a	17	7	1	9	n/a	n/a	n/a	n/a	n/a
1110360	STOP	n/a	LTP211	ltpFR	15	n/a	n/a	n/a	n/a	n/a	n/a	n/a	n/a	n/a	n/a	n/a	n/a	n/a	n/a	n/a	n/a
1112333	WORD	wordpools/wasnorm_wordpool_less_exclusions.txt	LTP211	ltpFR	15	4	1	ELM	527	n/a	n/a	1	n/a	0	0	0	0.422607421875	0.5869140625	0	upper	zerothre.ttf
1115351	START	n/a	LTP211	ltpFR	15	n/a	n/a	n/a	n/a	n/a	n/a	n/a	n/a	n/a	n/a	n/a	n/a	n/a	n/a	n/a	n/a
1116437	PROB	n/a	LTP211	ltpFR	15	n/a	n/a	n/a	n/a	n/a	n/a	n/a	14	7	4	3	n/a	n/a	n/a	n/a	n/a
1117971	PROB	n/a	LTP211	ltpFR	15	n/a	n/a	n/a	n/a	n/a	n/a	n/a	16	1	7	8	n/a	n/a	n/a	n/a	n/a
1119778	PROB	n/a	LTP211	ltpFR	15	n/a	n/a	n/a	n/a	n/a	n/a	n/a	15	3	3	9	n/a	n/a	n/a	n/a	n/a
1121234	PROB	n/a	LTP211	ltpFR	15	n/a	n/a	n/a	n/a	n/a	n/a	n/a	16	1	8	7	n/a	n/a	n/a	n/a	n/a
1122961	PROB	n/a	LTP211	ltpFR	15	n/a	n/a	n/a	n/a	n/a	n/a	n/a	9	4	3	2	n/a	n/a	n/a	n/a	n/a
1124513	PROB	n/a	LTP211	ltpFR	15	n/a	n/a	n/a	n/a	n/a	n/a	n/a	16	3	8	5	n/a	n/a	n/a	n/a	n/a
1126140	PROB	n/a	LTP211	ltpFR	15	n/a	n/a	n/a	n/a	n/a	n/a	n/a	15	7	6	2	n/a	n/a	n/a	n/a	n/a
1128210	PROB	n/a	LTP211	ltpFR	15	n/a	n/a	n/a	n/a	n/a	n/a	n/a	13	5	3	3	n/a	n/a	n/a	n/a	n/a
1130015	STOP	n/a	LTP211	ltpFR	15	n/a	n/a	n/a	n/a	n/a	n/a	n/a	n/a	n/a	n/a	n/a	n/a	n/a	n/a	n/a	n/a
1132464	WORD	wordpools/wasnorm_wordpool_less_exclusions.txt	LTP211	ltpFR	15	4	1	WILDERNESS	1610	n/a	n/a	0	n/a	0	0	0	0.422607421875	0.5869140625	0	upper	zerothre.ttf
1135475	START	n/a	LTP211	ltpFR	15	n/a	n/a	n/a	n/a	n/a	n/a	n/a	n/a	n/a	n/a	n/a	n/a	n/a	n/a	n/a	n/a
1136328	PROB	n/a	LTP211	ltpFR	15	n/a	n/a	n/a	n/a	n/a	n/a	n/a	16	1	6	9	n/a	n/a	n/a	n/a	n/a
1138014	PROB	n/a	LTP211	ltpFR	15	n/a	n/a	n/a	n/a	n/a	n/a	n/a	12	5	4	3	n/a	n/a	n/a	n/a	n/a
1139440	PROB	n/a	LTP211	ltpFR	15	n/a	n/a	n/a	n/a	n/a	n/a	n/a	22	5	8	9	n/a	n/a	n/a	n/a	n/a
1141192	PROB	n/a	LTP211	ltpFR	15	n/a	n/a	n/a	n/a	n/a	n/a	n/a	13	3	2	8	n/a	n/a	n/a	n/a	n/a
1142731	PROB	n/a	LTP211	ltpFR	15	n/a	n/a	n/a	n/a	n/a	n/a	n/a	20	8	9	3	n/a	n/a	n/a	n/a	n/a
1144793	PROB	n/a	LTP211	ltpFR	15	n/a	n/a	n/a	n/a	n/a	n/a	n/a	17	7	8	2	n/a	n/a	n/a	n/a	n/a
1146232	PROB	n/a	LTP211	ltpFR	15	n/a	n/a	n/a	n/a	n/a	n/a	n/a	18	8	5	5	n/a	n/a	n/a	n/a	n/a
1147867	PROB	n/a	LTP211	ltpFR	15	n/a	n/a	n/a	n/a	n/a	n/a	n/a	17	7	6	5	n/a	n/a	n/a	n/a	n/a
1151475	STOP	n/a	LTP211	ltpFR	15	n/a	n/a	n/a	n/a	n/a	n/a	n/a	n/a	n/a	n/a	n/a	n/a	n/a	n/a	n/a	n/a
1152690	WORD	wordpools/wasnorm_wordpool_less_exclusions.txt	LTP211	ltpFR	15	4	1	CRITIC	410	n/a	n/a	1	n/a	0	0	0	0.422607421875	0.5869140625	0	upper	zerothre.ttf
1155702	START	n/a	LTP211	ltpFR	15	n/a	n/a	n/a	n/a	n/a	n/a	n/a	n/a	n/a	n/a	n/a	n/a	n/a	n/a	n/a	n/a
1156588	PROB	n/a	LTP211	ltpFR	15	n/a	n/a	n/a	n/a	n/a	n/a	n/a	11	1	1	9	n/a	n/a	n/a	n/a	n/a
1157822	PROB	n/a	LTP211	ltpFR	15	n/a	n/a	n/a	n/a	n/a	n/a	n/a	20	9	2	9	n/a	n/a	n/a	n/a	n/a
1159362	PROB	n/a	LTP211	ltpFR	15	n/a	n/a	n/a	n/a	n/a	n/a	n/a	26	9	8	9	n/a	n/a	n/a	n/a	n/a
1161736	PROB	n/a	LTP211	ltpFR	15	n/a	n/a	n/a	n/a	n/a	n/a	n/a	21	7	9	5	n/a	n/a	n/a	n/a	n/a
1164028	PROB	n/a	LTP211	ltpFR	15	n/a	n/a	n/a	n/a	n/a	n/a	n/a	15	7	7	1	n/a	n/a	n/a	n/a	n/a
1165902	PROB	n/a	LTP211	ltpFR	15	n/a	n/a	n/a	n/a	n/a	n/a	n/a	15	3	6	6	n/a	n/a	n/a	n/a	n/a
1167240	PROB	n/a	LTP211	ltpFR	15	n/a	n/a	n/a	n/a	n/a	n/a	n/a	16	4	9	3	n/a	n/a	n/a	n/a	n/a
1168830	PROB	n/a	LTP211	ltpFR	15	n/a	n/a	n/a	n/a	n/a	n/a	n/a	16	5	5	6	n/a	n/a	n/a	n/a	n/a
1169900	PROB	n/a	LTP211	ltpFR	15	n/a	n/a	n/a	n/a	n/a	n/a	n/a	16	6	9	1	n/a	n/a	n/a	n/a	n/a
1171055	STOP	n/a	LTP211	ltpFR	15	n/a	n/a	n/a	n/a	n/a	n/a	n/a	n/a	n/a	n/a	n/a	n/a	n/a	n/a	n/a	n/a
1172682	WORD	wordpools/wasnorm_wordpool_less_exclusions.txt	LTP211	ltpFR	15	4	1	HOSTESS	723	n/a	n/a	1	n/a	0	0	0	0.422607421875	0.5869140625	0	upper	zerothre.ttf
1175693	START	n/a	LTP211	ltpFR	15	n/a	n/a	n/a	n/a	n/a	n/a	n/a	n/a	n/a	n/a	n/a	n/a	n/a	n/a	n/a	n/a
1176797	PROB	n/a	LTP211	ltpFR	15	n/a	n/a	n/a	n/a	n/a	n/a	n/a	11	8	1	2	n/a	n/a	n/a	n/a	n/a
1178420	PROB	n/a	LTP211	ltpFR	15	n/a	n/a	n/a	n/a	n/a	n/a	n/a	15	4	8	3	n/a	n/a	n/a	n/a	n/a
1180273	PROB	n/a	LTP211	ltpFR	15	n/a	n/a	n/a	n/a	n/a	n/a	n/a	11	2	5	4	n/a	n/a	n/a	n/a	n/a
1182130	PROB	n/a	LTP211	ltpFR	15	n/a	n/a	n/a	n/a	n/a	n/a	n/a	22	9	7	6	n/a	n/a	n/a	n/a	n/a
1184610	PROB	n/a	LTP211	ltpFR	15	n/a	n/a	n/a	n/a	n/a	n/a	n/a	7	1	1	5	n/a	n/a	n/a	n/a	n/a
1185794	PROB	n/a	LTP211	ltpFR	15	n/a	n/a	n/a	n/a	n/a	n/a	n/a	16	7	8	1	n/a	n/a	n/a	n/a	n/a
1188069	PROB	n/a	LTP211	ltpFR	15	n/a	n/a	n/a	n/a	n/a	n/a	n/a	16	4	4	8	n/a	n/a	n/a	n/a	n/a
1191693	STOP	n/a	LTP211	ltpFR	15	n/a	n/a	n/a	n/a	n/a	n/a	n/a	n/a	n/a	n/a	n/a	n/a	n/a	n/a	n/a	n/a
1193641	REC_START	n/a	LTP211	ltpFR	15	4	n/a	n/a	n/a	n/a	n/a	n/a	n/a	0	0	0	n/a	n/a	n/a	n/a	n/a
1197233	REC_WORD	wordpools/wasnorm_wordpool_less_exclusions.txt	LTP211	ltpFR	15	4	1	BARLEY	88	n/a	n/a	0	n/a	0	0	0	n/a	n/a	n/a	n/a	n/a
1197946	REC_WORD	wordpools/wasnorm_wordpool_less_exclusions.txt	LTP211	ltpFR	15	4	1	RASH	1167	n/a	n/a	0	n/a	0	0	0	n/a	n/a	n/a	n/a	n/a
1198769	REC_WORD	wordpools/wasnorm_wordpool_less_exclusions.txt	LTP211	ltpFR	15	4	1	PANTHER	1009	n/a	n/a	1	n/a	0	0	0	n/a	n/a	n/a	n/a	n/a
1199667	REC_WORD	wordpools/wasnorm_wordpool_less_exclusions.txt	LTP211	ltpFR	15	4	1	PONY	1102	n/a	n/a	1	n/a	0	0	0	n/a	n/a	n/a	n/a	n/a
1200395	REC_WORD	wordpools/wasnorm_wordpool_less_exclusions.txt	LTP211	ltpFR	15	4	1	WHISKERS	1605	n/a	n/a	0	n/a	0	0	0	n/a	n/a	n/a	n/a	n/a
1201473	REC_WORD	wordpools/wasnorm_wordpool_less_exclusions.txt	LTP211	ltpFR	15	4	1	GARLIC	624	n/a	n/a	0	n/a	0	0	0	n/a	n/a	n/a	n/a	n/a
1203015	REC_WORD	wordpools/wasnorm_wordpool_less_exclusions.txt	LTP211	ltpFR	15	4	1	COUGAR	387	n/a	n/a	1	n/a	0	0	0	n/a	n/a	n/a	n/a	n/a
1204206	REC_WORD	wordpools/wasnorm_wordpool_less_exclusions.txt	LTP211	ltpFR	15	4	1	FOOTBALL	591	n/a	n/a	0	n/a	0	0	0	n/a	n/a	n/a	n/a	n/a
1205195	REC_WORD	wordpools/wasnorm_wordpool_less_exclusions.txt	LTP211	ltpFR	15	4	1	PREACHER	1119	n/a	n/a	1	n/a	0	0	0	n/a	n/a	n/a	n/a	n/a
1206152	REC_WORD	wordpools/wasnorm_wordpool_less_exclusions.txt	LTP211	ltpFR	15	4	1	CONVENT	370	n/a	n/a	0	n/a	0	0	0	n/a	n/a	n/a	n/a	n/a
1209560	REC_WORD	wordpools/wasnorm_wordpool_less_exclusions.txt	LTP211	ltpFR	15	4	1	DILL	465	n/a	n/a	0	n/a	0	0	0	n/a	n/a	n/a	n/a	n/a
1210378	REC_WORD	wordpools/wasnorm_wordpool_less_exclusions.txt	LTP211	ltpFR	15	4	1	RICE	1190	n/a	n/a	0	n/a	0	0	0	n/a	n/a	n/a	n/a	n/a
1211375	REC_WORD	wordpools/wasnorm_wordpool_less_exclusions.txt	LTP211	ltpFR	15	4	1	WILDERNESS	1610	n/a	n/a	0	n/a	0	0	0	n/a	n/a	n/a	n/a	n/a
1218390	REC_WORD	wordpools/wasnorm_wordpool_less_exclusions.txt	LTP211	ltpFR	15	4	1	CRITIC	410	n/a	n/a	1	n/a	0	0	0	n/a	n/a	n/a	n/a	n/a
1219472	REC_WORD	wordpools/wasnorm_wordpool_less_exclusions.txt	LTP211	ltpFR	15	4	n/a	WAITRESS	1581	n/a	n/a	n/a	n/a	0	0	0	n/a	n/a	n/a	n/a	n/a
1270451	START	n/a	LTP211	ltpFR	15	n/a	n/a	n/a	n/a	n/a	n/a	n/a	n/a	n/a	n/a	n/a	n/a	n/a	n/a	n/a	n/a
1271968	PROB	n/a	LTP211	ltpFR	15	n/a	n/a	n/a	n/a	n/a	n/a	n/a	8	1	6	1	n/a	n/a	n/a	n/a	n/a
1274177	PROB	n/a	LTP211	ltpFR	15	n/a	n/a	n/a	n/a	n/a	n/a	n/a	13	3	7	3	n/a	n/a	n/a	n/a	n/a
1275553	PROB	n/a	LTP211	ltpFR	15	n/a	n/a	n/a	n/a	n/a	n/a	n/a	10	8	1	1	n/a	n/a	n/a	n/a	n/a
1278451	STOP	n/a	LTP211	ltpFR	15	n/a	n/a	n/a	n/a	n/a	n/a	n/a	n/a	n/a	n/a	n/a	n/a	n/a	n/a	n/a	n/a
1279351	WORD	wordpools/wasnorm_wordpool_less_exclusions.txt	LTP211	ltpFR	15	5	0	TRUCK	1512	n/a	n/a	1	n/a	0	0	0	0.57763671875	0.412841796875	1	lower	amplitud.ttf
1282364	START	n/a	LTP211	ltpFR	15	n/a	n/a	n/a	n/a	n/a	n/a	n/a	n/a	n/a	n/a	n/a	n/a	n/a	n/a	n/a	n/a
1283495	PROB	n/a	LTP211	ltpFR	15	n/a	n/a	n/a	n/a	n/a	n/a	n/a	20	9	8	3	n/a	n/a	n/a	n/a	n/a
1285105	PROB	n/a	LTP211	ltpFR	15	n/a	n/a	n/a	n/a	n/a	n/a	n/a	16	4	4	8	n/a	n/a	n/a	n/a	n/a
1286757	PROB	n/a	LTP211	ltpFR	15	n/a	n/a	n/a	n/a	n/a	n/a	n/a	11	4	1	6	n/a	n/a	n/a	n/a	n/a
1290363	STOP	n/a	LTP211	ltpFR	15	n/a	n/a	n/a	n/a	n/a	n/a	n/a	n/a	n/a	n/a	n/a	n/a	n/a	n/a	n/a	n/a
1291262	WORD	wordpools/wasnorm_wordpool_less_exclusions.txt	LTP211	ltpFR	15	5	0	BUN	197	n/a	n/a	0	n/a	0	0	0	0.57763671875	0.412841796875	1	lower	amplitud.ttf
1294274	START	n/a	LTP211	ltpFR	15	n/a	n/a	n/a	n/a	n/a	n/a	n/a	n/a	n/a	n/a	n/a	n/a	n/a	n/a	n/a	n/a
1295206	PROB	n/a	LTP211	ltpFR	15	n/a	n/a	n/a	n/a	n/a	n/a	n/a	11	1	9	1	n/a	n/a	n/a	n/a	n/a
1296561	PROB	n/a	LTP211	ltpFR	15	n/a	n/a	n/a	n/a	n/a	n/a	n/a	15	5	9	1	n/a	n/a	n/a	n/a	n/a
1298473	PROB	n/a	LTP211	ltpFR	15	n/a	n/a	n/a	n/a	n/a	n/a	n/a	12	1	8	3	n/a	n/a	n/a	n/a	n/a
1300024	PROB	n/a	LTP211	ltpFR	15	n/a	n/a	n/a	n/a	n/a	n/a	n/a	18	3	7	8	n/a	n/a	n/a	n/a	n/a
1301663	STOP	n/a	LTP211	ltpFR	15	n/a	n/a	n/a	n/a	n/a	n/a	n/a	n/a	n/a	n/a	n/a	n/a	n/a	n/a	n/a	n/a
1303203	WORD	wordpools/wasnorm_wordpool_less_exclusions.txt	LTP211	ltpFR	15	5	0	JAR	750	n/a	n/a	0	n/a	0	0	0	0.57763671875	0.412841796875	1	lower	amplitud.ttf
1306219	START	n/a	LTP211	ltpFR	15	n/a	n/a	n/a	n/a	n/a	n/a	n/a	n/a	n/a	n/a	n/a	n/a	n/a	n/a	n/a	n/a
1307323	PROB	n/a	LTP211	ltpFR	15	n/a	n/a	n/a	n/a	n/a	n/a	n/a	15	9	4	2	n/a	n/a	n/a	n/a	n/a
1308974	PROB	n/a	LTP211	ltpFR	15	n/a	n/a	n/a	n/a	n/a	n/a	n/a	8	3	2	3	n/a	n/a	n/a	n/a	n/a
1311522	PROB	n/a	LTP211	ltpFR	15	n/a	n/a	n/a	n/a	n/a	n/a	n/a	20	6	9	5	n/a	n/a	n/a	n/a	n/a
1313247	STOP	n/a	LTP211	ltpFR	15	n/a	n/a	n/a	n/a	n/a	n/a	n/a	n/a	n/a	n/a	n/a	n/a	n/a	n/a	n/a	n/a
1315135	WORD	wordpools/wasnorm_wordpool_less_exclusions.txt	LTP211	ltpFR	15	5	0	CRAB	397	n/a	n/a	0	n/a	0	0	0	0.57763671875	0.412841796875	1	lower	amplitud.ttf
1318147	START	n/a	LTP211	ltpFR	15	n/a	n/a	n/a	n/a	n/a	n/a	n/a	n/a	n/a	n/a	n/a	n/a	n/a	n/a	n/a	n/a
1319335	PROB	n/a	LTP211	ltpFR	15	n/a	n/a	n/a	n/a	n/a	n/a	n/a	15	8	4	3	n/a	n/a	n/a	n/a	n/a
1320802	PROB	n/a	LTP211	ltpFR	15	n/a	n/a	n/a	n/a	n/a	n/a	n/a	6	3	2	1	n/a	n/a	n/a	n/a	n/a
1322162	PROB	n/a	LTP211	ltpFR	15	n/a	n/a	n/a	n/a	n/a	n/a	n/a	14	7	2	5	n/a	n/a	n/a	n/a	n/a
1324232	PROB	n/a	LTP211	ltpFR	15	n/a	n/a	n/a	n/a	n/a	n/a	n/a	10	1	8	1	n/a	n/a	n/a	n/a	n/a
1325384	STOP	n/a	LTP211	ltpFR	15	n/a	n/a	n/a	n/a	n/a	n/a	n/a	n/a	n/a	n/a	n/a	n/a	n/a	n/a	n/a	n/a
1327047	WORD	wordpools/wasnorm_wordpool_less_exclusions.txt	LTP211	ltpFR	15	5	0	LOBSTER	837	n/a	n/a	0	n/a	0	0	0	0.57763671875	0.412841796875	1	lower	amplitud.ttf
1330059	START	n/a	LTP211	ltpFR	15	n/a	n/a	n/a	n/a	n/a	n/a	n/a	n/a	n/a	n/a	n/a	n/a	n/a	n/a	n/a	n/a
1330895	PROB	n/a	LTP211	ltpFR	15	n/a	n/a	n/a	n/a	n/a	n/a	n/a	19	6	8	5	n/a	n/a	n/a	n/a	n/a
1332714	PROB	n/a	LTP211	ltpFR	15	n/a	n/a	n/a	n/a	n/a	n/a	n/a	18	5	5	8	n/a	n/a	n/a	n/a	n/a
1334809	PROB	n/a	LTP211	ltpFR	15	n/a	n/a	n/a	n/a	n/a	n/a	n/a	16	7	3	6	n/a	n/a	n/a	n/a	n/a
1336328	PROB	n/a	LTP211	ltpFR	15	n/a	n/a	n/a	n/a	n/a	n/a	n/a	18	7	6	5	n/a	n/a	n/a	n/a	n/a
1337679	STOP	n/a	LTP211	ltpFR	15	n/a	n/a	n/a	n/a	n/a	n/a	n/a	n/a	n/a	n/a	n/a	n/a	n/a	n/a	n/a	n/a
1338958	WORD	wordpools/wasnorm_wordpool_less_exclusions.txt	LTP211	ltpFR	15	5	0	SEAGULL	1261	n/a	n/a	0	n/a	0	0	0	0.57763671875	0.412841796875	1	lower	amplitud.ttf
1341970	START	n/a	LTP211	ltpFR	15	n/a	n/a	n/a	n/a	n/a	n/a	n/a	n/a	n/a	n/a	n/a	n/a	n/a	n/a	n/a	n/a
1343007	PROB	n/a	LTP211	ltpFR	15	n/a	n/a	n/a	n/a	n/a	n/a	n/a	12	1	2	9	n/a	n/a	n/a	n/a	n/a
1345010	PROB	n/a	LTP211	ltpFR	15	n/a	n/a	n/a	n/a	n/a	n/a	n/a	10	8	1	1	n/a	n/a	n/a	n/a	n/a
1346202	PROB	n/a	LTP211	ltpFR	15	n/a	n/a	n/a	n/a	n/a	n/a	n/a	24	8	9	7	n/a	n/a	n/a	n/a	n/a
1348122	PROB	n/a	LTP211	ltpFR	15	n/a	n/a	n/a	n/a	n/a	n/a	n/a	19	9	9	1	n/a	n/a	n/a	n/a	n/a
1349775	STOP	n/a	LTP211	ltpFR	15	n/a	n/a	n/a	n/a	n/a	n/a	n/a	n/a	n/a	n/a	n/a	n/a	n/a	n/a	n/a	n/a
1350954	WORD	wordpools/wasnorm_wordpool_less_exclusions.txt	LTP211	ltpFR	15	5	0	VOLCANO	1575	n/a	n/a	1	n/a	0	0	0	0.57763671875	0.412841796875	1	lower	amplitud.ttf
1353966	START	n/a	LTP211	ltpFR	15	n/a	n/a	n/a	n/a	n/a	n/a	n/a	n/a	n/a	n/a	n/a	n/a	n/a	n/a	n/a	n/a
1355149	PROB	n/a	LTP211	ltpFR	15	n/a	n/a	n/a	n/a	n/a	n/a	n/a	12	2	6	4	n/a	n/a	n/a	n/a	n/a
1356571	PROB	n/a	LTP211	ltpFR	15	n/a	n/a	n/a	n/a	n/a	n/a	n/a	17	1	8	8	n/a	n/a	n/a	n/a	n/a
1358699	PROB	n/a	LTP211	ltpFR	15	n/a	n/a	n/a	n/a	n/a	n/a	n/a	17	4	7	6	n/a	n/a	n/a	n/a	n/a
1360567	STOP	n/a	LTP211	ltpFR	15	n/a	n/a	n/a	n/a	n/a	n/a	n/a	n/a	n/a	n/a	n/a	n/a	n/a	n/a	n/a	n/a
1362882	WORD	wordpools/wasnorm_wordpool_less_exclusions.txt	LTP211	ltpFR	15	5	0	INSECT	740	n/a	n/a	0	n/a	0	0	0	0.57763671875	0.412841796875	1	lower	amplitud.ttf
1365894	START	n/a	LTP211	ltpFR	15	n/a	n/a	n/a	n/a	n/a	n/a	n/a	n/a	n/a	n/a	n/a	n/a	n/a	n/a	n/a	n/a
1367064	PROB	n/a	LTP211	ltpFR	15	n/a	n/a	n/a	n/a	n/a	n/a	n/a	14	5	4	5	n/a	n/a	n/a	n/a	n/a
1369804	PROB	n/a	LTP211	ltpFR	15	n/a	n/a	n/a	n/a	n/a	n/a	n/a	24	8	7	9	n/a	n/a	n/a	n/a	n/a
1371242	PROB	n/a	LTP211	ltpFR	15	n/a	n/a	n/a	n/a	n/a	n/a	n/a	18	8	5	5	n/a	n/a	n/a	n/a	n/a
1372494	STOP	n/a	LTP211	ltpFR	15	n/a	n/a	n/a	n/a	n/a	n/a	n/a	n/a	n/a	n/a	n/a	n/a	n/a	n/a	n/a	n/a
1374827	WORD	wordpools/wasnorm_wordpool_less_exclusions.txt	LTP211	ltpFR	15	5	0	CANYON	235	n/a	n/a	1	n/a	0	0	0	0.57763671875	0.412841796875	1	lower	amplitud.ttf
1377839	START	n/a	LTP211	ltpFR	15	n/a	n/a	n/a	n/a	n/a	n/a	n/a	n/a	n/a	n/a	n/a	n/a	n/a	n/a	n/a	n/a
1378993	PROB	n/a	LTP211	ltpFR	15	n/a	n/a	n/a	n/a	n/a	n/a	n/a	10	5	3	2	n/a	n/a	n/a	n/a	n/a
1381849	PROB	n/a	LTP211	ltpFR	15	n/a	n/a	n/a	n/a	n/a	n/a	n/a	16	8	3	5	n/a	n/a	n/a	n/a	n/a
1384711	STOP	n/a	LTP211	ltpFR	15	n/a	n/a	n/a	n/a	n/a	n/a	n/a	n/a	n/a	n/a	n/a	n/a	n/a	n/a	n/a	n/a
1386872	WORD	wordpools/wasnorm_wordpool_less_exclusions.txt	LTP211	ltpFR	15	5	0	COBRA	336	n/a	n/a	0	n/a	0	0	0	0.57763671875	0.412841796875	1	lower	amplitud.ttf
1389884	START	n/a	LTP211	ltpFR	15	n/a	n/a	n/a	n/a	n/a	n/a	n/a	n/a	n/a	n/a	n/a	n/a	n/a	n/a	n/a	n/a
1390871	PROB	n/a	LTP211	ltpFR	15	n/a	n/a	n/a	n/a	n/a	n/a	n/a	13	2	7	4	n/a	n/a	n/a	n/a	n/a
1393348	PROB	n/a	LTP211	ltpFR	15	n/a	n/a	n/a	n/a	n/a	n/a	n/a	17	6	7	4	n/a	n/a	n/a	n/a	n/a
1394932	PROB	n/a	LTP211	ltpFR	15	n/a	n/a	n/a	n/a	n/a	n/a	n/a	17	9	2	6	n/a	n/a	n/a	n/a	n/a
1396559	STOP	n/a	LTP211	ltpFR	15	n/a	n/a	n/a	n/a	n/a	n/a	n/a	n/a	n/a	n/a	n/a	n/a	n/a	n/a	n/a	n/a
1398847	WORD	wordpools/wasnorm_wordpool_less_exclusions.txt	LTP211	ltpFR	15	5	0	BASEBALL	93	n/a	n/a	0	n/a	0	0	0	0.57763671875	0.412841796875	1	lower	amplitud.ttf
1401863	START	n/a	LTP211	ltpFR	15	n/a	n/a	n/a	n/a	n/a	n/a	n/a	n/a	n/a	n/a	n/a	n/a	n/a	n/a	n/a	n/a
1402883	PROB	n/a	LTP211	ltpFR	15	n/a	n/a	n/a	n/a	n/a	n/a	n/a	10	2	2	6	n/a	n/a	n/a	n/a	n/a
1404890	PROB	n/a	LTP211	ltpFR	15	n/a	n/a	n/a	n/a	n/a	n/a	n/a	9	3	3	3	n/a	n/a	n/a	n/a	n/a
1406308	PROB	n/a	LTP211	ltpFR	15	n/a	n/a	n/a	n/a	n/a	n/a	n/a	11	6	2	3	n/a	n/a	n/a	n/a	n/a
1408368	STOP	n/a	LTP211	ltpFR	15	n/a	n/a	n/a	n/a	n/a	n/a	n/a	n/a	n/a	n/a	n/a	n/a	n/a	n/a	n/a	n/a
1410741	WORD	wordpools/wasnorm_wordpool_less_exclusions.txt	LTP211	ltpFR	15	5	0	CHECKERS	285	n/a	n/a	0	n/a	0	0	0	0.57763671875	0.412841796875	1	lower	amplitud.ttf
1413758	START	n/a	LTP211	ltpFR	15	n/a	n/a	n/a	n/a	n/a	n/a	n/a	n/a	n/a	n/a	n/a	n/a	n/a	n/a	n/a	n/a
1414861	PROB	n/a	LTP211	ltpFR	15	n/a	n/a	n/a	n/a	n/a	n/a	n/a	21	7	5	9	n/a	n/a	n/a	n/a	n/a
1416613	PROB	n/a	LTP211	ltpFR	15	n/a	n/a	n/a	n/a	n/a	n/a	n/a	18	9	4	5	n/a	n/a	n/a	n/a	n/a
1418186	PROB	n/a	LTP211	ltpFR	15	n/a	n/a	n/a	n/a	n/a	n/a	n/a	12	2	5	5	n/a	n/a	n/a	n/a	n/a
1421757	STOP	n/a	LTP211	ltpFR	15	n/a	n/a	n/a	n/a	n/a	n/a	n/a	n/a	n/a	n/a	n/a	n/a	n/a	n/a	n/a	n/a
1422854	WORD	wordpools/wasnorm_wordpool_less_exclusions.txt	LTP211	ltpFR	15	5	0	CAGE	218	n/a	n/a	1	n/a	0	0	0	0.57763671875	0.412841796875	1	lower	amplitud.ttf
1425870	START	n/a	LTP211	ltpFR	15	n/a	n/a	n/a	n/a	n/a	n/a	n/a	n/a	n/a	n/a	n/a	n/a	n/a	n/a	n/a	n/a
1426873	PROB	n/a	LTP211	ltpFR	15	n/a	n/a	n/a	n/a	n/a	n/a	n/a	14	6	7	1	n/a	n/a	n/a	n/a	n/a
1428726	PROB	n/a	LTP211	ltpFR	15	n/a	n/a	n/a	n/a	n/a	n/a	n/a	17	7	5	5	n/a	n/a	n/a	n/a	n/a
1430282	PROB	n/a	LTP211	ltpFR	15	n/a	n/a	n/a	n/a	n/a	n/a	n/a	19	3	8	8	n/a	n/a	n/a	n/a	n/a
1431838	PROB	n/a	LTP211	ltpFR	15	n/a	n/a	n/a	n/a	n/a	n/a	n/a	7	4	2	1	n/a	n/a	n/a	n/a	n/a
1433311	STOP	n/a	LTP211	ltpFR	15	n/a	n/a	n/a	n/a	n/a	n/a	n/a	n/a	n/a	n/a	n/a	n/a	n/a	n/a	n/a	n/a
1434736	WORD	wordpools/wasnorm_wordpool_less_exclusions.txt	LTP211	ltpFR	15	5	0	MECHANIC	884	n/a	n/a	1	n/a	0	0	0	0.57763671875	0.412841796875	1	lower	amplitud.ttf
1437748	START	n/a	LTP211	ltpFR	15	n/a	n/a	n/a	n/a	n/a	n/a	n/a	n/a	n/a	n/a	n/a	n/a	n/a	n/a	n/a	n/a
1438751	PROB	n/a	LTP211	ltpFR	15	n/a	n/a	n/a	n/a	n/a	n/a	n/a	16	5	8	3	n/a	n/a	n/a	n/a	n/a
1440290	PROB	n/a	LTP211	ltpFR	15	n/a	n/a	n/a	n/a	n/a	n/a	n/a	13	4	3	6	n/a	n/a	n/a	n/a	n/a
1441913	PROB	n/a	LTP211	ltpFR	15	n/a	n/a	n/a	n/a	n/a	n/a	n/a	13	3	7	3	n/a	n/a	n/a	n/a	n/a
1443515	PROB	n/a	LTP211	ltpFR	15	n/a	n/a	n/a	n/a	n/a	n/a	n/a	6	1	3	2	n/a	n/a	n/a	n/a	n/a
1444543	STOP	n/a	LTP211	ltpFR	15	n/a	n/a	n/a	n/a	n/a	n/a	n/a	n/a	n/a	n/a	n/a	n/a	n/a	n/a	n/a	n/a
1446715	WORD	wordpools/wasnorm_wordpool_less_exclusions.txt	LTP211	ltpFR	15	5	0	GROUND	666	n/a	n/a	0	n/a	0	0	0	0.57763671875	0.412841796875	1	lower	amplitud.ttf
1449727	START	n/a	LTP211	ltpFR	15	n/a	n/a	n/a	n/a	n/a	n/a	n/a	n/a	n/a	n/a	n/a	n/a	n/a	n/a	n/a	n/a
1450709	PROB	n/a	LTP211	ltpFR	15	n/a	n/a	n/a	n/a	n/a	n/a	n/a	11	1	2	8	n/a	n/a	n/a	n/a	n/a
1452185	PROB	n/a	LTP211	ltpFR	15	n/a	n/a	n/a	n/a	n/a	n/a	n/a	11	7	1	3	n/a	n/a	n/a	n/a	n/a
1453603	PROB	n/a	LTP211	ltpFR	15	n/a	n/a	n/a	n/a	n/a	n/a	n/a	21	6	9	6	n/a	n/a	n/a	n/a	n/a
1455845	PROB	n/a	LTP211	ltpFR	15	n/a	n/a	n/a	n/a	n/a	n/a	n/a	19	9	1	9	n/a	n/a	n/a	n/a	n/a
1457103	STOP	n/a	LTP211	ltpFR	15	n/a	n/a	n/a	n/a	n/a	n/a	n/a	n/a	n/a	n/a	n/a	n/a	n/a	n/a	n/a	n/a
1458894	WORD	wordpools/wasnorm_wordpool_less_exclusions.txt	LTP211	ltpFR	15	5	0	SALIVA	1226	n/a	n/a	0	n/a	0	0	0	0.57763671875	0.412841796875	1	lower	amplitud.ttf
1461905	START	n/a	LTP211	ltpFR	15	n/a	n/a	n/a	n/a	n/a	n/a	n/a	n/a	n/a	n/a	n/a	n/a	n/a	n/a	n/a	n/a
1463059	PROB	n/a	LTP211	ltpFR	15	n/a	n/a	n/a	n/a	n/a	n/a	n/a	17	2	8	7	n/a	n/a	n/a	n/a	n/a
1464916	PROB	n/a	LTP211	ltpFR	15	n/a	n/a	n/a	n/a	n/a	n/a	n/a	21	7	6	9	n/a	n/a	n/a	n/a	n/a
1467054	PROB	n/a	LTP211	ltpFR	15	n/a	n/a	n/a	n/a	n/a	n/a	n/a	12	3	7	2	n/a	n/a	n/a	n/a	n/a
1468329	PROB	n/a	LTP211	ltpFR	15	n/a	n/a	n/a	n/a	n/a	n/a	n/a	15	9	5	1	n/a	n/a	n/a	n/a	n/a
1469623	STOP	n/a	LTP211	ltpFR	15	n/a	n/a	n/a	n/a	n/a	n/a	n/a	n/a	n/a	n/a	n/a	n/a	n/a	n/a	n/a	n/a
1471789	REC_START	n/a	LTP211	ltpFR	15	5	n/a	n/a	n/a	n/a	n/a	n/a	n/a	0	0	0	n/a	n/a	n/a	n/a	n/a
1474657	REC_WORD	wordpools/wasnorm_wordpool_less_exclusions.txt	LTP211	ltpFR	15	5	0	TRUCK	1512	n/a	n/a	1	n/a	0	0	0	n/a	n/a	n/a	n/a	n/a
1475785	REC_WORD	wordpools/wasnorm_wordpool_less_exclusions.txt	LTP211	ltpFR	15	5	0	BUN	197	n/a	n/a	0	n/a	0	0	0	n/a	n/a	n/a	n/a	n/a
1476748	REC_WORD	wordpools/wasnorm_wordpool_less_exclusions.txt	LTP211	ltpFR	15	5	0	JAR	750	n/a	n/a	0	n/a	0	0	0	n/a	n/a	n/a	n/a	n/a
1477765	REC_WORD	wordpools/wasnorm_wordpool_less_exclusions.txt	LTP211	ltpFR	15	5	0	CRAB	397	n/a	n/a	0	n/a	0	0	0	n/a	n/a	n/a	n/a	n/a
1478977	REC_WORD	wordpools/wasnorm_wordpool_less_exclusions.txt	LTP211	ltpFR	15	5	0	LOBSTER	837	n/a	n/a	0	n/a	0	0	0	n/a	n/a	n/a	n/a	n/a
1482528	REC_WORD	wordpools/wasnorm_wordpool_less_exclusions.txt	LTP211	ltpFR	15	5	0	SEAGULL	1261	n/a	n/a	0	n/a	0	0	0	n/a	n/a	n/a	n/a	n/a
1483609	REC_WORD	wordpools/wasnorm_wordpool_less_exclusions.txt	LTP211	ltpFR	15	5	0	VOLCANO	1575	n/a	n/a	1	n/a	0	0	0	n/a	n/a	n/a	n/a	n/a
1484789	REC_WORD	wordpools/wasnorm_wordpool_less_exclusions.txt	LTP211	ltpFR	15	5	0	INSECT	740	n/a	n/a	0	n/a	0	0	0	n/a	n/a	n/a	n/a	n/a
1487708	REC_WORD	wordpools/wasnorm_wordpool_less_exclusions.txt	LTP211	ltpFR	15	5	0	CANYON	235	n/a	n/a	1	n/a	0	0	0	n/a	n/a	n/a	n/a	n/a
1493435	REC_WORD	wordpools/wasnorm_wordpool_less_exclusions.txt	LTP211	ltpFR	15	5	0	COBRA	336	n/a	n/a	0	n/a	0	0	0	n/a	n/a	n/a	n/a	n/a
1496982	REC_WORD	wordpools/wasnorm_wordpool_less_exclusions.txt	LTP211	ltpFR	15	5	0	BASEBALL	93	n/a	n/a	0	n/a	0	0	0	n/a	n/a	n/a	n/a	n/a
1497710	REC_WORD	wordpools/wasnorm_wordpool_less_exclusions.txt	LTP211	ltpFR	15	5	0	CHECKERS	285	n/a	n/a	0	n/a	0	0	0	n/a	n/a	n/a	n/a	n/a
1498678	REC_WORD	wordpools/wasnorm_wordpool_less_exclusions.txt	LTP211	ltpFR	15	5	0	CAGE	218	n/a	n/a	1	n/a	0	0	0	n/a	n/a	n/a	n/a	n/a
1499726	REC_WORD	wordpools/wasnorm_wordpool_less_exclusions.txt	LTP211	ltpFR	15	5	0	MECHANIC	884	n/a	n/a	1	n/a	0	0	0	n/a	n/a	n/a	n/a	n/a
1501041	REC_WORD	wordpools/wasnorm_wordpool_less_exclusions.txt	LTP211	ltpFR	15	5	0	GROUND	666	n/a	n/a	0	n/a	0	0	0	n/a	n/a	n/a	n/a	n/a
1501766	REC_WORD	wordpools/wasnorm_wordpool_less_exclusions.txt	LTP211	ltpFR	15	5	0	SALIVA	1226	n/a	n/a	0	n/a	0	0	0	n/a	n/a	n/a	n/a	n/a
1555123	WORD	wordpools/wasnorm_wordpool_less_exclusions.txt	LTP211	ltpFR	15	6	1	BUILDER	190	n/a	n/a	1	n/a	0	0	0	0.422607421875	0.5869140625	0	upper	zerothre.ttf
1559038	WORD	wordpools/wasnorm_wordpool_less_exclusions.txt	LTP211	ltpFR	15	6	1	OVAL	990	n/a	n/a	0	n/a	0	0	0	0.422607421875	0.5869140625	0	upper	zerothre.ttf
1563203	WORD	wordpools/wasnorm_wordpool_less_exclusions.txt	LTP211	ltpFR	15	6	1	BRANDY	169	n/a	n/a	0	n/a	0	0	0	0.422607421875	0.5869140625	0	upper	zerothre.ttf
1567035	WORD	wordpools/wasnorm_wordpool_less_exclusions.txt	LTP211	ltpFR	15	6	1	DEPARTMENT	449	n/a	n/a	0	n/a	0	0	0	0.422607421875	0.5869140625	0	upper	zerothre.ttf
1570949	WORD	wordpools/wasnorm_wordpool_less_exclusions.txt	LTP211	ltpFR	15	6	1	ELECTRICIAN	521	n/a	n/a	1	n/a	0	0	0	0.422607421875	0.5869140625	0	upper	zerothre.ttf
1574981	WORD	wordpools/wasnorm_wordpool_less_exclusions.txt	LTP211	ltpFR	15	6	1	AUTOMOBILE	62	n/a	n/a	0	n/a	0	0	0	0.422607421875	0.5869140625	0	upper	zerothre.ttf
1578829	WORD	wordpools/wasnorm_wordpool_less_exclusions.txt	LTP211	ltpFR	15	6	1	CROSS	413	n/a	n/a	0	n/a	0	0	0	0.422607421875	0.5869140625	0	upper	zerothre.ttf
1582940	WORD	wordpools/wasnorm_wordpool_less_exclusions.txt	LTP211	ltpFR	15	6	1	PARCEL	1012	n/a	n/a	0	n/a	0	0	0	0.422607421875	0.5869140625	0	upper	zerothre.ttf
1587089	WORD	wordpools/wasnorm_wordpool_less_exclusions.txt	LTP211	ltpFR	15	6	1	CANDY	230	n/a	n/a	0	n/a	0	0	0	0.422607421875	0.5869140625	0	upper	zerothre.ttf
1591008	WORD	wordpools/wasnorm_wordpool_less_exclusions.txt	LTP211	ltpFR	15	6	1	FREEWAY	603	n/a	n/a	0	n/a	0	0	0	0.422607421875	0.5869140625	0	upper	zerothre.ttf
1594973	WORD	wordpools/wasnorm_wordpool_less_exclusions.txt	LTP211	ltpFR	15	6	1	CARRIAGE	248	n/a	n/a	0	n/a	0	0	0	0.422607421875	0.5869140625	0	upper	zerothre.ttf
1598838	WORD	wordpools/wasnorm_wordpool_less_exclusions.txt	LTP211	ltpFR	15	6	1	STALLION	1369	n/a	n/a	1	n/a	0	0	0	0.422607421875	0.5869140625	0	upper	zerothre.ttf
1602886	WORD	wordpools/wasnorm_wordpool_less_exclusions.txt	LTP211	ltpFR	15	6	1	CARTON	251	n/a	n/a	0	n/a	0	0	0	0.422607421875	0.5869140625	0	upper	zerothre.ttf
1607002	WORD	wordpools/wasnorm_wordpool_less_exclusions.txt	LTP211	ltpFR	15	6	1	CAKE	219	n/a	n/a	0	n/a	0	0	0	0.422607421875	0.5869140625	0	upper	zerothre.ttf
1611084	WORD	wordpools/wasnorm_wordpool_less_exclusions.txt	LTP211	ltpFR	15	6	1	CHAIRPERSON	275	n/a	n/a	1	n/a	0	0	0	0.422607421875	0.5869140625	0	upper	zerothre.ttf
1615199	WORD	wordpools/wasnorm_wordpool_less_exclusions.txt	LTP211	ltpFR	15	6	1	MANAGER	863	n/a	n/a	1	n/a	0	0	0	0.422607421875	0.5869140625	0	upper	zerothre.ttf
1621135	REC_START	n/a	LTP211	ltpFR	15	6	n/a	n/a	n/a	n/a	n/a	n/a	n/a	0	0	0	n/a	n/a	n/a	n/a	n/a
1623529	REC_WORD	wordpools/wasnorm_wordpool_less_exclusions.txt	LTP211	ltpFR	15	6	1	BUILDER	190	n/a	n/a	1	n/a	0	0	0	n/a	n/a	n/a	n/a	n/a
1624442	REC_WORD	wordpools/wasnorm_wordpool_less_exclusions.txt	LTP211	ltpFR	15	6	1	OVAL	990	n/a	n/a	0	n/a	0	0	0	n/a	n/a	n/a	n/a	n/a
1625420	REC_WORD	wordpools/wasnorm_wordpool_less_exclusions.txt	LTP211	ltpFR	15	6	1	BRANDY	169	n/a	n/a	0	n/a	0	0	0	n/a	n/a	n/a	n/a	n/a
1627415	REC_WORD	wordpools/wasnorm_wordpool_less_exclusions.txt	LTP211	ltpFR	15	6	1	DEPARTMENT	449	n/a	n/a	0	n/a	0	0	0	n/a	n/a	n/a	n/a	n/a
1629276	REC_WORD	wordpools/wasnorm_wordpool_less_exclusions.txt	LTP211	ltpFR	15	6	1	ELECTRICIAN	521	n/a	n/a	1	n/a	0	0	0	n/a	n/a	n/a	n/a	n/a
1631711	REC_WORD	wordpools/wasnorm_wordpool_less_exclusions.txt	LTP211	ltpFR	15	6	1	AUTOMOBILE	62	n/a	n/a	0	n/a	0	0	0	n/a	n/a	n/a	n/a	n/a
1632968	REC_WORD	wordpools/wasnorm_wordpool_less_exclusions.txt	LTP211	ltpFR	15	6	1	CROSS	413	n/a	n/a	0	n/a	0	0	0	n/a	n/a	n/a	n/a	n/a
1634430	REC_WORD	wordpools/wasnorm_wordpool_less_exclusions.txt	LTP211	ltpFR	15	6	1	PARCEL	1012	n/a	n/a	0	n/a	0	0	0	n/a	n/a	n/a	n/a	n/a
1636081	REC_WORD	wordpools/wasnorm_wordpool_less_exclusions.txt	LTP211	ltpFR	15	6	1	FREEWAY	603	n/a	n/a	0	n/a	0	0	0	n/a	n/a	n/a	n/a	n/a
1638091	REC_WORD	wordpools/wasnorm_wordpool_less_exclusions.txt	LTP211	ltpFR	15	6	1	CARRIAGE	248	n/a	n/a	0	n/a	0	0	0	n/a	n/a	n/a	n/a	n/a
1638979	REC_WORD	wordpools/wasnorm_wordpool_less_exclusions.txt	LTP211	ltpFR	15	6	1	STALLION	1369	n/a	n/a	1	n/a	0	0	0	n/a	n/a	n/a	n/a	n/a
1640366	REC_WORD	wordpools/wasnorm_wordpool_less_exclusions.txt	LTP211	ltpFR	15	6	1	CARTON	251	n/a	n/a	0	n/a	0	0	0	n/a	n/a	n/a	n/a	n/a
1643659	REC_WORD	wordpools/wasnorm_wordpool_less_exclusions.txt	LTP211	ltpFR	15	6	1	CAKE	219	n/a	n/a	0	n/a	0	0	0	n/a	n/a	n/a	n/a	n/a
1644900	REC_WORD	wordpools/wasnorm_wordpool_less_exclusions.txt	LTP211	ltpFR	15	6	1	CHAIRPERSON	275	n/a	n/a	1	n/a	0	0	0	n/a	n/a	n/a	n/a	n/a
1646003	REC_WORD	wordpools/wasnorm_wordpool_less_exclusions.txt	LTP211	ltpFR	15	6	1	MANAGER	863	n/a	n/a	1	n/a	0	0	0	n/a	n/a	n/a	n/a	n/a
1700521	WORD	wordpools/wasnorm_wordpool_less_exclusions.txt	LTP211	ltpFR	15	7	1	RIVER	1194	n/a	n/a	0	n/a	0	0	0	0.422607421875	0.5869140625	0	upper	zerothre.ttf
1704498	WORD	wordpools/wasnorm_wordpool_less_exclusions.txt	LTP211	ltpFR	15	7	1	SPIDER	1351	n/a	n/a	1	n/a	0	0	0	0.422607421875	0.5869140625	0	upper	zerothre.ttf
1708484	WORD	wordpools/wasnorm_wordpool_less_exclusions.txt	LTP211	ltpFR	15	7	1	BUREAU	199	n/a	n/a	0	n/a	0	0	0	0.422607421875	0.5869140625	0	upper	zerothre.ttf
1712495	WORD	wordpools/wasnorm_wordpool_less_exclusions.txt	LTP211	ltpFR	15	7	1	CLOTHES	327	n/a	n/a	0	n/a	0	0	0	0.422607421875	0.5869140625	0	upper	zerothre.ttf
1716565	WORD	wordpools/wasnorm_wordpool_less_exclusions.txt	LTP211	ltpFR	15	7	1	SWATTER	1418	n/a	n/a	0	n/a	0	0	0	0.422607421875	0.5869140625	0	upper	zerothre.ttf
1720429	WORD	wordpools/wasnorm_wordpool_less_exclusions.txt	LTP211	ltpFR	15	7	1	SHAMPOO	1274	n/a	n/a	0	n/a	0	0	0	0.422607421875	0.5869140625	0	upper	zerothre.ttf
1724541	WORD	wordpools/wasnorm_wordpool_less_exclusions.txt	LTP211	ltpFR	15	7	1	DANDRUFF	439	n/a	n/a	0	n/a	0	0	0	0.422607421875	0.5869140625	0	upper	zerothre.ttf
1728476	WORD	wordpools/wasnorm_wordpool_less_exclusions.txt	LTP211	ltpFR	15	7	1	MAGNET	855	n/a	n/a	0	n/a	0	0	0	0.422607421875	0.5869140625	0	upper	zerothre.ttf
1732692	WORD	wordpools/wasnorm_wordpool_less_exclusions.txt	LTP211	ltpFR	15	7	1	SMOG	1330	n/a	n/a	0	n/a	0	0	0	0.422607421875	0.5869140625	0	upper	zerothre.ttf
1736858	WORD	wordpools/wasnorm_wordpool_less_exclusions.txt	LTP211	ltpFR	15	7	1	PORCUPINE	1107	n/a	n/a	1	n/a	0	0	0	0.422607421875	0.5869140625	0	upper	zerothre.ttf
1740923	WORD	wordpools/wasnorm_wordpool_less_exclusions.txt	LTP211	ltpFR	15	7	1	HUT	729	n/a	n/a	0	n/a	0	0	0	0.422607421875	0.5869140625	0	upper	zerothre.ttf
1745022	WORD	wordpools/wasnorm_wordpool_less_exclusions.txt	LTP211	ltpFR	15	7	1	KEEPER	769	n/a	n/a	1	n/a	0	0	0	0.422607421875	0.5869140625	0	upper	zerothre.ttf
1749183	WORD	wordpools/wasnorm_wordpool_less_exclusions.txt	LTP211	ltpFR	15	7	1	WHALE	1601	n/a	n/a	1	n/a	0	0	0	0.422607421875	0.5869140625	0	upper	zerothre.ttf
1753320	WORD	wordpools/wasnorm_wordpool_less_exclusions.txt	LTP211	ltpFR	15	7	1	TWIG	1527	n/a	n/a	0	n/a	0	0	0	0.422607421875	0.5869140625	0	upper	zerothre.ttf
1757297	WORD	wordpools/wasnorm_wordpool_less_exclusions.txt	LTP211	ltpFR	15	7	1	MONUMENT	913	n/a	n/a	0	n/a	0	0	0	0.422607421875	0.5869140625	0	upper	zerothre.ttf
1761351	WORD	wordpools/wasnorm_wordpool_less_exclusions.txt	LTP211	ltpFR	15	7	1	SALMON	1227	n/a	n/a	1	n/a	0	0	0	0.422607421875	0.5869140625	0	upper	zerothre.ttf
1764363	START	n/a	LTP211	ltpFR	15	n/a	n/a	n/a	n/a	n/a	n/a	n/a	n/a	n/a	n/a	n/a	n/a	n/a	n/a	n/a	n/a
1765362	PROB	n/a	LTP211	ltpFR	15	n/a	n/a	n/a	n/a	n/a	n/a	n/a	9	2	4	3	n/a	n/a	n/a	n/a	n/a
1767724	PROB	n/a	LTP211	ltpFR	15	n/a	n/a	n/a	n/a	n/a	n/a	n/a	14	4	6	4	n/a	n/a	n/a	n/a	n/a
1769109	PROB	n/a	LTP211	ltpFR	15	n/a	n/a	n/a	n/a	n/a	n/a	n/a	19	5	8	6	n/a	n/a	n/a	n/a	n/a
1771095	STOP	n/a	LTP211	ltpFR	15	n/a	n/a	n/a	n/a	n/a	n/a	n/a	n/a	n/a	n/a	n/a	n/a	n/a	n/a	n/a	n/a
1774245	REC_START	n/a	LTP211	ltpFR	15	7	n/a	n/a	n/a	n/a	n/a	n/a	n/a	0	0	0	n/a	n/a	n/a	n/a	n/a
1776274	REC_WORD	wordpools/wasnorm_wordpool_less_exclusions.txt	LTP211	ltpFR	15	7	1	RIVER	1194	n/a	n/a	0	n/a	0	0	0	n/a	n/a	n/a	n/a	n/a
1777038	REC_WORD	wordpools/wasnorm_wordpool_less_exclusions.txt	LTP211	ltpFR	15	7	1	SPIDER	1351	n/a	n/a	1	n/a	0	0	0	n/a	n/a	n/a	n/a	n/a
1778291	REC_WORD	wordpools/wasnorm_wordpool_less_exclusions.txt	LTP211	ltpFR	15	7	1	BUREAU	199	n/a	n/a	0	n/a	0	0	0	n/a	n/a	n/a	n/a	n/a
1779114	REC_WORD	wordpools/wasnorm_wordpool_less_exclusions.txt	LTP211	ltpFR	15	7	1	CLOTHES	327	n/a	n/a	0	n/a	0	0	0	n/a	n/a	n/a	n/a	n/a
1785575	REC_WORD	wordpools/wasnorm_wordpool_less_exclusions.txt	LTP211	ltpFR	15	7	1	SWATTER	1418	n/a	n/a	0	n/a	0	0	0	n/a	n/a	n/a	n/a	n/a
1788033	REC_WORD	wordpools/wasnorm_wordpool_less_exclusions.txt	LTP211	ltpFR	15	7	1	SHAMPOO	1274	n/a	n/a	0	n/a	0	0	0	n/a	n/a	n/a	n/a	n/a
1790538	REC_WORD	wordpools/wasnorm_wordpool_less_exclusions.txt	LTP211	ltpFR	15	7	1	MAGNET	855	n/a	n/a	0	n/a	0	0	0	n/a	n/a	n/a	n/a	n/a
1791526	REC_WORD	wordpools/wasnorm_wordpool_less_exclusions.txt	LTP211	ltpFR	15	7	1	DANDRUFF	439	n/a	n/a	0	n/a	0	0	0	n/a	n/a	n/a	n/a	n/a
1794506	REC_WORD	wordpools/wasnorm_wordpool_less_exclusions.txt	LTP211	ltpFR	15	7	1	SMOG	1330	n/a	n/a	0	n/a	0	0	0	n/a	n/a	n/a	n/a	n/a
1795605	REC_WORD	wordpools/wasnorm_wordpool_less_exclusions.txt	LTP211	ltpFR	15	7	1	PORCUPINE	1107	n/a	n/a	1	n/a	0	0	0	n/a	n/a	n/a	n/a	n/a
1796549	REC_WORD	wordpools/wasnorm_wordpool_less_exclusions.txt	LTP211	ltpFR	15	7	1	HUT	729	n/a	n/a	0	n/a	0	0	0	n/a	n/a	n/a	n/a	n/a
1799113	REC_WORD	wordpools/wasnorm_wordpool_less_exclusions.txt	LTP211	ltpFR	15	7	1	KEEPER	769	n/a	n/a	1	n/a	0	0	0	n/a	n/a	n/a	n/a	n/a
1800109	REC_WORD	wordpools/wasnorm_wordpool_less_exclusions.txt	LTP211	ltpFR	15	7	1	WHALE	1601	n/a	n/a	1	n/a	0	0	0	n/a	n/a	n/a	n/a	n/a
1804731	REC_WORD	wordpools/wasnorm_wordpool_less_exclusions.txt	LTP211	ltpFR	15	7	1	TWIG	1527	n/a	n/a	0	n/a	0	0	0	n/a	n/a	n/a	n/a	n/a
1809814	REC_WORD	wordpools/wasnorm_wordpool_less_exclusions.txt	LTP211	ltpFR	15	7	1	MONUMENT	913	n/a	n/a	0	n/a	0	0	0	n/a	n/a	n/a	n/a	n/a
1812490	REC_WORD	wordpools/wasnorm_wordpool_less_exclusions.txt	LTP211	ltpFR	15	7	1	SALMON	1227	n/a	n/a	1	n/a	0	0	0	n/a	n/a	n/a	n/a	n/a
1852962	WORD	wordpools/wasnorm_wordpool_less_exclusions.txt	LTP211	ltpFR	15	8	1	TAIL	1430	n/a	n/a	0	n/a	0	0	0	0.422607421875	0.5869140625	0	upper	zerothre.ttf
1856923	WORD	wordpools/wasnorm_wordpool_less_exclusions.txt	LTP211	ltpFR	15	8	1	TICK	1463	n/a	n/a	0	n/a	0	0	0	0.422607421875	0.5869140625	0	upper	zerothre.ttf
1861109	WORD	wordpools/wasnorm_wordpool_less_exclusions.txt	LTP211	ltpFR	15	8	1	DENIM	446	n/a	n/a	0	n/a	0	0	0	0.422607421875	0.5869140625	0	upper	zerothre.ttf
1865058	WORD	wordpools/wasnorm_wordpool_less_exclusions.txt	LTP211	ltpFR	15	8	0	VAGRANT	1544	n/a	n/a	1	n/a	0	0	0	0.57763671875	0.412841796875	1	lower	amplitud.ttf
1868989	WORD	wordpools/wasnorm_wordpool_less_exclusions.txt	LTP211	ltpFR	15	8	0	HOUSE	725	n/a	n/a	1	n/a	0	0	0	0.57763671875	0.412841796875	1	lower	amplitud.ttf
1873184	WORD	wordpools/wasnorm_wordpool_less_exclusions.txt	LTP211	ltpFR	15	8	1	BRICK	172	n/a	n/a	0	n/a	0	0	0	0.422607421875	0.5869140625	0	upper	zerothre.ttf
1877249	WORD	wordpools/wasnorm_wordpool_less_exclusions.txt	LTP211	ltpFR	15	8	1	CASH	252	n/a	n/a	0	n/a	0	0	0	0.422607421875	0.5869140625	0	upper	zerothre.ttf
1881152	WORD	wordpools/wasnorm_wordpool_less_exclusions.txt	LTP211	ltpFR	15	8	1	SIDING	1304	n/a	n/a	0	n/a	0	0	0	0.422607421875	0.5869140625	0	upper	zerothre.ttf
1885100	WORD	wordpools/wasnorm_wordpool_less_exclusions.txt	LTP211	ltpFR	15	8	1	JEANS	752	n/a	n/a	0	n/a	0	0	0	0.422607421875	0.5869140625	0	upper	zerothre.ttf
1889065	WORD	wordpools/wasnorm_wordpool_less_exclusions.txt	LTP211	ltpFR	15	8	1	NOMAD	955	n/a	n/a	1	n/a	0	0	0	0.422607421875	0.5869140625	0	upper	zerothre.ttf
1893097	WORD	wordpools/wasnorm_wordpool_less_exclusions.txt	LTP211	ltpFR	15	8	0	SHELTER	1282	n/a	n/a	1	n/a	0	0	0	0.57763671875	0.412841796875	1	lower	amplitud.ttf
1897296	WORD	wordpools/wasnorm_wordpool_less_exclusions.txt	LTP211	ltpFR	15	8	0	PIKE	1067	n/a	n/a	0	n/a	0	0	0	0.57763671875	0.412841796875	1	lower	amplitud.ttf
1901277	WORD	wordpools/wasnorm_wordpool_less_exclusions.txt	LTP211	ltpFR	15	8	0	GRAVEL	659	n/a	n/a	0	n/a	0	0	0	0.57763671875	0.412841796875	1	lower	amplitud.ttf
1905326	WORD	wordpools/wasnorm_wordpool_less_exclusions.txt	LTP211	ltpFR	15	8	0	WAITRESS	1581	n/a	n/a	1	n/a	0	0	0	0.57763671875	0.412841796875	1	lower	amplitud.ttf
1909338	WORD	wordpools/wasnorm_wordpool_less_exclusions.txt	LTP211	ltpFR	15	8	0	STAFF	1365	n/a	n/a	1	n/a	0	0	0	0.57763671875	0.412841796875	1	lower	amplitud.ttf
1913507	WORD	wordpools/wasnorm_wordpool_less_exclusions.txt	LTP211	ltpFR	15	8	0	MOB	904	n/a	n/a	1	n/a	0	0	0	0.57763671875	0.412841796875	1	lower	amplitud.ttf
1916519	START	n/a	LTP211	ltpFR	15	n/a	n/a	n/a	n/a	n/a	n/a	n/a	n/a	n/a	n/a	n/a	n/a	n/a	n/a	n/a	n/a
1917622	PROB	n/a	LTP211	ltpFR	15	n/a	n/a	n/a	n/a	n/a	n/a	n/a	13	4	4	5	n/a	n/a	n/a	n/a	n/a
1920617	PROB	n/a	LTP211	ltpFR	15	n/a	n/a	n/a	n/a	n/a	n/a	n/a	6	3	2	1	n/a	n/a	n/a	n/a	n/a
1922068	PROB	n/a	LTP211	ltpFR	15	n/a	n/a	n/a	n/a	n/a	n/a	n/a	8	5	1	2	n/a	n/a	n/a	n/a	n/a
1925548	PROB	n/a	LTP211	ltpFR	15	n/a	n/a	n/a	n/a	n/a	n/a	n/a	16	7	9	2	n/a	n/a	n/a	n/a	n/a
1927556	PROB	n/a	LTP211	ltpFR	15	n/a	n/a	n/a	n/a	n/a	n/a	n/a	14	5	8	1	n/a	n/a	n/a	n/a	n/a
1929095	PROB	n/a	LTP211	ltpFR	15	n/a	n/a	n/a	n/a	n/a	n/a	n/a	16	4	6	6	n/a	n/a	n/a	n/a	n/a
1932519	STOP	n/a	LTP211	ltpFR	15	n/a	n/a	n/a	n/a	n/a	n/a	n/a	n/a	n/a	n/a	n/a	n/a	n/a	n/a	n/a	n/a
1934432	REC_START	n/a	LTP211	ltpFR	15	8	n/a	n/a	n/a	n/a	n/a	n/a	n/a	0	0	0	n/a	n/a	n/a	n/a	n/a
1937959	REC_WORD	wordpools/wasnorm_wordpool_less_exclusions.txt	LTP211	ltpFR	15	8	1	TAIL	1430	n/a	n/a	0	n/a	0	0	0	n/a	n/a	n/a	n/a	n/a
1938907	REC_WORD	wordpools/wasnorm_wordpool_less_exclusions.txt	LTP211	ltpFR	15	8	1	TICK	1463	n/a	n/a	0	n/a	0	0	0	n/a	n/a	n/a	n/a	n/a
1940054	REC_WORD	wordpools/wasnorm_wordpool_less_exclusions.txt	LTP211	ltpFR	15	8	1	DENIM	446	n/a	n/a	0	n/a	0	0	0	n/a	n/a	n/a	n/a	n/a
1942450	REC_WORD	wordpools/wasnorm_wordpool_less_exclusions.txt	LTP211	ltpFR	15	8	0	VAGRANT	1544	n/a	n/a	1	n/a	0	0	0	n/a	n/a	n/a	n/a	n/a
1944738	REC_WORD	wordpools/wasnorm_wordpool_less_exclusions.txt	LTP211	ltpFR	15	8	0	HOUSE	725	n/a	n/a	1	n/a	0	0	0	n/a	n/a	n/a	n/a	n/a
1946085	REC_WORD	wordpools/wasnorm_wordpool_less_exclusions.txt	LTP211	ltpFR	15	8	1	BRICK	172	n/a	n/a	0	n/a	0	0	0	n/a	n/a	n/a	n/a	n/a
1947991	REC_WORD	wordpools/wasnorm_wordpool_less_exclusions.txt	LTP211	ltpFR	15	8	1	CASH	252	n/a	n/a	0	n/a	0	0	0	n/a	n/a	n/a	n/a	n/a
1948867	REC_WORD	wordpools/wasnorm_wordpool_less_exclusions.txt	LTP211	ltpFR	15	8	1	SIDING	1304	n/a	n/a	0	n/a	0	0	0	n/a	n/a	n/a	n/a	n/a
1952795	REC_WORD	wordpools/wasnorm_wordpool_less_exclusions.txt	LTP211	ltpFR	15	8	1	JEANS	752	n/a	n/a	0	n/a	0	0	0	n/a	n/a	n/a	n/a	n/a
1955604	REC_WORD	wordpools/wasnorm_wordpool_less_exclusions.txt	LTP211	ltpFR	15	8	1	NOMAD	955	n/a	n/a	1	n/a	0	0	0	n/a	n/a	n/a	n/a	n/a
1958382	REC_WORD	wordpools/wasnorm_wordpool_less_exclusions.txt	LTP211	ltpFR	15	8	0	SHELTER	1282	n/a	n/a	1	n/a	0	0	0	n/a	n/a	n/a	n/a	n/a
1959415	REC_WORD	wordpools/wasnorm_wordpool_less_exclusions.txt	LTP211	ltpFR	15	8	0	PIKE	1067	n/a	n/a	0	n/a	0	0	0	n/a	n/a	n/a	n/a	n/a
1960317	REC_WORD	wordpools/wasnorm_wordpool_less_exclusions.txt	LTP211	ltpFR	15	8	0	GRAVEL	659	n/a	n/a	0	n/a	0	0	0	n/a	n/a	n/a	n/a	n/a
1962149	REC_WORD	wordpools/wasnorm_wordpool_less_exclusions.txt	LTP211	ltpFR	15	8	0	WAITRESS	1581	n/a	n/a	1	n/a	0	0	0	n/a	n/a	n/a	n/a	n/a
1964171	REC_WORD	wordpools/wasnorm_wordpool_less_exclusions.txt	LTP211	ltpFR	15	8	0	STAFF	1365	n/a	n/a	1	n/a	0	0	0	n/a	n/a	n/a	n/a	n/a
1966304	REC_WORD	wordpools/wasnorm_wordpool_less_exclusions.txt	LTP211	ltpFR	15	8	0	MOB	904	n/a	n/a	1	n/a	0	0	0	n/a	n/a	n/a	n/a	n/a
2011075	START	n/a	LTP211	ltpFR	15	n/a	n/a	n/a	n/a	n/a	n/a	n/a	n/a	n/a	n/a	n/a	n/a	n/a	n/a	n/a	n/a
2012593	PROB	n/a	LTP211	ltpFR	15	n/a	n/a	n/a	n/a	n/a	n/a	n/a	23	6	8	9	n/a	n/a	n/a	n/a	n/a
2014701	PROB	n/a	LTP211	ltpFR	15	n/a	n/a	n/a	n/a	n/a	n/a	n/a	12	4	4	4	n/a	n/a	n/a	n/a	n/a
2016428	PROB	n/a	LTP211	ltpFR	15	n/a	n/a	n/a	n/a	n/a	n/a	n/a	18	9	5	4	n/a	n/a	n/a	n/a	n/a
2017796	PROB	n/a	LTP211	ltpFR	15	n/a	n/a	n/a	n/a	n/a	n/a	n/a	13	2	6	5	n/a	n/a	n/a	n/a	n/a
2019168	PROB	n/a	LTP211	ltpFR	15	n/a	n/a	n/a	n/a	n/a	n/a	n/a	20	9	3	8	n/a	n/a	n/a	n/a	n/a
2022279	PROB	n/a	LTP211	ltpFR	15	n/a	n/a	n/a	n/a	n/a	n/a	n/a	18	9	2	7	n/a	n/a	n/a	n/a	n/a
2023618	PROB	n/a	LTP211	ltpFR	15	n/a	n/a	n/a	n/a	n/a	n/a	n/a	24	7	9	7	n/a	n/a	n/a	n/a	n/a
2025935	STOP	n/a	LTP211	ltpFR	15	n/a	n/a	n/a	n/a	n/a	n/a	n/a	n/a	n/a	n/a	n/a	n/a	n/a	n/a	n/a	n/a
2028005	WORD	wordpools/wasnorm_wordpool_less_exclusions.txt	LTP211	ltpFR	15	9	0	TRAY	1498	n/a	n/a	1	n/a	0	0	0	0.57763671875	0.412841796875	1	lower	amplitud.ttf
2031017	START	n/a	LTP211	ltpFR	15	n/a	n/a	n/a	n/a	n/a	n/a	n/a	n/a	n/a	n/a	n/a	n/a	n/a	n/a	n/a	n/a
2032070	PROB	n/a	LTP211	ltpFR	15	n/a	n/a	n/a	n/a	n/a	n/a	n/a	18	7	3	8	n/a	n/a	n/a	n/a	n/a
2033773	PROB	n/a	LTP211	ltpFR	15	n/a	n/a	n/a	n/a	n/a	n/a	n/a	11	5	3	3	n/a	n/a	n/a	n/a	n/a
2035283	PROB	n/a	LTP211	ltpFR	15	n/a	n/a	n/a	n/a	n/a	n/a	n/a	13	8	2	3	n/a	n/a	n/a	n/a	n/a
2036650	PROB	n/a	LTP211	ltpFR	15	n/a	n/a	n/a	n/a	n/a	n/a	n/a	9	1	5	3	n/a	n/a	n/a	n/a	n/a
2038691	PROB	n/a	LTP211	ltpFR	15	n/a	n/a	n/a	n/a	n/a	n/a	n/a	19	7	9	3	n/a	n/a	n/a	n/a	n/a
2041305	PROB	n/a	LTP211	ltpFR	15	n/a	n/a	n/a	n/a	n/a	n/a	n/a	18	8	9	1	n/a	n/a	n/a	n/a	n/a
2043028	PROB	n/a	LTP211	ltpFR	15	n/a	n/a	n/a	n/a	n/a	n/a	n/a	21	6	8	7	n/a	n/a	n/a	n/a	n/a
2044881	PROB	n/a	LTP211	ltpFR	15	n/a	n/a	n/a	n/a	n/a	n/a	n/a	13	1	7	5	n/a	n/a	n/a	n/a	n/a
2046671	STOP	n/a	LTP211	ltpFR	15	n/a	n/a	n/a	n/a	n/a	n/a	n/a	n/a	n/a	n/a	n/a	n/a	n/a	n/a	n/a	n/a
2047913	WORD	wordpools/wasnorm_wordpool_less_exclusions.txt	LTP211	ltpFR	15	9	0	PLAZA	1088	n/a	n/a	1	n/a	0	0	0	0.57763671875	0.412841796875	1	lower	amplitud.ttf
2050925	START	n/a	LTP211	ltpFR	15	n/a	n/a	n/a	n/a	n/a	n/a	n/a	n/a	n/a	n/a	n/a	n/a	n/a	n/a	n/a	n/a
2051979	PROB	n/a	LTP211	ltpFR	15	n/a	n/a	n/a	n/a	n/a	n/a	n/a	13	4	8	1	n/a	n/a	n/a	n/a	n/a
2053714	PROB	n/a	LTP211	ltpFR	15	n/a	n/a	n/a	n/a	n/a	n/a	n/a	12	5	5	2	n/a	n/a	n/a	n/a	n/a
2054952	PROB	n/a	LTP211	ltpFR	15	n/a	n/a	n/a	n/a	n/a	n/a	n/a	17	4	4	9	n/a	n/a	n/a	n/a	n/a
2056492	PROB	n/a	LTP211	ltpFR	15	n/a	n/a	n/a	n/a	n/a	n/a	n/a	16	4	4	8	n/a	n/a	n/a	n/a	n/a
2059035	PROB	n/a	LTP211	ltpFR	15	n/a	n/a	n/a	n/a	n/a	n/a	n/a	13	3	5	5	n/a	n/a	n/a	n/a	n/a
2060239	PROB	n/a	LTP211	ltpFR	15	n/a	n/a	n/a	n/a	n/a	n/a	n/a	6	1	3	2	n/a	n/a	n/a	n/a	n/a
2061411	PROB	n/a	LTP211	ltpFR	15	n/a	n/a	n/a	n/a	n/a	n/a	n/a	20	9	3	8	n/a	n/a	n/a	n/a	n/a
2063752	PROB	n/a	LTP211	ltpFR	15	n/a	n/a	n/a	n/a	n/a	n/a	n/a	12	1	3	8	n/a	n/a	n/a	n/a	n/a
2066925	STOP	n/a	LTP211	ltpFR	15	n/a	n/a	n/a	n/a	n/a	n/a	n/a	n/a	n/a	n/a	n/a	n/a	n/a	n/a	n/a	n/a
2067784	WORD	wordpools/wasnorm_wordpool_less_exclusions.txt	LTP211	ltpFR	15	9	0	EDITOR	516	n/a	n/a	1	n/a	0	0	0	0.57763671875	0.412841796875	1	lower	amplitud.ttf
2070800	START	n/a	LTP211	ltpFR	15	n/a	n/a	n/a	n/a	n/a	n/a	n/a	n/a	n/a	n/a	n/a	n/a	n/a	n/a	n/a	n/a
2071904	PROB	n/a	LTP211	ltpFR	15	n/a	n/a	n/a	n/a	n/a	n/a	n/a	13	7	2	4	n/a	n/a	n/a	n/a	n/a
2073356	PROB	n/a	LTP211	ltpFR	15	n/a	n/a	n/a	n/a	n/a	n/a	n/a	22	8	7	7	n/a	n/a	n/a	n/a	n/a
2074794	PROB	n/a	LTP211	ltpFR	15	n/a	n/a	n/a	n/a	n/a	n/a	n/a	14	4	9	1	n/a	n/a	n/a	n/a	n/a
2076099	PROB	n/a	LTP211	ltpFR	15	n/a	n/a	n/a	n/a	n/a	n/a	n/a	17	7	2	8	n/a	n/a	n/a	n/a	n/a
2077855	PROB	n/a	LTP211	ltpFR	15	n/a	n/a	n/a	n/a	n/a	n/a	n/a	19	6	4	9	n/a	n/a	n/a	n/a	n/a
2079043	PROB	n/a	LTP211	ltpFR	15	n/a	n/a	n/a	n/a	n/a	n/a	n/a	11	2	5	4	n/a	n/a	n/a	n/a	n/a
2080921	PROB	n/a	LTP211	ltpFR	15	n/a	n/a	n/a	n/a	n/a	n/a	n/a	23	9	8	6	n/a	n/a	n/a	n/a	n/a
2083025	PROB	n/a	LTP211	ltpFR	15	n/a	n/a	n/a	n/a	n/a	n/a	n/a	20	6	8	6	n/a	n/a	n/a	n/a	n/a
2085615	STOP	n/a	LTP211	ltpFR	15	n/a	n/a	n/a	n/a	n/a	n/a	n/a	n/a	n/a	n/a	n/a	n/a	n/a	n/a	n/a	n/a
2087981	WORD	wordpools/wasnorm_wordpool_less_exclusions.txt	LTP211	ltpFR	15	9	0	REPTILE	1185	n/a	n/a	1	n/a	0	0	0	0.57763671875	0.412841796875	1	lower	amplitud.ttf
2090993	START	n/a	LTP211	ltpFR	15	n/a	n/a	n/a	n/a	n/a	n/a	n/a	n/a	n/a	n/a	n/a	n/a	n/a	n/a	n/a	n/a
2092159	PROB	n/a	LTP211	ltpFR	15	n/a	n/a	n/a	n/a	n/a	n/a	n/a	11	1	3	7	n/a	n/a	n/a	n/a	n/a
2093799	PROB	n/a	LTP211	ltpFR	15	n/a	n/a	n/a	n/a	n/a	n/a	n/a	22	8	8	7	n/a	n/a	n/a	n/a	n/a
2097028	PROB	n/a	LTP211	ltpFR	15	n/a	n/a	n/a	n/a	n/a	n/a	n/a	16	6	5	5	n/a	n/a	n/a	n/a	n/a
2098249	PROB	n/a	LTP211	ltpFR	15	n/a	n/a	n/a	n/a	n/a	n/a	n/a	18	4	8	6	n/a	n/a	n/a	n/a	n/a
2100273	PROB	n/a	LTP211	ltpFR	15	n/a	n/a	n/a	n/a	n/a	n/a	n/a	11	6	1	4	n/a	n/a	n/a	n/a	n/a
2102068	PROB	n/a	LTP211	ltpFR	15	n/a	n/a	n/a	n/a	n/a	n/a	n/a	21	7	8	6	n/a	n/a	n/a	n/a	n/a
2103987	PROB	n/a	LTP211	ltpFR	15	n/a	n/a	n/a	n/a	n/a	n/a	n/a	20	9	7	4	n/a	n/a	n/a	n/a	n/a
2105535	STOP	n/a	LTP211	ltpFR	15	n/a	n/a	n/a	n/a	n/a	n/a	n/a	n/a	n/a	n/a	n/a	n/a	n/a	n/a	n/a	n/a
2108023	WORD	wordpools/wasnorm_wordpool_less_exclusions.txt	LTP211	ltpFR	15	9	0	TEAPOT	1442	n/a	n/a	0	n/a	0	0	0	0.57763671875	0.412841796875	1	lower	amplitud.ttf
2111035	START	n/a	LTP211	ltpFR	15	n/a	n/a	n/a	n/a	n/a	n/a	n/a	n/a	n/a	n/a	n/a	n/a	n/a	n/a	n/a	n/a
2112089	PROB	n/a	LTP211	ltpFR	15	n/a	n/a	n/a	n/a	n/a	n/a	n/a	16	6	4	6	n/a	n/a	n/a	n/a	n/a
2113361	PROB	n/a	LTP211	ltpFR	15	n/a	n/a	n/a	n/a	n/a	n/a	n/a	12	1	3	8	n/a	n/a	n/a	n/a	n/a
2115297	PROB	n/a	LTP211	ltpFR	15	n/a	n/a	n/a	n/a	n/a	n/a	n/a	9	1	2	6	n/a	n/a	n/a	n/a	n/a
2116585	PROB	n/a	LTP211	ltpFR	15	n/a	n/a	n/a	n/a	n/a	n/a	n/a	18	7	3	8	n/a	n/a	n/a	n/a	n/a
2117794	PROB	n/a	LTP211	ltpFR	15	n/a	n/a	n/a	n/a	n/a	n/a	n/a	8	3	4	1	n/a	n/a	n/a	n/a	n/a
2119517	PROB	n/a	LTP211	ltpFR	15	n/a	n/a	n/a	n/a	n/a	n/a	n/a	14	1	7	6	n/a	n/a	n/a	n/a	n/a
2120968	PROB	n/a	LTP211	ltpFR	15	n/a	n/a	n/a	n/a	n/a	n/a	n/a	9	3	3	3	n/a	n/a	n/a	n/a	n/a
2127035	STOP	n/a	LTP211	ltpFR	15	n/a	n/a	n/a	n/a	n/a	n/a	n/a	n/a	n/a	n/a	n/a	n/a	n/a	n/a	n/a	n/a
2127861	WORD	wordpools/wasnorm_wordpool_less_exclusions.txt	LTP211	ltpFR	15	9	0	BEVERAGE	123	n/a	n/a	0	n/a	0	0	0	0.57763671875	0.412841796875	1	lower	amplitud.ttf
2130877	START	n/a	LTP211	ltpFR	15	n/a	n/a	n/a	n/a	n/a	n/a	n/a	n/a	n/a	n/a	n/a	n/a	n/a	n/a	n/a	n/a
2131863	PROB	n/a	LTP211	ltpFR	15	n/a	n/a	n/a	n/a	n/a	n/a	n/a	24	7	8	9	n/a	n/a	n/a	n/a	n/a
2133699	PROB	n/a	LTP211	ltpFR	15	n/a	n/a	n/a	n/a	n/a	n/a	n/a	16	8	2	6	n/a	n/a	n/a	n/a	n/a
2135155	PROB	n/a	LTP211	ltpFR	15	n/a	n/a	n/a	n/a	n/a	n/a	n/a	11	9	1	1	n/a	n/a	n/a	n/a	n/a
2136564	PROB	n/a	LTP211	ltpFR	15	n/a	n/a	n/a	n/a	n/a	n/a	n/a	21	8	9	4	n/a	n/a	n/a	n/a	n/a
2139187	PROB	n/a	LTP211	ltpFR	15	n/a	n/a	n/a	n/a	n/a	n/a	n/a	14	1	5	8	n/a	n/a	n/a	n/a	n/a
2140508	PROB	n/a	LTP211	ltpFR	15	n/a	n/a	n/a	n/a	n/a	n/a	n/a	16	4	3	9	n/a	n/a	n/a	n/a	n/a
2141851	PROB	n/a	LTP211	ltpFR	15	n/a	n/a	n/a	n/a	n/a	n/a	n/a	18	2	9	7	n/a	n/a	n/a	n/a	n/a
2143419	PROB	n/a	LTP211	ltpFR	15	n/a	n/a	n/a	n/a	n/a	n/a	n/a	21	9	5	7	n/a	n/a	n/a	n/a	n/a
2146877	STOP	n/a	LTP211	ltpFR	15	n/a	n/a	n/a	n/a	n/a	n/a	n/a	n/a	n/a	n/a	n/a	n/a	n/a	n/a	n/a	n/a
2147890	WORD	wordpools/wasnorm_wordpool_less_exclusions.txt	LTP211	ltpFR	15	9	0	SKIRT	1319	n/a	n/a	0	n/a	0	0	0	0.57763671875	0.412841796875	1	lower	amplitud.ttf
2150902	START	n/a	LTP211	ltpFR	15	n/a	n/a	n/a	n/a	n/a	n/a	n/a	n/a	n/a	n/a	n/a	n/a	n/a	n/a	n/a	n/a
2151772	PROB	n/a	LTP211	ltpFR	15	n/a	n/a	n/a	n/a	n/a	n/a	n/a	14	4	7	3	n/a	n/a	n/a	n/a	n/a
2153691	PROB	n/a	LTP211	ltpFR	15	n/a	n/a	n/a	n/a	n/a	n/a	n/a	20	7	9	4	n/a	n/a	n/a	n/a	n/a
2156769	PROB	n/a	LTP211	ltpFR	15	n/a	n/a	n/a	n/a	n/a	n/a	n/a	15	2	7	6	n/a	n/a	n/a	n/a	n/a
2158091	PROB	n/a	LTP211	ltpFR	15	n/a	n/a	n/a	n/a	n/a	n/a	n/a	18	7	2	9	n/a	n/a	n/a	n/a	n/a
2159547	PROB	n/a	LTP211	ltpFR	15	n/a	n/a	n/a	n/a	n/a	n/a	n/a	15	8	6	1	n/a	n/a	n/a	n/a	n/a
2161052	PROB	n/a	LTP211	ltpFR	15	n/a	n/a	n/a	n/a	n/a	n/a	n/a	18	3	7	8	n/a	n/a	n/a	n/a	n/a
2162708	PROB	n/a	LTP211	ltpFR	15	n/a	n/a	n/a	n/a	n/a	n/a	n/a	16	8	8	4	n/a	n/a	n/a	n/a	n/a
2166902	STOP	n/a	LTP211	ltpFR	15	n/a	n/a	n/a	n/a	n/a	n/a	n/a	n/a	n/a	n/a	n/a	n/a	n/a	n/a	n/a	n/a
2167999	WORD	wordpools/wasnorm_wordpool_less_exclusions.txt	LTP211	ltpFR	15	9	0	ROBE	1198	n/a	n/a	1	n/a	0	0	0	0.57763671875	0.412841796875	1	lower	amplitud.ttf
2171011	START	n/a	LTP211	ltpFR	15	n/a	n/a	n/a	n/a	n/a	n/a	n/a	n/a	n/a	n/a	n/a	n/a	n/a	n/a	n/a	n/a
2172115	PROB	n/a	LTP211	ltpFR	15	n/a	n/a	n/a	n/a	n/a	n/a	n/a	22	8	5	9	n/a	n/a	n/a	n/a	n/a
2174168	PROB	n/a	LTP211	ltpFR	15	n/a	n/a	n/a	n/a	n/a	n/a	n/a	16	2	9	5	n/a	n/a	n/a	n/a	n/a
2176883	PROB	n/a	LTP211	ltpFR	15	n/a	n/a	n/a	n/a	n/a	n/a	n/a	15	4	7	4	n/a	n/a	n/a	n/a	n/a
2178418	PROB	n/a	LTP211	ltpFR	15	n/a	n/a	n/a	n/a	n/a	n/a	n/a	15	4	6	5	n/a	n/a	n/a	n/a	n/a
2180179	PROB	n/a	LTP211	ltpFR	15	n/a	n/a	n/a	n/a	n/a	n/a	n/a	8	5	2	1	n/a	n/a	n/a	n/a	n/a
2182433	PROB	n/a	LTP211	ltpFR	15	n/a	n/a	n/a	n/a	n/a	n/a	n/a	10	1	1	8	n/a	n/a	n/a	n/a	n/a
2183692	PROB	n/a	LTP211	ltpFR	15	n/a	n/a	n/a	n/a	n/a	n/a	n/a	19	9	1	9	n/a	n/a	n/a	n/a	n/a
2185164	PROB	n/a	LTP211	ltpFR	15	n/a	n/a	n/a	n/a	n/a	n/a	n/a	16	6	3	7	n/a	n/a	n/a	n/a	n/a
2186423	STOP	n/a	LTP211	ltpFR	15	n/a	n/a	n/a	n/a	n/a	n/a	n/a	n/a	n/a	n/a	n/a	n/a	n/a	n/a	n/a	n/a
2188192	WORD	wordpools/wasnorm_wordpool_less_exclusions.txt	LTP211	ltpFR	15	9	0	SEAFOOD	1260	n/a	n/a	1	n/a	0	0	0	0.57763671875	0.412841796875	1	lower	amplitud.ttf
2191204	START	n/a	LTP211	ltpFR	15	n/a	n/a	n/a	n/a	n/a	n/a	n/a	n/a	n/a	n/a	n/a	n/a	n/a	n/a	n/a	n/a
2192057	PROB	n/a	LTP211	ltpFR	15	n/a	n/a	n/a	n/a	n/a	n/a	n/a	12	4	6	2	n/a	n/a	n/a	n/a	n/a
2193780	PROB	n/a	LTP211	ltpFR	15	n/a	n/a	n/a	n/a	n/a	n/a	n/a	12	5	5	2	n/a	n/a	n/a	n/a	n/a
2195068	PROB	n/a	LTP211	ltpFR	15	n/a	n/a	n/a	n/a	n/a	n/a	n/a	10	1	5	4	n/a	n/a	n/a	n/a	n/a
2196519	PROB	n/a	LTP211	ltpFR	15	n/a	n/a	n/a	n/a	n/a	n/a	n/a	18	7	2	9	n/a	n/a	n/a	n/a	n/a
2197791	PROB	n/a	LTP211	ltpFR	15	n/a	n/a	n/a	n/a	n/a	n/a	n/a	19	5	5	9	n/a	n/a	n/a	n/a	n/a
2198962	PROB	n/a	LTP211	ltpFR	15	n/a	n/a	n/a	n/a	n/a	n/a	n/a	12	5	1	6	n/a	n/a	n/a	n/a	n/a
2200288	PROB	n/a	LTP211	ltpFR	15	n/a	n/a	n/a	n/a	n/a	n/a	n/a	19	8	5	6	n/a	n/a	n/a	n/a	n/a
2201689	PROB	n/a	LTP211	ltpFR	15	n/a	n/a	n/a	n/a	n/a	n/a	n/a	14	5	1	8	n/a	n/a	n/a	n/a	n/a
2203194	PROB	n/a	LTP211	ltpFR	15	n/a	n/a	n/a	n/a	n/a	n/a	n/a	16	2	4	8	n/a	n/a	n/a	n/a	n/a
2207204	STOP	n/a	LTP211	ltpFR	15	n/a	n/a	n/a	n/a	n/a	n/a	n/a	n/a	n/a	n/a	n/a	n/a	n/a	n/a	n/a	n/a
2208234	WORD	wordpools/wasnorm_wordpool_less_exclusions.txt	LTP211	ltpFR	15	9	0	PIER	1063	n/a	n/a	1	n/a	0	0	0	0.57763671875	0.412841796875	1	lower	amplitud.ttf
2211246	START	n/a	LTP211	ltpFR	15	n/a	n/a	n/a	n/a	n/a	n/a	n/a	n/a	n/a	n/a	n/a	n/a	n/a	n/a	n/a	n/a
2212433	PROB	n/a	LTP211	ltpFR	15	n/a	n/a	n/a	n/a	n/a	n/a	n/a	12	6	5	2	n/a	n/a	n/a	n/a	n/a
2214404	PROB	n/a	LTP211	ltpFR	15	n/a	n/a	n/a	n/a	n/a	n/a	n/a	10	3	4	3	n/a	n/a	n/a	n/a	n/a
2216879	PROB	n/a	LTP211	ltpFR	15	n/a	n/a	n/a	n/a	n/a	n/a	n/a	19	6	9	4	n/a	n/a	n/a	n/a	n/a
2218552	PROB	n/a	LTP211	ltpFR	15	n/a	n/a	n/a	n/a	n/a	n/a	n/a	10	4	3	3	n/a	n/a	n/a	n/a	n/a
2219975	PROB	n/a	LTP211	ltpFR	15	n/a	n/a	n/a	n/a	n/a	n/a	n/a	14	4	9	1	n/a	n/a	n/a	n/a	n/a
2221463	PROB	n/a	LTP211	ltpFR	15	n/a	n/a	n/a	n/a	n/a	n/a	n/a	14	7	5	2	n/a	n/a	n/a	n/a	n/a
2222835	PROB	n/a	LTP211	ltpFR	15	n/a	n/a	n/a	n/a	n/a	n/a	n/a	16	9	6	1	n/a	n/a	n/a	n/a	n/a
2225248	PROB	n/a	LTP211	ltpFR	15	n/a	n/a	n/a	n/a	n/a	n/a	n/a	14	8	2	4	n/a	n/a	n/a	n/a	n/a
2226583	STOP	n/a	LTP211	ltpFR	15	n/a	n/a	n/a	n/a	n/a	n/a	n/a	n/a	n/a	n/a	n/a	n/a	n/a	n/a	n/a	n/a
2228277	WORD	wordpools/wasnorm_wordpool_less_exclusions.txt	LTP211	ltpFR	15	9	0	REPORT	1184	n/a	n/a	0	n/a	0	0	0	0.57763671875	0.412841796875	1	lower	amplitud.ttf
2231289	START	n/a	LTP211	ltpFR	15	n/a	n/a	n/a	n/a	n/a	n/a	n/a	n/a	n/a	n/a	n/a	n/a	n/a	n/a	n/a	n/a
2232360	PROB	n/a	LTP211	ltpFR	15	n/a	n/a	n/a	n/a	n/a	n/a	n/a	17	9	5	3	n/a	n/a	n/a	n/a	n/a
2234044	PROB	n/a	LTP211	ltpFR	15	n/a	n/a	n/a	n/a	n/a	n/a	n/a	12	4	2	6	n/a	n/a	n/a	n/a	n/a
2235755	PROB	n/a	LTP211	ltpFR	15	n/a	n/a	n/a	n/a	n/a	n/a	n/a	9	1	1	7	n/a	n/a	n/a	n/a	n/a
2236972	PROB	n/a	LTP211	ltpFR	15	n/a	n/a	n/a	n/a	n/a	n/a	n/a	21	8	8	5	n/a	n/a	n/a	n/a	n/a
2239665	PROB	n/a	LTP211	ltpFR	15	n/a	n/a	n/a	n/a	n/a	n/a	n/a	10	2	3	5	n/a	n/a	n/a	n/a	n/a
2240971	PROB	n/a	LTP211	ltpFR	15	n/a	n/a	n/a	n/a	n/a	n/a	n/a	10	2	6	2	n/a	n/a	n/a	n/a	n/a
2242794	PROB	n/a	LTP211	ltpFR	15	n/a	n/a	n/a	n/a	n/a	n/a	n/a	18	8	1	9	n/a	n/a	n/a	n/a	n/a
2244316	PROB	n/a	LTP211	ltpFR	15	n/a	n/a	n/a	n/a	n/a	n/a	n/a	14	1	7	6	n/a	n/a	n/a	n/a	n/a
2247289	STOP	n/a	LTP211	ltpFR	15	n/a	n/a	n/a	n/a	n/a	n/a	n/a	n/a	n/a	n/a	n/a	n/a	n/a	n/a	n/a	n/a
2248168	WORD	wordpools/wasnorm_wordpool_less_exclusions.txt	LTP211	ltpFR	15	9	0	VENUS	1557	n/a	n/a	1	n/a	0	0	0	0.57763671875	0.412841796875	1	lower	amplitud.ttf
2251180	START	n/a	LTP211	ltpFR	15	n/a	n/a	n/a	n/a	n/a	n/a	n/a	n/a	n/a	n/a	n/a	n/a	n/a	n/a	n/a	n/a
2252233	PROB	n/a	LTP211	ltpFR	15	n/a	n/a	n/a	n/a	n/a	n/a	n/a	9	5	3	1	n/a	n/a	n/a	n/a	n/a
2254074	PROB	n/a	LTP211	ltpFR	15	n/a	n/a	n/a	n/a	n/a	n/a	n/a	19	8	9	2	n/a	n/a	n/a	n/a	n/a
2256211	PROB	n/a	LTP211	ltpFR	15	n/a	n/a	n/a	n/a	n/a	n/a	n/a	14	4	1	9	n/a	n/a	n/a	n/a	n/a
2257867	PROB	n/a	LTP211	ltpFR	15	n/a	n/a	n/a	n/a	n/a	n/a	n/a	12	3	5	4	n/a	n/a	n/a	n/a	n/a
2259975	PROB	n/a	LTP211	ltpFR	15	n/a	n/a	n/a	n/a	n/a	n/a	n/a	10	2	4	4	n/a	n/a	n/a	n/a	n/a
2261598	PROB	n/a	LTP211	ltpFR	15	n/a	n/a	n/a	n/a	n/a	n/a	n/a	14	2	9	3	n/a	n/a	n/a	n/a	n/a
2263120	PROB	n/a	LTP211	ltpFR	15	n/a	n/a	n/a	n/a	n/a	n/a	n/a	14	1	9	4	n/a	n/a	n/a	n/a	n/a
2264325	PROB	n/a	LTP211	ltpFR	15	n/a	n/a	n/a	n/a	n/a	n/a	n/a	9	3	5	1	n/a	n/a	n/a	n/a	n/a
2265679	STOP	n/a	LTP211	ltpFR	15	n/a	n/a	n/a	n/a	n/a	n/a	n/a	n/a	n/a	n/a	n/a	n/a	n/a	n/a	n/a	n/a
2268277	WORD	wordpools/wasnorm_wordpool_less_exclusions.txt	LTP211	ltpFR	15	9	0	EARTH	515	n/a	n/a	1	n/a	0	0	0	0.57763671875	0.412841796875	1	lower	amplitud.ttf
2271289	START	n/a	LTP211	ltpFR	15	n/a	n/a	n/a	n/a	n/a	n/a	n/a	n/a	n/a	n/a	n/a	n/a	n/a	n/a	n/a	n/a
2272192	PROB	n/a	LTP211	ltpFR	15	n/a	n/a	n/a	n/a	n/a	n/a	n/a	12	3	7	2	n/a	n/a	n/a	n/a	n/a
2273865	PROB	n/a	LTP211	ltpFR	15	n/a	n/a	n/a	n/a	n/a	n/a	n/a	12	4	6	2	n/a	n/a	n/a	n/a	n/a
2276236	PROB	n/a	LTP211	ltpFR	15	n/a	n/a	n/a	n/a	n/a	n/a	n/a	9	3	3	3	n/a	n/a	n/a	n/a	n/a
2277328	PROB	n/a	LTP211	ltpFR	15	n/a	n/a	n/a	n/a	n/a	n/a	n/a	11	3	2	6	n/a	n/a	n/a	n/a	n/a
2279164	PROB	n/a	LTP211	ltpFR	15	n/a	n/a	n/a	n/a	n/a	n/a	n/a	20	9	3	8	n/a	n/a	n/a	n/a	n/a
2281138	PROB	n/a	LTP211	ltpFR	15	n/a	n/a	n/a	n/a	n/a	n/a	n/a	14	6	7	1	n/a	n/a	n/a	n/a	n/a
2282564	PROB	n/a	LTP211	ltpFR	15	n/a	n/a	n/a	n/a	n/a	n/a	n/a	22	5	8	7	n/a	n/a	n/a	n/a	n/a
2284099	PROB	n/a	LTP211	ltpFR	15	n/a	n/a	n/a	n/a	n/a	n/a	n/a	13	1	7	5	n/a	n/a	n/a	n/a	n/a
2286983	STOP	n/a	LTP211	ltpFR	15	n/a	n/a	n/a	n/a	n/a	n/a	n/a	n/a	n/a	n/a	n/a	n/a	n/a	n/a	n/a	n/a
2288319	WORD	wordpools/wasnorm_wordpool_less_exclusions.txt	LTP211	ltpFR	15	9	0	VALLEY	1545	n/a	n/a	1	n/a	0	0	0	0.57763671875	0.412841796875	1	lower	amplitud.ttf
2291331	START	n/a	LTP211	ltpFR	15	n/a	n/a	n/a	n/a	n/a	n/a	n/a	n/a	n/a	n/a	n/a	n/a	n/a	n/a	n/a	n/a
2292464	PROB	n/a	LTP211	ltpFR	15	n/a	n/a	n/a	n/a	n/a	n/a	n/a	15	7	2	6	n/a	n/a	n/a	n/a	n/a
2294773	PROB	n/a	LTP211	ltpFR	15	n/a	n/a	n/a	n/a	n/a	n/a	n/a	21	8	5	8	n/a	n/a	n/a	n/a	n/a
2296868	PROB	n/a	LTP211	ltpFR	15	n/a	n/a	n/a	n/a	n/a	n/a	n/a	10	5	4	1	n/a	n/a	n/a	n/a	n/a
2298437	PROB	n/a	LTP211	ltpFR	15	n/a	n/a	n/a	n/a	n/a	n/a	n/a	21	7	6	8	n/a	n/a	n/a	n/a	n/a
2302289	PROB	n/a	LTP211	ltpFR	15	n/a	n/a	n/a	n/a	n/a	n/a	n/a	13	6	2	5	n/a	n/a	n/a	n/a	n/a
2303656	PROB	n/a	LTP211	ltpFR	15	n/a	n/a	n/a	n/a	n/a	n/a	n/a	18	9	3	6	n/a	n/a	n/a	n/a	n/a
2305402	PROB	n/a	LTP211	ltpFR	15	n/a	n/a	n/a	n/a	n/a	n/a	n/a	14	5	8	1	n/a	n/a	n/a	n/a	n/a
2307183	STOP	n/a	LTP211	ltpFR	15	n/a	n/a	n/a	n/a	n/a	n/a	n/a	n/a	n/a	n/a	n/a	n/a	n/a	n/a	n/a	n/a
2308328	WORD	wordpools/wasnorm_wordpool_less_exclusions.txt	LTP211	ltpFR	15	9	0	DINER	467	n/a	n/a	1	n/a	0	0	0	0.57763671875	0.412841796875	1	lower	amplitud.ttf
2311341	START	n/a	LTP211	ltpFR	15	n/a	n/a	n/a	n/a	n/a	n/a	n/a	n/a	n/a	n/a	n/a	n/a	n/a	n/a	n/a	n/a
2312407	PROB	n/a	LTP211	ltpFR	15	n/a	n/a	n/a	n/a	n/a	n/a	n/a	19	5	5	9	n/a	n/a	n/a	n/a	n/a
2315501	PROB	n/a	LTP211	ltpFR	15	n/a	n/a	n/a	n/a	n/a	n/a	n/a	13	8	4	1	n/a	n/a	n/a	n/a	n/a
2317659	PROB	n/a	LTP211	ltpFR	15	n/a	n/a	n/a	n/a	n/a	n/a	n/a	11	5	1	5	n/a	n/a	n/a	n/a	n/a
2319035	PROB	n/a	LTP211	ltpFR	15	n/a	n/a	n/a	n/a	n/a	n/a	n/a	22	9	7	6	n/a	n/a	n/a	n/a	n/a
2322427	PROB	n/a	LTP211	ltpFR	15	n/a	n/a	n/a	n/a	n/a	n/a	n/a	20	4	8	8	n/a	n/a	n/a	n/a	n/a
2325593	PROB	n/a	LTP211	ltpFR	15	n/a	n/a	n/a	n/a	n/a	n/a	n/a	13	3	5	5	n/a	n/a	n/a	n/a	n/a
2326559	STOP	n/a	LTP211	ltpFR	15	n/a	n/a	n/a	n/a	n/a	n/a	n/a	n/a	n/a	n/a	n/a	n/a	n/a	n/a	n/a	n/a
2328437	WORD	wordpools/wasnorm_wordpool_less_exclusions.txt	LTP211	ltpFR	15	9	0	SERPENT	1270	n/a	n/a	1	n/a	0	0	0	0.57763671875	0.412841796875	1	lower	amplitud.ttf
2331449	START	n/a	LTP211	ltpFR	15	n/a	n/a	n/a	n/a	n/a	n/a	n/a	n/a	n/a	n/a	n/a	n/a	n/a	n/a	n/a	n/a
2332314	PROB	n/a	LTP211	ltpFR	15	n/a	n/a	n/a	n/a	n/a	n/a	n/a	23	5	9	9	n/a	n/a	n/a	n/a	n/a
2334790	PROB	n/a	LTP211	ltpFR	15	n/a	n/a	n/a	n/a	n/a	n/a	n/a	12	7	4	1	n/a	n/a	n/a	n/a	n/a
2336982	PROB	n/a	LTP211	ltpFR	15	n/a	n/a	n/a	n/a	n/a	n/a	n/a	15	5	3	7	n/a	n/a	n/a	n/a	n/a
2338437	PROB	n/a	LTP211	ltpFR	15	n/a	n/a	n/a	n/a	n/a	n/a	n/a	5	2	1	2	n/a	n/a	n/a	n/a	n/a
2339625	PROB	n/a	LTP211	ltpFR	15	n/a	n/a	n/a	n/a	n/a	n/a	n/a	18	9	5	4	n/a	n/a	n/a	n/a	n/a
2341081	PROB	n/a	LTP211	ltpFR	15	n/a	n/a	n/a	n/a	n/a	n/a	n/a	18	7	2	9	n/a	n/a	n/a	n/a	n/a
2342387	PROB	n/a	LTP211	ltpFR	15	n/a	n/a	n/a	n/a	n/a	n/a	n/a	17	7	2	8	n/a	n/a	n/a	n/a	n/a
2344075	PROB	n/a	LTP211	ltpFR	15	n/a	n/a	n/a	n/a	n/a	n/a	n/a	12	1	8	3	n/a	n/a	n/a	n/a	n/a
2346511	STOP	n/a	LTP211	ltpFR	15	n/a	n/a	n/a	n/a	n/a	n/a	n/a	n/a	n/a	n/a	n/a	n/a	n/a	n/a	n/a	n/a
2349397	REC_START	n/a	LTP211	ltpFR	15	9	n/a	n/a	n/a	n/a	n/a	n/a	n/a	0	0	0	n/a	n/a	n/a	n/a	n/a
2360586	REC_WORD	wordpools/wasnorm_wordpool_less_exclusions.txt	LTP211	ltpFR	15	9	0	TRAY	1498	n/a	n/a	1	n/a	0	0	0	n/a	n/a	n/a	n/a	n/a
2361369	REC_WORD	wordpools/wasnorm_wordpool_less_exclusions.txt	LTP211	ltpFR	15	9	0	PLAZA	1088	n/a	n/a	1	n/a	0	0	0	n/a	n/a	n/a	n/a	n/a
2362966	REC_WORD	wordpools/wasnorm_wordpool_less_exclusions.txt	LTP211	ltpFR	15	9	0	EDITOR	516	n/a	n/a	1	n/a	0	0	0	n/a	n/a	n/a	n/a	n/a
2365580	REC_WORD	wordpools/wasnorm_wordpool_less_exclusions.txt	LTP211	ltpFR	15	9	0	REPTILE	1185	n/a	n/a	1	n/a	0	0	0	n/a	n/a	n/a	n/a	n/a
2366842	REC_WORD	wordpools/wasnorm_wordpool_less_exclusions.txt	LTP211	ltpFR	15	9	0	TEAPOT	1442	n/a	n/a	0	n/a	0	0	0	n/a	n/a	n/a	n/a	n/a
2369192	REC_WORD	wordpools/wasnorm_wordpool_less_exclusions.txt	LTP211	ltpFR	15	9	0	BEVERAGE	123	n/a	n/a	0	n/a	0	0	0	n/a	n/a	n/a	n/a	n/a
2372165	REC_WORD	wordpools/wasnorm_wordpool_less_exclusions.txt	LTP211	ltpFR	15	9	0	SKIRT	1319	n/a	n/a	0	n/a	0	0	0	n/a	n/a	n/a	n/a	n/a
2373627	REC_WORD	wordpools/wasnorm_wordpool_less_exclusions.txt	LTP211	ltpFR	15	9	0	ROBE	1198	n/a	n/a	1	n/a	0	0	0	n/a	n/a	n/a	n/a	n/a
2374781	REC_WORD	wordpools/wasnorm_wordpool_less_exclusions.txt	LTP211	ltpFR	15	9	0	SEAFOOD	1260	n/a	n/a	1	n/a	0	0	0	n/a	n/a	n/a	n/a	n/a
2376390	REC_WORD	wordpools/wasnorm_wordpool_less_exclusions.txt	LTP211	ltpFR	15	9	0	PIER	1063	n/a	n/a	1	n/a	0	0	0	n/a	n/a	n/a	n/a	n/a
2377415	REC_WORD	wordpools/wasnorm_wordpool_less_exclusions.txt	LTP211	ltpFR	15	9	0	REPORT	1184	n/a	n/a	0	n/a	0	0	0	n/a	n/a	n/a	n/a	n/a
2378487	REC_WORD	wordpools/wasnorm_wordpool_less_exclusions.txt	LTP211	ltpFR	15	9	0	VENUS	1557	n/a	n/a	1	n/a	0	0	0	n/a	n/a	n/a	n/a	n/a
2379560	REC_WORD	wordpools/wasnorm_wordpool_less_exclusions.txt	LTP211	ltpFR	15	9	0	EARTH	515	n/a	n/a	1	n/a	0	0	0	n/a	n/a	n/a	n/a	n/a
2380416	REC_WORD	wordpools/wasnorm_wordpool_less_exclusions.txt	LTP211	ltpFR	15	9	0	VALLEY	1545	n/a	n/a	1	n/a	0	0	0	n/a	n/a	n/a	n/a	n/a
2381344	REC_WORD	wordpools/wasnorm_wordpool_less_exclusions.txt	LTP211	ltpFR	15	9	0	DINER	467	n/a	n/a	1	n/a	0	0	0	n/a	n/a	n/a	n/a	n/a
2382448	REC_WORD	wordpools/wasnorm_wordpool_less_exclusions.txt	LTP211	ltpFR	15	9	0	SERPENT	1270	n/a	n/a	1	n/a	0	0	0	n/a	n/a	n/a	n/a	n/a
2430886	WORD	wordpools/wasnorm_wordpool_less_exclusions.txt	LTP211	ltpFR	15	10	1	SCARECROW	1245	n/a	n/a	0	n/a	0	0	0	0.422607421875	0.5869140625	0	upper	zerothre.ttf
2435039	WORD	wordpools/wasnorm_wordpool_less_exclusions.txt	LTP211	ltpFR	15	10	1	BUFFALO	186	n/a	n/a	1	n/a	0	0	0	0.422607421875	0.5869140625	0	upper	zerothre.ttf
2439121	WORD	wordpools/wasnorm_wordpool_less_exclusions.txt	LTP211	ltpFR	15	10	0	SCALLOP	1242	n/a	n/a	0	n/a	0	0	0	0.57763671875	0.412841796875	1	lower	amplitud.ttf
2443232	WORD	wordpools/wasnorm_wordpool_less_exclusions.txt	LTP211	ltpFR	15	10	0	BEAN	105	n/a	n/a	0	n/a	0	0	0	0.57763671875	0.412841796875	1	lower	amplitud.ttf
2447387	WORD	wordpools/wasnorm_wordpool_less_exclusions.txt	LTP211	ltpFR	15	10	0	DISC	473	n/a	n/a	0	n/a	0	0	0	0.57763671875	0.412841796875	1	lower	amplitud.ttf
2451518	WORD	wordpools/wasnorm_wordpool_less_exclusions.txt	LTP211	ltpFR	15	10	0	SCREEN	1253	n/a	n/a	1	n/a	0	0	0	0.57763671875	0.412841796875	1	lower	amplitud.ttf
2455717	WORD	wordpools/wasnorm_wordpool_less_exclusions.txt	LTP211	ltpFR	15	10	0	PRODUCER	1129	n/a	n/a	1	n/a	0	0	0	0.57763671875	0.412841796875	1	lower	amplitud.ttf
2459648	WORD	wordpools/wasnorm_wordpool_less_exclusions.txt	LTP211	ltpFR	15	10	1	TOMATO	1476	n/a	n/a	0	n/a	0	0	0	0.422607421875	0.5869140625	0	upper	zerothre.ttf
2463647	WORD	wordpools/wasnorm_wordpool_less_exclusions.txt	LTP211	ltpFR	15	10	1	CREEK	404	n/a	n/a	0	n/a	0	0	0	0.422607421875	0.5869140625	0	upper	zerothre.ttf
2467662	WORD	wordpools/wasnorm_wordpool_less_exclusions.txt	LTP211	ltpFR	15	10	0	OZONE	996	n/a	n/a	0	n/a	0	0	0	0.57763671875	0.412841796875	1	lower	amplitud.ttf
2471857	WORD	wordpools/wasnorm_wordpool_less_exclusions.txt	LTP211	ltpFR	15	10	0	GIRAFFE	636	n/a	n/a	1	n/a	0	0	0	0.57763671875	0.412841796875	1	lower	amplitud.ttf
2475960	WORD	wordpools/wasnorm_wordpool_less_exclusions.txt	LTP211	ltpFR	15	10	0	OX	994	n/a	n/a	1	n/a	0	0	0	0.57763671875	0.412841796875	1	lower	amplitud.ttf
2479808	WORD	wordpools/wasnorm_wordpool_less_exclusions.txt	LTP211	ltpFR	15	10	1	BADGE	68	n/a	n/a	0	n/a	0	0	0	0.422607421875	0.5869140625	0	upper	zerothre.ttf
2483656	WORD	wordpools/wasnorm_wordpool_less_exclusions.txt	LTP211	ltpFR	15	10	1	ALBUM	14	n/a	n/a	0	n/a	0	0	0	0.422607421875	0.5869140625	0	upper	zerothre.ttf
2487817	WORD	wordpools/wasnorm_wordpool_less_exclusions.txt	LTP211	ltpFR	15	10	1	POOL	1103	n/a	n/a	0	n/a	0	0	0	0.422607421875	0.5869140625	0	upper	zerothre.ttf
2491836	WORD	wordpools/wasnorm_wordpool_less_exclusions.txt	LTP211	ltpFR	15	10	1	SCARF	1246	n/a	n/a	0	n/a	0	0	0	0.422607421875	0.5869140625	0	upper	zerothre.ttf
2494848	START	n/a	LTP211	ltpFR	15	n/a	n/a	n/a	n/a	n/a	n/a	n/a	n/a	n/a	n/a	n/a	n/a	n/a	n/a	n/a	n/a
2496015	PROB	n/a	LTP211	ltpFR	15	n/a	n/a	n/a	n/a	n/a	n/a	n/a	19	5	9	5	n/a	n/a	n/a	n/a	n/a
2497671	PROB	n/a	LTP211	ltpFR	15	n/a	n/a	n/a	n/a	n/a	n/a	n/a	10	1	5	4	n/a	n/a	n/a	n/a	n/a
2499177	PROB	n/a	LTP211	ltpFR	15	n/a	n/a	n/a	n/a	n/a	n/a	n/a	11	2	8	1	n/a	n/a	n/a	n/a	n/a
2500716	PROB	n/a	LTP211	ltpFR	15	n/a	n/a	n/a	n/a	n/a	n/a	n/a	22	9	7	7	n/a	n/a	n/a	n/a	n/a
2502368	STOP	n/a	LTP211	ltpFR	15	n/a	n/a	n/a	n/a	n/a	n/a	n/a	n/a	n/a	n/a	n/a	n/a	n/a	n/a	n/a	n/a
2504732	REC_START	n/a	LTP211	ltpFR	15	10	n/a	n/a	n/a	n/a	n/a	n/a	n/a	0	0	0	n/a	n/a	n/a	n/a	n/a
2508104	REC_WORD	wordpools/wasnorm_wordpool_less_exclusions.txt	LTP211	ltpFR	15	10	1	SCARECROW	1245	n/a	n/a	0	n/a	0	0	0	n/a	n/a	n/a	n/a	n/a
2509386	REC_WORD	wordpools/wasnorm_wordpool_less_exclusions.txt	LTP211	ltpFR	15	10	1	BUFFALO	186	n/a	n/a	1	n/a	0	0	0	n/a	n/a	n/a	n/a	n/a
2510244	REC_WORD	wordpools/wasnorm_wordpool_less_exclusions.txt	LTP211	ltpFR	15	10	0	SCALLOP	1242	n/a	n/a	0	n/a	0	0	0	n/a	n/a	n/a	n/a	n/a
2511442	REC_WORD	wordpools/wasnorm_wordpool_less_exclusions.txt	LTP211	ltpFR	15	10	0	BEAN	105	n/a	n/a	0	n/a	0	0	0	n/a	n/a	n/a	n/a	n/a
2512454	REC_WORD	wordpools/wasnorm_wordpool_less_exclusions.txt	LTP211	ltpFR	15	10	0	DISC	473	n/a	n/a	0	n/a	0	0	0	n/a	n/a	n/a	n/a	n/a
2513498	REC_WORD	wordpools/wasnorm_wordpool_less_exclusions.txt	LTP211	ltpFR	15	10	0	SCREEN	1253	n/a	n/a	1	n/a	0	0	0	n/a	n/a	n/a	n/a	n/a
2514952	REC_WORD	wordpools/wasnorm_wordpool_less_exclusions.txt	LTP211	ltpFR	15	10	0	PRODUCER	1129	n/a	n/a	1	n/a	0	0	0	n/a	n/a	n/a	n/a	n/a
2515951	REC_WORD	wordpools/wasnorm_wordpool_less_exclusions.txt	LTP211	ltpFR	15	10	1	TOMATO	1476	n/a	n/a	0	n/a	0	0	0	n/a	n/a	n/a	n/a	n/a
2520062	REC_WORD	wordpools/wasnorm_wordpool_less_exclusions.txt	LTP211	ltpFR	15	10	1	CREEK	404	n/a	n/a	0	n/a	0	0	0	n/a	n/a	n/a	n/a	n/a
2521603	REC_WORD	wordpools/wasnorm_wordpool_less_exclusions.txt	LTP211	ltpFR	15	10	0	OZONE	996	n/a	n/a	0	n/a	0	0	0	n/a	n/a	n/a	n/a	n/a
2523699	REC_WORD	wordpools/wasnorm_wordpool_less_exclusions.txt	LTP211	ltpFR	15	10	0	GIRAFFE	636	n/a	n/a	1	n/a	0	0	0	n/a	n/a	n/a	n/a	n/a
2525649	REC_WORD	wordpools/wasnorm_wordpool_less_exclusions.txt	LTP211	ltpFR	15	10	0	OX	994	n/a	n/a	1	n/a	0	0	0	n/a	n/a	n/a	n/a	n/a
2528432	REC_WORD	wordpools/wasnorm_wordpool_less_exclusions.txt	LTP211	ltpFR	15	10	1	POOL	1103	n/a	n/a	0	n/a	0	0	0	n/a	n/a	n/a	n/a	n/a
2529240	REC_WORD	wordpools/wasnorm_wordpool_less_exclusions.txt	LTP211	ltpFR	15	10	1	SCARF	1246	n/a	n/a	0	n/a	0	0	0	n/a	n/a	n/a	n/a	n/a
2552264	REC_WORD	wordpools/wasnorm_wordpool_less_exclusions.txt	LTP211	ltpFR	15	10	1	ALBUM	14	n/a	n/a	0	n/a	0	0	0	n/a	n/a	n/a	n/a	n/a
2559253	REC_WORD	wordpools/wasnorm_wordpool_less_exclusions.txt	LTP211	ltpFR	15	10	1	BADGE	68	n/a	n/a	0	n/a	0	0	0	n/a	n/a	n/a	n/a	n/a
2580371	REST_REWET	n/a	LTP211	ltpFR	15	10	n/a	n/a	n/a	n/a	n/a	n/a	n/a	0	0	0	n/a	n/a	n/a	n/a	n/a
2754192	START	n/a	LTP211	ltpFR	15	n/a	n/a	n/a	n/a	n/a	n/a	n/a	n/a	n/a	n/a	n/a	n/a	n/a	n/a	n/a	n/a
2755710	PROB	n/a	LTP211	ltpFR	15	n/a	n/a	n/a	n/a	n/a	n/a	n/a	16	9	2	5	n/a	n/a	n/a	n/a	n/a
2757651	PROB	n/a	LTP211	ltpFR	15	n/a	n/a	n/a	n/a	n/a	n/a	n/a	12	4	3	5	n/a	n/a	n/a	n/a	n/a
2759106	PROB	n/a	LTP211	ltpFR	15	n/a	n/a	n/a	n/a	n/a	n/a	n/a	12	2	3	7	n/a	n/a	n/a	n/a	n/a
2760631	STOP	n/a	LTP211	ltpFR	15	n/a	n/a	n/a	n/a	n/a	n/a	n/a	n/a	n/a	n/a	n/a	n/a	n/a	n/a	n/a	n/a
2763209	WORD	wordpools/wasnorm_wordpool_less_exclusions.txt	LTP211	ltpFR	15	11	1	MINT	898	n/a	n/a	0	n/a	0	0	0	0.422607421875	0.5869140625	0	upper	zerothre.ttf
2766221	START	n/a	LTP211	ltpFR	15	n/a	n/a	n/a	n/a	n/a	n/a	n/a	n/a	n/a	n/a	n/a	n/a	n/a	n/a	n/a	n/a
2767170	PROB	n/a	LTP211	ltpFR	15	n/a	n/a	n/a	n/a	n/a	n/a	n/a	16	6	7	4	n/a	n/a	n/a	n/a	n/a
2768843	PROB	n/a	LTP211	ltpFR	15	n/a	n/a	n/a	n/a	n/a	n/a	n/a	16	5	9	2	n/a	n/a	n/a	n/a	n/a
2770436	PROB	n/a	LTP211	ltpFR	15	n/a	n/a	n/a	n/a	n/a	n/a	n/a	12	3	1	8	n/a	n/a	n/a	n/a	n/a
2774221	STOP	n/a	LTP211	ltpFR	15	n/a	n/a	n/a	n/a	n/a	n/a	n/a	n/a	n/a	n/a	n/a	n/a	n/a	n/a	n/a	n/a
