mstime	trial_type	stim_file	subject	experiment	session	trial	item_name	item_num	list	answer	test_x	test_y	test_z
0	SESS_START	n/a	LTP259	ltpFR2	10	n/a	n/a	n/a	n/a	n/a	0	0	0
13413	START	n/a	LTP259	ltpFR2	10	n/a	n/a	n/a	-1	n/a	n/a	n/a	n/a
13463	PROB	n/a	LTP259	ltpFR2	10	n/a	n/a	n/a	-1	9	1	7	1
15303	PROB	n/a	LTP259	ltpFR2	10	n/a	n/a	n/a	-1	6	1	1	4
16642	PROB	n/a	LTP259	ltpFR2	10	n/a	n/a	n/a	-1	18	9	2	7
19569	PROB	n/a	LTP259	ltpFR2	10	n/a	n/a	n/a	-1	17	2	8	7
21610	PROB	n/a	LTP259	ltpFR2	10	n/a	n/a	n/a	-1	11	1	1	9
22798	PROB	n/a	LTP259	ltpFR2	10	n/a	n/a	n/a	-1	18	2	9	9
24367	STOP	n/a	LTP259	ltpFR2	10	n/a	n/a	n/a	-1	n/a	n/a	n/a	n/a
56928	WORD	wordpools/wasnorm_wordpool_576.txt	LTP259	ltpFR2	10	1	FLIPPER	580	n/a	n/a	0	0	0
59465	WORD	wordpools/wasnorm_wordpool_576.txt	LTP259	ltpFR2	10	1	ROCKET	1202	n/a	n/a	0	0	0
62181	WORD	wordpools/wasnorm_wordpool_576.txt	LTP259	ltpFR2	10	1	STAMP	1370	n/a	n/a	0	0	0
64723	WORD	wordpools/wasnorm_wordpool_576.txt	LTP259	ltpFR2	10	1	RUG	1215	n/a	n/a	0	0	0
67400	WORD	wordpools/wasnorm_wordpool_576.txt	LTP259	ltpFR2	10	1	TROUT	1511	n/a	n/a	0	0	0
69893	WORD	wordpools/wasnorm_wordpool_576.txt	LTP259	ltpFR2	10	1	TEACHER	1440	n/a	n/a	0	0	0
72603	WORD	wordpools/wasnorm_wordpool_576.txt	LTP259	ltpFR2	10	1	COURSE	390	n/a	n/a	0	0	0
75396	WORD	wordpools/wasnorm_wordpool_576.txt	LTP259	ltpFR2	10	1	MONSTER	912	n/a	n/a	0	0	0
78103	WORD	wordpools/wasnorm_wordpool_576.txt	LTP259	ltpFR2	10	1	RABBIT	1152	n/a	n/a	0	0	0
80578	WORD	wordpools/wasnorm_wordpool_576.txt	LTP259	ltpFR2	10	1	FOREST	593	n/a	n/a	0	0	0
83060	WORD	wordpools/wasnorm_wordpool_576.txt	LTP259	ltpFR2	10	1	MAPLE	866	n/a	n/a	0	0	0
85652	WORD	wordpools/wasnorm_wordpool_576.txt	LTP259	ltpFR2	10	1	DANDRUFF	439	n/a	n/a	0	0	0
88228	WORD	wordpools/wasnorm_wordpool_576.txt	LTP259	ltpFR2	10	1	FREEZER	604	n/a	n/a	0	0	0
90889	WORD	wordpools/wasnorm_wordpool_576.txt	LTP259	ltpFR2	10	1	BUNNY	198	n/a	n/a	0	0	0
93493	WORD	wordpools/wasnorm_wordpool_576.txt	LTP259	ltpFR2	10	1	HIGHWAY	707	n/a	n/a	0	0	0
96275	WORD	wordpools/wasnorm_wordpool_576.txt	LTP259	ltpFR2	10	1	STAKE	1368	n/a	n/a	0	0	0
98763	WORD	wordpools/wasnorm_wordpool_576.txt	LTP259	ltpFR2	10	1	GUITAR	670	n/a	n/a	0	0	0
101445	WORD	wordpools/wasnorm_wordpool_576.txt	LTP259	ltpFR2	10	1	BINDER	127	n/a	n/a	0	0	0
104139	WORD	wordpools/wasnorm_wordpool_576.txt	LTP259	ltpFR2	10	1	SHELF	1280	n/a	n/a	0	0	0
106676	WORD	wordpools/wasnorm_wordpool_576.txt	LTP259	ltpFR2	10	1	LAVA	804	n/a	n/a	0	0	0
109175	WORD	wordpools/wasnorm_wordpool_576.txt	LTP259	ltpFR2	10	1	PEPPER	1047	n/a	n/a	0	0	0
111700	WORD	wordpools/wasnorm_wordpool_576.txt	LTP259	ltpFR2	10	1	SPACE	1345	n/a	n/a	0	0	0
114122	WORD	wordpools/wasnorm_wordpool_576.txt	LTP259	ltpFR2	10	1	QUAIL	1147	n/a	n/a	0	0	0
116652	WORD	wordpools/wasnorm_wordpool_576.txt	LTP259	ltpFR2	10	1	TRUCK	1512	n/a	n/a	0	0	0
118258	START	n/a	LTP259	ltpFR2	10	n/a	n/a	n/a	1	n/a	n/a	n/a	n/a
119069	DISTRACTOR	n/a	LTP259	ltpFR2	10	1	n/a	n/a	n/a	n/a	0	0	0
119079	PROB	n/a	LTP259	ltpFR2	10	n/a	n/a	n/a	1	10	4	5	1
121019	PROB	n/a	LTP259	ltpFR2	10	n/a	n/a	n/a	1	18	9	8	1
122357	PROB	n/a	LTP259	ltpFR2	10	n/a	n/a	n/a	1	12	5	2	5
123914	PROB	n/a	LTP259	ltpFR2	10	n/a	n/a	n/a	1	13	1	5	7
126740	PROB	n/a	LTP259	ltpFR2	10	n/a	n/a	n/a	1	8	1	5	2
128079	PROB	n/a	LTP259	ltpFR2	10	n/a	n/a	n/a	1	9	2	6	1
129484	PROB	n/a	LTP259	ltpFR2	10	n/a	n/a	n/a	1	13	4	4	5
132998	PROB	n/a	LTP259	ltpFR2	10	n/a	n/a	n/a	1	12	1	3	8
135356	PROB	n/a	LTP259	ltpFR2	10	n/a	n/a	n/a	1	17	8	8	1
137347	PROB	n/a	LTP259	ltpFR2	10	n/a	n/a	n/a	1	12	7	3	2
138752	PROB	n/a	LTP259	ltpFR2	10	n/a	n/a	n/a	1	23	8	8	7
142258	STOP	n/a	LTP259	ltpFR2	10	n/a	n/a	n/a	1	n/a	n/a	n/a	n/a
144124	REC_START	n/a	LTP259	ltpFR2	10	1	n/a	n/a	n/a	n/a	0	0	0
146193	REC_WORD	wordpools/wasnorm_wordpool_576.txt	LTP259	ltpFR2	10	1	PEPPER	1047	n/a	n/a	0	0	0
146887	REC_WORD	wordpools/wasnorm_wordpool_576.txt	LTP259	ltpFR2	10	1	TRUCK	1512	n/a	n/a	0	0	0
147618	REC_WORD	wordpools/wasnorm_wordpool_576.txt	LTP259	ltpFR2	10	1	QUAIL	1147	n/a	n/a	0	0	0
150138	REC_WORD	wordpools/wasnorm_wordpool_576.txt	LTP259	ltpFR2	10	1	LAVA	804	n/a	n/a	0	0	0
150983	REC_WORD	wordpools/wasnorm_wordpool_576.txt	LTP259	ltpFR2	10	1	FLIPPER	580	n/a	n/a	0	0	0
153132	REC_WORD	wordpools/wasnorm_wordpool_576.txt	LTP259	ltpFR2	10	1	ROCKET	1202	n/a	n/a	0	0	0
153738	REC_WORD	wordpools/wasnorm_wordpool_576.txt	LTP259	ltpFR2	10	1	STAMP	1370	n/a	n/a	0	0	0
154364	REC_WORD	wordpools/wasnorm_wordpool_576.txt	LTP259	ltpFR2	10	1	RUG	1215	n/a	n/a	0	0	0
155060	REC_WORD	wordpools/wasnorm_wordpool_576.txt	LTP259	ltpFR2	10	1	TEACHER	1440	n/a	n/a	0	0	0
155766	REC_WORD	wordpools/wasnorm_wordpool_576.txt	LTP259	ltpFR2	10	1	COURSE	390	n/a	n/a	0	0	0
159509	REC_WORD	wordpools/wasnorm_wordpool_576.txt	LTP259	ltpFR2	10	1	FOREST	593	n/a	n/a	0	0	0
162343	REC_WORD	wordpools/wasnorm_wordpool_576.txt	LTP259	ltpFR2	10	1	RABBIT	1152	n/a	n/a	0	0	0
163030	REC_WORD	wordpools/wasnorm_wordpool_576.txt	LTP259	ltpFR2	10	1	STAKE	1368	n/a	n/a	0	0	0
164878	REC_WORD	wordpools/wasnorm_wordpool_576.txt	LTP259	ltpFR2	10	1	GUITAR	670	n/a	n/a	0	0	0
170259	REC_WORD	wordpools/wasnorm_wordpool_576.txt	LTP259	ltpFR2	10	1	MONSTER	912	n/a	n/a	0	0	0
178633	REC_WORD	wordpools/wasnorm_wordpool_576.txt	LTP259	ltpFR2	10	1	HIGHWAY	707	n/a	n/a	0	0	0
190836	REC_WORD	wordpools/wasnorm_wordpool_576.txt	LTP259	ltpFR2	10	1	LAVA	804	n/a	n/a	0	0	0
194800	REC_WORD	wordpools/wasnorm_wordpool_576.txt	LTP259	ltpFR2	10	1	SPACE	1345	n/a	n/a	0	0	0
199256	REC_WORD	wordpools/wasnorm_wordpool_576.txt	LTP259	ltpFR2	10	1	SHELF	1280	n/a	n/a	0	0	0
235150	DISTRACTOR	n/a	LTP259	ltpFR2	10	2	n/a	n/a	n/a	n/a	0	0	0
235150	START	n/a	LTP259	ltpFR2	10	n/a	n/a	n/a	2	n/a	n/a	n/a	n/a
235200	PROB	n/a	LTP259	ltpFR2	10	n/a	n/a	n/a	2	16	9	5	2
237169	PROB	n/a	LTP259	ltpFR2	10	n/a	n/a	n/a	2	16	1	8	7
238926	PROB	n/a	LTP259	ltpFR2	10	n/a	n/a	n/a	2	11	1	8	2
240230	PROB	n/a	LTP259	ltpFR2	10	n/a	n/a	n/a	2	17	3	9	5
242176	PROB	n/a	LTP259	ltpFR2	10	n/a	n/a	n/a	2	14	5	7	2
244383	PROB	n/a	LTP259	ltpFR2	10	n/a	n/a	n/a	2	14	2	6	6
245890	PROB	n/a	LTP259	ltpFR2	10	n/a	n/a	n/a	2	12	6	5	1
247591	PROB	n/a	LTP259	ltpFR2	10	n/a	n/a	n/a	2	5	3	1	1
248762	PROB	n/a	LTP259	ltpFR2	10	n/a	n/a	n/a	2	12	6	2	4
250389	PROB	n/a	LTP259	ltpFR2	10	n/a	n/a	n/a	2	16	8	1	7
252176	PROB	n/a	LTP259	ltpFR2	10	n/a	n/a	n/a	2	10	7	2	1
253647	PROB	n/a	LTP259	ltpFR2	10	n/a	n/a	n/a	2	3	1	1	1
254684	PROB	n/a	LTP259	ltpFR2	10	n/a	n/a	n/a	2	26	9	8	9
256340	PROB	n/a	LTP259	ltpFR2	10	n/a	n/a	n/a	2	11	5	1	5
259149	STOP	n/a	LTP259	ltpFR2	10	n/a	n/a	n/a	2	n/a	n/a	n/a	n/a
260010	WORD	wordpools/wasnorm_wordpool_576.txt	LTP259	ltpFR2	10	2	AIRPORT	13	n/a	n/a	0	0	0
262648	WORD	wordpools/wasnorm_wordpool_576.txt	LTP259	ltpFR2	10	2	CAMEL	223	n/a	n/a	0	0	0
265079	WORD	wordpools/wasnorm_wordpool_576.txt	LTP259	ltpFR2	10	2	COIN	343	n/a	n/a	0	0	0
267521	WORD	wordpools/wasnorm_wordpool_576.txt	LTP259	ltpFR2	10	2	FRANCE	601	n/a	n/a	0	0	0
270214	WORD	wordpools/wasnorm_wordpool_576.txt	LTP259	ltpFR2	10	2	SUPPER	1411	n/a	n/a	0	0	0
272640	WORD	wordpools/wasnorm_wordpool_576.txt	LTP259	ltpFR2	10	2	PLATE	1086	n/a	n/a	0	0	0
275396	WORD	wordpools/wasnorm_wordpool_576.txt	LTP259	ltpFR2	10	2	SNACK	1331	n/a	n/a	0	0	0
278178	WORD	wordpools/wasnorm_wordpool_576.txt	LTP259	ltpFR2	10	2	HORNET	718	n/a	n/a	0	0	0
280849	WORD	wordpools/wasnorm_wordpool_576.txt	LTP259	ltpFR2	10	2	SPOOL	1356	n/a	n/a	0	0	0
283648	WORD	wordpools/wasnorm_wordpool_576.txt	LTP259	ltpFR2	10	2	SKIRT	1319	n/a	n/a	0	0	0
286070	WORD	wordpools/wasnorm_wordpool_576.txt	LTP259	ltpFR2	10	2	WORKER	1621	n/a	n/a	0	0	0
288869	WORD	wordpools/wasnorm_wordpool_576.txt	LTP259	ltpFR2	10	2	MOP	916	n/a	n/a	0	0	0
291478	WORD	wordpools/wasnorm_wordpool_576.txt	LTP259	ltpFR2	10	2	DENIM	446	n/a	n/a	0	0	0
294255	WORD	wordpools/wasnorm_wordpool_576.txt	LTP259	ltpFR2	10	2	MUMMY	932	n/a	n/a	0	0	0
296916	WORD	wordpools/wasnorm_wordpool_576.txt	LTP259	ltpFR2	10	2	GIRL	637	n/a	n/a	0	0	0
299491	WORD	wordpools/wasnorm_wordpool_576.txt	LTP259	ltpFR2	10	2	BOX	159	n/a	n/a	0	0	0
302247	WORD	wordpools/wasnorm_wordpool_576.txt	LTP259	ltpFR2	10	2	COOK	372	n/a	n/a	0	0	0
304694	WORD	wordpools/wasnorm_wordpool_576.txt	LTP259	ltpFR2	10	2	BANK	83	n/a	n/a	0	0	0
307304	WORD	wordpools/wasnorm_wordpool_576.txt	LTP259	ltpFR2	10	2	ROOSTER	1209	n/a	n/a	0	0	0
309730	WORD	wordpools/wasnorm_wordpool_576.txt	LTP259	ltpFR2	10	2	SPHINX	1349	n/a	n/a	0	0	0
312272	WORD	wordpools/wasnorm_wordpool_576.txt	LTP259	ltpFR2	10	2	POCKET	1093	n/a	n/a	0	0	0
314900	WORD	wordpools/wasnorm_wordpool_576.txt	LTP259	ltpFR2	10	2	NOVEL	960	n/a	n/a	0	0	0
317705	WORD	wordpools/wasnorm_wordpool_576.txt	LTP259	ltpFR2	10	2	AUTHOR	61	n/a	n/a	0	0	0
320386	WORD	wordpools/wasnorm_wordpool_576.txt	LTP259	ltpFR2	10	2	GRIZZLY	662	n/a	n/a	0	0	0
321994	START	n/a	LTP259	ltpFR2	10	n/a	n/a	n/a	3	n/a	n/a	n/a	n/a
322858	DISTRACTOR	n/a	LTP259	ltpFR2	10	2	n/a	n/a	n/a	n/a	0	0	0
322876	PROB	n/a	LTP259	ltpFR2	10	n/a	n/a	n/a	3	11	8	1	2
324770	PROB	n/a	LTP259	ltpFR2	10	n/a	n/a	n/a	3	17	5	7	5
326526	PROB	n/a	LTP259	ltpFR2	10	n/a	n/a	n/a	3	21	5	8	8
329655	PROB	n/a	LTP259	ltpFR2	10	n/a	n/a	n/a	3	6	2	1	3
331423	PROB	n/a	LTP259	ltpFR2	10	n/a	n/a	n/a	3	13	9	1	3
332695	PROB	n/a	LTP259	ltpFR2	10	n/a	n/a	n/a	3	11	1	1	9
333884	PROB	n/a	LTP259	ltpFR2	10	n/a	n/a	n/a	3	16	5	4	7
335790	PROB	n/a	LTP259	ltpFR2	10	n/a	n/a	n/a	3	16	2	9	5
337245	PROB	n/a	LTP259	ltpFR2	10	n/a	n/a	n/a	3	15	3	6	6
338903	PROB	n/a	LTP259	ltpFR2	10	n/a	n/a	n/a	3	16	7	3	6
340278	PROB	n/a	LTP259	ltpFR2	10	n/a	n/a	n/a	3	4	1	1	2
341461	PROB	n/a	LTP259	ltpFR2	10	n/a	n/a	n/a	3	22	8	7	7
343073	PROB	n/a	LTP259	ltpFR2	10	n/a	n/a	n/a	3	16	3	4	9
345912	STOP	n/a	LTP259	ltpFR2	10	n/a	n/a	n/a	3	n/a	n/a	n/a	n/a
347786	REC_START	n/a	LTP259	ltpFR2	10	2	n/a	n/a	n/a	n/a	0	0	0
349344	REC_WORD	wordpools/wasnorm_wordpool_576.txt	LTP259	ltpFR2	10	2	ROCKET	1202	n/a	n/a	0	0	0
350207	REC_WORD	wordpools/wasnorm_wordpool_576.txt	LTP259	ltpFR2	10	2	POCKET	1093	n/a	n/a	0	0	0
352873	REC_WORD	wordpools/wasnorm_wordpool_576.txt	LTP259	ltpFR2	10	2	AIRPORT	13	n/a	n/a	0	0	0
353563	REC_WORD	wordpools/wasnorm_wordpool_576.txt	LTP259	ltpFR2	10	2	CAMEL	223	n/a	n/a	0	0	0
354318	REC_WORD	wordpools/wasnorm_wordpool_576.txt	LTP259	ltpFR2	10	2	COIN	343	n/a	n/a	0	0	0
358301	REC_WORD	wordpools/wasnorm_wordpool_576.txt	LTP259	ltpFR2	10	2	PLATE	1086	n/a	n/a	0	0	0
359664	REC_WORD	wordpools/wasnorm_wordpool_576.txt	LTP259	ltpFR2	10	2	SNACK	1331	n/a	n/a	0	0	0
362569	REC_WORD	wordpools/wasnorm_wordpool_576.txt	LTP259	ltpFR2	10	2	FRANCE	601	n/a	n/a	0	0	0
363280	REC_WORD	wordpools/wasnorm_wordpool_576.txt	LTP259	ltpFR2	10	2	PARIS	1014	n/a	n/a	0	0	0
366225	REC_WORD	wordpools/wasnorm_wordpool_576.txt	LTP259	ltpFR2	10	2	DENIM	446	n/a	n/a	0	0	0
366732	REC_WORD	wordpools/wasnorm_wordpool_576.txt	LTP259	ltpFR2	10	2	WORKER	1621	n/a	n/a	0	0	0
367251	REC_WORD	wordpools/wasnorm_wordpool_576.txt	LTP259	ltpFR2	10	2	SKIRT	1319	n/a	n/a	0	0	0
368760	REC_WORD	wordpools/wasnorm_wordpool_576.txt	LTP259	ltpFR2	10	2	MOP	916	n/a	n/a	0	0	0
438833	WORD	wordpools/wasnorm_wordpool_576.txt	LTP259	ltpFR2	10	3	MARS	873	n/a	n/a	0	0	0
441459	WORD	wordpools/wasnorm_wordpool_576.txt	LTP259	ltpFR2	10	3	BELLY	119	n/a	n/a	0	0	0
444070	WORD	wordpools/wasnorm_wordpool_576.txt	LTP259	ltpFR2	10	3	ULCER	1533	n/a	n/a	0	0	0
446758	WORD	wordpools/wasnorm_wordpool_576.txt	LTP259	ltpFR2	10	3	SHOVEL	1295	n/a	n/a	0	0	0
449439	WORD	wordpools/wasnorm_wordpool_576.txt	LTP259	ltpFR2	10	3	RATTLE	1170	n/a	n/a	0	0	0
451912	WORD	wordpools/wasnorm_wordpool_576.txt	LTP259	ltpFR2	10	3	UMPIRE	1535	n/a	n/a	0	0	0
454676	WORD	wordpools/wasnorm_wordpool_576.txt	LTP259	ltpFR2	10	3	LONDON	843	n/a	n/a	0	0	0
457252	WORD	wordpools/wasnorm_wordpool_576.txt	LTP259	ltpFR2	10	3	HUSBAND	728	n/a	n/a	0	0	0
459959	WORD	wordpools/wasnorm_wordpool_576.txt	LTP259	ltpFR2	10	3	TRACTOR	1493	n/a	n/a	0	0	0
462472	WORD	wordpools/wasnorm_wordpool_576.txt	LTP259	ltpFR2	10	3	COBRA	336	n/a	n/a	0	0	0
465100	WORD	wordpools/wasnorm_wordpool_576.txt	LTP259	ltpFR2	10	3	PISTON	1076	n/a	n/a	0	0	0
467758	WORD	wordpools/wasnorm_wordpool_576.txt	LTP259	ltpFR2	10	3	FARMER	553	n/a	n/a	0	0	0
470536	WORD	wordpools/wasnorm_wordpool_576.txt	LTP259	ltpFR2	10	3	DAISY	435	n/a	n/a	0	0	0
472979	WORD	wordpools/wasnorm_wordpool_576.txt	LTP259	ltpFR2	10	3	PORTRAIT	1111	n/a	n/a	0	0	0
475504	WORD	wordpools/wasnorm_wordpool_576.txt	LTP259	ltpFR2	10	3	AWARD	63	n/a	n/a	0	0	0
478060	WORD	wordpools/wasnorm_wordpool_576.txt	LTP259	ltpFR2	10	3	DENTIST	447	n/a	n/a	0	0	0
480523	WORD	wordpools/wasnorm_wordpool_576.txt	LTP259	ltpFR2	10	3	KIDNEY	776	n/a	n/a	0	0	0
483334	WORD	wordpools/wasnorm_wordpool_576.txt	LTP259	ltpFR2	10	3	TRANSPLANT	1496	n/a	n/a	0	0	0
485995	WORD	wordpools/wasnorm_wordpool_576.txt	LTP259	ltpFR2	10	3	BISON	131	n/a	n/a	0	0	0
488721	WORD	wordpools/wasnorm_wordpool_576.txt	LTP259	ltpFR2	10	3	PLUTO	1092	n/a	n/a	0	0	0
491242	WORD	wordpools/wasnorm_wordpool_576.txt	LTP259	ltpFR2	10	3	GUARD	667	n/a	n/a	0	0	0
493740	WORD	wordpools/wasnorm_wordpool_576.txt	LTP259	ltpFR2	10	3	BULLET	194	n/a	n/a	0	0	0
496467	WORD	wordpools/wasnorm_wordpool_576.txt	LTP259	ltpFR2	10	3	DIME	466	n/a	n/a	0	0	0
499178	WORD	wordpools/wasnorm_wordpool_576.txt	LTP259	ltpFR2	10	3	TRENCH	1503	n/a	n/a	0	0	0
500795	START	n/a	LTP259	ltpFR2	10	n/a	n/a	n/a	4	n/a	n/a	n/a	n/a
501844	DISTRACTOR	n/a	LTP259	ltpFR2	10	3	n/a	n/a	n/a	n/a	0	0	0
501854	PROB	n/a	LTP259	ltpFR2	10	n/a	n/a	n/a	4	16	7	1	8
503991	PROB	n/a	LTP259	ltpFR2	10	n/a	n/a	n/a	4	11	2	2	7
506801	PROB	n/a	LTP259	ltpFR2	10	n/a	n/a	n/a	4	20	6	7	7
508775	PROB	n/a	LTP259	ltpFR2	10	n/a	n/a	n/a	4	9	1	3	5
510386	PROB	n/a	LTP259	ltpFR2	10	n/a	n/a	n/a	4	22	8	8	5
512623	PROB	n/a	LTP259	ltpFR2	10	n/a	n/a	n/a	4	14	1	6	7
515155	PROB	n/a	LTP259	ltpFR2	10	n/a	n/a	n/a	4	17	8	2	7
517680	PROB	n/a	LTP259	ltpFR2	10	n/a	n/a	n/a	4	8	1	6	1
519031	PROB	n/a	LTP259	ltpFR2	10	n/a	n/a	n/a	4	18	7	5	6
522214	PROB	n/a	LTP259	ltpFR2	10	n/a	n/a	n/a	4	17	7	6	4
523719	STOP	n/a	LTP259	ltpFR2	10	n/a	n/a	n/a	4	n/a	n/a	n/a	n/a
526643	REC_START	n/a	LTP259	ltpFR2	10	3	n/a	n/a	n/a	n/a	0	0	0
528318	REC_WORD	wordpools/wasnorm_wordpool_576.txt	LTP259	ltpFR2	10	3	GUARD	667	n/a	n/a	0	0	0
533583	REC_WORD_VV	wordpools/wasnorm_wordpool_576.txt	LTP259	ltpFR2	10	3	<>	-1	n/a	n/a	0	0	0
542698	REC_WORD	wordpools/wasnorm_wordpool_576.txt	LTP259	ltpFR2	10	3	DAISY	435	n/a	n/a	0	0	0
544036	REC_WORD	wordpools/wasnorm_wordpool_576.txt	LTP259	ltpFR2	10	3	DENTIST	447	n/a	n/a	0	0	0
544875	REC_WORD	wordpools/wasnorm_wordpool_576.txt	LTP259	ltpFR2	10	3	AWARD	63	n/a	n/a	0	0	0
546233	REC_WORD	wordpools/wasnorm_wordpool_576.txt	LTP259	ltpFR2	10	3	FARMER	553	n/a	n/a	0	0	0
547042	REC_WORD	wordpools/wasnorm_wordpool_576.txt	LTP259	ltpFR2	10	3	TRACTOR	1493	n/a	n/a	0	0	0
547808	REC_WORD	wordpools/wasnorm_wordpool_576.txt	LTP259	ltpFR2	10	3	LONDON	843	n/a	n/a	0	0	0
548543	REC_WORD	wordpools/wasnorm_wordpool_576.txt	LTP259	ltpFR2	10	3	UMPIRE	1535	n/a	n/a	0	0	0
550190	REC_WORD	wordpools/wasnorm_wordpool_576.txt	LTP259	ltpFR2	10	3	ULCER	1533	n/a	n/a	0	0	0
550817	REC_WORD	wordpools/wasnorm_wordpool_576.txt	LTP259	ltpFR2	10	3	MARS	873	n/a	n/a	0	0	0
552414	REC_WORD	wordpools/wasnorm_wordpool_576.txt	LTP259	ltpFR2	10	3	SHOVEL	1295	n/a	n/a	0	0	0
553114	REC_WORD	wordpools/wasnorm_wordpool_576.txt	LTP259	ltpFR2	10	3	PISTON	1076	n/a	n/a	0	0	0
554774	REC_WORD	wordpools/wasnorm_wordpool_576.txt	LTP259	ltpFR2	10	3	RATTLE	1170	n/a	n/a	0	0	0
558143	REC_WORD	wordpools/wasnorm_wordpool_576.txt	LTP259	ltpFR2	10	3	HUSBAND	728	n/a	n/a	0	0	0
560700	REC_WORD	wordpools/wasnorm_wordpool_576.txt	LTP259	ltpFR2	10	3	COBRA	336	n/a	n/a	0	0	0
564988	REC_WORD	wordpools/wasnorm_wordpool_576.txt	LTP259	ltpFR2	10	3	PORTRAIT	1111	n/a	n/a	0	0	0
570479	REC_WORD	wordpools/wasnorm_wordpool_576.txt	LTP259	ltpFR2	10	3	STOMACH	1384	n/a	n/a	0	0	0
617707	WORD	wordpools/wasnorm_wordpool_576.txt	LTP259	ltpFR2	10	4	FRUIT	610	n/a	n/a	0	0	0
620216	WORD	wordpools/wasnorm_wordpool_576.txt	LTP259	ltpFR2	10	4	CABIN	211	n/a	n/a	0	0	0
622692	WORD	wordpools/wasnorm_wordpool_576.txt	LTP259	ltpFR2	10	4	REPORT	1184	n/a	n/a	0	0	0
625247	WORD	wordpools/wasnorm_wordpool_576.txt	LTP259	ltpFR2	10	4	LION	827	n/a	n/a	0	0	0
627880	WORD	wordpools/wasnorm_wordpool_576.txt	LTP259	ltpFR2	10	4	CATCHER	258	n/a	n/a	0	0	0
630539	WORD	wordpools/wasnorm_wordpool_576.txt	LTP259	ltpFR2	10	4	PAPER	1011	n/a	n/a	0	0	0
633278	WORD	wordpools/wasnorm_wordpool_576.txt	LTP259	ltpFR2	10	4	SHARK	1275	n/a	n/a	0	0	0
635859	WORD	wordpools/wasnorm_wordpool_576.txt	LTP259	ltpFR2	10	4	SURVEY	1414	n/a	n/a	0	0	0
638569	WORD	wordpools/wasnorm_wordpool_576.txt	LTP259	ltpFR2	10	4	KEEPER	769	n/a	n/a	0	0	0
641063	WORD	wordpools/wasnorm_wordpool_576.txt	LTP259	ltpFR2	10	4	PARENT	1013	n/a	n/a	0	0	0
643789	WORD	wordpools/wasnorm_wordpool_576.txt	LTP259	ltpFR2	10	4	STAR	1373	n/a	n/a	0	0	0
646549	WORD	wordpools/wasnorm_wordpool_576.txt	LTP259	ltpFR2	10	4	PECAN	1036	n/a	n/a	0	0	0
649160	WORD	wordpools/wasnorm_wordpool_576.txt	LTP259	ltpFR2	10	4	PIANO	1057	n/a	n/a	0	0	0
651635	WORD	wordpools/wasnorm_wordpool_576.txt	LTP259	ltpFR2	10	4	BUBBLE	183	n/a	n/a	0	0	0
654090	WORD	wordpools/wasnorm_wordpool_576.txt	LTP259	ltpFR2	10	4	BATHTUB	100	n/a	n/a	0	0	0
656582	WORD	wordpools/wasnorm_wordpool_576.txt	LTP259	ltpFR2	10	4	FRECKLE	602	n/a	n/a	0	0	0
659042	WORD	wordpools/wasnorm_wordpool_576.txt	LTP259	ltpFR2	10	4	CAFE	216	n/a	n/a	0	0	0
661857	WORD	wordpools/wasnorm_wordpool_576.txt	LTP259	ltpFR2	10	4	SCALLOP	1242	n/a	n/a	0	0	0
664433	WORD	wordpools/wasnorm_wordpool_576.txt	LTP259	ltpFR2	10	4	MASK	876	n/a	n/a	0	0	0
667061	WORD	wordpools/wasnorm_wordpool_576.txt	LTP259	ltpFR2	10	4	TORTOISE	1486	n/a	n/a	0	0	0
669787	WORD	wordpools/wasnorm_wordpool_576.txt	LTP259	ltpFR2	10	4	CREVICE	405	n/a	n/a	0	0	0
672430	WORD	wordpools/wasnorm_wordpool_576.txt	LTP259	ltpFR2	10	4	SUITCASE	1403	n/a	n/a	0	0	0
675175	WORD	wordpools/wasnorm_wordpool_576.txt	LTP259	ltpFR2	10	4	LUGGAGE	847	n/a	n/a	0	0	0
677683	WORD	wordpools/wasnorm_wordpool_576.txt	LTP259	ltpFR2	10	4	BLUEPRINT	142	n/a	n/a	0	0	0
679289	START	n/a	LTP259	ltpFR2	10	n/a	n/a	n/a	5	n/a	n/a	n/a	n/a
680155	DISTRACTOR	n/a	LTP259	ltpFR2	10	4	n/a	n/a	n/a	n/a	0	0	0
680172	PROB	n/a	LTP259	ltpFR2	10	n/a	n/a	n/a	5	15	4	3	8
683116	PROB	n/a	LTP259	ltpFR2	10	n/a	n/a	n/a	5	14	2	7	5
685747	PROB	n/a	LTP259	ltpFR2	10	n/a	n/a	n/a	5	14	7	4	3
687721	PROB	n/a	LTP259	ltpFR2	10	n/a	n/a	n/a	5	22	9	8	5
691229	PROB	n/a	LTP259	ltpFR2	10	n/a	n/a	n/a	5	14	7	1	6
693806	PROB	n/a	LTP259	ltpFR2	10	n/a	n/a	n/a	5	19	4	9	6
695898	PROB	n/a	LTP259	ltpFR2	10	n/a	n/a	n/a	5	14	2	9	5
698791	PROB	n/a	LTP259	ltpFR2	10	n/a	n/a	n/a	5	20	5	7	8
703289	STOP	n/a	LTP259	ltpFR2	10	n/a	n/a	n/a	5	n/a	n/a	n/a	n/a
705133	REC_START	n/a	LTP259	ltpFR2	10	4	n/a	n/a	n/a	n/a	0	0	0
714030	REC_WORD	wordpools/wasnorm_wordpool_576.txt	LTP259	ltpFR2	10	4	CABIN	211	n/a	n/a	0	0	0
715723	REC_WORD	wordpools/wasnorm_wordpool_576.txt	LTP259	ltpFR2	10	4	REPORT	1184	n/a	n/a	0	0	0
716609	REC_WORD	wordpools/wasnorm_wordpool_576.txt	LTP259	ltpFR2	10	4	LION	827	n/a	n/a	0	0	0
717573	REC_WORD	wordpools/wasnorm_wordpool_576.txt	LTP259	ltpFR2	10	4	KEEPER	769	n/a	n/a	0	0	0
725893	REC_WORD	wordpools/wasnorm_wordpool_576.txt	LTP259	ltpFR2	10	4	FRECKLE	602	n/a	n/a	0	0	0
726836	REC_WORD	wordpools/wasnorm_wordpool_576.txt	LTP259	ltpFR2	10	4	BATHTUB	100	n/a	n/a	0	0	0
732226	REC_WORD	wordpools/wasnorm_wordpool_576.txt	LTP259	ltpFR2	10	4	CAFE	216	n/a	n/a	0	0	0
733367	REC_WORD	wordpools/wasnorm_wordpool_576.txt	LTP259	ltpFR2	10	4	TORTOISE	1486	n/a	n/a	0	0	0
736010	REC_WORD	wordpools/wasnorm_wordpool_576.txt	LTP259	ltpFR2	10	4	FRUIT	610	n/a	n/a	0	0	0
737551	REC_WORD	wordpools/wasnorm_wordpool_576.txt	LTP259	ltpFR2	10	4	CATCHER	258	n/a	n/a	0	0	0
740561	REC_WORD	wordpools/wasnorm_wordpool_576.txt	LTP259	ltpFR2	10	4	NEWSPAPER	948	n/a	n/a	0	0	0
749503	REC_WORD	wordpools/wasnorm_wordpool_576.txt	LTP259	ltpFR2	10	4	PECAN	1036	n/a	n/a	0	0	0
762310	REC_WORD	wordpools/wasnorm_wordpool_576.txt	LTP259	ltpFR2	10	4	BUBBLE	183	n/a	n/a	0	0	0
763372	REC_WORD	wordpools/wasnorm_wordpool_576.txt	LTP259	ltpFR2	10	4	BUBBLE	183	n/a	n/a	0	0	0
774032	REC_WORD	wordpools/wasnorm_wordpool_576.txt	LTP259	ltpFR2	10	4	PIANO	1057	n/a	n/a	0	0	0
796197	WORD	wordpools/wasnorm_wordpool_576.txt	LTP259	ltpFR2	10	5	WIFE	1609	n/a	n/a	0	0	0
798903	WORD	wordpools/wasnorm_wordpool_576.txt	LTP259	ltpFR2	10	5	MARKER	870	n/a	n/a	0	0	0
801528	WORD	wordpools/wasnorm_wordpool_576.txt	LTP259	ltpFR2	10	5	WRENCH	1625	n/a	n/a	0	0	0
804327	WORD	wordpools/wasnorm_wordpool_576.txt	LTP259	ltpFR2	10	5	RAZOR	1171	n/a	n/a	0	0	0
807072	WORD	wordpools/wasnorm_wordpool_576.txt	LTP259	ltpFR2	10	5	MISTER	901	n/a	n/a	0	0	0
809513	WORD	wordpools/wasnorm_wordpool_576.txt	LTP259	ltpFR2	10	5	OFFICE	972	n/a	n/a	0	0	0
812223	WORD	wordpools/wasnorm_wordpool_576.txt	LTP259	ltpFR2	10	5	CRAYON	401	n/a	n/a	0	0	0
814951	WORD	wordpools/wasnorm_wordpool_576.txt	LTP259	ltpFR2	10	5	BEAVER	109	n/a	n/a	0	0	0
817472	WORD	wordpools/wasnorm_wordpool_576.txt	LTP259	ltpFR2	10	5	FOX	598	n/a	n/a	0	0	0
820104	WORD	wordpools/wasnorm_wordpool_576.txt	LTP259	ltpFR2	10	5	BRIEFCASE	175	n/a	n/a	0	0	0
822679	WORD	wordpools/wasnorm_wordpool_576.txt	LTP259	ltpFR2	10	5	WITNESS	1618	n/a	n/a	0	0	0
825485	WORD	wordpools/wasnorm_wordpool_576.txt	LTP259	ltpFR2	10	5	JUDGE	761	n/a	n/a	0	0	0
828118	WORD	wordpools/wasnorm_wordpool_576.txt	LTP259	ltpFR2	10	5	KITCHEN	778	n/a	n/a	0	0	0
830777	WORD	wordpools/wasnorm_wordpool_576.txt	LTP259	ltpFR2	10	5	PARTNER	1017	n/a	n/a	0	0	0
833504	WORD	wordpools/wasnorm_wordpool_576.txt	LTP259	ltpFR2	10	5	IGLOO	734	n/a	n/a	0	0	0
836314	WORD	wordpools/wasnorm_wordpool_576.txt	LTP259	ltpFR2	10	5	ITEM	746	n/a	n/a	0	0	0
839004	WORD	wordpools/wasnorm_wordpool_576.txt	LTP259	ltpFR2	10	5	BLACKBOARD	133	n/a	n/a	0	0	0
841450	WORD	wordpools/wasnorm_wordpool_576.txt	LTP259	ltpFR2	10	5	CHIPMUNK	304	n/a	n/a	0	0	0
844028	WORD	wordpools/wasnorm_wordpool_576.txt	LTP259	ltpFR2	10	5	BOARD	143	n/a	n/a	0	0	0
846820	WORD	wordpools/wasnorm_wordpool_576.txt	LTP259	ltpFR2	10	5	CLIMBER	323	n/a	n/a	0	0	0
849464	WORD	wordpools/wasnorm_wordpool_576.txt	LTP259	ltpFR2	10	5	LIGHTNING	820	n/a	n/a	0	0	0
852158	WORD	wordpools/wasnorm_wordpool_576.txt	LTP259	ltpFR2	10	5	PORK	1108	n/a	n/a	0	0	0
854662	WORD	wordpools/wasnorm_wordpool_576.txt	LTP259	ltpFR2	10	5	BACON	67	n/a	n/a	0	0	0
857172	WORD	wordpools/wasnorm_wordpool_576.txt	LTP259	ltpFR2	10	5	PASSAGE	1019	n/a	n/a	0	0	0
858783	START	n/a	LTP259	ltpFR2	10	n/a	n/a	n/a	6	n/a	n/a	n/a	n/a
859708	DISTRACTOR	n/a	LTP259	ltpFR2	10	5	n/a	n/a	n/a	n/a	0	0	0
859719	PROB	n/a	LTP259	ltpFR2	10	n/a	n/a	n/a	6	12	8	3	1
861895	PROB	n/a	LTP259	ltpFR2	10	n/a	n/a	n/a	6	8	3	4	1
863847	PROB	n/a	LTP259	ltpFR2	10	n/a	n/a	n/a	6	18	7	5	6
866456	PROB	n/a	LTP259	ltpFR2	10	n/a	n/a	n/a	6	19	7	8	4
870505	PROB	n/a	LTP259	ltpFR2	10	n/a	n/a	n/a	6	7	1	1	5
871978	PROB	n/a	LTP259	ltpFR2	10	n/a	n/a	n/a	6	12	1	3	8
873600	PROB	n/a	LTP259	ltpFR2	10	n/a	n/a	n/a	6	20	8	8	4
875713	PROB	n/a	LTP259	ltpFR2	10	n/a	n/a	n/a	6	20	9	7	4
878686	PROB	n/a	LTP259	ltpFR2	10	n/a	n/a	n/a	6	19	8	6	5
882551	STOP	n/a	LTP259	ltpFR2	10	n/a	n/a	n/a	6	n/a	n/a	n/a	n/a
884693	REC_START	n/a	LTP259	ltpFR2	10	5	n/a	n/a	n/a	n/a	0	0	0
886582	REC_WORD	wordpools/wasnorm_wordpool_576.txt	LTP259	ltpFR2	10	5	IGLOO	734	n/a	n/a	0	0	0
887605	REC_WORD	wordpools/wasnorm_wordpool_576.txt	LTP259	ltpFR2	10	5	BLACKBOARD	133	n/a	n/a	0	0	0
888676	REC_WORD	wordpools/wasnorm_wordpool_576.txt	LTP259	ltpFR2	10	5	BOARD	143	n/a	n/a	0	0	0
898621	REC_WORD	wordpools/wasnorm_wordpool_576.txt	LTP259	ltpFR2	10	5	LIGHTNING	820	n/a	n/a	0	0	0
899367	REC_WORD	wordpools/wasnorm_wordpool_576.txt	LTP259	ltpFR2	10	5	PORK	1108	n/a	n/a	0	0	0
899974	REC_WORD	wordpools/wasnorm_wordpool_576.txt	LTP259	ltpFR2	10	5	BACON	67	n/a	n/a	0	0	0
905934	REC_WORD	wordpools/wasnorm_wordpool_576.txt	LTP259	ltpFR2	10	5	CHIPMUNK	304	n/a	n/a	0	0	0
975740	WORD	wordpools/wasnorm_wordpool_576.txt	LTP259	ltpFR2	10	6	SPIDER	1351	n/a	n/a	0	0	0
978500	WORD	wordpools/wasnorm_wordpool_576.txt	LTP259	ltpFR2	10	6	SILK	1307	n/a	n/a	0	0	0
981077	WORD	wordpools/wasnorm_wordpool_576.txt	LTP259	ltpFR2	10	6	SUNSET	1408	n/a	n/a	0	0	0
983737	WORD	wordpools/wasnorm_wordpool_576.txt	LTP259	ltpFR2	10	6	PILOT	1070	n/a	n/a	0	0	0
986175	WORD	wordpools/wasnorm_wordpool_576.txt	LTP259	ltpFR2	10	6	DRIVER	499	n/a	n/a	0	0	0
988907	WORD	wordpools/wasnorm_wordpool_576.txt	LTP259	ltpFR2	10	6	BARREL	91	n/a	n/a	0	0	0
991683	WORD	wordpools/wasnorm_wordpool_576.txt	LTP259	ltpFR2	10	6	MATTRESS	879	n/a	n/a	0	0	0
994427	WORD	wordpools/wasnorm_wordpool_576.txt	LTP259	ltpFR2	10	6	COMPASS	358	n/a	n/a	0	0	0
997200	WORD	wordpools/wasnorm_wordpool_576.txt	LTP259	ltpFR2	10	6	SUNRISE	1407	n/a	n/a	0	0	0
1000015	WORD	wordpools/wasnorm_wordpool_576.txt	LTP259	ltpFR2	10	6	NIGHTGOWN	953	n/a	n/a	0	0	0
1002653	WORD	wordpools/wasnorm_wordpool_576.txt	LTP259	ltpFR2	10	6	OUTFIT	988	n/a	n/a	0	0	0
1005118	WORD	wordpools/wasnorm_wordpool_576.txt	LTP259	ltpFR2	10	6	DRESS	495	n/a	n/a	0	0	0
1007660	WORD	wordpools/wasnorm_wordpool_576.txt	LTP259	ltpFR2	10	6	LETTUCE	814	n/a	n/a	0	0	0
1010104	WORD	wordpools/wasnorm_wordpool_576.txt	LTP259	ltpFR2	10	6	SCISSORS	1250	n/a	n/a	0	0	0
1012624	WORD	wordpools/wasnorm_wordpool_576.txt	LTP259	ltpFR2	10	6	COLONEL	348	n/a	n/a	0	0	0
1015289	WORD	wordpools/wasnorm_wordpool_576.txt	LTP259	ltpFR2	10	6	CHAMPAGNE	278	n/a	n/a	0	0	0
1018050	WORD	wordpools/wasnorm_wordpool_576.txt	LTP259	ltpFR2	10	6	PEANUT	1032	n/a	n/a	0	0	0
1020860	WORD	wordpools/wasnorm_wordpool_576.txt	LTP259	ltpFR2	10	6	PERCH	1048	n/a	n/a	0	0	0
1023599	WORD	wordpools/wasnorm_wordpool_576.txt	LTP259	ltpFR2	10	6	SPARROW	1347	n/a	n/a	0	0	0
1026159	WORD	wordpools/wasnorm_wordpool_576.txt	LTP259	ltpFR2	10	6	PASTRY	1022	n/a	n/a	0	0	0
1028723	WORD	wordpools/wasnorm_wordpool_576.txt	LTP259	ltpFR2	10	6	CRAB	397	n/a	n/a	0	0	0
1031200	WORD	wordpools/wasnorm_wordpool_576.txt	LTP259	ltpFR2	10	6	BLOUSE	139	n/a	n/a	0	0	0
1033658	WORD	wordpools/wasnorm_wordpool_576.txt	LTP259	ltpFR2	10	6	SALAD	1224	n/a	n/a	0	0	0
1036097	WORD	wordpools/wasnorm_wordpool_576.txt	LTP259	ltpFR2	10	6	TWIG	1527	n/a	n/a	0	0	0
1037707	START	n/a	LTP259	ltpFR2	10	n/a	n/a	n/a	7	n/a	n/a	n/a	n/a
1038655	DISTRACTOR	n/a	LTP259	ltpFR2	10	6	n/a	n/a	n/a	n/a	0	0	0
1038672	PROB	n/a	LTP259	ltpFR2	10	n/a	n/a	n/a	7	16	9	6	1
1041199	PROB	n/a	LTP259	ltpFR2	10	n/a	n/a	n/a	7	19	6	6	7
1043474	PROB	n/a	LTP259	ltpFR2	10	n/a	n/a	n/a	7	17	7	1	9
1044913	PROB	n/a	LTP259	ltpFR2	10	n/a	n/a	n/a	7	25	8	8	9
1046636	PROB	n/a	LTP259	ltpFR2	10	n/a	n/a	n/a	7	9	7	1	1
1047925	PROB	n/a	LTP259	ltpFR2	10	n/a	n/a	n/a	7	23	9	7	7
1052462	PROB	n/a	LTP259	ltpFR2	10	n/a	n/a	n/a	7	18	4	7	7
1054687	PROB	n/a	LTP259	ltpFR2	10	n/a	n/a	n/a	7	6	2	1	3
1056339	PROB	n/a	LTP259	ltpFR2	10	n/a	n/a	n/a	7	12	1	2	9
1057677	PROB	n/a	LTP259	ltpFR2	10	n/a	n/a	n/a	7	5	1	2	2
1059333	PROB	n/a	LTP259	ltpFR2	10	n/a	n/a	n/a	7	4	1	2	1
1060751	STOP	n/a	LTP259	ltpFR2	10	n/a	n/a	n/a	7	n/a	n/a	n/a	n/a
1063622	REC_START	n/a	LTP259	ltpFR2	10	6	n/a	n/a	n/a	n/a	0	0	0
1067438	REC_WORD	wordpools/wasnorm_wordpool_576.txt	LTP259	ltpFR2	10	6	MATTRESS	879	n/a	n/a	0	0	0
1068158	REC_WORD	wordpools/wasnorm_wordpool_576.txt	LTP259	ltpFR2	10	6	SKY	-1	n/a	n/a	0	0	0
1068992	REC_WORD	wordpools/wasnorm_wordpool_576.txt	LTP259	ltpFR2	10	6	BARREL	91	n/a	n/a	0	0	0
1071421	REC_WORD	wordpools/wasnorm_wordpool_576.txt	LTP259	ltpFR2	10	6	PILOT	1070	n/a	n/a	0	0	0
1072054	REC_WORD	wordpools/wasnorm_wordpool_576.txt	LTP259	ltpFR2	10	6	DRIVER	499	n/a	n/a	0	0	0
1073932	REC_WORD	wordpools/wasnorm_wordpool_576.txt	LTP259	ltpFR2	10	6	AIRPLANE	12	n/a	n/a	0	0	0
1154647	DISTRACTOR	n/a	LTP259	ltpFR2	10	7	n/a	n/a	n/a	n/a	0	0	0
1154647	START	n/a	LTP259	ltpFR2	10	n/a	n/a	n/a	8	n/a	n/a	n/a	n/a
1154697	PROB	n/a	LTP259	ltpFR2	10	n/a	n/a	n/a	8	12	2	1	9
1156337	PROB	n/a	LTP259	ltpFR2	10	n/a	n/a	n/a	8	12	2	2	8
1158290	PROB	n/a	LTP259	ltpFR2	10	n/a	n/a	n/a	8	14	7	1	6
1160649	PROB	n/a	LTP259	ltpFR2	10	n/a	n/a	n/a	8	16	1	6	9
1162105	PROB	n/a	LTP259	ltpFR2	10	n/a	n/a	n/a	8	10	5	4	1
1163798	PROB	n/a	LTP259	ltpFR2	10	n/a	n/a	n/a	8	13	3	2	8
1165150	PROB	n/a	LTP259	ltpFR2	10	n/a	n/a	n/a	8	13	3	3	7
1166588	PROB	n/a	LTP259	ltpFR2	10	n/a	n/a	n/a	8	17	5	5	7
1168011	PROB	n/a	LTP259	ltpFR2	10	n/a	n/a	n/a	8	18	2	9	7
1169850	PROB	n/a	LTP259	ltpFR2	10	n/a	n/a	n/a	8	12	4	6	2
1172247	PROB	n/a	LTP259	ltpFR2	10	n/a	n/a	n/a	8	14	2	9	3
1173865	PROB	n/a	LTP259	ltpFR2	10	n/a	n/a	n/a	8	11	7	1	3
1175505	PROB	n/a	LTP259	ltpFR2	10	n/a	n/a	n/a	8	22	8	6	8
1178295	STOP	n/a	LTP259	ltpFR2	10	n/a	n/a	n/a	8	n/a	n/a	n/a	n/a
1179675	WORD	wordpools/wasnorm_wordpool_576.txt	LTP259	ltpFR2	10	7	MISSILE	900	n/a	n/a	0	0	0
1182335	WORD	wordpools/wasnorm_wordpool_576.txt	LTP259	ltpFR2	10	7	JELLO	754	n/a	n/a	0	0	0
1185075	WORD	wordpools/wasnorm_wordpool_576.txt	LTP259	ltpFR2	10	7	CELLAR	267	n/a	n/a	0	0	0
1187806	WORD	wordpools/wasnorm_wordpool_576.txt	LTP259	ltpFR2	10	7	CAPTIVE	240	n/a	n/a	0	0	0
1190566	WORD	wordpools/wasnorm_wordpool_576.txt	LTP259	ltpFR2	10	7	KETCHUP	771	n/a	n/a	0	0	0
1193259	WORD	wordpools/wasnorm_wordpool_576.txt	LTP259	ltpFR2	10	7	SHELTER	1282	n/a	n/a	0	0	0
1195887	WORD	wordpools/wasnorm_wordpool_576.txt	LTP259	ltpFR2	10	7	PANTHER	1009	n/a	n/a	0	0	0
1198312	WORD	wordpools/wasnorm_wordpool_576.txt	LTP259	ltpFR2	10	7	LEOPARD	812	n/a	n/a	0	0	0
1200771	WORD	wordpools/wasnorm_wordpool_576.txt	LTP259	ltpFR2	10	7	MAILMAN	858	n/a	n/a	0	0	0
1203515	WORD	wordpools/wasnorm_wordpool_576.txt	LTP259	ltpFR2	10	7	SLIDE	1326	n/a	n/a	0	0	0
1206304	WORD	wordpools/wasnorm_wordpool_576.txt	LTP259	ltpFR2	10	7	MOTEL	919	n/a	n/a	0	0	0
1208936	WORD	wordpools/wasnorm_wordpool_576.txt	LTP259	ltpFR2	10	7	DORM	488	n/a	n/a	0	0	0
1211629	WORD	wordpools/wasnorm_wordpool_576.txt	LTP259	ltpFR2	10	7	JURY	766	n/a	n/a	0	0	0
1214173	WORD	wordpools/wasnorm_wordpool_576.txt	LTP259	ltpFR2	10	7	LOFT	840	n/a	n/a	0	0	0
1216648	WORD	wordpools/wasnorm_wordpool_576.txt	LTP259	ltpFR2	10	7	WORLD	1622	n/a	n/a	0	0	0
1219108	WORD	wordpools/wasnorm_wordpool_576.txt	LTP259	ltpFR2	10	7	WINDOW	1611	n/a	n/a	0	0	0
1221595	WORD	wordpools/wasnorm_wordpool_576.txt	LTP259	ltpFR2	10	7	NAPKIN	937	n/a	n/a	0	0	0
1224310	WORD	wordpools/wasnorm_wordpool_576.txt	LTP259	ltpFR2	10	7	BRICK	172	n/a	n/a	0	0	0
1226769	WORD	wordpools/wasnorm_wordpool_576.txt	LTP259	ltpFR2	10	7	BASEMENT	94	n/a	n/a	0	0	0
1229513	WORD	wordpools/wasnorm_wordpool_576.txt	LTP259	ltpFR2	10	7	KLEENEX	782	n/a	n/a	0	0	0
1232140	WORD	wordpools/wasnorm_wordpool_576.txt	LTP259	ltpFR2	10	7	EYELASH	546	n/a	n/a	0	0	0
1234599	WORD	wordpools/wasnorm_wordpool_576.txt	LTP259	ltpFR2	10	7	COSTUME	383	n/a	n/a	0	0	0
1237376	WORD	wordpools/wasnorm_wordpool_576.txt	LTP259	ltpFR2	10	7	ROBIN	1199	n/a	n/a	0	0	0
1240187	WORD	wordpools/wasnorm_wordpool_576.txt	LTP259	ltpFR2	10	7	SALMON	1227	n/a	n/a	0	0	0
1241793	START	n/a	LTP259	ltpFR2	10	n/a	n/a	n/a	9	n/a	n/a	n/a	n/a
1242833	DISTRACTOR	n/a	LTP259	ltpFR2	10	7	n/a	n/a	n/a	n/a	0	0	0
1242846	PROB	n/a	LTP259	ltpFR2	10	n/a	n/a	n/a	9	12	1	4	7
1245318	PROB	n/a	LTP259	ltpFR2	10	n/a	n/a	n/a	9	21	8	5	8
1247715	PROB	n/a	LTP259	ltpFR2	10	n/a	n/a	n/a	9	15	2	4	9
1249617	PROB	n/a	LTP259	ltpFR2	10	n/a	n/a	n/a	9	16	9	4	3
1251742	PROB	n/a	LTP259	ltpFR2	10	n/a	n/a	n/a	9	12	4	3	5
1255022	PROB	n/a	LTP259	ltpFR2	10	n/a	n/a	n/a	9	18	8	3	7
1257080	PROB	n/a	LTP259	ltpFR2	10	n/a	n/a	n/a	9	22	9	4	8
1261345	PROB	n/a	LTP259	ltpFR2	10	n/a	n/a	n/a	9	19	5	9	5
1265793	STOP	n/a	LTP259	ltpFR2	10	n/a	n/a	n/a	9	n/a	n/a	n/a	n/a
1267602	REC_START	n/a	LTP259	ltpFR2	10	7	n/a	n/a	n/a	n/a	0	0	0
1275638	REC_WORD	wordpools/wasnorm_wordpool_576.txt	LTP259	ltpFR2	10	7	NAPKIN	937	n/a	n/a	0	0	0
1276468	REC_WORD	wordpools/wasnorm_wordpool_576.txt	LTP259	ltpFR2	10	7	TISSUE	-1	n/a	n/a	0	0	0
1277111	REC_WORD	wordpools/wasnorm_wordpool_576.txt	LTP259	ltpFR2	10	7	WINDOW	1611	n/a	n/a	0	0	0
1277778	REC_WORD	wordpools/wasnorm_wordpool_576.txt	LTP259	ltpFR2	10	7	BASEMENT	94	n/a	n/a	0	0	0
1278514	REC_WORD	wordpools/wasnorm_wordpool_576.txt	LTP259	ltpFR2	10	7	BRICK	172	n/a	n/a	0	0	0
1283878	REC_WORD	wordpools/wasnorm_wordpool_576.txt	LTP259	ltpFR2	10	7	KETCHUP	771	n/a	n/a	0	0	0
1287510	REC_WORD	wordpools/wasnorm_wordpool_576.txt	LTP259	ltpFR2	10	7	CELLAR	267	n/a	n/a	0	0	0
1358683	WORD	wordpools/wasnorm_wordpool_576.txt	LTP259	ltpFR2	10	8	COTTAGE	384	n/a	n/a	0	0	0
1361477	WORD	wordpools/wasnorm_wordpool_576.txt	LTP259	ltpFR2	10	8	SLOPE	1328	n/a	n/a	0	0	0
1364083	WORD	wordpools/wasnorm_wordpool_576.txt	LTP259	ltpFR2	10	8	SUMMIT	1405	n/a	n/a	0	0	0
1366797	WORD	wordpools/wasnorm_wordpool_576.txt	LTP259	ltpFR2	10	8	JAPAN	749	n/a	n/a	0	0	0
1369256	WORD	wordpools/wasnorm_wordpool_576.txt	LTP259	ltpFR2	10	8	MUSTARD	935	n/a	n/a	0	0	0
1371934	WORD	wordpools/wasnorm_wordpool_576.txt	LTP259	ltpFR2	10	8	COUNTRY	388	n/a	n/a	0	0	0
1374555	WORD	wordpools/wasnorm_wordpool_576.txt	LTP259	ltpFR2	10	8	GRAPE	654	n/a	n/a	0	0	0
1376986	WORD	wordpools/wasnorm_wordpool_576.txt	LTP259	ltpFR2	10	8	ROBOT	1200	n/a	n/a	0	0	0
1379428	WORD	wordpools/wasnorm_wordpool_576.txt	LTP259	ltpFR2	10	8	MARKET	871	n/a	n/a	0	0	0
1381905	WORD	wordpools/wasnorm_wordpool_576.txt	LTP259	ltpFR2	10	8	PLAZA	1088	n/a	n/a	0	0	0
1384681	WORD	wordpools/wasnorm_wordpool_576.txt	LTP259	ltpFR2	10	8	SIBLING	1301	n/a	n/a	0	0	0
1387458	WORD	wordpools/wasnorm_wordpool_576.txt	LTP259	ltpFR2	10	8	BACKBONE	66	n/a	n/a	0	0	0
1390114	WORD	wordpools/wasnorm_wordpool_576.txt	LTP259	ltpFR2	10	8	RECEIPT	1173	n/a	n/a	0	0	0
1392845	WORD	wordpools/wasnorm_wordpool_576.txt	LTP259	ltpFR2	10	8	WARDROBE	1587	n/a	n/a	0	0	0
1395605	WORD	wordpools/wasnorm_wordpool_576.txt	LTP259	ltpFR2	10	8	SEAFOOD	1260	n/a	n/a	0	0	0
1398277	WORD	wordpools/wasnorm_wordpool_576.txt	LTP259	ltpFR2	10	8	LEADER	807	n/a	n/a	0	0	0
1400708	WORD	wordpools/wasnorm_wordpool_576.txt	LTP259	ltpFR2	10	8	ASIA	46	n/a	n/a	0	0	0
1403168	WORD	wordpools/wasnorm_wordpool_576.txt	LTP259	ltpFR2	10	8	ICING	732	n/a	n/a	0	0	0
1405874	WORD	wordpools/wasnorm_wordpool_576.txt	LTP259	ltpFR2	10	8	POSTAGE	1113	n/a	n/a	0	0	0
1408604	WORD	wordpools/wasnorm_wordpool_576.txt	LTP259	ltpFR2	10	8	DANCER	437	n/a	n/a	0	0	0
1411060	WORD	wordpools/wasnorm_wordpool_576.txt	LTP259	ltpFR2	10	8	HOOK	715	n/a	n/a	0	0	0
1413556	WORD	wordpools/wasnorm_wordpool_576.txt	LTP259	ltpFR2	10	8	JOURNAL	760	n/a	n/a	0	0	0
1416112	WORD	wordpools/wasnorm_wordpool_576.txt	LTP259	ltpFR2	10	8	ORANGE	980	n/a	n/a	0	0	0
1418559	WORD	wordpools/wasnorm_wordpool_576.txt	LTP259	ltpFR2	10	8	EGYPT	519	n/a	n/a	0	0	0
1420166	START	n/a	LTP259	ltpFR2	10	n/a	n/a	n/a	10	n/a	n/a	n/a	n/a
1421297	DISTRACTOR	n/a	LTP259	ltpFR2	10	8	n/a	n/a	n/a	n/a	0	0	0
1421314	PROB	n/a	LTP259	ltpFR2	10	n/a	n/a	n/a	10	13	3	5	5
1423544	PROB	n/a	LTP259	ltpFR2	10	n/a	n/a	n/a	10	11	5	4	2
1426100	PROB	n/a	LTP259	ltpFR2	10	n/a	n/a	n/a	10	22	8	5	9
1429529	PROB	n/a	LTP259	ltpFR2	10	n/a	n/a	n/a	10	13	9	1	3
1430834	PROB	n/a	LTP259	ltpFR2	10	n/a	n/a	n/a	10	14	3	2	9
1432557	PROB	n/a	LTP259	ltpFR2	10	n/a	n/a	n/a	10	11	4	5	2
1434468	PROB	n/a	LTP259	ltpFR2	10	n/a	n/a	n/a	10	21	8	7	6
1436493	PROB	n/a	LTP259	ltpFR2	10	n/a	n/a	n/a	10	20	9	4	7
1440537	PROB	n/a	LTP259	ltpFR2	10	n/a	n/a	n/a	10	7	1	3	3
1444166	STOP	n/a	LTP259	ltpFR2	10	n/a	n/a	n/a	10	n/a	n/a	n/a	n/a
1446043	REC_START	n/a	LTP259	ltpFR2	10	8	n/a	n/a	n/a	n/a	0	0	0
1448148	REC_WORD	wordpools/wasnorm_wordpool_576.txt	LTP259	ltpFR2	10	8	COTTAGE	384	n/a	n/a	0	0	0
1449940	REC_WORD	wordpools/wasnorm_wordpool_576.txt	LTP259	ltpFR2	10	8	SLOPE	1328	n/a	n/a	0	0	0
1450828	REC_WORD	wordpools/wasnorm_wordpool_576.txt	LTP259	ltpFR2	10	8	JAPAN	749	n/a	n/a	0	0	0
1453236	REC_WORD	wordpools/wasnorm_wordpool_576.txt	LTP259	ltpFR2	10	8	SUMMIT	1405	n/a	n/a	0	0	0
1456649	REC_WORD	wordpools/wasnorm_wordpool_576.txt	LTP259	ltpFR2	10	8	COUNTRY	388	n/a	n/a	0	0	0
1457340	REC_WORD	wordpools/wasnorm_wordpool_576.txt	LTP259	ltpFR2	10	8	MUSTARD	935	n/a	n/a	0	0	0
1459741	REC_WORD	wordpools/wasnorm_wordpool_576.txt	LTP259	ltpFR2	10	8	GRAPE	654	n/a	n/a	0	0	0
1461540	REC_WORD	wordpools/wasnorm_wordpool_576.txt	LTP259	ltpFR2	10	8	MARKET	871	n/a	n/a	0	0	0
1462316	REC_WORD	wordpools/wasnorm_wordpool_576.txt	LTP259	ltpFR2	10	8	PLAZA	1088	n/a	n/a	0	0	0
1466782	REC_WORD	wordpools/wasnorm_wordpool_576.txt	LTP259	ltpFR2	10	8	BACKBONE	66	n/a	n/a	0	0	0
1467750	REC_WORD	wordpools/wasnorm_wordpool_576.txt	LTP259	ltpFR2	10	8	SIBLING	1301	n/a	n/a	0	0	0
1472143	REC_WORD	wordpools/wasnorm_wordpool_576.txt	LTP259	ltpFR2	10	8	RECEIPT	1173	n/a	n/a	0	0	0
1522801	REST_REWET	n/a	LTP259	ltpFR2	10	8	n/a	n/a	n/a	n/a	0	0	0
2135678	WORD	wordpools/wasnorm_wordpool_576.txt	LTP259	ltpFR2	10	9	GALLON	618	n/a	n/a	0	0	0
2138288	WORD	wordpools/wasnorm_wordpool_576.txt	LTP259	ltpFR2	10	9	DIVER	476	n/a	n/a	0	0	0
2141083	WORD	wordpools/wasnorm_wordpool_576.txt	LTP259	ltpFR2	10	9	GOBLIN	645	n/a	n/a	0	0	0
2143541	WORD	wordpools/wasnorm_wordpool_576.txt	LTP259	ltpFR2	10	9	LOVER	846	n/a	n/a	0	0	0
2146102	WORD	wordpools/wasnorm_wordpool_576.txt	LTP259	ltpFR2	10	9	SUSPECT	1415	n/a	n/a	0	0	0
2148794	WORD	wordpools/wasnorm_wordpool_576.txt	LTP259	ltpFR2	10	9	SHRUB	1299	n/a	n/a	0	0	0
2151287	WORD	wordpools/wasnorm_wordpool_576.txt	LTP259	ltpFR2	10	9	CLOCK	325	n/a	n/a	0	0	0
2153931	WORD	wordpools/wasnorm_wordpool_576.txt	LTP259	ltpFR2	10	9	SPOUSE	1358	n/a	n/a	0	0	0
2156552	WORD	wordpools/wasnorm_wordpool_576.txt	LTP259	ltpFR2	10	9	PARSLEY	1016	n/a	n/a	0	0	0
2159180	WORD	wordpools/wasnorm_wordpool_576.txt	LTP259	ltpFR2	10	9	LAGOON	795	n/a	n/a	0	0	0
2161978	WORD	wordpools/wasnorm_wordpool_576.txt	LTP259	ltpFR2	10	9	GLOVE	642	n/a	n/a	0	0	0
2164737	WORD	wordpools/wasnorm_wordpool_576.txt	LTP259	ltpFR2	10	9	RADISH	1158	n/a	n/a	0	0	0
2167264	WORD	wordpools/wasnorm_wordpool_576.txt	LTP259	ltpFR2	10	9	CURTAIN	427	n/a	n/a	0	0	0
2169723	WORD	wordpools/wasnorm_wordpool_576.txt	LTP259	ltpFR2	10	9	FOOTBALL	591	n/a	n/a	0	0	0
2172283	WORD	wordpools/wasnorm_wordpool_576.txt	LTP259	ltpFR2	10	9	CONCERT	360	n/a	n/a	0	0	0
2174792	WORD	wordpools/wasnorm_wordpool_576.txt	LTP259	ltpFR2	10	9	PRINCESS	1125	n/a	n/a	0	0	0
2177213	WORD	wordpools/wasnorm_wordpool_576.txt	LTP259	ltpFR2	10	9	QUEEN	1149	n/a	n/a	0	0	0
2179912	WORD	wordpools/wasnorm_wordpool_576.txt	LTP259	ltpFR2	10	9	JUGGLER	763	n/a	n/a	0	0	0
2182483	WORD	wordpools/wasnorm_wordpool_576.txt	LTP259	ltpFR2	10	9	GYMNAST	675	n/a	n/a	0	0	0
2185032	WORD	wordpools/wasnorm_wordpool_576.txt	LTP259	ltpFR2	10	9	PASTA	1021	n/a	n/a	0	0	0
2187624	WORD	wordpools/wasnorm_wordpool_576.txt	LTP259	ltpFR2	10	9	HAND	683	n/a	n/a	0	0	0
2190046	WORD	wordpools/wasnorm_wordpool_576.txt	LTP259	ltpFR2	10	9	FINGER	567	n/a	n/a	0	0	0
2192855	WORD	wordpools/wasnorm_wordpool_576.txt	LTP259	ltpFR2	10	9	PICNIC	1060	n/a	n/a	0	0	0
2195616	WORD	wordpools/wasnorm_wordpool_576.txt	LTP259	ltpFR2	10	9	ANTLER	29	n/a	n/a	0	0	0
2197227	START	n/a	LTP259	ltpFR2	10	n/a	n/a	n/a	11	n/a	n/a	n/a	n/a
2198121	DISTRACTOR	n/a	LTP259	ltpFR2	10	9	n/a	n/a	n/a	n/a	0	0	0
2198131	PROB	n/a	LTP259	ltpFR2	10	n/a	n/a	n/a	11	18	6	7	5
2200539	PROB	n/a	LTP259	ltpFR2	10	n/a	n/a	n/a	11	16	3	9	4
2203680	PROB	n/a	LTP259	ltpFR2	10	n/a	n/a	n/a	11	16	8	3	5
2205754	PROB	n/a	LTP259	ltpFR2	10	n/a	n/a	n/a	11	14	2	8	4
2207427	PROB	n/a	LTP259	ltpFR2	10	n/a	n/a	n/a	11	16	8	1	7
2209585	PROB	n/a	LTP259	ltpFR2	10	n/a	n/a	n/a	11	17	9	1	7
2211197	PROB	n/a	LTP259	ltpFR2	10	n/a	n/a	n/a	11	11	8	1	2
2213037	PROB	n/a	LTP259	ltpFR2	10	n/a	n/a	n/a	11	18	4	7	7
2215045	PROB	n/a	LTP259	ltpFR2	10	n/a	n/a	n/a	11	15	9	2	4
2216997	PROB	n/a	LTP259	ltpFR2	10	n/a	n/a	n/a	11	8	5	2	1
2218569	PROB	n/a	LTP259	ltpFR2	10	n/a	n/a	n/a	11	5	2	1	2
2219928	STOP	n/a	LTP259	ltpFR2	10	n/a	n/a	n/a	11	n/a	n/a	n/a	n/a
2223088	REC_START	n/a	LTP259	ltpFR2	10	9	n/a	n/a	n/a	n/a	0	0	0
2225825	REC_WORD	wordpools/wasnorm_wordpool_576.txt	LTP259	ltpFR2	10	9	JUGGLER	763	n/a	n/a	0	0	0
2226440	REC_WORD	wordpools/wasnorm_wordpool_576.txt	LTP259	ltpFR2	10	9	QUEEN	1149	n/a	n/a	0	0	0
2227038	REC_WORD	wordpools/wasnorm_wordpool_576.txt	LTP259	ltpFR2	10	9	PRINCESS	1125	n/a	n/a	0	0	0
2227699	REC_WORD	wordpools/wasnorm_wordpool_576.txt	LTP259	ltpFR2	10	9	SHRUB	1299	n/a	n/a	0	0	0
2236337	REC_WORD	wordpools/wasnorm_wordpool_576.txt	LTP259	ltpFR2	10	9	ANTLER	29	n/a	n/a	0	0	0
2241061	REC_WORD	wordpools/wasnorm_wordpool_576.txt	LTP259	ltpFR2	10	9	GYMNAST	675	n/a	n/a	0	0	0
2314135	WORD	wordpools/wasnorm_wordpool_576.txt	LTP259	ltpFR2	10	10	EUROPE	541	n/a	n/a	0	0	0
2316655	WORD	wordpools/wasnorm_wordpool_576.txt	LTP259	ltpFR2	10	10	STATUE	1374	n/a	n/a	0	0	0
2319149	WORD	wordpools/wasnorm_wordpool_576.txt	LTP259	ltpFR2	10	10	OMELET	976	n/a	n/a	0	0	0
2321579	WORD	wordpools/wasnorm_wordpool_576.txt	LTP259	ltpFR2	10	10	CASKET	255	n/a	n/a	0	0	0
2324318	WORD	wordpools/wasnorm_wordpool_576.txt	LTP259	ltpFR2	10	10	FOREHEAD	592	n/a	n/a	0	0	0
2327033	WORD	wordpools/wasnorm_wordpool_576.txt	LTP259	ltpFR2	10	10	COUNTY	389	n/a	n/a	0	0	0
2329508	WORD	wordpools/wasnorm_wordpool_576.txt	LTP259	ltpFR2	10	10	OUTLAW	989	n/a	n/a	0	0	0
2332119	WORD	wordpools/wasnorm_wordpool_576.txt	LTP259	ltpFR2	10	10	COCKTAIL	338	n/a	n/a	0	0	0
2334829	WORD	wordpools/wasnorm_wordpool_576.txt	LTP259	ltpFR2	10	10	DRAWING	494	n/a	n/a	0	0	0
2337522	WORD	wordpools/wasnorm_wordpool_576.txt	LTP259	ltpFR2	10	10	PEBBLE	1035	n/a	n/a	0	0	0
2339961	WORD	wordpools/wasnorm_wordpool_576.txt	LTP259	ltpFR2	10	10	CORAL	378	n/a	n/a	0	0	0
2342574	WORD	wordpools/wasnorm_wordpool_576.txt	LTP259	ltpFR2	10	10	SLIME	1327	n/a	n/a	0	0	0
2345035	WORD	wordpools/wasnorm_wordpool_576.txt	LTP259	ltpFR2	10	10	GRILL	661	n/a	n/a	0	0	0
2347756	WORD	wordpools/wasnorm_wordpool_576.txt	LTP259	ltpFR2	10	10	WAITRESS	1581	n/a	n/a	0	0	0
2350449	WORD	wordpools/wasnorm_wordpool_576.txt	LTP259	ltpFR2	10	10	APPLE	33	n/a	n/a	0	0	0
2353165	WORD	wordpools/wasnorm_wordpool_576.txt	LTP259	ltpFR2	10	10	SCOTCH	1251	n/a	n/a	0	0	0
2355791	WORD	wordpools/wasnorm_wordpool_576.txt	LTP259	ltpFR2	10	10	FLASK	576	n/a	n/a	0	0	0
2358396	WORD	wordpools/wasnorm_wordpool_576.txt	LTP259	ltpFR2	10	10	GARBAGE	622	n/a	n/a	0	0	0
2361095	WORD	wordpools/wasnorm_wordpool_576.txt	LTP259	ltpFR2	10	10	PEACH	1031	n/a	n/a	0	0	0
2363754	WORD	wordpools/wasnorm_wordpool_576.txt	LTP259	ltpFR2	10	10	SHORTCAKE	1292	n/a	n/a	0	0	0
2366414	WORD	wordpools/wasnorm_wordpool_576.txt	LTP259	ltpFR2	10	10	CRITIC	410	n/a	n/a	0	0	0
2368870	WORD	wordpools/wasnorm_wordpool_576.txt	LTP259	ltpFR2	10	10	GROUND	666	n/a	n/a	0	0	0
2371479	WORD	wordpools/wasnorm_wordpool_576.txt	LTP259	ltpFR2	10	10	TOMBSTONE	1478	n/a	n/a	0	0	0
2373910	WORD	wordpools/wasnorm_wordpool_576.txt	LTP259	ltpFR2	10	10	RIVER	1194	n/a	n/a	0	0	0
2375528	START	n/a	LTP259	ltpFR2	10	n/a	n/a	n/a	12	n/a	n/a	n/a	n/a
2376407	DISTRACTOR	n/a	LTP259	ltpFR2	10	10	n/a	n/a	n/a	n/a	0	0	0
2376419	PROB	n/a	LTP259	ltpFR2	10	n/a	n/a	n/a	12	19	3	7	9
2378739	PROB	n/a	LTP259	ltpFR2	10	n/a	n/a	n/a	12	11	2	6	2
2381634	PROB	n/a	LTP259	ltpFR2	10	n/a	n/a	n/a	12	15	3	5	7
2385281	PROB	n/a	LTP259	ltpFR2	10	n/a	n/a	n/a	12	15	4	4	7
2388777	PROB	n/a	LTP259	ltpFR2	10	n/a	n/a	n/a	12	15	4	8	3
2392898	PROB	n/a	LTP259	ltpFR2	10	n/a	n/a	n/a	12	17	7	9	1
2394231	PROB	n/a	LTP259	ltpFR2	10	n/a	n/a	n/a	12	6	1	3	2
2396089	PROB	n/a	LTP259	ltpFR2	10	n/a	n/a	n/a	12	10	7	2	1
2399528	STOP	n/a	LTP259	ltpFR2	10	n/a	n/a	n/a	12	n/a	n/a	n/a	n/a
2401414	REC_START	n/a	LTP259	ltpFR2	10	10	n/a	n/a	n/a	n/a	0	0	0
2402019	REC_WORD	wordpools/wasnorm_wordpool_576.txt	LTP259	ltpFR2	10	10	PEACH	1031	n/a	n/a	0	0	0
2402523	REC_WORD	wordpools/wasnorm_wordpool_576.txt	LTP259	ltpFR2	10	10	FLASK	576	n/a	n/a	0	0	0
2403118	REC_WORD	wordpools/wasnorm_wordpool_576.txt	LTP259	ltpFR2	10	10	SHORTBREAD	-1	n/a	n/a	0	0	0
2404386	REC_WORD	wordpools/wasnorm_wordpool_576.txt	LTP259	ltpFR2	10	10	COCKTAIL	338	n/a	n/a	0	0	0
2406479	REC_WORD	wordpools/wasnorm_wordpool_576.txt	LTP259	ltpFR2	10	10	GARBAGE	622	n/a	n/a	0	0	0
2492456	DISTRACTOR	n/a	LTP259	ltpFR2	10	11	n/a	n/a	n/a	n/a	0	0	0
2492456	START	n/a	LTP259	ltpFR2	10	n/a	n/a	n/a	13	n/a	n/a	n/a	n/a
2492506	PROB	n/a	LTP259	ltpFR2	10	n/a	n/a	n/a	13	16	9	5	2
2494425	PROB	n/a	LTP259	ltpFR2	10	n/a	n/a	n/a	13	19	7	3	9
2496517	PROB	n/a	LTP259	ltpFR2	10	n/a	n/a	n/a	13	13	2	9	2
2498445	PROB	n/a	LTP259	ltpFR2	10	n/a	n/a	n/a	13	15	3	5	7
2499914	PROB	n/a	LTP259	ltpFR2	10	n/a	n/a	n/a	13	14	7	3	4
2501202	PROB	n/a	LTP259	ltpFR2	10	n/a	n/a	n/a	13	14	5	5	4
2502444	PROB	n/a	LTP259	ltpFR2	10	n/a	n/a	n/a	13	14	4	4	6
2503912	PROB	n/a	LTP259	ltpFR2	10	n/a	n/a	n/a	13	15	1	5	9
2505355	PROB	n/a	LTP259	ltpFR2	10	n/a	n/a	n/a	13	12	4	4	4
2506705	PROB	n/a	LTP259	ltpFR2	10	n/a	n/a	n/a	13	21	4	8	9
2511557	PROB	n/a	LTP259	ltpFR2	10	n/a	n/a	n/a	13	21	7	8	6
2516456	STOP	n/a	LTP259	ltpFR2	10	n/a	n/a	n/a	13	n/a	n/a	n/a	n/a
2517383	WORD	wordpools/wasnorm_wordpool_576.txt	LTP259	ltpFR2	10	11	ISLAND	745	n/a	n/a	0	0	0
2520061	WORD	wordpools/wasnorm_wordpool_576.txt	LTP259	ltpFR2	10	11	LAMP	798	n/a	n/a	0	0	0
2522849	WORD	wordpools/wasnorm_wordpool_576.txt	LTP259	ltpFR2	10	11	HAWK	692	n/a	n/a	0	0	0
2525564	WORD	wordpools/wasnorm_wordpool_576.txt	LTP259	ltpFR2	10	11	MATCH	878	n/a	n/a	0	0	0
2528041	WORD	wordpools/wasnorm_wordpool_576.txt	LTP259	ltpFR2	10	11	COUCH	386	n/a	n/a	0	0	0
2530800	WORD	wordpools/wasnorm_wordpool_576.txt	LTP259	ltpFR2	10	11	CLAM	315	n/a	n/a	0	0	0
2533276	WORD	wordpools/wasnorm_wordpool_576.txt	LTP259	ltpFR2	10	11	TURTLE	1522	n/a	n/a	0	0	0
2535803	WORD	wordpools/wasnorm_wordpool_576.txt	LTP259	ltpFR2	10	11	ICEBERG	731	n/a	n/a	0	0	0
2538279	WORD	wordpools/wasnorm_wordpool_576.txt	LTP259	ltpFR2	10	11	TUBA	1515	n/a	n/a	0	0	0
2541086	WORD	wordpools/wasnorm_wordpool_576.txt	LTP259	ltpFR2	10	11	DONKEY	484	n/a	n/a	0	0	0
2543884	WORD	wordpools/wasnorm_wordpool_576.txt	LTP259	ltpFR2	10	11	TURNIP	1521	n/a	n/a	0	0	0
2546493	WORD	wordpools/wasnorm_wordpool_576.txt	LTP259	ltpFR2	10	11	FLUTE	585	n/a	n/a	0	0	0
2549082	WORD	wordpools/wasnorm_wordpool_576.txt	LTP259	ltpFR2	10	11	HORSE	719	n/a	n/a	0	0	0
2551641	WORD	wordpools/wasnorm_wordpool_576.txt	LTP259	ltpFR2	10	11	PATIENT	1024	n/a	n/a	0	0	0
2554255	WORD	wordpools/wasnorm_wordpool_576.txt	LTP259	ltpFR2	10	11	VIRUS	1572	n/a	n/a	0	0	0
2556967	WORD	wordpools/wasnorm_wordpool_576.txt	LTP259	ltpFR2	10	11	CRIB	407	n/a	n/a	0	0	0
2559760	WORD	wordpools/wasnorm_wordpool_576.txt	LTP259	ltpFR2	10	11	LEG	809	n/a	n/a	0	0	0
2562453	WORD	wordpools/wasnorm_wordpool_576.txt	LTP259	ltpFR2	10	11	TREAT	1501	n/a	n/a	0	0	0
2564897	WORD	wordpools/wasnorm_wordpool_576.txt	LTP259	ltpFR2	10	11	PIMPLE	1071	n/a	n/a	0	0	0
2567656	WORD	wordpools/wasnorm_wordpool_576.txt	LTP259	ltpFR2	10	11	PADDING	999	n/a	n/a	0	0	0
2570350	WORD	wordpools/wasnorm_wordpool_576.txt	LTP259	ltpFR2	10	11	LADY	794	n/a	n/a	0	0	0
2572821	WORD	wordpools/wasnorm_wordpool_576.txt	LTP259	ltpFR2	10	11	HARP	689	n/a	n/a	0	0	0
2575419	WORD	wordpools/wasnorm_wordpool_576.txt	LTP259	ltpFR2	10	11	BANJO	82	n/a	n/a	0	0	0
2578113	WORD	wordpools/wasnorm_wordpool_576.txt	LTP259	ltpFR2	10	11	BEAST	108	n/a	n/a	0	0	0
2579730	START	n/a	LTP259	ltpFR2	10	n/a	n/a	n/a	14	n/a	n/a	n/a	n/a
2580859	DISTRACTOR	n/a	LTP259	ltpFR2	10	11	n/a	n/a	n/a	n/a	0	0	0
2580874	PROB	n/a	LTP259	ltpFR2	10	n/a	n/a	n/a	14	11	4	6	1
2583010	PROB	n/a	LTP259	ltpFR2	10	n/a	n/a	n/a	14	18	5	9	4
2585535	PROB	n/a	LTP259	ltpFR2	10	n/a	n/a	n/a	14	6	2	2	2
2586930	PROB	n/a	LTP259	ltpFR2	10	n/a	n/a	n/a	14	7	4	2	1
2588781	PROB	n/a	LTP259	ltpFR2	10	n/a	n/a	n/a	14	15	7	3	5
2590437	PROB	n/a	LTP259	ltpFR2	10	n/a	n/a	n/a	14	23	5	9	9
2592948	PROB	n/a	LTP259	ltpFR2	10	n/a	n/a	n/a	14	12	8	1	3
2594888	PROB	n/a	LTP259	ltpFR2	10	n/a	n/a	n/a	14	23	8	8	7
2597413	PROB	n/a	LTP259	ltpFR2	10	n/a	n/a	n/a	14	14	7	6	1
2599756	PROB	n/a	LTP259	ltpFR2	10	n/a	n/a	n/a	14	18	7	6	5
2603729	STOP	n/a	LTP259	ltpFR2	10	n/a	n/a	n/a	14	n/a	n/a	n/a	n/a
2605566	REC_START	n/a	LTP259	ltpFR2	10	11	n/a	n/a	n/a	n/a	0	0	0
2607246	REC_WORD	wordpools/wasnorm_wordpool_576.txt	LTP259	ltpFR2	10	11	BANJO	82	n/a	n/a	0	0	0
2677447	REC_WORD	wordpools/wasnorm_wordpool_576.txt	LTP259	ltpFR2	10	11	CLAM	315	n/a	n/a	0	0	0
2696592	DISTRACTOR	n/a	LTP259	ltpFR2	10	12	n/a	n/a	n/a	n/a	0	0	0
2696592	START	n/a	LTP259	ltpFR2	10	n/a	n/a	n/a	15	n/a	n/a	n/a	n/a
2696642	PROB	n/a	LTP259	ltpFR2	10	n/a	n/a	n/a	15	18	7	5	6
2699186	PROB	n/a	LTP259	ltpFR2	10	n/a	n/a	n/a	15	15	9	4	2
2703329	PROB	n/a	LTP259	ltpFR2	10	n/a	n/a	n/a	15	19	5	9	5
2705037	PROB	n/a	LTP259	ltpFR2	10	n/a	n/a	n/a	15	20	5	7	8
2708115	PROB	n/a	LTP259	ltpFR2	10	n/a	n/a	n/a	15	11	8	2	1
2709603	PROB	n/a	LTP259	ltpFR2	10	n/a	n/a	n/a	15	19	9	9	1
2711126	PROB	n/a	LTP259	ltpFR2	10	n/a	n/a	n/a	15	7	1	2	4
2712900	PROB	n/a	LTP259	ltpFR2	10	n/a	n/a	n/a	15	14	5	5	4
2714371	PROB	n/a	LTP259	ltpFR2	10	n/a	n/a	n/a	15	16	9	3	4
2717037	PROB	n/a	LTP259	ltpFR2	10	n/a	n/a	n/a	15	15	5	2	8
2719335	STOP	n/a	LTP259	ltpFR2	10	n/a	n/a	n/a	15	n/a	n/a	n/a	n/a
2721636	WORD	wordpools/wasnorm_wordpool_576.txt	LTP259	ltpFR2	10	12	TRIBE	1505	n/a	n/a	0	0	0
2724292	WORD	wordpools/wasnorm_wordpool_576.txt	LTP259	ltpFR2	10	12	WAGON	1578	n/a	n/a	0	0	0
2727024	WORD	wordpools/wasnorm_wordpool_576.txt	LTP259	ltpFR2	10	12	CONTRACT	368	n/a	n/a	0	0	0
2729628	WORD	wordpools/wasnorm_wordpool_576.txt	LTP259	ltpFR2	10	12	GLASS	639	n/a	n/a	0	0	0
2732355	WORD	wordpools/wasnorm_wordpool_576.txt	LTP259	ltpFR2	10	12	CANDY	230	n/a	n/a	0	0	0
2734798	WORD	wordpools/wasnorm_wordpool_576.txt	LTP259	ltpFR2	10	12	CONVICT	371	n/a	n/a	0	0	0
2737396	WORD	wordpools/wasnorm_wordpool_576.txt	LTP259	ltpFR2	10	12	AGENT	10	n/a	n/a	0	0	0
2739889	WORD	wordpools/wasnorm_wordpool_576.txt	LTP259	ltpFR2	10	12	PATROL	1027	n/a	n/a	0	0	0
2742565	WORD	wordpools/wasnorm_wordpool_576.txt	LTP259	ltpFR2	10	12	HEADBAND	696	n/a	n/a	0	0	0
2745188	WORD	wordpools/wasnorm_wordpool_576.txt	LTP259	ltpFR2	10	12	ACTOR	5	n/a	n/a	0	0	0
2747618	WORD	wordpools/wasnorm_wordpool_576.txt	LTP259	ltpFR2	10	12	SNAIL	1332	n/a	n/a	0	0	0
2750044	WORD	wordpools/wasnorm_wordpool_576.txt	LTP259	ltpFR2	10	12	WASHER	1592	n/a	n/a	0	0	0
2752598	WORD	wordpools/wasnorm_wordpool_576.txt	LTP259	ltpFR2	10	12	CLOTHES	327	n/a	n/a	0	0	0
2755063	WORD	wordpools/wasnorm_wordpool_576.txt	LTP259	ltpFR2	10	12	RAFT	1159	n/a	n/a	0	0	0
2757488	WORD	wordpools/wasnorm_wordpool_576.txt	LTP259	ltpFR2	10	12	COWBOY	395	n/a	n/a	0	0	0
2759944	WORD	wordpools/wasnorm_wordpool_576.txt	LTP259	ltpFR2	10	12	ACTRESS	6	n/a	n/a	0	0	0
2762423	WORD	wordpools/wasnorm_wordpool_576.txt	LTP259	ltpFR2	10	12	SCARF	1246	n/a	n/a	0	0	0
2765101	WORD	wordpools/wasnorm_wordpool_576.txt	LTP259	ltpFR2	10	12	COCOON	339	n/a	n/a	0	0	0
2767760	WORD	wordpools/wasnorm_wordpool_576.txt	LTP259	ltpFR2	10	12	RUST	1219	n/a	n/a	0	0	0
2770298	WORD	wordpools/wasnorm_wordpool_576.txt	LTP259	ltpFR2	10	12	SHOULDER	1294	n/a	n/a	0	0	0
2772796	WORD	wordpools/wasnorm_wordpool_576.txt	LTP259	ltpFR2	10	12	WRIST	1626	n/a	n/a	0	0	0
2775272	WORD	wordpools/wasnorm_wordpool_576.txt	LTP259	ltpFR2	10	12	SPONGE	1355	n/a	n/a	0	0	0
2778067	WORD	wordpools/wasnorm_wordpool_576.txt	LTP259	ltpFR2	10	12	BRANCH	168	n/a	n/a	0	0	0
2780759	WORD	wordpools/wasnorm_wordpool_576.txt	LTP259	ltpFR2	10	12	HATCHET	691	n/a	n/a	0	0	0
2782366	START	n/a	LTP259	ltpFR2	10	n/a	n/a	n/a	16	n/a	n/a	n/a	n/a
2783210	DISTRACTOR	n/a	LTP259	ltpFR2	10	12	n/a	n/a	n/a	n/a	0	0	0
2783218	PROB	n/a	LTP259	ltpFR2	10	n/a	n/a	n/a	16	18	4	8	6
2785728	PROB	n/a	LTP259	ltpFR2	10	n/a	n/a	n/a	16	13	6	6	1
2787250	PROB	n/a	LTP259	ltpFR2	10	n/a	n/a	n/a	16	16	2	8	6
2788601	PROB	n/a	LTP259	ltpFR2	10	n/a	n/a	n/a	16	20	7	4	9
2790596	PROB	n/a	LTP259	ltpFR2	10	n/a	n/a	n/a	16	14	5	8	1
2792281	PROB	n/a	LTP259	ltpFR2	10	n/a	n/a	n/a	16	19	6	7	6
2795193	PROB	n/a	LTP259	ltpFR2	10	n/a	n/a	n/a	16	14	4	1	9
2796681	PROB	n/a	LTP259	ltpFR2	10	n/a	n/a	n/a	16	20	9	2	9
2798655	PROB	n/a	LTP259	ltpFR2	10	n/a	n/a	n/a	16	20	9	4	7
2800869	PROB	n/a	LTP259	ltpFR2	10	n/a	n/a	n/a	16	16	9	6	1
2802620	PROB	n/a	LTP259	ltpFR2	10	n/a	n/a	n/a	16	10	3	2	5
2806366	STOP	n/a	LTP259	ltpFR2	10	n/a	n/a	n/a	16	n/a	n/a	n/a	n/a
2808193	REC_START	n/a	LTP259	ltpFR2	10	12	n/a	n/a	n/a	n/a	0	0	0
2808899	REC_WORD	wordpools/wasnorm_wordpool_576.txt	LTP259	ltpFR2	10	12	BRANCH	168	n/a	n/a	0	0	0
2809560	REC_WORD	wordpools/wasnorm_wordpool_576.txt	LTP259	ltpFR2	10	12	HATCHET	691	n/a	n/a	0	0	0
2810419	REC_WORD	wordpools/wasnorm_wordpool_576.txt	LTP259	ltpFR2	10	12	SHOULDER	1294	n/a	n/a	0	0	0
2811131	REC_WORD	wordpools/wasnorm_wordpool_576.txt	LTP259	ltpFR2	10	12	RUST	1219	n/a	n/a	0	0	0
2811709	REC_WORD	wordpools/wasnorm_wordpool_576.txt	LTP259	ltpFR2	10	12	SPONGE	1355	n/a	n/a	0	0	0
2823158	REC_WORD	wordpools/wasnorm_wordpool_576.txt	LTP259	ltpFR2	10	12	WAGON	1578	n/a	n/a	0	0	0
2899239	DISTRACTOR	n/a	LTP259	ltpFR2	10	13	n/a	n/a	n/a	n/a	0	0	0
2899239	START	n/a	LTP259	ltpFR2	10	n/a	n/a	n/a	17	n/a	n/a	n/a	n/a
2899289	PROB	n/a	LTP259	ltpFR2	10	n/a	n/a	n/a	17	12	2	7	4
2903371	PROB	n/a	LTP259	ltpFR2	10	n/a	n/a	n/a	17	15	3	3	9
2905994	PROB	n/a	LTP259	ltpFR2	10	n/a	n/a	n/a	17	15	7	2	6
2907633	PROB	n/a	LTP259	ltpFR2	10	n/a	n/a	n/a	17	14	6	6	2
2909243	PROB	n/a	LTP259	ltpFR2	10	n/a	n/a	n/a	17	19	9	1	9
2910644	PROB	n/a	LTP259	ltpFR2	10	n/a	n/a	n/a	17	17	6	7	4
2913827	PROB	n/a	LTP259	ltpFR2	10	n/a	n/a	n/a	17	21	8	9	4
2916248	PROB	n/a	LTP259	ltpFR2	10	n/a	n/a	n/a	17	15	5	1	9
2917520	PROB	n/a	LTP259	ltpFR2	10	n/a	n/a	n/a	17	21	4	9	8
2923238	STOP	n/a	LTP259	ltpFR2	10	n/a	n/a	n/a	17	n/a	n/a	n/a	n/a
2924413	WORD	wordpools/wasnorm_wordpool_576.txt	LTP259	ltpFR2	10	13	VELVET	1555	n/a	n/a	0	0	0
2926978	WORD	wordpools/wasnorm_wordpool_576.txt	LTP259	ltpFR2	10	13	PRIMATE	1123	n/a	n/a	0	0	0
2929549	WORD	wordpools/wasnorm_wordpool_576.txt	LTP259	ltpFR2	10	13	POWDER	1117	n/a	n/a	0	0	0
2932080	WORD	wordpools/wasnorm_wordpool_576.txt	LTP259	ltpFR2	10	13	SWIMMER	1420	n/a	n/a	0	0	0
2934790	WORD	wordpools/wasnorm_wordpool_576.txt	LTP259	ltpFR2	10	13	SEAGULL	1261	n/a	n/a	0	0	0
2937550	WORD	wordpools/wasnorm_wordpool_576.txt	LTP259	ltpFR2	10	13	WHISTLE	1606	n/a	n/a	0	0	0
2940178	WORD	wordpools/wasnorm_wordpool_576.txt	LTP259	ltpFR2	10	13	YARN	1631	n/a	n/a	0	0	0
2942917	WORD	wordpools/wasnorm_wordpool_576.txt	LTP259	ltpFR2	10	13	THREAD	1460	n/a	n/a	0	0	0
2945525	WORD	wordpools/wasnorm_wordpool_576.txt	LTP259	ltpFR2	10	13	JUNGLE	764	n/a	n/a	0	0	0
2947974	WORD	wordpools/wasnorm_wordpool_576.txt	LTP259	ltpFR2	10	13	HAMPER	682	n/a	n/a	0	0	0
2950633	WORD	wordpools/wasnorm_wordpool_576.txt	LTP259	ltpFR2	10	13	FEMALE	559	n/a	n/a	0	0	0
2953343	WORD	wordpools/wasnorm_wordpool_576.txt	LTP259	ltpFR2	10	13	RACKET	1155	n/a	n/a	0	0	0
2955987	WORD	wordpools/wasnorm_wordpool_576.txt	LTP259	ltpFR2	10	13	SWAMP	1416	n/a	n/a	0	0	0
2958780	WORD	wordpools/wasnorm_wordpool_576.txt	LTP259	ltpFR2	10	13	PLASTER	1085	n/a	n/a	0	0	0
2961591	WORD	wordpools/wasnorm_wordpool_576.txt	LTP259	ltpFR2	10	13	DASHBOARD	441	n/a	n/a	0	0	0
2964080	WORD	wordpools/wasnorm_wordpool_576.txt	LTP259	ltpFR2	10	13	SOFTBALL	1343	n/a	n/a	0	0	0
2966593	WORD	wordpools/wasnorm_wordpool_576.txt	LTP259	ltpFR2	10	13	DAUGHTER	442	n/a	n/a	0	0	0
2969270	WORD	wordpools/wasnorm_wordpool_576.txt	LTP259	ltpFR2	10	13	MARSH	874	n/a	n/a	0	0	0
2971729	WORD	wordpools/wasnorm_wordpool_576.txt	LTP259	ltpFR2	10	13	ARM	38	n/a	n/a	0	0	0
2974468	WORD	wordpools/wasnorm_wordpool_576.txt	LTP259	ltpFR2	10	13	MARROW	872	n/a	n/a	0	0	0
2977250	WORD	wordpools/wasnorm_wordpool_576.txt	LTP259	ltpFR2	10	13	NECKLACE	940	n/a	n/a	0	0	0
2979889	WORD	wordpools/wasnorm_wordpool_576.txt	LTP259	ltpFR2	10	13	MEDAL	885	n/a	n/a	0	0	0
2982665	WORD	wordpools/wasnorm_wordpool_576.txt	LTP259	ltpFR2	10	13	BRAKE	166	n/a	n/a	0	0	0
2985197	WORD	wordpools/wasnorm_wordpool_576.txt	LTP259	ltpFR2	10	13	BLENDER	136	n/a	n/a	0	0	0
2986803	START	n/a	LTP259	ltpFR2	10	n/a	n/a	n/a	18	n/a	n/a	n/a	n/a
2987866	DISTRACTOR	n/a	LTP259	ltpFR2	10	13	n/a	n/a	n/a	n/a	0	0	0
2987874	PROB	n/a	LTP259	ltpFR2	10	n/a	n/a	n/a	18	11	4	4	3
2990729	PROB	n/a	LTP259	ltpFR2	10	n/a	n/a	n/a	18	17	8	7	2
2993473	PROB	n/a	LTP259	ltpFR2	10	n/a	n/a	n/a	18	23	7	8	8
2995363	PROB	n/a	LTP259	ltpFR2	10	n/a	n/a	n/a	18	18	5	5	8
2996836	PROB	n/a	LTP259	ltpFR2	10	n/a	n/a	n/a	18	18	7	4	7
2999328	PROB	n/a	LTP259	ltpFR2	10	n/a	n/a	n/a	18	23	6	9	8
3003745	PROB	n/a	LTP259	ltpFR2	10	n/a	n/a	n/a	18	9	2	3	4
3005875	PROB	n/a	LTP259	ltpFR2	10	n/a	n/a	n/a	18	16	3	7	6
3007832	PROB	n/a	LTP259	ltpFR2	10	n/a	n/a	n/a	18	22	6	8	8
3010359	STOP	n/a	LTP259	ltpFR2	10	n/a	n/a	n/a	18	n/a	n/a	n/a	n/a
3012663	REC_START	n/a	LTP259	ltpFR2	10	13	n/a	n/a	n/a	n/a	0	0	0
3013580	REC_WORD	wordpools/wasnorm_wordpool_576.txt	LTP259	ltpFR2	10	13	VELVET	1555	n/a	n/a	0	0	0
3014572	REC_WORD	wordpools/wasnorm_wordpool_576.txt	LTP259	ltpFR2	10	13	PRIMATE	1123	n/a	n/a	0	0	0
3016757	REC_WORD	wordpools/wasnorm_wordpool_576.txt	LTP259	ltpFR2	10	13	SEAGULL	1261	n/a	n/a	0	0	0
3017611	REC_WORD	wordpools/wasnorm_wordpool_576.txt	LTP259	ltpFR2	10	13	THREAD	1460	n/a	n/a	0	0	0
3019676	REC_WORD	wordpools/wasnorm_wordpool_576.txt	LTP259	ltpFR2	10	13	YARN	1631	n/a	n/a	0	0	0
3020276	REC_WORD	wordpools/wasnorm_wordpool_576.txt	LTP259	ltpFR2	10	13	STRING	1394	n/a	n/a	0	0	0
3022134	REC_WORD	wordpools/wasnorm_wordpool_576.txt	LTP259	ltpFR2	10	13	JUNGLE	764	n/a	n/a	0	0	0
3023942	REC_WORD	wordpools/wasnorm_wordpool_576.txt	LTP259	ltpFR2	10	13	HAMPER	682	n/a	n/a	0	0	0
3039364	REC_WORD	wordpools/wasnorm_wordpool_576.txt	LTP259	ltpFR2	10	13	WHISTLE	1606	n/a	n/a	0	0	0
3103710	DISTRACTOR	n/a	LTP259	ltpFR2	10	14	n/a	n/a	n/a	n/a	0	0	0
3103710	START	n/a	LTP259	ltpFR2	10	n/a	n/a	n/a	19	n/a	n/a	n/a	n/a
3103760	PROB	n/a	LTP259	ltpFR2	10	n/a	n/a	n/a	19	20	7	6	7
3106432	PROB	n/a	LTP259	ltpFR2	10	n/a	n/a	n/a	19	22	4	7	2
3112154	PROB	n/a	LTP259	ltpFR2	10	n/a	n/a	n/a	19	17	8	4	5
3115204	PROB	n/a	LTP259	ltpFR2	10	n/a	n/a	n/a	19	13	5	3	5
3116804	PROB	n/a	LTP259	ltpFR2	10	n/a	n/a	n/a	19	13	1	4	8
3119419	PROB	n/a	LTP259	ltpFR2	10	n/a	n/a	n/a	19	13	1	8	4
3121840	PROB	n/a	LTP259	ltpFR2	10	n/a	n/a	n/a	19	8	2	4	2
3124066	PROB	n/a	LTP259	ltpFR2	10	n/a	n/a	n/a	19	12	7	1	4
3127710	STOP	n/a	LTP259	ltpFR2	10	n/a	n/a	n/a	19	n/a	n/a	n/a	n/a
3128587	WORD	wordpools/wasnorm_wordpool_576.txt	LTP259	ltpFR2	10	14	CABBAGE	210	n/a	n/a	0	0	0
3131126	WORD	wordpools/wasnorm_wordpool_576.txt	LTP259	ltpFR2	10	14	DRAGON	492	n/a	n/a	0	0	0
3133701	WORD	wordpools/wasnorm_wordpool_576.txt	LTP259	ltpFR2	10	14	MUFFIN	929	n/a	n/a	0	0	0
3136133	WORD	wordpools/wasnorm_wordpool_576.txt	LTP259	ltpFR2	10	14	FIDDLE	561	n/a	n/a	0	0	0
3138641	WORD	wordpools/wasnorm_wordpool_576.txt	LTP259	ltpFR2	10	14	CATTLE	261	n/a	n/a	0	0	0
3141197	WORD	wordpools/wasnorm_wordpool_576.txt	LTP259	ltpFR2	10	14	OX	994	n/a	n/a	0	0	0
3143627	WORD	wordpools/wasnorm_wordpool_576.txt	LTP259	ltpFR2	10	14	TURKEY	1520	n/a	n/a	0	0	0
3146316	WORD	wordpools/wasnorm_wordpool_576.txt	LTP259	ltpFR2	10	14	COOKBOOK	373	n/a	n/a	0	0	0
3148763	WORD	wordpools/wasnorm_wordpool_576.txt	LTP259	ltpFR2	10	14	BEEF	113	n/a	n/a	0	0	0
3151523	WORD	wordpools/wasnorm_wordpool_576.txt	LTP259	ltpFR2	10	14	FLEET	578	n/a	n/a	0	0	0
3154017	WORD	wordpools/wasnorm_wordpool_576.txt	LTP259	ltpFR2	10	14	TUTU	1524	n/a	n/a	0	0	0
3156559	WORD	wordpools/wasnorm_wordpool_576.txt	LTP259	ltpFR2	10	14	SHIRT	1287	n/a	n/a	0	0	0
3159269	WORD	wordpools/wasnorm_wordpool_576.txt	LTP259	ltpFR2	10	14	CANAL	226	n/a	n/a	0	0	0
3162081	WORD	wordpools/wasnorm_wordpool_576.txt	LTP259	ltpFR2	10	14	JEANS	752	n/a	n/a	0	0	0
3164539	WORD	wordpools/wasnorm_wordpool_576.txt	LTP259	ltpFR2	10	14	NOTEBOOK	959	n/a	n/a	0	0	0
3167316	WORD	wordpools/wasnorm_wordpool_576.txt	LTP259	ltpFR2	10	14	BURGLAR	200	n/a	n/a	0	0	0
3169854	WORD	wordpools/wasnorm_wordpool_576.txt	LTP259	ltpFR2	10	14	SCARECROW	1245	n/a	n/a	0	0	0
3172603	WORD	wordpools/wasnorm_wordpool_576.txt	LTP259	ltpFR2	10	14	FRIEND	606	n/a	n/a	0	0	0
3175096	WORD	wordpools/wasnorm_wordpool_576.txt	LTP259	ltpFR2	10	14	SMOG	1330	n/a	n/a	0	0	0
3177621	WORD	wordpools/wasnorm_wordpool_576.txt	LTP259	ltpFR2	10	14	CLOUD	328	n/a	n/a	0	0	0
3180115	WORD	wordpools/wasnorm_wordpool_576.txt	LTP259	ltpFR2	10	14	SEAL	1262	n/a	n/a	0	0	0
3182892	WORD	wordpools/wasnorm_wordpool_576.txt	LTP259	ltpFR2	10	14	TABLE	1426	n/a	n/a	0	0	0
3185468	WORD	wordpools/wasnorm_wordpool_576.txt	LTP259	ltpFR2	10	14	BOYFRIEND	162	n/a	n/a	0	0	0
3187945	WORD	wordpools/wasnorm_wordpool_576.txt	LTP259	ltpFR2	10	14	ZIPPER	1636	n/a	n/a	0	0	0
3189562	START	n/a	LTP259	ltpFR2	10	n/a	n/a	n/a	20	n/a	n/a	n/a	n/a
3190703	DISTRACTOR	n/a	LTP259	ltpFR2	10	14	n/a	n/a	n/a	n/a	0	0	0
3190721	PROB	n/a	LTP259	ltpFR2	10	n/a	n/a	n/a	20	12	4	1	7
3194782	PROB	n/a	LTP259	ltpFR2	10	n/a	n/a	n/a	20	18	8	6	4
3196404	PROB	n/a	LTP259	ltpFR2	10	n/a	n/a	n/a	20	17	9	4	4
3199566	PROB	n/a	LTP259	ltpFR2	10	n/a	n/a	n/a	20	17	4	5	8
3202728	PROB	n/a	LTP259	ltpFR2	10	n/a	n/a	n/a	20	12	2	2	8
3204201	PROB	n/a	LTP259	ltpFR2	10	n/a	n/a	n/a	20	18	8	1	9
3205673	PROB	n/a	LTP259	ltpFR2	10	n/a	n/a	n/a	20	14	4	9	1
3206950	PROB	n/a	LTP259	ltpFR2	10	n/a	n/a	n/a	20	8	2	4	2
3208874	PROB	n/a	LTP259	ltpFR2	10	n/a	n/a	n/a	20	16	8	3	5
3210876	PROB	n/a	LTP259	ltpFR2	10	n/a	n/a	n/a	20	12	4	7	1
3213040	STOP	n/a	LTP259	ltpFR2	10	n/a	n/a	n/a	20	n/a	n/a	n/a	n/a
3215465	REC_START	n/a	LTP259	ltpFR2	10	14	n/a	n/a	n/a	n/a	0	0	0
3216582	REC_WORD	wordpools/wasnorm_wordpool_576.txt	LTP259	ltpFR2	10	14	SEAL	1262	n/a	n/a	0	0	0
3218358	REC_WORD	wordpools/wasnorm_wordpool_576.txt	LTP259	ltpFR2	10	14	TABLE	1426	n/a	n/a	0	0	0
3219411	REC_WORD	wordpools/wasnorm_wordpool_576.txt	LTP259	ltpFR2	10	14	BOYFRIEND	162	n/a	n/a	0	0	0
3222667	REC_WORD	wordpools/wasnorm_wordpool_576.txt	LTP259	ltpFR2	10	14	DRAGON	492	n/a	n/a	0	0	0
3223369	REC_WORD	wordpools/wasnorm_wordpool_576.txt	LTP259	ltpFR2	10	14	TUTU	1524	n/a	n/a	0	0	0
3224191	REC_WORD	wordpools/wasnorm_wordpool_576.txt	LTP259	ltpFR2	10	14	JEANS	752	n/a	n/a	0	0	0
3225649	REC_WORD	wordpools/wasnorm_wordpool_576.txt	LTP259	ltpFR2	10	14	SHIRT	1287	n/a	n/a	0	0	0
3228635	REC_WORD	wordpools/wasnorm_wordpool_576.txt	LTP259	ltpFR2	10	14	CATTLE	261	n/a	n/a	0	0	0
3232722	REC_WORD	wordpools/wasnorm_wordpool_576.txt	LTP259	ltpFR2	10	14	BEEF	113	n/a	n/a	0	0	0
3236903	REC_WORD	wordpools/wasnorm_wordpool_576.txt	LTP259	ltpFR2	10	14	OX	994	n/a	n/a	0	0	0
3246447	REC_WORD	wordpools/wasnorm_wordpool_576.txt	LTP259	ltpFR2	10	14	OX	994	n/a	n/a	0	0	0
3249665	REC_WORD	wordpools/wasnorm_wordpool_576.txt	LTP259	ltpFR2	10	14	CABBAGE	210	n/a	n/a	0	0	0
3252323	REC_WORD	wordpools/wasnorm_wordpool_576.txt	LTP259	ltpFR2	10	14	TURKEY	1520	n/a	n/a	0	0	0
3253738	REC_WORD	wordpools/wasnorm_wordpool_576.txt	LTP259	ltpFR2	10	14	COOKBOOK	373	n/a	n/a	0	0	0
3258292	REC_WORD	wordpools/wasnorm_wordpool_576.txt	LTP259	ltpFR2	10	14	FLUTE	585	n/a	n/a	0	0	0
3262611	REC_WORD	wordpools/wasnorm_wordpool_576.txt	LTP259	ltpFR2	10	14	BANJO	82	n/a	n/a	0	0	0
3275154	REC_WORD	wordpools/wasnorm_wordpool_576.txt	LTP259	ltpFR2	10	14	FIDDLE	561	n/a	n/a	0	0	0
3279788	REC_WORD	wordpools/wasnorm_wordpool_576.txt	LTP259	ltpFR2	10	14	FRIEND	606	n/a	n/a	0	0	0
3282248	REC_WORD	wordpools/wasnorm_wordpool_576.txt	LTP259	ltpFR2	10	14	CANAL	226	n/a	n/a	0	0	0
3288367	REC_WORD	wordpools/wasnorm_wordpool_576.txt	LTP259	ltpFR2	10	14	SCARECROW	1245	n/a	n/a	0	0	0
3306491	DISTRACTOR	n/a	LTP259	ltpFR2	10	15	n/a	n/a	n/a	n/a	0	0	0
3306491	START	n/a	LTP259	ltpFR2	10	n/a	n/a	n/a	21	n/a	n/a	n/a	n/a
3306541	PROB	n/a	LTP259	ltpFR2	10	n/a	n/a	n/a	21	17	5	3	9
3309770	PROB	n/a	LTP259	ltpFR2	10	n/a	n/a	n/a	21	14	2	3	9
3313117	PROB	n/a	LTP259	ltpFR2	10	n/a	n/a	n/a	21	17	3	7	7
3314986	PROB	n/a	LTP259	ltpFR2	10	n/a	n/a	n/a	21	12	8	3	1
3317348	PROB	n/a	LTP259	ltpFR2	10	n/a	n/a	n/a	21	7	5	1	1
3318917	PROB	n/a	LTP259	ltpFR2	10	n/a	n/a	n/a	21	21	8	9	4
3321827	PROB	n/a	LTP259	ltpFR2	10	n/a	n/a	n/a	21	10	6	1	3
3323936	PROB	n/a	LTP259	ltpFR2	10	n/a	n/a	n/a	21	13	2	7	4
3327498	PROB	n/a	LTP259	ltpFR2	10	n/a	n/a	n/a	21	11	1	8	2
3329080	STOP	n/a	LTP259	ltpFR2	10	n/a	n/a	n/a	21	n/a	n/a	n/a	n/a
3331418	WORD	wordpools/wasnorm_wordpool_576.txt	LTP259	ltpFR2	10	15	CARRIAGE	248	n/a	n/a	0	0	0
3333873	WORD	wordpools/wasnorm_wordpool_576.txt	LTP259	ltpFR2	10	15	TWEEZERS	1526	n/a	n/a	0	0	0
3336353	WORD	wordpools/wasnorm_wordpool_576.txt	LTP259	ltpFR2	10	15	DINER	467	n/a	n/a	0	0	0
3339031	WORD	wordpools/wasnorm_wordpool_576.txt	LTP259	ltpFR2	10	15	COD	340	n/a	n/a	0	0	0
3341506	WORD	wordpools/wasnorm_wordpool_576.txt	LTP259	ltpFR2	10	15	CHAUFFEUR	283	n/a	n/a	0	0	0
3344083	WORD	wordpools/wasnorm_wordpool_576.txt	LTP259	ltpFR2	10	15	SCALPEL	1243	n/a	n/a	0	0	0
3346709	WORD	wordpools/wasnorm_wordpool_576.txt	LTP259	ltpFR2	10	15	HUMAN	726	n/a	n/a	0	0	0
3349352	WORD	wordpools/wasnorm_wordpool_576.txt	LTP259	ltpFR2	10	15	LAKE	796	n/a	n/a	0	0	0
3352047	WORD	wordpools/wasnorm_wordpool_576.txt	LTP259	ltpFR2	10	15	BROOK	177	n/a	n/a	0	0	0
3354856	WORD	wordpools/wasnorm_wordpool_576.txt	LTP259	ltpFR2	10	15	BODY	145	n/a	n/a	0	0	0
3357550	WORD	wordpools/wasnorm_wordpool_576.txt	LTP259	ltpFR2	10	15	MEAT	883	n/a	n/a	0	0	0
3360010	WORD	wordpools/wasnorm_wordpool_576.txt	LTP259	ltpFR2	10	15	NEUTRON	947	n/a	n/a	0	0	0
3362581	WORD	wordpools/wasnorm_wordpool_576.txt	LTP259	ltpFR2	10	15	OYSTER	995	n/a	n/a	0	0	0
3365163	WORD	wordpools/wasnorm_wordpool_576.txt	LTP259	ltpFR2	10	15	FUNGUS	614	n/a	n/a	0	0	0
3367923	WORD	wordpools/wasnorm_wordpool_576.txt	LTP259	ltpFR2	10	15	RELISH	1183	n/a	n/a	0	0	0
3370381	WORD	wordpools/wasnorm_wordpool_576.txt	LTP259	ltpFR2	10	15	SANDWICH	1232	n/a	n/a	0	0	0
3373026	WORD	wordpools/wasnorm_wordpool_576.txt	LTP259	ltpFR2	10	15	DOUGHNUT	490	n/a	n/a	0	0	0
3375764	WORD	wordpools/wasnorm_wordpool_576.txt	LTP259	ltpFR2	10	15	LABEL	790	n/a	n/a	0	0	0
3378345	WORD	wordpools/wasnorm_wordpool_576.txt	LTP259	ltpFR2	10	15	FLOWER	584	n/a	n/a	0	0	0
3380849	WORD	wordpools/wasnorm_wordpool_576.txt	LTP259	ltpFR2	10	15	JELLY	755	n/a	n/a	0	0	0
3383414	WORD	wordpools/wasnorm_wordpool_576.txt	LTP259	ltpFR2	10	15	MILDEW	893	n/a	n/a	0	0	0
3386158	WORD	wordpools/wasnorm_wordpool_576.txt	LTP259	ltpFR2	10	15	CHURCH	307	n/a	n/a	0	0	0
3388784	WORD	wordpools/wasnorm_wordpool_576.txt	LTP259	ltpFR2	10	15	IDOL	733	n/a	n/a	0	0	0
3391427	WORD	wordpools/wasnorm_wordpool_576.txt	LTP259	ltpFR2	10	15	PUDDING	1139	n/a	n/a	0	0	0
3393035	START	n/a	LTP259	ltpFR2	10	n/a	n/a	n/a	22	n/a	n/a	n/a	n/a
3394142	DISTRACTOR	n/a	LTP259	ltpFR2	10	15	n/a	n/a	n/a	n/a	0	0	0
3394155	PROB	n/a	LTP259	ltpFR2	10	n/a	n/a	n/a	22	25	9	8	8
3396375	PROB	n/a	LTP259	ltpFR2	10	n/a	n/a	n/a	22	11	4	6	1
3397932	PROB	n/a	LTP259	ltpFR2	10	n/a	n/a	n/a	22	22	7	8	7
3399675	PROB	n/a	LTP259	ltpFR2	10	n/a	n/a	n/a	22	23	7	9	7
3402018	PROB	n/a	LTP259	ltpFR2	10	n/a	n/a	n/a	22	14	9	1	4
3403317	PROB	n/a	LTP259	ltpFR2	10	n/a	n/a	n/a	22	15	5	9	1
3404627	PROB	n/a	LTP259	ltpFR2	10	n/a	n/a	n/a	22	9	2	6	1
3406267	PROB	n/a	LTP259	ltpFR2	10	n/a	n/a	n/a	22	13	3	4	6
3409011	PROB	n/a	LTP259	ltpFR2	10	n/a	n/a	n/a	22	17	9	3	5
3410981	PROB	n/a	LTP259	ltpFR2	10	n/a	n/a	n/a	22	21	1	4	7
3413707	PROB	n/a	LTP259	ltpFR2	10	n/a	n/a	n/a	22	13	6	3	4
3416928	STOP	n/a	LTP259	ltpFR2	10	n/a	n/a	n/a	22	n/a	n/a	n/a	n/a
3418860	REC_START	n/a	LTP259	ltpFR2	10	15	n/a	n/a	n/a	n/a	0	0	0
3419370	REC_WORD	wordpools/wasnorm_wordpool_576.txt	LTP259	ltpFR2	10	15	MILDEW	893	n/a	n/a	0	0	0
3420068	REC_WORD	wordpools/wasnorm_wordpool_576.txt	LTP259	ltpFR2	10	15	FUNGUS	614	n/a	n/a	0	0	0
3423285	REC_WORD	wordpools/wasnorm_wordpool_576.txt	LTP259	ltpFR2	10	15	OYSTER	995	n/a	n/a	0	0	0
3423945	REC_WORD	wordpools/wasnorm_wordpool_576.txt	LTP259	ltpFR2	10	15	MUSCLE	-1	n/a	n/a	0	0	0
3509925	WORD	wordpools/wasnorm_wordpool_576.txt	LTP259	ltpFR2	10	16	PERMIT	1051	n/a	n/a	0	0	0
3512713	WORD	wordpools/wasnorm_wordpool_576.txt	LTP259	ltpFR2	10	16	CUSTARD	429	n/a	n/a	0	0	0
3515528	WORD	wordpools/wasnorm_wordpool_576.txt	LTP259	ltpFR2	10	16	INFANT	737	n/a	n/a	0	0	0
3518156	WORD	wordpools/wasnorm_wordpool_576.txt	LTP259	ltpFR2	10	16	CASHEW	253	n/a	n/a	0	0	0
3520883	WORD	wordpools/wasnorm_wordpool_576.txt	LTP259	ltpFR2	10	16	POPCORN	1104	n/a	n/a	0	0	0
3523559	WORD	wordpools/wasnorm_wordpool_576.txt	LTP259	ltpFR2	10	16	CRUTCH	417	n/a	n/a	0	0	0
3526048	WORD	wordpools/wasnorm_wordpool_576.txt	LTP259	ltpFR2	10	16	PUPPY	1144	n/a	n/a	0	0	0
3528511	WORD	wordpools/wasnorm_wordpool_576.txt	LTP259	ltpFR2	10	16	XEROX	1628	n/a	n/a	0	0	0
3530988	WORD	wordpools/wasnorm_wordpool_576.txt	LTP259	ltpFR2	10	16	HEDGE	699	n/a	n/a	0	0	0
3533546	WORD	wordpools/wasnorm_wordpool_576.txt	LTP259	ltpFR2	10	16	DRINK	498	n/a	n/a	0	0	0
3536040	WORD	wordpools/wasnorm_wordpool_576.txt	LTP259	ltpFR2	10	16	BRANDY	169	n/a	n/a	0	0	0
3538527	WORD	wordpools/wasnorm_wordpool_576.txt	LTP259	ltpFR2	10	16	MESSAGE	888	n/a	n/a	0	0	0
3541155	WORD	wordpools/wasnorm_wordpool_576.txt	LTP259	ltpFR2	10	16	FILM	565	n/a	n/a	0	0	0
3543882	WORD	wordpools/wasnorm_wordpool_576.txt	LTP259	ltpFR2	10	16	NURSE	963	n/a	n/a	0	0	0
3546545	WORD	wordpools/wasnorm_wordpool_576.txt	LTP259	ltpFR2	10	16	TERMITE	1451	n/a	n/a	0	0	0
3549051	WORD	wordpools/wasnorm_wordpool_576.txt	LTP259	ltpFR2	10	16	TEMPLE	1448	n/a	n/a	0	0	0
3551878	WORD	wordpools/wasnorm_wordpool_576.txt	LTP259	ltpFR2	10	16	GAVEL	627	n/a	n/a	0	0	0
3554592	WORD	wordpools/wasnorm_wordpool_576.txt	LTP259	ltpFR2	10	16	MOTOR	922	n/a	n/a	0	0	0
3557302	WORD	wordpools/wasnorm_wordpool_576.txt	LTP259	ltpFR2	10	16	PISTOL	1075	n/a	n/a	0	0	0
3559795	WORD	wordpools/wasnorm_wordpool_576.txt	LTP259	ltpFR2	10	16	GRAVEL	659	n/a	n/a	0	0	0
3562372	WORD	wordpools/wasnorm_wordpool_576.txt	LTP259	ltpFR2	10	16	SIDEWALK	1303	n/a	n/a	0	0	0
3565150	WORD	wordpools/wasnorm_wordpool_576.txt	LTP259	ltpFR2	10	16	ELBOW	520	n/a	n/a	0	0	0
3567939	WORD	wordpools/wasnorm_wordpool_576.txt	LTP259	ltpFR2	10	16	BLADE	134	n/a	n/a	0	0	0
3570380	WORD	wordpools/wasnorm_wordpool_576.txt	LTP259	ltpFR2	10	16	RIFLE	1192	n/a	n/a	0	0	0
3571992	START	n/a	LTP259	ltpFR2	10	n/a	n/a	n/a	23	n/a	n/a	n/a	n/a
3572953	DISTRACTOR	n/a	LTP259	ltpFR2	10	16	n/a	n/a	n/a	n/a	0	0	0
3572962	PROB	n/a	LTP259	ltpFR2	10	n/a	n/a	n/a	23	17	1	7	9
3574668	PROB	n/a	LTP259	ltpFR2	10	n/a	n/a	n/a	23	5	2	2	1
3577323	PROB	n/a	LTP259	ltpFR2	10	n/a	n/a	n/a	23	20	7	9	4
3579699	PROB	n/a	LTP259	ltpFR2	10	n/a	n/a	n/a	23	20	9	4	7
3582643	PROB	n/a	LTP259	ltpFR2	10	n/a	n/a	n/a	23	19	3	7	9
3584155	PROB	n/a	LTP259	ltpFR2	10	n/a	n/a	n/a	23	15	5	2	8
3585609	PROB	n/a	LTP259	ltpFR2	10	n/a	n/a	n/a	23	10	1	6	3
3587378	PROB	n/a	LTP259	ltpFR2	10	n/a	n/a	n/a	23	16	6	9	1
3588666	PROB	n/a	LTP259	ltpFR2	10	n/a	n/a	n/a	23	10	8	1	1
3590005	PROB	n/a	LTP259	ltpFR2	10	n/a	n/a	n/a	23	12	2	4	6
3591360	PROB	n/a	LTP259	ltpFR2	10	n/a	n/a	n/a	23	18	5	6	7
3595992	STOP	n/a	LTP259	ltpFR2	10	n/a	n/a	n/a	23	n/a	n/a	n/a	n/a
3597903	REC_START	n/a	LTP259	ltpFR2	10	16	n/a	n/a	n/a	n/a	0	0	0
3598700	REC_WORD	wordpools/wasnorm_wordpool_576.txt	LTP259	ltpFR2	10	16	SIDEWALK	1303	n/a	n/a	0	0	0
3599663	REC_WORD	wordpools/wasnorm_wordpool_576.txt	LTP259	ltpFR2	10	16	BLADE	134	n/a	n/a	0	0	0
3600197	REC_WORD	wordpools/wasnorm_wordpool_576.txt	LTP259	ltpFR2	10	16	RIFLE	1192	n/a	n/a	0	0	0
3674662	REST_REWET	n/a	LTP259	ltpFR2	10	16	n/a	n/a	n/a	n/a	0	0	0
4354725	DISTRACTOR	n/a	LTP259	ltpFR2	10	17	n/a	n/a	n/a	n/a	0	0	0
4354725	START	n/a	LTP259	ltpFR2	10	n/a	n/a	n/a	24	n/a	n/a	n/a	n/a
4354775	PROB	n/a	LTP259	ltpFR2	10	n/a	n/a	n/a	24	16	6	8	2
4356443	PROB	n/a	LTP259	ltpFR2	10	n/a	n/a	n/a	24	13	9	1	3
4357803	PROB	n/a	LTP259	ltpFR2	10	n/a	n/a	n/a	24	11	7	3	1
4359121	PROB	n/a	LTP259	ltpFR2	10	n/a	n/a	n/a	24	15	4	4	7
4362082	PROB	n/a	LTP259	ltpFR2	10	n/a	n/a	n/a	24	11	3	4	4
4364111	PROB	n/a	LTP259	ltpFR2	10	n/a	n/a	n/a	24	17	9	4	4
4366147	PROB	n/a	LTP259	ltpFR2	10	n/a	n/a	n/a	24	13	4	1	8
4367925	PROB	n/a	LTP259	ltpFR2	10	n/a	n/a	n/a	24	15	5	6	4
4369425	PROB	n/a	LTP259	ltpFR2	10	n/a	n/a	n/a	24	5	1	3	1
4370563	PROB	n/a	LTP259	ltpFR2	10	n/a	n/a	n/a	24	14	5	6	3
4372625	PROB	n/a	LTP259	ltpFR2	10	n/a	n/a	n/a	24	7	1	4	2
4374265	PROB	n/a	LTP259	ltpFR2	10	n/a	n/a	n/a	24	15	4	7	4
4376669	PROB	n/a	LTP259	ltpFR2	10	n/a	n/a	n/a	24	17	7	9	1
4377880	STOP	n/a	LTP259	ltpFR2	10	n/a	n/a	n/a	24	n/a	n/a	n/a	n/a
4379786	WORD	wordpools/wasnorm_wordpool_576.txt	LTP259	ltpFR2	10	17	VALVE	1546	n/a	n/a	0	0	0
4382341	WORD	wordpools/wasnorm_wordpool_576.txt	LTP259	ltpFR2	10	17	BIKE	125	n/a	n/a	0	0	0
4385157	WORD	wordpools/wasnorm_wordpool_576.txt	LTP259	ltpFR2	10	17	WIDOW	1608	n/a	n/a	0	0	0
4387699	WORD	wordpools/wasnorm_wordpool_576.txt	LTP259	ltpFR2	10	17	POET	1095	n/a	n/a	0	0	0
4390309	WORD	wordpools/wasnorm_wordpool_576.txt	LTP259	ltpFR2	10	17	WASP	1593	n/a	n/a	0	0	0
4392813	WORD	wordpools/wasnorm_wordpool_576.txt	LTP259	ltpFR2	10	17	HONEY	713	n/a	n/a	0	0	0
4395629	WORD	wordpools/wasnorm_wordpool_576.txt	LTP259	ltpFR2	10	17	SODA	1341	n/a	n/a	0	0	0
4398068	WORD	wordpools/wasnorm_wordpool_576.txt	LTP259	ltpFR2	10	17	BALLOON	75	n/a	n/a	0	0	0
4400865	WORD	wordpools/wasnorm_wordpool_576.txt	LTP259	ltpFR2	10	17	FLASHLIGHT	575	n/a	n/a	0	0	0
4403441	WORD	wordpools/wasnorm_wordpool_576.txt	LTP259	ltpFR2	10	17	WOMAN	1620	n/a	n/a	0	0	0
4406119	WORD	wordpools/wasnorm_wordpool_576.txt	LTP259	ltpFR2	10	17	HERO	706	n/a	n/a	0	0	0
4408728	WORD	wordpools/wasnorm_wordpool_576.txt	LTP259	ltpFR2	10	17	GREASE	660	n/a	n/a	0	0	0
4411422	WORD	wordpools/wasnorm_wordpool_576.txt	LTP259	ltpFR2	10	17	COLLEGE	346	n/a	n/a	0	0	0
4414232	WORD	wordpools/wasnorm_wordpool_576.txt	LTP259	ltpFR2	10	17	TROMBONE	1508	n/a	n/a	0	0	0
4417006	WORD	wordpools/wasnorm_wordpool_576.txt	LTP259	ltpFR2	10	17	PEDAL	1037	n/a	n/a	0	0	0
4419653	WORD	wordpools/wasnorm_wordpool_576.txt	LTP259	ltpFR2	10	17	GAZELLE	628	n/a	n/a	0	0	0
4422313	WORD	wordpools/wasnorm_wordpool_576.txt	LTP259	ltpFR2	10	17	FIREMAN	569	n/a	n/a	0	0	0
4424755	WORD	wordpools/wasnorm_wordpool_576.txt	LTP259	ltpFR2	10	17	NOMAD	955	n/a	n/a	0	0	0
4427231	WORD	wordpools/wasnorm_wordpool_576.txt	LTP259	ltpFR2	10	17	HEART	697	n/a	n/a	0	0	0
4429774	WORD	wordpools/wasnorm_wordpool_576.txt	LTP259	ltpFR2	10	17	PARROT	1015	n/a	n/a	0	0	0
4432284	WORD	wordpools/wasnorm_wordpool_576.txt	LTP259	ltpFR2	10	17	STREAM	1392	n/a	n/a	0	0	0
4434878	WORD	wordpools/wasnorm_wordpool_576.txt	LTP259	ltpFR2	10	17	HELMET	702	n/a	n/a	0	0	0
4437704	WORD	wordpools/wasnorm_wordpool_576.txt	LTP259	ltpFR2	10	17	PRINCE	1124	n/a	n/a	0	0	0
4440414	WORD	wordpools/wasnorm_wordpool_576.txt	LTP259	ltpFR2	10	17	AIRPLANE	12	n/a	n/a	0	0	0
4442022	START	n/a	LTP259	ltpFR2	10	n/a	n/a	n/a	25	n/a	n/a	n/a	n/a
4442857	DISTRACTOR	n/a	LTP259	ltpFR2	10	17	n/a	n/a	n/a	n/a	0	0	0
4442874	PROB	n/a	LTP259	ltpFR2	10	n/a	n/a	n/a	25	26	5	7	4
4447491	PROB	n/a	LTP259	ltpFR2	10	n/a	n/a	n/a	25	15	5	2	8
4449331	PROB	n/a	LTP259	ltpFR2	10	n/a	n/a	n/a	25	17	9	2	6
4451289	PROB	n/a	LTP259	ltpFR2	10	n/a	n/a	n/a	25	16	9	4	3
4453475	PROB	n/a	LTP259	ltpFR2	10	n/a	n/a	n/a	25	15	5	1	9
4455220	PROB	n/a	LTP259	ltpFR2	10	n/a	n/a	n/a	25	14	9	4	1
4459682	PROB	n/a	LTP259	ltpFR2	10	n/a	n/a	n/a	25	18	7	9	2
4461305	PROB	n/a	LTP259	ltpFR2	10	n/a	n/a	n/a	25	15	1	9	5
4462627	PROB	n/a	LTP259	ltpFR2	10	n/a	n/a	n/a	25	13	2	2	9
4466022	STOP	n/a	LTP259	ltpFR2	10	n/a	n/a	n/a	25	n/a	n/a	n/a	n/a
4467886	REC_START	n/a	LTP259	ltpFR2	10	17	n/a	n/a	n/a	n/a	0	0	0
4469204	REC_WORD	wordpools/wasnorm_wordpool_576.txt	LTP259	ltpFR2	10	17	VALVE	1546	n/a	n/a	0	0	0
4471689	REC_WORD	wordpools/wasnorm_wordpool_576.txt	LTP259	ltpFR2	10	17	PILOT	1070	n/a	n/a	0	0	0
4474753	REC_WORD	wordpools/wasnorm_wordpool_576.txt	LTP259	ltpFR2	10	17	WIDOW	1608	n/a	n/a	0	0	0
4475622	REC_WORD	wordpools/wasnorm_wordpool_576.txt	LTP259	ltpFR2	10	17	TROMBONE	1508	n/a	n/a	0	0	0
4478476	REC_WORD	wordpools/wasnorm_wordpool_576.txt	LTP259	ltpFR2	10	17	BIKE	125	n/a	n/a	0	0	0
4481247	REC_WORD	wordpools/wasnorm_wordpool_576.txt	LTP259	ltpFR2	10	17	POET	1095	n/a	n/a	0	0	0
4527964	REC_WORD	wordpools/wasnorm_wordpool_576.txt	LTP259	ltpFR2	10	17	COLLEGE	346	n/a	n/a	0	0	0
4558929	DISTRACTOR	n/a	LTP259	ltpFR2	10	18	n/a	n/a	n/a	n/a	0	0	0
4558929	START	n/a	LTP259	ltpFR2	10	n/a	n/a	n/a	26	n/a	n/a	n/a	n/a
4558979	PROB	n/a	LTP259	ltpFR2	10	n/a	n/a	n/a	26	16	6	1	9
4560512	PROB	n/a	LTP259	ltpFR2	10	n/a	n/a	n/a	26	17	5	4	8
4565164	PROB	n/a	LTP259	ltpFR2	10	n/a	n/a	n/a	26	14	3	9	2
4566887	PROB	n/a	LTP259	ltpFR2	10	n/a	n/a	n/a	26	8	2	5	1
4568542	PROB	n/a	LTP259	ltpFR2	10	n/a	n/a	n/a	26	18	6	8	4
4571269	PROB	n/a	LTP259	ltpFR2	10	n/a	n/a	n/a	26	17	4	8	5
4574269	PROB	n/a	LTP259	ltpFR2	10	n/a	n/a	n/a	26	18	6	4	8
4576010	PROB	n/a	LTP259	ltpFR2	10	n/a	n/a	n/a	26	11	4	1	6
4577510	PROB	n/a	LTP259	ltpFR2	10	n/a	n/a	n/a	26	20	5	9	6
4580592	PROB	n/a	LTP259	ltpFR2	10	n/a	n/a	n/a	26	17	1	8	8
4581944	STOP	n/a	LTP259	ltpFR2	10	n/a	n/a	n/a	26	n/a	n/a	n/a	n/a
4584057	WORD	wordpools/wasnorm_wordpool_576.txt	LTP259	ltpFR2	10	18	SUBWAY	1400	n/a	n/a	0	0	0
4586515	WORD	wordpools/wasnorm_wordpool_576.txt	LTP259	ltpFR2	10	18	LIPSTICK	829	n/a	n/a	0	0	0
4589142	WORD	wordpools/wasnorm_wordpool_576.txt	LTP259	ltpFR2	10	18	SCRIBBLE	1256	n/a	n/a	0	0	0
4591718	WORD	wordpools/wasnorm_wordpool_576.txt	LTP259	ltpFR2	10	18	FRAGRANCE	599	n/a	n/a	0	0	0
4594311	WORD	wordpools/wasnorm_wordpool_576.txt	LTP259	ltpFR2	10	18	EXPERT	543	n/a	n/a	0	0	0
4597039	WORD	wordpools/wasnorm_wordpool_576.txt	LTP259	ltpFR2	10	18	LUMBER	848	n/a	n/a	0	0	0
4599514	WORD	wordpools/wasnorm_wordpool_576.txt	LTP259	ltpFR2	10	18	PERFUME	1049	n/a	n/a	0	0	0
4602036	WORD	wordpools/wasnorm_wordpool_576.txt	LTP259	ltpFR2	10	18	TILE	1468	n/a	n/a	0	0	0
4604478	WORD	wordpools/wasnorm_wordpool_576.txt	LTP259	ltpFR2	10	18	CEILING	265	n/a	n/a	0	0	0
4607177	WORD	wordpools/wasnorm_wordpool_576.txt	LTP259	ltpFR2	10	18	DUSTPAN	509	n/a	n/a	0	0	0
4609803	WORD	wordpools/wasnorm_wordpool_576.txt	LTP259	ltpFR2	10	18	ANKLE	24	n/a	n/a	0	0	0
4612279	WORD	wordpools/wasnorm_wordpool_576.txt	LTP259	ltpFR2	10	18	ARMY	39	n/a	n/a	0	0	0
4614704	WORD	wordpools/wasnorm_wordpool_576.txt	LTP259	ltpFR2	10	18	MARINE	869	n/a	n/a	0	0	0
4617314	WORD	wordpools/wasnorm_wordpool_576.txt	LTP259	ltpFR2	10	18	CROSS	413	n/a	n/a	0	0	0
4619802	WORD	wordpools/wasnorm_wordpool_576.txt	LTP259	ltpFR2	10	18	UNCLE	1536	n/a	n/a	0	0	0
4622429	WORD	wordpools/wasnorm_wordpool_576.txt	LTP259	ltpFR2	10	18	COMET	353	n/a	n/a	0	0	0
4625227	WORD	wordpools/wasnorm_wordpool_576.txt	LTP259	ltpFR2	10	18	FIREPLACE	570	n/a	n/a	0	0	0
4627754	WORD	wordpools/wasnorm_wordpool_576.txt	LTP259	ltpFR2	10	18	DUST	508	n/a	n/a	0	0	0
4630258	WORD	wordpools/wasnorm_wordpool_576.txt	LTP259	ltpFR2	10	18	TUNNEL	1519	n/a	n/a	0	0	0
4632856	WORD	wordpools/wasnorm_wordpool_576.txt	LTP259	ltpFR2	10	18	CIGAR	308	n/a	n/a	0	0	0
4635349	WORD	wordpools/wasnorm_wordpool_576.txt	LTP259	ltpFR2	10	18	STONE	1385	n/a	n/a	0	0	0
4637976	WORD	wordpools/wasnorm_wordpool_576.txt	LTP259	ltpFR2	10	18	CRATER	400	n/a	n/a	0	0	0
4640731	WORD	wordpools/wasnorm_wordpool_576.txt	LTP259	ltpFR2	10	18	BANKER	84	n/a	n/a	0	0	0
4643212	WORD	wordpools/wasnorm_wordpool_576.txt	LTP259	ltpFR2	10	18	FRIAR	605	n/a	n/a	0	0	0
4644818	START	n/a	LTP259	ltpFR2	10	n/a	n/a	n/a	27	n/a	n/a	n/a	n/a
4645684	DISTRACTOR	n/a	LTP259	ltpFR2	10	18	n/a	n/a	n/a	n/a	0	0	0
4645700	PROB	n/a	LTP259	ltpFR2	10	n/a	n/a	n/a	27	16	5	9	2
4647674	PROB	n/a	LTP259	ltpFR2	10	n/a	n/a	n/a	27	7	4	1	2
4649397	PROB	n/a	LTP259	ltpFR2	10	n/a	n/a	n/a	27	10	3	4	3
4651405	PROB	n/a	LTP259	ltpFR2	10	n/a	n/a	n/a	27	10	5	3	2
4653266	PROB	n/a	LTP259	ltpFR2	10	n/a	n/a	n/a	27	13	5	2	6
4655855	PROB	n/a	LTP259	ltpFR2	10	n/a	n/a	n/a	27	25	8	8	9
4657561	PROB	n/a	LTP259	ltpFR2	10	n/a	n/a	n/a	27	13	3	5	5
4658884	PROB	n/a	LTP259	ltpFR2	10	n/a	n/a	n/a	27	12	1	2	9
4660272	PROB	n/a	LTP259	ltpFR2	10	n/a	n/a	n/a	27	13	3	2	8
4661660	PROB	n/a	LTP259	ltpFR2	10	n/a	n/a	n/a	27	14	3	3	8
4664471	PROB	n/a	LTP259	ltpFR2	10	n/a	n/a	n/a	27	17	8	2	7
4668818	STOP	n/a	LTP259	ltpFR2	10	n/a	n/a	n/a	27	n/a	n/a	n/a	n/a
4670678	REC_START	n/a	LTP259	ltpFR2	10	18	n/a	n/a	n/a	n/a	0	0	0
4671012	REC_WORD	wordpools/wasnorm_wordpool_576.txt	LTP259	ltpFR2	10	18	SUBWAY	1400	n/a	n/a	0	0	0
4671716	REC_WORD	wordpools/wasnorm_wordpool_576.txt	LTP259	ltpFR2	10	18	LIPSTICK	829	n/a	n/a	0	0	0
4672739	REC_WORD	wordpools/wasnorm_wordpool_576.txt	LTP259	ltpFR2	10	18	DUSTPAN	509	n/a	n/a	0	0	0
4673857	REC_WORD	wordpools/wasnorm_wordpool_576.txt	LTP259	ltpFR2	10	18	DUST	508	n/a	n/a	0	0	0
4675053	REC_WORD	wordpools/wasnorm_wordpool_576.txt	LTP259	ltpFR2	10	18	FIREPLACE	570	n/a	n/a	0	0	0
4676012	REC_WORD	wordpools/wasnorm_wordpool_576.txt	LTP259	ltpFR2	10	18	TILE	1468	n/a	n/a	0	0	0
4676616	REC_WORD	wordpools/wasnorm_wordpool_576.txt	LTP259	ltpFR2	10	18	CEILING	265	n/a	n/a	0	0	0
4678104	REC_WORD	wordpools/wasnorm_wordpool_576.txt	LTP259	ltpFR2	10	18	LUMBER	848	n/a	n/a	0	0	0
4678998	REC_WORD	wordpools/wasnorm_wordpool_576.txt	LTP259	ltpFR2	10	18	EXPERT	543	n/a	n/a	0	0	0
4679647	REC_WORD	wordpools/wasnorm_wordpool_576.txt	LTP259	ltpFR2	10	18	MARINE	869	n/a	n/a	0	0	0
4680582	REC_WORD	wordpools/wasnorm_wordpool_576.txt	LTP259	ltpFR2	10	18	ANKLE	24	n/a	n/a	0	0	0
4687191	REC_WORD	wordpools/wasnorm_wordpool_576.txt	LTP259	ltpFR2	10	18	PERFUME	1049	n/a	n/a	0	0	0
4688073	REC_WORD	wordpools/wasnorm_wordpool_576.txt	LTP259	ltpFR2	10	18	CENT	270	n/a	n/a	0	0	0
4689381	REC_WORD	wordpools/wasnorm_wordpool_576.txt	LTP259	ltpFR2	10	18	SCRIBBLE	1256	n/a	n/a	0	0	0
4691620	REC_WORD	wordpools/wasnorm_wordpool_576.txt	LTP259	ltpFR2	10	18	UNCLE	1536	n/a	n/a	0	0	0
4692393	REC_WORD	wordpools/wasnorm_wordpool_576.txt	LTP259	ltpFR2	10	18	COMET	353	n/a	n/a	0	0	0
4694315	REC_WORD	wordpools/wasnorm_wordpool_576.txt	LTP259	ltpFR2	10	18	CIGAR	308	n/a	n/a	0	0	0
4696399	REC_WORD	wordpools/wasnorm_wordpool_576.txt	LTP259	ltpFR2	10	18	PASSAGE	1019	n/a	n/a	0	0	0
4699259	REC_WORD	wordpools/wasnorm_wordpool_576.txt	LTP259	ltpFR2	10	18	TUNNEL	1519	n/a	n/a	0	0	0
4761708	DISTRACTOR	n/a	LTP259	ltpFR2	10	19	n/a	n/a	n/a	n/a	0	0	0
4761709	START	n/a	LTP259	ltpFR2	10	n/a	n/a	n/a	28	n/a	n/a	n/a	n/a
4761759	PROB	n/a	LTP259	ltpFR2	10	n/a	n/a	n/a	28	16	1	9	6
4764068	PROB	n/a	LTP259	ltpFR2	10	n/a	n/a	n/a	28	17	7	5	5
4765435	PROB	n/a	LTP259	ltpFR2	10	n/a	n/a	n/a	28	14	4	1	9
4766908	PROB	n/a	LTP259	ltpFR2	10	n/a	n/a	n/a	28	5	2	2	1
4768134	PROB	n/a	LTP259	ltpFR2	10	n/a	n/a	n/a	28	9	2	6	1
4769739	PROB	n/a	LTP259	ltpFR2	10	n/a	n/a	n/a	28	18	3	8	7
4771708	PROB	n/a	LTP259	ltpFR2	10	n/a	n/a	n/a	28	9	1	3	5
4773922	PROB	n/a	LTP259	ltpFR2	10	n/a	n/a	n/a	28	5	1	2	2
4775209	PROB	n/a	LTP259	ltpFR2	10	n/a	n/a	n/a	28	13	2	6	5
4777234	PROB	n/a	LTP259	ltpFR2	10	n/a	n/a	n/a	28	8	1	5	2
4779154	PROB	n/a	LTP259	ltpFR2	10	n/a	n/a	n/a	28	16	9	1	6
4780412	PROB	n/a	LTP259	ltpFR2	10	n/a	n/a	n/a	28	18	8	6	4
4782170	PROB	n/a	LTP259	ltpFR2	10	n/a	n/a	n/a	28	24	8	9	7
4784056	PROB	n/a	LTP259	ltpFR2	10	n/a	n/a	n/a	28	12	6	4	2
4785431	STOP	n/a	LTP259	ltpFR2	10	n/a	n/a	n/a	28	n/a	n/a	n/a	n/a
4786883	WORD	wordpools/wasnorm_wordpool_576.txt	LTP259	ltpFR2	10	19	PLAYGROUND	1087	n/a	n/a	0	0	0
4789463	WORD	wordpools/wasnorm_wordpool_576.txt	LTP259	ltpFR2	10	19	DOLPHIN	483	n/a	n/a	0	0	0
4792040	WORD	wordpools/wasnorm_wordpool_576.txt	LTP259	ltpFR2	10	19	SALT	1229	n/a	n/a	0	0	0
4794499	WORD	wordpools/wasnorm_wordpool_576.txt	LTP259	ltpFR2	10	19	SHERIFF	1284	n/a	n/a	0	0	0
4797043	WORD	wordpools/wasnorm_wordpool_576.txt	LTP259	ltpFR2	10	19	BUREAU	199	n/a	n/a	0	0	0
4799585	WORD	wordpools/wasnorm_wordpool_576.txt	LTP259	ltpFR2	10	19	BROTHER	179	n/a	n/a	0	0	0
4802011	WORD	wordpools/wasnorm_wordpool_576.txt	LTP259	ltpFR2	10	19	CYCLONE	431	n/a	n/a	0	0	0
4804670	WORD	wordpools/wasnorm_wordpool_576.txt	LTP259	ltpFR2	10	19	PIGEON	1065	n/a	n/a	0	0	0
4807164	WORD	wordpools/wasnorm_wordpool_576.txt	LTP259	ltpFR2	10	19	EAGLE	512	n/a	n/a	0	0	0
4809975	WORD	wordpools/wasnorm_wordpool_576.txt	LTP259	ltpFR2	10	19	CLAMP	316	n/a	n/a	0	0	0
4812583	WORD	wordpools/wasnorm_wordpool_576.txt	LTP259	ltpFR2	10	19	CARROT	249	n/a	n/a	0	0	0
4815373	WORD	wordpools/wasnorm_wordpool_576.txt	LTP259	ltpFR2	10	19	LODGE	839	n/a	n/a	0	0	0
4818122	WORD	wordpools/wasnorm_wordpool_576.txt	LTP259	ltpFR2	10	19	COFFEE	341	n/a	n/a	0	0	0
4820564	WORD	wordpools/wasnorm_wordpool_576.txt	LTP259	ltpFR2	10	19	ROD	1203	n/a	n/a	0	0	0
4823207	WORD	wordpools/wasnorm_wordpool_576.txt	LTP259	ltpFR2	10	19	CHAPEL	280	n/a	n/a	0	0	0
4825930	WORD	wordpools/wasnorm_wordpool_576.txt	LTP259	ltpFR2	10	19	SNAKE	1333	n/a	n/a	0	0	0
4828572	WORD	wordpools/wasnorm_wordpool_576.txt	LTP259	ltpFR2	10	19	ONION	977	n/a	n/a	0	0	0
4831220	WORD	wordpools/wasnorm_wordpool_576.txt	LTP259	ltpFR2	10	19	CITRUS	313	n/a	n/a	0	0	0
4833713	WORD	wordpools/wasnorm_wordpool_576.txt	LTP259	ltpFR2	10	19	LAPEL	800	n/a	n/a	0	0	0
4836407	WORD	wordpools/wasnorm_wordpool_576.txt	LTP259	ltpFR2	10	19	SHORTS	1293	n/a	n/a	0	0	0
4839213	WORD	wordpools/wasnorm_wordpool_576.txt	LTP259	ltpFR2	10	19	SPOON	1357	n/a	n/a	0	0	0
4841710	WORD	wordpools/wasnorm_wordpool_576.txt	LTP259	ltpFR2	10	19	LACE	792	n/a	n/a	0	0	0
4844470	WORD	wordpools/wasnorm_wordpool_576.txt	LTP259	ltpFR2	10	19	SISTER	1312	n/a	n/a	0	0	0
4847148	WORD	wordpools/wasnorm_wordpool_576.txt	LTP259	ltpFR2	10	19	BABY	64	n/a	n/a	0	0	0
4848766	START	n/a	LTP259	ltpFR2	10	n/a	n/a	n/a	29	n/a	n/a	n/a	n/a
4849941	DISTRACTOR	n/a	LTP259	ltpFR2	10	19	n/a	n/a	n/a	n/a	0	0	0
4849959	PROB	n/a	LTP259	ltpFR2	10	n/a	n/a	n/a	29	19	6	7	6
4853717	PROB	n/a	LTP259	ltpFR2	10	n/a	n/a	n/a	29	5	3	1	1
4854809	PROB	n/a	LTP259	ltpFR2	10	n/a	n/a	n/a	29	12	3	3	6
4856779	PROB	n/a	LTP259	ltpFR2	10	n/a	n/a	n/a	29	22	9	7	6
4859172	PROB	n/a	LTP259	ltpFR2	10	n/a	n/a	n/a	29	17	5	4	8
4862216	PROB	n/a	LTP259	ltpFR2	10	n/a	n/a	n/a	29	8	2	5	1
4863755	PROB	n/a	LTP259	ltpFR2	10	n/a	n/a	n/a	29	15	6	3	6
4865729	PROB	n/a	LTP259	ltpFR2	10	n/a	n/a	n/a	29	5	1	1	3
4867002	PROB	n/a	LTP259	ltpFR2	10	n/a	n/a	n/a	29	16	5	8	3
4872759	STOP	n/a	LTP259	ltpFR2	10	n/a	n/a	n/a	29	n/a	n/a	n/a	n/a
4874730	REC_START	n/a	LTP259	ltpFR2	10	19	n/a	n/a	n/a	n/a	0	0	0
4875418	REC_WORD	wordpools/wasnorm_wordpool_576.txt	LTP259	ltpFR2	10	19	SHERIFF	1284	n/a	n/a	0	0	0
4876064	REC_WORD	wordpools/wasnorm_wordpool_576.txt	LTP259	ltpFR2	10	19	CYCLONE	431	n/a	n/a	0	0	0
4878530	REC_WORD	wordpools/wasnorm_wordpool_576.txt	LTP259	ltpFR2	10	19	SIBLING	1301	n/a	n/a	0	0	0
4879331	REC_WORD	wordpools/wasnorm_wordpool_576.txt	LTP259	ltpFR2	10	19	BROTHER	179	n/a	n/a	0	0	0
4881047	REC_WORD	wordpools/wasnorm_wordpool_576.txt	LTP259	ltpFR2	10	19	PLAYGROUND	1087	n/a	n/a	0	0	0
4882933	REC_WORD	wordpools/wasnorm_wordpool_576.txt	LTP259	ltpFR2	10	19	BUREAU	199	n/a	n/a	0	0	0
4884638	REC_WORD	wordpools/wasnorm_wordpool_576.txt	LTP259	ltpFR2	10	19	CLAMP	316	n/a	n/a	0	0	0
4885516	REC_WORD	wordpools/wasnorm_wordpool_576.txt	LTP259	ltpFR2	10	19	EAGLE	512	n/a	n/a	0	0	0
4888062	REC_WORD	wordpools/wasnorm_wordpool_576.txt	LTP259	ltpFR2	10	19	SPARROW	1347	n/a	n/a	0	0	0
4888975	REC_WORD	wordpools/wasnorm_wordpool_576.txt	LTP259	ltpFR2	10	19	PIGEON	1065	n/a	n/a	0	0	0
4889793	REC_WORD	wordpools/wasnorm_wordpool_576.txt	LTP259	ltpFR2	10	19	CARROT	249	n/a	n/a	0	0	0
4894967	REC_WORD	wordpools/wasnorm_wordpool_576.txt	LTP259	ltpFR2	10	19	COFFEE	341	n/a	n/a	0	0	0
4895738	REC_WORD	wordpools/wasnorm_wordpool_576.txt	LTP259	ltpFR2	10	19	LODGE	839	n/a	n/a	0	0	0
4897302	REC_WORD	wordpools/wasnorm_wordpool_576.txt	LTP259	ltpFR2	10	19	CAFE	216	n/a	n/a	0	0	0
4965777	WORD	wordpools/wasnorm_wordpool_576.txt	LTP259	ltpFR2	10	20	REBEL	1172	n/a	n/a	0	0	0
4968438	WORD	wordpools/wasnorm_wordpool_576.txt	LTP259	ltpFR2	10	20	FLAG	573	n/a	n/a	0	0	0
4971082	WORD	wordpools/wasnorm_wordpool_576.txt	LTP259	ltpFR2	10	20	MILK	895	n/a	n/a	0	0	0
4973686	WORD	wordpools/wasnorm_wordpool_576.txt	LTP259	ltpFR2	10	20	HOOD	714	n/a	n/a	0	0	0
4976401	WORD	wordpools/wasnorm_wordpool_576.txt	LTP259	ltpFR2	10	20	STICKER	1382	n/a	n/a	0	0	0
4979211	WORD	wordpools/wasnorm_wordpool_576.txt	LTP259	ltpFR2	10	20	DRESSER	496	n/a	n/a	0	0	0
4981666	WORD	wordpools/wasnorm_wordpool_576.txt	LTP259	ltpFR2	10	20	PIGMENT	1066	n/a	n/a	0	0	0
4984281	WORD	wordpools/wasnorm_wordpool_576.txt	LTP259	ltpFR2	10	20	ROBBER	1197	n/a	n/a	0	0	0
4986942	WORD	wordpools/wasnorm_wordpool_576.txt	LTP259	ltpFR2	10	20	THIEF	1456	n/a	n/a	0	0	0
4989395	WORD	wordpools/wasnorm_wordpool_576.txt	LTP259	ltpFR2	10	20	HOUND	724	n/a	n/a	0	0	0
4991977	WORD	wordpools/wasnorm_wordpool_576.txt	LTP259	ltpFR2	10	20	GHETTO	633	n/a	n/a	0	0	0
4994737	WORD	wordpools/wasnorm_wordpool_576.txt	LTP259	ltpFR2	10	20	DONOR	485	n/a	n/a	0	0	0
4997313	WORD	wordpools/wasnorm_wordpool_576.txt	LTP259	ltpFR2	10	20	FLESH	579	n/a	n/a	0	0	0
4999839	WORD	wordpools/wasnorm_wordpool_576.txt	LTP259	ltpFR2	10	20	EMPIRE	530	n/a	n/a	0	0	0
5002416	WORD	wordpools/wasnorm_wordpool_576.txt	LTP259	ltpFR2	10	20	CREATURE	403	n/a	n/a	0	0	0
5004841	WORD	wordpools/wasnorm_wordpool_576.txt	LTP259	ltpFR2	10	20	VAGRANT	1544	n/a	n/a	0	0	0
5007329	WORD	wordpools/wasnorm_wordpool_576.txt	LTP259	ltpFR2	10	20	CHEST	295	n/a	n/a	0	0	0
5009810	WORD	wordpools/wasnorm_wordpool_576.txt	LTP259	ltpFR2	10	20	SLUG	1329	n/a	n/a	0	0	0
5012420	WORD	wordpools/wasnorm_wordpool_576.txt	LTP259	ltpFR2	10	20	KNIFE	785	n/a	n/a	0	0	0
5015231	WORD	wordpools/wasnorm_wordpool_576.txt	LTP259	ltpFR2	10	20	PREACHER	1119	n/a	n/a	0	0	0
5017673	WORD	wordpools/wasnorm_wordpool_576.txt	LTP259	ltpFR2	10	20	PICTURE	1061	n/a	n/a	0	0	0
5020245	WORD	wordpools/wasnorm_wordpool_576.txt	LTP259	ltpFR2	10	20	SWORD	1423	n/a	n/a	0	0	0
5022872	WORD	wordpools/wasnorm_wordpool_576.txt	LTP259	ltpFR2	10	20	SCULPTURE	1258	n/a	n/a	0	0	0
5025569	WORD	wordpools/wasnorm_wordpool_576.txt	LTP259	ltpFR2	10	20	PLIERS	1089	n/a	n/a	0	0	0
5027177	START	n/a	LTP259	ltpFR2	10	n/a	n/a	n/a	30	n/a	n/a	n/a	n/a
5028377	DISTRACTOR	n/a	LTP259	ltpFR2	10	20	n/a	n/a	n/a	n/a	0	0	0
5028392	PROB	n/a	LTP259	ltpFR2	10	n/a	n/a	n/a	30	15	6	5	4
5030467	PROB	n/a	LTP259	ltpFR2	10	n/a	n/a	n/a	30	7	2	4	1
5033178	PROB	n/a	LTP259	ltpFR2	10	n/a	n/a	n/a	30	8	1	2	5
5034833	PROB	n/a	LTP259	ltpFR2	10	n/a	n/a	n/a	30	12	5	4	3
5037749	PROB	n/a	LTP259	ltpFR2	10	n/a	n/a	n/a	30	17	7	6	4
5039735	PROB	n/a	LTP259	ltpFR2	10	n/a	n/a	n/a	30	14	3	5	6
5041978	PROB	n/a	LTP259	ltpFR2	10	n/a	n/a	n/a	30	8	3	1	5
5043784	PROB	n/a	LTP259	ltpFR2	10	n/a	n/a	n/a	30	12	7	4	1
5045976	PROB	n/a	LTP259	ltpFR2	10	n/a	n/a	n/a	30	12	6	4	2
5051177	STOP	n/a	LTP259	ltpFR2	10	n/a	n/a	n/a	30	n/a	n/a	n/a	n/a
5053070	REC_START	n/a	LTP259	ltpFR2	10	20	n/a	n/a	n/a	n/a	0	0	0
5054285	REC_WORD	wordpools/wasnorm_wordpool_576.txt	LTP259	ltpFR2	10	20	PREACHER	1119	n/a	n/a	0	0	0
5054912	REC_WORD	wordpools/wasnorm_wordpool_576.txt	LTP259	ltpFR2	10	20	KNIFE	785	n/a	n/a	0	0	0
5055349	REC_WORD	wordpools/wasnorm_wordpool_576.txt	LTP259	ltpFR2	10	20	SWORD	1423	n/a	n/a	0	0	0
5056060	REC_WORD	wordpools/wasnorm_wordpool_576.txt	LTP259	ltpFR2	10	20	SCULPTURE	1258	n/a	n/a	0	0	0
5058091	REC_WORD	wordpools/wasnorm_wordpool_576.txt	LTP259	ltpFR2	10	20	ROBBER	1197	n/a	n/a	0	0	0
5058764	REC_WORD	wordpools/wasnorm_wordpool_576.txt	LTP259	ltpFR2	10	20	THIEF	1456	n/a	n/a	0	0	0
5061570	REC_WORD	wordpools/wasnorm_wordpool_576.txt	LTP259	ltpFR2	10	20	SLUG	1329	n/a	n/a	0	0	0
5062778	REC_WORD	wordpools/wasnorm_wordpool_576.txt	LTP259	ltpFR2	10	20	CHEST	295	n/a	n/a	0	0	0
5064675	REC_WORD	wordpools/wasnorm_wordpool_576.txt	LTP259	ltpFR2	10	20	PIGMENT	1066	n/a	n/a	0	0	0
5066017	REC_WORD	wordpools/wasnorm_wordpool_576.txt	LTP259	ltpFR2	10	20	DRESSER	496	n/a	n/a	0	0	0
5067556	REC_WORD	wordpools/wasnorm_wordpool_576.txt	LTP259	ltpFR2	10	20	DONOR	485	n/a	n/a	0	0	0
5068180	REC_WORD	wordpools/wasnorm_wordpool_576.txt	LTP259	ltpFR2	10	20	FLESH	579	n/a	n/a	0	0	0
5115010	REC_WORD	wordpools/wasnorm_wordpool_576.txt	LTP259	ltpFR2	10	20	HOOD	714	n/a	n/a	0	0	0
5116356	REC_WORD	wordpools/wasnorm_wordpool_576.txt	LTP259	ltpFR2	10	20	REBEL	1172	n/a	n/a	0	0	0
5117912	REC_WORD	wordpools/wasnorm_wordpool_576.txt	LTP259	ltpFR2	10	20	HOUND	724	n/a	n/a	0	0	0
5119379	REC_WORD	wordpools/wasnorm_wordpool_576.txt	LTP259	ltpFR2	10	20	MILK	895	n/a	n/a	0	0	0
5120821	REC_WORD	wordpools/wasnorm_wordpool_576.txt	LTP259	ltpFR2	10	20	FLAG	573	n/a	n/a	0	0	0
5126167	REC_WORD	wordpools/wasnorm_wordpool_576.txt	LTP259	ltpFR2	10	20	PREACHER	1119	n/a	n/a	0	0	0
5144134	WORD	wordpools/wasnorm_wordpool_576.txt	LTP259	ltpFR2	10	21	FOOT	590	n/a	n/a	0	0	0
5146911	WORD	wordpools/wasnorm_wordpool_576.txt	LTP259	ltpFR2	10	21	SERVANT	1271	n/a	n/a	0	0	0
5149520	WORD	wordpools/wasnorm_wordpool_576.txt	LTP259	ltpFR2	10	21	TART	1436	n/a	n/a	0	0	0
5152047	WORD	wordpools/wasnorm_wordpool_576.txt	LTP259	ltpFR2	10	21	PUPIL	1143	n/a	n/a	0	0	0
5154623	WORD	wordpools/wasnorm_wordpool_576.txt	LTP259	ltpFR2	10	21	HANDBAG	684	n/a	n/a	0	0	0
5157400	WORD	wordpools/wasnorm_wordpool_576.txt	LTP259	ltpFR2	10	21	KNAPSACK	783	n/a	n/a	0	0	0
5159927	WORD	wordpools/wasnorm_wordpool_576.txt	LTP259	ltpFR2	10	21	MONEY	908	n/a	n/a	0	0	0
5162749	WORD	wordpools/wasnorm_wordpool_576.txt	LTP259	ltpFR2	10	21	BLOCKADE	137	n/a	n/a	0	0	0
5165564	WORD	wordpools/wasnorm_wordpool_576.txt	LTP259	ltpFR2	10	21	PENGUIN	1044	n/a	n/a	0	0	0
5168036	WORD	wordpools/wasnorm_wordpool_576.txt	LTP259	ltpFR2	10	21	STUDENT	1395	n/a	n/a	0	0	0
5170666	WORD	wordpools/wasnorm_wordpool_576.txt	LTP259	ltpFR2	10	21	ZEBRA	1635	n/a	n/a	0	0	0
5173389	WORD	wordpools/wasnorm_wordpool_576.txt	LTP259	ltpFR2	10	21	SADDLE	1221	n/a	n/a	0	0	0
5176205	WORD	wordpools/wasnorm_wordpool_576.txt	LTP259	ltpFR2	10	21	TOURIST	1488	n/a	n/a	0	0	0
5178877	WORD	wordpools/wasnorm_wordpool_576.txt	LTP259	ltpFR2	10	21	BARLEY	88	n/a	n/a	0	0	0
5181474	WORD	wordpools/wasnorm_wordpool_576.txt	LTP259	ltpFR2	10	21	POSSUM	1112	n/a	n/a	0	0	0
5184164	WORD	wordpools/wasnorm_wordpool_576.txt	LTP259	ltpFR2	10	21	GANGSTER	620	n/a	n/a	0	0	0
5186979	WORD	wordpools/wasnorm_wordpool_576.txt	LTP259	ltpFR2	10	21	GLOBE	641	n/a	n/a	0	0	0
5189767	WORD	wordpools/wasnorm_wordpool_576.txt	LTP259	ltpFR2	10	21	PADDLE	1000	n/a	n/a	0	0	0
5192348	WORD	wordpools/wasnorm_wordpool_576.txt	LTP259	ltpFR2	10	21	HIKER	708	n/a	n/a	0	0	0
5194774	WORD	wordpools/wasnorm_wordpool_576.txt	LTP259	ltpFR2	10	21	TAXI	1438	n/a	n/a	0	0	0
5197534	WORD	wordpools/wasnorm_wordpool_576.txt	LTP259	ltpFR2	10	21	CRICKET	408	n/a	n/a	0	0	0
5200261	WORD	wordpools/wasnorm_wordpool_576.txt	LTP259	ltpFR2	10	21	GARLIC	624	n/a	n/a	0	0	0
5203039	WORD	wordpools/wasnorm_wordpool_576.txt	LTP259	ltpFR2	10	21	RECORD	1176	n/a	n/a	0	0	0
5205828	WORD	wordpools/wasnorm_wordpool_576.txt	LTP259	ltpFR2	10	21	PLAID	1080	n/a	n/a	0	0	0
5207439	START	n/a	LTP259	ltpFR2	10	n/a	n/a	n/a	31	n/a	n/a	n/a	n/a
5208578	DISTRACTOR	n/a	LTP259	ltpFR2	10	21	n/a	n/a	n/a	n/a	0	0	0
5208593	PROB	n/a	LTP259	ltpFR2	10	n/a	n/a	n/a	31	15	6	3	6
5210746	PROB	n/a	LTP259	ltpFR2	10	n/a	n/a	n/a	31	12	2	6	4
5212323	PROB	n/a	LTP259	ltpFR2	10	n/a	n/a	n/a	31	16	2	7	7
5213993	PROB	n/a	LTP259	ltpFR2	10	n/a	n/a	n/a	31	12	1	6	5
5216017	PROB	n/a	LTP259	ltpFR2	10	n/a	n/a	n/a	31	10	1	2	7
5217522	PROB	n/a	LTP259	ltpFR2	10	n/a	n/a	n/a	31	15	1	7	7
5218760	PROB	n/a	LTP259	ltpFR2	10	n/a	n/a	n/a	31	14	4	7	3
5220265	PROB	n/a	LTP259	ltpFR2	10	n/a	n/a	n/a	31	17	9	3	5
5223243	PROB	n/a	LTP259	ltpFR2	10	n/a	n/a	n/a	31	13	1	7	5
5225490	PROB	n/a	LTP259	ltpFR2	10	n/a	n/a	n/a	31	20	9	5	7
5230200	STOP	n/a	LTP259	ltpFR2	10	n/a	n/a	n/a	31	n/a	n/a	n/a	n/a
5233320	REC_START	n/a	LTP259	ltpFR2	10	21	n/a	n/a	n/a	n/a	0	0	0
5233725	REC_WORD	wordpools/wasnorm_wordpool_576.txt	LTP259	ltpFR2	10	21	HIKER	708	n/a	n/a	0	0	0
5234297	REC_WORD	wordpools/wasnorm_wordpool_576.txt	LTP259	ltpFR2	10	21	TAXI	1438	n/a	n/a	0	0	0
5324379	WORD	wordpools/wasnorm_wordpool_576.txt	LTP259	ltpFR2	10	22	PACKAGE	997	n/a	n/a	0	0	0
5327124	WORD	wordpools/wasnorm_wordpool_576.txt	LTP259	ltpFR2	10	22	TYPIST	1532	n/a	n/a	0	0	0
5329599	WORD	wordpools/wasnorm_wordpool_576.txt	LTP259	ltpFR2	10	22	WAITER	1580	n/a	n/a	0	0	0
5332038	WORD	wordpools/wasnorm_wordpool_576.txt	LTP259	ltpFR2	10	22	THRONE	1461	n/a	n/a	0	0	0
5334751	WORD	wordpools/wasnorm_wordpool_576.txt	LTP259	ltpFR2	10	22	VENUS	1557	n/a	n/a	0	0	0
5337445	WORD	wordpools/wasnorm_wordpool_576.txt	LTP259	ltpFR2	10	22	LADDER	793	n/a	n/a	0	0	0
5340156	WORD	wordpools/wasnorm_wordpool_576.txt	LTP259	ltpFR2	10	22	BOUQUET	157	n/a	n/a	0	0	0
5342900	WORD	wordpools/wasnorm_wordpool_576.txt	LTP259	ltpFR2	10	22	BUG	187	n/a	n/a	0	0	0
5345442	WORD	wordpools/wasnorm_wordpool_576.txt	LTP259	ltpFR2	10	22	LIVER	833	n/a	n/a	0	0	0
5348019	WORD	wordpools/wasnorm_wordpool_576.txt	LTP259	ltpFR2	10	22	ATLAS	53	n/a	n/a	0	0	0
5350829	WORD	wordpools/wasnorm_wordpool_576.txt	LTP259	ltpFR2	10	22	DRUG	501	n/a	n/a	0	0	0
5353288	WORD	wordpools/wasnorm_wordpool_576.txt	LTP259	ltpFR2	10	22	POISON	1096	n/a	n/a	0	0	0
5355714	WORD	wordpools/wasnorm_wordpool_576.txt	LTP259	ltpFR2	10	22	HOSTESS	723	n/a	n/a	0	0	0
5358491	WORD	wordpools/wasnorm_wordpool_576.txt	LTP259	ltpFR2	10	22	LIZARD	834	n/a	n/a	0	0	0
5361102	WORD	wordpools/wasnorm_wordpool_576.txt	LTP259	ltpFR2	10	22	TWISTER	1530	n/a	n/a	0	0	0
5363912	WORD	wordpools/wasnorm_wordpool_576.txt	LTP259	ltpFR2	10	22	BANQUET	86	n/a	n/a	0	0	0
5366500	WORD	wordpools/wasnorm_wordpool_576.txt	LTP259	ltpFR2	10	22	CASHIER	254	n/a	n/a	0	0	0
5369048	WORD	wordpools/wasnorm_wordpool_576.txt	LTP259	ltpFR2	10	22	OINTMENT	974	n/a	n/a	0	0	0
5371607	WORD	wordpools/wasnorm_wordpool_576.txt	LTP259	ltpFR2	10	22	TABLET	1427	n/a	n/a	0	0	0
5374351	WORD	wordpools/wasnorm_wordpool_576.txt	LTP259	ltpFR2	10	22	PUDDLE	1140	n/a	n/a	0	0	0
5377062	WORD	wordpools/wasnorm_wordpool_576.txt	LTP259	ltpFR2	10	22	BUCKET	184	n/a	n/a	0	0	0
5379833	WORD	wordpools/wasnorm_wordpool_576.txt	LTP259	ltpFR2	10	22	ORCHID	982	n/a	n/a	0	0	0
5382481	WORD	wordpools/wasnorm_wordpool_576.txt	LTP259	ltpFR2	10	22	CHILD	299	n/a	n/a	0	0	0
5385025	WORD	wordpools/wasnorm_wordpool_576.txt	LTP259	ltpFR2	10	22	MAILBOX	857	n/a	n/a	0	0	0
5386631	START	n/a	LTP259	ltpFR2	10	n/a	n/a	n/a	32	n/a	n/a	n/a	n/a
5387457	DISTRACTOR	n/a	LTP259	ltpFR2	10	22	n/a	n/a	n/a	n/a	0	0	0
5387467	PROB	n/a	LTP259	ltpFR2	10	n/a	n/a	n/a	32	15	9	2	4
5391561	PROB	n/a	LTP259	ltpFR2	10	n/a	n/a	n/a	32	17	7	5	5
5392917	PROB	n/a	LTP259	ltpFR2	10	n/a	n/a	n/a	32	27	9	9	9
5394823	PROB	n/a	LTP259	ltpFR2	10	n/a	n/a	n/a	32	16	8	7	1
5397138	PROB	n/a	LTP259	ltpFR2	10	n/a	n/a	n/a	32	22	9	6	7
5400116	PROB	n/a	LTP259	ltpFR2	10	n/a	n/a	n/a	32	17	9	3	5
5402173	PROB	n/a	LTP259	ltpFR2	10	n/a	n/a	n/a	32	11	3	3	5
5404193	PROB	n/a	LTP259	ltpFR2	10	n/a	n/a	n/a	32	18	5	7	6
5406371	PROB	n/a	LTP259	ltpFR2	10	n/a	n/a	n/a	32	20	7	8	5
5410056	STOP	n/a	LTP259	ltpFR2	10	n/a	n/a	n/a	32	n/a	n/a	n/a	n/a
5412491	REC_START	n/a	LTP259	ltpFR2	10	22	n/a	n/a	n/a	n/a	0	0	0
5412882	REC_WORD	wordpools/wasnorm_wordpool_576.txt	LTP259	ltpFR2	10	22	ORCHID	982	n/a	n/a	0	0	0
5413916	REC_WORD	wordpools/wasnorm_wordpool_576.txt	LTP259	ltpFR2	10	22	CHILD	299	n/a	n/a	0	0	0
5414586	REC_WORD	wordpools/wasnorm_wordpool_576.txt	LTP259	ltpFR2	10	22	MAILBOX	857	n/a	n/a	0	0	0
5417107	REC_WORD	wordpools/wasnorm_wordpool_576.txt	LTP259	ltpFR2	10	22	THRONE	1461	n/a	n/a	0	0	0
5503554	DISTRACTOR	n/a	LTP259	ltpFR2	10	23	n/a	n/a	n/a	n/a	0	0	0
5503555	START	n/a	LTP259	ltpFR2	10	n/a	n/a	n/a	33	n/a	n/a	n/a	n/a
5503605	PROB	n/a	LTP259	ltpFR2	10	n/a	n/a	n/a	33	16	2	6	8
5505390	PROB	n/a	LTP259	ltpFR2	10	n/a	n/a	n/a	33	16	5	3	8
5507464	PROB	n/a	LTP259	ltpFR2	10	n/a	n/a	n/a	33	16	4	5	7
5509489	PROB	n/a	LTP259	ltpFR2	10	n/a	n/a	n/a	33	17	6	3	8
5513020	PROB	n/a	LTP259	ltpFR2	10	n/a	n/a	n/a	33	19	3	7	9
5514809	PROB	n/a	LTP259	ltpFR2	10	n/a	n/a	n/a	33	13	3	3	7
5518005	PROB	n/a	LTP259	ltpFR2	10	n/a	n/a	n/a	33	18	8	2	8
5519393	PROB	n/a	LTP259	ltpFR2	10	n/a	n/a	n/a	33	10	1	7	2
5521021	PROB	n/a	LTP259	ltpFR2	10	n/a	n/a	n/a	33	14	1	6	7
5523207	PROB	n/a	LTP259	ltpFR2	10	n/a	n/a	n/a	33	13	1	8	4
5525466	PROB	n/a	LTP259	ltpFR2	10	n/a	n/a	n/a	33	18	8	7	3
5527040	STOP	n/a	LTP259	ltpFR2	10	n/a	n/a	n/a	33	n/a	n/a	n/a	n/a
5528745	WORD	wordpools/wasnorm_wordpool_576.txt	LTP259	ltpFR2	10	23	CHEMIST	292	n/a	n/a	0	0	0
5531259	WORD	wordpools/wasnorm_wordpool_576.txt	LTP259	ltpFR2	10	23	CUPBOARD	425	n/a	n/a	0	0	0
5534049	WORD	wordpools/wasnorm_wordpool_576.txt	LTP259	ltpFR2	10	23	STOMACH	1384	n/a	n/a	0	0	0
5536846	WORD	wordpools/wasnorm_wordpool_576.txt	LTP259	ltpFR2	10	23	LUNCH	849	n/a	n/a	0	0	0
5539373	WORD	wordpools/wasnorm_wordpool_576.txt	LTP259	ltpFR2	10	23	OZONE	996	n/a	n/a	0	0	0
5541917	WORD	wordpools/wasnorm_wordpool_576.txt	LTP259	ltpFR2	10	23	FRAME	600	n/a	n/a	0	0	0
5544738	WORD	wordpools/wasnorm_wordpool_576.txt	LTP259	ltpFR2	10	23	VIKING	1565	n/a	n/a	0	0	0
5547331	WORD	wordpools/wasnorm_wordpool_576.txt	LTP259	ltpFR2	10	23	VALLEY	1545	n/a	n/a	0	0	0
5550047	WORD	wordpools/wasnorm_wordpool_576.txt	LTP259	ltpFR2	10	23	BADGE	68	n/a	n/a	0	0	0
5552639	WORD	wordpools/wasnorm_wordpool_576.txt	LTP259	ltpFR2	10	23	BREAST	171	n/a	n/a	0	0	0
5555283	WORD	wordpools/wasnorm_wordpool_576.txt	LTP259	ltpFR2	10	23	GRAVE	658	n/a	n/a	0	0	0
5557742	WORD	wordpools/wasnorm_wordpool_576.txt	LTP259	ltpFR2	10	23	COUSIN	392	n/a	n/a	0	0	0
5560235	WORD	wordpools/wasnorm_wordpool_576.txt	LTP259	ltpFR2	10	23	CANYON	235	n/a	n/a	0	0	0
5562896	WORD	wordpools/wasnorm_wordpool_576.txt	LTP259	ltpFR2	10	23	OUTDOORS	987	n/a	n/a	0	0	0
5565538	WORD	wordpools/wasnorm_wordpool_576.txt	LTP259	ltpFR2	10	23	SERVER	1272	n/a	n/a	0	0	0
5568248	WORD	wordpools/wasnorm_wordpool_576.txt	LTP259	ltpFR2	10	23	STALLION	1369	n/a	n/a	0	0	0
5570943	WORD	wordpools/wasnorm_wordpool_576.txt	LTP259	ltpFR2	10	23	BUGGY	188	n/a	n/a	0	0	0
5573552	WORD	wordpools/wasnorm_wordpool_576.txt	LTP259	ltpFR2	10	23	TOASTER	1472	n/a	n/a	0	0	0
5576262	WORD	wordpools/wasnorm_wordpool_576.txt	LTP259	ltpFR2	10	23	STOVE	1388	n/a	n/a	0	0	0
5578821	WORD	wordpools/wasnorm_wordpool_576.txt	LTP259	ltpFR2	10	23	WHISKERS	1605	n/a	n/a	0	0	0
5581548	WORD	wordpools/wasnorm_wordpool_576.txt	LTP259	ltpFR2	10	23	YACHT	1629	n/a	n/a	0	0	0
5584154	WORD	wordpools/wasnorm_wordpool_576.txt	LTP259	ltpFR2	10	23	SAUSAGE	1238	n/a	n/a	0	0	0
5586835	WORD	wordpools/wasnorm_wordpool_576.txt	LTP259	ltpFR2	10	23	SKETCH	1315	n/a	n/a	0	0	0
5589624	WORD	wordpools/wasnorm_wordpool_576.txt	LTP259	ltpFR2	10	23	PAIL	1002	n/a	n/a	0	0	0
