onset	duration	trial_type	sample	stim_file	subject	experiment	session	trial	item_name	item_num	list	answer	test_x	test_y	test_z
222.31494140625	n/a	SESS_START	455301	n/a	LTP369	ltpFR2	3	n/a	n/a	n/a	n/a	n/a	0	0	0
241.17529296875	n/a	START	493927	n/a	LTP369	ltpFR2	3	n/a	n/a	n/a	-1	n/a	n/a	n/a	n/a
241.20556640625	n/a	PROB	493989	n/a	LTP369	ltpFR2	3	n/a	n/a	n/a	-1	9	1	1	7
242.45556640625	n/a	PROB	496549	n/a	LTP369	ltpFR2	3	n/a	n/a	n/a	-1	20	9	6	5
245.154296875	n/a	PROB	502076	n/a	LTP369	ltpFR2	3	n/a	n/a	n/a	-1	12	8	1	3
246.353515625	n/a	PROB	504532	n/a	LTP369	ltpFR2	3	n/a	n/a	n/a	-1	17	1	8	8
247.75244140625	n/a	PROB	507397	n/a	LTP369	ltpFR2	3	n/a	n/a	n/a	-1	17	3	7	7
248.96923828125	n/a	PROB	509889	n/a	LTP369	ltpFR2	3	n/a	n/a	n/a	-1	13	7	2	4
250.18505859375	n/a	PROB	512379	n/a	LTP369	ltpFR2	3	n/a	n/a	n/a	-1	16	7	6	3
251.6640625	n/a	STOP	515408	n/a	LTP369	ltpFR2	3	n/a	n/a	n/a	-1	n/a	n/a	n/a	n/a
290.06494140625	n/a	WORD	594053	wordpools/wasnorm_wordpool_576.txt	LTP369	ltpFR2	3	1	BUBBLE	183	n/a	n/a	0	0	0
292.76416015625	n/a	WORD	599581	wordpools/wasnorm_wordpool_576.txt	LTP369	ltpFR2	3	1	COBRA	336	n/a	n/a	0	0	0
295.5458984375	n/a	WORD	605278	wordpools/wasnorm_wordpool_576.txt	LTP369	ltpFR2	3	1	DIVER	476	n/a	n/a	0	0	0
298.24462890625	n/a	WORD	610805	wordpools/wasnorm_wordpool_576.txt	LTP369	ltpFR2	3	1	GIFT	635	n/a	n/a	0	0	0
300.7099609375	n/a	WORD	615854	wordpools/wasnorm_wordpool_576.txt	LTP369	ltpFR2	3	1	GREASE	660	n/a	n/a	0	0	0
303.19287109375	n/a	WORD	620939	wordpools/wasnorm_wordpool_576.txt	LTP369	ltpFR2	3	1	TAXI	1438	n/a	n/a	0	0	0
305.724609375	n/a	WORD	626124	wordpools/wasnorm_wordpool_576.txt	LTP369	ltpFR2	3	1	ONION	977	n/a	n/a	0	0	0
308.306640625	n/a	WORD	631412	wordpools/wasnorm_wordpool_576.txt	LTP369	ltpFR2	3	1	CAFE	216	n/a	n/a	0	0	0
311.08837890625	n/a	WORD	637109	wordpools/wasnorm_wordpool_576.txt	LTP369	ltpFR2	3	1	SHARK	1275	n/a	n/a	0	0	0
313.8544921875	n/a	WORD	642774	wordpools/wasnorm_wordpool_576.txt	LTP369	ltpFR2	3	1	OINTMENT	974	n/a	n/a	0	0	0
316.2861328125	n/a	WORD	647754	wordpools/wasnorm_wordpool_576.txt	LTP369	ltpFR2	3	1	LEADER	807	n/a	n/a	0	0	0
318.8681640625	n/a	WORD	653042	wordpools/wasnorm_wordpool_576.txt	LTP369	ltpFR2	3	1	SERVANT	1271	n/a	n/a	0	0	0
321.35009765625	n/a	WORD	658125	wordpools/wasnorm_wordpool_576.txt	LTP369	ltpFR2	3	1	SALMON	1227	n/a	n/a	0	0	0
324.06591796875	n/a	WORD	663687	wordpools/wasnorm_wordpool_576.txt	LTP369	ltpFR2	3	1	LETTUCE	814	n/a	n/a	0	0	0
326.830078125	n/a	WORD	669348	wordpools/wasnorm_wordpool_576.txt	LTP369	ltpFR2	3	1	RADISH	1158	n/a	n/a	0	0	0
329.5126953125	n/a	WORD	674842	wordpools/wasnorm_wordpool_576.txt	LTP369	ltpFR2	3	1	CANYON	235	n/a	n/a	0	0	0
332.19482421875	n/a	WORD	680335	wordpools/wasnorm_wordpool_576.txt	LTP369	ltpFR2	3	1	PIZZA	1079	n/a	n/a	0	0	0
334.7939453125	n/a	WORD	685658	wordpools/wasnorm_wordpool_576.txt	LTP369	ltpFR2	3	1	MEDAL	885	n/a	n/a	0	0	0
337.55859375	n/a	WORD	691320	wordpools/wasnorm_wordpool_576.txt	LTP369	ltpFR2	3	1	BLADE	134	n/a	n/a	0	0	0
340.09130859375	n/a	WORD	696507	wordpools/wasnorm_wordpool_576.txt	LTP369	ltpFR2	3	1	DASHBOARD	441	n/a	n/a	0	0	0
342.6396484375	n/a	WORD	701726	wordpools/wasnorm_wordpool_576.txt	LTP369	ltpFR2	3	1	DUST	508	n/a	n/a	0	0	0
345.23828125	n/a	WORD	707048	wordpools/wasnorm_wordpool_576.txt	LTP369	ltpFR2	3	1	APPLE	33	n/a	n/a	0	0	0
347.7041015625	n/a	WORD	712098	wordpools/wasnorm_wordpool_576.txt	LTP369	ltpFR2	3	1	CARROT	249	n/a	n/a	0	0	0
350.16943359375	n/a	WORD	717147	wordpools/wasnorm_wordpool_576.txt	LTP369	ltpFR2	3	1	PERFUME	1049	n/a	n/a	0	0	0
351.78515625	n/a	START	720456	n/a	LTP369	ltpFR2	3	n/a	n/a	n/a	1	n/a	n/a	n/a	n/a
352.662109375	n/a	DISTRACTOR	722252	n/a	LTP369	ltpFR2	3	1	n/a	n/a	n/a	n/a	0	0	0
352.66796875	n/a	PROB	722264	n/a	LTP369	ltpFR2	3	n/a	n/a	n/a	1	25	9	7	9
357.166015625	n/a	PROB	731476	n/a	LTP369	ltpFR2	3	n/a	n/a	n/a	1	15	7	4	4
358.39892578125	n/a	PROB	734001	n/a	LTP369	ltpFR2	3	n/a	n/a	n/a	1	10	5	4	1
359.9150390625	n/a	PROB	737106	n/a	LTP369	ltpFR2	3	n/a	n/a	n/a	1	18	9	6	3
361.3310546875	n/a	PROB	740006	n/a	LTP369	ltpFR2	3	n/a	n/a	n/a	1	16	8	6	2
363.31298828125	n/a	PROB	744065	n/a	LTP369	ltpFR2	3	n/a	n/a	n/a	1	24	9	6	9
365.14599609375	n/a	PROB	747819	n/a	LTP369	ltpFR2	3	n/a	n/a	n/a	1	8	1	5	2
366.3447265625	n/a	PROB	750274	n/a	LTP369	ltpFR2	3	n/a	n/a	n/a	1	10	5	1	4
367.66064453125	n/a	PROB	752969	n/a	LTP369	ltpFR2	3	n/a	n/a	n/a	1	8	5	2	1
368.86083984375	n/a	PROB	755427	n/a	LTP369	ltpFR2	3	n/a	n/a	n/a	1	23	9	7	7
370.52685546875	n/a	PROB	758839	n/a	LTP369	ltpFR2	3	n/a	n/a	n/a	1	23	8	7	8
372.3427734375	n/a	PROB	762558	n/a	LTP369	ltpFR2	3	n/a	n/a	n/a	1	14	5	3	6
373.82373046875	n/a	PROB	765591	n/a	LTP369	ltpFR2	3	n/a	n/a	n/a	1	13	1	4	8
375.0712890625	n/a	STOP	768146	n/a	LTP369	ltpFR2	3	n/a	n/a	n/a	1	n/a	n/a	n/a	n/a
377.70654296875	n/a	REC_START	773543	n/a	LTP369	ltpFR2	3	1	n/a	n/a	n/a	n/a	0	0	0
378.83056640625	n/a	REC_WORD	775845	wordpools/wasnorm_wordpool_576.txt	LTP369	ltpFR2	3	1	BUBBLE	183	n/a	n/a	0	0	0
379.36328125	n/a	REC_WORD	776936	wordpools/wasnorm_wordpool_576.txt	LTP369	ltpFR2	3	1	COBRA	336	n/a	n/a	0	0	0
380.646484375	n/a	REC_WORD	779564	wordpools/wasnorm_wordpool_576.txt	LTP369	ltpFR2	3	1	DIVER	476	n/a	n/a	0	0	0
381.64453125	n/a	REC_WORD	781608	wordpools/wasnorm_wordpool_576.txt	LTP369	ltpFR2	3	1	GIFT	635	n/a	n/a	0	0	0
382.453125	n/a	REC_WORD	783264	wordpools/wasnorm_wordpool_576.txt	LTP369	ltpFR2	3	1	GREASE	660	n/a	n/a	0	0	0
383.123046875	n/a	REC_WORD	784636	wordpools/wasnorm_wordpool_576.txt	LTP369	ltpFR2	3	1	TAXI	1438	n/a	n/a	0	0	0
383.88037109375	n/a	REC_WORD	786187	wordpools/wasnorm_wordpool_576.txt	LTP369	ltpFR2	3	1	CAFE	216	n/a	n/a	0	0	0
385.59423828125	n/a	REC_WORD	789697	wordpools/wasnorm_wordpool_576.txt	LTP369	ltpFR2	3	1	ONION	977	n/a	n/a	0	0	0
389.6279296875	n/a	REC_WORD	797958	wordpools/wasnorm_wordpool_576.txt	LTP369	ltpFR2	3	1	SERVANT	1271	n/a	n/a	0	0	0
392.01708984375	n/a	REC_WORD	802851	wordpools/wasnorm_wordpool_576.txt	LTP369	ltpFR2	3	1	SHARK	1275	n/a	n/a	0	0	0
392.73974609375	n/a	REC_WORD	804331	wordpools/wasnorm_wordpool_576.txt	LTP369	ltpFR2	3	1	DASHBOARD	441	n/a	n/a	0	0	0
394.37109375	n/a	REC_WORD	807672	wordpools/wasnorm_wordpool_576.txt	LTP369	ltpFR2	3	1	MEDAL	885	n/a	n/a	0	0	0
395.470703125	n/a	REC_WORD	809924	wordpools/wasnorm_wordpool_576.txt	LTP369	ltpFR2	3	1	BLADE	134	n/a	n/a	0	0	0
396.13671875	n/a	REC_WORD	811288	wordpools/wasnorm_wordpool_576.txt	LTP369	ltpFR2	3	1	DUST	508	n/a	n/a	0	0	0
396.75	n/a	REC_WORD	812544	wordpools/wasnorm_wordpool_576.txt	LTP369	ltpFR2	3	1	APPLE	33	n/a	n/a	0	0	0
397.33984375	n/a	REC_WORD	813752	wordpools/wasnorm_wordpool_576.txt	LTP369	ltpFR2	3	1	PIZZA	1079	n/a	n/a	0	0	0
398.015625	n/a	REC_WORD	815136	wordpools/wasnorm_wordpool_576.txt	LTP369	ltpFR2	3	1	CANYON	235	n/a	n/a	0	0	0
406.33837890625	n/a	REC_WORD	832181	wordpools/wasnorm_wordpool_576.txt	LTP369	ltpFR2	3	1	SALMON	1227	n/a	n/a	0	0	0
407.2646484375	n/a	REC_WORD	834078	wordpools/wasnorm_wordpool_576.txt	LTP369	ltpFR2	3	1	LETTUCE	814	n/a	n/a	0	0	0
408.8134765625	n/a	REC_WORD	837250	wordpools/wasnorm_wordpool_576.txt	LTP369	ltpFR2	3	1	RADISH	1158	n/a	n/a	0	0	0
468.1455078125	n/a	WORD	958762	wordpools/wasnorm_wordpool_576.txt	LTP369	ltpFR2	3	2	COURSE	390	n/a	n/a	0	0	0
470.7275390625	n/a	WORD	964050	wordpools/wasnorm_wordpool_576.txt	LTP369	ltpFR2	3	2	PICNIC	1060	n/a	n/a	0	0	0
473.45947265625	n/a	WORD	969645	wordpools/wasnorm_wordpool_576.txt	LTP369	ltpFR2	3	2	MOTOR	922	n/a	n/a	0	0	0
476.17529296875	n/a	WORD	975207	wordpools/wasnorm_wordpool_576.txt	LTP369	ltpFR2	3	2	PISTON	1076	n/a	n/a	0	0	0
478.75732421875	n/a	WORD	980495	wordpools/wasnorm_wordpool_576.txt	LTP369	ltpFR2	3	2	SUBWAY	1400	n/a	n/a	0	0	0
481.25537109375	n/a	WORD	985611	wordpools/wasnorm_wordpool_576.txt	LTP369	ltpFR2	3	2	CANDY	230	n/a	n/a	0	0	0
483.85400390625	n/a	WORD	990933	wordpools/wasnorm_wordpool_576.txt	LTP369	ltpFR2	3	2	BREAST	171	n/a	n/a	0	0	0
486.5703125	n/a	WORD	996496	wordpools/wasnorm_wordpool_576.txt	LTP369	ltpFR2	3	2	STOVE	1388	n/a	n/a	0	0	0
489.0849609375	n/a	WORD	1001646	wordpools/wasnorm_wordpool_576.txt	LTP369	ltpFR2	3	2	TABLE	1426	n/a	n/a	0	0	0
491.90087890625	n/a	WORD	1007413	wordpools/wasnorm_wordpool_576.txt	LTP369	ltpFR2	3	2	DRESSER	496	n/a	n/a	0	0	0
494.68310546875	n/a	WORD	1013111	wordpools/wasnorm_wordpool_576.txt	LTP369	ltpFR2	3	2	SUNRISE	1407	n/a	n/a	0	0	0
497.31494140625	n/a	WORD	1018501	wordpools/wasnorm_wordpool_576.txt	LTP369	ltpFR2	3	2	GIRL	637	n/a	n/a	0	0	0
499.763671875	n/a	WORD	1023516	wordpools/wasnorm_wordpool_576.txt	LTP369	ltpFR2	3	2	CORAL	378	n/a	n/a	0	0	0
502.54541015625	n/a	WORD	1029213	wordpools/wasnorm_wordpool_576.txt	LTP369	ltpFR2	3	2	COMPASS	358	n/a	n/a	0	0	0
505.12744140625	n/a	WORD	1034501	wordpools/wasnorm_wordpool_576.txt	LTP369	ltpFR2	3	2	PERMIT	1051	n/a	n/a	0	0	0
507.609375	n/a	WORD	1039584	wordpools/wasnorm_wordpool_576.txt	LTP369	ltpFR2	3	2	BEAST	108	n/a	n/a	0	0	0
510.1083984375	n/a	WORD	1044702	wordpools/wasnorm_wordpool_576.txt	LTP369	ltpFR2	3	2	YOLK	1633	n/a	n/a	0	0	0
512.64013671875	n/a	WORD	1049887	wordpools/wasnorm_wordpool_576.txt	LTP369	ltpFR2	3	2	TART	1436	n/a	n/a	0	0	0
515.1064453125	n/a	WORD	1054938	wordpools/wasnorm_wordpool_576.txt	LTP369	ltpFR2	3	2	RECORD	1176	n/a	n/a	0	0	0
517.904296875	n/a	WORD	1060668	wordpools/wasnorm_wordpool_576.txt	LTP369	ltpFR2	3	2	VAGRANT	1544	n/a	n/a	0	0	0
520.35302734375	n/a	WORD	1065683	wordpools/wasnorm_wordpool_576.txt	LTP369	ltpFR2	3	2	SWIMMER	1420	n/a	n/a	0	0	0
522.8349609375	n/a	WORD	1070766	wordpools/wasnorm_wordpool_576.txt	LTP369	ltpFR2	3	2	HONEY	713	n/a	n/a	0	0	0
525.43408203125	n/a	WORD	1076089	wordpools/wasnorm_wordpool_576.txt	LTP369	ltpFR2	3	2	ZIPPER	1636	n/a	n/a	0	0	0
528.2158203125	n/a	WORD	1081786	wordpools/wasnorm_wordpool_576.txt	LTP369	ltpFR2	3	2	DRESS	495	n/a	n/a	0	0	0
529.8310546875	n/a	START	1085094	n/a	LTP369	ltpFR2	3	n/a	n/a	n/a	2	n/a	n/a	n/a	n/a
530.94384765625	n/a	DISTRACTOR	1087373	n/a	LTP369	ltpFR2	3	2	n/a	n/a	n/a	n/a	0	0	0
530.94873046875	n/a	PROB	1087383	n/a	LTP369	ltpFR2	3	n/a	n/a	n/a	2	15	4	2	9
532.31494140625	n/a	PROB	1090181	n/a	LTP369	ltpFR2	3	n/a	n/a	n/a	2	15	1	7	7
533.5634765625	n/a	PROB	1092738	n/a	LTP369	ltpFR2	3	n/a	n/a	n/a	2	15	5	5	5
535.0126953125	n/a	PROB	1095706	n/a	LTP369	ltpFR2	3	n/a	n/a	n/a	2	10	2	5	3
536.4287109375	n/a	PROB	1098606	n/a	LTP369	ltpFR2	3	n/a	n/a	n/a	2	18	9	1	8
537.87841796875	n/a	PROB	1101575	n/a	LTP369	ltpFR2	3	n/a	n/a	n/a	2	9	5	1	3
539.87744140625	n/a	PROB	1105669	n/a	LTP369	ltpFR2	3	n/a	n/a	n/a	2	11	4	2	5
541.2265625	n/a	PROB	1108432	n/a	LTP369	ltpFR2	3	n/a	n/a	n/a	2	14	7	4	3
542.7255859375	n/a	PROB	1111502	n/a	LTP369	ltpFR2	3	n/a	n/a	n/a	2	12	5	4	3
544.04248046875	n/a	PROB	1114199	n/a	LTP369	ltpFR2	3	n/a	n/a	n/a	2	23	6	9	7
547.107421875	n/a	PROB	1120476	n/a	LTP369	ltpFR2	3	n/a	n/a	n/a	2	18	6	6	6
548.64013671875	n/a	PROB	1123615	n/a	LTP369	ltpFR2	3	n/a	n/a	n/a	2	9	5	1	3
550.00634765625	n/a	PROB	1126413	n/a	LTP369	ltpFR2	3	n/a	n/a	n/a	2	16	2	9	5
551.67138671875	n/a	PROB	1129823	n/a	LTP369	ltpFR2	3	n/a	n/a	n/a	2	20	3	9	8
553.02294921875	n/a	STOP	1132591	n/a	LTP369	ltpFR2	3	n/a	n/a	n/a	2	n/a	n/a	n/a	n/a
555.7529296875	n/a	REC_START	1138182	n/a	LTP369	ltpFR2	3	2	n/a	n/a	n/a	n/a	0	0	0
556.9970703125	n/a	REC_WORD	1140730	wordpools/wasnorm_wordpool_576.txt	LTP369	ltpFR2	3	2	VAGRANT	1544	n/a	n/a	0	0	0
557.67578125	n/a	REC_WORD	1142120	wordpools/wasnorm_wordpool_576.txt	LTP369	ltpFR2	3	2	SWIMMER	1420	n/a	n/a	0	0	0
558.31689453125	n/a	REC_WORD	1143433	wordpools/wasnorm_wordpool_576.txt	LTP369	ltpFR2	3	2	HONEY	713	n/a	n/a	0	0	0
559.076171875	n/a	REC_WORD	1144988	wordpools/wasnorm_wordpool_576.txt	LTP369	ltpFR2	3	2	ZIPPER	1636	n/a	n/a	0	0	0
559.9150390625	n/a	REC_WORD	1146706	wordpools/wasnorm_wordpool_576.txt	LTP369	ltpFR2	3	2	DRESS	495	n/a	n/a	0	0	0
560.94775390625	n/a	REC_WORD	1148821	wordpools/wasnorm_wordpool_576.txt	LTP369	ltpFR2	3	2	CORAL	378	n/a	n/a	0	0	0
562.9306640625	n/a	REC_WORD	1152882	wordpools/wasnorm_wordpool_576.txt	LTP369	ltpFR2	3	2	DRESS	495	n/a	n/a	0	0	0
563.53466796875	n/a	REC_WORD	1154119	wordpools/wasnorm_wordpool_576.txt	LTP369	ltpFR2	3	2	STOVE	1388	n/a	n/a	0	0	0
564.39697265625	n/a	REC_WORD	1155885	wordpools/wasnorm_wordpool_576.txt	LTP369	ltpFR2	3	2	BREAST	171	n/a	n/a	0	0	0
568.564453125	n/a	REC_WORD	1164420	wordpools/wasnorm_wordpool_576.txt	LTP369	ltpFR2	3	2	PICNIC	1060	n/a	n/a	0	0	0
570.37548828125	n/a	REC_WORD	1168129	wordpools/wasnorm_wordpool_576.txt	LTP369	ltpFR2	3	2	COURSE	390	n/a	n/a	0	0	0
572.2763671875	n/a	REC_WORD	1172022	wordpools/wasnorm_wordpool_576.txt	LTP369	ltpFR2	3	2	CANDY	230	n/a	n/a	0	0	0
573.064453125	n/a	REC_WORD	1173636	wordpools/wasnorm_wordpool_576.txt	LTP369	ltpFR2	3	2	RECORD	1176	n/a	n/a	0	0	0
573.72265625	n/a	REC_WORD	1174984	wordpools/wasnorm_wordpool_576.txt	LTP369	ltpFR2	3	2	TART	1436	n/a	n/a	0	0	0
574.5205078125	n/a	REC_WORD	1176618	wordpools/wasnorm_wordpool_576.txt	LTP369	ltpFR2	3	2	BEAST	108	n/a	n/a	0	0	0
575.11962890625	n/a	REC_WORD	1177845	wordpools/wasnorm_wordpool_576.txt	LTP369	ltpFR2	3	2	YOLK	1633	n/a	n/a	0	0	0
579.41748046875	n/a	REC_WORD	1186647	wordpools/wasnorm_wordpool_576.txt	LTP369	ltpFR2	3	2	PERMIT	1051	n/a	n/a	0	0	0
590.6220703125	n/a	REC_WORD	1209594	wordpools/wasnorm_wordpool_576.txt	LTP369	ltpFR2	3	2	GIRL	637	n/a	n/a	0	0	0
591.384765625	n/a	REC_WORD	1211156	wordpools/wasnorm_wordpool_576.txt	LTP369	ltpFR2	3	2	MOTOR	922	n/a	n/a	0	0	0
592.5947265625	n/a	REC_WORD	1213634	wordpools/wasnorm_wordpool_576.txt	LTP369	ltpFR2	3	2	PICNIC	1060	n/a	n/a	0	0	0
594.263671875	n/a	REC_WORD	1217052	wordpools/wasnorm_wordpool_576.txt	LTP369	ltpFR2	3	2	SUBWAY	1400	n/a	n/a	0	0	0
646.17529296875	n/a	DISTRACTOR	1323367	n/a	LTP369	ltpFR2	3	3	n/a	n/a	n/a	n/a	0	0	0
646.17626953125	n/a	START	1323369	n/a	LTP369	ltpFR2	3	n/a	n/a	n/a	3	n/a	n/a	n/a	n/a
646.1923828125	n/a	PROB	1323402	n/a	LTP369	ltpFR2	3	n/a	n/a	n/a	3	10	6	1	3
647.4921875	n/a	PROB	1326064	n/a	LTP369	ltpFR2	3	n/a	n/a	n/a	3	17	7	1	9
649.357421875	n/a	PROB	1329884	n/a	LTP369	ltpFR2	3	n/a	n/a	n/a	3	21	7	9	5
650.77294921875	n/a	PROB	1332783	n/a	LTP369	ltpFR2	3	n/a	n/a	n/a	3	13	5	3	5
652.42333984375	n/a	PROB	1336163	n/a	LTP369	ltpFR2	3	n/a	n/a	n/a	3	14	9	3	2
653.68896484375	n/a	PROB	1338755	n/a	LTP369	ltpFR2	3	n/a	n/a	n/a	3	12	7	1	3
655.15478515625	n/a	PROB	1341757	n/a	LTP369	ltpFR2	3	n/a	n/a	n/a	3	17	9	1	7
656.4208984375	n/a	PROB	1344350	n/a	LTP369	ltpFR2	3	n/a	n/a	n/a	3	13	1	3	9
657.7197265625	n/a	PROB	1347010	n/a	LTP369	ltpFR2	3	n/a	n/a	n/a	3	15	8	1	6
659.052734375	n/a	PROB	1349740	n/a	LTP369	ltpFR2	3	n/a	n/a	n/a	3	19	4	8	7
660.5517578125	n/a	PROB	1352810	n/a	LTP369	ltpFR2	3	n/a	n/a	n/a	3	18	6	7	5
662.23486328125	n/a	PROB	1356257	n/a	LTP369	ltpFR2	3	n/a	n/a	n/a	3	15	1	7	7
663.56689453125	n/a	PROB	1358985	n/a	LTP369	ltpFR2	3	n/a	n/a	n/a	3	19	7	5	7
665.099609375	n/a	PROB	1362124	n/a	LTP369	ltpFR2	3	n/a	n/a	n/a	3	15	6	1	7
666.265625	n/a	PROB	1364512	n/a	LTP369	ltpFR2	3	n/a	n/a	n/a	3	18	7	8	3
668.1484375	n/a	PROB	1368368	n/a	LTP369	ltpFR2	3	n/a	n/a	n/a	3	14	8	2	4
669.2236328125	n/a	STOP	1370570	n/a	LTP369	ltpFR2	3	n/a	n/a	n/a	3	n/a	n/a	n/a	n/a
671.11376953125	n/a	WORD	1374441	wordpools/wasnorm_wordpool_576.txt	LTP369	ltpFR2	3	3	PIANO	1057	n/a	n/a	0	0	0
673.6455078125	n/a	WORD	1379626	wordpools/wasnorm_wordpool_576.txt	LTP369	ltpFR2	3	3	BROOK	177	n/a	n/a	0	0	0
676.07763671875	n/a	WORD	1384607	wordpools/wasnorm_wordpool_576.txt	LTP369	ltpFR2	3	3	LIGHTNING	820	n/a	n/a	0	0	0
678.62646484375	n/a	WORD	1389827	wordpools/wasnorm_wordpool_576.txt	LTP369	ltpFR2	3	3	CRITIC	410	n/a	n/a	0	0	0
681.275390625	n/a	WORD	1395252	wordpools/wasnorm_wordpool_576.txt	LTP369	ltpFR2	3	3	MAILMAN	858	n/a	n/a	0	0	0
683.94091796875	n/a	WORD	1400711	wordpools/wasnorm_wordpool_576.txt	LTP369	ltpFR2	3	3	MARSH	874	n/a	n/a	0	0	0
686.623046875	n/a	WORD	1406204	wordpools/wasnorm_wordpool_576.txt	LTP369	ltpFR2	3	3	CUSTARD	429	n/a	n/a	0	0	0
689.40478515625	n/a	WORD	1411901	wordpools/wasnorm_wordpool_576.txt	LTP369	ltpFR2	3	3	BANJO	82	n/a	n/a	0	0	0
692.0869140625	n/a	WORD	1417394	wordpools/wasnorm_wordpool_576.txt	LTP369	ltpFR2	3	3	WIDOW	1608	n/a	n/a	0	0	0
694.78564453125	n/a	WORD	1422921	wordpools/wasnorm_wordpool_576.txt	LTP369	ltpFR2	3	3	SOFTBALL	1343	n/a	n/a	0	0	0
697.267578125	n/a	WORD	1428004	wordpools/wasnorm_wordpool_576.txt	LTP369	ltpFR2	3	3	CATCHER	258	n/a	n/a	0	0	0
699.86669921875	n/a	WORD	1433327	wordpools/wasnorm_wordpool_576.txt	LTP369	ltpFR2	3	3	PAIL	1002	n/a	n/a	0	0	0
702.49853515625	n/a	WORD	1438717	wordpools/wasnorm_wordpool_576.txt	LTP369	ltpFR2	3	3	SPIDER	1351	n/a	n/a	0	0	0
705.19775390625	n/a	WORD	1444245	wordpools/wasnorm_wordpool_576.txt	LTP369	ltpFR2	3	3	HATCHET	691	n/a	n/a	0	0	0
708.01220703125	n/a	WORD	1450009	wordpools/wasnorm_wordpool_576.txt	LTP369	ltpFR2	3	3	CLOCK	325	n/a	n/a	0	0	0
710.6611328125	n/a	WORD	1455434	wordpools/wasnorm_wordpool_576.txt	LTP369	ltpFR2	3	3	SLIDE	1326	n/a	n/a	0	0	0
713.2431640625	n/a	WORD	1460722	wordpools/wasnorm_wordpool_576.txt	LTP369	ltpFR2	3	3	HOUND	724	n/a	n/a	0	0	0
716.05810546875	n/a	WORD	1466487	wordpools/wasnorm_wordpool_576.txt	LTP369	ltpFR2	3	3	PORTRAIT	1111	n/a	n/a	0	0	0
718.50732421875	n/a	WORD	1471503	wordpools/wasnorm_wordpool_576.txt	LTP369	ltpFR2	3	3	FIDDLE	561	n/a	n/a	0	0	0
721.255859375	n/a	WORD	1477132	wordpools/wasnorm_wordpool_576.txt	LTP369	ltpFR2	3	3	SKETCH	1315	n/a	n/a	0	0	0
723.77099609375	n/a	WORD	1482283	wordpools/wasnorm_wordpool_576.txt	LTP369	ltpFR2	3	3	OUTLAW	989	n/a	n/a	0	0	0
726.419921875	n/a	WORD	1487708	wordpools/wasnorm_wordpool_576.txt	LTP369	ltpFR2	3	3	CONVICT	371	n/a	n/a	0	0	0
729.001953125	n/a	WORD	1492996	wordpools/wasnorm_wordpool_576.txt	LTP369	ltpFR2	3	3	MARINE	869	n/a	n/a	0	0	0
731.70068359375	n/a	WORD	1498523	wordpools/wasnorm_wordpool_576.txt	LTP369	ltpFR2	3	3	FIREMAN	569	n/a	n/a	0	0	0
733.31689453125	n/a	START	1501833	n/a	LTP369	ltpFR2	3	n/a	n/a	n/a	4	n/a	n/a	n/a	n/a
734.40380859375	n/a	DISTRACTOR	1504059	n/a	LTP369	ltpFR2	3	3	n/a	n/a	n/a	n/a	0	0	0
734.41650390625	n/a	PROB	1504085	n/a	LTP369	ltpFR2	3	n/a	n/a	n/a	4	9	2	6	1
735.982421875	n/a	PROB	1507292	n/a	LTP369	ltpFR2	3	n/a	n/a	n/a	4	14	6	1	7
737.24853515625	n/a	PROB	1509885	n/a	LTP369	ltpFR2	3	n/a	n/a	n/a	4	19	8	8	3
738.54736328125	n/a	PROB	1512545	n/a	LTP369	ltpFR2	3	n/a	n/a	n/a	4	23	8	6	9
740.49658203125	n/a	PROB	1516537	n/a	LTP369	ltpFR2	3	n/a	n/a	n/a	4	25	9	9	7
742.57958984375	n/a	PROB	1520803	n/a	LTP369	ltpFR2	3	n/a	n/a	n/a	4	19	7	9	3
743.9453125	n/a	PROB	1523600	n/a	LTP369	ltpFR2	3	n/a	n/a	n/a	4	13	3	1	9
745.14453125	n/a	PROB	1526056	n/a	LTP369	ltpFR2	3	n/a	n/a	n/a	4	23	8	6	9
746.87744140625	n/a	PROB	1529605	n/a	LTP369	ltpFR2	3	n/a	n/a	n/a	4	6	2	3	1
748.29345703125	n/a	PROB	1532505	n/a	LTP369	ltpFR2	3	n/a	n/a	n/a	4	19	3	9	7
749.72509765625	n/a	PROB	1535437	n/a	LTP369	ltpFR2	3	n/a	n/a	n/a	4	15	5	9	1
750.94091796875	n/a	PROB	1537927	n/a	LTP369	ltpFR2	3	n/a	n/a	n/a	4	9	1	7	1
752.35693359375	n/a	PROB	1540827	n/a	LTP369	ltpFR2	3	n/a	n/a	n/a	4	15	5	6	4
754.0400390625	n/a	PROB	1544274	n/a	LTP369	ltpFR2	3	n/a	n/a	n/a	4	24	8	7	9
755.94287109375	n/a	STOP	1548171	n/a	LTP369	ltpFR2	3	n/a	n/a	n/a	4	n/a	n/a	n/a	n/a
759.087890625	n/a	REC_START	1554612	n/a	LTP369	ltpFR2	3	3	n/a	n/a	n/a	n/a	0	0	0
763.45751953125	n/a	REC_WORD	1563561	wordpools/wasnorm_wordpool_576.txt	LTP369	ltpFR2	3	3	SLIDE	1326	n/a	n/a	0	0	0
764.7255859375	n/a	REC_WORD	1566158	wordpools/wasnorm_wordpool_576.txt	LTP369	ltpFR2	3	3	HOUND	724	n/a	n/a	0	0	0
765.87548828125	n/a	REC_WORD	1568513	wordpools/wasnorm_wordpool_576.txt	LTP369	ltpFR2	3	3	FIREMAN	569	n/a	n/a	0	0	0
767.23779296875	n/a	REC_WORD	1571303	wordpools/wasnorm_wordpool_576.txt	LTP369	ltpFR2	3	3	MARINE	869	n/a	n/a	0	0	0
768.185546875	n/a	REC_WORD	1573244	wordpools/wasnorm_wordpool_576.txt	LTP369	ltpFR2	3	3	CONVICT	371	n/a	n/a	0	0	0
770.0986328125	n/a	REC_WORD	1577162	wordpools/wasnorm_wordpool_576.txt	LTP369	ltpFR2	3	3	OUTLAW	989	n/a	n/a	0	0	0
770.8095703125	n/a	REC_WORD	1578618	wordpools/wasnorm_wordpool_576.txt	LTP369	ltpFR2	3	3	SKETCH	1315	n/a	n/a	0	0	0
773.0322265625	n/a	REC_WORD	1583170	wordpools/wasnorm_wordpool_576.txt	LTP369	ltpFR2	3	3	FRAME	600	n/a	n/a	0	0	0
775.87451171875	n/a	REC_WORD	1588991	wordpools/wasnorm_wordpool_576.txt	LTP369	ltpFR2	3	3	CLOCK	325	n/a	n/a	0	0	0
778.08642578125	n/a	REC_WORD	1593521	wordpools/wasnorm_wordpool_576.txt	LTP369	ltpFR2	3	3	PIANO	1057	n/a	n/a	0	0	0
779.01318359375	n/a	REC_WORD	1595419	wordpools/wasnorm_wordpool_576.txt	LTP369	ltpFR2	3	3	BROOK	177	n/a	n/a	0	0	0
779.79443359375	n/a	REC_WORD	1597019	wordpools/wasnorm_wordpool_576.txt	LTP369	ltpFR2	3	3	LIGHTNING	820	n/a	n/a	0	0	0
780.55224609375	n/a	REC_WORD	1598571	wordpools/wasnorm_wordpool_576.txt	LTP369	ltpFR2	3	3	PAIL	1002	n/a	n/a	0	0	0
781.05810546875	n/a	REC_WORD	1599607	wordpools/wasnorm_wordpool_576.txt	LTP369	ltpFR2	3	3	SPIDER	1351	n/a	n/a	0	0	0
781.7470703125	n/a	REC_WORD	1601018	wordpools/wasnorm_wordpool_576.txt	LTP369	ltpFR2	3	3	FIDDLE	561	n/a	n/a	0	0	0
783.5263671875	n/a	REC_WORD	1604662	wordpools/wasnorm_wordpool_576.txt	LTP369	ltpFR2	3	3	CATCHER	258	n/a	n/a	0	0	0
784.05517578125	n/a	REC_WORD	1605745	wordpools/wasnorm_wordpool_576.txt	LTP369	ltpFR2	3	3	SOFTBALL	1343	n/a	n/a	0	0	0
784.85400390625	n/a	REC_WORD	1607381	wordpools/wasnorm_wordpool_576.txt	LTP369	ltpFR2	3	3	WIDOW	1608	n/a	n/a	0	0	0
785.9541015625	n/a	REC_WORD	1609634	wordpools/wasnorm_wordpool_576.txt	LTP369	ltpFR2	3	3	CUSTARD	429	n/a	n/a	0	0	0
790.77001953125	n/a	REC_WORD	1619497	wordpools/wasnorm_wordpool_576.txt	LTP369	ltpFR2	3	3	HATCHET	691	n/a	n/a	0	0	0
799.15380859375	n/a	REC_WORD	1636667	wordpools/wasnorm_wordpool_576.txt	LTP369	ltpFR2	3	3	BANJO	82	n/a	n/a	0	0	0
801.513671875	n/a	REC_WORD	1641500	wordpools/wasnorm_wordpool_576.txt	LTP369	ltpFR2	3	3	MARSH	874	n/a	n/a	0	0	0
849.5439453125	n/a	WORD	1739866	wordpools/wasnorm_wordpool_576.txt	LTP369	ltpFR2	3	4	DUSTPAN	509	n/a	n/a	0	0	0
852.09228515625	n/a	WORD	1745085	wordpools/wasnorm_wordpool_576.txt	LTP369	ltpFR2	3	4	BUTCHER	203	n/a	n/a	0	0	0
854.791015625	n/a	WORD	1750612	wordpools/wasnorm_wordpool_576.txt	LTP369	ltpFR2	3	4	TWISTER	1530	n/a	n/a	0	0	0
857.43994140625	n/a	WORD	1756037	wordpools/wasnorm_wordpool_576.txt	LTP369	ltpFR2	3	4	MONSTER	912	n/a	n/a	0	0	0
860.2216796875	n/a	WORD	1761734	wordpools/wasnorm_wordpool_576.txt	LTP369	ltpFR2	3	4	INFANT	737	n/a	n/a	0	0	0
863.03662109375	n/a	WORD	1767499	wordpools/wasnorm_wordpool_576.txt	LTP369	ltpFR2	3	4	LAMP	798	n/a	n/a	0	0	0
865.50244140625	n/a	WORD	1772549	wordpools/wasnorm_wordpool_576.txt	LTP369	ltpFR2	3	4	NOVEL	960	n/a	n/a	0	0	0
868.11767578125	n/a	WORD	1777905	wordpools/wasnorm_wordpool_576.txt	LTP369	ltpFR2	3	4	PAPER	1011	n/a	n/a	0	0	0
870.78369140625	n/a	WORD	1783365	wordpools/wasnorm_wordpool_576.txt	LTP369	ltpFR2	3	4	ITEM	746	n/a	n/a	0	0	0
873.4326171875	n/a	WORD	1788790	wordpools/wasnorm_wordpool_576.txt	LTP369	ltpFR2	3	4	BABY	64	n/a	n/a	0	0	0
876.18017578125	n/a	WORD	1794417	wordpools/wasnorm_wordpool_576.txt	LTP369	ltpFR2	3	4	ULCER	1533	n/a	n/a	0	0	0
878.86328125	n/a	WORD	1799912	wordpools/wasnorm_wordpool_576.txt	LTP369	ltpFR2	3	4	STICKER	1382	n/a	n/a	0	0	0
881.51123046875	n/a	WORD	1805335	wordpools/wasnorm_wordpool_576.txt	LTP369	ltpFR2	3	4	DRAGON	492	n/a	n/a	0	0	0
883.97705078125	n/a	WORD	1810385	wordpools/wasnorm_wordpool_576.txt	LTP369	ltpFR2	3	4	FRAME	600	n/a	n/a	0	0	0
886.50927734375	n/a	WORD	1815571	wordpools/wasnorm_wordpool_576.txt	LTP369	ltpFR2	3	4	SODA	1341	n/a	n/a	0	0	0
889.041015625	n/a	WORD	1820756	wordpools/wasnorm_wordpool_576.txt	LTP369	ltpFR2	3	4	SHERIFF	1284	n/a	n/a	0	0	0
891.73974609375	n/a	WORD	1826283	wordpools/wasnorm_wordpool_576.txt	LTP369	ltpFR2	3	4	AGENT	10	n/a	n/a	0	0	0
894.4716796875	n/a	WORD	1831878	wordpools/wasnorm_wordpool_576.txt	LTP369	ltpFR2	3	4	PEBBLE	1035	n/a	n/a	0	0	0
896.98779296875	n/a	WORD	1837031	wordpools/wasnorm_wordpool_576.txt	LTP369	ltpFR2	3	4	WIFE	1609	n/a	n/a	0	0	0
899.48681640625	n/a	WORD	1842149	wordpools/wasnorm_wordpool_576.txt	LTP369	ltpFR2	3	4	DRILL	497	n/a	n/a	0	0	0
902.1513671875	n/a	WORD	1847606	wordpools/wasnorm_wordpool_576.txt	LTP369	ltpFR2	3	4	SCALPEL	1243	n/a	n/a	0	0	0
904.767578125	n/a	WORD	1852964	wordpools/wasnorm_wordpool_576.txt	LTP369	ltpFR2	3	4	FOREST	593	n/a	n/a	0	0	0
907.482421875	n/a	WORD	1858524	wordpools/wasnorm_wordpool_576.txt	LTP369	ltpFR2	3	4	BOX	159	n/a	n/a	0	0	0
910.09716796875	n/a	WORD	1863879	wordpools/wasnorm_wordpool_576.txt	LTP369	ltpFR2	3	4	PACKAGE	997	n/a	n/a	0	0	0
911.71435546875	n/a	START	1867191	n/a	LTP369	ltpFR2	3	n/a	n/a	n/a	5	n/a	n/a	n/a	n/a
912.78125	n/a	DISTRACTOR	1869376	n/a	LTP369	ltpFR2	3	4	n/a	n/a	n/a	n/a	0	0	0
912.79638671875	n/a	PROB	1869407	n/a	LTP369	ltpFR2	3	n/a	n/a	n/a	5	14	3	9	2
914.24609375	n/a	PROB	1872376	n/a	LTP369	ltpFR2	3	n/a	n/a	n/a	5	14	5	3	6
915.42822265625	n/a	PROB	1874797	n/a	LTP369	ltpFR2	3	n/a	n/a	n/a	5	13	5	2	6
916.67822265625	n/a	PROB	1877357	n/a	LTP369	ltpFR2	3	n/a	n/a	n/a	5	17	5	5	7
917.876953125	n/a	PROB	1879812	n/a	LTP369	ltpFR2	3	n/a	n/a	n/a	5	19	7	7	5
919.39306640625	n/a	PROB	1882917	n/a	LTP369	ltpFR2	3	n/a	n/a	n/a	5	22	6	9	7
921.4921875	n/a	PROB	1887216	n/a	LTP369	ltpFR2	3	n/a	n/a	n/a	5	16	9	4	3
922.94189453125	n/a	PROB	1890185	n/a	LTP369	ltpFR2	3	n/a	n/a	n/a	5	21	9	5	7
925.02392578125	n/a	PROB	1894449	n/a	LTP369	ltpFR2	3	n/a	n/a	n/a	5	15	8	3	4
926.18994140625	n/a	PROB	1896837	n/a	LTP369	ltpFR2	3	n/a	n/a	n/a	5	11	3	6	2
927.35595703125	n/a	PROB	1899225	n/a	LTP369	ltpFR2	3	n/a	n/a	n/a	5	22	8	6	8
929.421875	n/a	PROB	1903456	n/a	LTP369	ltpFR2	3	n/a	n/a	n/a	5	11	1	2	8
930.720703125	n/a	PROB	1906116	n/a	LTP369	ltpFR2	3	n/a	n/a	n/a	5	19	5	7	7
932.603515625	n/a	PROB	1909972	n/a	LTP369	ltpFR2	3	n/a	n/a	n/a	5	13	9	1	3
935.71337890625	n/a	STOP	1916341	n/a	LTP369	ltpFR2	3	n/a	n/a	n/a	5	n/a	n/a	n/a	n/a
937.53466796875	n/a	REC_START	1920071	n/a	LTP369	ltpFR2	3	4	n/a	n/a	n/a	n/a	0	0	0
939.1484375	n/a	REC_WORD	1923376	wordpools/wasnorm_wordpool_576.txt	LTP369	ltpFR2	3	4	BUTCHER	203	n/a	n/a	0	0	0
939.75634765625	n/a	REC_WORD	1924621	wordpools/wasnorm_wordpool_576.txt	LTP369	ltpFR2	3	4	DUSTPAN	509	n/a	n/a	0	0	0
940.50244140625	n/a	REC_WORD	1926149	wordpools/wasnorm_wordpool_576.txt	LTP369	ltpFR2	3	4	TWISTER	1530	n/a	n/a	0	0	0
941.185546875	n/a	REC_WORD	1927548	wordpools/wasnorm_wordpool_576.txt	LTP369	ltpFR2	3	4	MONSTER	912	n/a	n/a	0	0	0
943.88427734375	n/a	REC_WORD	1933075	wordpools/wasnorm_wordpool_576.txt	LTP369	ltpFR2	3	4	INFANT	737	n/a	n/a	0	0	0
949.89013671875	n/a	REC_WORD_VV	1945375	wordpools/wasnorm_wordpool_576.txt	LTP369	ltpFR2	3	4	<>	-1	n/a	n/a	0	0	0
950.60498046875	n/a	REC_WORD_VV	1946839	wordpools/wasnorm_wordpool_576.txt	LTP369	ltpFR2	3	4	<>	-1	n/a	n/a	0	0	0
952.09716796875	n/a	REC_WORD	1949895	wordpools/wasnorm_wordpool_576.txt	LTP369	ltpFR2	3	4	PAPER	1011	n/a	n/a	0	0	0
955.33203125	n/a	REC_WORD	1956520	wordpools/wasnorm_wordpool_576.txt	LTP369	ltpFR2	3	4	BABY	64	n/a	n/a	0	0	0
958.27294921875	n/a	REC_WORD	1962543	wordpools/wasnorm_wordpool_576.txt	LTP369	ltpFR2	3	4	WIFE	1609	n/a	n/a	0	0	0
959.388671875	n/a	REC_WORD	1964828	wordpools/wasnorm_wordpool_576.txt	LTP369	ltpFR2	3	4	DRILL	497	n/a	n/a	0	0	0
959.8828125	n/a	REC_WORD	1965840	wordpools/wasnorm_wordpool_576.txt	LTP369	ltpFR2	3	4	SCALPEL	1243	n/a	n/a	0	0	0
961.85791015625	n/a	REC_WORD	1969885	wordpools/wasnorm_wordpool_576.txt	LTP369	ltpFR2	3	4	WOODS	-1	n/a	n/a	0	0	0
964.68359375	n/a	REC_WORD	1975672	wordpools/wasnorm_wordpool_576.txt	LTP369	ltpFR2	3	4	DRAGON	492	n/a	n/a	0	0	0
966.59765625	n/a	REC_WORD	1979592	wordpools/wasnorm_wordpool_576.txt	LTP369	ltpFR2	3	4	FRAME	600	n/a	n/a	0	0	0
969.06640625	n/a	REC_WORD	1984648	wordpools/wasnorm_wordpool_576.txt	LTP369	ltpFR2	3	4	STICKER	1382	n/a	n/a	0	0	0
975.2783203125	n/a	REC_WORD	1997370	wordpools/wasnorm_wordpool_576.txt	LTP369	ltpFR2	3	4	PEBBLE	1035	n/a	n/a	0	0	0
987.2958984375	n/a	REC_WORD	2021982	wordpools/wasnorm_wordpool_576.txt	LTP369	ltpFR2	3	4	LIGHT	-1	n/a	n/a	0	0	0
1027.9736328125	n/a	DISTRACTOR	2105290	n/a	LTP369	ltpFR2	3	5	n/a	n/a	n/a	n/a	0	0	0
1027.9736328125	n/a	START	2105290	n/a	LTP369	ltpFR2	3	n/a	n/a	n/a	6	n/a	n/a	n/a	n/a
1027.99072265625	n/a	PROB	2105325	n/a	LTP369	ltpFR2	3	n/a	n/a	n/a	6	10	2	6	2
1029.33984375	n/a	PROB	2108088	n/a	LTP369	ltpFR2	3	n/a	n/a	n/a	6	18	9	2	7
1030.755859375	n/a	PROB	2110988	n/a	LTP369	ltpFR2	3	n/a	n/a	n/a	6	22	9	8	5
1032.50439453125	n/a	PROB	2114569	n/a	LTP369	ltpFR2	3	n/a	n/a	n/a	6	11	1	1	9
1033.9375	n/a	PROB	2117504	n/a	LTP369	ltpFR2	3	n/a	n/a	n/a	6	9	4	3	2
1035.2705078125	n/a	PROB	2120234	n/a	LTP369	ltpFR2	3	n/a	n/a	n/a	6	11	1	1	9
1036.4697265625	n/a	PROB	2122690	n/a	LTP369	ltpFR2	3	n/a	n/a	n/a	6	25	8	8	9
1038.20263671875	n/a	PROB	2126239	n/a	LTP369	ltpFR2	3	n/a	n/a	n/a	6	18	9	2	7
1039.8173828125	n/a	PROB	2129546	n/a	LTP369	ltpFR2	3	n/a	n/a	n/a	6	19	4	9	6
1041.6005859375	n/a	PROB	2133198	n/a	LTP369	ltpFR2	3	n/a	n/a	n/a	6	16	5	8	3
1042.96630859375	n/a	PROB	2135995	n/a	LTP369	ltpFR2	3	n/a	n/a	n/a	6	19	3	8	8
1044.94921875	n/a	PROB	2140056	n/a	LTP369	ltpFR2	3	n/a	n/a	n/a	6	15	3	3	9
1046.3154296875	n/a	PROB	2142854	n/a	LTP369	ltpFR2	3	n/a	n/a	n/a	6	14	1	5	8
1047.71435546875	n/a	PROB	2145719	n/a	LTP369	ltpFR2	3	n/a	n/a	n/a	6	15	2	6	7
1049.330078125	n/a	PROB	2149028	n/a	LTP369	ltpFR2	3	n/a	n/a	n/a	6	10	1	4	5
1050.52685546875	n/a	STOP	2151479	n/a	LTP369	ltpFR2	3	n/a	n/a	n/a	6	n/a	n/a	n/a	n/a
1052.9951171875	n/a	WORD	2156534	wordpools/wasnorm_wordpool_576.txt	LTP369	ltpFR2	3	5	OUTDOORS	987	n/a	n/a	0	0	0
1055.7939453125	n/a	WORD	2162266	wordpools/wasnorm_wordpool_576.txt	LTP369	ltpFR2	3	5	MAMMAL	861	n/a	n/a	0	0	0
1058.57568359375	n/a	WORD	2167963	wordpools/wasnorm_wordpool_576.txt	LTP369	ltpFR2	3	5	IGLOO	734	n/a	n/a	0	0	0
1061.40771484375	n/a	WORD	2173763	wordpools/wasnorm_wordpool_576.txt	LTP369	ltpFR2	3	5	SPHINX	1349	n/a	n/a	0	0	0
1064.1728515625	n/a	WORD	2179426	wordpools/wasnorm_wordpool_576.txt	LTP369	ltpFR2	3	5	BALLOON	75	n/a	n/a	0	0	0
1066.73876953125	n/a	WORD	2184681	wordpools/wasnorm_wordpool_576.txt	LTP369	ltpFR2	3	5	ELBOW	520	n/a	n/a	0	0	0
1069.4873046875	n/a	WORD	2190310	wordpools/wasnorm_wordpool_576.txt	LTP369	ltpFR2	3	5	BRACES	164	n/a	n/a	0	0	0
1071.96923828125	n/a	WORD	2195393	wordpools/wasnorm_wordpool_576.txt	LTP369	ltpFR2	3	5	DENTIST	447	n/a	n/a	0	0	0
1074.451171875	n/a	WORD	2200476	wordpools/wasnorm_wordpool_576.txt	LTP369	ltpFR2	3	5	FINGER	567	n/a	n/a	0	0	0
1077.2001953125	n/a	WORD	2206106	wordpools/wasnorm_wordpool_576.txt	LTP369	ltpFR2	3	5	GANGSTER	620	n/a	n/a	0	0	0
1079.81396484375	n/a	WORD	2211459	wordpools/wasnorm_wordpool_576.txt	LTP369	ltpFR2	3	5	CHURCH	307	n/a	n/a	0	0	0
1082.546875	n/a	WORD	2217056	wordpools/wasnorm_wordpool_576.txt	LTP369	ltpFR2	3	5	TWEEZERS	1526	n/a	n/a	0	0	0
1085.1630859375	n/a	WORD	2222414	wordpools/wasnorm_wordpool_576.txt	LTP369	ltpFR2	3	5	HEADBAND	696	n/a	n/a	0	0	0
1087.77783203125	n/a	WORD	2227769	wordpools/wasnorm_wordpool_576.txt	LTP369	ltpFR2	3	5	GARBAGE	622	n/a	n/a	0	0	0
1090.40966796875	n/a	WORD	2233159	wordpools/wasnorm_wordpool_576.txt	LTP369	ltpFR2	3	5	TURKEY	1520	n/a	n/a	0	0	0
1093.142578125	n/a	WORD	2238756	wordpools/wasnorm_wordpool_576.txt	LTP369	ltpFR2	3	5	OZONE	996	n/a	n/a	0	0	0
1095.87451171875	n/a	WORD	2244351	wordpools/wasnorm_wordpool_576.txt	LTP369	ltpFR2	3	5	SUSPECT	1415	n/a	n/a	0	0	0
1098.3896484375	n/a	WORD	2249502	wordpools/wasnorm_wordpool_576.txt	LTP369	ltpFR2	3	5	MOP	916	n/a	n/a	0	0	0
1101.1884765625	n/a	WORD	2255234	wordpools/wasnorm_wordpool_576.txt	LTP369	ltpFR2	3	5	COIN	343	n/a	n/a	0	0	0
1104.00341796875	n/a	WORD	2260999	wordpools/wasnorm_wordpool_576.txt	LTP369	ltpFR2	3	5	EAGLE	512	n/a	n/a	0	0	0
1106.53515625	n/a	WORD	2266184	wordpools/wasnorm_wordpool_576.txt	LTP369	ltpFR2	3	5	ROOSTER	1209	n/a	n/a	0	0	0
1109.0185546875	n/a	WORD	2271270	wordpools/wasnorm_wordpool_576.txt	LTP369	ltpFR2	3	5	BODY	145	n/a	n/a	0	0	0
1111.7333984375	n/a	WORD	2276830	wordpools/wasnorm_wordpool_576.txt	LTP369	ltpFR2	3	5	HAND	683	n/a	n/a	0	0	0
1114.2490234375	n/a	WORD	2281982	wordpools/wasnorm_wordpool_576.txt	LTP369	ltpFR2	3	5	AIRPLANE	12	n/a	n/a	0	0	0
1115.865234375	n/a	START	2285292	n/a	LTP369	ltpFR2	3	n/a	n/a	n/a	7	n/a	n/a	n/a	n/a
1116.89306640625	n/a	DISTRACTOR	2287397	n/a	LTP369	ltpFR2	3	5	n/a	n/a	n/a	n/a	0	0	0
1116.89697265625	n/a	PROB	2287405	n/a	LTP369	ltpFR2	3	n/a	n/a	n/a	7	12	9	1	1
1118.47998046875	n/a	PROB	2290647	n/a	LTP369	ltpFR2	3	n/a	n/a	n/a	7	18	9	2	7
1120.4130859375	n/a	PROB	2294606	n/a	LTP369	ltpFR2	3	n/a	n/a	n/a	7	12	1	8	3
1121.64501953125	n/a	PROB	2297129	n/a	LTP369	ltpFR2	3	n/a	n/a	n/a	7	16	4	6	6
1122.927734375	n/a	PROB	2299756	n/a	LTP369	ltpFR2	3	n/a	n/a	n/a	7	14	1	5	8
1124.4267578125	n/a	PROB	2302826	n/a	LTP369	ltpFR2	3	n/a	n/a	n/a	7	3	1	1	1
1125.49267578125	n/a	PROB	2305009	n/a	LTP369	ltpFR2	3	n/a	n/a	n/a	7	14	3	3	8
1126.80859375	n/a	PROB	2307704	n/a	LTP369	ltpFR2	3	n/a	n/a	n/a	7	10	1	2	7
1128.07568359375	n/a	PROB	2310299	n/a	LTP369	ltpFR2	3	n/a	n/a	n/a	7	11	5	5	1
1129.1748046875	n/a	PROB	2312550	n/a	LTP369	ltpFR2	3	n/a	n/a	n/a	7	12	7	2	3
1130.40771484375	n/a	PROB	2315075	n/a	LTP369	ltpFR2	3	n/a	n/a	n/a	7	15	5	3	7
1131.7734375	n/a	PROB	2317872	n/a	LTP369	ltpFR2	3	n/a	n/a	n/a	7	22	4	9	9
1133.306640625	n/a	PROB	2321012	n/a	LTP369	ltpFR2	3	n/a	n/a	n/a	7	22	8	6	8
1135.521484375	n/a	PROB	2325548	n/a	LTP369	ltpFR2	3	n/a	n/a	n/a	7	19	7	4	8
1137.0712890625	n/a	PROB	2328722	n/a	LTP369	ltpFR2	3	n/a	n/a	n/a	7	12	1	2	9
1139.8642578125	n/a	STOP	2334442	n/a	LTP369	ltpFR2	3	n/a	n/a	n/a	7	n/a	n/a	n/a	n/a
1141.65234375	n/a	REC_START	2338104	n/a	LTP369	ltpFR2	3	5	n/a	n/a	n/a	n/a	0	0	0
1144.04443359375	n/a	REC_WORD	2343003	wordpools/wasnorm_wordpool_576.txt	LTP369	ltpFR2	3	5	IGLOO	734	n/a	n/a	0	0	0
1144.6162109375	n/a	REC_WORD	2344174	wordpools/wasnorm_wordpool_576.txt	LTP369	ltpFR2	3	5	BALLOON	75	n/a	n/a	0	0	0
1145.21533203125	n/a	REC_WORD	2345401	wordpools/wasnorm_wordpool_576.txt	LTP369	ltpFR2	3	5	SPHINX	1349	n/a	n/a	0	0	0
1146.201171875	n/a	REC_WORD	2347420	wordpools/wasnorm_wordpool_576.txt	LTP369	ltpFR2	3	5	ELBOW	520	n/a	n/a	0	0	0
1147.94921875	n/a	REC_WORD	2351000	wordpools/wasnorm_wordpool_576.txt	LTP369	ltpFR2	3	5	OZONE	996	n/a	n/a	0	0	0
1154.7177734375	n/a	REC_WORD	2364862	wordpools/wasnorm_wordpool_576.txt	LTP369	ltpFR2	3	5	GARBAGE	622	n/a	n/a	0	0	0
1155.5517578125	n/a	REC_WORD	2366570	wordpools/wasnorm_wordpool_576.txt	LTP369	ltpFR2	3	5	TURKEY	1520	n/a	n/a	0	0	0
1156.27587890625	n/a	REC_WORD	2368053	wordpools/wasnorm_wordpool_576.txt	LTP369	ltpFR2	3	5	CHURCH	307	n/a	n/a	0	0	0
1157.18994140625	n/a	REC_WORD	2369925	wordpools/wasnorm_wordpool_576.txt	LTP369	ltpFR2	3	5	TWEEZERS	1526	n/a	n/a	0	0	0
1158.02587890625	n/a	REC_WORD	2371637	wordpools/wasnorm_wordpool_576.txt	LTP369	ltpFR2	3	5	BRACES	164	n/a	n/a	0	0	0
1158.82666015625	n/a	REC_WORD	2373277	wordpools/wasnorm_wordpool_576.txt	LTP369	ltpFR2	3	5	DENTIST	447	n/a	n/a	0	0	0
1165.49169921875	n/a	REC_WORD	2386927	wordpools/wasnorm_wordpool_576.txt	LTP369	ltpFR2	3	5	GANGSTER	620	n/a	n/a	0	0	0
1166.61181640625	n/a	REC_WORD	2389221	wordpools/wasnorm_wordpool_576.txt	LTP369	ltpFR2	3	5	HEN	703	n/a	n/a	0	0	0
1167.2197265625	n/a	REC_WORD	2390466	wordpools/wasnorm_wordpool_576.txt	LTP369	ltpFR2	3	5	FINGER	567	n/a	n/a	0	0	0
1170.96435546875	n/a	REC_WORD	2398135	wordpools/wasnorm_wordpool_576.txt	LTP369	ltpFR2	3	5	ROOSTER	1209	n/a	n/a	0	0	0
1172.38525390625	n/a	REC_WORD	2401045	wordpools/wasnorm_wordpool_576.txt	LTP369	ltpFR2	3	5	EAGLE	512	n/a	n/a	0	0	0
1176.154296875	n/a	REC_WORD	2408764	wordpools/wasnorm_wordpool_576.txt	LTP369	ltpFR2	3	5	BODY	145	n/a	n/a	0	0	0
1181.04833984375	n/a	REC_WORD	2418787	wordpools/wasnorm_wordpool_576.txt	LTP369	ltpFR2	3	5	SUSPECT	1415	n/a	n/a	0	0	0
1182.04833984375	n/a	REC_WORD_VV	2420835	wordpools/wasnorm_wordpool_576.txt	LTP369	ltpFR2	3	5	<>	-1	n/a	n/a	0	0	0
1232.091796875	n/a	DISTRACTOR	2523324	n/a	LTP369	ltpFR2	3	6	n/a	n/a	n/a	n/a	0	0	0
1232.091796875	n/a	START	2523324	n/a	LTP369	ltpFR2	3	n/a	n/a	n/a	8	n/a	n/a	n/a	n/a
1232.1083984375	n/a	PROB	2523358	n/a	LTP369	ltpFR2	3	n/a	n/a	n/a	8	9	4	4	1
1233.5576171875	n/a	PROB	2526326	n/a	LTP369	ltpFR2	3	n/a	n/a	n/a	8	25	9	8	8
1235.50634765625	n/a	PROB	2530317	n/a	LTP369	ltpFR2	3	n/a	n/a	n/a	8	9	1	7	1
1237.08935546875	n/a	PROB	2533559	n/a	LTP369	ltpFR2	3	n/a	n/a	n/a	8	21	3	9	9
1238.771484375	n/a	PROB	2537004	n/a	LTP369	ltpFR2	3	n/a	n/a	n/a	8	16	5	2	9
1239.9873046875	n/a	PROB	2539494	n/a	LTP369	ltpFR2	3	n/a	n/a	n/a	8	15	3	9	3
1241.2041015625	n/a	PROB	2541986	n/a	LTP369	ltpFR2	3	n/a	n/a	n/a	8	6	3	1	2
1243.1533203125	n/a	PROB	2545978	n/a	LTP369	ltpFR2	3	n/a	n/a	n/a	8	17	8	7	2
1244.7353515625	n/a	PROB	2549218	n/a	LTP369	ltpFR2	3	n/a	n/a	n/a	8	15	5	5	5
1245.90234375	n/a	PROB	2551608	n/a	LTP369	ltpFR2	3	n/a	n/a	n/a	8	16	4	5	7
1247.43408203125	n/a	PROB	2554745	n/a	LTP369	ltpFR2	3	n/a	n/a	n/a	8	14	6	1	6
1249.1669921875	n/a	PROB	2558294	n/a	LTP369	ltpFR2	3	n/a	n/a	n/a	8	10	8	1	1
1250.43310546875	n/a	PROB	2560887	n/a	LTP369	ltpFR2	3	n/a	n/a	n/a	8	11	1	5	5
1251.73193359375	n/a	PROB	2563547	n/a	LTP369	ltpFR2	3	n/a	n/a	n/a	8	22	6	9	7
1253.3310546875	n/a	PROB	2566822	n/a	LTP369	ltpFR2	3	n/a	n/a	n/a	8	14	5	3	6
1254.75	n/a	STOP	2569728	n/a	LTP369	ltpFR2	3	n/a	n/a	n/a	8	n/a	n/a	n/a	n/a
1257.2626953125	n/a	WORD	2574874	wordpools/wasnorm_wordpool_576.txt	LTP369	ltpFR2	3	6	PRIMATE	1123	n/a	n/a	0	0	0
1259.69482421875	n/a	WORD	2579855	wordpools/wasnorm_wordpool_576.txt	LTP369	ltpFR2	3	6	HELMET	702	n/a	n/a	0	0	0
1262.310546875	n/a	WORD	2585212	wordpools/wasnorm_wordpool_576.txt	LTP369	ltpFR2	3	6	STONE	1385	n/a	n/a	0	0	0
1264.859375	n/a	WORD	2590432	wordpools/wasnorm_wordpool_576.txt	LTP369	ltpFR2	3	6	VICTIM	1562	n/a	n/a	0	0	0
1267.45751953125	n/a	WORD	2595753	wordpools/wasnorm_wordpool_576.txt	LTP369	ltpFR2	3	6	GAVEL	627	n/a	n/a	0	0	0
1270.1396484375	n/a	WORD	2601246	wordpools/wasnorm_wordpool_576.txt	LTP369	ltpFR2	3	6	BRIEFCASE	175	n/a	n/a	0	0	0
1272.67236328125	n/a	WORD	2606433	wordpools/wasnorm_wordpool_576.txt	LTP369	ltpFR2	3	6	BULLET	194	n/a	n/a	0	0	0
1275.2041015625	n/a	WORD	2611618	wordpools/wasnorm_wordpool_576.txt	LTP369	ltpFR2	3	6	TUNNEL	1519	n/a	n/a	0	0	0
1277.986328125	n/a	WORD	2617316	wordpools/wasnorm_wordpool_576.txt	LTP369	ltpFR2	3	6	TERMITE	1451	n/a	n/a	0	0	0
1280.7353515625	n/a	WORD	2622946	wordpools/wasnorm_wordpool_576.txt	LTP369	ltpFR2	3	6	FUNGUS	614	n/a	n/a	0	0	0
1283.3671875	n/a	WORD	2628336	wordpools/wasnorm_wordpool_576.txt	LTP369	ltpFR2	3	6	PARSLEY	1016	n/a	n/a	0	0	0
1285.916015625	n/a	WORD	2633556	wordpools/wasnorm_wordpool_576.txt	LTP369	ltpFR2	3	6	SWAMP	1416	n/a	n/a	0	0	0
1288.498046875	n/a	WORD	2638844	wordpools/wasnorm_wordpool_576.txt	LTP369	ltpFR2	3	6	MATTRESS	879	n/a	n/a	0	0	0
1291.11279296875	n/a	WORD	2644199	wordpools/wasnorm_wordpool_576.txt	LTP369	ltpFR2	3	6	OFFICE	972	n/a	n/a	0	0	0
1293.61181640625	n/a	WORD	2649317	wordpools/wasnorm_wordpool_576.txt	LTP369	ltpFR2	3	6	CAMEL	223	n/a	n/a	0	0	0
1296.21044921875	n/a	WORD	2654639	wordpools/wasnorm_wordpool_576.txt	LTP369	ltpFR2	3	6	CIGAR	308	n/a	n/a	0	0	0
1298.74267578125	n/a	WORD	2659825	wordpools/wasnorm_wordpool_576.txt	LTP369	ltpFR2	3	6	SCARF	1246	n/a	n/a	0	0	0
1301.5244140625	n/a	WORD	2665522	wordpools/wasnorm_wordpool_576.txt	LTP369	ltpFR2	3	6	BUG	187	n/a	n/a	0	0	0
1304.12353515625	n/a	WORD	2670845	wordpools/wasnorm_wordpool_576.txt	LTP369	ltpFR2	3	6	LONDON	843	n/a	n/a	0	0	0
1306.60546875	n/a	WORD	2675928	wordpools/wasnorm_wordpool_576.txt	LTP369	ltpFR2	3	6	WORLD	1622	n/a	n/a	0	0	0
1309.12109375	n/a	WORD	2681080	wordpools/wasnorm_wordpool_576.txt	LTP369	ltpFR2	3	6	TRIBE	1505	n/a	n/a	0	0	0
1311.68603515625	n/a	WORD	2686333	wordpools/wasnorm_wordpool_576.txt	LTP369	ltpFR2	3	6	FRAGRANCE	599	n/a	n/a	0	0	0
1314.251953125	n/a	WORD	2691588	wordpools/wasnorm_wordpool_576.txt	LTP369	ltpFR2	3	6	SPONGE	1355	n/a	n/a	0	0	0
1317.0498046875	n/a	WORD	2697318	wordpools/wasnorm_wordpool_576.txt	LTP369	ltpFR2	3	6	KETCHUP	771	n/a	n/a	0	0	0
1318.6669921875	n/a	START	2700630	n/a	LTP369	ltpFR2	3	n/a	n/a	n/a	9	n/a	n/a	n/a	n/a
1319.78271484375	n/a	DISTRACTOR	2702915	n/a	LTP369	ltpFR2	3	6	n/a	n/a	n/a	n/a	0	0	0
1319.7978515625	n/a	PROB	2702946	n/a	LTP369	ltpFR2	3	n/a	n/a	n/a	9	17	9	1	7
1321.796875	n/a	PROB	2707040	n/a	LTP369	ltpFR2	3	n/a	n/a	n/a	9	14	8	5	1
1323.4140625	n/a	PROB	2710352	n/a	LTP369	ltpFR2	3	n/a	n/a	n/a	9	12	7	4	1
1324.56396484375	n/a	PROB	2712707	n/a	LTP369	ltpFR2	3	n/a	n/a	n/a	9	12	1	8	3
1325.77978515625	n/a	PROB	2715197	n/a	LTP369	ltpFR2	3	n/a	n/a	n/a	9	17	5	3	9
1327.2958984375	n/a	PROB	2718302	n/a	LTP369	ltpFR2	3	n/a	n/a	n/a	9	8	6	1	1
1329.61083984375	n/a	PROB	2723043	n/a	LTP369	ltpFR2	3	n/a	n/a	n/a	9	14	5	3	6
1331.060546875	n/a	PROB	2726012	n/a	LTP369	ltpFR2	3	n/a	n/a	n/a	9	16	8	1	7
1332.4267578125	n/a	PROB	2728810	n/a	LTP369	ltpFR2	3	n/a	n/a	n/a	9	8	5	2	1
1333.62548828125	n/a	PROB	2731265	n/a	LTP369	ltpFR2	3	n/a	n/a	n/a	9	13	2	4	7
1335.1416015625	n/a	PROB	2734370	n/a	LTP369	ltpFR2	3	n/a	n/a	n/a	9	8	1	4	3
1336.42431640625	n/a	PROB	2736997	n/a	LTP369	ltpFR2	3	n/a	n/a	n/a	9	13	2	5	6
1337.7734375	n/a	PROB	2739760	n/a	LTP369	ltpFR2	3	n/a	n/a	n/a	9	9	5	1	3
1339.5732421875	n/a	PROB	2743446	n/a	LTP369	ltpFR2	3	n/a	n/a	n/a	9	19	9	4	6
1341.158203125	n/a	STOP	2746692	n/a	LTP369	ltpFR2	3	n/a	n/a	n/a	9	n/a	n/a	n/a	n/a
1344.5712890625	n/a	REC_START	2753682	n/a	LTP369	ltpFR2	3	6	n/a	n/a	n/a	n/a	0	0	0
1348.2861328125	n/a	REC_WORD	2761290	wordpools/wasnorm_wordpool_576.txt	LTP369	ltpFR2	3	6	PRIMATE	1123	n/a	n/a	0	0	0
1349.35302734375	n/a	REC_WORD	2763475	wordpools/wasnorm_wordpool_576.txt	LTP369	ltpFR2	3	6	HELMET	702	n/a	n/a	0	0	0
1350.2939453125	n/a	REC_WORD	2765402	wordpools/wasnorm_wordpool_576.txt	LTP369	ltpFR2	3	6	STONE	1385	n/a	n/a	0	0	0
1351.908203125	n/a	REC_WORD	2768708	wordpools/wasnorm_wordpool_576.txt	LTP369	ltpFR2	3	6	GAVEL	627	n/a	n/a	0	0	0
1354.04296875	n/a	REC_WORD	2773080	wordpools/wasnorm_wordpool_576.txt	LTP369	ltpFR2	3	6	BRIEFCASE	175	n/a	n/a	0	0	0
1355.04296875	n/a	REC_WORD_VV	2775128	wordpools/wasnorm_wordpool_576.txt	LTP369	ltpFR2	3	6	<>	-1	n/a	n/a	0	0	0
1355.64599609375	n/a	REC_WORD	2776363	wordpools/wasnorm_wordpool_576.txt	LTP369	ltpFR2	3	6	TUNNEL	1519	n/a	n/a	0	0	0
1356.65185546875	n/a	REC_WORD	2778423	wordpools/wasnorm_wordpool_576.txt	LTP369	ltpFR2	3	6	TERMITE	1451	n/a	n/a	0	0	0
1359.294921875	n/a	REC_WORD	2783836	wordpools/wasnorm_wordpool_576.txt	LTP369	ltpFR2	3	6	SWAMP	1416	n/a	n/a	0	0	0
1362.37744140625	n/a	REC_WORD	2790149	wordpools/wasnorm_wordpool_576.txt	LTP369	ltpFR2	3	6	MATTRESS	879	n/a	n/a	0	0	0
1363.9658203125	n/a	REC_WORD	2793402	wordpools/wasnorm_wordpool_576.txt	LTP369	ltpFR2	3	6	BULLET	194	n/a	n/a	0	0	0
1367.32275390625	n/a	REC_WORD	2800277	wordpools/wasnorm_wordpool_576.txt	LTP369	ltpFR2	3	6	OFFICE	972	n/a	n/a	0	0	0
1370.93017578125	n/a	REC_WORD	2807665	wordpools/wasnorm_wordpool_576.txt	LTP369	ltpFR2	3	6	LONDON	843	n/a	n/a	0	0	0
1372.37255859375	n/a	REC_WORD	2810619	wordpools/wasnorm_wordpool_576.txt	LTP369	ltpFR2	3	6	LONDON	843	n/a	n/a	0	0	0
1376.3330078125	n/a	REC_WORD	2818730	wordpools/wasnorm_wordpool_576.txt	LTP369	ltpFR2	3	6	SPONGE	1355	n/a	n/a	0	0	0
1377.72119140625	n/a	REC_WORD	2821573	wordpools/wasnorm_wordpool_576.txt	LTP369	ltpFR2	3	6	KETCHUP	771	n/a	n/a	0	0	0
1379.447265625	n/a	REC_WORD	2825108	wordpools/wasnorm_wordpool_576.txt	LTP369	ltpFR2	3	6	FRAGRANCE	599	n/a	n/a	0	0	0
1380.6162109375	n/a	REC_WORD	2827502	wordpools/wasnorm_wordpool_576.txt	LTP369	ltpFR2	3	6	TRIBE	1505	n/a	n/a	0	0	0
1382.4130859375	n/a	REC_WORD	2831182	wordpools/wasnorm_wordpool_576.txt	LTP369	ltpFR2	3	6	CAMEL	223	n/a	n/a	0	0	0
1383.68212890625	n/a	REC_WORD	2833781	wordpools/wasnorm_wordpool_576.txt	LTP369	ltpFR2	3	6	CIGAR	308	n/a	n/a	0	0	0
1385.171875	n/a	REC_WORD	2836832	wordpools/wasnorm_wordpool_576.txt	LTP369	ltpFR2	3	6	SCARF	1246	n/a	n/a	0	0	0
1387.2998046875	n/a	REC_WORD	2841190	wordpools/wasnorm_wordpool_576.txt	LTP369	ltpFR2	3	6	BUG	187	n/a	n/a	0	0	0
1435.0263671875	n/a	WORD	2938934	wordpools/wasnorm_wordpool_576.txt	LTP369	ltpFR2	3	7	CATTLE	261	n/a	n/a	0	0	0
1437.62548828125	n/a	WORD	2944257	wordpools/wasnorm_wordpool_576.txt	LTP369	ltpFR2	3	7	VELVET	1555	n/a	n/a	0	0	0
1440.4404296875	n/a	WORD	2950022	wordpools/wasnorm_wordpool_576.txt	LTP369	ltpFR2	3	7	DANDRUFF	439	n/a	n/a	0	0	0
1442.939453125	n/a	WORD	2955140	wordpools/wasnorm_wordpool_576.txt	LTP369	ltpFR2	3	7	TYPIST	1532	n/a	n/a	0	0	0
1445.43798828125	n/a	WORD	2960257	wordpools/wasnorm_wordpool_576.txt	LTP369	ltpFR2	3	7	WORKER	1621	n/a	n/a	0	0	0
1448.0869140625	n/a	WORD	2965682	wordpools/wasnorm_wordpool_576.txt	LTP369	ltpFR2	3	7	TEACHER	1440	n/a	n/a	0	0	0
1450.7021484375	n/a	WORD	2971038	wordpools/wasnorm_wordpool_576.txt	LTP369	ltpFR2	3	7	TURNIP	1521	n/a	n/a	0	0	0
1453.48486328125	n/a	WORD	2976737	wordpools/wasnorm_wordpool_576.txt	LTP369	ltpFR2	3	7	BRAKE	166	n/a	n/a	0	0	0
1456.23291015625	n/a	WORD	2982365	wordpools/wasnorm_wordpool_576.txt	LTP369	ltpFR2	3	7	LIVER	833	n/a	n/a	0	0	0
1458.8486328125	n/a	WORD	2987722	wordpools/wasnorm_wordpool_576.txt	LTP369	ltpFR2	3	7	PICTURE	1061	n/a	n/a	0	0	0
1461.3134765625	n/a	WORD	2992770	wordpools/wasnorm_wordpool_576.txt	LTP369	ltpFR2	3	7	SPACE	1345	n/a	n/a	0	0	0
1463.7626953125	n/a	WORD	2997786	wordpools/wasnorm_wordpool_576.txt	LTP369	ltpFR2	3	7	MASK	876	n/a	n/a	0	0	0
1466.29443359375	n/a	WORD	3002971	wordpools/wasnorm_wordpool_576.txt	LTP369	ltpFR2	3	7	POWDER	1117	n/a	n/a	0	0	0
1468.84326171875	n/a	WORD	3008191	wordpools/wasnorm_wordpool_576.txt	LTP369	ltpFR2	3	7	FRUIT	610	n/a	n/a	0	0	0
1471.6591796875	n/a	WORD	3013958	wordpools/wasnorm_wordpool_576.txt	LTP369	ltpFR2	3	7	CHAUFFEUR	283	n/a	n/a	0	0	0
1474.30712890625	n/a	WORD	3019381	wordpools/wasnorm_wordpool_576.txt	LTP369	ltpFR2	3	7	SPARROW	1347	n/a	n/a	0	0	0
1476.7890625	n/a	WORD	3024464	wordpools/wasnorm_wordpool_576.txt	LTP369	ltpFR2	3	7	KITCHEN	778	n/a	n/a	0	0	0
1479.55517578125	n/a	WORD	3030129	wordpools/wasnorm_wordpool_576.txt	LTP369	ltpFR2	3	7	COSTUME	383	n/a	n/a	0	0	0
1482.30419921875	n/a	WORD	3035759	wordpools/wasnorm_wordpool_576.txt	LTP369	ltpFR2	3	7	ROCKET	1202	n/a	n/a	0	0	0
1485.0517578125	n/a	WORD	3041386	wordpools/wasnorm_wordpool_576.txt	LTP369	ltpFR2	3	7	CHIPMUNK	304	n/a	n/a	0	0	0
1487.65087890625	n/a	WORD	3046709	wordpools/wasnorm_wordpool_576.txt	LTP369	ltpFR2	3	7	POSSUM	1112	n/a	n/a	0	0	0
1490.19970703125	n/a	WORD	3051929	wordpools/wasnorm_wordpool_576.txt	LTP369	ltpFR2	3	7	LION	827	n/a	n/a	0	0	0
1492.98193359375	n/a	WORD	3057627	wordpools/wasnorm_wordpool_576.txt	LTP369	ltpFR2	3	7	KLEENEX	782	n/a	n/a	0	0	0
1495.513671875	n/a	WORD	3062812	wordpools/wasnorm_wordpool_576.txt	LTP369	ltpFR2	3	7	BACKBONE	66	n/a	n/a	0	0	0
1497.12939453125	n/a	START	3066121	n/a	LTP369	ltpFR2	3	n/a	n/a	n/a	10	n/a	n/a	n/a	n/a
1498.16552734375	n/a	DISTRACTOR	3068243	n/a	LTP369	ltpFR2	3	7	n/a	n/a	n/a	n/a	0	0	0
1498.1796875	n/a	PROB	3068272	n/a	LTP369	ltpFR2	3	n/a	n/a	n/a	10	18	9	4	5
1500.3955078125	n/a	PROB	3072810	n/a	LTP369	ltpFR2	3	n/a	n/a	n/a	10	166	9	5	2
1502.1943359375	n/a	PROB	3076494	n/a	LTP369	ltpFR2	3	n/a	n/a	n/a	10	14	5	8	1
1503.693359375	n/a	PROB	3079564	n/a	LTP369	ltpFR2	3	n/a	n/a	n/a	10	11	6	1	4
1504.9921875	n/a	PROB	3082224	n/a	LTP369	ltpFR2	3	n/a	n/a	n/a	10	17	8	6	3
1506.55810546875	n/a	PROB	3085431	n/a	LTP369	ltpFR2	3	n/a	n/a	n/a	10	9	1	3	5
1507.94140625	n/a	PROB	3088264	n/a	LTP369	ltpFR2	3	n/a	n/a	n/a	10	6	3	2	1
1509.30712890625	n/a	PROB	3091061	n/a	LTP369	ltpFR2	3	n/a	n/a	n/a	10	15	5	9	1
1510.607421875	n/a	PROB	3093724	n/a	LTP369	ltpFR2	3	n/a	n/a	n/a	10	12	1	2	9
1511.85595703125	n/a	PROB	3096281	n/a	LTP369	ltpFR2	3	n/a	n/a	n/a	10	7	3	3	1
1513.072265625	n/a	PROB	3098772	n/a	LTP369	ltpFR2	3	n/a	n/a	n/a	10	18	6	4	8
1514.27197265625	n/a	PROB	3101229	n/a	LTP369	ltpFR2	3	n/a	n/a	n/a	10	7	1	3	3
1515.68798828125	n/a	PROB	3104129	n/a	LTP369	ltpFR2	3	n/a	n/a	n/a	10	10	1	8	1
1517.35302734375	n/a	PROB	3107539	n/a	LTP369	ltpFR2	3	n/a	n/a	n/a	10	22	6	9	7
1518.98583984375	n/a	PROB	3110883	n/a	LTP369	ltpFR2	3	n/a	n/a	n/a	10	18	3	9	6
1520.4140625	n/a	STOP	3113808	n/a	LTP369	ltpFR2	3	n/a	n/a	n/a	10	n/a	n/a	n/a	n/a
1522.95068359375	n/a	REC_START	3119003	n/a	LTP369	ltpFR2	3	7	n/a	n/a	n/a	n/a	0	0	0
1528.03271484375	n/a	REC_WORD	3129411	wordpools/wasnorm_wordpool_576.txt	LTP369	ltpFR2	3	7	CATTLE	261	n/a	n/a	0	0	0
1529.41552734375	n/a	REC_WORD	3132243	wordpools/wasnorm_wordpool_576.txt	LTP369	ltpFR2	3	7	VELVET	1555	n/a	n/a	0	0	0
1530.90869140625	n/a	REC_WORD	3135301	wordpools/wasnorm_wordpool_576.txt	LTP369	ltpFR2	3	7	DANDRUFF	439	n/a	n/a	0	0	0
1532.1943359375	n/a	REC_WORD	3137934	wordpools/wasnorm_wordpool_576.txt	LTP369	ltpFR2	3	7	TEACHER	1440	n/a	n/a	0	0	0
1533.095703125	n/a	REC_WORD	3139780	wordpools/wasnorm_wordpool_576.txt	LTP369	ltpFR2	3	7	TYPIST	1532	n/a	n/a	0	0	0
1534.349609375	n/a	REC_WORD	3142348	wordpools/wasnorm_wordpool_576.txt	LTP369	ltpFR2	3	7	WORKER	1621	n/a	n/a	0	0	0
1536.12451171875	n/a	REC_WORD	3145983	wordpools/wasnorm_wordpool_576.txt	LTP369	ltpFR2	3	7	TURNIP	1521	n/a	n/a	0	0	0
1540.66748046875	n/a	REC_WORD	3155287	wordpools/wasnorm_wordpool_576.txt	LTP369	ltpFR2	3	7	CHAUFFEUR	283	n/a	n/a	0	0	0
1542.37646484375	n/a	REC_WORD	3158787	wordpools/wasnorm_wordpool_576.txt	LTP369	ltpFR2	3	7	SPARROW	1347	n/a	n/a	0	0	0
1543.72021484375	n/a	REC_WORD	3161539	wordpools/wasnorm_wordpool_576.txt	LTP369	ltpFR2	3	7	COSTUME	383	n/a	n/a	0	0	0
1546.52001953125	n/a	REC_WORD	3167273	wordpools/wasnorm_wordpool_576.txt	LTP369	ltpFR2	3	7	BACKBONE	66	n/a	n/a	0	0	0
1547.43115234375	n/a	REC_WORD	3169139	wordpools/wasnorm_wordpool_576.txt	LTP369	ltpFR2	3	7	KLEENEX	782	n/a	n/a	0	0	0
1548.30322265625	n/a	REC_WORD	3170925	wordpools/wasnorm_wordpool_576.txt	LTP369	ltpFR2	3	7	ROCKET	1202	n/a	n/a	0	0	0
1549.13818359375	n/a	REC_WORD	3172635	wordpools/wasnorm_wordpool_576.txt	LTP369	ltpFR2	3	7	CHIPMUNK	304	n/a	n/a	0	0	0
1553.1796875	n/a	REC_WORD	3180912	wordpools/wasnorm_wordpool_576.txt	LTP369	ltpFR2	3	7	LION	827	n/a	n/a	0	0	0
1556.19775390625	n/a	REC_WORD	3187093	wordpools/wasnorm_wordpool_576.txt	LTP369	ltpFR2	3	7	POSSUM	1112	n/a	n/a	0	0	0
1577.44921875	n/a	REC_WORD	3230616	wordpools/wasnorm_wordpool_576.txt	LTP369	ltpFR2	3	7	SPACE	1345	n/a	n/a	0	0	0
1582.9169921875	n/a	REC_WORD	3241814	wordpools/wasnorm_wordpool_576.txt	LTP369	ltpFR2	3	7	LIVER	833	n/a	n/a	0	0	0
1584.5009765625	n/a	REC_WORD	3245058	wordpools/wasnorm_wordpool_576.txt	LTP369	ltpFR2	3	7	BRAKE	166	n/a	n/a	0	0	0
1613.39013671875	n/a	DISTRACTOR	3304223	n/a	LTP369	ltpFR2	3	8	n/a	n/a	n/a	n/a	0	0	0
1613.39013671875	n/a	START	3304223	n/a	LTP369	ltpFR2	3	n/a	n/a	n/a	11	n/a	n/a	n/a	n/a
1613.4072265625	n/a	PROB	3304258	n/a	LTP369	ltpFR2	3	n/a	n/a	n/a	11	12	2	3	7
1614.77294921875	n/a	PROB	3307055	n/a	LTP369	ltpFR2	3	n/a	n/a	n/a	11	12	1	2	9
1615.90625	n/a	PROB	3309376	n/a	LTP369	ltpFR2	3	n/a	n/a	n/a	11	22	9	8	5
1617.5380859375	n/a	PROB	3312718	n/a	LTP369	ltpFR2	3	n/a	n/a	n/a	11	13	6	5	2
1618.77099609375	n/a	PROB	3315243	n/a	LTP369	ltpFR2	3	n/a	n/a	n/a	11	8	5	1	2
1620.02001953125	n/a	PROB	3317801	n/a	LTP369	ltpFR2	3	n/a	n/a	n/a	11	24	9	8	7
1622.552734375	n/a	PROB	3322988	n/a	LTP369	ltpFR2	3	n/a	n/a	n/a	11	19	3	8	8
1623.95166015625	n/a	PROB	3325853	n/a	LTP369	ltpFR2	3	n/a	n/a	n/a	11	19	4	7	8
1625.45068359375	n/a	PROB	3328923	n/a	LTP369	ltpFR2	3	n/a	n/a	n/a	11	6	3	1	2
1626.78271484375	n/a	PROB	3331651	n/a	LTP369	ltpFR2	3	n/a	n/a	n/a	11	19	5	9	5
1628.716796875	n/a	PROB	3335612	n/a	LTP369	ltpFR2	3	n/a	n/a	n/a	11	9	2	1	6
1629.982421875	n/a	PROB	3338204	n/a	LTP369	ltpFR2	3	n/a	n/a	n/a	11	13	7	2	4
1631.5146484375	n/a	PROB	3341342	n/a	LTP369	ltpFR2	3	n/a	n/a	n/a	11	18	4	6	8
1632.8974609375	n/a	PROB	3344174	n/a	LTP369	ltpFR2	3	n/a	n/a	n/a	11	11	3	1	7
1634.11328125	n/a	PROB	3346664	n/a	LTP369	ltpFR2	3	n/a	n/a	n/a	11	19	8	4	7
1635.59619140625	n/a	PROB	3349701	n/a	LTP369	ltpFR2	3	n/a	n/a	n/a	11	18	9	8	1
1636.92626953125	n/a	STOP	3352425	n/a	LTP369	ltpFR2	3	n/a	n/a	n/a	11	n/a	n/a	n/a	n/a
1638.54443359375	n/a	WORD	3355739	wordpools/wasnorm_wordpool_576.txt	LTP369	ltpFR2	3	8	SALAD	1224	n/a	n/a	0	0	0
1641.27734375	n/a	WORD	3361336	wordpools/wasnorm_wordpool_576.txt	LTP369	ltpFR2	3	8	MARS	873	n/a	n/a	0	0	0
1643.9423828125	n/a	WORD	3366794	wordpools/wasnorm_wordpool_576.txt	LTP369	ltpFR2	3	8	GLOBE	641	n/a	n/a	0	0	0
1646.69091796875	n/a	WORD	3372423	wordpools/wasnorm_wordpool_576.txt	LTP369	ltpFR2	3	8	OMELET	976	n/a	n/a	0	0	0
1649.1728515625	n/a	WORD	3377506	wordpools/wasnorm_wordpool_576.txt	LTP369	ltpFR2	3	8	BACON	67	n/a	n/a	0	0	0
1651.93798828125	n/a	WORD	3383169	wordpools/wasnorm_wordpool_576.txt	LTP369	ltpFR2	3	8	SUITCASE	1403	n/a	n/a	0	0	0
1654.5537109375	n/a	WORD	3388526	wordpools/wasnorm_wordpool_576.txt	LTP369	ltpFR2	3	8	SHORTCAKE	1292	n/a	n/a	0	0	0
1657.23583984375	n/a	WORD	3394019	wordpools/wasnorm_wordpool_576.txt	LTP369	ltpFR2	3	8	WARDROBE	1587	n/a	n/a	0	0	0
1659.73486328125	n/a	WORD	3399137	wordpools/wasnorm_wordpool_576.txt	LTP369	ltpFR2	3	8	TOMBSTONE	1478	n/a	n/a	0	0	0
1662.2998046875	n/a	WORD	3404390	wordpools/wasnorm_wordpool_576.txt	LTP369	ltpFR2	3	8	GRIZZLY	662	n/a	n/a	0	0	0
1665.08154296875	n/a	WORD	3410087	wordpools/wasnorm_wordpool_576.txt	LTP369	ltpFR2	3	8	PLASTER	1085	n/a	n/a	0	0	0
1667.5146484375	n/a	WORD	3415070	wordpools/wasnorm_wordpool_576.txt	LTP369	ltpFR2	3	8	THREAD	1460	n/a	n/a	0	0	0
1670.279296875	n/a	WORD	3420732	wordpools/wasnorm_wordpool_576.txt	LTP369	ltpFR2	3	8	PARTNER	1017	n/a	n/a	0	0	0
1672.828125	n/a	WORD	3425952	wordpools/wasnorm_wordpool_576.txt	LTP369	ltpFR2	3	8	SHELF	1280	n/a	n/a	0	0	0
1675.64306640625	n/a	WORD	3431717	wordpools/wasnorm_wordpool_576.txt	LTP369	ltpFR2	3	8	BRICK	172	n/a	n/a	0	0	0
1678.44189453125	n/a	WORD	3437449	wordpools/wasnorm_wordpool_576.txt	LTP369	ltpFR2	3	8	DONOR	485	n/a	n/a	0	0	0
1681.0908203125	n/a	WORD	3442874	wordpools/wasnorm_wordpool_576.txt	LTP369	ltpFR2	3	8	FLESH	579	n/a	n/a	0	0	0
1683.77294921875	n/a	WORD	3448367	wordpools/wasnorm_wordpool_576.txt	LTP369	ltpFR2	3	8	FRIEND	606	n/a	n/a	0	0	0
1686.32177734375	n/a	WORD	3453587	wordpools/wasnorm_wordpool_576.txt	LTP369	ltpFR2	3	8	JAPAN	749	n/a	n/a	0	0	0
1689.12060546875	n/a	WORD	3459319	wordpools/wasnorm_wordpool_576.txt	LTP369	ltpFR2	3	8	WOMAN	1620	n/a	n/a	0	0	0
1691.9189453125	n/a	WORD	3465050	wordpools/wasnorm_wordpool_576.txt	LTP369	ltpFR2	3	8	MARKER	870	n/a	n/a	0	0	0
1694.70068359375	n/a	WORD	3470747	wordpools/wasnorm_wordpool_576.txt	LTP369	ltpFR2	3	8	TUTU	1524	n/a	n/a	0	0	0
1697.21630859375	n/a	WORD	3475899	wordpools/wasnorm_wordpool_576.txt	LTP369	ltpFR2	3	8	COCOON	339	n/a	n/a	0	0	0
1699.74853515625	n/a	WORD	3481085	wordpools/wasnorm_wordpool_576.txt	LTP369	ltpFR2	3	8	JELLY	755	n/a	n/a	0	0	0
1701.3642578125	n/a	START	3484394	n/a	LTP369	ltpFR2	3	n/a	n/a	n/a	12	n/a	n/a	n/a	n/a
1702.25341796875	n/a	DISTRACTOR	3486215	n/a	LTP369	ltpFR2	3	8	n/a	n/a	n/a	n/a	0	0	0
1702.26318359375	n/a	PROB	3486235	n/a	LTP369	ltpFR2	3	n/a	n/a	n/a	12	12	1	7	4
1704.04638671875	n/a	PROB	3489887	n/a	LTP369	ltpFR2	3	n/a	n/a	n/a	12	18	2	9	7
1705.4794921875	n/a	PROB	3492822	n/a	LTP369	ltpFR2	3	n/a	n/a	n/a	12	19	4	6	9
1706.76220703125	n/a	PROB	3495449	n/a	LTP369	ltpFR2	3	n/a	n/a	n/a	12	18	7	5	6
1708.22802734375	n/a	PROB	3498451	n/a	LTP369	ltpFR2	3	n/a	n/a	n/a	12	9	5	2	2
1709.943359375	n/a	PROB	3501964	n/a	LTP369	ltpFR2	3	n/a	n/a	n/a	12	12	5	3	4
1711.2431640625	n/a	PROB	3504626	n/a	LTP369	ltpFR2	3	n/a	n/a	n/a	12	7	5	1	1
1713.0419921875	n/a	PROB	3508310	n/a	LTP369	ltpFR2	3	n/a	n/a	n/a	12	13	5	3	5
1714.7080078125	n/a	PROB	3511722	n/a	LTP369	ltpFR2	3	n/a	n/a	n/a	12	6	4	1	1
1716.72412109375	n/a	PROB	3515851	n/a	LTP369	ltpFR2	3	n/a	n/a	n/a	12	19	7	7	5
1718.2060546875	n/a	PROB	3518886	n/a	LTP369	ltpFR2	3	n/a	n/a	n/a	12	22	8	6	8
1719.755859375	n/a	PROB	3522060	n/a	LTP369	ltpFR2	3	n/a	n/a	n/a	12	18	8	9	1
1721.20458984375	n/a	PROB	3525027	n/a	LTP369	ltpFR2	3	n/a	n/a	n/a	12	15	2	9	4
1722.60400390625	n/a	PROB	3527893	n/a	LTP369	ltpFR2	3	n/a	n/a	n/a	12	14	5	2	7
1724.31787109375	n/a	STOP	3531403	n/a	LTP369	ltpFR2	3	n/a	n/a	n/a	12	n/a	n/a	n/a	n/a
1727.23583984375	n/a	REC_START	3537379	n/a	LTP369	ltpFR2	3	8	n/a	n/a	n/a	n/a	0	0	0
1729.7216796875	n/a	REC_WORD	3542470	wordpools/wasnorm_wordpool_576.txt	LTP369	ltpFR2	3	8	JELLY	755	n/a	n/a	0	0	0
1730.8134765625	n/a	REC_WORD	3544706	wordpools/wasnorm_wordpool_576.txt	LTP369	ltpFR2	3	8	JAPAN	749	n/a	n/a	0	0	0
1731.88671875	n/a	REC_WORD	3546904	wordpools/wasnorm_wordpool_576.txt	LTP369	ltpFR2	3	8	TUTU	1524	n/a	n/a	0	0	0
1732.70263671875	n/a	REC_WORD	3548575	wordpools/wasnorm_wordpool_576.txt	LTP369	ltpFR2	3	8	MARKER	870	n/a	n/a	0	0	0
1736.17724609375	n/a	REC_WORD	3555691	wordpools/wasnorm_wordpool_576.txt	LTP369	ltpFR2	3	8	GLOBE	641	n/a	n/a	0	0	0
1738.1923828125	n/a	REC_WORD	3559818	wordpools/wasnorm_wordpool_576.txt	LTP369	ltpFR2	3	8	MARS	873	n/a	n/a	0	0	0
1739.01806640625	n/a	REC_WORD	3561509	wordpools/wasnorm_wordpool_576.txt	LTP369	ltpFR2	3	8	SALAD	1224	n/a	n/a	0	0	0
1739.990234375	n/a	REC_WORD	3563500	wordpools/wasnorm_wordpool_576.txt	LTP369	ltpFR2	3	8	OMELET	976	n/a	n/a	0	0	0
1740.666015625	n/a	REC_WORD	3564884	wordpools/wasnorm_wordpool_576.txt	LTP369	ltpFR2	3	8	PLASTER	1085	n/a	n/a	0	0	0
1741.76904296875	n/a	REC_WORD	3567143	wordpools/wasnorm_wordpool_576.txt	LTP369	ltpFR2	3	8	THREAD	1460	n/a	n/a	0	0	0
1742.9892578125	n/a	REC_WORD	3569642	wordpools/wasnorm_wordpool_576.txt	LTP369	ltpFR2	3	8	BACON	67	n/a	n/a	0	0	0
1743.88427734375	n/a	REC_WORD	3571475	wordpools/wasnorm_wordpool_576.txt	LTP369	ltpFR2	3	8	GRIZZLY	662	n/a	n/a	0	0	0
1744.79296875	n/a	REC_WORD	3573336	wordpools/wasnorm_wordpool_576.txt	LTP369	ltpFR2	3	8	WARDROBE	1587	n/a	n/a	0	0	0
1746.01708984375	n/a	REC_WORD	3575843	wordpools/wasnorm_wordpool_576.txt	LTP369	ltpFR2	3	8	TOMBSTONE	1478	n/a	n/a	0	0	0
1748.1240234375	n/a	REC_WORD	3580158	wordpools/wasnorm_wordpool_576.txt	LTP369	ltpFR2	3	8	DONOR	485	n/a	n/a	0	0	0
1749.1201171875	n/a	REC_WORD	3582198	wordpools/wasnorm_wordpool_576.txt	LTP369	ltpFR2	3	8	BRICK	172	n/a	n/a	0	0	0
1757.3896484375	n/a	REC_WORD	3599134	wordpools/wasnorm_wordpool_576.txt	LTP369	ltpFR2	3	8	WOMAN	1620	n/a	n/a	0	0	0
1762.056640625	n/a	REC_WORD	3608692	wordpools/wasnorm_wordpool_576.txt	LTP369	ltpFR2	3	8	SHELF	1280	n/a	n/a	0	0	0
1762.9287109375	n/a	REC_WORD	3610478	wordpools/wasnorm_wordpool_576.txt	LTP369	ltpFR2	3	8	FRIEND	606	n/a	n/a	0	0	0
1763.57373046875	n/a	REC_WORD	3611799	wordpools/wasnorm_wordpool_576.txt	LTP369	ltpFR2	3	8	FLESH	579	n/a	n/a	0	0	0
1775.5244140625	n/a	REC_WORD	3636274	wordpools/wasnorm_wordpool_576.txt	LTP369	ltpFR2	3	8	BRIEFCASE	175	n/a	n/a	0	0	0
1776.52392578125	n/a	REC_WORD_VV	3638321	wordpools/wasnorm_wordpool_576.txt	LTP369	ltpFR2	3	8	<>	-1	n/a	n/a	0	0	0
1781.98095703125	n/a	REC_WORD	3649497	wordpools/wasnorm_wordpool_576.txt	LTP369	ltpFR2	3	8	SHORTCAKE	1292	n/a	n/a	0	0	0
1803.76416015625	n/a	REST_REWET	3694109	n/a	LTP369	ltpFR2	3	8	n/a	n/a	n/a	n/a	0	0	0
1895.1376953125	n/a	DISTRACTOR	3881242	n/a	LTP369	ltpFR2	3	9	n/a	n/a	n/a	n/a	0	0	0
1895.1376953125	n/a	START	3881242	n/a	LTP369	ltpFR2	3	n/a	n/a	n/a	13	n/a	n/a	n/a	n/a
1895.15380859375	n/a	PROB	3881275	n/a	LTP369	ltpFR2	3	n/a	n/a	n/a	13	11	4	2	5
1897.03662109375	n/a	PROB	3885131	n/a	LTP369	ltpFR2	3	n/a	n/a	n/a	13	12	2	8	2
1898.2353515625	n/a	PROB	3887586	n/a	LTP369	ltpFR2	3	n/a	n/a	n/a	13	8	1	2	5
1899.734375	n/a	PROB	3890656	n/a	LTP369	ltpFR2	3	n/a	n/a	n/a	13	11	3	3	5
1900.8671875	n/a	PROB	3892976	n/a	LTP369	ltpFR2	3	n/a	n/a	n/a	13	22	9	7	6
1902.3671875	n/a	PROB	3896048	n/a	LTP369	ltpFR2	3	n/a	n/a	n/a	13	18	1	9	8
1903.74951171875	n/a	PROB	3898879	n/a	LTP369	ltpFR2	3	n/a	n/a	n/a	13	20	7	7	6
1905.08203125	n/a	PROB	3901608	n/a	LTP369	ltpFR2	3	n/a	n/a	n/a	13	13	7	5	1
1906.59814453125	n/a	PROB	3904713	n/a	LTP369	ltpFR2	3	n/a	n/a	n/a	13	20	4	7	9
1908.5810546875	n/a	PROB	3908774	n/a	LTP369	ltpFR2	3	n/a	n/a	n/a	13	12	7	4	1
1909.712890625	n/a	PROB	3911092	n/a	LTP369	ltpFR2	3	n/a	n/a	n/a	13	7	2	1	4
1911.12890625	n/a	PROB	3913992	n/a	LTP369	ltpFR2	3	n/a	n/a	n/a	13	12	4	2	6
1912.42919921875	n/a	PROB	3916655	n/a	LTP369	ltpFR2	3	n/a	n/a	n/a	13	9	7	1	1
1913.6611328125	n/a	PROB	3919178	n/a	LTP369	ltpFR2	3	n/a	n/a	n/a	13	19	7	7	5
1915.31103515625	n/a	PROB	3922557	n/a	LTP369	ltpFR2	3	n/a	n/a	n/a	13	19	7	9	3
1916.77587890625	n/a	PROB	3925557	n/a	LTP369	ltpFR2	3	n/a	n/a	n/a	13	20	9	7	4
1918.3818359375	n/a	STOP	3928846	n/a	LTP369	ltpFR2	3	n/a	n/a	n/a	13	n/a	n/a	n/a	n/a
1920.3076171875	n/a	WORD	3932790	wordpools/wasnorm_wordpool_576.txt	LTP369	ltpFR2	3	9	FILM	565	n/a	n/a	0	0	0
1922.806640625	n/a	WORD	3937908	wordpools/wasnorm_wordpool_576.txt	LTP369	ltpFR2	3	9	BANK	83	n/a	n/a	0	0	0
1925.3896484375	n/a	WORD	3943198	wordpools/wasnorm_wordpool_576.txt	LTP369	ltpFR2	3	9	JURY	766	n/a	n/a	0	0	0
1927.9716796875	n/a	WORD	3948486	wordpools/wasnorm_wordpool_576.txt	LTP369	ltpFR2	3	9	SNACK	1331	n/a	n/a	0	0	0
1930.63671875	n/a	WORD	3953944	wordpools/wasnorm_wordpool_576.txt	LTP369	ltpFR2	3	9	AIRPORT	13	n/a	n/a	0	0	0
1933.16845703125	n/a	WORD	3959129	wordpools/wasnorm_wordpool_576.txt	LTP369	ltpFR2	3	9	RACKET	1155	n/a	n/a	0	0	0
1935.6015625	n/a	WORD	3964112	wordpools/wasnorm_wordpool_576.txt	LTP369	ltpFR2	3	9	ARMY	39	n/a	n/a	0	0	0
1938.09912109375	n/a	WORD	3969227	wordpools/wasnorm_wordpool_576.txt	LTP369	ltpFR2	3	9	MUFFIN	929	n/a	n/a	0	0	0
1940.84814453125	n/a	WORD	3974857	wordpools/wasnorm_wordpool_576.txt	LTP369	ltpFR2	3	9	CYCLONE	431	n/a	n/a	0	0	0
1943.4140625	n/a	WORD	3980112	wordpools/wasnorm_wordpool_576.txt	LTP369	ltpFR2	3	9	GARLIC	624	n/a	n/a	0	0	0
1946.19580078125	n/a	WORD	3985809	wordpools/wasnorm_wordpool_576.txt	LTP369	ltpFR2	3	9	SALT	1229	n/a	n/a	0	0	0
1948.7607421875	n/a	WORD	3991062	wordpools/wasnorm_wordpool_576.txt	LTP369	ltpFR2	3	9	LUGGAGE	847	n/a	n/a	0	0	0
1951.376953125	n/a	WORD	3996420	wordpools/wasnorm_wordpool_576.txt	LTP369	ltpFR2	3	9	SNAIL	1332	n/a	n/a	0	0	0
1954.125	n/a	WORD	4002048	wordpools/wasnorm_wordpool_576.txt	LTP369	ltpFR2	3	9	OYSTER	995	n/a	n/a	0	0	0
1956.82373046875	n/a	WORD	4007575	wordpools/wasnorm_wordpool_576.txt	LTP369	ltpFR2	3	9	POCKET	1093	n/a	n/a	0	0	0
1959.53955078125	n/a	WORD	4013137	wordpools/wasnorm_wordpool_576.txt	LTP369	ltpFR2	3	9	MILK	895	n/a	n/a	0	0	0
1962.3544921875	n/a	WORD	4018902	wordpools/wasnorm_wordpool_576.txt	LTP369	ltpFR2	3	9	GALLON	618	n/a	n/a	0	0	0
1964.95361328125	n/a	WORD	4024225	wordpools/wasnorm_wordpool_576.txt	LTP369	ltpFR2	3	9	BUGGY	188	n/a	n/a	0	0	0
1967.6181640625	n/a	WORD	4029682	wordpools/wasnorm_wordpool_576.txt	LTP369	ltpFR2	3	9	BROTHER	179	n/a	n/a	0	0	0
1970.10107421875	n/a	WORD	4034767	wordpools/wasnorm_wordpool_576.txt	LTP369	ltpFR2	3	9	EYELASH	546	n/a	n/a	0	0	0
1972.56640625	n/a	WORD	4039816	wordpools/wasnorm_wordpool_576.txt	LTP369	ltpFR2	3	9	ATOM	55	n/a	n/a	0	0	0
1975.38134765625	n/a	WORD	4045581	wordpools/wasnorm_wordpool_576.txt	LTP369	ltpFR2	3	9	JUGGLER	763	n/a	n/a	0	0	0
1977.84716796875	n/a	WORD	4050631	wordpools/wasnorm_wordpool_576.txt	LTP369	ltpFR2	3	9	APRON	35	n/a	n/a	0	0	0
1980.42919921875	n/a	WORD	4055919	wordpools/wasnorm_wordpool_576.txt	LTP369	ltpFR2	3	9	POPCORN	1104	n/a	n/a	0	0	0
1982.044921875	n/a	START	4059228	n/a	LTP369	ltpFR2	3	n/a	n/a	n/a	14	n/a	n/a	n/a	n/a
1983.046875	n/a	DISTRACTOR	4061280	n/a	LTP369	ltpFR2	3	9	n/a	n/a	n/a	n/a	0	0	0
1983.06103515625	n/a	PROB	4061309	n/a	LTP369	ltpFR2	3	n/a	n/a	n/a	14	13	5	7	1
1984.66064453125	n/a	PROB	4064585	n/a	LTP369	ltpFR2	3	n/a	n/a	n/a	14	21	7	6	8
1986.19287109375	n/a	PROB	4067723	n/a	LTP369	ltpFR2	3	n/a	n/a	n/a	14	4	1	1	2
1987.392578125	n/a	PROB	4070180	n/a	LTP369	ltpFR2	3	n/a	n/a	n/a	14	22	7	9	6
1988.724609375	n/a	PROB	4072908	n/a	LTP369	ltpFR2	3	n/a	n/a	n/a	14	9	4	3	2
1989.94189453125	n/a	PROB	4075401	n/a	LTP369	ltpFR2	3	n/a	n/a	n/a	14	14	7	6	1
1991.32373046875	n/a	PROB	4078231	n/a	LTP369	ltpFR2	3	n/a	n/a	n/a	14	24	9	6	9
1993.33984375	n/a	PROB	4082360	n/a	LTP369	ltpFR2	3	n/a	n/a	n/a	14	18	6	8	4
1994.72265625	n/a	PROB	4085192	n/a	LTP369	ltpFR2	3	n/a	n/a	n/a	14	15	8	1	6
1995.87158203125	n/a	PROB	4087545	n/a	LTP369	ltpFR2	3	n/a	n/a	n/a	14	5	2	2	1
1997.3212890625	n/a	PROB	4090514	n/a	LTP369	ltpFR2	3	n/a	n/a	n/a	14	18	5	9	4
1998.58740234375	n/a	PROB	4093107	n/a	LTP369	ltpFR2	3	n/a	n/a	n/a	14	24	8	8	8
2001.63525390625	n/a	PROB	4099349	n/a	LTP369	ltpFR2	3	n/a	n/a	n/a	14	6	1	4	1
2003.08544921875	n/a	PROB	4102319	n/a	LTP369	ltpFR2	3	n/a	n/a	n/a	14	16	9	2	5
2005.01318359375	n/a	STOP	4106267	n/a	LTP369	ltpFR2	3	n/a	n/a	n/a	14	n/a	n/a	n/a	n/a
2007.96630859375	n/a	REC_START	4112315	n/a	LTP369	ltpFR2	3	9	n/a	n/a	n/a	n/a	0	0	0
2015.56591796875	n/a	REC_WORD	4127879	wordpools/wasnorm_wordpool_576.txt	LTP369	ltpFR2	3	9	FILM	565	n/a	n/a	0	0	0
2017.27294921875	n/a	REC_WORD	4131375	wordpools/wasnorm_wordpool_576.txt	LTP369	ltpFR2	3	9	BANK	83	n/a	n/a	0	0	0
2018.2626953125	n/a	REC_WORD	4133402	wordpools/wasnorm_wordpool_576.txt	LTP369	ltpFR2	3	9	JURY	766	n/a	n/a	0	0	0
2019.265625	n/a	REC_WORD	4135456	wordpools/wasnorm_wordpool_576.txt	LTP369	ltpFR2	3	9	AIRPORT	13	n/a	n/a	0	0	0
2020.17578125	n/a	REC_WORD	4137320	wordpools/wasnorm_wordpool_576.txt	LTP369	ltpFR2	3	9	RACKET	1155	n/a	n/a	0	0	0
2021.5048828125	n/a	REC_WORD	4140042	wordpools/wasnorm_wordpool_576.txt	LTP369	ltpFR2	3	9	MUFFIN	929	n/a	n/a	0	0	0
2022.1728515625	n/a	REC_WORD	4141410	wordpools/wasnorm_wordpool_576.txt	LTP369	ltpFR2	3	9	SNACK	1331	n/a	n/a	0	0	0
2026.25048828125	n/a	REC_WORD	4149761	wordpools/wasnorm_wordpool_576.txt	LTP369	ltpFR2	3	9	ARMY	39	n/a	n/a	0	0	0
2026.927734375	n/a	REC_WORD	4151148	wordpools/wasnorm_wordpool_576.txt	LTP369	ltpFR2	3	9	CYCLONE	431	n/a	n/a	0	0	0
2027.87744140625	n/a	REC_WORD	4153093	wordpools/wasnorm_wordpool_576.txt	LTP369	ltpFR2	3	9	SNAIL	1332	n/a	n/a	0	0	0
2030.76025390625	n/a	REC_WORD	4158997	wordpools/wasnorm_wordpool_576.txt	LTP369	ltpFR2	3	9	GALLON	618	n/a	n/a	0	0	0
2031.1953125	n/a	REC_WORD	4159888	wordpools/wasnorm_wordpool_576.txt	LTP369	ltpFR2	3	9	MILK	895	n/a	n/a	0	0	0
2031.736328125	n/a	REC_WORD	4160996	wordpools/wasnorm_wordpool_576.txt	LTP369	ltpFR2	3	9	APRON	35	n/a	n/a	0	0	0
2032.20556640625	n/a	REC_WORD	4161957	wordpools/wasnorm_wordpool_576.txt	LTP369	ltpFR2	3	9	POPCORN	1104	n/a	n/a	0	0	0
2035.02734375	n/a	REC_WORD	4167736	wordpools/wasnorm_wordpool_576.txt	LTP369	ltpFR2	3	9	OYSTER	995	n/a	n/a	0	0	0
2043.4453125	n/a	REC_WORD	4184976	wordpools/wasnorm_wordpool_576.txt	LTP369	ltpFR2	3	9	GARLIC	624	n/a	n/a	0	0	0
2044.26513671875	n/a	REC_WORD	4186655	wordpools/wasnorm_wordpool_576.txt	LTP369	ltpFR2	3	9	SALT	1229	n/a	n/a	0	0	0
2055.3935546875	n/a	REC_WORD	4209446	wordpools/wasnorm_wordpool_576.txt	LTP369	ltpFR2	3	9	JUGGLER	763	n/a	n/a	0	0	0
2098.42236328125	n/a	WORD	4297569	wordpools/wasnorm_wordpool_576.txt	LTP369	ltpFR2	3	10	SIBLING	1301	n/a	n/a	0	0	0
2100.8544921875	n/a	WORD	4302550	wordpools/wasnorm_wordpool_576.txt	LTP369	ltpFR2	3	10	MARROW	872	n/a	n/a	0	0	0
2103.33642578125	n/a	WORD	4307633	wordpools/wasnorm_wordpool_576.txt	LTP369	ltpFR2	3	10	PASTRY	1022	n/a	n/a	0	0	0
2106.10107421875	n/a	WORD	4313295	wordpools/wasnorm_wordpool_576.txt	LTP369	ltpFR2	3	10	GROUND	666	n/a	n/a	0	0	0
2108.9169921875	n/a	WORD	4319062	wordpools/wasnorm_wordpool_576.txt	LTP369	ltpFR2	3	10	FLASHLIGHT	575	n/a	n/a	0	0	0
2111.4658203125	n/a	WORD	4324282	wordpools/wasnorm_wordpool_576.txt	LTP369	ltpFR2	3	10	SHRUB	1299	n/a	n/a	0	0	0
2114.0478515625	n/a	WORD	4329570	wordpools/wasnorm_wordpool_576.txt	LTP369	ltpFR2	3	10	PASTA	1021	n/a	n/a	0	0	0
2116.52978515625	n/a	WORD	4334653	wordpools/wasnorm_wordpool_576.txt	LTP369	ltpFR2	3	10	PATIENT	1024	n/a	n/a	0	0	0
2119.12890625	n/a	WORD	4339976	wordpools/wasnorm_wordpool_576.txt	LTP369	ltpFR2	3	10	MAPLE	866	n/a	n/a	0	0	0
2121.82763671875	n/a	WORD	4345503	wordpools/wasnorm_wordpool_576.txt	LTP369	ltpFR2	3	10	PERCH	1048	n/a	n/a	0	0	0
2124.54248046875	n/a	WORD	4351063	wordpools/wasnorm_wordpool_576.txt	LTP369	ltpFR2	3	10	ROBIN	1199	n/a	n/a	0	0	0
2126.99169921875	n/a	WORD	4356079	wordpools/wasnorm_wordpool_576.txt	LTP369	ltpFR2	3	10	DORM	488	n/a	n/a	0	0	0
2129.42333984375	n/a	WORD	4361059	wordpools/wasnorm_wordpool_576.txt	LTP369	ltpFR2	3	10	DENIM	446	n/a	n/a	0	0	0
2132.05517578125	n/a	WORD	4366449	wordpools/wasnorm_wordpool_576.txt	LTP369	ltpFR2	3	10	LAPEL	800	n/a	n/a	0	0	0
2134.80419921875	n/a	WORD	4372079	wordpools/wasnorm_wordpool_576.txt	LTP369	ltpFR2	3	10	SIDEWALK	1303	n/a	n/a	0	0	0
2137.25341796875	n/a	WORD	4377095	wordpools/wasnorm_wordpool_576.txt	LTP369	ltpFR2	3	10	TRUCK	1512	n/a	n/a	0	0	0
2139.76806640625	n/a	WORD	4382245	wordpools/wasnorm_wordpool_576.txt	LTP369	ltpFR2	3	10	HOOD	714	n/a	n/a	0	0	0
2142.451171875	n/a	WORD	4387740	wordpools/wasnorm_wordpool_576.txt	LTP369	ltpFR2	3	10	MILDEW	893	n/a	n/a	0	0	0
2144.9990234375	n/a	WORD	4392958	wordpools/wasnorm_wordpool_576.txt	LTP369	ltpFR2	3	10	RUG	1215	n/a	n/a	0	0	0
2147.69775390625	n/a	WORD	4398485	wordpools/wasnorm_wordpool_576.txt	LTP369	ltpFR2	3	10	LAKE	796	n/a	n/a	0	0	0
2150.4296875	n/a	WORD	4404080	wordpools/wasnorm_wordpool_576.txt	LTP369	ltpFR2	3	10	PROTON	1132	n/a	n/a	0	0	0
2153.212890625	n/a	WORD	4409780	wordpools/wasnorm_wordpool_576.txt	LTP369	ltpFR2	3	10	NURSE	963	n/a	n/a	0	0	0
2155.66064453125	n/a	WORD	4414793	wordpools/wasnorm_wordpool_576.txt	LTP369	ltpFR2	3	10	HARP	689	n/a	n/a	0	0	0
2158.19384765625	n/a	WORD	4419981	wordpools/wasnorm_wordpool_576.txt	LTP369	ltpFR2	3	10	COLLEGE	346	n/a	n/a	0	0	0
2159.8095703125	n/a	START	4423290	n/a	LTP369	ltpFR2	3	n/a	n/a	n/a	15	n/a	n/a	n/a	n/a
2160.767578125	n/a	DISTRACTOR	4425252	n/a	LTP369	ltpFR2	3	10	n/a	n/a	n/a	n/a	0	0	0
2160.7744140625	n/a	PROB	4425266	n/a	LTP369	ltpFR2	3	n/a	n/a	n/a	15	9	2	6	1
2162.20751953125	n/a	PROB	4428201	n/a	LTP369	ltpFR2	3	n/a	n/a	n/a	15	15	4	4	7
2163.5576171875	n/a	PROB	4430966	n/a	LTP369	ltpFR2	3	n/a	n/a	n/a	15	11	5	4	2
2164.7724609375	n/a	PROB	4433454	n/a	LTP369	ltpFR2	3	n/a	n/a	n/a	15	16	9	5	2
2166.17236328125	n/a	PROB	4436321	n/a	LTP369	ltpFR2	3	n/a	n/a	n/a	15	19	3	9	7
2167.62255859375	n/a	PROB	4439291	n/a	LTP369	ltpFR2	3	n/a	n/a	n/a	15	17	4	7	6
2169.0712890625	n/a	PROB	4442258	n/a	LTP369	ltpFR2	3	n/a	n/a	n/a	15	16	7	7	2
2170.55419921875	n/a	PROB	4445295	n/a	LTP369	ltpFR2	3	n/a	n/a	n/a	15	20	6	5	9
2172.736328125	n/a	PROB	4449764	n/a	LTP369	ltpFR2	3	n/a	n/a	n/a	15	15	6	7	2
2174.18505859375	n/a	PROB	4452731	n/a	LTP369	ltpFR2	3	n/a	n/a	n/a	15	23	8	6	9
2176.083984375	n/a	PROB	4456620	n/a	LTP369	ltpFR2	3	n/a	n/a	n/a	15	12	2	8	2
2177.333984375	n/a	PROB	4459180	n/a	LTP369	ltpFR2	3	n/a	n/a	n/a	15	16	6	1	9
2178.73291015625	n/a	PROB	4462045	n/a	LTP369	ltpFR2	3	n/a	n/a	n/a	15	16	9	4	3
2180.666015625	n/a	PROB	4466004	n/a	LTP369	ltpFR2	3	n/a	n/a	n/a	15	16	6	8	2
2182.8701171875	n/a	STOP	4470518	n/a	LTP369	ltpFR2	3	n/a	n/a	n/a	15	n/a	n/a	n/a	n/a
2185.73095703125	n/a	REC_START	4476377	n/a	LTP369	ltpFR2	3	10	n/a	n/a	n/a	n/a	0	0	0
2187.3447265625	n/a	REC_WORD	4479682	wordpools/wasnorm_wordpool_576.txt	LTP369	ltpFR2	3	10	SIBLING	1301	n/a	n/a	0	0	0
2188.58154296875	n/a	REC_WORD	4482215	wordpools/wasnorm_wordpool_576.txt	LTP369	ltpFR2	3	10	MARROW	872	n/a	n/a	0	0	0
2189.8056640625	n/a	REC_WORD	4484722	wordpools/wasnorm_wordpool_576.txt	LTP369	ltpFR2	3	10	DORM	488	n/a	n/a	0	0	0
2190.5078125	n/a	REC_WORD	4486160	wordpools/wasnorm_wordpool_576.txt	LTP369	ltpFR2	3	10	SIDEWALK	1303	n/a	n/a	0	0	0
2191.74365234375	n/a	REC_WORD	4488691	wordpools/wasnorm_wordpool_576.txt	LTP369	ltpFR2	3	10	SHRUB	1299	n/a	n/a	0	0	0
2192.859375	n/a	REC_WORD	4490976	wordpools/wasnorm_wordpool_576.txt	LTP369	ltpFR2	3	10	PASTA	1021	n/a	n/a	0	0	0
2196.34130859375	n/a	REC_WORD	4498107	wordpools/wasnorm_wordpool_576.txt	LTP369	ltpFR2	3	10	HARP	689	n/a	n/a	0	0	0
2196.91845703125	n/a	REC_WORD	4499289	wordpools/wasnorm_wordpool_576.txt	LTP369	ltpFR2	3	10	TRUCK	1512	n/a	n/a	0	0	0
2197.28759765625	n/a	REC_WORD	4500045	wordpools/wasnorm_wordpool_576.txt	LTP369	ltpFR2	3	10	MILDEW	893	n/a	n/a	0	0	0
2198.25439453125	n/a	REC_WORD	4502025	wordpools/wasnorm_wordpool_576.txt	LTP369	ltpFR2	3	10	RUG	1215	n/a	n/a	0	0	0
2199.63134765625	n/a	REC_WORD	4504845	wordpools/wasnorm_wordpool_576.txt	LTP369	ltpFR2	3	10	PATIENT	1024	n/a	n/a	0	0	0
2200.947265625	n/a	REC_WORD	4507540	wordpools/wasnorm_wordpool_576.txt	LTP369	ltpFR2	3	10	NURSE	963	n/a	n/a	0	0	0
2206.201171875	n/a	REC_WORD	4518300	wordpools/wasnorm_wordpool_576.txt	LTP369	ltpFR2	3	10	SIDEWALK	1303	n/a	n/a	0	0	0
2207.044921875	n/a	REC_WORD	4520028	wordpools/wasnorm_wordpool_576.txt	LTP369	ltpFR2	3	10	DORM	488	n/a	n/a	0	0	0
2207.51123046875	n/a	REC_WORD	4520983	wordpools/wasnorm_wordpool_576.txt	LTP369	ltpFR2	3	10	COLLEGE	346	n/a	n/a	0	0	0
2211.244140625	n/a	REC_WORD	4528628	wordpools/wasnorm_wordpool_576.txt	LTP369	ltpFR2	3	10	PROTON	1132	n/a	n/a	0	0	0
2211.9931640625	n/a	REC_WORD	4530162	wordpools/wasnorm_wordpool_576.txt	LTP369	ltpFR2	3	10	LAKE	796	n/a	n/a	0	0	0
2219.7646484375	n/a	REC_WORD	4546078	wordpools/wasnorm_wordpool_576.txt	LTP369	ltpFR2	3	10	LAPEL	800	n/a	n/a	0	0	0
2229.3037109375	n/a	REC_WORD	4565614	wordpools/wasnorm_wordpool_576.txt	LTP369	ltpFR2	3	10	GROUND	666	n/a	n/a	0	0	0
2229.8505859375	n/a	REC_WORD	4566734	wordpools/wasnorm_wordpool_576.txt	LTP369	ltpFR2	3	10	FLASHLIGHT	575	n/a	n/a	0	0	0
2233.439453125	n/a	REC_WORD	4574084	wordpools/wasnorm_wordpool_576.txt	LTP369	ltpFR2	3	10	MAPLE	866	n/a	n/a	0	0	0
2234.7021484375	n/a	REC_WORD	4576670	wordpools/wasnorm_wordpool_576.txt	LTP369	ltpFR2	3	10	PERCH	1048	n/a	n/a	0	0	0
2235.29345703125	n/a	REC_WORD	4577881	wordpools/wasnorm_wordpool_576.txt	LTP369	ltpFR2	3	10	ROBIN	1199	n/a	n/a	0	0	0
2276.1689453125	n/a	DISTRACTOR	4661594	n/a	LTP369	ltpFR2	3	11	n/a	n/a	n/a	n/a	0	0	0
2276.169921875	n/a	START	4661596	n/a	LTP369	ltpFR2	3	n/a	n/a	n/a	16	n/a	n/a	n/a	n/a
2276.18603515625	n/a	PROB	4661629	n/a	LTP369	ltpFR2	3	n/a	n/a	n/a	16	12	1	2	9
2277.4189453125	n/a	PROB	4664154	n/a	LTP369	ltpFR2	3	n/a	n/a	n/a	16	21	4	8	9
2278.8681640625	n/a	PROB	4667122	n/a	LTP369	ltpFR2	3	n/a	n/a	n/a	16	14	3	6	5
2280.2841796875	n/a	PROB	4670022	n/a	LTP369	ltpFR2	3	n/a	n/a	n/a	16	8	1	1	6
2281.36669921875	n/a	PROB	4672239	n/a	LTP369	ltpFR2	3	n/a	n/a	n/a	16	21	9	3	9
2282.73291015625	n/a	PROB	4675037	n/a	LTP369	ltpFR2	3	n/a	n/a	n/a	16	23	9	7	7
2286.31494140625	n/a	PROB	4682373	n/a	LTP369	ltpFR2	3	n/a	n/a	n/a	16	17	9	1	7
2287.73095703125	n/a	PROB	4685273	n/a	LTP369	ltpFR2	3	n/a	n/a	n/a	16	13	4	8	1
2288.8134765625	n/a	PROB	4687490	n/a	LTP369	ltpFR2	3	n/a	n/a	n/a	16	13	1	4	9
2290.1796875	n/a	PROB	4690288	n/a	LTP369	ltpFR2	3	n/a	n/a	n/a	16	16	3	6	7
2291.66162109375	n/a	PROB	4693323	n/a	LTP369	ltpFR2	3	n/a	n/a	n/a	16	15	8	1	6
2292.861328125	n/a	PROB	4695780	n/a	LTP369	ltpFR2	3	n/a	n/a	n/a	16	14	8	2	4
2294.07763671875	n/a	PROB	4698271	n/a	LTP369	ltpFR2	3	n/a	n/a	n/a	16	16	8	7	1
2295.560546875	n/a	PROB	4701308	n/a	LTP369	ltpFR2	3	n/a	n/a	n/a	16	14	1	7	6
2296.775390625	n/a	PROB	4703796	n/a	LTP369	ltpFR2	3	n/a	n/a	n/a	16	17	1	9	7
2298.09228515625	n/a	PROB	4706493	n/a	LTP369	ltpFR2	3	n/a	n/a	n/a	16	17	7	9	1
2299.4931640625	n/a	STOP	4709362	n/a	LTP369	ltpFR2	3	n/a	n/a	n/a	16	n/a	n/a	n/a	n/a
2301.37451171875	n/a	WORD	4713215	wordpools/wasnorm_wordpool_576.txt	LTP369	ltpFR2	3	11	EGYPT	519	n/a	n/a	0	0	0
2304.00634765625	n/a	WORD	4718605	wordpools/wasnorm_wordpool_576.txt	LTP369	ltpFR2	3	11	MUMMY	932	n/a	n/a	0	0	0
2306.5380859375	n/a	WORD	4723790	wordpools/wasnorm_wordpool_576.txt	LTP369	ltpFR2	3	11	TROMBONE	1508	n/a	n/a	0	0	0
2309.15283203125	n/a	WORD	4729145	wordpools/wasnorm_wordpool_576.txt	LTP369	ltpFR2	3	11	POET	1095	n/a	n/a	0	0	0
2311.63623046875	n/a	WORD	4734231	wordpools/wasnorm_wordpool_576.txt	LTP369	ltpFR2	3	11	WHISTLE	1606	n/a	n/a	0	0	0
2314.2509765625	n/a	WORD	4739586	wordpools/wasnorm_wordpool_576.txt	LTP369	ltpFR2	3	11	DRUG	501	n/a	n/a	0	0	0
2316.86669921875	n/a	WORD	4744943	wordpools/wasnorm_wordpool_576.txt	LTP369	ltpFR2	3	11	CHEMIST	292	n/a	n/a	0	0	0
2319.548828125	n/a	WORD	4750436	wordpools/wasnorm_wordpool_576.txt	LTP369	ltpFR2	3	11	PEPPER	1047	n/a	n/a	0	0	0
2321.98046875	n/a	WORD	4755416	wordpools/wasnorm_wordpool_576.txt	LTP369	ltpFR2	3	11	HOOK	715	n/a	n/a	0	0	0
2324.49658203125	n/a	WORD	4760569	wordpools/wasnorm_wordpool_576.txt	LTP369	ltpFR2	3	11	AWARD	63	n/a	n/a	0	0	0
2326.9443359375	n/a	WORD	4765582	wordpools/wasnorm_wordpool_576.txt	LTP369	ltpFR2	3	11	CROWN	415	n/a	n/a	0	0	0
2329.62841796875	n/a	WORD	4771079	wordpools/wasnorm_wordpool_576.txt	LTP369	ltpFR2	3	11	ROBBER	1197	n/a	n/a	0	0	0
2332.0595703125	n/a	WORD	4776058	wordpools/wasnorm_wordpool_576.txt	LTP369	ltpFR2	3	11	PUPPY	1144	n/a	n/a	0	0	0
2334.4912109375	n/a	WORD	4781038	wordpools/wasnorm_wordpool_576.txt	LTP369	ltpFR2	3	11	CASHIER	254	n/a	n/a	0	0	0
2336.9404296875	n/a	WORD	4786054	wordpools/wasnorm_wordpool_576.txt	LTP369	ltpFR2	3	11	HIGHWAY	707	n/a	n/a	0	0	0
2339.72216796875	n/a	WORD	4791751	wordpools/wasnorm_wordpool_576.txt	LTP369	ltpFR2	3	11	ASIA	46	n/a	n/a	0	0	0
2342.18701171875	n/a	WORD	4796799	wordpools/wasnorm_wordpool_576.txt	LTP369	ltpFR2	3	11	PORK	1108	n/a	n/a	0	0	0
2344.93603515625	n/a	WORD	4802429	wordpools/wasnorm_wordpool_576.txt	LTP369	ltpFR2	3	11	SNAKE	1333	n/a	n/a	0	0	0
2347.48486328125	n/a	WORD	4807649	wordpools/wasnorm_wordpool_576.txt	LTP369	ltpFR2	3	11	GUARD	667	n/a	n/a	0	0	0
2350.03369140625	n/a	WORD	4812869	wordpools/wasnorm_wordpool_576.txt	LTP369	ltpFR2	3	11	BARLEY	88	n/a	n/a	0	0	0
2352.7158203125	n/a	WORD	4818362	wordpools/wasnorm_wordpool_576.txt	LTP369	ltpFR2	3	11	POISON	1096	n/a	n/a	0	0	0
2355.3974609375	n/a	WORD	4823854	wordpools/wasnorm_wordpool_576.txt	LTP369	ltpFR2	3	11	PALACE	1006	n/a	n/a	0	0	0
2357.82958984375	n/a	WORD	4828835	wordpools/wasnorm_wordpool_576.txt	LTP369	ltpFR2	3	11	PADDING	999	n/a	n/a	0	0	0
2360.2626953125	n/a	WORD	4833818	wordpools/wasnorm_wordpool_576.txt	LTP369	ltpFR2	3	11	SILK	1307	n/a	n/a	0	0	0
2361.87841796875	n/a	START	4837127	n/a	LTP369	ltpFR2	3	n/a	n/a	n/a	17	n/a	n/a	n/a	n/a
2362.71337890625	n/a	DISTRACTOR	4838837	n/a	LTP369	ltpFR2	3	11	n/a	n/a	n/a	n/a	0	0	0
2362.7275390625	n/a	PROB	4838866	n/a	LTP369	ltpFR2	3	n/a	n/a	n/a	17	14	2	5	7
2364.2763671875	n/a	PROB	4842038	n/a	LTP369	ltpFR2	3	n/a	n/a	n/a	17	23	9	8	8
2366.45947265625	n/a	PROB	4846509	n/a	LTP369	ltpFR2	3	n/a	n/a	n/a	17	26	8	9	9
2368.39111328125	n/a	PROB	4850465	n/a	LTP369	ltpFR2	3	n/a	n/a	n/a	17	19	6	5	8
2369.72412109375	n/a	PROB	4853195	n/a	LTP369	ltpFR2	3	n/a	n/a	n/a	17	12	8	2	2
2372.68896484375	n/a	PROB	4859267	n/a	LTP369	ltpFR2	3	n/a	n/a	n/a	17	15	3	5	7
2373.93896484375	n/a	PROB	4861827	n/a	LTP369	ltpFR2	3	n/a	n/a	n/a	17	15	4	8	3
2375.05517578125	n/a	PROB	4864113	n/a	LTP369	ltpFR2	3	n/a	n/a	n/a	17	16	8	1	7
2376.30419921875	n/a	PROB	4866671	n/a	LTP369	ltpFR2	3	n/a	n/a	n/a	17	12	1	7	4
2377.68701171875	n/a	PROB	4869503	n/a	LTP369	ltpFR2	3	n/a	n/a	n/a	17	9	3	4	2
2379.18603515625	n/a	PROB	4872573	n/a	LTP369	ltpFR2	3	n/a	n/a	n/a	17	15	1	7	7
2380.51904296875	n/a	PROB	4875303	n/a	LTP369	ltpFR2	3	n/a	n/a	n/a	17	19	5	1	3
2381.90185546875	n/a	PROB	4878135	n/a	LTP369	ltpFR2	3	n/a	n/a	n/a	17	9	4	1	4
2383.4677734375	n/a	PROB	4881342	n/a	LTP369	ltpFR2	3	n/a	n/a	n/a	17	11	1	2	8
2384.8056640625	n/a	STOP	4884082	n/a	LTP369	ltpFR2	3	n/a	n/a	n/a	17	n/a	n/a	n/a	n/a
2387.7646484375	n/a	REC_START	4890142	n/a	LTP369	ltpFR2	3	11	n/a	n/a	n/a	n/a	0	0	0
2389.24365234375	n/a	REC_WORD	4893171	wordpools/wasnorm_wordpool_576.txt	LTP369	ltpFR2	3	11	PALACE	1006	n/a	n/a	0	0	0
2389.79443359375	n/a	REC_WORD	4894299	wordpools/wasnorm_wordpool_576.txt	LTP369	ltpFR2	3	11	PADDING	999	n/a	n/a	0	0	0
2390.265625	n/a	REC_WORD	4895264	wordpools/wasnorm_wordpool_576.txt	LTP369	ltpFR2	3	11	SILK	1307	n/a	n/a	0	0	0
2390.94873046875	n/a	REC_WORD	4896663	wordpools/wasnorm_wordpool_576.txt	LTP369	ltpFR2	3	11	GUARD	667	n/a	n/a	0	0	0
2391.40380859375	n/a	REC_WORD	4897595	wordpools/wasnorm_wordpool_576.txt	LTP369	ltpFR2	3	11	BARLEY	88	n/a	n/a	0	0	0
2391.90673828125	n/a	REC_WORD	4898625	wordpools/wasnorm_wordpool_576.txt	LTP369	ltpFR2	3	11	POISON	1096	n/a	n/a	0	0	0
2392.439453125	n/a	REC_WORD	4899716	wordpools/wasnorm_wordpool_576.txt	LTP369	ltpFR2	3	11	CASHIER	254	n/a	n/a	0	0	0
2394.6044921875	n/a	REC_WORD	4904150	wordpools/wasnorm_wordpool_576.txt	LTP369	ltpFR2	3	11	ROBBER	1197	n/a	n/a	0	0	0
2395.5625	n/a	REC_WORD	4906112	wordpools/wasnorm_wordpool_576.txt	LTP369	ltpFR2	3	11	PUPPY	1144	n/a	n/a	0	0	0
2398.42041015625	n/a	REC_WORD	4911965	wordpools/wasnorm_wordpool_576.txt	LTP369	ltpFR2	3	11	ASIA	46	n/a	n/a	0	0	0
2398.94921875	n/a	REC_WORD	4913048	wordpools/wasnorm_wordpool_576.txt	LTP369	ltpFR2	3	11	HIGHWAY	707	n/a	n/a	0	0	0
2401.42529296875	n/a	REC_WORD	4918119	wordpools/wasnorm_wordpool_576.txt	LTP369	ltpFR2	3	11	EGYPT	519	n/a	n/a	0	0	0
2402.79541015625	n/a	REC_WORD	4920925	wordpools/wasnorm_wordpool_576.txt	LTP369	ltpFR2	3	11	MUMMY	932	n/a	n/a	0	0	0
2403.4443359375	n/a	REC_WORD	4922254	wordpools/wasnorm_wordpool_576.txt	LTP369	ltpFR2	3	11	WHISTLE	1606	n/a	n/a	0	0	0
2404.0849609375	n/a	REC_WORD	4923566	wordpools/wasnorm_wordpool_576.txt	LTP369	ltpFR2	3	11	POET	1095	n/a	n/a	0	0	0
2408.625	n/a	REC_WORD	4932864	wordpools/wasnorm_wordpool_576.txt	LTP369	ltpFR2	3	11	TROMBONE	1508	n/a	n/a	0	0	0
2412.2109375	n/a	REC_WORD	4940208	wordpools/wasnorm_wordpool_576.txt	LTP369	ltpFR2	3	11	CHEMIST	292	n/a	n/a	0	0	0
2414.5966796875	n/a	REC_WORD	4945094	wordpools/wasnorm_wordpool_576.txt	LTP369	ltpFR2	3	11	PEPPER	1047	n/a	n/a	0	0	0
2415.388671875	n/a	REC_WORD	4946716	wordpools/wasnorm_wordpool_576.txt	LTP369	ltpFR2	3	11	DRUG	501	n/a	n/a	0	0	0
2415.90966796875	n/a	REC_WORD	4947783	wordpools/wasnorm_wordpool_576.txt	LTP369	ltpFR2	3	11	HOOK	715	n/a	n/a	0	0	0
2417.3056640625	n/a	REC_WORD	4950642	wordpools/wasnorm_wordpool_576.txt	LTP369	ltpFR2	3	11	AWARD	63	n/a	n/a	0	0	0
2417.9287109375	n/a	REC_WORD	4951918	wordpools/wasnorm_wordpool_576.txt	LTP369	ltpFR2	3	11	CROWN	415	n/a	n/a	0	0	0
2478.205078125	n/a	DISTRACTOR	5075364	n/a	LTP369	ltpFR2	3	12	n/a	n/a	n/a	n/a	0	0	0
2478.205078125	n/a	START	5075364	n/a	LTP369	ltpFR2	3	n/a	n/a	n/a	18	n/a	n/a	n/a	n/a
2478.22216796875	n/a	PROB	5075399	n/a	LTP369	ltpFR2	3	n/a	n/a	n/a	18	14	2	9	3
2479.9208984375	n/a	PROB	5078878	n/a	LTP369	ltpFR2	3	n/a	n/a	n/a	18	14	3	7	4
2481.0537109375	n/a	PROB	5081198	n/a	LTP369	ltpFR2	3	n/a	n/a	n/a	18	13	1	4	8
2482.27001953125	n/a	PROB	5083689	n/a	LTP369	ltpFR2	3	n/a	n/a	n/a	18	12	1	8	3
2483.56982421875	n/a	PROB	5086351	n/a	LTP369	ltpFR2	3	n/a	n/a	n/a	18	13	2	3	8
2484.8857421875	n/a	PROB	5089046	n/a	LTP369	ltpFR2	3	n/a	n/a	n/a	18	13	3	8	2
2486.251953125	n/a	PROB	5091844	n/a	LTP369	ltpFR2	3	n/a	n/a	n/a	18	8	3	4	1
2487.55078125	n/a	PROB	5094504	n/a	LTP369	ltpFR2	3	n/a	n/a	n/a	18	14	9	3	2
2488.80078125	n/a	PROB	5097064	n/a	LTP369	ltpFR2	3	n/a	n/a	n/a	18	11	2	5	4
2489.982421875	n/a	PROB	5099484	n/a	LTP369	ltpFR2	3	n/a	n/a	n/a	18	12	7	4	1
2491.16552734375	n/a	PROB	5101907	n/a	LTP369	ltpFR2	3	n/a	n/a	n/a	18	7	3	3	1
2492.36474609375	n/a	PROB	5104363	n/a	LTP369	ltpFR2	3	n/a	n/a	n/a	18	14	3	3	8
2493.6474609375	n/a	PROB	5106990	n/a	LTP369	ltpFR2	3	n/a	n/a	n/a	18	14	6	3	5
2494.99755859375	n/a	PROB	5109755	n/a	LTP369	ltpFR2	3	n/a	n/a	n/a	18	16	9	2	5
2496.41357421875	n/a	PROB	5112655	n/a	LTP369	ltpFR2	3	n/a	n/a	n/a	18	13	4	5	4
2497.8955078125	n/a	PROB	5115690	n/a	LTP369	ltpFR2	3	n/a	n/a	n/a	18	22	5	9	8
2499.744140625	n/a	PROB	5119476	n/a	LTP369	ltpFR2	3	n/a	n/a	n/a	18	13	9	3	1
2500.9970703125	n/a	STOP	5122042	n/a	LTP369	ltpFR2	3	n/a	n/a	n/a	18	n/a	n/a	n/a	n/a
2503.193359375	n/a	WORD	5126540	wordpools/wasnorm_wordpool_576.txt	LTP369	ltpFR2	3	12	QUEEN	1149	n/a	n/a	0	0	0
2505.9580078125	n/a	WORD	5132202	wordpools/wasnorm_wordpool_576.txt	LTP369	ltpFR2	3	12	THIEF	1456	n/a	n/a	0	0	0
2508.44091796875	n/a	WORD	5137287	wordpools/wasnorm_wordpool_576.txt	LTP369	ltpFR2	3	12	HAWK	692	n/a	n/a	0	0	0
2511.2060546875	n/a	WORD	5142950	wordpools/wasnorm_wordpool_576.txt	LTP369	ltpFR2	3	12	BEEF	113	n/a	n/a	0	0	0
2513.8876953125	n/a	WORD	5148442	wordpools/wasnorm_wordpool_576.txt	LTP369	ltpFR2	3	12	GRILL	661	n/a	n/a	0	0	0
2516.56982421875	n/a	WORD	5153935	wordpools/wasnorm_wordpool_576.txt	LTP369	ltpFR2	3	12	CROSS	413	n/a	n/a	0	0	0
2519.23583984375	n/a	WORD	5159395	wordpools/wasnorm_wordpool_576.txt	LTP369	ltpFR2	3	12	GARDEN	623	n/a	n/a	0	0	0
2521.8837890625	n/a	WORD	5164818	wordpools/wasnorm_wordpool_576.txt	LTP369	ltpFR2	3	12	FLOWER	584	n/a	n/a	0	0	0
2524.33251953125	n/a	WORD	5169833	wordpools/wasnorm_wordpool_576.txt	LTP369	ltpFR2	3	12	PEANUT	1032	n/a	n/a	0	0	0
2527.04833984375	n/a	WORD	5175395	wordpools/wasnorm_wordpool_576.txt	LTP369	ltpFR2	3	12	TOASTER	1472	n/a	n/a	0	0	0
2529.71337890625	n/a	WORD	5180853	wordpools/wasnorm_wordpool_576.txt	LTP369	ltpFR2	3	12	PRINCE	1124	n/a	n/a	0	0	0
2532.37939453125	n/a	WORD	5186313	wordpools/wasnorm_wordpool_576.txt	LTP369	ltpFR2	3	12	MISTER	901	n/a	n/a	0	0	0
2535.14404296875	n/a	WORD	5191975	wordpools/wasnorm_wordpool_576.txt	LTP369	ltpFR2	3	12	ICEBERG	731	n/a	n/a	0	0	0
2537.79296875	n/a	WORD	5197400	wordpools/wasnorm_wordpool_576.txt	LTP369	ltpFR2	3	12	CABIN	211	n/a	n/a	0	0	0
2540.2421875	n/a	WORD	5202416	wordpools/wasnorm_wordpool_576.txt	LTP369	ltpFR2	3	12	GAZELLE	628	n/a	n/a	0	0	0
2542.95703125	n/a	WORD	5207976	wordpools/wasnorm_wordpool_576.txt	LTP369	ltpFR2	3	12	FOX	598	n/a	n/a	0	0	0
2545.48876953125	n/a	WORD	5213161	wordpools/wasnorm_wordpool_576.txt	LTP369	ltpFR2	3	12	SHIRT	1287	n/a	n/a	0	0	0
2547.955078125	n/a	WORD	5218212	wordpools/wasnorm_wordpool_576.txt	LTP369	ltpFR2	3	12	STAKE	1368	n/a	n/a	0	0	0
2550.669921875	n/a	WORD	5223772	wordpools/wasnorm_wordpool_576.txt	LTP369	ltpFR2	3	12	CHAPEL	280	n/a	n/a	0	0	0
2553.36865234375	n/a	WORD	5229299	wordpools/wasnorm_wordpool_576.txt	LTP369	ltpFR2	3	12	RIVER	1194	n/a	n/a	0	0	0
2556.05078125	n/a	WORD	5234792	wordpools/wasnorm_wordpool_576.txt	LTP369	ltpFR2	3	12	CASKET	255	n/a	n/a	0	0	0
2558.599609375	n/a	WORD	5240012	wordpools/wasnorm_wordpool_576.txt	LTP369	ltpFR2	3	12	ICING	732	n/a	n/a	0	0	0
2561.365234375	n/a	WORD	5245676	wordpools/wasnorm_wordpool_576.txt	LTP369	ltpFR2	3	12	FREEZER	604	n/a	n/a	0	0	0
2563.8974609375	n/a	WORD	5250862	wordpools/wasnorm_wordpool_576.txt	LTP369	ltpFR2	3	12	CELLAR	267	n/a	n/a	0	0	0
2565.51318359375	n/a	START	5254171	n/a	LTP369	ltpFR2	3	n/a	n/a	n/a	19	n/a	n/a	n/a	n/a
2566.4072265625	n/a	DISTRACTOR	5256002	n/a	LTP369	ltpFR2	3	12	n/a	n/a	n/a	n/a	0	0	0
2566.412109375	n/a	PROB	5256012	n/a	LTP369	ltpFR2	3	n/a	n/a	n/a	19	19	6	9	4
2568.162109375	n/a	PROB	5259596	n/a	LTP369	ltpFR2	3	n/a	n/a	n/a	19	15	9	2	4
2569.39404296875	n/a	PROB	5262119	n/a	LTP369	ltpFR2	3	n/a	n/a	n/a	19	17	6	8	3
2570.994140625	n/a	PROB	5265396	n/a	LTP369	ltpFR2	3	n/a	n/a	n/a	19	11	2	6	3
2572.2431640625	n/a	PROB	5267954	n/a	LTP369	ltpFR2	3	n/a	n/a	n/a	19	16	9	3	6
2573.69189453125	n/a	PROB	5270921	n/a	LTP369	ltpFR2	3	n/a	n/a	n/a	19	11	5	1	5
2574.9921875	n/a	PROB	5273584	n/a	LTP369	ltpFR2	3	n/a	n/a	n/a	19	12	3	3	6
2576.5908203125	n/a	PROB	5276858	n/a	LTP369	ltpFR2	3	n/a	n/a	n/a	19	8	1	2	5
2577.83984375	n/a	PROB	5279416	n/a	LTP369	ltpFR2	3	n/a	n/a	n/a	19	24	9	6	9
2579.60595703125	n/a	PROB	5283033	n/a	LTP369	ltpFR2	3	n/a	n/a	n/a	19	11	6	1	4
2580.888671875	n/a	PROB	5285660	n/a	LTP369	ltpFR2	3	n/a	n/a	n/a	19	15	2	5	8
2582.18896484375	n/a	PROB	5288323	n/a	LTP369	ltpFR2	3	n/a	n/a	n/a	19	22	9	9	4
2583.53759765625	n/a	PROB	5291085	n/a	LTP369	ltpFR2	3	n/a	n/a	n/a	19	18	5	4	7
2585.13671875	n/a	PROB	5294360	n/a	LTP369	ltpFR2	3	n/a	n/a	n/a	19	13	5	5	3
2586.51953125	n/a	PROB	5297192	n/a	LTP369	ltpFR2	3	n/a	n/a	n/a	19	15	4	4	7
2589.5126953125	n/a	STOP	5303322	n/a	LTP369	ltpFR2	3	n/a	n/a	n/a	19	n/a	n/a	n/a	n/a
2591.400390625	n/a	REC_START	5307188	n/a	LTP369	ltpFR2	3	12	n/a	n/a	n/a	n/a	0	0	0
2595.07861328125	n/a	REC_WORD	5314721	wordpools/wasnorm_wordpool_576.txt	LTP369	ltpFR2	3	12	QUEEN	1149	n/a	n/a	0	0	0
2596.16259765625	n/a	REC_WORD	5316941	wordpools/wasnorm_wordpool_576.txt	LTP369	ltpFR2	3	12	THIEF	1456	n/a	n/a	0	0	0
2598.1865234375	n/a	REC_WORD	5321086	wordpools/wasnorm_wordpool_576.txt	LTP369	ltpFR2	3	12	GRILL	661	n/a	n/a	0	0	0
2600.84130859375	n/a	REC_WORD	5326523	wordpools/wasnorm_wordpool_576.txt	LTP369	ltpFR2	3	12	BEEF	113	n/a	n/a	0	0	0
2601.92919921875	n/a	REC_WORD	5328751	wordpools/wasnorm_wordpool_576.txt	LTP369	ltpFR2	3	12	HAWK	692	n/a	n/a	0	0	0
2603.90234375	n/a	REC_WORD	5332792	wordpools/wasnorm_wordpool_576.txt	LTP369	ltpFR2	3	12	GARDEN	623	n/a	n/a	0	0	0
2604.39697265625	n/a	REC_WORD	5333805	wordpools/wasnorm_wordpool_576.txt	LTP369	ltpFR2	3	12	FLOWER	584	n/a	n/a	0	0	0
2605.80322265625	n/a	REC_WORD	5336685	wordpools/wasnorm_wordpool_576.txt	LTP369	ltpFR2	3	12	PRINCE	1124	n/a	n/a	0	0	0
2606.41796875	n/a	REC_WORD	5337944	wordpools/wasnorm_wordpool_576.txt	LTP369	ltpFR2	3	12	SHIRT	1287	n/a	n/a	0	0	0
2608.90185546875	n/a	REC_WORD	5343031	wordpools/wasnorm_wordpool_576.txt	LTP369	ltpFR2	3	12	PEANUT	1032	n/a	n/a	0	0	0
2609.72216796875	n/a	REC_WORD	5344711	wordpools/wasnorm_wordpool_576.txt	LTP369	ltpFR2	3	12	TOASTER	1472	n/a	n/a	0	0	0
2613.2646484375	n/a	REC_WORD	5351966	wordpools/wasnorm_wordpool_576.txt	LTP369	ltpFR2	3	12	ICEBERG	731	n/a	n/a	0	0	0
2616.23583984375	n/a	REC_WORD	5358051	wordpools/wasnorm_wordpool_576.txt	LTP369	ltpFR2	3	12	RIVER	1194	n/a	n/a	0	0	0
2617.833984375	n/a	REC_WORD	5361324	wordpools/wasnorm_wordpool_576.txt	LTP369	ltpFR2	3	12	FOX	598	n/a	n/a	0	0	0
2622.53564453125	n/a	REC_WORD	5370953	wordpools/wasnorm_wordpool_576.txt	LTP369	ltpFR2	3	12	CHAPEL	280	n/a	n/a	0	0	0
2623.19140625	n/a	REC_WORD	5372296	wordpools/wasnorm_wordpool_576.txt	LTP369	ltpFR2	3	12	CASKET	255	n/a	n/a	0	0	0
2624.65576171875	n/a	REC_WORD	5375295	wordpools/wasnorm_wordpool_576.txt	LTP369	ltpFR2	3	12	ICING	732	n/a	n/a	0	0	0
2626.9736328125	n/a	REC_WORD	5380042	wordpools/wasnorm_wordpool_576.txt	LTP369	ltpFR2	3	12	FREEZER	604	n/a	n/a	0	0	0
2627.88427734375	n/a	REC_WORD	5381907	wordpools/wasnorm_wordpool_576.txt	LTP369	ltpFR2	3	12	CELLAR	267	n/a	n/a	0	0	0
2642.875	n/a	REC_WORD	5412608	wordpools/wasnorm_wordpool_576.txt	LTP369	ltpFR2	3	12	MISTER	901	n/a	n/a	0	0	0
2646.27294921875	n/a	REC_WORD	5419567	wordpools/wasnorm_wordpool_576.txt	LTP369	ltpFR2	3	12	GAZELLE	628	n/a	n/a	0	0	0
2681.85693359375	n/a	WORD	5492443	wordpools/wasnorm_wordpool_576.txt	LTP369	ltpFR2	3	13	COUCH	386	n/a	n/a	0	0	0
2684.3388671875	n/a	WORD	5497526	wordpools/wasnorm_wordpool_576.txt	LTP369	ltpFR2	3	13	HOSTESS	723	n/a	n/a	0	0	0
2686.95458984375	n/a	WORD	5502883	wordpools/wasnorm_wordpool_576.txt	LTP369	ltpFR2	3	13	NOTEBOOK	959	n/a	n/a	0	0	0
2689.6865234375	n/a	WORD	5508478	wordpools/wasnorm_wordpool_576.txt	LTP369	ltpFR2	3	13	NOMAD	955	n/a	n/a	0	0	0
2692.318359375	n/a	WORD	5513868	wordpools/wasnorm_wordpool_576.txt	LTP369	ltpFR2	3	13	DONKEY	484	n/a	n/a	0	0	0
2694.8671875	n/a	WORD	5519088	wordpools/wasnorm_wordpool_576.txt	LTP369	ltpFR2	3	13	SADDLE	1221	n/a	n/a	0	0	0
2697.59912109375	n/a	WORD	5524683	wordpools/wasnorm_wordpool_576.txt	LTP369	ltpFR2	3	13	DRAWING	494	n/a	n/a	0	0	0
2700.18115234375	n/a	WORD	5529971	wordpools/wasnorm_wordpool_576.txt	LTP369	ltpFR2	3	13	CLIMBER	323	n/a	n/a	0	0	0
2702.71337890625	n/a	WORD	5535157	wordpools/wasnorm_wordpool_576.txt	LTP369	ltpFR2	3	13	CRIB	407	n/a	n/a	0	0	0
2705.39501953125	n/a	WORD	5540649	wordpools/wasnorm_wordpool_576.txt	LTP369	ltpFR2	3	13	REPORT	1184	n/a	n/a	0	0	0
2707.994140625	n/a	WORD	5545972	wordpools/wasnorm_wordpool_576.txt	LTP369	ltpFR2	3	13	GYMNAST	675	n/a	n/a	0	0	0
2710.56005859375	n/a	WORD	5551227	wordpools/wasnorm_wordpool_576.txt	LTP369	ltpFR2	3	13	RATTLE	1170	n/a	n/a	0	0	0
2713.091796875	n/a	WORD	5556412	wordpools/wasnorm_wordpool_576.txt	LTP369	ltpFR2	3	13	STAMP	1370	n/a	n/a	0	0	0
2715.6240234375	n/a	WORD	5561598	wordpools/wasnorm_wordpool_576.txt	LTP369	ltpFR2	3	13	FEMALE	559	n/a	n/a	0	0	0
2718.3056640625	n/a	WORD	5567090	wordpools/wasnorm_wordpool_576.txt	LTP369	ltpFR2	3	13	SLUG	1329	n/a	n/a	0	0	0
2720.90478515625	n/a	WORD	5572413	wordpools/wasnorm_wordpool_576.txt	LTP369	ltpFR2	3	13	LACE	792	n/a	n/a	0	0	0
2723.58642578125	n/a	WORD	5577905	wordpools/wasnorm_wordpool_576.txt	LTP369	ltpFR2	3	13	FOOTBALL	591	n/a	n/a	0	0	0
2726.08544921875	n/a	WORD	5583023	wordpools/wasnorm_wordpool_576.txt	LTP369	ltpFR2	3	13	VIKING	1565	n/a	n/a	0	0	0
2728.8173828125	n/a	WORD	5588618	wordpools/wasnorm_wordpool_576.txt	LTP369	ltpFR2	3	13	LADY	794	n/a	n/a	0	0	0
2731.44921875	n/a	WORD	5594008	wordpools/wasnorm_wordpool_576.txt	LTP369	ltpFR2	3	13	OUTFIT	988	n/a	n/a	0	0	0
2734.1982421875	n/a	WORD	5599638	wordpools/wasnorm_wordpool_576.txt	LTP369	ltpFR2	3	13	MOTEL	919	n/a	n/a	0	0	0
2736.7470703125	n/a	WORD	5604858	wordpools/wasnorm_wordpool_576.txt	LTP369	ltpFR2	3	13	LODGE	839	n/a	n/a	0	0	0
2739.2119140625	n/a	WORD	5609906	wordpools/wasnorm_wordpool_576.txt	LTP369	ltpFR2	3	13	DINER	467	n/a	n/a	0	0	0
2741.81103515625	n/a	WORD	5615229	wordpools/wasnorm_wordpool_576.txt	LTP369	ltpFR2	3	13	PLAYGROUND	1087	n/a	n/a	0	0	0
2743.4267578125	n/a	START	5618538	n/a	LTP369	ltpFR2	3	n/a	n/a	n/a	20	n/a	n/a	n/a	n/a
2744.31005859375	n/a	DISTRACTOR	5620347	n/a	LTP369	ltpFR2	3	13	n/a	n/a	n/a	n/a	0	0	0
2744.3271484375	n/a	PROB	5620382	n/a	LTP369	ltpFR2	3	n/a	n/a	n/a	20	22	6	7	9
2746.89208984375	n/a	PROB	5625635	n/a	LTP369	ltpFR2	3	n/a	n/a	n/a	20	21	7	6	8
2748.724609375	n/a	PROB	5629388	n/a	LTP369	ltpFR2	3	n/a	n/a	n/a	20	16	2	8	6
2749.94091796875	n/a	PROB	5631879	n/a	LTP369	ltpFR2	3	n/a	n/a	n/a	20	4	1	2	1
2751.62255859375	n/a	PROB	5635323	n/a	LTP369	ltpFR2	3	n/a	n/a	n/a	20	16	7	8	1
2752.771484375	n/a	PROB	5637676	n/a	LTP369	ltpFR2	3	n/a	n/a	n/a	20	17	8	3	6
2754.03857421875	n/a	PROB	5640271	n/a	LTP369	ltpFR2	3	n/a	n/a	n/a	20	10	5	1	4
2755.25439453125	n/a	PROB	5642761	n/a	LTP369	ltpFR2	3	n/a	n/a	n/a	20	8	5	1	2
2758.65234375	n/a	PROB	5649720	n/a	LTP369	ltpFR2	3	n/a	n/a	n/a	20	9	3	2	4
2760.03564453125	n/a	PROB	5652553	n/a	LTP369	ltpFR2	3	n/a	n/a	n/a	20	14	7	6	1
2761.4013671875	n/a	PROB	5655350	n/a	LTP369	ltpFR2	3	n/a	n/a	n/a	20	11	2	8	1
2762.4345703125	n/a	PROB	5657466	n/a	LTP369	ltpFR2	3	n/a	n/a	n/a	20	9	2	5	2
2763.80029296875	n/a	PROB	5660263	n/a	LTP369	ltpFR2	3	n/a	n/a	n/a	20	6	2	3	1
2765.16650390625	n/a	PROB	5663061	n/a	LTP369	ltpFR2	3	n/a	n/a	n/a	20	21	6	9	6
2766.66943359375	n/a	STOP	5666139	n/a	LTP369	ltpFR2	3	n/a	n/a	n/a	20	n/a	n/a	n/a	n/a
2769.21533203125	n/a	REC_START	5671353	n/a	LTP369	ltpFR2	3	13	n/a	n/a	n/a	n/a	0	0	0
2771.39013671875	n/a	REC_WORD	5675807	wordpools/wasnorm_wordpool_576.txt	LTP369	ltpFR2	3	13	COUCH	386	n/a	n/a	0	0	0
2772.08984375	n/a	REC_WORD	5677240	wordpools/wasnorm_wordpool_576.txt	LTP369	ltpFR2	3	13	HOSTESS	723	n/a	n/a	0	0	0
2772.80126953125	n/a	REC_WORD	5678697	wordpools/wasnorm_wordpool_576.txt	LTP369	ltpFR2	3	13	NOMAD	955	n/a	n/a	0	0	0
2773.30224609375	n/a	REC_WORD	5679723	wordpools/wasnorm_wordpool_576.txt	LTP369	ltpFR2	3	13	DONKEY	484	n/a	n/a	0	0	0
2773.755859375	n/a	REC_WORD	5680652	wordpools/wasnorm_wordpool_576.txt	LTP369	ltpFR2	3	13	SADDLE	1221	n/a	n/a	0	0	0
2775.55078125	n/a	REC_WORD	5684328	wordpools/wasnorm_wordpool_576.txt	LTP369	ltpFR2	3	13	DRAWING	494	n/a	n/a	0	0	0
2776.15380859375	n/a	REC_WORD	5685563	wordpools/wasnorm_wordpool_576.txt	LTP369	ltpFR2	3	13	CLIMBER	323	n/a	n/a	0	0	0
2776.9267578125	n/a	REC_WORD	5687146	wordpools/wasnorm_wordpool_576.txt	LTP369	ltpFR2	3	13	CRIB	407	n/a	n/a	0	0	0
2778.69580078125	n/a	REC_WORD	5690769	wordpools/wasnorm_wordpool_576.txt	LTP369	ltpFR2	3	13	REPORT	1184	n/a	n/a	0	0	0
2780.5576171875	n/a	REC_WORD	5694582	wordpools/wasnorm_wordpool_576.txt	LTP369	ltpFR2	3	13	GYMNAST	675	n/a	n/a	0	0	0
2783.64990234375	n/a	REC_WORD	5700915	wordpools/wasnorm_wordpool_576.txt	LTP369	ltpFR2	3	13	FEMALE	559	n/a	n/a	0	0	0
2784.69580078125	n/a	REC_WORD	5703057	wordpools/wasnorm_wordpool_576.txt	LTP369	ltpFR2	3	13	RATTLE	1170	n/a	n/a	0	0	0
2787.0146484375	n/a	REC_WORD	5707806	wordpools/wasnorm_wordpool_576.txt	LTP369	ltpFR2	3	13	SNAIL	1332	n/a	n/a	0	0	0
2798.693359375	n/a	REC_WORD	5731724	wordpools/wasnorm_wordpool_576.txt	LTP369	ltpFR2	3	13	LADY	794	n/a	n/a	0	0	0
2802.20703125	n/a	REC_WORD	5738920	wordpools/wasnorm_wordpool_576.txt	LTP369	ltpFR2	3	13	LACE	792	n/a	n/a	0	0	0
2803.43896484375	n/a	REC_WORD	5741443	wordpools/wasnorm_wordpool_576.txt	LTP369	ltpFR2	3	13	FOOTBALL	591	n/a	n/a	0	0	0
2804.583984375	n/a	REC_WORD	5743788	wordpools/wasnorm_wordpool_576.txt	LTP369	ltpFR2	3	13	VIKING	1565	n/a	n/a	0	0	0
2809.29296875	n/a	REC_WORD	5753432	wordpools/wasnorm_wordpool_576.txt	LTP369	ltpFR2	3	13	DINER	467	n/a	n/a	0	0	0
2809.998046875	n/a	REC_WORD	5754876	wordpools/wasnorm_wordpool_576.txt	LTP369	ltpFR2	3	13	LODGE	839	n/a	n/a	0	0	0
2859.63720703125	n/a	DISTRACTOR	5856537	n/a	LTP369	ltpFR2	3	14	n/a	n/a	n/a	n/a	0	0	0
2859.63720703125	n/a	START	5856537	n/a	LTP369	ltpFR2	3	n/a	n/a	n/a	21	n/a	n/a	n/a	n/a
2859.654296875	n/a	PROB	5856572	n/a	LTP369	ltpFR2	3	n/a	n/a	n/a	21	12	2	2	8
2861.353515625	n/a	PROB	5860052	n/a	LTP369	ltpFR2	3	n/a	n/a	n/a	21	9	4	4	1
2862.6865234375	n/a	PROB	5862782	n/a	LTP369	ltpFR2	3	n/a	n/a	n/a	21	11	9	1	1
2864.1025390625	n/a	PROB	5865682	n/a	LTP369	ltpFR2	3	n/a	n/a	n/a	21	15	8	2	5
2865.3681640625	n/a	PROB	5868274	n/a	LTP369	ltpFR2	3	n/a	n/a	n/a	21	18	4	9	5
2866.833984375	n/a	PROB	5871276	n/a	LTP369	ltpFR2	3	n/a	n/a	n/a	21	13	3	4	6
2868.1669921875	n/a	PROB	5874006	n/a	LTP369	ltpFR2	3	n/a	n/a	n/a	21	21	9	3	9
2869.916015625	n/a	PROB	5877588	n/a	LTP369	ltpFR2	3	n/a	n/a	n/a	21	18	9	3	6
2871.84814453125	n/a	PROB	5881545	n/a	LTP369	ltpFR2	3	n/a	n/a	n/a	21	13	1	8	4
2873.4140625	n/a	PROB	5884752	n/a	LTP369	ltpFR2	3	n/a	n/a	n/a	21	12	1	5	6
2875.06298828125	n/a	PROB	5888129	n/a	LTP369	ltpFR2	3	n/a	n/a	n/a	21	17	7	6	4
2876.52880859375	n/a	PROB	5891131	n/a	LTP369	ltpFR2	3	n/a	n/a	n/a	21	12	7	2	2
2878.44482421875	n/a	PROB	5895055	n/a	LTP369	ltpFR2	3	n/a	n/a	n/a	21	14	8	5	1
2880.02783203125	n/a	PROB	5898297	n/a	LTP369	ltpFR2	3	n/a	n/a	n/a	21	14	2	6	6
2883.63671875	n/a	STOP	5905688	n/a	LTP369	ltpFR2	3	n/a	n/a	n/a	21	n/a	n/a	n/a	n/a
2884.69189453125	n/a	WORD	5907849	wordpools/wasnorm_wordpool_576.txt	LTP369	ltpFR2	3	14	POSTAGE	1113	n/a	n/a	0	0	0
2887.40771484375	n/a	WORD	5913411	wordpools/wasnorm_wordpool_576.txt	LTP369	ltpFR2	3	14	JEANS	752	n/a	n/a	0	0	0
2889.939453125	n/a	WORD	5918596	wordpools/wasnorm_wordpool_576.txt	LTP369	ltpFR2	3	14	HIKER	708	n/a	n/a	0	0	0
2892.53857421875	n/a	WORD	5923919	wordpools/wasnorm_wordpool_576.txt	LTP369	ltpFR2	3	14	NECKLACE	940	n/a	n/a	0	0	0
2895.08740234375	n/a	WORD	5929139	wordpools/wasnorm_wordpool_576.txt	LTP369	ltpFR2	3	14	LADDER	793	n/a	n/a	0	0	0
2897.58642578125	n/a	WORD	5934257	wordpools/wasnorm_wordpool_576.txt	LTP369	ltpFR2	3	14	TRACTOR	1493	n/a	n/a	0	0	0
2900.16845703125	n/a	WORD	5939545	wordpools/wasnorm_wordpool_576.txt	LTP369	ltpFR2	3	14	SHORTS	1293	n/a	n/a	0	0	0
2902.9501953125	n/a	WORD	5945242	wordpools/wasnorm_wordpool_576.txt	LTP369	ltpFR2	3	14	BLOUSE	139	n/a	n/a	0	0	0
2905.59912109375	n/a	WORD	5950667	wordpools/wasnorm_wordpool_576.txt	LTP369	ltpFR2	3	14	CLOUD	328	n/a	n/a	0	0	0
2908.18115234375	n/a	WORD	5955955	wordpools/wasnorm_wordpool_576.txt	LTP369	ltpFR2	3	14	SMOG	1330	n/a	n/a	0	0	0
2910.6298828125	n/a	WORD	5960970	wordpools/wasnorm_wordpool_576.txt	LTP369	ltpFR2	3	14	VENUS	1557	n/a	n/a	0	0	0
2913.11181640625	n/a	WORD	5966053	wordpools/wasnorm_wordpool_576.txt	LTP369	ltpFR2	3	14	FARMER	553	n/a	n/a	0	0	0
2915.82666015625	n/a	WORD	5971613	wordpools/wasnorm_wordpool_576.txt	LTP369	ltpFR2	3	14	HAMPER	682	n/a	n/a	0	0	0
2918.27587890625	n/a	WORD	5976629	wordpools/wasnorm_wordpool_576.txt	LTP369	ltpFR2	3	14	RAFT	1159	n/a	n/a	0	0	0
2920.9248046875	n/a	WORD	5982054	wordpools/wasnorm_wordpool_576.txt	LTP369	ltpFR2	3	14	BEAVER	109	n/a	n/a	0	0	0
2923.7236328125	n/a	WORD	5987786	wordpools/wasnorm_wordpool_576.txt	LTP369	ltpFR2	3	14	UNCLE	1536	n/a	n/a	0	0	0
2926.3056640625	n/a	WORD	5993074	wordpools/wasnorm_wordpool_576.txt	LTP369	ltpFR2	3	14	COTTAGE	384	n/a	n/a	0	0	0
2928.7373046875	n/a	WORD	5998054	wordpools/wasnorm_wordpool_576.txt	LTP369	ltpFR2	3	14	SPOUSE	1358	n/a	n/a	0	0	0
2931.3193359375	n/a	WORD	6003342	wordpools/wasnorm_wordpool_576.txt	LTP369	ltpFR2	3	14	FRANCE	601	n/a	n/a	0	0	0
2934.05126953125	n/a	WORD	6008937	wordpools/wasnorm_wordpool_576.txt	LTP369	ltpFR2	3	14	ACTOR	5	n/a	n/a	0	0	0
2936.60009765625	n/a	WORD	6014157	wordpools/wasnorm_wordpool_576.txt	LTP369	ltpFR2	3	14	STAR	1373	n/a	n/a	0	0	0
2939.39892578125	n/a	WORD	6019889	wordpools/wasnorm_wordpool_576.txt	LTP369	ltpFR2	3	14	BUREAU	199	n/a	n/a	0	0	0
2942.130859375	n/a	WORD	6025484	wordpools/wasnorm_wordpool_576.txt	LTP369	ltpFR2	3	14	CANAL	226	n/a	n/a	0	0	0
2944.830078125	n/a	WORD	6031012	wordpools/wasnorm_wordpool_576.txt	LTP369	ltpFR2	3	14	PLAZA	1088	n/a	n/a	0	0	0
2946.44580078125	n/a	START	6034321	n/a	LTP369	ltpFR2	3	n/a	n/a	n/a	22	n/a	n/a	n/a	n/a
2947.4296875	n/a	DISTRACTOR	6036336	n/a	LTP369	ltpFR2	3	14	n/a	n/a	n/a	n/a	0	0	0
2947.44482421875	n/a	PROB	6036367	n/a	LTP369	ltpFR2	3	n/a	n/a	n/a	22	15	6	1	8
2949.177734375	n/a	PROB	6039916	n/a	LTP369	ltpFR2	3	n/a	n/a	n/a	22	14	5	2	7
2950.41064453125	n/a	PROB	6042441	n/a	LTP369	ltpFR2	3	n/a	n/a	n/a	22	17	4	7	6
2951.99267578125	n/a	PROB	6045681	n/a	LTP369	ltpFR2	3	n/a	n/a	n/a	22	26	9	9	8
2953.95849609375	n/a	PROB	6049707	n/a	LTP369	ltpFR2	3	n/a	n/a	n/a	22	14	7	2	5
2955.17431640625	n/a	PROB	6052197	n/a	LTP369	ltpFR2	3	n/a	n/a	n/a	22	18	1	8	9
2956.42431640625	n/a	PROB	6054757	n/a	LTP369	ltpFR2	3	n/a	n/a	n/a	22	17	3	9	5
2958.04052734375	n/a	PROB	6058067	n/a	LTP369	ltpFR2	3	n/a	n/a	n/a	22	16	2	9	4
2959.78955078125	n/a	PROB	6061649	n/a	LTP369	ltpFR2	3	n/a	n/a	n/a	22	15	6	2	7
2961.12158203125	n/a	PROB	6064377	n/a	LTP369	ltpFR2	3	n/a	n/a	n/a	22	10	7	1	2
2962.25439453125	n/a	PROB	6066697	n/a	LTP369	ltpFR2	3	n/a	n/a	n/a	22	14	3	3	8
2963.42041015625	n/a	PROB	6069085	n/a	LTP369	ltpFR2	3	n/a	n/a	n/a	22	13	6	1	6
