mstime	trial_type	stim_file	subject	experiment	session	trial	item_name	item_num	list	answer	test_x	test_y	test_z
0	SESS_START	n/a	LTP281	ltpFR2	0	n/a	n/a	n/a	n/a	n/a	0	0	0
27377	START	n/a	LTP281	ltpFR2	0	n/a	n/a	n/a	-1	n/a	n/a	n/a	n/a
27410	PROB	n/a	LTP281	ltpFR2	0	n/a	n/a	n/a	-1	7	3	2	2
31887	PROB	n/a	LTP281	ltpFR2	0	n/a	n/a	n/a	-1	11	3	3	5
33849	PROB	n/a	LTP281	ltpFR2	0	n/a	n/a	n/a	-1	13	6	1	6
35548	PROB	n/a	LTP281	ltpFR2	0	n/a	n/a	n/a	-1	13	5	6	2
38319	STOP	n/a	LTP281	ltpFR2	0	n/a	n/a	n/a	-1	n/a	n/a	n/a	n/a
125216	WORD	wordpools/wasnorm_wordpool_576.txt	LTP281	ltpFR2	0	1	CHURCH	307	n/a	n/a	0	0	0
127711	WORD	wordpools/wasnorm_wordpool_576.txt	LTP281	ltpFR2	0	1	HAMPER	682	n/a	n/a	0	0	0
130242	WORD	wordpools/wasnorm_wordpool_576.txt	LTP281	ltpFR2	0	1	CLOTHES	327	n/a	n/a	0	0	0
132905	WORD	wordpools/wasnorm_wordpool_576.txt	LTP281	ltpFR2	0	1	TEMPLE	1448	n/a	n/a	0	0	0
135468	WORD	wordpools/wasnorm_wordpool_576.txt	LTP281	ltpFR2	0	1	GHETTO	633	n/a	n/a	0	0	0
137931	WORD	wordpools/wasnorm_wordpool_576.txt	LTP281	ltpFR2	0	1	LADDER	793	n/a	n/a	0	0	0
140742	WORD	wordpools/wasnorm_wordpool_576.txt	LTP281	ltpFR2	0	1	ISLAND	745	n/a	n/a	0	0	0
143556	WORD	wordpools/wasnorm_wordpool_576.txt	LTP281	ltpFR2	0	1	COTTAGE	384	n/a	n/a	0	0	0
146019	WORD	wordpools/wasnorm_wordpool_576.txt	LTP281	ltpFR2	0	1	CATTLE	261	n/a	n/a	0	0	0
148780	WORD	wordpools/wasnorm_wordpool_576.txt	LTP281	ltpFR2	0	1	TORTOISE	1486	n/a	n/a	0	0	0
151378	WORD	wordpools/wasnorm_wordpool_576.txt	LTP281	ltpFR2	0	1	TURTLE	1522	n/a	n/a	0	0	0
153957	WORD	wordpools/wasnorm_wordpool_576.txt	LTP281	ltpFR2	0	1	COOK	372	n/a	n/a	0	0	0
156503	WORD	wordpools/wasnorm_wordpool_576.txt	LTP281	ltpFR2	0	1	LOVER	846	n/a	n/a	0	0	0
159050	WORD	wordpools/wasnorm_wordpool_576.txt	LTP281	ltpFR2	0	1	FEMALE	559	n/a	n/a	0	0	0
161496	WORD	wordpools/wasnorm_wordpool_576.txt	LTP281	ltpFR2	0	1	BOARD	143	n/a	n/a	0	0	0
163926	WORD	wordpools/wasnorm_wordpool_576.txt	LTP281	ltpFR2	0	1	NECKLACE	940	n/a	n/a	0	0	0
166539	WORD	wordpools/wasnorm_wordpool_576.txt	LTP281	ltpFR2	0	1	SHARK	1275	n/a	n/a	0	0	0
169268	WORD	wordpools/wasnorm_wordpool_576.txt	LTP281	ltpFR2	0	1	POPCORN	1104	n/a	n/a	0	0	0
171713	WORD	wordpools/wasnorm_wordpool_576.txt	LTP281	ltpFR2	0	1	KNAPSACK	783	n/a	n/a	0	0	0
174377	WORD	wordpools/wasnorm_wordpool_576.txt	LTP281	ltpFR2	0	1	PATIENT	1024	n/a	n/a	0	0	0
176973	WORD	wordpools/wasnorm_wordpool_576.txt	LTP281	ltpFR2	0	1	GUARD	667	n/a	n/a	0	0	0
179486	WORD	wordpools/wasnorm_wordpool_576.txt	LTP281	ltpFR2	0	1	SLUG	1329	n/a	n/a	0	0	0
181983	WORD	wordpools/wasnorm_wordpool_576.txt	LTP281	ltpFR2	0	1	BUREAU	199	n/a	n/a	0	0	0
184612	WORD	wordpools/wasnorm_wordpool_576.txt	LTP281	ltpFR2	0	1	OYSTER	995	n/a	n/a	0	0	0
186227	START	n/a	LTP281	ltpFR2	0	n/a	n/a	n/a	1	n/a	n/a	n/a	n/a
187249	DISTRACTOR	n/a	LTP281	ltpFR2	0	1	n/a	n/a	n/a	n/a	0	0	0
187258	PROB	n/a	LTP281	ltpFR2	0	n/a	n/a	n/a	1	20	9	8	3
190802	PROB	n/a	LTP281	ltpFR2	0	n/a	n/a	n/a	1	23	9	7	7
194548	PROB	n/a	LTP281	ltpFR2	0	n/a	n/a	n/a	1	9	6	2	1
200006	PROB	n/a	LTP281	ltpFR2	0	n/a	n/a	n/a	1	18	3	9	6
203035	PROB	n/a	LTP281	ltpFR2	0	n/a	n/a	n/a	1	18	5	6	7
205713	PROB	n/a	LTP281	ltpFR2	0	n/a	n/a	n/a	1	9	2	3	4
210227	STOP	n/a	LTP281	ltpFR2	0	n/a	n/a	n/a	1	n/a	n/a	n/a	n/a
212139	REC_START	n/a	LTP281	ltpFR2	0	1	n/a	n/a	n/a	n/a	0	0	0
213321	REC_WORD	wordpools/wasnorm_wordpool_576.txt	LTP281	ltpFR2	0	1	HAMPER	682	n/a	n/a	0	0	0
214796	REC_WORD	wordpools/wasnorm_wordpool_576.txt	LTP281	ltpFR2	0	1	LOVER	846	n/a	n/a	0	0	0
215956	REC_WORD	wordpools/wasnorm_wordpool_576.txt	LTP281	ltpFR2	0	1	FEMALE	559	n/a	n/a	0	0	0
217359	REC_WORD	wordpools/wasnorm_wordpool_576.txt	LTP281	ltpFR2	0	1	BOARD	143	n/a	n/a	0	0	0
218589	REC_WORD	wordpools/wasnorm_wordpool_576.txt	LTP281	ltpFR2	0	1	PATIENT	1024	n/a	n/a	0	0	0
219788	REC_WORD	wordpools/wasnorm_wordpool_576.txt	LTP281	ltpFR2	0	1	BUREAU	199	n/a	n/a	0	0	0
220995	REC_WORD	wordpools/wasnorm_wordpool_576.txt	LTP281	ltpFR2	0	1	LADDER	793	n/a	n/a	0	0	0
222500	REC_WORD	wordpools/wasnorm_wordpool_576.txt	LTP281	ltpFR2	0	1	KNAPSACK	783	n/a	n/a	0	0	0
223931	REC_WORD	wordpools/wasnorm_wordpool_576.txt	LTP281	ltpFR2	0	1	TORTOISE	1486	n/a	n/a	0	0	0
225288	REC_WORD	wordpools/wasnorm_wordpool_576.txt	LTP281	ltpFR2	0	1	TURTLE	1522	n/a	n/a	0	0	0
233479	REC_WORD	wordpools/wasnorm_wordpool_576.txt	LTP281	ltpFR2	0	1	GUARD	667	n/a	n/a	0	0	0
242226	REC_WORD	wordpools/wasnorm_wordpool_576.txt	LTP281	ltpFR2	0	1	COOK	372	n/a	n/a	0	0	0
250069	REC_WORD	wordpools/wasnorm_wordpool_576.txt	LTP281	ltpFR2	0	1	SHARK	1275	n/a	n/a	0	0	0
270263	REC_WORD	wordpools/wasnorm_wordpool_576.txt	LTP281	ltpFR2	0	1	POPCORN	1104	n/a	n/a	0	0	0
329333	DISTRACTOR	n/a	LTP281	ltpFR2	0	2	n/a	n/a	n/a	n/a	0	0	0
329333	START	n/a	LTP281	ltpFR2	0	n/a	n/a	n/a	2	n/a	n/a	n/a	n/a
329366	PROB	n/a	LTP281	ltpFR2	0	n/a	n/a	n/a	2	24	6	9	9
332411	PROB	n/a	LTP281	ltpFR2	0	n/a	n/a	n/a	2	15	9	3	4
334608	PROB	n/a	LTP281	ltpFR2	0	n/a	n/a	n/a	2	13	3	5	5
336006	PROB	n/a	LTP281	ltpFR2	0	n/a	n/a	n/a	2	14	6	4	4
338070	PROB	n/a	LTP281	ltpFR2	0	n/a	n/a	n/a	2	20	7	8	5
340233	PROB	n/a	LTP281	ltpFR2	0	n/a	n/a	n/a	2	14	2	4	8
342414	PROB	n/a	LTP281	ltpFR2	0	n/a	n/a	n/a	2	6	2	3	1
344277	PROB	n/a	LTP281	ltpFR2	0	n/a	n/a	n/a	2	15	5	3	7
346391	PROB	n/a	LTP281	ltpFR2	0	n/a	n/a	n/a	2	18	8	7	3
349220	PROB	n/a	LTP281	ltpFR2	0	n/a	n/a	n/a	2	12	8	8	2
350850	PROB	n/a	LTP281	ltpFR2	0	n/a	n/a	n/a	2	10	4	4	2
352486	STOP	n/a	LTP281	ltpFR2	0	n/a	n/a	n/a	2	n/a	n/a	n/a	n/a
354363	WORD	wordpools/wasnorm_wordpool_576.txt	LTP281	ltpFR2	0	2	HEADBAND	696	n/a	n/a	0	0	0
356808	WORD	wordpools/wasnorm_wordpool_576.txt	LTP281	ltpFR2	0	2	WHISKERS	1605	n/a	n/a	0	0	0
359255	WORD	wordpools/wasnorm_wordpool_576.txt	LTP281	ltpFR2	0	2	SAUSAGE	1238	n/a	n/a	0	0	0
361767	WORD	wordpools/wasnorm_wordpool_576.txt	LTP281	ltpFR2	0	2	BASEMENT	94	n/a	n/a	0	0	0
364531	WORD	wordpools/wasnorm_wordpool_576.txt	LTP281	ltpFR2	0	2	FIDDLE	561	n/a	n/a	0	0	0
367294	WORD	wordpools/wasnorm_wordpool_576.txt	LTP281	ltpFR2	0	2	GYMNAST	675	n/a	n/a	0	0	0
369906	WORD	wordpools/wasnorm_wordpool_576.txt	LTP281	ltpFR2	0	2	EMPIRE	530	n/a	n/a	0	0	0
372701	WORD	wordpools/wasnorm_wordpool_576.txt	LTP281	ltpFR2	0	2	SCULPTURE	1258	n/a	n/a	0	0	0
375299	WORD	wordpools/wasnorm_wordpool_576.txt	LTP281	ltpFR2	0	2	TUNNEL	1519	n/a	n/a	0	0	0
377744	WORD	wordpools/wasnorm_wordpool_576.txt	LTP281	ltpFR2	0	2	TROMBONE	1508	n/a	n/a	0	0	0
380491	WORD	wordpools/wasnorm_wordpool_576.txt	LTP281	ltpFR2	0	2	LAGOON	795	n/a	n/a	0	0	0
383004	WORD	wordpools/wasnorm_wordpool_576.txt	LTP281	ltpFR2	0	2	KIDNEY	776	n/a	n/a	0	0	0
385550	WORD	wordpools/wasnorm_wordpool_576.txt	LTP281	ltpFR2	0	2	BEAST	108	n/a	n/a	0	0	0
388080	WORD	wordpools/wasnorm_wordpool_576.txt	LTP281	ltpFR2	0	2	RAFT	1159	n/a	n/a	0	0	0
390808	WORD	wordpools/wasnorm_wordpool_576.txt	LTP281	ltpFR2	0	2	TUBA	1515	n/a	n/a	0	0	0
393305	WORD	wordpools/wasnorm_wordpool_576.txt	LTP281	ltpFR2	0	2	BLUEPRINT	142	n/a	n/a	0	0	0
396001	WORD	wordpools/wasnorm_wordpool_576.txt	LTP281	ltpFR2	0	2	AIRPORT	13	n/a	n/a	0	0	0
398763	WORD	wordpools/wasnorm_wordpool_576.txt	LTP281	ltpFR2	0	2	PLUTO	1092	n/a	n/a	0	0	0
401360	WORD	wordpools/wasnorm_wordpool_576.txt	LTP281	ltpFR2	0	2	VENUS	1557	n/a	n/a	0	0	0
403855	WORD	wordpools/wasnorm_wordpool_576.txt	LTP281	ltpFR2	0	2	SUBWAY	1400	n/a	n/a	0	0	0
406336	WORD	wordpools/wasnorm_wordpool_576.txt	LTP281	ltpFR2	0	2	RELISH	1183	n/a	n/a	0	0	0
409032	WORD	wordpools/wasnorm_wordpool_576.txt	LTP281	ltpFR2	0	2	GALLON	618	n/a	n/a	0	0	0
411644	WORD	wordpools/wasnorm_wordpool_576.txt	LTP281	ltpFR2	0	2	COBRA	336	n/a	n/a	0	0	0
414225	WORD	wordpools/wasnorm_wordpool_576.txt	LTP281	ltpFR2	0	2	COD	340	n/a	n/a	0	0	0
415838	START	n/a	LTP281	ltpFR2	0	n/a	n/a	n/a	3	n/a	n/a	n/a	n/a
416760	DISTRACTOR	n/a	LTP281	ltpFR2	0	2	n/a	n/a	n/a	n/a	0	0	0
416770	PROB	n/a	LTP281	ltpFR2	0	n/a	n/a	n/a	3	17	7	8	2
418568	PROB	n/a	LTP281	ltpFR2	0	n/a	n/a	n/a	3	6	2	1	3
420316	PROB	n/a	LTP281	ltpFR2	0	n/a	n/a	n/a	3	12	4	7	2
423478	PROB	n/a	LTP281	ltpFR2	0	n/a	n/a	n/a	3	21	7	8	6
428304	PROB	n/a	LTP281	ltpFR2	0	n/a	n/a	n/a	3	17	7	5	5
430168	PROB	n/a	LTP281	ltpFR2	0	n/a	n/a	n/a	3	13	6	1	6
431731	PROB	n/a	LTP281	ltpFR2	0	n/a	n/a	n/a	3	15	5	2	8
433363	PROB	n/a	LTP281	ltpFR2	0	n/a	n/a	n/a	3	18	3	6	9
437224	PROB	n/a	LTP281	ltpFR2	0	n/a	n/a	n/a	3	12	3	3	8
439216	STOP	n/a	LTP281	ltpFR2	0	n/a	n/a	n/a	3	n/a	n/a	n/a	n/a
441784	REC_START	n/a	LTP281	ltpFR2	0	2	n/a	n/a	n/a	n/a	0	0	0
443260	REC_WORD	wordpools/wasnorm_wordpool_576.txt	LTP281	ltpFR2	0	2	COBRA	336	n/a	n/a	0	0	0
444774	REC_WORD	wordpools/wasnorm_wordpool_576.txt	LTP281	ltpFR2	0	2	COD	340	n/a	n/a	0	0	0
452289	REC_WORD	wordpools/wasnorm_wordpool_576.txt	LTP281	ltpFR2	0	2	LAGOON	795	n/a	n/a	0	0	0
462465	REC_WORD	wordpools/wasnorm_wordpool_576.txt	LTP281	ltpFR2	0	2	GALLON	618	n/a	n/a	0	0	0
532467	WORD	wordpools/wasnorm_wordpool_576.txt	LTP281	ltpFR2	0	3	XEROX	1628	n/a	n/a	0	0	0
535263	WORD	wordpools/wasnorm_wordpool_576.txt	LTP281	ltpFR2	0	3	PERFUME	1049	n/a	n/a	0	0	0
537725	WORD	wordpools/wasnorm_wordpool_576.txt	LTP281	ltpFR2	0	3	LODGE	839	n/a	n/a	0	0	0
540256	WORD	wordpools/wasnorm_wordpool_576.txt	LTP281	ltpFR2	0	3	RATTLE	1170	n/a	n/a	0	0	0
542751	WORD	wordpools/wasnorm_wordpool_576.txt	LTP281	ltpFR2	0	3	SHELTER	1282	n/a	n/a	0	0	0
545232	WORD	wordpools/wasnorm_wordpool_576.txt	LTP281	ltpFR2	0	3	STAKE	1368	n/a	n/a	0	0	0
547677	WORD	wordpools/wasnorm_wordpool_576.txt	LTP281	ltpFR2	0	3	LUNCH	849	n/a	n/a	0	0	0
550491	WORD	wordpools/wasnorm_wordpool_576.txt	LTP281	ltpFR2	0	3	KNIFE	785	n/a	n/a	0	0	0
553037	WORD	wordpools/wasnorm_wordpool_576.txt	LTP281	ltpFR2	0	3	SPHINX	1349	n/a	n/a	0	0	0
555782	WORD	wordpools/wasnorm_wordpool_576.txt	LTP281	ltpFR2	0	3	EGYPT	519	n/a	n/a	0	0	0
558463	WORD	wordpools/wasnorm_wordpool_576.txt	LTP281	ltpFR2	0	3	POSTAGE	1113	n/a	n/a	0	0	0
561009	WORD	wordpools/wasnorm_wordpool_576.txt	LTP281	ltpFR2	0	3	GLOVE	642	n/a	n/a	0	0	0
563704	WORD	wordpools/wasnorm_wordpool_576.txt	LTP281	ltpFR2	0	3	SCISSORS	1250	n/a	n/a	0	0	0
566434	WORD	wordpools/wasnorm_wordpool_576.txt	LTP281	ltpFR2	0	3	SANDWICH	1232	n/a	n/a	0	0	0
568863	WORD	wordpools/wasnorm_wordpool_576.txt	LTP281	ltpFR2	0	3	CLOUD	328	n/a	n/a	0	0	0
571294	WORD	wordpools/wasnorm_wordpool_576.txt	LTP281	ltpFR2	0	3	SPOOL	1356	n/a	n/a	0	0	0
573973	WORD	wordpools/wasnorm_wordpool_576.txt	LTP281	ltpFR2	0	3	SCARECROW	1245	n/a	n/a	0	0	0
576652	WORD	wordpools/wasnorm_wordpool_576.txt	LTP281	ltpFR2	0	3	IDOL	733	n/a	n/a	0	0	0
579249	WORD	wordpools/wasnorm_wordpool_576.txt	LTP281	ltpFR2	0	3	MAILBOX	857	n/a	n/a	0	0	0
582011	WORD	wordpools/wasnorm_wordpool_576.txt	LTP281	ltpFR2	0	3	SPOUSE	1358	n/a	n/a	0	0	0
584474	WORD	wordpools/wasnorm_wordpool_576.txt	LTP281	ltpFR2	0	3	HERO	706	n/a	n/a	0	0	0
587270	WORD	wordpools/wasnorm_wordpool_576.txt	LTP281	ltpFR2	0	3	MARKET	871	n/a	n/a	0	0	0
589916	WORD	wordpools/wasnorm_wordpool_576.txt	LTP281	ltpFR2	0	3	PICNIC	1060	n/a	n/a	0	0	0
592596	WORD	wordpools/wasnorm_wordpool_576.txt	LTP281	ltpFR2	0	3	WASHER	1592	n/a	n/a	0	0	0
594210	START	n/a	LTP281	ltpFR2	0	n/a	n/a	n/a	4	n/a	n/a	n/a	n/a
595049	DISTRACTOR	n/a	LTP281	ltpFR2	0	3	n/a	n/a	n/a	n/a	0	0	0
595059	PROB	n/a	LTP281	ltpFR2	0	n/a	n/a	n/a	4	15	4	5	6
598404	PROB	n/a	LTP281	ltpFR2	0	n/a	n/a	n/a	4	18	2	7	9
600484	PROB	n/a	LTP281	ltpFR2	0	n/a	n/a	n/a	4	24	9	8	6
605443	PROB	n/a	LTP281	ltpFR2	0	n/a	n/a	n/a	4	10	5	2	3
608206	PROB	n/a	LTP281	ltpFR2	0	n/a	n/a	n/a	4	9	5	2	2
610286	PROB	n/a	LTP281	ltpFR2	0	n/a	n/a	n/a	4	16	6	1	9
612150	PROB	n/a	LTP281	ltpFR2	0	n/a	n/a	n/a	4	13	8	3	2
613747	PROB	n/a	LTP281	ltpFR2	0	n/a	n/a	n/a	4	14	5	6	3
616739	STOP	n/a	LTP281	ltpFR2	0	n/a	n/a	n/a	4	n/a	n/a	n/a	n/a
620139	REC_START	n/a	LTP281	ltpFR2	0	3	n/a	n/a	n/a	n/a	0	0	0
621409	REC_WORD	wordpools/wasnorm_wordpool_576.txt	LTP281	ltpFR2	0	3	XEROX	1628	n/a	n/a	0	0	0
622409	REC_WORD_VV	wordpools/wasnorm_wordpool_576.txt	LTP281	ltpFR2	0	3	<>	-1	n/a	n/a	0	0	0
628880	REC_WORD	wordpools/wasnorm_wordpool_576.txt	LTP281	ltpFR2	0	3	PERFUME	1049	n/a	n/a	0	0	0
633165	REC_WORD	wordpools/wasnorm_wordpool_576.txt	LTP281	ltpFR2	0	3	TROMBONE	1508	n/a	n/a	0	0	0
710821	WORD	wordpools/wasnorm_wordpool_576.txt	LTP281	ltpFR2	0	4	DENIM	446	n/a	n/a	0	0	0
713302	WORD	wordpools/wasnorm_wordpool_576.txt	LTP281	ltpFR2	0	4	CONCERT	360	n/a	n/a	0	0	0
715730	WORD	wordpools/wasnorm_wordpool_576.txt	LTP281	ltpFR2	0	4	DRESSER	496	n/a	n/a	0	0	0
718278	WORD	wordpools/wasnorm_wordpool_576.txt	LTP281	ltpFR2	0	4	CHEST	295	n/a	n/a	0	0	0
721024	WORD	wordpools/wasnorm_wordpool_576.txt	LTP281	ltpFR2	0	4	COMET	353	n/a	n/a	0	0	0
723819	WORD	wordpools/wasnorm_wordpool_576.txt	LTP281	ltpFR2	0	4	PLAID	1080	n/a	n/a	0	0	0
726516	WORD	wordpools/wasnorm_wordpool_576.txt	LTP281	ltpFR2	0	4	ELBOW	520	n/a	n/a	0	0	0
729012	WORD	wordpools/wasnorm_wordpool_576.txt	LTP281	ltpFR2	0	4	SEAL	1262	n/a	n/a	0	0	0
731757	WORD	wordpools/wasnorm_wordpool_576.txt	LTP281	ltpFR2	0	4	CARROT	249	n/a	n/a	0	0	0
734221	WORD	wordpools/wasnorm_wordpool_576.txt	LTP281	ltpFR2	0	4	RABBIT	1152	n/a	n/a	0	0	0
736700	WORD	wordpools/wasnorm_wordpool_576.txt	LTP281	ltpFR2	0	4	NURSE	963	n/a	n/a	0	0	0
739397	WORD	wordpools/wasnorm_wordpool_576.txt	LTP281	ltpFR2	0	4	PICTURE	1061	n/a	n/a	0	0	0
741943	WORD	wordpools/wasnorm_wordpool_576.txt	LTP281	ltpFR2	0	4	SPACE	1345	n/a	n/a	0	0	0
744606	WORD	wordpools/wasnorm_wordpool_576.txt	LTP281	ltpFR2	0	4	BUBBLE	183	n/a	n/a	0	0	0
747185	WORD	wordpools/wasnorm_wordpool_576.txt	LTP281	ltpFR2	0	4	BABY	64	n/a	n/a	0	0	0
749931	WORD	wordpools/wasnorm_wordpool_576.txt	LTP281	ltpFR2	0	4	PADDING	999	n/a	n/a	0	0	0
752577	WORD	wordpools/wasnorm_wordpool_576.txt	LTP281	ltpFR2	0	4	MUFFIN	929	n/a	n/a	0	0	0
755040	WORD	wordpools/wasnorm_wordpool_576.txt	LTP281	ltpFR2	0	4	SCARF	1246	n/a	n/a	0	0	0
757503	WORD	wordpools/wasnorm_wordpool_576.txt	LTP281	ltpFR2	0	4	CASHEW	253	n/a	n/a	0	0	0
760299	WORD	wordpools/wasnorm_wordpool_576.txt	LTP281	ltpFR2	0	4	BUNNY	198	n/a	n/a	0	0	0
762811	WORD	wordpools/wasnorm_wordpool_576.txt	LTP281	ltpFR2	0	4	LIPSTICK	829	n/a	n/a	0	0	0
765575	WORD	wordpools/wasnorm_wordpool_576.txt	LTP281	ltpFR2	0	4	FOREHEAD	592	n/a	n/a	0	0	0
768138	WORD	wordpools/wasnorm_wordpool_576.txt	LTP281	ltpFR2	0	4	LAMP	798	n/a	n/a	0	0	0
770700	WORD	wordpools/wasnorm_wordpool_576.txt	LTP281	ltpFR2	0	4	BROOK	177	n/a	n/a	0	0	0
772315	START	n/a	LTP281	ltpFR2	0	n/a	n/a	n/a	5	n/a	n/a	n/a	n/a
773293	DISTRACTOR	n/a	LTP281	ltpFR2	0	4	n/a	n/a	n/a	n/a	0	0	0
773297	PROB	n/a	LTP281	ltpFR2	0	n/a	n/a	n/a	5	9	1	7	1
775161	PROB	n/a	LTP281	ltpFR2	0	n/a	n/a	n/a	5	13	5	4	4
777739	PROB	n/a	LTP281	ltpFR2	0	n/a	n/a	n/a	5	10	1	2	7
779288	PROB	n/a	LTP281	ltpFR2	0	n/a	n/a	n/a	5	8	1	4	3
782134	PROB	n/a	LTP281	ltpFR2	0	n/a	n/a	n/a	5	18	8	2	8
784214	PROB	n/a	LTP281	ltpFR2	0	n/a	n/a	n/a	5	10	2	1	7
785962	PROB	n/a	LTP281	ltpFR2	0	n/a	n/a	n/a	5	14	2	3	9
788558	PROB	n/a	LTP281	ltpFR2	0	n/a	n/a	n/a	5	17	8	4	5
790737	PROB	n/a	LTP281	ltpFR2	0	n/a	n/a	n/a	5	8	4	1	3
792618	PROB	n/a	LTP281	ltpFR2	0	n/a	n/a	n/a	5	14	6	4	6
796315	STOP	n/a	LTP281	ltpFR2	0	n/a	n/a	n/a	5	n/a	n/a	n/a	n/a
798078	REC_START	n/a	LTP281	ltpFR2	0	4	n/a	n/a	n/a	n/a	0	0	0
799125	REC_WORD	wordpools/wasnorm_wordpool_576.txt	LTP281	ltpFR2	0	4	LAMP	798	n/a	n/a	0	0	0
800496	REC_WORD	wordpools/wasnorm_wordpool_576.txt	LTP281	ltpFR2	0	4	BABY	64	n/a	n/a	0	0	0
801759	REC_WORD	wordpools/wasnorm_wordpool_576.txt	LTP281	ltpFR2	0	4	SCARF	1246	n/a	n/a	0	0	0
803263	REC_WORD	wordpools/wasnorm_wordpool_576.txt	LTP281	ltpFR2	0	4	PLAID	1080	n/a	n/a	0	0	0
814795	REC_WORD	wordpools/wasnorm_wordpool_576.txt	LTP281	ltpFR2	0	4	NURSE	963	n/a	n/a	0	0	0
848670	REC_WORD	wordpools/wasnorm_wordpool_576.txt	LTP281	ltpFR2	0	4	DRESSER	496	n/a	n/a	0	0	0
888776	WORD	wordpools/wasnorm_wordpool_576.txt	LTP281	ltpFR2	0	5	LILY	821	n/a	n/a	0	0	0
891490	WORD	wordpools/wasnorm_wordpool_576.txt	LTP281	ltpFR2	0	5	PRINCESS	1125	n/a	n/a	0	0	0
894119	WORD	wordpools/wasnorm_wordpool_576.txt	LTP281	ltpFR2	0	5	HOUND	724	n/a	n/a	0	0	0
896798	WORD	wordpools/wasnorm_wordpool_576.txt	LTP281	ltpFR2	0	5	COCOON	339	n/a	n/a	0	0	0
899511	WORD	wordpools/wasnorm_wordpool_576.txt	LTP281	ltpFR2	0	5	FILM	565	n/a	n/a	0	0	0
902074	WORD	wordpools/wasnorm_wordpool_576.txt	LTP281	ltpFR2	0	5	LION	827	n/a	n/a	0	0	0
904852	WORD	wordpools/wasnorm_wordpool_576.txt	LTP281	ltpFR2	0	5	BANKER	84	n/a	n/a	0	0	0
907383	WORD	wordpools/wasnorm_wordpool_576.txt	LTP281	ltpFR2	0	5	SHOVEL	1295	n/a	n/a	0	0	0
910129	WORD	wordpools/wasnorm_wordpool_576.txt	LTP281	ltpFR2	0	5	TWISTER	1530	n/a	n/a	0	0	0
912658	WORD	wordpools/wasnorm_wordpool_576.txt	LTP281	ltpFR2	0	5	BLENDER	136	n/a	n/a	0	0	0
915305	WORD	wordpools/wasnorm_wordpool_576.txt	LTP281	ltpFR2	0	5	PECAN	1036	n/a	n/a	0	0	0
918001	WORD	wordpools/wasnorm_wordpool_576.txt	LTP281	ltpFR2	0	5	CHEMIST	292	n/a	n/a	0	0	0
920696	WORD	wordpools/wasnorm_wordpool_576.txt	LTP281	ltpFR2	0	5	BULLET	194	n/a	n/a	0	0	0
923293	WORD	wordpools/wasnorm_wordpool_576.txt	LTP281	ltpFR2	0	5	PISTOL	1075	n/a	n/a	0	0	0
925956	WORD	wordpools/wasnorm_wordpool_576.txt	LTP281	ltpFR2	0	5	MEDAL	885	n/a	n/a	0	0	0
928469	WORD	wordpools/wasnorm_wordpool_576.txt	LTP281	ltpFR2	0	5	DIME	466	n/a	n/a	0	0	0
930915	WORD	wordpools/wasnorm_wordpool_576.txt	LTP281	ltpFR2	0	5	LEOPARD	812	n/a	n/a	0	0	0
933693	WORD	wordpools/wasnorm_wordpool_576.txt	LTP281	ltpFR2	0	5	SEAGULL	1261	n/a	n/a	0	0	0
936324	WORD	wordpools/wasnorm_wordpool_576.txt	LTP281	ltpFR2	0	5	PEPPER	1047	n/a	n/a	0	0	0
938970	WORD	wordpools/wasnorm_wordpool_576.txt	LTP281	ltpFR2	0	5	WORKER	1621	n/a	n/a	0	0	0
941781	WORD	wordpools/wasnorm_wordpool_576.txt	LTP281	ltpFR2	0	5	OZONE	996	n/a	n/a	0	0	0
944445	WORD	wordpools/wasnorm_wordpool_576.txt	LTP281	ltpFR2	0	5	HOSTESS	723	n/a	n/a	0	0	0
947158	WORD	wordpools/wasnorm_wordpool_576.txt	LTP281	ltpFR2	0	5	SURVEY	1414	n/a	n/a	0	0	0
949604	WORD	wordpools/wasnorm_wordpool_576.txt	LTP281	ltpFR2	0	5	THRONE	1461	n/a	n/a	0	0	0
951219	START	n/a	LTP281	ltpFR2	0	n/a	n/a	n/a	6	n/a	n/a	n/a	n/a
952293	DISTRACTOR	n/a	LTP281	ltpFR2	0	5	n/a	n/a	n/a	n/a	0	0	0
952300	PROB	n/a	LTP281	ltpFR2	0	n/a	n/a	n/a	6	18	7	5	6
955462	PROB	n/a	LTP281	ltpFR2	0	n/a	n/a	n/a	6	16	1	7	8
957708	PROB	n/a	LTP281	ltpFR2	0	n/a	n/a	n/a	6	15	1	8	6
959755	PROB	n/a	LTP281	ltpFR2	0	n/a	n/a	n/a	6	22	6	9	7
966479	PROB	n/a	LTP281	ltpFR2	0	n/a	n/a	n/a	6	17	9	1	7
968360	PROB	n/a	LTP281	ltpFR2	0	n/a	n/a	n/a	6	17	1	9	7
970407	PROB	n/a	LTP281	ltpFR2	0	n/a	n/a	n/a	6	15	8	3	4
973715	STOP	n/a	LTP281	ltpFR2	0	n/a	n/a	n/a	6	n/a	n/a	n/a	n/a
977081	REC_START	n/a	LTP281	ltpFR2	0	5	n/a	n/a	n/a	n/a	0	0	0
978316	REC_WORD	wordpools/wasnorm_wordpool_576.txt	LTP281	ltpFR2	0	5	HOSTESS	723	n/a	n/a	0	0	0
979591	REC_WORD	wordpools/wasnorm_wordpool_576.txt	LTP281	ltpFR2	0	5	WORKER	1621	n/a	n/a	0	0	0
980703	REC_WORD	wordpools/wasnorm_wordpool_576.txt	LTP281	ltpFR2	0	5	OZONE	996	n/a	n/a	0	0	0
981761	REC_WORD	wordpools/wasnorm_wordpool_576.txt	LTP281	ltpFR2	0	5	PISTOL	1075	n/a	n/a	0	0	0
984200	REC_WORD	wordpools/wasnorm_wordpool_576.txt	LTP281	ltpFR2	0	5	BULLET	194	n/a	n/a	0	0	0
989608	REC_WORD	wordpools/wasnorm_wordpool_576.txt	LTP281	ltpFR2	0	5	BLENDER	136	n/a	n/a	0	0	0
990940	REC_WORD	wordpools/wasnorm_wordpool_576.txt	LTP281	ltpFR2	0	5	PECAN	1036	n/a	n/a	0	0	0
1000049	REC_WORD	wordpools/wasnorm_wordpool_576.txt	LTP281	ltpFR2	0	5	SEAGULL	1261	n/a	n/a	0	0	0
1067730	WORD	wordpools/wasnorm_wordpool_576.txt	LTP281	ltpFR2	0	6	PLIERS	1089	n/a	n/a	0	0	0
1070310	WORD	wordpools/wasnorm_wordpool_576.txt	LTP281	ltpFR2	0	6	BEEF	113	n/a	n/a	0	0	0
1072805	WORD	wordpools/wasnorm_wordpool_576.txt	LTP281	ltpFR2	0	6	NOMAD	955	n/a	n/a	0	0	0
1075536	WORD	wordpools/wasnorm_wordpool_576.txt	LTP281	ltpFR2	0	6	BUGGY	188	n/a	n/a	0	0	0
1078032	WORD	wordpools/wasnorm_wordpool_576.txt	LTP281	ltpFR2	0	6	VAGRANT	1544	n/a	n/a	0	0	0
1080495	WORD	wordpools/wasnorm_wordpool_576.txt	LTP281	ltpFR2	0	6	LASER	801	n/a	n/a	0	0	0
1082958	WORD	wordpools/wasnorm_wordpool_576.txt	LTP281	ltpFR2	0	6	CLIMBER	323	n/a	n/a	0	0	0
1085488	WORD	wordpools/wasnorm_wordpool_576.txt	LTP281	ltpFR2	0	6	CABIN	211	n/a	n/a	0	0	0
1088034	WORD	wordpools/wasnorm_wordpool_576.txt	LTP281	ltpFR2	0	6	GREASE	660	n/a	n/a	0	0	0
1090597	WORD	wordpools/wasnorm_wordpool_576.txt	LTP281	ltpFR2	0	6	BANK	83	n/a	n/a	0	0	0
1093193	WORD	wordpools/wasnorm_wordpool_576.txt	LTP281	ltpFR2	0	6	CLOCK	325	n/a	n/a	0	0	0
1095722	WORD	wordpools/wasnorm_wordpool_576.txt	LTP281	ltpFR2	0	6	QUARTER	1148	n/a	n/a	0	0	0
1098169	WORD	wordpools/wasnorm_wordpool_576.txt	LTP281	ltpFR2	0	6	ATOM	55	n/a	n/a	0	0	0
1100698	WORD	wordpools/wasnorm_wordpool_576.txt	LTP281	ltpFR2	0	6	PROTON	1132	n/a	n/a	0	0	0
1103362	WORD	wordpools/wasnorm_wordpool_576.txt	LTP281	ltpFR2	0	6	FINGER	567	n/a	n/a	0	0	0
1105891	WORD	wordpools/wasnorm_wordpool_576.txt	LTP281	ltpFR2	0	6	MARINE	869	n/a	n/a	0	0	0
1108587	WORD	wordpools/wasnorm_wordpool_576.txt	LTP281	ltpFR2	0	6	PADDLE	1000	n/a	n/a	0	0	0
1111383	WORD	wordpools/wasnorm_wordpool_576.txt	LTP281	ltpFR2	0	6	DONKEY	484	n/a	n/a	0	0	0
1113878	WORD	wordpools/wasnorm_wordpool_576.txt	LTP281	ltpFR2	0	6	WORLD	1622	n/a	n/a	0	0	0
1116624	WORD	wordpools/wasnorm_wordpool_576.txt	LTP281	ltpFR2	0	6	SWITCH	1422	n/a	n/a	0	0	0
1119055	WORD	wordpools/wasnorm_wordpool_576.txt	LTP281	ltpFR2	0	6	CRAB	397	n/a	n/a	0	0	0
1121518	WORD	wordpools/wasnorm_wordpool_576.txt	LTP281	ltpFR2	0	6	FLIPPER	580	n/a	n/a	0	0	0
1124064	WORD	wordpools/wasnorm_wordpool_576.txt	LTP281	ltpFR2	0	6	HAND	683	n/a	n/a	0	0	0
1126726	WORD	wordpools/wasnorm_wordpool_576.txt	LTP281	ltpFR2	0	6	POLICE	1098	n/a	n/a	0	0	0
1128342	START	n/a	LTP281	ltpFR2	0	n/a	n/a	n/a	7	n/a	n/a	n/a	n/a
1129319	DISTRACTOR	n/a	LTP281	ltpFR2	0	6	n/a	n/a	n/a	n/a	0	0	0
1129323	PROB	n/a	LTP281	ltpFR2	0	n/a	n/a	n/a	7	10	2	3	5
1132419	PROB	n/a	LTP281	ltpFR2	0	n/a	n/a	n/a	7	5	1	1	3
1133900	PROB	n/a	LTP281	ltpFR2	0	n/a	n/a	n/a	7	11	2	6	3
1136579	PROB	n/a	LTP281	ltpFR2	0	n/a	n/a	n/a	7	12	5	6	1
1138610	PROB	n/a	LTP281	ltpFR2	0	n/a	n/a	n/a	7	9	1	7	1
1140157	PROB	n/a	LTP281	ltpFR2	0	n/a	n/a	n/a	7	21	7	9	7
1143784	PROB	n/a	LTP281	ltpFR2	0	n/a	n/a	n/a	7	16	9	5	2
1146531	PROB	n/a	LTP281	ltpFR2	0	n/a	n/a	n/a	7	11	2	6	3
1148627	PROB	n/a	LTP281	ltpFR2	0	n/a	n/a	n/a	7	10	3	6	1
1152342	STOP	n/a	LTP281	ltpFR2	0	n/a	n/a	n/a	7	n/a	n/a	n/a	n/a
1154121	REC_START	n/a	LTP281	ltpFR2	0	6	n/a	n/a	n/a	n/a	0	0	0
1155509	REC_WORD	wordpools/wasnorm_wordpool_576.txt	LTP281	ltpFR2	0	6	BEEF	113	n/a	n/a	0	0	0
1157063	REC_WORD	wordpools/wasnorm_wordpool_576.txt	LTP281	ltpFR2	0	6	PLIERS	1089	n/a	n/a	0	0	0
1158734	REC_WORD	wordpools/wasnorm_wordpool_576.txt	LTP281	ltpFR2	0	6	NOMAD	955	n/a	n/a	0	0	0
1160592	REC_WORD	wordpools/wasnorm_wordpool_576.txt	LTP281	ltpFR2	0	6	BUGGY	188	n/a	n/a	0	0	0
1162286	REC_WORD	wordpools/wasnorm_wordpool_576.txt	LTP281	ltpFR2	0	6	VAGRANT	1544	n/a	n/a	0	0	0
1163921	REC_WORD	wordpools/wasnorm_wordpool_576.txt	LTP281	ltpFR2	0	6	CLIMBER	323	n/a	n/a	0	0	0
1166819	REC_WORD	wordpools/wasnorm_wordpool_576.txt	LTP281	ltpFR2	0	6	CABIN	211	n/a	n/a	0	0	0
1168910	REC_WORD	wordpools/wasnorm_wordpool_576.txt	LTP281	ltpFR2	0	6	ATOM	55	n/a	n/a	0	0	0
1170610	REC_WORD	wordpools/wasnorm_wordpool_576.txt	LTP281	ltpFR2	0	6	PROTON	1132	n/a	n/a	0	0	0
1178215	REC_WORD	wordpools/wasnorm_wordpool_576.txt	LTP281	ltpFR2	0	6	GREASE	660	n/a	n/a	0	0	0
1179866	REC_WORD	wordpools/wasnorm_wordpool_576.txt	LTP281	ltpFR2	0	6	BANKER	84	n/a	n/a	0	0	0
1196289	REC_WORD	wordpools/wasnorm_wordpool_576.txt	LTP281	ltpFR2	0	6	LASER	801	n/a	n/a	0	0	0
1244803	DISTRACTOR	n/a	LTP281	ltpFR2	0	7	n/a	n/a	n/a	n/a	0	0	0
1244803	START	n/a	LTP281	ltpFR2	0	n/a	n/a	n/a	8	n/a	n/a	n/a	n/a
1244836	PROB	n/a	LTP281	ltpFR2	0	n/a	n/a	n/a	8	22	5	8	9
1248548	PROB	n/a	LTP281	ltpFR2	0	n/a	n/a	n/a	8	10	6	3	1
1251044	PROB	n/a	LTP281	ltpFR2	0	n/a	n/a	n/a	8	11	9	1	1
1252758	PROB	n/a	LTP281	ltpFR2	0	n/a	n/a	n/a	8	19	9	3	7
1256004	PROB	n/a	LTP281	ltpFR2	0	n/a	n/a	n/a	8	15	8	4	3
1259515	PROB	n/a	LTP281	ltpFR2	0	n/a	n/a	n/a	8	18	9	4	5
1261945	PROB	n/a	LTP281	ltpFR2	0	n/a	n/a	n/a	8	18	6	4	4
1267427	STOP	n/a	LTP281	ltpFR2	0	n/a	n/a	n/a	8	n/a	n/a	n/a	n/a
1269967	WORD	wordpools/wasnorm_wordpool_576.txt	LTP281	ltpFR2	0	7	HUMAN	726	n/a	n/a	0	0	0
1272413	WORD	wordpools/wasnorm_wordpool_576.txt	LTP281	ltpFR2	0	7	SERVER	1272	n/a	n/a	0	0	0
1275009	WORD	wordpools/wasnorm_wordpool_576.txt	LTP281	ltpFR2	0	7	SERVANT	1271	n/a	n/a	0	0	0
1277654	WORD	wordpools/wasnorm_wordpool_576.txt	LTP281	ltpFR2	0	7	PERCH	1048	n/a	n/a	0	0	0
1280468	WORD	wordpools/wasnorm_wordpool_576.txt	LTP281	ltpFR2	0	7	SPONGE	1355	n/a	n/a	0	0	0
1283197	WORD	wordpools/wasnorm_wordpool_576.txt	LTP281	ltpFR2	0	7	SWAMP	1416	n/a	n/a	0	0	0
1285926	WORD	wordpools/wasnorm_wordpool_576.txt	LTP281	ltpFR2	0	7	BOYFRIEND	162	n/a	n/a	0	0	0
1288688	WORD	wordpools/wasnorm_wordpool_576.txt	LTP281	ltpFR2	0	7	LETTUCE	814	n/a	n/a	0	0	0
1291468	WORD	wordpools/wasnorm_wordpool_576.txt	LTP281	ltpFR2	0	7	GROUND	666	n/a	n/a	0	0	0
1293931	WORD	wordpools/wasnorm_wordpool_576.txt	LTP281	ltpFR2	0	7	FRIEND	606	n/a	n/a	0	0	0
1296710	WORD	wordpools/wasnorm_wordpool_576.txt	LTP281	ltpFR2	0	7	PANTHER	1009	n/a	n/a	0	0	0
1299357	WORD	wordpools/wasnorm_wordpool_576.txt	LTP281	ltpFR2	0	7	CLAM	315	n/a	n/a	0	0	0
1302169	WORD	wordpools/wasnorm_wordpool_576.txt	LTP281	ltpFR2	0	7	STOVE	1388	n/a	n/a	0	0	0
1304814	WORD	wordpools/wasnorm_wordpool_576.txt	LTP281	ltpFR2	0	7	SOFTBALL	1343	n/a	n/a	0	0	0
1307362	WORD	wordpools/wasnorm_wordpool_576.txt	LTP281	ltpFR2	0	7	WAITRESS	1581	n/a	n/a	0	0	0
1309790	WORD	wordpools/wasnorm_wordpool_576.txt	LTP281	ltpFR2	0	7	BACKBONE	66	n/a	n/a	0	0	0
1312437	WORD	wordpools/wasnorm_wordpool_576.txt	LTP281	ltpFR2	0	7	CRICKET	408	n/a	n/a	0	0	0
1315183	WORD	wordpools/wasnorm_wordpool_576.txt	LTP281	ltpFR2	0	7	BINDER	127	n/a	n/a	0	0	0
1317963	WORD	wordpools/wasnorm_wordpool_576.txt	LTP281	ltpFR2	0	7	JOURNAL	760	n/a	n/a	0	0	0
1320476	WORD	wordpools/wasnorm_wordpool_576.txt	LTP281	ltpFR2	0	7	PUPIL	1143	n/a	n/a	0	0	0
1323272	WORD	wordpools/wasnorm_wordpool_576.txt	LTP281	ltpFR2	0	7	STALLION	1369	n/a	n/a	0	0	0
1325901	WORD	wordpools/wasnorm_wordpool_576.txt	LTP281	ltpFR2	0	7	OX	994	n/a	n/a	0	0	0
1328331	WORD	wordpools/wasnorm_wordpool_576.txt	LTP281	ltpFR2	0	7	ICING	732	n/a	n/a	0	0	0
1331060	WORD	wordpools/wasnorm_wordpool_576.txt	LTP281	ltpFR2	0	7	SCRIBBLE	1256	n/a	n/a	0	0	0
1332674	START	n/a	LTP281	ltpFR2	0	n/a	n/a	n/a	9	n/a	n/a	n/a	n/a
1333643	DISTRACTOR	n/a	LTP281	ltpFR2	0	7	n/a	n/a	n/a	n/a	0	0	0
1333655	PROB	n/a	LTP281	ltpFR2	0	n/a	n/a	n/a	9	14	3	2	9
1336269	PROB	n/a	LTP281	ltpFR2	0	n/a	n/a	n/a	9	8	1	6	1
1337683	PROB	n/a	LTP281	ltpFR2	0	n/a	n/a	n/a	9	13	8	1	4
1339646	PROB	n/a	LTP281	ltpFR2	0	n/a	n/a	n/a	9	9	3	4	2
1343042	PROB	n/a	LTP281	ltpFR2	0	n/a	n/a	n/a	9	20	4	9	7
1345489	PROB	n/a	LTP281	ltpFR2	0	n/a	n/a	n/a	9	16	1	9	6
1347037	PROB	n/a	LTP281	ltpFR2	0	n/a	n/a	n/a	9	11	6	2	3
1350482	PROB	n/a	LTP281	ltpFR2	0	n/a	n/a	n/a	9	23	9	5	9
1356673	STOP	n/a	LTP281	ltpFR2	0	n/a	n/a	n/a	9	n/a	n/a	n/a	n/a
1358587	REC_START	n/a	LTP281	ltpFR2	0	7	n/a	n/a	n/a	n/a	0	0	0
1359990	REC_WORD	wordpools/wasnorm_wordpool_576.txt	LTP281	ltpFR2	0	7	BACKBONE	66	n/a	n/a	0	0	0
1361459	REC_WORD	wordpools/wasnorm_wordpool_576.txt	LTP281	ltpFR2	0	7	CRICKET	408	n/a	n/a	0	0	0
1362752	REC_WORD	wordpools/wasnorm_wordpool_576.txt	LTP281	ltpFR2	0	7	FRIEND	606	n/a	n/a	0	0	0
1364342	REC_WORD	wordpools/wasnorm_wordpool_576.txt	LTP281	ltpFR2	0	7	SERVER	1272	n/a	n/a	0	0	0
1365794	REC_WORD	wordpools/wasnorm_wordpool_576.txt	LTP281	ltpFR2	0	7	SERVANT	1271	n/a	n/a	0	0	0
1367397	REC_WORD	wordpools/wasnorm_wordpool_576.txt	LTP281	ltpFR2	0	7	WAITRESS	1581	n/a	n/a	0	0	0
1368943	REC_WORD	wordpools/wasnorm_wordpool_576.txt	LTP281	ltpFR2	0	7	PERCH	1048	n/a	n/a	0	0	0
1370390	REC_WORD	wordpools/wasnorm_wordpool_576.txt	LTP281	ltpFR2	0	7	BOYFRIEND	162	n/a	n/a	0	0	0
1375312	REC_WORD	wordpools/wasnorm_wordpool_576.txt	LTP281	ltpFR2	0	7	HUMAN	726	n/a	n/a	0	0	0
1385214	REC_WORD	wordpools/wasnorm_wordpool_576.txt	LTP281	ltpFR2	0	7	SPONGE	1355	n/a	n/a	0	0	0
1386829	REC_WORD	wordpools/wasnorm_wordpool_576.txt	LTP281	ltpFR2	0	7	CLAM	315	n/a	n/a	0	0	0
1389366	REC_WORD	wordpools/wasnorm_wordpool_576.txt	LTP281	ltpFR2	0	7	STOVE	1388	n/a	n/a	0	0	0
1393451	REC_WORD	wordpools/wasnorm_wordpool_576.txt	LTP281	ltpFR2	0	7	JOURNAL	760	n/a	n/a	0	0	0
1394926	REC_WORD	wordpools/wasnorm_wordpool_576.txt	LTP281	ltpFR2	0	7	BINDER	127	n/a	n/a	0	0	0
1396406	REC_WORD	wordpools/wasnorm_wordpool_576.txt	LTP281	ltpFR2	0	7	PUPIL	1143	n/a	n/a	0	0	0
1402175	REC_WORD	wordpools/wasnorm_wordpool_576.txt	LTP281	ltpFR2	0	7	OX	994	n/a	n/a	0	0	0
1449236	DISTRACTOR	n/a	LTP281	ltpFR2	0	8	n/a	n/a	n/a	n/a	0	0	0
1449236	START	n/a	LTP281	ltpFR2	0	n/a	n/a	n/a	10	n/a	n/a	n/a	n/a
1449270	PROB	n/a	LTP281	ltpFR2	0	n/a	n/a	n/a	10	19	4	8	7
1452016	PROB	n/a	LTP281	ltpFR2	0	n/a	n/a	n/a	10	14	6	3	5
1454978	PROB	n/a	LTP281	ltpFR2	0	n/a	n/a	n/a	10	21	5	9	7
1459172	PROB	n/a	LTP281	ltpFR2	0	n/a	n/a	n/a	10	17	8	3	6
1461518	PROB	n/a	LTP281	ltpFR2	0	n/a	n/a	n/a	10	8	1	3	4
1462983	PROB	n/a	LTP281	ltpFR2	0	n/a	n/a	n/a	10	11	2	4	5
1465229	PROB	n/a	LTP281	ltpFR2	0	n/a	n/a	n/a	10	12	2	9	1
1466943	PROB	n/a	LTP281	ltpFR2	0	n/a	n/a	n/a	10	13	5	1	7
1469290	PROB	n/a	LTP281	ltpFR2	0	n/a	n/a	n/a	10	7	2	4	1
1473236	STOP	n/a	LTP281	ltpFR2	0	n/a	n/a	n/a	10	n/a	n/a	n/a	n/a
1474200	WORD	wordpools/wasnorm_wordpool_576.txt	LTP281	ltpFR2	0	8	CAFE	216	n/a	n/a	0	0	0
1476711	WORD	wordpools/wasnorm_wordpool_576.txt	LTP281	ltpFR2	0	8	FLOWER	584	n/a	n/a	0	0	0
1479508	WORD	wordpools/wasnorm_wordpool_576.txt	LTP281	ltpFR2	0	8	REPORT	1184	n/a	n/a	0	0	0
1482055	WORD	wordpools/wasnorm_wordpool_576.txt	LTP281	ltpFR2	0	8	CAPTIVE	240	n/a	n/a	0	0	0
1484849	WORD	wordpools/wasnorm_wordpool_576.txt	LTP281	ltpFR2	0	8	VIRUS	1572	n/a	n/a	0	0	0
1487397	WORD	wordpools/wasnorm_wordpool_576.txt	LTP281	ltpFR2	0	8	PALACE	1006	n/a	n/a	0	0	0
1489826	WORD	wordpools/wasnorm_wordpool_576.txt	LTP281	ltpFR2	0	8	SIDEWALK	1303	n/a	n/a	0	0	0
1492556	WORD	wordpools/wasnorm_wordpool_576.txt	LTP281	ltpFR2	0	8	GRAVEL	659	n/a	n/a	0	0	0
1495169	WORD	wordpools/wasnorm_wordpool_576.txt	LTP281	ltpFR2	0	8	COUNTY	389	n/a	n/a	0	0	0
1497948	WORD	wordpools/wasnorm_wordpool_576.txt	LTP281	ltpFR2	0	8	TERMITE	1451	n/a	n/a	0	0	0
1500394	WORD	wordpools/wasnorm_wordpool_576.txt	LTP281	ltpFR2	0	8	COMPASS	358	n/a	n/a	0	0	0
1502924	WORD	wordpools/wasnorm_wordpool_576.txt	LTP281	ltpFR2	0	8	BEAKER	104	n/a	n/a	0	0	0
1505503	WORD	wordpools/wasnorm_wordpool_576.txt	LTP281	ltpFR2	0	8	FLASK	576	n/a	n/a	0	0	0
1508266	WORD	wordpools/wasnorm_wordpool_576.txt	LTP281	ltpFR2	0	8	KEEPER	769	n/a	n/a	0	0	0
1511012	WORD	wordpools/wasnorm_wordpool_576.txt	LTP281	ltpFR2	0	8	CANAL	226	n/a	n/a	0	0	0
1513724	WORD	wordpools/wasnorm_wordpool_576.txt	LTP281	ltpFR2	0	8	DRAGON	492	n/a	n/a	0	0	0
1516238	WORD	wordpools/wasnorm_wordpool_576.txt	LTP281	ltpFR2	0	8	BATHTUB	100	n/a	n/a	0	0	0
1518849	WORD	wordpools/wasnorm_wordpool_576.txt	LTP281	ltpFR2	0	8	BANQUET	86	n/a	n/a	0	0	0
1521447	WORD	wordpools/wasnorm_wordpool_576.txt	LTP281	ltpFR2	0	8	STUDENT	1395	n/a	n/a	0	0	0
1524276	WORD	wordpools/wasnorm_wordpool_576.txt	LTP281	ltpFR2	0	8	AGENT	10	n/a	n/a	0	0	0
1527055	WORD	wordpools/wasnorm_wordpool_576.txt	LTP281	ltpFR2	0	8	PRINCE	1124	n/a	n/a	0	0	0
1529850	WORD	wordpools/wasnorm_wordpool_576.txt	LTP281	ltpFR2	0	8	EAGLE	512	n/a	n/a	0	0	0
1532480	WORD	wordpools/wasnorm_wordpool_576.txt	LTP281	ltpFR2	0	8	VELVET	1555	n/a	n/a	0	0	0
1535093	WORD	wordpools/wasnorm_wordpool_576.txt	LTP281	ltpFR2	0	8	LOFT	840	n/a	n/a	0	0	0
1536707	START	n/a	LTP281	ltpFR2	0	n/a	n/a	n/a	11	n/a	n/a	n/a	n/a
1537764	DISTRACTOR	n/a	LTP281	ltpFR2	0	8	n/a	n/a	n/a	n/a	0	0	0
1537772	PROB	n/a	LTP281	ltpFR2	0	n/a	n/a	n/a	11	12	1	5	6
1539735	PROB	n/a	LTP281	ltpFR2	0	n/a	n/a	n/a	11	19	3	9	8
1542066	PROB	n/a	LTP281	ltpFR2	0	n/a	n/a	n/a	11	15	7	3	5
1543498	PROB	n/a	LTP281	ltpFR2	0	n/a	n/a	n/a	11	17	7	9	1
1545029	PROB	n/a	LTP281	ltpFR2	0	n/a	n/a	n/a	11	21	6	6	9
1548407	PROB	n/a	LTP281	ltpFR2	0	n/a	n/a	n/a	11	6	2	3	1
1550620	PROB	n/a	LTP281	ltpFR2	0	n/a	n/a	n/a	11	7	5	1	1
1552002	PROB	n/a	LTP281	ltpFR2	0	n/a	n/a	n/a	11	15	8	6	1
1554232	PROB	n/a	LTP281	ltpFR2	0	n/a	n/a	n/a	11	18	2	6	6
1555645	PROB	n/a	LTP281	ltpFR2	0	n/a	n/a	n/a	11	8	4	3	1
1557161	PROB	n/a	LTP281	ltpFR2	0	n/a	n/a	n/a	11	15	3	3	9
1559625	STOP	n/a	LTP281	ltpFR2	0	n/a	n/a	n/a	11	n/a	n/a	n/a	n/a
1562537	REC_START	n/a	LTP281	ltpFR2	0	8	n/a	n/a	n/a	n/a	0	0	0
1563569	REC_WORD	wordpools/wasnorm_wordpool_576.txt	LTP281	ltpFR2	0	8	VELVET	1555	n/a	n/a	0	0	0
1564952	REC_WORD	wordpools/wasnorm_wordpool_576.txt	LTP281	ltpFR2	0	8	PRINCE	1124	n/a	n/a	0	0	0
1566223	REC_WORD	wordpools/wasnorm_wordpool_576.txt	LTP281	ltpFR2	0	8	CASTLE	256	n/a	n/a	0	0	0
1567591	REC_WORD	wordpools/wasnorm_wordpool_576.txt	LTP281	ltpFR2	0	8	VIRUS	1572	n/a	n/a	0	0	0
1570483	REC_WORD	wordpools/wasnorm_wordpool_576.txt	LTP281	ltpFR2	0	8	DRAGON	492	n/a	n/a	0	0	0
1572108	REC_WORD	wordpools/wasnorm_wordpool_576.txt	LTP281	ltpFR2	0	8	BATHTUB	100	n/a	n/a	0	0	0
1575442	REC_WORD	wordpools/wasnorm_wordpool_576.txt	LTP281	ltpFR2	0	8	COMPASS	358	n/a	n/a	0	0	0
1577043	REC_WORD	wordpools/wasnorm_wordpool_576.txt	LTP281	ltpFR2	0	8	KEEPER	769	n/a	n/a	0	0	0
1578997	REC_WORD	wordpools/wasnorm_wordpool_576.txt	LTP281	ltpFR2	0	8	BEAKER	104	n/a	n/a	0	0	0
1580228	REC_WORD	wordpools/wasnorm_wordpool_576.txt	LTP281	ltpFR2	0	8	FLASK	576	n/a	n/a	0	0	0
1639140	REST_REWET	n/a	LTP281	ltpFR2	0	8	n/a	n/a	n/a	n/a	0	0	0
1942494	DISTRACTOR	n/a	LTP281	ltpFR2	0	9	n/a	n/a	n/a	n/a	0	0	0
1942494	START	n/a	LTP281	ltpFR2	0	n/a	n/a	n/a	12	n/a	n/a	n/a	n/a
1942527	PROB	n/a	LTP281	ltpFR2	0	n/a	n/a	n/a	12	12	2	1	9
1945356	PROB	n/a	LTP281	ltpFR2	0	n/a	n/a	n/a	12	16	1	8	7
1947137	PROB	n/a	LTP281	ltpFR2	0	n/a	n/a	n/a	12	9	2	4	3
1949933	PROB	n/a	LTP281	ltpFR2	0	n/a	n/a	n/a	12	19	7	9	3
1951997	PROB	n/a	LTP281	ltpFR2	0	n/a	n/a	n/a	12	20	7	4	9
1954377	PROB	n/a	LTP281	ltpFR2	0	n/a	n/a	n/a	12	23	7	7	9
1958421	PROB	n/a	LTP281	ltpFR2	0	n/a	n/a	n/a	12	16	6	2	8
1959968	PROB	n/a	LTP281	ltpFR2	0	n/a	n/a	n/a	12	21	8	7	6
1962997	PROB	n/a	LTP281	ltpFR2	0	n/a	n/a	n/a	12	13	8	2	3
1966494	STOP	n/a	LTP281	ltpFR2	0	n/a	n/a	n/a	12	n/a	n/a	n/a	n/a
1967491	WORD	wordpools/wasnorm_wordpool_576.txt	LTP281	ltpFR2	0	9	DRESS	495	n/a	n/a	0	0	0
1969970	WORD	wordpools/wasnorm_wordpool_576.txt	LTP281	ltpFR2	0	9	DORM	488	n/a	n/a	0	0	0
1972782	WORD	wordpools/wasnorm_wordpool_576.txt	LTP281	ltpFR2	0	9	MISSILE	900	n/a	n/a	0	0	0
1975545	WORD	wordpools/wasnorm_wordpool_576.txt	LTP281	ltpFR2	0	9	PILOT	1070	n/a	n/a	0	0	0
1978308	WORD	wordpools/wasnorm_wordpool_576.txt	LTP281	ltpFR2	0	9	DAISY	435	n/a	n/a	0	0	0
1981104	WORD	wordpools/wasnorm_wordpool_576.txt	LTP281	ltpFR2	0	9	BLOCKADE	137	n/a	n/a	0	0	0
1983882	WORD	wordpools/wasnorm_wordpool_576.txt	LTP281	ltpFR2	0	9	TABLET	1427	n/a	n/a	0	0	0
1986678	WORD	wordpools/wasnorm_wordpool_576.txt	LTP281	ltpFR2	0	9	COUCH	386	n/a	n/a	0	0	0
1989292	WORD	wordpools/wasnorm_wordpool_576.txt	LTP281	ltpFR2	0	9	ROBBER	1197	n/a	n/a	0	0	0
1991804	WORD	wordpools/wasnorm_wordpool_576.txt	LTP281	ltpFR2	0	9	FIREMAN	569	n/a	n/a	0	0	0
1994551	WORD	wordpools/wasnorm_wordpool_576.txt	LTP281	ltpFR2	0	9	SLIME	1327	n/a	n/a	0	0	0
1997363	WORD	wordpools/wasnorm_wordpool_576.txt	LTP281	ltpFR2	0	9	PARSLEY	1016	n/a	n/a	0	0	0
2000109	WORD	wordpools/wasnorm_wordpool_576.txt	LTP281	ltpFR2	0	9	GUITAR	670	n/a	n/a	0	0	0
2002922	WORD	wordpools/wasnorm_wordpool_576.txt	LTP281	ltpFR2	0	9	PENGUIN	1044	n/a	n/a	0	0	0
2005368	WORD	wordpools/wasnorm_wordpool_576.txt	LTP281	ltpFR2	0	9	MILK	895	n/a	n/a	0	0	0
2008014	WORD	wordpools/wasnorm_wordpool_576.txt	LTP281	ltpFR2	0	9	LAPEL	800	n/a	n/a	0	0	0
2010611	WORD	wordpools/wasnorm_wordpool_576.txt	LTP281	ltpFR2	0	9	DANDRUFF	439	n/a	n/a	0	0	0
2013207	WORD	wordpools/wasnorm_wordpool_576.txt	LTP281	ltpFR2	0	9	WIFE	1609	n/a	n/a	0	0	0
2015919	WORD	wordpools/wasnorm_wordpool_576.txt	LTP281	ltpFR2	0	9	BOUQUET	157	n/a	n/a	0	0	0
2018714	WORD	wordpools/wasnorm_wordpool_576.txt	LTP281	ltpFR2	0	9	SPARROW	1347	n/a	n/a	0	0	0
2021212	WORD	wordpools/wasnorm_wordpool_576.txt	LTP281	ltpFR2	0	9	TABLE	1426	n/a	n/a	0	0	0
2023707	WORD	wordpools/wasnorm_wordpool_576.txt	LTP281	ltpFR2	0	9	DASHBOARD	441	n/a	n/a	0	0	0
2026504	WORD	wordpools/wasnorm_wordpool_576.txt	LTP281	ltpFR2	0	9	DRIVER	499	n/a	n/a	0	0	0
2029200	WORD	wordpools/wasnorm_wordpool_576.txt	LTP281	ltpFR2	0	9	DRILL	497	n/a	n/a	0	0	0
2030813	START	n/a	LTP281	ltpFR2	0	n/a	n/a	n/a	13	n/a	n/a	n/a	n/a
2031879	DISTRACTOR	n/a	LTP281	ltpFR2	0	9	n/a	n/a	n/a	n/a	0	0	0
2031896	PROB	n/a	LTP281	ltpFR2	0	n/a	n/a	n/a	13	17	3	6	8
2035739	PROB	n/a	LTP281	ltpFR2	0	n/a	n/a	n/a	13	13	5	6	2
2040616	PROB	n/a	LTP281	ltpFR2	0	n/a	n/a	n/a	13	12	8	1	3
2042514	PROB	n/a	LTP281	ltpFR2	0	n/a	n/a	n/a	13	5	1	3	1
2043711	PROB	n/a	LTP281	ltpFR2	0	n/a	n/a	n/a	13	5	1	1	3
2044876	PROB	n/a	LTP281	ltpFR2	0	n/a	n/a	n/a	13	19	8	6	5
2046591	PROB	n/a	LTP281	ltpFR2	0	n/a	n/a	n/a	13	11	7	1	3
2048205	PROB	n/a	LTP281	ltpFR2	0	n/a	n/a	n/a	13	15	2	8	5
2049835	PROB	n/a	LTP281	ltpFR2	0	n/a	n/a	n/a	13	13	7	4	2
2052731	PROB	n/a	LTP281	ltpFR2	0	n/a	n/a	n/a	13	10	3	6	1
2054723	STOP	n/a	LTP281	ltpFR2	0	n/a	n/a	n/a	13	n/a	n/a	n/a	n/a
2056709	REC_START	n/a	LTP281	ltpFR2	0	9	n/a	n/a	n/a	n/a	0	0	0
2059972	REC_WORD	wordpools/wasnorm_wordpool_576.txt	LTP281	ltpFR2	0	9	MISSILE	900	n/a	n/a	0	0	0
2061889	REC_WORD	wordpools/wasnorm_wordpool_576.txt	LTP281	ltpFR2	0	9	PILOT	1070	n/a	n/a	0	0	0
2063534	REC_WORD	wordpools/wasnorm_wordpool_576.txt	LTP281	ltpFR2	0	9	COUCH	386	n/a	n/a	0	0	0
2065148	REC_WORD	wordpools/wasnorm_wordpool_576.txt	LTP281	ltpFR2	0	9	TABLET	1427	n/a	n/a	0	0	0
2066918	REC_WORD	wordpools/wasnorm_wordpool_576.txt	LTP281	ltpFR2	0	9	DAISY	435	n/a	n/a	0	0	0
2068234	REC_WORD	wordpools/wasnorm_wordpool_576.txt	LTP281	ltpFR2	0	9	BLOCKADE	137	n/a	n/a	0	0	0
2072168	REC_WORD	wordpools/wasnorm_wordpool_576.txt	LTP281	ltpFR2	0	9	LAPEL	800	n/a	n/a	0	0	0
2147426	DISTRACTOR	n/a	LTP281	ltpFR2	0	10	n/a	n/a	n/a	n/a	0	0	0
2147426	START	n/a	LTP281	ltpFR2	0	n/a	n/a	n/a	14	n/a	n/a	n/a	n/a
2147459	PROB	n/a	LTP281	ltpFR2	0	n/a	n/a	n/a	14	14	1	6	7
2150155	PROB	n/a	LTP281	ltpFR2	0	n/a	n/a	n/a	14	14	6	2	6
2151852	PROB	n/a	LTP281	ltpFR2	0	n/a	n/a	n/a	14	13	4	2	9
2155364	PROB	n/a	LTP281	ltpFR2	0	n/a	n/a	n/a	14	8	1	1	6
2156895	PROB	n/a	LTP281	ltpFR2	0	n/a	n/a	n/a	14	16	5	5	6
2158310	PROB	n/a	LTP281	ltpFR2	0	n/a	n/a	n/a	14	30	5	9	8
2165067	PROB	n/a	LTP281	ltpFR2	0	n/a	n/a	n/a	14	7	3	3	1
2166448	PROB	n/a	LTP281	ltpFR2	0	n/a	n/a	n/a	14	15	8	3	4
2171425	STOP	n/a	LTP281	ltpFR2	0	n/a	n/a	n/a	14	n/a	n/a	n/a	n/a
2172572	WORD	wordpools/wasnorm_wordpool_576.txt	LTP281	ltpFR2	0	10	BELLY	119	n/a	n/a	0	0	0
2175185	WORD	wordpools/wasnorm_wordpool_576.txt	LTP281	ltpFR2	0	10	KETCHUP	771	n/a	n/a	0	0	0
2177780	WORD	wordpools/wasnorm_wordpool_576.txt	LTP281	ltpFR2	0	10	DANCER	437	n/a	n/a	0	0	0
2180294	WORD	wordpools/wasnorm_wordpool_576.txt	LTP281	ltpFR2	0	10	WITNESS	1618	n/a	n/a	0	0	0
2182823	WORD	wordpools/wasnorm_wordpool_576.txt	LTP281	ltpFR2	0	10	DINER	467	n/a	n/a	0	0	0
2185635	WORD	wordpools/wasnorm_wordpool_576.txt	LTP281	ltpFR2	0	10	MISTER	901	n/a	n/a	0	0	0
2188133	WORD	wordpools/wasnorm_wordpool_576.txt	LTP281	ltpFR2	0	10	ROOSTER	1209	n/a	n/a	0	0	0
2190745	WORD	wordpools/wasnorm_wordpool_576.txt	LTP281	ltpFR2	0	10	TURKEY	1520	n/a	n/a	0	0	0
2193309	WORD	wordpools/wasnorm_wordpool_576.txt	LTP281	ltpFR2	0	10	KLEENEX	782	n/a	n/a	0	0	0
2195905	WORD	wordpools/wasnorm_wordpool_576.txt	LTP281	ltpFR2	0	10	GIRL	637	n/a	n/a	0	0	0
2198683	WORD	wordpools/wasnorm_wordpool_576.txt	LTP281	ltpFR2	0	10	ORANGE	980	n/a	n/a	0	0	0
2201447	WORD	wordpools/wasnorm_wordpool_576.txt	LTP281	ltpFR2	0	10	ULCER	1533	n/a	n/a	0	0	0
2204093	WORD	wordpools/wasnorm_wordpool_576.txt	LTP281	ltpFR2	0	10	QUAIL	1147	n/a	n/a	0	0	0
2206854	WORD	wordpools/wasnorm_wordpool_576.txt	LTP281	ltpFR2	0	10	TROUT	1511	n/a	n/a	0	0	0
2209385	WORD	wordpools/wasnorm_wordpool_576.txt	LTP281	ltpFR2	0	10	HORNET	718	n/a	n/a	0	0	0
2212131	WORD	wordpools/wasnorm_wordpool_576.txt	LTP281	ltpFR2	0	10	HONEY	713	n/a	n/a	0	0	0
2214561	WORD	wordpools/wasnorm_wordpool_576.txt	LTP281	ltpFR2	0	10	MILDEW	893	n/a	n/a	0	0	0
2217240	WORD	wordpools/wasnorm_wordpool_576.txt	LTP281	ltpFR2	0	10	BLACKBOARD	133	n/a	n/a	0	0	0
2219669	WORD	wordpools/wasnorm_wordpool_576.txt	LTP281	ltpFR2	0	10	ROCKET	1202	n/a	n/a	0	0	0
2222216	WORD	wordpools/wasnorm_wordpool_576.txt	LTP281	ltpFR2	0	10	PLAZA	1088	n/a	n/a	0	0	0
2224828	WORD	wordpools/wasnorm_wordpool_576.txt	LTP281	ltpFR2	0	10	VICTIM	1562	n/a	n/a	0	0	0
2227375	WORD	wordpools/wasnorm_wordpool_576.txt	LTP281	ltpFR2	0	10	HOOK	715	n/a	n/a	0	0	0
2230088	WORD	wordpools/wasnorm_wordpool_576.txt	LTP281	ltpFR2	0	10	MAMMAL	861	n/a	n/a	0	0	0
2232683	WORD	wordpools/wasnorm_wordpool_576.txt	LTP281	ltpFR2	0	10	APPLE	33	n/a	n/a	0	0	0
2234299	START	n/a	LTP281	ltpFR2	0	n/a	n/a	n/a	15	n/a	n/a	n/a	n/a
2235172	DISTRACTOR	n/a	LTP281	ltpFR2	0	10	n/a	n/a	n/a	n/a	0	0	0
2235180	PROB	n/a	LTP281	ltpFR2	0	n/a	n/a	n/a	15	17	6	2	7
2237842	PROB	n/a	LTP281	ltpFR2	0	n/a	n/a	n/a	15	15	5	4	8
2241786	PROB	n/a	LTP281	ltpFR2	0	n/a	n/a	n/a	15	10	3	2	5
2244983	PROB	n/a	LTP281	ltpFR2	0	n/a	n/a	n/a	15	15	7	5	3
2248428	PROB	n/a	LTP281	ltpFR2	0	n/a	n/a	n/a	15	10	7	2	1
2249808	PROB	n/a	LTP281	ltpFR2	0	n/a	n/a	n/a	15	8	2	3	3
2251124	PROB	n/a	LTP281	ltpFR2	0	n/a	n/a	n/a	15	12	1	6	5
2254535	PROB	n/a	LTP281	ltpFR2	0	n/a	n/a	n/a	15	12	4	2	6
2258299	STOP	n/a	LTP281	ltpFR2	0	n/a	n/a	n/a	15	n/a	n/a	n/a	n/a
2260161	REC_START	n/a	LTP281	ltpFR2	0	10	n/a	n/a	n/a	n/a	0	0	0
2262509	REC_WORD	wordpools/wasnorm_wordpool_576.txt	LTP281	ltpFR2	0	10	BLACKBOARD	133	n/a	n/a	0	0	0
2263663	REC_WORD	wordpools/wasnorm_wordpool_576.txt	LTP281	ltpFR2	0	10	PLAZA	1088	n/a	n/a	0	0	0
2264750	REC_WORD	wordpools/wasnorm_wordpool_576.txt	LTP281	ltpFR2	0	10	VICTIM	1562	n/a	n/a	0	0	0
2266005	REC_WORD	wordpools/wasnorm_wordpool_576.txt	LTP281	ltpFR2	0	10	HOOK	715	n/a	n/a	0	0	0
2267196	REC_WORD	wordpools/wasnorm_wordpool_576.txt	LTP281	ltpFR2	0	10	GIRL	637	n/a	n/a	0	0	0
2268246	REC_WORD	wordpools/wasnorm_wordpool_576.txt	LTP281	ltpFR2	0	10	KLEENEX	782	n/a	n/a	0	0	0
2269525	REC_WORD	wordpools/wasnorm_wordpool_576.txt	LTP281	ltpFR2	0	10	TROUT	1511	n/a	n/a	0	0	0
2270660	REC_WORD	wordpools/wasnorm_wordpool_576.txt	LTP281	ltpFR2	0	10	QUAIL	1147	n/a	n/a	0	0	0
2272465	REC_WORD	wordpools/wasnorm_wordpool_576.txt	LTP281	ltpFR2	0	10	TURKEY	1520	n/a	n/a	0	0	0
2273467	REC_WORD	wordpools/wasnorm_wordpool_576.txt	LTP281	ltpFR2	0	10	ROOSTER	1209	n/a	n/a	0	0	0
2274662	REC_WORD	wordpools/wasnorm_wordpool_576.txt	LTP281	ltpFR2	0	10	MISTER	901	n/a	n/a	0	0	0
2278379	REC_WORD	wordpools/wasnorm_wordpool_576.txt	LTP281	ltpFR2	0	10	HONEY	713	n/a	n/a	0	0	0
2280940	REC_WORD	wordpools/wasnorm_wordpool_576.txt	LTP281	ltpFR2	0	10	BEE	112	n/a	n/a	0	0	0
2296517	REC_WORD	wordpools/wasnorm_wordpool_576.txt	LTP281	ltpFR2	0	10	MAMMAL	861	n/a	n/a	0	0	0
2297344	REC_WORD	wordpools/wasnorm_wordpool_576.txt	LTP281	ltpFR2	0	10	APPLE	33	n/a	n/a	0	0	0
2317976	REC_WORD	wordpools/wasnorm_wordpool_576.txt	LTP281	ltpFR2	0	10	BULLETIN	195	n/a	n/a	0	0	0
2350910	WORD	wordpools/wasnorm_wordpool_576.txt	LTP281	ltpFR2	0	11	LACE	792	n/a	n/a	0	0	0
2353540	WORD	wordpools/wasnorm_wordpool_576.txt	LTP281	ltpFR2	0	11	FLEET	578	n/a	n/a	0	0	0
2356319	WORD	wordpools/wasnorm_wordpool_576.txt	LTP281	ltpFR2	0	11	COLONEL	348	n/a	n/a	0	0	0
2359015	WORD	wordpools/wasnorm_wordpool_576.txt	LTP281	ltpFR2	0	11	OUTDOORS	987	n/a	n/a	0	0	0
2361495	WORD	wordpools/wasnorm_wordpool_576.txt	LTP281	ltpFR2	0	11	GRAVE	658	n/a	n/a	0	0	0
2363974	WORD	wordpools/wasnorm_wordpool_576.txt	LTP281	ltpFR2	0	11	SNAIL	1332	n/a	n/a	0	0	0
2366753	WORD	wordpools/wasnorm_wordpool_576.txt	LTP281	ltpFR2	0	11	JUGGLER	763	n/a	n/a	0	0	0
2369217	WORD	wordpools/wasnorm_wordpool_576.txt	LTP281	ltpFR2	0	11	GRILL	661	n/a	n/a	0	0	0
2371845	WORD	wordpools/wasnorm_wordpool_576.txt	LTP281	ltpFR2	0	11	NEUTRON	947	n/a	n/a	0	0	0
2374641	WORD	wordpools/wasnorm_wordpool_576.txt	LTP281	ltpFR2	0	11	TEACHER	1440	n/a	n/a	0	0	0
2377321	WORD	wordpools/wasnorm_wordpool_576.txt	LTP281	ltpFR2	0	11	SHRUB	1299	n/a	n/a	0	0	0
2379917	WORD	wordpools/wasnorm_wordpool_576.txt	LTP281	ltpFR2	0	11	COOKBOOK	373	n/a	n/a	0	0	0
2382480	WORD	wordpools/wasnorm_wordpool_576.txt	LTP281	ltpFR2	0	11	SUNSET	1408	n/a	n/a	0	0	0
2384960	WORD	wordpools/wasnorm_wordpool_576.txt	LTP281	ltpFR2	0	11	CRIB	407	n/a	n/a	0	0	0
2387490	WORD	wordpools/wasnorm_wordpool_576.txt	LTP281	ltpFR2	0	11	CAMEL	223	n/a	n/a	0	0	0
2390186	WORD	wordpools/wasnorm_wordpool_576.txt	LTP281	ltpFR2	0	11	HEDGE	699	n/a	n/a	0	0	0
2392648	WORD	wordpools/wasnorm_wordpool_576.txt	LTP281	ltpFR2	0	11	PASTA	1021	n/a	n/a	0	0	0
2395428	WORD	wordpools/wasnorm_wordpool_576.txt	LTP281	ltpFR2	0	11	COURSE	390	n/a	n/a	0	0	0
2397891	WORD	wordpools/wasnorm_wordpool_576.txt	LTP281	ltpFR2	0	11	CARRIAGE	248	n/a	n/a	0	0	0
2400570	WORD	wordpools/wasnorm_wordpool_576.txt	LTP281	ltpFR2	0	11	COWBOY	395	n/a	n/a	0	0	0
2403366	WORD	wordpools/wasnorm_wordpool_576.txt	LTP281	ltpFR2	0	11	DRUG	501	n/a	n/a	0	0	0
2405828	WORD	wordpools/wasnorm_wordpool_576.txt	LTP281	ltpFR2	0	11	POISON	1096	n/a	n/a	0	0	0
2408392	WORD	wordpools/wasnorm_wordpool_576.txt	LTP281	ltpFR2	0	11	POSSUM	1112	n/a	n/a	0	0	0
2411055	WORD	wordpools/wasnorm_wordpool_576.txt	LTP281	ltpFR2	0	11	PISTON	1076	n/a	n/a	0	0	0
2412669	START	n/a	LTP281	ltpFR2	0	n/a	n/a	n/a	16	n/a	n/a	n/a	n/a
2413760	DISTRACTOR	n/a	LTP281	ltpFR2	0	11	n/a	n/a	n/a	n/a	0	0	0
2413767	PROB	n/a	LTP281	ltpFR2	0	n/a	n/a	n/a	16	22	7	9	6
2419526	PROB	n/a	LTP281	ltpFR2	0	n/a	n/a	n/a	16	18	3	7	8
2421523	PROB	n/a	LTP281	ltpFR2	0	n/a	n/a	n/a	16	10	2	7	1
2423387	PROB	n/a	LTP281	ltpFR2	0	n/a	n/a	n/a	16	15	6	6	3
2425699	PROB	n/a	LTP281	ltpFR2	0	n/a	n/a	n/a	16	10	4	1	5
2428063	PROB	n/a	LTP281	ltpFR2	0	n/a	n/a	n/a	16	21	8	7	6
2430943	PROB	n/a	LTP281	ltpFR2	0	n/a	n/a	n/a	16	18	8	8	2
2433339	PROB	n/a	LTP281	ltpFR2	0	n/a	n/a	n/a	16	21	9	8	7
2435885	STOP	n/a	LTP281	ltpFR2	0	n/a	n/a	n/a	16	n/a	n/a	n/a	n/a
2438432	REC_START	n/a	LTP281	ltpFR2	0	11	n/a	n/a	n/a	n/a	0	0	0
2441297	REC_WORD	wordpools/wasnorm_wordpool_576.txt	LTP281	ltpFR2	0	11	PISTON	1076	n/a	n/a	0	0	0
2443465	REC_WORD	wordpools/wasnorm_wordpool_576.txt	LTP281	ltpFR2	0	11	POSSUM	1112	n/a	n/a	0	0	0
2450753	REC_WORD	wordpools/wasnorm_wordpool_576.txt	LTP281	ltpFR2	0	11	GRAVE	658	n/a	n/a	0	0	0
2452412	REC_WORD	wordpools/wasnorm_wordpool_576.txt	LTP281	ltpFR2	0	11	SNAIL	1332	n/a	n/a	0	0	0
2454732	REC_WORD	wordpools/wasnorm_wordpool_576.txt	LTP281	ltpFR2	0	11	OUTDOORS	987	n/a	n/a	0	0	0
2455732	REC_WORD_VV	wordpools/wasnorm_wordpool_576.txt	LTP281	ltpFR2	0	11	<>	-1	n/a	n/a	0	0	0
2456710	REC_WORD	wordpools/wasnorm_wordpool_576.txt	LTP281	ltpFR2	0	11	LACE	792	n/a	n/a	0	0	0
2459070	REC_WORD	wordpools/wasnorm_wordpool_576.txt	LTP281	ltpFR2	0	11	COLONEL	348	n/a	n/a	0	0	0
2462681	REC_WORD	wordpools/wasnorm_wordpool_576.txt	LTP281	ltpFR2	0	11	FLEET	578	n/a	n/a	0	0	0
2529082	DISTRACTOR	n/a	LTP281	ltpFR2	0	12	n/a	n/a	n/a	n/a	0	0	0
2529082	START	n/a	LTP281	ltpFR2	0	n/a	n/a	n/a	17	n/a	n/a	n/a	n/a
2529115	PROB	n/a	LTP281	ltpFR2	0	n/a	n/a	n/a	17	15	6	5	4
2532310	PROB	n/a	LTP281	ltpFR2	0	n/a	n/a	n/a	17	18	6	8	4
2535256	PROB	n/a	LTP281	ltpFR2	0	n/a	n/a	n/a	17	18	6	4	4
2537801	PROB	n/a	LTP281	ltpFR2	0	n/a	n/a	n/a	17	6	4	1	1
2539167	PROB	n/a	LTP281	ltpFR2	0	n/a	n/a	n/a	17	13	4	5	4
2541946	PROB	n/a	LTP281	ltpFR2	0	n/a	n/a	n/a	17	10	1	5	4
2544059	PROB	n/a	LTP281	ltpFR2	0	n/a	n/a	n/a	17	14	3	5	6
2546223	PROB	n/a	LTP281	ltpFR2	0	n/a	n/a	n/a	17	15	6	4	5
2548070	PROB	n/a	LTP281	ltpFR2	0	n/a	n/a	n/a	17	15	6	2	9
2550167	PROB	n/a	LTP281	ltpFR2	0	n/a	n/a	n/a	17	13	3	2	8
2551783	STOP	n/a	LTP281	ltpFR2	0	n/a	n/a	n/a	17	n/a	n/a	n/a	n/a
2554145	WORD	wordpools/wasnorm_wordpool_576.txt	LTP281	ltpFR2	0	12	SODA	1341	n/a	n/a	0	0	0
2556907	WORD	wordpools/wasnorm_wordpool_576.txt	LTP281	ltpFR2	0	12	ARM	38	n/a	n/a	0	0	0
2559620	WORD	wordpools/wasnorm_wordpool_576.txt	LTP281	ltpFR2	0	12	MARROW	872	n/a	n/a	0	0	0
2562216	WORD	wordpools/wasnorm_wordpool_576.txt	LTP281	ltpFR2	0	12	BODY	145	n/a	n/a	0	0	0
2564728	WORD	wordpools/wasnorm_wordpool_576.txt	LTP281	ltpFR2	0	12	LIGHTNING	820	n/a	n/a	0	0	0
2567525	WORD	wordpools/wasnorm_wordpool_576.txt	LTP281	ltpFR2	0	12	TILE	1468	n/a	n/a	0	0	0
2570038	WORD	wordpools/wasnorm_wordpool_576.txt	LTP281	ltpFR2	0	12	PLASTER	1085	n/a	n/a	0	0	0
2572850	WORD	wordpools/wasnorm_wordpool_576.txt	LTP281	ltpFR2	0	12	MOP	916	n/a	n/a	0	0	0
2575679	WORD	wordpools/wasnorm_wordpool_576.txt	LTP281	ltpFR2	0	12	LAVA	804	n/a	n/a	0	0	0
2578126	WORD	wordpools/wasnorm_wordpool_576.txt	LTP281	ltpFR2	0	12	AWARD	63	n/a	n/a	0	0	0
2580738	WORD	wordpools/wasnorm_wordpool_576.txt	LTP281	ltpFR2	0	12	CABBAGE	210	n/a	n/a	0	0	0
2583402	WORD	wordpools/wasnorm_wordpool_576.txt	LTP281	ltpFR2	0	12	HEART	697	n/a	n/a	0	0	0
2585915	WORD	wordpools/wasnorm_wordpool_576.txt	LTP281	ltpFR2	0	12	BALLOON	75	n/a	n/a	0	0	0
2588676	WORD	wordpools/wasnorm_wordpool_576.txt	LTP281	ltpFR2	0	12	FUNGUS	614	n/a	n/a	0	0	0
2591190	WORD	wordpools/wasnorm_wordpool_576.txt	LTP281	ltpFR2	0	12	CUPBOARD	425	n/a	n/a	0	0	0
2593752	WORD	wordpools/wasnorm_wordpool_576.txt	LTP281	ltpFR2	0	12	PACKAGE	997	n/a	n/a	0	0	0
2596183	WORD	wordpools/wasnorm_wordpool_576.txt	LTP281	ltpFR2	0	12	SALAD	1224	n/a	n/a	0	0	0
2598845	WORD	wordpools/wasnorm_wordpool_576.txt	LTP281	ltpFR2	0	12	RACKET	1155	n/a	n/a	0	0	0
2601442	WORD	wordpools/wasnorm_wordpool_576.txt	LTP281	ltpFR2	0	12	FRUIT	610	n/a	n/a	0	0	0
2604138	WORD	wordpools/wasnorm_wordpool_576.txt	LTP281	ltpFR2	0	12	BROTHER	179	n/a	n/a	0	0	0
2606934	WORD	wordpools/wasnorm_wordpool_576.txt	LTP281	ltpFR2	0	12	BRICK	172	n/a	n/a	0	0	0
2609563	WORD	wordpools/wasnorm_wordpool_576.txt	LTP281	ltpFR2	0	12	DUSTPAN	509	n/a	n/a	0	0	0
2612243	WORD	wordpools/wasnorm_wordpool_576.txt	LTP281	ltpFR2	0	12	PUDDLE	1140	n/a	n/a	0	0	0
2614838	WORD	wordpools/wasnorm_wordpool_576.txt	LTP281	ltpFR2	0	12	PAIL	1002	n/a	n/a	0	0	0
2616453	START	n/a	LTP281	ltpFR2	0	n/a	n/a	n/a	18	n/a	n/a	n/a	n/a
2617340	DISTRACTOR	n/a	LTP281	ltpFR2	0	12	n/a	n/a	n/a	n/a	0	0	0
2617352	PROB	n/a	LTP281	ltpFR2	0	n/a	n/a	n/a	18	20	8	5	7
2621794	PROB	n/a	LTP281	ltpFR2	0	n/a	n/a	n/a	18	21	7	8	6
2625124	PROB	n/a	LTP281	ltpFR2	0	n/a	n/a	n/a	18	19	8	2	9
2627121	PROB	n/a	LTP281	ltpFR2	0	n/a	n/a	n/a	18	14	9	2	3
2629251	PROB	n/a	LTP281	ltpFR2	0	n/a	n/a	n/a	18	13	4	5	4
2632130	PROB	n/a	LTP281	ltpFR2	0	n/a	n/a	n/a	18	13	7	5	1
2634543	PROB	n/a	LTP281	ltpFR2	0	n/a	n/a	n/a	18	14	4	6	4
2636756	PROB	n/a	LTP281	ltpFR2	0	n/a	n/a	n/a	18	16	3	6	7
2640274	STOP	n/a	LTP281	ltpFR2	0	n/a	n/a	n/a	18	n/a	n/a	n/a	n/a
2642266	REC_START	n/a	LTP281	ltpFR2	0	12	n/a	n/a	n/a	n/a	0	0	0
2643487	REC_WORD	wordpools/wasnorm_wordpool_576.txt	LTP281	ltpFR2	0	12	PAIL	1002	n/a	n/a	0	0	0
2645162	REC_WORD	wordpools/wasnorm_wordpool_576.txt	LTP281	ltpFR2	0	12	PUDDLE	1140	n/a	n/a	0	0	0
2646767	REC_WORD	wordpools/wasnorm_wordpool_576.txt	LTP281	ltpFR2	0	12	BROTHER	179	n/a	n/a	0	0	0
2648529	REC_WORD	wordpools/wasnorm_wordpool_576.txt	LTP281	ltpFR2	0	12	BRICK	172	n/a	n/a	0	0	0
2650468	REC_WORD	wordpools/wasnorm_wordpool_576.txt	LTP281	ltpFR2	0	12	DUSTPAN	509	n/a	n/a	0	0	0
2701750	REC_WORD	wordpools/wasnorm_wordpool_576.txt	LTP281	ltpFR2	0	12	TILE	1468	n/a	n/a	0	0	0
2732932	WORD	wordpools/wasnorm_wordpool_576.txt	LTP281	ltpFR2	0	13	SALT	1229	n/a	n/a	0	0	0
2735545	WORD	wordpools/wasnorm_wordpool_576.txt	LTP281	ltpFR2	0	13	TRANSPLANT	1496	n/a	n/a	0	0	0
2738124	WORD	wordpools/wasnorm_wordpool_576.txt	LTP281	ltpFR2	0	13	CRUTCH	417	n/a	n/a	0	0	0
2740636	WORD	wordpools/wasnorm_wordpool_576.txt	LTP281	ltpFR2	0	13	SUITCASE	1403	n/a	n/a	0	0	0
2743450	WORD	wordpools/wasnorm_wordpool_576.txt	LTP281	ltpFR2	0	13	VIKING	1565	n/a	n/a	0	0	0
2746212	WORD	wordpools/wasnorm_wordpool_576.txt	LTP281	ltpFR2	0	13	MUSTARD	935	n/a	n/a	0	0	0
2748975	WORD	wordpools/wasnorm_wordpool_576.txt	LTP281	ltpFR2	0	13	GLASS	639	n/a	n/a	0	0	0
2751405	WORD	wordpools/wasnorm_wordpool_576.txt	LTP281	ltpFR2	0	13	JAPAN	749	n/a	n/a	0	0	0
2754017	WORD	wordpools/wasnorm_wordpool_576.txt	LTP281	ltpFR2	0	13	PARTNER	1017	n/a	n/a	0	0	0
2756646	WORD	wordpools/wasnorm_wordpool_576.txt	LTP281	ltpFR2	0	13	BARREL	91	n/a	n/a	0	0	0
2759276	WORD	wordpools/wasnorm_wordpool_576.txt	LTP281	ltpFR2	0	13	SCALPEL	1243	n/a	n/a	0	0	0
2761972	WORD	wordpools/wasnorm_wordpool_576.txt	LTP281	ltpFR2	0	13	EUROPE	541	n/a	n/a	0	0	0
2764717	WORD	wordpools/wasnorm_wordpool_576.txt	LTP281	ltpFR2	0	13	FARMER	553	n/a	n/a	0	0	0
2767531	WORD	wordpools/wasnorm_wordpool_576.txt	LTP281	ltpFR2	0	13	TWEEZERS	1526	n/a	n/a	0	0	0
2770327	WORD	wordpools/wasnorm_wordpool_576.txt	LTP281	ltpFR2	0	13	MONSTER	912	n/a	n/a	0	0	0
2772890	WORD	wordpools/wasnorm_wordpool_576.txt	LTP281	ltpFR2	0	13	SHORTCAKE	1292	n/a	n/a	0	0	0
2775369	WORD	wordpools/wasnorm_wordpool_576.txt	LTP281	ltpFR2	0	13	PEACH	1031	n/a	n/a	0	0	0
2778149	WORD	wordpools/wasnorm_wordpool_576.txt	LTP281	ltpFR2	0	13	APRON	35	n/a	n/a	0	0	0
2780810	WORD	wordpools/wasnorm_wordpool_576.txt	LTP281	ltpFR2	0	13	BRIEFCASE	175	n/a	n/a	0	0	0
2783458	WORD	wordpools/wasnorm_wordpool_576.txt	LTP281	ltpFR2	0	13	FOREST	593	n/a	n/a	0	0	0
2786020	WORD	wordpools/wasnorm_wordpool_576.txt	LTP281	ltpFR2	0	13	GANGSTER	620	n/a	n/a	0	0	0
2788567	WORD	wordpools/wasnorm_wordpool_576.txt	LTP281	ltpFR2	0	13	RIFLE	1192	n/a	n/a	0	0	0
2791130	WORD	wordpools/wasnorm_wordpool_576.txt	LTP281	ltpFR2	0	13	STAR	1373	n/a	n/a	0	0	0
2793758	WORD	wordpools/wasnorm_wordpool_576.txt	LTP281	ltpFR2	0	13	DONOR	485	n/a	n/a	0	0	0
2795374	START	n/a	LTP281	ltpFR2	0	n/a	n/a	n/a	19	n/a	n/a	n/a	n/a
2796219	DISTRACTOR	n/a	LTP281	ltpFR2	0	13	n/a	n/a	n/a	n/a	0	0	0
2796222	PROB	n/a	LTP281	ltpFR2	0	n/a	n/a	n/a	19	16	7	1	8
2798851	PROB	n/a	LTP281	ltpFR2	0	n/a	n/a	n/a	19	10	6	3	1
2800466	PROB	n/a	LTP281	ltpFR2	0	n/a	n/a	n/a	19	12	7	3	2
2802530	PROB	n/a	LTP281	ltpFR2	0	n/a	n/a	n/a	19	9	3	2	4
2805076	PROB	n/a	LTP281	ltpFR2	0	n/a	n/a	n/a	19	19	9	4	6
2807654	PROB	n/a	LTP281	ltpFR2	0	n/a	n/a	n/a	19	15	3	8	6
2809735	PROB	n/a	LTP281	ltpFR2	0	n/a	n/a	n/a	19	19	8	6	5
2812680	PROB	n/a	LTP281	ltpFR2	0	n/a	n/a	n/a	19	8	2	1	5
2814262	PROB	n/a	LTP281	ltpFR2	0	n/a	n/a	n/a	19	11	8	2	1
2815726	PROB	n/a	LTP281	ltpFR2	0	n/a	n/a	n/a	19	15	6	2	9
2819374	STOP	n/a	LTP281	ltpFR2	0	n/a	n/a	n/a	19	n/a	n/a	n/a	n/a
2821153	REC_START	n/a	LTP281	ltpFR2	0	13	n/a	n/a	n/a	n/a	0	0	0
2821902	REC_WORD	wordpools/wasnorm_wordpool_576.txt	LTP281	ltpFR2	0	13	GANGSTER	620	n/a	n/a	0	0	0
2823136	REC_WORD	wordpools/wasnorm_wordpool_576.txt	LTP281	ltpFR2	0	13	STAR	1373	n/a	n/a	0	0	0
2829209	REC_WORD	wordpools/wasnorm_wordpool_576.txt	LTP281	ltpFR2	0	13	BRIEFCASE	175	n/a	n/a	0	0	0
2830209	REC_WORD_VV	wordpools/wasnorm_wordpool_576.txt	LTP281	ltpFR2	0	13	<>	-1	n/a	n/a	0	0	0
2834405	REC_WORD	wordpools/wasnorm_wordpool_576.txt	LTP281	ltpFR2	0	13	TWEEZERS	1526	n/a	n/a	0	0	0
2844086	REC_WORD	wordpools/wasnorm_wordpool_576.txt	LTP281	ltpFR2	0	13	MONSTER	912	n/a	n/a	0	0	0
2911835	WORD	wordpools/wasnorm_wordpool_576.txt	LTP281	ltpFR2	0	14	CHAMPAGNE	278	n/a	n/a	0	0	0
2914565	WORD	wordpools/wasnorm_wordpool_576.txt	LTP281	ltpFR2	0	14	ARMY	39	n/a	n/a	0	0	0
2917377	WORD	wordpools/wasnorm_wordpool_576.txt	LTP281	ltpFR2	0	14	TOASTER	1472	n/a	n/a	0	0	0
2920190	WORD	wordpools/wasnorm_wordpool_576.txt	LTP281	ltpFR2	0	14	GRAPE	654	n/a	n/a	0	0	0
2922652	WORD	wordpools/wasnorm_wordpool_576.txt	LTP281	ltpFR2	0	14	SCALLOP	1242	n/a	n/a	0	0	0
2925099	WORD	wordpools/wasnorm_wordpool_576.txt	LTP281	ltpFR2	0	14	SEAFOOD	1260	n/a	n/a	0	0	0
2927695	WORD	wordpools/wasnorm_wordpool_576.txt	LTP281	ltpFR2	0	14	FRAGRANCE	599	n/a	n/a	0	0	0
2930425	WORD	wordpools/wasnorm_wordpool_576.txt	LTP281	ltpFR2	0	14	TRUCK	1512	n/a	n/a	0	0	0
2933204	WORD	wordpools/wasnorm_wordpool_576.txt	LTP281	ltpFR2	0	14	ACTRESS	6	n/a	n/a	0	0	0
2935967	WORD	wordpools/wasnorm_wordpool_576.txt	LTP281	ltpFR2	0	14	CRITIC	410	n/a	n/a	0	0	0
2938645	WORD	wordpools/wasnorm_wordpool_576.txt	LTP281	ltpFR2	0	14	SILK	1307	n/a	n/a	0	0	0
2941342	WORD	wordpools/wasnorm_wordpool_576.txt	LTP281	ltpFR2	0	14	FLESH	579	n/a	n/a	0	0	0
2943837	WORD	wordpools/wasnorm_wordpool_576.txt	LTP281	ltpFR2	0	14	LIVER	833	n/a	n/a	0	0	0
2946568	WORD	wordpools/wasnorm_wordpool_576.txt	LTP281	ltpFR2	0	14	INFANT	737	n/a	n/a	0	0	0
2949047	WORD	wordpools/wasnorm_wordpool_576.txt	LTP281	ltpFR2	0	14	STICKER	1382	n/a	n/a	0	0	0
2951477	WORD	wordpools/wasnorm_wordpool_576.txt	LTP281	ltpFR2	0	14	TAXI	1438	n/a	n/a	0	0	0
2954190	WORD	wordpools/wasnorm_wordpool_576.txt	LTP281	ltpFR2	0	14	WASP	1593	n/a	n/a	0	0	0
2956852	WORD	wordpools/wasnorm_wordpool_576.txt	LTP281	ltpFR2	0	14	CIGAR	308	n/a	n/a	0	0	0
2959482	WORD	wordpools/wasnorm_wordpool_576.txt	LTP281	ltpFR2	0	14	REBEL	1172	n/a	n/a	0	0	0
2961912	WORD	wordpools/wasnorm_wordpool_576.txt	LTP281	ltpFR2	0	14	WARDROBE	1587	n/a	n/a	0	0	0
2964723	WORD	wordpools/wasnorm_wordpool_576.txt	LTP281	ltpFR2	0	14	MAILMAN	858	n/a	n/a	0	0	0
2967437	WORD	wordpools/wasnorm_wordpool_576.txt	LTP281	ltpFR2	0	14	MOTOR	922	n/a	n/a	0	0	0
2970166	WORD	wordpools/wasnorm_wordpool_576.txt	LTP281	ltpFR2	0	14	MAPLE	866	n/a	n/a	0	0	0
2972645	WORD	wordpools/wasnorm_wordpool_576.txt	LTP281	ltpFR2	0	14	TYPIST	1532	n/a	n/a	0	0	0
2974261	START	n/a	LTP281	ltpFR2	0	n/a	n/a	n/a	20	n/a	n/a	n/a	n/a
2975430	DISTRACTOR	n/a	LTP281	ltpFR2	0	14	n/a	n/a	n/a	n/a	0	0	0
2975442	PROB	n/a	LTP281	ltpFR2	0	n/a	n/a	n/a	20	23	7	7	9
2979503	PROB	n/a	LTP281	ltpFR2	0	n/a	n/a	n/a	20	16	4	7	5
2982548	PROB	n/a	LTP281	ltpFR2	0	n/a	n/a	n/a	20	20	9	9	2
2984395	PROB	n/a	LTP281	ltpFR2	0	n/a	n/a	n/a	20	17	2	6	9
2988157	PROB	n/a	LTP281	ltpFR2	0	n/a	n/a	n/a	20	14	2	3	9
2991186	PROB	n/a	LTP281	ltpFR2	0	n/a	n/a	n/a	20	14	6	7	1
2993349	PROB	n/a	LTP281	ltpFR2	0	n/a	n/a	n/a	20	11	2	6	3
2998260	STOP	n/a	LTP281	ltpFR2	0	n/a	n/a	n/a	20	n/a	n/a	n/a	n/a
3000040	REC_START	n/a	LTP281	ltpFR2	0	14	n/a	n/a	n/a	n/a	0	0	0
3001441	REC_WORD	wordpools/wasnorm_wordpool_576.txt	LTP281	ltpFR2	0	14	GRAPE	654	n/a	n/a	0	0	0
3002997	REC_WORD	wordpools/wasnorm_wordpool_576.txt	LTP281	ltpFR2	0	14	TOASTER	1472	n/a	n/a	0	0	0
3004450	REC_WORD	wordpools/wasnorm_wordpool_576.txt	LTP281	ltpFR2	0	14	SCALLOP	1242	n/a	n/a	0	0	0
3005869	REC_WORD	wordpools/wasnorm_wordpool_576.txt	LTP281	ltpFR2	0	14	SEAFOOD	1260	n/a	n/a	0	0	0
3007377	REC_WORD	wordpools/wasnorm_wordpool_576.txt	LTP281	ltpFR2	0	14	CHAMPAGNE	278	n/a	n/a	0	0	0
3008377	REC_WORD_VV	wordpools/wasnorm_wordpool_576.txt	LTP281	ltpFR2	0	14	<>	-1	n/a	n/a	0	0	0
3008962	REC_WORD	wordpools/wasnorm_wordpool_576.txt	LTP281	ltpFR2	0	14	SILK	1307	n/a	n/a	0	0	0
3009962	REC_WORD_VV	wordpools/wasnorm_wordpool_576.txt	LTP281	ltpFR2	0	14	<>	-1	n/a	n/a	0	0	0
3010725	REC_WORD	wordpools/wasnorm_wordpool_576.txt	LTP281	ltpFR2	0	14	SKIN	1318	n/a	n/a	0	0	0
3016293	REC_WORD	wordpools/wasnorm_wordpool_576.txt	LTP281	ltpFR2	0	14	MAILMAN	858	n/a	n/a	0	0	0
3017737	REC_WORD	wordpools/wasnorm_wordpool_576.txt	LTP281	ltpFR2	0	14	WARDROBE	1587	n/a	n/a	0	0	0
3032216	REC_WORD	wordpools/wasnorm_wordpool_576.txt	LTP281	ltpFR2	0	14	TYPIST	1532	n/a	n/a	0	0	0
3090688	DISTRACTOR	n/a	LTP281	ltpFR2	0	15	n/a	n/a	n/a	n/a	0	0	0
3090688	START	n/a	LTP281	ltpFR2	0	n/a	n/a	n/a	21	n/a	n/a	n/a	n/a
3090722	PROB	n/a	LTP281	ltpFR2	0	n/a	n/a	n/a	21	24	9	7	6
3097213	PROB	n/a	LTP281	ltpFR2	0	n/a	n/a	n/a	21	17	7	7	3
3101423	PROB	n/a	LTP281	ltpFR2	0	n/a	n/a	n/a	21	16	1	8	7
3103886	PROB	n/a	LTP281	ltpFR2	0	n/a	n/a	n/a	21	20	9	7	4
3106216	PROB	n/a	LTP281	ltpFR2	0	n/a	n/a	n/a	21	9	5	3	1
3109378	PROB	n/a	LTP281	ltpFR2	0	n/a	n/a	n/a	21	11	7	2	2
3111707	PROB	n/a	LTP281	ltpFR2	0	n/a	n/a	n/a	21	19	7	3	9
3113301	STOP	n/a	LTP281	ltpFR2	0	n/a	n/a	n/a	21	n/a	n/a	n/a	n/a
3115835	WORD	wordpools/wasnorm_wordpool_576.txt	LTP281	ltpFR2	0	15	BURGLAR	200	n/a	n/a	0	0	0
3118315	WORD	wordpools/wasnorm_wordpool_576.txt	LTP281	ltpFR2	0	15	SWORD	1423	n/a	n/a	0	0	0
3120877	WORD	wordpools/wasnorm_wordpool_576.txt	LTP281	ltpFR2	0	15	SPOON	1357	n/a	n/a	0	0	0
3123341	WORD	wordpools/wasnorm_wordpool_576.txt	LTP281	ltpFR2	0	15	CREVICE	405	n/a	n/a	0	0	0
3126071	WORD	wordpools/wasnorm_wordpool_576.txt	LTP281	ltpFR2	0	15	BRANCH	168	n/a	n/a	0	0	0
3128832	WORD	wordpools/wasnorm_wordpool_576.txt	LTP281	ltpFR2	0	15	RUST	1219	n/a	n/a	0	0	0
3131263	WORD	wordpools/wasnorm_wordpool_576.txt	LTP281	ltpFR2	0	15	PATROL	1027	n/a	n/a	0	0	0
3133909	WORD	wordpools/wasnorm_wordpool_576.txt	LTP281	ltpFR2	0	15	OUTLAW	989	n/a	n/a	0	0	0
3136555	WORD	wordpools/wasnorm_wordpool_576.txt	LTP281	ltpFR2	0	15	MOTEL	919	n/a	n/a	0	0	0
3139135	WORD	wordpools/wasnorm_wordpool_576.txt	LTP281	ltpFR2	0	15	SUSPECT	1415	n/a	n/a	0	0	0
3141813	WORD	wordpools/wasnorm_wordpool_576.txt	LTP281	ltpFR2	0	15	CROSS	413	n/a	n/a	0	0	0
3144360	WORD	wordpools/wasnorm_wordpool_576.txt	LTP281	ltpFR2	0	15	WAITER	1580	n/a	n/a	0	0	0
3146890	WORD	wordpools/wasnorm_wordpool_576.txt	LTP281	ltpFR2	0	15	SALMON	1227	n/a	n/a	0	0	0
3149702	WORD	wordpools/wasnorm_wordpool_576.txt	LTP281	ltpFR2	0	15	SUNRISE	1407	n/a	n/a	0	0	0
3152149	WORD	wordpools/wasnorm_wordpool_576.txt	LTP281	ltpFR2	0	15	WAGON	1578	n/a	n/a	0	0	0
3154761	WORD	wordpools/wasnorm_wordpool_576.txt	LTP281	ltpFR2	0	15	BREAST	171	n/a	n/a	0	0	0
3157441	WORD	wordpools/wasnorm_wordpool_576.txt	LTP281	ltpFR2	0	15	VALVE	1546	n/a	n/a	0	0	0
3160254	WORD	wordpools/wasnorm_wordpool_576.txt	LTP281	ltpFR2	0	15	ACTOR	5	n/a	n/a	0	0	0
3162983	WORD	wordpools/wasnorm_wordpool_576.txt	LTP281	ltpFR2	0	15	PUDDING	1139	n/a	n/a	0	0	0
3165645	WORD	wordpools/wasnorm_wordpool_576.txt	LTP281	ltpFR2	0	15	CUSTARD	429	n/a	n/a	0	0	0
3168259	WORD	wordpools/wasnorm_wordpool_576.txt	LTP281	ltpFR2	0	15	SNAKE	1333	n/a	n/a	0	0	0
3170938	WORD	wordpools/wasnorm_wordpool_576.txt	LTP281	ltpFR2	0	15	TWIG	1527	n/a	n/a	0	0	0
3173401	WORD	wordpools/wasnorm_wordpool_576.txt	LTP281	ltpFR2	0	15	KITCHEN	778	n/a	n/a	0	0	0
3175846	WORD	wordpools/wasnorm_wordpool_576.txt	LTP281	ltpFR2	0	15	GAVEL	627	n/a	n/a	0	0	0
3177462	START	n/a	LTP281	ltpFR2	0	n/a	n/a	n/a	22	n/a	n/a	n/a	n/a
3178416	DISTRACTOR	n/a	LTP281	ltpFR2	0	15	n/a	n/a	n/a	n/a	0	0	0
3178427	PROB	n/a	LTP281	ltpFR2	0	n/a	n/a	n/a	22	11	7	3	1
3180258	PROB	n/a	LTP281	ltpFR2	0	n/a	n/a	n/a	22	13	5	3	5
3181788	PROB	n/a	LTP281	ltpFR2	0	n/a	n/a	n/a	22	15	2	8	5
3183087	PROB	n/a	LTP281	ltpFR2	0	n/a	n/a	n/a	22	13	7	1	5
3187147	PROB	n/a	LTP281	ltpFR2	0	n/a	n/a	n/a	22	19	8	7	4
3190310	PROB	n/a	LTP281	ltpFR2	0	n/a	n/a	n/a	22	16	8	7	1
3192123	PROB	n/a	LTP281	ltpFR2	0	n/a	n/a	n/a	22	10	6	3	1
3193803	PROB	n/a	LTP281	ltpFR2	0	n/a	n/a	n/a	22	10	3	6	1
3196467	PROB	n/a	LTP281	ltpFR2	0	n/a	n/a	n/a	22	21	6	8	7
3199910	STOP	n/a	LTP281	ltpFR2	0	n/a	n/a	n/a	22	n/a	n/a	n/a	n/a
3203391	REC_START	n/a	LTP281	ltpFR2	0	15	n/a	n/a	n/a	n/a	0	0	0
3204669	REC_WORD	wordpools/wasnorm_wordpool_576.txt	LTP281	ltpFR2	0	15	SNAKE	1333	n/a	n/a	0	0	0
3206257	REC_WORD	wordpools/wasnorm_wordpool_576.txt	LTP281	ltpFR2	0	15	TWIG	1527	n/a	n/a	0	0	0
3207618	REC_WORD	wordpools/wasnorm_wordpool_576.txt	LTP281	ltpFR2	0	15	GAVEL	627	n/a	n/a	0	0	0
3208893	REC_WORD	wordpools/wasnorm_wordpool_576.txt	LTP281	ltpFR2	0	15	KITCHEN	778	n/a	n/a	0	0	0
3215248	REC_WORD	wordpools/wasnorm_wordpool_576.txt	LTP281	ltpFR2	0	15	WAGON	1578	n/a	n/a	0	0	0
3216565	REC_WORD_VV	wordpools/wasnorm_wordpool_576.txt	LTP281	ltpFR2	0	15	<>	-1	n/a	n/a	0	0	0
3217677	REC_WORD	wordpools/wasnorm_wordpool_576.txt	LTP281	ltpFR2	0	15	SUNRISE	1407	n/a	n/a	0	0	0
3218677	REC_WORD_VV	wordpools/wasnorm_wordpool_576.txt	LTP281	ltpFR2	0	15	<>	-1	n/a	n/a	0	0	0
3219677	REC_WORD_VV	wordpools/wasnorm_wordpool_576.txt	LTP281	ltpFR2	0	15	<>	-1	n/a	n/a	0	0	0
3236753	REC_WORD	wordpools/wasnorm_wordpool_576.txt	LTP281	ltpFR2	0	15	BURGLAR	200	n/a	n/a	0	0	0
3239062	REC_WORD	wordpools/wasnorm_wordpool_576.txt	LTP281	ltpFR2	0	15	SWORD	1423	n/a	n/a	0	0	0
3294090	WORD	wordpools/wasnorm_wordpool_576.txt	LTP281	ltpFR2	0	16	JUNGLE	764	n/a	n/a	0	0	0
3296635	WORD	wordpools/wasnorm_wordpool_576.txt	LTP281	ltpFR2	0	16	OUTFIT	988	n/a	n/a	0	0	0
3299349	WORD	wordpools/wasnorm_wordpool_576.txt	LTP281	ltpFR2	0	16	FRAME	600	n/a	n/a	0	0	0
3301844	WORD	wordpools/wasnorm_wordpool_576.txt	LTP281	ltpFR2	0	16	ASIA	46	n/a	n/a	0	0	0
3304575	WORD	wordpools/wasnorm_wordpool_576.txt	LTP281	ltpFR2	0	16	ATLAS	53	n/a	n/a	0	0	0
3307321	WORD	wordpools/wasnorm_wordpool_576.txt	LTP281	ltpFR2	0	16	DENTIST	447	n/a	n/a	0	0	0
3310000	WORD	wordpools/wasnorm_wordpool_576.txt	LTP281	ltpFR2	0	16	CASKET	255	n/a	n/a	0	0	0
3312546	WORD	wordpools/wasnorm_wordpool_576.txt	LTP281	ltpFR2	0	16	CRATER	400	n/a	n/a	0	0	0
3315193	WORD	wordpools/wasnorm_wordpool_576.txt	LTP281	ltpFR2	0	16	HATCHET	691	n/a	n/a	0	0	0
3317655	WORD	wordpools/wasnorm_wordpool_576.txt	LTP281	ltpFR2	0	16	FLAG	573	n/a	n/a	0	0	0
3320435	WORD	wordpools/wasnorm_wordpool_576.txt	LTP281	ltpFR2	0	16	FRANCE	601	n/a	n/a	0	0	0
3322948	WORD	wordpools/wasnorm_wordpool_576.txt	LTP281	ltpFR2	0	16	THREAD	1460	n/a	n/a	0	0	0
3325394	WORD	wordpools/wasnorm_wordpool_576.txt	LTP281	ltpFR2	0	16	ZEBRA	1635	n/a	n/a	0	0	0
3327924	WORD	wordpools/wasnorm_wordpool_576.txt	LTP281	ltpFR2	0	16	NIGHTGOWN	953	n/a	n/a	0	0	0
3330420	WORD	wordpools/wasnorm_wordpool_576.txt	LTP281	ltpFR2	0	16	MATTRESS	879	n/a	n/a	0	0	0
3332983	WORD	wordpools/wasnorm_wordpool_576.txt	LTP281	ltpFR2	0	16	RECORD	1176	n/a	n/a	0	0	0
3335728	WORD	wordpools/wasnorm_wordpool_576.txt	LTP281	ltpFR2	0	16	HAWK	692	n/a	n/a	0	0	0
3338225	WORD	wordpools/wasnorm_wordpool_576.txt	LTP281	ltpFR2	0	16	PRIMATE	1123	n/a	n/a	0	0	0
3340921	WORD	wordpools/wasnorm_wordpool_576.txt	LTP281	ltpFR2	0	16	JELLY	755	n/a	n/a	0	0	0
3343716	WORD	wordpools/wasnorm_wordpool_576.txt	LTP281	ltpFR2	0	16	SKETCH	1315	n/a	n/a	0	0	0
3346363	WORD	wordpools/wasnorm_wordpool_576.txt	LTP281	ltpFR2	0	16	STAPLE	1371	n/a	n/a	0	0	0
3349176	WORD	wordpools/wasnorm_wordpool_576.txt	LTP281	ltpFR2	0	16	FRIAR	605	n/a	n/a	0	0	0
3351905	WORD	wordpools/wasnorm_wordpool_576.txt	LTP281	ltpFR2	0	16	NOTEBOOK	959	n/a	n/a	0	0	0
3354650	WORD	wordpools/wasnorm_wordpool_576.txt	LTP281	ltpFR2	0	16	COLLEGE	346	n/a	n/a	0	0	0
3356266	START	n/a	LTP281	ltpFR2	0	n/a	n/a	n/a	23	n/a	n/a	n/a	n/a
3357066	DISTRACTOR	n/a	LTP281	ltpFR2	0	16	n/a	n/a	n/a	n/a	0	0	0
3357081	PROB	n/a	LTP281	ltpFR2	0	n/a	n/a	n/a	23	14	9	4	1
3360409	PROB	n/a	LTP281	ltpFR2	0	n/a	n/a	n/a	23	24	8	5	9
3364137	PROB	n/a	LTP281	ltpFR2	0	n/a	n/a	n/a	23	19	2	9	8
3367681	PROB	n/a	LTP281	ltpFR2	0	n/a	n/a	n/a	23	23	9	7	8
3372823	PROB	n/a	LTP281	ltpFR2	0	n/a	n/a	n/a	23	24	9	9	9
3375537	PROB	n/a	LTP281	ltpFR2	0	n/a	n/a	n/a	23	19	9	6	4
3378034	PROB	n/a	LTP281	ltpFR2	0	n/a	n/a	n/a	23	14	4	8	2
3379219	STOP	n/a	LTP281	ltpFR2	0	n/a	n/a	n/a	23	n/a	n/a	n/a	n/a
3382128	REC_START	n/a	LTP281	ltpFR2	0	16	n/a	n/a	n/a	n/a	0	0	0
3387161	REC_WORD	wordpools/wasnorm_wordpool_576.txt	LTP281	ltpFR2	0	16	FRIAR	605	n/a	n/a	0	0	0
3388161	REC_WORD_VV	wordpools/wasnorm_wordpool_576.txt	LTP281	ltpFR2	0	16	<>	-1	n/a	n/a	0	0	0
3389865	REC_WORD	wordpools/wasnorm_wordpool_576.txt	LTP281	ltpFR2	0	16	SET	-1	n/a	n/a	0	0	0
3458747	REST_REWET	n/a	LTP281	ltpFR2	0	16	n/a	n/a	n/a	n/a	0	0	0
3705867	DISTRACTOR	n/a	LTP281	ltpFR2	0	17	n/a	n/a	n/a	n/a	0	0	0
3705867	START	n/a	LTP281	ltpFR2	0	n/a	n/a	n/a	24	n/a	n/a	n/a	n/a
3705902	PROB	n/a	LTP281	ltpFR2	0	n/a	n/a	n/a	24	14	2	3	9
3709130	PROB	n/a	LTP281	ltpFR2	0	n/a	n/a	n/a	24	10	1	3	6
3711227	PROB	n/a	LTP281	ltpFR2	0	n/a	n/a	n/a	24	19	4	8	7
3714356	PROB	n/a	LTP281	ltpFR2	0	n/a	n/a	n/a	24	18	3	6	9
3716286	PROB	n/a	LTP281	ltpFR2	0	n/a	n/a	n/a	24	10	3	5	2
3719697	PROB	n/a	LTP281	ltpFR2	0	n/a	n/a	n/a	24	25	8	8	9
3723010	PROB	n/a	LTP281	ltpFR2	0	n/a	n/a	n/a	24	14	7	5	2
3725955	PROB	n/a	LTP281	ltpFR2	0	n/a	n/a	n/a	24	9	2	6	1
3729867	STOP	n/a	LTP281	ltpFR2	0	n/a	n/a	n/a	24	n/a	n/a	n/a	n/a
3730864	WORD	wordpools/wasnorm_wordpool_576.txt	LTP281	ltpFR2	0	17	ORCHID	982	n/a	n/a	0	0	0
3733643	WORD	wordpools/wasnorm_wordpool_576.txt	LTP281	ltpFR2	0	17	SHIRT	1287	n/a	n/a	0	0	0
3736190	WORD	wordpools/wasnorm_wordpool_576.txt	LTP281	ltpFR2	0	17	YACHT	1629	n/a	n/a	0	0	0
3738652	WORD	wordpools/wasnorm_wordpool_576.txt	LTP281	ltpFR2	0	17	OFFICE	972	n/a	n/a	0	0	0
3741366	WORD	wordpools/wasnorm_wordpool_576.txt	LTP281	ltpFR2	0	17	TRENCH	1503	n/a	n/a	0	0	0
3744129	WORD	wordpools/wasnorm_wordpool_576.txt	LTP281	ltpFR2	0	17	SHERIFF	1284	n/a	n/a	0	0	0
3746657	WORD	wordpools/wasnorm_wordpool_576.txt	LTP281	ltpFR2	0	17	BADGE	68	n/a	n/a	0	0	0
3749321	WORD	wordpools/wasnorm_wordpool_576.txt	LTP281	ltpFR2	0	17	LIZARD	834	n/a	n/a	0	0	0
3752067	WORD	wordpools/wasnorm_wordpool_576.txt	LTP281	ltpFR2	0	17	GARDEN	623	n/a	n/a	0	0	0
3754580	WORD	wordpools/wasnorm_wordpool_576.txt	LTP281	ltpFR2	0	17	HIGHWAY	707	n/a	n/a	0	0	0
3757359	WORD	wordpools/wasnorm_wordpool_576.txt	LTP281	ltpFR2	0	17	BRAKE	166	n/a	n/a	0	0	0
3760055	WORD	wordpools/wasnorm_wordpool_576.txt	LTP281	ltpFR2	0	17	UNCLE	1536	n/a	n/a	0	0	0
3762485	WORD	wordpools/wasnorm_wordpool_576.txt	LTP281	ltpFR2	0	17	SUMMIT	1405	n/a	n/a	0	0	0
3765214	WORD	wordpools/wasnorm_wordpool_576.txt	LTP281	ltpFR2	0	17	VALLEY	1545	n/a	n/a	0	0	0
3767843	WORD	wordpools/wasnorm_wordpool_576.txt	LTP281	ltpFR2	0	17	DOLPHIN	483	n/a	n/a	0	0	0
3770672	WORD	wordpools/wasnorm_wordpool_576.txt	LTP281	ltpFR2	0	17	WIDOW	1608	n/a	n/a	0	0	0
3773136	WORD	wordpools/wasnorm_wordpool_576.txt	LTP281	ltpFR2	0	17	DAUGHTER	442	n/a	n/a	0	0	0
3775665	WORD	wordpools/wasnorm_wordpool_576.txt	LTP281	ltpFR2	0	17	PIMPLE	1071	n/a	n/a	0	0	0
3778129	WORD	wordpools/wasnorm_wordpool_576.txt	LTP281	ltpFR2	0	17	STOMACH	1384	n/a	n/a	0	0	0
3780941	WORD	wordpools/wasnorm_wordpool_576.txt	LTP281	ltpFR2	0	17	PASTRY	1022	n/a	n/a	0	0	0
3783720	WORD	wordpools/wasnorm_wordpool_576.txt	LTP281	ltpFR2	0	17	COSTUME	383	n/a	n/a	0	0	0
3786466	WORD	wordpools/wasnorm_wordpool_576.txt	LTP281	ltpFR2	0	17	WOMAN	1620	n/a	n/a	0	0	0
3788979	WORD	wordpools/wasnorm_wordpool_576.txt	LTP281	ltpFR2	0	17	TOMBSTONE	1478	n/a	n/a	0	0	0
3791741	WORD	wordpools/wasnorm_wordpool_576.txt	LTP281	ltpFR2	0	17	ONION	977	n/a	n/a	0	0	0
3793357	START	n/a	LTP281	ltpFR2	0	n/a	n/a	n/a	25	n/a	n/a	n/a	n/a
3794425	DISTRACTOR	n/a	LTP281	ltpFR2	0	17	n/a	n/a	n/a	n/a	0	0	0
3794438	PROB	n/a	LTP281	ltpFR2	0	n/a	n/a	n/a	25	15	8	5	2
3798000	PROB	n/a	LTP281	ltpFR2	0	n/a	n/a	n/a	25	12	3	8	1
3799862	PROB	n/a	LTP281	ltpFR2	0	n/a	n/a	n/a	25	16	9	6	1
3801776	PROB	n/a	LTP281	ltpFR2	0	n/a	n/a	n/a	25	13	4	8	1
3803807	PROB	n/a	LTP281	ltpFR2	0	n/a	n/a	n/a	25	19	7	4	8
3811147	PROB	n/a	LTP281	ltpFR2	0	n/a	n/a	n/a	25	19	4	6	9
3813842	PROB	n/a	LTP281	ltpFR2	0	n/a	n/a	n/a	25	10	5	2	3
3816747	STOP	n/a	LTP281	ltpFR2	0	n/a	n/a	n/a	25	n/a	n/a	n/a	n/a
3819186	REC_START	n/a	LTP281	ltpFR2	0	17	n/a	n/a	n/a	n/a	0	0	0
3820100	REC_WORD	wordpools/wasnorm_wordpool_576.txt	LTP281	ltpFR2	0	17	PIMPLE	1071	n/a	n/a	0	0	0
3820902	REC_WORD	wordpools/wasnorm_wordpool_576.txt	LTP281	ltpFR2	0	17	DAUGHTER	442	n/a	n/a	0	0	0
3821720	REC_WORD	wordpools/wasnorm_wordpool_576.txt	LTP281	ltpFR2	0	17	WOMAN	1620	n/a	n/a	0	0	0
3825513	REC_WORD	wordpools/wasnorm_wordpool_576.txt	LTP281	ltpFR2	0	17	STOMACH	1384	n/a	n/a	0	0	0
3909851	DISTRACTOR	n/a	LTP281	ltpFR2	0	18	n/a	n/a	n/a	n/a	0	0	0
3909851	START	n/a	LTP281	ltpFR2	0	n/a	n/a	n/a	26	n/a	n/a	n/a	n/a
3909885	PROB	n/a	LTP281	ltpFR2	0	n/a	n/a	n/a	26	13	4	1	8
3912581	PROB	n/a	LTP281	ltpFR2	0	n/a	n/a	n/a	26	16	4	8	4
3915577	PROB	n/a	LTP281	ltpFR2	0	n/a	n/a	n/a	26	10	7	1	2
3917158	PROB	n/a	LTP281	ltpFR2	0	n/a	n/a	n/a	26	17	1	7	9
3920253	PROB	n/a	LTP281	ltpFR2	0	n/a	n/a	n/a	26	24	6	3	5
3923182	PROB	n/a	LTP281	ltpFR2	0	n/a	n/a	n/a	26	8	3	3	2
3925013	PROB	n/a	LTP281	ltpFR2	0	n/a	n/a	n/a	26	16	4	5	7
3927874	PROB	n/a	LTP281	ltpFR2	0	n/a	n/a	n/a	26	17	5	7	5
3929456	PROB	n/a	LTP281	ltpFR2	0	n/a	n/a	n/a	26	13	8	3	2
3933851	STOP	n/a	LTP281	ltpFR2	0	n/a	n/a	n/a	26	n/a	n/a	n/a	n/a
3934748	WORD	wordpools/wasnorm_wordpool_576.txt	LTP281	ltpFR2	0	18	SHELF	1280	n/a	n/a	0	0	0
3937428	WORD	wordpools/wasnorm_wordpool_576.txt	LTP281	ltpFR2	0	18	PASSAGE	1019	n/a	n/a	0	0	0
3940074	WORD	wordpools/wasnorm_wordpool_576.txt	LTP281	ltpFR2	0	18	HANDBAG	684	n/a	n/a	0	0	0
3942736	WORD	wordpools/wasnorm_wordpool_576.txt	LTP281	ltpFR2	0	18	SKILLET	1317	n/a	n/a	0	0	0
3945416	WORD	wordpools/wasnorm_wordpool_576.txt	LTP281	ltpFR2	0	18	YOLK	1633	n/a	n/a	0	0	0
3948062	WORD	wordpools/wasnorm_wordpool_576.txt	LTP281	ltpFR2	0	18	SLIDE	1326	n/a	n/a	0	0	0
3950542	WORD	wordpools/wasnorm_wordpool_576.txt	LTP281	ltpFR2	0	18	CREATURE	403	n/a	n/a	0	0	0
3953238	WORD	wordpools/wasnorm_wordpool_576.txt	LTP281	ltpFR2	0	18	FOX	598	n/a	n/a	0	0	0
3955800	WORD	wordpools/wasnorm_wordpool_576.txt	LTP281	ltpFR2	0	18	CELLAR	267	n/a	n/a	0	0	0
3958364	WORD	wordpools/wasnorm_wordpool_576.txt	LTP281	ltpFR2	0	18	TOURIST	1488	n/a	n/a	0	0	0
3960893	WORD	wordpools/wasnorm_wordpool_576.txt	LTP281	ltpFR2	0	18	WHISTLE	1606	n/a	n/a	0	0	0
3963622	WORD	wordpools/wasnorm_wordpool_576.txt	LTP281	ltpFR2	0	18	MESSAGE	888	n/a	n/a	0	0	0
3966169	WORD	wordpools/wasnorm_wordpool_576.txt	LTP281	ltpFR2	0	18	MARS	873	n/a	n/a	0	0	0
3968881	WORD	wordpools/wasnorm_wordpool_576.txt	LTP281	ltpFR2	0	18	CANDY	230	n/a	n/a	0	0	0
3971378	WORD	wordpools/wasnorm_wordpool_576.txt	LTP281	ltpFR2	0	18	LUMBER	848	n/a	n/a	0	0	0
3974124	WORD	wordpools/wasnorm_wordpool_576.txt	LTP281	ltpFR2	0	18	JURY	766	n/a	n/a	0	0	0
3976686	WORD	wordpools/wasnorm_wordpool_576.txt	LTP281	ltpFR2	0	18	PEANUT	1032	n/a	n/a	0	0	0
3979300	WORD	wordpools/wasnorm_wordpool_576.txt	LTP281	ltpFR2	0	18	SHOULDER	1294	n/a	n/a	0	0	0
3982062	WORD	wordpools/wasnorm_wordpool_576.txt	LTP281	ltpFR2	0	18	PREACHER	1119	n/a	n/a	0	0	0
3984741	WORD	wordpools/wasnorm_wordpool_576.txt	LTP281	ltpFR2	0	18	TRIBE	1505	n/a	n/a	0	0	0
3987521	WORD	wordpools/wasnorm_wordpool_576.txt	LTP281	ltpFR2	0	18	STAMP	1370	n/a	n/a	0	0	0
3990101	WORD	wordpools/wasnorm_wordpool_576.txt	LTP281	ltpFR2	0	18	CHAPEL	280	n/a	n/a	0	0	0
3992913	WORD	wordpools/wasnorm_wordpool_576.txt	LTP281	ltpFR2	0	18	IGLOO	734	n/a	n/a	0	0	0
3995675	WORD	wordpools/wasnorm_wordpool_576.txt	LTP281	ltpFR2	0	18	MUMMY	932	n/a	n/a	0	0	0
3997290	START	n/a	LTP281	ltpFR2	0	n/a	n/a	n/a	27	n/a	n/a	n/a	n/a
3998275	DISTRACTOR	n/a	LTP281	ltpFR2	0	18	n/a	n/a	n/a	n/a	0	0	0
3998288	PROB	n/a	LTP281	ltpFR2	0	n/a	n/a	n/a	27	10	6	3	1
4001649	PROB	n/a	LTP281	ltpFR2	0	n/a	n/a	n/a	27	8	2	1	5
4003679	PROB	n/a	LTP281	ltpFR2	0	n/a	n/a	n/a	27	15	1	6	9
4007375	PROB	n/a	LTP281	ltpFR2	0	n/a	n/a	n/a	27	13	7	1	5
4009754	PROB	n/a	LTP281	ltpFR2	0	n/a	n/a	n/a	27	15	6	8	1
4012633	PROB	n/a	LTP281	ltpFR2	0	n/a	n/a	n/a	27	8	1	4	3
4014548	PROB	n/a	LTP281	ltpFR2	0	n/a	n/a	n/a	27	17	4	6	7
4021290	STOP	n/a	LTP281	ltpFR2	0	n/a	n/a	n/a	27	n/a	n/a	n/a	n/a
4023202	REC_START	n/a	LTP281	ltpFR2	0	18	n/a	n/a	n/a	n/a	0	0	0
4024209	REC_WORD	wordpools/wasnorm_wordpool_576.txt	LTP281	ltpFR2	0	18	IGLOO	734	n/a	n/a	0	0	0
4026033	REC_WORD	wordpools/wasnorm_wordpool_576.txt	LTP281	ltpFR2	0	18	PREACHER	1119	n/a	n/a	0	0	0
4027686	REC_WORD	wordpools/wasnorm_wordpool_576.txt	LTP281	ltpFR2	0	18	CHAPEL	280	n/a	n/a	0	0	0
4042105	REC_WORD	wordpools/wasnorm_wordpool_576.txt	LTP281	ltpFR2	0	18	YOLK	1633	n/a	n/a	0	0	0
4053999	REC_WORD	wordpools/wasnorm_wordpool_576.txt	LTP281	ltpFR2	0	18	TOURIST	1488	n/a	n/a	0	0	0
4054924	REC_WORD	wordpools/wasnorm_wordpool_576.txt	LTP281	ltpFR2	0	18	CELLAR	267	n/a	n/a	0	0	0
4064999	REC_WORD	wordpools/wasnorm_wordpool_576.txt	LTP281	ltpFR2	0	18	MUMMY	932	n/a	n/a	0	0	0
4113868	DISTRACTOR	n/a	LTP281	ltpFR2	0	19	n/a	n/a	n/a	n/a	0	0	0
4113868	START	n/a	LTP281	ltpFR2	0	n/a	n/a	n/a	28	n/a	n/a	n/a	n/a
4113902	PROB	n/a	LTP281	ltpFR2	0	n/a	n/a	n/a	28	10	3	4	3
4116182	PROB	n/a	LTP281	ltpFR2	0	n/a	n/a	n/a	28	14	6	6	2
4117862	PROB	n/a	LTP281	ltpFR2	0	n/a	n/a	n/a	28	18	7	2	9
4120059	PROB	n/a	LTP281	ltpFR2	0	n/a	n/a	n/a	28	16	7	7	2
4121524	PROB	n/a	LTP281	ltpFR2	0	n/a	n/a	n/a	28	20	3	9	8
4124718	PROB	n/a	LTP281	ltpFR2	0	n/a	n/a	n/a	28	18	8	8	2
4127780	PROB	n/a	LTP281	ltpFR2	0	n/a	n/a	n/a	28	23	5	9	9
4130261	PROB	n/a	LTP281	ltpFR2	0	n/a	n/a	n/a	28	12	8	3	3
4135685	PROB	n/a	LTP281	ltpFR2	0	n/a	n/a	n/a	28	10	1	7	2
4137508	STOP	n/a	LTP281	ltpFR2	0	n/a	n/a	n/a	28	n/a	n/a	n/a	n/a
4138714	WORD	wordpools/wasnorm_wordpool_576.txt	LTP281	ltpFR2	0	19	CONTRACT	368	n/a	n/a	0	0	0
4141262	WORD	wordpools/wasnorm_wordpool_576.txt	LTP281	ltpFR2	0	19	JEANS	752	n/a	n/a	0	0	0
4143958	WORD	wordpools/wasnorm_wordpool_576.txt	LTP281	ltpFR2	0	19	EXPERT	543	n/a	n/a	0	0	0
4146554	WORD	wordpools/wasnorm_wordpool_576.txt	LTP281	ltpFR2	0	19	RECEIPT	1173	n/a	n/a	0	0	0
4149083	WORD	wordpools/wasnorm_wordpool_576.txt	LTP281	ltpFR2	0	19	SHORTS	1293	n/a	n/a	0	0	0
4151679	WORD	wordpools/wasnorm_wordpool_576.txt	LTP281	ltpFR2	0	19	TUTU	1524	n/a	n/a	0	0	0
4154143	WORD	wordpools/wasnorm_wordpool_576.txt	LTP281	ltpFR2	0	19	COIN	343	n/a	n/a	0	0	0
4156838	WORD	wordpools/wasnorm_wordpool_576.txt	LTP281	ltpFR2	0	19	SWIMMER	1420	n/a	n/a	0	0	0
4159418	WORD	wordpools/wasnorm_wordpool_576.txt	LTP281	ltpFR2	0	19	CYCLONE	431	n/a	n/a	0	0	0
4161931	WORD	wordpools/wasnorm_wordpool_576.txt	LTP281	ltpFR2	0	19	PEDAL	1037	n/a	n/a	0	0	0
4164660	WORD	wordpools/wasnorm_wordpool_576.txt	LTP281	ltpFR2	0	19	BIKE	125	n/a	n/a	0	0	0
4167290	WORD	wordpools/wasnorm_wordpool_576.txt	LTP281	ltpFR2	0	19	FOOTBALL	591	n/a	n/a	0	0	0
4170119	WORD	wordpools/wasnorm_wordpool_576.txt	LTP281	ltpFR2	0	19	SPIDER	1351	n/a	n/a	0	0	0
4172848	WORD	wordpools/wasnorm_wordpool_576.txt	LTP281	ltpFR2	0	19	GRIZZLY	662	n/a	n/a	0	0	0
4175660	WORD	wordpools/wasnorm_wordpool_576.txt	LTP281	ltpFR2	0	19	YARN	1631	n/a	n/a	0	0	0
4178291	WORD	wordpools/wasnorm_wordpool_576.txt	LTP281	ltpFR2	0	19	MONEY	908	n/a	n/a	0	0	0
4181037	WORD	wordpools/wasnorm_wordpool_576.txt	LTP281	ltpFR2	0	19	MASK	876	n/a	n/a	0	0	0
4183731	WORD	wordpools/wasnorm_wordpool_576.txt	LTP281	ltpFR2	0	19	STREAM	1392	n/a	n/a	0	0	0
4186395	WORD	wordpools/wasnorm_wordpool_576.txt	LTP281	ltpFR2	0	19	CHILD	299	n/a	n/a	0	0	0
4188824	WORD	wordpools/wasnorm_wordpool_576.txt	LTP281	ltpFR2	0	19	PLAYGROUND	1087	n/a	n/a	0	0	0
4191471	WORD	wordpools/wasnorm_wordpool_576.txt	LTP281	ltpFR2	0	19	BARLEY	88	n/a	n/a	0	0	0
4193951	WORD	wordpools/wasnorm_wordpool_576.txt	LTP281	ltpFR2	0	19	GARLIC	624	n/a	n/a	0	0	0
4196397	WORD	wordpools/wasnorm_wordpool_576.txt	LTP281	ltpFR2	0	19	SMOG	1330	n/a	n/a	0	0	0
4198927	WORD	wordpools/wasnorm_wordpool_576.txt	LTP281	ltpFR2	0	19	BANJO	82	n/a	n/a	0	0	0
4200541	START	n/a	LTP281	ltpFR2	0	n/a	n/a	n/a	29	n/a	n/a	n/a	n/a
4201451	DISTRACTOR	n/a	LTP281	ltpFR2	0	19	n/a	n/a	n/a	n/a	0	0	0
4201457	PROB	n/a	LTP281	ltpFR2	0	n/a	n/a	n/a	29	21	6	8	7
4206033	PROB	n/a	LTP281	ltpFR2	0	n/a	n/a	n/a	29	21	9	5	7
4209578	PROB	n/a	LTP281	ltpFR2	0	n/a	n/a	n/a	29	10	2	2	6
4211475	PROB	n/a	LTP281	ltpFR2	0	n/a	n/a	n/a	29	17	7	6	4
4215453	PROB	n/a	LTP281	ltpFR2	0	n/a	n/a	n/a	29	21	5	9	7
4218165	PROB	n/a	LTP281	ltpFR2	0	n/a	n/a	n/a	29	12	2	8	2
4220429	PROB	n/a	LTP281	ltpFR2	0	n/a	n/a	n/a	29	15	4	5	6
4224541	STOP	n/a	LTP281	ltpFR2	0	n/a	n/a	n/a	29	n/a	n/a	n/a	n/a
4226470	REC_START	n/a	LTP281	ltpFR2	0	19	n/a	n/a	n/a	n/a	0	0	0
4227181	REC_WORD	wordpools/wasnorm_wordpool_576.txt	LTP281	ltpFR2	0	19	SMOG	1330	n/a	n/a	0	0	0
4228186	REC_WORD	wordpools/wasnorm_wordpool_576.txt	LTP281	ltpFR2	0	19	GARLIC	624	n/a	n/a	0	0	0
4228883	REC_WORD	wordpools/wasnorm_wordpool_576.txt	LTP281	ltpFR2	0	19	BANJO	82	n/a	n/a	0	0	0
4229566	REC_WORD	wordpools/wasnorm_wordpool_576.txt	LTP281	ltpFR2	0	19	CHILD	299	n/a	n/a	0	0	0
4230333	REC_WORD	wordpools/wasnorm_wordpool_576.txt	LTP281	ltpFR2	0	19	PLAYGROUND	1087	n/a	n/a	0	0	0
4317153	WORD	wordpools/wasnorm_wordpool_576.txt	LTP281	ltpFR2	0	20	STATUE	1374	n/a	n/a	0	0	0
4319616	WORD	wordpools/wasnorm_wordpool_576.txt	LTP281	ltpFR2	0	20	BACON	67	n/a	n/a	0	0	0
4322229	WORD	wordpools/wasnorm_wordpool_576.txt	LTP281	ltpFR2	0	20	OMELET	976	n/a	n/a	0	0	0
4324874	WORD	wordpools/wasnorm_wordpool_576.txt	LTP281	ltpFR2	0	20	DIVER	476	n/a	n/a	0	0	0
4327321	WORD	wordpools/wasnorm_wordpool_576.txt	LTP281	ltpFR2	0	20	SNACK	1331	n/a	n/a	0	0	0
4329934	WORD	wordpools/wasnorm_wordpool_576.txt	LTP281	ltpFR2	0	20	LONDON	843	n/a	n/a	0	0	0
4332464	WORD	wordpools/wasnorm_wordpool_576.txt	LTP281	ltpFR2	0	20	BUCKET	184	n/a	n/a	0	0	0
4334894	WORD	wordpools/wasnorm_wordpool_576.txt	LTP281	ltpFR2	0	20	CORAL	378	n/a	n/a	0	0	0
4337590	WORD	wordpools/wasnorm_wordpool_576.txt	LTP281	ltpFR2	0	20	LABEL	790	n/a	n/a	0	0	0
4340053	WORD	wordpools/wasnorm_wordpool_576.txt	LTP281	ltpFR2	0	20	GAZELLE	628	n/a	n/a	0	0	0
4342848	WORD	wordpools/wasnorm_wordpool_576.txt	LTP281	ltpFR2	0	20	CROWN	415	n/a	n/a	0	0	0
4345428	WORD	wordpools/wasnorm_wordpool_576.txt	LTP281	ltpFR2	0	20	THIEF	1456	n/a	n/a	0	0	0
4348191	WORD	wordpools/wasnorm_wordpool_576.txt	LTP281	ltpFR2	0	20	COUNTRY	388	n/a	n/a	0	0	0
4350769	WORD	wordpools/wasnorm_wordpool_576.txt	LTP281	ltpFR2	0	20	HOOD	714	n/a	n/a	0	0	0
4353433	WORD	wordpools/wasnorm_wordpool_576.txt	LTP281	ltpFR2	0	20	CHAUFFEUR	283	n/a	n/a	0	0	0
4355979	WORD	wordpools/wasnorm_wordpool_576.txt	LTP281	ltpFR2	0	20	ROBIN	1199	n/a	n/a	0	0	0
4358724	WORD	wordpools/wasnorm_wordpool_576.txt	LTP281	ltpFR2	0	20	JELLO	754	n/a	n/a	0	0	0
4361238	WORD	wordpools/wasnorm_wordpool_576.txt	LTP281	ltpFR2	0	20	INMATE	738	n/a	n/a	0	0	0
4363984	WORD	wordpools/wasnorm_wordpool_576.txt	LTP281	ltpFR2	0	20	OINTMENT	974	n/a	n/a	0	0	0
4366663	WORD	wordpools/wasnorm_wordpool_576.txt	LTP281	ltpFR2	0	20	CRAYON	401	n/a	n/a	0	0	0
4369243	WORD	wordpools/wasnorm_wordpool_576.txt	LTP281	ltpFR2	0	20	HELMET	702	n/a	n/a	0	0	0
4371672	WORD	wordpools/wasnorm_wordpool_576.txt	LTP281	ltpFR2	0	20	CONVICT	371	n/a	n/a	0	0	0
4374286	WORD	wordpools/wasnorm_wordpool_576.txt	LTP281	ltpFR2	0	20	PARROT	1015	n/a	n/a	0	0	0
4377015	WORD	wordpools/wasnorm_wordpool_576.txt	LTP281	ltpFR2	0	20	MATCH	878	n/a	n/a	0	0	0
4378629	START	n/a	LTP281	ltpFR2	0	n/a	n/a	n/a	30	n/a	n/a	n/a	n/a
4379770	DISTRACTOR	n/a	LTP281	ltpFR2	0	20	n/a	n/a	n/a	n/a	0	0	0
4379777	PROB	n/a	LTP281	ltpFR2	0	n/a	n/a	n/a	30	13	4	4	5
4382756	PROB	n/a	LTP281	ltpFR2	0	n/a	n/a	n/a	30	19	3	9	7
4385751	PROB	n/a	LTP281	ltpFR2	0	n/a	n/a	n/a	30	15	4	3	8
4388182	PROB	n/a	LTP281	ltpFR2	0	n/a	n/a	n/a	30	5	1	3	1
4389414	PROB	n/a	LTP281	ltpFR2	0	n/a	n/a	n/a	30	12	5	2	5
4390877	PROB	n/a	LTP281	ltpFR2	0	n/a	n/a	n/a	30	14	6	1	7
4392908	PROB	n/a	LTP281	ltpFR2	0	n/a	n/a	n/a	30	11	4	6	1
4394539	PROB	n/a	LTP281	ltpFR2	0	n/a	n/a	n/a	30	15	5	9	1
4396004	PROB	n/a	LTP281	ltpFR2	0	n/a	n/a	n/a	30	17	4	8	5
4400114	PROB	n/a	LTP281	ltpFR2	0	n/a	n/a	n/a	30	19	5	5	9
4401586	STOP	n/a	LTP281	ltpFR2	0	n/a	n/a	n/a	30	n/a	n/a	n/a	n/a
4404509	REC_START	n/a	LTP281	ltpFR2	0	20	n/a	n/a	n/a	n/a	0	0	0
4405850	REC_WORD	wordpools/wasnorm_wordpool_576.txt	LTP281	ltpFR2	0	20	INMATE	738	n/a	n/a	0	0	0
4406571	REC_WORD	wordpools/wasnorm_wordpool_576.txt	LTP281	ltpFR2	0	20	CONVICT	371	n/a	n/a	0	0	0
4407571	REC_WORD_VV	wordpools/wasnorm_wordpool_576.txt	LTP281	ltpFR2	0	20	<>	-1	n/a	n/a	0	0	0
4407729	REC_WORD	wordpools/wasnorm_wordpool_576.txt	LTP281	ltpFR2	0	20	CHAUFFEUR	283	n/a	n/a	0	0	0
4408729	REC_WORD_VV	wordpools/wasnorm_wordpool_576.txt	LTP281	ltpFR2	0	20	<>	-1	n/a	n/a	0	0	0
4409407	REC_WORD	wordpools/wasnorm_wordpool_576.txt	LTP281	ltpFR2	0	20	OINTMENT	974	n/a	n/a	0	0	0
4415744	REC_WORD	wordpools/wasnorm_wordpool_576.txt	LTP281	ltpFR2	0	20	BACON	67	n/a	n/a	0	0	0
4416384	REC_WORD	wordpools/wasnorm_wordpool_576.txt	LTP281	ltpFR2	0	20	STATUE	1374	n/a	n/a	0	0	0
4417461	REC_WORD	wordpools/wasnorm_wordpool_576.txt	LTP281	ltpFR2	0	20	DIVER	476	n/a	n/a	0	0	0
4418307	REC_WORD	wordpools/wasnorm_wordpool_576.txt	LTP281	ltpFR2	0	20	OMELET	976	n/a	n/a	0	0	0
4419236	REC_WORD	wordpools/wasnorm_wordpool_576.txt	LTP281	ltpFR2	0	20	SNACK	1331	n/a	n/a	0	0	0
4431102	REC_WORD	wordpools/wasnorm_wordpool_576.txt	LTP281	ltpFR2	0	20	GAZELLE	628	n/a	n/a	0	0	0
4431742	REC_WORD	wordpools/wasnorm_wordpool_576.txt	LTP281	ltpFR2	0	20	CROWN	415	n/a	n/a	0	0	0
4432367	REC_WORD	wordpools/wasnorm_wordpool_576.txt	LTP281	ltpFR2	0	20	THIEF	1456	n/a	n/a	0	0	0
4433857	REC_WORD	wordpools/wasnorm_wordpool_576.txt	LTP281	ltpFR2	0	20	COUNTRY	388	n/a	n/a	0	0	0
4495175	DISTRACTOR	n/a	LTP281	ltpFR2	0	21	n/a	n/a	n/a	n/a	0	0	0
4495175	START	n/a	LTP281	ltpFR2	0	n/a	n/a	n/a	31	n/a	n/a	n/a	n/a
4495208	PROB	n/a	LTP281	ltpFR2	0	n/a	n/a	n/a	31	20	7	4	9
4498370	PROB	n/a	LTP281	ltpFR2	0	n/a	n/a	n/a	31	17	8	2	7
4500417	PROB	n/a	LTP281	ltpFR2	0	n/a	n/a	n/a	31	21	9	4	8
4503995	PROB	n/a	LTP281	ltpFR2	0	n/a	n/a	n/a	31	19	4	6	9
4505858	PROB	n/a	LTP281	ltpFR2	0	n/a	n/a	n/a	31	8	2	5	1
4507655	PROB	n/a	LTP281	ltpFR2	0	n/a	n/a	n/a	31	21	9	8	7
4509886	PROB	n/a	LTP281	ltpFR2	0	n/a	n/a	n/a	31	8	3	4	1
4511983	PROB	n/a	LTP281	ltpFR2	0	n/a	n/a	n/a	31	9	3	3	3
4513265	PROB	n/a	LTP281	ltpFR2	0	n/a	n/a	n/a	31	14	6	4	4
4514946	PROB	n/a	LTP281	ltpFR2	0	n/a	n/a	n/a	31	15	9	3	2
4519175	STOP	n/a	LTP281	ltpFR2	0	n/a	n/a	n/a	31	n/a	n/a	n/a	n/a
4520005	WORD	wordpools/wasnorm_wordpool_576.txt	LTP281	ltpFR2	0	21	WRENCH	1625	n/a	n/a	0	0	0
4522667	WORD	wordpools/wasnorm_wordpool_576.txt	LTP281	ltpFR2	0	21	ANKLE	24	n/a	n/a	0	0	0
4525480	WORD	wordpools/wasnorm_wordpool_576.txt	LTP281	ltpFR2	0	21	WRIST	1626	n/a	n/a	0	0	0
4528193	WORD	wordpools/wasnorm_wordpool_576.txt	LTP281	ltpFR2	0	21	PAPER	1011	n/a	n/a	0	0	0
4530738	WORD	wordpools/wasnorm_wordpool_576.txt	LTP281	ltpFR2	0	21	MACHINE	852	n/a	n/a	0	0	0
4533418	WORD	wordpools/wasnorm_wordpool_576.txt	LTP281	ltpFR2	0	21	ROBOT	1200	n/a	n/a	0	0	0
4535898	WORD	wordpools/wasnorm_wordpool_576.txt	LTP281	ltpFR2	0	21	LUGGAGE	847	n/a	n/a	0	0	0
4538511	WORD	wordpools/wasnorm_wordpool_576.txt	LTP281	ltpFR2	0	21	SADDLE	1221	n/a	n/a	0	0	0
4541190	WORD	wordpools/wasnorm_wordpool_576.txt	LTP281	ltpFR2	0	21	FOOT	590	n/a	n/a	0	0	0
4543736	WORD	wordpools/wasnorm_wordpool_576.txt	LTP281	ltpFR2	0	21	NAPKIN	937	n/a	n/a	0	0	0
4546416	WORD	wordpools/wasnorm_wordpool_576.txt	LTP281	ltpFR2	0	21	PIZZA	1079	n/a	n/a	0	0	0
4548962	WORD	wordpools/wasnorm_wordpool_576.txt	LTP281	ltpFR2	0	21	LEADER	807	n/a	n/a	0	0	0
4551592	WORD	wordpools/wasnorm_wordpool_576.txt	LTP281	ltpFR2	0	21	QUEEN	1149	n/a	n/a	0	0	0
4554238	WORD	wordpools/wasnorm_wordpool_576.txt	LTP281	ltpFR2	0	21	HARP	689	n/a	n/a	0	0	0
4557000	WORD	wordpools/wasnorm_wordpool_576.txt	LTP281	ltpFR2	0	21	LEG	809	n/a	n/a	0	0	0
4559779	WORD	wordpools/wasnorm_wordpool_576.txt	LTP281	ltpFR2	0	21	PIANO	1057	n/a	n/a	0	0	0
4562276	WORD	wordpools/wasnorm_wordpool_576.txt	LTP281	ltpFR2	0	21	FLUTE	585	n/a	n/a	0	0	0
4564889	WORD	wordpools/wasnorm_wordpool_576.txt	LTP281	ltpFR2	0	21	RIVER	1194	n/a	n/a	0	0	0
4567684	WORD	wordpools/wasnorm_wordpool_576.txt	LTP281	ltpFR2	0	21	TREAT	1501	n/a	n/a	0	0	0
4570364	WORD	wordpools/wasnorm_wordpool_576.txt	LTP281	ltpFR2	0	21	ROD	1203	n/a	n/a	0	0	0
4572894	WORD	wordpools/wasnorm_wordpool_576.txt	LTP281	ltpFR2	0	21	SISTER	1312	n/a	n/a	0	0	0
4575324	WORD	wordpools/wasnorm_wordpool_576.txt	LTP281	ltpFR2	0	21	FLASHLIGHT	575	n/a	n/a	0	0	0
4577752	WORD	wordpools/wasnorm_wordpool_576.txt	LTP281	ltpFR2	0	21	COCKTAIL	338	n/a	n/a	0	0	0
4580183	WORD	wordpools/wasnorm_wordpool_576.txt	LTP281	ltpFR2	0	21	COFFEE	341	n/a	n/a	0	0	0
4581797	START	n/a	LTP281	ltpFR2	0	n/a	n/a	n/a	32	n/a	n/a	n/a	n/a
4582918	DISTRACTOR	n/a	LTP281	ltpFR2	0	21	n/a	n/a	n/a	n/a	0	0	0
4582929	PROB	n/a	LTP281	ltpFR2	0	n/a	n/a	n/a	32	8	1	5	2
4585143	PROB	n/a	LTP281	ltpFR2	0	n/a	n/a	n/a	32	12	3	2	7
4586839	PROB	n/a	LTP281	ltpFR2	0	n/a	n/a	n/a	32	12	5	6	1
4590035	PROB	n/a	LTP281	ltpFR2	0	n/a	n/a	n/a	32	14	1	8	5
4592182	PROB	n/a	LTP281	ltpFR2	0	n/a	n/a	n/a	32	13	7	1	5
4594429	PROB	n/a	LTP281	ltpFR2	0	n/a	n/a	n/a	32	6	1	4	1
4595876	PROB	n/a	LTP281	ltpFR2	0	n/a	n/a	n/a	32	17	6	2	9
4598589	PROB	n/a	LTP281	ltpFR2	0	n/a	n/a	n/a	32	11	9	1	1
4600785	PROB	n/a	LTP281	ltpFR2	0	n/a	n/a	n/a	32	13	3	6	4
4602966	PROB	n/a	LTP281	ltpFR2	0	n/a	n/a	n/a	32	14	2	7	5
4605351	STOP	n/a	LTP281	ltpFR2	0	n/a	n/a	n/a	32	n/a	n/a	n/a	n/a
4607577	REC_START	n/a	LTP281	ltpFR2	0	21	n/a	n/a	n/a	n/a	0	0	0
4609013	REC_WORD	wordpools/wasnorm_wordpool_576.txt	LTP281	ltpFR2	0	21	WRENCH	1625	n/a	n/a	0	0	0
4609885	REC_WORD	wordpools/wasnorm_wordpool_576.txt	LTP281	ltpFR2	0	21	COCKTAIL	338	n/a	n/a	0	0	0
4610740	REC_WORD	wordpools/wasnorm_wordpool_576.txt	LTP281	ltpFR2	0	21	SISTER	1312	n/a	n/a	0	0	0
4612131	REC_WORD	wordpools/wasnorm_wordpool_576.txt	LTP281	ltpFR2	0	21	FOOT	590	n/a	n/a	0	0	0
4612957	REC_WORD	wordpools/wasnorm_wordpool_576.txt	LTP281	ltpFR2	0	21	ANKLE	24	n/a	n/a	0	0	0
4613688	REC_WORD	wordpools/wasnorm_wordpool_576.txt	LTP281	ltpFR2	0	21	LEG	809	n/a	n/a	0	0	0
4614235	REC_WORD	wordpools/wasnorm_wordpool_576.txt	LTP281	ltpFR2	0	21	PIANO	1057	n/a	n/a	0	0	0
4614993	REC_WORD	wordpools/wasnorm_wordpool_576.txt	LTP281	ltpFR2	0	21	HARP	689	n/a	n/a	0	0	0
4615735	REC_WORD	wordpools/wasnorm_wordpool_576.txt	LTP281	ltpFR2	0	21	FLUTE	585	n/a	n/a	0	0	0
4698210	DISTRACTOR	n/a	LTP281	ltpFR2	0	22	n/a	n/a	n/a	n/a	0	0	0
4698210	START	n/a	LTP281	ltpFR2	0	n/a	n/a	n/a	33	n/a	n/a	n/a	n/a
4698243	PROB	n/a	LTP281	ltpFR2	0	n/a	n/a	n/a	33	17	8	4	5
4700972	PROB	n/a	LTP281	ltpFR2	0	n/a	n/a	n/a	33	13	4	1	8
4702969	PROB	n/a	LTP281	ltpFR2	0	n/a	n/a	n/a	33	14	3	8	3
4705199	PROB	n/a	LTP281	ltpFR2	0	n/a	n/a	n/a	33	18	9	1	8
4707529	PROB	n/a	LTP281	ltpFR2	0	n/a	n/a	n/a	33	12	2	6	4
4709293	PROB	n/a	LTP281	ltpFR2	0	n/a	n/a	n/a	33	14	9	2	3
4711973	PROB	n/a	LTP281	ltpFR2	0	n/a	n/a	n/a	33	13	7	3	3
4714053	PROB	n/a	LTP281	ltpFR2	0	n/a	n/a	n/a	33	20	4	8	8
4716848	PROB	n/a	LTP281	ltpFR2	0	n/a	n/a	n/a	33	13	6	3	4
4722210	STOP	n/a	LTP281	ltpFR2	0	n/a	n/a	n/a	33	n/a	n/a	n/a	n/a
4723239	WORD	wordpools/wasnorm_wordpool_576.txt	LTP281	ltpFR2	0	22	POWDER	1117	n/a	n/a	0	0	0
4725685	WORD	wordpools/wasnorm_wordpool_576.txt	LTP281	ltpFR2	0	22	PARENT	1013	n/a	n/a	0	0	0
4728282	WORD	wordpools/wasnorm_wordpool_576.txt	LTP281	ltpFR2	0	22	CATCHER	258	n/a	n/a	0	0	0
4730961	WORD	wordpools/wasnorm_wordpool_576.txt	LTP281	ltpFR2	0	22	BOX	159	n/a	n/a	0	0	0
4733491	WORD	wordpools/wasnorm_wordpool_576.txt	LTP281	ltpFR2	0	22	DRINK	498	n/a	n/a	0	0	0
4736254	WORD	wordpools/wasnorm_wordpool_576.txt	LTP281	ltpFR2	0	22	BRACES	164	n/a	n/a	0	0	0
4739016	WORD	wordpools/wasnorm_wordpool_576.txt	LTP281	ltpFR2	0	22	PERMIT	1051	n/a	n/a	0	0	0
4741695	WORD	wordpools/wasnorm_wordpool_576.txt	LTP281	ltpFR2	0	22	BEAVER	109	n/a	n/a	0	0	0
4744225	WORD	wordpools/wasnorm_wordpool_576.txt	LTP281	ltpFR2	0	22	BISON	131	n/a	n/a	0	0	0
4746687	WORD	wordpools/wasnorm_wordpool_576.txt	LTP281	ltpFR2	0	22	GIFT	635	n/a	n/a	0	0	0
4749301	WORD	wordpools/wasnorm_wordpool_576.txt	LTP281	ltpFR2	0	22	SKIRT	1319	n/a	n/a	0	0	0
4751813	WORD	wordpools/wasnorm_wordpool_576.txt	LTP281	ltpFR2	0	22	CLAMP	316	n/a	n/a	0	0	0
4754377	WORD	wordpools/wasnorm_wordpool_576.txt	LTP281	ltpFR2	0	22	TRACTOR	1493	n/a	n/a	0	0	0
4756907	WORD	wordpools/wasnorm_wordpool_576.txt	LTP281	ltpFR2	0	22	EYELASH	546	n/a	n/a	0	0	0
4759436	WORD	wordpools/wasnorm_wordpool_576.txt	LTP281	ltpFR2	0	22	FIREPLACE	570	n/a	n/a	0	0	0
4761933	WORD	wordpools/wasnorm_wordpool_576.txt	LTP281	ltpFR2	0	22	ICEBERG	731	n/a	n/a	0	0	0
4764678	WORD	wordpools/wasnorm_wordpool_576.txt	LTP281	ltpFR2	0	22	PEBBLE	1035	n/a	n/a	0	0	0
4767391	WORD	wordpools/wasnorm_wordpool_576.txt	LTP281	ltpFR2	0	22	STONE	1385	n/a	n/a	0	0	0
4770104	WORD	wordpools/wasnorm_wordpool_576.txt	LTP281	ltpFR2	0	22	ITEM	746	n/a	n/a	0	0	0
4772600	WORD	wordpools/wasnorm_wordpool_576.txt	LTP281	ltpFR2	0	22	MARKER	870	n/a	n/a	0	0	0
4775330	WORD	wordpools/wasnorm_wordpool_576.txt	LTP281	ltpFR2	0	22	AIRPLANE	12	n/a	n/a	0	0	0
4778125	WORD	wordpools/wasnorm_wordpool_576.txt	LTP281	ltpFR2	0	22	SIBLING	1301	n/a	n/a	0	0	0
4780572	WORD	wordpools/wasnorm_wordpool_576.txt	LTP281	ltpFR2	0	22	COUSIN	392	n/a	n/a	0	0	0
4783334	WORD	wordpools/wasnorm_wordpool_576.txt	LTP281	ltpFR2	0	22	FREEZER	604	n/a	n/a	0	0	0
4784949	START	n/a	LTP281	ltpFR2	0	n/a	n/a	n/a	34	n/a	n/a	n/a	n/a
4785898	DISTRACTOR	n/a	LTP281	ltpFR2	0	22	n/a	n/a	n/a	n/a	0	0	0
4785914	PROB	n/a	LTP281	ltpFR2	0	n/a	n/a	n/a	34	10	6	2	2
4788261	PROB	n/a	LTP281	ltpFR2	0	n/a	n/a	n/a	34	8	1	4	3
4790623	PROB	n/a	LTP281	ltpFR2	0	n/a	n/a	n/a	34	7	3	3	1
4792005	PROB	n/a	LTP281	ltpFR2	0	n/a	n/a	n/a	34	14	7	1	6
4794800	PROB	n/a	LTP281	ltpFR2	0	n/a	n/a	n/a	34	20	5	8	7
4797397	PROB	n/a	LTP281	ltpFR2	0	n/a	n/a	n/a	34	9	2	1	6
4799676	PROB	n/a	LTP281	ltpFR2	0	n/a	n/a	n/a	34	14	6	4	4
4801341	PROB	n/a	LTP281	ltpFR2	0	n/a	n/a	n/a	34	17	9	4	5
4804287	PROB	n/a	LTP281	ltpFR2	0	n/a	n/a	n/a	34	16	1	9	6
4807722	STOP	n/a	LTP281	ltpFR2	0	n/a	n/a	n/a	34	n/a	n/a	n/a	n/a
4810810	REC_START	n/a	LTP281	ltpFR2	0	22	n/a	n/a	n/a	n/a	0	0	0
4811951	REC_WORD	wordpools/wasnorm_wordpool_576.txt	LTP281	ltpFR2	0	22	MARKER	870	n/a	n/a	0	0	0
4812856	REC_WORD	wordpools/wasnorm_wordpool_576.txt	LTP281	ltpFR2	0	22	SIBLING	1301	n/a	n/a	0	0	0
4813823	REC_WORD	wordpools/wasnorm_wordpool_576.txt	LTP281	ltpFR2	0	22	COUSIN	392	n/a	n/a	0	0	0
4814596	REC_WORD	wordpools/wasnorm_wordpool_576.txt	LTP281	ltpFR2	0	22	PARENT	1013	n/a	n/a	0	0	0
4861608	REC_WORD	wordpools/wasnorm_wordpool_576.txt	LTP281	ltpFR2	0	22	BEAVER	109	n/a	n/a	0	0	0
4901477	WORD	wordpools/wasnorm_wordpool_576.txt	LTP281	ltpFR2	0	23	DUST	508	n/a	n/a	0	0	0
4903990	WORD	wordpools/wasnorm_wordpool_576.txt	LTP281	ltpFR2	0	23	DOUGHNUT	490	n/a	n/a	0	0	0
4906769	WORD	wordpools/wasnorm_wordpool_576.txt	LTP281	ltpFR2	0	23	TART	1436	n/a	n/a	0	0	0
4909199	WORD	wordpools/wasnorm_wordpool_576.txt	LTP281	ltpFR2	0	23	HUSBAND	728	n/a	n/a	0	0	0
4911728	WORD	wordpools/wasnorm_wordpool_576.txt	LTP281	ltpFR2	0	23	CASHIER	254	n/a	n/a	0	0	0
4914475	WORD	wordpools/wasnorm_wordpool_576.txt	LTP281	ltpFR2	0	23	BLOUSE	139	n/a	n/a	0	0	0
4917121	WORD	wordpools/wasnorm_wordpool_576.txt	LTP281	ltpFR2	0	23	UMPIRE	1535	n/a	n/a	0	0	0
4919584	WORD	wordpools/wasnorm_wordpool_576.txt	LTP281	ltpFR2	0	23	NOVEL	960	n/a	n/a	0	0	0
4922180	WORD	wordpools/wasnorm_wordpool_576.txt	LTP281	ltpFR2	0	23	SCOTCH	1251	n/a	n/a	0	0	0
4924626	WORD	wordpools/wasnorm_wordpool_576.txt	LTP281	ltpFR2	0	23	PORK	1108	n/a	n/a	0	0	0
4927406	WORD	wordpools/wasnorm_wordpool_576.txt	LTP281	ltpFR2	0	23	BLADE	134	n/a	n/a	0	0	0
4929902	WORD	wordpools/wasnorm_wordpool_576.txt	LTP281	ltpFR2	0	23	TURNIP	1521	n/a	n/a	0	0	0
4932482	WORD	wordpools/wasnorm_wordpool_576.txt	LTP281	ltpFR2	0	23	BUG	187	n/a	n/a	0	0	0
4935011	WORD	wordpools/wasnorm_wordpool_576.txt	LTP281	ltpFR2	0	23	POCKET	1093	n/a	n/a	0	0	0
4937806	WORD	wordpools/wasnorm_wordpool_576.txt	LTP281	ltpFR2	0	23	ZIPPER	1636	n/a	n/a	0	0	0
4940453	WORD	wordpools/wasnorm_wordpool_576.txt	LTP281	ltpFR2	0	23	CITRUS	313	n/a	n/a	0	0	0
4943066	WORD	wordpools/wasnorm_wordpool_576.txt	LTP281	ltpFR2	0	23	CHIPMUNK	304	n/a	n/a	0	0	0
4945661	WORD	wordpools/wasnorm_wordpool_576.txt	LTP281	ltpFR2	0	23	CEILING	265	n/a	n/a	0	0	0
4948242	WORD	wordpools/wasnorm_wordpool_576.txt	LTP281	ltpFR2	0	23	RUG	1215	n/a	n/a	0	0	0
4950787	WORD	wordpools/wasnorm_wordpool_576.txt	LTP281	ltpFR2	0	23	BUTCHER	203	n/a	n/a	0	0	0
4953434	WORD	wordpools/wasnorm_wordpool_576.txt	LTP281	ltpFR2	0	23	PIGEON	1065	n/a	n/a	0	0	0
4956031	WORD	wordpools/wasnorm_wordpool_576.txt	LTP281	ltpFR2	0	23	MEAT	883	n/a	n/a	0	0	0
4958692	WORD	wordpools/wasnorm_wordpool_576.txt	LTP281	ltpFR2	0	23	BRANDY	169	n/a	n/a	0	0	0
4961206	WORD	wordpools/wasnorm_wordpool_576.txt	LTP281	ltpFR2	0	23	GARBAGE	622	n/a	n/a	0	0	0
4962820	START	n/a	LTP281	ltpFR2	0	n/a	n/a	n/a	35	n/a	n/a	n/a	n/a
4963777	DISTRACTOR	n/a	LTP281	ltpFR2	0	23	n/a	n/a	n/a	n/a	0	0	0
4963785	PROB	n/a	LTP281	ltpFR2	0	n/a	n/a	n/a	35	10	2	7	1
4966199	PROB	n/a	LTP281	ltpFR2	0	n/a	n/a	n/a	35	21	5	7	9
4970476	PROB	n/a	LTP281	ltpFR2	0	n/a	n/a	n/a	35	14	8	3	3
4973588	PROB	n/a	LTP281	ltpFR2	0	n/a	n/a	n/a	35	20	7	4	9
4975701	PROB	n/a	LTP281	ltpFR2	0	n/a	n/a	n/a	35	19	6	5	8
4978348	PROB	n/a	LTP281	ltpFR2	0	n/a	n/a	n/a	35	12	5	3	4
4981593	PROB	n/a	LTP281	ltpFR2	0	n/a	n/a	n/a	35	15	9	2	6
4983739	PROB	n/a	LTP281	ltpFR2	0	n/a	n/a	n/a	35	14	5	1	8
4985911	STOP	n/a	LTP281	ltpFR2	0	n/a	n/a	n/a	35	n/a	n/a	n/a	n/a
4988600	REC_START	n/a	LTP281	ltpFR2	0	23	n/a	n/a	n/a	n/a	0	0	0
4990400	REC_WORD	wordpools/wasnorm_wordpool_576.txt	LTP281	ltpFR2	0	23	BUTCHER	203	n/a	n/a	0	0	0
4991132	REC_WORD	wordpools/wasnorm_wordpool_576.txt	LTP281	ltpFR2	0	23	PIGEON	1065	n/a	n/a	0	0	0
4991970	REC_WORD	wordpools/wasnorm_wordpool_576.txt	LTP281	ltpFR2	0	23	MEAT	883	n/a	n/a	0	0	0
4992525	REC_WORD	wordpools/wasnorm_wordpool_576.txt	LTP281	ltpFR2	0	23	CHIPMUNK	304	n/a	n/a	0	0	0
4993548	REC_WORD	wordpools/wasnorm_wordpool_576.txt	LTP281	ltpFR2	0	23	CITRUS	313	n/a	n/a	0	0	0
5079299	WORD	wordpools/wasnorm_wordpool_576.txt	LTP281	ltpFR2	0	24	RADISH	1158	n/a	n/a	0	0	0
5081895	WORD	wordpools/wasnorm_wordpool_576.txt	LTP281	ltpFR2	0	24	HORSE	719	n/a	n/a	0	0	0
5084342	WORD	wordpools/wasnorm_wordpool_576.txt	LTP281	ltpFR2	0	24	PIGMENT	1066	n/a	n/a	0	0	0
5087105	WORD	wordpools/wasnorm_wordpool_576.txt	LTP281	ltpFR2	0	24	PORTRAIT	1111	n/a	n/a	0	0	0
5089883	WORD	wordpools/wasnorm_wordpool_576.txt	LTP281	ltpFR2	0	24	GLOBE	641	n/a	n/a	0	0	0
5092413	WORD	wordpools/wasnorm_wordpool_576.txt	LTP281	ltpFR2	0	24	LAKE	796	n/a	n/a	0	0	0
5095076	WORD	wordpools/wasnorm_wordpool_576.txt	LTP281	ltpFR2	0	24	ANTLER	29	n/a	n/a	0	0	0
5097771	WORD	wordpools/wasnorm_wordpool_576.txt	LTP281	ltpFR2	0	24	AUTHOR	61	n/a	n/a	0	0	0
5100202	WORD	wordpools/wasnorm_wordpool_576.txt	LTP281	ltpFR2	0	24	FRECKLE	602	n/a	n/a	0	0	0
5102747	WORD	wordpools/wasnorm_wordpool_576.txt	LTP281	ltpFR2	0	24	DRAWING	494	n/a	n/a	0	0	0
5105278	WORD	wordpools/wasnorm_wordpool_576.txt	LTP281	ltpFR2	0	24	GOBLIN	645	n/a	n/a	0	0	0
5107707	WORD	wordpools/wasnorm_wordpool_576.txt	LTP281	ltpFR2	0	24	MARSH	874	n/a	n/a	0	0	0
5110237	WORD	wordpools/wasnorm_wordpool_576.txt	LTP281	ltpFR2	0	24	CURTAIN	427	n/a	n/a	0	0	0
5112983	WORD	wordpools/wasnorm_wordpool_576.txt	LTP281	ltpFR2	0	24	HIKER	708	n/a	n/a	0	0	0
5115628	WORD	wordpools/wasnorm_wordpool_576.txt	LTP281	ltpFR2	0	24	JUDGE	761	n/a	n/a	0	0	0
5118442	WORD	wordpools/wasnorm_wordpool_576.txt	LTP281	ltpFR2	0	24	POET	1095	n/a	n/a	0	0	0
5120888	WORD	wordpools/wasnorm_wordpool_576.txt	LTP281	ltpFR2	0	24	RAZOR	1171	n/a	n/a	0	0	0
5123683	WORD	wordpools/wasnorm_wordpool_576.txt	LTP281	ltpFR2	0	24	WINDOW	1611	n/a	n/a	0	0	0
5126264	WORD	wordpools/wasnorm_wordpool_576.txt	LTP281	ltpFR2	0	24	PUPPY	1144	n/a	n/a	0	0	0
5128993	WORD	wordpools/wasnorm_wordpool_576.txt	LTP281	ltpFR2	0	24	LADY	794	n/a	n/a	0	0	0
5131771	WORD	wordpools/wasnorm_wordpool_576.txt	LTP281	ltpFR2	0	24	SUPPER	1411	n/a	n/a	0	0	0
5134335	WORD	wordpools/wasnorm_wordpool_576.txt	LTP281	ltpFR2	0	24	PLATE	1086	n/a	n/a	0	0	0
5136880	WORD	wordpools/wasnorm_wordpool_576.txt	LTP281	ltpFR2	0	24	CANYON	235	n/a	n/a	0	0	0
5139378	WORD	wordpools/wasnorm_wordpool_576.txt	LTP281	ltpFR2	0	24	SLOPE	1328	n/a	n/a	0	0	0
5140992	START	n/a	LTP281	ltpFR2	0	n/a	n/a	n/a	36	n/a	n/a	n/a	n/a
5142042	DISTRACTOR	n/a	LTP281	ltpFR2	0	24	n/a	n/a	n/a	n/a	0	0	0
5142057	PROB	n/a	LTP281	ltpFR2	0	n/a	n/a	n/a	36	16	3	8	5
5146268	PROB	n/a	LTP281	ltpFR2	0	n/a	n/a	n/a	36	14	7	4	3
5147881	PROB	n/a	LTP281	ltpFR2	0	n/a	n/a	n/a	36	12	1	8	3
5149596	PROB	n/a	LTP281	ltpFR2	0	n/a	n/a	n/a	36	16	6	5	5
5151493	PROB	n/a	LTP281	ltpFR2	0	n/a	n/a	n/a	36	14	2	6	6
5153407	PROB	n/a	LTP281	ltpFR2	0	n/a	n/a	n/a	36	16	5	4	7
5155987	PROB	n/a	LTP281	ltpFR2	0	n/a	n/a	n/a	36	4	2	1	1
5157251	PROB	n/a	LTP281	ltpFR2	0	n/a	n/a	n/a	36	19	7	7	5
5159149	PROB	n/a	LTP281	ltpFR2	0	n/a	n/a	n/a	36	10	3	6	1
5162111	PROB	n/a	LTP281	ltpFR2	0	n/a	n/a	n/a	36	19	9	6	4
5164251	STOP	n/a	LTP281	ltpFR2	0	n/a	n/a	n/a	36	n/a	n/a	n/a	n/a
5166837	REC_START	n/a	LTP281	ltpFR2	0	24	n/a	n/a	n/a	n/a	0	0	0
5168343	REC_WORD	wordpools/wasnorm_wordpool_576.txt	LTP281	ltpFR2	0	24	SLOPE	1328	n/a	n/a	0	0	0
5172907	REC_WORD	wordpools/wasnorm_wordpool_576.txt	LTP281	ltpFR2	0	24	PARROT	1015	n/a	n/a	0	0	0
5247968	SESS_END	n/a	LTP281	ltpFR2	0	24	n/a	n/a	n/a	n/a	0	0	0
