onset	duration	trial_type	sample	stim_file	subject	experiment	session	trial	task	item_name	item_num	recog_conf	resp	answer	test_x	test_y	test_z	color_b	color_g	color_r	case	font
249.786	n/a	SESS_START	124893	n/a	LTP108	ltpFR	12	n/a	n/a	n/a	n/a	n/a	n/a	n/a	0	0	0	n/a	n/a	n/a	n/a	n/a
275.0	n/a	START	137500	n/a	LTP108	ltpFR	12	n/a	n/a	n/a	n/a	n/a	n/a	n/a	n/a	n/a	n/a	n/a	n/a	n/a	n/a	n/a
275.024	n/a	PROB	137512	n/a	LTP108	ltpFR	12	n/a	n/a	n/a	n/a	n/a	n/a	20	8	9	3	n/a	n/a	n/a	n/a	n/a
276.972	n/a	PROB	138486	n/a	LTP108	ltpFR	12	n/a	n/a	n/a	n/a	n/a	n/a	22	8	5	9	n/a	n/a	n/a	n/a	n/a
281.334	n/a	PROB	140667	n/a	LTP108	ltpFR	12	n/a	n/a	n/a	n/a	n/a	n/a	15	9	3	3	n/a	n/a	n/a	n/a	n/a
283.464	n/a	PROB	141732	n/a	LTP108	ltpFR	12	n/a	n/a	n/a	n/a	n/a	n/a	20	7	4	9	n/a	n/a	n/a	n/a	n/a
285.894	n/a	PROB	142947	n/a	LTP108	ltpFR	12	n/a	n/a	n/a	n/a	n/a	n/a	14	9	4	1	n/a	n/a	n/a	n/a	n/a
287.942	n/a	PROB	143971	n/a	LTP108	ltpFR	12	n/a	n/a	n/a	n/a	n/a	n/a	14	2	3	9	n/a	n/a	n/a	n/a	n/a
289.924	n/a	PROB	144962	n/a	LTP108	ltpFR	12	n/a	n/a	n/a	n/a	n/a	n/a	18	4	9	5	n/a	n/a	n/a	n/a	n/a
295.0	n/a	STOP	147500	n/a	LTP108	ltpFR	12	n/a	n/a	n/a	n/a	n/a	n/a	n/a	n/a	n/a	n/a	n/a	n/a	n/a	n/a	n/a
318.574	n/a	WORD	159287	wordpools/wasnorm_wordpool.txt	LTP108	ltpFR	12	1	0	DRAWER	493	n/a	1	n/a	0	0	0	0	0.5869140625	0.422607421875	lower	../fonts/zerothre.ttf
322.568	n/a	WORD	161284	wordpools/wasnorm_wordpool.txt	LTP108	ltpFR	12	1	0	CURB	426	n/a	1	n/a	0	0	0	0	0.5869140625	0.422607421875	lower	../fonts/zerothre.ttf
326.522	n/a	WORD	163261	wordpools/wasnorm_wordpool.txt	LTP108	ltpFR	12	1	0	CHICK	296	n/a	0	n/a	0	0	0	0	0.5869140625	0.422607421875	lower	../fonts/zerothre.ttf
330.552	n/a	WORD	165276	wordpools/wasnorm_wordpool.txt	LTP108	ltpFR	12	1	0	ROOT	1210	n/a	1	n/a	0	0	0	0	0.5869140625	0.422607421875	lower	../fonts/zerothre.ttf
334.546	n/a	WORD	167273	wordpools/wasnorm_wordpool.txt	LTP108	ltpFR	12	1	1	TANGERINE	1431	n/a	0	n/a	0	0	0	1	0.412841796875	0.57763671875	upper	../fonts/amplitud.ttf
338.634	n/a	WORD	169317	wordpools/wasnorm_wordpool.txt	LTP108	ltpFR	12	1	1	RUST	1219	n/a	0	n/a	0	0	0	1	0.412841796875	0.57763671875	upper	../fonts/amplitud.ttf
342.554	n/a	WORD	171277	wordpools/wasnorm_wordpool.txt	LTP108	ltpFR	12	1	1	LION	827	n/a	1	n/a	0	0	0	1	0.412841796875	0.57763671875	upper	../fonts/amplitud.ttf
346.484	n/a	WORD	173242	wordpools/wasnorm_wordpool.txt	LTP108	ltpFR	12	1	1	PANTHER	1009	n/a	1	n/a	0	0	0	1	0.412841796875	0.57763671875	upper	../fonts/amplitud.ttf
350.554	n/a	WORD	175277	wordpools/wasnorm_wordpool.txt	LTP108	ltpFR	12	1	0	SCOUT	1252	n/a	1	n/a	0	0	0	0	0.5869140625	0.422607421875	lower	../fonts/zerothre.ttf
354.424	n/a	WORD	177212	wordpools/wasnorm_wordpool.txt	LTP108	ltpFR	12	1	0	LINT	826	n/a	0	n/a	0	0	0	0	0.5869140625	0.422607421875	lower	../fonts/zerothre.ttf
358.246	n/a	WORD	179123	wordpools/wasnorm_wordpool.txt	LTP108	ltpFR	12	1	0	SILK	1307	n/a	0	n/a	0	0	0	0	0.5869140625	0.422607421875	lower	../fonts/zerothre.ttf
362.406	n/a	WORD	181203	wordpools/wasnorm_wordpool.txt	LTP108	ltpFR	12	1	0	COWBOY	395	n/a	1	n/a	0	0	0	0	0.5869140625	0.422607421875	lower	../fonts/zerothre.ttf
366.568	n/a	WORD	183284	wordpools/wasnorm_wordpool.txt	LTP108	ltpFR	12	1	1	TIMBER	1469	n/a	0	n/a	0	0	0	1	0.412841796875	0.57763671875	upper	../fonts/amplitud.ttf
370.43	n/a	WORD	185215	wordpools/wasnorm_wordpool.txt	LTP108	ltpFR	12	1	1	PEAR	1033	n/a	1	n/a	0	0	0	1	0.412841796875	0.57763671875	upper	../fonts/amplitud.ttf
374.334	n/a	WORD	187167	wordpools/wasnorm_wordpool.txt	LTP108	ltpFR	12	1	1	PRUNE	1134	n/a	1	n/a	0	0	0	1	0.412841796875	0.57763671875	upper	../fonts/amplitud.ttf
378.372	n/a	WORD	189186	wordpools/wasnorm_wordpool.txt	LTP108	ltpFR	12	1	1	MILITARY	894	n/a	0	n/a	0	0	0	1	0.412841796875	0.57763671875	upper	../fonts/amplitud.ttf
381.376	n/a	START	190688	n/a	LTP108	ltpFR	12	n/a	n/a	n/a	n/a	n/a	n/a	n/a	n/a	n/a	n/a	n/a	n/a	n/a	n/a	n/a
382.534	n/a	PROB	191267	n/a	LTP108	ltpFR	12	n/a	n/a	n/a	n/a	n/a	n/a	13	5	3	5	n/a	n/a	n/a	n/a	n/a
384.498	n/a	PROB	192249	n/a	LTP108	ltpFR	12	n/a	n/a	n/a	n/a	n/a	n/a	12	3	7	2	n/a	n/a	n/a	n/a	n/a
389.226	n/a	STOP	194613	n/a	LTP108	ltpFR	12	n/a	n/a	n/a	n/a	n/a	n/a	n/a	n/a	n/a	n/a	n/a	n/a	n/a	n/a	n/a
391.174	n/a	REC_START	195587	n/a	LTP108	ltpFR	12	1	n/a	n/a	n/a	n/a	n/a	n/a	0	0	0	n/a	n/a	n/a	n/a	n/a
391.832	n/a	REC_WORD	195916	wordpools/wasnorm_wordpool.txt	LTP108	ltpFR	12	1	0	LINT	826	n/a	0	n/a	0	0	0	n/a	n/a	n/a	n/a	n/a
392.486	n/a	REC_WORD	196243	wordpools/wasnorm_wordpool.txt	LTP108	ltpFR	12	1	1	PEAR	1033	n/a	1	n/a	0	0	0	n/a	n/a	n/a	n/a	n/a
393.006	n/a	REC_WORD	196503	wordpools/wasnorm_wordpool.txt	LTP108	ltpFR	12	1	1	TANGERINE	1431	n/a	0	n/a	0	0	0	n/a	n/a	n/a	n/a	n/a
394.118	n/a	REC_WORD	197059	wordpools/wasnorm_wordpool.txt	LTP108	ltpFR	12	1	0	DRAWER	493	n/a	1	n/a	0	0	0	n/a	n/a	n/a	n/a	n/a
394.99	n/a	REC_WORD	197495	wordpools/wasnorm_wordpool.txt	LTP108	ltpFR	12	1	0	CURB	426	n/a	1	n/a	0	0	0	n/a	n/a	n/a	n/a	n/a
395.738	n/a	REC_WORD	197869	wordpools/wasnorm_wordpool.txt	LTP108	ltpFR	12	1	0	CHICK	296	n/a	0	n/a	0	0	0	n/a	n/a	n/a	n/a	n/a
397.134	n/a	REC_WORD	198567	wordpools/wasnorm_wordpool.txt	LTP108	ltpFR	12	1	0	SILK	1307	n/a	0	n/a	0	0	0	n/a	n/a	n/a	n/a	n/a
398.362	n/a	REC_WORD	199181	wordpools/wasnorm_wordpool.txt	LTP108	ltpFR	12	1	0	COWBOY	395	n/a	1	n/a	0	0	0	n/a	n/a	n/a	n/a	n/a
401.376	n/a	REC_WORD	200688	wordpools/wasnorm_wordpool.txt	LTP108	ltpFR	12	1	1	LION	827	n/a	1	n/a	0	0	0	n/a	n/a	n/a	n/a	n/a
402.858	n/a	REC_WORD	201429	wordpools/wasnorm_wordpool.txt	LTP108	ltpFR	12	1	1	PRUNE	1134	n/a	1	n/a	0	0	0	n/a	n/a	n/a	n/a	n/a
413.1	n/a	REC_WORD	206550	wordpools/wasnorm_wordpool.txt	LTP108	ltpFR	12	1	1	PANTHER	1009	n/a	1	n/a	0	0	0	n/a	n/a	n/a	n/a	n/a
422.628	n/a	REC_WORD	211314	wordpools/wasnorm_wordpool.txt	LTP108	ltpFR	12	1	1	TIMBER	1469	n/a	0	n/a	0	0	0	n/a	n/a	n/a	n/a	n/a
463.884	n/a	REC_WORD	231942	wordpools/wasnorm_wordpool.txt	LTP108	ltpFR	12	1	1	MILITARY	894	n/a	0	n/a	0	0	0	n/a	n/a	n/a	n/a	n/a
467.762	n/a	START	233881	n/a	LTP108	ltpFR	12	n/a	n/a	n/a	n/a	n/a	n/a	n/a	n/a	n/a	n/a	n/a	n/a	n/a	n/a	n/a
469.266	n/a	PROB	234633	n/a	LTP108	ltpFR	12	n/a	n/a	n/a	n/a	n/a	n/a	17	6	5	6	n/a	n/a	n/a	n/a	n/a
472.114	n/a	PROB	236057	n/a	LTP108	ltpFR	12	n/a	n/a	n/a	n/a	n/a	n/a	14	5	8	1	n/a	n/a	n/a	n/a	n/a
475.154	n/a	STOP	237577	n/a	LTP108	ltpFR	12	n/a	n/a	n/a	n/a	n/a	n/a	n/a	n/a	n/a	n/a	n/a	n/a	n/a	n/a	n/a
476.608	n/a	WORD	238304	wordpools/wasnorm_wordpool.txt	LTP108	ltpFR	12	2	0	MERMAID	887	n/a	1	n/a	0	0	0	0	0.5869140625	0.422607421875	lower	../fonts/zerothre.ttf
479.614	n/a	START	239807	n/a	LTP108	ltpFR	12	n/a	n/a	n/a	n/a	n/a	n/a	n/a	n/a	n/a	n/a	n/a	n/a	n/a	n/a	n/a
480.596	n/a	PROB	240298	n/a	LTP108	ltpFR	12	n/a	n/a	n/a	n/a	n/a	n/a	18	8	1	9	n/a	n/a	n/a	n/a	n/a
482.252	n/a	PROB	241126	n/a	LTP108	ltpFR	12	n/a	n/a	n/a	n/a	n/a	n/a	16	4	9	3	n/a	n/a	n/a	n/a	n/a
485.066	n/a	PROB	242533	n/a	LTP108	ltpFR	12	n/a	n/a	n/a	n/a	n/a	n/a	16	7	8	1	n/a	n/a	n/a	n/a	n/a
486.89	n/a	STOP	243445	n/a	LTP108	ltpFR	12	n/a	n/a	n/a	n/a	n/a	n/a	n/a	n/a	n/a	n/a	n/a	n/a	n/a	n/a	n/a
488.794	n/a	WORD	244397	wordpools/wasnorm_wordpool.txt	LTP108	ltpFR	12	2	0	CRUMB	416	n/a	0	n/a	0	0	0	0	0.5869140625	0.422607421875	lower	../fonts/zerothre.ttf
491.8	n/a	START	245900	n/a	LTP108	ltpFR	12	n/a	n/a	n/a	n/a	n/a	n/a	n/a	n/a	n/a	n/a	n/a	n/a	n/a	n/a	n/a
492.766	n/a	PROB	246383	n/a	LTP108	ltpFR	12	n/a	n/a	n/a	n/a	n/a	n/a	21	6	7	9	n/a	n/a	n/a	n/a	n/a
495.012	n/a	PROB	247506	n/a	LTP108	ltpFR	12	n/a	n/a	n/a	n/a	n/a	n/a	19	6	6	7	n/a	n/a	n/a	n/a	n/a
498.208	n/a	PROB	249104	n/a	LTP108	ltpFR	12	n/a	n/a	n/a	n/a	n/a	n/a	15	1	9	5	n/a	n/a	n/a	n/a	n/a
499.698	n/a	STOP	249849	n/a	LTP108	ltpFR	12	n/a	n/a	n/a	n/a	n/a	n/a	n/a	n/a	n/a	n/a	n/a	n/a	n/a	n/a	n/a
500.88	n/a	WORD	250440	wordpools/wasnorm_wordpool.txt	LTP108	ltpFR	12	2	1	PUPIL	1143	n/a	0	n/a	0	0	0	1	0.412841796875	0.57763671875	upper	../fonts/amplitud.ttf
503.886	n/a	START	251943	n/a	LTP108	ltpFR	12	n/a	n/a	n/a	n/a	n/a	n/a	n/a	n/a	n/a	n/a	n/a	n/a	n/a	n/a	n/a
504.868	n/a	PROB	252434	n/a	LTP108	ltpFR	12	n/a	n/a	n/a	n/a	n/a	n/a	16	2	8	6	n/a	n/a	n/a	n/a	n/a
506.258	n/a	PROB	253129	n/a	LTP108	ltpFR	12	n/a	n/a	n/a	n/a	n/a	n/a	7	3	2	2	n/a	n/a	n/a	n/a	n/a
511.886	n/a	STOP	255943	n/a	LTP108	ltpFR	12	n/a	n/a	n/a	n/a	n/a	n/a	n/a	n/a	n/a	n/a	n/a	n/a	n/a	n/a	n/a
512.85	n/a	WORD	256425	wordpools/wasnorm_wordpool.txt	LTP108	ltpFR	12	2	1	STETHOSCOPE	1379	n/a	0	n/a	0	0	0	1	0.412841796875	0.57763671875	upper	../fonts/amplitud.ttf
515.856	n/a	START	257928	n/a	LTP108	ltpFR	12	n/a	n/a	n/a	n/a	n/a	n/a	n/a	n/a	n/a	n/a	n/a	n/a	n/a	n/a	n/a
516.922	n/a	PROB	258461	n/a	LTP108	ltpFR	12	n/a	n/a	n/a	n/a	n/a	n/a	11	2	6	3	n/a	n/a	n/a	n/a	n/a
519.426	n/a	PROB	259713	n/a	LTP108	ltpFR	12	n/a	n/a	n/a	n/a	n/a	n/a	21	9	7	5	n/a	n/a	n/a	n/a	n/a
522.916	n/a	STOP	261458	n/a	LTP108	ltpFR	12	n/a	n/a	n/a	n/a	n/a	n/a	n/a	n/a	n/a	n/a	n/a	n/a	n/a	n/a	n/a
525.012	n/a	WORD	262506	wordpools/wasnorm_wordpool.txt	LTP108	ltpFR	12	2	0	SURGEON	1413	n/a	1	n/a	0	0	0	0	0.5869140625	0.422607421875	lower	../fonts/zerothre.ttf
528.018	n/a	START	264009	n/a	LTP108	ltpFR	12	n/a	n/a	n/a	n/a	n/a	n/a	n/a	n/a	n/a	n/a	n/a	n/a	n/a	n/a	n/a
529.132	n/a	PROB	264566	n/a	LTP108	ltpFR	12	n/a	n/a	n/a	n/a	n/a	n/a	20	3	9	8	n/a	n/a	n/a	n/a	n/a
536.018	n/a	STOP	268009	n/a	LTP108	ltpFR	12	n/a	n/a	n/a	n/a	n/a	n/a	n/a	n/a	n/a	n/a	n/a	n/a	n/a	n/a	n/a
537.04	n/a	WORD	268520	wordpools/wasnorm_wordpool.txt	LTP108	ltpFR	12	2	0	CANOE	233	n/a	1	n/a	0	0	0	0	0.5869140625	0.422607421875	lower	../fonts/zerothre.ttf
540.046	n/a	START	270023	n/a	LTP108	ltpFR	12	n/a	n/a	n/a	n/a	n/a	n/a	n/a	n/a	n/a	n/a	n/a	n/a	n/a	n/a	n/a
541.144	n/a	PROB	270572	n/a	LTP108	ltpFR	12	n/a	n/a	n/a	n/a	n/a	n/a	12	7	1	4	n/a	n/a	n/a	n/a	n/a
543.458	n/a	PROB	271729	n/a	LTP108	ltpFR	12	n/a	n/a	n/a	n/a	n/a	n/a	15	4	5	6	n/a	n/a	n/a	n/a	n/a
545.772	n/a	PROB	272886	n/a	LTP108	ltpFR	12	n/a	n/a	n/a	n/a	n/a	n/a	4	2	1	1	n/a	n/a	n/a	n/a	n/a
547.572	n/a	STOP	273786	n/a	LTP108	ltpFR	12	n/a	n/a	n/a	n/a	n/a	n/a	n/a	n/a	n/a	n/a	n/a	n/a	n/a	n/a	n/a
549.168	n/a	WORD	274584	wordpools/wasnorm_wordpool.txt	LTP108	ltpFR	12	2	1	GRAVEL	659	n/a	0	n/a	0	0	0	1	0.412841796875	0.57763671875	upper	../fonts/amplitud.ttf
552.172	n/a	START	276086	n/a	LTP108	ltpFR	12	n/a	n/a	n/a	n/a	n/a	n/a	n/a	n/a	n/a	n/a	n/a	n/a	n/a	n/a	n/a
553.18	n/a	PROB	276590	n/a	LTP108	ltpFR	12	n/a	n/a	n/a	n/a	n/a	n/a	22	4	9	9	n/a	n/a	n/a	n/a	n/a
555.452	n/a	PROB	277726	n/a	LTP108	ltpFR	12	n/a	n/a	n/a	n/a	n/a	n/a	17	9	6	2	n/a	n/a	n/a	n/a	n/a
558.804	n/a	STOP	279402	n/a	LTP108	ltpFR	12	n/a	n/a	n/a	n/a	n/a	n/a	n/a	n/a	n/a	n/a	n/a	n/a	n/a	n/a	n/a
561.128	n/a	WORD	280564	wordpools/wasnorm_wordpool.txt	LTP108	ltpFR	12	2	1	HIGHWAY	707	n/a	0	n/a	0	0	0	1	0.412841796875	0.57763671875	upper	../fonts/amplitud.ttf
564.134	n/a	START	282067	n/a	LTP108	ltpFR	12	n/a	n/a	n/a	n/a	n/a	n/a	n/a	n/a	n/a	n/a	n/a	n/a	n/a	n/a	n/a
565.082	n/a	PROB	282541	n/a	LTP108	ltpFR	12	n/a	n/a	n/a	n/a	n/a	n/a	12	4	1	7	n/a	n/a	n/a	n/a	n/a
567.53	n/a	PROB	283765	n/a	LTP108	ltpFR	12	n/a	n/a	n/a	n/a	n/a	n/a	17	7	9	1	n/a	n/a	n/a	n/a	n/a
572.132	n/a	STOP	286066	n/a	LTP108	ltpFR	12	n/a	n/a	n/a	n/a	n/a	n/a	n/a	n/a	n/a	n/a	n/a	n/a	n/a	n/a	n/a
573.114	n/a	WORD	286557	wordpools/wasnorm_wordpool.txt	LTP108	ltpFR	12	2	1	FOREST	593	n/a	1	n/a	0	0	0	1	0.412841796875	0.57763671875	upper	../fonts/amplitud.ttf
576.12	n/a	START	288060	n/a	LTP108	ltpFR	12	n/a	n/a	n/a	n/a	n/a	n/a	n/a	n/a	n/a	n/a	n/a	n/a	n/a	n/a	n/a
577.308	n/a	PROB	288654	n/a	LTP108	ltpFR	12	n/a	n/a	n/a	n/a	n/a	n/a	13	5	2	6	n/a	n/a	n/a	n/a	n/a
580.006	n/a	PROB	290003	n/a	LTP108	ltpFR	12	n/a	n/a	n/a	n/a	n/a	n/a	16	5	2	9	n/a	n/a	n/a	n/a	n/a
582.412	n/a	PROB	291206	n/a	LTP108	ltpFR	12	n/a	n/a	n/a	n/a	n/a	n/a	15	8	5	2	n/a	n/a	n/a	n/a	n/a
583.796	n/a	STOP	291898	n/a	LTP108	ltpFR	12	n/a	n/a	n/a	n/a	n/a	n/a	n/a	n/a	n/a	n/a	n/a	n/a	n/a	n/a	n/a
585.3	n/a	WORD	292650	wordpools/wasnorm_wordpool.txt	LTP108	ltpFR	12	2	1	MOOSE	915	n/a	1	n/a	0	0	0	1	0.412841796875	0.57763671875	upper	../fonts/amplitud.ttf
588.304	n/a	START	294152	n/a	LTP108	ltpFR	12	n/a	n/a	n/a	n/a	n/a	n/a	n/a	n/a	n/a	n/a	n/a	n/a	n/a	n/a	n/a
589.254	n/a	PROB	294627	n/a	LTP108	ltpFR	12	n/a	n/a	n/a	n/a	n/a	n/a	17	5	7	5	n/a	n/a	n/a	n/a	n/a
590.686	n/a	PROB	295343	n/a	LTP108	ltpFR	12	n/a	n/a	n/a	n/a	n/a	n/a	19	9	8	2	n/a	n/a	n/a	n/a	n/a
592.16	n/a	PROB	296080	n/a	LTP108	ltpFR	12	n/a	n/a	n/a	n/a	n/a	n/a	15	1	9	5	n/a	n/a	n/a	n/a	n/a
593.458	n/a	PROB	296729	n/a	LTP108	ltpFR	12	n/a	n/a	n/a	n/a	n/a	n/a	10	5	1	4	n/a	n/a	n/a	n/a	n/a
594.82	n/a	STOP	297410	n/a	LTP108	ltpFR	12	n/a	n/a	n/a	n/a	n/a	n/a	n/a	n/a	n/a	n/a	n/a	n/a	n/a	n/a	n/a
597.17	n/a	WORD	298585	wordpools/wasnorm_wordpool.txt	LTP108	ltpFR	12	2	1	ATOM	55	n/a	0	n/a	0	0	0	1	0.412841796875	0.57763671875	upper	../fonts/amplitud.ttf
600.176	n/a	START	300088	n/a	LTP108	ltpFR	12	n/a	n/a	n/a	n/a	n/a	n/a	n/a	n/a	n/a	n/a	n/a	n/a	n/a	n/a	n/a
601.016	n/a	PROB	300508	n/a	LTP108	ltpFR	12	n/a	n/a	n/a	n/a	n/a	n/a	8	6	1	1	n/a	n/a	n/a	n/a	n/a
603.638	n/a	PROB	301819	n/a	LTP108	ltpFR	12	n/a	n/a	n/a	n/a	n/a	n/a	16	4	3	5	n/a	n/a	n/a	n/a	n/a
607.1	n/a	STOP	303550	n/a	LTP108	ltpFR	12	n/a	n/a	n/a	n/a	n/a	n/a	n/a	n/a	n/a	n/a	n/a	n/a	n/a	n/a	n/a
609.282	n/a	WORD	304641	wordpools/wasnorm_wordpool.txt	LTP108	ltpFR	12	2	1	NUT	965	n/a	0	n/a	0	0	0	1	0.412841796875	0.57763671875	upper	../fonts/amplitud.ttf
612.286	n/a	START	306143	n/a	LTP108	ltpFR	12	n/a	n/a	n/a	n/a	n/a	n/a	n/a	n/a	n/a	n/a	n/a	n/a	n/a	n/a	n/a
613.368	n/a	PROB	306684	n/a	LTP108	ltpFR	12	n/a	n/a	n/a	n/a	n/a	n/a	19	8	8	3	n/a	n/a	n/a	n/a	n/a
615.408	n/a	PROB	307704	n/a	LTP108	ltpFR	12	n/a	n/a	n/a	n/a	n/a	n/a	20	3	9	8	n/a	n/a	n/a	n/a	n/a
620.286	n/a	STOP	310143	n/a	LTP108	ltpFR	12	n/a	n/a	n/a	n/a	n/a	n/a	n/a	n/a	n/a	n/a	n/a	n/a	n/a	n/a	n/a
621.144	n/a	WORD	310572	wordpools/wasnorm_wordpool.txt	LTP108	ltpFR	12	2	0	BALLOT	76	n/a	1	n/a	0	0	0	0	0.5869140625	0.422607421875	lower	../fonts/zerothre.ttf
624.148	n/a	START	312074	n/a	LTP108	ltpFR	12	n/a	n/a	n/a	n/a	n/a	n/a	n/a	n/a	n/a	n/a	n/a	n/a	n/a	n/a	n/a
625.156	n/a	PROB	312578	n/a	LTP108	ltpFR	12	n/a	n/a	n/a	n/a	n/a	n/a	19	2	9	8	n/a	n/a	n/a	n/a	n/a
627.02	n/a	PROB	313510	n/a	LTP108	ltpFR	12	n/a	n/a	n/a	n/a	n/a	n/a	13	3	8	2	n/a	n/a	n/a	n/a	n/a
628.85	n/a	PROB	314425	n/a	LTP108	ltpFR	12	n/a	n/a	n/a	n/a	n/a	n/a	17	5	3	9	n/a	n/a	n/a	n/a	n/a
632.004	n/a	STOP	316002	n/a	LTP108	ltpFR	12	n/a	n/a	n/a	n/a	n/a	n/a	n/a	n/a	n/a	n/a	n/a	n/a	n/a	n/a	n/a
633.012	n/a	WORD	316506	wordpools/wasnorm_wordpool.txt	LTP108	ltpFR	12	2	0	SHORTCAKE	1292	n/a	1	n/a	0	0	0	0	0.5869140625	0.422607421875	lower	../fonts/zerothre.ttf
636.018	n/a	START	318009	n/a	LTP108	ltpFR	12	n/a	n/a	n/a	n/a	n/a	n/a	n/a	n/a	n/a	n/a	n/a	n/a	n/a	n/a	n/a
636.974	n/a	PROB	318487	n/a	LTP108	ltpFR	12	n/a	n/a	n/a	n/a	n/a	n/a	15	4	2	7	n/a	n/a	n/a	n/a	n/a
640.546	n/a	PROB	320273	n/a	LTP108	ltpFR	12	n/a	n/a	n/a	n/a	n/a	n/a	16	2	8	6	n/a	n/a	n/a	n/a	n/a
642.796	n/a	STOP	321398	n/a	LTP108	ltpFR	12	n/a	n/a	n/a	n/a	n/a	n/a	n/a	n/a	n/a	n/a	n/a	n/a	n/a	n/a	n/a
645.216	n/a	WORD	322608	wordpools/wasnorm_wordpool.txt	LTP108	ltpFR	12	2	0	TEACHER	1440	n/a	0	n/a	0	0	0	0	0.5869140625	0.422607421875	lower	../fonts/zerothre.ttf
648.22	n/a	START	324110	n/a	LTP108	ltpFR	12	n/a	n/a	n/a	n/a	n/a	n/a	n/a	n/a	n/a	n/a	n/a	n/a	n/a	n/a	n/a
649.144	n/a	PROB	324572	n/a	LTP108	ltpFR	12	n/a	n/a	n/a	n/a	n/a	n/a	14	4	4	6	n/a	n/a	n/a	n/a	n/a
650.926	n/a	PROB	325463	n/a	LTP108	ltpFR	12	n/a	n/a	n/a	n/a	n/a	n/a	20	8	8	4	n/a	n/a	n/a	n/a	n/a
652.924	n/a	PROB	326462	n/a	LTP108	ltpFR	12	n/a	n/a	n/a	n/a	n/a	n/a	12	2	3	7	n/a	n/a	n/a	n/a	n/a
654.788	n/a	STOP	327394	n/a	LTP108	ltpFR	12	n/a	n/a	n/a	n/a	n/a	n/a	n/a	n/a	n/a	n/a	n/a	n/a	n/a	n/a	n/a
657.076	n/a	WORD	328538	wordpools/wasnorm_wordpool.txt	LTP108	ltpFR	12	2	0	BRANDY	169	n/a	0	n/a	0	0	0	0	0.5869140625	0.422607421875	lower	../fonts/zerothre.ttf
660.082	n/a	START	330041	n/a	LTP108	ltpFR	12	n/a	n/a	n/a	n/a	n/a	n/a	n/a	n/a	n/a	n/a	n/a	n/a	n/a	n/a	n/a
660.906	n/a	PROB	330453	n/a	LTP108	ltpFR	12	n/a	n/a	n/a	n/a	n/a	n/a	17	6	4	7	n/a	n/a	n/a	n/a	n/a
663.144	n/a	PROB	331572	n/a	LTP108	ltpFR	12	n/a	n/a	n/a	n/a	n/a	n/a	14	2	4	8	n/a	n/a	n/a	n/a	n/a
665.566	n/a	PROB	332783	n/a	LTP108	ltpFR	12	n/a	n/a	n/a	n/a	n/a	n/a	9	2	3	2	n/a	n/a	n/a	n/a	n/a
667.572	n/a	STOP	333786	n/a	LTP108	ltpFR	12	n/a	n/a	n/a	n/a	n/a	n/a	n/a	n/a	n/a	n/a	n/a	n/a	n/a	n/a	n/a
669.946	n/a	REC_START	334973	n/a	LTP108	ltpFR	12	2	n/a	n/a	n/a	n/a	n/a	n/a	0	0	0	n/a	n/a	n/a	n/a	n/a
671.91	n/a	REC_WORD	335955	wordpools/wasnorm_wordpool.txt	LTP108	ltpFR	12	2	0	BRANDY	169	n/a	0	n/a	0	0	0	n/a	n/a	n/a	n/a	n/a
672.814	n/a	REC_WORD	336407	wordpools/wasnorm_wordpool.txt	LTP108	ltpFR	12	2	0	MERMAID	887	n/a	1	n/a	0	0	0	n/a	n/a	n/a	n/a	n/a
685.954	n/a	REC_WORD	342977	wordpools/wasnorm_wordpool.txt	LTP108	ltpFR	12	2	0	CANOE	233	n/a	1	n/a	0	0	0	n/a	n/a	n/a	n/a	n/a
687.98	n/a	REC_WORD	343990	wordpools/wasnorm_wordpool.txt	LTP108	ltpFR	12	2	0	SURGEON	1413	n/a	1	n/a	0	0	0	n/a	n/a	n/a	n/a	n/a
694.096	n/a	REC_WORD	347048	wordpools/wasnorm_wordpool.txt	LTP108	ltpFR	12	2	1	NUT	965	n/a	0	n/a	0	0	0	n/a	n/a	n/a	n/a	n/a
747.906	n/a	WORD	373953	wordpools/wasnorm_wordpool.txt	LTP108	ltpFR	12	3	0	CHURCH	307	n/a	1	n/a	0	0	0	0	0.5869140625	0.422607421875	lower	../fonts/zerothre.ttf
751.742	n/a	WORD	375871	wordpools/wasnorm_wordpool.txt	LTP108	ltpFR	12	3	0	CHAPEL	280	n/a	1	n/a	0	0	0	0	0.5869140625	0.422607421875	lower	../fonts/zerothre.ttf
755.588	n/a	WORD	377794	wordpools/wasnorm_wordpool.txt	LTP108	ltpFR	12	3	0	MARGARINE	868	n/a	0	n/a	0	0	0	0	0.5869140625	0.422607421875	lower	../fonts/zerothre.ttf
759.766	n/a	WORD	379883	wordpools/wasnorm_wordpool.txt	LTP108	ltpFR	12	3	0	JAM	748	n/a	0	n/a	0	0	0	0	0.5869140625	0.422607421875	lower	../fonts/zerothre.ttf
763.796	n/a	WORD	381898	wordpools/wasnorm_wordpool.txt	LTP108	ltpFR	12	3	0	SLOPE	1328	n/a	0	n/a	0	0	0	0	0.5869140625	0.422607421875	lower	../fonts/zerothre.ttf
767.7	n/a	WORD	383850	wordpools/wasnorm_wordpool.txt	LTP108	ltpFR	12	3	0	CABINET	212	n/a	1	n/a	0	0	0	0	0.5869140625	0.422607421875	lower	../fonts/zerothre.ttf
771.878	n/a	WORD	385939	wordpools/wasnorm_wordpool.txt	LTP108	ltpFR	12	3	0	PAPER	1011	n/a	1	n/a	0	0	0	0	0.5869140625	0.422607421875	lower	../fonts/zerothre.ttf
775.732	n/a	WORD	387866	wordpools/wasnorm_wordpool.txt	LTP108	ltpFR	12	3	0	CLIMBER	323	n/a	0	n/a	0	0	0	0	0.5869140625	0.422607421875	lower	../fonts/zerothre.ttf
779.902	n/a	WORD	389951	wordpools/wasnorm_wordpool.txt	LTP108	ltpFR	12	3	0	CAFE	216	n/a	1	n/a	0	0	0	0	0.5869140625	0.422607421875	lower	../fonts/zerothre.ttf
783.982	n/a	WORD	391991	wordpools/wasnorm_wordpool.txt	LTP108	ltpFR	12	3	0	COLUMN	350	n/a	1	n/a	0	0	0	0	0.5869140625	0.422607421875	lower	../fonts/zerothre.ttf
788.168	n/a	WORD	394084	wordpools/wasnorm_wordpool.txt	LTP108	ltpFR	12	3	0	BLOUSE	139	n/a	1	n/a	0	0	0	0	0.5869140625	0.422607421875	lower	../fonts/zerothre.ttf
791.988	n/a	WORD	395994	wordpools/wasnorm_wordpool.txt	LTP108	ltpFR	12	3	0	BATH	98	n/a	1	n/a	0	0	0	0	0.5869140625	0.422607421875	lower	../fonts/zerothre.ttf
796.076	n/a	WORD	398038	wordpools/wasnorm_wordpool.txt	LTP108	ltpFR	12	3	0	FAUCET	555	n/a	0	n/a	0	0	0	0	0.5869140625	0.422607421875	lower	../fonts/zerothre.ttf
800.212	n/a	WORD	400106	wordpools/wasnorm_wordpool.txt	LTP108	ltpFR	12	3	0	DELINQUENT	445	n/a	1	n/a	0	0	0	0	0.5869140625	0.422607421875	lower	../fonts/zerothre.ttf
804.4	n/a	WORD	402200	wordpools/wasnorm_wordpool.txt	LTP108	ltpFR	12	3	0	STEM	1376	n/a	0	n/a	0	0	0	0	0.5869140625	0.422607421875	lower	../fonts/zerothre.ttf
808.436	n/a	WORD	404218	wordpools/wasnorm_wordpool.txt	LTP108	ltpFR	12	3	0	SAUCER	1237	n/a	0	n/a	0	0	0	0	0.5869140625	0.422607421875	lower	../fonts/zerothre.ttf
811.442	n/a	START	405721	n/a	LTP108	ltpFR	12	n/a	n/a	n/a	n/a	n/a	n/a	n/a	n/a	n/a	n/a	n/a	n/a	n/a	n/a	n/a
812.366	n/a	PROB	406183	n/a	LTP108	ltpFR	12	n/a	n/a	n/a	n/a	n/a	n/a	10	6	3	1	n/a	n/a	n/a	n/a	n/a
814.53	n/a	PROB	407265	n/a	LTP108	ltpFR	12	n/a	n/a	n/a	n/a	n/a	n/a	16	3	7	6	n/a	n/a	n/a	n/a	n/a
816.826	n/a	PROB	408413	n/a	LTP108	ltpFR	12	n/a	n/a	n/a	n/a	n/a	n/a	18	4	9	5	n/a	n/a	n/a	n/a	n/a
818.65	n/a	PROB	409325	n/a	LTP108	ltpFR	12	n/a	n/a	n/a	n/a	n/a	n/a	20	5	8	7	n/a	n/a	n/a	n/a	n/a
822.362	n/a	PROB	411181	n/a	LTP108	ltpFR	12	n/a	n/a	n/a	n/a	n/a	n/a	15	8	3	4	n/a	n/a	n/a	n/a	n/a
827.44	n/a	STOP	413720	n/a	LTP108	ltpFR	12	n/a	n/a	n/a	n/a	n/a	n/a	n/a	n/a	n/a	n/a	n/a	n/a	n/a	n/a	n/a
829.262	n/a	REC_START	414631	n/a	LTP108	ltpFR	12	3	n/a	n/a	n/a	n/a	n/a	n/a	0	0	0	n/a	n/a	n/a	n/a	n/a
831.072	n/a	REC_WORD	415536	wordpools/wasnorm_wordpool.txt	LTP108	ltpFR	12	3	0	STEM	1376	n/a	0	n/a	0	0	0	n/a	n/a	n/a	n/a	n/a
831.752	n/a	REC_WORD	415876	wordpools/wasnorm_wordpool.txt	LTP108	ltpFR	12	3	0	FAUCET	555	n/a	0	n/a	0	0	0	n/a	n/a	n/a	n/a	n/a
832.81	n/a	REC_WORD	416405	wordpools/wasnorm_wordpool.txt	LTP108	ltpFR	12	3	0	BATH	98	n/a	1	n/a	0	0	0	n/a	n/a	n/a	n/a	n/a
853.802	n/a	REC_WORD	426901	wordpools/wasnorm_wordpool.txt	LTP108	ltpFR	12	3	0	PAPER	1011	n/a	1	n/a	0	0	0	n/a	n/a	n/a	n/a	n/a
854.5	n/a	REC_WORD	427250	wordpools/wasnorm_wordpool.txt	LTP108	ltpFR	12	3	0	COLUMN	350	n/a	1	n/a	0	0	0	n/a	n/a	n/a	n/a	n/a
855.254	n/a	REC_WORD	427627	wordpools/wasnorm_wordpool.txt	LTP108	ltpFR	12	3	0	CLIMBER	323	n/a	0	n/a	0	0	0	n/a	n/a	n/a	n/a	n/a
856.846	n/a	REC_WORD	428423	wordpools/wasnorm_wordpool.txt	LTP108	ltpFR	12	3	0	CAFE	216	n/a	1	n/a	0	0	0	n/a	n/a	n/a	n/a	n/a
894.81	n/a	REC_WORD	447405	wordpools/wasnorm_wordpool.txt	LTP108	ltpFR	12	3	0	CHURCH	307	n/a	1	n/a	0	0	0	n/a	n/a	n/a	n/a	n/a
907.506	n/a	START	453753	n/a	LTP108	ltpFR	12	n/a	n/a	n/a	n/a	n/a	n/a	n/a	n/a	n/a	n/a	n/a	n/a	n/a	n/a	n/a
909.012	n/a	PROB	454506	n/a	LTP108	ltpFR	12	n/a	n/a	n/a	n/a	n/a	n/a	22	7	9	7	n/a	n/a	n/a	n/a	n/a
914.532	n/a	PROB	457266	n/a	LTP108	ltpFR	12	n/a	n/a	n/a	n/a	n/a	n/a	16	9	5	2	n/a	n/a	n/a	n/a	n/a
917.252	n/a	PROB	458626	n/a	LTP108	ltpFR	12	n/a	n/a	n/a	n/a	n/a	n/a	8	5	2	1	n/a	n/a	n/a	n/a	n/a
919.608	n/a	PROB	459804	n/a	LTP108	ltpFR	12	n/a	n/a	n/a	n/a	n/a	n/a	15	6	1	8	n/a	n/a	n/a	n/a	n/a
923.176	n/a	STOP	461588	n/a	LTP108	ltpFR	12	n/a	n/a	n/a	n/a	n/a	n/a	n/a	n/a	n/a	n/a	n/a	n/a	n/a	n/a	n/a
924.686	n/a	WORD	462343	wordpools/wasnorm_wordpool.txt	LTP108	ltpFR	12	4	0	TREASURE	1500	n/a	1	n/a	0	0	0	0	0.5869140625	0.422607421875	lower	../fonts/zerothre.ttf
927.692	n/a	START	463846	n/a	LTP108	ltpFR	12	n/a	n/a	n/a	n/a	n/a	n/a	n/a	n/a	n/a	n/a	n/a	n/a	n/a	n/a	n/a
928.574	n/a	PROB	464287	n/a	LTP108	ltpFR	12	n/a	n/a	n/a	n/a	n/a	n/a	13	1	4	8	n/a	n/a	n/a	n/a	n/a
931.786	n/a	PROB	465893	n/a	LTP108	ltpFR	12	n/a	n/a	n/a	n/a	n/a	n/a	17	8	7	2	n/a	n/a	n/a	n/a	n/a
933.75	n/a	PROB	466875	n/a	LTP108	ltpFR	12	n/a	n/a	n/a	n/a	n/a	n/a	20	6	7	7	n/a	n/a	n/a	n/a	n/a
935.824	n/a	PROB	467912	n/a	LTP108	ltpFR	12	n/a	n/a	n/a	n/a	n/a	n/a	18	4	6	8	n/a	n/a	n/a	n/a	n/a
938.388	n/a	PROB	469194	n/a	LTP108	ltpFR	12	n/a	n/a	n/a	n/a	n/a	n/a	16	7	8	1	n/a	n/a	n/a	n/a	n/a
941.16	n/a	PROB	470580	n/a	LTP108	ltpFR	12	n/a	n/a	n/a	n/a	n/a	n/a	12	5	6	1	n/a	n/a	n/a	n/a	n/a
942.624	n/a	STOP	471312	n/a	LTP108	ltpFR	12	n/a	n/a	n/a	n/a	n/a	n/a	n/a	n/a	n/a	n/a	n/a	n/a	n/a	n/a	n/a
944.764	n/a	WORD	472382	wordpools/wasnorm_wordpool.txt	LTP108	ltpFR	12	4	0	LOFT	840	n/a	1	n/a	0	0	0	0	0.5869140625	0.422607421875	lower	../fonts/zerothre.ttf
947.768	n/a	START	473884	n/a	LTP108	ltpFR	12	n/a	n/a	n/a	n/a	n/a	n/a	n/a	n/a	n/a	n/a	n/a	n/a	n/a	n/a	n/a
948.71	n/a	PROB	474355	n/a	LTP108	ltpFR	12	n/a	n/a	n/a	n/a	n/a	n/a	14	7	6	1	n/a	n/a	n/a	n/a	n/a
950.474	n/a	PROB	475237	n/a	LTP108	ltpFR	12	n/a	n/a	n/a	n/a	n/a	n/a	13	4	8	1	n/a	n/a	n/a	n/a	n/a
953.004	n/a	PROB	476502	n/a	LTP108	ltpFR	12	n/a	n/a	n/a	n/a	n/a	n/a	12	9	2	1	n/a	n/a	n/a	n/a	n/a
954.86	n/a	PROB	477430	n/a	LTP108	ltpFR	12	n/a	n/a	n/a	n/a	n/a	n/a	15	1	7	7	n/a	n/a	n/a	n/a	n/a
955.984	n/a	PROB	477992	n/a	LTP108	ltpFR	12	n/a	n/a	n/a	n/a	n/a	n/a	18	7	2	9	n/a	n/a	n/a	n/a	n/a
959.788	n/a	PROB	479894	n/a	LTP108	ltpFR	12	n/a	n/a	n/a	n/a	n/a	n/a	12	1	7	4	n/a	n/a	n/a	n/a	n/a
963.768	n/a	STOP	481884	n/a	LTP108	ltpFR	12	n/a	n/a	n/a	n/a	n/a	n/a	n/a	n/a	n/a	n/a	n/a	n/a	n/a	n/a	n/a
964.816	n/a	WORD	482408	wordpools/wasnorm_wordpool.txt	LTP108	ltpFR	12	4	1	OAR	966	n/a	3	n/a	0	0	0	1	0.412841796875	0.57763671875	upper	../fonts/amplitud.ttf
966.164	n/a	KEY_MSG	483082	n/a	LTP108	ltpFR	12	4	n/a	n/a	n/a	n/a	n/a	n/a	0	0	0	n/a	n/a	n/a	n/a	n/a
967.82	n/a	START	483910	n/a	LTP108	ltpFR	12	n/a	n/a	n/a	n/a	n/a	n/a	n/a	n/a	n/a	n/a	n/a	n/a	n/a	n/a	n/a
968.77	n/a	PROB	484385	n/a	LTP108	ltpFR	12	n/a	n/a	n/a	n/a	n/a	n/a	9	2	2	3	n/a	n/a	n/a	n/a	n/a
971.066	n/a	PROB	485533	n/a	LTP108	ltpFR	12	n/a	n/a	n/a	n/a	n/a	n/a	17	1	8	8	n/a	n/a	n/a	n/a	n/a
976.102	n/a	PROB	488051	n/a	LTP108	ltpFR	12	n/a	n/a	n/a	n/a	n/a	n/a	19	6	6	7	n/a	n/a	n/a	n/a	n/a
978.508	n/a	PROB	489254	n/a	LTP108	ltpFR	12	n/a	n/a	n/a	n/a	n/a	n/a	14	4	4	6	n/a	n/a	n/a	n/a	n/a
982.262	n/a	PROB	491131	n/a	LTP108	ltpFR	12	n/a	n/a	n/a	n/a	n/a	n/a	14	2	6	6	n/a	n/a	n/a	n/a	n/a
983.776	n/a	STOP	491888	n/a	LTP108	ltpFR	12	n/a	n/a	n/a	n/a	n/a	n/a	n/a	n/a	n/a	n/a	n/a	n/a	n/a	n/a	n/a
985.0	n/a	WORD	492500	wordpools/wasnorm_wordpool.txt	LTP108	ltpFR	12	4	1	HERO	706	n/a	1	n/a	0	0	0	1	0.412841796875	0.57763671875	upper	../fonts/amplitud.ttf
988.006	n/a	START	494003	n/a	LTP108	ltpFR	12	n/a	n/a	n/a	n/a	n/a	n/a	n/a	n/a	n/a	n/a	n/a	n/a	n/a	n/a	n/a
989.204	n/a	PROB	494602	n/a	LTP108	ltpFR	12	n/a	n/a	n/a	n/a	n/a	n/a	14	7	3	4	n/a	n/a	n/a	n/a	n/a
991.402	n/a	PROB	495701	n/a	LTP108	ltpFR	12	n/a	n/a	n/a	n/a	n/a	n/a	22	4	9	9	n/a	n/a	n/a	n/a	n/a
993.382	n/a	PROB	496691	n/a	LTP108	ltpFR	12	n/a	n/a	n/a	n/a	n/a	n/a	10	2	5	3	n/a	n/a	n/a	n/a	n/a
996.054	n/a	PROB	498027	n/a	LTP108	ltpFR	12	n/a	n/a	n/a	n/a	n/a	n/a	11	2	4	5	n/a	n/a	n/a	n/a	n/a
998.194	n/a	PROB	499097	n/a	LTP108	ltpFR	12	n/a	n/a	n/a	n/a	n/a	n/a	20	7	6	7	n/a	n/a	n/a	n/a	n/a
1000.208	n/a	PROB	500104	n/a	LTP108	ltpFR	12	n/a	n/a	n/a	n/a	n/a	n/a	20	4	7	9	n/a	n/a	n/a	n/a	n/a
1003.496	n/a	STOP	501748	n/a	LTP108	ltpFR	12	n/a	n/a	n/a	n/a	n/a	n/a	n/a	n/a	n/a	n/a	n/a	n/a	n/a	n/a	n/a
1004.944	n/a	WORD	502472	wordpools/wasnorm_wordpool.txt	LTP108	ltpFR	12	4	1	HEDGE	699	n/a	1	n/a	0	0	0	1	0.412841796875	0.57763671875	upper	../fonts/amplitud.ttf
1007.95	n/a	START	503975	n/a	LTP108	ltpFR	12	n/a	n/a	n/a	n/a	n/a	n/a	n/a	n/a	n/a	n/a	n/a	n/a	n/a	n/a	n/a
1008.814	n/a	PROB	504407	n/a	LTP108	ltpFR	12	n/a	n/a	n/a	n/a	n/a	n/a	17	1	7	9	n/a	n/a	n/a	n/a	n/a
1010.67	n/a	PROB	505335	n/a	LTP108	ltpFR	12	n/a	n/a	n/a	n/a	n/a	n/a	12	5	6	1	n/a	n/a	n/a	n/a	n/a
1012.06	n/a	PROB	506030	n/a	LTP108	ltpFR	12	n/a	n/a	n/a	n/a	n/a	n/a	13	3	4	6	n/a	n/a	n/a	n/a	n/a
1013.65	n/a	PROB	506825	n/a	LTP108	ltpFR	12	n/a	n/a	n/a	n/a	n/a	n/a	20	8	7	5	n/a	n/a	n/a	n/a	n/a
1023.95	n/a	STOP	511975	n/a	LTP108	ltpFR	12	n/a	n/a	n/a	n/a	n/a	n/a	n/a	n/a	n/a	n/a	n/a	n/a	n/a	n/a	n/a
1025.014	n/a	WORD	512507	wordpools/wasnorm_wordpool.txt	LTP108	ltpFR	12	4	0	PILLOW	1069	n/a	1	n/a	0	0	0	0	0.5869140625	0.422607421875	lower	../fonts/zerothre.ttf
1028.018	n/a	START	514009	n/a	LTP108	ltpFR	12	n/a	n/a	n/a	n/a	n/a	n/a	n/a	n/a	n/a	n/a	n/a	n/a	n/a	n/a	n/a
1028.834	n/a	PROB	514417	n/a	LTP108	ltpFR	12	n/a	n/a	n/a	n/a	n/a	n/a	17	5	6	6	n/a	n/a	n/a	n/a	n/a
1032.27	n/a	PROB	516135	n/a	LTP108	ltpFR	12	n/a	n/a	n/a	n/a	n/a	n/a	13	3	8	2	n/a	n/a	n/a	n/a	n/a
1033.92	n/a	PROB	516960	n/a	LTP108	ltpFR	12	n/a	n/a	n/a	n/a	n/a	n/a	15	2	7	6	n/a	n/a	n/a	n/a	n/a
1037.874	n/a	PROB	518937	n/a	LTP108	ltpFR	12	n/a	n/a	n/a	n/a	n/a	n/a	17	2	8	7	n/a	n/a	n/a	n/a	n/a
1040.686	n/a	PROB	520343	n/a	LTP108	ltpFR	12	n/a	n/a	n/a	n/a	n/a	n/a	16	6	5	9	n/a	n/a	n/a	n/a	n/a
1043.074	n/a	STOP	521537	n/a	LTP108	ltpFR	12	n/a	n/a	n/a	n/a	n/a	n/a	n/a	n/a	n/a	n/a	n/a	n/a	n/a	n/a	n/a
1045.224	n/a	WORD	522612	wordpools/wasnorm_wordpool.txt	LTP108	ltpFR	12	4	0	IRON	744	n/a	1	n/a	0	0	0	0	0.5869140625	0.422607421875	lower	../fonts/zerothre.ttf
1048.228	n/a	START	524114	n/a	LTP108	ltpFR	12	n/a	n/a	n/a	n/a	n/a	n/a	n/a	n/a	n/a	n/a	n/a	n/a	n/a	n/a	n/a
1049.186	n/a	PROB	524593	n/a	LTP108	ltpFR	12	n/a	n/a	n/a	n/a	n/a	n/a	20	5	7	8	n/a	n/a	n/a	n/a	n/a
1051.408	n/a	PROB	525704	n/a	LTP108	ltpFR	12	n/a	n/a	n/a	n/a	n/a	n/a	13	4	4	5	n/a	n/a	n/a	n/a	n/a
1054.97	n/a	PROB	527485	n/a	LTP108	ltpFR	12	n/a	n/a	n/a	n/a	n/a	n/a	14	6	1	7	n/a	n/a	n/a	n/a	n/a
1056.56	n/a	PROB	528280	n/a	LTP108	ltpFR	12	n/a	n/a	n/a	n/a	n/a	n/a	15	5	9	1	n/a	n/a	n/a	n/a	n/a
1057.766	n/a	PROB	528883	n/a	LTP108	ltpFR	12	n/a	n/a	n/a	n/a	n/a	n/a	7	5	1	1	n/a	n/a	n/a	n/a	n/a
1059.724	n/a	PROB	529862	n/a	LTP108	ltpFR	12	n/a	n/a	n/a	n/a	n/a	n/a	15	7	5	3	n/a	n/a	n/a	n/a	n/a
1062.602	n/a	PROB	531301	n/a	LTP108	ltpFR	12	n/a	n/a	n/a	n/a	n/a	n/a	18	1	9	8	n/a	n/a	n/a	n/a	n/a
1064.13	n/a	STOP	532065	n/a	LTP108	ltpFR	12	n/a	n/a	n/a	n/a	n/a	n/a	n/a	n/a	n/a	n/a	n/a	n/a	n/a	n/a	n/a
1065.274	n/a	WORD	532637	wordpools/wasnorm_wordpool.txt	LTP108	ltpFR	12	4	0	SNOB	1335	n/a	1	n/a	0	0	0	0	0.5869140625	0.422607421875	lower	../fonts/zerothre.ttf
1068.28	n/a	START	534140	n/a	LTP108	ltpFR	12	n/a	n/a	n/a	n/a	n/a	n/a	n/a	n/a	n/a	n/a	n/a	n/a	n/a	n/a	n/a
1069.196	n/a	PROB	534598	n/a	LTP108	ltpFR	12	n/a	n/a	n/a	n/a	n/a	n/a	13	7	1	5	n/a	n/a	n/a	n/a	n/a
1072.99	n/a	PROB	536495	n/a	LTP108	ltpFR	12	n/a	n/a	n/a	n/a	n/a	n/a	17	8	4	5	n/a	n/a	n/a	n/a	n/a
1074.922	n/a	PROB	537461	n/a	LTP108	ltpFR	12	n/a	n/a	n/a	n/a	n/a	n/a	18	3	9	6	n/a	n/a	n/a	n/a	n/a
1078.144	n/a	PROB	539072	n/a	LTP108	ltpFR	12	n/a	n/a	n/a	n/a	n/a	n/a	16	1	8	7	n/a	n/a	n/a	n/a	n/a
1080.674	n/a	PROB	540337	n/a	LTP108	ltpFR	12	n/a	n/a	n/a	n/a	n/a	n/a	19	9	4	6	n/a	n/a	n/a	n/a	n/a
1083.002	n/a	STOP	541501	n/a	LTP108	ltpFR	12	n/a	n/a	n/a	n/a	n/a	n/a	n/a	n/a	n/a	n/a	n/a	n/a	n/a	n/a	n/a
1085.434	n/a	WORD	542717	wordpools/wasnorm_wordpool.txt	LTP108	ltpFR	12	4	0	SHOULDER	1294	n/a	0	n/a	0	0	0	0	0.5869140625	0.422607421875	lower	../fonts/zerothre.ttf
1088.44	n/a	START	544220	n/a	LTP108	ltpFR	12	n/a	n/a	n/a	n/a	n/a	n/a	n/a	n/a	n/a	n/a	n/a	n/a	n/a	n/a	n/a
1089.556	n/a	PROB	544778	n/a	LTP108	ltpFR	12	n/a	n/a	n/a	n/a	n/a	n/a	8	2	3	3	n/a	n/a	n/a	n/a	n/a
1093.668	n/a	PROB	546834	n/a	LTP108	ltpFR	12	n/a	n/a	n/a	n/a	n/a	n/a	15	3	8	4	n/a	n/a	n/a	n/a	n/a
1097.222	n/a	PROB	548611	n/a	LTP108	ltpFR	12	n/a	n/a	n/a	n/a	n/a	n/a	19	9	2	8	n/a	n/a	n/a	n/a	n/a
1098.786	n/a	PROB	549393	n/a	LTP108	ltpFR	12	n/a	n/a	n/a	n/a	n/a	n/a	11	4	4	3	n/a	n/a	n/a	n/a	n/a
1100.984	n/a	PROB	550492	n/a	LTP108	ltpFR	12	n/a	n/a	n/a	n/a	n/a	n/a	8	3	3	2	n/a	n/a	n/a	n/a	n/a
1103.386	n/a	STOP	551693	n/a	LTP108	ltpFR	12	n/a	n/a	n/a	n/a	n/a	n/a	n/a	n/a	n/a	n/a	n/a	n/a	n/a	n/a	n/a
1105.562	n/a	WORD	552781	wordpools/wasnorm_wordpool.txt	LTP108	ltpFR	12	4	1	HIP	710	n/a	0	n/a	0	0	0	1	0.412841796875	0.57763671875	upper	../fonts/amplitud.ttf
1108.568	n/a	START	554284	n/a	LTP108	ltpFR	12	n/a	n/a	n/a	n/a	n/a	n/a	n/a	n/a	n/a	n/a	n/a	n/a	n/a	n/a	n/a
1109.532	n/a	PROB	554766	n/a	LTP108	ltpFR	12	n/a	n/a	n/a	n/a	n/a	n/a	15	7	5	3	n/a	n/a	n/a	n/a	n/a
1111.714	n/a	PROB	555857	n/a	LTP108	ltpFR	12	n/a	n/a	n/a	n/a	n/a	n/a	21	9	8	7	n/a	n/a	n/a	n/a	n/a
1113.362	n/a	PROB	556681	n/a	LTP108	ltpFR	12	n/a	n/a	n/a	n/a	n/a	n/a	16	4	7	5	n/a	n/a	n/a	n/a	n/a
1119.822	n/a	PROB	559911	n/a	LTP108	ltpFR	12	n/a	n/a	n/a	n/a	n/a	n/a	18	2	7	9	n/a	n/a	n/a	n/a	n/a
1122.292	n/a	PROB	561146	n/a	LTP108	ltpFR	12	n/a	n/a	n/a	n/a	n/a	n/a	9	1	7	1	n/a	n/a	n/a	n/a	n/a
1123.618	n/a	STOP	561809	n/a	LTP108	ltpFR	12	n/a	n/a	n/a	n/a	n/a	n/a	n/a	n/a	n/a	n/a	n/a	n/a	n/a	n/a	n/a
1125.482	n/a	WORD	562741	wordpools/wasnorm_wordpool.txt	LTP108	ltpFR	12	4	1	HERD	705	n/a	1	n/a	0	0	0	1	0.412841796875	0.57763671875	upper	../fonts/amplitud.ttf
1128.486	n/a	START	564243	n/a	LTP108	ltpFR	12	n/a	n/a	n/a	n/a	n/a	n/a	n/a	n/a	n/a	n/a	n/a	n/a	n/a	n/a	n/a
1129.318	n/a	PROB	564659	n/a	LTP108	ltpFR	12	n/a	n/a	n/a	n/a	n/a	n/a	18	5	5	8	n/a	n/a	n/a	n/a	n/a
1130.666	n/a	PROB	565333	n/a	LTP108	ltpFR	12	n/a	n/a	n/a	n/a	n/a	n/a	11	1	5	5	n/a	n/a	n/a	n/a	n/a
1131.774	n/a	PROB	565887	n/a	LTP108	ltpFR	12	n/a	n/a	n/a	n/a	n/a	n/a	11	1	7	3	n/a	n/a	n/a	n/a	n/a
1133.804	n/a	PROB	566902	n/a	LTP108	ltpFR	12	n/a	n/a	n/a	n/a	n/a	n/a	13	3	3	7	n/a	n/a	n/a	n/a	n/a
1136.526	n/a	PROB	568263	n/a	LTP108	ltpFR	12	n/a	n/a	n/a	n/a	n/a	n/a	14	8	5	1	n/a	n/a	n/a	n/a	n/a
1139.498	n/a	PROB	569749	n/a	LTP108	ltpFR	12	n/a	n/a	n/a	n/a	n/a	n/a	12	2	3	7	n/a	n/a	n/a	n/a	n/a
1141.338	n/a	PROB	570669	n/a	LTP108	ltpFR	12	n/a	n/a	n/a	n/a	n/a	n/a	18	3	9	6	n/a	n/a	n/a	n/a	n/a
1143.932	n/a	STOP	571966	n/a	LTP108	ltpFR	12	n/a	n/a	n/a	n/a	n/a	n/a	n/a	n/a	n/a	n/a	n/a	n/a	n/a	n/a	n/a
1145.482	n/a	WORD	572741	wordpools/wasnorm_wordpool.txt	LTP108	ltpFR	12	4	1	WOLF	1619	n/a	1	n/a	0	0	0	1	0.412841796875	0.57763671875	upper	../fonts/amplitud.ttf
1148.488	n/a	START	574244	n/a	LTP108	ltpFR	12	n/a	n/a	n/a	n/a	n/a	n/a	n/a	n/a	n/a	n/a	n/a	n/a	n/a	n/a	n/a
1149.678	n/a	PROB	574839	n/a	LTP108	ltpFR	12	n/a	n/a	n/a	n/a	n/a	n/a	9	2	5	2	n/a	n/a	n/a	n/a	n/a
1151.492	n/a	PROB	575746	n/a	LTP108	ltpFR	12	n/a	n/a	n/a	n/a	n/a	n/a	17	9	2	6	n/a	n/a	n/a	n/a	n/a
1154.296	n/a	PROB	577148	n/a	LTP108	ltpFR	12	n/a	n/a	n/a	n/a	n/a	n/a	17	8	1	8	n/a	n/a	n/a	n/a	n/a
1156.578	n/a	PROB	578289	n/a	LTP108	ltpFR	12	n/a	n/a	n/a	n/a	n/a	n/a	11	1	4	6	n/a	n/a	n/a	n/a	n/a
1158.718	n/a	PROB	579359	n/a	LTP108	ltpFR	12	n/a	n/a	n/a	n/a	n/a	n/a	7	3	2	2	n/a	n/a	n/a	n/a	n/a
1161.722	n/a	PROB	580861	n/a	LTP108	ltpFR	12	n/a	n/a	n/a	n/a	n/a	n/a	13	3	7	3	n/a	n/a	n/a	n/a	n/a
1164.036	n/a	STOP	582018	n/a	LTP108	ltpFR	12	n/a	n/a	n/a	n/a	n/a	n/a	n/a	n/a	n/a	n/a	n/a	n/a	n/a	n/a	n/a
1165.376	n/a	WORD	582688	wordpools/wasnorm_wordpool.txt	LTP108	ltpFR	12	4	1	APRON	35	n/a	0	n/a	0	0	0	1	0.412841796875	0.57763671875	upper	../fonts/amplitud.ttf
1168.382	n/a	START	584191	n/a	LTP108	ltpFR	12	n/a	n/a	n/a	n/a	n/a	n/a	n/a	n/a	n/a	n/a	n/a	n/a	n/a	n/a	n/a
1169.496	n/a	PROB	584748	n/a	LTP108	ltpFR	12	n/a	n/a	n/a	n/a	n/a	n/a	17	3	8	6	n/a	n/a	n/a	n/a	n/a
1172.802	n/a	PROB	586401	n/a	LTP108	ltpFR	12	n/a	n/a	n/a	n/a	n/a	n/a	16	7	5	4	n/a	n/a	n/a	n/a	n/a
1176.238	n/a	PROB	588119	n/a	LTP108	ltpFR	12	n/a	n/a	n/a	n/a	n/a	n/a	15	3	9	3	n/a	n/a	n/a	n/a	n/a
1178.294	n/a	PROB	589147	n/a	LTP108	ltpFR	12	n/a	n/a	n/a	n/a	n/a	n/a	15	4	8	3	n/a	n/a	n/a	n/a	n/a
1182.814	n/a	PROB	591407	n/a	LTP108	ltpFR	12	n/a	n/a	n/a	n/a	n/a	n/a	12	1	9	2	n/a	n/a	n/a	n/a	n/a
1184.258	n/a	STOP	592129	n/a	LTP108	ltpFR	12	n/a	n/a	n/a	n/a	n/a	n/a	n/a	n/a	n/a	n/a	n/a	n/a	n/a	n/a	n/a
1185.562	n/a	WORD	592781	wordpools/wasnorm_wordpool.txt	LTP108	ltpFR	12	4	1	QUARTER	1148	n/a	1	n/a	0	0	0	1	0.412841796875	0.57763671875	upper	../fonts/amplitud.ttf
1188.566	n/a	START	594283	n/a	LTP108	ltpFR	12	n/a	n/a	n/a	n/a	n/a	n/a	n/a	n/a	n/a	n/a	n/a	n/a	n/a	n/a	n/a
1189.724	n/a	PROB	594862	n/a	LTP108	ltpFR	12	n/a	n/a	n/a	n/a	n/a	n/a	14	9	1	4	n/a	n/a	n/a	n/a	n/a
1191.164	n/a	PROB	595582	n/a	LTP108	ltpFR	12	n/a	n/a	n/a	n/a	n/a	n/a	14	3	2	9	n/a	n/a	n/a	n/a	n/a
1193.436	n/a	PROB	596718	n/a	LTP108	ltpFR	12	n/a	n/a	n/a	n/a	n/a	n/a	16	2	5	9	n/a	n/a	n/a	n/a	n/a
1195.56	n/a	PROB	597780	n/a	LTP108	ltpFR	12	n/a	n/a	n/a	n/a	n/a	n/a	9	2	3	4	n/a	n/a	n/a	n/a	n/a
1198.622	n/a	PROB	599311	n/a	LTP108	ltpFR	12	n/a	n/a	n/a	n/a	n/a	n/a	24	9	6	9	n/a	n/a	n/a	n/a	n/a
1204.568	n/a	STOP	602284	n/a	LTP108	ltpFR	12	n/a	n/a	n/a	n/a	n/a	n/a	n/a	n/a	n/a	n/a	n/a	n/a	n/a	n/a	n/a
1205.74	n/a	WORD	602870	wordpools/wasnorm_wordpool.txt	LTP108	ltpFR	12	4	0	LADDER	793	n/a	0	n/a	0	0	0	0	0.5869140625	0.422607421875	lower	../fonts/zerothre.ttf
1208.744	n/a	START	604372	n/a	LTP108	ltpFR	12	n/a	n/a	n/a	n/a	n/a	n/a	n/a	n/a	n/a	n/a	n/a	n/a	n/a	n/a	n/a
1209.668	n/a	PROB	604834	n/a	LTP108	ltpFR	12	n/a	n/a	n/a	n/a	n/a	n/a	18	5	5	8	n/a	n/a	n/a	n/a	n/a
1211.182	n/a	PROB	605591	n/a	LTP108	ltpFR	12	n/a	n/a	n/a	n/a	n/a	n/a	15	8	5	2	n/a	n/a	n/a	n/a	n/a
1212.79	n/a	PROB	606395	n/a	LTP108	ltpFR	12	n/a	n/a	n/a	n/a	n/a	n/a	13	4	6	3	n/a	n/a	n/a	n/a	n/a
1215.154	n/a	PROB	607577	n/a	LTP108	ltpFR	12	n/a	n/a	n/a	n/a	n/a	n/a	12	9	1	2	n/a	n/a	n/a	n/a	n/a
1216.594	n/a	PROB	608297	n/a	LTP108	ltpFR	12	n/a	n/a	n/a	n/a	n/a	n/a	13	1	6	6	n/a	n/a	n/a	n/a	n/a
1217.934	n/a	PROB	608967	n/a	LTP108	ltpFR	12	n/a	n/a	n/a	n/a	n/a	n/a	24	6	9	9	n/a	n/a	n/a	n/a	n/a
1221.82	n/a	PROB	610910	n/a	LTP108	ltpFR	12	n/a	n/a	n/a	n/a	n/a	n/a	8	1	1	6	n/a	n/a	n/a	n/a	n/a
1224.744	n/a	STOP	612372	n/a	LTP108	ltpFR	12	n/a	n/a	n/a	n/a	n/a	n/a	n/a	n/a	n/a	n/a	n/a	n/a	n/a	n/a	n/a
1225.658	n/a	WORD	612829	wordpools/wasnorm_wordpool.txt	LTP108	ltpFR	12	4	0	STEP	1377	n/a	1	n/a	0	0	0	0	0.5869140625	0.422607421875	lower	../fonts/zerothre.ttf
1228.662	n/a	START	614331	n/a	LTP108	ltpFR	12	n/a	n/a	n/a	n/a	n/a	n/a	n/a	n/a	n/a	n/a	n/a	n/a	n/a	n/a	n/a
1229.736	n/a	PROB	614868	n/a	LTP108	ltpFR	12	n/a	n/a	n/a	n/a	n/a	n/a	14	2	4	8	n/a	n/a	n/a	n/a	n/a
1231.492	n/a	PROB	615746	n/a	LTP108	ltpFR	12	n/a	n/a	n/a	n/a	n/a	n/a	19	5	4	8	n/a	n/a	n/a	n/a	n/a
1233.506	n/a	PROB	616753	n/a	LTP108	ltpFR	12	n/a	n/a	n/a	n/a	n/a	n/a	11	2	2	7	n/a	n/a	n/a	n/a	n/a
1238.892	n/a	PROB	619446	n/a	LTP108	ltpFR	12	n/a	n/a	n/a	n/a	n/a	n/a	16	7	4	5	n/a	n/a	n/a	n/a	n/a
1241.372	n/a	PROB	620686	n/a	LTP108	ltpFR	12	n/a	n/a	n/a	n/a	n/a	n/a	19	8	9	2	n/a	n/a	n/a	n/a	n/a
1244.662	n/a	STOP	622331	n/a	LTP108	ltpFR	12	n/a	n/a	n/a	n/a	n/a	n/a	n/a	n/a	n/a	n/a	n/a	n/a	n/a	n/a	n/a
1246.41	n/a	REC_START	623205	n/a	LTP108	ltpFR	12	4	n/a	n/a	n/a	n/a	n/a	n/a	0	0	0	n/a	n/a	n/a	n/a	n/a
1248.49	n/a	REC_WORD	624245	wordpools/wasnorm_wordpool.txt	LTP108	ltpFR	12	4	0	IRON	744	n/a	1	n/a	0	0	0	n/a	n/a	n/a	n/a	n/a
1249.258	n/a	REC_WORD	624629	wordpools/wasnorm_wordpool.txt	LTP108	ltpFR	12	4	1	APRON	35	n/a	0	n/a	0	0	0	n/a	n/a	n/a	n/a	n/a
1250.71	n/a	REC_WORD	625355	wordpools/wasnorm_wordpool.txt	LTP108	ltpFR	12	4	0	PILLOW	1069	n/a	1	n/a	0	0	0	n/a	n/a	n/a	n/a	n/a
1252.83	n/a	REC_WORD	626415	wordpools/wasnorm_wordpool.txt	LTP108	ltpFR	12	4	1	QUARTER	1148	n/a	1	n/a	0	0	0	n/a	n/a	n/a	n/a	n/a
1259.828	n/a	REC_WORD	629914	wordpools/wasnorm_wordpool.txt	LTP108	ltpFR	12	4	0	MERMAID	887	n/a	1	n/a	0	0	0	n/a	n/a	n/a	n/a	n/a
1334.25	n/a	WORD	667125	wordpools/wasnorm_wordpool.txt	LTP108	ltpFR	12	5	1	BRUSH	182	n/a	0	n/a	0	0	0	1	0.412841796875	0.57763671875	upper	../fonts/amplitud.ttf
1338.386	n/a	WORD	669193	wordpools/wasnorm_wordpool.txt	LTP108	ltpFR	12	5	1	PIRATE	1074	n/a	1	n/a	0	0	0	1	0.412841796875	0.57763671875	upper	../fonts/amplitud.ttf
1342.574	n/a	WORD	671287	wordpools/wasnorm_wordpool.txt	LTP108	ltpFR	12	5	1	SNORKEL	1336	n/a	0	n/a	0	0	0	1	0.412841796875	0.57763671875	upper	../fonts/amplitud.ttf
1346.71	n/a	WORD	673355	wordpools/wasnorm_wordpool.txt	LTP108	ltpFR	12	5	1	SWAN	1417	n/a	1	n/a	0	0	0	1	0.412841796875	0.57763671875	upper	../fonts/amplitud.ttf
1350.58	n/a	WORD	675290	wordpools/wasnorm_wordpool.txt	LTP108	ltpFR	12	5	1	GULL	671	n/a	1	n/a	0	0	0	1	0.412841796875	0.57763671875	upper	../fonts/amplitud.ttf
1354.742	n/a	WORD	677371	wordpools/wasnorm_wordpool.txt	LTP108	ltpFR	12	5	1	LIME	823	n/a	0	n/a	0	0	0	1	0.412841796875	0.57763671875	upper	../fonts/amplitud.ttf
1358.856	n/a	WORD	679428	wordpools/wasnorm_wordpool.txt	LTP108	ltpFR	12	5	1	RAG	1160	n/a	0	n/a	0	0	0	1	0.412841796875	0.57763671875	upper	../fonts/amplitud.ttf
1362.95	n/a	WORD	681475	wordpools/wasnorm_wordpool.txt	LTP108	ltpFR	12	5	1	WATER	1594	n/a	0	n/a	0	0	0	1	0.412841796875	0.57763671875	upper	../fonts/amplitud.ttf
1366.904	n/a	WORD	683452	wordpools/wasnorm_wordpool.txt	LTP108	ltpFR	12	5	1	PIER	1063	n/a	0	n/a	0	0	0	1	0.412841796875	0.57763671875	upper	../fonts/amplitud.ttf
1370.824	n/a	WORD	685412	wordpools/wasnorm_wordpool.txt	LTP108	ltpFR	12	5	1	VAULT	1550	n/a	0	n/a	0	0	0	1	0.412841796875	0.57763671875	upper	../fonts/amplitud.ttf
1374.704	n/a	WORD	687352	wordpools/wasnorm_wordpool.txt	LTP108	ltpFR	12	5	1	BLUEPRINT	142	n/a	0	n/a	0	0	0	1	0.412841796875	0.57763671875	upper	../fonts/amplitud.ttf
1378.716	n/a	WORD	689358	wordpools/wasnorm_wordpool.txt	LTP108	ltpFR	12	5	1	VEGETABLE	1552	n/a	1	n/a	0	0	0	1	0.412841796875	0.57763671875	upper	../fonts/amplitud.ttf
1382.752	n/a	WORD	691376	wordpools/wasnorm_wordpool.txt	LTP108	ltpFR	12	5	1	OATS	968	n/a	0	n/a	0	0	0	1	0.412841796875	0.57763671875	upper	../fonts/amplitud.ttf
1386.822	n/a	WORD	693411	wordpools/wasnorm_wordpool.txt	LTP108	ltpFR	12	5	1	CREEK	404	n/a	0	n/a	0	0	0	1	0.412841796875	0.57763671875	upper	../fonts/amplitud.ttf
1390.884	n/a	WORD	695442	wordpools/wasnorm_wordpool.txt	LTP108	ltpFR	12	5	1	VISITOR	1573	n/a	1	n/a	0	0	0	1	0.412841796875	0.57763671875	upper	../fonts/amplitud.ttf
1394.838	n/a	WORD	697419	wordpools/wasnorm_wordpool.txt	LTP108	ltpFR	12	5	1	ASSOCIATE	49	n/a	0	n/a	0	0	0	1	0.412841796875	0.57763671875	upper	../fonts/amplitud.ttf
1397.844	n/a	START	698922	n/a	LTP108	ltpFR	12	n/a	n/a	n/a	n/a	n/a	n/a	n/a	n/a	n/a	n/a	n/a	n/a	n/a	n/a	n/a
1405.844	n/a	STOP	702922	n/a	LTP108	ltpFR	12	n/a	n/a	n/a	n/a	n/a	n/a	n/a	n/a	n/a	n/a	n/a	n/a	n/a	n/a	n/a
1407.748	n/a	REC_START	703874	n/a	LTP108	ltpFR	12	5	n/a	n/a	n/a	n/a	n/a	n/a	0	0	0	n/a	n/a	n/a	n/a	n/a
1409.224	n/a	REC_WORD	704612	wordpools/wasnorm_wordpool.txt	LTP108	ltpFR	12	5	1	PIRATE	1074	n/a	1	n/a	0	0	0	n/a	n/a	n/a	n/a	n/a
1410.208	n/a	REC_WORD	705104	wordpools/wasnorm_wordpool.txt	LTP108	ltpFR	12	5	1	RAG	1160	n/a	0	n/a	0	0	0	n/a	n/a	n/a	n/a	n/a
1411.974	n/a	REC_WORD	705987	wordpools/wasnorm_wordpool.txt	LTP108	ltpFR	12	5	1	SWAN	1417	n/a	1	n/a	0	0	0	n/a	n/a	n/a	n/a	n/a
1412.742	n/a	REC_WORD	706371	wordpools/wasnorm_wordpool.txt	LTP108	ltpFR	12	5	1	WATER	1594	n/a	0	n/a	0	0	0	n/a	n/a	n/a	n/a	n/a
1413.44	n/a	REC_WORD	706720	wordpools/wasnorm_wordpool.txt	LTP108	ltpFR	12	5	1	PIER	1063	n/a	0	n/a	0	0	0	n/a	n/a	n/a	n/a	n/a
1416.892	n/a	REC_WORD	708446	wordpools/wasnorm_wordpool.txt	LTP108	ltpFR	12	5	1	SNORKEL	1336	n/a	0	n/a	0	0	0	n/a	n/a	n/a	n/a	n/a
1417.976	n/a	REC_WORD	708988	wordpools/wasnorm_wordpool.txt	LTP108	ltpFR	12	5	1	BRUSH	182	n/a	0	n/a	0	0	0	n/a	n/a	n/a	n/a	n/a
1419.956	n/a	REC_WORD	709978	wordpools/wasnorm_wordpool.txt	LTP108	ltpFR	12	5	1	OATS	968	n/a	0	n/a	0	0	0	n/a	n/a	n/a	n/a	n/a
1420.61	n/a	REC_WORD	710305	wordpools/wasnorm_wordpool.txt	LTP108	ltpFR	12	5	1	LIME	823	n/a	0	n/a	0	0	0	n/a	n/a	n/a	n/a	n/a
1425.806	n/a	REC_WORD	712903	wordpools/wasnorm_wordpool.txt	LTP108	ltpFR	12	5	1	VISITOR	1573	n/a	1	n/a	0	0	0	n/a	n/a	n/a	n/a	n/a
1427.304	n/a	REC_WORD	713652	wordpools/wasnorm_wordpool.txt	LTP108	ltpFR	12	5	1	CREEK	404	n/a	0	n/a	0	0	0	n/a	n/a	n/a	n/a	n/a
1435.934	n/a	REC_WORD	717967	wordpools/wasnorm_wordpool.txt	LTP108	ltpFR	12	5	1	VAULT	1550	n/a	0	n/a	0	0	0	n/a	n/a	n/a	n/a	n/a
1436.632	n/a	REC_WORD	718316	wordpools/wasnorm_wordpool.txt	LTP108	ltpFR	12	5	1	BLUEPRINT	142	n/a	0	n/a	0	0	0	n/a	n/a	n/a	n/a	n/a
1464.106	n/a	REC_WORD	732053	wordpools/wasnorm_wordpool.txt	LTP108	ltpFR	12	5	1	ASSOCIATE	49	n/a	0	n/a	0	0	0	n/a	n/a	n/a	n/a	n/a
1485.06	n/a	START	742530	n/a	LTP108	ltpFR	12	n/a	n/a	n/a	n/a	n/a	n/a	n/a	n/a	n/a	n/a	n/a	n/a	n/a	n/a	n/a
1486.566	n/a	PROB	743283	n/a	LTP108	ltpFR	12	n/a	n/a	n/a	n/a	n/a	n/a	26	9	8	9	n/a	n/a	n/a	n/a	n/a
1488.964	n/a	PROB	744482	n/a	LTP108	ltpFR	12	n/a	n/a	n/a	n/a	n/a	n/a	20	8	8	4	n/a	n/a	n/a	n/a	n/a
1491.27	n/a	PROB	745635	n/a	LTP108	ltpFR	12	n/a	n/a	n/a	n/a	n/a	n/a	16	9	6	1	n/a	n/a	n/a	n/a	n/a
1492.928	n/a	STOP	746464	n/a	LTP108	ltpFR	12	n/a	n/a	n/a	n/a	n/a	n/a	n/a	n/a	n/a	n/a	n/a	n/a	n/a	n/a	n/a
1493.874	n/a	WORD	746937	wordpools/wasnorm_wordpool.txt	LTP108	ltpFR	12	6	1	PRESIDENT	1121	n/a	1	n/a	0	0	0	1	0.412841796875	0.57763671875	upper	../fonts/amplitud.ttf
1496.88	n/a	START	748440	n/a	LTP108	ltpFR	12	n/a	n/a	n/a	n/a	n/a	n/a	n/a	n/a	n/a	n/a	n/a	n/a	n/a	n/a	n/a
1497.778	n/a	PROB	748889	n/a	LTP108	ltpFR	12	n/a	n/a	n/a	n/a	n/a	n/a	13	3	8	2	n/a	n/a	n/a	n/a	n/a
1499.976	n/a	PROB	749988	n/a	LTP108	ltpFR	12	n/a	n/a	n/a	n/a	n/a	n/a	20	2	9	9	n/a	n/a	n/a	n/a	n/a
1501.924	n/a	PROB	750962	n/a	LTP108	ltpFR	12	n/a	n/a	n/a	n/a	n/a	n/a	17	6	2	9	n/a	n/a	n/a	n/a	n/a
1504.424	n/a	STOP	752212	n/a	LTP108	ltpFR	12	n/a	n/a	n/a	n/a	n/a	n/a	n/a	n/a	n/a	n/a	n/a	n/a	n/a	n/a	n/a
1505.944	n/a	WORD	752972	wordpools/wasnorm_wordpool.txt	LTP108	ltpFR	12	6	1	JELLY	755	n/a	0	n/a	0	0	0	1	0.412841796875	0.57763671875	upper	../fonts/amplitud.ttf
1508.95	n/a	START	754475	n/a	LTP108	ltpFR	12	n/a	n/a	n/a	n/a	n/a	n/a	n/a	n/a	n/a	n/a	n/a	n/a	n/a	n/a	n/a
1509.964	n/a	PROB	754982	n/a	LTP108	ltpFR	12	n/a	n/a	n/a	n/a	n/a	n/a	12	8	1	3	n/a	n/a	n/a	n/a	n/a
1513.71	n/a	PROB	756855	n/a	LTP108	ltpFR	12	n/a	n/a	n/a	n/a	n/a	n/a	18	8	7	3	n/a	n/a	n/a	n/a	n/a
1515.616	n/a	STOP	757808	n/a	LTP108	ltpFR	12	n/a	n/a	n/a	n/a	n/a	n/a	n/a	n/a	n/a	n/a	n/a	n/a	n/a	n/a	n/a
1517.806	n/a	WORD	758903	wordpools/wasnorm_wordpool.txt	LTP108	ltpFR	12	6	1	TOAST	1471	n/a	0	n/a	0	0	0	1	0.412841796875	0.57763671875	upper	../fonts/amplitud.ttf
1520.81	n/a	START	760405	n/a	LTP108	ltpFR	12	n/a	n/a	n/a	n/a	n/a	n/a	n/a	n/a	n/a	n/a	n/a	n/a	n/a	n/a	n/a
1521.8	n/a	PROB	760900	n/a	LTP108	ltpFR	12	n/a	n/a	n/a	n/a	n/a	n/a	17	7	6	4	n/a	n/a	n/a	n/a	n/a
1524.522	n/a	PROB	762261	n/a	LTP108	ltpFR	12	n/a	n/a	n/a	n/a	n/a	n/a	19	4	9	6	n/a	n/a	n/a	n/a	n/a
1528.812	n/a	STOP	764406	n/a	LTP108	ltpFR	12	n/a	n/a	n/a	n/a	n/a	n/a	n/a	n/a	n/a	n/a	n/a	n/a	n/a	n/a	n/a
1529.858	n/a	WORD	764929	wordpools/wasnorm_wordpool.txt	LTP108	ltpFR	12	6	1	BEDROOM	111	n/a	0	n/a	0	0	0	1	0.412841796875	0.57763671875	upper	../fonts/amplitud.ttf
1532.864	n/a	START	766432	n/a	LTP108	ltpFR	12	n/a	n/a	n/a	n/a	n/a	n/a	n/a	n/a	n/a	n/a	n/a	n/a	n/a	n/a	n/a
1533.896	n/a	PROB	766948	n/a	LTP108	ltpFR	12	n/a	n/a	n/a	n/a	n/a	n/a	16	6	3	7	n/a	n/a	n/a	n/a	n/a
1535.91	n/a	PROB	767955	n/a	LTP108	ltpFR	12	n/a	n/a	n/a	n/a	n/a	n/a	10	1	3	6	n/a	n/a	n/a	n/a	n/a
1540.864	n/a	STOP	770432	n/a	LTP108	ltpFR	12	n/a	n/a	n/a	n/a	n/a	n/a	n/a	n/a	n/a	n/a	n/a	n/a	n/a	n/a	n/a
1542.07	n/a	WORD	771035	wordpools/wasnorm_wordpool.txt	LTP108	ltpFR	12	6	1	ROBIN	1199	n/a	1	n/a	0	0	0	1	0.412841796875	0.57763671875	upper	../fonts/amplitud.ttf
1545.074	n/a	START	772537	n/a	LTP108	ltpFR	12	n/a	n/a	n/a	n/a	n/a	n/a	n/a	n/a	n/a	n/a	n/a	n/a	n/a	n/a	n/a
1546.182	n/a	PROB	773091	n/a	LTP108	ltpFR	12	n/a	n/a	n/a	n/a	n/a	n/a	13	9	3	1	n/a	n/a	n/a	n/a	n/a
1547.58	n/a	PROB	773790	n/a	LTP108	ltpFR	12	n/a	n/a	n/a	n/a	n/a	n/a	19	2	8	9	n/a	n/a	n/a	n/a	n/a
1549.494	n/a	PROB	774747	n/a	LTP108	ltpFR	12	n/a	n/a	n/a	n/a	n/a	n/a	15	8	5	2	n/a	n/a	n/a	n/a	n/a
1553.074	n/a	STOP	776537	n/a	LTP108	ltpFR	12	n/a	n/a	n/a	n/a	n/a	n/a	n/a	n/a	n/a	n/a	n/a	n/a	n/a	n/a	n/a
1553.922	n/a	WORD	776961	wordpools/wasnorm_wordpool.txt	LTP108	ltpFR	12	6	1	DEER	444	n/a	1	n/a	0	0	0	1	0.412841796875	0.57763671875	upper	../fonts/amplitud.ttf
1556.928	n/a	START	778464	n/a	LTP108	ltpFR	12	n/a	n/a	n/a	n/a	n/a	n/a	n/a	n/a	n/a	n/a	n/a	n/a	n/a	n/a	n/a
1557.902	n/a	PROB	778951	n/a	LTP108	ltpFR	12	n/a	n/a	n/a	n/a	n/a	n/a	24	8	7	9	n/a	n/a	n/a	n/a	n/a
1564.928	n/a	STOP	782464	n/a	LTP108	ltpFR	12	n/a	n/a	n/a	n/a	n/a	n/a	n/a	n/a	n/a	n/a	n/a	n/a	n/a	n/a	n/a
1565.834	n/a	WORD	782917	wordpools/wasnorm_wordpool.txt	LTP108	ltpFR	12	6	1	BEAN	105	n/a	0	n/a	0	0	0	1	0.412841796875	0.57763671875	upper	../fonts/amplitud.ttf
1568.84	n/a	START	784420	n/a	LTP108	ltpFR	12	n/a	n/a	n/a	n/a	n/a	n/a	n/a	n/a	n/a	n/a	n/a	n/a	n/a	n/a	n/a
1569.796	n/a	PROB	784898	n/a	LTP108	ltpFR	12	n/a	n/a	n/a	n/a	n/a	n/a	17	9	7	1	n/a	n/a	n/a	n/a	n/a
1572.168	n/a	PROB	786084	n/a	LTP108	ltpFR	12	n/a	n/a	n/a	n/a	n/a	n/a	14	2	6	6	n/a	n/a	n/a	n/a	n/a
1576.11	n/a	STOP	788055	n/a	LTP108	ltpFR	12	n/a	n/a	n/a	n/a	n/a	n/a	n/a	n/a	n/a	n/a	n/a	n/a	n/a	n/a	n/a
1577.786	n/a	WORD	788893	wordpools/wasnorm_wordpool.txt	LTP108	ltpFR	12	6	1	FRUIT	610	n/a	1	n/a	0	0	0	1	0.412841796875	0.57763671875	upper	../fonts/amplitud.ttf
1580.792	n/a	START	790396	n/a	LTP108	ltpFR	12	n/a	n/a	n/a	n/a	n/a	n/a	n/a	n/a	n/a	n/a	n/a	n/a	n/a	n/a	n/a
1581.982	n/a	PROB	790991	n/a	LTP108	ltpFR	12	n/a	n/a	n/a	n/a	n/a	n/a	14	7	6	1	n/a	n/a	n/a	n/a	n/a
1584.03	n/a	PROB	792015	n/a	LTP108	ltpFR	12	n/a	n/a	n/a	n/a	n/a	n/a	14	5	2	8	n/a	n/a	n/a	n/a	n/a
1588.0	n/a	STOP	794000	n/a	LTP108	ltpFR	12	n/a	n/a	n/a	n/a	n/a	n/a	n/a	n/a	n/a	n/a	n/a	n/a	n/a	n/a	n/a
1589.806	n/a	WORD	794903	wordpools/wasnorm_wordpool.txt	LTP108	ltpFR	12	6	1	CAULIFLOWER	262	n/a	0	n/a	0	0	0	1	0.412841796875	0.57763671875	upper	../fonts/amplitud.ttf
1592.812	n/a	START	796406	n/a	LTP108	ltpFR	12	n/a	n/a	n/a	n/a	n/a	n/a	n/a	n/a	n/a	n/a	n/a	n/a	n/a	n/a	n/a
1593.834	n/a	PROB	796917	n/a	LTP108	ltpFR	12	n/a	n/a	n/a	n/a	n/a	n/a	19	1	9	9	n/a	n/a	n/a	n/a	n/a
1595.466	n/a	PROB	797733	n/a	LTP108	ltpFR	12	n/a	n/a	n/a	n/a	n/a	n/a	23	7	8	8	n/a	n/a	n/a	n/a	n/a
1600.812	n/a	STOP	800406	n/a	LTP108	ltpFR	12	n/a	n/a	n/a	n/a	n/a	n/a	n/a	n/a	n/a	n/a	n/a	n/a	n/a	n/a	n/a
1602.016	n/a	WORD	801008	wordpools/wasnorm_wordpool.txt	LTP108	ltpFR	12	6	1	GAZELLE	628	n/a	1	n/a	0	0	0	1	0.412841796875	0.57763671875	upper	../fonts/amplitud.ttf
1605.022	n/a	START	802511	n/a	LTP108	ltpFR	12	n/a	n/a	n/a	n/a	n/a	n/a	n/a	n/a	n/a	n/a	n/a	n/a	n/a	n/a	n/a
1606.212	n/a	PROB	803106	n/a	LTP108	ltpFR	12	n/a	n/a	n/a	n/a	n/a	n/a	20	5	7	8	n/a	n/a	n/a	n/a	n/a
1613.024	n/a	STOP	806512	n/a	LTP108	ltpFR	12	n/a	n/a	n/a	n/a	n/a	n/a	n/a	n/a	n/a	n/a	n/a	n/a	n/a	n/a	n/a
1614.02	n/a	WORD	807010	wordpools/wasnorm_wordpool.txt	LTP108	ltpFR	12	6	1	THORN	1459	n/a	0	n/a	0	0	0	1	0.412841796875	0.57763671875	upper	../fonts/amplitud.ttf
1617.026	n/a	START	808513	n/a	LTP108	ltpFR	12	n/a	n/a	n/a	n/a	n/a	n/a	n/a	n/a	n/a	n/a	n/a	n/a	n/a	n/a	n/a
1618.032	n/a	PROB	809016	n/a	LTP108	ltpFR	12	n/a	n/a	n/a	n/a	n/a	n/a	20	9	6	8	n/a	n/a	n/a	n/a	n/a
1622.868	n/a	PROB	811434	n/a	LTP108	ltpFR	12	n/a	n/a	n/a	n/a	n/a	n/a	12	2	4	6	n/a	n/a	n/a	n/a	n/a
1624.53	n/a	STOP	812265	n/a	LTP108	ltpFR	12	n/a	n/a	n/a	n/a	n/a	n/a	n/a	n/a	n/a	n/a	n/a	n/a	n/a	n/a	n/a
1625.882	n/a	WORD	812941	wordpools/wasnorm_wordpool.txt	LTP108	ltpFR	12	6	1	REPTILE	1185	n/a	1	n/a	0	0	0	1	0.412841796875	0.57763671875	upper	../fonts/amplitud.ttf
1628.888	n/a	START	814444	n/a	LTP108	ltpFR	12	n/a	n/a	n/a	n/a	n/a	n/a	n/a	n/a	n/a	n/a	n/a	n/a	n/a	n/a	n/a
1629.878	n/a	PROB	814939	n/a	LTP108	ltpFR	12	n/a	n/a	n/a	n/a	n/a	n/a	14	3	3	8	n/a	n/a	n/a	n/a	n/a
1632.832	n/a	PROB	816416	n/a	LTP108	ltpFR	12	n/a	n/a	n/a	n/a	n/a	n/a	16	8	1	7	n/a	n/a	n/a	n/a	n/a
1636.642	n/a	STOP	818321	n/a	LTP108	ltpFR	12	n/a	n/a	n/a	n/a	n/a	n/a	n/a	n/a	n/a	n/a	n/a	n/a	n/a	n/a	n/a
1637.902	n/a	WORD	818951	wordpools/wasnorm_wordpool.txt	LTP108	ltpFR	12	6	1	CROCODILE	411	n/a	1	n/a	0	0	0	1	0.412841796875	0.57763671875	upper	../fonts/amplitud.ttf
1640.906	n/a	START	820453	n/a	LTP108	ltpFR	12	n/a	n/a	n/a	n/a	n/a	n/a	n/a	n/a	n/a	n/a	n/a	n/a	n/a	n/a	n/a
1642.038	n/a	PROB	821019	n/a	LTP108	ltpFR	12	n/a	n/a	n/a	n/a	n/a	n/a	19	7	8	4	n/a	n/a	n/a	n/a	n/a
1648.906	n/a	STOP	824453	n/a	LTP108	ltpFR	12	n/a	n/a	n/a	n/a	n/a	n/a	n/a	n/a	n/a	n/a	n/a	n/a	n/a	n/a	n/a
1649.988	n/a	WORD	824994	wordpools/wasnorm_wordpool.txt	LTP108	ltpFR	12	6	1	PISTON	1076	n/a	0	n/a	0	0	0	1	0.412841796875	0.57763671875	upper	../fonts/amplitud.ttf
1652.992	n/a	START	826496	n/a	LTP108	ltpFR	12	n/a	n/a	n/a	n/a	n/a	n/a	n/a	n/a	n/a	n/a	n/a	n/a	n/a	n/a	n/a
1654.058	n/a	PROB	827029	n/a	LTP108	ltpFR	12	n/a	n/a	n/a	n/a	n/a	n/a	11	1	4	6	n/a	n/a	n/a	n/a	n/a
1655.706	n/a	PROB	827853	n/a	LTP108	ltpFR	12	n/a	n/a	n/a	n/a	n/a	n/a	8	1	4	3	n/a	n/a	n/a	n/a	n/a
1658.012	n/a	PROB	829006	n/a	LTP108	ltpFR	12	n/a	n/a	n/a	n/a	n/a	n/a	12	8	2	2	n/a	n/a	n/a	n/a	n/a
1659.626	n/a	STOP	829813	n/a	LTP108	ltpFR	12	n/a	n/a	n/a	n/a	n/a	n/a	n/a	n/a	n/a	n/a	n/a	n/a	n/a	n/a	n/a
1661.806	n/a	WORD	830903	wordpools/wasnorm_wordpool.txt	LTP108	ltpFR	12	6	1	DRIVEWAY	500	n/a	0	n/a	0	0	0	1	0.412841796875	0.57763671875	upper	../fonts/amplitud.ttf
1664.812	n/a	START	832406	n/a	LTP108	ltpFR	12	n/a	n/a	n/a	n/a	n/a	n/a	n/a	n/a	n/a	n/a	n/a	n/a	n/a	n/a	n/a
1665.786	n/a	PROB	832893	n/a	LTP108	ltpFR	12	n/a	n/a	n/a	n/a	n/a	n/a	11	8	2	1	n/a	n/a	n/a	n/a	n/a
1667.576	n/a	PROB	833788	n/a	LTP108	ltpFR	12	n/a	n/a	n/a	n/a	n/a	n/a	15	6	6	3	n/a	n/a	n/a	n/a	n/a
1669.922	n/a	PROB	834961	n/a	LTP108	ltpFR	12	n/a	n/a	n/a	n/a	n/a	n/a	14	2	9	3	n/a	n/a	n/a	n/a	n/a
1672.778	n/a	STOP	836389	n/a	LTP108	ltpFR	12	n/a	n/a	n/a	n/a	n/a	n/a	n/a	n/a	n/a	n/a	n/a	n/a	n/a	n/a	n/a
1673.768	n/a	WORD	836884	wordpools/wasnorm_wordpool.txt	LTP108	ltpFR	12	6	1	BLANKET	135	n/a	0	n/a	0	0	0	1	0.412841796875	0.57763671875	upper	../fonts/amplitud.ttf
1676.774	n/a	START	838387	n/a	LTP108	ltpFR	12	n/a	n/a	n/a	n/a	n/a	n/a	n/a	n/a	n/a	n/a	n/a	n/a	n/a	n/a	n/a
1677.638	n/a	PROB	838819	n/a	LTP108	ltpFR	12	n/a	n/a	n/a	n/a	n/a	n/a	19	5	6	6	n/a	n/a	n/a	n/a	n/a
1684.774	n/a	STOP	842387	n/a	LTP108	ltpFR	12	n/a	n/a	n/a	n/a	n/a	n/a	n/a	n/a	n/a	n/a	n/a	n/a	n/a	n/a	n/a
1686.57	n/a	REC_START	843285	n/a	LTP108	ltpFR	12	6	n/a	n/a	n/a	n/a	n/a	n/a	0	0	0	n/a	n/a	n/a	n/a	n/a
1689.504	n/a	REC_WORD	844752	wordpools/wasnorm_wordpool.txt	LTP108	ltpFR	12	6	1	GAZELLE	628	n/a	1	n/a	0	0	0	n/a	n/a	n/a	n/a	n/a
1734.442	n/a	REC_WORD	867221	wordpools/wasnorm_wordpool.txt	LTP108	ltpFR	12	6	1	FRUIT	610	n/a	1	n/a	0	0	0	n/a	n/a	n/a	n/a	n/a
1739.746	n/a	REC_WORD	869873	wordpools/wasnorm_wordpool.txt	LTP108	ltpFR	12	6	1	BEDROOM	111	n/a	0	n/a	0	0	0	n/a	n/a	n/a	n/a	n/a
1775.334	n/a	WORD	887667	wordpools/wasnorm_wordpool.txt	LTP108	ltpFR	12	7	1	JET	756	n/a	1	n/a	0	0	0	1	0.412841796875	0.57763671875	upper	../fonts/amplitud.ttf
1779.504	n/a	WORD	889752	wordpools/wasnorm_wordpool.txt	LTP108	ltpFR	12	7	1	PLANE	1081	n/a	1	n/a	0	0	0	1	0.412841796875	0.57763671875	upper	../fonts/amplitud.ttf
1783.61	n/a	WORD	891805	wordpools/wasnorm_wordpool.txt	LTP108	ltpFR	12	7	1	SLIME	1327	n/a	0	n/a	0	0	0	1	0.412841796875	0.57763671875	upper	../fonts/amplitud.ttf
1787.43	n/a	WORD	893715	wordpools/wasnorm_wordpool.txt	LTP108	ltpFR	12	7	1	SHED	1277	n/a	0	n/a	0	0	0	1	0.412841796875	0.57763671875	upper	../fonts/amplitud.ttf
1791.534	n/a	WORD	895767	wordpools/wasnorm_wordpool.txt	LTP108	ltpFR	12	7	0	CANAL	226	n/a	0	n/a	0	0	0	0	0.5869140625	0.422607421875	lower	../fonts/zerothre.ttf
1795.362	n/a	WORD	897681	wordpools/wasnorm_wordpool.txt	LTP108	ltpFR	12	7	0	BANNER	85	n/a	0	n/a	0	0	0	0	0.5869140625	0.422607421875	lower	../fonts/zerothre.ttf
1799.474	n/a	WORD	899737	wordpools/wasnorm_wordpool.txt	LTP108	ltpFR	12	7	0	BRUNETTE	181	n/a	0	n/a	0	0	0	0	0.5869140625	0.422607421875	lower	../fonts/zerothre.ttf
1803.586	n/a	WORD	901793	wordpools/wasnorm_wordpool.txt	LTP108	ltpFR	12	7	0	FOUNTAIN	597	n/a	1	n/a	0	0	0	0	0.5869140625	0.422607421875	lower	../fonts/zerothre.ttf
1807.756	n/a	WORD	903878	wordpools/wasnorm_wordpool.txt	LTP108	ltpFR	12	7	0	GRASSHOPPER	656	n/a	1	n/a	0	0	0	0	0.5869140625	0.422607421875	lower	../fonts/zerothre.ttf
1811.676	n/a	WORD	905838	wordpools/wasnorm_wordpool.txt	LTP108	ltpFR	12	7	1	TREAT	1501	n/a	0	n/a	0	0	0	1	0.412841796875	0.57763671875	upper	../fonts/amplitud.ttf
1815.788	n/a	WORD	907894	wordpools/wasnorm_wordpool.txt	LTP108	ltpFR	12	7	1	MINT	898	n/a	0	n/a	0	0	0	1	0.412841796875	0.57763671875	upper	../fonts/amplitud.ttf
1819.984	n/a	WORD	909992	wordpools/wasnorm_wordpool.txt	LTP108	ltpFR	12	7	1	ELECTRICIAN	521	n/a	1	n/a	0	0	0	1	0.412841796875	0.57763671875	upper	../fonts/amplitud.ttf
1823.838	n/a	WORD	911919	wordpools/wasnorm_wordpool.txt	LTP108	ltpFR	12	7	1	BANKER	84	n/a	1	n/a	0	0	0	1	0.412841796875	0.57763671875	upper	../fonts/amplitud.ttf
1828.024	n/a	WORD	914012	wordpools/wasnorm_wordpool.txt	LTP108	ltpFR	12	7	0	GOBLIN	645	n/a	1	n/a	0	0	0	0	0.5869140625	0.422607421875	lower	../fonts/zerothre.ttf
1831.944	n/a	WORD	915972	wordpools/wasnorm_wordpool.txt	LTP108	ltpFR	12	7	0	TWINE	1529	n/a	0	n/a	0	0	0	0	0.5869140625	0.422607421875	lower	../fonts/zerothre.ttf
1836.124	n/a	WORD	918062	wordpools/wasnorm_wordpool.txt	LTP108	ltpFR	12	7	0	INDIAN	736	n/a	1	n/a	0	0	0	0	0.5869140625	0.422607421875	lower	../fonts/zerothre.ttf
1841.876	n/a	REC_START	920938	n/a	LTP108	ltpFR	12	7	n/a	n/a	n/a	n/a	n/a	n/a	0	0	0	n/a	n/a	n/a	n/a	n/a
1845.114	n/a	REC_WORD	922557	wordpools/wasnorm_wordpool.txt	LTP108	ltpFR	12	7	0	INDIAN	736	n/a	1	n/a	0	0	0	n/a	n/a	n/a	n/a	n/a
1847.344	n/a	REC_WORD	923672	wordpools/wasnorm_wordpool.txt	LTP108	ltpFR	12	7	1	JET	756	n/a	1	n/a	0	0	0	n/a	n/a	n/a	n/a	n/a
1847.782	n/a	REC_WORD	923891	wordpools/wasnorm_wordpool.txt	LTP108	ltpFR	12	7	1	PLANE	1081	n/a	1	n/a	0	0	0	n/a	n/a	n/a	n/a	n/a
1848.42	n/a	REC_WORD	924210	wordpools/wasnorm_wordpool.txt	LTP108	ltpFR	12	7	1	SLIME	1327	n/a	0	n/a	0	0	0	n/a	n/a	n/a	n/a	n/a
1867.738	n/a	REC_WORD	933869	wordpools/wasnorm_wordpool.txt	LTP108	ltpFR	12	7	n/a	SHIRT	1287	n/a	n/a	n/a	0	0	0	n/a	n/a	n/a	n/a	n/a
1945.59	n/a	WORD	972795	wordpools/wasnorm_wordpool.txt	LTP108	ltpFR	12	8	1	PAINTING	1005	n/a	0	n/a	0	0	0	1	0.412841796875	0.57763671875	upper	../fonts/amplitud.ttf
1949.752	n/a	WORD	974876	wordpools/wasnorm_wordpool.txt	LTP108	ltpFR	12	8	1	SKETCH	1315	n/a	0	n/a	0	0	0	1	0.412841796875	0.57763671875	upper	../fonts/amplitud.ttf
1953.64	n/a	WORD	976820	wordpools/wasnorm_wordpool.txt	LTP108	ltpFR	12	8	1	CATTLE	261	n/a	1	n/a	0	0	0	1	0.412841796875	0.57763671875	upper	../fonts/amplitud.ttf
1957.676	n/a	WORD	978838	wordpools/wasnorm_wordpool.txt	LTP108	ltpFR	12	8	0	MILK	895	n/a	0	n/a	0	0	0	0	0.5869140625	0.422607421875	lower	../fonts/zerothre.ttf
1961.58	n/a	WORD	980790	wordpools/wasnorm_wordpool.txt	LTP108	ltpFR	12	8	0	TAPIOCA	1434	n/a	0	n/a	0	0	0	0	0.5869140625	0.422607421875	lower	../fonts/zerothre.ttf
1965.55	n/a	WORD	982775	wordpools/wasnorm_wordpool.txt	LTP108	ltpFR	12	8	0	GLOVE	642	n/a	0	n/a	0	0	0	0	0.5869140625	0.422607421875	lower	../fonts/zerothre.ttf
1969.704	n/a	WORD	984852	wordpools/wasnorm_wordpool.txt	LTP108	ltpFR	12	8	0	BULL	193	n/a	0	n/a	0	0	0	0	0.5869140625	0.422607421875	lower	../fonts/zerothre.ttf
1973.558	n/a	WORD	986779	wordpools/wasnorm_wordpool.txt	LTP108	ltpFR	12	8	0	SUN	1406	n/a	1	n/a	0	0	0	0	0.5869140625	0.422607421875	lower	../fonts/zerothre.ttf
1977.528	n/a	WORD	988764	wordpools/wasnorm_wordpool.txt	LTP108	ltpFR	12	8	0	PORCH	1106	n/a	1	n/a	0	0	0	0	0.5869140625	0.422607421875	lower	../fonts/zerothre.ttf
1981.49	n/a	WORD	990745	wordpools/wasnorm_wordpool.txt	LTP108	ltpFR	12	8	1	PENDULUM	1043	n/a	0	n/a	0	0	0	1	0.412841796875	0.57763671875	upper	../fonts/amplitud.ttf
1985.676	n/a	WORD	992838	wordpools/wasnorm_wordpool.txt	LTP108	ltpFR	12	8	1	FUDGE	611	n/a	0	n/a	0	0	0	1	0.412841796875	0.57763671875	upper	../fonts/amplitud.ttf
1989.606	n/a	WORD	994803	wordpools/wasnorm_wordpool.txt	LTP108	ltpFR	12	8	1	MEADOW	881	n/a	1	n/a	0	0	0	1	0.412841796875	0.57763671875	upper	../fonts/amplitud.ttf
1993.792	n/a	WORD	996896	wordpools/wasnorm_wordpool.txt	LTP108	ltpFR	12	8	0	BLOSSOM	138	n/a	1	n/a	0	0	0	0	0.5869140625	0.422607421875	lower	../fonts/zerothre.ttf
1997.762	n/a	WORD	998881	wordpools/wasnorm_wordpool.txt	LTP108	ltpFR	12	8	0	BISON	131	n/a	1	n/a	0	0	0	0	0.5869140625	0.422607421875	lower	../fonts/zerothre.ttf
2001.808	n/a	WORD	1000904	wordpools/wasnorm_wordpool.txt	LTP108	ltpFR	12	8	1	DOVE	491	n/a	1	n/a	0	0	0	1	0.412841796875	0.57763671875	upper	../fonts/amplitud.ttf
2005.878	n/a	WORD	1002939	wordpools/wasnorm_wordpool.txt	LTP108	ltpFR	12	8	1	LIZARD	834	n/a	3	n/a	0	0	0	1	0.412841796875	0.57763671875	upper	../fonts/amplitud.ttf
2007.784	n/a	KEY_MSG	1003892	n/a	LTP108	ltpFR	12	8	n/a	n/a	n/a	n/a	n/a	n/a	0	0	0	n/a	n/a	n/a	n/a	n/a
2012.014	n/a	REC_START	1006007	n/a	LTP108	ltpFR	12	8	n/a	n/a	n/a	n/a	n/a	n/a	0	0	0	n/a	n/a	n/a	n/a	n/a
2015.96	n/a	REC_WORD	1007980	wordpools/wasnorm_wordpool.txt	LTP108	ltpFR	12	8	1	LIZARD	834	n/a	3	n/a	0	0	0	n/a	n/a	n/a	n/a	n/a
2044.894	n/a	REC_WORD	1022447	wordpools/wasnorm_wordpool.txt	LTP108	ltpFR	12	8	1	CATTLE	261	n/a	1	n/a	0	0	0	n/a	n/a	n/a	n/a	n/a
2089.616	n/a	START	1044808	n/a	LTP108	ltpFR	12	n/a	n/a	n/a	n/a	n/a	n/a	n/a	n/a	n/a	n/a	n/a	n/a	n/a	n/a	n/a
2091.122	n/a	PROB	1045561	n/a	LTP108	ltpFR	12	n/a	n/a	n/a	n/a	n/a	n/a	17	2	9	6	n/a	n/a	n/a	n/a	n/a
2094.902	n/a	PROB	1047451	n/a	LTP108	ltpFR	12	n/a	n/a	n/a	n/a	n/a	n/a	8	1	4	3	n/a	n/a	n/a	n/a	n/a
2096.682	n/a	PROB	1048341	n/a	LTP108	ltpFR	12	n/a	n/a	n/a	n/a	n/a	n/a	24	7	8	9	n/a	n/a	n/a	n/a	n/a
2099.63	n/a	PROB	1049815	n/a	LTP108	ltpFR	12	n/a	n/a	n/a	n/a	n/a	n/a	14	6	1	7	n/a	n/a	n/a	n/a	n/a
2101.318	n/a	PROB	1050659	n/a	LTP108	ltpFR	12	n/a	n/a	n/a	n/a	n/a	n/a	8	5	1	2	n/a	n/a	n/a	n/a	n/a
2105.616	n/a	STOP	1052808	n/a	LTP108	ltpFR	12	n/a	n/a	n/a	n/a	n/a	n/a	n/a	n/a	n/a	n/a	n/a	n/a	n/a	n/a	n/a
2106.796	n/a	WORD	1053398	wordpools/wasnorm_wordpool.txt	LTP108	ltpFR	12	9	0	SANDPAPER	1231	n/a	1	n/a	0	0	0	0	0.5869140625	0.422607421875	lower	../fonts/zerothre.ttf
2109.802	n/a	START	1054901	n/a	LTP108	ltpFR	12	n/a	n/a	n/a	n/a	n/a	n/a	n/a	n/a	n/a	n/a	n/a	n/a	n/a	n/a	n/a
2110.958	n/a	PROB	1055479	n/a	LTP108	ltpFR	12	n/a	n/a	n/a	n/a	n/a	n/a	11	8	2	1	n/a	n/a	n/a	n/a	n/a
2113.256	n/a	PROB	1056628	n/a	LTP108	ltpFR	12	n/a	n/a	n/a	n/a	n/a	n/a	10	1	6	3	n/a	n/a	n/a	n/a	n/a
2115.602	n/a	PROB	1057801	n/a	LTP108	ltpFR	12	n/a	n/a	n/a	n/a	n/a	n/a	10	6	3	1	n/a	n/a	n/a	n/a	n/a
2117.592	n/a	PROB	1058796	n/a	LTP108	ltpFR	12	n/a	n/a	n/a	n/a	n/a	n/a	5	1	3	1	n/a	n/a	n/a	n/a	n/a
2119.598	n/a	PROB	1059799	n/a	LTP108	ltpFR	12	n/a	n/a	n/a	n/a	n/a	n/a	9	4	4	1	n/a	n/a	n/a	n/a	n/a
2121.188	n/a	PROB	1060594	n/a	LTP108	ltpFR	12	n/a	n/a	n/a	n/a	n/a	n/a	14	3	5	6	n/a	n/a	n/a	n/a	n/a
2125.802	n/a	STOP	1062901	n/a	LTP108	ltpFR	12	n/a	n/a	n/a	n/a	n/a	n/a	n/a	n/a	n/a	n/a	n/a	n/a	n/a	n/a	n/a
2126.632	n/a	WORD	1063316	wordpools/wasnorm_wordpool.txt	LTP108	ltpFR	12	9	0	MONARCH	906	n/a	1	n/a	0	0	0	0	0.5869140625	0.422607421875	lower	../fonts/zerothre.ttf
2129.638	n/a	START	1064819	n/a	LTP108	ltpFR	12	n/a	n/a	n/a	n/a	n/a	n/a	n/a	n/a	n/a	n/a	n/a	n/a	n/a	n/a	n/a
2130.702	n/a	PROB	1065351	n/a	LTP108	ltpFR	12	n/a	n/a	n/a	n/a	n/a	n/a	19	3	8	8	n/a	n/a	n/a	n/a	n/a
2132.726	n/a	PROB	1066363	n/a	LTP108	ltpFR	12	n/a	n/a	n/a	n/a	n/a	n/a	16	8	3	4	n/a	n/a	n/a	n/a	n/a
2138.66	n/a	PROB	1069330	n/a	LTP108	ltpFR	12	n/a	n/a	n/a	n/a	n/a	n/a	12	9	1	2	n/a	n/a	n/a	n/a	n/a
2140.524	n/a	PROB	1070262	n/a	LTP108	ltpFR	12	n/a	n/a	n/a	n/a	n/a	n/a	10	1	8	1	n/a	n/a	n/a	n/a	n/a
2142.164	n/a	PROB	1071082	n/a	LTP108	ltpFR	12	n/a	n/a	n/a	n/a	n/a	n/a	13	6	3	4	n/a	n/a	n/a	n/a	n/a
2143.978	n/a	PROB	1071989	n/a	LTP108	ltpFR	12	n/a	n/a	n/a	n/a	n/a	n/a	18	9	8	1	n/a	n/a	n/a	n/a	n/a
2145.352	n/a	STOP	1072676	n/a	LTP108	ltpFR	12	n/a	n/a	n/a	n/a	n/a	n/a	n/a	n/a	n/a	n/a	n/a	n/a	n/a	n/a	n/a
2146.692	n/a	WORD	1073346	wordpools/wasnorm_wordpool.txt	LTP108	ltpFR	12	9	0	APPLICATION	34	n/a	1	n/a	0	0	0	0	0.5869140625	0.422607421875	lower	../fonts/zerothre.ttf
2149.698	n/a	START	1074849	n/a	LTP108	ltpFR	12	n/a	n/a	n/a	n/a	n/a	n/a	n/a	n/a	n/a	n/a	n/a	n/a	n/a	n/a	n/a
2150.68	n/a	PROB	1075340	n/a	LTP108	ltpFR	12	n/a	n/a	n/a	n/a	n/a	n/a	11	1	5	5	n/a	n/a	n/a	n/a	n/a
2151.902	n/a	PROB	1075951	n/a	LTP108	ltpFR	12	n/a	n/a	n/a	n/a	n/a	n/a	17	3	4	8	n/a	n/a	n/a	n/a	n/a
2157.638	n/a	PROB	1078819	n/a	LTP108	ltpFR	12	n/a	n/a	n/a	n/a	n/a	n/a	12	7	4	1	n/a	n/a	n/a	n/a	n/a
2164.984	n/a	STOP	1082492	n/a	LTP108	ltpFR	12	n/a	n/a	n/a	n/a	n/a	n/a	n/a	n/a	n/a	n/a	n/a	n/a	n/a	n/a	n/a
2166.694	n/a	WORD	1083347	wordpools/wasnorm_wordpool.txt	LTP108	ltpFR	12	9	0	MAILBOX	857	n/a	1	n/a	0	0	0	0	0.5869140625	0.422607421875	lower	../fonts/zerothre.ttf
2169.7	n/a	START	1084850	n/a	LTP108	ltpFR	12	n/a	n/a	n/a	n/a	n/a	n/a	n/a	n/a	n/a	n/a	n/a	n/a	n/a	n/a	n/a
2170.756	n/a	PROB	1085378	n/a	LTP108	ltpFR	12	n/a	n/a	n/a	n/a	n/a	n/a	11	2	1	8	n/a	n/a	n/a	n/a	n/a
2172.196	n/a	PROB	1086098	n/a	LTP108	ltpFR	12	n/a	n/a	n/a	n/a	n/a	n/a	17	8	8	1	n/a	n/a	n/a	n/a	n/a
2173.878	n/a	PROB	1086939	n/a	LTP108	ltpFR	12	n/a	n/a	n/a	n/a	n/a	n/a	13	7	5	1	n/a	n/a	n/a	n/a	n/a
2178.538	n/a	PROB	1089269	n/a	LTP108	ltpFR	12	n/a	n/a	n/a	n/a	n/a	n/a	13	3	8	2	n/a	n/a	n/a	n/a	n/a
2180.894	n/a	PROB	1090447	n/a	LTP108	ltpFR	12	n/a	n/a	n/a	n/a	n/a	n/a	17	4	9	4	n/a	n/a	n/a	n/a	n/a
2183.076	n/a	PROB	1091538	n/a	LTP108	ltpFR	12	n/a	n/a	n/a	n/a	n/a	n/a	19	5	5	9	n/a	n/a	n/a	n/a	n/a
2184.408	n/a	STOP	1092204	n/a	LTP108	ltpFR	12	n/a	n/a	n/a	n/a	n/a	n/a	n/a	n/a	n/a	n/a	n/a	n/a	n/a	n/a	n/a
2186.904	n/a	WORD	1093452	wordpools/wasnorm_wordpool.txt	LTP108	ltpFR	12	9	0	CAB	209	n/a	1	n/a	0	0	0	0	0.5869140625	0.422607421875	lower	../fonts/zerothre.ttf
2189.91	n/a	START	1094955	n/a	LTP108	ltpFR	12	n/a	n/a	n/a	n/a	n/a	n/a	n/a	n/a	n/a	n/a	n/a	n/a	n/a	n/a	n/a
2190.716	n/a	PROB	1095358	n/a	LTP108	ltpFR	12	n/a	n/a	n/a	n/a	n/a	n/a	12	4	3	5	n/a	n/a	n/a	n/a	n/a
2195.936	n/a	PROB	1097968	n/a	LTP108	ltpFR	12	n/a	n/a	n/a	n/a	n/a	n/a	17	3	7	7	n/a	n/a	n/a	n/a	n/a
2198.766	n/a	PROB	1099383	n/a	LTP108	ltpFR	12	n/a	n/a	n/a	n/a	n/a	n/a	11	5	4	2	n/a	n/a	n/a	n/a	n/a
2201.846	n/a	PROB	1100923	n/a	LTP108	ltpFR	12	n/a	n/a	n/a	n/a	n/a	n/a	9	5	1	3	n/a	n/a	n/a	n/a	n/a
2205.91	n/a	STOP	1102955	n/a	LTP108	ltpFR	12	n/a	n/a	n/a	n/a	n/a	n/a	n/a	n/a	n/a	n/a	n/a	n/a	n/a	n/a	n/a
2206.982	n/a	WORD	1103491	wordpools/wasnorm_wordpool.txt	LTP108	ltpFR	12	9	0	WHEEL	1603	n/a	1	n/a	0	0	0	0	0.5869140625	0.422607421875	lower	../fonts/zerothre.ttf
2209.988	n/a	START	1104994	n/a	LTP108	ltpFR	12	n/a	n/a	n/a	n/a	n/a	n/a	n/a	n/a	n/a	n/a	n/a	n/a	n/a	n/a	n/a
2211.144	n/a	PROB	1105572	n/a	LTP108	ltpFR	12	n/a	n/a	n/a	n/a	n/a	n/a	15	4	7	4	n/a	n/a	n/a	n/a	n/a
2213.016	n/a	PROB	1106508	n/a	LTP108	ltpFR	12	n/a	n/a	n/a	n/a	n/a	n/a	17	9	1	7	n/a	n/a	n/a	n/a	n/a
2216.204	n/a	PROB	1108102	n/a	LTP108	ltpFR	12	n/a	n/a	n/a	n/a	n/a	n/a	14	1	4	9	n/a	n/a	n/a	n/a	n/a
2217.894	n/a	PROB	1108947	n/a	LTP108	ltpFR	12	n/a	n/a	n/a	n/a	n/a	n/a	13	2	6	5	n/a	n/a	n/a	n/a	n/a
2219.75	n/a	PROB	1109875	n/a	LTP108	ltpFR	12	n/a	n/a	n/a	n/a	n/a	n/a	20	5	7	8	n/a	n/a	n/a	n/a	n/a
2225.988	n/a	STOP	1112994	n/a	LTP108	ltpFR	12	n/a	n/a	n/a	n/a	n/a	n/a	n/a	n/a	n/a	n/a	n/a	n/a	n/a	n/a	n/a
2227.058	n/a	WORD	1113529	wordpools/wasnorm_wordpool.txt	LTP108	ltpFR	12	9	0	STAGE	1366	n/a	1	n/a	0	0	0	0	0.5869140625	0.422607421875	lower	../fonts/zerothre.ttf
2230.064	n/a	START	1115032	n/a	LTP108	ltpFR	12	n/a	n/a	n/a	n/a	n/a	n/a	n/a	n/a	n/a	n/a	n/a	n/a	n/a	n/a	n/a
2231.104	n/a	PROB	1115552	n/a	LTP108	ltpFR	12	n/a	n/a	n/a	n/a	n/a	n/a	12	1	4	7	n/a	n/a	n/a	n/a	n/a
2233.71	n/a	PROB	1116855	n/a	LTP108	ltpFR	12	n/a	n/a	n/a	n/a	n/a	n/a	18	6	3	9	n/a	n/a	n/a	n/a	n/a
2235.848	n/a	PROB	1117924	n/a	LTP108	ltpFR	12	n/a	n/a	n/a	n/a	n/a	n/a	15	7	1	7	n/a	n/a	n/a	n/a	n/a
2237.222	n/a	PROB	1118611	n/a	LTP108	ltpFR	12	n/a	n/a	n/a	n/a	n/a	n/a	5	2	1	2	n/a	n/a	n/a	n/a	n/a
2238.454	n/a	PROB	1119227	n/a	LTP108	ltpFR	12	n/a	n/a	n/a	n/a	n/a	n/a	13	7	3	3	n/a	n/a	n/a	n/a	n/a
2240.868	n/a	PROB	1120434	n/a	LTP108	ltpFR	12	n/a	n/a	n/a	n/a	n/a	n/a	12	6	4	2	n/a	n/a	n/a	n/a	n/a
2246.064	n/a	STOP	1123032	n/a	LTP108	ltpFR	12	n/a	n/a	n/a	n/a	n/a	n/a	n/a	n/a	n/a	n/a	n/a	n/a	n/a	n/a	n/a
2247.252	n/a	WORD	1123626	wordpools/wasnorm_wordpool.txt	LTP108	ltpFR	12	9	0	CITIZEN	312	n/a	1	n/a	0	0	0	0	0.5869140625	0.422607421875	lower	../fonts/zerothre.ttf
2250.256	n/a	START	1125128	n/a	LTP108	ltpFR	12	n/a	n/a	n/a	n/a	n/a	n/a	n/a	n/a	n/a	n/a	n/a	n/a	n/a	n/a	n/a
2251.222	n/a	PROB	1125611	n/a	LTP108	ltpFR	12	n/a	n/a	n/a	n/a	n/a	n/a	15	7	2	6	n/a	n/a	n/a	n/a	n/a
2253.96	n/a	PROB	1126980	n/a	LTP108	ltpFR	12	n/a	n/a	n/a	n/a	n/a	n/a	15	3	3	9	n/a	n/a	n/a	n/a	n/a
2256.998	n/a	PROB	1128499	n/a	LTP108	ltpFR	12	n/a	n/a	n/a	n/a	n/a	n/a	21	6	6	9	n/a	n/a	n/a	n/a	n/a
2260.47	n/a	PROB	1130235	n/a	LTP108	ltpFR	12	n/a	n/a	n/a	n/a	n/a	n/a	19	6	7	6	n/a	n/a	n/a	n/a	n/a
2266.256	n/a	STOP	1133128	n/a	LTP108	ltpFR	12	n/a	n/a	n/a	n/a	n/a	n/a	n/a	n/a	n/a	n/a	n/a	n/a	n/a	n/a	n/a
2267.262	n/a	WORD	1133631	wordpools/wasnorm_wordpool.txt	LTP108	ltpFR	12	9	0	BOOK	149	n/a	1	n/a	0	0	0	0	0.5869140625	0.422607421875	lower	../fonts/zerothre.ttf
2270.268	n/a	START	1135134	n/a	LTP108	ltpFR	12	n/a	n/a	n/a	n/a	n/a	n/a	n/a	n/a	n/a	n/a	n/a	n/a	n/a	n/a	n/a
2271.314	n/a	PROB	1135657	n/a	LTP108	ltpFR	12	n/a	n/a	n/a	n/a	n/a	n/a	15	7	2	6	n/a	n/a	n/a	n/a	n/a
2275.678	n/a	PROB	1137839	n/a	LTP108	ltpFR	12	n/a	n/a	n/a	n/a	n/a	n/a	11	3	1	7	n/a	n/a	n/a	n/a	n/a
2277.574	n/a	PROB	1138787	n/a	LTP108	ltpFR	12	n/a	n/a	n/a	n/a	n/a	n/a	18	7	5	6	n/a	n/a	n/a	n/a	n/a
2279.83	n/a	PROB	1139915	n/a	LTP108	ltpFR	12	n/a	n/a	n/a	n/a	n/a	n/a	6	4	1	1	n/a	n/a	n/a	n/a	n/a
2281.388	n/a	PROB	1140694	n/a	LTP108	ltpFR	12	n/a	n/a	n/a	n/a	n/a	n/a	13	6	6	1	n/a	n/a	n/a	n/a	n/a
2284.25	n/a	PROB	1142125	n/a	LTP108	ltpFR	12	n/a	n/a	n/a	n/a	n/a	n/a	15	9	2	4	n/a	n/a	n/a	n/a	n/a
2286.13	n/a	STOP	1143065	n/a	LTP108	ltpFR	12	n/a	n/a	n/a	n/a	n/a	n/a	n/a	n/a	n/a	n/a	n/a	n/a	n/a	n/a	n/a
2287.174	n/a	WORD	1143587	wordpools/wasnorm_wordpool.txt	LTP108	ltpFR	12	9	0	DAGGER	434	n/a	0	n/a	0	0	0	0	0.5869140625	0.422607421875	lower	../fonts/zerothre.ttf
2290.178	n/a	START	1145089	n/a	LTP108	ltpFR	12	n/a	n/a	n/a	n/a	n/a	n/a	n/a	n/a	n/a	n/a	n/a	n/a	n/a	n/a	n/a
2291.292	n/a	PROB	1145646	n/a	LTP108	ltpFR	12	n/a	n/a	n/a	n/a	n/a	n/a	18	1	8	9	n/a	n/a	n/a	n/a	n/a
2292.526	n/a	PROB	1146263	n/a	LTP108	ltpFR	12	n/a	n/a	n/a	n/a	n/a	n/a	12	4	3	5	n/a	n/a	n/a	n/a	n/a
2296.554	n/a	PROB	1148277	n/a	LTP108	ltpFR	12	n/a	n/a	n/a	n/a	n/a	n/a	13	9	1	3	n/a	n/a	n/a	n/a	n/a
2298.218	n/a	PROB	1149109	n/a	LTP108	ltpFR	12	n/a	n/a	n/a	n/a	n/a	n/a	11	3	5	3	n/a	n/a	n/a	n/a	n/a
2300.458	n/a	PROB	1150229	n/a	LTP108	ltpFR	12	n/a	n/a	n/a	n/a	n/a	n/a	22	5	9	8	n/a	n/a	n/a	n/a	n/a
2306.178	n/a	STOP	1153089	n/a	LTP108	ltpFR	12	n/a	n/a	n/a	n/a	n/a	n/a	n/a	n/a	n/a	n/a	n/a	n/a	n/a	n/a	n/a
2307.332	n/a	WORD	1153666	wordpools/wasnorm_wordpool.txt	LTP108	ltpFR	12	9	0	SCALPEL	1243	n/a	0	n/a	0	0	0	0	0.5869140625	0.422607421875	lower	../fonts/zerothre.ttf
2310.338	n/a	START	1155169	n/a	LTP108	ltpFR	12	n/a	n/a	n/a	n/a	n/a	n/a	n/a	n/a	n/a	n/a	n/a	n/a	n/a	n/a	n/a
2311.478	n/a	PROB	1155739	n/a	LTP108	ltpFR	12	n/a	n/a	n/a	n/a	n/a	n/a	12	2	1	9	n/a	n/a	n/a	n/a	n/a
2313.634	n/a	PROB	1156817	n/a	LTP108	ltpFR	12	n/a	n/a	n/a	n/a	n/a	n/a	8	3	2	3	n/a	n/a	n/a	n/a	n/a
2315.806	n/a	PROB	1157903	n/a	LTP108	ltpFR	12	n/a	n/a	n/a	n/a	n/a	n/a	10	2	5	3	n/a	n/a	n/a	n/a	n/a
2319.244	n/a	PROB	1159622	n/a	LTP108	ltpFR	12	n/a	n/a	n/a	n/a	n/a	n/a	20	5	9	8	n/a	n/a	n/a	n/a	n/a
2322.1	n/a	PROB	1161050	n/a	LTP108	ltpFR	12	n/a	n/a	n/a	n/a	n/a	n/a	19	9	6	4	n/a	n/a	n/a	n/a	n/a
2325.53	n/a	STOP	1162765	n/a	LTP108	ltpFR	12	n/a	n/a	n/a	n/a	n/a	n/a	n/a	n/a	n/a	n/a	n/a	n/a	n/a	n/a	n/a
2327.476	n/a	WORD	1163738	wordpools/wasnorm_wordpool.txt	LTP108	ltpFR	12	9	0	RELISH	1183	n/a	0	n/a	0	0	0	0	0.5869140625	0.422607421875	lower	../fonts/zerothre.ttf
2330.482	n/a	START	1165241	n/a	LTP108	ltpFR	12	n/a	n/a	n/a	n/a	n/a	n/a	n/a	n/a	n/a	n/a	n/a	n/a	n/a	n/a	n/a
2331.672	n/a	PROB	1165836	n/a	LTP108	ltpFR	12	n/a	n/a	n/a	n/a	n/a	n/a	15	3	7	5	n/a	n/a	n/a	n/a	n/a
2334.194	n/a	PROB	1167097	n/a	LTP108	ltpFR	12	n/a	n/a	n/a	n/a	n/a	n/a	10	1	2	7	n/a	n/a	n/a	n/a	n/a
2337.288	n/a	PROB	1168644	n/a	LTP108	ltpFR	12	n/a	n/a	n/a	n/a	n/a	n/a	10	1	1	8	n/a	n/a	n/a	n/a	n/a
2338.688	n/a	PROB	1169344	n/a	LTP108	ltpFR	12	n/a	n/a	n/a	n/a	n/a	n/a	15	5	2	8	n/a	n/a	n/a	n/a	n/a
2340.552	n/a	PROB	1170276	n/a	LTP108	ltpFR	12	n/a	n/a	n/a	n/a	n/a	n/a	19	4	7	8	n/a	n/a	n/a	n/a	n/a
2345.01	n/a	STOP	1172505	n/a	LTP108	ltpFR	12	n/a	n/a	n/a	n/a	n/a	n/a	n/a	n/a	n/a	n/a	n/a	n/a	n/a	n/a	n/a
2347.586	n/a	WORD	1173793	wordpools/wasnorm_wordpool.txt	LTP108	ltpFR	12	9	0	REFRIGERATOR	1179	n/a	1	n/a	0	0	0	0	0.5869140625	0.422607421875	lower	../fonts/zerothre.ttf
2350.592	n/a	START	1175296	n/a	LTP108	ltpFR	12	n/a	n/a	n/a	n/a	n/a	n/a	n/a	n/a	n/a	n/a	n/a	n/a	n/a	n/a	n/a
2351.656	n/a	PROB	1175828	n/a	LTP108	ltpFR	12	n/a	n/a	n/a	n/a	n/a	n/a	6	1	1	4	n/a	n/a	n/a	n/a	n/a
2353.354	n/a	PROB	1176677	n/a	LTP108	ltpFR	12	n/a	n/a	n/a	n/a	n/a	n/a	15	6	6	3	n/a	n/a	n/a	n/a	n/a
2354.82	n/a	PROB	1177410	n/a	LTP108	ltpFR	12	n/a	n/a	n/a	n/a	n/a	n/a	11	6	4	1	n/a	n/a	n/a	n/a	n/a
2357.732	n/a	PROB	1178866	n/a	LTP108	ltpFR	12	n/a	n/a	n/a	n/a	n/a	n/a	19	3	7	9	n/a	n/a	n/a	n/a	n/a
2359.406	n/a	PROB	1179703	n/a	LTP108	ltpFR	12	n/a	n/a	n/a	n/a	n/a	n/a	20	7	8	5	n/a	n/a	n/a	n/a	n/a
2362.236	n/a	PROB	1181118	n/a	LTP108	ltpFR	12	n/a	n/a	n/a	n/a	n/a	n/a	18	4	8	6	n/a	n/a	n/a	n/a	n/a
2364.6	n/a	PROB	1182300	n/a	LTP108	ltpFR	12	n/a	n/a	n/a	n/a	n/a	n/a	4	1	1	2	n/a	n/a	n/a	n/a	n/a
2365.922	n/a	STOP	1182961	n/a	LTP108	ltpFR	12	n/a	n/a	n/a	n/a	n/a	n/a	n/a	n/a	n/a	n/a	n/a	n/a	n/a	n/a	n/a
2367.622	n/a	WORD	1183811	wordpools/wasnorm_wordpool.txt	LTP108	ltpFR	12	9	0	CLASS	318	n/a	1	n/a	0	0	0	0	0.5869140625	0.422607421875	lower	../fonts/zerothre.ttf
2370.628	n/a	START	1185314	n/a	LTP108	ltpFR	12	n/a	n/a	n/a	n/a	n/a	n/a	n/a	n/a	n/a	n/a	n/a	n/a	n/a	n/a	n/a
2371.676	n/a	PROB	1185838	n/a	LTP108	ltpFR	12	n/a	n/a	n/a	n/a	n/a	n/a	21	7	9	5	n/a	n/a	n/a	n/a	n/a
2376.212	n/a	PROB	1188106	n/a	LTP108	ltpFR	12	n/a	n/a	n/a	n/a	n/a	n/a	13	4	5	4	n/a	n/a	n/a	n/a	n/a
2382.23	n/a	PROB	1191115	n/a	LTP108	ltpFR	12	n/a	n/a	n/a	n/a	n/a	n/a	16	1	9	6	n/a	n/a	n/a	n/a	n/a
2383.77	n/a	PROB	1191885	n/a	LTP108	ltpFR	12	n/a	n/a	n/a	n/a	n/a	n/a	11	1	1	9	n/a	n/a	n/a	n/a	n/a
2385.194	n/a	STOP	1192597	n/a	LTP108	ltpFR	12	n/a	n/a	n/a	n/a	n/a	n/a	n/a	n/a	n/a	n/a	n/a	n/a	n/a	n/a	n/a
2387.658	n/a	WORD	1193829	wordpools/wasnorm_wordpool.txt	LTP108	ltpFR	12	9	0	CROWN	415	n/a	1	n/a	0	0	0	0	0.5869140625	0.422607421875	lower	../fonts/zerothre.ttf
2390.662	n/a	START	1195331	n/a	LTP108	ltpFR	12	n/a	n/a	n/a	n/a	n/a	n/a	n/a	n/a	n/a	n/a	n/a	n/a	n/a	n/a	n/a
2391.686	n/a	PROB	1195843	n/a	LTP108	ltpFR	12	n/a	n/a	n/a	n/a	n/a	n/a	18	8	5	5	n/a	n/a	n/a	n/a	n/a
2393.01	n/a	PROB	1196505	n/a	LTP108	ltpFR	12	n/a	n/a	n/a	n/a	n/a	n/a	15	5	3	9	n/a	n/a	n/a	n/a	n/a
2396.288	n/a	PROB	1198144	n/a	LTP108	ltpFR	12	n/a	n/a	n/a	n/a	n/a	n/a	16	8	7	1	n/a	n/a	n/a	n/a	n/a
2398.378	n/a	PROB	1199189	n/a	LTP108	ltpFR	12	n/a	n/a	n/a	n/a	n/a	n/a	23	8	6	9	n/a	n/a	n/a	n/a	n/a
2402.29	n/a	PROB	1201145	n/a	LTP108	ltpFR	12	n/a	n/a	n/a	n/a	n/a	n/a	14	5	1	8	n/a	n/a	n/a	n/a	n/a
2406.662	n/a	STOP	1203331	n/a	LTP108	ltpFR	12	n/a	n/a	n/a	n/a	n/a	n/a	n/a	n/a	n/a	n/a	n/a	n/a	n/a	n/a	n/a
2407.8	n/a	WORD	1203900	wordpools/wasnorm_wordpool.txt	LTP108	ltpFR	12	9	0	EMPLOYER	532	n/a	1	n/a	0	0	0	0	0.5869140625	0.422607421875	lower	../fonts/zerothre.ttf
2410.806	n/a	START	1205403	n/a	LTP108	ltpFR	12	n/a	n/a	n/a	n/a	n/a	n/a	n/a	n/a	n/a	n/a	n/a	n/a	n/a	n/a	n/a
2411.788	n/a	PROB	1205894	n/a	LTP108	ltpFR	12	n/a	n/a	n/a	n/a	n/a	n/a	15	5	8	2	n/a	n/a	n/a	n/a	n/a
2413.054	n/a	PROB	1206527	n/a	LTP108	ltpFR	12	n/a	n/a	n/a	n/a	n/a	n/a	10	5	2	3	n/a	n/a	n/a	n/a	n/a
2414.584	n/a	PROB	1207292	n/a	LTP108	ltpFR	12	n/a	n/a	n/a	n/a	n/a	n/a	16	9	3	4	n/a	n/a	n/a	n/a	n/a
2416.482	n/a	PROB	1208241	n/a	LTP108	ltpFR	12	n/a	n/a	n/a	n/a	n/a	n/a	17	8	8	1	n/a	n/a	n/a	n/a	n/a
2419.336	n/a	PROB	1209668	n/a	LTP108	ltpFR	12	n/a	n/a	n/a	n/a	n/a	n/a	18	4	9	7	n/a	n/a	n/a	n/a	n/a
2422.65	n/a	PROB	1211325	n/a	LTP108	ltpFR	12	n/a	n/a	n/a	n/a	n/a	n/a	13	4	3	6	n/a	n/a	n/a	n/a	n/a
2426.806	n/a	STOP	1213403	n/a	LTP108	ltpFR	12	n/a	n/a	n/a	n/a	n/a	n/a	n/a	n/a	n/a	n/a	n/a	n/a	n/a	n/a	n/a
2428.66	n/a	REC_START	1214330	n/a	LTP108	ltpFR	12	9	n/a	n/a	n/a	n/a	n/a	n/a	0	0	0	n/a	n/a	n/a	n/a	n/a
2432.308	n/a	REC_WORD	1216154	wordpools/wasnorm_wordpool.txt	LTP108	ltpFR	12	9	0	DAGGER	434	n/a	0	n/a	0	0	0	n/a	n/a	n/a	n/a	n/a
2433.868	n/a	REC_WORD_VV	1216934	wordpools/wasnorm_wordpool.txt	LTP108	ltpFR	12	9	n/a	<>	-1	n/a	n/a	n/a	0	0	0	n/a	n/a	n/a	n/a	n/a
2443.336	n/a	REC_WORD	1221668	wordpools/wasnorm_wordpool.txt	LTP108	ltpFR	12	9	0	SCALPEL	1243	n/a	0	n/a	0	0	0	n/a	n/a	n/a	n/a	n/a
2445.856	n/a	REC_WORD	1222928	wordpools/wasnorm_wordpool.txt	LTP108	ltpFR	12	9	0	EMPLOYER	532	n/a	1	n/a	0	0	0	n/a	n/a	n/a	n/a	n/a
2459.302	n/a	REC_WORD	1229651	wordpools/wasnorm_wordpool.txt	LTP108	ltpFR	12	9	0	MONARCH	906	n/a	1	n/a	0	0	0	n/a	n/a	n/a	n/a	n/a
2462.18	n/a	REC_WORD	1231090	wordpools/wasnorm_wordpool.txt	LTP108	ltpFR	12	9	0	CITIZEN	312	n/a	1	n/a	0	0	0	n/a	n/a	n/a	n/a	n/a
2513.454	n/a	START	1256727	n/a	LTP108	ltpFR	12	n/a	n/a	n/a	n/a	n/a	n/a	n/a	n/a	n/a	n/a	n/a	n/a	n/a	n/a	n/a
2514.96	n/a	PROB	1257480	n/a	LTP108	ltpFR	12	n/a	n/a	n/a	n/a	n/a	n/a	10	4	4	2	n/a	n/a	n/a	n/a	n/a
2518.69	n/a	PROB	1259345	n/a	LTP108	ltpFR	12	n/a	n/a	n/a	n/a	n/a	n/a	12	1	8	3	n/a	n/a	n/a	n/a	n/a
2521.1	n/a	STOP	1260550	n/a	LTP108	ltpFR	12	n/a	n/a	n/a	n/a	n/a	n/a	n/a	n/a	n/a	n/a	n/a	n/a	n/a	n/a	n/a
2522.368	n/a	WORD	1261184	wordpools/wasnorm_wordpool.txt	LTP108	ltpFR	12	10	1	BARK	87	n/a	1	n/a	0	0	0	1	0.412841796875	0.57763671875	upper	../fonts/amplitud.ttf
2525.374	n/a	START	1262687	n/a	LTP108	ltpFR	12	n/a	n/a	n/a	n/a	n/a	n/a	n/a	n/a	n/a	n/a	n/a	n/a	n/a	n/a	n/a
2526.372	n/a	PROB	1263186	n/a	LTP108	ltpFR	12	n/a	n/a	n/a	n/a	n/a	n/a	21	6	7	9	n/a	n/a	n/a	n/a	n/a
2530.95	n/a	PROB	1265475	n/a	LTP108	ltpFR	12	n/a	n/a	n/a	n/a	n/a	n/a	11	1	6	4	n/a	n/a	n/a	n/a	n/a
2532.812	n/a	STOP	1266406	n/a	LTP108	ltpFR	12	n/a	n/a	n/a	n/a	n/a	n/a	n/a	n/a	n/a	n/a	n/a	n/a	n/a	n/a	n/a
2534.572	n/a	WORD	1267286	wordpools/wasnorm_wordpool.txt	LTP108	ltpFR	12	10	1	CATCHER	258	n/a	1	n/a	0	0	0	1	0.412841796875	0.57763671875	upper	../fonts/amplitud.ttf
2537.576	n/a	START	1268788	n/a	LTP108	ltpFR	12	n/a	n/a	n/a	n/a	n/a	n/a	n/a	n/a	n/a	n/a	n/a	n/a	n/a	n/a	n/a
2538.742	n/a	PROB	1269371	n/a	LTP108	ltpFR	12	n/a	n/a	n/a	n/a	n/a	n/a	9	7	1	1	n/a	n/a	n/a	n/a	n/a
2540.306	n/a	PROB	1270153	n/a	LTP108	ltpFR	12	n/a	n/a	n/a	n/a	n/a	n/a	8	3	1	4	n/a	n/a	n/a	n/a	n/a
2542.538	n/a	PROB	1271269	n/a	LTP108	ltpFR	12	n/a	n/a	n/a	n/a	n/a	n/a	16	7	6	3	n/a	n/a	n/a	n/a	n/a
2544.26	n/a	STOP	1272130	n/a	LTP108	ltpFR	12	n/a	n/a	n/a	n/a	n/a	n/a	n/a	n/a	n/a	n/a	n/a	n/a	n/a	n/a	n/a
2546.658	n/a	WORD	1273329	wordpools/wasnorm_wordpool.txt	LTP108	ltpFR	12	10	1	UNICORN	1538	n/a	0	n/a	0	0	0	1	0.412841796875	0.57763671875	upper	../fonts/amplitud.ttf
2549.664	n/a	START	1274832	n/a	LTP108	ltpFR	12	n/a	n/a	n/a	n/a	n/a	n/a	n/a	n/a	n/a	n/a	n/a	n/a	n/a	n/a	n/a
2550.67	n/a	PROB	1275335	n/a	LTP108	ltpFR	12	n/a	n/a	n/a	n/a	n/a	n/a	11	1	1	9	n/a	n/a	n/a	n/a	n/a
2551.952	n/a	PROB	1275976	n/a	LTP108	ltpFR	12	n/a	n/a	n/a	n/a	n/a	n/a	20	9	6	6	n/a	n/a	n/a	n/a	n/a
2554.442	n/a	PROB	1277221	n/a	LTP108	ltpFR	12	n/a	n/a	n/a	n/a	n/a	n/a	11	3	4	4	n/a	n/a	n/a	n/a	n/a
2557.636	n/a	STOP	1278818	n/a	LTP108	ltpFR	12	n/a	n/a	n/a	n/a	n/a	n/a	n/a	n/a	n/a	n/a	n/a	n/a	n/a	n/a	n/a
2558.812	n/a	WORD	1279406	wordpools/wasnorm_wordpool.txt	LTP108	ltpFR	12	10	1	ROSE	1212	n/a	1	n/a	0	0	0	1	0.412841796875	0.57763671875	upper	../fonts/amplitud.ttf
2561.816	n/a	START	1280908	n/a	LTP108	ltpFR	12	n/a	n/a	n/a	n/a	n/a	n/a	n/a	n/a	n/a	n/a	n/a	n/a	n/a	n/a	n/a
2562.948	n/a	PROB	1281474	n/a	LTP108	ltpFR	12	n/a	n/a	n/a	n/a	n/a	n/a	17	4	4	9	n/a	n/a	n/a	n/a	n/a
2565.478	n/a	PROB	1282739	n/a	LTP108	ltpFR	12	n/a	n/a	n/a	n/a	n/a	n/a	17	7	2	8	n/a	n/a	n/a	n/a	n/a
2568.348	n/a	STOP	1284174	n/a	LTP108	ltpFR	12	n/a	n/a	n/a	n/a	n/a	n/a	n/a	n/a	n/a	n/a	n/a	n/a	n/a	n/a	n/a
2570.98	n/a	WORD	1285490	wordpools/wasnorm_wordpool.txt	LTP108	ltpFR	12	10	1	FLOWER	584	n/a	1	n/a	0	0	0	1	0.412841796875	0.57763671875	upper	../fonts/amplitud.ttf
2573.986	n/a	START	1286993	n/a	LTP108	ltpFR	12	n/a	n/a	n/a	n/a	n/a	n/a	n/a	n/a	n/a	n/a	n/a	n/a	n/a	n/a	n/a
2574.91	n/a	PROB	1287455	n/a	LTP108	ltpFR	12	n/a	n/a	n/a	n/a	n/a	n/a	13	9	2	2	n/a	n/a	n/a	n/a	n/a
2577.714	n/a	PROB	1288857	n/a	LTP108	ltpFR	12	n/a	n/a	n/a	n/a	n/a	n/a	11	2	8	1	n/a	n/a	n/a	n/a	n/a
2579.32	n/a	PROB	1289660	n/a	LTP108	ltpFR	12	n/a	n/a	n/a	n/a	n/a	n/a	15	9	3	3	n/a	n/a	n/a	n/a	n/a
2581.18	n/a	STOP	1290590	n/a	LTP108	ltpFR	12	n/a	n/a	n/a	n/a	n/a	n/a	n/a	n/a	n/a	n/a	n/a	n/a	n/a	n/a	n/a
2582.808	n/a	WORD	1291404	wordpools/wasnorm_wordpool.txt	LTP108	ltpFR	12	10	1	CRAB	397	n/a	1	n/a	0	0	0	1	0.412841796875	0.57763671875	upper	../fonts/amplitud.ttf
2585.814	n/a	START	1292907	n/a	LTP108	ltpFR	12	n/a	n/a	n/a	n/a	n/a	n/a	n/a	n/a	n/a	n/a	n/a	n/a	n/a	n/a	n/a
2586.72	n/a	PROB	1293360	n/a	LTP108	ltpFR	12	n/a	n/a	n/a	n/a	n/a	n/a	19	7	4	8	n/a	n/a	n/a	n/a	n/a
2589.926	n/a	PROB	1294963	n/a	LTP108	ltpFR	12	n/a	n/a	n/a	n/a	n/a	n/a	12	4	6	2	n/a	n/a	n/a	n/a	n/a
2592.388	n/a	STOP	1296194	n/a	LTP108	ltpFR	12	n/a	n/a	n/a	n/a	n/a	n/a	n/a	n/a	n/a	n/a	n/a	n/a	n/a	n/a	n/a
2594.762	n/a	WORD	1297381	wordpools/wasnorm_wordpool.txt	LTP108	ltpFR	12	10	1	JUDGE	761	n/a	0	n/a	0	0	0	1	0.412841796875	0.57763671875	upper	../fonts/amplitud.ttf
2597.766	n/a	START	1298883	n/a	LTP108	ltpFR	12	n/a	n/a	n/a	n/a	n/a	n/a	n/a	n/a	n/a	n/a	n/a	n/a	n/a	n/a	n/a
2598.59	n/a	PROB	1299295	n/a	LTP108	ltpFR	12	n/a	n/a	n/a	n/a	n/a	n/a	17	9	7	1	n/a	n/a	n/a	n/a	n/a
2600.738	n/a	PROB	1300369	n/a	LTP108	ltpFR	12	n/a	n/a	n/a	n/a	n/a	n/a	12	7	2	3	n/a	n/a	n/a	n/a	n/a
2605.766	n/a	STOP	1302883	n/a	LTP108	ltpFR	12	n/a	n/a	n/a	n/a	n/a	n/a	n/a	n/a	n/a	n/a	n/a	n/a	n/a	n/a	n/a
2606.738	n/a	WORD	1303369	wordpools/wasnorm_wordpool.txt	LTP108	ltpFR	12	10	1	BARN	89	n/a	0	n/a	0	0	0	1	0.412841796875	0.57763671875	upper	../fonts/amplitud.ttf
2609.744	n/a	START	1304872	n/a	LTP108	ltpFR	12	n/a	n/a	n/a	n/a	n/a	n/a	n/a	n/a	n/a	n/a	n/a	n/a	n/a	n/a	n/a
2610.576	n/a	PROB	1305288	n/a	LTP108	ltpFR	12	n/a	n/a	n/a	n/a	n/a	n/a	16	9	3	4	n/a	n/a	n/a	n/a	n/a
2613.98	n/a	PROB	1306990	n/a	LTP108	ltpFR	12	n/a	n/a	n/a	n/a	n/a	n/a	21	8	6	7	n/a	n/a	n/a	n/a	n/a
2616.252	n/a	STOP	1308126	n/a	LTP108	ltpFR	12	n/a	n/a	n/a	n/a	n/a	n/a	n/a	n/a	n/a	n/a	n/a	n/a	n/a	n/a	n/a
2618.558	n/a	WORD	1309279	wordpools/wasnorm_wordpool.txt	LTP108	ltpFR	12	10	1	WAITER	1580	n/a	1	n/a	0	0	0	1	0.412841796875	0.57763671875	upper	../fonts/amplitud.ttf
2621.564	n/a	START	1310782	n/a	LTP108	ltpFR	12	n/a	n/a	n/a	n/a	n/a	n/a	n/a	n/a	n/a	n/a	n/a	n/a	n/a	n/a	n/a
2622.496	n/a	PROB	1311248	n/a	LTP108	ltpFR	12	n/a	n/a	n/a	n/a	n/a	n/a	21	9	8	6	n/a	n/a	n/a	n/a	n/a
2629.564	n/a	STOP	1314782	n/a	LTP108	ltpFR	12	n/a	n/a	n/a	n/a	n/a	n/a	n/a	n/a	n/a	n/a	n/a	n/a	n/a	n/a	n/a
2630.678	n/a	WORD	1315339	wordpools/wasnorm_wordpool.txt	LTP108	ltpFR	12	10	1	NICOTINE	951	n/a	0	n/a	0	0	0	1	0.412841796875	0.57763671875	upper	../fonts/amplitud.ttf
2633.684	n/a	START	1316842	n/a	LTP108	ltpFR	12	n/a	n/a	n/a	n/a	n/a	n/a	n/a	n/a	n/a	n/a	n/a	n/a	n/a	n/a	n/a
2634.64	n/a	PROB	1317320	n/a	LTP108	ltpFR	12	n/a	n/a	n/a	n/a	n/a	n/a	18	2	7	9	n/a	n/a	n/a	n/a	n/a
2637.496	n/a	PROB	1318748	n/a	LTP108	ltpFR	12	n/a	n/a	n/a	n/a	n/a	n/a	15	8	4	3	n/a	n/a	n/a	n/a	n/a
2640.292	n/a	STOP	1320146	n/a	LTP108	ltpFR	12	n/a	n/a	n/a	n/a	n/a	n/a	n/a	n/a	n/a	n/a	n/a	n/a	n/a	n/a	n/a
2642.664	n/a	WORD	1321332	wordpools/wasnorm_wordpool.txt	LTP108	ltpFR	12	10	1	WAITRESS	1581	n/a	1	n/a	0	0	0	1	0.412841796875	0.57763671875	upper	../fonts/amplitud.ttf
2645.67	n/a	START	1322835	n/a	LTP108	ltpFR	12	n/a	n/a	n/a	n/a	n/a	n/a	n/a	n/a	n/a	n/a	n/a	n/a	n/a	n/a	n/a
2646.826	n/a	PROB	1323413	n/a	LTP108	ltpFR	12	n/a	n/a	n/a	n/a	n/a	n/a	16	3	4	5	n/a	n/a	n/a	n/a	n/a
2649.524	n/a	PROB	1324762	n/a	LTP108	ltpFR	12	n/a	n/a	n/a	n/a	n/a	n/a	10	6	3	1	n/a	n/a	n/a	n/a	n/a
2652.942	n/a	STOP	1326471	n/a	LTP108	ltpFR	12	n/a	n/a	n/a	n/a	n/a	n/a	n/a	n/a	n/a	n/a	n/a	n/a	n/a	n/a	n/a
2654.834	n/a	WORD	1327417	wordpools/wasnorm_wordpool.txt	LTP108	ltpFR	12	10	1	CAPE	237	n/a	0	n/a	0	0	0	1	0.412841796875	0.57763671875	upper	../fonts/amplitud.ttf
2657.84	n/a	START	1328920	n/a	LTP108	ltpFR	12	n/a	n/a	n/a	n/a	n/a	n/a	n/a	n/a	n/a	n/a	n/a	n/a	n/a	n/a	n/a
2659.02	n/a	PROB	1329510	n/a	LTP108	ltpFR	12	n/a	n/a	n/a	n/a	n/a	n/a	18	9	8	1	n/a	n/a	n/a	n/a	n/a
2660.836	n/a	PROB	1330418	n/a	LTP108	ltpFR	12	n/a	n/a	n/a	n/a	n/a	n/a	10	1	6	3	n/a	n/a	n/a	n/a	n/a
2665.84	n/a	STOP	1332920	n/a	LTP108	ltpFR	12	n/a	n/a	n/a	n/a	n/a	n/a	n/a	n/a	n/a	n/a	n/a	n/a	n/a	n/a	n/a
2666.912	n/a	WORD	1333456	wordpools/wasnorm_wordpool.txt	LTP108	ltpFR	12	10	1	EDITORIAL	517	n/a	0	n/a	0	0	0	1	0.412841796875	0.57763671875	upper	../fonts/amplitud.ttf
2669.916	n/a	START	1334958	n/a	LTP108	ltpFR	12	n/a	n/a	n/a	n/a	n/a	n/a	n/a	n/a	n/a	n/a	n/a	n/a	n/a	n/a	n/a
2670.882	n/a	PROB	1335441	n/a	LTP108	ltpFR	12	n/a	n/a	n/a	n/a	n/a	n/a	26	9	8	9	n/a	n/a	n/a	n/a	n/a
2673.87	n/a	PROB	1336935	n/a	LTP108	ltpFR	12	n/a	n/a	n/a	n/a	n/a	n/a	23	9	5	9	n/a	n/a	n/a	n/a	n/a
2677.574	n/a	STOP	1338787	n/a	LTP108	ltpFR	12	n/a	n/a	n/a	n/a	n/a	n/a	n/a	n/a	n/a	n/a	n/a	n/a	n/a	n/a	n/a
2678.914	n/a	WORD	1339457	wordpools/wasnorm_wordpool.txt	LTP108	ltpFR	12	10	1	BANDANNA	80	n/a	0	n/a	0	0	0	1	0.412841796875	0.57763671875	upper	../fonts/amplitud.ttf
2681.92	n/a	START	1340960	n/a	LTP108	ltpFR	12	n/a	n/a	n/a	n/a	n/a	n/a	n/a	n/a	n/a	n/a	n/a	n/a	n/a	n/a	n/a
2682.86	n/a	PROB	1341430	n/a	LTP108	ltpFR	12	n/a	n/a	n/a	n/a	n/a	n/a	20	9	8	3	n/a	n/a	n/a	n/a	n/a
2685.424	n/a	PROB	1342712	n/a	LTP108	ltpFR	12	n/a	n/a	n/a	n/a	n/a	n/a	4	2	1	1	n/a	n/a	n/a	n/a	n/a
2687.046	n/a	PROB	1343523	n/a	LTP108	ltpFR	12	n/a	n/a	n/a	n/a	n/a	n/a	15	3	3	9	n/a	n/a	n/a	n/a	n/a
2688.662	n/a	STOP	1344331	n/a	LTP108	ltpFR	12	n/a	n/a	n/a	n/a	n/a	n/a	n/a	n/a	n/a	n/a	n/a	n/a	n/a	n/a	n/a
2691.034	n/a	WORD	1345517	wordpools/wasnorm_wordpool.txt	LTP108	ltpFR	12	10	1	ARROW	40	n/a	0	n/a	0	0	0	1	0.412841796875	0.57763671875	upper	../fonts/amplitud.ttf
2694.04	n/a	START	1347020	n/a	LTP108	ltpFR	12	n/a	n/a	n/a	n/a	n/a	n/a	n/a	n/a	n/a	n/a	n/a	n/a	n/a	n/a	n/a
2695.17	n/a	PROB	1347585	n/a	LTP108	ltpFR	12	n/a	n/a	n/a	n/a	n/a	n/a	12	2	2	8	n/a	n/a	n/a	n/a	n/a
2696.836	n/a	PROB	1348418	n/a	LTP108	ltpFR	12	n/a	n/a	n/a	n/a	n/a	n/a	6	3	2	1	n/a	n/a	n/a	n/a	n/a
2698.9	n/a	PROB	1349450	n/a	LTP108	ltpFR	12	n/a	n/a	n/a	n/a	n/a	n/a	27	9	9	9	n/a	n/a	n/a	n/a	n/a
2700.942	n/a	STOP	1350471	n/a	LTP108	ltpFR	12	n/a	n/a	n/a	n/a	n/a	n/a	n/a	n/a	n/a	n/a	n/a	n/a	n/a	n/a	n/a
2703.12	n/a	WORD	1351560	wordpools/wasnorm_wordpool.txt	LTP108	ltpFR	12	10	1	CIGARETTE	309	n/a	0	n/a	0	0	0	1	0.412841796875	0.57763671875	upper	../fonts/amplitud.ttf
2706.124	n/a	START	1353062	n/a	LTP108	ltpFR	12	n/a	n/a	n/a	n/a	n/a	n/a	n/a	n/a	n/a	n/a	n/a	n/a	n/a	n/a	n/a
2707.182	n/a	PROB	1353591	n/a	LTP108	ltpFR	12	n/a	n/a	n/a	n/a	n/a	n/a	19	9	2	8	n/a	n/a	n/a	n/a	n/a
2709.48	n/a	PROB	1354740	n/a	LTP108	ltpFR	12	n/a	n/a	n/a	n/a	n/a	n/a	8	2	2	4	n/a	n/a	n/a	n/a	n/a
2711.794	n/a	PROB	1355897	n/a	LTP108	ltpFR	12	n/a	n/a	n/a	n/a	n/a	n/a	8	3	4	1	n/a	n/a	n/a	n/a	n/a
2713.366	n/a	STOP	1356683	n/a	LTP108	ltpFR	12	n/a	n/a	n/a	n/a	n/a	n/a	n/a	n/a	n/a	n/a	n/a	n/a	n/a	n/a	n/a
2715.906	n/a	REC_START	1357953	n/a	LTP108	ltpFR	12	10	n/a	n/a	n/a	n/a	n/a	n/a	0	0	0	n/a	n/a	n/a	n/a	n/a
2717.832	n/a	REC_WORD	1358916	wordpools/wasnorm_wordpool.txt	LTP108	ltpFR	12	10	1	CIGARETTE	309	n/a	0	n/a	0	0	0	n/a	n/a	n/a	n/a	n/a
2718.69	n/a	REC_WORD	1359345	wordpools/wasnorm_wordpool.txt	LTP108	ltpFR	12	10	1	NICOTINE	951	n/a	0	n/a	0	0	0	n/a	n/a	n/a	n/a	n/a
2731.836	n/a	REC_WORD	1365918	wordpools/wasnorm_wordpool.txt	LTP108	ltpFR	12	10	1	BARK	87	n/a	1	n/a	0	0	0	n/a	n/a	n/a	n/a	n/a
2732.558	n/a	REC_WORD	1366279	wordpools/wasnorm_wordpool.txt	LTP108	ltpFR	12	10	1	BARN	89	n/a	0	n/a	0	0	0	n/a	n/a	n/a	n/a	n/a
2734.908	n/a	REC_WORD	1367454	wordpools/wasnorm_wordpool.txt	LTP108	ltpFR	12	10	1	CATCHER	258	n/a	1	n/a	0	0	0	n/a	n/a	n/a	n/a	n/a
2735.79	n/a	REC_WORD	1367895	wordpools/wasnorm_wordpool.txt	LTP108	ltpFR	12	10	1	UNICORN	1538	n/a	0	n/a	0	0	0	n/a	n/a	n/a	n/a	n/a
2736.804	n/a	REC_WORD	1368402	wordpools/wasnorm_wordpool.txt	LTP108	ltpFR	12	10	1	ROSE	1212	n/a	1	n/a	0	0	0	n/a	n/a	n/a	n/a	n/a
2791.494	n/a	REST_REWET	1395747	n/a	LTP108	ltpFR	12	10	n/a	n/a	n/a	n/a	n/a	n/a	0	0	0	n/a	n/a	n/a	n/a	n/a
3370.696	n/a	WORD	1685348	wordpools/wasnorm_wordpool.txt	LTP108	ltpFR	12	11	0	SEAT	1264	n/a	0	n/a	0	0	0	0	0.5869140625	0.422607421875	lower	../fonts/zerothre.ttf
3374.64	n/a	WORD	1687320	wordpools/wasnorm_wordpool.txt	LTP108	ltpFR	12	11	0	TUNA	1518	n/a	1	n/a	0	0	0	0	0.5869140625	0.422607421875	lower	../fonts/zerothre.ttf
3378.844	n/a	WORD	1689422	wordpools/wasnorm_wordpool.txt	LTP108	ltpFR	12	11	0	CENT	270	n/a	0	n/a	0	0	0	0	0.5869140625	0.422607421875	lower	../fonts/zerothre.ttf
3382.974	n/a	WORD	1691487	wordpools/wasnorm_wordpool.txt	LTP108	ltpFR	12	11	0	MARS	873	n/a	1	n/a	0	0	0	0	0.5869140625	0.422607421875	lower	../fonts/zerothre.ttf
3386.936	n/a	WORD	1693468	wordpools/wasnorm_wordpool.txt	LTP108	ltpFR	12	11	0	PLUTO	1092	n/a	1	n/a	0	0	0	0	0.5869140625	0.422607421875	lower	../fonts/zerothre.ttf
3390.914	n/a	WORD	1695457	wordpools/wasnorm_wordpool.txt	LTP108	ltpFR	12	11	0	SALIVA	1226	n/a	0	n/a	0	0	0	0	0.5869140625	0.422607421875	lower	../fonts/zerothre.ttf
3394.96	n/a	WORD	1697480	wordpools/wasnorm_wordpool.txt	LTP108	ltpFR	12	11	0	DONKEY	484	n/a	1	n/a	0	0	0	0	0.5869140625	0.422607421875	lower	../fonts/zerothre.ttf
3399.054	n/a	WORD	1699527	wordpools/wasnorm_wordpool.txt	LTP108	ltpFR	12	11	0	WAREHOUSE	1588	n/a	1	n/a	0	0	0	0	0.5869140625	0.422607421875	lower	../fonts/zerothre.ttf
3403.108	n/a	WORD	1701554	wordpools/wasnorm_wordpool.txt	LTP108	ltpFR	12	11	0	MANSION	864	n/a	1	n/a	0	0	0	0	0.5869140625	0.422607421875	lower	../fonts/zerothre.ttf
3407.004	n/a	WORD	1703502	wordpools/wasnorm_wordpool.txt	LTP108	ltpFR	12	11	0	MOTH	920	n/a	0	n/a	0	0	0	0	0.5869140625	0.422607421875	lower	../fonts/zerothre.ttf
3411.082	n/a	WORD	1705541	wordpools/wasnorm_wordpool.txt	LTP108	ltpFR	12	11	0	PAWN	1030	n/a	0	n/a	0	0	0	0	0.5869140625	0.422607421875	lower	../fonts/zerothre.ttf
3414.92	n/a	WORD	1707460	wordpools/wasnorm_wordpool.txt	LTP108	ltpFR	12	11	0	COUCH	386	n/a	1	n/a	0	0	0	0	0.5869140625	0.422607421875	lower	../fonts/zerothre.ttf
3419.124	n/a	WORD	1709562	wordpools/wasnorm_wordpool.txt	LTP108	ltpFR	12	11	0	TUXEDO	1525	n/a	1	n/a	0	0	0	0	0.5869140625	0.422607421875	lower	../fonts/zerothre.ttf
3423.128	n/a	WORD	1711564	wordpools/wasnorm_wordpool.txt	LTP108	ltpFR	12	11	0	RIVER	1194	n/a	1	n/a	0	0	0	0	0.5869140625	0.422607421875	lower	../fonts/zerothre.ttf
3427.13	n/a	WORD	1713565	wordpools/wasnorm_wordpool.txt	LTP108	ltpFR	12	11	0	MAT	877	n/a	0	n/a	0	0	0	0	0.5869140625	0.422607421875	lower	../fonts/zerothre.ttf
3431.276	n/a	WORD	1715638	wordpools/wasnorm_wordpool.txt	LTP108	ltpFR	12	11	0	KEY	773	n/a	0	n/a	0	0	0	0	0.5869140625	0.422607421875	lower	../fonts/zerothre.ttf
3434.282	n/a	START	1717141	n/a	LTP108	ltpFR	12	n/a	n/a	n/a	n/a	n/a	n/a	n/a	n/a	n/a	n/a	n/a	n/a	n/a	n/a	n/a
3435.412	n/a	PROB	1717706	n/a	LTP108	ltpFR	12	n/a	n/a	n/a	n/a	n/a	n/a	16	8	5	3	n/a	n/a	n/a	n/a	n/a
3438.152	n/a	PROB	1719076	n/a	LTP108	ltpFR	12	n/a	n/a	n/a	n/a	n/a	n/a	15	4	9	2	n/a	n/a	n/a	n/a	n/a
3443.912	n/a	PROB	1721956	n/a	LTP108	ltpFR	12	n/a	n/a	n/a	n/a	n/a	n/a	12	2	8	2	n/a	n/a	n/a	n/a	n/a
3445.768	n/a	PROB	1722884	n/a	LTP108	ltpFR	12	n/a	n/a	n/a	n/a	n/a	n/a	17	5	3	9	n/a	n/a	n/a	n/a	n/a
3450.214	n/a	STOP	1725107	n/a	LTP108	ltpFR	12	n/a	n/a	n/a	n/a	n/a	n/a	n/a	n/a	n/a	n/a	n/a	n/a	n/a	n/a	n/a
3452.168	n/a	REC_START	1726084	n/a	LTP108	ltpFR	12	11	n/a	n/a	n/a	n/a	n/a	n/a	0	0	0	n/a	n/a	n/a	n/a	n/a
3453.076	n/a	REC_WORD	1726538	wordpools/wasnorm_wordpool.txt	LTP108	ltpFR	12	11	0	MAT	877	n/a	0	n/a	0	0	0	n/a	n/a	n/a	n/a	n/a
3453.684	n/a	REC_WORD	1726842	wordpools/wasnorm_wordpool.txt	LTP108	ltpFR	12	11	0	KEY	773	n/a	0	n/a	0	0	0	n/a	n/a	n/a	n/a	n/a
3455.49	n/a	REC_WORD	1727745	wordpools/wasnorm_wordpool.txt	LTP108	ltpFR	12	11	0	RIVER	1194	n/a	1	n/a	0	0	0	n/a	n/a	n/a	n/a	n/a
3458.214	n/a	REC_WORD	1729107	wordpools/wasnorm_wordpool.txt	LTP108	ltpFR	12	11	0	SEAT	1264	n/a	0	n/a	0	0	0	n/a	n/a	n/a	n/a	n/a
3460.784	n/a	REC_WORD	1730392	wordpools/wasnorm_wordpool.txt	LTP108	ltpFR	12	11	0	MOTH	920	n/a	0	n/a	0	0	0	n/a	n/a	n/a	n/a	n/a
3469.286	n/a	REC_WORD	1734643	wordpools/wasnorm_wordpool.txt	LTP108	ltpFR	12	11	0	WAREHOUSE	1588	n/a	1	n/a	0	0	0	n/a	n/a	n/a	n/a	n/a
3469.934	n/a	REC_WORD	1734967	wordpools/wasnorm_wordpool.txt	LTP108	ltpFR	12	11	0	MANSION	864	n/a	1	n/a	0	0	0	n/a	n/a	n/a	n/a	n/a
3475.92	n/a	REC_WORD	1737960	wordpools/wasnorm_wordpool.txt	LTP108	ltpFR	12	11	0	COUCH	386	n/a	1	n/a	0	0	0	n/a	n/a	n/a	n/a	n/a
3495.484	n/a	REC_WORD	1747742	wordpools/wasnorm_wordpool.txt	LTP108	ltpFR	12	11	0	TUXEDO	1525	n/a	1	n/a	0	0	0	n/a	n/a	n/a	n/a	n/a
3496.792	n/a	REC_WORD	1748396	wordpools/wasnorm_wordpool.txt	LTP108	ltpFR	12	11	0	CENT	270	n/a	0	n/a	0	0	0	n/a	n/a	n/a	n/a	n/a
3530.854	n/a	WORD	1765427	wordpools/wasnorm_wordpool.txt	LTP108	ltpFR	12	12	1	PLANT	1083	n/a	1	n/a	0	0	0	1	0.412841796875	0.57763671875	upper	../fonts/amplitud.ttf
3534.724	n/a	WORD	1767362	wordpools/wasnorm_wordpool.txt	LTP108	ltpFR	12	12	1	PUMPKIN	1142	n/a	1	n/a	0	0	0	1	0.412841796875	0.57763671875	upper	../fonts/amplitud.ttf
3538.736	n/a	WORD	1769368	wordpools/wasnorm_wordpool.txt	LTP108	ltpFR	12	12	0	ANTEATER	26	n/a	1	n/a	0	0	0	0	0.5869140625	0.422607421875	lower	../fonts/zerothre.ttf
3542.59	n/a	WORD	1771295	wordpools/wasnorm_wordpool.txt	LTP108	ltpFR	12	12	0	NEWSSTAND	949	n/a	1	n/a	0	0	0	0	0.5869140625	0.422607421875	lower	../fonts/zerothre.ttf
3546.784	n/a	WORD	1773392	wordpools/wasnorm_wordpool.txt	LTP108	ltpFR	12	12	0	SHELF	1280	n/a	0	n/a	0	0	0	0	0.5869140625	0.422607421875	lower	../fonts/zerothre.ttf
3550.972	n/a	WORD	1775486	wordpools/wasnorm_wordpool.txt	LTP108	ltpFR	12	12	0	VENUS	1557	n/a	1	n/a	0	0	0	0	0.5869140625	0.422607421875	lower	../fonts/zerothre.ttf
3554.976	n/a	WORD	1777488	wordpools/wasnorm_wordpool.txt	LTP108	ltpFR	12	12	0	RAM	1165	n/a	1	n/a	0	0	0	0	0.5869140625	0.422607421875	lower	../fonts/zerothre.ttf
3559.104	n/a	WORD	1779552	wordpools/wasnorm_wordpool.txt	LTP108	ltpFR	12	12	1	PIGEON	1065	n/a	1	n/a	0	0	0	1	0.412841796875	0.57763671875	upper	../fonts/amplitud.ttf
3563.25	n/a	WORD	1781625	wordpools/wasnorm_wordpool.txt	LTP108	ltpFR	12	12	1	HAWK	692	n/a	1	n/a	0	0	0	1	0.412841796875	0.57763671875	upper	../fonts/amplitud.ttf
3567.078	n/a	WORD	1783539	wordpools/wasnorm_wordpool.txt	LTP108	ltpFR	12	12	1	APPLE	33	n/a	1	n/a	0	0	0	1	0.412841796875	0.57763671875	upper	../fonts/amplitud.ttf
3571.19	n/a	WORD	1785595	wordpools/wasnorm_wordpool.txt	LTP108	ltpFR	12	12	0	WRITER	1627	n/a	1	n/a	0	0	0	0	0.5869140625	0.422607421875	lower	../fonts/zerothre.ttf
3575.37	n/a	WORD	1787685	wordpools/wasnorm_wordpool.txt	LTP108	ltpFR	12	12	0	STAR	1373	n/a	1	n/a	0	0	0	0	0.5869140625	0.422607421875	lower	../fonts/zerothre.ttf
3579.198	n/a	WORD	1789599	wordpools/wasnorm_wordpool.txt	LTP108	ltpFR	12	12	0	MUG	930	n/a	0	n/a	0	0	0	0	0.5869140625	0.422607421875	lower	../fonts/zerothre.ttf
3583.068	n/a	WORD	1791534	wordpools/wasnorm_wordpool.txt	LTP108	ltpFR	12	12	1	BARREL	91	n/a	0	n/a	0	0	0	1	0.412841796875	0.57763671875	upper	../fonts/amplitud.ttf
3586.898	n/a	WORD	1793449	wordpools/wasnorm_wordpool.txt	LTP108	ltpFR	12	12	1	OUTLAW	989	n/a	1	n/a	0	0	0	1	0.412841796875	0.57763671875	upper	../fonts/amplitud.ttf
3591.084	n/a	WORD	1795542	wordpools/wasnorm_wordpool.txt	LTP108	ltpFR	12	12	1	LEAF	808	n/a	1	n/a	0	0	0	1	0.412841796875	0.57763671875	upper	../fonts/amplitud.ttf
3594.09	n/a	START	1797045	n/a	LTP108	ltpFR	12	n/a	n/a	n/a	n/a	n/a	n/a	n/a	n/a	n/a	n/a	n/a	n/a	n/a	n/a	n/a
3594.914	n/a	PROB	1797457	n/a	LTP108	ltpFR	12	n/a	n/a	n/a	n/a	n/a	n/a	8	5	1	2	n/a	n/a	n/a	n/a	n/a
3598.576	n/a	PROB	1799288	n/a	LTP108	ltpFR	12	n/a	n/a	n/a	n/a	n/a	n/a	16	7	3	6	n/a	n/a	n/a	n/a	n/a
3600.88	n/a	STOP	1800440	n/a	LTP108	ltpFR	12	n/a	n/a	n/a	n/a	n/a	n/a	n/a	n/a	n/a	n/a	n/a	n/a	n/a	n/a	n/a
3603.836	n/a	REC_START	1801918	n/a	LTP108	ltpFR	12	12	n/a	n/a	n/a	n/a	n/a	n/a	0	0	0	n/a	n/a	n/a	n/a	n/a
3605.114	n/a	REC_WORD	1802557	wordpools/wasnorm_wordpool.txt	LTP108	ltpFR	12	12	1	LEAF	808	n/a	1	n/a	0	0	0	n/a	n/a	n/a	n/a	n/a
3605.736	n/a	REC_WORD	1802868	wordpools/wasnorm_wordpool.txt	LTP108	ltpFR	12	12	1	PLANT	1083	n/a	1	n/a	0	0	0	n/a	n/a	n/a	n/a	n/a
3606.43	n/a	REC_WORD	1803215	wordpools/wasnorm_wordpool.txt	LTP108	ltpFR	12	12	1	PUMPKIN	1142	n/a	1	n/a	0	0	0	n/a	n/a	n/a	n/a	n/a
3607.014	n/a	REC_WORD	1803507	wordpools/wasnorm_wordpool.txt	LTP108	ltpFR	12	12	0	ANTEATER	26	n/a	1	n/a	0	0	0	n/a	n/a	n/a	n/a	n/a
3608.056	n/a	REC_WORD	1804028	wordpools/wasnorm_wordpool.txt	LTP108	ltpFR	12	12	0	RAM	1165	n/a	1	n/a	0	0	0	n/a	n/a	n/a	n/a	n/a
3615.414	n/a	REC_WORD	1807707	wordpools/wasnorm_wordpool.txt	LTP108	ltpFR	12	12	0	VENUS	1557	n/a	1	n/a	0	0	0	n/a	n/a	n/a	n/a	n/a
3665.178	n/a	REC_WORD	1832589	wordpools/wasnorm_wordpool.txt	LTP108	ltpFR	12	12	0	WRITER	1627	n/a	1	n/a	0	0	0	n/a	n/a	n/a	n/a	n/a
3672.106	n/a	REC_WORD	1836053	wordpools/wasnorm_wordpool.txt	LTP108	ltpFR	12	12	0	STAR	1373	n/a	1	n/a	0	0	0	n/a	n/a	n/a	n/a	n/a
3691.802	n/a	REC_START	1845901	n/a	LTP108	ltpFR	12	n/a	n/a	n/a	n/a	n/a	n/a	n/a	0	0	0	n/a	n/a	n/a	n/a	n/a
3692.82	n/a	FFR_REC_WORD	1846410	wordpools/wasnorm_wordpool.txt	LTP108	ltpFR	12	n/a	0	PLUTO	1092	n/a	1	n/a	0	0	0	n/a	n/a	n/a	n/a	n/a
3693.494	n/a	FFR_REC_WORD	1846747	wordpools/wasnorm_wordpool.txt	LTP108	ltpFR	12	n/a	n/a	SATURN	1236	n/a	n/a	n/a	0	0	0	n/a	n/a	n/a	n/a	n/a
3694.316	n/a	FFR_REC_WORD	1847158	wordpools/wasnorm_wordpool.txt	LTP108	ltpFR	12	n/a	0	VENUS	1557	n/a	1	n/a	0	0	0	n/a	n/a	n/a	n/a	n/a
3695.074	n/a	FFR_REC_WORD	1847537	wordpools/wasnorm_wordpool.txt	LTP108	ltpFR	12	n/a	0	STAR	1373	n/a	1	n/a	0	0	0	n/a	n/a	n/a	n/a	n/a
3696.296	n/a	FFR_REC_WORD	1848148	wordpools/wasnorm_wordpool.txt	LTP108	ltpFR	12	n/a	0	TUXEDO	1525	n/a	1	n/a	0	0	0	n/a	n/a	n/a	n/a	n/a
3697.274	n/a	FFR_REC_WORD	1848637	wordpools/wasnorm_wordpool.txt	LTP108	ltpFR	12	n/a	0	WRITER	1627	n/a	1	n/a	0	0	0	n/a	n/a	n/a	n/a	n/a
3698.002	n/a	FFR_REC_WORD	1849001	wordpools/wasnorm_wordpool.txt	LTP108	ltpFR	12	n/a	1	PLANT	1083	n/a	1	n/a	0	0	0	n/a	n/a	n/a	n/a	n/a
3698.686	n/a	FFR_REC_WORD	1849343	wordpools/wasnorm_wordpool.txt	LTP108	ltpFR	12	n/a	1	PUMPKIN	1142	n/a	1	n/a	0	0	0	n/a	n/a	n/a	n/a	n/a
3699.336	n/a	FFR_REC_WORD	1849668	wordpools/wasnorm_wordpool.txt	LTP108	ltpFR	12	n/a	0	MAT	877	n/a	0	n/a	0	0	0	n/a	n/a	n/a	n/a	n/a
3700.856	n/a	FFR_REC_WORD	1850428	wordpools/wasnorm_wordpool.txt	LTP108	ltpFR	12	n/a	0	KEY	773	n/a	0	n/a	0	0	0	n/a	n/a	n/a	n/a	n/a
3702.154	n/a	FFR_REC_WORD	1851077	wordpools/wasnorm_wordpool.txt	LTP108	ltpFR	12	n/a	0	RIVER	1194	n/a	1	n/a	0	0	0	n/a	n/a	n/a	n/a	n/a
3706.144	n/a	FFR_REC_WORD	1853072	wordpools/wasnorm_wordpool.txt	LTP108	ltpFR	12	n/a	0	TEACHER	1440	n/a	0	n/a	0	0	0	n/a	n/a	n/a	n/a	n/a
3715.624	n/a	FFR_REC_WORD	1857812	wordpools/wasnorm_wordpool.txt	LTP108	ltpFR	12	n/a	0	ANTEATER	26	n/a	1	n/a	0	0	0	n/a	n/a	n/a	n/a	n/a
3721.874	n/a	FFR_REC_WORD	1860937	wordpools/wasnorm_wordpool.txt	LTP108	ltpFR	12	n/a	0	MANSION	864	n/a	1	n/a	0	0	0	n/a	n/a	n/a	n/a	n/a
3722.718	n/a	FFR_REC_WORD	1861359	wordpools/wasnorm_wordpool.txt	LTP108	ltpFR	12	n/a	n/a	SHACK	1273	n/a	n/a	n/a	0	0	0	n/a	n/a	n/a	n/a	n/a
3731.044	n/a	FFR_REC_WORD	1865522	wordpools/wasnorm_wordpool.txt	LTP108	ltpFR	12	n/a	0	MOTH	920	n/a	0	n/a	0	0	0	n/a	n/a	n/a	n/a	n/a
3739.166	n/a	FFR_REC_WORD	1869583	wordpools/wasnorm_wordpool.txt	LTP108	ltpFR	12	n/a	0	WAREHOUSE	1588	n/a	1	n/a	0	0	0	n/a	n/a	n/a	n/a	n/a
3744.902	n/a	FFR_REC_WORD	1872451	wordpools/wasnorm_wordpool.txt	LTP108	ltpFR	12	n/a	0	EMPLOYER	532	n/a	1	n/a	0	0	0	n/a	n/a	n/a	n/a	n/a
3764.892	n/a	FFR_REC_WORD	1882446	wordpools/wasnorm_wordpool.txt	LTP108	ltpFR	12	n/a	1	DOVE	491	n/a	1	n/a	0	0	0	n/a	n/a	n/a	n/a	n/a
3770.758	n/a	FFR_REC_WORD	1885379	wordpools/wasnorm_wordpool.txt	LTP108	ltpFR	12	n/a	0	COUCH	386	n/a	1	n/a	0	0	0	n/a	n/a	n/a	n/a	n/a
3787.834	n/a	FFR_REC_WORD	1893917	wordpools/wasnorm_wordpool.txt	LTP108	ltpFR	12	n/a	1	PRUNE	1134	n/a	1	n/a	0	0	0	n/a	n/a	n/a	n/a	n/a
3788.808	n/a	FFR_REC_WORD	1894404	wordpools/wasnorm_wordpool.txt	LTP108	ltpFR	12	n/a	1	FRUIT	610	n/a	1	n/a	0	0	0	n/a	n/a	n/a	n/a	n/a
3789.65	n/a	FFR_REC_WORD	1894825	wordpools/wasnorm_wordpool.txt	LTP108	ltpFR	12	n/a	1	BEDROOM	111	n/a	0	n/a	0	0	0	n/a	n/a	n/a	n/a	n/a
3794.66	n/a	FFR_REC_WORD	1897330	wordpools/wasnorm_wordpool.txt	LTP108	ltpFR	12	n/a	0	DAGGER	434	n/a	0	n/a	0	0	0	n/a	n/a	n/a	n/a	n/a
3795.372	n/a	FFR_REC_WORD	1897686	wordpools/wasnorm_wordpool.txt	LTP108	ltpFR	12	n/a	0	SCALPEL	1243	n/a	0	n/a	0	0	0	n/a	n/a	n/a	n/a	n/a
3797.288	n/a	FFR_REC_WORD	1898644	wordpools/wasnorm_wordpool.txt	LTP108	ltpFR	12	n/a	0	SURGEON	1413	n/a	1	n/a	0	0	0	n/a	n/a	n/a	n/a	n/a
3805.212	n/a	FFR_REC_WORD	1902606	wordpools/wasnorm_wordpool.txt	LTP108	ltpFR	12	n/a	0	CENT	270	n/a	0	n/a	0	0	0	n/a	n/a	n/a	n/a	n/a
3844.492	n/a	FFR_REC_WORD	1922246	wordpools/wasnorm_wordpool.txt	LTP108	ltpFR	12	n/a	0	SILK	1307	n/a	0	n/a	0	0	0	n/a	n/a	n/a	n/a	n/a
3846.018	n/a	FFR_REC_WORD	1923009	wordpools/wasnorm_wordpool.txt	LTP108	ltpFR	12	n/a	0	LINT	826	n/a	0	n/a	0	0	0	n/a	n/a	n/a	n/a	n/a
3851.986	n/a	FFR_REC_WORD	1925993	wordpools/wasnorm_wordpool.txt	LTP108	ltpFR	12	n/a	n/a	RAFT	1159	n/a	n/a	n/a	0	0	0	n/a	n/a	n/a	n/a	n/a
3856.2	n/a	FFR_REC_WORD	1928100	wordpools/wasnorm_wordpool.txt	LTP108	ltpFR	12	n/a	1	PIRATE	1074	n/a	1	n/a	0	0	0	n/a	n/a	n/a	n/a	n/a
3858.5	n/a	FFR_REC_WORD	1929250	wordpools/wasnorm_wordpool.txt	LTP108	ltpFR	12	n/a	1	BRUSH	182	n/a	0	n/a	0	0	0	n/a	n/a	n/a	n/a	n/a
3859.068	n/a	FFR_REC_WORD	1929534	wordpools/wasnorm_wordpool.txt	LTP108	ltpFR	12	n/a	1	SNORKEL	1336	n/a	0	n/a	0	0	0	n/a	n/a	n/a	n/a	n/a
3860.7	n/a	FFR_REC_WORD	1930350	wordpools/wasnorm_wordpool.txt	LTP108	ltpFR	12	n/a	1	WATER	1594	n/a	0	n/a	0	0	0	n/a	n/a	n/a	n/a	n/a
3863.468	n/a	FFR_REC_WORD	1931734	wordpools/wasnorm_wordpool.txt	LTP108	ltpFR	12	n/a	1	PIER	1063	n/a	0	n/a	0	0	0	n/a	n/a	n/a	n/a	n/a
3870.224	n/a	FFR_REC_WORD	1935112	wordpools/wasnorm_wordpool.txt	LTP108	ltpFR	12	n/a	1	BANDANNA	80	n/a	0	n/a	0	0	0	n/a	n/a	n/a	n/a	n/a
3926.812	n/a	FFR_REC_WORD	1963406	wordpools/wasnorm_wordpool.txt	LTP108	ltpFR	12	n/a	1	LION	827	n/a	1	n/a	0	0	0	n/a	n/a	n/a	n/a	n/a
4008.266	n/a	REC_START	2004133	n/a	LTP108	ltpFR	12	1	n/a	n/a	n/a	n/a	n/a	n/a	0	0	0	n/a	n/a	n/a	n/a	n/a
4008.304	n/a	RECOG_TARGET	2004152	n/a	LTP108	ltpFR	12	1	1	FLOWER	584	5	1	n/a	0	0	0	n/a	n/a	n/a	n/a	n/a
4009.518	n/a	RECOG_RESP	2004759	n/a	LTP108	ltpFR	12	1	1	FLOWER	584	n/a	1	n/a	0	0	0	n/a	n/a	n/a	n/a	n/a
4010.346	n/a	RECOG_CONF	2005173	n/a	LTP108	ltpFR	12	1	1	FLOWER	584	5	1	n/a	0	0	0	n/a	n/a	n/a	n/a	n/a
4011.842	n/a	RECOG_TARGET	2005921	n/a	LTP108	ltpFR	12	1	0	MAILBOX	857	5	1	n/a	0	0	0	n/a	n/a	n/a	n/a	n/a
4012.53	n/a	RECOG_RESP	2006265	n/a	LTP108	ltpFR	12	1	0	MAILBOX	857	n/a	1	n/a	0	0	0	n/a	n/a	n/a	n/a	n/a
4013.16	n/a	RECOG_CONF	2006580	n/a	LTP108	ltpFR	12	1	0	MAILBOX	857	5	1	n/a	0	0	0	n/a	n/a	n/a	n/a	n/a
4014.59	n/a	RECOG_TARGET	2007295	n/a	LTP108	ltpFR	12	1	1	ATOM	55	5	0	n/a	0	0	0	n/a	n/a	n/a	n/a	n/a
4015.584	n/a	RECOG_RESP	2007792	n/a	LTP108	ltpFR	12	1	1	ATOM	55	n/a	0	n/a	0	0	0	n/a	n/a	n/a	n/a	n/a
