onset	duration	trial_type	sample	stim_file	subject	experiment	session	trial	item_name	item_num	list	answer	test_x	test_y	test_z
219.76123046875	n/a	SESS_START	450071	n/a	LTP340	ltpFR2	3	n/a	n/a	n/a	n/a	n/a	0	0	0
236.4736328125	n/a	START	484298	n/a	LTP340	ltpFR2	3	n/a	n/a	n/a	-1	n/a	n/a	n/a	n/a
236.50341796875	n/a	PROB	484359	n/a	LTP340	ltpFR2	3	n/a	n/a	n/a	-1	17	6	2	9
238.95263671875	n/a	PROB	489375	n/a	LTP340	ltpFR2	3	n/a	n/a	n/a	-1	13	6	3	4
240.53466796875	n/a	PROB	492615	n/a	LTP340	ltpFR2	3	n/a	n/a	n/a	-1	15	3	9	3
242.0673828125	n/a	PROB	495754	n/a	LTP340	ltpFR2	3	n/a	n/a	n/a	-1	21	9	3	9
244.28271484375	n/a	PROB	500291	n/a	LTP340	ltpFR2	3	n/a	n/a	n/a	-1	24	6	8	8
248.4736328125	n/a	STOP	508874	n/a	LTP340	ltpFR2	3	n/a	n/a	n/a	-1	n/a	n/a	n/a	n/a
281.248046875	n/a	DISTRACTOR	575996	n/a	LTP340	ltpFR2	3	1	n/a	n/a	n/a	n/a	0	0	0
281.2490234375	n/a	START	575998	n/a	LTP340	ltpFR2	3	n/a	n/a	n/a	1	n/a	n/a	n/a	n/a
281.2646484375	n/a	PROB	576030	n/a	LTP340	ltpFR2	3	n/a	n/a	n/a	1	10	5	2	3
283.23095703125	n/a	PROB	580057	n/a	LTP340	ltpFR2	3	n/a	n/a	n/a	1	13	4	2	7
285.02978515625	n/a	PROB	583741	n/a	LTP340	ltpFR2	3	n/a	n/a	n/a	1	13	8	1	4
286.64599609375	n/a	PROB	587051	n/a	LTP340	ltpFR2	3	n/a	n/a	n/a	1	10	4	4	2
288.9609375	n/a	PROB	591792	n/a	LTP340	ltpFR2	3	n/a	n/a	n/a	1	13	3	9	1
290.34375	n/a	PROB	594624	n/a	LTP340	ltpFR2	3	n/a	n/a	n/a	1	15	2	4	9
292.90869140625	n/a	PROB	599877	n/a	LTP340	ltpFR2	3	n/a	n/a	n/a	1	10	2	3	5
294.47509765625	n/a	PROB	603085	n/a	LTP340	ltpFR2	3	n/a	n/a	n/a	1	11	2	6	3
296.041015625	n/a	PROB	606292	n/a	LTP340	ltpFR2	3	n/a	n/a	n/a	1	14	7	2	5
297.7568359375	n/a	PROB	609806	n/a	LTP340	ltpFR2	3	n/a	n/a	n/a	1	14	5	5	4
299.40576171875	n/a	PROB	613183	n/a	LTP340	ltpFR2	3	n/a	n/a	n/a	1	15	1	7	7
300.77197265625	n/a	PROB	615981	n/a	LTP340	ltpFR2	3	n/a	n/a	n/a	1	14	6	7	1
302.4208984375	n/a	PROB	619358	n/a	LTP340	ltpFR2	3	n/a	n/a	n/a	1	7	3	1	3
304.47216796875	n/a	STOP	623559	n/a	LTP340	ltpFR2	3	n/a	n/a	n/a	1	n/a	n/a	n/a	n/a
306.453125	n/a	WORD	627616	wordpools/wasnorm_wordpool_576.txt	LTP340	ltpFR2	3	1	CUPBOARD	425	n/a	n/a	0	0	0
309.10107421875	n/a	WORD	633039	wordpools/wasnorm_wordpool_576.txt	LTP340	ltpFR2	3	1	CATCHER	258	n/a	n/a	0	0	0
311.7998046875	n/a	WORD	638566	wordpools/wasnorm_wordpool_576.txt	LTP340	ltpFR2	3	1	CREVICE	405	n/a	n/a	0	0	0
314.298828125	n/a	WORD	643684	wordpools/wasnorm_wordpool_576.txt	LTP340	ltpFR2	3	1	FOOTBALL	591	n/a	n/a	0	0	0
316.93115234375	n/a	WORD	649075	wordpools/wasnorm_wordpool_576.txt	LTP340	ltpFR2	3	1	MAILMAN	858	n/a	n/a	0	0	0
319.529296875	n/a	WORD	654396	wordpools/wasnorm_wordpool_576.txt	LTP340	ltpFR2	3	1	LUNCH	849	n/a	n/a	0	0	0
322.2451171875	n/a	WORD	659958	wordpools/wasnorm_wordpool_576.txt	LTP340	ltpFR2	3	1	PICNIC	1060	n/a	n/a	0	0	0
324.7099609375	n/a	WORD	665006	wordpools/wasnorm_wordpool_576.txt	LTP340	ltpFR2	3	1	TOMBSTONE	1478	n/a	n/a	0	0	0
327.30908203125	n/a	WORD	670329	wordpools/wasnorm_wordpool_576.txt	LTP340	ltpFR2	3	1	POISON	1096	n/a	n/a	0	0	0
330.05712890625	n/a	WORD	675957	wordpools/wasnorm_wordpool_576.txt	LTP340	ltpFR2	3	1	MISSILE	900	n/a	n/a	0	0	0
332.85595703125	n/a	WORD	681689	wordpools/wasnorm_wordpool_576.txt	LTP340	ltpFR2	3	1	SHELTER	1282	n/a	n/a	0	0	0
335.33837890625	n/a	WORD	686773	wordpools/wasnorm_wordpool_576.txt	LTP340	ltpFR2	3	1	UMPIRE	1535	n/a	n/a	0	0	0
337.8203125	n/a	WORD	691856	wordpools/wasnorm_wordpool_576.txt	LTP340	ltpFR2	3	1	WAITER	1580	n/a	n/a	0	0	0
340.55224609375	n/a	WORD	697451	wordpools/wasnorm_wordpool_576.txt	LTP340	ltpFR2	3	1	BADGE	68	n/a	n/a	0	0	0
343.2841796875	n/a	WORD	703046	wordpools/wasnorm_wordpool_576.txt	LTP340	ltpFR2	3	1	BOUQUET	157	n/a	n/a	0	0	0
345.7333984375	n/a	WORD	708062	wordpools/wasnorm_wordpool_576.txt	LTP340	ltpFR2	3	1	SPOON	1357	n/a	n/a	0	0	0
348.34814453125	n/a	WORD	713417	wordpools/wasnorm_wordpool_576.txt	LTP340	ltpFR2	3	1	IDOL	733	n/a	n/a	0	0	0
351.09716796875	n/a	WORD	719047	wordpools/wasnorm_wordpool_576.txt	LTP340	ltpFR2	3	1	SEAL	1262	n/a	n/a	0	0	0
353.529296875	n/a	WORD	724028	wordpools/wasnorm_wordpool_576.txt	LTP340	ltpFR2	3	1	LADDER	793	n/a	n/a	0	0	0
356.1455078125	n/a	WORD	729386	wordpools/wasnorm_wordpool_576.txt	LTP340	ltpFR2	3	1	SLIDE	1326	n/a	n/a	0	0	0
358.64306640625	n/a	WORD	734501	wordpools/wasnorm_wordpool_576.txt	LTP340	ltpFR2	3	1	PERCH	1048	n/a	n/a	0	0	0
361.1923828125	n/a	WORD	739722	wordpools/wasnorm_wordpool_576.txt	LTP340	ltpFR2	3	1	SCALLOP	1242	n/a	n/a	0	0	0
363.79150390625	n/a	WORD	745045	wordpools/wasnorm_wordpool_576.txt	LTP340	ltpFR2	3	1	CHAPEL	280	n/a	n/a	0	0	0
366.53955078125	n/a	WORD	750673	wordpools/wasnorm_wordpool_576.txt	LTP340	ltpFR2	3	1	LIGHTNING	820	n/a	n/a	0	0	0
368.1552734375	n/a	START	753982	n/a	LTP340	ltpFR2	3	n/a	n/a	n/a	2	n/a	n/a	n/a	n/a
369.236328125	n/a	DISTRACTOR	756196	n/a	LTP340	ltpFR2	3	1	n/a	n/a	n/a	n/a	0	0	0
369.23828125	n/a	PROB	756200	n/a	LTP340	ltpFR2	3	n/a	n/a	n/a	2	16	1	9	6
371.12060546875	n/a	PROB	760055	n/a	LTP340	ltpFR2	3	n/a	n/a	n/a	2	15	7	6	2
372.62060546875	n/a	PROB	763127	n/a	LTP340	ltpFR2	3	n/a	n/a	n/a	2	6	2	3	1
373.95263671875	n/a	PROB	765855	n/a	LTP340	ltpFR2	3	n/a	n/a	n/a	2	22	9	5	8
377.5673828125	n/a	PROB	773258	n/a	LTP340	ltpFR2	3	n/a	n/a	n/a	2	10	3	6	1
380.31640625	n/a	PROB	778888	n/a	LTP340	ltpFR2	3	n/a	n/a	n/a	2	10	3	2	5
382.21533203125	n/a	PROB	782777	n/a	LTP340	ltpFR2	3	n/a	n/a	n/a	2	18	8	7	3
383.9814453125	n/a	PROB	786394	n/a	LTP340	ltpFR2	3	n/a	n/a	n/a	2	15	7	6	2
385.49658203125	n/a	PROB	789497	n/a	LTP340	ltpFR2	3	n/a	n/a	n/a	2	10	1	1	8
386.8466796875	n/a	PROB	792262	n/a	LTP340	ltpFR2	3	n/a	n/a	n/a	2	15	5	3	7
388.5126953125	n/a	PROB	795674	n/a	LTP340	ltpFR2	3	n/a	n/a	n/a	2	13	6	6	1
389.96142578125	n/a	PROB	798641	n/a	LTP340	ltpFR2	3	n/a	n/a	n/a	2	18	9	8	1
391.5205078125	n/a	STOP	801834	n/a	LTP340	ltpFR2	3	n/a	n/a	n/a	2	n/a	n/a	n/a	n/a
394.04345703125	n/a	REC_START	807001	n/a	LTP340	ltpFR2	3	1	n/a	n/a	n/a	n/a	0	0	0
394.90771484375	n/a	REC_WORD	808771	wordpools/wasnorm_wordpool_576.txt	LTP340	ltpFR2	3	1	CUPBOARD	425	n/a	n/a	0	0	0
395.73876953125	n/a	REC_WORD	810473	wordpools/wasnorm_wordpool_576.txt	LTP340	ltpFR2	3	1	PICNIC	1060	n/a	n/a	0	0	0
396.57177734375	n/a	REC_WORD	812179	wordpools/wasnorm_wordpool_576.txt	LTP340	ltpFR2	3	1	LUNCH	849	n/a	n/a	0	0	0
397.25048828125	n/a	REC_WORD	813569	wordpools/wasnorm_wordpool_576.txt	LTP340	ltpFR2	3	1	SCALLOP	1242	n/a	n/a	0	0	0
398.49462890625	n/a	REC_WORD	816117	wordpools/wasnorm_wordpool_576.txt	LTP340	ltpFR2	3	1	UMPIRE	1535	n/a	n/a	0	0	0
402.5234375	n/a	REC_WORD	824368	wordpools/wasnorm_wordpool_576.txt	LTP340	ltpFR2	3	1	CHIEF	298	n/a	n/a	0	0	0
406.28662109375	n/a	REC_WORD	832075	wordpools/wasnorm_wordpool_576.txt	LTP340	ltpFR2	3	1	OFFICER	973	n/a	n/a	0	0	0
409.91552734375	n/a	REC_WORD	839507	wordpools/wasnorm_wordpool_576.txt	LTP340	ltpFR2	3	1	CREVICE	405	n/a	n/a	0	0	0
484.48193359375	n/a	DISTRACTOR	992219	n/a	LTP340	ltpFR2	3	2	n/a	n/a	n/a	n/a	0	0	0
484.48193359375	n/a	START	992219	n/a	LTP340	ltpFR2	3	n/a	n/a	n/a	3	n/a	n/a	n/a	n/a
484.498046875	n/a	PROB	992252	n/a	LTP340	ltpFR2	3	n/a	n/a	n/a	3	16	5	9	2
486.26416015625	n/a	PROB	995869	n/a	LTP340	ltpFR2	3	n/a	n/a	n/a	3	12	2	9	1
487.76318359375	n/a	PROB	998939	n/a	LTP340	ltpFR2	3	n/a	n/a	n/a	3	16	5	7	3
489.31298828125	n/a	PROB	1002113	n/a	LTP340	ltpFR2	3	n/a	n/a	n/a	3	12	4	1	8
491.828125	n/a	PROB	1007264	n/a	LTP340	ltpFR2	3	n/a	n/a	n/a	3	13	1	5	7
495.42626953125	n/a	PROB	1014633	n/a	LTP340	ltpFR2	3	n/a	n/a	n/a	3	12	3	4	5
499.19140625	n/a	PROB	1022344	n/a	LTP340	ltpFR2	3	n/a	n/a	n/a	3	11	7	1	3
501.00732421875	n/a	PROB	1026063	n/a	LTP340	ltpFR2	3	n/a	n/a	n/a	3	17	8	3	6
502.7392578125	n/a	PROB	1029610	n/a	LTP340	ltpFR2	3	n/a	n/a	n/a	3	24	9	8	7
505.38818359375	n/a	PROB	1035035	n/a	LTP340	ltpFR2	3	n/a	n/a	n/a	3	13	4	3	6
507.41748046875	n/a	STOP	1039191	n/a	LTP340	ltpFR2	3	n/a	n/a	n/a	3	n/a	n/a	n/a	n/a
509.55322265625	n/a	WORD	1043565	wordpools/wasnorm_wordpool_576.txt	LTP340	ltpFR2	3	2	TART	1436	n/a	n/a	0	0	0
512.35107421875	n/a	WORD	1049295	wordpools/wasnorm_wordpool_576.txt	LTP340	ltpFR2	3	2	SHOVEL	1295	n/a	n/a	0	0	0
514.80029296875	n/a	WORD	1054311	wordpools/wasnorm_wordpool_576.txt	LTP340	ltpFR2	3	2	PUPPY	1144	n/a	n/a	0	0	0
517.49951171875	n/a	WORD	1059839	wordpools/wasnorm_wordpool_576.txt	LTP340	ltpFR2	3	2	CUSTARD	429	n/a	n/a	0	0	0
520.1474609375	n/a	WORD	1065262	wordpools/wasnorm_wordpool_576.txt	LTP340	ltpFR2	3	2	COOKBOOK	373	n/a	n/a	0	0	0
522.7294921875	n/a	WORD	1070550	wordpools/wasnorm_wordpool_576.txt	LTP340	ltpFR2	3	2	SCARECROW	1245	n/a	n/a	0	0	0
525.46142578125	n/a	WORD	1076145	wordpools/wasnorm_wordpool_576.txt	LTP340	ltpFR2	3	2	BATHTUB	100	n/a	n/a	0	0	0
528.060546875	n/a	WORD	1081468	wordpools/wasnorm_wordpool_576.txt	LTP340	ltpFR2	3	2	CHAMPAGNE	278	n/a	n/a	0	0	0
530.6591796875	n/a	WORD	1086790	wordpools/wasnorm_wordpool_576.txt	LTP340	ltpFR2	3	2	GRAPE	654	n/a	n/a	0	0	0
533.2412109375	n/a	WORD	1092078	wordpools/wasnorm_wordpool_576.txt	LTP340	ltpFR2	3	2	PARSLEY	1016	n/a	n/a	0	0	0
535.95654296875	n/a	WORD	1097639	wordpools/wasnorm_wordpool_576.txt	LTP340	ltpFR2	3	2	BASEMENT	94	n/a	n/a	0	0	0
538.75537109375	n/a	WORD	1103371	wordpools/wasnorm_wordpool_576.txt	LTP340	ltpFR2	3	2	PIGEON	1065	n/a	n/a	0	0	0
541.2705078125	n/a	WORD	1108522	wordpools/wasnorm_wordpool_576.txt	LTP340	ltpFR2	3	2	COIN	343	n/a	n/a	0	0	0
543.75244140625	n/a	WORD	1113605	wordpools/wasnorm_wordpool_576.txt	LTP340	ltpFR2	3	2	RECEIPT	1173	n/a	n/a	0	0	0
546.25146484375	n/a	WORD	1118723	wordpools/wasnorm_wordpool_576.txt	LTP340	ltpFR2	3	2	COWBOY	395	n/a	n/a	0	0	0
548.96630859375	n/a	WORD	1124283	wordpools/wasnorm_wordpool_576.txt	LTP340	ltpFR2	3	2	RABBIT	1152	n/a	n/a	0	0	0
551.74853515625	n/a	WORD	1129981	wordpools/wasnorm_wordpool_576.txt	LTP340	ltpFR2	3	2	COMET	353	n/a	n/a	0	0	0
554.53076171875	n/a	WORD	1135679	wordpools/wasnorm_wordpool_576.txt	LTP340	ltpFR2	3	2	POWDER	1117	n/a	n/a	0	0	0
557.32958984375	n/a	WORD	1141411	wordpools/wasnorm_wordpool_576.txt	LTP340	ltpFR2	3	2	CHURCH	307	n/a	n/a	0	0	0
559.8447265625	n/a	WORD	1146562	wordpools/wasnorm_wordpool_576.txt	LTP340	ltpFR2	3	2	FLIPPER	580	n/a	n/a	0	0	0
562.62646484375	n/a	WORD	1152259	wordpools/wasnorm_wordpool_576.txt	LTP340	ltpFR2	3	2	STAR	1373	n/a	n/a	0	0	0
565.12548828125	n/a	WORD	1157377	wordpools/wasnorm_wordpool_576.txt	LTP340	ltpFR2	3	2	COUCH	386	n/a	n/a	0	0	0
567.640625	n/a	WORD	1162528	wordpools/wasnorm_wordpool_576.txt	LTP340	ltpFR2	3	2	DONOR	485	n/a	n/a	0	0	0
570.28955078125	n/a	WORD	1167953	wordpools/wasnorm_wordpool_576.txt	LTP340	ltpFR2	3	2	FOX	598	n/a	n/a	0	0	0
571.90576171875	n/a	START	1171263	n/a	LTP340	ltpFR2	3	n/a	n/a	n/a	4	n/a	n/a	n/a	n/a
573.1044921875	n/a	DISTRACTOR	1173718	n/a	LTP340	ltpFR2	3	2	n/a	n/a	n/a	n/a	0	0	0
573.12158203125	n/a	PROB	1173753	n/a	LTP340	ltpFR2	3	n/a	n/a	n/a	4	21	9	8	4
576.3037109375	n/a	PROB	1180270	n/a	LTP340	ltpFR2	3	n/a	n/a	n/a	4	16	4	7	5
578.6025390625	n/a	PROB	1184978	n/a	LTP340	ltpFR2	3	n/a	n/a	n/a	4	17	7	6	5
581.7177734375	n/a	PROB	1191358	n/a	LTP340	ltpFR2	3	n/a	n/a	n/a	4	6	4	1	1
583.49951171875	n/a	PROB	1195007	n/a	LTP340	ltpFR2	3	n/a	n/a	n/a	4	19	6	9	4
585.49853515625	n/a	PROB	1199101	n/a	LTP340	ltpFR2	3	n/a	n/a	n/a	4	18	8	1	9
587.16455078125	n/a	PROB	1202513	n/a	LTP340	ltpFR2	3	n/a	n/a	n/a	4	7	3	1	3
589.28076171875	n/a	PROB	1206847	n/a	LTP340	ltpFR2	3	n/a	n/a	n/a	4	17	7	4	6
591.31298828125	n/a	PROB	1211009	n/a	LTP340	ltpFR2	3	n/a	n/a	n/a	4	13	6	2	5
594.56201171875	n/a	STOP	1217663	n/a	LTP340	ltpFR2	3	n/a	n/a	n/a	4	n/a	n/a	n/a	n/a
597.81005859375	n/a	REC_START	1224315	n/a	LTP340	ltpFR2	3	2	n/a	n/a	n/a	n/a	0	0	0
599.07666015625	n/a	REC_WORD	1226909	wordpools/wasnorm_wordpool_576.txt	LTP340	ltpFR2	3	2	TART	1436	n/a	n/a	0	0	0
599.79296875	n/a	REC_WORD	1228376	wordpools/wasnorm_wordpool_576.txt	LTP340	ltpFR2	3	2	COOKBOOK	373	n/a	n/a	0	0	0
600.671875	n/a	REC_WORD	1230176	wordpools/wasnorm_wordpool_576.txt	LTP340	ltpFR2	3	2	PARSLEY	1016	n/a	n/a	0	0	0
602.02197265625	n/a	REC_WORD	1232941	wordpools/wasnorm_wordpool_576.txt	LTP340	ltpFR2	3	2	RABBIT	1152	n/a	n/a	0	0	0
606.15869140625	n/a	REC_WORD	1241413	wordpools/wasnorm_wordpool_576.txt	LTP340	ltpFR2	3	2	BASEMENT	94	n/a	n/a	0	0	0
607.33203125	n/a	REC_WORD	1243816	wordpools/wasnorm_wordpool_576.txt	LTP340	ltpFR2	3	2	COUCH	386	n/a	n/a	0	0	0
618.56201171875	n/a	REC_WORD	1266815	wordpools/wasnorm_wordpool_576.txt	LTP340	ltpFR2	3	2	CHAMPAGNE	278	n/a	n/a	0	0	0
620.88818359375	n/a	REC_WORD	1271579	wordpools/wasnorm_wordpool_576.txt	LTP340	ltpFR2	3	2	GRAPE	654	n/a	n/a	0	0	0
625.8740234375	n/a	REC_WORD	1281790	wordpools/wasnorm_wordpool_576.txt	LTP340	ltpFR2	3	2	COMET	353	n/a	n/a	0	0	0
626.408203125	n/a	REC_WORD	1282884	wordpools/wasnorm_wordpool_576.txt	LTP340	ltpFR2	3	2	STAR	1373	n/a	n/a	0	0	0
688.265625	n/a	WORD	1409568	wordpools/wasnorm_wordpool_576.txt	LTP340	ltpFR2	3	3	BACON	67	n/a	n/a	0	0	0
690.7802734375	n/a	WORD	1414718	wordpools/wasnorm_wordpool_576.txt	LTP340	ltpFR2	3	3	SAUSAGE	1238	n/a	n/a	0	0	0
693.5625	n/a	WORD	1420416	wordpools/wasnorm_wordpool_576.txt	LTP340	ltpFR2	3	3	BRACES	164	n/a	n/a	0	0	0
696.21142578125	n/a	WORD	1425841	wordpools/wasnorm_wordpool_576.txt	LTP340	ltpFR2	3	3	HOUND	724	n/a	n/a	0	0	0
698.810546875	n/a	WORD	1431164	wordpools/wasnorm_wordpool_576.txt	LTP340	ltpFR2	3	3	COSTUME	383	n/a	n/a	0	0	0
701.54248046875	n/a	WORD	1436759	wordpools/wasnorm_wordpool_576.txt	LTP340	ltpFR2	3	3	BINDER	127	n/a	n/a	0	0	0
704.20751953125	n/a	WORD	1442217	wordpools/wasnorm_wordpool_576.txt	LTP340	ltpFR2	3	3	OX	994	n/a	n/a	0	0	0
706.72265625	n/a	WORD	1447368	wordpools/wasnorm_wordpool_576.txt	LTP340	ltpFR2	3	3	BANKER	84	n/a	n/a	0	0	0
709.3046875	n/a	WORD	1452656	wordpools/wasnorm_wordpool_576.txt	LTP340	ltpFR2	3	3	SUNRISE	1407	n/a	n/a	0	0	0
711.78759765625	n/a	WORD	1457741	wordpools/wasnorm_wordpool_576.txt	LTP340	ltpFR2	3	3	MAMMAL	861	n/a	n/a	0	0	0
714.28564453125	n/a	WORD	1462857	wordpools/wasnorm_wordpool_576.txt	LTP340	ltpFR2	3	3	DANDRUFF	439	n/a	n/a	0	0	0
716.8173828125	n/a	WORD	1468042	wordpools/wasnorm_wordpool_576.txt	LTP340	ltpFR2	3	3	LODGE	839	n/a	n/a	0	0	0
719.349609375	n/a	WORD	1473228	wordpools/wasnorm_wordpool_576.txt	LTP340	ltpFR2	3	3	ROOSTER	1209	n/a	n/a	0	0	0
721.94873046875	n/a	WORD	1478551	wordpools/wasnorm_wordpool_576.txt	LTP340	ltpFR2	3	3	SNAKE	1333	n/a	n/a	0	0	0
724.41455078125	n/a	WORD	1483601	wordpools/wasnorm_wordpool_576.txt	LTP340	ltpFR2	3	3	GLOVE	642	n/a	n/a	0	0	0
726.99658203125	n/a	WORD	1488889	wordpools/wasnorm_wordpool_576.txt	LTP340	ltpFR2	3	3	SOFTBALL	1343	n/a	n/a	0	0	0
729.51171875	n/a	WORD	1494040	wordpools/wasnorm_wordpool_576.txt	LTP340	ltpFR2	3	3	APRON	35	n/a	n/a	0	0	0
732.310546875	n/a	WORD	1499772	wordpools/wasnorm_wordpool_576.txt	LTP340	ltpFR2	3	3	TREAT	1501	n/a	n/a	0	0	0
734.79248046875	n/a	WORD	1504855	wordpools/wasnorm_wordpool_576.txt	LTP340	ltpFR2	3	3	DENTIST	447	n/a	n/a	0	0	0
737.4248046875	n/a	WORD	1510246	wordpools/wasnorm_wordpool_576.txt	LTP340	ltpFR2	3	3	GAVEL	627	n/a	n/a	0	0	0
739.90673828125	n/a	WORD	1515329	wordpools/wasnorm_wordpool_576.txt	LTP340	ltpFR2	3	3	MASK	876	n/a	n/a	0	0	0
742.388671875	n/a	WORD	1520412	wordpools/wasnorm_wordpool_576.txt	LTP340	ltpFR2	3	3	MATTRESS	879	n/a	n/a	0	0	0
744.8876953125	n/a	WORD	1525530	wordpools/wasnorm_wordpool_576.txt	LTP340	ltpFR2	3	3	LOFT	840	n/a	n/a	0	0	0
747.419921875	n/a	WORD	1530716	wordpools/wasnorm_wordpool_576.txt	LTP340	ltpFR2	3	3	SPARROW	1347	n/a	n/a	0	0	0
749.03564453125	n/a	START	1534025	n/a	LTP340	ltpFR2	3	n/a	n/a	n/a	5	n/a	n/a	n/a	n/a
750.14892578125	n/a	DISTRACTOR	1536305	n/a	LTP340	ltpFR2	3	3	n/a	n/a	n/a	n/a	0	0	0
750.15185546875	n/a	PROB	1536311	n/a	LTP340	ltpFR2	3	n/a	n/a	n/a	5	25	9	7	9
753.44970703125	n/a	PROB	1543065	n/a	LTP340	ltpFR2	3	n/a	n/a	n/a	5	17	4	8	5
756.9150390625	n/a	PROB	1550162	n/a	LTP340	ltpFR2	3	n/a	n/a	n/a	5	18	9	2	7
758.5810546875	n/a	PROB	1553574	n/a	LTP340	ltpFR2	3	n/a	n/a	n/a	5	16	9	2	5
760.1796875	n/a	PROB	1556848	n/a	LTP340	ltpFR2	3	n/a	n/a	n/a	5	9	1	1	7
761.462890625	n/a	PROB	1559476	n/a	LTP340	ltpFR2	3	n/a	n/a	n/a	5	13	9	1	3
762.76171875	n/a	PROB	1562136	n/a	LTP340	ltpFR2	3	n/a	n/a	n/a	5	21	9	3	9
764.77783203125	n/a	PROB	1566265	n/a	LTP340	ltpFR2	3	n/a	n/a	n/a	5	6	2	1	3
766.8427734375	n/a	PROB	1570494	n/a	LTP340	ltpFR2	3	n/a	n/a	n/a	5	19	6	8	5
769.52490234375	n/a	PROB	1575987	n/a	LTP340	ltpFR2	3	n/a	n/a	n/a	5	8	3	3	2
771.61083984375	n/a	STOP	1580259	n/a	LTP340	ltpFR2	3	n/a	n/a	n/a	5	n/a	n/a	n/a	n/a
774.89013671875	n/a	REC_START	1586975	n/a	LTP340	ltpFR2	3	3	n/a	n/a	n/a	n/a	0	0	0
776.69677734375	n/a	REC_WORD	1590675	wordpools/wasnorm_wordpool_576.txt	LTP340	ltpFR2	3	3	OX	994	n/a	n/a	0	0	0
778.98095703125	n/a	REC_WORD	1595353	wordpools/wasnorm_wordpool_576.txt	LTP340	ltpFR2	3	3	MAMMAL	861	n/a	n/a	0	0	0
779.4248046875	n/a	REC_WORD	1596262	wordpools/wasnorm_wordpool_576.txt	LTP340	ltpFR2	3	3	SPARROW	1347	n/a	n/a	0	0	0
781.76318359375	n/a	REC_WORD	1601051	wordpools/wasnorm_wordpool_576.txt	LTP340	ltpFR2	3	3	APRON	35	n/a	n/a	0	0	0
790.30029296875	n/a	REC_WORD	1618535	wordpools/wasnorm_wordpool_576.txt	LTP340	ltpFR2	3	3	HOUND	724	n/a	n/a	0	0	0
865.361328125	n/a	WORD	1772260	wordpools/wasnorm_wordpool_576.txt	LTP340	ltpFR2	3	4	SWIMMER	1420	n/a	n/a	0	0	0
867.810546875	n/a	WORD	1777276	wordpools/wasnorm_wordpool_576.txt	LTP340	ltpFR2	3	4	ROBIN	1199	n/a	n/a	0	0	0
870.57568359375	n/a	WORD	1782939	wordpools/wasnorm_wordpool_576.txt	LTP340	ltpFR2	3	4	ICING	732	n/a	n/a	0	0	0
873.12451171875	n/a	WORD	1788159	wordpools/wasnorm_wordpool_576.txt	LTP340	ltpFR2	3	4	PISTON	1076	n/a	n/a	0	0	0
875.923828125	n/a	WORD	1793892	wordpools/wasnorm_wordpool_576.txt	LTP340	ltpFR2	3	4	FRUIT	610	n/a	n/a	0	0	0
878.521484375	n/a	WORD	1799212	wordpools/wasnorm_wordpool_576.txt	LTP340	ltpFR2	3	4	CRITIC	410	n/a	n/a	0	0	0
881.25341796875	n/a	WORD	1804807	wordpools/wasnorm_wordpool_576.txt	LTP340	ltpFR2	3	4	AGENT	10	n/a	n/a	0	0	0
883.935546875	n/a	WORD	1810300	wordpools/wasnorm_wordpool_576.txt	LTP340	ltpFR2	3	4	MARS	873	n/a	n/a	0	0	0
886.4677734375	n/a	WORD	1815486	wordpools/wasnorm_wordpool_576.txt	LTP340	ltpFR2	3	4	JUGGLER	763	n/a	n/a	0	0	0
889.14990234375	n/a	WORD	1820979	wordpools/wasnorm_wordpool_576.txt	LTP340	ltpFR2	3	4	SHERIFF	1284	n/a	n/a	0	0	0
891.5986328125	n/a	WORD	1825994	wordpools/wasnorm_wordpool_576.txt	LTP340	ltpFR2	3	4	SKETCH	1315	n/a	n/a	0	0	0
894.380859375	n/a	WORD	1831692	wordpools/wasnorm_wordpool_576.txt	LTP340	ltpFR2	3	4	DRAWING	494	n/a	n/a	0	0	0
896.962890625	n/a	WORD	1836980	wordpools/wasnorm_wordpool_576.txt	LTP340	ltpFR2	3	4	GREASE	660	n/a	n/a	0	0	0
899.74462890625	n/a	WORD	1842677	wordpools/wasnorm_wordpool_576.txt	LTP340	ltpFR2	3	4	POCKET	1093	n/a	n/a	0	0	0
902.2265625	n/a	WORD	1847760	wordpools/wasnorm_wordpool_576.txt	LTP340	ltpFR2	3	4	BLADE	134	n/a	n/a	0	0	0
904.69287109375	n/a	WORD	1852811	wordpools/wasnorm_wordpool_576.txt	LTP340	ltpFR2	3	4	TILE	1468	n/a	n/a	0	0	0
907.375	n/a	WORD	1858304	wordpools/wasnorm_wordpool_576.txt	LTP340	ltpFR2	3	4	REBEL	1172	n/a	n/a	0	0	0
909.90673828125	n/a	WORD	1863489	wordpools/wasnorm_wordpool_576.txt	LTP340	ltpFR2	3	4	HAND	683	n/a	n/a	0	0	0
912.5546875	n/a	WORD	1868912	wordpools/wasnorm_wordpool_576.txt	LTP340	ltpFR2	3	4	TEACHER	1440	n/a	n/a	0	0	0
915.37109375	n/a	WORD	1874680	wordpools/wasnorm_wordpool_576.txt	LTP340	ltpFR2	3	4	COLLEGE	346	n/a	n/a	0	0	0
917.96875	n/a	WORD	1880000	wordpools/wasnorm_wordpool_576.txt	LTP340	ltpFR2	3	4	CYCLONE	431	n/a	n/a	0	0	0
920.73486328125	n/a	WORD	1885665	wordpools/wasnorm_wordpool_576.txt	LTP340	ltpFR2	3	4	CROWN	415	n/a	n/a	0	0	0
923.36669921875	n/a	WORD	1891055	wordpools/wasnorm_wordpool_576.txt	LTP340	ltpFR2	3	4	SHIRT	1287	n/a	n/a	0	0	0
925.93212890625	n/a	WORD	1896309	wordpools/wasnorm_wordpool_576.txt	LTP340	ltpFR2	3	4	PASTRY	1022	n/a	n/a	0	0	0
927.5478515625	n/a	START	1899618	n/a	LTP340	ltpFR2	3	n/a	n/a	n/a	6	n/a	n/a	n/a	n/a
928.6708984375	n/a	DISTRACTOR	1901918	n/a	LTP340	ltpFR2	3	4	n/a	n/a	n/a	n/a	0	0	0
928.68115234375	n/a	PROB	1901939	n/a	LTP340	ltpFR2	3	n/a	n/a	n/a	6	11	2	7	4
930.74609375	n/a	PROB	1906168	n/a	LTP340	ltpFR2	3	n/a	n/a	n/a	6	13	8	2	3
932.24609375	n/a	PROB	1909240	n/a	LTP340	ltpFR2	3	n/a	n/a	n/a	6	12	1	9	2
933.59521484375	n/a	PROB	1912003	n/a	LTP340	ltpFR2	3	n/a	n/a	n/a	6	24	9	8	7
936.22705078125	n/a	PROB	1917393	n/a	LTP340	ltpFR2	3	n/a	n/a	n/a	6	20	9	6	5
938.85888671875	n/a	PROB	1922783	n/a	LTP340	ltpFR2	3	n/a	n/a	n/a	6	10	7	2	1
941.8740234375	n/a	PROB	1928958	n/a	LTP340	ltpFR2	3	n/a	n/a	n/a	6	18	8	4	7
944.3232421875	n/a	PROB	1933974	n/a	LTP340	ltpFR2	3	n/a	n/a	n/a	6	14	5	1	8
945.9892578125	n/a	PROB	1937386	n/a	LTP340	ltpFR2	3	n/a	n/a	n/a	6	10	1	4	5
947.62109375	n/a	PROB	1940728	n/a	LTP340	ltpFR2	3	n/a	n/a	n/a	6	14	2	8	4
949.12109375	n/a	PROB	1943800	n/a	LTP340	ltpFR2	3	n/a	n/a	n/a	6	18	8	1	9
950.39599609375	n/a	STOP	1946411	n/a	LTP340	ltpFR2	3	n/a	n/a	n/a	6	n/a	n/a	n/a	n/a
953.43603515625	n/a	REC_START	1952637	n/a	LTP340	ltpFR2	3	4	n/a	n/a	n/a	n/a	0	0	0
955.34912109375	n/a	REC_WORD	1956555	wordpools/wasnorm_wordpool_576.txt	LTP340	ltpFR2	3	4	PASTRY	1022	n/a	n/a	0	0	0
957.71826171875	n/a	REC_WORD	1961407	wordpools/wasnorm_wordpool_576.txt	LTP340	ltpFR2	3	4	CROWN	415	n/a	n/a	0	0	0
958.3759765625	n/a	REC_WORD	1962754	wordpools/wasnorm_wordpool_576.txt	LTP340	ltpFR2	3	4	CYCLONE	431	n/a	n/a	0	0	0
959.3681640625	n/a	REC_WORD	1964786	wordpools/wasnorm_wordpool_576.txt	LTP340	ltpFR2	3	4	TEACHER	1440	n/a	n/a	0	0	0
960.31298828125	n/a	REC_WORD	1966721	wordpools/wasnorm_wordpool_576.txt	LTP340	ltpFR2	3	4	AGENT	10	n/a	n/a	0	0	0
1043.87451171875	n/a	DISTRACTOR	2137855	n/a	LTP340	ltpFR2	3	5	n/a	n/a	n/a	n/a	0	0	0
1043.87451171875	n/a	START	2137855	n/a	LTP340	ltpFR2	3	n/a	n/a	n/a	7	n/a	n/a	n/a	n/a
1043.890625	n/a	PROB	2137888	n/a	LTP340	ltpFR2	3	n/a	n/a	n/a	7	5	2	1	2
1045.78955078125	n/a	PROB	2141777	n/a	LTP340	ltpFR2	3	n/a	n/a	n/a	7	7	1	3	3
1047.73876953125	n/a	PROB	2145769	n/a	LTP340	ltpFR2	3	n/a	n/a	n/a	7	21	9	3	9
1049.70458984375	n/a	PROB	2149795	n/a	LTP340	ltpFR2	3	n/a	n/a	n/a	7	18	8	3	7
1051.65380859375	n/a	PROB	2153787	n/a	LTP340	ltpFR2	3	n/a	n/a	n/a	7	16	7	2	7
1053.2529296875	n/a	PROB	2157062	n/a	LTP340	ltpFR2	3	n/a	n/a	n/a	7	11	2	5	4
1055.03564453125	n/a	PROB	2160713	n/a	LTP340	ltpFR2	3	n/a	n/a	n/a	7	13	6	7	1
1057.61767578125	n/a	PROB	2166001	n/a	LTP340	ltpFR2	3	n/a	n/a	n/a	7	14	4	6	4
1059.099609375	n/a	PROB	2169036	n/a	LTP340	ltpFR2	3	n/a	n/a	n/a	7	19	6	7	6
1061.94873046875	n/a	PROB	2174871	n/a	LTP340	ltpFR2	3	n/a	n/a	n/a	7	21	8	9	4
1064.748046875	n/a	PROB	2180604	n/a	LTP340	ltpFR2	3	n/a	n/a	n/a	7	17	7	2	8
1066.47705078125	n/a	STOP	2184145	n/a	LTP340	ltpFR2	3	n/a	n/a	n/a	7	n/a	n/a	n/a	n/a
1069.01171875	n/a	WORD	2189336	wordpools/wasnorm_wordpool_576.txt	LTP340	ltpFR2	3	5	GHETTO	633	n/a	n/a	0	0	0
1071.52685546875	n/a	WORD	2194487	wordpools/wasnorm_wordpool_576.txt	LTP340	ltpFR2	3	5	PIGMENT	1066	n/a	n/a	0	0	0
1074.27587890625	n/a	WORD	2200117	wordpools/wasnorm_wordpool_576.txt	LTP340	ltpFR2	3	5	MARKET	871	n/a	n/a	0	0	0
1076.72509765625	n/a	WORD	2205133	wordpools/wasnorm_wordpool_576.txt	LTP340	ltpFR2	3	5	BANQUET	86	n/a	n/a	0	0	0
1079.30712890625	n/a	WORD	2210421	wordpools/wasnorm_wordpool_576.txt	LTP340	ltpFR2	3	5	CRIB	407	n/a	n/a	0	0	0
1082.1220703125	n/a	WORD	2216186	wordpools/wasnorm_wordpool_576.txt	LTP340	ltpFR2	3	5	FILM	565	n/a	n/a	0	0	0
1084.7880859375	n/a	WORD	2221646	wordpools/wasnorm_wordpool_576.txt	LTP340	ltpFR2	3	5	MARROW	872	n/a	n/a	0	0	0
1087.27001953125	n/a	WORD	2226729	wordpools/wasnorm_wordpool_576.txt	LTP340	ltpFR2	3	5	OYSTER	995	n/a	n/a	0	0	0
1089.9677734375	n/a	WORD	2232254	wordpools/wasnorm_wordpool_576.txt	LTP340	ltpFR2	3	5	CLAM	315	n/a	n/a	0	0	0
1092.5341796875	n/a	WORD	2237510	wordpools/wasnorm_wordpool_576.txt	LTP340	ltpFR2	3	5	PICTURE	1061	n/a	n/a	0	0	0
1095.18212890625	n/a	WORD	2242933	wordpools/wasnorm_wordpool_576.txt	LTP340	ltpFR2	3	5	POPCORN	1104	n/a	n/a	0	0	0
1097.6982421875	n/a	WORD	2248086	wordpools/wasnorm_wordpool_576.txt	LTP340	ltpFR2	3	5	WIDOW	1608	n/a	n/a	0	0	0
1100.44580078125	n/a	WORD	2253713	wordpools/wasnorm_wordpool_576.txt	LTP340	ltpFR2	3	5	PISTOL	1075	n/a	n/a	0	0	0
1103.17822265625	n/a	WORD	2259309	wordpools/wasnorm_wordpool_576.txt	LTP340	ltpFR2	3	5	CASHEW	253	n/a	n/a	0	0	0
1105.76025390625	n/a	WORD	2264597	wordpools/wasnorm_wordpool_576.txt	LTP340	ltpFR2	3	5	ITEM	746	n/a	n/a	0	0	0
1108.55908203125	n/a	WORD	2270329	wordpools/wasnorm_wordpool_576.txt	LTP340	ltpFR2	3	5	STAPLE	1371	n/a	n/a	0	0	0
1111.22412109375	n/a	WORD	2275787	wordpools/wasnorm_wordpool_576.txt	LTP340	ltpFR2	3	5	CRAYON	401	n/a	n/a	0	0	0
1114.0400390625	n/a	WORD	2281554	wordpools/wasnorm_wordpool_576.txt	LTP340	ltpFR2	3	5	GLOBE	641	n/a	n/a	0	0	0
1116.47216796875	n/a	WORD	2286535	wordpools/wasnorm_wordpool_576.txt	LTP340	ltpFR2	3	5	SKIRT	1319	n/a	n/a	0	0	0
1119.10400390625	n/a	WORD	2291925	wordpools/wasnorm_wordpool_576.txt	LTP340	ltpFR2	3	5	TAXI	1438	n/a	n/a	0	0	0
1121.736328125	n/a	WORD	2297316	wordpools/wasnorm_wordpool_576.txt	LTP340	ltpFR2	3	5	RIVER	1194	n/a	n/a	0	0	0
1124.43408203125	n/a	WORD	2302841	wordpools/wasnorm_wordpool_576.txt	LTP340	ltpFR2	3	5	VIKING	1565	n/a	n/a	0	0	0
1126.8671875	n/a	WORD	2307824	wordpools/wasnorm_wordpool_576.txt	LTP340	ltpFR2	3	5	HEART	697	n/a	n/a	0	0	0
1129.44921875	n/a	WORD	2313112	wordpools/wasnorm_wordpool_576.txt	LTP340	ltpFR2	3	5	COBRA	336	n/a	n/a	0	0	0
1131.0654296875	n/a	START	2316422	n/a	LTP340	ltpFR2	3	n/a	n/a	n/a	8	n/a	n/a	n/a	n/a
1132.2333984375	n/a	DISTRACTOR	2318814	n/a	LTP340	ltpFR2	3	5	n/a	n/a	n/a	n/a	0	0	0
1132.2470703125	n/a	PROB	2318842	n/a	LTP340	ltpFR2	3	n/a	n/a	n/a	8	21	5	7	9
1134.7294921875	n/a	PROB	2323926	n/a	LTP340	ltpFR2	3	n/a	n/a	n/a	8	15	1	7	7
1136.51220703125	n/a	PROB	2327577	n/a	LTP340	ltpFR2	3	n/a	n/a	n/a	8	22	7	8	7
1138.611328125	n/a	PROB	2331876	n/a	LTP340	ltpFR2	3	n/a	n/a	n/a	8	19	7	7	5
1140.27734375	n/a	PROB	2335288	n/a	LTP340	ltpFR2	3	n/a	n/a	n/a	8	16	2	5	9
1141.9091796875	n/a	PROB	2338630	n/a	LTP340	ltpFR2	3	n/a	n/a	n/a	8	16	7	8	1
1143.45849609375	n/a	PROB	2341803	n/a	LTP340	ltpFR2	3	n/a	n/a	n/a	8	19	7	5	7
1145.59130859375	n/a	PROB	2346171	n/a	LTP340	ltpFR2	3	n/a	n/a	n/a	8	13	3	1	9
1147.14111328125	n/a	PROB	2349345	n/a	LTP340	ltpFR2	3	n/a	n/a	n/a	8	22	8	7	7
1149.322265625	n/a	PROB	2353812	n/a	LTP340	ltpFR2	3	n/a	n/a	n/a	8	13	4	5	4
1151.03857421875	n/a	PROB	2357327	n/a	LTP340	ltpFR2	3	n/a	n/a	n/a	8	16	8	5	3
1153.8935546875	n/a	STOP	2363174	n/a	LTP340	ltpFR2	3	n/a	n/a	n/a	8	n/a	n/a	n/a	n/a
1156.9375	n/a	REC_START	2369408	n/a	LTP340	ltpFR2	3	5	n/a	n/a	n/a	n/a	0	0	0
1161.0615234375	n/a	REC_WORD	2377854	wordpools/wasnorm_wordpool_576.txt	LTP340	ltpFR2	3	5	VIKING	1565	n/a	n/a	0	0	0
1162.0166015625	n/a	REC_WORD	2379810	wordpools/wasnorm_wordpool_576.txt	LTP340	ltpFR2	3	5	RIVER	1194	n/a	n/a	0	0	0
1162.783203125	n/a	REC_WORD	2381380	wordpools/wasnorm_wordpool_576.txt	LTP340	ltpFR2	3	5	HEART	697	n/a	n/a	0	0	0
1170.21533203125	n/a	REC_WORD	2396601	wordpools/wasnorm_wordpool_576.txt	LTP340	ltpFR2	3	5	PICTURE	1061	n/a	n/a	0	0	0
1247.39111328125	n/a	WORD	2554657	wordpools/wasnorm_wordpool_576.txt	LTP340	ltpFR2	3	6	VELVET	1555	n/a	n/a	0	0	0
1249.93994140625	n/a	WORD	2559877	wordpools/wasnorm_wordpool_576.txt	LTP340	ltpFR2	3	6	SNACK	1331	n/a	n/a	0	0	0
1252.68896484375	n/a	WORD	2565507	wordpools/wasnorm_wordpool_576.txt	LTP340	ltpFR2	3	6	JUNGLE	764	n/a	n/a	0	0	0
1255.35400390625	n/a	WORD	2570965	wordpools/wasnorm_wordpool_576.txt	LTP340	ltpFR2	3	6	PRIMATE	1123	n/a	n/a	0	0	0
1257.85302734375	n/a	WORD	2576083	wordpools/wasnorm_wordpool_576.txt	LTP340	ltpFR2	3	6	LIVER	833	n/a	n/a	0	0	0
1260.63525390625	n/a	WORD	2581781	wordpools/wasnorm_wordpool_576.txt	LTP340	ltpFR2	3	6	STONE	1385	n/a	n/a	0	0	0
1263.4169921875	n/a	WORD	2587478	wordpools/wasnorm_wordpool_576.txt	LTP340	ltpFR2	3	6	EGYPT	519	n/a	n/a	0	0	0
1265.98193359375	n/a	WORD	2592731	wordpools/wasnorm_wordpool_576.txt	LTP340	ltpFR2	3	6	PLAYGROUND	1087	n/a	n/a	0	0	0
1268.76416015625	n/a	WORD	2598429	wordpools/wasnorm_wordpool_576.txt	LTP340	ltpFR2	3	6	LILY	821	n/a	n/a	0	0	0
1271.39599609375	n/a	WORD	2603819	wordpools/wasnorm_wordpool_576.txt	LTP340	ltpFR2	3	6	TURTLE	1522	n/a	n/a	0	0	0
1273.89501953125	n/a	WORD	2608937	wordpools/wasnorm_wordpool_576.txt	LTP340	ltpFR2	3	6	QUEEN	1149	n/a	n/a	0	0	0
1276.4931640625	n/a	WORD	2614258	wordpools/wasnorm_wordpool_576.txt	LTP340	ltpFR2	3	6	PRINCESS	1125	n/a	n/a	0	0	0
1278.958984375	n/a	WORD	2619308	wordpools/wasnorm_wordpool_576.txt	LTP340	ltpFR2	3	6	RUG	1215	n/a	n/a	0	0	0
1281.42431640625	n/a	WORD	2624357	wordpools/wasnorm_wordpool_576.txt	LTP340	ltpFR2	3	6	GUARD	667	n/a	n/a	0	0	0
1284.1904296875	n/a	WORD	2630022	wordpools/wasnorm_wordpool_576.txt	LTP340	ltpFR2	3	6	FLEET	578	n/a	n/a	0	0	0
1286.7880859375	n/a	WORD	2635342	wordpools/wasnorm_wordpool_576.txt	LTP340	ltpFR2	3	6	SUMMIT	1405	n/a	n/a	0	0	0
1289.35400390625	n/a	WORD	2640597	wordpools/wasnorm_wordpool_576.txt	LTP340	ltpFR2	3	6	CLOCK	325	n/a	n/a	0	0	0
1292.0361328125	n/a	WORD	2646090	wordpools/wasnorm_wordpool_576.txt	LTP340	ltpFR2	3	6	FLESH	579	n/a	n/a	0	0	0
1294.6181640625	n/a	WORD	2651378	wordpools/wasnorm_wordpool_576.txt	LTP340	ltpFR2	3	6	PENGUIN	1044	n/a	n/a	0	0	0
1297.35009765625	n/a	WORD	2656973	wordpools/wasnorm_wordpool_576.txt	LTP340	ltpFR2	3	6	JELLO	754	n/a	n/a	0	0	0
1299.91552734375	n/a	WORD	2662227	wordpools/wasnorm_wordpool_576.txt	LTP340	ltpFR2	3	6	CHAUFFEUR	283	n/a	n/a	0	0	0
1302.71435546875	n/a	WORD	2667959	wordpools/wasnorm_wordpool_576.txt	LTP340	ltpFR2	3	6	SNAIL	1332	n/a	n/a	0	0	0
1305.46240234375	n/a	WORD	2673587	wordpools/wasnorm_wordpool_576.txt	LTP340	ltpFR2	3	6	PEBBLE	1035	n/a	n/a	0	0	0
1307.9111328125	n/a	WORD	2678602	wordpools/wasnorm_wordpool_576.txt	LTP340	ltpFR2	3	6	SANDWICH	1232	n/a	n/a	0	0	0
1309.52734375	n/a	START	2681912	n/a	LTP340	ltpFR2	3	n/a	n/a	n/a	9	n/a	n/a	n/a	n/a
1310.72021484375	n/a	DISTRACTOR	2684355	n/a	LTP340	ltpFR2	3	6	n/a	n/a	n/a	n/a	0	0	0
1310.7265625	n/a	PROB	2684368	n/a	LTP340	ltpFR2	3	n/a	n/a	n/a	9	23	9	5	9
1314.7744140625	n/a	PROB	2692658	n/a	LTP340	ltpFR2	3	n/a	n/a	n/a	9	10	4	1	5
1316.59033203125	n/a	PROB	2696377	n/a	LTP340	ltpFR2	3	n/a	n/a	n/a	9	9	1	4	4
1318.0732421875	n/a	PROB	2699414	n/a	LTP340	ltpFR2	3	n/a	n/a	n/a	9	22	9	9	4
1319.70556640625	n/a	PROB	2702757	n/a	LTP340	ltpFR2	3	n/a	n/a	n/a	9	12	4	7	1
1321.8544921875	n/a	PROB	2707158	n/a	LTP340	ltpFR2	3	n/a	n/a	n/a	9	13	8	1	4
1323.7373046875	n/a	PROB	2711014	n/a	LTP340	ltpFR2	3	n/a	n/a	n/a	9	18	6	5	7
1326.88525390625	n/a	PROB	2717461	n/a	LTP340	ltpFR2	3	n/a	n/a	n/a	9	14	9	2	3
1328.984375	n/a	PROB	2721760	n/a	LTP340	ltpFR2	3	n/a	n/a	n/a	9	12	1	7	4
1330.70068359375	n/a	PROB	2725275	n/a	LTP340	ltpFR2	3	n/a	n/a	n/a	9	16	6	3	7
1333.23046875	n/a	STOP	2730456	n/a	LTP340	ltpFR2	3	n/a	n/a	n/a	9	n/a	n/a	n/a	n/a
1335.38232421875	n/a	REC_START	2734863	n/a	LTP340	ltpFR2	3	6	n/a	n/a	n/a	n/a	0	0	0
1339.57958984375	n/a	REC_WORD	2743459	wordpools/wasnorm_wordpool_576.txt	LTP340	ltpFR2	3	6	PRINCESS	1125	n/a	n/a	0	0	0
1340.41552734375	n/a	REC_WORD	2745171	wordpools/wasnorm_wordpool_576.txt	LTP340	ltpFR2	3	6	QUEEN	1149	n/a	n/a	0	0	0
1341.1806640625	n/a	REC_WORD	2746738	wordpools/wasnorm_wordpool_576.txt	LTP340	ltpFR2	3	6	RUG	1215	n/a	n/a	0	0	0
1341.88134765625	n/a	REC_WORD	2748173	wordpools/wasnorm_wordpool_576.txt	LTP340	ltpFR2	3	6	SUMMIT	1405	n/a	n/a	0	0	0
1347.61474609375	n/a	REC_WORD	2759915	wordpools/wasnorm_wordpool_576.txt	LTP340	ltpFR2	3	6	PEBBLE	1035	n/a	n/a	0	0	0
1348.08154296875	n/a	REC_WORD	2760871	wordpools/wasnorm_wordpool_576.txt	LTP340	ltpFR2	3	6	SNAIL	1332	n/a	n/a	0	0	0
1348.99853515625	n/a	REC_WORD	2762749	wordpools/wasnorm_wordpool_576.txt	LTP340	ltpFR2	3	6	TURTLE	1522	n/a	n/a	0	0	0
1349.7333984375	n/a	REC_WORD	2764254	wordpools/wasnorm_wordpool_576.txt	LTP340	ltpFR2	3	6	GIRL	637	n/a	n/a	0	0	0
1353.712890625	n/a	REC_WORD	2772404	wordpools/wasnorm_wordpool_576.txt	LTP340	ltpFR2	3	6	RUG	1215	n/a	n/a	0	0	0
1356.50048828125	n/a	REC_WORD	2778113	wordpools/wasnorm_wordpool_576.txt	LTP340	ltpFR2	3	6	SANDWICH	1232	n/a	n/a	0	0	0
1358.41552734375	n/a	REC_WORD	2782035	wordpools/wasnorm_wordpool_576.txt	LTP340	ltpFR2	3	6	CHAUFFEUR	283	n/a	n/a	0	0	0
1379.89990234375	n/a	REC_WORD	2826035	wordpools/wasnorm_wordpool_576.txt	LTP340	ltpFR2	3	6	BUTLER	204	n/a	n/a	0	0	0
1425.8369140625	n/a	WORD	2920114	wordpools/wasnorm_wordpool_576.txt	LTP340	ltpFR2	3	7	CONVICT	371	n/a	n/a	0	0	0
1428.53515625	n/a	WORD	2925640	wordpools/wasnorm_wordpool_576.txt	LTP340	ltpFR2	3	7	PLAZA	1088	n/a	n/a	0	0	0
1430.96826171875	n/a	WORD	2930623	wordpools/wasnorm_wordpool_576.txt	LTP340	ltpFR2	3	7	PATIENT	1024	n/a	n/a	0	0	0
1433.63330078125	n/a	WORD	2936081	wordpools/wasnorm_wordpool_576.txt	LTP340	ltpFR2	3	7	NURSE	963	n/a	n/a	0	0	0
1436.21533203125	n/a	WORD	2941369	wordpools/wasnorm_wordpool_576.txt	LTP340	ltpFR2	3	7	RIFLE	1192	n/a	n/a	0	0	0
1438.96435546875	n/a	WORD	2946999	wordpools/wasnorm_wordpool_576.txt	LTP340	ltpFR2	3	7	INMATE	738	n/a	n/a	0	0	0
1441.56201171875	n/a	WORD	2952319	wordpools/wasnorm_wordpool_576.txt	LTP340	ltpFR2	3	7	GARDEN	623	n/a	n/a	0	0	0
1444.31103515625	n/a	WORD	2957949	wordpools/wasnorm_wordpool_576.txt	LTP340	ltpFR2	3	7	FEMALE	559	n/a	n/a	0	0	0
1446.943359375	n/a	WORD	2963340	wordpools/wasnorm_wordpool_576.txt	LTP340	ltpFR2	3	7	SWITCH	1422	n/a	n/a	0	0	0
1449.39208984375	n/a	WORD	2968355	wordpools/wasnorm_wordpool_576.txt	LTP340	ltpFR2	3	7	GALLON	618	n/a	n/a	0	0	0
1451.82421875	n/a	WORD	2973336	wordpools/wasnorm_wordpool_576.txt	LTP340	ltpFR2	3	7	XEROX	1628	n/a	n/a	0	0	0
1454.62353515625	n/a	WORD	2979069	wordpools/wasnorm_wordpool_576.txt	LTP340	ltpFR2	3	7	MOTEL	919	n/a	n/a	0	0	0
1457.25537109375	n/a	WORD	2984459	wordpools/wasnorm_wordpool_576.txt	LTP340	ltpFR2	3	7	DRESSER	496	n/a	n/a	0	0	0
1459.8701171875	n/a	WORD	2989814	wordpools/wasnorm_wordpool_576.txt	LTP340	ltpFR2	3	7	BUNNY	198	n/a	n/a	0	0	0
1462.51953125	n/a	WORD	2995240	wordpools/wasnorm_wordpool_576.txt	LTP340	ltpFR2	3	7	TORTOISE	1486	n/a	n/a	0	0	0
1465.1513671875	n/a	WORD	3000630	wordpools/wasnorm_wordpool_576.txt	LTP340	ltpFR2	3	7	HEDGE	699	n/a	n/a	0	0	0
1467.6494140625	n/a	WORD	3005746	wordpools/wasnorm_wordpool_576.txt	LTP340	ltpFR2	3	7	ROBOT	1200	n/a	n/a	0	0	0
1470.16552734375	n/a	WORD	3010899	wordpools/wasnorm_wordpool_576.txt	LTP340	ltpFR2	3	7	CHEST	295	n/a	n/a	0	0	0
1472.8974609375	n/a	WORD	3016494	wordpools/wasnorm_wordpool_576.txt	LTP340	ltpFR2	3	7	TERMITE	1451	n/a	n/a	0	0	0
1475.5625	n/a	WORD	3021952	wordpools/wasnorm_wordpool_576.txt	LTP340	ltpFR2	3	7	ROD	1203	n/a	n/a	0	0	0
1477.99462890625	n/a	WORD	3026933	wordpools/wasnorm_wordpool_576.txt	LTP340	ltpFR2	3	7	WASP	1593	n/a	n/a	0	0	0
1480.7763671875	n/a	WORD	3032630	wordpools/wasnorm_wordpool_576.txt	LTP340	ltpFR2	3	7	CROSS	413	n/a	n/a	0	0	0
1483.40869140625	n/a	WORD	3038021	wordpools/wasnorm_wordpool_576.txt	LTP340	ltpFR2	3	7	PILOT	1070	n/a	n/a	0	0	0
1486.0244140625	n/a	WORD	3043378	wordpools/wasnorm_wordpool_576.txt	LTP340	ltpFR2	3	7	ROCKET	1202	n/a	n/a	0	0	0
1487.640625	n/a	START	3046688	n/a	LTP340	ltpFR2	3	n/a	n/a	n/a	10	n/a	n/a	n/a	n/a
1488.57568359375	n/a	DISTRACTOR	3048603	n/a	LTP340	ltpFR2	3	7	n/a	n/a	n/a	n/a	0	0	0
1488.58935546875	n/a	PROB	3048631	n/a	LTP340	ltpFR2	3	n/a	n/a	n/a	10	18	9	6	3
1490.8212890625	n/a	PROB	3053202	n/a	LTP340	ltpFR2	3	n/a	n/a	n/a	10	15	4	9	2
1492.720703125	n/a	PROB	3057092	n/a	LTP340	ltpFR2	3	n/a	n/a	n/a	10	2	9	6	8
1494.91943359375	n/a	PROB	3061595	n/a	LTP340	ltpFR2	3	n/a	n/a	n/a	10	3	4	7	8
1495.11962890625	n/a	PROB	3062005	n/a	LTP340	ltpFR2	3	n/a	n/a	n/a	10	19	8	4	7
1497.45166015625	n/a	PROB	3066781	n/a	LTP340	ltpFR2	3	n/a	n/a	n/a	10	13	6	6	1
1499.11767578125	n/a	PROB	3070193	n/a	LTP340	ltpFR2	3	n/a	n/a	n/a	10	14	4	3	7
1501.11669921875	n/a	PROB	3074287	n/a	LTP340	ltpFR2	3	n/a	n/a	n/a	10	18	8	2	8
1502.6826171875	n/a	PROB	3077494	n/a	LTP340	ltpFR2	3	n/a	n/a	n/a	10	11	2	4	5
1504.6484375	n/a	PROB	3081520	n/a	LTP340	ltpFR2	3	n/a	n/a	n/a	10	1	7	1	6
1506.69775390625	n/a	PROB	3085717	n/a	LTP340	ltpFR2	3	n/a	n/a	n/a	10	13	2	6	5
1509.2626953125	n/a	PROB	3090970	n/a	LTP340	ltpFR2	3	n/a	n/a	n/a	10	13	4	7	2
1511.16748046875	n/a	STOP	3094871	n/a	LTP340	ltpFR2	3	n/a	n/a	n/a	10	n/a	n/a	n/a	n/a
1513.4619140625	n/a	REC_START	3099570	n/a	LTP340	ltpFR2	3	7	n/a	n/a	n/a	n/a	0	0	0
1515.3515625	n/a	REC_WORD	3103440	wordpools/wasnorm_wordpool_576.txt	LTP340	ltpFR2	3	7	PILOT	1070	n/a	n/a	0	0	0
1515.9208984375	n/a	REC_WORD	3104606	wordpools/wasnorm_wordpool_576.txt	LTP340	ltpFR2	3	7	ROCKET	1202	n/a	n/a	0	0	0
1519.8896484375	n/a	REC_WORD	3112734	wordpools/wasnorm_wordpool_576.txt	LTP340	ltpFR2	3	7	CONVICT	371	n/a	n/a	0	0	0
1520.82373046875	n/a	REC_WORD	3114647	wordpools/wasnorm_wordpool_576.txt	LTP340	ltpFR2	3	7	RIFLE	1192	n/a	n/a	0	0	0
1521.36474609375	n/a	REC_WORD	3115755	wordpools/wasnorm_wordpool_576.txt	LTP340	ltpFR2	3	7	PLAZA	1088	n/a	n/a	0	0	0
1522.931640625	n/a	REC_WORD	3118964	wordpools/wasnorm_wordpool_576.txt	LTP340	ltpFR2	3	7	NURSE	963	n/a	n/a	0	0	0
1523.546875	n/a	REC_WORD	3120224	wordpools/wasnorm_wordpool_576.txt	LTP340	ltpFR2	3	7	PATIENT	1024	n/a	n/a	0	0	0
1524.98583984375	n/a	REC_WORD	3123171	wordpools/wasnorm_wordpool_576.txt	LTP340	ltpFR2	3	7	FEMALE	559	n/a	n/a	0	0	0
1526.07763671875	n/a	REC_WORD	3125407	wordpools/wasnorm_wordpool_576.txt	LTP340	ltpFR2	3	7	GARDEN	623	n/a	n/a	0	0	0
1529.36279296875	n/a	REC_WORD	3132135	wordpools/wasnorm_wordpool_576.txt	LTP340	ltpFR2	3	7	INMATE	738	n/a	n/a	0	0	0
1532.28857421875	n/a	REC_WORD	3138127	wordpools/wasnorm_wordpool_576.txt	LTP340	ltpFR2	3	7	MOTEL	919	n/a	n/a	0	0	0
1536.6689453125	n/a	REC_WORD	3147098	wordpools/wasnorm_wordpool_576.txt	LTP340	ltpFR2	3	7	DRESSER	496	n/a	n/a	0	0	0
1538.3310546875	n/a	REC_WORD	3150502	wordpools/wasnorm_wordpool_576.txt	LTP340	ltpFR2	3	7	XEROX	1628	n/a	n/a	0	0	0
1542.44775390625	n/a	REC_WORD	3158933	wordpools/wasnorm_wordpool_576.txt	LTP340	ltpFR2	3	7	CHEST	295	n/a	n/a	0	0	0
1543.28564453125	n/a	REC_WORD	3160649	wordpools/wasnorm_wordpool_576.txt	LTP340	ltpFR2	3	7	TERMITE	1451	n/a	n/a	0	0	0
1546.71875	n/a	REC_WORD	3167680	wordpools/wasnorm_wordpool_576.txt	LTP340	ltpFR2	3	7	TERMITE	1451	n/a	n/a	0	0	0
1563.4140625	n/a	REC_WORD	3201872	wordpools/wasnorm_wordpool_576.txt	LTP340	ltpFR2	3	7	BUNNY	198	n/a	n/a	0	0	0
1564.4580078125	n/a	REC_WORD	3204010	wordpools/wasnorm_wordpool_576.txt	LTP340	ltpFR2	3	7	TURTLE	1522	n/a	n/a	0	0	0
1565.5419921875	n/a	REC_WORD	3206230	wordpools/wasnorm_wordpool_576.txt	LTP340	ltpFR2	3	7	HEDGE	699	n/a	n/a	0	0	0
1570.4072265625	n/a	REC_WORD	3216194	wordpools/wasnorm_wordpool_576.txt	LTP340	ltpFR2	3	7	ROBOT	1200	n/a	n/a	0	0	0
1603.916015625	n/a	WORD	3284820	wordpools/wasnorm_wordpool_576.txt	LTP340	ltpFR2	3	8	EMPIRE	530	n/a	n/a	0	0	0
1606.4482421875	n/a	WORD	3290006	wordpools/wasnorm_wordpool_576.txt	LTP340	ltpFR2	3	8	OINTMENT	974	n/a	n/a	0	0	0
1609.18017578125	n/a	WORD	3295601	wordpools/wasnorm_wordpool_576.txt	LTP340	ltpFR2	3	8	CARROT	249	n/a	n/a	0	0	0
1611.76220703125	n/a	WORD	3300889	wordpools/wasnorm_wordpool_576.txt	LTP340	ltpFR2	3	8	SHRUB	1299	n/a	n/a	0	0	0
1614.4443359375	n/a	WORD	3306382	wordpools/wasnorm_wordpool_576.txt	LTP340	ltpFR2	3	8	TRUCK	1512	n/a	n/a	0	0	0
1617.14453125	n/a	WORD	3311912	wordpools/wasnorm_wordpool_576.txt	LTP340	ltpFR2	3	8	HONEY	713	n/a	n/a	0	0	0
1619.62548828125	n/a	WORD	3316993	wordpools/wasnorm_wordpool_576.txt	LTP340	ltpFR2	3	8	MILK	895	n/a	n/a	0	0	0
1622.107421875	n/a	WORD	3322076	wordpools/wasnorm_wordpool_576.txt	LTP340	ltpFR2	3	8	AWARD	63	n/a	n/a	0	0	0
1624.88916015625	n/a	WORD	3327773	wordpools/wasnorm_wordpool_576.txt	LTP340	ltpFR2	3	8	SHORTCAKE	1292	n/a	n/a	0	0	0
1627.67138671875	n/a	WORD	3333471	wordpools/wasnorm_wordpool_576.txt	LTP340	ltpFR2	3	8	KETCHUP	771	n/a	n/a	0	0	0
1630.38623046875	n/a	WORD	3339031	wordpools/wasnorm_wordpool_576.txt	LTP340	ltpFR2	3	8	DUSTPAN	509	n/a	n/a	0	0	0
1633.00244140625	n/a	WORD	3344389	wordpools/wasnorm_wordpool_576.txt	LTP340	ltpFR2	3	8	DUST	508	n/a	n/a	0	0	0
1635.75048828125	n/a	WORD	3350017	wordpools/wasnorm_wordpool_576.txt	LTP340	ltpFR2	3	8	TRACTOR	1493	n/a	n/a	0	0	0
1638.41650390625	n/a	WORD	3355477	wordpools/wasnorm_wordpool_576.txt	LTP340	ltpFR2	3	8	FOREST	593	n/a	n/a	0	0	0
1641.197265625	n/a	WORD	3361172	wordpools/wasnorm_wordpool_576.txt	LTP340	ltpFR2	3	8	KEEPER	769	n/a	n/a	0	0	0
1643.88037109375	n/a	WORD	3366667	wordpools/wasnorm_wordpool_576.txt	LTP340	ltpFR2	3	8	PEACH	1031	n/a	n/a	0	0	0
1646.54541015625	n/a	WORD	3372125	wordpools/wasnorm_wordpool_576.txt	LTP340	ltpFR2	3	8	DOUGHNUT	490	n/a	n/a	0	0	0
1649.16064453125	n/a	WORD	3377481	wordpools/wasnorm_wordpool_576.txt	LTP340	ltpFR2	3	8	GROUND	666	n/a	n/a	0	0	0
1651.759765625	n/a	WORD	3382804	wordpools/wasnorm_wordpool_576.txt	LTP340	ltpFR2	3	8	CANDY	230	n/a	n/a	0	0	0
1654.30859375	n/a	WORD	3388024	wordpools/wasnorm_wordpool_576.txt	LTP340	ltpFR2	3	8	THREAD	1460	n/a	n/a	0	0	0
1657.0234375	n/a	WORD	3393584	wordpools/wasnorm_wordpool_576.txt	LTP340	ltpFR2	3	8	ORANGE	980	n/a	n/a	0	0	0
1659.62255859375	n/a	WORD	3398907	wordpools/wasnorm_wordpool_576.txt	LTP340	ltpFR2	3	8	FRIEND	606	n/a	n/a	0	0	0
1662.0546875	n/a	WORD	3403888	wordpools/wasnorm_wordpool_576.txt	LTP340	ltpFR2	3	8	LOVER	846	n/a	n/a	0	0	0
1664.76953125	n/a	WORD	3409448	wordpools/wasnorm_wordpool_576.txt	LTP340	ltpFR2	3	8	SADDLE	1221	n/a	n/a	0	0	0
1666.3857421875	n/a	START	3412758	n/a	LTP340	ltpFR2	3	n/a	n/a	n/a	11	n/a	n/a	n/a	n/a
1667.4365234375	n/a	DISTRACTOR	3414910	n/a	LTP340	ltpFR2	3	8	n/a	n/a	n/a	n/a	0	0	0
1667.45166015625	n/a	PROB	3414941	n/a	LTP340	ltpFR2	3	n/a	n/a	n/a	11	17	7	8	2
1669.78369140625	n/a	PROB	3419717	n/a	LTP340	ltpFR2	3	n/a	n/a	n/a	11	13	5	7	1
1672.4658203125	n/a	PROB	3425210	n/a	LTP340	ltpFR2	3	n/a	n/a	n/a	11	9	6	6	6
1674.015625	n/a	PROB	3428384	n/a	LTP340	ltpFR2	3	n/a	n/a	n/a	11	16	2	7	7
1676.28076171875	n/a	PROB	3433023	n/a	LTP340	ltpFR2	3	n/a	n/a	n/a	11	8	4	1	3
1677.81396484375	n/a	PROB	3436163	n/a	LTP340	ltpFR2	3	n/a	n/a	n/a	11	14	6	7	1
1680.32861328125	n/a	PROB	3441313	n/a	LTP340	ltpFR2	3	n/a	n/a	n/a	11	12	8	1	3
1681.8779296875	n/a	PROB	3444486	n/a	LTP340	ltpFR2	3	n/a	n/a	n/a	11	16	6	8	2
1683.6767578125	n/a	PROB	3448170	n/a	LTP340	ltpFR2	3	n/a	n/a	n/a	11	25	7	9	9
1687.5087890625	n/a	PROB	3456018	n/a	LTP340	ltpFR2	3	n/a	n/a	n/a	11	21	8	8	5
1689.36083984375	n/a	STOP	3459811	n/a	LTP340	ltpFR2	3	n/a	n/a	n/a	11	n/a	n/a	n/a	n/a
1692.18994140625	n/a	REC_START	3465605	n/a	LTP340	ltpFR2	3	8	n/a	n/a	n/a	n/a	0	0	0
1694.36083984375	n/a	REC_WORD	3470051	wordpools/wasnorm_wordpool_576.txt	LTP340	ltpFR2	3	8	ORANGE	980	n/a	n/a	0	0	0
1768.7353515625	n/a	REST_REWET	3622370	n/a	LTP340	ltpFR2	3	8	n/a	n/a	n/a	n/a	0	0	0
1987.5947265625	n/a	DISTRACTOR	4070594	n/a	LTP340	ltpFR2	3	9	n/a	n/a	n/a	n/a	0	0	0
1987.5947265625	n/a	START	4070594	n/a	LTP340	ltpFR2	3	n/a	n/a	n/a	12	n/a	n/a	n/a	n/a
1987.61181640625	n/a	PROB	4070629	n/a	LTP340	ltpFR2	3	n/a	n/a	n/a	12	21	9	3	9
1990.5439453125	n/a	PROB	4076634	n/a	LTP340	ltpFR2	3	n/a	n/a	n/a	12	17	9	6	3
1992.3427734375	n/a	PROB	4080318	n/a	LTP340	ltpFR2	3	n/a	n/a	n/a	12	13	1	4	8
1995.37451171875	n/a	PROB	4086527	n/a	LTP340	ltpFR2	3	n/a	n/a	n/a	12	19	9	7	3
1997.173828125	n/a	PROB	4090212	n/a	LTP340	ltpFR2	3	n/a	n/a	n/a	12	15	5	2	8
1998.62255859375	n/a	PROB	4093179	n/a	LTP340	ltpFR2	3	n/a	n/a	n/a	12	21	5	9	7
2000.8388671875	n/a	PROB	4097718	n/a	LTP340	ltpFR2	3	n/a	n/a	n/a	12	25	7	9	9
2005.20263671875	n/a	PROB	4106655	n/a	LTP340	ltpFR2	3	n/a	n/a	n/a	12	17	7	4	6
2006.8359375	n/a	PROB	4110000	n/a	LTP340	ltpFR2	3	n/a	n/a	n/a	12	16	2	9	5
2008.36767578125	n/a	PROB	4113137	n/a	LTP340	ltpFR2	3	n/a	n/a	n/a	12	13	2	2	9
2010.474609375	n/a	STOP	4117452	n/a	LTP340	ltpFR2	3	n/a	n/a	n/a	12	n/a	n/a	n/a	n/a
2012.6328125	n/a	WORD	4121872	wordpools/wasnorm_wordpool_576.txt	LTP340	ltpFR2	3	9	CRICKET	408	n/a	n/a	0	0	0
2015.1650390625	n/a	WORD	4127058	wordpools/wasnorm_wordpool_576.txt	LTP340	ltpFR2	3	9	LEG	809	n/a	n/a	0	0	0
2017.962890625	n/a	WORD	4132788	wordpools/wasnorm_wordpool_576.txt	LTP340	ltpFR2	3	9	CAMEL	223	n/a	n/a	0	0	0
2020.62890625	n/a	WORD	4138248	wordpools/wasnorm_wordpool_576.txt	LTP340	ltpFR2	3	9	BLUEPRINT	142	n/a	n/a	0	0	0
2023.31103515625	n/a	WORD	4143741	wordpools/wasnorm_wordpool_576.txt	LTP340	ltpFR2	3	9	MEDAL	885	n/a	n/a	0	0	0
2025.958984375	n/a	WORD	4149164	wordpools/wasnorm_wordpool_576.txt	LTP340	ltpFR2	3	9	EXPERT	543	n/a	n/a	0	0	0
2028.541015625	n/a	WORD	4154452	wordpools/wasnorm_wordpool_576.txt	LTP340	ltpFR2	3	9	DASHBOARD	441	n/a	n/a	0	0	0
2031.2900390625	n/a	WORD	4160082	wordpools/wasnorm_wordpool_576.txt	LTP340	ltpFR2	3	9	HOOD	714	n/a	n/a	0	0	0
2033.921875	n/a	WORD	4165472	wordpools/wasnorm_wordpool_576.txt	LTP340	ltpFR2	3	9	HOOK	715	n/a	n/a	0	0	0
2036.60400390625	n/a	WORD	4170965	wordpools/wasnorm_wordpool_576.txt	LTP340	ltpFR2	3	9	APPLE	33	n/a	n/a	0	0	0
2039.05322265625	n/a	WORD	4175981	wordpools/wasnorm_wordpool_576.txt	LTP340	ltpFR2	3	9	BACKBONE	66	n/a	n/a	0	0	0
2041.76806640625	n/a	WORD	4181541	wordpools/wasnorm_wordpool_576.txt	LTP340	ltpFR2	3	9	VALVE	1546	n/a	n/a	0	0	0
2044.43408203125	n/a	WORD	4187001	wordpools/wasnorm_wordpool_576.txt	LTP340	ltpFR2	3	9	WRIST	1626	n/a	n/a	0	0	0
2046.9990234375	n/a	WORD	4192254	wordpools/wasnorm_wordpool_576.txt	LTP340	ltpFR2	3	9	PECAN	1036	n/a	n/a	0	0	0
2049.6142578125	n/a	WORD	4197610	wordpools/wasnorm_wordpool_576.txt	LTP340	ltpFR2	3	9	GYMNAST	675	n/a	n/a	0	0	0
2052.3798828125	n/a	WORD	4203274	wordpools/wasnorm_wordpool_576.txt	LTP340	ltpFR2	3	9	DRIVER	499	n/a	n/a	0	0	0
2055.162109375	n/a	WORD	4208972	wordpools/wasnorm_wordpool_576.txt	LTP340	ltpFR2	3	9	SPHINX	1349	n/a	n/a	0	0	0
2057.7939453125	n/a	WORD	4214362	wordpools/wasnorm_wordpool_576.txt	LTP340	ltpFR2	3	9	LION	827	n/a	n/a	0	0	0
2060.30908203125	n/a	WORD	4219513	wordpools/wasnorm_wordpool_576.txt	LTP340	ltpFR2	3	9	JELLY	755	n/a	n/a	0	0	0
2063.1240234375	n/a	WORD	4225278	wordpools/wasnorm_wordpool_576.txt	LTP340	ltpFR2	3	9	OZONE	996	n/a	n/a	0	0	0
2065.6064453125	n/a	WORD	4230362	wordpools/wasnorm_wordpool_576.txt	LTP340	ltpFR2	3	9	SEAFOOD	1260	n/a	n/a	0	0	0
2068.18798828125	n/a	WORD	4235649	wordpools/wasnorm_wordpool_576.txt	LTP340	ltpFR2	3	9	CRAB	397	n/a	n/a	0	0	0
2070.9873046875	n/a	WORD	4241382	wordpools/wasnorm_wordpool_576.txt	LTP340	ltpFR2	3	9	KNIFE	785	n/a	n/a	0	0	0
2073.66943359375	n/a	WORD	4246875	wordpools/wasnorm_wordpool_576.txt	LTP340	ltpFR2	3	9	BEAVER	109	n/a	n/a	0	0	0
2075.28515625	n/a	START	4250184	n/a	LTP340	ltpFR2	3	n/a	n/a	n/a	13	n/a	n/a	n/a	n/a
2076.29736328125	n/a	DISTRACTOR	4252257	n/a	LTP340	ltpFR2	3	9	n/a	n/a	n/a	n/a	0	0	0
2076.30126953125	n/a	PROB	4252265	n/a	LTP340	ltpFR2	3	n/a	n/a	n/a	13	18	3	7	8
2078.26708984375	n/a	PROB	4256291	n/a	LTP340	ltpFR2	3	n/a	n/a	n/a	13	20	5	7	8
2082.49853515625	n/a	PROB	4264957	n/a	LTP340	ltpFR2	3	n/a	n/a	n/a	13	15	4	2	9
2084.314453125	n/a	PROB	4268676	n/a	LTP340	ltpFR2	3	n/a	n/a	n/a	13	24	8	6	8
2087.49658203125	n/a	PROB	4275193	n/a	LTP340	ltpFR2	3	n/a	n/a	n/a	13	15	9	1	5
2089.26123046875	n/a	PROB	4278807	n/a	LTP340	ltpFR2	3	n/a	n/a	n/a	13	17	5	9	3
2091.1455078125	n/a	PROB	4282666	n/a	LTP340	ltpFR2	3	n/a	n/a	n/a	13	14	4	2	8
2092.7763671875	n/a	PROB	4286006	n/a	LTP340	ltpFR2	3	n/a	n/a	n/a	13	11	1	5	5
2095.12548828125	n/a	PROB	4290817	n/a	LTP340	ltpFR2	3	n/a	n/a	n/a	13	11	1	4	6
2096.69140625	n/a	PROB	4294024	n/a	LTP340	ltpFR2	3	n/a	n/a	n/a	13	15	8	6	1
2098.37158203125	n/a	STOP	4297465	n/a	LTP340	ltpFR2	3	n/a	n/a	n/a	13	n/a	n/a	n/a	n/a
2101.189453125	n/a	REC_START	4303236	n/a	LTP340	ltpFR2	3	9	n/a	n/a	n/a	n/a	0	0	0
2102.611328125	n/a	REC_WORD	4306148	wordpools/wasnorm_wordpool_576.txt	LTP340	ltpFR2	3	9	CRICKET	408	n/a	n/a	0	0	0
2103.61865234375	n/a	REC_WORD	4308211	wordpools/wasnorm_wordpool_576.txt	LTP340	ltpFR2	3	9	JELLO	754	n/a	n/a	0	0	0
2104.484375	n/a	REC_WORD	4309984	wordpools/wasnorm_wordpool_576.txt	LTP340	ltpFR2	3	9	SEAFOOD	1260	n/a	n/a	0	0	0
2105.6484375	n/a	REC_WORD	4312368	wordpools/wasnorm_wordpool_576.txt	LTP340	ltpFR2	3	9	CRAB	397	n/a	n/a	0	0	0
2191.6279296875	n/a	DISTRACTOR	4488454	n/a	LTP340	ltpFR2	3	10	n/a	n/a	n/a	n/a	0	0	0
2191.6279296875	n/a	START	4488454	n/a	LTP340	ltpFR2	3	n/a	n/a	n/a	14	n/a	n/a	n/a	n/a
2191.64501953125	n/a	PROB	4488489	n/a	LTP340	ltpFR2	3	n/a	n/a	n/a	14	15	5	2	8
2193.72705078125	n/a	PROB	4492753	n/a	LTP340	ltpFR2	3	n/a	n/a	n/a	14	19	8	9	2
2196.14404296875	n/a	PROB	4497703	n/a	LTP340	ltpFR2	3	n/a	n/a	n/a	14	13	2	6	5
2198.908203125	n/a	PROB	4503364	n/a	LTP340	ltpFR2	3	n/a	n/a	n/a	14	19	8	5	6
2201.55712890625	n/a	PROB	4508789	n/a	LTP340	ltpFR2	3	n/a	n/a	n/a	14	15	3	9	3
2203.38916015625	n/a	PROB	4512541	n/a	LTP340	ltpFR2	3	n/a	n/a	n/a	14	11	6	2	3
2205.18798828125	n/a	PROB	4516225	n/a	LTP340	ltpFR2	3	n/a	n/a	n/a	14	18	7	9	2
2206.7373046875	n/a	PROB	4519398	n/a	LTP340	ltpFR2	3	n/a	n/a	n/a	14	19	7	6	7
2209.3193359375	n/a	PROB	4524686	n/a	LTP340	ltpFR2	3	n/a	n/a	n/a	14	16	7	5	4
2211.8681640625	n/a	PROB	4529906	n/a	LTP340	ltpFR2	3	n/a	n/a	n/a	14	13	5	6	2
2213.63427734375	n/a	PROB	4533523	n/a	LTP340	ltpFR2	3	n/a	n/a	n/a	14	15	4	4	7
2215.18798828125	n/a	STOP	4536705	n/a	LTP340	ltpFR2	3	n/a	n/a	n/a	14	n/a	n/a	n/a	n/a
2216.64892578125	n/a	WORD	4539697	wordpools/wasnorm_wordpool_576.txt	LTP340	ltpFR2	3	10	RATTLE	1170	n/a	n/a	0	0	0
2219.43115234375	n/a	WORD	4545395	wordpools/wasnorm_wordpool_576.txt	LTP340	ltpFR2	3	10	JOURNAL	760	n/a	n/a	0	0	0
2221.88037109375	n/a	WORD	4550411	wordpools/wasnorm_wordpool_576.txt	LTP340	ltpFR2	3	10	TUTU	1524	n/a	n/a	0	0	0
2224.67822265625	n/a	WORD	4556141	wordpools/wasnorm_wordpool_576.txt	LTP340	ltpFR2	3	10	COUNTY	389	n/a	n/a	0	0	0
2227.494140625	n/a	WORD	4561908	wordpools/wasnorm_wordpool_576.txt	LTP340	ltpFR2	3	10	TROUT	1511	n/a	n/a	0	0	0
2230.29248046875	n/a	WORD	4567639	wordpools/wasnorm_wordpool_576.txt	LTP340	ltpFR2	3	10	DANCER	437	n/a	n/a	0	0	0
2232.908203125	n/a	WORD	4572996	wordpools/wasnorm_wordpool_576.txt	LTP340	ltpFR2	3	10	QUAIL	1147	n/a	n/a	0	0	0
2235.623046875	n/a	WORD	4578556	wordpools/wasnorm_wordpool_576.txt	LTP340	ltpFR2	3	10	SPACE	1345	n/a	n/a	0	0	0
2238.17236328125	n/a	WORD	4583777	wordpools/wasnorm_wordpool_576.txt	LTP340	ltpFR2	3	10	PIANO	1057	n/a	n/a	0	0	0
2240.72021484375	n/a	WORD	4588995	wordpools/wasnorm_wordpool_576.txt	LTP340	ltpFR2	3	10	TUBA	1515	n/a	n/a	0	0	0
2243.236328125	n/a	WORD	4594148	wordpools/wasnorm_wordpool_576.txt	LTP340	ltpFR2	3	10	WITNESS	1618	n/a	n/a	0	0	0
2245.7685546875	n/a	WORD	4599334	wordpools/wasnorm_wordpool_576.txt	LTP340	ltpFR2	3	10	SCISSORS	1250	n/a	n/a	0	0	0
2248.46728515625	n/a	WORD	4604861	wordpools/wasnorm_wordpool_576.txt	LTP340	ltpFR2	3	10	PACKAGE	997	n/a	n/a	0	0	0
2250.99951171875	n/a	WORD	4610047	wordpools/wasnorm_wordpool_576.txt	LTP340	ltpFR2	3	10	POSTAGE	1113	n/a	n/a	0	0	0
2253.681640625	n/a	WORD	4615540	wordpools/wasnorm_wordpool_576.txt	LTP340	ltpFR2	3	10	INFANT	737	n/a	n/a	0	0	0
2256.26318359375	n/a	WORD	4620827	wordpools/wasnorm_wordpool_576.txt	LTP340	ltpFR2	3	10	HAMPER	682	n/a	n/a	0	0	0
2258.9453125	n/a	WORD	4626320	wordpools/wasnorm_wordpool_576.txt	LTP340	ltpFR2	3	10	HATCHET	691	n/a	n/a	0	0	0
2261.77734375	n/a	WORD	4632120	wordpools/wasnorm_wordpool_576.txt	LTP340	ltpFR2	3	10	TWISTER	1530	n/a	n/a	0	0	0
2264.4423828125	n/a	WORD	4637578	wordpools/wasnorm_wordpool_576.txt	LTP340	ltpFR2	3	10	COCOON	339	n/a	n/a	0	0	0
2267.0576171875	n/a	WORD	4642934	wordpools/wasnorm_wordpool_576.txt	LTP340	ltpFR2	3	10	ONION	977	n/a	n/a	0	0	0
2269.806640625	n/a	WORD	4648564	wordpools/wasnorm_wordpool_576.txt	LTP340	ltpFR2	3	10	SHORTS	1293	n/a	n/a	0	0	0
2272.45556640625	n/a	WORD	4653989	wordpools/wasnorm_wordpool_576.txt	LTP340	ltpFR2	3	10	HUSBAND	728	n/a	n/a	0	0	0
2274.9033203125	n/a	WORD	4659002	wordpools/wasnorm_wordpool_576.txt	LTP340	ltpFR2	3	10	MACHINE	852	n/a	n/a	0	0	0
2277.45263671875	n/a	WORD	4664223	wordpools/wasnorm_wordpool_576.txt	LTP340	ltpFR2	3	10	CORAL	378	n/a	n/a	0	0	0
2279.068359375	n/a	START	4667532	n/a	LTP340	ltpFR2	3	n/a	n/a	n/a	15	n/a	n/a	n/a	n/a
2280.134765625	n/a	DISTRACTOR	4669716	n/a	LTP340	ltpFR2	3	10	n/a	n/a	n/a	n/a	0	0	0
2280.1513671875	n/a	PROB	4669750	n/a	LTP340	ltpFR2	3	n/a	n/a	n/a	15	10	2	4	4
2282.66650390625	n/a	PROB	4674901	n/a	LTP340	ltpFR2	3	n/a	n/a	n/a	15	16	7	7	2
2283.91650390625	n/a	PROB	4677461	n/a	LTP340	ltpFR2	3	n/a	n/a	n/a	15	16	4	3	9
2285.53271484375	n/a	PROB	4680771	n/a	LTP340	ltpFR2	3	n/a	n/a	n/a	15	7	3	2	2
2287.2314453125	n/a	PROB	4684250	n/a	LTP340	ltpFR2	3	n/a	n/a	n/a	15	8	1	5	3
2288.78076171875	n/a	PROB	4687423	n/a	LTP340	ltpFR2	3	n/a	n/a	n/a	15	12	2	6	4
2290.57958984375	n/a	PROB	4691107	n/a	LTP340	ltpFR2	3	n/a	n/a	n/a	15	11	7	3	1
2292.36181640625	n/a	PROB	4694757	n/a	LTP340	ltpFR2	3	n/a	n/a	n/a	15	6	4	1	1
2294.11181640625	n/a	PROB	4698341	n/a	LTP340	ltpFR2	3	n/a	n/a	n/a	15	14	2	7	5
2296.52685546875	n/a	PROB	4703287	n/a	LTP340	ltpFR2	3	n/a	n/a	n/a	15	15	5	1	9
2298.009765625	n/a	PROB	4706324	n/a	LTP340	ltpFR2	3	n/a	n/a	n/a	15	19	8	3	8
2299.74169921875	n/a	PROB	4709871	n/a	LTP340	ltpFR2	3	n/a	n/a	n/a	15	10	7	1	2
2301.8046875	n/a	STOP	4714096	n/a	LTP340	ltpFR2	3	n/a	n/a	n/a	15	n/a	n/a	n/a	n/a
2304.97265625	n/a	REC_START	4720584	n/a	LTP340	ltpFR2	3	10	n/a	n/a	n/a	n/a	0	0	0
2308.6787109375	n/a	REC_WORD	4728174	wordpools/wasnorm_wordpool_576.txt	LTP340	ltpFR2	3	10	SPACE	1345	n/a	n/a	0	0	0
2395.42822265625	n/a	WORD	4905837	wordpools/wasnorm_wordpool_576.txt	LTP340	ltpFR2	3	11	FLASK	576	n/a	n/a	0	0	0
2398.060546875	n/a	WORD	4911228	wordpools/wasnorm_wordpool_576.txt	LTP340	ltpFR2	3	11	BUCKET	184	n/a	n/a	0	0	0
2400.642578125	n/a	WORD	4916516	wordpools/wasnorm_wordpool_576.txt	LTP340	ltpFR2	3	11	IGLOO	734	n/a	n/a	0	0	0
2403.45751953125	n/a	WORD	4922281	wordpools/wasnorm_wordpool_576.txt	LTP340	ltpFR2	3	11	GRAVE	658	n/a	n/a	0	0	0
2406.0234375	n/a	WORD	4927536	wordpools/wasnorm_wordpool_576.txt	LTP340	ltpFR2	3	11	SPOUSE	1358	n/a	n/a	0	0	0
2408.50537109375	n/a	WORD	4932619	wordpools/wasnorm_wordpool_576.txt	LTP340	ltpFR2	3	11	CAFE	216	n/a	n/a	0	0	0
2411.20361328125	n/a	WORD	4938145	wordpools/wasnorm_wordpool_576.txt	LTP340	ltpFR2	3	11	MOTOR	922	n/a	n/a	0	0	0
2413.75244140625	n/a	WORD	4943365	wordpools/wasnorm_wordpool_576.txt	LTP340	ltpFR2	3	11	BULLET	194	n/a	n/a	0	0	0
2416.3515625	n/a	WORD	4948688	wordpools/wasnorm_wordpool_576.txt	LTP340	ltpFR2	3	11	PLIERS	1089	n/a	n/a	0	0	0
2418.81640625	n/a	WORD	4953736	wordpools/wasnorm_wordpool_576.txt	LTP340	ltpFR2	3	11	AUTHOR	61	n/a	n/a	0	0	0
2421.265625	n/a	WORD	4958752	wordpools/wasnorm_wordpool_576.txt	LTP340	ltpFR2	3	11	STATUE	1374	n/a	n/a	0	0	0
2423.79736328125	n/a	WORD	4963937	wordpools/wasnorm_wordpool_576.txt	LTP340	ltpFR2	3	11	SCULPTURE	1258	n/a	n/a	0	0	0
2426.36328125	n/a	WORD	4969192	wordpools/wasnorm_wordpool_576.txt	LTP340	ltpFR2	3	11	PEANUT	1032	n/a	n/a	0	0	0
2429.0615234375	n/a	WORD	4974718	wordpools/wasnorm_wordpool_576.txt	LTP340	ltpFR2	3	11	WOMAN	1620	n/a	n/a	0	0	0
2431.693359375	n/a	WORD	4980108	wordpools/wasnorm_wordpool_576.txt	LTP340	ltpFR2	3	11	ICEBERG	731	n/a	n/a	0	0	0
2434.4423828125	n/a	WORD	4985738	wordpools/wasnorm_wordpool_576.txt	LTP340	ltpFR2	3	11	FARMER	553	n/a	n/a	0	0	0
2436.9248046875	n/a	WORD	4990822	wordpools/wasnorm_wordpool_576.txt	LTP340	ltpFR2	3	11	ELBOW	520	n/a	n/a	0	0	0
2439.439453125	n/a	WORD	4995972	wordpools/wasnorm_wordpool_576.txt	LTP340	ltpFR2	3	11	BRANDY	169	n/a	n/a	0	0	0
2442.23876953125	n/a	WORD	5001705	wordpools/wasnorm_wordpool_576.txt	LTP340	ltpFR2	3	11	SCOTCH	1251	n/a	n/a	0	0	0
2444.970703125	n/a	WORD	5007300	wordpools/wasnorm_wordpool_576.txt	LTP340	ltpFR2	3	11	CRUTCH	417	n/a	n/a	0	0	0
2447.75244140625	n/a	WORD	5012997	wordpools/wasnorm_wordpool_576.txt	LTP340	ltpFR2	3	11	SUBWAY	1400	n/a	n/a	0	0	0
2450.2177734375	n/a	WORD	5018046	wordpools/wasnorm_wordpool_576.txt	LTP340	ltpFR2	3	11	SLUG	1329	n/a	n/a	0	0	0
2452.99951171875	n/a	WORD	5023743	wordpools/wasnorm_wordpool_576.txt	LTP340	ltpFR2	3	11	RACKET	1155	n/a	n/a	0	0	0
2455.4658203125	n/a	WORD	5028794	wordpools/wasnorm_wordpool_576.txt	LTP340	ltpFR2	3	11	CANYON	235	n/a	n/a	0	0	0
2457.08154296875	n/a	START	5032103	n/a	LTP340	ltpFR2	3	n/a	n/a	n/a	16	n/a	n/a	n/a	n/a
2457.8935546875	n/a	DISTRACTOR	5033766	n/a	LTP340	ltpFR2	3	11	n/a	n/a	n/a	n/a	0	0	0
2457.89794921875	n/a	PROB	5033775	n/a	LTP340	ltpFR2	3	n/a	n/a	n/a	16	19	9	6	4
2459.99658203125	n/a	PROB	5038073	n/a	LTP340	ltpFR2	3	n/a	n/a	n/a	16	19	1	9	9
2461.66259765625	n/a	PROB	5041485	n/a	LTP340	ltpFR2	3	n/a	n/a	n/a	16	18	3	7	8
2463.66162109375	n/a	PROB	5045579	n/a	LTP340	ltpFR2	3	n/a	n/a	n/a	16	22	8	9	5
2466.19384765625	n/a	PROB	5050765	n/a	LTP340	ltpFR2	3	n/a	n/a	n/a	16	13	6	2	5
2468.65869140625	n/a	PROB	5055813	n/a	LTP340	ltpFR2	3	n/a	n/a	n/a	16	16	4	5	7
2470.4248046875	n/a	PROB	5059430	n/a	LTP340	ltpFR2	3	n/a	n/a	n/a	16	10	1	8	1
2472.19091796875	n/a	PROB	5063047	n/a	LTP340	ltpFR2	3	n/a	n/a	n/a	16	22	6	8	8
2474.57275390625	n/a	PROB	5067925	n/a	LTP340	ltpFR2	3	n/a	n/a	n/a	16	8	3	1	4
2476.2216796875	n/a	PROB	5071302	n/a	LTP340	ltpFR2	3	n/a	n/a	n/a	16	21	5	7	9
2479.20361328125	n/a	PROB	5077409	n/a	LTP340	ltpFR2	3	n/a	n/a	n/a	16	18	8	6	4
2480.8857421875	n/a	STOP	5080854	n/a	LTP340	ltpFR2	3	n/a	n/a	n/a	16	n/a	n/a	n/a	n/a
2482.8359375	n/a	REC_START	5084848	n/a	LTP340	ltpFR2	3	11	n/a	n/a	n/a	n/a	0	0	0
2486.02099609375	n/a	REC_WORD	5091371	wordpools/wasnorm_wordpool_576.txt	LTP340	ltpFR2	3	11	IGLOO	734	n/a	n/a	0	0	0
2486.93603515625	n/a	REC_WORD	5093245	wordpools/wasnorm_wordpool_576.txt	LTP340	ltpFR2	3	11	BUCKET	184	n/a	n/a	0	0	0
2500.64111328125	n/a	REC_WORD	5121313	wordpools/wasnorm_wordpool_576.txt	LTP340	ltpFR2	3	11	FLASK	576	n/a	n/a	0	0	0
2573.29150390625	n/a	WORD	5270101	wordpools/wasnorm_wordpool_576.txt	LTP340	ltpFR2	3	12	MESSAGE	888	n/a	n/a	0	0	0
2575.92333984375	n/a	WORD	5275491	wordpools/wasnorm_wordpool_576.txt	LTP340	ltpFR2	3	12	THIEF	1456	n/a	n/a	0	0	0
2578.35546875	n/a	WORD	5280472	wordpools/wasnorm_wordpool_576.txt	LTP340	ltpFR2	3	12	SALAD	1224	n/a	n/a	0	0	0
2581.1376953125	n/a	WORD	5286170	wordpools/wasnorm_wordpool_576.txt	LTP340	ltpFR2	3	12	DAISY	435	n/a	n/a	0	0	0
2583.7353515625	n/a	WORD	5291490	wordpools/wasnorm_wordpool_576.txt	LTP340	ltpFR2	3	12	SCARF	1246	n/a	n/a	0	0	0
2586.4345703125	n/a	WORD	5297018	wordpools/wasnorm_wordpool_576.txt	LTP340	ltpFR2	3	12	BLENDER	136	n/a	n/a	0	0	0
2589.2333984375	n/a	WORD	5302750	wordpools/wasnorm_wordpool_576.txt	LTP340	ltpFR2	3	12	SIBLING	1301	n/a	n/a	0	0	0
2591.71533203125	n/a	WORD	5307833	wordpools/wasnorm_wordpool_576.txt	LTP340	ltpFR2	3	12	STALLION	1369	n/a	n/a	0	0	0
2594.4306640625	n/a	WORD	5313394	wordpools/wasnorm_wordpool_576.txt	LTP340	ltpFR2	3	12	ROBBER	1197	n/a	n/a	0	0	0
2597.07958984375	n/a	WORD	5318819	wordpools/wasnorm_wordpool_576.txt	LTP340	ltpFR2	3	12	PADDING	999	n/a	n/a	0	0	0
2599.79443359375	n/a	WORD	5324379	wordpools/wasnorm_wordpool_576.txt	LTP340	ltpFR2	3	12	JURY	766	n/a	n/a	0	0	0
2602.5595703125	n/a	WORD	5330042	wordpools/wasnorm_wordpool_576.txt	LTP340	ltpFR2	3	12	BRICK	172	n/a	n/a	0	0	0
2605.10888671875	n/a	WORD	5335263	wordpools/wasnorm_wordpool_576.txt	LTP340	ltpFR2	3	12	NIGHTGOWN	953	n/a	n/a	0	0	0
2607.87353515625	n/a	WORD	5340925	wordpools/wasnorm_wordpool_576.txt	LTP340	ltpFR2	3	12	WINDOW	1611	n/a	n/a	0	0	0
2610.689453125	n/a	WORD	5346692	wordpools/wasnorm_wordpool_576.txt	LTP340	ltpFR2	3	12	CELLAR	267	n/a	n/a	0	0	0
2613.32177734375	n/a	WORD	5352083	wordpools/wasnorm_wordpool_576.txt	LTP340	ltpFR2	3	12	BISON	131	n/a	n/a	0	0	0
2616.103515625	n/a	WORD	5357780	wordpools/wasnorm_wordpool_576.txt	LTP340	ltpFR2	3	12	FRAME	600	n/a	n/a	0	0	0
2618.8017578125	n/a	WORD	5363306	wordpools/wasnorm_wordpool_576.txt	LTP340	ltpFR2	3	12	BUGGY	188	n/a	n/a	0	0	0
2621.55078125	n/a	WORD	5368936	wordpools/wasnorm_wordpool_576.txt	LTP340	ltpFR2	3	12	CARRIAGE	248	n/a	n/a	0	0	0
2624.06591796875	n/a	WORD	5374087	wordpools/wasnorm_wordpool_576.txt	LTP340	ltpFR2	3	12	SISTER	1312	n/a	n/a	0	0	0
2626.73193359375	n/a	WORD	5379547	wordpools/wasnorm_wordpool_576.txt	LTP340	ltpFR2	3	12	TWEEZERS	1526	n/a	n/a	0	0	0
2629.49658203125	n/a	WORD	5385209	wordpools/wasnorm_wordpool_576.txt	LTP340	ltpFR2	3	12	TURNIP	1521	n/a	n/a	0	0	0
2632.19580078125	n/a	WORD	5390737	wordpools/wasnorm_wordpool_576.txt	LTP340	ltpFR2	3	12	LAMP	798	n/a	n/a	0	0	0
2634.7109375	n/a	WORD	5395888	wordpools/wasnorm_wordpool_576.txt	LTP340	ltpFR2	3	12	MATCH	878	n/a	n/a	0	0	0
2636.32666015625	n/a	START	5399197	n/a	LTP340	ltpFR2	3	n/a	n/a	n/a	17	n/a	n/a	n/a	n/a
2637.14892578125	n/a	DISTRACTOR	5400881	n/a	LTP340	ltpFR2	3	12	n/a	n/a	n/a	n/a	0	0	0
2637.15966796875	n/a	PROB	5400903	n/a	LTP340	ltpFR2	3	n/a	n/a	n/a	17	24	8	7	9
2639.875	n/a	PROB	5406464	n/a	LTP340	ltpFR2	3	n/a	n/a	n/a	17	10	3	3	4
2641.65771484375	n/a	PROB	5410115	n/a	LTP340	ltpFR2	3	n/a	n/a	n/a	17	13	3	5	5
2643.58984375	n/a	PROB	5414072	n/a	LTP340	ltpFR2	3	n/a	n/a	n/a	17	20	6	5	9
2646.5546875	n/a	PROB	5420144	n/a	LTP340	ltpFR2	3	n/a	n/a	n/a	17	20	9	6	5
2648.50390625	n/a	PROB	5424136	n/a	LTP340	ltpFR2	3	n/a	n/a	n/a	17	9	4	1	4
2650.48681640625	n/a	PROB	5428197	n/a	LTP340	ltpFR2	3	n/a	n/a	n/a	17	18	2	8	8
2654.56787109375	n/a	PROB	5436555	n/a	LTP340	ltpFR2	3	n/a	n/a	n/a	17	22	8	6	8
2658.1162109375	n/a	PROB	5443822	n/a	LTP340	ltpFR2	3	n/a	n/a	n/a	17	18	9	3	6
2659.80712890625	n/a	STOP	5447285	n/a	LTP340	ltpFR2	3	n/a	n/a	n/a	17	n/a	n/a	n/a	n/a
2662.248046875	n/a	REC_START	5452284	n/a	LTP340	ltpFR2	3	12	n/a	n/a	n/a	n/a	0	0	0
2662.873046875	n/a	REC_WORD	5453564	wordpools/wasnorm_wordpool_576.txt	LTP340	ltpFR2	3	12	CELLAR	267	n/a	n/a	0	0	0
2663.8759765625	n/a	REC_WORD	5455618	wordpools/wasnorm_wordpool_576.txt	LTP340	ltpFR2	3	12	TURNIP	1521	n/a	n/a	0	0	0
2664.7890625	n/a	REC_WORD	5457488	wordpools/wasnorm_wordpool_576.txt	LTP340	ltpFR2	3	12	LAMP	798	n/a	n/a	0	0	0
2665.673828125	n/a	REC_WORD	5459300	wordpools/wasnorm_wordpool_576.txt	LTP340	ltpFR2	3	12	MATCH	878	n/a	n/a	0	0	0
2669.60888671875	n/a	REC_WORD	5467359	wordpools/wasnorm_wordpool_576.txt	LTP340	ltpFR2	3	12	SISTER	1312	n/a	n/a	0	0	0
2671.38818359375	n/a	REC_WORD	5471003	wordpools/wasnorm_wordpool_576.txt	LTP340	ltpFR2	3	12	SIBLING	1301	n/a	n/a	0	0	0
2752.70361328125	n/a	DISTRACTOR	5637537	n/a	LTP340	ltpFR2	3	13	n/a	n/a	n/a	n/a	0	0	0
2752.70361328125	n/a	START	5637537	n/a	LTP340	ltpFR2	3	n/a	n/a	n/a	18	n/a	n/a	n/a	n/a
2752.7197265625	n/a	PROB	5637570	n/a	LTP340	ltpFR2	3	n/a	n/a	n/a	18	16	4	4	8
2754.65283203125	n/a	PROB	5641529	n/a	LTP340	ltpFR2	3	n/a	n/a	n/a	18	21	6	9	6
2756.28466796875	n/a	PROB	5644871	n/a	LTP340	ltpFR2	3	n/a	n/a	n/a	18	15	2	4	9
2758.216796875	n/a	PROB	5648828	n/a	LTP340	ltpFR2	3	n/a	n/a	n/a	18	12	1	2	9
2759.482421875	n/a	PROB	5651420	n/a	LTP340	ltpFR2	3	n/a	n/a	n/a	18	13	5	5	3
2760.69873046875	n/a	PROB	5653911	n/a	LTP340	ltpFR2	3	n/a	n/a	n/a	18	13	8	2	3
2762.1318359375	n/a	PROB	5656846	n/a	LTP340	ltpFR2	3	n/a	n/a	n/a	18	11	1	7	3
2763.78076171875	n/a	PROB	5660223	n/a	LTP340	ltpFR2	3	n/a	n/a	n/a	18	16	5	4	7
2765.9638671875	n/a	PROB	5664694	n/a	LTP340	ltpFR2	3	n/a	n/a	n/a	18	18	7	3	8
2767.462890625	n/a	PROB	5667764	n/a	LTP340	ltpFR2	3	n/a	n/a	n/a	18	19	4	7	8
2769.02880859375	n/a	PROB	5670971	n/a	LTP340	ltpFR2	3	n/a	n/a	n/a	18	20	8	3	9
2770.927734375	n/a	PROB	5674860	n/a	LTP340	ltpFR2	3	n/a	n/a	n/a	18	16	6	7	3
2773.10986328125	n/a	PROB	5679329	n/a	LTP340	ltpFR2	3	n/a	n/a	n/a	18	5	2	2	1
2774.45849609375	n/a	PROB	5682091	n/a	LTP340	ltpFR2	3	n/a	n/a	n/a	18	14	7	5	2
2776.64794921875	n/a	STOP	5686575	n/a	LTP340	ltpFR2	3	n/a	n/a	n/a	18	n/a	n/a	n/a	n/a
2777.90771484375	n/a	WORD	5689155	wordpools/wasnorm_wordpool_576.txt	LTP340	ltpFR2	3	13	STICKER	1382	n/a	n/a	0	0	0
2780.6728515625	n/a	WORD	5694818	wordpools/wasnorm_wordpool_576.txt	LTP340	ltpFR2	3	13	ANKLE	24	n/a	n/a	0	0	0
2783.32177734375	n/a	WORD	5700243	wordpools/wasnorm_wordpool_576.txt	LTP340	ltpFR2	3	13	COMPASS	358	n/a	n/a	0	0	0
2785.81982421875	n/a	WORD	5705359	wordpools/wasnorm_wordpool_576.txt	LTP340	ltpFR2	3	13	BRAKE	166	n/a	n/a	0	0	0
2788.48583984375	n/a	WORD	5710819	wordpools/wasnorm_wordpool_576.txt	LTP340	ltpFR2	3	13	FOOT	590	n/a	n/a	0	0	0
2791.15185546875	n/a	WORD	5716279	wordpools/wasnorm_wordpool_576.txt	LTP340	ltpFR2	3	13	RUST	1219	n/a	n/a	0	0	0
2793.69970703125	n/a	WORD	5721497	wordpools/wasnorm_wordpool_576.txt	LTP340	ltpFR2	3	13	LUMBER	848	n/a	n/a	0	0	0
2796.3818359375	n/a	WORD	5726990	wordpools/wasnorm_wordpool_576.txt	LTP340	ltpFR2	3	13	FIREPLACE	570	n/a	n/a	0	0	0
2798.9638671875	n/a	WORD	5732278	wordpools/wasnorm_wordpool_576.txt	LTP340	ltpFR2	3	13	CURTAIN	427	n/a	n/a	0	0	0
2801.64599609375	n/a	WORD	5737771	wordpools/wasnorm_wordpool_576.txt	LTP340	ltpFR2	3	13	OUTDOORS	987	n/a	n/a	0	0	0
2804.4111328125	n/a	WORD	5743434	wordpools/wasnorm_wordpool_576.txt	LTP340	ltpFR2	3	13	CABIN	211	n/a	n/a	0	0	0
2806.876953125	n/a	WORD	5748484	wordpools/wasnorm_wordpool_576.txt	LTP340	ltpFR2	3	13	PASTA	1021	n/a	n/a	0	0	0
2809.32470703125	n/a	WORD	5753497	wordpools/wasnorm_wordpool_576.txt	LTP340	ltpFR2	3	13	DIVER	476	n/a	n/a	0	0	0
2811.99072265625	n/a	WORD	5758957	wordpools/wasnorm_wordpool_576.txt	LTP340	ltpFR2	3	13	RAFT	1159	n/a	n/a	0	0	0
2814.623046875	n/a	WORD	5764348	wordpools/wasnorm_wordpool_576.txt	LTP340	ltpFR2	3	13	HEADBAND	696	n/a	n/a	0	0	0
2817.30517578125	n/a	WORD	5769841	wordpools/wasnorm_wordpool_576.txt	LTP340	ltpFR2	3	13	COD	340	n/a	n/a	0	0	0
2819.80322265625	n/a	WORD	5774957	wordpools/wasnorm_wordpool_576.txt	LTP340	ltpFR2	3	13	KLEENEX	782	n/a	n/a	0	0	0
2822.55224609375	n/a	WORD	5780587	wordpools/wasnorm_wordpool_576.txt	LTP340	ltpFR2	3	13	BEAST	108	n/a	n/a	0	0	0
2825.30126953125	n/a	WORD	5786217	wordpools/wasnorm_wordpool_576.txt	LTP340	ltpFR2	3	13	AIRPORT	13	n/a	n/a	0	0	0
2827.76611328125	n/a	WORD	5791265	wordpools/wasnorm_wordpool_576.txt	LTP340	ltpFR2	3	13	HARP	689	n/a	n/a	0	0	0
2830.23193359375	n/a	WORD	5796315	wordpools/wasnorm_wordpool_576.txt	LTP340	ltpFR2	3	13	GAZELLE	628	n/a	n/a	0	0	0
2832.89697265625	n/a	WORD	5801773	wordpools/wasnorm_wordpool_576.txt	LTP340	ltpFR2	3	13	FRANCE	601	n/a	n/a	0	0	0
2835.64599609375	n/a	WORD	5807403	wordpools/wasnorm_wordpool_576.txt	LTP340	ltpFR2	3	13	COUNTRY	388	n/a	n/a	0	0	0
2838.4111328125	n/a	WORD	5813066	wordpools/wasnorm_wordpool_576.txt	LTP340	ltpFR2	3	13	PEDAL	1037	n/a	n/a	0	0	0
2840.02734375	n/a	START	5816376	n/a	LTP340	ltpFR2	3	n/a	n/a	n/a	19	n/a	n/a	n/a	n/a
2841.203125	n/a	DISTRACTOR	5818784	n/a	LTP340	ltpFR2	3	13	n/a	n/a	n/a	n/a	0	0	0
2841.208984375	n/a	PROB	5818796	n/a	LTP340	ltpFR2	3	n/a	n/a	n/a	19	16	8	5	3
2844.4912109375	n/a	PROB	5825518	n/a	LTP340	ltpFR2	3	n/a	n/a	n/a	19	20	5	7	8
2847.623046875	n/a	PROB	5831932	n/a	LTP340	ltpFR2	3	n/a	n/a	n/a	19	9	5	1	3
2849.38916015625	n/a	PROB	5835549	n/a	LTP340	ltpFR2	3	n/a	n/a	n/a	19	22	7	7	8
2852.38720703125	n/a	PROB	5841689	n/a	LTP340	ltpFR2	3	n/a	n/a	n/a	19	7	3	2	2
2854.35302734375	n/a	PROB	5845715	n/a	LTP340	ltpFR2	3	n/a	n/a	n/a	19	9	4	4	1
2855.5693359375	n/a	PROB	5848206	n/a	LTP340	ltpFR2	3	n/a	n/a	n/a	19	13	4	4	5
2858.5341796875	n/a	PROB	5854278	n/a	LTP340	ltpFR2	3	n/a	n/a	n/a	19	11	8	2	1
2859.900390625	n/a	PROB	5857076	n/a	LTP340	ltpFR2	3	n/a	n/a	n/a	19	11	3	7	1
2861.2333984375	n/a	PROB	5859806	n/a	LTP340	ltpFR2	3	n/a	n/a	n/a	19	11	3	5	3
2862.896484375	n/a	STOP	5863212	n/a	LTP340	ltpFR2	3	n/a	n/a	n/a	19	n/a	n/a	n/a	n/a
2865.94921875	n/a	REC_START	5869464	n/a	LTP340	ltpFR2	3	13	n/a	n/a	n/a	n/a	0	0	0
2867.533203125	n/a	REC_WORD	5872708	wordpools/wasnorm_wordpool_576.txt	LTP340	ltpFR2	3	13	ANKLE	24	n/a	n/a	0	0	0
2868.05322265625	n/a	REC_WORD	5873773	wordpools/wasnorm_wordpool_576.txt	LTP340	ltpFR2	3	13	STICKER	1382	n/a	n/a	0	0	0
2869.08837890625	n/a	REC_WORD	5875893	wordpools/wasnorm_wordpool_576.txt	LTP340	ltpFR2	3	13	BRAKE	166	n/a	n/a	0	0	0
2869.79931640625	n/a	REC_WORD	5877349	wordpools/wasnorm_wordpool_576.txt	LTP340	ltpFR2	3	13	PEDAL	1037	n/a	n/a	0	0	0
2888.42431640625	n/a	REC_WORD	5915493	wordpools/wasnorm_wordpool_576.txt	LTP340	ltpFR2	3	13	GAZELLE	628	n/a	n/a	0	0	0
2956.40283203125	n/a	DISTRACTOR	6054713	n/a	LTP340	ltpFR2	3	14	n/a	n/a	n/a	n/a	0	0	0
2956.40380859375	n/a	START	6054715	n/a	LTP340	ltpFR2	3	n/a	n/a	n/a	20	n/a	n/a	n/a	n/a
2956.419921875	n/a	PROB	6054748	n/a	LTP340	ltpFR2	3	n/a	n/a	n/a	20	12	7	1	4
2958.251953125	n/a	PROB	6058500	n/a	LTP340	ltpFR2	3	n/a	n/a	n/a	20	13	4	7	2
2959.5517578125	n/a	PROB	6061162	n/a	LTP340	ltpFR2	3	n/a	n/a	n/a	20	10	5	4	1
2960.98388671875	n/a	PROB	6064095	n/a	LTP340	ltpFR2	3	n/a	n/a	n/a	20	17	9	4	4
2962.716796875	n/a	PROB	6067644	n/a	LTP340	ltpFR2	3	n/a	n/a	n/a	20	17	9	2	6
2965.46484375	n/a	PROB	6073272	n/a	LTP340	ltpFR2	3	n/a	n/a	n/a	20	13	5	3	5
2968.4638671875	n/a	PROB	6079414	n/a	LTP340	ltpFR2	3	n/a	n/a	n/a	20	14	5	3	6
2971.02880859375	n/a	PROB	6084667	n/a	LTP340	ltpFR2	3	n/a	n/a	n/a	20	13	3	2	8
2973.794921875	n/a	PROB	6090332	n/a	LTP340	ltpFR2	3	n/a	n/a	n/a	20	16	8	5	3
2975.66015625	n/a	PROB	6094152	n/a	LTP340	ltpFR2	3	n/a	n/a	n/a	20	12	7	1	4
2977.708984375	n/a	PROB	6098348	n/a	LTP340	ltpFR2	3	n/a	n/a	n/a	20	17	8	2	7
2979.59326171875	n/a	STOP	6102207	n/a	LTP340	ltpFR2	3	n/a	n/a	n/a	20	n/a	n/a	n/a	n/a
2981.44091796875	n/a	WORD	6105991	wordpools/wasnorm_wordpool_576.txt	LTP340	ltpFR2	3	14	ORCHID	982	n/a	n/a	0	0	0
2984.10595703125	n/a	WORD	6111449	wordpools/wasnorm_wordpool_576.txt	LTP340	ltpFR2	3	14	LAVA	804	n/a	n/a	0	0	0
2986.55517578125	n/a	WORD	6116465	wordpools/wasnorm_wordpool_576.txt	LTP340	ltpFR2	3	14	SLIME	1327	n/a	n/a	0	0	0
2989.3203125	n/a	WORD	6122128	wordpools/wasnorm_wordpool_576.txt	LTP340	ltpFR2	3	14	CONTRACT	368	n/a	n/a	0	0	0
2992.01904296875	n/a	WORD	6127655	wordpools/wasnorm_wordpool_576.txt	LTP340	ltpFR2	3	14	FLASHLIGHT	575	n/a	n/a	0	0	0
2994.71826171875	n/a	WORD	6133183	wordpools/wasnorm_wordpool_576.txt	LTP340	ltpFR2	3	14	ARMY	39	n/a	n/a	0	0	0
2997.43310546875	n/a	WORD	6138743	wordpools/wasnorm_wordpool_576.txt	LTP340	ltpFR2	3	14	NECKLACE	940	n/a	n/a	0	0	0
3000.23095703125	n/a	WORD	6144473	wordpools/wasnorm_wordpool_576.txt	LTP340	ltpFR2	3	14	MAPLE	866	n/a	n/a	0	0	0
3002.79736328125	n/a	WORD	6149729	wordpools/wasnorm_wordpool_576.txt	LTP340	ltpFR2	3	14	LEADER	807	n/a	n/a	0	0	0
3005.34619140625	n/a	WORD	6154949	wordpools/wasnorm_wordpool_576.txt	LTP340	ltpFR2	3	14	CRATER	400	n/a	n/a	0	0	0
3007.97802734375	n/a	WORD	6160339	wordpools/wasnorm_wordpool_576.txt	LTP340	ltpFR2	3	14	DIME	466	n/a	n/a	0	0	0
3010.54345703125	n/a	WORD	6165593	wordpools/wasnorm_wordpool_576.txt	LTP340	ltpFR2	3	14	LADY	794	n/a	n/a	0	0	0
3013.3583984375	n/a	WORD	6171358	wordpools/wasnorm_wordpool_576.txt	LTP340	ltpFR2	3	14	MILDEW	893	n/a	n/a	0	0	0
3016.17431640625	n/a	WORD	6177125	wordpools/wasnorm_wordpool_576.txt	LTP340	ltpFR2	3	14	QUARTER	1148	n/a	n/a	0	0	0
3018.65625	n/a	WORD	6182208	wordpools/wasnorm_wordpool_576.txt	LTP340	ltpFR2	3	14	PERMIT	1051	n/a	n/a	0	0	0
3021.23828125	n/a	WORD	6187496	wordpools/wasnorm_wordpool_576.txt	LTP340	ltpFR2	3	14	PUPIL	1143	n/a	n/a	0	0	0
3023.986328125	n/a	WORD	6193124	wordpools/wasnorm_wordpool_576.txt	LTP340	ltpFR2	3	14	EYELASH	546	n/a	n/a	0	0	0
3026.58544921875	n/a	WORD	6198447	wordpools/wasnorm_wordpool_576.txt	LTP340	ltpFR2	3	14	DAUGHTER	442	n/a	n/a	0	0	0
3029.2841796875	n/a	WORD	6203974	wordpools/wasnorm_wordpool_576.txt	LTP340	ltpFR2	3	14	CHIPMUNK	304	n/a	n/a	0	0	0
3031.8994140625	n/a	WORD	6209330	wordpools/wasnorm_wordpool_576.txt	LTP340	ltpFR2	3	14	POSSUM	1112	n/a	n/a	0	0	0
3034.365234375	n/a	WORD	6214380	wordpools/wasnorm_wordpool_576.txt	LTP340	ltpFR2	3	14	LASER	801	n/a	n/a	0	0	0
3036.91357421875	n/a	WORD	6219599	wordpools/wasnorm_wordpool_576.txt	LTP340	ltpFR2	3	14	NOMAD	955	n/a	n/a	0	0	0
3039.6123046875	n/a	WORD	6225126	wordpools/wasnorm_wordpool_576.txt	LTP340	ltpFR2	3	14	TRIBE	1505	n/a	n/a	0	0	0
3042.37744140625	n/a	WORD	6230789	wordpools/wasnorm_wordpool_576.txt	LTP340	ltpFR2	3	14	OUTFIT	988	n/a	n/a	0	0	0
3043.99365234375	n/a	START	6234099	n/a	LTP340	ltpFR2	3	n/a	n/a	n/a	21	n/a	n/a	n/a	n/a
3044.82421875	n/a	DISTRACTOR	6235800	n/a	LTP340	ltpFR2	3	14	n/a	n/a	n/a	n/a	0	0	0
3044.82666015625	n/a	PROB	6235805	n/a	LTP340	ltpFR2	3	n/a	n/a	n/a	21	10	2	6	2
3046.82568359375	n/a	PROB	6239899	n/a	LTP340	ltpFR2	3	n/a	n/a	n/a	21	18	5	7	6
3048.95751953125	n/a	PROB	6244265	n/a	LTP340	ltpFR2	3	n/a	n/a	n/a	21	16	6	2	8
3051.15625	n/a	PROB	6248768	n/a	LTP340	ltpFR2	3	n/a	n/a	n/a	21	14	5	4	5
3053.45556640625	n/a	PROB	6253477	n/a	LTP340	ltpFR2	3	n/a	n/a	n/a	21	14	5	2	7
3055.0712890625	n/a	PROB	6256786	n/a	LTP340	ltpFR2	3	n/a	n/a	n/a	21	20	8	5	7
3057.3037109375	n/a	PROB	6261358	n/a	LTP340	ltpFR2	3	n/a	n/a	n/a	21	7	1	3	3
3059.01953125	n/a	PROB	6264872	n/a	LTP340	ltpFR2	3	n/a	n/a	n/a	21	17	3	7	7
3060.935546875	n/a	PROB	6268796	n/a	LTP340	ltpFR2	3	n/a	n/a	n/a	21	11	2	3	6
3062.984375	n/a	PROB	6272992	n/a	LTP340	ltpFR2	3	n/a	n/a	n/a	21	12	3	3	7
3067.99267578125	n/a	STOP	6283249	n/a	LTP340	ltpFR2	3	n/a	n/a	n/a	21	n/a	n/a	n/a	n/a
3069.91455078125	n/a	REC_START	6287185	n/a	LTP340	ltpFR2	3	14	n/a	n/a	n/a	n/a	0	0	0
3072.78271484375	n/a	REC_WORD	6293059	wordpools/wasnorm_wordpool_576.txt	LTP340	ltpFR2	3	14	TRIBE	1505	n/a	n/a	0	0	0
3160.35302734375	n/a	DISTRACTOR	6472403	n/a	LTP340	ltpFR2	3	15	n/a	n/a	n/a	n/a	0	0	0
3160.35302734375	n/a	START	6472403	n/a	LTP340	ltpFR2	3	n/a	n/a	n/a	22	n/a	n/a	n/a	n/a
3160.3701171875	n/a	PROB	6472438	n/a	LTP340	ltpFR2	3	n/a	n/a	n/a	22	18	9	7	2
3162.369140625	n/a	PROB	6476532	n/a	LTP340	ltpFR2	3	n/a	n/a	n/a	22	15	5	9	1
3163.93505859375	n/a	PROB	6479739	n/a	LTP340	ltpFR2	3	n/a	n/a	n/a	22	15	6	8	1
3165.3671875	n/a	PROB	6482672	n/a	LTP340	ltpFR2	3	n/a	n/a	n/a	22	18	3	9	6
3167.033203125	n/a	PROB	6486084	n/a	LTP340	ltpFR2	3	n/a	n/a	n/a	22	18	8	2	8
3168.482421875	n/a	PROB	6489052	n/a	LTP340	ltpFR2	3	n/a	n/a	n/a	22	14	2	5	7
3171.51416015625	n/a	PROB	6495261	n/a	LTP340	ltpFR2	3	n/a	n/a	n/a	22	17	4	8	5
3173.2802734375	n/a	PROB	6498878	n/a	LTP340	ltpFR2	3	n/a	n/a	n/a	22	13	7	3	3
3174.8125	n/a	PROB	6502016	n/a	LTP340	ltpFR2	3	n/a	n/a	n/a	22	11	6	3	2
3176.328125	n/a	PROB	6505120	n/a	LTP340	ltpFR2	3	n/a	n/a	n/a	22	15	1	2	2
3177.76123046875	n/a	PROB	6508055	n/a	LTP340	ltpFR2	3	n/a	n/a	n/a	22	12	8	1	3
3179.6103515625	n/a	PROB	6511842	n/a	LTP340	ltpFR2	3	n/a	n/a	n/a	22	21	5	9	7
3181.84228515625	n/a	PROB	6516413	n/a	LTP340	ltpFR2	3	n/a	n/a	n/a	22	17	6	2	9
3183.63427734375	n/a	STOP	6520083	n/a	LTP340	ltpFR2	3	n/a	n/a	n/a	22	n/a	n/a	n/a	n/a
3185.4404296875	n/a	WORD	6523782	wordpools/wasnorm_wordpool_576.txt	LTP340	ltpFR2	3	15	SILK	1307	n/a	n/a	0	0	0
3188.0234375	n/a	WORD	6529072	wordpools/wasnorm_wordpool_576.txt	LTP340	ltpFR2	3	15	PASSAGE	1019	n/a	n/a	0	0	0
3190.50537109375	n/a	WORD	6534155	wordpools/wasnorm_wordpool_576.txt	LTP340	ltpFR2	3	15	LABEL	790	n/a	n/a	0	0	0
3193.13720703125	n/a	WORD	6539545	wordpools/wasnorm_wordpool_576.txt	LTP340	ltpFR2	3	15	SUNSET	1408	n/a	n/a	0	0	0
3195.91943359375	n/a	WORD	6545243	wordpools/wasnorm_wordpool_576.txt	LTP340	ltpFR2	3	15	HELMET	702	n/a	n/a	0	0	0
3198.4013671875	n/a	WORD	6550326	wordpools/wasnorm_wordpool_576.txt	LTP340	ltpFR2	3	15	BURGLAR	200	n/a	n/a	0	0	0
3201.0166015625	n/a	WORD	6555682	wordpools/wasnorm_wordpool_576.txt	LTP340	ltpFR2	3	15	SUSPECT	1415	n/a	n/a	0	0	0
3203.66552734375	n/a	WORD	6561107	wordpools/wasnorm_wordpool_576.txt	LTP340	ltpFR2	3	15	FIREMAN	569	n/a	n/a	0	0	0
3206.34765625	n/a	WORD	6566600	wordpools/wasnorm_wordpool_576.txt	LTP340	ltpFR2	3	15	FLAG	573	n/a	n/a	0	0	0
3209.0625	n/a	WORD	6572160	wordpools/wasnorm_wordpool_576.txt	LTP340	ltpFR2	3	15	CLOTHES	327	n/a	n/a	0	0	0
3211.54443359375	n/a	WORD	6577243	wordpools/wasnorm_wordpool_576.txt	LTP340	ltpFR2	3	15	SHOULDER	1294	n/a	n/a	0	0	0
3214.310546875	n/a	WORD	6582908	wordpools/wasnorm_wordpool_576.txt	LTP340	ltpFR2	3	15	TOASTER	1472	n/a	n/a	0	0	0
3216.95849609375	n/a	WORD	6588331	wordpools/wasnorm_wordpool_576.txt	LTP340	ltpFR2	3	15	DRUG	501	n/a	n/a	0	0	0
3219.7744140625	n/a	WORD	6594098	wordpools/wasnorm_wordpool_576.txt	LTP340	ltpFR2	3	15	HERO	706	n/a	n/a	0	0	0
3222.58935546875	n/a	WORD	6599863	wordpools/wasnorm_wordpool_576.txt	LTP340	ltpFR2	3	15	ASIA	46	n/a	n/a	0	0	0
3225.07177734375	n/a	WORD	6604947	wordpools/wasnorm_wordpool_576.txt	LTP340	ltpFR2	3	15	MISTER	901	n/a	n/a	0	0	0
3227.73681640625	n/a	WORD	6610405	wordpools/wasnorm_wordpool_576.txt	LTP340	ltpFR2	3	15	ISLAND	745	n/a	n/a	0	0	0
3230.2685546875	n/a	WORD	6615590	wordpools/wasnorm_wordpool_576.txt	LTP340	ltpFR2	3	15	BIKE	125	n/a	n/a	0	0	0
3233.06787109375	n/a	WORD	6621323	wordpools/wasnorm_wordpool_576.txt	LTP340	ltpFR2	3	15	LACE	792	n/a	n/a	0	0	0
3235.58251953125	n/a	WORD	6626473	wordpools/wasnorm_wordpool_576.txt	LTP340	ltpFR2	3	15	LONDON	843	n/a	n/a	0	0	0
3238.2314453125	n/a	WORD	6631898	wordpools/wasnorm_wordpool_576.txt	LTP340	ltpFR2	3	15	EUROPE	541	n/a	n/a	0	0	0
3240.94677734375	n/a	WORD	6637459	wordpools/wasnorm_wordpool_576.txt	LTP340	ltpFR2	3	15	PEPPER	1047	n/a	n/a	0	0	0
3243.4287109375	n/a	WORD	6642542	wordpools/wasnorm_wordpool_576.txt	LTP340	ltpFR2	3	15	HIGHWAY	707	n/a	n/a	0	0	0
3245.927734375	n/a	WORD	6647660	wordpools/wasnorm_wordpool_576.txt	LTP340	ltpFR2	3	15	SERVANT	1271	n/a	n/a	0	0	0
3247.5439453125	n/a	START	6650970	n/a	LTP340	ltpFR2	3	n/a	n/a	n/a	23	n/a	n/a	n/a	n/a
3248.61474609375	n/a	DISTRACTOR	6653163	n/a	LTP340	ltpFR2	3	15	n/a	n/a	n/a	n/a	0	0	0
3248.626953125	n/a	PROB	6653188	n/a	LTP340	ltpFR2	3	n/a	n/a	n/a	23	10	4	5	1
3250.55859375	n/a	PROB	6657144	n/a	LTP340	ltpFR2	3	n/a	n/a	n/a	23	9	1	3	5
3252.1416015625	n/a	PROB	6660386	n/a	LTP340	ltpFR2	3	n/a	n/a	n/a	23	11	6	2	3
3254.02392578125	n/a	PROB	6664241	n/a	LTP340	ltpFR2	3	n/a	n/a	n/a	23	17	3	9	5
3255.90576171875	n/a	PROB	6668095	n/a	LTP340	ltpFR2	3	n/a	n/a	n/a	23	14	6	3	5
3257.53857421875	n/a	PROB	6671439	n/a	LTP340	ltpFR2	3	n/a	n/a	n/a	23	15	3	4	8
3259.15576171875	n/a	PROB	6674751	n/a	LTP340	ltpFR2	3	n/a	n/a	n/a	23	13	4	1	7
3260.60400390625	n/a	PROB	6677717	n/a	LTP340	ltpFR2	3	n/a	n/a	n/a	23	6	4	1	1
3262.06982421875	n/a	PROB	6680719	n/a	LTP340	ltpFR2	3	n/a	n/a	n/a	23	20	3	9	8
3263.78564453125	n/a	PROB	6684233	n/a	LTP340	ltpFR2	3	n/a	n/a	n/a	23	24	9	7	6
3265.68505859375	n/a	PROB	6688123	n/a	LTP340	ltpFR2	3	n/a	n/a	n/a	23	12	8	3	1
3267.35107421875	n/a	PROB	6691535	n/a	LTP340	ltpFR2	3	n/a	n/a	n/a	23	20	9	3	8
3269.10009765625	n/a	PROB	6695117	n/a	LTP340	ltpFR2	3	n/a	n/a	n/a	23	20	9	2	9
3271.28271484375	n/a	STOP	6699587	n/a	LTP340	ltpFR2	3	n/a	n/a	n/a	23	n/a	n/a	n/a	n/a
3273.3818359375	n/a	REC_START	6703886	n/a	LTP340	ltpFR2	3	15	n/a	n/a	n/a	n/a	0	0	0
3276.32470703125	n/a	REC_WORD	6709913	wordpools/wasnorm_wordpool_576.txt	LTP340	ltpFR2	3	15	ISLAND	745	n/a	n/a	0	0	0
3278.2578125	n/a	REC_WORD	6713872	wordpools/wasnorm_wordpool_576.txt	LTP340	ltpFR2	3	15	MISTER	901	n/a	n/a	0	0	0
3294.81005859375	n/a	REC_WORD	6747771	wordpools/wasnorm_wordpool_576.txt	LTP340	ltpFR2	3	15	ORCHID	982	n/a	n/a	0	0	0
3363.8203125	n/a	DISTRACTOR	6889104	n/a	LTP340	ltpFR2	3	16	n/a	n/a	n/a	n/a	0	0	0
3363.8203125	n/a	START	6889104	n/a	LTP340	ltpFR2	3	n/a	n/a	n/a	24	n/a	n/a	n/a	n/a
3363.83642578125	n/a	PROB	6889137	n/a	LTP340	ltpFR2	3	n/a	n/a	n/a	24	19	5	9	5
3366.01953125	n/a	PROB	6893608	n/a	LTP340	ltpFR2	3	n/a	n/a	n/a	24	15	8	2	5
3367.25146484375	n/a	PROB	6896131	n/a	LTP340	ltpFR2	3	n/a	n/a	n/a	24	16	3	6	7
3370.50048828125	n/a	PROB	6902785	n/a	LTP340	ltpFR2	3	n/a	n/a	n/a	24	13	8	2	3
3371.79931640625	n/a	PROB	6905445	n/a	LTP340	ltpFR2	3	n/a	n/a	n/a	24	12	1	7	4
3374.5146484375	n/a	PROB	6911006	n/a	LTP340	ltpFR2	3	n/a	n/a	n/a	24	14	7	6	1
3377.29638671875	n/a	PROB	6916703	n/a	LTP340	ltpFR2	3	n/a	n/a	n/a	24	9	2	3	4
3378.66259765625	n/a	PROB	6919501	n/a	LTP340	ltpFR2	3	n/a	n/a	n/a	24	13	6	6	1
3380.32861328125	n/a	PROB	6922913	n/a	LTP340	ltpFR2	3	n/a	n/a	n/a	24	22	8	5	9
3384.4765625	n/a	PROB	6931408	n/a	LTP340	ltpFR2	3	n/a	n/a	n/a	24	16	3	6	7
3386.7314453125	n/a	STOP	6936026	n/a	LTP340	ltpFR2	3	n/a	n/a	n/a	24	n/a	n/a	n/a	n/a
3389.0244140625	n/a	WORD	6940722	wordpools/wasnorm_wordpool_576.txt	LTP340	ltpFR2	3	16	CABBAGE	210	n/a	n/a	0	0	0
3391.72265625	n/a	WORD	6946248	wordpools/wasnorm_wordpool_576.txt	LTP340	ltpFR2	3	16	ACTOR	5	n/a	n/a	0	0	0
3394.421875	n/a	WORD	6951776	wordpools/wasnorm_wordpool_576.txt	LTP340	ltpFR2	3	16	BRANCH	168	n/a	n/a	0	0	0
3397.1865234375	n/a	WORD	6957438	wordpools/wasnorm_wordpool_576.txt	LTP340	ltpFR2	3	16	NAPKIN	937	n/a	n/a	0	0	0
3399.90283203125	n/a	WORD	6963001	wordpools/wasnorm_wordpool_576.txt	LTP340	ltpFR2	3	16	SCALPEL	1243	n/a	n/a	0	0	0
3402.5009765625	n/a	WORD	6968322	wordpools/wasnorm_wordpool_576.txt	LTP340	ltpFR2	3	16	GARLIC	624	n/a	n/a	0	0	0
3405.0498046875	n/a	WORD	6973542	wordpools/wasnorm_wordpool_576.txt	LTP340	ltpFR2	3	16	GIRL	637	n/a	n/a	0	0	0
3407.73193359375	n/a	WORD	6979035	wordpools/wasnorm_wordpool_576.txt	LTP340	ltpFR2	3	16	TABLET	1427	n/a	n/a	0	0	0
3410.4306640625	n/a	WORD	6984562	wordpools/wasnorm_wordpool_576.txt	LTP340	ltpFR2	3	16	NOTEBOOK	959	n/a	n/a	0	0	0
3412.97998046875	n/a	WORD	6989783	wordpools/wasnorm_wordpool_576.txt	LTP340	ltpFR2	3	16	FLOWER	584	n/a	n/a	0	0	0
3415.64501953125	n/a	WORD	6995241	wordpools/wasnorm_wordpool_576.txt	LTP340	ltpFR2	3	16	SODA	1341	n/a	n/a	0	0	0
3418.27685546875	n/a	WORD	7000631	wordpools/wasnorm_wordpool_576.txt	LTP340	ltpFR2	3	16	PIZZA	1079	n/a	n/a	0	0	0
3421.0087890625	n/a	WORD	7006226	wordpools/wasnorm_wordpool_576.txt	LTP340	ltpFR2	3	16	TWIG	1527	n/a	n/a	0	0	0
3423.82373046875	n/a	WORD	7011991	wordpools/wasnorm_wordpool_576.txt	LTP340	ltpFR2	3	16	MUMMY	932	n/a	n/a	0	0	0
3426.255859375	n/a	WORD	7016972	wordpools/wasnorm_wordpool_576.txt	LTP340	ltpFR2	3	16	HORNET	718	n/a	n/a	0	0	0
3428.7216796875	n/a	WORD	7022022	wordpools/wasnorm_wordpool_576.txt	LTP340	ltpFR2	3	16	FINGER	567	n/a	n/a	0	0	0
3431.52001953125	n/a	WORD	7027753	wordpools/wasnorm_wordpool_576.txt	LTP340	ltpFR2	3	16	RAZOR	1171	n/a	n/a	0	0	0
3434.21875	n/a	WORD	7033280	wordpools/wasnorm_wordpool_576.txt	LTP340	ltpFR2	3	16	BLOCKADE	137	n/a	n/a	0	0	0
3436.93408203125	n/a	WORD	7038841	wordpools/wasnorm_wordpool_576.txt	LTP340	ltpFR2	3	16	TEMPLE	1448	n/a	n/a	0	0	0
3439.64990234375	n/a	WORD	7044403	wordpools/wasnorm_wordpool_576.txt	LTP340	ltpFR2	3	16	PATROL	1027	n/a	n/a	0	0	0
3442.1318359375	n/a	WORD	7049486	wordpools/wasnorm_wordpool_576.txt	LTP340	ltpFR2	3	16	POLICE	1098	n/a	n/a	0	0	0
3444.830078125	n/a	WORD	7055012	wordpools/wasnorm_wordpool_576.txt	LTP340	ltpFR2	3	16	RELISH	1183	n/a	n/a	0	0	0
3447.5458984375	n/a	WORD	7060574	wordpools/wasnorm_wordpool_576.txt	LTP340	ltpFR2	3	16	CIGAR	308	n/a	n/a	0	0	0
3449.994140625	n/a	WORD	7065588	wordpools/wasnorm_wordpool_576.txt	LTP340	ltpFR2	3	16	PLATE	1086	n/a	n/a	0	0	0
3451.61083984375	n/a	START	7068899	n/a	LTP340	ltpFR2	3	n/a	n/a	n/a	25	n/a	n/a	n/a	n/a
3452.59619140625	n/a	DISTRACTOR	7070917	n/a	LTP340	ltpFR2	3	16	n/a	n/a	n/a	n/a	0	0	0
3452.60986328125	n/a	PROB	7070945	n/a	LTP340	ltpFR2	3	n/a	n/a	n/a	25	25	9	9	7
3455.35791015625	n/a	PROB	7076573	n/a	LTP340	ltpFR2	3	n/a	n/a	n/a	25	20	5	7	8
3457.82421875	n/a	PROB	7081624	n/a	LTP340	ltpFR2	3	n/a	n/a	n/a	25	11	1	8	2
3459.35595703125	n/a	PROB	7084761	n/a	LTP340	ltpFR2	3	n/a	n/a	n/a	25	11	4	2	5
3461.072265625	n/a	PROB	7088276	n/a	LTP340	ltpFR2	3	n/a	n/a	n/a	25	13	9	2	2
3462.5048828125	n/a	PROB	7091210	n/a	LTP340	ltpFR2	3	n/a	n/a	n/a	25	18	7	2	9
3464.1708984375	n/a	PROB	7094622	n/a	LTP340	ltpFR2	3	n/a	n/a	n/a	25	10	5	1	4
3466.30322265625	n/a	PROB	7098989	n/a	LTP340	ltpFR2	3	n/a	n/a	n/a	25	5	2	1	2
3467.9521484375	n/a	PROB	7102366	n/a	LTP340	ltpFR2	3	n/a	n/a	n/a	25	14	8	1	5
3469.701171875	n/a	PROB	7105948	n/a	LTP340	ltpFR2	3	n/a	n/a	n/a	25	8	6	1	1
3471.583984375	n/a	PROB	7109804	n/a	LTP340	ltpFR2	3	n/a	n/a	n/a	25	17	3	6	8
3473.46630859375	n/a	PROB	7113659	n/a	LTP340	ltpFR2	3	n/a	n/a	n/a	25	14	1	8	5
3475.1962890625	n/a	STOP	7117202	n/a	LTP340	ltpFR2	3	n/a	n/a	n/a	25	n/a	n/a	n/a	n/a
3477.4150390625	n/a	REC_START	7121746	n/a	LTP340	ltpFR2	3	16	n/a	n/a	n/a	n/a	0	0	0
3478.05810546875	n/a	REC_WORD	7123063	wordpools/wasnorm_wordpool_576.txt	LTP340	ltpFR2	3	16	RELISH	1183	n/a	n/a	0	0	0
3478.76416015625	n/a	REC_WORD	7124509	wordpools/wasnorm_wordpool_576.txt	LTP340	ltpFR2	3	16	CIGAR	308	n/a	n/a	0	0	0
3479.732421875	n/a	REC_WORD	7126492	wordpools/wasnorm_wordpool_576.txt	LTP340	ltpFR2	3	16	PLATE	1086	n/a	n/a	0	0	0
3481.41748046875	n/a	REC_WORD	7129943	wordpools/wasnorm_wordpool_576.txt	LTP340	ltpFR2	3	16	GIRL	637	n/a	n/a	0	0	0
3490.0380859375	n/a	REC_WORD	7147598	wordpools/wasnorm_wordpool_576.txt	LTP340	ltpFR2	3	16	RAZOR	1171	n/a	n/a	0	0	0
3551.94482421875	n/a	REC_WORD	7274383	wordpools/wasnorm_wordpool_576.txt	LTP340	ltpFR2	3	16	PATROL	1027	n/a	n/a	0	0	0
3553.9609375	n/a	REST_REWET	7278512	n/a	LTP340	ltpFR2	3	16	n/a	n/a	n/a	n/a	0	0	0
3739.96875	n/a	WORD	7659456	wordpools/wasnorm_wordpool_576.txt	LTP340	ltpFR2	3	17	VICTIM	1562	n/a	n/a	0	0	0
3742.41796875	n/a	WORD	7664472	wordpools/wasnorm_wordpool_576.txt	LTP340	ltpFR2	3	17	BOX	159	n/a	n/a	0	0	0
3745.0	n/a	WORD	7669760	wordpools/wasnorm_wordpool_576.txt	LTP340	ltpFR2	3	17	TRANSPLANT	1496	n/a	n/a	0	0	0
3747.64892578125	n/a	WORD	7675185	wordpools/wasnorm_wordpool_576.txt	LTP340	ltpFR2	3	17	RECORD	1176	n/a	n/a	0	0	0
3750.19677734375	n/a	WORD	7680403	wordpools/wasnorm_wordpool_576.txt	LTP340	ltpFR2	3	17	DOLPHIN	483	n/a	n/a	0	0	0
3752.72900390625	n/a	WORD	7685589	wordpools/wasnorm_wordpool_576.txt	LTP340	ltpFR2	3	17	HIKER	708	n/a	n/a	0	0	0
3755.2451171875	n/a	WORD	7690742	wordpools/wasnorm_wordpool_576.txt	LTP340	ltpFR2	3	17	CLIMBER	323	n/a	n/a	0	0	0
3757.91015625	n/a	WORD	7696200	wordpools/wasnorm_wordpool_576.txt	LTP340	ltpFR2	3	17	PAIL	1002	n/a	n/a	0	0	0
3760.5419921875	n/a	WORD	7701590	wordpools/wasnorm_wordpool_576.txt	LTP340	ltpFR2	3	17	EAGLE	512	n/a	n/a	0	0	0
3763.2080078125	n/a	WORD	7707050	wordpools/wasnorm_wordpool_576.txt	LTP340	ltpFR2	3	17	ANTLER	29	n/a	n/a	0	0	0
3765.8232421875	n/a	WORD	7712406	wordpools/wasnorm_wordpool_576.txt	LTP340	ltpFR2	3	17	PROTON	1132	n/a	n/a	0	0	0
3768.455078125	n/a	WORD	7717796	wordpools/wasnorm_wordpool_576.txt	LTP340	ltpFR2	3	17	CHEMIST	292	n/a	n/a	0	0	0
3770.9873046875	n/a	WORD	7722982	wordpools/wasnorm_wordpool_576.txt	LTP340	ltpFR2	3	17	AIRPLANE	12	n/a	n/a	0	0	0
3773.5693359375	n/a	WORD	7728270	wordpools/wasnorm_wordpool_576.txt	LTP340	ltpFR2	3	17	GUITAR	670	n/a	n/a	0	0	0
3776.16796875	n/a	WORD	7733592	wordpools/wasnorm_wordpool_576.txt	LTP340	ltpFR2	3	17	ATOM	55	n/a	n/a	0	0	0
3778.75	n/a	WORD	7738880	wordpools/wasnorm_wordpool_576.txt	LTP340	ltpFR2	3	17	LIZARD	834	n/a	n/a	0	0	0
3781.18212890625	n/a	WORD	7743861	wordpools/wasnorm_wordpool_576.txt	LTP340	ltpFR2	3	17	TYPIST	1532	n/a	n/a	0	0	0
3783.9970703125	n/a	WORD	7749626	wordpools/wasnorm_wordpool_576.txt	LTP340	ltpFR2	3	17	WORKER	1621	n/a	n/a	0	0	0
3786.529296875	n/a	WORD	7754812	wordpools/wasnorm_wordpool_576.txt	LTP340	ltpFR2	3	17	COFFEE	341	n/a	n/a	0	0	0
3788.97802734375	n/a	WORD	7759827	wordpools/wasnorm_wordpool_576.txt	LTP340	ltpFR2	3	17	STREAM	1392	n/a	n/a	0	0	0
3791.76025390625	n/a	WORD	7765525	wordpools/wasnorm_wordpool_576.txt	LTP340	ltpFR2	3	17	FRECKLE	602	n/a	n/a	0	0	0
3794.42529296875	n/a	WORD	7770983	wordpools/wasnorm_wordpool_576.txt	LTP340	ltpFR2	3	17	LAKE	796	n/a	n/a	0	0	0
3797.07421875	n/a	WORD	7776408	wordpools/wasnorm_wordpool_576.txt	LTP340	ltpFR2	3	17	CASKET	255	n/a	n/a	0	0	0
3799.689453125	n/a	WORD	7781764	wordpools/wasnorm_wordpool_576.txt	LTP340	ltpFR2	3	17	BELLY	119	n/a	n/a	0	0	0
3801.30615234375	n/a	START	7785075	n/a	LTP340	ltpFR2	3	n/a	n/a	n/a	26	n/a	n/a	n/a	n/a
3802.271484375	n/a	DISTRACTOR	7787052	n/a	LTP340	ltpFR2	3	17	n/a	n/a	n/a	n/a	0	0	0
3802.2880859375	n/a	PROB	7787086	n/a	LTP340	ltpFR2	3	n/a	n/a	n/a	26	15	6	2	7
3804.13720703125	n/a	PROB	7790873	n/a	LTP340	ltpFR2	3	n/a	n/a	n/a	26	12	3	7	2
3805.353515625	n/a	PROB	7793364	n/a	LTP340	ltpFR2	3	n/a	n/a	n/a	26	13	5	6	1
3806.6865234375	n/a	PROB	7796094	n/a	LTP340	ltpFR2	3	n/a	n/a	n/a	26	12	5	3	4
3808.88525390625	n/a	PROB	7800597	n/a	LTP340	ltpFR2	3	n/a	n/a	n/a	26	18	5	9	4
3810.6513671875	n/a	PROB	7804214	n/a	LTP340	ltpFR2	3	n/a	n/a	n/a	26	14	3	2	9
3812.46630859375	n/a	PROB	7807931	n/a	LTP340	ltpFR2	3	n/a	n/a	n/a	26	20	9	2	9
3814.5322265625	n/a	PROB	7812162	n/a	LTP340	ltpFR2	3	n/a	n/a	n/a	26	17	8	8	1
3816.21533203125	n/a	PROB	7815609	n/a	LTP340	ltpFR2	3	n/a	n/a	n/a	26	10	4	2	4
3818.38037109375	n/a	PROB	7820043	n/a	LTP340	ltpFR2	3	n/a	n/a	n/a	26	7	1	1	5
3819.82958984375	n/a	PROB	7823011	n/a	LTP340	ltpFR2	3	n/a	n/a	n/a	26	24	8	8	7
3825.306640625	n/a	STOP	7834228	n/a	LTP340	ltpFR2	3	n/a	n/a	n/a	26	n/a	n/a	n/a	n/a
3827.07666015625	n/a	REC_START	7837853	n/a	LTP340	ltpFR2	3	17	n/a	n/a	n/a	n/a	0	0	0
3827.904296875	n/a	REC_WORD	7839548	wordpools/wasnorm_wordpool_576.txt	LTP340	ltpFR2	3	17	HIKER	708	n/a	n/a	0	0	0
3828.4375	n/a	REC_WORD	7840640	wordpools/wasnorm_wordpool_576.txt	LTP340	ltpFR2	3	17	CLIMBER	323	n/a	n/a	0	0	0
3829.03857421875	n/a	REC_WORD	7841871	wordpools/wasnorm_wordpool_576.txt	LTP340	ltpFR2	3	17	PAIL	1002	n/a	n/a	0	0	0
3829.63427734375	n/a	REC_WORD	7843091	wordpools/wasnorm_wordpool_576.txt	LTP340	ltpFR2	3	17	EAGLE	512	n/a	n/a	0	0	0
3917.51513671875	n/a	DISTRACTOR	8023071	n/a	LTP340	ltpFR2	3	18	n/a	n/a	n/a	n/a	0	0	0
3917.51513671875	n/a	START	8023071	n/a	LTP340	ltpFR2	3	n/a	n/a	n/a	27	n/a	n/a	n/a	n/a
3917.5322265625	n/a	PROB	8023106	n/a	LTP340	ltpFR2	3	n/a	n/a	n/a	27	4	2	1	1
3919.26416015625	n/a	PROB	8026653	n/a	LTP340	ltpFR2	3	n/a	n/a	n/a	27	9	1	1	7
3920.546875	n/a	PROB	8029280	n/a	LTP340	ltpFR2	3	n/a	n/a	n/a	27	16	1	9	6
3922.1298828125	n/a	PROB	8032522	n/a	LTP340	ltpFR2	3	n/a	n/a	n/a	27	11	1	1	9
3924.029296875	n/a	PROB	8036412	n/a	LTP340	ltpFR2	3	n/a	n/a	n/a	27	18	8	3	7
3926.52685546875	n/a	PROB	8041527	n/a	LTP340	ltpFR2	3	n/a	n/a	n/a	27	26	9	5	8
3929.64306640625	n/a	PROB	8047909	n/a	LTP340	ltpFR2	3	n/a	n/a	n/a	27	18	6	5	7
3932.72412109375	n/a	PROB	8054219	n/a	LTP340	ltpFR2	3	n/a	n/a	n/a	27	15	6	5	4
3934.50732421875	n/a	PROB	8057871	n/a	LTP340	ltpFR2	3	n/a	n/a	n/a	27	20	2	9	9
3936.8720703125	n/a	PROB	8062714	n/a	LTP340	ltpFR2	3	n/a	n/a	n/a	27	18	1	9	8
3938.60498046875	n/a	PROB	8066263	n/a	LTP340	ltpFR2	3	n/a	n/a	n/a	27	14	2	3	9
3940.5830078125	n/a	STOP	8070314	n/a	LTP340	ltpFR2	3	n/a	n/a	n/a	27	n/a	n/a	n/a	n/a
3942.46923828125	n/a	WORD	8074177	wordpools/wasnorm_wordpool_576.txt	LTP340	ltpFR2	3	18	COCKTAIL	338	n/a	n/a	0	0	0
3945.13525390625	n/a	WORD	8079637	wordpools/wasnorm_wordpool_576.txt	LTP340	ltpFR2	3	18	PADDLE	1000	n/a	n/a	0	0	0
3947.68408203125	n/a	WORD	8084857	wordpools/wasnorm_wordpool_576.txt	LTP340	ltpFR2	3	18	MARINE	869	n/a	n/a	0	0	0
3950.1494140625	n/a	WORD	8089906	wordpools/wasnorm_wordpool_576.txt	LTP340	ltpFR2	3	18	MUFFIN	929	n/a	n/a	0	0	0
3952.84814453125	n/a	WORD	8095433	wordpools/wasnorm_wordpool_576.txt	LTP340	ltpFR2	3	18	WHISTLE	1606	n/a	n/a	0	0	0
3955.48046875	n/a	WORD	8100824	wordpools/wasnorm_wordpool_576.txt	LTP340	ltpFR2	3	18	DRINK	498	n/a	n/a	0	0	0
3958.078125	n/a	WORD	8106144	wordpools/wasnorm_wordpool_576.txt	LTP340	ltpFR2	3	18	GRILL	661	n/a	n/a	0	0	0
3960.744140625	n/a	WORD	8111604	wordpools/wasnorm_wordpool_576.txt	LTP340	ltpFR2	3	18	PARENT	1013	n/a	n/a	0	0	0
3963.30908203125	n/a	WORD	8116857	wordpools/wasnorm_wordpool_576.txt	LTP340	ltpFR2	3	18	YOLK	1633	n/a	n/a	0	0	0
3966.04150390625	n/a	WORD	8122453	wordpools/wasnorm_wordpool_576.txt	LTP340	ltpFR2	3	18	BUTCHER	203	n/a	n/a	0	0	0
3968.79052734375	n/a	WORD	8128083	wordpools/wasnorm_wordpool_576.txt	LTP340	ltpFR2	3	18	MEAT	883	n/a	n/a	0	0	0
3971.30517578125	n/a	WORD	8133233	wordpools/wasnorm_wordpool_576.txt	LTP340	ltpFR2	3	18	TRENCH	1503	n/a	n/a	0	0	0
3974.12060546875	n/a	WORD	8138999	wordpools/wasnorm_wordpool_576.txt	LTP340	ltpFR2	3	18	OFFICE	972	n/a	n/a	0	0	0
3976.55322265625	n/a	WORD	8143981	wordpools/wasnorm_wordpool_576.txt	LTP340	ltpFR2	3	18	DINER	467	n/a	n/a	0	0	0
3979.05126953125	n/a	WORD	8149097	wordpools/wasnorm_wordpool_576.txt	LTP340	ltpFR2	3	18	ATLAS	53	n/a	n/a	0	0	0
3981.83349609375	n/a	WORD	8154795	wordpools/wasnorm_wordpool_576.txt	LTP340	ltpFR2	3	18	TROMBONE	1508	n/a	n/a	0	0	0
3984.5654296875	n/a	WORD	8160390	wordpools/wasnorm_wordpool_576.txt	LTP340	ltpFR2	3	18	CLAMP	316	n/a	n/a	0	0	0
3987.21435546875	n/a	WORD	8165815	wordpools/wasnorm_wordpool_576.txt	LTP340	ltpFR2	3	18	TABLE	1426	n/a	n/a	0	0	0
3989.9462890625	n/a	WORD	8171410	wordpools/wasnorm_wordpool_576.txt	LTP340	ltpFR2	3	18	SPONGE	1355	n/a	n/a	0	0	0
3992.595703125	n/a	WORD	8176836	wordpools/wasnorm_wordpool_576.txt	LTP340	ltpFR2	3	18	OMELET	976	n/a	n/a	0	0	0
3995.41064453125	n/a	WORD	8182601	wordpools/wasnorm_wordpool_576.txt	LTP340	ltpFR2	3	18	POET	1095	n/a	n/a	0	0	0
3998.07568359375	n/a	WORD	8188059	wordpools/wasnorm_wordpool_576.txt	LTP340	ltpFR2	3	18	PAPER	1011	n/a	n/a	0	0	0
4000.841796875	n/a	WORD	8193724	wordpools/wasnorm_wordpool_576.txt	LTP340	ltpFR2	3	18	JUDGE	761	n/a	n/a	0	0	0
4003.28955078125	n/a	WORD	8198737	wordpools/wasnorm_wordpool_576.txt	LTP340	ltpFR2	3	18	BEEF	113	n/a	n/a	0	0	0
4004.90673828125	n/a	START	8202049	n/a	LTP340	ltpFR2	3	n/a	n/a	n/a	28	n/a	n/a	n/a	n/a
4005.767578125	n/a	DISTRACTOR	8203812	n/a	LTP340	ltpFR2	3	18	n/a	n/a	n/a	n/a	0	0	0
4005.771484375	n/a	PROB	8203820	n/a	LTP340	ltpFR2	3	n/a	n/a	n/a	28	17	2	7	8
4009.4365234375	n/a	PROB	8211326	n/a	LTP340	ltpFR2	3	n/a	n/a	n/a	28	13	2	9	1
4011.16943359375	n/a	PROB	8214875	n/a	LTP340	ltpFR2	3	n/a	n/a	n/a	28	5	1	2	2
4012.8515625	n/a	PROB	8218320	n/a	LTP340	ltpFR2	3	n/a	n/a	n/a	28	24	9	7	6
4015.95068359375	n/a	PROB	8224667	n/a	LTP340	ltpFR2	3	n/a	n/a	n/a	28	10	5	2	3
4017.765625	n/a	PROB	8228384	n/a	LTP340	ltpFR2	3	n/a	n/a	n/a	28	13	3	2	8
4019.798828125	n/a	PROB	8232548	n/a	LTP340	ltpFR2	3	n/a	n/a	n/a	28	14	3	8	3
4021.630859375	n/a	PROB	8236300	n/a	LTP340	ltpFR2	3	n/a	n/a	n/a	28	17	3	8	6
4023.77978515625	n/a	PROB	8240701	n/a	LTP340	ltpFR2	3	n/a	n/a	n/a	28	11	1	6	4
4025.37890625	n/a	PROB	8243976	n/a	LTP340	ltpFR2	3	n/a	n/a	n/a	28	15	7	1	7
4028.90673828125	n/a	STOP	8251201	n/a	LTP340	ltpFR2	3	n/a	n/a	n/a	28	n/a	n/a	n/a	n/a
4030.7939453125	n/a	REC_START	8255066	n/a	LTP340	ltpFR2	3	18	n/a	n/a	n/a	n/a	0	0	0
4033.49658203125	n/a	REC_WORD	8260601	wordpools/wasnorm_wordpool_576.txt	LTP340	ltpFR2	3	18	BASE	-1	n/a	n/a	0	0	0
4121.232421875	n/a	DISTRACTOR	8440284	n/a	LTP340	ltpFR2	3	19	n/a	n/a	n/a	n/a	0	0	0
4121.232421875	n/a	START	8440284	n/a	LTP340	ltpFR2	3	n/a	n/a	n/a	29	n/a	n/a	n/a	n/a
4121.24853515625	n/a	PROB	8440317	n/a	LTP340	ltpFR2	3	n/a	n/a	n/a	29	18	8	9	1
4123.24853515625	n/a	PROB	8444413	n/a	LTP340	ltpFR2	3	n/a	n/a	n/a	29	23	9	9	5
4125.21337890625	n/a	PROB	8448437	n/a	LTP340	ltpFR2	3	n/a	n/a	n/a	29	15	9	1	5
4126.49658203125	n/a	PROB	8451065	n/a	LTP340	ltpFR2	3	n/a	n/a	n/a	29	14	2	4	8
4128.6611328125	n/a	PROB	8455498	n/a	LTP340	ltpFR2	3	n/a	n/a	n/a	29	14	8	2	4
4130.12744140625	n/a	PROB	8458501	n/a	LTP340	ltpFR2	3	n/a	n/a	n/a	29	15	5	4	6
4131.7275390625	n/a	PROB	8461778	n/a	LTP340	ltpFR2	3	n/a	n/a	n/a	29	16	7	7	2
4133.12646484375	n/a	PROB	8464643	n/a	LTP340	ltpFR2	3	n/a	n/a	n/a	29	13	2	9	2
4134.62548828125	n/a	PROB	8467713	n/a	LTP340	ltpFR2	3	n/a	n/a	n/a	29	18	9	5	4
4136.84130859375	n/a	PROB	8472251	n/a	LTP340	ltpFR2	3	n/a	n/a	n/a	29	11	6	2	3
4138.9404296875	n/a	PROB	8476550	n/a	LTP340	ltpFR2	3	n/a	n/a	n/a	29	14	3	5	6
4141.4384765625	n/a	PROB	8481666	n/a	LTP340	ltpFR2	3	n/a	n/a	n/a	29	14	4	6	4
4143.1044921875	n/a	PROB	8485078	n/a	LTP340	ltpFR2	3	n/a	n/a	n/a	29	14	1	7	6
4144.63232421875	n/a	STOP	8488207	n/a	LTP340	ltpFR2	3	n/a	n/a	n/a	29	n/a	n/a	n/a	n/a
4146.353515625	n/a	WORD	8491732	wordpools/wasnorm_wordpool_576.txt	LTP340	ltpFR2	3	19	PALACE	1006	n/a	n/a	0	0	0
4149.1015625	n/a	WORD	8497360	wordpools/wasnorm_wordpool_576.txt	LTP340	ltpFR2	3	19	CEILING	265	n/a	n/a	0	0	0
4151.75048828125	n/a	WORD	8502785	wordpools/wasnorm_wordpool_576.txt	LTP340	ltpFR2	3	19	ZEBRA	1635	n/a	n/a	0	0	0
4154.3994140625	n/a	WORD	8508210	wordpools/wasnorm_wordpool_576.txt	LTP340	ltpFR2	3	19	LAGOON	795	n/a	n/a	0	0	0
4157.0146484375	n/a	WORD	8513566	wordpools/wasnorm_wordpool_576.txt	LTP340	ltpFR2	3	19	GARBAGE	622	n/a	n/a	0	0	0
4159.54638671875	n/a	WORD	8518751	wordpools/wasnorm_wordpool_576.txt	LTP340	ltpFR2	3	19	CATTLE	261	n/a	n/a	0	0	0
4162.19580078125	n/a	WORD	8524177	wordpools/wasnorm_wordpool_576.txt	LTP340	ltpFR2	3	19	BRIEFCASE	175	n/a	n/a	0	0	0
4164.79345703125	n/a	WORD	8529497	wordpools/wasnorm_wordpool_576.txt	LTP340	ltpFR2	3	19	PRINCE	1124	n/a	n/a	0	0	0
4167.57568359375	n/a	WORD	8535195	wordpools/wasnorm_wordpool_576.txt	LTP340	ltpFR2	3	19	MUSTARD	935	n/a	n/a	0	0	0
4170.1748046875	n/a	WORD	8540518	wordpools/wasnorm_wordpool_576.txt	LTP340	ltpFR2	3	19	BANK	83	n/a	n/a	0	0	0
4172.78955078125	n/a	WORD	8545873	wordpools/wasnorm_wordpool_576.txt	LTP340	ltpFR2	3	19	MONEY	908	n/a	n/a	0	0	0
4175.37255859375	n/a	WORD	8551163	wordpools/wasnorm_wordpool_576.txt	LTP340	ltpFR2	3	19	PUDDING	1139	n/a	n/a	0	0	0
4178.087890625	n/a	WORD	8556724	wordpools/wasnorm_wordpool_576.txt	LTP340	ltpFR2	3	19	PORK	1108	n/a	n/a	0	0	0
4180.63671875	n/a	WORD	8561944	wordpools/wasnorm_wordpool_576.txt	LTP340	ltpFR2	3	19	TURKEY	1520	n/a	n/a	0	0	0
4183.3515625	n/a	WORD	8567504	wordpools/wasnorm_wordpool_576.txt	LTP340	ltpFR2	3	19	BABY	64	n/a	n/a	0	0	0
4185.90087890625	n/a	WORD	8572725	wordpools/wasnorm_wordpool_576.txt	LTP340	ltpFR2	3	19	CHILD	299	n/a	n/a	0	0	0
4188.6328125	n/a	WORD	8578320	wordpools/wasnorm_wordpool_576.txt	LTP340	ltpFR2	3	19	BALLOON	75	n/a	n/a	0	0	0
4191.380859375	n/a	WORD	8583948	wordpools/wasnorm_wordpool_576.txt	LTP340	ltpFR2	3	19	BUBBLE	183	n/a	n/a	0	0	0
4194.0126953125	n/a	WORD	8589338	wordpools/wasnorm_wordpool_576.txt	LTP340	ltpFR2	3	19	CANAL	226	n/a	n/a	0	0	0
4196.76171875	n/a	WORD	8594968	wordpools/wasnorm_wordpool_576.txt	LTP340	ltpFR2	3	19	SPIDER	1351	n/a	n/a	0	0	0
4199.47705078125	n/a	WORD	8600529	wordpools/wasnorm_wordpool_576.txt	LTP340	ltpFR2	3	19	OUTLAW	989	n/a	n/a	0	0	0
4202.208984375	n/a	WORD	8606124	wordpools/wasnorm_wordpool_576.txt	LTP340	ltpFR2	3	19	HORSE	719	n/a	n/a	0	0	0
4204.82470703125	n/a	WORD	8611481	wordpools/wasnorm_wordpool_576.txt	LTP340	ltpFR2	3	19	LEOPARD	812	n/a	n/a	0	0	0
4207.306640625	n/a	WORD	8616564	wordpools/wasnorm_wordpool_576.txt	LTP340	ltpFR2	3	19	COTTAGE	384	n/a	n/a	0	0	0
4208.9228515625	n/a	START	8619874	n/a	LTP340	ltpFR2	3	n/a	n/a	n/a	30	n/a	n/a	n/a	n/a
4209.97900390625	n/a	DISTRACTOR	8622037	n/a	LTP340	ltpFR2	3	19	n/a	n/a	n/a	n/a	0	0	0
4209.98876953125	n/a	PROB	8622057	n/a	LTP340	ltpFR2	3	n/a	n/a	n/a	30	7	2	3	2
4212.3037109375	n/a	PROB	8626798	n/a	LTP340	ltpFR2	3	n/a	n/a	n/a	30	15	5	5	5
4213.4697265625	n/a	PROB	8629186	n/a	LTP340	ltpFR2	3	n/a	n/a	n/a	30	19	9	5	5
4215.51904296875	n/a	PROB	8633383	n/a	LTP340	ltpFR2	3	n/a	n/a	n/a	30	25	7	9	9
4217.80078125	n/a	PROB	8638056	n/a	LTP340	ltpFR2	3	n/a	n/a	n/a	30	8	3	4	1
4219.1669921875	n/a	PROB	8640854	n/a	LTP340	ltpFR2	3	n/a	n/a	n/a	30	17	7	3	7
4220.76708984375	n/a	PROB	8644131	n/a	LTP340	ltpFR2	3	n/a	n/a	n/a	30	7	2	3	2
4222.548828125	n/a	PROB	8647780	n/a	LTP340	ltpFR2	3	n/a	n/a	n/a	30	11	3	2	6
4224.09814453125	n/a	PROB	8650953	n/a	LTP340	ltpFR2	3	n/a	n/a	n/a	30	15	5	5	5
4225.18115234375	n/a	PROB	8653171	n/a	LTP340	ltpFR2	3	n/a	n/a	n/a	30	17	2	6	9
4227.64697265625	n/a	PROB	8658221	n/a	LTP340	ltpFR2	3	n/a	n/a	n/a	30	15	3	7	5
4228.94580078125	n/a	PROB	8660881	n/a	LTP340	ltpFR2	3	n/a	n/a	n/a	30	7	1	2	4
4230.294921875	n/a	PROB	8663644	n/a	LTP340	ltpFR2	3	n/a	n/a	n/a	30	14	3	8	3
4231.80126953125	n/a	STOP	8666729	n/a	LTP340	ltpFR2	3	n/a	n/a	n/a	30	n/a	n/a	n/a	n/a
4234.7099609375	n/a	REC_START	8672686	n/a	LTP340	ltpFR2	3	19	n/a	n/a	n/a	n/a	0	0	0
4236.97216796875	n/a	REC_WORD	8677319	wordpools/wasnorm_wordpool_576.txt	LTP340	ltpFR2	3	19	PALACE	1006	n/a	n/a	0	0	0
4238.10205078125	n/a	REC_WORD	8679633	wordpools/wasnorm_wordpool_576.txt	LTP340	ltpFR2	3	19	CEILING	265	n/a	n/a	0	0	0
4239.7109375	n/a	REC_WORD	8682928	wordpools/wasnorm_wordpool_576.txt	LTP340	ltpFR2	3	19	ZEBRA	1635	n/a	n/a	0	0	0
4241.787109375	n/a	REC_WORD	8687180	wordpools/wasnorm_wordpool_576.txt	LTP340	ltpFR2	3	19	PRINCE	1124	n/a	n/a	0	0	0
4243.236328125	n/a	REC_WORD	8690148	wordpools/wasnorm_wordpool_576.txt	LTP340	ltpFR2	3	19	BRIEFCASE	175	n/a	n/a	0	0	0
4244.2783203125	n/a	REC_WORD	8692282	wordpools/wasnorm_wordpool_576.txt	LTP340	ltpFR2	3	19	MUSTARD	935	n/a	n/a	0	0	0
4245.46728515625	n/a	REC_WORD	8694717	wordpools/wasnorm_wordpool_576.txt	LTP340	ltpFR2	3	19	BANK	83	n/a	n/a	0	0	0
4246.38818359375	n/a	REC_WORD	8696603	wordpools/wasnorm_wordpool_576.txt	LTP340	ltpFR2	3	19	MONEY	908	n/a	n/a	0	0	0
4247.5712890625	n/a	REC_WORD	8699026	wordpools/wasnorm_wordpool_576.txt	LTP340	ltpFR2	3	19	CHILD	299	n/a	n/a	0	0	0
4249.06005859375	n/a	REC_WORD	8702075	wordpools/wasnorm_wordpool_576.txt	LTP340	ltpFR2	3	19	BABY	64	n/a	n/a	0	0	0
4249.92431640625	n/a	REC_WORD	8703845	wordpools/wasnorm_wordpool_576.txt	LTP340	ltpFR2	3	19	BALLOON	75	n/a	n/a	0	0	0
4251.3759765625	n/a	REC_WORD	8706818	wordpools/wasnorm_wordpool_576.txt	LTP340	ltpFR2	3	19	BUBBLE	183	n/a	n/a	0	0	0
4254.55322265625	n/a	REC_WORD	8713325	wordpools/wasnorm_wordpool_576.txt	LTP340	ltpFR2	3	19	CANAL	226	n/a	n/a	0	0	0
4256.0732421875	n/a	REC_WORD	8716438	wordpools/wasnorm_wordpool_576.txt	LTP340	ltpFR2	3	19	OUTLAW	989	n/a	n/a	0	0	0
4256.92236328125	n/a	REC_WORD	8718177	wordpools/wasnorm_wordpool_576.txt	LTP340	ltpFR2	3	19	SPIDER	1351	n/a	n/a	0	0	0
4258.72705078125	n/a	REC_WORD	8721873	wordpools/wasnorm_wordpool_576.txt	LTP340	ltpFR2	3	19	COTTAGE	384	n/a	n/a	0	0	0
4325.16552734375	n/a	WORD	8857939	wordpools/wasnorm_wordpool_576.txt	LTP340	ltpFR2	3	20	SUPPER	1411	n/a	n/a	0	0	0
4327.74755859375	n/a	WORD	8863227	wordpools/wasnorm_wordpool_576.txt	LTP340	ltpFR2	3	20	HOSTESS	723	n/a	n/a	0	0	0
4330.41259765625	n/a	WORD	8868685	wordpools/wasnorm_wordpool_576.txt	LTP340	ltpFR2	3	20	HAWK	692	n/a	n/a	0	0	0
4332.86181640625	n/a	WORD	8873701	wordpools/wasnorm_wordpool_576.txt	LTP340	ltpFR2	3	20	PARROT	1015	n/a	n/a	0	0	0
