onset	duration	trial_type	sample	stim_file	subject	experiment	session	trial	item_name	item_num	list	answer	test_x	test_y	test_z
216.284	n/a	SESS_START	108142	n/a	LTP299	ltpFR2	6	n/a	n/a	n/a	n/a	n/a	0	0	0
229.398	n/a	START	114699	n/a	LTP299	ltpFR2	6	n/a	n/a	n/a	-1	n/a	n/a	n/a	n/a
229.43	n/a	PROB	114715	n/a	LTP299	ltpFR2	6	n/a	n/a	n/a	-1	12	3	6	3
232.2	n/a	PROB	116100	n/a	LTP299	ltpFR2	6	n/a	n/a	n/a	-1	10	1	7	2
234.168	n/a	PROB	117084	n/a	LTP299	ltpFR2	6	n/a	n/a	n/a	-1	11	2	8	1
235.502	n/a	PROB	117751	n/a	LTP299	ltpFR2	6	n/a	n/a	n/a	-1	14	4	9	1
237.188	n/a	PROB	118594	n/a	LTP299	ltpFR2	6	n/a	n/a	n/a	-1	8	3	3	2
241.398	n/a	STOP	120699	n/a	LTP299	ltpFR2	6	n/a	n/a	n/a	-1	n/a	n/a	n/a	n/a
270.43	n/a	DISTRACTOR	135215	n/a	LTP299	ltpFR2	6	1	n/a	n/a	n/a	n/a	0	0	0
270.432	n/a	START	135216	n/a	LTP299	ltpFR2	6	n/a	n/a	n/a	1	n/a	n/a	n/a	n/a
270.464	n/a	PROB	135232	n/a	LTP299	ltpFR2	6	n/a	n/a	n/a	1	14	6	5	3
272.416	n/a	PROB	136208	n/a	LTP299	ltpFR2	6	n/a	n/a	n/a	1	6	1	1	4
273.886	n/a	PROB	136943	n/a	LTP299	ltpFR2	6	n/a	n/a	n/a	1	17	1	9	7
275.652	n/a	PROB	137826	n/a	LTP299	ltpFR2	6	n/a	n/a	n/a	1	14	8	5	1
277.57	n/a	PROB	138785	n/a	LTP299	ltpFR2	6	n/a	n/a	n/a	1	12	2	8	2
279.09	n/a	PROB	139545	n/a	LTP299	ltpFR2	6	n/a	n/a	n/a	1	12	3	3	6
280.59	n/a	PROB	140295	n/a	LTP299	ltpFR2	6	n/a	n/a	n/a	1	5	2	2	1
281.608	n/a	PROB	140804	n/a	LTP299	ltpFR2	6	n/a	n/a	n/a	1	18	9	3	6
283.926	n/a	PROB	141963	n/a	LTP299	ltpFR2	6	n/a	n/a	n/a	1	21	4	9	8
286.494	n/a	PROB	143247	n/a	LTP299	ltpFR2	6	n/a	n/a	n/a	1	21	9	3	9
288.914	n/a	PROB	144457	n/a	LTP299	ltpFR2	6	n/a	n/a	n/a	1	9	6	1	2
290.714	n/a	PROB	145357	n/a	LTP299	ltpFR2	6	n/a	n/a	n/a	1	16	9	3	4
294.43	n/a	STOP	147215	n/a	LTP299	ltpFR2	6	n/a	n/a	n/a	1	n/a	n/a	n/a	n/a
295.536	n/a	WORD	147768	wordpools/wasnorm_wordpool_576.txt	LTP299	ltpFR2	6	1	DIME	466	n/a	n/a	0	0	0
298.156	n/a	WORD	149078	wordpools/wasnorm_wordpool_576.txt	LTP299	ltpFR2	6	1	SCISSORS	1250	n/a	n/a	0	0	0
300.94	n/a	WORD	150470	wordpools/wasnorm_wordpool_576.txt	LTP299	ltpFR2	6	1	MISSILE	900	n/a	n/a	0	0	0
303.642	n/a	WORD	151821	wordpools/wasnorm_wordpool_576.txt	LTP299	ltpFR2	6	1	LETTUCE	814	n/a	n/a	0	0	0
306.478	n/a	WORD	153239	wordpools/wasnorm_wordpool_576.txt	LTP299	ltpFR2	6	1	NAPKIN	937	n/a	n/a	0	0	0
309.032	n/a	WORD	154516	wordpools/wasnorm_wordpool_576.txt	LTP299	ltpFR2	6	1	LAMP	798	n/a	n/a	0	0	0
311.716	n/a	WORD	155858	wordpools/wasnorm_wordpool_576.txt	LTP299	ltpFR2	6	1	BRANDY	169	n/a	n/a	0	0	0
314.352	n/a	WORD	157176	wordpools/wasnorm_wordpool_576.txt	LTP299	ltpFR2	6	1	GIRL	637	n/a	n/a	0	0	0
316.854	n/a	WORD	158427	wordpools/wasnorm_wordpool_576.txt	LTP299	ltpFR2	6	1	PARTNER	1017	n/a	n/a	0	0	0
319.306	n/a	WORD	159653	wordpools/wasnorm_wordpool_576.txt	LTP299	ltpFR2	6	1	BANQUET	86	n/a	n/a	0	0	0
321.876	n/a	WORD	160938	wordpools/wasnorm_wordpool_576.txt	LTP299	ltpFR2	6	1	WAITER	1580	n/a	n/a	0	0	0
324.326	n/a	WORD	162163	wordpools/wasnorm_wordpool_576.txt	LTP299	ltpFR2	6	1	PERCH	1048	n/a	n/a	0	0	0
327.048	n/a	WORD	163524	wordpools/wasnorm_wordpool_576.txt	LTP299	ltpFR2	6	1	ROBIN	1199	n/a	n/a	0	0	0
329.598	n/a	WORD	164799	wordpools/wasnorm_wordpool_576.txt	LTP299	ltpFR2	6	1	PEDAL	1037	n/a	n/a	0	0	0
332.3	n/a	WORD	166150	wordpools/wasnorm_wordpool_576.txt	LTP299	ltpFR2	6	1	TRANSPLANT	1496	n/a	n/a	0	0	0
335.052	n/a	WORD	167526	wordpools/wasnorm_wordpool_576.txt	LTP299	ltpFR2	6	1	CAPTIVE	240	n/a	n/a	0	0	0
337.788	n/a	WORD	168894	wordpools/wasnorm_wordpool_576.txt	LTP299	ltpFR2	6	1	STREAM	1392	n/a	n/a	0	0	0
340.34	n/a	WORD	170170	wordpools/wasnorm_wordpool_576.txt	LTP299	ltpFR2	6	1	COCKTAIL	338	n/a	n/a	0	0	0
343.144	n/a	WORD	171572	wordpools/wasnorm_wordpool_576.txt	LTP299	ltpFR2	6	1	LUMBER	848	n/a	n/a	0	0	0
345.762	n/a	WORD	172881	wordpools/wasnorm_wordpool_576.txt	LTP299	ltpFR2	6	1	BULLET	194	n/a	n/a	0	0	0
348.414	n/a	WORD	174207	wordpools/wasnorm_wordpool_576.txt	LTP299	ltpFR2	6	1	INMATE	738	n/a	n/a	0	0	0
350.934	n/a	WORD	175467	wordpools/wasnorm_wordpool_576.txt	LTP299	ltpFR2	6	1	TOASTER	1472	n/a	n/a	0	0	0
353.584	n/a	WORD	176792	wordpools/wasnorm_wordpool_576.txt	LTP299	ltpFR2	6	1	MARSH	874	n/a	n/a	0	0	0
356.072	n/a	WORD	178036	wordpools/wasnorm_wordpool_576.txt	LTP299	ltpFR2	6	1	VICTIM	1562	n/a	n/a	0	0	0
357.688	n/a	START	178844	n/a	LTP299	ltpFR2	6	n/a	n/a	n/a	2	n/a	n/a	n/a	n/a
358.676	n/a	DISTRACTOR	179338	n/a	LTP299	ltpFR2	6	1	n/a	n/a	n/a	n/a	0	0	0
358.69	n/a	PROB	179345	n/a	LTP299	ltpFR2	6	n/a	n/a	n/a	2	12	4	2	6
360.758	n/a	PROB	180379	n/a	LTP299	ltpFR2	6	n/a	n/a	n/a	2	17	6	5	6
363.862	n/a	PROB	181931	n/a	LTP299	ltpFR2	6	n/a	n/a	n/a	2	11	5	2	4
366.712	n/a	PROB	183356	n/a	LTP299	ltpFR2	6	n/a	n/a	n/a	2	8	1	6	1
367.966	n/a	PROB	183983	n/a	LTP299	ltpFR2	6	n/a	n/a	n/a	2	22	5	8	9
371.768	n/a	PROB	185884	n/a	LTP299	ltpFR2	6	n/a	n/a	n/a	2	14	5	3	6
375.72	n/a	PROB	187860	n/a	LTP299	ltpFR2	6	n/a	n/a	n/a	2	18	2	9	7
377.338	n/a	PROB	188669	n/a	LTP299	ltpFR2	6	n/a	n/a	n/a	2	10	1	2	7
378.94	n/a	PROB	189470	n/a	LTP299	ltpFR2	6	n/a	n/a	n/a	2	13	4	4	5
381.084	n/a	STOP	190542	n/a	LTP299	ltpFR2	6	n/a	n/a	n/a	2	n/a	n/a	n/a	n/a
383.594	n/a	REC_START	191797	n/a	LTP299	ltpFR2	6	1	n/a	n/a	n/a	n/a	0	0	0
386.202	n/a	REC_WORD	193101	wordpools/wasnorm_wordpool_576.txt	LTP299	ltpFR2	6	1	TOASTER	1472	n/a	n/a	0	0	0
387.762	n/a	REC_WORD	193881	wordpools/wasnorm_wordpool_576.txt	LTP299	ltpFR2	6	1	MARSH	874	n/a	n/a	0	0	0
392.688	n/a	REC_WORD	196344	wordpools/wasnorm_wordpool_576.txt	LTP299	ltpFR2	6	1	TRANSPLANT	1496	n/a	n/a	0	0	0
394.152	n/a	REC_WORD	197076	wordpools/wasnorm_wordpool_576.txt	LTP299	ltpFR2	6	1	STREAM	1392	n/a	n/a	0	0	0
397.138	n/a	REC_WORD	198569	wordpools/wasnorm_wordpool_576.txt	LTP299	ltpFR2	6	1	GIRL	637	n/a	n/a	0	0	0
398.584	n/a	REC_WORD	199292	wordpools/wasnorm_wordpool_576.txt	LTP299	ltpFR2	6	1	NAPKIN	937	n/a	n/a	0	0	0
400.026	n/a	REC_WORD	200013	wordpools/wasnorm_wordpool_576.txt	LTP299	ltpFR2	6	1	BRANDY	169	n/a	n/a	0	0	0
401.304	n/a	REC_WORD	200652	wordpools/wasnorm_wordpool_576.txt	LTP299	ltpFR2	6	1	PERCH	1048	n/a	n/a	0	0	0
402.474	n/a	REC_WORD	201237	wordpools/wasnorm_wordpool_576.txt	LTP299	ltpFR2	6	1	ROBIN	1199	n/a	n/a	0	0	0
410.41	n/a	REC_WORD	205205	wordpools/wasnorm_wordpool_576.txt	LTP299	ltpFR2	6	1	WAITER	1580	n/a	n/a	0	0	0
415.488	n/a	REC_WORD	207744	wordpools/wasnorm_wordpool_576.txt	LTP299	ltpFR2	6	1	BANQUET	86	n/a	n/a	0	0	0
425.046	n/a	REC_WORD	212523	wordpools/wasnorm_wordpool_576.txt	LTP299	ltpFR2	6	1	LETTUCE	814	n/a	n/a	0	0	0
429.692	n/a	REC_WORD	214846	wordpools/wasnorm_wordpool_576.txt	LTP299	ltpFR2	6	1	SCISSORS	1250	n/a	n/a	0	0	0
438.01	n/a	REC_WORD	219005	wordpools/wasnorm_wordpool_576.txt	LTP299	ltpFR2	6	1	DIME	466	n/a	n/a	0	0	0
456.338	n/a	REC_WORD	228169	wordpools/wasnorm_wordpool_576.txt	LTP299	ltpFR2	6	1	MISSILE	900	n/a	n/a	0	0	0
474.22	n/a	DISTRACTOR	237110	n/a	LTP299	ltpFR2	6	2	n/a	n/a	n/a	n/a	0	0	0
474.22	n/a	START	237110	n/a	LTP299	ltpFR2	6	n/a	n/a	n/a	3	n/a	n/a	n/a	n/a
474.254	n/a	PROB	237127	n/a	LTP299	ltpFR2	6	n/a	n/a	n/a	3	17	5	9	3
478.192	n/a	PROB	239096	n/a	LTP299	ltpFR2	6	n/a	n/a	n/a	3	22	7	6	9
480.844	n/a	PROB	240422	n/a	LTP299	ltpFR2	6	n/a	n/a	n/a	3	17	3	5	9
485.214	n/a	PROB	242607	n/a	LTP299	ltpFR2	6	n/a	n/a	n/a	3	9	2	4	3
487.582	n/a	PROB	243791	n/a	LTP299	ltpFR2	6	n/a	n/a	n/a	3	16	8	2	6
489.168	n/a	PROB	244584	n/a	LTP299	ltpFR2	6	n/a	n/a	n/a	3	15	7	4	4
492.654	n/a	PROB	246327	n/a	LTP299	ltpFR2	6	n/a	n/a	n/a	3	20	8	7	5
494.604	n/a	PROB	247302	n/a	LTP299	ltpFR2	6	n/a	n/a	n/a	3	12	2	2	8
498.22	n/a	STOP	249110	n/a	LTP299	ltpFR2	6	n/a	n/a	n/a	3	n/a	n/a	n/a	n/a
499.11	n/a	WORD	249555	wordpools/wasnorm_wordpool_576.txt	LTP299	ltpFR2	6	2	CROWN	415	n/a	n/a	0	0	0
501.912	n/a	WORD	250956	wordpools/wasnorm_wordpool_576.txt	LTP299	ltpFR2	6	2	PALACE	1006	n/a	n/a	0	0	0
504.53	n/a	WORD	252265	wordpools/wasnorm_wordpool_576.txt	LTP299	ltpFR2	6	2	LIZARD	834	n/a	n/a	0	0	0
506.966	n/a	WORD	253483	wordpools/wasnorm_wordpool_576.txt	LTP299	ltpFR2	6	2	DUSTPAN	509	n/a	n/a	0	0	0
509.684	n/a	WORD	254842	wordpools/wasnorm_wordpool_576.txt	LTP299	ltpFR2	6	2	JEANS	752	n/a	n/a	0	0	0
512.204	n/a	WORD	256102	wordpools/wasnorm_wordpool_576.txt	LTP299	ltpFR2	6	2	MISTER	901	n/a	n/a	0	0	0
514.672	n/a	WORD	257336	wordpools/wasnorm_wordpool_576.txt	LTP299	ltpFR2	6	2	BINDER	127	n/a	n/a	0	0	0
517.474	n/a	WORD	258737	wordpools/wasnorm_wordpool_576.txt	LTP299	ltpFR2	6	2	BRIEFCASE	175	n/a	n/a	0	0	0
519.926	n/a	WORD	259963	wordpools/wasnorm_wordpool_576.txt	LTP299	ltpFR2	6	2	SHORTS	1293	n/a	n/a	0	0	0
522.562	n/a	WORD	261281	wordpools/wasnorm_wordpool_576.txt	LTP299	ltpFR2	6	2	SMOG	1330	n/a	n/a	0	0	0
525.114	n/a	WORD	262557	wordpools/wasnorm_wordpool_576.txt	LTP299	ltpFR2	6	2	MARKER	870	n/a	n/a	0	0	0
527.884	n/a	WORD	263942	wordpools/wasnorm_wordpool_576.txt	LTP299	ltpFR2	6	2	PIGEON	1065	n/a	n/a	0	0	0
530.602	n/a	WORD	265301	wordpools/wasnorm_wordpool_576.txt	LTP299	ltpFR2	6	2	SHOVEL	1295	n/a	n/a	0	0	0
533.122	n/a	WORD	266561	wordpools/wasnorm_wordpool_576.txt	LTP299	ltpFR2	6	2	EAGLE	512	n/a	n/a	0	0	0
535.924	n/a	WORD	267962	wordpools/wasnorm_wordpool_576.txt	LTP299	ltpFR2	6	2	DENIM	446	n/a	n/a	0	0	0
538.476	n/a	WORD	269238	wordpools/wasnorm_wordpool_576.txt	LTP299	ltpFR2	6	2	PLAID	1080	n/a	n/a	0	0	0
540.978	n/a	WORD	270489	wordpools/wasnorm_wordpool_576.txt	LTP299	ltpFR2	6	2	CLOUD	328	n/a	n/a	0	0	0
543.446	n/a	WORD	271723	wordpools/wasnorm_wordpool_576.txt	LTP299	ltpFR2	6	2	DRESSER	496	n/a	n/a	0	0	0
546.282	n/a	WORD	273141	wordpools/wasnorm_wordpool_576.txt	LTP299	ltpFR2	6	2	STUDENT	1395	n/a	n/a	0	0	0
548.986	n/a	WORD	274493	wordpools/wasnorm_wordpool_576.txt	LTP299	ltpFR2	6	2	HOOK	715	n/a	n/a	0	0	0
551.77	n/a	WORD	275885	wordpools/wasnorm_wordpool_576.txt	LTP299	ltpFR2	6	2	SWITCH	1422	n/a	n/a	0	0	0
554.29	n/a	WORD	277145	wordpools/wasnorm_wordpool_576.txt	LTP299	ltpFR2	6	2	TURKEY	1520	n/a	n/a	0	0	0
556.756	n/a	WORD	278378	wordpools/wasnorm_wordpool_576.txt	LTP299	ltpFR2	6	2	BLOUSE	139	n/a	n/a	0	0	0
559.36	n/a	WORD	279680	wordpools/wasnorm_wordpool_576.txt	LTP299	ltpFR2	6	2	ZIPPER	1636	n/a	n/a	0	0	0
560.962	n/a	START	280481	n/a	LTP299	ltpFR2	6	n/a	n/a	n/a	4	n/a	n/a	n/a	n/a
561.948	n/a	DISTRACTOR	280974	n/a	LTP299	ltpFR2	6	2	n/a	n/a	n/a	n/a	0	0	0
561.962	n/a	PROB	280981	n/a	LTP299	ltpFR2	6	n/a	n/a	n/a	4	17	8	7	2
566.082	n/a	PROB	283041	n/a	LTP299	ltpFR2	6	n/a	n/a	n/a	4	22	8	9	5
570.07	n/a	PROB	285035	n/a	LTP299	ltpFR2	6	n/a	n/a	n/a	4	13	3	6	4
573.438	n/a	PROB	286719	n/a	LTP299	ltpFR2	6	n/a	n/a	n/a	4	9	3	3	3
574.556	n/a	PROB	287278	n/a	LTP299	ltpFR2	6	n/a	n/a	n/a	4	18	9	7	2
576.624	n/a	PROB	288312	n/a	LTP299	ltpFR2	6	n/a	n/a	n/a	4	14	3	5	6
578.408	n/a	PROB	289204	n/a	LTP299	ltpFR2	6	n/a	n/a	n/a	4	17	6	2	9
580.744	n/a	PROB	290372	n/a	LTP299	ltpFR2	6	n/a	n/a	n/a	4	22	9	6	7
584.962	n/a	STOP	292481	n/a	LTP299	ltpFR2	6	n/a	n/a	n/a	4	n/a	n/a	n/a	n/a
586.902	n/a	REC_START	293451	n/a	LTP299	ltpFR2	6	2	n/a	n/a	n/a	n/a	0	0	0
590.118	n/a	REC_WORD	295059	wordpools/wasnorm_wordpool_576.txt	LTP299	ltpFR2	6	2	BLOUSE	139	n/a	n/a	0	0	0
591.546	n/a	REC_WORD	295773	wordpools/wasnorm_wordpool_576.txt	LTP299	ltpFR2	6	2	ZIPPER	1636	n/a	n/a	0	0	0
595.922	n/a	REC_WORD	297961	wordpools/wasnorm_wordpool_576.txt	LTP299	ltpFR2	6	2	CROWN	415	n/a	n/a	0	0	0
597.156	n/a	REC_WORD	298578	wordpools/wasnorm_wordpool_576.txt	LTP299	ltpFR2	6	2	PALACE	1006	n/a	n/a	0	0	0
598.312	n/a	REC_WORD	299156	wordpools/wasnorm_wordpool_576.txt	LTP299	ltpFR2	6	2	LIZARD	834	n/a	n/a	0	0	0
606.07	n/a	REC_WORD	303035	wordpools/wasnorm_wordpool_576.txt	LTP299	ltpFR2	6	2	PIGEON	1065	n/a	n/a	0	0	0
607.66	n/a	REC_WORD	303830	wordpools/wasnorm_wordpool_576.txt	LTP299	ltpFR2	6	2	EAGLE	512	n/a	n/a	0	0	0
609.028	n/a	REC_WORD	304514	wordpools/wasnorm_wordpool_576.txt	LTP299	ltpFR2	6	2	TURKEY	1520	n/a	n/a	0	0	0
610.896	n/a	REC_WORD	305448	wordpools/wasnorm_wordpool_576.txt	LTP299	ltpFR2	6	2	STUDENT	1395	n/a	n/a	0	0	0
612.404	n/a	REC_WORD	306202	wordpools/wasnorm_wordpool_576.txt	LTP299	ltpFR2	6	2	CLOUD	328	n/a	n/a	0	0	0
613.808	n/a	REC_WORD	306904	wordpools/wasnorm_wordpool_576.txt	LTP299	ltpFR2	6	2	DRESSER	496	n/a	n/a	0	0	0
661.224	n/a	REC_WORD	330612	wordpools/wasnorm_wordpool_576.txt	LTP299	ltpFR2	6	2	BRIEFCASE	175	n/a	n/a	0	0	0
677.338	n/a	WORD	338669	wordpools/wasnorm_wordpool_576.txt	LTP299	ltpFR2	6	3	ONION	977	n/a	n/a	0	0	0
679.942	n/a	WORD	339971	wordpools/wasnorm_wordpool_576.txt	LTP299	ltpFR2	6	3	CLOTHES	327	n/a	n/a	0	0	0
682.524	n/a	WORD	341262	wordpools/wasnorm_wordpool_576.txt	LTP299	ltpFR2	6	3	BRACES	164	n/a	n/a	0	0	0
685.004	n/a	WORD	342502	wordpools/wasnorm_wordpool_576.txt	LTP299	ltpFR2	6	3	CHILD	299	n/a	n/a	0	0	0
687.454	n/a	WORD	343727	wordpools/wasnorm_wordpool_576.txt	LTP299	ltpFR2	6	3	SHORTCAKE	1292	n/a	n/a	0	0	0
690.23	n/a	WORD	345115	wordpools/wasnorm_wordpool_576.txt	LTP299	ltpFR2	6	3	DONOR	485	n/a	n/a	0	0	0
692.868	n/a	WORD	346434	wordpools/wasnorm_wordpool_576.txt	LTP299	ltpFR2	6	3	SPIDER	1351	n/a	n/a	0	0	0
695.562	n/a	WORD	347781	wordpools/wasnorm_wordpool_576.txt	LTP299	ltpFR2	6	3	SHERIFF	1284	n/a	n/a	0	0	0
697.998	n/a	WORD	348999	wordpools/wasnorm_wordpool_576.txt	LTP299	ltpFR2	6	3	BUREAU	199	n/a	n/a	0	0	0
700.788	n/a	WORD	350394	wordpools/wasnorm_wordpool_576.txt	LTP299	ltpFR2	6	3	PEACH	1031	n/a	n/a	0	0	0
703.518	n/a	WORD	351759	wordpools/wasnorm_wordpool_576.txt	LTP299	ltpFR2	6	3	SOFTBALL	1343	n/a	n/a	0	0	0
706.094	n/a	WORD	353047	wordpools/wasnorm_wordpool_576.txt	LTP299	ltpFR2	6	3	GAZELLE	628	n/a	n/a	0	0	0
708.612	n/a	WORD	354306	wordpools/wasnorm_wordpool_576.txt	LTP299	ltpFR2	6	3	LAPEL	800	n/a	n/a	0	0	0
711.408	n/a	WORD	355704	wordpools/wasnorm_wordpool_576.txt	LTP299	ltpFR2	6	3	LOFT	840	n/a	n/a	0	0	0
713.966	n/a	WORD	356983	wordpools/wasnorm_wordpool_576.txt	LTP299	ltpFR2	6	3	DORM	488	n/a	n/a	0	0	0
716.678	n/a	WORD	358339	wordpools/wasnorm_wordpool_576.txt	LTP299	ltpFR2	6	3	DRILL	497	n/a	n/a	0	0	0
719.382	n/a	WORD	359691	wordpools/wasnorm_wordpool_576.txt	LTP299	ltpFR2	6	3	CREATURE	403	n/a	n/a	0	0	0
722.136	n/a	WORD	361068	wordpools/wasnorm_wordpool_576.txt	LTP299	ltpFR2	6	3	BABY	64	n/a	n/a	0	0	0
724.938	n/a	WORD	362469	wordpools/wasnorm_wordpool_576.txt	LTP299	ltpFR2	6	3	TUBA	1515	n/a	n/a	0	0	0
727.722	n/a	WORD	363861	wordpools/wasnorm_wordpool_576.txt	LTP299	ltpFR2	6	3	FIDDLE	561	n/a	n/a	0	0	0
730.224	n/a	WORD	365112	wordpools/wasnorm_wordpool_576.txt	LTP299	ltpFR2	6	3	SLIME	1327	n/a	n/a	0	0	0
732.962	n/a	WORD	366481	wordpools/wasnorm_wordpool_576.txt	LTP299	ltpFR2	6	3	CITRUS	313	n/a	n/a	0	0	0
735.528	n/a	WORD	367764	wordpools/wasnorm_wordpool_576.txt	LTP299	ltpFR2	6	3	SPACE	1345	n/a	n/a	0	0	0
738.186	n/a	WORD	369093	wordpools/wasnorm_wordpool_576.txt	LTP299	ltpFR2	6	3	KNIFE	785	n/a	n/a	0	0	0
739.8	n/a	START	369900	n/a	LTP299	ltpFR2	6	n/a	n/a	n/a	5	n/a	n/a	n/a	n/a
740.882	n/a	DISTRACTOR	370441	n/a	LTP299	ltpFR2	6	3	n/a	n/a	n/a	n/a	0	0	0
740.888	n/a	PROB	370444	n/a	LTP299	ltpFR2	6	n/a	n/a	n/a	5	9	1	7	1
742.332	n/a	PROB	371166	n/a	LTP299	ltpFR2	6	n/a	n/a	n/a	5	25	7	9	9
745.058	n/a	PROB	372529	n/a	LTP299	ltpFR2	6	n/a	n/a	n/a	5	26	8	9	9
748.876	n/a	PROB	374438	n/a	LTP299	ltpFR2	6	n/a	n/a	n/a	5	18	8	9	1
751.308	n/a	PROB	375654	n/a	LTP299	ltpFR2	6	n/a	n/a	n/a	5	14	2	6	6
753.844	n/a	PROB	376922	n/a	LTP299	ltpFR2	6	n/a	n/a	n/a	5	20	9	9	2
756.546	n/a	PROB	378273	n/a	LTP299	ltpFR2	6	n/a	n/a	n/a	5	14	8	2	4
758.082	n/a	PROB	379041	n/a	LTP299	ltpFR2	6	n/a	n/a	n/a	5	9	2	4	3
759.934	n/a	PROB	379967	n/a	LTP299	ltpFR2	6	n/a	n/a	n/a	5	20	8	4	8
763.8	n/a	STOP	381900	n/a	LTP299	ltpFR2	6	n/a	n/a	n/a	5	n/a	n/a	n/a	n/a
765.672	n/a	REC_START	382836	n/a	LTP299	ltpFR2	6	3	n/a	n/a	n/a	n/a	0	0	0
769.808	n/a	REC_WORD	384904	wordpools/wasnorm_wordpool_576.txt	LTP299	ltpFR2	6	3	GAZELLE	628	n/a	n/a	0	0	0
771.31	n/a	REC_WORD	385655	wordpools/wasnorm_wordpool_576.txt	LTP299	ltpFR2	6	3	BABY	64	n/a	n/a	0	0	0
772.816	n/a	REC_WORD	386408	wordpools/wasnorm_wordpool_576.txt	LTP299	ltpFR2	6	3	TUBA	1515	n/a	n/a	0	0	0
775.932	n/a	REC_WORD	387966	wordpools/wasnorm_wordpool_576.txt	LTP299	ltpFR2	6	3	SLIME	1327	n/a	n/a	0	0	0
777.414	n/a	REC_WORD	388707	wordpools/wasnorm_wordpool_576.txt	LTP299	ltpFR2	6	3	LOFT	840	n/a	n/a	0	0	0
798.394	n/a	REC_WORD	399197	wordpools/wasnorm_wordpool_576.txt	LTP299	ltpFR2	6	3	CHILD	299	n/a	n/a	0	0	0
800.076	n/a	REC_WORD	400038	wordpools/wasnorm_wordpool_576.txt	LTP299	ltpFR2	6	3	ONION	977	n/a	n/a	0	0	0
807.556	n/a	REC_WORD	403778	wordpools/wasnorm_wordpool_576.txt	LTP299	ltpFR2	6	3	CLOTHES	327	n/a	n/a	0	0	0
856.1	n/a	DISTRACTOR	428050	n/a	LTP299	ltpFR2	6	4	n/a	n/a	n/a	n/a	0	0	0
856.1	n/a	START	428050	n/a	LTP299	ltpFR2	6	n/a	n/a	n/a	6	n/a	n/a	n/a	n/a
856.114	n/a	PROB	428057	n/a	LTP299	ltpFR2	6	n/a	n/a	n/a	6	17	4	5	8
858.446	n/a	PROB	429223	n/a	LTP299	ltpFR2	6	n/a	n/a	n/a	6	15	3	4	8
860.796	n/a	PROB	430398	n/a	LTP299	ltpFR2	6	n/a	n/a	n/a	6	25	9	9	7
864.716	n/a	PROB	432358	n/a	LTP299	ltpFR2	6	n/a	n/a	n/a	6	15	5	3	7
866.432	n/a	PROB	433216	n/a	LTP299	ltpFR2	6	n/a	n/a	n/a	6	15	2	8	5
867.752	n/a	PROB	433876	n/a	LTP299	ltpFR2	6	n/a	n/a	n/a	6	16	8	2	6
869.218	n/a	PROB	434609	n/a	LTP299	ltpFR2	6	n/a	n/a	n/a	6	10	3	6	1
871.204	n/a	PROB	435602	n/a	LTP299	ltpFR2	6	n/a	n/a	n/a	6	19	7	5	7
872.84	n/a	PROB	436420	n/a	LTP299	ltpFR2	6	n/a	n/a	n/a	6	7	5	1	1
874.24	n/a	PROB	437120	n/a	LTP299	ltpFR2	6	n/a	n/a	n/a	6	1	5	1	9
876.126	n/a	PROB	438063	n/a	LTP299	ltpFR2	6	n/a	n/a	n/a	6	16	8	9	9
878.982	n/a	STOP	439491	n/a	LTP299	ltpFR2	6	n/a	n/a	n/a	6	n/a	n/a	n/a	n/a
881.264	n/a	WORD	440632	wordpools/wasnorm_wordpool_576.txt	LTP299	ltpFR2	6	4	TRACTOR	1493	n/a	n/a	0	0	0
883.84	n/a	WORD	441920	wordpools/wasnorm_wordpool_576.txt	LTP299	ltpFR2	6	4	OINTMENT	974	n/a	n/a	0	0	0
886.434	n/a	WORD	443217	wordpools/wasnorm_wordpool_576.txt	LTP299	ltpFR2	6	4	FRANCE	601	n/a	n/a	0	0	0
888.92	n/a	WORD	444460	wordpools/wasnorm_wordpool_576.txt	LTP299	ltpFR2	6	4	BLADE	134	n/a	n/a	0	0	0
891.588	n/a	WORD	445794	wordpools/wasnorm_wordpool_576.txt	LTP299	ltpFR2	6	4	PORK	1108	n/a	n/a	0	0	0
894.28	n/a	WORD	447140	wordpools/wasnorm_wordpool_576.txt	LTP299	ltpFR2	6	4	KEEPER	769	n/a	n/a	0	0	0
896.776	n/a	WORD	448388	wordpools/wasnorm_wordpool_576.txt	LTP299	ltpFR2	6	4	PEBBLE	1035	n/a	n/a	0	0	0
899.412	n/a	WORD	449706	wordpools/wasnorm_wordpool_576.txt	LTP299	ltpFR2	6	4	MOTOR	922	n/a	n/a	0	0	0
902.098	n/a	WORD	451049	wordpools/wasnorm_wordpool_576.txt	LTP299	ltpFR2	6	4	LASER	801	n/a	n/a	0	0	0
904.532	n/a	WORD	452266	wordpools/wasnorm_wordpool_576.txt	LTP299	ltpFR2	6	4	STONE	1385	n/a	n/a	0	0	0
907.218	n/a	WORD	453609	wordpools/wasnorm_wordpool_576.txt	LTP299	ltpFR2	6	4	JELLO	754	n/a	n/a	0	0	0
909.678	n/a	WORD	454839	wordpools/wasnorm_wordpool_576.txt	LTP299	ltpFR2	6	4	TURTLE	1522	n/a	n/a	0	0	0
912.212	n/a	WORD	456106	wordpools/wasnorm_wordpool_576.txt	LTP299	ltpFR2	6	4	RABBIT	1152	n/a	n/a	0	0	0
914.94	n/a	WORD	457470	wordpools/wasnorm_wordpool_576.txt	LTP299	ltpFR2	6	4	CUPBOARD	425	n/a	n/a	0	0	0
917.474	n/a	WORD	458737	wordpools/wasnorm_wordpool_576.txt	LTP299	ltpFR2	6	4	CARROT	249	n/a	n/a	0	0	0
919.994	n/a	WORD	459997	wordpools/wasnorm_wordpool_576.txt	LTP299	ltpFR2	6	4	BUNNY	198	n/a	n/a	0	0	0
922.762	n/a	WORD	461381	wordpools/wasnorm_wordpool_576.txt	LTP299	ltpFR2	6	4	CAFE	216	n/a	n/a	0	0	0
925.39	n/a	WORD	462695	wordpools/wasnorm_wordpool_576.txt	LTP299	ltpFR2	6	4	TRENCH	1503	n/a	n/a	0	0	0
927.95	n/a	WORD	463975	wordpools/wasnorm_wordpool_576.txt	LTP299	ltpFR2	6	4	CREVICE	405	n/a	n/a	0	0	0
930.768	n/a	WORD	465384	wordpools/wasnorm_wordpool_576.txt	LTP299	ltpFR2	6	4	STAKE	1368	n/a	n/a	0	0	0
933.264	n/a	WORD	466632	wordpools/wasnorm_wordpool_576.txt	LTP299	ltpFR2	6	4	MATCH	878	n/a	n/a	0	0	0
935.968	n/a	WORD	467984	wordpools/wasnorm_wordpool_576.txt	LTP299	ltpFR2	6	4	BUGGY	188	n/a	n/a	0	0	0
938.734	n/a	WORD	469367	wordpools/wasnorm_wordpool_576.txt	LTP299	ltpFR2	6	4	SUNSET	1408	n/a	n/a	0	0	0
941.194	n/a	WORD	470597	wordpools/wasnorm_wordpool_576.txt	LTP299	ltpFR2	6	4	FRIEND	606	n/a	n/a	0	0	0
942.806	n/a	START	471403	n/a	LTP299	ltpFR2	6	n/a	n/a	n/a	7	n/a	n/a	n/a	n/a
943.954	n/a	DISTRACTOR	471977	n/a	LTP299	ltpFR2	6	4	n/a	n/a	n/a	n/a	0	0	0
943.964	n/a	PROB	471982	n/a	LTP299	ltpFR2	6	n/a	n/a	n/a	7	6	1	1	4
945.362	n/a	PROB	472681	n/a	LTP299	ltpFR2	6	n/a	n/a	n/a	7	20	5	8	7
947.798	n/a	PROB	473899	n/a	LTP299	ltpFR2	6	n/a	n/a	n/a	7	15	1	5	9
949.516	n/a	PROB	474758	n/a	LTP299	ltpFR2	6	n/a	n/a	n/a	7	7	1	4	2
952.086	n/a	PROB	476043	n/a	LTP299	ltpFR2	6	n/a	n/a	n/a	7	17	5	8	4
954.988	n/a	PROB	477494	n/a	LTP299	ltpFR2	6	n/a	n/a	n/a	7	17	2	9	6
958.406	n/a	PROB	479203	n/a	LTP299	ltpFR2	6	n/a	n/a	n/a	7	12	2	4	6
959.958	n/a	PROB	479979	n/a	LTP299	ltpFR2	6	n/a	n/a	n/a	7	14	2	3	9
963.176	n/a	PROB	481588	n/a	LTP299	ltpFR2	6	n/a	n/a	n/a	7	16	6	6	4
966.804	n/a	STOP	483402	n/a	LTP299	ltpFR2	6	n/a	n/a	n/a	7	n/a	n/a	n/a	n/a
968.58	n/a	REC_START	484290	n/a	LTP299	ltpFR2	6	4	n/a	n/a	n/a	n/a	0	0	0
969.38	n/a	REC_WORD	484690	wordpools/wasnorm_wordpool_576.txt	LTP299	ltpFR2	6	4	FRIEND	606	n/a	n/a	0	0	0
970.914	n/a	REC_WORD	485457	wordpools/wasnorm_wordpool_576.txt	LTP299	ltpFR2	6	4	BUGGY	188	n/a	n/a	0	0	0
972.192	n/a	REC_WORD	486096	wordpools/wasnorm_wordpool_576.txt	LTP299	ltpFR2	6	4	SUNSET	1408	n/a	n/a	0	0	0
977.112	n/a	REC_WORD	488556	wordpools/wasnorm_wordpool_576.txt	LTP299	ltpFR2	6	4	TRACTOR	1493	n/a	n/a	0	0	0
978.15	n/a	REC_WORD	489075	wordpools/wasnorm_wordpool_576.txt	LTP299	ltpFR2	6	4	FRAGRANCE	599	n/a	n/a	0	0	0
979.716	n/a	REC_WORD	489858	wordpools/wasnorm_wordpool_576.txt	LTP299	ltpFR2	6	4	FRANCE	601	n/a	n/a	0	0	0
983.92	n/a	REC_WORD	491960	wordpools/wasnorm_wordpool_576.txt	LTP299	ltpFR2	6	4	PORK	1108	n/a	n/a	0	0	0
985.368	n/a	REC_WORD	492684	wordpools/wasnorm_wordpool_576.txt	LTP299	ltpFR2	6	4	KEEPER	769	n/a	n/a	0	0	0
986.61	n/a	REC_WORD	493305	wordpools/wasnorm_wordpool_576.txt	LTP299	ltpFR2	6	4	BLADE	134	n/a	n/a	0	0	0
987.824	n/a	REC_WORD	493912	wordpools/wasnorm_wordpool_576.txt	LTP299	ltpFR2	6	4	LASER	801	n/a	n/a	0	0	0
989.064	n/a	REC_WORD	494532	wordpools/wasnorm_wordpool_576.txt	LTP299	ltpFR2	6	4	PEBBLE	1035	n/a	n/a	0	0	0
997.634	n/a	REC_WORD	498817	wordpools/wasnorm_wordpool_576.txt	LTP299	ltpFR2	6	4	TRENCH	1503	n/a	n/a	0	0	0
999.596	n/a	REC_WORD	499798	wordpools/wasnorm_wordpool_576.txt	LTP299	ltpFR2	6	4	CREVICE	405	n/a	n/a	0	0	0
1004.92	n/a	REC_WORD	502460	wordpools/wasnorm_wordpool_576.txt	LTP299	ltpFR2	6	4	STAKE	1368	n/a	n/a	0	0	0
1007.268	n/a	REC_WORD	503634	wordpools/wasnorm_wordpool_576.txt	LTP299	ltpFR2	6	4	BUNNY	198	n/a	n/a	0	0	0
1008.24	n/a	REC_WORD	504120	wordpools/wasnorm_wordpool_576.txt	LTP299	ltpFR2	6	4	RABBIT	1152	n/a	n/a	0	0	0
1009.354	n/a	REC_WORD	504677	wordpools/wasnorm_wordpool_576.txt	LTP299	ltpFR2	6	4	CARROT	249	n/a	n/a	0	0	0
1011.94	n/a	REC_WORD	505970	wordpools/wasnorm_wordpool_576.txt	LTP299	ltpFR2	6	4	TURTLE	1522	n/a	n/a	0	0	0
1013.478	n/a	REC_WORD	506739	wordpools/wasnorm_wordpool_576.txt	LTP299	ltpFR2	6	4	JELLO	754	n/a	n/a	0	0	0
1025.37	n/a	REC_WORD	512685	wordpools/wasnorm_wordpool_576.txt	LTP299	ltpFR2	6	4	CAFE	216	n/a	n/a	0	0	0
1026.516	n/a	REC_WORD	513258	wordpools/wasnorm_wordpool_576.txt	LTP299	ltpFR2	6	4	CUPBOARD	425	n/a	n/a	0	0	0
1059.038	n/a	DISTRACTOR	529519	n/a	LTP299	ltpFR2	6	5	n/a	n/a	n/a	n/a	0	0	0
1059.038	n/a	START	529519	n/a	LTP299	ltpFR2	6	n/a	n/a	n/a	8	n/a	n/a	n/a	n/a
1059.052	n/a	PROB	529526	n/a	LTP299	ltpFR2	6	n/a	n/a	n/a	8	14	6	1	7
1061.054	n/a	PROB	530527	n/a	LTP299	ltpFR2	6	n/a	n/a	n/a	8	16	6	4	6
1063.204	n/a	PROB	531602	n/a	LTP299	ltpFR2	6	n/a	n/a	n/a	8	9	1	4	4
1064.704	n/a	PROB	532352	n/a	LTP299	ltpFR2	6	n/a	n/a	n/a	8	23	8	6	9
1069.642	n/a	PROB	534821	n/a	LTP299	ltpFR2	6	n/a	n/a	n/a	8	19	8	3	8
1072.046	n/a	PROB	536023	n/a	LTP299	ltpFR2	6	n/a	n/a	n/a	8	17	8	8	1
1074.164	n/a	PROB	537082	n/a	LTP299	ltpFR2	6	n/a	n/a	n/a	8	17	6	7	4
1077.166	n/a	PROB	538583	n/a	LTP299	ltpFR2	6	n/a	n/a	n/a	8	20	2	9	9
1079.168	n/a	PROB	539584	n/a	LTP299	ltpFR2	6	n/a	n/a	n/a	8	16	2	6	8
1083.036	n/a	STOP	541518	n/a	LTP299	ltpFR2	6	n/a	n/a	n/a	8	n/a	n/a	n/a	n/a
1083.972	n/a	WORD	541986	wordpools/wasnorm_wordpool_576.txt	LTP299	ltpFR2	6	5	SKETCH	1315	n/a	n/a	0	0	0
1086.592	n/a	WORD	543296	wordpools/wasnorm_wordpool_576.txt	LTP299	ltpFR2	6	5	PORTRAIT	1111	n/a	n/a	0	0	0
1089.114	n/a	WORD	544557	wordpools/wasnorm_wordpool_576.txt	LTP299	ltpFR2	6	5	SCULPTURE	1258	n/a	n/a	0	0	0
1091.894	n/a	WORD	545947	wordpools/wasnorm_wordpool_576.txt	LTP299	ltpFR2	6	5	ORANGE	980	n/a	n/a	0	0	0
1094.484	n/a	WORD	547242	wordpools/wasnorm_wordpool_576.txt	LTP299	ltpFR2	6	5	DANCER	437	n/a	n/a	0	0	0
1097.082	n/a	WORD	548541	wordpools/wasnorm_wordpool_576.txt	LTP299	ltpFR2	6	5	WASHER	1592	n/a	n/a	0	0	0
1099.584	n/a	WORD	549792	wordpools/wasnorm_wordpool_576.txt	LTP299	ltpFR2	6	5	TILE	1468	n/a	n/a	0	0	0
1102.02	n/a	WORD	551010	wordpools/wasnorm_wordpool_576.txt	LTP299	ltpFR2	6	5	COOK	372	n/a	n/a	0	0	0
1104.454	n/a	WORD	552227	wordpools/wasnorm_wordpool_576.txt	LTP299	ltpFR2	6	5	KITCHEN	778	n/a	n/a	0	0	0
1107.024	n/a	WORD	553512	wordpools/wasnorm_wordpool_576.txt	LTP299	ltpFR2	6	5	COTTAGE	384	n/a	n/a	0	0	0
1109.814	n/a	WORD	554907	wordpools/wasnorm_wordpool_576.txt	LTP299	ltpFR2	6	5	BLUEPRINT	142	n/a	n/a	0	0	0
1112.51	n/a	WORD	556255	wordpools/wasnorm_wordpool_576.txt	LTP299	ltpFR2	6	5	HATCHET	691	n/a	n/a	0	0	0
1115.08	n/a	WORD	557540	wordpools/wasnorm_wordpool_576.txt	LTP299	ltpFR2	6	5	LAVA	804	n/a	n/a	0	0	0
1117.816	n/a	WORD	558908	wordpools/wasnorm_wordpool_576.txt	LTP299	ltpFR2	6	5	COMET	353	n/a	n/a	0	0	0
1120.45	n/a	WORD	560225	wordpools/wasnorm_wordpool_576.txt	LTP299	ltpFR2	6	5	WIDOW	1608	n/a	n/a	0	0	0
1123.236	n/a	WORD	561618	wordpools/wasnorm_wordpool_576.txt	LTP299	ltpFR2	6	5	PUDDING	1139	n/a	n/a	0	0	0
1125.762	n/a	WORD	562881	wordpools/wasnorm_wordpool_576.txt	LTP299	ltpFR2	6	5	FLASK	576	n/a	n/a	0	0	0
1128.212	n/a	WORD	564106	wordpools/wasnorm_wordpool_576.txt	LTP299	ltpFR2	6	5	PADDING	999	n/a	n/a	0	0	0
1130.658	n/a	WORD	565329	wordpools/wasnorm_wordpool_576.txt	LTP299	ltpFR2	6	5	CUSTARD	429	n/a	n/a	0	0	0
1133.276	n/a	WORD	566638	wordpools/wasnorm_wordpool_576.txt	LTP299	ltpFR2	6	5	LONDON	843	n/a	n/a	0	0	0
1135.778	n/a	WORD	567889	wordpools/wasnorm_wordpool_576.txt	LTP299	ltpFR2	6	5	ROD	1203	n/a	n/a	0	0	0
1138.48	n/a	WORD	569240	wordpools/wasnorm_wordpool_576.txt	LTP299	ltpFR2	6	5	ROBOT	1200	n/a	n/a	0	0	0
1141.184	n/a	WORD	570592	wordpools/wasnorm_wordpool_576.txt	LTP299	ltpFR2	6	5	COUNTY	389	n/a	n/a	0	0	0
1143.91	n/a	WORD	571955	wordpools/wasnorm_wordpool_576.txt	LTP299	ltpFR2	6	5	GOBLIN	645	n/a	n/a	0	0	0
1145.52	n/a	START	572760	n/a	LTP299	ltpFR2	6	n/a	n/a	n/a	9	n/a	n/a	n/a	n/a
1146.662	n/a	DISTRACTOR	573331	n/a	LTP299	ltpFR2	6	5	n/a	n/a	n/a	n/a	0	0	0
1146.67	n/a	PROB	573335	n/a	LTP299	ltpFR2	6	n/a	n/a	n/a	9	13	4	8	1
1148.804	n/a	PROB	574402	n/a	LTP299	ltpFR2	6	n/a	n/a	n/a	9	14	6	2	6
1152.708	n/a	PROB	576354	n/a	LTP299	ltpFR2	6	n/a	n/a	n/a	9	17	7	8	2
1154.526	n/a	PROB	577263	n/a	LTP299	ltpFR2	6	n/a	n/a	n/a	9	24	8	8	7
1157.044	n/a	PROB	578522	n/a	LTP299	ltpFR2	6	n/a	n/a	n/a	9	10	1	1	8
1158.662	n/a	PROB	579331	n/a	LTP299	ltpFR2	6	n/a	n/a	n/a	9	18	8	1	9
1160.532	n/a	PROB	580266	n/a	LTP299	ltpFR2	6	n/a	n/a	n/a	9	9	1	6	2
1162.564	n/a	PROB	581282	n/a	LTP299	ltpFR2	6	n/a	n/a	n/a	9	15	8	3	4
1164.482	n/a	PROB	582241	n/a	LTP299	ltpFR2	6	n/a	n/a	n/a	9	20	9	8	3
1167.038	n/a	PROB	583519	n/a	LTP299	ltpFR2	6	n/a	n/a	n/a	9	16	6	3	7
1168.482	n/a	STOP	584241	n/a	LTP299	ltpFR2	6	n/a	n/a	n/a	9	n/a	n/a	n/a	n/a
1171.456	n/a	REC_START	585728	n/a	LTP299	ltpFR2	6	5	n/a	n/a	n/a	n/a	0	0	0
1181.42	n/a	REC_WORD	590710	wordpools/wasnorm_wordpool_576.txt	LTP299	ltpFR2	6	5	BLUEPRINT	142	n/a	n/a	0	0	0
1182.51	n/a	REC_WORD	591255	wordpools/wasnorm_wordpool_576.txt	LTP299	ltpFR2	6	5	SKETCH	1315	n/a	n/a	0	0	0
1184.0	n/a	REC_WORD	592000	wordpools/wasnorm_wordpool_576.txt	LTP299	ltpFR2	6	5	PORTRAIT	1111	n/a	n/a	0	0	0
1185.1	n/a	REC_WORD	592550	wordpools/wasnorm_wordpool_576.txt	LTP299	ltpFR2	6	5	SCULPTURE	1258	n/a	n/a	0	0	0
1186.598	n/a	REC_WORD	593299	wordpools/wasnorm_wordpool_576.txt	LTP299	ltpFR2	6	5	ORANGE	980	n/a	n/a	0	0	0
1188.006	n/a	REC_WORD	594003	wordpools/wasnorm_wordpool_576.txt	LTP299	ltpFR2	6	5	DANCER	437	n/a	n/a	0	0	0
1193.154	n/a	REC_WORD	596577	wordpools/wasnorm_wordpool_576.txt	LTP299	ltpFR2	6	5	COTTAGE	384	n/a	n/a	0	0	0
1195.572	n/a	REC_WORD	597786	wordpools/wasnorm_wordpool_576.txt	LTP299	ltpFR2	6	5	WIDOW	1608	n/a	n/a	0	0	0
1196.99	n/a	REC_WORD	598495	wordpools/wasnorm_wordpool_576.txt	LTP299	ltpFR2	6	5	HATCHET	691	n/a	n/a	0	0	0
1199.616	n/a	REC_WORD	599808	wordpools/wasnorm_wordpool_576.txt	LTP299	ltpFR2	6	5	COOK	372	n/a	n/a	0	0	0
1200.868	n/a	REC_WORD	600434	wordpools/wasnorm_wordpool_576.txt	LTP299	ltpFR2	6	5	KITCHEN	778	n/a	n/a	0	0	0
1202.184	n/a	REC_WORD	601092	wordpools/wasnorm_wordpool_576.txt	LTP299	ltpFR2	6	5	TILE	1468	n/a	n/a	0	0	0
1203.356	n/a	REC_WORD	601678	wordpools/wasnorm_wordpool_576.txt	LTP299	ltpFR2	6	5	WASHER	1592	n/a	n/a	0	0	0
1207.116	n/a	REC_WORD	603558	wordpools/wasnorm_wordpool_576.txt	LTP299	ltpFR2	6	5	FLASK	576	n/a	n/a	0	0	0
1209.95	n/a	REC_WORD	604975	wordpools/wasnorm_wordpool_576.txt	LTP299	ltpFR2	6	5	GOBLIN	645	n/a	n/a	0	0	0
1261.928	n/a	DISTRACTOR	630964	n/a	LTP299	ltpFR2	6	6	n/a	n/a	n/a	n/a	0	0	0
1261.928	n/a	START	630964	n/a	LTP299	ltpFR2	6	n/a	n/a	n/a	10	n/a	n/a	n/a	n/a
1261.946	n/a	PROB	630973	n/a	LTP299	ltpFR2	6	n/a	n/a	n/a	10	23	9	8	6
1266.38	n/a	PROB	633190	n/a	LTP299	ltpFR2	6	n/a	n/a	n/a	10	15	6	1	8
1268.63	n/a	PROB	634315	n/a	LTP299	ltpFR2	6	n/a	n/a	n/a	10	20	4	9	7
1271.05	n/a	PROB	635525	n/a	LTP299	ltpFR2	6	n/a	n/a	n/a	10	13	2	9	2
1273.202	n/a	PROB	636601	n/a	LTP299	ltpFR2	6	n/a	n/a	n/a	10	12	1	9	2
1274.602	n/a	PROB	637301	n/a	LTP299	ltpFR2	6	n/a	n/a	n/a	10	17	4	4	9
1276.838	n/a	PROB	638419	n/a	LTP299	ltpFR2	6	n/a	n/a	n/a	10	12	1	2	9
1278.688	n/a	PROB	639344	n/a	LTP299	ltpFR2	6	n/a	n/a	n/a	10	18	7	9	2
1281.258	n/a	PROB	640629	n/a	LTP299	ltpFR2	6	n/a	n/a	n/a	10	7	3	1	3
1282.794	n/a	PROB	641397	n/a	LTP299	ltpFR2	6	n/a	n/a	n/a	10	4	1	1	2
1285.926	n/a	STOP	642963	n/a	LTP299	ltpFR2	6	n/a	n/a	n/a	10	n/a	n/a	n/a	n/a
1286.83	n/a	WORD	643415	wordpools/wasnorm_wordpool_576.txt	LTP299	ltpFR2	6	6	PIGMENT	1066	n/a	n/a	0	0	0
1289.298	n/a	WORD	644649	wordpools/wasnorm_wordpool_576.txt	LTP299	ltpFR2	6	6	BACON	67	n/a	n/a	0	0	0
1291.968	n/a	WORD	645984	wordpools/wasnorm_wordpool_576.txt	LTP299	ltpFR2	6	6	FRUIT	610	n/a	n/a	0	0	0
1294.786	n/a	WORD	647393	wordpools/wasnorm_wordpool_576.txt	LTP299	ltpFR2	6	6	GRAPE	654	n/a	n/a	0	0	0
1297.404	n/a	WORD	648702	wordpools/wasnorm_wordpool_576.txt	LTP299	ltpFR2	6	6	CANAL	226	n/a	n/a	0	0	0
1299.874	n/a	WORD	649937	wordpools/wasnorm_wordpool_576.txt	LTP299	ltpFR2	6	6	HIKER	708	n/a	n/a	0	0	0
1302.544	n/a	WORD	651272	wordpools/wasnorm_wordpool_576.txt	LTP299	ltpFR2	6	6	PLAYGROUND	1087	n/a	n/a	0	0	0
1305.062	n/a	WORD	652531	wordpools/wasnorm_wordpool_576.txt	LTP299	ltpFR2	6	6	SERVER	1272	n/a	n/a	0	0	0
1307.782	n/a	WORD	653891	wordpools/wasnorm_wordpool_576.txt	LTP299	ltpFR2	6	6	POISON	1096	n/a	n/a	0	0	0
1310.316	n/a	WORD	655158	wordpools/wasnorm_wordpool_576.txt	LTP299	ltpFR2	6	6	SEAGULL	1261	n/a	n/a	0	0	0
1312.85	n/a	WORD	656425	wordpools/wasnorm_wordpool_576.txt	LTP299	ltpFR2	6	6	BUCKET	184	n/a	n/a	0	0	0
1315.318	n/a	WORD	657659	wordpools/wasnorm_wordpool_576.txt	LTP299	ltpFR2	6	6	RACKET	1155	n/a	n/a	0	0	0
1318.088	n/a	WORD	659044	wordpools/wasnorm_wordpool_576.txt	LTP299	ltpFR2	6	6	APRON	35	n/a	n/a	0	0	0
1320.64	n/a	WORD	660320	wordpools/wasnorm_wordpool_576.txt	LTP299	ltpFR2	6	6	PLATE	1086	n/a	n/a	0	0	0
1323.24	n/a	WORD	661620	wordpools/wasnorm_wordpool_576.txt	LTP299	ltpFR2	6	6	MASK	876	n/a	n/a	0	0	0
1325.86	n/a	WORD	662930	wordpools/wasnorm_wordpool_576.txt	LTP299	ltpFR2	6	6	BUBBLE	183	n/a	n/a	0	0	0
1328.428	n/a	WORD	664214	wordpools/wasnorm_wordpool_576.txt	LTP299	ltpFR2	6	6	JURY	766	n/a	n/a	0	0	0
1330.966	n/a	WORD	665483	wordpools/wasnorm_wordpool_576.txt	LTP299	ltpFR2	6	6	BANJO	82	n/a	n/a	0	0	0
1333.7	n/a	WORD	666850	wordpools/wasnorm_wordpool_576.txt	LTP299	ltpFR2	6	6	WHISTLE	1606	n/a	n/a	0	0	0
1336.174	n/a	WORD	668087	wordpools/wasnorm_wordpool_576.txt	LTP299	ltpFR2	6	6	FINGER	567	n/a	n/a	0	0	0
1338.872	n/a	WORD	669436	wordpools/wasnorm_wordpool_576.txt	LTP299	ltpFR2	6	6	GLOVE	642	n/a	n/a	0	0	0
1341.56	n/a	WORD	670780	wordpools/wasnorm_wordpool_576.txt	LTP299	ltpFR2	6	6	JAPAN	749	n/a	n/a	0	0	0
1344.312	n/a	WORD	672156	wordpools/wasnorm_wordpool_576.txt	LTP299	ltpFR2	6	6	SKILLET	1317	n/a	n/a	0	0	0
1347.112	n/a	WORD	673556	wordpools/wasnorm_wordpool_576.txt	LTP299	ltpFR2	6	6	RIVER	1194	n/a	n/a	0	0	0
1348.718	n/a	START	674359	n/a	LTP299	ltpFR2	6	n/a	n/a	n/a	11	n/a	n/a	n/a	n/a
1349.896	n/a	DISTRACTOR	674948	n/a	LTP299	ltpFR2	6	6	n/a	n/a	n/a	n/a	0	0	0
1349.902	n/a	PROB	674951	n/a	LTP299	ltpFR2	6	n/a	n/a	n/a	11	16	3	5	8
1354.366	n/a	PROB	677183	n/a	LTP299	ltpFR2	6	n/a	n/a	n/a	11	22	7	9	6
1357.768	n/a	PROB	678884	n/a	LTP299	ltpFR2	6	n/a	n/a	n/a	11	15	7	6	2
1360.702	n/a	PROB	680351	n/a	LTP299	ltpFR2	6	n/a	n/a	n/a	11	13	4	8	1
1362.822	n/a	PROB	681411	n/a	LTP299	ltpFR2	6	n/a	n/a	n/a	11	18	2	8	8
1366.358	n/a	PROB	683179	n/a	LTP299	ltpFR2	6	n/a	n/a	n/a	11	20	9	5	6
1368.708	n/a	PROB	684354	n/a	LTP299	ltpFR2	6	n/a	n/a	n/a	11	9	3	5	1
1372.716	n/a	STOP	686358	n/a	LTP299	ltpFR2	6	n/a	n/a	n/a	11	n/a	n/a	n/a	n/a
1374.514	n/a	REC_START	687257	n/a	LTP299	ltpFR2	6	6	n/a	n/a	n/a	n/a	0	0	0
1376.136	n/a	REC_WORD	688068	wordpools/wasnorm_wordpool_576.txt	LTP299	ltpFR2	6	6	WHISTLE	1606	n/a	n/a	0	0	0
1377.18	n/a	REC_WORD	688590	wordpools/wasnorm_wordpool_576.txt	LTP299	ltpFR2	6	6	FINGER	567	n/a	n/a	0	0	0
1378.424	n/a	REC_WORD	689212	wordpools/wasnorm_wordpool_576.txt	LTP299	ltpFR2	6	6	JAPAN	749	n/a	n/a	0	0	0
1380.022	n/a	REC_WORD	690011	wordpools/wasnorm_wordpool_576.txt	LTP299	ltpFR2	6	6	GLOVE	642	n/a	n/a	0	0	0
1383.82	n/a	REC_WORD	691910	wordpools/wasnorm_wordpool_576.txt	LTP299	ltpFR2	6	6	PIGMENT	1066	n/a	n/a	0	0	0
1385.52	n/a	REC_WORD	692760	wordpools/wasnorm_wordpool_576.txt	LTP299	ltpFR2	6	6	BACON	67	n/a	n/a	0	0	0
1386.604	n/a	REC_WORD	693302	wordpools/wasnorm_wordpool_576.txt	LTP299	ltpFR2	6	6	FRUIT	610	n/a	n/a	0	0	0
1387.828	n/a	REC_WORD	693914	wordpools/wasnorm_wordpool_576.txt	LTP299	ltpFR2	6	6	GRAPE	654	n/a	n/a	0	0	0
1398.706	n/a	REC_WORD	699353	wordpools/wasnorm_wordpool_576.txt	LTP299	ltpFR2	6	6	SERVER	1272	n/a	n/a	0	0	0
1400.164	n/a	REC_WORD	700082	wordpools/wasnorm_wordpool_576.txt	LTP299	ltpFR2	6	6	PLATE	1086	n/a	n/a	0	0	0
1401.882	n/a	REC_WORD	700941	wordpools/wasnorm_wordpool_576.txt	LTP299	ltpFR2	6	6	POISON	1096	n/a	n/a	0	0	0
1403.252	n/a	REC_WORD	701626	wordpools/wasnorm_wordpool_576.txt	LTP299	ltpFR2	6	6	BUCKET	184	n/a	n/a	0	0	0
1406.13	n/a	REC_WORD	703065	wordpools/wasnorm_wordpool_576.txt	LTP299	ltpFR2	6	6	SEAGULL	1261	n/a	n/a	0	0	0
1434.238	n/a	REC_WORD	717119	wordpools/wasnorm_wordpool_576.txt	LTP299	ltpFR2	6	6	BUBBLE	183	n/a	n/a	0	0	0
1464.952	n/a	DISTRACTOR	732476	n/a	LTP299	ltpFR2	6	7	n/a	n/a	n/a	n/a	0	0	0
1464.954	n/a	START	732477	n/a	LTP299	ltpFR2	6	n/a	n/a	n/a	12	n/a	n/a	n/a	n/a
1464.968	n/a	PROB	732484	n/a	LTP299	ltpFR2	6	n/a	n/a	n/a	12	18	3	6	9
1467.284	n/a	PROB	733642	n/a	LTP299	ltpFR2	6	n/a	n/a	n/a	12	15	1	6	8
1470.09	n/a	PROB	735045	n/a	LTP299	ltpFR2	6	n/a	n/a	n/a	12	22	8	8	6
1473.274	n/a	PROB	736637	n/a	LTP299	ltpFR2	6	n/a	n/a	n/a	12	8	5	2	1
1476.376	n/a	PROB	738188	n/a	LTP299	ltpFR2	6	n/a	n/a	n/a	12	27	9	9	9
1478.408	n/a	PROB	739204	n/a	LTP299	ltpFR2	6	n/a	n/a	n/a	12	14	2	5	7
1481.028	n/a	PROB	740514	n/a	LTP299	ltpFR2	6	n/a	n/a	n/a	12	26	8	9	9
1483.13	n/a	PROB	741565	n/a	LTP299	ltpFR2	6	n/a	n/a	n/a	12	18	7	6	5
1486.97	n/a	PROB	743485	n/a	LTP299	ltpFR2	6	n/a	n/a	n/a	12	17	6	7	4
1488.784	n/a	STOP	744392	n/a	LTP299	ltpFR2	6	n/a	n/a	n/a	12	n/a	n/a	n/a	n/a
1489.786	n/a	WORD	744893	wordpools/wasnorm_wordpool_576.txt	LTP299	ltpFR2	6	7	FOX	598	n/a	n/a	0	0	0
1492.406	n/a	WORD	746203	wordpools/wasnorm_wordpool_576.txt	LTP299	ltpFR2	6	7	BARLEY	88	n/a	n/a	0	0	0
1494.858	n/a	WORD	747429	wordpools/wasnorm_wordpool_576.txt	LTP299	ltpFR2	6	7	EGYPT	519	n/a	n/a	0	0	0
1497.292	n/a	WORD	748646	wordpools/wasnorm_wordpool_576.txt	LTP299	ltpFR2	6	7	MOTEL	919	n/a	n/a	0	0	0
1500.078	n/a	WORD	750039	wordpools/wasnorm_wordpool_576.txt	LTP299	ltpFR2	6	7	CASKET	255	n/a	n/a	0	0	0
1502.546	n/a	WORD	751273	wordpools/wasnorm_wordpool_576.txt	LTP299	ltpFR2	6	7	GRAVE	658	n/a	n/a	0	0	0
1505.232	n/a	WORD	752616	wordpools/wasnorm_wordpool_576.txt	LTP299	ltpFR2	6	7	LOVER	846	n/a	n/a	0	0	0
1507.852	n/a	WORD	753926	wordpools/wasnorm_wordpool_576.txt	LTP299	ltpFR2	6	7	WOMAN	1620	n/a	n/a	0	0	0
1510.386	n/a	WORD	755193	wordpools/wasnorm_wordpool_576.txt	LTP299	ltpFR2	6	7	COFFEE	341	n/a	n/a	0	0	0
1513.072	n/a	WORD	756536	wordpools/wasnorm_wordpool_576.txt	LTP299	ltpFR2	6	7	SEAL	1262	n/a	n/a	0	0	0
1515.692	n/a	WORD	757846	wordpools/wasnorm_wordpool_576.txt	LTP299	ltpFR2	6	7	SPHINX	1349	n/a	n/a	0	0	0
1518.478	n/a	WORD	759239	wordpools/wasnorm_wordpool_576.txt	LTP299	ltpFR2	6	7	MUMMY	932	n/a	n/a	0	0	0
1521.196	n/a	WORD	760598	wordpools/wasnorm_wordpool_576.txt	LTP299	ltpFR2	6	7	TERMITE	1451	n/a	n/a	0	0	0
1523.648	n/a	WORD	761824	wordpools/wasnorm_wordpool_576.txt	LTP299	ltpFR2	6	7	STATUE	1374	n/a	n/a	0	0	0
1526.368	n/a	WORD	763184	wordpools/wasnorm_wordpool_576.txt	LTP299	ltpFR2	6	7	HELMET	702	n/a	n/a	0	0	0
1528.97	n/a	WORD	764485	wordpools/wasnorm_wordpool_576.txt	LTP299	ltpFR2	6	7	CYCLONE	431	n/a	n/a	0	0	0
1531.654	n/a	WORD	765827	wordpools/wasnorm_wordpool_576.txt	LTP299	ltpFR2	6	7	MAILMAN	858	n/a	n/a	0	0	0
1534.172	n/a	WORD	767086	wordpools/wasnorm_wordpool_576.txt	LTP299	ltpFR2	6	7	UNCLE	1536	n/a	n/a	0	0	0
1536.976	n/a	WORD	768488	wordpools/wasnorm_wordpool_576.txt	LTP299	ltpFR2	6	7	MARROW	872	n/a	n/a	0	0	0
1539.726	n/a	WORD	769863	wordpools/wasnorm_wordpool_576.txt	LTP299	ltpFR2	6	7	SWIMMER	1420	n/a	n/a	0	0	0
1542.194	n/a	WORD	771097	wordpools/wasnorm_wordpool_576.txt	LTP299	ltpFR2	6	7	BROOK	177	n/a	n/a	0	0	0
1544.73	n/a	WORD	772365	wordpools/wasnorm_wordpool_576.txt	LTP299	ltpFR2	6	7	ISLAND	745	n/a	n/a	0	0	0
1547.316	n/a	WORD	773658	wordpools/wasnorm_wordpool_576.txt	LTP299	ltpFR2	6	7	LEOPARD	812	n/a	n/a	0	0	0
1550.136	n/a	WORD	775068	wordpools/wasnorm_wordpool_576.txt	LTP299	ltpFR2	6	7	CRAYON	401	n/a	n/a	0	0	0
1551.754	n/a	START	775877	n/a	LTP299	ltpFR2	6	n/a	n/a	n/a	13	n/a	n/a	n/a	n/a
1552.582	n/a	DISTRACTOR	776291	n/a	LTP299	ltpFR2	6	7	n/a	n/a	n/a	n/a	0	0	0
1552.588	n/a	PROB	776294	n/a	LTP299	ltpFR2	6	n/a	n/a	n/a	13	20	8	8	4
1555.24	n/a	PROB	777620	n/a	LTP299	ltpFR2	6	n/a	n/a	n/a	13	18	8	9	1
1556.722	n/a	PROB	778361	n/a	LTP299	ltpFR2	6	n/a	n/a	n/a	13	11	4	5	2
1558.556	n/a	PROB	779278	n/a	LTP299	ltpFR2	6	n/a	n/a	n/a	13	15	5	9	1
1559.926	n/a	PROB	779963	n/a	LTP299	ltpFR2	6	n/a	n/a	n/a	13	17	5	7	5
1561.776	n/a	PROB	780888	n/a	LTP299	ltpFR2	6	n/a	n/a	n/a	13	13	5	3	5
1563.496	n/a	PROB	781748	n/a	LTP299	ltpFR2	6	n/a	n/a	n/a	13	15	2	5	8
1565.512	n/a	PROB	782756	n/a	LTP299	ltpFR2	6	n/a	n/a	n/a	13	14	6	4	4
1567.032	n/a	PROB	783516	n/a	LTP299	ltpFR2	6	n/a	n/a	n/a	13	15	5	4	6
1569.35	n/a	PROB	784675	n/a	LTP299	ltpFR2	6	n/a	n/a	n/a	13	23	7	6	9
1572.552	n/a	PROB	786276	n/a	LTP299	ltpFR2	6	n/a	n/a	n/a	13	8	2	2	4
1574.362	n/a	STOP	787181	n/a	LTP299	ltpFR2	6	n/a	n/a	n/a	13	n/a	n/a	n/a	n/a
1577.624	n/a	REC_START	788812	n/a	LTP299	ltpFR2	6	7	n/a	n/a	n/a	n/a	0	0	0
1579.078	n/a	REC_WORD	789539	wordpools/wasnorm_wordpool_576.txt	LTP299	ltpFR2	6	7	BROOK	177	n/a	n/a	0	0	0
1583.932	n/a	REC_WORD	791966	wordpools/wasnorm_wordpool_576.txt	LTP299	ltpFR2	6	7	ISLAND	745	n/a	n/a	0	0	0
1585.56	n/a	REC_WORD	792780	wordpools/wasnorm_wordpool_576.txt	LTP299	ltpFR2	6	7	UNCLE	1536	n/a	n/a	0	0	0
1586.996	n/a	REC_WORD	793498	wordpools/wasnorm_wordpool_576.txt	LTP299	ltpFR2	6	7	MAILMAN	858	n/a	n/a	0	0	0
1604.606	n/a	REC_WORD	802303	wordpools/wasnorm_wordpool_576.txt	LTP299	ltpFR2	6	7	CRAYON	401	n/a	n/a	0	0	0
1616.26	n/a	REC_WORD	808130	wordpools/wasnorm_wordpool_576.txt	LTP299	ltpFR2	6	7	TERMITE	1451	n/a	n/a	0	0	0
1617.256	n/a	REC_WORD	808628	wordpools/wasnorm_wordpool_576.txt	LTP299	ltpFR2	6	7	STATUE	1374	n/a	n/a	0	0	0
1619.904	n/a	REC_WORD	809952	wordpools/wasnorm_wordpool_576.txt	LTP299	ltpFR2	6	7	SEAL	1262	n/a	n/a	0	0	0
1620.998	n/a	REC_WORD	810499	wordpools/wasnorm_wordpool_576.txt	LTP299	ltpFR2	6	7	SPHINX	1349	n/a	n/a	0	0	0
1625.134	n/a	REC_WORD	812567	wordpools/wasnorm_wordpool_576.txt	LTP299	ltpFR2	6	7	WOMAN	1620	n/a	n/a	0	0	0
1626.438	n/a	REC_WORD	813219	wordpools/wasnorm_wordpool_576.txt	LTP299	ltpFR2	6	7	MUMMY	932	n/a	n/a	0	0	0
1628.65	n/a	REC_WORD	814325	wordpools/wasnorm_wordpool_576.txt	LTP299	ltpFR2	6	7	LOVER	846	n/a	n/a	0	0	0
1630.126	n/a	REC_WORD	815063	wordpools/wasnorm_wordpool_576.txt	LTP299	ltpFR2	6	7	EGYPT	519	n/a	n/a	0	0	0
1631.506	n/a	REC_WORD	815753	wordpools/wasnorm_wordpool_576.txt	LTP299	ltpFR2	6	7	MOTEL	919	n/a	n/a	0	0	0
1668.06	n/a	WORD	834030	wordpools/wasnorm_wordpool_576.txt	LTP299	ltpFR2	6	8	PUDDLE	1140	n/a	n/a	0	0	0
1670.656	n/a	WORD	835328	wordpools/wasnorm_wordpool_576.txt	LTP299	ltpFR2	6	8	SNAKE	1333	n/a	n/a	0	0	0
1673.408	n/a	WORD	836704	wordpools/wasnorm_wordpool_576.txt	LTP299	ltpFR2	6	8	HAWK	692	n/a	n/a	0	0	0
1675.85	n/a	WORD	837925	wordpools/wasnorm_wordpool_576.txt	LTP299	ltpFR2	6	8	DUST	508	n/a	n/a	0	0	0
1678.512	n/a	WORD	839256	wordpools/wasnorm_wordpool_576.txt	LTP299	ltpFR2	6	8	RIFLE	1192	n/a	n/a	0	0	0
1681.298	n/a	WORD	840649	wordpools/wasnorm_wordpool_576.txt	LTP299	ltpFR2	6	8	FLASHLIGHT	575	n/a	n/a	0	0	0
1684.084	n/a	WORD	842042	wordpools/wasnorm_wordpool_576.txt	LTP299	ltpFR2	6	8	GLASS	639	n/a	n/a	0	0	0
1686.692	n/a	WORD	843346	wordpools/wasnorm_wordpool_576.txt	LTP299	ltpFR2	6	8	SWAMP	1416	n/a	n/a	0	0	0
1689.306	n/a	WORD	844653	wordpools/wasnorm_wordpool_576.txt	LTP299	ltpFR2	6	8	HOOD	714	n/a	n/a	0	0	0
1691.914	n/a	WORD	845957	wordpools/wasnorm_wordpool_576.txt	LTP299	ltpFR2	6	8	STAPLE	1371	n/a	n/a	0	0	0
1694.682	n/a	WORD	847341	wordpools/wasnorm_wordpool_576.txt	LTP299	ltpFR2	6	8	PENGUIN	1044	n/a	n/a	0	0	0
1697.416	n/a	WORD	848708	wordpools/wasnorm_wordpool_576.txt	LTP299	ltpFR2	6	8	PLIERS	1089	n/a	n/a	0	0	0
1700.066	n/a	WORD	850033	wordpools/wasnorm_wordpool_576.txt	LTP299	ltpFR2	6	8	COCOON	339	n/a	n/a	0	0	0
1702.886	n/a	WORD	851443	wordpools/wasnorm_wordpool_576.txt	LTP299	ltpFR2	6	8	PIANO	1057	n/a	n/a	0	0	0
1705.402	n/a	WORD	852701	wordpools/wasnorm_wordpool_576.txt	LTP299	ltpFR2	6	8	TROMBONE	1508	n/a	n/a	0	0	0
1707.94	n/a	WORD	853970	wordpools/wasnorm_wordpool_576.txt	LTP299	ltpFR2	6	8	TRIBE	1505	n/a	n/a	0	0	0
1710.372	n/a	WORD	855186	wordpools/wasnorm_wordpool_576.txt	LTP299	ltpFR2	6	8	QUARTER	1148	n/a	n/a	0	0	0
1713.142	n/a	WORD	856571	wordpools/wasnorm_wordpool_576.txt	LTP299	ltpFR2	6	8	SPARROW	1347	n/a	n/a	0	0	0
1715.698	n/a	WORD	857849	wordpools/wasnorm_wordpool_576.txt	LTP299	ltpFR2	6	8	THRONE	1461	n/a	n/a	0	0	0
1718.412	n/a	WORD	859206	wordpools/wasnorm_wordpool_576.txt	LTP299	ltpFR2	6	8	PRINCESS	1125	n/a	n/a	0	0	0
1720.882	n/a	WORD	860441	wordpools/wasnorm_wordpool_576.txt	LTP299	ltpFR2	6	8	PISTOL	1075	n/a	n/a	0	0	0
1723.418	n/a	WORD	861709	wordpools/wasnorm_wordpool_576.txt	LTP299	ltpFR2	6	8	HUMAN	726	n/a	n/a	0	0	0
1726.186	n/a	WORD	863093	wordpools/wasnorm_wordpool_576.txt	LTP299	ltpFR2	6	8	PRIMATE	1123	n/a	n/a	0	0	0
1728.788	n/a	WORD	864394	wordpools/wasnorm_wordpool_576.txt	LTP299	ltpFR2	6	8	DOLPHIN	483	n/a	n/a	0	0	0
1730.408	n/a	START	865204	n/a	LTP299	ltpFR2	6	n/a	n/a	n/a	14	n/a	n/a	n/a	n/a
1731.298	n/a	DISTRACTOR	865649	n/a	LTP299	ltpFR2	6	8	n/a	n/a	n/a	n/a	0	0	0
1731.308	n/a	PROB	865654	n/a	LTP299	ltpFR2	6	n/a	n/a	n/a	14	21	7	5	9
1734.478	n/a	PROB	867239	n/a	LTP299	ltpFR2	6	n/a	n/a	n/a	14	13	5	7	1
1737.762	n/a	PROB	868881	n/a	LTP299	ltpFR2	6	n/a	n/a	n/a	14	16	8	7	1
1739.966	n/a	PROB	869983	n/a	LTP299	ltpFR2	6	n/a	n/a	n/a	14	14	4	1	9
1742.034	n/a	PROB	871017	n/a	LTP299	ltpFR2	6	n/a	n/a	n/a	14	11	3	6	2
1744.236	n/a	PROB	872118	n/a	LTP299	ltpFR2	6	n/a	n/a	n/a	14	19	4	6	9
1745.94	n/a	PROB	872970	n/a	LTP299	ltpFR2	6	n/a	n/a	n/a	14	17	4	6	7
1749.256	n/a	PROB	874628	n/a	LTP299	ltpFR2	6	n/a	n/a	n/a	14	14	4	2	8
1751.024	n/a	PROB	875512	n/a	LTP299	ltpFR2	6	n/a	n/a	n/a	14	19	4	8	7
1753.7	n/a	STOP	876850	n/a	LTP299	ltpFR2	6	n/a	n/a	n/a	14	n/a	n/a	n/a	n/a
1756.262	n/a	REC_START	878131	n/a	LTP299	ltpFR2	6	8	n/a	n/a	n/a	n/a	0	0	0
1761.418	n/a	REC_WORD	880709	wordpools/wasnorm_wordpool_576.txt	LTP299	ltpFR2	6	8	PISTOL	1075	n/a	n/a	0	0	0
1762.726	n/a	REC_WORD	881363	wordpools/wasnorm_wordpool_576.txt	LTP299	ltpFR2	6	8	RIFLE	1192	n/a	n/a	0	0	0
1764.926	n/a	REC_WORD	882463	wordpools/wasnorm_wordpool_576.txt	LTP299	ltpFR2	6	8	PUDDLE	1140	n/a	n/a	0	0	0
1766.072	n/a	REC_WORD	883036	wordpools/wasnorm_wordpool_576.txt	LTP299	ltpFR2	6	8	DUST	508	n/a	n/a	0	0	0
1768.068	n/a	REC_WORD	884034	wordpools/wasnorm_wordpool_576.txt	LTP299	ltpFR2	6	8	SNAKE	1333	n/a	n/a	0	0	0
1774.776	n/a	REC_WORD	887388	wordpools/wasnorm_wordpool_576.txt	LTP299	ltpFR2	6	8	THRONE	1461	n/a	n/a	0	0	0
1778.732	n/a	REC_WORD	889366	wordpools/wasnorm_wordpool_576.txt	LTP299	ltpFR2	6	8	PRINCESS	1125	n/a	n/a	0	0	0
1781.812	n/a	REC_WORD	890906	wordpools/wasnorm_wordpool_576.txt	LTP299	ltpFR2	6	8	HAWK	692	n/a	n/a	0	0	0
1784.54	n/a	REC_WORD	892270	wordpools/wasnorm_wordpool_576.txt	LTP299	ltpFR2	6	8	PENGUIN	1044	n/a	n/a	0	0	0
1804.458	n/a	REC_WORD	902229	wordpools/wasnorm_wordpool_576.txt	LTP299	ltpFR2	6	8	MARSH	874	n/a	n/a	0	0	0
1832.794	n/a	REST_REWET	916397	n/a	LTP299	ltpFR2	6	8	n/a	n/a	n/a	n/a	0	0	0
1916.566	n/a	DISTRACTOR	958283	n/a	LTP299	ltpFR2	6	9	n/a	n/a	n/a	n/a	0	0	0
1916.566	n/a	START	958283	n/a	LTP299	ltpFR2	6	n/a	n/a	n/a	15	n/a	n/a	n/a	n/a
1916.58	n/a	PROB	958290	n/a	LTP299	ltpFR2	6	n/a	n/a	n/a	15	17	7	9	1
1918.254	n/a	PROB	959127	n/a	LTP299	ltpFR2	6	n/a	n/a	n/a	15	18	2	7	9
1920.456	n/a	PROB	960228	n/a	LTP299	ltpFR2	6	n/a	n/a	n/a	15	21	9	8	4
1923.492	n/a	PROB	961746	n/a	LTP299	ltpFR2	6	n/a	n/a	n/a	15	24	8	8	8
1927.196	n/a	PROB	963598	n/a	LTP299	ltpFR2	6	n/a	n/a	n/a	15	19	7	9	3
1930.016	n/a	PROB	965008	n/a	LTP299	ltpFR2	6	n/a	n/a	n/a	15	6	1	4	1
1931.316	n/a	PROB	965658	n/a	LTP299	ltpFR2	6	n/a	n/a	n/a	15	10	5	4	1
1932.934	n/a	PROB	966467	n/a	LTP299	ltpFR2	6	n/a	n/a	n/a	15	14	6	3	5
1940.564	n/a	STOP	970282	n/a	LTP299	ltpFR2	6	n/a	n/a	n/a	15	n/a	n/a	n/a	n/a
1941.602	n/a	WORD	970801	wordpools/wasnorm_wordpool_576.txt	LTP299	ltpFR2	6	9	DRAWING	494	n/a	n/a	0	0	0
1944.376	n/a	WORD	972188	wordpools/wasnorm_wordpool_576.txt	LTP299	ltpFR2	6	9	RELISH	1183	n/a	n/a	0	0	0
1947.126	n/a	WORD	973563	wordpools/wasnorm_wordpool_576.txt	LTP299	ltpFR2	6	9	ZEBRA	1635	n/a	n/a	0	0	0
1949.926	n/a	WORD	974963	wordpools/wasnorm_wordpool_576.txt	LTP299	ltpFR2	6	9	FRAME	600	n/a	n/a	0	0	0
1952.578	n/a	WORD	976289	wordpools/wasnorm_wordpool_576.txt	LTP299	ltpFR2	6	9	MUSTARD	935	n/a	n/a	0	0	0
1955.098	n/a	WORD	977549	wordpools/wasnorm_wordpool_576.txt	LTP299	ltpFR2	6	9	POWDER	1117	n/a	n/a	0	0	0
1957.82	n/a	WORD	978910	wordpools/wasnorm_wordpool_576.txt	LTP299	ltpFR2	6	9	HERO	706	n/a	n/a	0	0	0
1960.636	n/a	WORD	980318	wordpools/wasnorm_wordpool_576.txt	LTP299	ltpFR2	6	9	IDOL	733	n/a	n/a	0	0	0
1963.09	n/a	WORD	981545	wordpools/wasnorm_wordpool_576.txt	LTP299	ltpFR2	6	9	STOMACH	1384	n/a	n/a	0	0	0
1965.626	n/a	WORD	982813	wordpools/wasnorm_wordpool_576.txt	LTP299	ltpFR2	6	9	BELLY	119	n/a	n/a	0	0	0
1968.244	n/a	WORD	984122	wordpools/wasnorm_wordpool_576.txt	LTP299	ltpFR2	6	9	LION	827	n/a	n/a	0	0	0
1970.694	n/a	WORD	985347	wordpools/wasnorm_wordpool_576.txt	LTP299	ltpFR2	6	9	REPORT	1184	n/a	n/a	0	0	0
1973.43	n/a	WORD	986715	wordpools/wasnorm_wordpool_576.txt	LTP299	ltpFR2	6	9	TAXI	1438	n/a	n/a	0	0	0
1976.232	n/a	WORD	988116	wordpools/wasnorm_wordpool_576.txt	LTP299	ltpFR2	6	9	PROTON	1132	n/a	n/a	0	0	0
1978.668	n/a	WORD	989334	wordpools/wasnorm_wordpool_576.txt	LTP299	ltpFR2	6	9	FOOTBALL	591	n/a	n/a	0	0	0
1981.354	n/a	WORD	990677	wordpools/wasnorm_wordpool_576.txt	LTP299	ltpFR2	6	9	THIEF	1456	n/a	n/a	0	0	0
1984.188	n/a	WORD	992094	wordpools/wasnorm_wordpool_576.txt	LTP299	ltpFR2	6	9	ULCER	1533	n/a	n/a	0	0	0
1986.926	n/a	WORD	993463	wordpools/wasnorm_wordpool_576.txt	LTP299	ltpFR2	6	9	PERMIT	1051	n/a	n/a	0	0	0
1989.694	n/a	WORD	994847	wordpools/wasnorm_wordpool_576.txt	LTP299	ltpFR2	6	9	CRIB	407	n/a	n/a	0	0	0
1992.146	n/a	WORD	996073	wordpools/wasnorm_wordpool_576.txt	LTP299	ltpFR2	6	9	PLAZA	1088	n/a	n/a	0	0	0
1994.614	n/a	WORD	997307	wordpools/wasnorm_wordpool_576.txt	LTP299	ltpFR2	6	9	BOX	159	n/a	n/a	0	0	0
1997.434	n/a	WORD	998717	wordpools/wasnorm_wordpool_576.txt	LTP299	ltpFR2	6	9	RADISH	1158	n/a	n/a	0	0	0
1999.904	n/a	WORD	999952	wordpools/wasnorm_wordpool_576.txt	LTP299	ltpFR2	6	9	GARBAGE	622	n/a	n/a	0	0	0
2002.454	n/a	WORD	1001227	wordpools/wasnorm_wordpool_576.txt	LTP299	ltpFR2	6	9	KNAPSACK	783	n/a	n/a	0	0	0
2004.074	n/a	START	1002037	n/a	LTP299	ltpFR2	6	n/a	n/a	n/a	16	n/a	n/a	n/a	n/a
2005.058	n/a	DISTRACTOR	1002529	n/a	LTP299	ltpFR2	6	9	n/a	n/a	n/a	n/a	0	0	0
2005.074	n/a	PROB	1002537	n/a	LTP299	ltpFR2	6	n/a	n/a	n/a	16	13	6	1	6
2007.174	n/a	PROB	1003587	n/a	LTP299	ltpFR2	6	n/a	n/a	n/a	16	26	9	9	8
2011.194	n/a	PROB	1005597	n/a	LTP299	ltpFR2	6	n/a	n/a	n/a	16	17	2	6	9
2014.898	n/a	PROB	1007449	n/a	LTP299	ltpFR2	6	n/a	n/a	n/a	16	12	3	7	2
2016.732	n/a	PROB	1008366	n/a	LTP299	ltpFR2	6	n/a	n/a	n/a	16	16	9	6	1
2018.35	n/a	PROB	1009175	n/a	LTP299	ltpFR2	6	n/a	n/a	n/a	16	9	6	2	1
2020.218	n/a	PROB	1010109	n/a	LTP299	ltpFR2	6	n/a	n/a	n/a	16	17	7	9	1
2021.634	n/a	PROB	1010817	n/a	LTP299	ltpFR2	6	n/a	n/a	n/a	16	16	3	9	4
2028.072	n/a	STOP	1014036	n/a	LTP299	ltpFR2	6	n/a	n/a	n/a	16	n/a	n/a	n/a	n/a
2029.992	n/a	REC_START	1014996	n/a	LTP299	ltpFR2	6	9	n/a	n/a	n/a	n/a	0	0	0
2032.042	n/a	REC_WORD	1016021	wordpools/wasnorm_wordpool_576.txt	LTP299	ltpFR2	6	9	KNAPSACK	783	n/a	n/a	0	0	0
2034.838	n/a	REC_WORD	1017419	wordpools/wasnorm_wordpool_576.txt	LTP299	ltpFR2	6	9	FOOTBALL	591	n/a	n/a	0	0	0
2037.268	n/a	REC_WORD	1018634	wordpools/wasnorm_wordpool_576.txt	LTP299	ltpFR2	6	9	DRAWING	494	n/a	n/a	0	0	0
2038.64	n/a	REC_WORD	1019320	wordpools/wasnorm_wordpool_576.txt	LTP299	ltpFR2	6	9	FRAME	600	n/a	n/a	0	0	0
2045.92	n/a	REC_WORD	1022960	wordpools/wasnorm_wordpool_576.txt	LTP299	ltpFR2	6	9	RELISH	1183	n/a	n/a	0	0	0
2048.174	n/a	REC_WORD	1024087	wordpools/wasnorm_wordpool_576.txt	LTP299	ltpFR2	6	9	STOMACH	1384	n/a	n/a	0	0	0
2050.054	n/a	REC_WORD	1025027	wordpools/wasnorm_wordpool_576.txt	LTP299	ltpFR2	6	9	BELLY	119	n/a	n/a	0	0	0
2051.594	n/a	REC_WORD	1025797	wordpools/wasnorm_wordpool_576.txt	LTP299	ltpFR2	6	9	ULCER	1533	n/a	n/a	0	0	0
2058.17	n/a	REC_WORD	1029085	wordpools/wasnorm_wordpool_576.txt	LTP299	ltpFR2	6	9	ZEBRA	1635	n/a	n/a	0	0	0
2060.012	n/a	REC_WORD	1030006	wordpools/wasnorm_wordpool_576.txt	LTP299	ltpFR2	6	9	LION	827	n/a	n/a	0	0	0
2073.224	n/a	REC_WORD	1036612	wordpools/wasnorm_wordpool_576.txt	LTP299	ltpFR2	6	9	THIEF	1456	n/a	n/a	0	0	0
2081.77	n/a	REC_WORD	1040885	wordpools/wasnorm_wordpool_576.txt	LTP299	ltpFR2	6	9	GARBAGE	622	n/a	n/a	0	0	0
2092.912	n/a	REC_WORD	1046456	wordpools/wasnorm_wordpool_576.txt	LTP299	ltpFR2	6	9	PROTON	1132	n/a	n/a	0	0	0
2120.422	n/a	DISTRACTOR	1060211	n/a	LTP299	ltpFR2	6	10	n/a	n/a	n/a	n/a	0	0	0
2120.422	n/a	START	1060211	n/a	LTP299	ltpFR2	6	n/a	n/a	n/a	17	n/a	n/a	n/a	n/a
2120.436	n/a	PROB	1060218	n/a	LTP299	ltpFR2	6	n/a	n/a	n/a	17	14	7	6	1
2122.68	n/a	PROB	1061340	n/a	LTP299	ltpFR2	6	n/a	n/a	n/a	17	13	4	7	2
2124.764	n/a	PROB	1062382	n/a	LTP299	ltpFR2	6	n/a	n/a	n/a	17	9	5	1	3
2127.218	n/a	PROB	1063609	n/a	LTP299	ltpFR2	6	n/a	n/a	n/a	17	8	1	3	4
2128.802	n/a	PROB	1064401	n/a	LTP299	ltpFR2	6	n/a	n/a	n/a	17	21	8	9	5
2132.22	n/a	PROB	1066110	n/a	LTP299	ltpFR2	6	n/a	n/a	n/a	17	20	6	6	8
2136.208	n/a	PROB	1068104	n/a	LTP299	ltpFR2	6	n/a	n/a	n/a	17	4	1	1	2
2137.392	n/a	PROB	1068696	n/a	LTP299	ltpFR2	6	n/a	n/a	n/a	17	10	1	7	2
2139.094	n/a	PROB	1069547	n/a	LTP299	ltpFR2	6	n/a	n/a	n/a	17	18	8	3	7
2140.712	n/a	PROB	1070356	n/a	LTP299	ltpFR2	6	n/a	n/a	n/a	17	11	1	9	1
2142.046	n/a	PROB	1071023	n/a	LTP299	ltpFR2	6	n/a	n/a	n/a	17	16	8	6	2
2143.94	n/a	STOP	1071970	n/a	LTP299	ltpFR2	6	n/a	n/a	n/a	17	n/a	n/a	n/a	n/a
2145.4	n/a	WORD	1072700	wordpools/wasnorm_wordpool_576.txt	LTP299	ltpFR2	6	10	JOURNAL	760	n/a	n/a	0	0	0
2147.93	n/a	WORD	1073965	wordpools/wasnorm_wordpool_576.txt	LTP299	ltpFR2	6	10	SODA	1341	n/a	n/a	0	0	0
2150.67	n/a	WORD	1075335	wordpools/wasnorm_wordpool_576.txt	LTP299	ltpFR2	6	10	PAPER	1011	n/a	n/a	0	0	0
2153.118	n/a	WORD	1076559	wordpools/wasnorm_wordpool_576.txt	LTP299	ltpFR2	6	10	PATIENT	1024	n/a	n/a	0	0	0
2155.552	n/a	WORD	1077776	wordpools/wasnorm_wordpool_576.txt	LTP299	ltpFR2	6	10	BOARD	143	n/a	n/a	0	0	0
2158.004	n/a	WORD	1079002	wordpools/wasnorm_wordpool_576.txt	LTP299	ltpFR2	6	10	PERFUME	1049	n/a	n/a	0	0	0
2160.638	n/a	WORD	1080319	wordpools/wasnorm_wordpool_576.txt	LTP299	ltpFR2	6	10	GARLIC	624	n/a	n/a	0	0	0
2163.358	n/a	WORD	1081679	wordpools/wasnorm_wordpool_576.txt	LTP299	ltpFR2	6	10	MONEY	908	n/a	n/a	0	0	0
2165.832	n/a	WORD	1082916	wordpools/wasnorm_wordpool_576.txt	LTP299	ltpFR2	6	10	OFFICE	972	n/a	n/a	0	0	0
2168.362	n/a	WORD	1084181	wordpools/wasnorm_wordpool_576.txt	LTP299	ltpFR2	6	10	GAVEL	627	n/a	n/a	0	0	0
2171.014	n/a	WORD	1085507	wordpools/wasnorm_wordpool_576.txt	LTP299	ltpFR2	6	10	LABEL	790	n/a	n/a	0	0	0
2173.47	n/a	WORD	1086735	wordpools/wasnorm_wordpool_576.txt	LTP299	ltpFR2	6	10	LAKE	796	n/a	n/a	0	0	0
2176.202	n/a	WORD	1088101	wordpools/wasnorm_wordpool_576.txt	LTP299	ltpFR2	6	10	BALLOON	75	n/a	n/a	0	0	0
2178.99	n/a	WORD	1089495	wordpools/wasnorm_wordpool_576.txt	LTP299	ltpFR2	6	10	GUITAR	670	n/a	n/a	0	0	0
2181.808	n/a	WORD	1090904	wordpools/wasnorm_wordpool_576.txt	LTP299	ltpFR2	6	10	FLUTE	585	n/a	n/a	0	0	0
2184.26	n/a	WORD	1092130	wordpools/wasnorm_wordpool_576.txt	LTP299	ltpFR2	6	10	AUTHOR	61	n/a	n/a	0	0	0
2186.962	n/a	WORD	1093481	wordpools/wasnorm_wordpool_576.txt	LTP299	ltpFR2	6	10	BANK	83	n/a	n/a	0	0	0
2189.634	n/a	WORD	1094817	wordpools/wasnorm_wordpool_576.txt	LTP299	ltpFR2	6	10	TYPIST	1532	n/a	n/a	0	0	0
2192.282	n/a	WORD	1096141	wordpools/wasnorm_wordpool_576.txt	LTP299	ltpFR2	6	10	PACKAGE	997	n/a	n/a	0	0	0
2194.736	n/a	WORD	1097368	wordpools/wasnorm_wordpool_576.txt	LTP299	ltpFR2	6	10	NIGHTGOWN	953	n/a	n/a	0	0	0
2197.49	n/a	WORD	1098745	wordpools/wasnorm_wordpool_576.txt	LTP299	ltpFR2	6	10	COLONEL	348	n/a	n/a	0	0	0
2200.238	n/a	WORD	1100119	wordpools/wasnorm_wordpool_576.txt	LTP299	ltpFR2	6	10	HORNET	718	n/a	n/a	0	0	0
2202.69	n/a	WORD	1101345	wordpools/wasnorm_wordpool_576.txt	LTP299	ltpFR2	6	10	FLOWER	584	n/a	n/a	0	0	0
2205.244	n/a	WORD	1102622	wordpools/wasnorm_wordpool_576.txt	LTP299	ltpFR2	6	10	SHRUB	1299	n/a	n/a	0	0	0
2206.85	n/a	START	1103425	n/a	LTP299	ltpFR2	6	n/a	n/a	n/a	18	n/a	n/a	n/a	n/a
2207.844	n/a	DISTRACTOR	1103922	n/a	LTP299	ltpFR2	6	10	n/a	n/a	n/a	n/a	0	0	0
2207.848	n/a	PROB	1103924	n/a	LTP299	ltpFR2	6	n/a	n/a	n/a	18	16	4	9	3
2211.164	n/a	PROB	1105582	n/a	LTP299	ltpFR2	6	n/a	n/a	n/a	18	12	9	1	2
2213.118	n/a	PROB	1106559	n/a	LTP299	ltpFR2	6	n/a	n/a	n/a	18	12	8	3	1
2216.07	n/a	PROB	1108035	n/a	LTP299	ltpFR2	6	n/a	n/a	n/a	18	8	1	5	2
2218.106	n/a	PROB	1109053	n/a	LTP299	ltpFR2	6	n/a	n/a	n/a	18	22	9	7	6
2221.622	n/a	PROB	1110811	n/a	LTP299	ltpFR2	6	n/a	n/a	n/a	18	16	7	2	7
2223.726	n/a	PROB	1111863	n/a	LTP299	ltpFR2	6	n/a	n/a	n/a	18	13	3	4	6
2225.78	n/a	PROB	1112890	n/a	LTP299	ltpFR2	6	n/a	n/a	n/a	18	19	5	7	7
2227.948	n/a	PROB	1113974	n/a	LTP299	ltpFR2	6	n/a	n/a	n/a	18	15	5	6	4
2229.596	n/a	STOP	1114798	n/a	LTP299	ltpFR2	6	n/a	n/a	n/a	18	n/a	n/a	n/a	n/a
2232.668	n/a	REC_START	1116334	n/a	LTP299	ltpFR2	6	10	n/a	n/a	n/a	n/a	0	0	0
2237.642	n/a	REC_WORD	1118821	wordpools/wasnorm_wordpool_576.txt	LTP299	ltpFR2	6	10	LAKE	796	n/a	n/a	0	0	0
2253.128	n/a	REC_WORD	1126564	wordpools/wasnorm_wordpool_576.txt	LTP299	ltpFR2	6	10	FLUTE	585	n/a	n/a	0	0	0
2257.936	n/a	REC_WORD	1128968	wordpools/wasnorm_wordpool_576.txt	LTP299	ltpFR2	6	10	GUITAR	670	n/a	n/a	0	0	0
2260.084	n/a	REC_WORD	1130042	wordpools/wasnorm_wordpool_576.txt	LTP299	ltpFR2	6	10	GARLIC	624	n/a	n/a	0	0	0
2272.24	n/a	REC_WORD	1136120	wordpools/wasnorm_wordpool_576.txt	LTP299	ltpFR2	6	10	SHRUB	1299	n/a	n/a	0	0	0
2323.104	n/a	WORD	1161552	wordpools/wasnorm_wordpool_576.txt	LTP299	ltpFR2	6	11	HANDBAG	684	n/a	n/a	0	0	0
2325.88	n/a	WORD	1162940	wordpools/wasnorm_wordpool_576.txt	LTP299	ltpFR2	6	11	BADGE	68	n/a	n/a	0	0	0
2328.51	n/a	WORD	1164255	wordpools/wasnorm_wordpool_576.txt	LTP299	ltpFR2	6	11	BRICK	172	n/a	n/a	0	0	0
2331.012	n/a	WORD	1165506	wordpools/wasnorm_wordpool_576.txt	LTP299	ltpFR2	6	11	PLASTER	1085	n/a	n/a	0	0	0
2333.77	n/a	WORD	1166885	wordpools/wasnorm_wordpool_576.txt	LTP299	ltpFR2	6	11	POCKET	1093	n/a	n/a	0	0	0
2336.264	n/a	WORD	1168132	wordpools/wasnorm_wordpool_576.txt	LTP299	ltpFR2	6	11	RAFT	1159	n/a	n/a	0	0	0
2338.918	n/a	WORD	1169459	wordpools/wasnorm_wordpool_576.txt	LTP299	ltpFR2	6	11	DIVER	476	n/a	n/a	0	0	0
2341.626	n/a	WORD	1170813	wordpools/wasnorm_wordpool_576.txt	LTP299	ltpFR2	6	11	CHEMIST	292	n/a	n/a	0	0	0
2344.388	n/a	WORD	1172194	wordpools/wasnorm_wordpool_576.txt	LTP299	ltpFR2	6	11	TRUCK	1512	n/a	n/a	0	0	0
2347.09	n/a	WORD	1173545	wordpools/wasnorm_wordpool_576.txt	LTP299	ltpFR2	6	11	PILOT	1070	n/a	n/a	0	0	0
2349.732	n/a	WORD	1174866	wordpools/wasnorm_wordpool_576.txt	LTP299	ltpFR2	6	11	MACHINE	852	n/a	n/a	0	0	0
2352.362	n/a	WORD	1176181	wordpools/wasnorm_wordpool_576.txt	LTP299	ltpFR2	6	11	CANYON	235	n/a	n/a	0	0	0
2354.838	n/a	WORD	1177419	wordpools/wasnorm_wordpool_576.txt	LTP299	ltpFR2	6	11	ROCKET	1202	n/a	n/a	0	0	0
2357.448	n/a	WORD	1178724	wordpools/wasnorm_wordpool_576.txt	LTP299	ltpFR2	6	11	FOREHEAD	592	n/a	n/a	0	0	0
2360.042	n/a	WORD	1180021	wordpools/wasnorm_wordpool_576.txt	LTP299	ltpFR2	6	11	JELLY	755	n/a	n/a	0	0	0
2362.702	n/a	WORD	1181351	wordpools/wasnorm_wordpool_576.txt	LTP299	ltpFR2	6	11	BLOCKADE	137	n/a	n/a	0	0	0
2365.28	n/a	WORD	1182640	wordpools/wasnorm_wordpool_576.txt	LTP299	ltpFR2	6	11	MAMMAL	861	n/a	n/a	0	0	0
2367.85	n/a	WORD	1183925	wordpools/wasnorm_wordpool_576.txt	LTP299	ltpFR2	6	11	CHIPMUNK	304	n/a	n/a	0	0	0
2370.368	n/a	WORD	1185184	wordpools/wasnorm_wordpool_576.txt	LTP299	ltpFR2	6	11	BUG	187	n/a	n/a	0	0	0
2373.162	n/a	WORD	1186581	wordpools/wasnorm_wordpool_576.txt	LTP299	ltpFR2	6	11	WASP	1593	n/a	n/a	0	0	0
2375.638	n/a	WORD	1187819	wordpools/wasnorm_wordpool_576.txt	LTP299	ltpFR2	6	11	COUSIN	392	n/a	n/a	0	0	0
2378.064	n/a	WORD	1189032	wordpools/wasnorm_wordpool_576.txt	LTP299	ltpFR2	6	11	FEMALE	559	n/a	n/a	0	0	0
2380.482	n/a	WORD	1190241	wordpools/wasnorm_wordpool_576.txt	LTP299	ltpFR2	6	11	BEAST	108	n/a	n/a	0	0	0
2383.26	n/a	WORD	1191630	wordpools/wasnorm_wordpool_576.txt	LTP299	ltpFR2	6	11	PREACHER	1119	n/a	n/a	0	0	0
2384.87	n/a	START	1192435	n/a	LTP299	ltpFR2	6	n/a	n/a	n/a	19	n/a	n/a	n/a	n/a
2385.714	n/a	DISTRACTOR	1192857	n/a	LTP299	ltpFR2	6	11	n/a	n/a	n/a	n/a	0	0	0
2385.72	n/a	PROB	1192860	n/a	LTP299	ltpFR2	6	n/a	n/a	n/a	19	16	3	6	7
2387.604	n/a	PROB	1193802	n/a	LTP299	ltpFR2	6	n/a	n/a	n/a	19	9	2	3	4
2389.572	n/a	PROB	1194786	n/a	LTP299	ltpFR2	6	n/a	n/a	n/a	19	13	1	9	3
2390.99	n/a	PROB	1195495	n/a	LTP299	ltpFR2	6	n/a	n/a	n/a	19	14	8	1	5
2392.54	n/a	PROB	1196270	n/a	LTP299	ltpFR2	6	n/a	n/a	n/a	19	9	2	1	6
2394.292	n/a	PROB	1197146	n/a	LTP299	ltpFR2	6	n/a	n/a	n/a	19	14	4	2	8
2395.812	n/a	PROB	1197906	n/a	LTP299	ltpFR2	6	n/a	n/a	n/a	19	8	2	5	1
2398.362	n/a	PROB	1199181	n/a	LTP299	ltpFR2	6	n/a	n/a	n/a	19	7	1	5	1
2399.664	n/a	PROB	1199832	n/a	LTP299	ltpFR2	6	n/a	n/a	n/a	19	19	4	7	8
2401.918	n/a	PROB	1200959	n/a	LTP299	ltpFR2	6	n/a	n/a	n/a	19	7	1	3	3
2404.7	n/a	PROB	1202350	n/a	LTP299	ltpFR2	6	n/a	n/a	n/a	19	10	2	5	3
2408.87	n/a	STOP	1204435	n/a	LTP299	ltpFR2	6	n/a	n/a	n/a	19	n/a	n/a	n/a	n/a
2410.808	n/a	REC_START	1205404	n/a	LTP299	ltpFR2	6	11	n/a	n/a	n/a	n/a	0	0	0
2412.684	n/a	REC_WORD	1206342	wordpools/wasnorm_wordpool_576.txt	LTP299	ltpFR2	6	11	FEMALE	559	n/a	n/a	0	0	0
2414.062	n/a	REC_WORD	1207031	wordpools/wasnorm_wordpool_576.txt	LTP299	ltpFR2	6	11	BEAST	108	n/a	n/a	0	0	0
2415.286	n/a	REC_WORD	1207643	wordpools/wasnorm_wordpool_576.txt	LTP299	ltpFR2	6	11	PREACHER	1119	n/a	n/a	0	0	0
2417.882	n/a	REC_WORD	1208941	wordpools/wasnorm_wordpool_576.txt	LTP299	ltpFR2	6	11	CHIPMUNK	304	n/a	n/a	0	0	0
2418.998	n/a	REC_WORD	1209499	wordpools/wasnorm_wordpool_576.txt	LTP299	ltpFR2	6	11	MAMMAL	861	n/a	n/a	0	0	0
2420.016	n/a	REC_WORD	1210008	wordpools/wasnorm_wordpool_576.txt	LTP299	ltpFR2	6	11	BLOCKADE	137	n/a	n/a	0	0	0
2421.27	n/a	REC_WORD	1210635	wordpools/wasnorm_wordpool_576.txt	LTP299	ltpFR2	6	11	BUG	187	n/a	n/a	0	0	0
2422.21	n/a	REC_WORD	1211105	wordpools/wasnorm_wordpool_576.txt	LTP299	ltpFR2	6	11	WASP	1593	n/a	n/a	0	0	0
2433.038	n/a	REC_WORD	1216519	wordpools/wasnorm_wordpool_576.txt	LTP299	ltpFR2	6	11	FOREHEAD	592	n/a	n/a	0	0	0
2434.242	n/a	REC_WORD	1217121	wordpools/wasnorm_wordpool_576.txt	LTP299	ltpFR2	6	11	JELLY	755	n/a	n/a	0	0	0
2435.304	n/a	REC_WORD	1217652	wordpools/wasnorm_wordpool_576.txt	LTP299	ltpFR2	6	11	CHEMIST	292	n/a	n/a	0	0	0
2436.508	n/a	REC_WORD	1218254	wordpools/wasnorm_wordpool_576.txt	LTP299	ltpFR2	6	11	ROCKET	1202	n/a	n/a	0	0	0
2452.552	n/a	REC_WORD	1226276	wordpools/wasnorm_wordpool_576.txt	LTP299	ltpFR2	6	11	HANDBAG	684	n/a	n/a	0	0	0
2453.782	n/a	REC_WORD	1226891	wordpools/wasnorm_wordpool_576.txt	LTP299	ltpFR2	6	11	BRICK	172	n/a	n/a	0	0	0
2501.26	n/a	DISTRACTOR	1250630	n/a	LTP299	ltpFR2	6	12	n/a	n/a	n/a	n/a	0	0	0
2501.26	n/a	START	1250630	n/a	LTP299	ltpFR2	6	n/a	n/a	n/a	20	n/a	n/a	n/a	n/a
2501.276	n/a	PROB	1250638	n/a	LTP299	ltpFR2	6	n/a	n/a	n/a	20	13	5	1	7
2503.394	n/a	PROB	1251697	n/a	LTP299	ltpFR2	6	n/a	n/a	n/a	20	13	9	2	2
2505.832	n/a	PROB	1252916	n/a	LTP299	ltpFR2	6	n/a	n/a	n/a	20	8	4	1	3
2508.266	n/a	PROB	1254133	n/a	LTP299	ltpFR2	6	n/a	n/a	n/a	20	19	7	5	7
2510.934	n/a	PROB	1255467	n/a	LTP299	ltpFR2	6	n/a	n/a	n/a	20	20	7	8	5
2515.088	n/a	PROB	1257544	n/a	LTP299	ltpFR2	6	n/a	n/a	n/a	20	14	1	6	7
2516.822	n/a	PROB	1258411	n/a	LTP299	ltpFR2	6	n/a	n/a	n/a	20	11	3	5	3
2518.924	n/a	PROB	1259462	n/a	LTP299	ltpFR2	6	n/a	n/a	n/a	20	10	3	2	5
2521.374	n/a	PROB	1260687	n/a	LTP299	ltpFR2	6	n/a	n/a	n/a	20	22	7	8	7
2524.394	n/a	STOP	1262197	n/a	LTP299	ltpFR2	6	n/a	n/a	n/a	20	n/a	n/a	n/a	n/a
2526.28	n/a	WORD	1263140	wordpools/wasnorm_wordpool_576.txt	LTP299	ltpFR2	6	12	CELLAR	267	n/a	n/a	0	0	0
2528.816	n/a	WORD	1264408	wordpools/wasnorm_wordpool_576.txt	LTP299	ltpFR2	6	12	SEAFOOD	1260	n/a	n/a	0	0	0
2531.534	n/a	WORD	1265767	wordpools/wasnorm_wordpool_576.txt	LTP299	ltpFR2	6	12	OYSTER	995	n/a	n/a	0	0	0
2534.02	n/a	WORD	1267010	wordpools/wasnorm_wordpool_576.txt	LTP299	ltpFR2	6	12	PATROL	1027	n/a	n/a	0	0	0
2536.588	n/a	WORD	1268294	wordpools/wasnorm_wordpool_576.txt	LTP299	ltpFR2	6	12	OZONE	996	n/a	n/a	0	0	0
2539.158	n/a	WORD	1269579	wordpools/wasnorm_wordpool_576.txt	LTP299	ltpFR2	6	12	PECAN	1036	n/a	n/a	0	0	0
2541.826	n/a	WORD	1270913	wordpools/wasnorm_wordpool_576.txt	LTP299	ltpFR2	6	12	GUARD	667	n/a	n/a	0	0	0
2544.578	n/a	WORD	1272289	wordpools/wasnorm_wordpool_576.txt	LTP299	ltpFR2	6	12	LILY	821	n/a	n/a	0	0	0
2547.13	n/a	WORD	1273565	wordpools/wasnorm_wordpool_576.txt	LTP299	ltpFR2	6	12	GARDEN	623	n/a	n/a	0	0	0
2549.85	n/a	WORD	1274925	wordpools/wasnorm_wordpool_576.txt	LTP299	ltpFR2	6	12	COWBOY	395	n/a	n/a	0	0	0
2552.268	n/a	WORD	1276134	wordpools/wasnorm_wordpool_576.txt	LTP299	ltpFR2	6	12	CLAMP	316	n/a	n/a	0	0	0
2554.97	n/a	WORD	1277485	wordpools/wasnorm_wordpool_576.txt	LTP299	ltpFR2	6	12	CASHEW	253	n/a	n/a	0	0	0
2557.738	n/a	WORD	1278869	wordpools/wasnorm_wordpool_576.txt	LTP299	ltpFR2	6	12	RATTLE	1170	n/a	n/a	0	0	0
2560.39	n/a	WORD	1280195	wordpools/wasnorm_wordpool_576.txt	LTP299	ltpFR2	6	12	BANKER	84	n/a	n/a	0	0	0
2562.926	n/a	WORD	1281463	wordpools/wasnorm_wordpool_576.txt	LTP299	ltpFR2	6	12	VALVE	1546	n/a	n/a	0	0	0
2565.36	n/a	WORD	1282680	wordpools/wasnorm_wordpool_576.txt	LTP299	ltpFR2	6	12	SUBWAY	1400	n/a	n/a	0	0	0
2568.064	n/a	WORD	1284032	wordpools/wasnorm_wordpool_576.txt	LTP299	ltpFR2	6	12	CRICKET	408	n/a	n/a	0	0	0
2570.536	n/a	WORD	1285268	wordpools/wasnorm_wordpool_576.txt	LTP299	ltpFR2	6	12	PASSAGE	1019	n/a	n/a	0	0	0
2572.974	n/a	WORD	1286487	wordpools/wasnorm_wordpool_576.txt	LTP299	ltpFR2	6	12	COBRA	336	n/a	n/a	0	0	0
2575.502	n/a	WORD	1287751	wordpools/wasnorm_wordpool_576.txt	LTP299	ltpFR2	6	12	NOVEL	960	n/a	n/a	0	0	0
2578.112	n/a	WORD	1289056	wordpools/wasnorm_wordpool_576.txt	LTP299	ltpFR2	6	12	STICKER	1382	n/a	n/a	0	0	0
2580.906	n/a	WORD	1290453	wordpools/wasnorm_wordpool_576.txt	LTP299	ltpFR2	6	12	WRENCH	1625	n/a	n/a	0	0	0
2583.648	n/a	WORD	1291824	wordpools/wasnorm_wordpool_576.txt	LTP299	ltpFR2	6	12	BRANCH	168	n/a	n/a	0	0	0
2586.418	n/a	WORD	1293209	wordpools/wasnorm_wordpool_576.txt	LTP299	ltpFR2	6	12	SLIDE	1326	n/a	n/a	0	0	0
2588.03	n/a	START	1294015	n/a	LTP299	ltpFR2	6	n/a	n/a	n/a	21	n/a	n/a	n/a	n/a
2589.144	n/a	DISTRACTOR	1294572	n/a	LTP299	ltpFR2	6	12	n/a	n/a	n/a	n/a	0	0	0
2589.154	n/a	PROB	1294577	n/a	LTP299	ltpFR2	6	n/a	n/a	n/a	21	12	5	6	1
2591.178	n/a	PROB	1295589	n/a	LTP299	ltpFR2	6	n/a	n/a	n/a	21	19	1	9	9
2592.916	n/a	PROB	1296458	n/a	LTP299	ltpFR2	6	n/a	n/a	n/a	21	11	1	1	9
2594.414	n/a	PROB	1297207	n/a	LTP299	ltpFR2	6	n/a	n/a	n/a	21	18	7	2	9
2596.252	n/a	PROB	1298126	n/a	LTP299	ltpFR2	6	n/a	n/a	n/a	21	17	3	7	7
2598.452	n/a	PROB	1299226	n/a	LTP299	ltpFR2	6	n/a	n/a	n/a	21	12	2	9	1
2600.252	n/a	PROB	1300126	n/a	LTP299	ltpFR2	6	n/a	n/a	n/a	21	23	6	9	8
2606.892	n/a	PROB	1303446	n/a	LTP299	ltpFR2	6	n/a	n/a	n/a	21	24	8	9	7
2610.754	n/a	STOP	1305377	n/a	LTP299	ltpFR2	6	n/a	n/a	n/a	21	n/a	n/a	n/a	n/a
2613.966	n/a	REC_START	1306983	n/a	LTP299	ltpFR2	6	12	n/a	n/a	n/a	n/a	0	0	0
2616.928	n/a	REC_WORD	1308464	wordpools/wasnorm_wordpool_576.txt	LTP299	ltpFR2	6	12	BRANCH	168	n/a	n/a	0	0	0
2618.06	n/a	REC_WORD	1309030	wordpools/wasnorm_wordpool_576.txt	LTP299	ltpFR2	6	12	SLIDE	1326	n/a	n/a	0	0	0
2624.484	n/a	REC_WORD	1312242	wordpools/wasnorm_wordpool_576.txt	LTP299	ltpFR2	6	12	PECAN	1036	n/a	n/a	0	0	0
2625.788	n/a	REC_WORD	1312894	wordpools/wasnorm_wordpool_576.txt	LTP299	ltpFR2	6	12	CASHEW	253	n/a	n/a	0	0	0
2626.818	n/a	REC_WORD	1313409	wordpools/wasnorm_wordpool_576.txt	LTP299	ltpFR2	6	12	COWBOY	395	n/a	n/a	0	0	0
2628.5	n/a	REC_WORD	1314250	wordpools/wasnorm_wordpool_576.txt	LTP299	ltpFR2	6	12	PATROL	1027	n/a	n/a	0	0	0
2629.75	n/a	REC_WORD	1314875	wordpools/wasnorm_wordpool_576.txt	LTP299	ltpFR2	6	12	GUARD	667	n/a	n/a	0	0	0
2634.768	n/a	REC_WORD	1317384	wordpools/wasnorm_wordpool_576.txt	LTP299	ltpFR2	6	12	OZONE	996	n/a	n/a	0	0	0
2640.516	n/a	REC_WORD	1320258	wordpools/wasnorm_wordpool_576.txt	LTP299	ltpFR2	6	12	OYSTER	995	n/a	n/a	0	0	0
2642.596	n/a	REC_WORD	1321298	wordpools/wasnorm_wordpool_576.txt	LTP299	ltpFR2	6	12	SEAFOOD	1260	n/a	n/a	0	0	0
2644.454	n/a	REC_WORD	1322227	wordpools/wasnorm_wordpool_576.txt	LTP299	ltpFR2	6	12	CELLAR	267	n/a	n/a	0	0	0
2704.436	n/a	WORD	1352218	wordpools/wasnorm_wordpool_576.txt	LTP299	ltpFR2	6	13	VIRUS	1572	n/a	n/a	0	0	0
2706.87	n/a	WORD	1353435	wordpools/wasnorm_wordpool_576.txt	LTP299	ltpFR2	6	13	SALMON	1227	n/a	n/a	0	0	0
2709.438	n/a	WORD	1354719	wordpools/wasnorm_wordpool_576.txt	LTP299	ltpFR2	6	13	BEEF	113	n/a	n/a	0	0	0
2712.008	n/a	WORD	1356004	wordpools/wasnorm_wordpool_576.txt	LTP299	ltpFR2	6	13	CONVICT	371	n/a	n/a	0	0	0
2714.796	n/a	WORD	1357398	wordpools/wasnorm_wordpool_576.txt	LTP299	ltpFR2	6	13	LACE	792	n/a	n/a	0	0	0
2717.578	n/a	WORD	1358789	wordpools/wasnorm_wordpool_576.txt	LTP299	ltpFR2	6	13	HEADBAND	696	n/a	n/a	0	0	0
2720.332	n/a	WORD	1360166	wordpools/wasnorm_wordpool_576.txt	LTP299	ltpFR2	6	13	DANDRUFF	439	n/a	n/a	0	0	0
2723.152	n/a	WORD	1361576	wordpools/wasnorm_wordpool_576.txt	LTP299	ltpFR2	6	13	COUNTRY	388	n/a	n/a	0	0	0
2725.87	n/a	WORD	1362935	wordpools/wasnorm_wordpool_576.txt	LTP299	ltpFR2	6	13	ASIA	46	n/a	n/a	0	0	0
2728.488	n/a	WORD	1364244	wordpools/wasnorm_wordpool_576.txt	LTP299	ltpFR2	6	13	SCARF	1246	n/a	n/a	0	0	0
2731.008	n/a	WORD	1365504	wordpools/wasnorm_wordpool_576.txt	LTP299	ltpFR2	6	13	OX	994	n/a	n/a	0	0	0
2733.624	n/a	WORD	1366812	wordpools/wasnorm_wordpool_576.txt	LTP299	ltpFR2	6	13	WINDOW	1611	n/a	n/a	0	0	0
2736.444	n/a	WORD	1368222	wordpools/wasnorm_wordpool_576.txt	LTP299	ltpFR2	6	13	BEAKER	104	n/a	n/a	0	0	0
2738.896	n/a	WORD	1369448	wordpools/wasnorm_wordpool_576.txt	LTP299	ltpFR2	6	13	APPLE	33	n/a	n/a	0	0	0
2741.398	n/a	WORD	1370699	wordpools/wasnorm_wordpool_576.txt	LTP299	ltpFR2	6	13	CHAMPAGNE	278	n/a	n/a	0	0	0
2744.0	n/a	WORD	1372000	wordpools/wasnorm_wordpool_576.txt	LTP299	ltpFR2	6	13	SWORD	1423	n/a	n/a	0	0	0
2746.618	n/a	WORD	1373309	wordpools/wasnorm_wordpool_576.txt	LTP299	ltpFR2	6	13	FRIAR	605	n/a	n/a	0	0	0
2749.236	n/a	WORD	1374618	wordpools/wasnorm_wordpool_576.txt	LTP299	ltpFR2	6	13	TUTU	1524	n/a	n/a	0	0	0
2751.772	n/a	WORD	1375886	wordpools/wasnorm_wordpool_576.txt	LTP299	ltpFR2	6	13	DRESS	495	n/a	n/a	0	0	0
2754.308	n/a	WORD	1377154	wordpools/wasnorm_wordpool_576.txt	LTP299	ltpFR2	6	13	EMPIRE	530	n/a	n/a	0	0	0
2756.96	n/a	WORD	1378480	wordpools/wasnorm_wordpool_576.txt	LTP299	ltpFR2	6	13	RUST	1219	n/a	n/a	0	0	0
2759.562	n/a	WORD	1379781	wordpools/wasnorm_wordpool_576.txt	LTP299	ltpFR2	6	13	RECORD	1176	n/a	n/a	0	0	0
2762.052	n/a	WORD	1381026	wordpools/wasnorm_wordpool_576.txt	LTP299	ltpFR2	6	13	POET	1095	n/a	n/a	0	0	0
2764.532	n/a	WORD	1382266	wordpools/wasnorm_wordpool_576.txt	LTP299	ltpFR2	6	13	CURTAIN	427	n/a	n/a	0	0	0
2766.138	n/a	START	1383069	n/a	LTP299	ltpFR2	6	n/a	n/a	n/a	22	n/a	n/a	n/a	n/a
2767.004	n/a	DISTRACTOR	1383502	n/a	LTP299	ltpFR2	6	13	n/a	n/a	n/a	n/a	0	0	0
2767.018	n/a	PROB	1383509	n/a	LTP299	ltpFR2	6	n/a	n/a	n/a	22	22	6	7	9
2770.82	n/a	PROB	1385410	n/a	LTP299	ltpFR2	6	n/a	n/a	n/a	22	12	3	7	2
2772.638	n/a	PROB	1386319	n/a	LTP299	ltpFR2	6	n/a	n/a	n/a	22	14	9	1	4
2774.206	n/a	PROB	1387103	n/a	LTP299	ltpFR2	6	n/a	n/a	n/a	22	11	4	1	6
2776.572	n/a	PROB	1388286	n/a	LTP299	ltpFR2	6	n/a	n/a	n/a	22	18	9	5	4
2778.944	n/a	PROB	1389472	n/a	LTP299	ltpFR2	6	n/a	n/a	n/a	22	13	6	3	4
2781.194	n/a	PROB	1390597	n/a	LTP299	ltpFR2	6	n/a	n/a	n/a	22	17	4	8	5
2783.78	n/a	PROB	1391890	n/a	LTP299	ltpFR2	6	n/a	n/a	n/a	22	11	2	3	6
2785.498	n/a	PROB	1392749	n/a	LTP299	ltpFR2	6	n/a	n/a	n/a	22	15	8	3	4
2790.138	n/a	STOP	1395069	n/a	LTP299	ltpFR2	6	n/a	n/a	n/a	22	n/a	n/a	n/a	n/a
2792.02	n/a	REC_START	1396010	n/a	LTP299	ltpFR2	6	13	n/a	n/a	n/a	n/a	0	0	0
2794.48	n/a	REC_WORD	1397240	wordpools/wasnorm_wordpool_576.txt	LTP299	ltpFR2	6	13	EMPIRE	530	n/a	n/a	0	0	0
2795.782	n/a	REC_WORD	1397891	wordpools/wasnorm_wordpool_576.txt	LTP299	ltpFR2	6	13	FRIAR	605	n/a	n/a	0	0	0
2797.03	n/a	REC_WORD	1398515	wordpools/wasnorm_wordpool_576.txt	LTP299	ltpFR2	6	13	SWORD	1423	n/a	n/a	0	0	0
2798.418	n/a	REC_WORD	1399209	wordpools/wasnorm_wordpool_576.txt	LTP299	ltpFR2	6	13	RUST	1219	n/a	n/a	0	0	0
2801.122	n/a	REC_WORD	1400561	wordpools/wasnorm_wordpool_576.txt	LTP299	ltpFR2	6	13	CHAMPAGNE	278	n/a	n/a	0	0	0
2803.326	n/a	REC_WORD	1401663	wordpools/wasnorm_wordpool_576.txt	LTP299	ltpFR2	6	13	APPLE	33	n/a	n/a	0	0	0
2804.768	n/a	REC_WORD	1402384	wordpools/wasnorm_wordpool_576.txt	LTP299	ltpFR2	6	13	WINDOW	1611	n/a	n/a	0	0	0
2806.438	n/a	REC_WORD	1403219	wordpools/wasnorm_wordpool_576.txt	LTP299	ltpFR2	6	13	BEAKER	104	n/a	n/a	0	0	0
2825.114	n/a	REC_WORD	1412557	wordpools/wasnorm_wordpool_576.txt	LTP299	ltpFR2	6	13	VIRUS	1572	n/a	n/a	0	0	0
2826.422	n/a	REC_WORD	1413211	wordpools/wasnorm_wordpool_576.txt	LTP299	ltpFR2	6	13	CONVICT	371	n/a	n/a	0	0	0
2827.63	n/a	REC_WORD	1413815	wordpools/wasnorm_wordpool_576.txt	LTP299	ltpFR2	6	13	BEEF	113	n/a	n/a	0	0	0
2828.664	n/a	REC_WORD	1414332	wordpools/wasnorm_wordpool_576.txt	LTP299	ltpFR2	6	13	SALMON	1227	n/a	n/a	0	0	0
2831.604	n/a	REC_WORD	1415802	wordpools/wasnorm_wordpool_576.txt	LTP299	ltpFR2	6	13	HEADBAND	696	n/a	n/a	0	0	0
2832.614	n/a	REC_WORD	1416307	wordpools/wasnorm_wordpool_576.txt	LTP299	ltpFR2	6	13	DANDRUFF	439	n/a	n/a	0	0	0
2833.644	n/a	REC_WORD	1416822	wordpools/wasnorm_wordpool_576.txt	LTP299	ltpFR2	6	13	SCARF	1246	n/a	n/a	0	0	0
2836.088	n/a	REC_WORD	1418044	wordpools/wasnorm_wordpool_576.txt	LTP299	ltpFR2	6	13	OX	994	n/a	n/a	0	0	0
2837.198	n/a	REC_WORD	1418599	wordpools/wasnorm_wordpool_576.txt	LTP299	ltpFR2	6	13	ASIA	46	n/a	n/a	0	0	0
2862.32	n/a	REC_WORD	1431160	wordpools/wasnorm_wordpool_576.txt	LTP299	ltpFR2	6	13	TUTU	1524	n/a	n/a	0	0	0
2863.24	n/a	REC_WORD	1431620	wordpools/wasnorm_wordpool_576.txt	LTP299	ltpFR2	6	13	DRESS	495	n/a	n/a	0	0	0
2882.456	n/a	WORD	1441228	wordpools/wasnorm_wordpool_576.txt	LTP299	ltpFR2	6	14	BISON	131	n/a	n/a	0	0	0
2885.072	n/a	WORD	1442536	wordpools/wasnorm_wordpool_576.txt	LTP299	ltpFR2	6	14	MILK	895	n/a	n/a	0	0	0
2887.522	n/a	WORD	1443761	wordpools/wasnorm_wordpool_576.txt	LTP299	ltpFR2	6	14	CRUTCH	417	n/a	n/a	0	0	0
2889.976	n/a	WORD	1444988	wordpools/wasnorm_wordpool_576.txt	LTP299	ltpFR2	6	14	LEG	809	n/a	n/a	0	0	0
2892.494	n/a	WORD	1446247	wordpools/wasnorm_wordpool_576.txt	LTP299	ltpFR2	6	14	HEDGE	699	n/a	n/a	0	0	0
2894.996	n/a	WORD	1447498	wordpools/wasnorm_wordpool_576.txt	LTP299	ltpFR2	6	14	TWIG	1527	n/a	n/a	0	0	0
2897.654	n/a	WORD	1448827	wordpools/wasnorm_wordpool_576.txt	LTP299	ltpFR2	6	14	HONEY	713	n/a	n/a	0	0	0
2900.434	n/a	WORD	1450217	wordpools/wasnorm_wordpool_576.txt	LTP299	ltpFR2	6	14	WAGON	1578	n/a	n/a	0	0	0
2903.152	n/a	WORD	1451576	wordpools/wasnorm_wordpool_576.txt	LTP299	ltpFR2	6	14	OMELET	976	n/a	n/a	0	0	0
2905.79	n/a	WORD	1452895	wordpools/wasnorm_wordpool_576.txt	LTP299	ltpFR2	6	14	FOREST	593	n/a	n/a	0	0	0
2908.558	n/a	WORD	1454279	wordpools/wasnorm_wordpool_576.txt	LTP299	ltpFR2	6	14	DENTIST	447	n/a	n/a	0	0	0
2911.158	n/a	WORD	1455579	wordpools/wasnorm_wordpool_576.txt	LTP299	ltpFR2	6	14	YARN	1631	n/a	n/a	0	0	0
2913.796	n/a	WORD	1456898	wordpools/wasnorm_wordpool_576.txt	LTP299	ltpFR2	6	14	SHARK	1275	n/a	n/a	0	0	0
2916.496	n/a	WORD	1458248	wordpools/wasnorm_wordpool_576.txt	LTP299	ltpFR2	6	14	SPOUSE	1358	n/a	n/a	0	0	0
2918.92	n/a	WORD	1459460	wordpools/wasnorm_wordpool_576.txt	LTP299	ltpFR2	6	14	MAPLE	866	n/a	n/a	0	0	0
2921.702	n/a	WORD	1460851	wordpools/wasnorm_wordpool_576.txt	LTP299	ltpFR2	6	14	WARDROBE	1587	n/a	n/a	0	0	0
2924.236	n/a	WORD	1462118	wordpools/wasnorm_wordpool_576.txt	LTP299	ltpFR2	6	14	REBEL	1172	n/a	n/a	0	0	0
2926.656	n/a	WORD	1463328	wordpools/wasnorm_wordpool_576.txt	LTP299	ltpFR2	6	14	CORAL	378	n/a	n/a	0	0	0
2929.39	n/a	WORD	1464695	wordpools/wasnorm_wordpool_576.txt	LTP299	ltpFR2	6	14	HUSBAND	728	n/a	n/a	0	0	0
2932.132	n/a	WORD	1466066	wordpools/wasnorm_wordpool_576.txt	LTP299	ltpFR2	6	14	ROOSTER	1209	n/a	n/a	0	0	0
2934.68	n/a	WORD	1467340	wordpools/wasnorm_wordpool_576.txt	LTP299	ltpFR2	6	14	WHISKERS	1605	n/a	n/a	0	0	0
2937.498	n/a	WORD	1468749	wordpools/wasnorm_wordpool_576.txt	LTP299	ltpFR2	6	14	JUDGE	761	n/a	n/a	0	0	0
2940.068	n/a	WORD	1470034	wordpools/wasnorm_wordpool_576.txt	LTP299	ltpFR2	6	14	BACKBONE	66	n/a	n/a	0	0	0
2942.888	n/a	WORD	1471444	wordpools/wasnorm_wordpool_576.txt	LTP299	ltpFR2	6	14	GANGSTER	620	n/a	n/a	0	0	0
2944.506	n/a	START	1472253	n/a	LTP299	ltpFR2	6	n/a	n/a	n/a	23	n/a	n/a	n/a	n/a
2945.698	n/a	DISTRACTOR	1472849	n/a	LTP299	ltpFR2	6	14	n/a	n/a	n/a	n/a	0	0	0
2945.706	n/a	PROB	1472853	n/a	LTP299	ltpFR2	6	n/a	n/a	n/a	23	10	1	5	4
2947.442	n/a	PROB	1473721	n/a	LTP299	ltpFR2	6	n/a	n/a	n/a	23	19	6	9	4
2949.526	n/a	PROB	1474763	n/a	LTP299	ltpFR2	6	n/a	n/a	n/a	23	13	5	7	1
2952.228	n/a	PROB	1476114	n/a	LTP299	ltpFR2	6	n/a	n/a	n/a	23	12	4	5	3
2953.878	n/a	PROB	1476939	n/a	LTP299	ltpFR2	6	n/a	n/a	n/a	23	15	5	8	2
2955.448	n/a	PROB	1477724	n/a	LTP299	ltpFR2	6	n/a	n/a	n/a	23	12	3	6	3
2958.098	n/a	PROB	1479049	n/a	LTP299	ltpFR2	6	n/a	n/a	n/a	23	9	2	1	6
2959.532	n/a	PROB	1479766	n/a	LTP299	ltpFR2	6	n/a	n/a	n/a	23	19	6	4	9
2961.302	n/a	PROB	1480651	n/a	LTP299	ltpFR2	6	n/a	n/a	n/a	23	13	7	1	5
2963.736	n/a	PROB	1481868	n/a	LTP299	ltpFR2	6	n/a	n/a	n/a	23	18	3	6	9
2965.388	n/a	PROB	1482694	n/a	LTP299	ltpFR2	6	n/a	n/a	n/a	23	11	2	7	2
2967.098	n/a	STOP	1483549	n/a	LTP299	ltpFR2	6	n/a	n/a	n/a	23	n/a	n/a	n/a	n/a
2970.358	n/a	REC_START	1485179	n/a	LTP299	ltpFR2	6	14	n/a	n/a	n/a	n/a	0	0	0
2971.274	n/a	REC_WORD	1485637	wordpools/wasnorm_wordpool_576.txt	LTP299	ltpFR2	6	14	HUSBAND	728	n/a	n/a	0	0	0
2972.346	n/a	REC_WORD	1486173	wordpools/wasnorm_wordpool_576.txt	LTP299	ltpFR2	6	14	WHISKERS	1605	n/a	n/a	0	0	0
2973.528	n/a	REC_WORD	1486764	wordpools/wasnorm_wordpool_576.txt	LTP299	ltpFR2	6	14	BACKBONE	66	n/a	n/a	0	0	0
2982.264	n/a	REC_WORD	1491132	wordpools/wasnorm_wordpool_576.txt	LTP299	ltpFR2	6	14	CORAL	378	n/a	n/a	0	0	0
2991.816	n/a	REC_WORD	1495908	wordpools/wasnorm_wordpool_576.txt	LTP299	ltpFR2	6	14	JUDGE	761	n/a	n/a	0	0	0
3018.6	n/a	REC_WORD	1509300	wordpools/wasnorm_wordpool_576.txt	LTP299	ltpFR2	6	14	HEDGE	699	n/a	n/a	0	0	0
3019.454	n/a	REC_WORD	1509727	wordpools/wasnorm_wordpool_576.txt	LTP299	ltpFR2	6	14	TWIG	1527	n/a	n/a	0	0	0
3020.38	n/a	REC_WORD	1510190	wordpools/wasnorm_wordpool_576.txt	LTP299	ltpFR2	6	14	MAPLE	866	n/a	n/a	0	0	0
3021.306	n/a	REC_WORD	1510653	wordpools/wasnorm_wordpool_576.txt	LTP299	ltpFR2	6	14	FOREST	593	n/a	n/a	0	0	0
3028.46	n/a	REC_WORD	1514230	wordpools/wasnorm_wordpool_576.txt	LTP299	ltpFR2	6	14	WARDROBE	1587	n/a	n/a	0	0	0
3060.796	n/a	WORD	1530398	wordpools/wasnorm_wordpool_576.txt	LTP299	ltpFR2	6	15	SERVANT	1271	n/a	n/a	0	0	0
3063.372	n/a	WORD	1531686	wordpools/wasnorm_wordpool_576.txt	LTP299	ltpFR2	6	15	SIDEWALK	1303	n/a	n/a	0	0	0
3065.91	n/a	WORD	1532955	wordpools/wasnorm_wordpool_576.txt	LTP299	ltpFR2	6	15	HIGHWAY	707	n/a	n/a	0	0	0
3068.336	n/a	WORD	1534168	wordpools/wasnorm_wordpool_576.txt	LTP299	ltpFR2	6	15	SNAIL	1332	n/a	n/a	0	0	0
3071.038	n/a	WORD	1535519	wordpools/wasnorm_wordpool_576.txt	LTP299	ltpFR2	6	15	PUPIL	1143	n/a	n/a	0	0	0
3073.606	n/a	WORD	1536803	wordpools/wasnorm_wordpool_576.txt	LTP299	ltpFR2	6	15	FLIPPER	580	n/a	n/a	0	0	0
3076.284	n/a	WORD	1538142	wordpools/wasnorm_wordpool_576.txt	LTP299	ltpFR2	6	15	INFANT	737	n/a	n/a	0	0	0
3078.718	n/a	WORD	1539359	wordpools/wasnorm_wordpool_576.txt	LTP299	ltpFR2	6	15	NOMAD	955	n/a	n/a	0	0	0
3081.314	n/a	WORD	1540657	wordpools/wasnorm_wordpool_576.txt	LTP299	ltpFR2	6	15	ACTRESS	6	n/a	n/a	0	0	0
3083.8	n/a	WORD	1541900	wordpools/wasnorm_wordpool_576.txt	LTP299	ltpFR2	6	15	MATTRESS	879	n/a	n/a	0	0	0
3086.582	n/a	WORD	1543291	wordpools/wasnorm_wordpool_576.txt	LTP299	ltpFR2	6	15	KETCHUP	771	n/a	n/a	0	0	0
3089.176	n/a	WORD	1544588	wordpools/wasnorm_wordpool_576.txt	LTP299	ltpFR2	6	15	KLEENEX	782	n/a	n/a	0	0	0
3091.654	n/a	WORD	1545827	wordpools/wasnorm_wordpool_576.txt	LTP299	ltpFR2	6	15	SLUG	1329	n/a	n/a	0	0	0
3094.298	n/a	WORD	1547149	wordpools/wasnorm_wordpool_576.txt	LTP299	ltpFR2	6	15	COD	340	n/a	n/a	0	0	0
3097.0	n/a	WORD	1548500	wordpools/wasnorm_wordpool_576.txt	LTP299	ltpFR2	6	15	LIVER	833	n/a	n/a	0	0	0
3099.668	n/a	WORD	1549834	wordpools/wasnorm_wordpool_576.txt	LTP299	ltpFR2	6	15	BODY	145	n/a	n/a	0	0	0
3102.322	n/a	WORD	1551161	wordpools/wasnorm_wordpool_576.txt	LTP299	ltpFR2	6	15	TROUT	1511	n/a	n/a	0	0	0
3105.016	n/a	WORD	1552508	wordpools/wasnorm_wordpool_576.txt	LTP299	ltpFR2	6	15	HAND	683	n/a	n/a	0	0	0
3107.828	n/a	WORD	1553914	wordpools/wasnorm_wordpool_576.txt	LTP299	ltpFR2	6	15	TOMBSTONE	1478	n/a	n/a	0	0	0
3110.286	n/a	WORD	1555143	wordpools/wasnorm_wordpool_576.txt	LTP299	ltpFR2	6	15	PIZZA	1079	n/a	n/a	0	0	0
3112.782	n/a	WORD	1556391	wordpools/wasnorm_wordpool_576.txt	LTP299	ltpFR2	6	15	ARM	38	n/a	n/a	0	0	0
3115.39	n/a	WORD	1557695	wordpools/wasnorm_wordpool_576.txt	LTP299	ltpFR2	6	15	MILDEW	893	n/a	n/a	0	0	0
3117.826	n/a	WORD	1558913	wordpools/wasnorm_wordpool_576.txt	LTP299	ltpFR2	6	15	FRAGRANCE	599	n/a	n/a	0	0	0
3120.52	n/a	WORD	1560260	wordpools/wasnorm_wordpool_576.txt	LTP299	ltpFR2	6	15	STALLION	1369	n/a	n/a	0	0	0
3122.13	n/a	START	1561065	n/a	LTP299	ltpFR2	6	n/a	n/a	n/a	24	n/a	n/a	n/a	n/a
3123.122	n/a	DISTRACTOR	1561561	n/a	LTP299	ltpFR2	6	15	n/a	n/a	n/a	n/a	0	0	0
3123.13	n/a	PROB	1561565	n/a	LTP299	ltpFR2	6	n/a	n/a	n/a	24	17	4	4	9
3125.346	n/a	PROB	1562673	n/a	LTP299	ltpFR2	6	n/a	n/a	n/a	24	10	5	1	4
3127.482	n/a	PROB	1563741	n/a	LTP299	ltpFR2	6	n/a	n/a	n/a	24	14	4	6	4
3129.068	n/a	PROB	1564534	n/a	LTP299	ltpFR2	6	n/a	n/a	n/a	24	10	3	5	2
3131.05	n/a	PROB	1565525	n/a	LTP299	ltpFR2	6	n/a	n/a	n/a	24	6	1	2	3
3132.318	n/a	PROB	1566159	n/a	LTP299	ltpFR2	6	n/a	n/a	n/a	24	20	7	5	8
3134.518	n/a	PROB	1567259	n/a	LTP299	ltpFR2	6	n/a	n/a	n/a	24	15	9	3	3
3136.54	n/a	PROB	1568270	n/a	LTP299	ltpFR2	6	n/a	n/a	n/a	24	16	2	8	6
3137.974	n/a	PROB	1568987	n/a	LTP299	ltpFR2	6	n/a	n/a	n/a	24	17	7	2	8
3140.24	n/a	PROB	1570120	n/a	LTP299	ltpFR2	6	n/a	n/a	n/a	24	19	8	6	5
3142.044	n/a	PROB	1571022	n/a	LTP299	ltpFR2	6	n/a	n/a	n/a	24	19	2	9	8
3146.13	n/a	STOP	1573065	n/a	LTP299	ltpFR2	6	n/a	n/a	n/a	24	n/a	n/a	n/a	n/a
3147.95	n/a	REC_START	1573975	n/a	LTP299	ltpFR2	6	15	n/a	n/a	n/a	n/a	0	0	0
3150.574	n/a	REC_WORD	1575287	wordpools/wasnorm_wordpool_576.txt	LTP299	ltpFR2	6	15	MILDEW	893	n/a	n/a	0	0	0
3157.204	n/a	REC_WORD	1578602	wordpools/wasnorm_wordpool_576.txt	LTP299	ltpFR2	6	15	SLUG	1329	n/a	n/a	0	0	0
3158.288	n/a	REC_WORD	1579144	wordpools/wasnorm_wordpool_576.txt	LTP299	ltpFR2	6	15	SNAIL	1332	n/a	n/a	0	0	0
3160.79	n/a	REC_WORD	1580395	wordpools/wasnorm_wordpool_576.txt	LTP299	ltpFR2	6	15	SERVANT	1271	n/a	n/a	0	0	0
3162.03	n/a	REC_WORD	1581015	wordpools/wasnorm_wordpool_576.txt	LTP299	ltpFR2	6	15	HIGHWAY	707	n/a	n/a	0	0	0
3162.994	n/a	REC_WORD	1581497	wordpools/wasnorm_wordpool_576.txt	LTP299	ltpFR2	6	15	SIDEWALK	1303	n/a	n/a	0	0	0
3207.582	n/a	REC_WORD	1603791	wordpools/wasnorm_wordpool_576.txt	LTP299	ltpFR2	6	15	TOMBSTONE	1478	n/a	n/a	0	0	0
3220.198	n/a	REC_WORD	1610099	wordpools/wasnorm_wordpool_576.txt	LTP299	ltpFR2	6	15	FLIPPER	580	n/a	n/a	0	0	0
3238.418	n/a	WORD	1619209	wordpools/wasnorm_wordpool_576.txt	LTP299	ltpFR2	6	16	PICTURE	1061	n/a	n/a	0	0	0
3241.006	n/a	WORD	1620503	wordpools/wasnorm_wordpool_576.txt	LTP299	ltpFR2	6	16	WITNESS	1618	n/a	n/a	0	0	0
3243.706	n/a	WORD	1621853	wordpools/wasnorm_wordpool_576.txt	LTP299	ltpFR2	6	16	GRAVEL	659	n/a	n/a	0	0	0
3246.392	n/a	WORD	1623196	wordpools/wasnorm_wordpool_576.txt	LTP299	ltpFR2	6	16	SIBLING	1301	n/a	n/a	0	0	0
3248.912	n/a	WORD	1624456	wordpools/wasnorm_wordpool_576.txt	LTP299	ltpFR2	6	16	SISTER	1312	n/a	n/a	0	0	0
3251.594	n/a	WORD	1625797	wordpools/wasnorm_wordpool_576.txt	LTP299	ltpFR2	6	16	AWARD	63	n/a	n/a	0	0	0
3254.398	n/a	WORD	1627199	wordpools/wasnorm_wordpool_576.txt	LTP299	ltpFR2	6	16	LIPSTICK	829	n/a	n/a	0	0	0
3257.034	n/a	WORD	1628517	wordpools/wasnorm_wordpool_576.txt	LTP299	ltpFR2	6	16	SLOPE	1328	n/a	n/a	0	0	0
3259.652	n/a	WORD	1629826	wordpools/wasnorm_wordpool_576.txt	LTP299	ltpFR2	6	16	STAMP	1370	n/a	n/a	0	0	0
3262.288	n/a	WORD	1631144	wordpools/wasnorm_wordpool_576.txt	LTP299	ltpFR2	6	16	LIGHTNING	820	n/a	n/a	0	0	0
3265.024	n/a	WORD	1632512	wordpools/wasnorm_wordpool_576.txt	LTP299	ltpFR2	6	16	EYELASH	546	n/a	n/a	0	0	0
3267.742	n/a	WORD	1633871	wordpools/wasnorm_wordpool_576.txt	LTP299	ltpFR2	6	16	MEDAL	885	n/a	n/a	0	0	0
3270.21	n/a	WORD	1635105	wordpools/wasnorm_wordpool_576.txt	LTP299	ltpFR2	6	16	BLACKBOARD	133	n/a	n/a	0	0	0
3272.796	n/a	WORD	1636398	wordpools/wasnorm_wordpool_576.txt	LTP299	ltpFR2	6	16	OUTFIT	988	n/a	n/a	0	0	0
3275.414	n/a	WORD	1637707	wordpools/wasnorm_wordpool_576.txt	LTP299	ltpFR2	6	16	COSTUME	383	n/a	n/a	0	0	0
3278.204	n/a	WORD	1639102	wordpools/wasnorm_wordpool_576.txt	LTP299	ltpFR2	6	16	EXPERT	543	n/a	n/a	0	0	0
3280.702	n/a	WORD	1640351	wordpools/wasnorm_wordpool_576.txt	LTP299	ltpFR2	6	16	TEACHER	1440	n/a	n/a	0	0	0
3283.41	n/a	WORD	1641705	wordpools/wasnorm_wordpool_576.txt	LTP299	ltpFR2	6	16	LODGE	839	n/a	n/a	0	0	0
3286.156	n/a	WORD	1643078	wordpools/wasnorm_wordpool_576.txt	LTP299	ltpFR2	6	16	COURSE	390	n/a	n/a	0	0	0
3288.774	n/a	WORD	1644387	wordpools/wasnorm_wordpool_576.txt	LTP299	ltpFR2	6	16	TOURIST	1488	n/a	n/a	0	0	0
3291.442	n/a	WORD	1645721	wordpools/wasnorm_wordpool_576.txt	LTP299	ltpFR2	6	16	TABLET	1427	n/a	n/a	0	0	0
3293.886	n/a	WORD	1646943	wordpools/wasnorm_wordpool_576.txt	LTP299	ltpFR2	6	16	OUTDOORS	987	n/a	n/a	0	0	0
3296.58	n/a	WORD	1648290	wordpools/wasnorm_wordpool_576.txt	LTP299	ltpFR2	6	16	RAZOR	1171	n/a	n/a	0	0	0
3299.056	n/a	WORD	1649528	wordpools/wasnorm_wordpool_576.txt	LTP299	ltpFR2	6	16	BIKE	125	n/a	n/a	0	0	0
3300.668	n/a	START	1650334	n/a	LTP299	ltpFR2	6	n/a	n/a	n/a	25	n/a	n/a	n/a	n/a
3301.842	n/a	DISTRACTOR	1650921	n/a	LTP299	ltpFR2	6	16	n/a	n/a	n/a	n/a	0	0	0
3301.854	n/a	PROB	1650927	n/a	LTP299	ltpFR2	6	n/a	n/a	n/a	25	11	2	6	3
3306.504	n/a	PROB	1653252	n/a	LTP299	ltpFR2	6	n/a	n/a	n/a	25	16	8	7	1
3308.04	n/a	PROB	1654020	n/a	LTP299	ltpFR2	6	n/a	n/a	n/a	25	26	8	8	9
3311.758	n/a	PROB	1655879	n/a	LTP299	ltpFR2	6	n/a	n/a	n/a	25	21	8	7	6
3314.16	n/a	PROB	1657080	n/a	LTP299	ltpFR2	6	n/a	n/a	n/a	25	11	4	6	1
3316.044	n/a	PROB	1658022	n/a	LTP299	ltpFR2	6	n/a	n/a	n/a	25	15	3	4	8
3319.798	n/a	PROB	1659899	n/a	LTP299	ltpFR2	6	n/a	n/a	n/a	25	21	8	8	5
3322.9	n/a	PROB	1661450	n/a	LTP299	ltpFR2	6	n/a	n/a	n/a	25	4	1	1	2
3324.056	n/a	STOP	1662028	n/a	LTP299	ltpFR2	6	n/a	n/a	n/a	25	n/a	n/a	n/a	n/a
3326.454	n/a	REC_START	1663227	n/a	LTP299	ltpFR2	6	16	n/a	n/a	n/a	n/a	0	0	0
3327.504	n/a	REC_WORD	1663752	wordpools/wasnorm_wordpool_576.txt	LTP299	ltpFR2	6	16	OUTDOORS	987	n/a	n/a	0	0	0
3328.578	n/a	REC_WORD	1664289	wordpools/wasnorm_wordpool_576.txt	LTP299	ltpFR2	6	16	RAZOR	1171	n/a	n/a	0	0	0
3329.81	n/a	REC_WORD	1664905	wordpools/wasnorm_wordpool_576.txt	LTP299	ltpFR2	6	16	BIKE	125	n/a	n/a	0	0	0
3344.996	n/a	REC_WORD	1672498	wordpools/wasnorm_wordpool_576.txt	LTP299	ltpFR2	6	16	PICTURE	1061	n/a	n/a	0	0	0
3347.006	n/a	REC_WORD	1673503	wordpools/wasnorm_wordpool_576.txt	LTP299	ltpFR2	6	16	GRAVEL	659	n/a	n/a	0	0	0
3350.206	n/a	REC_WORD	1675103	wordpools/wasnorm_wordpool_576.txt	LTP299	ltpFR2	6	16	SIBLING	1301	n/a	n/a	0	0	0
3351.282	n/a	REC_WORD	1675641	wordpools/wasnorm_wordpool_576.txt	LTP299	ltpFR2	6	16	SISTER	1312	n/a	n/a	0	0	0
3352.882	n/a	REC_WORD	1676441	wordpools/wasnorm_wordpool_576.txt	LTP299	ltpFR2	6	16	AWARD	63	n/a	n/a	0	0	0
3354.976	n/a	REC_WORD	1677488	wordpools/wasnorm_wordpool_576.txt	LTP299	ltpFR2	6	16	MEDAL	885	n/a	n/a	0	0	0
3402.994	n/a	REST_REWET	1701497	n/a	LTP299	ltpFR2	6	16	n/a	n/a	n/a	n/a	0	0	0
3527.528	n/a	WORD	1763764	wordpools/wasnorm_wordpool_576.txt	LTP299	ltpFR2	6	17	FARMER	553	n/a	n/a	0	0	0
3530.33	n/a	WORD	1765165	wordpools/wasnorm_wordpool_576.txt	LTP299	ltpFR2	6	17	PICNIC	1060	n/a	n/a	0	0	0
3532.972	n/a	WORD	1766486	wordpools/wasnorm_wordpool_576.txt	LTP299	ltpFR2	6	17	MUFFIN	929	n/a	n/a	0	0	0
3535.482	n/a	WORD	1767741	wordpools/wasnorm_wordpool_576.txt	LTP299	ltpFR2	6	17	CHEST	295	n/a	n/a	0	0	0
3537.976	n/a	WORD	1768988	wordpools/wasnorm_wordpool_576.txt	LTP299	ltpFR2	6	17	FILM	565	n/a	n/a	0	0	0
3540.694	n/a	WORD	1770347	wordpools/wasnorm_wordpool_576.txt	LTP299	ltpFR2	6	17	LAGOON	795	n/a	n/a	0	0	0
3543.162	n/a	WORD	1771581	wordpools/wasnorm_wordpool_576.txt	LTP299	ltpFR2	6	17	POSSUM	1112	n/a	n/a	0	0	0
3545.724	n/a	WORD	1772862	wordpools/wasnorm_wordpool_576.txt	LTP299	ltpFR2	6	17	LADDER	793	n/a	n/a	0	0	0
3548.378	n/a	WORD	1774189	wordpools/wasnorm_wordpool_576.txt	LTP299	ltpFR2	6	17	PEANUT	1032	n/a	n/a	0	0	0
3550.804	n/a	WORD	1775402	wordpools/wasnorm_wordpool_576.txt	LTP299	ltpFR2	6	17	PADDLE	1000	n/a	n/a	0	0	0
3553.556	n/a	WORD	1776778	wordpools/wasnorm_wordpool_576.txt	LTP299	ltpFR2	6	17	MARINE	869	n/a	n/a	0	0	0
3556.216	n/a	WORD	1778108	wordpools/wasnorm_wordpool_576.txt	LTP299	ltpFR2	6	17	CHURCH	307	n/a	n/a	0	0	0
3558.692	n/a	WORD	1779346	wordpools/wasnorm_wordpool_576.txt	LTP299	ltpFR2	6	17	MONSTER	912	n/a	n/a	0	0	0
3561.238	n/a	WORD	1780619	wordpools/wasnorm_wordpool_576.txt	LTP299	ltpFR2	6	17	WRIST	1626	n/a	n/a	0	0	0
3564.03	n/a	WORD	1782015	wordpools/wasnorm_wordpool_576.txt	LTP299	ltpFR2	6	17	SANDWICH	1232	n/a	n/a	0	0	0
3566.616	n/a	WORD	1783308	wordpools/wasnorm_wordpool_576.txt	LTP299	ltpFR2	6	17	AIRPLANE	12	n/a	n/a	0	0	0
3569.078	n/a	WORD	1784539	wordpools/wasnorm_wordpool_576.txt	LTP299	ltpFR2	6	17	PARROT	1015	n/a	n/a	0	0	0
3571.57	n/a	WORD	1785785	wordpools/wasnorm_wordpool_576.txt	LTP299	ltpFR2	6	17	BEAVER	109	n/a	n/a	0	0	0
3574.082	n/a	WORD	1787041	wordpools/wasnorm_wordpool_576.txt	LTP299	ltpFR2	6	17	PUPPY	1144	n/a	n/a	0	0	0
3576.884	n/a	WORD	1788442	wordpools/wasnorm_wordpool_576.txt	LTP299	ltpFR2	6	17	HOUND	724	n/a	n/a	0	0	0
3579.616	n/a	WORD	1789808	wordpools/wasnorm_wordpool_576.txt	LTP299	ltpFR2	6	17	ELBOW	520	n/a	n/a	0	0	0
3582.104	n/a	WORD	1791052	wordpools/wasnorm_wordpool_576.txt	LTP299	ltpFR2	6	17	SPONGE	1355	n/a	n/a	0	0	0
3584.564	n/a	WORD	1792282	wordpools/wasnorm_wordpool_576.txt	LTP299	ltpFR2	6	17	CAMEL	223	n/a	n/a	0	0	0
3587.134	n/a	WORD	1793567	wordpools/wasnorm_wordpool_576.txt	LTP299	ltpFR2	6	17	AIRPORT	13	n/a	n/a	0	0	0
3588.742	n/a	START	1794371	n/a	LTP299	ltpFR2	6	n/a	n/a	n/a	26	n/a	n/a	n/a	n/a
3589.568	n/a	DISTRACTOR	1794784	n/a	LTP299	ltpFR2	6	17	n/a	n/a	n/a	n/a	0	0	0
3589.576	n/a	PROB	1794788	n/a	LTP299	ltpFR2	6	n/a	n/a	n/a	26	22	8	9	5
3594.528	n/a	PROB	1797264	n/a	LTP299	ltpFR2	6	n/a	n/a	n/a	26	8	2	1	5
3598.95	n/a	PROB	1799475	n/a	LTP299	ltpFR2	6	n/a	n/a	n/a	26	14	9	2	3
3602.02	n/a	PROB	1801010	n/a	LTP299	ltpFR2	6	n/a	n/a	n/a	26	22	9	8	5
3605.32	n/a	PROB	1802660	n/a	LTP299	ltpFR2	6	n/a	n/a	n/a	26	19	5	7	7
3607.238	n/a	PROB	1803619	n/a	LTP299	ltpFR2	6	n/a	n/a	n/a	26	8	1	3	4
3608.624	n/a	PROB	1804312	n/a	LTP299	ltpFR2	6	n/a	n/a	n/a	26	15	3	8	4
3610.508	n/a	PROB	1805254	n/a	LTP299	ltpFR2	6	n/a	n/a	n/a	26	14	7	5	2
3612.7	n/a	STOP	1806350	n/a	LTP299	ltpFR2	6	n/a	n/a	n/a	26	n/a	n/a	n/a	n/a
3614.496	n/a	REC_START	1807248	n/a	LTP299	ltpFR2	6	17	n/a	n/a	n/a	n/a	0	0	0
3615.596	n/a	REC_WORD	1807798	wordpools/wasnorm_wordpool_576.txt	LTP299	ltpFR2	6	17	AIRPORT	13	n/a	n/a	0	0	0
3616.886	n/a	REC_WORD	1808443	wordpools/wasnorm_wordpool_576.txt	LTP299	ltpFR2	6	17	AIRPLANE	12	n/a	n/a	0	0	0
3620.35	n/a	REC_WORD	1810175	wordpools/wasnorm_wordpool_576.txt	LTP299	ltpFR2	6	17	FARMER	553	n/a	n/a	0	0	0
3621.69	n/a	REC_WORD	1810845	wordpools/wasnorm_wordpool_576.txt	LTP299	ltpFR2	6	17	MUFFIN	929	n/a	n/a	0	0	0
3622.512	n/a	REC_WORD	1811256	wordpools/wasnorm_wordpool_576.txt	LTP299	ltpFR2	6	17	PICNIC	1060	n/a	n/a	0	0	0
3623.35	n/a	REC_WORD	1811675	wordpools/wasnorm_wordpool_576.txt	LTP299	ltpFR2	6	17	LADDER	793	n/a	n/a	0	0	0
3628.118	n/a	REC_WORD	1814059	wordpools/wasnorm_wordpool_576.txt	LTP299	ltpFR2	6	17	SPONGE	1355	n/a	n/a	0	0	0
3630.744	n/a	REC_WORD	1815372	wordpools/wasnorm_wordpool_576.txt	LTP299	ltpFR2	6	17	SANDWICH	1232	n/a	n/a	0	0	0
3631.466	n/a	REC_WORD	1815733	wordpools/wasnorm_wordpool_576.txt	LTP299	ltpFR2	6	17	PEANUT	1032	n/a	n/a	0	0	0
3636.44	n/a	REC_WORD	1818220	wordpools/wasnorm_wordpool_576.txt	LTP299	ltpFR2	6	17	MARINE	869	n/a	n/a	0	0	0
3637.678	n/a	REC_WORD	1818839	wordpools/wasnorm_wordpool_576.txt	LTP299	ltpFR2	6	17	PADDLE	1000	n/a	n/a	0	0	0
3639.526	n/a	REC_WORD	1819763	wordpools/wasnorm_wordpool_576.txt	LTP299	ltpFR2	6	17	BEAVER	109	n/a	n/a	0	0	0
3640.81	n/a	REC_WORD	1820405	wordpools/wasnorm_wordpool_576.txt	LTP299	ltpFR2	6	17	PUPPY	1144	n/a	n/a	0	0	0
3641.732	n/a	REC_WORD	1820866	wordpools/wasnorm_wordpool_576.txt	LTP299	ltpFR2	6	17	HOUND	724	n/a	n/a	0	0	0
3652.378	n/a	REC_WORD	1826189	wordpools/wasnorm_wordpool_576.txt	LTP299	ltpFR2	6	17	CAMEL	223	n/a	n/a	0	0	0
3671.788	n/a	REC_WORD	1835894	wordpools/wasnorm_wordpool_576.txt	LTP299	ltpFR2	6	17	MONSTER	912	n/a	n/a	0	0	0
3677.56	n/a	REC_WORD	1838780	wordpools/wasnorm_wordpool_576.txt	LTP299	ltpFR2	6	17	WRIST	1626	n/a	n/a	0	0	0
3704.966	n/a	WORD	1852483	wordpools/wasnorm_wordpool_576.txt	LTP299	ltpFR2	6	18	FRECKLE	602	n/a	n/a	0	0	0
3707.702	n/a	WORD	1853851	wordpools/wasnorm_wordpool_576.txt	LTP299	ltpFR2	6	18	YACHT	1629	n/a	n/a	0	0	0
3710.504	n/a	WORD	1855252	wordpools/wasnorm_wordpool_576.txt	LTP299	ltpFR2	6	18	LEADER	807	n/a	n/a	0	0	0
3713.306	n/a	WORD	1856653	wordpools/wasnorm_wordpool_576.txt	LTP299	ltpFR2	6	18	GIFT	635	n/a	n/a	0	0	0
3715.74	n/a	WORD	1857870	wordpools/wasnorm_wordpool_576.txt	LTP299	ltpFR2	6	18	WAITRESS	1581	n/a	n/a	0	0	0
3718.258	n/a	WORD	1859129	wordpools/wasnorm_wordpool_576.txt	LTP299	ltpFR2	6	18	LUNCH	849	n/a	n/a	0	0	0
3720.878	n/a	WORD	1860439	wordpools/wasnorm_wordpool_576.txt	LTP299	ltpFR2	6	18	SAUSAGE	1238	n/a	n/a	0	0	0
3723.546	n/a	WORD	1861773	wordpools/wasnorm_wordpool_576.txt	LTP299	ltpFR2	6	18	CLAM	315	n/a	n/a	0	0	0
3726.248	n/a	WORD	1863124	wordpools/wasnorm_wordpool_576.txt	LTP299	ltpFR2	6	18	SURVEY	1414	n/a	n/a	0	0	0
3728.868	n/a	WORD	1864434	wordpools/wasnorm_wordpool_576.txt	LTP299	ltpFR2	6	18	DRIVER	499	n/a	n/a	0	0	0
3731.37	n/a	WORD	1865685	wordpools/wasnorm_wordpool_576.txt	LTP299	ltpFR2	6	18	CATCHER	258	n/a	n/a	0	0	0
3733.972	n/a	WORD	1866986	wordpools/wasnorm_wordpool_576.txt	LTP299	ltpFR2	6	18	TURNIP	1521	n/a	n/a	0	0	0
3736.674	n/a	WORD	1868337	wordpools/wasnorm_wordpool_576.txt	LTP299	ltpFR2	6	18	TWEEZERS	1526	n/a	n/a	0	0	0
3739.11	n/a	WORD	1869555	wordpools/wasnorm_wordpool_576.txt	LTP299	ltpFR2	6	18	POSTAGE	1113	n/a	n/a	0	0	0
3741.544	n/a	WORD	1870772	wordpools/wasnorm_wordpool_576.txt	LTP299	ltpFR2	6	18	PEPPER	1047	n/a	n/a	0	0	0
3744.164	n/a	WORD	1872082	wordpools/wasnorm_wordpool_576.txt	LTP299	ltpFR2	6	18	BARREL	91	n/a	n/a	0	0	0
3746.85	n/a	WORD	1873425	wordpools/wasnorm_wordpool_576.txt	LTP299	ltpFR2	6	18	VAGRANT	1544	n/a	n/a	0	0	0
3749.468	n/a	WORD	1874734	wordpools/wasnorm_wordpool_576.txt	LTP299	ltpFR2	6	18	SHELF	1280	n/a	n/a	0	0	0
3752.072	n/a	WORD	1876036	wordpools/wasnorm_wordpool_576.txt	LTP299	ltpFR2	6	18	UMPIRE	1535	n/a	n/a	0	0	0
3754.504	n/a	WORD	1877252	wordpools/wasnorm_wordpool_576.txt	LTP299	ltpFR2	6	18	TORTOISE	1486	n/a	n/a	0	0	0
3757.228	n/a	WORD	1878614	wordpools/wasnorm_wordpool_576.txt	LTP299	ltpFR2	6	18	CLIMBER	323	n/a	n/a	0	0	0
3760.032	n/a	WORD	1880016	wordpools/wasnorm_wordpool_576.txt	LTP299	ltpFR2	6	18	VALLEY	1545	n/a	n/a	0	0	0
3762.81	n/a	WORD	1881405	wordpools/wasnorm_wordpool_576.txt	LTP299	ltpFR2	6	18	SALAD	1224	n/a	n/a	0	0	0
3765.446	n/a	WORD	1882723	wordpools/wasnorm_wordpool_576.txt	LTP299	ltpFR2	6	18	IGLOO	734	n/a	n/a	0	0	0
3767.054	n/a	START	1883527	n/a	LTP299	ltpFR2	6	n/a	n/a	n/a	27	n/a	n/a	n/a	n/a
3767.994	n/a	DISTRACTOR	1883997	n/a	LTP299	ltpFR2	6	18	n/a	n/a	n/a	n/a	0	0	0
3768.0	n/a	PROB	1884000	n/a	LTP299	ltpFR2	6	n/a	n/a	n/a	27	18	9	7	2
3770.398	n/a	PROB	1885199	n/a	LTP299	ltpFR2	6	n/a	n/a	n/a	27	12	1	2	9
3772.65	n/a	PROB	1886325	n/a	LTP299	ltpFR2	6	n/a	n/a	n/a	27	16	5	7	4
3775.37	n/a	PROB	1887685	n/a	LTP299	ltpFR2	6	n/a	n/a	n/a	27	25	8	9	8
3778.906	n/a	PROB	1889453	n/a	LTP299	ltpFR2	6	n/a	n/a	n/a	27	18	6	7	5
3781.808	n/a	PROB	1890904	n/a	LTP299	ltpFR2	6	n/a	n/a	n/a	27	11	2	6	3
3783.894	n/a	PROB	1891947	n/a	LTP299	ltpFR2	6	n/a	n/a	n/a	27	15	3	3	9
3785.678	n/a	PROB	1892839	n/a	LTP299	ltpFR2	6	n/a	n/a	n/a	27	17	8	8	1
3787.446	n/a	PROB	1893723	n/a	LTP299	ltpFR2	6	n/a	n/a	n/a	27	15	7	3	5
3788.948	n/a	PROB	1894474	n/a	LTP299	ltpFR2	6	n/a	n/a	n/a	27	19	4	6	9
3790.36	n/a	STOP	1895180	n/a	LTP299	ltpFR2	6	n/a	n/a	n/a	27	n/a	n/a	n/a	n/a
3792.918	n/a	REC_START	1896459	n/a	LTP299	ltpFR2	6	18	n/a	n/a	n/a	n/a	0	0	0
3794.158	n/a	REC_WORD	1897079	wordpools/wasnorm_wordpool_576.txt	LTP299	ltpFR2	6	18	PEPPER	1047	n/a	n/a	0	0	0
3802.142	n/a	REC_WORD	1901071	wordpools/wasnorm_wordpool_576.txt	LTP299	ltpFR2	6	18	BARREL	91	n/a	n/a	0	0	0
3805.002	n/a	REC_WORD	1902501	wordpools/wasnorm_wordpool_576.txt	LTP299	ltpFR2	6	18	CLIMBER	323	n/a	n/a	0	0	0
3819.324	n/a	REC_WORD	1909662	wordpools/wasnorm_wordpool_576.txt	LTP299	ltpFR2	6	18	FRECKLE	602	n/a	n/a	0	0	0
3820.894	n/a	REC_WORD	1910447	wordpools/wasnorm_wordpool_576.txt	LTP299	ltpFR2	6	18	UMPIRE	1535	n/a	n/a	0	0	0
3826.882	n/a	REC_WORD	1913441	wordpools/wasnorm_wordpool_576.txt	LTP299	ltpFR2	6	18	YACHT	1629	n/a	n/a	0	0	0
3827.93	n/a	REC_WORD	1913965	wordpools/wasnorm_wordpool_576.txt	LTP299	ltpFR2	6	18	LEADER	807	n/a	n/a	0	0	0
3829.248	n/a	REC_WORD	1914624	wordpools/wasnorm_wordpool_576.txt	LTP299	ltpFR2	6	18	WAITRESS	1581	n/a	n/a	0	0	0
3832.196	n/a	REC_WORD	1916098	wordpools/wasnorm_wordpool_576.txt	LTP299	ltpFR2	6	18	GIFT	635	n/a	n/a	0	0	0
3834.878	n/a	REC_WORD	1917439	wordpools/wasnorm_wordpool_576.txt	LTP299	ltpFR2	6	18	CLAM	315	n/a	n/a	0	0	0
3836.588	n/a	REC_WORD	1918294	wordpools/wasnorm_wordpool_576.txt	LTP299	ltpFR2	6	18	SAUSAGE	1238	n/a	n/a	0	0	0
3849.204	n/a	REC_WORD	1924602	wordpools/wasnorm_wordpool_576.txt	LTP299	ltpFR2	6	18	BARREL	91	n/a	n/a	0	0	0
3883.368	n/a	WORD	1941684	wordpools/wasnorm_wordpool_576.txt	LTP299	ltpFR2	6	19	TART	1436	n/a	n/a	0	0	0
3886.038	n/a	WORD	1943019	wordpools/wasnorm_wordpool_576.txt	LTP299	ltpFR2	6	19	PASTRY	1022	n/a	n/a	0	0	0
3888.692	n/a	WORD	1944346	wordpools/wasnorm_wordpool_576.txt	LTP299	ltpFR2	6	19	HOSTESS	723	n/a	n/a	0	0	0
3891.174	n/a	WORD	1945587	wordpools/wasnorm_wordpool_576.txt	LTP299	ltpFR2	6	19	SUSPECT	1415	n/a	n/a	0	0	0
3893.61	n/a	WORD	1946805	wordpools/wasnorm_wordpool_576.txt	LTP299	ltpFR2	6	19	WIFE	1609	n/a	n/a	0	0	0
3896.148	n/a	WORD	1948074	wordpools/wasnorm_wordpool_576.txt	LTP299	ltpFR2	6	19	BASEMENT	94	n/a	n/a	0	0	0
3898.714	n/a	WORD	1949357	wordpools/wasnorm_wordpool_576.txt	LTP299	ltpFR2	6	19	TWISTER	1530	n/a	n/a	0	0	0
3901.184	n/a	WORD	1950592	wordpools/wasnorm_wordpool_576.txt	LTP299	ltpFR2	6	19	SNACK	1331	n/a	n/a	0	0	0
3903.836	n/a	WORD	1951918	wordpools/wasnorm_wordpool_576.txt	LTP299	ltpFR2	6	19	COOKBOOK	373	n/a	n/a	0	0	0
3906.622	n/a	WORD	1953311	wordpools/wasnorm_wordpool_576.txt	LTP299	ltpFR2	6	19	ITEM	746	n/a	n/a	0	0	0
3909.174	n/a	WORD	1954587	wordpools/wasnorm_wordpool_576.txt	LTP299	ltpFR2	6	19	PLUTO	1092	n/a	n/a	0	0	0
3911.876	n/a	WORD	1955938	wordpools/wasnorm_wordpool_576.txt	LTP299	ltpFR2	6	19	VENUS	1557	n/a	n/a	0	0	0
3914.428	n/a	WORD	1957214	wordpools/wasnorm_wordpool_576.txt	LTP299	ltpFR2	6	19	QUAIL	1147	n/a	n/a	0	0	0
3917.048	n/a	WORD	1958524	wordpools/wasnorm_wordpool_576.txt	LTP299	ltpFR2	6	19	DINER	467	n/a	n/a	0	0	0
3919.7	n/a	WORD	1959850	wordpools/wasnorm_wordpool_576.txt	LTP299	ltpFR2	6	19	CEILING	265	n/a	n/a	0	0	0
3922.302	n/a	WORD	1961151	wordpools/wasnorm_wordpool_576.txt	LTP299	ltpFR2	6	19	HAMPER	682	n/a	n/a	0	0	0
3924.938	n/a	WORD	1962469	wordpools/wasnorm_wordpool_576.txt	LTP299	ltpFR2	6	19	PAIL	1002	n/a	n/a	0	0	0
3927.606	n/a	WORD	1963803	wordpools/wasnorm_wordpool_576.txt	LTP299	ltpFR2	6	19	DRINK	498	n/a	n/a	0	0	0
3930.11	n/a	WORD	1965055	wordpools/wasnorm_wordpool_576.txt	LTP299	ltpFR2	6	19	MARKET	871	n/a	n/a	0	0	0
3932.794	n/a	WORD	1966397	wordpools/wasnorm_wordpool_576.txt	LTP299	ltpFR2	6	19	LUGGAGE	847	n/a	n/a	0	0	0
3935.546	n/a	WORD	1967773	wordpools/wasnorm_wordpool_576.txt	LTP299	ltpFR2	6	19	GRIZZLY	662	n/a	n/a	0	0	0
3938.298	n/a	WORD	1969149	wordpools/wasnorm_wordpool_576.txt	LTP299	ltpFR2	6	19	SUITCASE	1403	n/a	n/a	0	0	0
3940.784	n/a	WORD	1970392	wordpools/wasnorm_wordpool_576.txt	LTP299	ltpFR2	6	19	DRUG	501	n/a	n/a	0	0	0
3943.518	n/a	WORD	1971759	wordpools/wasnorm_wordpool_576.txt	LTP299	ltpFR2	6	19	NURSE	963	n/a	n/a	0	0	0
3945.138	n/a	START	1972569	n/a	LTP299	ltpFR2	6	n/a	n/a	n/a	28	n/a	n/a	n/a	n/a
3946.268	n/a	DISTRACTOR	1973134	n/a	LTP299	ltpFR2	6	19	n/a	n/a	n/a	n/a	0	0	0
3946.286	n/a	PROB	1973143	n/a	LTP299	ltpFR2	6	n/a	n/a	n/a	28	11	3	7	1
3948.404	n/a	PROB	1974202	n/a	LTP299	ltpFR2	6	n/a	n/a	n/a	28	14	1	9	4
3949.822	n/a	PROB	1974911	n/a	LTP299	ltpFR2	6	n/a	n/a	n/a	28	16	6	4	6
3951.526	n/a	PROB	1975763	n/a	LTP299	ltpFR2	6	n/a	n/a	n/a	28	14	4	8	2
3952.992	n/a	PROB	1976496	n/a	LTP299	ltpFR2	6	n/a	n/a	n/a	28	14	3	6	5
3955.576	n/a	PROB	1977788	n/a	LTP299	ltpFR2	6	n/a	n/a	n/a	28	20	8	6	6
3958.646	n/a	PROB	1979323	n/a	LTP299	ltpFR2	6	n/a	n/a	n/a	28	7	1	3	3
3960.05	n/a	PROB	1980025	n/a	LTP299	ltpFR2	6	n/a	n/a	n/a	28	19	5	5	9
3961.682	n/a	PROB	1980841	n/a	LTP299	ltpFR2	6	n/a	n/a	n/a	28	20	8	3	9
3964.034	n/a	PROB	1982017	n/a	LTP299	ltpFR2	6	n/a	n/a	n/a	28	12	8	3	1
3969.138	n/a	STOP	1984569	n/a	LTP299	ltpFR2	6	n/a	n/a	n/a	28	n/a	n/a	n/a	n/a
3971.04	n/a	REC_START	1985520	n/a	LTP299	ltpFR2	6	19	n/a	n/a	n/a	n/a	0	0	0
3972.19	n/a	REC_WORD	1986095	wordpools/wasnorm_wordpool_576.txt	LTP299	ltpFR2	6	19	LUGGAGE	847	n/a	n/a	0	0	0
3973.348	n/a	REC_WORD	1986674	wordpools/wasnorm_wordpool_576.txt	LTP299	ltpFR2	6	19	SUITCASE	1403	n/a	n/a	0	0	0
3975.11	n/a	REC_WORD	1987555	wordpools/wasnorm_wordpool_576.txt	LTP299	ltpFR2	6	19	PAIL	1002	n/a	n/a	0	0	0
3979.99	n/a	REC_WORD	1989995	wordpools/wasnorm_wordpool_576.txt	LTP299	ltpFR2	6	19	GRIZZLY	662	n/a	n/a	0	0	0
3986.546	n/a	REC_WORD	1993273	wordpools/wasnorm_wordpool_576.txt	LTP299	ltpFR2	6	19	SPOUSE	1358	n/a	n/a	0	0	0
3989.38	n/a	REC_WORD	1994690	wordpools/wasnorm_wordpool_576.txt	LTP299	ltpFR2	6	19	HOSTESS	723	n/a	n/a	0	0	0
3994.006	n/a	REC_WORD	1997003	wordpools/wasnorm_wordpool_576.txt	LTP299	ltpFR2	6	19	WIFE	1609	n/a	n/a	0	0	0
4008.326	n/a	REC_WORD	2004163	wordpools/wasnorm_wordpool_576.txt	LTP299	ltpFR2	6	19	PASTRY	1022	n/a	n/a	0	0	0
4009.474	n/a	REC_WORD	2004737	wordpools/wasnorm_wordpool_576.txt	LTP299	ltpFR2	6	19	TART	1436	n/a	n/a	0	0	0
4014.87	n/a	REC_WORD	2007435	wordpools/wasnorm_wordpool_576.txt	LTP299	ltpFR2	6	19	ITEM	746	n/a	n/a	0	0	0
4018.94	n/a	REC_WORD	2009470	wordpools/wasnorm_wordpool_576.txt	LTP299	ltpFR2	6	19	COOKBOOK	373	n/a	n/a	0	0	0
4061.46	n/a	DISTRACTOR	2030730	n/a	LTP299	ltpFR2	6	20	n/a	n/a	n/a	n/a	0	0	0
4061.46	n/a	START	2030730	n/a	LTP299	ltpFR2	6	n/a	n/a	n/a	29	n/a	n/a	n/a	n/a
4061.476	n/a	PROB	2030738	n/a	LTP299	ltpFR2	6	n/a	n/a	n/a	29	12	2	2	8
4063.114	n/a	PROB	2031557	n/a	LTP299	ltpFR2	6	n/a	n/a	n/a	29	20	6	7	7
4066.212	n/a	PROB	2033106	n/a	LTP299	ltpFR2	6	n/a	n/a	n/a	29	9	3	3	3
