onset	duration	trial_type	sample	stim_file	subject	experiment	session	trial	task	item_name	item_num	recog_conf	resp	answer	test_x	test_y	test_z	color_b	color_g	color_r	case	font
244.544	n/a	SESS_START	122272	n/a	LTP146	ltpFR	8	n/a	n/a	n/a	n/a	n/a	n/a	n/a	0	0	0	n/a	n/a	n/a	n/a	n/a
279.86	n/a	START	139930	n/a	LTP146	ltpFR	8	n/a	n/a	n/a	n/a	n/a	n/a	n/a	n/a	n/a	n/a	n/a	n/a	n/a	n/a	n/a
279.886	n/a	PROB	139943	n/a	LTP146	ltpFR	8	n/a	n/a	n/a	n/a	n/a	n/a	9	1	2	7	n/a	n/a	n/a	n/a	n/a
282.082	n/a	PROB	141041	n/a	LTP146	ltpFR	8	n/a	n/a	n/a	n/a	n/a	n/a	12	4	2	6	n/a	n/a	n/a	n/a	n/a
284.262	n/a	PROB	142131	n/a	LTP146	ltpFR	8	n/a	n/a	n/a	n/a	n/a	n/a	15	7	2	6	n/a	n/a	n/a	n/a	n/a
286.068	n/a	PROB	143034	n/a	LTP146	ltpFR	8	n/a	n/a	n/a	n/a	n/a	n/a	14	7	3	4	n/a	n/a	n/a	n/a	n/a
288.142	n/a	PROB	144071	n/a	LTP146	ltpFR	8	n/a	n/a	n/a	n/a	n/a	n/a	13	4	8	1	n/a	n/a	n/a	n/a	n/a
289.582	n/a	PROB	144791	n/a	LTP146	ltpFR	8	n/a	n/a	n/a	n/a	n/a	n/a	13	6	6	2	n/a	n/a	n/a	n/a	n/a
290.99	n/a	PROB	145495	n/a	LTP146	ltpFR	8	n/a	n/a	n/a	n/a	n/a	n/a	13	9	3	1	n/a	n/a	n/a	n/a	n/a
293.078	n/a	PROB	146539	n/a	LTP146	ltpFR	8	n/a	n/a	n/a	n/a	n/a	n/a	8	1	4	3	n/a	n/a	n/a	n/a	n/a
295.26	n/a	PROB	147630	n/a	LTP146	ltpFR	8	n/a	n/a	n/a	n/a	n/a	n/a	21	3	9	9	n/a	n/a	n/a	n/a	n/a
296.992	n/a	PROB	148496	n/a	LTP146	ltpFR	8	n/a	n/a	n/a	n/a	n/a	n/a	14	9	2	3	n/a	n/a	n/a	n/a	n/a
298.902	n/a	STOP	149451	n/a	LTP146	ltpFR	8	n/a	n/a	n/a	n/a	n/a	n/a	n/a	n/a	n/a	n/a	n/a	n/a	n/a	n/a	n/a
338.344	n/a	START	169172	n/a	LTP146	ltpFR	8	n/a	n/a	n/a	n/a	n/a	n/a	n/a	n/a	n/a	n/a	n/a	n/a	n/a	n/a	n/a
339.85	n/a	PROB	169925	n/a	LTP146	ltpFR	8	n/a	n/a	n/a	n/a	n/a	n/a	16	9	6	1	n/a	n/a	n/a	n/a	n/a
341.814	n/a	PROB	170907	n/a	LTP146	ltpFR	8	n/a	n/a	n/a	n/a	n/a	n/a	18	5	8	5	n/a	n/a	n/a	n/a	n/a
343.362	n/a	PROB	171681	n/a	LTP146	ltpFR	8	n/a	n/a	n/a	n/a	n/a	n/a	13	1	6	6	n/a	n/a	n/a	n/a	n/a
344.99	n/a	STOP	172495	n/a	LTP146	ltpFR	8	n/a	n/a	n/a	n/a	n/a	n/a	n/a	n/a	n/a	n/a	n/a	n/a	n/a	n/a	n/a
347.55	n/a	WORD	173775	wordpools/wasnorm_wordpool.txt	LTP146	ltpFR	8	1	0	PREDATOR	1120	n/a	1	n/a	0	0	0	1	0.412841796875	0.57763671875	upper	../fonts/zerothre.ttf
350.554	n/a	START	175277	n/a	LTP146	ltpFR	8	n/a	n/a	n/a	n/a	n/a	n/a	n/a	n/a	n/a	n/a	n/a	n/a	n/a	n/a	n/a
351.512	n/a	PROB	175756	n/a	LTP146	ltpFR	8	n/a	n/a	n/a	n/a	n/a	n/a	14	4	3	7	n/a	n/a	n/a	n/a	n/a
353.466	n/a	PROB	176733	n/a	LTP146	ltpFR	8	n/a	n/a	n/a	n/a	n/a	n/a	25	9	9	7	n/a	n/a	n/a	n/a	n/a
355.64	n/a	PROB	177820	n/a	LTP146	ltpFR	8	n/a	n/a	n/a	n/a	n/a	n/a	18	6	7	5	n/a	n/a	n/a	n/a	n/a
357.742	n/a	STOP	178871	n/a	LTP146	ltpFR	8	n/a	n/a	n/a	n/a	n/a	n/a	n/a	n/a	n/a	n/a	n/a	n/a	n/a	n/a	n/a
359.61	n/a	WORD	179805	wordpools/wasnorm_wordpool.txt	LTP146	ltpFR	8	1	0	HORSE	719	n/a	1	n/a	0	0	0	1	0.412841796875	0.57763671875	upper	../fonts/zerothre.ttf
362.616	n/a	START	181308	n/a	LTP146	ltpFR	8	n/a	n/a	n/a	n/a	n/a	n/a	n/a	n/a	n/a	n/a	n/a	n/a	n/a	n/a	n/a
363.798	n/a	PROB	181899	n/a	LTP146	ltpFR	8	n/a	n/a	n/a	n/a	n/a	n/a	22	6	7	9	n/a	n/a	n/a	n/a	n/a
366.294	n/a	PROB	183147	n/a	LTP146	ltpFR	8	n/a	n/a	n/a	n/a	n/a	n/a	12	3	2	7	n/a	n/a	n/a	n/a	n/a
368.034	n/a	PROB	184017	n/a	LTP146	ltpFR	8	n/a	n/a	n/a	n/a	n/a	n/a	18	4	6	8	n/a	n/a	n/a	n/a	n/a
369.76	n/a	STOP	184880	n/a	LTP146	ltpFR	8	n/a	n/a	n/a	n/a	n/a	n/a	n/a	n/a	n/a	n/a	n/a	n/a	n/a	n/a	n/a
371.648	n/a	WORD	185824	wordpools/wasnorm_wordpool.txt	LTP146	ltpFR	8	1	0	NAIL	936	n/a	0	n/a	0	0	0	1	0.412841796875	0.57763671875	upper	../fonts/zerothre.ttf
374.654	n/a	START	187327	n/a	LTP146	ltpFR	8	n/a	n/a	n/a	n/a	n/a	n/a	n/a	n/a	n/a	n/a	n/a	n/a	n/a	n/a	n/a
375.76	n/a	PROB	187880	n/a	LTP146	ltpFR	8	n/a	n/a	n/a	n/a	n/a	n/a	14	6	6	2	n/a	n/a	n/a	n/a	n/a
377.14	n/a	PROB	188570	n/a	LTP146	ltpFR	8	n/a	n/a	n/a	n/a	n/a	n/a	17	6	9	2	n/a	n/a	n/a	n/a	n/a
378.83	n/a	PROB	189415	n/a	LTP146	ltpFR	8	n/a	n/a	n/a	n/a	n/a	n/a	13	3	5	5	n/a	n/a	n/a	n/a	n/a
380.254	n/a	PROB	190127	n/a	LTP146	ltpFR	8	n/a	n/a	n/a	n/a	n/a	n/a	21	8	9	5	n/a	n/a	n/a	n/a	n/a
382.11	n/a	STOP	191055	n/a	LTP146	ltpFR	8	n/a	n/a	n/a	n/a	n/a	n/a	n/a	n/a	n/a	n/a	n/a	n/a	n/a	n/a	n/a
383.726	n/a	WORD	191863	wordpools/wasnorm_wordpool.txt	LTP146	ltpFR	8	1	0	PENGUIN	1044	n/a	0	n/a	0	0	0	1	0.412841796875	0.57763671875	upper	../fonts/zerothre.ttf
386.73	n/a	START	193365	n/a	LTP146	ltpFR	8	n/a	n/a	n/a	n/a	n/a	n/a	n/a	n/a	n/a	n/a	n/a	n/a	n/a	n/a	n/a
387.854	n/a	PROB	193927	n/a	LTP146	ltpFR	8	n/a	n/a	n/a	n/a	n/a	n/a	3	7	1	1	n/a	n/a	n/a	n/a	n/a
389.302	n/a	PROB	194651	n/a	LTP146	ltpFR	8	n/a	n/a	n/a	n/a	n/a	n/a	15	7	6	2	n/a	n/a	n/a	n/a	n/a
390.842	n/a	PROB	195421	n/a	LTP146	ltpFR	8	n/a	n/a	n/a	n/a	n/a	n/a	17	3	7	7	n/a	n/a	n/a	n/a	n/a
393.712	n/a	STOP	196856	n/a	LTP146	ltpFR	8	n/a	n/a	n/a	n/a	n/a	n/a	n/a	n/a	n/a	n/a	n/a	n/a	n/a	n/a	n/a
395.662	n/a	WORD	197831	wordpools/wasnorm_wordpool.txt	LTP146	ltpFR	8	1	1	PARSLEY	1016	n/a	2	n/a	0	0	0	0	0.5869140625	0.422607421875	lower	../fonts/amplitud.ttf
396.886	n/a	KEY_MSG	198443	n/a	LTP146	ltpFR	8	1	n/a	n/a	n/a	n/a	n/a	n/a	0	0	0	n/a	n/a	n/a	n/a	n/a
398.666	n/a	START	199333	n/a	LTP146	ltpFR	8	n/a	n/a	n/a	n/a	n/a	n/a	n/a	n/a	n/a	n/a	n/a	n/a	n/a	n/a	n/a
399.558	n/a	PROB	199779	n/a	LTP146	ltpFR	8	n/a	n/a	n/a	n/a	n/a	n/a	14	7	5	2	n/a	n/a	n/a	n/a	n/a
401.862	n/a	PROB	200931	n/a	LTP146	ltpFR	8	n/a	n/a	n/a	n/a	n/a	n/a	18	6	6	6	n/a	n/a	n/a	n/a	n/a
403.426	n/a	PROB	201713	n/a	LTP146	ltpFR	8	n/a	n/a	n/a	n/a	n/a	n/a	15	8	1	6	n/a	n/a	n/a	n/a	n/a
406.666	n/a	STOP	203333	n/a	LTP146	ltpFR	8	n/a	n/a	n/a	n/a	n/a	n/a	n/a	n/a	n/a	n/a	n/a	n/a	n/a	n/a	n/a
407.84	n/a	WORD	203920	wordpools/wasnorm_wordpool.txt	LTP146	ltpFR	8	1	1	WOLF	1619	n/a	0	n/a	0	0	0	0	0.5869140625	0.422607421875	lower	../fonts/amplitud.ttf
410.844	n/a	START	205422	n/a	LTP146	ltpFR	8	n/a	n/a	n/a	n/a	n/a	n/a	n/a	n/a	n/a	n/a	n/a	n/a	n/a	n/a	n/a
411.876	n/a	PROB	205938	n/a	LTP146	ltpFR	8	n/a	n/a	n/a	n/a	n/a	n/a	13	8	4	1	n/a	n/a	n/a	n/a	n/a
413.24	n/a	PROB	206620	n/a	LTP146	ltpFR	8	n/a	n/a	n/a	n/a	n/a	n/a	18	8	1	9	n/a	n/a	n/a	n/a	n/a
415.396	n/a	PROB	207698	n/a	LTP146	ltpFR	8	n/a	n/a	n/a	n/a	n/a	n/a	19	6	8	5	n/a	n/a	n/a	n/a	n/a
417.086	n/a	PROB	208543	n/a	LTP146	ltpFR	8	n/a	n/a	n/a	n/a	n/a	n/a	20	7	8	5	n/a	n/a	n/a	n/a	n/a
418.704	n/a	STOP	209352	n/a	LTP146	ltpFR	8	n/a	n/a	n/a	n/a	n/a	n/a	n/a	n/a	n/a	n/a	n/a	n/a	n/a	n/a	n/a
419.926	n/a	WORD	209963	wordpools/wasnorm_wordpool.txt	LTP146	ltpFR	8	1	1	LOCK	838	n/a	0	n/a	0	0	0	0	0.5869140625	0.422607421875	lower	../fonts/amplitud.ttf
422.93	n/a	START	211465	n/a	LTP146	ltpFR	8	n/a	n/a	n/a	n/a	n/a	n/a	n/a	n/a	n/a	n/a	n/a	n/a	n/a	n/a	n/a
423.928	n/a	PROB	211964	n/a	LTP146	ltpFR	8	n/a	n/a	n/a	n/a	n/a	n/a	16	1	9	6	n/a	n/a	n/a	n/a	n/a
425.36	n/a	PROB	212680	n/a	LTP146	ltpFR	8	n/a	n/a	n/a	n/a	n/a	n/a	11	4	1	6	n/a	n/a	n/a	n/a	n/a
426.726	n/a	PROB	213363	n/a	LTP146	ltpFR	8	n/a	n/a	n/a	n/a	n/a	n/a	14	7	4	3	n/a	n/a	n/a	n/a	n/a
428.222	n/a	PROB	214111	n/a	LTP146	ltpFR	8	n/a	n/a	n/a	n/a	n/a	n/a	8	1	1	6	n/a	n/a	n/a	n/a	n/a
430.93	n/a	STOP	215465	n/a	LTP146	ltpFR	8	n/a	n/a	n/a	n/a	n/a	n/a	n/a	n/a	n/a	n/a	n/a	n/a	n/a	n/a	n/a
431.912	n/a	WORD	215956	wordpools/wasnorm_wordpool.txt	LTP146	ltpFR	8	1	0	FENCE	560	n/a	1	n/a	0	0	0	1	0.412841796875	0.57763671875	upper	../fonts/zerothre.ttf
434.916	n/a	START	217458	n/a	LTP146	ltpFR	8	n/a	n/a	n/a	n/a	n/a	n/a	n/a	n/a	n/a	n/a	n/a	n/a	n/a	n/a	n/a
435.948	n/a	PROB	217974	n/a	LTP146	ltpFR	8	n/a	n/a	n/a	n/a	n/a	n/a	19	8	8	3	n/a	n/a	n/a	n/a	n/a
437.92	n/a	PROB	218960	n/a	LTP146	ltpFR	8	n/a	n/a	n/a	n/a	n/a	n/a	16	5	9	2	n/a	n/a	n/a	n/a	n/a
439.902	n/a	PROB	219951	n/a	LTP146	ltpFR	8	n/a	n/a	n/a	n/a	n/a	n/a	8	2	2	6	n/a	n/a	n/a	n/a	n/a
440.942	n/a	PROB	220471	n/a	LTP146	ltpFR	8	n/a	n/a	n/a	n/a	n/a	n/a	39	4	1	4	n/a	n/a	n/a	n/a	n/a
442.84	n/a	STOP	221420	n/a	LTP146	ltpFR	8	n/a	n/a	n/a	n/a	n/a	n/a	n/a	n/a	n/a	n/a	n/a	n/a	n/a	n/a	n/a
443.73	n/a	WORD	221865	wordpools/wasnorm_wordpool.txt	LTP146	ltpFR	8	1	0	CLOWN	330	n/a	1	n/a	0	0	0	1	0.412841796875	0.57763671875	upper	../fonts/zerothre.ttf
446.738	n/a	START	223369	n/a	LTP146	ltpFR	8	n/a	n/a	n/a	n/a	n/a	n/a	n/a	n/a	n/a	n/a	n/a	n/a	n/a	n/a	n/a
447.586	n/a	PROB	223793	n/a	LTP146	ltpFR	8	n/a	n/a	n/a	n/a	n/a	n/a	14	6	2	6	n/a	n/a	n/a	n/a	n/a
449.858	n/a	PROB	224929	n/a	LTP146	ltpFR	8	n/a	n/a	n/a	n/a	n/a	n/a	10	1	4	5	n/a	n/a	n/a	n/a	n/a
451.43	n/a	PROB	225715	n/a	LTP146	ltpFR	8	n/a	n/a	n/a	n/a	n/a	n/a	21	9	7	6	n/a	n/a	n/a	n/a	n/a
453.154	n/a	PROB	226577	n/a	LTP146	ltpFR	8	n/a	n/a	n/a	n/a	n/a	n/a	20	9	9	2	n/a	n/a	n/a	n/a	n/a
454.552	n/a	STOP	227276	n/a	LTP146	ltpFR	8	n/a	n/a	n/a	n/a	n/a	n/a	n/a	n/a	n/a	n/a	n/a	n/a	n/a	n/a	n/a
455.826	n/a	WORD	227913	wordpools/wasnorm_wordpool.txt	LTP146	ltpFR	8	1	1	TROMBONE	1508	n/a	2	n/a	0	0	0	0	0.5869140625	0.422607421875	lower	../fonts/amplitud.ttf
456.808	n/a	KEY_MSG	228404	n/a	LTP146	ltpFR	8	1	n/a	n/a	n/a	n/a	n/a	n/a	0	0	0	n/a	n/a	n/a	n/a	n/a
458.832	n/a	START	229416	n/a	LTP146	ltpFR	8	n/a	n/a	n/a	n/a	n/a	n/a	n/a	n/a	n/a	n/a	n/a	n/a	n/a	n/a	n/a
459.854	n/a	PROB	229927	n/a	LTP146	ltpFR	8	n/a	n/a	n/a	n/a	n/a	n/a	13	5	6	2	n/a	n/a	n/a	n/a	n/a
461.694	n/a	PROB	230847	n/a	LTP146	ltpFR	8	n/a	n/a	n/a	n/a	n/a	n/a	19	7	3	9	n/a	n/a	n/a	n/a	n/a
463.568	n/a	PROB	231784	n/a	LTP146	ltpFR	8	n/a	n/a	n/a	n/a	n/a	n/a	18	9	2	7	n/a	n/a	n/a	n/a	n/a
466.83	n/a	STOP	233415	n/a	LTP146	ltpFR	8	n/a	n/a	n/a	n/a	n/a	n/a	n/a	n/a	n/a	n/a	n/a	n/a	n/a	n/a	n/a
467.896	n/a	WORD	233948	wordpools/wasnorm_wordpool.txt	LTP146	ltpFR	8	1	1	ALLEY	15	n/a	0	n/a	0	0	0	0	0.5869140625	0.422607421875	lower	../fonts/amplitud.ttf
470.9	n/a	START	235450	n/a	LTP146	ltpFR	8	n/a	n/a	n/a	n/a	n/a	n/a	n/a	n/a	n/a	n/a	n/a	n/a	n/a	n/a	n/a
471.874	n/a	PROB	235937	n/a	LTP146	ltpFR	8	n/a	n/a	n/a	n/a	n/a	n/a	22	5	8	9	n/a	n/a	n/a	n/a	n/a
473.922	n/a	PROB	236961	n/a	LTP146	ltpFR	8	n/a	n/a	n/a	n/a	n/a	n/a	11	1	4	6	n/a	n/a	n/a	n/a	n/a
475.086	n/a	PROB	237543	n/a	LTP146	ltpFR	8	n/a	n/a	n/a	n/a	n/a	n/a	19	5	7	7	n/a	n/a	n/a	n/a	n/a
476.536	n/a	PROB	238268	n/a	LTP146	ltpFR	8	n/a	n/a	n/a	n/a	n/a	n/a	17	7	1	9	n/a	n/a	n/a	n/a	n/a
478.792	n/a	STOP	239396	n/a	LTP146	ltpFR	8	n/a	n/a	n/a	n/a	n/a	n/a	n/a	n/a	n/a	n/a	n/a	n/a	n/a	n/a	n/a
479.866	n/a	WORD	239933	wordpools/wasnorm_wordpool.txt	LTP146	ltpFR	8	1	1	PORCH	1106	n/a	0	n/a	0	0	0	0	0.5869140625	0.422607421875	lower	../fonts/amplitud.ttf
482.87	n/a	START	241435	n/a	LTP146	ltpFR	8	n/a	n/a	n/a	n/a	n/a	n/a	n/a	n/a	n/a	n/a	n/a	n/a	n/a	n/a	n/a
483.818	n/a	PROB	241909	n/a	LTP146	ltpFR	8	n/a	n/a	n/a	n/a	n/a	n/a	14	2	4	8	n/a	n/a	n/a	n/a	n/a
485.316	n/a	PROB	242658	n/a	LTP146	ltpFR	8	n/a	n/a	n/a	n/a	n/a	n/a	18	7	9	2	n/a	n/a	n/a	n/a	n/a
487.488	n/a	PROB	243744	n/a	LTP146	ltpFR	8	n/a	n/a	n/a	n/a	n/a	n/a	7	3	1	3	n/a	n/a	n/a	n/a	n/a
488.804	n/a	PROB	244402	n/a	LTP146	ltpFR	8	n/a	n/a	n/a	n/a	n/a	n/a	12	1	5	7	n/a	n/a	n/a	n/a	n/a
490.104	n/a	STOP	245052	n/a	LTP146	ltpFR	8	n/a	n/a	n/a	n/a	n/a	n/a	n/a	n/a	n/a	n/a	n/a	n/a	n/a	n/a	n/a
491.718	n/a	WORD	245859	wordpools/wasnorm_wordpool.txt	LTP146	ltpFR	8	1	1	ZEBRA	1635	n/a	0	n/a	0	0	0	0	0.5869140625	0.422607421875	lower	../fonts/amplitud.ttf
494.724	n/a	START	247362	n/a	LTP146	ltpFR	8	n/a	n/a	n/a	n/a	n/a	n/a	n/a	n/a	n/a	n/a	n/a	n/a	n/a	n/a	n/a
495.646	n/a	PROB	247823	n/a	LTP146	ltpFR	8	n/a	n/a	n/a	n/a	n/a	n/a	18	4	7	7	n/a	n/a	n/a	n/a	n/a
496.936	n/a	PROB	248468	n/a	LTP146	ltpFR	8	n/a	n/a	n/a	n/a	n/a	n/a	23	7	8	8	n/a	n/a	n/a	n/a	n/a
499.65	n/a	PROB	249825	n/a	LTP146	ltpFR	8	n/a	n/a	n/a	n/a	n/a	n/a	17	3	5	9	n/a	n/a	n/a	n/a	n/a
501.656	n/a	STOP	250828	n/a	LTP146	ltpFR	8	n/a	n/a	n/a	n/a	n/a	n/a	n/a	n/a	n/a	n/a	n/a	n/a	n/a	n/a	n/a
503.58	n/a	WORD	251790	wordpools/wasnorm_wordpool.txt	LTP146	ltpFR	8	1	1	SIBLING	1301	n/a	0	n/a	0	0	0	0	0.5869140625	0.422607421875	lower	../fonts/amplitud.ttf
506.584	n/a	START	253292	n/a	LTP146	ltpFR	8	n/a	n/a	n/a	n/a	n/a	n/a	n/a	n/a	n/a	n/a	n/a	n/a	n/a	n/a	n/a
507.692	n/a	PROB	253846	n/a	LTP146	ltpFR	8	n/a	n/a	n/a	n/a	n/a	n/a	1	7	9	9	n/a	n/a	n/a	n/a	n/a
509.872	n/a	PROB	254936	n/a	LTP146	ltpFR	8	n/a	n/a	n/a	n/a	n/a	n/a	19	7	5	7	n/a	n/a	n/a	n/a	n/a
511.886	n/a	PROB	255943	n/a	LTP146	ltpFR	8	n/a	n/a	n/a	n/a	n/a	n/a	7	3	1	3	n/a	n/a	n/a	n/a	n/a
513.368	n/a	STOP	256684	n/a	LTP146	ltpFR	8	n/a	n/a	n/a	n/a	n/a	n/a	n/a	n/a	n/a	n/a	n/a	n/a	n/a	n/a	n/a
515.624	n/a	WORD	257812	wordpools/wasnorm_wordpool.txt	LTP146	ltpFR	8	1	0	TWIN	1528	n/a	1	n/a	0	0	0	1	0.412841796875	0.57763671875	upper	../fonts/zerothre.ttf
518.628	n/a	START	259314	n/a	LTP146	ltpFR	8	n/a	n/a	n/a	n/a	n/a	n/a	n/a	n/a	n/a	n/a	n/a	n/a	n/a	n/a	n/a
519.71	n/a	PROB	259855	n/a	LTP146	ltpFR	8	n/a	n/a	n/a	n/a	n/a	n/a	12	6	4	2	n/a	n/a	n/a	n/a	n/a
521.192	n/a	PROB	260596	n/a	LTP146	ltpFR	8	n/a	n/a	n/a	n/a	n/a	n/a	14	4	6	4	n/a	n/a	n/a	n/a	n/a
522.608	n/a	PROB	261304	n/a	LTP146	ltpFR	8	n/a	n/a	n/a	n/a	n/a	n/a	19	9	3	7	n/a	n/a	n/a	n/a	n/a
524.388	n/a	PROB	262194	n/a	LTP146	ltpFR	8	n/a	n/a	n/a	n/a	n/a	n/a	22	4	9	9	n/a	n/a	n/a	n/a	n/a
525.746	n/a	STOP	262873	n/a	LTP146	ltpFR	8	n/a	n/a	n/a	n/a	n/a	n/a	n/a	n/a	n/a	n/a	n/a	n/a	n/a	n/a	n/a
527.768	n/a	WORD	263884	wordpools/wasnorm_wordpool.txt	LTP146	ltpFR	8	1	0	MILDEW	893	n/a	0	n/a	0	0	0	1	0.412841796875	0.57763671875	upper	../fonts/zerothre.ttf
530.774	n/a	START	265387	n/a	LTP146	ltpFR	8	n/a	n/a	n/a	n/a	n/a	n/a	n/a	n/a	n/a	n/a	n/a	n/a	n/a	n/a	n/a
531.83	n/a	PROB	265915	n/a	LTP146	ltpFR	8	n/a	n/a	n/a	n/a	n/a	n/a	7	3	2	1	n/a	n/a	n/a	n/a	n/a
533.186	n/a	PROB	266593	n/a	LTP146	ltpFR	8	n/a	n/a	n/a	n/a	n/a	n/a	25	9	9	7	n/a	n/a	n/a	n/a	n/a
534.836	n/a	PROB	267418	n/a	LTP146	ltpFR	8	n/a	n/a	n/a	n/a	n/a	n/a	6	1	1	4	n/a	n/a	n/a	n/a	n/a
536.482	n/a	PROB	268241	n/a	LTP146	ltpFR	8	n/a	n/a	n/a	n/a	n/a	n/a	14	5	5	4	n/a	n/a	n/a	n/a	n/a
537.85	n/a	STOP	268925	n/a	LTP146	ltpFR	8	n/a	n/a	n/a	n/a	n/a	n/a	n/a	n/a	n/a	n/a	n/a	n/a	n/a	n/a	n/a
540.58	n/a	REC_START	270290	n/a	LTP146	ltpFR	8	1	n/a	n/a	n/a	n/a	n/a	n/a	0	0	0	n/a	n/a	n/a	n/a	n/a
541.642	n/a	REC_WORD	270821	wordpools/wasnorm_wordpool.txt	LTP146	ltpFR	8	1	0	MILDEW	893	n/a	0	n/a	0	0	0	n/a	n/a	n/a	n/a	n/a
542.664	n/a	REC_WORD	271332	wordpools/wasnorm_wordpool.txt	LTP146	ltpFR	8	1	1	PORCH	1106	n/a	0	n/a	0	0	0	n/a	n/a	n/a	n/a	n/a
544.006	n/a	REC_WORD	272003	wordpools/wasnorm_wordpool.txt	LTP146	ltpFR	8	1	1	ALLEY	15	n/a	0	n/a	0	0	0	n/a	n/a	n/a	n/a	n/a
545.758	n/a	REC_WORD	272879	wordpools/wasnorm_wordpool.txt	LTP146	ltpFR	8	1	0	PREDATOR	1120	n/a	1	n/a	0	0	0	n/a	n/a	n/a	n/a	n/a
547.608	n/a	REC_WORD	273804	wordpools/wasnorm_wordpool.txt	LTP146	ltpFR	8	1	0	HORSE	719	n/a	1	n/a	0	0	0	n/a	n/a	n/a	n/a	n/a
549.644	n/a	REC_WORD	274822	wordpools/wasnorm_wordpool.txt	LTP146	ltpFR	8	1	1	LOCK	838	n/a	0	n/a	0	0	0	n/a	n/a	n/a	n/a	n/a
556.224	n/a	REC_WORD	278112	wordpools/wasnorm_wordpool.txt	LTP146	ltpFR	8	1	0	MILDEW	893	n/a	0	n/a	0	0	0	n/a	n/a	n/a	n/a	n/a
577.644	n/a	REC_WORD	288822	wordpools/wasnorm_wordpool.txt	LTP146	ltpFR	8	1	n/a	SKUNK	1321	n/a	n/a	n/a	0	0	0	n/a	n/a	n/a	n/a	n/a
623.442	n/a	WORD	311721	wordpools/wasnorm_wordpool.txt	LTP146	ltpFR	8	2	0	MONKEY	911	n/a	1	n/a	0	0	0	1	0.412841796875	0.57763671875	upper	../fonts/zerothre.ttf
627.412	n/a	WORD	313706	wordpools/wasnorm_wordpool.txt	LTP146	ltpFR	8	2	0	CHIMPANZEE	302	n/a	1	n/a	0	0	0	1	0.412841796875	0.57763671875	upper	../fonts/zerothre.ttf
631.358	n/a	WORD	315679	wordpools/wasnorm_wordpool.txt	LTP146	ltpFR	8	2	0	ROD	1203	n/a	1	n/a	0	0	0	1	0.412841796875	0.57763671875	upper	../fonts/zerothre.ttf
635.41	n/a	WORD	317705	wordpools/wasnorm_wordpool.txt	LTP146	ltpFR	8	2	0	PRINTER	1126	n/a	1	n/a	0	0	0	1	0.412841796875	0.57763671875	upper	../fonts/zerothre.ttf
639.348	n/a	WORD	319674	wordpools/wasnorm_wordpool.txt	LTP146	ltpFR	8	2	0	HORIZON	717	n/a	0	n/a	0	0	0	1	0.412841796875	0.57763671875	upper	../fonts/zerothre.ttf
643.286	n/a	WORD	321643	wordpools/wasnorm_wordpool.txt	LTP146	ltpFR	8	2	0	GLASSES	640	n/a	1	n/a	0	0	0	1	0.412841796875	0.57763671875	upper	../fonts/zerothre.ttf
647.314	n/a	WORD	323657	wordpools/wasnorm_wordpool.txt	LTP146	ltpFR	8	2	1	PAD	998	n/a	0	n/a	0	0	0	0	0.5869140625	0.422607421875	lower	../fonts/amplitud.ttf
651.51	n/a	WORD	325755	wordpools/wasnorm_wordpool.txt	LTP146	ltpFR	8	2	1	CONDUCTOR	362	n/a	1	n/a	0	0	0	0	0.5869140625	0.422607421875	lower	../fonts/amplitud.ttf
655.588	n/a	WORD	327794	wordpools/wasnorm_wordpool.txt	LTP146	ltpFR	8	2	1	BANJO	82	n/a	0	n/a	0	0	0	0	0.5869140625	0.422607421875	lower	../fonts/amplitud.ttf
659.526	n/a	WORD	329763	wordpools/wasnorm_wordpool.txt	LTP146	ltpFR	8	2	1	BEE	112	n/a	0	n/a	0	0	0	0	0.5869140625	0.422607421875	lower	../fonts/amplitud.ttf
663.67	n/a	WORD	331835	wordpools/wasnorm_wordpool.txt	LTP146	ltpFR	8	2	1	FILM	565	n/a	0	n/a	0	0	0	0	0.5869140625	0.422607421875	lower	../fonts/amplitud.ttf
667.524	n/a	WORD	333762	wordpools/wasnorm_wordpool.txt	LTP146	ltpFR	8	2	1	CAP	236	n/a	0	n/a	0	0	0	0	0.5869140625	0.422607421875	lower	../fonts/amplitud.ttf
671.52	n/a	WORD	335760	wordpools/wasnorm_wordpool.txt	LTP146	ltpFR	8	2	0	STAMP	1370	n/a	0	n/a	0	0	0	1	0.412841796875	0.57763671875	upper	../fonts/zerothre.ttf
675.584	n/a	WORD	337792	wordpools/wasnorm_wordpool.txt	LTP146	ltpFR	8	2	0	QUILL	1150	n/a	0	n/a	0	0	0	1	0.412841796875	0.57763671875	upper	../fonts/zerothre.ttf
679.478	n/a	WORD	339739	wordpools/wasnorm_wordpool.txt	LTP146	ltpFR	8	2	1	ANGEL	22	n/a	0	n/a	0	0	0	0	0.5869140625	0.422607421875	lower	../fonts/amplitud.ttf
683.372	n/a	WORD	341686	wordpools/wasnorm_wordpool.txt	LTP146	ltpFR	8	2	1	HORNET	718	n/a	1	n/a	0	0	0	0	0.5869140625	0.422607421875	lower	../fonts/amplitud.ttf
686.378	n/a	START	343189	n/a	LTP146	ltpFR	8	n/a	n/a	n/a	n/a	n/a	n/a	n/a	n/a	n/a	n/a	n/a	n/a	n/a	n/a	n/a
687.226	n/a	PROB	343613	n/a	LTP146	ltpFR	8	n/a	n/a	n/a	n/a	n/a	n/a	13	1	9	3	n/a	n/a	n/a	n/a	n/a
689.65	n/a	PROB	344825	n/a	LTP146	ltpFR	8	n/a	n/a	n/a	n/a	n/a	n/a	15	5	5	5	n/a	n/a	n/a	n/a	n/a
691.122	n/a	PROB	345561	n/a	LTP146	ltpFR	8	n/a	n/a	n/a	n/a	n/a	n/a	20	9	7	5	n/a	n/a	n/a	n/a	n/a
692.94	n/a	STOP	346470	n/a	LTP146	ltpFR	8	n/a	n/a	n/a	n/a	n/a	n/a	n/a	n/a	n/a	n/a	n/a	n/a	n/a	n/a	n/a
696.126	n/a	REC_START	348063	n/a	LTP146	ltpFR	8	2	n/a	n/a	n/a	n/a	n/a	n/a	0	0	0	n/a	n/a	n/a	n/a	n/a
696.754	n/a	REC_WORD	348377	wordpools/wasnorm_wordpool.txt	LTP146	ltpFR	8	2	1	HORNET	718	n/a	1	n/a	0	0	0	n/a	n/a	n/a	n/a	n/a
697.692	n/a	REC_WORD	348846	wordpools/wasnorm_wordpool.txt	LTP146	ltpFR	8	2	0	QUILL	1150	n/a	0	n/a	0	0	0	n/a	n/a	n/a	n/a	n/a
699.024	n/a	REC_WORD	349512	wordpools/wasnorm_wordpool.txt	LTP146	ltpFR	8	2	1	BEE	112	n/a	0	n/a	0	0	0	n/a	n/a	n/a	n/a	n/a
701.788	n/a	REC_WORD	350894	wordpools/wasnorm_wordpool.txt	LTP146	ltpFR	8	2	0	MONKEY	911	n/a	1	n/a	0	0	0	n/a	n/a	n/a	n/a	n/a
702.66	n/a	REC_WORD	351330	wordpools/wasnorm_wordpool.txt	LTP146	ltpFR	8	2	0	CHIMPANZEE	302	n/a	1	n/a	0	0	0	n/a	n/a	n/a	n/a	n/a
703.66	n/a	REC_WORD_VV	351830	wordpools/wasnorm_wordpool.txt	LTP146	ltpFR	8	2	n/a	<>	-1	n/a	n/a	n/a	0	0	0	n/a	n/a	n/a	n/a	n/a
704.516	n/a	REC_WORD	352258	wordpools/wasnorm_wordpool.txt	LTP146	ltpFR	8	2	0	ROD	1203	n/a	1	n/a	0	0	0	n/a	n/a	n/a	n/a	n/a
706.426	n/a	REC_WORD	353213	wordpools/wasnorm_wordpool.txt	LTP146	ltpFR	8	2	0	GLASSES	640	n/a	1	n/a	0	0	0	n/a	n/a	n/a	n/a	n/a
707.426	n/a	REC_WORD_VV	353713	wordpools/wasnorm_wordpool.txt	LTP146	ltpFR	8	2	n/a	<>	-1	n/a	n/a	n/a	0	0	0	n/a	n/a	n/a	n/a	n/a
715.252	n/a	REC_WORD	357626	wordpools/wasnorm_wordpool.txt	LTP146	ltpFR	8	2	1	HORNET	718	n/a	1	n/a	0	0	0	n/a	n/a	n/a	n/a	n/a
719.652	n/a	REC_WORD	359826	wordpools/wasnorm_wordpool.txt	LTP146	ltpFR	8	2	n/a	PAINTING	1005	n/a	n/a	n/a	0	0	0	n/a	n/a	n/a	n/a	n/a
778.338	n/a	WORD	389169	wordpools/wasnorm_wordpool.txt	LTP146	ltpFR	8	3	0	LOOP	844	n/a	0	n/a	0	0	0	1	0.412841796875	0.57763671875	upper	../fonts/zerothre.ttf
782.492	n/a	WORD	391246	wordpools/wasnorm_wordpool.txt	LTP146	ltpFR	8	3	0	AUDIENCE	59	n/a	1	n/a	0	0	0	1	0.412841796875	0.57763671875	upper	../fonts/zerothre.ttf
786.696	n/a	WORD	393348	wordpools/wasnorm_wordpool.txt	LTP146	ltpFR	8	3	0	THICKET	1455	n/a	1	n/a	0	0	0	1	0.412841796875	0.57763671875	upper	../fonts/zerothre.ttf
790.61	n/a	WORD	395305	wordpools/wasnorm_wordpool.txt	LTP146	ltpFR	8	3	0	SWING	1421	n/a	1	n/a	0	0	0	1	0.412841796875	0.57763671875	upper	../fonts/zerothre.ttf
794.562	n/a	WORD	397281	wordpools/wasnorm_wordpool.txt	LTP146	ltpFR	8	3	0	PIER	1063	n/a	1	n/a	0	0	0	1	0.412841796875	0.57763671875	upper	../fonts/zerothre.ttf
798.508	n/a	WORD	399254	wordpools/wasnorm_wordpool.txt	LTP146	ltpFR	8	3	0	BUILDER	190	n/a	1	n/a	0	0	0	1	0.412841796875	0.57763671875	upper	../fonts/zerothre.ttf
802.394	n/a	WORD	401197	wordpools/wasnorm_wordpool.txt	LTP146	ltpFR	8	3	0	CACTUS	215	n/a	1	n/a	0	0	0	1	0.412841796875	0.57763671875	upper	../fonts/zerothre.ttf
806.506	n/a	WORD	403253	wordpools/wasnorm_wordpool.txt	LTP146	ltpFR	8	3	0	CHAPEL	280	n/a	1	n/a	0	0	0	1	0.412841796875	0.57763671875	upper	../fonts/zerothre.ttf
810.352	n/a	WORD	405176	wordpools/wasnorm_wordpool.txt	LTP146	ltpFR	8	3	0	SAILOR	1223	n/a	1	n/a	0	0	0	1	0.412841796875	0.57763671875	upper	../fonts/zerothre.ttf
814.164	n/a	WORD	407082	wordpools/wasnorm_wordpool.txt	LTP146	ltpFR	8	3	0	TANGERINE	1431	n/a	1	n/a	0	0	0	1	0.412841796875	0.57763671875	upper	../fonts/zerothre.ttf
818.226	n/a	WORD	409113	wordpools/wasnorm_wordpool.txt	LTP146	ltpFR	8	3	0	BLACKBERRY	132	n/a	0	n/a	0	0	0	1	0.412841796875	0.57763671875	upper	../fonts/zerothre.ttf
822.388	n/a	WORD	411194	wordpools/wasnorm_wordpool.txt	LTP146	ltpFR	8	3	0	MONASTERY	907	n/a	1	n/a	0	0	0	1	0.412841796875	0.57763671875	upper	../fonts/zerothre.ttf
826.536	n/a	WORD	413268	wordpools/wasnorm_wordpool.txt	LTP146	ltpFR	8	3	0	WRITER	1627	n/a	1	n/a	0	0	0	1	0.412841796875	0.57763671875	upper	../fonts/zerothre.ttf
830.43	n/a	WORD	415215	wordpools/wasnorm_wordpool.txt	LTP146	ltpFR	8	3	0	CREATURE	403	n/a	1	n/a	0	0	0	1	0.412841796875	0.57763671875	upper	../fonts/zerothre.ttf
834.424	n/a	WORD	417212	wordpools/wasnorm_wordpool.txt	LTP146	ltpFR	8	3	0	STUMP	1396	n/a	1	n/a	0	0	0	1	0.412841796875	0.57763671875	upper	../fonts/zerothre.ttf
838.53	n/a	WORD	419265	wordpools/wasnorm_wordpool.txt	LTP146	ltpFR	8	3	0	PLUM	1090	n/a	0	n/a	0	0	0	1	0.412841796875	0.57763671875	upper	../fonts/zerothre.ttf
844.582	n/a	REC_START	422291	n/a	LTP146	ltpFR	8	3	n/a	n/a	n/a	n/a	n/a	n/a	0	0	0	n/a	n/a	n/a	n/a	n/a
845.32	n/a	REC_WORD	422660	wordpools/wasnorm_wordpool.txt	LTP146	ltpFR	8	3	n/a	CHUM	-1	n/a	n/a	n/a	0	0	0	n/a	n/a	n/a	n/a	n/a
846.198	n/a	REC_WORD	423099	wordpools/wasnorm_wordpool.txt	LTP146	ltpFR	8	3	0	BLACKBERRY	132	n/a	0	n/a	0	0	0	n/a	n/a	n/a	n/a	n/a
847.774	n/a	REC_WORD	423887	wordpools/wasnorm_wordpool.txt	LTP146	ltpFR	8	3	0	CHAPEL	280	n/a	1	n/a	0	0	0	n/a	n/a	n/a	n/a	n/a
849.066	n/a	REC_WORD	424533	wordpools/wasnorm_wordpool.txt	LTP146	ltpFR	8	3	0	MONASTERY	907	n/a	1	n/a	0	0	0	n/a	n/a	n/a	n/a	n/a
851.106	n/a	REC_WORD	425553	wordpools/wasnorm_wordpool.txt	LTP146	ltpFR	8	3	0	BUILDER	190	n/a	1	n/a	0	0	0	n/a	n/a	n/a	n/a	n/a
852.338	n/a	REC_WORD	426169	wordpools/wasnorm_wordpool.txt	LTP146	ltpFR	8	3	0	WRITER	1627	n/a	1	n/a	0	0	0	n/a	n/a	n/a	n/a	n/a
854.354	n/a	REC_WORD	427177	wordpools/wasnorm_wordpool.txt	LTP146	ltpFR	8	3	0	STUMP	1396	n/a	1	n/a	0	0	0	n/a	n/a	n/a	n/a	n/a
856.194	n/a	REC_WORD	428097	wordpools/wasnorm_wordpool.txt	LTP146	ltpFR	8	3	0	STAMP	1370	n/a	0	n/a	0	0	0	n/a	n/a	n/a	n/a	n/a
869.4	n/a	REC_WORD	434700	wordpools/wasnorm_wordpool.txt	LTP146	ltpFR	8	3	0	TANGERINE	1431	n/a	1	n/a	0	0	0	n/a	n/a	n/a	n/a	n/a
872.582	n/a	REC_WORD	436291	wordpools/wasnorm_wordpool.txt	LTP146	ltpFR	8	3	0	PLUM	1090	n/a	0	n/a	0	0	0	n/a	n/a	n/a	n/a	n/a
929.232	n/a	WORD	464616	wordpools/wasnorm_wordpool.txt	LTP146	ltpFR	8	4	1	HINGE	709	n/a	0	n/a	0	0	0	0	0.5869140625	0.422607421875	lower	../fonts/amplitud.ttf
933.22	n/a	WORD	466610	wordpools/wasnorm_wordpool.txt	LTP146	ltpFR	8	4	1	MAT	877	n/a	0	n/a	0	0	0	0	0.5869140625	0.422607421875	lower	../fonts/amplitud.ttf
937.298	n/a	WORD	468649	wordpools/wasnorm_wordpool.txt	LTP146	ltpFR	8	4	1	PUBLISHER	1137	n/a	1	n/a	0	0	0	0	0.5869140625	0.422607421875	lower	../fonts/amplitud.ttf
941.418	n/a	WORD	470709	wordpools/wasnorm_wordpool.txt	LTP146	ltpFR	8	4	1	CASHIER	254	n/a	1	n/a	0	0	0	0	0.5869140625	0.422607421875	lower	../fonts/amplitud.ttf
945.414	n/a	WORD	472707	wordpools/wasnorm_wordpool.txt	LTP146	ltpFR	8	4	0	SHELL	1281	n/a	1	n/a	0	0	0	1	0.412841796875	0.57763671875	upper	../fonts/zerothre.ttf
949.252	n/a	WORD	474626	wordpools/wasnorm_wordpool.txt	LTP146	ltpFR	8	4	0	RODENT	1204	n/a	1	n/a	0	0	0	1	0.412841796875	0.57763671875	upper	../fonts/zerothre.ttf
953.338	n/a	WORD	476669	wordpools/wasnorm_wordpool.txt	LTP146	ltpFR	8	4	0	EDITOR	516	n/a	1	n/a	0	0	0	1	0.412841796875	0.57763671875	upper	../fonts/zerothre.ttf
957.234	n/a	WORD	478617	wordpools/wasnorm_wordpool.txt	LTP146	ltpFR	8	4	0	BOWL	158	n/a	1	n/a	0	0	0	1	0.412841796875	0.57763671875	upper	../fonts/zerothre.ttf
961.12	n/a	WORD	480560	wordpools/wasnorm_wordpool.txt	LTP146	ltpFR	8	4	1	SINK	1309	n/a	1	n/a	0	0	0	0	0.5869140625	0.422607421875	lower	../fonts/amplitud.ttf
965.034	n/a	WORD	482517	wordpools/wasnorm_wordpool.txt	LTP146	ltpFR	8	4	1	PEARL	1034	n/a	0	n/a	0	0	0	0	0.5869140625	0.422607421875	lower	../fonts/amplitud.ttf
969.054	n/a	WORD	484527	wordpools/wasnorm_wordpool.txt	LTP146	ltpFR	8	4	0	RIDER	1191	n/a	1	n/a	0	0	0	1	0.412841796875	0.57763671875	upper	../fonts/zerothre.ttf
972.984	n/a	WORD	486492	wordpools/wasnorm_wordpool.txt	LTP146	ltpFR	8	4	0	HAM	678	n/a	1	n/a	0	0	0	1	0.412841796875	0.57763671875	upper	../fonts/zerothre.ttf
977.046	n/a	WORD	488523	wordpools/wasnorm_wordpool.txt	LTP146	ltpFR	8	4	0	PADDLE	1000	n/a	1	n/a	0	0	0	1	0.412841796875	0.57763671875	upper	../fonts/zerothre.ttf
981.034	n/a	WORD	490517	wordpools/wasnorm_wordpool.txt	LTP146	ltpFR	8	4	0	NAVIGATOR	938	n/a	1	n/a	0	0	0	1	0.412841796875	0.57763671875	upper	../fonts/zerothre.ttf
984.896	n/a	WORD	492448	wordpools/wasnorm_wordpool.txt	LTP146	ltpFR	8	4	1	SEASHORE	1263	n/a	1	n/a	0	0	0	0	0.5869140625	0.422607421875	lower	../fonts/amplitud.ttf
989.04	n/a	WORD	494520	wordpools/wasnorm_wordpool.txt	LTP146	ltpFR	8	4	1	PONY	1102	n/a	1	n/a	0	0	0	0	0.5869140625	0.422607421875	lower	../fonts/amplitud.ttf
992.046	n/a	START	496023	n/a	LTP146	ltpFR	8	n/a	n/a	n/a	n/a	n/a	n/a	n/a	n/a	n/a	n/a	n/a	n/a	n/a	n/a	n/a
993.084	n/a	PROB	496542	n/a	LTP146	ltpFR	8	n/a	n/a	n/a	n/a	n/a	n/a	47	7	9	1	n/a	n/a	n/a	n/a	n/a
995.524	n/a	PROB	497762	n/a	LTP146	ltpFR	8	n/a	n/a	n/a	n/a	n/a	n/a	10	6	3	1	n/a	n/a	n/a	n/a	n/a
997.156	n/a	PROB	498578	n/a	LTP146	ltpFR	8	n/a	n/a	n/a	n/a	n/a	n/a	14	8	3	4	n/a	n/a	n/a	n/a	n/a
998.6	n/a	STOP	499300	n/a	LTP146	ltpFR	8	n/a	n/a	n/a	n/a	n/a	n/a	n/a	n/a	n/a	n/a	n/a	n/a	n/a	n/a	n/a
1001.884	n/a	REC_START	500942	n/a	LTP146	ltpFR	8	4	n/a	n/a	n/a	n/a	n/a	n/a	0	0	0	n/a	n/a	n/a	n/a	n/a
1002.838	n/a	REC_WORD	501419	wordpools/wasnorm_wordpool.txt	LTP146	ltpFR	8	4	0	PADDLE	1000	n/a	1	n/a	0	0	0	n/a	n/a	n/a	n/a	n/a
1003.874	n/a	REC_WORD	501937	wordpools/wasnorm_wordpool.txt	LTP146	ltpFR	8	4	1	PONY	1102	n/a	1	n/a	0	0	0	n/a	n/a	n/a	n/a	n/a
1004.832	n/a	REC_WORD	502416	wordpools/wasnorm_wordpool.txt	LTP146	ltpFR	8	4	1	SEASHORE	1263	n/a	1	n/a	0	0	0	n/a	n/a	n/a	n/a	n/a
1006.124	n/a	REC_WORD	503062	wordpools/wasnorm_wordpool.txt	LTP146	ltpFR	8	4	0	NAVIGATOR	938	n/a	1	n/a	0	0	0	n/a	n/a	n/a	n/a	n/a
1007.78	n/a	REC_WORD	503890	wordpools/wasnorm_wordpool.txt	LTP146	ltpFR	8	4	0	EDITOR	516	n/a	1	n/a	0	0	0	n/a	n/a	n/a	n/a	n/a
1008.988	n/a	REC_WORD	504494	wordpools/wasnorm_wordpool.txt	LTP146	ltpFR	8	4	1	PUBLISHER	1137	n/a	1	n/a	0	0	0	n/a	n/a	n/a	n/a	n/a
1012.82	n/a	REC_WORD	506410	wordpools/wasnorm_wordpool.txt	LTP146	ltpFR	8	4	1	MAT	877	n/a	0	n/a	0	0	0	n/a	n/a	n/a	n/a	n/a
1015.214	n/a	REC_WORD	507607	wordpools/wasnorm_wordpool.txt	LTP146	ltpFR	8	4	1	CASHIER	254	n/a	1	n/a	0	0	0	n/a	n/a	n/a	n/a	n/a
1021.026	n/a	REC_WORD	510513	wordpools/wasnorm_wordpool.txt	LTP146	ltpFR	8	4	0	SAILOR	1223	n/a	1	n/a	0	0	0	n/a	n/a	n/a	n/a	n/a
1065.182	n/a	REC_WORD	532591	wordpools/wasnorm_wordpool.txt	LTP146	ltpFR	8	4	n/a	SCREEN	1253	n/a	n/a	n/a	0	0	0	n/a	n/a	n/a	n/a	n/a
1066.624	n/a	REC_WORD	533312	wordpools/wasnorm_wordpool.txt	LTP146	ltpFR	8	4	n/a	SHIELD	-1	n/a	n/a	n/a	0	0	0	n/a	n/a	n/a	n/a	n/a
1093.496	n/a	START	546748	n/a	LTP146	ltpFR	8	n/a	n/a	n/a	n/a	n/a	n/a	n/a	n/a	n/a	n/a	n/a	n/a	n/a	n/a	n/a
1095.002	n/a	PROB	547501	n/a	LTP146	ltpFR	8	n/a	n/a	n/a	n/a	n/a	n/a	20	8	9	3	n/a	n/a	n/a	n/a	n/a
1097.198	n/a	PROB	548599	n/a	LTP146	ltpFR	8	n/a	n/a	n/a	n/a	n/a	n/a	7	1	2	3	n/a	n/a	n/a	n/a	n/a
1098.614	n/a	PROB	549307	n/a	LTP146	ltpFR	8	n/a	n/a	n/a	n/a	n/a	n/a	10	3	6	1	n/a	n/a	n/a	n/a	n/a
1100.256	n/a	STOP	550128	n/a	LTP146	ltpFR	8	n/a	n/a	n/a	n/a	n/a	n/a	n/a	n/a	n/a	n/a	n/a	n/a	n/a	n/a	n/a
1102.518	n/a	WORD	551259	wordpools/wasnorm_wordpool.txt	LTP146	ltpFR	8	5	0	OCEAN	970	n/a	1	n/a	0	0	0	1	0.412841796875	0.57763671875	upper	../fonts/zerothre.ttf
1105.524	n/a	START	552762	n/a	LTP146	ltpFR	8	n/a	n/a	n/a	n/a	n/a	n/a	n/a	n/a	n/a	n/a	n/a	n/a	n/a	n/a	n/a
1106.622	n/a	PROB	553311	n/a	LTP146	ltpFR	8	n/a	n/a	n/a	n/a	n/a	n/a	15	6	7	2	n/a	n/a	n/a	n/a	n/a
1108.536	n/a	PROB	554268	n/a	LTP146	ltpFR	8	n/a	n/a	n/a	n/a	n/a	n/a	11	4	6	1	n/a	n/a	n/a	n/a	n/a
1109.586	n/a	PROB	554793	n/a	LTP146	ltpFR	8	n/a	n/a	n/a	n/a	n/a	n/a	14	1	7	6	n/a	n/a	n/a	n/a	n/a
1110.85	n/a	PROB	555425	n/a	LTP146	ltpFR	8	n/a	n/a	n/a	n/a	n/a	n/a	21	6	8	7	n/a	n/a	n/a	n/a	n/a
1112.704	n/a	STOP	556352	n/a	LTP146	ltpFR	8	n/a	n/a	n/a	n/a	n/a	n/a	n/a	n/a	n/a	n/a	n/a	n/a	n/a	n/a	n/a
1114.53	n/a	WORD	557265	wordpools/wasnorm_wordpool.txt	LTP146	ltpFR	8	5	0	TACK	1428	n/a	1	n/a	0	0	0	1	0.412841796875	0.57763671875	upper	../fonts/zerothre.ttf
1117.534	n/a	START	558767	n/a	LTP146	ltpFR	8	n/a	n/a	n/a	n/a	n/a	n/a	n/a	n/a	n/a	n/a	n/a	n/a	n/a	n/a	n/a
1118.358	n/a	PROB	559179	n/a	LTP146	ltpFR	8	n/a	n/a	n/a	n/a	n/a	n/a	20	6	8	8	n/a	n/a	n/a	n/a	n/a
1121.572	n/a	PROB	560786	n/a	LTP146	ltpFR	8	n/a	n/a	n/a	n/a	n/a	n/a	16	5	5	6	n/a	n/a	n/a	n/a	n/a
1122.836	n/a	PROB	561418	n/a	LTP146	ltpFR	8	n/a	n/a	n/a	n/a	n/a	n/a	20	3	9	8	n/a	n/a	n/a	n/a	n/a
1124.264	n/a	STOP	562132	n/a	LTP146	ltpFR	8	n/a	n/a	n/a	n/a	n/a	n/a	n/a	n/a	n/a	n/a	n/a	n/a	n/a	n/a	n/a
1126.516	n/a	WORD	563258	wordpools/wasnorm_wordpool.txt	LTP146	ltpFR	8	5	0	TOE	1473	n/a	0	n/a	0	0	0	1	0.412841796875	0.57763671875	upper	../fonts/zerothre.ttf
1129.522	n/a	START	564761	n/a	LTP146	ltpFR	8	n/a	n/a	n/a	n/a	n/a	n/a	n/a	n/a	n/a	n/a	n/a	n/a	n/a	n/a	n/a
1130.328	n/a	PROB	565164	n/a	LTP146	ltpFR	8	n/a	n/a	n/a	n/a	n/a	n/a	21	5	7	9	n/a	n/a	n/a	n/a	n/a
1132.3	n/a	PROB	566150	n/a	LTP146	ltpFR	8	n/a	n/a	n/a	n/a	n/a	n/a	17	5	6	6	n/a	n/a	n/a	n/a	n/a
1134.19	n/a	PROB	567095	n/a	LTP146	ltpFR	8	n/a	n/a	n/a	n/a	n/a	n/a	16	6	8	2	n/a	n/a	n/a	n/a	n/a
1135.388	n/a	PROB	567694	n/a	LTP146	ltpFR	8	n/a	n/a	n/a	n/a	n/a	n/a	7	3	3	1	n/a	n/a	n/a	n/a	n/a
1136.53	n/a	STOP	568265	n/a	LTP146	ltpFR	8	n/a	n/a	n/a	n/a	n/a	n/a	n/a	n/a	n/a	n/a	n/a	n/a	n/a	n/a	n/a
1138.67	n/a	WORD	569335	wordpools/wasnorm_wordpool.txt	LTP146	ltpFR	8	5	0	ELM	527	n/a	0	n/a	0	0	0	1	0.412841796875	0.57763671875	upper	../fonts/zerothre.ttf
1141.674	n/a	START	570837	n/a	LTP146	ltpFR	8	n/a	n/a	n/a	n/a	n/a	n/a	n/a	n/a	n/a	n/a	n/a	n/a	n/a	n/a	n/a
1142.598	n/a	PROB	571299	n/a	LTP146	ltpFR	8	n/a	n/a	n/a	n/a	n/a	n/a	10	4	3	3	n/a	n/a	n/a	n/a	n/a
1144.662	n/a	PROB	572331	n/a	LTP146	ltpFR	8	n/a	n/a	n/a	n/a	n/a	n/a	17	5	3	9	n/a	n/a	n/a	n/a	n/a
1146.618	n/a	PROB	573309	n/a	LTP146	ltpFR	8	n/a	n/a	n/a	n/a	n/a	n/a	15	7	2	5	n/a	n/a	n/a	n/a	n/a
1148.384	n/a	STOP	574192	n/a	LTP146	ltpFR	8	n/a	n/a	n/a	n/a	n/a	n/a	n/a	n/a	n/a	n/a	n/a	n/a	n/a	n/a	n/a
1150.512	n/a	WORD	575256	wordpools/wasnorm_wordpool.txt	LTP146	ltpFR	8	5	0	TWIG	1527	n/a	0	n/a	0	0	0	1	0.412841796875	0.57763671875	upper	../fonts/zerothre.ttf
1153.52	n/a	START	576760	n/a	LTP146	ltpFR	8	n/a	n/a	n/a	n/a	n/a	n/a	n/a	n/a	n/a	n/a	n/a	n/a	n/a	n/a	n/a
1154.592	n/a	PROB	577296	n/a	LTP146	ltpFR	8	n/a	n/a	n/a	n/a	n/a	n/a	16	7	4	9	n/a	n/a	n/a	n/a	n/a
1156.264	n/a	PROB	578132	n/a	LTP146	ltpFR	8	n/a	n/a	n/a	n/a	n/a	n/a	12	4	1	7	n/a	n/a	n/a	n/a	n/a
1157.988	n/a	PROB	578994	n/a	LTP146	ltpFR	8	n/a	n/a	n/a	n/a	n/a	n/a	15	9	2	4	n/a	n/a	n/a	n/a	n/a
1159.444	n/a	PROB	579722	n/a	LTP146	ltpFR	8	n/a	n/a	n/a	n/a	n/a	n/a	5	1	1	3	n/a	n/a	n/a	n/a	n/a
1160.48	n/a	STOP	580240	n/a	LTP146	ltpFR	8	n/a	n/a	n/a	n/a	n/a	n/a	n/a	n/a	n/a	n/a	n/a	n/a	n/a	n/a	n/a
1162.684	n/a	WORD	581342	wordpools/wasnorm_wordpool.txt	LTP146	ltpFR	8	5	0	CASHEW	253	n/a	0	n/a	0	0	0	1	0.412841796875	0.57763671875	upper	../fonts/zerothre.ttf
1165.688	n/a	START	582844	n/a	LTP146	ltpFR	8	n/a	n/a	n/a	n/a	n/a	n/a	n/a	n/a	n/a	n/a	n/a	n/a	n/a	n/a	n/a
1166.604	n/a	PROB	583302	n/a	LTP146	ltpFR	8	n/a	n/a	n/a	n/a	n/a	n/a	18	7	8	3	n/a	n/a	n/a	n/a	n/a
1167.96	n/a	PROB	583980	n/a	LTP146	ltpFR	8	n/a	n/a	n/a	n/a	n/a	n/a	16	3	9	3	n/a	n/a	n/a	n/a	n/a
1169.474	n/a	PROB	584737	n/a	LTP146	ltpFR	8	n/a	n/a	n/a	n/a	n/a	n/a	11	8	2	1	n/a	n/a	n/a	n/a	n/a
1170.632	n/a	PROB	585316	n/a	LTP146	ltpFR	8	n/a	n/a	n/a	n/a	n/a	n/a	11	4	3	4	n/a	n/a	n/a	n/a	n/a
1172.272	n/a	STOP	586136	n/a	LTP146	ltpFR	8	n/a	n/a	n/a	n/a	n/a	n/a	n/a	n/a	n/a	n/a	n/a	n/a	n/a	n/a	n/a
1174.578	n/a	WORD	587289	wordpools/wasnorm_wordpool.txt	LTP146	ltpFR	8	5	0	APPLICATION	34	n/a	0	n/a	0	0	0	1	0.412841796875	0.57763671875	upper	../fonts/zerothre.ttf
1177.584	n/a	START	588792	n/a	LTP146	ltpFR	8	n/a	n/a	n/a	n/a	n/a	n/a	n/a	n/a	n/a	n/a	n/a	n/a	n/a	n/a	n/a
1178.598	n/a	PROB	589299	n/a	LTP146	ltpFR	8	n/a	n/a	n/a	n/a	n/a	n/a	9	2	1	6	n/a	n/a	n/a	n/a	n/a
1179.988	n/a	PROB	589994	n/a	LTP146	ltpFR	8	n/a	n/a	n/a	n/a	n/a	n/a	12	1	9	2	n/a	n/a	n/a	n/a	n/a
1181.394	n/a	PROB	590697	n/a	LTP146	ltpFR	8	n/a	n/a	n/a	n/a	n/a	n/a	8	3	3	2	n/a	n/a	n/a	n/a	n/a
1182.668	n/a	PROB	591334	n/a	LTP146	ltpFR	8	n/a	n/a	n/a	n/a	n/a	n/a	12	8	3	1	n/a	n/a	n/a	n/a	n/a
1184.28	n/a	STOP	592140	n/a	LTP146	ltpFR	8	n/a	n/a	n/a	n/a	n/a	n/a	n/a	n/a	n/a	n/a	n/a	n/a	n/a	n/a	n/a
1186.764	n/a	WORD	593382	wordpools/wasnorm_wordpool.txt	LTP146	ltpFR	8	5	0	CORPORATION	382	n/a	1	n/a	0	0	0	1	0.412841796875	0.57763671875	upper	../fonts/zerothre.ttf
1189.768	n/a	START	594884	n/a	LTP146	ltpFR	8	n/a	n/a	n/a	n/a	n/a	n/a	n/a	n/a	n/a	n/a	n/a	n/a	n/a	n/a	n/a
1190.792	n/a	PROB	595396	n/a	LTP146	ltpFR	8	n/a	n/a	n/a	n/a	n/a	n/a	24	8	9	8	n/a	n/a	n/a	n/a	n/a
1192.682	n/a	PROB	596341	n/a	LTP146	ltpFR	8	n/a	n/a	n/a	n/a	n/a	n/a	12	4	6	2	n/a	n/a	n/a	n/a	n/a
1193.922	n/a	PROB	596961	n/a	LTP146	ltpFR	8	n/a	n/a	n/a	n/a	n/a	n/a	8	2	4	2	n/a	n/a	n/a	n/a	n/a
1197.768	n/a	STOP	598884	n/a	LTP146	ltpFR	8	n/a	n/a	n/a	n/a	n/a	n/a	n/a	n/a	n/a	n/a	n/a	n/a	n/a	n/a	n/a
1198.784	n/a	WORD	599392	wordpools/wasnorm_wordpool.txt	LTP146	ltpFR	8	5	0	MARGARINE	868	n/a	0	n/a	0	0	0	1	0.412841796875	0.57763671875	upper	../fonts/zerothre.ttf
1201.788	n/a	START	600894	n/a	LTP146	ltpFR	8	n/a	n/a	n/a	n/a	n/a	n/a	n/a	n/a	n/a	n/a	n/a	n/a	n/a	n/a	n/a
1202.736	n/a	PROB	601368	n/a	LTP146	ltpFR	8	n/a	n/a	n/a	n/a	n/a	n/a	20	7	7	6	n/a	n/a	n/a	n/a	n/a
1204.168	n/a	PROB	602084	n/a	LTP146	ltpFR	8	n/a	n/a	n/a	n/a	n/a	n/a	18	3	8	7	n/a	n/a	n/a	n/a	n/a
1205.602	n/a	PROB	602801	n/a	LTP146	ltpFR	8	n/a	n/a	n/a	n/a	n/a	n/a	13	1	5	8	n/a	n/a	n/a	n/a	n/a
1209.79	n/a	STOP	604895	n/a	LTP146	ltpFR	8	n/a	n/a	n/a	n/a	n/a	n/a	n/a	n/a	n/a	n/a	n/a	n/a	n/a	n/a	n/a
1210.654	n/a	WORD	605327	wordpools/wasnorm_wordpool.txt	LTP146	ltpFR	8	5	0	DESSERT	453	n/a	0	n/a	0	0	0	1	0.412841796875	0.57763671875	upper	../fonts/zerothre.ttf
1213.668	n/a	START	606834	n/a	LTP146	ltpFR	8	n/a	n/a	n/a	n/a	n/a	n/a	n/a	n/a	n/a	n/a	n/a	n/a	n/a	n/a	n/a
1214.698	n/a	PROB	607349	n/a	LTP146	ltpFR	8	n/a	n/a	n/a	n/a	n/a	n/a	12	1	5	6	n/a	n/a	n/a	n/a	n/a
1215.972	n/a	PROB	607986	n/a	LTP146	ltpFR	8	n/a	n/a	n/a	n/a	n/a	n/a	20	6	9	5	n/a	n/a	n/a	n/a	n/a
1217.67	n/a	PROB	608835	n/a	LTP146	ltpFR	8	n/a	n/a	n/a	n/a	n/a	n/a	17	6	2	9	n/a	n/a	n/a	n/a	n/a
1221.668	n/a	STOP	610834	n/a	LTP146	ltpFR	8	n/a	n/a	n/a	n/a	n/a	n/a	n/a	n/a	n/a	n/a	n/a	n/a	n/a	n/a	n/a
1222.856	n/a	WORD	611428	wordpools/wasnorm_wordpool.txt	LTP146	ltpFR	8	5	0	CIGARETTE	309	n/a	0	n/a	0	0	0	1	0.412841796875	0.57763671875	upper	../fonts/zerothre.ttf
1225.862	n/a	START	612931	n/a	LTP146	ltpFR	8	n/a	n/a	n/a	n/a	n/a	n/a	n/a	n/a	n/a	n/a	n/a	n/a	n/a	n/a	n/a
1226.868	n/a	PROB	613434	n/a	LTP146	ltpFR	8	n/a	n/a	n/a	n/a	n/a	n/a	14	5	7	2	n/a	n/a	n/a	n/a	n/a
1228.816	n/a	PROB	614408	n/a	LTP146	ltpFR	8	n/a	n/a	n/a	n/a	n/a	n/a	14	7	1	6	n/a	n/a	n/a	n/a	n/a
1230.422	n/a	PROB	615211	n/a	LTP146	ltpFR	8	n/a	n/a	n/a	n/a	n/a	n/a	20	8	7	5	n/a	n/a	n/a	n/a	n/a
1232.16	n/a	PROB	616080	n/a	LTP146	ltpFR	8	n/a	n/a	n/a	n/a	n/a	n/a	11	8	2	1	n/a	n/a	n/a	n/a	n/a
1233.474	n/a	STOP	616737	n/a	LTP146	ltpFR	8	n/a	n/a	n/a	n/a	n/a	n/a	n/a	n/a	n/a	n/a	n/a	n/a	n/a	n/a	n/a
1234.884	n/a	WORD	617442	wordpools/wasnorm_wordpool.txt	LTP146	ltpFR	8	5	0	SHEET	1279	n/a	0	n/a	0	0	0	1	0.412841796875	0.57763671875	upper	../fonts/zerothre.ttf
1237.89	n/a	START	618945	n/a	LTP146	ltpFR	8	n/a	n/a	n/a	n/a	n/a	n/a	n/a	n/a	n/a	n/a	n/a	n/a	n/a	n/a	n/a
1239.078	n/a	PROB	619539	n/a	LTP146	ltpFR	8	n/a	n/a	n/a	n/a	n/a	n/a	19	8	1	7	n/a	n/a	n/a	n/a	n/a
1240.868	n/a	PROB	620434	n/a	LTP146	ltpFR	8	n/a	n/a	n/a	n/a	n/a	n/a	17	5	5	7	n/a	n/a	n/a	n/a	n/a
1242.192	n/a	PROB	621096	n/a	LTP146	ltpFR	8	n/a	n/a	n/a	n/a	n/a	n/a	17	9	1	7	n/a	n/a	n/a	n/a	n/a
1243.44	n/a	PROB	621720	n/a	LTP146	ltpFR	8	n/a	n/a	n/a	n/a	n/a	n/a	4	2	1	1	n/a	n/a	n/a	n/a	n/a
1244.388	n/a	PROB	622194	n/a	LTP146	ltpFR	8	n/a	n/a	n/a	n/a	n/a	n/a	21	3	9	9	n/a	n/a	n/a	n/a	n/a
1245.658	n/a	STOP	622829	n/a	LTP146	ltpFR	8	n/a	n/a	n/a	n/a	n/a	n/a	n/a	n/a	n/a	n/a	n/a	n/a	n/a	n/a	n/a
1247.02	n/a	WORD	623510	wordpools/wasnorm_wordpool.txt	LTP146	ltpFR	8	5	0	PUDDING	1139	n/a	0	n/a	0	0	0	1	0.412841796875	0.57763671875	upper	../fonts/zerothre.ttf
1250.026	n/a	START	625013	n/a	LTP146	ltpFR	8	n/a	n/a	n/a	n/a	n/a	n/a	n/a	n/a	n/a	n/a	n/a	n/a	n/a	n/a	n/a
1250.932	n/a	PROB	625466	n/a	LTP146	ltpFR	8	n/a	n/a	n/a	n/a	n/a	n/a	14	7	6	1	n/a	n/a	n/a	n/a	n/a
1252.18	n/a	PROB	626090	n/a	LTP146	ltpFR	8	n/a	n/a	n/a	n/a	n/a	n/a	15	2	9	4	n/a	n/a	n/a	n/a	n/a
1253.628	n/a	PROB	626814	n/a	LTP146	ltpFR	8	n/a	n/a	n/a	n/a	n/a	n/a	18	3	9	6	n/a	n/a	n/a	n/a	n/a
1255.168	n/a	PROB	627584	n/a	LTP146	ltpFR	8	n/a	n/a	n/a	n/a	n/a	n/a	11	4	2	5	n/a	n/a	n/a	n/a	n/a
1256.81	n/a	STOP	628405	n/a	LTP146	ltpFR	8	n/a	n/a	n/a	n/a	n/a	n/a	n/a	n/a	n/a	n/a	n/a	n/a	n/a	n/a	n/a
1258.972	n/a	WORD	629486	wordpools/wasnorm_wordpool.txt	LTP146	ltpFR	8	5	0	MUFFIN	929	n/a	0	n/a	0	0	0	1	0.412841796875	0.57763671875	upper	../fonts/zerothre.ttf
1261.978	n/a	START	630989	n/a	LTP146	ltpFR	8	n/a	n/a	n/a	n/a	n/a	n/a	n/a	n/a	n/a	n/a	n/a	n/a	n/a	n/a	n/a
1263.06	n/a	PROB	631530	n/a	LTP146	ltpFR	8	n/a	n/a	n/a	n/a	n/a	n/a	15	7	2	6	n/a	n/a	n/a	n/a	n/a
1264.782	n/a	PROB	632391	n/a	LTP146	ltpFR	8	n/a	n/a	n/a	n/a	n/a	n/a	18	6	9	3	n/a	n/a	n/a	n/a	n/a
1266.322	n/a	PROB	633161	n/a	LTP146	ltpFR	8	n/a	n/a	n/a	n/a	n/a	n/a	22	7	9	6	n/a	n/a	n/a	n/a	n/a
1268.186	n/a	PROB	634093	n/a	LTP146	ltpFR	8	n/a	n/a	n/a	n/a	n/a	n/a	14	6	7	1	n/a	n/a	n/a	n/a	n/a
1269.594	n/a	STOP	634797	n/a	LTP146	ltpFR	8	n/a	n/a	n/a	n/a	n/a	n/a	n/a	n/a	n/a	n/a	n/a	n/a	n/a	n/a	n/a
1271.008	n/a	WORD	635504	wordpools/wasnorm_wordpool.txt	LTP146	ltpFR	8	5	0	ANCHOR	21	n/a	0	n/a	0	0	0	1	0.412841796875	0.57763671875	upper	../fonts/zerothre.ttf
1274.014	n/a	START	637007	n/a	LTP146	ltpFR	8	n/a	n/a	n/a	n/a	n/a	n/a	n/a	n/a	n/a	n/a	n/a	n/a	n/a	n/a	n/a
1275.03	n/a	PROB	637515	n/a	LTP146	ltpFR	8	n/a	n/a	n/a	n/a	n/a	n/a	1	3	3	7	n/a	n/a	n/a	n/a	n/a
1276.376	n/a	PROB	638188	n/a	LTP146	ltpFR	8	n/a	n/a	n/a	n/a	n/a	n/a	22	9	8	5	n/a	n/a	n/a	n/a	n/a
1278.132	n/a	PROB	639066	n/a	LTP146	ltpFR	8	n/a	n/a	n/a	n/a	n/a	n/a	9	1	5	3	n/a	n/a	n/a	n/a	n/a
1279.766	n/a	PROB	639883	n/a	LTP146	ltpFR	8	n/a	n/a	n/a	n/a	n/a	n/a	21	6	7	8	n/a	n/a	n/a	n/a	n/a
1281.684	n/a	STOP	640842	n/a	LTP146	ltpFR	8	n/a	n/a	n/a	n/a	n/a	n/a	n/a	n/a	n/a	n/a	n/a	n/a	n/a	n/a	n/a
1282.904	n/a	WORD	641452	wordpools/wasnorm_wordpool.txt	LTP146	ltpFR	8	5	0	SKYSCRAPER	1322	n/a	1	n/a	0	0	0	1	0.412841796875	0.57763671875	upper	../fonts/zerothre.ttf
1285.91	n/a	START	642955	n/a	LTP146	ltpFR	8	n/a	n/a	n/a	n/a	n/a	n/a	n/a	n/a	n/a	n/a	n/a	n/a	n/a	n/a	n/a
1286.9	n/a	PROB	643450	n/a	LTP146	ltpFR	8	n/a	n/a	n/a	n/a	n/a	n/a	15	6	4	5	n/a	n/a	n/a	n/a	n/a
1288.698	n/a	PROB	644349	n/a	LTP146	ltpFR	8	n/a	n/a	n/a	n/a	n/a	n/a	17	7	7	3	n/a	n/a	n/a	n/a	n/a
1290.854	n/a	PROB	645427	n/a	LTP146	ltpFR	8	n/a	n/a	n/a	n/a	n/a	n/a	18	7	4	7	n/a	n/a	n/a	n/a	n/a
1292.466	n/a	STOP	646233	n/a	LTP146	ltpFR	8	n/a	n/a	n/a	n/a	n/a	n/a	n/a	n/a	n/a	n/a	n/a	n/a	n/a	n/a	n/a
1295.69	n/a	REC_START	647845	n/a	LTP146	ltpFR	8	5	n/a	n/a	n/a	n/a	n/a	n/a	0	0	0	n/a	n/a	n/a	n/a	n/a
1296.562	n/a	REC_WORD	648281	wordpools/wasnorm_wordpool.txt	LTP146	ltpFR	8	5	0	SKYSCRAPER	1322	n/a	1	n/a	0	0	0	n/a	n/a	n/a	n/a	n/a
1297.96	n/a	REC_WORD	648980	wordpools/wasnorm_wordpool.txt	LTP146	ltpFR	8	5	0	PUDDING	1139	n/a	0	n/a	0	0	0	n/a	n/a	n/a	n/a	n/a
1298.928	n/a	REC_WORD	649464	wordpools/wasnorm_wordpool.txt	LTP146	ltpFR	8	5	0	MUFFIN	929	n/a	0	n/a	0	0	0	n/a	n/a	n/a	n/a	n/a
1300.13	n/a	REC_WORD	650065	wordpools/wasnorm_wordpool.txt	LTP146	ltpFR	8	5	0	MARGARINE	868	n/a	0	n/a	0	0	0	n/a	n/a	n/a	n/a	n/a
1301.562	n/a	REC_WORD	650781	wordpools/wasnorm_wordpool.txt	LTP146	ltpFR	8	5	0	CORPORATION	382	n/a	1	n/a	0	0	0	n/a	n/a	n/a	n/a	n/a
1302.562	n/a	REC_WORD_VV	651281	wordpools/wasnorm_wordpool.txt	LTP146	ltpFR	8	5	n/a	<>	-1	n/a	n/a	n/a	0	0	0	n/a	n/a	n/a	n/a	n/a
1303.448	n/a	REC_WORD	651724	wordpools/wasnorm_wordpool.txt	LTP146	ltpFR	8	5	0	APPLICATION	34	n/a	0	n/a	0	0	0	n/a	n/a	n/a	n/a	n/a
1304.448	n/a	REC_WORD_VV	652224	wordpools/wasnorm_wordpool.txt	LTP146	ltpFR	8	5	n/a	<>	-1	n/a	n/a	n/a	0	0	0	n/a	n/a	n/a	n/a	n/a
1353.708	n/a	REC_WORD	676854	wordpools/wasnorm_wordpool.txt	LTP146	ltpFR	8	5	0	CASHEW	253	n/a	0	n/a	0	0	0	n/a	n/a	n/a	n/a	n/a
1387.718	n/a	START	693859	n/a	LTP146	ltpFR	8	n/a	n/a	n/a	n/a	n/a	n/a	n/a	n/a	n/a	n/a	n/a	n/a	n/a	n/a	n/a
1389.222	n/a	PROB	694611	n/a	LTP146	ltpFR	8	n/a	n/a	n/a	n/a	n/a	n/a	11	7	2	2	n/a	n/a	n/a	n/a	n/a
1391.22	n/a	PROB	695610	n/a	LTP146	ltpFR	8	n/a	n/a	n/a	n/a	n/a	n/a	11	1	7	3	n/a	n/a	n/a	n/a	n/a
1392.394	n/a	PROB	696197	n/a	LTP146	ltpFR	8	n/a	n/a	n/a	n/a	n/a	n/a	17	2	9	6	n/a	n/a	n/a	n/a	n/a
1393.826	n/a	PROB	696913	n/a	LTP146	ltpFR	8	n/a	n/a	n/a	n/a	n/a	n/a	12	5	6	1	n/a	n/a	n/a	n/a	n/a
1395.008	n/a	PROB	697504	n/a	LTP146	ltpFR	8	n/a	n/a	n/a	n/a	n/a	n/a	20	5	9	6	n/a	n/a	n/a	n/a	n/a
1396.582	n/a	PROB	698291	n/a	LTP146	ltpFR	8	n/a	n/a	n/a	n/a	n/a	n/a	14	5	6	3	n/a	n/a	n/a	n/a	n/a
1398.104	n/a	PROB	699052	n/a	LTP146	ltpFR	8	n/a	n/a	n/a	n/a	n/a	n/a	15	5	6	4	n/a	n/a	n/a	n/a	n/a
1399.604	n/a	PROB	699802	n/a	LTP146	ltpFR	8	n/a	n/a	n/a	n/a	n/a	n/a	13	1	7	5	n/a	n/a	n/a	n/a	n/a
1401.184	n/a	PROB	700592	n/a	LTP146	ltpFR	8	n/a	n/a	n/a	n/a	n/a	n/a	16	7	2	7	n/a	n/a	n/a	n/a	n/a
1402.612	n/a	STOP	701306	n/a	LTP146	ltpFR	8	n/a	n/a	n/a	n/a	n/a	n/a	n/a	n/a	n/a	n/a	n/a	n/a	n/a	n/a	n/a
1404.848	n/a	WORD	702424	wordpools/wasnorm_wordpool.txt	LTP146	ltpFR	8	6	1	PADDING	999	n/a	0	n/a	0	0	0	0	0.5869140625	0.422607421875	lower	../fonts/amplitud.ttf
1407.852	n/a	START	703926	n/a	LTP146	ltpFR	8	n/a	n/a	n/a	n/a	n/a	n/a	n/a	n/a	n/a	n/a	n/a	n/a	n/a	n/a	n/a
1408.76	n/a	PROB	704380	n/a	LTP146	ltpFR	8	n/a	n/a	n/a	n/a	n/a	n/a	12	3	4	5	n/a	n/a	n/a	n/a	n/a
1410.574	n/a	PROB	705287	n/a	LTP146	ltpFR	8	n/a	n/a	n/a	n/a	n/a	n/a	16	9	3	4	n/a	n/a	n/a	n/a	n/a
1412.53	n/a	PROB	706265	n/a	LTP146	ltpFR	8	n/a	n/a	n/a	n/a	n/a	n/a	16	7	5	4	n/a	n/a	n/a	n/a	n/a
1414.368	n/a	PROB	707184	n/a	LTP146	ltpFR	8	n/a	n/a	n/a	n/a	n/a	n/a	24	9	9	6	n/a	n/a	n/a	n/a	n/a
1417.09	n/a	PROB	708545	n/a	LTP146	ltpFR	8	n/a	n/a	n/a	n/a	n/a	n/a	14	2	3	9	n/a	n/a	n/a	n/a	n/a
1418.488	n/a	PROB	709244	n/a	LTP146	ltpFR	8	n/a	n/a	n/a	n/a	n/a	n/a	13	1	5	7	n/a	n/a	n/a	n/a	n/a
1420.196	n/a	PROB	710098	n/a	LTP146	ltpFR	8	n/a	n/a	n/a	n/a	n/a	n/a	14	9	4	1	n/a	n/a	n/a	n/a	n/a
1423.852	n/a	STOP	711926	n/a	LTP146	ltpFR	8	n/a	n/a	n/a	n/a	n/a	n/a	n/a	n/a	n/a	n/a	n/a	n/a	n/a	n/a	n/a
1424.674	n/a	WORD	712337	wordpools/wasnorm_wordpool.txt	LTP146	ltpFR	8	6	1	WALRUS	1585	n/a	1	n/a	0	0	0	0	0.5869140625	0.422607421875	lower	../fonts/amplitud.ttf
1427.68	n/a	START	713840	n/a	LTP146	ltpFR	8	n/a	n/a	n/a	n/a	n/a	n/a	n/a	n/a	n/a	n/a	n/a	n/a	n/a	n/a	n/a
1428.654	n/a	PROB	714327	n/a	LTP146	ltpFR	8	n/a	n/a	n/a	n/a	n/a	n/a	25	7	9	9	n/a	n/a	n/a	n/a	n/a
1430.242	n/a	PROB	715121	n/a	LTP146	ltpFR	8	n/a	n/a	n/a	n/a	n/a	n/a	12	5	2	5	n/a	n/a	n/a	n/a	n/a
1431.624	n/a	PROB	715812	n/a	LTP146	ltpFR	8	n/a	n/a	n/a	n/a	n/a	n/a	15	8	3	4	n/a	n/a	n/a	n/a	n/a
1433.774	n/a	PROB	716887	n/a	LTP146	ltpFR	8	n/a	n/a	n/a	n/a	n/a	n/a	16	8	5	3	n/a	n/a	n/a	n/a	n/a
1435.704	n/a	PROB	717852	n/a	LTP146	ltpFR	8	n/a	n/a	n/a	n/a	n/a	n/a	23	5	9	9	n/a	n/a	n/a	n/a	n/a
1437.118	n/a	PROB	718559	n/a	LTP146	ltpFR	8	n/a	n/a	n/a	n/a	n/a	n/a	18	7	8	3	n/a	n/a	n/a	n/a	n/a
1438.55	n/a	PROB	719275	n/a	LTP146	ltpFR	8	n/a	n/a	n/a	n/a	n/a	n/a	17	8	5	4	n/a	n/a	n/a	n/a	n/a
1440.856	n/a	PROB	720428	n/a	LTP146	ltpFR	8	n/a	n/a	n/a	n/a	n/a	n/a	14	9	1	4	n/a	n/a	n/a	n/a	n/a
1442.03	n/a	PROB	721015	n/a	LTP146	ltpFR	8	n/a	n/a	n/a	n/a	n/a	n/a	27	9	9	9	n/a	n/a	n/a	n/a	n/a
1443.42	n/a	STOP	721710	n/a	LTP146	ltpFR	8	n/a	n/a	n/a	n/a	n/a	n/a	n/a	n/a	n/a	n/a	n/a	n/a	n/a	n/a	n/a
1444.852	n/a	WORD	722426	wordpools/wasnorm_wordpool.txt	LTP146	ltpFR	8	6	1	SALIVA	1226	n/a	0	n/a	0	0	0	0	0.5869140625	0.422607421875	lower	../fonts/amplitud.ttf
1447.858	n/a	START	723929	n/a	LTP146	ltpFR	8	n/a	n/a	n/a	n/a	n/a	n/a	n/a	n/a	n/a	n/a	n/a	n/a	n/a	n/a	n/a
1449.048	n/a	PROB	724524	n/a	LTP146	ltpFR	8	n/a	n/a	n/a	n/a	n/a	n/a	13	1	7	5	n/a	n/a	n/a	n/a	n/a
1450.67	n/a	PROB	725335	n/a	LTP146	ltpFR	8	n/a	n/a	n/a	n/a	n/a	n/a	9	6	1	2	n/a	n/a	n/a	n/a	n/a
1452.834	n/a	PROB	726417	n/a	LTP146	ltpFR	8	n/a	n/a	n/a	n/a	n/a	n/a	22	5	9	8	n/a	n/a	n/a	n/a	n/a
1454.766	n/a	PROB	727383	n/a	LTP146	ltpFR	8	n/a	n/a	n/a	n/a	n/a	n/a	18	8	8	2	n/a	n/a	n/a	n/a	n/a
1456.58	n/a	PROB	728290	n/a	LTP146	ltpFR	8	n/a	n/a	n/a	n/a	n/a	n/a	19	6	7	6	n/a	n/a	n/a	n/a	n/a
1458.67	n/a	PROB	729335	n/a	LTP146	ltpFR	8	n/a	n/a	n/a	n/a	n/a	n/a	111	3	3	5	n/a	n/a	n/a	n/a	n/a
1461.074	n/a	PROB	730537	n/a	LTP146	ltpFR	8	n/a	n/a	n/a	n/a	n/a	n/a	12	2	3	7	n/a	n/a	n/a	n/a	n/a
1462.814	n/a	STOP	731407	n/a	LTP146	ltpFR	8	n/a	n/a	n/a	n/a	n/a	n/a	n/a	n/a	n/a	n/a	n/a	n/a	n/a	n/a	n/a
1464.754	n/a	WORD	732377	wordpools/wasnorm_wordpool.txt	LTP146	ltpFR	8	6	1	BARN	89	n/a	0	n/a	0	0	0	0	0.5869140625	0.422607421875	lower	../fonts/amplitud.ttf
1467.76	n/a	START	733880	n/a	LTP146	ltpFR	8	n/a	n/a	n/a	n/a	n/a	n/a	n/a	n/a	n/a	n/a	n/a	n/a	n/a	n/a	n/a
1468.858	n/a	PROB	734429	n/a	LTP146	ltpFR	8	n/a	n/a	n/a	n/a	n/a	n/a	14	8	4	2	n/a	n/a	n/a	n/a	n/a
1470.264	n/a	PROB	735132	n/a	LTP146	ltpFR	8	n/a	n/a	n/a	n/a	n/a	n/a	12	3	6	3	n/a	n/a	n/a	n/a	n/a
1472.094	n/a	PROB	736047	n/a	LTP146	ltpFR	8	n/a	n/a	n/a	n/a	n/a	n/a	15	9	5	1	n/a	n/a	n/a	n/a	n/a
1473.518	n/a	PROB	736759	n/a	LTP146	ltpFR	8	n/a	n/a	n/a	n/a	n/a	n/a	16	9	3	4	n/a	n/a	n/a	n/a	n/a
1475.082	n/a	PROB	737541	n/a	LTP146	ltpFR	8	n/a	n/a	n/a	n/a	n/a	n/a	21	7	7	7	n/a	n/a	n/a	n/a	n/a
1476.206	n/a	PROB	738103	n/a	LTP146	ltpFR	8	n/a	n/a	n/a	n/a	n/a	n/a	19	6	8	5	n/a	n/a	n/a	n/a	n/a
1477.614	n/a	PROB	738807	n/a	LTP146	ltpFR	8	n/a	n/a	n/a	n/a	n/a	n/a	7	2	3	2	n/a	n/a	n/a	n/a	n/a
1479.596	n/a	PROB	739798	n/a	LTP146	ltpFR	8	n/a	n/a	n/a	n/a	n/a	n/a	15	2	7	6	n/a	n/a	n/a	n/a	n/a
1480.952	n/a	PROB	740476	n/a	LTP146	ltpFR	8	n/a	n/a	n/a	n/a	n/a	n/a	10	1	5	4	n/a	n/a	n/a	n/a	n/a
1482.862	n/a	STOP	741431	n/a	LTP146	ltpFR	8	n/a	n/a	n/a	n/a	n/a	n/a	n/a	n/a	n/a	n/a	n/a	n/a	n/a	n/a	n/a
1484.706	n/a	WORD	742353	wordpools/wasnorm_wordpool.txt	LTP146	ltpFR	8	6	1	WINDOW	1611	n/a	0	n/a	0	0	0	0	0.5869140625	0.422607421875	lower	../fonts/amplitud.ttf
1487.712	n/a	START	743856	n/a	LTP146	ltpFR	8	n/a	n/a	n/a	n/a	n/a	n/a	n/a	n/a	n/a	n/a	n/a	n/a	n/a	n/a	n/a
1488.534	n/a	PROB	744267	n/a	LTP146	ltpFR	8	n/a	n/a	n/a	n/a	n/a	n/a	16	9	3	7	n/a	n/a	n/a	n/a	n/a
1489.934	n/a	PROB	744967	n/a	LTP146	ltpFR	8	n/a	n/a	n/a	n/a	n/a	n/a	18	7	9	2	n/a	n/a	n/a	n/a	n/a
1492.23	n/a	PROB	746115	n/a	LTP146	ltpFR	8	n/a	n/a	n/a	n/a	n/a	n/a	18	1	9	8	n/a	n/a	n/a	n/a	n/a
1493.62	n/a	PROB	746810	n/a	LTP146	ltpFR	8	n/a	n/a	n/a	n/a	n/a	n/a	13	5	6	2	n/a	n/a	n/a	n/a	n/a
1495.002	n/a	PROB	747501	n/a	LTP146	ltpFR	8	n/a	n/a	n/a	n/a	n/a	n/a	21	8	4	9	n/a	n/a	n/a	n/a	n/a
1496.95	n/a	PROB	748475	n/a	LTP146	ltpFR	8	n/a	n/a	n/a	n/a	n/a	n/a	12	5	3	4	n/a	n/a	n/a	n/a	n/a
1498.84	n/a	PROB	749420	n/a	LTP146	ltpFR	8	n/a	n/a	n/a	n/a	n/a	n/a	17	3	7	7	n/a	n/a	n/a	n/a	n/a
1500.62	n/a	PROB	750310	n/a	LTP146	ltpFR	8	n/a	n/a	n/a	n/a	n/a	n/a	24	9	8	7	n/a	n/a	n/a	n/a	n/a
1502.726	n/a	STOP	751363	n/a	LTP146	ltpFR	8	n/a	n/a	n/a	n/a	n/a	n/a	n/a	n/a	n/a	n/a	n/a	n/a	n/a	n/a	n/a
1504.592	n/a	WORD	752296	wordpools/wasnorm_wordpool.txt	LTP146	ltpFR	8	6	1	TURNIP	1521	n/a	0	n/a	0	0	0	0	0.5869140625	0.422607421875	lower	../fonts/amplitud.ttf
1507.596	n/a	START	753798	n/a	LTP146	ltpFR	8	n/a	n/a	n/a	n/a	n/a	n/a	n/a	n/a	n/a	n/a	n/a	n/a	n/a	n/a	n/a
1508.478	n/a	PROB	754239	n/a	LTP146	ltpFR	8	n/a	n/a	n/a	n/a	n/a	n/a	10	5	4	1	n/a	n/a	n/a	n/a	n/a
1509.744	n/a	PROB	754872	n/a	LTP146	ltpFR	8	n/a	n/a	n/a	n/a	n/a	n/a	13	4	3	6	n/a	n/a	n/a	n/a	n/a
1511.458	n/a	PROB	755729	n/a	LTP146	ltpFR	8	n/a	n/a	n/a	n/a	n/a	n/a	8	1	3	4	n/a	n/a	n/a	n/a	n/a
1513.148	n/a	PROB	756574	n/a	LTP146	ltpFR	8	n/a	n/a	n/a	n/a	n/a	n/a	22	4	9	9	n/a	n/a	n/a	n/a	n/a
1515.662	n/a	PROB	757831	n/a	LTP146	ltpFR	8	n/a	n/a	n/a	n/a	n/a	n/a	9	2	5	2	n/a	n/a	n/a	n/a	n/a
1516.978	n/a	PROB	758489	n/a	LTP146	ltpFR	8	n/a	n/a	n/a	n/a	n/a	n/a	10	3	2	5	n/a	n/a	n/a	n/a	n/a
1518.326	n/a	PROB	759163	n/a	LTP146	ltpFR	8	n/a	n/a	n/a	n/a	n/a	n/a	17	6	9	2	n/a	n/a	n/a	n/a	n/a
1519.65	n/a	PROB	759825	n/a	LTP146	ltpFR	8	n/a	n/a	n/a	n/a	n/a	n/a	18	8	4	9	n/a	n/a	n/a	n/a	n/a
1521.188	n/a	PROB	760594	n/a	LTP146	ltpFR	8	n/a	n/a	n/a	n/a	n/a	n/a	12	6	5	1	n/a	n/a	n/a	n/a	n/a
1522.502	n/a	STOP	761251	n/a	LTP146	ltpFR	8	n/a	n/a	n/a	n/a	n/a	n/a	n/a	n/a	n/a	n/a	n/a	n/a	n/a	n/a	n/a
1524.568	n/a	WORD	762284	wordpools/wasnorm_wordpool.txt	LTP146	ltpFR	8	6	1	RACCOON	1153	n/a	1	n/a	0	0	0	0	0.5869140625	0.422607421875	lower	../fonts/amplitud.ttf
1527.574	n/a	START	763787	n/a	LTP146	ltpFR	8	n/a	n/a	n/a	n/a	n/a	n/a	n/a	n/a	n/a	n/a	n/a	n/a	n/a	n/a	n/a
1528.414	n/a	PROB	764207	n/a	LTP146	ltpFR	8	n/a	n/a	n/a	n/a	n/a	n/a	12	4	3	5	n/a	n/a	n/a	n/a	n/a
1530.378	n/a	PROB	765189	n/a	LTP146	ltpFR	8	n/a	n/a	n/a	n/a	n/a	n/a	11	1	6	4	n/a	n/a	n/a	n/a	n/a
1532.052	n/a	PROB	766026	n/a	LTP146	ltpFR	8	n/a	n/a	n/a	n/a	n/a	n/a	13	2	6	5	n/a	n/a	n/a	n/a	n/a
1533.366	n/a	PROB	766683	n/a	LTP146	ltpFR	8	n/a	n/a	n/a	n/a	n/a	n/a	14	4	6	4	n/a	n/a	n/a	n/a	n/a
1534.506	n/a	PROB	767253	n/a	LTP146	ltpFR	8	n/a	n/a	n/a	n/a	n/a	n/a	16	2	7	7	n/a	n/a	n/a	n/a	n/a
1535.714	n/a	PROB	767857	n/a	LTP146	ltpFR	8	n/a	n/a	n/a	n/a	n/a	n/a	18	4	3	9	n/a	n/a	n/a	n/a	n/a
1537.662	n/a	PROB	768831	n/a	LTP146	ltpFR	8	n/a	n/a	n/a	n/a	n/a	n/a	19	8	2	9	n/a	n/a	n/a	n/a	n/a
1539.992	n/a	PROB	769996	n/a	LTP146	ltpFR	8	n/a	n/a	n/a	n/a	n/a	n/a	9	1	1	7	n/a	n/a	n/a	n/a	n/a
1541.44	n/a	PROB	770720	n/a	LTP146	ltpFR	8	n/a	n/a	n/a	n/a	n/a	n/a	15	4	4	7	n/a	n/a	n/a	n/a	n/a
1543.358	n/a	STOP	771679	n/a	LTP146	ltpFR	8	n/a	n/a	n/a	n/a	n/a	n/a	n/a	n/a	n/a	n/a	n/a	n/a	n/a	n/a	n/a
1544.612	n/a	WORD	772306	wordpools/wasnorm_wordpool.txt	LTP146	ltpFR	8	6	1	BOYFRIEND	162	n/a	1	n/a	0	0	0	0	0.5869140625	0.422607421875	lower	../fonts/amplitud.ttf
1547.618	n/a	START	773809	n/a	LTP146	ltpFR	8	n/a	n/a	n/a	n/a	n/a	n/a	n/a	n/a	n/a	n/a	n/a	n/a	n/a	n/a	n/a
1548.682	n/a	PROB	774341	n/a	LTP146	ltpFR	8	n/a	n/a	n/a	n/a	n/a	n/a	18	9	1	8	n/a	n/a	n/a	n/a	n/a
1550.33	n/a	PROB	775165	n/a	LTP146	ltpFR	8	n/a	n/a	n/a	n/a	n/a	n/a	24	7	7	9	n/a	n/a	n/a	n/a	n/a
1551.854	n/a	PROB	775927	n/a	LTP146	ltpFR	8	n/a	n/a	n/a	n/a	n/a	n/a	13	4	5	3	n/a	n/a	n/a	n/a	n/a
1553.984	n/a	PROB	776992	n/a	LTP146	ltpFR	8	n/a	n/a	n/a	n/a	n/a	n/a	21	8	8	5	n/a	n/a	n/a	n/a	n/a
1555.432	n/a	PROB	777716	n/a	LTP146	ltpFR	8	n/a	n/a	n/a	n/a	n/a	n/a	16	8	2	6	n/a	n/a	n/a	n/a	n/a
1556.974	n/a	PROB	778487	n/a	LTP146	ltpFR	8	n/a	n/a	n/a	n/a	n/a	n/a	7	2	3	3	n/a	n/a	n/a	n/a	n/a
1558.638	n/a	PROB	779319	n/a	LTP146	ltpFR	8	n/a	n/a	n/a	n/a	n/a	n/a	6	2	3	1	n/a	n/a	n/a	n/a	n/a
1560.21	n/a	PROB	780105	n/a	LTP146	ltpFR	8	n/a	n/a	n/a	n/a	n/a	n/a	16	4	4	8	n/a	n/a	n/a	n/a	n/a
1562.042	n/a	PROB	781021	n/a	LTP146	ltpFR	8	n/a	n/a	n/a	n/a	n/a	n/a	11	8	1	2	n/a	n/a	n/a	n/a	n/a
1563.414	n/a	STOP	781707	n/a	LTP146	ltpFR	8	n/a	n/a	n/a	n/a	n/a	n/a	n/a	n/a	n/a	n/a	n/a	n/a	n/a	n/a	n/a
1564.63	n/a	WORD	782315	wordpools/wasnorm_wordpool.txt	LTP146	ltpFR	8	6	1	PILLOW	1069	n/a	0	n/a	0	0	0	0	0.5869140625	0.422607421875	lower	../fonts/amplitud.ttf
1567.636	n/a	START	783818	n/a	LTP146	ltpFR	8	n/a	n/a	n/a	n/a	n/a	n/a	n/a	n/a	n/a	n/a	n/a	n/a	n/a	n/a	n/a
1568.508	n/a	PROB	784254	n/a	LTP146	ltpFR	8	n/a	n/a	n/a	n/a	n/a	n/a	16	8	2	6	n/a	n/a	n/a	n/a	n/a
1569.942	n/a	PROB	784971	n/a	LTP146	ltpFR	8	n/a	n/a	n/a	n/a	n/a	n/a	17	2	8	7	n/a	n/a	n/a	n/a	n/a
1572.096	n/a	PROB	786048	n/a	LTP146	ltpFR	8	n/a	n/a	n/a	n/a	n/a	n/a	13	1	9	3	n/a	n/a	n/a	n/a	n/a
1573.654	n/a	PROB	786827	n/a	LTP146	ltpFR	8	n/a	n/a	n/a	n/a	n/a	n/a	15	9	2	4	n/a	n/a	n/a	n/a	n/a
1575.234	n/a	PROB	787617	n/a	LTP146	ltpFR	8	n/a	n/a	n/a	n/a	n/a	n/a	7	1	4	2	n/a	n/a	n/a	n/a	n/a
1576.958	n/a	PROB	788479	n/a	LTP146	ltpFR	8	n/a	n/a	n/a	n/a	n/a	n/a	13	4	1	7	n/a	n/a	n/a	n/a	n/a
1579.462	n/a	PROB	789731	n/a	LTP146	ltpFR	8	n/a	n/a	n/a	n/a	n/a	n/a	18	2	7	9	n/a	n/a	n/a	n/a	n/a
1581.244	n/a	PROB	790622	n/a	LTP146	ltpFR	8	n/a	n/a	n/a	n/a	n/a	n/a	17	8	8	1	n/a	n/a	n/a	n/a	n/a
1582.806	n/a	STOP	791403	n/a	LTP146	ltpFR	8	n/a	n/a	n/a	n/a	n/a	n/a	n/a	n/a	n/a	n/a	n/a	n/a	n/a	n/a	n/a
1584.758	n/a	WORD	792379	wordpools/wasnorm_wordpool.txt	LTP146	ltpFR	8	6	1	GULL	671	n/a	1	n/a	0	0	0	0	0.5869140625	0.422607421875	lower	../fonts/amplitud.ttf
1587.764	n/a	START	793882	n/a	LTP146	ltpFR	8	n/a	n/a	n/a	n/a	n/a	n/a	n/a	n/a	n/a	n/a	n/a	n/a	n/a	n/a	n/a
1588.854	n/a	PROB	794427	n/a	LTP146	ltpFR	8	n/a	n/a	n/a	n/a	n/a	n/a	17	9	4	2	n/a	n/a	n/a	n/a	n/a
1591.308	n/a	PROB	795654	n/a	LTP146	ltpFR	8	n/a	n/a	n/a	n/a	n/a	n/a	12	1	2	9	n/a	n/a	n/a	n/a	n/a
1592.666	n/a	PROB	796333	n/a	LTP146	ltpFR	8	n/a	n/a	n/a	n/a	n/a	n/a	19	6	4	9	n/a	n/a	n/a	n/a	n/a
1595.512	n/a	PROB	797756	n/a	LTP146	ltpFR	8	n/a	n/a	n/a	n/a	n/a	n/a	15	8	4	3	n/a	n/a	n/a	n/a	n/a
1597.302	n/a	PROB	798651	n/a	LTP146	ltpFR	8	n/a	n/a	n/a	n/a	n/a	n/a	10	6	3	1	n/a	n/a	n/a	n/a	n/a
1598.726	n/a	PROB	799363	n/a	LTP146	ltpFR	8	n/a	n/a	n/a	n/a	n/a	n/a	8	2	6	2	n/a	n/a	n/a	n/a	n/a
1600.074	n/a	PROB	800037	n/a	LTP146	ltpFR	8	n/a	n/a	n/a	n/a	n/a	n/a	10	1	8	1	n/a	n/a	n/a	n/a	n/a
1601.496	n/a	PROB	800748	n/a	LTP146	ltpFR	8	n/a	n/a	n/a	n/a	n/a	n/a	16	2	6	8	n/a	n/a	n/a	n/a	n/a
1603.126	n/a	STOP	801563	n/a	LTP146	ltpFR	8	n/a	n/a	n/a	n/a	n/a	n/a	n/a	n/a	n/a	n/a	n/a	n/a	n/a	n/a	n/a
1604.578	n/a	WORD	802289	wordpools/wasnorm_wordpool.txt	LTP146	ltpFR	8	6	1	TREAD	1499	n/a	0	n/a	0	0	0	0	0.5869140625	0.422607421875	lower	../fonts/amplitud.ttf
1607.582	n/a	START	803791	n/a	LTP146	ltpFR	8	n/a	n/a	n/a	n/a	n/a	n/a	n/a	n/a	n/a	n/a	n/a	n/a	n/a	n/a	n/a
1608.63	n/a	PROB	804315	n/a	LTP146	ltpFR	8	n/a	n/a	n/a	n/a	n/a	n/a	12	9	1	2	n/a	n/a	n/a	n/a	n/a
1609.896	n/a	PROB	804948	n/a	LTP146	ltpFR	8	n/a	n/a	n/a	n/a	n/a	n/a	16	6	9	1	n/a	n/a	n/a	n/a	n/a
1611.336	n/a	PROB	805668	n/a	LTP146	ltpFR	8	n/a	n/a	n/a	n/a	n/a	n/a	20	9	5	7	n/a	n/a	n/a	n/a	n/a
1613.232	n/a	PROB	806616	n/a	LTP146	ltpFR	8	n/a	n/a	n/a	n/a	n/a	n/a	21	5	8	7	n/a	n/a	n/a	n/a	n/a
1616.338	n/a	PROB	808169	n/a	LTP146	ltpFR	8	n/a	n/a	n/a	n/a	n/a	n/a	2	5	8	9	n/a	n/a	n/a	n/a	n/a
1618.612	n/a	PROB	809306	n/a	LTP146	ltpFR	8	n/a	n/a	n/a	n/a	n/a	n/a	11	3	7	1	n/a	n/a	n/a	n/a	n/a
1619.784	n/a	PROB	809892	n/a	LTP146	ltpFR	8	n/a	n/a	n/a	n/a	n/a	n/a	21	3	9	9	n/a	n/a	n/a	n/a	n/a
1621.316	n/a	PROB	810658	n/a	LTP146	ltpFR	8	n/a	n/a	n/a	n/a	n/a	n/a	12	2	2	8	n/a	n/a	n/a	n/a	n/a
1622.462	n/a	STOP	811231	n/a	LTP146	ltpFR	8	n/a	n/a	n/a	n/a	n/a	n/a	n/a	n/a	n/a	n/a	n/a	n/a	n/a	n/a	n/a
1624.712	n/a	WORD	812356	wordpools/wasnorm_wordpool.txt	LTP146	ltpFR	8	6	1	SWIMMER	1420	n/a	1	n/a	0	0	0	0	0.5869140625	0.422607421875	lower	../fonts/amplitud.ttf
1627.718	n/a	START	813859	n/a	LTP146	ltpFR	8	n/a	n/a	n/a	n/a	n/a	n/a	n/a	n/a	n/a	n/a	n/a	n/a	n/a	n/a	n/a
1628.6	n/a	PROB	814300	n/a	LTP146	ltpFR	8	n/a	n/a	n/a	n/a	n/a	n/a	19	6	7	6	n/a	n/a	n/a	n/a	n/a
1630.638	n/a	PROB	815319	n/a	LTP146	ltpFR	8	n/a	n/a	n/a	n/a	n/a	n/a	16	5	7	4	n/a	n/a	n/a	n/a	n/a
1633.068	n/a	PROB	816534	n/a	LTP146	ltpFR	8	n/a	n/a	n/a	n/a	n/a	n/a	21	9	9	3	n/a	n/a	n/a	n/a	n/a
1634.284	n/a	PROB	817142	n/a	LTP146	ltpFR	8	n/a	n/a	n/a	n/a	n/a	n/a	22	8	8	6	n/a	n/a	n/a	n/a	n/a
1636.114	n/a	PROB	818057	n/a	LTP146	ltpFR	8	n/a	n/a	n/a	n/a	n/a	n/a	12	7	2	3	n/a	n/a	n/a	n/a	n/a
1637.54	n/a	PROB	818770	n/a	LTP146	ltpFR	8	n/a	n/a	n/a	n/a	n/a	n/a	14	3	5	6	n/a	n/a	n/a	n/a	n/a
1638.92	n/a	PROB	819460	n/a	LTP146	ltpFR	8	n/a	n/a	n/a	n/a	n/a	n/a	15	5	4	6	n/a	n/a	n/a	n/a	n/a
1640.652	n/a	PROB	820326	n/a	LTP146	ltpFR	8	n/a	n/a	n/a	n/a	n/a	n/a	23	9	6	8	n/a	n/a	n/a	n/a	n/a
1643.008	n/a	STOP	821504	n/a	LTP146	ltpFR	8	n/a	n/a	n/a	n/a	n/a	n/a	n/a	n/a	n/a	n/a	n/a	n/a	n/a	n/a	n/a
1644.656	n/a	WORD	822328	wordpools/wasnorm_wordpool.txt	LTP146	ltpFR	8	6	1	SLIDE	1326	n/a	0	n/a	0	0	0	0	0.5869140625	0.422607421875	lower	../fonts/amplitud.ttf
1647.662	n/a	START	823831	n/a	LTP146	ltpFR	8	n/a	n/a	n/a	n/a	n/a	n/a	n/a	n/a	n/a	n/a	n/a	n/a	n/a	n/a	n/a
1648.752	n/a	PROB	824376	n/a	LTP146	ltpFR	8	n/a	n/a	n/a	n/a	n/a	n/a	23	9	9	5	n/a	n/a	n/a	n/a	n/a
1650.624	n/a	PROB	825312	n/a	LTP146	ltpFR	8	n/a	n/a	n/a	n/a	n/a	n/a	22	8	6	9	n/a	n/a	n/a	n/a	n/a
1652.996	n/a	PROB	826498	n/a	LTP146	ltpFR	8	n/a	n/a	n/a	n/a	n/a	n/a	11	2	8	1	n/a	n/a	n/a	n/a	n/a
1654.118	n/a	PROB	827059	n/a	LTP146	ltpFR	8	n/a	n/a	n/a	n/a	n/a	n/a	14	6	6	2	n/a	n/a	n/a	n/a	n/a
1655.418	n/a	PROB	827709	n/a	LTP146	ltpFR	8	n/a	n/a	n/a	n/a	n/a	n/a	16	9	6	1	n/a	n/a	n/a	n/a	n/a
1656.85	n/a	PROB	828425	n/a	LTP146	ltpFR	8	n/a	n/a	n/a	n/a	n/a	n/a	14	3	4	7	n/a	n/a	n/a	n/a	n/a
1658.348	n/a	PROB	829174	n/a	LTP146	ltpFR	8	n/a	n/a	n/a	n/a	n/a	n/a	13	3	9	1	n/a	n/a	n/a	n/a	n/a
1659.756	n/a	PROB	829878	n/a	LTP146	ltpFR	8	n/a	n/a	n/a	n/a	n/a	n/a	14	7	6	1	n/a	n/a	n/a	n/a	n/a
1661.228	n/a	PROB	830614	n/a	LTP146	ltpFR	8	n/a	n/a	n/a	n/a	n/a	n/a	14	4	6	4	n/a	n/a	n/a	n/a	n/a
1662.568	n/a	STOP	831284	n/a	LTP146	ltpFR	8	n/a	n/a	n/a	n/a	n/a	n/a	n/a	n/a	n/a	n/a	n/a	n/a	n/a	n/a	n/a
1664.558	n/a	WORD	832279	wordpools/wasnorm_wordpool.txt	LTP146	ltpFR	8	6	1	ELEVATOR	524	n/a	0	n/a	0	0	0	0	0.5869140625	0.422607421875	lower	../fonts/amplitud.ttf
1667.564	n/a	START	833782	n/a	LTP146	ltpFR	8	n/a	n/a	n/a	n/a	n/a	n/a	n/a	n/a	n/a	n/a	n/a	n/a	n/a	n/a	n/a
1668.67	n/a	PROB	834335	n/a	LTP146	ltpFR	8	n/a	n/a	n/a	n/a	n/a	n/a	3	1	1	7	n/a	n/a	n/a	n/a	n/a
1669.728	n/a	PROB	834864	n/a	LTP146	ltpFR	8	n/a	n/a	n/a	n/a	n/a	n/a	13	8	1	4	n/a	n/a	n/a	n/a	n/a
1671.576	n/a	PROB	835788	n/a	LTP146	ltpFR	8	n/a	n/a	n/a	n/a	n/a	n/a	13	1	5	7	n/a	n/a	n/a	n/a	n/a
1673.714	n/a	PROB	836857	n/a	LTP146	ltpFR	8	n/a	n/a	n/a	n/a	n/a	n/a	15	7	3	5	n/a	n/a	n/a	n/a	n/a
1675.104	n/a	PROB	837552	n/a	LTP146	ltpFR	8	n/a	n/a	n/a	n/a	n/a	n/a	4	1	1	2	n/a	n/a	n/a	n/a	n/a
1676.17	n/a	PROB	838085	n/a	LTP146	ltpFR	8	n/a	n/a	n/a	n/a	n/a	n/a	10	3	6	1	n/a	n/a	n/a	n/a	n/a
1677.644	n/a	PROB	838822	n/a	LTP146	ltpFR	8	n/a	n/a	n/a	n/a	n/a	n/a	18	5	8	5	n/a	n/a	n/a	n/a	n/a
1679.29	n/a	PROB	839645	n/a	LTP146	ltpFR	8	n/a	n/a	n/a	n/a	n/a	n/a	6	3	2	1	n/a	n/a	n/a	n/a	n/a
1681.014	n/a	PROB	840507	n/a	LTP146	ltpFR	8	n/a	n/a	n/a	n/a	n/a	n/a	11	1	2	8	n/a	n/a	n/a	n/a	n/a
1682.168	n/a	STOP	841084	n/a	LTP146	ltpFR	8	n/a	n/a	n/a	n/a	n/a	n/a	n/a	n/a	n/a	n/a	n/a	n/a	n/a	n/a	n/a
1684.46	n/a	WORD	842230	wordpools/wasnorm_wordpool.txt	LTP146	ltpFR	8	6	1	LADDER	793	n/a	0	n/a	0	0	0	0	0.5869140625	0.422607421875	lower	../fonts/amplitud.ttf
1687.466	n/a	START	843733	n/a	LTP146	ltpFR	8	n/a	n/a	n/a	n/a	n/a	n/a	n/a	n/a	n/a	n/a	n/a	n/a	n/a	n/a	n/a
1688.38	n/a	PROB	844190	n/a	LTP146	ltpFR	8	n/a	n/a	n/a	n/a	n/a	n/a	19	5	8	6	n/a	n/a	n/a	n/a	n/a
1690.294	n/a	PROB	845147	n/a	LTP146	ltpFR	8	n/a	n/a	n/a	n/a	n/a	n/a	18	3	8	7	n/a	n/a	n/a	n/a	n/a
1692.21	n/a	PROB	846105	n/a	LTP146	ltpFR	8	n/a	n/a	n/a	n/a	n/a	n/a	16	7	6	4	n/a	n/a	n/a	n/a	n/a
1693.6	n/a	PROB	846800	n/a	LTP146	ltpFR	8	n/a	n/a	n/a	n/a	n/a	n/a	14	6	1	7	n/a	n/a	n/a	n/a	n/a
1695.572	n/a	PROB	847786	n/a	LTP146	ltpFR	8	n/a	n/a	n/a	n/a	n/a	n/a	15	3	6	8	n/a	n/a	n/a	n/a	n/a
1697.854	n/a	PROB	848927	n/a	LTP146	ltpFR	8	n/a	n/a	n/a	n/a	n/a	n/a	15	2	6	7	n/a	n/a	n/a	n/a	n/a
1699.842	n/a	PROB	849921	n/a	LTP146	ltpFR	8	n/a	n/a	n/a	n/a	n/a	n/a	18	3	7	8	n/a	n/a	n/a	n/a	n/a
1701.182	n/a	PROB	850591	n/a	LTP146	ltpFR	8	n/a	n/a	n/a	n/a	n/a	n/a	11	7	1	3	n/a	n/a	n/a	n/a	n/a
1702.424	n/a	STOP	851212	n/a	LTP146	ltpFR	8	n/a	n/a	n/a	n/a	n/a	n/a	n/a	n/a	n/a	n/a	n/a	n/a	n/a	n/a	n/a
1704.67	n/a	WORD	852335	wordpools/wasnorm_wordpool.txt	LTP146	ltpFR	8	6	1	PARROT	1015	n/a	1	n/a	0	0	0	0	0.5869140625	0.422607421875	lower	../fonts/amplitud.ttf
1707.676	n/a	START	853838	n/a	LTP146	ltpFR	8	n/a	n/a	n/a	n/a	n/a	n/a	n/a	n/a	n/a	n/a	n/a	n/a	n/a	n/a	n/a
1708.55	n/a	PROB	854275	n/a	LTP146	ltpFR	8	n/a	n/a	n/a	n/a	n/a	n/a	13	4	4	5	n/a	n/a	n/a	n/a	n/a
1711.178	n/a	PROB	855589	n/a	LTP146	ltpFR	8	n/a	n/a	n/a	n/a	n/a	n/a	14	1	7	6	n/a	n/a	n/a	n/a	n/a
1712.752	n/a	PROB	856376	n/a	LTP146	ltpFR	8	n/a	n/a	n/a	n/a	n/a	n/a	10	1	3	6	n/a	n/a	n/a	n/a	n/a
1714.134	n/a	PROB	857067	n/a	LTP146	ltpFR	8	n/a	n/a	n/a	n/a	n/a	n/a	17	7	3	7	n/a	n/a	n/a	n/a	n/a
1715.634	n/a	PROB	857817	n/a	LTP146	ltpFR	8	n/a	n/a	n/a	n/a	n/a	n/a	18	7	9	3	n/a	n/a	n/a	n/a	n/a
1717.206	n/a	PROB	858603	n/a	LTP146	ltpFR	8	n/a	n/a	n/a	n/a	n/a	n/a	20	9	2	9	n/a	n/a	n/a	n/a	n/a
1718.762	n/a	PROB	859381	n/a	LTP146	ltpFR	8	n/a	n/a	n/a	n/a	n/a	n/a	15	3	5	7	n/a	n/a	n/a	n/a	n/a
1720.644	n/a	PROB	860322	n/a	LTP146	ltpFR	8	n/a	n/a	n/a	n/a	n/a	n/a	12	2	9	1	n/a	n/a	n/a	n/a	n/a
1723.676	n/a	STOP	861838	n/a	LTP146	ltpFR	8	n/a	n/a	n/a	n/a	n/a	n/a	n/a	n/a	n/a	n/a	n/a	n/a	n/a	n/a	n/a
1725.572	n/a	REC_START	862786	n/a	LTP146	ltpFR	8	6	n/a	n/a	n/a	n/a	n/a	n/a	0	0	0	n/a	n/a	n/a	n/a	n/a
1726.708	n/a	REC_WORD	863354	wordpools/wasnorm_wordpool.txt	LTP146	ltpFR	8	6	1	WALRUS	1585	n/a	1	n/a	0	0	0	n/a	n/a	n/a	n/a	n/a
1727.632	n/a	REC_WORD	863816	wordpools/wasnorm_wordpool.txt	LTP146	ltpFR	8	6	1	SALIVA	1226	n/a	0	n/a	0	0	0	n/a	n/a	n/a	n/a	n/a
1729.088	n/a	REC_WORD	864544	wordpools/wasnorm_wordpool.txt	LTP146	ltpFR	8	6	1	BOYFRIEND	162	n/a	1	n/a	0	0	0	n/a	n/a	n/a	n/a	n/a
1730.7	n/a	REC_WORD	865350	wordpools/wasnorm_wordpool.txt	LTP146	ltpFR	8	6	1	PARROT	1015	n/a	1	n/a	0	0	0	n/a	n/a	n/a	n/a	n/a
1749.542	n/a	REC_WORD	874771	wordpools/wasnorm_wordpool.txt	LTP146	ltpFR	8	6	1	PILLOW	1069	n/a	0	n/a	0	0	0	n/a	n/a	n/a	n/a	n/a
1762.298	n/a	REC_WORD	881149	wordpools/wasnorm_wordpool.txt	LTP146	ltpFR	8	6	1	TREAD	1499	n/a	0	n/a	0	0	0	n/a	n/a	n/a	n/a	n/a
1781.34	n/a	REC_WORD	890670	wordpools/wasnorm_wordpool.txt	LTP146	ltpFR	8	6	n/a	LOG	841	n/a	n/a	n/a	0	0	0	n/a	n/a	n/a	n/a	n/a
1797.858	n/a	REC_WORD	898929	wordpools/wasnorm_wordpool.txt	LTP146	ltpFR	8	6	n/a	HEN	703	n/a	n/a	n/a	0	0	0	n/a	n/a	n/a	n/a	n/a
1814.078	n/a	WORD	907039	wordpools/wasnorm_wordpool.txt	LTP146	ltpFR	8	7	1	BACK	65	n/a	0	n/a	0	0	0	0	0.5869140625	0.422607421875	lower	../fonts/amplitud.ttf
1818.232	n/a	WORD	909116	wordpools/wasnorm_wordpool.txt	LTP146	ltpFR	8	7	1	EWE	542	n/a	1	n/a	0	0	0	0	0.5869140625	0.422607421875	lower	../fonts/amplitud.ttf
1822.318	n/a	WORD	911159	wordpools/wasnorm_wordpool.txt	LTP146	ltpFR	8	7	0	SPRINKLE	1359	n/a	0	n/a	0	0	0	1	0.412841796875	0.57763671875	upper	../fonts/zerothre.ttf
1826.464	n/a	WORD	913232	wordpools/wasnorm_wordpool.txt	LTP146	ltpFR	8	7	0	DIME	466	n/a	0	n/a	0	0	0	1	0.412841796875	0.57763671875	upper	../fonts/zerothre.ttf
1830.644	n/a	WORD	915322	wordpools/wasnorm_wordpool.txt	LTP146	ltpFR	8	7	0	COIN	343	n/a	0	n/a	0	0	0	1	0.412841796875	0.57763671875	upper	../fonts/zerothre.ttf
1834.664	n/a	WORD	917332	wordpools/wasnorm_wordpool.txt	LTP146	ltpFR	8	7	0	DOUGHNUT	490	n/a	1	n/a	0	0	0	1	0.412841796875	0.57763671875	upper	../fonts/zerothre.ttf
1838.75	n/a	WORD	919375	wordpools/wasnorm_wordpool.txt	LTP146	ltpFR	8	7	0	OPERA	978	n/a	1	n/a	0	0	0	1	0.412841796875	0.57763671875	upper	../fonts/zerothre.ttf
1842.88	n/a	WORD	921440	wordpools/wasnorm_wordpool.txt	LTP146	ltpFR	8	7	0	SENATE	1267	n/a	1	n/a	0	0	0	1	0.412841796875	0.57763671875	upper	../fonts/zerothre.ttf
1846.942	n/a	WORD	923471	wordpools/wasnorm_wordpool.txt	LTP146	ltpFR	8	7	1	WITNESS	1618	n/a	1	n/a	0	0	0	0	0.5869140625	0.422607421875	lower	../fonts/amplitud.ttf
1850.936	n/a	WORD	925468	wordpools/wasnorm_wordpool.txt	LTP146	ltpFR	8	7	1	STY	1397	n/a	0	n/a	0	0	0	0	0.5869140625	0.422607421875	lower	../fonts/amplitud.ttf
1854.84	n/a	WORD	927420	wordpools/wasnorm_wordpool.txt	LTP146	ltpFR	8	7	1	MARINE	869	n/a	1	n/a	0	0	0	0	0.5869140625	0.422607421875	lower	../fonts/amplitud.ttf
1858.844	n/a	WORD	929422	wordpools/wasnorm_wordpool.txt	LTP146	ltpFR	8	7	1	LAMB	797	n/a	1	n/a	0	0	0	0	0.5869140625	0.422607421875	lower	../fonts/amplitud.ttf
1862.782	n/a	WORD	931391	wordpools/wasnorm_wordpool.txt	LTP146	ltpFR	8	7	1	COACH	331	n/a	1	n/a	0	0	0	0	0.5869140625	0.422607421875	lower	../fonts/amplitud.ttf
1866.676	n/a	WORD	933338	wordpools/wasnorm_wordpool.txt	LTP146	ltpFR	8	7	1	CHEERLEADER	288	n/a	1	n/a	0	0	0	0	0.5869140625	0.422607421875	lower	../fonts/amplitud.ttf
1870.614	n/a	WORD	935307	wordpools/wasnorm_wordpool.txt	LTP146	ltpFR	8	7	0	FROG	608	n/a	0	n/a	0	0	0	1	0.412841796875	0.57763671875	upper	../fonts/zerothre.ttf
1874.684	n/a	WORD	937342	wordpools/wasnorm_wordpool.txt	LTP146	ltpFR	8	7	0	CAFETERIA	217	n/a	1	n/a	0	0	0	1	0.412841796875	0.57763671875	upper	../fonts/zerothre.ttf
1877.69	n/a	START	938845	n/a	LTP146	ltpFR	8	n/a	n/a	n/a	n/a	n/a	n/a	n/a	n/a	n/a	n/a	n/a	n/a	n/a	n/a	n/a
1878.82	n/a	PROB	939410	n/a	LTP146	ltpFR	8	n/a	n/a	n/a	n/a	n/a	n/a	8	1	6	1	n/a	n/a	n/a	n/a	n/a
1880.318	n/a	PROB	940159	n/a	LTP146	ltpFR	8	n/a	n/a	n/a	n/a	n/a	n/a	7	4	2	1	n/a	n/a	n/a	n/a	n/a
1882.092	n/a	PROB	941046	n/a	LTP146	ltpFR	8	n/a	n/a	n/a	n/a	n/a	n/a	23	7	9	8	n/a	n/a	n/a	n/a	n/a
1884.024	n/a	PROB	942012	n/a	LTP146	ltpFR	8	n/a	n/a	n/a	n/a	n/a	n/a	15	4	6	5	n/a	n/a	n/a	n/a	n/a
1885.37	n/a	PROB	942685	n/a	LTP146	ltpFR	8	n/a	n/a	n/a	n/a	n/a	n/a	8	2	1	5	n/a	n/a	n/a	n/a	n/a
1886.654	n/a	PROB	943327	n/a	LTP146	ltpFR	8	n/a	n/a	n/a	n/a	n/a	n/a	13	2	4	7	n/a	n/a	n/a	n/a	n/a
1888.742	n/a	PROB	944371	n/a	LTP146	ltpFR	8	n/a	n/a	n/a	n/a	n/a	n/a	17	4	8	5	n/a	n/a	n/a	n/a	n/a
1890.5	n/a	PROB	945250	n/a	LTP146	ltpFR	8	n/a	n/a	n/a	n/a	n/a	n/a	14	2	7	2	n/a	n/a	n/a	n/a	n/a
1892.088	n/a	PROB	946044	n/a	LTP146	ltpFR	8	n/a	n/a	n/a	n/a	n/a	n/a	16	7	3	6	n/a	n/a	n/a	n/a	n/a
1893.29	n/a	STOP	946645	n/a	LTP146	ltpFR	8	n/a	n/a	n/a	n/a	n/a	n/a	n/a	n/a	n/a	n/a	n/a	n/a	n/a	n/a	n/a
1895.418	n/a	REC_START	947709	n/a	LTP146	ltpFR	8	7	n/a	n/a	n/a	n/a	n/a	n/a	0	0	0	n/a	n/a	n/a	n/a	n/a
1896.33	n/a	REC_WORD	948165	wordpools/wasnorm_wordpool.txt	LTP146	ltpFR	8	7	0	FROG	608	n/a	0	n/a	0	0	0	n/a	n/a	n/a	n/a	n/a
1897.31	n/a	REC_WORD	948655	wordpools/wasnorm_wordpool.txt	LTP146	ltpFR	8	7	0	CAFETERIA	217	n/a	1	n/a	0	0	0	n/a	n/a	n/a	n/a	n/a
1898.776	n/a	REC_WORD	949388	wordpools/wasnorm_wordpool.txt	LTP146	ltpFR	8	7	0	SENATE	1267	n/a	1	n/a	0	0	0	n/a	n/a	n/a	n/a	n/a
1900.028	n/a	REC_WORD	950014	wordpools/wasnorm_wordpool.txt	LTP146	ltpFR	8	7	1	MARINE	869	n/a	1	n/a	0	0	0	n/a	n/a	n/a	n/a	n/a
1902.992	n/a	REC_WORD	951496	wordpools/wasnorm_wordpool.txt	LTP146	ltpFR	8	7	0	DIME	466	n/a	0	n/a	0	0	0	n/a	n/a	n/a	n/a	n/a
1904.048	n/a	REC_WORD	952024	wordpools/wasnorm_wordpool.txt	LTP146	ltpFR	8	7	0	COIN	343	n/a	0	n/a	0	0	0	n/a	n/a	n/a	n/a	n/a
1905.072	n/a	REC_WORD	952536	wordpools/wasnorm_wordpool.txt	LTP146	ltpFR	8	7	0	SPRINKLE	1359	n/a	0	n/a	0	0	0	n/a	n/a	n/a	n/a	n/a
1906.982	n/a	REC_WORD	953491	wordpools/wasnorm_wordpool.txt	LTP146	ltpFR	8	7	0	DOUGHNUT	490	n/a	1	n/a	0	0	0	n/a	n/a	n/a	n/a	n/a
1909.276	n/a	REC_WORD	954638	wordpools/wasnorm_wordpool.txt	LTP146	ltpFR	8	7	1	EWE	542	n/a	1	n/a	0	0	0	n/a	n/a	n/a	n/a	n/a
1910.064	n/a	REC_WORD	955032	wordpools/wasnorm_wordpool.txt	LTP146	ltpFR	8	7	1	EWE	542	n/a	1	n/a	0	0	0	n/a	n/a	n/a	n/a	n/a
1911.232	n/a	REC_WORD	955616	wordpools/wasnorm_wordpool.txt	LTP146	ltpFR	8	7	1	BACK	65	n/a	0	n/a	0	0	0	n/a	n/a	n/a	n/a	n/a
1912.226	n/a	REC_WORD	956113	wordpools/wasnorm_wordpool.txt	LTP146	ltpFR	8	7	n/a	SHEEP	1278	n/a	n/a	n/a	0	0	0	n/a	n/a	n/a	n/a	n/a
1918.072	n/a	REC_WORD	959036	wordpools/wasnorm_wordpool.txt	LTP146	ltpFR	8	7	1	LAMB	797	n/a	1	n/a	0	0	0	n/a	n/a	n/a	n/a	n/a
1984.75	n/a	WORD	992375	wordpools/wasnorm_wordpool.txt	LTP146	ltpFR	8	8	1	KITE	779	n/a	0	n/a	0	0	0	0	0.5869140625	0.422607421875	lower	../fonts/amplitud.ttf
1988.58	n/a	WORD	994290	wordpools/wasnorm_wordpool.txt	LTP146	ltpFR	8	8	1	BEETLE	116	n/a	0	n/a	0	0	0	0	0.5869140625	0.422607421875	lower	../fonts/amplitud.ttf
1992.558	n/a	WORD	996279	wordpools/wasnorm_wordpool.txt	LTP146	ltpFR	8	8	1	GALLON	618	n/a	0	n/a	0	0	0	0	0.5869140625	0.422607421875	lower	../fonts/amplitud.ttf
1996.562	n/a	WORD	998281	wordpools/wasnorm_wordpool.txt	LTP146	ltpFR	8	8	1	DESIGNER	451	n/a	1	n/a	0	0	0	0	0.5869140625	0.422607421875	lower	../fonts/amplitud.ttf
2000.656	n/a	WORD	1000328	wordpools/wasnorm_wordpool.txt	LTP146	ltpFR	8	8	1	PLAQUE	1084	n/a	0	n/a	0	0	0	0	0.5869140625	0.422607421875	lower	../fonts/amplitud.ttf
2004.836	n/a	WORD	1002418	wordpools/wasnorm_wordpool.txt	LTP146	ltpFR	8	8	1	JAW	751	n/a	1	n/a	0	0	0	0	0.5869140625	0.422607421875	lower	../fonts/amplitud.ttf
2008.664	n/a	WORD	1004332	wordpools/wasnorm_wordpool.txt	LTP146	ltpFR	8	8	1	BRIDE	173	n/a	1	n/a	0	0	0	0	0.5869140625	0.422607421875	lower	../fonts/amplitud.ttf
2012.592	n/a	WORD	1006296	wordpools/wasnorm_wordpool.txt	LTP146	ltpFR	8	8	1	ROAD	1196	n/a	0	n/a	0	0	0	0	0.5869140625	0.422607421875	lower	../fonts/amplitud.ttf
2016.47	n/a	WORD	1008235	wordpools/wasnorm_wordpool.txt	LTP146	ltpFR	8	8	1	FOREHEAD	592	n/a	1	n/a	0	0	0	0	0.5869140625	0.422607421875	lower	../fonts/amplitud.ttf
2020.516	n/a	WORD	1010258	wordpools/wasnorm_wordpool.txt	LTP146	ltpFR	8	8	1	BAY	102	n/a	0	n/a	0	0	0	0	0.5869140625	0.422607421875	lower	../fonts/amplitud.ttf
2024.72	n/a	WORD	1012360	wordpools/wasnorm_wordpool.txt	LTP146	ltpFR	8	8	1	ASSISTANT	48	n/a	1	n/a	0	0	0	0	0.5869140625	0.422607421875	lower	../fonts/amplitud.ttf
2028.624	n/a	WORD	1014312	wordpools/wasnorm_wordpool.txt	LTP146	ltpFR	8	8	1	TYPEWRITER	1531	n/a	0	n/a	0	0	0	0	0.5869140625	0.422607421875	lower	../fonts/amplitud.ttf
2032.444	n/a	WORD	1016222	wordpools/wasnorm_wordpool.txt	LTP146	ltpFR	8	8	1	HEAD	695	n/a	1	n/a	0	0	0	0	0.5869140625	0.422607421875	lower	../fonts/amplitud.ttf
2036.314	n/a	WORD	1018157	wordpools/wasnorm_wordpool.txt	LTP146	ltpFR	8	8	1	BOSS	152	n/a	1	n/a	0	0	0	0	0.5869140625	0.422607421875	lower	../fonts/amplitud.ttf
2040.484	n/a	WORD	1020242	wordpools/wasnorm_wordpool.txt	LTP146	ltpFR	8	8	1	PENCIL	1042	n/a	0	n/a	0	0	0	0	0.5869140625	0.422607421875	lower	../fonts/amplitud.ttf
2044.39	n/a	WORD	1022195	wordpools/wasnorm_wordpool.txt	LTP146	ltpFR	8	8	1	DOCUMENT	479	n/a	1	n/a	0	0	0	0	0.5869140625	0.422607421875	lower	../fonts/amplitud.ttf
2050.208	n/a	REC_START	1025104	n/a	LTP146	ltpFR	8	8	n/a	n/a	n/a	n/a	n/a	n/a	0	0	0	n/a	n/a	n/a	n/a	n/a
2050.816	n/a	REC_WORD	1025408	wordpools/wasnorm_wordpool.txt	LTP146	ltpFR	8	8	1	DOCUMENT	479	n/a	1	n/a	0	0	0	n/a	n/a	n/a	n/a	n/a
2051.674	n/a	REC_WORD	1025837	wordpools/wasnorm_wordpool.txt	LTP146	ltpFR	8	8	1	PENCIL	1042	n/a	0	n/a	0	0	0	n/a	n/a	n/a	n/a	n/a
2052.448	n/a	REC_WORD	1026224	wordpools/wasnorm_wordpool.txt	LTP146	ltpFR	8	8	1	ASSISTANT	48	n/a	1	n/a	0	0	0	n/a	n/a	n/a	n/a	n/a
2053.746	n/a	REC_WORD	1026873	wordpools/wasnorm_wordpool.txt	LTP146	ltpFR	8	8	1	TYPEWRITER	1531	n/a	0	n/a	0	0	0	n/a	n/a	n/a	n/a	n/a
2057.178	n/a	REC_WORD	1028589	wordpools/wasnorm_wordpool.txt	LTP146	ltpFR	8	8	1	BOSS	152	n/a	1	n/a	0	0	0	n/a	n/a	n/a	n/a	n/a
2083.128	n/a	REC_WORD	1041564	wordpools/wasnorm_wordpool.txt	LTP146	ltpFR	8	8	n/a	FLOWER	584	n/a	n/a	n/a	0	0	0	n/a	n/a	n/a	n/a	n/a
2132.898	n/a	WORD	1066449	wordpools/wasnorm_wordpool.txt	LTP146	ltpFR	8	9	1	COCKTAIL	338	n/a	0	n/a	0	0	0	0	0.5869140625	0.422607421875	lower	../fonts/amplitud.ttf
2136.918	n/a	WORD	1068459	wordpools/wasnorm_wordpool.txt	LTP146	ltpFR	8	9	1	TRACTOR	1493	n/a	0	n/a	0	0	0	0	0.5869140625	0.422607421875	lower	../fonts/amplitud.ttf
2140.796	n/a	WORD	1070398	wordpools/wasnorm_wordpool.txt	LTP146	ltpFR	8	9	1	WAVE	1596	n/a	0	n/a	0	0	0	0	0.5869140625	0.422607421875	lower	../fonts/amplitud.ttf
2144.826	n/a	WORD	1072413	wordpools/wasnorm_wordpool.txt	LTP146	ltpFR	8	9	0	TOWEL	1489	n/a	0	n/a	0	0	0	1	0.412841796875	0.57763671875	upper	../fonts/zerothre.ttf
2148.696	n/a	WORD	1074348	wordpools/wasnorm_wordpool.txt	LTP146	ltpFR	8	9	0	DUNE	506	n/a	0	n/a	0	0	0	1	0.412841796875	0.57763671875	upper	../fonts/zerothre.ttf
2152.832	n/a	WORD	1076416	wordpools/wasnorm_wordpool.txt	LTP146	ltpFR	8	9	0	SUPPER	1411	n/a	1	n/a	0	0	0	1	0.412841796875	0.57763671875	upper	../fonts/zerothre.ttf
2156.986	n/a	WORD	1078493	wordpools/wasnorm_wordpool.txt	LTP146	ltpFR	8	9	0	RICE	1190	n/a	0	n/a	0	0	0	1	0.412841796875	0.57763671875	upper	../fonts/zerothre.ttf
2160.798	n/a	WORD	1080399	wordpools/wasnorm_wordpool.txt	LTP146	ltpFR	8	9	1	BRUNETTE	181	n/a	1	n/a	0	0	0	0	0.5869140625	0.422607421875	lower	../fonts/amplitud.ttf
2164.952	n/a	WORD	1082476	wordpools/wasnorm_wordpool.txt	LTP146	ltpFR	8	9	1	STREAM	1392	n/a	0	n/a	0	0	0	0	0.5869140625	0.422607421875	lower	../fonts/amplitud.ttf
2169.048	n/a	WORD	1084524	wordpools/wasnorm_wordpool.txt	LTP146	ltpFR	8	9	0	DANCER	437	n/a	1	n/a	0	0	0	1	0.412841796875	0.57763671875	upper	../fonts/zerothre.ttf
2173.216	n/a	WORD	1086608	wordpools/wasnorm_wordpool.txt	LTP146	ltpFR	8	9	0	DIVER	476	n/a	1	n/a	0	0	0	1	0.412841796875	0.57763671875	upper	../fonts/zerothre.ttf
2177.228	n/a	WORD	1088614	wordpools/wasnorm_wordpool.txt	LTP146	ltpFR	8	9	0	PUDDLE	1140	n/a	1	n/a	0	0	0	1	0.412841796875	0.57763671875	upper	../fonts/zerothre.ttf
2181.05	n/a	WORD	1090525	wordpools/wasnorm_wordpool.txt	LTP146	ltpFR	8	9	0	SWAMP	1416	n/a	1	n/a	0	0	0	1	0.412841796875	0.57763671875	upper	../fonts/zerothre.ttf
2185.102	n/a	WORD	1092551	wordpools/wasnorm_wordpool.txt	LTP146	ltpFR	8	9	1	BED	110	n/a	0	n/a	0	0	0	0	0.5869140625	0.422607421875	lower	../fonts/amplitud.ttf
2189.164	n/a	WORD	1094582	wordpools/wasnorm_wordpool.txt	LTP146	ltpFR	8	9	1	COFFEE	341	n/a	0	n/a	0	0	0	0	0.5869140625	0.422607421875	lower	../fonts/amplitud.ttf
2193.12	n/a	WORD	1096560	wordpools/wasnorm_wordpool.txt	LTP146	ltpFR	8	9	1	BALLERINA	74	n/a	1	n/a	0	0	0	0	0.5869140625	0.422607421875	lower	../fonts/amplitud.ttf
2196.124	n/a	START	1098062	n/a	LTP146	ltpFR	8	n/a	n/a	n/a	n/a	n/a	n/a	n/a	n/a	n/a	n/a	n/a	n/a	n/a	n/a	n/a
2197.058	n/a	PROB	1098529	n/a	LTP146	ltpFR	8	n/a	n/a	n/a	n/a	n/a	n/a	45	4	5	3	n/a	n/a	n/a	n/a	n/a
2199.278	n/a	PROB	1099639	n/a	LTP146	ltpFR	8	n/a	n/a	n/a	n/a	n/a	n/a	6	1	4	1	n/a	n/a	n/a	n/a	n/a
2200.736	n/a	PROB	1100368	n/a	LTP146	ltpFR	8	n/a	n/a	n/a	n/a	n/a	n/a	17	6	6	7	n/a	n/a	n/a	n/a	n/a
2202.624	n/a	STOP	1101312	n/a	LTP146	ltpFR	8	n/a	n/a	n/a	n/a	n/a	n/a	n/a	n/a	n/a	n/a	n/a	n/a	n/a	n/a	n/a
2205.856	n/a	REC_START	1102928	n/a	LTP146	ltpFR	8	9	n/a	n/a	n/a	n/a	n/a	n/a	0	0	0	n/a	n/a	n/a	n/a	n/a
2206.838	n/a	REC_WORD	1103419	wordpools/wasnorm_wordpool.txt	LTP146	ltpFR	8	9	1	BALLERINA	74	n/a	1	n/a	0	0	0	n/a	n/a	n/a	n/a	n/a
2208.104	n/a	REC_WORD	1104052	wordpools/wasnorm_wordpool.txt	LTP146	ltpFR	8	9	1	COFFEE	341	n/a	0	n/a	0	0	0	n/a	n/a	n/a	n/a	n/a
2208.988	n/a	REC_WORD	1104494	wordpools/wasnorm_wordpool.txt	LTP146	ltpFR	8	9	0	SWAMP	1416	n/a	1	n/a	0	0	0	n/a	n/a	n/a	n/a	n/a
2210.59	n/a	REC_WORD	1105295	wordpools/wasnorm_wordpool.txt	LTP146	ltpFR	8	9	0	PUDDLE	1140	n/a	1	n/a	0	0	0	n/a	n/a	n/a	n/a	n/a
2212.186	n/a	REC_WORD	1106093	wordpools/wasnorm_wordpool.txt	LTP146	ltpFR	8	9	0	DUNE	506	n/a	0	n/a	0	0	0	n/a	n/a	n/a	n/a	n/a
2213.438	n/a	REC_WORD	1106719	wordpools/wasnorm_wordpool.txt	LTP146	ltpFR	8	9	1	WAVE	1596	n/a	0	n/a	0	0	0	n/a	n/a	n/a	n/a	n/a
2214.94	n/a	REC_WORD	1107470	wordpools/wasnorm_wordpool.txt	LTP146	ltpFR	8	9	0	OCEAN	970	n/a	1	n/a	0	0	0	n/a	n/a	n/a	n/a	n/a
2216.346	n/a	REC_WORD	1108173	wordpools/wasnorm_wordpool.txt	LTP146	ltpFR	8	9	1	BRUNETTE	181	n/a	1	n/a	0	0	0	n/a	n/a	n/a	n/a	n/a
2217.908	n/a	REC_WORD	1108954	wordpools/wasnorm_wordpool.txt	LTP146	ltpFR	8	9	0	DANCER	437	n/a	1	n/a	0	0	0	n/a	n/a	n/a	n/a	n/a
2219.53	n/a	REC_WORD	1109765	wordpools/wasnorm_wordpool.txt	LTP146	ltpFR	8	9	1	STREAM	1392	n/a	0	n/a	0	0	0	n/a	n/a	n/a	n/a	n/a
2228.524	n/a	REC_WORD	1114262	wordpools/wasnorm_wordpool.txt	LTP146	ltpFR	8	9	0	PUDDLE	1140	n/a	1	n/a	0	0	0	n/a	n/a	n/a	n/a	n/a
2229.566	n/a	REC_WORD	1114783	wordpools/wasnorm_wordpool.txt	LTP146	ltpFR	8	9	0	RICE	1190	n/a	0	n/a	0	0	0	n/a	n/a	n/a	n/a	n/a
2230.718	n/a	REC_WORD	1115359	wordpools/wasnorm_wordpool.txt	LTP146	ltpFR	8	9	0	SUPPER	1411	n/a	1	n/a	0	0	0	n/a	n/a	n/a	n/a	n/a
2253.322	n/a	REC_WORD	1126661	wordpools/wasnorm_wordpool.txt	LTP146	ltpFR	8	9	1	BED	110	n/a	0	n/a	0	0	0	n/a	n/a	n/a	n/a	n/a
2288.736	n/a	START	1144368	n/a	LTP146	ltpFR	8	n/a	n/a	n/a	n/a	n/a	n/a	n/a	n/a	n/a	n/a	n/a	n/a	n/a	n/a	n/a
2290.24	n/a	PROB	1145120	n/a	LTP146	ltpFR	8	n/a	n/a	n/a	n/a	n/a	n/a	22	5	8	9	n/a	n/a	n/a	n/a	n/a
2292.888	n/a	PROB	1146444	n/a	LTP146	ltpFR	8	n/a	n/a	n/a	n/a	n/a	n/a	8	4	2	2	n/a	n/a	n/a	n/a	n/a
2294.086	n/a	PROB	1147043	n/a	LTP146	ltpFR	8	n/a	n/a	n/a	n/a	n/a	n/a	11	5	3	3	n/a	n/a	n/a	n/a	n/a
2295.272	n/a	STOP	1147636	n/a	LTP146	ltpFR	8	n/a	n/a	n/a	n/a	n/a	n/a	n/a	n/a	n/a	n/a	n/a	n/a	n/a	n/a	n/a
2297.916	n/a	WORD	1148958	wordpools/wasnorm_wordpool.txt	LTP146	ltpFR	8	10	0	WRENCH	1625	n/a	1	n/a	0	0	0	1	0.412841796875	0.57763671875	upper	../fonts/zerothre.ttf
2300.922	n/a	START	1150461	n/a	LTP146	ltpFR	8	n/a	n/a	n/a	n/a	n/a	n/a	n/a	n/a	n/a	n/a	n/a	n/a	n/a	n/a	n/a
2302.054	n/a	PROB	1151027	n/a	LTP146	ltpFR	8	n/a	n/a	n/a	n/a	n/a	n/a	16	2	7	7	n/a	n/a	n/a	n/a	n/a
2303.484	n/a	PROB	1151742	n/a	LTP146	ltpFR	8	n/a	n/a	n/a	n/a	n/a	n/a	18	8	4	7	n/a	n/a	n/a	n/a	n/a
2305.034	n/a	PROB	1152517	n/a	LTP146	ltpFR	8	n/a	n/a	n/a	n/a	n/a	n/a	15	6	8	1	n/a	n/a	n/a	n/a	n/a
2306.306	n/a	PROB	1153153	n/a	LTP146	ltpFR	8	n/a	n/a	n/a	n/a	n/a	n/a	19	6	9	4	n/a	n/a	n/a	n/a	n/a
2308.344	n/a	STOP	1154172	n/a	LTP146	ltpFR	8	n/a	n/a	n/a	n/a	n/a	n/a	n/a	n/a	n/a	n/a	n/a	n/a	n/a	n/a	n/a
2310.044	n/a	WORD	1155022	wordpools/wasnorm_wordpool.txt	LTP146	ltpFR	8	10	0	SALMON	1227	n/a	1	n/a	0	0	0	1	0.412841796875	0.57763671875	upper	../fonts/zerothre.ttf
2313.05	n/a	START	1156525	n/a	LTP146	ltpFR	8	n/a	n/a	n/a	n/a	n/a	n/a	n/a	n/a	n/a	n/a	n/a	n/a	n/a	n/a	n/a
2313.972	n/a	PROB	1156986	n/a	LTP146	ltpFR	8	n/a	n/a	n/a	n/a	n/a	n/a	9	6	2	1	n/a	n/a	n/a	n/a	n/a
2315.204	n/a	PROB	1157602	n/a	LTP146	ltpFR	8	n/a	n/a	n/a	n/a	n/a	n/a	14	1	5	8	n/a	n/a	n/a	n/a	n/a
2316.594	n/a	PROB	1158297	n/a	LTP146	ltpFR	8	n/a	n/a	n/a	n/a	n/a	n/a	15	5	9	1	n/a	n/a	n/a	n/a	n/a
2318.484	n/a	PROB	1159242	n/a	LTP146	ltpFR	8	n/a	n/a	n/a	n/a	n/a	n/a	12	5	5	2	n/a	n/a	n/a	n/a	n/a
2319.616	n/a	STOP	1159808	n/a	LTP146	ltpFR	8	n/a	n/a	n/a	n/a	n/a	n/a	n/a	n/a	n/a	n/a	n/a	n/a	n/a	n/a	n/a
2322.022	n/a	WORD	1161011	wordpools/wasnorm_wordpool.txt	LTP146	ltpFR	8	10	1	GUN	673	n/a	0	n/a	0	0	0	0	0.5869140625	0.422607421875	lower	../fonts/amplitud.ttf
2325.028	n/a	START	1162514	n/a	LTP146	ltpFR	8	n/a	n/a	n/a	n/a	n/a	n/a	n/a	n/a	n/a	n/a	n/a	n/a	n/a	n/a	n/a
2325.96	n/a	PROB	1162980	n/a	LTP146	ltpFR	8	n/a	n/a	n/a	n/a	n/a	n/a	17	9	2	6	n/a	n/a	n/a	n/a	n/a
2327.532	n/a	PROB	1163766	n/a	LTP146	ltpFR	8	n/a	n/a	n/a	n/a	n/a	n/a	22	7	7	8	n/a	n/a	n/a	n/a	n/a
2329.712	n/a	PROB	1164856	n/a	LTP146	ltpFR	8	n/a	n/a	n/a	n/a	n/a	n/a	17	2	9	6	n/a	n/a	n/a	n/a	n/a
2331.07	n/a	PROB	1165535	n/a	LTP146	ltpFR	8	n/a	n/a	n/a	n/a	n/a	n/a	8	4	3	2	n/a	n/a	n/a	n/a	n/a
2332.16	n/a	STOP	1166080	n/a	LTP146	ltpFR	8	n/a	n/a	n/a	n/a	n/a	n/a	n/a	n/a	n/a	n/a	n/a	n/a	n/a	n/a	n/a
2334.042	n/a	WORD	1167021	wordpools/wasnorm_wordpool.txt	LTP146	ltpFR	8	10	1	TIE	1466	n/a	0	n/a	0	0	0	0	0.5869140625	0.422607421875	lower	../fonts/amplitud.ttf
2337.046	n/a	START	1168523	n/a	LTP146	ltpFR	8	n/a	n/a	n/a	n/a	n/a	n/a	n/a	n/a	n/a	n/a	n/a	n/a	n/a	n/a	n/a
2338.036	n/a	PROB	1169018	n/a	LTP146	ltpFR	8	n/a	n/a	n/a	n/a	n/a	n/a	24	9	8	6	n/a	n/a	n/a	n/a	n/a
2339.726	n/a	PROB	1169863	n/a	LTP146	ltpFR	8	n/a	n/a	n/a	n/a	n/a	n/a	15	8	4	3	n/a	n/a	n/a	n/a	n/a
2341.682	n/a	PROB	1170841	n/a	LTP146	ltpFR	8	n/a	n/a	n/a	n/a	n/a	n/a	11	4	2	5	n/a	n/a	n/a	n/a	n/a
2343.114	n/a	PROB	1171557	n/a	LTP146	ltpFR	8	n/a	n/a	n/a	n/a	n/a	n/a	9	4	1	4	n/a	n/a	n/a	n/a	n/a
2344.464	n/a	STOP	1172232	n/a	LTP146	ltpFR	8	n/a	n/a	n/a	n/a	n/a	n/a	n/a	n/a	n/a	n/a	n/a	n/a	n/a	n/a	n/a
2346.028	n/a	WORD	1173014	wordpools/wasnorm_wordpool.txt	LTP146	ltpFR	8	10	0	GUARD	667	n/a	1	n/a	0	0	0	1	0.412841796875	0.57763671875	upper	../fonts/zerothre.ttf
2349.034	n/a	START	1174517	n/a	LTP146	ltpFR	8	n/a	n/a	n/a	n/a	n/a	n/a	n/a	n/a	n/a	n/a	n/a	n/a	n/a	n/a	n/a
2349.89	n/a	PROB	1174945	n/a	LTP146	ltpFR	8	n/a	n/a	n/a	n/a	n/a	n/a	13	5	4	4	n/a	n/a	n/a	n/a	n/a
2352.378	n/a	PROB	1176189	n/a	LTP146	ltpFR	8	n/a	n/a	n/a	n/a	n/a	n/a	22	4	9	8	n/a	n/a	n/a	n/a	n/a
2353.986	n/a	PROB	1176993	n/a	LTP146	ltpFR	8	n/a	n/a	n/a	n/a	n/a	n/a	8	1	5	2	n/a	n/a	n/a	n/a	n/a
2355.034	n/a	PROB	1177517	n/a	LTP146	ltpFR	8	n/a	n/a	n/a	n/a	n/a	n/a	10	5	3	2	n/a	n/a	n/a	n/a	n/a
2356.296	n/a	STOP	1178148	n/a	LTP146	ltpFR	8	n/a	n/a	n/a	n/a	n/a	n/a	n/a	n/a	n/a	n/a	n/a	n/a	n/a	n/a	n/a
2357.898	n/a	WORD	1178949	wordpools/wasnorm_wordpool.txt	LTP146	ltpFR	8	10	0	BANNER	85	n/a	1	n/a	0	0	0	1	0.412841796875	0.57763671875	upper	../fonts/zerothre.ttf
2360.904	n/a	START	1180452	n/a	LTP146	ltpFR	8	n/a	n/a	n/a	n/a	n/a	n/a	n/a	n/a	n/a	n/a	n/a	n/a	n/a	n/a	n/a
2361.976	n/a	PROB	1180988	n/a	LTP146	ltpFR	8	n/a	n/a	n/a	n/a	n/a	n/a	11	1	8	2	n/a	n/a	n/a	n/a	n/a
2363.224	n/a	PROB	1181612	n/a	LTP146	ltpFR	8	n/a	n/a	n/a	n/a	n/a	n/a	15	6	8	1	n/a	n/a	n/a	n/a	n/a
2364.49	n/a	PROB	1182245	n/a	LTP146	ltpFR	8	n/a	n/a	n/a	n/a	n/a	n/a	17	4	8	9	n/a	n/a	n/a	n/a	n/a
2366.278	n/a	PROB	1183139	n/a	LTP146	ltpFR	8	n/a	n/a	n/a	n/a	n/a	n/a	23	8	9	6	n/a	n/a	n/a	n/a	n/a
2367.754	n/a	STOP	1183877	n/a	LTP146	ltpFR	8	n/a	n/a	n/a	n/a	n/a	n/a	n/a	n/a	n/a	n/a	n/a	n/a	n/a	n/a	n/a
2369.8	n/a	WORD	1184900	wordpools/wasnorm_wordpool.txt	LTP146	ltpFR	8	10	0	CALF	222	n/a	0	n/a	0	0	0	1	0.412841796875	0.57763671875	upper	../fonts/zerothre.ttf
2372.806	n/a	START	1186403	n/a	LTP146	ltpFR	8	n/a	n/a	n/a	n/a	n/a	n/a	n/a	n/a	n/a	n/a	n/a	n/a	n/a	n/a	n/a
2373.962	n/a	PROB	1186981	n/a	LTP146	ltpFR	8	n/a	n/a	n/a	n/a	n/a	n/a	11	2	7	2	n/a	n/a	n/a	n/a	n/a
2375.72	n/a	PROB	1187860	n/a	LTP146	ltpFR	8	n/a	n/a	n/a	n/a	n/a	n/a	16	5	3	8	n/a	n/a	n/a	n/a	n/a
2377.95	n/a	PROB	1188975	n/a	LTP146	ltpFR	8	n/a	n/a	n/a	n/a	n/a	n/a	14	2	8	4	n/a	n/a	n/a	n/a	n/a
2379.098	n/a	PROB	1189549	n/a	LTP146	ltpFR	8	n/a	n/a	n/a	n/a	n/a	n/a	23	7	9	7	n/a	n/a	n/a	n/a	n/a
2380.546	n/a	STOP	1190273	n/a	LTP146	ltpFR	8	n/a	n/a	n/a	n/a	n/a	n/a	n/a	n/a	n/a	n/a	n/a	n/a	n/a	n/a	n/a
2381.878	n/a	WORD	1190939	wordpools/wasnorm_wordpool.txt	LTP146	ltpFR	8	10	1	UTENSIL	1542	n/a	0	n/a	0	0	0	0	0.5869140625	0.422607421875	lower	../fonts/amplitud.ttf
2384.884	n/a	START	1192442	n/a	LTP146	ltpFR	8	n/a	n/a	n/a	n/a	n/a	n/a	n/a	n/a	n/a	n/a	n/a	n/a	n/a	n/a	n/a
2385.974	n/a	PROB	1192987	n/a	LTP146	ltpFR	8	n/a	n/a	n/a	n/a	n/a	n/a	18	6	8	4	n/a	n/a	n/a	n/a	n/a
2389.344	n/a	PROB	1194672	n/a	LTP146	ltpFR	8	n/a	n/a	n/a	n/a	n/a	n/a	14	3	5	6	n/a	n/a	n/a	n/a	n/a
2391.01	n/a	PROB	1195505	n/a	LTP146	ltpFR	8	n/a	n/a	n/a	n/a	n/a	n/a	20	8	8	4	n/a	n/a	n/a	n/a	n/a
2392.602	n/a	STOP	1196301	n/a	LTP146	ltpFR	8	n/a	n/a	n/a	n/a	n/a	n/a	n/a	n/a	n/a	n/a	n/a	n/a	n/a	n/a	n/a
2393.856	n/a	WORD	1196928	wordpools/wasnorm_wordpool.txt	LTP146	ltpFR	8	10	1	JEEP	753	n/a	0	n/a	0	0	0	0	0.5869140625	0.422607421875	lower	../fonts/amplitud.ttf
2396.862	n/a	START	1198431	n/a	LTP146	ltpFR	8	n/a	n/a	n/a	n/a	n/a	n/a	n/a	n/a	n/a	n/a	n/a	n/a	n/a	n/a	n/a
2398.06	n/a	PROB	1199030	n/a	LTP146	ltpFR	8	n/a	n/a	n/a	n/a	n/a	n/a	15	5	3	7	n/a	n/a	n/a	n/a	n/a
2399.348	n/a	PROB	1199674	n/a	LTP146	ltpFR	8	n/a	n/a	n/a	n/a	n/a	n/a	18	8	6	4	n/a	n/a	n/a	n/a	n/a
2400.856	n/a	PROB	1200428	n/a	LTP146	ltpFR	8	n/a	n/a	n/a	n/a	n/a	n/a	12	9	7	8	n/a	n/a	n/a	n/a	n/a
2403.078	n/a	PROB	1201539	n/a	LTP146	ltpFR	8	n/a	n/a	n/a	n/a	n/a	n/a	15	6	6	3	n/a	n/a	n/a	n/a	n/a
2404.562	n/a	STOP	1202281	n/a	LTP146	ltpFR	8	n/a	n/a	n/a	n/a	n/a	n/a	n/a	n/a	n/a	n/a	n/a	n/a	n/a	n/a	n/a
2406.018	n/a	WORD	1203009	wordpools/wasnorm_wordpool.txt	LTP146	ltpFR	8	10	1	CHAUFFEUR	283	n/a	1	n/a	0	0	0	0	0.5869140625	0.422607421875	lower	../fonts/amplitud.ttf
2409.022	n/a	START	1204511	n/a	LTP146	ltpFR	8	n/a	n/a	n/a	n/a	n/a	n/a	n/a	n/a	n/a	n/a	n/a	n/a	n/a	n/a	n/a
2410.186	n/a	PROB	1205093	n/a	LTP146	ltpFR	8	n/a	n/a	n/a	n/a	n/a	n/a	23	8	9	6	n/a	n/a	n/a	n/a	n/a
2411.918	n/a	PROB	1205959	n/a	LTP146	ltpFR	8	n/a	n/a	n/a	n/a	n/a	n/a	14	9	1	4	n/a	n/a	n/a	n/a	n/a
2413.1	n/a	PROB	1206550	n/a	LTP146	ltpFR	8	n/a	n/a	n/a	n/a	n/a	n/a	10	5	1	4	n/a	n/a	n/a	n/a	n/a
2414.514	n/a	PROB	1207257	n/a	LTP146	ltpFR	8	n/a	n/a	n/a	n/a	n/a	n/a	17	8	3	6	n/a	n/a	n/a	n/a	n/a
2415.954	n/a	STOP	1207977	n/a	LTP146	ltpFR	8	n/a	n/a	n/a	n/a	n/a	n/a	n/a	n/a	n/a	n/a	n/a	n/a	n/a	n/a	n/a
2418.118	n/a	WORD	1209059	wordpools/wasnorm_wordpool.txt	LTP146	ltpFR	8	10	1	GRADUATE	653	n/a	1	n/a	0	0	0	0	0.5869140625	0.422607421875	lower	../fonts/amplitud.ttf
2421.126	n/a	START	1210563	n/a	LTP146	ltpFR	8	n/a	n/a	n/a	n/a	n/a	n/a	n/a	n/a	n/a	n/a	n/a	n/a	n/a	n/a	n/a
2422.058	n/a	PROB	1211029	n/a	LTP146	ltpFR	8	n/a	n/a	n/a	n/a	n/a	n/a	15	9	5	1	n/a	n/a	n/a	n/a	n/a
2423.43	n/a	PROB	1211715	n/a	LTP146	ltpFR	8	n/a	n/a	n/a	n/a	n/a	n/a	16	2	8	6	n/a	n/a	n/a	n/a	n/a
2424.73	n/a	PROB	1212365	n/a	LTP146	ltpFR	8	n/a	n/a	n/a	n/a	n/a	n/a	14	7	2	5	n/a	n/a	n/a	n/a	n/a
2426.318	n/a	PROB	1213159	n/a	LTP146	ltpFR	8	n/a	n/a	n/a	n/a	n/a	n/a	13	2	4	7	n/a	n/a	n/a	n/a	n/a
2427.76	n/a	STOP	1213880	n/a	LTP146	ltpFR	8	n/a	n/a	n/a	n/a	n/a	n/a	n/a	n/a	n/a	n/a	n/a	n/a	n/a	n/a	n/a
2430.198	n/a	WORD	1215099	wordpools/wasnorm_wordpool.txt	LTP146	ltpFR	8	10	1	COURSE	390	n/a	0	n/a	0	0	0	0	0.5869140625	0.422607421875	lower	../fonts/amplitud.ttf
2433.202	n/a	START	1216601	n/a	LTP146	ltpFR	8	n/a	n/a	n/a	n/a	n/a	n/a	n/a	n/a	n/a	n/a	n/a	n/a	n/a	n/a	n/a
2434.36	n/a	PROB	1217180	n/a	LTP146	ltpFR	8	n/a	n/a	n/a	n/a	n/a	n/a	16	8	3	5	n/a	n/a	n/a	n/a	n/a
2436.116	n/a	PROB	1218058	n/a	LTP146	ltpFR	8	n/a	n/a	n/a	n/a	n/a	n/a	16	1	9	6	n/a	n/a	n/a	n/a	n/a
2437.414	n/a	PROB	1218707	n/a	LTP146	ltpFR	8	n/a	n/a	n/a	n/a	n/a	n/a	17	4	4	9	n/a	n/a	n/a	n/a	n/a
2439.038	n/a	PROB	1219519	n/a	LTP146	ltpFR	8	n/a	n/a	n/a	n/a	n/a	n/a	22	8	7	7	n/a	n/a	n/a	n/a	n/a
2441.082	n/a	STOP	1220541	n/a	LTP146	ltpFR	8	n/a	n/a	n/a	n/a	n/a	n/a	n/a	n/a	n/a	n/a	n/a	n/a	n/a	n/a	n/a
2442.316	n/a	WORD	1221158	wordpools/wasnorm_wordpool.txt	LTP146	ltpFR	8	10	1	ARROW	40	n/a	0	n/a	0	0	0	0	0.5869140625	0.422607421875	lower	../fonts/amplitud.ttf
2445.322	n/a	START	1222661	n/a	LTP146	ltpFR	8	n/a	n/a	n/a	n/a	n/a	n/a	n/a	n/a	n/a	n/a	n/a	n/a	n/a	n/a	n/a
2446.146	n/a	PROB	1223073	n/a	LTP146	ltpFR	8	n/a	n/a	n/a	n/a	n/a	n/a	18	5	4	9	n/a	n/a	n/a	n/a	n/a
2448.036	n/a	PROB	1224018	n/a	LTP146	ltpFR	8	n/a	n/a	n/a	n/a	n/a	n/a	15	3	7	5	n/a	n/a	n/a	n/a	n/a
2449.442	n/a	PROB	1224721	n/a	LTP146	ltpFR	8	n/a	n/a	n/a	n/a	n/a	n/a	15	5	8	2	n/a	n/a	n/a	n/a	n/a
2450.858	n/a	PROB	1225429	n/a	LTP146	ltpFR	8	n/a	n/a	n/a	n/a	n/a	n/a	8	3	3	2	n/a	n/a	n/a	n/a	n/a
2451.946	n/a	STOP	1225973	n/a	LTP146	ltpFR	8	n/a	n/a	n/a	n/a	n/a	n/a	n/a	n/a	n/a	n/a	n/a	n/a	n/a	n/a	n/a
2454.452	n/a	WORD	1227226	wordpools/wasnorm_wordpool.txt	LTP146	ltpFR	8	10	0	SHARK	1275	n/a	1	n/a	0	0	0	1	0.412841796875	0.57763671875	upper	../fonts/zerothre.ttf
2457.458	n/a	START	1228729	n/a	LTP146	ltpFR	8	n/a	n/a	n/a	n/a	n/a	n/a	n/a	n/a	n/a	n/a	n/a	n/a	n/a	n/a	n/a
2458.382	n/a	PROB	1229191	n/a	LTP146	ltpFR	8	n/a	n/a	n/a	n/a	n/a	n/a	12	8	3	1	n/a	n/a	n/a	n/a	n/a
2459.98	n/a	PROB	1229990	n/a	LTP146	ltpFR	8	n/a	n/a	n/a	n/a	n/a	n/a	15	1	6	8	n/a	n/a	n/a	n/a	n/a
2461.312	n/a	PROB	1230656	n/a	LTP146	ltpFR	8	n/a	n/a	n/a	n/a	n/a	n/a	11	3	2	6	n/a	n/a	n/a	n/a	n/a
2463.986	n/a	STOP	1231993	n/a	LTP146	ltpFR	8	n/a	n/a	n/a	n/a	n/a	n/a	n/a	n/a	n/a	n/a	n/a	n/a	n/a	n/a	n/a
2466.298	n/a	WORD	1233149	wordpools/wasnorm_wordpool.txt	LTP146	ltpFR	8	10	0	HEEL	700	n/a	0	n/a	0	0	0	1	0.412841796875	0.57763671875	upper	../fonts/zerothre.ttf
2469.302	n/a	START	1234651	n/a	LTP146	ltpFR	8	n/a	n/a	n/a	n/a	n/a	n/a	n/a	n/a	n/a	n/a	n/a	n/a	n/a	n/a	n/a
2470.484	n/a	PROB	1235242	n/a	LTP146	ltpFR	8	n/a	n/a	n/a	n/a	n/a	n/a	10	1	5	4	n/a	n/a	n/a	n/a	n/a
2471.708	n/a	PROB	1235854	n/a	LTP146	ltpFR	8	n/a	n/a	n/a	n/a	n/a	n/a	14	1	6	7	n/a	n/a	n/a	n/a	n/a
2473.09	n/a	PROB	1236545	n/a	LTP146	ltpFR	8	n/a	n/a	n/a	n/a	n/a	n/a	7	1	1	5	n/a	n/a	n/a	n/a	n/a
2474.264	n/a	PROB	1237132	n/a	LTP146	ltpFR	8	n/a	n/a	n/a	n/a	n/a	n/a	3	1	1	1	n/a	n/a	n/a	n/a	n/a
2475.254	n/a	PROB	1237627	n/a	LTP146	ltpFR	8	n/a	n/a	n/a	n/a	n/a	n/a	9	2	5	2	n/a	n/a	n/a	n/a	n/a
2476.682	n/a	STOP	1238341	n/a	LTP146	ltpFR	8	n/a	n/a	n/a	n/a	n/a	n/a	n/a	n/a	n/a	n/a	n/a	n/a	n/a	n/a	n/a
2478.45	n/a	WORD	1239225	wordpools/wasnorm_wordpool.txt	LTP146	ltpFR	8	10	0	KNOT	788	n/a	0	n/a	0	0	0	1	0.412841796875	0.57763671875	upper	../fonts/zerothre.ttf
2481.454	n/a	START	1240727	n/a	LTP146	ltpFR	8	n/a	n/a	n/a	n/a	n/a	n/a	n/a	n/a	n/a	n/a	n/a	n/a	n/a	n/a	n/a
2482.528	n/a	PROB	1241264	n/a	LTP146	ltpFR	8	n/a	n/a	n/a	n/a	n/a	n/a	10	1	5	4	n/a	n/a	n/a	n/a	n/a
2483.762	n/a	PROB	1241881	n/a	LTP146	ltpFR	8	n/a	n/a	n/a	n/a	n/a	n/a	17	9	4	4	n/a	n/a	n/a	n/a	n/a
2485.4	n/a	PROB	1242700	n/a	LTP146	ltpFR	8	n/a	n/a	n/a	n/a	n/a	n/a	16	5	3	8	n/a	n/a	n/a	n/a	n/a
2487.148	n/a	PROB	1243574	n/a	LTP146	ltpFR	8	n/a	n/a	n/a	n/a	n/a	n/a	17	3	5	9	n/a	n/a	n/a	n/a	n/a
2489.266	n/a	STOP	1244633	n/a	LTP146	ltpFR	8	n/a	n/a	n/a	n/a	n/a	n/a	n/a	n/a	n/a	n/a	n/a	n/a	n/a	n/a	n/a
2491.202	n/a	REC_START	1245601	n/a	LTP146	ltpFR	8	10	n/a	n/a	n/a	n/a	n/a	n/a	0	0	0	n/a	n/a	n/a	n/a	n/a
2492.15	n/a	REC_WORD	1246075	wordpools/wasnorm_wordpool.txt	LTP146	ltpFR	8	10	0	CALF	222	n/a	0	n/a	0	0	0	n/a	n/a	n/a	n/a	n/a
2492.974	n/a	REC_WORD	1246487	wordpools/wasnorm_wordpool.txt	LTP146	ltpFR	8	10	0	HEEL	700	n/a	0	n/a	0	0	0	n/a	n/a	n/a	n/a	n/a
2494.06	n/a	REC_WORD	1247030	wordpools/wasnorm_wordpool.txt	LTP146	ltpFR	8	10	0	KNOT	788	n/a	0	n/a	0	0	0	n/a	n/a	n/a	n/a	n/a
2495.058	n/a	REC_WORD	1247529	wordpools/wasnorm_wordpool.txt	LTP146	ltpFR	8	10	1	CHAUFFEUR	283	n/a	1	n/a	0	0	0	n/a	n/a	n/a	n/a	n/a
2517.628	n/a	REC_WORD	1258814	wordpools/wasnorm_wordpool.txt	LTP146	ltpFR	8	10	n/a	POND	1101	n/a	n/a	n/a	0	0	0	n/a	n/a	n/a	n/a	n/a
2518.56	n/a	REC_WORD	1259280	wordpools/wasnorm_wordpool.txt	LTP146	ltpFR	8	10	n/a	FARM	552	n/a	n/a	n/a	0	0	0	n/a	n/a	n/a	n/a	n/a
2541.804	n/a	REC_WORD	1270902	wordpools/wasnorm_wordpool.txt	LTP146	ltpFR	8	10	n/a	INDIAN	736	n/a	n/a	n/a	0	0	0	n/a	n/a	n/a	n/a	n/a
2566.782	n/a	REST_REWET	1283391	n/a	LTP146	ltpFR	8	10	n/a	n/a	n/a	n/a	n/a	n/a	0	0	0	n/a	n/a	n/a	n/a	n/a
2808.716	n/a	WORD	1404358	wordpools/wasnorm_wordpool.txt	LTP146	ltpFR	8	11	1	CHISEL	305	n/a	0	n/a	0	0	0	0	0.5869140625	0.422607421875	lower	../fonts/amplitud.ttf
2812.568	n/a	WORD	1406284	wordpools/wasnorm_wordpool.txt	LTP146	ltpFR	8	11	1	KNUCKLE	789	n/a	0	n/a	0	0	0	0	0.5869140625	0.422607421875	lower	../fonts/amplitud.ttf
2816.69	n/a	WORD	1408345	wordpools/wasnorm_wordpool.txt	LTP146	ltpFR	8	11	1	FLANNEL	574	n/a	0	n/a	0	0	0	0	0.5869140625	0.422607421875	lower	../fonts/amplitud.ttf
2820.792	n/a	WORD	1410396	wordpools/wasnorm_wordpool.txt	LTP146	ltpFR	8	11	1	CUSHION	428	n/a	0	n/a	0	0	0	0	0.5869140625	0.422607421875	lower	../fonts/amplitud.ttf
2824.646	n/a	WORD	1412323	wordpools/wasnorm_wordpool.txt	LTP146	ltpFR	8	11	1	SERVANT	1271	n/a	1	n/a	0	0	0	0	0.5869140625	0.422607421875	lower	../fonts/amplitud.ttf
2828.65	n/a	WORD	1414325	wordpools/wasnorm_wordpool.txt	LTP146	ltpFR	8	11	1	KNIFE	785	n/a	0	n/a	0	0	0	0	0.5869140625	0.422607421875	lower	../fonts/amplitud.ttf
2832.546	n/a	WORD	1416273	wordpools/wasnorm_wordpool.txt	LTP146	ltpFR	8	11	1	PANTHER	1009	n/a	1	n/a	0	0	0	0	0.5869140625	0.422607421875	lower	../fonts/amplitud.ttf
2836.666	n/a	WORD	1418333	wordpools/wasnorm_wordpool.txt	LTP146	ltpFR	8	11	1	PATIENT	1024	n/a	1	n/a	0	0	0	0	0.5869140625	0.422607421875	lower	../fonts/amplitud.ttf
2840.536	n/a	WORD	1420268	wordpools/wasnorm_wordpool.txt	LTP146	ltpFR	8	11	1	STORE	1387	n/a	0	n/a	0	0	0	0	0.5869140625	0.422607421875	lower	../fonts/amplitud.ttf
2844.632	n/a	WORD	1422316	wordpools/wasnorm_wordpool.txt	LTP146	ltpFR	8	11	1	MOUSE	925	n/a	1	n/a	0	0	0	0	0.5869140625	0.422607421875	lower	../fonts/amplitud.ttf
2848.678	n/a	WORD	1424339	wordpools/wasnorm_wordpool.txt	LTP146	ltpFR	8	11	1	AFRICA	9	n/a	1	n/a	0	0	0	0	0.5869140625	0.422607421875	lower	../fonts/amplitud.ttf
2852.814	n/a	WORD	1426407	wordpools/wasnorm_wordpool.txt	LTP146	ltpFR	8	11	1	ASIA	46	n/a	1	n/a	0	0	0	0	0.5869140625	0.422607421875	lower	../fonts/amplitud.ttf
2856.96	n/a	WORD	1428480	wordpools/wasnorm_wordpool.txt	LTP146	ltpFR	8	11	1	BOARD	143	n/a	0	n/a	0	0	0	0	0.5869140625	0.422607421875	lower	../fonts/amplitud.ttf
2861.012	n/a	WORD	1430506	wordpools/wasnorm_wordpool.txt	LTP146	ltpFR	8	11	1	GLOVE	642	n/a	0	n/a	0	0	0	0	0.5869140625	0.422607421875	lower	../fonts/amplitud.ttf
2865.174	n/a	WORD	1432587	wordpools/wasnorm_wordpool.txt	LTP146	ltpFR	8	11	1	BARLEY	88	n/a	0	n/a	0	0	0	0	0.5869140625	0.422607421875	lower	../fonts/amplitud.ttf
2869.218	n/a	WORD	1434609	wordpools/wasnorm_wordpool.txt	LTP146	ltpFR	8	11	1	CORN	381	n/a	0	n/a	0	0	0	0	0.5869140625	0.422607421875	lower	../fonts/amplitud.ttf
2872.224	n/a	START	1436112	n/a	LTP146	ltpFR	8	n/a	n/a	n/a	n/a	n/a	n/a	n/a	n/a	n/a	n/a	n/a	n/a	n/a	n/a	n/a
2873.114	n/a	PROB	1436557	n/a	LTP146	ltpFR	8	n/a	n/a	n/a	n/a	n/a	n/a	14	7	2	5	n/a	n/a	n/a	n/a	n/a
2875.162	n/a	PROB	1437581	n/a	LTP146	ltpFR	8	n/a	n/a	n/a	n/a	n/a	n/a	14	7	4	3	n/a	n/a	n/a	n/a	n/a
2876.604	n/a	PROB	1438302	n/a	LTP146	ltpFR	8	n/a	n/a	n/a	n/a	n/a	n/a	16	8	1	7	n/a	n/a	n/a	n/a	n/a
2878.126	n/a	PROB	1439063	n/a	LTP146	ltpFR	8	n/a	n/a	n/a	n/a	n/a	n/a	12	5	1	6	n/a	n/a	n/a	n/a	n/a
2879.334	n/a	PROB	1439667	n/a	LTP146	ltpFR	8	n/a	n/a	n/a	n/a	n/a	n/a	17	5	8	4	n/a	n/a	n/a	n/a	n/a
2880.882	n/a	PROB	1440441	n/a	LTP146	ltpFR	8	n/a	n/a	n/a	n/a	n/a	n/a	8	3	2	3	n/a	n/a	n/a	n/a	n/a
2882.014	n/a	PROB	1441007	n/a	LTP146	ltpFR	8	n/a	n/a	n/a	n/a	n/a	n/a	17	7	2	8	n/a	n/a	n/a	n/a	n/a
2883.878	n/a	PROB	1441939	n/a	LTP146	ltpFR	8	n/a	n/a	n/a	n/a	n/a	n/a	18	2	8	8	n/a	n/a	n/a	n/a	n/a
2885.352	n/a	PROB	1442676	n/a	LTP146	ltpFR	8	n/a	n/a	n/a	n/a	n/a	n/a	24	8	9	8	n/a	n/a	n/a	n/a	n/a
2887.352	n/a	STOP	1443676	n/a	LTP146	ltpFR	8	n/a	n/a	n/a	n/a	n/a	n/a	n/a	n/a	n/a	n/a	n/a	n/a	n/a	n/a	n/a
2889.98	n/a	REC_START	1444990	n/a	LTP146	ltpFR	8	11	n/a	n/a	n/a	n/a	n/a	n/a	0	0	0	n/a	n/a	n/a	n/a	n/a
2890.988	n/a	REC_WORD	1445494	wordpools/wasnorm_wordpool.txt	LTP146	ltpFR	8	11	1	BARLEY	88	n/a	0	n/a	0	0	0	n/a	n/a	n/a	n/a	n/a
2892.334	n/a	REC_WORD	1446167	wordpools/wasnorm_wordpool.txt	LTP146	ltpFR	8	11	1	ASIA	46	n/a	1	n/a	0	0	0	n/a	n/a	n/a	n/a	n/a
2893.298	n/a	REC_WORD	1446649	wordpools/wasnorm_wordpool.txt	LTP146	ltpFR	8	11	1	AFRICA	9	n/a	1	n/a	0	0	0	n/a	n/a	n/a	n/a	n/a
2894.446	n/a	REC_WORD	1447223	wordpools/wasnorm_wordpool.txt	LTP146	ltpFR	8	11	1	PATIENT	1024	n/a	1	n/a	0	0	0	n/a	n/a	n/a	n/a	n/a
2895.658	n/a	REC_WORD	1447829	wordpools/wasnorm_wordpool.txt	LTP146	ltpFR	8	11	1	PANTHER	1009	n/a	1	n/a	0	0	0	n/a	n/a	n/a	n/a	n/a
2896.884	n/a	REC_WORD	1448442	wordpools/wasnorm_wordpool.txt	LTP146	ltpFR	8	11	1	KNIFE	785	n/a	0	n/a	0	0	0	n/a	n/a	n/a	n/a	n/a
2897.682	n/a	REC_WORD	1448841	wordpools/wasnorm_wordpool.txt	LTP146	ltpFR	8	11	1	STORE	1387	n/a	0	n/a	0	0	0	n/a	n/a	n/a	n/a	n/a
2899.478	n/a	REC_WORD	1449739	wordpools/wasnorm_wordpool.txt	LTP146	ltpFR	8	11	1	MOUSE	925	n/a	1	n/a	0	0	0	n/a	n/a	n/a	n/a	n/a
2902.172	n/a	REC_WORD	1451086	wordpools/wasnorm_wordpool.txt	LTP146	ltpFR	8	11	1	FLANNEL	574	n/a	0	n/a	0	0	0	n/a	n/a	n/a	n/a	n/a
2903.66	n/a	REC_WORD	1451830	wordpools/wasnorm_wordpool.txt	LTP146	ltpFR	8	11	1	CUSHION	428	n/a	0	n/a	0	0	0	n/a	n/a	n/a	n/a	n/a
2904.996	n/a	REC_WORD	1452498	wordpools/wasnorm_wordpool.txt	LTP146	ltpFR	8	11	1	KNUCKLE	789	n/a	0	n/a	0	0	0	n/a	n/a	n/a	n/a	n/a
2969.348	n/a	START	1484674	n/a	LTP146	ltpFR	8	n/a	n/a	n/a	n/a	n/a	n/a	n/a	n/a	n/a	n/a	n/a	n/a	n/a	n/a	n/a
2970.854	n/a	PROB	1485427	n/a	LTP146	ltpFR	8	n/a	n/a	n/a	n/a	n/a	n/a	14	7	2	5	n/a	n/a	n/a	n/a	n/a
2972.818	n/a	PROB	1486409	n/a	LTP146	ltpFR	8	n/a	n/a	n/a	n/a	n/a	n/a	24	6	9	9	n/a	n/a	n/a	n/a	n/a
2974.324	n/a	PROB	1487162	n/a	LTP146	ltpFR	8	n/a	n/a	n/a	n/a	n/a	n/a	20	6	5	9	n/a	n/a	n/a	n/a	n/a
2976.156	n/a	PROB	1488078	n/a	LTP146	ltpFR	8	n/a	n/a	n/a	n/a	n/a	n/a	17	9	3	5	n/a	n/a	n/a	n/a	n/a
2977.654	n/a	PROB	1488827	n/a	LTP146	ltpFR	8	n/a	n/a	n/a	n/a	n/a	n/a	20	9	9	2	n/a	n/a	n/a	n/a	n/a
2979.086	n/a	PROB	1489543	n/a	LTP146	ltpFR	8	n/a	n/a	n/a	n/a	n/a	n/a	8	3	4	1	n/a	n/a	n/a	n/a	n/a
2980.934	n/a	PROB	1490467	n/a	LTP146	ltpFR	8	n/a	n/a	n/a	n/a	n/a	n/a	10	3	4	3	n/a	n/a	n/a	n/a	n/a
2983.18	n/a	PROB	1491590	n/a	LTP146	ltpFR	8	n/a	n/a	n/a	n/a	n/a	n/a	23	6	9	7	n/a	n/a	n/a	n/a	n/a
2984.826	n/a	STOP	1492413	n/a	LTP146	ltpFR	8	n/a	n/a	n/a	n/a	n/a	n/a	n/a	n/a	n/a	n/a	n/a	n/a	n/a	n/a	n/a
2986.228	n/a	WORD	1493114	wordpools/wasnorm_wordpool.txt	LTP146	ltpFR	8	12	0	SURF	1412	n/a	1	n/a	0	0	0	1	0.412841796875	0.57763671875	upper	../fonts/zerothre.ttf
2989.232	n/a	START	1494616	n/a	LTP146	ltpFR	8	n/a	n/a	n/a	n/a	n/a	n/a	n/a	n/a	n/a	n/a	n/a	n/a	n/a	n/a	n/a
2990.338	n/a	PROB	1495169	n/a	LTP146	ltpFR	8	n/a	n/a	n/a	n/a	n/a	n/a	24	8	9	7	n/a	n/a	n/a	n/a	n/a
2992.812	n/a	PROB	1496406	n/a	LTP146	ltpFR	8	n/a	n/a	n/a	n/a	n/a	n/a	19	8	6	5	n/a	n/a	n/a	n/a	n/a
2994.984	n/a	PROB	1497492	n/a	LTP146	ltpFR	8	n/a	n/a	n/a	n/a	n/a	n/a	17	8	3	6	n/a	n/a	n/a	n/a	n/a
2996.982	n/a	PROB	1498491	n/a	LTP146	ltpFR	8	n/a	n/a	n/a	n/a	n/a	n/a	17	4	6	7	n/a	n/a	n/a	n/a	n/a
2998.362	n/a	PROB	1499181	n/a	LTP146	ltpFR	8	n/a	n/a	n/a	n/a	n/a	n/a	18	7	1	9	n/a	n/a	n/a	n/a	n/a
3000.004	n/a	PROB	1500002	n/a	LTP146	ltpFR	8	n/a	n/a	n/a	n/a	n/a	n/a	23	9	5	9	n/a	n/a	n/a	n/a	n/a
3003.49	n/a	PROB	1501745	n/a	LTP146	ltpFR	8	n/a	n/a	n/a	n/a	n/a	n/a	10	2	6	2	n/a	n/a	n/a	n/a	n/a
3004.85	n/a	STOP	1502425	n/a	LTP146	ltpFR	8	n/a	n/a	n/a	n/a	n/a	n/a	n/a	n/a	n/a	n/a	n/a	n/a	n/a	n/a	n/a
3006.188	n/a	WORD	1503094	wordpools/wasnorm_wordpool.txt	LTP146	ltpFR	8	12	0	COMMITTEE	355	n/a	1	n/a	0	0	0	1	0.412841796875	0.57763671875	upper	../fonts/zerothre.ttf
3009.192	n/a	START	1504596	n/a	LTP146	ltpFR	8	n/a	n/a	n/a	n/a	n/a	n/a	n/a	n/a	n/a	n/a	n/a	n/a	n/a	n/a	n/a
3010.35	n/a	PROB	1505175	n/a	LTP146	ltpFR	8	n/a	n/a	n/a	n/a	n/a	n/a	16	5	7	4	n/a	n/a	n/a	n/a	n/a
3011.898	n/a	PROB	1505949	n/a	LTP146	ltpFR	8	n/a	n/a	n/a	n/a	n/a	n/a	17	4	5	8	n/a	n/a	n/a	n/a	n/a
3013.888	n/a	PROB	1506944	n/a	LTP146	ltpFR	8	n/a	n/a	n/a	n/a	n/a	n/a	15	6	5	4	n/a	n/a	n/a	n/a	n/a
3015.36	n/a	PROB	1507680	n/a	LTP146	ltpFR	8	n/a	n/a	n/a	n/a	n/a	n/a	24	9	8	8	n/a	n/a	n/a	n/a	n/a
3018.14	n/a	PROB	1509070	n/a	LTP146	ltpFR	8	n/a	n/a	n/a	n/a	n/a	n/a	20	8	5	7	n/a	n/a	n/a	n/a	n/a
3020.27	n/a	PROB	1510135	n/a	LTP146	ltpFR	8	n/a	n/a	n/a	n/a	n/a	n/a	16	5	2	9	n/a	n/a	n/a	n/a	n/a
3022.302	n/a	PROB	1511151	n/a	LTP146	ltpFR	8	n/a	n/a	n/a	n/a	n/a	n/a	7	3	1	3	n/a	n/a	n/a	n/a	n/a
3023.666	n/a	STOP	1511833	n/a	LTP146	ltpFR	8	n/a	n/a	n/a	n/a	n/a	n/a	n/a	n/a	n/a	n/a	n/a	n/a	n/a	n/a	n/a
3026.28	n/a	WORD	1513140	wordpools/wasnorm_wordpool.txt	LTP146	ltpFR	8	12	0	SCAPEGOAT	1244	n/a	1	n/a	0	0	0	1	0.412841796875	0.57763671875	upper	../fonts/zerothre.ttf
3029.286	n/a	START	1514643	n/a	LTP146	ltpFR	8	n/a	n/a	n/a	n/a	n/a	n/a	n/a	n/a	n/a	n/a	n/a	n/a	n/a	n/a	n/a
3030.326	n/a	PROB	1515163	n/a	LTP146	ltpFR	8	n/a	n/a	n/a	n/a	n/a	n/a	17	7	5	5	n/a	n/a	n/a	n/a	n/a
3031.684	n/a	PROB	1515842	n/a	LTP146	ltpFR	8	n/a	n/a	n/a	n/a	n/a	n/a	14	8	1	5	n/a	n/a	n/a	n/a	n/a
3033.39	n/a	PROB	1516695	n/a	LTP146	ltpFR	8	n/a	n/a	n/a	n/a	n/a	n/a	17	7	6	4	n/a	n/a	n/a	n/a	n/a
3035.338	n/a	PROB	1517669	n/a	LTP146	ltpFR	8	n/a	n/a	n/a	n/a	n/a	n/a	19	6	5	8	n/a	n/a	n/a	n/a	n/a
3037.41	n/a	PROB	1518705	n/a	LTP146	ltpFR	8	n/a	n/a	n/a	n/a	n/a	n/a	24	8	9	6	n/a	n/a	n/a	n/a	n/a
3039.06	n/a	PROB	1519530	n/a	LTP146	ltpFR	8	n/a	n/a	n/a	n/a	n/a	n/a	10	1	2	7	n/a	n/a	n/a	n/a	n/a
3040.382	n/a	PROB	1520191	n/a	LTP146	ltpFR	8	n/a	n/a	n/a	n/a	n/a	n/a	17	6	5	6	n/a	n/a	n/a	n/a	n/a
3041.814	n/a	PROB	1520907	n/a	LTP146	ltpFR	8	n/a	n/a	n/a	n/a	n/a	n/a	12	6	3	3	n/a	n/a	n/a	n/a	n/a
3043.446	n/a	PROB	1521723	n/a	LTP146	ltpFR	8	n/a	n/a	n/a	n/a	n/a	n/a	17	9	6	2	n/a	n/a	n/a	n/a	n/a
3044.89	n/a	STOP	1522445	n/a	LTP146	ltpFR	8	n/a	n/a	n/a	n/a	n/a	n/a	n/a	n/a	n/a	n/a	n/a	n/a	n/a	n/a	n/a
3046.176	n/a	WORD	1523088	wordpools/wasnorm_wordpool.txt	LTP146	ltpFR	8	12	0	CANDIDATE	228	n/a	1	n/a	0	0	0	1	0.412841796875	0.57763671875	upper	../fonts/zerothre.ttf
3049.18	n/a	START	1524590	n/a	LTP146	ltpFR	8	n/a	n/a	n/a	n/a	n/a	n/a	n/a	n/a	n/a	n/a	n/a	n/a	n/a	n/a	n/a
3050.288	n/a	PROB	1525144	n/a	LTP146	ltpFR	8	n/a	n/a	n/a	n/a	n/a	n/a	12	2	9	1	n/a	n/a	n/a	n/a	n/a
3051.736	n/a	PROB	1525868	n/a	LTP146	ltpFR	8	n/a	n/a	n/a	n/a	n/a	n/a	21	4	9	8	n/a	n/a	n/a	n/a	n/a
3053.634	n/a	PROB	1526817	n/a	LTP146	ltpFR	8	n/a	n/a	n/a	n/a	n/a	n/a	19	9	1	9	n/a	n/a	n/a	n/a	n/a
3055.206	n/a	PROB	1527603	n/a	LTP146	ltpFR	8	n/a	n/a	n/a	n/a	n/a	n/a	10	3	4	3	n/a	n/a	n/a	n/a	n/a
3057.112	n/a	PROB	1528556	n/a	LTP146	ltpFR	8	n/a	n/a	n/a	n/a	n/a	n/a	12	4	2	6	n/a	n/a	n/a	n/a	n/a
3058.596	n/a	PROB	1529298	n/a	LTP146	ltpFR	8	n/a	n/a	n/a	n/a	n/a	n/a	12	1	5	6	n/a	n/a	n/a	n/a	n/a
3060.118	n/a	PROB	1530059	n/a	LTP146	ltpFR	8	n/a	n/a	n/a	n/a	n/a	n/a	10	2	4	4	n/a	n/a	n/a	n/a	n/a
3061.532	n/a	PROB	1530766	n/a	LTP146	ltpFR	8	n/a	n/a	n/a	n/a	n/a	n/a	16	7	4	5	n/a	n/a	n/a	n/a	n/a
