mstime	trial_type	stim_file	subject	experiment	session	trial	task	item_name	item_num	recog_resp	recog_conf	resp	color_r	color_g	color_b	case	font
0	SESS_START	n/a	LTP184	ltpFR	16	n/a	n/a	n/a	n/a	1	1	n/a	n/a	n/a	n/a	n/a	n/a
60288	WORD	wordpools/wasnorm_wordpool_less_exclusions.txt	LTP184	ltpFR	16	1	1	REFRIGERATOR	1179	0	n/a	0	0.57763671875	0.412841796875	1	upper	zerothre.ttf
64320	WORD	wordpools/wasnorm_wordpool_less_exclusions.txt	LTP184	ltpFR	16	1	1	TOMATO	1476	n/a	n/a	1	0.57763671875	0.412841796875	1	upper	zerothre.ttf
68285	WORD	wordpools/wasnorm_wordpool_less_exclusions.txt	LTP184	ltpFR	16	1	1	BATTERY	101	n/a	n/a	0	0.57763671875	0.412841796875	1	upper	zerothre.ttf
72494	WORD	wordpools/wasnorm_wordpool_less_exclusions.txt	LTP184	ltpFR	16	1	1	SWATTER	1418	n/a	n/a	0	0.57763671875	0.412841796875	1	upper	zerothre.ttf
76382	WORD	wordpools/wasnorm_wordpool_less_exclusions.txt	LTP184	ltpFR	16	1	0	AIRCRAFT	11	n/a	n/a	1	0.422607421875	0.5869140625	0	lower	amplitud.ttf
80547	WORD	wordpools/wasnorm_wordpool_less_exclusions.txt	LTP184	ltpFR	16	1	0	BRANDY	169	n/a	n/a	1	0.422607421875	0.5869140625	0	lower	amplitud.ttf
84629	WORD	wordpools/wasnorm_wordpool_less_exclusions.txt	LTP184	ltpFR	16	1	0	RUM	1217	n/a	n/a	0	0.422607421875	0.5869140625	0	lower	amplitud.ttf
88510	WORD	wordpools/wasnorm_wordpool_less_exclusions.txt	LTP184	ltpFR	16	1	0	HAYSTACK	694	n/a	n/a	1	0.422607421875	0.5869140625	0	lower	amplitud.ttf
92670	WORD	wordpools/wasnorm_wordpool_less_exclusions.txt	LTP184	ltpFR	16	1	1	WASP	1593	n/a	n/a	1	0.57763671875	0.412841796875	1	upper	zerothre.ttf
96869	WORD	wordpools/wasnorm_wordpool_less_exclusions.txt	LTP184	ltpFR	16	1	1	PIRATE	1074	n/a	n/a	1	0.57763671875	0.412841796875	1	upper	zerothre.ttf
100790	WORD	wordpools/wasnorm_wordpool_less_exclusions.txt	LTP184	ltpFR	16	1	0	PEDAL	1037	n/a	n/a	0	0.422607421875	0.5869140625	0	lower	amplitud.ttf
104849	WORD	wordpools/wasnorm_wordpool_less_exclusions.txt	LTP184	ltpFR	16	1	0	OLIVE	975	n/a	n/a	0	0.422607421875	0.5869140625	0	lower	amplitud.ttf
108720	WORD	wordpools/wasnorm_wordpool_less_exclusions.txt	LTP184	ltpFR	16	1	0	COMMANDER	354	n/a	n/a	1	0.422607421875	0.5869140625	0	lower	amplitud.ttf
112846	WORD	wordpools/wasnorm_wordpool_less_exclusions.txt	LTP184	ltpFR	16	1	0	MECHANIC	884	n/a	n/a	1	0.422607421875	0.5869140625	0	lower	amplitud.ttf
116683	WORD	wordpools/wasnorm_wordpool_less_exclusions.txt	LTP184	ltpFR	16	1	1	PARSLEY	1016	n/a	n/a	1	0.57763671875	0.412841796875	1	upper	zerothre.ttf
120815	WORD	wordpools/wasnorm_wordpool_less_exclusions.txt	LTP184	ltpFR	16	1	1	TYPEWRITER	1531	n/a	n/a	0	0.57763671875	0.412841796875	1	upper	zerothre.ttf
126632	REC_START	n/a	LTP184	ltpFR	16	1	n/a	n/a	n/a	n/a	n/a	n/a	n/a	n/a	n/a	n/a	n/a
127051	REC_WORD	wordpools/wasnorm_wordpool_less_exclusions.txt	LTP184	ltpFR	16	1	1	TYPEWRITER	1531	n/a	n/a	0	n/a	n/a	n/a	n/a	n/a
127934	REC_WORD	wordpools/wasnorm_wordpool_less_exclusions.txt	LTP184	ltpFR	16	1	1	PARSLEY	1016	n/a	n/a	1	n/a	n/a	n/a	n/a	n/a
128657	REC_WORD	wordpools/wasnorm_wordpool_less_exclusions.txt	LTP184	ltpFR	16	1	1	PIRATE	1074	n/a	n/a	1	n/a	n/a	n/a	n/a	n/a
129216	REC_WORD	wordpools/wasnorm_wordpool_less_exclusions.txt	LTP184	ltpFR	16	1	0	RUM	1217	n/a	n/a	0	n/a	n/a	n/a	n/a	n/a
130403	REC_WORD	wordpools/wasnorm_wordpool_less_exclusions.txt	LTP184	ltpFR	16	1	0	BRANDY	169	n/a	n/a	1	n/a	n/a	n/a	n/a	n/a
131152	REC_WORD	wordpools/wasnorm_wordpool_less_exclusions.txt	LTP184	ltpFR	16	1	0	OLIVE	975	n/a	n/a	0	n/a	n/a	n/a	n/a	n/a
132389	REC_WORD	wordpools/wasnorm_wordpool_less_exclusions.txt	LTP184	ltpFR	16	1	1	REFRIGERATOR	1179	n/a	n/a	0	n/a	n/a	n/a	n/a	n/a
133389	REC_WORD_VV	wordpools/wasnorm_wordpool_less_exclusions.txt	LTP184	ltpFR	16	1	n/a	<>	-1	n/a	n/a	n/a	n/a	n/a	n/a	n/a	n/a
140001	REC_WORD	wordpools/wasnorm_wordpool_less_exclusions.txt	LTP184	ltpFR	16	1	0	COMMANDER	354	n/a	n/a	1	n/a	n/a	n/a	n/a	n/a
140904	REC_WORD	wordpools/wasnorm_wordpool_less_exclusions.txt	LTP184	ltpFR	16	1	0	MECHANIC	884	n/a	n/a	1	n/a	n/a	n/a	n/a	n/a
150478	REC_WORD	wordpools/wasnorm_wordpool_less_exclusions.txt	LTP184	ltpFR	16	1	0	HAYSTACK	694	n/a	n/a	1	n/a	n/a	n/a	n/a	n/a
155885	REC_WORD	wordpools/wasnorm_wordpool_less_exclusions.txt	LTP184	ltpFR	16	1	0	AIRCRAFT	11	n/a	n/a	1	n/a	n/a	n/a	n/a	n/a
159671	REC_WORD	wordpools/wasnorm_wordpool_less_exclusions.txt	LTP184	ltpFR	16	1	1	TOMATO	1476	n/a	n/a	1	n/a	n/a	n/a	n/a	n/a
172158	REC_WORD	wordpools/wasnorm_wordpool_less_exclusions.txt	LTP184	ltpFR	16	1	1	TYPEWRITER	1531	n/a	n/a	0	n/a	n/a	n/a	n/a	n/a
211701	WORD	wordpools/wasnorm_wordpool_less_exclusions.txt	LTP184	ltpFR	16	2	0	SHEEP	1278	n/a	n/a	1	0.422607421875	0.5869140625	0	lower	amplitud.ttf
215733	WORD	wordpools/wasnorm_wordpool_less_exclusions.txt	LTP184	ltpFR	16	2	0	RAM	1165	n/a	n/a	1	0.422607421875	0.5869140625	0	lower	amplitud.ttf
219933	WORD	wordpools/wasnorm_wordpool_less_exclusions.txt	LTP184	ltpFR	16	2	0	ARTIST	43	n/a	n/a	1	0.422607421875	0.5869140625	0	lower	amplitud.ttf
223881	WORD	wordpools/wasnorm_wordpool_less_exclusions.txt	LTP184	ltpFR	16	2	0	GEM	629	n/a	n/a	0	0.422607421875	0.5869140625	0	lower	amplitud.ttf
227946	WORD	wordpools/wasnorm_wordpool_less_exclusions.txt	LTP184	ltpFR	16	2	1	COLESLAW	344	n/a	n/a	0	0.57763671875	0.412841796875	1	upper	zerothre.ttf
232062	WORD	wordpools/wasnorm_wordpool_less_exclusions.txt	LTP184	ltpFR	16	2	1	SERVER	1272	n/a	n/a	1	0.57763671875	0.412841796875	1	upper	zerothre.ttf
236201	WORD	wordpools/wasnorm_wordpool_less_exclusions.txt	LTP184	ltpFR	16	2	1	MEAL	882	n/a	n/a	0	0.57763671875	0.412841796875	1	upper	zerothre.ttf
240125	WORD	wordpools/wasnorm_wordpool_less_exclusions.txt	LTP184	ltpFR	16	2	0	SKUNK	1321	n/a	n/a	1	0.422607421875	0.5869140625	0	lower	amplitud.ttf
244325	WORD	wordpools/wasnorm_wordpool_less_exclusions.txt	LTP184	ltpFR	16	2	0	BRACELET	163	n/a	n/a	0	0.422607421875	0.5869140625	0	lower	amplitud.ttf
248364	WORD	wordpools/wasnorm_wordpool_less_exclusions.txt	LTP184	ltpFR	16	2	0	COW	393	n/a	n/a	1	0.422607421875	0.5869140625	0	lower	amplitud.ttf
252539	WORD	wordpools/wasnorm_wordpool_less_exclusions.txt	LTP184	ltpFR	16	2	0	BOSS	152	n/a	n/a	1	0.422607421875	0.5869140625	0	lower	amplitud.ttf
256443	WORD	wordpools/wasnorm_wordpool_less_exclusions.txt	LTP184	ltpFR	16	2	1	CANVAS	234	n/a	n/a	0	0.57763671875	0.412841796875	1	upper	zerothre.ttf
260392	WORD	wordpools/wasnorm_wordpool_less_exclusions.txt	LTP184	ltpFR	16	2	1	SIRLOIN	1311	n/a	n/a	0	0.57763671875	0.412841796875	1	upper	zerothre.ttf
264384	WORD	wordpools/wasnorm_wordpool_less_exclusions.txt	LTP184	ltpFR	16	2	1	SECRETARY	1265	n/a	n/a	1	0.57763671875	0.412841796875	1	upper	zerothre.ttf
268583	WORD	wordpools/wasnorm_wordpool_less_exclusions.txt	LTP184	ltpFR	16	2	1	RAZOR	1171	n/a	n/a	0	0.57763671875	0.412841796875	1	upper	zerothre.ttf
272721	WORD	wordpools/wasnorm_wordpool_less_exclusions.txt	LTP184	ltpFR	16	2	1	WHISKERS	1605	n/a	n/a	0	0.57763671875	0.412841796875	1	upper	zerothre.ttf
278705	REC_START	n/a	LTP184	ltpFR	16	2	n/a	n/a	n/a	n/a	n/a	n/a	n/a	n/a	n/a	n/a	n/a
279004	REC_WORD	wordpools/wasnorm_wordpool_less_exclusions.txt	LTP184	ltpFR	16	2	1	SECRETARY	1265	n/a	n/a	1	n/a	n/a	n/a	n/a	n/a
279864	REC_WORD	wordpools/wasnorm_wordpool_less_exclusions.txt	LTP184	ltpFR	16	2	1	RAZOR	1171	n/a	n/a	0	n/a	n/a	n/a	n/a	n/a
281643	REC_WORD	wordpools/wasnorm_wordpool_less_exclusions.txt	LTP184	ltpFR	16	2	1	WHISKERS	1605	n/a	n/a	0	n/a	n/a	n/a	n/a	n/a
283948	REC_WORD	wordpools/wasnorm_wordpool_less_exclusions.txt	LTP184	ltpFR	16	2	1	SIRLOIN	1311	n/a	n/a	0	n/a	n/a	n/a	n/a	n/a
284886	REC_WORD	wordpools/wasnorm_wordpool_less_exclusions.txt	LTP184	ltpFR	16	2	0	COW	393	n/a	n/a	1	n/a	n/a	n/a	n/a	n/a
285724	REC_WORD	wordpools/wasnorm_wordpool_less_exclusions.txt	LTP184	ltpFR	16	2	0	RAM	1165	n/a	n/a	1	n/a	n/a	n/a	n/a	n/a
287111	REC_WORD	wordpools/wasnorm_wordpool_less_exclusions.txt	LTP184	ltpFR	16	2	0	SHEEP	1278	n/a	n/a	1	n/a	n/a	n/a	n/a	n/a
290268	REC_WORD	wordpools/wasnorm_wordpool_less_exclusions.txt	LTP184	ltpFR	16	2	1	SECRETARY	1265	n/a	n/a	1	n/a	n/a	n/a	n/a	n/a
291268	REC_WORD_VV	wordpools/wasnorm_wordpool_less_exclusions.txt	LTP184	ltpFR	16	2	n/a	<>	-1	n/a	n/a	n/a	n/a	n/a	n/a	n/a	n/a
301847	REC_WORD	wordpools/wasnorm_wordpool_less_exclusions.txt	LTP184	ltpFR	16	2	0	SKUNK	1321	n/a	n/a	1	n/a	n/a	n/a	n/a	n/a
307215	REC_WORD	wordpools/wasnorm_wordpool_less_exclusions.txt	LTP184	ltpFR	16	2	0	COMMANDER	354	n/a	n/a	1	n/a	n/a	n/a	n/a	n/a
314583	REC_WORD	wordpools/wasnorm_wordpool_less_exclusions.txt	LTP184	ltpFR	16	2	1	SIRLOIN	1311	n/a	n/a	0	n/a	n/a	n/a	n/a	n/a
320884	REC_WORD	wordpools/wasnorm_wordpool_less_exclusions.txt	LTP184	ltpFR	16	2	1	COLESLAW	344	n/a	n/a	0	n/a	n/a	n/a	n/a	n/a
334762	REC_WORD	wordpools/wasnorm_wordpool_less_exclusions.txt	LTP184	ltpFR	16	2	n/a	MEDAL	885	n/a	n/a	n/a	n/a	n/a	n/a	n/a	n/a
356698	WORD	wordpools/wasnorm_wordpool_less_exclusions.txt	LTP184	ltpFR	16	3	0	BRICK	172	n/a	n/a	0	0.422607421875	0.5869140625	0	lower	amplitud.ttf
360920	WORD	wordpools/wasnorm_wordpool_less_exclusions.txt	LTP184	ltpFR	16	3	0	PLASTER	1085	n/a	n/a	0	0.422607421875	0.5869140625	0	lower	amplitud.ttf
364751	WORD	wordpools/wasnorm_wordpool_less_exclusions.txt	LTP184	ltpFR	16	3	0	WATER	1594	n/a	n/a	0	0.422607421875	0.5869140625	0	lower	amplitud.ttf
368844	WORD	wordpools/wasnorm_wordpool_less_exclusions.txt	LTP184	ltpFR	16	3	0	CRAB	397	n/a	n/a	0	0.422607421875	0.5869140625	0	lower	amplitud.ttf
372915	WORD	wordpools/wasnorm_wordpool_less_exclusions.txt	LTP184	ltpFR	16	3	0	DESK	452	n/a	n/a	0	0.422607421875	0.5869140625	0	lower	amplitud.ttf
376981	WORD	wordpools/wasnorm_wordpool_less_exclusions.txt	LTP184	ltpFR	16	3	0	MAYONNAISE	880	n/a	n/a	0	0.422607421875	0.5869140625	0	lower	amplitud.ttf
381029	WORD	wordpools/wasnorm_wordpool_less_exclusions.txt	LTP184	ltpFR	16	3	0	SEAFOOD	1260	n/a	n/a	0	0.422607421875	0.5869140625	0	lower	amplitud.ttf
385246	WORD	wordpools/wasnorm_wordpool_less_exclusions.txt	LTP184	ltpFR	16	3	0	TRAITOR	1495	n/a	n/a	1	0.422607421875	0.5869140625	0	lower	amplitud.ttf
389144	WORD	wordpools/wasnorm_wordpool_less_exclusions.txt	LTP184	ltpFR	16	3	0	HARP	689	n/a	n/a	1	0.422607421875	0.5869140625	0	lower	amplitud.ttf
392974	WORD	wordpools/wasnorm_wordpool_less_exclusions.txt	LTP184	ltpFR	16	3	0	ORCHESTRA	981	n/a	n/a	1	0.422607421875	0.5869140625	0	lower	amplitud.ttf
396899	WORD	wordpools/wasnorm_wordpool_less_exclusions.txt	LTP184	ltpFR	16	3	0	PIT	1077	n/a	n/a	1	0.422607421875	0.5869140625	0	lower	amplitud.ttf
401032	WORD	wordpools/wasnorm_wordpool_less_exclusions.txt	LTP184	ltpFR	16	3	0	HERD	705	n/a	n/a	1	0.422607421875	0.5869140625	0	lower	amplitud.ttf
404986	WORD	wordpools/wasnorm_wordpool_less_exclusions.txt	LTP184	ltpFR	16	3	0	HAMBURGER	679	n/a	n/a	0	0.422607421875	0.5869140625	0	lower	amplitud.ttf
408844	WORD	wordpools/wasnorm_wordpool_less_exclusions.txt	LTP184	ltpFR	16	3	0	ANKLE	24	n/a	n/a	0	0.422607421875	0.5869140625	0	lower	amplitud.ttf
412809	WORD	wordpools/wasnorm_wordpool_less_exclusions.txt	LTP184	ltpFR	16	3	0	TORTOISE	1486	n/a	n/a	0	0.422607421875	0.5869140625	0	lower	amplitud.ttf
416858	WORD	wordpools/wasnorm_wordpool_less_exclusions.txt	LTP184	ltpFR	16	3	0	BASKET	95	n/a	n/a	0	0.422607421875	0.5869140625	0	lower	amplitud.ttf
422704	REC_START	n/a	LTP184	ltpFR	16	3	n/a	n/a	n/a	n/a	n/a	n/a	n/a	n/a	n/a	n/a	n/a
423432	REC_WORD	wordpools/wasnorm_wordpool_less_exclusions.txt	LTP184	ltpFR	16	3	0	BASKET	95	n/a	n/a	0	n/a	n/a	n/a	n/a	n/a
424290	REC_WORD	wordpools/wasnorm_wordpool_less_exclusions.txt	LTP184	ltpFR	16	3	0	TORTOISE	1486	n/a	n/a	0	n/a	n/a	n/a	n/a	n/a
426859	REC_WORD	wordpools/wasnorm_wordpool_less_exclusions.txt	LTP184	ltpFR	16	3	0	MAYONNAISE	880	n/a	n/a	0	n/a	n/a	n/a	n/a	n/a
427859	REC_WORD_VV	wordpools/wasnorm_wordpool_less_exclusions.txt	LTP184	ltpFR	16	3	n/a	<>	-1	n/a	n/a	n/a	n/a	n/a	n/a	n/a	n/a
432087	REC_WORD	wordpools/wasnorm_wordpool_less_exclusions.txt	LTP184	ltpFR	16	3	1	COLESLAW	344	n/a	n/a	0	n/a	n/a	n/a	n/a	n/a
434168	REC_WORD	wordpools/wasnorm_wordpool_less_exclusions.txt	LTP184	ltpFR	16	3	0	CRAB	397	n/a	n/a	0	n/a	n/a	n/a	n/a	n/a
435016	REC_WORD	wordpools/wasnorm_wordpool_less_exclusions.txt	LTP184	ltpFR	16	3	0	WATER	1594	n/a	n/a	0	n/a	n/a	n/a	n/a	n/a
436652	REC_WORD	wordpools/wasnorm_wordpool_less_exclusions.txt	LTP184	ltpFR	16	3	0	BASKET	95	n/a	n/a	0	n/a	n/a	n/a	n/a	n/a
440843	REC_WORD	wordpools/wasnorm_wordpool_less_exclusions.txt	LTP184	ltpFR	16	3	0	BRICK	172	n/a	n/a	0	n/a	n/a	n/a	n/a	n/a
441386	REC_WORD	wordpools/wasnorm_wordpool_less_exclusions.txt	LTP184	ltpFR	16	3	0	PLASTER	1085	n/a	n/a	0	n/a	n/a	n/a	n/a	n/a
442386	REC_WORD_VV	wordpools/wasnorm_wordpool_less_exclusions.txt	LTP184	ltpFR	16	3	n/a	<>	-1	n/a	n/a	n/a	n/a	n/a	n/a	n/a	n/a
452501	REC_WORD	wordpools/wasnorm_wordpool_less_exclusions.txt	LTP184	ltpFR	16	3	0	GEM	629	n/a	n/a	0	n/a	n/a	n/a	n/a	n/a
506914	WORD	wordpools/wasnorm_wordpool_less_exclusions.txt	LTP184	ltpFR	16	4	0	BAG	69	n/a	n/a	0	0.422607421875	0.5869140625	0	lower	amplitud.ttf
510885	WORD	wordpools/wasnorm_wordpool_less_exclusions.txt	LTP184	ltpFR	16	4	0	LADY	794	n/a	n/a	1	0.422607421875	0.5869140625	0	lower	amplitud.ttf
515061	WORD	wordpools/wasnorm_wordpool_less_exclusions.txt	LTP184	ltpFR	16	4	0	PRAIRIE	1118	n/a	n/a	1	0.422607421875	0.5869140625	0	lower	amplitud.ttf
518976	WORD	wordpools/wasnorm_wordpool_less_exclusions.txt	LTP184	ltpFR	16	4	0	DOG	480	n/a	n/a	1	0.422607421875	0.5869140625	0	lower	amplitud.ttf
523064	WORD	wordpools/wasnorm_wordpool_less_exclusions.txt	LTP184	ltpFR	16	4	1	SWITCH	1422	n/a	n/a	0	0.57763671875	0.412841796875	1	upper	zerothre.ttf
526912	WORD	wordpools/wasnorm_wordpool_less_exclusions.txt	LTP184	ltpFR	16	4	1	BREAD	170	n/a	n/a	0	0.57763671875	0.412841796875	1	upper	zerothre.ttf
530904	WORD	wordpools/wasnorm_wordpool_less_exclusions.txt	LTP184	ltpFR	16	4	1	ASTRONAUT	51	n/a	n/a	1	0.57763671875	0.412841796875	1	upper	zerothre.ttf
535026	WORD	wordpools/wasnorm_wordpool_less_exclusions.txt	LTP184	ltpFR	16	4	1	SPACE	1345	n/a	n/a	0	0.57763671875	0.412841796875	1	upper	zerothre.ttf
539102	WORD	wordpools/wasnorm_wordpool_less_exclusions.txt	LTP184	ltpFR	16	4	0	CUFF	423	n/a	n/a	0	0.422607421875	0.5869140625	0	lower	amplitud.ttf
543319	WORD	wordpools/wasnorm_wordpool_less_exclusions.txt	LTP184	ltpFR	16	4	0	SEAL	1262	n/a	n/a	0	0.422607421875	0.5869140625	0	lower	amplitud.ttf
547317	WORD	wordpools/wasnorm_wordpool_less_exclusions.txt	LTP184	ltpFR	16	4	1	CLASS	318	n/a	n/a	0	0.57763671875	0.412841796875	1	upper	zerothre.ttf
551299	WORD	wordpools/wasnorm_wordpool_less_exclusions.txt	LTP184	ltpFR	16	4	1	TUBA	1515	n/a	n/a	0	0.57763671875	0.412841796875	1	upper	zerothre.ttf
555404	WORD	wordpools/wasnorm_wordpool_less_exclusions.txt	LTP184	ltpFR	16	4	1	CHIME	300	n/a	n/a	0	0.57763671875	0.412841796875	1	upper	zerothre.ttf
559468	WORD	wordpools/wasnorm_wordpool_less_exclusions.txt	LTP184	ltpFR	16	4	1	MOOSE	915	n/a	n/a	1	0.57763671875	0.412841796875	1	upper	zerothre.ttf
563500	WORD	wordpools/wasnorm_wordpool_less_exclusions.txt	LTP184	ltpFR	16	4	0	LOAF	835	n/a	n/a	0	0.422607421875	0.5869140625	0	lower	amplitud.ttf
567526	WORD	wordpools/wasnorm_wordpool_less_exclusions.txt	LTP184	ltpFR	16	4	0	JACKET	747	n/a	n/a	0	0.422607421875	0.5869140625	0	lower	amplitud.ttf
573239	REC_START	n/a	LTP184	ltpFR	16	4	n/a	n/a	n/a	n/a	n/a	n/a	n/a	n/a	n/a	n/a	n/a
573942	REC_WORD	wordpools/wasnorm_wordpool_less_exclusions.txt	LTP184	ltpFR	16	4	0	LOAF	835	n/a	n/a	0	n/a	n/a	n/a	n/a	n/a
576112	REC_WORD	wordpools/wasnorm_wordpool_less_exclusions.txt	LTP184	ltpFR	16	4	0	JACKET	747	n/a	n/a	0	n/a	n/a	n/a	n/a	n/a
577978	REC_WORD	wordpools/wasnorm_wordpool_less_exclusions.txt	LTP184	ltpFR	16	4	1	TUBA	1515	n/a	n/a	0	n/a	n/a	n/a	n/a	n/a
578978	REC_WORD_VV	wordpools/wasnorm_wordpool_less_exclusions.txt	LTP184	ltpFR	16	4	n/a	<>	-1	n/a	n/a	n/a	n/a	n/a	n/a	n/a	n/a
580582	REC_WORD	wordpools/wasnorm_wordpool_less_exclusions.txt	LTP184	ltpFR	16	4	0	PRAIRIE	1118	n/a	n/a	1	n/a	n/a	n/a	n/a	n/a
581355	REC_WORD	wordpools/wasnorm_wordpool_less_exclusions.txt	LTP184	ltpFR	16	4	0	DOG	480	n/a	n/a	1	n/a	n/a	n/a	n/a	n/a
590410	REC_WORD	wordpools/wasnorm_wordpool_less_exclusions.txt	LTP184	ltpFR	16	4	0	BAG	69	n/a	n/a	0	n/a	n/a	n/a	n/a	n/a
591173	REC_WORD	wordpools/wasnorm_wordpool_less_exclusions.txt	LTP184	ltpFR	16	4	0	LADY	794	n/a	n/a	1	n/a	n/a	n/a	n/a	n/a
600253	REC_WORD	wordpools/wasnorm_wordpool_less_exclusions.txt	LTP184	ltpFR	16	4	1	COLESLAW	344	n/a	n/a	0	n/a	n/a	n/a	n/a	n/a
617199	REC_WORD	wordpools/wasnorm_wordpool_less_exclusions.txt	LTP184	ltpFR	16	4	1	SWITCH	1422	n/a	n/a	0	n/a	n/a	n/a	n/a	n/a
620087	REC_WORD	wordpools/wasnorm_wordpool_less_exclusions.txt	LTP184	ltpFR	16	4	1	SPACE	1345	n/a	n/a	0	n/a	n/a	n/a	n/a	n/a
620990	REC_WORD	wordpools/wasnorm_wordpool_less_exclusions.txt	LTP184	ltpFR	16	4	1	ASTRONAUT	51	n/a	n/a	1	n/a	n/a	n/a	n/a	n/a
630039	REC_WORD	wordpools/wasnorm_wordpool_less_exclusions.txt	LTP184	ltpFR	16	4	1	TYPEWRITER	1531	n/a	n/a	0	n/a	n/a	n/a	n/a	n/a
652546	WORD	wordpools/wasnorm_wordpool_less_exclusions.txt	LTP184	ltpFR	16	5	-1	BIOLOGIST	128	n/a	n/a	-1	1.0	1.0	1	upper	Verdana.ttf
656668	WORD	wordpools/wasnorm_wordpool_less_exclusions.txt	LTP184	ltpFR	16	5	-1	FIG	563	n/a	n/a	-1	1.0	1.0	1	upper	Verdana.ttf
660499	WORD	wordpools/wasnorm_wordpool_less_exclusions.txt	LTP184	ltpFR	16	5	-1	LOG	841	n/a	n/a	-1	1.0	1.0	1	upper	Verdana.ttf
664474	WORD	wordpools/wasnorm_wordpool_less_exclusions.txt	LTP184	ltpFR	16	5	-1	DOLLAR	482	n/a	n/a	-1	1.0	1.0	1	upper	Verdana.ttf
668340	WORD	wordpools/wasnorm_wordpool_less_exclusions.txt	LTP184	ltpFR	16	5	-1	BEAKER	104	n/a	n/a	-1	1.0	1.0	1	upper	Verdana.ttf
672177	WORD	wordpools/wasnorm_wordpool_less_exclusions.txt	LTP184	ltpFR	16	5	-1	PEACH	1031	n/a	n/a	-1	1.0	1.0	1	upper	Verdana.ttf
676343	WORD	wordpools/wasnorm_wordpool_less_exclusions.txt	LTP184	ltpFR	16	5	-1	TREASURE	1500	n/a	n/a	-1	1.0	1.0	1	upper	Verdana.ttf
680275	WORD	wordpools/wasnorm_wordpool_less_exclusions.txt	LTP184	ltpFR	16	5	-1	CATERPILLAR	259	n/a	n/a	-1	1.0	1.0	1	upper	Verdana.ttf
684483	WORD	wordpools/wasnorm_wordpool_less_exclusions.txt	LTP184	ltpFR	16	5	-1	INSECT	740	n/a	n/a	-1	1.0	1.0	1	upper	Verdana.ttf
688454	WORD	wordpools/wasnorm_wordpool_less_exclusions.txt	LTP184	ltpFR	16	5	-1	CHIMNEY	301	n/a	n/a	-1	1.0	1.0	1	upper	Verdana.ttf
692654	WORD	wordpools/wasnorm_wordpool_less_exclusions.txt	LTP184	ltpFR	16	5	-1	BOAT	144	n/a	n/a	-1	1.0	1.0	1	upper	Verdana.ttf
696746	WORD	wordpools/wasnorm_wordpool_less_exclusions.txt	LTP184	ltpFR	16	5	-1	CEILING	265	n/a	n/a	-1	1.0	1.0	1	upper	Verdana.ttf
700667	WORD	wordpools/wasnorm_wordpool_less_exclusions.txt	LTP184	ltpFR	16	5	-1	ENGINEER	536	n/a	n/a	-1	1.0	1.0	1	upper	Verdana.ttf
704515	WORD	wordpools/wasnorm_wordpool_less_exclusions.txt	LTP184	ltpFR	16	5	-1	CHAIN	273	n/a	n/a	-1	1.0	1.0	1	upper	Verdana.ttf
708463	WORD	wordpools/wasnorm_wordpool_less_exclusions.txt	LTP184	ltpFR	16	5	-1	TIE	1466	n/a	n/a	-1	1.0	1.0	1	upper	Verdana.ttf
712362	WORD	wordpools/wasnorm_wordpool_less_exclusions.txt	LTP184	ltpFR	16	5	-1	SCARF	1246	n/a	n/a	-1	1.0	1.0	1	upper	Verdana.ttf
717977	REC_START	n/a	LTP184	ltpFR	16	5	n/a	n/a	n/a	n/a	n/a	n/a	n/a	n/a	n/a	n/a	n/a
718401	REC_WORD	wordpools/wasnorm_wordpool_less_exclusions.txt	LTP184	ltpFR	16	5	-1	CHIMNEY	301	n/a	n/a	-1	n/a	n/a	n/a	n/a	n/a
719029	REC_WORD	wordpools/wasnorm_wordpool_less_exclusions.txt	LTP184	ltpFR	16	5	-1	BOAT	144	n/a	n/a	-1	n/a	n/a	n/a	n/a	n/a
719443	REC_WORD	wordpools/wasnorm_wordpool_less_exclusions.txt	LTP184	ltpFR	16	5	-1	CEILING	265	n/a	n/a	-1	n/a	n/a	n/a	n/a	n/a
720287	REC_WORD	wordpools/wasnorm_wordpool_less_exclusions.txt	LTP184	ltpFR	16	5	-1	TIE	1466	n/a	n/a	-1	n/a	n/a	n/a	n/a	n/a
720820	REC_WORD	wordpools/wasnorm_wordpool_less_exclusions.txt	LTP184	ltpFR	16	5	-1	SCARF	1246	n/a	n/a	-1	n/a	n/a	n/a	n/a	n/a
721678	REC_WORD	wordpools/wasnorm_wordpool_less_exclusions.txt	LTP184	ltpFR	16	5	-1	BIOLOGIST	128	n/a	n/a	-1	n/a	n/a	n/a	n/a	n/a
723454	REC_WORD	wordpools/wasnorm_wordpool_less_exclusions.txt	LTP184	ltpFR	16	5	-1	ENGINEER	536	n/a	n/a	-1	n/a	n/a	n/a	n/a	n/a
724452	REC_WORD	wordpools/wasnorm_wordpool_less_exclusions.txt	LTP184	ltpFR	16	5	-1	BEAKER	104	n/a	n/a	-1	n/a	n/a	n/a	n/a	n/a
805907	WORD	wordpools/wasnorm_wordpool_less_exclusions.txt	LTP184	ltpFR	16	6	0	BUTTERFLY	206	n/a	n/a	0	0.422607421875	0.5869140625	0	lower	amplitud.ttf
810013	WORD	wordpools/wasnorm_wordpool_less_exclusions.txt	LTP184	ltpFR	16	6	0	SERPENT	1270	n/a	n/a	0	0.422607421875	0.5869140625	0	lower	amplitud.ttf
814021	WORD	wordpools/wasnorm_wordpool_less_exclusions.txt	LTP184	ltpFR	16	6	0	CANDIDATE	228	n/a	n/a	1	0.422607421875	0.5869140625	0	lower	amplitud.ttf
818211	WORD	wordpools/wasnorm_wordpool_less_exclusions.txt	LTP184	ltpFR	16	6	0	LIMB	822	n/a	n/a	0	0.422607421875	0.5869140625	0	lower	amplitud.ttf
822068	WORD	wordpools/wasnorm_wordpool_less_exclusions.txt	LTP184	ltpFR	16	6	0	LETTER	813	n/a	n/a	0	0.422607421875	0.5869140625	0	lower	amplitud.ttf
826202	WORD	wordpools/wasnorm_wordpool_less_exclusions.txt	LTP184	ltpFR	16	6	0	BOX	159	n/a	n/a	0	0.422607421875	0.5869140625	0	lower	amplitud.ttf
830350	WORD	wordpools/wasnorm_wordpool_less_exclusions.txt	LTP184	ltpFR	16	6	0	SPOOL	1356	n/a	n/a	0	0.422607421875	0.5869140625	0	lower	amplitud.ttf
834565	WORD	wordpools/wasnorm_wordpool_less_exclusions.txt	LTP184	ltpFR	16	6	0	RESTAURANT	1187	n/a	n/a	1	0.422607421875	0.5869140625	0	lower	amplitud.ttf
838497	WORD	wordpools/wasnorm_wordpool_less_exclusions.txt	LTP184	ltpFR	16	6	0	HANGER	687	n/a	n/a	0	0.422607421875	0.5869140625	0	lower	amplitud.ttf
842468	WORD	wordpools/wasnorm_wordpool_less_exclusions.txt	LTP184	ltpFR	16	6	0	SLUG	1329	n/a	n/a	0	0.422607421875	0.5869140625	0	lower	amplitud.ttf
846417	WORD	wordpools/wasnorm_wordpool_less_exclusions.txt	LTP184	ltpFR	16	6	0	ACORN	3	n/a	n/a	0	0.422607421875	0.5869140625	0	lower	amplitud.ttf
850593	WORD	wordpools/wasnorm_wordpool_less_exclusions.txt	LTP184	ltpFR	16	6	0	TWIG	1527	n/a	n/a	0	0.422607421875	0.5869140625	0	lower	amplitud.ttf
854708	WORD	wordpools/wasnorm_wordpool_less_exclusions.txt	LTP184	ltpFR	16	6	0	COSTUME	383	n/a	n/a	0	0.422607421875	0.5869140625	0	lower	amplitud.ttf
858847	WORD	wordpools/wasnorm_wordpool_less_exclusions.txt	LTP184	ltpFR	16	6	0	WILDERNESS	1610	n/a	n/a	1	0.422607421875	0.5869140625	0	lower	amplitud.ttf
862728	WORD	wordpools/wasnorm_wordpool_less_exclusions.txt	LTP184	ltpFR	16	6	0	SHRUB	1299	n/a	n/a	1	0.422607421875	0.5869140625	0	lower	amplitud.ttf
866670	WORD	wordpools/wasnorm_wordpool_less_exclusions.txt	LTP184	ltpFR	16	6	0	THIMBLE	1458	n/a	n/a	0	0.422607421875	0.5869140625	0	lower	amplitud.ttf
872700	REC_START	n/a	LTP184	ltpFR	16	6	n/a	n/a	n/a	n/a	n/a	n/a	n/a	n/a	n/a	n/a	n/a
873233	REC_WORD	wordpools/wasnorm_wordpool_less_exclusions.txt	LTP184	ltpFR	16	6	0	THIMBLE	1458	n/a	n/a	0	n/a	n/a	n/a	n/a	n/a
874301	REC_WORD	wordpools/wasnorm_wordpool_less_exclusions.txt	LTP184	ltpFR	16	6	0	RESTAURANT	1187	n/a	n/a	1	n/a	n/a	n/a	n/a	n/a
875169	REC_WORD	wordpools/wasnorm_wordpool_less_exclusions.txt	LTP184	ltpFR	16	6	0	TWIG	1527	n/a	n/a	0	n/a	n/a	n/a	n/a	n/a
875828	REC_WORD	wordpools/wasnorm_wordpool_less_exclusions.txt	LTP184	ltpFR	16	6	0	ACORN	3	n/a	n/a	0	n/a	n/a	n/a	n/a	n/a
876820	REC_WORD	wordpools/wasnorm_wordpool_less_exclusions.txt	LTP184	ltpFR	16	6	-1	FIG	563	n/a	n/a	-1	n/a	n/a	n/a	n/a	n/a
881714	REC_WORD	wordpools/wasnorm_wordpool_less_exclusions.txt	LTP184	ltpFR	16	6	0	SERPENT	1270	n/a	n/a	0	n/a	n/a	n/a	n/a	n/a
884558	REC_WORD	wordpools/wasnorm_wordpool_less_exclusions.txt	LTP184	ltpFR	16	6	0	LIMB	822	n/a	n/a	0	n/a	n/a	n/a	n/a	n/a
892345	REC_WORD	wordpools/wasnorm_wordpool_less_exclusions.txt	LTP184	ltpFR	16	6	0	WILDERNESS	1610	n/a	n/a	1	n/a	n/a	n/a	n/a	n/a
899464	REC_WORD	wordpools/wasnorm_wordpool_less_exclusions.txt	LTP184	ltpFR	16	6	-1	LOG	841	n/a	n/a	-1	n/a	n/a	n/a	n/a	n/a
955745	WORD	wordpools/wasnorm_wordpool_less_exclusions.txt	LTP184	ltpFR	16	7	1	DISC	473	n/a	n/a	0	0.57763671875	0.412841796875	1	upper	zerothre.ttf
959593	WORD	wordpools/wasnorm_wordpool_less_exclusions.txt	LTP184	ltpFR	16	7	1	ROBOT	1200	n/a	n/a	0	0.57763671875	0.412841796875	1	upper	zerothre.ttf
963625	WORD	wordpools/wasnorm_wordpool_less_exclusions.txt	LTP184	ltpFR	16	7	1	CONDUCTOR	362	n/a	n/a	1	0.57763671875	0.412841796875	1	upper	zerothre.ttf
967740	WORD	wordpools/wasnorm_wordpool_less_exclusions.txt	LTP184	ltpFR	16	7	1	KNUCKLE	789	n/a	n/a	0	0.57763671875	0.412841796875	1	upper	zerothre.ttf
971655	WORD	wordpools/wasnorm_wordpool_less_exclusions.txt	LTP184	ltpFR	16	7	1	STUMP	1396	n/a	n/a	0	0.57763671875	0.412841796875	1	upper	zerothre.ttf
975814	WORD	wordpools/wasnorm_wordpool_less_exclusions.txt	LTP184	ltpFR	16	7	1	MALL	860	n/a	n/a	0	0.57763671875	0.412841796875	1	upper	zerothre.ttf
979813	WORD	wordpools/wasnorm_wordpool_less_exclusions.txt	LTP184	ltpFR	16	7	0	VEST	1559	n/a	n/a	0	0.422607421875	0.5869140625	0	lower	amplitud.ttf
983700	WORD	wordpools/wasnorm_wordpool_less_exclusions.txt	LTP184	ltpFR	16	7	0	TROUSERS	1510	n/a	n/a	0	0.422607421875	0.5869140625	0	lower	amplitud.ttf
987642	WORD	wordpools/wasnorm_wordpool_less_exclusions.txt	LTP184	ltpFR	16	7	1	RACCOON	1153	n/a	n/a	1	0.57763671875	0.412841796875	1	upper	zerothre.ttf
991597	WORD	wordpools/wasnorm_wordpool_less_exclusions.txt	LTP184	ltpFR	16	7	1	PATRIOT	1026	n/a	n/a	1	0.57763671875	0.412841796875	1	upper	zerothre.ttf
995645	WORD	wordpools/wasnorm_wordpool_less_exclusions.txt	LTP184	ltpFR	16	7	0	OZONE	996	n/a	n/a	1	0.422607421875	0.5869140625	0	lower	amplitud.ttf
999744	WORD	wordpools/wasnorm_wordpool_less_exclusions.txt	LTP184	ltpFR	16	7	0	BUFFALO	186	n/a	n/a	1	0.422607421875	0.5869140625	0	lower	amplitud.ttf
1003759	WORD	wordpools/wasnorm_wordpool_less_exclusions.txt	LTP184	ltpFR	16	7	0	FARM	552	n/a	n/a	1	0.422607421875	0.5869140625	0	lower	amplitud.ttf
1007634	WORD	wordpools/wasnorm_wordpool_less_exclusions.txt	LTP184	ltpFR	16	7	0	HOE	711	n/a	n/a	1	0.422607421875	0.5869140625	0	lower	amplitud.ttf
1011823	WORD	wordpools/wasnorm_wordpool_less_exclusions.txt	LTP184	ltpFR	16	7	0	GLOVE	642	n/a	n/a	0	0.422607421875	0.5869140625	0	lower	amplitud.ttf
1015782	WORD	wordpools/wasnorm_wordpool_less_exclusions.txt	LTP184	ltpFR	16	7	0	MONGOOSE	909	n/a	n/a	1	0.422607421875	0.5869140625	0	lower	amplitud.ttf
1021605	REC_START	n/a	LTP184	ltpFR	16	7	n/a	n/a	n/a	n/a	n/a	n/a	n/a	n/a	n/a	n/a	n/a
1022164	REC_WORD	wordpools/wasnorm_wordpool_less_exclusions.txt	LTP184	ltpFR	16	7	0	OZONE	996	n/a	n/a	1	n/a	n/a	n/a	n/a	n/a
1022742	REC_WORD	wordpools/wasnorm_wordpool_less_exclusions.txt	LTP184	ltpFR	16	7	0	BUFFALO	186	n/a	n/a	1	n/a	n/a	n/a	n/a	n/a
1025101	REC_WORD	wordpools/wasnorm_wordpool_less_exclusions.txt	LTP184	ltpFR	16	7	0	FARM	552	n/a	n/a	1	n/a	n/a	n/a	n/a	n/a
1025861	REC_WORD	wordpools/wasnorm_wordpool_less_exclusions.txt	LTP184	ltpFR	16	7	0	MONGOOSE	909	n/a	n/a	1	n/a	n/a	n/a	n/a	n/a
1026861	REC_WORD_VV	wordpools/wasnorm_wordpool_less_exclusions.txt	LTP184	ltpFR	16	7	n/a	<>	-1	n/a	n/a	n/a	n/a	n/a	n/a	n/a	n/a
1040930	REC_WORD	wordpools/wasnorm_wordpool_less_exclusions.txt	LTP184	ltpFR	16	7	0	HANGER	687	n/a	n/a	0	n/a	n/a	n/a	n/a	n/a
1050828	REC_WORD	wordpools/wasnorm_wordpool_less_exclusions.txt	LTP184	ltpFR	16	7	1	CONDUCTOR	362	n/a	n/a	1	n/a	n/a	n/a	n/a	n/a
1061998	REC_WORD	wordpools/wasnorm_wordpool_less_exclusions.txt	LTP184	ltpFR	16	7	1	COLESLAW	344	n/a	n/a	0	n/a	n/a	n/a	n/a	n/a
1068294	REC_WORD	wordpools/wasnorm_wordpool_less_exclusions.txt	LTP184	ltpFR	16	7	0	MONGOOSE	909	n/a	n/a	1	n/a	n/a	n/a	n/a	n/a
1072030	REC_WORD	wordpools/wasnorm_wordpool_less_exclusions.txt	LTP184	ltpFR	16	7	n/a	WRIST	1626	n/a	n/a	n/a	n/a	n/a	n/a	n/a	n/a
1110379	WORD	wordpools/wasnorm_wordpool_less_exclusions.txt	LTP184	ltpFR	16	8	-1	BRUNETTE	181	n/a	n/a	-1	1.0	1.0	1	upper	Verdana.ttf
1114310	WORD	wordpools/wasnorm_wordpool_less_exclusions.txt	LTP184	ltpFR	16	8	-1	POT	1114	n/a	n/a	-1	1.0	1.0	1	upper	Verdana.ttf
1118435	WORD	wordpools/wasnorm_wordpool_less_exclusions.txt	LTP184	ltpFR	16	8	-1	PAN	1008	n/a	n/a	-1	1.0	1.0	1	upper	Verdana.ttf
1122318	WORD	wordpools/wasnorm_wordpool_less_exclusions.txt	LTP184	ltpFR	16	8	-1	CHAIR	274	n/a	n/a	-1	1.0	1.0	1	upper	Verdana.ttf
1126188	WORD	wordpools/wasnorm_wordpool_less_exclusions.txt	LTP184	ltpFR	16	8	-1	ARM	38	n/a	n/a	-1	1.0	1.0	1	upper	Verdana.ttf
1130231	WORD	wordpools/wasnorm_wordpool_less_exclusions.txt	LTP184	ltpFR	16	8	-1	ASTEROID	50	n/a	n/a	-1	1.0	1.0	1	upper	Verdana.ttf
1134286	WORD	wordpools/wasnorm_wordpool_less_exclusions.txt	LTP184	ltpFR	16	8	-1	HIKER	708	n/a	n/a	-1	1.0	1.0	1	upper	Verdana.ttf
1138433	WORD	wordpools/wasnorm_wordpool_less_exclusions.txt	LTP184	ltpFR	16	8	-1	OMELET	976	n/a	n/a	-1	1.0	1.0	1	upper	Verdana.ttf
1142426	WORD	wordpools/wasnorm_wordpool_less_exclusions.txt	LTP184	ltpFR	16	8	-1	FRIES	607	n/a	n/a	-1	1.0	1.0	1	upper	Verdana.ttf
1146581	WORD	wordpools/wasnorm_wordpool_less_exclusions.txt	LTP184	ltpFR	16	8	-1	FLASK	576	n/a	n/a	-1	1.0	1.0	1	upper	Verdana.ttf
1150640	WORD	wordpools/wasnorm_wordpool_less_exclusions.txt	LTP184	ltpFR	16	8	-1	JUG	762	n/a	n/a	-1	1.0	1.0	1	upper	Verdana.ttf
1154711	WORD	wordpools/wasnorm_wordpool_less_exclusions.txt	LTP184	ltpFR	16	8	-1	BARK	87	n/a	n/a	-1	1.0	1.0	1	upper	Verdana.ttf
1158553	WORD	wordpools/wasnorm_wordpool_less_exclusions.txt	LTP184	ltpFR	16	8	-1	SHEPHERD	1283	n/a	n/a	-1	1.0	1.0	1	upper	Verdana.ttf
1162541	WORD	wordpools/wasnorm_wordpool_less_exclusions.txt	LTP184	ltpFR	16	8	-1	LADDER	793	n/a	n/a	-1	1.0	1.0	1	upper	Verdana.ttf
1166407	WORD	wordpools/wasnorm_wordpool_less_exclusions.txt	LTP184	ltpFR	16	8	-1	BACON	67	n/a	n/a	-1	1.0	1.0	1	upper	Verdana.ttf
1170365	WORD	wordpools/wasnorm_wordpool_less_exclusions.txt	LTP184	ltpFR	16	8	-1	MOON	914	n/a	n/a	-1	1.0	1.0	1	upper	Verdana.ttf
1176471	REC_START	n/a	LTP184	ltpFR	16	8	n/a	n/a	n/a	n/a	n/a	n/a	n/a	n/a	n/a	n/a	n/a
1176830	REC_WORD	wordpools/wasnorm_wordpool_less_exclusions.txt	LTP184	ltpFR	16	8	-1	MOON	914	n/a	n/a	-1	n/a	n/a	n/a	n/a	n/a
1177250	REC_WORD	wordpools/wasnorm_wordpool_less_exclusions.txt	LTP184	ltpFR	16	8	-1	ASTEROID	50	n/a	n/a	-1	n/a	n/a	n/a	n/a	n/a
1178025	REC_WORD	wordpools/wasnorm_wordpool_less_exclusions.txt	LTP184	ltpFR	16	8	-1	HIKER	708	n/a	n/a	-1	n/a	n/a	n/a	n/a	n/a
1179060	REC_WORD	wordpools/wasnorm_wordpool_less_exclusions.txt	LTP184	ltpFR	16	8	-1	BACON	67	n/a	n/a	-1	n/a	n/a	n/a	n/a	n/a
1179938	REC_WORD	wordpools/wasnorm_wordpool_less_exclusions.txt	LTP184	ltpFR	16	8	-1	POT	1114	n/a	n/a	-1	n/a	n/a	n/a	n/a	n/a
1180626	REC_WORD	wordpools/wasnorm_wordpool_less_exclusions.txt	LTP184	ltpFR	16	8	-1	PAN	1008	n/a	n/a	-1	n/a	n/a	n/a	n/a	n/a
1183285	REC_WORD	wordpools/wasnorm_wordpool_less_exclusions.txt	LTP184	ltpFR	16	8	-1	ARM	38	n/a	n/a	-1	n/a	n/a	n/a	n/a	n/a
1184059	REC_WORD	wordpools/wasnorm_wordpool_less_exclusions.txt	LTP184	ltpFR	16	8	-1	CHAIR	274	n/a	n/a	-1	n/a	n/a	n/a	n/a	n/a
1196266	REC_WORD	wordpools/wasnorm_wordpool_less_exclusions.txt	LTP184	ltpFR	16	8	-1	OMELET	976	n/a	n/a	-1	n/a	n/a	n/a	n/a	n/a
1197014	REC_WORD	wordpools/wasnorm_wordpool_less_exclusions.txt	LTP184	ltpFR	16	8	-1	FRIES	607	n/a	n/a	-1	n/a	n/a	n/a	n/a	n/a
1197912	REC_WORD	wordpools/wasnorm_wordpool_less_exclusions.txt	LTP184	ltpFR	16	8	-1	BACON	67	n/a	n/a	-1	n/a	n/a	n/a	n/a	n/a
1232074	REC_WORD	wordpools/wasnorm_wordpool_less_exclusions.txt	LTP184	ltpFR	16	8	-1	JUG	762	n/a	n/a	-1	n/a	n/a	n/a	n/a	n/a
1235407	REC_WORD	wordpools/wasnorm_wordpool_less_exclusions.txt	LTP184	ltpFR	16	8	-1	FLASK	576	n/a	n/a	-1	n/a	n/a	n/a	n/a	n/a
1256346	WORD	wordpools/wasnorm_wordpool_less_exclusions.txt	LTP184	ltpFR	16	9	1	TERMINAL	1450	n/a	n/a	0	0.57763671875	0.412841796875	1	upper	zerothre.ttf
1260227	WORD	wordpools/wasnorm_wordpool_less_exclusions.txt	LTP184	ltpFR	16	9	1	EDITOR	516	n/a	n/a	1	0.57763671875	0.412841796875	1	upper	zerothre.ttf
1264134	WORD	wordpools/wasnorm_wordpool_less_exclusions.txt	LTP184	ltpFR	16	9	1	JOURNAL	760	n/a	n/a	0	0.57763671875	0.412841796875	1	upper	zerothre.ttf
1268173	WORD	wordpools/wasnorm_wordpool_less_exclusions.txt	LTP184	ltpFR	16	9	1	HOOP	716	n/a	n/a	0	0.57763671875	0.412841796875	1	upper	zerothre.ttf
1272232	WORD	wordpools/wasnorm_wordpool_less_exclusions.txt	LTP184	ltpFR	16	9	1	MOTOR	922	n/a	n/a	0	0.57763671875	0.412841796875	1	upper	zerothre.ttf
1276298	WORD	wordpools/wasnorm_wordpool_less_exclusions.txt	LTP184	ltpFR	16	9	1	ROOM	1206	n/a	n/a	0	0.57763671875	0.412841796875	1	upper	zerothre.ttf
1280263	WORD	wordpools/wasnorm_wordpool_less_exclusions.txt	LTP184	ltpFR	16	9	1	CHAMPAGNE	278	n/a	n/a	0	0.57763671875	0.412841796875	1	upper	zerothre.ttf
1284284	WORD	wordpools/wasnorm_wordpool_less_exclusions.txt	LTP184	ltpFR	16	9	1	VINE	1568	n/a	n/a	0	0.57763671875	0.412841796875	1	upper	zerothre.ttf
1288393	WORD	wordpools/wasnorm_wordpool_less_exclusions.txt	LTP184	ltpFR	16	9	1	PILOT	1070	n/a	n/a	1	0.57763671875	0.412841796875	1	upper	zerothre.ttf
1292458	WORD	wordpools/wasnorm_wordpool_less_exclusions.txt	LTP184	ltpFR	16	9	1	MISTER	901	n/a	n/a	1	0.57763671875	0.412841796875	1	upper	zerothre.ttf
1296563	WORD	wordpools/wasnorm_wordpool_less_exclusions.txt	LTP184	ltpFR	16	9	1	GOVERNOR	651	n/a	n/a	1	0.57763671875	0.412841796875	1	upper	zerothre.ttf
1300395	WORD	wordpools/wasnorm_wordpool_less_exclusions.txt	LTP184	ltpFR	16	9	1	TRIANGLE	1504	n/a	n/a	0	0.57763671875	0.412841796875	1	upper	zerothre.ttf
1304476	WORD	wordpools/wasnorm_wordpool_less_exclusions.txt	LTP184	ltpFR	16	9	1	ENVELOPE	537	n/a	n/a	0	0.57763671875	0.412841796875	1	upper	zerothre.ttf
1308625	WORD	wordpools/wasnorm_wordpool_less_exclusions.txt	LTP184	ltpFR	16	9	1	BUYER	208	n/a	n/a	1	0.57763671875	0.412841796875	1	upper	zerothre.ttf
1312517	WORD	wordpools/wasnorm_wordpool_less_exclusions.txt	LTP184	ltpFR	16	9	1	ITEM	746	n/a	n/a	0	0.57763671875	0.412841796875	1	upper	zerothre.ttf
1316355	WORD	wordpools/wasnorm_wordpool_less_exclusions.txt	LTP184	ltpFR	16	9	1	MOTEL	919	n/a	n/a	0	0.57763671875	0.412841796875	1	upper	zerothre.ttf
1322172	REC_START	n/a	LTP184	ltpFR	16	9	n/a	n/a	n/a	n/a	n/a	n/a	n/a	n/a	n/a	n/a	n/a
1322700	REC_WORD_VV	wordpools/wasnorm_wordpool_less_exclusions.txt	LTP184	ltpFR	16	9	n/a	<>	-1	n/a	n/a	n/a	n/a	n/a	n/a	n/a	n/a
1323010	REC_WORD	wordpools/wasnorm_wordpool_less_exclusions.txt	LTP184	ltpFR	16	9	1	ENVELOPE	537	n/a	n/a	0	n/a	n/a	n/a	n/a	n/a
1323746	REC_WORD_VV	wordpools/wasnorm_wordpool_less_exclusions.txt	LTP184	ltpFR	16	9	n/a	<>	-1	n/a	n/a	n/a	n/a	n/a	n/a	n/a	n/a
1324262	REC_WORD	wordpools/wasnorm_wordpool_less_exclusions.txt	LTP184	ltpFR	16	9	1	MOTEL	919	n/a	n/a	0	n/a	n/a	n/a	n/a	n/a
1325135	REC_WORD	wordpools/wasnorm_wordpool_less_exclusions.txt	LTP184	ltpFR	16	9	1	ITEM	746	n/a	n/a	0	n/a	n/a	n/a	n/a	n/a
1326407	REC_WORD	wordpools/wasnorm_wordpool_less_exclusions.txt	LTP184	ltpFR	16	9	1	MISTER	901	n/a	n/a	1	n/a	n/a	n/a	n/a	n/a
1327081	REC_WORD	wordpools/wasnorm_wordpool_less_exclusions.txt	LTP184	ltpFR	16	9	1	PILOT	1070	n/a	n/a	1	n/a	n/a	n/a	n/a	n/a
1327874	REC_WORD	wordpools/wasnorm_wordpool_less_exclusions.txt	LTP184	ltpFR	16	9	1	GOVERNOR	651	n/a	n/a	1	n/a	n/a	n/a	n/a	n/a
1334110	REC_WORD	wordpools/wasnorm_wordpool_less_exclusions.txt	LTP184	ltpFR	16	9	-1	BRUNETTE	181	n/a	n/a	-1	n/a	n/a	n/a	n/a	n/a
1339822	REC_WORD	wordpools/wasnorm_wordpool_less_exclusions.txt	LTP184	ltpFR	16	9	0	BOX	159	n/a	n/a	0	n/a	n/a	n/a	n/a	n/a
1342402	REC_WORD_VV	wordpools/wasnorm_wordpool_less_exclusions.txt	LTP184	ltpFR	16	9	n/a	<>	-1	n/a	n/a	n/a	n/a	n/a	n/a	n/a	n/a
1343402	REC_WORD_VV	wordpools/wasnorm_wordpool_less_exclusions.txt	LTP184	ltpFR	16	9	n/a	<>	-1	n/a	n/a	n/a	n/a	n/a	n/a	n/a	n/a
1388685	REC_WORD	wordpools/wasnorm_wordpool_less_exclusions.txt	LTP184	ltpFR	16	9	1	HOOP	716	n/a	n/a	0	n/a	n/a	n/a	n/a	n/a
1400983	WORD	wordpools/wasnorm_wordpool_less_exclusions.txt	LTP184	ltpFR	16	10	1	BISON	131	n/a	n/a	1	0.57763671875	0.412841796875	1	upper	zerothre.ttf
1404904	WORD	wordpools/wasnorm_wordpool_less_exclusions.txt	LTP184	ltpFR	16	10	1	LIZARD	834	n/a	n/a	1	0.57763671875	0.412841796875	1	upper	zerothre.ttf
1408986	WORD	wordpools/wasnorm_wordpool_less_exclusions.txt	LTP184	ltpFR	16	10	1	TEAPOT	1442	n/a	n/a	0	0.57763671875	0.412841796875	1	upper	zerothre.ttf
1412878	WORD	wordpools/wasnorm_wordpool_less_exclusions.txt	LTP184	ltpFR	16	10	1	PUCK	1138	n/a	n/a	0	0.57763671875	0.412841796875	1	upper	zerothre.ttf
1416977	WORD	wordpools/wasnorm_wordpool_less_exclusions.txt	LTP184	ltpFR	16	10	1	TELEVISION	1447	n/a	n/a	0	0.57763671875	0.412841796875	1	upper	zerothre.ttf
1421115	WORD	wordpools/wasnorm_wordpool_less_exclusions.txt	LTP184	ltpFR	16	10	1	CABLE	213	n/a	n/a	0	0.57763671875	0.412841796875	1	upper	zerothre.ttf
1424963	WORD	wordpools/wasnorm_wordpool_less_exclusions.txt	LTP184	ltpFR	16	10	1	CROSS	413	n/a	n/a	0	0.57763671875	0.412841796875	1	upper	zerothre.ttf
1429079	WORD	wordpools/wasnorm_wordpool_less_exclusions.txt	LTP184	ltpFR	16	10	1	SCOUT	1252	n/a	n/a	1	0.57763671875	0.412841796875	1	upper	zerothre.ttf
1433044	WORD	wordpools/wasnorm_wordpool_less_exclusions.txt	LTP184	ltpFR	16	10	1	CHECKERS	285	n/a	n/a	0	0.57763671875	0.412841796875	1	upper	zerothre.ttf
1437126	WORD	wordpools/wasnorm_wordpool_less_exclusions.txt	LTP184	ltpFR	16	10	1	RACKET	1155	n/a	n/a	0	0.57763671875	0.412841796875	1	upper	zerothre.ttf
1441101	WORD	wordpools/wasnorm_wordpool_less_exclusions.txt	LTP184	ltpFR	16	10	1	PREACHER	1119	n/a	n/a	1	0.57763671875	0.412841796875	1	upper	zerothre.ttf
1445033	WORD	wordpools/wasnorm_wordpool_less_exclusions.txt	LTP184	ltpFR	16	10	1	BOY	161	n/a	n/a	1	0.57763671875	0.412841796875	1	upper	zerothre.ttf
1449087	WORD	wordpools/wasnorm_wordpool_less_exclusions.txt	LTP184	ltpFR	16	10	1	SCULPTURE	1258	n/a	n/a	0	0.57763671875	0.412841796875	1	upper	zerothre.ttf
1453221	WORD	wordpools/wasnorm_wordpool_less_exclusions.txt	LTP184	ltpFR	16	10	1	STATUE	1374	n/a	n/a	0	0.57763671875	0.412841796875	1	upper	zerothre.ttf
1457397	WORD	wordpools/wasnorm_wordpool_less_exclusions.txt	LTP184	ltpFR	16	10	1	PLAYGROUND	1087	n/a	n/a	0	0.57763671875	0.412841796875	1	upper	zerothre.ttf
1461461	WORD	wordpools/wasnorm_wordpool_less_exclusions.txt	LTP184	ltpFR	16	10	1	DETECTIVE	454	n/a	n/a	1	0.57763671875	0.412841796875	1	upper	zerothre.ttf
1467225	REC_START	n/a	LTP184	ltpFR	16	10	n/a	n/a	n/a	n/a	n/a	n/a	n/a	n/a	n/a	n/a	n/a
1467559	REC_WORD	wordpools/wasnorm_wordpool_less_exclusions.txt	LTP184	ltpFR	16	10	1	DETECTIVE	454	n/a	n/a	1	n/a	n/a	n/a	n/a	n/a
1468696	REC_WORD	wordpools/wasnorm_wordpool_less_exclusions.txt	LTP184	ltpFR	16	10	1	PLAYGROUND	1087	n/a	n/a	0	n/a	n/a	n/a	n/a	n/a
1469364	REC_WORD	wordpools/wasnorm_wordpool_less_exclusions.txt	LTP184	ltpFR	16	10	1	SCULPTURE	1258	n/a	n/a	0	n/a	n/a	n/a	n/a	n/a
1470038	REC_WORD	wordpools/wasnorm_wordpool_less_exclusions.txt	LTP184	ltpFR	16	10	1	STATUE	1374	n/a	n/a	0	n/a	n/a	n/a	n/a	n/a
1473959	REC_WORD	wordpools/wasnorm_wordpool_less_exclusions.txt	LTP184	ltpFR	16	10	1	BOY	161	n/a	n/a	1	n/a	n/a	n/a	n/a	n/a
1477137	REC_WORD	wordpools/wasnorm_wordpool_less_exclusions.txt	LTP184	ltpFR	16	10	1	BISON	131	n/a	n/a	1	n/a	n/a	n/a	n/a	n/a
1477895	REC_WORD	wordpools/wasnorm_wordpool_less_exclusions.txt	LTP184	ltpFR	16	10	1	LIZARD	834	n/a	n/a	1	n/a	n/a	n/a	n/a	n/a
1499995	REC_WORD	wordpools/wasnorm_wordpool_less_exclusions.txt	LTP184	ltpFR	16	10	-1	BRUNETTE	181	n/a	n/a	-1	n/a	n/a	n/a	n/a	n/a
1512063	REC_WORD	wordpools/wasnorm_wordpool_less_exclusions.txt	LTP184	ltpFR	16	10	0	BRACELET	163	n/a	n/a	0	n/a	n/a	n/a	n/a	n/a
1546538	WORD	wordpools/wasnorm_wordpool_less_exclusions.txt	LTP184	ltpFR	16	11	0	RAG	1160	n/a	n/a	0	0.422607421875	0.5869140625	0	lower	amplitud.ttf
1550513	WORD	wordpools/wasnorm_wordpool_less_exclusions.txt	LTP184	ltpFR	16	11	0	PARROT	1015	n/a	n/a	0	0.422607421875	0.5869140625	0	lower	amplitud.ttf
1554736	WORD	wordpools/wasnorm_wordpool_less_exclusions.txt	LTP184	ltpFR	16	11	0	RABBIT	1152	n/a	n/a	0	0.422607421875	0.5869140625	0	lower	amplitud.ttf
1558717	WORD	wordpools/wasnorm_wordpool_less_exclusions.txt	LTP184	ltpFR	16	11	0	MULE	931	n/a	n/a	1	0.422607421875	0.5869140625	0	lower	amplitud.ttf
1562749	WORD	wordpools/wasnorm_wordpool_less_exclusions.txt	LTP184	ltpFR	16	11	0	MOSQUITO	917	n/a	n/a	0	0.422607421875	0.5869140625	0	lower	amplitud.ttf
1566781	WORD	wordpools/wasnorm_wordpool_less_exclusions.txt	LTP184	ltpFR	16	11	1	LABYRINTH	791	n/a	n/a	0	0.57763671875	0.412841796875	1	upper	zerothre.ttf
1570890	WORD	wordpools/wasnorm_wordpool_less_exclusions.txt	LTP184	ltpFR	16	11	1	OATS	968	n/a	n/a	0	0.57763671875	0.412841796875	1	upper	zerothre.ttf
1575023	WORD	wordpools/wasnorm_wordpool_less_exclusions.txt	LTP184	ltpFR	16	11	1	SUNRISE	1407	n/a	n/a	0	0.57763671875	0.412841796875	1	upper	zerothre.ttf
1579071	WORD	wordpools/wasnorm_wordpool_less_exclusions.txt	LTP184	ltpFR	16	11	1	WAND	1586	n/a	n/a	0	0.57763671875	0.412841796875	1	upper	zerothre.ttf
1583059	WORD	wordpools/wasnorm_wordpool_less_exclusions.txt	LTP184	ltpFR	16	11	0	PUZZLE	1146	n/a	n/a	0	0.422607421875	0.5869140625	0	lower	amplitud.ttf
1587085	WORD	wordpools/wasnorm_wordpool_less_exclusions.txt	LTP184	ltpFR	16	11	0	HEDGE	699	n/a	n/a	0	0.422607421875	0.5869140625	0	lower	amplitud.ttf
1591291	WORD	wordpools/wasnorm_wordpool_less_exclusions.txt	LTP184	ltpFR	16	11	0	VASE	1549	n/a	n/a	0	0.422607421875	0.5869140625	0	lower	amplitud.ttf
1595300	WORD	wordpools/wasnorm_wordpool_less_exclusions.txt	LTP184	ltpFR	16	11	1	DOVE	491	n/a	n/a	1	0.57763671875	0.412841796875	1	upper	zerothre.ttf
1599188	WORD	wordpools/wasnorm_wordpool_less_exclusions.txt	LTP184	ltpFR	16	11	1	EAGLE	512	n/a	n/a	1	0.57763671875	0.412841796875	1	upper	zerothre.ttf
1603303	WORD	wordpools/wasnorm_wordpool_less_exclusions.txt	LTP184	ltpFR	16	11	1	ANTEATER	26	n/a	n/a	1	0.57763671875	0.412841796875	1	upper	zerothre.ttf
1607251	WORD	wordpools/wasnorm_wordpool_less_exclusions.txt	LTP184	ltpFR	16	11	1	FOX	598	n/a	n/a	1	0.57763671875	0.412841796875	1	upper	zerothre.ttf
1613117	REC_START	n/a	LTP184	ltpFR	16	11	n/a	n/a	n/a	n/a	n/a	n/a	n/a	n/a	n/a	n/a	n/a
1613451	REC_WORD	wordpools/wasnorm_wordpool_less_exclusions.txt	LTP184	ltpFR	16	11	1	SUNRISE	1407	n/a	n/a	0	n/a	n/a	n/a	n/a	n/a
1614299	REC_WORD	wordpools/wasnorm_wordpool_less_exclusions.txt	LTP184	ltpFR	16	11	1	WAND	1586	n/a	n/a	0	n/a	n/a	n/a	n/a	n/a
1616649	REC_WORD	wordpools/wasnorm_wordpool_less_exclusions.txt	LTP184	ltpFR	16	11	1	FOX	598	n/a	n/a	1	n/a	n/a	n/a	n/a	n/a
1617547	REC_WORD	wordpools/wasnorm_wordpool_less_exclusions.txt	LTP184	ltpFR	16	11	1	ANTEATER	26	n/a	n/a	1	n/a	n/a	n/a	n/a	n/a
1619163	REC_WORD	wordpools/wasnorm_wordpool_less_exclusions.txt	LTP184	ltpFR	16	11	1	BISON	131	n/a	n/a	1	n/a	n/a	n/a	n/a	n/a
1621922	REC_WORD	wordpools/wasnorm_wordpool_less_exclusions.txt	LTP184	ltpFR	16	11	0	MOSQUITO	917	n/a	n/a	0	n/a	n/a	n/a	n/a	n/a
1627160	REC_WORD	wordpools/wasnorm_wordpool_less_exclusions.txt	LTP184	ltpFR	16	11	0	OLIVE	975	n/a	n/a	0	n/a	n/a	n/a	n/a	n/a
1641327	REC_WORD	wordpools/wasnorm_wordpool_less_exclusions.txt	LTP184	ltpFR	16	11	1	SUNRISE	1407	n/a	n/a	0	n/a	n/a	n/a	n/a	n/a
1651504	REC_WORD	wordpools/wasnorm_wordpool_less_exclusions.txt	LTP184	ltpFR	16	11	n/a	FOG	-1	n/a	n/a	n/a	n/a	n/a	n/a	n/a	n/a
1673904	REC_WORD	wordpools/wasnorm_wordpool_less_exclusions.txt	LTP184	ltpFR	16	11	0	RABBIT	1152	n/a	n/a	0	n/a	n/a	n/a	n/a	n/a
1675904	REC_WORD	wordpools/wasnorm_wordpool_less_exclusions.txt	LTP184	ltpFR	16	11	0	PARROT	1015	n/a	n/a	0	n/a	n/a	n/a	n/a	n/a
1692934	WORD	wordpools/wasnorm_wordpool_less_exclusions.txt	LTP184	ltpFR	16	12	-1	SCOTCH	1251	n/a	n/a	-1	1.0	1.0	1	upper	Verdana.ttf
1696888	WORD	wordpools/wasnorm_wordpool_less_exclusions.txt	LTP184	ltpFR	16	12	-1	CORK	380	n/a	n/a	-1	1.0	1.0	1	upper	Verdana.ttf
1701070	WORD	wordpools/wasnorm_wordpool_less_exclusions.txt	LTP184	ltpFR	16	12	-1	LIMOUSINE	824	n/a	n/a	-1	1.0	1.0	1	upper	Verdana.ttf
1705052	WORD	wordpools/wasnorm_wordpool_less_exclusions.txt	LTP184	ltpFR	16	12	-1	DOCUMENT	479	n/a	n/a	-1	1.0	1.0	1	upper	Verdana.ttf
1708883	WORD	wordpools/wasnorm_wordpool_less_exclusions.txt	LTP184	ltpFR	16	12	-1	STEP	1377	n/a	n/a	-1	1.0	1.0	1	upper	Verdana.ttf
1712882	WORD	wordpools/wasnorm_wordpool_less_exclusions.txt	LTP184	ltpFR	16	12	-1	ESCALATOR	539	n/a	n/a	-1	1.0	1.0	1	upper	Verdana.ttf
1716813	WORD	wordpools/wasnorm_wordpool_less_exclusions.txt	LTP184	ltpFR	16	12	-1	WEED	1599	n/a	n/a	-1	1.0	1.0	1	upper	Verdana.ttf
1720839	WORD	wordpools/wasnorm_wordpool_less_exclusions.txt	LTP184	ltpFR	16	12	-1	EGG	518	n/a	n/a	-1	1.0	1.0	1	upper	Verdana.ttf
1725061	WORD	wordpools/wasnorm_wordpool_less_exclusions.txt	LTP184	ltpFR	16	12	-1	FRAGRANCE	599	n/a	n/a	-1	1.0	1.0	1	upper	Verdana.ttf
1729009	WORD	wordpools/wasnorm_wordpool_less_exclusions.txt	LTP184	ltpFR	16	12	-1	BULB	192	n/a	n/a	-1	1.0	1.0	1	upper	Verdana.ttf
1733192	WORD	wordpools/wasnorm_wordpool_less_exclusions.txt	LTP184	ltpFR	16	12	-1	CUBE	420	n/a	n/a	-1	1.0	1.0	1	upper	Verdana.ttf
1737218	WORD	wordpools/wasnorm_wordpool_less_exclusions.txt	LTP184	ltpFR	16	12	-1	CYLINDER	432	n/a	n/a	-1	1.0	1.0	1	upper	Verdana.ttf
1741088	WORD	wordpools/wasnorm_wordpool_less_exclusions.txt	LTP184	ltpFR	16	12	-1	LASER	801	n/a	n/a	-1	1.0	1.0	1	upper	Verdana.ttf
1744936	WORD	wordpools/wasnorm_wordpool_less_exclusions.txt	LTP184	ltpFR	16	12	-1	RAKE	1164	n/a	n/a	-1	1.0	1.0	1	upper	Verdana.ttf
1748951	WORD	wordpools/wasnorm_wordpool_less_exclusions.txt	LTP184	ltpFR	16	12	-1	BREAST	171	n/a	n/a	-1	1.0	1.0	1	upper	Verdana.ttf
1752832	WORD	wordpools/wasnorm_wordpool_less_exclusions.txt	LTP184	ltpFR	16	12	-1	HOSE	720	n/a	n/a	-1	1.0	1.0	1	upper	Verdana.ttf
1758538	REC_START	n/a	LTP184	ltpFR	16	12	n/a	n/a	n/a	n/a	n/a	n/a	n/a	n/a	n/a	n/a	n/a
1759156	REC_WORD	wordpools/wasnorm_wordpool_less_exclusions.txt	LTP184	ltpFR	16	12	-1	LASER	801	n/a	n/a	-1	n/a	n/a	n/a	n/a	n/a
1759859	REC_WORD	wordpools/wasnorm_wordpool_less_exclusions.txt	LTP184	ltpFR	16	12	-1	RAKE	1164	n/a	n/a	-1	n/a	n/a	n/a	n/a	n/a
1760410	REC_WORD	wordpools/wasnorm_wordpool_less_exclusions.txt	LTP184	ltpFR	16	12	-1	HOSE	720	n/a	n/a	-1	n/a	n/a	n/a	n/a	n/a
1761077	REC_WORD	wordpools/wasnorm_wordpool_less_exclusions.txt	LTP184	ltpFR	16	12	-1	BREAST	171	n/a	n/a	-1	n/a	n/a	n/a	n/a	n/a
1767876	REC_WORD	wordpools/wasnorm_wordpool_less_exclusions.txt	LTP184	ltpFR	16	12	-1	SCOTCH	1251	n/a	n/a	-1	n/a	n/a	n/a	n/a	n/a
1768876	REC_WORD_VV	wordpools/wasnorm_wordpool_less_exclusions.txt	LTP184	ltpFR	16	12	n/a	<>	-1	n/a	n/a	n/a	n/a	n/a	n/a	n/a	n/a
1775040	REC_WORD	wordpools/wasnorm_wordpool_less_exclusions.txt	LTP184	ltpFR	16	12	1	CHAMPAGNE	278	n/a	n/a	0	n/a	n/a	n/a	n/a	n/a
1776040	REC_WORD_VV	wordpools/wasnorm_wordpool_less_exclusions.txt	LTP184	ltpFR	16	12	n/a	<>	-1	n/a	n/a	n/a	n/a	n/a	n/a	n/a	n/a
1779939	REC_WORD	wordpools/wasnorm_wordpool_less_exclusions.txt	LTP184	ltpFR	16	12	-1	CORK	380	n/a	n/a	-1	n/a	n/a	n/a	n/a	n/a
1781690	REC_WORD	wordpools/wasnorm_wordpool_less_exclusions.txt	LTP184	ltpFR	16	12	-1	LIMOUSINE	824	n/a	n/a	-1	n/a	n/a	n/a	n/a	n/a
1782419	REC_WORD	wordpools/wasnorm_wordpool_less_exclusions.txt	LTP184	ltpFR	16	12	-1	DOCUMENT	479	n/a	n/a	-1	n/a	n/a	n/a	n/a	n/a
1834190	REST_REWET	n/a	LTP184	ltpFR	16	12	n/a	n/a	n/a	n/a	n/a	n/a	n/a	n/a	n/a	n/a	n/a
2087035	WORD	wordpools/wasnorm_wordpool_less_exclusions.txt	LTP184	ltpFR	16	13	1	SHORTS	1293	n/a	n/a	0	0.57763671875	0.412841796875	1	upper	zerothre.ttf
2091117	WORD	wordpools/wasnorm_wordpool_less_exclusions.txt	LTP184	ltpFR	16	13	1	COAT	333	n/a	n/a	0	0.57763671875	0.412841796875	1	upper	zerothre.ttf
2095200	WORD	wordpools/wasnorm_wordpool_less_exclusions.txt	LTP184	ltpFR	16	13	0	STAMP	1370	n/a	n/a	0	0.422607421875	0.5869140625	0	lower	amplitud.ttf
2099121	WORD	wordpools/wasnorm_wordpool_less_exclusions.txt	LTP184	ltpFR	16	13	0	MAILBOX	857	n/a	n/a	0	0.422607421875	0.5869140625	0	lower	amplitud.ttf
2103187	WORD	wordpools/wasnorm_wordpool_less_exclusions.txt	LTP184	ltpFR	16	13	0	THUMB	1462	n/a	n/a	0	0.422607421875	0.5869140625	0	lower	amplitud.ttf
2107084	WORD	wordpools/wasnorm_wordpool_less_exclusions.txt	LTP184	ltpFR	16	13	0	MAP	865	n/a	n/a	0	0.422607421875	0.5869140625	0	lower	amplitud.ttf
2111161	WORD	wordpools/wasnorm_wordpool_less_exclusions.txt	LTP184	ltpFR	16	13	1	SNAIL	1332	n/a	n/a	1	0.57763671875	0.412841796875	1	upper	zerothre.ttf
2115259	WORD	wordpools/wasnorm_wordpool_less_exclusions.txt	LTP184	ltpFR	16	13	1	SERGEANT	1269	n/a	n/a	1	0.57763671875	0.412841796875	1	upper	zerothre.ttf
2119214	WORD	wordpools/wasnorm_wordpool_less_exclusions.txt	LTP184	ltpFR	16	13	0	SICKLE	1302	n/a	n/a	0	0.422607421875	0.5869140625	0	lower	amplitud.ttf
2123306	WORD	wordpools/wasnorm_wordpool_less_exclusions.txt	LTP184	ltpFR	16	13	0	CARPENTER	246	n/a	n/a	1	0.422607421875	0.5869140625	0	lower	amplitud.ttf
2127294	WORD	wordpools/wasnorm_wordpool_less_exclusions.txt	LTP184	ltpFR	16	13	0	PATROL	1027	n/a	n/a	1	0.422607421875	0.5869140625	0	lower	amplitud.ttf
2131159	WORD	wordpools/wasnorm_wordpool_less_exclusions.txt	LTP184	ltpFR	16	13	0	BOMB	147	n/a	n/a	1	0.422607421875	0.5869140625	0	lower	amplitud.ttf
2135341	WORD	wordpools/wasnorm_wordpool_less_exclusions.txt	LTP184	ltpFR	16	13	1	CHART	282	n/a	n/a	0	0.57763671875	0.412841796875	1	upper	zerothre.ttf
2139350	WORD	wordpools/wasnorm_wordpool_less_exclusions.txt	LTP184	ltpFR	16	13	1	KNEE	784	n/a	n/a	0	0.57763671875	0.412841796875	1	upper	zerothre.ttf
2143349	WORD	wordpools/wasnorm_wordpool_less_exclusions.txt	LTP184	ltpFR	16	13	1	PIE	1062	n/a	n/a	0	0.57763671875	0.412841796875	1	upper	zerothre.ttf
2147570	WORD	wordpools/wasnorm_wordpool_less_exclusions.txt	LTP184	ltpFR	16	13	1	TURTLE	1522	n/a	n/a	0	0.57763671875	0.412841796875	1	upper	zerothre.ttf
2153621	REC_START	n/a	LTP184	ltpFR	16	13	n/a	n/a	n/a	n/a	n/a	n/a	n/a	n/a	n/a	n/a	n/a
2154025	REC_WORD	wordpools/wasnorm_wordpool_less_exclusions.txt	LTP184	ltpFR	16	13	1	CHART	282	n/a	n/a	0	n/a	n/a	n/a	n/a	n/a
2154559	REC_WORD	wordpools/wasnorm_wordpool_less_exclusions.txt	LTP184	ltpFR	16	13	1	KNEE	784	n/a	n/a	0	n/a	n/a	n/a	n/a	n/a
2155297	REC_WORD	wordpools/wasnorm_wordpool_less_exclusions.txt	LTP184	ltpFR	16	13	1	PIE	1062	n/a	n/a	0	n/a	n/a	n/a	n/a	n/a
2156095	REC_WORD	wordpools/wasnorm_wordpool_less_exclusions.txt	LTP184	ltpFR	16	13	1	TURTLE	1522	n/a	n/a	0	n/a	n/a	n/a	n/a	n/a
2156673	REC_WORD	wordpools/wasnorm_wordpool_less_exclusions.txt	LTP184	ltpFR	16	13	0	STAMP	1370	n/a	n/a	0	n/a	n/a	n/a	n/a	n/a
2160879	REC_WORD	wordpools/wasnorm_wordpool_less_exclusions.txt	LTP184	ltpFR	16	13	1	SERGEANT	1269	n/a	n/a	1	n/a	n/a	n/a	n/a	n/a
2171934	REC_WORD	wordpools/wasnorm_wordpool_less_exclusions.txt	LTP184	ltpFR	16	13	0	BUFFALO	186	n/a	n/a	1	n/a	n/a	n/a	n/a	n/a
2209783	REC_WORD	wordpools/wasnorm_wordpool_less_exclusions.txt	LTP184	ltpFR	16	13	1	TURTLE	1522	n/a	n/a	0	n/a	n/a	n/a	n/a	n/a
2219701	REC_WORD	wordpools/wasnorm_wordpool_less_exclusions.txt	LTP184	ltpFR	16	13	-1	DOCUMENT	479	n/a	n/a	-1	n/a	n/a	n/a	n/a	n/a
2231637	WORD	wordpools/wasnorm_wordpool_less_exclusions.txt	LTP184	ltpFR	16	14	0	FAMILY	550	n/a	n/a	1	0.422607421875	0.5869140625	0	lower	amplitud.ttf
2235829	WORD	wordpools/wasnorm_wordpool_less_exclusions.txt	LTP184	ltpFR	16	14	0	HIGHWAY	707	n/a	n/a	1	0.422607421875	0.5869140625	0	lower	amplitud.ttf
2239784	WORD	wordpools/wasnorm_wordpool_less_exclusions.txt	LTP184	ltpFR	16	14	0	STOMACH	1384	n/a	n/a	1	0.422607421875	0.5869140625	0	lower	amplitud.ttf
2243816	WORD	wordpools/wasnorm_wordpool_less_exclusions.txt	LTP184	ltpFR	16	14	0	TAPE	1433	n/a	n/a	0	0.422607421875	0.5869140625	0	lower	amplitud.ttf
2247892	WORD	wordpools/wasnorm_wordpool_less_exclusions.txt	LTP184	ltpFR	16	14	0	BEAVER	109	n/a	n/a	0	0.422607421875	0.5869140625	0	lower	amplitud.ttf
2251863	WORD	wordpools/wasnorm_wordpool_less_exclusions.txt	LTP184	ltpFR	16	14	0	LAMB	797	n/a	n/a	1	0.422607421875	0.5869140625	0	lower	amplitud.ttf
2255895	WORD	wordpools/wasnorm_wordpool_less_exclusions.txt	LTP184	ltpFR	16	14	0	TRAY	1498	n/a	n/a	1	0.422607421875	0.5869140625	0	lower	amplitud.ttf
2259759	WORD	wordpools/wasnorm_wordpool_less_exclusions.txt	LTP184	ltpFR	16	14	0	BAND	78	n/a	n/a	1	0.422607421875	0.5869140625	0	lower	amplitud.ttf
2263925	WORD	wordpools/wasnorm_wordpool_less_exclusions.txt	LTP184	ltpFR	16	14	0	BROTHER	179	n/a	n/a	1	0.422607421875	0.5869140625	0	lower	amplitud.ttf
2268068	WORD	wordpools/wasnorm_wordpool_less_exclusions.txt	LTP184	ltpFR	16	14	0	LEG	809	n/a	n/a	1	0.422607421875	0.5869140625	0	lower	amplitud.ttf
2272049	WORD	wordpools/wasnorm_wordpool_less_exclusions.txt	LTP184	ltpFR	16	14	0	LIGHTER	819	n/a	n/a	0	0.422607421875	0.5869140625	0	lower	amplitud.ttf
2276014	WORD	wordpools/wasnorm_wordpool_less_exclusions.txt	LTP184	ltpFR	16	14	0	THRONE	1461	n/a	n/a	1	0.422607421875	0.5869140625	0	lower	amplitud.ttf
2280029	WORD	wordpools/wasnorm_wordpool_less_exclusions.txt	LTP184	ltpFR	16	14	0	GRILL	661	n/a	n/a	1	0.422607421875	0.5869140625	0	lower	amplitud.ttf
2284111	WORD	wordpools/wasnorm_wordpool_less_exclusions.txt	LTP184	ltpFR	16	14	0	ROOST	1208	n/a	n/a	1	0.422607421875	0.5869140625	0	lower	amplitud.ttf
2288184	WORD	wordpools/wasnorm_wordpool_less_exclusions.txt	LTP184	ltpFR	16	14	0	GAVEL	627	n/a	n/a	0	0.422607421875	0.5869140625	0	lower	amplitud.ttf
2292131	WORD	wordpools/wasnorm_wordpool_less_exclusions.txt	LTP184	ltpFR	16	14	0	JURY	766	n/a	n/a	1	0.422607421875	0.5869140625	0	lower	amplitud.ttf
2297998	REC_START	n/a	LTP184	ltpFR	16	14	n/a	n/a	n/a	n/a	n/a	n/a	n/a	n/a	n/a	n/a	n/a
2298511	REC_WORD	wordpools/wasnorm_wordpool_less_exclusions.txt	LTP184	ltpFR	16	14	0	GAVEL	627	n/a	n/a	0	n/a	n/a	n/a	n/a	n/a
2299050	REC_WORD	wordpools/wasnorm_wordpool_less_exclusions.txt	LTP184	ltpFR	16	14	0	JURY	766	n/a	n/a	1	n/a	n/a	n/a	n/a	n/a
2299777	REC_WORD	wordpools/wasnorm_wordpool_less_exclusions.txt	LTP184	ltpFR	16	14	0	ROOST	1208	n/a	n/a	1	n/a	n/a	n/a	n/a	n/a
2312889	REC_WORD	wordpools/wasnorm_wordpool_less_exclusions.txt	LTP184	ltpFR	16	14	0	FAMILY	550	n/a	n/a	1	n/a	n/a	n/a	n/a	n/a
2313587	REC_WORD	wordpools/wasnorm_wordpool_less_exclusions.txt	LTP184	ltpFR	16	14	0	BROTHER	179	n/a	n/a	1	n/a	n/a	n/a	n/a	n/a
2315154	REC_WORD	wordpools/wasnorm_wordpool_less_exclusions.txt	LTP184	ltpFR	16	14	0	BAND	78	n/a	n/a	1	n/a	n/a	n/a	n/a	n/a
2322432	REC_WORD	wordpools/wasnorm_wordpool_less_exclusions.txt	LTP184	ltpFR	16	14	0	HIGHWAY	707	n/a	n/a	1	n/a	n/a	n/a	n/a	n/a
2326244	REC_WORD_VV	wordpools/wasnorm_wordpool_less_exclusions.txt	LTP184	ltpFR	16	14	n/a	<>	-1	n/a	n/a	n/a	n/a	n/a	n/a	n/a	n/a
2327244	REC_WORD_VV	wordpools/wasnorm_wordpool_less_exclusions.txt	LTP184	ltpFR	16	14	n/a	<>	-1	n/a	n/a	n/a	n/a	n/a	n/a	n/a	n/a
2331736	REC_WORD	wordpools/wasnorm_wordpool_less_exclusions.txt	LTP184	ltpFR	16	14	0	STOMACH	1384	n/a	n/a	1	n/a	n/a	n/a	n/a	n/a
2332569	REC_WORD	wordpools/wasnorm_wordpool_less_exclusions.txt	LTP184	ltpFR	16	14	0	TAPE	1433	n/a	n/a	0	n/a	n/a	n/a	n/a	n/a
2335143	REC_WORD	wordpools/wasnorm_wordpool_less_exclusions.txt	LTP184	ltpFR	16	14	0	LEG	809	n/a	n/a	1	n/a	n/a	n/a	n/a	n/a
2337034	REC_WORD	wordpools/wasnorm_wordpool_less_exclusions.txt	LTP184	ltpFR	16	14	-1	ARM	38	n/a	n/a	-1	n/a	n/a	n/a	n/a	n/a
2377186	WORD	wordpools/wasnorm_wordpool_less_exclusions.txt	LTP184	ltpFR	16	15	-1	BARRACUDA	90	n/a	n/a	-1	1.0	1.0	1	upper	Verdana.ttf
2381083	WORD	wordpools/wasnorm_wordpool_less_exclusions.txt	LTP184	ltpFR	16	15	-1	SILVERWARE	1308	n/a	n/a	-1	1.0	1.0	1	upper	Verdana.ttf
2385267	WORD	wordpools/wasnorm_wordpool_less_exclusions.txt	LTP184	ltpFR	16	15	-1	BANQUET	86	n/a	n/a	-1	1.0	1.0	1	upper	Verdana.ttf
2389215	WORD	wordpools/wasnorm_wordpool_less_exclusions.txt	LTP184	ltpFR	16	15	-1	LEMON	810	n/a	n/a	-1	1.0	1.0	1	upper	Verdana.ttf
2393330	WORD	wordpools/wasnorm_wordpool_less_exclusions.txt	LTP184	ltpFR	16	15	-1	SQUID	1361	n/a	n/a	-1	1.0	1.0	1	upper	Verdana.ttf
2397428	WORD	wordpools/wasnorm_wordpool_less_exclusions.txt	LTP184	ltpFR	16	15	-1	PADDING	999	n/a	n/a	-1	1.0	1.0	1	upper	Verdana.ttf
2401571	WORD	wordpools/wasnorm_wordpool_less_exclusions.txt	LTP184	ltpFR	16	15	-1	PACKAGE	997	n/a	n/a	-1	1.0	1.0	1	upper	Verdana.ttf
2405469	WORD	wordpools/wasnorm_wordpool_less_exclusions.txt	LTP184	ltpFR	16	15	-1	PUDDLE	1140	n/a	n/a	-1	1.0	1.0	1	upper	Verdana.ttf
2409467	WORD	wordpools/wasnorm_wordpool_less_exclusions.txt	LTP184	ltpFR	16	15	-1	BROOK	177	n/a	n/a	-1	1.0	1.0	1	upper	Verdana.ttf
2413583	WORD	wordpools/wasnorm_wordpool_less_exclusions.txt	LTP184	ltpFR	16	15	-1	MOUNTAIN	924	n/a	n/a	-1	1.0	1.0	1	upper	Verdana.ttf
2417654	WORD	wordpools/wasnorm_wordpool_less_exclusions.txt	LTP184	ltpFR	16	15	-1	TIGER	1467	n/a	n/a	-1	1.0	1.0	1	upper	Verdana.ttf
2421563	WORD	wordpools/wasnorm_wordpool_less_exclusions.txt	LTP184	ltpFR	16	15	-1	AFRICA	9	n/a	n/a	-1	1.0	1.0	1	upper	Verdana.ttf
2425567	WORD	wordpools/wasnorm_wordpool_less_exclusions.txt	LTP184	ltpFR	16	15	-1	BARREL	91	n/a	n/a	-1	1.0	1.0	1	upper	Verdana.ttf
2429482	WORD	wordpools/wasnorm_wordpool_less_exclusions.txt	LTP184	ltpFR	16	15	-1	SEAT	1264	n/a	n/a	-1	1.0	1.0	1	upper	Verdana.ttf
2433625	WORD	wordpools/wasnorm_wordpool_less_exclusions.txt	LTP184	ltpFR	16	15	-1	BANKER	84	n/a	n/a	-1	1.0	1.0	1	upper	Verdana.ttf
2437579	WORD	wordpools/wasnorm_wordpool_less_exclusions.txt	LTP184	ltpFR	16	15	-1	LIP	828	n/a	n/a	-1	1.0	1.0	1	upper	Verdana.ttf
2443414	REC_START	n/a	LTP184	ltpFR	16	15	n/a	n/a	n/a	n/a	n/a	n/a	n/a	n/a	n/a	n/a	n/a
2444002	REC_WORD	wordpools/wasnorm_wordpool_less_exclusions.txt	LTP184	ltpFR	16	15	-1	BROOK	177	n/a	n/a	-1	n/a	n/a	n/a	n/a	n/a
2444556	REC_WORD	wordpools/wasnorm_wordpool_less_exclusions.txt	LTP184	ltpFR	16	15	-1	MOUNTAIN	924	n/a	n/a	-1	n/a	n/a	n/a	n/a	n/a
2445235	REC_WORD	wordpools/wasnorm_wordpool_less_exclusions.txt	LTP184	ltpFR	16	15	-1	TIGER	1467	n/a	n/a	-1	n/a	n/a	n/a	n/a	n/a
2445908	REC_WORD	wordpools/wasnorm_wordpool_less_exclusions.txt	LTP184	ltpFR	16	15	-1	AFRICA	9	n/a	n/a	-1	n/a	n/a	n/a	n/a	n/a
2447320	REC_WORD	wordpools/wasnorm_wordpool_less_exclusions.txt	LTP184	ltpFR	16	15	-1	LIP	828	n/a	n/a	-1	n/a	n/a	n/a	n/a	n/a
2447914	REC_WORD	wordpools/wasnorm_wordpool_less_exclusions.txt	LTP184	ltpFR	16	15	-1	BARRACUDA	90	n/a	n/a	-1	n/a	n/a	n/a	n/a	n/a
2448772	REC_WORD	wordpools/wasnorm_wordpool_less_exclusions.txt	LTP184	ltpFR	16	15	-1	BANQUET	86	n/a	n/a	-1	n/a	n/a	n/a	n/a	n/a
2449405	REC_WORD	wordpools/wasnorm_wordpool_less_exclusions.txt	LTP184	ltpFR	16	15	-1	SQUID	1361	n/a	n/a	-1	n/a	n/a	n/a	n/a	n/a
2450473	REC_WORD	wordpools/wasnorm_wordpool_less_exclusions.txt	LTP184	ltpFR	16	15	-1	LEMON	810	n/a	n/a	-1	n/a	n/a	n/a	n/a	n/a
2452353	REC_WORD	wordpools/wasnorm_wordpool_less_exclusions.txt	LTP184	ltpFR	16	15	-1	PUDDLE	1140	n/a	n/a	-1	n/a	n/a	n/a	n/a	n/a
2453256	REC_WORD	wordpools/wasnorm_wordpool_less_exclusions.txt	LTP184	ltpFR	16	15	-1	SEAT	1264	n/a	n/a	-1	n/a	n/a	n/a	n/a	n/a
2472367	REC_WORD	wordpools/wasnorm_wordpool_less_exclusions.txt	LTP184	ltpFR	16	15	n/a	SILVER	-1	n/a	n/a	n/a	n/a	n/a	n/a	n/a	n/a
2476259	REC_WORD	wordpools/wasnorm_wordpool_less_exclusions.txt	LTP184	ltpFR	16	15	-1	PADDING	999	n/a	n/a	-1	n/a	n/a	n/a	n/a	n/a
2482156	REC_WORD	wordpools/wasnorm_wordpool_less_exclusions.txt	LTP184	ltpFR	16	15	-1	PACKAGE	997	n/a	n/a	-1	n/a	n/a	n/a	n/a	n/a
2483156	REC_WORD_VV	wordpools/wasnorm_wordpool_less_exclusions.txt	LTP184	ltpFR	16	15	n/a	<>	-1	n/a	n/a	n/a	n/a	n/a	n/a	n/a	n/a
2521914	WORD	wordpools/wasnorm_wordpool_less_exclusions.txt	LTP184	ltpFR	16	16	1	BARN	89	n/a	n/a	0	0.57763671875	0.412841796875	1	upper	zerothre.ttf
2525929	WORD	wordpools/wasnorm_wordpool_less_exclusions.txt	LTP184	ltpFR	16	16	1	YACHT	1629	n/a	n/a	0	0.57763671875	0.412841796875	1	upper	zerothre.ttf
2530038	WORD	wordpools/wasnorm_wordpool_less_exclusions.txt	LTP184	ltpFR	16	16	1	HANDKERCHIEF	686	n/a	n/a	0	0.57763671875	0.412841796875	1	upper	zerothre.ttf
2533903	WORD	wordpools/wasnorm_wordpool_less_exclusions.txt	LTP184	ltpFR	16	16	1	SWIMMER	1420	n/a	n/a	0	0.57763671875	0.412841796875	1	upper	zerothre.ttf
2537840	WORD	wordpools/wasnorm_wordpool_less_exclusions.txt	LTP184	ltpFR	16	16	1	COMPANION	357	n/a	n/a	1	0.57763671875	0.412841796875	1	upper	zerothre.ttf
2541966	WORD	wordpools/wasnorm_wordpool_less_exclusions.txt	LTP184	ltpFR	16	16	1	MASCARA	875	n/a	n/a	0	0.57763671875	0.412841796875	1	upper	zerothre.ttf
2546190	WORD	wordpools/wasnorm_wordpool_less_exclusions.txt	LTP184	ltpFR	16	16	1	CREW	406	n/a	n/a	1	0.57763671875	0.412841796875	1	upper	zerothre.ttf
2550205	WORD	wordpools/wasnorm_wordpool_less_exclusions.txt	LTP184	ltpFR	16	16	1	RIBBON	1189	n/a	n/a	0	0.57763671875	0.412841796875	1	upper	zerothre.ttf
2554186	WORD	wordpools/wasnorm_wordpool_less_exclusions.txt	LTP184	ltpFR	16	16	1	KITE	779	n/a	n/a	0	0.57763671875	0.412841796875	1	upper	zerothre.ttf
2558302	WORD	wordpools/wasnorm_wordpool_less_exclusions.txt	LTP184	ltpFR	16	16	1	PIER	1063	n/a	n/a	0	0.57763671875	0.412841796875	1	upper	zerothre.ttf
2562200	WORD	wordpools/wasnorm_wordpool_less_exclusions.txt	LTP184	ltpFR	16	16	1	BLOCKADE	137	n/a	n/a	0	0.57763671875	0.412841796875	1	upper	zerothre.ttf
2566332	WORD	wordpools/wasnorm_wordpool_less_exclusions.txt	LTP184	ltpFR	16	16	1	KNIGHT	786	n/a	n/a	1	0.57763671875	0.412841796875	1	upper	zerothre.ttf
2570347	WORD	wordpools/wasnorm_wordpool_less_exclusions.txt	LTP184	ltpFR	16	16	1	SPONGE	1355	n/a	n/a	0	0.57763671875	0.412841796875	1	upper	zerothre.ttf
2574423	WORD	wordpools/wasnorm_wordpool_less_exclusions.txt	LTP184	ltpFR	16	16	1	CANAL	226	n/a	n/a	0	0.57763671875	0.412841796875	1	upper	zerothre.ttf
2578294	WORD	wordpools/wasnorm_wordpool_less_exclusions.txt	LTP184	ltpFR	16	16	1	LEOPARD	812	n/a	n/a	1	0.57763671875	0.412841796875	1	upper	zerothre.ttf
2582142	WORD	wordpools/wasnorm_wordpool_less_exclusions.txt	LTP184	ltpFR	16	16	1	ANIMAL	23	n/a	n/a	1	0.57763671875	0.412841796875	1	upper	zerothre.ttf
2588165	REC_START	n/a	LTP184	ltpFR	16	16	n/a	n/a	n/a	n/a	n/a	n/a	n/a	n/a	n/a	n/a	n/a
2588634	REC_WORD	wordpools/wasnorm_wordpool_less_exclusions.txt	LTP184	ltpFR	16	16	1	RIBBON	1189	n/a	n/a	0	n/a	n/a	n/a	n/a	n/a
2589347	REC_WORD	wordpools/wasnorm_wordpool_less_exclusions.txt	LTP184	ltpFR	16	16	1	KITE	779	n/a	n/a	0	n/a	n/a	n/a	n/a	n/a
2589996	REC_WORD	wordpools/wasnorm_wordpool_less_exclusions.txt	LTP184	ltpFR	16	16	1	KNIGHT	786	n/a	n/a	1	n/a	n/a	n/a	n/a	n/a
2590724	REC_WORD	wordpools/wasnorm_wordpool_less_exclusions.txt	LTP184	ltpFR	16	16	1	SPONGE	1355	n/a	n/a	0	n/a	n/a	n/a	n/a	n/a
2591786	REC_WORD	wordpools/wasnorm_wordpool_less_exclusions.txt	LTP184	ltpFR	16	16	1	CANAL	226	n/a	n/a	0	n/a	n/a	n/a	n/a	n/a
2594346	REC_WORD	wordpools/wasnorm_wordpool_less_exclusions.txt	LTP184	ltpFR	16	16	1	RIBBON	1189	n/a	n/a	0	n/a	n/a	n/a	n/a	n/a
2605475	REC_WORD	wordpools/wasnorm_wordpool_less_exclusions.txt	LTP184	ltpFR	16	16	-1	BARRACUDA	90	n/a	n/a	-1	n/a	n/a	n/a	n/a	n/a
2646008	REC_WORD	wordpools/wasnorm_wordpool_less_exclusions.txt	LTP184	ltpFR	16	16	1	PIER	1063	n/a	n/a	0	n/a	n/a	n/a	n/a	n/a
2654200	REC_WORD	wordpools/wasnorm_wordpool_less_exclusions.txt	LTP184	ltpFR	16	16	1	COMPANION	357	n/a	n/a	1	n/a	n/a	n/a	n/a	n/a
2657976	REC_WORD	wordpools/wasnorm_wordpool_less_exclusions.txt	LTP184	ltpFR	16	16	1	MASCARA	875	n/a	n/a	0	n/a	n/a	n/a	n/a	n/a
2679242	REC_START	n/a	LTP184	ltpFR	16	n/a	n/a	n/a	n/a	n/a	n/a	n/a	n/a	n/a	n/a	n/a	n/a
2679491	FFR_REC_WORD	wordpools/wasnorm_wordpool_less_exclusions.txt	LTP184	ltpFR	16	n/a	-1	SQUID	1361	n/a	n/a	-1	n/a	n/a	n/a	n/a	n/a
2680491	FFR_REC_WORD_VV	wordpools/wasnorm_wordpool_less_exclusions.txt	LTP184	ltpFR	16	n/a	n/a	<>	-1	n/a	n/a	n/a	n/a	n/a	n/a	n/a	n/a
2681162	FFR_REC_WORD	wordpools/wasnorm_wordpool_less_exclusions.txt	LTP184	ltpFR	16	n/a	-1	LEMON	810	n/a	n/a	-1	n/a	n/a	n/a	n/a	n/a
2682045	FFR_REC_WORD	wordpools/wasnorm_wordpool_less_exclusions.txt	LTP184	ltpFR	16	n/a	1	MASCARA	875	n/a	n/a	0	n/a	n/a	n/a	n/a	n/a
2683886	FFR_REC_WORD	wordpools/wasnorm_wordpool_less_exclusions.txt	LTP184	ltpFR	16	n/a	-1	BARRACUDA	90	n/a	n/a	-1	n/a	n/a	n/a	n/a	n/a
2684754	FFR_REC_WORD	wordpools/wasnorm_wordpool_less_exclusions.txt	LTP184	ltpFR	16	n/a	-1	BANQUET	86	n/a	n/a	-1	n/a	n/a	n/a	n/a	n/a
2685448	FFR_REC_WORD	wordpools/wasnorm_wordpool_less_exclusions.txt	LTP184	ltpFR	16	n/a	-1	LEMON	810	n/a	n/a	-1	n/a	n/a	n/a	n/a	n/a
2687373	FFR_REC_WORD	wordpools/wasnorm_wordpool_less_exclusions.txt	LTP184	ltpFR	16	n/a	-1	SEAT	1264	n/a	n/a	-1	n/a	n/a	n/a	n/a	n/a
2688127	FFR_REC_WORD	wordpools/wasnorm_wordpool_less_exclusions.txt	LTP184	ltpFR	16	n/a	-1	PADDING	999	n/a	n/a	-1	n/a	n/a	n/a	n/a	n/a
2688745	FFR_REC_WORD	wordpools/wasnorm_wordpool_less_exclusions.txt	LTP184	ltpFR	16	n/a	-1	PACKAGE	997	n/a	n/a	-1	n/a	n/a	n/a	n/a	n/a
2689648	FFR_REC_WORD	wordpools/wasnorm_wordpool_less_exclusions.txt	LTP184	ltpFR	16	n/a	0	FAMILY	550	n/a	n/a	1	n/a	n/a	n/a	n/a	n/a
2690187	FFR_REC_WORD	wordpools/wasnorm_wordpool_less_exclusions.txt	LTP184	ltpFR	16	n/a	0	BROTHER	179	n/a	n/a	1	n/a	n/a	n/a	n/a	n/a
2691344	FFR_REC_WORD	wordpools/wasnorm_wordpool_less_exclusions.txt	LTP184	ltpFR	16	n/a	0	LADY	794	n/a	n/a	1	n/a	n/a	n/a	n/a	n/a
2692247	FFR_REC_WORD	wordpools/wasnorm_wordpool_less_exclusions.txt	LTP184	ltpFR	16	n/a	1	BOY	161	n/a	n/a	1	n/a	n/a	n/a	n/a	n/a
2695869	FFR_REC_WORD_VV	wordpools/wasnorm_wordpool_less_exclusions.txt	LTP184	ltpFR	16	n/a	n/a	<>	-1	n/a	n/a	n/a	n/a	n/a	n/a	n/a	n/a
2697735	FFR_REC_WORD	wordpools/wasnorm_wordpool_less_exclusions.txt	LTP184	ltpFR	16	n/a	1	ASTRONAUT	51	n/a	n/a	1	n/a	n/a	n/a	n/a	n/a
2698533	FFR_REC_WORD	wordpools/wasnorm_wordpool_less_exclusions.txt	LTP184	ltpFR	16	n/a	1	SPACE	1345	n/a	n/a	0	n/a	n/a	n/a	n/a	n/a
2701242	FFR_REC_WORD	wordpools/wasnorm_wordpool_less_exclusions.txt	LTP184	ltpFR	16	n/a	-1	BRUNETTE	181	n/a	n/a	-1	n/a	n/a	n/a	n/a	n/a
2702559	FFR_REC_WORD	wordpools/wasnorm_wordpool_less_exclusions.txt	LTP184	ltpFR	16	n/a	-1	LIP	828	n/a	n/a	-1	n/a	n/a	n/a	n/a	n/a
2703372	FFR_REC_WORD	wordpools/wasnorm_wordpool_less_exclusions.txt	LTP184	ltpFR	16	n/a	-1	ARM	38	n/a	n/a	-1	n/a	n/a	n/a	n/a	n/a
2703921	FFR_REC_WORD	wordpools/wasnorm_wordpool_less_exclusions.txt	LTP184	ltpFR	16	n/a	0	STOMACH	1384	n/a	n/a	1	n/a	n/a	n/a	n/a	n/a
2704684	FFR_REC_WORD	wordpools/wasnorm_wordpool_less_exclusions.txt	LTP184	ltpFR	16	n/a	0	TAPE	1433	n/a	n/a	0	n/a	n/a	n/a	n/a	n/a
2711468	FFR_REC_WORD	wordpools/wasnorm_wordpool_less_exclusions.txt	LTP184	ltpFR	16	n/a	1	COMPANION	357	n/a	n/a	1	n/a	n/a	n/a	n/a	n/a
2715350	FFR_REC_WORD	wordpools/wasnorm_wordpool_less_exclusions.txt	LTP184	ltpFR	16	n/a	0	BAND	78	n/a	n/a	1	n/a	n/a	n/a	n/a	n/a
2722059	FFR_REC_WORD	wordpools/wasnorm_wordpool_less_exclusions.txt	LTP184	ltpFR	16	n/a	0	WATER	1594	n/a	n/a	0	n/a	n/a	n/a	n/a	n/a
2724893	FFR_REC_WORD	wordpools/wasnorm_wordpool_less_exclusions.txt	LTP184	ltpFR	16	n/a	1	ANTEATER	26	n/a	n/a	1	n/a	n/a	n/a	n/a	n/a
2725893	FFR_REC_WORD_VV	wordpools/wasnorm_wordpool_less_exclusions.txt	LTP184	ltpFR	16	n/a	n/a	<>	-1	n/a	n/a	n/a	n/a	n/a	n/a	n/a	n/a
2726884	FFR_REC_WORD	wordpools/wasnorm_wordpool_less_exclusions.txt	LTP184	ltpFR	16	n/a	n/a	JUDGE	761	n/a	n/a	n/a	n/a	n/a	n/a	n/a	n/a
2727906	FFR_REC_WORD	wordpools/wasnorm_wordpool_less_exclusions.txt	LTP184	ltpFR	16	n/a	0	GAVEL	627	n/a	n/a	0	n/a	n/a	n/a	n/a	n/a
2731194	FFR_REC_WORD	wordpools/wasnorm_wordpool_less_exclusions.txt	LTP184	ltpFR	16	n/a	0	JURY	766	n/a	n/a	1	n/a	n/a	n/a	n/a	n/a
2737454	FFR_REC_WORD	wordpools/wasnorm_wordpool_less_exclusions.txt	LTP184	ltpFR	16	n/a	n/a	CENTIPEDE	-1	n/a	n/a	n/a	n/a	n/a	n/a	n/a	n/a
2738454	FFR_REC_WORD_VV	wordpools/wasnorm_wordpool_less_exclusions.txt	LTP184	ltpFR	16	n/a	n/a	<>	-1	n/a	n/a	n/a	n/a	n/a	n/a	n/a	n/a
2745222	FFR_REC_WORD	wordpools/wasnorm_wordpool_less_exclusions.txt	LTP184	ltpFR	16	n/a	-1	FRAGRANCE	599	n/a	n/a	-1	n/a	n/a	n/a	n/a	n/a
2751677	FFR_REC_WORD	wordpools/wasnorm_wordpool_less_exclusions.txt	LTP184	ltpFR	16	n/a	0	MOSQUITO	917	n/a	n/a	0	n/a	n/a	n/a	n/a	n/a
2754406	FFR_REC_WORD	wordpools/wasnorm_wordpool_less_exclusions.txt	LTP184	ltpFR	16	n/a	0	BUFFALO	186	n/a	n/a	1	n/a	n/a	n/a	n/a	n/a
2755005	FFR_REC_WORD	wordpools/wasnorm_wordpool_less_exclusions.txt	LTP184	ltpFR	16	n/a	1	BISON	131	n/a	n/a	1	n/a	n/a	n/a	n/a	n/a
2755887	FFR_REC_WORD	wordpools/wasnorm_wordpool_less_exclusions.txt	LTP184	ltpFR	16	n/a	0	FARM	552	n/a	n/a	1	n/a	n/a	n/a	n/a	n/a
2762418	FFR_REC_WORD	wordpools/wasnorm_wordpool_less_exclusions.txt	LTP184	ltpFR	16	n/a	0	RAM	1165	n/a	n/a	1	n/a	n/a	n/a	n/a	n/a
2763103	FFR_REC_WORD	wordpools/wasnorm_wordpool_less_exclusions.txt	LTP184	ltpFR	16	n/a	0	SHEEP	1278	n/a	n/a	1	n/a	n/a	n/a	n/a	n/a
2765405	FFR_REC_WORD	wordpools/wasnorm_wordpool_less_exclusions.txt	LTP184	ltpFR	16	n/a	0	STAMP	1370	n/a	n/a	0	n/a	n/a	n/a	n/a	n/a
2766743	FFR_REC_WORD	wordpools/wasnorm_wordpool_less_exclusions.txt	LTP184	ltpFR	16	n/a	0	COW	393	n/a	n/a	1	n/a	n/a	n/a	n/a	n/a
2768125	FFR_REC_WORD	wordpools/wasnorm_wordpool_less_exclusions.txt	LTP184	ltpFR	16	n/a	1	SIRLOIN	1311	n/a	n/a	0	n/a	n/a	n/a	n/a	n/a
2870806	FFR_REC_WORD	wordpools/wasnorm_wordpool_less_exclusions.txt	LTP184	ltpFR	16	n/a	1	MASCARA	875	n/a	n/a	0	n/a	n/a	n/a	n/a	n/a
2890811	FFR_REC_WORD	wordpools/wasnorm_wordpool_less_exclusions.txt	LTP184	ltpFR	16	n/a	0	TORTOISE	1486	n/a	n/a	0	n/a	n/a	n/a	n/a	n/a
2891574	FFR_REC_WORD	wordpools/wasnorm_wordpool_less_exclusions.txt	LTP184	ltpFR	16	n/a	1	TURTLE	1522	n/a	n/a	0	n/a	n/a	n/a	n/a	n/a
2894981	FFR_REC_WORD	wordpools/wasnorm_wordpool_less_exclusions.txt	LTP184	ltpFR	16	n/a	0	PARROT	1015	n/a	n/a	0	n/a	n/a	n/a	n/a	n/a
2907752	FFR_REC_WORD	wordpools/wasnorm_wordpool_less_exclusions.txt	LTP184	ltpFR	16	n/a	0	OLIVE	975	n/a	n/a	0	n/a	n/a	n/a	n/a	n/a
2913220	FFR_REC_WORD	wordpools/wasnorm_wordpool_less_exclusions.txt	LTP184	ltpFR	16	n/a	0	STAMP	1370	n/a	n/a	0	n/a	n/a	n/a	n/a	n/a
2915769	FFR_REC_WORD	wordpools/wasnorm_wordpool_less_exclusions.txt	LTP184	ltpFR	16	n/a	-1	DOCUMENT	479	n/a	n/a	-1	n/a	n/a	n/a	n/a	n/a
2916453	FFR_REC_WORD	wordpools/wasnorm_wordpool_less_exclusions.txt	LTP184	ltpFR	16	n/a	-1	LIMOUSINE	824	n/a	n/a	-1	n/a	n/a	n/a	n/a	n/a
2917036	FFR_REC_WORD	wordpools/wasnorm_wordpool_less_exclusions.txt	LTP184	ltpFR	16	n/a	1	CHAMPAGNE	278	n/a	n/a	0	n/a	n/a	n/a	n/a	n/a
2917889	FFR_REC_WORD	wordpools/wasnorm_wordpool_less_exclusions.txt	LTP184	ltpFR	16	n/a	-1	CORK	380	n/a	n/a	-1	n/a	n/a	n/a	n/a	n/a
2918443	FFR_REC_WORD	wordpools/wasnorm_wordpool_less_exclusions.txt	LTP184	ltpFR	16	n/a	-1	FLASK	576	n/a	n/a	-1	n/a	n/a	n/a	n/a	n/a
2920434	FFR_REC_WORD	wordpools/wasnorm_wordpool_less_exclusions.txt	LTP184	ltpFR	16	n/a	-1	PAN	1008	n/a	n/a	-1	n/a	n/a	n/a	n/a	n/a
2921376	FFR_REC_WORD	wordpools/wasnorm_wordpool_less_exclusions.txt	LTP184	ltpFR	16	n/a	-1	POT	1114	n/a	n/a	-1	n/a	n/a	n/a	n/a	n/a
2925911	FFR_REC_WORD	wordpools/wasnorm_wordpool_less_exclusions.txt	LTP184	ltpFR	16	n/a	-1	WEED	1599	n/a	n/a	-1	n/a	n/a	n/a	n/a	n/a
2929792	FFR_REC_WORD	wordpools/wasnorm_wordpool_less_exclusions.txt	LTP184	ltpFR	16	n/a	0	BRACELET	163	n/a	n/a	0	n/a	n/a	n/a	n/a	n/a
2943202	FFR_REC_WORD	wordpools/wasnorm_wordpool_less_exclusions.txt	LTP184	ltpFR	16	n/a	n/a	WRIST	1626	n/a	n/a	n/a	n/a	n/a	n/a	n/a	n/a
2949163	FFR_REC_WORD	wordpools/wasnorm_wordpool_less_exclusions.txt	LTP184	ltpFR	16	n/a	1	SPONGE	1355	n/a	n/a	0	n/a	n/a	n/a	n/a	n/a
2950071	FFR_REC_WORD	wordpools/wasnorm_wordpool_less_exclusions.txt	LTP184	ltpFR	16	n/a	1	CANAL	226	n/a	n/a	0	n/a	n/a	n/a	n/a	n/a
2957170	FFR_REC_WORD	wordpools/wasnorm_wordpool_less_exclusions.txt	LTP184	ltpFR	16	n/a	1	SERGEANT	1269	n/a	n/a	1	n/a	n/a	n/a	n/a	n/a
2960308	FFR_REC_WORD	wordpools/wasnorm_wordpool_less_exclusions.txt	LTP184	ltpFR	16	n/a	0	COMMANDER	354	n/a	n/a	1	n/a	n/a	n/a	n/a	n/a
2962338	FFR_REC_WORD_VV	wordpools/wasnorm_wordpool_less_exclusions.txt	LTP184	ltpFR	16	n/a	n/a	<>	-1	n/a	n/a	n/a	n/a	n/a	n/a	n/a	n/a
2963107	FFR_REC_WORD	wordpools/wasnorm_wordpool_less_exclusions.txt	LTP184	ltpFR	16	n/a	1	MISTER	901	n/a	n/a	1	n/a	n/a	n/a	n/a	n/a
2968025	FFR_REC_WORD	wordpools/wasnorm_wordpool_less_exclusions.txt	LTP184	ltpFR	16	n/a	n/a	CAPTAIN	239	n/a	n/a	n/a	n/a	n/a	n/a	n/a	n/a
2970495	FFR_REC_WORD	wordpools/wasnorm_wordpool_less_exclusions.txt	LTP184	ltpFR	16	n/a	1	YACHT	1629	n/a	n/a	0	n/a	n/a	n/a	n/a	n/a
3002694	REC_START	n/a	LTP184	ltpFR	16	1	n/a	n/a	n/a	n/a	n/a	n/a	n/a	n/a	n/a	n/a	n/a
3002743	RECOG_TARGET	n/a	LTP184	ltpFR	16	1	0	HERD	705	1	3	1	n/a	n/a	n/a	n/a	n/a
3004520	RECOG_RESP	n/a	LTP184	ltpFR	16	1	0	HERD	705	1	n/a	1	n/a	n/a	n/a	n/a	n/a
3005161	RECOG_CONF	n/a	LTP184	ltpFR	16	1	0	HERD	705	n/a	3	1	n/a	n/a	n/a	n/a	n/a
3006825	RECOG_TARGET	n/a	LTP184	ltpFR	16	1	0	PATROL	1027	1	2	1	n/a	n/a	n/a	n/a	n/a
3008106	RECOG_RESP	n/a	LTP184	ltpFR	16	1	0	PATROL	1027	1	n/a	1	n/a	n/a	n/a	n/a	n/a
3008685	RECOG_CONF	n/a	LTP184	ltpFR	16	1	0	PATROL	1027	n/a	2	1	n/a	n/a	n/a	n/a	n/a
3010289	RECOG_TARGET	n/a	LTP184	ltpFR	16	1	1	WHISKERS	1605	1	5	0	n/a	n/a	n/a	n/a	n/a
3011382	RECOG_RESP	n/a	LTP184	ltpFR	16	1	1	WHISKERS	1605	1	n/a	0	n/a	n/a	n/a	n/a	n/a
3012157	RECOG_CONF	n/a	LTP184	ltpFR	16	1	1	WHISKERS	1605	n/a	5	0	n/a	n/a	n/a	n/a	n/a
3013801	RECOG_TARGET	n/a	LTP184	ltpFR	16	1	0	GLOVE	642	1	3	0	n/a	n/a	n/a	n/a	n/a
3014679	RECOG_RESP_VV	n/a	LTP184	ltpFR	16	1	0	GLOVE	642	0	n/a	0	n/a	n/a	n/a	n/a	n/a
3015409	RECOG_RESP	n/a	LTP184	ltpFR	16	1	0	GLOVE	642	1	n/a	0	n/a	n/a	n/a	n/a	n/a
3016019	RECOG_CONF	n/a	LTP184	ltpFR	16	1	0	GLOVE	642	n/a	3	0	n/a	n/a	n/a	n/a	n/a
3017598	RECOG_TARGET	n/a	LTP184	ltpFR	16	1	1	PIE	1062	1	5	0	n/a	n/a	n/a	n/a	n/a
3018263	RECOG_RESP	n/a	LTP184	ltpFR	16	1	1	PIE	1062	1	n/a	0	n/a	n/a	n/a	n/a	n/a
3018792	RECOG_CONF	n/a	LTP184	ltpFR	16	1	1	PIE	1062	n/a	5	0	n/a	n/a	n/a	n/a	n/a
3020360	RECOG_TARGET	n/a	LTP184	ltpFR	16	1	-1	DOLLAR	482	0	2	-1	n/a	n/a	n/a	n/a	n/a
3021096	RECOG_RESP	n/a	LTP184	ltpFR	16	1	-1	DOLLAR	482	0	n/a	-1	n/a	n/a	n/a	n/a	n/a
3021634	RECOG_CONF	n/a	LTP184	ltpFR	16	1	-1	DOLLAR	482	n/a	2	-1	n/a	n/a	n/a	n/a	n/a
3023248	RECOG_TARGET	n/a	LTP184	ltpFR	16	1	0	JACKET	747	1	4	0	n/a	n/a	n/a	n/a	n/a
3023970	RECOG_RESP	n/a	LTP184	ltpFR	16	1	0	JACKET	747	1	n/a	0	n/a	n/a	n/a	n/a	n/a
3024539	RECOG_CONF	n/a	LTP184	ltpFR	16	1	0	JACKET	747	n/a	4	0	n/a	n/a	n/a	n/a	n/a
3026108	RECOG_TARGET	n/a	LTP184	ltpFR	16	1	1	ROBOT	1200	1	5	0	n/a	n/a	n/a	n/a	n/a
3026569	RECOG_RESP	n/a	LTP184	ltpFR	16	1	1	ROBOT	1200	1	n/a	0	n/a	n/a	n/a	n/a	n/a
3027073	RECOG_CONF	n/a	LTP184	ltpFR	16	1	1	ROBOT	1200	n/a	5	0	n/a	n/a	n/a	n/a	n/a
3028684	RECOG_TARGET	n/a	LTP184	ltpFR	16	1	0	GEM	629	1	5	0	n/a	n/a	n/a	n/a	n/a
3029222	RECOG_RESP	n/a	LTP184	ltpFR	16	1	0	GEM	629	1	n/a	0	n/a	n/a	n/a	n/a	n/a
3029737	RECOG_CONF	n/a	LTP184	ltpFR	16	1	0	GEM	629	n/a	5	0	n/a	n/a	n/a	n/a	n/a
3031401	RECOG_TARGET	n/a	LTP184	ltpFR	16	1	-1	AFRICA	9	0	2	-1	n/a	n/a	n/a	n/a	n/a
3032163	RECOG_RESP	n/a	LTP184	ltpFR	16	1	-1	AFRICA	9	0	n/a	-1	n/a	n/a	n/a	n/a	n/a
3032694	RECOG_CONF	n/a	LTP184	ltpFR	16	1	-1	AFRICA	9	n/a	2	-1	n/a	n/a	n/a	n/a	n/a
3034379	RECOG_TARGET	n/a	LTP184	ltpFR	16	1	1	STATUE	1374	1	5	0	n/a	n/a	n/a	n/a	n/a
3034670	RECOG_RESP	n/a	LTP184	ltpFR	16	1	1	STATUE	1374	1	n/a	0	n/a	n/a	n/a	n/a	n/a
3035205	RECOG_CONF	n/a	LTP184	ltpFR	16	1	1	STATUE	1374	n/a	5	0	n/a	n/a	n/a	n/a	n/a
3036698	RECOG_TARGET	n/a	LTP184	ltpFR	16	1	1	WAND	1586	1	5	0	n/a	n/a	n/a	n/a	n/a
3037005	RECOG_RESP	n/a	LTP184	ltpFR	16	1	1	WAND	1586	1	n/a	0	n/a	n/a	n/a	n/a	n/a
3037530	RECOG_CONF	n/a	LTP184	ltpFR	16	1	1	WAND	1586	n/a	5	0	n/a	n/a	n/a	n/a	n/a
3039141	RECOG_TARGET	n/a	LTP184	ltpFR	16	1	-1	CEILING	265	1	4	-1	n/a	n/a	n/a	n/a	n/a
3039957	RECOG_RESP	n/a	LTP184	ltpFR	16	1	-1	CEILING	265	1	n/a	-1	n/a	n/a	n/a	n/a	n/a
3040563	RECOG_CONF	n/a	LTP184	ltpFR	16	1	-1	CEILING	265	n/a	4	-1	n/a	n/a	n/a	n/a	n/a
3042176	RECOG_TARGET	n/a	LTP184	ltpFR	16	1	1	RACKET	1155	1	4	0	n/a	n/a	n/a	n/a	n/a
3042524	RECOG_RESP	n/a	LTP184	ltpFR	16	1	1	RACKET	1155	1	n/a	0	n/a	n/a	n/a	n/a	n/a
3043097	RECOG_CONF	n/a	LTP184	ltpFR	16	1	1	RACKET	1155	n/a	4	0	n/a	n/a	n/a	n/a	n/a
3044567	RECOG_TARGET	n/a	LTP184	ltpFR	16	1	1	MEAL	882	1	5	0	n/a	n/a	n/a	n/a	n/a
3044868	RECOG_RESP	n/a	LTP184	ltpFR	16	1	1	MEAL	882	1	n/a	0	n/a	n/a	n/a	n/a	n/a
3045402	RECOG_CONF	n/a	LTP184	ltpFR	16	1	1	MEAL	882	n/a	5	0	n/a	n/a	n/a	n/a	n/a
3046825	RECOG_TARGET	n/a	LTP184	ltpFR	16	1	-1	CYLINDER	432	1	5	-1	n/a	n/a	n/a	n/a	n/a
3047287	RECOG_RESP	n/a	LTP184	ltpFR	16	1	-1	CYLINDER	432	1	n/a	-1	n/a	n/a	n/a	n/a	n/a
3047826	RECOG_CONF	n/a	LTP184	ltpFR	16	1	-1	CYLINDER	432	n/a	5	-1	n/a	n/a	n/a	n/a	n/a
3049302	RECOG_TARGET	n/a	LTP184	ltpFR	16	1	1	TOMATO	1476	1	5	1	n/a	n/a	n/a	n/a	n/a
3049658	RECOG_RESP	n/a	LTP184	ltpFR	16	1	1	TOMATO	1476	1	n/a	1	n/a	n/a	n/a	n/a	n/a
3050211	RECOG_CONF	n/a	LTP184	ltpFR	16	1	1	TOMATO	1476	n/a	5	1	n/a	n/a	n/a	n/a	n/a
3051761	RECOG_TARGET	n/a	LTP184	ltpFR	16	1	0	PIT	1077	1	5	1	n/a	n/a	n/a	n/a	n/a
3052169	RECOG_RESP	n/a	LTP184	ltpFR	16	1	0	PIT	1077	1	n/a	1	n/a	n/a	n/a	n/a	n/a
3052715	RECOG_CONF	n/a	LTP184	ltpFR	16	1	0	PIT	1077	n/a	5	1	n/a	n/a	n/a	n/a	n/a
3054215	RECOG_TARGET	n/a	LTP184	ltpFR	16	1	0	THUMB	1462	1	2	0	n/a	n/a	n/a	n/a	n/a
3054824	RECOG_RESP_VV	n/a	LTP184	ltpFR	16	1	0	THUMB	1462	1	n/a	0	n/a	n/a	n/a	n/a	n/a
3055763	RECOG_RESP	n/a	LTP184	ltpFR	16	1	0	THUMB	1462	1	n/a	0	n/a	n/a	n/a	n/a	n/a
3056379	RECOG_CONF	n/a	LTP184	ltpFR	16	1	0	THUMB	1462	n/a	2	0	n/a	n/a	n/a	n/a	n/a
3057944	RECOG_LURE	n/a	LTP184	ltpFR	16	1	n/a	HANDBAG	684	0	4	n/a	n/a	n/a	n/a	n/a	n/a
3058852	RECOG_RESP	n/a	LTP184	ltpFR	16	1	n/a	HANDBAG	684	0	n/a	n/a	n/a	n/a	n/a	n/a	n/a
3059380	RECOG_CONF	n/a	LTP184	ltpFR	16	1	n/a	HANDBAG	684	n/a	4	n/a	n/a	n/a	n/a	n/a	n/a
3062698	REC_START	n/a	LTP184	ltpFR	16	2	n/a	n/a	n/a	n/a	n/a	n/a	n/a	n/a	n/a	n/a	n/a
3062746	RECOG_TARGET	n/a	LTP184	ltpFR	16	2	1	CREW	406	1	5	1	n/a	n/a	n/a	n/a	n/a
3063401	RECOG_RESP	n/a	LTP184	ltpFR	16	2	1	CREW	406	1	n/a	1	n/a	n/a	n/a	n/a	n/a
3063900	RECOG_CONF	n/a	LTP184	ltpFR	16	2	1	CREW	406	n/a	5	1	n/a	n/a	n/a	n/a	n/a
3065413	RECOG_TARGET	n/a	LTP184	ltpFR	16	2	1	BUYER	208	0	4	1	n/a	n/a	n/a	n/a	n/a
3065984	RECOG_RESP	n/a	LTP184	ltpFR	16	2	1	BUYER	208	0	n/a	1	n/a	n/a	n/a	n/a	n/a
3066474	RECOG_CONF	n/a	LTP184	ltpFR	16	2	1	BUYER	208	n/a	4	1	n/a	n/a	n/a	n/a	n/a
3067965	RECOG_TARGET	n/a	LTP184	ltpFR	16	2	1	COAT	333	1	5	0	n/a	n/a	n/a	n/a	n/a
3068270	RECOG_RESP	n/a	LTP184	ltpFR	16	2	1	COAT	333	1	n/a	0	n/a	n/a	n/a	n/a	n/a
3068789	RECOG_CONF	n/a	LTP184	ltpFR	16	2	1	COAT	333	n/a	5	0	n/a	n/a	n/a	n/a	n/a
3070365	RECOG_TARGET	n/a	LTP184	ltpFR	16	2	-1	BULB	192	0	2	-1	n/a	n/a	n/a	n/a	n/a
3070974	RECOG_RESP	n/a	LTP184	ltpFR	16	2	-1	BULB	192	0	n/a	-1	n/a	n/a	n/a	n/a	n/a
3071473	RECOG_CONF	n/a	LTP184	ltpFR	16	2	-1	BULB	192	n/a	2	-1	n/a	n/a	n/a	n/a	n/a
3073091	RECOG_TARGET	n/a	LTP184	ltpFR	16	2	-1	RAKE	1164	1	4	-1	n/a	n/a	n/a	n/a	n/a
3073611	RECOG_RESP	n/a	LTP184	ltpFR	16	2	-1	RAKE	1164	1	n/a	-1	n/a	n/a	n/a	n/a	n/a
3074117	RECOG_CONF	n/a	LTP184	ltpFR	16	2	-1	RAKE	1164	n/a	4	-1	n/a	n/a	n/a	n/a	n/a
3075594	RECOG_TARGET	n/a	LTP184	ltpFR	16	2	0	CRAB	397	1	4	0	n/a	n/a	n/a	n/a	n/a
3075842	RECOG_RESP	n/a	LTP184	ltpFR	16	2	0	CRAB	397	1	n/a	0	n/a	n/a	n/a	n/a	n/a
3076402	RECOG_CONF	n/a	LTP184	ltpFR	16	2	0	CRAB	397	n/a	4	0	n/a	n/a	n/a	n/a	n/a
3078009	RECOG_TARGET	n/a	LTP184	ltpFR	16	2	-1	JUG	762	1	4	-1	n/a	n/a	n/a	n/a	n/a
3078604	RECOG_RESP	n/a	LTP184	ltpFR	16	2	-1	JUG	762	1	n/a	-1	n/a	n/a	n/a	n/a	n/a
3079116	RECOG_CONF	n/a	LTP184	ltpFR	16	2	-1	JUG	762	n/a	4	-1	n/a	n/a	n/a	n/a	n/a
3080663	RECOG_TARGET	n/a	LTP184	ltpFR	16	2	1	TUBA	1515	1	5	0	n/a	n/a	n/a	n/a	n/a
3081447	RECOG_RESP_VV	n/a	LTP184	ltpFR	16	2	1	TUBA	1515	0	n/a	0	n/a	n/a	n/a	n/a	n/a
3081981	RECOG_RESP	n/a	LTP184	ltpFR	16	2	1	TUBA	1515	1	n/a	0	n/a	n/a	n/a	n/a	n/a
3082535	RECOG_CONF	n/a	LTP184	ltpFR	16	2	1	TUBA	1515	n/a	5	0	n/a	n/a	n/a	n/a	n/a
3084026	RECOG_TARGET	n/a	LTP184	ltpFR	16	2	-1	PEACH	1031	1	4	-1	n/a	n/a	n/a	n/a	n/a
3084733	RECOG_RESP	n/a	LTP184	ltpFR	16	2	-1	PEACH	1031	1	n/a	-1	n/a	n/a	n/a	n/a	n/a
3085281	RECOG_CONF	n/a	LTP184	ltpFR	16	2	-1	PEACH	1031	n/a	4	-1	n/a	n/a	n/a	n/a	n/a
3086876	RECOG_TARGET	n/a	LTP184	ltpFR	16	2	-1	CHAIN	273	1	5	-1	n/a	n/a	n/a	n/a	n/a
3087267	RECOG_RESP	n/a	LTP184	ltpFR	16	2	-1	CHAIN	273	1	n/a	-1	n/a	n/a	n/a	n/a	n/a
3087716	RECOG_CONF	n/a	LTP184	ltpFR	16	2	-1	CHAIN	273	n/a	5	-1	n/a	n/a	n/a	n/a	n/a
3089253	RECOG_TARGET	n/a	LTP184	ltpFR	16	2	-1	STEP	1377	1	2	-1	n/a	n/a	n/a	n/a	n/a
3090393	RECOG_RESP	n/a	LTP184	ltpFR	16	2	-1	STEP	1377	1	n/a	-1	n/a	n/a	n/a	n/a	n/a
3090933	RECOG_CONF	n/a	LTP184	ltpFR	16	2	-1	STEP	1377	n/a	2	-1	n/a	n/a	n/a	n/a	n/a
3092614	RECOG_TARGET	n/a	LTP184	ltpFR	16	2	0	SPOOL	1356	1	5	0	n/a	n/a	n/a	n/a	n/a
3093297	RECOG_RESP	n/a	LTP184	ltpFR	16	2	0	SPOOL	1356	1	n/a	0	n/a	n/a	n/a	n/a	n/a
3093792	RECOG_CONF	n/a	LTP184	ltpFR	16	2	0	SPOOL	1356	n/a	5	0	n/a	n/a	n/a	n/a	n/a
3095336	RECOG_TARGET	n/a	LTP184	ltpFR	16	2	-1	INSECT	740	1	4	-1	n/a	n/a	n/a	n/a	n/a
3095745	RECOG_RESP	n/a	LTP184	ltpFR	16	2	-1	INSECT	740	1	n/a	-1	n/a	n/a	n/a	n/a	n/a
3096336	RECOG_CONF	n/a	LTP184	ltpFR	16	2	-1	INSECT	740	n/a	4	-1	n/a	n/a	n/a	n/a	n/a
3098012	RECOG_LURE	n/a	LTP184	ltpFR	16	2	n/a	SYRINGE	1424	0	1	n/a	n/a	n/a	n/a	n/a	n/a
3098583	RECOG_RESP	n/a	LTP184	ltpFR	16	2	n/a	SYRINGE	1424	0	n/a	n/a	n/a	n/a	n/a	n/a	n/a
3099119	RECOG_CONF	n/a	LTP184	ltpFR	16	2	n/a	SYRINGE	1424	n/a	1	n/a	n/a	n/a	n/a	n/a	n/a
3100862	RECOG_TARGET	n/a	LTP184	ltpFR	16	2	1	ANIMAL	23	1	3	1	n/a	n/a	n/a	n/a	n/a
3101249	RECOG_RESP	n/a	LTP184	ltpFR	16	2	1	ANIMAL	23	1	n/a	1	n/a	n/a	n/a	n/a	n/a
3101764	RECOG_CONF	n/a	LTP184	ltpFR	16	2	1	ANIMAL	23	n/a	3	1	n/a	n/a	n/a	n/a	n/a
3103423	RECOG_LURE	n/a	LTP184	ltpFR	16	2	n/a	WIFE	1609	1	1	n/a	n/a	n/a	n/a	n/a	n/a
3103691	RECOG_RESP	n/a	LTP184	ltpFR	16	2	n/a	WIFE	1609	1	n/a	n/a	n/a	n/a	n/a	n/a	n/a
3104160	RECOG_CONF	n/a	LTP184	ltpFR	16	2	n/a	WIFE	1609	n/a	1	n/a	n/a	n/a	n/a	n/a	n/a
3105764	RECOG_TARGET	n/a	LTP184	ltpFR	16	2	1	ENVELOPE	537	1	4	0	n/a	n/a	n/a	n/a	n/a
3106347	RECOG_RESP	n/a	LTP184	ltpFR	16	2	1	ENVELOPE	537	1	n/a	0	n/a	n/a	n/a	n/a	n/a
3106833	RECOG_CONF	n/a	LTP184	ltpFR	16	2	1	ENVELOPE	537	n/a	4	0	n/a	n/a	n/a	n/a	n/a
3108369	RECOG_TARGET	n/a	LTP184	ltpFR	16	2	0	WILDERNESS	1610	1	4	1	n/a	n/a	n/a	n/a	n/a
3108678	RECOG_RESP	n/a	LTP184	ltpFR	16	2	0	WILDERNESS	1610	1	n/a	1	n/a	n/a	n/a	n/a	n/a
3109227	RECOG_CONF	n/a	LTP184	ltpFR	16	2	0	WILDERNESS	1610	n/a	4	1	n/a	n/a	n/a	n/a	n/a
3110693	RECOG_LURE	n/a	LTP184	ltpFR	16	2	n/a	TILE	1468	0	2	n/a	n/a	n/a	n/a	n/a	n/a
3111602	RECOG_RESP	n/a	LTP184	ltpFR	16	2	n/a	TILE	1468	0	n/a	n/a	n/a	n/a	n/a	n/a	n/a
3112093	RECOG_CONF	n/a	LTP184	ltpFR	16	2	n/a	TILE	1468	n/a	2	n/a	n/a	n/a	n/a	n/a	n/a
3113838	RECOG_TARGET	n/a	LTP184	ltpFR	16	2	-1	HIKER	708	1	5	-1	n/a	n/a	n/a	n/a	n/a
3114386	RECOG_RESP	n/a	LTP184	ltpFR	16	2	-1	HIKER	708	1	n/a	-1	n/a	n/a	n/a	n/a	n/a
3114834	RECOG_CONF	n/a	LTP184	ltpFR	16	2	-1	HIKER	708	n/a	5	-1	n/a	n/a	n/a	n/a	n/a
3117919	REC_START	n/a	LTP184	ltpFR	16	3	n/a	n/a	n/a	n/a	n/a	n/a	n/a	n/a	n/a	n/a	n/a
3117970	RECOG_TARGET	n/a	LTP184	ltpFR	16	3	0	PRAIRIE	1118	1	5	1	n/a	n/a	n/a	n/a	n/a
3118469	RECOG_RESP	n/a	LTP184	ltpFR	16	3	0	PRAIRIE	1118	1	n/a	1	n/a	n/a	n/a	n/a	n/a
3118961	RECOG_CONF	n/a	LTP184	ltpFR	16	3	0	PRAIRIE	1118	n/a	5	1	n/a	n/a	n/a	n/a	n/a
3120536	RECOG_TARGET	n/a	LTP184	ltpFR	16	3	1	LABYRINTH	791	1	5	0	n/a	n/a	n/a	n/a	n/a
3121141	RECOG_RESP	n/a	LTP184	ltpFR	16	3	1	LABYRINTH	791	1	n/a	0	n/a	n/a	n/a	n/a	n/a
3121655	RECOG_CONF	n/a	LTP184	ltpFR	16	3	1	LABYRINTH	791	n/a	5	0	n/a	n/a	n/a	n/a	n/a
3123231	RECOG_TARGET	n/a	LTP184	ltpFR	16	3	1	LIZARD	834	1	5	1	n/a	n/a	n/a	n/a	n/a
3123872	RECOG_RESP	n/a	LTP184	ltpFR	16	3	1	LIZARD	834	1	n/a	1	n/a	n/a	n/a	n/a	n/a
3124369	RECOG_CONF	n/a	LTP184	ltpFR	16	3	1	LIZARD	834	n/a	5	1	n/a	n/a	n/a	n/a	n/a
3125783	RECOG_TARGET	n/a	LTP184	ltpFR	16	3	1	DISC	473	1	5	0	n/a	n/a	n/a	n/a	n/a
3126227	RECOG_RESP	n/a	LTP184	ltpFR	16	3	1	DISC	473	1	n/a	0	n/a	n/a	n/a	n/a	n/a
3126724	RECOG_CONF	n/a	LTP184	ltpFR	16	3	1	DISC	473	n/a	5	0	n/a	n/a	n/a	n/a	n/a
3128367	RECOG_TARGET	n/a	LTP184	ltpFR	16	3	1	CHECKERS	285	0	2	0	n/a	n/a	n/a	n/a	n/a
3129451	RECOG_RESP	n/a	LTP184	ltpFR	16	3	1	CHECKERS	285	0	n/a	0	n/a	n/a	n/a	n/a	n/a
3129892	RECOG_CONF	n/a	LTP184	ltpFR	16	3	1	CHECKERS	285	n/a	2	0	n/a	n/a	n/a	n/a	n/a
3131595	RECOG_TARGET	n/a	LTP184	ltpFR	16	3	0	TAPE	1433	1	5	0	n/a	n/a	n/a	n/a	n/a
3132042	RECOG_RESP	n/a	LTP184	ltpFR	16	3	0	TAPE	1433	1	n/a	0	n/a	n/a	n/a	n/a	n/a
3132511	RECOG_CONF	n/a	LTP184	ltpFR	16	3	0	TAPE	1433	n/a	5	0	n/a	n/a	n/a	n/a	n/a
3134115	RECOG_TARGET	n/a	LTP184	ltpFR	16	3	-1	FLASK	576	1	5	-1	n/a	n/a	n/a	n/a	n/a
3134546	RECOG_RESP	n/a	LTP184	ltpFR	16	3	-1	FLASK	576	1	n/a	-1	n/a	n/a	n/a	n/a	n/a
3135065	RECOG_CONF	n/a	LTP184	ltpFR	16	3	-1	FLASK	576	n/a	5	-1	n/a	n/a	n/a	n/a	n/a
3136724	RECOG_TARGET	n/a	LTP184	ltpFR	16	3	1	GOVERNOR	651	1	4	1	n/a	n/a	n/a	n/a	n/a
3137325	RECOG_RESP	n/a	LTP184	ltpFR	16	3	1	GOVERNOR	651	1	n/a	1	n/a	n/a	n/a	n/a	n/a
3137829	RECOG_CONF	n/a	LTP184	ltpFR	16	3	1	GOVERNOR	651	n/a	4	1	n/a	n/a	n/a	n/a	n/a
3139402	RECOG_TARGET	n/a	LTP184	ltpFR	16	3	1	TURTLE	1522	1	5	0	n/a	n/a	n/a	n/a	n/a
3139764	RECOG_RESP	n/a	LTP184	ltpFR	16	3	1	TURTLE	1522	1	n/a	0	n/a	n/a	n/a	n/a	n/a
3140223	RECOG_CONF	n/a	LTP184	ltpFR	16	3	1	TURTLE	1522	n/a	5	0	n/a	n/a	n/a	n/a	n/a
3141877	RECOG_TARGET	n/a	LTP184	ltpFR	16	3	1	SERGEANT	1269	1	5	1	n/a	n/a	n/a	n/a	n/a
3142078	RECOG_RESP	n/a	LTP184	ltpFR	16	3	1	SERGEANT	1269	1	n/a	1	n/a	n/a	n/a	n/a	n/a
3142618	RECOG_CONF	n/a	LTP184	ltpFR	16	3	1	SERGEANT	1269	n/a	5	1	n/a	n/a	n/a	n/a	n/a
3144058	RECOG_TARGET	n/a	LTP184	ltpFR	16	3	-1	CATERPILLAR	259	1	5	-1	n/a	n/a	n/a	n/a	n/a
3144370	RECOG_RESP	n/a	LTP184	ltpFR	16	3	-1	CATERPILLAR	259	1	n/a	-1	n/a	n/a	n/a	n/a	n/a
3144893	RECOG_CONF	n/a	LTP184	ltpFR	16	3	-1	CATERPILLAR	259	n/a	5	-1	n/a	n/a	n/a	n/a	n/a
3146318	RECOG_TARGET	n/a	LTP184	ltpFR	16	3	-1	PADDING	999	1	5	-1	n/a	n/a	n/a	n/a	n/a
3146707	RECOG_RESP	n/a	LTP184	ltpFR	16	3	-1	PADDING	999	1	n/a	-1	n/a	n/a	n/a	n/a	n/a
3147217	RECOG_CONF	n/a	LTP184	ltpFR	16	3	-1	PADDING	999	n/a	5	-1	n/a	n/a	n/a	n/a	n/a
3148753	RECOG_TARGET	n/a	LTP184	ltpFR	16	3	1	BREAD	170	1	3	0	n/a	n/a	n/a	n/a	n/a
3149930	RECOG_RESP	n/a	LTP184	ltpFR	16	3	1	BREAD	170	1	n/a	0	n/a	n/a	n/a	n/a	n/a
3150435	RECOG_CONF	n/a	LTP184	ltpFR	16	3	1	BREAD	170	n/a	3	0	n/a	n/a	n/a	n/a	n/a
3152089	RECOG_TARGET	n/a	LTP184	ltpFR	16	3	0	RESTAURANT	1187	1	4	1	n/a	n/a	n/a	n/a	n/a
3152374	RECOG_RESP	n/a	LTP184	ltpFR	16	3	0	RESTAURANT	1187	1	n/a	1	n/a	n/a	n/a	n/a	n/a
3152934	RECOG_CONF	n/a	LTP184	ltpFR	16	3	0	RESTAURANT	1187	n/a	4	1	n/a	n/a	n/a	n/a	n/a
3154475	RECOG_LURE	n/a	LTP184	ltpFR	16	3	n/a	KID	775	1	1	n/a	n/a	n/a	n/a	n/a	n/a
3154795	RECOG_RESP	n/a	LTP184	ltpFR	16	3	n/a	KID	775	1	n/a	n/a	n/a	n/a	n/a	n/a	n/a
3155323	RECOG_CONF	n/a	LTP184	ltpFR	16	3	n/a	KID	775	n/a	1	n/a	n/a	n/a	n/a	n/a	n/a
3156890	RECOG_LURE	n/a	LTP184	ltpFR	16	3	n/a	CLOUD	328	1	4	n/a	n/a	n/a	n/a	n/a	n/a
3157125	RECOG_RESP	n/a	LTP184	ltpFR	16	3	n/a	CLOUD	328	1	n/a	n/a	n/a	n/a	n/a	n/a	n/a
3157673	RECOG_CONF	n/a	LTP184	ltpFR	16	3	n/a	CLOUD	328	n/a	4	n/a	n/a	n/a	n/a	n/a	n/a
3159334	RECOG_TARGET	n/a	LTP184	ltpFR	16	3	1	RAZOR	1171	1	5	0	n/a	n/a	n/a	n/a	n/a
3159649	RECOG_RESP	n/a	LTP184	ltpFR	16	3	1	RAZOR	1171	1	n/a	0	n/a	n/a	n/a	n/a	n/a
3160298	RECOG_CONF	n/a	LTP184	ltpFR	16	3	1	RAZOR	1171	n/a	5	0	n/a	n/a	n/a	n/a	n/a
3161953	RECOG_TARGET	n/a	LTP184	ltpFR	16	3	1	PILOT	1070	1	5	1	n/a	n/a	n/a	n/a	n/a
3162353	RECOG_RESP	n/a	LTP184	ltpFR	16	3	1	PILOT	1070	1	n/a	1	n/a	n/a	n/a	n/a	n/a
3162852	RECOG_CONF	n/a	LTP184	ltpFR	16	3	1	PILOT	1070	n/a	5	1	n/a	n/a	n/a	n/a	n/a
3164380	RECOG_TARGET	n/a	LTP184	ltpFR	16	3	-1	MOUNTAIN	924	1	4	-1	n/a	n/a	n/a	n/a	n/a
3164638	RECOG_RESP	n/a	LTP184	ltpFR	16	3	-1	MOUNTAIN	924	1	n/a	-1	n/a	n/a	n/a	n/a	n/a
3165206	RECOG_CONF	n/a	LTP184	ltpFR	16	3	-1	MOUNTAIN	924	n/a	4	-1	n/a	n/a	n/a	n/a	n/a
3166844	RECOG_LURE	n/a	LTP184	ltpFR	16	3	n/a	GLACIER	638	1	1	n/a	n/a	n/a	n/a	n/a	n/a
3167058	RECOG_RESP	n/a	LTP184	ltpFR	16	3	n/a	GLACIER	638	1	n/a	n/a	n/a	n/a	n/a	n/a	n/a
3167601	RECOG_CONF	n/a	LTP184	ltpFR	16	3	n/a	GLACIER	638	n/a	1	n/a	n/a	n/a	n/a	n/a	n/a
3170774	REC_START	n/a	LTP184	ltpFR	16	4	n/a	n/a	n/a	n/a	n/a	n/a	n/a	n/a	n/a	n/a	n/a
3170826	RECOG_TARGET	n/a	LTP184	ltpFR	16	4	-1	BARRACUDA	90	1	5	-1	n/a	n/a	n/a	n/a	n/a
3173173	RECOG_RESP	n/a	LTP184	ltpFR	16	4	-1	BARRACUDA	90	1	n/a	-1	n/a	n/a	n/a	n/a	n/a
3174750	RECOG_CONF	n/a	LTP184	ltpFR	16	4	-1	BARRACUDA	90	n/a	5	-1	n/a	n/a	n/a	n/a	n/a
3176547	RECOG_TARGET	n/a	LTP184	ltpFR	16	4	-1	PAN	1008	n/a	n/a	-1	n/a	n/a	n/a	n/a	n/a
3183434	RECOG_LURE	n/a	LTP184	ltpFR	16	4	n/a	WINGS	1614	0	1	n/a	n/a	n/a	n/a	n/a	n/a
3185375	RECOG_RESP	n/a	LTP184	ltpFR	16	4	n/a	WINGS	1614	0	n/a	n/a	n/a	n/a	n/a	n/a	n/a
3185845	RECOG_CONF	n/a	LTP184	ltpFR	16	4	n/a	WINGS	1614	n/a	1	n/a	n/a	n/a	n/a	n/a	n/a
3187439	RECOG_TARGET	n/a	LTP184	ltpFR	16	4	-1	SHEPHERD	1283	1	4	-1	n/a	n/a	n/a	n/a	n/a
3187792	RECOG_RESP	n/a	LTP184	ltpFR	16	4	-1	SHEPHERD	1283	1	n/a	-1	n/a	n/a	n/a	n/a	n/a
3188329	RECOG_CONF	n/a	LTP184	ltpFR	16	4	-1	SHEPHERD	1283	n/a	4	-1	n/a	n/a	n/a	n/a	n/a
3189898	RECOG_TARGET	n/a	LTP184	ltpFR	16	4	0	WATER	1594	1	5	0	n/a	n/a	n/a	n/a	n/a
3190104	RECOG_RESP	n/a	LTP184	ltpFR	16	4	0	WATER	1594	1	n/a	0	n/a	n/a	n/a	n/a	n/a
3190654	RECOG_CONF	n/a	LTP184	ltpFR	16	4	0	WATER	1594	n/a	5	0	n/a	n/a	n/a	n/a	n/a
3192241	RECOG_LURE	n/a	LTP184	ltpFR	16	4	n/a	DRINK	498	0	1	n/a	n/a	n/a	n/a	n/a	n/a
3192654	RECOG_RESP	n/a	LTP184	ltpFR	16	4	n/a	DRINK	498	0	n/a	n/a	n/a	n/a	n/a	n/a	n/a
3193387	RECOG_CONF	n/a	LTP184	ltpFR	16	4	n/a	DRINK	498	n/a	1	n/a	n/a	n/a	n/a	n/a	n/a
3195067	RECOG_TARGET	n/a	LTP184	ltpFR	16	4	1	SERVER	1272	1	3	1	n/a	n/a	n/a	n/a	n/a
3195649	RECOG_RESP	n/a	LTP184	ltpFR	16	4	1	SERVER	1272	1	n/a	1	n/a	n/a	n/a	n/a	n/a
3196181	RECOG_CONF	n/a	LTP184	ltpFR	16	4	1	SERVER	1272	n/a	3	1	n/a	n/a	n/a	n/a	n/a
3197637	RECOG_TARGET	n/a	LTP184	ltpFR	16	4	0	TRAITOR	1495	1	4	1	n/a	n/a	n/a	n/a	n/a
3197894	RECOG_RESP	n/a	LTP184	ltpFR	16	4	0	TRAITOR	1495	1	n/a	1	n/a	n/a	n/a	n/a	n/a
3198466	RECOG_CONF	n/a	LTP184	ltpFR	16	4	0	TRAITOR	1495	n/a	4	1	n/a	n/a	n/a	n/a	n/a
3199896	RECOG_TARGET	n/a	LTP184	ltpFR	16	4	-1	CHAIR	274	1	1	-1	n/a	n/a	n/a	n/a	n/a
3200357	RECOG_RESP	n/a	LTP184	ltpFR	16	4	-1	CHAIR	274	1	n/a	-1	n/a	n/a	n/a	n/a	n/a
3200880	RECOG_CONF	n/a	LTP184	ltpFR	16	4	-1	CHAIR	274	n/a	1	-1	n/a	n/a	n/a	n/a	n/a
3202562	RECOG_LURE	n/a	LTP184	ltpFR	16	4	n/a	THERMOMETER	1453	0	4	n/a	n/a	n/a	n/a	n/a	n/a
3203234	RECOG_RESP	n/a	LTP184	ltpFR	16	4	n/a	THERMOMETER	1453	0	n/a	n/a	n/a	n/a	n/a	n/a	n/a
3203774	RECOG_CONF	n/a	LTP184	ltpFR	16	4	n/a	THERMOMETER	1453	n/a	4	n/a	n/a	n/a	n/a	n/a	n/a
3205324	RECOG_TARGET	n/a	LTP184	ltpFR	16	4	-1	BACON	67	1	5	-1	n/a	n/a	n/a	n/a	n/a
3205566	RECOG_RESP	n/a	LTP184	ltpFR	16	4	-1	BACON	67	1	n/a	-1	n/a	n/a	n/a	n/a	n/a
3206109	RECOG_CONF	n/a	LTP184	ltpFR	16	4	-1	BACON	67	n/a	5	-1	n/a	n/a	n/a	n/a	n/a
3207625	RECOG_TARGET	n/a	LTP184	ltpFR	16	4	1	PATRIOT	1026	1	5	1	n/a	n/a	n/a	n/a	n/a
3207965	RECOG_RESP	n/a	LTP184	ltpFR	16	4	1	PATRIOT	1026	1	n/a	1	n/a	n/a	n/a	n/a	n/a
3208543	RECOG_CONF	n/a	LTP184	ltpFR	16	4	1	PATRIOT	1026	n/a	5	1	n/a	n/a	n/a	n/a	n/a
3210159	RECOG_LURE	n/a	LTP184	ltpFR	16	4	n/a	BANDANNA	80	0	1	n/a	n/a	n/a	n/a	n/a	n/a
3210830	RECOG_RESP	n/a	LTP184	ltpFR	16	4	n/a	BANDANNA	80	0	n/a	n/a	n/a	n/a	n/a	n/a	n/a
3211287	RECOG_CONF	n/a	LTP184	ltpFR	16	4	n/a	BANDANNA	80	n/a	1	n/a	n/a	n/a	n/a	n/a	n/a
3212962	RECOG_TARGET	n/a	LTP184	ltpFR	16	4	-1	BARREL	91	1	3	-1	n/a	n/a	n/a	n/a	n/a
3213235	RECOG_RESP	n/a	LTP184	ltpFR	16	4	-1	BARREL	91	1	n/a	-1	n/a	n/a	n/a	n/a	n/a
3213771	RECOG_CONF	n/a	LTP184	ltpFR	16	4	-1	BARREL	91	n/a	3	-1	n/a	n/a	n/a	n/a	n/a
3215278	RECOG_LURE	n/a	LTP184	ltpFR	16	4	n/a	PARTY	1018	1	4	n/a	n/a	n/a	n/a	n/a	n/a
3215525	RECOG_RESP	n/a	LTP184	ltpFR	16	4	n/a	PARTY	1018	1	n/a	n/a	n/a	n/a	n/a	n/a	n/a
3216096	RECOG_CONF	n/a	LTP184	ltpFR	16	4	n/a	PARTY	1018	n/a	4	n/a	n/a	n/a	n/a	n/a	n/a
3217753	RECOG_TARGET	n/a	LTP184	ltpFR	16	4	-1	EGG	518	1	1	-1	n/a	n/a	n/a	n/a	n/a
3218075	RECOG_RESP	n/a	LTP184	ltpFR	16	4	-1	EGG	518	1	n/a	-1	n/a	n/a	n/a	n/a	n/a
3218600	RECOG_CONF	n/a	LTP184	ltpFR	16	4	-1	EGG	518	n/a	1	-1	n/a	n/a	n/a	n/a	n/a
3220274	RECOG_TARGET	n/a	LTP184	ltpFR	16	4	1	SNAIL	1332	1	4	1	n/a	n/a	n/a	n/a	n/a
3220488	RECOG_RESP	n/a	LTP184	ltpFR	16	4	1	SNAIL	1332	1	n/a	1	n/a	n/a	n/a	n/a	n/a
3221164	RECOG_CONF	n/a	LTP184	ltpFR	16	4	1	SNAIL	1332	n/a	4	1	n/a	n/a	n/a	n/a	n/a
3222682	RECOG_LURE	n/a	LTP184	ltpFR	16	4	n/a	TAR	1435	1	1	n/a	n/a	n/a	n/a	n/a	n/a
3222931	RECOG_RESP	n/a	LTP184	ltpFR	16	4	n/a	TAR	1435	1	n/a	n/a	n/a	n/a	n/a	n/a	n/a
3223449	RECOG_CONF	n/a	LTP184	ltpFR	16	4	n/a	TAR	1435	n/a	1	n/a	n/a	n/a	n/a	n/a	n/a
3224980	RECOG_TARGET	n/a	LTP184	ltpFR	16	4	1	MASCARA	875	1	5	0	n/a	n/a	n/a	n/a	n/a
3225461	RECOG_RESP	n/a	LTP184	ltpFR	16	4	1	MASCARA	875	1	n/a	0	n/a	n/a	n/a	n/a	n/a
3226063	RECOG_CONF	n/a	LTP184	ltpFR	16	4	1	MASCARA	875	n/a	5	0	n/a	n/a	n/a	n/a	n/a
3227650	RECOG_LURE	n/a	LTP184	ltpFR	16	4	n/a	CONVENT	370	0	2	n/a	n/a	n/a	n/a	n/a	n/a
3228376	RECOG_RESP	n/a	LTP184	ltpFR	16	4	n/a	CONVENT	370	0	n/a	n/a	n/a	n/a	n/a	n/a	n/a
3228960	RECOG_CONF	n/a	LTP184	ltpFR	16	4	n/a	CONVENT	370	n/a	2	n/a	n/a	n/a	n/a	n/a	n/a
3232062	REC_START	n/a	LTP184	ltpFR	16	5	n/a	n/a	n/a	n/a	n/a	n/a	n/a	n/a	n/a	n/a	n/a
3232117	RECOG_LURE	n/a	LTP184	ltpFR	16	5	n/a	BISCUIT	130	0	3	n/a	n/a	n/a	n/a	n/a	n/a
3232968	RECOG_RESP	n/a	LTP184	ltpFR	16	5	n/a	BISCUIT	130	0	n/a	n/a	n/a	n/a	n/a	n/a	n/a
3233504	RECOG_CONF	n/a	LTP184	ltpFR	16	5	n/a	BISCUIT	130	n/a	3	n/a	n/a	n/a	n/a	n/a	n/a
3235078	RECOG_TARGET	n/a	LTP184	ltpFR	16	5	0	STOMACH	1384	1	5	1	n/a	n/a	n/a	n/a	n/a
3235334	RECOG_RESP	n/a	LTP184	ltpFR	16	5	0	STOMACH	1384	1	n/a	1	n/a	n/a	n/a	n/a	n/a
3235898	RECOG_CONF	n/a	LTP184	ltpFR	16	5	0	STOMACH	1384	n/a	5	1	n/a	n/a	n/a	n/a	n/a
3237477	RECOG_TARGET	n/a	LTP184	ltpFR	16	5	1	COMPANION	357	1	5	1	n/a	n/a	n/a	n/a	n/a
3237715	RECOG_RESP	n/a	LTP184	ltpFR	16	5	1	COMPANION	357	1	n/a	1	n/a	n/a	n/a	n/a	n/a
3238293	RECOG_CONF	n/a	LTP184	ltpFR	16	5	1	COMPANION	357	n/a	5	1	n/a	n/a	n/a	n/a	n/a
3239863	RECOG_TARGET	n/a	LTP184	ltpFR	16	5	0	LIGHTER	819	1	5	0	n/a	n/a	n/a	n/a	n/a
3240501	RECOG_RESP	n/a	LTP184	ltpFR	16	5	0	LIGHTER	819	1	n/a	0	n/a	n/a	n/a	n/a	n/a
3241066	RECOG_CONF	n/a	LTP184	ltpFR	16	5	0	LIGHTER	819	n/a	5	0	n/a	n/a	n/a	n/a	n/a
3242697	RECOG_TARGET	n/a	LTP184	ltpFR	16	5	0	LIMB	822	1	5	0	n/a	n/a	n/a	n/a	n/a
3243196	RECOG_RESP	n/a	LTP184	ltpFR	16	5	0	LIMB	822	1	n/a	0	n/a	n/a	n/a	n/a	n/a
3243740	RECOG_CONF	n/a	LTP184	ltpFR	16	5	0	LIMB	822	n/a	5	0	n/a	n/a	n/a	n/a	n/a
3245408	RECOG_TARGET	n/a	LTP184	ltpFR	16	5	0	RUM	1217	1	5	0	n/a	n/a	n/a	n/a	n/a
3245860	RECOG_RESP	n/a	LTP184	ltpFR	16	5	0	RUM	1217	1	n/a	0	n/a	n/a	n/a	n/a	n/a
3246404	RECOG_CONF	n/a	LTP184	ltpFR	16	5	0	RUM	1217	n/a	5	0	n/a	n/a	n/a	n/a	n/a
3248017	RECOG_LURE	n/a	LTP184	ltpFR	16	5	n/a	HEADBAND	696	0	2	n/a	n/a	n/a	n/a	n/a	n/a
3248734	RECOG_RESP	n/a	LTP184	ltpFR	16	5	n/a	HEADBAND	696	0	n/a	n/a	n/a	n/a	n/a	n/a	n/a
3249224	RECOG_CONF	n/a	LTP184	ltpFR	16	5	n/a	HEADBAND	696	n/a	2	n/a	n/a	n/a	n/a	n/a	n/a
3250855	RECOG_TARGET	n/a	LTP184	ltpFR	16	5	-1	BANKER	84	1	5	-1	n/a	n/a	n/a	n/a	n/a
3251233	RECOG_RESP	n/a	LTP184	ltpFR	16	5	-1	BANKER	84	1	n/a	-1	n/a	n/a	n/a	n/a	n/a
3251802	RECOG_CONF	n/a	LTP184	ltpFR	16	5	-1	BANKER	84	n/a	5	-1	n/a	n/a	n/a	n/a	n/a
3253415	RECOG_LURE	n/a	LTP184	ltpFR	16	5	n/a	SLIME	1327	0	5	n/a	n/a	n/a	n/a	n/a	n/a
3253971	RECOG_RESP	n/a	LTP184	ltpFR	16	5	n/a	SLIME	1327	0	n/a	n/a	n/a	n/a	n/a	n/a	n/a
3254496	RECOG_CONF	n/a	LTP184	ltpFR	16	5	n/a	SLIME	1327	n/a	5	n/a	n/a	n/a	n/a	n/a	n/a
3256064	RECOG_TARGET	n/a	LTP184	ltpFR	16	5	-1	CHIMNEY	301	1	5	-1	n/a	n/a	n/a	n/a	n/a
3256739	RECOG_RESP	n/a	LTP184	ltpFR	16	5	-1	CHIMNEY	301	1	n/a	-1	n/a	n/a	n/a	n/a	n/a
3257270	RECOG_CONF	n/a	LTP184	ltpFR	16	5	-1	CHIMNEY	301	n/a	5	-1	n/a	n/a	n/a	n/a	n/a
3258824	RECOG_TARGET	n/a	LTP184	ltpFR	16	5	0	LAMB	797	1	3	1	n/a	n/a	n/a	n/a	n/a
3259637	RECOG_RESP	n/a	LTP184	ltpFR	16	5	0	LAMB	797	1	n/a	1	n/a	n/a	n/a	n/a	n/a
3260285	RECOG_CONF	n/a	LTP184	ltpFR	16	5	0	LAMB	797	n/a	3	1	n/a	n/a	n/a	n/a	n/a
3262070	RECOG_TARGET	n/a	LTP184	ltpFR	16	5	-1	SEAT	1264	1	4	-1	n/a	n/a	n/a	n/a	n/a
3262496	RECOG_RESP	n/a	LTP184	ltpFR	16	5	-1	SEAT	1264	1	n/a	-1	n/a	n/a	n/a	n/a	n/a
3263026	RECOG_CONF	n/a	LTP184	ltpFR	16	5	-1	SEAT	1264	n/a	4	-1	n/a	n/a	n/a	n/a	n/a
3264407	RECOG_TARGET	n/a	LTP184	ltpFR	16	5	0	ROOST	1208	1	5	1	n/a	n/a	n/a	n/a	n/a
3264752	RECOG_RESP	n/a	LTP184	ltpFR	16	5	0	ROOST	1208	1	n/a	1	n/a	n/a	n/a	n/a	n/a
3265261	RECOG_CONF	n/a	LTP184	ltpFR	16	5	0	ROOST	1208	n/a	5	1	n/a	n/a	n/a	n/a	n/a
3266838	RECOG_TARGET	n/a	LTP184	ltpFR	16	5	-1	LIMOUSINE	824	1	5	-1	n/a	n/a	n/a	n/a	n/a
3267298	RECOG_RESP	n/a	LTP184	ltpFR	16	5	-1	LIMOUSINE	824	1	n/a	-1	n/a	n/a	n/a	n/a	n/a
3267875	RECOG_CONF	n/a	LTP184	ltpFR	16	5	-1	LIMOUSINE	824	n/a	5	-1	n/a	n/a	n/a	n/a	n/a
3269409	RECOG_TARGET	n/a	LTP184	ltpFR	16	5	1	BOY	161	1	5	1	n/a	n/a	n/a	n/a	n/a
3269760	RECOG_RESP	n/a	LTP184	ltpFR	16	5	1	BOY	161	1	n/a	1	n/a	n/a	n/a	n/a	n/a
3270430	RECOG_CONF	n/a	LTP184	ltpFR	16	5	1	BOY	161	n/a	5	1	n/a	n/a	n/a	n/a	n/a
3271984	RECOG_TARGET	n/a	LTP184	ltpFR	16	5	0	CANDIDATE	228	1	1	1	n/a	n/a	n/a	n/a	n/a
3272412	RECOG_RESP	n/a	LTP184	ltpFR	16	5	0	CANDIDATE	228	1	n/a	1	n/a	n/a	n/a	n/a	n/a
3272875	RECOG_CONF	n/a	LTP184	ltpFR	16	5	0	CANDIDATE	228	n/a	1	1	n/a	n/a	n/a	n/a	n/a
3274533	RECOG_TARGET	n/a	LTP184	ltpFR	16	5	1	CANAL	226	1	5	0	n/a	n/a	n/a	n/a	n/a
3274878	RECOG_RESP	n/a	LTP184	ltpFR	16	5	1	CANAL	226	1	n/a	0	n/a	n/a	n/a	n/a	n/a
3275438	RECOG_CONF	n/a	LTP184	ltpFR	16	5	1	CANAL	226	n/a	5	0	n/a	n/a	n/a	n/a	n/a
3277026	RECOG_LURE	n/a	LTP184	ltpFR	16	5	n/a	CUSTOMER	430	1	3	n/a	n/a	n/a	n/a	n/a	n/a
3277520	RECOG_RESP	n/a	LTP184	ltpFR	16	5	n/a	CUSTOMER	430	1	n/a	n/a	n/a	n/a	n/a	n/a	n/a
3278026	RECOG_CONF	n/a	LTP184	ltpFR	16	5	n/a	CUSTOMER	430	n/a	3	n/a	n/a	n/a	n/a	n/a	n/a
3279686	RECOG_LURE	n/a	LTP184	ltpFR	16	5	n/a	CHERRY	293	0	4	n/a	n/a	n/a	n/a	n/a	n/a
3280033	RECOG_RESP_VV	n/a	LTP184	ltpFR	16	5	n/a	CHERRY	293	1	n/a	n/a	n/a	n/a	n/a	n/a	n/a
3281275	RECOG_RESP	n/a	LTP184	ltpFR	16	5	n/a	CHERRY	293	0	n/a	n/a	n/a	n/a	n/a	n/a	n/a
3281950	RECOG_CONF	n/a	LTP184	ltpFR	16	5	n/a	CHERRY	293	n/a	4	n/a	n/a	n/a	n/a	n/a	n/a
3283668	RECOG_TARGET	n/a	LTP184	ltpFR	16	5	1	LEOPARD	812	1	5	1	n/a	n/a	n/a	n/a	n/a
3284288	RECOG_RESP	n/a	LTP184	ltpFR	16	5	1	LEOPARD	812	1	n/a	1	n/a	n/a	n/a	n/a	n/a
3284777	RECOG_CONF	n/a	LTP184	ltpFR	16	5	1	LEOPARD	812	n/a	5	1	n/a	n/a	n/a	n/a	n/a
3298871	REC_START	n/a	LTP184	ltpFR	16	6	n/a	n/a	n/a	n/a	n/a	n/a	n/a	n/a	n/a	n/a	n/a
3298919	RECOG_TARGET	n/a	LTP184	ltpFR	16	6	0	GRILL	661	1	5	1	n/a	n/a	n/a	n/a	n/a
3299429	RECOG_RESP	n/a	LTP184	ltpFR	16	6	0	GRILL	661	1	n/a	1	n/a	n/a	n/a	n/a	n/a
3299940	RECOG_CONF	n/a	LTP184	ltpFR	16	6	0	GRILL	661	n/a	5	1	n/a	n/a	n/a	n/a	n/a
3301369	RECOG_TARGET	n/a	LTP184	ltpFR	16	6	1	MOTEL	919	1	5	0	n/a	n/a	n/a	n/a	n/a
3301638	RECOG_RESP	n/a	LTP184	ltpFR	16	6	1	MOTEL	919	1	n/a	0	n/a	n/a	n/a	n/a	n/a
3302148	RECOG_CONF	n/a	LTP184	ltpFR	16	6	1	MOTEL	919	n/a	5	0	n/a	n/a	n/a	n/a	n/a
3303670	RECOG_TARGET	n/a	LTP184	ltpFR	16	6	1	DETECTIVE	454	1	4	1	n/a	n/a	n/a	n/a	n/a
3303798	RECOG_RESP	n/a	LTP184	ltpFR	16	6	1	DETECTIVE	454	1	n/a	1	n/a	n/a	n/a	n/a	n/a
3304353	RECOG_CONF	n/a	LTP184	ltpFR	16	6	1	DETECTIVE	454	n/a	4	1	n/a	n/a	n/a	n/a	n/a
3305728	RECOG_TARGET	n/a	LTP184	ltpFR	16	6	0	HARP	689	1	3	1	n/a	n/a	n/a	n/a	n/a
3306002	RECOG_RESP	n/a	LTP184	ltpFR	16	6	0	HARP	689	1	n/a	1	n/a	n/a	n/a	n/a	n/a
3306484	RECOG_CONF	n/a	LTP184	ltpFR	16	6	0	HARP	689	n/a	3	1	n/a	n/a	n/a	n/a	n/a
3308104	RECOG_TARGET	n/a	LTP184	ltpFR	16	6	1	PUCK	1138	0	2	0	n/a	n/a	n/a	n/a	n/a
3308682	RECOG_RESP	n/a	LTP184	ltpFR	16	6	1	PUCK	1138	0	n/a	0	n/a	n/a	n/a	n/a	n/a
3309153	RECOG_CONF	n/a	LTP184	ltpFR	16	6	1	PUCK	1138	n/a	2	0	n/a	n/a	n/a	n/a	n/a
3310596	RECOG_TARGET	n/a	LTP184	ltpFR	16	6	1	VINE	1568	1	3	0	n/a	n/a	n/a	n/a	n/a
3311029	RECOG_RESP	n/a	LTP184	ltpFR	16	6	1	VINE	1568	1	n/a	0	n/a	n/a	n/a	n/a	n/a
3311578	RECOG_CONF	n/a	LTP184	ltpFR	16	6	1	VINE	1568	n/a	3	0	n/a	n/a	n/a	n/a	n/a
3313022	RECOG_TARGET	n/a	LTP184	ltpFR	16	6	0	HEDGE	699	1	4	0	n/a	n/a	n/a	n/a	n/a
3313306	RECOG_RESP	n/a	LTP184	ltpFR	16	6	0	HEDGE	699	1	n/a	0	n/a	n/a	n/a	n/a	n/a
3313882	RECOG_CONF	n/a	LTP184	ltpFR	16	6	0	HEDGE	699	n/a	4	0	n/a	n/a	n/a	n/a	n/a
3315422	RECOG_TARGET	n/a	LTP184	ltpFR	16	6	0	RAM	1165	1	5	1	n/a	n/a	n/a	n/a	n/a
3315628	RECOG_RESP	n/a	LTP184	ltpFR	16	6	0	RAM	1165	1	n/a	1	n/a	n/a	n/a	n/a	n/a
3316167	RECOG_CONF	n/a	LTP184	ltpFR	16	6	0	RAM	1165	n/a	5	1	n/a	n/a	n/a	n/a	n/a
3317713	RECOG_TARGET	n/a	LTP184	ltpFR	16	6	1	HOOP	716	1	5	0	n/a	n/a	n/a	n/a	n/a
3317918	RECOG_RESP	n/a	LTP184	ltpFR	16	6	1	HOOP	716	1	n/a	0	n/a	n/a	n/a	n/a	n/a
3318461	RECOG_CONF	n/a	LTP184	ltpFR	16	6	1	HOOP	716	n/a	5	0	n/a	n/a	n/a	n/a	n/a
3319854	RECOG_TARGET	n/a	LTP184	ltpFR	16	6	1	TERMINAL	1450	1	3	0	n/a	n/a	n/a	n/a	n/a
3320121	RECOG_RESP	n/a	LTP184	ltpFR	16	6	1	TERMINAL	1450	1	n/a	0	n/a	n/a	n/a	n/a	n/a
3320616	RECOG_CONF	n/a	LTP184	ltpFR	16	6	1	TERMINAL	1450	n/a	3	0	n/a	n/a	n/a	n/a	n/a
3322241	RECOG_TARGET	n/a	LTP184	ltpFR	16	6	-1	PUDDLE	1140	1	4	-1	n/a	n/a	n/a	n/a	n/a
3322763	RECOG_RESP	n/a	LTP184	ltpFR	16	6	-1	PUDDLE	1140	1	n/a	-1	n/a	n/a	n/a	n/a	n/a
3323280	RECOG_CONF	n/a	LTP184	ltpFR	16	6	-1	PUDDLE	1140	n/a	4	-1	n/a	n/a	n/a	n/a	n/a
3324873	RECOG_TARGET	n/a	LTP184	ltpFR	16	6	1	TEAPOT	1442	0	2	0	n/a	n/a	n/a	n/a	n/a
3325611	RECOG_RESP	n/a	LTP184	ltpFR	16	6	1	TEAPOT	1442	0	n/a	0	n/a	n/a	n/a	n/a	n/a
3326049	RECOG_CONF	n/a	LTP184	ltpFR	16	6	1	TEAPOT	1442	n/a	2	0	n/a	n/a	n/a	n/a	n/a
3327744	RECOG_TARGET	n/a	LTP184	ltpFR	16	6	0	TROUSERS	1510	1	3	0	n/a	n/a	n/a	n/a	n/a
3327861	RECOG_RESP	n/a	LTP184	ltpFR	16	6	0	TROUSERS	1510	1	n/a	0	n/a	n/a	n/a	n/a	n/a
3328386	RECOG_CONF	n/a	LTP184	ltpFR	16	6	0	TROUSERS	1510	n/a	3	0	n/a	n/a	n/a	n/a	n/a
3329919	RECOG_TARGET	n/a	LTP184	ltpFR	16	6	1	CABLE	213	1	4	0	n/a	n/a	n/a	n/a	n/a
