onset	duration	trial_type	sample	stim_file	subject	experiment	session	trial	task	item_name	item_num	recog_resp	recog_conf	resp	color_r	color_g	color_b	case	font
404.19	n/a	SESS_START	202095	n/a	LTP182	ltpFR	0	n/a	n/a	n/a	n/a	1	3	n/a	n/a	n/a	n/a	n/a	n/a
617.752	n/a	WORD	308876	wordpools/wasnorm_wordpool_less_exclusions.txt	LTP182	ltpFR	0	1	-1	PEANUT	1032	0	n/a	-1	1.0	1.0	1	upper	Verdana.ttf
621.668	n/a	WORD	310834	wordpools/wasnorm_wordpool_less_exclusions.txt	LTP182	ltpFR	0	1	-1	REFRIGERATOR	1179	n/a	n/a	-1	1.0	1.0	1	upper	Verdana.ttf
625.816	n/a	WORD	312908	wordpools/wasnorm_wordpool_less_exclusions.txt	LTP182	ltpFR	0	1	-1	VEAL	1551	n/a	n/a	-1	1.0	1.0	1	upper	Verdana.ttf
629.798	n/a	WORD	314899	wordpools/wasnorm_wordpool_less_exclusions.txt	LTP182	ltpFR	0	1	-1	CHAMPION	279	n/a	n/a	-1	1.0	1.0	1	upper	Verdana.ttf
633.932	n/a	WORD	316966	wordpools/wasnorm_wordpool_less_exclusions.txt	LTP182	ltpFR	0	1	-1	TROPHY	1509	n/a	n/a	-1	1.0	1.0	1	upper	Verdana.ttf
638.082	n/a	WORD	319041	wordpools/wasnorm_wordpool_less_exclusions.txt	LTP182	ltpFR	0	1	-1	COUCH	386	n/a	n/a	-1	1.0	1.0	1	upper	Verdana.ttf
642.046	n/a	WORD	321023	wordpools/wasnorm_wordpool_less_exclusions.txt	LTP182	ltpFR	0	1	-1	ROOF	1205	n/a	n/a	-1	1.0	1.0	1	upper	Verdana.ttf
646.01	n/a	WORD	323005	wordpools/wasnorm_wordpool_less_exclusions.txt	LTP182	ltpFR	0	1	-1	CUFF	423	n/a	n/a	-1	1.0	1.0	1	upper	Verdana.ttf
650.042	n/a	WORD	325021	wordpools/wasnorm_wordpool_less_exclusions.txt	LTP182	ltpFR	0	1	-1	LAPEL	800	n/a	n/a	-1	1.0	1.0	1	upper	Verdana.ttf
653.992	n/a	WORD	326996	wordpools/wasnorm_wordpool_less_exclusions.txt	LTP182	ltpFR	0	1	-1	DOUGH	489	n/a	n/a	-1	1.0	1.0	1	upper	Verdana.ttf
658.208	n/a	WORD	329104	wordpools/wasnorm_wordpool_less_exclusions.txt	LTP182	ltpFR	0	1	-1	OWL	992	n/a	n/a	-1	1.0	1.0	1	upper	Verdana.ttf
662.174	n/a	WORD	331087	wordpools/wasnorm_wordpool_less_exclusions.txt	LTP182	ltpFR	0	1	-1	SCREEN	1253	n/a	n/a	-1	1.0	1.0	1	upper	Verdana.ttf
666.054	n/a	WORD	333027	wordpools/wasnorm_wordpool_less_exclusions.txt	LTP182	ltpFR	0	1	-1	OFFICER	973	n/a	n/a	-1	1.0	1.0	1	upper	Verdana.ttf
669.904	n/a	WORD	334952	wordpools/wasnorm_wordpool_less_exclusions.txt	LTP182	ltpFR	0	1	-1	ANGEL	22	n/a	n/a	-1	1.0	1.0	1	upper	Verdana.ttf
673.784	n/a	WORD	336892	wordpools/wasnorm_wordpool_less_exclusions.txt	LTP182	ltpFR	0	1	-1	CHAIR	274	n/a	n/a	-1	1.0	1.0	1	upper	Verdana.ttf
677.632	n/a	WORD	338816	wordpools/wasnorm_wordpool_less_exclusions.txt	LTP182	ltpFR	0	1	-1	TWISTER	1530	n/a	n/a	-1	1.0	1.0	1	upper	Verdana.ttf
683.738	n/a	REC_START	341869	n/a	LTP182	ltpFR	0	1	n/a	n/a	n/a	n/a	n/a	n/a	n/a	n/a	n/a	n/a	n/a
684.116	n/a	REC_WORD_VV	342058	wordpools/wasnorm_wordpool_less_exclusions.txt	LTP182	ltpFR	0	1	n/a	<>	-1	n/a	n/a	n/a	n/a	n/a	n/a	n/a	n/a
684.866	n/a	REC_WORD	342433	wordpools/wasnorm_wordpool_less_exclusions.txt	LTP182	ltpFR	0	1	-1	CHAIR	274	n/a	n/a	-1	n/a	n/a	n/a	n/a	n/a
685.65	n/a	REC_WORD	342825	wordpools/wasnorm_wordpool_less_exclusions.txt	LTP182	ltpFR	0	1	-1	TWISTER	1530	n/a	n/a	-1	n/a	n/a	n/a	n/a	n/a
686.956	n/a	REC_WORD	343478	wordpools/wasnorm_wordpool_less_exclusions.txt	LTP182	ltpFR	0	1	-1	VEAL	1551	n/a	n/a	-1	n/a	n/a	n/a	n/a	n/a
687.654	n/a	REC_WORD	343827	wordpools/wasnorm_wordpool_less_exclusions.txt	LTP182	ltpFR	0	1	-1	REFRIGERATOR	1179	n/a	n/a	-1	n/a	n/a	n/a	n/a	n/a
688.874	n/a	REC_WORD	344437	wordpools/wasnorm_wordpool_less_exclusions.txt	LTP182	ltpFR	0	1	-1	PEANUT	1032	n/a	n/a	-1	n/a	n/a	n/a	n/a	n/a
690.648	n/a	REC_WORD	345324	wordpools/wasnorm_wordpool_less_exclusions.txt	LTP182	ltpFR	0	1	-1	CUFF	423	n/a	n/a	-1	n/a	n/a	n/a	n/a	n/a
692.15	n/a	REC_WORD	346075	wordpools/wasnorm_wordpool_less_exclusions.txt	LTP182	ltpFR	0	1	-1	LAPEL	800	n/a	n/a	-1	n/a	n/a	n/a	n/a	n/a
694.2	n/a	REC_WORD_VV	347100	wordpools/wasnorm_wordpool_less_exclusions.txt	LTP182	ltpFR	0	1	n/a	<>	-1	n/a	n/a	n/a	n/a	n/a	n/a	n/a	n/a
695.2	n/a	REC_WORD_VV	347600	wordpools/wasnorm_wordpool_less_exclusions.txt	LTP182	ltpFR	0	1	n/a	<>	-1	n/a	n/a	n/a	n/a	n/a	n/a	n/a	n/a
701.872	n/a	REC_WORD	350936	wordpools/wasnorm_wordpool_less_exclusions.txt	LTP182	ltpFR	0	1	n/a	COUGH	-1	n/a	n/a	n/a	n/a	n/a	n/a	n/a	n/a
704.222	n/a	REC_WORD	352111	wordpools/wasnorm_wordpool_less_exclusions.txt	LTP182	ltpFR	0	1	-1	CHAIR	274	n/a	n/a	-1	n/a	n/a	n/a	n/a	n/a
708.72	n/a	REC_WORD_VV	354360	wordpools/wasnorm_wordpool_less_exclusions.txt	LTP182	ltpFR	0	1	n/a	<>	-1	n/a	n/a	n/a	n/a	n/a	n/a	n/a	n/a
709.72	n/a	REC_WORD_VV	354860	wordpools/wasnorm_wordpool_less_exclusions.txt	LTP182	ltpFR	0	1	n/a	<>	-1	n/a	n/a	n/a	n/a	n/a	n/a	n/a	n/a
710.72	n/a	REC_WORD_VV	355360	wordpools/wasnorm_wordpool_less_exclusions.txt	LTP182	ltpFR	0	1	n/a	<>	-1	n/a	n/a	n/a	n/a	n/a	n/a	n/a	n/a
728.106	n/a	REC_WORD	364053	wordpools/wasnorm_wordpool_less_exclusions.txt	LTP182	ltpFR	0	1	-1	DOUGH	489	n/a	n/a	-1	n/a	n/a	n/a	n/a	n/a
766.004	n/a	WORD	383002	wordpools/wasnorm_wordpool_less_exclusions.txt	LTP182	ltpFR	0	2	-1	ARCHITECT	36	n/a	n/a	-1	1.0	1.0	1	upper	Verdana.ttf
769.968	n/a	WORD	384984	wordpools/wasnorm_wordpool_less_exclusions.txt	LTP182	ltpFR	0	2	-1	SHACK	1273	n/a	n/a	-1	1.0	1.0	1	upper	Verdana.ttf
773.966	n/a	WORD	386983	wordpools/wasnorm_wordpool_less_exclusions.txt	LTP182	ltpFR	0	2	-1	POLYESTER	1100	n/a	n/a	-1	1.0	1.0	1	upper	Verdana.ttf
778.048	n/a	WORD	389024	wordpools/wasnorm_wordpool_less_exclusions.txt	LTP182	ltpFR	0	2	-1	COIN	343	n/a	n/a	-1	1.0	1.0	1	upper	Verdana.ttf
782.048	n/a	WORD	391024	wordpools/wasnorm_wordpool_less_exclusions.txt	LTP182	ltpFR	0	2	-1	GUARD	667	n/a	n/a	-1	1.0	1.0	1	upper	Verdana.ttf
786.248	n/a	WORD	393124	wordpools/wasnorm_wordpool_less_exclusions.txt	LTP182	ltpFR	0	2	-1	HALL	677	n/a	n/a	-1	1.0	1.0	1	upper	Verdana.ttf
790.346	n/a	WORD	395173	wordpools/wasnorm_wordpool_less_exclusions.txt	LTP182	ltpFR	0	2	-1	SUIT	1402	n/a	n/a	-1	1.0	1.0	1	upper	Verdana.ttf
794.196	n/a	WORD	397098	wordpools/wasnorm_wordpool_less_exclusions.txt	LTP182	ltpFR	0	2	-1	CAPITAL	238	n/a	n/a	-1	1.0	1.0	1	upper	Verdana.ttf
798.292	n/a	WORD	399146	wordpools/wasnorm_wordpool_less_exclusions.txt	LTP182	ltpFR	0	2	-1	COLUMN	350	n/a	n/a	-1	1.0	1.0	1	upper	Verdana.ttf
802.196	n/a	WORD	401098	wordpools/wasnorm_wordpool_less_exclusions.txt	LTP182	ltpFR	0	2	-1	ATTORNEY	58	n/a	n/a	-1	1.0	1.0	1	upper	Verdana.ttf
806.04	n/a	WORD	403020	wordpools/wasnorm_wordpool_less_exclusions.txt	LTP182	ltpFR	0	2	-1	ROOT	1210	n/a	n/a	-1	1.0	1.0	1	upper	Verdana.ttf
809.922	n/a	WORD	404961	wordpools/wasnorm_wordpool_less_exclusions.txt	LTP182	ltpFR	0	2	-1	FOREST	593	n/a	n/a	-1	1.0	1.0	1	upper	Verdana.ttf
813.788	n/a	WORD	406894	wordpools/wasnorm_wordpool_less_exclusions.txt	LTP182	ltpFR	0	2	-1	FATHER	554	n/a	n/a	-1	1.0	1.0	1	upper	Verdana.ttf
817.75	n/a	WORD	408875	wordpools/wasnorm_wordpool_less_exclusions.txt	LTP182	ltpFR	0	2	-1	EDITOR	516	n/a	n/a	-1	1.0	1.0	1	upper	Verdana.ttf
821.616	n/a	WORD	410808	wordpools/wasnorm_wordpool_less_exclusions.txt	LTP182	ltpFR	0	2	-1	OINTMENT	974	n/a	n/a	-1	1.0	1.0	1	upper	Verdana.ttf
825.464	n/a	WORD	412732	wordpools/wasnorm_wordpool_less_exclusions.txt	LTP182	ltpFR	0	2	-1	RAZOR	1171	n/a	n/a	-1	1.0	1.0	1	upper	Verdana.ttf
831.438	n/a	REC_START	415719	n/a	LTP182	ltpFR	0	2	n/a	n/a	n/a	n/a	n/a	n/a	n/a	n/a	n/a	n/a	n/a
832.64	n/a	REC_WORD_VV	416320	wordpools/wasnorm_wordpool_less_exclusions.txt	LTP182	ltpFR	0	2	n/a	<>	-1	n/a	n/a	n/a	n/a	n/a	n/a	n/a	n/a
834.506	n/a	REC_WORD	417253	wordpools/wasnorm_wordpool_less_exclusions.txt	LTP182	ltpFR	0	2	-1	ROOT	1210	n/a	n/a	-1	n/a	n/a	n/a	n/a	n/a
835.972	n/a	REC_WORD	417986	wordpools/wasnorm_wordpool_less_exclusions.txt	LTP182	ltpFR	0	2	-1	FATHER	554	n/a	n/a	-1	n/a	n/a	n/a	n/a	n/a
836.922	n/a	REC_WORD	418461	wordpools/wasnorm_wordpool_less_exclusions.txt	LTP182	ltpFR	0	2	-1	OINTMENT	974	n/a	n/a	-1	n/a	n/a	n/a	n/a	n/a
839.346	n/a	REC_WORD_VV	419673	wordpools/wasnorm_wordpool_less_exclusions.txt	LTP182	ltpFR	0	2	n/a	<>	-1	n/a	n/a	n/a	n/a	n/a	n/a	n/a	n/a
840.348	n/a	REC_WORD_VV	420174	wordpools/wasnorm_wordpool_less_exclusions.txt	LTP182	ltpFR	0	2	n/a	<>	-1	n/a	n/a	n/a	n/a	n/a	n/a	n/a	n/a
843.66	n/a	REC_WORD	421830	wordpools/wasnorm_wordpool_less_exclusions.txt	LTP182	ltpFR	0	2	-1	ATTORNEY	58	n/a	n/a	-1	n/a	n/a	n/a	n/a	n/a
850.638	n/a	REC_WORD	425319	wordpools/wasnorm_wordpool_less_exclusions.txt	LTP182	ltpFR	0	2	-1	ARCHITECT	36	n/a	n/a	-1	n/a	n/a	n/a	n/a	n/a
860.738	n/a	REC_WORD	430369	wordpools/wasnorm_wordpool_less_exclusions.txt	LTP182	ltpFR	0	2	-1	SUIT	1402	n/a	n/a	-1	n/a	n/a	n/a	n/a	n/a
869.522	n/a	REC_WORD	434761	wordpools/wasnorm_wordpool_less_exclusions.txt	LTP182	ltpFR	0	2	-1	CUFF	423	n/a	n/a	-1	n/a	n/a	n/a	n/a	n/a
870.128	n/a	REC_WORD	435064	wordpools/wasnorm_wordpool_less_exclusions.txt	LTP182	ltpFR	0	2	-1	COIN	343	n/a	n/a	-1	n/a	n/a	n/a	n/a	n/a
892.142	n/a	REC_WORD	446071	wordpools/wasnorm_wordpool_less_exclusions.txt	LTP182	ltpFR	0	2	-1	FOREST	593	n/a	n/a	-1	n/a	n/a	n/a	n/a	n/a
915.608	n/a	WORD	457804	wordpools/wasnorm_wordpool_less_exclusions.txt	LTP182	ltpFR	0	3	-1	STEREO	1378	n/a	n/a	-1	1.0	1.0	1	upper	Verdana.ttf
919.79	n/a	WORD	459895	wordpools/wasnorm_wordpool_less_exclusions.txt	LTP182	ltpFR	0	3	-1	COLLAR	345	n/a	n/a	-1	1.0	1.0	1	upper	Verdana.ttf
923.638	n/a	WORD	461819	wordpools/wasnorm_wordpool_less_exclusions.txt	LTP182	ltpFR	0	3	-1	TROUSERS	1510	n/a	n/a	-1	1.0	1.0	1	upper	Verdana.ttf
927.47	n/a	WORD	463735	wordpools/wasnorm_wordpool_less_exclusions.txt	LTP182	ltpFR	0	3	-1	POCKET	1093	n/a	n/a	-1	1.0	1.0	1	upper	Verdana.ttf
931.384	n/a	WORD	465692	wordpools/wasnorm_wordpool_less_exclusions.txt	LTP182	ltpFR	0	3	-1	LANDSCAPE	799	n/a	n/a	-1	1.0	1.0	1	upper	Verdana.ttf
935.334	n/a	WORD	467667	wordpools/wasnorm_wordpool_less_exclusions.txt	LTP182	ltpFR	0	3	-1	EMPLOYER	532	n/a	n/a	-1	1.0	1.0	1	upper	Verdana.ttf
939.432	n/a	WORD	469716	wordpools/wasnorm_wordpool_less_exclusions.txt	LTP182	ltpFR	0	3	-1	MANAGER	863	n/a	n/a	-1	1.0	1.0	1	upper	Verdana.ttf
943.614	n/a	WORD	471807	wordpools/wasnorm_wordpool_less_exclusions.txt	LTP182	ltpFR	0	3	-1	TIE	1466	n/a	n/a	-1	1.0	1.0	1	upper	Verdana.ttf
947.446	n/a	WORD	473723	wordpools/wasnorm_wordpool_less_exclusions.txt	LTP182	ltpFR	0	3	-1	OBOE	969	n/a	n/a	-1	1.0	1.0	1	upper	Verdana.ttf
951.314	n/a	WORD	475657	wordpools/wasnorm_wordpool_less_exclusions.txt	LTP182	ltpFR	0	3	-1	WHEEL	1603	n/a	n/a	-1	1.0	1.0	1	upper	Verdana.ttf
955.276	n/a	WORD	477638	wordpools/wasnorm_wordpool_less_exclusions.txt	LTP182	ltpFR	0	3	-1	CRAB	397	n/a	n/a	-1	1.0	1.0	1	upper	Verdana.ttf
959.198	n/a	WORD	479599	wordpools/wasnorm_wordpool_less_exclusions.txt	LTP182	ltpFR	0	3	-1	LID	817	n/a	n/a	-1	1.0	1.0	1	upper	Verdana.ttf
963.16	n/a	WORD	481580	wordpools/wasnorm_wordpool_less_exclusions.txt	LTP182	ltpFR	0	3	-1	DRINK	498	n/a	n/a	-1	1.0	1.0	1	upper	Verdana.ttf
967.322	n/a	WORD	483661	wordpools/wasnorm_wordpool_less_exclusions.txt	LTP182	ltpFR	0	3	-1	HIKER	708	n/a	n/a	-1	1.0	1.0	1	upper	Verdana.ttf
971.22	n/a	WORD	485610	wordpools/wasnorm_wordpool_less_exclusions.txt	LTP182	ltpFR	0	3	-1	SUN	1406	n/a	n/a	-1	1.0	1.0	1	upper	Verdana.ttf
975.186	n/a	WORD	487593	wordpools/wasnorm_wordpool_less_exclusions.txt	LTP182	ltpFR	0	3	-1	ROCKET	1202	n/a	n/a	-1	1.0	1.0	1	upper	Verdana.ttf
980.874	n/a	REC_START	490437	n/a	LTP182	ltpFR	0	3	n/a	n/a	n/a	n/a	n/a	n/a	n/a	n/a	n/a	n/a	n/a
980.928	n/a	REC_WORD_VV	490464	wordpools/wasnorm_wordpool_less_exclusions.txt	LTP182	ltpFR	0	3	n/a	<>	-1	n/a	n/a	n/a	n/a	n/a	n/a	n/a	n/a
982.212	n/a	REC_WORD	491106	wordpools/wasnorm_wordpool_less_exclusions.txt	LTP182	ltpFR	0	3	-1	SUN	1406	n/a	n/a	-1	n/a	n/a	n/a	n/a	n/a
983.512	n/a	REC_WORD	491756	wordpools/wasnorm_wordpool_less_exclusions.txt	LTP182	ltpFR	0	3	-1	ROCKET	1202	n/a	n/a	-1	n/a	n/a	n/a	n/a	n/a
984.536	n/a	REC_WORD	492268	wordpools/wasnorm_wordpool_less_exclusions.txt	LTP182	ltpFR	0	3	-1	TROUSERS	1510	n/a	n/a	-1	n/a	n/a	n/a	n/a	n/a
985.536	n/a	REC_WORD_VV	492768	wordpools/wasnorm_wordpool_less_exclusions.txt	LTP182	ltpFR	0	3	n/a	<>	-1	n/a	n/a	n/a	n/a	n/a	n/a	n/a	n/a
986.962	n/a	REC_WORD_VV	493481	wordpools/wasnorm_wordpool_less_exclusions.txt	LTP182	ltpFR	0	3	n/a	<>	-1	n/a	n/a	n/a	n/a	n/a	n/a	n/a	n/a
991.55	n/a	REC_WORD	495775	wordpools/wasnorm_wordpool_less_exclusions.txt	LTP182	ltpFR	0	3	-1	POCKET	1093	n/a	n/a	-1	n/a	n/a	n/a	n/a	n/a
1000.862	n/a	REC_WORD_VV	500431	wordpools/wasnorm_wordpool_less_exclusions.txt	LTP182	ltpFR	0	3	n/a	<>	-1	n/a	n/a	n/a	n/a	n/a	n/a	n/a	n/a
1001.862	n/a	REC_WORD_VV	500931	wordpools/wasnorm_wordpool_less_exclusions.txt	LTP182	ltpFR	0	3	n/a	<>	-1	n/a	n/a	n/a	n/a	n/a	n/a	n/a	n/a
1002.862	n/a	REC_WORD_VV	501431	wordpools/wasnorm_wordpool_less_exclusions.txt	LTP182	ltpFR	0	3	n/a	<>	-1	n/a	n/a	n/a	n/a	n/a	n/a	n/a	n/a
1003.862	n/a	REC_WORD_VV	501931	wordpools/wasnorm_wordpool_less_exclusions.txt	LTP182	ltpFR	0	3	n/a	<>	-1	n/a	n/a	n/a	n/a	n/a	n/a	n/a	n/a
1004.494	n/a	REC_WORD	502247	wordpools/wasnorm_wordpool_less_exclusions.txt	LTP182	ltpFR	0	3	-1	ROCKET	1202	n/a	n/a	-1	n/a	n/a	n/a	n/a	n/a
1005.944	n/a	REC_WORD_VV	502972	wordpools/wasnorm_wordpool_less_exclusions.txt	LTP182	ltpFR	0	3	n/a	<>	-1	n/a	n/a	n/a	n/a	n/a	n/a	n/a	n/a
1006.944	n/a	REC_WORD_VV	503472	wordpools/wasnorm_wordpool_less_exclusions.txt	LTP182	ltpFR	0	3	n/a	<>	-1	n/a	n/a	n/a	n/a	n/a	n/a	n/a	n/a
1025.616	n/a	REC_WORD	512808	wordpools/wasnorm_wordpool_less_exclusions.txt	LTP182	ltpFR	0	3	-1	ROOT	1210	n/a	n/a	-1	n/a	n/a	n/a	n/a	n/a
1050.616	n/a	REC_WORD_VV	525308	wordpools/wasnorm_wordpool_less_exclusions.txt	LTP182	ltpFR	0	3	n/a	<>	-1	n/a	n/a	n/a	n/a	n/a	n/a	n/a	n/a
1051.706	n/a	REC_WORD	525853	wordpools/wasnorm_wordpool_less_exclusions.txt	LTP182	ltpFR	0	3	-1	POCKET	1093	n/a	n/a	-1	n/a	n/a	n/a	n/a	n/a
1071.07	n/a	WORD	535535	wordpools/wasnorm_wordpool_less_exclusions.txt	LTP182	ltpFR	0	4	-1	MONGOOSE	909	n/a	n/a	-1	1.0	1.0	1	upper	Verdana.ttf
1075.084	n/a	WORD	537542	wordpools/wasnorm_wordpool_less_exclusions.txt	LTP182	ltpFR	0	4	-1	STAKE	1368	n/a	n/a	-1	1.0	1.0	1	upper	Verdana.ttf
1079.032	n/a	WORD	539516	wordpools/wasnorm_wordpool_less_exclusions.txt	LTP182	ltpFR	0	4	-1	COMMANDER	354	n/a	n/a	-1	1.0	1.0	1	upper	Verdana.ttf
1082.948	n/a	WORD	541474	wordpools/wasnorm_wordpool_less_exclusions.txt	LTP182	ltpFR	0	4	-1	CROCODILE	411	n/a	n/a	-1	1.0	1.0	1	upper	Verdana.ttf
1086.964	n/a	WORD	543482	wordpools/wasnorm_wordpool_less_exclusions.txt	LTP182	ltpFR	0	4	-1	PUCK	1138	n/a	n/a	-1	1.0	1.0	1	upper	Verdana.ttf
1091.062	n/a	WORD	545531	wordpools/wasnorm_wordpool_less_exclusions.txt	LTP182	ltpFR	0	4	-1	LABEL	790	n/a	n/a	-1	1.0	1.0	1	upper	Verdana.ttf
1095.094	n/a	WORD	547547	wordpools/wasnorm_wordpool_less_exclusions.txt	LTP182	ltpFR	0	4	-1	HOUND	724	n/a	n/a	-1	1.0	1.0	1	upper	Verdana.ttf
1098.926	n/a	WORD	549463	wordpools/wasnorm_wordpool_less_exclusions.txt	LTP182	ltpFR	0	4	-1	NEPHEW	942	n/a	n/a	-1	1.0	1.0	1	upper	Verdana.ttf
1102.838	n/a	WORD	551419	wordpools/wasnorm_wordpool_less_exclusions.txt	LTP182	ltpFR	0	4	-1	FOLLOWER	589	n/a	n/a	-1	1.0	1.0	1	upper	Verdana.ttf
1106.688	n/a	WORD	553344	wordpools/wasnorm_wordpool_less_exclusions.txt	LTP182	ltpFR	0	4	-1	EMPLOYEE	531	n/a	n/a	-1	1.0	1.0	1	upper	Verdana.ttf
1110.888	n/a	WORD	555444	wordpools/wasnorm_wordpool_less_exclusions.txt	LTP182	ltpFR	0	4	-1	PERSONNEL	1053	n/a	n/a	-1	1.0	1.0	1	upper	Verdana.ttf
1114.91	n/a	WORD	557455	wordpools/wasnorm_wordpool_less_exclusions.txt	LTP182	ltpFR	0	4	-1	EMERALD	528	n/a	n/a	-1	1.0	1.0	1	upper	Verdana.ttf
1118.834	n/a	WORD	559417	wordpools/wasnorm_wordpool_less_exclusions.txt	LTP182	ltpFR	0	4	-1	APARTMENT	30	n/a	n/a	-1	1.0	1.0	1	upper	Verdana.ttf
1122.968	n/a	WORD	561484	wordpools/wasnorm_wordpool_less_exclusions.txt	LTP182	ltpFR	0	4	-1	CELLAR	267	n/a	n/a	-1	1.0	1.0	1	upper	Verdana.ttf
1126.95	n/a	WORD	563475	wordpools/wasnorm_wordpool_less_exclusions.txt	LTP182	ltpFR	0	4	-1	WINGS	1614	n/a	n/a	-1	1.0	1.0	1	upper	Verdana.ttf
1130.814	n/a	WORD	565407	wordpools/wasnorm_wordpool_less_exclusions.txt	LTP182	ltpFR	0	4	-1	NEST	945	n/a	n/a	-1	1.0	1.0	1	upper	Verdana.ttf
1136.77	n/a	REC_START	568385	n/a	LTP182	ltpFR	0	4	n/a	n/a	n/a	n/a	n/a	n/a	n/a	n/a	n/a	n/a	n/a
1138.346	n/a	REC_WORD_VV	569173	wordpools/wasnorm_wordpool_less_exclusions.txt	LTP182	ltpFR	0	4	n/a	<>	-1	n/a	n/a	n/a	n/a	n/a	n/a	n/a	n/a
1139.346	n/a	REC_WORD_VV	569673	wordpools/wasnorm_wordpool_less_exclusions.txt	LTP182	ltpFR	0	4	n/a	<>	-1	n/a	n/a	n/a	n/a	n/a	n/a	n/a	n/a
1140.55	n/a	REC_WORD	570275	wordpools/wasnorm_wordpool_less_exclusions.txt	LTP182	ltpFR	0	4	-1	NEST	945	n/a	n/a	-1	n/a	n/a	n/a	n/a	n/a
1141.684	n/a	REC_WORD	570842	wordpools/wasnorm_wordpool_less_exclusions.txt	LTP182	ltpFR	0	4	-1	WINGS	1614	n/a	n/a	-1	n/a	n/a	n/a	n/a	n/a
1142.996	n/a	REC_WORD	571498	wordpools/wasnorm_wordpool_less_exclusions.txt	LTP182	ltpFR	0	4	-1	CROCODILE	411	n/a	n/a	-1	n/a	n/a	n/a	n/a	n/a
1144.038	n/a	REC_WORD	572019	wordpools/wasnorm_wordpool_less_exclusions.txt	LTP182	ltpFR	0	4	-1	MONGOOSE	909	n/a	n/a	-1	n/a	n/a	n/a	n/a	n/a
1145.038	n/a	REC_WORD_VV	572519	wordpools/wasnorm_wordpool_less_exclusions.txt	LTP182	ltpFR	0	4	n/a	<>	-1	n/a	n/a	n/a	n/a	n/a	n/a	n/a	n/a
1150.396	n/a	REC_WORD	575198	wordpools/wasnorm_wordpool_less_exclusions.txt	LTP182	ltpFR	0	4	-1	COLLAR	345	n/a	n/a	-1	n/a	n/a	n/a	n/a	n/a
1155.408	n/a	REC_WORD	577704	wordpools/wasnorm_wordpool_less_exclusions.txt	LTP182	ltpFR	0	4	-1	APARTMENT	30	n/a	n/a	-1	n/a	n/a	n/a	n/a	n/a
1171.736	n/a	REC_WORD	585868	wordpools/wasnorm_wordpool_less_exclusions.txt	LTP182	ltpFR	0	4	-1	OWL	992	n/a	n/a	-1	n/a	n/a	n/a	n/a	n/a
1179.774	n/a	REC_WORD	589887	wordpools/wasnorm_wordpool_less_exclusions.txt	LTP182	ltpFR	0	4	-1	NEPHEW	942	n/a	n/a	-1	n/a	n/a	n/a	n/a	n/a
1701.328	n/a	WORD	850664	wordpools/wasnorm_wordpool_less_exclusions.txt	LTP182	ltpFR	0	5	0	HEAD	695	n/a	n/a	0	0.422607421875	0.5869140625	0	lower	amplitud.ttf
1705.426	n/a	WORD	852713	wordpools/wasnorm_wordpool_less_exclusions.txt	LTP182	ltpFR	0	5	0	FORT	595	n/a	n/a	1	0.422607421875	0.5869140625	0	lower	amplitud.ttf
1709.358	n/a	WORD	854679	wordpools/wasnorm_wordpool_less_exclusions.txt	LTP182	ltpFR	0	5	0	MISSILE	900	n/a	n/a	1	0.422607421875	0.5869140625	0	lower	amplitud.ttf
1713.324	n/a	WORD	856662	wordpools/wasnorm_wordpool_less_exclusions.txt	LTP182	ltpFR	0	5	0	PUMPKIN	1142	n/a	n/a	1	0.422607421875	0.5869140625	0	lower	amplitud.ttf
1717.306	n/a	WORD	858653	wordpools/wasnorm_wordpool_less_exclusions.txt	LTP182	ltpFR	0	5	0	ATTIRE	57	n/a	n/a	n/a	0.422607421875	0.5869140625	0	lower	amplitud.ttf
1720.336	n/a	SLOW_MSG	860168	n/a	LTP182	ltpFR	0	5	n/a	n/a	n/a	n/a	n/a	n/a	n/a	n/a	n/a	n/a	n/a
1722.876	n/a	WORD	861438	wordpools/wasnorm_wordpool_less_exclusions.txt	LTP182	ltpFR	0	5	0	FUR	615	n/a	n/a	0	0.422607421875	0.5869140625	0	lower	amplitud.ttf
1726.708	n/a	WORD	863354	wordpools/wasnorm_wordpool_less_exclusions.txt	LTP182	ltpFR	0	5	0	PRINCESS	1125	n/a	n/a	1	0.422607421875	0.5869140625	0	lower	amplitud.ttf
1730.758	n/a	WORD	865379	wordpools/wasnorm_wordpool_less_exclusions.txt	LTP182	ltpFR	0	5	0	VEST	1559	n/a	n/a	0	0.422607421875	0.5869140625	0	lower	amplitud.ttf
1734.638	n/a	WORD	867319	wordpools/wasnorm_wordpool_less_exclusions.txt	LTP182	ltpFR	0	5	0	MARKER	870	n/a	n/a	0	0.422607421875	0.5869140625	0	lower	amplitud.ttf
1738.72	n/a	WORD	869360	wordpools/wasnorm_wordpool_less_exclusions.txt	LTP182	ltpFR	0	5	0	CRAYON	401	n/a	n/a	0	0.422607421875	0.5869140625	0	lower	amplitud.ttf
1742.734	n/a	WORD	871367	wordpools/wasnorm_wordpool_less_exclusions.txt	LTP182	ltpFR	0	5	0	TOWN	1491	n/a	n/a	1	0.422607421875	0.5869140625	0	lower	amplitud.ttf
1746.6	n/a	WORD	873300	wordpools/wasnorm_wordpool_less_exclusions.txt	LTP182	ltpFR	0	5	0	DRESSER	496	n/a	n/a	0	0.422607421875	0.5869140625	0	lower	amplitud.ttf
1750.666	n/a	WORD	875333	wordpools/wasnorm_wordpool_less_exclusions.txt	LTP182	ltpFR	0	5	0	GRAPE	654	n/a	n/a	0	0.422607421875	0.5869140625	0	lower	amplitud.ttf
1754.648	n/a	WORD	877324	wordpools/wasnorm_wordpool_less_exclusions.txt	LTP182	ltpFR	0	5	0	COMB	351	n/a	n/a	0	0.422607421875	0.5869140625	0	lower	amplitud.ttf
1758.846	n/a	WORD	879423	wordpools/wasnorm_wordpool_less_exclusions.txt	LTP182	ltpFR	0	5	0	TORCH	1484	n/a	n/a	1	0.422607421875	0.5869140625	0	lower	amplitud.ttf
1762.862	n/a	WORD	881431	wordpools/wasnorm_wordpool_less_exclusions.txt	LTP182	ltpFR	0	5	0	LASER	801	n/a	n/a	1	0.422607421875	0.5869140625	0	lower	amplitud.ttf
1768.87	n/a	REC_START	884435	n/a	LTP182	ltpFR	0	5	n/a	n/a	n/a	n/a	n/a	n/a	n/a	n/a	n/a	n/a	n/a
1773.696	n/a	REC_WORD_VV	886848	wordpools/wasnorm_wordpool_less_exclusions.txt	LTP182	ltpFR	0	5	n/a	<>	-1	n/a	n/a	n/a	n/a	n/a	n/a	n/a	n/a
1774.696	n/a	REC_WORD_VV	887348	wordpools/wasnorm_wordpool_less_exclusions.txt	LTP182	ltpFR	0	5	n/a	<>	-1	n/a	n/a	n/a	n/a	n/a	n/a	n/a	n/a
1775.696	n/a	REC_WORD_VV	887848	wordpools/wasnorm_wordpool_less_exclusions.txt	LTP182	ltpFR	0	5	n/a	<>	-1	n/a	n/a	n/a	n/a	n/a	n/a	n/a	n/a
1776.816	n/a	REC_WORD_VV	888408	wordpools/wasnorm_wordpool_less_exclusions.txt	LTP182	ltpFR	0	5	n/a	<>	-1	n/a	n/a	n/a	n/a	n/a	n/a	n/a	n/a
1777.816	n/a	REC_WORD_VV	888908	wordpools/wasnorm_wordpool_less_exclusions.txt	LTP182	ltpFR	0	5	n/a	<>	-1	n/a	n/a	n/a	n/a	n/a	n/a	n/a	n/a
1778.816	n/a	REC_WORD_VV	889408	wordpools/wasnorm_wordpool_less_exclusions.txt	LTP182	ltpFR	0	5	n/a	<>	-1	n/a	n/a	n/a	n/a	n/a	n/a	n/a	n/a
1779.816	n/a	REC_WORD_VV	889908	wordpools/wasnorm_wordpool_less_exclusions.txt	LTP182	ltpFR	0	5	n/a	<>	-1	n/a	n/a	n/a	n/a	n/a	n/a	n/a	n/a
1780.816	n/a	REC_WORD_VV	890408	wordpools/wasnorm_wordpool_less_exclusions.txt	LTP182	ltpFR	0	5	n/a	<>	-1	n/a	n/a	n/a	n/a	n/a	n/a	n/a	n/a
1781.626	n/a	REC_WORD	890813	wordpools/wasnorm_wordpool_less_exclusions.txt	LTP182	ltpFR	0	5	n/a	DRAWER	493	n/a	n/a	n/a	n/a	n/a	n/a	n/a	n/a
1782.574	n/a	REC_WORD	891287	wordpools/wasnorm_wordpool_less_exclusions.txt	LTP182	ltpFR	0	5	0	GRAPE	654	n/a	n/a	0	n/a	n/a	n/a	n/a	n/a
1784.28	n/a	REC_WORD_VV	892140	wordpools/wasnorm_wordpool_less_exclusions.txt	LTP182	ltpFR	0	5	n/a	<>	-1	n/a	n/a	n/a	n/a	n/a	n/a	n/a	n/a
1785.28	n/a	REC_WORD_VV	892640	wordpools/wasnorm_wordpool_less_exclusions.txt	LTP182	ltpFR	0	5	n/a	<>	-1	n/a	n/a	n/a	n/a	n/a	n/a	n/a	n/a
1788.192	n/a	REC_WORD	894096	wordpools/wasnorm_wordpool_less_exclusions.txt	LTP182	ltpFR	0	5	0	TOWN	1491	n/a	n/a	1	n/a	n/a	n/a	n/a	n/a
1790.202	n/a	REC_WORD_VV	895101	wordpools/wasnorm_wordpool_less_exclusions.txt	LTP182	ltpFR	0	5	n/a	<>	-1	n/a	n/a	n/a	n/a	n/a	n/a	n/a	n/a
1791.202	n/a	REC_WORD_VV	895601	wordpools/wasnorm_wordpool_less_exclusions.txt	LTP182	ltpFR	0	5	n/a	<>	-1	n/a	n/a	n/a	n/a	n/a	n/a	n/a	n/a
1798.15	n/a	REC_WORD_VV	899075	wordpools/wasnorm_wordpool_less_exclusions.txt	LTP182	ltpFR	0	5	n/a	<>	-1	n/a	n/a	n/a	n/a	n/a	n/a	n/a	n/a
1799.15	n/a	REC_WORD_VV	899575	wordpools/wasnorm_wordpool_less_exclusions.txt	LTP182	ltpFR	0	5	n/a	<>	-1	n/a	n/a	n/a	n/a	n/a	n/a	n/a	n/a
1808.032	n/a	REC_WORD	904016	wordpools/wasnorm_wordpool_less_exclusions.txt	LTP182	ltpFR	0	5	n/a	BAT	-1	n/a	n/a	n/a	n/a	n/a	n/a	n/a	n/a
1822.464	n/a	REC_WORD_VV	911232	wordpools/wasnorm_wordpool_less_exclusions.txt	LTP182	ltpFR	0	5	n/a	<>	-1	n/a	n/a	n/a	n/a	n/a	n/a	n/a	n/a
1823.464	n/a	REC_WORD_VV	911732	wordpools/wasnorm_wordpool_less_exclusions.txt	LTP182	ltpFR	0	5	n/a	<>	-1	n/a	n/a	n/a	n/a	n/a	n/a	n/a	n/a
1832.582	n/a	REC_WORD_VV	916291	wordpools/wasnorm_wordpool_less_exclusions.txt	LTP182	ltpFR	0	5	n/a	<>	-1	n/a	n/a	n/a	n/a	n/a	n/a	n/a	n/a
1833.582	n/a	REC_WORD_VV	916791	wordpools/wasnorm_wordpool_less_exclusions.txt	LTP182	ltpFR	0	5	n/a	<>	-1	n/a	n/a	n/a	n/a	n/a	n/a	n/a	n/a
1834.582	n/a	REC_WORD_VV	917291	wordpools/wasnorm_wordpool_less_exclusions.txt	LTP182	ltpFR	0	5	n/a	<>	-1	n/a	n/a	n/a	n/a	n/a	n/a	n/a	n/a
1842.362	n/a	REC_WORD	921181	wordpools/wasnorm_wordpool_less_exclusions.txt	LTP182	ltpFR	0	5	-1	SUIT	1402	n/a	n/a	-1	n/a	n/a	n/a	n/a	n/a
1865.438	n/a	WORD	932719	wordpools/wasnorm_wordpool_less_exclusions.txt	LTP182	ltpFR	0	6	0	CARPENTER	246	n/a	n/a	n/a	0.422607421875	0.5869140625	0	lower	amplitud.ttf
1868.474	n/a	SLOW_MSG	934237	n/a	LTP182	ltpFR	0	6	n/a	n/a	n/a	n/a	n/a	n/a	n/a	n/a	n/a	n/a	n/a
1870.91	n/a	WORD	935455	wordpools/wasnorm_wordpool_less_exclusions.txt	LTP182	ltpFR	0	6	0	BERRY	122	n/a	n/a	0	0.422607421875	0.5869140625	0	lower	amplitud.ttf
1874.974	n/a	WORD	937487	wordpools/wasnorm_wordpool_less_exclusions.txt	LTP182	ltpFR	0	6	0	LETTUCE	814	n/a	n/a	0	0.422607421875	0.5869140625	0	lower	amplitud.ttf
1878.806	n/a	WORD	939403	wordpools/wasnorm_wordpool_less_exclusions.txt	LTP182	ltpFR	0	6	0	PEN	1041	n/a	n/a	0	0.422607421875	0.5869140625	0	lower	amplitud.ttf
1882.736	n/a	WORD	941368	wordpools/wasnorm_wordpool_less_exclusions.txt	LTP182	ltpFR	0	6	0	LAMP	798	n/a	n/a	1	0.422607421875	0.5869140625	0	lower	amplitud.ttf
1886.818	n/a	WORD	943409	wordpools/wasnorm_wordpool_less_exclusions.txt	LTP182	ltpFR	0	6	0	WICK	1607	n/a	n/a	0	0.422607421875	0.5869140625	0	lower	amplitud.ttf
1890.716	n/a	WORD	945358	wordpools/wasnorm_wordpool_less_exclusions.txt	LTP182	ltpFR	0	6	0	HAY	693	n/a	n/a	1	0.422607421875	0.5869140625	0	lower	amplitud.ttf
1894.718	n/a	WORD	947359	wordpools/wasnorm_wordpool_less_exclusions.txt	LTP182	ltpFR	0	6	0	BUGGY	188	n/a	n/a	1	0.422607421875	0.5869140625	0	lower	amplitud.ttf
1898.866	n/a	WORD	949433	wordpools/wasnorm_wordpool_less_exclusions.txt	LTP182	ltpFR	0	6	0	VINEGAR	1569	n/a	n/a	0	0.422607421875	0.5869140625	0	lower	amplitud.ttf
1902.948	n/a	WORD	951474	wordpools/wasnorm_wordpool_less_exclusions.txt	LTP182	ltpFR	0	6	0	FINGER	567	n/a	n/a	0	0.422607421875	0.5869140625	0	lower	amplitud.ttf
1906.914	n/a	WORD	953457	wordpools/wasnorm_wordpool_less_exclusions.txt	LTP182	ltpFR	0	6	0	TENT	1449	n/a	n/a	1	0.422607421875	0.5869140625	0	lower	amplitud.ttf
1910.76	n/a	WORD	955380	wordpools/wasnorm_wordpool_less_exclusions.txt	LTP182	ltpFR	0	6	0	JUG	762	n/a	n/a	0	0.422607421875	0.5869140625	0	lower	amplitud.ttf
1914.742	n/a	WORD	957371	wordpools/wasnorm_wordpool_less_exclusions.txt	LTP182	ltpFR	0	6	0	FEATHER	557	n/a	n/a	0	0.422607421875	0.5869140625	0	lower	amplitud.ttf
1918.59	n/a	WORD	959295	wordpools/wasnorm_wordpool_less_exclusions.txt	LTP182	ltpFR	0	6	0	THIGH	1457	n/a	n/a	0	0.422607421875	0.5869140625	0	lower	amplitud.ttf
1922.59	n/a	WORD	961295	wordpools/wasnorm_wordpool_less_exclusions.txt	LTP182	ltpFR	0	6	0	PILL	1068	n/a	n/a	0	0.422607421875	0.5869140625	0	lower	amplitud.ttf
1926.604	n/a	WORD	963302	wordpools/wasnorm_wordpool_less_exclusions.txt	LTP182	ltpFR	0	6	0	HAND	683	n/a	n/a	0	0.422607421875	0.5869140625	0	lower	amplitud.ttf
1932.594	n/a	REC_START	966297	n/a	LTP182	ltpFR	0	6	n/a	n/a	n/a	n/a	n/a	n/a	n/a	n/a	n/a	n/a	n/a
1933.324	n/a	REC_WORD_VV	966662	wordpools/wasnorm_wordpool_less_exclusions.txt	LTP182	ltpFR	0	6	n/a	<>	-1	n/a	n/a	n/a	n/a	n/a	n/a	n/a	n/a
1934.576	n/a	REC_WORD	967288	wordpools/wasnorm_wordpool_less_exclusions.txt	LTP182	ltpFR	0	6	0	HAND	683	n/a	n/a	0	n/a	n/a	n/a	n/a	n/a
1935.576	n/a	REC_WORD_VV	967788	wordpools/wasnorm_wordpool_less_exclusions.txt	LTP182	ltpFR	0	6	n/a	<>	-1	n/a	n/a	n/a	n/a	n/a	n/a	n/a	n/a
1936.126	n/a	REC_WORD	968063	wordpools/wasnorm_wordpool_less_exclusions.txt	LTP182	ltpFR	0	6	0	VINEGAR	1569	n/a	n/a	0	n/a	n/a	n/a	n/a	n/a
1938.58	n/a	REC_WORD_VV	969290	wordpools/wasnorm_wordpool_less_exclusions.txt	LTP182	ltpFR	0	6	n/a	<>	-1	n/a	n/a	n/a	n/a	n/a	n/a	n/a	n/a
1942.558	n/a	REC_WORD	971279	wordpools/wasnorm_wordpool_less_exclusions.txt	LTP182	ltpFR	0	6	0	TENT	1449	n/a	n/a	1	n/a	n/a	n/a	n/a	n/a
1948.09	n/a	REC_WORD	974045	wordpools/wasnorm_wordpool_less_exclusions.txt	LTP182	ltpFR	0	6	0	BERRY	122	n/a	n/a	0	n/a	n/a	n/a	n/a	n/a
1953.31	n/a	REC_WORD	976655	wordpools/wasnorm_wordpool_less_exclusions.txt	LTP182	ltpFR	0	6	0	FEATHER	557	n/a	n/a	0	n/a	n/a	n/a	n/a	n/a
1961.192	n/a	REC_WORD	980596	wordpools/wasnorm_wordpool_less_exclusions.txt	LTP182	ltpFR	0	6	0	LAMP	798	n/a	n/a	1	n/a	n/a	n/a	n/a	n/a
1974.168	n/a	REC_WORD	987084	wordpools/wasnorm_wordpool_less_exclusions.txt	LTP182	ltpFR	0	6	0	LETTUCE	814	n/a	n/a	0	n/a	n/a	n/a	n/a	n/a
1977.144	n/a	REC_WORD_VV	988572	wordpools/wasnorm_wordpool_less_exclusions.txt	LTP182	ltpFR	0	6	n/a	<>	-1	n/a	n/a	n/a	n/a	n/a	n/a	n/a	n/a
2002.32	n/a	REC_WORD	1001160	wordpools/wasnorm_wordpool_less_exclusions.txt	LTP182	ltpFR	0	6	0	CARPENTER	246	n/a	n/a	n/a	n/a	n/a	n/a	n/a	n/a
2057.958	n/a	WORD	1028979	wordpools/wasnorm_wordpool_less_exclusions.txt	LTP182	ltpFR	0	7	0	VET	1560	n/a	n/a	n/a	0.422607421875	0.5869140625	0	lower	amplitud.ttf
2060.986	n/a	SLOW_MSG	1030493	n/a	LTP182	ltpFR	0	7	n/a	n/a	n/a	n/a	n/a	n/a	n/a	n/a	n/a	n/a	n/a
2063.466	n/a	WORD	1031733	wordpools/wasnorm_wordpool_less_exclusions.txt	LTP182	ltpFR	0	7	0	CAGE	218	n/a	n/a	n/a	0.422607421875	0.5869140625	0	lower	amplitud.ttf
2066.496	n/a	SLOW_MSG	1033248	n/a	LTP182	ltpFR	0	7	n/a	n/a	n/a	n/a	n/a	n/a	n/a	n/a	n/a	n/a	n/a
2069.234	n/a	WORD	1034617	wordpools/wasnorm_wordpool_less_exclusions.txt	LTP182	ltpFR	0	7	0	BARK	87	n/a	n/a	0	0.422607421875	0.5869140625	0	lower	amplitud.ttf
2073.116	n/a	WORD	1036558	wordpools/wasnorm_wordpool_less_exclusions.txt	LTP182	ltpFR	0	7	0	SEAFOOD	1260	n/a	n/a	0	0.422607421875	0.5869140625	0	lower	amplitud.ttf
2077.234	n/a	WORD	1038617	wordpools/wasnorm_wordpool_less_exclusions.txt	LTP182	ltpFR	0	7	0	TOASTER	1472	n/a	n/a	0	0.422607421875	0.5869140625	0	lower	amplitud.ttf
2081.212	n/a	WORD	1040606	wordpools/wasnorm_wordpool_less_exclusions.txt	LTP182	ltpFR	0	7	0	LOBSTER	837	n/a	n/a	0	0.422607421875	0.5869140625	0	lower	amplitud.ttf
2085.346	n/a	WORD	1042673	wordpools/wasnorm_wordpool_less_exclusions.txt	LTP182	ltpFR	0	7	0	ACROBAT	4	n/a	n/a	1	0.422607421875	0.5869140625	0	lower	amplitud.ttf
2089.56	n/a	WORD	1044780	wordpools/wasnorm_wordpool_less_exclusions.txt	LTP182	ltpFR	0	7	0	TOTE	1487	n/a	n/a	1	0.422607421875	0.5869140625	0	lower	amplitud.ttf
2093.764	n/a	WORD	1046882	wordpools/wasnorm_wordpool_less_exclusions.txt	LTP182	ltpFR	0	7	0	BUCKET	184	n/a	n/a	1	0.422607421875	0.5869140625	0	lower	amplitud.ttf
2097.808	n/a	WORD	1048904	wordpools/wasnorm_wordpool_less_exclusions.txt	LTP182	ltpFR	0	7	0	BRACES	164	n/a	n/a	0	0.422607421875	0.5869140625	0	lower	amplitud.ttf
2101.908	n/a	WORD	1050954	wordpools/wasnorm_wordpool_less_exclusions.txt	LTP182	ltpFR	0	7	0	JAW	751	n/a	n/a	0	0.422607421875	0.5869140625	0	lower	amplitud.ttf
2105.874	n/a	WORD	1052937	wordpools/wasnorm_wordpool_less_exclusions.txt	LTP182	ltpFR	0	7	0	BUTTER	205	n/a	n/a	0	0.422607421875	0.5869140625	0	lower	amplitud.ttf
2109.956	n/a	WORD	1054978	wordpools/wasnorm_wordpool_less_exclusions.txt	LTP182	ltpFR	0	7	0	PRIMATE	1123	n/a	n/a	1	0.422607421875	0.5869140625	0	lower	amplitud.ttf
2114.058	n/a	WORD	1057029	wordpools/wasnorm_wordpool_less_exclusions.txt	LTP182	ltpFR	0	7	0	MAMMAL	861	n/a	n/a	1	0.422607421875	0.5869140625	0	lower	amplitud.ttf
2117.97	n/a	WORD	1058985	wordpools/wasnorm_wordpool_less_exclusions.txt	LTP182	ltpFR	0	7	0	PAD	998	n/a	n/a	0	0.422607421875	0.5869140625	0	lower	amplitud.ttf
2121.952	n/a	WORD	1060976	wordpools/wasnorm_wordpool_less_exclusions.txt	LTP182	ltpFR	0	7	0	TUNA	1518	n/a	n/a	1	0.422607421875	0.5869140625	0	lower	amplitud.ttf
2127.91	n/a	REC_START	1063955	n/a	LTP182	ltpFR	0	7	n/a	n/a	n/a	n/a	n/a	n/a	n/a	n/a	n/a	n/a	n/a
2129.61	n/a	REC_WORD	1064805	wordpools/wasnorm_wordpool_less_exclusions.txt	LTP182	ltpFR	0	7	0	TUNA	1518	n/a	n/a	1	n/a	n/a	n/a	n/a	n/a
2133.406	n/a	REC_WORD_VV	1066703	wordpools/wasnorm_wordpool_less_exclusions.txt	LTP182	ltpFR	0	7	n/a	<>	-1	n/a	n/a	n/a	n/a	n/a	n/a	n/a	n/a
2134.406	n/a	REC_WORD_VV	1067203	wordpools/wasnorm_wordpool_less_exclusions.txt	LTP182	ltpFR	0	7	n/a	<>	-1	n/a	n/a	n/a	n/a	n/a	n/a	n/a	n/a
2135.406	n/a	REC_WORD_VV	1067703	wordpools/wasnorm_wordpool_less_exclusions.txt	LTP182	ltpFR	0	7	n/a	<>	-1	n/a	n/a	n/a	n/a	n/a	n/a	n/a	n/a
2146.342	n/a	REC_WORD_VV	1073171	wordpools/wasnorm_wordpool_less_exclusions.txt	LTP182	ltpFR	0	7	n/a	<>	-1	n/a	n/a	n/a	n/a	n/a	n/a	n/a	n/a
2153.726	n/a	REC_WORD	1076863	wordpools/wasnorm_wordpool_less_exclusions.txt	LTP182	ltpFR	0	7	0	TOTE	1487	n/a	n/a	1	n/a	n/a	n/a	n/a	n/a
2166.08	n/a	REC_WORD	1083040	wordpools/wasnorm_wordpool_less_exclusions.txt	LTP182	ltpFR	0	7	0	BUTTER	205	n/a	n/a	0	n/a	n/a	n/a	n/a	n/a
2182.836	n/a	REC_WORD	1091418	wordpools/wasnorm_wordpool_less_exclusions.txt	LTP182	ltpFR	0	7	0	BUCKET	184	n/a	n/a	1	n/a	n/a	n/a	n/a	n/a
2186.704	n/a	REC_WORD	1093352	wordpools/wasnorm_wordpool_less_exclusions.txt	LTP182	ltpFR	0	7	n/a	JAR	750	n/a	n/a	n/a	n/a	n/a	n/a	n/a	n/a
2228.742	n/a	WORD	1114371	wordpools/wasnorm_wordpool_less_exclusions.txt	LTP182	ltpFR	0	8	0	KEYBOARD	774	n/a	n/a	1	0.422607421875	0.5869140625	0	lower	amplitud.ttf
2232.79	n/a	WORD	1116395	wordpools/wasnorm_wordpool_less_exclusions.txt	LTP182	ltpFR	0	8	0	SHEET	1279	n/a	n/a	0	0.422607421875	0.5869140625	0	lower	amplitud.ttf
2236.658	n/a	WORD	1118329	wordpools/wasnorm_wordpool_less_exclusions.txt	LTP182	ltpFR	0	8	0	SPY	1360	n/a	n/a	1	0.422607421875	0.5869140625	0	lower	amplitud.ttf
2240.604	n/a	WORD	1120302	wordpools/wasnorm_wordpool_less_exclusions.txt	LTP182	ltpFR	0	8	0	STEM	1376	n/a	n/a	0	0.422607421875	0.5869140625	0	lower	amplitud.ttf
2244.52	n/a	WORD	1122260	wordpools/wasnorm_wordpool_less_exclusions.txt	LTP182	ltpFR	0	8	0	PEBBLE	1035	n/a	n/a	0	0.422607421875	0.5869140625	0	lower	amplitud.ttf
2248.502	n/a	WORD	1124251	wordpools/wasnorm_wordpool_less_exclusions.txt	LTP182	ltpFR	0	8	0	POLICE	1098	n/a	n/a	1	0.422607421875	0.5869140625	0	lower	amplitud.ttf
2252.684	n/a	WORD	1126342	wordpools/wasnorm_wordpool_less_exclusions.txt	LTP182	ltpFR	0	8	0	BRIDGE	174	n/a	n/a	1	0.422607421875	0.5869140625	0	lower	amplitud.ttf
2256.868	n/a	WORD	1128434	wordpools/wasnorm_wordpool_less_exclusions.txt	LTP182	ltpFR	0	8	0	CATTLE	261	n/a	n/a	1	0.422607421875	0.5869140625	0	lower	amplitud.ttf
2260.866	n/a	WORD	1130433	wordpools/wasnorm_wordpool_less_exclusions.txt	LTP182	ltpFR	0	8	0	FARM	552	n/a	n/a	1	0.422607421875	0.5869140625	0	lower	amplitud.ttf
2264.78	n/a	WORD	1132390	wordpools/wasnorm_wordpool_less_exclusions.txt	LTP182	ltpFR	0	8	0	BUBBLE	183	n/a	n/a	0	0.422607421875	0.5869140625	0	lower	amplitud.ttf
2268.964	n/a	WORD	1134482	wordpools/wasnorm_wordpool_less_exclusions.txt	LTP182	ltpFR	0	8	0	GANG	619	n/a	n/a	1	0.422607421875	0.5869140625	0	lower	amplitud.ttf
2273.164	n/a	WORD	1136582	wordpools/wasnorm_wordpool_less_exclusions.txt	LTP182	ltpFR	0	8	0	COYOTE	396	n/a	n/a	1	0.422607421875	0.5869140625	0	lower	amplitud.ttf
2277.32	n/a	WORD	1138660	wordpools/wasnorm_wordpool_less_exclusions.txt	LTP182	ltpFR	0	8	0	SAP	1233	n/a	n/a	0	0.422607421875	0.5869140625	0	lower	amplitud.ttf
2281.344	n/a	WORD	1140672	wordpools/wasnorm_wordpool_less_exclusions.txt	LTP182	ltpFR	0	8	0	SHRUB	1299	n/a	n/a	0	0.422607421875	0.5869140625	0	lower	amplitud.ttf
2285.444	n/a	WORD	1142722	wordpools/wasnorm_wordpool_less_exclusions.txt	LTP182	ltpFR	0	8	0	BUS	201	n/a	n/a	1	0.422607421875	0.5869140625	0	lower	amplitud.ttf
2289.514	n/a	WORD	1144757	wordpools/wasnorm_wordpool_less_exclusions.txt	LTP182	ltpFR	0	8	0	PLANT	1083	n/a	n/a	0	0.422607421875	0.5869140625	0	lower	amplitud.ttf
2295.35	n/a	REC_START	1147675	n/a	LTP182	ltpFR	0	8	n/a	n/a	n/a	n/a	n/a	n/a	n/a	n/a	n/a	n/a	n/a
2297.21	n/a	REC_WORD	1148605	wordpools/wasnorm_wordpool_less_exclusions.txt	LTP182	ltpFR	0	8	0	PLANT	1083	n/a	n/a	0	n/a	n/a	n/a	n/a	n/a
2298.358	n/a	REC_WORD	1149179	wordpools/wasnorm_wordpool_less_exclusions.txt	LTP182	ltpFR	0	8	0	SHRUB	1299	n/a	n/a	0	n/a	n/a	n/a	n/a	n/a
2299.638	n/a	REC_WORD	1149819	wordpools/wasnorm_wordpool_less_exclusions.txt	LTP182	ltpFR	0	8	0	STEM	1376	n/a	n/a	0	n/a	n/a	n/a	n/a	n/a
2302.078	n/a	REC_WORD_VV	1151039	wordpools/wasnorm_wordpool_less_exclusions.txt	LTP182	ltpFR	0	8	n/a	<>	-1	n/a	n/a	n/a	n/a	n/a	n/a	n/a	n/a
2313.324	n/a	REC_WORD	1156662	wordpools/wasnorm_wordpool_less_exclusions.txt	LTP182	ltpFR	0	8	0	FARM	552	n/a	n/a	1	n/a	n/a	n/a	n/a	n/a
2380.206	n/a	WORD	1190103	wordpools/wasnorm_wordpool_less_exclusions.txt	LTP182	ltpFR	0	9	1	BIRD	129	n/a	n/a	n/a	0.57763671875	0.412841796875	1	upper	zerothre.ttf
2383.238	n/a	SLOW_MSG	1191619	n/a	LTP182	ltpFR	0	9	n/a	n/a	n/a	n/a	n/a	n/a	n/a	n/a	n/a	n/a	n/a
2385.778	n/a	WORD	1192889	wordpools/wasnorm_wordpool_less_exclusions.txt	LTP182	ltpFR	0	9	1	ICEBERG	731	n/a	n/a	3	0.57763671875	0.412841796875	1	upper	zerothre.ttf
2387.166	n/a	KEY_MSG	1193583	n/a	LTP182	ltpFR	0	9	n/a	n/a	n/a	n/a	n/a	n/a	n/a	n/a	n/a	n/a	n/a
2389.774	n/a	WORD	1194887	wordpools/wasnorm_wordpool_less_exclusions.txt	LTP182	ltpFR	0	9	1	SWEATER	1419	n/a	n/a	n/a	0.57763671875	0.412841796875	1	upper	zerothre.ttf
2392.802	n/a	SLOW_MSG	1196401	n/a	LTP182	ltpFR	0	9	n/a	n/a	n/a	n/a	n/a	n/a	n/a	n/a	n/a	n/a	n/a
2395.296	n/a	WORD	1197648	wordpools/wasnorm_wordpool_less_exclusions.txt	LTP182	ltpFR	0	9	1	THRONE	1461	n/a	n/a	0	0.57763671875	0.412841796875	1	upper	zerothre.ttf
2399.412	n/a	WORD	1199706	wordpools/wasnorm_wordpool_less_exclusions.txt	LTP182	ltpFR	0	9	1	CORAL	378	n/a	n/a	0	0.57763671875	0.412841796875	1	upper	zerothre.ttf
2403.444	n/a	WORD	1201722	wordpools/wasnorm_wordpool_less_exclusions.txt	LTP182	ltpFR	0	9	1	FLIPPER	580	n/a	n/a	1	0.57763671875	0.412841796875	1	upper	zerothre.ttf
2407.51	n/a	WORD	1203755	wordpools/wasnorm_wordpool_less_exclusions.txt	LTP182	ltpFR	0	9	1	GRADUATE	653	n/a	n/a	0	0.57763671875	0.412841796875	1	upper	zerothre.ttf
2411.592	n/a	WORD	1205796	wordpools/wasnorm_wordpool_less_exclusions.txt	LTP182	ltpFR	0	9	1	STUDENT	1395	n/a	n/a	1	0.57763671875	0.412841796875	1	upper	zerothre.ttf
2415.56	n/a	WORD	1207780	wordpools/wasnorm_wordpool_less_exclusions.txt	LTP182	ltpFR	0	9	1	EMPEROR	529	n/a	n/a	1	0.57763671875	0.412841796875	1	upper	zerothre.ttf
2419.722	n/a	WORD	1209861	wordpools/wasnorm_wordpool_less_exclusions.txt	LTP182	ltpFR	0	9	1	ARTICLE	42	n/a	n/a	0	0.57763671875	0.412841796875	1	upper	zerothre.ttf
2423.792	n/a	WORD	1211896	wordpools/wasnorm_wordpool_less_exclusions.txt	LTP182	ltpFR	0	9	1	BINDER	127	n/a	n/a	0	0.57763671875	0.412841796875	1	upper	zerothre.ttf
2427.922	n/a	WORD	1213961	wordpools/wasnorm_wordpool_less_exclusions.txt	LTP182	ltpFR	0	9	1	CAT	257	n/a	n/a	1	0.57763671875	0.412841796875	1	upper	zerothre.ttf
2431.886	n/a	WORD	1215943	wordpools/wasnorm_wordpool_less_exclusions.txt	LTP182	ltpFR	0	9	1	COFFEE	341	n/a	n/a	0	0.57763671875	0.412841796875	1	upper	zerothre.ttf
2435.918	n/a	WORD	1217959	wordpools/wasnorm_wordpool_less_exclusions.txt	LTP182	ltpFR	0	9	1	FLY	586	n/a	n/a	1	0.57763671875	0.412841796875	1	upper	zerothre.ttf
2439.882	n/a	WORD	1219941	wordpools/wasnorm_wordpool_less_exclusions.txt	LTP182	ltpFR	0	9	1	VEHICLE	1553	n/a	n/a	0	0.57763671875	0.412841796875	1	upper	zerothre.ttf
2443.95	n/a	WORD	1221975	wordpools/wasnorm_wordpool_less_exclusions.txt	LTP182	ltpFR	0	9	1	CLOTHES	327	n/a	n/a	0	0.57763671875	0.412841796875	1	upper	zerothre.ttf
2449.974	n/a	REC_START	1224987	n/a	LTP182	ltpFR	0	9	n/a	n/a	n/a	n/a	n/a	n/a	n/a	n/a	n/a	n/a	n/a
2452.862	n/a	REC_WORD	1226431	wordpools/wasnorm_wordpool_less_exclusions.txt	LTP182	ltpFR	0	9	1	CLOTHES	327	n/a	n/a	0	n/a	n/a	n/a	n/a	n/a
2455.244	n/a	REC_WORD_VV	1227622	wordpools/wasnorm_wordpool_less_exclusions.txt	LTP182	ltpFR	0	9	n/a	<>	-1	n/a	n/a	n/a	n/a	n/a	n/a	n/a	n/a
2456.244	n/a	REC_WORD_VV	1228122	wordpools/wasnorm_wordpool_less_exclusions.txt	LTP182	ltpFR	0	9	n/a	<>	-1	n/a	n/a	n/a	n/a	n/a	n/a	n/a	n/a
2459.024	n/a	REC_WORD	1229512	wordpools/wasnorm_wordpool_less_exclusions.txt	LTP182	ltpFR	0	9	1	FLIPPER	580	n/a	n/a	1	n/a	n/a	n/a	n/a	n/a
2469.804	n/a	REC_WORD	1234902	wordpools/wasnorm_wordpool_less_exclusions.txt	LTP182	ltpFR	0	9	1	FLY	586	n/a	n/a	1	n/a	n/a	n/a	n/a	n/a
2491.194	n/a	REC_WORD	1245597	wordpools/wasnorm_wordpool_less_exclusions.txt	LTP182	ltpFR	0	9	1	BIRD	129	n/a	n/a	n/a	n/a	n/a	n/a	n/a	n/a
2544.366	n/a	WORD	1272183	wordpools/wasnorm_wordpool_less_exclusions.txt	LTP182	ltpFR	0	10	1	DONKEY	484	n/a	n/a	1	0.57763671875	0.412841796875	1	upper	zerothre.ttf
2548.466	n/a	WORD	1274233	wordpools/wasnorm_wordpool_less_exclusions.txt	LTP182	ltpFR	0	10	1	ANIMAL	23	n/a	n/a	1	0.57763671875	0.412841796875	1	upper	zerothre.ttf
2552.364	n/a	WORD	1276182	wordpools/wasnorm_wordpool_less_exclusions.txt	LTP182	ltpFR	0	10	1	LIVER	833	n/a	n/a	0	0.57763671875	0.412841796875	1	upper	zerothre.ttf
2556.464	n/a	WORD	1278232	wordpools/wasnorm_wordpool_less_exclusions.txt	LTP182	ltpFR	0	10	1	VEIN	1554	n/a	n/a	0	0.57763671875	0.412841796875	1	upper	zerothre.ttf
2560.444	n/a	WORD	1280222	wordpools/wasnorm_wordpool_less_exclusions.txt	LTP182	ltpFR	0	10	1	SUBMARINE	1398	n/a	n/a	0	0.57763671875	0.412841796875	1	upper	zerothre.ttf
2564.51	n/a	WORD	1282255	wordpools/wasnorm_wordpool_less_exclusions.txt	LTP182	ltpFR	0	10	1	ORANGE	980	n/a	n/a	0	0.57763671875	0.412841796875	1	upper	zerothre.ttf
2568.642	n/a	WORD	1284321	wordpools/wasnorm_wordpool_less_exclusions.txt	LTP182	ltpFR	0	10	1	APPLE	33	n/a	n/a	0	0.57763671875	0.412841796875	1	upper	zerothre.ttf
2572.794	n/a	WORD	1286397	wordpools/wasnorm_wordpool_less_exclusions.txt	LTP182	ltpFR	0	10	1	BRIEFCASE	175	n/a	n/a	0	0.57763671875	0.412841796875	1	upper	zerothre.ttf
2577.008	n/a	WORD	1288504	wordpools/wasnorm_wordpool_less_exclusions.txt	LTP182	ltpFR	0	10	1	THERMOMETER	1453	n/a	n/a	n/a	0.57763671875	0.412841796875	1	upper	zerothre.ttf
2580.038	n/a	SLOW_MSG	1290019	n/a	LTP182	ltpFR	0	10	n/a	n/a	n/a	n/a	n/a	n/a	n/a	n/a	n/a	n/a	n/a
2582.594	n/a	WORD	1291297	wordpools/wasnorm_wordpool_less_exclusions.txt	LTP182	ltpFR	0	10	1	TREAD	1499	n/a	n/a	0	0.57763671875	0.412841796875	1	upper	zerothre.ttf
2586.576	n/a	WORD	1293288	wordpools/wasnorm_wordpool_less_exclusions.txt	LTP182	ltpFR	0	10	1	DOVE	491	n/a	n/a	1	0.57763671875	0.412841796875	1	upper	zerothre.ttf
2590.742	n/a	WORD	1295371	wordpools/wasnorm_wordpool_less_exclusions.txt	LTP182	ltpFR	0	10	1	DANDELION	438	n/a	n/a	1	0.57763671875	0.412841796875	1	upper	zerothre.ttf
2594.844	n/a	WORD	1297422	wordpools/wasnorm_wordpool_less_exclusions.txt	LTP182	ltpFR	0	10	1	DICTATOR	462	n/a	n/a	1	0.57763671875	0.412841796875	1	upper	zerothre.ttf
2598.74	n/a	WORD	1299370	wordpools/wasnorm_wordpool_less_exclusions.txt	LTP182	ltpFR	0	10	1	BLACKBOARD	133	n/a	n/a	0	0.57763671875	0.412841796875	1	upper	zerothre.ttf
2602.722	n/a	WORD	1301361	wordpools/wasnorm_wordpool_less_exclusions.txt	LTP182	ltpFR	0	10	1	DIPLOMA	470	n/a	n/a	0	0.57763671875	0.412841796875	1	upper	zerothre.ttf
2606.738	n/a	WORD	1303369	wordpools/wasnorm_wordpool_less_exclusions.txt	LTP182	ltpFR	0	10	1	MONARCH	906	n/a	n/a	1	0.57763671875	0.412841796875	1	upper	zerothre.ttf
2612.71	n/a	REC_START	1306355	n/a	LTP182	ltpFR	0	10	n/a	n/a	n/a	n/a	n/a	n/a	n/a	n/a	n/a	n/a	n/a
2615.27	n/a	REC_WORD	1307635	wordpools/wasnorm_wordpool_less_exclusions.txt	LTP182	ltpFR	0	10	1	MONARCH	906	n/a	n/a	1	n/a	n/a	n/a	n/a	n/a
2616.118	n/a	REC_WORD	1308059	wordpools/wasnorm_wordpool_less_exclusions.txt	LTP182	ltpFR	0	10	n/a	BUTTERFLY	206	n/a	n/a	n/a	n/a	n/a	n/a	n/a	n/a
2617.118	n/a	REC_WORD_VV	1308559	wordpools/wasnorm_wordpool_less_exclusions.txt	LTP182	ltpFR	0	10	n/a	<>	-1	n/a	n/a	n/a	n/a	n/a	n/a	n/a	n/a
2618.884	n/a	REC_WORD_VV	1309442	wordpools/wasnorm_wordpool_less_exclusions.txt	LTP182	ltpFR	0	10	n/a	<>	-1	n/a	n/a	n/a	n/a	n/a	n/a	n/a	n/a
2619.884	n/a	REC_WORD_VV	1309942	wordpools/wasnorm_wordpool_less_exclusions.txt	LTP182	ltpFR	0	10	n/a	<>	-1	n/a	n/a	n/a	n/a	n/a	n/a	n/a	n/a
2630.474	n/a	REC_WORD	1315237	wordpools/wasnorm_wordpool_less_exclusions.txt	LTP182	ltpFR	0	10	1	APPLE	33	n/a	n/a	0	n/a	n/a	n/a	n/a	n/a
2631.064	n/a	REC_WORD	1315532	wordpools/wasnorm_wordpool_less_exclusions.txt	LTP182	ltpFR	0	10	n/a	DAISY	435	n/a	n/a	n/a	n/a	n/a	n/a	n/a	n/a
2631.604	n/a	REC_WORD	1315802	wordpools/wasnorm_wordpool_less_exclusions.txt	LTP182	ltpFR	0	10	1	ORANGE	980	n/a	n/a	0	n/a	n/a	n/a	n/a	n/a
2662.764	n/a	REC_WORD_VV	1331382	wordpools/wasnorm_wordpool_less_exclusions.txt	LTP182	ltpFR	0	10	n/a	<>	-1	n/a	n/a	n/a	n/a	n/a	n/a	n/a	n/a
2670.836	n/a	REC_WORD	1335418	wordpools/wasnorm_wordpool_less_exclusions.txt	LTP182	ltpFR	0	10	1	MONARCH	906	n/a	n/a	1	n/a	n/a	n/a	n/a	n/a
2687.41	n/a	REC_WORD_VV	1343705	wordpools/wasnorm_wordpool_less_exclusions.txt	LTP182	ltpFR	0	10	n/a	<>	-1	n/a	n/a	n/a	n/a	n/a	n/a	n/a	n/a
2704.41	n/a	WORD	1352205	wordpools/wasnorm_wordpool_less_exclusions.txt	LTP182	ltpFR	0	11	1	BOY	161	n/a	n/a	n/a	0.57763671875	0.412841796875	1	upper	zerothre.ttf
2707.44	n/a	SLOW_MSG	1353720	n/a	LTP182	ltpFR	0	11	n/a	n/a	n/a	n/a	n/a	n/a	n/a	n/a	n/a	n/a	n/a
2710.034	n/a	WORD	1355017	wordpools/wasnorm_wordpool_less_exclusions.txt	LTP182	ltpFR	0	11	1	GIRL	637	n/a	n/a	1	0.57763671875	0.412841796875	1	upper	zerothre.ttf
2714.232	n/a	WORD	1357116	wordpools/wasnorm_wordpool_less_exclusions.txt	LTP182	ltpFR	0	11	1	BRANCH	168	n/a	n/a	1	0.57763671875	0.412841796875	1	upper	zerothre.ttf
2718.248	n/a	WORD	1359124	wordpools/wasnorm_wordpool_less_exclusions.txt	LTP182	ltpFR	0	11	1	FLANNEL	574	n/a	n/a	0	0.57763671875	0.412841796875	1	upper	zerothre.ttf
2722.112	n/a	WORD	1361056	wordpools/wasnorm_wordpool_less_exclusions.txt	LTP182	ltpFR	0	11	1	WHALE	1601	n/a	n/a	1	0.57763671875	0.412841796875	1	upper	zerothre.ttf
2725.962	n/a	WORD	1362981	wordpools/wasnorm_wordpool_less_exclusions.txt	LTP182	ltpFR	0	11	1	MERMAID	887	n/a	n/a	1	0.57763671875	0.412841796875	1	upper	zerothre.ttf
2730.076	n/a	WORD	1365038	wordpools/wasnorm_wordpool_less_exclusions.txt	LTP182	ltpFR	0	11	1	GOWN	652	n/a	n/a	0	0.57763671875	0.412841796875	1	upper	zerothre.ttf
2734.024	n/a	WORD	1367012	wordpools/wasnorm_wordpool_less_exclusions.txt	LTP182	ltpFR	0	11	1	POWDER	1117	n/a	n/a	0	0.57763671875	0.412841796875	1	upper	zerothre.ttf
2738.022	n/a	WORD	1369011	wordpools/wasnorm_wordpool_less_exclusions.txt	LTP182	ltpFR	0	11	1	CHAIRPERSON	275	n/a	n/a	1	0.57763671875	0.412841796875	1	upper	zerothre.ttf
2742.174	n/a	WORD	1371087	wordpools/wasnorm_wordpool_less_exclusions.txt	LTP182	ltpFR	0	11	1	COD	340	n/a	n/a	1	0.57763671875	0.412841796875	1	upper	zerothre.ttf
2746.204	n/a	WORD	1373102	wordpools/wasnorm_wordpool_less_exclusions.txt	LTP182	ltpFR	0	11	1	BLOUSE	139	n/a	n/a	0	0.57763671875	0.412841796875	1	upper	zerothre.ttf
2750.37	n/a	WORD	1375185	wordpools/wasnorm_wordpool_less_exclusions.txt	LTP182	ltpFR	0	11	1	ASH	44	n/a	n/a	0	0.57763671875	0.412841796875	1	upper	zerothre.ttf
2754.32	n/a	WORD	1377160	wordpools/wasnorm_wordpool_less_exclusions.txt	LTP182	ltpFR	0	11	1	SWATTER	1418	n/a	n/a	0	0.57763671875	0.412841796875	1	upper	zerothre.ttf
2758.4	n/a	WORD	1379200	wordpools/wasnorm_wordpool_less_exclusions.txt	LTP182	ltpFR	0	11	1	NAVIGATOR	938	n/a	n/a	1	0.57763671875	0.412841796875	1	upper	zerothre.ttf
2762.484	n/a	WORD	1381242	wordpools/wasnorm_wordpool_less_exclusions.txt	LTP182	ltpFR	0	11	1	EYE	545	n/a	n/a	0	0.57763671875	0.412841796875	1	upper	zerothre.ttf
2766.682	n/a	WORD	1383341	wordpools/wasnorm_wordpool_less_exclusions.txt	LTP182	ltpFR	0	11	1	PERISCOPE	1050	n/a	n/a	0	0.57763671875	0.412841796875	1	upper	zerothre.ttf
2772.472	n/a	REC_START	1386236	n/a	LTP182	ltpFR	0	11	n/a	n/a	n/a	n/a	n/a	n/a	n/a	n/a	n/a	n/a	n/a
2773.57	n/a	REC_WORD_VV	1386785	wordpools/wasnorm_wordpool_less_exclusions.txt	LTP182	ltpFR	0	11	n/a	<>	-1	n/a	n/a	n/a	n/a	n/a	n/a	n/a	n/a
2774.154	n/a	REC_WORD	1387077	wordpools/wasnorm_wordpool_less_exclusions.txt	LTP182	ltpFR	0	11	1	PERISCOPE	1050	n/a	n/a	0	n/a	n/a	n/a	n/a	n/a
2775.616	n/a	REC_WORD	1387808	wordpools/wasnorm_wordpool_less_exclusions.txt	LTP182	ltpFR	0	11	1	EYE	545	n/a	n/a	0	n/a	n/a	n/a	n/a	n/a
2776.628	n/a	REC_WORD	1388314	wordpools/wasnorm_wordpool_less_exclusions.txt	LTP182	ltpFR	0	11	n/a	SQUATTER	-1	n/a	n/a	n/a	n/a	n/a	n/a	n/a	n/a
2779.05	n/a	REC_WORD_VV	1389525	wordpools/wasnorm_wordpool_less_exclusions.txt	LTP182	ltpFR	0	11	n/a	<>	-1	n/a	n/a	n/a	n/a	n/a	n/a	n/a	n/a
2783.204	n/a	REC_WORD	1391602	wordpools/wasnorm_wordpool_less_exclusions.txt	LTP182	ltpFR	0	11	1	GIRL	637	n/a	n/a	1	n/a	n/a	n/a	n/a	n/a
2786.52	n/a	REC_WORD	1393260	wordpools/wasnorm_wordpool_less_exclusions.txt	LTP182	ltpFR	0	11	1	BOY	161	n/a	n/a	n/a	n/a	n/a	n/a	n/a	n/a
2786.886	n/a	REC_WORD	1393443	wordpools/wasnorm_wordpool_less_exclusions.txt	LTP182	ltpFR	0	11	1	SWEATER	1419	n/a	n/a	n/a	n/a	n/a	n/a	n/a	n/a
2844.066	n/a	REC_WORD_VV	1422033	wordpools/wasnorm_wordpool_less_exclusions.txt	LTP182	ltpFR	0	11	n/a	<>	-1	n/a	n/a	n/a	n/a	n/a	n/a	n/a	n/a
2845.066	n/a	REC_WORD_VV	1422533	wordpools/wasnorm_wordpool_less_exclusions.txt	LTP182	ltpFR	0	11	n/a	<>	-1	n/a	n/a	n/a	n/a	n/a	n/a	n/a	n/a
2846.066	n/a	REC_WORD_VV	1423033	wordpools/wasnorm_wordpool_less_exclusions.txt	LTP182	ltpFR	0	11	n/a	<>	-1	n/a	n/a	n/a	n/a	n/a	n/a	n/a	n/a
2847.066	n/a	REC_WORD_VV	1423533	wordpools/wasnorm_wordpool_less_exclusions.txt	LTP182	ltpFR	0	11	n/a	<>	-1	n/a	n/a	n/a	n/a	n/a	n/a	n/a	n/a
2879.334	n/a	WORD	1439667	wordpools/wasnorm_wordpool_less_exclusions.txt	LTP182	ltpFR	0	12	1	CAFETERIA	217	n/a	n/a	n/a	0.57763671875	0.412841796875	1	upper	zerothre.ttf
2882.364	n/a	SLOW_MSG	1441182	n/a	LTP182	ltpFR	0	12	n/a	n/a	n/a	n/a	n/a	n/a	n/a	n/a	n/a	n/a	n/a
2884.75	n/a	WORD	1442375	wordpools/wasnorm_wordpool_less_exclusions.txt	LTP182	ltpFR	0	12	1	BAY	102	n/a	n/a	0	0.57763671875	0.412841796875	1	upper	zerothre.ttf
2888.932	n/a	WORD	1444466	wordpools/wasnorm_wordpool_less_exclusions.txt	LTP182	ltpFR	0	12	1	PUMP	1141	n/a	n/a	0	0.57763671875	0.412841796875	1	upper	zerothre.ttf
2892.964	n/a	WORD	1446482	wordpools/wasnorm_wordpool_less_exclusions.txt	LTP182	ltpFR	0	12	1	SLIDE	1326	n/a	n/a	0	0.57763671875	0.412841796875	1	upper	zerothre.ttf
2896.846	n/a	WORD	1448423	wordpools/wasnorm_wordpool_less_exclusions.txt	LTP182	ltpFR	0	12	1	RATTLE	1170	n/a	n/a	0	0.57763671875	0.412841796875	1	upper	zerothre.ttf
2900.778	n/a	WORD	1450389	wordpools/wasnorm_wordpool_less_exclusions.txt	LTP182	ltpFR	0	12	1	LAGOON	795	n/a	n/a	0	0.57763671875	0.412841796875	1	upper	zerothre.ttf
2904.612	n/a	WORD	1452306	wordpools/wasnorm_wordpool_less_exclusions.txt	LTP182	ltpFR	0	12	1	STREAM	1392	n/a	n/a	0	0.57763671875	0.412841796875	1	upper	zerothre.ttf
2908.774	n/a	WORD	1454387	wordpools/wasnorm_wordpool_less_exclusions.txt	LTP182	ltpFR	0	12	1	KITE	779	n/a	n/a	0	0.57763671875	0.412841796875	1	upper	zerothre.ttf
2912.926	n/a	WORD	1456463	wordpools/wasnorm_wordpool_less_exclusions.txt	LTP182	ltpFR	0	12	1	CHERRY	293	n/a	n/a	0	0.57763671875	0.412841796875	1	upper	zerothre.ttf
2916.772	n/a	WORD	1458386	wordpools/wasnorm_wordpool_less_exclusions.txt	LTP182	ltpFR	0	12	1	COUGAR	387	n/a	n/a	1	0.57763671875	0.412841796875	1	upper	zerothre.ttf
2920.654	n/a	WORD	1460327	wordpools/wasnorm_wordpool_less_exclusions.txt	LTP182	ltpFR	0	12	1	RICE	1190	n/a	n/a	0	0.57763671875	0.412841796875	1	upper	zerothre.ttf
2924.756	n/a	WORD	1462378	wordpools/wasnorm_wordpool_less_exclusions.txt	LTP182	ltpFR	0	12	1	ELK	526	n/a	n/a	1	0.57763671875	0.412841796875	1	upper	zerothre.ttf
2928.784	n/a	WORD	1464392	wordpools/wasnorm_wordpool_less_exclusions.txt	LTP182	ltpFR	0	12	1	PAW	1029	n/a	n/a	0	0.57763671875	0.412841796875	1	upper	zerothre.ttf
2932.616	n/a	WORD	1466308	wordpools/wasnorm_wordpool_less_exclusions.txt	LTP182	ltpFR	0	12	1	ANT	25	n/a	n/a	1	0.57763671875	0.412841796875	1	upper	zerothre.ttf
2936.518	n/a	WORD	1468259	wordpools/wasnorm_wordpool_less_exclusions.txt	LTP182	ltpFR	0	12	1	COCKTAIL	338	n/a	n/a	0	0.57763671875	0.412841796875	1	upper	zerothre.ttf
2940.514	n/a	WORD	1470257	wordpools/wasnorm_wordpool_less_exclusions.txt	LTP182	ltpFR	0	12	1	FELLOW	558	n/a	n/a	0	0.57763671875	0.412841796875	1	upper	zerothre.ttf
2946.62	n/a	REC_START	1473310	n/a	LTP182	ltpFR	0	12	n/a	n/a	n/a	n/a	n/a	n/a	n/a	n/a	n/a	n/a	n/a
2948.32	n/a	REC_WORD	1474160	wordpools/wasnorm_wordpool_less_exclusions.txt	LTP182	ltpFR	0	12	1	FELLOW	558	n/a	n/a	0	n/a	n/a	n/a	n/a	n/a
2949.164	n/a	REC_WORD	1474582	wordpools/wasnorm_wordpool_less_exclusions.txt	LTP182	ltpFR	0	12	1	ANT	25	n/a	n/a	1	n/a	n/a	n/a	n/a	n/a
2949.93	n/a	REC_WORD	1474965	wordpools/wasnorm_wordpool_less_exclusions.txt	LTP182	ltpFR	0	12	1	COCKTAIL	338	n/a	n/a	0	n/a	n/a	n/a	n/a	n/a
2952.276	n/a	REC_WORD_VV	1476138	wordpools/wasnorm_wordpool_less_exclusions.txt	LTP182	ltpFR	0	12	n/a	<>	-1	n/a	n/a	n/a	n/a	n/a	n/a	n/a	n/a
2969.632	n/a	REC_WORD	1484816	wordpools/wasnorm_wordpool_less_exclusions.txt	LTP182	ltpFR	0	12	1	LAGOON	795	n/a	n/a	0	n/a	n/a	n/a	n/a	n/a
2970.832	n/a	REC_WORD	1485416	wordpools/wasnorm_wordpool_less_exclusions.txt	LTP182	ltpFR	0	12	1	STREAM	1392	n/a	n/a	0	n/a	n/a	n/a	n/a	n/a
2999.288	n/a	REC_WORD	1499644	wordpools/wasnorm_wordpool_less_exclusions.txt	LTP182	ltpFR	0	12	1	ANT	25	n/a	n/a	1	n/a	n/a	n/a	n/a	n/a
3001.966	n/a	REC_WORD	1500983	wordpools/wasnorm_wordpool_less_exclusions.txt	LTP182	ltpFR	0	12	1	FELLOW	558	n/a	n/a	0	n/a	n/a	n/a	n/a	n/a
3022.244	n/a	REST_REWET	1511122	n/a	LTP182	ltpFR	0	12	n/a	n/a	n/a	n/a	n/a	n/a	n/a	n/a	n/a	n/a	n/a
3405.81	n/a	WORD	1702905	wordpools/wasnorm_wordpool_less_exclusions.txt	LTP182	ltpFR	0	13	0	COMMITTEE	355	n/a	n/a	n/a	0.422607421875	0.5869140625	0	lower	amplitud.ttf
3408.852	n/a	SLOW_MSG	1704426	n/a	LTP182	ltpFR	0	13	n/a	n/a	n/a	n/a	n/a	n/a	n/a	n/a	n/a	n/a	n/a
3411.414	n/a	WORD	1705707	wordpools/wasnorm_wordpool_less_exclusions.txt	LTP182	ltpFR	0	13	0	WAREHOUSE	1588	n/a	n/a	1	0.422607421875	0.5869140625	0	lower	amplitud.ttf
3415.262	n/a	WORD	1707631	wordpools/wasnorm_wordpool_less_exclusions.txt	LTP182	ltpFR	0	13	0	REPTILE	1185	n/a	n/a	0	0.422607421875	0.5869140625	0	lower	amplitud.ttf
3419.41	n/a	WORD	1709705	wordpools/wasnorm_wordpool_less_exclusions.txt	LTP182	ltpFR	0	13	1	GLASSES	640	n/a	n/a	0	0.57763671875	0.412841796875	1	upper	zerothre.ttf
3423.348	n/a	WORD	1711674	wordpools/wasnorm_wordpool_less_exclusions.txt	LTP182	ltpFR	0	13	1	SHEARS	1276	n/a	n/a	0	0.57763671875	0.412841796875	1	upper	zerothre.ttf
3427.36	n/a	WORD	1713680	wordpools/wasnorm_wordpool_less_exclusions.txt	LTP182	ltpFR	0	13	1	TRAITOR	1495	n/a	n/a	1	0.57763671875	0.412841796875	1	upper	zerothre.ttf
3431.222	n/a	WORD	1715611	wordpools/wasnorm_wordpool_less_exclusions.txt	LTP182	ltpFR	0	13	1	CROOK	412	n/a	n/a	1	0.57763671875	0.412841796875	1	upper	zerothre.ttf
3435.388	n/a	WORD	1717694	wordpools/wasnorm_wordpool_less_exclusions.txt	LTP182	ltpFR	0	13	0	CUBE	420	n/a	n/a	0	0.422607421875	0.5869140625	0	lower	amplitud.ttf
3439.486	n/a	WORD	1719743	wordpools/wasnorm_wordpool_less_exclusions.txt	LTP182	ltpFR	0	13	0	DAM	436	n/a	n/a	1	0.422607421875	0.5869140625	0	lower	amplitud.ttf
3443.436	n/a	WORD	1721718	wordpools/wasnorm_wordpool_less_exclusions.txt	LTP182	ltpFR	0	13	1	BROOK	177	n/a	n/a	2	0.57763671875	0.412841796875	1	upper	zerothre.ttf
3446.48	n/a	KEY_MSG	1723240	n/a	LTP182	ltpFR	0	13	n/a	n/a	n/a	n/a	n/a	n/a	n/a	n/a	n/a	n/a	n/a
3449.058	n/a	WORD	1724529	wordpools/wasnorm_wordpool_less_exclusions.txt	LTP182	ltpFR	0	13	1	PISTON	1076	n/a	n/a	3	0.57763671875	0.412841796875	1	upper	zerothre.ttf
3451.984	n/a	KEY_MSG	1725992	n/a	LTP182	ltpFR	0	13	n/a	n/a	n/a	n/a	n/a	n/a	n/a	n/a	n/a	n/a	n/a
3454.71	n/a	WORD	1727355	wordpools/wasnorm_wordpool_less_exclusions.txt	LTP182	ltpFR	0	13	1	FROG	608	n/a	n/a	1	0.57763671875	0.412841796875	1	upper	zerothre.ttf
3458.792	n/a	WORD	1729396	wordpools/wasnorm_wordpool_less_exclusions.txt	LTP182	ltpFR	0	13	1	COBRA	336	n/a	n/a	1	0.57763671875	0.412841796875	1	upper	zerothre.ttf
3462.628	n/a	WORD	1731314	wordpools/wasnorm_wordpool_less_exclusions.txt	LTP182	ltpFR	0	13	0	NICKEL	950	n/a	n/a	0	0.422607421875	0.5869140625	0	lower	amplitud.ttf
3466.548	n/a	WORD	1733274	wordpools/wasnorm_wordpool_less_exclusions.txt	LTP182	ltpFR	0	13	0	TREASURE	1500	n/a	n/a	0	0.422607421875	0.5869140625	0	lower	amplitud.ttf
3470.656	n/a	WORD	1735328	wordpools/wasnorm_wordpool_less_exclusions.txt	LTP182	ltpFR	0	13	0	SAW	1239	n/a	n/a	0	0.422607421875	0.5869140625	0	lower	amplitud.ttf
3476.362	n/a	REC_START	1738181	n/a	LTP182	ltpFR	0	13	n/a	n/a	n/a	n/a	n/a	n/a	n/a	n/a	n/a	n/a	n/a
3480.622	n/a	REC_WORD_VV	1740311	wordpools/wasnorm_wordpool_less_exclusions.txt	LTP182	ltpFR	0	13	n/a	<>	-1	n/a	n/a	n/a	n/a	n/a	n/a	n/a	n/a
3481.622	n/a	REC_WORD_VV	1740811	wordpools/wasnorm_wordpool_less_exclusions.txt	LTP182	ltpFR	0	13	n/a	<>	-1	n/a	n/a	n/a	n/a	n/a	n/a	n/a	n/a
3482.528	n/a	REC_WORD	1741264	wordpools/wasnorm_wordpool_less_exclusions.txt	LTP182	ltpFR	0	13	0	SAW	1239	n/a	n/a	0	n/a	n/a	n/a	n/a	n/a
3484.224	n/a	REC_WORD_VV	1742112	wordpools/wasnorm_wordpool_less_exclusions.txt	LTP182	ltpFR	0	13	n/a	<>	-1	n/a	n/a	n/a	n/a	n/a	n/a	n/a	n/a
3484.528	n/a	REC_WORD	1742264	wordpools/wasnorm_wordpool_less_exclusions.txt	LTP182	ltpFR	0	13	n/a	MILL	-1	n/a	n/a	n/a	n/a	n/a	n/a	n/a	n/a
3486.568	n/a	REC_WORD_VV	1743284	wordpools/wasnorm_wordpool_less_exclusions.txt	LTP182	ltpFR	0	13	n/a	<>	-1	n/a	n/a	n/a	n/a	n/a	n/a	n/a	n/a
3488.574	n/a	REC_WORD	1744287	wordpools/wasnorm_wordpool_less_exclusions.txt	LTP182	ltpFR	0	13	1	TRAITOR	1495	n/a	n/a	1	n/a	n/a	n/a	n/a	n/a
3489.382	n/a	REC_WORD	1744691	wordpools/wasnorm_wordpool_less_exclusions.txt	LTP182	ltpFR	0	13	1	CROOK	412	n/a	n/a	1	n/a	n/a	n/a	n/a	n/a
3491.674	n/a	REC_WORD_VV	1745837	wordpools/wasnorm_wordpool_less_exclusions.txt	LTP182	ltpFR	0	13	n/a	<>	-1	n/a	n/a	n/a	n/a	n/a	n/a	n/a	n/a
3492.674	n/a	REC_WORD_VV	1746337	wordpools/wasnorm_wordpool_less_exclusions.txt	LTP182	ltpFR	0	13	n/a	<>	-1	n/a	n/a	n/a	n/a	n/a	n/a	n/a	n/a
3496.91	n/a	REC_WORD	1748455	wordpools/wasnorm_wordpool_less_exclusions.txt	LTP182	ltpFR	0	13	1	COBRA	336	n/a	n/a	1	n/a	n/a	n/a	n/a	n/a
3502.658	n/a	REC_WORD	1751329	wordpools/wasnorm_wordpool_less_exclusions.txt	LTP182	ltpFR	0	13	0	DAM	436	n/a	n/a	1	n/a	n/a	n/a	n/a	n/a
3528.146	n/a	REC_WORD	1764073	wordpools/wasnorm_wordpool_less_exclusions.txt	LTP182	ltpFR	0	13	1	FROG	608	n/a	n/a	1	n/a	n/a	n/a	n/a	n/a
3561.556	n/a	WORD	1780778	wordpools/wasnorm_wordpool_less_exclusions.txt	LTP182	ltpFR	0	14	1	DRIVER	499	n/a	n/a	1	0.57763671875	0.412841796875	1	upper	zerothre.ttf
3565.536	n/a	WORD	1782768	wordpools/wasnorm_wordpool_less_exclusions.txt	LTP182	ltpFR	0	14	1	FLASK	576	n/a	n/a	0	0.57763671875	0.412841796875	1	upper	zerothre.ttf
3569.634	n/a	WORD	1784817	wordpools/wasnorm_wordpool_less_exclusions.txt	LTP182	ltpFR	0	14	1	CONTAINER	366	n/a	n/a	0	0.57763671875	0.412841796875	1	upper	zerothre.ttf
3573.8	n/a	WORD	1786900	wordpools/wasnorm_wordpool_less_exclusions.txt	LTP182	ltpFR	0	14	0	WATERFALL	1595	n/a	n/a	1	0.422607421875	0.5869140625	0	lower	amplitud.ttf
3577.848	n/a	WORD	1788924	wordpools/wasnorm_wordpool_less_exclusions.txt	LTP182	ltpFR	0	14	0	MAPLE	866	n/a	n/a	1	0.422607421875	0.5869140625	0	lower	amplitud.ttf
3582.032	n/a	WORD	1791016	wordpools/wasnorm_wordpool_less_exclusions.txt	LTP182	ltpFR	0	14	0	BROCCOLI	176	n/a	n/a	0	0.422607421875	0.5869140625	0	lower	amplitud.ttf
3585.98	n/a	WORD	1792990	wordpools/wasnorm_wordpool_less_exclusions.txt	LTP182	ltpFR	0	14	0	POPE	1105	n/a	n/a	1	0.422607421875	0.5869140625	0	lower	amplitud.ttf
3589.978	n/a	WORD	1794989	wordpools/wasnorm_wordpool_less_exclusions.txt	LTP182	ltpFR	0	14	1	QUAIL	1147	n/a	n/a	1	0.57763671875	0.412841796875	1	upper	zerothre.ttf
3593.91	n/a	WORD	1796955	wordpools/wasnorm_wordpool_less_exclusions.txt	LTP182	ltpFR	0	14	1	PARROT	1015	n/a	n/a	1	0.57763671875	0.412841796875	1	upper	zerothre.ttf
3597.846	n/a	WORD	1798923	wordpools/wasnorm_wordpool_less_exclusions.txt	LTP182	ltpFR	0	14	1	PLUMBER	1091	n/a	n/a	1	0.57763671875	0.412841796875	1	upper	zerothre.ttf
3601.842	n/a	WORD	1800921	wordpools/wasnorm_wordpool_less_exclusions.txt	LTP182	ltpFR	0	14	0	REEF	1177	n/a	n/a	n/a	0.422607421875	0.5869140625	0	lower	amplitud.ttf
3604.872	n/a	SLOW_MSG	1802436	n/a	LTP182	ltpFR	0	14	n/a	n/a	n/a	n/a	n/a	n/a	n/a	n/a	n/a	n/a	n/a
3607.47	n/a	WORD	1803735	wordpools/wasnorm_wordpool_less_exclusions.txt	LTP182	ltpFR	0	14	0	JEEP	753	n/a	n/a	1	0.422607421875	0.5869140625	0	lower	amplitud.ttf
3611.496	n/a	WORD	1805748	wordpools/wasnorm_wordpool_less_exclusions.txt	LTP182	ltpFR	0	14	0	SOCK	1339	n/a	n/a	0	0.422607421875	0.5869140625	0	lower	amplitud.ttf
3615.61	n/a	WORD	1807805	wordpools/wasnorm_wordpool_less_exclusions.txt	LTP182	ltpFR	0	14	0	SPONGE	1355	n/a	n/a	0	0.422607421875	0.5869140625	0	lower	amplitud.ttf
3619.592	n/a	WORD	1809796	wordpools/wasnorm_wordpool_less_exclusions.txt	LTP182	ltpFR	0	14	1	SAILOR	1223	n/a	n/a	1	0.57763671875	0.412841796875	1	upper	zerothre.ttf
3623.608	n/a	WORD	1811804	wordpools/wasnorm_wordpool_less_exclusions.txt	LTP182	ltpFR	0	14	1	MARINE	869	n/a	n/a	1	0.57763671875	0.412841796875	1	upper	zerothre.ttf
3629.48	n/a	REC_START	1814740	n/a	LTP182	ltpFR	0	14	n/a	n/a	n/a	n/a	n/a	n/a	n/a	n/a	n/a	n/a	n/a
3631.318	n/a	REC_WORD_VV	1815659	wordpools/wasnorm_wordpool_less_exclusions.txt	LTP182	ltpFR	0	14	n/a	<>	-1	n/a	n/a	n/a	n/a	n/a	n/a	n/a	n/a
3632.304	n/a	REC_WORD	1816152	wordpools/wasnorm_wordpool_less_exclusions.txt	LTP182	ltpFR	0	14	1	MARINE	869	n/a	n/a	1	n/a	n/a	n/a	n/a	n/a
3634.336	n/a	REC_WORD	1817168	wordpools/wasnorm_wordpool_less_exclusions.txt	LTP182	ltpFR	0	14	1	SAILOR	1223	n/a	n/a	1	n/a	n/a	n/a	n/a	n/a
3636.78	n/a	REC_WORD_VV	1818390	wordpools/wasnorm_wordpool_less_exclusions.txt	LTP182	ltpFR	0	14	n/a	<>	-1	n/a	n/a	n/a	n/a	n/a	n/a	n/a	n/a
3645.294	n/a	REC_WORD_VV	1822647	wordpools/wasnorm_wordpool_less_exclusions.txt	LTP182	ltpFR	0	14	n/a	<>	-1	n/a	n/a	n/a	n/a	n/a	n/a	n/a	n/a
3661.754	n/a	REC_WORD	1830877	wordpools/wasnorm_wordpool_less_exclusions.txt	LTP182	ltpFR	0	14	1	CONTAINER	366	n/a	n/a	0	n/a	n/a	n/a	n/a	n/a
3665.784	n/a	REC_WORD	1832892	wordpools/wasnorm_wordpool_less_exclusions.txt	LTP182	ltpFR	0	14	1	FLASK	576	n/a	n/a	0	n/a	n/a	n/a	n/a	n/a
3698.762	n/a	REC_WORD	1849381	wordpools/wasnorm_wordpool_less_exclusions.txt	LTP182	ltpFR	0	14	1	PLUMBER	1091	n/a	n/a	1	n/a	n/a	n/a	n/a	n/a
3719.374	n/a	WORD	1859687	wordpools/wasnorm_wordpool_less_exclusions.txt	LTP182	ltpFR	0	15	0	KIDNEY	776	n/a	n/a	0	0.422607421875	0.5869140625	0	lower	amplitud.ttf
3723.494	n/a	WORD	1861747	wordpools/wasnorm_wordpool_less_exclusions.txt	LTP182	ltpFR	0	15	0	CHEST	295	n/a	n/a	1	0.422607421875	0.5869140625	0	lower	amplitud.ttf
3727.522	n/a	WORD	1863761	wordpools/wasnorm_wordpool_less_exclusions.txt	LTP182	ltpFR	0	15	0	BASEMENT	94	n/a	n/a	1	0.422607421875	0.5869140625	0	lower	amplitud.ttf
3731.504	n/a	WORD	1865752	wordpools/wasnorm_wordpool_less_exclusions.txt	LTP182	ltpFR	0	15	1	TREE	1502	n/a	n/a	1	0.57763671875	0.412841796875	1	upper	zerothre.ttf
3735.504	n/a	WORD	1867752	wordpools/wasnorm_wordpool_less_exclusions.txt	LTP182	ltpFR	0	15	1	TIMBER	1469	n/a	n/a	0	0.57763671875	0.412841796875	1	upper	zerothre.ttf
3739.584	n/a	WORD	1869792	wordpools/wasnorm_wordpool_less_exclusions.txt	LTP182	ltpFR	0	15	1	CRITIC	410	n/a	n/a	1	0.57763671875	0.412841796875	1	upper	zerothre.ttf
3743.534	n/a	WORD	1871767	wordpools/wasnorm_wordpool_less_exclusions.txt	LTP182	ltpFR	0	15	1	BISON	131	n/a	n/a	1	0.57763671875	0.412841796875	1	upper	zerothre.ttf
3747.416	n/a	WORD	1873708	wordpools/wasnorm_wordpool_less_exclusions.txt	LTP182	ltpFR	0	15	0	CHEDDAR	286	n/a	n/a	0	0.422607421875	0.5869140625	0	lower	amplitud.ttf
3751.496	n/a	WORD	1875748	wordpools/wasnorm_wordpool_less_exclusions.txt	LTP182	ltpFR	0	15	0	UNDERWEAR	1537	n/a	n/a	0	0.422607421875	0.5869140625	0	lower	amplitud.ttf
3755.578	n/a	WORD	1877789	wordpools/wasnorm_wordpool_less_exclusions.txt	LTP182	ltpFR	0	15	0	CANDIDATE	228	n/a	n/a	1	0.422607421875	0.5869140625	0	lower	amplitud.ttf
3759.576	n/a	WORD	1879788	wordpools/wasnorm_wordpool_less_exclusions.txt	LTP182	ltpFR	0	15	0	FLASHLIGHT	575	n/a	n/a	0	0.422607421875	0.5869140625	0	lower	amplitud.ttf
3763.398	n/a	WORD	1881699	wordpools/wasnorm_wordpool_less_exclusions.txt	LTP182	ltpFR	0	15	0	HANGER	687	n/a	n/a	0	0.422607421875	0.5869140625	0	lower	amplitud.ttf
3767.226	n/a	WORD	1883613	wordpools/wasnorm_wordpool_less_exclusions.txt	LTP182	ltpFR	0	15	1	GOVERNOR	651	n/a	n/a	1	0.57763671875	0.412841796875	1	upper	zerothre.ttf
3771.122	n/a	WORD	1885561	wordpools/wasnorm_wordpool_less_exclusions.txt	LTP182	ltpFR	0	15	1	CHARCOAL	281	n/a	n/a	0	0.57763671875	0.412841796875	1	upper	zerothre.ttf
3775.32	n/a	WORD	1887660	wordpools/wasnorm_wordpool_less_exclusions.txt	LTP182	ltpFR	0	15	1	RESTAURANT	1187	n/a	n/a	0	0.57763671875	0.412841796875	1	upper	zerothre.ttf
3779.402	n/a	WORD	1889701	wordpools/wasnorm_wordpool_less_exclusions.txt	LTP182	ltpFR	0	15	1	CUPBOARD	425	n/a	n/a	0	0.57763671875	0.412841796875	1	upper	zerothre.ttf
3785.294	n/a	REC_START	1892647	n/a	LTP182	ltpFR	0	15	n/a	n/a	n/a	n/a	n/a	n/a	n/a	n/a	n/a	n/a	n/a
3786.256	n/a	REC_WORD	1893128	wordpools/wasnorm_wordpool_less_exclusions.txt	LTP182	ltpFR	0	15	1	CUPBOARD	425	n/a	n/a	0	n/a	n/a	n/a	n/a	n/a
3787.188	n/a	REC_WORD	1893594	wordpools/wasnorm_wordpool_less_exclusions.txt	LTP182	ltpFR	0	15	n/a	NONLIVING	-1	n/a	n/a	n/a	n/a	n/a	n/a	n/a	n/a
3788.406	n/a	REC_WORD	1894203	wordpools/wasnorm_wordpool_less_exclusions.txt	LTP182	ltpFR	0	15	1	RESTAURANT	1187	n/a	n/a	0	n/a	n/a	n/a	n/a	n/a
3790.336	n/a	REC_WORD_VV	1895168	wordpools/wasnorm_wordpool_less_exclusions.txt	LTP182	ltpFR	0	15	n/a	<>	-1	n/a	n/a	n/a	n/a	n/a	n/a	n/a	n/a
3792.482	n/a	REC_WORD	1896241	wordpools/wasnorm_wordpool_less_exclusions.txt	LTP182	ltpFR	0	15	1	GOVERNOR	651	n/a	n/a	1	n/a	n/a	n/a	n/a	n/a
3795.614	n/a	REC_WORD	1897807	wordpools/wasnorm_wordpool_less_exclusions.txt	LTP182	ltpFR	0	15	0	CANDIDATE	228	n/a	n/a	1	n/a	n/a	n/a	n/a	n/a
3798.016	n/a	REC_WORD_VV	1899008	wordpools/wasnorm_wordpool_less_exclusions.txt	LTP182	ltpFR	0	15	n/a	<>	-1	n/a	n/a	n/a	n/a	n/a	n/a	n/a	n/a
3824.69	n/a	REC_WORD	1912345	wordpools/wasnorm_wordpool_less_exclusions.txt	LTP182	ltpFR	0	15	1	TREE	1502	n/a	n/a	1	n/a	n/a	n/a	n/a	n/a
3829.884	n/a	REC_WORD	1914942	wordpools/wasnorm_wordpool_less_exclusions.txt	LTP182	ltpFR	0	15	1	TIMBER	1469	n/a	n/a	0	n/a	n/a	n/a	n/a	n/a
3852.472	n/a	REC_WORD	1926236	wordpools/wasnorm_wordpool_less_exclusions.txt	LTP182	ltpFR	0	15	0	FLASHLIGHT	575	n/a	n/a	0	n/a	n/a	n/a	n/a	n/a
3902.272	n/a	WORD	1951136	wordpools/wasnorm_wordpool_less_exclusions.txt	LTP182	ltpFR	0	16	1	BLANKET	135	n/a	n/a	0	0.57763671875	0.412841796875	1	upper	zerothre.ttf
3906.388	n/a	WORD	1953194	wordpools/wasnorm_wordpool_less_exclusions.txt	LTP182	ltpFR	0	16	1	HEATER	698	n/a	n/a	0	0.57763671875	0.412841796875	1	upper	zerothre.ttf
3910.454	n/a	WORD	1955227	wordpools/wasnorm_wordpool_less_exclusions.txt	LTP182	ltpFR	0	16	0	WAITRESS	1581	n/a	n/a	1	0.422607421875	0.5869140625	0	lower	amplitud.ttf
3914.586	n/a	WORD	1957293	wordpools/wasnorm_wordpool_less_exclusions.txt	LTP182	ltpFR	0	16	0	BUTTON	207	n/a	n/a	0	0.422607421875	0.5869140625	0	lower	amplitud.ttf
3918.768	n/a	WORD	1959384	wordpools/wasnorm_wordpool_less_exclusions.txt	LTP182	ltpFR	0	16	0	HOOD	714	n/a	n/a	0	0.422607421875	0.5869140625	0	lower	amplitud.ttf
3922.75	n/a	WORD	1961375	wordpools/wasnorm_wordpool_less_exclusions.txt	LTP182	ltpFR	0	16	0	GRIZZLY	662	n/a	n/a	1	0.422607421875	0.5869140625	0	lower	amplitud.ttf
3926.748	n/a	WORD	1963374	wordpools/wasnorm_wordpool_less_exclusions.txt	LTP182	ltpFR	0	16	1	CROW	414	n/a	n/a	1	0.57763671875	0.412841796875	1	upper	zerothre.ttf
3930.714	n/a	WORD	1965357	wordpools/wasnorm_wordpool_less_exclusions.txt	LTP182	ltpFR	0	16	1	PUDDLE	1140	n/a	n/a	0	0.57763671875	0.412841796875	1	upper	zerothre.ttf
3934.562	n/a	WORD	1967281	wordpools/wasnorm_wordpool_less_exclusions.txt	LTP182	ltpFR	0	16	1	SQUIRREL	1362	n/a	n/a	1	0.57763671875	0.412841796875	1	upper	zerothre.ttf
3938.428	n/a	WORD	1969214	wordpools/wasnorm_wordpool_less_exclusions.txt	LTP182	ltpFR	0	16	1	ACORN	3	n/a	n/a	0	0.57763671875	0.412841796875	1	upper	zerothre.ttf
3942.292	n/a	WORD	1971146	wordpools/wasnorm_wordpool_less_exclusions.txt	LTP182	ltpFR	0	16	1	NET	946	n/a	n/a	0	0.57763671875	0.412841796875	1	upper	zerothre.ttf
3946.492	n/a	WORD	1973246	wordpools/wasnorm_wordpool_less_exclusions.txt	LTP182	ltpFR	0	16	1	SERVANT	1271	n/a	n/a	1	0.57763671875	0.412841796875	1	upper	zerothre.ttf
3950.456	n/a	WORD	1975228	wordpools/wasnorm_wordpool_less_exclusions.txt	LTP182	ltpFR	0	16	0	WELL	1600	n/a	n/a	1	0.422607421875	0.5869140625	0	lower	amplitud.ttf
3954.672	n/a	WORD	1977336	wordpools/wasnorm_wordpool_less_exclusions.txt	LTP182	ltpFR	0	16	0	PIGEON	1065	n/a	n/a	0	0.422607421875	0.5869140625	0	lower	amplitud.ttf
3958.606	n/a	WORD	1979303	wordpools/wasnorm_wordpool_less_exclusions.txt	LTP182	ltpFR	0	16	0	MAJOR	859	n/a	n/a	0	0.422607421875	0.5869140625	0	lower	amplitud.ttf
3962.52	n/a	WORD	1981260	wordpools/wasnorm_wordpool_less_exclusions.txt	LTP182	ltpFR	0	16	0	NOSE	957	n/a	n/a	0	0.422607421875	0.5869140625	0	lower	amplitud.ttf
3968.326	n/a	REC_START	1984163	n/a	LTP182	ltpFR	0	16	n/a	n/a	n/a	n/a	n/a	n/a	n/a	n/a	n/a	n/a	n/a
3970.816	n/a	REC_WORD_VV	1985408	wordpools/wasnorm_wordpool_less_exclusions.txt	LTP182	ltpFR	0	16	n/a	<>	-1	n/a	n/a	n/a	n/a	n/a	n/a	n/a	n/a
3971.588	n/a	REC_WORD	1985794	wordpools/wasnorm_wordpool_less_exclusions.txt	LTP182	ltpFR	0	16	0	MAJOR	859	n/a	n/a	0	n/a	n/a	n/a	n/a	n/a
3973.03	n/a	REC_WORD_VV	1986515	wordpools/wasnorm_wordpool_less_exclusions.txt	LTP182	ltpFR	0	16	n/a	<>	-1	n/a	n/a	n/a	n/a	n/a	n/a	n/a	n/a
3974.956	n/a	REC_WORD_VV	1987478	wordpools/wasnorm_wordpool_less_exclusions.txt	LTP182	ltpFR	0	16	n/a	<>	-1	n/a	n/a	n/a	n/a	n/a	n/a	n/a	n/a
3979.624	n/a	REC_WORD_VV	1989812	wordpools/wasnorm_wordpool_less_exclusions.txt	LTP182	ltpFR	0	16	n/a	<>	-1	n/a	n/a	n/a	n/a	n/a	n/a	n/a	n/a
4010.846	n/a	REC_WORD	2005423	wordpools/wasnorm_wordpool_less_exclusions.txt	LTP182	ltpFR	0	16	0	WELL	1600	n/a	n/a	1	n/a	n/a	n/a	n/a	n/a
4031.444	n/a	REC_WORD	2015722	wordpools/wasnorm_wordpool_less_exclusions.txt	LTP182	ltpFR	0	16	0	PIGEON	1065	n/a	n/a	0	n/a	n/a	n/a	n/a	n/a
4041.054	n/a	REC_WORD	2020527	wordpools/wasnorm_wordpool_less_exclusions.txt	LTP182	ltpFR	0	16	0	WELL	1600	n/a	n/a	1	n/a	n/a	n/a	n/a	n/a
4168.958	n/a	REC_START	2084479	n/a	LTP182	ltpFR	0	n/a	n/a	n/a	n/a	n/a	n/a	n/a	n/a	n/a	n/a	n/a	n/a
4170.116	n/a	FFR_REC_WORD_VV	2085058	wordpools/wasnorm_wordpool_less_exclusions.txt	LTP182	ltpFR	0	n/a	n/a	<>	-1	n/a	n/a	n/a	n/a	n/a	n/a	n/a	n/a
4170.988	n/a	FFR_REC_WORD	2085494	wordpools/wasnorm_wordpool_less_exclusions.txt	LTP182	ltpFR	0	n/a	1	PLUMBER	1091	n/a	n/a	1	n/a	n/a	n/a	n/a	n/a
4172.634	n/a	FFR_REC_WORD	2086317	wordpools/wasnorm_wordpool_less_exclusions.txt	LTP182	ltpFR	0	n/a	1	MONARCH	906	n/a	n/a	1	n/a	n/a	n/a	n/a	n/a
4174.914	n/a	FFR_REC_WORD	2087457	wordpools/wasnorm_wordpool_less_exclusions.txt	LTP182	ltpFR	0	n/a	-1	OWL	992	n/a	n/a	-1	n/a	n/a	n/a	n/a	n/a
4177.15	n/a	FFR_REC_WORD_VV	2088575	wordpools/wasnorm_wordpool_less_exclusions.txt	LTP182	ltpFR	0	n/a	n/a	<>	-1	n/a	n/a	n/a	n/a	n/a	n/a	n/a	n/a
4177.454	n/a	FFR_REC_WORD	2088727	wordpools/wasnorm_wordpool_less_exclusions.txt	LTP182	ltpFR	0	n/a	1	LAGOON	795	n/a	n/a	0	n/a	n/a	n/a	n/a	n/a
4178.41	n/a	FFR_REC_WORD	2089205	wordpools/wasnorm_wordpool_less_exclusions.txt	LTP182	ltpFR	0	n/a	1	STREAM	1392	n/a	n/a	0	n/a	n/a	n/a	n/a	n/a
4182.65	n/a	FFR_REC_WORD	2091325	wordpools/wasnorm_wordpool_less_exclusions.txt	LTP182	ltpFR	0	n/a	1	PLUMBER	1091	n/a	n/a	1	n/a	n/a	n/a	n/a	n/a
4185.394	n/a	FFR_REC_WORD_VV	2092697	wordpools/wasnorm_wordpool_less_exclusions.txt	LTP182	ltpFR	0	n/a	n/a	<>	-1	n/a	n/a	n/a	n/a	n/a	n/a	n/a	n/a
4187.632	n/a	FFR_REC_WORD	2093816	wordpools/wasnorm_wordpool_less_exclusions.txt	LTP182	ltpFR	0	n/a	0	DAM	436	n/a	n/a	1	n/a	n/a	n/a	n/a	n/a
4193.386	n/a	FFR_REC_WORD	2096693	wordpools/wasnorm_wordpool_less_exclusions.txt	LTP182	ltpFR	0	n/a	1	ACORN	3	n/a	n/a	0	n/a	n/a	n/a	n/a	n/a
4197.952	n/a	FFR_REC_WORD	2098976	wordpools/wasnorm_wordpool_less_exclusions.txt	LTP182	ltpFR	0	n/a	1	TREE	1502	n/a	n/a	1	n/a	n/a	n/a	n/a	n/a
4202.728	n/a	FFR_REC_WORD_VV	2101364	wordpools/wasnorm_wordpool_less_exclusions.txt	LTP182	ltpFR	0	n/a	n/a	<>	-1	n/a	n/a	n/a	n/a	n/a	n/a	n/a	n/a
4203.162	n/a	FFR_REC_WORD	2101581	wordpools/wasnorm_wordpool_less_exclusions.txt	LTP182	ltpFR	0	n/a	n/a	LUMBER	848	n/a	n/a	n/a	n/a	n/a	n/a	n/a	n/a
4205.818	n/a	FFR_REC_WORD	2102909	wordpools/wasnorm_wordpool_less_exclusions.txt	LTP182	ltpFR	0	n/a	-1	ARCHITECT	36	n/a	n/a	-1	n/a	n/a	n/a	n/a	n/a
4207.582	n/a	FFR_REC_WORD	2103791	wordpools/wasnorm_wordpool_less_exclusions.txt	LTP182	ltpFR	0	n/a	-1	ATTORNEY	58	n/a	n/a	-1	n/a	n/a	n/a	n/a	n/a
4225.556	n/a	FFR_REC_WORD	2112778	wordpools/wasnorm_wordpool_less_exclusions.txt	LTP182	ltpFR	0	n/a	-1	COLLAR	345	n/a	n/a	-1	n/a	n/a	n/a	n/a	n/a
4226.716	n/a	FFR_REC_WORD	2113358	wordpools/wasnorm_wordpool_less_exclusions.txt	LTP182	ltpFR	0	n/a	-1	TROUSERS	1510	n/a	n/a	-1	n/a	n/a	n/a	n/a	n/a
4229.808	n/a	FFR_REC_WORD	2114904	wordpools/wasnorm_wordpool_less_exclusions.txt	LTP182	ltpFR	0	n/a	-1	CUFF	423	n/a	n/a	-1	n/a	n/a	n/a	n/a	n/a
4232.428	n/a	FFR_REC_WORD	2116214	wordpools/wasnorm_wordpool_less_exclusions.txt	LTP182	ltpFR	0	n/a	1	EYE	545	n/a	n/a	0	n/a	n/a	n/a	n/a	n/a
4233.874	n/a	FFR_REC_WORD	2116937	wordpools/wasnorm_wordpool_less_exclusions.txt	LTP182	ltpFR	0	n/a	0	NOSE	957	n/a	n/a	0	n/a	n/a	n/a	n/a	n/a
4235.886	n/a	FFR_REC_WORD_VV	2117943	wordpools/wasnorm_wordpool_less_exclusions.txt	LTP182	ltpFR	0	n/a	n/a	<>	-1	n/a	n/a	n/a	n/a	n/a	n/a	n/a	n/a
4242.368	n/a	FFR_REC_WORD	2121184	wordpools/wasnorm_wordpool_less_exclusions.txt	LTP182	ltpFR	0	n/a	0	KIDNEY	776	n/a	n/a	0	n/a	n/a	n/a	n/a	n/a
4250.372	n/a	FFR_REC_WORD	2125186	wordpools/wasnorm_wordpool_less_exclusions.txt	LTP182	ltpFR	0	n/a	0	SAW	1239	n/a	n/a	0	n/a	n/a	n/a	n/a	n/a
4253.28	n/a	FFR_REC_WORD	2126640	wordpools/wasnorm_wordpool_less_exclusions.txt	LTP182	ltpFR	0	n/a	0	FLASHLIGHT	575	n/a	n/a	0	n/a	n/a	n/a	n/a	n/a
4266.34	n/a	FFR_REC_WORD	2133170	wordpools/wasnorm_wordpool_less_exclusions.txt	LTP182	ltpFR	0	n/a	-1	CROCODILE	411	n/a	n/a	-1	n/a	n/a	n/a	n/a	n/a
4269.16	n/a	FFR_REC_WORD	2134580	wordpools/wasnorm_wordpool_less_exclusions.txt	LTP182	ltpFR	0	n/a	1	BISON	131	n/a	n/a	1	n/a	n/a	n/a	n/a	n/a
4282.434	n/a	FFR_REC_WORD	2141217	wordpools/wasnorm_wordpool_less_exclusions.txt	LTP182	ltpFR	0	n/a	0	CANDIDATE	228	n/a	n/a	1	n/a	n/a	n/a	n/a	n/a
4283.646	n/a	FFR_REC_WORD	2141823	wordpools/wasnorm_wordpool_less_exclusions.txt	LTP182	ltpFR	0	n/a	1	MONARCH	906	n/a	n/a	1	n/a	n/a	n/a	n/a	n/a
4289.218	n/a	FFR_REC_WORD	2144609	wordpools/wasnorm_wordpool_less_exclusions.txt	LTP182	ltpFR	0	n/a	0	VEST	1559	n/a	n/a	0	n/a	n/a	n/a	n/a	n/a
4293.5	n/a	FFR_REC_WORD	2146750	wordpools/wasnorm_wordpool_less_exclusions.txt	LTP182	ltpFR	0	n/a	-1	TROUSERS	1510	n/a	n/a	-1	n/a	n/a	n/a	n/a	n/a
4298.03	n/a	FFR_REC_WORD	2149015	wordpools/wasnorm_wordpool_less_exclusions.txt	LTP182	ltpFR	0	n/a	0	UNDERWEAR	1537	n/a	n/a	0	n/a	n/a	n/a	n/a	n/a
4316.824	n/a	FFR_REC_WORD	2158412	wordpools/wasnorm_wordpool_less_exclusions.txt	LTP182	ltpFR	0	n/a	0	FARM	552	n/a	n/a	1	n/a	n/a	n/a	n/a	n/a
4331.03	n/a	FFR_REC_WORD	2165515	wordpools/wasnorm_wordpool_less_exclusions.txt	LTP182	ltpFR	0	n/a	1	TREAD	1499	n/a	n/a	0	n/a	n/a	n/a	n/a	n/a
4337.698	n/a	FFR_REC_WORD	2168849	wordpools/wasnorm_wordpool_less_exclusions.txt	LTP182	ltpFR	0	n/a	0	LOBSTER	837	n/a	n/a	0	n/a	n/a	n/a	n/a	n/a
4339.314	n/a	FFR_REC_WORD	2169657	wordpools/wasnorm_wordpool_less_exclusions.txt	LTP182	ltpFR	0	n/a	0	SEAFOOD	1260	n/a	n/a	0	n/a	n/a	n/a	n/a	n/a
4354.202	n/a	FFR_REC_WORD	2177101	wordpools/wasnorm_wordpool_less_exclusions.txt	LTP182	ltpFR	0	n/a	1	APPLE	33	n/a	n/a	0	n/a	n/a	n/a	n/a	n/a
4354.796	n/a	FFR_REC_WORD	2177398	wordpools/wasnorm_wordpool_less_exclusions.txt	LTP182	ltpFR	0	n/a	1	ORANGE	980	n/a	n/a	0	n/a	n/a	n/a	n/a	n/a
4359.892	n/a	FFR_REC_WORD	2179946	wordpools/wasnorm_wordpool_less_exclusions.txt	LTP182	ltpFR	0	n/a	0	FINGER	567	n/a	n/a	0	n/a	n/a	n/a	n/a	n/a
4381.586	n/a	FFR_REC_WORD	2190793	wordpools/wasnorm_wordpool_less_exclusions.txt	LTP182	ltpFR	0	n/a	0	DAM	436	n/a	n/a	1	n/a	n/a	n/a	n/a	n/a
4392.952	n/a	FFR_REC_WORD	2196476	wordpools/wasnorm_wordpool_less_exclusions.txt	LTP182	ltpFR	0	n/a	n/a	LIZARD	834	n/a	n/a	n/a	n/a	n/a	n/a	n/a	n/a
4405.382	n/a	FFR_REC_WORD	2202691	wordpools/wasnorm_wordpool_less_exclusions.txt	LTP182	ltpFR	0	n/a	0	WAITRESS	1581	n/a	n/a	1	n/a	n/a	n/a	n/a	n/a
4431.366	n/a	FFR_REC_WORD	2215683	wordpools/wasnorm_wordpool_less_exclusions.txt	LTP182	ltpFR	0	n/a	-1	NEPHEW	942	n/a	n/a	-1	n/a	n/a	n/a	n/a	n/a
4821.236	n/a	REC_START	2410618	n/a	LTP182	ltpFR	0	1	n/a	n/a	n/a	n/a	n/a	n/a	n/a	n/a	n/a	n/a	n/a
4821.286	n/a	RECOG_TARGET	2410643	n/a	LTP182	ltpFR	0	1	1	THERMOMETER	1453	1	4	n/a	n/a	n/a	n/a	n/a	n/a
4830.586	n/a	RECOG_RESP	2415293	n/a	LTP182	ltpFR	0	1	1	THERMOMETER	1453	1	n/a	n/a	n/a	n/a	n/a	n/a	n/a
4835.438	n/a	RECOG_CONF	2417719	n/a	LTP182	ltpFR	0	1	1	THERMOMETER	1453	n/a	4	n/a	n/a	n/a	n/a	n/a	n/a
4838.602	n/a	RECOG_TARGET	2419301	n/a	LTP182	ltpFR	0	1	0	BERRY	122	1	5	0	n/a	n/a	n/a	n/a	n/a
4841.874	n/a	RECOG_RESP	2420937	n/a	LTP182	ltpFR	0	1	0	BERRY	122	1	n/a	0	n/a	n/a	n/a	n/a	n/a
4846.112	n/a	RECOG_CONF	2423056	n/a	LTP182	ltpFR	0	1	0	BERRY	122	n/a	5	0	n/a	n/a	n/a	n/a	n/a
4849.376	n/a	RECOG_TARGET	2424688	n/a	LTP182	ltpFR	0	1	-1	TWISTER	1530	1	3	-1	n/a	n/a	n/a	n/a	n/a
4854.548	n/a	RECOG_RESP	2427274	n/a	LTP182	ltpFR	0	1	-1	TWISTER	1530	1	n/a	-1	n/a	n/a	n/a	n/a	n/a
4859.826	n/a	RECOG_CONF	2429913	n/a	LTP182	ltpFR	0	1	-1	TWISTER	1530	n/a	3	-1	n/a	n/a	n/a	n/a	n/a
4863.63	n/a	RECOG_LURE	2431815	n/a	LTP182	ltpFR	0	1	n/a	ROD	1203	1	2	n/a	n/a	n/a	n/a	n/a	n/a
4875.534	n/a	RECOG_RESP	2437767	n/a	LTP182	ltpFR	0	1	n/a	ROD	1203	1	n/a	n/a	n/a	n/a	n/a	n/a	n/a
4879.984	n/a	RECOG_CONF	2439992	n/a	LTP182	ltpFR	0	1	n/a	ROD	1203	n/a	2	n/a	n/a	n/a	n/a	n/a	n/a
4882.79	n/a	RECOG_TARGET	2441395	n/a	LTP182	ltpFR	0	1	-1	LANDSCAPE	799	1	5	-1	n/a	n/a	n/a	n/a	n/a
4891.212	n/a	RECOG_RESP	2445606	n/a	LTP182	ltpFR	0	1	-1	LANDSCAPE	799	1	n/a	-1	n/a	n/a	n/a	n/a	n/a
4895.866	n/a	RECOG_CONF	2447933	n/a	LTP182	ltpFR	0	1	-1	LANDSCAPE	799	n/a	5	-1	n/a	n/a	n/a	n/a	n/a
4898.796	n/a	RECOG_TARGET	2449398	n/a	LTP182	ltpFR	0	1	0	BROCCOLI	176	1	4	0	n/a	n/a	n/a	n/a	n/a
4901.534	n/a	RECOG_RESP	2450767	n/a	LTP182	ltpFR	0	1	0	BROCCOLI	176	1	n/a	0	n/a	n/a	n/a	n/a	n/a
4904.57	n/a	RECOG_CONF	2452285	n/a	LTP182	ltpFR	0	1	0	BROCCOLI	176	n/a	4	0	n/a	n/a	n/a	n/a	n/a
4906.978	n/a	RECOG_LURE	2453489	n/a	LTP182	ltpFR	0	1	n/a	RADIATOR	1156	1	2	n/a	n/a	n/a	n/a	n/a	n/a
4913.466	n/a	RECOG_RESP	2456733	n/a	LTP182	ltpFR	0	1	n/a	RADIATOR	1156	1	n/a	n/a	n/a	n/a	n/a	n/a	n/a
4917.27	n/a	RECOG_CONF	2458635	n/a	LTP182	ltpFR	0	1	n/a	RADIATOR	1156	n/a	2	n/a	n/a	n/a	n/a	n/a	n/a
4919.78	n/a	RECOG_TARGET	2459890	n/a	LTP182	ltpFR	0	1	1	FLIPPER	580	1	5	1	n/a	n/a	n/a	n/a	n/a
4921.892	n/a	RECOG_RESP	2460946	n/a	LTP182	ltpFR	0	1	1	FLIPPER	580	1	n/a	1	n/a	n/a	n/a	n/a	n/a
4926.238	n/a	RECOG_CONF	2463119	n/a	LTP182	ltpFR	0	1	1	FLIPPER	580	n/a	5	1	n/a	n/a	n/a	n/a	n/a
4928.444	n/a	RECOG_LURE	2464222	n/a	LTP182	ltpFR	0	1	n/a	THICKET	1455	0	3	n/a	n/a	n/a	n/a	n/a	n/a
4931.58	n/a	RECOG_RESP	2465790	n/a	LTP182	ltpFR	0	1	n/a	THICKET	1455	0	n/a	n/a	n/a	n/a	n/a	n/a	n/a
4935.77	n/a	RECOG_CONF	2467885	n/a	LTP182	ltpFR	0	1	n/a	THICKET	1455	n/a	3	n/a	n/a	n/a	n/a	n/a	n/a
4937.83	n/a	RECOG_TARGET	2468915	n/a	LTP182	ltpFR	0	1	-1	EMERALD	528	1	3	-1	n/a	n/a	n/a	n/a	n/a
4940.866	n/a	RECOG_RESP	2470433	n/a	LTP182	ltpFR	0	1	-1	EMERALD	528	1	n/a	-1	n/a	n/a	n/a	n/a	n/a
4944.596	n/a	RECOG_CONF	2472298	n/a	LTP182	ltpFR	0	1	-1	EMERALD	528	n/a	3	-1	n/a	n/a	n/a	n/a	n/a
4946.746	n/a	RECOG_TARGET	2473373	n/a	LTP182	ltpFR	0	1	0	SHRUB	1299	1	3	0	n/a	n/a	n/a	n/a	n/a
4949.152	n/a	RECOG_RESP	2474576	n/a	LTP182	ltpFR	0	1	0	SHRUB	1299	1	n/a	0	n/a	n/a	n/a	n/a	n/a
4951.328	n/a	RECOG_CONF	2475664	n/a	LTP182	ltpFR	0	1	0	SHRUB	1299	n/a	3	0	n/a	n/a	n/a	n/a	n/a
4953.456	n/a	RECOG_LURE	2476728	n/a	LTP182	ltpFR	0	1	n/a	GLACIER	638	1	2	n/a	n/a	n/a	n/a	n/a	n/a
4968.414	n/a	RECOG_RESP	2484207	n/a	LTP182	ltpFR	0	1	n/a	GLACIER	638	1	n/a	n/a	n/a	n/a	n/a	n/a	n/a
4972.382	n/a	RECOG_CONF	2486191	n/a	LTP182	ltpFR	0	1	n/a	GLACIER	638	n/a	2	n/a	n/a	n/a	n/a	n/a	n/a
4974.594	n/a	RECOG_LURE	2487297	n/a	LTP182	ltpFR	0	1	n/a	VOLUNTEER	1577	0	3	n/a	n/a	n/a	n/a	n/a	n/a
4978.63	n/a	RECOG_RESP	2489315	n/a	LTP182	ltpFR	0	1	n/a	VOLUNTEER	1577	0	n/a	n/a	n/a	n/a	n/a	n/a	n/a
4981.622	n/a	RECOG_CONF	2490811	n/a	LTP182	ltpFR	0	1	n/a	VOLUNTEER	1577	n/a	3	n/a	n/a	n/a	n/a	n/a	n/a
4983.772	n/a	RECOG_LURE	2491886	n/a	LTP182	ltpFR	0	1	n/a	TRAY	1498	1	3	n/a	n/a	n/a	n/a	n/a	n/a
4987.866	n/a	RECOG_RESP	2493933	n/a	LTP182	ltpFR	0	1	n/a	TRAY	1498	1	n/a	n/a	n/a	n/a	n/a	n/a	n/a
4989.882	n/a	RECOG_CONF	2494941	n/a	LTP182	ltpFR	0	1	n/a	TRAY	1498	n/a	3	n/a	n/a	n/a	n/a	n/a	n/a
4992.124	n/a	RECOG_LURE	2496062	n/a	LTP182	ltpFR	0	1	n/a	BILL	126	0	3	n/a	n/a	n/a	n/a	n/a	n/a
4995.984	n/a	RECOG_RESP	2497992	n/a	LTP182	ltpFR	0	1	n/a	BILL	126	0	n/a	n/a	n/a	n/a	n/a	n/a	n/a
4999.384	n/a	RECOG_CONF	2499692	n/a	LTP182	ltpFR	0	1	n/a	BILL	126	n/a	3	n/a	n/a	n/a	n/a	n/a	n/a
5001.908	n/a	RECOG_TARGET	2500954	n/a	LTP182	ltpFR	0	1	1	BRIEFCASE	175	1	3	0	n/a	n/a	n/a	n/a	n/a
5016.81	n/a	RECOG_RESP	2508405	n/a	LTP182	ltpFR	0	1	1	BRIEFCASE	175	1	n/a	0	n/a	n/a	n/a	n/a	n/a
5018.558	n/a	RECOG_CONF	2509279	n/a	LTP182	ltpFR	0	1	1	BRIEFCASE	175	n/a	3	0	n/a	n/a	n/a	n/a	n/a
5020.93	n/a	RECOG_LURE	2510465	n/a	LTP182	ltpFR	0	1	n/a	SUPERVISOR	1410	1	4	n/a	n/a	n/a	n/a	n/a	n/a
5027.076	n/a	RECOG_RESP	2513538	n/a	LTP182	ltpFR	0	1	n/a	SUPERVISOR	1410	1	n/a	n/a	n/a	n/a	n/a	n/a	n/a
5029.548	n/a	RECOG_CONF	2514774	n/a	LTP182	ltpFR	0	1	n/a	SUPERVISOR	1410	n/a	4	n/a	n/a	n/a	n/a	n/a	n/a
5031.694	n/a	RECOG_TARGET	2515847	n/a	LTP182	ltpFR	0	1	-1	STEREO	1378	1	3	-1	n/a	n/a	n/a	n/a	n/a
5041.062	n/a	RECOG_RESP	2520531	n/a	LTP182	ltpFR	0	1	-1	STEREO	1378	1	n/a	-1	n/a	n/a	n/a	n/a	n/a
5043.478	n/a	RECOG_CONF	2521739	n/a	LTP182	ltpFR	0	1	-1	STEREO	1378	n/a	3	-1	n/a	n/a	n/a	n/a	n/a
5045.392	n/a	RECOG_LURE	2522696	n/a	LTP182	ltpFR	0	1	n/a	SPOOL	1356	0	3	n/a	n/a	n/a	n/a	n/a	n/a
5048.668	n/a	RECOG_RESP	2524334	n/a	LTP182	ltpFR	0	1	n/a	SPOOL	1356	0	n/a	n/a	n/a	n/a	n/a	n/a	n/a
5051.106	n/a	RECOG_CONF	2525553	n/a	LTP182	ltpFR	0	1	n/a	SPOOL	1356	n/a	3	n/a	n/a	n/a	n/a	n/a	n/a
5053.406	n/a	RECOG_LURE	2526703	n/a	LTP182	ltpFR	0	1	n/a	LINEN	825	1	2	n/a	n/a	n/a	n/a	n/a	n/a
5063.718	n/a	RECOG_RESP	2531859	n/a	LTP182	ltpFR	0	1	n/a	LINEN	825	1	n/a	n/a	n/a	n/a	n/a	n/a	n/a
5065.572	n/a	RECOG_CONF	2532786	n/a	LTP182	ltpFR	0	1	n/a	LINEN	825	n/a	2	n/a	n/a	n/a	n/a	n/a	n/a
5145.74	n/a	REC_START	2572870	n/a	LTP182	ltpFR	0	2	n/a	n/a	n/a	n/a	n/a	n/a	n/a	n/a	n/a	n/a	n/a
5145.79	n/a	RECOG_LURE	2572895	n/a	LTP182	ltpFR	0	2	n/a	STRAW	1390	0	3	n/a	n/a	n/a	n/a	n/a	n/a
5152.1	n/a	RECOG_RESP	2576050	n/a	LTP182	ltpFR	0	2	n/a	STRAW	1390	0	n/a	n/a	n/a	n/a	n/a	n/a	n/a
5154.934	n/a	RECOG_CONF	2577467	n/a	LTP182	ltpFR	0	2	n/a	STRAW	1390	n/a	3	n/a	n/a	n/a	n/a	n/a	n/a
5157.252	n/a	RECOG_TARGET	2578626	n/a	LTP182	ltpFR	0	2	0	CATTLE	261	1	4	1	n/a	n/a	n/a	n/a	n/a
5161.72	n/a	RECOG_RESP	2580860	n/a	LTP182	ltpFR	0	2	0	CATTLE	261	1	n/a	1	n/a	n/a	n/a	n/a	n/a
5164.962	n/a	RECOG_CONF	2582481	n/a	LTP182	ltpFR	0	2	0	CATTLE	261	n/a	4	1	n/a	n/a	n/a	n/a	n/a
5167.308	n/a	RECOG_TARGET	2583654	n/a	LTP182	ltpFR	0	2	0	JAW	751	1	4	0	n/a	n/a	n/a	n/a	n/a
5171.542	n/a	RECOG_RESP	2585771	n/a	LTP182	ltpFR	0	2	0	JAW	751	1	n/a	0	n/a	n/a	n/a	n/a	n/a
5174.302	n/a	RECOG_CONF	2587151	n/a	LTP182	ltpFR	0	2	0	JAW	751	n/a	4	0	n/a	n/a	n/a	n/a	n/a
5176.392	n/a	RECOG_TARGET	2588196	n/a	LTP182	ltpFR	0	2	1	HEATER	698	1	3	0	n/a	n/a	n/a	n/a	n/a
5181.392	n/a	RECOG_RESP	2590696	n/a	LTP182	ltpFR	0	2	1	HEATER	698	1	n/a	0	n/a	n/a	n/a	n/a	n/a
5183.226	n/a	RECOG_CONF	2591613	n/a	LTP182	ltpFR	0	2	1	HEATER	698	n/a	3	0	n/a	n/a	n/a	n/a	n/a
5185.86	n/a	RECOG_LURE	2592930	n/a	LTP182	ltpFR	0	2	n/a	CHAMPAGNE	278	1	3	n/a	n/a	n/a	n/a	n/a	n/a
5193.498	n/a	RECOG_RESP	2596749	n/a	LTP182	ltpFR	0	2	n/a	CHAMPAGNE	278	1	n/a	n/a	n/a	n/a	n/a	n/a	n/a
5195.044	n/a	RECOG_CONF	2597522	n/a	LTP182	ltpFR	0	2	n/a	CHAMPAGNE	278	n/a	3	n/a	n/a	n/a	n/a	n/a	n/a
5197.262	n/a	RECOG_TARGET	2598631	n/a	LTP182	ltpFR	0	2	1	BLANKET	135	1	3	0	n/a	n/a	n/a	n/a	n/a
5202.05	n/a	RECOG_RESP	2601025	n/a	LTP182	ltpFR	0	2	1	BLANKET	135	1	n/a	0	n/a	n/a	n/a	n/a	n/a
5203.666	n/a	RECOG_CONF	2601833	n/a	LTP182	ltpFR	0	2	1	BLANKET	135	n/a	3	0	n/a	n/a	n/a	n/a	n/a
5205.97	n/a	RECOG_LURE	2602985	n/a	LTP182	ltpFR	0	2	n/a	CLOUD	328	0	2	n/a	n/a	n/a	n/a	n/a	n/a
5207.95	n/a	RECOG_RESP	2603975	n/a	LTP182	ltpFR	0	2	n/a	CLOUD	328	0	n/a	n/a	n/a	n/a	n/a	n/a	n/a
5210.444	n/a	RECOG_CONF	2605222	n/a	LTP182	ltpFR	0	2	n/a	CLOUD	328	n/a	2	n/a	n/a	n/a	n/a	n/a	n/a
5212.43	n/a	RECOG_LURE	2606215	n/a	LTP182	ltpFR	0	2	n/a	CUCUMBER	421	1	4	n/a	n/a	n/a	n/a	n/a	n/a
5216.03	n/a	RECOG_RESP	2608015	n/a	LTP182	ltpFR	0	2	n/a	CUCUMBER	421	1	n/a	n/a	n/a	n/a	n/a	n/a	n/a
5218.428	n/a	RECOG_CONF	2609214	n/a	LTP182	ltpFR	0	2	n/a	CUCUMBER	421	n/a	4	n/a	n/a	n/a	n/a	n/a	n/a
5220.394	n/a	RECOG_TARGET	2610197	n/a	LTP182	ltpFR	0	2	0	LASER	801	1	5	1	n/a	n/a	n/a	n/a	n/a
5222.31	n/a	RECOG_RESP	2611155	n/a	LTP182	ltpFR	0	2	0	LASER	801	1	n/a	1	n/a	n/a	n/a	n/a	n/a
5224.88	n/a	RECOG_CONF	2612440	n/a	LTP182	ltpFR	0	2	0	LASER	801	n/a	5	1	n/a	n/a	n/a	n/a	n/a
5226.818	n/a	RECOG_TARGET	2613409	n/a	LTP182	ltpFR	0	2	0	FINGER	567	1	5	0	n/a	n/a	n/a	n/a	n/a
5229.492	n/a	RECOG_RESP	2614746	n/a	LTP182	ltpFR	0	2	0	FINGER	567	1	n/a	0	n/a	n/a	n/a	n/a	n/a
5231.818	n/a	RECOG_CONF	2615909	n/a	LTP182	ltpFR	0	2	0	FINGER	567	n/a	5	0	n/a	n/a	n/a	n/a	n/a
5234.196	n/a	RECOG_TARGET	2617098	n/a	LTP182	ltpFR	0	2	1	CROW	414	1	4	1	n/a	n/a	n/a	n/a	n/a
5236.402	n/a	RECOG_RESP	2618201	n/a	LTP182	ltpFR	0	2	1	CROW	414	1	n/a	1	n/a	n/a	n/a	n/a	n/a
5238.66	n/a	RECOG_CONF	2619330	n/a	LTP182	ltpFR	0	2	1	CROW	414	n/a	4	1	n/a	n/a	n/a	n/a	n/a
5240.82	n/a	RECOG_LURE	2620410	n/a	LTP182	ltpFR	0	2	n/a	SICKLE	1302	0	3	n/a	n/a	n/a	n/a	n/a	n/a
5243.174	n/a	RECOG_RESP	2621587	n/a	LTP182	ltpFR	0	2	n/a	SICKLE	1302	0	n/a	n/a	n/a	n/a	n/a	n/a	n/a
5245.654	n/a	RECOG_CONF	2622827	n/a	LTP182	ltpFR	0	2	n/a	SICKLE	1302	n/a	3	n/a	n/a	n/a	n/a	n/a	n/a
5247.52	n/a	RECOG_TARGET	2623760	n/a	LTP182	ltpFR	0	2	1	SAILOR	1223	1	3	1	n/a	n/a	n/a	n/a	n/a
5251.632	n/a	RECOG_RESP	2625816	n/a	LTP182	ltpFR	0	2	1	SAILOR	1223	1	n/a	1	n/a	n/a	n/a	n/a	n/a
5254.058	n/a	RECOG_CONF	2627029	n/a	LTP182	ltpFR	0	2	1	SAILOR	1223	n/a	3	1	n/a	n/a	n/a	n/a	n/a
5255.978	n/a	RECOG_LURE	2627989	n/a	LTP182	ltpFR	0	2	n/a	SHELTER	1282	1	3	n/a	n/a	n/a	n/a	n/a	n/a
5260.166	n/a	RECOG_RESP	2630083	n/a	LTP182	ltpFR	0	2	n/a	SHELTER	1282	1	n/a	n/a	n/a	n/a	n/a	n/a	n/a
5261.852	n/a	RECOG_CONF	2630926	n/a	LTP182	ltpFR	0	2	n/a	SHELTER	1282	n/a	3	n/a	n/a	n/a	n/a	n/a	n/a
5264.234	n/a	RECOG_TARGET	2632117	n/a	LTP182	ltpFR	0	2	0	BUCKET	184	1	4	1	n/a	n/a	n/a	n/a	n/a
5265.974	n/a	RECOG_RESP	2632987	n/a	LTP182	ltpFR	0	2	0	BUCKET	184	1	n/a	1	n/a	n/a	n/a	n/a	n/a
5269.11	n/a	RECOG_CONF	2634555	n/a	LTP182	ltpFR	0	2	0	BUCKET	184	n/a	4	1	n/a	n/a	n/a	n/a	n/a
5271.338	n/a	RECOG_TARGET	2635669	n/a	LTP182	ltpFR	0	2	0	BUS	201	1	3	1	n/a	n/a	n/a	n/a	n/a
5276.96	n/a	RECOG_RESP	2638480	n/a	LTP182	ltpFR	0	2	0	BUS	201	1	n/a	1	n/a	n/a	n/a	n/a	n/a
5279.49	n/a	RECOG_CONF	2639745	n/a	LTP182	ltpFR	0	2	0	BUS	201	n/a	3	1	n/a	n/a	n/a	n/a	n/a
5281.678	n/a	RECOG_LURE	2640839	n/a	LTP182	ltpFR	0	2	n/a	CONDUCTOR	362	0	3	n/a	n/a	n/a	n/a	n/a	n/a
5283.638	n/a	RECOG_RESP	2641819	n/a	LTP182	ltpFR	0	2	n/a	CONDUCTOR	362	0	n/a	n/a	n/a	n/a	n/a	n/a	n/a
5286.544	n/a	RECOG_CONF	2643272	n/a	LTP182	ltpFR	0	2	n/a	CONDUCTOR	362	n/a	3	n/a	n/a	n/a	n/a	n/a	n/a
5288.37	n/a	RECOG_TARGET	2644185	n/a	LTP182	ltpFR	0	2	0	JUG	762	1	2	0	n/a	n/a	n/a	n/a	n/a
5292.748	n/a	RECOG_RESP	2646374	n/a	LTP182	ltpFR	0	2	0	JUG	762	1	n/a	0	n/a	n/a	n/a	n/a	n/a
5295.518	n/a	RECOG_CONF	2647759	n/a	LTP182	ltpFR	0	2	0	JUG	762	n/a	2	0	n/a	n/a	n/a	n/a	n/a
5297.338	n/a	RECOG_TARGET	2648669	n/a	LTP182	ltpFR	0	2	1	MONARCH	906	1	5	1	n/a	n/a	n/a	n/a	n/a
5298.704	n/a	RECOG_RESP	2649352	n/a	LTP182	ltpFR	0	2	1	MONARCH	906	1	n/a	1	n/a	n/a	n/a	n/a	n/a
5300.27	n/a	RECOG_CONF	2650135	n/a	LTP182	ltpFR	0	2	1	MONARCH	906	n/a	5	1	n/a	n/a	n/a	n/a	n/a
5302.158	n/a	RECOG_TARGET	2651079	n/a	LTP182	ltpFR	0	2	-1	CHAIR	274	1	4	-1	n/a	n/a	n/a	n/a	n/a
5305.094	n/a	RECOG_RESP	2652547	n/a	LTP182	ltpFR	0	2	-1	CHAIR	274	1	n/a	-1	n/a	n/a	n/a	n/a	n/a
5307.166	n/a	RECOG_CONF	2653583	n/a	LTP182	ltpFR	0	2	-1	CHAIR	274	n/a	4	-1	n/a	n/a	n/a	n/a	n/a
5326.39	n/a	REC_START	2663195	n/a	LTP182	ltpFR	0	3	n/a	n/a	n/a	n/a	n/a	n/a	n/a	n/a	n/a	n/a	n/a
5326.438	n/a	RECOG_TARGET	2663219	n/a	LTP182	ltpFR	0	3	1	NAVIGATOR	938	1	4	1	n/a	n/a	n/a	n/a	n/a
5328.996	n/a	RECOG_RESP	2664498	n/a	LTP182	ltpFR	0	3	1	NAVIGATOR	938	1	n/a	1	n/a	n/a	n/a	n/a	n/a
5331.104	n/a	RECOG_CONF	2665552	n/a	LTP182	ltpFR	0	3	1	NAVIGATOR	938	n/a	4	1	n/a	n/a	n/a	n/a	n/a
5332.84	n/a	RECOG_TARGET	2666420	n/a	LTP182	ltpFR	0	3	1	FLASK	576	1	3	0	n/a	n/a	n/a	n/a	n/a
5336.31	n/a	RECOG_RESP	2668155	n/a	LTP182	ltpFR	0	3	1	FLASK	576	1	n/a	0	n/a	n/a	n/a	n/a	n/a
5338.338	n/a	RECOG_CONF	2669169	n/a	LTP182	ltpFR	0	3	1	FLASK	576	n/a	3	0	n/a	n/a	n/a	n/a	n/a
5340.486	n/a	RECOG_TARGET	2670243	n/a	LTP182	ltpFR	0	3	1	SERVANT	1271	1	5	1	n/a	n/a	n/a	n/a	n/a
5342.0	n/a	RECOG_RESP	2671000	n/a	LTP182	ltpFR	0	3	1	SERVANT	1271	1	n/a	1	n/a	n/a	n/a	n/a	n/a
5343.642	n/a	RECOG_CONF	2671821	n/a	LTP182	ltpFR	0	3	1	SERVANT	1271	n/a	5	1	n/a	n/a	n/a	n/a	n/a
5345.706	n/a	RECOG_LURE	2672853	n/a	LTP182	ltpFR	0	3	n/a	CALF	222	1	5	n/a	n/a	n/a	n/a	n/a	n/a
5349.12	n/a	RECOG_RESP	2674560	n/a	LTP182	ltpFR	0	3	n/a	CALF	222	1	n/a	n/a	n/a	n/a	n/a	n/a	n/a
5350.598	n/a	RECOG_CONF	2675299	n/a	LTP182	ltpFR	0	3	n/a	CALF	222	n/a	5	n/a	n/a	n/a	n/a	n/a	n/a
5352.598	n/a	RECOG_TARGET	2676299	n/a	LTP182	ltpFR	0	3	1	DONKEY	484	0	3	1	n/a	n/a	n/a	n/a	n/a
5358.612	n/a	RECOG_RESP	2679306	n/a	LTP182	ltpFR	0	3	1	DONKEY	484	0	n/a	1	n/a	n/a	n/a	n/a	n/a
5360.302	n/a	RECOG_CONF	2680151	n/a	LTP182	ltpFR	0	3	1	DONKEY	484	n/a	3	1	n/a	n/a	n/a	n/a	n/a
5362.538	n/a	RECOG_TARGET	2681269	n/a	LTP182	ltpFR	0	3	1	MARINE	869	1	4	1	n/a	n/a	n/a	n/a	n/a
5365.846	n/a	RECOG_RESP	2682923	n/a	LTP182	ltpFR	0	3	1	MARINE	869	1	n/a	1	n/a	n/a	n/a	n/a	n/a
5368.464	n/a	RECOG_CONF	2684232	n/a	LTP182	ltpFR	0	3	1	MARINE	869	n/a	4	1	n/a	n/a	n/a	n/a	n/a
5370.554	n/a	RECOG_TARGET	2685277	n/a	LTP182	ltpFR	0	3	-1	SUN	1406	1	3	-1	n/a	n/a	n/a	n/a	n/a
5374.748	n/a	RECOG_RESP	2687374	n/a	LTP182	ltpFR	0	3	-1	SUN	1406	1	n/a	-1	n/a	n/a	n/a	n/a	n/a
5376.396	n/a	RECOG_CONF	2688198	n/a	LTP182	ltpFR	0	3	-1	SUN	1406	n/a	3	-1	n/a	n/a	n/a	n/a	n/a
5378.48	n/a	RECOG_TARGET	2689240	n/a	LTP182	ltpFR	0	3	1	BROOK	177	0	3	2	n/a	n/a	n/a	n/a	n/a
5380.604	n/a	RECOG_RESP	2690302	n/a	LTP182	ltpFR	0	3	1	BROOK	177	0	n/a	2	n/a	n/a	n/a	n/a	n/a
5383.268	n/a	RECOG_CONF	2691634	n/a	LTP182	ltpFR	0	3	1	BROOK	177	n/a	3	2	n/a	n/a	n/a	n/a	n/a
5385.224	n/a	RECOG_LURE	2692612	n/a	LTP182	ltpFR	0	3	n/a	LACE	792	0	3	n/a	n/a	n/a	n/a	n/a	n/a
5387.636	n/a	RECOG_RESP	2693818	n/a	LTP182	ltpFR	0	3	n/a	LACE	792	0	n/a	n/a	n/a	n/a	n/a	n/a	n/a
5390.038	n/a	RECOG_CONF	2695019	n/a	LTP182	ltpFR	0	3	n/a	LACE	792	n/a	3	n/a	n/a	n/a	n/a	n/a	n/a
5391.864	n/a	RECOG_TARGET	2695932	n/a	LTP182	ltpFR	0	3	-1	COMMANDER	354	1	4	-1	n/a	n/a	n/a	n/a	n/a
5397.686	n/a	RECOG_RESP	2698843	n/a	LTP182	ltpFR	0	3	-1	COMMANDER	354	1	n/a	-1	n/a	n/a	n/a	n/a	n/a
5399.81	n/a	RECOG_CONF	2699905	n/a	LTP182	ltpFR	0	3	-1	COMMANDER	354	n/a	4	-1	n/a	n/a	n/a	n/a	n/a
5401.836	n/a	RECOG_TARGET	2700918	n/a	LTP182	ltpFR	0	3	-1	COIN	343	1	5	-1	n/a	n/a	n/a	n/a	n/a
5403.636	n/a	RECOG_RESP	2701818	n/a	LTP182	ltpFR	0	3	-1	COIN	343	1	n/a	-1	n/a	n/a	n/a	n/a	n/a
5405.606	n/a	RECOG_CONF	2702803	n/a	LTP182	ltpFR	0	3	-1	COIN	343	n/a	5	-1	n/a	n/a	n/a	n/a	n/a
5407.578	n/a	RECOG_TARGET	2703789	n/a	LTP182	ltpFR	0	3	-1	TROPHY	1509	1	5	-1	n/a	n/a	n/a	n/a	n/a
5409.692	n/a	RECOG_RESP	2704846	n/a	LTP182	ltpFR	0	3	-1	TROPHY	1509	1	n/a	-1	n/a	n/a	n/a	n/a	n/a
5411.06	n/a	RECOG_CONF	2705530	n/a	LTP182	ltpFR	0	3	-1	TROPHY	1509	n/a	5	-1	n/a	n/a	n/a	n/a	n/a
5413.062	n/a	RECOG_TARGET	2706531	n/a	LTP182	ltpFR	0	3	1	CAT	257	1	3	1	n/a	n/a	n/a	n/a	n/a
5416.22	n/a	RECOG_RESP	2708110	n/a	LTP182	ltpFR	0	3	1	CAT	257	1	n/a	1	n/a	n/a	n/a	n/a	n/a
5418.07	n/a	RECOG_CONF	2709035	n/a	LTP182	ltpFR	0	3	1	CAT	257	n/a	3	1	n/a	n/a	n/a	n/a	n/a
5420.106	n/a	RECOG_TARGET	2710053	n/a	LTP182	ltpFR	0	3	-1	APARTMENT	30	1	4	-1	n/a	n/a	n/a	n/a	n/a
5422.03	n/a	RECOG_RESP	2711015	n/a	LTP182	ltpFR	0	3	-1	APARTMENT	30	1	n/a	-1	n/a	n/a	n/a	n/a	n/a
5424.098	n/a	RECOG_CONF	2712049	n/a	LTP182	ltpFR	0	3	-1	APARTMENT	30	n/a	4	-1	n/a	n/a	n/a	n/a	n/a
5425.744	n/a	RECOG_TARGET	2712872	n/a	LTP182	ltpFR	0	3	-1	WHEEL	1603	1	3	-1	n/a	n/a	n/a	n/a	n/a
5430.992	n/a	RECOG_RESP	2715496	n/a	LTP182	ltpFR	0	3	-1	WHEEL	1603	1	n/a	-1	n/a	n/a	n/a	n/a	n/a
5432.58	n/a	RECOG_CONF	2716290	n/a	LTP182	ltpFR	0	3	-1	WHEEL	1603	n/a	3	-1	n/a	n/a	n/a	n/a	n/a
5434.596	n/a	RECOG_TARGET	2717298	n/a	LTP182	ltpFR	0	3	0	MARKER	870	1	4	0	n/a	n/a	n/a	n/a	n/a
5438.02	n/a	RECOG_RESP	2719010	n/a	LTP182	ltpFR	0	3	0	MARKER	870	1	n/a	0	n/a	n/a	n/a	n/a	n/a
5439.622	n/a	RECOG_CONF	2719811	n/a	LTP182	ltpFR	0	3	0	MARKER	870	n/a	4	0	n/a	n/a	n/a	n/a	n/a
5441.522	n/a	RECOG_LURE	2720761	n/a	LTP182	ltpFR	0	3	n/a	STAPLE	1371	0	3	n/a	n/a	n/a	n/a	n/a	n/a
5448.268	n/a	RECOG_RESP	2724134	n/a	LTP182	ltpFR	0	3	n/a	STAPLE	1371	0	n/a	n/a	n/a	n/a	n/a	n/a	n/a
5450.28	n/a	RECOG_CONF	2725140	n/a	LTP182	ltpFR	0	3	n/a	STAPLE	1371	n/a	3	n/a	n/a	n/a	n/a	n/a	n/a
5452.162	n/a	RECOG_LURE	2726081	n/a	LTP182	ltpFR	0	3	n/a	SKETCH	1315	0	3	n/a	n/a	n/a	n/a	n/a	n/a
5456.386	n/a	RECOG_RESP	2728193	n/a	LTP182	ltpFR	0	3	n/a	SKETCH	1315	0	n/a	n/a	n/a	n/a	n/a	n/a	n/a
5459.108	n/a	RECOG_CONF	2729554	n/a	LTP182	ltpFR	0	3	n/a	SKETCH	1315	n/a	3	n/a	n/a	n/a	n/a	n/a	n/a
5461.182	n/a	RECOG_TARGET	2730591	n/a	LTP182	ltpFR	0	3	-1	PERSONNEL	1053	1	5	-1	n/a	n/a	n/a	n/a	n/a
5465.932	n/a	RECOG_RESP	2732966	n/a	LTP182	ltpFR	0	3	-1	PERSONNEL	1053	1	n/a	-1	n/a	n/a	n/a	n/a	n/a
5467.94	n/a	RECOG_CONF	2733970	n/a	LTP182	ltpFR	0	3	-1	PERSONNEL	1053	n/a	5	-1	n/a	n/a	n/a	n/a	n/a
5469.862	n/a	RECOG_LURE	2734931	n/a	LTP182	ltpFR	0	3	n/a	SENATE	1267	0	4	n/a	n/a	n/a	n/a	n/a	n/a
5473.14	n/a	RECOG_RESP	2736570	n/a	LTP182	ltpFR	0	3	n/a	SENATE	1267	0	n/a	n/a	n/a	n/a	n/a	n/a	n/a
5474.874	n/a	RECOG_CONF	2737437	n/a	LTP182	ltpFR	0	3	n/a	SENATE	1267	n/a	4	n/a	n/a	n/a	n/a	n/a	n/a
5535.512	n/a	REC_START	2767756	n/a	LTP182	ltpFR	0	4	n/a	n/a	n/a	n/a	n/a	n/a	n/a	n/a	n/a	n/a	n/a
5535.566	n/a	RECOG_TARGET	2767783	n/a	LTP182	ltpFR	0	4	0	THIGH	1457	1	5	0	n/a	n/a	n/a	n/a	n/a
5540.93	n/a	RECOG_RESP	2770465	n/a	LTP182	ltpFR	0	4	0	THIGH	1457	1	n/a	0	n/a	n/a	n/a	n/a	n/a
5542.552	n/a	RECOG_CONF	2771276	n/a	LTP182	ltpFR	0	4	0	THIGH	1457	n/a	5	0	n/a	n/a	n/a	n/a	n/a
5544.6	n/a	RECOG_TARGET	2772300	n/a	LTP182	ltpFR	0	4	1	CORAL	378	0	3	0	n/a	n/a	n/a	n/a	n/a
5548.238	n/a	RECOG_RESP	2774119	n/a	LTP182	ltpFR	0	4	1	CORAL	378	0	n/a	0	n/a	n/a	n/a	n/a	n/a
5549.784	n/a	RECOG_CONF	2774892	n/a	LTP182	ltpFR	0	4	1	CORAL	378	n/a	3	0	n/a	n/a	n/a	n/a	n/a
5551.894	n/a	RECOG_TARGET	2775947	n/a	LTP182	ltpFR	0	4	1	DRIVER	499	0	3	1	n/a	n/a	n/a	n/a	n/a
5554.23	n/a	RECOG_RESP	2777115	n/a	LTP182	ltpFR	0	4	1	DRIVER	499	0	n/a	1	n/a	n/a	n/a	n/a	n/a
5557.656	n/a	RECOG_CONF	2778828	n/a	LTP182	ltpFR	0	4	1	DRIVER	499	n/a	3	1	n/a	n/a	n/a	n/a	n/a
5559.66	n/a	RECOG_TARGET	2779830	n/a	LTP182	ltpFR	0	4	1	PERISCOPE	1050	1	3	0	n/a	n/a	n/a	n/a	n/a
5566.242	n/a	RECOG_RESP	2783121	n/a	LTP182	ltpFR	0	4	1	PERISCOPE	1050	1	n/a	0	n/a	n/a	n/a	n/a	n/a
5569.822	n/a	RECOG_CONF	2784911	n/a	LTP182	ltpFR	0	4	1	PERISCOPE	1050	n/a	3	0	n/a	n/a	n/a	n/a	n/a
5571.734	n/a	RECOG_TARGET	2785867	n/a	LTP182	ltpFR	0	4	1	DICTATOR	462	1	5	1	n/a	n/a	n/a	n/a	n/a
5573.614	n/a	RECOG_RESP	2786807	n/a	LTP182	ltpFR	0	4	1	DICTATOR	462	1	n/a	1	n/a	n/a	n/a	n/a	n/a
5575.216	n/a	RECOG_CONF	2787608	n/a	LTP182	ltpFR	0	4	1	DICTATOR	462	n/a	5	1	n/a	n/a	n/a	n/a	n/a
5577.476	n/a	RECOG_LURE	2788738	n/a	LTP182	ltpFR	0	4	n/a	LOBBY	836	1	3	n/a	n/a	n/a	n/a	n/a	n/a
5588.24	n/a	RECOG_RESP	2794120	n/a	LTP182	ltpFR	0	4	n/a	LOBBY	836	1	n/a	n/a	n/a	n/a	n/a	n/a	n/a
5590.314	n/a	RECOG_CONF	2795157	n/a	LTP182	ltpFR	0	4	n/a	LOBBY	836	n/a	3	n/a	n/a	n/a	n/a	n/a	n/a
5592.55	n/a	RECOG_LURE	2796275	n/a	LTP182	ltpFR	0	4	n/a	MAILMAN	858	0	3	n/a	n/a	n/a	n/a	n/a	n/a
5594.778	n/a	RECOG_RESP	2797389	n/a	LTP182	ltpFR	0	4	n/a	MAILMAN	858	0	n/a	n/a	n/a	n/a	n/a	n/a	n/a
5597.126	n/a	RECOG_CONF	2798563	n/a	LTP182	ltpFR	0	4	n/a	MAILMAN	858	n/a	3	n/a	n/a	n/a	n/a	n/a	n/a
5599.006	n/a	RECOG_TARGET	2799503	n/a	LTP182	ltpFR	0	4	0	LETTUCE	814	1	4	0	n/a	n/a	n/a	n/a	n/a
5604.578	n/a	RECOG_RESP	2802289	n/a	LTP182	ltpFR	0	4	0	LETTUCE	814	1	n/a	0	n/a	n/a	n/a	n/a	n/a
5606.424	n/a	RECOG_CONF	2803212	n/a	LTP182	ltpFR	0	4	0	LETTUCE	814	n/a	4	0	n/a	n/a	n/a	n/a	n/a
5608.312	n/a	RECOG_TARGET	2804156	n/a	LTP182	ltpFR	0	4	1	CHERRY	293	0	3	0	n/a	n/a	n/a	n/a	n/a
5617.812	n/a	RECOG_RESP	2808906	n/a	LTP182	ltpFR	0	4	1	CHERRY	293	0	n/a	0	n/a	n/a	n/a	n/a	n/a
5619.92	n/a	RECOG_CONF	2809960	n/a	LTP182	ltpFR	0	4	1	CHERRY	293	n/a	3	0	n/a	n/a	n/a	n/a	n/a
5622.078	n/a	RECOG_TARGET	2811039	n/a	LTP182	ltpFR	0	4	0	SPONGE	1355	1	3	0	n/a	n/a	n/a	n/a	n/a
5626.348	n/a	RECOG_RESP	2813174	n/a	LTP182	ltpFR	0	4	0	SPONGE	1355	1	n/a	0	n/a	n/a	n/a	n/a	n/a
5628.556	n/a	RECOG_CONF	2814278	n/a	LTP182	ltpFR	0	4	0	SPONGE	1355	n/a	3	0	n/a	n/a	n/a	n/a	n/a
5630.446	n/a	RECOG_TARGET	2815223	n/a	LTP182	ltpFR	0	4	-1	TROUSERS	1510	1	5	-1	n/a	n/a	n/a	n/a	n/a
5632.386	n/a	RECOG_RESP	2816193	n/a	LTP182	ltpFR	0	4	-1	TROUSERS	1510	1	n/a	-1	n/a	n/a	n/a	n/a	n/a
5633.858	n/a	RECOG_CONF	2816929	n/a	LTP182	ltpFR	0	4	-1	TROUSERS	1510	n/a	5	-1	n/a	n/a	n/a	n/a	n/a
5635.98	n/a	RECOG_TARGET	2817990	n/a	LTP182	ltpFR	0	4	-1	ROOT	1210	1	4	-1	n/a	n/a	n/a	n/a	n/a
5639.898	n/a	RECOG_RESP	2819949	n/a	LTP182	ltpFR	0	4	-1	ROOT	1210	1	n/a	-1	n/a	n/a	n/a	n/a	n/a
5641.59	n/a	RECOG_CONF	2820795	n/a	LTP182	ltpFR	0	4	-1	ROOT	1210	n/a	4	-1	n/a	n/a	n/a	n/a	n/a
5643.426	n/a	RECOG_LURE	2821713	n/a	LTP182	ltpFR	0	4	n/a	FOLDER	588	0	2	n/a	n/a	n/a	n/a	n/a	n/a
5650.182	n/a	RECOG_RESP	2825091	n/a	LTP182	ltpFR	0	4	n/a	FOLDER	588	0	n/a	n/a	n/a	n/a	n/a	n/a	n/a
5651.892	n/a	RECOG_CONF	2825946	n/a	LTP182	ltpFR	0	4	n/a	FOLDER	588	n/a	2	n/a	n/a	n/a	n/a	n/a	n/a
5653.932	n/a	RECOG_LURE	2826966	n/a	LTP182	ltpFR	0	4	n/a	SHORTCAKE	1292	1	2	n/a	n/a	n/a	n/a	n/a	n/a
5664.632	n/a	RECOG_RESP	2832316	n/a	LTP182	ltpFR	0	4	n/a	SHORTCAKE	1292	1	n/a	n/a	n/a	n/a	n/a	n/a	n/a
5666.432	n/a	RECOG_CONF	2833216	n/a	LTP182	ltpFR	0	4	n/a	SHORTCAKE	1292	n/a	2	n/a	n/a	n/a	n/a	n/a	n/a
5668.406	n/a	RECOG_LURE	2834203	n/a	LTP182	ltpFR	0	4	n/a	SCALLOP	1242	1	2	n/a	n/a	n/a	n/a	n/a	n/a
5674.472	n/a	RECOG_RESP	2837236	n/a	LTP182	ltpFR	0	4	n/a	SCALLOP	1242	1	n/a	n/a	n/a	n/a	n/a	n/a	n/a
5675.954	n/a	RECOG_CONF	2837977	n/a	LTP182	ltpFR	0	4	n/a	SCALLOP	1242	n/a	2	n/a	n/a	n/a	n/a	n/a	n/a
5677.758	n/a	RECOG_LURE	2838879	n/a	LTP182	ltpFR	0	4	n/a	SILVERWARE	1308	0	2	n/a	n/a	n/a	n/a	n/a	n/a
5679.522	n/a	RECOG_RESP	2839761	n/a	LTP182	ltpFR	0	4	n/a	SILVERWARE	1308	0	n/a	n/a	n/a	n/a	n/a	n/a	n/a
5681.178	n/a	RECOG_CONF	2840589	n/a	LTP182	ltpFR	0	4	n/a	SILVERWARE	1308	n/a	2	n/a	n/a	n/a	n/a	n/a	n/a
5682.926	n/a	RECOG_LURE	2841463	n/a	LTP182	ltpFR	0	4	n/a	GROCERIES	663	0	2	n/a	n/a	n/a	n/a	n/a	n/a
5685.242	n/a	RECOG_RESP	2842621	n/a	LTP182	ltpFR	0	4	n/a	GROCERIES	663	0	n/a	n/a	n/a	n/a	n/a	n/a	n/a
5687.772	n/a	RECOG_CONF	2843886	n/a	LTP182	ltpFR	0	4	n/a	GROCERIES	663	n/a	2	n/a	n/a	n/a	n/a	n/a	n/a
5689.804	n/a	RECOG_TARGET	2844902	n/a	LTP182	ltpFR	0	4	0	TORCH	1484	1	3	1	n/a	n/a	n/a	n/a	n/a
5691.578	n/a	RECOG_RESP	2845789	n/a	LTP182	ltpFR	0	4	0	TORCH	1484	1	n/a	1	n/a	n/a	n/a	n/a	n/a
5694.22	n/a	RECOG_CONF	2847110	n/a	LTP182	ltpFR	0	4	0	TORCH	1484	n/a	3	1	n/a	n/a	n/a	n/a	n/a
5696.128	n/a	RECOG_LURE	2848064	n/a	LTP182	ltpFR	0	4	n/a	PAWN	1030	0	3	n/a	n/a	n/a	n/a	n/a	n/a
5699.934	n/a	RECOG_RESP	2849967	n/a	LTP182	ltpFR	0	4	n/a	PAWN	1030	0	n/a	n/a	n/a	n/a	n/a	n/a	n/a
5701.298	n/a	RECOG_CONF	2850649	n/a	LTP182	ltpFR	0	4	n/a	PAWN	1030	n/a	3	n/a	n/a	n/a	n/a	n/a	n/a
5703.204	n/a	RECOG_LURE	2851602	n/a	LTP182	ltpFR	0	4	n/a	RUBY	1214	1	3	n/a	n/a	n/a	n/a	n/a	n/a
5710.944	n/a	RECOG_RESP	2855472	n/a	LTP182	ltpFR	0	4	n/a	RUBY	1214	1	n/a	n/a	n/a	n/a	n/a	n/a	n/a
5712.09	n/a	RECOG_CONF	2856045	n/a	LTP182	ltpFR	0	4	n/a	RUBY	1214	n/a	3	n/a	n/a	n/a	n/a	n/a	n/a
5727.238	n/a	REC_START	2863619	n/a	LTP182	ltpFR	0	5	n/a	n/a	n/a	n/a	n/a	n/a	n/a	n/a	n/a	n/a	n/a
5727.28	n/a	RECOG_TARGET	2863640	n/a	LTP182	ltpFR	0	5	0	POPE	1105	1	5	1	n/a	n/a	n/a	n/a	n/a
5728.97	n/a	RECOG_RESP	2864485	n/a	LTP182	ltpFR	0	5	0	POPE	1105	1	n/a	1	n/a	n/a	n/a	n/a	n/a
5730.732	n/a	RECOG_CONF	2865366	n/a	LTP182	ltpFR	0	5	0	POPE	1105	n/a	5	1	n/a	n/a	n/a	n/a	n/a
5732.784	n/a	RECOG_LURE	2866392	n/a	LTP182	ltpFR	0	5	n/a	PLANET	1082	1	3	n/a	n/a	n/a	n/a	n/a	n/a
5743.248	n/a	RECOG_RESP	2871624	n/a	LTP182	ltpFR	0	5	n/a	PLANET	1082	1	n/a	n/a	n/a	n/a	n/a	n/a	n/a
5746.074	n/a	RECOG_CONF	2873037	n/a	LTP182	ltpFR	0	5	n/a	PLANET	1082	n/a	3	n/a	n/a	n/a	n/a	n/a	n/a
5748.912	n/a	RECOG_TARGET	2874456	n/a	LTP182	ltpFR	0	5	0	MAPLE	866	1	3	1	n/a	n/a	n/a	n/a	n/a
5753.004	n/a	RECOG_RESP	2876502	n/a	LTP182	ltpFR	0	5	0	MAPLE	866	1	n/a	1	n/a	n/a	n/a	n/a	n/a
5755.108	n/a	RECOG_CONF	2877554	n/a	LTP182	ltpFR	0	5	0	MAPLE	866	n/a	3	1	n/a	n/a	n/a	n/a	n/a
5756.992	n/a	RECOG_LURE	2878496	n/a	LTP182	ltpFR	0	5	n/a	SAND	1230	0	3	n/a	n/a	n/a	n/a	n/a	n/a
5760.08	n/a	RECOG_RESP	2880040	n/a	LTP182	ltpFR	0	5	n/a	SAND	1230	0	n/a	n/a	n/a	n/a	n/a	n/a	n/a
5761.546	n/a	RECOG_CONF	2880773	n/a	LTP182	ltpFR	0	5	n/a	SAND	1230	n/a	3	n/a	n/a	n/a	n/a	n/a	n/a
5763.42	n/a	RECOG_LURE	2881710	n/a	LTP182	ltpFR	0	5	n/a	SEAT	1264	0	3	n/a	n/a	n/a	n/a	n/a	n/a
5767.456	n/a	RECOG_RESP	2883728	n/a	LTP182	ltpFR	0	5	n/a	SEAT	1264	0	n/a	n/a	n/a	n/a	n/a	n/a	n/a
5768.85	n/a	RECOG_CONF	2884425	n/a	LTP182	ltpFR	0	5	n/a	SEAT	1264	n/a	3	n/a	n/a	n/a	n/a	n/a	n/a
5770.68	n/a	RECOG_TARGET	2885340	n/a	LTP182	ltpFR	0	5	-1	HALL	677	1	3	-1	n/a	n/a	n/a	n/a	n/a
