mstime	trial_type	stim_file	subject	experiment	session	trial	task	item_name	item_num	recog_resp	recog_conf	resp	answer	test_x	test_y	test_z	color_r	color_g	color_b	case	font
0	SESS_START	n/a	LTP093	ltpFR	12	n/a	n/a	n/a	n/a	1	5	n/a	n/a	0	0	0	n/a	n/a	n/a	n/a	n/a
84670	START	n/a	LTP093	ltpFR	12	n/a	n/a	n/a	n/a	n/a	n/a	n/a	n/a	n/a	n/a	n/a	n/a	n/a	n/a	n/a	n/a
84694	PROB	n/a	LTP093	ltpFR	12	n/a	n/a	n/a	n/a	n/a	n/a	n/a	14	4	8	2	n/a	n/a	n/a	n/a	n/a
86569	PROB	n/a	LTP093	ltpFR	12	n/a	n/a	n/a	n/a	n/a	n/a	n/a	13	6	2	5	n/a	n/a	n/a	n/a	n/a
88261	PROB	n/a	LTP093	ltpFR	12	n/a	n/a	n/a	n/a	n/a	n/a	n/a	12	3	6	3	n/a	n/a	n/a	n/a	n/a
89943	PROB	n/a	LTP093	ltpFR	12	n/a	n/a	n/a	n/a	n/a	n/a	n/a	17	5	5	7	n/a	n/a	n/a	n/a	n/a
91469	PROB	n/a	LTP093	ltpFR	12	n/a	n/a	n/a	n/a	n/a	n/a	n/a	18	7	2	9	n/a	n/a	n/a	n/a	n/a
93394	PROB	n/a	LTP093	ltpFR	12	n/a	n/a	n/a	n/a	n/a	n/a	n/a	14	7	4	3	n/a	n/a	n/a	n/a	n/a
95018	PROB	n/a	LTP093	ltpFR	12	n/a	n/a	n/a	n/a	n/a	n/a	n/a	16	5	4	7	n/a	n/a	n/a	n/a	n/a
96535	PROB	n/a	LTP093	ltpFR	12	n/a	n/a	n/a	n/a	n/a	n/a	n/a	17	4	7	6	n/a	n/a	n/a	n/a	n/a
98435	PROB	n/a	LTP093	ltpFR	12	n/a	n/a	n/a	n/a	n/a	n/a	n/a	10	4	3	3	n/a	n/a	n/a	n/a	n/a
100327	PROB	n/a	LTP093	ltpFR	12	n/a	n/a	n/a	n/a	n/a	n/a	n/a	16	4	8	4	n/a	n/a	n/a	n/a	n/a
102159	PROB	n/a	LTP093	ltpFR	12	n/a	n/a	n/a	n/a	n/a	n/a	n/a	12	6	5	1	n/a	n/a	n/a	n/a	n/a
103879	STOP	n/a	LTP093	ltpFR	12	n/a	n/a	n/a	n/a	n/a	n/a	n/a	n/a	n/a	n/a	n/a	n/a	n/a	n/a	n/a	n/a
151214	WORD	wordpools/wasnorm_wordpool.txt	LTP093	ltpFR	12	1	0	VELVET	1555	1	n/a	0	n/a	0	0	0	0.422607421875	0.5869140625	0	lower	amplitud.ttf
155264	WORD	wordpools/wasnorm_wordpool.txt	LTP093	ltpFR	12	1	0	FREEZER	604	n/a	n/a	0	n/a	0	0	0	0.422607421875	0.5869140625	0	lower	amplitud.ttf
159205	WORD	wordpools/wasnorm_wordpool.txt	LTP093	ltpFR	12	1	0	OTTER	986	n/a	n/a	0	n/a	0	0	0	0.422607421875	0.5869140625	0	lower	amplitud.ttf
163213	WORD	wordpools/wasnorm_wordpool.txt	LTP093	ltpFR	12	1	0	WOMAN	1620	n/a	n/a	0	n/a	0	0	0	0.422607421875	0.5869140625	0	lower	amplitud.ttf
167430	WORD	wordpools/wasnorm_wordpool.txt	LTP093	ltpFR	12	1	0	GENTLEMAN	631	n/a	n/a	0	n/a	0	0	0	0.422607421875	0.5869140625	0	lower	amplitud.ttf
171288	WORD	wordpools/wasnorm_wordpool.txt	LTP093	ltpFR	12	1	0	TRUCK	1512	n/a	n/a	1	n/a	0	0	0	0.422607421875	0.5869140625	0	lower	amplitud.ttf
175287	WORD	wordpools/wasnorm_wordpool.txt	LTP093	ltpFR	12	1	0	CART	250	n/a	n/a	1	n/a	0	0	0	0.422607421875	0.5869140625	0	lower	amplitud.ttf
179445	WORD	wordpools/wasnorm_wordpool.txt	LTP093	ltpFR	12	1	0	DEER	444	n/a	n/a	1	n/a	0	0	0	0.422607421875	0.5869140625	0	lower	amplitud.ttf
183478	WORD	wordpools/wasnorm_wordpool.txt	LTP093	ltpFR	12	1	0	WATER	1594	n/a	n/a	0	n/a	0	0	0	0.422607421875	0.5869140625	0	lower	amplitud.ttf
187586	WORD	wordpools/wasnorm_wordpool.txt	LTP093	ltpFR	12	1	0	VAULT	1550	n/a	n/a	1	n/a	0	0	0	0.422607421875	0.5869140625	0	lower	amplitud.ttf
191419	WORD	wordpools/wasnorm_wordpool.txt	LTP093	ltpFR	12	1	0	DOUGH	489	n/a	n/a	0	n/a	0	0	0	0.422607421875	0.5869140625	0	lower	amplitud.ttf
195244	WORD	wordpools/wasnorm_wordpool.txt	LTP093	ltpFR	12	1	0	ICING	732	n/a	n/a	0	n/a	0	0	0	0.422607421875	0.5869140625	0	lower	amplitud.ttf
199110	WORD	wordpools/wasnorm_wordpool.txt	LTP093	ltpFR	12	1	0	CREAM	402	n/a	n/a	0	n/a	0	0	0	0.422607421875	0.5869140625	0	lower	amplitud.ttf
203093	WORD	wordpools/wasnorm_wordpool.txt	LTP093	ltpFR	12	1	0	FROST	609	n/a	n/a	0	n/a	0	0	0	0.422607421875	0.5869140625	0	lower	amplitud.ttf
206942	WORD	wordpools/wasnorm_wordpool.txt	LTP093	ltpFR	12	1	0	CAR	241	n/a	n/a	0	n/a	0	0	0	0.422607421875	0.5869140625	0	lower	amplitud.ttf
210934	WORD	wordpools/wasnorm_wordpool.txt	LTP093	ltpFR	12	1	0	LIMOUSINE	824	n/a	n/a	1	n/a	0	0	0	0.422607421875	0.5869140625	0	lower	amplitud.ttf
213942	START	n/a	LTP093	ltpFR	12	n/a	n/a	n/a	n/a	n/a	n/a	n/a	n/a	n/a	n/a	n/a	n/a	n/a	n/a	n/a	n/a
215050	PROB	n/a	LTP093	ltpFR	12	n/a	n/a	n/a	n/a	n/a	n/a	n/a	25	8	8	9	n/a	n/a	n/a	n/a	n/a
217141	PROB	n/a	LTP093	ltpFR	12	n/a	n/a	n/a	n/a	n/a	n/a	n/a	16	5	4	7	n/a	n/a	n/a	n/a	n/a
218833	PROB	n/a	LTP093	ltpFR	12	n/a	n/a	n/a	n/a	n/a	n/a	n/a	24	6	6	6	n/a	n/a	n/a	n/a	n/a
220935	STOP	n/a	LTP093	ltpFR	12	n/a	n/a	n/a	n/a	n/a	n/a	n/a	n/a	n/a	n/a	n/a	n/a	n/a	n/a	n/a	n/a
223825	REC_START	n/a	LTP093	ltpFR	12	1	n/a	n/a	n/a	n/a	n/a	n/a	n/a	0	0	0	n/a	n/a	n/a	n/a	n/a
224977	REC_WORD	wordpools/wasnorm_wordpool.txt	LTP093	ltpFR	12	1	0	CAR	241	n/a	n/a	0	n/a	0	0	0	n/a	n/a	n/a	n/a	n/a
225740	REC_WORD	wordpools/wasnorm_wordpool.txt	LTP093	ltpFR	12	1	0	LIMOUSINE	824	n/a	n/a	1	n/a	0	0	0	n/a	n/a	n/a	n/a	n/a
226788	REC_WORD	wordpools/wasnorm_wordpool.txt	LTP093	ltpFR	12	1	0	FREEZER	604	n/a	n/a	0	n/a	0	0	0	n/a	n/a	n/a	n/a	n/a
227980	REC_WORD	wordpools/wasnorm_wordpool.txt	LTP093	ltpFR	12	1	0	ICING	732	n/a	n/a	0	n/a	0	0	0	n/a	n/a	n/a	n/a	n/a
229053	REC_WORD	wordpools/wasnorm_wordpool.txt	LTP093	ltpFR	12	1	0	GENTLEMAN	631	n/a	n/a	0	n/a	0	0	0	n/a	n/a	n/a	n/a	n/a
230410	REC_WORD	wordpools/wasnorm_wordpool.txt	LTP093	ltpFR	12	1	0	DEER	444	n/a	n/a	1	n/a	0	0	0	n/a	n/a	n/a	n/a	n/a
231697	REC_WORD	wordpools/wasnorm_wordpool.txt	LTP093	ltpFR	12	1	0	TRUCK	1512	n/a	n/a	1	n/a	0	0	0	n/a	n/a	n/a	n/a	n/a
234770	REC_WORD	wordpools/wasnorm_wordpool.txt	LTP093	ltpFR	12	1	0	OTTER	986	n/a	n/a	0	n/a	0	0	0	n/a	n/a	n/a	n/a	n/a
237314	REC_WORD	wordpools/wasnorm_wordpool.txt	LTP093	ltpFR	12	1	0	WOMAN	1620	n/a	n/a	0	n/a	0	0	0	n/a	n/a	n/a	n/a	n/a
243096	REC_WORD	wordpools/wasnorm_wordpool.txt	LTP093	ltpFR	12	1	0	VAULT	1550	n/a	n/a	1	n/a	0	0	0	n/a	n/a	n/a	n/a	n/a
246059	REC_WORD	wordpools/wasnorm_wordpool.txt	LTP093	ltpFR	12	1	0	WATER	1594	n/a	n/a	0	n/a	0	0	0	n/a	n/a	n/a	n/a	n/a
320850	START	n/a	LTP093	ltpFR	12	n/a	n/a	n/a	n/a	n/a	n/a	n/a	n/a	n/a	n/a	n/a	n/a	n/a	n/a	n/a	n/a
322351	PROB	n/a	LTP093	ltpFR	12	n/a	n/a	n/a	n/a	n/a	n/a	n/a	15	2	9	4	n/a	n/a	n/a	n/a	n/a
323858	PROB	n/a	LTP093	ltpFR	12	n/a	n/a	n/a	n/a	n/a	n/a	n/a	18	6	3	9	n/a	n/a	n/a	n/a	n/a
325417	PROB	n/a	LTP093	ltpFR	12	n/a	n/a	n/a	n/a	n/a	n/a	n/a	16	4	3	9	n/a	n/a	n/a	n/a	n/a
328850	STOP	n/a	LTP093	ltpFR	12	n/a	n/a	n/a	n/a	n/a	n/a	n/a	n/a	n/a	n/a	n/a	n/a	n/a	n/a	n/a	n/a
329709	WORD	wordpools/wasnorm_wordpool.txt	LTP093	ltpFR	12	2	1	CHEMIST	292	n/a	n/a	1	n/a	0	0	0	0.57763671875	0.412841796875	1	upper	zerothre.ttf
332718	START	n/a	LTP093	ltpFR	12	n/a	n/a	n/a	n/a	n/a	n/a	n/a	n/a	n/a	n/a	n/a	n/a	n/a	n/a	n/a	n/a
333791	PROB	n/a	LTP093	ltpFR	12	n/a	n/a	n/a	n/a	n/a	n/a	n/a	14	4	2	8	n/a	n/a	n/a	n/a	n/a
334932	PROB	n/a	LTP093	ltpFR	12	n/a	n/a	n/a	n/a	n/a	n/a	n/a	18	5	8	5	n/a	n/a	n/a	n/a	n/a
336157	PROB	n/a	LTP093	ltpFR	12	n/a	n/a	n/a	n/a	n/a	n/a	n/a	15	5	8	2	n/a	n/a	n/a	n/a	n/a
337391	PROB	n/a	LTP093	ltpFR	12	n/a	n/a	n/a	n/a	n/a	n/a	n/a	18	7	3	8	n/a	n/a	n/a	n/a	n/a
338608	PROB	n/a	LTP093	ltpFR	12	n/a	n/a	n/a	n/a	n/a	n/a	n/a	16	3	8	5	n/a	n/a	n/a	n/a	n/a
340272	STOP	n/a	LTP093	ltpFR	12	n/a	n/a	n/a	n/a	n/a	n/a	n/a	n/a	n/a	n/a	n/a	n/a	n/a	n/a	n/a	n/a
341575	WORD	wordpools/wasnorm_wordpool.txt	LTP093	ltpFR	12	2	1	SERVER	1272	n/a	n/a	0	n/a	0	0	0	0.57763671875	0.412841796875	1	upper	zerothre.ttf
344583	START	n/a	LTP093	ltpFR	12	n/a	n/a	n/a	n/a	n/a	n/a	n/a	n/a	n/a	n/a	n/a	n/a	n/a	n/a	n/a	n/a
345790	PROB	n/a	LTP093	ltpFR	12	n/a	n/a	n/a	n/a	n/a	n/a	n/a	22	8	8	6	n/a	n/a	n/a	n/a	n/a
348748	PROB	n/a	LTP093	ltpFR	12	n/a	n/a	n/a	n/a	n/a	n/a	n/a	17	4	8	5	n/a	n/a	n/a	n/a	n/a
350540	PROB	n/a	LTP093	ltpFR	12	n/a	n/a	n/a	n/a	n/a	n/a	n/a	16	8	2	6	n/a	n/a	n/a	n/a	n/a
351935	STOP	n/a	LTP093	ltpFR	12	n/a	n/a	n/a	n/a	n/a	n/a	n/a	n/a	n/a	n/a	n/a	n/a	n/a	n/a	n/a	n/a
353415	WORD	wordpools/wasnorm_wordpool.txt	LTP093	ltpFR	12	2	1	SWITCH	1422	n/a	n/a	0	n/a	0	0	0	0.57763671875	0.412841796875	1	upper	zerothre.ttf
356424	START	n/a	LTP093	ltpFR	12	n/a	n/a	n/a	n/a	n/a	n/a	n/a	n/a	n/a	n/a	n/a	n/a	n/a	n/a	n/a	n/a
357357	PROB	n/a	LTP093	ltpFR	12	n/a	n/a	n/a	n/a	n/a	n/a	n/a	18	7	3	8	n/a	n/a	n/a	n/a	n/a
358540	PROB	n/a	LTP093	ltpFR	12	n/a	n/a	n/a	n/a	n/a	n/a	n/a	11	5	2	4	n/a	n/a	n/a	n/a	n/a
360155	PROB	n/a	LTP093	ltpFR	12	n/a	n/a	n/a	n/a	n/a	n/a	n/a	18	8	9	1	n/a	n/a	n/a	n/a	n/a
361340	PROB	n/a	LTP093	ltpFR	12	n/a	n/a	n/a	n/a	n/a	n/a	n/a	21	9	5	7	n/a	n/a	n/a	n/a	n/a
363488	STOP	n/a	LTP093	ltpFR	12	n/a	n/a	n/a	n/a	n/a	n/a	n/a	n/a	n/a	n/a	n/a	n/a	n/a	n/a	n/a	n/a
365398	WORD	wordpools/wasnorm_wordpool.txt	LTP093	ltpFR	12	2	1	GROCERY	664	n/a	n/a	0	n/a	0	0	0	0.57763671875	0.412841796875	1	upper	zerothre.ttf
368406	START	n/a	LTP093	ltpFR	12	n/a	n/a	n/a	n/a	n/a	n/a	n/a	n/a	n/a	n/a	n/a	n/a	n/a	n/a	n/a	n/a
369422	PROB	n/a	LTP093	ltpFR	12	n/a	n/a	n/a	n/a	n/a	n/a	n/a	12	2	6	4	n/a	n/a	n/a	n/a	n/a
371904	PROB	n/a	LTP093	ltpFR	12	n/a	n/a	n/a	n/a	n/a	n/a	n/a	21	6	9	6	n/a	n/a	n/a	n/a	n/a
376406	STOP	n/a	LTP093	ltpFR	12	n/a	n/a	n/a	n/a	n/a	n/a	n/a	n/a	n/a	n/a	n/a	n/a	n/a	n/a	n/a	n/a
377363	WORD	wordpools/wasnorm_wordpool.txt	LTP093	ltpFR	12	2	0	BANQUET	86	n/a	n/a	0	n/a	0	0	0	0.422607421875	0.5869140625	0	lower	amplitud.ttf
380364	START	n/a	LTP093	ltpFR	12	n/a	n/a	n/a	n/a	n/a	n/a	n/a	n/a	n/a	n/a	n/a	n/a	n/a	n/a	n/a	n/a
381288	PROB	n/a	LTP093	ltpFR	12	n/a	n/a	n/a	n/a	n/a	n/a	n/a	12	2	1	9	n/a	n/a	n/a	n/a	n/a
383087	PROB	n/a	LTP093	ltpFR	12	n/a	n/a	n/a	n/a	n/a	n/a	n/a	24	9	9	6	n/a	n/a	n/a	n/a	n/a
385012	PROB	n/a	LTP093	ltpFR	12	n/a	n/a	n/a	n/a	n/a	n/a	n/a	12	1	9	2	n/a	n/a	n/a	n/a	n/a
388364	STOP	n/a	LTP093	ltpFR	12	n/a	n/a	n/a	n/a	n/a	n/a	n/a	n/a	n/a	n/a	n/a	n/a	n/a	n/a	n/a	n/a
389437	WORD	wordpools/wasnorm_wordpool.txt	LTP093	ltpFR	12	2	0	NEST	945	n/a	n/a	0	n/a	0	0	0	0.422607421875	0.5869140625	0	lower	amplitud.ttf
392438	START	n/a	LTP093	ltpFR	12	n/a	n/a	n/a	n/a	n/a	n/a	n/a	n/a	n/a	n/a	n/a	n/a	n/a	n/a	n/a	n/a
393245	PROB	n/a	LTP093	ltpFR	12	n/a	n/a	n/a	n/a	n/a	n/a	n/a	15	3	9	3	n/a	n/a	n/a	n/a	n/a
394811	PROB	n/a	LTP093	ltpFR	12	n/a	n/a	n/a	n/a	n/a	n/a	n/a	12	8	1	3	n/a	n/a	n/a	n/a	n/a
396994	PROB	n/a	LTP093	ltpFR	12	n/a	n/a	n/a	n/a	n/a	n/a	n/a	19	5	1	3	n/a	n/a	n/a	n/a	n/a
399191	STOP	n/a	LTP093	ltpFR	12	n/a	n/a	n/a	n/a	n/a	n/a	n/a	n/a	n/a	n/a	n/a	n/a	n/a	n/a	n/a	n/a
401253	WORD	wordpools/wasnorm_wordpool.txt	LTP093	ltpFR	12	2	1	QUAIL	1147	n/a	n/a	0	n/a	0	0	0	0.57763671875	0.412841796875	1	upper	zerothre.ttf
404262	START	n/a	LTP093	ltpFR	12	n/a	n/a	n/a	n/a	n/a	n/a	n/a	n/a	n/a	n/a	n/a	n/a	n/a	n/a	n/a	n/a
405253	PROB	n/a	LTP093	ltpFR	12	n/a	n/a	n/a	n/a	n/a	n/a	n/a	12	1	2	9	n/a	n/a	n/a	n/a	n/a
406561	PROB	n/a	LTP093	ltpFR	12	n/a	n/a	n/a	n/a	n/a	n/a	n/a	19	6	5	8	n/a	n/a	n/a	n/a	n/a
408818	PROB	n/a	LTP093	ltpFR	12	n/a	n/a	n/a	n/a	n/a	n/a	n/a	12	1	3	8	n/a	n/a	n/a	n/a	n/a
412262	STOP	n/a	LTP093	ltpFR	12	n/a	n/a	n/a	n/a	n/a	n/a	n/a	n/a	n/a	n/a	n/a	n/a	n/a	n/a	n/a	n/a
413093	WORD	wordpools/wasnorm_wordpool.txt	LTP093	ltpFR	12	2	1	FORT	595	n/a	n/a	0	n/a	0	0	0	0.57763671875	0.412841796875	1	upper	zerothre.ttf
416101	START	n/a	LTP093	ltpFR	12	n/a	n/a	n/a	n/a	n/a	n/a	n/a	n/a	n/a	n/a	n/a	n/a	n/a	n/a	n/a	n/a
416984	PROB	n/a	LTP093	ltpFR	12	n/a	n/a	n/a	n/a	n/a	n/a	n/a	16	8	6	2	n/a	n/a	n/a	n/a	n/a
418610	PROB	n/a	LTP093	ltpFR	12	n/a	n/a	n/a	n/a	n/a	n/a	n/a	9	4	4	1	n/a	n/a	n/a	n/a	n/a
420109	PROB	n/a	LTP093	ltpFR	12	n/a	n/a	n/a	n/a	n/a	n/a	n/a	8	3	2	3	n/a	n/a	n/a	n/a	n/a
421967	PROB	n/a	LTP093	ltpFR	12	n/a	n/a	n/a	n/a	n/a	n/a	n/a	19	5	8	6	n/a	n/a	n/a	n/a	n/a
423999	STOP	n/a	LTP093	ltpFR	12	n/a	n/a	n/a	n/a	n/a	n/a	n/a	n/a	n/a	n/a	n/a	n/a	n/a	n/a	n/a	n/a
424992	WORD	wordpools/wasnorm_wordpool.txt	LTP093	ltpFR	12	2	1	TANK	1432	n/a	n/a	0	n/a	0	0	0	0.57763671875	0.412841796875	1	upper	zerothre.ttf
428001	START	n/a	LTP093	ltpFR	12	n/a	n/a	n/a	n/a	n/a	n/a	n/a	n/a	n/a	n/a	n/a	n/a	n/a	n/a	n/a	n/a
428958	PROB	n/a	LTP093	ltpFR	12	n/a	n/a	n/a	n/a	n/a	n/a	n/a	23	9	9	5	n/a	n/a	n/a	n/a	n/a
430651	PROB	n/a	LTP093	ltpFR	12	n/a	n/a	n/a	n/a	n/a	n/a	n/a	15	5	7	3	n/a	n/a	n/a	n/a	n/a
431850	PROB	n/a	LTP093	ltpFR	12	n/a	n/a	n/a	n/a	n/a	n/a	n/a	14	2	9	3	n/a	n/a	n/a	n/a	n/a
436000	STOP	n/a	LTP093	ltpFR	12	n/a	n/a	n/a	n/a	n/a	n/a	n/a	n/a	n/a	n/a	n/a	n/a	n/a	n/a	n/a	n/a
437183	WORD	wordpools/wasnorm_wordpool.txt	LTP093	ltpFR	12	2	1	WORM	1623	n/a	n/a	1	n/a	0	0	0	0.57763671875	0.412841796875	1	upper	zerothre.ttf
440191	START	n/a	LTP093	ltpFR	12	n/a	n/a	n/a	n/a	n/a	n/a	n/a	n/a	n/a	n/a	n/a	n/a	n/a	n/a	n/a	n/a
441091	PROB	n/a	LTP093	ltpFR	12	n/a	n/a	n/a	n/a	n/a	n/a	n/a	15	3	7	5	n/a	n/a	n/a	n/a	n/a
442791	PROB	n/a	LTP093	ltpFR	12	n/a	n/a	n/a	n/a	n/a	n/a	n/a	14	8	1	5	n/a	n/a	n/a	n/a	n/a
445049	PROB	n/a	LTP093	ltpFR	12	n/a	n/a	n/a	n/a	n/a	n/a	n/a	12	3	3	6	n/a	n/a	n/a	n/a	n/a
446927	STOP	n/a	LTP093	ltpFR	12	n/a	n/a	n/a	n/a	n/a	n/a	n/a	n/a	n/a	n/a	n/a	n/a	n/a	n/a	n/a	n/a
449399	WORD	wordpools/wasnorm_wordpool.txt	LTP093	ltpFR	12	2	0	PAW	1029	n/a	n/a	0	n/a	0	0	0	0.422607421875	0.5869140625	0	lower	amplitud.ttf
452408	START	n/a	LTP093	ltpFR	12	n/a	n/a	n/a	n/a	n/a	n/a	n/a	n/a	n/a	n/a	n/a	n/a	n/a	n/a	n/a	n/a
453399	PROB	n/a	LTP093	ltpFR	12	n/a	n/a	n/a	n/a	n/a	n/a	n/a	20	5	7	8	n/a	n/a	n/a	n/a	n/a
456499	PROB	n/a	LTP093	ltpFR	12	n/a	n/a	n/a	n/a	n/a	n/a	n/a	18	7	8	3	n/a	n/a	n/a	n/a	n/a
458999	STOP	n/a	LTP093	ltpFR	12	n/a	n/a	n/a	n/a	n/a	n/a	n/a	n/a	n/a	n/a	n/a	n/a	n/a	n/a	n/a	n/a
461499	WORD	wordpools/wasnorm_wordpool.txt	LTP093	ltpFR	12	2	0	CLOVE	329	n/a	n/a	0	n/a	0	0	0	0.422607421875	0.5869140625	0	lower	amplitud.ttf
464507	START	n/a	LTP093	ltpFR	12	n/a	n/a	n/a	n/a	n/a	n/a	n/a	n/a	n/a	n/a	n/a	n/a	n/a	n/a	n/a	n/a
465540	PROB	n/a	LTP093	ltpFR	12	n/a	n/a	n/a	n/a	n/a	n/a	n/a	12	9	2	1	n/a	n/a	n/a	n/a	n/a
466548	PROB	n/a	LTP093	ltpFR	12	n/a	n/a	n/a	n/a	n/a	n/a	n/a	19	3	1	5	n/a	n/a	n/a	n/a	n/a
468215	PROB	n/a	LTP093	ltpFR	12	n/a	n/a	n/a	n/a	n/a	n/a	n/a	15	2	9	4	n/a	n/a	n/a	n/a	n/a
472507	STOP	n/a	LTP093	ltpFR	12	n/a	n/a	n/a	n/a	n/a	n/a	n/a	n/a	n/a	n/a	n/a	n/a	n/a	n/a	n/a	n/a
473531	WORD	wordpools/wasnorm_wordpool.txt	LTP093	ltpFR	12	2	0	TECHNICIAN	1443	n/a	n/a	0	n/a	0	0	0	0.422607421875	0.5869140625	0	lower	amplitud.ttf
476539	START	n/a	LTP093	ltpFR	12	n/a	n/a	n/a	n/a	n/a	n/a	n/a	n/a	n/a	n/a	n/a	n/a	n/a	n/a	n/a	n/a
477656	PROB	n/a	LTP093	ltpFR	12	n/a	n/a	n/a	n/a	n/a	n/a	n/a	18	9	1	8	n/a	n/a	n/a	n/a	n/a
479256	PROB	n/a	LTP093	ltpFR	12	n/a	n/a	n/a	n/a	n/a	n/a	n/a	9	1	3	5	n/a	n/a	n/a	n/a	n/a
481188	PROB	n/a	LTP093	ltpFR	12	n/a	n/a	n/a	n/a	n/a	n/a	n/a	14	9	4	1	n/a	n/a	n/a	n/a	n/a
484538	STOP	n/a	LTP093	ltpFR	12	n/a	n/a	n/a	n/a	n/a	n/a	n/a	n/a	n/a	n/a	n/a	n/a	n/a	n/a	n/a	n/a
485530	WORD	wordpools/wasnorm_wordpool.txt	LTP093	ltpFR	12	2	0	ARMY	39	n/a	n/a	1	n/a	0	0	0	0.422607421875	0.5869140625	0	lower	amplitud.ttf
488538	START	n/a	LTP093	ltpFR	12	n/a	n/a	n/a	n/a	n/a	n/a	n/a	n/a	n/a	n/a	n/a	n/a	n/a	n/a	n/a	n/a
489713	PROB	n/a	LTP093	ltpFR	12	n/a	n/a	n/a	n/a	n/a	n/a	n/a	19	7	7	5	n/a	n/a	n/a	n/a	n/a
491255	PROB	n/a	LTP093	ltpFR	12	n/a	n/a	n/a	n/a	n/a	n/a	n/a	14	8	3	3	n/a	n/a	n/a	n/a	n/a
494596	PROB	n/a	LTP093	ltpFR	12	n/a	n/a	n/a	n/a	n/a	n/a	n/a	16	3	8	5	n/a	n/a	n/a	n/a	n/a
496472	STOP	n/a	LTP093	ltpFR	12	n/a	n/a	n/a	n/a	n/a	n/a	n/a	n/a	n/a	n/a	n/a	n/a	n/a	n/a	n/a	n/a
497387	WORD	wordpools/wasnorm_wordpool.txt	LTP093	ltpFR	12	2	0	DRAWING	494	n/a	n/a	0	n/a	0	0	0	0.422607421875	0.5869140625	0	lower	amplitud.ttf
500388	START	n/a	LTP093	ltpFR	12	n/a	n/a	n/a	n/a	n/a	n/a	n/a	n/a	n/a	n/a	n/a	n/a	n/a	n/a	n/a	n/a
501404	PROB	n/a	LTP093	ltpFR	12	n/a	n/a	n/a	n/a	n/a	n/a	n/a	10	2	5	3	n/a	n/a	n/a	n/a	n/a
503320	PROB	n/a	LTP093	ltpFR	12	n/a	n/a	n/a	n/a	n/a	n/a	n/a	12	1	9	2	n/a	n/a	n/a	n/a	n/a
504495	PROB	n/a	LTP093	ltpFR	12	n/a	n/a	n/a	n/a	n/a	n/a	n/a	15	6	5	4	n/a	n/a	n/a	n/a	n/a
506752	PROB	n/a	LTP093	ltpFR	12	n/a	n/a	n/a	n/a	n/a	n/a	n/a	19	8	2	9	n/a	n/a	n/a	n/a	n/a
507855	STOP	n/a	LTP093	ltpFR	12	n/a	n/a	n/a	n/a	n/a	n/a	n/a	n/a	n/a	n/a	n/a	n/a	n/a	n/a	n/a	n/a
509236	WORD	wordpools/wasnorm_wordpool.txt	LTP093	ltpFR	12	2	0	CAT	257	n/a	n/a	0	n/a	0	0	0	0.422607421875	0.5869140625	0	lower	amplitud.ttf
512236	START	n/a	LTP093	ltpFR	12	n/a	n/a	n/a	n/a	n/a	n/a	n/a	n/a	n/a	n/a	n/a	n/a	n/a	n/a	n/a	n/a
513194	PROB	n/a	LTP093	ltpFR	12	n/a	n/a	n/a	n/a	n/a	n/a	n/a	11	2	8	1	n/a	n/a	n/a	n/a	n/a
514777	PROB	n/a	LTP093	ltpFR	12	n/a	n/a	n/a	n/a	n/a	n/a	n/a	7	2	2	3	n/a	n/a	n/a	n/a	n/a
517043	PROB	n/a	LTP093	ltpFR	12	n/a	n/a	n/a	n/a	n/a	n/a	n/a	12	1	2	9	n/a	n/a	n/a	n/a	n/a
518277	PROB	n/a	LTP093	ltpFR	12	n/a	n/a	n/a	n/a	n/a	n/a	n/a	17	8	7	2	n/a	n/a	n/a	n/a	n/a
520135	STOP	n/a	LTP093	ltpFR	12	n/a	n/a	n/a	n/a	n/a	n/a	n/a	n/a	n/a	n/a	n/a	n/a	n/a	n/a	n/a	n/a
522127	REC_START	n/a	LTP093	ltpFR	12	2	n/a	n/a	n/a	n/a	n/a	n/a	n/a	0	0	0	n/a	n/a	n/a	n/a	n/a
523105	REC_WORD	wordpools/wasnorm_wordpool.txt	LTP093	ltpFR	12	2	1	QUAIL	1147	n/a	n/a	0	n/a	0	0	0	n/a	n/a	n/a	n/a	n/a
525084	REC_WORD_VV	wordpools/wasnorm_wordpool.txt	LTP093	ltpFR	12	2	n/a	<>	-1	n/a	n/a	n/a	n/a	0	0	0	n/a	n/a	n/a	n/a	n/a
525529	REC_WORD	wordpools/wasnorm_wordpool.txt	LTP093	ltpFR	12	2	0	CAT	257	n/a	n/a	0	n/a	0	0	0	n/a	n/a	n/a	n/a	n/a
526307	REC_WORD	wordpools/wasnorm_wordpool.txt	LTP093	ltpFR	12	2	1	WORM	1623	n/a	n/a	1	n/a	0	0	0	n/a	n/a	n/a	n/a	n/a
528418	REC_WORD	wordpools/wasnorm_wordpool.txt	LTP093	ltpFR	12	2	0	TECHNICIAN	1443	n/a	n/a	0	n/a	0	0	0	n/a	n/a	n/a	n/a	n/a
532094	REC_WORD	wordpools/wasnorm_wordpool.txt	LTP093	ltpFR	12	2	1	CHEMIST	292	n/a	n/a	1	n/a	0	0	0	n/a	n/a	n/a	n/a	n/a
658509	START	n/a	LTP093	ltpFR	12	n/a	n/a	n/a	n/a	n/a	n/a	n/a	n/a	n/a	n/a	n/a	n/a	n/a	n/a	n/a	n/a
660015	PROB	n/a	LTP093	ltpFR	12	n/a	n/a	n/a	n/a	n/a	n/a	n/a	13	5	1	7	n/a	n/a	n/a	n/a	n/a
662341	PROB	n/a	LTP093	ltpFR	12	n/a	n/a	n/a	n/a	n/a	n/a	n/a	19	8	5	6	n/a	n/a	n/a	n/a	n/a
664173	PROB	n/a	LTP093	ltpFR	12	n/a	n/a	n/a	n/a	n/a	n/a	n/a	14	3	8	3	n/a	n/a	n/a	n/a	n/a
665928	STOP	n/a	LTP093	ltpFR	12	n/a	n/a	n/a	n/a	n/a	n/a	n/a	n/a	n/a	n/a	n/a	n/a	n/a	n/a	n/a	n/a
667716	WORD	wordpools/wasnorm_wordpool.txt	LTP093	ltpFR	12	3	0	PEANUT	1032	n/a	n/a	0	n/a	0	0	0	0.422607421875	0.5869140625	0	lower	amplitud.ttf
670724	START	n/a	LTP093	ltpFR	12	n/a	n/a	n/a	n/a	n/a	n/a	n/a	n/a	n/a	n/a	n/a	n/a	n/a	n/a	n/a	n/a
671574	PROB	n/a	LTP093	ltpFR	12	n/a	n/a	n/a	n/a	n/a	n/a	n/a	20	9	7	4	n/a	n/a	n/a	n/a	n/a
673399	PROB	n/a	LTP093	ltpFR	12	n/a	n/a	n/a	n/a	n/a	n/a	n/a	11	1	6	4	n/a	n/a	n/a	n/a	n/a
676432	PROB	n/a	LTP093	ltpFR	12	n/a	n/a	n/a	n/a	n/a	n/a	n/a	18	7	9	2	n/a	n/a	n/a	n/a	n/a
677895	STOP	n/a	LTP093	ltpFR	12	n/a	n/a	n/a	n/a	n/a	n/a	n/a	n/a	n/a	n/a	n/a	n/a	n/a	n/a	n/a	n/a
679657	WORD	wordpools/wasnorm_wordpool.txt	LTP093	ltpFR	12	3	0	PATH	1023	n/a	n/a	0	n/a	0	0	0	0.422607421875	0.5869140625	0	lower	amplitud.ttf
682665	START	n/a	LTP093	ltpFR	12	n/a	n/a	n/a	n/a	n/a	n/a	n/a	n/a	n/a	n/a	n/a	n/a	n/a	n/a	n/a	n/a
683590	PROB	n/a	LTP093	ltpFR	12	n/a	n/a	n/a	n/a	n/a	n/a	n/a	12	5	6	1	n/a	n/a	n/a	n/a	n/a
685448	PROB	n/a	LTP093	ltpFR	12	n/a	n/a	n/a	n/a	n/a	n/a	n/a	11	2	2	7	n/a	n/a	n/a	n/a	n/a
687714	PROB	n/a	LTP093	ltpFR	12	n/a	n/a	n/a	n/a	n/a	n/a	n/a	14	1	9	4	n/a	n/a	n/a	n/a	n/a
688922	PROB	n/a	LTP093	ltpFR	12	n/a	n/a	n/a	n/a	n/a	n/a	n/a	18	9	7	2	n/a	n/a	n/a	n/a	n/a
690616	STOP	n/a	LTP093	ltpFR	12	n/a	n/a	n/a	n/a	n/a	n/a	n/a	n/a	n/a	n/a	n/a	n/a	n/a	n/a	n/a	n/a
691639	WORD	wordpools/wasnorm_wordpool.txt	LTP093	ltpFR	12	3	0	BROCCOLI	176	n/a	n/a	0	n/a	0	0	0	0.422607421875	0.5869140625	0	lower	amplitud.ttf
694647	START	n/a	LTP093	ltpFR	12	n/a	n/a	n/a	n/a	n/a	n/a	n/a	n/a	n/a	n/a	n/a	n/a	n/a	n/a	n/a	n/a
695664	PROB	n/a	LTP093	ltpFR	12	n/a	n/a	n/a	n/a	n/a	n/a	n/a	8	1	3	4	n/a	n/a	n/a	n/a	n/a
697697	PROB	n/a	LTP093	ltpFR	12	n/a	n/a	n/a	n/a	n/a	n/a	n/a	16	8	7	1	n/a	n/a	n/a	n/a	n/a
702646	STOP	n/a	LTP093	ltpFR	12	n/a	n/a	n/a	n/a	n/a	n/a	n/a	n/a	n/a	n/a	n/a	n/a	n/a	n/a	n/a	n/a
703820	WORD	wordpools/wasnorm_wordpool.txt	LTP093	ltpFR	12	3	0	GREASE	660	n/a	n/a	0	n/a	0	0	0	0.422607421875	0.5869140625	0	lower	amplitud.ttf
706821	START	n/a	LTP093	ltpFR	12	n/a	n/a	n/a	n/a	n/a	n/a	n/a	n/a	n/a	n/a	n/a	n/a	n/a	n/a	n/a	n/a
707713	PROB	n/a	LTP093	ltpFR	12	n/a	n/a	n/a	n/a	n/a	n/a	n/a	14	7	5	2	n/a	n/a	n/a	n/a	n/a
709563	PROB	n/a	LTP093	ltpFR	12	n/a	n/a	n/a	n/a	n/a	n/a	n/a	12	4	4	4	n/a	n/a	n/a	n/a	n/a
711479	PROB	n/a	LTP093	ltpFR	12	n/a	n/a	n/a	n/a	n/a	n/a	n/a	17	4	5	8	n/a	n/a	n/a	n/a	n/a
714440	STOP	n/a	LTP093	ltpFR	12	n/a	n/a	n/a	n/a	n/a	n/a	n/a	n/a	n/a	n/a	n/a	n/a	n/a	n/a	n/a	n/a
715961	WORD	wordpools/wasnorm_wordpool.txt	LTP093	ltpFR	12	3	0	SUBWAY	1400	n/a	n/a	0	n/a	0	0	0	0.422607421875	0.5869140625	0	lower	amplitud.ttf
718970	START	n/a	LTP093	ltpFR	12	n/a	n/a	n/a	n/a	n/a	n/a	n/a	n/a	n/a	n/a	n/a	n/a	n/a	n/a	n/a	n/a
720019	PROB	n/a	LTP093	ltpFR	12	n/a	n/a	n/a	n/a	n/a	n/a	n/a	4	1	2	1	n/a	n/a	n/a	n/a	n/a
720969	PROB	n/a	LTP093	ltpFR	12	n/a	n/a	n/a	n/a	n/a	n/a	n/a	11	1	9	1	n/a	n/a	n/a	n/a	n/a
722245	PROB	n/a	LTP093	ltpFR	12	n/a	n/a	n/a	n/a	n/a	n/a	n/a	17	8	2	7	n/a	n/a	n/a	n/a	n/a
726970	STOP	n/a	LTP093	ltpFR	12	n/a	n/a	n/a	n/a	n/a	n/a	n/a	n/a	n/a	n/a	n/a	n/a	n/a	n/a	n/a	n/a
728160	WORD	wordpools/wasnorm_wordpool.txt	LTP093	ltpFR	12	3	0	ARCHITECT	36	n/a	n/a	1	n/a	0	0	0	0.422607421875	0.5869140625	0	lower	amplitud.ttf
731169	START	n/a	LTP093	ltpFR	12	n/a	n/a	n/a	n/a	n/a	n/a	n/a	n/a	n/a	n/a	n/a	n/a	n/a	n/a	n/a	n/a
732261	PROB	n/a	LTP093	ltpFR	12	n/a	n/a	n/a	n/a	n/a	n/a	n/a	22	6	7	9	n/a	n/a	n/a	n/a	n/a
739168	STOP	n/a	LTP093	ltpFR	12	n/a	n/a	n/a	n/a	n/a	n/a	n/a	n/a	n/a	n/a	n/a	n/a	n/a	n/a	n/a	n/a
740059	WORD	wordpools/wasnorm_wordpool.txt	LTP093	ltpFR	12	3	0	PUDDLE	1140	n/a	n/a	0	n/a	0	0	0	0.422607421875	0.5869140625	0	lower	amplitud.ttf
743076	START	n/a	LTP093	ltpFR	12	n/a	n/a	n/a	n/a	n/a	n/a	n/a	n/a	n/a	n/a	n/a	n/a	n/a	n/a	n/a	n/a
743992	PROB	n/a	LTP093	ltpFR	12	n/a	n/a	n/a	n/a	n/a	n/a	n/a	15	3	6	6	n/a	n/a	n/a	n/a	n/a
747410	PROB	n/a	LTP093	ltpFR	12	n/a	n/a	n/a	n/a	n/a	n/a	n/a	7	1	2	4	n/a	n/a	n/a	n/a	n/a
751075	STOP	n/a	LTP093	ltpFR	12	n/a	n/a	n/a	n/a	n/a	n/a	n/a	n/a	n/a	n/a	n/a	n/a	n/a	n/a	n/a	n/a
752226	WORD	wordpools/wasnorm_wordpool.txt	LTP093	ltpFR	12	3	0	STREAM	1392	n/a	n/a	0	n/a	0	0	0	0.422607421875	0.5869140625	0	lower	amplitud.ttf
755235	START	n/a	LTP093	ltpFR	12	n/a	n/a	n/a	n/a	n/a	n/a	n/a	n/a	n/a	n/a	n/a	n/a	n/a	n/a	n/a	n/a
756359	PROB	n/a	LTP093	ltpFR	12	n/a	n/a	n/a	n/a	n/a	n/a	n/a	7	1	4	2	n/a	n/a	n/a	n/a	n/a
758824	PROB	n/a	LTP093	ltpFR	12	n/a	n/a	n/a	n/a	n/a	n/a	n/a	15	8	4	3	n/a	n/a	n/a	n/a	n/a
763235	STOP	n/a	LTP093	ltpFR	12	n/a	n/a	n/a	n/a	n/a	n/a	n/a	n/a	n/a	n/a	n/a	n/a	n/a	n/a	n/a	n/a
764174	WORD	wordpools/wasnorm_wordpool.txt	LTP093	ltpFR	12	3	0	UNIFORM	1539	n/a	n/a	0	n/a	0	0	0	0.422607421875	0.5869140625	0	lower	amplitud.ttf
767183	START	n/a	LTP093	ltpFR	12	n/a	n/a	n/a	n/a	n/a	n/a	n/a	n/a	n/a	n/a	n/a	n/a	n/a	n/a	n/a	n/a
768024	PROB	n/a	LTP093	ltpFR	12	n/a	n/a	n/a	n/a	n/a	n/a	n/a	7	1	5	1	n/a	n/a	n/a	n/a	n/a
769082	PROB	n/a	LTP093	ltpFR	12	n/a	n/a	n/a	n/a	n/a	n/a	n/a	17	5	7	5	n/a	n/a	n/a	n/a	n/a
770383	PROB	n/a	LTP093	ltpFR	12	n/a	n/a	n/a	n/a	n/a	n/a	n/a	6	3	1	2	n/a	n/a	n/a	n/a	n/a
771923	PROB	n/a	LTP093	ltpFR	12	n/a	n/a	n/a	n/a	n/a	n/a	n/a	22	7	7	8	n/a	n/a	n/a	n/a	n/a
773888	STOP	n/a	LTP093	ltpFR	12	n/a	n/a	n/a	n/a	n/a	n/a	n/a	n/a	n/a	n/a	n/a	n/a	n/a	n/a	n/a	n/a
776106	WORD	wordpools/wasnorm_wordpool.txt	LTP093	ltpFR	12	3	0	OFFICE	972	n/a	n/a	0	n/a	0	0	0	0.422607421875	0.5869140625	0	lower	amplitud.ttf
779107	START	n/a	LTP093	ltpFR	12	n/a	n/a	n/a	n/a	n/a	n/a	n/a	n/a	n/a	n/a	n/a	n/a	n/a	n/a	n/a	n/a
780031	PROB	n/a	LTP093	ltpFR	12	n/a	n/a	n/a	n/a	n/a	n/a	n/a	11	6	3	2	n/a	n/a	n/a	n/a	n/a
781956	PROB	n/a	LTP093	ltpFR	12	n/a	n/a	n/a	n/a	n/a	n/a	n/a	20	9	5	6	n/a	n/a	n/a	n/a	n/a
783624	PROB	n/a	LTP093	ltpFR	12	n/a	n/a	n/a	n/a	n/a	n/a	n/a	8	3	4	1	n/a	n/a	n/a	n/a	n/a
786273	STOP	n/a	LTP093	ltpFR	12	n/a	n/a	n/a	n/a	n/a	n/a	n/a	n/a	n/a	n/a	n/a	n/a	n/a	n/a	n/a	n/a
788056	WORD	wordpools/wasnorm_wordpool.txt	LTP093	ltpFR	12	3	0	MACARONI	851	n/a	n/a	0	n/a	0	0	0	0.422607421875	0.5869140625	0	lower	amplitud.ttf
791064	START	n/a	LTP093	ltpFR	12	n/a	n/a	n/a	n/a	n/a	n/a	n/a	n/a	n/a	n/a	n/a	n/a	n/a	n/a	n/a	n/a
792064	PROB	n/a	LTP093	ltpFR	12	n/a	n/a	n/a	n/a	n/a	n/a	n/a	12	1	4	7	n/a	n/a	n/a	n/a	n/a
794739	PROB	n/a	LTP093	ltpFR	12	n/a	n/a	n/a	n/a	n/a	n/a	n/a	15	9	4	2	n/a	n/a	n/a	n/a	n/a
796456	PROB	n/a	LTP093	ltpFR	12	n/a	n/a	n/a	n/a	n/a	n/a	n/a	19	2	8	9	n/a	n/a	n/a	n/a	n/a
797649	STOP	n/a	LTP093	ltpFR	12	n/a	n/a	n/a	n/a	n/a	n/a	n/a	n/a	n/a	n/a	n/a	n/a	n/a	n/a	n/a	n/a
800038	WORD	wordpools/wasnorm_wordpool.txt	LTP093	ltpFR	12	3	0	MARS	873	n/a	n/a	0	n/a	0	0	0	0.422607421875	0.5869140625	0	lower	amplitud.ttf
803047	START	n/a	LTP093	ltpFR	12	n/a	n/a	n/a	n/a	n/a	n/a	n/a	n/a	n/a	n/a	n/a	n/a	n/a	n/a	n/a	n/a
804021	PROB	n/a	LTP093	ltpFR	12	n/a	n/a	n/a	n/a	n/a	n/a	n/a	22	9	9	4	n/a	n/a	n/a	n/a	n/a
805588	PROB	n/a	LTP093	ltpFR	12	n/a	n/a	n/a	n/a	n/a	n/a	n/a	14	8	5	1	n/a	n/a	n/a	n/a	n/a
807463	PROB	n/a	LTP093	ltpFR	12	n/a	n/a	n/a	n/a	n/a	n/a	n/a	9	6	2	1	n/a	n/a	n/a	n/a	n/a
809079	PROB	n/a	LTP093	ltpFR	12	n/a	n/a	n/a	n/a	n/a	n/a	n/a	11	3	7	1	n/a	n/a	n/a	n/a	n/a
810433	STOP	n/a	LTP093	ltpFR	12	n/a	n/a	n/a	n/a	n/a	n/a	n/a	n/a	n/a	n/a	n/a	n/a	n/a	n/a	n/a	n/a
812054	WORD	wordpools/wasnorm_wordpool.txt	LTP093	ltpFR	12	3	0	POWDER	1117	n/a	n/a	1	n/a	0	0	0	0.422607421875	0.5869140625	0	lower	amplitud.ttf
815062	START	n/a	LTP093	ltpFR	12	n/a	n/a	n/a	n/a	n/a	n/a	n/a	n/a	n/a	n/a	n/a	n/a	n/a	n/a	n/a	n/a
816137	PROB	n/a	LTP093	ltpFR	12	n/a	n/a	n/a	n/a	n/a	n/a	n/a	23	7	9	6	n/a	n/a	n/a	n/a	n/a
821512	PROB	n/a	LTP093	ltpFR	12	n/a	n/a	n/a	n/a	n/a	n/a	n/a	5	2	1	2	n/a	n/a	n/a	n/a	n/a
822729	STOP	n/a	LTP093	ltpFR	12	n/a	n/a	n/a	n/a	n/a	n/a	n/a	n/a	n/a	n/a	n/a	n/a	n/a	n/a	n/a	n/a
823969	WORD	wordpools/wasnorm_wordpool.txt	LTP093	ltpFR	12	3	0	NUT	965	n/a	n/a	0	n/a	0	0	0	0.422607421875	0.5869140625	0	lower	amplitud.ttf
826970	START	n/a	LTP093	ltpFR	12	n/a	n/a	n/a	n/a	n/a	n/a	n/a	n/a	n/a	n/a	n/a	n/a	n/a	n/a	n/a	n/a
827927	PROB	n/a	LTP093	ltpFR	12	n/a	n/a	n/a	n/a	n/a	n/a	n/a	13	5	6	2	n/a	n/a	n/a	n/a	n/a
829977	PROB	n/a	LTP093	ltpFR	12	n/a	n/a	n/a	n/a	n/a	n/a	n/a	8	2	2	4	n/a	n/a	n/a	n/a	n/a
834970	STOP	n/a	LTP093	ltpFR	12	n/a	n/a	n/a	n/a	n/a	n/a	n/a	n/a	n/a	n/a	n/a	n/a	n/a	n/a	n/a	n/a
836152	WORD	wordpools/wasnorm_wordpool.txt	LTP093	ltpFR	12	3	0	DICTATOR	462	n/a	n/a	0	n/a	0	0	0	0.422607421875	0.5869140625	0	lower	amplitud.ttf
839160	START	n/a	LTP093	ltpFR	12	n/a	n/a	n/a	n/a	n/a	n/a	n/a	n/a	n/a	n/a	n/a	n/a	n/a	n/a	n/a	n/a
840102	PROB	n/a	LTP093	ltpFR	12	n/a	n/a	n/a	n/a	n/a	n/a	n/a	12	4	1	7	n/a	n/a	n/a	n/a	n/a
842661	PROB	n/a	LTP093	ltpFR	12	n/a	n/a	n/a	n/a	n/a	n/a	n/a	14	3	5	6	n/a	n/a	n/a	n/a	n/a
844660	PROB	n/a	LTP093	ltpFR	12	n/a	n/a	n/a	n/a	n/a	n/a	n/a	8	2	4	2	n/a	n/a	n/a	n/a	n/a
845880	STOP	n/a	LTP093	ltpFR	12	n/a	n/a	n/a	n/a	n/a	n/a	n/a	n/a	n/a	n/a	n/a	n/a	n/a	n/a	n/a	n/a
848368	WORD	wordpools/wasnorm_wordpool.txt	LTP093	ltpFR	12	3	0	EMPEROR	529	n/a	n/a	0	n/a	0	0	0	0.422607421875	0.5869140625	0	lower	amplitud.ttf
851368	START	n/a	LTP093	ltpFR	12	n/a	n/a	n/a	n/a	n/a	n/a	n/a	n/a	n/a	n/a	n/a	n/a	n/a	n/a	n/a	n/a
852252	PROB	n/a	LTP093	ltpFR	12	n/a	n/a	n/a	n/a	n/a	n/a	n/a	13	8	4	1	n/a	n/a	n/a	n/a	n/a
854585	PROB	n/a	LTP093	ltpFR	12	n/a	n/a	n/a	n/a	n/a	n/a	n/a	11	1	5	5	n/a	n/a	n/a	n/a	n/a
855917	PROB	n/a	LTP093	ltpFR	12	n/a	n/a	n/a	n/a	n/a	n/a	n/a	16	8	7	1	n/a	n/a	n/a	n/a	n/a
857559	PROB	n/a	LTP093	ltpFR	12	n/a	n/a	n/a	n/a	n/a	n/a	n/a	12	4	7	1	n/a	n/a	n/a	n/a	n/a
859104	STOP	n/a	LTP093	ltpFR	12	n/a	n/a	n/a	n/a	n/a	n/a	n/a	n/a	n/a	n/a	n/a	n/a	n/a	n/a	n/a	n/a
861210	REC_START	n/a	LTP093	ltpFR	12	3	n/a	n/a	n/a	n/a	n/a	n/a	n/a	0	0	0	n/a	n/a	n/a	n/a	n/a
862362	REC_WORD	wordpools/wasnorm_wordpool.txt	LTP093	ltpFR	12	3	0	EMPEROR	529	n/a	n/a	0	n/a	0	0	0	n/a	n/a	n/a	n/a	n/a
863360	REC_WORD	wordpools/wasnorm_wordpool.txt	LTP093	ltpFR	12	3	0	DICTATOR	462	n/a	n/a	0	n/a	0	0	0	n/a	n/a	n/a	n/a	n/a
866353	REC_WORD	wordpools/wasnorm_wordpool.txt	LTP093	ltpFR	12	3	0	PEANUT	1032	n/a	n/a	0	n/a	0	0	0	n/a	n/a	n/a	n/a	n/a
867071	REC_WORD	wordpools/wasnorm_wordpool.txt	LTP093	ltpFR	12	3	0	NUT	965	n/a	n/a	0	n/a	0	0	0	n/a	n/a	n/a	n/a	n/a
868134	REC_WORD_VV	wordpools/wasnorm_wordpool.txt	LTP093	ltpFR	12	3	n/a	<>	-1	n/a	n/a	n/a	n/a	0	0	0	n/a	n/a	n/a	n/a	n/a
876779	REC_WORD	wordpools/wasnorm_wordpool.txt	LTP093	ltpFR	12	3	0	MARS	873	n/a	n/a	0	n/a	0	0	0	n/a	n/a	n/a	n/a	n/a
879114	REC_WORD	wordpools/wasnorm_wordpool.txt	LTP093	ltpFR	12	3	0	POWDER	1117	n/a	n/a	1	n/a	0	0	0	n/a	n/a	n/a	n/a	n/a
886467	REC_WORD	wordpools/wasnorm_wordpool.txt	LTP093	ltpFR	12	3	0	ARCHITECT	36	n/a	n/a	1	n/a	0	0	0	n/a	n/a	n/a	n/a	n/a
1071352	START	n/a	LTP093	ltpFR	12	n/a	n/a	n/a	n/a	n/a	n/a	n/a	n/a	n/a	n/a	n/a	n/a	n/a	n/a	n/a	n/a
1072858	PROB	n/a	LTP093	ltpFR	12	n/a	n/a	n/a	n/a	n/a	n/a	n/a	14	5	4	5	n/a	n/a	n/a	n/a	n/a
1074234	PROB	n/a	LTP093	ltpFR	12	n/a	n/a	n/a	n/a	n/a	n/a	n/a	11	6	3	2	n/a	n/a	n/a	n/a	n/a
1075933	PROB	n/a	LTP093	ltpFR	12	n/a	n/a	n/a	n/a	n/a	n/a	n/a	9	5	1	3	n/a	n/a	n/a	n/a	n/a
1078576	PROB	n/a	LTP093	ltpFR	12	n/a	n/a	n/a	n/a	n/a	n/a	n/a	6	2	1	3	n/a	n/a	n/a	n/a	n/a
1079775	PROB	n/a	LTP093	ltpFR	12	n/a	n/a	n/a	n/a	n/a	n/a	n/a	23	6	8	9	n/a	n/a	n/a	n/a	n/a
1082949	PROB	n/a	LTP093	ltpFR	12	n/a	n/a	n/a	n/a	n/a	n/a	n/a	15	7	2	6	n/a	n/a	n/a	n/a	n/a
1084658	PROB	n/a	LTP093	ltpFR	12	n/a	n/a	n/a	n/a	n/a	n/a	n/a	20	6	9	5	n/a	n/a	n/a	n/a	n/a
1087031	STOP	n/a	LTP093	ltpFR	12	n/a	n/a	n/a	n/a	n/a	n/a	n/a	n/a	n/a	n/a	n/a	n/a	n/a	n/a	n/a	n/a
1088558	WORD	wordpools/wasnorm_wordpool.txt	LTP093	ltpFR	12	4	1	FIGHTER	564	n/a	n/a	1	n/a	0	0	0	0.57763671875	0.412841796875	1	upper	zerothre.ttf
1091567	START	n/a	LTP093	ltpFR	12	n/a	n/a	n/a	n/a	n/a	n/a	n/a	n/a	n/a	n/a	n/a	n/a	n/a	n/a	n/a	n/a
1092391	PROB	n/a	LTP093	ltpFR	12	n/a	n/a	n/a	n/a	n/a	n/a	n/a	19	6	5	8	n/a	n/a	n/a	n/a	n/a
1094674	PROB	n/a	LTP093	ltpFR	12	n/a	n/a	n/a	n/a	n/a	n/a	n/a	8	1	6	1	n/a	n/a	n/a	n/a	n/a
1095691	PROB	n/a	LTP093	ltpFR	12	n/a	n/a	n/a	n/a	n/a	n/a	n/a	16	1	6	6	n/a	n/a	n/a	n/a	n/a
1097107	PROB	n/a	LTP093	ltpFR	12	n/a	n/a	n/a	n/a	n/a	n/a	n/a	16	4	4	8	n/a	n/a	n/a	n/a	n/a
1098881	PROB	n/a	LTP093	ltpFR	12	n/a	n/a	n/a	n/a	n/a	n/a	n/a	8	3	1	4	n/a	n/a	n/a	n/a	n/a
1100516	PROB	n/a	LTP093	ltpFR	12	n/a	n/a	n/a	n/a	n/a	n/a	n/a	10	1	8	1	n/a	n/a	n/a	n/a	n/a
1101906	PROB	n/a	LTP093	ltpFR	12	n/a	n/a	n/a	n/a	n/a	n/a	n/a	19	9	1	9	n/a	n/a	n/a	n/a	n/a
1103340	PROB	n/a	LTP093	ltpFR	12	n/a	n/a	n/a	n/a	n/a	n/a	n/a	178	6	4	7	n/a	n/a	n/a	n/a	n/a
1104674	PROB	n/a	LTP093	ltpFR	12	n/a	n/a	n/a	n/a	n/a	n/a	n/a	8	1	1	6	n/a	n/a	n/a	n/a	n/a
1106128	STOP	n/a	LTP093	ltpFR	12	n/a	n/a	n/a	n/a	n/a	n/a	n/a	n/a	n/a	n/a	n/a	n/a	n/a	n/a	n/a	n/a
1108623	WORD	wordpools/wasnorm_wordpool.txt	LTP093	ltpFR	12	4	1	MESSAGE	888	n/a	n/a	0	n/a	0	0	0	0.57763671875	0.412841796875	1	upper	zerothre.ttf
1111632	START	n/a	LTP093	ltpFR	12	n/a	n/a	n/a	n/a	n/a	n/a	n/a	n/a	n/a	n/a	n/a	n/a	n/a	n/a	n/a	n/a
1112805	PROB	n/a	LTP093	ltpFR	12	n/a	n/a	n/a	n/a	n/a	n/a	n/a	20	6	6	8	n/a	n/a	n/a	n/a	n/a
1114590	PROB	n/a	LTP093	ltpFR	12	n/a	n/a	n/a	n/a	n/a	n/a	n/a	19	5	9	5	n/a	n/a	n/a	n/a	n/a
1115830	PROB	n/a	LTP093	ltpFR	12	n/a	n/a	n/a	n/a	n/a	n/a	n/a	10	3	4	3	n/a	n/a	n/a	n/a	n/a
1117723	PROB	n/a	LTP093	ltpFR	12	n/a	n/a	n/a	n/a	n/a	n/a	n/a	11	4	3	4	n/a	n/a	n/a	n/a	n/a
1119780	PROB	n/a	LTP093	ltpFR	12	n/a	n/a	n/a	n/a	n/a	n/a	n/a	10	5	1	4	n/a	n/a	n/a	n/a	n/a
1122647	PROB	n/a	LTP093	ltpFR	12	n/a	n/a	n/a	n/a	n/a	n/a	n/a	14	2	6	6	n/a	n/a	n/a	n/a	n/a
1124038	PROB	n/a	LTP093	ltpFR	12	n/a	n/a	n/a	n/a	n/a	n/a	n/a	19	4	6	9	n/a	n/a	n/a	n/a	n/a
1127632	STOP	n/a	LTP093	ltpFR	12	n/a	n/a	n/a	n/a	n/a	n/a	n/a	n/a	n/a	n/a	n/a	n/a	n/a	n/a	n/a	n/a
1128547	WORD	wordpools/wasnorm_wordpool.txt	LTP093	ltpFR	12	4	1	SARDINE	1235	n/a	n/a	1	n/a	0	0	0	0.57763671875	0.412841796875	1	upper	zerothre.ttf
1131555	START	n/a	LTP093	ltpFR	12	n/a	n/a	n/a	n/a	n/a	n/a	n/a	n/a	n/a	n/a	n/a	n/a	n/a	n/a	n/a	n/a
1132480	PROB	n/a	LTP093	ltpFR	12	n/a	n/a	n/a	n/a	n/a	n/a	n/a	19	6	5	8	n/a	n/a	n/a	n/a	n/a
1134187	PROB	n/a	LTP093	ltpFR	12	n/a	n/a	n/a	n/a	n/a	n/a	n/a	19	9	4	6	n/a	n/a	n/a	n/a	n/a
1135555	PROB	n/a	LTP093	ltpFR	12	n/a	n/a	n/a	n/a	n/a	n/a	n/a	18	7	2	9	n/a	n/a	n/a	n/a	n/a
1137012	PROB	n/a	LTP093	ltpFR	12	n/a	n/a	n/a	n/a	n/a	n/a	n/a	19	2	8	9	n/a	n/a	n/a	n/a	n/a
1138762	PROB	n/a	LTP093	ltpFR	12	n/a	n/a	n/a	n/a	n/a	n/a	n/a	17	7	5	5	n/a	n/a	n/a	n/a	n/a
1139887	PROB	n/a	LTP093	ltpFR	12	n/a	n/a	n/a	n/a	n/a	n/a	n/a	23	8	9	6	n/a	n/a	n/a	n/a	n/a
1144379	PROB	n/a	LTP093	ltpFR	12	n/a	n/a	n/a	n/a	n/a	n/a	n/a	19	8	6	5	n/a	n/a	n/a	n/a	n/a
1147555	STOP	n/a	LTP093	ltpFR	12	n/a	n/a	n/a	n/a	n/a	n/a	n/a	n/a	n/a	n/a	n/a	n/a	n/a	n/a	n/a	n/a
1148404	WORD	wordpools/wasnorm_wordpool.txt	LTP093	ltpFR	12	4	1	DRESSER	496	n/a	n/a	0	n/a	0	0	0	0.57763671875	0.412841796875	1	upper	zerothre.ttf
1151412	START	n/a	LTP093	ltpFR	12	n/a	n/a	n/a	n/a	n/a	n/a	n/a	n/a	n/a	n/a	n/a	n/a	n/a	n/a	n/a	n/a
1152578	PROB	n/a	LTP093	ltpFR	12	n/a	n/a	n/a	n/a	n/a	n/a	n/a	12	9	1	2	n/a	n/a	n/a	n/a	n/a
1153794	PROB	n/a	LTP093	ltpFR	12	n/a	n/a	n/a	n/a	n/a	n/a	n/a	18	8	6	4	n/a	n/a	n/a	n/a	n/a
1155777	PROB	n/a	LTP093	ltpFR	12	n/a	n/a	n/a	n/a	n/a	n/a	n/a	25	7	9	9	n/a	n/a	n/a	n/a	n/a
1158818	PROB	n/a	LTP093	ltpFR	12	n/a	n/a	n/a	n/a	n/a	n/a	n/a	12	2	6	4	n/a	n/a	n/a	n/a	n/a
1161143	PROB	n/a	LTP093	ltpFR	12	n/a	n/a	n/a	n/a	n/a	n/a	n/a	17	3	9	5	n/a	n/a	n/a	n/a	n/a
1164219	PROB	n/a	LTP093	ltpFR	12	n/a	n/a	n/a	n/a	n/a	n/a	n/a	12	1	3	8	n/a	n/a	n/a	n/a	n/a
1166184	STOP	n/a	LTP093	ltpFR	12	n/a	n/a	n/a	n/a	n/a	n/a	n/a	n/a	n/a	n/a	n/a	n/a	n/a	n/a	n/a	n/a
1168460	WORD	wordpools/wasnorm_wordpool.txt	LTP093	ltpFR	12	4	0	TUTU	1524	n/a	n/a	0	n/a	0	0	0	0.422607421875	0.5869140625	0	lower	amplitud.ttf
1171461	START	n/a	LTP093	ltpFR	12	n/a	n/a	n/a	n/a	n/a	n/a	n/a	n/a	n/a	n/a	n/a	n/a	n/a	n/a	n/a	n/a
1172593	PROB	n/a	LTP093	ltpFR	12	n/a	n/a	n/a	n/a	n/a	n/a	n/a	20	7	8	5	n/a	n/a	n/a	n/a	n/a
1175501	PROB	n/a	LTP093	ltpFR	12	n/a	n/a	n/a	n/a	n/a	n/a	n/a	14	4	2	8	n/a	n/a	n/a	n/a	n/a
1177585	PROB	n/a	LTP093	ltpFR	12	n/a	n/a	n/a	n/a	n/a	n/a	n/a	27	9	9	9	n/a	n/a	n/a	n/a	n/a
1180243	PROB	n/a	LTP093	ltpFR	12	n/a	n/a	n/a	n/a	n/a	n/a	n/a	17	9	6	2	n/a	n/a	n/a	n/a	n/a
1187461	STOP	n/a	LTP093	ltpFR	12	n/a	n/a	n/a	n/a	n/a	n/a	n/a	n/a	n/a	n/a	n/a	n/a	n/a	n/a	n/a	n/a
1188300	WORD	wordpools/wasnorm_wordpool.txt	LTP093	ltpFR	12	4	0	INSTRUCTOR	741	n/a	n/a	0	n/a	0	0	0	0.422607421875	0.5869140625	0	lower	amplitud.ttf
1191301	START	n/a	LTP093	ltpFR	12	n/a	n/a	n/a	n/a	n/a	n/a	n/a	n/a	n/a	n/a	n/a	n/a	n/a	n/a	n/a	n/a
1192108	PROB	n/a	LTP093	ltpFR	12	n/a	n/a	n/a	n/a	n/a	n/a	n/a	15	1	7	9	n/a	n/a	n/a	n/a	n/a
1194182	PROB	n/a	LTP093	ltpFR	12	n/a	n/a	n/a	n/a	n/a	n/a	n/a	24	7	9	8	n/a	n/a	n/a	n/a	n/a
1197790	PROB	n/a	LTP093	ltpFR	12	n/a	n/a	n/a	n/a	n/a	n/a	n/a	13	5	3	5	n/a	n/a	n/a	n/a	n/a
1199425	PROB	n/a	LTP093	ltpFR	12	n/a	n/a	n/a	n/a	n/a	n/a	n/a	10	3	3	4	n/a	n/a	n/a	n/a	n/a
1201798	PROB	n/a	LTP093	ltpFR	12	n/a	n/a	n/a	n/a	n/a	n/a	n/a	18	4	6	8	n/a	n/a	n/a	n/a	n/a
1203199	PROB	n/a	LTP093	ltpFR	12	n/a	n/a	n/a	n/a	n/a	n/a	n/a	12	1	6	4	n/a	n/a	n/a	n/a	n/a
1207301	STOP	n/a	LTP093	ltpFR	12	n/a	n/a	n/a	n/a	n/a	n/a	n/a	n/a	n/a	n/a	n/a	n/a	n/a	n/a	n/a	n/a
1208156	WORD	wordpools/wasnorm_wordpool.txt	LTP093	ltpFR	12	4	0	PERCH	1048	n/a	n/a	0	n/a	0	0	0	0.422607421875	0.5869140625	0	lower	amplitud.ttf
1211156	START	n/a	LTP093	ltpFR	12	n/a	n/a	n/a	n/a	n/a	n/a	n/a	n/a	n/a	n/a	n/a	n/a	n/a	n/a	n/a	n/a
1212224	PROB	n/a	LTP093	ltpFR	12	n/a	n/a	n/a	n/a	n/a	n/a	n/a	15	7	6	2	n/a	n/a	n/a	n/a	n/a
1214147	PROB	n/a	LTP093	ltpFR	12	n/a	n/a	n/a	n/a	n/a	n/a	n/a	13	9	1	3	n/a	n/a	n/a	n/a	n/a
1215398	PROB	n/a	LTP093	ltpFR	12	n/a	n/a	n/a	n/a	n/a	n/a	n/a	22	9	4	9	n/a	n/a	n/a	n/a	n/a
1217797	PROB	n/a	LTP093	ltpFR	12	n/a	n/a	n/a	n/a	n/a	n/a	n/a	17	9	5	3	n/a	n/a	n/a	n/a	n/a
1219747	PROB	n/a	LTP093	ltpFR	12	n/a	n/a	n/a	n/a	n/a	n/a	n/a	18	9	7	2	n/a	n/a	n/a	n/a	n/a
1221465	PROB	n/a	LTP093	ltpFR	12	n/a	n/a	n/a	n/a	n/a	n/a	n/a	9	7	1	1	n/a	n/a	n/a	n/a	n/a
1222573	PROB	n/a	LTP093	ltpFR	12	n/a	n/a	n/a	n/a	n/a	n/a	n/a	17	5	6	6	n/a	n/a	n/a	n/a	n/a
1224564	PROB	n/a	LTP093	ltpFR	12	n/a	n/a	n/a	n/a	n/a	n/a	n/a	19	8	4	7	n/a	n/a	n/a	n/a	n/a
1226201	STOP	n/a	LTP093	ltpFR	12	n/a	n/a	n/a	n/a	n/a	n/a	n/a	n/a	n/a	n/a	n/a	n/a	n/a	n/a	n/a	n/a
1228138	WORD	wordpools/wasnorm_wordpool.txt	LTP093	ltpFR	12	4	0	ROOSTER	1209	n/a	n/a	0	n/a	0	0	0	0.422607421875	0.5869140625	0	lower	amplitud.ttf
1231147	START	n/a	LTP093	ltpFR	12	n/a	n/a	n/a	n/a	n/a	n/a	n/a	n/a	n/a	n/a	n/a	n/a	n/a	n/a	n/a	n/a
1232163	PROB	n/a	LTP093	ltpFR	12	n/a	n/a	n/a	n/a	n/a	n/a	n/a	18	5	8	5	n/a	n/a	n/a	n/a	n/a
1233372	PROB	n/a	LTP093	ltpFR	12	n/a	n/a	n/a	n/a	n/a	n/a	n/a	16	2	7	7	n/a	n/a	n/a	n/a	n/a
1235079	PROB	n/a	LTP093	ltpFR	12	n/a	n/a	n/a	n/a	n/a	n/a	n/a	13	3	6	4	n/a	n/a	n/a	n/a	n/a
1237663	PROB	n/a	LTP093	ltpFR	12	n/a	n/a	n/a	n/a	n/a	n/a	n/a	16	7	8	7	n/a	n/a	n/a	n/a	n/a
1240480	PROB	n/a	LTP093	ltpFR	12	n/a	n/a	n/a	n/a	n/a	n/a	n/a	16	6	7	3	n/a	n/a	n/a	n/a	n/a
1244012	PROB	n/a	LTP093	ltpFR	12	n/a	n/a	n/a	n/a	n/a	n/a	n/a	12	4	4	4	n/a	n/a	n/a	n/a	n/a
1245304	PROB	n/a	LTP093	ltpFR	12	n/a	n/a	n/a	n/a	n/a	n/a	n/a	11	4	3	4	n/a	n/a	n/a	n/a	n/a
1246768	STOP	n/a	LTP093	ltpFR	12	n/a	n/a	n/a	n/a	n/a	n/a	n/a	n/a	n/a	n/a	n/a	n/a	n/a	n/a	n/a	n/a
1248346	WORD	wordpools/wasnorm_wordpool.txt	LTP093	ltpFR	12	4	1	ENVELOPE	537	n/a	n/a	0	n/a	0	0	0	0.57763671875	0.412841796875	1	upper	zerothre.ttf
1251354	START	n/a	LTP093	ltpFR	12	n/a	n/a	n/a	n/a	n/a	n/a	n/a	n/a	n/a	n/a	n/a	n/a	n/a	n/a	n/a	n/a
1252329	PROB	n/a	LTP093	ltpFR	12	n/a	n/a	n/a	n/a	n/a	n/a	n/a	12	6	3	3	n/a	n/a	n/a	n/a	n/a
1253761	PROB	n/a	LTP093	ltpFR	12	n/a	n/a	n/a	n/a	n/a	n/a	n/a	17	1	8	8	n/a	n/a	n/a	n/a	n/a
1255337	PROB	n/a	LTP093	ltpFR	12	n/a	n/a	n/a	n/a	n/a	n/a	n/a	17	3	7	7	n/a	n/a	n/a	n/a	n/a
1257562	PROB	n/a	LTP093	ltpFR	12	n/a	n/a	n/a	n/a	n/a	n/a	n/a	8	1	1	6	n/a	n/a	n/a	n/a	n/a
1258612	PROB	n/a	LTP093	ltpFR	12	n/a	n/a	n/a	n/a	n/a	n/a	n/a	14	2	9	3	n/a	n/a	n/a	n/a	n/a
1261211	PROB	n/a	LTP093	ltpFR	12	n/a	n/a	n/a	n/a	n/a	n/a	n/a	11	1	6	4	n/a	n/a	n/a	n/a	n/a
1262436	PROB	n/a	LTP093	ltpFR	12	n/a	n/a	n/a	n/a	n/a	n/a	n/a	21	8	8	5	n/a	n/a	n/a	n/a	n/a
1264044	PROB	n/a	LTP093	ltpFR	12	n/a	n/a	n/a	n/a	n/a	n/a	n/a	14	1	7	6	n/a	n/a	n/a	n/a	n/a
1266465	STOP	n/a	LTP093	ltpFR	12	n/a	n/a	n/a	n/a	n/a	n/a	n/a	n/a	n/a	n/a	n/a	n/a	n/a	n/a	n/a	n/a
1268185	WORD	wordpools/wasnorm_wordpool.txt	LTP093	ltpFR	12	4	1	MONARCH	906	n/a	n/a	1	n/a	0	0	0	0.57763671875	0.412841796875	1	upper	zerothre.ttf
1271193	START	n/a	LTP093	ltpFR	12	n/a	n/a	n/a	n/a	n/a	n/a	n/a	n/a	n/a	n/a	n/a	n/a	n/a	n/a	n/a	n/a
1272068	PROB	n/a	LTP093	ltpFR	12	n/a	n/a	n/a	n/a	n/a	n/a	n/a	17	2	9	6	n/a	n/a	n/a	n/a	n/a
1273868	PROB	n/a	LTP093	ltpFR	12	n/a	n/a	n/a	n/a	n/a	n/a	n/a	19	9	8	2	n/a	n/a	n/a	n/a	n/a
1275219	PROB	n/a	LTP093	ltpFR	12	n/a	n/a	n/a	n/a	n/a	n/a	n/a	17	6	3	8	n/a	n/a	n/a	n/a	n/a
1277419	PROB	n/a	LTP093	ltpFR	12	n/a	n/a	n/a	n/a	n/a	n/a	n/a	20	9	3	8	n/a	n/a	n/a	n/a	n/a
1279677	PROB	n/a	LTP093	ltpFR	12	n/a	n/a	n/a	n/a	n/a	n/a	n/a	11	1	4	6	n/a	n/a	n/a	n/a	n/a
1281368	PROB	n/a	LTP093	ltpFR	12	n/a	n/a	n/a	n/a	n/a	n/a	n/a	19	7	6	6	n/a	n/a	n/a	n/a	n/a
1282901	PROB	n/a	LTP093	ltpFR	12	n/a	n/a	n/a	n/a	n/a	n/a	n/a	17	1	7	9	n/a	n/a	n/a	n/a	n/a
1286880	STOP	n/a	LTP093	ltpFR	12	n/a	n/a	n/a	n/a	n/a	n/a	n/a	n/a	n/a	n/a	n/a	n/a	n/a	n/a	n/a	n/a
1288268	WORD	wordpools/wasnorm_wordpool.txt	LTP093	ltpFR	12	4	0	CROWN	415	n/a	n/a	0	n/a	0	0	0	0.422607421875	0.5869140625	0	lower	amplitud.ttf
1291276	START	n/a	LTP093	ltpFR	12	n/a	n/a	n/a	n/a	n/a	n/a	n/a	n/a	n/a	n/a	n/a	n/a	n/a	n/a	n/a	n/a
1292276	PROB	n/a	LTP093	ltpFR	12	n/a	n/a	n/a	n/a	n/a	n/a	n/a	8	2	1	5	n/a	n/a	n/a	n/a	n/a
1293634	PROB	n/a	LTP093	ltpFR	12	n/a	n/a	n/a	n/a	n/a	n/a	n/a	13	1	8	4	n/a	n/a	n/a	n/a	n/a
1295284	PROB	n/a	LTP093	ltpFR	12	n/a	n/a	n/a	n/a	n/a	n/a	n/a	15	1	7	7	n/a	n/a	n/a	n/a	n/a
1297334	PROB	n/a	LTP093	ltpFR	12	n/a	n/a	n/a	n/a	n/a	n/a	n/a	15	5	1	9	n/a	n/a	n/a	n/a	n/a
1299024	PROB	n/a	LTP093	ltpFR	12	n/a	n/a	n/a	n/a	n/a	n/a	n/a	12	4	6	2	n/a	n/a	n/a	n/a	n/a
1301442	PROB	n/a	LTP093	ltpFR	12	n/a	n/a	n/a	n/a	n/a	n/a	n/a	18	9	3	6	n/a	n/a	n/a	n/a	n/a
1304625	PROB	n/a	LTP093	ltpFR	12	n/a	n/a	n/a	n/a	n/a	n/a	n/a	23	5	9	9	n/a	n/a	n/a	n/a	n/a
1306601	STOP	n/a	LTP093	ltpFR	12	n/a	n/a	n/a	n/a	n/a	n/a	n/a	n/a	n/a	n/a	n/a	n/a	n/a	n/a	n/a	n/a
1308458	WORD	wordpools/wasnorm_wordpool.txt	LTP093	ltpFR	12	4	0	WARDROBE	1587	n/a	n/a	0	n/a	0	0	0	0.422607421875	0.5869140625	0	lower	amplitud.ttf
1311466	START	n/a	LTP093	ltpFR	12	n/a	n/a	n/a	n/a	n/a	n/a	n/a	n/a	n/a	n/a	n/a	n/a	n/a	n/a	n/a	n/a
1312532	PROB	n/a	LTP093	ltpFR	12	n/a	n/a	n/a	n/a	n/a	n/a	n/a	9	4	2	3	n/a	n/a	n/a	n/a	n/a
1315906	PROB	n/a	LTP093	ltpFR	12	n/a	n/a	n/a	n/a	n/a	n/a	n/a	17	6	4	7	n/a	n/a	n/a	n/a	n/a
1317665	PROB	n/a	LTP093	ltpFR	12	n/a	n/a	n/a	n/a	n/a	n/a	n/a	12	2	9	1	n/a	n/a	n/a	n/a	n/a
1318748	PROB	n/a	LTP093	ltpFR	12	n/a	n/a	n/a	n/a	n/a	n/a	n/a	12	4	3	5	n/a	n/a	n/a	n/a	n/a
1321540	PROB	n/a	LTP093	ltpFR	12	n/a	n/a	n/a	n/a	n/a	n/a	n/a	13	4	8	1	n/a	n/a	n/a	n/a	n/a
1323739	PROB	n/a	LTP093	ltpFR	12	n/a	n/a	n/a	n/a	n/a	n/a	n/a	18	6	3	9	n/a	n/a	n/a	n/a	n/a
1325282	PROB	n/a	LTP093	ltpFR	12	n/a	n/a	n/a	n/a	n/a	n/a	n/a	17	8	4	5	n/a	n/a	n/a	n/a	n/a
1326888	STOP	n/a	LTP093	ltpFR	12	n/a	n/a	n/a	n/a	n/a	n/a	n/a	n/a	n/a	n/a	n/a	n/a	n/a	n/a	n/a	n/a
1328381	WORD	wordpools/wasnorm_wordpool.txt	LTP093	ltpFR	12	4	0	INDIAN	736	n/a	n/a	0	n/a	0	0	0	0.422607421875	0.5869140625	0	lower	amplitud.ttf
1331381	START	n/a	LTP093	ltpFR	12	n/a	n/a	n/a	n/a	n/a	n/a	n/a	n/a	n/a	n/a	n/a	n/a	n/a	n/a	n/a	n/a
1332381	PROB	n/a	LTP093	ltpFR	12	n/a	n/a	n/a	n/a	n/a	n/a	n/a	20	9	5	6	n/a	n/a	n/a	n/a	n/a
1334364	PROB	n/a	LTP093	ltpFR	12	n/a	n/a	n/a	n/a	n/a	n/a	n/a	21	3	9	9	n/a	n/a	n/a	n/a	n/a
1336088	PROB	n/a	LTP093	ltpFR	12	n/a	n/a	n/a	n/a	n/a	n/a	n/a	16	1	8	7	n/a	n/a	n/a	n/a	n/a
1338214	PROB	n/a	LTP093	ltpFR	12	n/a	n/a	n/a	n/a	n/a	n/a	n/a	24	7	8	8	n/a	n/a	n/a	n/a	n/a
1341239	PROB	n/a	LTP093	ltpFR	12	n/a	n/a	n/a	n/a	n/a	n/a	n/a	18	5	4	9	n/a	n/a	n/a	n/a	n/a
1343738	PROB	n/a	LTP093	ltpFR	12	n/a	n/a	n/a	n/a	n/a	n/a	n/a	6	2	1	3	n/a	n/a	n/a	n/a	n/a
1344937	PROB	n/a	LTP093	ltpFR	12	n/a	n/a	n/a	n/a	n/a	n/a	n/a	16	4	5	7	n/a	n/a	n/a	n/a	n/a
1346800	STOP	n/a	LTP093	ltpFR	12	n/a	n/a	n/a	n/a	n/a	n/a	n/a	n/a	n/a	n/a	n/a	n/a	n/a	n/a	n/a	n/a
1348555	WORD	wordpools/wasnorm_wordpool.txt	LTP093	ltpFR	12	4	0	THUMB	1462	n/a	n/a	0	n/a	0	0	0	0.422607421875	0.5869140625	0	lower	amplitud.ttf
1351563	START	n/a	LTP093	ltpFR	12	n/a	n/a	n/a	n/a	n/a	n/a	n/a	n/a	n/a	n/a	n/a	n/a	n/a	n/a	n/a	n/a
1352646	PROB	n/a	LTP093	ltpFR	12	n/a	n/a	n/a	n/a	n/a	n/a	n/a	16	5	2	9	n/a	n/a	n/a	n/a	n/a
1355162	PROB	n/a	LTP093	ltpFR	12	n/a	n/a	n/a	n/a	n/a	n/a	n/a	16	8	3	5	n/a	n/a	n/a	n/a	n/a
1357329	PROB	n/a	LTP093	ltpFR	12	n/a	n/a	n/a	n/a	n/a	n/a	n/a	9	5	2	2	n/a	n/a	n/a	n/a	n/a
1358712	PROB	n/a	LTP093	ltpFR	12	n/a	n/a	n/a	n/a	n/a	n/a	n/a	17	5	8	4	n/a	n/a	n/a	n/a	n/a
1361078	PROB	n/a	LTP093	ltpFR	12	n/a	n/a	n/a	n/a	n/a	n/a	n/a	14	6	2	6	n/a	n/a	n/a	n/a	n/a
1362570	PROB	n/a	LTP093	ltpFR	12	n/a	n/a	n/a	n/a	n/a	n/a	n/a	11	5	4	2	n/a	n/a	n/a	n/a	n/a
1367563	STOP	n/a	LTP093	ltpFR	12	n/a	n/a	n/a	n/a	n/a	n/a	n/a	n/a	n/a	n/a	n/a	n/a	n/a	n/a	n/a	n/a
1368420	WORD	wordpools/wasnorm_wordpool.txt	LTP093	ltpFR	12	4	1	HAMMER	680	n/a	n/a	0	n/a	0	0	0	0.57763671875	0.412841796875	1	upper	zerothre.ttf
1371428	START	n/a	LTP093	ltpFR	12	n/a	n/a	n/a	n/a	n/a	n/a	n/a	n/a	n/a	n/a	n/a	n/a	n/a	n/a	n/a	n/a
1372520	PROB	n/a	LTP093	ltpFR	12	n/a	n/a	n/a	n/a	n/a	n/a	n/a	15	3	3	9	n/a	n/a	n/a	n/a	n/a
1374143	PROB	n/a	LTP093	ltpFR	12	n/a	n/a	n/a	n/a	n/a	n/a	n/a	14	2	6	6	n/a	n/a	n/a	n/a	n/a
1375594	PROB	n/a	LTP093	ltpFR	12	n/a	n/a	n/a	n/a	n/a	n/a	n/a	18	9	5	4	n/a	n/a	n/a	n/a	n/a
1377010	PROB	n/a	LTP093	ltpFR	12	n/a	n/a	n/a	n/a	n/a	n/a	n/a	14	4	2	8	n/a	n/a	n/a	n/a	n/a
1379110	PROB	n/a	LTP093	ltpFR	12	n/a	n/a	n/a	n/a	n/a	n/a	n/a	15	2	9	4	n/a	n/a	n/a	n/a	n/a
1380768	PROB	n/a	LTP093	ltpFR	12	n/a	n/a	n/a	n/a	n/a	n/a	n/a	17	4	4	9	n/a	n/a	n/a	n/a	n/a
1382727	PROB	n/a	LTP093	ltpFR	12	n/a	n/a	n/a	n/a	n/a	n/a	n/a	8	1	2	5	n/a	n/a	n/a	n/a	n/a
1384801	PROB	n/a	LTP093	ltpFR	12	n/a	n/a	n/a	n/a	n/a	n/a	n/a	13	4	8	1	n/a	n/a	n/a	n/a	n/a
1387184	STOP	n/a	LTP093	ltpFR	12	n/a	n/a	n/a	n/a	n/a	n/a	n/a	n/a	n/a	n/a	n/a	n/a	n/a	n/a	n/a	n/a
1388502	WORD	wordpools/wasnorm_wordpool.txt	LTP093	ltpFR	12	4	1	COMPASS	358	n/a	n/a	0	n/a	0	0	0	0.57763671875	0.412841796875	1	upper	zerothre.ttf
1391510	START	n/a	LTP093	ltpFR	12	n/a	n/a	n/a	n/a	n/a	n/a	n/a	n/a	n/a	n/a	n/a	n/a	n/a	n/a	n/a	n/a
1392435	PROB	n/a	LTP093	ltpFR	12	n/a	n/a	n/a	n/a	n/a	n/a	n/a	17	7	9	1	n/a	n/a	n/a	n/a	n/a
1393750	PROB	n/a	LTP093	ltpFR	12	n/a	n/a	n/a	n/a	n/a	n/a	n/a	16	7	6	3	n/a	n/a	n/a	n/a	n/a
1396842	PROB	n/a	LTP093	ltpFR	12	n/a	n/a	n/a	n/a	n/a	n/a	n/a	13	4	2	7	n/a	n/a	n/a	n/a	n/a
1400334	PROB	n/a	LTP093	ltpFR	12	n/a	n/a	n/a	n/a	n/a	n/a	n/a	20	7	5	8	n/a	n/a	n/a	n/a	n/a
1402584	PROB	n/a	LTP093	ltpFR	12	n/a	n/a	n/a	n/a	n/a	n/a	n/a	14	4	3	7	n/a	n/a	n/a	n/a	n/a
1404634	PROB	n/a	LTP093	ltpFR	12	n/a	n/a	n/a	n/a	n/a	n/a	n/a	14	4	5	5	n/a	n/a	n/a	n/a	n/a
1407510	STOP	n/a	LTP093	ltpFR	12	n/a	n/a	n/a	n/a	n/a	n/a	n/a	n/a	n/a	n/a	n/a	n/a	n/a	n/a	n/a	n/a
1409359	REC_START	n/a	LTP093	ltpFR	12	4	n/a	n/a	n/a	n/a	n/a	n/a	n/a	0	0	0	n/a	n/a	n/a	n/a	n/a
1410970	REC_WORD	wordpools/wasnorm_wordpool.txt	LTP093	ltpFR	12	4	1	COMPASS	358	n/a	n/a	0	n/a	0	0	0	n/a	n/a	n/a	n/a	n/a
1437575	REC_WORD	wordpools/wasnorm_wordpool.txt	LTP093	ltpFR	12	4	0	TUTU	1524	n/a	n/a	0	n/a	0	0	0	n/a	n/a	n/a	n/a	n/a
1438208	REC_WORD	wordpools/wasnorm_wordpool.txt	LTP093	ltpFR	12	4	0	CROWN	415	n/a	n/a	0	n/a	0	0	0	n/a	n/a	n/a	n/a	n/a
1438842	REC_WORD	wordpools/wasnorm_wordpool.txt	LTP093	ltpFR	12	4	1	MONARCH	906	n/a	n/a	1	n/a	0	0	0	n/a	n/a	n/a	n/a	n/a
1443945	REC_WORD	wordpools/wasnorm_wordpool.txt	LTP093	ltpFR	12	4	0	WARDROBE	1587	n/a	n/a	0	n/a	0	0	0	n/a	n/a	n/a	n/a	n/a
1515625	WORD	wordpools/wasnorm_wordpool.txt	LTP093	ltpFR	12	5	0	SPINACH	1352	n/a	n/a	0	n/a	0	0	0	0.422607421875	0.5869140625	0	lower	amplitud.ttf
1519749	WORD	wordpools/wasnorm_wordpool.txt	LTP093	ltpFR	12	5	0	COLESLAW	344	n/a	n/a	0	n/a	0	0	0	0.422607421875	0.5869140625	0	lower	amplitud.ttf
1523608	WORD	wordpools/wasnorm_wordpool.txt	LTP093	ltpFR	12	5	0	TIGER	1467	n/a	n/a	1	n/a	0	0	0	0.422607421875	0.5869140625	0	lower	amplitud.ttf
1527557	WORD	wordpools/wasnorm_wordpool.txt	LTP093	ltpFR	12	5	0	WAREHOUSE	1588	n/a	n/a	1	n/a	0	0	0	0.422607421875	0.5869140625	0	lower	amplitud.ttf
1531391	WORD	wordpools/wasnorm_wordpool.txt	LTP093	ltpFR	12	5	0	POTATO	1115	n/a	n/a	0	n/a	0	0	0	0.422607421875	0.5869140625	0	lower	amplitud.ttf
1535274	WORD	wordpools/wasnorm_wordpool.txt	LTP093	ltpFR	12	5	0	THICKET	1455	n/a	n/a	0	n/a	0	0	0	0.422607421875	0.5869140625	0	lower	amplitud.ttf
1539097	WORD	wordpools/wasnorm_wordpool.txt	LTP093	ltpFR	12	5	1	LION	827	n/a	n/a	1	n/a	0	0	0	0.57763671875	0.412841796875	1	upper	zerothre.ttf
1543105	WORD	wordpools/wasnorm_wordpool.txt	LTP093	ltpFR	12	5	1	VAGRANT	1544	n/a	n/a	1	n/a	0	0	0	0.57763671875	0.412841796875	1	upper	zerothre.ttf
1547155	WORD	wordpools/wasnorm_wordpool.txt	LTP093	ltpFR	12	5	1	BULL	193	n/a	n/a	1	n/a	0	0	0	0.57763671875	0.412841796875	1	upper	zerothre.ttf
1551272	WORD	wordpools/wasnorm_wordpool.txt	LTP093	ltpFR	12	5	0	CATTLE	261	n/a	n/a	1	n/a	0	0	0	0.422607421875	0.5869140625	0	lower	amplitud.ttf
1555289	WORD	wordpools/wasnorm_wordpool.txt	LTP093	ltpFR	12	5	0	OWL	992	n/a	n/a	0	n/a	0	0	0	0.422607421875	0.5869140625	0	lower	amplitud.ttf
1559347	WORD	wordpools/wasnorm_wordpool.txt	LTP093	ltpFR	12	5	1	CANDY	230	n/a	n/a	0	n/a	0	0	0	0.57763671875	0.412841796875	1	upper	zerothre.ttf
1563263	WORD	wordpools/wasnorm_wordpool.txt	LTP093	ltpFR	12	5	1	ACORN	3	n/a	n/a	0	n/a	0	0	0	0.57763671875	0.412841796875	1	upper	zerothre.ttf
1567128	WORD	wordpools/wasnorm_wordpool.txt	LTP093	ltpFR	12	5	1	BUILDER	190	n/a	n/a	1	n/a	0	0	0	0.57763671875	0.412841796875	1	upper	zerothre.ttf
1571011	WORD	wordpools/wasnorm_wordpool.txt	LTP093	ltpFR	12	5	1	DOORBELL	487	n/a	n/a	0	n/a	0	0	0	0.57763671875	0.412841796875	1	upper	zerothre.ttf
1574911	WORD	wordpools/wasnorm_wordpool.txt	LTP093	ltpFR	12	5	1	HINGE	709	n/a	n/a	0	n/a	0	0	0	0.57763671875	0.412841796875	1	upper	zerothre.ttf
1577920	START	n/a	LTP093	ltpFR	12	n/a	n/a	n/a	n/a	n/a	n/a	n/a	n/a	n/a	n/a	n/a	n/a	n/a	n/a	n/a	n/a
1579019	PROB	n/a	LTP093	ltpFR	12	n/a	n/a	n/a	n/a	n/a	n/a	n/a	18	9	4	5	n/a	n/a	n/a	n/a	n/a
1580620	PROB	n/a	LTP093	ltpFR	12	n/a	n/a	n/a	n/a	n/a	n/a	n/a	17	8	4	5	n/a	n/a	n/a	n/a	n/a
1582262	PROB	n/a	LTP093	ltpFR	12	n/a	n/a	n/a	n/a	n/a	n/a	n/a	19	9	1	9	n/a	n/a	n/a	n/a	n/a
1584110	PROB	n/a	LTP093	ltpFR	12	n/a	n/a	n/a	n/a	n/a	n/a	n/a	8	5	1	2	n/a	n/a	n/a	n/a	n/a
1586752	PROB	n/a	LTP093	ltpFR	12	n/a	n/a	n/a	n/a	n/a	n/a	n/a	14	6	4	4	n/a	n/a	n/a	n/a	n/a
1588728	PROB	n/a	LTP093	ltpFR	12	n/a	n/a	n/a	n/a	n/a	n/a	n/a	15	1	9	5	n/a	n/a	n/a	n/a	n/a
1589885	PROB	n/a	LTP093	ltpFR	12	n/a	n/a	n/a	n/a	n/a	n/a	n/a	25	9	7	9	n/a	n/a	n/a	n/a	n/a
1592060	PROB	n/a	LTP093	ltpFR	12	n/a	n/a	n/a	n/a	n/a	n/a	n/a	17	8	7	2	n/a	n/a	n/a	n/a	n/a
1593888	STOP	n/a	LTP093	ltpFR	12	n/a	n/a	n/a	n/a	n/a	n/a	n/a	n/a	n/a	n/a	n/a	n/a	n/a	n/a	n/a	n/a
1595669	REC_START	n/a	LTP093	ltpFR	12	5	n/a	n/a	n/a	n/a	n/a	n/a	n/a	0	0	0	n/a	n/a	n/a	n/a	n/a
1596861	REC_WORD	wordpools/wasnorm_wordpool.txt	LTP093	ltpFR	12	5	0	THICKET	1455	n/a	n/a	0	n/a	0	0	0	n/a	n/a	n/a	n/a	n/a
1600263	REC_WORD	wordpools/wasnorm_wordpool.txt	LTP093	ltpFR	12	5	1	ACORN	3	n/a	n/a	0	n/a	0	0	0	n/a	n/a	n/a	n/a	n/a
1610904	REC_WORD	wordpools/wasnorm_wordpool.txt	LTP093	ltpFR	12	5	1	LION	827	n/a	n/a	1	n/a	0	0	0	n/a	n/a	n/a	n/a	n/a
1657379	REC_WORD	wordpools/wasnorm_wordpool.txt	LTP093	ltpFR	12	5	0	TIGER	1467	n/a	n/a	1	n/a	0	0	0	n/a	n/a	n/a	n/a	n/a
1658037	REC_WORD	wordpools/wasnorm_wordpool.txt	LTP093	ltpFR	12	5	0	WAREHOUSE	1588	n/a	n/a	1	n/a	0	0	0	n/a	n/a	n/a	n/a	n/a
1685487	WORD	wordpools/wasnorm_wordpool.txt	LTP093	ltpFR	12	6	1	MOSQUITO	917	n/a	n/a	0	n/a	0	0	0	0.57763671875	0.412841796875	1	upper	zerothre.ttf
1689687	WORD	wordpools/wasnorm_wordpool.txt	LTP093	ltpFR	12	6	1	SHIRT	1287	n/a	n/a	0	n/a	0	0	0	0.57763671875	0.412841796875	1	upper	zerothre.ttf
1693595	WORD	wordpools/wasnorm_wordpool.txt	LTP093	ltpFR	12	6	1	DESIGNER	451	n/a	n/a	0	n/a	0	0	0	0.57763671875	0.412841796875	1	upper	zerothre.ttf
1697469	WORD	wordpools/wasnorm_wordpool.txt	LTP093	ltpFR	12	6	1	SPIDER	1351	n/a	n/a	1	n/a	0	0	0	0.57763671875	0.412841796875	1	upper	zerothre.ttf
1701527	WORD	wordpools/wasnorm_wordpool.txt	LTP093	ltpFR	12	6	1	PIER	1063	n/a	n/a	0	n/a	0	0	0	0.57763671875	0.412841796875	1	upper	zerothre.ttf
1705360	WORD	wordpools/wasnorm_wordpool.txt	LTP093	ltpFR	12	6	1	SPONGE	1355	n/a	n/a	1	n/a	0	0	0	0.57763671875	0.412841796875	1	upper	zerothre.ttf
1709277	WORD	wordpools/wasnorm_wordpool.txt	LTP093	ltpFR	12	6	1	BUGLE	189	n/a	n/a	1	n/a	0	0	0	0.57763671875	0.412841796875	1	upper	zerothre.ttf
1713192	WORD	wordpools/wasnorm_wordpool.txt	LTP093	ltpFR	12	6	1	SHARK	1275	n/a	n/a	1	n/a	0	0	0	0.57763671875	0.412841796875	1	upper	zerothre.ttf
1717384	WORD	wordpools/wasnorm_wordpool.txt	LTP093	ltpFR	12	6	1	BOXER	160	n/a	n/a	0	n/a	0	0	0	0.57763671875	0.412841796875	1	upper	zerothre.ttf
1721417	WORD	wordpools/wasnorm_wordpool.txt	LTP093	ltpFR	12	6	1	HOUND	724	n/a	n/a	1	n/a	0	0	0	0.57763671875	0.412841796875	1	upper	zerothre.ttf
1725517	WORD	wordpools/wasnorm_wordpool.txt	LTP093	ltpFR	12	6	1	SAXOPHONE	1240	n/a	n/a	0	n/a	0	0	0	0.57763671875	0.412841796875	1	upper	zerothre.ttf
1729650	WORD	wordpools/wasnorm_wordpool.txt	LTP093	ltpFR	12	6	1	THIMBLE	1458	n/a	n/a	0	n/a	0	0	0	0.57763671875	0.412841796875	1	upper	zerothre.ttf
1733840	WORD	wordpools/wasnorm_wordpool.txt	LTP093	ltpFR	12	6	1	FOOTBALL	591	n/a	n/a	0	n/a	0	0	0	0.57763671875	0.412841796875	1	upper	zerothre.ttf
1737849	WORD	wordpools/wasnorm_wordpool.txt	LTP093	ltpFR	12	6	1	STADIUM	1364	n/a	n/a	0	n/a	0	0	0	0.57763671875	0.412841796875	1	upper	zerothre.ttf
1741981	WORD	wordpools/wasnorm_wordpool.txt	LTP093	ltpFR	12	6	1	WHEAT	1602	n/a	n/a	1	n/a	0	0	0	0.57763671875	0.412841796875	1	upper	zerothre.ttf
1746023	WORD	wordpools/wasnorm_wordpool.txt	LTP093	ltpFR	12	6	1	SHOULDER	1294	n/a	n/a	0	n/a	0	0	0	0.57763671875	0.412841796875	1	upper	zerothre.ttf
1751765	REC_START	n/a	LTP093	ltpFR	12	6	n/a	n/a	n/a	n/a	n/a	n/a	n/a	0	0	0	n/a	n/a	n/a	n/a	n/a
1752802	REC_WORD	wordpools/wasnorm_wordpool.txt	LTP093	ltpFR	12	6	1	SHOULDER	1294	n/a	n/a	0	n/a	0	0	0	n/a	n/a	n/a	n/a	n/a
1753800	REC_WORD	wordpools/wasnorm_wordpool.txt	LTP093	ltpFR	12	6	1	SHARK	1275	n/a	n/a	1	n/a	0	0	0	n/a	n/a	n/a	n/a	n/a
1754968	REC_WORD	wordpools/wasnorm_wordpool.txt	LTP093	ltpFR	12	6	1	STADIUM	1364	n/a	n/a	0	n/a	0	0	0	n/a	n/a	n/a	n/a	n/a
1756124	REC_WORD	wordpools/wasnorm_wordpool.txt	LTP093	ltpFR	12	6	1	FOOTBALL	591	n/a	n/a	0	n/a	0	0	0	n/a	n/a	n/a	n/a	n/a
1765284	REC_WORD	wordpools/wasnorm_wordpool.txt	LTP093	ltpFR	12	6	1	DESIGNER	451	n/a	n/a	0	n/a	0	0	0	n/a	n/a	n/a	n/a	n/a
1766456	REC_WORD	wordpools/wasnorm_wordpool.txt	LTP093	ltpFR	12	6	1	PIER	1063	n/a	n/a	0	n/a	0	0	0	n/a	n/a	n/a	n/a	n/a
1767973	REC_WORD	wordpools/wasnorm_wordpool.txt	LTP093	ltpFR	12	6	1	SPONGE	1355	n/a	n/a	1	n/a	0	0	0	n/a	n/a	n/a	n/a	n/a
1778135	REC_WORD	wordpools/wasnorm_wordpool.txt	LTP093	ltpFR	12	6	1	MOSQUITO	917	n/a	n/a	0	n/a	0	0	0	n/a	n/a	n/a	n/a	n/a
1984380	WORD	wordpools/wasnorm_wordpool.txt	LTP093	ltpFR	12	7	0	SIDING	1304	n/a	n/a	0	n/a	0	0	0	0.422607421875	0.5869140625	0	lower	amplitud.ttf
1988196	WORD	wordpools/wasnorm_wordpool.txt	LTP093	ltpFR	12	7	0	RIVER	1194	n/a	n/a	1	n/a	0	0	0	0.422607421875	0.5869140625	0	lower	amplitud.ttf
1992371	WORD	wordpools/wasnorm_wordpool.txt	LTP093	ltpFR	12	7	0	DINER	467	n/a	n/a	0	n/a	0	0	0	0.422607421875	0.5869140625	0	lower	amplitud.ttf
1996546	WORD	wordpools/wasnorm_wordpool.txt	LTP093	ltpFR	12	7	0	CREEK	404	n/a	n/a	0	n/a	0	0	0	0.422607421875	0.5869140625	0	lower	amplitud.ttf
2000687	WORD	wordpools/wasnorm_wordpool.txt	LTP093	ltpFR	12	7	0	DAM	436	n/a	n/a	1	n/a	0	0	0	0.422607421875	0.5869140625	0	lower	amplitud.ttf
2004612	WORD	wordpools/wasnorm_wordpool.txt	LTP093	ltpFR	12	7	0	SUBURB	1399	n/a	n/a	0	n/a	0	0	0	0.422607421875	0.5869140625	0	lower	amplitud.ttf
2008786	WORD	wordpools/wasnorm_wordpool.txt	LTP093	ltpFR	12	7	0	SWAN	1417	n/a	n/a	0	n/a	0	0	0	0.422607421875	0.5869140625	0	lower	amplitud.ttf
2012786	WORD	wordpools/wasnorm_wordpool.txt	LTP093	ltpFR	12	7	0	CARDINAL	244	n/a	n/a	0	n/a	0	0	0	0.422607421875	0.5869140625	0	lower	amplitud.ttf
2016885	WORD	wordpools/wasnorm_wordpool.txt	LTP093	ltpFR	12	7	0	BELL	118	n/a	n/a	0	n/a	0	0	0	0.422607421875	0.5869140625	0	lower	amplitud.ttf
2020777	WORD	wordpools/wasnorm_wordpool.txt	LTP093	ltpFR	12	7	0	PARSLEY	1016	n/a	n/a	0	n/a	0	0	0	0.422607421875	0.5869140625	0	lower	amplitud.ttf
2024926	WORD	wordpools/wasnorm_wordpool.txt	LTP093	ltpFR	12	7	0	BEET	115	n/a	n/a	0	n/a	0	0	0	0.422607421875	0.5869140625	0	lower	amplitud.ttf
2028968	WORD	wordpools/wasnorm_wordpool.txt	LTP093	ltpFR	12	7	0	RING	1193	n/a	n/a	0	n/a	0	0	0	0.422607421875	0.5869140625	0	lower	amplitud.ttf
2032926	WORD	wordpools/wasnorm_wordpool.txt	LTP093	ltpFR	12	7	0	BRIDGE	174	n/a	n/a	0	n/a	0	0	0	0.422607421875	0.5869140625	0	lower	amplitud.ttf
2036934	WORD	wordpools/wasnorm_wordpool.txt	LTP093	ltpFR	12	7	0	BANANA	77	n/a	n/a	0	n/a	0	0	0	0.422607421875	0.5869140625	0	lower	amplitud.ttf
2041050	WORD	wordpools/wasnorm_wordpool.txt	LTP093	ltpFR	12	7	0	BOTTLE	153	n/a	n/a	0	n/a	0	0	0	0.422607421875	0.5869140625	0	lower	amplitud.ttf
2045008	WORD	wordpools/wasnorm_wordpool.txt	LTP093	ltpFR	12	7	0	WAVE	1596	n/a	n/a	0	n/a	0	0	0	0.422607421875	0.5869140625	0	lower	amplitud.ttf
2048016	START	n/a	LTP093	ltpFR	12	n/a	n/a	n/a	n/a	n/a	n/a	n/a	n/a	n/a	n/a	n/a	n/a	n/a	n/a	n/a	n/a
2048916	PROB	n/a	LTP093	ltpFR	12	n/a	n/a	n/a	n/a	n/a	n/a	n/a	8	5	1	2	n/a	n/a	n/a	n/a	n/a
2050350	PROB	n/a	LTP093	ltpFR	12	n/a	n/a	n/a	n/a	n/a	n/a	n/a	11	2	4	5	n/a	n/a	n/a	n/a	n/a
2052099	PROB	n/a	LTP093	ltpFR	12	n/a	n/a	n/a	n/a	n/a	n/a	n/a	18	4	9	5	n/a	n/a	n/a	n/a	n/a
2056016	STOP	n/a	LTP093	ltpFR	12	n/a	n/a	n/a	n/a	n/a	n/a	n/a	n/a	n/a	n/a	n/a	n/a	n/a	n/a	n/a	n/a
2057941	REC_START	n/a	LTP093	ltpFR	12	7	n/a	n/a	n/a	n/a	n/a	n/a	n/a	0	0	0	n/a	n/a	n/a	n/a	n/a
2058894	REC_WORD	wordpools/wasnorm_wordpool.txt	LTP093	ltpFR	12	7	0	BRIDGE	174	n/a	n/a	0	n/a	0	0	0	n/a	n/a	n/a	n/a	n/a
2061946	REC_WORD	wordpools/wasnorm_wordpool.txt	LTP093	ltpFR	12	7	0	WAVE	1596	n/a	n/a	0	n/a	0	0	0	n/a	n/a	n/a	n/a	n/a
2065956	REC_WORD	wordpools/wasnorm_wordpool.txt	LTP093	ltpFR	12	7	0	BANANA	77	n/a	n/a	0	n/a	0	0	0	n/a	n/a	n/a	n/a	n/a
2067110	REC_WORD	wordpools/wasnorm_wordpool.txt	LTP093	ltpFR	12	7	0	BOTTLE	153	n/a	n/a	0	n/a	0	0	0	n/a	n/a	n/a	n/a	n/a
2067928	REC_WORD	wordpools/wasnorm_wordpool.txt	LTP093	ltpFR	12	7	0	RING	1193	n/a	n/a	0	n/a	0	0	0	n/a	n/a	n/a	n/a	n/a
2080849	REC_WORD	wordpools/wasnorm_wordpool.txt	LTP093	ltpFR	12	7	0	CREEK	404	n/a	n/a	0	n/a	0	0	0	n/a	n/a	n/a	n/a	n/a
2081527	REC_WORD	wordpools/wasnorm_wordpool.txt	LTP093	ltpFR	12	7	0	RIVER	1194	n/a	n/a	1	n/a	0	0	0	n/a	n/a	n/a	n/a	n/a
2091919	REC_WORD	wordpools/wasnorm_wordpool.txt	LTP093	ltpFR	12	7	0	PARSLEY	1016	n/a	n/a	0	n/a	0	0	0	n/a	n/a	n/a	n/a	n/a
2169815	WORD	wordpools/wasnorm_wordpool.txt	LTP093	ltpFR	12	8	1	WITNESS	1618	n/a	n/a	0	n/a	0	0	0	0.57763671875	0.412841796875	1	upper	zerothre.ttf
2173948	WORD	wordpools/wasnorm_wordpool.txt	LTP093	ltpFR	12	8	1	BRIEFCASE	175	n/a	n/a	0	n/a	0	0	0	0.57763671875	0.412841796875	1	upper	zerothre.ttf
2177864	WORD	wordpools/wasnorm_wordpool.txt	LTP093	ltpFR	12	8	1	ANTEATER	26	n/a	n/a	1	n/a	0	0	0	0.57763671875	0.412841796875	1	upper	zerothre.ttf
2181690	WORD	wordpools/wasnorm_wordpool.txt	LTP093	ltpFR	12	8	1	VACUUM	1543	n/a	n/a	0	n/a	0	0	0	0.57763671875	0.412841796875	1	upper	zerothre.ttf
2185556	WORD	wordpools/wasnorm_wordpool.txt	LTP093	ltpFR	12	8	1	LAUNDRY	803	n/a	n/a	0	n/a	0	0	0	0.57763671875	0.412841796875	1	upper	zerothre.ttf
2189755	WORD	wordpools/wasnorm_wordpool.txt	LTP093	ltpFR	12	8	1	PRINCESS	1125	n/a	n/a	1	n/a	0	0	0	0.57763671875	0.412841796875	1	upper	zerothre.ttf
2193681	WORD	wordpools/wasnorm_wordpool.txt	LTP093	ltpFR	12	8	1	TRENCH	1503	n/a	n/a	0	n/a	0	0	0	0.57763671875	0.412841796875	1	upper	zerothre.ttf
2197606	WORD	wordpools/wasnorm_wordpool.txt	LTP093	ltpFR	12	8	1	POSSUM	1112	n/a	n/a	1	n/a	0	0	0	0.57763671875	0.412841796875	1	upper	zerothre.ttf
2201697	WORD	wordpools/wasnorm_wordpool.txt	LTP093	ltpFR	12	8	1	REPTILE	1185	n/a	n/a	1	n/a	0	0	0	0.57763671875	0.412841796875	1	upper	zerothre.ttf
2205580	WORD	wordpools/wasnorm_wordpool.txt	LTP093	ltpFR	12	8	1	RAFT	1159	n/a	n/a	0	n/a	0	0	0	0.57763671875	0.412841796875	1	upper	zerothre.ttf
2209496	WORD	wordpools/wasnorm_wordpool.txt	LTP093	ltpFR	12	8	1	PACKAGE	997	n/a	n/a	0	n/a	0	0	0	0.57763671875	0.412841796875	1	upper	zerothre.ttf
2213379	WORD	wordpools/wasnorm_wordpool.txt	LTP093	ltpFR	12	8	1	POLICE	1098	n/a	n/a	1	n/a	0	0	0	0.57763671875	0.412841796875	1	upper	zerothre.ttf
2217471	WORD	wordpools/wasnorm_wordpool.txt	LTP093	ltpFR	12	8	1	PATROL	1027	n/a	n/a	0	n/a	0	0	0	0.57763671875	0.412841796875	1	upper	zerothre.ttf
2221329	WORD	wordpools/wasnorm_wordpool.txt	LTP093	ltpFR	12	8	1	CREATURE	403	n/a	n/a	1	n/a	0	0	0	0.57763671875	0.412841796875	1	upper	zerothre.ttf
2225478	WORD	wordpools/wasnorm_wordpool.txt	LTP093	ltpFR	12	8	1	BINDER	127	n/a	n/a	0	n/a	0	0	0	0.57763671875	0.412841796875	1	upper	zerothre.ttf
2229503	WORD	wordpools/wasnorm_wordpool.txt	LTP093	ltpFR	12	8	1	POOL	1103	n/a	n/a	0	n/a	0	0	0	0.57763671875	0.412841796875	1	upper	zerothre.ttf
2232511	START	n/a	LTP093	ltpFR	12	n/a	n/a	n/a	n/a	n/a	n/a	n/a	n/a	n/a	n/a	n/a	n/a	n/a	n/a	n/a	n/a
2233369	PROB	n/a	LTP093	ltpFR	12	n/a	n/a	n/a	n/a	n/a	n/a	n/a	6	1	4	1	n/a	n/a	n/a	n/a	n/a
2235002	PROB	n/a	LTP093	ltpFR	12	n/a	n/a	n/a	n/a	n/a	n/a	n/a	23	9	6	8	n/a	n/a	n/a	n/a	n/a
2238611	PROB	n/a	LTP093	ltpFR	12	n/a	n/a	n/a	n/a	n/a	n/a	n/a	9	1	7	1	n/a	n/a	n/a	n/a	n/a
2240110	PROB	n/a	LTP093	ltpFR	12	n/a	n/a	n/a	n/a	n/a	n/a	n/a	14	6	5	3	n/a	n/a	n/a	n/a	n/a
2241560	PROB	n/a	LTP093	ltpFR	12	n/a	n/a	n/a	n/a	n/a	n/a	n/a	9	3	3	3	n/a	n/a	n/a	n/a	n/a
2242552	PROB	n/a	LTP093	ltpFR	12	n/a	n/a	n/a	n/a	n/a	n/a	n/a	13	8	3	2	n/a	n/a	n/a	n/a	n/a
2245535	PROB	n/a	LTP093	ltpFR	12	n/a	n/a	n/a	n/a	n/a	n/a	n/a	12	3	1	8	n/a	n/a	n/a	n/a	n/a
2247104	STOP	n/a	LTP093	ltpFR	12	n/a	n/a	n/a	n/a	n/a	n/a	n/a	n/a	n/a	n/a	n/a	n/a	n/a	n/a	n/a	n/a
2250394	REC_START	n/a	LTP093	ltpFR	12	8	n/a	n/a	n/a	n/a	n/a	n/a	n/a	0	0	0	n/a	n/a	n/a	n/a	n/a
2251122	REC_WORD	wordpools/wasnorm_wordpool.txt	LTP093	ltpFR	12	8	1	ANTEATER	26	n/a	n/a	1	n/a	0	0	0	n/a	n/a	n/a	n/a	n/a
2252260	REC_WORD	wordpools/wasnorm_wordpool.txt	LTP093	ltpFR	12	8	1	BINDER	127	n/a	n/a	0	n/a	0	0	0	n/a	n/a	n/a	n/a	n/a
2253432	REC_WORD	wordpools/wasnorm_wordpool.txt	LTP093	ltpFR	12	8	1	CREATURE	403	n/a	n/a	1	n/a	0	0	0	n/a	n/a	n/a	n/a	n/a
2254524	REC_WORD	wordpools/wasnorm_wordpool.txt	LTP093	ltpFR	12	8	1	POLICE	1098	n/a	n/a	1	n/a	0	0	0	n/a	n/a	n/a	n/a	n/a
2255547	REC_WORD	wordpools/wasnorm_wordpool.txt	LTP093	ltpFR	12	8	1	PATROL	1027	n/a	n/a	0	n/a	0	0	0	n/a	n/a	n/a	n/a	n/a
2281608	REC_WORD	wordpools/wasnorm_wordpool.txt	LTP093	ltpFR	12	8	1	LAUNDRY	803	n/a	n/a	0	n/a	0	0	0	n/a	n/a	n/a	n/a	n/a
2356469	START	n/a	LTP093	ltpFR	12	n/a	n/a	n/a	n/a	n/a	n/a	n/a	n/a	n/a	n/a	n/a	n/a	n/a	n/a	n/a	n/a
2357975	PROB	n/a	LTP093	ltpFR	12	n/a	n/a	n/a	n/a	n/a	n/a	n/a	13	4	8	1	n/a	n/a	n/a	n/a	n/a
2360834	PROB	n/a	LTP093	ltpFR	12	n/a	n/a	n/a	n/a	n/a	n/a	n/a	8	2	4	2	n/a	n/a	n/a	n/a	n/a
2362293	PROB	n/a	LTP093	ltpFR	12	n/a	n/a	n/a	n/a	n/a	n/a	n/a	20	6	6	8	n/a	n/a	n/a	n/a	n/a
2364443	PROB	n/a	LTP093	ltpFR	12	n/a	n/a	n/a	n/a	n/a	n/a	n/a	18	8	8	2	n/a	n/a	n/a	n/a	n/a
2365925	PROB	n/a	LTP093	ltpFR	12	n/a	n/a	n/a	n/a	n/a	n/a	n/a	14	5	4	5	n/a	n/a	n/a	n/a	n/a
2367201	PROB	n/a	LTP093	ltpFR	12	n/a	n/a	n/a	n/a	n/a	n/a	n/a	9	3	4	2	n/a	n/a	n/a	n/a	n/a
2368717	PROB	n/a	LTP093	ltpFR	12	n/a	n/a	n/a	n/a	n/a	n/a	n/a	18	8	3	7	n/a	n/a	n/a	n/a	n/a
2370124	PROB	n/a	LTP093	ltpFR	12	n/a	n/a	n/a	n/a	n/a	n/a	n/a	10	5	2	3	n/a	n/a	n/a	n/a	n/a
2371776	STOP	n/a	LTP093	ltpFR	12	n/a	n/a	n/a	n/a	n/a	n/a	n/a	n/a	n/a	n/a	n/a	n/a	n/a	n/a	n/a	n/a
2373492	WORD	wordpools/wasnorm_wordpool.txt	LTP093	ltpFR	12	9	1	ZIPPER	1636	n/a	n/a	0	n/a	0	0	0	0.57763671875	0.412841796875	1	upper	zerothre.ttf
2376500	START	n/a	LTP093	ltpFR	12	n/a	n/a	n/a	n/a	n/a	n/a	n/a	n/a	n/a	n/a	n/a	n/a	n/a	n/a	n/a	n/a
2377592	PROB	n/a	LTP093	ltpFR	12	n/a	n/a	n/a	n/a	n/a	n/a	n/a	12	1	5	6	n/a	n/a	n/a	n/a	n/a
2378865	PROB	n/a	LTP093	ltpFR	12	n/a	n/a	n/a	n/a	n/a	n/a	n/a	13	4	1	7	n/a	n/a	n/a	n/a	n/a
2381475	PROB	n/a	LTP093	ltpFR	12	n/a	n/a	n/a	n/a	n/a	n/a	n/a	21	6	9	6	n/a	n/a	n/a	n/a	n/a
2384765	PROB	n/a	LTP093	ltpFR	12	n/a	n/a	n/a	n/a	n/a	n/a	n/a	21	7	6	8	n/a	n/a	n/a	n/a	n/a
2387148	PROB	n/a	LTP093	ltpFR	12	n/a	n/a	n/a	n/a	n/a	n/a	n/a	5	1	3	1	n/a	n/a	n/a	n/a	n/a
2388224	PROB	n/a	LTP093	ltpFR	12	n/a	n/a	n/a	n/a	n/a	n/a	n/a	19	5	6	8	n/a	n/a	n/a	n/a	n/a
2389666	PROB	n/a	LTP093	ltpFR	12	n/a	n/a	n/a	n/a	n/a	n/a	n/a	21	5	9	7	n/a	n/a	n/a	n/a	n/a
2392329	STOP	n/a	LTP093	ltpFR	12	n/a	n/a	n/a	n/a	n/a	n/a	n/a	n/a	n/a	n/a	n/a	n/a	n/a	n/a	n/a	n/a
2393474	WORD	wordpools/wasnorm_wordpool.txt	LTP093	ltpFR	12	9	1	COOK	372	n/a	n/a	1	n/a	0	0	0	0.57763671875	0.412841796875	1	upper	zerothre.ttf
2396482	START	n/a	LTP093	ltpFR	12	n/a	n/a	n/a	n/a	n/a	n/a	n/a	n/a	n/a	n/a	n/a	n/a	n/a	n/a	n/a	n/a
2397448	PROB	n/a	LTP093	ltpFR	12	n/a	n/a	n/a	n/a	n/a	n/a	n/a	11	4	5	2	n/a	n/a	n/a	n/a	n/a
2399864	PROB	n/a	LTP093	ltpFR	12	n/a	n/a	n/a	n/a	n/a	n/a	n/a	25	8	8	9	n/a	n/a	n/a	n/a	n/a
2402615	PROB	n/a	LTP093	ltpFR	12	n/a	n/a	n/a	n/a	n/a	n/a	n/a	7	2	3	2	n/a	n/a	n/a	n/a	n/a
2404623	PROB	n/a	LTP093	ltpFR	12	n/a	n/a	n/a	n/a	n/a	n/a	n/a	24	6	9	9	n/a	n/a	n/a	n/a	n/a
2407489	PROB	n/a	LTP093	ltpFR	12	n/a	n/a	n/a	n/a	n/a	n/a	n/a	20	4	8	8	n/a	n/a	n/a	n/a	n/a
2412481	STOP	n/a	LTP093	ltpFR	12	n/a	n/a	n/a	n/a	n/a	n/a	n/a	n/a	n/a	n/a	n/a	n/a	n/a	n/a	n/a	n/a
2413380	WORD	wordpools/wasnorm_wordpool.txt	LTP093	ltpFR	12	9	1	PATIO	1025	n/a	n/a	0	n/a	0	0	0	0.57763671875	0.412841796875	1	upper	zerothre.ttf
2416381	START	n/a	LTP093	ltpFR	12	n/a	n/a	n/a	n/a	n/a	n/a	n/a	n/a	n/a	n/a	n/a	n/a	n/a	n/a	n/a	n/a
2417580	PROB	n/a	LTP093	ltpFR	12	n/a	n/a	n/a	n/a	n/a	n/a	n/a	16	8	7	1	n/a	n/a	n/a	n/a	n/a
2421613	PROB	n/a	LTP093	ltpFR	12	n/a	n/a	n/a	n/a	n/a	n/a	n/a	16	3	7	6	n/a	n/a	n/a	n/a	n/a
2423213	PROB	n/a	LTP093	ltpFR	12	n/a	n/a	n/a	n/a	n/a	n/a	n/a	13	3	5	5	n/a	n/a	n/a	n/a	n/a
2424596	PROB	n/a	LTP093	ltpFR	12	n/a	n/a	n/a	n/a	n/a	n/a	n/a	11	8	1	2	n/a	n/a	n/a	n/a	n/a
2426045	PROB	n/a	LTP093	ltpFR	12	n/a	n/a	n/a	n/a	n/a	n/a	n/a	11	5	1	5	n/a	n/a	n/a	n/a	n/a
2427095	PROB	n/a	LTP093	ltpFR	12	n/a	n/a	n/a	n/a	n/a	n/a	n/a	22	9	5	8	n/a	n/a	n/a	n/a	n/a
2429271	PROB	n/a	LTP093	ltpFR	12	n/a	n/a	n/a	n/a	n/a	n/a	n/a	16	5	5	6	n/a	n/a	n/a	n/a	n/a
2432381	STOP	n/a	LTP093	ltpFR	12	n/a	n/a	n/a	n/a	n/a	n/a	n/a	n/a	n/a	n/a	n/a	n/a	n/a	n/a	n/a	n/a
2433221	WORD	wordpools/wasnorm_wordpool.txt	LTP093	ltpFR	12	9	1	BUTTERFLY	206	n/a	n/a	1	n/a	0	0	0	0.57763671875	0.412841796875	1	upper	zerothre.ttf
2436229	START	n/a	LTP093	ltpFR	12	n/a	n/a	n/a	n/a	n/a	n/a	n/a	n/a	n/a	n/a	n/a	n/a	n/a	n/a	n/a	n/a
2437036	PROB	n/a	LTP093	ltpFR	12	n/a	n/a	n/a	n/a	n/a	n/a	n/a	10	6	2	2	n/a	n/a	n/a	n/a	n/a
2438637	PROB	n/a	LTP093	ltpFR	12	n/a	n/a	n/a	n/a	n/a	n/a	n/a	20	4	9	7	n/a	n/a	n/a	n/a	n/a
2440662	PROB	n/a	LTP093	ltpFR	12	n/a	n/a	n/a	n/a	n/a	n/a	n/a	12	4	3	5	n/a	n/a	n/a	n/a	n/a
2442695	PROB	n/a	LTP093	ltpFR	12	n/a	n/a	n/a	n/a	n/a	n/a	n/a	23	6	8	9	n/a	n/a	n/a	n/a	n/a
2445461	PROB	n/a	LTP093	ltpFR	12	n/a	n/a	n/a	n/a	n/a	n/a	n/a	9	4	2	3	n/a	n/a	n/a	n/a	n/a
2447743	PROB	n/a	LTP093	ltpFR	12	n/a	n/a	n/a	n/a	n/a	n/a	n/a	14	4	1	9	n/a	n/a	n/a	n/a	n/a
2449211	PROB	n/a	LTP093	ltpFR	12	n/a	n/a	n/a	n/a	n/a	n/a	n/a	16	3	9	4	n/a	n/a	n/a	n/a	n/a
2451441	STOP	n/a	LTP093	ltpFR	12	n/a	n/a	n/a	n/a	n/a	n/a	n/a	n/a	n/a	n/a	n/a	n/a	n/a	n/a	n/a	n/a
2453277	WORD	wordpools/wasnorm_wordpool.txt	LTP093	ltpFR	12	9	1	ANT	25	n/a	n/a	1	n/a	0	0	0	0.57763671875	0.412841796875	1	upper	zerothre.ttf
2456286	START	n/a	LTP093	ltpFR	12	n/a	n/a	n/a	n/a	n/a	n/a	n/a	n/a	n/a	n/a	n/a	n/a	n/a	n/a	n/a	n/a
2457394	PROB	n/a	LTP093	ltpFR	12	n/a	n/a	n/a	n/a	n/a	n/a	n/a	14	4	1	9	n/a	n/a	n/a	n/a	n/a
2458694	PROB	n/a	LTP093	ltpFR	12	n/a	n/a	n/a	n/a	n/a	n/a	n/a	14	2	4	8	n/a	n/a	n/a	n/a	n/a
2460992	PROB	n/a	LTP093	ltpFR	12	n/a	n/a	n/a	n/a	n/a	n/a	n/a	14	4	1	9	n/a	n/a	n/a	n/a	n/a
2462477	PROB	n/a	LTP093	ltpFR	12	n/a	n/a	n/a	n/a	n/a	n/a	n/a	18	9	4	5	n/a	n/a	n/a	n/a	n/a
2465067	PROB	n/a	LTP093	ltpFR	12	n/a	n/a	n/a	n/a	n/a	n/a	n/a	15	4	7	7	n/a	n/a	n/a	n/a	n/a
2468518	PROB	n/a	LTP093	ltpFR	12	n/a	n/a	n/a	n/a	n/a	n/a	n/a	10	2	7	1	n/a	n/a	n/a	n/a	n/a
2470133	PROB	n/a	LTP093	ltpFR	12	n/a	n/a	n/a	n/a	n/a	n/a	n/a	16	8	5	3	n/a	n/a	n/a	n/a	n/a
2471904	STOP	n/a	LTP093	ltpFR	12	n/a	n/a	n/a	n/a	n/a	n/a	n/a	n/a	n/a	n/a	n/a	n/a	n/a	n/a	n/a	n/a
2473442	WORD	wordpools/wasnorm_wordpool.txt	LTP093	ltpFR	12	9	1	OVAL	990	n/a	n/a	0	n/a	0	0	0	0.57763671875	0.412841796875	1	upper	zerothre.ttf
2476451	START	n/a	LTP093	ltpFR	12	n/a	n/a	n/a	n/a	n/a	n/a	n/a	n/a	n/a	n/a	n/a	n/a	n/a	n/a	n/a	n/a
2477350	PROB	n/a	LTP093	ltpFR	12	n/a	n/a	n/a	n/a	n/a	n/a	n/a	25	8	8	9	n/a	n/a	n/a	n/a	n/a
2479225	PROB	n/a	LTP093	ltpFR	12	n/a	n/a	n/a	n/a	n/a	n/a	n/a	10	7	1	2	n/a	n/a	n/a	n/a	n/a
2480442	PROB	n/a	LTP093	ltpFR	12	n/a	n/a	n/a	n/a	n/a	n/a	n/a	24	9	8	7	n/a	n/a	n/a	n/a	n/a
2485541	PROB	n/a	LTP093	ltpFR	12	n/a	n/a	n/a	n/a	n/a	n/a	n/a	23	6	8	9	n/a	n/a	n/a	n/a	n/a
2488291	PROB	n/a	LTP093	ltpFR	12	n/a	n/a	n/a	n/a	n/a	n/a	n/a	19	3	7	9	n/a	n/a	n/a	n/a	n/a
2489666	PROB	n/a	LTP093	ltpFR	12	n/a	n/a	n/a	n/a	n/a	n/a	n/a	15	8	5	2	n/a	n/a	n/a	n/a	n/a
2492128	STOP	n/a	LTP093	ltpFR	12	n/a	n/a	n/a	n/a	n/a	n/a	n/a	n/a	n/a	n/a	n/a	n/a	n/a	n/a	n/a	n/a
2493383	WORD	wordpools/wasnorm_wordpool.txt	LTP093	ltpFR	12	9	1	MATTRESS	879	n/a	n/a	0	n/a	0	0	0	0.57763671875	0.412841796875	1	upper	zerothre.ttf
2496391	START	n/a	LTP093	ltpFR	12	n/a	n/a	n/a	n/a	n/a	n/a	n/a	n/a	n/a	n/a	n/a	n/a	n/a	n/a	n/a	n/a
2497382	PROB	n/a	LTP093	ltpFR	12	n/a	n/a	n/a	n/a	n/a	n/a	n/a	15	3	7	5	n/a	n/a	n/a	n/a	n/a
2498715	PROB	n/a	LTP093	ltpFR	12	n/a	n/a	n/a	n/a	n/a	n/a	n/a	12	9	1	2	n/a	n/a	n/a	n/a	n/a
2500114	PROB	n/a	LTP093	ltpFR	12	n/a	n/a	n/a	n/a	n/a	n/a	n/a	19	8	8	3	n/a	n/a	n/a	n/a	n/a
2501773	PROB	n/a	LTP093	ltpFR	12	n/a	n/a	n/a	n/a	n/a	n/a	n/a	23	9	8	6	n/a	n/a	n/a	n/a	n/a
2505172	PROB	n/a	LTP093	ltpFR	12	n/a	n/a	n/a	n/a	n/a	n/a	n/a	26	9	9	8	n/a	n/a	n/a	n/a	n/a
2509130	PROB	n/a	LTP093	ltpFR	12	n/a	n/a	n/a	n/a	n/a	n/a	n/a	12	4	1	7	n/a	n/a	n/a	n/a	n/a
2512168	STOP	n/a	LTP093	ltpFR	12	n/a	n/a	n/a	n/a	n/a	n/a	n/a	n/a	n/a	n/a	n/a	n/a	n/a	n/a	n/a	n/a
2513373	WORD	wordpools/wasnorm_wordpool.txt	LTP093	ltpFR	12	9	1	KETTLE	772	n/a	n/a	0	n/a	0	0	0	0.57763671875	0.412841796875	1	upper	zerothre.ttf
2516381	START	n/a	LTP093	ltpFR	12	n/a	n/a	n/a	n/a	n/a	n/a	n/a	n/a	n/a	n/a	n/a	n/a	n/a	n/a	n/a	n/a
2517506	PROB	n/a	LTP093	ltpFR	12	n/a	n/a	n/a	n/a	n/a	n/a	n/a	11	2	5	4	n/a	n/a	n/a	n/a	n/a
2519722	PROB	n/a	LTP093	ltpFR	12	n/a	n/a	n/a	n/a	n/a	n/a	n/a	18	9	1	8	n/a	n/a	n/a	n/a	n/a
2521364	PROB	n/a	LTP093	ltpFR	12	n/a	n/a	n/a	n/a	n/a	n/a	n/a	17	2	6	9	n/a	n/a	n/a	n/a	n/a
2523264	PROB	n/a	LTP093	ltpFR	12	n/a	n/a	n/a	n/a	n/a	n/a	n/a	17	2	7	8	n/a	n/a	n/a	n/a	n/a
2528221	PROB	n/a	LTP093	ltpFR	12	n/a	n/a	n/a	n/a	n/a	n/a	n/a	13	7	4	2	n/a	n/a	n/a	n/a	n/a
2529730	PROB	n/a	LTP093	ltpFR	12	n/a	n/a	n/a	n/a	n/a	n/a	n/a	14	6	7	1	n/a	n/a	n/a	n/a	n/a
2531505	STOP	n/a	LTP093	ltpFR	12	n/a	n/a	n/a	n/a	n/a	n/a	n/a	n/a	n/a	n/a	n/a	n/a	n/a	n/a	n/a	n/a
2533296	WORD	wordpools/wasnorm_wordpool.txt	LTP093	ltpFR	12	9	1	BUN	197	n/a	n/a	0	n/a	0	0	0	0.57763671875	0.412841796875	1	upper	zerothre.ttf
2536305	START	n/a	LTP093	ltpFR	12	n/a	n/a	n/a	n/a	n/a	n/a	n/a	n/a	n/a	n/a	n/a	n/a	n/a	n/a	n/a	n/a
2537379	PROB	n/a	LTP093	ltpFR	12	n/a	n/a	n/a	n/a	n/a	n/a	n/a	18	4	5	9	n/a	n/a	n/a	n/a	n/a
2538687	PROB	n/a	LTP093	ltpFR	12	n/a	n/a	n/a	n/a	n/a	n/a	n/a	17	7	2	8	n/a	n/a	n/a	n/a	n/a
2540994	PROB	n/a	LTP093	ltpFR	12	n/a	n/a	n/a	n/a	n/a	n/a	n/a	21	6	7	4	n/a	n/a	n/a	n/a	n/a
2543936	PROB	n/a	LTP093	ltpFR	12	n/a	n/a	n/a	n/a	n/a	n/a	n/a	19	6	5	8	n/a	n/a	n/a	n/a	n/a
2545952	PROB	n/a	LTP093	ltpFR	12	n/a	n/a	n/a	n/a	n/a	n/a	n/a	11	2	3	6	n/a	n/a	n/a	n/a	n/a
2548069	PROB	n/a	LTP093	ltpFR	12	n/a	n/a	n/a	n/a	n/a	n/a	n/a	16	3	9	4	n/a	n/a	n/a	n/a	n/a
2550169	PROB	n/a	LTP093	ltpFR	12	n/a	n/a	n/a	n/a	n/a	n/a	n/a	10	7	2	1	n/a	n/a	n/a	n/a	n/a
2551361	STOP	n/a	LTP093	ltpFR	12	n/a	n/a	n/a	n/a	n/a	n/a	n/a	n/a	n/a	n/a	n/a	n/a	n/a	n/a	n/a	n/a
2553135	WORD	wordpools/wasnorm_wordpool.txt	LTP093	ltpFR	12	9	1	MUFFIN	929	n/a	n/a	0	n/a	0	0	0	0.57763671875	0.412841796875	1	upper	zerothre.ttf
2556144	START	n/a	LTP093	ltpFR	12	n/a	n/a	n/a	n/a	n/a	n/a	n/a	n/a	n/a	n/a	n/a	n/a	n/a	n/a	n/a	n/a
2557211	PROB	n/a	LTP093	ltpFR	12	n/a	n/a	n/a	n/a	n/a	n/a	n/a	16	1	9	6	n/a	n/a	n/a	n/a	n/a
2558419	PROB	n/a	LTP093	ltpFR	12	n/a	n/a	n/a	n/a	n/a	n/a	n/a	18	9	3	6	n/a	n/a	n/a	n/a	n/a
2559868	PROB	n/a	LTP093	ltpFR	12	n/a	n/a	n/a	n/a	n/a	n/a	n/a	13	5	1	7	n/a	n/a	n/a	n/a	n/a
2562211	PROB	n/a	LTP093	ltpFR	12	n/a	n/a	n/a	n/a	n/a	n/a	n/a	11	2	8	1	n/a	n/a	n/a	n/a	n/a
2563677	PROB	n/a	LTP093	ltpFR	12	n/a	n/a	n/a	n/a	n/a	n/a	n/a	9	2	3	4	n/a	n/a	n/a	n/a	n/a
2565710	PROB	n/a	LTP093	ltpFR	12	n/a	n/a	n/a	n/a	n/a	n/a	n/a	16	8	6	2	n/a	n/a	n/a	n/a	n/a
2567427	PROB	n/a	LTP093	ltpFR	12	n/a	n/a	n/a	n/a	n/a	n/a	n/a	19	8	8	3	n/a	n/a	n/a	n/a	n/a
2569493	PROB	n/a	LTP093	ltpFR	12	n/a	n/a	n/a	n/a	n/a	n/a	n/a	18	5	6	7	n/a	n/a	n/a	n/a	n/a
2570864	STOP	n/a	LTP093	ltpFR	12	n/a	n/a	n/a	n/a	n/a	n/a	n/a	n/a	n/a	n/a	n/a	n/a	n/a	n/a	n/a	n/a
2573175	WORD	wordpools/wasnorm_wordpool.txt	LTP093	ltpFR	12	9	1	HEDGE	699	n/a	n/a	0	n/a	0	0	0	0.57763671875	0.412841796875	1	upper	zerothre.ttf
2576176	START	n/a	LTP093	ltpFR	12	n/a	n/a	n/a	n/a	n/a	n/a	n/a	n/a	n/a	n/a	n/a	n/a	n/a	n/a	n/a	n/a
2577226	PROB	n/a	LTP093	ltpFR	12	n/a	n/a	n/a	n/a	n/a	n/a	n/a	15	7	1	7	n/a	n/a	n/a	n/a	n/a
2578301	PROB	n/a	LTP093	ltpFR	12	n/a	n/a	n/a	n/a	n/a	n/a	n/a	19	3	9	7	n/a	n/a	n/a	n/a	n/a
2580251	PROB	n/a	LTP093	ltpFR	12	n/a	n/a	n/a	n/a	n/a	n/a	n/a	18	2	9	7	n/a	n/a	n/a	n/a	n/a
2582342	PROB	n/a	LTP093	ltpFR	12	n/a	n/a	n/a	n/a	n/a	n/a	n/a	10	5	1	4	n/a	n/a	n/a	n/a	n/a
2583924	PROB	n/a	LTP093	ltpFR	12	n/a	n/a	n/a	n/a	n/a	n/a	n/a	21	8	8	5	n/a	n/a	n/a	n/a	n/a
2585500	PROB	n/a	LTP093	ltpFR	12	n/a	n/a	n/a	n/a	n/a	n/a	n/a	20	4	7	9	n/a	n/a	n/a	n/a	n/a
2587242	PROB	n/a	LTP093	ltpFR	12	n/a	n/a	n/a	n/a	n/a	n/a	n/a	25	7	9	9	n/a	n/a	n/a	n/a	n/a
2589124	PROB	n/a	LTP093	ltpFR	12	n/a	n/a	n/a	n/a	n/a	n/a	n/a	19	8	8	3	n/a	n/a	n/a	n/a	n/a
2592176	STOP	n/a	LTP093	ltpFR	12	n/a	n/a	n/a	n/a	n/a	n/a	n/a	n/a	n/a	n/a	n/a	n/a	n/a	n/a	n/a	n/a
2593250	WORD	wordpools/wasnorm_wordpool.txt	LTP093	ltpFR	12	9	1	PANTS	1010	n/a	n/a	0	n/a	0	0	0	0.57763671875	0.412841796875	1	upper	zerothre.ttf
2596258	START	n/a	LTP093	ltpFR	12	n/a	n/a	n/a	n/a	n/a	n/a	n/a	n/a	n/a	n/a	n/a	n/a	n/a	n/a	n/a	n/a
2597174	PROB	n/a	LTP093	ltpFR	12	n/a	n/a	n/a	n/a	n/a	n/a	n/a	16	5	7	4	n/a	n/a	n/a	n/a	n/a
2598815	PROB	n/a	LTP093	ltpFR	12	n/a	n/a	n/a	n/a	n/a	n/a	n/a	18	8	8	2	n/a	n/a	n/a	n/a	n/a
2600258	PROB	n/a	LTP093	ltpFR	12	n/a	n/a	n/a	n/a	n/a	n/a	n/a	16	5	5	6	n/a	n/a	n/a	n/a	n/a
2601416	PROB	n/a	LTP093	ltpFR	12	n/a	n/a	n/a	n/a	n/a	n/a	n/a	6	3	2	1	n/a	n/a	n/a	n/a	n/a
2602416	PROB	n/a	LTP093	ltpFR	12	n/a	n/a	n/a	n/a	n/a	n/a	n/a	14	1	5	8	n/a	n/a	n/a	n/a	n/a
2604090	PROB	n/a	LTP093	ltpFR	12	n/a	n/a	n/a	n/a	n/a	n/a	n/a	15	1	6	8	n/a	n/a	n/a	n/a	n/a
2605956	PROB	n/a	LTP093	ltpFR	12	n/a	n/a	n/a	n/a	n/a	n/a	n/a	17	8	5	4	n/a	n/a	n/a	n/a	n/a
2608307	PROB	n/a	LTP093	ltpFR	12	n/a	n/a	n/a	n/a	n/a	n/a	n/a	17	5	3	9	n/a	n/a	n/a	n/a	n/a
2610273	PROB	n/a	LTP093	ltpFR	12	n/a	n/a	n/a	n/a	n/a	n/a	n/a	13	1	4	8	n/a	n/a	n/a	n/a	n/a
2611944	STOP	n/a	LTP093	ltpFR	12	n/a	n/a	n/a	n/a	n/a	n/a	n/a	n/a	n/a	n/a	n/a	n/a	n/a	n/a	n/a	n/a
2613106	WORD	wordpools/wasnorm_wordpool.txt	LTP093	ltpFR	12	9	1	DOLL	481	n/a	n/a	0	n/a	0	0	0	0.57763671875	0.412841796875	1	upper	zerothre.ttf
2616114	START	n/a	LTP093	ltpFR	12	n/a	n/a	n/a	n/a	n/a	n/a	n/a	n/a	n/a	n/a	n/a	n/a	n/a	n/a	n/a	n/a
2617273	PROB	n/a	LTP093	ltpFR	12	n/a	n/a	n/a	n/a	n/a	n/a	n/a	17	4	7	6	n/a	n/a	n/a	n/a	n/a
2619298	PROB	n/a	LTP093	ltpFR	12	n/a	n/a	n/a	n/a	n/a	n/a	n/a	15	9	3	3	n/a	n/a	n/a	n/a	n/a
2620830	PROB	n/a	LTP093	ltpFR	12	n/a	n/a	n/a	n/a	n/a	n/a	n/a	20	6	7	7	n/a	n/a	n/a	n/a	n/a
2622855	PROB	n/a	LTP093	ltpFR	12	n/a	n/a	n/a	n/a	n/a	n/a	n/a	16	5	6	5	n/a	n/a	n/a	n/a	n/a
2624656	PROB	n/a	LTP093	ltpFR	12	n/a	n/a	n/a	n/a	n/a	n/a	n/a	13	3	6	4	n/a	n/a	n/a	n/a	n/a
2627113	PROB	n/a	LTP093	ltpFR	12	n/a	n/a	n/a	n/a	n/a	n/a	n/a	10	2	6	2	n/a	n/a	n/a	n/a	n/a
2628963	PROB	n/a	LTP093	ltpFR	12	n/a	n/a	n/a	n/a	n/a	n/a	n/a	15	5	7	3	n/a	n/a	n/a	n/a	n/a
2630339	PROB	n/a	LTP093	ltpFR	12	n/a	n/a	n/a	n/a	n/a	n/a	n/a	12	5	5	2	n/a	n/a	n/a	n/a	n/a
2631673	STOP	n/a	LTP093	ltpFR	12	n/a	n/a	n/a	n/a	n/a	n/a	n/a	n/a	n/a	n/a	n/a	n/a	n/a	n/a	n/a	n/a
2633213	WORD	wordpools/wasnorm_wordpool.txt	LTP093	ltpFR	12	9	1	ADULT	8	n/a	n/a	1	n/a	0	0	0	0.57763671875	0.412841796875	1	upper	zerothre.ttf
2636222	START	n/a	LTP093	ltpFR	12	n/a	n/a	n/a	n/a	n/a	n/a	n/a	n/a	n/a	n/a	n/a	n/a	n/a	n/a	n/a	n/a
2637154	PROB	n/a	LTP093	ltpFR	12	n/a	n/a	n/a	n/a	n/a	n/a	n/a	19	3	8	8	n/a	n/a	n/a	n/a	n/a
2639195	PROB	n/a	LTP093	ltpFR	12	n/a	n/a	n/a	n/a	n/a	n/a	n/a	10	2	2	6	n/a	n/a	n/a	n/a	n/a
2640354	PROB	n/a	LTP093	ltpFR	12	n/a	n/a	n/a	n/a	n/a	n/a	n/a	15	5	1	9	n/a	n/a	n/a	n/a	n/a
2641671	PROB	n/a	LTP093	ltpFR	12	n/a	n/a	n/a	n/a	n/a	n/a	n/a	13	2	6	5	n/a	n/a	n/a	n/a	n/a
2643421	PROB	n/a	LTP093	ltpFR	12	n/a	n/a	n/a	n/a	n/a	n/a	n/a	15	7	4	4	n/a	n/a	n/a	n/a	n/a
2645945	PROB	n/a	LTP093	ltpFR	12	n/a	n/a	n/a	n/a	n/a	n/a	n/a	22	8	7	7	n/a	n/a	n/a	n/a	n/a
2649144	PROB	n/a	LTP093	ltpFR	12	n/a	n/a	n/a	n/a	n/a	n/a	n/a	9	3	1	5	n/a	n/a	n/a	n/a	n/a
2651233	STOP	n/a	LTP093	ltpFR	12	n/a	n/a	n/a	n/a	n/a	n/a	n/a	n/a	n/a	n/a	n/a	n/a	n/a	n/a	n/a	n/a
2653212	WORD	wordpools/wasnorm_wordpool.txt	LTP093	ltpFR	12	9	1	CARPENTER	246	n/a	n/a	1	n/a	0	0	0	0.57763671875	0.412841796875	1	upper	zerothre.ttf
2656220	START	n/a	LTP093	ltpFR	12	n/a	n/a	n/a	n/a	n/a	n/a	n/a	n/a	n/a	n/a	n/a	n/a	n/a	n/a	n/a	n/a
2657185	PROB	n/a	LTP093	ltpFR	12	n/a	n/a	n/a	n/a	n/a	n/a	n/a	6	3	1	2	n/a	n/a	n/a	n/a	n/a
2658144	PROB	n/a	LTP093	ltpFR	12	n/a	n/a	n/a	n/a	n/a	n/a	n/a	19	5	9	5	n/a	n/a	n/a	n/a	n/a
2660553	PROB	n/a	LTP093	ltpFR	12	n/a	n/a	n/a	n/a	n/a	n/a	n/a	21	7	8	6	n/a	n/a	n/a	n/a	n/a
2662960	PROB	n/a	LTP093	ltpFR	12	n/a	n/a	n/a	n/a	n/a	n/a	n/a	17	9	5	3	n/a	n/a	n/a	n/a	n/a
2664719	PROB	n/a	LTP093	ltpFR	12	n/a	n/a	n/a	n/a	n/a	n/a	n/a	18	9	2	7	n/a	n/a	n/a	n/a	n/a
2666519	PROB	n/a	LTP093	ltpFR	12	n/a	n/a	n/a	n/a	n/a	n/a	n/a	8	1	2	5	n/a	n/a	n/a	n/a	n/a
2669043	PROB	n/a	LTP093	ltpFR	12	n/a	n/a	n/a	n/a	n/a	n/a	n/a	18	6	4	8	n/a	n/a	n/a	n/a	n/a
2672220	STOP	n/a	LTP093	ltpFR	12	n/a	n/a	n/a	n/a	n/a	n/a	n/a	n/a	n/a	n/a	n/a	n/a	n/a	n/a	n/a	n/a
2673184	WORD	wordpools/wasnorm_wordpool.txt	LTP093	ltpFR	12	9	1	CANE	231	n/a	n/a	0	n/a	0	0	0	0.57763671875	0.412841796875	1	upper	zerothre.ttf
2676193	START	n/a	LTP093	ltpFR	12	n/a	n/a	n/a	n/a	n/a	n/a	n/a	n/a	n/a	n/a	n/a	n/a	n/a	n/a	n/a	n/a
2677302	PROB	n/a	LTP093	ltpFR	12	n/a	n/a	n/a	n/a	n/a	n/a	n/a	16	7	7	1	n/a	n/a	n/a	n/a	n/a
2678393	PROB	n/a	LTP093	ltpFR	12	n/a	n/a	n/a	n/a	n/a	n/a	n/a	21	4	9	8	n/a	n/a	n/a	n/a	n/a
2681443	PROB	n/a	LTP093	ltpFR	12	n/a	n/a	n/a	n/a	n/a	n/a	n/a	18	8	2	8	n/a	n/a	n/a	n/a	n/a
2682800	PROB	n/a	LTP093	ltpFR	12	n/a	n/a	n/a	n/a	n/a	n/a	n/a	10	5	2	3	n/a	n/a	n/a	n/a	n/a
2685318	PROB	n/a	LTP093	ltpFR	12	n/a	n/a	n/a	n/a	n/a	n/a	n/a	9	4	4	1	n/a	n/a	n/a	n/a	n/a
2686243	PROB	n/a	LTP093	ltpFR	12	n/a	n/a	n/a	n/a	n/a	n/a	n/a	8	4	2	2	n/a	n/a	n/a	n/a	n/a
2687667	PROB	n/a	LTP093	ltpFR	12	n/a	n/a	n/a	n/a	n/a	n/a	n/a	10	2	1	7	n/a	n/a	n/a	n/a	n/a
2689016	PROB	n/a	LTP093	ltpFR	12	n/a	n/a	n/a	n/a	n/a	n/a	n/a	15	2	6	7	n/a	n/a	n/a	n/a	n/a
2691016	STOP	n/a	LTP093	ltpFR	12	n/a	n/a	n/a	n/a	n/a	n/a	n/a	n/a	n/a	n/a	n/a	n/a	n/a	n/a	n/a	n/a
2694008	REC_START	n/a	LTP093	ltpFR	12	9	n/a	n/a	n/a	n/a	n/a	n/a	n/a	0	0	0	n/a	n/a	n/a	n/a	n/a
2695115	REC_WORD	wordpools/wasnorm_wordpool.txt	LTP093	ltpFR	12	9	1	CANE	231	n/a	n/a	0	n/a	0	0	0	n/a	n/a	n/a	n/a	n/a
2695774	REC_WORD	wordpools/wasnorm_wordpool.txt	LTP093	ltpFR	12	9	1	ADULT	8	n/a	n/a	1	n/a	0	0	0	n/a	n/a	n/a	n/a	n/a
2696682	REC_WORD	wordpools/wasnorm_wordpool.txt	LTP093	ltpFR	12	9	1	CARPENTER	246	n/a	n/a	1	n/a	0	0	0	n/a	n/a	n/a	n/a	n/a
2699740	REC_WORD	wordpools/wasnorm_wordpool.txt	LTP093	ltpFR	12	9	1	ANT	25	n/a	n/a	1	n/a	0	0	0	n/a	n/a	n/a	n/a	n/a
2700448	REC_WORD	wordpools/wasnorm_wordpool.txt	LTP093	ltpFR	12	9	1	BUN	197	n/a	n/a	0	n/a	0	0	0	n/a	n/a	n/a	n/a	n/a
2700982	REC_WORD	wordpools/wasnorm_wordpool.txt	LTP093	ltpFR	12	9	1	MUFFIN	929	n/a	n/a	0	n/a	0	0	0	n/a	n/a	n/a	n/a	n/a
2751772	REC_WORD	wordpools/wasnorm_wordpool.txt	LTP093	ltpFR	12	9	1	COOK	372	n/a	n/a	1	n/a	0	0	0	n/a	n/a	n/a	n/a	n/a
2823590	WORD	wordpools/wasnorm_wordpool.txt	LTP093	ltpFR	12	10	0	SICKLE	1302	n/a	n/a	0	n/a	0	0	0	0.422607421875	0.5869140625	0	lower	amplitud.ttf
2827648	WORD	wordpools/wasnorm_wordpool.txt	LTP093	ltpFR	12	10	0	MULE	931	n/a	n/a	0	n/a	0	0	0	0.422607421875	0.5869140625	0	lower	amplitud.ttf
2831515	WORD	wordpools/wasnorm_wordpool.txt	LTP093	ltpFR	12	10	0	TACK	1428	n/a	n/a	0	n/a	0	0	0	0.422607421875	0.5869140625	0	lower	amplitud.ttf
2835481	WORD	wordpools/wasnorm_wordpool.txt	LTP093	ltpFR	12	10	0	QUILT	1151	n/a	n/a	1	n/a	0	0	0	0.422607421875	0.5869140625	0	lower	amplitud.ttf
2839531	WORD	wordpools/wasnorm_wordpool.txt	LTP093	ltpFR	12	10	1	FOX	598	n/a	n/a	1	n/a	0	0	0	0.57763671875	0.412841796875	1	upper	zerothre.ttf
2843647	WORD	wordpools/wasnorm_wordpool.txt	LTP093	ltpFR	12	10	1	RASPBERRY	1168	n/a	n/a	1	n/a	0	0	0	0.57763671875	0.412841796875	1	upper	zerothre.ttf
2847530	WORD	wordpools/wasnorm_wordpool.txt	LTP093	ltpFR	12	10	1	PICNIC	1060	n/a	n/a	0	n/a	0	0	0	0.57763671875	0.412841796875	1	upper	zerothre.ttf
2851446	WORD	wordpools/wasnorm_wordpool.txt	LTP093	ltpFR	12	10	1	DOG	480	n/a	n/a	1	n/a	0	0	0	0.57763671875	0.412841796875	1	upper	zerothre.ttf
2855304	WORD	wordpools/wasnorm_wordpool.txt	LTP093	ltpFR	12	10	1	MANSION	864	n/a	n/a	0	n/a	0	0	0	0.57763671875	0.412841796875	1	upper	zerothre.ttf
2859329	WORD	wordpools/wasnorm_wordpool.txt	LTP093	ltpFR	12	10	0	HUT	729	n/a	n/a	0	n/a	0	0	0	0.422607421875	0.5869140625	0	lower	amplitud.ttf
2863221	WORD	wordpools/wasnorm_wordpool.txt	LTP093	ltpFR	12	10	0	GROCERIES	663	n/a	n/a	0	n/a	0	0	0	0.422607421875	0.5869140625	0	lower	amplitud.ttf
2867279	WORD	wordpools/wasnorm_wordpool.txt	LTP093	ltpFR	12	10	1	CASHIER	254	n/a	n/a	0	n/a	0	0	0	0.57763671875	0.412841796875	1	upper	zerothre.ttf
2871169	WORD	wordpools/wasnorm_wordpool.txt	LTP093	ltpFR	12	10	1	PENNY	1045	n/a	n/a	0	n/a	0	0	0	0.57763671875	0.412841796875	1	upper	zerothre.ttf
2875261	WORD	wordpools/wasnorm_wordpool.txt	LTP093	ltpFR	12	10	1	HAYSTACK	694	n/a	n/a	0	n/a	0	0	0	0.57763671875	0.412841796875	1	upper	zerothre.ttf
2879085	WORD	wordpools/wasnorm_wordpool.txt	LTP093	ltpFR	12	10	0	SEAL	1262	n/a	n/a	0	n/a	0	0	0	0.422607421875	0.5869140625	0	lower	amplitud.ttf
2882993	WORD	wordpools/wasnorm_wordpool.txt	LTP093	ltpFR	12	10	0	ACID	2	n/a	n/a	0	n/a	0	0	0	0.422607421875	0.5869140625	0	lower	amplitud.ttf
2886001	START	n/a	LTP093	ltpFR	12	n/a	n/a	n/a	n/a	n/a	n/a	n/a	n/a	n/a	n/a	n/a	n/a	n/a	n/a	n/a	n/a
2887101	PROB	n/a	LTP093	ltpFR	12	n/a	n/a	n/a	n/a	n/a	n/a	n/a	8	5	1	2	n/a	n/a	n/a	n/a	n/a
2888535	PROB	n/a	LTP093	ltpFR	12	n/a	n/a	n/a	n/a	n/a	n/a	n/a	12	1	4	7	n/a	n/a	n/a	n/a	n/a
2890727	PROB	n/a	LTP093	ltpFR	12	n/a	n/a	n/a	n/a	n/a	n/a	n/a	19	6	5	8	n/a	n/a	n/a	n/a	n/a
2892625	STOP	n/a	LTP093	ltpFR	12	n/a	n/a	n/a	n/a	n/a	n/a	n/a	n/a	n/a	n/a	n/a	n/a	n/a	n/a	n/a	n/a
2895851	REC_START	n/a	LTP093	ltpFR	12	10	n/a	n/a	n/a	n/a	n/a	n/a	n/a	0	0	0	n/a	n/a	n/a	n/a	n/a
2896569	REC_WORD	wordpools/wasnorm_wordpool.txt	LTP093	ltpFR	12	10	0	ACID	2	n/a	n/a	0	n/a	0	0	0	n/a	n/a	n/a	n/a	n/a
2897397	REC_WORD	wordpools/wasnorm_wordpool.txt	LTP093	ltpFR	12	10	0	SEAL	1262	n/a	n/a	0	n/a	0	0	0	n/a	n/a	n/a	n/a	n/a
2898699	REC_WORD	wordpools/wasnorm_wordpool.txt	LTP093	ltpFR	12	10	1	MANSION	864	n/a	n/a	0	n/a	0	0	0	n/a	n/a	n/a	n/a	n/a
2899767	REC_WORD	wordpools/wasnorm_wordpool.txt	LTP093	ltpFR	12	10	0	HUT	729	n/a	n/a	0	n/a	0	0	0	n/a	n/a	n/a	n/a	n/a
2920465	REC_WORD	wordpools/wasnorm_wordpool.txt	LTP093	ltpFR	12	10	0	MULE	931	n/a	n/a	0	n/a	0	0	0	n/a	n/a	n/a	n/a	n/a
2937516	REC_WORD	wordpools/wasnorm_wordpool.txt	LTP093	ltpFR	12	10	1	DOG	480	n/a	n/a	1	n/a	0	0	0	n/a	n/a	n/a	n/a	n/a
2938225	REC_WORD	wordpools/wasnorm_wordpool.txt	LTP093	ltpFR	12	10	1	PICNIC	1060	n/a	n/a	0	n/a	0	0	0	n/a	n/a	n/a	n/a	n/a
2971454	REST_REWET	n/a	LTP093	ltpFR	12	10	n/a	n/a	n/a	n/a	n/a	n/a	n/a	0	0	0	n/a	n/a	n/a	n/a	n/a
3344982	WORD	wordpools/wasnorm_wordpool.txt	LTP093	ltpFR	12	11	0	KID	775	n/a	n/a	0	n/a	0	0	0	0.422607421875	0.5869140625	0	lower	amplitud.ttf
3348857	WORD	wordpools/wasnorm_wordpool.txt	LTP093	ltpFR	12	11	0	KNEE	784	n/a	n/a	0	n/a	0	0	0	0.422607421875	0.5869140625	0	lower	amplitud.ttf
3352982	WORD	wordpools/wasnorm_wordpool.txt	LTP093	ltpFR	12	11	1	SKELETON	1314	n/a	n/a	0	n/a	0	0	0	0.57763671875	0.412841796875	1	upper	zerothre.ttf
3356965	WORD	wordpools/wasnorm_wordpool.txt	LTP093	ltpFR	12	11	1	NOTEBOOK	959	n/a	n/a	0	n/a	0	0	0	0.57763671875	0.412841796875	1	upper	zerothre.ttf
3360898	WORD	wordpools/wasnorm_wordpool.txt	LTP093	ltpFR	12	11	1	SHEET	1279	n/a	n/a	0	n/a	0	0	0	0.57763671875	0.412841796875	1	upper	zerothre.ttf
3365106	WORD	wordpools/wasnorm_wordpool.txt	LTP093	ltpFR	12	11	1	NUCLEUS	961	n/a	n/a	0	n/a	0	0	0	0.57763671875	0.412841796875	1	upper	zerothre.ttf
3369281	WORD	wordpools/wasnorm_wordpool.txt	LTP093	ltpFR	12	11	1	PLANT	1083	n/a	n/a	1	n/a	0	0	0	0.57763671875	0.412841796875	1	upper	zerothre.ttf
3373356	WORD	wordpools/wasnorm_wordpool.txt	LTP093	ltpFR	12	11	0	DENTIST	447	n/a	n/a	n/a	n/a	0	0	0	0.422607421875	0.5869140625	0	lower	amplitud.ttf
3376381	SLOW_MSG	n/a	LTP093	ltpFR	12	11	n/a	n/a	n/a	n/a	n/a	n/a	n/a	0	0	0	n/a	n/a	n/a	n/a	n/a
3378863	WORD	wordpools/wasnorm_wordpool.txt	LTP093	ltpFR	12	11	0	FORK	594	n/a	n/a	0	n/a	0	0	0	0.422607421875	0.5869140625	0	lower	amplitud.ttf
3383004	WORD	wordpools/wasnorm_wordpool.txt	LTP093	ltpFR	12	11	1	PICTURE	1061	n/a	n/a	0	n/a	0	0	0	0.57763671875	0.412841796875	1	upper	zerothre.ttf
3386912	WORD	wordpools/wasnorm_wordpool.txt	LTP093	ltpFR	12	11	1	HOSE	720	n/a	n/a	0	n/a	0	0	0	0.57763671875	0.412841796875	1	upper	zerothre.ttf
3391120	WORD	wordpools/wasnorm_wordpool.txt	LTP093	ltpFR	12	11	1	SURF	1412	n/a	n/a	0	n/a	0	0	0	0.57763671875	0.412841796875	1	upper	zerothre.ttf
3395162	WORD	wordpools/wasnorm_wordpool.txt	LTP093	ltpFR	12	11	0	LAWYER	806	n/a	n/a	0	n/a	0	0	0	0.422607421875	0.5869140625	0	lower	amplitud.ttf
3399161	WORD	wordpools/wasnorm_wordpool.txt	LTP093	ltpFR	12	11	0	RESORT	1186	n/a	n/a	1	n/a	0	0	0	0.422607421875	0.5869140625	0	lower	amplitud.ttf
3403044	WORD	wordpools/wasnorm_wordpool.txt	LTP093	ltpFR	12	11	0	SCENERY	1247	n/a	n/a	0	n/a	0	0	0	0.422607421875	0.5869140625	0	lower	amplitud.ttf
3407212	WORD	wordpools/wasnorm_wordpool.txt	LTP093	ltpFR	12	11	0	SILVERWARE	1308	n/a	n/a	0	n/a	0	0	0	0.422607421875	0.5869140625	0	lower	amplitud.ttf
3413036	REC_START	n/a	LTP093	ltpFR	12	11	n/a	n/a	n/a	n/a	n/a	n/a	n/a	0	0	0	n/a	n/a	n/a	n/a	n/a
3413959	REC_WORD	wordpools/wasnorm_wordpool.txt	LTP093	ltpFR	12	11	0	SILVERWARE	1308	n/a	n/a	0	n/a	0	0	0	n/a	n/a	n/a	n/a	n/a
3415051	REC_WORD	wordpools/wasnorm_wordpool.txt	LTP093	ltpFR	12	11	0	FORK	594	n/a	n/a	0	n/a	0	0	0	n/a	n/a	n/a	n/a	n/a
3415909	REC_WORD	wordpools/wasnorm_wordpool.txt	LTP093	ltpFR	12	11	0	LAWYER	806	n/a	n/a	0	n/a	0	0	0	n/a	n/a	n/a	n/a	n/a
3416747	REC_WORD	wordpools/wasnorm_wordpool.txt	LTP093	ltpFR	12	11	0	RESORT	1186	n/a	n/a	1	n/a	0	0	0	n/a	n/a	n/a	n/a	n/a
3446994	REC_WORD	wordpools/wasnorm_wordpool.txt	LTP093	ltpFR	12	11	0	WAVE	1596	n/a	n/a	0	n/a	0	0	0	n/a	n/a	n/a	n/a	n/a
3450700	REC_WORD	wordpools/wasnorm_wordpool.txt	LTP093	ltpFR	12	11	1	SURF	1412	n/a	n/a	0	n/a	0	0	0	n/a	n/a	n/a	n/a	n/a
3517977	START	n/a	LTP093	ltpFR	12	n/a	n/a	n/a	n/a	n/a	n/a	n/a	n/a	n/a	n/a	n/a	n/a	n/a	n/a	n/a	n/a
3519478	PROB	n/a	LTP093	ltpFR	12	n/a	n/a	n/a	n/a	n/a	n/a	n/a	15	7	5	3	n/a	n/a	n/a	n/a	n/a
3520835	PROB	n/a	LTP093	ltpFR	12	n/a	n/a	n/a	n/a	n/a	n/a	n/a	18	9	7	2	n/a	n/a	n/a	n/a	n/a
3523553	PROB	n/a	LTP093	ltpFR	12	n/a	n/a	n/a	n/a	n/a	n/a	n/a	10	1	7	2	n/a	n/a	n/a	n/a	n/a
3524808	STOP	n/a	LTP093	ltpFR	12	n/a	n/a	n/a	n/a	n/a	n/a	n/a	n/a	n/a	n/a	n/a	n/a	n/a	n/a	n/a	n/a
3526960	WORD	wordpools/wasnorm_wordpool.txt	LTP093	ltpFR	12	12	1	QUILL	1150	n/a	n/a	0	n/a	0	0	0	0.57763671875	0.412841796875	1	upper	zerothre.ttf
3529968	START	n/a	LTP093	ltpFR	12	n/a	n/a	n/a	n/a	n/a	n/a	n/a	n/a	n/a	n/a	n/a	n/a	n/a	n/a	n/a	n/a
3530884	PROB	n/a	LTP093	ltpFR	12	n/a	n/a	n/a	n/a	n/a	n/a	n/a	10	4	5	1	n/a	n/a	n/a	n/a	n/a
3532184	PROB	n/a	LTP093	ltpFR	12	n/a	n/a	n/a	n/a	n/a	n/a	n/a	21	9	9	3	n/a	n/a	n/a	n/a	n/a
3533751	PROB	n/a	LTP093	ltpFR	12	n/a	n/a	n/a	n/a	n/a	n/a	n/a	27	9	9	9	n/a	n/a	n/a	n/a	n/a
3535468	PROB	n/a	LTP093	ltpFR	12	n/a	n/a	n/a	n/a	n/a	n/a	n/a	12	4	4	4	n/a	n/a	n/a	n/a	n/a
3536553	STOP	n/a	LTP093	ltpFR	12	n/a	n/a	n/a	n/a	n/a	n/a	n/a	n/a	n/a	n/a	n/a	n/a	n/a	n/a	n/a	n/a
3539042	WORD	wordpools/wasnorm_wordpool.txt	LTP093	ltpFR	12	12	1	HOE	711	n/a	n/a	0	n/a	0	0	0	0.57763671875	0.412841796875	1	upper	zerothre.ttf
3542051	START	n/a	LTP093	ltpFR	12	n/a	n/a	n/a	n/a	n/a	n/a	n/a	n/a	n/a	n/a	n/a	n/a	n/a	n/a	n/a	n/a
3542958	PROB	n/a	LTP093	ltpFR	12	n/a	n/a	n/a	n/a	n/a	n/a	n/a	18	5	7	6	n/a	n/a	n/a	n/a	n/a
3544758	PROB	n/a	LTP093	ltpFR	12	n/a	n/a	n/a	n/a	n/a	n/a	n/a	15	1	7	7	n/a	n/a	n/a	n/a	n/a
3545950	PROB	n/a	LTP093	ltpFR	12	n/a	n/a	n/a	n/a	n/a	n/a	n/a	20	9	3	8	n/a	n/a	n/a	n/a	n/a
3548641	STOP	n/a	LTP093	ltpFR	12	n/a	n/a	n/a	n/a	n/a	n/a	n/a	n/a	n/a	n/a	n/a	n/a	n/a	n/a	n/a	n/a
3550991	WORD	wordpools/wasnorm_wordpool.txt	LTP093	ltpFR	12	12	1	LEAF	808	n/a	n/a	1	n/a	0	0	0	0.57763671875	0.412841796875	1	upper	zerothre.ttf
3554000	START	n/a	LTP093	ltpFR	12	n/a	n/a	n/a	n/a	n/a	n/a	n/a	n/a	n/a	n/a	n/a	n/a	n/a	n/a	n/a	n/a
3555191	PROB	n/a	LTP093	ltpFR	12	n/a	n/a	n/a	n/a	n/a	n/a	n/a	19	8	2	9	n/a	n/a	n/a	n/a	n/a
3556467	PROB	n/a	LTP093	ltpFR	12	n/a	n/a	n/a	n/a	n/a	n/a	n/a	16	3	4	9	n/a	n/a	n/a	n/a	n/a
3558916	PROB	n/a	LTP093	ltpFR	12	n/a	n/a	n/a	n/a	n/a	n/a	n/a	5	1	1	3	n/a	n/a	n/a	n/a	n/a
3559915	PROB	n/a	LTP093	ltpFR	12	n/a	n/a	n/a	n/a	n/a	n/a	n/a	7	5	1	1	n/a	n/a	n/a	n/a	n/a
3561016	STOP	n/a	LTP093	ltpFR	12	n/a	n/a	n/a	n/a	n/a	n/a	n/a	n/a	n/a	n/a	n/a	n/a	n/a	n/a	n/a	n/a
3563007	WORD	wordpools/wasnorm_wordpool.txt	LTP093	ltpFR	12	12	1	RAM	1165	n/a	n/a	1	n/a	0	0	0	0.57763671875	0.412841796875	1	upper	zerothre.ttf
3566015	START	n/a	LTP093	ltpFR	12	n/a	n/a	n/a	n/a	n/a	n/a	n/a	n/a	n/a	n/a	n/a	n/a	n/a	n/a	n/a	n/a
3567048	PROB	n/a	LTP093	ltpFR	12	n/a	n/a	n/a	n/a	n/a	n/a	n/a	15	8	2	5	n/a	n/a	n/a	n/a	n/a
3568173	PROB	n/a	LTP093	ltpFR	12	n/a	n/a	n/a	n/a	n/a	n/a	n/a	17	2	7	8	n/a	n/a	n/a	n/a	n/a
3569781	PROB	n/a	LTP093	ltpFR	12	n/a	n/a	n/a	n/a	n/a	n/a	n/a	9	2	2	5	n/a	n/a	n/a	n/a	n/a
3571282	PROB	n/a	LTP093	ltpFR	12	n/a	n/a	n/a	n/a	n/a	n/a	n/a	15	2	4	9	n/a	n/a	n/a	n/a	n/a
3573048	STOP	n/a	LTP093	ltpFR	12	n/a	n/a	n/a	n/a	n/a	n/a	n/a	n/a	n/a	n/a	n/a	n/a	n/a	n/a	n/a	n/a
3574973	WORD	wordpools/wasnorm_wordpool.txt	LTP093	ltpFR	12	12	0	DIRT	472	n/a	n/a	0	n/a	0	0	0	0.422607421875	0.5869140625	0	lower	amplitud.ttf
3577981	START	n/a	LTP093	ltpFR	12	n/a	n/a	n/a	n/a	n/a	n/a	n/a	n/a	n/a	n/a	n/a	n/a	n/a	n/a	n/a	n/a
3578906	PROB	n/a	LTP093	ltpFR	12	n/a	n/a	n/a	n/a	n/a	n/a	n/a	15	5	4	6	n/a	n/a	n/a	n/a	n/a
3580248	PROB	n/a	LTP093	ltpFR	12	n/a	n/a	n/a	n/a	n/a	n/a	n/a	17	9	1	7	n/a	n/a	n/a	n/a	n/a
3581498	PROB	n/a	LTP093	ltpFR	12	n/a	n/a	n/a	n/a	n/a	n/a	n/a	14	8	3	3	n/a	n/a	n/a	n/a	n/a
3584800	STOP	n/a	LTP093	ltpFR	12	n/a	n/a	n/a	n/a	n/a	n/a	n/a	n/a	n/a	n/a	n/a	n/a	n/a	n/a	n/a	n/a
3586930	WORD	wordpools/wasnorm_wordpool.txt	LTP093	ltpFR	12	12	0	CLIMBER	323	n/a	n/a	1	n/a	0	0	0	0.422607421875	0.5869140625	0	lower	amplitud.ttf
3589939	START	n/a	LTP093	ltpFR	12	n/a	n/a	n/a	n/a	n/a	n/a	n/a	n/a	n/a	n/a	n/a	n/a	n/a	n/a	n/a	n/a
3591121	PROB	n/a	LTP093	ltpFR	12	n/a	n/a	n/a	n/a	n/a	n/a	n/a	19	8	4	7	n/a	n/a	n/a	n/a	n/a
3593021	PROB	n/a	LTP093	ltpFR	12	n/a	n/a	n/a	n/a	n/a	n/a	n/a	15	4	4	7	n/a	n/a	n/a	n/a	n/a
3596465	STOP	n/a	LTP093	ltpFR	12	n/a	n/a	n/a	n/a	n/a	n/a	n/a	n/a	n/a	n/a	n/a	n/a	n/a	n/a	n/a	n/a
3599112	WORD	wordpools/wasnorm_wordpool.txt	LTP093	ltpFR	12	12	1	SHOVEL	1295	n/a	n/a	0	n/a	0	0	0	0.57763671875	0.412841796875	1	upper	zerothre.ttf
3602121	START	n/a	LTP093	ltpFR	12	n/a	n/a	n/a	n/a	n/a	n/a	n/a	n/a	n/a	n/a	n/a	n/a	n/a	n/a	n/a	n/a
3603129	PROB	n/a	LTP093	ltpFR	12	n/a	n/a	n/a	n/a	n/a	n/a	n/a	16	4	7	5	n/a	n/a	n/a	n/a	n/a
3605696	PROB	n/a	LTP093	ltpFR	12	n/a	n/a	n/a	n/a	n/a	n/a	n/a	13	2	4	7	n/a	n/a	n/a	n/a	n/a
3607738	PROB	n/a	LTP093	ltpFR	12	n/a	n/a	n/a	n/a	n/a	n/a	n/a	12	2	4	6	n/a	n/a	n/a	n/a	n/a
3609361	STOP	n/a	LTP093	ltpFR	12	n/a	n/a	n/a	n/a	n/a	n/a	n/a	n/a	n/a	n/a	n/a	n/a	n/a	n/a	n/a	n/a
3610953	WORD	wordpools/wasnorm_wordpool.txt	LTP093	ltpFR	12	12	1	DIGGER	464	n/a	n/a	0	n/a	0	0	0	0.57763671875	0.412841796875	1	upper	zerothre.ttf
3613962	START	n/a	LTP093	ltpFR	12	n/a	n/a	n/a	n/a	n/a	n/a	n/a	n/a	n/a	n/a	n/a	n/a	n/a	n/a	n/a	n/a
3615153	PROB	n/a	LTP093	ltpFR	12	n/a	n/a	n/a	n/a	n/a	n/a	n/a	21	8	5	8	n/a	n/a	n/a	n/a	n/a
3617345	PROB	n/a	LTP093	ltpFR	12	n/a	n/a	n/a	n/a	n/a	n/a	n/a	10	2	3	5	n/a	n/a	n/a	n/a	n/a
3619094	PROB	n/a	LTP093	ltpFR	12	n/a	n/a	n/a	n/a	n/a	n/a	n/a	19	9	3	7	n/a	n/a	n/a	n/a	n/a
3620617	STOP	n/a	LTP093	ltpFR	12	n/a	n/a	n/a	n/a	n/a	n/a	n/a	n/a	n/a	n/a	n/a	n/a	n/a	n/a	n/a	n/a
3622886	WORD	wordpools/wasnorm_wordpool.txt	LTP093	ltpFR	12	12	0	GULL	671	n/a	n/a	0	n/a	0	0	0	0.422607421875	0.5869140625	0	lower	amplitud.ttf
3625894	START	n/a	LTP093	ltpFR	12	n/a	n/a	n/a	n/a	n/a	n/a	n/a	n/a	n/a	n/a	n/a	n/a	n/a	n/a	n/a	n/a
3627052	PROB	n/a	LTP093	ltpFR	12	n/a	n/a	n/a	n/a	n/a	n/a	n/a	16	2	8	6	n/a	n/a	n/a	n/a	n/a
3628361	PROB	n/a	LTP093	ltpFR	12	n/a	n/a	n/a	n/a	n/a	n/a	n/a	12	8	3	1	n/a	n/a	n/a	n/a	n/a
3629752	PROB	n/a	LTP093	ltpFR	12	n/a	n/a	n/a	n/a	n/a	n/a	n/a	18	4	5	9	n/a	n/a	n/a	n/a	n/a
3631118	PROB	n/a	LTP093	ltpFR	12	n/a	n/a	n/a	n/a	n/a	n/a	n/a	17	2	6	9	n/a	n/a	n/a	n/a	n/a
3632848	STOP	n/a	LTP093	ltpFR	12	n/a	n/a	n/a	n/a	n/a	n/a	n/a	n/a	n/a	n/a	n/a	n/a	n/a	n/a	n/a	n/a
3635010	WORD	wordpools/wasnorm_wordpool.txt	LTP093	ltpFR	12	12	0	CROSS	413	n/a	n/a	0	n/a	0	0	0	0.422607421875	0.5869140625	0	lower	amplitud.ttf
3638018	START	n/a	LTP093	ltpFR	12	n/a	n/a	n/a	n/a	n/a	n/a	n/a	n/a	n/a	n/a	n/a	n/a	n/a	n/a	n/a	n/a
3638968	PROB	n/a	LTP093	ltpFR	12	n/a	n/a	n/a	n/a	n/a	n/a	n/a	7	1	4	2	n/a	n/a	n/a	n/a	n/a
3640668	PROB	n/a	LTP093	ltpFR	12	n/a	n/a	n/a	n/a	n/a	n/a	n/a	6	1	1	4	n/a	n/a	n/a	n/a	n/a
3641718	PROB	n/a	LTP093	ltpFR	12	n/a	n/a	n/a	n/a	n/a	n/a	n/a	14	8	4	2	n/a	n/a	n/a	n/a	n/a
3643959	PROB	n/a	LTP093	ltpFR	12	n/a	n/a	n/a	n/a	n/a	n/a	n/a	16	5	5	6	n/a	n/a	n/a	n/a	n/a
3645080	STOP	n/a	LTP093	ltpFR	12	n/a	n/a	n/a	n/a	n/a	n/a	n/a	n/a	n/a	n/a	n/a	n/a	n/a	n/a	n/a	n/a
3647075	WORD	wordpools/wasnorm_wordpool.txt	LTP093	ltpFR	12	12	0	SIDEWALK	1303	n/a	n/a	0	n/a	0	0	0	0.422607421875	0.5869140625	0	lower	amplitud.ttf
3650076	START	n/a	LTP093	ltpFR	12	n/a	n/a	n/a	n/a	n/a	n/a	n/a	n/a	n/a	n/a	n/a	n/a	n/a	n/a	n/a	n/a
3650967	PROB	n/a	LTP093	ltpFR	12	n/a	n/a	n/a	n/a	n/a	n/a	n/a	23	9	6	8	n/a	n/a	n/a	n/a	n/a
3653075	PROB	n/a	LTP093	ltpFR	12	n/a	n/a	n/a	n/a	n/a	n/a	n/a	17	7	7	3	n/a	n/a	n/a	n/a	n/a
3654991	PROB	n/a	LTP093	ltpFR	12	n/a	n/a	n/a	n/a	n/a	n/a	n/a	11	8	2	1	n/a	n/a	n/a	n/a	n/a
3656234	PROB	n/a	LTP093	ltpFR	12	n/a	n/a	n/a	n/a	n/a	n/a	n/a	17	9	1	7	n/a	n/a	n/a	n/a	n/a
3657401	STOP	n/a	LTP093	ltpFR	12	n/a	n/a	n/a	n/a	n/a	n/a	n/a	n/a	n/a	n/a	n/a	n/a	n/a	n/a	n/a	n/a
3659225	WORD	wordpools/wasnorm_wordpool.txt	LTP093	ltpFR	12	12	0	SUPERMARKET	1409	n/a	n/a	0	n/a	0	0	0	0.422607421875	0.5869140625	0	lower	amplitud.ttf
3662226	START	n/a	LTP093	ltpFR	12	n/a	n/a	n/a	n/a	n/a	n/a	n/a	n/a	n/a	n/a	n/a	n/a	n/a	n/a	n/a	n/a
3663317	PROB	n/a	LTP093	ltpFR	12	n/a	n/a	n/a	n/a	n/a	n/a	n/a	12	7	1	4	n/a	n/a	n/a	n/a	n/a
3664807	PROB	n/a	LTP093	ltpFR	12	n/a	n/a	n/a	n/a	n/a	n/a	n/a	7	4	2	1	n/a	n/a	n/a	n/a	n/a
3666149	PROB	n/a	LTP093	ltpFR	12	n/a	n/a	n/a	n/a	n/a	n/a	n/a	15	9	3	3	n/a	n/a	n/a	n/a	n/a
3667849	PROB	n/a	LTP093	ltpFR	12	n/a	n/a	n/a	n/a	n/a	n/a	n/a	21	6	6	9	n/a	n/a	n/a	n/a	n/a
3669585	STOP	n/a	LTP093	ltpFR	12	n/a	n/a	n/a	n/a	n/a	n/a	n/a	n/a	n/a	n/a	n/a	n/a	n/a	n/a	n/a	n/a
3671140	WORD	wordpools/wasnorm_wordpool.txt	LTP093	ltpFR	12	12	0	ROBIN	1199	n/a	n/a	0	n/a	0	0	0	0.422607421875	0.5869140625	0	lower	amplitud.ttf
3674149	START	n/a	LTP093	ltpFR	12	n/a	n/a	n/a	n/a	n/a	n/a	n/a	n/a	n/a	n/a	n/a	n/a	n/a	n/a	n/a	n/a
3675040	PROB	n/a	LTP093	ltpFR	12	n/a	n/a	n/a	n/a	n/a	n/a	n/a	11	1	9	1	n/a	n/a	n/a	n/a	n/a
3676299	PROB	n/a	LTP093	ltpFR	12	n/a	n/a	n/a	n/a	n/a	n/a	n/a	13	1	8	4	n/a	n/a	n/a	n/a	n/a
3678848	PROB	n/a	LTP093	ltpFR	12	n/a	n/a	n/a	n/a	n/a	n/a	n/a	10	2	4	4	n/a	n/a	n/a	n/a	n/a
3680399	PROB	n/a	LTP093	ltpFR	12	n/a	n/a	n/a	n/a	n/a	n/a	n/a	8	2	2	4	n/a	n/a	n/a	n/a	n/a
3681832	STOP	n/a	LTP093	ltpFR	12	n/a	n/a	n/a	n/a	n/a	n/a	n/a	n/a	n/a	n/a	n/a	n/a	n/a	n/a	n/a	n/a
3683073	WORD	wordpools/wasnorm_wordpool.txt	LTP093	ltpFR	12	12	0	PARTY	1018	n/a	n/a	0	n/a	0	0	0	0.422607421875	0.5869140625	0	lower	amplitud.ttf
3686081	START	n/a	LTP093	ltpFR	12	n/a	n/a	n/a	n/a	n/a	n/a	n/a	n/a	n/a	n/a	n/a	n/a	n/a	n/a	n/a	n/a
3686956	PROB	n/a	LTP093	ltpFR	12	n/a	n/a	n/a	n/a	n/a	n/a	n/a	13	2	3	8	n/a	n/a	n/a	n/a	n/a
3688223	PROB	n/a	LTP093	ltpFR	12	n/a	n/a	n/a	n/a	n/a	n/a	n/a	18	1	9	8	n/a	n/a	n/a	n/a	n/a
3689540	PROB	n/a	LTP093	ltpFR	12	n/a	n/a	n/a	n/a	n/a	n/a	n/a	17	4	7	6	n/a	n/a	n/a	n/a	n/a
3691473	PROB	n/a	LTP093	ltpFR	12	n/a	n/a	n/a	n/a	n/a	n/a	n/a	15	5	8	2	n/a	n/a	n/a	n/a	n/a
3692633	STOP	n/a	LTP093	ltpFR	12	n/a	n/a	n/a	n/a	n/a	n/a	n/a	n/a	n/a	n/a	n/a	n/a	n/a	n/a	n/a	n/a
3695256	WORD	wordpools/wasnorm_wordpool.txt	LTP093	ltpFR	12	12	1	CARNIVAL	245	n/a	n/a	0	n/a	0	0	0	0.57763671875	0.412841796875	1	upper	zerothre.ttf
3698265	START	n/a	LTP093	ltpFR	12	n/a	n/a	n/a	n/a	n/a	n/a	n/a	n/a	n/a	n/a	n/a	n/a	n/a	n/a	n/a	n/a
3699422	PROB	n/a	LTP093	ltpFR	12	n/a	n/a	n/a	n/a	n/a	n/a	n/a	21	9	3	9	n/a	n/a	n/a	n/a	n/a
3700771	PROB	n/a	LTP093	ltpFR	12	n/a	n/a	n/a	n/a	n/a	n/a	n/a	23	9	8	6	n/a	n/a	n/a	n/a	n/a
3706264	STOP	n/a	LTP093	ltpFR	12	n/a	n/a	n/a	n/a	n/a	n/a	n/a	n/a	n/a	n/a	n/a	n/a	n/a	n/a	n/a	n/a
3707255	WORD	wordpools/wasnorm_wordpool.txt	LTP093	ltpFR	12	12	1	PAWN	1030	n/a	n/a	0	n/a	0	0	0	0.57763671875	0.412841796875	1	upper	zerothre.ttf
3710263	START	n/a	LTP093	ltpFR	12	n/a	n/a	n/a	n/a	n/a	n/a	n/a	n/a	n/a	n/a	n/a	n/a	n/a	n/a	n/a	n/a
3711162	PROB	n/a	LTP093	ltpFR	12	n/a	n/a	n/a	n/a	n/a	n/a	n/a	16	2	7	7	n/a	n/a	n/a	n/a	n/a
3712979	PROB	n/a	LTP093	ltpFR	12	n/a	n/a	n/a	n/a	n/a	n/a	n/a	17	3	7	7	n/a	n/a	n/a	n/a	n/a
3714438	PROB	n/a	LTP093	ltpFR	12	n/a	n/a	n/a	n/a	n/a	n/a	n/a	12	2	9	1	n/a	n/a	n/a	n/a	n/a
3716238	PROB	n/a	LTP093	ltpFR	12	n/a	n/a	n/a	n/a	n/a	n/a	n/a	11	5	4	2	n/a	n/a	n/a	n/a	n/a
3717569	STOP	n/a	LTP093	ltpFR	12	n/a	n/a	n/a	n/a	n/a	n/a	n/a	n/a	n/a	n/a	n/a	n/a	n/a	n/a	n/a	n/a
3720037	REC_START	n/a	LTP093	ltpFR	12	12	n/a	n/a	n/a	n/a	n/a	n/a	n/a	0	0	0	n/a	n/a	n/a	n/a	n/a
3720735	REC_WORD	wordpools/wasnorm_wordpool.txt	LTP093	ltpFR	12	12	1	PAWN	1030	n/a	n/a	0	n/a	0	0	0	n/a	n/a	n/a	n/a	n/a
3721663	REC_WORD	wordpools/wasnorm_wordpool.txt	LTP093	ltpFR	12	12	0	PARTY	1018	n/a	n/a	0	n/a	0	0	0	n/a	n/a	n/a	n/a	n/a
3744771	REC_WORD	wordpools/wasnorm_wordpool.txt	LTP093	ltpFR	12	12	1	HOE	711	n/a	n/a	0	n/a	0	0	0	n/a	n/a	n/a	n/a	n/a
3812880	REC_START	n/a	LTP093	ltpFR	12	1	n/a	n/a	n/a	n/a	n/a	n/a	n/a	0	0	0	n/a	n/a	n/a	n/a	n/a
3812912	RECOG_TARGET	n/a	LTP093	ltpFR	12	1	1	SHOVEL	1295	1	5	0	n/a	0	0	0	n/a	n/a	n/a	n/a	n/a
3814297	RECOG_RESP	n/a	LTP093	ltpFR	12	1	1	SHOVEL	1295	1	n/a	0	n/a	0	0	0	n/a	n/a	n/a	n/a	n/a
3815768	RECOG_CONF	n/a	LTP093	ltpFR	12	1	1	SHOVEL	1295	n/a	5	0	n/a	0	0	0	n/a	n/a	n/a	n/a	n/a
3817413	RECOG_TARGET	n/a	LTP093	ltpFR	12	1	1	MUFFIN	929	1	5	0	n/a	0	0	0	n/a	n/a	n/a	n/a	n/a
3817993	RECOG_RESP	n/a	LTP093	ltpFR	12	1	1	MUFFIN	929	1	n/a	0	n/a	0	0	0	n/a	n/a	n/a	n/a	n/a
3818662	RECOG_CONF	n/a	LTP093	ltpFR	12	1	1	MUFFIN	929	n/a	5	0	n/a	0	0	0	n/a	n/a	n/a	n/a	n/a
3819995	RECOG_TARGET	n/a	LTP093	ltpFR	12	1	0	SICKLE	1302	1	5	0	n/a	0	0	0	n/a	n/a	n/a	n/a	n/a
3820468	RECOG_RESP	n/a	LTP093	ltpFR	12	1	0	SICKLE	1302	1	n/a	0	n/a	0	0	0	n/a	n/a	n/a	n/a	n/a
3821026	RECOG_CONF	n/a	LTP093	ltpFR	12	1	0	SICKLE	1302	n/a	5	0	n/a	0	0	0	n/a	n/a	n/a	n/a	n/a
3822321	RECOG_LURE	n/a	LTP093	ltpFR	12	1	n/a	BACKBONE	66	0	4	n/a	n/a	0	0	0	n/a	n/a	n/a	n/a	n/a
3822842	RECOG_RESP	n/a	LTP093	ltpFR	12	1	n/a	BACKBONE	66	0	n/a	n/a	n/a	0	0	0	n/a	n/a	n/a	n/a	n/a
3823441	RECOG_CONF	n/a	LTP093	ltpFR	12	1	n/a	BACKBONE	66	n/a	4	n/a	n/a	0	0	0	n/a	n/a	n/a	n/a	n/a
3824679	RECOG_TARGET	n/a	LTP093	ltpFR	12	1	1	QUILL	1150	1	5	0	n/a	0	0	0	n/a	n/a	n/a	n/a	n/a
3825267	RECOG_RESP	n/a	LTP093	ltpFR	12	1	1	QUILL	1150	1	n/a	0	n/a	0	0	0	n/a	n/a	n/a	n/a	n/a
3825756	RECOG_CONF	n/a	LTP093	ltpFR	12	1	1	QUILL	1150	n/a	5	0	n/a	0	0	0	n/a	n/a	n/a	n/a	n/a
3827086	RECOG_LURE	n/a	LTP093	ltpFR	12	1	n/a	METEOR	889	0	4	n/a	n/a	0	0	0	n/a	n/a	n/a	n/a	n/a
3827736	RECOG_RESP	n/a	LTP093	ltpFR	12	1	n/a	METEOR	889	0	n/a	n/a	n/a	0	0	0	n/a	n/a	n/a	n/a	n/a
3828230	RECOG_CONF	n/a	LTP093	ltpFR	12	1	n/a	METEOR	889	n/a	4	n/a	n/a	0	0	0	n/a	n/a	n/a	n/a	n/a
3829637	RECOG_TARGET	n/a	LTP093	ltpFR	12	1	1	DOG	480	1	5	1	n/a	0	0	0	n/a	n/a	n/a	n/a	n/a
3830146	RECOG_RESP	n/a	LTP093	ltpFR	12	1	1	DOG	480	1	n/a	1	n/a	0	0	0	n/a	n/a	n/a	n/a	n/a
3830654	RECOG_CONF	n/a	LTP093	ltpFR	12	1	1	DOG	480	n/a	5	1	n/a	0	0	0	n/a	n/a	n/a	n/a	n/a
3831978	RECOG_LURE	n/a	LTP093	ltpFR	12	1	n/a	DYNAMITE	511	0	4	n/a	n/a	0	0	0	n/a	n/a	n/a	n/a	n/a
3832550	RECOG_RESP	n/a	LTP093	ltpFR	12	1	n/a	DYNAMITE	511	0	n/a	n/a	n/a	0	0	0	n/a	n/a	n/a	n/a	n/a
3833129	RECOG_CONF	n/a	LTP093	ltpFR	12	1	n/a	DYNAMITE	511	n/a	4	n/a	n/a	0	0	0	n/a	n/a	n/a	n/a	n/a
3834437	RECOG_LURE	n/a	LTP093	ltpFR	12	1	n/a	GARBAGE	622	0	4	n/a	n/a	0	0	0	n/a	n/a	n/a	n/a	n/a
3834995	RECOG_RESP	n/a	LTP093	ltpFR	12	1	n/a	GARBAGE	622	0	n/a	n/a	n/a	0	0	0	n/a	n/a	n/a	n/a	n/a
3835673	RECOG_CONF	n/a	LTP093	ltpFR	12	1	n/a	GARBAGE	622	n/a	4	n/a	n/a	0	0	0	n/a	n/a	n/a	n/a	n/a
3836877	RECOG_TARGET	n/a	LTP093	ltpFR	12	1	0	OTTER	986	1	5	0	n/a	0	0	0	n/a	n/a	n/a	n/a	n/a
3837399	RECOG_RESP	n/a	LTP093	ltpFR	12	1	0	OTTER	986	1	n/a	0	n/a	0	0	0	n/a	n/a	n/a	n/a	n/a
3838008	RECOG_CONF	n/a	LTP093	ltpFR	12	1	0	OTTER	986	n/a	5	0	n/a	0	0	0	n/a	n/a	n/a	n/a	n/a
3839311	RECOG_TARGET	n/a	LTP093	ltpFR	12	1	1	SKELETON	1314	1	5	0	n/a	0	0	0	n/a	n/a	n/a	n/a	n/a
3839799	RECOG_RESP	n/a	LTP093	ltpFR	12	1	1	SKELETON	1314	1	n/a	0	n/a	0	0	0	n/a	n/a	n/a	n/a	n/a
3840382	RECOG_CONF	n/a	LTP093	ltpFR	12	1	1	SKELETON	1314	n/a	5	0	n/a	0	0	0	n/a	n/a	n/a	n/a	n/a
3841636	RECOG_TARGET	n/a	LTP093	ltpFR	12	1	0	SIDING	1304	1	5	0	n/a	0	0	0	n/a	n/a	n/a	n/a	n/a
3842193	RECOG_RESP	n/a	LTP093	ltpFR	12	1	0	SIDING	1304	1	n/a	0	n/a	0	0	0	n/a	n/a	n/a	n/a	n/a
3842966	RECOG_CONF	n/a	LTP093	ltpFR	12	1	0	SIDING	1304	n/a	5	0	n/a	0	0	0	n/a	n/a	n/a	n/a	n/a
3844361	RECOG_LURE	n/a	LTP093	ltpFR	12	1	n/a	GYM	674	0	4	n/a	n/a	0	0	0	n/a	n/a	n/a	n/a	n/a
3844862	RECOG_RESP	n/a	LTP093	ltpFR	12	1	n/a	GYM	674	0	n/a	n/a	n/a	0	0	0	n/a	n/a	n/a	n/a	n/a
3845461	RECOG_CONF	n/a	LTP093	ltpFR	12	1	n/a	GYM	674	n/a	4	n/a	n/a	0	0	0	n/a	n/a	n/a	n/a	n/a
3846686	RECOG_TARGET	n/a	LTP093	ltpFR	12	1	0	DEER	444	1	5	1	n/a	0	0	0	n/a	n/a	n/a	n/a	n/a
3847322	RECOG_RESP	n/a	LTP093	ltpFR	12	1	0	DEER	444	1	n/a	1	n/a	0	0	0	n/a	n/a	n/a	n/a	n/a
3847895	RECOG_CONF	n/a	LTP093	ltpFR	12	1	0	DEER	444	n/a	5	1	n/a	0	0	0	n/a	n/a	n/a	n/a	n/a
3849110	RECOG_LURE	n/a	LTP093	ltpFR	12	1	n/a	WARRIOR	1589	0	4	n/a	n/a	0	0	0	n/a	n/a	n/a	n/a	n/a
3849791	RECOG_RESP	n/a	LTP093	ltpFR	12	1	n/a	WARRIOR	1589	0	n/a	n/a	n/a	0	0	0	n/a	n/a	n/a	n/a	n/a
3850400	RECOG_CONF	n/a	LTP093	ltpFR	12	1	n/a	WARRIOR	1589	n/a	4	n/a	n/a	0	0	0	n/a	n/a	n/a	n/a	n/a
3851627	RECOG_TARGET	n/a	LTP093	ltpFR	12	1	1	FOX	598	1	5	1	n/a	0	0	0	n/a	n/a	n/a	n/a	n/a
