onset	duration	trial_type	sample	stim_file	subject	experiment	session	trial	task	item_name	item_num	recog_conf	resp	color_b	color_g	color_r	case	font
294.382	n/a	SESS_START	147191	n/a	LTP237	ltpFR	17	n/a	n/a	n/a	n/a	5	n/a	n/a	n/a	n/a	n/a	n/a
319.21	n/a	WORD	159605	wordpools/wasnorm_wordpool_less_exclusions.txt	LTP237	ltpFR	17	1	1	TRAY	1498	n/a	0	0	0.5869140625	0.422607421875	upper	../fonts/zerothre.ttf
323.376	n/a	WORD	161688	wordpools/wasnorm_wordpool_less_exclusions.txt	LTP237	ltpFR	17	1	1	CHEF	290	n/a	1	0	0.5869140625	0.422607421875	upper	../fonts/zerothre.ttf
327.29	n/a	WORD	163645	wordpools/wasnorm_wordpool_less_exclusions.txt	LTP237	ltpFR	17	1	0	STREAM	1392	n/a	1	1	0.412841796875	0.57763671875	lower	../fonts/amplitud.ttf
331.356	n/a	WORD	165678	wordpools/wasnorm_wordpool_less_exclusions.txt	LTP237	ltpFR	17	1	0	ELECTRICIAN	521	n/a	1	1	0.412841796875	0.57763671875	lower	../fonts/amplitud.ttf
335.322	n/a	WORD	167661	wordpools/wasnorm_wordpool_less_exclusions.txt	LTP237	ltpFR	17	1	0	TEAM	1441	n/a	1	1	0.412841796875	0.57763671875	lower	../fonts/amplitud.ttf
339.52	n/a	WORD	169760	wordpools/wasnorm_wordpool_less_exclusions.txt	LTP237	ltpFR	17	1	0	SMOG	1330	n/a	0	1	0.412841796875	0.57763671875	lower	../fonts/amplitud.ttf
343.554	n/a	WORD	171777	wordpools/wasnorm_wordpool_less_exclusions.txt	LTP237	ltpFR	17	1	1	BANKER	84	n/a	1	0	0.5869140625	0.422607421875	upper	../fonts/zerothre.ttf
347.4	n/a	WORD	173700	wordpools/wasnorm_wordpool_less_exclusions.txt	LTP237	ltpFR	17	1	1	QUARTER	1148	n/a	0	0	0.5869140625	0.422607421875	upper	../fonts/zerothre.ttf
351.466	n/a	WORD	175733	wordpools/wasnorm_wordpool_less_exclusions.txt	LTP237	ltpFR	17	1	1	FRECKLE	602	n/a	0	0	0.5869140625	0.422607421875	upper	../fonts/zerothre.ttf
355.448	n/a	WORD	177724	wordpools/wasnorm_wordpool_less_exclusions.txt	LTP237	ltpFR	17	1	0	ZIPPER	1636	n/a	0	1	0.412841796875	0.57763671875	lower	../fonts/amplitud.ttf
359.33	n/a	WORD	179665	wordpools/wasnorm_wordpool_less_exclusions.txt	LTP237	ltpFR	17	1	0	PEN	1041	n/a	0	1	0.412841796875	0.57763671875	lower	../fonts/amplitud.ttf
363.194	n/a	WORD	181597	wordpools/wasnorm_wordpool_less_exclusions.txt	LTP237	ltpFR	17	1	0	ATHLETE	52	n/a	1	1	0.412841796875	0.57763671875	lower	../fonts/amplitud.ttf
367.324	n/a	WORD	183662	wordpools/wasnorm_wordpool_less_exclusions.txt	LTP237	ltpFR	17	1	0	SAILOR	1223	n/a	1	1	0.412841796875	0.57763671875	lower	../fonts/amplitud.ttf
371.376	n/a	WORD	185688	wordpools/wasnorm_wordpool_less_exclusions.txt	LTP237	ltpFR	17	1	1	COMMANDER	354	n/a	1	0	0.5869140625	0.422607421875	upper	../fonts/zerothre.ttf
375.508	n/a	WORD	187754	wordpools/wasnorm_wordpool_less_exclusions.txt	LTP237	ltpFR	17	1	1	CONTAINER	366	n/a	0	0	0.5869140625	0.422607421875	upper	../fonts/zerothre.ttf
379.406	n/a	WORD	189703	wordpools/wasnorm_wordpool_less_exclusions.txt	LTP237	ltpFR	17	1	1	TECHNICIAN	1443	n/a	1	0	0.5869140625	0.422607421875	upper	../fonts/zerothre.ttf
385.262	n/a	REC_START	192631	n/a	LTP237	ltpFR	17	1	n/a	n/a	n/a	n/a	n/a	n/a	n/a	n/a	n/a	n/a
386.31	n/a	REC_WORD	193155	wordpools/wasnorm_wordpool_less_exclusions.txt	LTP237	ltpFR	17	1	1	TECHNICIAN	1443	n/a	1	n/a	n/a	n/a	n/a	n/a
387.432	n/a	REC_WORD	193716	wordpools/wasnorm_wordpool_less_exclusions.txt	LTP237	ltpFR	17	1	1	TRAY	1498	n/a	0	n/a	n/a	n/a	n/a	n/a
389.058	n/a	REC_WORD	194529	wordpools/wasnorm_wordpool_less_exclusions.txt	LTP237	ltpFR	17	1	1	CHEF	290	n/a	1	n/a	n/a	n/a	n/a	n/a
395.116	n/a	REC_WORD	197558	wordpools/wasnorm_wordpool_less_exclusions.txt	LTP237	ltpFR	17	1	0	SAILOR	1223	n/a	1	n/a	n/a	n/a	n/a	n/a
419.9	n/a	REC_WORD	209950	wordpools/wasnorm_wordpool_less_exclusions.txt	LTP237	ltpFR	17	1	1	BANKER	84	n/a	1	n/a	n/a	n/a	n/a	n/a
420.674	n/a	REC_WORD	210337	wordpools/wasnorm_wordpool_less_exclusions.txt	LTP237	ltpFR	17	1	1	QUARTER	1148	n/a	0	n/a	n/a	n/a	n/a	n/a
424.51	n/a	REC_WORD	212255	wordpools/wasnorm_wordpool_less_exclusions.txt	LTP237	ltpFR	17	1	0	PEN	1041	n/a	0	n/a	n/a	n/a	n/a	n/a
425.602	n/a	REC_WORD	212801	wordpools/wasnorm_wordpool_less_exclusions.txt	LTP237	ltpFR	17	1	0	SMOG	1330	n/a	0	n/a	n/a	n/a	n/a	n/a
429.964	n/a	REC_WORD	214982	wordpools/wasnorm_wordpool_less_exclusions.txt	LTP237	ltpFR	17	1	0	STREAM	1392	n/a	1	n/a	n/a	n/a	n/a	n/a
430.976	n/a	REC_WORD	215488	wordpools/wasnorm_wordpool_less_exclusions.txt	LTP237	ltpFR	17	1	0	TEAM	1441	n/a	1	n/a	n/a	n/a	n/a	n/a
436.648	n/a	REC_WORD	218324	wordpools/wasnorm_wordpool_less_exclusions.txt	LTP237	ltpFR	17	1	0	ATHLETE	52	n/a	1	n/a	n/a	n/a	n/a	n/a
479.422	n/a	WORD	239711	wordpools/wasnorm_wordpool_less_exclusions.txt	LTP237	ltpFR	17	2	0	CHEMIST	292	n/a	0	1	0.412841796875	0.57763671875	lower	../fonts/amplitud.ttf
483.27	n/a	WORD	241635	wordpools/wasnorm_wordpool_less_exclusions.txt	LTP237	ltpFR	17	2	0	PELT	1040	n/a	0	1	0.412841796875	0.57763671875	lower	../fonts/amplitud.ttf
487.118	n/a	WORD	243559	wordpools/wasnorm_wordpool_less_exclusions.txt	LTP237	ltpFR	17	2	0	OPERA	978	n/a	1	1	0.412841796875	0.57763671875	lower	../fonts/amplitud.ttf
491.218	n/a	WORD	245609	wordpools/wasnorm_wordpool_less_exclusions.txt	LTP237	ltpFR	17	2	0	OZONE	996	n/a	1	1	0.412841796875	0.57763671875	lower	../fonts/amplitud.ttf
495.148	n/a	WORD	247574	wordpools/wasnorm_wordpool_less_exclusions.txt	LTP237	ltpFR	17	2	1	FLY	586	n/a	1	0	0.5869140625	0.422607421875	upper	../fonts/zerothre.ttf
499.114	n/a	WORD	249557	wordpools/wasnorm_wordpool_less_exclusions.txt	LTP237	ltpFR	17	2	1	SEAGULL	1261	n/a	1	0	0.5869140625	0.422607421875	upper	../fonts/zerothre.ttf
503.18	n/a	WORD	251590	wordpools/wasnorm_wordpool_less_exclusions.txt	LTP237	ltpFR	17	2	1	POLE	1097	n/a	0	0	0.5869140625	0.422607421875	upper	../fonts/zerothre.ttf
507.212	n/a	WORD	253606	wordpools/wasnorm_wordpool_less_exclusions.txt	LTP237	ltpFR	17	2	0	CHAUFFEUR	283	n/a	1	1	0.412841796875	0.57763671875	lower	../fonts/amplitud.ttf
511.412	n/a	WORD	255706	wordpools/wasnorm_wordpool_less_exclusions.txt	LTP237	ltpFR	17	2	0	CATERPILLAR	259	n/a	1	1	0.412841796875	0.57763671875	lower	../fonts/amplitud.ttf
515.342	n/a	WORD	257671	wordpools/wasnorm_wordpool_less_exclusions.txt	LTP237	ltpFR	17	2	0	BUG	187	n/a	1	1	0.412841796875	0.57763671875	lower	../fonts/amplitud.ttf
519.308	n/a	WORD	259654	wordpools/wasnorm_wordpool_less_exclusions.txt	LTP237	ltpFR	17	2	0	CONCERT	360	n/a	1	1	0.412841796875	0.57763671875	lower	../fonts/amplitud.ttf
523.29	n/a	WORD	261645	wordpools/wasnorm_wordpool_less_exclusions.txt	LTP237	ltpFR	17	2	1	CUSHION	428	n/a	0	0	0.5869140625	0.422607421875	upper	../fonts/zerothre.ttf
527.422	n/a	WORD	263711	wordpools/wasnorm_wordpool_less_exclusions.txt	LTP237	ltpFR	17	2	1	CHEMICAL	291	n/a	0	0	0.5869140625	0.422607421875	upper	../fonts/zerothre.ttf
531.484	n/a	WORD	265742	wordpools/wasnorm_wordpool_less_exclusions.txt	LTP237	ltpFR	17	2	1	STAKE	1368	n/a	0	0	0.5869140625	0.422607421875	upper	../fonts/zerothre.ttf
535.62	n/a	WORD	267810	wordpools/wasnorm_wordpool_less_exclusions.txt	LTP237	ltpFR	17	2	1	PLAID	1080	n/a	0	0	0.5869140625	0.422607421875	upper	../fonts/zerothre.ttf
539.736	n/a	WORD	269868	wordpools/wasnorm_wordpool_less_exclusions.txt	LTP237	ltpFR	17	2	1	COLLAR	345	n/a	0	0	0.5869140625	0.422607421875	upper	../fonts/zerothre.ttf
545.522	n/a	REC_START	272761	n/a	LTP237	ltpFR	17	2	n/a	n/a	n/a	n/a	n/a	n/a	n/a	n/a	n/a	n/a
546.984	n/a	REC_WORD	273492	wordpools/wasnorm_wordpool_less_exclusions.txt	LTP237	ltpFR	17	2	1	STAKE	1368	n/a	0	n/a	n/a	n/a	n/a	n/a
547.842	n/a	REC_WORD	273921	wordpools/wasnorm_wordpool_less_exclusions.txt	LTP237	ltpFR	17	2	1	PLAID	1080	n/a	0	n/a	n/a	n/a	n/a	n/a
548.636	n/a	REC_WORD	274318	wordpools/wasnorm_wordpool_less_exclusions.txt	LTP237	ltpFR	17	2	1	COLLAR	345	n/a	0	n/a	n/a	n/a	n/a	n/a
549.534	n/a	REC_WORD	274767	wordpools/wasnorm_wordpool_less_exclusions.txt	LTP237	ltpFR	17	2	1	CHEMICAL	291	n/a	0	n/a	n/a	n/a	n/a	n/a
550.906	n/a	REC_WORD	275453	wordpools/wasnorm_wordpool_less_exclusions.txt	LTP237	ltpFR	17	2	0	CHEMIST	292	n/a	0	n/a	n/a	n/a	n/a	n/a
555.07	n/a	REC_WORD	277535	wordpools/wasnorm_wordpool_less_exclusions.txt	LTP237	ltpFR	17	2	1	CUSHION	428	n/a	0	n/a	n/a	n/a	n/a	n/a
556.268	n/a	REC_WORD	278134	wordpools/wasnorm_wordpool_less_exclusions.txt	LTP237	ltpFR	17	2	0	CONCERT	360	n/a	1	n/a	n/a	n/a	n/a	n/a
646.11	n/a	WORD	323055	wordpools/wasnorm_wordpool_less_exclusions.txt	LTP237	ltpFR	17	3	0	OATS	968	n/a	0	1	0.412841796875	0.57763671875	lower	../fonts/amplitud.ttf
650.274	n/a	WORD	325137	wordpools/wasnorm_wordpool_less_exclusions.txt	LTP237	ltpFR	17	3	0	BARN	89	n/a	0	1	0.412841796875	0.57763671875	lower	../fonts/amplitud.ttf
654.486	n/a	WORD	327243	wordpools/wasnorm_wordpool_less_exclusions.txt	LTP237	ltpFR	17	3	0	CARD	243	n/a	0	1	0.412841796875	0.57763671875	lower	../fonts/amplitud.ttf
658.52	n/a	WORD	329260	wordpools/wasnorm_wordpool_less_exclusions.txt	LTP237	ltpFR	17	3	0	POOL	1103	n/a	1	1	0.412841796875	0.57763671875	lower	../fonts/amplitud.ttf
662.706	n/a	WORD	331353	wordpools/wasnorm_wordpool_less_exclusions.txt	LTP237	ltpFR	17	3	0	BINDER	127	n/a	0	1	0.412841796875	0.57763671875	lower	../fonts/amplitud.ttf
666.738	n/a	WORD	333369	wordpools/wasnorm_wordpool_less_exclusions.txt	LTP237	ltpFR	17	3	0	JUDGE	761	n/a	1	1	0.412841796875	0.57763671875	lower	../fonts/amplitud.ttf
670.92	n/a	WORD	335460	wordpools/wasnorm_wordpool_less_exclusions.txt	LTP237	ltpFR	17	3	0	PERFUME	1049	n/a	0	1	0.412841796875	0.57763671875	lower	../fonts/amplitud.ttf
674.902	n/a	WORD	337451	wordpools/wasnorm_wordpool_less_exclusions.txt	LTP237	ltpFR	17	3	0	HOSE	720	n/a	0	1	0.412841796875	0.57763671875	lower	../fonts/amplitud.ttf
679.068	n/a	WORD	339534	wordpools/wasnorm_wordpool_less_exclusions.txt	LTP237	ltpFR	17	3	0	MESSAGE	888	n/a	0	1	0.412841796875	0.57763671875	lower	../fonts/amplitud.ttf
683.268	n/a	WORD	341634	wordpools/wasnorm_wordpool_less_exclusions.txt	LTP237	ltpFR	17	3	0	PAINT	1003	n/a	0	1	0.412841796875	0.57763671875	lower	../fonts/amplitud.ttf
687.4	n/a	WORD	343700	wordpools/wasnorm_wordpool_less_exclusions.txt	LTP237	ltpFR	17	3	0	FLEET	578	n/a	1	1	0.412841796875	0.57763671875	lower	../fonts/amplitud.ttf
691.264	n/a	WORD	345632	wordpools/wasnorm_wordpool_less_exclusions.txt	LTP237	ltpFR	17	3	0	BOOT	150	n/a	1	1	0.412841796875	0.57763671875	lower	../fonts/amplitud.ttf
695.36	n/a	WORD	347680	wordpools/wasnorm_wordpool_less_exclusions.txt	LTP237	ltpFR	17	3	0	TOE	1473	n/a	0	1	0.412841796875	0.57763671875	lower	../fonts/amplitud.ttf
699.33	n/a	WORD	349665	wordpools/wasnorm_wordpool_less_exclusions.txt	LTP237	ltpFR	17	3	0	SHOE	1288	n/a	0	1	0.412841796875	0.57763671875	lower	../fonts/amplitud.ttf
703.378	n/a	WORD	351689	wordpools/wasnorm_wordpool_less_exclusions.txt	LTP237	ltpFR	17	3	0	COLOGNE	347	n/a	0	1	0.412841796875	0.57763671875	lower	../fonts/amplitud.ttf
707.46	n/a	WORD	353730	wordpools/wasnorm_wordpool_less_exclusions.txt	LTP237	ltpFR	17	3	0	BASEBALL	93	n/a	1	1	0.412841796875	0.57763671875	lower	../fonts/amplitud.ttf
713.184	n/a	REC_START	356592	n/a	LTP237	ltpFR	17	3	n/a	n/a	n/a	n/a	n/a	n/a	n/a	n/a	n/a	n/a
714.186	n/a	REC_WORD	357093	wordpools/wasnorm_wordpool_less_exclusions.txt	LTP237	ltpFR	17	3	0	BASEBALL	93	n/a	1	n/a	n/a	n/a	n/a	n/a
715.708	n/a	REC_WORD	357854	wordpools/wasnorm_wordpool_less_exclusions.txt	LTP237	ltpFR	17	3	0	COLOGNE	347	n/a	0	n/a	n/a	n/a	n/a	n/a
716.576	n/a	REC_WORD	358288	wordpools/wasnorm_wordpool_less_exclusions.txt	LTP237	ltpFR	17	3	0	PERFUME	1049	n/a	0	n/a	n/a	n/a	n/a	n/a
717.822	n/a	REC_WORD	358911	wordpools/wasnorm_wordpool_less_exclusions.txt	LTP237	ltpFR	17	3	0	BOOT	150	n/a	1	n/a	n/a	n/a	n/a	n/a
718.72	n/a	REC_WORD	359360	wordpools/wasnorm_wordpool_less_exclusions.txt	LTP237	ltpFR	17	3	0	TOE	1473	n/a	0	n/a	n/a	n/a	n/a	n/a
719.968	n/a	REC_WORD	359984	wordpools/wasnorm_wordpool_less_exclusions.txt	LTP237	ltpFR	17	3	0	SHOE	1288	n/a	0	n/a	n/a	n/a	n/a	n/a
741.474	n/a	REC_WORD	370737	wordpools/wasnorm_wordpool_less_exclusions.txt	LTP237	ltpFR	17	3	0	BARN	89	n/a	0	n/a	n/a	n/a	n/a	n/a
744.288	n/a	REC_WORD	372144	wordpools/wasnorm_wordpool_less_exclusions.txt	LTP237	ltpFR	17	3	0	MESSAGE	888	n/a	0	n/a	n/a	n/a	n/a	n/a
812.01	n/a	WORD	406005	wordpools/wasnorm_wordpool_less_exclusions.txt	LTP237	ltpFR	17	4	0	IRON	744	n/a	0	1	0.412841796875	0.57763671875	lower	../fonts/amplitud.ttf
816.026	n/a	WORD	408013	wordpools/wasnorm_wordpool_less_exclusions.txt	LTP237	ltpFR	17	4	0	MOWER	928	n/a	1	1	0.412841796875	0.57763671875	lower	../fonts/amplitud.ttf
819.924	n/a	WORD	409962	wordpools/wasnorm_wordpool_less_exclusions.txt	LTP237	ltpFR	17	4	0	KIDNEY	776	n/a	0	1	0.412841796875	0.57763671875	lower	../fonts/amplitud.ttf
823.904	n/a	WORD	411952	wordpools/wasnorm_wordpool_less_exclusions.txt	LTP237	ltpFR	17	4	0	GARAGE	621	n/a	1	1	0.412841796875	0.57763671875	lower	../fonts/amplitud.ttf
827.87	n/a	WORD	413935	wordpools/wasnorm_wordpool_less_exclusions.txt	LTP237	ltpFR	17	4	0	MAGNET	855	n/a	0	1	0.412841796875	0.57763671875	lower	../fonts/amplitud.ttf
831.936	n/a	WORD	415968	wordpools/wasnorm_wordpool_less_exclusions.txt	LTP237	ltpFR	17	4	0	METEOR	889	n/a	0	1	0.412841796875	0.57763671875	lower	../fonts/amplitud.ttf
836.132	n/a	WORD	418066	wordpools/wasnorm_wordpool_less_exclusions.txt	LTP237	ltpFR	17	4	0	BADGE	68	n/a	0	1	0.412841796875	0.57763671875	lower	../fonts/amplitud.ttf
840.0	n/a	WORD	420000	wordpools/wasnorm_wordpool_less_exclusions.txt	LTP237	ltpFR	17	4	0	MICROPHONE	890	n/a	0	1	0.412841796875	0.57763671875	lower	../fonts/amplitud.ttf
844.166	n/a	WORD	422083	wordpools/wasnorm_wordpool_less_exclusions.txt	LTP237	ltpFR	17	4	0	DILL	465	n/a	0	1	0.412841796875	0.57763671875	lower	../fonts/amplitud.ttf
848.248	n/a	WORD	424124	wordpools/wasnorm_wordpool_less_exclusions.txt	LTP237	ltpFR	17	4	0	CORN	381	n/a	0	1	0.412841796875	0.57763671875	lower	../fonts/amplitud.ttf
852.298	n/a	WORD	426149	wordpools/wasnorm_wordpool_less_exclusions.txt	LTP237	ltpFR	17	4	0	DISH	474	n/a	0	1	0.412841796875	0.57763671875	lower	../fonts/amplitud.ttf
856.362	n/a	WORD	428181	wordpools/wasnorm_wordpool_less_exclusions.txt	LTP237	ltpFR	17	4	0	GLASS	639	n/a	0	1	0.412841796875	0.57763671875	lower	../fonts/amplitud.ttf
860.478	n/a	WORD	430239	wordpools/wasnorm_wordpool_less_exclusions.txt	LTP237	ltpFR	17	4	0	COAL	332	n/a	0	1	0.412841796875	0.57763671875	lower	../fonts/amplitud.ttf
864.612	n/a	WORD	432306	wordpools/wasnorm_wordpool_less_exclusions.txt	LTP237	ltpFR	17	4	0	LIMOUSINE	824	n/a	1	1	0.412841796875	0.57763671875	lower	../fonts/amplitud.ttf
868.658	n/a	WORD	434329	wordpools/wasnorm_wordpool_less_exclusions.txt	LTP237	ltpFR	17	4	0	SHERIFF	1284	n/a	1	1	0.412841796875	0.57763671875	lower	../fonts/amplitud.ttf
872.508	n/a	WORD	436254	wordpools/wasnorm_wordpool_less_exclusions.txt	LTP237	ltpFR	17	4	0	OFFICER	973	n/a	1	1	0.412841796875	0.57763671875	lower	../fonts/amplitud.ttf
878.514	n/a	REC_START	439257	n/a	LTP237	ltpFR	17	4	n/a	n/a	n/a	n/a	n/a	n/a	n/a	n/a	n/a	n/a
879.916	n/a	REC_WORD	439958	wordpools/wasnorm_wordpool_less_exclusions.txt	LTP237	ltpFR	17	4	0	COAL	332	n/a	0	n/a	n/a	n/a	n/a	n/a
880.71	n/a	REC_WORD	440355	wordpools/wasnorm_wordpool_less_exclusions.txt	LTP237	ltpFR	17	4	0	LIMOUSINE	824	n/a	1	n/a	n/a	n/a	n/a	n/a
882.426	n/a	REC_WORD	441213	wordpools/wasnorm_wordpool_less_exclusions.txt	LTP237	ltpFR	17	4	0	SHERIFF	1284	n/a	1	n/a	n/a	n/a	n/a	n/a
883.26	n/a	REC_WORD	441630	wordpools/wasnorm_wordpool_less_exclusions.txt	LTP237	ltpFR	17	4	0	OFFICER	973	n/a	1	n/a	n/a	n/a	n/a	n/a
889.496	n/a	REC_WORD	444748	wordpools/wasnorm_wordpool_less_exclusions.txt	LTP237	ltpFR	17	4	0	IRON	744	n/a	0	n/a	n/a	n/a	n/a	n/a
891.526	n/a	REC_WORD	445763	wordpools/wasnorm_wordpool_less_exclusions.txt	LTP237	ltpFR	17	4	0	MOWER	928	n/a	1	n/a	n/a	n/a	n/a	n/a
895.328	n/a	REC_WORD	447664	wordpools/wasnorm_wordpool_less_exclusions.txt	LTP237	ltpFR	17	4	0	MICROPHONE	890	n/a	0	n/a	n/a	n/a	n/a	n/a
982.73	n/a	WORD	491365	wordpools/wasnorm_wordpool_less_exclusions.txt	LTP237	ltpFR	17	5	-1	PICTURE	1061	n/a	-1	1	1.0	1.0	upper	../fonts/Verdana.ttf
986.924	n/a	WORD	493462	wordpools/wasnorm_wordpool_less_exclusions.txt	LTP237	ltpFR	17	5	-1	TREE	1502	n/a	-1	1	1.0	1.0	upper	../fonts/Verdana.ttf
990.776	n/a	WORD	495388	wordpools/wasnorm_wordpool_less_exclusions.txt	LTP237	ltpFR	17	5	-1	CLIMBER	323	n/a	-1	1	1.0	1.0	upper	../fonts/Verdana.ttf
994.642	n/a	WORD	497321	wordpools/wasnorm_wordpool_less_exclusions.txt	LTP237	ltpFR	17	5	-1	SILK	1307	n/a	-1	1	1.0	1.0	upper	../fonts/Verdana.ttf
998.658	n/a	WORD	499329	wordpools/wasnorm_wordpool_less_exclusions.txt	LTP237	ltpFR	17	5	-1	REPTILE	1185	n/a	-1	1	1.0	1.0	upper	../fonts/Verdana.ttf
1002.572	n/a	WORD	501286	wordpools/wasnorm_wordpool_less_exclusions.txt	LTP237	ltpFR	17	5	-1	PERSONNEL	1053	n/a	-1	1	1.0	1.0	upper	../fonts/Verdana.ttf
1006.436	n/a	WORD	503218	wordpools/wasnorm_wordpool_less_exclusions.txt	LTP237	ltpFR	17	5	-1	SNAKE	1333	n/a	-1	1	1.0	1.0	upper	../fonts/Verdana.ttf
1010.518	n/a	WORD	505259	wordpools/wasnorm_wordpool_less_exclusions.txt	LTP237	ltpFR	17	5	-1	BROOM	178	n/a	-1	1	1.0	1.0	upper	../fonts/Verdana.ttf
1014.616	n/a	WORD	507308	wordpools/wasnorm_wordpool_less_exclusions.txt	LTP237	ltpFR	17	5	-1	SUPPER	1411	n/a	-1	1	1.0	1.0	upper	../fonts/Verdana.ttf
1018.63	n/a	WORD	509315	wordpools/wasnorm_wordpool_less_exclusions.txt	LTP237	ltpFR	17	5	-1	RAG	1160	n/a	-1	1	1.0	1.0	upper	../fonts/Verdana.ttf
1022.666	n/a	WORD	511333	wordpools/wasnorm_wordpool_less_exclusions.txt	LTP237	ltpFR	17	5	-1	CEILING	265	n/a	-1	1	1.0	1.0	upper	../fonts/Verdana.ttf
1026.68	n/a	WORD	513340	wordpools/wasnorm_wordpool_less_exclusions.txt	LTP237	ltpFR	17	5	-1	HAY	693	n/a	-1	1	1.0	1.0	upper	../fonts/Verdana.ttf
1030.896	n/a	WORD	515448	wordpools/wasnorm_wordpool_less_exclusions.txt	LTP237	ltpFR	17	5	-1	MULE	931	n/a	-1	1	1.0	1.0	upper	../fonts/Verdana.ttf
1034.978	n/a	WORD	517489	wordpools/wasnorm_wordpool_less_exclusions.txt	LTP237	ltpFR	17	5	-1	CAFETERIA	217	n/a	-1	1	1.0	1.0	upper	../fonts/Verdana.ttf
1038.876	n/a	WORD	519438	wordpools/wasnorm_wordpool_less_exclusions.txt	LTP237	ltpFR	17	5	-1	TIDE	1465	n/a	-1	1	1.0	1.0	upper	../fonts/Verdana.ttf
1042.81	n/a	WORD	521405	wordpools/wasnorm_wordpool_less_exclusions.txt	LTP237	ltpFR	17	5	-1	BRIDGE	174	n/a	-1	1	1.0	1.0	upper	../fonts/Verdana.ttf
1048.48	n/a	REC_START	524240	n/a	LTP237	ltpFR	17	5	n/a	n/a	n/a	n/a	n/a	n/a	n/a	n/a	n/a	n/a
1049.438	n/a	REC_WORD	524719	wordpools/wasnorm_wordpool_less_exclusions.txt	LTP237	ltpFR	17	5	-1	BRIDGE	174	n/a	-1	n/a	n/a	n/a	n/a	n/a
1050.206	n/a	REC_WORD	525103	wordpools/wasnorm_wordpool_less_exclusions.txt	LTP237	ltpFR	17	5	-1	CEILING	265	n/a	-1	n/a	n/a	n/a	n/a	n/a
1051.178	n/a	REC_WORD	525589	wordpools/wasnorm_wordpool_less_exclusions.txt	LTP237	ltpFR	17	5	-1	SNAKE	1333	n/a	-1	n/a	n/a	n/a	n/a	n/a
1052.546	n/a	REC_WORD	526273	wordpools/wasnorm_wordpool_less_exclusions.txt	LTP237	ltpFR	17	5	-1	MULE	931	n/a	-1	n/a	n/a	n/a	n/a	n/a
1057.246	n/a	REC_WORD	528623	wordpools/wasnorm_wordpool_less_exclusions.txt	LTP237	ltpFR	17	5	-1	BROOM	178	n/a	-1	n/a	n/a	n/a	n/a	n/a
1069.608	n/a	REC_WORD	534804	wordpools/wasnorm_wordpool_less_exclusions.txt	LTP237	ltpFR	17	5	-1	TREE	1502	n/a	-1	n/a	n/a	n/a	n/a	n/a
1070.412	n/a	REC_WORD	535206	wordpools/wasnorm_wordpool_less_exclusions.txt	LTP237	ltpFR	17	5	-1	CLIMBER	323	n/a	-1	n/a	n/a	n/a	n/a	n/a
1153.11	n/a	WORD	576555	wordpools/wasnorm_wordpool_less_exclusions.txt	LTP237	ltpFR	17	6	-1	CHAPEL	280	n/a	-1	1	1.0	1.0	upper	../fonts/Verdana.ttf
1157.128	n/a	WORD	578564	wordpools/wasnorm_wordpool_less_exclusions.txt	LTP237	ltpFR	17	6	-1	COLESLAW	344	n/a	-1	1	1.0	1.0	upper	../fonts/Verdana.ttf
1161.06	n/a	WORD	580530	wordpools/wasnorm_wordpool_less_exclusions.txt	LTP237	ltpFR	17	6	-1	MOTH	920	n/a	-1	1	1.0	1.0	upper	../fonts/Verdana.ttf
1165.226	n/a	WORD	582613	wordpools/wasnorm_wordpool_less_exclusions.txt	LTP237	ltpFR	17	6	-1	SAPPHIRE	1234	n/a	-1	1	1.0	1.0	upper	../fonts/Verdana.ttf
1169.058	n/a	WORD	584529	wordpools/wasnorm_wordpool_less_exclusions.txt	LTP237	ltpFR	17	6	-1	DOORBELL	487	n/a	-1	1	1.0	1.0	upper	../fonts/Verdana.ttf
1173.274	n/a	WORD	586637	wordpools/wasnorm_wordpool_less_exclusions.txt	LTP237	ltpFR	17	6	-1	POWDER	1117	n/a	-1	1	1.0	1.0	upper	../fonts/Verdana.ttf
1177.104	n/a	WORD	588552	wordpools/wasnorm_wordpool_less_exclusions.txt	LTP237	ltpFR	17	6	-1	BASSINET	97	n/a	-1	1	1.0	1.0	upper	../fonts/Verdana.ttf
1181.204	n/a	WORD	590602	wordpools/wasnorm_wordpool_less_exclusions.txt	LTP237	ltpFR	17	6	-1	GARLIC	624	n/a	-1	1	1.0	1.0	upper	../fonts/Verdana.ttf
1185.17	n/a	WORD	592585	wordpools/wasnorm_wordpool_less_exclusions.txt	LTP237	ltpFR	17	6	-1	JUGGLER	763	n/a	-1	1	1.0	1.0	upper	../fonts/Verdana.ttf
1189.348	n/a	WORD	594674	wordpools/wasnorm_wordpool_less_exclusions.txt	LTP237	ltpFR	17	6	-1	ROCKET	1202	n/a	-1	1	1.0	1.0	upper	../fonts/Verdana.ttf
1193.2	n/a	WORD	596600	wordpools/wasnorm_wordpool_less_exclusions.txt	LTP237	ltpFR	17	6	-1	SCREW	1254	n/a	-1	1	1.0	1.0	upper	../fonts/Verdana.ttf
1197.244	n/a	WORD	598622	wordpools/wasnorm_wordpool_less_exclusions.txt	LTP237	ltpFR	17	6	-1	VOLLEYBALL	1576	n/a	-1	1	1.0	1.0	upper	../fonts/Verdana.ttf
1201.164	n/a	WORD	600582	wordpools/wasnorm_wordpool_less_exclusions.txt	LTP237	ltpFR	17	6	-1	CABBAGE	210	n/a	-1	1	1.0	1.0	upper	../fonts/Verdana.ttf
1205.146	n/a	WORD	602573	wordpools/wasnorm_wordpool_less_exclusions.txt	LTP237	ltpFR	17	6	-1	FRAGRANCE	599	n/a	-1	1	1.0	1.0	upper	../fonts/Verdana.ttf
1209.078	n/a	WORD	604539	wordpools/wasnorm_wordpool_less_exclusions.txt	LTP237	ltpFR	17	6	-1	OAR	966	n/a	-1	1	1.0	1.0	upper	../fonts/Verdana.ttf
1213.26	n/a	WORD	606630	wordpools/wasnorm_wordpool_less_exclusions.txt	LTP237	ltpFR	17	6	-1	NICOTINE	951	n/a	-1	1	1.0	1.0	upper	../fonts/Verdana.ttf
1219.05	n/a	REC_START	609525	n/a	LTP237	ltpFR	17	6	n/a	n/a	n/a	n/a	n/a	n/a	n/a	n/a	n/a	n/a
1220.462	n/a	REC_WORD	610231	wordpools/wasnorm_wordpool_less_exclusions.txt	LTP237	ltpFR	17	6	-1	VOLLEYBALL	1576	n/a	-1	n/a	n/a	n/a	n/a	n/a
1221.514	n/a	REC_WORD	610757	wordpools/wasnorm_wordpool_less_exclusions.txt	LTP237	ltpFR	17	6	-1	CABBAGE	210	n/a	-1	n/a	n/a	n/a	n/a	n/a
1223.196	n/a	REC_WORD	611598	wordpools/wasnorm_wordpool_less_exclusions.txt	LTP237	ltpFR	17	6	-1	OAR	966	n/a	-1	n/a	n/a	n/a	n/a	n/a
1224.352	n/a	REC_WORD	612176	wordpools/wasnorm_wordpool_less_exclusions.txt	LTP237	ltpFR	17	6	-1	NICOTINE	951	n/a	-1	n/a	n/a	n/a	n/a	n/a
1226.428	n/a	REC_WORD	613214	wordpools/wasnorm_wordpool_less_exclusions.txt	LTP237	ltpFR	17	6	-1	COLESLAW	344	n/a	-1	n/a	n/a	n/a	n/a	n/a
1329.148	n/a	WORD	664574	wordpools/wasnorm_wordpool_less_exclusions.txt	LTP237	ltpFR	17	7	1	ICE	730	n/a	0	0	0.5869140625	0.422607421875	upper	../fonts/zerothre.ttf
1333.334	n/a	WORD	666667	wordpools/wasnorm_wordpool_less_exclusions.txt	LTP237	ltpFR	17	7	1	CUFF	423	n/a	0	0	0.5869140625	0.422607421875	upper	../fonts/zerothre.ttf
1337.33	n/a	WORD	668665	wordpools/wasnorm_wordpool_less_exclusions.txt	LTP237	ltpFR	17	7	1	SNORKEL	1336	n/a	0	0	0.5869140625	0.422607421875	upper	../fonts/zerothre.ttf
1341.466	n/a	WORD	670733	wordpools/wasnorm_wordpool_less_exclusions.txt	LTP237	ltpFR	17	7	0	STEAM	1375	n/a	0	1	0.412841796875	0.57763671875	lower	../fonts/amplitud.ttf
1345.31	n/a	WORD	672655	wordpools/wasnorm_wordpool_less_exclusions.txt	LTP237	ltpFR	17	7	0	FAMILY	550	n/a	1	1	0.412841796875	0.57763671875	lower	../fonts/amplitud.ttf
1349.43	n/a	WORD	674715	wordpools/wasnorm_wordpool_less_exclusions.txt	LTP237	ltpFR	17	7	0	STRANGER	1389	n/a	1	1	0.412841796875	0.57763671875	lower	../fonts/amplitud.ttf
1353.29	n/a	WORD	676645	wordpools/wasnorm_wordpool_less_exclusions.txt	LTP237	ltpFR	17	7	1	DECK	443	n/a	0	0	0.5869140625	0.422607421875	upper	../fonts/zerothre.ttf
1357.144	n/a	WORD	678572	wordpools/wasnorm_wordpool_less_exclusions.txt	LTP237	ltpFR	17	7	1	TROUSERS	1510	n/a	0	0	0.5869140625	0.422607421875	upper	../fonts/zerothre.ttf
1360.992	n/a	WORD	680496	wordpools/wasnorm_wordpool_less_exclusions.txt	LTP237	ltpFR	17	7	1	BAY	102	n/a	0	0	0.5869140625	0.422607421875	upper	../fonts/zerothre.ttf
1364.972	n/a	WORD	682486	wordpools/wasnorm_wordpool_less_exclusions.txt	LTP237	ltpFR	17	7	1	CERAMICS	271	n/a	0	0	0.5869140625	0.422607421875	upper	../fonts/zerothre.ttf
1369.156	n/a	WORD	684578	wordpools/wasnorm_wordpool_less_exclusions.txt	LTP237	ltpFR	17	7	1	PIRATE	1074	n/a	1	0	0.5869140625	0.422607421875	upper	../fonts/zerothre.ttf
1373.372	n/a	WORD	686686	wordpools/wasnorm_wordpool_less_exclusions.txt	LTP237	ltpFR	17	7	0	NEUTRON	947	n/a	0	1	0.412841796875	0.57763671875	lower	../fonts/amplitud.ttf
1377.27	n/a	WORD	688635	wordpools/wasnorm_wordpool_less_exclusions.txt	LTP237	ltpFR	17	7	0	PROTON	1132	n/a	0	1	0.412841796875	0.57763671875	lower	../fonts/amplitud.ttf
1381.152	n/a	WORD	690576	wordpools/wasnorm_wordpool_less_exclusions.txt	LTP237	ltpFR	17	7	0	BLUEBERRY	140	n/a	0	1	0.412841796875	0.57763671875	lower	../fonts/amplitud.ttf
1385.134	n/a	WORD	692567	wordpools/wasnorm_wordpool_less_exclusions.txt	LTP237	ltpFR	17	7	0	PROFESSIONAL	1130	n/a	0	1	0.412841796875	0.57763671875	lower	../fonts/amplitud.ttf
1389.064	n/a	WORD	694532	wordpools/wasnorm_wordpool_less_exclusions.txt	LTP237	ltpFR	17	7	0	CAB	209	n/a	1	1	0.412841796875	0.57763671875	lower	../fonts/amplitud.ttf
1394.79	n/a	REC_START	697395	n/a	LTP237	ltpFR	17	7	n/a	n/a	n/a	n/a	n/a	n/a	n/a	n/a	n/a	n/a
1396.43	n/a	REC_WORD	698215	wordpools/wasnorm_wordpool_less_exclusions.txt	LTP237	ltpFR	17	7	0	PROFESSIONAL	1130	n/a	0	n/a	n/a	n/a	n/a	n/a
1398.496	n/a	REC_WORD	699248	wordpools/wasnorm_wordpool_less_exclusions.txt	LTP237	ltpFR	17	7	0	CAB	209	n/a	1	n/a	n/a	n/a	n/a	n/a
1399.314	n/a	REC_WORD	699657	wordpools/wasnorm_wordpool_less_exclusions.txt	LTP237	ltpFR	17	7	0	NEUTRON	947	n/a	0	n/a	n/a	n/a	n/a	n/a
1400.316	n/a	REC_WORD	700158	wordpools/wasnorm_wordpool_less_exclusions.txt	LTP237	ltpFR	17	7	0	PROTON	1132	n/a	0	n/a	n/a	n/a	n/a	n/a
1520.718	n/a	WORD	760359	wordpools/wasnorm_wordpool_less_exclusions.txt	LTP237	ltpFR	17	8	1	VIOLIN	1571	n/a	0	0	0.5869140625	0.422607421875	upper	../fonts/zerothre.ttf
1524.65	n/a	WORD	762325	wordpools/wasnorm_wordpool_less_exclusions.txt	LTP237	ltpFR	17	8	1	ROCK	1201	n/a	0	0	0.5869140625	0.422607421875	upper	../fonts/zerothre.ttf
1528.818	n/a	WORD	764409	wordpools/wasnorm_wordpool_less_exclusions.txt	LTP237	ltpFR	17	8	0	CITIZEN	312	n/a	1	1	0.412841796875	0.57763671875	lower	../fonts/amplitud.ttf
1532.782	n/a	WORD	766391	wordpools/wasnorm_wordpool_less_exclusions.txt	LTP237	ltpFR	17	8	0	HANDBAG	684	n/a	0	1	0.412841796875	0.57763671875	lower	../fonts/amplitud.ttf
1536.612	n/a	WORD	768306	wordpools/wasnorm_wordpool_less_exclusions.txt	LTP237	ltpFR	17	8	0	SHARK	1275	n/a	1	1	0.412841796875	0.57763671875	lower	../fonts/amplitud.ttf
1540.544	n/a	WORD	770272	wordpools/wasnorm_wordpool_less_exclusions.txt	LTP237	ltpFR	17	8	1	SQUID	1361	n/a	1	0	0.5869140625	0.422607421875	upper	../fonts/zerothre.ttf
1544.51	n/a	WORD	772255	wordpools/wasnorm_wordpool_less_exclusions.txt	LTP237	ltpFR	17	8	1	TWISTER	1530	n/a	0	0	0.5869140625	0.422607421875	upper	../fonts/zerothre.ttf
1548.504	n/a	WORD	774252	wordpools/wasnorm_wordpool_less_exclusions.txt	LTP237	ltpFR	17	8	1	PIANO	1057	n/a	0	0	0.5869140625	0.422607421875	upper	../fonts/zerothre.ttf
1552.402	n/a	WORD	776201	wordpools/wasnorm_wordpool_less_exclusions.txt	LTP237	ltpFR	17	8	1	FOUNTAIN	597	n/a	0	0	0.5869140625	0.422607421875	upper	../fonts/zerothre.ttf
1556.504	n/a	WORD	778252	wordpools/wasnorm_wordpool_less_exclusions.txt	LTP237	ltpFR	17	8	0	MUFFIN	929	n/a	0	1	0.412841796875	0.57763671875	lower	../fonts/amplitud.ttf
1560.352	n/a	WORD	780176	wordpools/wasnorm_wordpool_less_exclusions.txt	LTP237	ltpFR	17	8	0	LITERATURE	831	n/a	0	1	0.412841796875	0.57763671875	lower	../fonts/amplitud.ttf
1564.218	n/a	WORD	782109	wordpools/wasnorm_wordpool_less_exclusions.txt	LTP237	ltpFR	17	8	0	COUNTRY	388	n/a	0	1	0.412841796875	0.57763671875	lower	../fonts/amplitud.ttf
1568.166	n/a	WORD	784083	wordpools/wasnorm_wordpool_less_exclusions.txt	LTP237	ltpFR	17	8	0	SCULPTURE	1258	n/a	0	1	0.412841796875	0.57763671875	lower	../fonts/amplitud.ttf
1572.082	n/a	WORD	786041	wordpools/wasnorm_wordpool_less_exclusions.txt	LTP237	ltpFR	17	8	0	CHIPMUNK	304	n/a	0	1	0.412841796875	0.57763671875	lower	../fonts/amplitud.ttf
1576.164	n/a	WORD	788082	wordpools/wasnorm_wordpool_less_exclusions.txt	LTP237	ltpFR	17	8	1	ANIMAL	23	n/a	1	0	0.5869140625	0.422607421875	upper	../fonts/zerothre.ttf
1580.112	n/a	WORD	790056	wordpools/wasnorm_wordpool_less_exclusions.txt	LTP237	ltpFR	17	8	1	CRUMB	416	n/a	0	0	0.5869140625	0.422607421875	upper	../fonts/zerothre.ttf
1585.802	n/a	REC_START	792901	n/a	LTP237	ltpFR	17	8	n/a	n/a	n/a	n/a	n/a	n/a	n/a	n/a	n/a	n/a
1586.536	n/a	REC_WORD	793268	wordpools/wasnorm_wordpool_less_exclusions.txt	LTP237	ltpFR	17	8	1	ANIMAL	23	n/a	1	n/a	n/a	n/a	n/a	n/a
1587.498	n/a	REC_WORD	793749	wordpools/wasnorm_wordpool_less_exclusions.txt	LTP237	ltpFR	17	8	1	CRUMB	416	n/a	0	n/a	n/a	n/a	n/a	n/a
1588.272	n/a	REC_WORD	794136	wordpools/wasnorm_wordpool_less_exclusions.txt	LTP237	ltpFR	17	8	0	MUFFIN	929	n/a	0	n/a	n/a	n/a	n/a	n/a
1703.868	n/a	WORD	851934	wordpools/wasnorm_wordpool_less_exclusions.txt	LTP237	ltpFR	17	9	0	STADIUM	1364	n/a	1	1	0.412841796875	0.57763671875	lower	../fonts/amplitud.ttf
1707.696	n/a	WORD	853848	wordpools/wasnorm_wordpool_less_exclusions.txt	LTP237	ltpFR	17	9	0	REFEREE	1178	n/a	1	1	0.412841796875	0.57763671875	lower	../fonts/amplitud.ttf
1711.782	n/a	WORD	855891	wordpools/wasnorm_wordpool_less_exclusions.txt	LTP237	ltpFR	17	9	0	RIB	1188	n/a	1	1	0.412841796875	0.57763671875	lower	../fonts/amplitud.ttf
1715.732	n/a	WORD	857866	wordpools/wasnorm_wordpool_less_exclusions.txt	LTP237	ltpFR	17	9	0	PIKE	1067	n/a	1	1	0.412841796875	0.57763671875	lower	../fonts/amplitud.ttf
1719.946	n/a	WORD	859973	wordpools/wasnorm_wordpool_less_exclusions.txt	LTP237	ltpFR	17	9	0	MERMAID	887	n/a	1	1	0.412841796875	0.57763671875	lower	../fonts/amplitud.ttf
1723.994	n/a	WORD	861997	wordpools/wasnorm_wordpool_less_exclusions.txt	LTP237	ltpFR	17	9	0	CLAM	315	n/a	0	1	0.412841796875	0.57763671875	lower	../fonts/amplitud.ttf
1728.16	n/a	WORD	864080	wordpools/wasnorm_wordpool_less_exclusions.txt	LTP237	ltpFR	17	9	0	NECKLACE	940	n/a	0	1	0.412841796875	0.57763671875	lower	../fonts/amplitud.ttf
1732.292	n/a	WORD	866146	wordpools/wasnorm_wordpool_less_exclusions.txt	LTP237	ltpFR	17	9	0	CUPBOARD	425	n/a	1	1	0.412841796875	0.57763671875	lower	../fonts/amplitud.ttf
1736.376	n/a	WORD	868188	wordpools/wasnorm_wordpool_less_exclusions.txt	LTP237	ltpFR	17	9	0	GOWN	652	n/a	0	1	0.412841796875	0.57763671875	lower	../fonts/amplitud.ttf
1740.554	n/a	WORD	870277	wordpools/wasnorm_wordpool_less_exclusions.txt	LTP237	ltpFR	17	9	0	FISH	571	n/a	0	1	0.412841796875	0.57763671875	lower	../fonts/amplitud.ttf
1744.39	n/a	WORD	872195	wordpools/wasnorm_wordpool_less_exclusions.txt	LTP237	ltpFR	17	9	0	SIGNATURE	1306	n/a	0	1	0.412841796875	0.57763671875	lower	../fonts/amplitud.ttf
1748.556	n/a	WORD	874278	wordpools/wasnorm_wordpool_less_exclusions.txt	LTP237	ltpFR	17	9	0	HEAD	695	n/a	0	1	0.412841796875	0.57763671875	lower	../fonts/amplitud.ttf
1752.606	n/a	WORD	876303	wordpools/wasnorm_wordpool_less_exclusions.txt	LTP237	ltpFR	17	9	0	ROBE	1198	n/a	0	1	0.412841796875	0.57763671875	lower	../fonts/amplitud.ttf
1756.552	n/a	WORD	878276	wordpools/wasnorm_wordpool_less_exclusions.txt	LTP237	ltpFR	17	9	0	FIN	566	n/a	0	1	0.412841796875	0.57763671875	lower	../fonts/amplitud.ttf
1760.434	n/a	WORD	880217	wordpools/wasnorm_wordpool_less_exclusions.txt	LTP237	ltpFR	17	9	0	LIP	828	n/a	0	1	0.412841796875	0.57763671875	lower	../fonts/amplitud.ttf
1764.396	n/a	WORD	882198	wordpools/wasnorm_wordpool_less_exclusions.txt	LTP237	ltpFR	17	9	0	PEDAL	1037	n/a	0	1	0.412841796875	0.57763671875	lower	../fonts/amplitud.ttf
1770.172	n/a	REC_START	885086	n/a	LTP237	ltpFR	17	9	n/a	n/a	n/a	n/a	n/a	n/a	n/a	n/a	n/a	n/a
1772.362	n/a	REC_WORD	886181	wordpools/wasnorm_wordpool_less_exclusions.txt	LTP237	ltpFR	17	9	0	PEDAL	1037	n/a	0	n/a	n/a	n/a	n/a	n/a
1773.306	n/a	REC_WORD	886653	wordpools/wasnorm_wordpool_less_exclusions.txt	LTP237	ltpFR	17	9	0	GOWN	652	n/a	0	n/a	n/a	n/a	n/a	n/a
1774.064	n/a	REC_WORD	887032	wordpools/wasnorm_wordpool_less_exclusions.txt	LTP237	ltpFR	17	9	0	ROBE	1198	n/a	0	n/a	n/a	n/a	n/a	n/a
1775.056	n/a	REC_WORD	887528	wordpools/wasnorm_wordpool_less_exclusions.txt	LTP237	ltpFR	17	9	0	FISH	571	n/a	0	n/a	n/a	n/a	n/a	n/a
1776.528	n/a	REC_WORD	888264	wordpools/wasnorm_wordpool_less_exclusions.txt	LTP237	ltpFR	17	9	0	FIN	566	n/a	0	n/a	n/a	n/a	n/a	n/a
1780.254	n/a	REC_WORD	890127	wordpools/wasnorm_wordpool_less_exclusions.txt	LTP237	ltpFR	17	9	0	RIB	1188	n/a	1	n/a	n/a	n/a	n/a	n/a
1867.172	n/a	WORD	933586	wordpools/wasnorm_wordpool_less_exclusions.txt	LTP237	ltpFR	17	10	0	TANGERINE	1431	n/a	0	1	0.412841796875	0.57763671875	lower	../fonts/amplitud.ttf
1871.074	n/a	WORD	935537	wordpools/wasnorm_wordpool_less_exclusions.txt	LTP237	ltpFR	17	10	0	TRACTOR	1493	n/a	1	1	0.412841796875	0.57763671875	lower	../fonts/amplitud.ttf
1875.172	n/a	WORD	937586	wordpools/wasnorm_wordpool_less_exclusions.txt	LTP237	ltpFR	17	10	1	HOUSE	725	n/a	0	0	0.5869140625	0.422607421875	upper	../fonts/zerothre.ttf
1879.07	n/a	WORD	939535	wordpools/wasnorm_wordpool_less_exclusions.txt	LTP237	ltpFR	17	10	1	BULLY	196	n/a	1	0	0.5869140625	0.422607421875	upper	../fonts/zerothre.ttf
1883.052	n/a	WORD	941526	wordpools/wasnorm_wordpool_less_exclusions.txt	LTP237	ltpFR	17	10	1	OTTER	986	n/a	1	0	0.5869140625	0.422607421875	upper	../fonts/zerothre.ttf
1887.152	n/a	WORD	943576	wordpools/wasnorm_wordpool_less_exclusions.txt	LTP237	ltpFR	17	10	0	CHAMPAGNE	278	n/a	0	1	0.412841796875	0.57763671875	lower	../fonts/amplitud.ttf
1891.33	n/a	WORD	945665	wordpools/wasnorm_wordpool_less_exclusions.txt	LTP237	ltpFR	17	10	0	VINE	1568	n/a	0	1	0.412841796875	0.57763671875	lower	../fonts/amplitud.ttf
1895.366	n/a	WORD	947683	wordpools/wasnorm_wordpool_less_exclusions.txt	LTP237	ltpFR	17	10	1	CHIME	300	n/a	0	0	0.5869140625	0.422607421875	upper	../fonts/zerothre.ttf
1899.494	n/a	WORD	949747	wordpools/wasnorm_wordpool_less_exclusions.txt	LTP237	ltpFR	17	10	1	BELL	118	n/a	0	0	0.5869140625	0.422607421875	upper	../fonts/zerothre.ttf
1903.33	n/a	WORD	951665	wordpools/wasnorm_wordpool_less_exclusions.txt	LTP237	ltpFR	17	10	1	DUNGEON	507	n/a	0	0	0.5869140625	0.422607421875	upper	../fonts/zerothre.ttf
1907.33	n/a	WORD	953665	wordpools/wasnorm_wordpool_less_exclusions.txt	LTP237	ltpFR	17	10	1	ARCHITECT	36	n/a	1	0	0.5869140625	0.422607421875	upper	../fonts/zerothre.ttf
1911.294	n/a	WORD	955647	wordpools/wasnorm_wordpool_less_exclusions.txt	LTP237	ltpFR	17	10	1	PRODUCER	1129	n/a	1	0	0.5869140625	0.422607421875	upper	../fonts/zerothre.ttf
1915.36	n/a	WORD	957680	wordpools/wasnorm_wordpool_less_exclusions.txt	LTP237	ltpFR	17	10	0	BUTTERFLY	206	n/a	0	1	0.412841796875	0.57763671875	lower	../fonts/amplitud.ttf
1919.358	n/a	WORD	959679	wordpools/wasnorm_wordpool_less_exclusions.txt	LTP237	ltpFR	17	10	0	MEADOW	881	n/a	0	1	0.412841796875	0.57763671875	lower	../fonts/amplitud.ttf
1923.524	n/a	WORD	961762	wordpools/wasnorm_wordpool_less_exclusions.txt	LTP237	ltpFR	17	10	0	ROPE	1211	n/a	0	1	0.412841796875	0.57763671875	lower	../fonts/amplitud.ttf
1927.506	n/a	WORD	963753	wordpools/wasnorm_wordpool_less_exclusions.txt	LTP237	ltpFR	17	10	0	BERRY	122	n/a	0	1	0.412841796875	0.57763671875	lower	../fonts/amplitud.ttf
1933.262	n/a	REC_START	966631	n/a	LTP237	ltpFR	17	10	n/a	n/a	n/a	n/a	n/a	n/a	n/a	n/a	n/a	n/a
1934.164	n/a	REC_WORD	967082	wordpools/wasnorm_wordpool_less_exclusions.txt	LTP237	ltpFR	17	10	0	BERRY	122	n/a	0	n/a	n/a	n/a	n/a	n/a
1935.536	n/a	REC_WORD	967768	wordpools/wasnorm_wordpool_less_exclusions.txt	LTP237	ltpFR	17	10	0	VINE	1568	n/a	0	n/a	n/a	n/a	n/a	n/a
1939.162	n/a	REC_WORD	969581	wordpools/wasnorm_wordpool_less_exclusions.txt	LTP237	ltpFR	17	10	0	CHAMPAGNE	278	n/a	0	n/a	n/a	n/a	n/a	n/a
1940.86	n/a	REC_WORD	970430	wordpools/wasnorm_wordpool_less_exclusions.txt	LTP237	ltpFR	17	10	1	DUNGEON	507	n/a	0	n/a	n/a	n/a	n/a	n/a
1941.758	n/a	REC_WORD	970879	wordpools/wasnorm_wordpool_less_exclusions.txt	LTP237	ltpFR	17	10	1	ARCHITECT	36	n/a	1	n/a	n/a	n/a	n/a	n/a
1999.674	n/a	REC_WORD	999837	wordpools/wasnorm_wordpool_less_exclusions.txt	LTP237	ltpFR	17	10	0	STADIUM	1364	n/a	1	n/a	n/a	n/a	n/a	n/a
2040.874	n/a	WORD	1020437	wordpools/wasnorm_wordpool_less_exclusions.txt	LTP237	ltpFR	17	11	1	MONGOOSE	909	n/a	n/a	0	0.5869140625	0.422607421875	upper	../fonts/zerothre.ttf
2043.918	n/a	SLOW_MSG	1021959	n/a	LTP237	ltpFR	17	11	n/a	n/a	n/a	n/a	n/a	n/a	n/a	n/a	n/a	n/a
2046.34	n/a	WORD	1023170	wordpools/wasnorm_wordpool_less_exclusions.txt	LTP237	ltpFR	17	11	1	BURGLAR	200	n/a	1	0	0.5869140625	0.422607421875	upper	../fonts/zerothre.ttf
2050.492	n/a	WORD	1025246	wordpools/wasnorm_wordpool_less_exclusions.txt	LTP237	ltpFR	17	11	1	PILL	1068	n/a	0	0	0.5869140625	0.422607421875	upper	../fonts/zerothre.ttf
2054.576	n/a	WORD	1027288	wordpools/wasnorm_wordpool_less_exclusions.txt	LTP237	ltpFR	17	11	1	BUGGY	188	n/a	0	0	0.5869140625	0.422607421875	upper	../fonts/zerothre.ttf
2058.574	n/a	WORD	1029287	wordpools/wasnorm_wordpool_less_exclusions.txt	LTP237	ltpFR	17	11	1	CAR	241	n/a	0	0	0.5869140625	0.422607421875	upper	../fonts/zerothre.ttf
2062.656	n/a	WORD	1031328	wordpools/wasnorm_wordpool_less_exclusions.txt	LTP237	ltpFR	17	11	1	COIN	343	n/a	0	0	0.5869140625	0.422607421875	upper	../fonts/zerothre.ttf
2066.84	n/a	WORD	1033420	wordpools/wasnorm_wordpool_less_exclusions.txt	LTP237	ltpFR	17	11	1	SKI	1316	n/a	0	0	0.5869140625	0.422607421875	upper	../fonts/zerothre.ttf
2070.904	n/a	WORD	1035452	wordpools/wasnorm_wordpool_less_exclusions.txt	LTP237	ltpFR	17	11	1	SPIT	1354	n/a	0	0	0.5869140625	0.422607421875	upper	../fonts/zerothre.ttf
2074.804	n/a	WORD	1037402	wordpools/wasnorm_wordpool_less_exclusions.txt	LTP237	ltpFR	17	11	1	NICKEL	950	n/a	0	0	0.5869140625	0.422607421875	upper	../fonts/zerothre.ttf
2078.868	n/a	WORD	1039434	wordpools/wasnorm_wordpool_less_exclusions.txt	LTP237	ltpFR	17	11	1	BISON	131	n/a	1	0	0.5869140625	0.422607421875	upper	../fonts/zerothre.ttf
2082.75	n/a	WORD	1041375	wordpools/wasnorm_wordpool_less_exclusions.txt	LTP237	ltpFR	17	11	1	TOOTHBRUSH	1482	n/a	0	0	0.5869140625	0.422607421875	upper	../fonts/zerothre.ttf
2086.798	n/a	WORD	1043399	wordpools/wasnorm_wordpool_less_exclusions.txt	LTP237	ltpFR	17	11	1	BATHTUB	100	n/a	0	0	0.5869140625	0.422607421875	upper	../fonts/zerothre.ttf
2090.814	n/a	WORD	1045407	wordpools/wasnorm_wordpool_less_exclusions.txt	LTP237	ltpFR	17	11	1	COYOTE	396	n/a	1	0	0.5869140625	0.422607421875	upper	../fonts/zerothre.ttf
2094.946	n/a	WORD	1047473	wordpools/wasnorm_wordpool_less_exclusions.txt	LTP237	ltpFR	17	11	1	FLEA	577	n/a	1	0	0.5869140625	0.422607421875	upper	../fonts/zerothre.ttf
2099.096	n/a	WORD	1049548	wordpools/wasnorm_wordpool_less_exclusions.txt	LTP237	ltpFR	17	11	1	BEEF	113	n/a	0	0	0.5869140625	0.422607421875	upper	../fonts/zerothre.ttf
2103.076	n/a	WORD	1051538	wordpools/wasnorm_wordpool_less_exclusions.txt	LTP237	ltpFR	17	11	1	RECIPE	1175	n/a	0	0	0.5869140625	0.422607421875	upper	../fonts/zerothre.ttf
2108.732	n/a	REC_START	1054366	n/a	LTP237	ltpFR	17	11	n/a	n/a	n/a	n/a	n/a	n/a	n/a	n/a	n/a	n/a
2109.74	n/a	REC_WORD	1054870	wordpools/wasnorm_wordpool_less_exclusions.txt	LTP237	ltpFR	17	11	1	BEEF	113	n/a	0	n/a	n/a	n/a	n/a	n/a
2110.448	n/a	REC_WORD	1055224	wordpools/wasnorm_wordpool_less_exclusions.txt	LTP237	ltpFR	17	11	1	RECIPE	1175	n/a	0	n/a	n/a	n/a	n/a	n/a
2112.53	n/a	REC_WORD	1056265	wordpools/wasnorm_wordpool_less_exclusions.txt	LTP237	ltpFR	17	11	1	BISON	131	n/a	1	n/a	n/a	n/a	n/a	n/a
2143.072	n/a	REC_WORD	1071536	wordpools/wasnorm_wordpool_less_exclusions.txt	LTP237	ltpFR	17	11	1	MONGOOSE	909	n/a	n/a	n/a	n/a	n/a	n/a	n/a
2144.072	n/a	REC_WORD_VV	1072036	wordpools/wasnorm_wordpool_less_exclusions.txt	LTP237	ltpFR	17	11	n/a	<>	-1	n/a	n/a	n/a	n/a	n/a	n/a	n/a
2148.604	n/a	REC_WORD	1074302	wordpools/wasnorm_wordpool_less_exclusions.txt	LTP237	ltpFR	17	11	1	FLEA	577	n/a	1	n/a	n/a	n/a	n/a	n/a
2198.258	n/a	WORD	1099129	wordpools/wasnorm_wordpool_less_exclusions.txt	LTP237	ltpFR	17	12	0	VEAL	1551	n/a	0	1	0.412841796875	0.57763671875	lower	../fonts/amplitud.ttf
2202.268	n/a	WORD	1101134	wordpools/wasnorm_wordpool_less_exclusions.txt	LTP237	ltpFR	17	12	0	MOTHER	921	n/a	1	1	0.412841796875	0.57763671875	lower	../fonts/amplitud.ttf
2206.388	n/a	WORD	1103194	wordpools/wasnorm_wordpool_less_exclusions.txt	LTP237	ltpFR	17	12	1	COPIER	377	n/a	0	0	0.5869140625	0.422607421875	upper	../fonts/zerothre.ttf
2210.572	n/a	WORD	1105286	wordpools/wasnorm_wordpool_less_exclusions.txt	LTP237	ltpFR	17	12	1	SERVANT	1271	n/a	1	0	0.5869140625	0.422607421875	upper	../fonts/zerothre.ttf
2214.52	n/a	WORD	1107260	wordpools/wasnorm_wordpool_less_exclusions.txt	LTP237	ltpFR	17	12	1	RULER	1216	n/a	0	0	0.5869140625	0.422607421875	upper	../fonts/zerothre.ttf
2218.702	n/a	WORD	1109351	wordpools/wasnorm_wordpool_less_exclusions.txt	LTP237	ltpFR	17	12	0	MACHINE	852	n/a	0	1	0.412841796875	0.57763671875	lower	../fonts/amplitud.ttf
2222.802	n/a	WORD	1111401	wordpools/wasnorm_wordpool_less_exclusions.txt	LTP237	ltpFR	17	12	0	WOLF	1619	n/a	1	1	0.412841796875	0.57763671875	lower	../fonts/amplitud.ttf
2226.714	n/a	WORD	1113357	wordpools/wasnorm_wordpool_less_exclusions.txt	LTP237	ltpFR	17	12	0	MONARCH	906	n/a	1	1	0.412841796875	0.57763671875	lower	../fonts/amplitud.ttf
2230.61	n/a	WORD	1115305	wordpools/wasnorm_wordpool_less_exclusions.txt	LTP237	ltpFR	17	12	0	SUSPECT	1415	n/a	1	1	0.412841796875	0.57763671875	lower	../fonts/amplitud.ttf
2234.66	n/a	WORD	1117330	wordpools/wasnorm_wordpool_less_exclusions.txt	LTP237	ltpFR	17	12	0	KITTEN	780	n/a	1	1	0.412841796875	0.57763671875	lower	../fonts/amplitud.ttf
2238.812	n/a	WORD	1119406	wordpools/wasnorm_wordpool_less_exclusions.txt	LTP237	ltpFR	17	12	0	SPY	1360	n/a	1	1	0.412841796875	0.57763671875	lower	../fonts/amplitud.ttf
2242.88	n/a	WORD	1121440	wordpools/wasnorm_wordpool_less_exclusions.txt	LTP237	ltpFR	17	12	1	DETECTIVE	454	n/a	1	0	0.5869140625	0.422607421875	upper	../fonts/zerothre.ttf
2246.86	n/a	WORD	1123430	wordpools/wasnorm_wordpool_less_exclusions.txt	LTP237	ltpFR	17	12	1	SANDWICH	1232	n/a	0	0	0.5869140625	0.422607421875	upper	../fonts/zerothre.ttf
2251.06	n/a	WORD	1125530	wordpools/wasnorm_wordpool_less_exclusions.txt	LTP237	ltpFR	17	12	1	OLIVE	975	n/a	0	0	0.5869140625	0.422607421875	upper	../fonts/zerothre.ttf
2255.04	n/a	WORD	1127520	wordpools/wasnorm_wordpool_less_exclusions.txt	LTP237	ltpFR	17	12	1	PLUMBER	1091	n/a	1	0	0.5869140625	0.422607421875	upper	../fonts/zerothre.ttf
2259.022	n/a	WORD	1129511	wordpools/wasnorm_wordpool_less_exclusions.txt	LTP237	ltpFR	17	12	1	WATERFALL	1595	n/a	0	0	0.5869140625	0.422607421875	upper	../fonts/zerothre.ttf
2264.914	n/a	REC_START	1132457	n/a	LTP237	ltpFR	17	12	n/a	n/a	n/a	n/a	n/a	n/a	n/a	n/a	n/a	n/a
2266.51	n/a	REC_WORD	1133255	wordpools/wasnorm_wordpool_less_exclusions.txt	LTP237	ltpFR	17	12	1	OLIVE	975	n/a	0	n/a	n/a	n/a	n/a	n/a
2267.348	n/a	REC_WORD	1133674	wordpools/wasnorm_wordpool_less_exclusions.txt	LTP237	ltpFR	17	12	1	WATERFALL	1595	n/a	0	n/a	n/a	n/a	n/a	n/a
2268.55	n/a	REC_WORD	1134275	wordpools/wasnorm_wordpool_less_exclusions.txt	LTP237	ltpFR	17	12	1	PLUMBER	1091	n/a	1	n/a	n/a	n/a	n/a	n/a
2340.568	n/a	REST_REWET	1170284	n/a	LTP237	ltpFR	17	12	n/a	n/a	n/a	n/a	n/a	n/a	n/a	n/a	n/a	n/a
2615.502	n/a	WORD	1307751	wordpools/wasnorm_wordpool_less_exclusions.txt	LTP237	ltpFR	17	13	1	CACTUS	215	n/a	1	0	0.5869140625	0.422607421875	upper	../fonts/zerothre.ttf
2619.332	n/a	WORD	1309666	wordpools/wasnorm_wordpool_less_exclusions.txt	LTP237	ltpFR	17	13	1	LINT	826	n/a	0	0	0.5869140625	0.422607421875	upper	../fonts/zerothre.ttf
2623.282	n/a	WORD	1311641	wordpools/wasnorm_wordpool_less_exclusions.txt	LTP237	ltpFR	17	13	1	OUTFIT	988	n/a	0	0	0.5869140625	0.422607421875	upper	../fonts/zerothre.ttf
2627.448	n/a	WORD	1313724	wordpools/wasnorm_wordpool_less_exclusions.txt	LTP237	ltpFR	17	13	1	DANDELION	438	n/a	0	0	0.5869140625	0.422607421875	upper	../fonts/zerothre.ttf
2631.592	n/a	WORD	1315796	wordpools/wasnorm_wordpool_less_exclusions.txt	LTP237	ltpFR	17	13	1	TURKEY	1520	n/a	1	0	0.5869140625	0.422607421875	upper	../fonts/zerothre.ttf
2635.796	n/a	WORD	1317898	wordpools/wasnorm_wordpool_less_exclusions.txt	LTP237	ltpFR	17	13	1	RESORT	1186	n/a	0	0	0.5869140625	0.422607421875	upper	../fonts/zerothre.ttf
2639.926	n/a	WORD	1319963	wordpools/wasnorm_wordpool_less_exclusions.txt	LTP237	ltpFR	17	13	1	THICKET	1455	n/a	0	0	0.5869140625	0.422607421875	upper	../fonts/zerothre.ttf
2643.762	n/a	WORD	1321881	wordpools/wasnorm_wordpool_less_exclusions.txt	LTP237	ltpFR	17	13	1	WATER	1594	n/a	0	0	0.5869140625	0.422607421875	upper	../fonts/zerothre.ttf
2647.608	n/a	WORD	1323804	wordpools/wasnorm_wordpool_less_exclusions.txt	LTP237	ltpFR	17	13	1	COTTAGE	384	n/a	0	0	0.5869140625	0.422607421875	upper	../fonts/zerothre.ttf
2651.82	n/a	WORD	1325910	wordpools/wasnorm_wordpool_less_exclusions.txt	LTP237	ltpFR	17	13	1	ENEMY	534	n/a	1	0	0.5869140625	0.422607421875	upper	../fonts/zerothre.ttf
2655.89	n/a	WORD	1327945	wordpools/wasnorm_wordpool_less_exclusions.txt	LTP237	ltpFR	17	13	1	FOE	587	n/a	1	0	0.5869140625	0.422607421875	upper	../fonts/zerothre.ttf
2659.84	n/a	WORD	1329920	wordpools/wasnorm_wordpool_less_exclusions.txt	LTP237	ltpFR	17	13	1	CLAMP	316	n/a	0	0	0.5869140625	0.422607421875	upper	../fonts/zerothre.ttf
2663.77	n/a	WORD	1331885	wordpools/wasnorm_wordpool_less_exclusions.txt	LTP237	ltpFR	17	13	1	FIST	572	n/a	0	0	0.5869140625	0.422607421875	upper	../fonts/zerothre.ttf
2667.986	n/a	WORD	1333993	wordpools/wasnorm_wordpool_less_exclusions.txt	LTP237	ltpFR	17	13	1	VINEGAR	1569	n/a	0	0	0.5869140625	0.422607421875	upper	../fonts/zerothre.ttf
2672.018	n/a	WORD	1336009	wordpools/wasnorm_wordpool_less_exclusions.txt	LTP237	ltpFR	17	13	1	BREAST	171	n/a	0	0	0.5869140625	0.422607421875	upper	../fonts/zerothre.ttf
2675.916	n/a	WORD	1337958	wordpools/wasnorm_wordpool_less_exclusions.txt	LTP237	ltpFR	17	13	1	FLOWER	584	n/a	1	0	0.5869140625	0.422607421875	upper	../fonts/zerothre.ttf
2681.824	n/a	REC_START	1340912	n/a	LTP237	ltpFR	17	13	n/a	n/a	n/a	n/a	n/a	n/a	n/a	n/a	n/a	n/a
2682.716	n/a	REC_WORD	1341358	wordpools/wasnorm_wordpool_less_exclusions.txt	LTP237	ltpFR	17	13	1	VINEGAR	1569	n/a	0	n/a	n/a	n/a	n/a	n/a
2683.444	n/a	REC_WORD	1341722	wordpools/wasnorm_wordpool_less_exclusions.txt	LTP237	ltpFR	17	13	1	FLOWER	584	n/a	1	n/a	n/a	n/a	n/a	n/a
2684.318	n/a	REC_WORD	1342159	wordpools/wasnorm_wordpool_less_exclusions.txt	LTP237	ltpFR	17	13	1	BREAST	171	n/a	0	n/a	n/a	n/a	n/a	n/a
2689.566	n/a	REC_WORD	1344783	wordpools/wasnorm_wordpool_less_exclusions.txt	LTP237	ltpFR	17	13	1	DANDELION	438	n/a	0	n/a	n/a	n/a	n/a	n/a
2692.31	n/a	REC_WORD	1346155	wordpools/wasnorm_wordpool_less_exclusions.txt	LTP237	ltpFR	17	13	1	CACTUS	215	n/a	1	n/a	n/a	n/a	n/a	n/a
2693.516	n/a	REC_WORD	1346758	wordpools/wasnorm_wordpool_less_exclusions.txt	LTP237	ltpFR	17	13	1	THICKET	1455	n/a	0	n/a	n/a	n/a	n/a	n/a
2694.654	n/a	REC_WORD	1347327	wordpools/wasnorm_wordpool_less_exclusions.txt	LTP237	ltpFR	17	13	1	WATER	1594	n/a	0	n/a	n/a	n/a	n/a	n/a
2763.802	n/a	WORD	1381901	wordpools/wasnorm_wordpool_less_exclusions.txt	LTP237	ltpFR	17	14	-1	TYPEWRITER	1531	n/a	-1	1	1.0	1.0	upper	../fonts/Verdana.ttf
2767.684	n/a	WORD	1383842	wordpools/wasnorm_wordpool_less_exclusions.txt	LTP237	ltpFR	17	14	-1	FLESH	579	n/a	-1	1	1.0	1.0	upper	../fonts/Verdana.ttf
2771.61	n/a	WORD	1385805	wordpools/wasnorm_wordpool_less_exclusions.txt	LTP237	ltpFR	17	14	-1	RUM	1217	n/a	-1	1	1.0	1.0	upper	../fonts/Verdana.ttf
2775.594	n/a	WORD	1387797	wordpools/wasnorm_wordpool_less_exclusions.txt	LTP237	ltpFR	17	14	-1	BASKETBALL	96	n/a	-1	1	1.0	1.0	upper	../fonts/Verdana.ttf
2779.562	n/a	WORD	1389781	wordpools/wasnorm_wordpool_less_exclusions.txt	LTP237	ltpFR	17	14	-1	BALL	73	n/a	-1	1	1.0	1.0	upper	../fonts/Verdana.ttf
2783.422	n/a	WORD	1391711	wordpools/wasnorm_wordpool_less_exclusions.txt	LTP237	ltpFR	17	14	-1	TOOTH	1481	n/a	-1	1	1.0	1.0	upper	../fonts/Verdana.ttf
2787.408	n/a	WORD	1393704	wordpools/wasnorm_wordpool_less_exclusions.txt	LTP237	ltpFR	17	14	-1	ENGINEER	536	n/a	-1	1	1.0	1.0	upper	../fonts/Verdana.ttf
2791.442	n/a	WORD	1395721	wordpools/wasnorm_wordpool_less_exclusions.txt	LTP237	ltpFR	17	14	-1	CORPORATION	382	n/a	-1	1	1.0	1.0	upper	../fonts/Verdana.ttf
2795.54	n/a	WORD	1397770	wordpools/wasnorm_wordpool_less_exclusions.txt	LTP237	ltpFR	17	14	-1	SOCIETY	1338	n/a	-1	1	1.0	1.0	upper	../fonts/Verdana.ttf
2799.74	n/a	WORD	1399870	wordpools/wasnorm_wordpool_less_exclusions.txt	LTP237	ltpFR	17	14	-1	MOB	904	n/a	-1	1	1.0	1.0	upper	../fonts/Verdana.ttf
2803.672	n/a	WORD	1401836	wordpools/wasnorm_wordpool_less_exclusions.txt	LTP237	ltpFR	17	14	-1	HEN	703	n/a	-1	1	1.0	1.0	upper	../fonts/Verdana.ttf
2807.784	n/a	WORD	1403892	wordpools/wasnorm_wordpool_less_exclusions.txt	LTP237	ltpFR	17	14	-1	COFFEE	341	n/a	-1	1	1.0	1.0	upper	../fonts/Verdana.ttf
2811.836	n/a	WORD	1405918	wordpools/wasnorm_wordpool_less_exclusions.txt	LTP237	ltpFR	17	14	-1	CHEST	295	n/a	-1	1	1.0	1.0	upper	../fonts/Verdana.ttf
2815.802	n/a	WORD	1407901	wordpools/wasnorm_wordpool_less_exclusions.txt	LTP237	ltpFR	17	14	-1	PREACHER	1119	n/a	-1	1	1.0	1.0	upper	../fonts/Verdana.ttf
2819.932	n/a	WORD	1409966	wordpools/wasnorm_wordpool_less_exclusions.txt	LTP237	ltpFR	17	14	-1	KETTLE	772	n/a	-1	1	1.0	1.0	upper	../fonts/Verdana.ttf
2824.014	n/a	WORD	1412007	wordpools/wasnorm_wordpool_less_exclusions.txt	LTP237	ltpFR	17	14	-1	JOURNAL	760	n/a	-1	1	1.0	1.0	upper	../fonts/Verdana.ttf
2829.856	n/a	REC_START	1414928	n/a	LTP237	ltpFR	17	14	n/a	n/a	n/a	n/a	n/a	n/a	n/a	n/a	n/a	n/a
2830.554	n/a	REC_WORD	1415277	wordpools/wasnorm_wordpool_less_exclusions.txt	LTP237	ltpFR	17	14	-1	JOURNAL	760	n/a	-1	n/a	n/a	n/a	n/a	n/a
2831.448	n/a	REC_WORD	1415724	wordpools/wasnorm_wordpool_less_exclusions.txt	LTP237	ltpFR	17	14	-1	KETTLE	772	n/a	-1	n/a	n/a	n/a	n/a	n/a
2832.784	n/a	REC_WORD	1416392	wordpools/wasnorm_wordpool_less_exclusions.txt	LTP237	ltpFR	17	14	-1	PREACHER	1119	n/a	-1	n/a	n/a	n/a	n/a	n/a
2833.878	n/a	REC_WORD	1416939	wordpools/wasnorm_wordpool_less_exclusions.txt	LTP237	ltpFR	17	14	-1	HEN	703	n/a	-1	n/a	n/a	n/a	n/a	n/a
2837.718	n/a	REC_WORD	1418859	wordpools/wasnorm_wordpool_less_exclusions.txt	LTP237	ltpFR	17	14	-1	TYPEWRITER	1531	n/a	-1	n/a	n/a	n/a	n/a	n/a
2841.106	n/a	REC_WORD	1420553	wordpools/wasnorm_wordpool_less_exclusions.txt	LTP237	ltpFR	17	14	-1	RUM	1217	n/a	-1	n/a	n/a	n/a	n/a	n/a
2847.882	n/a	REC_WORD	1423941	wordpools/wasnorm_wordpool_less_exclusions.txt	LTP237	ltpFR	17	14	-1	SOCIETY	1338	n/a	-1	n/a	n/a	n/a	n/a	n/a
2848.882	n/a	REC_WORD_VV	1424441	wordpools/wasnorm_wordpool_less_exclusions.txt	LTP237	ltpFR	17	14	n/a	<>	-1	n/a	n/a	n/a	n/a	n/a	n/a	n/a
2935.942	n/a	WORD	1467971	wordpools/wasnorm_wordpool_less_exclusions.txt	LTP237	ltpFR	17	15	1	WILDERNESS	1610	n/a	0	0	0.5869140625	0.422607421875	upper	../fonts/zerothre.ttf
2939.954	n/a	WORD	1469977	wordpools/wasnorm_wordpool_less_exclusions.txt	LTP237	ltpFR	17	15	1	BATTERY	101	n/a	0	0	0.5869140625	0.422607421875	upper	../fonts/zerothre.ttf
2944.142	n/a	WORD	1472071	wordpools/wasnorm_wordpool_less_exclusions.txt	LTP237	ltpFR	17	15	1	BRANDY	169	n/a	0	0	0.5869140625	0.422607421875	upper	../fonts/zerothre.ttf
2948.236	n/a	WORD	1474118	wordpools/wasnorm_wordpool_less_exclusions.txt	LTP237	ltpFR	17	15	1	SCOTCH	1251	n/a	0	0	0.5869140625	0.422607421875	upper	../fonts/zerothre.ttf
2952.386	n/a	WORD	1476193	wordpools/wasnorm_wordpool_less_exclusions.txt	LTP237	ltpFR	17	15	1	GORILLA	650	n/a	1	0	0.5869140625	0.422607421875	upper	../fonts/zerothre.ttf
2956.304	n/a	WORD	1478152	wordpools/wasnorm_wordpool_less_exclusions.txt	LTP237	ltpFR	17	15	1	MAN	862	n/a	1	0	0.5869140625	0.422607421875	upper	../fonts/zerothre.ttf
2960.148	n/a	WORD	1480074	wordpools/wasnorm_wordpool_less_exclusions.txt	LTP237	ltpFR	17	15	1	YARD	1630	n/a	0	0	0.5869140625	0.422607421875	upper	../fonts/zerothre.ttf
2964.168	n/a	WORD	1482084	wordpools/wasnorm_wordpool_less_exclusions.txt	LTP237	ltpFR	17	15	1	CEREAL	272	n/a	0	0	0.5869140625	0.422607421875	upper	../fonts/zerothre.ttf
2968.284	n/a	WORD	1484142	wordpools/wasnorm_wordpool_less_exclusions.txt	LTP237	ltpFR	17	15	1	GAZELLE	628	n/a	1	0	0.5869140625	0.422607421875	upper	../fonts/zerothre.ttf
2972.496	n/a	WORD	1486248	wordpools/wasnorm_wordpool_less_exclusions.txt	LTP237	ltpFR	17	15	1	BUFFALO	186	n/a	1	0	0.5869140625	0.422607421875	upper	../fonts/zerothre.ttf
2976.46	n/a	WORD	1488230	wordpools/wasnorm_wordpool_less_exclusions.txt	LTP237	ltpFR	17	15	1	VAN	1548	n/a	0	0	0.5869140625	0.422607421875	upper	../fonts/zerothre.ttf
2980.56	n/a	WORD	1490280	wordpools/wasnorm_wordpool_less_exclusions.txt	LTP237	ltpFR	17	15	1	SCENERY	1247	n/a	1	0	0.5869140625	0.422607421875	upper	../fonts/zerothre.ttf
2984.462	n/a	WORD	1492231	wordpools/wasnorm_wordpool_less_exclusions.txt	LTP237	ltpFR	17	15	1	GRIZZLY	662	n/a	1	0	0.5869140625	0.422607421875	upper	../fonts/zerothre.ttf
2988.574	n/a	WORD	1494287	wordpools/wasnorm_wordpool_less_exclusions.txt	LTP237	ltpFR	17	15	1	PITCHFORK	1078	n/a	0	0	0.5869140625	0.422607421875	upper	../fonts/zerothre.ttf
2992.606	n/a	WORD	1496303	wordpools/wasnorm_wordpool_less_exclusions.txt	LTP237	ltpFR	17	15	1	AWARD	63	n/a	0	0	0.5869140625	0.422607421875	upper	../fonts/zerothre.ttf
2996.538	n/a	WORD	1498269	wordpools/wasnorm_wordpool_less_exclusions.txt	LTP237	ltpFR	17	15	1	CONDUCTOR	362	n/a	1	0	0.5869140625	0.422607421875	upper	../fonts/zerothre.ttf
3002.23	n/a	REC_START	1501115	n/a	LTP237	ltpFR	17	15	n/a	n/a	n/a	n/a	n/a	n/a	n/a	n/a	n/a	n/a
3003.946	n/a	REC_WORD	1501973	wordpools/wasnorm_wordpool_less_exclusions.txt	LTP237	ltpFR	17	15	1	AWARD	63	n/a	0	n/a	n/a	n/a	n/a	n/a
3004.72	n/a	REC_WORD	1502360	wordpools/wasnorm_wordpool_less_exclusions.txt	LTP237	ltpFR	17	15	1	CONDUCTOR	362	n/a	1	n/a	n/a	n/a	n/a	n/a
3005.798	n/a	REC_WORD	1502899	wordpools/wasnorm_wordpool_less_exclusions.txt	LTP237	ltpFR	17	15	1	GRIZZLY	662	n/a	1	n/a	n/a	n/a	n/a	n/a
3007.024	n/a	REC_WORD	1503512	wordpools/wasnorm_wordpool_less_exclusions.txt	LTP237	ltpFR	17	15	1	MAN	862	n/a	1	n/a	n/a	n/a	n/a	n/a
3008.048	n/a	REC_WORD	1504024	wordpools/wasnorm_wordpool_less_exclusions.txt	LTP237	ltpFR	17	15	1	GORILLA	650	n/a	1	n/a	n/a	n/a	n/a	n/a
3009.438	n/a	REC_WORD	1504719	wordpools/wasnorm_wordpool_less_exclusions.txt	LTP237	ltpFR	17	15	1	GAZELLE	628	n/a	1	n/a	n/a	n/a	n/a	n/a
3120.114	n/a	WORD	1560057	wordpools/wasnorm_wordpool_less_exclusions.txt	LTP237	ltpFR	17	16	-1	DRAWER	493	n/a	-1	1	1.0	1.0	upper	../fonts/Verdana.ttf
3124.124	n/a	WORD	1562062	wordpools/wasnorm_wordpool_less_exclusions.txt	LTP237	ltpFR	17	16	-1	LAUNDRY	803	n/a	-1	1	1.0	1.0	upper	../fonts/Verdana.ttf
3128.144	n/a	WORD	1564072	wordpools/wasnorm_wordpool_less_exclusions.txt	LTP237	ltpFR	17	16	-1	STEW	1380	n/a	-1	1	1.0	1.0	upper	../fonts/Verdana.ttf
3132.244	n/a	WORD	1566122	wordpools/wasnorm_wordpool_less_exclusions.txt	LTP237	ltpFR	17	16	-1	COBRA	336	n/a	-1	1	1.0	1.0	upper	../fonts/Verdana.ttf
3136.426	n/a	WORD	1568213	wordpools/wasnorm_wordpool_less_exclusions.txt	LTP237	ltpFR	17	16	-1	HINGE	709	n/a	-1	1	1.0	1.0	upper	../fonts/Verdana.ttf
3140.442	n/a	WORD	1570221	wordpools/wasnorm_wordpool_less_exclusions.txt	LTP237	ltpFR	17	16	-1	DOLL	481	n/a	-1	1	1.0	1.0	upper	../fonts/Verdana.ttf
3144.34	n/a	WORD	1572170	wordpools/wasnorm_wordpool_less_exclusions.txt	LTP237	ltpFR	17	16	-1	VEST	1559	n/a	-1	1	1.0	1.0	upper	../fonts/Verdana.ttf
3148.304	n/a	WORD	1574152	wordpools/wasnorm_wordpool_less_exclusions.txt	LTP237	ltpFR	17	16	-1	LAPEL	800	n/a	-1	1	1.0	1.0	upper	../fonts/Verdana.ttf
3152.186	n/a	WORD	1576093	wordpools/wasnorm_wordpool_less_exclusions.txt	LTP237	ltpFR	17	16	-1	VENUS	1557	n/a	-1	1	1.0	1.0	upper	../fonts/Verdana.ttf
3156.268	n/a	WORD	1578134	wordpools/wasnorm_wordpool_less_exclusions.txt	LTP237	ltpFR	17	16	-1	JUPITER	765	n/a	-1	1	1.0	1.0	upper	../fonts/Verdana.ttf
3160.45	n/a	WORD	1580225	wordpools/wasnorm_wordpool_less_exclusions.txt	LTP237	ltpFR	17	16	-1	COAT	333	n/a	-1	1	1.0	1.0	upper	../fonts/Verdana.ttf
3164.428	n/a	WORD	1582214	wordpools/wasnorm_wordpool_less_exclusions.txt	LTP237	ltpFR	17	16	-1	CHILD	299	n/a	-1	1	1.0	1.0	upper	../fonts/Verdana.ttf
3168.612	n/a	WORD	1584306	wordpools/wasnorm_wordpool_less_exclusions.txt	LTP237	ltpFR	17	16	-1	BANDANNA	80	n/a	-1	1	1.0	1.0	upper	../fonts/Verdana.ttf
3172.746	n/a	WORD	1586373	wordpools/wasnorm_wordpool_less_exclusions.txt	LTP237	ltpFR	17	16	-1	CASH	252	n/a	-1	1	1.0	1.0	upper	../fonts/Verdana.ttf
3176.81	n/a	WORD	1588405	wordpools/wasnorm_wordpool_less_exclusions.txt	LTP237	ltpFR	17	16	-1	CRYSTAL	418	n/a	-1	1	1.0	1.0	upper	../fonts/Verdana.ttf
3180.83	n/a	WORD	1590415	wordpools/wasnorm_wordpool_less_exclusions.txt	LTP237	ltpFR	17	16	-1	RING	1193	n/a	-1	1	1.0	1.0	upper	../fonts/Verdana.ttf
3186.518	n/a	REC_START	1593259	n/a	LTP237	ltpFR	17	16	n/a	n/a	n/a	n/a	n/a	n/a	n/a	n/a	n/a	n/a
3187.624	n/a	REC_WORD	1593812	wordpools/wasnorm_wordpool_less_exclusions.txt	LTP237	ltpFR	17	16	-1	CASH	252	n/a	-1	n/a	n/a	n/a	n/a	n/a
3188.38	n/a	REC_WORD	1594190	wordpools/wasnorm_wordpool_less_exclusions.txt	LTP237	ltpFR	17	16	-1	CRYSTAL	418	n/a	-1	n/a	n/a	n/a	n/a	n/a
3189.122	n/a	REC_WORD	1594561	wordpools/wasnorm_wordpool_less_exclusions.txt	LTP237	ltpFR	17	16	-1	RING	1193	n/a	-1	n/a	n/a	n/a	n/a	n/a
3191.436	n/a	REC_WORD	1595718	wordpools/wasnorm_wordpool_less_exclusions.txt	LTP237	ltpFR	17	16	-1	VENUS	1557	n/a	-1	n/a	n/a	n/a	n/a	n/a
3192.276	n/a	REC_WORD	1596138	wordpools/wasnorm_wordpool_less_exclusions.txt	LTP237	ltpFR	17	16	-1	JUPITER	765	n/a	-1	n/a	n/a	n/a	n/a	n/a
3199.604	n/a	REC_WORD	1599802	wordpools/wasnorm_wordpool_less_exclusions.txt	LTP237	ltpFR	17	16	-1	LAUNDRY	803	n/a	-1	n/a	n/a	n/a	n/a	n/a
3200.716	n/a	REC_WORD	1600358	wordpools/wasnorm_wordpool_less_exclusions.txt	LTP237	ltpFR	17	16	-1	DRAWER	493	n/a	-1	n/a	n/a	n/a	n/a	n/a
3202.022	n/a	REC_WORD	1601011	wordpools/wasnorm_wordpool_less_exclusions.txt	LTP237	ltpFR	17	16	-1	STEW	1380	n/a	-1	n/a	n/a	n/a	n/a	n/a
3278.62	n/a	REC_START	1639310	n/a	LTP237	ltpFR	17	n/a	n/a	n/a	n/a	n/a	n/a	n/a	n/a	n/a	n/a	n/a
3279.328	n/a	FFR_REC_WORD	1639664	wordpools/wasnorm_wordpool_less_exclusions.txt	LTP237	ltpFR	17	n/a	-1	VENUS	1557	n/a	-1	n/a	n/a	n/a	n/a	n/a
3280.08	n/a	FFR_REC_WORD	1640040	wordpools/wasnorm_wordpool_less_exclusions.txt	LTP237	ltpFR	17	n/a	-1	JUPITER	765	n/a	-1	n/a	n/a	n/a	n/a	n/a
3295.452	n/a	FFR_REC_WORD	1647726	wordpools/wasnorm_wordpool_less_exclusions.txt	LTP237	ltpFR	17	n/a	-1	TYPEWRITER	1531	n/a	-1	n/a	n/a	n/a	n/a	n/a
3296.452	n/a	FFR_REC_WORD_VV	1648226	wordpools/wasnorm_wordpool_less_exclusions.txt	LTP237	ltpFR	17	n/a	n/a	<>	-1	n/a	n/a	n/a	n/a	n/a	n/a	n/a
3303.83	n/a	FFR_REC_WORD	1651915	wordpools/wasnorm_wordpool_less_exclusions.txt	LTP237	ltpFR	17	n/a	0	TEAM	1441	n/a	1	n/a	n/a	n/a	n/a	n/a
3304.448	n/a	FFR_REC_WORD	1652224	wordpools/wasnorm_wordpool_less_exclusions.txt	LTP237	ltpFR	17	n/a	0	ATHLETE	52	n/a	1	n/a	n/a	n/a	n/a	n/a
3306.812	n/a	FFR_REC_WORD	1653406	wordpools/wasnorm_wordpool_less_exclusions.txt	LTP237	ltpFR	17	n/a	1	CONDUCTOR	362	n/a	1	n/a	n/a	n/a	n/a	n/a
3309.142	n/a	FFR_REC_WORD	1654571	wordpools/wasnorm_wordpool_less_exclusions.txt	LTP237	ltpFR	17	n/a	1	TECHNICIAN	1443	n/a	1	n/a	n/a	n/a	n/a	n/a
3312.344	n/a	FFR_REC_WORD	1656172	wordpools/wasnorm_wordpool_less_exclusions.txt	LTP237	ltpFR	17	n/a	1	GORILLA	650	n/a	1	n/a	n/a	n/a	n/a	n/a
3312.968	n/a	FFR_REC_WORD	1656484	wordpools/wasnorm_wordpool_less_exclusions.txt	LTP237	ltpFR	17	n/a	1	GAZELLE	628	n/a	1	n/a	n/a	n/a	n/a	n/a
3316.146	n/a	FFR_REC_WORD	1658073	wordpools/wasnorm_wordpool_less_exclusions.txt	LTP237	ltpFR	17	n/a	1	MAN	862	n/a	1	n/a	n/a	n/a	n/a	n/a
3317.912	n/a	FFR_REC_WORD	1658956	wordpools/wasnorm_wordpool_less_exclusions.txt	LTP237	ltpFR	17	n/a	-1	BASKETBALL	96	n/a	-1	n/a	n/a	n/a	n/a	n/a
3319.408	n/a	FFR_REC_WORD	1659704	wordpools/wasnorm_wordpool_less_exclusions.txt	LTP237	ltpFR	17	n/a	-1	BALL	73	n/a	-1	n/a	n/a	n/a	n/a	n/a
3351.932	n/a	FFR_REC_WORD	1675966	wordpools/wasnorm_wordpool_less_exclusions.txt	LTP237	ltpFR	17	n/a	1	FLEA	577	n/a	1	n/a	n/a	n/a	n/a	n/a
3356.172	n/a	FFR_REC_WORD	1678086	wordpools/wasnorm_wordpool_less_exclusions.txt	LTP237	ltpFR	17	n/a	0	SHOE	1288	n/a	0	n/a	n/a	n/a	n/a	n/a
3357.006	n/a	FFR_REC_WORD	1678503	wordpools/wasnorm_wordpool_less_exclusions.txt	LTP237	ltpFR	17	n/a	0	BOOT	150	n/a	1	n/a	n/a	n/a	n/a	n/a
3357.648	n/a	FFR_REC_WORD	1678824	wordpools/wasnorm_wordpool_less_exclusions.txt	LTP237	ltpFR	17	n/a	0	TOE	1473	n/a	0	n/a	n/a	n/a	n/a	n/a
3361.99	n/a	FFR_REC_WORD	1680995	wordpools/wasnorm_wordpool_less_exclusions.txt	LTP237	ltpFR	17	n/a	0	STADIUM	1364	n/a	1	n/a	n/a	n/a	n/a	n/a
3377.126	n/a	FFR_REC_WORD	1688563	wordpools/wasnorm_wordpool_less_exclusions.txt	LTP237	ltpFR	17	n/a	1	CUSHION	428	n/a	0	n/a	n/a	n/a	n/a	n/a
3378.04	n/a	FFR_REC_WORD	1689020	wordpools/wasnorm_wordpool_less_exclusions.txt	LTP237	ltpFR	17	n/a	0	CONCERT	360	n/a	1	n/a	n/a	n/a	n/a	n/a
3385.672	n/a	FFR_REC_WORD	1692836	wordpools/wasnorm_wordpool_less_exclusions.txt	LTP237	ltpFR	17	n/a	1	CHEF	290	n/a	1	n/a	n/a	n/a	n/a	n/a
3387.996	n/a	FFR_REC_WORD	1693998	wordpools/wasnorm_wordpool_less_exclusions.txt	LTP237	ltpFR	17	n/a	1	TRAY	1498	n/a	0	n/a	n/a	n/a	n/a	n/a
3401.258	n/a	FFR_REC_WORD	1700629	wordpools/wasnorm_wordpool_less_exclusions.txt	LTP237	ltpFR	17	n/a	0	FISH	571	n/a	0	n/a	n/a	n/a	n/a	n/a
3401.988	n/a	FFR_REC_WORD	1700994	wordpools/wasnorm_wordpool_less_exclusions.txt	LTP237	ltpFR	17	n/a	0	FIN	566	n/a	0	n/a	n/a	n/a	n/a	n/a
3419.672	n/a	FFR_REC_WORD	1709836	wordpools/wasnorm_wordpool_less_exclusions.txt	LTP237	ltpFR	17	n/a	1	WATER	1594	n/a	0	n/a	n/a	n/a	n/a	n/a
3420.524	n/a	FFR_REC_WORD	1710262	wordpools/wasnorm_wordpool_less_exclusions.txt	LTP237	ltpFR	17	n/a	1	WATERFALL	1595	n/a	0	n/a	n/a	n/a	n/a	n/a
3423.908	n/a	FFR_REC_WORD	1711954	wordpools/wasnorm_wordpool_less_exclusions.txt	LTP237	ltpFR	17	n/a	1	WILDERNESS	1610	n/a	0	n/a	n/a	n/a	n/a	n/a
3488.164	n/a	FFR_REC_WORD	1744082	wordpools/wasnorm_wordpool_less_exclusions.txt	LTP237	ltpFR	17	n/a	1	CAR	241	n/a	0	n/a	n/a	n/a	n/a	n/a
3492.97	n/a	FFR_REC_WORD	1746485	wordpools/wasnorm_wordpool_less_exclusions.txt	LTP237	ltpFR	17	n/a	0	TRACTOR	1493	n/a	1	n/a	n/a	n/a	n/a	n/a
3498.198	n/a	FFR_REC_WORD	1749099	wordpools/wasnorm_wordpool_less_exclusions.txt	LTP237	ltpFR	17	n/a	0	CHAMPAGNE	278	n/a	0	n/a	n/a	n/a	n/a	n/a
3499.22	n/a	FFR_REC_WORD	1749610	wordpools/wasnorm_wordpool_less_exclusions.txt	LTP237	ltpFR	17	n/a	0	VINE	1568	n/a	0	n/a	n/a	n/a	n/a	n/a
3509.896	n/a	FFR_REC_WORD	1754948	wordpools/wasnorm_wordpool_less_exclusions.txt	LTP237	ltpFR	17	n/a	0	MICROPHONE	890	n/a	0	n/a	n/a	n/a	n/a	n/a
3592.922	n/a	REC_START	1796461	n/a	LTP237	ltpFR	17	1	n/a	n/a	n/a	n/a	n/a	n/a	n/a	n/a	n/a	n/a
3592.97	n/a	RECOG_TARGET	1796485	n/a	LTP237	ltpFR	17	1	0	FIN	566	3	0	n/a	n/a	n/a	n/a	n/a
3594.36	n/a	RECOG_RESP	1797180	n/a	LTP237	ltpFR	17	1	0	FIN	566	n/a	0	n/a	n/a	n/a	n/a	n/a
3595.316	n/a	RECOG_CONF	1797658	n/a	LTP237	ltpFR	17	1	0	FIN	566	3	0	n/a	n/a	n/a	n/a	n/a
3596.966	n/a	RECOG_TARGET	1798483	n/a	LTP237	ltpFR	17	1	1	BUFFALO	186	2	1	n/a	n/a	n/a	n/a	n/a
3597.832	n/a	RECOG_RESP	1798916	n/a	LTP237	ltpFR	17	1	1	BUFFALO	186	n/a	1	n/a	n/a	n/a	n/a	n/a
3598.282	n/a	RECOG_CONF	1799141	n/a	LTP237	ltpFR	17	1	1	BUFFALO	186	2	1	n/a	n/a	n/a	n/a	n/a
3599.746	n/a	RECOG_TARGET	1799873	n/a	LTP237	ltpFR	17	1	0	KITTEN	780	1	1	n/a	n/a	n/a	n/a	n/a
3600.404	n/a	RECOG_RESP	1800202	n/a	LTP237	ltpFR	17	1	0	KITTEN	780	n/a	1	n/a	n/a	n/a	n/a	n/a
3600.81	n/a	RECOG_CONF	1800405	n/a	LTP237	ltpFR	17	1	0	KITTEN	780	1	1	n/a	n/a	n/a	n/a	n/a
3602.574	n/a	RECOG_LURE	1801287	n/a	LTP237	ltpFR	17	1	n/a	BALLOON	75	1	n/a	n/a	n/a	n/a	n/a	n/a
3603.578	n/a	RECOG_RESP	1801789	n/a	LTP237	ltpFR	17	1	n/a	BALLOON	75	n/a	n/a	n/a	n/a	n/a	n/a	n/a
3604.136	n/a	RECOG_CONF	1802068	n/a	LTP237	ltpFR	17	1	n/a	BALLOON	75	1	n/a	n/a	n/a	n/a	n/a	n/a
3605.652	n/a	RECOG_TARGET	1802826	n/a	LTP237	ltpFR	17	1	-1	KETTLE	772	4	-1	n/a	n/a	n/a	n/a	n/a
3606.232	n/a	RECOG_RESP	1803116	n/a	LTP237	ltpFR	17	1	-1	KETTLE	772	n/a	-1	n/a	n/a	n/a	n/a	n/a
3606.814	n/a	RECOG_CONF	1803407	n/a	LTP237	ltpFR	17	1	-1	KETTLE	772	4	-1	n/a	n/a	n/a	n/a	n/a
3608.092	n/a	RECOG_TARGET	1804046	n/a	LTP237	ltpFR	17	1	1	BANKER	84	5	1	n/a	n/a	n/a	n/a	n/a
3608.632	n/a	RECOG_RESP	1804316	n/a	LTP237	ltpFR	17	1	1	BANKER	84	n/a	1	n/a	n/a	n/a	n/a	n/a
3609.214	n/a	RECOG_CONF	1804607	n/a	LTP237	ltpFR	17	1	1	BANKER	84	5	1	n/a	n/a	n/a	n/a	n/a
3610.466	n/a	RECOG_LURE	1805233	n/a	LTP237	ltpFR	17	1	n/a	BEGGAR	117	1	n/a	n/a	n/a	n/a	n/a	n/a
3610.814	n/a	RECOG_RESP	1805407	n/a	LTP237	ltpFR	17	1	n/a	BEGGAR	117	n/a	n/a	n/a	n/a	n/a	n/a	n/a
3611.306	n/a	RECOG_CONF	1805653	n/a	LTP237	ltpFR	17	1	n/a	BEGGAR	117	1	n/a	n/a	n/a	n/a	n/a	n/a
3613.164	n/a	RECOG_LURE	1806582	n/a	LTP237	ltpFR	17	1	n/a	CROOK	412	2	n/a	n/a	n/a	n/a	n/a	n/a
3613.698	n/a	RECOG_RESP	1806849	n/a	LTP237	ltpFR	17	1	n/a	CROOK	412	n/a	n/a	n/a	n/a	n/a	n/a	n/a
3614.19	n/a	RECOG_CONF	1807095	n/a	LTP237	ltpFR	17	1	n/a	CROOK	412	2	n/a	n/a	n/a	n/a	n/a	n/a
3615.942	n/a	RECOG_TARGET	1807971	n/a	LTP237	ltpFR	17	1	1	SCOTCH	1251	4	0	n/a	n/a	n/a	n/a	n/a
3616.48	n/a	RECOG_RESP	1808240	n/a	LTP237	ltpFR	17	1	1	SCOTCH	1251	n/a	0	n/a	n/a	n/a	n/a	n/a
3617.084	n/a	RECOG_CONF	1808542	n/a	LTP237	ltpFR	17	1	1	SCOTCH	1251	4	0	n/a	n/a	n/a	n/a	n/a
3618.5	n/a	RECOG_TARGET	1809250	n/a	LTP237	ltpFR	17	1	0	LIP	828	4	0	n/a	n/a	n/a	n/a	n/a
3619.002	n/a	RECOG_RESP	1809501	n/a	LTP237	ltpFR	17	1	0	LIP	828	n/a	0	n/a	n/a	n/a	n/a	n/a
3619.606	n/a	RECOG_CONF	1809803	n/a	LTP237	ltpFR	17	1	0	LIP	828	4	0	n/a	n/a	n/a	n/a	n/a
3621.044	n/a	RECOG_TARGET	1810522	n/a	LTP237	ltpFR	17	1	-1	RING	1193	5	-1	n/a	n/a	n/a	n/a	n/a
3621.524	n/a	RECOG_RESP	1810762	n/a	LTP237	ltpFR	17	1	-1	RING	1193	n/a	-1	n/a	n/a	n/a	n/a	n/a
3621.952	n/a	RECOG_CONF	1810976	n/a	LTP237	ltpFR	17	1	-1	RING	1193	5	-1	n/a	n/a	n/a	n/a	n/a
3623.604	n/a	RECOG_TARGET	1811802	n/a	LTP237	ltpFR	17	1	0	LIMOUSINE	824	5	1	n/a	n/a	n/a	n/a	n/a
3624.06	n/a	RECOG_RESP	1812030	n/a	LTP237	ltpFR	17	1	0	LIMOUSINE	824	n/a	1	n/a	n/a	n/a	n/a	n/a
3624.468	n/a	RECOG_CONF	1812234	n/a	LTP237	ltpFR	17	1	0	LIMOUSINE	824	5	1	n/a	n/a	n/a	n/a	n/a
3626.014	n/a	RECOG_LURE	1813007	n/a	LTP237	ltpFR	17	1	n/a	FIREMAN	569	1	n/a	n/a	n/a	n/a	n/a	n/a
3626.556	n/a	RECOG_RESP	1813278	n/a	LTP237	ltpFR	17	1	n/a	FIREMAN	569	n/a	n/a	n/a	n/a	n/a	n/a	n/a
3626.922	n/a	RECOG_CONF	1813461	n/a	LTP237	ltpFR	17	1	n/a	FIREMAN	569	1	n/a	n/a	n/a	n/a	n/a	n/a
3628.552	n/a	RECOG_TARGET	1814276	n/a	LTP237	ltpFR	17	1	-1	DOLL	481	1	-1	n/a	n/a	n/a	n/a	n/a
3628.984	n/a	RECOG_RESP	1814492	n/a	LTP237	ltpFR	17	1	-1	DOLL	481	n/a	-1	n/a	n/a	n/a	n/a	n/a
3629.396	n/a	RECOG_CONF	1814698	n/a	LTP237	ltpFR	17	1	-1	DOLL	481	1	-1	n/a	n/a	n/a	n/a	n/a
3631.216	n/a	RECOG_TARGET	1815608	n/a	LTP237	ltpFR	17	1	0	SUSPECT	1415	2	1	n/a	n/a	n/a	n/a	n/a
3631.788	n/a	RECOG_RESP	1815894	n/a	LTP237	ltpFR	17	1	0	SUSPECT	1415	n/a	1	n/a	n/a	n/a	n/a	n/a
3632.18	n/a	RECOG_CONF	1816090	n/a	LTP237	ltpFR	17	1	0	SUSPECT	1415	2	1	n/a	n/a	n/a	n/a	n/a
3633.878	n/a	RECOG_TARGET	1816939	n/a	LTP237	ltpFR	17	1	-1	CAFETERIA	217	2	-1	n/a	n/a	n/a	n/a	n/a
3634.478	n/a	RECOG_RESP	1817239	n/a	LTP237	ltpFR	17	1	-1	CAFETERIA	217	n/a	-1	n/a	n/a	n/a	n/a	n/a
3635.02	n/a	RECOG_CONF	1817510	n/a	LTP237	ltpFR	17	1	-1	CAFETERIA	217	2	-1	n/a	n/a	n/a	n/a	n/a
3636.806	n/a	RECOG_TARGET	1818403	n/a	LTP237	ltpFR	17	1	-1	JUPITER	765	3	-1	n/a	n/a	n/a	n/a	n/a
3637.46	n/a	RECOG_RESP	1818730	n/a	LTP237	ltpFR	17	1	-1	JUPITER	765	n/a	-1	n/a	n/a	n/a	n/a	n/a
3637.946	n/a	RECOG_CONF	1818973	n/a	LTP237	ltpFR	17	1	-1	JUPITER	765	3	-1	n/a	n/a	n/a	n/a	n/a
3639.478	n/a	RECOG_LURE	1819739	n/a	LTP237	ltpFR	17	1	n/a	ROBOT	1200	1	n/a	n/a	n/a	n/a	n/a	n/a
3639.956	n/a	RECOG_RESP	1819978	n/a	LTP237	ltpFR	17	1	n/a	ROBOT	1200	n/a	n/a	n/a	n/a	n/a	n/a	n/a
3640.352	n/a	RECOG_CONF	1820176	n/a	LTP237	ltpFR	17	1	n/a	ROBOT	1200	1	n/a	n/a	n/a	n/a	n/a	n/a
3642.176	n/a	RECOG_TARGET	1821088	n/a	LTP237	ltpFR	17	1	0	CONCERT	360	4	1	n/a	n/a	n/a	n/a	n/a
3642.792	n/a	RECOG_RESP	1821396	n/a	LTP237	ltpFR	17	1	0	CONCERT	360	n/a	1	n/a	n/a	n/a	n/a	n/a
3643.256	n/a	RECOG_CONF	1821628	n/a	LTP237	ltpFR	17	1	0	CONCERT	360	4	1	n/a	n/a	n/a	n/a	n/a
3644.954	n/a	RECOG_TARGET	1822477	n/a	LTP237	ltpFR	17	1	0	SHARK	1275	4	1	n/a	n/a	n/a	n/a	n/a
3645.378	n/a	RECOG_RESP	1822689	n/a	LTP237	ltpFR	17	1	0	SHARK	1275	n/a	1	n/a	n/a	n/a	n/a	n/a
3645.912	n/a	RECOG_CONF	1822956	n/a	LTP237	ltpFR	17	1	0	SHARK	1275	4	1	n/a	n/a	n/a	n/a	n/a
3649.152	n/a	REC_START	1824576	n/a	LTP237	ltpFR	17	2	n/a	n/a	n/a	n/a	n/a	n/a	n/a	n/a	n/a	n/a
3649.202	n/a	RECOG_TARGET	1824601	n/a	LTP237	ltpFR	17	2	0	FAMILY	550	3	1	n/a	n/a	n/a	n/a	n/a
3649.72	n/a	RECOG_RESP	1824860	n/a	LTP237	ltpFR	17	2	0	FAMILY	550	n/a	1	n/a	n/a	n/a	n/a	n/a
3650.124	n/a	RECOG_CONF	1825062	n/a	LTP237	ltpFR	17	2	0	FAMILY	550	3	1	n/a	n/a	n/a	n/a	n/a
3651.812	n/a	RECOG_TARGET	1825906	n/a	LTP237	ltpFR	17	2	1	COYOTE	396	1	1	n/a	n/a	n/a	n/a	n/a
3652.074	n/a	RECOG_RESP	1826037	n/a	LTP237	ltpFR	17	2	1	COYOTE	396	n/a	1	n/a	n/a	n/a	n/a	n/a
3652.448	n/a	RECOG_CONF	1826224	n/a	LTP237	ltpFR	17	2	1	COYOTE	396	1	1	n/a	n/a	n/a	n/a	n/a
3654.088	n/a	RECOG_TARGET	1827044	n/a	LTP237	ltpFR	17	2	0	METEOR	889	1	0	n/a	n/a	n/a	n/a	n/a
3654.44	n/a	RECOG_RESP	1827220	n/a	LTP237	ltpFR	17	2	0	METEOR	889	n/a	0	n/a	n/a	n/a	n/a	n/a
3655.004	n/a	RECOG_CONF	1827502	n/a	LTP237	ltpFR	17	2	0	METEOR	889	1	0	n/a	n/a	n/a	n/a	n/a
3656.542	n/a	RECOG_TARGET	1828271	n/a	LTP237	ltpFR	17	2	0	SCULPTURE	1258	2	0	n/a	n/a	n/a	n/a	n/a
3657.236	n/a	RECOG_RESP	1828618	n/a	LTP237	ltpFR	17	2	0	SCULPTURE	1258	n/a	0	n/a	n/a	n/a	n/a	n/a
3657.618	n/a	RECOG_CONF	1828809	n/a	LTP237	ltpFR	17	2	0	SCULPTURE	1258	2	0	n/a	n/a	n/a	n/a	n/a
3659.424	n/a	RECOG_TARGET	1829712	n/a	LTP237	ltpFR	17	2	1	BURGLAR	200	3	1	n/a	n/a	n/a	n/a	n/a
3659.788	n/a	RECOG_RESP	1829894	n/a	LTP237	ltpFR	17	2	1	BURGLAR	200	n/a	1	n/a	n/a	n/a	n/a	n/a
3660.23	n/a	RECOG_CONF	1830115	n/a	LTP237	ltpFR	17	2	1	BURGLAR	200	3	1	n/a	n/a	n/a	n/a	n/a
3661.752	n/a	RECOG_LURE	1830876	n/a	LTP237	ltpFR	17	2	n/a	BUTCHER	203	2	n/a	n/a	n/a	n/a	n/a	n/a
3662.612	n/a	RECOG_RESP	1831306	n/a	LTP237	ltpFR	17	2	n/a	BUTCHER	203	n/a	n/a	n/a	n/a	n/a	n/a	n/a
3662.98	n/a	RECOG_CONF	1831490	n/a	LTP237	ltpFR	17	2	n/a	BUTCHER	203	2	n/a	n/a	n/a	n/a	n/a	n/a
3664.56	n/a	RECOG_LURE	1832280	n/a	LTP237	ltpFR	17	2	n/a	VICTIM	1562	4	n/a	n/a	n/a	n/a	n/a	n/a
3665.114	n/a	RECOG_RESP	1832557	n/a	LTP237	ltpFR	17	2	n/a	VICTIM	1562	n/a	n/a	n/a	n/a	n/a	n/a	n/a
3665.74	n/a	RECOG_CONF	1832870	n/a	LTP237	ltpFR	17	2	n/a	VICTIM	1562	4	n/a	n/a	n/a	n/a	n/a	n/a
3667.234	n/a	RECOG_LURE	1833617	n/a	LTP237	ltpFR	17	2	n/a	INTESTINE	742	3	n/a	n/a	n/a	n/a	n/a	n/a
3668.092	n/a	RECOG_RESP	1834046	n/a	LTP237	ltpFR	17	2	n/a	INTESTINE	742	n/a	n/a	n/a	n/a	n/a	n/a	n/a
3668.478	n/a	RECOG_CONF	1834239	n/a	LTP237	ltpFR	17	2	n/a	INTESTINE	742	3	n/a	n/a	n/a	n/a	n/a	n/a
3670.148	n/a	RECOG_TARGET	1835074	n/a	LTP237	ltpFR	17	2	0	CITIZEN	312	1	1	n/a	n/a	n/a	n/a	n/a
3670.764	n/a	RECOG_RESP	1835382	n/a	LTP237	ltpFR	17	2	0	CITIZEN	312	n/a	1	n/a	n/a	n/a	n/a	n/a
3671.322	n/a	RECOG_CONF	1835661	n/a	LTP237	ltpFR	17	2	0	CITIZEN	312	1	1	n/a	n/a	n/a	n/a	n/a
3672.742	n/a	RECOG_TARGET	1836371	n/a	LTP237	ltpFR	17	2	0	BUTTERFLY	206	5	0	n/a	n/a	n/a	n/a	n/a
3673.22	n/a	RECOG_RESP	1836610	n/a	LTP237	ltpFR	17	2	0	BUTTERFLY	206	n/a	0	n/a	n/a	n/a	n/a	n/a
3673.75	n/a	RECOG_CONF	1836875	n/a	LTP237	ltpFR	17	2	0	BUTTERFLY	206	5	0	n/a	n/a	n/a	n/a	n/a
3675.114	n/a	RECOG_LURE	1837557	n/a	LTP237	ltpFR	17	2	n/a	SHEARS	1276	3	n/a	n/a	n/a	n/a	n/a	n/a
3675.91	n/a	RECOG_RESP	1837955	n/a	LTP237	ltpFR	17	2	n/a	SHEARS	1276	n/a	n/a	n/a	n/a	n/a	n/a	n/a
3676.436	n/a	RECOG_CONF	1838218	n/a	LTP237	ltpFR	17	2	n/a	SHEARS	1276	3	n/a	n/a	n/a	n/a	n/a	n/a
3677.994	n/a	RECOG_TARGET	1838997	n/a	LTP237	ltpFR	17	2	-1	DOORBELL	487	4	-1	n/a	n/a	n/a	n/a	n/a
3678.632	n/a	RECOG_RESP	1839316	n/a	LTP237	ltpFR	17	2	-1	DOORBELL	487	n/a	-1	n/a	n/a	n/a	n/a	n/a
3679.0	n/a	RECOG_CONF	1839500	n/a	LTP237	ltpFR	17	2	-1	DOORBELL	487	4	-1	n/a	n/a	n/a	n/a	n/a
3680.522	n/a	RECOG_LURE	1840261	n/a	LTP237	ltpFR	17	2	n/a	BOOTH	151	1	n/a	n/a	n/a	n/a	n/a	n/a
3681.166	n/a	RECOG_RESP	1840583	n/a	LTP237	ltpFR	17	2	n/a	BOOTH	151	n/a	n/a	n/a	n/a	n/a	n/a	n/a
3681.514	n/a	RECOG_CONF	1840757	n/a	LTP237	ltpFR	17	2	n/a	BOOTH	151	1	n/a	n/a	n/a	n/a	n/a	n/a
3682.982	n/a	RECOG_TARGET	1841491	n/a	LTP237	ltpFR	17	2	0	DISH	474	3	0	n/a	n/a	n/a	n/a	n/a
3683.724	n/a	RECOG_RESP	1841862	n/a	LTP237	ltpFR	17	2	0	DISH	474	n/a	0	n/a	n/a	n/a	n/a	n/a
3684.1	n/a	RECOG_CONF	1842050	n/a	LTP237	ltpFR	17	2	0	DISH	474	3	0	n/a	n/a	n/a	n/a	n/a
3685.726	n/a	RECOG_LURE	1842863	n/a	LTP237	ltpFR	17	2	n/a	LADY	794	2	n/a	n/a	n/a	n/a	n/a	n/a
3686.554	n/a	RECOG_RESP	1843277	n/a	LTP237	ltpFR	17	2	n/a	LADY	794	n/a	n/a	n/a	n/a	n/a	n/a	n/a
3686.93	n/a	RECOG_CONF	1843465	n/a	LTP237	ltpFR	17	2	n/a	LADY	794	2	n/a	n/a	n/a	n/a	n/a	n/a
3688.502	n/a	RECOG_TARGET	1844251	n/a	LTP237	ltpFR	17	2	0	FLEET	578	4	1	n/a	n/a	n/a	n/a	n/a
3689.37	n/a	RECOG_RESP	1844685	n/a	LTP237	ltpFR	17	2	0	FLEET	578	n/a	1	n/a	n/a	n/a	n/a	n/a
3689.88	n/a	RECOG_CONF	1844940	n/a	LTP237	ltpFR	17	2	0	FLEET	578	4	1	n/a	n/a	n/a	n/a	n/a
3691.476	n/a	RECOG_TARGET	1845738	n/a	LTP237	ltpFR	17	2	1	FLY	586	3	1	n/a	n/a	n/a	n/a	n/a
3692.142	n/a	RECOG_RESP	1846071	n/a	LTP237	ltpFR	17	2	1	FLY	586	n/a	1	n/a	n/a	n/a	n/a	n/a
3692.52	n/a	RECOG_CONF	1846260	n/a	LTP237	ltpFR	17	2	1	FLY	586	3	1	n/a	n/a	n/a	n/a	n/a
3694.02	n/a	RECOG_TARGET	1847010	n/a	LTP237	ltpFR	17	2	1	RULER	1216	1	0	n/a	n/a	n/a	n/a	n/a
3694.698	n/a	RECOG_RESP	1847349	n/a	LTP237	ltpFR	17	2	1	RULER	1216	n/a	0	n/a	n/a	n/a	n/a	n/a
3695.094	n/a	RECOG_CONF	1847547	n/a	LTP237	ltpFR	17	2	1	RULER	1216	1	0	n/a	n/a	n/a	n/a	n/a
3696.768	n/a	RECOG_TARGET	1848384	n/a	LTP237	ltpFR	17	2	1	CHIME	300	3	0	n/a	n/a	n/a	n/a	n/a
3697.406	n/a	RECOG_RESP	1848703	n/a	LTP237	ltpFR	17	2	1	CHIME	300	n/a	0	n/a	n/a	n/a	n/a	n/a
3697.788	n/a	RECOG_CONF	1848894	n/a	LTP237	ltpFR	17	2	1	CHIME	300	3	0	n/a	n/a	n/a	n/a	n/a
3699.512	n/a	RECOG_LURE	1849756	n/a	LTP237	ltpFR	17	2	n/a	SUN	1406	2	n/a	n/a	n/a	n/a	n/a	n/a
3700.224	n/a	RECOG_RESP	1850112	n/a	LTP237	ltpFR	17	2	n/a	SUN	1406	n/a	n/a	n/a	n/a	n/a	n/a	n/a
3700.646	n/a	RECOG_CONF	1850323	n/a	LTP237	ltpFR	17	2	n/a	SUN	1406	2	n/a	n/a	n/a	n/a	n/a	n/a
3712.912	n/a	REC_START	1856456	n/a	LTP237	ltpFR	17	3	n/a	n/a	n/a	n/a	n/a	n/a	n/a	n/a	n/a	n/a
3712.962	n/a	RECOG_TARGET	1856481	n/a	LTP237	ltpFR	17	3	-1	NICOTINE	951	5	-1	n/a	n/a	n/a	n/a	n/a
3713.748	n/a	RECOG_RESP	1856874	n/a	LTP237	ltpFR	17	3	-1	NICOTINE	951	n/a	-1	n/a	n/a	n/a	n/a	n/a
3714.254	n/a	RECOG_CONF	1857127	n/a	LTP237	ltpFR	17	3	-1	NICOTINE	951	5	-1	n/a	n/a	n/a	n/a	n/a
3715.454	n/a	RECOG_LURE	1857727	n/a	LTP237	ltpFR	17	3	n/a	SAUCER	1237	2	n/a	n/a	n/a	n/a	n/a	n/a
3716.358	n/a	RECOG_RESP	1858179	n/a	LTP237	ltpFR	17	3	n/a	SAUCER	1237	n/a	n/a	n/a	n/a	n/a	n/a	n/a
3716.704	n/a	RECOG_CONF	1858352	n/a	LTP237	ltpFR	17	3	n/a	SAUCER	1237	2	n/a	n/a	n/a	n/a	n/a	n/a
3718.182	n/a	RECOG_LURE	1859091	n/a	LTP237	ltpFR	17	3	n/a	GODDESS	646	3	n/a	n/a	n/a	n/a	n/a	n/a
3719.106	n/a	RECOG_RESP	1859553	n/a	LTP237	ltpFR	17	3	n/a	GODDESS	646	n/a	n/a	n/a	n/a	n/a	n/a	n/a
3719.462	n/a	RECOG_CONF	1859731	n/a	LTP237	ltpFR	17	3	n/a	GODDESS	646	3	n/a	n/a	n/a	n/a	n/a	n/a
3720.906	n/a	RECOG_TARGET	1860453	n/a	LTP237	ltpFR	17	3	1	ROCK	1201	1	0	n/a	n/a	n/a	n/a	n/a
3721.85	n/a	RECOG_RESP	1860925	n/a	LTP237	ltpFR	17	3	1	ROCK	1201	n/a	0	n/a	n/a	n/a	n/a	n/a
3722.568	n/a	RECOG_CONF	1861284	n/a	LTP237	ltpFR	17	3	1	ROCK	1201	1	0	n/a	n/a	n/a	n/a	n/a
3724.238	n/a	RECOG_LURE	1862119	n/a	LTP237	ltpFR	17	3	n/a	SLEEVE	1324	2	n/a	n/a	n/a	n/a	n/a	n/a
3725.008	n/a	RECOG_RESP	1862504	n/a	LTP237	ltpFR	17	3	n/a	SLEEVE	1324	n/a	n/a	n/a	n/a	n/a	n/a	n/a
3725.376	n/a	RECOG_CONF	1862688	n/a	LTP237	ltpFR	17	3	n/a	SLEEVE	1324	2	n/a	n/a	n/a	n/a	n/a	n/a
3727.096	n/a	RECOG_TARGET	1863548	n/a	LTP237	ltpFR	17	3	0	ROPE	1211	4	0	n/a	n/a	n/a	n/a	n/a
3727.682	n/a	RECOG_RESP	1863841	n/a	LTP237	ltpFR	17	3	0	ROPE	1211	n/a	0	n/a	n/a	n/a	n/a	n/a
3728.226	n/a	RECOG_CONF	1864113	n/a	LTP237	ltpFR	17	3	0	ROPE	1211	4	0	n/a	n/a	n/a	n/a	n/a
3729.76	n/a	RECOG_TARGET	1864880	n/a	LTP237	ltpFR	17	3	-1	FLESH	579	3	-1	n/a	n/a	n/a	n/a	n/a
3731.766	n/a	RECOG_RESP	1865883	n/a	LTP237	ltpFR	17	3	-1	FLESH	579	n/a	-1	n/a	n/a	n/a	n/a	n/a
3732.304	n/a	RECOG_CONF	1866152	n/a	LTP237	ltpFR	17	3	-1	FLESH	579	3	-1	n/a	n/a	n/a	n/a	n/a
3733.992	n/a	RECOG_LURE	1866996	n/a	LTP237	ltpFR	17	3	n/a	CABINET	212	1	n/a	n/a	n/a	n/a	n/a	n/a
3734.564	n/a	RECOG_RESP	1867282	n/a	LTP237	ltpFR	17	3	n/a	CABINET	212	n/a	n/a	n/a	n/a	n/a	n/a	n/a
3734.968	n/a	RECOG_CONF	1867484	n/a	LTP237	ltpFR	17	3	n/a	CABINET	212	1	n/a	n/a	n/a	n/a	n/a	n/a
3736.788	n/a	RECOG_LURE	1868394	n/a	LTP237	ltpFR	17	3	n/a	CHICKEN	297	2	n/a	n/a	n/a	n/a	n/a	n/a
3737.266	n/a	RECOG_RESP	1868633	n/a	LTP237	ltpFR	17	3	n/a	CHICKEN	297	n/a	n/a	n/a	n/a	n/a	n/a	n/a
3738.144	n/a	RECOG_CONF	1869072	n/a	LTP237	ltpFR	17	3	n/a	CHICKEN	297	2	n/a	n/a	n/a	n/a	n/a	n/a
3739.85	n/a	RECOG_LURE	1869925	n/a	LTP237	ltpFR	17	3	n/a	GHOST	634	3	n/a	n/a	n/a	n/a	n/a	n/a
3740.774	n/a	RECOG_RESP	1870387	n/a	LTP237	ltpFR	17	3	n/a	GHOST	634	n/a	n/a	n/a	n/a	n/a	n/a	n/a
3741.154	n/a	RECOG_CONF	1870577	n/a	LTP237	ltpFR	17	3	n/a	GHOST	634	3	n/a	n/a	n/a	n/a	n/a	n/a
3742.844	n/a	RECOG_LURE	1871422	n/a	LTP237	ltpFR	17	3	n/a	HAIL	676	1	n/a	n/a	n/a	n/a	n/a	n/a
3743.384	n/a	RECOG_RESP	1871692	n/a	LTP237	ltpFR	17	3	n/a	HAIL	676	n/a	n/a	n/a	n/a	n/a	n/a	n/a
3743.896	n/a	RECOG_CONF	1871948	n/a	LTP237	ltpFR	17	3	n/a	HAIL	676	1	n/a	n/a	n/a	n/a	n/a	n/a
3745.352	n/a	RECOG_LURE	1872676	n/a	LTP237	ltpFR	17	3	n/a	COB	334	1	n/a	n/a	n/a	n/a	n/a	n/a
3746.012	n/a	RECOG_RESP	1873006	n/a	LTP237	ltpFR	17	3	n/a	COB	334	n/a	n/a	n/a	n/a	n/a	n/a	n/a
3746.462	n/a	RECOG_CONF	1873231	n/a	LTP237	ltpFR	17	3	n/a	COB	334	1	n/a	n/a	n/a	n/a	n/a	n/a
3748.114	n/a	RECOG_LURE	1874057	n/a	LTP237	ltpFR	17	3	n/a	PLANT	1083	3	n/a	n/a	n/a	n/a	n/a	n/a
3748.806	n/a	RECOG_RESP	1874403	n/a	LTP237	ltpFR	17	3	n/a	PLANT	1083	n/a	n/a	n/a	n/a	n/a	n/a	n/a
3749.216	n/a	RECOG_CONF	1874608	n/a	LTP237	ltpFR	17	3	n/a	PLANT	1083	3	n/a	n/a	n/a	n/a	n/a	n/a
3750.79	n/a	RECOG_LURE	1875395	n/a	LTP237	ltpFR	17	3	n/a	MOTEL	919	2	n/a	n/a	n/a	n/a	n/a	n/a
3752.144	n/a	RECOG_RESP	1876072	n/a	LTP237	ltpFR	17	3	n/a	MOTEL	919	n/a	n/a	n/a	n/a	n/a	n/a	n/a
3752.548	n/a	RECOG_CONF	1876274	n/a	LTP237	ltpFR	17	3	n/a	MOTEL	919	2	n/a	n/a	n/a	n/a	n/a	n/a
3754.282	n/a	RECOG_LURE	1877141	n/a	LTP237	ltpFR	17	3	n/a	WAIST	1579	3	n/a	n/a	n/a	n/a	n/a	n/a
3754.928	n/a	RECOG_RESP	1877464	n/a	LTP237	ltpFR	17	3	n/a	WAIST	1579	n/a	n/a	n/a	n/a	n/a	n/a	n/a
3755.442	n/a	RECOG_CONF	1877721	n/a	LTP237	ltpFR	17	3	n/a	WAIST	1579	3	n/a	n/a	n/a	n/a	n/a	n/a
3757.048	n/a	RECOG_TARGET	1878524	n/a	LTP237	ltpFR	17	3	0	CUPBOARD	425	4	1	n/a	n/a	n/a	n/a	n/a
3757.712	n/a	RECOG_RESP	1878856	n/a	LTP237	ltpFR	17	3	0	CUPBOARD	425	n/a	1	n/a	n/a	n/a	n/a	n/a
3758.292	n/a	RECOG_CONF	1879146	n/a	LTP237	ltpFR	17	3	0	CUPBOARD	425	4	1	n/a	n/a	n/a	n/a	n/a
3759.772	n/a	RECOG_LURE	1879886	n/a	LTP237	ltpFR	17	3	n/a	WIDOW	1608	1	n/a	n/a	n/a	n/a	n/a	n/a
3760.336	n/a	RECOG_RESP	1880168	n/a	LTP237	ltpFR	17	3	n/a	WIDOW	1608	n/a	n/a	n/a	n/a	n/a	n/a	n/a
3760.77	n/a	RECOG_CONF	1880385	n/a	LTP237	ltpFR	17	3	n/a	WIDOW	1608	1	n/a	n/a	n/a	n/a	n/a	n/a
3762.334	n/a	RECOG_TARGET	1881167	n/a	LTP237	ltpFR	17	3	-1	HAY	693	3	-1	n/a	n/a	n/a	n/a	n/a
3762.794	n/a	RECOG_RESP	1881397	n/a	LTP237	ltpFR	17	3	-1	HAY	693	n/a	-1	n/a	n/a	n/a	n/a	n/a
3763.274	n/a	RECOG_CONF	1881637	n/a	LTP237	ltpFR	17	3	-1	HAY	693	3	-1	n/a	n/a	n/a	n/a	n/a
3764.958	n/a	RECOG_TARGET	1882479	n/a	LTP237	ltpFR	17	3	1	QUARTER	1148	5	0	n/a	n/a	n/a	n/a	n/a
3765.554	n/a	RECOG_RESP	1882777	n/a	LTP237	ltpFR	17	3	1	QUARTER	1148	n/a	0	n/a	n/a	n/a	n/a	n/a
3766.038	n/a	RECOG_CONF	1883019	n/a	LTP237	ltpFR	17	3	1	QUARTER	1148	5	0	n/a	n/a	n/a	n/a	n/a
3768.086	n/a	RECOG_TARGET	1884043	n/a	LTP237	ltpFR	17	3	-1	SILK	1307	2	-1	n/a	n/a	n/a	n/a	n/a
3768.782	n/a	RECOG_RESP	1884391	n/a	LTP237	ltpFR	17	3	-1	SILK	1307	n/a	-1	n/a	n/a	n/a	n/a	n/a
3769.172	n/a	RECOG_CONF	1884586	n/a	LTP237	ltpFR	17	3	-1	SILK	1307	2	-1	n/a	n/a	n/a	n/a	n/a
3790.434	n/a	REC_START	1895217	n/a	LTP237	ltpFR	17	4	n/a	n/a	n/a	n/a	n/a	n/a	n/a	n/a	n/a	n/a
3790.492	n/a	RECOG_LURE	1895246	n/a	LTP237	ltpFR	17	4	n/a	GARBAGE	622	3	n/a	n/a	n/a	n/a	n/a	n/a
3791.348	n/a	RECOG_RESP	1895674	n/a	LTP237	ltpFR	17	4	n/a	GARBAGE	622	n/a	n/a	n/a	n/a	n/a	n/a	n/a
3791.756	n/a	RECOG_CONF	1895878	n/a	LTP237	ltpFR	17	4	n/a	GARBAGE	622	3	n/a	n/a	n/a	n/a	n/a	n/a
3793.454	n/a	RECOG_LURE	1896727	n/a	LTP237	ltpFR	17	4	n/a	CATHEDRAL	260	2	n/a	n/a	n/a	n/a	n/a	n/a
3794.274	n/a	RECOG_RESP_VV	1897137	n/a	LTP237	ltpFR	17	4	n/a	CATHEDRAL	260	n/a	n/a	n/a	n/a	n/a	n/a	n/a
3794.948	n/a	RECOG_RESP	1897474	n/a	LTP237	ltpFR	17	4	n/a	CATHEDRAL	260	n/a	n/a	n/a	n/a	n/a	n/a	n/a
3795.484	n/a	RECOG_CONF	1897742	n/a	LTP237	ltpFR	17	4	n/a	CATHEDRAL	260	2	n/a	n/a	n/a	n/a	n/a	n/a
3797.234	n/a	RECOG_TARGET	1898617	n/a	LTP237	ltpFR	17	4	0	CHAMPAGNE	278	5	0	n/a	n/a	n/a	n/a	n/a
3798.15	n/a	RECOG_RESP	1899075	n/a	LTP237	ltpFR	17	4	0	CHAMPAGNE	278	n/a	0	n/a	n/a	n/a	n/a	n/a
3798.706	n/a	RECOG_CONF	1899353	n/a	LTP237	ltpFR	17	4	0	CHAMPAGNE	278	5	0	n/a	n/a	n/a	n/a	n/a
3800.162	n/a	RECOG_LURE	1900081	n/a	LTP237	ltpFR	17	4	n/a	PERSON	1052	2	n/a	n/a	n/a	n/a	n/a	n/a
3800.748	n/a	RECOG_RESP	1900374	n/a	LTP237	ltpFR	17	4	n/a	PERSON	1052	n/a	n/a	n/a	n/a	n/a	n/a	n/a
3801.234	n/a	RECOG_CONF	1900617	n/a	LTP237	ltpFR	17	4	n/a	PERSON	1052	2	n/a	n/a	n/a	n/a	n/a	n/a
3802.958	n/a	RECOG_TARGET	1901479	n/a	LTP237	ltpFR	17	4	-1	DRAWER	493	5	-1	n/a	n/a	n/a	n/a	n/a
3803.826	n/a	RECOG_RESP	1901913	n/a	LTP237	ltpFR	17	4	-1	DRAWER	493	n/a	-1	n/a	n/a	n/a	n/a	n/a
3804.43	n/a	RECOG_CONF	1902215	n/a	LTP237	ltpFR	17	4	-1	DRAWER	493	5	-1	n/a	n/a	n/a	n/a	n/a
3805.934	n/a	RECOG_TARGET	1902967	n/a	LTP237	ltpFR	17	4	-1	COBRA	336	3	-1	n/a	n/a	n/a	n/a	n/a
3806.432	n/a	RECOG_RESP	1903216	n/a	LTP237	ltpFR	17	4	-1	COBRA	336	n/a	-1	n/a	n/a	n/a	n/a	n/a
3806.844	n/a	RECOG_CONF	1903422	n/a	LTP237	ltpFR	17	4	-1	COBRA	336	3	-1	n/a	n/a	n/a	n/a	n/a
3808.422	n/a	RECOG_TARGET	1904211	n/a	LTP237	ltpFR	17	4	-1	CORPORATION	382	1	-1	n/a	n/a	n/a	n/a	n/a
3808.924	n/a	RECOG_RESP	1904462	n/a	LTP237	ltpFR	17	4	-1	CORPORATION	382	n/a	-1	n/a	n/a	n/a	n/a	n/a
3809.338	n/a	RECOG_CONF	1904669	n/a	LTP237	ltpFR	17	4	-1	CORPORATION	382	1	-1	n/a	n/a	n/a	n/a	n/a
3811.136	n/a	RECOG_LURE	1905568	n/a	LTP237	ltpFR	17	4	n/a	ALBUM	14	2	n/a	n/a	n/a	n/a	n/a	n/a
3811.62	n/a	RECOG_RESP_VV	1905810	n/a	LTP237	ltpFR	17	4	n/a	ALBUM	14	n/a	n/a	n/a	n/a	n/a	n/a	n/a
3812.196	n/a	RECOG_RESP	1906098	n/a	LTP237	ltpFR	17	4	n/a	ALBUM	14	n/a	n/a	n/a	n/a	n/a	n/a	n/a
3812.696	n/a	RECOG_CONF	1906348	n/a	LTP237	ltpFR	17	4	n/a	ALBUM	14	2	n/a	n/a	n/a	n/a	n/a	n/a
3814.702	n/a	RECOG_LURE	1907351	n/a	LTP237	ltpFR	17	4	n/a	UNIVERSITY	1541	3	n/a	n/a	n/a	n/a	n/a	n/a
3815.444	n/a	RECOG_RESP	1907722	n/a	LTP237	ltpFR	17	4	n/a	UNIVERSITY	1541	n/a	n/a	n/a	n/a	n/a	n/a	n/a
3816.074	n/a	RECOG_CONF	1908037	n/a	LTP237	ltpFR	17	4	n/a	UNIVERSITY	1541	3	n/a	n/a	n/a	n/a	n/a	n/a
3817.814	n/a	RECOG_LURE	1908907	n/a	LTP237	ltpFR	17	4	n/a	SOCK	1339	1	n/a	n/a	n/a	n/a	n/a	n/a
3818.556	n/a	RECOG_RESP	1909278	n/a	LTP237	ltpFR	17	4	n/a	SOCK	1339	n/a	n/a	n/a	n/a	n/a	n/a	n/a
3819.138	n/a	RECOG_CONF	1909569	n/a	LTP237	ltpFR	17	4	n/a	SOCK	1339	1	n/a	n/a	n/a	n/a	n/a	n/a
3820.636	n/a	RECOG_LURE	1910318	n/a	LTP237	ltpFR	17	4	n/a	COMEDIAN	352	5	n/a	n/a	n/a	n/a	n/a	n/a
3821.246	n/a	RECOG_RESP	1910623	n/a	LTP237	ltpFR	17	4	n/a	COMEDIAN	352	n/a	n/a	n/a	n/a	n/a	n/a	n/a
3821.75	n/a	RECOG_CONF	1910875	n/a	LTP237	ltpFR	17	4	n/a	COMEDIAN	352	5	n/a	n/a	n/a	n/a	n/a	n/a
3823.3	n/a	RECOG_TARGET	1911650	n/a	LTP237	ltpFR	17	4	-1	LAPEL	800	3	-1	n/a	n/a	n/a	n/a	n/a
3823.846	n/a	RECOG_RESP_VV	1911923	n/a	LTP237	ltpFR	17	4	-1	LAPEL	800	n/a	-1	n/a	n/a	n/a	n/a	n/a
3824.45	n/a	RECOG_RESP	1912225	n/a	LTP237	ltpFR	17	4	-1	LAPEL	800	n/a	-1	n/a	n/a	n/a	n/a	n/a
3824.962	n/a	RECOG_CONF	1912481	n/a	LTP237	ltpFR	17	4	-1	LAPEL	800	3	-1	n/a	n/a	n/a	n/a	n/a
3826.646	n/a	RECOG_LURE	1913323	n/a	LTP237	ltpFR	17	4	n/a	DOCTOR	478	2	n/a	n/a	n/a	n/a	n/a	n/a
3827.666	n/a	RECOG_RESP	1913833	n/a	LTP237	ltpFR	17	4	n/a	DOCTOR	478	n/a	n/a	n/a	n/a	n/a	n/a	n/a
3827.988	n/a	RECOG_CONF	1913994	n/a	LTP237	ltpFR	17	4	n/a	DOCTOR	478	2	n/a	n/a	n/a	n/a	n/a	n/a
3829.49	n/a	RECOG_TARGET	1914745	n/a	LTP237	ltpFR	17	4	1	OTTER	986	1	1	n/a	n/a	n/a	n/a	n/a
3830.318	n/a	RECOG_RESP	1915159	n/a	LTP237	ltpFR	17	4	1	OTTER	986	n/a	1	n/a	n/a	n/a	n/a	n/a
3830.84	n/a	RECOG_CONF	1915420	n/a	LTP237	ltpFR	17	4	1	OTTER	986	1	1	n/a	n/a	n/a	n/a	n/a
3832.686	n/a	RECOG_LURE	1916343	n/a	LTP237	ltpFR	17	4	n/a	WALLET	1583	2	n/a	n/a	n/a	n/a	n/a	n/a
3833.252	n/a	RECOG_RESP	1916626	n/a	LTP237	ltpFR	17	4	n/a	WALLET	1583	n/a	n/a	n/a	n/a	n/a	n/a	n/a
3833.672	n/a	RECOG_CONF	1916836	n/a	LTP237	ltpFR	17	4	n/a	WALLET	1583	2	n/a	n/a	n/a	n/a	n/a	n/a
3835.18	n/a	RECOG_LURE	1917590	n/a	LTP237	ltpFR	17	4	n/a	UMPIRE	1535	3	n/a	n/a	n/a	n/a	n/a	n/a
3835.894	n/a	RECOG_RESP	1917947	n/a	LTP237	ltpFR	17	4	n/a	UMPIRE	1535	n/a	n/a	n/a	n/a	n/a	n/a	n/a
3836.268	n/a	RECOG_CONF	1918134	n/a	LTP237	ltpFR	17	4	n/a	UMPIRE	1535	3	n/a	n/a	n/a	n/a	n/a	n/a
3837.99	n/a	RECOG_TARGET	1918995	n/a	LTP237	ltpFR	17	4	0	GLASS	639	1	0	n/a	n/a	n/a	n/a	n/a
3838.354	n/a	RECOG_RESP	1919177	n/a	LTP237	ltpFR	17	4	0	GLASS	639	n/a	0	n/a	n/a	n/a	n/a	n/a
3838.772	n/a	RECOG_CONF	1919386	n/a	LTP237	ltpFR	17	4	0	GLASS	639	1	0	n/a	n/a	n/a	n/a	n/a
3840.348	n/a	RECOG_LURE	1920174	n/a	LTP237	ltpFR	17	4	n/a	CARDINAL	244	3	n/a	n/a	n/a	n/a	n/a	n/a
3841.008	n/a	RECOG_RESP	1920504	n/a	LTP237	ltpFR	17	4	n/a	CARDINAL	244	n/a	n/a	n/a	n/a	n/a	n/a	n/a
3841.506	n/a	RECOG_CONF	1920753	n/a	LTP237	ltpFR	17	4	n/a	CARDINAL	244	3	n/a	n/a	n/a	n/a	n/a	n/a
3843.076	n/a	RECOG_LURE	1921538	n/a	LTP237	ltpFR	17	4	n/a	TELESCOPE	1446	4	n/a	n/a	n/a	n/a	n/a	n/a
3843.646	n/a	RECOG_RESP	1921823	n/a	LTP237	ltpFR	17	4	n/a	TELESCOPE	1446	n/a	n/a	n/a	n/a	n/a	n/a	n/a
3844.1	n/a	RECOG_CONF	1922050	n/a	LTP237	ltpFR	17	4	n/a	TELESCOPE	1446	4	n/a	n/a	n/a	n/a	n/a	n/a
3845.518	n/a	RECOG_TARGET	1922759	n/a	LTP237	ltpFR	17	4	-1	MOTH	920	4	-1	n/a	n/a	n/a	n/a	n/a
3846.22	n/a	RECOG_RESP	1923110	n/a	LTP237	ltpFR	17	4	-1	MOTH	920	n/a	-1	n/a	n/a	n/a	n/a	n/a
3846.654	n/a	RECOG_CONF	1923327	n/a	LTP237	ltpFR	17	4	-1	MOTH	920	4	-1	n/a	n/a	n/a	n/a	n/a
3849.642	n/a	REC_START	1924821	n/a	LTP237	ltpFR	17	5	n/a	n/a	n/a	n/a	n/a	n/a	n/a	n/a	n/a	n/a
3849.698	n/a	RECOG_TARGET	1924849	n/a	LTP237	ltpFR	17	5	-1	SOCIETY	1338	5	-1	n/a	n/a	n/a	n/a	n/a
3850.354	n/a	RECOG_RESP	1925177	n/a	LTP237	ltpFR	17	5	-1	SOCIETY	1338	n/a	-1	n/a	n/a	n/a	n/a	n/a
3850.764	n/a	RECOG_CONF	1925382	n/a	LTP237	ltpFR	17	5	-1	SOCIETY	1338	5	-1	n/a	n/a	n/a	n/a	n/a
3852.228	n/a	RECOG_TARGET	1926114	n/a	LTP237	ltpFR	17	5	-1	BALL	73	5	-1	n/a	n/a	n/a	n/a	n/a
3852.868	n/a	RECOG_RESP	1926434	n/a	LTP237	ltpFR	17	5	-1	BALL	73	n/a	-1	n/a	n/a	n/a	n/a	n/a
3853.402	n/a	RECOG_CONF	1926701	n/a	LTP237	ltpFR	17	5	-1	BALL	73	5	-1	n/a	n/a	n/a	n/a	n/a
3854.822	n/a	RECOG_LURE	1927411	n/a	LTP237	ltpFR	17	5	n/a	JURY	766	3	n/a	n/a	n/a	n/a	n/a	n/a
3855.578	n/a	RECOG_RESP	1927789	n/a	LTP237	ltpFR	17	5	n/a	JURY	766	n/a	n/a	n/a	n/a	n/a	n/a	n/a
3856.002	n/a	RECOG_CONF	1928001	n/a	LTP237	ltpFR	17	5	n/a	JURY	766	3	n/a	n/a	n/a	n/a	n/a	n/a
3857.38	n/a	RECOG_LURE	1928690	n/a	LTP237	ltpFR	17	5	n/a	MINT	898	2	n/a	n/a	n/a	n/a	n/a	n/a
3858.138	n/a	RECOG_RESP	1929069	n/a	LTP237	ltpFR	17	5	n/a	MINT	898	n/a	n/a	n/a	n/a	n/a	n/a	n/a
3858.51	n/a	RECOG_CONF	1929255	n/a	LTP237	ltpFR	17	5	n/a	MINT	898	2	n/a	n/a	n/a	n/a	n/a	n/a
3860.124	n/a	RECOG_TARGET	1930062	n/a	LTP237	ltpFR	17	5	1	POLE	1097	1	0	n/a	n/a	n/a	n/a	n/a
3861.102	n/a	RECOG_RESP	1930551	n/a	LTP237	ltpFR	17	5	1	POLE	1097	n/a	0	n/a	n/a	n/a	n/a	n/a
3861.56	n/a	RECOG_CONF	1930780	n/a	LTP237	ltpFR	17	5	1	POLE	1097	1	0	n/a	n/a	n/a	n/a	n/a
3863.202	n/a	RECOG_LURE	1931601	n/a	LTP237	ltpFR	17	5	n/a	SHEEP	1278	2	n/a	n/a	n/a	n/a	n/a	n/a
3864.28	n/a	RECOG_RESP	1932140	n/a	LTP237	ltpFR	17	5	n/a	SHEEP	1278	n/a	n/a	n/a	n/a	n/a	n/a	n/a
3864.724	n/a	RECOG_CONF	1932362	n/a	LTP237	ltpFR	17	5	n/a	SHEEP	1278	2	n/a	n/a	n/a	n/a	n/a	n/a
3866.314	n/a	RECOG_TARGET	1933157	n/a	LTP237	ltpFR	17	5	1	PRODUCER	1129	2	1	n/a	n/a	n/a	n/a	n/a
3866.962	n/a	RECOG_RESP	1933481	n/a	LTP237	ltpFR	17	5	1	PRODUCER	1129	n/a	1	n/a	n/a	n/a	n/a	n/a
3867.414	n/a	RECOG_CONF	1933707	n/a	LTP237	ltpFR	17	5	1	PRODUCER	1129	2	1	n/a	n/a	n/a	n/a	n/a
3868.86	n/a	RECOG_TARGET	1934430	n/a	LTP237	ltpFR	17	5	1	CERAMICS	271	4	0	n/a	n/a	n/a	n/a	n/a
3869.54	n/a	RECOG_RESP	1934770	n/a	LTP237	ltpFR	17	5	1	CERAMICS	271	n/a	0	n/a	n/a	n/a	n/a	n/a
3869.962	n/a	RECOG_CONF	1934981	n/a	LTP237	ltpFR	17	5	1	CERAMICS	271	4	0	n/a	n/a	n/a	n/a	n/a
3871.518	n/a	RECOG_TARGET	1935759	n/a	LTP237	ltpFR	17	5	0	LITERATURE	831	5	0	n/a	n/a	n/a	n/a	n/a
3872.122	n/a	RECOG_RESP	1936061	n/a	LTP237	ltpFR	17	5	0	LITERATURE	831	n/a	0	n/a	n/a	n/a	n/a	n/a
3872.672	n/a	RECOG_CONF	1936336	n/a	LTP237	ltpFR	17	5	0	LITERATURE	831	5	0	n/a	n/a	n/a	n/a	n/a
3874.044	n/a	RECOG_LURE	1937022	n/a	LTP237	ltpFR	17	5	n/a	REEF	1177	3	n/a	n/a	n/a	n/a	n/a	n/a
3874.768	n/a	RECOG_RESP	1937384	n/a	LTP237	ltpFR	17	5	n/a	REEF	1177	n/a	n/a	n/a	n/a	n/a	n/a	n/a
3875.186	n/a	RECOG_CONF	1937593	n/a	LTP237	ltpFR	17	5	n/a	REEF	1177	3	n/a	n/a	n/a	n/a	n/a	n/a
3876.534	n/a	RECOG_TARGET	1938267	n/a	LTP237	ltpFR	17	5	0	SMOG	1330	4	0	n/a	n/a	n/a	n/a	n/a
3877.32	n/a	RECOG_RESP	1938660	n/a	LTP237	ltpFR	17	5	0	SMOG	1330	n/a	0	n/a	n/a	n/a	n/a	n/a
3877.734	n/a	RECOG_CONF	1938867	n/a	LTP237	ltpFR	17	5	0	SMOG	1330	4	0	n/a	n/a	n/a	n/a	n/a
3879.176	n/a	RECOG_TARGET	1939588	n/a	LTP237	ltpFR	17	5	1	TURKEY	1520	2	1	n/a	n/a	n/a	n/a	n/a
3880.07	n/a	RECOG_RESP	1940035	n/a	LTP237	ltpFR	17	5	1	TURKEY	1520	n/a	1	n/a	n/a	n/a	n/a	n/a
3880.696	n/a	RECOG_CONF	1940348	n/a	LTP237	ltpFR	17	5	1	TURKEY	1520	2	1	n/a	n/a	n/a	n/a	n/a
3882.272	n/a	RECOG_TARGET	1941136	n/a	LTP237	ltpFR	17	5	1	VINEGAR	1569	3	0	n/a	n/a	n/a	n/a	n/a
3883.09	n/a	RECOG_RESP	1941545	n/a	LTP237	ltpFR	17	5	1	VINEGAR	1569	n/a	0	n/a	n/a	n/a	n/a	n/a
3883.496	n/a	RECOG_CONF	1941748	n/a	LTP237	ltpFR	17	5	1	VINEGAR	1569	3	0	n/a	n/a	n/a	n/a	n/a
3885.032	n/a	RECOG_TARGET	1942516	n/a	LTP237	ltpFR	17	5	0	COUNTRY	388	3	0	n/a	n/a	n/a	n/a	n/a
3886.054	n/a	RECOG_RESP	1943027	n/a	LTP237	ltpFR	17	5	0	COUNTRY	388	n/a	0	n/a	n/a	n/a	n/a	n/a
3886.984	n/a	RECOG_CONF	1943492	n/a	LTP237	ltpFR	17	5	0	COUNTRY	388	3	0	n/a	n/a	n/a	n/a	n/a
3888.55	n/a	RECOG_TARGET	1944275	n/a	LTP237	ltpFR	17	5	1	CRUMB	416	5	0	n/a	n/a	n/a	n/a	n/a
3889.276	n/a	RECOG_RESP	1944638	n/a	LTP237	ltpFR	17	5	1	CRUMB	416	n/a	0	n/a	n/a	n/a	n/a	n/a
3889.708	n/a	RECOG_CONF	1944854	n/a	LTP237	ltpFR	17	5	1	CRUMB	416	5	0	n/a	n/a	n/a	n/a	n/a
3891.444	n/a	RECOG_TARGET	1945722	n/a	LTP237	ltpFR	17	5	-1	HEN	703	5	-1	n/a	n/a	n/a	n/a	n/a
3892.074	n/a	RECOG_RESP	1946037	n/a	LTP237	ltpFR	17	5	-1	HEN	703	n/a	-1	n/a	n/a	n/a	n/a	n/a
3892.452	n/a	RECOG_CONF	1946226	n/a	LTP237	ltpFR	17	5	-1	HEN	703	5	-1	n/a	n/a	n/a	n/a	n/a
3894.068	n/a	RECOG_LURE	1947034	n/a	LTP237	ltpFR	17	5	n/a	CABIN	211	3	n/a	n/a	n/a	n/a	n/a	n/a
3894.816	n/a	RECOG_RESP	1947408	n/a	LTP237	ltpFR	17	5	n/a	CABIN	211	n/a	n/a	n/a	n/a	n/a	n/a	n/a
3895.226	n/a	RECOG_CONF	1947613	n/a	LTP237	ltpFR	17	5	n/a	CABIN	211	3	n/a	n/a	n/a	n/a	n/a	n/a
3896.832	n/a	RECOG_TARGET	1948416	n/a	LTP237	ltpFR	17	5	1	CEREAL	272	2	0	n/a	n/a	n/a	n/a	n/a
3897.604	n/a	RECOG_RESP	1948802	n/a	LTP237	ltpFR	17	5	1	CEREAL	272	n/a	0	n/a	n/a	n/a	n/a	n/a
3897.976	n/a	RECOG_CONF	1948988	n/a	LTP237	ltpFR	17	5	1	CEREAL	272	2	0	n/a	n/a	n/a	n/a	n/a
3899.592	n/a	RECOG_LURE	1949796	n/a	LTP237	ltpFR	17	5	n/a	SKUNK	1321	1	n/a	n/a	n/a	n/a	n/a	n/a
3900.412	n/a	RECOG_RESP	1950206	n/a	LTP237	ltpFR	17	5	n/a	SKUNK	1321	n/a	n/a	n/a	n/a	n/a	n/a	n/a
3900.87	n/a	RECOG_CONF	1950435	n/a	LTP237	ltpFR	17	5	n/a	SKUNK	1321	1	n/a	n/a	n/a	n/a	n/a	n/a
3902.502	n/a	RECOG_LURE	1951251	n/a	LTP237	ltpFR	17	5	n/a	FREEZER	604	1	n/a	n/a	n/a	n/a	n/a	n/a
3903.144	n/a	RECOG_RESP	1951572	n/a	LTP237	ltpFR	17	5	n/a	FREEZER	604	n/a	n/a	n/a	n/a	n/a	n/a	n/a
3903.566	n/a	RECOG_CONF	1951783	n/a	LTP237	ltpFR	17	5	n/a	FREEZER	604	1	n/a	n/a	n/a	n/a	n/a	n/a
3907.188	n/a	REC_START	1953594	n/a	LTP237	ltpFR	17	6	n/a	n/a	n/a	n/a	n/a	n/a	n/a	n/a	n/a	n/a
3907.238	n/a	RECOG_TARGET	1953619	n/a	LTP237	ltpFR	17	6	1	BATHTUB	100	2	0	n/a	n/a	n/a	n/a	n/a
3908.268	n/a	RECOG_RESP	1954134	n/a	LTP237	ltpFR	17	6	1	BATHTUB	100	n/a	0	n/a	n/a	n/a	n/a	n/a
3908.896	n/a	RECOG_CONF	1954448	n/a	LTP237	ltpFR	17	6	1	BATHTUB	100	2	0	n/a	n/a	n/a	n/a	n/a
3910.48	n/a	RECOG_LURE	1955240	n/a	LTP237	ltpFR	17	6	n/a	EMPEROR	529	2	n/a	n/a	n/a	n/a	n/a	n/a
3911.098	n/a	RECOG_RESP	1955549	n/a	LTP237	ltpFR	17	6	n/a	EMPEROR	529	n/a	n/a	n/a	n/a	n/a	n/a	n/a
3911.528	n/a	RECOG_CONF	1955764	n/a	LTP237	ltpFR	17	6	n/a	EMPEROR	529	2	n/a	n/a	n/a	n/a	n/a	n/a
3913.11	n/a	RECOG_LURE	1956555	n/a	LTP237	ltpFR	17	6	n/a	FACTORY	548	1	n/a	n/a	n/a	n/a	n/a	n/a
3913.556	n/a	RECOG_RESP	1956778	n/a	LTP237	ltpFR	17	6	n/a	FACTORY	548	n/a	n/a	n/a	n/a	n/a	n/a	n/a
3914.138	n/a	RECOG_CONF	1957069	n/a	LTP237	ltpFR	17	6	n/a	FACTORY	548	1	n/a	n/a	n/a	n/a	n/a	n/a
3915.554	n/a	RECOG_LURE	1957777	n/a	LTP237	ltpFR	17	6	n/a	BUS	201	1	n/a	n/a	n/a	n/a	n/a	n/a
3915.952	n/a	RECOG_RESP	1957976	n/a	LTP237	ltpFR	17	6	n/a	BUS	201	n/a	n/a	n/a	n/a	n/a	n/a	n/a
3916.512	n/a	RECOG_CONF	1958256	n/a	LTP237	ltpFR	17	6	n/a	BUS	201	1	n/a	n/a	n/a	n/a	n/a	n/a
3918.33	n/a	RECOG_LURE	1959165	n/a	LTP237	ltpFR	17	6	n/a	CART	250	1	n/a	n/a	n/a	n/a	n/a	n/a
3919.3	n/a	RECOG_RESP	1959650	n/a	LTP237	ltpFR	17	6	n/a	CART	250	n/a	n/a	n/a	n/a	n/a	n/a	n/a
3919.764	n/a	RECOG_CONF	1959882	n/a	LTP237	ltpFR	17	6	n/a	CART	250	1	n/a	n/a	n/a	n/a	n/a	n/a
3921.392	n/a	RECOG_TARGET	1960696	n/a	LTP237	ltpFR	17	6	0	BUG	187	2	1	n/a	n/a	n/a	n/a	n/a
3922.544	n/a	RECOG_RESP	1961272	n/a	LTP237	ltpFR	17	6	0	BUG	187	n/a	1	n/a	n/a	n/a	n/a	n/a
3922.936	n/a	RECOG_CONF	1961468	n/a	LTP237	ltpFR	17	6	0	BUG	187	2	1	n/a	n/a	n/a	n/a	n/a
3924.516	n/a	RECOG_TARGET	1962258	n/a	LTP237	ltpFR	17	6	1	SQUID	1361	1	1	n/a	n/a	n/a	n/a	n/a
3925.978	n/a	RECOG_RESP	1962989	n/a	LTP237	ltpFR	17	6	1	SQUID	1361	n/a	1	n/a	n/a	n/a	n/a	n/a
3926.606	n/a	RECOG_CONF	1963303	n/a	LTP237	ltpFR	17	6	1	SQUID	1361	1	1	n/a	n/a	n/a	n/a	n/a
3928.168	n/a	RECOG_LURE	1964084	n/a	LTP237	ltpFR	17	6	n/a	DICE	461	3	n/a	n/a	n/a	n/a	n/a	n/a
3929.128	n/a	RECOG_RESP	1964564	n/a	LTP237	ltpFR	17	6	n/a	DICE	461	n/a	n/a	n/a	n/a	n/a	n/a	n/a
3929.508	n/a	RECOG_CONF	1964754	n/a	LTP237	ltpFR	17	6	n/a	DICE	461	3	n/a	n/a	n/a	n/a	n/a	n/a
3931.246	n/a	RECOG_LURE	1965623	n/a	LTP237	ltpFR	17	6	n/a	ORNAMENT	985	4	n/a	n/a	n/a	n/a	n/a	n/a
3932.136	n/a	RECOG_RESP	1966068	n/a	LTP237	ltpFR	17	6	n/a	ORNAMENT	985	n/a	n/a	n/a	n/a	n/a	n/a	n/a
3932.556	n/a	RECOG_CONF	1966278	n/a	LTP237	ltpFR	17	6	n/a	ORNAMENT	985	4	n/a	n/a	n/a	n/a	n/a	n/a
3934.224	n/a	RECOG_LURE	1967112	n/a	LTP237	ltpFR	17	6	n/a	CARPET	247	2	n/a	n/a	n/a	n/a	n/a	n/a
3935.202	n/a	RECOG_RESP	1967601	n/a	LTP237	ltpFR	17	6	n/a	CARPET	247	n/a	n/a	n/a	n/a	n/a	n/a	n/a
3935.63	n/a	RECOG_CONF	1967815	n/a	LTP237	ltpFR	17	6	n/a	CARPET	247	2	n/a	n/a	n/a	n/a	n/a	n/a
3937.42	n/a	RECOG_LURE	1968710	n/a	LTP237	ltpFR	17	6	n/a	CINNAMON	310	3	n/a	n/a	n/a	n/a	n/a	n/a
3938.292	n/a	RECOG_RESP	1969146	n/a	LTP237	ltpFR	17	6	n/a	CINNAMON	310	n/a	n/a	n/a	n/a	n/a	n/a	n/a
3938.706	n/a	RECOG_CONF	1969353	n/a	LTP237	ltpFR	17	6	n/a	CINNAMON	310	3	n/a	n/a	n/a	n/a	n/a	n/a
3940.428	n/a	RECOG_TARGET	1970214	n/a	LTP237	ltpFR	17	6	1	BULLY	196	5	1	n/a	n/a	n/a	n/a	n/a
3940.966	n/a	RECOG_RESP	1970483	n/a	LTP237	ltpFR	17	6	1	BULLY	196	n/a	1	n/a	n/a	n/a	n/a	n/a
3941.446	n/a	RECOG_CONF	1970723	n/a	LTP237	ltpFR	17	6	1	BULLY	196	5	1	n/a	n/a	n/a	n/a	n/a
3942.99	n/a	RECOG_LURE	1971495	n/a	LTP237	ltpFR	17	6	n/a	WHISKERS	1605	1	n/a	n/a	n/a	n/a	n/a	n/a
3943.85	n/a	RECOG_RESP	1971925	n/a	LTP237	ltpFR	17	6	n/a	WHISKERS	1605	n/a	n/a	n/a	n/a	n/a	n/a	n/a
3944.24	n/a	RECOG_CONF	1972120	n/a	LTP237	ltpFR	17	6	n/a	WHISKERS	1605	1	n/a	n/a	n/a	n/a	n/a	n/a
3945.686	n/a	RECOG_TARGET	1972843	n/a	LTP237	ltpFR	17	6	0	TRACTOR	1493	5	1	n/a	n/a	n/a	n/a	n/a
3946.284	n/a	RECOG_RESP	1973142	n/a	LTP237	ltpFR	17	6	0	TRACTOR	1493	n/a	1	n/a	n/a	n/a	n/a	n/a
3946.704	n/a	RECOG_CONF	1973352	n/a	LTP237	ltpFR	17	6	0	TRACTOR	1493	5	1	n/a	n/a	n/a	n/a	n/a
3948.358	n/a	RECOG_TARGET	1974179	n/a	LTP237	ltpFR	17	6	0	MONARCH	906	5	1	n/a	n/a	n/a	n/a	n/a
3948.832	n/a	RECOG_RESP	1974416	n/a	LTP237	ltpFR	17	6	0	MONARCH	906	n/a	1	n/a	n/a	n/a	n/a	n/a
3949.188	n/a	RECOG_CONF	1974594	n/a	LTP237	ltpFR	17	6	0	MONARCH	906	5	1	n/a	n/a	n/a	n/a	n/a
3950.94	n/a	RECOG_TARGET	1975470	n/a	LTP237	ltpFR	17	6	1	BELL	118	4	0	n/a	n/a	n/a	n/a	n/a
3951.542	n/a	RECOG_RESP	1975771	n/a	LTP237	ltpFR	17	6	1	BELL	118	n/a	0	n/a	n/a	n/a	n/a	n/a
3952.124	n/a	RECOG_CONF	1976062	n/a	LTP237	ltpFR	17	6	1	BELL	118	4	0	n/a	n/a	n/a	n/a	n/a
3953.582	n/a	RECOG_TARGET	1976791	n/a	LTP237	ltpFR	17	6	1	CONTAINER	366	3	0	n/a	n/a	n/a	n/a	n/a
3954.246	n/a	RECOG_RESP	1977123	n/a	LTP237	ltpFR	17	6	1	CONTAINER	366	n/a	0	n/a	n/a	n/a	n/a	n/a
3954.616	n/a	RECOG_CONF	1977308	n/a	LTP237	ltpFR	17	6	1	CONTAINER	366	3	0	n/a	n/a	n/a	n/a	n/a
3956.12	n/a	RECOG_TARGET	1978060	n/a	LTP237	ltpFR	17	6	1	PIRATE	1074	3	1	n/a	n/a	n/a	n/a	n/a
3956.706	n/a	RECOG_RESP	1978353	n/a	LTP237	ltpFR	17	6	1	PIRATE	1074	n/a	1	n/a	n/a	n/a	n/a	n/a
3957.08	n/a	RECOG_CONF	1978540	n/a	LTP237	ltpFR	17	6	1	PIRATE	1074	3	1	n/a	n/a	n/a	n/a	n/a
3958.684	n/a	RECOG_LURE	1979342	n/a	LTP237	ltpFR	17	6	n/a	HOME	712	1	n/a	n/a	n/a	n/a	n/a	n/a
3959.232	n/a	RECOG_RESP	1979616	n/a	LTP237	ltpFR	17	6	n/a	HOME	712	n/a	n/a	n/a	n/a	n/a	n/a	n/a
3959.586	n/a	RECOG_CONF	1979793	n/a	LTP237	ltpFR	17	6	n/a	HOME	712	1	n/a	n/a	n/a	n/a	n/a	n/a
3961.224	n/a	RECOG_TARGET	1980612	n/a	LTP237	ltpFR	17	6	1	BREAST	171	5	0	n/a	n/a	n/a	n/a	n/a
3961.756	n/a	RECOG_RESP	1980878	n/a	LTP237	ltpFR	17	6	1	BREAST	171	n/a	0	n/a	n/a	n/a	n/a	n/a
3962.17	n/a	RECOG_CONF	1981085	n/a	LTP237	ltpFR	17	6	1	BREAST	171	5	0	n/a	n/a	n/a	n/a	n/a
3997.062	n/a	REC_START	1998531	n/a	LTP237	ltpFR	17	7	n/a	n/a	n/a	n/a	n/a	n/a	n/a	n/a	n/a	n/a
3997.114	n/a	RECOG_TARGET	1998557	n/a	LTP237	ltpFR	17	7	1	FOUNTAIN	597	1	0	n/a	n/a	n/a	n/a	n/a
3998.38	n/a	RECOG_RESP	1999190	n/a	LTP237	ltpFR	17	7	1	FOUNTAIN	597	n/a	0	n/a	n/a	n/a	n/a	n/a
3999.112	n/a	RECOG_CONF	1999556	n/a	LTP237	ltpFR	17	7	1	FOUNTAIN	597	1	0	n/a	n/a	n/a	n/a	n/a
4000.996	n/a	RECOG_LURE	2000498	n/a	LTP237	ltpFR	17	7	n/a	MOSS	918	2	n/a	n/a	n/a	n/a	n/a	n/a
4001.876	n/a	RECOG_RESP	2000938	n/a	LTP237	ltpFR	17	7	n/a	MOSS	918	n/a	n/a	n/a	n/a	n/a	n/a	n/a
4002.22	n/a	RECOG_CONF	2001110	n/a	LTP237	ltpFR	17	7	n/a	MOSS	918	2	n/a	n/a	n/a	n/a	n/a	n/a
4004.206	n/a	RECOG_TARGET	2002103	n/a	LTP237	ltpFR	17	7	-1	PICTURE	1061	1	-1	n/a	n/a	n/a	n/a	n/a
4005.07	n/a	RECOG_RESP	2002535	n/a	LTP237	ltpFR	17	7	-1	PICTURE	1061	n/a	-1	n/a	n/a	n/a	n/a	n/a
4005.534	n/a	RECOG_CONF	2002767	n/a	LTP237	ltpFR	17	7	-1	PICTURE	1061	1	-1	n/a	n/a	n/a	n/a	n/a
4006.886	n/a	RECOG_LURE	2003443	n/a	LTP237	ltpFR	17	7	n/a	SPIDER	1351	1	n/a	n/a	n/a	n/a	n/a	n/a
4007.91	n/a	RECOG_RESP	2003955	n/a	LTP237	ltpFR	17	7	n/a	SPIDER	1351	n/a	n/a	n/a	n/a	n/a	n/a	n/a
4008.362	n/a	RECOG_CONF	2004181	n/a	LTP237	ltpFR	17	7	n/a	SPIDER	1351	1	n/a	n/a	n/a	n/a	n/a	n/a
4010.164	n/a	RECOG_LURE	2005082	n/a	LTP237	ltpFR	17	7	n/a	PIG	1064	3	n/a	n/a	n/a	n/a	n/a	n/a
4010.66	n/a	RECOG_RESP	2005330	n/a	LTP237	ltpFR	17	7	n/a	PIG	1064	n/a	n/a	n/a	n/a	n/a	n/a	n/a
4011.076	n/a	RECOG_CONF	2005538	n/a	LTP237	ltpFR	17	7	n/a	PIG	1064	3	n/a	n/a	n/a	n/a	n/a	n/a
4012.726	n/a	RECOG_TARGET	2006363	n/a	LTP237	ltpFR	17	7	1	BRANDY	169	3	0	n/a	n/a	n/a	n/a	n/a
4013.352	n/a	RECOG_RESP	2006676	n/a	LTP237	ltpFR	17	7	1	BRANDY	169	n/a	0	n/a	n/a	n/a	n/a	n/a
4013.79	n/a	RECOG_CONF	2006895	n/a	LTP237	ltpFR	17	7	1	BRANDY	169	3	0	n/a	n/a	n/a	n/a	n/a
4015.284	n/a	RECOG_TARGET	2007642	n/a	LTP237	ltpFR	17	7	0	CARD	243	1	0	n/a	n/a	n/a	n/a	n/a
4015.822	n/a	RECOG_RESP	2007911	n/a	LTP237	ltpFR	17	7	0	CARD	243	n/a	0	n/a	n/a	n/a	n/a	n/a
4016.426	n/a	RECOG_CONF	2008213	n/a	LTP237	ltpFR	17	7	0	CARD	243	1	0	n/a	n/a	n/a	n/a	n/a
4018.246	n/a	RECOG_LURE	2009123	n/a	LTP237	ltpFR	17	7	n/a	BALLERINA	74	2	n/a	n/a	n/a	n/a	n/a	n/a
4018.9	n/a	RECOG_RESP	2009450	n/a	LTP237	ltpFR	17	7	n/a	BALLERINA	74	n/a	n/a	n/a	n/a	n/a	n/a	n/a
4019.278	n/a	RECOG_CONF	2009639	n/a	LTP237	ltpFR	17	7	n/a	BALLERINA	74	2	n/a	n/a	n/a	n/a	n/a	n/a
4020.856	n/a	RECOG_LURE	2010428	n/a	LTP237	ltpFR	17	7	n/a	DAM	436	3	n/a	n/a	n/a	n/a	n/a	n/a
4021.31	n/a	RECOG_RESP	2010655	n/a	LTP237	ltpFR	17	7	n/a	DAM	436	n/a	n/a	n/a	n/a	n/a	n/a	n/a
4021.798	n/a	RECOG_CONF	2010899	n/a	LTP237	ltpFR	17	7	n/a	DAM	436	3	n/a	n/a	n/a	n/a	n/a	n/a
4023.566	n/a	RECOG_LURE	2011783	n/a	LTP237	ltpFR	17	7	n/a	APPLE	33	1	n/a	n/a	n/a	n/a	n/a	n/a
4024.252	n/a	RECOG_RESP	2012126	n/a	LTP237	ltpFR	17	7	n/a	APPLE	33	n/a	n/a	n/a	n/a	n/a	n/a	n/a
4025.082	n/a	RECOG_CONF	2012541	n/a	LTP237	ltpFR	17	7	n/a	APPLE	33	1	n/a	n/a	n/a	n/a	n/a	n/a
4026.83	n/a	RECOG_LURE	2013415	n/a	LTP237	ltpFR	17	7	n/a	CONTINENT	367	1	n/a	n/a	n/a	n/a	n/a	n/a
4027.336	n/a	RECOG_RESP	2013668	n/a	LTP237	ltpFR	17	7	n/a	CONTINENT	367	n/a	n/a	n/a	n/a	n/a	n/a	n/a
4028.078	n/a	RECOG_CONF	2014039	n/a	LTP237	ltpFR	17	7	n/a	CONTINENT	367	1	n/a	n/a	n/a	n/a	n/a	n/a
