onset	duration	trial_type	sample	stim_file	subject	experiment	session	trial	task	item_name	item_num	recog_conf	resp	color_b	color_g	color_r	case	font
304.91	n/a	SESS_START	152455	n/a	LTP208	ltpFR	1	n/a	n/a	n/a	n/a	4	n/a	n/a	n/a	n/a	n/a	n/a
468.94	n/a	WORD	234470	wordpools/wasnorm_wordpool_less_exclusions.txt	LTP208	ltpFR	1	1	1	MICROSCOPE	891	n/a	n/a	1	0.412841796875	0.57763671875	lower	../fonts/amplitud.ttf
471.986	n/a	SLOW_MSG	235993	n/a	LTP208	ltpFR	1	1	n/a	n/a	n/a	n/a	n/a	n/a	n/a	n/a	n/a	n/a
474.596	n/a	WORD	237298	wordpools/wasnorm_wordpool_less_exclusions.txt	LTP208	ltpFR	1	1	1	GOO	648	n/a	2	1	0.412841796875	0.57763671875	lower	../fonts/amplitud.ttf
475.868	n/a	KEY_MSG	237934	n/a	LTP208	ltpFR	1	1	n/a	n/a	n/a	n/a	n/a	n/a	n/a	n/a	n/a	n/a
478.51	n/a	WORD	239255	wordpools/wasnorm_wordpool_less_exclusions.txt	LTP208	ltpFR	1	1	0	CUE	422	n/a	2	0	0.5869140625	0.422607421875	upper	../fonts/zerothre.ttf
479.648	n/a	KEY_MSG	239824	n/a	LTP208	ltpFR	1	1	n/a	n/a	n/a	n/a	n/a	n/a	n/a	n/a	n/a	n/a
482.392	n/a	WORD	241196	wordpools/wasnorm_wordpool_less_exclusions.txt	LTP208	ltpFR	1	1	0	SERPENT	1270	n/a	3	0	0.5869140625	0.422607421875	upper	../fonts/zerothre.ttf
484.986	n/a	KEY_MSG	242493	n/a	LTP208	ltpFR	1	1	n/a	n/a	n/a	n/a	n/a	n/a	n/a	n/a	n/a	n/a
487.712	n/a	WORD	243856	wordpools/wasnorm_wordpool_less_exclusions.txt	LTP208	ltpFR	1	1	0	CLERK	321	n/a	3	0	0.5869140625	0.422607421875	upper	../fonts/zerothre.ttf
489.988	n/a	KEY_MSG	244994	n/a	LTP208	ltpFR	1	1	n/a	n/a	n/a	n/a	n/a	n/a	n/a	n/a	n/a	n/a
492.396	n/a	WORD	246198	wordpools/wasnorm_wordpool_less_exclusions.txt	LTP208	ltpFR	1	1	0	APARTMENT	30	n/a	1	0	0.5869140625	0.422607421875	upper	../fonts/zerothre.ttf
496.406	n/a	WORD	248203	wordpools/wasnorm_wordpool_less_exclusions.txt	LTP208	ltpFR	1	1	1	CABBAGE	210	n/a	0	1	0.412841796875	0.57763671875	lower	../fonts/amplitud.ttf
500.438	n/a	WORD	250219	wordpools/wasnorm_wordpool_less_exclusions.txt	LTP208	ltpFR	1	1	1	WEB	1598	n/a	0	1	0.412841796875	0.57763671875	lower	../fonts/amplitud.ttf
504.452	n/a	WORD	252226	wordpools/wasnorm_wordpool_less_exclusions.txt	LTP208	ltpFR	1	1	1	LODGE	839	n/a	0	1	0.412841796875	0.57763671875	lower	../fonts/amplitud.ttf
508.356	n/a	WORD	254178	wordpools/wasnorm_wordpool_less_exclusions.txt	LTP208	ltpFR	1	1	1	MONARCH	906	n/a	1	1	0.412841796875	0.57763671875	lower	../fonts/amplitud.ttf
512.54	n/a	WORD	256270	wordpools/wasnorm_wordpool_less_exclusions.txt	LTP208	ltpFR	1	1	0	EMPEROR	529	n/a	1	0	0.5869140625	0.422607421875	upper	../fonts/zerothre.ttf
516.566	n/a	WORD	258283	wordpools/wasnorm_wordpool_less_exclusions.txt	LTP208	ltpFR	1	1	0	LIZARD	834	n/a	0	0	0.5869140625	0.422607421875	upper	../fonts/zerothre.ttf
520.598	n/a	WORD	260299	wordpools/wasnorm_wordpool_less_exclusions.txt	LTP208	ltpFR	1	1	0	OPERATOR	979	n/a	1	0	0.5869140625	0.422607421875	upper	../fonts/zerothre.ttf
524.752	n/a	WORD	262376	wordpools/wasnorm_wordpool_less_exclusions.txt	LTP208	ltpFR	1	1	0	TUBA	1515	n/a	2	0	0.5869140625	0.422607421875	upper	../fonts/zerothre.ttf
527.674	n/a	KEY_MSG	263837	n/a	LTP208	ltpFR	1	1	n/a	n/a	n/a	n/a	n/a	n/a	n/a	n/a	n/a	n/a
530.39	n/a	WORD	265195	wordpools/wasnorm_wordpool_less_exclusions.txt	LTP208	ltpFR	1	1	1	NOTE	958	n/a	2	1	0.412841796875	0.57763671875	lower	../fonts/amplitud.ttf
531.832	n/a	KEY_MSG	265916	n/a	LTP208	ltpFR	1	1	n/a	n/a	n/a	n/a	n/a	n/a	n/a	n/a	n/a	n/a
534.218	n/a	WORD	267109	wordpools/wasnorm_wordpool_less_exclusions.txt	LTP208	ltpFR	1	1	1	COMMANDER	354	n/a	3	1	0.412841796875	0.57763671875	lower	../fonts/amplitud.ttf
535.128	n/a	KEY_MSG	267564	n/a	LTP208	ltpFR	1	1	n/a	n/a	n/a	n/a	n/a	n/a	n/a	n/a	n/a	n/a
540.248	n/a	REC_START	270124	n/a	LTP208	ltpFR	1	1	n/a	n/a	n/a	n/a	n/a	n/a	n/a	n/a	n/a	n/a
541.768	n/a	REC_WORD	270884	wordpools/wasnorm_wordpool_less_exclusions.txt	LTP208	ltpFR	1	1	0	EMPEROR	529	n/a	1	n/a	n/a	n/a	n/a	n/a
543.054	n/a	REC_WORD	271527	wordpools/wasnorm_wordpool_less_exclusions.txt	LTP208	ltpFR	1	1	0	LIZARD	834	n/a	0	n/a	n/a	n/a	n/a	n/a
544.364	n/a	REC_WORD	272182	wordpools/wasnorm_wordpool_less_exclusions.txt	LTP208	ltpFR	1	1	n/a	LIVING	-1	n/a	n/a	n/a	n/a	n/a	n/a	n/a
545.55	n/a	REC_WORD	272775	wordpools/wasnorm_wordpool_less_exclusions.txt	LTP208	ltpFR	1	1	n/a	CONDUCTOR	362	n/a	n/a	n/a	n/a	n/a	n/a	n/a
548.084	n/a	REC_WORD_VV	274042	wordpools/wasnorm_wordpool_less_exclusions.txt	LTP208	ltpFR	1	1	n/a	<>	-1	n/a	n/a	n/a	n/a	n/a	n/a	n/a
549.128	n/a	REC_WORD_VV	274564	wordpools/wasnorm_wordpool_less_exclusions.txt	LTP208	ltpFR	1	1	n/a	<>	-1	n/a	n/a	n/a	n/a	n/a	n/a	n/a
552.112	n/a	REC_WORD	276056	wordpools/wasnorm_wordpool_less_exclusions.txt	LTP208	ltpFR	1	1	n/a	TASK	-1	n/a	n/a	n/a	n/a	n/a	n/a	n/a
647.724	n/a	WORD	323862	wordpools/wasnorm_wordpool_less_exclusions.txt	LTP208	ltpFR	1	2	0	RUST	1219	n/a	0	0	0.5869140625	0.422607421875	upper	../fonts/zerothre.ttf
651.9	n/a	WORD	325950	wordpools/wasnorm_wordpool_less_exclusions.txt	LTP208	ltpFR	1	2	0	BELT	120	n/a	1	0	0.5869140625	0.422607421875	upper	../fonts/zerothre.ttf
656.09	n/a	WORD	328045	wordpools/wasnorm_wordpool_less_exclusions.txt	LTP208	ltpFR	1	2	0	FISH	571	n/a	0	0	0.5869140625	0.422607421875	upper	../fonts/zerothre.ttf
659.97	n/a	WORD	329985	wordpools/wasnorm_wordpool_less_exclusions.txt	LTP208	ltpFR	1	2	0	CLAY	320	n/a	0	0	0.5869140625	0.422607421875	upper	../fonts/zerothre.ttf
663.986	n/a	WORD	331993	wordpools/wasnorm_wordpool_less_exclusions.txt	LTP208	ltpFR	1	2	1	BELLY	119	n/a	1	1	0.412841796875	0.57763671875	lower	../fonts/amplitud.ttf
668.18	n/a	WORD	334090	wordpools/wasnorm_wordpool_less_exclusions.txt	LTP208	ltpFR	1	2	1	SEA	1259	n/a	1	1	0.412841796875	0.57763671875	lower	../fonts/amplitud.ttf
672.268	n/a	WORD	336134	wordpools/wasnorm_wordpool_less_exclusions.txt	LTP208	ltpFR	1	2	1	FLIPPER	580	n/a	1	1	0.412841796875	0.57763671875	lower	../fonts/amplitud.ttf
676.482	n/a	WORD	338241	wordpools/wasnorm_wordpool_less_exclusions.txt	LTP208	ltpFR	1	2	1	SEAL	1262	n/a	1	1	0.412841796875	0.57763671875	lower	../fonts/amplitud.ttf
680.498	n/a	WORD	340249	wordpools/wasnorm_wordpool_less_exclusions.txt	LTP208	ltpFR	1	2	1	PAINTER	1004	n/a	1	1	0.412841796875	0.57763671875	lower	../fonts/amplitud.ttf
684.658	n/a	WORD	342329	wordpools/wasnorm_wordpool_less_exclusions.txt	LTP208	ltpFR	1	2	1	PAINT	1003	n/a	0	1	0.412841796875	0.57763671875	lower	../fonts/amplitud.ttf
688.78	n/a	WORD	344390	wordpools/wasnorm_wordpool_less_exclusions.txt	LTP208	ltpFR	1	2	0	COCOON	339	n/a	1	0	0.5869140625	0.422607421875	upper	../fonts/zerothre.ttf
692.79	n/a	WORD	346395	wordpools/wasnorm_wordpool_less_exclusions.txt	LTP208	ltpFR	1	2	0	SHELTER	1282	n/a	1	0	0.5869140625	0.422607421875	upper	../fonts/zerothre.ttf
696.844	n/a	WORD	348422	wordpools/wasnorm_wordpool_less_exclusions.txt	LTP208	ltpFR	1	2	0	TREASURE	1500	n/a	1	0	0.5869140625	0.422607421875	upper	../fonts/zerothre.ttf
700.828	n/a	WORD	350414	wordpools/wasnorm_wordpool_less_exclusions.txt	LTP208	ltpFR	1	2	0	BUTTERFLY	206	n/a	0	0	0.5869140625	0.422607421875	upper	../fonts/zerothre.ttf
704.658	n/a	WORD	352329	wordpools/wasnorm_wordpool_less_exclusions.txt	LTP208	ltpFR	1	2	1	SAILOR	1223	n/a	1	1	0.412841796875	0.57763671875	lower	../fonts/amplitud.ttf
708.572	n/a	WORD	354286	wordpools/wasnorm_wordpool_less_exclusions.txt	LTP208	ltpFR	1	2	1	RIVER	1194	n/a	1	1	0.412841796875	0.57763671875	lower	../fonts/amplitud.ttf
714.356	n/a	REC_START	357178	n/a	LTP208	ltpFR	1	2	n/a	n/a	n/a	n/a	n/a	n/a	n/a	n/a	n/a	n/a
715.144	n/a	REC_WORD	357572	wordpools/wasnorm_wordpool_less_exclusions.txt	LTP208	ltpFR	1	2	1	SEA	1259	n/a	1	n/a	n/a	n/a	n/a	n/a
716.056	n/a	REC_WORD	358028	wordpools/wasnorm_wordpool_less_exclusions.txt	LTP208	ltpFR	1	2	1	RIVER	1194	n/a	1	n/a	n/a	n/a	n/a	n/a
717.404	n/a	REC_WORD_VV	358702	wordpools/wasnorm_wordpool_less_exclusions.txt	LTP208	ltpFR	1	2	n/a	<>	-1	n/a	n/a	n/a	n/a	n/a	n/a	n/a
717.924	n/a	REC_WORD	358962	wordpools/wasnorm_wordpool_less_exclusions.txt	LTP208	ltpFR	1	2	n/a	SHELLFISH	-1	n/a	n/a	n/a	n/a	n/a	n/a	n/a
719.58	n/a	REC_WORD_VV	359790	wordpools/wasnorm_wordpool_less_exclusions.txt	LTP208	ltpFR	1	2	n/a	<>	-1	n/a	n/a	n/a	n/a	n/a	n/a	n/a
722.792	n/a	REC_WORD	361396	wordpools/wasnorm_wordpool_less_exclusions.txt	LTP208	ltpFR	1	2	n/a	CARP	-1	n/a	n/a	n/a	n/a	n/a	n/a	n/a
725.326	n/a	REC_WORD	362663	wordpools/wasnorm_wordpool_less_exclusions.txt	LTP208	ltpFR	1	2	0	LIZARD	834	n/a	0	n/a	n/a	n/a	n/a	n/a
728.474	n/a	REC_WORD_VV	364237	wordpools/wasnorm_wordpool_less_exclusions.txt	LTP208	ltpFR	1	2	n/a	<>	-1	n/a	n/a	n/a	n/a	n/a	n/a	n/a
733.782	n/a	REC_WORD	366891	wordpools/wasnorm_wordpool_less_exclusions.txt	LTP208	ltpFR	1	2	1	SAILOR	1223	n/a	1	n/a	n/a	n/a	n/a	n/a
734.954	n/a	REC_WORD	367477	wordpools/wasnorm_wordpool_less_exclusions.txt	LTP208	ltpFR	1	2	1	SEA	1259	n/a	1	n/a	n/a	n/a	n/a	n/a
739.102	n/a	REC_WORD	369551	wordpools/wasnorm_wordpool_less_exclusions.txt	LTP208	ltpFR	1	2	n/a	SHIP	1286	n/a	n/a	n/a	n/a	n/a	n/a	n/a
741.44	n/a	REC_WORD	370720	wordpools/wasnorm_wordpool_less_exclusions.txt	LTP208	ltpFR	1	2	n/a	TAILOR	-1	n/a	n/a	n/a	n/a	n/a	n/a	n/a
749.724	n/a	REC_WORD	374862	wordpools/wasnorm_wordpool_less_exclusions.txt	LTP208	ltpFR	1	2	n/a	SEASHELL	-1	n/a	n/a	n/a	n/a	n/a	n/a	n/a
756.448	n/a	REC_WORD	378224	wordpools/wasnorm_wordpool_less_exclusions.txt	LTP208	ltpFR	1	2	n/a	BUILDER	190	n/a	n/a	n/a	n/a	n/a	n/a	n/a
774.976	n/a	REC_WORD	387488	wordpools/wasnorm_wordpool_less_exclusions.txt	LTP208	ltpFR	1	2	1	RIVER	1194	n/a	1	n/a	n/a	n/a	n/a	n/a
781.324	n/a	REC_WORD	390662	wordpools/wasnorm_wordpool_less_exclusions.txt	LTP208	ltpFR	1	2	n/a	SALT	1229	n/a	n/a	n/a	n/a	n/a	n/a	n/a
794.462	n/a	WORD	397231	wordpools/wasnorm_wordpool_less_exclusions.txt	LTP208	ltpFR	1	3	1	HORSE	719	n/a	1	1	0.412841796875	0.57763671875	lower	../fonts/amplitud.ttf
798.328	n/a	WORD	399164	wordpools/wasnorm_wordpool_less_exclusions.txt	LTP208	ltpFR	1	3	1	UNICORN	1538	n/a	1	1	0.412841796875	0.57763671875	lower	../fonts/amplitud.ttf
802.176	n/a	WORD	401088	wordpools/wasnorm_wordpool_less_exclusions.txt	LTP208	ltpFR	1	3	1	BASKET	95	n/a	0	1	0.412841796875	0.57763671875	lower	../fonts/amplitud.ttf
806.106	n/a	WORD	403053	wordpools/wasnorm_wordpool_less_exclusions.txt	LTP208	ltpFR	1	3	1	ZIPPER	1636	n/a	0	1	0.412841796875	0.57763671875	lower	../fonts/amplitud.ttf
810.022	n/a	WORD	405011	wordpools/wasnorm_wordpool_less_exclusions.txt	LTP208	ltpFR	1	3	1	SLUG	1329	n/a	1	1	0.412841796875	0.57763671875	lower	../fonts/amplitud.ttf
814.06	n/a	WORD	407030	wordpools/wasnorm_wordpool_less_exclusions.txt	LTP208	ltpFR	1	3	1	LASH	802	n/a	0	1	0.412841796875	0.57763671875	lower	../fonts/amplitud.ttf
817.886	n/a	WORD	408943	wordpools/wasnorm_wordpool_less_exclusions.txt	LTP208	ltpFR	1	3	1	LENS	811	n/a	0	1	0.412841796875	0.57763671875	lower	../fonts/amplitud.ttf
822.024	n/a	WORD	411012	wordpools/wasnorm_wordpool_less_exclusions.txt	LTP208	ltpFR	1	3	1	WHALE	1601	n/a	1	1	0.412841796875	0.57763671875	lower	../fonts/amplitud.ttf
826.032	n/a	WORD	413016	wordpools/wasnorm_wordpool_less_exclusions.txt	LTP208	ltpFR	1	3	1	BAY	102	n/a	0	1	0.412841796875	0.57763671875	lower	../fonts/amplitud.ttf
829.97	n/a	WORD	414985	wordpools/wasnorm_wordpool_less_exclusions.txt	LTP208	ltpFR	1	3	1	LAMP	798	n/a	0	1	0.412841796875	0.57763671875	lower	../fonts/amplitud.ttf
834.17	n/a	WORD	417085	wordpools/wasnorm_wordpool_less_exclusions.txt	LTP208	ltpFR	1	3	1	MARSH	874	n/a	1	1	0.412841796875	0.57763671875	lower	../fonts/amplitud.ttf
838.08	n/a	WORD	419040	wordpools/wasnorm_wordpool_less_exclusions.txt	LTP208	ltpFR	1	3	1	VEGETABLE	1552	n/a	1	1	0.412841796875	0.57763671875	lower	../fonts/amplitud.ttf
842.3	n/a	WORD	421150	wordpools/wasnorm_wordpool_less_exclusions.txt	LTP208	ltpFR	1	3	1	SERVER	1272	n/a	1	1	0.412841796875	0.57763671875	lower	../fonts/amplitud.ttf
846.442	n/a	WORD	423221	wordpools/wasnorm_wordpool_less_exclusions.txt	LTP208	ltpFR	1	3	1	CRAB	397	n/a	1	1	0.412841796875	0.57763671875	lower	../fonts/amplitud.ttf
850.432	n/a	WORD	425216	wordpools/wasnorm_wordpool_less_exclusions.txt	LTP208	ltpFR	1	3	1	WORM	1623	n/a	1	1	0.412841796875	0.57763671875	lower	../fonts/amplitud.ttf
854.514	n/a	WORD	427257	wordpools/wasnorm_wordpool_less_exclusions.txt	LTP208	ltpFR	1	3	1	FAUCET	555	n/a	0	1	0.412841796875	0.57763671875	lower	../fonts/amplitud.ttf
860.498	n/a	REC_START	430249	n/a	LTP208	ltpFR	1	3	n/a	n/a	n/a	n/a	n/a	n/a	n/a	n/a	n/a	n/a
861.312	n/a	REC_WORD	430656	wordpools/wasnorm_wordpool_less_exclusions.txt	LTP208	ltpFR	1	3	1	FAUCET	555	n/a	0	n/a	n/a	n/a	n/a	n/a
862.314	n/a	REC_WORD	431157	wordpools/wasnorm_wordpool_less_exclusions.txt	LTP208	ltpFR	1	3	1	WORM	1623	n/a	1	n/a	n/a	n/a	n/a	n/a
863.864	n/a	REC_WORD	431932	wordpools/wasnorm_wordpool_less_exclusions.txt	LTP208	ltpFR	1	3	1	UNICORN	1538	n/a	1	n/a	n/a	n/a	n/a	n/a
868.804	n/a	REC_WORD_VV	434402	wordpools/wasnorm_wordpool_less_exclusions.txt	LTP208	ltpFR	1	3	n/a	<>	-1	n/a	n/a	n/a	n/a	n/a	n/a	n/a
873.438	n/a	REC_WORD_VV	436719	wordpools/wasnorm_wordpool_less_exclusions.txt	LTP208	ltpFR	1	3	n/a	<>	-1	n/a	n/a	n/a	n/a	n/a	n/a	n/a
879.734	n/a	REC_WORD	439867	wordpools/wasnorm_wordpool_less_exclusions.txt	LTP208	ltpFR	1	3	n/a	WATER	1594	n/a	n/a	n/a	n/a	n/a	n/a	n/a
881.046	n/a	REC_WORD	440523	wordpools/wasnorm_wordpool_less_exclusions.txt	LTP208	ltpFR	1	3	1	BAY	102	n/a	0	n/a	n/a	n/a	n/a	n/a
889.398	n/a	REC_WORD	444699	wordpools/wasnorm_wordpool_less_exclusions.txt	LTP208	ltpFR	1	3	n/a	URCHIN	-1	n/a	n/a	n/a	n/a	n/a	n/a	n/a
890.296	n/a	REC_WORD	445148	wordpools/wasnorm_wordpool_less_exclusions.txt	LTP208	ltpFR	1	3	1	WORM	1623	n/a	1	n/a	n/a	n/a	n/a	n/a
905.996	n/a	REC_WORD	452998	wordpools/wasnorm_wordpool_less_exclusions.txt	LTP208	ltpFR	1	3	1	VEGETABLE	1552	n/a	1	n/a	n/a	n/a	n/a	n/a
914.508	n/a	REC_WORD	457254	wordpools/wasnorm_wordpool_less_exclusions.txt	LTP208	ltpFR	1	3	n/a	CLAM	315	n/a	n/a	n/a	n/a	n/a	n/a	n/a
926.482	n/a	REC_WORD	463241	wordpools/wasnorm_wordpool_less_exclusions.txt	LTP208	ltpFR	1	3	1	BAY	102	n/a	0	n/a	n/a	n/a	n/a	n/a
964.294	n/a	WORD	482147	wordpools/wasnorm_wordpool_less_exclusions.txt	LTP208	ltpFR	1	4	0	PAIL	1002	n/a	3	0	0.5869140625	0.422607421875	upper	../fonts/zerothre.ttf
967.044	n/a	KEY_MSG	483522	n/a	LTP208	ltpFR	1	4	n/a	n/a	n/a	n/a	n/a	n/a	n/a	n/a	n/a	n/a
969.764	n/a	WORD	484882	wordpools/wasnorm_wordpool_less_exclusions.txt	LTP208	ltpFR	1	4	0	WATERFALL	1595	n/a	3	0	0.5869140625	0.422607421875	upper	../fonts/zerothre.ttf
971.694	n/a	KEY_MSG	485847	n/a	LTP208	ltpFR	1	4	n/a	n/a	n/a	n/a	n/a	n/a	n/a	n/a	n/a	n/a
974.216	n/a	WORD	487108	wordpools/wasnorm_wordpool_less_exclusions.txt	LTP208	ltpFR	1	4	0	CLIMBER	323	n/a	2	0	0.5869140625	0.422607421875	upper	../fonts/zerothre.ttf
975.226	n/a	KEY_MSG	487613	n/a	LTP208	ltpFR	1	4	n/a	n/a	n/a	n/a	n/a	n/a	n/a	n/a	n/a	n/a
978.114	n/a	WORD	489057	wordpools/wasnorm_wordpool_less_exclusions.txt	LTP208	ltpFR	1	4	0	GIRL	637	n/a	3	0	0.5869140625	0.422607421875	upper	../fonts/zerothre.ttf
979.174	n/a	KEY_MSG	489587	n/a	LTP208	ltpFR	1	4	n/a	n/a	n/a	n/a	n/a	n/a	n/a	n/a	n/a	n/a
982.286	n/a	WORD	491143	wordpools/wasnorm_wordpool_less_exclusions.txt	LTP208	ltpFR	1	4	1	TAPE	1433	n/a	2	1	0.412841796875	0.57763671875	lower	../fonts/amplitud.ttf
983.858	n/a	KEY_MSG	491929	n/a	LTP208	ltpFR	1	4	n/a	n/a	n/a	n/a	n/a	n/a	n/a	n/a	n/a	n/a
986.262	n/a	WORD	493131	wordpools/wasnorm_wordpool_less_exclusions.txt	LTP208	ltpFR	1	4	1	TUBE	1516	n/a	3	1	0.412841796875	0.57763671875	lower	../fonts/amplitud.ttf
988.074	n/a	KEY_MSG	494037	n/a	LTP208	ltpFR	1	4	n/a	n/a	n/a	n/a	n/a	n/a	n/a	n/a	n/a	n/a
990.812	n/a	WORD	495406	wordpools/wasnorm_wordpool_less_exclusions.txt	LTP208	ltpFR	1	4	0	FENCE	560	n/a	2	0	0.5869140625	0.422607421875	upper	../fonts/zerothre.ttf
992.074	n/a	KEY_MSG	496037	n/a	LTP208	ltpFR	1	4	n/a	n/a	n/a	n/a	n/a	n/a	n/a	n/a	n/a	n/a
995.034	n/a	WORD	497517	wordpools/wasnorm_wordpool_less_exclusions.txt	LTP208	ltpFR	1	4	0	FLASHLIGHT	575	n/a	0	0	0.5869140625	0.422607421875	upper	../fonts/zerothre.ttf
999.212	n/a	WORD	499606	wordpools/wasnorm_wordpool_less_exclusions.txt	LTP208	ltpFR	1	4	0	SWITCH	1422	n/a	0	0	0.5869140625	0.422607421875	upper	../fonts/zerothre.ttf
1003.2	n/a	WORD	501600	wordpools/wasnorm_wordpool_less_exclusions.txt	LTP208	ltpFR	1	4	0	ELK	526	n/a	1	0	0.5869140625	0.422607421875	upper	../fonts/zerothre.ttf
1007.316	n/a	WORD	503658	wordpools/wasnorm_wordpool_less_exclusions.txt	LTP208	ltpFR	1	4	1	FOUNTAIN	597	n/a	0	1	0.412841796875	0.57763671875	lower	../fonts/amplitud.ttf
1011.464	n/a	WORD	505732	wordpools/wasnorm_wordpool_less_exclusions.txt	LTP208	ltpFR	1	4	1	PUPPY	1144	n/a	1	1	0.412841796875	0.57763671875	lower	../fonts/amplitud.ttf
1015.378	n/a	WORD	507689	wordpools/wasnorm_wordpool_less_exclusions.txt	LTP208	ltpFR	1	4	1	FRIEND	606	n/a	3	1	0.412841796875	0.57763671875	lower	../fonts/amplitud.ttf
1016.918	n/a	KEY_MSG	508459	n/a	LTP208	ltpFR	1	4	n/a	n/a	n/a	n/a	n/a	n/a	n/a	n/a	n/a	n/a
1019.528	n/a	WORD	509764	wordpools/wasnorm_wordpool_less_exclusions.txt	LTP208	ltpFR	1	4	1	STRANGER	1389	n/a	1	1	0.412841796875	0.57763671875	lower	../fonts/amplitud.ttf
1023.676	n/a	WORD	511838	wordpools/wasnorm_wordpool_less_exclusions.txt	LTP208	ltpFR	1	4	1	HARP	689	n/a	0	1	0.412841796875	0.57763671875	lower	../fonts/amplitud.ttf
1027.826	n/a	WORD	513913	wordpools/wasnorm_wordpool_less_exclusions.txt	LTP208	ltpFR	1	4	1	RUG	1215	n/a	0	1	0.412841796875	0.57763671875	lower	../fonts/amplitud.ttf
1033.798	n/a	REC_START	516899	n/a	LTP208	ltpFR	1	4	n/a	n/a	n/a	n/a	n/a	n/a	n/a	n/a	n/a	n/a
1034.526	n/a	REC_WORD	517263	wordpools/wasnorm_wordpool_less_exclusions.txt	LTP208	ltpFR	1	4	1	RUG	1215	n/a	0	n/a	n/a	n/a	n/a	n/a
1035.206	n/a	REC_WORD	517603	wordpools/wasnorm_wordpool_less_exclusions.txt	LTP208	ltpFR	1	4	1	FRIEND	606	n/a	3	n/a	n/a	n/a	n/a	n/a
1035.978	n/a	REC_WORD	517989	wordpools/wasnorm_wordpool_less_exclusions.txt	LTP208	ltpFR	1	4	1	STRANGER	1389	n/a	1	n/a	n/a	n/a	n/a	n/a
1037.45	n/a	REC_WORD	518725	wordpools/wasnorm_wordpool_less_exclusions.txt	LTP208	ltpFR	1	4	0	ELK	526	n/a	1	n/a	n/a	n/a	n/a	n/a
1038.658	n/a	REC_WORD	519329	wordpools/wasnorm_wordpool_less_exclusions.txt	LTP208	ltpFR	1	4	n/a	BEAR	106	n/a	n/a	n/a	n/a	n/a	n/a	n/a
1042.394	n/a	REC_WORD	521197	wordpools/wasnorm_wordpool_less_exclusions.txt	LTP208	ltpFR	1	4	1	FRIEND	606	n/a	3	n/a	n/a	n/a	n/a	n/a
1047.734	n/a	REC_WORD	523867	wordpools/wasnorm_wordpool_less_exclusions.txt	LTP208	ltpFR	1	4	n/a	BIRD	129	n/a	n/a	n/a	n/a	n/a	n/a	n/a
1051.13	n/a	REC_WORD	525565	wordpools/wasnorm_wordpool_less_exclusions.txt	LTP208	ltpFR	1	4	n/a	FRIENDSHIP	-1	n/a	n/a	n/a	n/a	n/a	n/a	n/a
1114.618	n/a	WORD	557309	wordpools/wasnorm_wordpool_less_exclusions.txt	LTP208	ltpFR	1	5	1	FARMER	553	n/a	1	1	0.412841796875	0.57763671875	lower	../fonts/amplitud.ttf
1118.668	n/a	WORD	559334	wordpools/wasnorm_wordpool_less_exclusions.txt	LTP208	ltpFR	1	5	1	CORN	381	n/a	1	1	0.412841796875	0.57763671875	lower	../fonts/amplitud.ttf
1122.548	n/a	WORD	561274	wordpools/wasnorm_wordpool_less_exclusions.txt	LTP208	ltpFR	1	5	1	PRIEST	1122	n/a	1	1	0.412841796875	0.57763671875	lower	../fonts/amplitud.ttf
1126.496	n/a	WORD	563248	wordpools/wasnorm_wordpool_less_exclusions.txt	LTP208	ltpFR	1	5	1	ONION	977	n/a	0	1	0.412841796875	0.57763671875	lower	../fonts/amplitud.ttf
1130.48	n/a	WORD	565240	wordpools/wasnorm_wordpool_less_exclusions.txt	LTP208	ltpFR	1	5	1	BARK	87	n/a	0	1	0.412841796875	0.57763671875	lower	../fonts/amplitud.ttf
1134.534	n/a	WORD	567267	wordpools/wasnorm_wordpool_less_exclusions.txt	LTP208	ltpFR	1	5	1	COUSIN	392	n/a	1	1	0.412841796875	0.57763671875	lower	../fonts/amplitud.ttf
1138.376	n/a	WORD	569188	wordpools/wasnorm_wordpool_less_exclusions.txt	LTP208	ltpFR	1	5	1	UNCLE	1536	n/a	1	1	0.412841796875	0.57763671875	lower	../fonts/amplitud.ttf
1142.33	n/a	WORD	571165	wordpools/wasnorm_wordpool_less_exclusions.txt	LTP208	ltpFR	1	5	1	SARDINE	1235	n/a	0	1	0.412841796875	0.57763671875	lower	../fonts/amplitud.ttf
1146.456	n/a	WORD	573228	wordpools/wasnorm_wordpool_less_exclusions.txt	LTP208	ltpFR	1	5	1	CYLINDER	432	n/a	0	1	0.412841796875	0.57763671875	lower	../fonts/amplitud.ttf
1150.512	n/a	WORD	575256	wordpools/wasnorm_wordpool_less_exclusions.txt	LTP208	ltpFR	1	5	1	SOCK	1339	n/a	0	1	0.412841796875	0.57763671875	lower	../fonts/amplitud.ttf
1154.728	n/a	WORD	577364	wordpools/wasnorm_wordpool_less_exclusions.txt	LTP208	ltpFR	1	5	1	EAGLE	512	n/a	1	1	0.412841796875	0.57763671875	lower	../fonts/amplitud.ttf
1158.626	n/a	WORD	579313	wordpools/wasnorm_wordpool_less_exclusions.txt	LTP208	ltpFR	1	5	1	GARLIC	624	n/a	0	1	0.412841796875	0.57763671875	lower	../fonts/amplitud.ttf
1162.718	n/a	WORD	581359	wordpools/wasnorm_wordpool_less_exclusions.txt	LTP208	ltpFR	1	5	1	HEEL	700	n/a	0	1	0.412841796875	0.57763671875	lower	../fonts/amplitud.ttf
1166.716	n/a	WORD	583358	wordpools/wasnorm_wordpool_less_exclusions.txt	LTP208	ltpFR	1	5	1	RACCOON	1153	n/a	1	1	0.412841796875	0.57763671875	lower	../fonts/amplitud.ttf
1170.784	n/a	WORD	585392	wordpools/wasnorm_wordpool_less_exclusions.txt	LTP208	ltpFR	1	5	1	DISHWASHER	475	n/a	1	1	0.412841796875	0.57763671875	lower	../fonts/amplitud.ttf
1174.804	n/a	WORD	587402	wordpools/wasnorm_wordpool_less_exclusions.txt	LTP208	ltpFR	1	5	1	TELESCOPE	1446	n/a	0	1	0.412841796875	0.57763671875	lower	../fonts/amplitud.ttf
1180.576	n/a	REC_START	590288	n/a	LTP208	ltpFR	1	5	n/a	n/a	n/a	n/a	n/a	n/a	n/a	n/a	n/a	n/a
1181.184	n/a	REC_WORD	590592	wordpools/wasnorm_wordpool_less_exclusions.txt	LTP208	ltpFR	1	5	1	TELESCOPE	1446	n/a	0	n/a	n/a	n/a	n/a	n/a
1182.108	n/a	REC_WORD	591054	wordpools/wasnorm_wordpool_less_exclusions.txt	LTP208	ltpFR	1	5	1	FARMER	553	n/a	1	n/a	n/a	n/a	n/a	n/a
1182.798	n/a	REC_WORD	591399	wordpools/wasnorm_wordpool_less_exclusions.txt	LTP208	ltpFR	1	5	1	PRIEST	1122	n/a	1	n/a	n/a	n/a	n/a	n/a
1183.828	n/a	REC_WORD	591914	wordpools/wasnorm_wordpool_less_exclusions.txt	LTP208	ltpFR	1	5	1	GARLIC	624	n/a	0	n/a	n/a	n/a	n/a	n/a
1188.06	n/a	REC_WORD_VV	594030	wordpools/wasnorm_wordpool_less_exclusions.txt	LTP208	ltpFR	1	5	n/a	<>	-1	n/a	n/a	n/a	n/a	n/a	n/a	n/a
1188.23	n/a	REC_WORD	594115	wordpools/wasnorm_wordpool_less_exclusions.txt	LTP208	ltpFR	1	5	1	CABBAGE	210	n/a	0	n/a	n/a	n/a	n/a	n/a
1192.372	n/a	REC_WORD_VV	596186	wordpools/wasnorm_wordpool_less_exclusions.txt	LTP208	ltpFR	1	5	n/a	<>	-1	n/a	n/a	n/a	n/a	n/a	n/a	n/a
1192.64	n/a	REC_WORD	596320	wordpools/wasnorm_wordpool_less_exclusions.txt	LTP208	ltpFR	1	5	n/a	WAGON	1578	n/a	n/a	n/a	n/a	n/a	n/a	n/a
1199.958	n/a	REC_WORD	599979	wordpools/wasnorm_wordpool_less_exclusions.txt	LTP208	ltpFR	1	5	1	FRIEND	606	n/a	3	n/a	n/a	n/a	n/a	n/a
1200.882	n/a	REC_WORD	600441	wordpools/wasnorm_wordpool_less_exclusions.txt	LTP208	ltpFR	1	5	1	COUSIN	392	n/a	1	n/a	n/a	n/a	n/a	n/a
1201.848	n/a	REC_WORD	600924	wordpools/wasnorm_wordpool_less_exclusions.txt	LTP208	ltpFR	1	5	1	UNCLE	1536	n/a	1	n/a	n/a	n/a	n/a	n/a
1211.888	n/a	REC_WORD	605944	wordpools/wasnorm_wordpool_less_exclusions.txt	LTP208	ltpFR	1	5	1	DISHWASHER	475	n/a	1	n/a	n/a	n/a	n/a	n/a
1212.738	n/a	REC_WORD	606369	wordpools/wasnorm_wordpool_less_exclusions.txt	LTP208	ltpFR	1	5	n/a	CONDUCTOR	362	n/a	n/a	n/a	n/a	n/a	n/a	n/a
1259.244	n/a	WORD	629622	wordpools/wasnorm_wordpool_less_exclusions.txt	LTP208	ltpFR	1	6	-1	CLOTHES	327	n/a	-1	1	1.0	1.0	upper	../fonts/Verdana.ttf
1263.16	n/a	WORD	631580	wordpools/wasnorm_wordpool_less_exclusions.txt	LTP208	ltpFR	1	6	-1	DRESSER	496	n/a	-1	1	1.0	1.0	upper	../fonts/Verdana.ttf
1267.36	n/a	WORD	633680	wordpools/wasnorm_wordpool_less_exclusions.txt	LTP208	ltpFR	1	6	-1	COOKBOOK	373	n/a	-1	1	1.0	1.0	upper	../fonts/Verdana.ttf
1271.234	n/a	WORD	635617	wordpools/wasnorm_wordpool_less_exclusions.txt	LTP208	ltpFR	1	6	-1	FUDGE	611	n/a	-1	1	1.0	1.0	upper	../fonts/Verdana.ttf
1275.072	n/a	WORD	637536	wordpools/wasnorm_wordpool_less_exclusions.txt	LTP208	ltpFR	1	6	-1	TREAT	1501	n/a	-1	1	1.0	1.0	upper	../fonts/Verdana.ttf
1279.12	n/a	WORD	639560	wordpools/wasnorm_wordpool_less_exclusions.txt	LTP208	ltpFR	1	6	-1	PHOTO	1055	n/a	-1	1	1.0	1.0	upper	../fonts/Verdana.ttf
1283.136	n/a	WORD	641568	wordpools/wasnorm_wordpool_less_exclusions.txt	LTP208	ltpFR	1	6	-1	SCREW	1254	n/a	-1	1	1.0	1.0	upper	../fonts/Verdana.ttf
1287.178	n/a	WORD	643589	wordpools/wasnorm_wordpool_less_exclusions.txt	LTP208	ltpFR	1	6	-1	SCALPEL	1243	n/a	-1	1	1.0	1.0	upper	../fonts/Verdana.ttf
1291.2	n/a	WORD	645600	wordpools/wasnorm_wordpool_less_exclusions.txt	LTP208	ltpFR	1	6	-1	TENT	1449	n/a	-1	1	1.0	1.0	upper	../fonts/Verdana.ttf
1295.03	n/a	WORD	647515	wordpools/wasnorm_wordpool_less_exclusions.txt	LTP208	ltpFR	1	6	-1	CHIPMUNK	304	n/a	-1	1	1.0	1.0	upper	../fonts/Verdana.ttf
1299.064	n/a	WORD	649532	wordpools/wasnorm_wordpool_less_exclusions.txt	LTP208	ltpFR	1	6	-1	FIG	563	n/a	-1	1	1.0	1.0	upper	../fonts/Verdana.ttf
1302.922	n/a	WORD	651461	wordpools/wasnorm_wordpool_less_exclusions.txt	LTP208	ltpFR	1	6	-1	FRAME	600	n/a	-1	1	1.0	1.0	upper	../fonts/Verdana.ttf
1307.044	n/a	WORD	653522	wordpools/wasnorm_wordpool_less_exclusions.txt	LTP208	ltpFR	1	6	-1	ARMY	39	n/a	-1	1	1.0	1.0	upper	../fonts/Verdana.ttf
1311.02	n/a	WORD	655510	wordpools/wasnorm_wordpool_less_exclusions.txt	LTP208	ltpFR	1	6	-1	CUPBOARD	425	n/a	-1	1	1.0	1.0	upper	../fonts/Verdana.ttf
1314.856	n/a	WORD	657428	wordpools/wasnorm_wordpool_less_exclusions.txt	LTP208	ltpFR	1	6	-1	WHEEL	1603	n/a	-1	1	1.0	1.0	upper	../fonts/Verdana.ttf
1318.732	n/a	WORD	659366	wordpools/wasnorm_wordpool_less_exclusions.txt	LTP208	ltpFR	1	6	-1	CARAVAN	242	n/a	-1	1	1.0	1.0	upper	../fonts/Verdana.ttf
1324.488	n/a	REC_START	662244	n/a	LTP208	ltpFR	1	6	n/a	n/a	n/a	n/a	n/a	n/a	n/a	n/a	n/a	n/a
1325.058	n/a	REC_WORD	662529	wordpools/wasnorm_wordpool_less_exclusions.txt	LTP208	ltpFR	1	6	-1	CHIPMUNK	304	n/a	-1	n/a	n/a	n/a	n/a	n/a
1325.702	n/a	REC_WORD	662851	wordpools/wasnorm_wordpool_less_exclusions.txt	LTP208	ltpFR	1	6	-1	FIG	563	n/a	-1	n/a	n/a	n/a	n/a	n/a
1326.778	n/a	REC_WORD	663389	wordpools/wasnorm_wordpool_less_exclusions.txt	LTP208	ltpFR	1	6	-1	CARAVAN	242	n/a	-1	n/a	n/a	n/a	n/a	n/a
1329.204	n/a	REC_WORD_VV	664602	wordpools/wasnorm_wordpool_less_exclusions.txt	LTP208	ltpFR	1	6	n/a	<>	-1	n/a	n/a	n/a	n/a	n/a	n/a	n/a
1330.21	n/a	REC_WORD	665105	wordpools/wasnorm_wordpool_less_exclusions.txt	LTP208	ltpFR	1	6	-1	CUPBOARD	425	n/a	-1	n/a	n/a	n/a	n/a	n/a
1331.752	n/a	REC_WORD	665876	wordpools/wasnorm_wordpool_less_exclusions.txt	LTP208	ltpFR	1	6	n/a	CLOSET	326	n/a	n/a	n/a	n/a	n/a	n/a	n/a
1336.172	n/a	REC_WORD	668086	wordpools/wasnorm_wordpool_less_exclusions.txt	LTP208	ltpFR	1	6	n/a	TIME	-1	n/a	n/a	n/a	n/a	n/a	n/a	n/a
1340.006	n/a	REC_WORD	670003	wordpools/wasnorm_wordpool_less_exclusions.txt	LTP208	ltpFR	1	6	n/a	FURNITURE	616	n/a	n/a	n/a	n/a	n/a	n/a	n/a
1342.832	n/a	REC_WORD	671416	wordpools/wasnorm_wordpool_less_exclusions.txt	LTP208	ltpFR	1	6	-1	CARAVAN	242	n/a	-1	n/a	n/a	n/a	n/a	n/a
1347.332	n/a	REC_WORD	673666	wordpools/wasnorm_wordpool_less_exclusions.txt	LTP208	ltpFR	1	6	-1	ARMY	39	n/a	-1	n/a	n/a	n/a	n/a	n/a
1404.644	n/a	WORD	702322	wordpools/wasnorm_wordpool_less_exclusions.txt	LTP208	ltpFR	1	7	-1	JAW	751	n/a	-1	1	1.0	1.0	upper	../fonts/Verdana.ttf
1408.524	n/a	WORD	704262	wordpools/wasnorm_wordpool_less_exclusions.txt	LTP208	ltpFR	1	7	-1	CHEEK	287	n/a	-1	1	1.0	1.0	upper	../fonts/Verdana.ttf
1412.53	n/a	WORD	706265	wordpools/wasnorm_wordpool_less_exclusions.txt	LTP208	ltpFR	1	7	-1	SEAT	1264	n/a	-1	1	1.0	1.0	upper	../fonts/Verdana.ttf
1416.522	n/a	WORD	708261	wordpools/wasnorm_wordpool_less_exclusions.txt	LTP208	ltpFR	1	7	-1	FIELD	562	n/a	-1	1	1.0	1.0	upper	../fonts/Verdana.ttf
1420.36	n/a	WORD	710180	wordpools/wasnorm_wordpool_less_exclusions.txt	LTP208	ltpFR	1	7	-1	TOASTER	1472	n/a	-1	1	1.0	1.0	upper	../fonts/Verdana.ttf
1424.374	n/a	WORD	712187	wordpools/wasnorm_wordpool_less_exclusions.txt	LTP208	ltpFR	1	7	-1	PRODUCER	1129	n/a	-1	1	1.0	1.0	upper	../fonts/Verdana.ttf
1428.59	n/a	WORD	714295	wordpools/wasnorm_wordpool_less_exclusions.txt	LTP208	ltpFR	1	7	-1	HAWK	692	n/a	-1	1	1.0	1.0	upper	../fonts/Verdana.ttf
1432.74	n/a	WORD	716370	wordpools/wasnorm_wordpool_less_exclusions.txt	LTP208	ltpFR	1	7	-1	GRASS	655	n/a	-1	1	1.0	1.0	upper	../fonts/Verdana.ttf
1436.772	n/a	WORD	718386	wordpools/wasnorm_wordpool_less_exclusions.txt	LTP208	ltpFR	1	7	-1	ANCHOR	21	n/a	-1	1	1.0	1.0	upper	../fonts/Verdana.ttf
1440.938	n/a	WORD	720469	wordpools/wasnorm_wordpool_less_exclusions.txt	LTP208	ltpFR	1	7	-1	BATHTUB	100	n/a	-1	1	1.0	1.0	upper	../fonts/Verdana.ttf
1444.988	n/a	WORD	722494	wordpools/wasnorm_wordpool_less_exclusions.txt	LTP208	ltpFR	1	7	-1	PLUMBER	1091	n/a	-1	1	1.0	1.0	upper	../fonts/Verdana.ttf
1448.852	n/a	WORD	724426	wordpools/wasnorm_wordpool_less_exclusions.txt	LTP208	ltpFR	1	7	-1	TILE	1468	n/a	-1	1	1.0	1.0	upper	../fonts/Verdana.ttf
1453.018	n/a	WORD	726509	wordpools/wasnorm_wordpool_less_exclusions.txt	LTP208	ltpFR	1	7	-1	CEILING	265	n/a	-1	1	1.0	1.0	upper	../fonts/Verdana.ttf
1456.944	n/a	WORD	728472	wordpools/wasnorm_wordpool_less_exclusions.txt	LTP208	ltpFR	1	7	-1	CANARY	227	n/a	-1	1	1.0	1.0	upper	../fonts/Verdana.ttf
1461.166	n/a	WORD	730583	wordpools/wasnorm_wordpool_less_exclusions.txt	LTP208	ltpFR	1	7	-1	PLANT	1083	n/a	-1	1	1.0	1.0	upper	../fonts/Verdana.ttf
1465.214	n/a	WORD	732607	wordpools/wasnorm_wordpool_less_exclusions.txt	LTP208	ltpFR	1	7	-1	PICKLE	1059	n/a	-1	1	1.0	1.0	upper	../fonts/Verdana.ttf
1470.988	n/a	REC_START	735494	n/a	LTP208	ltpFR	1	7	n/a	n/a	n/a	n/a	n/a	n/a	n/a	n/a	n/a	n/a
1471.612	n/a	REC_WORD	735806	wordpools/wasnorm_wordpool_less_exclusions.txt	LTP208	ltpFR	1	7	-1	PLANT	1083	n/a	-1	n/a	n/a	n/a	n/a	n/a
1472.426	n/a	REC_WORD	736213	wordpools/wasnorm_wordpool_less_exclusions.txt	LTP208	ltpFR	1	7	-1	PICKLE	1059	n/a	-1	n/a	n/a	n/a	n/a	n/a
1473.422	n/a	REC_WORD	736711	wordpools/wasnorm_wordpool_less_exclusions.txt	LTP208	ltpFR	1	7	n/a	BATHROOM	99	n/a	n/a	n/a	n/a	n/a	n/a	n/a
1474.446	n/a	REC_WORD	737223	wordpools/wasnorm_wordpool_less_exclusions.txt	LTP208	ltpFR	1	7	-1	PLUMBER	1091	n/a	-1	n/a	n/a	n/a	n/a	n/a
1475.522	n/a	REC_WORD	737761	wordpools/wasnorm_wordpool_less_exclusions.txt	LTP208	ltpFR	1	7	-1	CEILING	265	n/a	-1	n/a	n/a	n/a	n/a	n/a
1476.864	n/a	REC_WORD	738432	wordpools/wasnorm_wordpool_less_exclusions.txt	LTP208	ltpFR	1	7	-1	TILE	1468	n/a	-1	n/a	n/a	n/a	n/a	n/a
1481.48	n/a	REC_WORD	740740	wordpools/wasnorm_wordpool_less_exclusions.txt	LTP208	ltpFR	1	7	-1	GRASS	655	n/a	-1	n/a	n/a	n/a	n/a	n/a
1486.838	n/a	REC_WORD	743419	wordpools/wasnorm_wordpool_less_exclusions.txt	LTP208	ltpFR	1	7	-1	PLANT	1083	n/a	-1	n/a	n/a	n/a	n/a	n/a
1487.652	n/a	REC_WORD	743826	wordpools/wasnorm_wordpool_less_exclusions.txt	LTP208	ltpFR	1	7	-1	CHEEK	287	n/a	-1	n/a	n/a	n/a	n/a	n/a
1489.812	n/a	REC_WORD	744906	wordpools/wasnorm_wordpool_less_exclusions.txt	LTP208	ltpFR	1	7	-1	JAW	751	n/a	-1	n/a	n/a	n/a	n/a	n/a
1494.132	n/a	REC_WORD	747066	wordpools/wasnorm_wordpool_less_exclusions.txt	LTP208	ltpFR	1	7	-1	ANCHOR	21	n/a	-1	n/a	n/a	n/a	n/a	n/a
1550.418	n/a	WORD	775209	wordpools/wasnorm_wordpool_less_exclusions.txt	LTP208	ltpFR	1	8	1	NOVEL	960	n/a	2	1	0.412841796875	0.57763671875	lower	../fonts/amplitud.ttf
1552.298	n/a	KEY_MSG	776149	n/a	LTP208	ltpFR	1	8	n/a	n/a	n/a	n/a	n/a	n/a	n/a	n/a	n/a	n/a
1554.638	n/a	WORD	777319	wordpools/wasnorm_wordpool_less_exclusions.txt	LTP208	ltpFR	1	8	1	BLOUSE	139	n/a	3	1	0.412841796875	0.57763671875	lower	../fonts/amplitud.ttf
1556.012	n/a	KEY_MSG	778006	n/a	LTP208	ltpFR	1	8	n/a	n/a	n/a	n/a	n/a	n/a	n/a	n/a	n/a	n/a
1558.832	n/a	WORD	779416	wordpools/wasnorm_wordpool_less_exclusions.txt	LTP208	ltpFR	1	8	0	RUNNER	1218	n/a	1	0	0.5869140625	0.422607421875	upper	../fonts/zerothre.ttf
1562.916	n/a	WORD	781458	wordpools/wasnorm_wordpool_less_exclusions.txt	LTP208	ltpFR	1	8	0	QUILT	1151	n/a	1	0	0.5869140625	0.422607421875	upper	../fonts/zerothre.ttf
1566.802	n/a	WORD	783401	wordpools/wasnorm_wordpool_less_exclusions.txt	LTP208	ltpFR	1	8	0	BOOK	149	n/a	1	0	0.5869140625	0.422607421875	upper	../fonts/zerothre.ttf
1570.794	n/a	WORD	785397	wordpools/wasnorm_wordpool_less_exclusions.txt	LTP208	ltpFR	1	8	0	PEAR	1033	n/a	0	0	0.5869140625	0.422607421875	upper	../fonts/zerothre.ttf
1574.95	n/a	WORD	787475	wordpools/wasnorm_wordpool_less_exclusions.txt	LTP208	ltpFR	1	8	0	COOLER	375	n/a	1	0	0.5869140625	0.422607421875	upper	../fonts/zerothre.ttf
1578.798	n/a	WORD	789399	wordpools/wasnorm_wordpool_less_exclusions.txt	LTP208	ltpFR	1	8	1	PUB	1135	n/a	0	1	0.412841796875	0.57763671875	lower	../fonts/amplitud.ttf
1582.646	n/a	WORD	791323	wordpools/wasnorm_wordpool_less_exclusions.txt	LTP208	ltpFR	1	8	1	TURTLE	1522	n/a	1	1	0.412841796875	0.57763671875	lower	../fonts/amplitud.ttf
1586.778	n/a	WORD	793389	wordpools/wasnorm_wordpool_less_exclusions.txt	LTP208	ltpFR	1	8	1	PALACE	1006	n/a	1	1	0.412841796875	0.57763671875	lower	../fonts/amplitud.ttf
1590.946	n/a	WORD	795473	wordpools/wasnorm_wordpool_less_exclusions.txt	LTP208	ltpFR	1	8	1	PRINCESS	1125	n/a	1	1	0.412841796875	0.57763671875	lower	../fonts/amplitud.ttf
1594.944	n/a	WORD	797472	wordpools/wasnorm_wordpool_less_exclusions.txt	LTP208	ltpFR	1	8	1	HEN	703	n/a	1	1	0.412841796875	0.57763671875	lower	../fonts/amplitud.ttf
1598.97	n/a	WORD	799485	wordpools/wasnorm_wordpool_less_exclusions.txt	LTP208	ltpFR	1	8	1	TRICYCLE	1506	n/a	0	1	0.412841796875	0.57763671875	lower	../fonts/amplitud.ttf
1602.806	n/a	WORD	801403	wordpools/wasnorm_wordpool_less_exclusions.txt	LTP208	ltpFR	1	8	0	NIGHTGOWN	953	n/a	1	0	0.5869140625	0.422607421875	upper	../fonts/zerothre.ttf
1607.0	n/a	WORD	803500	wordpools/wasnorm_wordpool_less_exclusions.txt	LTP208	ltpFR	1	8	0	FLEET	578	n/a	1	0	0.5869140625	0.422607421875	upper	../fonts/zerothre.ttf
1610.922	n/a	WORD	805461	wordpools/wasnorm_wordpool_less_exclusions.txt	LTP208	ltpFR	1	8	0	CAPTAIN	239	n/a	1	0	0.5869140625	0.422607421875	upper	../fonts/zerothre.ttf
1616.93	n/a	REC_START	808465	n/a	LTP208	ltpFR	1	8	n/a	n/a	n/a	n/a	n/a	n/a	n/a	n/a	n/a	n/a
1618.046	n/a	REC_WORD	809023	wordpools/wasnorm_wordpool_less_exclusions.txt	LTP208	ltpFR	1	8	0	FLEET	578	n/a	1	n/a	n/a	n/a	n/a	n/a
1618.984	n/a	REC_WORD	809492	wordpools/wasnorm_wordpool_less_exclusions.txt	LTP208	ltpFR	1	8	1	PRINCESS	1125	n/a	1	n/a	n/a	n/a	n/a	n/a
1619.862	n/a	REC_WORD	809931	wordpools/wasnorm_wordpool_less_exclusions.txt	LTP208	ltpFR	1	8	1	PALACE	1006	n/a	1	n/a	n/a	n/a	n/a	n/a
1624.246	n/a	REC_WORD_VV	812123	wordpools/wasnorm_wordpool_less_exclusions.txt	LTP208	ltpFR	1	8	n/a	<>	-1	n/a	n/a	n/a	n/a	n/a	n/a	n/a
1624.438	n/a	REC_WORD	812219	wordpools/wasnorm_wordpool_less_exclusions.txt	LTP208	ltpFR	1	8	n/a	TRUCK	1512	n/a	n/a	n/a	n/a	n/a	n/a	n/a
1641.57	n/a	REC_WORD	820785	wordpools/wasnorm_wordpool_less_exclusions.txt	LTP208	ltpFR	1	8	1	PRINCESS	1125	n/a	1	n/a	n/a	n/a	n/a	n/a
1666.584	n/a	REC_WORD	833292	wordpools/wasnorm_wordpool_less_exclusions.txt	LTP208	ltpFR	1	8	1	PALACE	1006	n/a	1	n/a	n/a	n/a	n/a	n/a
1683.486	n/a	REC_WORD	841743	wordpools/wasnorm_wordpool_less_exclusions.txt	LTP208	ltpFR	1	8	0	BOOK	149	n/a	1	n/a	n/a	n/a	n/a	n/a
1695.762	n/a	WORD	847881	wordpools/wasnorm_wordpool_less_exclusions.txt	LTP208	ltpFR	1	9	0	TROUT	1511	n/a	1	0	0.5869140625	0.422607421875	upper	../fonts/zerothre.ttf
1699.61	n/a	WORD	849805	wordpools/wasnorm_wordpool_less_exclusions.txt	LTP208	ltpFR	1	9	0	PIKE	1067	n/a	1	0	0.5869140625	0.422607421875	upper	../fonts/zerothre.ttf
1703.686	n/a	WORD	851843	wordpools/wasnorm_wordpool_less_exclusions.txt	LTP208	ltpFR	1	9	0	SHED	1277	n/a	1	0	0.5869140625	0.422607421875	upper	../fonts/zerothre.ttf
1707.684	n/a	WORD	853842	wordpools/wasnorm_wordpool_less_exclusions.txt	LTP208	ltpFR	1	9	0	BANJO	82	n/a	0	0	0.5869140625	0.422607421875	upper	../fonts/zerothre.ttf
1711.54	n/a	WORD	855770	wordpools/wasnorm_wordpool_less_exclusions.txt	LTP208	ltpFR	1	9	0	HANDBAG	684	n/a	0	0	0.5869140625	0.422607421875	upper	../fonts/zerothre.ttf
1715.538	n/a	WORD	857769	wordpools/wasnorm_wordpool_less_exclusions.txt	LTP208	ltpFR	1	9	0	BUCKLE	185	n/a	0	0	0.5869140625	0.422607421875	upper	../fonts/zerothre.ttf
1719.736	n/a	WORD	859868	wordpools/wasnorm_wordpool_less_exclusions.txt	LTP208	ltpFR	1	9	0	DIARY	460	n/a	0	0	0.5869140625	0.422607421875	upper	../fonts/zerothre.ttf
1723.752	n/a	WORD	861876	wordpools/wasnorm_wordpool_less_exclusions.txt	LTP208	ltpFR	1	9	0	PAGE	1001	n/a	0	0	0.5869140625	0.422607421875	upper	../fonts/zerothre.ttf
1727.918	n/a	WORD	863959	wordpools/wasnorm_wordpool_less_exclusions.txt	LTP208	ltpFR	1	9	0	EGG	518	n/a	0	0	0.5869140625	0.422607421875	upper	../fonts/zerothre.ttf
1732.03	n/a	WORD	866015	wordpools/wasnorm_wordpool_less_exclusions.txt	LTP208	ltpFR	1	9	0	BROOM	178	n/a	1	0	0.5869140625	0.422607421875	upper	../fonts/zerothre.ttf
1735.928	n/a	WORD	867964	wordpools/wasnorm_wordpool_less_exclusions.txt	LTP208	ltpFR	1	9	0	STAIRS	1367	n/a	0	0	0.5869140625	0.422607421875	upper	../fonts/zerothre.ttf
1740.076	n/a	WORD	870038	wordpools/wasnorm_wordpool_less_exclusions.txt	LTP208	ltpFR	1	9	0	PORCUPINE	1107	n/a	1	0	0.5869140625	0.422607421875	upper	../fonts/zerothre.ttf
1744.048	n/a	WORD	872024	wordpools/wasnorm_wordpool_less_exclusions.txt	LTP208	ltpFR	1	9	0	HEDGE	699	n/a	0	0	0.5869140625	0.422607421875	upper	../fonts/zerothre.ttf
1748.096	n/a	WORD	874048	wordpools/wasnorm_wordpool_less_exclusions.txt	LTP208	ltpFR	1	9	0	CHAUFFEUR	283	n/a	1	0	0.5869140625	0.422607421875	upper	../fonts/zerothre.ttf
1752.196	n/a	WORD	876098	wordpools/wasnorm_wordpool_less_exclusions.txt	LTP208	ltpFR	1	9	0	SPOOL	1356	n/a	0	0	0.5869140625	0.422607421875	upper	../fonts/zerothre.ttf
1756.076	n/a	WORD	878038	wordpools/wasnorm_wordpool_less_exclusions.txt	LTP208	ltpFR	1	9	0	ESCALATOR	539	n/a	1	0	0.5869140625	0.422607421875	upper	../fonts/zerothre.ttf
1761.876	n/a	REC_START	880938	n/a	LTP208	ltpFR	1	9	n/a	n/a	n/a	n/a	n/a	n/a	n/a	n/a	n/a	n/a
1762.914	n/a	REC_WORD	881457	wordpools/wasnorm_wordpool_less_exclusions.txt	LTP208	ltpFR	1	9	0	ESCALATOR	539	n/a	1	n/a	n/a	n/a	n/a	n/a
1764.176	n/a	REC_WORD	882088	wordpools/wasnorm_wordpool_less_exclusions.txt	LTP208	ltpFR	1	9	0	TROUT	1511	n/a	1	n/a	n/a	n/a	n/a	n/a
1765.216	n/a	REC_WORD	882608	wordpools/wasnorm_wordpool_less_exclusions.txt	LTP208	ltpFR	1	9	n/a	SALMON	1227	n/a	n/a	n/a	n/a	n/a	n/a	n/a
1766.508	n/a	REC_WORD	883254	wordpools/wasnorm_wordpool_less_exclusions.txt	LTP208	ltpFR	1	9	n/a	THREAD	1460	n/a	n/a	n/a	n/a	n/a	n/a	n/a
1768.252	n/a	REC_WORD	884126	wordpools/wasnorm_wordpool_less_exclusions.txt	LTP208	ltpFR	1	9	0	SPOOL	1356	n/a	0	n/a	n/a	n/a	n/a	n/a
1771.924	n/a	REC_WORD	885962	wordpools/wasnorm_wordpool_less_exclusions.txt	LTP208	ltpFR	1	9	0	EGG	518	n/a	0	n/a	n/a	n/a	n/a	n/a
1775.65	n/a	REC_WORD	887825	wordpools/wasnorm_wordpool_less_exclusions.txt	LTP208	ltpFR	1	9	0	PAGE	1001	n/a	0	n/a	n/a	n/a	n/a	n/a
1776.738	n/a	REC_WORD	888369	wordpools/wasnorm_wordpool_less_exclusions.txt	LTP208	ltpFR	1	9	0	BOOK	149	n/a	1	n/a	n/a	n/a	n/a	n/a
1780.964	n/a	REC_WORD	890482	wordpools/wasnorm_wordpool_less_exclusions.txt	LTP208	ltpFR	1	9	0	ESCALATOR	539	n/a	1	n/a	n/a	n/a	n/a	n/a
1788.268	n/a	REC_WORD	894134	wordpools/wasnorm_wordpool_less_exclusions.txt	LTP208	ltpFR	1	9	0	STAIRS	1367	n/a	0	n/a	n/a	n/a	n/a	n/a
1799.18	n/a	REC_WORD	899590	wordpools/wasnorm_wordpool_less_exclusions.txt	LTP208	ltpFR	1	9	0	TROUT	1511	n/a	1	n/a	n/a	n/a	n/a	n/a
1807.012	n/a	REC_WORD	903506	wordpools/wasnorm_wordpool_less_exclusions.txt	LTP208	ltpFR	1	9	1	SERVER	1272	n/a	1	n/a	n/a	n/a	n/a	n/a
1844.096	n/a	WORD	922048	wordpools/wasnorm_wordpool_less_exclusions.txt	LTP208	ltpFR	1	10	0	PRUNE	1134	n/a	3	0	0.5869140625	0.422607421875	upper	../fonts/zerothre.ttf
1846.254	n/a	KEY_MSG	923127	n/a	LTP208	ltpFR	1	10	n/a	n/a	n/a	n/a	n/a	n/a	n/a	n/a	n/a	n/a
1848.876	n/a	WORD	924438	wordpools/wasnorm_wordpool_less_exclusions.txt	LTP208	ltpFR	1	10	0	PARSLEY	1016	n/a	0	0	0.5869140625	0.422607421875	upper	../fonts/zerothre.ttf
1852.874	n/a	WORD	926437	wordpools/wasnorm_wordpool_less_exclusions.txt	LTP208	ltpFR	1	10	0	THESAURUS	1454	n/a	1	0	0.5869140625	0.422607421875	upper	../fonts/zerothre.ttf
1856.94	n/a	WORD	928470	wordpools/wasnorm_wordpool_less_exclusions.txt	LTP208	ltpFR	1	10	0	DUNE	506	n/a	1	0	0.5869140625	0.422607421875	upper	../fonts/zerothre.ttf
1861.162	n/a	WORD	930581	wordpools/wasnorm_wordpool_less_exclusions.txt	LTP208	ltpFR	1	10	0	ASHTRAY	45	n/a	0	0	0.5869140625	0.422607421875	upper	../fonts/zerothre.ttf
1865.254	n/a	WORD	932627	wordpools/wasnorm_wordpool_less_exclusions.txt	LTP208	ltpFR	1	10	0	TWIN	1528	n/a	1	0	0.5869140625	0.422607421875	upper	../fonts/zerothre.ttf
1869.236	n/a	WORD	934618	wordpools/wasnorm_wordpool_less_exclusions.txt	LTP208	ltpFR	1	10	0	TURKEY	1520	n/a	1	0	0.5869140625	0.422607421875	upper	../fonts/zerothre.ttf
1873.352	n/a	WORD	936676	wordpools/wasnorm_wordpool_less_exclusions.txt	LTP208	ltpFR	1	10	0	NUT	965	n/a	0	0	0.5869140625	0.422607421875	upper	../fonts/zerothre.ttf
1877.506	n/a	WORD	938753	wordpools/wasnorm_wordpool_less_exclusions.txt	LTP208	ltpFR	1	10	0	CONTINENT	367	n/a	1	0	0.5869140625	0.422607421875	upper	../fonts/zerothre.ttf
1881.456	n/a	WORD	940728	wordpools/wasnorm_wordpool_less_exclusions.txt	LTP208	ltpFR	1	10	0	BANDANNA	80	n/a	0	0	0.5869140625	0.422607421875	upper	../fonts/zerothre.ttf
1885.464	n/a	WORD	942732	wordpools/wasnorm_wordpool_less_exclusions.txt	LTP208	ltpFR	1	10	0	CHEST	295	n/a	0	0	0.5869140625	0.422607421875	upper	../fonts/zerothre.ttf
1889.636	n/a	WORD	944818	wordpools/wasnorm_wordpool_less_exclusions.txt	LTP208	ltpFR	1	10	0	CAMEL	223	n/a	1	0	0.5869140625	0.422607421875	upper	../fonts/zerothre.ttf
1893.494	n/a	WORD	946747	wordpools/wasnorm_wordpool_less_exclusions.txt	LTP208	ltpFR	1	10	0	HORIZON	717	n/a	1	0	0.5869140625	0.422607421875	upper	../fonts/zerothre.ttf
1897.618	n/a	WORD	948809	wordpools/wasnorm_wordpool_less_exclusions.txt	LTP208	ltpFR	1	10	0	SUPPER	1411	n/a	0	0	0.5869140625	0.422607421875	upper	../fonts/zerothre.ttf
1901.482	n/a	WORD	950741	wordpools/wasnorm_wordpool_less_exclusions.txt	LTP208	ltpFR	1	10	0	FLANNEL	574	n/a	1	0	0.5869140625	0.422607421875	upper	../fonts/zerothre.ttf
1905.648	n/a	WORD	952824	wordpools/wasnorm_wordpool_less_exclusions.txt	LTP208	ltpFR	1	10	0	VEST	1559	n/a	0	0	0.5869140625	0.422607421875	upper	../fonts/zerothre.ttf
1911.348	n/a	REC_START	955674	n/a	LTP208	ltpFR	1	10	n/a	n/a	n/a	n/a	n/a	n/a	n/a	n/a	n/a	n/a
1911.91	n/a	REC_WORD	955955	wordpools/wasnorm_wordpool_less_exclusions.txt	LTP208	ltpFR	1	10	0	VEST	1559	n/a	0	n/a	n/a	n/a	n/a	n/a
1912.546	n/a	REC_WORD	956273	wordpools/wasnorm_wordpool_less_exclusions.txt	LTP208	ltpFR	1	10	0	FLANNEL	574	n/a	1	n/a	n/a	n/a	n/a	n/a
1913.756	n/a	REC_WORD	956878	wordpools/wasnorm_wordpool_less_exclusions.txt	LTP208	ltpFR	1	10	0	PARSLEY	1016	n/a	0	n/a	n/a	n/a	n/a	n/a
1920.174	n/a	REC_WORD	960087	wordpools/wasnorm_wordpool_less_exclusions.txt	LTP208	ltpFR	1	10	n/a	PEA	-1	n/a	n/a	n/a	n/a	n/a	n/a	n/a
1921.94	n/a	REC_WORD	960970	wordpools/wasnorm_wordpool_less_exclusions.txt	LTP208	ltpFR	1	10	0	NUT	965	n/a	0	n/a	n/a	n/a	n/a	n/a
1928.988	n/a	REC_WORD	964494	wordpools/wasnorm_wordpool_less_exclusions.txt	LTP208	ltpFR	1	10	0	HORIZON	717	n/a	1	n/a	n/a	n/a	n/a	n/a
1932.456	n/a	REC_WORD	966228	wordpools/wasnorm_wordpool_less_exclusions.txt	LTP208	ltpFR	1	10	n/a	UNIVERSE	1540	n/a	n/a	n/a	n/a	n/a	n/a	n/a
1938.966	n/a	REC_WORD	969483	wordpools/wasnorm_wordpool_less_exclusions.txt	LTP208	ltpFR	1	10	0	VEST	1559	n/a	0	n/a	n/a	n/a	n/a	n/a
1940.592	n/a	REC_WORD	970296	wordpools/wasnorm_wordpool_less_exclusions.txt	LTP208	ltpFR	1	10	0	FLANNEL	574	n/a	1	n/a	n/a	n/a	n/a	n/a
1947.518	n/a	REC_WORD	973759	wordpools/wasnorm_wordpool_less_exclusions.txt	LTP208	ltpFR	1	10	0	NUT	965	n/a	0	n/a	n/a	n/a	n/a	n/a
1991.794	n/a	WORD	995897	wordpools/wasnorm_wordpool_less_exclusions.txt	LTP208	ltpFR	1	11	-1	DEPUTY	450	n/a	-1	1	1.0	1.0	upper	../fonts/Verdana.ttf
1995.944	n/a	WORD	997972	wordpools/wasnorm_wordpool_less_exclusions.txt	LTP208	ltpFR	1	11	-1	OFFICER	973	n/a	-1	1	1.0	1.0	upper	../fonts/Verdana.ttf
2000.086	n/a	WORD	1000043	wordpools/wasnorm_wordpool_less_exclusions.txt	LTP208	ltpFR	1	11	-1	FIST	572	n/a	-1	1	1.0	1.0	upper	../fonts/Verdana.ttf
2003.984	n/a	WORD	1001992	wordpools/wasnorm_wordpool_less_exclusions.txt	LTP208	ltpFR	1	11	-1	DANDRUFF	439	n/a	-1	1	1.0	1.0	upper	../fonts/Verdana.ttf
2008.122	n/a	WORD	1004061	wordpools/wasnorm_wordpool_less_exclusions.txt	LTP208	ltpFR	1	11	-1	LIVER	833	n/a	-1	1	1.0	1.0	upper	../fonts/Verdana.ttf
2012.05	n/a	WORD	1006025	wordpools/wasnorm_wordpool_less_exclusions.txt	LTP208	ltpFR	1	11	-1	RAIL	1161	n/a	-1	1	1.0	1.0	upper	../fonts/Verdana.ttf
2016.104	n/a	WORD	1008052	wordpools/wasnorm_wordpool_less_exclusions.txt	LTP208	ltpFR	1	11	-1	HIGHWAY	707	n/a	-1	1	1.0	1.0	upper	../fonts/Verdana.ttf
2020.114	n/a	WORD	1010057	wordpools/wasnorm_wordpool_less_exclusions.txt	LTP208	ltpFR	1	11	-1	BONE	148	n/a	-1	1	1.0	1.0	upper	../fonts/Verdana.ttf
2024.278	n/a	WORD	1012139	wordpools/wasnorm_wordpool_less_exclusions.txt	LTP208	ltpFR	1	11	-1	SPIT	1354	n/a	-1	1	1.0	1.0	upper	../fonts/Verdana.ttf
2028.11	n/a	WORD	1014055	wordpools/wasnorm_wordpool_less_exclusions.txt	LTP208	ltpFR	1	11	-1	CORK	380	n/a	-1	1	1.0	1.0	upper	../fonts/Verdana.ttf
2032.116	n/a	WORD	1016058	wordpools/wasnorm_wordpool_less_exclusions.txt	LTP208	ltpFR	1	11	-1	RAISIN	1163	n/a	-1	1	1.0	1.0	upper	../fonts/Verdana.ttf
2035.958	n/a	WORD	1017979	wordpools/wasnorm_wordpool_less_exclusions.txt	LTP208	ltpFR	1	11	-1	KNUCKLE	789	n/a	-1	1	1.0	1.0	upper	../fonts/Verdana.ttf
2039.978	n/a	WORD	1019989	wordpools/wasnorm_wordpool_less_exclusions.txt	LTP208	ltpFR	1	11	-1	INTESTINE	742	n/a	-1	1	1.0	1.0	upper	../fonts/Verdana.ttf
2043.92	n/a	WORD	1021960	wordpools/wasnorm_wordpool_less_exclusions.txt	LTP208	ltpFR	1	11	-1	KLEENEX	782	n/a	-1	1	1.0	1.0	upper	../fonts/Verdana.ttf
2047.954	n/a	WORD	1023977	wordpools/wasnorm_wordpool_less_exclusions.txt	LTP208	ltpFR	1	11	-1	CREATURE	403	n/a	-1	1	1.0	1.0	upper	../fonts/Verdana.ttf
2052.102	n/a	WORD	1026051	wordpools/wasnorm_wordpool_less_exclusions.txt	LTP208	ltpFR	1	11	-1	TIDE	1465	n/a	-1	1	1.0	1.0	upper	../fonts/Verdana.ttf
2057.942	n/a	REC_START	1028971	n/a	LTP208	ltpFR	1	11	n/a	n/a	n/a	n/a	n/a	n/a	n/a	n/a	n/a	n/a
2059.008	n/a	REC_WORD	1029504	wordpools/wasnorm_wordpool_less_exclusions.txt	LTP208	ltpFR	1	11	-1	TIDE	1465	n/a	-1	n/a	n/a	n/a	n/a	n/a
2059.738	n/a	REC_WORD	1029869	wordpools/wasnorm_wordpool_less_exclusions.txt	LTP208	ltpFR	1	11	-1	DEPUTY	450	n/a	-1	n/a	n/a	n/a	n/a	n/a
2060.616	n/a	REC_WORD	1030308	wordpools/wasnorm_wordpool_less_exclusions.txt	LTP208	ltpFR	1	11	-1	OFFICER	973	n/a	-1	n/a	n/a	n/a	n/a	n/a
2061.764	n/a	REC_WORD_VV	1030882	wordpools/wasnorm_wordpool_less_exclusions.txt	LTP208	ltpFR	1	11	n/a	<>	-1	n/a	n/a	n/a	n/a	n/a	n/a	n/a
2062.316	n/a	REC_WORD	1031158	wordpools/wasnorm_wordpool_less_exclusions.txt	LTP208	ltpFR	1	11	-1	FIST	572	n/a	-1	n/a	n/a	n/a	n/a	n/a
2063.31	n/a	REC_WORD	1031655	wordpools/wasnorm_wordpool_less_exclusions.txt	LTP208	ltpFR	1	11	-1	BONE	148	n/a	-1	n/a	n/a	n/a	n/a	n/a
2064.178	n/a	REC_WORD	1032089	wordpools/wasnorm_wordpool_less_exclusions.txt	LTP208	ltpFR	1	11	-1	INTESTINE	742	n/a	-1	n/a	n/a	n/a	n/a	n/a
2065.68	n/a	REC_WORD	1032840	wordpools/wasnorm_wordpool_less_exclusions.txt	LTP208	ltpFR	1	11	-1	CREATURE	403	n/a	-1	n/a	n/a	n/a	n/a	n/a
2067.774	n/a	REC_WORD	1033887	wordpools/wasnorm_wordpool_less_exclusions.txt	LTP208	ltpFR	1	11	-1	SPIT	1354	n/a	-1	n/a	n/a	n/a	n/a	n/a
2079.488	n/a	REC_WORD	1039744	wordpools/wasnorm_wordpool_less_exclusions.txt	LTP208	ltpFR	1	11	-1	BONE	148	n/a	-1	n/a	n/a	n/a	n/a	n/a
2085.456	n/a	REC_WORD	1042728	wordpools/wasnorm_wordpool_less_exclusions.txt	LTP208	ltpFR	1	11	-1	KLEENEX	782	n/a	-1	n/a	n/a	n/a	n/a	n/a
2127.992	n/a	REC_WORD	1063996	wordpools/wasnorm_wordpool_less_exclusions.txt	LTP208	ltpFR	1	11	-1	FIST	572	n/a	-1	n/a	n/a	n/a	n/a	n/a
2138.398	n/a	WORD	1069199	wordpools/wasnorm_wordpool_less_exclusions.txt	LTP208	ltpFR	1	12	1	RAG	1160	n/a	0	1	0.412841796875	0.57763671875	lower	../fonts/amplitud.ttf
2142.47	n/a	WORD	1071235	wordpools/wasnorm_wordpool_less_exclusions.txt	LTP208	ltpFR	1	12	1	VAGRANT	1544	n/a	0	1	0.412841796875	0.57763671875	lower	../fonts/amplitud.ttf
2146.418	n/a	WORD	1073209	wordpools/wasnorm_wordpool_less_exclusions.txt	LTP208	ltpFR	1	12	1	MAN	862	n/a	1	1	0.412841796875	0.57763671875	lower	../fonts/amplitud.ttf
2150.432	n/a	WORD	1075216	wordpools/wasnorm_wordpool_less_exclusions.txt	LTP208	ltpFR	1	12	1	TOY	1492	n/a	0	1	0.412841796875	0.57763671875	lower	../fonts/amplitud.ttf
2154.616	n/a	WORD	1077308	wordpools/wasnorm_wordpool_less_exclusions.txt	LTP208	ltpFR	1	12	0	PENNY	1045	n/a	0	0	0.5869140625	0.422607421875	upper	../fonts/zerothre.ttf
2158.73	n/a	WORD	1079365	wordpools/wasnorm_wordpool_less_exclusions.txt	LTP208	ltpFR	1	12	0	DESIGNER	451	n/a	1	0	0.5869140625	0.422607421875	upper	../fonts/zerothre.ttf
2162.78	n/a	WORD	1081390	wordpools/wasnorm_wordpool_less_exclusions.txt	LTP208	ltpFR	1	12	0	BARREL	91	n/a	1	0	0.5869140625	0.422607421875	upper	../fonts/zerothre.ttf
2166.696	n/a	WORD	1083348	wordpools/wasnorm_wordpool_less_exclusions.txt	LTP208	ltpFR	1	12	0	SAUSAGE	1238	n/a	0	0	0.5869140625	0.422607421875	upper	../fonts/zerothre.ttf
2170.878	n/a	WORD	1085439	wordpools/wasnorm_wordpool_less_exclusions.txt	LTP208	ltpFR	1	12	1	CHALK	276	n/a	0	1	0.412841796875	0.57763671875	lower	../fonts/amplitud.ttf
2174.792	n/a	WORD	1087396	wordpools/wasnorm_wordpool_less_exclusions.txt	LTP208	ltpFR	1	12	1	PARENT	1013	n/a	1	1	0.412841796875	0.57763671875	lower	../fonts/amplitud.ttf
2178.758	n/a	WORD	1089379	wordpools/wasnorm_wordpool_less_exclusions.txt	LTP208	ltpFR	1	12	0	WAREHOUSE	1588	n/a	1	0	0.5869140625	0.422607421875	upper	../fonts/zerothre.ttf
2182.672	n/a	WORD	1091336	wordpools/wasnorm_wordpool_less_exclusions.txt	LTP208	ltpFR	1	12	0	BOX	159	n/a	0	0	0.5869140625	0.422607421875	upper	../fonts/zerothre.ttf
2186.782	n/a	WORD	1093391	wordpools/wasnorm_wordpool_less_exclusions.txt	LTP208	ltpFR	1	12	0	RAZOR	1171	n/a	0	0	0.5869140625	0.422607421875	upper	../fonts/zerothre.ttf
2190.72	n/a	WORD	1095360	wordpools/wasnorm_wordpool_less_exclusions.txt	LTP208	ltpFR	1	12	0	BANK	83	n/a	1	0	0.5869140625	0.422607421875	upper	../fonts/zerothre.ttf
2194.618	n/a	WORD	1097309	wordpools/wasnorm_wordpool_less_exclusions.txt	LTP208	ltpFR	1	12	1	CROW	414	n/a	1	1	0.412841796875	0.57763671875	lower	../fonts/amplitud.ttf
2198.668	n/a	WORD	1099334	wordpools/wasnorm_wordpool_less_exclusions.txt	LTP208	ltpFR	1	12	1	SEAGULL	1261	n/a	1	1	0.412841796875	0.57763671875	lower	../fonts/amplitud.ttf
2204.384	n/a	REC_START	1102192	n/a	LTP208	ltpFR	1	12	n/a	n/a	n/a	n/a	n/a	n/a	n/a	n/a	n/a	n/a
2205.002	n/a	REC_WORD	1102501	wordpools/wasnorm_wordpool_less_exclusions.txt	LTP208	ltpFR	1	12	1	CROW	414	n/a	1	n/a	n/a	n/a	n/a	n/a
2205.922	n/a	REC_WORD	1102961	wordpools/wasnorm_wordpool_less_exclusions.txt	LTP208	ltpFR	1	12	1	SEAGULL	1261	n/a	1	n/a	n/a	n/a	n/a	n/a
2207.558	n/a	REC_WORD	1103779	wordpools/wasnorm_wordpool_less_exclusions.txt	LTP208	ltpFR	1	12	1	PARENT	1013	n/a	1	n/a	n/a	n/a	n/a	n/a
2210.084	n/a	REC_WORD_VV	1105042	wordpools/wasnorm_wordpool_less_exclusions.txt	LTP208	ltpFR	1	12	n/a	<>	-1	n/a	n/a	n/a	n/a	n/a	n/a	n/a
2213.224	n/a	REC_WORD	1106612	wordpools/wasnorm_wordpool_less_exclusions.txt	LTP208	ltpFR	1	12	1	CROW	414	n/a	1	n/a	n/a	n/a	n/a	n/a
2229.022	n/a	REC_WORD	1114511	wordpools/wasnorm_wordpool_less_exclusions.txt	LTP208	ltpFR	1	12	0	PENNY	1045	n/a	0	n/a	n/a	n/a	n/a	n/a
2232.442	n/a	REC_WORD	1116221	wordpools/wasnorm_wordpool_less_exclusions.txt	LTP208	ltpFR	1	12	1	CHALK	276	n/a	0	n/a	n/a	n/a	n/a	n/a
2236.64	n/a	REC_WORD	1118320	wordpools/wasnorm_wordpool_less_exclusions.txt	LTP208	ltpFR	1	12	1	VAGRANT	1544	n/a	0	n/a	n/a	n/a	n/a	n/a
2237.87	n/a	REC_WORD	1118935	wordpools/wasnorm_wordpool_less_exclusions.txt	LTP208	ltpFR	1	12	1	PARENT	1013	n/a	1	n/a	n/a	n/a	n/a	n/a
2280.03	n/a	REST_REWET	1140015	n/a	LTP208	ltpFR	1	12	n/a	n/a	n/a	n/a	n/a	n/a	n/a	n/a	n/a	n/a
2507.848	n/a	WORD	1253924	wordpools/wasnorm_wordpool_less_exclusions.txt	LTP208	ltpFR	1	13	-1	BLOSSOM	138	n/a	-1	1	1.0	1.0	upper	../fonts/Verdana.ttf
2512.042	n/a	WORD	1256021	wordpools/wasnorm_wordpool_less_exclusions.txt	LTP208	ltpFR	1	13	-1	COCKTAIL	338	n/a	-1	1	1.0	1.0	upper	../fonts/Verdana.ttf
2516.182	n/a	WORD	1258091	wordpools/wasnorm_wordpool_less_exclusions.txt	LTP208	ltpFR	1	13	-1	LITERATURE	831	n/a	-1	1	1.0	1.0	upper	../fonts/Verdana.ttf
2520.33	n/a	WORD	1260165	wordpools/wasnorm_wordpool_less_exclusions.txt	LTP208	ltpFR	1	13	-1	TOWN	1491	n/a	-1	1	1.0	1.0	upper	../fonts/Verdana.ttf
2524.512	n/a	WORD	1262256	wordpools/wasnorm_wordpool_less_exclusions.txt	LTP208	ltpFR	1	13	-1	FIDDLE	561	n/a	-1	1	1.0	1.0	upper	../fonts/Verdana.ttf
2528.578	n/a	WORD	1264289	wordpools/wasnorm_wordpool_less_exclusions.txt	LTP208	ltpFR	1	13	-1	TUB	1514	n/a	-1	1	1.0	1.0	upper	../fonts/Verdana.ttf
2532.426	n/a	WORD	1266213	wordpools/wasnorm_wordpool_less_exclusions.txt	LTP208	ltpFR	1	13	-1	SNORKEL	1336	n/a	-1	1	1.0	1.0	upper	../fonts/Verdana.ttf
2536.292	n/a	WORD	1268146	wordpools/wasnorm_wordpool_less_exclusions.txt	LTP208	ltpFR	1	13	-1	LEAF	808	n/a	-1	1	1.0	1.0	upper	../fonts/Verdana.ttf
2540.234	n/a	WORD	1270117	wordpools/wasnorm_wordpool_less_exclusions.txt	LTP208	ltpFR	1	13	-1	LOG	841	n/a	-1	1	1.0	1.0	upper	../fonts/Verdana.ttf
2544.072	n/a	WORD	1272036	wordpools/wasnorm_wordpool_less_exclusions.txt	LTP208	ltpFR	1	13	-1	ASSOCIATE	49	n/a	-1	1	1.0	1.0	upper	../fonts/Verdana.ttf
2547.92	n/a	WORD	1273960	wordpools/wasnorm_wordpool_less_exclusions.txt	LTP208	ltpFR	1	13	-1	JUG	762	n/a	-1	1	1.0	1.0	upper	../fonts/Verdana.ttf
2551.9	n/a	WORD	1275950	wordpools/wasnorm_wordpool_less_exclusions.txt	LTP208	ltpFR	1	13	-1	WEED	1599	n/a	-1	1	1.0	1.0	upper	../fonts/Verdana.ttf
2555.832	n/a	WORD	1277916	wordpools/wasnorm_wordpool_less_exclusions.txt	LTP208	ltpFR	1	13	-1	HOUSE	725	n/a	-1	1	1.0	1.0	upper	../fonts/Verdana.ttf
2559.932	n/a	WORD	1279966	wordpools/wasnorm_wordpool_less_exclusions.txt	LTP208	ltpFR	1	13	-1	PORCH	1106	n/a	-1	1	1.0	1.0	upper	../fonts/Verdana.ttf
2563.862	n/a	WORD	1281931	wordpools/wasnorm_wordpool_less_exclusions.txt	LTP208	ltpFR	1	13	-1	VEAL	1551	n/a	-1	1	1.0	1.0	upper	../fonts/Verdana.ttf
2568.062	n/a	WORD	1284031	wordpools/wasnorm_wordpool_less_exclusions.txt	LTP208	ltpFR	1	13	-1	CONCERT	360	n/a	-1	1	1.0	1.0	upper	../fonts/Verdana.ttf
2573.904	n/a	REC_START	1286952	n/a	LTP208	ltpFR	1	13	n/a	n/a	n/a	n/a	n/a	n/a	n/a	n/a	n/a	n/a
2574.442	n/a	REC_WORD	1287221	wordpools/wasnorm_wordpool_less_exclusions.txt	LTP208	ltpFR	1	13	-1	CONCERT	360	n/a	-1	n/a	n/a	n/a	n/a	n/a
2575.248	n/a	REC_WORD	1287624	wordpools/wasnorm_wordpool_less_exclusions.txt	LTP208	ltpFR	1	13	-1	VEAL	1551	n/a	-1	n/a	n/a	n/a	n/a	n/a
2575.914	n/a	REC_WORD	1287957	wordpools/wasnorm_wordpool_less_exclusions.txt	LTP208	ltpFR	1	13	-1	LEAF	808	n/a	-1	n/a	n/a	n/a	n/a	n/a
2576.622	n/a	REC_WORD	1288311	wordpools/wasnorm_wordpool_less_exclusions.txt	LTP208	ltpFR	1	13	-1	HOUSE	725	n/a	-1	n/a	n/a	n/a	n/a	n/a
2577.82	n/a	REC_WORD	1288910	wordpools/wasnorm_wordpool_less_exclusions.txt	LTP208	ltpFR	1	13	-1	WEED	1599	n/a	-1	n/a	n/a	n/a	n/a	n/a
2578.992	n/a	REC_WORD	1289496	wordpools/wasnorm_wordpool_less_exclusions.txt	LTP208	ltpFR	1	13	n/a	GARDEN	623	n/a	n/a	n/a	n/a	n/a	n/a	n/a
2581.442	n/a	REC_WORD	1290721	wordpools/wasnorm_wordpool_less_exclusions.txt	LTP208	ltpFR	1	13	-1	COCKTAIL	338	n/a	-1	n/a	n/a	n/a	n/a	n/a
2583.896	n/a	REC_WORD	1291948	wordpools/wasnorm_wordpool_less_exclusions.txt	LTP208	ltpFR	1	13	n/a	BATH	98	n/a	n/a	n/a	n/a	n/a	n/a	n/a
2585.258	n/a	REC_WORD	1292629	wordpools/wasnorm_wordpool_less_exclusions.txt	LTP208	ltpFR	1	13	-1	JUG	762	n/a	-1	n/a	n/a	n/a	n/a	n/a
2589.738	n/a	REC_WORD	1294869	wordpools/wasnorm_wordpool_less_exclusions.txt	LTP208	ltpFR	1	13	n/a	CONTRACTOR	369	n/a	n/a	n/a	n/a	n/a	n/a	n/a
2592.322	n/a	REC_WORD	1296161	wordpools/wasnorm_wordpool_less_exclusions.txt	LTP208	ltpFR	1	13	n/a	CONDUCTOR	362	n/a	n/a	n/a	n/a	n/a	n/a	n/a
2597.606	n/a	REC_WORD	1298803	wordpools/wasnorm_wordpool_less_exclusions.txt	LTP208	ltpFR	1	13	-1	PORCH	1106	n/a	-1	n/a	n/a	n/a	n/a	n/a
2601.104	n/a	REC_WORD	1300552	wordpools/wasnorm_wordpool_less_exclusions.txt	LTP208	ltpFR	1	13	n/a	GARDEN	623	n/a	n/a	n/a	n/a	n/a	n/a	n/a
2653.85	n/a	WORD	1326925	wordpools/wasnorm_wordpool_less_exclusions.txt	LTP208	ltpFR	1	14	1	CROCODILE	411	n/a	2	1	0.412841796875	0.57763671875	lower	../fonts/amplitud.ttf
2655.948	n/a	KEY_MSG	1327974	n/a	LTP208	ltpFR	1	14	n/a	n/a	n/a	n/a	n/a	n/a	n/a	n/a	n/a	n/a
2658.624	n/a	WORD	1329312	wordpools/wasnorm_wordpool_less_exclusions.txt	LTP208	ltpFR	1	14	1	REPORT	1184	n/a	0	1	0.412841796875	0.57763671875	lower	../fonts/amplitud.ttf
2662.54	n/a	WORD	1331270	wordpools/wasnorm_wordpool_less_exclusions.txt	LTP208	ltpFR	1	14	1	WRENCH	1625	n/a	0	1	0.412841796875	0.57763671875	lower	../fonts/amplitud.ttf
2666.538	n/a	WORD	1333269	wordpools/wasnorm_wordpool_less_exclusions.txt	LTP208	ltpFR	1	14	1	COLLEGE	346	n/a	0	1	0.412841796875	0.57763671875	lower	../fonts/amplitud.ttf
2670.438	n/a	WORD	1335219	wordpools/wasnorm_wordpool_less_exclusions.txt	LTP208	ltpFR	1	14	1	PEARL	1034	n/a	0	1	0.412841796875	0.57763671875	lower	../fonts/amplitud.ttf
2674.468	n/a	WORD	1337234	wordpools/wasnorm_wordpool_less_exclusions.txt	LTP208	ltpFR	1	14	1	EMERALD	528	n/a	0	1	0.412841796875	0.57763671875	lower	../fonts/amplitud.ttf
2678.45	n/a	WORD	1339225	wordpools/wasnorm_wordpool_less_exclusions.txt	LTP208	ltpFR	1	14	1	BUILDING	191	n/a	0	1	0.412841796875	0.57763671875	lower	../fonts/amplitud.ttf
2682.526	n/a	WORD	1341263	wordpools/wasnorm_wordpool_less_exclusions.txt	LTP208	ltpFR	1	14	1	SUBURB	1399	n/a	0	1	0.412841796875	0.57763671875	lower	../fonts/amplitud.ttf
2686.632	n/a	WORD	1343316	wordpools/wasnorm_wordpool_less_exclusions.txt	LTP208	ltpFR	1	14	1	CLIPPERS	324	n/a	0	1	0.412841796875	0.57763671875	lower	../fonts/amplitud.ttf
2690.63	n/a	WORD	1345315	wordpools/wasnorm_wordpool_less_exclusions.txt	LTP208	ltpFR	1	14	1	SQUID	1361	n/a	1	1	0.412841796875	0.57763671875	lower	../fonts/amplitud.ttf
2694.746	n/a	WORD	1347373	wordpools/wasnorm_wordpool_less_exclusions.txt	LTP208	ltpFR	1	14	1	SCAPEGOAT	1244	n/a	1	1	0.412841796875	0.57763671875	lower	../fonts/amplitud.ttf
2698.622	n/a	WORD	1349311	wordpools/wasnorm_wordpool_less_exclusions.txt	LTP208	ltpFR	1	14	1	PAPER	1011	n/a	0	1	0.412841796875	0.57763671875	lower	../fonts/amplitud.ttf
2702.638	n/a	WORD	1351319	wordpools/wasnorm_wordpool_less_exclusions.txt	LTP208	ltpFR	1	14	1	TEACHER	1440	n/a	1	1	0.412841796875	0.57763671875	lower	../fonts/amplitud.ttf
2706.742	n/a	WORD	1353371	wordpools/wasnorm_wordpool_less_exclusions.txt	LTP208	ltpFR	1	14	1	CARPENTER	246	n/a	1	1	0.412841796875	0.57763671875	lower	../fonts/amplitud.ttf
2710.942	n/a	WORD	1355471	wordpools/wasnorm_wordpool_less_exclusions.txt	LTP208	ltpFR	1	14	1	TOOL	1480	n/a	0	1	0.412841796875	0.57763671875	lower	../fonts/amplitud.ttf
2714.924	n/a	WORD	1357462	wordpools/wasnorm_wordpool_less_exclusions.txt	LTP208	ltpFR	1	14	1	MOAT	903	n/a	0	1	0.412841796875	0.57763671875	lower	../fonts/amplitud.ttf
2720.614	n/a	REC_START	1360307	n/a	LTP208	ltpFR	1	14	n/a	n/a	n/a	n/a	n/a	n/a	n/a	n/a	n/a	n/a
2721.282	n/a	REC_WORD	1360641	wordpools/wasnorm_wordpool_less_exclusions.txt	LTP208	ltpFR	1	14	1	TEACHER	1440	n/a	1	n/a	n/a	n/a	n/a	n/a
2722.17	n/a	REC_WORD	1361085	wordpools/wasnorm_wordpool_less_exclusions.txt	LTP208	ltpFR	1	14	1	CARPENTER	246	n/a	1	n/a	n/a	n/a	n/a	n/a
2723.148	n/a	REC_WORD	1361574	wordpools/wasnorm_wordpool_less_exclusions.txt	LTP208	ltpFR	1	14	1	MOAT	903	n/a	0	n/a	n/a	n/a	n/a	n/a
2724.29	n/a	REC_WORD	1362145	wordpools/wasnorm_wordpool_less_exclusions.txt	LTP208	ltpFR	1	14	1	TOOL	1480	n/a	0	n/a	n/a	n/a	n/a	n/a
2727.024	n/a	REC_WORD	1363512	wordpools/wasnorm_wordpool_less_exclusions.txt	LTP208	ltpFR	1	14	n/a	PENCIL	1042	n/a	n/a	n/a	n/a	n/a	n/a	n/a
2731.778	n/a	REC_WORD_VV	1365889	wordpools/wasnorm_wordpool_less_exclusions.txt	LTP208	ltpFR	1	14	n/a	<>	-1	n/a	n/a	n/a	n/a	n/a	n/a	n/a
2742.71	n/a	REC_WORD	1371355	wordpools/wasnorm_wordpool_less_exclusions.txt	LTP208	ltpFR	1	14	1	TOOL	1480	n/a	0	n/a	n/a	n/a	n/a	n/a
2745.702	n/a	REC_WORD	1372851	wordpools/wasnorm_wordpool_less_exclusions.txt	LTP208	ltpFR	1	14	1	WRENCH	1625	n/a	0	n/a	n/a	n/a	n/a	n/a
2750.012	n/a	REC_WORD	1375006	wordpools/wasnorm_wordpool_less_exclusions.txt	LTP208	ltpFR	1	14	1	MOAT	903	n/a	0	n/a	n/a	n/a	n/a	n/a
2785.744	n/a	REC_WORD	1392872	wordpools/wasnorm_wordpool_less_exclusions.txt	LTP208	ltpFR	1	14	-1	VEAL	1551	n/a	-1	n/a	n/a	n/a	n/a	n/a
2803.546	n/a	WORD	1401773	wordpools/wasnorm_wordpool_less_exclusions.txt	LTP208	ltpFR	1	15	0	BROOK	177	n/a	1	0	0.5869140625	0.422607421875	upper	../fonts/zerothre.ttf
2807.528	n/a	WORD	1403764	wordpools/wasnorm_wordpool_less_exclusions.txt	LTP208	ltpFR	1	15	0	DAM	436	n/a	1	0	0.5869140625	0.422607421875	upper	../fonts/zerothre.ttf
2811.404	n/a	WORD	1405702	wordpools/wasnorm_wordpool_less_exclusions.txt	LTP208	ltpFR	1	15	0	MAILMAN	858	n/a	1	0	0.5869140625	0.422607421875	upper	../fonts/zerothre.ttf
2815.376	n/a	WORD	1407688	wordpools/wasnorm_wordpool_less_exclusions.txt	LTP208	ltpFR	1	15	0	CLAW	319	n/a	0	0	0.5869140625	0.422607421875	upper	../fonts/zerothre.ttf
2819.55	n/a	WORD	1409775	wordpools/wasnorm_wordpool_less_exclusions.txt	LTP208	ltpFR	1	15	0	LOBSTER	837	n/a	0	0	0.5869140625	0.422607421875	upper	../fonts/zerothre.ttf
2823.522	n/a	WORD	1411761	wordpools/wasnorm_wordpool_less_exclusions.txt	LTP208	ltpFR	1	15	0	FIN	566	n/a	0	0	0.5869140625	0.422607421875	upper	../fonts/zerothre.ttf
2827.438	n/a	WORD	1413719	wordpools/wasnorm_wordpool_less_exclusions.txt	LTP208	ltpFR	1	15	0	BUFFALO	186	n/a	1	0	0.5869140625	0.422607421875	upper	../fonts/zerothre.ttf
2831.43	n/a	WORD	1415715	wordpools/wasnorm_wordpool_less_exclusions.txt	LTP208	ltpFR	1	15	0	PARCEL	1012	n/a	0	0	0.5869140625	0.422607421875	upper	../fonts/zerothre.ttf
2835.534	n/a	WORD	1417767	wordpools/wasnorm_wordpool_less_exclusions.txt	LTP208	ltpFR	1	15	0	IRON	744	n/a	0	0	0.5869140625	0.422607421875	upper	../fonts/zerothre.ttf
2839.434	n/a	WORD	1419717	wordpools/wasnorm_wordpool_less_exclusions.txt	LTP208	ltpFR	1	15	0	HOUND	724	n/a	0	0	0.5869140625	0.422607421875	upper	../fonts/zerothre.ttf
2843.366	n/a	WORD	1421683	wordpools/wasnorm_wordpool_less_exclusions.txt	LTP208	ltpFR	1	15	0	BOXER	160	n/a	1	0	0.5869140625	0.422607421875	upper	../fonts/zerothre.ttf
2847.324	n/a	WORD	1423662	wordpools/wasnorm_wordpool_less_exclusions.txt	LTP208	ltpFR	1	15	0	FIREPLACE	570	n/a	1	0	0.5869140625	0.422607421875	upper	../fonts/zerothre.ttf
2851.34	n/a	WORD	1425670	wordpools/wasnorm_wordpool_less_exclusions.txt	LTP208	ltpFR	1	15	0	LIGHTER	819	n/a	0	0	0.5869140625	0.422607421875	upper	../fonts/zerothre.ttf
2855.294	n/a	WORD	1427647	wordpools/wasnorm_wordpool_less_exclusions.txt	LTP208	ltpFR	1	15	0	KIDNEY	776	n/a	0	0	0.5869140625	0.422607421875	upper	../fonts/zerothre.ttf
2859.492	n/a	WORD	1429746	wordpools/wasnorm_wordpool_less_exclusions.txt	LTP208	ltpFR	1	15	0	ARTICLE	42	n/a	0	0	0.5869140625	0.422607421875	upper	../fonts/zerothre.ttf
2863.442	n/a	WORD	1431721	wordpools/wasnorm_wordpool_less_exclusions.txt	LTP208	ltpFR	1	15	0	TUNA	1518	n/a	0	0	0.5869140625	0.422607421875	upper	../fonts/zerothre.ttf
2869.558	n/a	REC_START	1434779	n/a	LTP208	ltpFR	1	15	n/a	n/a	n/a	n/a	n/a	n/a	n/a	n/a	n/a	n/a
2870.596	n/a	REC_WORD	1435298	wordpools/wasnorm_wordpool_less_exclusions.txt	LTP208	ltpFR	1	15	0	TUNA	1518	n/a	0	n/a	n/a	n/a	n/a	n/a
2871.52	n/a	REC_WORD	1435760	wordpools/wasnorm_wordpool_less_exclusions.txt	LTP208	ltpFR	1	15	n/a	POSTMAN	-1	n/a	n/a	n/a	n/a	n/a	n/a	n/a
2872.428	n/a	REC_WORD	1436214	wordpools/wasnorm_wordpool_less_exclusions.txt	LTP208	ltpFR	1	15	0	PARCEL	1012	n/a	0	n/a	n/a	n/a	n/a	n/a
2873.75	n/a	REC_WORD	1436875	wordpools/wasnorm_wordpool_less_exclusions.txt	LTP208	ltpFR	1	15	0	ARTICLE	42	n/a	0	n/a	n/a	n/a	n/a	n/a
2877.654	n/a	REC_WORD_VV	1438827	wordpools/wasnorm_wordpool_less_exclusions.txt	LTP208	ltpFR	1	15	n/a	<>	-1	n/a	n/a	n/a	n/a	n/a	n/a	n/a
2883.842	n/a	REC_WORD	1441921	wordpools/wasnorm_wordpool_less_exclusions.txt	LTP208	ltpFR	1	15	0	TUNA	1518	n/a	0	n/a	n/a	n/a	n/a	n/a
2898.406	n/a	REC_WORD_VV	1449203	wordpools/wasnorm_wordpool_less_exclusions.txt	LTP208	ltpFR	1	15	n/a	<>	-1	n/a	n/a	n/a	n/a	n/a	n/a	n/a
2901.268	n/a	REC_WORD	1450634	wordpools/wasnorm_wordpool_less_exclusions.txt	LTP208	ltpFR	1	15	0	ELK	526	n/a	1	n/a	n/a	n/a	n/a	n/a
2902.112	n/a	REC_WORD	1451056	wordpools/wasnorm_wordpool_less_exclusions.txt	LTP208	ltpFR	1	15	0	BUFFALO	186	n/a	1	n/a	n/a	n/a	n/a	n/a
2914.214	n/a	REC_WORD	1457107	wordpools/wasnorm_wordpool_less_exclusions.txt	LTP208	ltpFR	1	15	n/a	THIN	-1	n/a	n/a	n/a	n/a	n/a	n/a	n/a
2922.2	n/a	REC_WORD	1461100	wordpools/wasnorm_wordpool_less_exclusions.txt	LTP208	ltpFR	1	15	1	FLIPPER	580	n/a	1	n/a	n/a	n/a	n/a	n/a
2950.736	n/a	WORD	1475368	wordpools/wasnorm_wordpool_less_exclusions.txt	LTP208	ltpFR	1	16	0	WORKER	1621	n/a	1	0	0.5869140625	0.422607421875	upper	../fonts/zerothre.ttf
2954.622	n/a	WORD	1477311	wordpools/wasnorm_wordpool_less_exclusions.txt	LTP208	ltpFR	1	16	0	MANAGER	863	n/a	1	0	0.5869140625	0.422607421875	upper	../fonts/zerothre.ttf
2958.732	n/a	WORD	1479366	wordpools/wasnorm_wordpool_less_exclusions.txt	LTP208	ltpFR	1	16	1	HEAD	695	n/a	1	1	0.412841796875	0.57763671875	lower	../fonts/amplitud.ttf
2962.736	n/a	WORD	1481368	wordpools/wasnorm_wordpool_less_exclusions.txt	LTP208	ltpFR	1	16	1	SHEPHERD	1283	n/a	1	1	0.412841796875	0.57763671875	lower	../fonts/amplitud.ttf
2966.83	n/a	WORD	1483415	wordpools/wasnorm_wordpool_less_exclusions.txt	LTP208	ltpFR	1	16	1	BISCUIT	130	n/a	0	1	0.412841796875	0.57763671875	lower	../fonts/amplitud.ttf
2970.784	n/a	WORD	1485392	wordpools/wasnorm_wordpool_less_exclusions.txt	LTP208	ltpFR	1	16	1	CRYSTAL	418	n/a	0	1	0.412841796875	0.57763671875	lower	../fonts/amplitud.ttf
2974.7	n/a	WORD	1487350	wordpools/wasnorm_wordpool_less_exclusions.txt	LTP208	ltpFR	1	16	0	BOWL	158	n/a	0	0	0.5869140625	0.422607421875	upper	../fonts/zerothre.ttf
2978.866	n/a	WORD	1489433	wordpools/wasnorm_wordpool_less_exclusions.txt	LTP208	ltpFR	1	16	0	PERSONNEL	1053	n/a	1	0	0.5869140625	0.422607421875	upper	../fonts/zerothre.ttf
2983.016	n/a	WORD	1491508	wordpools/wasnorm_wordpool_less_exclusions.txt	LTP208	ltpFR	1	16	0	NAPKIN	937	n/a	1	0	0.5869140625	0.422607421875	upper	../fonts/zerothre.ttf
2987.026	n/a	WORD	1493513	wordpools/wasnorm_wordpool_less_exclusions.txt	LTP208	ltpFR	1	16	0	NOTEBOOK	959	n/a	0	0	0.5869140625	0.422607421875	upper	../fonts/zerothre.ttf
2990.946	n/a	WORD	1495473	wordpools/wasnorm_wordpool_less_exclusions.txt	LTP208	ltpFR	1	16	1	RAM	1165	n/a	1	1	0.412841796875	0.57763671875	lower	../fonts/amplitud.ttf
2995.172	n/a	WORD	1497586	wordpools/wasnorm_wordpool_less_exclusions.txt	LTP208	ltpFR	1	16	1	COMMUNITY	356	n/a	3	1	0.412841796875	0.57763671875	lower	../fonts/amplitud.ttf
2996.634	n/a	KEY_MSG	1498317	n/a	LTP208	ltpFR	1	16	n/a	n/a	n/a	n/a	n/a	n/a	n/a	n/a	n/a	n/a
2999.026	n/a	WORD	1499513	wordpools/wasnorm_wordpool_less_exclusions.txt	LTP208	ltpFR	1	16	1	PEANUT	1032	n/a	0	1	0.412841796875	0.57763671875	lower	../fonts/amplitud.ttf
3003.138	n/a	WORD	1501569	wordpools/wasnorm_wordpool_less_exclusions.txt	LTP208	ltpFR	1	16	1	EAR	513	n/a	1	1	0.412841796875	0.57763671875	lower	../fonts/amplitud.ttf
3007.042	n/a	WORD	1503521	wordpools/wasnorm_wordpool_less_exclusions.txt	LTP208	ltpFR	1	16	0	CROWN	415	n/a	1	0	0.5869140625	0.422607421875	upper	../fonts/zerothre.ttf
3010.904	n/a	WORD	1505452	wordpools/wasnorm_wordpool_less_exclusions.txt	LTP208	ltpFR	1	16	0	HUT	729	n/a	1	0	0.5869140625	0.422607421875	upper	../fonts/zerothre.ttf
3016.812	n/a	REC_START	1508406	n/a	LTP208	ltpFR	1	16	n/a	n/a	n/a	n/a	n/a	n/a	n/a	n/a	n/a	n/a
3017.714	n/a	REC_WORD	1508857	wordpools/wasnorm_wordpool_less_exclusions.txt	LTP208	ltpFR	1	16	0	HUT	729	n/a	1	n/a	n/a	n/a	n/a	n/a
3023.198	n/a	REC_WORD_VV	1511599	wordpools/wasnorm_wordpool_less_exclusions.txt	LTP208	ltpFR	1	16	n/a	<>	-1	n/a	n/a	n/a	n/a	n/a	n/a	n/a
3030.362	n/a	REC_WORD	1515181	wordpools/wasnorm_wordpool_less_exclusions.txt	LTP208	ltpFR	1	16	0	CROWN	415	n/a	1	n/a	n/a	n/a	n/a	n/a
3038.226	n/a	REC_WORD_VV	1519113	wordpools/wasnorm_wordpool_less_exclusions.txt	LTP208	ltpFR	1	16	n/a	<>	-1	n/a	n/a	n/a	n/a	n/a	n/a	n/a
3039.98	n/a	REC_WORD	1519990	wordpools/wasnorm_wordpool_less_exclusions.txt	LTP208	ltpFR	1	16	n/a	COTTAGE	384	n/a	n/a	n/a	n/a	n/a	n/a	n/a
3047.1	n/a	REC_WORD	1523550	wordpools/wasnorm_wordpool_less_exclusions.txt	LTP208	ltpFR	1	16	n/a	CREAM	402	n/a	n/a	n/a	n/a	n/a	n/a	n/a
3055.924	n/a	REC_WORD	1527962	wordpools/wasnorm_wordpool_less_exclusions.txt	LTP208	ltpFR	1	16	1	COMMUNITY	356	n/a	3	n/a	n/a	n/a	n/a	n/a
3062.146	n/a	REC_WORD	1531073	wordpools/wasnorm_wordpool_less_exclusions.txt	LTP208	ltpFR	1	16	1	PEARL	1034	n/a	0	n/a	n/a	n/a	n/a	n/a
3063.558	n/a	REC_WORD	1531779	wordpools/wasnorm_wordpool_less_exclusions.txt	LTP208	ltpFR	1	16	1	EMERALD	528	n/a	0	n/a	n/a	n/a	n/a	n/a
3167.654	n/a	REC_START	1583827	n/a	LTP208	ltpFR	1	1	n/a	n/a	n/a	n/a	n/a	n/a	n/a	n/a	n/a	n/a
3167.704	n/a	RECOG_TARGET	1583852	n/a	LTP208	ltpFR	1	1	1	COUSIN	392	5	1	n/a	n/a	n/a	n/a	n/a
3169.664	n/a	RECOG_RESP	1584832	n/a	LTP208	ltpFR	1	1	1	COUSIN	392	n/a	1	n/a	n/a	n/a	n/a	n/a
3171.042	n/a	RECOG_CONF	1585521	n/a	LTP208	ltpFR	1	1	1	COUSIN	392	5	1	n/a	n/a	n/a	n/a	n/a
3172.976	n/a	RECOG_LURE	1586488	n/a	LTP208	ltpFR	1	1	n/a	BOUILLON	154	4	n/a	n/a	n/a	n/a	n/a	n/a
3174.644	n/a	RECOG_RESP	1587322	n/a	LTP208	ltpFR	1	1	n/a	BOUILLON	154	n/a	n/a	n/a	n/a	n/a	n/a	n/a
3176.062	n/a	RECOG_CONF	1588031	n/a	LTP208	ltpFR	1	1	n/a	BOUILLON	154	4	n/a	n/a	n/a	n/a	n/a	n/a
3177.636	n/a	RECOG_LURE	1588818	n/a	LTP208	ltpFR	1	1	n/a	JELLY	755	4	n/a	n/a	n/a	n/a	n/a	n/a
3179.214	n/a	RECOG_RESP	1589607	n/a	LTP208	ltpFR	1	1	n/a	JELLY	755	n/a	n/a	n/a	n/a	n/a	n/a	n/a
3180.312	n/a	RECOG_CONF	1590156	n/a	LTP208	ltpFR	1	1	n/a	JELLY	755	4	n/a	n/a	n/a	n/a	n/a	n/a
3181.64	n/a	RECOG_TARGET	1590820	n/a	LTP208	ltpFR	1	1	-1	PLANT	1083	5	-1	n/a	n/a	n/a	n/a	n/a
3183.49	n/a	RECOG_RESP	1591745	n/a	LTP208	ltpFR	1	1	-1	PLANT	1083	n/a	-1	n/a	n/a	n/a	n/a	n/a
3184.412	n/a	RECOG_CONF	1592206	n/a	LTP208	ltpFR	1	1	-1	PLANT	1083	5	-1	n/a	n/a	n/a	n/a	n/a
3186.024	n/a	RECOG_TARGET	1593012	n/a	LTP208	ltpFR	1	1	1	VEGETABLE	1552	4	1	n/a	n/a	n/a	n/a	n/a
3187.66	n/a	RECOG_RESP	1593830	n/a	LTP208	ltpFR	1	1	1	VEGETABLE	1552	n/a	1	n/a	n/a	n/a	n/a	n/a
3188.774	n/a	RECOG_CONF	1594387	n/a	LTP208	ltpFR	1	1	1	VEGETABLE	1552	4	1	n/a	n/a	n/a	n/a	n/a
3190.308	n/a	RECOG_LURE	1595154	n/a	LTP208	ltpFR	1	1	n/a	OATS	968	4	n/a	n/a	n/a	n/a	n/a	n/a
3191.862	n/a	RECOG_RESP	1595931	n/a	LTP208	ltpFR	1	1	n/a	OATS	968	n/a	n/a	n/a	n/a	n/a	n/a	n/a
3192.694	n/a	RECOG_CONF	1596347	n/a	LTP208	ltpFR	1	1	n/a	OATS	968	4	n/a	n/a	n/a	n/a	n/a	n/a
3194.09	n/a	RECOG_LURE	1597045	n/a	LTP208	ltpFR	1	1	n/a	PICK	1058	4	n/a	n/a	n/a	n/a	n/a	n/a
3195.966	n/a	RECOG_RESP	1597983	n/a	LTP208	ltpFR	1	1	n/a	PICK	1058	n/a	n/a	n/a	n/a	n/a	n/a	n/a
3196.636	n/a	RECOG_CONF	1598318	n/a	LTP208	ltpFR	1	1	n/a	PICK	1058	4	n/a	n/a	n/a	n/a	n/a	n/a
3198.388	n/a	RECOG_TARGET	1599194	n/a	LTP208	ltpFR	1	1	0	BOX	159	4	0	n/a	n/a	n/a	n/a	n/a
3200.182	n/a	RECOG_RESP	1600091	n/a	LTP208	ltpFR	1	1	0	BOX	159	n/a	0	n/a	n/a	n/a	n/a	n/a
3201.146	n/a	RECOG_CONF	1600573	n/a	LTP208	ltpFR	1	1	0	BOX	159	4	0	n/a	n/a	n/a	n/a	n/a
3202.888	n/a	RECOG_TARGET	1601444	n/a	LTP208	ltpFR	1	1	0	FLEET	578	5	1	n/a	n/a	n/a	n/a	n/a
3204.766	n/a	RECOG_RESP	1602383	n/a	LTP208	ltpFR	1	1	0	FLEET	578	n/a	1	n/a	n/a	n/a	n/a	n/a
3205.516	n/a	RECOG_CONF	1602758	n/a	LTP208	ltpFR	1	1	0	FLEET	578	5	1	n/a	n/a	n/a	n/a	n/a
3207.082	n/a	RECOG_TARGET	1603541	n/a	LTP208	ltpFR	1	1	1	NOTE	958	5	2	n/a	n/a	n/a	n/a	n/a
3208.498	n/a	RECOG_RESP	1604249	n/a	LTP208	ltpFR	1	1	1	NOTE	958	n/a	2	n/a	n/a	n/a	n/a	n/a
3209.348	n/a	RECOG_CONF	1604674	n/a	LTP208	ltpFR	1	1	1	NOTE	958	5	2	n/a	n/a	n/a	n/a	n/a
3210.92	n/a	RECOG_TARGET	1605460	n/a	LTP208	ltpFR	1	1	1	COLLEGE	346	5	0	n/a	n/a	n/a	n/a	n/a
3211.952	n/a	RECOG_RESP	1605976	n/a	LTP208	ltpFR	1	1	1	COLLEGE	346	n/a	0	n/a	n/a	n/a	n/a	n/a
3212.68	n/a	RECOG_CONF	1606340	n/a	LTP208	ltpFR	1	1	1	COLLEGE	346	5	0	n/a	n/a	n/a	n/a	n/a
3214.4	n/a	RECOG_LURE	1607200	n/a	LTP208	ltpFR	1	1	n/a	CHICK	296	4	n/a	n/a	n/a	n/a	n/a	n/a
3215.812	n/a	RECOG_RESP	1607906	n/a	LTP208	ltpFR	1	1	n/a	CHICK	296	n/a	n/a	n/a	n/a	n/a	n/a	n/a
3216.77	n/a	RECOG_CONF	1608385	n/a	LTP208	ltpFR	1	1	n/a	CHICK	296	4	n/a	n/a	n/a	n/a	n/a	n/a
3218.08	n/a	RECOG_TARGET	1609040	n/a	LTP208	ltpFR	1	1	-1	SNORKEL	1336	5	-1	n/a	n/a	n/a	n/a	n/a
3219.22	n/a	RECOG_RESP	1609610	n/a	LTP208	ltpFR	1	1	-1	SNORKEL	1336	n/a	-1	n/a	n/a	n/a	n/a	n/a
3220.134	n/a	RECOG_CONF	1610067	n/a	LTP208	ltpFR	1	1	-1	SNORKEL	1336	5	-1	n/a	n/a	n/a	n/a	n/a
3221.928	n/a	RECOG_TARGET	1610964	n/a	LTP208	ltpFR	1	1	0	FISH	571	5	0	n/a	n/a	n/a	n/a	n/a
3222.856	n/a	RECOG_RESP	1611428	n/a	LTP208	ltpFR	1	1	0	FISH	571	n/a	0	n/a	n/a	n/a	n/a	n/a
3223.784	n/a	RECOG_CONF	1611892	n/a	LTP208	ltpFR	1	1	0	FISH	571	5	0	n/a	n/a	n/a	n/a	n/a
3225.568	n/a	RECOG_LURE	1612784	n/a	LTP208	ltpFR	1	1	n/a	CHAPEL	280	5	n/a	n/a	n/a	n/a	n/a	n/a
3226.4	n/a	RECOG_RESP	1613200	n/a	LTP208	ltpFR	1	1	n/a	CHAPEL	280	n/a	n/a	n/a	n/a	n/a	n/a	n/a
3227.428	n/a	RECOG_CONF	1613714	n/a	LTP208	ltpFR	1	1	n/a	CHAPEL	280	5	n/a	n/a	n/a	n/a	n/a	n/a
3229.206	n/a	RECOG_TARGET	1614603	n/a	LTP208	ltpFR	1	1	0	CLAW	319	4	0	n/a	n/a	n/a	n/a	n/a
3230.006	n/a	RECOG_RESP	1615003	n/a	LTP208	ltpFR	1	1	0	CLAW	319	n/a	0	n/a	n/a	n/a	n/a	n/a
3231.09	n/a	RECOG_CONF	1615545	n/a	LTP208	ltpFR	1	1	0	CLAW	319	4	0	n/a	n/a	n/a	n/a	n/a
3232.988	n/a	RECOG_TARGET	1616494	n/a	LTP208	ltpFR	1	1	0	TURKEY	1520	5	1	n/a	n/a	n/a	n/a	n/a
3233.634	n/a	RECOG_RESP	1616817	n/a	LTP208	ltpFR	1	1	0	TURKEY	1520	n/a	1	n/a	n/a	n/a	n/a	n/a
3234.382	n/a	RECOG_CONF	1617191	n/a	LTP208	ltpFR	1	1	0	TURKEY	1520	5	1	n/a	n/a	n/a	n/a	n/a
3236.11	n/a	RECOG_LURE	1618055	n/a	LTP208	ltpFR	1	1	n/a	DRESS	495	5	n/a	n/a	n/a	n/a	n/a	n/a
3236.9	n/a	RECOG_RESP	1618450	n/a	LTP208	ltpFR	1	1	n/a	DRESS	495	n/a	n/a	n/a	n/a	n/a	n/a	n/a
3237.804	n/a	RECOG_CONF	1618902	n/a	LTP208	ltpFR	1	1	n/a	DRESS	495	5	n/a	n/a	n/a	n/a	n/a	n/a
3239.628	n/a	RECOG_TARGET	1619814	n/a	LTP208	ltpFR	1	1	0	TUNA	1518	5	0	n/a	n/a	n/a	n/a	n/a
3240.398	n/a	RECOG_RESP	1620199	n/a	LTP208	ltpFR	1	1	0	TUNA	1518	n/a	0	n/a	n/a	n/a	n/a	n/a
3241.186	n/a	RECOG_CONF	1620593	n/a	LTP208	ltpFR	1	1	0	TUNA	1518	5	0	n/a	n/a	n/a	n/a	n/a
3242.5	n/a	RECOG_LURE	1621250	n/a	LTP208	ltpFR	1	1	n/a	SCARF	1246	5	n/a	n/a	n/a	n/a	n/a	n/a
3243.606	n/a	RECOG_RESP	1621803	n/a	LTP208	ltpFR	1	1	n/a	SCARF	1246	n/a	n/a	n/a	n/a	n/a	n/a	n/a
3244.468	n/a	RECOG_CONF	1622234	n/a	LTP208	ltpFR	1	1	n/a	SCARF	1246	5	n/a	n/a	n/a	n/a	n/a	n/a
3250.32	n/a	REC_START	1625160	n/a	LTP208	ltpFR	1	2	n/a	n/a	n/a	n/a	n/a	n/a	n/a	n/a	n/a	n/a
3250.372	n/a	RECOG_TARGET	1625186	n/a	LTP208	ltpFR	1	2	-1	CONCERT	360	5	-1	n/a	n/a	n/a	n/a	n/a
3251.652	n/a	RECOG_RESP	1625826	n/a	LTP208	ltpFR	1	2	-1	CONCERT	360	n/a	-1	n/a	n/a	n/a	n/a	n/a
3252.46	n/a	RECOG_CONF	1626230	n/a	LTP208	ltpFR	1	2	-1	CONCERT	360	5	-1	n/a	n/a	n/a	n/a	n/a
3253.76	n/a	RECOG_TARGET	1626880	n/a	LTP208	ltpFR	1	2	1	CLIPPERS	324	5	0	n/a	n/a	n/a	n/a	n/a
3254.824	n/a	RECOG_RESP	1627412	n/a	LTP208	ltpFR	1	2	1	CLIPPERS	324	n/a	0	n/a	n/a	n/a	n/a	n/a
3255.802	n/a	RECOG_CONF	1627901	n/a	LTP208	ltpFR	1	2	1	CLIPPERS	324	5	0	n/a	n/a	n/a	n/a	n/a
3257.458	n/a	RECOG_LURE	1628729	n/a	LTP208	ltpFR	1	2	n/a	SHOULDER	1294	4	n/a	n/a	n/a	n/a	n/a	n/a
3259.204	n/a	RECOG_RESP	1629602	n/a	LTP208	ltpFR	1	2	n/a	SHOULDER	1294	n/a	n/a	n/a	n/a	n/a	n/a	n/a
3260.022	n/a	RECOG_CONF	1630011	n/a	LTP208	ltpFR	1	2	n/a	SHOULDER	1294	4	n/a	n/a	n/a	n/a	n/a	n/a
3261.84	n/a	RECOG_TARGET	1630920	n/a	LTP208	ltpFR	1	2	1	RAM	1165	5	1	n/a	n/a	n/a	n/a	n/a
3262.742	n/a	RECOG_RESP	1631371	n/a	LTP208	ltpFR	1	2	1	RAM	1165	n/a	1	n/a	n/a	n/a	n/a	n/a
3263.974	n/a	RECOG_CONF	1631987	n/a	LTP208	ltpFR	1	2	1	RAM	1165	5	1	n/a	n/a	n/a	n/a	n/a
3265.896	n/a	RECOG_LURE	1632948	n/a	LTP208	ltpFR	1	2	n/a	GLACIER	638	4	n/a	n/a	n/a	n/a	n/a	n/a
3267.402	n/a	RECOG_RESP	1633701	n/a	LTP208	ltpFR	1	2	n/a	GLACIER	638	n/a	n/a	n/a	n/a	n/a	n/a	n/a
3268.434	n/a	RECOG_CONF	1634217	n/a	LTP208	ltpFR	1	2	n/a	GLACIER	638	4	n/a	n/a	n/a	n/a	n/a	n/a
3270.364	n/a	RECOG_TARGET	1635182	n/a	LTP208	ltpFR	1	2	1	EAGLE	512	4	1	n/a	n/a	n/a	n/a	n/a
3271.212	n/a	RECOG_RESP	1635606	n/a	LTP208	ltpFR	1	2	1	EAGLE	512	n/a	1	n/a	n/a	n/a	n/a	n/a
3272.366	n/a	RECOG_CONF	1636183	n/a	LTP208	ltpFR	1	2	1	EAGLE	512	4	1	n/a	n/a	n/a	n/a	n/a
3274.34	n/a	RECOG_TARGET	1637170	n/a	LTP208	ltpFR	1	2	1	EMERALD	528	5	0	n/a	n/a	n/a	n/a	n/a
3275.284	n/a	RECOG_RESP	1637642	n/a	LTP208	ltpFR	1	2	1	EMERALD	528	n/a	0	n/a	n/a	n/a	n/a	n/a
3276.616	n/a	RECOG_CONF	1638308	n/a	LTP208	ltpFR	1	2	1	EMERALD	528	5	0	n/a	n/a	n/a	n/a	n/a
3278.604	n/a	RECOG_TARGET	1639302	n/a	LTP208	ltpFR	1	2	1	PALACE	1006	5	1	n/a	n/a	n/a	n/a	n/a
3279.34	n/a	RECOG_RESP	1639670	n/a	LTP208	ltpFR	1	2	1	PALACE	1006	n/a	1	n/a	n/a	n/a	n/a	n/a
3280.368	n/a	RECOG_CONF	1640184	n/a	LTP208	ltpFR	1	2	1	PALACE	1006	5	1	n/a	n/a	n/a	n/a	n/a
3282.41	n/a	RECOG_LURE	1641205	n/a	LTP208	ltpFR	1	2	n/a	AUNT	60	5	n/a	n/a	n/a	n/a	n/a	n/a
3283.146	n/a	RECOG_RESP	1641573	n/a	LTP208	ltpFR	1	2	n/a	AUNT	60	n/a	n/a	n/a	n/a	n/a	n/a	n/a
3284.05	n/a	RECOG_CONF	1642025	n/a	LTP208	ltpFR	1	2	n/a	AUNT	60	5	n/a	n/a	n/a	n/a	n/a	n/a
3285.974	n/a	RECOG_TARGET	1642987	n/a	LTP208	ltpFR	1	2	1	PEANUT	1032	5	0	n/a	n/a	n/a	n/a	n/a
3287.062	n/a	RECOG_RESP	1643531	n/a	LTP208	ltpFR	1	2	1	PEANUT	1032	n/a	0	n/a	n/a	n/a	n/a	n/a
3288.14	n/a	RECOG_CONF	1644070	n/a	LTP208	ltpFR	1	2	1	PEANUT	1032	5	0	n/a	n/a	n/a	n/a	n/a
3290.006	n/a	RECOG_LURE	1645003	n/a	LTP208	ltpFR	1	2	n/a	OUTFIT	988	4	n/a	n/a	n/a	n/a	n/a	n/a
3291.118	n/a	RECOG_RESP	1645559	n/a	LTP208	ltpFR	1	2	n/a	OUTFIT	988	n/a	n/a	n/a	n/a	n/a	n/a	n/a
3292.28	n/a	RECOG_CONF	1646140	n/a	LTP208	ltpFR	1	2	n/a	OUTFIT	988	4	n/a	n/a	n/a	n/a	n/a	n/a
3294.356	n/a	RECOG_TARGET	1647178	n/a	LTP208	ltpFR	1	2	0	HORIZON	717	5	1	n/a	n/a	n/a	n/a	n/a
3295.788	n/a	RECOG_RESP	1647894	n/a	LTP208	ltpFR	1	2	0	HORIZON	717	n/a	1	n/a	n/a	n/a	n/a	n/a
3296.83	n/a	RECOG_CONF	1648415	n/a	LTP208	ltpFR	1	2	0	HORIZON	717	5	1	n/a	n/a	n/a	n/a	n/a
3298.772	n/a	RECOG_LURE	1649386	n/a	LTP208	ltpFR	1	2	n/a	PEDAL	1037	4	n/a	n/a	n/a	n/a	n/a	n/a
3299.894	n/a	RECOG_RESP	1649947	n/a	LTP208	ltpFR	1	2	n/a	PEDAL	1037	n/a	n/a	n/a	n/a	n/a	n/a	n/a
3301.102	n/a	RECOG_CONF	1650551	n/a	LTP208	ltpFR	1	2	n/a	PEDAL	1037	4	n/a	n/a	n/a	n/a	n/a	n/a
3303.022	n/a	RECOG_TARGET	1651511	n/a	LTP208	ltpFR	1	2	0	SWITCH	1422	4	0	n/a	n/a	n/a	n/a	n/a
3303.74	n/a	RECOG_RESP	1651870	n/a	LTP208	ltpFR	1	2	0	SWITCH	1422	n/a	0	n/a	n/a	n/a	n/a	n/a
3305.022	n/a	RECOG_CONF	1652511	n/a	LTP208	ltpFR	1	2	0	SWITCH	1422	4	0	n/a	n/a	n/a	n/a	n/a
3306.886	n/a	RECOG_TARGET	1653443	n/a	LTP208	ltpFR	1	2	-1	PICKLE	1059	5	-1	n/a	n/a	n/a	n/a	n/a
3307.782	n/a	RECOG_RESP	1653891	n/a	LTP208	ltpFR	1	2	-1	PICKLE	1059	n/a	-1	n/a	n/a	n/a	n/a	n/a
3308.724	n/a	RECOG_CONF	1654362	n/a	LTP208	ltpFR	1	2	-1	PICKLE	1059	5	-1	n/a	n/a	n/a	n/a	n/a
3310.01	n/a	RECOG_TARGET	1655005	n/a	LTP208	ltpFR	1	2	1	SARDINE	1235	5	0	n/a	n/a	n/a	n/a	n/a
3310.88	n/a	RECOG_RESP	1655440	n/a	LTP208	ltpFR	1	2	1	SARDINE	1235	n/a	0	n/a	n/a	n/a	n/a	n/a
3312.018	n/a	RECOG_CONF	1656009	n/a	LTP208	ltpFR	1	2	1	SARDINE	1235	5	0	n/a	n/a	n/a	n/a	n/a
3313.878	n/a	RECOG_TARGET	1656939	n/a	LTP208	ltpFR	1	2	0	NIGHTGOWN	953	5	1	n/a	n/a	n/a	n/a	n/a
3314.9	n/a	RECOG_RESP	1657450	n/a	LTP208	ltpFR	1	2	0	NIGHTGOWN	953	n/a	1	n/a	n/a	n/a	n/a	n/a
3316.068	n/a	RECOG_CONF	1658034	n/a	LTP208	ltpFR	1	2	0	NIGHTGOWN	953	5	1	n/a	n/a	n/a	n/a	n/a
3317.946	n/a	RECOG_TARGET	1658973	n/a	LTP208	ltpFR	1	2	1	TUBE	1516	5	3	n/a	n/a	n/a	n/a	n/a
3318.942	n/a	RECOG_RESP	1659471	n/a	LTP208	ltpFR	1	2	1	TUBE	1516	n/a	3	n/a	n/a	n/a	n/a	n/a
3319.97	n/a	RECOG_CONF	1659985	n/a	LTP208	ltpFR	1	2	1	TUBE	1516	5	3	n/a	n/a	n/a	n/a	n/a
3321.92	n/a	RECOG_TARGET	1660960	n/a	LTP208	ltpFR	1	2	1	PAINT	1003	5	0	n/a	n/a	n/a	n/a	n/a
3322.708	n/a	RECOG_RESP	1661354	n/a	LTP208	ltpFR	1	2	1	PAINT	1003	n/a	0	n/a	n/a	n/a	n/a	n/a
3323.692	n/a	RECOG_CONF	1661846	n/a	LTP208	ltpFR	1	2	1	PAINT	1003	5	0	n/a	n/a	n/a	n/a	n/a
3325.584	n/a	RECOG_LURE	1662792	n/a	LTP208	ltpFR	1	2	n/a	XEROX	1628	4	n/a	n/a	n/a	n/a	n/a	n/a
3326.54	n/a	RECOG_RESP	1663270	n/a	LTP208	ltpFR	1	2	n/a	XEROX	1628	n/a	n/a	n/a	n/a	n/a	n/a	n/a
3327.612	n/a	RECOG_CONF	1663806	n/a	LTP208	ltpFR	1	2	n/a	XEROX	1628	4	n/a	n/a	n/a	n/a	n/a	n/a
3333.562	n/a	REC_START	1666781	n/a	LTP208	ltpFR	1	3	n/a	n/a	n/a	n/a	n/a	n/a	n/a	n/a	n/a	n/a
3333.616	n/a	RECOG_TARGET	1666808	n/a	LTP208	ltpFR	1	3	1	TOOL	1480	5	0	n/a	n/a	n/a	n/a	n/a
3335.024	n/a	RECOG_RESP	1667512	n/a	LTP208	ltpFR	1	3	1	TOOL	1480	n/a	0	n/a	n/a	n/a	n/a	n/a
3335.862	n/a	RECOG_CONF	1667931	n/a	LTP208	ltpFR	1	3	1	TOOL	1480	5	0	n/a	n/a	n/a	n/a	n/a
3337.602	n/a	RECOG_TARGET	1668801	n/a	LTP208	ltpFR	1	3	0	PEAR	1033	5	0	n/a	n/a	n/a	n/a	n/a
3338.632	n/a	RECOG_RESP	1669316	n/a	LTP208	ltpFR	1	3	0	PEAR	1033	n/a	0	n/a	n/a	n/a	n/a	n/a
3339.724	n/a	RECOG_CONF	1669862	n/a	LTP208	ltpFR	1	3	0	PEAR	1033	5	0	n/a	n/a	n/a	n/a	n/a
3341.568	n/a	RECOG_TARGET	1670784	n/a	LTP208	ltpFR	1	3	0	TUBA	1515	5	2	n/a	n/a	n/a	n/a	n/a
3342.258	n/a	RECOG_RESP	1671129	n/a	LTP208	ltpFR	1	3	0	TUBA	1515	n/a	2	n/a	n/a	n/a	n/a	n/a
3343.286	n/a	RECOG_CONF	1671643	n/a	LTP208	ltpFR	1	3	0	TUBA	1515	5	2	n/a	n/a	n/a	n/a	n/a
3345.128	n/a	RECOG_LURE	1672564	n/a	LTP208	ltpFR	1	3	n/a	HONEY	713	5	n/a	n/a	n/a	n/a	n/a	n/a
3346.07	n/a	RECOG_RESP	1673035	n/a	LTP208	ltpFR	1	3	n/a	HONEY	713	n/a	n/a	n/a	n/a	n/a	n/a	n/a
3347.178	n/a	RECOG_CONF	1673589	n/a	LTP208	ltpFR	1	3	n/a	HONEY	713	5	n/a	n/a	n/a	n/a	n/a	n/a
3349.114	n/a	RECOG_TARGET	1674557	n/a	LTP208	ltpFR	1	3	0	CLIMBER	323	4	2	n/a	n/a	n/a	n/a	n/a
3350.424	n/a	RECOG_RESP	1675212	n/a	LTP208	ltpFR	1	3	0	CLIMBER	323	n/a	2	n/a	n/a	n/a	n/a	n/a
3351.478	n/a	RECOG_CONF	1675739	n/a	LTP208	ltpFR	1	3	0	CLIMBER	323	4	2	n/a	n/a	n/a	n/a	n/a
3353.38	n/a	RECOG_LURE	1676690	n/a	LTP208	ltpFR	1	3	n/a	BIBLE	124	4	n/a	n/a	n/a	n/a	n/a	n/a
3354.526	n/a	RECOG_RESP	1677263	n/a	LTP208	ltpFR	1	3	n/a	BIBLE	124	n/a	n/a	n/a	n/a	n/a	n/a	n/a
3355.868	n/a	RECOG_CONF	1677934	n/a	LTP208	ltpFR	1	3	n/a	BIBLE	124	4	n/a	n/a	n/a	n/a	n/a	n/a
3357.624	n/a	RECOG_TARGET	1678812	n/a	LTP208	ltpFR	1	3	1	ONION	977	4	0	n/a	n/a	n/a	n/a	n/a
3358.478	n/a	RECOG_RESP	1679239	n/a	LTP208	ltpFR	1	3	1	ONION	977	n/a	0	n/a	n/a	n/a	n/a	n/a
3359.38	n/a	RECOG_CONF	1679690	n/a	LTP208	ltpFR	1	3	1	ONION	977	4	0	n/a	n/a	n/a	n/a	n/a
3361.172	n/a	RECOG_TARGET	1680586	n/a	LTP208	ltpFR	1	3	0	BANJO	82	4	0	n/a	n/a	n/a	n/a	n/a
3362.14	n/a	RECOG_RESP	1681070	n/a	LTP208	ltpFR	1	3	0	BANJO	82	n/a	0	n/a	n/a	n/a	n/a	n/a
3363.062	n/a	RECOG_CONF	1681531	n/a	LTP208	ltpFR	1	3	0	BANJO	82	4	0	n/a	n/a	n/a	n/a	n/a
3364.874	n/a	RECOG_LURE	1682437	n/a	LTP208	ltpFR	1	3	n/a	LEG	809	4	n/a	n/a	n/a	n/a	n/a	n/a
3365.806	n/a	RECOG_RESP	1682903	n/a	LTP208	ltpFR	1	3	n/a	LEG	809	n/a	n/a	n/a	n/a	n/a	n/a	n/a
3367.152	n/a	RECOG_CONF	1683576	n/a	LTP208	ltpFR	1	3	n/a	LEG	809	4	n/a	n/a	n/a	n/a	n/a	n/a
3369.034	n/a	RECOG_TARGET	1684517	n/a	LTP208	ltpFR	1	3	0	SPOOL	1356	4	0	n/a	n/a	n/a	n/a	n/a
3370.086	n/a	RECOG_RESP	1685043	n/a	LTP208	ltpFR	1	3	0	SPOOL	1356	n/a	0	n/a	n/a	n/a	n/a	n/a
3370.974	n/a	RECOG_CONF	1685487	n/a	LTP208	ltpFR	1	3	0	SPOOL	1356	4	0	n/a	n/a	n/a	n/a	n/a
3372.814	n/a	RECOG_TARGET	1686407	n/a	LTP208	ltpFR	1	3	0	WORKER	1621	5	1	n/a	n/a	n/a	n/a	n/a
3373.654	n/a	RECOG_RESP	1686827	n/a	LTP208	ltpFR	1	3	0	WORKER	1621	n/a	1	n/a	n/a	n/a	n/a	n/a
3374.366	n/a	RECOG_CONF	1687183	n/a	LTP208	ltpFR	1	3	0	WORKER	1621	5	1	n/a	n/a	n/a	n/a	n/a
3376.28	n/a	RECOG_TARGET	1688140	n/a	LTP208	ltpFR	1	3	0	ASHTRAY	45	5	0	n/a	n/a	n/a	n/a	n/a
3377.43	n/a	RECOG_RESP	1688715	n/a	LTP208	ltpFR	1	3	0	ASHTRAY	45	n/a	0	n/a	n/a	n/a	n/a	n/a
3378.178	n/a	RECOG_CONF	1689089	n/a	LTP208	ltpFR	1	3	0	ASHTRAY	45	5	0	n/a	n/a	n/a	n/a	n/a
3379.984	n/a	RECOG_LURE	1689992	n/a	LTP208	ltpFR	1	3	n/a	CAVE	263	5	n/a	n/a	n/a	n/a	n/a	n/a
3380.978	n/a	RECOG_RESP	1690489	n/a	LTP208	ltpFR	1	3	n/a	CAVE	263	n/a	n/a	n/a	n/a	n/a	n/a	n/a
3382.39	n/a	RECOG_CONF	1691195	n/a	LTP208	ltpFR	1	3	n/a	CAVE	263	5	n/a	n/a	n/a	n/a	n/a	n/a
3384.232	n/a	RECOG_LURE	1692116	n/a	LTP208	ltpFR	1	3	n/a	BEE	112	4	n/a	n/a	n/a	n/a	n/a	n/a
3385.732	n/a	RECOG_RESP	1692866	n/a	LTP208	ltpFR	1	3	n/a	BEE	112	n/a	n/a	n/a	n/a	n/a	n/a	n/a
3386.71	n/a	RECOG_CONF	1693355	n/a	LTP208	ltpFR	1	3	n/a	BEE	112	4	n/a	n/a	n/a	n/a	n/a	n/a
3388.664	n/a	RECOG_TARGET	1694332	n/a	LTP208	ltpFR	1	3	0	PARCEL	1012	5	0	n/a	n/a	n/a	n/a	n/a
3389.708	n/a	RECOG_RESP	1694854	n/a	LTP208	ltpFR	1	3	0	PARCEL	1012	n/a	0	n/a	n/a	n/a	n/a	n/a
3390.432	n/a	RECOG_CONF	1695216	n/a	LTP208	ltpFR	1	3	0	PARCEL	1012	5	0	n/a	n/a	n/a	n/a	n/a
3392.296	n/a	RECOG_TARGET	1696148	n/a	LTP208	ltpFR	1	3	-1	TREAT	1501	4	-1	n/a	n/a	n/a	n/a	n/a
3393.548	n/a	RECOG_RESP	1696774	n/a	LTP208	ltpFR	1	3	-1	TREAT	1501	n/a	-1	n/a	n/a	n/a	n/a	n/a
3395.162	n/a	RECOG_CONF	1697581	n/a	LTP208	ltpFR	1	3	-1	TREAT	1501	4	-1	n/a	n/a	n/a	n/a	n/a
3397.232	n/a	RECOG_TARGET	1698616	n/a	LTP208	ltpFR	1	3	-1	TIDE	1465	4	-1	n/a	n/a	n/a	n/a	n/a
3398.25	n/a	RECOG_RESP	1699125	n/a	LTP208	ltpFR	1	3	-1	TIDE	1465	n/a	-1	n/a	n/a	n/a	n/a	n/a
3399.122	n/a	RECOG_CONF	1699561	n/a	LTP208	ltpFR	1	3	-1	TIDE	1465	4	-1	n/a	n/a	n/a	n/a	n/a
3401.096	n/a	RECOG_LURE	1700548	n/a	LTP208	ltpFR	1	3	n/a	COMPASS	358	4	n/a	n/a	n/a	n/a	n/a	n/a
3402.156	n/a	RECOG_RESP	1701078	n/a	LTP208	ltpFR	1	3	n/a	COMPASS	358	n/a	n/a	n/a	n/a	n/a	n/a	n/a
3403.024	n/a	RECOG_CONF	1701512	n/a	LTP208	ltpFR	1	3	n/a	COMPASS	358	4	n/a	n/a	n/a	n/a	n/a	n/a
3404.86	n/a	RECOG_TARGET	1702430	n/a	LTP208	ltpFR	1	3	1	CARPENTER	246	5	1	n/a	n/a	n/a	n/a	n/a
3405.792	n/a	RECOG_RESP	1702896	n/a	LTP208	ltpFR	1	3	1	CARPENTER	246	n/a	1	n/a	n/a	n/a	n/a	n/a
3406.616	n/a	RECOG_CONF	1703308	n/a	LTP208	ltpFR	1	3	1	CARPENTER	246	5	1	n/a	n/a	n/a	n/a	n/a
3408.608	n/a	RECOG_TARGET	1704304	n/a	LTP208	ltpFR	1	3	1	CRAB	397	5	1	n/a	n/a	n/a	n/a	n/a
3409.718	n/a	RECOG_RESP	1704859	n/a	LTP208	ltpFR	1	3	1	CRAB	397	n/a	1	n/a	n/a	n/a	n/a	n/a
3410.516	n/a	RECOG_CONF	1705258	n/a	LTP208	ltpFR	1	3	1	CRAB	397	5	1	n/a	n/a	n/a	n/a	n/a
3415.506	n/a	REC_START	1707753	n/a	LTP208	ltpFR	1	4	n/a	n/a	n/a	n/a	n/a	n/a	n/a	n/a	n/a	n/a
3415.562	n/a	RECOG_LURE	1707781	n/a	LTP208	ltpFR	1	4	n/a	NURSERY	964	4	n/a	n/a	n/a	n/a	n/a	n/a
3416.878	n/a	RECOG_RESP	1708439	n/a	LTP208	ltpFR	1	4	n/a	NURSERY	964	n/a	n/a	n/a	n/a	n/a	n/a	n/a
3417.726	n/a	RECOG_CONF	1708863	n/a	LTP208	ltpFR	1	4	n/a	NURSERY	964	4	n/a	n/a	n/a	n/a	n/a	n/a
3419.728	n/a	RECOG_TARGET	1709864	n/a	LTP208	ltpFR	1	4	1	PUB	1135	5	0	n/a	n/a	n/a	n/a	n/a
3420.714	n/a	RECOG_RESP	1710357	n/a	LTP208	ltpFR	1	4	1	PUB	1135	n/a	0	n/a	n/a	n/a	n/a	n/a
3421.658	n/a	RECOG_CONF	1710829	n/a	LTP208	ltpFR	1	4	1	PUB	1135	5	0	n/a	n/a	n/a	n/a	n/a
3423.392	n/a	RECOG_LURE	1711696	n/a	LTP208	ltpFR	1	4	n/a	LINT	826	4	n/a	n/a	n/a	n/a	n/a	n/a
3424.402	n/a	RECOG_RESP	1712201	n/a	LTP208	ltpFR	1	4	n/a	LINT	826	n/a	n/a	n/a	n/a	n/a	n/a	n/a
3425.29	n/a	RECOG_CONF	1712645	n/a	LTP208	ltpFR	1	4	n/a	LINT	826	4	n/a	n/a	n/a	n/a	n/a	n/a
3427.346	n/a	RECOG_TARGET	1713673	n/a	LTP208	ltpFR	1	4	1	SEAGULL	1261	4	1	n/a	n/a	n/a	n/a	n/a
3428.672	n/a	RECOG_RESP	1714336	n/a	LTP208	ltpFR	1	4	1	SEAGULL	1261	n/a	1	n/a	n/a	n/a	n/a	n/a
3430.078	n/a	RECOG_CONF	1715039	n/a	LTP208	ltpFR	1	4	1	SEAGULL	1261	4	1	n/a	n/a	n/a	n/a	n/a
3431.982	n/a	RECOG_LURE	1715991	n/a	LTP208	ltpFR	1	4	n/a	MILDEW	893	3	n/a	n/a	n/a	n/a	n/a	n/a
3433.816	n/a	RECOG_RESP	1716908	n/a	LTP208	ltpFR	1	4	n/a	MILDEW	893	n/a	n/a	n/a	n/a	n/a	n/a	n/a
3435.368	n/a	RECOG_CONF	1717684	n/a	LTP208	ltpFR	1	4	n/a	MILDEW	893	3	n/a	n/a	n/a	n/a	n/a	n/a
3437.28	n/a	RECOG_TARGET	1718640	n/a	LTP208	ltpFR	1	4	1	HARP	689	3	0	n/a	n/a	n/a	n/a	n/a
3438.69	n/a	RECOG_RESP	1719345	n/a	LTP208	ltpFR	1	4	1	HARP	689	n/a	0	n/a	n/a	n/a	n/a	n/a
3439.798	n/a	RECOG_CONF	1719899	n/a	LTP208	ltpFR	1	4	1	HARP	689	3	0	n/a	n/a	n/a	n/a	n/a
3441.534	n/a	RECOG_LURE	1720767	n/a	LTP208	ltpFR	1	4	n/a	NICOTINE	951	3	n/a	n/a	n/a	n/a	n/a	n/a
3443.24	n/a	RECOG_RESP	1721620	n/a	LTP208	ltpFR	1	4	n/a	NICOTINE	951	n/a	n/a	n/a	n/a	n/a	n/a	n/a
3444.776	n/a	RECOG_CONF	1722388	n/a	LTP208	ltpFR	1	4	n/a	NICOTINE	951	3	n/a	n/a	n/a	n/a	n/a	n/a
3446.804	n/a	RECOG_LURE	1723402	n/a	LTP208	ltpFR	1	4	n/a	SLACKS	1323	2	n/a	n/a	n/a	n/a	n/a	n/a
3448.034	n/a	RECOG_RESP	1724017	n/a	LTP208	ltpFR	1	4	n/a	SLACKS	1323	n/a	n/a	n/a	n/a	n/a	n/a	n/a
3449.534	n/a	RECOG_CONF	1724767	n/a	LTP208	ltpFR	1	4	n/a	SLACKS	1323	2	n/a	n/a	n/a	n/a	n/a	n/a
3451.584	n/a	RECOG_TARGET	1725792	n/a	LTP208	ltpFR	1	4	1	BISCUIT	130	3	0	n/a	n/a	n/a	n/a	n/a
3452.434	n/a	RECOG_RESP	1726217	n/a	LTP208	ltpFR	1	4	1	BISCUIT	130	n/a	0	n/a	n/a	n/a	n/a	n/a
3453.896	n/a	RECOG_CONF	1726948	n/a	LTP208	ltpFR	1	4	1	BISCUIT	130	3	0	n/a	n/a	n/a	n/a	n/a
3455.856	n/a	RECOG_TARGET	1727928	n/a	LTP208	ltpFR	1	4	0	SHED	1277	4	1	n/a	n/a	n/a	n/a	n/a
3457.068	n/a	RECOG_RESP	1728534	n/a	LTP208	ltpFR	1	4	0	SHED	1277	n/a	1	n/a	n/a	n/a	n/a	n/a
3458.426	n/a	RECOG_CONF	1729213	n/a	LTP208	ltpFR	1	4	0	SHED	1277	4	1	n/a	n/a	n/a	n/a	n/a
3460.318	n/a	RECOG_LURE	1730159	n/a	LTP208	ltpFR	1	4	n/a	MONGOOSE	909	3	n/a	n/a	n/a	n/a	n/a	n/a
3461.438	n/a	RECOG_RESP	1730719	n/a	LTP208	ltpFR	1	4	n/a	MONGOOSE	909	n/a	n/a	n/a	n/a	n/a	n/a	n/a
3462.836	n/a	RECOG_CONF	1731418	n/a	LTP208	ltpFR	1	4	n/a	MONGOOSE	909	3	n/a	n/a	n/a	n/a	n/a	n/a
3464.604	n/a	RECOG_TARGET	1732302	n/a	LTP208	ltpFR	1	4	0	FIREPLACE	570	3	1	n/a	n/a	n/a	n/a	n/a
3465.624	n/a	RECOG_RESP	1732812	n/a	LTP208	ltpFR	1	4	0	FIREPLACE	570	n/a	1	n/a	n/a	n/a	n/a	n/a
3467.046	n/a	RECOG_CONF	1733523	n/a	LTP208	ltpFR	1	4	0	FIREPLACE	570	3	1	n/a	n/a	n/a	n/a	n/a
3468.904	n/a	RECOG_LURE	1734452	n/a	LTP208	ltpFR	1	4	n/a	ROBOT	1200	4	n/a	n/a	n/a	n/a	n/a	n/a
3469.8	n/a	RECOG_RESP	1734900	n/a	LTP208	ltpFR	1	4	n/a	ROBOT	1200	n/a	n/a	n/a	n/a	n/a	n/a	n/a
3471.178	n/a	RECOG_CONF	1735589	n/a	LTP208	ltpFR	1	4	n/a	ROBOT	1200	4	n/a	n/a	n/a	n/a	n/a	n/a
3472.864	n/a	RECOG_LURE	1736432	n/a	LTP208	ltpFR	1	4	n/a	LOAF	835	3	n/a	n/a	n/a	n/a	n/a	n/a
3473.962	n/a	RECOG_RESP	1736981	n/a	LTP208	ltpFR	1	4	n/a	LOAF	835	n/a	n/a	n/a	n/a	n/a	n/a	n/a
3475.458	n/a	RECOG_CONF	1737729	n/a	LTP208	ltpFR	1	4	n/a	LOAF	835	3	n/a	n/a	n/a	n/a	n/a	n/a
3477.338	n/a	RECOG_TARGET	1738669	n/a	LTP208	ltpFR	1	4	0	FIN	566	4	0	n/a	n/a	n/a	n/a	n/a
3478.252	n/a	RECOG_RESP	1739126	n/a	LTP208	ltpFR	1	4	0	FIN	566	n/a	0	n/a	n/a	n/a	n/a	n/a
3479.478	n/a	RECOG_CONF	1739739	n/a	LTP208	ltpFR	1	4	0	FIN	566	4	0	n/a	n/a	n/a	n/a	n/a
3481.28	n/a	RECOG_TARGET	1740640	n/a	LTP208	ltpFR	1	4	0	BUCKLE	185	4	0	n/a	n/a	n/a	n/a	n/a
3482.138	n/a	RECOG_RESP	1741069	n/a	LTP208	ltpFR	1	4	0	BUCKLE	185	n/a	0	n/a	n/a	n/a	n/a	n/a
3483.19	n/a	RECOG_CONF	1741595	n/a	LTP208	ltpFR	1	4	0	BUCKLE	185	4	0	n/a	n/a	n/a	n/a	n/a
3485.302	n/a	RECOG_LURE	1742651	n/a	LTP208	ltpFR	1	4	n/a	BATHROOM	99	4	n/a	n/a	n/a	n/a	n/a	n/a
3486.148	n/a	RECOG_RESP	1743074	n/a	LTP208	ltpFR	1	4	n/a	BATHROOM	99	n/a	n/a	n/a	n/a	n/a	n/a	n/a
3487.49	n/a	RECOG_CONF	1743745	n/a	LTP208	ltpFR	1	4	n/a	BATHROOM	99	4	n/a	n/a	n/a	n/a	n/a	n/a
3489.334	n/a	RECOG_LURE	1744667	n/a	LTP208	ltpFR	1	4	n/a	BARTENDER	92	3	n/a	n/a	n/a	n/a	n/a	n/a
3490.176	n/a	RECOG_RESP	1745088	n/a	LTP208	ltpFR	1	4	n/a	BARTENDER	92	n/a	n/a	n/a	n/a	n/a	n/a	n/a
3491.324	n/a	RECOG_CONF	1745662	n/a	LTP208	ltpFR	1	4	n/a	BARTENDER	92	3	n/a	n/a	n/a	n/a	n/a	n/a
3493.194	n/a	RECOG_LURE	1746597	n/a	LTP208	ltpFR	1	4	n/a	POTATO	1115	4	n/a	n/a	n/a	n/a	n/a	n/a
3494.176	n/a	RECOG_RESP	1747088	n/a	LTP208	ltpFR	1	4	n/a	POTATO	1115	n/a	n/a	n/a	n/a	n/a	n/a	n/a
3495.334	n/a	RECOG_CONF	1747667	n/a	LTP208	ltpFR	1	4	n/a	POTATO	1115	4	n/a	n/a	n/a	n/a	n/a	n/a
3497.342	n/a	RECOG_TARGET	1748671	n/a	LTP208	ltpFR	1	4	0	STAIRS	1367	4	0	n/a	n/a	n/a	n/a	n/a
3498.372	n/a	RECOG_RESP	1749186	n/a	LTP208	ltpFR	1	4	0	STAIRS	1367	n/a	0	n/a	n/a	n/a	n/a	n/a
3499.884	n/a	RECOG_CONF	1749942	n/a	LTP208	ltpFR	1	4	0	STAIRS	1367	4	0	n/a	n/a	n/a	n/a	n/a
3506.166	n/a	REC_START	1753083	n/a	LTP208	ltpFR	1	5	n/a	n/a	n/a	n/a	n/a	n/a	n/a	n/a	n/a	n/a
3506.226	n/a	RECOG_LURE	1753113	n/a	LTP208	ltpFR	1	5	n/a	MATTRESS	879	4	n/a	n/a	n/a	n/a	n/a	n/a
3507.49	n/a	RECOG_RESP	1753745	n/a	LTP208	ltpFR	1	5	n/a	MATTRESS	879	n/a	n/a	n/a	n/a	n/a	n/a	n/a
3508.328	n/a	RECOG_CONF	1754164	n/a	LTP208	ltpFR	1	5	n/a	MATTRESS	879	4	n/a	n/a	n/a	n/a	n/a	n/a
3510.392	n/a	RECOG_LURE	1755196	n/a	LTP208	ltpFR	1	5	n/a	LOLLIPOP	842	2	n/a	n/a	n/a	n/a	n/a	n/a
3511.506	n/a	RECOG_RESP_VV	1755753	n/a	LTP208	ltpFR	1	5	n/a	LOLLIPOP	842	n/a	n/a	n/a	n/a	n/a	n/a	n/a
3512.428	n/a	RECOG_RESP	1756214	n/a	LTP208	ltpFR	1	5	n/a	LOLLIPOP	842	n/a	n/a	n/a	n/a	n/a	n/a	n/a
3513.586	n/a	RECOG_CONF	1756793	n/a	LTP208	ltpFR	1	5	n/a	LOLLIPOP	842	2	n/a	n/a	n/a	n/a	n/a	n/a
3516.014	n/a	RECOG_LURE	1758007	n/a	LTP208	ltpFR	1	5	n/a	UTENSIL	1542	4	n/a	n/a	n/a	n/a	n/a	n/a
3517.362	n/a	RECOG_RESP	1758681	n/a	LTP208	ltpFR	1	5	n/a	UTENSIL	1542	n/a	n/a	n/a	n/a	n/a	n/a	n/a
3518.414	n/a	RECOG_CONF	1759207	n/a	LTP208	ltpFR	1	5	n/a	UTENSIL	1542	4	n/a	n/a	n/a	n/a	n/a	n/a
3520.37	n/a	RECOG_TARGET	1760185	n/a	LTP208	ltpFR	1	5	1	FARMER	553	4	1	n/a	n/a	n/a	n/a	n/a
3521.608	n/a	RECOG_RESP	1760804	n/a	LTP208	ltpFR	1	5	1	FARMER	553	n/a	1	n/a	n/a	n/a	n/a	n/a
3522.614	n/a	RECOG_CONF	1761307	n/a	LTP208	ltpFR	1	5	1	FARMER	553	4	1	n/a	n/a	n/a	n/a	n/a
3524.452	n/a	RECOG_LURE	1762226	n/a	LTP208	ltpFR	1	5	n/a	UNIVERSITY	1541	4	n/a	n/a	n/a	n/a	n/a	n/a
3525.64	n/a	RECOG_RESP	1762820	n/a	LTP208	ltpFR	1	5	n/a	UNIVERSITY	1541	n/a	n/a	n/a	n/a	n/a	n/a	n/a
3526.676	n/a	RECOG_CONF	1763338	n/a	LTP208	ltpFR	1	5	n/a	UNIVERSITY	1541	4	n/a	n/a	n/a	n/a	n/a	n/a
3528.684	n/a	RECOG_LURE	1764342	n/a	LTP208	ltpFR	1	5	n/a	KEG	770	4	n/a	n/a	n/a	n/a	n/a	n/a
3530.504	n/a	RECOG_RESP	1765252	n/a	LTP208	ltpFR	1	5	n/a	KEG	770	n/a	n/a	n/a	n/a	n/a	n/a	n/a
3531.336	n/a	RECOG_CONF	1765668	n/a	LTP208	ltpFR	1	5	n/a	KEG	770	4	n/a	n/a	n/a	n/a	n/a	n/a
3533.118	n/a	RECOG_TARGET	1766559	n/a	LTP208	ltpFR	1	5	1	LASH	802	4	0	n/a	n/a	n/a	n/a	n/a
3534.864	n/a	RECOG_RESP	1767432	n/a	LTP208	ltpFR	1	5	1	LASH	802	n/a	0	n/a	n/a	n/a	n/a	n/a
3535.756	n/a	RECOG_CONF	1767878	n/a	LTP208	ltpFR	1	5	1	LASH	802	4	0	n/a	n/a	n/a	n/a	n/a
3537.662	n/a	RECOG_LURE	1768831	n/a	LTP208	ltpFR	1	5	n/a	FUNGUS	614	4	n/a	n/a	n/a	n/a	n/a	n/a
3539.078	n/a	RECOG_RESP	1769539	n/a	LTP208	ltpFR	1	5	n/a	FUNGUS	614	n/a	n/a	n/a	n/a	n/a	n/a	n/a
3540.126	n/a	RECOG_CONF	1770063	n/a	LTP208	ltpFR	1	5	n/a	FUNGUS	614	4	n/a	n/a	n/a	n/a	n/a	n/a
3541.996	n/a	RECOG_TARGET	1770998	n/a	LTP208	ltpFR	1	5	1	SLUG	1329	3	1	n/a	n/a	n/a	n/a	n/a
3543.318	n/a	RECOG_RESP	1771659	n/a	LTP208	ltpFR	1	5	1	SLUG	1329	n/a	1	n/a	n/a	n/a	n/a	n/a
3544.438	n/a	RECOG_CONF	1772219	n/a	LTP208	ltpFR	1	5	1	SLUG	1329	3	1	n/a	n/a	n/a	n/a	n/a
3546.352	n/a	RECOG_TARGET	1773176	n/a	LTP208	ltpFR	1	5	-1	WEED	1599	5	-1	n/a	n/a	n/a	n/a	n/a
3547.376	n/a	RECOG_RESP	1773688	n/a	LTP208	ltpFR	1	5	-1	WEED	1599	n/a	-1	n/a	n/a	n/a	n/a	n/a
3548.358	n/a	RECOG_CONF	1774179	n/a	LTP208	ltpFR	1	5	-1	WEED	1599	5	-1	n/a	n/a	n/a	n/a	n/a
3550.116	n/a	RECOG_TARGET	1775058	n/a	LTP208	ltpFR	1	5	1	TELESCOPE	1446	3	0	n/a	n/a	n/a	n/a	n/a
3551.342	n/a	RECOG_RESP	1775671	n/a	LTP208	ltpFR	1	5	1	TELESCOPE	1446	n/a	0	n/a	n/a	n/a	n/a	n/a
3552.598	n/a	RECOG_CONF	1776299	n/a	LTP208	ltpFR	1	5	1	TELESCOPE	1446	3	0	n/a	n/a	n/a	n/a	n/a
3554.36	n/a	RECOG_LURE	1777180	n/a	LTP208	ltpFR	1	5	n/a	ERASER	538	3	n/a	n/a	n/a	n/a	n/a	n/a
3555.872	n/a	RECOG_RESP	1777936	n/a	LTP208	ltpFR	1	5	n/a	ERASER	538	n/a	n/a	n/a	n/a	n/a	n/a	n/a
3557.008	n/a	RECOG_CONF	1778504	n/a	LTP208	ltpFR	1	5	n/a	ERASER	538	3	n/a	n/a	n/a	n/a	n/a	n/a
3558.558	n/a	RECOG_TARGET	1779279	n/a	LTP208	ltpFR	1	5	-1	OFFICER	973	5	-1	n/a	n/a	n/a	n/a	n/a
3560.006	n/a	RECOG_RESP	1780003	n/a	LTP208	ltpFR	1	5	-1	OFFICER	973	n/a	-1	n/a	n/a	n/a	n/a	n/a
3561.22	n/a	RECOG_CONF	1780610	n/a	LTP208	ltpFR	1	5	-1	OFFICER	973	5	-1	n/a	n/a	n/a	n/a	n/a
3563.05	n/a	RECOG_LURE	1781525	n/a	LTP208	ltpFR	1	5	n/a	NECKLACE	940	4	n/a	n/a	n/a	n/a	n/a	n/a
3564.358	n/a	RECOG_RESP	1782179	n/a	LTP208	ltpFR	1	5	n/a	NECKLACE	940	n/a	n/a	n/a	n/a	n/a	n/a	n/a
3565.63	n/a	RECOG_CONF	1782815	n/a	LTP208	ltpFR	1	5	n/a	NECKLACE	940	4	n/a	n/a	n/a	n/a	n/a	n/a
3567.626	n/a	RECOG_LURE	1783813	n/a	LTP208	ltpFR	1	5	n/a	ALLEY	15	4	n/a	n/a	n/a	n/a	n/a	n/a
3568.678	n/a	RECOG_RESP	1784339	n/a	LTP208	ltpFR	1	5	n/a	ALLEY	15	n/a	n/a	n/a	n/a	n/a	n/a	n/a
3569.96	n/a	RECOG_CONF	1784980	n/a	LTP208	ltpFR	1	5	n/a	ALLEY	15	4	n/a	n/a	n/a	n/a	n/a	n/a
3571.792	n/a	RECOG_LURE	1785896	n/a	LTP208	ltpFR	1	5	n/a	GUN	673	3	n/a	n/a	n/a	n/a	n/a	n/a
3573.018	n/a	RECOG_RESP	1786509	n/a	LTP208	ltpFR	1	5	n/a	GUN	673	n/a	n/a	n/a	n/a	n/a	n/a	n/a
3574.31	n/a	RECOG_CONF	1787155	n/a	LTP208	ltpFR	1	5	n/a	GUN	673	3	n/a	n/a	n/a	n/a	n/a	n/a
3576.366	n/a	RECOG_TARGET	1788183	n/a	LTP208	ltpFR	1	5	0	CAPTAIN	239	4	1	n/a	n/a	n/a	n/a	n/a
3577.632	n/a	RECOG_RESP	1788816	n/a	LTP208	ltpFR	1	5	0	CAPTAIN	239	n/a	1	n/a	n/a	n/a	n/a	n/a
3579.03	n/a	RECOG_CONF	1789515	n/a	LTP208	ltpFR	1	5	0	CAPTAIN	239	4	1	n/a	n/a	n/a	n/a	n/a
3581.58	n/a	RECOG_TARGET	1790790	n/a	LTP208	ltpFR	1	5	0	SHELTER	1282	5	1	n/a	n/a	n/a	n/a	n/a
3582.418	n/a	RECOG_RESP	1791209	n/a	LTP208	ltpFR	1	5	0	SHELTER	1282	n/a	1	n/a	n/a	n/a	n/a	n/a
3583.45	n/a	RECOG_CONF	1791725	n/a	LTP208	ltpFR	1	5	0	SHELTER	1282	5	1	n/a	n/a	n/a	n/a	n/a
3585.402	n/a	RECOG_LURE	1792701	n/a	LTP208	ltpFR	1	5	n/a	ACORN	3	3	n/a	n/a	n/a	n/a	n/a	n/a
3586.294	n/a	RECOG_RESP	1793147	n/a	LTP208	ltpFR	1	5	n/a	ACORN	3	n/a	n/a	n/a	n/a	n/a	n/a	n/a
3587.8	n/a	RECOG_CONF	1793900	n/a	LTP208	ltpFR	1	5	n/a	ACORN	3	3	n/a	n/a	n/a	n/a	n/a	n/a
3589.56	n/a	RECOG_TARGET	1794780	n/a	LTP208	ltpFR	1	5	1	DISHWASHER	475	4	1	n/a	n/a	n/a	n/a	n/a
3590.704	n/a	RECOG_RESP	1795352	n/a	LTP208	ltpFR	1	5	1	DISHWASHER	475	n/a	1	n/a	n/a	n/a	n/a	n/a
3591.872	n/a	RECOG_CONF	1795936	n/a	LTP208	ltpFR	1	5	1	DISHWASHER	475	4	1	n/a	n/a	n/a	n/a	n/a
3596.756	n/a	REC_START	1798378	n/a	LTP208	ltpFR	1	6	n/a	n/a	n/a	n/a	n/a	n/a	n/a	n/a	n/a	n/a
3596.81	n/a	RECOG_TARGET	1798405	n/a	LTP208	ltpFR	1	6	1	NOVEL	960	5	2	n/a	n/a	n/a	n/a	n/a
3598.452	n/a	RECOG_RESP	1799226	n/a	LTP208	ltpFR	1	6	1	NOVEL	960	n/a	2	n/a	n/a	n/a	n/a	n/a
3599.254	n/a	RECOG_CONF	1799627	n/a	LTP208	ltpFR	1	6	1	NOVEL	960	5	2	n/a	n/a	n/a	n/a	n/a
3601.19	n/a	RECOG_LURE	1800595	n/a	LTP208	ltpFR	1	6	n/a	BOYFRIEND	162	4	n/a	n/a	n/a	n/a	n/a	n/a
3602.388	n/a	RECOG_RESP	1801194	n/a	LTP208	ltpFR	1	6	n/a	BOYFRIEND	162	n/a	n/a	n/a	n/a	n/a	n/a	n/a
3603.556	n/a	RECOG_CONF	1801778	n/a	LTP208	ltpFR	1	6	n/a	BOYFRIEND	162	4	n/a	n/a	n/a	n/a	n/a	n/a
3605.544	n/a	RECOG_TARGET	1802772	n/a	LTP208	ltpFR	1	6	1	BAY	102	5	0	n/a	n/a	n/a	n/a	n/a
3606.964	n/a	RECOG_RESP	1803482	n/a	LTP208	ltpFR	1	6	1	BAY	102	n/a	0	n/a	n/a	n/a	n/a	n/a
3608.454	n/a	RECOG_CONF	1804227	n/a	LTP208	ltpFR	1	6	1	BAY	102	5	0	n/a	n/a	n/a	n/a	n/a
3610.474	n/a	RECOG_TARGET	1805237	n/a	LTP208	ltpFR	1	6	1	SQUID	1361	5	1	n/a	n/a	n/a	n/a	n/a
3611.512	n/a	RECOG_RESP	1805756	n/a	LTP208	ltpFR	1	6	1	SQUID	1361	n/a	1	n/a	n/a	n/a	n/a	n/a
3612.546	n/a	RECOG_CONF	1806273	n/a	LTP208	ltpFR	1	6	1	SQUID	1361	5	1	n/a	n/a	n/a	n/a	n/a
3614.628	n/a	RECOG_TARGET	1807314	n/a	LTP208	ltpFR	1	6	-1	KLEENEX	782	5	-1	n/a	n/a	n/a	n/a	n/a
3615.434	n/a	RECOG_RESP	1807717	n/a	LTP208	ltpFR	1	6	-1	KLEENEX	782	n/a	-1	n/a	n/a	n/a	n/a	n/a
3616.646	n/a	RECOG_CONF	1808323	n/a	LTP208	ltpFR	1	6	-1	KLEENEX	782	5	-1	n/a	n/a	n/a	n/a	n/a
3618.604	n/a	RECOG_LURE	1809302	n/a	LTP208	ltpFR	1	6	n/a	SCROLL	1257	5	n/a	n/a	n/a	n/a	n/a	n/a
3619.55	n/a	RECOG_RESP	1809775	n/a	LTP208	ltpFR	1	6	n/a	SCROLL	1257	n/a	n/a	n/a	n/a	n/a	n/a	n/a
3620.548	n/a	RECOG_CONF	1810274	n/a	LTP208	ltpFR	1	6	n/a	SCROLL	1257	5	n/a	n/a	n/a	n/a	n/a	n/a
3622.654	n/a	RECOG_LURE	1811327	n/a	LTP208	ltpFR	1	6	n/a	CITY	314	4	n/a	n/a	n/a	n/a	n/a	n/a
3623.672	n/a	RECOG_RESP	1811836	n/a	LTP208	ltpFR	1	6	n/a	CITY	314	n/a	n/a	n/a	n/a	n/a	n/a	n/a
3624.808	n/a	RECOG_CONF	1812404	n/a	LTP208	ltpFR	1	6	n/a	CITY	314	4	n/a	n/a	n/a	n/a	n/a	n/a
3626.692	n/a	RECOG_TARGET	1813346	n/a	LTP208	ltpFR	1	6	1	WHALE	1601	4	1	n/a	n/a	n/a	n/a	n/a
3627.442	n/a	RECOG_RESP	1813721	n/a	LTP208	ltpFR	1	6	1	WHALE	1601	n/a	1	n/a	n/a	n/a	n/a	n/a
3628.55	n/a	RECOG_CONF	1814275	n/a	LTP208	ltpFR	1	6	1	WHALE	1601	4	1	n/a	n/a	n/a	n/a	n/a
3630.616	n/a	RECOG_TARGET	1815308	n/a	LTP208	ltpFR	1	6	1	RUG	1215	5	0	n/a	n/a	n/a	n/a	n/a
3631.258	n/a	RECOG_RESP	1815629	n/a	LTP208	ltpFR	1	6	1	RUG	1215	n/a	0	n/a	n/a	n/a	n/a	n/a
3632.222	n/a	RECOG_CONF	1816111	n/a	LTP208	ltpFR	1	6	1	RUG	1215	5	0	n/a	n/a	n/a	n/a	n/a
3634.12	n/a	RECOG_TARGET	1817060	n/a	LTP208	ltpFR	1	6	-1	BLOSSOM	138	5	-1	n/a	n/a	n/a	n/a	n/a
3634.896	n/a	RECOG_RESP	1817448	n/a	LTP208	ltpFR	1	6	-1	BLOSSOM	138	n/a	-1	n/a	n/a	n/a	n/a	n/a
3635.944	n/a	RECOG_CONF	1817972	n/a	LTP208	ltpFR	1	6	-1	BLOSSOM	138	5	-1	n/a	n/a	n/a	n/a	n/a
3637.918	n/a	RECOG_TARGET	1818959	n/a	LTP208	ltpFR	1	6	-1	BONE	148	5	-1	n/a	n/a	n/a	n/a	n/a
3638.574	n/a	RECOG_RESP	1819287	n/a	LTP208	ltpFR	1	6	-1	BONE	148	n/a	-1	n/a	n/a	n/a	n/a	n/a
3639.516	n/a	RECOG_CONF	1819758	n/a	LTP208	ltpFR	1	6	-1	BONE	148	5	-1	n/a	n/a	n/a	n/a	n/a
3641.66	n/a	RECOG_TARGET	1820830	n/a	LTP208	ltpFR	1	6	0	COCOON	339	5	1	n/a	n/a	n/a	n/a	n/a
3642.474	n/a	RECOG_RESP	1821237	n/a	LTP208	ltpFR	1	6	0	COCOON	339	n/a	1	n/a	n/a	n/a	n/a	n/a
3643.586	n/a	RECOG_CONF	1821793	n/a	LTP208	ltpFR	1	6	0	COCOON	339	5	1	n/a	n/a	n/a	n/a	n/a
3645.926	n/a	RECOG_TARGET	1822963	n/a	LTP208	ltpFR	1	6	1	SOCK	1339	5	0	n/a	n/a	n/a	n/a	n/a
