mstime	trial_type	stim_file	subject	experiment	session	trial	task	item_name	item_num	recog_resp	recog_conf	resp	color_r	color_g	color_b	case	font
0	SESS_START	n/a	LTP231	ltpFR	19	n/a	n/a	n/a	n/a	0	4	n/a	n/a	n/a	n/a	n/a	n/a
24248	WORD	wordpools/wasnorm_wordpool_less_exclusions.txt	LTP231	ltpFR	19	1	1	AUTOMOBILE	62	1	n/a	0	0.422607421875	0.5869140625	0	lower	zerothre.ttf
28196	WORD	wordpools/wasnorm_wordpool_less_exclusions.txt	LTP231	ltpFR	19	1	1	CLAMP	316	n/a	n/a	0	0.422607421875	0.5869140625	0	lower	zerothre.ttf
32057	WORD	wordpools/wasnorm_wordpool_less_exclusions.txt	LTP231	ltpFR	19	1	1	BRANCH	168	n/a	n/a	0	0.422607421875	0.5869140625	0	lower	zerothre.ttf
36009	WORD	wordpools/wasnorm_wordpool_less_exclusions.txt	LTP231	ltpFR	19	1	0	JUDGE	761	n/a	n/a	1	0.57763671875	0.412841796875	1	upper	amplitud.ttf
40141	WORD	wordpools/wasnorm_wordpool_less_exclusions.txt	LTP231	ltpFR	19	1	0	SCOUT	1252	n/a	n/a	1	0.57763671875	0.412841796875	1	upper	amplitud.ttf
44002	WORD	wordpools/wasnorm_wordpool_less_exclusions.txt	LTP231	ltpFR	19	1	0	LENS	811	n/a	n/a	0	0.57763671875	0.412841796875	1	upper	amplitud.ttf
48168	WORD	wordpools/wasnorm_wordpool_less_exclusions.txt	LTP231	ltpFR	19	1	0	BINDER	127	n/a	n/a	0	0.57763671875	0.412841796875	1	upper	amplitud.ttf
52170	WORD	wordpools/wasnorm_wordpool_less_exclusions.txt	LTP231	ltpFR	19	1	1	TUB	1514	n/a	n/a	0	0.422607421875	0.5869140625	0	lower	zerothre.ttf
56269	WORD	wordpools/wasnorm_wordpool_less_exclusions.txt	LTP231	ltpFR	19	1	1	TYPEWRITER	1531	n/a	n/a	0	0.422607421875	0.5869140625	0	lower	zerothre.ttf
60430	WORD	wordpools/wasnorm_wordpool_less_exclusions.txt	LTP231	ltpFR	19	1	0	SECRETARY	1265	n/a	n/a	1	0.57763671875	0.412841796875	1	upper	amplitud.ttf
64332	WORD	wordpools/wasnorm_wordpool_less_exclusions.txt	LTP231	ltpFR	19	1	0	FACE	547	n/a	n/a	0	0.57763671875	0.412841796875	1	upper	amplitud.ttf
68247	WORD	wordpools/wasnorm_wordpool_less_exclusions.txt	LTP231	ltpFR	19	1	0	MOAT	903	n/a	n/a	1	0.57763671875	0.412841796875	1	upper	amplitud.ttf
72145	WORD	wordpools/wasnorm_wordpool_less_exclusions.txt	LTP231	ltpFR	19	1	0	RECIPE	1175	n/a	n/a	0	0.57763671875	0.412841796875	1	upper	amplitud.ttf
76244	WORD	wordpools/wasnorm_wordpool_less_exclusions.txt	LTP231	ltpFR	19	1	1	CHEF	290	n/a	n/a	1	0.422607421875	0.5869140625	0	lower	zerothre.ttf
80259	WORD	wordpools/wasnorm_wordpool_less_exclusions.txt	LTP231	ltpFR	19	1	1	BIBLE	124	n/a	n/a	0	0.422607421875	0.5869140625	0	lower	zerothre.ttf
84358	WORD	wordpools/wasnorm_wordpool_less_exclusions.txt	LTP231	ltpFR	19	1	1	SHRUB	1299	n/a	n/a	1	0.422607421875	0.5869140625	0	lower	zerothre.ttf
90331	REC_START	n/a	LTP231	ltpFR	19	1	n/a	n/a	n/a	n/a	n/a	n/a	n/a	n/a	n/a	n/a	n/a
91109	REC_WORD	wordpools/wasnorm_wordpool_less_exclusions.txt	LTP231	ltpFR	19	1	1	SHRUB	1299	n/a	n/a	1	n/a	n/a	n/a	n/a	n/a
92147	REC_WORD	wordpools/wasnorm_wordpool_less_exclusions.txt	LTP231	ltpFR	19	1	1	BIBLE	124	n/a	n/a	0	n/a	n/a	n/a	n/a	n/a
92732	REC_WORD	wordpools/wasnorm_wordpool_less_exclusions.txt	LTP231	ltpFR	19	1	1	CHEF	290	n/a	n/a	1	n/a	n/a	n/a	n/a	n/a
93768	REC_WORD	wordpools/wasnorm_wordpool_less_exclusions.txt	LTP231	ltpFR	19	1	1	AUTOMOBILE	62	n/a	n/a	0	n/a	n/a	n/a	n/a	n/a
94638	REC_WORD	wordpools/wasnorm_wordpool_less_exclusions.txt	LTP231	ltpFR	19	1	1	CLAMP	316	n/a	n/a	0	n/a	n/a	n/a	n/a	n/a
96058	REC_WORD	wordpools/wasnorm_wordpool_less_exclusions.txt	LTP231	ltpFR	19	1	1	TUB	1514	n/a	n/a	0	n/a	n/a	n/a	n/a	n/a
103351	REC_WORD	wordpools/wasnorm_wordpool_less_exclusions.txt	LTP231	ltpFR	19	1	0	RECIPE	1175	n/a	n/a	0	n/a	n/a	n/a	n/a	n/a
105377	REC_WORD	wordpools/wasnorm_wordpool_less_exclusions.txt	LTP231	ltpFR	19	1	0	BINDER	127	n/a	n/a	0	n/a	n/a	n/a	n/a	n/a
106589	REC_WORD	wordpools/wasnorm_wordpool_less_exclusions.txt	LTP231	ltpFR	19	1	0	LENS	811	n/a	n/a	0	n/a	n/a	n/a	n/a	n/a
107602	REC_WORD	wordpools/wasnorm_wordpool_less_exclusions.txt	LTP231	ltpFR	19	1	0	JUDGE	761	n/a	n/a	1	n/a	n/a	n/a	n/a	n/a
108786	REC_WORD	wordpools/wasnorm_wordpool_less_exclusions.txt	LTP231	ltpFR	19	1	0	SCOUT	1252	n/a	n/a	1	n/a	n/a	n/a	n/a	n/a
174827	WORD	wordpools/wasnorm_wordpool_less_exclusions.txt	LTP231	ltpFR	19	2	0	PENDULUM	1043	n/a	n/a	0	0.57763671875	0.412841796875	1	upper	amplitud.ttf
178696	WORD	wordpools/wasnorm_wordpool_less_exclusions.txt	LTP231	ltpFR	19	2	0	TACK	1428	n/a	n/a	0	0.57763671875	0.412841796875	1	upper	amplitud.ttf
182560	WORD	wordpools/wasnorm_wordpool_less_exclusions.txt	LTP231	ltpFR	19	2	0	PORCUPINE	1107	n/a	n/a	1	0.57763671875	0.412841796875	1	upper	amplitud.ttf
186592	WORD	wordpools/wasnorm_wordpool_less_exclusions.txt	LTP231	ltpFR	19	2	1	CLOCK	325	n/a	n/a	0	0.422607421875	0.5869140625	0	lower	zerothre.ttf
190524	WORD	wordpools/wasnorm_wordpool_less_exclusions.txt	LTP231	ltpFR	19	2	1	ELECTRICIAN	521	n/a	n/a	1	0.422607421875	0.5869140625	0	lower	zerothre.ttf
194589	WORD	wordpools/wasnorm_wordpool_less_exclusions.txt	LTP231	ltpFR	19	2	1	BAND	78	n/a	n/a	0	0.422607421875	0.5869140625	0	lower	zerothre.ttf
198638	WORD	wordpools/wasnorm_wordpool_less_exclusions.txt	LTP231	ltpFR	19	2	1	MULE	931	n/a	n/a	1	0.422607421875	0.5869140625	0	lower	zerothre.ttf
202532	WORD	wordpools/wasnorm_wordpool_less_exclusions.txt	LTP231	ltpFR	19	2	0	DOLLAR	482	n/a	n/a	0	0.57763671875	0.412841796875	1	upper	amplitud.ttf
206718	WORD	wordpools/wasnorm_wordpool_less_exclusions.txt	LTP231	ltpFR	19	2	0	RESTAURANT	1187	n/a	n/a	1	0.57763671875	0.412841796875	1	upper	amplitud.ttf
210646	WORD	wordpools/wasnorm_wordpool_less_exclusions.txt	LTP231	ltpFR	19	2	0	OATMEAL	967	n/a	n/a	0	0.57763671875	0.412841796875	1	upper	amplitud.ttf
214715	WORD	wordpools/wasnorm_wordpool_less_exclusions.txt	LTP231	ltpFR	19	2	0	EAGLE	512	n/a	n/a	1	0.57763671875	0.412841796875	1	upper	amplitud.ttf
218596	WORD	wordpools/wasnorm_wordpool_less_exclusions.txt	LTP231	ltpFR	19	2	0	CAGE	218	n/a	n/a	1	0.57763671875	0.412841796875	1	upper	amplitud.ttf
222808	WORD	wordpools/wasnorm_wordpool_less_exclusions.txt	LTP231	ltpFR	19	2	1	BUFFALO	186	n/a	n/a	1	0.422607421875	0.5869140625	0	lower	zerothre.ttf
226743	WORD	wordpools/wasnorm_wordpool_less_exclusions.txt	LTP231	ltpFR	19	2	1	TOOL	1480	n/a	n/a	0	0.422607421875	0.5869140625	0	lower	zerothre.ttf
230859	WORD	wordpools/wasnorm_wordpool_less_exclusions.txt	LTP231	ltpFR	19	2	1	CARPENTER	246	n/a	n/a	1	0.422607421875	0.5869140625	0	lower	zerothre.ttf
235042	WORD	wordpools/wasnorm_wordpool_less_exclusions.txt	LTP231	ltpFR	19	2	1	SOCKET	1340	n/a	n/a	0	0.422607421875	0.5869140625	0	lower	zerothre.ttf
241133	REC_START	n/a	LTP231	ltpFR	19	2	n/a	n/a	n/a	n/a	n/a	n/a	n/a	n/a	n/a	n/a	n/a
241982	REC_WORD	wordpools/wasnorm_wordpool_less_exclusions.txt	LTP231	ltpFR	19	2	1	SOCKET	1340	n/a	n/a	0	n/a	n/a	n/a	n/a	n/a
243048	REC_WORD	wordpools/wasnorm_wordpool_less_exclusions.txt	LTP231	ltpFR	19	2	1	CARPENTER	246	n/a	n/a	1	n/a	n/a	n/a	n/a	n/a
244600	REC_WORD	wordpools/wasnorm_wordpool_less_exclusions.txt	LTP231	ltpFR	19	2	1	TOOL	1480	n/a	n/a	0	n/a	n/a	n/a	n/a	n/a
245458	REC_WORD	wordpools/wasnorm_wordpool_less_exclusions.txt	LTP231	ltpFR	19	2	1	BUFFALO	186	n/a	n/a	1	n/a	n/a	n/a	n/a	n/a
246451	REC_WORD	wordpools/wasnorm_wordpool_less_exclusions.txt	LTP231	ltpFR	19	2	0	EAGLE	512	n/a	n/a	1	n/a	n/a	n/a	n/a	n/a
246999	REC_WORD	wordpools/wasnorm_wordpool_less_exclusions.txt	LTP231	ltpFR	19	2	0	OATMEAL	967	n/a	n/a	0	n/a	n/a	n/a	n/a	n/a
248247	REC_WORD	wordpools/wasnorm_wordpool_less_exclusions.txt	LTP231	ltpFR	19	2	0	RESTAURANT	1187	n/a	n/a	1	n/a	n/a	n/a	n/a	n/a
249379	REC_WORD	wordpools/wasnorm_wordpool_less_exclusions.txt	LTP231	ltpFR	19	2	0	DOLLAR	482	n/a	n/a	0	n/a	n/a	n/a	n/a	n/a
251090	REC_WORD	wordpools/wasnorm_wordpool_less_exclusions.txt	LTP231	ltpFR	19	2	1	MULE	931	n/a	n/a	1	n/a	n/a	n/a	n/a	n/a
261931	REC_WORD	wordpools/wasnorm_wordpool_less_exclusions.txt	LTP231	ltpFR	19	2	1	ELECTRICIAN	521	n/a	n/a	1	n/a	n/a	n/a	n/a	n/a
270865	REC_WORD	wordpools/wasnorm_wordpool_less_exclusions.txt	LTP231	ltpFR	19	2	1	BAND	78	n/a	n/a	0	n/a	n/a	n/a	n/a	n/a
321898	WORD	wordpools/wasnorm_wordpool_less_exclusions.txt	LTP231	ltpFR	19	3	-1	TABLET	1427	n/a	n/a	-1	1.0	1.0	1	upper	Verdana.ttf
325968	WORD	wordpools/wasnorm_wordpool_less_exclusions.txt	LTP231	ltpFR	19	3	-1	DOCUMENT	479	n/a	n/a	-1	1.0	1.0	1	upper	Verdana.ttf
330067	WORD	wordpools/wasnorm_wordpool_less_exclusions.txt	LTP231	ltpFR	19	3	-1	ANTENNA	28	n/a	n/a	-1	1.0	1.0	1	upper	Verdana.ttf
334049	WORD	wordpools/wasnorm_wordpool_less_exclusions.txt	LTP231	ltpFR	19	3	-1	ACTOR	5	n/a	n/a	-1	1.0	1.0	1	upper	Verdana.ttf
338181	WORD	wordpools/wasnorm_wordpool_less_exclusions.txt	LTP231	ltpFR	19	3	-1	TELEVISION	1447	n/a	n/a	-1	1.0	1.0	1	upper	Verdana.ttf
342247	WORD	wordpools/wasnorm_wordpool_less_exclusions.txt	LTP231	ltpFR	19	3	-1	RADIO	1157	n/a	n/a	-1	1.0	1.0	1	upper	Verdana.ttf
346078	WORD	wordpools/wasnorm_wordpool_less_exclusions.txt	LTP231	ltpFR	19	3	-1	BUTTERFLY	206	n/a	n/a	-1	1.0	1.0	1	upper	Verdana.ttf
350243	WORD	wordpools/wasnorm_wordpool_less_exclusions.txt	LTP231	ltpFR	19	3	-1	BASKET	95	n/a	n/a	-1	1.0	1.0	1	upper	Verdana.ttf
354175	WORD	wordpools/wasnorm_wordpool_less_exclusions.txt	LTP231	ltpFR	19	3	-1	HIKER	708	n/a	n/a	-1	1.0	1.0	1	upper	Verdana.ttf
358340	WORD	wordpools/wasnorm_wordpool_less_exclusions.txt	LTP231	ltpFR	19	3	-1	GIRAFFE	636	n/a	n/a	-1	1.0	1.0	1	upper	Verdana.ttf
362339	WORD	wordpools/wasnorm_wordpool_less_exclusions.txt	LTP231	ltpFR	19	3	-1	DUMP	505	n/a	n/a	-1	1.0	1.0	1	upper	Verdana.ttf
366267	WORD	wordpools/wasnorm_wordpool_less_exclusions.txt	LTP231	ltpFR	19	3	-1	SHRINE	1298	n/a	n/a	-1	1.0	1.0	1	upper	Verdana.ttf
370469	WORD	wordpools/wasnorm_wordpool_less_exclusions.txt	LTP231	ltpFR	19	3	-1	GUARD	667	n/a	n/a	-1	1.0	1.0	1	upper	Verdana.ttf
374647	WORD	wordpools/wasnorm_wordpool_less_exclusions.txt	LTP231	ltpFR	19	3	-1	WRENCH	1625	n/a	n/a	-1	1.0	1.0	1	upper	Verdana.ttf
378499	WORD	wordpools/wasnorm_wordpool_less_exclusions.txt	LTP231	ltpFR	19	3	-1	CHIMPANZEE	302	n/a	n/a	-1	1.0	1.0	1	upper	Verdana.ttf
382681	WORD	wordpools/wasnorm_wordpool_less_exclusions.txt	LTP231	ltpFR	19	3	-1	MOTH	920	n/a	n/a	-1	1.0	1.0	1	upper	Verdana.ttf
388822	REC_START	n/a	LTP231	ltpFR	19	3	n/a	n/a	n/a	n/a	n/a	n/a	n/a	n/a	n/a	n/a	n/a
389296	REC_WORD	wordpools/wasnorm_wordpool_less_exclusions.txt	LTP231	ltpFR	19	3	-1	MOTH	920	n/a	n/a	-1	n/a	n/a	n/a	n/a	n/a
389894	REC_WORD	wordpools/wasnorm_wordpool_less_exclusions.txt	LTP231	ltpFR	19	3	-1	CHIMPANZEE	302	n/a	n/a	-1	n/a	n/a	n/a	n/a	n/a
391321	REC_WORD	wordpools/wasnorm_wordpool_less_exclusions.txt	LTP231	ltpFR	19	3	-1	TABLET	1427	n/a	n/a	-1	n/a	n/a	n/a	n/a	n/a
391970	REC_WORD	wordpools/wasnorm_wordpool_less_exclusions.txt	LTP231	ltpFR	19	3	-1	DOCUMENT	479	n/a	n/a	-1	n/a	n/a	n/a	n/a	n/a
394000	REC_WORD	wordpools/wasnorm_wordpool_less_exclusions.txt	LTP231	ltpFR	19	3	-1	ACTOR	5	n/a	n/a	-1	n/a	n/a	n/a	n/a	n/a
394988	REC_WORD	wordpools/wasnorm_wordpool_less_exclusions.txt	LTP231	ltpFR	19	3	-1	TELEVISION	1447	n/a	n/a	-1	n/a	n/a	n/a	n/a	n/a
395988	REC_WORD_VV	wordpools/wasnorm_wordpool_less_exclusions.txt	LTP231	ltpFR	19	3	n/a	<>	-1	n/a	n/a	n/a	n/a	n/a	n/a	n/a	n/a
401757	REC_WORD	wordpools/wasnorm_wordpool_less_exclusions.txt	LTP231	ltpFR	19	3	-1	GIRAFFE	636	n/a	n/a	-1	n/a	n/a	n/a	n/a	n/a
402650	REC_WORD	wordpools/wasnorm_wordpool_less_exclusions.txt	LTP231	ltpFR	19	3	-1	DUMP	505	n/a	n/a	-1	n/a	n/a	n/a	n/a	n/a
403114	REC_WORD	wordpools/wasnorm_wordpool_less_exclusions.txt	LTP231	ltpFR	19	3	-1	SHRINE	1298	n/a	n/a	-1	n/a	n/a	n/a	n/a	n/a
404626	REC_WORD	wordpools/wasnorm_wordpool_less_exclusions.txt	LTP231	ltpFR	19	3	-1	WRENCH	1625	n/a	n/a	-1	n/a	n/a	n/a	n/a	n/a
407210	REC_WORD	wordpools/wasnorm_wordpool_less_exclusions.txt	LTP231	ltpFR	19	3	-1	HIKER	708	n/a	n/a	-1	n/a	n/a	n/a	n/a	n/a
409945	REC_WORD	wordpools/wasnorm_wordpool_less_exclusions.txt	LTP231	ltpFR	19	3	-1	GUARD	667	n/a	n/a	-1	n/a	n/a	n/a	n/a	n/a
438969	REC_WORD_VV	wordpools/wasnorm_wordpool_less_exclusions.txt	LTP231	ltpFR	19	3	n/a	<>	-1	n/a	n/a	n/a	n/a	n/a	n/a	n/a	n/a
439969	REC_WORD_VV	wordpools/wasnorm_wordpool_less_exclusions.txt	LTP231	ltpFR	19	3	n/a	<>	-1	n/a	n/a	n/a	n/a	n/a	n/a	n/a	n/a
469572	WORD	wordpools/wasnorm_wordpool_less_exclusions.txt	LTP231	ltpFR	19	4	1	MONEY	908	n/a	n/a	0	0.422607421875	0.5869140625	0	lower	zerothre.ttf
473490	WORD	wordpools/wasnorm_wordpool_less_exclusions.txt	LTP231	ltpFR	19	4	1	BRICK	172	n/a	n/a	0	0.422607421875	0.5869140625	0	lower	zerothre.ttf
477489	WORD	wordpools/wasnorm_wordpool_less_exclusions.txt	LTP231	ltpFR	19	4	0	TORNADO	1485	n/a	n/a	1	0.57763671875	0.412841796875	1	upper	amplitud.ttf
481317	WORD	wordpools/wasnorm_wordpool_less_exclusions.txt	LTP231	ltpFR	19	4	0	PIGEON	1065	n/a	n/a	0	0.57763671875	0.412841796875	1	upper	amplitud.ttf
485302	WORD	wordpools/wasnorm_wordpool_less_exclusions.txt	LTP231	ltpFR	19	4	0	MONGOOSE	909	n/a	n/a	1	0.57763671875	0.412841796875	1	upper	amplitud.ttf
489150	WORD	wordpools/wasnorm_wordpool_less_exclusions.txt	LTP231	ltpFR	19	4	0	VAULT	1550	n/a	n/a	1	0.57763671875	0.412841796875	1	upper	amplitud.ttf
493061	WORD	wordpools/wasnorm_wordpool_less_exclusions.txt	LTP231	ltpFR	19	4	0	BEET	115	n/a	n/a	0	0.57763671875	0.412841796875	1	upper	amplitud.ttf
497244	WORD	wordpools/wasnorm_wordpool_less_exclusions.txt	LTP231	ltpFR	19	4	0	RUBY	1214	n/a	n/a	0	0.57763671875	0.412841796875	1	upper	amplitud.ttf
501296	WORD	wordpools/wasnorm_wordpool_less_exclusions.txt	LTP231	ltpFR	19	4	1	TULIP	1517	n/a	n/a	1	0.422607421875	0.5869140625	0	lower	zerothre.ttf
505477	WORD	wordpools/wasnorm_wordpool_less_exclusions.txt	LTP231	ltpFR	19	4	1	CREW	406	n/a	n/a	0	0.422607421875	0.5869140625	0	lower	zerothre.ttf
509492	WORD	wordpools/wasnorm_wordpool_less_exclusions.txt	LTP231	ltpFR	19	4	1	ARCHITECT	36	n/a	n/a	1	0.422607421875	0.5869140625	0	lower	zerothre.ttf
513375	WORD	wordpools/wasnorm_wordpool_less_exclusions.txt	LTP231	ltpFR	19	4	0	LAPEL	800	n/a	n/a	0	0.57763671875	0.412841796875	1	upper	amplitud.ttf
517390	WORD	wordpools/wasnorm_wordpool_less_exclusions.txt	LTP231	ltpFR	19	4	0	PUMPKIN	1142	n/a	n/a	1	0.57763671875	0.412841796875	1	upper	amplitud.ttf
521467	WORD	wordpools/wasnorm_wordpool_less_exclusions.txt	LTP231	ltpFR	19	4	1	PEAR	1033	n/a	n/a	1	0.422607421875	0.5869140625	0	lower	zerothre.ttf
525469	WORD	wordpools/wasnorm_wordpool_less_exclusions.txt	LTP231	ltpFR	19	4	1	STEWARDESS	1381	n/a	n/a	1	0.422607421875	0.5869140625	0	lower	zerothre.ttf
529635	WORD	wordpools/wasnorm_wordpool_less_exclusions.txt	LTP231	ltpFR	19	4	1	DEPARTMENT	449	n/a	n/a	0	0.422607421875	0.5869140625	0	lower	zerothre.ttf
535458	REC_START	n/a	LTP231	ltpFR	19	4	n/a	n/a	n/a	n/a	n/a	n/a	n/a	n/a	n/a	n/a	n/a
536841	REC_WORD	wordpools/wasnorm_wordpool_less_exclusions.txt	LTP231	ltpFR	19	4	1	DEPARTMENT	449	n/a	n/a	0	n/a	n/a	n/a	n/a	n/a
537577	REC_WORD	wordpools/wasnorm_wordpool_less_exclusions.txt	LTP231	ltpFR	19	4	1	STEWARDESS	1381	n/a	n/a	1	n/a	n/a	n/a	n/a	n/a
538671	REC_WORD	wordpools/wasnorm_wordpool_less_exclusions.txt	LTP231	ltpFR	19	4	0	PUMPKIN	1142	n/a	n/a	1	n/a	n/a	n/a	n/a	n/a
539280	REC_WORD	wordpools/wasnorm_wordpool_less_exclusions.txt	LTP231	ltpFR	19	4	0	LAPEL	800	n/a	n/a	0	n/a	n/a	n/a	n/a	n/a
545750	REC_WORD_VV	wordpools/wasnorm_wordpool_less_exclusions.txt	LTP231	ltpFR	19	4	n/a	<>	-1	n/a	n/a	n/a	n/a	n/a	n/a	n/a	n/a
546750	REC_WORD_VV	wordpools/wasnorm_wordpool_less_exclusions.txt	LTP231	ltpFR	19	4	n/a	<>	-1	n/a	n/a	n/a	n/a	n/a	n/a	n/a	n/a
547431	REC_WORD	wordpools/wasnorm_wordpool_less_exclusions.txt	LTP231	ltpFR	19	4	1	PEAR	1033	n/a	n/a	1	n/a	n/a	n/a	n/a	n/a
550583	REC_WORD	wordpools/wasnorm_wordpool_less_exclusions.txt	LTP231	ltpFR	19	4	1	ARCHITECT	36	n/a	n/a	1	n/a	n/a	n/a	n/a	n/a
551721	REC_WORD	wordpools/wasnorm_wordpool_less_exclusions.txt	LTP231	ltpFR	19	4	1	TULIP	1517	n/a	n/a	1	n/a	n/a	n/a	n/a	n/a
552788	REC_WORD	wordpools/wasnorm_wordpool_less_exclusions.txt	LTP231	ltpFR	19	4	0	RUBY	1214	n/a	n/a	0	n/a	n/a	n/a	n/a	n/a
553624	REC_WORD	wordpools/wasnorm_wordpool_less_exclusions.txt	LTP231	ltpFR	19	4	0	VAULT	1550	n/a	n/a	1	n/a	n/a	n/a	n/a	n/a
554789	REC_WORD	wordpools/wasnorm_wordpool_less_exclusions.txt	LTP231	ltpFR	19	4	1	MONEY	908	n/a	n/a	0	n/a	n/a	n/a	n/a	n/a
555567	REC_WORD	wordpools/wasnorm_wordpool_less_exclusions.txt	LTP231	ltpFR	19	4	1	BRICK	172	n/a	n/a	0	n/a	n/a	n/a	n/a	n/a
556204	REC_WORD	wordpools/wasnorm_wordpool_less_exclusions.txt	LTP231	ltpFR	19	4	0	TORNADO	1485	n/a	n/a	1	n/a	n/a	n/a	n/a	n/a
557318	REC_WORD	wordpools/wasnorm_wordpool_less_exclusions.txt	LTP231	ltpFR	19	4	0	PIGEON	1065	n/a	n/a	0	n/a	n/a	n/a	n/a	n/a
558530	REC_WORD	wordpools/wasnorm_wordpool_less_exclusions.txt	LTP231	ltpFR	19	4	0	MONGOOSE	909	n/a	n/a	1	n/a	n/a	n/a	n/a	n/a
559530	REC_WORD_VV	wordpools/wasnorm_wordpool_less_exclusions.txt	LTP231	ltpFR	19	4	n/a	<>	-1	n/a	n/a	n/a	n/a	n/a	n/a	n/a	n/a
565245	REC_WORD	wordpools/wasnorm_wordpool_less_exclusions.txt	LTP231	ltpFR	19	4	0	BEET	115	n/a	n/a	0	n/a	n/a	n/a	n/a	n/a
578530	REC_WORD_VV	wordpools/wasnorm_wordpool_less_exclusions.txt	LTP231	ltpFR	19	4	n/a	<>	-1	n/a	n/a	n/a	n/a	n/a	n/a	n/a	n/a
579530	REC_WORD_VV	wordpools/wasnorm_wordpool_less_exclusions.txt	LTP231	ltpFR	19	4	n/a	<>	-1	n/a	n/a	n/a	n/a	n/a	n/a	n/a	n/a
616847	WORD	wordpools/wasnorm_wordpool_less_exclusions.txt	LTP231	ltpFR	19	5	-1	SINK	1309	n/a	n/a	-1	1.0	1.0	1	upper	Verdana.ttf
620795	WORD	wordpools/wasnorm_wordpool_less_exclusions.txt	LTP231	ltpFR	19	5	-1	POOL	1103	n/a	n/a	-1	1.0	1.0	1	upper	Verdana.ttf
624693	WORD	wordpools/wasnorm_wordpool_less_exclusions.txt	LTP231	ltpFR	19	5	-1	FURNITURE	616	n/a	n/a	-1	1.0	1.0	1	upper	Verdana.ttf
628906	WORD	wordpools/wasnorm_wordpool_less_exclusions.txt	LTP231	ltpFR	19	5	-1	MOB	904	n/a	n/a	-1	1.0	1.0	1	upper	Verdana.ttf
632959	WORD	wordpools/wasnorm_wordpool_less_exclusions.txt	LTP231	ltpFR	19	5	-1	SILK	1307	n/a	n/a	-1	1.0	1.0	1	upper	Verdana.ttf
637008	WORD	wordpools/wasnorm_wordpool_less_exclusions.txt	LTP231	ltpFR	19	5	-1	CLERK	321	n/a	n/a	-1	1.0	1.0	1	upper	Verdana.ttf
641056	WORD	wordpools/wasnorm_wordpool_less_exclusions.txt	LTP231	ltpFR	19	5	-1	LOAF	835	n/a	n/a	-1	1.0	1.0	1	upper	Verdana.ttf
645168	WORD	wordpools/wasnorm_wordpool_less_exclusions.txt	LTP231	ltpFR	19	5	-1	MUFFIN	929	n/a	n/a	-1	1.0	1.0	1	upper	Verdana.ttf
649304	WORD	wordpools/wasnorm_wordpool_less_exclusions.txt	LTP231	ltpFR	19	5	-1	BEAD	103	n/a	n/a	-1	1.0	1.0	1	upper	Verdana.ttf
653135	WORD	wordpools/wasnorm_wordpool_less_exclusions.txt	LTP231	ltpFR	19	5	-1	SURF	1412	n/a	n/a	-1	1.0	1.0	1	upper	Verdana.ttf
657033	WORD	wordpools/wasnorm_wordpool_less_exclusions.txt	LTP231	ltpFR	19	5	-1	BOARD	143	n/a	n/a	-1	1.0	1.0	1	upper	Verdana.ttf
661111	WORD	wordpools/wasnorm_wordpool_less_exclusions.txt	LTP231	ltpFR	19	5	-1	GAZELLE	628	n/a	n/a	-1	1.0	1.0	1	upper	Verdana.ttf
665043	WORD	wordpools/wasnorm_wordpool_less_exclusions.txt	LTP231	ltpFR	19	5	-1	BENCH	121	n/a	n/a	-1	1.0	1.0	1	upper	Verdana.ttf
668961	WORD	wordpools/wasnorm_wordpool_less_exclusions.txt	LTP231	ltpFR	19	5	-1	CUSHION	428	n/a	n/a	-1	1.0	1.0	1	upper	Verdana.ttf
672925	WORD	wordpools/wasnorm_wordpool_less_exclusions.txt	LTP231	ltpFR	19	5	-1	MAGNET	855	n/a	n/a	-1	1.0	1.0	1	upper	Verdana.ttf
676773	WORD	wordpools/wasnorm_wordpool_less_exclusions.txt	LTP231	ltpFR	19	5	-1	SEAL	1262	n/a	n/a	-1	1.0	1.0	1	upper	Verdana.ttf
682612	REC_START	n/a	LTP231	ltpFR	19	5	n/a	n/a	n/a	n/a	n/a	n/a	n/a	n/a	n/a	n/a	n/a
684158	REC_WORD	wordpools/wasnorm_wordpool_less_exclusions.txt	LTP231	ltpFR	19	5	-1	SEAL	1262	n/a	n/a	-1	n/a	n/a	n/a	n/a	n/a
685395	REC_WORD	wordpools/wasnorm_wordpool_less_exclusions.txt	LTP231	ltpFR	19	5	-1	MAGNET	855	n/a	n/a	-1	n/a	n/a	n/a	n/a	n/a
686802	REC_WORD	wordpools/wasnorm_wordpool_less_exclusions.txt	LTP231	ltpFR	19	5	-1	BENCH	121	n/a	n/a	-1	n/a	n/a	n/a	n/a	n/a
688284	REC_WORD	wordpools/wasnorm_wordpool_less_exclusions.txt	LTP231	ltpFR	19	5	-1	CUSHION	428	n/a	n/a	-1	n/a	n/a	n/a	n/a	n/a
689486	REC_WORD	wordpools/wasnorm_wordpool_less_exclusions.txt	LTP231	ltpFR	19	5	-1	GAZELLE	628	n/a	n/a	-1	n/a	n/a	n/a	n/a	n/a
690833	REC_WORD	wordpools/wasnorm_wordpool_less_exclusions.txt	LTP231	ltpFR	19	5	-1	SURF	1412	n/a	n/a	-1	n/a	n/a	n/a	n/a	n/a
692504	REC_WORD	wordpools/wasnorm_wordpool_less_exclusions.txt	LTP231	ltpFR	19	5	-1	BOARD	143	n/a	n/a	-1	n/a	n/a	n/a	n/a	n/a
693811	REC_WORD	wordpools/wasnorm_wordpool_less_exclusions.txt	LTP231	ltpFR	19	5	-1	LOAF	835	n/a	n/a	-1	n/a	n/a	n/a	n/a	n/a
695270	REC_WORD	wordpools/wasnorm_wordpool_less_exclusions.txt	LTP231	ltpFR	19	5	-1	CLERK	321	n/a	n/a	-1	n/a	n/a	n/a	n/a	n/a
696605	REC_WORD	wordpools/wasnorm_wordpool_less_exclusions.txt	LTP231	ltpFR	19	5	-1	SILK	1307	n/a	n/a	-1	n/a	n/a	n/a	n/a	n/a
698171	REC_WORD	wordpools/wasnorm_wordpool_less_exclusions.txt	LTP231	ltpFR	19	5	-1	MOB	904	n/a	n/a	-1	n/a	n/a	n/a	n/a	n/a
700776	REC_WORD	wordpools/wasnorm_wordpool_less_exclusions.txt	LTP231	ltpFR	19	5	-1	FURNITURE	616	n/a	n/a	-1	n/a	n/a	n/a	n/a	n/a
702187	REC_WORD	wordpools/wasnorm_wordpool_less_exclusions.txt	LTP231	ltpFR	19	5	-1	POOL	1103	n/a	n/a	-1	n/a	n/a	n/a	n/a	n/a
703301	REC_WORD	wordpools/wasnorm_wordpool_less_exclusions.txt	LTP231	ltpFR	19	5	-1	SINK	1309	n/a	n/a	-1	n/a	n/a	n/a	n/a	n/a
715270	REC_WORD_VV	wordpools/wasnorm_wordpool_less_exclusions.txt	LTP231	ltpFR	19	5	n/a	<>	-1	n/a	n/a	n/a	n/a	n/a	n/a	n/a	n/a
716270	REC_WORD_VV	wordpools/wasnorm_wordpool_less_exclusions.txt	LTP231	ltpFR	19	5	n/a	<>	-1	n/a	n/a	n/a	n/a	n/a	n/a	n/a	n/a
773070	WORD	wordpools/wasnorm_wordpool_less_exclusions.txt	LTP231	ltpFR	19	6	-1	REEF	1177	n/a	n/a	-1	1.0	1.0	1	upper	Verdana.ttf
776968	WORD	wordpools/wasnorm_wordpool_less_exclusions.txt	LTP231	ltpFR	19	6	-1	ATMOSPHERE	54	n/a	n/a	-1	1.0	1.0	1	upper	Verdana.ttf
781180	WORD	wordpools/wasnorm_wordpool_less_exclusions.txt	LTP231	ltpFR	19	6	-1	HOSTESS	723	n/a	n/a	-1	1.0	1.0	1	upper	Verdana.ttf
785396	WORD	wordpools/wasnorm_wordpool_less_exclusions.txt	LTP231	ltpFR	19	6	-1	FLY	586	n/a	n/a	-1	1.0	1.0	1	upper	Verdana.ttf
789548	WORD	wordpools/wasnorm_wordpool_less_exclusions.txt	LTP231	ltpFR	19	6	-1	RAKE	1164	n/a	n/a	-1	1.0	1.0	1	upper	Verdana.ttf
793463	WORD	wordpools/wasnorm_wordpool_less_exclusions.txt	LTP231	ltpFR	19	6	-1	PICNIC	1060	n/a	n/a	-1	1.0	1.0	1	upper	Verdana.ttf
797412	WORD	wordpools/wasnorm_wordpool_less_exclusions.txt	LTP231	ltpFR	19	6	-1	RAFT	1159	n/a	n/a	-1	1.0	1.0	1	upper	Verdana.ttf
801506	WORD	wordpools/wasnorm_wordpool_less_exclusions.txt	LTP231	ltpFR	19	6	-1	SNORKEL	1336	n/a	n/a	-1	1.0	1.0	1	upper	Verdana.ttf
805542	WORD	wordpools/wasnorm_wordpool_less_exclusions.txt	LTP231	ltpFR	19	6	-1	SEA	1259	n/a	n/a	-1	1.0	1.0	1	upper	Verdana.ttf
809741	WORD	wordpools/wasnorm_wordpool_less_exclusions.txt	LTP231	ltpFR	19	6	-1	TANGERINE	1431	n/a	n/a	-1	1.0	1.0	1	upper	Verdana.ttf
813919	WORD	wordpools/wasnorm_wordpool_less_exclusions.txt	LTP231	ltpFR	19	6	-1	BEAN	105	n/a	n/a	-1	1.0	1.0	1	upper	Verdana.ttf
818040	WORD	wordpools/wasnorm_wordpool_less_exclusions.txt	LTP231	ltpFR	19	6	-1	KEY	773	n/a	n/a	-1	1.0	1.0	1	upper	Verdana.ttf
822038	WORD	wordpools/wasnorm_wordpool_less_exclusions.txt	LTP231	ltpFR	19	6	-1	WINDOW	1611	n/a	n/a	-1	1.0	1.0	1	upper	Verdana.ttf
825970	WORD	wordpools/wasnorm_wordpool_less_exclusions.txt	LTP231	ltpFR	19	6	-1	BLUEJAY	141	n/a	n/a	-1	1.0	1.0	1	upper	Verdana.ttf
829968	WORD	wordpools/wasnorm_wordpool_less_exclusions.txt	LTP231	ltpFR	19	6	-1	HAWK	692	n/a	n/a	-1	1.0	1.0	1	upper	Verdana.ttf
833950	WORD	wordpools/wasnorm_wordpool_less_exclusions.txt	LTP231	ltpFR	19	6	-1	ORANGE	980	n/a	n/a	-1	1.0	1.0	1	upper	Verdana.ttf
839537	REC_START	n/a	LTP231	ltpFR	19	6	n/a	n/a	n/a	n/a	n/a	n/a	n/a	n/a	n/a	n/a	n/a
840819	REC_WORD	wordpools/wasnorm_wordpool_less_exclusions.txt	LTP231	ltpFR	19	6	-1	ORANGE	980	n/a	n/a	-1	n/a	n/a	n/a	n/a	n/a
841742	REC_WORD	wordpools/wasnorm_wordpool_less_exclusions.txt	LTP231	ltpFR	19	6	-1	BLUEJAY	141	n/a	n/a	-1	n/a	n/a	n/a	n/a	n/a
842797	REC_WORD	wordpools/wasnorm_wordpool_less_exclusions.txt	LTP231	ltpFR	19	6	-1	WINDOW	1611	n/a	n/a	-1	n/a	n/a	n/a	n/a	n/a
843875	REC_WORD	wordpools/wasnorm_wordpool_less_exclusions.txt	LTP231	ltpFR	19	6	-1	REEF	1177	n/a	n/a	-1	n/a	n/a	n/a	n/a	n/a
844565	REC_WORD	wordpools/wasnorm_wordpool_less_exclusions.txt	LTP231	ltpFR	19	6	-1	SEA	1259	n/a	n/a	-1	n/a	n/a	n/a	n/a	n/a
845212	REC_WORD	wordpools/wasnorm_wordpool_less_exclusions.txt	LTP231	ltpFR	19	6	-1	SNORKEL	1336	n/a	n/a	-1	n/a	n/a	n/a	n/a	n/a
846212	REC_WORD_VV	wordpools/wasnorm_wordpool_less_exclusions.txt	LTP231	ltpFR	19	6	n/a	<>	-1	n/a	n/a	n/a	n/a	n/a	n/a	n/a	n/a
846994	REC_WORD_VV	wordpools/wasnorm_wordpool_less_exclusions.txt	LTP231	ltpFR	19	6	n/a	<>	-1	n/a	n/a	n/a	n/a	n/a	n/a	n/a	n/a
847748	REC_WORD	wordpools/wasnorm_wordpool_less_exclusions.txt	LTP231	ltpFR	19	6	-1	ATMOSPHERE	54	n/a	n/a	-1	n/a	n/a	n/a	n/a	n/a
848950	REC_WORD	wordpools/wasnorm_wordpool_less_exclusions.txt	LTP231	ltpFR	19	6	-1	FLY	586	n/a	n/a	-1	n/a	n/a	n/a	n/a	n/a
850035	REC_WORD	wordpools/wasnorm_wordpool_less_exclusions.txt	LTP231	ltpFR	19	6	-1	RAKE	1164	n/a	n/a	-1	n/a	n/a	n/a	n/a	n/a
851320	REC_WORD	wordpools/wasnorm_wordpool_less_exclusions.txt	LTP231	ltpFR	19	6	-1	RAFT	1159	n/a	n/a	-1	n/a	n/a	n/a	n/a	n/a
852320	REC_WORD_VV	wordpools/wasnorm_wordpool_less_exclusions.txt	LTP231	ltpFR	19	6	n/a	<>	-1	n/a	n/a	n/a	n/a	n/a	n/a	n/a	n/a
855075	REC_WORD	wordpools/wasnorm_wordpool_less_exclusions.txt	LTP231	ltpFR	19	6	-1	HOSTESS	723	n/a	n/a	-1	n/a	n/a	n/a	n/a	n/a
856075	REC_WORD_VV	wordpools/wasnorm_wordpool_less_exclusions.txt	LTP231	ltpFR	19	6	n/a	<>	-1	n/a	n/a	n/a	n/a	n/a	n/a	n/a	n/a
934278	WORD	wordpools/wasnorm_wordpool_less_exclusions.txt	LTP231	ltpFR	19	7	1	BIRD	129	n/a	n/a	0	0.422607421875	0.5869140625	0	lower	zerothre.ttf
938209	WORD	wordpools/wasnorm_wordpool_less_exclusions.txt	LTP231	ltpFR	19	7	1	BACON	67	n/a	n/a	0	0.422607421875	0.5869140625	0	lower	zerothre.ttf
942154	WORD	wordpools/wasnorm_wordpool_less_exclusions.txt	LTP231	ltpFR	19	7	1	HAM	678	n/a	n/a	0	0.422607421875	0.5869140625	0	lower	zerothre.ttf
946039	WORD	wordpools/wasnorm_wordpool_less_exclusions.txt	LTP231	ltpFR	19	7	1	MARKET	871	n/a	n/a	0	0.422607421875	0.5869140625	0	lower	zerothre.ttf
950050	WORD	wordpools/wasnorm_wordpool_less_exclusions.txt	LTP231	ltpFR	19	7	1	CUPBOARD	425	n/a	n/a	0	0.422607421875	0.5869140625	0	lower	zerothre.ttf
953952	WORD	wordpools/wasnorm_wordpool_less_exclusions.txt	LTP231	ltpFR	19	7	0	GROCERIES	663	n/a	n/a	1	0.57763671875	0.412841796875	1	upper	amplitud.ttf
958068	WORD	wordpools/wasnorm_wordpool_less_exclusions.txt	LTP231	ltpFR	19	7	0	ROBE	1198	n/a	n/a	0	0.57763671875	0.412841796875	1	upper	amplitud.ttf
962045	WORD	wordpools/wasnorm_wordpool_less_exclusions.txt	LTP231	ltpFR	19	7	0	COMEDIAN	352	n/a	n/a	1	0.57763671875	0.412841796875	1	upper	amplitud.ttf
966148	WORD	wordpools/wasnorm_wordpool_less_exclusions.txt	LTP231	ltpFR	19	7	0	COYOTE	396	n/a	n/a	n/a	0.57763671875	0.412841796875	1	upper	amplitud.ttf
969193	SLOW_MSG	n/a	LTP231	ltpFR	19	7	n/a	n/a	n/a	n/a	n/a	n/a	n/a	n/a	n/a	n/a	n/a
971530	WORD	wordpools/wasnorm_wordpool_less_exclusions.txt	LTP231	ltpFR	19	7	0	PLASTER	1085	n/a	n/a	1	0.57763671875	0.412841796875	1	upper	amplitud.ttf
975683	WORD	wordpools/wasnorm_wordpool_less_exclusions.txt	LTP231	ltpFR	19	7	1	RULER	1216	n/a	n/a	0	0.422607421875	0.5869140625	0	lower	zerothre.ttf
979731	WORD	wordpools/wasnorm_wordpool_less_exclusions.txt	LTP231	ltpFR	19	7	1	BRIEFCASE	175	n/a	n/a	0	0.422607421875	0.5869140625	0	lower	zerothre.ttf
983613	WORD	wordpools/wasnorm_wordpool_less_exclusions.txt	LTP231	ltpFR	19	7	1	CLOTHES	327	n/a	n/a	0	0.422607421875	0.5869140625	0	lower	zerothre.ttf
987607	WORD	wordpools/wasnorm_wordpool_less_exclusions.txt	LTP231	ltpFR	19	7	0	PUPPY	1144	n/a	n/a	0	0.57763671875	0.412841796875	1	upper	amplitud.ttf
991476	WORD	wordpools/wasnorm_wordpool_less_exclusions.txt	LTP231	ltpFR	19	7	0	ARTIST	43	n/a	n/a	1	0.57763671875	0.412841796875	1	upper	amplitud.ttf
995504	WORD	wordpools/wasnorm_wordpool_less_exclusions.txt	LTP231	ltpFR	19	7	0	SNACK	1331	n/a	n/a	0	0.57763671875	0.412841796875	1	upper	amplitud.ttf
1001348	REC_START	n/a	LTP231	ltpFR	19	7	n/a	n/a	n/a	n/a	n/a	n/a	n/a	n/a	n/a	n/a	n/a
1002348	REC_WORD	wordpools/wasnorm_wordpool_less_exclusions.txt	LTP231	ltpFR	19	7	0	SNACK	1331	n/a	n/a	0	n/a	n/a	n/a	n/a	n/a
1003373	REC_WORD	wordpools/wasnorm_wordpool_less_exclusions.txt	LTP231	ltpFR	19	7	0	PUPPY	1144	n/a	n/a	0	n/a	n/a	n/a	n/a	n/a
1004211	REC_WORD	wordpools/wasnorm_wordpool_less_exclusions.txt	LTP231	ltpFR	19	7	0	GROCERIES	663	n/a	n/a	1	n/a	n/a	n/a	n/a	n/a
1005093	REC_WORD	wordpools/wasnorm_wordpool_less_exclusions.txt	LTP231	ltpFR	19	7	n/a	SUPERMARKET	1409	n/a	n/a	n/a	n/a	n/a	n/a	n/a	n/a
1006093	REC_WORD_VV	wordpools/wasnorm_wordpool_less_exclusions.txt	LTP231	ltpFR	19	7	n/a	<>	-1	n/a	n/a	n/a	n/a	n/a	n/a	n/a	n/a
1007160	REC_WORD	wordpools/wasnorm_wordpool_less_exclusions.txt	LTP231	ltpFR	19	7	1	HAM	678	n/a	n/a	0	n/a	n/a	n/a	n/a	n/a
1009365	REC_WORD	wordpools/wasnorm_wordpool_less_exclusions.txt	LTP231	ltpFR	19	7	0	COYOTE	396	n/a	n/a	n/a	n/a	n/a	n/a	n/a	n/a
1012562	REC_WORD	wordpools/wasnorm_wordpool_less_exclusions.txt	LTP231	ltpFR	19	7	1	BIRD	129	n/a	n/a	0	n/a	n/a	n/a	n/a	n/a
1013595	REC_WORD	wordpools/wasnorm_wordpool_less_exclusions.txt	LTP231	ltpFR	19	7	1	BACON	67	n/a	n/a	0	n/a	n/a	n/a	n/a	n/a
1017531	REC_WORD	wordpools/wasnorm_wordpool_less_exclusions.txt	LTP231	ltpFR	19	7	1	CLOTHES	327	n/a	n/a	0	n/a	n/a	n/a	n/a	n/a
1018531	REC_WORD_VV	wordpools/wasnorm_wordpool_less_exclusions.txt	LTP231	ltpFR	19	7	n/a	<>	-1	n/a	n/a	n/a	n/a	n/a	n/a	n/a	n/a
1018793	REC_WORD	wordpools/wasnorm_wordpool_less_exclusions.txt	LTP231	ltpFR	19	7	1	BRIEFCASE	175	n/a	n/a	0	n/a	n/a	n/a	n/a	n/a
1019783	REC_WORD	wordpools/wasnorm_wordpool_less_exclusions.txt	LTP231	ltpFR	19	7	0	PLASTER	1085	n/a	n/a	1	n/a	n/a	n/a	n/a	n/a
1022081	REC_WORD	wordpools/wasnorm_wordpool_less_exclusions.txt	LTP231	ltpFR	19	7	0	ROBE	1198	n/a	n/a	0	n/a	n/a	n/a	n/a	n/a
1025742	REC_WORD	wordpools/wasnorm_wordpool_less_exclusions.txt	LTP231	ltpFR	19	7	0	COMEDIAN	352	n/a	n/a	1	n/a	n/a	n/a	n/a	n/a
1047683	REC_WORD_VV	wordpools/wasnorm_wordpool_less_exclusions.txt	LTP231	ltpFR	19	7	n/a	<>	-1	n/a	n/a	n/a	n/a	n/a	n/a	n/a	n/a
1048683	REC_WORD_VV	wordpools/wasnorm_wordpool_less_exclusions.txt	LTP231	ltpFR	19	7	n/a	<>	-1	n/a	n/a	n/a	n/a	n/a	n/a	n/a	n/a
1085828	WORD	wordpools/wasnorm_wordpool_less_exclusions.txt	LTP231	ltpFR	19	8	0	ISLAND	745	n/a	n/a	2	0.57763671875	0.412841796875	1	upper	amplitud.ttf
1087538	KEY_MSG	n/a	LTP231	ltpFR	19	8	n/a	n/a	n/a	n/a	n/a	n/a	n/a	n/a	n/a	n/a	n/a
1089981	WORD	wordpools/wasnorm_wordpool_less_exclusions.txt	LTP231	ltpFR	19	8	0	WAVE	1596	n/a	n/a	1	0.57763671875	0.412841796875	1	upper	amplitud.ttf
1093895	WORD	wordpools/wasnorm_wordpool_less_exclusions.txt	LTP231	ltpFR	19	8	0	FEATHER	557	n/a	n/a	0	0.57763671875	0.412841796875	1	upper	amplitud.ttf
1097978	WORD	wordpools/wasnorm_wordpool_less_exclusions.txt	LTP231	ltpFR	19	8	0	SUPERVISOR	1410	n/a	n/a	1	0.57763671875	0.412841796875	1	upper	amplitud.ttf
1102177	WORD	wordpools/wasnorm_wordpool_less_exclusions.txt	LTP231	ltpFR	19	8	0	TOASTER	1472	n/a	n/a	0	0.57763671875	0.412841796875	1	upper	amplitud.ttf
1106339	WORD	wordpools/wasnorm_wordpool_less_exclusions.txt	LTP231	ltpFR	19	8	0	COOKBOOK	373	n/a	n/a	0	0.57763671875	0.412841796875	1	upper	amplitud.ttf
1110375	WORD	wordpools/wasnorm_wordpool_less_exclusions.txt	LTP231	ltpFR	19	8	0	PATROL	1027	n/a	n/a	0	0.57763671875	0.412841796875	1	upper	amplitud.ttf
1114390	WORD	wordpools/wasnorm_wordpool_less_exclusions.txt	LTP231	ltpFR	19	8	0	EMPLOYER	532	n/a	n/a	1	0.57763671875	0.412841796875	1	upper	amplitud.ttf
1118388	WORD	wordpools/wasnorm_wordpool_less_exclusions.txt	LTP231	ltpFR	19	8	0	WORKER	1621	n/a	n/a	1	0.57763671875	0.412841796875	1	upper	amplitud.ttf
1122603	WORD	wordpools/wasnorm_wordpool_less_exclusions.txt	LTP231	ltpFR	19	8	0	SQUIRREL	1362	n/a	n/a	0	0.57763671875	0.412841796875	1	upper	amplitud.ttf
1126447	WORD	wordpools/wasnorm_wordpool_less_exclusions.txt	LTP231	ltpFR	19	8	0	TYPIST	1532	n/a	n/a	1	0.57763671875	0.412841796875	1	upper	amplitud.ttf
1130417	WORD	wordpools/wasnorm_wordpool_less_exclusions.txt	LTP231	ltpFR	19	8	0	KING	777	n/a	n/a	1	0.57763671875	0.412841796875	1	upper	amplitud.ttf
1134248	WORD	wordpools/wasnorm_wordpool_less_exclusions.txt	LTP231	ltpFR	19	8	0	PENGUIN	1044	n/a	n/a	0	0.57763671875	0.412841796875	1	upper	amplitud.ttf
1138263	WORD	wordpools/wasnorm_wordpool_less_exclusions.txt	LTP231	ltpFR	19	8	0	OX	994	n/a	n/a	1	0.57763671875	0.412841796875	1	upper	amplitud.ttf
1142094	WORD	wordpools/wasnorm_wordpool_less_exclusions.txt	LTP231	ltpFR	19	8	0	FAN	551	n/a	n/a	0	0.57763671875	0.412841796875	1	upper	amplitud.ttf
1146059	WORD	wordpools/wasnorm_wordpool_less_exclusions.txt	LTP231	ltpFR	19	8	0	DOORBELL	487	n/a	n/a	0	0.57763671875	0.412841796875	1	upper	amplitud.ttf
1151815	REC_START	n/a	LTP231	ltpFR	19	8	n/a	n/a	n/a	n/a	n/a	n/a	n/a	n/a	n/a	n/a	n/a
1153611	REC_WORD	wordpools/wasnorm_wordpool_less_exclusions.txt	LTP231	ltpFR	19	8	0	DOORBELL	487	n/a	n/a	0	n/a	n/a	n/a	n/a	n/a
1154263	REC_WORD	wordpools/wasnorm_wordpool_less_exclusions.txt	LTP231	ltpFR	19	8	0	FAN	551	n/a	n/a	0	n/a	n/a	n/a	n/a	n/a
1156005	REC_WORD	wordpools/wasnorm_wordpool_less_exclusions.txt	LTP231	ltpFR	19	8	0	EMPLOYER	532	n/a	n/a	1	n/a	n/a	n/a	n/a	n/a
1157025	REC_WORD	wordpools/wasnorm_wordpool_less_exclusions.txt	LTP231	ltpFR	19	8	0	WORKER	1621	n/a	n/a	1	n/a	n/a	n/a	n/a	n/a
1158838	REC_WORD	wordpools/wasnorm_wordpool_less_exclusions.txt	LTP231	ltpFR	19	8	0	SQUIRREL	1362	n/a	n/a	0	n/a	n/a	n/a	n/a	n/a
1159838	REC_WORD_VV	wordpools/wasnorm_wordpool_less_exclusions.txt	LTP231	ltpFR	19	8	n/a	<>	-1	n/a	n/a	n/a	n/a	n/a	n/a	n/a	n/a
1160285	REC_WORD	wordpools/wasnorm_wordpool_less_exclusions.txt	LTP231	ltpFR	19	8	0	SUPERVISOR	1410	n/a	n/a	1	n/a	n/a	n/a	n/a	n/a
1161285	REC_WORD_VV	wordpools/wasnorm_wordpool_less_exclusions.txt	LTP231	ltpFR	19	8	n/a	<>	-1	n/a	n/a	n/a	n/a	n/a	n/a	n/a	n/a
1162695	REC_WORD	wordpools/wasnorm_wordpool_less_exclusions.txt	LTP231	ltpFR	19	8	0	ISLAND	745	n/a	n/a	2	n/a	n/a	n/a	n/a	n/a
1163691	REC_WORD	wordpools/wasnorm_wordpool_less_exclusions.txt	LTP231	ltpFR	19	8	0	WAVE	1596	n/a	n/a	1	n/a	n/a	n/a	n/a	n/a
1164788	REC_WORD	wordpools/wasnorm_wordpool_less_exclusions.txt	LTP231	ltpFR	19	8	0	FEATHER	557	n/a	n/a	0	n/a	n/a	n/a	n/a	n/a
1165788	REC_WORD_VV	wordpools/wasnorm_wordpool_less_exclusions.txt	LTP231	ltpFR	19	8	n/a	<>	-1	n/a	n/a	n/a	n/a	n/a	n/a	n/a	n/a
1238140	WORD	wordpools/wasnorm_wordpool_less_exclusions.txt	LTP231	ltpFR	19	9	0	FRIEND	606	n/a	n/a	0	0.57763671875	0.412841796875	1	upper	amplitud.ttf
1242222	WORD	wordpools/wasnorm_wordpool_less_exclusions.txt	LTP231	ltpFR	19	9	0	GUEST	669	n/a	n/a	1	0.57763671875	0.412841796875	1	upper	amplitud.ttf
1246371	WORD	wordpools/wasnorm_wordpool_less_exclusions.txt	LTP231	ltpFR	19	9	0	CHIMNEY	301	n/a	n/a	1	0.57763671875	0.412841796875	1	upper	amplitud.ttf
1250569	WORD	wordpools/wasnorm_wordpool_less_exclusions.txt	LTP231	ltpFR	19	9	0	CATTLE	261	n/a	n/a	1	0.57763671875	0.412841796875	1	upper	amplitud.ttf
1254484	WORD	wordpools/wasnorm_wordpool_less_exclusions.txt	LTP231	ltpFR	19	9	0	ZOO	1637	n/a	n/a	1	0.57763671875	0.412841796875	1	upper	amplitud.ttf
1258416	WORD	wordpools/wasnorm_wordpool_less_exclusions.txt	LTP231	ltpFR	19	9	0	SCREWDRIVER	1255	n/a	n/a	0	0.57763671875	0.412841796875	1	upper	amplitud.ttf
1262514	WORD	wordpools/wasnorm_wordpool_less_exclusions.txt	LTP231	ltpFR	19	9	0	POLICE	1098	n/a	n/a	1	0.57763671875	0.412841796875	1	upper	amplitud.ttf
1266413	WORD	wordpools/wasnorm_wordpool_less_exclusions.txt	LTP231	ltpFR	19	9	0	SKATE	1313	n/a	n/a	0	0.57763671875	0.412841796875	1	upper	amplitud.ttf
1270461	WORD	wordpools/wasnorm_wordpool_less_exclusions.txt	LTP231	ltpFR	19	9	0	IGLOO	734	n/a	n/a	1	0.57763671875	0.412841796875	1	upper	amplitud.ttf
1274609	WORD	wordpools/wasnorm_wordpool_less_exclusions.txt	LTP231	ltpFR	19	9	0	MECHANIC	884	n/a	n/a	1	0.57763671875	0.412841796875	1	upper	amplitud.ttf
1278692	WORD	wordpools/wasnorm_wordpool_less_exclusions.txt	LTP231	ltpFR	19	9	0	VEAL	1551	n/a	n/a	0	0.57763671875	0.412841796875	1	upper	amplitud.ttf
1282656	WORD	wordpools/wasnorm_wordpool_less_exclusions.txt	LTP231	ltpFR	19	9	0	ROBIN	1199	n/a	n/a	1	0.57763671875	0.412841796875	1	upper	amplitud.ttf
1286789	WORD	wordpools/wasnorm_wordpool_less_exclusions.txt	LTP231	ltpFR	19	9	0	SHORTCAKE	1292	n/a	n/a	0	0.57763671875	0.412841796875	1	upper	amplitud.ttf
1290817	WORD	wordpools/wasnorm_wordpool_less_exclusions.txt	LTP231	ltpFR	19	9	0	ALLIGATOR	16	n/a	n/a	1	0.57763671875	0.412841796875	1	upper	amplitud.ttf
1294919	WORD	wordpools/wasnorm_wordpool_less_exclusions.txt	LTP231	ltpFR	19	9	0	TOWER	1490	n/a	n/a	1	0.57763671875	0.412841796875	1	upper	amplitud.ttf
1299053	WORD	wordpools/wasnorm_wordpool_less_exclusions.txt	LTP231	ltpFR	19	9	0	EMERALD	528	n/a	n/a	0	0.57763671875	0.412841796875	1	upper	amplitud.ttf
1305110	REC_START	n/a	LTP231	ltpFR	19	9	n/a	n/a	n/a	n/a	n/a	n/a	n/a	n/a	n/a	n/a	n/a
1307220	REC_WORD	wordpools/wasnorm_wordpool_less_exclusions.txt	LTP231	ltpFR	19	9	0	EMERALD	528	n/a	n/a	0	n/a	n/a	n/a	n/a	n/a
1307742	REC_WORD	wordpools/wasnorm_wordpool_less_exclusions.txt	LTP231	ltpFR	19	9	0	ALLIGATOR	16	n/a	n/a	1	n/a	n/a	n/a	n/a	n/a
1308602	REC_WORD	wordpools/wasnorm_wordpool_less_exclusions.txt	LTP231	ltpFR	19	9	n/a	TIGER	1467	n/a	n/a	n/a	n/a	n/a	n/a	n/a	n/a
1309209	REC_WORD	wordpools/wasnorm_wordpool_less_exclusions.txt	LTP231	ltpFR	19	9	0	SKATE	1313	n/a	n/a	0	n/a	n/a	n/a	n/a	n/a
1321753	REC_WORD_VV	wordpools/wasnorm_wordpool_less_exclusions.txt	LTP231	ltpFR	19	9	n/a	<>	-1	n/a	n/a	n/a	n/a	n/a	n/a	n/a	n/a
1322753	REC_WORD_VV	wordpools/wasnorm_wordpool_less_exclusions.txt	LTP231	ltpFR	19	9	n/a	<>	-1	n/a	n/a	n/a	n/a	n/a	n/a	n/a	n/a
1323753	REC_WORD_VV	wordpools/wasnorm_wordpool_less_exclusions.txt	LTP231	ltpFR	19	9	n/a	<>	-1	n/a	n/a	n/a	n/a	n/a	n/a	n/a	n/a
1387369	WORD	wordpools/wasnorm_wordpool_less_exclusions.txt	LTP231	ltpFR	19	10	0	CONCERT	360	n/a	n/a	1	0.57763671875	0.412841796875	1	upper	amplitud.ttf
1391233	WORD	wordpools/wasnorm_wordpool_less_exclusions.txt	LTP231	ltpFR	19	10	0	TROMBONE	1508	n/a	n/a	1	0.57763671875	0.412841796875	1	upper	amplitud.ttf
1395215	WORD	wordpools/wasnorm_wordpool_less_exclusions.txt	LTP231	ltpFR	19	10	0	POND	1101	n/a	n/a	0	0.57763671875	0.412841796875	1	upper	amplitud.ttf
1399180	WORD	wordpools/wasnorm_wordpool_less_exclusions.txt	LTP231	ltpFR	19	10	0	NOSE	957	n/a	n/a	0	0.57763671875	0.412841796875	1	upper	amplitud.ttf
1403124	WORD	wordpools/wasnorm_wordpool_less_exclusions.txt	LTP231	ltpFR	19	10	0	ASSISTANT	48	n/a	n/a	1	0.57763671875	0.412841796875	1	upper	amplitud.ttf
1407257	WORD	wordpools/wasnorm_wordpool_less_exclusions.txt	LTP231	ltpFR	19	10	0	FORT	595	n/a	n/a	1	0.57763671875	0.412841796875	1	upper	amplitud.ttf
1411125	WORD	wordpools/wasnorm_wordpool_less_exclusions.txt	LTP231	ltpFR	19	10	0	CONTRACT	368	n/a	n/a	0	0.57763671875	0.412841796875	1	upper	amplitud.ttf
1415320	WORD	wordpools/wasnorm_wordpool_less_exclusions.txt	LTP231	ltpFR	19	10	0	EMPLOYEE	531	n/a	n/a	1	0.57763671875	0.412841796875	1	upper	amplitud.ttf
1419239	WORD	wordpools/wasnorm_wordpool_less_exclusions.txt	LTP231	ltpFR	19	10	0	CAB	209	n/a	n/a	1	0.57763671875	0.412841796875	1	upper	amplitud.ttf
1423254	WORD	wordpools/wasnorm_wordpool_less_exclusions.txt	LTP231	ltpFR	19	10	0	MUG	930	n/a	n/a	0	0.57763671875	0.412841796875	1	upper	amplitud.ttf
1427435	WORD	wordpools/wasnorm_wordpool_less_exclusions.txt	LTP231	ltpFR	19	10	0	BOUQUET	157	n/a	n/a	0	0.57763671875	0.412841796875	1	upper	amplitud.ttf
1431618	WORD	wordpools/wasnorm_wordpool_less_exclusions.txt	LTP231	ltpFR	19	10	0	STEAM	1375	n/a	n/a	0	0.57763671875	0.412841796875	1	upper	amplitud.ttf
1435717	WORD	wordpools/wasnorm_wordpool_less_exclusions.txt	LTP231	ltpFR	19	10	0	CHECKERS	285	n/a	n/a	0	0.57763671875	0.412841796875	1	upper	amplitud.ttf
1439715	WORD	wordpools/wasnorm_wordpool_less_exclusions.txt	LTP231	ltpFR	19	10	0	DASHBOARD	441	n/a	n/a	1	0.57763671875	0.412841796875	1	upper	amplitud.ttf
1443697	WORD	wordpools/wasnorm_wordpool_less_exclusions.txt	LTP231	ltpFR	19	10	0	WALL	1582	n/a	n/a	1	0.57763671875	0.412841796875	1	upper	amplitud.ttf
1447913	WORD	wordpools/wasnorm_wordpool_less_exclusions.txt	LTP231	ltpFR	19	10	0	DRAWING	494	n/a	n/a	0	0.57763671875	0.412841796875	1	upper	amplitud.ttf
1453919	REC_START	n/a	LTP231	ltpFR	19	10	n/a	n/a	n/a	n/a	n/a	n/a	n/a	n/a	n/a	n/a	n/a
1455176	REC_WORD	wordpools/wasnorm_wordpool_less_exclusions.txt	LTP231	ltpFR	19	10	0	DRAWING	494	n/a	n/a	0	n/a	n/a	n/a	n/a	n/a
1455965	REC_WORD	wordpools/wasnorm_wordpool_less_exclusions.txt	LTP231	ltpFR	19	10	0	EMPLOYEE	531	n/a	n/a	1	n/a	n/a	n/a	n/a	n/a
1457261	REC_WORD	wordpools/wasnorm_wordpool_less_exclusions.txt	LTP231	ltpFR	19	10	0	ASSISTANT	48	n/a	n/a	1	n/a	n/a	n/a	n/a	n/a
1458174	REC_WORD	wordpools/wasnorm_wordpool_less_exclusions.txt	LTP231	ltpFR	19	10	0	CAB	209	n/a	n/a	1	n/a	n/a	n/a	n/a	n/a
1458910	REC_WORD	wordpools/wasnorm_wordpool_less_exclusions.txt	LTP231	ltpFR	19	10	0	STEAM	1375	n/a	n/a	0	n/a	n/a	n/a	n/a	n/a
1459910	REC_WORD_VV	wordpools/wasnorm_wordpool_less_exclusions.txt	LTP231	ltpFR	19	10	n/a	<>	-1	n/a	n/a	n/a	n/a	n/a	n/a	n/a	n/a
1461487	REC_WORD	wordpools/wasnorm_wordpool_less_exclusions.txt	LTP231	ltpFR	19	10	0	POND	1101	n/a	n/a	0	n/a	n/a	n/a	n/a	n/a
1462385	REC_WORD	wordpools/wasnorm_wordpool_less_exclusions.txt	LTP231	ltpFR	19	10	0	TROMBONE	1508	n/a	n/a	1	n/a	n/a	n/a	n/a	n/a
1463385	REC_WORD_VV	wordpools/wasnorm_wordpool_less_exclusions.txt	LTP231	ltpFR	19	10	n/a	<>	-1	n/a	n/a	n/a	n/a	n/a	n/a	n/a	n/a
1463692	REC_WORD	wordpools/wasnorm_wordpool_less_exclusions.txt	LTP231	ltpFR	19	10	n/a	ORCHESTRA	981	n/a	n/a	n/a	n/a	n/a	n/a	n/a	n/a
1464692	REC_WORD_VV	wordpools/wasnorm_wordpool_less_exclusions.txt	LTP231	ltpFR	19	10	n/a	<>	-1	n/a	n/a	n/a	n/a	n/a	n/a	n/a	n/a
1465807	REC_WORD	wordpools/wasnorm_wordpool_less_exclusions.txt	LTP231	ltpFR	19	10	0	NOSE	957	n/a	n/a	0	n/a	n/a	n/a	n/a	n/a
1466758	REC_WORD	wordpools/wasnorm_wordpool_less_exclusions.txt	LTP231	ltpFR	19	10	0	ASSISTANT	48	n/a	n/a	1	n/a	n/a	n/a	n/a	n/a
1467758	REC_WORD_VV	wordpools/wasnorm_wordpool_less_exclusions.txt	LTP231	ltpFR	19	10	n/a	<>	-1	n/a	n/a	n/a	n/a	n/a	n/a	n/a	n/a
1468830	REC_WORD	wordpools/wasnorm_wordpool_less_exclusions.txt	LTP231	ltpFR	19	10	0	CAB	209	n/a	n/a	1	n/a	n/a	n/a	n/a	n/a
1471334	REC_WORD	wordpools/wasnorm_wordpool_less_exclusions.txt	LTP231	ltpFR	19	10	0	CONTRACT	368	n/a	n/a	0	n/a	n/a	n/a	n/a	n/a
1472334	REC_WORD_VV	wordpools/wasnorm_wordpool_less_exclusions.txt	LTP231	ltpFR	19	10	n/a	<>	-1	n/a	n/a	n/a	n/a	n/a	n/a	n/a	n/a
1474400	REC_WORD	wordpools/wasnorm_wordpool_less_exclusions.txt	LTP231	ltpFR	19	10	0	EMPLOYEE	531	n/a	n/a	1	n/a	n/a	n/a	n/a	n/a
1475400	REC_WORD_VV	wordpools/wasnorm_wordpool_less_exclusions.txt	LTP231	ltpFR	19	10	n/a	<>	-1	n/a	n/a	n/a	n/a	n/a	n/a	n/a	n/a
1486353	REC_WORD	wordpools/wasnorm_wordpool_less_exclusions.txt	LTP231	ltpFR	19	10	0	WALL	1582	n/a	n/a	1	n/a	n/a	n/a	n/a	n/a
1491160	REC_WORD_VV	wordpools/wasnorm_wordpool_less_exclusions.txt	LTP231	ltpFR	19	10	n/a	<>	-1	n/a	n/a	n/a	n/a	n/a	n/a	n/a	n/a
1492160	REC_WORD_VV	wordpools/wasnorm_wordpool_less_exclusions.txt	LTP231	ltpFR	19	10	n/a	<>	-1	n/a	n/a	n/a	n/a	n/a	n/a	n/a	n/a
1493160	REC_WORD_VV	wordpools/wasnorm_wordpool_less_exclusions.txt	LTP231	ltpFR	19	10	n/a	<>	-1	n/a	n/a	n/a	n/a	n/a	n/a	n/a	n/a
1494160	REC_WORD_VV	wordpools/wasnorm_wordpool_less_exclusions.txt	LTP231	ltpFR	19	10	n/a	<>	-1	n/a	n/a	n/a	n/a	n/a	n/a	n/a	n/a
1576510	WORD	wordpools/wasnorm_wordpool_less_exclusions.txt	LTP231	ltpFR	19	11	1	RACCOON	1153	n/a	n/a	1	0.422607421875	0.5869140625	0	lower	zerothre.ttf
1580396	WORD	wordpools/wasnorm_wordpool_less_exclusions.txt	LTP231	ltpFR	19	11	1	ONION	977	n/a	n/a	0	0.422607421875	0.5869140625	0	lower	zerothre.ttf
1584328	WORD	wordpools/wasnorm_wordpool_less_exclusions.txt	LTP231	ltpFR	19	11	1	ATTORNEY	58	n/a	n/a	1	0.422607421875	0.5869140625	0	lower	zerothre.ttf
1588159	WORD	wordpools/wasnorm_wordpool_less_exclusions.txt	LTP231	ltpFR	19	11	1	SPRINKLE	1359	n/a	n/a	0	0.422607421875	0.5869140625	0	lower	zerothre.ttf
1592291	WORD	wordpools/wasnorm_wordpool_less_exclusions.txt	LTP231	ltpFR	19	11	1	ELF	525	n/a	n/a	1	0.422607421875	0.5869140625	0	lower	zerothre.ttf
1596373	WORD	wordpools/wasnorm_wordpool_less_exclusions.txt	LTP231	ltpFR	19	11	1	DWARF	510	n/a	n/a	1	0.422607421875	0.5869140625	0	lower	zerothre.ttf
1600204	WORD	wordpools/wasnorm_wordpool_less_exclusions.txt	LTP231	ltpFR	19	11	1	MOUSE	925	n/a	n/a	n/a	0.422607421875	0.5869140625	0	lower	zerothre.ttf
1603249	SLOW_MSG	n/a	LTP231	ltpFR	19	11	n/a	n/a	n/a	n/a	n/a	n/a	n/a	n/a	n/a	n/a	n/a
1605590	WORD	wordpools/wasnorm_wordpool_less_exclusions.txt	LTP231	ltpFR	19	11	1	INCENSE	735	n/a	n/a	0	0.422607421875	0.5869140625	0	lower	zerothre.ttf
1609455	WORD	wordpools/wasnorm_wordpool_less_exclusions.txt	LTP231	ltpFR	19	11	1	PUDDLE	1140	n/a	n/a	0	0.422607421875	0.5869140625	0	lower	zerothre.ttf
1613570	WORD	wordpools/wasnorm_wordpool_less_exclusions.txt	LTP231	ltpFR	19	11	1	LIZARD	834	n/a	n/a	1	0.422607421875	0.5869140625	0	lower	zerothre.ttf
1617669	WORD	wordpools/wasnorm_wordpool_less_exclusions.txt	LTP231	ltpFR	19	11	1	PARTY	1018	n/a	n/a	0	0.422607421875	0.5869140625	0	lower	zerothre.ttf
1621881	WORD	wordpools/wasnorm_wordpool_less_exclusions.txt	LTP231	ltpFR	19	11	1	LABYRINTH	791	n/a	n/a	1	0.422607421875	0.5869140625	0	lower	zerothre.ttf
1625964	WORD	wordpools/wasnorm_wordpool_less_exclusions.txt	LTP231	ltpFR	19	11	1	CHISEL	305	n/a	n/a	0	0.422607421875	0.5869140625	0	lower	zerothre.ttf
1630000	WORD	wordpools/wasnorm_wordpool_less_exclusions.txt	LTP231	ltpFR	19	11	1	SAW	1239	n/a	n/a	0	0.422607421875	0.5869140625	0	lower	zerothre.ttf
1633893	WORD	wordpools/wasnorm_wordpool_less_exclusions.txt	LTP231	ltpFR	19	11	1	WRITER	1627	n/a	n/a	1	0.422607421875	0.5869140625	0	lower	zerothre.ttf
1637891	WORD	wordpools/wasnorm_wordpool_less_exclusions.txt	LTP231	ltpFR	19	11	1	PASSAGE	1019	n/a	n/a	0	0.422607421875	0.5869140625	0	lower	zerothre.ttf
1643647	REC_START	n/a	LTP231	ltpFR	19	11	n/a	n/a	n/a	n/a	n/a	n/a	n/a	n/a	n/a	n/a	n/a
1645493	REC_WORD	wordpools/wasnorm_wordpool_less_exclusions.txt	LTP231	ltpFR	19	11	1	LABYRINTH	791	n/a	n/a	1	n/a	n/a	n/a	n/a	n/a
1646296	REC_WORD	wordpools/wasnorm_wordpool_less_exclusions.txt	LTP231	ltpFR	19	11	1	PASSAGE	1019	n/a	n/a	0	n/a	n/a	n/a	n/a	n/a
1647015	REC_WORD	wordpools/wasnorm_wordpool_less_exclusions.txt	LTP231	ltpFR	19	11	1	WRITER	1627	n/a	n/a	1	n/a	n/a	n/a	n/a	n/a
1647637	REC_WORD	wordpools/wasnorm_wordpool_less_exclusions.txt	LTP231	ltpFR	19	11	1	SAW	1239	n/a	n/a	0	n/a	n/a	n/a	n/a	n/a
1648371	REC_WORD	wordpools/wasnorm_wordpool_less_exclusions.txt	LTP231	ltpFR	19	11	1	CHISEL	305	n/a	n/a	0	n/a	n/a	n/a	n/a	n/a
1649033	REC_WORD	wordpools/wasnorm_wordpool_less_exclusions.txt	LTP231	ltpFR	19	11	1	LIZARD	834	n/a	n/a	1	n/a	n/a	n/a	n/a	n/a
1653419	REC_WORD	wordpools/wasnorm_wordpool_less_exclusions.txt	LTP231	ltpFR	19	11	1	ATTORNEY	58	n/a	n/a	1	n/a	n/a	n/a	n/a	n/a
1654026	REC_WORD	wordpools/wasnorm_wordpool_less_exclusions.txt	LTP231	ltpFR	19	11	1	SPRINKLE	1359	n/a	n/a	0	n/a	n/a	n/a	n/a	n/a
1661536	REC_WORD	wordpools/wasnorm_wordpool_less_exclusions.txt	LTP231	ltpFR	19	11	1	ELF	525	n/a	n/a	1	n/a	n/a	n/a	n/a	n/a
1662200	REC_WORD	wordpools/wasnorm_wordpool_less_exclusions.txt	LTP231	ltpFR	19	11	1	DWARF	510	n/a	n/a	1	n/a	n/a	n/a	n/a	n/a
1664345	REC_WORD	wordpools/wasnorm_wordpool_less_exclusions.txt	LTP231	ltpFR	19	11	1	MOUSE	925	n/a	n/a	n/a	n/a	n/a	n/a	n/a	n/a
1666762	REC_WORD	wordpools/wasnorm_wordpool_less_exclusions.txt	LTP231	ltpFR	19	11	1	PUDDLE	1140	n/a	n/a	0	n/a	n/a	n/a	n/a	n/a
1669433	REC_WORD	wordpools/wasnorm_wordpool_less_exclusions.txt	LTP231	ltpFR	19	11	1	ONION	977	n/a	n/a	0	n/a	n/a	n/a	n/a	n/a
1729943	WORD	wordpools/wasnorm_wordpool_less_exclusions.txt	LTP231	ltpFR	19	12	0	COSTUME	383	n/a	n/a	2	0.57763671875	0.412841796875	1	upper	amplitud.ttf
1732535	KEY_MSG	n/a	LTP231	ltpFR	19	12	n/a	n/a	n/a	n/a	n/a	n/a	n/a	n/a	n/a	n/a	n/a
1734945	WORD	wordpools/wasnorm_wordpool_less_exclusions.txt	LTP231	ltpFR	19	12	0	COUGAR	387	n/a	n/a	1	0.57763671875	0.412841796875	1	upper	amplitud.ttf
1739111	WORD	wordpools/wasnorm_wordpool_less_exclusions.txt	LTP231	ltpFR	19	12	0	LITTER	832	n/a	n/a	0	0.57763671875	0.412841796875	1	upper	amplitud.ttf
1743206	WORD	wordpools/wasnorm_wordpool_less_exclusions.txt	LTP231	ltpFR	19	12	0	ABDOMEN	1	n/a	n/a	0	0.57763671875	0.412841796875	1	upper	amplitud.ttf
1747158	WORD	wordpools/wasnorm_wordpool_less_exclusions.txt	LTP231	ltpFR	19	12	1	QUARTER	1148	n/a	n/a	0	0.422607421875	0.5869140625	0	lower	zerothre.ttf
1751340	WORD	wordpools/wasnorm_wordpool_less_exclusions.txt	LTP231	ltpFR	19	12	1	BIKE	125	n/a	n/a	0	0.422607421875	0.5869140625	0	lower	zerothre.ttf
1755172	WORD	wordpools/wasnorm_wordpool_less_exclusions.txt	LTP231	ltpFR	19	12	0	SOCIETY	1338	n/a	n/a	1	0.57763671875	0.412841796875	1	upper	amplitud.ttf
1759086	WORD	wordpools/wasnorm_wordpool_less_exclusions.txt	LTP231	ltpFR	19	12	0	COMMITTEE	355	n/a	n/a	1	0.57763671875	0.412841796875	1	upper	amplitud.ttf
1763101	WORD	wordpools/wasnorm_wordpool_less_exclusions.txt	LTP231	ltpFR	19	12	0	CAT	257	n/a	n/a	0	0.57763671875	0.412841796875	1	upper	amplitud.ttf
1767284	WORD	wordpools/wasnorm_wordpool_less_exclusions.txt	LTP231	ltpFR	19	12	0	REFEREE	1178	n/a	n/a	1	0.57763671875	0.412841796875	1	upper	amplitud.ttf
1771148	WORD	wordpools/wasnorm_wordpool_less_exclusions.txt	LTP231	ltpFR	19	12	1	FIELD	562	n/a	n/a	0	0.422607421875	0.5869140625	0	lower	zerothre.ttf
1775297	WORD	wordpools/wasnorm_wordpool_less_exclusions.txt	LTP231	ltpFR	19	12	1	COW	393	n/a	n/a	1	0.422607421875	0.5869140625	0	lower	zerothre.ttf
1779296	WORD	wordpools/wasnorm_wordpool_less_exclusions.txt	LTP231	ltpFR	19	12	1	DIARY	460	n/a	n/a	0	0.422607421875	0.5869140625	0	lower	zerothre.ttf
1783190	WORD	wordpools/wasnorm_wordpool_less_exclusions.txt	LTP231	ltpFR	19	12	1	UNDERWEAR	1537	n/a	n/a	0	0.422607421875	0.5869140625	0	lower	zerothre.ttf
1787276	WORD	wordpools/wasnorm_wordpool_less_exclusions.txt	LTP231	ltpFR	19	12	1	ANGEL	22	n/a	n/a	1	0.422607421875	0.5869140625	0	lower	zerothre.ttf
1791408	WORD	wordpools/wasnorm_wordpool_less_exclusions.txt	LTP231	ltpFR	19	12	1	CHEST	295	n/a	n/a	0	0.422607421875	0.5869140625	0	lower	zerothre.ttf
1797244	REC_START	n/a	LTP231	ltpFR	19	12	n/a	n/a	n/a	n/a	n/a	n/a	n/a	n/a	n/a	n/a	n/a
1798661	REC_WORD	wordpools/wasnorm_wordpool_less_exclusions.txt	LTP231	ltpFR	19	12	1	CHEST	295	n/a	n/a	0	n/a	n/a	n/a	n/a	n/a
1800210	REC_WORD	wordpools/wasnorm_wordpool_less_exclusions.txt	LTP231	ltpFR	19	12	1	ANGEL	22	n/a	n/a	1	n/a	n/a	n/a	n/a	n/a
1803395	REC_WORD	wordpools/wasnorm_wordpool_less_exclusions.txt	LTP231	ltpFR	19	12	0	CAT	257	n/a	n/a	0	n/a	n/a	n/a	n/a	n/a
1804383	REC_WORD	wordpools/wasnorm_wordpool_less_exclusions.txt	LTP231	ltpFR	19	12	0	COUGAR	387	n/a	n/a	1	n/a	n/a	n/a	n/a	n/a
1805031	REC_WORD	wordpools/wasnorm_wordpool_less_exclusions.txt	LTP231	ltpFR	19	12	0	LITTER	832	n/a	n/a	0	n/a	n/a	n/a	n/a	n/a
1809286	REC_WORD	wordpools/wasnorm_wordpool_less_exclusions.txt	LTP231	ltpFR	19	12	0	ABDOMEN	1	n/a	n/a	0	n/a	n/a	n/a	n/a	n/a
1812343	REC_WORD	wordpools/wasnorm_wordpool_less_exclusions.txt	LTP231	ltpFR	19	12	1	QUARTER	1148	n/a	n/a	0	n/a	n/a	n/a	n/a	n/a
1813836	REC_WORD	wordpools/wasnorm_wordpool_less_exclusions.txt	LTP231	ltpFR	19	12	1	BIKE	125	n/a	n/a	0	n/a	n/a	n/a	n/a	n/a
1814407	REC_WORD	wordpools/wasnorm_wordpool_less_exclusions.txt	LTP231	ltpFR	19	12	0	SOCIETY	1338	n/a	n/a	1	n/a	n/a	n/a	n/a	n/a
1815407	REC_WORD_VV	wordpools/wasnorm_wordpool_less_exclusions.txt	LTP231	ltpFR	19	12	n/a	<>	-1	n/a	n/a	n/a	n/a	n/a	n/a	n/a	n/a
1825346	REC_WORD_VV	wordpools/wasnorm_wordpool_less_exclusions.txt	LTP231	ltpFR	19	12	n/a	<>	-1	n/a	n/a	n/a	n/a	n/a	n/a	n/a	n/a
1826346	REC_WORD_VV	wordpools/wasnorm_wordpool_less_exclusions.txt	LTP231	ltpFR	19	12	n/a	<>	-1	n/a	n/a	n/a	n/a	n/a	n/a	n/a	n/a
1827346	REC_WORD_VV	wordpools/wasnorm_wordpool_less_exclusions.txt	LTP231	ltpFR	19	12	n/a	<>	-1	n/a	n/a	n/a	n/a	n/a	n/a	n/a	n/a
1828667	REC_WORD	wordpools/wasnorm_wordpool_less_exclusions.txt	LTP231	ltpFR	19	12	0	COMMITTEE	355	n/a	n/a	1	n/a	n/a	n/a	n/a	n/a
1872894	REST_REWET	n/a	LTP231	ltpFR	19	12	n/a	n/a	n/a	n/a	n/a	n/a	n/a	n/a	n/a	n/a	n/a
2384125	WORD	wordpools/wasnorm_wordpool_less_exclusions.txt	LTP231	ltpFR	19	13	1	SERGEANT	1269	n/a	n/a	1	0.422607421875	0.5869140625	0	lower	zerothre.ttf
2388124	WORD	wordpools/wasnorm_wordpool_less_exclusions.txt	LTP231	ltpFR	19	13	1	MOVIE	927	n/a	n/a	0	0.422607421875	0.5869140625	0	lower	zerothre.ttf
2392089	WORD	wordpools/wasnorm_wordpool_less_exclusions.txt	LTP231	ltpFR	19	13	1	WARRIOR	1589	n/a	n/a	1	0.422607421875	0.5869140625	0	lower	zerothre.ttf
2396171	WORD	wordpools/wasnorm_wordpool_less_exclusions.txt	LTP231	ltpFR	19	13	1	GENTLEMAN	631	n/a	n/a	1	0.422607421875	0.5869140625	0	lower	zerothre.ttf
2400387	WORD	wordpools/wasnorm_wordpool_less_exclusions.txt	LTP231	ltpFR	19	13	1	FOREHEAD	592	n/a	n/a	0	0.422607421875	0.5869140625	0	lower	zerothre.ttf
2404385	WORD	wordpools/wasnorm_wordpool_less_exclusions.txt	LTP231	ltpFR	19	13	1	TOWEL	1489	n/a	n/a	1	0.422607421875	0.5869140625	0	lower	zerothre.ttf
2408579	WORD	wordpools/wasnorm_wordpool_less_exclusions.txt	LTP231	ltpFR	19	13	1	WASHCLOTH	1591	n/a	n/a	0	0.422607421875	0.5869140625	0	lower	zerothre.ttf
2412548	WORD	wordpools/wasnorm_wordpool_less_exclusions.txt	LTP231	ltpFR	19	13	1	BEARD	107	n/a	n/a	0	0.422607421875	0.5869140625	0	lower	zerothre.ttf
2416697	WORD	wordpools/wasnorm_wordpool_less_exclusions.txt	LTP231	ltpFR	19	13	1	RAM	1165	n/a	n/a	1	0.422607421875	0.5869140625	0	lower	zerothre.ttf
2420629	WORD	wordpools/wasnorm_wordpool_less_exclusions.txt	LTP231	ltpFR	19	13	1	FRAME	600	n/a	n/a	0	0.422607421875	0.5869140625	0	lower	zerothre.ttf
2424493	WORD	wordpools/wasnorm_wordpool_less_exclusions.txt	LTP231	ltpFR	19	13	1	VIDEO	1564	n/a	n/a	0	0.422607421875	0.5869140625	0	lower	zerothre.ttf
2428409	WORD	wordpools/wasnorm_wordpool_less_exclusions.txt	LTP231	ltpFR	19	13	1	DAM	436	n/a	n/a	0	0.422607421875	0.5869140625	0	lower	zerothre.ttf
2432307	WORD	wordpools/wasnorm_wordpool_less_exclusions.txt	LTP231	ltpFR	19	13	1	MARSH	874	n/a	n/a	0	0.422607421875	0.5869140625	0	lower	zerothre.ttf
2436455	WORD	wordpools/wasnorm_wordpool_less_exclusions.txt	LTP231	ltpFR	19	13	1	ARROW	40	n/a	n/a	0	0.422607421875	0.5869140625	0	lower	zerothre.ttf
2440304	WORD	wordpools/wasnorm_wordpool_less_exclusions.txt	LTP231	ltpFR	19	13	1	GLASS	639	n/a	n/a	0	0.422607421875	0.5869140625	0	lower	zerothre.ttf
2444168	WORD	wordpools/wasnorm_wordpool_less_exclusions.txt	LTP231	ltpFR	19	13	1	POSSUM	1112	n/a	n/a	1	0.422607421875	0.5869140625	0	lower	zerothre.ttf
2450007	REC_START	n/a	LTP231	ltpFR	19	13	n/a	n/a	n/a	n/a	n/a	n/a	n/a	n/a	n/a	n/a	n/a
2450695	REC_WORD	wordpools/wasnorm_wordpool_less_exclusions.txt	LTP231	ltpFR	19	13	1	POSSUM	1112	n/a	n/a	1	n/a	n/a	n/a	n/a	n/a
2451343	REC_WORD	wordpools/wasnorm_wordpool_less_exclusions.txt	LTP231	ltpFR	19	13	1	ARROW	40	n/a	n/a	0	n/a	n/a	n/a	n/a	n/a
2452092	REC_WORD	wordpools/wasnorm_wordpool_less_exclusions.txt	LTP231	ltpFR	19	13	1	GLASS	639	n/a	n/a	0	n/a	n/a	n/a	n/a	n/a
2452850	REC_WORD	wordpools/wasnorm_wordpool_less_exclusions.txt	LTP231	ltpFR	19	13	1	BEARD	107	n/a	n/a	0	n/a	n/a	n/a	n/a	n/a
2453476	REC_WORD	wordpools/wasnorm_wordpool_less_exclusions.txt	LTP231	ltpFR	19	13	1	FRAME	600	n/a	n/a	0	n/a	n/a	n/a	n/a	n/a
2454716	REC_WORD	wordpools/wasnorm_wordpool_less_exclusions.txt	LTP231	ltpFR	19	13	1	RAM	1165	n/a	n/a	1	n/a	n/a	n/a	n/a	n/a
2455424	REC_WORD	wordpools/wasnorm_wordpool_less_exclusions.txt	LTP231	ltpFR	19	13	1	GENTLEMAN	631	n/a	n/a	1	n/a	n/a	n/a	n/a	n/a
2456377	REC_WORD	wordpools/wasnorm_wordpool_less_exclusions.txt	LTP231	ltpFR	19	13	1	WARRIOR	1589	n/a	n/a	1	n/a	n/a	n/a	n/a	n/a
2457083	REC_WORD	wordpools/wasnorm_wordpool_less_exclusions.txt	LTP231	ltpFR	19	13	1	MOVIE	927	n/a	n/a	0	n/a	n/a	n/a	n/a	n/a
2457836	REC_WORD	wordpools/wasnorm_wordpool_less_exclusions.txt	LTP231	ltpFR	19	13	1	SERGEANT	1269	n/a	n/a	1	n/a	n/a	n/a	n/a	n/a
2532684	WORD	wordpools/wasnorm_wordpool_less_exclusions.txt	LTP231	ltpFR	19	14	-1	CARD	243	n/a	n/a	-1	1.0	1.0	1	upper	Verdana.ttf
2536666	WORD	wordpools/wasnorm_wordpool_less_exclusions.txt	LTP231	ltpFR	19	14	-1	MARGARINE	868	n/a	n/a	-1	1.0	1.0	1	upper	Verdana.ttf
2540761	WORD	wordpools/wasnorm_wordpool_less_exclusions.txt	LTP231	ltpFR	19	14	-1	VASE	1549	n/a	n/a	-1	1.0	1.0	1	upper	Verdana.ttf
2544763	WORD	wordpools/wasnorm_wordpool_less_exclusions.txt	LTP231	ltpFR	19	14	-1	CLAY	320	n/a	n/a	-1	1.0	1.0	1	upper	Verdana.ttf
2548908	WORD	wordpools/wasnorm_wordpool_less_exclusions.txt	LTP231	ltpFR	19	14	-1	HAND	683	n/a	n/a	-1	1.0	1.0	1	upper	Verdana.ttf
2553012	WORD	wordpools/wasnorm_wordpool_less_exclusions.txt	LTP231	ltpFR	19	14	-1	TOENAIL	1474	n/a	n/a	-1	1.0	1.0	1	upper	Verdana.ttf
2557057	WORD	wordpools/wasnorm_wordpool_less_exclusions.txt	LTP231	ltpFR	19	14	-1	VINE	1568	n/a	n/a	-1	1.0	1.0	1	upper	Verdana.ttf
2560992	WORD	wordpools/wasnorm_wordpool_less_exclusions.txt	LTP231	ltpFR	19	14	-1	NERVE	944	n/a	n/a	-1	1.0	1.0	1	upper	Verdana.ttf
2565191	WORD	wordpools/wasnorm_wordpool_less_exclusions.txt	LTP231	ltpFR	19	14	-1	WHEAT	1602	n/a	n/a	-1	1.0	1.0	1	upper	Verdana.ttf
2569173	WORD	wordpools/wasnorm_wordpool_less_exclusions.txt	LTP231	ltpFR	19	14	-1	CHESS	294	n/a	n/a	-1	1.0	1.0	1	upper	Verdana.ttf
2573238	WORD	wordpools/wasnorm_wordpool_less_exclusions.txt	LTP231	ltpFR	19	14	-1	BROOK	177	n/a	n/a	-1	1.0	1.0	1	upper	Verdana.ttf
2577270	WORD	wordpools/wasnorm_wordpool_less_exclusions.txt	LTP231	ltpFR	19	14	-1	CELLAR	267	n/a	n/a	-1	1.0	1.0	1	upper	Verdana.ttf
2581134	WORD	wordpools/wasnorm_wordpool_less_exclusions.txt	LTP231	ltpFR	19	14	-1	JEWEL	757	n/a	n/a	-1	1.0	1.0	1	upper	Verdana.ttf
2585317	WORD	wordpools/wasnorm_wordpool_less_exclusions.txt	LTP231	ltpFR	19	14	-1	WATER	1594	n/a	n/a	-1	1.0	1.0	1	upper	Verdana.ttf
2589328	WORD	wordpools/wasnorm_wordpool_less_exclusions.txt	LTP231	ltpFR	19	14	-1	PAIL	1002	n/a	n/a	-1	1.0	1.0	1	upper	Verdana.ttf
2593226	WORD	wordpools/wasnorm_wordpool_less_exclusions.txt	LTP231	ltpFR	19	14	-1	INTESTINE	742	n/a	n/a	-1	1.0	1.0	1	upper	Verdana.ttf
2599120	REC_START	n/a	LTP231	ltpFR	19	14	n/a	n/a	n/a	n/a	n/a	n/a	n/a	n/a	n/a	n/a	n/a
2599664	REC_WORD	wordpools/wasnorm_wordpool_less_exclusions.txt	LTP231	ltpFR	19	14	-1	INTESTINE	742	n/a	n/a	-1	n/a	n/a	n/a	n/a	n/a
2600696	REC_WORD	wordpools/wasnorm_wordpool_less_exclusions.txt	LTP231	ltpFR	19	14	-1	PAIL	1002	n/a	n/a	-1	n/a	n/a	n/a	n/a	n/a
2601275	REC_WORD	wordpools/wasnorm_wordpool_less_exclusions.txt	LTP231	ltpFR	19	14	-1	WATER	1594	n/a	n/a	-1	n/a	n/a	n/a	n/a	n/a
2602223	REC_WORD	wordpools/wasnorm_wordpool_less_exclusions.txt	LTP231	ltpFR	19	14	-1	BROOK	177	n/a	n/a	-1	n/a	n/a	n/a	n/a	n/a
2602881	REC_WORD	wordpools/wasnorm_wordpool_less_exclusions.txt	LTP231	ltpFR	19	14	-1	CHESS	294	n/a	n/a	-1	n/a	n/a	n/a	n/a	n/a
2604273	REC_WORD	wordpools/wasnorm_wordpool_less_exclusions.txt	LTP231	ltpFR	19	14	-1	WHEAT	1602	n/a	n/a	-1	n/a	n/a	n/a	n/a	n/a
2608309	REC_WORD	wordpools/wasnorm_wordpool_less_exclusions.txt	LTP231	ltpFR	19	14	-1	TOENAIL	1474	n/a	n/a	-1	n/a	n/a	n/a	n/a	n/a
2609084	REC_WORD	wordpools/wasnorm_wordpool_less_exclusions.txt	LTP231	ltpFR	19	14	-1	CLAY	320	n/a	n/a	-1	n/a	n/a	n/a	n/a	n/a
2609639	REC_WORD	wordpools/wasnorm_wordpool_less_exclusions.txt	LTP231	ltpFR	19	14	-1	HAND	683	n/a	n/a	-1	n/a	n/a	n/a	n/a	n/a
2610469	REC_WORD	wordpools/wasnorm_wordpool_less_exclusions.txt	LTP231	ltpFR	19	14	-1	VASE	1549	n/a	n/a	-1	n/a	n/a	n/a	n/a	n/a
2612040	REC_WORD	wordpools/wasnorm_wordpool_less_exclusions.txt	LTP231	ltpFR	19	14	-1	MARGARINE	868	n/a	n/a	-1	n/a	n/a	n/a	n/a	n/a
2614934	REC_WORD	wordpools/wasnorm_wordpool_less_exclusions.txt	LTP231	ltpFR	19	14	-1	CARD	243	n/a	n/a	-1	n/a	n/a	n/a	n/a	n/a
2635319	REC_WORD	wordpools/wasnorm_wordpool_less_exclusions.txt	LTP231	ltpFR	19	14	-1	CELLAR	267	n/a	n/a	-1	n/a	n/a	n/a	n/a	n/a
2636325	REC_WORD	wordpools/wasnorm_wordpool_less_exclusions.txt	LTP231	ltpFR	19	14	-1	JEWEL	757	n/a	n/a	-1	n/a	n/a	n/a	n/a	n/a
2680174	WORD	wordpools/wasnorm_wordpool_less_exclusions.txt	LTP231	ltpFR	19	15	1	VALLEY	1545	n/a	n/a	0	0.422607421875	0.5869140625	0	lower	zerothre.ttf
2684320	WORD	wordpools/wasnorm_wordpool_less_exclusions.txt	LTP231	ltpFR	19	15	1	NAVIGATOR	938	n/a	n/a	1	0.422607421875	0.5869140625	0	lower	zerothre.ttf
2688368	WORD	wordpools/wasnorm_wordpool_less_exclusions.txt	LTP231	ltpFR	19	15	1	BILL	126	n/a	n/a	0	0.422607421875	0.5869140625	0	lower	zerothre.ttf
2692516	WORD	wordpools/wasnorm_wordpool_less_exclusions.txt	LTP231	ltpFR	19	15	1	SHEPHERD	1283	n/a	n/a	1	0.422607421875	0.5869140625	0	lower	zerothre.ttf
2696385	WORD	wordpools/wasnorm_wordpool_less_exclusions.txt	LTP231	ltpFR	19	15	1	PIANO	1057	n/a	n/a	0	0.422607421875	0.5869140625	0	lower	zerothre.ttf
2700250	WORD	wordpools/wasnorm_wordpool_less_exclusions.txt	LTP231	ltpFR	19	15	1	CORPORATION	382	n/a	n/a	0	0.422607421875	0.5869140625	0	lower	zerothre.ttf
2704098	WORD	wordpools/wasnorm_wordpool_less_exclusions.txt	LTP231	ltpFR	19	15	1	SLACKS	1323	n/a	n/a	0	0.422607421875	0.5869140625	0	lower	zerothre.ttf
2708143	WORD	wordpools/wasnorm_wordpool_less_exclusions.txt	LTP231	ltpFR	19	15	1	WORM	1623	n/a	n/a	1	0.422607421875	0.5869140625	0	lower	zerothre.ttf
2712312	WORD	wordpools/wasnorm_wordpool_less_exclusions.txt	LTP231	ltpFR	19	15	1	BOOK	149	n/a	n/a	0	0.422607421875	0.5869140625	0	lower	zerothre.ttf
2716361	WORD	wordpools/wasnorm_wordpool_less_exclusions.txt	LTP231	ltpFR	19	15	1	SAGE	1222	n/a	n/a	1	0.422607421875	0.5869140625	0	lower	zerothre.ttf
2720272	WORD	wordpools/wasnorm_wordpool_less_exclusions.txt	LTP231	ltpFR	19	15	1	HERB	704	n/a	n/a	1	0.422607421875	0.5869140625	0	lower	zerothre.ttf
2724224	WORD	wordpools/wasnorm_wordpool_less_exclusions.txt	LTP231	ltpFR	19	15	1	DINNER	468	n/a	n/a	0	0.422607421875	0.5869140625	0	lower	zerothre.ttf
2728138	WORD	wordpools/wasnorm_wordpool_less_exclusions.txt	LTP231	ltpFR	19	15	1	WHALE	1601	n/a	n/a	1	0.422607421875	0.5869140625	0	lower	zerothre.ttf
2732187	WORD	wordpools/wasnorm_wordpool_less_exclusions.txt	LTP231	ltpFR	19	15	1	PIKE	1067	n/a	n/a	0	0.422607421875	0.5869140625	0	lower	zerothre.ttf
2736135	WORD	wordpools/wasnorm_wordpool_less_exclusions.txt	LTP231	ltpFR	19	15	1	GUITAR	670	n/a	n/a	0	0.422607421875	0.5869140625	0	lower	zerothre.ttf
2740117	WORD	wordpools/wasnorm_wordpool_less_exclusions.txt	LTP231	ltpFR	19	15	1	CHIPMUNK	304	n/a	n/a	1	0.422607421875	0.5869140625	0	lower	zerothre.ttf
2746023	REC_START	n/a	LTP231	ltpFR	19	15	n/a	n/a	n/a	n/a	n/a	n/a	n/a	n/a	n/a	n/a	n/a
2747619	REC_WORD	wordpools/wasnorm_wordpool_less_exclusions.txt	LTP231	ltpFR	19	15	1	CHIPMUNK	304	n/a	n/a	1	n/a	n/a	n/a	n/a	n/a
2748397	REC_WORD	wordpools/wasnorm_wordpool_less_exclusions.txt	LTP231	ltpFR	19	15	1	PIKE	1067	n/a	n/a	0	n/a	n/a	n/a	n/a	n/a
2749061	REC_WORD	wordpools/wasnorm_wordpool_less_exclusions.txt	LTP231	ltpFR	19	15	1	WHALE	1601	n/a	n/a	1	n/a	n/a	n/a	n/a	n/a
2750692	REC_WORD	wordpools/wasnorm_wordpool_less_exclusions.txt	LTP231	ltpFR	19	15	1	CORPORATION	382	n/a	n/a	0	n/a	n/a	n/a	n/a	n/a
2751579	REC_WORD	wordpools/wasnorm_wordpool_less_exclusions.txt	LTP231	ltpFR	19	15	1	SLACKS	1323	n/a	n/a	0	n/a	n/a	n/a	n/a	n/a
2752448	REC_WORD	wordpools/wasnorm_wordpool_less_exclusions.txt	LTP231	ltpFR	19	15	1	WORM	1623	n/a	n/a	1	n/a	n/a	n/a	n/a	n/a
2761059	REC_WORD	wordpools/wasnorm_wordpool_less_exclusions.txt	LTP231	ltpFR	19	15	1	DINNER	468	n/a	n/a	0	n/a	n/a	n/a	n/a	n/a
2827629	WORD	wordpools/wasnorm_wordpool_less_exclusions.txt	LTP231	ltpFR	19	16	0	MAMMAL	861	n/a	n/a	1	0.57763671875	0.412841796875	1	upper	amplitud.ttf
2831811	WORD	wordpools/wasnorm_wordpool_less_exclusions.txt	LTP231	ltpFR	19	16	0	BOTTLE	153	n/a	n/a	0	0.57763671875	0.412841796875	1	upper	amplitud.ttf
2835773	WORD	wordpools/wasnorm_wordpool_less_exclusions.txt	LTP231	ltpFR	19	16	1	STOMACH	1384	n/a	n/a	0	0.422607421875	0.5869140625	0	lower	zerothre.ttf
2839805	WORD	wordpools/wasnorm_wordpool_less_exclusions.txt	LTP231	ltpFR	19	16	1	CABINET	212	n/a	n/a	0	0.422607421875	0.5869140625	0	lower	zerothre.ttf
2843840	WORD	wordpools/wasnorm_wordpool_less_exclusions.txt	LTP231	ltpFR	19	16	1	CHAMPAGNE	278	n/a	n/a	0	0.422607421875	0.5869140625	0	lower	zerothre.ttf
2847973	WORD	wordpools/wasnorm_wordpool_less_exclusions.txt	LTP231	ltpFR	19	16	1	CREATURE	403	n/a	n/a	1	0.422607421875	0.5869140625	0	lower	zerothre.ttf
2851989	WORD	wordpools/wasnorm_wordpool_less_exclusions.txt	LTP231	ltpFR	19	16	1	PITCHFORK	1078	n/a	n/a	0	0.422607421875	0.5869140625	0	lower	zerothre.ttf
2856137	WORD	wordpools/wasnorm_wordpool_less_exclusions.txt	LTP231	ltpFR	19	16	0	FUR	615	n/a	n/a	1	0.57763671875	0.412841796875	1	upper	amplitud.ttf
2859985	WORD	wordpools/wasnorm_wordpool_less_exclusions.txt	LTP231	ltpFR	19	16	0	HAT	690	n/a	n/a	0	0.57763671875	0.412841796875	1	upper	amplitud.ttf
2864151	WORD	wordpools/wasnorm_wordpool_less_exclusions.txt	LTP231	ltpFR	19	16	0	BANDIT	81	n/a	n/a	1	0.57763671875	0.412841796875	1	upper	amplitud.ttf
2868049	WORD	wordpools/wasnorm_wordpool_less_exclusions.txt	LTP231	ltpFR	19	16	1	OVAL	990	n/a	n/a	1	0.422607421875	0.5869140625	0	lower	zerothre.ttf
2872010	WORD	wordpools/wasnorm_wordpool_less_exclusions.txt	LTP231	ltpFR	19	16	1	BLACKBOARD	133	n/a	n/a	0	0.422607421875	0.5869140625	0	lower	zerothre.ttf
2875962	WORD	wordpools/wasnorm_wordpool_less_exclusions.txt	LTP231	ltpFR	19	16	1	LEOPARD	812	n/a	n/a	1	0.422607421875	0.5869140625	0	lower	zerothre.ttf
2879944	WORD	wordpools/wasnorm_wordpool_less_exclusions.txt	LTP231	ltpFR	19	16	0	LION	827	n/a	n/a	1	0.57763671875	0.412841796875	1	upper	amplitud.ttf
2883942	WORD	wordpools/wasnorm_wordpool_less_exclusions.txt	LTP231	ltpFR	19	16	0	SAND	1230	n/a	n/a	0	0.57763671875	0.412841796875	1	upper	amplitud.ttf
2887906	WORD	wordpools/wasnorm_wordpool_less_exclusions.txt	LTP231	ltpFR	19	16	0	THREAD	1460	n/a	n/a	0	0.57763671875	0.412841796875	1	upper	amplitud.ttf
2893595	REC_START	n/a	LTP231	ltpFR	19	16	n/a	n/a	n/a	n/a	n/a	n/a	n/a	n/a	n/a	n/a	n/a
2894602	REC_WORD	wordpools/wasnorm_wordpool_less_exclusions.txt	LTP231	ltpFR	19	16	0	THREAD	1460	n/a	n/a	0	n/a	n/a	n/a	n/a	n/a
2895171	REC_WORD	wordpools/wasnorm_wordpool_less_exclusions.txt	LTP231	ltpFR	19	16	0	LION	827	n/a	n/a	1	n/a	n/a	n/a	n/a	n/a
2895705	REC_WORD	wordpools/wasnorm_wordpool_less_exclusions.txt	LTP231	ltpFR	19	16	1	LEOPARD	812	n/a	n/a	1	n/a	n/a	n/a	n/a	n/a
2896211	REC_WORD	wordpools/wasnorm_wordpool_less_exclusions.txt	LTP231	ltpFR	19	16	0	SAND	1230	n/a	n/a	0	n/a	n/a	n/a	n/a	n/a
2896885	REC_WORD	wordpools/wasnorm_wordpool_less_exclusions.txt	LTP231	ltpFR	19	16	1	OVAL	990	n/a	n/a	1	n/a	n/a	n/a	n/a	n/a
2900366	REC_WORD_VV	wordpools/wasnorm_wordpool_less_exclusions.txt	LTP231	ltpFR	19	16	n/a	<>	-1	n/a	n/a	n/a	n/a	n/a	n/a	n/a	n/a
2901366	REC_WORD_VV	wordpools/wasnorm_wordpool_less_exclusions.txt	LTP231	ltpFR	19	16	n/a	<>	-1	n/a	n/a	n/a	n/a	n/a	n/a	n/a	n/a
2905483	REC_WORD	wordpools/wasnorm_wordpool_less_exclusions.txt	LTP231	ltpFR	19	16	1	BLACKBOARD	133	n/a	n/a	0	n/a	n/a	n/a	n/a	n/a
2906483	REC_WORD_VV	wordpools/wasnorm_wordpool_less_exclusions.txt	LTP231	ltpFR	19	16	n/a	<>	-1	n/a	n/a	n/a	n/a	n/a	n/a	n/a	n/a
2984421	REC_START	n/a	LTP231	ltpFR	19	n/a	n/a	n/a	n/a	n/a	n/a	n/a	n/a	n/a	n/a	n/a	n/a
2984751	FFR_REC_WORD	wordpools/wasnorm_wordpool_less_exclusions.txt	LTP231	ltpFR	19	n/a	n/a	SUITCASE	1403	n/a	n/a	n/a	n/a	n/a	n/a	n/a	n/a
2985751	FFR_REC_WORD_VV	wordpools/wasnorm_wordpool_less_exclusions.txt	LTP231	ltpFR	19	n/a	n/a	<>	-1	n/a	n/a	n/a	n/a	n/a	n/a	n/a	n/a
2985932	FFR_REC_WORD	wordpools/wasnorm_wordpool_less_exclusions.txt	LTP231	ltpFR	19	n/a	1	RACCOON	1153	n/a	n/a	1	n/a	n/a	n/a	n/a	n/a
2987357	FFR_REC_WORD	wordpools/wasnorm_wordpool_less_exclusions.txt	LTP231	ltpFR	19	n/a	0	SKATE	1313	n/a	n/a	0	n/a	n/a	n/a	n/a	n/a
2988636	FFR_REC_WORD	wordpools/wasnorm_wordpool_less_exclusions.txt	LTP231	ltpFR	19	n/a	-1	CHIMPANZEE	302	n/a	n/a	-1	n/a	n/a	n/a	n/a	n/a
2989636	FFR_REC_WORD_VV	wordpools/wasnorm_wordpool_less_exclusions.txt	LTP231	ltpFR	19	n/a	n/a	<>	-1	n/a	n/a	n/a	n/a	n/a	n/a	n/a	n/a
2990577	FFR_REC_WORD	wordpools/wasnorm_wordpool_less_exclusions.txt	LTP231	ltpFR	19	n/a	0	MAMMAL	861	n/a	n/a	1	n/a	n/a	n/a	n/a	n/a
2991577	FFR_REC_WORD_VV	wordpools/wasnorm_wordpool_less_exclusions.txt	LTP231	ltpFR	19	n/a	n/a	<>	-1	n/a	n/a	n/a	n/a	n/a	n/a	n/a	n/a
2992936	FFR_REC_WORD	wordpools/wasnorm_wordpool_less_exclusions.txt	LTP231	ltpFR	19	n/a	-1	TOENAIL	1474	n/a	n/a	-1	n/a	n/a	n/a	n/a	n/a
2993944	FFR_REC_WORD	wordpools/wasnorm_wordpool_less_exclusions.txt	LTP231	ltpFR	19	n/a	-1	VASE	1549	n/a	n/a	-1	n/a	n/a	n/a	n/a	n/a
2995515	FFR_REC_WORD	wordpools/wasnorm_wordpool_less_exclusions.txt	LTP231	ltpFR	19	n/a	-1	MARGARINE	868	n/a	n/a	-1	n/a	n/a	n/a	n/a	n/a
2996515	FFR_REC_WORD_VV	wordpools/wasnorm_wordpool_less_exclusions.txt	LTP231	ltpFR	19	n/a	n/a	<>	-1	n/a	n/a	n/a	n/a	n/a	n/a	n/a	n/a
2996788	FFR_REC_WORD	wordpools/wasnorm_wordpool_less_exclusions.txt	LTP231	ltpFR	19	n/a	-1	CARD	243	n/a	n/a	-1	n/a	n/a	n/a	n/a	n/a
2997788	FFR_REC_WORD_VV	wordpools/wasnorm_wordpool_less_exclusions.txt	LTP231	ltpFR	19	n/a	n/a	<>	-1	n/a	n/a	n/a	n/a	n/a	n/a	n/a	n/a
3000534	FFR_REC_WORD	wordpools/wasnorm_wordpool_less_exclusions.txt	LTP231	ltpFR	19	n/a	1	AUTOMOBILE	62	n/a	n/a	0	n/a	n/a	n/a	n/a	n/a
3001534	FFR_REC_WORD_VV	wordpools/wasnorm_wordpool_less_exclusions.txt	LTP231	ltpFR	19	n/a	n/a	<>	-1	n/a	n/a	n/a	n/a	n/a	n/a	n/a	n/a
3004036	FFR_REC_WORD	wordpools/wasnorm_wordpool_less_exclusions.txt	LTP231	ltpFR	19	n/a	1	OVAL	990	n/a	n/a	1	n/a	n/a	n/a	n/a	n/a
3005036	FFR_REC_WORD_VV	wordpools/wasnorm_wordpool_less_exclusions.txt	LTP231	ltpFR	19	n/a	n/a	<>	-1	n/a	n/a	n/a	n/a	n/a	n/a	n/a	n/a
3007046	FFR_REC_WORD	wordpools/wasnorm_wordpool_less_exclusions.txt	LTP231	ltpFR	19	n/a	1	SLACKS	1323	n/a	n/a	0	n/a	n/a	n/a	n/a	n/a
3008046	FFR_REC_WORD_VV	wordpools/wasnorm_wordpool_less_exclusions.txt	LTP231	ltpFR	19	n/a	n/a	<>	-1	n/a	n/a	n/a	n/a	n/a	n/a	n/a	n/a
3008571	FFR_REC_WORD	wordpools/wasnorm_wordpool_less_exclusions.txt	LTP231	ltpFR	19	n/a	1	TOOL	1480	n/a	n/a	0	n/a	n/a	n/a	n/a	n/a
3012188	FFR_REC_WORD	wordpools/wasnorm_wordpool_less_exclusions.txt	LTP231	ltpFR	19	n/a	1	ELECTRICIAN	521	n/a	n/a	1	n/a	n/a	n/a	n/a	n/a
3013188	FFR_REC_WORD_VV	wordpools/wasnorm_wordpool_less_exclusions.txt	LTP231	ltpFR	19	n/a	n/a	<>	-1	n/a	n/a	n/a	n/a	n/a	n/a	n/a	n/a
3013729	FFR_REC_WORD	wordpools/wasnorm_wordpool_less_exclusions.txt	LTP231	ltpFR	19	n/a	1	BAND	78	n/a	n/a	0	n/a	n/a	n/a	n/a	n/a
3015854	FFR_REC_WORD	wordpools/wasnorm_wordpool_less_exclusions.txt	LTP231	ltpFR	19	n/a	0	RESTAURANT	1187	n/a	n/a	1	n/a	n/a	n/a	n/a	n/a
3017116	FFR_REC_WORD	wordpools/wasnorm_wordpool_less_exclusions.txt	LTP231	ltpFR	19	n/a	0	DOLLAR	482	n/a	n/a	0	n/a	n/a	n/a	n/a	n/a
3018116	FFR_REC_WORD_VV	wordpools/wasnorm_wordpool_less_exclusions.txt	LTP231	ltpFR	19	n/a	n/a	<>	-1	n/a	n/a	n/a	n/a	n/a	n/a	n/a	n/a
3018967	FFR_REC_WORD	wordpools/wasnorm_wordpool_less_exclusions.txt	LTP231	ltpFR	19	n/a	0	OATMEAL	967	n/a	n/a	0	n/a	n/a	n/a	n/a	n/a
3019967	FFR_REC_WORD_VV	wordpools/wasnorm_wordpool_less_exclusions.txt	LTP231	ltpFR	19	n/a	n/a	<>	-1	n/a	n/a	n/a	n/a	n/a	n/a	n/a	n/a
3024884	FFR_REC_WORD	wordpools/wasnorm_wordpool_less_exclusions.txt	LTP231	ltpFR	19	n/a	-1	BROOK	177	n/a	n/a	-1	n/a	n/a	n/a	n/a	n/a
3025837	FFR_REC_WORD	wordpools/wasnorm_wordpool_less_exclusions.txt	LTP231	ltpFR	19	n/a	-1	CHESS	294	n/a	n/a	-1	n/a	n/a	n/a	n/a	n/a
3026914	FFR_REC_WORD	wordpools/wasnorm_wordpool_less_exclusions.txt	LTP231	ltpFR	19	n/a	-1	PAIL	1002	n/a	n/a	-1	n/a	n/a	n/a	n/a	n/a
3028261	FFR_REC_WORD	wordpools/wasnorm_wordpool_less_exclusions.txt	LTP231	ltpFR	19	n/a	-1	WATER	1594	n/a	n/a	-1	n/a	n/a	n/a	n/a	n/a
3028982	FFR_REC_WORD	wordpools/wasnorm_wordpool_less_exclusions.txt	LTP231	ltpFR	19	n/a	-1	CELLAR	267	n/a	n/a	-1	n/a	n/a	n/a	n/a	n/a
3029982	FFR_REC_WORD_VV	wordpools/wasnorm_wordpool_less_exclusions.txt	LTP231	ltpFR	19	n/a	n/a	<>	-1	n/a	n/a	n/a	n/a	n/a	n/a	n/a	n/a
3030401	FFR_REC_WORD	wordpools/wasnorm_wordpool_less_exclusions.txt	LTP231	ltpFR	19	n/a	-1	JEWEL	757	n/a	n/a	-1	n/a	n/a	n/a	n/a	n/a
3032367	FFR_REC_WORD	wordpools/wasnorm_wordpool_less_exclusions.txt	LTP231	ltpFR	19	n/a	-1	TANGERINE	1431	n/a	n/a	-1	n/a	n/a	n/a	n/a	n/a
3033367	FFR_REC_WORD_VV	wordpools/wasnorm_wordpool_less_exclusions.txt	LTP231	ltpFR	19	n/a	n/a	<>	-1	n/a	n/a	n/a	n/a	n/a	n/a	n/a	n/a
3039895	FFR_REC_WORD	wordpools/wasnorm_wordpool_less_exclusions.txt	LTP231	ltpFR	19	n/a	0	PORCUPINE	1107	n/a	n/a	1	n/a	n/a	n/a	n/a	n/a
3040895	FFR_REC_WORD_VV	wordpools/wasnorm_wordpool_less_exclusions.txt	LTP231	ltpFR	19	n/a	n/a	<>	-1	n/a	n/a	n/a	n/a	n/a	n/a	n/a	n/a
3043569	FFR_REC_WORD	wordpools/wasnorm_wordpool_less_exclusions.txt	LTP231	ltpFR	19	n/a	1	CREW	406	n/a	n/a	0	n/a	n/a	n/a	n/a	n/a
3044763	FFR_REC_WORD	wordpools/wasnorm_wordpool_less_exclusions.txt	LTP231	ltpFR	19	n/a	-1	HOSTESS	723	n/a	n/a	-1	n/a	n/a	n/a	n/a	n/a
3045780	FFR_REC_WORD	wordpools/wasnorm_wordpool_less_exclusions.txt	LTP231	ltpFR	19	n/a	-1	FLY	586	n/a	n/a	-1	n/a	n/a	n/a	n/a	n/a
3046780	FFR_REC_WORD_VV	wordpools/wasnorm_wordpool_less_exclusions.txt	LTP231	ltpFR	19	n/a	n/a	<>	-1	n/a	n/a	n/a	n/a	n/a	n/a	n/a	n/a
3047343	FFR_REC_WORD	wordpools/wasnorm_wordpool_less_exclusions.txt	LTP231	ltpFR	19	n/a	-1	REEF	1177	n/a	n/a	-1	n/a	n/a	n/a	n/a	n/a
3048735	FFR_REC_WORD	wordpools/wasnorm_wordpool_less_exclusions.txt	LTP231	ltpFR	19	n/a	-1	ATMOSPHERE	54	n/a	n/a	-1	n/a	n/a	n/a	n/a	n/a
3049735	FFR_REC_WORD_VV	wordpools/wasnorm_wordpool_less_exclusions.txt	LTP231	ltpFR	19	n/a	n/a	<>	-1	n/a	n/a	n/a	n/a	n/a	n/a	n/a	n/a
3053249	FFR_REC_WORD	wordpools/wasnorm_wordpool_less_exclusions.txt	LTP231	ltpFR	19	n/a	-1	SNORKEL	1336	n/a	n/a	-1	n/a	n/a	n/a	n/a	n/a
3054249	FFR_REC_WORD_VV	wordpools/wasnorm_wordpool_less_exclusions.txt	LTP231	ltpFR	19	n/a	n/a	<>	-1	n/a	n/a	n/a	n/a	n/a	n/a	n/a	n/a
3054552	FFR_REC_WORD	wordpools/wasnorm_wordpool_less_exclusions.txt	LTP231	ltpFR	19	n/a	0	SKATE	1313	n/a	n/a	0	n/a	n/a	n/a	n/a	n/a
3170915	FFR_REC_WORD	wordpools/wasnorm_wordpool_less_exclusions.txt	LTP231	ltpFR	19	n/a	-1	PICNIC	1060	n/a	n/a	-1	n/a	n/a	n/a	n/a	n/a
3314098	REC_START	n/a	LTP231	ltpFR	19	1	n/a	n/a	n/a	n/a	n/a	n/a	n/a	n/a	n/a	n/a	n/a
3314147	RECOG_LURE	n/a	LTP231	ltpFR	19	1	n/a	CELLO	268	0	5	n/a	n/a	n/a	n/a	n/a	n/a
3316926	RECOG_RESP	n/a	LTP231	ltpFR	19	1	n/a	CELLO	268	0	n/a	n/a	n/a	n/a	n/a	n/a	n/a
3318124	RECOG_CONF	n/a	LTP231	ltpFR	19	1	n/a	CELLO	268	n/a	5	n/a	n/a	n/a	n/a	n/a	n/a
3320250	RECOG_LURE	n/a	LTP231	ltpFR	19	1	n/a	HOOP	716	0	5	n/a	n/a	n/a	n/a	n/a	n/a
3321497	RECOG_RESP	n/a	LTP231	ltpFR	19	1	n/a	HOOP	716	0	n/a	n/a	n/a	n/a	n/a	n/a	n/a
3322589	RECOG_CONF	n/a	LTP231	ltpFR	19	1	n/a	HOOP	716	n/a	5	n/a	n/a	n/a	n/a	n/a	n/a
3324598	RECOG_TARGET	n/a	LTP231	ltpFR	19	1	1	FIELD	562	0	3	0	n/a	n/a	n/a	n/a	n/a
3325494	RECOG_RESP	n/a	LTP231	ltpFR	19	1	1	FIELD	562	0	n/a	0	n/a	n/a	n/a	n/a	n/a
3326394	RECOG_CONF	n/a	LTP231	ltpFR	19	1	1	FIELD	562	n/a	3	0	n/a	n/a	n/a	n/a	n/a
3328317	RECOG_TARGET	n/a	LTP231	ltpFR	19	1	-1	BENCH	121	1	4	-1	n/a	n/a	n/a	n/a	n/a
3329164	RECOG_RESP	n/a	LTP231	ltpFR	19	1	-1	BENCH	121	1	n/a	-1	n/a	n/a	n/a	n/a	n/a
3330163	RECOG_CONF	n/a	LTP231	ltpFR	19	1	-1	BENCH	121	n/a	4	-1	n/a	n/a	n/a	n/a	n/a
3332198	RECOG_TARGET	n/a	LTP231	ltpFR	19	1	1	MOVIE	927	1	4	0	n/a	n/a	n/a	n/a	n/a
3333391	RECOG_RESP	n/a	LTP231	ltpFR	19	1	1	MOVIE	927	1	n/a	0	n/a	n/a	n/a	n/a	n/a
3334447	RECOG_CONF	n/a	LTP231	ltpFR	19	1	1	MOVIE	927	n/a	4	0	n/a	n/a	n/a	n/a	n/a
3336381	RECOG_TARGET	n/a	LTP231	ltpFR	19	1	1	BRIEFCASE	175	1	4	0	n/a	n/a	n/a	n/a	n/a
3337118	RECOG_RESP	n/a	LTP231	ltpFR	19	1	1	BRIEFCASE	175	1	n/a	0	n/a	n/a	n/a	n/a	n/a
3338143	RECOG_CONF	n/a	LTP231	ltpFR	19	1	1	BRIEFCASE	175	n/a	4	0	n/a	n/a	n/a	n/a	n/a
3340178	RECOG_TARGET	n/a	LTP231	ltpFR	19	1	0	WORKER	1621	1	4	1	n/a	n/a	n/a	n/a	n/a
3341060	RECOG_RESP	n/a	LTP231	ltpFR	19	1	0	WORKER	1621	1	n/a	1	n/a	n/a	n/a	n/a	n/a
3342092	RECOG_CONF	n/a	LTP231	ltpFR	19	1	0	WORKER	1621	n/a	4	1	n/a	n/a	n/a	n/a	n/a
3344194	RECOG_TARGET	n/a	LTP231	ltpFR	19	1	-1	ATMOSPHERE	54	1	5	-1	n/a	n/a	n/a	n/a	n/a
3345034	RECOG_RESP	n/a	LTP231	ltpFR	19	1	-1	ATMOSPHERE	54	1	n/a	-1	n/a	n/a	n/a	n/a	n/a
3346090	RECOG_CONF	n/a	LTP231	ltpFR	19	1	-1	ATMOSPHERE	54	n/a	5	-1	n/a	n/a	n/a	n/a	n/a
3348058	RECOG_LURE	n/a	LTP231	ltpFR	19	1	n/a	FLESH	579	0	4	n/a	n/a	n/a	n/a	n/a	n/a
3349043	RECOG_RESP	n/a	LTP231	ltpFR	19	1	n/a	FLESH	579	0	n/a	n/a	n/a	n/a	n/a	n/a	n/a
3350031	RECOG_CONF	n/a	LTP231	ltpFR	19	1	n/a	FLESH	579	n/a	4	n/a	n/a	n/a	n/a	n/a	n/a
3351922	RECOG_LURE	n/a	LTP231	ltpFR	19	1	n/a	COURT	391	0	2	n/a	n/a	n/a	n/a	n/a	n/a
3353364	RECOG_RESP	n/a	LTP231	ltpFR	19	1	n/a	COURT	391	0	n/a	n/a	n/a	n/a	n/a	n/a	n/a
3354510	RECOG_CONF	n/a	LTP231	ltpFR	19	1	n/a	COURT	391	n/a	2	n/a	n/a	n/a	n/a	n/a	n/a
3356489	RECOG_TARGET	n/a	LTP231	ltpFR	19	1	0	MOAT	903	1	4	1	n/a	n/a	n/a	n/a	n/a
3357422	RECOG_RESP	n/a	LTP231	ltpFR	19	1	0	MOAT	903	1	n/a	1	n/a	n/a	n/a	n/a	n/a
3358443	RECOG_CONF	n/a	LTP231	ltpFR	19	1	0	MOAT	903	n/a	4	1	n/a	n/a	n/a	n/a	n/a
3360517	RECOG_TARGET	n/a	LTP231	ltpFR	19	1	-1	REEF	1177	1	4	-1	n/a	n/a	n/a	n/a	n/a
3361457	RECOG_RESP	n/a	LTP231	ltpFR	19	1	-1	REEF	1177	1	n/a	-1	n/a	n/a	n/a	n/a	n/a
3362433	RECOG_CONF	n/a	LTP231	ltpFR	19	1	-1	REEF	1177	n/a	4	-1	n/a	n/a	n/a	n/a	n/a
3364519	RECOG_TARGET	n/a	LTP231	ltpFR	19	1	1	ONION	977	1	4	0	n/a	n/a	n/a	n/a	n/a
3365764	RECOG_RESP	n/a	LTP231	ltpFR	19	1	1	ONION	977	1	n/a	0	n/a	n/a	n/a	n/a	n/a
3366785	RECOG_CONF	n/a	LTP231	ltpFR	19	1	1	ONION	977	n/a	4	0	n/a	n/a	n/a	n/a	n/a
3368785	RECOG_TARGET	n/a	LTP231	ltpFR	19	1	-1	SHRINE	1298	1	4	-1	n/a	n/a	n/a	n/a	n/a
3369625	RECOG_RESP	n/a	LTP231	ltpFR	19	1	-1	SHRINE	1298	1	n/a	-1	n/a	n/a	n/a	n/a	n/a
3370620	RECOG_CONF	n/a	LTP231	ltpFR	19	1	-1	SHRINE	1298	n/a	4	-1	n/a	n/a	n/a	n/a	n/a
3372683	RECOG_LURE	n/a	LTP231	ltpFR	19	1	n/a	SADDLE	1221	0	5	n/a	n/a	n/a	n/a	n/a	n/a
3373498	RECOG_RESP	n/a	LTP231	ltpFR	19	1	n/a	SADDLE	1221	0	n/a	n/a	n/a	n/a	n/a	n/a	n/a
3374465	RECOG_CONF	n/a	LTP231	ltpFR	19	1	n/a	SADDLE	1221	n/a	5	n/a	n/a	n/a	n/a	n/a	n/a
3376431	RECOG_TARGET	n/a	LTP231	ltpFR	19	1	0	SKATE	1313	1	4	0	n/a	n/a	n/a	n/a	n/a
3379110	RECOG_RESP	n/a	LTP231	ltpFR	19	1	0	SKATE	1313	1	n/a	0	n/a	n/a	n/a	n/a	n/a
3380133	RECOG_CONF	n/a	LTP231	ltpFR	19	1	0	SKATE	1313	n/a	4	0	n/a	n/a	n/a	n/a	n/a
3382254	RECOG_TARGET	n/a	LTP231	ltpFR	19	1	0	PLASTER	1085	1	4	1	n/a	n/a	n/a	n/a	n/a
3384038	RECOG_RESP	n/a	LTP231	ltpFR	19	1	0	PLASTER	1085	1	n/a	1	n/a	n/a	n/a	n/a	n/a
3385063	RECOG_CONF	n/a	LTP231	ltpFR	19	1	0	PLASTER	1085	n/a	4	1	n/a	n/a	n/a	n/a	n/a
3387122	RECOG_TARGET	n/a	LTP231	ltpFR	19	1	0	FEATHER	557	1	4	0	n/a	n/a	n/a	n/a	n/a
3388639	RECOG_RESP	n/a	LTP231	ltpFR	19	1	0	FEATHER	557	1	n/a	0	n/a	n/a	n/a	n/a	n/a
3389634	RECOG_CONF	n/a	LTP231	ltpFR	19	1	0	FEATHER	557	n/a	4	0	n/a	n/a	n/a	n/a	n/a
3391768	RECOG_TARGET	n/a	LTP231	ltpFR	19	1	1	SOCKET	1340	1	4	0	n/a	n/a	n/a	n/a	n/a
3392568	RECOG_RESP	n/a	LTP231	ltpFR	19	1	1	SOCKET	1340	1	n/a	0	n/a	n/a	n/a	n/a	n/a
3393553	RECOG_CONF	n/a	LTP231	ltpFR	19	1	1	SOCKET	1340	n/a	4	0	n/a	n/a	n/a	n/a	n/a
3395436	RECOG_LURE	n/a	LTP231	ltpFR	19	1	n/a	SKELETON	1314	0	3	n/a	n/a	n/a	n/a	n/a	n/a
3396335	RECOG_RESP	n/a	LTP231	ltpFR	19	1	n/a	SKELETON	1314	0	n/a	n/a	n/a	n/a	n/a	n/a	n/a
3397244	RECOG_CONF	n/a	LTP231	ltpFR	19	1	n/a	SKELETON	1314	n/a	3	n/a	n/a	n/a	n/a	n/a	n/a
3400617	REC_START	n/a	LTP231	ltpFR	19	2	n/a	n/a	n/a	n/a	n/a	n/a	n/a	n/a	n/a	n/a	n/a
3400672	RECOG_LURE	n/a	LTP231	ltpFR	19	2	n/a	CORAL	378	1	1	n/a	n/a	n/a	n/a	n/a	n/a
3402055	RECOG_RESP	n/a	LTP231	ltpFR	19	2	n/a	CORAL	378	1	n/a	n/a	n/a	n/a	n/a	n/a	n/a
3403259	RECOG_CONF	n/a	LTP231	ltpFR	19	2	n/a	CORAL	378	n/a	1	n/a	n/a	n/a	n/a	n/a	n/a
3405224	RECOG_TARGET	n/a	LTP231	ltpFR	19	2	-1	SILK	1307	1	4	-1	n/a	n/a	n/a	n/a	n/a
3406117	RECOG_RESP	n/a	LTP231	ltpFR	19	2	-1	SILK	1307	1	n/a	-1	n/a	n/a	n/a	n/a	n/a
3407140	RECOG_CONF	n/a	LTP231	ltpFR	19	2	-1	SILK	1307	n/a	4	-1	n/a	n/a	n/a	n/a	n/a
3409255	RECOG_LURE	n/a	LTP231	ltpFR	19	2	n/a	TEENAGER	1444	0	2	n/a	n/a	n/a	n/a	n/a	n/a
3410226	RECOG_RESP	n/a	LTP231	ltpFR	19	2	n/a	TEENAGER	1444	0	n/a	n/a	n/a	n/a	n/a	n/a	n/a
3411154	RECOG_CONF	n/a	LTP231	ltpFR	19	2	n/a	TEENAGER	1444	n/a	2	n/a	n/a	n/a	n/a	n/a	n/a
3413003	RECOG_TARGET	n/a	LTP231	ltpFR	19	2	0	ROBE	1198	1	4	0	n/a	n/a	n/a	n/a	n/a
3413937	RECOG_RESP	n/a	LTP231	ltpFR	19	2	0	ROBE	1198	1	n/a	0	n/a	n/a	n/a	n/a	n/a
3414627	RECOG_CONF	n/a	LTP231	ltpFR	19	2	0	ROBE	1198	n/a	4	0	n/a	n/a	n/a	n/a	n/a
3416461	RECOG_TARGET	n/a	LTP231	ltpFR	19	2	1	ATTORNEY	58	1	4	1	n/a	n/a	n/a	n/a	n/a
3417270	RECOG_RESP	n/a	LTP231	ltpFR	19	2	1	ATTORNEY	58	1	n/a	1	n/a	n/a	n/a	n/a	n/a
3418072	RECOG_CONF	n/a	LTP231	ltpFR	19	2	1	ATTORNEY	58	n/a	4	1	n/a	n/a	n/a	n/a	n/a
3419757	RECOG_LURE	n/a	LTP231	ltpFR	19	2	n/a	ROACH	1195	0	3	n/a	n/a	n/a	n/a	n/a	n/a
3420587	RECOG_RESP	n/a	LTP231	ltpFR	19	2	n/a	ROACH	1195	0	n/a	n/a	n/a	n/a	n/a	n/a	n/a
3421353	RECOG_CONF	n/a	LTP231	ltpFR	19	2	n/a	ROACH	1195	n/a	3	n/a	n/a	n/a	n/a	n/a	n/a
3423141	RECOG_LURE	n/a	LTP231	ltpFR	19	2	n/a	FILM	565	1	2	n/a	n/a	n/a	n/a	n/a	n/a
3424184	RECOG_RESP	n/a	LTP231	ltpFR	19	2	n/a	FILM	565	1	n/a	n/a	n/a	n/a	n/a	n/a	n/a
3424918	RECOG_CONF	n/a	LTP231	ltpFR	19	2	n/a	FILM	565	n/a	2	n/a	n/a	n/a	n/a	n/a	n/a
3426570	RECOG_LURE	n/a	LTP231	ltpFR	19	2	n/a	LEVER	815	0	4	n/a	n/a	n/a	n/a	n/a	n/a
3427857	RECOG_RESP	n/a	LTP231	ltpFR	19	2	n/a	LEVER	815	0	n/a	n/a	n/a	n/a	n/a	n/a	n/a
3428599	RECOG_CONF	n/a	LTP231	ltpFR	19	2	n/a	LEVER	815	n/a	4	n/a	n/a	n/a	n/a	n/a	n/a
3430352	RECOG_TARGET	n/a	LTP231	ltpFR	19	2	-1	GIRAFFE	636	1	4	-1	n/a	n/a	n/a	n/a	n/a
3431083	RECOG_RESP	n/a	LTP231	ltpFR	19	2	-1	GIRAFFE	636	1	n/a	-1	n/a	n/a	n/a	n/a	n/a
3431877	RECOG_CONF	n/a	LTP231	ltpFR	19	2	-1	GIRAFFE	636	n/a	4	-1	n/a	n/a	n/a	n/a	n/a
3433513	RECOG_TARGET	n/a	LTP231	ltpFR	19	2	1	BUFFALO	186	1	4	1	n/a	n/a	n/a	n/a	n/a
3434410	RECOG_RESP	n/a	LTP231	ltpFR	19	2	1	BUFFALO	186	1	n/a	1	n/a	n/a	n/a	n/a	n/a
3435175	RECOG_CONF	n/a	LTP231	ltpFR	19	2	1	BUFFALO	186	n/a	4	1	n/a	n/a	n/a	n/a	n/a
3436858	RECOG_LURE	n/a	LTP231	ltpFR	19	2	n/a	GALLON	618	0	3	n/a	n/a	n/a	n/a	n/a	n/a
3437905	RECOG_RESP	n/a	LTP231	ltpFR	19	2	n/a	GALLON	618	0	n/a	n/a	n/a	n/a	n/a	n/a	n/a
3438646	RECOG_CONF	n/a	LTP231	ltpFR	19	2	n/a	GALLON	618	n/a	3	n/a	n/a	n/a	n/a	n/a	n/a
3440506	RECOG_LURE	n/a	LTP231	ltpFR	19	2	n/a	APPENDAGE	32	0	5	n/a	n/a	n/a	n/a	n/a	n/a
3441718	RECOG_RESP	n/a	LTP231	ltpFR	19	2	n/a	APPENDAGE	32	0	n/a	n/a	n/a	n/a	n/a	n/a	n/a
3442410	RECOG_CONF	n/a	LTP231	ltpFR	19	2	n/a	APPENDAGE	32	n/a	5	n/a	n/a	n/a	n/a	n/a	n/a
3444133	RECOG_TARGET	n/a	LTP231	ltpFR	19	2	0	ABDOMEN	1	1	4	0	n/a	n/a	n/a	n/a	n/a
3445017	RECOG_RESP	n/a	LTP231	ltpFR	19	2	0	ABDOMEN	1	1	n/a	0	n/a	n/a	n/a	n/a	n/a
3445818	RECOG_CONF	n/a	LTP231	ltpFR	19	2	0	ABDOMEN	1	n/a	4	0	n/a	n/a	n/a	n/a	n/a
3447549	RECOG_LURE	n/a	LTP231	ltpFR	19	2	n/a	RUG	1215	1	1	n/a	n/a	n/a	n/a	n/a	n/a
3448420	RECOG_RESP	n/a	LTP231	ltpFR	19	2	n/a	RUG	1215	1	n/a	n/a	n/a	n/a	n/a	n/a	n/a
3449149	RECOG_CONF	n/a	LTP231	ltpFR	19	2	n/a	RUG	1215	n/a	1	n/a	n/a	n/a	n/a	n/a	n/a
3450811	RECOG_TARGET	n/a	LTP231	ltpFR	19	2	-1	RAKE	1164	1	3	-1	n/a	n/a	n/a	n/a	n/a
3451910	RECOG_RESP	n/a	LTP231	ltpFR	19	2	-1	RAKE	1164	1	n/a	-1	n/a	n/a	n/a	n/a	n/a
3452693	RECOG_CONF	n/a	LTP231	ltpFR	19	2	-1	RAKE	1164	n/a	3	-1	n/a	n/a	n/a	n/a	n/a
3454325	RECOG_LURE	n/a	LTP231	ltpFR	19	2	n/a	BROTHER	179	0	2	n/a	n/a	n/a	n/a	n/a	n/a
3455749	RECOG_RESP	n/a	LTP231	ltpFR	19	2	n/a	BROTHER	179	0	n/a	n/a	n/a	n/a	n/a	n/a	n/a
3456524	RECOG_CONF	n/a	LTP231	ltpFR	19	2	n/a	BROTHER	179	n/a	2	n/a	n/a	n/a	n/a	n/a	n/a
3458340	RECOG_TARGET	n/a	LTP231	ltpFR	19	2	1	WHALE	1601	1	4	1	n/a	n/a	n/a	n/a	n/a
3459130	RECOG_RESP	n/a	LTP231	ltpFR	19	2	1	WHALE	1601	1	n/a	1	n/a	n/a	n/a	n/a	n/a
3459842	RECOG_CONF	n/a	LTP231	ltpFR	19	2	1	WHALE	1601	n/a	4	1	n/a	n/a	n/a	n/a	n/a
3461602	RECOG_LURE	n/a	LTP231	ltpFR	19	2	n/a	BACKBONE	66	0	3	n/a	n/a	n/a	n/a	n/a	n/a
3463230	RECOG_RESP	n/a	LTP231	ltpFR	19	2	n/a	BACKBONE	66	0	n/a	n/a	n/a	n/a	n/a	n/a	n/a
3463995	RECOG_CONF	n/a	LTP231	ltpFR	19	2	n/a	BACKBONE	66	n/a	3	n/a	n/a	n/a	n/a	n/a	n/a
3465784	RECOG_TARGET	n/a	LTP231	ltpFR	19	2	1	TOWEL	1489	0	1	1	n/a	n/a	n/a	n/a	n/a
3466982	RECOG_RESP	n/a	LTP231	ltpFR	19	2	1	TOWEL	1489	0	n/a	1	n/a	n/a	n/a	n/a	n/a
3468181	RECOG_CONF	n/a	LTP231	ltpFR	19	2	1	TOWEL	1489	n/a	1	1	n/a	n/a	n/a	n/a	n/a
3470118	RECOG_LURE	n/a	LTP231	ltpFR	19	2	n/a	TOY	1492	0	4	n/a	n/a	n/a	n/a	n/a	n/a
3470984	RECOG_RESP	n/a	LTP231	ltpFR	19	2	n/a	TOY	1492	0	n/a	n/a	n/a	n/a	n/a	n/a	n/a
3471661	RECOG_CONF	n/a	LTP231	ltpFR	19	2	n/a	TOY	1492	n/a	4	n/a	n/a	n/a	n/a	n/a	n/a
3482617	REC_START	n/a	LTP231	ltpFR	19	3	n/a	n/a	n/a	n/a	n/a	n/a	n/a	n/a	n/a	n/a	n/a
3482664	RECOG_TARGET	n/a	LTP231	ltpFR	19	3	0	PENDULUM	1043	1	4	0	n/a	n/a	n/a	n/a	n/a
3483650	RECOG_RESP	n/a	LTP231	ltpFR	19	3	0	PENDULUM	1043	1	n/a	0	n/a	n/a	n/a	n/a	n/a
3484458	RECOG_CONF	n/a	LTP231	ltpFR	19	3	0	PENDULUM	1043	n/a	4	0	n/a	n/a	n/a	n/a	n/a
3486129	RECOG_TARGET	n/a	LTP231	ltpFR	19	3	0	PORCUPINE	1107	1	5	1	n/a	n/a	n/a	n/a	n/a
3487163	RECOG_RESP	n/a	LTP231	ltpFR	19	3	0	PORCUPINE	1107	1	n/a	1	n/a	n/a	n/a	n/a	n/a
3487953	RECOG_CONF	n/a	LTP231	ltpFR	19	3	0	PORCUPINE	1107	n/a	5	1	n/a	n/a	n/a	n/a	n/a
3489758	RECOG_TARGET	n/a	LTP231	ltpFR	19	3	-1	BUTTERFLY	206	1	5	-1	n/a	n/a	n/a	n/a	n/a
3490559	RECOG_RESP	n/a	LTP231	ltpFR	19	3	-1	BUTTERFLY	206	1	n/a	-1	n/a	n/a	n/a	n/a	n/a
3491116	RECOG_CONF	n/a	LTP231	ltpFR	19	3	-1	BUTTERFLY	206	n/a	5	-1	n/a	n/a	n/a	n/a	n/a
3492719	RECOG_LURE	n/a	LTP231	ltpFR	19	3	n/a	TONGUE	1479	0	4	n/a	n/a	n/a	n/a	n/a	n/a
3493533	RECOG_RESP	n/a	LTP231	ltpFR	19	3	n/a	TONGUE	1479	0	n/a	n/a	n/a	n/a	n/a	n/a	n/a
3494139	RECOG_CONF	n/a	LTP231	ltpFR	19	3	n/a	TONGUE	1479	n/a	4	n/a	n/a	n/a	n/a	n/a	n/a
3495881	RECOG_TARGET	n/a	LTP231	ltpFR	19	3	1	CREW	406	1	5	0	n/a	n/a	n/a	n/a	n/a
3496754	RECOG_RESP	n/a	LTP231	ltpFR	19	3	1	CREW	406	1	n/a	0	n/a	n/a	n/a	n/a	n/a
3497448	RECOG_CONF	n/a	LTP231	ltpFR	19	3	1	CREW	406	n/a	5	0	n/a	n/a	n/a	n/a	n/a
3499278	RECOG_TARGET	n/a	LTP231	ltpFR	19	3	-1	CUSHION	428	1	5	-1	n/a	n/a	n/a	n/a	n/a
3500369	RECOG_RESP	n/a	LTP231	ltpFR	19	3	-1	CUSHION	428	1	n/a	-1	n/a	n/a	n/a	n/a	n/a
3501120	RECOG_CONF	n/a	LTP231	ltpFR	19	3	-1	CUSHION	428	n/a	5	-1	n/a	n/a	n/a	n/a	n/a
3502840	RECOG_LURE	n/a	LTP231	ltpFR	19	3	n/a	NET	946	0	5	n/a	n/a	n/a	n/a	n/a	n/a
3503698	RECOG_RESP	n/a	LTP231	ltpFR	19	3	n/a	NET	946	0	n/a	n/a	n/a	n/a	n/a	n/a	n/a
3504415	RECOG_CONF	n/a	LTP231	ltpFR	19	3	n/a	NET	946	n/a	5	n/a	n/a	n/a	n/a	n/a	n/a
3506067	RECOG_TARGET	n/a	LTP231	ltpFR	19	3	-1	CARD	243	1	5	-1	n/a	n/a	n/a	n/a	n/a
3507610	RECOG_RESP	n/a	LTP231	ltpFR	19	3	-1	CARD	243	1	n/a	-1	n/a	n/a	n/a	n/a	n/a
3508296	RECOG_CONF	n/a	LTP231	ltpFR	19	3	-1	CARD	243	n/a	5	-1	n/a	n/a	n/a	n/a	n/a
3510085	RECOG_TARGET	n/a	LTP231	ltpFR	19	3	-1	HOSTESS	723	1	5	-1	n/a	n/a	n/a	n/a	n/a
3510813	RECOG_RESP	n/a	LTP231	ltpFR	19	3	-1	HOSTESS	723	1	n/a	-1	n/a	n/a	n/a	n/a	n/a
3511528	RECOG_CONF	n/a	LTP231	ltpFR	19	3	-1	HOSTESS	723	n/a	5	-1	n/a	n/a	n/a	n/a	n/a
3513344	RECOG_TARGET	n/a	LTP231	ltpFR	19	3	0	CAGE	218	1	5	1	n/a	n/a	n/a	n/a	n/a
3514091	RECOG_RESP	n/a	LTP231	ltpFR	19	3	0	CAGE	218	1	n/a	1	n/a	n/a	n/a	n/a	n/a
3514889	RECOG_CONF	n/a	LTP231	ltpFR	19	3	0	CAGE	218	n/a	5	1	n/a	n/a	n/a	n/a	n/a
3516693	RECOG_TARGET	n/a	LTP231	ltpFR	19	3	0	PUPPY	1144	1	5	0	n/a	n/a	n/a	n/a	n/a
3517376	RECOG_RESP	n/a	LTP231	ltpFR	19	3	0	PUPPY	1144	1	n/a	0	n/a	n/a	n/a	n/a	n/a
3518175	RECOG_CONF	n/a	LTP231	ltpFR	19	3	0	PUPPY	1144	n/a	5	0	n/a	n/a	n/a	n/a	n/a
3520019	RECOG_LURE	n/a	LTP231	ltpFR	19	3	n/a	COOK	372	1	1	n/a	n/a	n/a	n/a	n/a	n/a
3520709	RECOG_RESP	n/a	LTP231	ltpFR	19	3	n/a	COOK	372	1	n/a	n/a	n/a	n/a	n/a	n/a	n/a
3521537	RECOG_CONF	n/a	LTP231	ltpFR	19	3	n/a	COOK	372	n/a	1	n/a	n/a	n/a	n/a	n/a	n/a
3523231	RECOG_TARGET	n/a	LTP231	ltpFR	19	3	0	TORNADO	1485	1	5	1	n/a	n/a	n/a	n/a	n/a
3523888	RECOG_RESP	n/a	LTP231	ltpFR	19	3	0	TORNADO	1485	1	n/a	1	n/a	n/a	n/a	n/a	n/a
3524676	RECOG_CONF	n/a	LTP231	ltpFR	19	3	0	TORNADO	1485	n/a	5	1	n/a	n/a	n/a	n/a	n/a
3526480	RECOG_LURE	n/a	LTP231	ltpFR	19	3	n/a	TOMB	1477	1	2	n/a	n/a	n/a	n/a	n/a	n/a
3526990	RECOG_RESP	n/a	LTP231	ltpFR	19	3	n/a	TOMB	1477	1	n/a	n/a	n/a	n/a	n/a	n/a	n/a
3527802	RECOG_CONF	n/a	LTP231	ltpFR	19	3	n/a	TOMB	1477	n/a	2	n/a	n/a	n/a	n/a	n/a	n/a
3529508	RECOG_TARGET	n/a	LTP231	ltpFR	19	3	-1	ACTOR	5	1	3	-1	n/a	n/a	n/a	n/a	n/a
3530573	RECOG_RESP	n/a	LTP231	ltpFR	19	3	-1	ACTOR	5	1	n/a	-1	n/a	n/a	n/a	n/a	n/a
3531404	RECOG_CONF	n/a	LTP231	ltpFR	19	3	-1	ACTOR	5	n/a	3	-1	n/a	n/a	n/a	n/a	n/a
3533105	RECOG_TARGET	n/a	LTP231	ltpFR	19	3	1	MARSH	874	1	1	0	n/a	n/a	n/a	n/a	n/a
3534371	RECOG_RESP	n/a	LTP231	ltpFR	19	3	1	MARSH	874	1	n/a	0	n/a	n/a	n/a	n/a	n/a
3535152	RECOG_CONF	n/a	LTP231	ltpFR	19	3	1	MARSH	874	n/a	1	0	n/a	n/a	n/a	n/a	n/a
3536919	RECOG_LURE	n/a	LTP231	ltpFR	19	3	n/a	JAM	748	0	2	n/a	n/a	n/a	n/a	n/a	n/a
3538378	RECOG_RESP	n/a	LTP231	ltpFR	19	3	n/a	JAM	748	0	n/a	n/a	n/a	n/a	n/a	n/a	n/a
3539220	RECOG_CONF	n/a	LTP231	ltpFR	19	3	n/a	JAM	748	n/a	2	n/a	n/a	n/a	n/a	n/a	n/a
3541102	RECOG_LURE	n/a	LTP231	ltpFR	19	3	n/a	AIRPLANE	12	0	3	n/a	n/a	n/a	n/a	n/a	n/a
3541967	RECOG_RESP	n/a	LTP231	ltpFR	19	3	n/a	AIRPLANE	12	0	n/a	n/a	n/a	n/a	n/a	n/a	n/a
3542778	RECOG_CONF	n/a	LTP231	ltpFR	19	3	n/a	AIRPLANE	12	n/a	3	n/a	n/a	n/a	n/a	n/a	n/a
3544430	RECOG_TARGET	n/a	LTP231	ltpFR	19	3	1	LABYRINTH	791	1	4	1	n/a	n/a	n/a	n/a	n/a
3545556	RECOG_RESP	n/a	LTP231	ltpFR	19	3	1	LABYRINTH	791	1	n/a	1	n/a	n/a	n/a	n/a	n/a
3546361	RECOG_CONF	n/a	LTP231	ltpFR	19	3	1	LABYRINTH	791	n/a	4	1	n/a	n/a	n/a	n/a	n/a
3548313	RECOG_LURE	n/a	LTP231	ltpFR	19	3	n/a	TILE	1468	0	2	n/a	n/a	n/a	n/a	n/a	n/a
3549299	RECOG_RESP	n/a	LTP231	ltpFR	19	3	n/a	TILE	1468	0	n/a	n/a	n/a	n/a	n/a	n/a	n/a
3550162	RECOG_CONF	n/a	LTP231	ltpFR	19	3	n/a	TILE	1468	n/a	2	n/a	n/a	n/a	n/a	n/a	n/a
3553858	REC_START	n/a	LTP231	ltpFR	19	4	n/a	n/a	n/a	n/a	n/a	n/a	n/a	n/a	n/a	n/a	n/a
3553913	RECOG_LURE	n/a	LTP231	ltpFR	19	4	n/a	CLIPPERS	324	0	5	n/a	n/a	n/a	n/a	n/a	n/a
3555024	RECOG_RESP	n/a	LTP231	ltpFR	19	4	n/a	CLIPPERS	324	0	n/a	n/a	n/a	n/a	n/a	n/a	n/a
3555768	RECOG_CONF	n/a	LTP231	ltpFR	19	4	n/a	CLIPPERS	324	n/a	5	n/a	n/a	n/a	n/a	n/a	n/a
3557496	RECOG_TARGET	n/a	LTP231	ltpFR	19	4	1	ELF	525	1	4	1	n/a	n/a	n/a	n/a	n/a
3558301	RECOG_RESP	n/a	LTP231	ltpFR	19	4	1	ELF	525	1	n/a	1	n/a	n/a	n/a	n/a	n/a
3559122	RECOG_CONF	n/a	LTP231	ltpFR	19	4	1	ELF	525	n/a	4	1	n/a	n/a	n/a	n/a	n/a
3560859	RECOG_TARGET	n/a	LTP231	ltpFR	19	4	0	ROBIN	1199	1	2	1	n/a	n/a	n/a	n/a	n/a
3561681	RECOG_RESP	n/a	LTP231	ltpFR	19	4	0	ROBIN	1199	1	n/a	1	n/a	n/a	n/a	n/a	n/a
3562662	RECOG_CONF	n/a	LTP231	ltpFR	19	4	0	ROBIN	1199	n/a	2	1	n/a	n/a	n/a	n/a	n/a
3564439	RECOG_TARGET	n/a	LTP231	ltpFR	19	4	1	PUDDLE	1140	1	3	0	n/a	n/a	n/a	n/a	n/a
3565246	RECOG_RESP	n/a	LTP231	ltpFR	19	4	1	PUDDLE	1140	1	n/a	0	n/a	n/a	n/a	n/a	n/a
3566045	RECOG_CONF	n/a	LTP231	ltpFR	19	4	1	PUDDLE	1140	n/a	3	0	n/a	n/a	n/a	n/a	n/a
3567752	RECOG_TARGET	n/a	LTP231	ltpFR	19	4	1	PIANO	1057	0	1	0	n/a	n/a	n/a	n/a	n/a
3568729	RECOG_RESP	n/a	LTP231	ltpFR	19	4	1	PIANO	1057	0	n/a	0	n/a	n/a	n/a	n/a	n/a
3569421	RECOG_CONF	n/a	LTP231	ltpFR	19	4	1	PIANO	1057	n/a	1	0	n/a	n/a	n/a	n/a	n/a
3571179	RECOG_TARGET	n/a	LTP231	ltpFR	19	4	0	MECHANIC	884	1	4	1	n/a	n/a	n/a	n/a	n/a
3572067	RECOG_RESP	n/a	LTP231	ltpFR	19	4	0	MECHANIC	884	1	n/a	1	n/a	n/a	n/a	n/a	n/a
3572906	RECOG_CONF	n/a	LTP231	ltpFR	19	4	0	MECHANIC	884	n/a	4	1	n/a	n/a	n/a	n/a	n/a
3574761	RECOG_TARGET	n/a	LTP231	ltpFR	19	4	1	CUPBOARD	425	1	4	0	n/a	n/a	n/a	n/a	n/a
3575686	RECOG_RESP	n/a	LTP231	ltpFR	19	4	1	CUPBOARD	425	1	n/a	0	n/a	n/a	n/a	n/a	n/a
3576539	RECOG_CONF	n/a	LTP231	ltpFR	19	4	1	CUPBOARD	425	n/a	4	0	n/a	n/a	n/a	n/a	n/a
3578343	RECOG_LURE	n/a	LTP231	ltpFR	19	4	n/a	CLASS	318	0	2	n/a	n/a	n/a	n/a	n/a	n/a
3579444	RECOG_RESP	n/a	LTP231	ltpFR	19	4	n/a	CLASS	318	0	n/a	n/a	n/a	n/a	n/a	n/a	n/a
3580237	RECOG_CONF	n/a	LTP231	ltpFR	19	4	n/a	CLASS	318	n/a	2	n/a	n/a	n/a	n/a	n/a	n/a
3582140	RECOG_LURE	n/a	LTP231	ltpFR	19	4	n/a	DUSTPAN	509	0	4	n/a	n/a	n/a	n/a	n/a	n/a
3582964	RECOG_RESP	n/a	LTP231	ltpFR	19	4	n/a	DUSTPAN	509	0	n/a	n/a	n/a	n/a	n/a	n/a	n/a
3583948	RECOG_CONF	n/a	LTP231	ltpFR	19	4	n/a	DUSTPAN	509	n/a	4	n/a	n/a	n/a	n/a	n/a	n/a
3585736	RECOG_TARGET	n/a	LTP231	ltpFR	19	4	1	AUTOMOBILE	62	1	3	0	n/a	n/a	n/a	n/a	n/a
3586742	RECOG_RESP	n/a	LTP231	ltpFR	19	4	1	AUTOMOBILE	62	1	n/a	0	n/a	n/a	n/a	n/a	n/a
3587597	RECOG_CONF	n/a	LTP231	ltpFR	19	4	1	AUTOMOBILE	62	n/a	3	0	n/a	n/a	n/a	n/a	n/a
3589418	RECOG_TARGET	n/a	LTP231	ltpFR	19	4	-1	TOENAIL	1474	1	3	-1	n/a	n/a	n/a	n/a	n/a
3590186	RECOG_RESP	n/a	LTP231	ltpFR	19	4	-1	TOENAIL	1474	1	n/a	-1	n/a	n/a	n/a	n/a	n/a
3591181	RECOG_CONF	n/a	LTP231	ltpFR	19	4	-1	TOENAIL	1474	n/a	3	-1	n/a	n/a	n/a	n/a	n/a
3593115	RECOG_TARGET	n/a	LTP231	ltpFR	19	4	-1	VINE	1568	1	4	-1	n/a	n/a	n/a	n/a	n/a
3594076	RECOG_RESP	n/a	LTP231	ltpFR	19	4	-1	VINE	1568	1	n/a	-1	n/a	n/a	n/a	n/a	n/a
3594845	RECOG_CONF	n/a	LTP231	ltpFR	19	4	-1	VINE	1568	n/a	4	-1	n/a	n/a	n/a	n/a	n/a
3596607	RECOG_LURE	n/a	LTP231	ltpFR	19	4	n/a	ESCALATOR	539	0	5	n/a	n/a	n/a	n/a	n/a	n/a
3597530	RECOG_RESP	n/a	LTP231	ltpFR	19	4	n/a	ESCALATOR	539	0	n/a	n/a	n/a	n/a	n/a	n/a	n/a
3598319	RECOG_CONF	n/a	LTP231	ltpFR	19	4	n/a	ESCALATOR	539	n/a	5	n/a	n/a	n/a	n/a	n/a	n/a
3600275	RECOG_TARGET	n/a	LTP231	ltpFR	19	4	1	PIKE	1067	1	3	0	n/a	n/a	n/a	n/a	n/a
3601476	RECOG_RESP	n/a	LTP231	ltpFR	19	4	1	PIKE	1067	1	n/a	0	n/a	n/a	n/a	n/a	n/a
3602383	RECOG_CONF	n/a	LTP231	ltpFR	19	4	1	PIKE	1067	n/a	3	0	n/a	n/a	n/a	n/a	n/a
3604290	RECOG_LURE	n/a	LTP231	ltpFR	19	4	n/a	BARLEY	88	0	4	n/a	n/a	n/a	n/a	n/a	n/a
3605154	RECOG_RESP	n/a	LTP231	ltpFR	19	4	n/a	BARLEY	88	0	n/a	n/a	n/a	n/a	n/a	n/a	n/a
3606217	RECOG_CONF	n/a	LTP231	ltpFR	19	4	n/a	BARLEY	88	n/a	4	n/a	n/a	n/a	n/a	n/a	n/a
3608239	RECOG_TARGET	n/a	LTP231	ltpFR	19	4	1	CHIPMUNK	304	1	3	1	n/a	n/a	n/a	n/a	n/a
3609048	RECOG_RESP	n/a	LTP231	ltpFR	19	4	1	CHIPMUNK	304	1	n/a	1	n/a	n/a	n/a	n/a	n/a
3609936	RECOG_CONF	n/a	LTP231	ltpFR	19	4	1	CHIPMUNK	304	n/a	3	1	n/a	n/a	n/a	n/a	n/a
3611513	RECOG_LURE	n/a	LTP231	ltpFR	19	4	n/a	VOLCANO	1575	0	5	n/a	n/a	n/a	n/a	n/a	n/a
3612355	RECOG_RESP	n/a	LTP231	ltpFR	19	4	n/a	VOLCANO	1575	0	n/a	n/a	n/a	n/a	n/a	n/a	n/a
3613270	RECOG_CONF	n/a	LTP231	ltpFR	19	4	n/a	VOLCANO	1575	n/a	5	n/a	n/a	n/a	n/a	n/a	n/a
3615232	RECOG_TARGET	n/a	LTP231	ltpFR	19	4	0	ARTIST	43	0	1	1	n/a	n/a	n/a	n/a	n/a
3616604	RECOG_RESP	n/a	LTP231	ltpFR	19	4	0	ARTIST	43	0	n/a	1	n/a	n/a	n/a	n/a	n/a
3617379	RECOG_CONF	n/a	LTP231	ltpFR	19	4	0	ARTIST	43	n/a	1	1	n/a	n/a	n/a	n/a	n/a
3619213	RECOG_TARGET	n/a	LTP231	ltpFR	19	4	0	VAULT	1550	1	4	1	n/a	n/a	n/a	n/a	n/a
3619983	RECOG_RESP	n/a	LTP231	ltpFR	19	4	0	VAULT	1550	1	n/a	1	n/a	n/a	n/a	n/a	n/a
3620980	RECOG_CONF	n/a	LTP231	ltpFR	19	4	0	VAULT	1550	n/a	4	1	n/a	n/a	n/a	n/a	n/a
3622792	RECOG_LURE	n/a	LTP231	ltpFR	19	4	n/a	ROD	1203	0	4	n/a	n/a	n/a	n/a	n/a	n/a
3624048	RECOG_RESP	n/a	LTP231	ltpFR	19	4	n/a	ROD	1203	0	n/a	n/a	n/a	n/a	n/a	n/a	n/a
3624777	RECOG_CONF	n/a	LTP231	ltpFR	19	4	n/a	ROD	1203	n/a	4	n/a	n/a	n/a	n/a	n/a	n/a
3637077	REC_START	n/a	LTP231	ltpFR	19	5	n/a	n/a	n/a	n/a	n/a	n/a	n/a	n/a	n/a	n/a	n/a
3637131	RECOG_TARGET	n/a	LTP231	ltpFR	19	5	0	CHECKERS	285	1	4	0	n/a	n/a	n/a	n/a	n/a
3638198	RECOG_RESP	n/a	LTP231	ltpFR	19	5	0	CHECKERS	285	1	n/a	0	n/a	n/a	n/a	n/a	n/a
3639058	RECOG_CONF	n/a	LTP231	ltpFR	19	5	0	CHECKERS	285	n/a	4	0	n/a	n/a	n/a	n/a	n/a
3640743	RECOG_TARGET	n/a	LTP231	ltpFR	19	5	1	SHEPHERD	1283	1	4	1	n/a	n/a	n/a	n/a	n/a
3641633	RECOG_RESP	n/a	LTP231	ltpFR	19	5	1	SHEPHERD	1283	1	n/a	1	n/a	n/a	n/a	n/a	n/a
3642444	RECOG_CONF	n/a	LTP231	ltpFR	19	5	1	SHEPHERD	1283	n/a	4	1	n/a	n/a	n/a	n/a	n/a
3644241	RECOG_LURE	n/a	LTP231	ltpFR	19	5	n/a	FLOWER	584	0	4	n/a	n/a	n/a	n/a	n/a	n/a
3644938	RECOG_RESP	n/a	LTP231	ltpFR	19	5	n/a	FLOWER	584	0	n/a	n/a	n/a	n/a	n/a	n/a	n/a
3645642	RECOG_CONF	n/a	LTP231	ltpFR	19	5	n/a	FLOWER	584	n/a	4	n/a	n/a	n/a	n/a	n/a	n/a
3647369	RECOG_LURE	n/a	LTP231	ltpFR	19	5	n/a	DICTIONARY	463	0	4	n/a	n/a	n/a	n/a	n/a	n/a
3648120	RECOG_RESP	n/a	LTP231	ltpFR	19	5	n/a	DICTIONARY	463	0	n/a	n/a	n/a	n/a	n/a	n/a	n/a
3648768	RECOG_CONF	n/a	LTP231	ltpFR	19	5	n/a	DICTIONARY	463	n/a	4	n/a	n/a	n/a	n/a	n/a	n/a
3650430	RECOG_LURE	n/a	LTP231	ltpFR	19	5	n/a	LIST	830	0	5	n/a	n/a	n/a	n/a	n/a	n/a
3651615	RECOG_RESP	n/a	LTP231	ltpFR	19	5	n/a	LIST	830	0	n/a	n/a	n/a	n/a	n/a	n/a	n/a
3652283	RECOG_CONF	n/a	LTP231	ltpFR	19	5	n/a	LIST	830	n/a	5	n/a	n/a	n/a	n/a	n/a	n/a
3654045	RECOG_TARGET	n/a	LTP231	ltpFR	19	5	0	FRIEND	606	0	4	0	n/a	n/a	n/a	n/a	n/a
3654749	RECOG_RESP	n/a	LTP231	ltpFR	19	5	0	FRIEND	606	0	n/a	0	n/a	n/a	n/a	n/a	n/a
3655417	RECOG_CONF	n/a	LTP231	ltpFR	19	5	0	FRIEND	606	n/a	4	0	n/a	n/a	n/a	n/a	n/a
3657056	RECOG_TARGET	n/a	LTP231	ltpFR	19	5	1	BOOK	149	1	3	0	n/a	n/a	n/a	n/a	n/a
3658311	RECOG_RESP	n/a	LTP231	ltpFR	19	5	1	BOOK	149	1	n/a	0	n/a	n/a	n/a	n/a	n/a
3659104	RECOG_CONF	n/a	LTP231	ltpFR	19	5	1	BOOK	149	n/a	3	0	n/a	n/a	n/a	n/a	n/a
3660903	RECOG_TARGET	n/a	LTP231	ltpFR	19	5	-1	CLERK	321	1	3	-1	n/a	n/a	n/a	n/a	n/a
3661745	RECOG_RESP	n/a	LTP231	ltpFR	19	5	-1	CLERK	321	1	n/a	-1	n/a	n/a	n/a	n/a	n/a
3662528	RECOG_CONF	n/a	LTP231	ltpFR	19	5	-1	CLERK	321	n/a	3	-1	n/a	n/a	n/a	n/a	n/a
3664317	RECOG_TARGET	n/a	LTP231	ltpFR	19	5	1	WRITER	1627	1	3	1	n/a	n/a	n/a	n/a	n/a
3664936	RECOG_RESP	n/a	LTP231	ltpFR	19	5	1	WRITER	1627	1	n/a	1	n/a	n/a	n/a	n/a	n/a
3665731	RECOG_CONF	n/a	LTP231	ltpFR	19	5	1	WRITER	1627	n/a	3	1	n/a	n/a	n/a	n/a	n/a
3667561	RECOG_LURE	n/a	LTP231	ltpFR	19	5	n/a	COCOON	339	1	4	n/a	n/a	n/a	n/a	n/a	n/a
3668773	RECOG_RESP	n/a	LTP231	ltpFR	19	5	n/a	COCOON	339	1	n/a	n/a	n/a	n/a	n/a	n/a	n/a
3669611	RECOG_CONF	n/a	LTP231	ltpFR	19	5	n/a	COCOON	339	n/a	4	n/a	n/a	n/a	n/a	n/a	n/a
3671326	RECOG_TARGET	n/a	LTP231	ltpFR	19	5	-1	KEY	773	1	3	-1	n/a	n/a	n/a	n/a	n/a
3672252	RECOG_RESP	n/a	LTP231	ltpFR	19	5	-1	KEY	773	1	n/a	-1	n/a	n/a	n/a	n/a	n/a
3673055	RECOG_CONF	n/a	LTP231	ltpFR	19	5	-1	KEY	773	n/a	3	-1	n/a	n/a	n/a	n/a	n/a
3674772	RECOG_TARGET	n/a	LTP231	ltpFR	19	5	-1	PAIL	1002	1	3	-1	n/a	n/a	n/a	n/a	n/a
3675480	RECOG_RESP	n/a	LTP231	ltpFR	19	5	-1	PAIL	1002	1	n/a	-1	n/a	n/a	n/a	n/a	n/a
3676288	RECOG_CONF	n/a	LTP231	ltpFR	19	5	-1	PAIL	1002	n/a	3	-1	n/a	n/a	n/a	n/a	n/a
3678035	RECOG_LURE	n/a	LTP231	ltpFR	19	5	n/a	ICEBERG	731	0	4	n/a	n/a	n/a	n/a	n/a	n/a
3678930	RECOG_RESP	n/a	LTP231	ltpFR	19	5	n/a	ICEBERG	731	0	n/a	n/a	n/a	n/a	n/a	n/a	n/a
3679610	RECOG_CONF	n/a	LTP231	ltpFR	19	5	n/a	ICEBERG	731	n/a	4	n/a	n/a	n/a	n/a	n/a	n/a
3681464	RECOG_TARGET	n/a	LTP231	ltpFR	19	5	1	TOOL	1480	1	3	0	n/a	n/a	n/a	n/a	n/a
3682126	RECOG_RESP	n/a	LTP231	ltpFR	19	5	1	TOOL	1480	1	n/a	0	n/a	n/a	n/a	n/a	n/a
3682920	RECOG_CONF	n/a	LTP231	ltpFR	19	5	1	TOOL	1480	n/a	3	0	n/a	n/a	n/a	n/a	n/a
3684676	RECOG_TARGET	n/a	LTP231	ltpFR	19	5	1	FRAME	600	1	3	0	n/a	n/a	n/a	n/a	n/a
3685590	RECOG_RESP	n/a	LTP231	ltpFR	19	5	1	FRAME	600	1	n/a	0	n/a	n/a	n/a	n/a	n/a
3686370	RECOG_CONF	n/a	LTP231	ltpFR	19	5	1	FRAME	600	n/a	3	0	n/a	n/a	n/a	n/a	n/a
3688257	RECOG_TARGET	n/a	LTP231	ltpFR	19	5	0	CONCERT	360	1	3	1	n/a	n/a	n/a	n/a	n/a
3689030	RECOG_RESP	n/a	LTP231	ltpFR	19	5	0	CONCERT	360	1	n/a	1	n/a	n/a	n/a	n/a	n/a
3689870	RECOG_CONF	n/a	LTP231	ltpFR	19	5	0	CONCERT	360	n/a	3	1	n/a	n/a	n/a	n/a	n/a
3691619	RECOG_LURE	n/a	LTP231	ltpFR	19	5	n/a	HANDKERCHIEF	686	0	4	n/a	n/a	n/a	n/a	n/a	n/a
3692521	RECOG_RESP	n/a	LTP231	ltpFR	19	5	n/a	HANDKERCHIEF	686	0	n/a	n/a	n/a	n/a	n/a	n/a	n/a
3693217	RECOG_CONF	n/a	LTP231	ltpFR	19	5	n/a	HANDKERCHIEF	686	n/a	4	n/a	n/a	n/a	n/a	n/a	n/a
3694898	RECOG_TARGET	n/a	LTP231	ltpFR	19	5	0	LION	827	1	3	1	n/a	n/a	n/a	n/a	n/a
3695734	RECOG_RESP	n/a	LTP231	ltpFR	19	5	0	LION	827	1	n/a	1	n/a	n/a	n/a	n/a	n/a
3696520	RECOG_CONF	n/a	LTP231	ltpFR	19	5	0	LION	827	n/a	3	1	n/a	n/a	n/a	n/a	n/a
3698311	RECOG_TARGET	n/a	LTP231	ltpFR	19	5	0	BOUQUET	157	1	4	0	n/a	n/a	n/a	n/a	n/a
3699465	RECOG_RESP	n/a	LTP231	ltpFR	19	5	0	BOUQUET	157	1	n/a	0	n/a	n/a	n/a	n/a	n/a
3700208	RECOG_CONF	n/a	LTP231	ltpFR	19	5	0	BOUQUET	157	n/a	4	0	n/a	n/a	n/a	n/a	n/a
3701959	RECOG_TARGET	n/a	LTP231	ltpFR	19	5	0	GUEST	669	1	3	1	n/a	n/a	n/a	n/a	n/a
3702748	RECOG_RESP	n/a	LTP231	ltpFR	19	5	0	GUEST	669	1	n/a	1	n/a	n/a	n/a	n/a	n/a
3703680	RECOG_CONF	n/a	LTP231	ltpFR	19	5	0	GUEST	669	n/a	3	1	n/a	n/a	n/a	n/a	n/a
3713741	REC_START	n/a	LTP231	ltpFR	19	6	n/a	n/a	n/a	n/a	n/a	n/a	n/a	n/a	n/a	n/a	n/a
3713785	RECOG_LURE	n/a	LTP231	ltpFR	19	6	n/a	SHEEP	1278	1	2	n/a	n/a	n/a	n/a	n/a	n/a
3714974	RECOG_RESP	n/a	LTP231	ltpFR	19	6	n/a	SHEEP	1278	1	n/a	n/a	n/a	n/a	n/a	n/a	n/a
3715756	RECOG_CONF	n/a	LTP231	ltpFR	19	6	n/a	SHEEP	1278	n/a	2	n/a	n/a	n/a	n/a	n/a	n/a
3717350	RECOG_LURE	n/a	LTP231	ltpFR	19	6	n/a	DIAPER	459	0	5	n/a	n/a	n/a	n/a	n/a	n/a
3718234	RECOG_RESP	n/a	LTP231	ltpFR	19	6	n/a	DIAPER	459	0	n/a	n/a	n/a	n/a	n/a	n/a	n/a
3719015	RECOG_CONF	n/a	LTP231	ltpFR	19	6	n/a	DIAPER	459	n/a	5	n/a	n/a	n/a	n/a	n/a	n/a
3720862	RECOG_TARGET	n/a	LTP231	ltpFR	19	6	1	LIZARD	834	1	4	1	n/a	n/a	n/a	n/a	n/a
3721982	RECOG_RESP	n/a	LTP231	ltpFR	19	6	1	LIZARD	834	1	n/a	1	n/a	n/a	n/a	n/a	n/a
3722692	RECOG_CONF	n/a	LTP231	ltpFR	19	6	1	LIZARD	834	n/a	4	1	n/a	n/a	n/a	n/a	n/a
3724410	RECOG_TARGET	n/a	LTP231	ltpFR	19	6	-1	ORANGE	980	1	1	-1	n/a	n/a	n/a	n/a	n/a
3725306	RECOG_RESP	n/a	LTP231	ltpFR	19	6	-1	ORANGE	980	1	n/a	-1	n/a	n/a	n/a	n/a	n/a
3725979	RECOG_CONF	n/a	LTP231	ltpFR	19	6	-1	ORANGE	980	n/a	1	-1	n/a	n/a	n/a	n/a	n/a
