mstime	trial_type	stim_file	subject	experiment	session	trial	task	item_name	item_num	recog_conf	resp	color_b	color_g	color_r	case	font
0	SESS_START	n/a	LTP202	ltpFR	3	n/a	n/a	n/a	n/a	1	n/a	n/a	n/a	n/a	n/a	n/a
65787	WORD	wordpools/wasnorm_wordpool_less_exclusions.txt	LTP202	ltpFR	3	1	0	EAR	513	n/a	0	0	0.5869140625	0.422607421875	lower	../fonts/zerothre.ttf
69682	WORD	wordpools/wasnorm_wordpool_less_exclusions.txt	LTP202	ltpFR	3	1	0	DOOR	486	n/a	1	0	0.5869140625	0.422607421875	lower	../fonts/zerothre.ttf
73525	WORD	wordpools/wasnorm_wordpool_less_exclusions.txt	LTP202	ltpFR	3	1	0	OCTOPUS	971	n/a	1	0	0.5869140625	0.422607421875	lower	../fonts/zerothre.ttf
77386	WORD	wordpools/wasnorm_wordpool_less_exclusions.txt	LTP202	ltpFR	3	1	1	TELESCOPE	1446	n/a	0	1	0.412841796875	0.57763671875	upper	../fonts/amplitud.ttf
81247	WORD	wordpools/wasnorm_wordpool_less_exclusions.txt	LTP202	ltpFR	3	1	1	OTTER	986	n/a	1	1	0.412841796875	0.57763671875	upper	../fonts/amplitud.ttf
85158	WORD	wordpools/wasnorm_wordpool_less_exclusions.txt	LTP202	ltpFR	3	1	1	LIZARD	834	n/a	1	1	0.412841796875	0.57763671875	upper	../fonts/amplitud.ttf
89301	WORD	wordpools/wasnorm_wordpool_less_exclusions.txt	LTP202	ltpFR	3	1	1	SNAKE	1333	n/a	1	1	0.412841796875	0.57763671875	upper	../fonts/amplitud.ttf
93329	WORD	wordpools/wasnorm_wordpool_less_exclusions.txt	LTP202	ltpFR	3	1	1	KEYBOARD	774	n/a	0	1	0.412841796875	0.57763671875	upper	../fonts/amplitud.ttf
97439	WORD	wordpools/wasnorm_wordpool_less_exclusions.txt	LTP202	ltpFR	3	1	1	APPLE	33	n/a	0	1	0.412841796875	0.57763671875	upper	../fonts/amplitud.ttf
101567	WORD	wordpools/wasnorm_wordpool_less_exclusions.txt	LTP202	ltpFR	3	1	0	PIT	1077	n/a	0	0	0.5869140625	0.422607421875	lower	../fonts/zerothre.ttf
105711	WORD	wordpools/wasnorm_wordpool_less_exclusions.txt	LTP202	ltpFR	3	1	0	WAVE	1596	n/a	0	0	0.5869140625	0.422607421875	lower	../fonts/zerothre.ttf
109705	WORD	wordpools/wasnorm_wordpool_less_exclusions.txt	LTP202	ltpFR	3	1	1	ANIMAL	23	n/a	1	1	0.412841796875	0.57763671875	upper	../fonts/amplitud.ttf
113683	WORD	wordpools/wasnorm_wordpool_less_exclusions.txt	LTP202	ltpFR	3	1	1	STEWARDESS	1381	n/a	1	1	0.412841796875	0.57763671875	upper	../fonts/amplitud.ttf
117743	WORD	wordpools/wasnorm_wordpool_less_exclusions.txt	LTP202	ltpFR	3	1	0	GALAXY	617	n/a	1	0	0.5869140625	0.422607421875	lower	../fonts/zerothre.ttf
121721	WORD	wordpools/wasnorm_wordpool_less_exclusions.txt	LTP202	ltpFR	3	1	0	WAGON	1578	n/a	1	0	0.5869140625	0.422607421875	lower	../fonts/zerothre.ttf
125930	WORD	wordpools/wasnorm_wordpool_less_exclusions.txt	LTP202	ltpFR	3	1	0	CART	250	n/a	1	0	0.5869140625	0.422607421875	lower	../fonts/zerothre.ttf
131922	REC_START	n/a	LTP202	ltpFR	3	1	n/a	n/a	n/a	n/a	n/a	n/a	n/a	n/a	n/a	n/a
132331	REC_WORD	wordpools/wasnorm_wordpool_less_exclusions.txt	LTP202	ltpFR	3	1	0	GALAXY	617	n/a	1	n/a	n/a	n/a	n/a	n/a
133004	REC_WORD	wordpools/wasnorm_wordpool_less_exclusions.txt	LTP202	ltpFR	3	1	0	WAGON	1578	n/a	1	n/a	n/a	n/a	n/a	n/a
133693	REC_WORD	wordpools/wasnorm_wordpool_less_exclusions.txt	LTP202	ltpFR	3	1	0	CART	250	n/a	1	n/a	n/a	n/a	n/a	n/a
135778	REC_WORD	wordpools/wasnorm_wordpool_less_exclusions.txt	LTP202	ltpFR	3	1	0	WAVE	1596	n/a	0	n/a	n/a	n/a	n/a	n/a
137070	REC_WORD	wordpools/wasnorm_wordpool_less_exclusions.txt	LTP202	ltpFR	3	1	0	EAR	513	n/a	0	n/a	n/a	n/a	n/a	n/a
138013	REC_WORD	wordpools/wasnorm_wordpool_less_exclusions.txt	LTP202	ltpFR	3	1	0	DOOR	486	n/a	1	n/a	n/a	n/a	n/a	n/a
140173	REC_WORD	wordpools/wasnorm_wordpool_less_exclusions.txt	LTP202	ltpFR	3	1	1	SNAKE	1333	n/a	1	n/a	n/a	n/a	n/a	n/a
141475	REC_WORD	wordpools/wasnorm_wordpool_less_exclusions.txt	LTP202	ltpFR	3	1	1	OTTER	986	n/a	1	n/a	n/a	n/a	n/a	n/a
142278	REC_WORD	wordpools/wasnorm_wordpool_less_exclusions.txt	LTP202	ltpFR	3	1	0	OCTOPUS	971	n/a	1	n/a	n/a	n/a	n/a	n/a
143351	REC_WORD	wordpools/wasnorm_wordpool_less_exclusions.txt	LTP202	ltpFR	3	1	1	STEWARDESS	1381	n/a	1	n/a	n/a	n/a	n/a	n/a
145042	REC_WORD	wordpools/wasnorm_wordpool_less_exclusions.txt	LTP202	ltpFR	3	1	1	ANIMAL	23	n/a	1	n/a	n/a	n/a	n/a	n/a
156700	REC_WORD	wordpools/wasnorm_wordpool_less_exclusions.txt	LTP202	ltpFR	3	1	0	CART	250	n/a	1	n/a	n/a	n/a	n/a	n/a
221521	WORD	wordpools/wasnorm_wordpool_less_exclusions.txt	LTP202	ltpFR	3	2	1	PAINTER	1004	n/a	1	1	0.412841796875	0.57763671875	upper	../fonts/amplitud.ttf
225649	WORD	wordpools/wasnorm_wordpool_less_exclusions.txt	LTP202	ltpFR	3	2	1	PIGEON	1065	n/a	1	1	0.412841796875	0.57763671875	upper	../fonts/amplitud.ttf
229542	WORD	wordpools/wasnorm_wordpool_less_exclusions.txt	LTP202	ltpFR	3	2	0	TWEEZERS	1526	n/a	0	0	0.5869140625	0.422607421875	lower	../fonts/zerothre.ttf
233519	WORD	wordpools/wasnorm_wordpool_less_exclusions.txt	LTP202	ltpFR	3	2	0	OLIVE	975	n/a	0	0	0.5869140625	0.422607421875	lower	../fonts/zerothre.ttf
237547	WORD	wordpools/wasnorm_wordpool_less_exclusions.txt	LTP202	ltpFR	3	2	0	THRONE	1461	n/a	1	0	0.5869140625	0.422607421875	lower	../fonts/zerothre.ttf
241591	WORD	wordpools/wasnorm_wordpool_less_exclusions.txt	LTP202	ltpFR	3	2	0	NEUTRON	947	n/a	0	0	0.5869140625	0.422607421875	lower	../fonts/zerothre.ttf
245769	WORD	wordpools/wasnorm_wordpool_less_exclusions.txt	LTP202	ltpFR	3	2	0	BRICK	172	n/a	0	0	0.5869140625	0.422607421875	lower	../fonts/zerothre.ttf
249763	WORD	wordpools/wasnorm_wordpool_less_exclusions.txt	LTP202	ltpFR	3	2	1	PIANO	1057	n/a	0	1	0.412841796875	0.57763671875	upper	../fonts/amplitud.ttf
253623	WORD	wordpools/wasnorm_wordpool_less_exclusions.txt	LTP202	ltpFR	3	2	1	VIDEO	1564	n/a	0	1	0.412841796875	0.57763671875	upper	../fonts/amplitud.ttf
257833	WORD	wordpools/wasnorm_wordpool_less_exclusions.txt	LTP202	ltpFR	3	2	1	VEGETABLE	1552	n/a	0	1	0.412841796875	0.57763671875	upper	../fonts/amplitud.ttf
261844	WORD	wordpools/wasnorm_wordpool_less_exclusions.txt	LTP202	ltpFR	3	2	1	BALLERINA	74	n/a	1	1	0.412841796875	0.57763671875	upper	../fonts/amplitud.ttf
265756	WORD	wordpools/wasnorm_wordpool_less_exclusions.txt	LTP202	ltpFR	3	2	1	HOUND	724	n/a	1	1	0.412841796875	0.57763671875	upper	../fonts/amplitud.ttf
269582	WORD	wordpools/wasnorm_wordpool_less_exclusions.txt	LTP202	ltpFR	3	2	1	WOLF	1619	n/a	1	1	0.412841796875	0.57763671875	upper	../fonts/amplitud.ttf
273460	WORD	wordpools/wasnorm_wordpool_less_exclusions.txt	LTP202	ltpFR	3	2	0	DOVE	491	n/a	0	0	0.5869140625	0.422607421875	lower	../fonts/zerothre.ttf
277404	WORD	wordpools/wasnorm_wordpool_less_exclusions.txt	LTP202	ltpFR	3	2	0	COYOTE	396	n/a	1	0	0.5869140625	0.422607421875	lower	../fonts/zerothre.ttf
281514	WORD	wordpools/wasnorm_wordpool_less_exclusions.txt	LTP202	ltpFR	3	2	0	COLLAR	345	n/a	0	0	0.5869140625	0.422607421875	lower	../fonts/zerothre.ttf
287373	REC_START	n/a	LTP202	ltpFR	3	2	n/a	n/a	n/a	n/a	n/a	n/a	n/a	n/a	n/a	n/a
288475	REC_WORD	wordpools/wasnorm_wordpool_less_exclusions.txt	LTP202	ltpFR	3	2	0	THRONE	1461	n/a	1	n/a	n/a	n/a	n/a	n/a
289234	REC_WORD	wordpools/wasnorm_wordpool_less_exclusions.txt	LTP202	ltpFR	3	2	0	COLLAR	345	n/a	0	n/a	n/a	n/a	n/a	n/a
290042	REC_WORD	wordpools/wasnorm_wordpool_less_exclusions.txt	LTP202	ltpFR	3	2	0	COYOTE	396	n/a	1	n/a	n/a	n/a	n/a	n/a
292192	REC_WORD	wordpools/wasnorm_wordpool_less_exclusions.txt	LTP202	ltpFR	3	2	1	PIANO	1057	n/a	0	n/a	n/a	n/a	n/a	n/a
295933	REC_WORD	wordpools/wasnorm_wordpool_less_exclusions.txt	LTP202	ltpFR	3	2	1	PAINTER	1004	n/a	1	n/a	n/a	n/a	n/a	n/a
307133	REC_WORD	wordpools/wasnorm_wordpool_less_exclusions.txt	LTP202	ltpFR	3	2	1	PIGEON	1065	n/a	1	n/a	n/a	n/a	n/a	n/a
314800	REC_WORD	wordpools/wasnorm_wordpool_less_exclusions.txt	LTP202	ltpFR	3	2	1	VEGETABLE	1552	n/a	0	n/a	n/a	n/a	n/a	n/a
316591	REC_WORD	wordpools/wasnorm_wordpool_less_exclusions.txt	LTP202	ltpFR	3	2	1	BALLERINA	74	n/a	1	n/a	n/a	n/a	n/a	n/a
326424	REC_WORD	wordpools/wasnorm_wordpool_less_exclusions.txt	LTP202	ltpFR	3	2	0	NEUTRON	947	n/a	0	n/a	n/a	n/a	n/a	n/a
344333	REC_WORD	wordpools/wasnorm_wordpool_less_exclusions.txt	LTP202	ltpFR	3	2	1	WOLF	1619	n/a	1	n/a	n/a	n/a	n/a	n/a
382946	WORD	wordpools/wasnorm_wordpool_less_exclusions.txt	LTP202	ltpFR	3	3	0	ASSOCIATE	49	n/a	1	0	0.5869140625	0.422607421875	lower	../fonts/zerothre.ttf
387140	WORD	wordpools/wasnorm_wordpool_less_exclusions.txt	LTP202	ltpFR	3	3	0	GRASS	655	n/a	0	0	0.5869140625	0.422607421875	lower	../fonts/zerothre.ttf
391067	WORD	wordpools/wasnorm_wordpool_less_exclusions.txt	LTP202	ltpFR	3	3	0	OAR	966	n/a	1	0	0.5869140625	0.422607421875	lower	../fonts/zerothre.ttf
395061	WORD	wordpools/wasnorm_wordpool_less_exclusions.txt	LTP202	ltpFR	3	3	0	CLAY	320	n/a	0	0	0.5869140625	0.422607421875	lower	../fonts/zerothre.ttf
399105	WORD	wordpools/wasnorm_wordpool_less_exclusions.txt	LTP202	ltpFR	3	3	0	PAIL	1002	n/a	0	0	0.5869140625	0.422607421875	lower	../fonts/zerothre.ttf
403249	WORD	wordpools/wasnorm_wordpool_less_exclusions.txt	LTP202	ltpFR	3	3	0	BEER	114	n/a	0	0	0.5869140625	0.422607421875	lower	../fonts/zerothre.ttf
407110	WORD	wordpools/wasnorm_wordpool_less_exclusions.txt	LTP202	ltpFR	3	3	0	RUM	1217	n/a	0	0	0.5869140625	0.422607421875	lower	../fonts/zerothre.ttf
411237	WORD	wordpools/wasnorm_wordpool_less_exclusions.txt	LTP202	ltpFR	3	3	0	CARAVAN	242	n/a	1	0	0.5869140625	0.422607421875	lower	../fonts/zerothre.ttf
415281	WORD	wordpools/wasnorm_wordpool_less_exclusions.txt	LTP202	ltpFR	3	3	0	MARS	873	n/a	1	0	0.5869140625	0.422607421875	lower	../fonts/zerothre.ttf
419325	WORD	wordpools/wasnorm_wordpool_less_exclusions.txt	LTP202	ltpFR	3	3	0	METEOR	889	n/a	1	0	0.5869140625	0.422607421875	lower	../fonts/zerothre.ttf
423303	WORD	wordpools/wasnorm_wordpool_less_exclusions.txt	LTP202	ltpFR	3	3	0	MUSTARD	935	n/a	0	0	0.5869140625	0.422607421875	lower	../fonts/zerothre.ttf
427297	WORD	wordpools/wasnorm_wordpool_less_exclusions.txt	LTP202	ltpFR	3	3	0	HAMBURGER	679	n/a	1	0	0.5869140625	0.422607421875	lower	../fonts/zerothre.ttf
431174	WORD	wordpools/wasnorm_wordpool_less_exclusions.txt	LTP202	ltpFR	3	3	0	APPLICATION	34	n/a	1	0	0.5869140625	0.422607421875	lower	../fonts/zerothre.ttf
435301	WORD	wordpools/wasnorm_wordpool_less_exclusions.txt	LTP202	ltpFR	3	3	0	HEDGE	699	n/a	0	0	0.5869140625	0.422607421875	lower	../fonts/zerothre.ttf
439229	WORD	wordpools/wasnorm_wordpool_less_exclusions.txt	LTP202	ltpFR	3	3	0	TROPHY	1509	n/a	1	0	0.5869140625	0.422607421875	lower	../fonts/zerothre.ttf
443273	WORD	wordpools/wasnorm_wordpool_less_exclusions.txt	LTP202	ltpFR	3	3	0	AUTOMOBILE	62	n/a	1	0	0.5869140625	0.422607421875	lower	../fonts/zerothre.ttf
448898	REC_START	n/a	LTP202	ltpFR	3	3	n/a	n/a	n/a	n/a	n/a	n/a	n/a	n/a	n/a	n/a
449372	REC_WORD	wordpools/wasnorm_wordpool_less_exclusions.txt	LTP202	ltpFR	3	3	0	HEDGE	699	n/a	0	n/a	n/a	n/a	n/a	n/a
450000	REC_WORD	wordpools/wasnorm_wordpool_less_exclusions.txt	LTP202	ltpFR	3	3	0	TROPHY	1509	n/a	1	n/a	n/a	n/a	n/a	n/a
450803	REC_WORD	wordpools/wasnorm_wordpool_less_exclusions.txt	LTP202	ltpFR	3	3	0	AUTOMOBILE	62	n/a	1	n/a	n/a	n/a	n/a	n/a
452280	REC_WORD	wordpools/wasnorm_wordpool_less_exclusions.txt	LTP202	ltpFR	3	3	0	BEER	114	n/a	0	n/a	n/a	n/a	n/a	n/a
452869	REC_WORD	wordpools/wasnorm_wordpool_less_exclusions.txt	LTP202	ltpFR	3	3	0	RUM	1217	n/a	0	n/a	n/a	n/a	n/a	n/a
453502	REC_WORD	wordpools/wasnorm_wordpool_less_exclusions.txt	LTP202	ltpFR	3	3	0	ASSOCIATE	49	n/a	1	n/a	n/a	n/a	n/a	n/a
454730	REC_WORD	wordpools/wasnorm_wordpool_less_exclusions.txt	LTP202	ltpFR	3	3	0	GRASS	655	n/a	0	n/a	n/a	n/a	n/a	n/a
455558	REC_WORD	wordpools/wasnorm_wordpool_less_exclusions.txt	LTP202	ltpFR	3	3	0	OAR	966	n/a	1	n/a	n/a	n/a	n/a	n/a
461843	REC_WORD	wordpools/wasnorm_wordpool_less_exclusions.txt	LTP202	ltpFR	3	3	0	PAIL	1002	n/a	0	n/a	n/a	n/a	n/a	n/a
468044	REC_WORD	wordpools/wasnorm_wordpool_less_exclusions.txt	LTP202	ltpFR	3	3	0	MARS	873	n/a	1	n/a	n/a	n/a	n/a	n/a
538331	WORD	wordpools/wasnorm_wordpool_less_exclusions.txt	LTP202	ltpFR	3	4	1	COW	393	n/a	1	1	0.412841796875	0.57763671875	upper	../fonts/amplitud.ttf
542192	WORD	wordpools/wasnorm_wordpool_less_exclusions.txt	LTP202	ltpFR	3	4	1	CHEST	295	n/a	0	1	0.412841796875	0.57763671875	upper	../fonts/amplitud.ttf
546152	WORD	wordpools/wasnorm_wordpool_less_exclusions.txt	LTP202	ltpFR	3	4	1	SHOULDER	1294	n/a	0	1	0.412841796875	0.57763671875	upper	../fonts/amplitud.ttf
550080	WORD	wordpools/wasnorm_wordpool_less_exclusions.txt	LTP202	ltpFR	3	4	1	STAKE	1368	n/a	0	1	0.412841796875	0.57763671875	upper	../fonts/amplitud.ttf
554107	WORD	wordpools/wasnorm_wordpool_less_exclusions.txt	LTP202	ltpFR	3	4	1	ROBIN	1199	n/a	1	1	0.412841796875	0.57763671875	upper	../fonts/amplitud.ttf
558118	WORD	wordpools/wasnorm_wordpool_less_exclusions.txt	LTP202	ltpFR	3	4	1	TIDE	1465	n/a	0	1	0.412841796875	0.57763671875	upper	../fonts/amplitud.ttf
562245	WORD	wordpools/wasnorm_wordpool_less_exclusions.txt	LTP202	ltpFR	3	4	1	MONK	910	n/a	1	1	0.412841796875	0.57763671875	upper	../fonts/amplitud.ttf
566372	WORD	wordpools/wasnorm_wordpool_less_exclusions.txt	LTP202	ltpFR	3	4	1	WINDSHIELD	1612	n/a	0	1	0.412841796875	0.57763671875	upper	../fonts/amplitud.ttf
570583	WORD	wordpools/wasnorm_wordpool_less_exclusions.txt	LTP202	ltpFR	3	4	1	RACCOON	1153	n/a	1	1	0.412841796875	0.57763671875	upper	../fonts/amplitud.ttf
574477	WORD	wordpools/wasnorm_wordpool_less_exclusions.txt	LTP202	ltpFR	3	4	1	GIRAFFE	636	n/a	1	1	0.412841796875	0.57763671875	upper	../fonts/amplitud.ttf
578688	WORD	wordpools/wasnorm_wordpool_less_exclusions.txt	LTP202	ltpFR	3	4	1	STEW	1380	n/a	0	1	0.412841796875	0.57763671875	upper	../fonts/amplitud.ttf
582898	WORD	wordpools/wasnorm_wordpool_less_exclusions.txt	LTP202	ltpFR	3	4	1	CARRIAGE	248	n/a	0	1	0.412841796875	0.57763671875	upper	../fonts/amplitud.ttf
586775	WORD	wordpools/wasnorm_wordpool_less_exclusions.txt	LTP202	ltpFR	3	4	1	STALLION	1369	n/a	1	1	0.412841796875	0.57763671875	upper	../fonts/amplitud.ttf
590852	WORD	wordpools/wasnorm_wordpool_less_exclusions.txt	LTP202	ltpFR	3	4	1	CRACKER	398	n/a	0	1	0.412841796875	0.57763671875	upper	../fonts/amplitud.ttf
594748	WORD	wordpools/wasnorm_wordpool_less_exclusions.txt	LTP202	ltpFR	3	4	1	DAM	436	n/a	0	1	0.412841796875	0.57763671875	upper	../fonts/amplitud.ttf
598890	WORD	wordpools/wasnorm_wordpool_less_exclusions.txt	LTP202	ltpFR	3	4	1	CABIN	211	n/a	0	1	0.412841796875	0.57763671875	upper	../fonts/amplitud.ttf
604650	REC_START	n/a	LTP202	ltpFR	3	4	n/a	n/a	n/a	n/a	n/a	n/a	n/a	n/a	n/a	n/a
605298	REC_WORD	wordpools/wasnorm_wordpool_less_exclusions.txt	LTP202	ltpFR	3	4	1	CABIN	211	n/a	0	n/a	n/a	n/a	n/a	n/a
606530	REC_WORD	wordpools/wasnorm_wordpool_less_exclusions.txt	LTP202	ltpFR	3	4	1	STALLION	1369	n/a	1	n/a	n/a	n/a	n/a	n/a
607578	REC_WORD	wordpools/wasnorm_wordpool_less_exclusions.txt	LTP202	ltpFR	3	4	1	CRACKER	398	n/a	0	n/a	n/a	n/a	n/a	n/a
608686	REC_WORD	wordpools/wasnorm_wordpool_less_exclusions.txt	LTP202	ltpFR	3	4	1	STEW	1380	n/a	0	n/a	n/a	n/a	n/a	n/a
611040	REC_WORD	wordpools/wasnorm_wordpool_less_exclusions.txt	LTP202	ltpFR	3	4	1	GIRAFFE	636	n/a	1	n/a	n/a	n/a	n/a	n/a
612956	REC_WORD	wordpools/wasnorm_wordpool_less_exclusions.txt	LTP202	ltpFR	3	4	1	CHEST	295	n/a	0	n/a	n/a	n/a	n/a	n/a
613844	REC_WORD	wordpools/wasnorm_wordpool_less_exclusions.txt	LTP202	ltpFR	3	4	1	SHOULDER	1294	n/a	0	n/a	n/a	n/a	n/a	n/a
615715	REC_WORD	wordpools/wasnorm_wordpool_less_exclusions.txt	LTP202	ltpFR	3	4	1	STAKE	1368	n/a	0	n/a	n/a	n/a	n/a	n/a
616702	REC_WORD	wordpools/wasnorm_wordpool_less_exclusions.txt	LTP202	ltpFR	3	4	1	COW	393	n/a	1	n/a	n/a	n/a	n/a	n/a
635599	REC_WORD	wordpools/wasnorm_wordpool_less_exclusions.txt	LTP202	ltpFR	3	4	1	WINDSHIELD	1612	n/a	0	n/a	n/a	n/a	n/a	n/a
639989	REC_WORD	wordpools/wasnorm_wordpool_less_exclusions.txt	LTP202	ltpFR	3	4	1	DAM	436	n/a	0	n/a	n/a	n/a	n/a	n/a
649742	REC_WORD	wordpools/wasnorm_wordpool_less_exclusions.txt	LTP202	ltpFR	3	4	1	RACCOON	1153	n/a	1	n/a	n/a	n/a	n/a	n/a
655350	REC_WORD	wordpools/wasnorm_wordpool_less_exclusions.txt	LTP202	ltpFR	3	4	1	ROBIN	1199	n/a	1	n/a	n/a	n/a	n/a	n/a
700322	WORD	wordpools/wasnorm_wordpool_less_exclusions.txt	LTP202	ltpFR	3	5	-1	ARMY	39	n/a	-1	1	1.0	1.0	upper	../fonts/Verdana.ttf
704250	WORD	wordpools/wasnorm_wordpool_less_exclusions.txt	LTP202	ltpFR	3	5	-1	HOE	711	n/a	-1	1	1.0	1.0	upper	../fonts/Verdana.ttf
708244	WORD	wordpools/wasnorm_wordpool_less_exclusions.txt	LTP202	ltpFR	3	5	-1	CONSUMER	365	n/a	-1	1	1.0	1.0	upper	../fonts/Verdana.ttf
712404	WORD	wordpools/wasnorm_wordpool_less_exclusions.txt	LTP202	ltpFR	3	5	-1	KING	777	n/a	-1	1	1.0	1.0	upper	../fonts/Verdana.ttf
716415	WORD	wordpools/wasnorm_wordpool_less_exclusions.txt	LTP202	ltpFR	3	5	-1	TIMBER	1469	n/a	-1	1	1.0	1.0	upper	../fonts/Verdana.ttf
720575	WORD	wordpools/wasnorm_wordpool_less_exclusions.txt	LTP202	ltpFR	3	5	-1	MARKET	871	n/a	-1	1	1.0	1.0	upper	../fonts/Verdana.ttf
724703	WORD	wordpools/wasnorm_wordpool_less_exclusions.txt	LTP202	ltpFR	3	5	-1	CAFE	216	n/a	-1	1	1.0	1.0	upper	../fonts/Verdana.ttf
728714	WORD	wordpools/wasnorm_wordpool_less_exclusions.txt	LTP202	ltpFR	3	5	-1	TANK	1432	n/a	-1	1	1.0	1.0	upper	../fonts/Verdana.ttf
732940	WORD	wordpools/wasnorm_wordpool_less_exclusions.txt	LTP202	ltpFR	3	5	-1	AWARD	63	n/a	-1	1	1.0	1.0	upper	../fonts/Verdana.ttf
736801	WORD	wordpools/wasnorm_wordpool_less_exclusions.txt	LTP202	ltpFR	3	5	-1	MOLECULE	905	n/a	-1	1	1.0	1.0	upper	../fonts/Verdana.ttf
740663	WORD	wordpools/wasnorm_wordpool_less_exclusions.txt	LTP202	ltpFR	3	5	-1	PROTON	1132	n/a	-1	1	1.0	1.0	upper	../fonts/Verdana.ttf
744556	WORD	wordpools/wasnorm_wordpool_less_exclusions.txt	LTP202	ltpFR	3	5	-1	GREASE	660	n/a	-1	1	1.0	1.0	upper	../fonts/Verdana.ttf
748734	WORD	wordpools/wasnorm_wordpool_less_exclusions.txt	LTP202	ltpFR	3	5	-1	MEDAL	885	n/a	-1	1	1.0	1.0	upper	../fonts/Verdana.ttf
752794	WORD	wordpools/wasnorm_wordpool_less_exclusions.txt	LTP202	ltpFR	3	5	-1	ACORN	3	n/a	-1	1	1.0	1.0	upper	../fonts/Verdana.ttf
756821	WORD	wordpools/wasnorm_wordpool_less_exclusions.txt	LTP202	ltpFR	3	5	-1	MARGARINE	868	n/a	-1	1	1.0	1.0	upper	../fonts/Verdana.ttf
760700	WORD	wordpools/wasnorm_wordpool_less_exclusions.txt	LTP202	ltpFR	3	5	-1	NEPHEW	942	n/a	-1	1	1.0	1.0	upper	../fonts/Verdana.ttf
766607	REC_START	n/a	LTP202	ltpFR	3	5	n/a	n/a	n/a	n/a	n/a	n/a	n/a	n/a	n/a	n/a
767026	REC_WORD	wordpools/wasnorm_wordpool_less_exclusions.txt	LTP202	ltpFR	3	5	-1	ACORN	3	n/a	-1	n/a	n/a	n/a	n/a	n/a
767584	REC_WORD	wordpools/wasnorm_wordpool_less_exclusions.txt	LTP202	ltpFR	3	5	-1	MARGARINE	868	n/a	-1	n/a	n/a	n/a	n/a	n/a
768537	REC_WORD	wordpools/wasnorm_wordpool_less_exclusions.txt	LTP202	ltpFR	3	5	-1	NEPHEW	942	n/a	-1	n/a	n/a	n/a	n/a	n/a
769500	REC_WORD	wordpools/wasnorm_wordpool_less_exclusions.txt	LTP202	ltpFR	3	5	-1	ARMY	39	n/a	-1	n/a	n/a	n/a	n/a	n/a
770303	REC_WORD	wordpools/wasnorm_wordpool_less_exclusions.txt	LTP202	ltpFR	3	5	-1	TANK	1432	n/a	-1	n/a	n/a	n/a	n/a	n/a
775072	REC_WORD_VV	wordpools/wasnorm_wordpool_less_exclusions.txt	LTP202	ltpFR	3	5	n/a	<>	-1	n/a	n/a	n/a	n/a	n/a	n/a	n/a
793141	REC_WORD	wordpools/wasnorm_wordpool_less_exclusions.txt	LTP202	ltpFR	3	5	-1	PROTON	1132	n/a	-1	n/a	n/a	n/a	n/a	n/a
794104	REC_WORD	wordpools/wasnorm_wordpool_less_exclusions.txt	LTP202	ltpFR	3	5	-1	MOLECULE	905	n/a	-1	n/a	n/a	n/a	n/a	n/a
801587	REC_WORD	wordpools/wasnorm_wordpool_less_exclusions.txt	LTP202	ltpFR	3	5	-1	CAFE	216	n/a	-1	n/a	n/a	n/a	n/a	n/a
852729	WORD	wordpools/wasnorm_wordpool_less_exclusions.txt	LTP202	ltpFR	3	6	-1	CHERRY	293	n/a	-1	1	1.0	1.0	upper	../fonts/Verdana.ttf
856605	WORD	wordpools/wasnorm_wordpool_less_exclusions.txt	LTP202	ltpFR	3	6	-1	TULIP	1517	n/a	-1	1	1.0	1.0	upper	../fonts/Verdana.ttf
860750	WORD	wordpools/wasnorm_wordpool_less_exclusions.txt	LTP202	ltpFR	3	6	-1	FIST	572	n/a	-1	1	1.0	1.0	upper	../fonts/Verdana.ttf
864593	WORD	wordpools/wasnorm_wordpool_less_exclusions.txt	LTP202	ltpFR	3	6	-1	DINNER	468	n/a	-1	1	1.0	1.0	upper	../fonts/Verdana.ttf
868672	WORD	wordpools/wasnorm_wordpool_less_exclusions.txt	LTP202	ltpFR	3	6	-1	RUBY	1214	n/a	-1	1	1.0	1.0	upper	../fonts/Verdana.ttf
872598	WORD	wordpools/wasnorm_wordpool_less_exclusions.txt	LTP202	ltpFR	3	6	-1	LITERATURE	831	n/a	-1	1	1.0	1.0	upper	../fonts/Verdana.ttf
876676	WORD	wordpools/wasnorm_wordpool_less_exclusions.txt	LTP202	ltpFR	3	6	-1	ALMANAC	17	n/a	-1	1	1.0	1.0	upper	../fonts/Verdana.ttf
880704	WORD	wordpools/wasnorm_wordpool_less_exclusions.txt	LTP202	ltpFR	3	6	-1	COMPASS	358	n/a	-1	1	1.0	1.0	upper	../fonts/Verdana.ttf
884830	WORD	wordpools/wasnorm_wordpool_less_exclusions.txt	LTP202	ltpFR	3	6	-1	ORCHESTRA	981	n/a	-1	1	1.0	1.0	upper	../fonts/Verdana.ttf
888758	WORD	wordpools/wasnorm_wordpool_less_exclusions.txt	LTP202	ltpFR	3	6	-1	VINE	1568	n/a	-1	1	1.0	1.0	upper	../fonts/Verdana.ttf
892884	WORD	wordpools/wasnorm_wordpool_less_exclusions.txt	LTP202	ltpFR	3	6	-1	WINE	1613	n/a	-1	1	1.0	1.0	upper	../fonts/Verdana.ttf
896912	WORD	wordpools/wasnorm_wordpool_less_exclusions.txt	LTP202	ltpFR	3	6	-1	FLIPPER	580	n/a	-1	1	1.0	1.0	upper	../fonts/Verdana.ttf
901022	WORD	wordpools/wasnorm_wordpool_less_exclusions.txt	LTP202	ltpFR	3	6	-1	SURF	1412	n/a	-1	1	1.0	1.0	upper	../fonts/Verdana.ttf
904867	WORD	wordpools/wasnorm_wordpool_less_exclusions.txt	LTP202	ltpFR	3	6	-1	SUPERMARKET	1409	n/a	-1	1	1.0	1.0	upper	../fonts/Verdana.ttf
909060	WORD	wordpools/wasnorm_wordpool_less_exclusions.txt	LTP202	ltpFR	3	6	-1	CHISEL	305	n/a	-1	1	1.0	1.0	upper	../fonts/Verdana.ttf
912988	WORD	wordpools/wasnorm_wordpool_less_exclusions.txt	LTP202	ltpFR	3	6	-1	WARRIOR	1589	n/a	-1	1	1.0	1.0	upper	../fonts/Verdana.ttf
919046	REC_START	n/a	LTP202	ltpFR	3	6	n/a	n/a	n/a	n/a	n/a	n/a	n/a	n/a	n/a	n/a
919375	REC_WORD	wordpools/wasnorm_wordpool_less_exclusions.txt	LTP202	ltpFR	3	6	-1	SURF	1412	n/a	-1	n/a	n/a	n/a	n/a	n/a
920019	REC_WORD	wordpools/wasnorm_wordpool_less_exclusions.txt	LTP202	ltpFR	3	6	-1	SUPERMARKET	1409	n/a	-1	n/a	n/a	n/a	n/a	n/a
921071	REC_WORD	wordpools/wasnorm_wordpool_less_exclusions.txt	LTP202	ltpFR	3	6	-1	CHISEL	305	n/a	-1	n/a	n/a	n/a	n/a	n/a
921715	REC_WORD	wordpools/wasnorm_wordpool_less_exclusions.txt	LTP202	ltpFR	3	6	-1	WARRIOR	1589	n/a	-1	n/a	n/a	n/a	n/a	n/a
922503	REC_WORD	wordpools/wasnorm_wordpool_less_exclusions.txt	LTP202	ltpFR	3	6	-1	ALMANAC	17	n/a	-1	n/a	n/a	n/a	n/a	n/a
923241	REC_WORD	wordpools/wasnorm_wordpool_less_exclusions.txt	LTP202	ltpFR	3	6	-1	COMPASS	358	n/a	-1	n/a	n/a	n/a	n/a	n/a
926190	REC_WORD	wordpools/wasnorm_wordpool_less_exclusions.txt	LTP202	ltpFR	3	6	-1	TULIP	1517	n/a	-1	n/a	n/a	n/a	n/a	n/a
928020	REC_WORD	wordpools/wasnorm_wordpool_less_exclusions.txt	LTP202	ltpFR	3	6	-1	RUBY	1214	n/a	-1	n/a	n/a	n/a	n/a	n/a
931877	REC_WORD	wordpools/wasnorm_wordpool_less_exclusions.txt	LTP202	ltpFR	3	6	-1	SUPERMARKET	1409	n/a	-1	n/a	n/a	n/a	n/a	n/a
933992	REC_WORD	wordpools/wasnorm_wordpool_less_exclusions.txt	LTP202	ltpFR	3	6	-1	FIST	572	n/a	-1	n/a	n/a	n/a	n/a	n/a
941220	REC_WORD	wordpools/wasnorm_wordpool_less_exclusions.txt	LTP202	ltpFR	3	6	-1	WINE	1613	n/a	-1	n/a	n/a	n/a	n/a	n/a
942003	REC_WORD	wordpools/wasnorm_wordpool_less_exclusions.txt	LTP202	ltpFR	3	6	-1	VINE	1568	n/a	-1	n/a	n/a	n/a	n/a	n/a
949741	REC_WORD	wordpools/wasnorm_wordpool_less_exclusions.txt	LTP202	ltpFR	3	6	-1	CHISEL	305	n/a	-1	n/a	n/a	n/a	n/a	n/a
951063	REC_WORD	wordpools/wasnorm_wordpool_less_exclusions.txt	LTP202	ltpFR	3	6	-1	WARRIOR	1589	n/a	-1	n/a	n/a	n/a	n/a	n/a
978695	REC_WORD	wordpools/wasnorm_wordpool_less_exclusions.txt	LTP202	ltpFR	3	6	-1	CHERRY	293	n/a	-1	n/a	n/a	n/a	n/a	n/a
1000574	WORD	wordpools/wasnorm_wordpool_less_exclusions.txt	LTP202	ltpFR	3	7	1	ROOM	1206	n/a	0	1	0.412841796875	0.57763671875	upper	../fonts/amplitud.ttf
1004551	WORD	wordpools/wasnorm_wordpool_less_exclusions.txt	LTP202	ltpFR	3	7	1	PILLOW	1069	n/a	0	1	0.412841796875	0.57763671875	upper	../fonts/amplitud.ttf
1008478	WORD	wordpools/wasnorm_wordpool_less_exclusions.txt	LTP202	ltpFR	3	7	0	COBBLER	335	n/a	0	0	0.5869140625	0.422607421875	lower	../fonts/zerothre.ttf
1012690	WORD	wordpools/wasnorm_wordpool_less_exclusions.txt	LTP202	ltpFR	3	7	0	CHAMBER	277	n/a	1	0	0.5869140625	0.422607421875	lower	../fonts/zerothre.ttf
1016849	WORD	wordpools/wasnorm_wordpool_less_exclusions.txt	LTP202	ltpFR	3	7	0	BED	110	n/a	1	0	0.5869140625	0.422607421875	lower	../fonts/zerothre.ttf
1020926	WORD	wordpools/wasnorm_wordpool_less_exclusions.txt	LTP202	ltpFR	3	7	0	CHEEK	287	n/a	0	0	0.5869140625	0.422607421875	lower	../fonts/zerothre.ttf
1024804	WORD	wordpools/wasnorm_wordpool_less_exclusions.txt	LTP202	ltpFR	3	7	1	SPHINX	1349	n/a	0	1	0.412841796875	0.57763671875	upper	../fonts/amplitud.ttf
1028964	WORD	wordpools/wasnorm_wordpool_less_exclusions.txt	LTP202	ltpFR	3	7	1	PERSON	1052	n/a	1	1	0.412841796875	0.57763671875	upper	../fonts/amplitud.ttf
1032975	WORD	wordpools/wasnorm_wordpool_less_exclusions.txt	LTP202	ltpFR	3	7	1	COBRA	336	n/a	1	1	0.412841796875	0.57763671875	upper	../fonts/amplitud.ttf
1036853	WORD	wordpools/wasnorm_wordpool_less_exclusions.txt	LTP202	ltpFR	3	7	1	OATMEAL	967	n/a	0	1	0.412841796875	0.57763671875	upper	../fonts/amplitud.ttf
1040930	WORD	wordpools/wasnorm_wordpool_less_exclusions.txt	LTP202	ltpFR	3	7	1	INTESTINE	742	n/a	0	1	0.412841796875	0.57763671875	upper	../fonts/amplitud.ttf
1044974	WORD	wordpools/wasnorm_wordpool_less_exclusions.txt	LTP202	ltpFR	3	7	1	DAD	433	n/a	1	1	0.412841796875	0.57763671875	upper	../fonts/amplitud.ttf
1048968	WORD	wordpools/wasnorm_wordpool_less_exclusions.txt	LTP202	ltpFR	3	7	0	BASEBALL	93	n/a	0	0	0.5869140625	0.422607421875	lower	../fonts/zerothre.ttf
1052829	WORD	wordpools/wasnorm_wordpool_less_exclusions.txt	LTP202	ltpFR	3	7	0	VOLLEYBALL	1576	n/a	1	0	0.5869140625	0.422607421875	lower	../fonts/zerothre.ttf
1057023	WORD	wordpools/wasnorm_wordpool_less_exclusions.txt	LTP202	ltpFR	3	7	0	TROUT	1511	n/a	0	0	0.5869140625	0.422607421875	lower	../fonts/zerothre.ttf
1061216	WORD	wordpools/wasnorm_wordpool_less_exclusions.txt	LTP202	ltpFR	3	7	0	SHRIMP	1297	n/a	0	0	0.5869140625	0.422607421875	lower	../fonts/zerothre.ttf
1066975	REC_START	n/a	LTP202	ltpFR	3	7	n/a	n/a	n/a	n/a	n/a	n/a	n/a	n/a	n/a	n/a
1067494	REC_WORD	wordpools/wasnorm_wordpool_less_exclusions.txt	LTP202	ltpFR	3	7	0	TROUT	1511	n/a	0	n/a	n/a	n/a	n/a	n/a
1068067	REC_WORD	wordpools/wasnorm_wordpool_less_exclusions.txt	LTP202	ltpFR	3	7	0	SHRIMP	1297	n/a	0	n/a	n/a	n/a	n/a	n/a
1068796	REC_WORD	wordpools/wasnorm_wordpool_less_exclusions.txt	LTP202	ltpFR	3	7	1	PERSON	1052	n/a	1	n/a	n/a	n/a	n/a	n/a
1069704	REC_WORD	wordpools/wasnorm_wordpool_less_exclusions.txt	LTP202	ltpFR	3	7	1	DAD	433	n/a	1	n/a	n/a	n/a	n/a	n/a
1070472	REC_WORD	wordpools/wasnorm_wordpool_less_exclusions.txt	LTP202	ltpFR	3	7	0	BED	110	n/a	1	n/a	n/a	n/a	n/a	n/a
1072542	REC_WORD	wordpools/wasnorm_wordpool_less_exclusions.txt	LTP202	ltpFR	3	7	0	VOLLEYBALL	1576	n/a	1	n/a	n/a	n/a	n/a	n/a
1073685	REC_WORD	wordpools/wasnorm_wordpool_less_exclusions.txt	LTP202	ltpFR	3	7	0	BASEBALL	93	n/a	0	n/a	n/a	n/a	n/a	n/a
1076697	REC_WORD	wordpools/wasnorm_wordpool_less_exclusions.txt	LTP202	ltpFR	3	7	1	INTESTINE	742	n/a	0	n/a	n/a	n/a	n/a	n/a
1082789	REC_WORD	wordpools/wasnorm_wordpool_less_exclusions.txt	LTP202	ltpFR	3	7	1	ROOM	1206	n/a	0	n/a	n/a	n/a	n/a	n/a
1084146	REC_WORD	wordpools/wasnorm_wordpool_less_exclusions.txt	LTP202	ltpFR	3	7	0	CHAMBER	277	n/a	1	n/a	n/a	n/a	n/a	n/a
1121675	REC_WORD	wordpools/wasnorm_wordpool_less_exclusions.txt	LTP202	ltpFR	3	7	0	SHRIMP	1297	n/a	0	n/a	n/a	n/a	n/a	n/a
1122384	REC_WORD	wordpools/wasnorm_wordpool_less_exclusions.txt	LTP202	ltpFR	3	7	0	TROUT	1511	n/a	0	n/a	n/a	n/a	n/a	n/a
1133169	REC_WORD	wordpools/wasnorm_wordpool_less_exclusions.txt	LTP202	ltpFR	3	7	0	BED	110	n/a	1	n/a	n/a	n/a	n/a	n/a
1146206	WORD	wordpools/wasnorm_wordpool_less_exclusions.txt	LTP202	ltpFR	3	8	0	CONCERT	360	n/a	1	0	0.5869140625	0.422607421875	lower	../fonts/zerothre.ttf
1150067	WORD	wordpools/wasnorm_wordpool_less_exclusions.txt	LTP202	ltpFR	3	8	0	BAKER	71	n/a	0	0	0.5869140625	0.422607421875	lower	../fonts/zerothre.ttf
1154028	WORD	wordpools/wasnorm_wordpool_less_exclusions.txt	LTP202	ltpFR	3	8	0	LINEN	825	n/a	0	0	0.5869140625	0.422607421875	lower	../fonts/zerothre.ttf
1157872	WORD	wordpools/wasnorm_wordpool_less_exclusions.txt	LTP202	ltpFR	3	8	0	PAN	1008	n/a	0	0	0.5869140625	0.422607421875	lower	../fonts/zerothre.ttf
1161899	WORD	wordpools/wasnorm_wordpool_less_exclusions.txt	LTP202	ltpFR	3	8	0	CAKE	219	n/a	0	0	0.5869140625	0.422607421875	lower	../fonts/zerothre.ttf
1165993	WORD	wordpools/wasnorm_wordpool_less_exclusions.txt	LTP202	ltpFR	3	8	0	DETERGENT	455	n/a	0	0	0.5869140625	0.422607421875	lower	../fonts/zerothre.ttf
1170104	WORD	wordpools/wasnorm_wordpool_less_exclusions.txt	LTP202	ltpFR	3	8	0	DISH	474	n/a	0	0	0.5869140625	0.422607421875	lower	../fonts/zerothre.ttf
1173965	WORD	wordpools/wasnorm_wordpool_less_exclusions.txt	LTP202	ltpFR	3	8	0	BARK	87	n/a	0	0	0.5869140625	0.422607421875	lower	../fonts/zerothre.ttf
1178058	WORD	wordpools/wasnorm_wordpool_less_exclusions.txt	LTP202	ltpFR	3	8	0	LEAF	808	n/a	0	0	0.5869140625	0.422607421875	lower	../fonts/zerothre.ttf
1182202	WORD	wordpools/wasnorm_wordpool_less_exclusions.txt	LTP202	ltpFR	3	8	0	CALCULATOR	220	n/a	0	0	0.5869140625	0.422607421875	lower	../fonts/zerothre.ttf
1186363	WORD	wordpools/wasnorm_wordpool_less_exclusions.txt	LTP202	ltpFR	3	8	0	SPATULA	1348	n/a	0	0	0.5869140625	0.422607421875	lower	../fonts/zerothre.ttf
1190573	WORD	wordpools/wasnorm_wordpool_less_exclusions.txt	LTP202	ltpFR	3	8	0	ROOSTER	1209	n/a	1	0	0.5869140625	0.422607421875	lower	../fonts/zerothre.ttf
1194584	WORD	wordpools/wasnorm_wordpool_less_exclusions.txt	LTP202	ltpFR	3	8	0	HEN	703	n/a	1	0	0.5869140625	0.422607421875	lower	../fonts/zerothre.ttf
1198628	WORD	wordpools/wasnorm_wordpool_less_exclusions.txt	LTP202	ltpFR	3	8	0	SHELF	1280	n/a	0	0	0.5869140625	0.422607421875	lower	../fonts/zerothre.ttf
1202706	WORD	wordpools/wasnorm_wordpool_less_exclusions.txt	LTP202	ltpFR	3	8	0	RICE	1190	n/a	0	0	0.5869140625	0.422607421875	lower	../fonts/zerothre.ttf
1206549	WORD	wordpools/wasnorm_wordpool_less_exclusions.txt	LTP202	ltpFR	3	8	0	BAND	78	n/a	0	0	0.5869140625	0.422607421875	lower	../fonts/zerothre.ttf
1212491	REC_START	n/a	LTP202	ltpFR	3	8	n/a	n/a	n/a	n/a	n/a	n/a	n/a	n/a	n/a	n/a
1213199	REC_WORD	wordpools/wasnorm_wordpool_less_exclusions.txt	LTP202	ltpFR	3	8	0	RICE	1190	n/a	0	n/a	n/a	n/a	n/a	n/a
1213898	REC_WORD	wordpools/wasnorm_wordpool_less_exclusions.txt	LTP202	ltpFR	3	8	0	BAND	78	n/a	0	n/a	n/a	n/a	n/a	n/a
1214641	REC_WORD	wordpools/wasnorm_wordpool_less_exclusions.txt	LTP202	ltpFR	3	8	0	ROOSTER	1209	n/a	1	n/a	n/a	n/a	n/a	n/a
1215499	REC_WORD	wordpools/wasnorm_wordpool_less_exclusions.txt	LTP202	ltpFR	3	8	0	HEN	703	n/a	1	n/a	n/a	n/a	n/a	n/a
1217479	REC_WORD	wordpools/wasnorm_wordpool_less_exclusions.txt	LTP202	ltpFR	3	8	0	LEAF	808	n/a	0	n/a	n/a	n/a	n/a	n/a
1231947	REC_WORD	wordpools/wasnorm_wordpool_less_exclusions.txt	LTP202	ltpFR	3	8	0	CALCULATOR	220	n/a	0	n/a	n/a	n/a	n/a	n/a
1241769	REC_WORD	wordpools/wasnorm_wordpool_less_exclusions.txt	LTP202	ltpFR	3	8	0	PAN	1008	n/a	0	n/a	n/a	n/a	n/a	n/a
1243595	REC_WORD	wordpools/wasnorm_wordpool_less_exclusions.txt	LTP202	ltpFR	3	8	0	CAKE	219	n/a	0	n/a	n/a	n/a	n/a	n/a
1247411	REC_WORD	wordpools/wasnorm_wordpool_less_exclusions.txt	LTP202	ltpFR	3	8	0	BAKER	71	n/a	0	n/a	n/a	n/a	n/a	n/a
1300176	WORD	wordpools/wasnorm_wordpool_less_exclusions.txt	LTP202	ltpFR	3	9	1	SUPERVISOR	1410	n/a	1	1	0.412841796875	0.57763671875	upper	../fonts/amplitud.ttf
1304336	WORD	wordpools/wasnorm_wordpool_less_exclusions.txt	LTP202	ltpFR	3	9	1	CASH	252	n/a	0	1	0.412841796875	0.57763671875	upper	../fonts/amplitud.ttf
1308314	WORD	wordpools/wasnorm_wordpool_less_exclusions.txt	LTP202	ltpFR	3	9	1	NEWSPAPER	948	n/a	0	1	0.412841796875	0.57763671875	upper	../fonts/amplitud.ttf
1312508	WORD	wordpools/wasnorm_wordpool_less_exclusions.txt	LTP202	ltpFR	3	9	1	TREAD	1499	n/a	0	1	0.412841796875	0.57763671875	upper	../fonts/amplitud.ttf
1316368	WORD	wordpools/wasnorm_wordpool_less_exclusions.txt	LTP202	ltpFR	3	9	1	CLERK	321	n/a	1	1	0.412841796875	0.57763671875	upper	../fonts/amplitud.ttf
1320279	WORD	wordpools/wasnorm_wordpool_less_exclusions.txt	LTP202	ltpFR	3	9	1	MUSEUM	933	n/a	0	1	0.412841796875	0.57763671875	upper	../fonts/amplitud.ttf
1324240	WORD	wordpools/wasnorm_wordpool_less_exclusions.txt	LTP202	ltpFR	3	9	1	FLASK	576	n/a	0	1	0.412841796875	0.57763671875	upper	../fonts/amplitud.ttf
1328400	WORD	wordpools/wasnorm_wordpool_less_exclusions.txt	LTP202	ltpFR	3	9	1	PASSAGE	1019	n/a	0	1	0.412841796875	0.57763671875	upper	../fonts/amplitud.ttf
1332428	WORD	wordpools/wasnorm_wordpool_less_exclusions.txt	LTP202	ltpFR	3	9	1	FENCE	560	n/a	0	1	0.412841796875	0.57763671875	upper	../fonts/amplitud.ttf
1336372	WORD	wordpools/wasnorm_wordpool_less_exclusions.txt	LTP202	ltpFR	3	9	1	SERVANT	1271	n/a	1	1	0.412841796875	0.57763671875	upper	../fonts/amplitud.ttf
1340416	WORD	wordpools/wasnorm_wordpool_less_exclusions.txt	LTP202	ltpFR	3	9	1	WAITRESS	1581	n/a	1	1	0.412841796875	0.57763671875	upper	../fonts/amplitud.ttf
1344510	WORD	wordpools/wasnorm_wordpool_less_exclusions.txt	LTP202	ltpFR	3	9	1	FLASHLIGHT	575	n/a	0	1	0.412841796875	0.57763671875	upper	../fonts/amplitud.ttf
1348688	WORD	wordpools/wasnorm_wordpool_less_exclusions.txt	LTP202	ltpFR	3	9	1	MISTER	901	n/a	1	1	0.412841796875	0.57763671875	upper	../fonts/amplitud.ttf
1352797	WORD	wordpools/wasnorm_wordpool_less_exclusions.txt	LTP202	ltpFR	3	9	1	PRUNE	1134	n/a	0	1	0.412841796875	0.57763671875	upper	../fonts/amplitud.ttf
1356676	WORD	wordpools/wasnorm_wordpool_less_exclusions.txt	LTP202	ltpFR	3	9	1	TANGERINE	1431	n/a	0	1	0.412841796875	0.57763671875	upper	../fonts/amplitud.ttf
1360720	WORD	wordpools/wasnorm_wordpool_less_exclusions.txt	LTP202	ltpFR	3	9	1	ARTICLE	42	n/a	0	1	0.412841796875	0.57763671875	upper	../fonts/amplitud.ttf
1366844	REC_START	n/a	LTP202	ltpFR	3	9	n/a	n/a	n/a	n/a	n/a	n/a	n/a	n/a	n/a	n/a
1367537	REC_WORD	wordpools/wasnorm_wordpool_less_exclusions.txt	LTP202	ltpFR	3	9	1	PRUNE	1134	n/a	0	n/a	n/a	n/a	n/a	n/a
1368191	REC_WORD	wordpools/wasnorm_wordpool_less_exclusions.txt	LTP202	ltpFR	3	9	1	TANGERINE	1431	n/a	0	n/a	n/a	n/a	n/a	n/a
1369632	REC_WORD	wordpools/wasnorm_wordpool_less_exclusions.txt	LTP202	ltpFR	3	9	1	ARTICLE	42	n/a	0	n/a	n/a	n/a	n/a	n/a
1370441	REC_WORD	wordpools/wasnorm_wordpool_less_exclusions.txt	LTP202	ltpFR	3	9	1	SUPERVISOR	1410	n/a	1	n/a	n/a	n/a	n/a	n/a
1373005	REC_WORD	wordpools/wasnorm_wordpool_less_exclusions.txt	LTP202	ltpFR	3	9	1	CLERK	321	n/a	1	n/a	n/a	n/a	n/a	n/a
1378113	REC_WORD	wordpools/wasnorm_wordpool_less_exclusions.txt	LTP202	ltpFR	3	9	1	MISTER	901	n/a	1	n/a	n/a	n/a	n/a	n/a
1379754	REC_WORD	wordpools/wasnorm_wordpool_less_exclusions.txt	LTP202	ltpFR	3	9	1	SERVANT	1271	n/a	1	n/a	n/a	n/a	n/a	n/a
1382982	REC_WORD	wordpools/wasnorm_wordpool_less_exclusions.txt	LTP202	ltpFR	3	9	1	NEWSPAPER	948	n/a	0	n/a	n/a	n/a	n/a	n/a
1397759	REC_WORD	wordpools/wasnorm_wordpool_less_exclusions.txt	LTP202	ltpFR	3	9	1	TANGERINE	1431	n/a	0	n/a	n/a	n/a	n/a	n/a
1469057	WORD	wordpools/wasnorm_wordpool_less_exclusions.txt	LTP202	ltpFR	3	10	-1	CRATER	400	n/a	-1	1	1.0	1.0	upper	../fonts/Verdana.ttf
1472951	WORD	wordpools/wasnorm_wordpool_less_exclusions.txt	LTP202	ltpFR	3	10	-1	DASHBOARD	441	n/a	-1	1	1.0	1.0	upper	../fonts/Verdana.ttf
1476929	WORD	wordpools/wasnorm_wordpool_less_exclusions.txt	LTP202	ltpFR	3	10	-1	STAGE	1366	n/a	-1	1	1.0	1.0	upper	../fonts/Verdana.ttf
1481006	WORD	wordpools/wasnorm_wordpool_less_exclusions.txt	LTP202	ltpFR	3	10	-1	SAUSAGE	1238	n/a	-1	1	1.0	1.0	upper	../fonts/Verdana.ttf
1485066	WORD	wordpools/wasnorm_wordpool_less_exclusions.txt	LTP202	ltpFR	3	10	-1	ASHTRAY	45	n/a	-1	1	1.0	1.0	upper	../fonts/Verdana.ttf
1489094	WORD	wordpools/wasnorm_wordpool_less_exclusions.txt	LTP202	ltpFR	3	10	-1	ROCK	1201	n/a	-1	1	1.0	1.0	upper	../fonts/Verdana.ttf
1493071	WORD	wordpools/wasnorm_wordpool_less_exclusions.txt	LTP202	ltpFR	3	10	-1	MEAT	883	n/a	-1	1	1.0	1.0	upper	../fonts/Verdana.ttf
1497165	WORD	wordpools/wasnorm_wordpool_less_exclusions.txt	LTP202	ltpFR	3	10	-1	ARM	38	n/a	-1	1	1.0	1.0	upper	../fonts/Verdana.ttf
1501309	WORD	wordpools/wasnorm_wordpool_less_exclusions.txt	LTP202	ltpFR	3	10	-1	ELBOW	520	n/a	-1	1	1.0	1.0	upper	../fonts/Verdana.ttf
1505186	WORD	wordpools/wasnorm_wordpool_less_exclusions.txt	LTP202	ltpFR	3	10	-1	SHORE	1291	n/a	-1	1	1.0	1.0	upper	../fonts/Verdana.ttf
1509047	WORD	wordpools/wasnorm_wordpool_less_exclusions.txt	LTP202	ltpFR	3	10	-1	ATTIRE	57	n/a	-1	1	1.0	1.0	upper	../fonts/Verdana.ttf
1513258	WORD	wordpools/wasnorm_wordpool_less_exclusions.txt	LTP202	ltpFR	3	10	-1	BROOK	177	n/a	-1	1	1.0	1.0	upper	../fonts/Verdana.ttf
1517302	WORD	wordpools/wasnorm_wordpool_less_exclusions.txt	LTP202	ltpFR	3	10	-1	JUG	762	n/a	-1	1	1.0	1.0	upper	../fonts/Verdana.ttf
1521429	WORD	wordpools/wasnorm_wordpool_less_exclusions.txt	LTP202	ltpFR	3	10	-1	DRAWER	493	n/a	-1	1	1.0	1.0	upper	../fonts/Verdana.ttf
1525456	WORD	wordpools/wasnorm_wordpool_less_exclusions.txt	LTP202	ltpFR	3	10	-1	FRIES	607	n/a	-1	1	1.0	1.0	upper	../fonts/Verdana.ttf
1529483	WORD	wordpools/wasnorm_wordpool_less_exclusions.txt	LTP202	ltpFR	3	10	-1	PLATE	1086	n/a	-1	1	1.0	1.0	upper	../fonts/Verdana.ttf
1535209	REC_START	n/a	LTP202	ltpFR	3	10	n/a	n/a	n/a	n/a	n/a	n/a	n/a	n/a	n/a	n/a
1535623	REC_WORD	wordpools/wasnorm_wordpool_less_exclusions.txt	LTP202	ltpFR	3	10	-1	BROOK	177	n/a	-1	n/a	n/a	n/a	n/a	n/a
1536192	REC_WORD	wordpools/wasnorm_wordpool_less_exclusions.txt	LTP202	ltpFR	3	10	-1	JUG	762	n/a	-1	n/a	n/a	n/a	n/a	n/a
1536710	REC_WORD	wordpools/wasnorm_wordpool_less_exclusions.txt	LTP202	ltpFR	3	10	-1	DRAWER	493	n/a	-1	n/a	n/a	n/a	n/a	n/a
1537299	REC_WORD	wordpools/wasnorm_wordpool_less_exclusions.txt	LTP202	ltpFR	3	10	-1	FRIES	607	n/a	-1	n/a	n/a	n/a	n/a	n/a
1538217	REC_WORD	wordpools/wasnorm_wordpool_less_exclusions.txt	LTP202	ltpFR	3	10	-1	PLATE	1086	n/a	-1	n/a	n/a	n/a	n/a	n/a
1539125	REC_WORD	wordpools/wasnorm_wordpool_less_exclusions.txt	LTP202	ltpFR	3	10	-1	ELBOW	520	n/a	-1	n/a	n/a	n/a	n/a	n/a
1539813	REC_WORD	wordpools/wasnorm_wordpool_less_exclusions.txt	LTP202	ltpFR	3	10	-1	ATTIRE	57	n/a	-1	n/a	n/a	n/a	n/a	n/a
1541634	REC_WORD	wordpools/wasnorm_wordpool_less_exclusions.txt	LTP202	ltpFR	3	10	-1	CRATER	400	n/a	-1	n/a	n/a	n/a	n/a	n/a
1542303	REC_WORD	wordpools/wasnorm_wordpool_less_exclusions.txt	LTP202	ltpFR	3	10	-1	ROCK	1201	n/a	-1	n/a	n/a	n/a	n/a	n/a
1542886	REC_WORD	wordpools/wasnorm_wordpool_less_exclusions.txt	LTP202	ltpFR	3	10	-1	SAUSAGE	1238	n/a	-1	n/a	n/a	n/a	n/a	n/a
1543656	REC_WORD	wordpools/wasnorm_wordpool_less_exclusions.txt	LTP202	ltpFR	3	10	-1	MEAT	883	n/a	-1	n/a	n/a	n/a	n/a	n/a
1549377	REC_WORD	wordpools/wasnorm_wordpool_less_exclusions.txt	LTP202	ltpFR	3	10	-1	ARM	38	n/a	-1	n/a	n/a	n/a	n/a	n/a
1550579	REC_WORD	wordpools/wasnorm_wordpool_less_exclusions.txt	LTP202	ltpFR	3	10	-1	DASHBOARD	441	n/a	-1	n/a	n/a	n/a	n/a	n/a
1619449	WORD	wordpools/wasnorm_wordpool_less_exclusions.txt	LTP202	ltpFR	3	11	1	BINDER	127	n/a	0	1	0.412841796875	0.57763671875	upper	../fonts/amplitud.ttf
1623476	WORD	wordpools/wasnorm_wordpool_less_exclusions.txt	LTP202	ltpFR	3	11	1	QUILL	1150	n/a	0	1	0.412841796875	0.57763671875	upper	../fonts/amplitud.ttf
1627620	WORD	wordpools/wasnorm_wordpool_less_exclusions.txt	LTP202	ltpFR	3	11	1	GENERAL	630	n/a	1	1	0.412841796875	0.57763671875	upper	../fonts/amplitud.ttf
1631648	WORD	wordpools/wasnorm_wordpool_less_exclusions.txt	LTP202	ltpFR	3	11	1	BANKER	84	n/a	1	1	0.412841796875	0.57763671875	upper	../fonts/amplitud.ttf
1635726	WORD	wordpools/wasnorm_wordpool_less_exclusions.txt	LTP202	ltpFR	3	11	1	GUM	672	n/a	0	1	0.412841796875	0.57763671875	upper	../fonts/amplitud.ttf
1639736	WORD	wordpools/wasnorm_wordpool_less_exclusions.txt	LTP202	ltpFR	3	11	1	MOUTH	926	n/a	0	1	0.412841796875	0.57763671875	upper	../fonts/amplitud.ttf
1643764	WORD	wordpools/wasnorm_wordpool_less_exclusions.txt	LTP202	ltpFR	3	11	1	MACARONI	851	n/a	1	1	0.412841796875	0.57763671875	upper	../fonts/amplitud.ttf
1647956	WORD	wordpools/wasnorm_wordpool_less_exclusions.txt	LTP202	ltpFR	3	11	1	BLACKBERRY	132	n/a	0	1	0.412841796875	0.57763671875	upper	../fonts/amplitud.ttf
1652117	WORD	wordpools/wasnorm_wordpool_less_exclusions.txt	LTP202	ltpFR	3	11	1	CLOUD	328	n/a	0	1	0.412841796875	0.57763671875	upper	../fonts/amplitud.ttf
1656277	WORD	wordpools/wasnorm_wordpool_less_exclusions.txt	LTP202	ltpFR	3	11	1	DISHWASHER	475	n/a	0	1	0.412841796875	0.57763671875	upper	../fonts/amplitud.ttf
1660471	WORD	wordpools/wasnorm_wordpool_less_exclusions.txt	LTP202	ltpFR	3	11	1	SHORTCAKE	1292	n/a	0	1	0.412841796875	0.57763671875	upper	../fonts/amplitud.ttf
1664315	WORD	wordpools/wasnorm_wordpool_less_exclusions.txt	LTP202	ltpFR	3	11	1	SHELL	1281	n/a	0	1	0.412841796875	0.57763671875	upper	../fonts/amplitud.ttf
1668293	WORD	wordpools/wasnorm_wordpool_less_exclusions.txt	LTP202	ltpFR	3	11	1	OYSTER	995	n/a	1	1	0.412841796875	0.57763671875	upper	../fonts/amplitud.ttf
1672253	WORD	wordpools/wasnorm_wordpool_less_exclusions.txt	LTP202	ltpFR	3	11	1	PLUMBER	1091	n/a	1	1	0.412841796875	0.57763671875	upper	../fonts/amplitud.ttf
1676397	WORD	wordpools/wasnorm_wordpool_less_exclusions.txt	LTP202	ltpFR	3	11	1	DIGGER	464	n/a	1	1	0.412841796875	0.57763671875	upper	../fonts/amplitud.ttf
1680574	WORD	wordpools/wasnorm_wordpool_less_exclusions.txt	LTP202	ltpFR	3	11	1	COTTAGE	384	n/a	0	1	0.412841796875	0.57763671875	upper	../fonts/amplitud.ttf
1686500	REC_START	n/a	LTP202	ltpFR	3	11	n/a	n/a	n/a	n/a	n/a	n/a	n/a	n/a	n/a	n/a
1687004	REC_WORD	wordpools/wasnorm_wordpool_less_exclusions.txt	LTP202	ltpFR	3	11	1	PLUMBER	1091	n/a	1	n/a	n/a	n/a	n/a	n/a
1687597	REC_WORD	wordpools/wasnorm_wordpool_less_exclusions.txt	LTP202	ltpFR	3	11	1	GENERAL	630	n/a	1	n/a	n/a	n/a	n/a	n/a
1688266	REC_WORD	wordpools/wasnorm_wordpool_less_exclusions.txt	LTP202	ltpFR	3	11	1	COTTAGE	384	n/a	0	n/a	n/a	n/a	n/a	n/a
1689024	REC_WORD	wordpools/wasnorm_wordpool_less_exclusions.txt	LTP202	ltpFR	3	11	1	BINDER	127	n/a	0	n/a	n/a	n/a	n/a	n/a
1689742	REC_WORD	wordpools/wasnorm_wordpool_less_exclusions.txt	LTP202	ltpFR	3	11	1	QUILL	1150	n/a	0	n/a	n/a	n/a	n/a	n/a
1702089	REC_WORD	wordpools/wasnorm_wordpool_less_exclusions.txt	LTP202	ltpFR	3	11	1	PLUMBER	1091	n/a	1	n/a	n/a	n/a	n/a	n/a
1712346	REC_WORD	wordpools/wasnorm_wordpool_less_exclusions.txt	LTP202	ltpFR	3	11	1	DIGGER	464	n/a	1	n/a	n/a	n/a	n/a	n/a
1752615	REC_WORD	wordpools/wasnorm_wordpool_less_exclusions.txt	LTP202	ltpFR	3	11	1	BLACKBERRY	132	n/a	0	n/a	n/a	n/a	n/a	n/a
1768443	WORD	wordpools/wasnorm_wordpool_less_exclusions.txt	LTP202	ltpFR	3	12	0	UNIFORM	1539	n/a	0	0	0.5869140625	0.422607421875	lower	../fonts/zerothre.ttf
1772570	WORD	wordpools/wasnorm_wordpool_less_exclusions.txt	LTP202	ltpFR	3	12	0	BADGE	68	n/a	0	0	0.5869140625	0.422607421875	lower	../fonts/zerothre.ttf
1776448	WORD	wordpools/wasnorm_wordpool_less_exclusions.txt	LTP202	ltpFR	3	12	1	JEWEL	757	n/a	0	1	0.412841796875	0.57763671875	upper	../fonts/amplitud.ttf
1780575	WORD	wordpools/wasnorm_wordpool_less_exclusions.txt	LTP202	ltpFR	3	12	1	GEM	629	n/a	0	1	0.412841796875	0.57763671875	upper	../fonts/amplitud.ttf
1784670	WORD	wordpools/wasnorm_wordpool_less_exclusions.txt	LTP202	ltpFR	3	12	1	DUMP	505	n/a	0	1	0.412841796875	0.57763671875	upper	../fonts/amplitud.ttf
1788580	WORD	wordpools/wasnorm_wordpool_less_exclusions.txt	LTP202	ltpFR	3	12	0	RECEIPT	1173	n/a	0	0	0.5869140625	0.422607421875	lower	../fonts/zerothre.ttf
1792424	WORD	wordpools/wasnorm_wordpool_less_exclusions.txt	LTP202	ltpFR	3	12	0	AGENT	10	n/a	1	0	0.5869140625	0.422607421875	lower	../fonts/zerothre.ttf
1796268	WORD	wordpools/wasnorm_wordpool_less_exclusions.txt	LTP202	ltpFR	3	12	0	ZOO	1637	n/a	1	0	0.5869140625	0.422607421875	lower	../fonts/zerothre.ttf
1800246	WORD	wordpools/wasnorm_wordpool_less_exclusions.txt	LTP202	ltpFR	3	12	0	SNACK	1331	n/a	0	0	0.5869140625	0.422607421875	lower	../fonts/zerothre.ttf
1804256	WORD	wordpools/wasnorm_wordpool_less_exclusions.txt	LTP202	ltpFR	3	12	1	CROOK	412	n/a	1	1	0.412841796875	0.57763671875	upper	../fonts/amplitud.ttf
1808317	WORD	wordpools/wasnorm_wordpool_less_exclusions.txt	LTP202	ltpFR	3	12	1	CYLINDER	432	n/a	0	1	0.412841796875	0.57763671875	upper	../fonts/amplitud.ttf
1812244	WORD	wordpools/wasnorm_wordpool_less_exclusions.txt	LTP202	ltpFR	3	12	1	BUS	201	n/a	0	1	0.412841796875	0.57763671875	upper	../fonts/amplitud.ttf
1816322	WORD	wordpools/wasnorm_wordpool_less_exclusions.txt	LTP202	ltpFR	3	12	1	BISON	131	n/a	1	1	0.412841796875	0.57763671875	upper	../fonts/amplitud.ttf
1820449	WORD	wordpools/wasnorm_wordpool_less_exclusions.txt	LTP202	ltpFR	3	12	1	CHICKEN	297	n/a	1	1	0.412841796875	0.57763671875	upper	../fonts/amplitud.ttf
1824310	WORD	wordpools/wasnorm_wordpool_less_exclusions.txt	LTP202	ltpFR	3	12	0	THREAD	1460	n/a	0	0	0.5869140625	0.422607421875	lower	../fonts/zerothre.ttf
1828337	WORD	wordpools/wasnorm_wordpool_less_exclusions.txt	LTP202	ltpFR	3	12	0	POLICE	1098	n/a	0	0	0.5869140625	0.422607421875	lower	../fonts/zerothre.ttf
1834129	REC_START	n/a	LTP202	ltpFR	3	12	n/a	n/a	n/a	n/a	n/a	n/a	n/a	n/a	n/a	n/a
1834353	REC_WORD	wordpools/wasnorm_wordpool_less_exclusions.txt	LTP202	ltpFR	3	12	1	CYLINDER	432	n/a	0	n/a	n/a	n/a	n/a	n/a
1835132	REC_WORD	wordpools/wasnorm_wordpool_less_exclusions.txt	LTP202	ltpFR	3	12	1	BUS	201	n/a	0	n/a	n/a	n/a	n/a	n/a
1835625	REC_WORD	wordpools/wasnorm_wordpool_less_exclusions.txt	LTP202	ltpFR	3	12	1	BISON	131	n/a	1	n/a	n/a	n/a	n/a	n/a
1836264	REC_WORD	wordpools/wasnorm_wordpool_less_exclusions.txt	LTP202	ltpFR	3	12	1	CHICKEN	297	n/a	1	n/a	n/a	n/a	n/a	n/a
1836753	REC_WORD	wordpools/wasnorm_wordpool_less_exclusions.txt	LTP202	ltpFR	3	12	0	THREAD	1460	n/a	0	n/a	n/a	n/a	n/a	n/a
1837421	REC_WORD	wordpools/wasnorm_wordpool_less_exclusions.txt	LTP202	ltpFR	3	12	0	POLICE	1098	n/a	0	n/a	n/a	n/a	n/a	n/a
1838080	REC_WORD	wordpools/wasnorm_wordpool_less_exclusions.txt	LTP202	ltpFR	3	12	0	SNACK	1331	n/a	0	n/a	n/a	n/a	n/a	n/a
1841577	REC_WORD	wordpools/wasnorm_wordpool_less_exclusions.txt	LTP202	ltpFR	3	12	0	BADGE	68	n/a	0	n/a	n/a	n/a	n/a	n/a
1842091	REC_WORD	wordpools/wasnorm_wordpool_less_exclusions.txt	LTP202	ltpFR	3	12	0	UNIFORM	1539	n/a	0	n/a	n/a	n/a	n/a	n/a
1842984	REC_WORD	wordpools/wasnorm_wordpool_less_exclusions.txt	LTP202	ltpFR	3	12	1	JEWEL	757	n/a	0	n/a	n/a	n/a	n/a	n/a
1843712	REC_WORD	wordpools/wasnorm_wordpool_less_exclusions.txt	LTP202	ltpFR	3	12	1	GEM	629	n/a	0	n/a	n/a	n/a	n/a	n/a
1845712	REC_WORD	wordpools/wasnorm_wordpool_less_exclusions.txt	LTP202	ltpFR	3	12	0	ZOO	1637	n/a	1	n/a	n/a	n/a	n/a	n/a
1847034	REC_WORD	wordpools/wasnorm_wordpool_less_exclusions.txt	LTP202	ltpFR	3	12	0	RECEIPT	1173	n/a	0	n/a	n/a	n/a	n/a	n/a
1847932	REC_WORD	wordpools/wasnorm_wordpool_less_exclusions.txt	LTP202	ltpFR	3	12	1	DUMP	505	n/a	0	n/a	n/a	n/a	n/a	n/a
1863836	REC_WORD	wordpools/wasnorm_wordpool_less_exclusions.txt	LTP202	ltpFR	3	12	0	AGENT	10	n/a	1	n/a	n/a	n/a	n/a	n/a
1887243	REC_WORD	wordpools/wasnorm_wordpool_less_exclusions.txt	LTP202	ltpFR	3	12	1	BISON	131	n/a	1	n/a	n/a	n/a	n/a	n/a
1909716	REST_REWET	n/a	LTP202	ltpFR	3	12	n/a	n/a	n/a	n/a	n/a	n/a	n/a	n/a	n/a	n/a
2079279	WORD	wordpools/wasnorm_wordpool_less_exclusions.txt	LTP202	ltpFR	3	13	-1	BUFFALO	186	n/a	-1	1	1.0	1.0	upper	../fonts/Verdana.ttf
2083256	WORD	wordpools/wasnorm_wordpool_less_exclusions.txt	LTP202	ltpFR	3	13	-1	CAGE	218	n/a	-1	1	1.0	1.0	upper	../fonts/Verdana.ttf
2087367	WORD	wordpools/wasnorm_wordpool_less_exclusions.txt	LTP202	ltpFR	3	13	-1	SICKLE	1302	n/a	-1	1	1.0	1.0	upper	../fonts/Verdana.ttf
2091544	WORD	wordpools/wasnorm_wordpool_less_exclusions.txt	LTP202	ltpFR	3	13	-1	BEAD	103	n/a	-1	1	1.0	1.0	upper	../fonts/Verdana.ttf
2095405	WORD	wordpools/wasnorm_wordpool_less_exclusions.txt	LTP202	ltpFR	3	13	-1	DIAMOND	458	n/a	-1	1	1.0	1.0	upper	../fonts/Verdana.ttf
2099365	WORD	wordpools/wasnorm_wordpool_less_exclusions.txt	LTP202	ltpFR	3	13	-1	BEAVER	109	n/a	-1	1	1.0	1.0	upper	../fonts/Verdana.ttf
2103343	WORD	wordpools/wasnorm_wordpool_less_exclusions.txt	LTP202	ltpFR	3	13	-1	BRANDY	169	n/a	-1	1	1.0	1.0	upper	../fonts/Verdana.ttf
2107437	WORD	wordpools/wasnorm_wordpool_less_exclusions.txt	LTP202	ltpFR	3	13	-1	CANOE	233	n/a	-1	1	1.0	1.0	upper	../fonts/Verdana.ttf
2111514	WORD	wordpools/wasnorm_wordpool_less_exclusions.txt	LTP202	ltpFR	3	13	-1	BAY	102	n/a	-1	1	1.0	1.0	upper	../fonts/Verdana.ttf
2115725	WORD	wordpools/wasnorm_wordpool_less_exclusions.txt	LTP202	ltpFR	3	13	-1	ORANGE	980	n/a	-1	1	1.0	1.0	upper	../fonts/Verdana.ttf
2119753	WORD	wordpools/wasnorm_wordpool_less_exclusions.txt	LTP202	ltpFR	3	13	-1	SENATE	1267	n/a	-1	1	1.0	1.0	upper	../fonts/Verdana.ttf
2123613	WORD	wordpools/wasnorm_wordpool_less_exclusions.txt	LTP202	ltpFR	3	13	-1	ASTRONAUT	51	n/a	-1	1	1.0	1.0	upper	../fonts/Verdana.ttf
2127540	WORD	wordpools/wasnorm_wordpool_less_exclusions.txt	LTP202	ltpFR	3	13	-1	ROCKET	1202	n/a	-1	1	1.0	1.0	upper	../fonts/Verdana.ttf
2131617	WORD	wordpools/wasnorm_wordpool_less_exclusions.txt	LTP202	ltpFR	3	13	-1	LADDER	793	n/a	-1	1	1.0	1.0	upper	../fonts/Verdana.ttf
2135811	WORD	wordpools/wasnorm_wordpool_less_exclusions.txt	LTP202	ltpFR	3	13	-1	BEVERAGE	123	n/a	-1	1	1.0	1.0	upper	../fonts/Verdana.ttf
2139988	WORD	wordpools/wasnorm_wordpool_less_exclusions.txt	LTP202	ltpFR	3	13	-1	WALRUS	1585	n/a	-1	1	1.0	1.0	upper	../fonts/Verdana.ttf
2145913	REC_START	n/a	LTP202	ltpFR	3	13	n/a	n/a	n/a	n/a	n/a	n/a	n/a	n/a	n/a	n/a
2146312	REC_WORD	wordpools/wasnorm_wordpool_less_exclusions.txt	LTP202	ltpFR	3	13	-1	SENATE	1267	n/a	-1	n/a	n/a	n/a	n/a	n/a
2146876	REC_WORD	wordpools/wasnorm_wordpool_less_exclusions.txt	LTP202	ltpFR	3	13	-1	ASTRONAUT	51	n/a	-1	n/a	n/a	n/a	n/a	n/a
2147639	REC_WORD	wordpools/wasnorm_wordpool_less_exclusions.txt	LTP202	ltpFR	3	13	-1	ROCKET	1202	n/a	-1	n/a	n/a	n/a	n/a	n/a
2148412	REC_WORD	wordpools/wasnorm_wordpool_less_exclusions.txt	LTP202	ltpFR	3	13	-1	BEVERAGE	123	n/a	-1	n/a	n/a	n/a	n/a	n/a
2149070	REC_WORD	wordpools/wasnorm_wordpool_less_exclusions.txt	LTP202	ltpFR	3	13	-1	WALRUS	1585	n/a	-1	n/a	n/a	n/a	n/a	n/a
2150203	REC_WORD_VV	wordpools/wasnorm_wordpool_less_exclusions.txt	LTP202	ltpFR	3	13	n/a	<>	-1	n/a	n/a	n/a	n/a	n/a	n/a	n/a
2150757	REC_WORD	wordpools/wasnorm_wordpool_less_exclusions.txt	LTP202	ltpFR	3	13	-1	BUFFALO	186	n/a	-1	n/a	n/a	n/a	n/a	n/a
2151919	REC_WORD	wordpools/wasnorm_wordpool_less_exclusions.txt	LTP202	ltpFR	3	13	-1	CAGE	218	n/a	-1	n/a	n/a	n/a	n/a	n/a
2155790	REC_WORD	wordpools/wasnorm_wordpool_less_exclusions.txt	LTP202	ltpFR	3	13	-1	DIAMOND	458	n/a	-1	n/a	n/a	n/a	n/a	n/a
2156853	REC_WORD	wordpools/wasnorm_wordpool_less_exclusions.txt	LTP202	ltpFR	3	13	-1	BEAD	103	n/a	-1	n/a	n/a	n/a	n/a	n/a
2162510	REC_WORD	wordpools/wasnorm_wordpool_less_exclusions.txt	LTP202	ltpFR	3	13	-1	ORANGE	980	n/a	-1	n/a	n/a	n/a	n/a	n/a
2165084	REC_WORD	wordpools/wasnorm_wordpool_less_exclusions.txt	LTP202	ltpFR	3	13	-1	BAY	102	n/a	-1	n/a	n/a	n/a	n/a	n/a
2175426	REC_WORD	wordpools/wasnorm_wordpool_less_exclusions.txt	LTP202	ltpFR	3	13	-1	BRANDY	169	n/a	-1	n/a	n/a	n/a	n/a	n/a
2185618	REC_WORD	wordpools/wasnorm_wordpool_less_exclusions.txt	LTP202	ltpFR	3	13	-1	SICKLE	1302	n/a	-1	n/a	n/a	n/a	n/a	n/a
2195016	REC_WORD	wordpools/wasnorm_wordpool_less_exclusions.txt	LTP202	ltpFR	3	13	-1	BEAVER	109	n/a	-1	n/a	n/a	n/a	n/a	n/a
2244266	WORD	wordpools/wasnorm_wordpool_less_exclusions.txt	LTP202	ltpFR	3	14	1	TEMPLE	1448	n/a	0	1	0.412841796875	0.57763671875	upper	../fonts/amplitud.ttf
2248343	WORD	wordpools/wasnorm_wordpool_less_exclusions.txt	LTP202	ltpFR	3	14	1	TIE	1466	n/a	0	1	0.412841796875	0.57763671875	upper	../fonts/amplitud.ttf
2252420	WORD	wordpools/wasnorm_wordpool_less_exclusions.txt	LTP202	ltpFR	3	14	0	NECK	939	n/a	0	0	0.5869140625	0.422607421875	lower	../fonts/zerothre.ttf
2256248	WORD	wordpools/wasnorm_wordpool_less_exclusions.txt	LTP202	ltpFR	3	14	0	VISITOR	1573	n/a	0	0	0.5869140625	0.422607421875	lower	../fonts/zerothre.ttf
2260225	WORD	wordpools/wasnorm_wordpool_less_exclusions.txt	LTP202	ltpFR	3	14	1	TWIG	1527	n/a	0	1	0.412841796875	0.57763671875	upper	../fonts/amplitud.ttf
2264136	WORD	wordpools/wasnorm_wordpool_less_exclusions.txt	LTP202	ltpFR	3	14	1	NOTE	958	n/a	0	1	0.412841796875	0.57763671875	upper	../fonts/amplitud.ttf
2268296	WORD	wordpools/wasnorm_wordpool_less_exclusions.txt	LTP202	ltpFR	3	14	1	HELICOPTER	701	n/a	0	1	0.412841796875	0.57763671875	upper	../fonts/amplitud.ttf
2272457	WORD	wordpools/wasnorm_wordpool_less_exclusions.txt	LTP202	ltpFR	3	14	0	SUN	1406	n/a	1	0	0.5869140625	0.422607421875	lower	../fonts/zerothre.ttf
2276551	WORD	wordpools/wasnorm_wordpool_less_exclusions.txt	LTP202	ltpFR	3	14	0	SHRINE	1298	n/a	1	0	0.5869140625	0.422607421875	lower	../fonts/zerothre.ttf
2280729	WORD	wordpools/wasnorm_wordpool_less_exclusions.txt	LTP202	ltpFR	3	14	0	PALM	1007	n/a	0	0	0.5869140625	0.422607421875	lower	../fonts/zerothre.ttf
2284888	WORD	wordpools/wasnorm_wordpool_less_exclusions.txt	LTP202	ltpFR	3	14	0	SIGNATURE	1306	n/a	0	0	0.5869140625	0.422607421875	lower	../fonts/zerothre.ttf
2288899	WORD	wordpools/wasnorm_wordpool_less_exclusions.txt	LTP202	ltpFR	3	14	0	SNOB	1335	n/a	1	0	0.5869140625	0.422607421875	lower	../fonts/zerothre.ttf
2293093	WORD	wordpools/wasnorm_wordpool_less_exclusions.txt	LTP202	ltpFR	3	14	0	CHIMPANZEE	302	n/a	1	0	0.5869140625	0.422607421875	lower	../fonts/zerothre.ttf
2297053	WORD	wordpools/wasnorm_wordpool_less_exclusions.txt	LTP202	ltpFR	3	14	1	BEAST	108	n/a	1	1	0.412841796875	0.57763671875	upper	../fonts/amplitud.ttf
2301181	WORD	wordpools/wasnorm_wordpool_less_exclusions.txt	LTP202	ltpFR	3	14	1	OREGANO	983	n/a	0	1	0.412841796875	0.57763671875	upper	../fonts/amplitud.ttf
2305275	WORD	wordpools/wasnorm_wordpool_less_exclusions.txt	LTP202	ltpFR	3	14	1	PEPPER	1047	n/a	0	1	0.412841796875	0.57763671875	upper	../fonts/amplitud.ttf
2311116	REC_START	n/a	LTP202	ltpFR	3	14	n/a	n/a	n/a	n/a	n/a	n/a	n/a	n/a	n/a	n/a
2311685	REC_WORD	wordpools/wasnorm_wordpool_less_exclusions.txt	LTP202	ltpFR	3	14	1	BEAST	108	n/a	1	n/a	n/a	n/a	n/a	n/a
2312313	REC_WORD	wordpools/wasnorm_wordpool_less_exclusions.txt	LTP202	ltpFR	3	14	1	OREGANO	983	n/a	0	n/a	n/a	n/a	n/a	n/a
2313246	REC_WORD	wordpools/wasnorm_wordpool_less_exclusions.txt	LTP202	ltpFR	3	14	1	PEPPER	1047	n/a	0	n/a	n/a	n/a	n/a	n/a
2314423	REC_WORD	wordpools/wasnorm_wordpool_less_exclusions.txt	LTP202	ltpFR	3	14	0	SHRINE	1298	n/a	1	n/a	n/a	n/a	n/a	n/a
2315301	REC_WORD	wordpools/wasnorm_wordpool_less_exclusions.txt	LTP202	ltpFR	3	14	1	TIE	1466	n/a	0	n/a	n/a	n/a	n/a	n/a
2316084	REC_WORD	wordpools/wasnorm_wordpool_less_exclusions.txt	LTP202	ltpFR	3	14	0	NECK	939	n/a	0	n/a	n/a	n/a	n/a	n/a
2317247	REC_WORD	wordpools/wasnorm_wordpool_less_exclusions.txt	LTP202	ltpFR	3	14	1	TEMPLE	1448	n/a	0	n/a	n/a	n/a	n/a	n/a
2318554	REC_WORD	wordpools/wasnorm_wordpool_less_exclusions.txt	LTP202	ltpFR	3	14	0	VISITOR	1573	n/a	0	n/a	n/a	n/a	n/a	n/a
2319831	REC_WORD	wordpools/wasnorm_wordpool_less_exclusions.txt	LTP202	ltpFR	3	14	0	PALM	1007	n/a	0	n/a	n/a	n/a	n/a	n/a
2320634	REC_WORD	wordpools/wasnorm_wordpool_less_exclusions.txt	LTP202	ltpFR	3	14	0	SIGNATURE	1306	n/a	0	n/a	n/a	n/a	n/a	n/a
2324685	REC_WORD	wordpools/wasnorm_wordpool_less_exclusions.txt	LTP202	ltpFR	3	14	1	HELICOPTER	701	n/a	0	n/a	n/a	n/a	n/a	n/a
2325698	REC_WORD	wordpools/wasnorm_wordpool_less_exclusions.txt	LTP202	ltpFR	3	14	0	SUN	1406	n/a	1	n/a	n/a	n/a	n/a	n/a
2330567	REC_WORD	wordpools/wasnorm_wordpool_less_exclusions.txt	LTP202	ltpFR	3	14	0	CHIMPANZEE	302	n/a	1	n/a	n/a	n/a	n/a	n/a
2390630	WORD	wordpools/wasnorm_wordpool_less_exclusions.txt	LTP202	ltpFR	3	15	0	ROOT	1210	n/a	0	0	0.5869140625	0.422607421875	lower	../fonts/zerothre.ttf
2394725	WORD	wordpools/wasnorm_wordpool_less_exclusions.txt	LTP202	ltpFR	3	15	0	COMMITTEE	355	n/a	1	0	0.5869140625	0.422607421875	lower	../fonts/zerothre.ttf
2398653	WORD	wordpools/wasnorm_wordpool_less_exclusions.txt	LTP202	ltpFR	3	15	0	PEOPLE	1046	n/a	1	0	0.5869140625	0.422607421875	lower	../fonts/zerothre.ttf
2402513	WORD	wordpools/wasnorm_wordpool_less_exclusions.txt	LTP202	ltpFR	3	15	0	CATCHER	258	n/a	1	0	0.5869140625	0.422607421875	lower	../fonts/zerothre.ttf
2406523	WORD	wordpools/wasnorm_wordpool_less_exclusions.txt	LTP202	ltpFR	3	15	1	IRON	744	n/a	0	1	0.412841796875	0.57763671875	upper	../fonts/amplitud.ttf
2410434	WORD	wordpools/wasnorm_wordpool_less_exclusions.txt	LTP202	ltpFR	3	15	1	WILDERNESS	1610	n/a	0	1	0.412841796875	0.57763671875	upper	../fonts/amplitud.ttf
2414578	WORD	wordpools/wasnorm_wordpool_less_exclusions.txt	LTP202	ltpFR	3	15	1	SKIN	1318	n/a	0	1	0.412841796875	0.57763671875	upper	../fonts/amplitud.ttf
2418422	WORD	wordpools/wasnorm_wordpool_less_exclusions.txt	LTP202	ltpFR	3	15	0	FRECKLE	602	n/a	0	0	0.5869140625	0.422607421875	lower	../fonts/zerothre.ttf
2422283	WORD	wordpools/wasnorm_wordpool_less_exclusions.txt	LTP202	ltpFR	3	15	0	LITTER	832	n/a	1	0	0.5869140625	0.422607421875	lower	../fonts/zerothre.ttf
2426410	WORD	wordpools/wasnorm_wordpool_less_exclusions.txt	LTP202	ltpFR	3	15	0	BUREAU	199	n/a	1	0	0.5869140625	0.422607421875	lower	../fonts/zerothre.ttf
2430504	WORD	wordpools/wasnorm_wordpool_less_exclusions.txt	LTP202	ltpFR	3	15	0	MAILMAN	858	n/a	1	0	0.5869140625	0.422607421875	lower	../fonts/zerothre.ttf
2434666	WORD	wordpools/wasnorm_wordpool_less_exclusions.txt	LTP202	ltpFR	3	15	1	MESSAGE	888	n/a	0	1	0.412841796875	0.57763671875	upper	../fonts/amplitud.ttf
2438775	WORD	wordpools/wasnorm_wordpool_less_exclusions.txt	LTP202	ltpFR	3	15	1	FOREST	593	n/a	0	1	0.412841796875	0.57763671875	upper	../fonts/amplitud.ttf
2442753	WORD	wordpools/wasnorm_wordpool_less_exclusions.txt	LTP202	ltpFR	3	15	1	CAP	236	n/a	0	1	0.412841796875	0.57763671875	upper	../fonts/amplitud.ttf
2446698	WORD	wordpools/wasnorm_wordpool_less_exclusions.txt	LTP202	ltpFR	3	15	1	KIDNEY	776	n/a	0	1	0.412841796875	0.57763671875	upper	../fonts/amplitud.ttf
2450924	WORD	wordpools/wasnorm_wordpool_less_exclusions.txt	LTP202	ltpFR	3	15	1	GOLD	647	n/a	0	1	0.412841796875	0.57763671875	upper	../fonts/amplitud.ttf
2457015	REC_START	n/a	LTP202	ltpFR	3	15	n/a	n/a	n/a	n/a	n/a	n/a	n/a	n/a	n/a	n/a
2457454	REC_WORD	wordpools/wasnorm_wordpool_less_exclusions.txt	LTP202	ltpFR	3	15	0	MAILMAN	858	n/a	1	n/a	n/a	n/a	n/a	n/a
2458202	REC_WORD	wordpools/wasnorm_wordpool_less_exclusions.txt	LTP202	ltpFR	3	15	1	CAP	236	n/a	0	n/a	n/a	n/a	n/a	n/a
2458905	REC_WORD	wordpools/wasnorm_wordpool_less_exclusions.txt	LTP202	ltpFR	3	15	1	KIDNEY	776	n/a	0	n/a	n/a	n/a	n/a	n/a
2459868	REC_WORD	wordpools/wasnorm_wordpool_less_exclusions.txt	LTP202	ltpFR	3	15	1	GOLD	647	n/a	0	n/a	n/a	n/a	n/a	n/a
2460652	REC_WORD	wordpools/wasnorm_wordpool_less_exclusions.txt	LTP202	ltpFR	3	15	1	WILDERNESS	1610	n/a	0	n/a	n/a	n/a	n/a	n/a
2466648	REC_WORD	wordpools/wasnorm_wordpool_less_exclusions.txt	LTP202	ltpFR	3	15	0	COMMITTEE	355	n/a	1	n/a	n/a	n/a	n/a	n/a
2467735	REC_WORD	wordpools/wasnorm_wordpool_less_exclusions.txt	LTP202	ltpFR	3	15	0	PEOPLE	1046	n/a	1	n/a	n/a	n/a	n/a	n/a
2470285	REC_WORD	wordpools/wasnorm_wordpool_less_exclusions.txt	LTP202	ltpFR	3	15	0	ROOT	1210	n/a	0	n/a	n/a	n/a	n/a	n/a
2497049	REC_WORD	wordpools/wasnorm_wordpool_less_exclusions.txt	LTP202	ltpFR	3	15	1	SKIN	1318	n/a	0	n/a	n/a	n/a	n/a	n/a
2523424	REC_WORD	wordpools/wasnorm_wordpool_less_exclusions.txt	LTP202	ltpFR	3	15	0	BUREAU	199	n/a	1	n/a	n/a	n/a	n/a	n/a
2527979	REC_WORD	wordpools/wasnorm_wordpool_less_exclusions.txt	LTP202	ltpFR	3	15	0	LITTER	832	n/a	1	n/a	n/a	n/a	n/a	n/a
2541255	WORD	wordpools/wasnorm_wordpool_less_exclusions.txt	LTP202	ltpFR	3	16	0	HANDBAG	684	n/a	0	0	0.5869140625	0.422607421875	lower	../fonts/zerothre.ttf
2545083	WORD	wordpools/wasnorm_wordpool_less_exclusions.txt	LTP202	ltpFR	3	16	0	REPORT	1184	n/a	0	0	0.5869140625	0.422607421875	lower	../fonts/zerothre.ttf
2549160	WORD	wordpools/wasnorm_wordpool_less_exclusions.txt	LTP202	ltpFR	3	16	0	COUCH	386	n/a	1	0	0.5869140625	0.422607421875	lower	../fonts/zerothre.ttf
2553221	WORD	wordpools/wasnorm_wordpool_less_exclusions.txt	LTP202	ltpFR	3	16	0	SACK	1220	n/a	0	0	0.5869140625	0.422607421875	lower	../fonts/zerothre.ttf
2557381	WORD	wordpools/wasnorm_wordpool_less_exclusions.txt	LTP202	ltpFR	3	16	0	PUB	1135	n/a	1	0	0.5869140625	0.422607421875	lower	../fonts/zerothre.ttf
2561425	WORD	wordpools/wasnorm_wordpool_less_exclusions.txt	LTP202	ltpFR	3	16	0	TAVERN	1437	n/a	1	0	0.5869140625	0.422607421875	lower	../fonts/zerothre.ttf
2565319	WORD	wordpools/wasnorm_wordpool_less_exclusions.txt	LTP202	ltpFR	3	16	0	BASKET	95	n/a	0	0	0.5869140625	0.422607421875	lower	../fonts/zerothre.ttf
2569447	WORD	wordpools/wasnorm_wordpool_less_exclusions.txt	LTP202	ltpFR	3	16	0	DESK	452	n/a	1	0	0.5869140625	0.422607421875	lower	../fonts/zerothre.ttf
2573357	WORD	wordpools/wasnorm_wordpool_less_exclusions.txt	LTP202	ltpFR	3	16	0	WRIST	1626	n/a	0	0	0.5869140625	0.422607421875	lower	../fonts/zerothre.ttf
2577252	WORD	wordpools/wasnorm_wordpool_less_exclusions.txt	LTP202	ltpFR	3	16	0	SOCIETY	1338	n/a	1	0	0.5869140625	0.422607421875	lower	../fonts/zerothre.ttf
2581295	WORD	wordpools/wasnorm_wordpool_less_exclusions.txt	LTP202	ltpFR	3	16	0	CABBAGE	210	n/a	0	0	0.5869140625	0.422607421875	lower	../fonts/zerothre.ttf
2585206	WORD	wordpools/wasnorm_wordpool_less_exclusions.txt	LTP202	ltpFR	3	16	0	SLUG	1329	n/a	0	0	0.5869140625	0.422607421875	lower	../fonts/zerothre.ttf
2589200	WORD	wordpools/wasnorm_wordpool_less_exclusions.txt	LTP202	ltpFR	3	16	0	PASTA	1021	n/a	0	0	0.5869140625	0.422607421875	lower	../fonts/zerothre.ttf
2593144	WORD	wordpools/wasnorm_wordpool_less_exclusions.txt	LTP202	ltpFR	3	16	0	BLUEPRINT	142	n/a	0	0	0.5869140625	0.422607421875	lower	../fonts/zerothre.ttf
2597322	WORD	wordpools/wasnorm_wordpool_less_exclusions.txt	LTP202	ltpFR	3	16	0	HOME	712	n/a	1	0	0.5869140625	0.422607421875	lower	../fonts/zerothre.ttf
2601415	WORD	wordpools/wasnorm_wordpool_less_exclusions.txt	LTP202	ltpFR	3	16	0	BULLETIN	195	n/a	1	0	0.5869140625	0.422607421875	lower	../fonts/zerothre.ttf
2607074	REC_START	n/a	LTP202	ltpFR	3	16	n/a	n/a	n/a	n/a	n/a	n/a	n/a	n/a	n/a	n/a
2607632	REC_WORD	wordpools/wasnorm_wordpool_less_exclusions.txt	LTP202	ltpFR	3	16	0	SLUG	1329	n/a	0	n/a	n/a	n/a	n/a	n/a
2608371	REC_WORD	wordpools/wasnorm_wordpool_less_exclusions.txt	LTP202	ltpFR	3	16	0	PASTA	1021	n/a	0	n/a	n/a	n/a	n/a	n/a
2608943	REC_WORD	wordpools/wasnorm_wordpool_less_exclusions.txt	LTP202	ltpFR	3	16	0	SOCIETY	1338	n/a	1	n/a	n/a	n/a	n/a	n/a
2609972	REC_WORD	wordpools/wasnorm_wordpool_less_exclusions.txt	LTP202	ltpFR	3	16	0	BLUEPRINT	142	n/a	0	n/a	n/a	n/a	n/a	n/a
2613105	REC_WORD	wordpools/wasnorm_wordpool_less_exclusions.txt	LTP202	ltpFR	3	16	0	WRIST	1626	n/a	0	n/a	n/a	n/a	n/a	n/a
2615410	REC_WORD	wordpools/wasnorm_wordpool_less_exclusions.txt	LTP202	ltpFR	3	16	0	COUCH	386	n/a	1	n/a	n/a	n/a	n/a	n/a
2616447	REC_WORD	wordpools/wasnorm_wordpool_less_exclusions.txt	LTP202	ltpFR	3	16	0	REPORT	1184	n/a	0	n/a	n/a	n/a	n/a	n/a
2619002	REC_WORD	wordpools/wasnorm_wordpool_less_exclusions.txt	LTP202	ltpFR	3	16	0	SACK	1220	n/a	0	n/a	n/a	n/a	n/a	n/a
2619602	REC_WORD	wordpools/wasnorm_wordpool_less_exclusions.txt	LTP202	ltpFR	3	16	0	HANDBAG	684	n/a	0	n/a	n/a	n/a	n/a	n/a
2627123	REC_WORD	wordpools/wasnorm_wordpool_less_exclusions.txt	LTP202	ltpFR	3	16	0	BULLETIN	195	n/a	1	n/a	n/a	n/a	n/a	n/a
2630261	REC_WORD	wordpools/wasnorm_wordpool_less_exclusions.txt	LTP202	ltpFR	3	16	0	HOME	712	n/a	1	n/a	n/a	n/a	n/a	n/a
2637949	REC_WORD	wordpools/wasnorm_wordpool_less_exclusions.txt	LTP202	ltpFR	3	16	0	BLUEPRINT	142	n/a	0	n/a	n/a	n/a	n/a	n/a
2646245	REC_WORD	wordpools/wasnorm_wordpool_less_exclusions.txt	LTP202	ltpFR	3	16	0	DESK	452	n/a	1	n/a	n/a	n/a	n/a	n/a
2705261	REC_START	n/a	LTP202	ltpFR	3	1	n/a	n/a	n/a	n/a	n/a	n/a	n/a	n/a	n/a	n/a
2705294	RECOG_TARGET	n/a	LTP202	ltpFR	3	1	-1	CANOE	233	5	-1	n/a	n/a	n/a	n/a	n/a
2706814	RECOG_RESP	n/a	LTP202	ltpFR	3	1	-1	CANOE	233	n/a	-1	n/a	n/a	n/a	n/a	n/a
2708347	RECOG_CONF	n/a	LTP202	ltpFR	3	1	-1	CANOE	233	5	-1	n/a	n/a	n/a	n/a	n/a
2710153	RECOG_LURE	n/a	LTP202	ltpFR	3	1	n/a	CLOVE	329	4	n/a	n/a	n/a	n/a	n/a	n/a
2710912	RECOG_RESP	n/a	LTP202	ltpFR	3	1	n/a	CLOVE	329	n/a	n/a	n/a	n/a	n/a	n/a	n/a
2712332	RECOG_CONF	n/a	LTP202	ltpFR	3	1	n/a	CLOVE	329	4	n/a	n/a	n/a	n/a	n/a	n/a
2714047	RECOG_TARGET	n/a	LTP202	ltpFR	3	1	1	GOLD	647	5	0	n/a	n/a	n/a	n/a	n/a
2714683	RECOG_RESP	n/a	LTP202	ltpFR	3	1	1	GOLD	647	n/a	0	n/a	n/a	n/a	n/a	n/a
2715564	RECOG_CONF	n/a	LTP202	ltpFR	3	1	1	GOLD	647	5	0	n/a	n/a	n/a	n/a	n/a
2717309	RECOG_TARGET	n/a	LTP202	ltpFR	3	1	0	CATCHER	258	5	1	n/a	n/a	n/a	n/a	n/a
2717962	RECOG_RESP	n/a	LTP202	ltpFR	3	1	0	CATCHER	258	n/a	1	n/a	n/a	n/a	n/a	n/a
2718870	RECOG_CONF	n/a	LTP202	ltpFR	3	1	0	CATCHER	258	5	1	n/a	n/a	n/a	n/a	n/a
2720454	RECOG_TARGET	n/a	LTP202	ltpFR	3	1	0	TAVERN	1437	5	1	n/a	n/a	n/a	n/a	n/a
2721119	RECOG_RESP	n/a	LTP202	ltpFR	3	1	0	TAVERN	1437	n/a	1	n/a	n/a	n/a	n/a	n/a
2721958	RECOG_CONF	n/a	LTP202	ltpFR	3	1	0	TAVERN	1437	5	1	n/a	n/a	n/a	n/a	n/a
2723717	RECOG_TARGET	n/a	LTP202	ltpFR	3	1	-1	CHISEL	305	5	-1	n/a	n/a	n/a	n/a	n/a
2724432	RECOG_RESP	n/a	LTP202	ltpFR	3	1	-1	CHISEL	305	n/a	-1	n/a	n/a	n/a	n/a	n/a
2725408	RECOG_CONF	n/a	LTP202	ltpFR	3	1	-1	CHISEL	305	5	-1	n/a	n/a	n/a	n/a	n/a
2727377	RECOG_LURE	n/a	LTP202	ltpFR	3	1	n/a	SKI	1316	5	n/a	n/a	n/a	n/a	n/a	n/a
2728115	RECOG_RESP	n/a	LTP202	ltpFR	3	1	n/a	SKI	1316	n/a	n/a	n/a	n/a	n/a	n/a	n/a
2729072	RECOG_CONF	n/a	LTP202	ltpFR	3	1	n/a	SKI	1316	5	n/a	n/a	n/a	n/a	n/a	n/a
2730707	RECOG_LURE	n/a	LTP202	ltpFR	3	1	n/a	FLY	586	4	n/a	n/a	n/a	n/a	n/a	n/a
2731615	RECOG_RESP	n/a	LTP202	ltpFR	3	1	n/a	FLY	586	n/a	n/a	n/a	n/a	n/a	n/a	n/a
2733216	RECOG_CONF	n/a	LTP202	ltpFR	3	1	n/a	FLY	586	4	n/a	n/a	n/a	n/a	n/a	n/a
2734816	RECOG_LURE	n/a	LTP202	ltpFR	3	1	n/a	CORAL	378	4	n/a	n/a	n/a	n/a	n/a	n/a
2735589	RECOG_RESP	n/a	LTP202	ltpFR	3	1	n/a	CORAL	378	n/a	n/a	n/a	n/a	n/a	n/a	n/a
2736469	RECOG_CONF	n/a	LTP202	ltpFR	3	1	n/a	CORAL	378	4	n/a	n/a	n/a	n/a	n/a	n/a
2738228	RECOG_LURE	n/a	LTP202	ltpFR	3	1	n/a	PALACE	1006	4	n/a	n/a	n/a	n/a	n/a	n/a
2738980	RECOG_RESP	n/a	LTP202	ltpFR	3	1	n/a	PALACE	1006	n/a	n/a	n/a	n/a	n/a	n/a	n/a
2740406	RECOG_CONF	n/a	LTP202	ltpFR	3	1	n/a	PALACE	1006	4	n/a	n/a	n/a	n/a	n/a	n/a
2741989	RECOG_LURE	n/a	LTP202	ltpFR	3	1	n/a	CONTINENT	367	5	n/a	n/a	n/a	n/a	n/a	n/a
2743040	RECOG_RESP	n/a	LTP202	ltpFR	3	1	n/a	CONTINENT	367	n/a	n/a	n/a	n/a	n/a	n/a	n/a
2743846	RECOG_CONF	n/a	LTP202	ltpFR	3	1	n/a	CONTINENT	367	5	n/a	n/a	n/a	n/a	n/a	n/a
2745600	RECOG_TARGET	n/a	LTP202	ltpFR	3	1	0	PALM	1007	5	0	n/a	n/a	n/a	n/a	n/a
2746293	RECOG_RESP	n/a	LTP202	ltpFR	3	1	0	PALM	1007	n/a	0	n/a	n/a	n/a	n/a	n/a
2747030	RECOG_CONF	n/a	LTP202	ltpFR	3	1	0	PALM	1007	5	0	n/a	n/a	n/a	n/a	n/a
2748612	RECOG_LURE	n/a	LTP202	ltpFR	3	1	n/a	ELM	527	5	n/a	n/a	n/a	n/a	n/a	n/a
2749460	RECOG_RESP	n/a	LTP202	ltpFR	3	1	n/a	ELM	527	n/a	n/a	n/a	n/a	n/a	n/a	n/a
2750291	RECOG_CONF	n/a	LTP202	ltpFR	3	1	n/a	ELM	527	5	n/a	n/a	n/a	n/a	n/a	n/a
2751941	RECOG_TARGET	n/a	LTP202	ltpFR	3	1	1	PLUMBER	1091	5	1	n/a	n/a	n/a	n/a	n/a
2752568	RECOG_RESP	n/a	LTP202	ltpFR	3	1	1	PLUMBER	1091	n/a	1	n/a	n/a	n/a	n/a	n/a
2753287	RECOG_CONF	n/a	LTP202	ltpFR	3	1	1	PLUMBER	1091	5	1	n/a	n/a	n/a	n/a	n/a
2755003	RECOG_TARGET	n/a	LTP202	ltpFR	3	1	1	FENCE	560	3	0	n/a	n/a	n/a	n/a	n/a
2755856	RECOG_RESP	n/a	LTP202	ltpFR	3	1	1	FENCE	560	n/a	0	n/a	n/a	n/a	n/a	n/a
2756730	RECOG_CONF	n/a	LTP202	ltpFR	3	1	1	FENCE	560	3	0	n/a	n/a	n/a	n/a	n/a
2758447	RECOG_TARGET	n/a	LTP202	ltpFR	3	1	0	OAR	966	5	1	n/a	n/a	n/a	n/a	n/a
2759087	RECOG_RESP	n/a	LTP202	ltpFR	3	1	0	OAR	966	n/a	1	n/a	n/a	n/a	n/a	n/a
2759829	RECOG_CONF	n/a	LTP202	ltpFR	3	1	0	OAR	966	5	1	n/a	n/a	n/a	n/a	n/a
2761493	RECOG_LURE	n/a	LTP202	ltpFR	3	1	n/a	GARAGE	621	2	n/a	n/a	n/a	n/a	n/a	n/a
2762695	RECOG_RESP	n/a	LTP202	ltpFR	3	1	n/a	GARAGE	621	n/a	n/a	n/a	n/a	n/a	n/a	n/a
2764109	RECOG_CONF	n/a	LTP202	ltpFR	3	1	n/a	GARAGE	621	2	n/a	n/a	n/a	n/a	n/a	n/a
2765836	RECOG_TARGET	n/a	LTP202	ltpFR	3	1	0	BRICK	172	5	0	n/a	n/a	n/a	n/a	n/a
2766624	RECOG_RESP	n/a	LTP202	ltpFR	3	1	0	BRICK	172	n/a	0	n/a	n/a	n/a	n/a	n/a
2767405	RECOG_CONF	n/a	LTP202	ltpFR	3	1	0	BRICK	172	5	0	n/a	n/a	n/a	n/a	n/a
2768965	RECOG_LURE	n/a	LTP202	ltpFR	3	1	n/a	SAUCER	1237	4	n/a	n/a	n/a	n/a	n/a	n/a
2769712	RECOG_RESP	n/a	LTP202	ltpFR	3	1	n/a	SAUCER	1237	n/a	n/a	n/a	n/a	n/a	n/a	n/a
2770718	RECOG_CONF	n/a	LTP202	ltpFR	3	1	n/a	SAUCER	1237	4	n/a	n/a	n/a	n/a	n/a	n/a
2772410	RECOG_LURE	n/a	LTP202	ltpFR	3	1	n/a	TORTOISE	1486	5	n/a	n/a	n/a	n/a	n/a	n/a
2773120	RECOG_RESP	n/a	LTP202	ltpFR	3	1	n/a	TORTOISE	1486	n/a	n/a	n/a	n/a	n/a	n/a	n/a
2773914	RECOG_CONF	n/a	LTP202	ltpFR	3	1	n/a	TORTOISE	1486	5	n/a	n/a	n/a	n/a	n/a	n/a
2777695	REC_START	n/a	LTP202	ltpFR	3	2	n/a	n/a	n/a	n/a	n/a	n/a	n/a	n/a	n/a	n/a
2777736	RECOG_LURE	n/a	LTP202	ltpFR	3	2	n/a	WAITER	1580	1	n/a	n/a	n/a	n/a	n/a	n/a
2778497	RECOG_RESP	n/a	LTP202	ltpFR	3	2	n/a	WAITER	1580	n/a	n/a	n/a	n/a	n/a	n/a	n/a
2779627	RECOG_CONF	n/a	LTP202	ltpFR	3	2	n/a	WAITER	1580	1	n/a	n/a	n/a	n/a	n/a	n/a
2781380	RECOG_LURE	n/a	LTP202	ltpFR	3	2	n/a	STORE	1387	2	n/a	n/a	n/a	n/a	n/a	n/a
2782567	RECOG_RESP	n/a	LTP202	ltpFR	3	2	n/a	STORE	1387	n/a	n/a	n/a	n/a	n/a	n/a	n/a
2783491	RECOG_CONF	n/a	LTP202	ltpFR	3	2	n/a	STORE	1387	2	n/a	n/a	n/a	n/a	n/a	n/a
2785208	RECOG_LURE	n/a	LTP202	ltpFR	3	2	n/a	DECK	443	3	n/a	n/a	n/a	n/a	n/a	n/a
2786323	RECOG_RESP	n/a	LTP202	ltpFR	3	2	n/a	DECK	443	n/a	n/a	n/a	n/a	n/a	n/a	n/a
2787786	RECOG_CONF	n/a	LTP202	ltpFR	3	2	n/a	DECK	443	3	n/a	n/a	n/a	n/a	n/a	n/a
2789368	RECOG_TARGET	n/a	LTP202	ltpFR	3	2	0	COLLAR	345	5	0	n/a	n/a	n/a	n/a	n/a
2790409	RECOG_RESP	n/a	LTP202	ltpFR	3	2	0	COLLAR	345	n/a	0	n/a	n/a	n/a	n/a	n/a
2791293	RECOG_CONF	n/a	LTP202	ltpFR	3	2	0	COLLAR	345	5	0	n/a	n/a	n/a	n/a	n/a
2793013	RECOG_TARGET	n/a	LTP202	ltpFR	3	2	1	MACARONI	851	5	1	n/a	n/a	n/a	n/a	n/a
2793653	RECOG_RESP	n/a	LTP202	ltpFR	3	2	1	MACARONI	851	n/a	1	n/a	n/a	n/a	n/a	n/a
2794456	RECOG_CONF	n/a	LTP202	ltpFR	3	2	1	MACARONI	851	5	1	n/a	n/a	n/a	n/a	n/a
2796041	RECOG_TARGET	n/a	LTP202	ltpFR	3	2	1	BALLERINA	74	5	1	n/a	n/a	n/a	n/a	n/a
2796878	RECOG_RESP	n/a	LTP202	ltpFR	3	2	1	BALLERINA	74	n/a	1	n/a	n/a	n/a	n/a	n/a
2797944	RECOG_CONF	n/a	LTP202	ltpFR	3	2	1	BALLERINA	74	5	1	n/a	n/a	n/a	n/a	n/a
2799636	RECOG_LURE	n/a	LTP202	ltpFR	3	2	n/a	JEEP	753	4	n/a	n/a	n/a	n/a	n/a	n/a
2800304	RECOG_RESP	n/a	LTP202	ltpFR	3	2	n/a	JEEP	753	n/a	n/a	n/a	n/a	n/a	n/a	n/a
2801191	RECOG_CONF	n/a	LTP202	ltpFR	3	2	n/a	JEEP	753	4	n/a	n/a	n/a	n/a	n/a	n/a
2802881	RECOG_TARGET	n/a	LTP202	ltpFR	3	2	1	ROBIN	1199	5	1	n/a	n/a	n/a	n/a	n/a
2803520	RECOG_RESP	n/a	LTP202	ltpFR	3	2	1	ROBIN	1199	n/a	1	n/a	n/a	n/a	n/a	n/a
2804272	RECOG_CONF	n/a	LTP202	ltpFR	3	2	1	ROBIN	1199	5	1	n/a	n/a	n/a	n/a	n/a
2806060	RECOG_LURE	n/a	LTP202	ltpFR	3	2	n/a	HIP	710	3	n/a	n/a	n/a	n/a	n/a	n/a
2807454	RECOG_RESP	n/a	LTP202	ltpFR	3	2	n/a	HIP	710	n/a	n/a	n/a	n/a	n/a	n/a	n/a
2808838	RECOG_CONF	n/a	LTP202	ltpFR	3	2	n/a	HIP	710	3	n/a	n/a	n/a	n/a	n/a	n/a
2810570	RECOG_TARGET	n/a	LTP202	ltpFR	3	2	1	GIRAFFE	636	5	1	n/a	n/a	n/a	n/a	n/a
2811305	RECOG_RESP	n/a	LTP202	ltpFR	3	2	1	GIRAFFE	636	n/a	1	n/a	n/a	n/a	n/a	n/a
2812271	RECOG_CONF	n/a	LTP202	ltpFR	3	2	1	GIRAFFE	636	5	1	n/a	n/a	n/a	n/a	n/a
2813948	RECOG_LURE	n/a	LTP202	ltpFR	3	2	n/a	MONGOOSE	909	5	n/a	n/a	n/a	n/a	n/a	n/a
2814711	RECOG_RESP	n/a	LTP202	ltpFR	3	2	n/a	MONGOOSE	909	n/a	n/a	n/a	n/a	n/a	n/a	n/a
2815535	RECOG_CONF	n/a	LTP202	ltpFR	3	2	n/a	MONGOOSE	909	5	n/a	n/a	n/a	n/a	n/a	n/a
2817310	RECOG_TARGET	n/a	LTP202	ltpFR	3	2	0	CHEEK	287	5	0	n/a	n/a	n/a	n/a	n/a
2817853	RECOG_RESP	n/a	LTP202	ltpFR	3	2	0	CHEEK	287	n/a	0	n/a	n/a	n/a	n/a	n/a
2818622	RECOG_CONF	n/a	LTP202	ltpFR	3	2	0	CHEEK	287	5	0	n/a	n/a	n/a	n/a	n/a
2820338	RECOG_TARGET	n/a	LTP202	ltpFR	3	2	1	GUM	672	5	0	n/a	n/a	n/a	n/a	n/a
2820960	RECOG_RESP	n/a	LTP202	ltpFR	3	2	1	GUM	672	n/a	0	n/a	n/a	n/a	n/a	n/a
2821842	RECOG_CONF	n/a	LTP202	ltpFR	3	2	1	GUM	672	5	0	n/a	n/a	n/a	n/a	n/a
2823450	RECOG_LURE	n/a	LTP202	ltpFR	3	2	n/a	COAT	333	2	n/a	n/a	n/a	n/a	n/a	n/a
2824153	RECOG_RESP	n/a	LTP202	ltpFR	3	2	n/a	COAT	333	n/a	n/a	n/a	n/a	n/a	n/a	n/a
2825144	RECOG_CONF	n/a	LTP202	ltpFR	3	2	n/a	COAT	333	2	n/a	n/a	n/a	n/a	n/a	n/a
2826879	RECOG_TARGET	n/a	LTP202	ltpFR	3	2	1	WAITRESS	1581	5	1	n/a	n/a	n/a	n/a	n/a
2827443	RECOG_RESP	n/a	LTP202	ltpFR	3	2	1	WAITRESS	1581	n/a	1	n/a	n/a	n/a	n/a	n/a
2828232	RECOG_CONF	n/a	LTP202	ltpFR	3	2	1	WAITRESS	1581	5	1	n/a	n/a	n/a	n/a	n/a
2829941	RECOG_LURE	n/a	LTP202	ltpFR	3	2	n/a	LOVER	846	5	n/a	n/a	n/a	n/a	n/a	n/a
2831008	RECOG_RESP	n/a	LTP202	ltpFR	3	2	n/a	LOVER	846	n/a	n/a	n/a	n/a	n/a	n/a	n/a
2832022	RECOG_CONF	n/a	LTP202	ltpFR	3	2	n/a	LOVER	846	5	n/a	n/a	n/a	n/a	n/a	n/a
2833769	RECOG_LURE	n/a	LTP202	ltpFR	3	2	n/a	SUNSET	1408	3	n/a	n/a	n/a	n/a	n/a	n/a
2834699	RECOG_RESP	n/a	LTP202	ltpFR	3	2	n/a	SUNSET	1408	n/a	n/a	n/a	n/a	n/a	n/a	n/a
2835594	RECOG_CONF	n/a	LTP202	ltpFR	3	2	n/a	SUNSET	1408	3	n/a	n/a	n/a	n/a	n/a	n/a
2837163	RECOG_LURE	n/a	LTP202	ltpFR	3	2	n/a	BEAR	106	4	n/a	n/a	n/a	n/a	n/a	n/a
2838009	RECOG_RESP	n/a	LTP202	ltpFR	3	2	n/a	BEAR	106	n/a	n/a	n/a	n/a	n/a	n/a	n/a
2838800	RECOG_CONF	n/a	LTP202	ltpFR	3	2	n/a	BEAR	106	4	n/a	n/a	n/a	n/a	n/a	n/a
2840492	RECOG_TARGET	n/a	LTP202	ltpFR	3	2	0	CALCULATOR	220	5	0	n/a	n/a	n/a	n/a	n/a
2841195	RECOG_RESP	n/a	LTP202	ltpFR	3	2	0	CALCULATOR	220	n/a	0	n/a	n/a	n/a	n/a	n/a
2841945	RECOG_CONF	n/a	LTP202	ltpFR	3	2	0	CALCULATOR	220	5	0	n/a	n/a	n/a	n/a	n/a
2843604	RECOG_TARGET	n/a	LTP202	ltpFR	3	2	-1	BEVERAGE	123	5	-1	n/a	n/a	n/a	n/a	n/a
2844696	RECOG_RESP	n/a	LTP202	ltpFR	3	2	-1	BEVERAGE	123	n/a	-1	n/a	n/a	n/a	n/a	n/a
2845686	RECOG_CONF	n/a	LTP202	ltpFR	3	2	-1	BEVERAGE	123	5	-1	n/a	n/a	n/a	n/a	n/a
2848835	REC_START	n/a	LTP202	ltpFR	3	3	n/a	n/a	n/a	n/a	n/a	n/a	n/a	n/a	n/a	n/a
2848862	RECOG_TARGET	n/a	LTP202	ltpFR	3	3	0	LITTER	832	5	1	n/a	n/a	n/a	n/a	n/a
2849477	RECOG_RESP	n/a	LTP202	ltpFR	3	3	0	LITTER	832	n/a	1	n/a	n/a	n/a	n/a	n/a
2850181	RECOG_CONF	n/a	LTP202	ltpFR	3	3	0	LITTER	832	5	1	n/a	n/a	n/a	n/a	n/a
2851709	RECOG_LURE	n/a	LTP202	ltpFR	3	3	n/a	SYRINGE	1424	5	n/a	n/a	n/a	n/a	n/a	n/a
2852574	RECOG_RESP	n/a	LTP202	ltpFR	3	3	n/a	SYRINGE	1424	n/a	n/a	n/a	n/a	n/a	n/a	n/a
2853280	RECOG_CONF	n/a	LTP202	ltpFR	3	3	n/a	SYRINGE	1424	5	n/a	n/a	n/a	n/a	n/a	n/a
2854920	RECOG_TARGET	n/a	LTP202	ltpFR	3	3	-1	FIST	572	5	-1	n/a	n/a	n/a	n/a	n/a
2855545	RECOG_RESP	n/a	LTP202	ltpFR	3	3	-1	FIST	572	n/a	-1	n/a	n/a	n/a	n/a	n/a
2856297	RECOG_CONF	n/a	LTP202	ltpFR	3	3	-1	FIST	572	5	-1	n/a	n/a	n/a	n/a	n/a
2857999	RECOG_TARGET	n/a	LTP202	ltpFR	3	3	-1	ORANGE	980	5	-1	n/a	n/a	n/a	n/a	n/a
2858593	RECOG_RESP	n/a	LTP202	ltpFR	3	3	-1	ORANGE	980	n/a	-1	n/a	n/a	n/a	n/a	n/a
2859319	RECOG_CONF	n/a	LTP202	ltpFR	3	3	-1	ORANGE	980	5	-1	n/a	n/a	n/a	n/a	n/a
2860994	RECOG_LURE	n/a	LTP202	ltpFR	3	3	n/a	VIRUS	1572	1	n/a	n/a	n/a	n/a	n/a	n/a
2862032	RECOG_RESP	n/a	LTP202	ltpFR	3	3	n/a	VIRUS	1572	n/a	n/a	n/a	n/a	n/a	n/a	n/a
2863388	RECOG_CONF	n/a	LTP202	ltpFR	3	3	n/a	VIRUS	1572	1	n/a	n/a	n/a	n/a	n/a	n/a
2865138	RECOG_LURE	n/a	LTP202	ltpFR	3	3	n/a	FORT	595	3	n/a	n/a	n/a	n/a	n/a	n/a
2866221	RECOG_RESP	n/a	LTP202	ltpFR	3	3	n/a	FORT	595	n/a	n/a	n/a	n/a	n/a	n/a	n/a
2867238	RECOG_CONF	n/a	LTP202	ltpFR	3	3	n/a	FORT	595	3	n/a	n/a	n/a	n/a	n/a	n/a
2868899	RECOG_TARGET	n/a	LTP202	ltpFR	3	3	0	ASSOCIATE	49	4	1	n/a	n/a	n/a	n/a	n/a
2869536	RECOG_RESP	n/a	LTP202	ltpFR	3	3	0	ASSOCIATE	49	n/a	1	n/a	n/a	n/a	n/a	n/a
2870331	RECOG_CONF	n/a	LTP202	ltpFR	3	3	0	ASSOCIATE	49	4	1	n/a	n/a	n/a	n/a	n/a
2871995	RECOG_LURE	n/a	LTP202	ltpFR	3	3	n/a	OVAL	990	5	n/a	n/a	n/a	n/a	n/a	n/a
2872726	RECOG_RESP	n/a	LTP202	ltpFR	3	3	n/a	OVAL	990	n/a	n/a	n/a	n/a	n/a	n/a	n/a
2873474	RECOG_CONF	n/a	LTP202	ltpFR	3	3	n/a	OVAL	990	5	n/a	n/a	n/a	n/a	n/a	n/a
2875157	RECOG_TARGET	n/a	LTP202	ltpFR	3	3	-1	TIMBER	1469	4	-1	n/a	n/a	n/a	n/a	n/a
2876300	RECOG_RESP	n/a	LTP202	ltpFR	3	3	-1	TIMBER	1469	n/a	-1	n/a	n/a	n/a	n/a	n/a
2877238	RECOG_CONF	n/a	LTP202	ltpFR	3	3	-1	TIMBER	1469	4	-1	n/a	n/a	n/a	n/a	n/a
2878934	RECOG_LURE	n/a	LTP202	ltpFR	3	3	n/a	BEARD	107	3	n/a	n/a	n/a	n/a	n/a	n/a
2879827	RECOG_RESP	n/a	LTP202	ltpFR	3	3	n/a	BEARD	107	n/a	n/a	n/a	n/a	n/a	n/a	n/a
2880921	RECOG_CONF	n/a	LTP202	ltpFR	3	3	n/a	BEARD	107	3	n/a	n/a	n/a	n/a	n/a	n/a
2882646	RECOG_TARGET	n/a	LTP202	ltpFR	3	3	1	ROOM	1206	5	0	n/a	n/a	n/a	n/a	n/a
2883506	RECOG_RESP	n/a	LTP202	ltpFR	3	3	1	ROOM	1206	n/a	0	n/a	n/a	n/a	n/a	n/a
2884275	RECOG_CONF	n/a	LTP202	ltpFR	3	3	1	ROOM	1206	5	0	n/a	n/a	n/a	n/a	n/a
2885857	RECOG_LURE	n/a	LTP202	ltpFR	3	3	n/a	PICK	1058	2	n/a	n/a	n/a	n/a	n/a	n/a
2886591	RECOG_RESP	n/a	LTP202	ltpFR	3	3	n/a	PICK	1058	n/a	n/a	n/a	n/a	n/a	n/a	n/a
2887382	RECOG_CONF	n/a	LTP202	ltpFR	3	3	n/a	PICK	1058	2	n/a	n/a	n/a	n/a	n/a	n/a
2888969	RECOG_LURE	n/a	LTP202	ltpFR	3	3	n/a	INVENTOR	743	4	n/a	n/a	n/a	n/a	n/a	n/a
2889681	RECOG_RESP	n/a	LTP202	ltpFR	3	3	n/a	INVENTOR	743	n/a	n/a	n/a	n/a	n/a	n/a	n/a
2890870	RECOG_CONF	n/a	LTP202	ltpFR	3	3	n/a	INVENTOR	743	4	n/a	n/a	n/a	n/a	n/a	n/a
2892665	RECOG_TARGET	n/a	LTP202	ltpFR	3	3	1	VEGETABLE	1552	5	0	n/a	n/a	n/a	n/a	n/a
2893273	RECOG_RESP	n/a	LTP202	ltpFR	3	3	1	VEGETABLE	1552	n/a	0	n/a	n/a	n/a	n/a	n/a
2894044	RECOG_CONF	n/a	LTP202	ltpFR	3	3	1	VEGETABLE	1552	5	0	n/a	n/a	n/a	n/a	n/a
2895743	RECOG_TARGET	n/a	LTP202	ltpFR	3	3	1	MISTER	901	5	1	n/a	n/a	n/a	n/a	n/a
2896316	RECOG_RESP	n/a	LTP202	ltpFR	3	3	1	MISTER	901	n/a	1	n/a	n/a	n/a	n/a	n/a
2897068	RECOG_CONF	n/a	LTP202	ltpFR	3	3	1	MISTER	901	5	1	n/a	n/a	n/a	n/a	n/a
2898656	RECOG_LURE	n/a	LTP202	ltpFR	3	3	n/a	TREE	1502	4	n/a	n/a	n/a	n/a	n/a	n/a
2899487	RECOG_RESP	n/a	LTP202	ltpFR	3	3	n/a	TREE	1502	n/a	n/a	n/a	n/a	n/a	n/a	n/a
2900552	RECOG_CONF	n/a	LTP202	ltpFR	3	3	n/a	TREE	1502	4	n/a	n/a	n/a	n/a	n/a	n/a
2902233	RECOG_LURE	n/a	LTP202	ltpFR	3	3	n/a	FLUTE	585	5	n/a	n/a	n/a	n/a	n/a	n/a
2902897	RECOG_RESP	n/a	LTP202	ltpFR	3	3	n/a	FLUTE	585	n/a	n/a	n/a	n/a	n/a	n/a	n/a
2903640	RECOG_CONF	n/a	LTP202	ltpFR	3	3	n/a	FLUTE	585	5	n/a	n/a	n/a	n/a	n/a	n/a
2905245	RECOG_LURE	n/a	LTP202	ltpFR	3	3	n/a	NIECE	952	5	n/a	n/a	n/a	n/a	n/a	n/a
2905935	RECOG_RESP	n/a	LTP202	ltpFR	3	3	n/a	NIECE	952	n/a	n/a	n/a	n/a	n/a	n/a	n/a
2906762	RECOG_CONF	n/a	LTP202	ltpFR	3	3	n/a	NIECE	952	5	n/a	n/a	n/a	n/a	n/a	n/a
2908407	RECOG_LURE	n/a	LTP202	ltpFR	3	3	n/a	CANAL	226	2	n/a	n/a	n/a	n/a	n/a	n/a
2909390	RECOG_RESP	n/a	LTP202	ltpFR	3	3	n/a	CANAL	226	n/a	n/a	n/a	n/a	n/a	n/a	n/a
2910290	RECOG_CONF	n/a	LTP202	ltpFR	3	3	n/a	CANAL	226	2	n/a	n/a	n/a	n/a	n/a	n/a
2911902	RECOG_LURE	n/a	LTP202	ltpFR	3	3	n/a	SATURN	1236	5	n/a	n/a	n/a	n/a	n/a	n/a
2912553	RECOG_RESP	n/a	LTP202	ltpFR	3	3	n/a	SATURN	1236	n/a	n/a	n/a	n/a	n/a	n/a	n/a
2913383	RECOG_CONF	n/a	LTP202	ltpFR	3	3	n/a	SATURN	1236	5	n/a	n/a	n/a	n/a	n/a	n/a
2916409	REC_START	n/a	LTP202	ltpFR	3	4	n/a	n/a	n/a	n/a	n/a	n/a	n/a	n/a	n/a	n/a
2916445	RECOG_TARGET	n/a	LTP202	ltpFR	3	4	1	SKIN	1318	5	0	n/a	n/a	n/a	n/a	n/a
2917011	RECOG_RESP	n/a	LTP202	ltpFR	3	4	1	SKIN	1318	n/a	0	n/a	n/a	n/a	n/a	n/a
2917747	RECOG_CONF	n/a	LTP202	ltpFR	3	4	1	SKIN	1318	5	0	n/a	n/a	n/a	n/a	n/a
2919307	RECOG_TARGET	n/a	LTP202	ltpFR	3	4	-1	LITERATURE	831	5	-1	n/a	n/a	n/a	n/a	n/a
2919931	RECOG_RESP	n/a	LTP202	ltpFR	3	4	-1	LITERATURE	831	n/a	-1	n/a	n/a	n/a	n/a	n/a
2920516	RECOG_CONF	n/a	LTP202	ltpFR	3	4	-1	LITERATURE	831	5	-1	n/a	n/a	n/a	n/a	n/a
2922153	RECOG_LURE	n/a	LTP202	ltpFR	3	4	n/a	VASE	1549	3	n/a	n/a	n/a	n/a	n/a	n/a
2922959	RECOG_RESP	n/a	LTP202	ltpFR	3	4	n/a	VASE	1549	n/a	n/a	n/a	n/a	n/a	n/a	n/a
2923788	RECOG_CONF	n/a	LTP202	ltpFR	3	4	n/a	VASE	1549	3	n/a	n/a	n/a	n/a	n/a	n/a
2925431	RECOG_TARGET	n/a	LTP202	ltpFR	3	4	0	WRIST	1626	5	0	n/a	n/a	n/a	n/a	n/a
2926009	RECOG_RESP	n/a	LTP202	ltpFR	3	4	0	WRIST	1626	n/a	0	n/a	n/a	n/a	n/a	n/a
2926660	RECOG_CONF	n/a	LTP202	ltpFR	3	4	0	WRIST	1626	5	0	n/a	n/a	n/a	n/a	n/a
2928310	RECOG_LURE	n/a	LTP202	ltpFR	3	4	n/a	GOOSE	649	3	n/a	n/a	n/a	n/a	n/a	n/a
2930204	RECOG_RESP	n/a	LTP202	ltpFR	3	4	n/a	GOOSE	649	n/a	n/a	n/a	n/a	n/a	n/a	n/a
2931618	RECOG_CONF	n/a	LTP202	ltpFR	3	4	n/a	GOOSE	649	3	n/a	n/a	n/a	n/a	n/a	n/a
2933320	RECOG_LURE	n/a	LTP202	ltpFR	3	4	n/a	MOVIE	927	4	n/a	n/a	n/a	n/a	n/a	n/a
2934096	RECOG_RESP	n/a	LTP202	ltpFR	3	4	n/a	MOVIE	927	n/a	n/a	n/a	n/a	n/a	n/a	n/a
2934976	RECOG_CONF	n/a	LTP202	ltpFR	3	4	n/a	MOVIE	927	4	n/a	n/a	n/a	n/a	n/a	n/a
2936798	RECOG_LURE	n/a	LTP202	ltpFR	3	4	n/a	DINER	467	5	n/a	n/a	n/a	n/a	n/a	n/a
2937853	RECOG_RESP	n/a	LTP202	ltpFR	3	4	n/a	DINER	467	n/a	n/a	n/a	n/a	n/a	n/a	n/a
2938802	RECOG_CONF	n/a	LTP202	ltpFR	3	4	n/a	DINER	467	5	n/a	n/a	n/a	n/a	n/a	n/a
2940509	RECOG_TARGET	n/a	LTP202	ltpFR	3	4	-1	PLATE	1086	5	-1	n/a	n/a	n/a	n/a	n/a
2941622	RECOG_RESP	n/a	LTP202	ltpFR	3	4	-1	PLATE	1086	n/a	-1	n/a	n/a	n/a	n/a	n/a
2942384	RECOG_CONF	n/a	LTP202	ltpFR	3	4	-1	PLATE	1086	5	-1	n/a	n/a	n/a	n/a	n/a
2944054	RECOG_LURE	n/a	LTP202	ltpFR	3	4	n/a	SCREW	1254	3	n/a	n/a	n/a	n/a	n/a	n/a
2944829	RECOG_RESP	n/a	LTP202	ltpFR	3	4	n/a	SCREW	1254	n/a	n/a	n/a	n/a	n/a	n/a	n/a
2945564	RECOG_CONF	n/a	LTP202	ltpFR	3	4	n/a	SCREW	1254	3	n/a	n/a	n/a	n/a	n/a	n/a
2947249	RECOG_TARGET	n/a	LTP202	ltpFR	3	4	-1	SAUSAGE	1238	5	-1	n/a	n/a	n/a	n/a	n/a
2947932	RECOG_RESP	n/a	LTP202	ltpFR	3	4	-1	SAUSAGE	1238	n/a	-1	n/a	n/a	n/a	n/a	n/a
2948609	RECOG_CONF	n/a	LTP202	ltpFR	3	4	-1	SAUSAGE	1238	5	-1	n/a	n/a	n/a	n/a	n/a
2950211	RECOG_LURE	n/a	LTP202	ltpFR	3	4	n/a	PAVEMENT	1028	5	n/a	n/a	n/a	n/a	n/a	n/a
2950847	RECOG_RESP	n/a	LTP202	ltpFR	3	4	n/a	PAVEMENT	1028	n/a	n/a	n/a	n/a	n/a	n/a	n/a
2951490	RECOG_CONF	n/a	LTP202	ltpFR	3	4	n/a	PAVEMENT	1028	5	n/a	n/a	n/a	n/a	n/a	n/a
2953207	RECOG_TARGET	n/a	LTP202	ltpFR	3	4	1	BEAST	108	5	1	n/a	n/a	n/a	n/a	n/a
2953860	RECOG_RESP	n/a	LTP202	ltpFR	3	4	1	BEAST	108	n/a	1	n/a	n/a	n/a	n/a	n/a
2954517	RECOG_CONF	n/a	LTP202	ltpFR	3	4	1	BEAST	108	5	1	n/a	n/a	n/a	n/a	n/a
2956052	RECOG_LURE	n/a	LTP202	ltpFR	3	4	n/a	WASP	1593	3	n/a	n/a	n/a	n/a	n/a	n/a
2956797	RECOG_RESP	n/a	LTP202	ltpFR	3	4	n/a	WASP	1593	n/a	n/a	n/a	n/a	n/a	n/a	n/a
2957598	RECOG_CONF	n/a	LTP202	ltpFR	3	4	n/a	WASP	1593	3	n/a	n/a	n/a	n/a	n/a	n/a
2959098	RECOG_LURE	n/a	LTP202	ltpFR	3	4	n/a	BEET	115	3	n/a	n/a	n/a	n/a	n/a	n/a
2960076	RECOG_RESP	n/a	LTP202	ltpFR	3	4	n/a	BEET	115	n/a	n/a	n/a	n/a	n/a	n/a	n/a
2960823	RECOG_CONF	n/a	LTP202	ltpFR	3	4	n/a	BEET	115	3	n/a	n/a	n/a	n/a	n/a	n/a
2962459	RECOG_LURE	n/a	LTP202	ltpFR	3	4	n/a	CARDINAL	244	1	n/a	n/a	n/a	n/a	n/a	n/a
2963134	RECOG_RESP	n/a	LTP202	ltpFR	3	4	n/a	CARDINAL	244	n/a	n/a	n/a	n/a	n/a	n/a	n/a
2964085	RECOG_CONF	n/a	LTP202	ltpFR	3	4	n/a	CARDINAL	244	1	n/a	n/a	n/a	n/a	n/a	n/a
2965689	RECOG_LURE	n/a	LTP202	ltpFR	3	4	n/a	VILLAIN	1567	4	n/a	n/a	n/a	n/a	n/a	n/a
2966798	RECOG_RESP	n/a	LTP202	ltpFR	3	4	n/a	VILLAIN	1567	n/a	n/a	n/a	n/a	n/a	n/a	n/a
2967790	RECOG_CONF	n/a	LTP202	ltpFR	3	4	n/a	VILLAIN	1567	4	n/a	n/a	n/a	n/a	n/a	n/a
2969349	RECOG_TARGET	n/a	LTP202	ltpFR	3	4	0	SHELF	1280	2	0	n/a	n/a	n/a	n/a	n/a
2970108	RECOG_RESP	n/a	LTP202	ltpFR	3	4	0	SHELF	1280	n/a	0	n/a	n/a	n/a	n/a	n/a
2971104	RECOG_CONF	n/a	LTP202	ltpFR	3	4	0	SHELF	1280	2	0	n/a	n/a	n/a	n/a	n/a
2972811	RECOG_TARGET	n/a	LTP202	ltpFR	3	4	-1	STAGE	1366	2	-1	n/a	n/a	n/a	n/a	n/a
2973867	RECOG_RESP	n/a	LTP202	ltpFR	3	4	-1	STAGE	1366	n/a	-1	n/a	n/a	n/a	n/a	n/a
2974814	RECOG_CONF	n/a	LTP202	ltpFR	3	4	-1	STAGE	1366	2	-1	n/a	n/a	n/a	n/a	n/a
2976572	RECOG_TARGET	n/a	LTP202	ltpFR	3	4	-1	SENATE	1267	5	-1	n/a	n/a	n/a	n/a	n/a
2977391	RECOG_RESP	n/a	LTP202	ltpFR	3	4	-1	SENATE	1267	n/a	-1	n/a	n/a	n/a	n/a	n/a
2978233	RECOG_CONF	n/a	LTP202	ltpFR	3	4	-1	SENATE	1267	5	-1	n/a	n/a	n/a	n/a	n/a
2979883	RECOG_LURE	n/a	LTP202	ltpFR	3	4	n/a	AIRPORT	13	4	n/a	n/a	n/a	n/a	n/a	n/a
2980606	RECOG_RESP	n/a	LTP202	ltpFR	3	4	n/a	AIRPORT	13	n/a	n/a	n/a	n/a	n/a	n/a	n/a
2981436	RECOG_CONF	n/a	LTP202	ltpFR	3	4	n/a	AIRPORT	13	4	n/a	n/a	n/a	n/a	n/a	n/a
2984888	REC_START	n/a	LTP202	ltpFR	3	5	n/a	n/a	n/a	n/a	n/a	n/a	n/a	n/a	n/a	n/a
2984926	RECOG_TARGET	n/a	LTP202	ltpFR	3	5	0	LEAF	808	5	0	n/a	n/a	n/a	n/a	n/a
2985497	RECOG_RESP	n/a	LTP202	ltpFR	3	5	0	LEAF	808	n/a	0	n/a	n/a	n/a	n/a	n/a
2986361	RECOG_CONF	n/a	LTP202	ltpFR	3	5	0	LEAF	808	5	0	n/a	n/a	n/a	n/a	n/a
2987689	RECOG_LURE	n/a	LTP202	ltpFR	3	5	n/a	RASPBERRY	1168	2	n/a	n/a	n/a	n/a	n/a	n/a
2988770	RECOG_RESP	n/a	LTP202	ltpFR	3	5	n/a	RASPBERRY	1168	n/a	n/a	n/a	n/a	n/a	n/a	n/a
2989748	RECOG_CONF	n/a	LTP202	ltpFR	3	5	n/a	RASPBERRY	1168	2	n/a	n/a	n/a	n/a	n/a	n/a
2991399	RECOG_TARGET	n/a	LTP202	ltpFR	3	5	-1	FRIES	607	5	-1	n/a	n/a	n/a	n/a	n/a
2992105	RECOG_RESP	n/a	LTP202	ltpFR	3	5	-1	FRIES	607	n/a	-1	n/a	n/a	n/a	n/a	n/a
2992775	RECOG_CONF	n/a	LTP202	ltpFR	3	5	-1	FRIES	607	5	-1	n/a	n/a	n/a	n/a	n/a
2994395	RECOG_TARGET	n/a	LTP202	ltpFR	3	5	0	COUCH	386	5	1	n/a	n/a	n/a	n/a	n/a
2994915	RECOG_RESP	n/a	LTP202	ltpFR	3	5	0	COUCH	386	n/a	1	n/a	n/a	n/a	n/a	n/a
2995647	RECOG_CONF	n/a	LTP202	ltpFR	3	5	0	COUCH	386	5	1	n/a	n/a	n/a	n/a	n/a
2997224	RECOG_LURE	n/a	LTP202	ltpFR	3	5	n/a	BURGLAR	200	3	n/a	n/a	n/a	n/a	n/a	n/a
2997736	RECOG_RESP	n/a	LTP202	ltpFR	3	5	n/a	BURGLAR	200	n/a	n/a	n/a	n/a	n/a	n/a	n/a
2998640	RECOG_CONF	n/a	LTP202	ltpFR	3	5	n/a	BURGLAR	200	3	n/a	n/a	n/a	n/a	n/a	n/a
3000319	RECOG_LURE	n/a	LTP202	ltpFR	3	5	n/a	PARENT	1013	4	n/a	n/a	n/a	n/a	n/a	n/a
3001130	RECOG_RESP	n/a	LTP202	ltpFR	3	5	n/a	PARENT	1013	n/a	n/a	n/a	n/a	n/a	n/a	n/a
3002060	RECOG_CONF	n/a	LTP202	ltpFR	3	5	n/a	PARENT	1013	4	n/a	n/a	n/a	n/a	n/a	n/a
3003682	RECOG_LURE	n/a	LTP202	ltpFR	3	5	n/a	BALLOT	76	2	n/a	n/a	n/a	n/a	n/a	n/a
3004961	RECOG_RESP	n/a	LTP202	ltpFR	3	5	n/a	BALLOT	76	n/a	n/a	n/a	n/a	n/a	n/a	n/a
3005890	RECOG_CONF	n/a	LTP202	ltpFR	3	5	n/a	BALLOT	76	2	n/a	n/a	n/a	n/a	n/a	n/a
3007676	RECOG_TARGET	n/a	LTP202	ltpFR	3	5	1	KIDNEY	776	5	0	n/a	n/a	n/a	n/a	n/a
3008306	RECOG_RESP	n/a	LTP202	ltpFR	3	5	1	KIDNEY	776	n/a	0	n/a	n/a	n/a	n/a	n/a
3009029	RECOG_CONF	n/a	LTP202	ltpFR	3	5	1	KIDNEY	776	5	0	n/a	n/a	n/a	n/a	n/a
3010722	RECOG_LURE	n/a	LTP202	ltpFR	3	5	n/a	KNIGHT	786	5	n/a	n/a	n/a	n/a	n/a	n/a
3011368	RECOG_RESP	n/a	LTP202	ltpFR	3	5	n/a	KNIGHT	786	n/a	n/a	n/a	n/a	n/a	n/a	n/a
3012023	RECOG_CONF	n/a	LTP202	ltpFR	3	5	n/a	KNIGHT	786	5	n/a	n/a	n/a	n/a	n/a	n/a
3013750	RECOG_LURE	n/a	LTP202	ltpFR	3	5	n/a	WOMAN	1620	1	n/a	n/a	n/a	n/a	n/a	n/a
3014676	RECOG_RESP	n/a	LTP202	ltpFR	3	5	n/a	WOMAN	1620	n/a	n/a	n/a	n/a	n/a	n/a	n/a
3015945	RECOG_CONF	n/a	LTP202	ltpFR	3	5	n/a	WOMAN	1620	1	n/a	n/a	n/a	n/a	n/a	n/a
3017661	RECOG_TARGET	n/a	LTP202	ltpFR	3	5	1	IRON	744	5	0	n/a	n/a	n/a	n/a	n/a
3018468	RECOG_RESP	n/a	LTP202	ltpFR	3	5	1	IRON	744	n/a	0	n/a	n/a	n/a	n/a	n/a
3019852	RECOG_CONF	n/a	LTP202	ltpFR	3	5	1	IRON	744	5	0	n/a	n/a	n/a	n/a	n/a
3021655	RECOG_LURE	n/a	LTP202	ltpFR	3	5	n/a	BACKBONE	66	5	n/a	n/a	n/a	n/a	n/a	n/a
3022489	RECOG_RESP	n/a	LTP202	ltpFR	3	5	n/a	BACKBONE	66	n/a	n/a	n/a	n/a	n/a	n/a	n/a
3023252	RECOG_CONF	n/a	LTP202	ltpFR	3	5	n/a	BACKBONE	66	5	n/a	n/a	n/a	n/a	n/a	n/a
3024916	RECOG_LURE	n/a	LTP202	ltpFR	3	5	n/a	DOCK	477	2	n/a	n/a	n/a	n/a	n/a	n/a
3025682	RECOG_RESP	n/a	LTP202	ltpFR	3	5	n/a	DOCK	477	n/a	n/a	n/a	n/a	n/a	n/a	n/a
3026459	RECOG_CONF	n/a	LTP202	ltpFR	3	5	n/a	DOCK	477	2	n/a	n/a	n/a	n/a	n/a	n/a
3028028	RECOG_TARGET	n/a	LTP202	ltpFR	3	5	0	SNACK	1331	5	0	n/a	n/a	n/a	n/a	n/a
3028674	RECOG_RESP	n/a	LTP202	ltpFR	3	5	0	SNACK	1331	n/a	0	n/a	n/a	n/a	n/a	n/a
3029365	RECOG_CONF	n/a	LTP202	ltpFR	3	5	0	SNACK	1331	5	0	n/a	n/a	n/a	n/a	n/a
3031157	RECOG_TARGET	n/a	LTP202	ltpFR	3	5	-1	GREASE	660	5	-1	n/a	n/a	n/a	n/a	n/a
3031758	RECOG_RESP	n/a	LTP202	ltpFR	3	5	-1	GREASE	660	n/a	-1	n/a	n/a	n/a	n/a	n/a
3032478	RECOG_CONF	n/a	LTP202	ltpFR	3	5	-1	GREASE	660	5	-1	n/a	n/a	n/a	n/a	n/a
3034186	RECOG_LURE	n/a	LTP202	ltpFR	3	5	n/a	HEEL	700	2	n/a	n/a	n/a	n/a	n/a	n/a
3034988	RECOG_RESP	n/a	LTP202	ltpFR	3	5	n/a	HEEL	700	n/a	n/a	n/a	n/a	n/a	n/a	n/a
3035803	RECOG_CONF	n/a	LTP202	ltpFR	3	5	n/a	HEEL	700	2	n/a	n/a	n/a	n/a	n/a	n/a
3037447	RECOG_TARGET	n/a	LTP202	ltpFR	3	5	0	UNIFORM	1539	5	0	n/a	n/a	n/a	n/a	n/a
3038097	RECOG_RESP	n/a	LTP202	ltpFR	3	5	0	UNIFORM	1539	n/a	0	n/a	n/a	n/a	n/a	n/a
3038819	RECOG_CONF	n/a	LTP202	ltpFR	3	5	0	UNIFORM	1539	5	0	n/a	n/a	n/a	n/a	n/a
3040443	RECOG_LURE	n/a	LTP202	ltpFR	3	5	n/a	ELECTRON	522	4	n/a	n/a	n/a	n/a	n/a	n/a
3041153	RECOG_RESP	n/a	LTP202	ltpFR	3	5	n/a	ELECTRON	522	n/a	n/a	n/a	n/a	n/a	n/a	n/a
3042109	RECOG_CONF	n/a	LTP202	ltpFR	3	5	n/a	ELECTRON	522	4	n/a	n/a	n/a	n/a	n/a	n/a
3043821	RECOG_LURE	n/a	LTP202	ltpFR	3	5	n/a	MOWER	928	4	n/a	n/a	n/a	n/a	n/a	n/a
3044690	RECOG_RESP	n/a	LTP202	ltpFR	3	5	n/a	MOWER	928	n/a	n/a	n/a	n/a	n/a	n/a	n/a
3046021	RECOG_CONF	n/a	LTP202	ltpFR	3	5	n/a	MOWER	928	4	n/a	n/a	n/a	n/a	n/a	n/a
3047650	RECOG_LURE	n/a	LTP202	ltpFR	3	5	n/a	SPOON	1357	2	n/a	n/a	n/a	n/a	n/a	n/a
3049339	RECOG_RESP	n/a	LTP202	ltpFR	3	5	n/a	SPOON	1357	n/a	n/a	n/a	n/a	n/a	n/a	n/a
3050418	RECOG_CONF	n/a	LTP202	ltpFR	3	5	n/a	SPOON	1357	2	n/a	n/a	n/a	n/a	n/a	n/a
3053581	REC_START	n/a	LTP202	ltpFR	3	6	n/a	n/a	n/a	n/a	n/a	n/a	n/a	n/a	n/a	n/a
3053623	RECOG_TARGET	n/a	LTP202	ltpFR	3	6	1	SHOULDER	1294	5	0	n/a	n/a	n/a	n/a	n/a
3054316	RECOG_RESP	n/a	LTP202	ltpFR	3	6	1	SHOULDER	1294	n/a	0	n/a	n/a	n/a	n/a	n/a
3055048	RECOG_CONF	n/a	LTP202	ltpFR	3	6	1	SHOULDER	1294	5	0	n/a	n/a	n/a	n/a	n/a
3056720	RECOG_TARGET	n/a	LTP202	ltpFR	3	6	0	SLUG	1329	5	0	n/a	n/a	n/a	n/a	n/a
3057269	RECOG_RESP	n/a	LTP202	ltpFR	3	6	0	SLUG	1329	n/a	0	n/a	n/a	n/a	n/a	n/a
3058116	RECOG_CONF	n/a	LTP202	ltpFR	3	6	0	SLUG	1329	5	0	n/a	n/a	n/a	n/a	n/a
3059715	RECOG_LURE	n/a	LTP202	ltpFR	3	6	n/a	NECKLACE	940	3	n/a	n/a	n/a	n/a	n/a	n/a
3060390	RECOG_RESP	n/a	LTP202	ltpFR	3	6	n/a	NECKLACE	940	n/a	n/a	n/a	n/a	n/a	n/a	n/a
3061349	RECOG_CONF	n/a	LTP202	ltpFR	3	6	n/a	NECKLACE	940	3	n/a	n/a	n/a	n/a	n/a	n/a
3062943	RECOG_LURE	n/a	LTP202	ltpFR	3	6	n/a	ZIPPER	1636	5	n/a	n/a	n/a	n/a	n/a	n/a
3063551	RECOG_RESP	n/a	LTP202	ltpFR	3	6	n/a	ZIPPER	1636	n/a	n/a	n/a	n/a	n/a	n/a	n/a
3064226	RECOG_CONF	n/a	LTP202	ltpFR	3	6	n/a	ZIPPER	1636	5	n/a	n/a	n/a	n/a	n/a	n/a
3065888	RECOG_TARGET	n/a	LTP202	ltpFR	3	6	0	BUREAU	199	5	1	n/a	n/a	n/a	n/a	n/a
3066586	RECOG_RESP	n/a	LTP202	ltpFR	3	6	0	BUREAU	199	n/a	1	n/a	n/a	n/a	n/a	n/a
3067357	RECOG_CONF	n/a	LTP202	ltpFR	3	6	0	BUREAU	199	5	1	n/a	n/a	n/a	n/a	n/a
3069067	RECOG_TARGET	n/a	LTP202	ltpFR	3	6	1	PAINTER	1004	5	1	n/a	n/a	n/a	n/a	n/a
3070020	RECOG_RESP	n/a	LTP202	ltpFR	3	6	1	PAINTER	1004	n/a	1	n/a	n/a	n/a	n/a	n/a
3070756	RECOG_CONF	n/a	LTP202	ltpFR	3	6	1	PAINTER	1004	5	1	n/a	n/a	n/a	n/a	n/a
3072495	RECOG_LURE	n/a	LTP202	ltpFR	3	6	n/a	COMMANDER	354	3	n/a	n/a	n/a	n/a	n/a	n/a
3073162	RECOG_RESP	n/a	LTP202	ltpFR	3	6	n/a	COMMANDER	354	n/a	n/a	n/a	n/a	n/a	n/a	n/a
3074168	RECOG_CONF	n/a	LTP202	ltpFR	3	6	n/a	COMMANDER	354	3	n/a	n/a	n/a	n/a	n/a	n/a
3075725	RECOG_LURE	n/a	LTP202	ltpFR	3	6	n/a	OUTFIT	988	5	n/a	n/a	n/a	n/a	n/a	n/a
3076381	RECOG_RESP	n/a	LTP202	ltpFR	3	6	n/a	OUTFIT	988	n/a	n/a	n/a	n/a	n/a	n/a	n/a
3077172	RECOG_CONF	n/a	LTP202	ltpFR	3	6	n/a	OUTFIT	988	5	n/a	n/a	n/a	n/a	n/a	n/a
3078886	RECOG_TARGET	n/a	LTP202	ltpFR	3	6	0	BED	110	5	1	n/a	n/a	n/a	n/a	n/a
3079548	RECOG_RESP	n/a	LTP202	ltpFR	3	6	0	BED	110	n/a	1	n/a	n/a	n/a	n/a	n/a
3080295	RECOG_CONF	n/a	LTP202	ltpFR	3	6	0	BED	110	5	1	n/a	n/a	n/a	n/a	n/a
3081948	RECOG_LURE	n/a	LTP202	ltpFR	3	6	n/a	CANNON	232	3	n/a	n/a	n/a	n/a	n/a	n/a
3082726	RECOG_RESP	n/a	LTP202	ltpFR	3	6	n/a	CANNON	232	n/a	n/a	n/a	n/a	n/a	n/a	n/a
3083558	RECOG_CONF	n/a	LTP202	ltpFR	3	6	n/a	CANNON	232	3	n/a	n/a	n/a	n/a	n/a	n/a
3085326	RECOG_TARGET	n/a	LTP202	ltpFR	3	6	1	PIANO	1057	5	0	n/a	n/a	n/a	n/a	n/a
3085910	RECOG_RESP	n/a	LTP202	ltpFR	3	6	1	PIANO	1057	n/a	0	n/a	n/a	n/a	n/a	n/a
3086718	RECOG_CONF	n/a	LTP202	ltpFR	3	6	1	PIANO	1057	5	0	n/a	n/a	n/a	n/a	n/a
3088405	RECOG_LURE	n/a	LTP202	ltpFR	3	6	n/a	DINOSAUR	469	4	n/a	n/a	n/a	n/a	n/a	n/a
3089090	RECOG_RESP	n/a	LTP202	ltpFR	3	6	n/a	DINOSAUR	469	n/a	n/a	n/a	n/a	n/a	n/a	n/a
3091163	RECOG_CONF	n/a	LTP202	ltpFR	3	6	n/a	DINOSAUR	469	4	n/a	n/a	n/a	n/a	n/a	n/a
3092931	RECOG_TARGET	n/a	LTP202	ltpFR	3	6	0	WAGON	1578	4	1	n/a	n/a	n/a	n/a	n/a
3094131	RECOG_RESP	n/a	LTP202	ltpFR	3	6	0	WAGON	1578	n/a	1	n/a	n/a	n/a	n/a	n/a
3095161	RECOG_CONF	n/a	LTP202	ltpFR	3	6	0	WAGON	1578	4	1	n/a	n/a	n/a	n/a	n/a
3096892	RECOG_LURE	n/a	LTP202	ltpFR	3	6	n/a	BUILDER	190	1	n/a	n/a	n/a	n/a	n/a	n/a
3097985	RECOG_RESP	n/a	LTP202	ltpFR	3	6	n/a	BUILDER	190	n/a	n/a	n/a	n/a	n/a	n/a	n/a
3100128	RECOG_CONF	n/a	LTP202	ltpFR	3	6	n/a	BUILDER	190	1	n/a	n/a	n/a	n/a	n/a	n/a
3101801	RECOG_TARGET	n/a	LTP202	ltpFR	3	6	1	INTESTINE	742	5	0	n/a	n/a	n/a	n/a	n/a
3102510	RECOG_RESP	n/a	LTP202	ltpFR	3	6	1	INTESTINE	742	n/a	0	n/a	n/a	n/a	n/a	n/a
3103258	RECOG_CONF	n/a	LTP202	ltpFR	3	6	1	INTESTINE	742	5	0	n/a	n/a	n/a	n/a	n/a
3104913	RECOG_TARGET	n/a	LTP202	ltpFR	3	6	-1	AWARD	63	5	-1	n/a	n/a	n/a	n/a	n/a
3105534	RECOG_RESP	n/a	LTP202	ltpFR	3	6	-1	AWARD	63	n/a	-1	n/a	n/a	n/a	n/a	n/a
3106366	RECOG_CONF	n/a	LTP202	ltpFR	3	6	-1	AWARD	63	5	-1	n/a	n/a	n/a	n/a	n/a
3107992	RECOG_TARGET	n/a	LTP202	ltpFR	3	6	0	TROUT	1511	5	0	n/a	n/a	n/a	n/a	n/a
3108687	RECOG_RESP	n/a	LTP202	ltpFR	3	6	0	TROUT	1511	n/a	0	n/a	n/a	n/a	n/a	n/a
3109475	RECOG_CONF	n/a	LTP202	ltpFR	3	6	0	TROUT	1511	5	0	n/a	n/a	n/a	n/a	n/a
3111221	RECOG_TARGET	n/a	LTP202	ltpFR	3	6	0	BAKER	71	4	0	n/a	n/a	n/a	n/a	n/a
3111761	RECOG_RESP	n/a	LTP202	ltpFR	3	6	0	BAKER	71	n/a	0	n/a	n/a	n/a	n/a	n/a
3112716	RECOG_CONF	n/a	LTP202	ltpFR	3	6	0	BAKER	71	4	0	n/a	n/a	n/a	n/a	n/a
3114349	RECOG_LURE	n/a	LTP202	ltpFR	3	6	n/a	DICTATOR	462	2	n/a	n/a	n/a	n/a	n/a	n/a
3115782	RECOG_RESP	n/a	LTP202	ltpFR	3	6	n/a	DICTATOR	462	n/a	n/a	n/a	n/a	n/a	n/a	n/a
3117635	RECOG_CONF	n/a	LTP202	ltpFR	3	6	n/a	DICTATOR	462	2	n/a	n/a	n/a	n/a	n/a	n/a
3119408	RECOG_TARGET	n/a	LTP202	ltpFR	3	6	1	BANKER	84	5	1	n/a	n/a	n/a	n/a	n/a
3120059	RECOG_RESP	n/a	LTP202	ltpFR	3	6	1	BANKER	84	n/a	1	n/a	n/a	n/a	n/a	n/a
3120809	RECOG_CONF	n/a	LTP202	ltpFR	3	6	1	BANKER	84	5	1	n/a	n/a	n/a	n/a	n/a
3124091	REC_START	n/a	LTP202	ltpFR	3	7	n/a	n/a	n/a	n/a	n/a	n/a	n/a	n/a	n/a	n/a
3124118	RECOG_LURE	n/a	LTP202	ltpFR	3	7	n/a	SPOUSE	1358	5	n/a	n/a	n/a	n/a	n/a	n/a
3124767	RECOG_RESP	n/a	LTP202	ltpFR	3	7	n/a	SPOUSE	1358	n/a	n/a	n/a	n/a	n/a	n/a	n/a
3125565	RECOG_CONF	n/a	LTP202	ltpFR	3	7	n/a	SPOUSE	1358	5	n/a	n/a	n/a	n/a	n/a	n/a
3127230	RECOG_TARGET	n/a	LTP202	ltpFR	3	7	1	COBRA	336	3	1	n/a	n/a	n/a	n/a	n/a
3128136	RECOG_RESP	n/a	LTP202	ltpFR	3	7	1	COBRA	336	n/a	1	n/a	n/a	n/a	n/a	n/a
3129270	RECOG_CONF	n/a	LTP202	ltpFR	3	7	1	COBRA	336	3	1	n/a	n/a	n/a	n/a	n/a
3130991	RECOG_LURE	n/a	LTP202	ltpFR	3	7	n/a	BEE	112	3	n/a	n/a	n/a	n/a	n/a	n/a
3131778	RECOG_RESP	n/a	LTP202	ltpFR	3	7	n/a	BEE	112	n/a	n/a	n/a	n/a	n/a	n/a	n/a
3133273	RECOG_CONF	n/a	LTP202	ltpFR	3	7	n/a	BEE	112	3	n/a	n/a	n/a	n/a	n/a	n/a
3134835	RECOG_LURE	n/a	LTP202	ltpFR	3	7	n/a	CLAMP	316	5	n/a	n/a	n/a	n/a	n/a	n/a
3135614	RECOG_RESP	n/a	LTP202	ltpFR	3	7	n/a	CLAMP	316	n/a	n/a	n/a	n/a	n/a	n/a	n/a
3136424	RECOG_CONF	n/a	LTP202	ltpFR	3	7	n/a	CLAMP	316	5	n/a	n/a	n/a	n/a	n/a	n/a
3138080	RECOG_TARGET	n/a	LTP202	ltpFR	3	7	-1	BEAVER	109	5	-1	n/a	n/a	n/a	n/a	n/a
3138643	RECOG_RESP	n/a	LTP202	ltpFR	3	7	-1	BEAVER	109	n/a	-1	n/a	n/a	n/a	n/a	n/a
3139440	RECOG_CONF	n/a	LTP202	ltpFR	3	7	-1	BEAVER	109	5	-1	n/a	n/a	n/a	n/a	n/a
3141126	RECOG_LURE	n/a	LTP202	ltpFR	3	7	n/a	RASH	1167	4	n/a	n/a	n/a	n/a	n/a	n/a
3141971	RECOG_RESP	n/a	LTP202	ltpFR	3	7	n/a	RASH	1167	n/a	n/a	n/a	n/a	n/a	n/a	n/a
3143026	RECOG_CONF	n/a	LTP202	ltpFR	3	7	n/a	RASH	1167	4	n/a	n/a	n/a	n/a	n/a	n/a
3144738	RECOG_LURE	n/a	LTP202	ltpFR	3	7	n/a	NOSE	957	3	n/a	n/a	n/a	n/a	n/a	n/a
3145807	RECOG_RESP	n/a	LTP202	ltpFR	3	7	n/a	NOSE	957	n/a	n/a	n/a	n/a	n/a	n/a	n/a
3147144	RECOG_CONF	n/a	LTP202	ltpFR	3	7	n/a	NOSE	957	3	n/a	n/a	n/a	n/a	n/a	n/a
3148914	RECOG_TARGET	n/a	LTP202	ltpFR	3	7	-1	MARKET	871	3	-1	n/a	n/a	n/a	n/a	n/a
3149685	RECOG_RESP	n/a	LTP202	ltpFR	3	7	-1	MARKET	871	n/a	-1	n/a	n/a	n/a	n/a	n/a
3150627	RECOG_CONF	n/a	LTP202	ltpFR	3	7	-1	MARKET	871	3	-1	n/a	n/a	n/a	n/a	n/a
3152243	RECOG_TARGET	n/a	LTP202	ltpFR	3	7	0	RUM	1217	5	0	n/a	n/a	n/a	n/a	n/a
3152797	RECOG_RESP	n/a	LTP202	ltpFR	3	7	0	RUM	1217	n/a	0	n/a	n/a	n/a	n/a	n/a
3153533	RECOG_CONF	n/a	LTP202	ltpFR	3	7	0	RUM	1217	5	0	n/a	n/a	n/a	n/a	n/a
3155188	RECOG_LURE	n/a	LTP202	ltpFR	3	7	n/a	ICING	732	5	n/a	n/a	n/a	n/a	n/a	n/a
3155866	RECOG_RESP	n/a	LTP202	ltpFR	3	7	n/a	ICING	732	n/a	n/a	n/a	n/a	n/a	n/a	n/a
3156652	RECOG_CONF	n/a	LTP202	ltpFR	3	7	n/a	ICING	732	5	n/a	n/a	n/a	n/a	n/a	n/a
3158317	RECOG_TARGET	n/a	LTP202	ltpFR	3	7	1	DIGGER	464	5	1	n/a	n/a	n/a	n/a	n/a
3159017	RECOG_RESP	n/a	LTP202	ltpFR	3	7	1	DIGGER	464	n/a	1	n/a	n/a	n/a	n/a	n/a
3159946	RECOG_CONF	n/a	LTP202	ltpFR	3	7	1	DIGGER	464	5	1	n/a	n/a	n/a	n/a	n/a
3161562	RECOG_TARGET	n/a	LTP202	ltpFR	3	7	0	BASEBALL	93	5	0	n/a	n/a	n/a	n/a	n/a
3162155	RECOG_RESP	n/a	LTP202	ltpFR	3	7	0	BASEBALL	93	n/a	0	n/a	n/a	n/a	n/a	n/a
3162905	RECOG_CONF	n/a	LTP202	ltpFR	3	7	0	BASEBALL	93	5	0	n/a	n/a	n/a	n/a	n/a
3164591	RECOG_TARGET	n/a	LTP202	ltpFR	3	7	1	SUPERVISOR	1410	5	1	n/a	n/a	n/a	n/a	n/a
3165074	RECOG_RESP	n/a	LTP202	ltpFR	3	7	1	SUPERVISOR	1410	n/a	1	n/a	n/a	n/a	n/a	n/a
3165882	RECOG_CONF	n/a	LTP202	ltpFR	3	7	1	SUPERVISOR	1410	5	1	n/a	n/a	n/a	n/a	n/a
3167553	RECOG_TARGET	n/a	LTP202	ltpFR	3	7	1	FLASK	576	5	0	n/a	n/a	n/a	n/a	n/a
3168056	RECOG_RESP	n/a	LTP202	ltpFR	3	7	1	FLASK	576	n/a	0	n/a	n/a	n/a	n/a	n/a
3168826	RECOG_CONF	n/a	LTP202	ltpFR	3	7	1	FLASK	576	5	0	n/a	n/a	n/a	n/a	n/a
3170532	RECOG_TARGET	n/a	LTP202	ltpFR	3	7	1	OATMEAL	967	4	0	n/a	n/a	n/a	n/a	n/a
3171020	RECOG_RESP	n/a	LTP202	ltpFR	3	7	1	OATMEAL	967	n/a	0	n/a	n/a	n/a	n/a	n/a
3171885	RECOG_CONF	n/a	LTP202	ltpFR	3	7	1	OATMEAL	967	4	0	n/a	n/a	n/a	n/a	n/a
3173577	RECOG_TARGET	n/a	LTP202	ltpFR	3	7	-1	DINNER	468	5	-1	n/a	n/a	n/a	n/a	n/a
3174097	RECOG_RESP	n/a	LTP202	ltpFR	3	7	-1	DINNER	468	n/a	-1	n/a	n/a	n/a	n/a	n/a
3174980	RECOG_CONF	n/a	LTP202	ltpFR	3	7	-1	DINNER	468	5	-1	n/a	n/a	n/a	n/a	n/a
3176606	RECOG_TARGET	n/a	LTP202	ltpFR	3	7	-1	ACORN	3	5	-1	n/a	n/a	n/a	n/a	n/a
3177135	RECOG_RESP	n/a	LTP202	ltpFR	3	7	-1	ACORN	3	n/a	-1	n/a	n/a	n/a	n/a	n/a
3177933	RECOG_CONF	n/a	LTP202	ltpFR	3	7	-1	ACORN	3	5	-1	n/a	n/a	n/a	n/a	n/a
3179618	RECOG_TARGET	n/a	LTP202	ltpFR	3	7	1	COW	393	5	1	n/a	n/a	n/a	n/a	n/a
3180083	RECOG_RESP	n/a	LTP202	ltpFR	3	7	1	COW	393	n/a	1	n/a	n/a	n/a	n/a	n/a
3180769	RECOG_CONF	n/a	LTP202	ltpFR	3	7	1	COW	393	5	1	n/a	n/a	n/a	n/a	n/a
3182481	RECOG_LURE	n/a	LTP202	ltpFR	3	7	n/a	ACTRESS	6	3	n/a	n/a	n/a	n/a	n/a	n/a
3183108	RECOG_RESP	n/a	LTP202	ltpFR	3	7	n/a	ACTRESS	6	n/a	n/a	n/a	n/a	n/a	n/a	n/a
3184327	RECOG_CONF	n/a	LTP202	ltpFR	3	7	n/a	ACTRESS	6	3	n/a	n/a	n/a	n/a	n/a	n/a
3185909	RECOG_TARGET	n/a	LTP202	ltpFR	3	7	0	HEDGE	699	4	0	n/a	n/a	n/a	n/a	n/a
3186646	RECOG_RESP	n/a	LTP202	ltpFR	3	7	0	HEDGE	699	n/a	0	n/a	n/a	n/a	n/a	n/a
3187542	RECOG_CONF	n/a	LTP202	ltpFR	3	7	0	HEDGE	699	4	0	n/a	n/a	n/a	n/a	n/a
3190644	REC_START	n/a	LTP202	ltpFR	3	8	n/a	n/a	n/a	n/a	n/a	n/a	n/a	n/a	n/a	n/a
3190669	RECOG_LURE	n/a	LTP202	ltpFR	3	8	n/a	SERPENT	1270	1	n/a	n/a	n/a	n/a	n/a	n/a
3191377	RECOG_RESP	n/a	LTP202	ltpFR	3	8	n/a	SERPENT	1270	n/a	n/a	n/a	n/a	n/a	n/a	n/a
3192768	RECOG_CONF	n/a	LTP202	ltpFR	3	8	n/a	SERPENT	1270	1	n/a	n/a	n/a	n/a	n/a	n/a
3195162	RECOG_TARGET	n/a	LTP202	ltpFR	3	8	1	DUMP	505	5	0	n/a	n/a	n/a	n/a	n/a
3195772	RECOG_RESP	n/a	LTP202	ltpFR	3	8	1	DUMP	505	n/a	0	n/a	n/a	n/a	n/a	n/a
3196472	RECOG_CONF	n/a	LTP202	ltpFR	3	8	1	DUMP	505	5	0	n/a	n/a	n/a	n/a	n/a
3198008	RECOG_TARGET	n/a	LTP202	ltpFR	3	8	-1	ASHTRAY	45	4	-1	n/a	n/a	n/a	n/a	n/a
3198684	RECOG_RESP	n/a	LTP202	ltpFR	3	8	-1	ASHTRAY	45	n/a	-1	n/a	n/a	n/a	n/a	n/a
3200127	RECOG_CONF	n/a	LTP202	ltpFR	3	8	-1	ASHTRAY	45	4	-1	n/a	n/a	n/a	n/a	n/a
3201720	RECOG_LURE	n/a	LTP202	ltpFR	3	8	n/a	SIRLOIN	1311	5	n/a	n/a	n/a	n/a	n/a	n/a
3202373	RECOG_RESP	n/a	LTP202	ltpFR	3	8	n/a	SIRLOIN	1311	n/a	n/a	n/a	n/a	n/a	n/a	n/a
3203050	RECOG_CONF	n/a	LTP202	ltpFR	3	8	n/a	SIRLOIN	1311	5	n/a	n/a	n/a	n/a	n/a	n/a
3204748	RECOG_LURE	n/a	LTP202	ltpFR	3	8	n/a	HUMAN	726	2	n/a	n/a	n/a	n/a	n/a	n/a
3205315	RECOG_RESP_VV	n/a	LTP202	ltpFR	3	8	n/a	HUMAN	726	n/a	n/a	n/a	n/a	n/a	n/a	n/a
3206912	RECOG_RESP	n/a	LTP202	ltpFR	3	8	n/a	HUMAN	726	n/a	n/a	n/a	n/a	n/a	n/a	n/a
3207865	RECOG_CONF	n/a	LTP202	ltpFR	3	8	n/a	HUMAN	726	2	n/a	n/a	n/a	n/a	n/a	n/a
3209607	RECOG_TARGET	n/a	LTP202	ltpFR	3	8	0	CARAVAN	242	3	1	n/a	n/a	n/a	n/a	n/a
3210738	RECOG_RESP	n/a	LTP202	ltpFR	3	8	0	CARAVAN	242	n/a	1	n/a	n/a	n/a	n/a	n/a
3211742	RECOG_CONF	n/a	LTP202	ltpFR	3	8	0	CARAVAN	242	3	1	n/a	n/a	n/a	n/a	n/a
3213385	RECOG_LURE	n/a	LTP202	ltpFR	3	8	n/a	SUMMIT	1405	3	n/a	n/a	n/a	n/a	n/a	n/a
3214124	RECOG_RESP	n/a	LTP202	ltpFR	3	8	n/a	SUMMIT	1405	n/a	n/a	n/a	n/a	n/a	n/a	n/a
3214998	RECOG_CONF	n/a	LTP202	ltpFR	3	8	n/a	SUMMIT	1405	3	n/a	n/a	n/a	n/a	n/a	n/a
3216630	RECOG_LURE	n/a	LTP202	ltpFR	3	8	n/a	MAYONNAISE	880	5	n/a	n/a	n/a	n/a	n/a	n/a
3217366	RECOG_RESP	n/a	LTP202	ltpFR	3	8	n/a	MAYONNAISE	880	n/a	n/a	n/a	n/a	n/a	n/a	n/a
3218094	RECOG_CONF	n/a	LTP202	ltpFR	3	8	n/a	MAYONNAISE	880	5	n/a	n/a	n/a	n/a	n/a	n/a
3219808	RECOG_LURE	n/a	LTP202	ltpFR	3	8	n/a	MAILBOX	857	2	n/a	n/a	n/a	n/a	n/a	n/a
3220556	RECOG_RESP	n/a	LTP202	ltpFR	3	8	n/a	MAILBOX	857	n/a	n/a	n/a	n/a	n/a	n/a	n/a
3221336	RECOG_CONF	n/a	LTP202	ltpFR	3	8	n/a	MAILBOX	857	2	n/a	n/a	n/a	n/a	n/a	n/a
3222937	RECOG_LURE	n/a	LTP202	ltpFR	3	8	n/a	MATCH	878	1	n/a	n/a	n/a	n/a	n/a	n/a
3223612	RECOG_RESP	n/a	LTP202	ltpFR	3	8	n/a	MATCH	878	n/a	n/a	n/a	n/a	n/a	n/a	n/a
3224424	RECOG_CONF	n/a	LTP202	ltpFR	3	8	n/a	MATCH	878	1	n/a	n/a	n/a	n/a	n/a	n/a
3226082	RECOG_LURE	n/a	LTP202	ltpFR	3	8	n/a	PIE	1062	3	n/a	n/a	n/a	n/a	n/a	n/a
3227638	RECOG_RESP	n/a	LTP202	ltpFR	3	8	n/a	PIE	1062	n/a	n/a	n/a	n/a	n/a	n/a	n/a
3229563	RECOG_CONF	n/a	LTP202	ltpFR	3	8	n/a	PIE	1062	3	n/a	n/a	n/a	n/a	n/a	n/a
3231158	RECOG_TARGET	n/a	LTP202	ltpFR	3	8	0	PIT	1077	3	0	n/a	n/a	n/a	n/a	n/a
3231857	RECOG_RESP	n/a	LTP202	ltpFR	3	8	0	PIT	1077	n/a	0	n/a	n/a	n/a	n/a	n/a
