onset	duration	trial_type	sample	stim_file	subject	experiment	session	trial	item_name	item_num	list	answer	test_x	test_y	test_z
287.652	n/a	SESS_START	143826	n/a	LTP285	ltpFR2	7	n/a	n/a	n/a	n/a	n/a	0	0	0
309.754	n/a	START	154877	n/a	LTP285	ltpFR2	7	n/a	n/a	n/a	-1	n/a	n/a	n/a	n/a
309.786	n/a	PROB	154893	n/a	LTP285	ltpFR2	7	n/a	n/a	n/a	-1	14	7	6	1
311.084	n/a	PROB	155542	n/a	LTP285	ltpFR2	7	n/a	n/a	n/a	-1	16	4	9	3
313.314	n/a	PROB	156657	n/a	LTP285	ltpFR2	7	n/a	n/a	n/a	-1	18	6	3	9
314.528	n/a	PROB	157264	n/a	LTP285	ltpFR2	7	n/a	n/a	n/a	-1	15	3	7	5
315.794	n/a	PROB	157897	n/a	LTP285	ltpFR2	7	n/a	n/a	n/a	-1	14	3	4	7
317.108	n/a	PROB	158554	n/a	LTP285	ltpFR2	7	n/a	n/a	n/a	-1	14	4	2	8
318.406	n/a	PROB	159203	n/a	LTP285	ltpFR2	7	n/a	n/a	n/a	-1	14	3	2	9
319.804	n/a	PROB	159902	n/a	LTP285	ltpFR2	7	n/a	n/a	n/a	-1	22	4	9	9
321.5	n/a	STOP	160750	n/a	LTP285	ltpFR2	7	n/a	n/a	n/a	-1	n/a	n/a	n/a	n/a
373.624	n/a	WORD	186812	wordpools/wasnorm_wordpool_576.txt	LTP285	ltpFR2	7	1	BALLOON	75	n/a	n/a	0	0	0
376.172	n/a	WORD	188086	wordpools/wasnorm_wordpool_576.txt	LTP285	ltpFR2	7	1	JELLO	754	n/a	n/a	0	0	0
378.834	n/a	WORD	189417	wordpools/wasnorm_wordpool_576.txt	LTP285	ltpFR2	7	1	PECAN	1036	n/a	n/a	0	0	0
381.296	n/a	WORD	190648	wordpools/wasnorm_wordpool_576.txt	LTP285	ltpFR2	7	1	SUNSET	1408	n/a	n/a	0	0	0
383.776	n/a	WORD	191888	wordpools/wasnorm_wordpool_576.txt	LTP285	ltpFR2	7	1	JELLY	755	n/a	n/a	0	0	0
386.588	n/a	WORD	193294	wordpools/wasnorm_wordpool_576.txt	LTP285	ltpFR2	7	1	CURTAIN	427	n/a	n/a	0	0	0
389.102	n/a	WORD	194551	wordpools/wasnorm_wordpool_576.txt	LTP285	ltpFR2	7	1	TWIG	1527	n/a	n/a	0	0	0
391.832	n/a	WORD	195916	wordpools/wasnorm_wordpool_576.txt	LTP285	ltpFR2	7	1	LUMBER	848	n/a	n/a	0	0	0
394.46	n/a	WORD	197230	wordpools/wasnorm_wordpool_576.txt	LTP285	ltpFR2	7	1	FOOT	590	n/a	n/a	0	0	0
397.156	n/a	WORD	198578	wordpools/wasnorm_wordpool_576.txt	LTP285	ltpFR2	7	1	PLATE	1086	n/a	n/a	0	0	0
399.854	n/a	WORD	199927	wordpools/wasnorm_wordpool_576.txt	LTP285	ltpFR2	7	1	CUPBOARD	425	n/a	n/a	0	0	0
402.282	n/a	WORD	201141	wordpools/wasnorm_wordpool_576.txt	LTP285	ltpFR2	7	1	BRACES	164	n/a	n/a	0	0	0
404.88	n/a	WORD	202440	wordpools/wasnorm_wordpool_576.txt	LTP285	ltpFR2	7	1	DOLPHIN	483	n/a	n/a	0	0	0
407.308	n/a	WORD	203654	wordpools/wasnorm_wordpool_576.txt	LTP285	ltpFR2	7	1	SUSPECT	1415	n/a	n/a	0	0	0
410.054	n/a	WORD	205027	wordpools/wasnorm_wordpool_576.txt	LTP285	ltpFR2	7	1	HOUND	724	n/a	n/a	0	0	0
412.552	n/a	WORD	206276	wordpools/wasnorm_wordpool_576.txt	LTP285	ltpFR2	7	1	WIFE	1609	n/a	n/a	0	0	0
415.03	n/a	WORD	207515	wordpools/wasnorm_wordpool_576.txt	LTP285	ltpFR2	7	1	PACKAGE	997	n/a	n/a	0	0	0
417.694	n/a	WORD	208847	wordpools/wasnorm_wordpool_576.txt	LTP285	ltpFR2	7	1	ROBBER	1197	n/a	n/a	0	0	0
420.456	n/a	WORD	210228	wordpools/wasnorm_wordpool_576.txt	LTP285	ltpFR2	7	1	HOOK	715	n/a	n/a	0	0	0
423.118	n/a	WORD	211559	wordpools/wasnorm_wordpool_576.txt	LTP285	ltpFR2	7	1	BUTCHER	203	n/a	n/a	0	0	0
425.632	n/a	WORD	212816	wordpools/wasnorm_wordpool_576.txt	LTP285	ltpFR2	7	1	RUG	1215	n/a	n/a	0	0	0
428.062	n/a	WORD	214031	wordpools/wasnorm_wordpool_576.txt	LTP285	ltpFR2	7	1	PAIL	1002	n/a	n/a	0	0	0
430.574	n/a	WORD	215287	wordpools/wasnorm_wordpool_576.txt	LTP285	ltpFR2	7	1	GROUND	666	n/a	n/a	0	0	0
433.37	n/a	WORD	216685	wordpools/wasnorm_wordpool_576.txt	LTP285	ltpFR2	7	1	SUNRISE	1407	n/a	n/a	0	0	0
434.986	n/a	START	217493	n/a	LTP285	ltpFR2	7	n/a	n/a	n/a	1	n/a	n/a	n/a	n/a
435.936	n/a	DISTRACTOR	217968	n/a	LTP285	ltpFR2	7	1	n/a	n/a	n/a	n/a	0	0	0
435.95	n/a	PROB	217975	n/a	LTP285	ltpFR2	7	n/a	n/a	n/a	1	18	3	7	8
437.182	n/a	PROB	218591	n/a	LTP285	ltpFR2	7	n/a	n/a	n/a	1	21	7	8	6
439.178	n/a	PROB	219589	n/a	LTP285	ltpFR2	7	n/a	n/a	n/a	1	25	9	7	9
441.126	n/a	PROB	220563	n/a	LTP285	ltpFR2	7	n/a	n/a	n/a	1	15	7	7	1
442.174	n/a	PROB	221087	n/a	LTP285	ltpFR2	7	n/a	n/a	n/a	1	19	5	7	7
444.07	n/a	PROB	222035	n/a	LTP285	ltpFR2	7	n/a	n/a	n/a	1	20	6	9	5
445.834	n/a	PROB	222917	n/a	LTP285	ltpFR2	7	n/a	n/a	n/a	1	12	1	3	8
446.95	n/a	PROB	223475	n/a	LTP285	ltpFR2	7	n/a	n/a	n/a	1	12	1	7	4
448.0	n/a	PROB	224000	n/a	LTP285	ltpFR2	7	n/a	n/a	n/a	1	13	1	6	6
448.998	n/a	PROB	224499	n/a	LTP285	ltpFR2	7	n/a	n/a	n/a	1	19	9	7	3
450.178	n/a	PROB	225089	n/a	LTP285	ltpFR2	7	n/a	n/a	n/a	1	23	8	7	7
451.876	n/a	PROB	225938	n/a	LTP285	ltpFR2	7	n/a	n/a	n/a	1	15	8	2	5
453.64	n/a	PROB	226820	n/a	LTP285	ltpFR2	7	n/a	n/a	n/a	1	17	9	6	2
456.902	n/a	PROB	228451	n/a	LTP285	ltpFR2	7	n/a	n/a	n/a	1	4	2	1	1
457.742	n/a	STOP	228871	n/a	LTP285	ltpFR2	7	n/a	n/a	n/a	1	n/a	n/a	n/a	n/a
460.796	n/a	REC_START	230398	n/a	LTP285	ltpFR2	7	1	n/a	n/a	n/a	n/a	0	0	0
461.346	n/a	REC_WORD	230673	wordpools/wasnorm_wordpool_576.txt	LTP285	ltpFR2	7	1	SUNRISE	1407	n/a	n/a	0	0	0
462.526	n/a	REC_WORD	231263	wordpools/wasnorm_wordpool_576.txt	LTP285	ltpFR2	7	1	SUNSET	1408	n/a	n/a	0	0	0
463.926	n/a	REC_WORD	231963	wordpools/wasnorm_wordpool_576.txt	LTP285	ltpFR2	7	1	ROBBER	1197	n/a	n/a	0	0	0
465.18	n/a	REC_WORD	232590	wordpools/wasnorm_wordpool_576.txt	LTP285	ltpFR2	7	1	PAIL	1002	n/a	n/a	0	0	0
466.64	n/a	REC_WORD	233320	wordpools/wasnorm_wordpool_576.txt	LTP285	ltpFR2	7	1	RUG	1215	n/a	n/a	0	0	0
467.832	n/a	REC_WORD	233916	wordpools/wasnorm_wordpool_576.txt	LTP285	ltpFR2	7	1	CUPBOARD	425	n/a	n/a	0	0	0
469.158	n/a	REC_WORD	234579	wordpools/wasnorm_wordpool_576.txt	LTP285	ltpFR2	7	1	PLATE	1086	n/a	n/a	0	0	0
470.648	n/a	REC_WORD	235324	wordpools/wasnorm_wordpool_576.txt	LTP285	ltpFR2	7	1	JELLY	755	n/a	n/a	0	0	0
471.972	n/a	REC_WORD	235986	wordpools/wasnorm_wordpool_576.txt	LTP285	ltpFR2	7	1	JELLO	754	n/a	n/a	0	0	0
473.386	n/a	REC_WORD	236693	wordpools/wasnorm_wordpool_576.txt	LTP285	ltpFR2	7	1	BALLOON	75	n/a	n/a	0	0	0
477.588	n/a	REC_WORD	238794	wordpools/wasnorm_wordpool_576.txt	LTP285	ltpFR2	7	1	FOOT	590	n/a	n/a	0	0	0
479.008	n/a	REC_WORD	239504	wordpools/wasnorm_wordpool_576.txt	LTP285	ltpFR2	7	1	WIFE	1609	n/a	n/a	0	0	0
481.588	n/a	REC_WORD	240794	wordpools/wasnorm_wordpool_576.txt	LTP285	ltpFR2	7	1	HOUND	724	n/a	n/a	0	0	0
483.29	n/a	REC_WORD	241645	wordpools/wasnorm_wordpool_576.txt	LTP285	ltpFR2	7	1	DOLPHIN	483	n/a	n/a	0	0	0
485.61	n/a	REC_WORD	242805	wordpools/wasnorm_wordpool_576.txt	LTP285	ltpFR2	7	1	GROUND	666	n/a	n/a	0	0	0
491.948	n/a	REC_WORD	245974	wordpools/wasnorm_wordpool_576.txt	LTP285	ltpFR2	7	1	TWIG	1527	n/a	n/a	0	0	0
495.016	n/a	REC_WORD	247508	wordpools/wasnorm_wordpool_576.txt	LTP285	ltpFR2	7	1	LUMBER	848	n/a	n/a	0	0	0
520.224	n/a	REC_WORD	260112	wordpools/wasnorm_wordpool_576.txt	LTP285	ltpFR2	7	1	PECAN	1036	n/a	n/a	0	0	0
551.444	n/a	DISTRACTOR	275722	n/a	LTP285	ltpFR2	7	2	n/a	n/a	n/a	n/a	0	0	0
551.446	n/a	START	275723	n/a	LTP285	ltpFR2	7	n/a	n/a	n/a	2	n/a	n/a	n/a	n/a
551.478	n/a	PROB	275739	n/a	LTP285	ltpFR2	7	n/a	n/a	n/a	2	10	1	4	5
552.626	n/a	PROB	276313	n/a	LTP285	ltpFR2	7	n/a	n/a	n/a	2	18	5	6	7
554.24	n/a	PROB	277120	n/a	LTP285	ltpFR2	7	n/a	n/a	n/a	2	8	2	5	1
555.406	n/a	PROB	277703	n/a	LTP285	ltpFR2	7	n/a	n/a	n/a	2	7	3	3	1
556.454	n/a	PROB	278227	n/a	LTP285	ltpFR2	7	n/a	n/a	n/a	2	15	5	8	3
558.034	n/a	PROB	279017	n/a	LTP285	ltpFR2	7	n/a	n/a	n/a	2	8	2	1	5
559.116	n/a	PROB	279558	n/a	LTP285	ltpFR2	7	n/a	n/a	n/a	2	22	7	6	9
560.598	n/a	PROB	280299	n/a	LTP285	ltpFR2	7	n/a	n/a	n/a	2	7	4	2	1
561.73	n/a	PROB	280865	n/a	LTP285	ltpFR2	7	n/a	n/a	n/a	2	12	3	7	2
562.828	n/a	PROB	281414	n/a	LTP285	ltpFR2	7	n/a	n/a	n/a	2	17	5	6	6
564.192	n/a	PROB	282096	n/a	LTP285	ltpFR2	7	n/a	n/a	n/a	2	4	1	2	1
565.158	n/a	PROB	282579	n/a	LTP285	ltpFR2	7	n/a	n/a	n/a	2	13	4	8	1
566.322	n/a	PROB	283161	n/a	LTP285	ltpFR2	7	n/a	n/a	n/a	2	17	4	9	4
567.72	n/a	PROB	283860	n/a	LTP285	ltpFR2	7	n/a	n/a	n/a	2	8	5	1	2
569.102	n/a	PROB	284551	n/a	LTP285	ltpFR2	7	n/a	n/a	n/a	2	16	5	6	5
570.234	n/a	PROB	285117	n/a	LTP285	ltpFR2	7	n/a	n/a	n/a	2	13	4	5	4
573.28	n/a	PROB	286640	n/a	LTP285	ltpFR2	7	n/a	n/a	n/a	2	21	7	8	6
574.56	n/a	STOP	287280	n/a	LTP285	ltpFR2	7	n/a	n/a	n/a	2	n/a	n/a	n/a	n/a
576.442	n/a	WORD	288221	wordpools/wasnorm_wordpool_576.txt	LTP285	ltpFR2	7	2	WAGON	1578	n/a	n/a	0	0	0
579.254	n/a	WORD	289627	wordpools/wasnorm_wordpool_576.txt	LTP285	ltpFR2	7	2	FLUTE	585	n/a	n/a	0	0	0
581.784	n/a	WORD	290892	wordpools/wasnorm_wordpool_576.txt	LTP285	ltpFR2	7	2	LEG	809	n/a	n/a	0	0	0
584.28	n/a	WORD	292140	wordpools/wasnorm_wordpool_576.txt	LTP285	ltpFR2	7	2	LASER	801	n/a	n/a	0	0	0
586.76	n/a	WORD	293380	wordpools/wasnorm_wordpool_576.txt	LTP285	ltpFR2	7	2	PEACH	1031	n/a	n/a	0	0	0
589.34	n/a	WORD	294670	wordpools/wasnorm_wordpool_576.txt	LTP285	ltpFR2	7	2	POLICE	1098	n/a	n/a	0	0	0
592.118	n/a	WORD	296059	wordpools/wasnorm_wordpool_576.txt	LTP285	ltpFR2	7	2	DANDRUFF	439	n/a	n/a	0	0	0
594.898	n/a	WORD	297449	wordpools/wasnorm_wordpool_576.txt	LTP285	ltpFR2	7	2	PASTRY	1022	n/a	n/a	0	0	0
597.528	n/a	WORD	298764	wordpools/wasnorm_wordpool_576.txt	LTP285	ltpFR2	7	2	PATIENT	1024	n/a	n/a	0	0	0
600.09	n/a	WORD	300045	wordpools/wasnorm_wordpool_576.txt	LTP285	ltpFR2	7	2	BODY	145	n/a	n/a	0	0	0
602.57	n/a	WORD	301285	wordpools/wasnorm_wordpool_576.txt	LTP285	ltpFR2	7	2	SKIRT	1319	n/a	n/a	0	0	0
605.032	n/a	WORD	302516	wordpools/wasnorm_wordpool_576.txt	LTP285	ltpFR2	7	2	JUNGLE	764	n/a	n/a	0	0	0
607.762	n/a	WORD	303881	wordpools/wasnorm_wordpool_576.txt	LTP285	ltpFR2	7	2	SCALPEL	1243	n/a	n/a	0	0	0
610.208	n/a	WORD	305104	wordpools/wasnorm_wordpool_576.txt	LTP285	ltpFR2	7	2	KITCHEN	778	n/a	n/a	0	0	0
612.788	n/a	WORD	306394	wordpools/wasnorm_wordpool_576.txt	LTP285	ltpFR2	7	2	SUPPER	1411	n/a	n/a	0	0	0
615.384	n/a	WORD	307692	wordpools/wasnorm_wordpool_576.txt	LTP285	ltpFR2	7	2	HORNET	718	n/a	n/a	0	0	0
617.998	n/a	WORD	308999	wordpools/wasnorm_wordpool_576.txt	LTP285	ltpFR2	7	2	WASP	1593	n/a	n/a	0	0	0
620.71	n/a	WORD	310355	wordpools/wasnorm_wordpool_576.txt	LTP285	ltpFR2	7	2	LEADER	807	n/a	n/a	0	0	0
623.456	n/a	WORD	311728	wordpools/wasnorm_wordpool_576.txt	LTP285	ltpFR2	7	2	LACE	792	n/a	n/a	0	0	0
626.268	n/a	WORD	313134	wordpools/wasnorm_wordpool_576.txt	LTP285	ltpFR2	7	2	MONSTER	912	n/a	n/a	0	0	0
628.932	n/a	WORD	314466	wordpools/wasnorm_wordpool_576.txt	LTP285	ltpFR2	7	2	SLIME	1327	n/a	n/a	0	0	0
631.692	n/a	WORD	315846	wordpools/wasnorm_wordpool_576.txt	LTP285	ltpFR2	7	2	FIDDLE	561	n/a	n/a	0	0	0
634.256	n/a	WORD	317128	wordpools/wasnorm_wordpool_576.txt	LTP285	ltpFR2	7	2	FINGER	567	n/a	n/a	0	0	0
636.702	n/a	WORD	318351	wordpools/wasnorm_wordpool_576.txt	LTP285	ltpFR2	7	2	TOURIST	1488	n/a	n/a	0	0	0
638.316	n/a	START	319158	n/a	LTP285	ltpFR2	7	n/a	n/a	n/a	3	n/a	n/a	n/a	n/a
639.38	n/a	DISTRACTOR	319690	n/a	LTP285	ltpFR2	7	2	n/a	n/a	n/a	n/a	0	0	0
639.382	n/a	PROB	319691	n/a	LTP285	ltpFR2	7	n/a	n/a	n/a	3	8	2	1	5
640.762	n/a	PROB	320381	n/a	LTP285	ltpFR2	7	n/a	n/a	n/a	3	24	9	7	8
642.444	n/a	PROB	321222	n/a	LTP285	ltpFR2	7	n/a	n/a	n/a	3	24	9	7	8
643.624	n/a	PROB	321812	n/a	LTP285	ltpFR2	7	n/a	n/a	n/a	3	20	7	6	7
645.122	n/a	PROB	322561	n/a	LTP285	ltpFR2	7	n/a	n/a	n/a	3	19	7	7	5
646.92	n/a	PROB	323460	n/a	LTP285	ltpFR2	7	n/a	n/a	n/a	3	13	1	8	4
648.536	n/a	PROB	324268	n/a	LTP285	ltpFR2	7	n/a	n/a	n/a	3	22	6	9	8
651.648	n/a	PROB	325824	n/a	LTP285	ltpFR2	7	n/a	n/a	n/a	3	12	5	5	2
652.58	n/a	PROB	326290	n/a	LTP285	ltpFR2	7	n/a	n/a	n/a	3	17	6	4	7
653.562	n/a	PROB	326781	n/a	LTP285	ltpFR2	7	n/a	n/a	n/a	3	16	3	5	8
654.844	n/a	PROB	327422	n/a	LTP285	ltpFR2	7	n/a	n/a	n/a	3	11	3	6	2
656.274	n/a	PROB	328137	n/a	LTP285	ltpFR2	7	n/a	n/a	n/a	3	18	5	4	9
657.456	n/a	PROB	328728	n/a	LTP285	ltpFR2	7	n/a	n/a	n/a	3	21	5	8	8
658.87	n/a	PROB	329435	n/a	LTP285	ltpFR2	7	n/a	n/a	n/a	3	7	2	3	2
660.052	n/a	PROB	330026	n/a	LTP285	ltpFR2	7	n/a	n/a	n/a	3	10	2	2	6
661.232	n/a	STOP	330616	n/a	LTP285	ltpFR2	7	n/a	n/a	n/a	3	n/a	n/a	n/a	n/a
664.23	n/a	REC_START	332115	n/a	LTP285	ltpFR2	7	2	n/a	n/a	n/a	n/a	0	0	0
664.714	n/a	REC_WORD	332357	wordpools/wasnorm_wordpool_576.txt	LTP285	ltpFR2	7	2	SLIME	1327	n/a	n/a	0	0	0
666.076	n/a	REC_WORD	333038	wordpools/wasnorm_wordpool_576.txt	LTP285	ltpFR2	7	2	MONSTER	912	n/a	n/a	0	0	0
667.502	n/a	REC_WORD	333751	wordpools/wasnorm_wordpool_576.txt	LTP285	ltpFR2	7	2	DANDRUFF	439	n/a	n/a	0	0	0
669.104	n/a	REC_WORD	334552	wordpools/wasnorm_wordpool_576.txt	LTP285	ltpFR2	7	2	ARM	38	n/a	n/a	0	0	0
670.388	n/a	REC_WORD	335194	wordpools/wasnorm_wordpool_576.txt	LTP285	ltpFR2	7	2	LEG	809	n/a	n/a	0	0	0
671.956	n/a	REC_WORD	335978	wordpools/wasnorm_wordpool_576.txt	LTP285	ltpFR2	7	2	PATIENT	1024	n/a	n/a	0	0	0
673.112	n/a	REC_WORD	336556	wordpools/wasnorm_wordpool_576.txt	LTP285	ltpFR2	7	2	SCALPEL	1243	n/a	n/a	0	0	0
687.764	n/a	REC_WORD	343882	wordpools/wasnorm_wordpool_576.txt	LTP285	ltpFR2	7	2	POLICE	1098	n/a	n/a	0	0	0
693.556	n/a	REC_WORD	346778	wordpools/wasnorm_wordpool_576.txt	LTP285	ltpFR2	7	2	KITCHEN	778	n/a	n/a	0	0	0
708.878	n/a	REC_WORD	354439	wordpools/wasnorm_wordpool_576.txt	LTP285	ltpFR2	7	2	HORNET	718	n/a	n/a	0	0	0
710.2	n/a	REC_WORD	355100	wordpools/wasnorm_wordpool_576.txt	LTP285	ltpFR2	7	2	WASP	1593	n/a	n/a	0	0	0
716.752	n/a	REC_WORD	358376	wordpools/wasnorm_wordpool_576.txt	LTP285	ltpFR2	7	2	SKIRT	1319	n/a	n/a	0	0	0
754.912	n/a	WORD	377456	wordpools/wasnorm_wordpool_576.txt	LTP285	ltpFR2	7	3	PALACE	1006	n/a	n/a	0	0	0
757.49	n/a	WORD	378745	wordpools/wasnorm_wordpool_576.txt	LTP285	ltpFR2	7	3	PROTON	1132	n/a	n/a	0	0	0
760.086	n/a	WORD	380043	wordpools/wasnorm_wordpool_576.txt	LTP285	ltpFR2	7	3	SPARROW	1347	n/a	n/a	0	0	0
762.884	n/a	WORD	381442	wordpools/wasnorm_wordpool_576.txt	LTP285	ltpFR2	7	3	CRAB	397	n/a	n/a	0	0	0
765.462	n/a	WORD	382731	wordpools/wasnorm_wordpool_576.txt	LTP285	ltpFR2	7	3	APRON	35	n/a	n/a	0	0	0
768.224	n/a	WORD	384112	wordpools/wasnorm_wordpool_576.txt	LTP285	ltpFR2	7	3	HATCHET	691	n/a	n/a	0	0	0
770.922	n/a	WORD	385461	wordpools/wasnorm_wordpool_576.txt	LTP285	ltpFR2	7	3	SCISSORS	1250	n/a	n/a	0	0	0
773.55	n/a	WORD	386775	wordpools/wasnorm_wordpool_576.txt	LTP285	ltpFR2	7	3	PERMIT	1051	n/a	n/a	0	0	0
776.362	n/a	WORD	388181	wordpools/wasnorm_wordpool_576.txt	LTP285	ltpFR2	7	3	LAMP	798	n/a	n/a	0	0	0
778.926	n/a	WORD	389463	wordpools/wasnorm_wordpool_576.txt	LTP285	ltpFR2	7	3	LIGHTNING	820	n/a	n/a	0	0	0
781.72	n/a	WORD	390860	wordpools/wasnorm_wordpool_576.txt	LTP285	ltpFR2	7	3	HUSBAND	728	n/a	n/a	0	0	0
784.366	n/a	WORD	392183	wordpools/wasnorm_wordpool_576.txt	LTP285	ltpFR2	7	3	MARKET	871	n/a	n/a	0	0	0
786.898	n/a	WORD	393449	wordpools/wasnorm_wordpool_576.txt	LTP285	ltpFR2	7	3	QUARTER	1148	n/a	n/a	0	0	0
789.56	n/a	WORD	394780	wordpools/wasnorm_wordpool_576.txt	LTP285	ltpFR2	7	3	DIME	466	n/a	n/a	0	0	0
792.256	n/a	WORD	396128	wordpools/wasnorm_wordpool_576.txt	LTP285	ltpFR2	7	3	HIKER	708	n/a	n/a	0	0	0
794.784	n/a	WORD	397392	wordpools/wasnorm_wordpool_576.txt	LTP285	ltpFR2	7	3	ELBOW	520	n/a	n/a	0	0	0
797.23	n/a	WORD	398615	wordpools/wasnorm_wordpool_576.txt	LTP285	ltpFR2	7	3	KLEENEX	782	n/a	n/a	0	0	0
799.81	n/a	WORD	399905	wordpools/wasnorm_wordpool_576.txt	LTP285	ltpFR2	7	3	PARTNER	1017	n/a	n/a	0	0	0
802.39	n/a	WORD	401195	wordpools/wasnorm_wordpool_576.txt	LTP285	ltpFR2	7	3	MAPLE	866	n/a	n/a	0	0	0
805.02	n/a	WORD	402510	wordpools/wasnorm_wordpool_576.txt	LTP285	ltpFR2	7	3	HONEY	713	n/a	n/a	0	0	0
807.534	n/a	WORD	403767	wordpools/wasnorm_wordpool_576.txt	LTP285	ltpFR2	7	3	OUTDOORS	987	n/a	n/a	0	0	0
810.162	n/a	WORD	405081	wordpools/wasnorm_wordpool_576.txt	LTP285	ltpFR2	7	3	AIRPORT	13	n/a	n/a	0	0	0
812.626	n/a	WORD	406313	wordpools/wasnorm_wordpool_576.txt	LTP285	ltpFR2	7	3	NEUTRON	947	n/a	n/a	0	0	0
815.188	n/a	WORD	407594	wordpools/wasnorm_wordpool_576.txt	LTP285	ltpFR2	7	3	SHARK	1275	n/a	n/a	0	0	0
816.802	n/a	START	408401	n/a	LTP285	ltpFR2	7	n/a	n/a	n/a	4	n/a	n/a	n/a	n/a
817.966	n/a	DISTRACTOR	408983	n/a	LTP285	ltpFR2	7	3	n/a	n/a	n/a	n/a	0	0	0
817.968	n/a	PROB	408984	n/a	LTP285	ltpFR2	7	n/a	n/a	n/a	4	1	2	3	8
821.362	n/a	PROB	410681	n/a	LTP285	ltpFR2	7	n/a	n/a	n/a	4	14	9	4	1
823.276	n/a	PROB	411638	n/a	LTP285	ltpFR2	7	n/a	n/a	n/a	4	15	3	6	6
824.408	n/a	PROB	412204	n/a	LTP285	ltpFR2	7	n/a	n/a	n/a	4	12	5	5	2
825.324	n/a	PROB	412662	n/a	LTP285	ltpFR2	7	n/a	n/a	n/a	4	20	5	7	8
827.454	n/a	PROB	413727	n/a	LTP285	ltpFR2	7	n/a	n/a	n/a	4	9	1	4	4
828.852	n/a	PROB	414426	n/a	LTP285	ltpFR2	7	n/a	n/a	n/a	4	13	8	4	1
829.984	n/a	PROB	414992	n/a	LTP285	ltpFR2	7	n/a	n/a	n/a	4	15	5	5	5
830.882	n/a	PROB	415441	n/a	LTP285	ltpFR2	7	n/a	n/a	n/a	4	12	1	5	6
831.914	n/a	PROB	415957	n/a	LTP285	ltpFR2	7	n/a	n/a	n/a	4	8	2	1	4
833.012	n/a	PROB	416506	n/a	LTP285	ltpFR2	7	n/a	n/a	n/a	4	24	9	6	9
834.876	n/a	PROB	417438	n/a	LTP285	ltpFR2	7	n/a	n/a	n/a	4	16	9	3	4
836.24	n/a	PROB	418120	n/a	LTP285	ltpFR2	7	n/a	n/a	n/a	4	18	2	8	8
837.338	n/a	PROB	418669	n/a	LTP285	ltpFR2	7	n/a	n/a	n/a	4	19	3	7	9
838.37	n/a	PROB	419185	n/a	LTP285	ltpFR2	7	n/a	n/a	n/a	4	9	1	5	3
839.642	n/a	STOP	419821	n/a	LTP285	ltpFR2	7	n/a	n/a	n/a	4	n/a	n/a	n/a	n/a
842.714	n/a	REC_START	421357	n/a	LTP285	ltpFR2	7	3	n/a	n/a	n/a	n/a	0	0	0
844.326	n/a	REC_WORD	422163	wordpools/wasnorm_wordpool_576.txt	LTP285	ltpFR2	7	3	SHARK	1275	n/a	n/a	0	0	0
845.562	n/a	REC_WORD	422781	wordpools/wasnorm_wordpool_576.txt	LTP285	ltpFR2	7	3	HONEY	713	n/a	n/a	0	0	0
846.694	n/a	REC_WORD	423347	wordpools/wasnorm_wordpool_576.txt	LTP285	ltpFR2	7	3	MAPLE	866	n/a	n/a	0	0	0
847.714	n/a	REC_WORD	423857	wordpools/wasnorm_wordpool_576.txt	LTP285	ltpFR2	7	3	OUTDOORS	987	n/a	n/a	0	0	0
849.288	n/a	REC_WORD	424644	wordpools/wasnorm_wordpool_576.txt	LTP285	ltpFR2	7	3	AIRPORT	13	n/a	n/a	0	0	0
850.522	n/a	REC_WORD	425261	wordpools/wasnorm_wordpool_576.txt	LTP285	ltpFR2	7	3	SPARROW	1347	n/a	n/a	0	0	0
852.142	n/a	REC_WORD	426071	wordpools/wasnorm_wordpool_576.txt	LTP285	ltpFR2	7	3	CLAM	315	n/a	n/a	0	0	0
860.096	n/a	REC_WORD	430048	wordpools/wasnorm_wordpool_576.txt	LTP285	ltpFR2	7	3	HATCHET	691	n/a	n/a	0	0	0
868.718	n/a	REC_WORD	434359	wordpools/wasnorm_wordpool_576.txt	LTP285	ltpFR2	7	3	PALACE	1006	n/a	n/a	0	0	0
890.69	n/a	REC_WORD	445345	wordpools/wasnorm_wordpool_576.txt	LTP285	ltpFR2	7	3	QUARTER	1148	n/a	n/a	0	0	0
891.994	n/a	REC_WORD	445997	wordpools/wasnorm_wordpool_576.txt	LTP285	ltpFR2	7	3	DIME	466	n/a	n/a	0	0	0
893.026	n/a	REC_WORD	446513	wordpools/wasnorm_wordpool_576.txt	LTP285	ltpFR2	7	3	MARKET	871	n/a	n/a	0	0	0
905.428	n/a	REC_WORD	452714	wordpools/wasnorm_wordpool_576.txt	LTP285	ltpFR2	7	3	KLEENEX	782	n/a	n/a	0	0	0
933.38	n/a	WORD	466690	wordpools/wasnorm_wordpool_576.txt	LTP285	ltpFR2	7	4	GRAVE	658	n/a	n/a	0	0	0
936.026	n/a	WORD	468013	wordpools/wasnorm_wordpool_576.txt	LTP285	ltpFR2	7	4	CEILING	265	n/a	n/a	0	0	0
938.522	n/a	WORD	469261	wordpools/wasnorm_wordpool_576.txt	LTP285	ltpFR2	7	4	PADDLE	1000	n/a	n/a	0	0	0
941.234	n/a	WORD	470617	wordpools/wasnorm_wordpool_576.txt	LTP285	ltpFR2	7	4	MARINE	869	n/a	n/a	0	0	0
943.68	n/a	WORD	471840	wordpools/wasnorm_wordpool_576.txt	LTP285	ltpFR2	7	4	LUNCH	849	n/a	n/a	0	0	0
946.11	n/a	WORD	473055	wordpools/wasnorm_wordpool_576.txt	LTP285	ltpFR2	7	4	COD	340	n/a	n/a	0	0	0
948.624	n/a	WORD	474312	wordpools/wasnorm_wordpool_576.txt	LTP285	ltpFR2	7	4	STREAM	1392	n/a	n/a	0	0	0
951.252	n/a	WORD	475626	wordpools/wasnorm_wordpool_576.txt	LTP285	ltpFR2	7	4	ATLAS	53	n/a	n/a	0	0	0
953.866	n/a	WORD	476933	wordpools/wasnorm_wordpool_576.txt	LTP285	ltpFR2	7	4	MARROW	872	n/a	n/a	0	0	0
956.312	n/a	WORD	478156	wordpools/wasnorm_wordpool_576.txt	LTP285	ltpFR2	7	4	COLLEGE	346	n/a	n/a	0	0	0
958.842	n/a	WORD	479421	wordpools/wasnorm_wordpool_576.txt	LTP285	ltpFR2	7	4	RECEIPT	1173	n/a	n/a	0	0	0
961.454	n/a	WORD	480727	wordpools/wasnorm_wordpool_576.txt	LTP285	ltpFR2	7	4	MONEY	908	n/a	n/a	0	0	0
964.1	n/a	WORD	482050	wordpools/wasnorm_wordpool_576.txt	LTP285	ltpFR2	7	4	LAPEL	800	n/a	n/a	0	0	0
966.814	n/a	WORD	483407	wordpools/wasnorm_wordpool_576.txt	LTP285	ltpFR2	7	4	TUBA	1515	n/a	n/a	0	0	0
969.444	n/a	WORD	484722	wordpools/wasnorm_wordpool_576.txt	LTP285	ltpFR2	7	4	CUSTARD	429	n/a	n/a	0	0	0
972.122	n/a	WORD	486061	wordpools/wasnorm_wordpool_576.txt	LTP285	ltpFR2	7	4	BUCKET	184	n/a	n/a	0	0	0
974.636	n/a	WORD	487318	wordpools/wasnorm_wordpool_576.txt	LTP285	ltpFR2	7	4	INMATE	738	n/a	n/a	0	0	0
977.414	n/a	WORD	488707	wordpools/wasnorm_wordpool_576.txt	LTP285	ltpFR2	7	4	WHISTLE	1606	n/a	n/a	0	0	0
979.878	n/a	WORD	489939	wordpools/wasnorm_wordpool_576.txt	LTP285	ltpFR2	7	4	FRECKLE	602	n/a	n/a	0	0	0
982.69	n/a	WORD	491345	wordpools/wasnorm_wordpool_576.txt	LTP285	ltpFR2	7	4	MESSAGE	888	n/a	n/a	0	0	0
985.354	n/a	WORD	492677	wordpools/wasnorm_wordpool_576.txt	LTP285	ltpFR2	7	4	THRONE	1461	n/a	n/a	0	0	0
987.816	n/a	WORD	493908	wordpools/wasnorm_wordpool_576.txt	LTP285	ltpFR2	7	4	PICNIC	1060	n/a	n/a	0	0	0
990.262	n/a	WORD	495131	wordpools/wasnorm_wordpool_576.txt	LTP285	ltpFR2	7	4	COURSE	390	n/a	n/a	0	0	0
992.91	n/a	WORD	496455	wordpools/wasnorm_wordpool_576.txt	LTP285	ltpFR2	7	4	SWAMP	1416	n/a	n/a	0	0	0
994.522	n/a	START	497261	n/a	LTP285	ltpFR2	7	n/a	n/a	n/a	5	n/a	n/a	n/a	n/a
995.676	n/a	DISTRACTOR	497838	n/a	LTP285	ltpFR2	7	4	n/a	n/a	n/a	n/a	0	0	0
995.688	n/a	PROB	497844	n/a	LTP285	ltpFR2	7	n/a	n/a	n/a	5	17	2	6	9
997.768	n/a	PROB	498884	n/a	LTP285	ltpFR2	7	n/a	n/a	n/a	5	24	6	8	8
999.432	n/a	PROB	499716	n/a	LTP285	ltpFR2	7	n/a	n/a	n/a	5	13	8	4	1
1001.062	n/a	PROB	500531	n/a	LTP285	ltpFR2	7	n/a	n/a	n/a	5	21	5	7	9
1003.642	n/a	PROB	501821	n/a	LTP285	ltpFR2	7	n/a	n/a	n/a	5	9	4	1	4
1004.724	n/a	PROB	502362	n/a	LTP285	ltpFR2	7	n/a	n/a	n/a	5	14	8	4	2
1006.088	n/a	PROB	503044	n/a	LTP285	ltpFR2	7	n/a	n/a	n/a	5	13	4	6	3
1007.22	n/a	PROB	503610	n/a	LTP285	ltpFR2	7	n/a	n/a	n/a	5	13	6	4	3
1008.17	n/a	PROB	504085	n/a	LTP285	ltpFR2	7	n/a	n/a	n/a	5	19	8	2	9
1009.566	n/a	PROB	504783	n/a	LTP285	ltpFR2	7	n/a	n/a	n/a	5	16	7	8	1
1010.816	n/a	PROB	505408	n/a	LTP285	ltpFR2	7	n/a	n/a	n/a	5	15	9	1	5
1011.714	n/a	PROB	505857	n/a	LTP285	ltpFR2	7	n/a	n/a	n/a	5	23	8	6	7
1013.76	n/a	PROB	506880	n/a	LTP285	ltpFR2	7	n/a	n/a	n/a	5	12	7	4	1
1014.81	n/a	PROB	507405	n/a	LTP285	ltpFR2	7	n/a	n/a	n/a	5	17	8	2	7
1016.374	n/a	PROB	508187	n/a	LTP285	ltpFR2	7	n/a	n/a	n/a	5	8	3	1	5
1017.276	n/a	STOP	508638	n/a	LTP285	ltpFR2	7	n/a	n/a	n/a	5	n/a	n/a	n/a	n/a
1020.334	n/a	REC_START	510167	n/a	LTP285	ltpFR2	7	4	n/a	n/a	n/a	n/a	0	0	0
1024.018	n/a	REC_WORD	512009	wordpools/wasnorm_wordpool_576.txt	LTP285	ltpFR2	7	4	SWAMP	1416	n/a	n/a	0	0	0
1027.292	n/a	REC_WORD	513646	wordpools/wasnorm_wordpool_576.txt	LTP285	ltpFR2	7	4	MARROW	872	n/a	n/a	0	0	0
1029.84	n/a	REC_WORD	514920	wordpools/wasnorm_wordpool_576.txt	LTP285	ltpFR2	7	4	BUCKET	184	n/a	n/a	0	0	0
1034.182	n/a	REC_WORD	517091	wordpools/wasnorm_wordpool_576.txt	LTP285	ltpFR2	7	4	THRONE	1461	n/a	n/a	0	0	0
1035.752	n/a	REC_WORD	517876	wordpools/wasnorm_wordpool_576.txt	LTP285	ltpFR2	7	4	TUBA	1515	n/a	n/a	0	0	0
1042.174	n/a	REC_WORD	521087	wordpools/wasnorm_wordpool_576.txt	LTP285	ltpFR2	7	4	PICNIC	1060	n/a	n/a	0	0	0
1048.568	n/a	REC_WORD	524284	wordpools/wasnorm_wordpool_576.txt	LTP285	ltpFR2	7	4	GRAVE	658	n/a	n/a	0	0	0
1053.104	n/a	REC_WORD	526552	wordpools/wasnorm_wordpool_576.txt	LTP285	ltpFR2	7	4	WASP	1593	n/a	n/a	0	0	0
1059.8	n/a	REC_WORD	529900	wordpools/wasnorm_wordpool_576.txt	LTP285	ltpFR2	7	4	CEILING	265	n/a	n/a	0	0	0
1071.986	n/a	REC_WORD	535993	wordpools/wasnorm_wordpool_576.txt	LTP285	ltpFR2	7	4	ATLAS	53	n/a	n/a	0	0	0
1081.714	n/a	REC_WORD	540857	wordpools/wasnorm_wordpool_576.txt	LTP285	ltpFR2	7	4	RECEIPT	1173	n/a	n/a	0	0	0
1082.978	n/a	REC_WORD	541489	wordpools/wasnorm_wordpool_576.txt	LTP285	ltpFR2	7	4	MONEY	908	n/a	n/a	0	0	0
1091.284	n/a	REC_WORD	545642	wordpools/wasnorm_wordpool_576.txt	LTP285	ltpFR2	7	4	CUSTARD	429	n/a	n/a	0	0	0
1110.984	n/a	DISTRACTOR	555492	n/a	LTP285	ltpFR2	7	5	n/a	n/a	n/a	n/a	0	0	0
1110.984	n/a	START	555492	n/a	LTP285	ltpFR2	7	n/a	n/a	n/a	6	n/a	n/a	n/a	n/a
1111.018	n/a	PROB	555509	n/a	LTP285	ltpFR2	7	n/a	n/a	n/a	6	16	4	3	9
1112.398	n/a	PROB	556199	n/a	LTP285	ltpFR2	7	n/a	n/a	n/a	6	15	7	6	2
1114.71	n/a	PROB	557355	n/a	LTP285	ltpFR2	7	n/a	n/a	n/a	6	10	5	4	1
1115.894	n/a	PROB	557947	n/a	LTP285	ltpFR2	7	n/a	n/a	n/a	6	22	6	7	9
1117.756	n/a	PROB	558878	n/a	LTP285	ltpFR2	7	n/a	n/a	n/a	6	16	6	7	3
1119.72	n/a	PROB	559860	n/a	LTP285	ltpFR2	7	n/a	n/a	n/a	6	14	6	3	5
1121.284	n/a	PROB	560642	n/a	LTP285	ltpFR2	7	n/a	n/a	n/a	6	27	9	8	8
1123.248	n/a	PROB	561624	n/a	LTP285	ltpFR2	7	n/a	n/a	n/a	6	23	8	8	7
1124.796	n/a	PROB	562398	n/a	LTP285	ltpFR2	7	n/a	n/a	n/a	6	14	3	8	3
1126.244	n/a	PROB	563122	n/a	LTP285	ltpFR2	7	n/a	n/a	n/a	6	16	9	4	3
1127.642	n/a	PROB	563821	n/a	LTP285	ltpFR2	7	n/a	n/a	n/a	6	5	1	1	3
1128.84	n/a	PROB	564420	n/a	LTP285	ltpFR2	7	n/a	n/a	n/a	6	15	7	3	5
1129.924	n/a	PROB	564962	n/a	LTP285	ltpFR2	7	n/a	n/a	n/a	6	17	6	4	7
1131.054	n/a	PROB	565527	n/a	LTP285	ltpFR2	7	n/a	n/a	n/a	6	17	7	8	2
1132.436	n/a	PROB	566218	n/a	LTP285	ltpFR2	7	n/a	n/a	n/a	6	14	5	3	6
1133.88	n/a	STOP	566940	n/a	LTP285	ltpFR2	7	n/a	n/a	n/a	6	n/a	n/a	n/a	n/a
1135.83	n/a	WORD	567915	wordpools/wasnorm_wordpool_576.txt	LTP285	ltpFR2	7	5	BANK	83	n/a	n/a	0	0	0
1138.56	n/a	WORD	569280	wordpools/wasnorm_wordpool_576.txt	LTP285	ltpFR2	7	5	PASTA	1021	n/a	n/a	0	0	0
1141.106	n/a	WORD	570553	wordpools/wasnorm_wordpool_576.txt	LTP285	ltpFR2	7	5	DRILL	497	n/a	n/a	0	0	0
1143.92	n/a	WORD	571960	wordpools/wasnorm_wordpool_576.txt	LTP285	ltpFR2	7	5	BLACKBOARD	133	n/a	n/a	0	0	0
1146.548	n/a	WORD	573274	wordpools/wasnorm_wordpool_576.txt	LTP285	ltpFR2	7	5	SPOOL	1356	n/a	n/a	0	0	0
1149.194	n/a	WORD	574597	wordpools/wasnorm_wordpool_576.txt	LTP285	ltpFR2	7	5	BRAKE	166	n/a	n/a	0	0	0
1151.74	n/a	WORD	575870	wordpools/wasnorm_wordpool_576.txt	LTP285	ltpFR2	7	5	GALLON	618	n/a	n/a	0	0	0
1154.22	n/a	WORD	577110	wordpools/wasnorm_wordpool_576.txt	LTP285	ltpFR2	7	5	PRIMATE	1123	n/a	n/a	0	0	0
1156.7	n/a	WORD	578350	wordpools/wasnorm_wordpool_576.txt	LTP285	ltpFR2	7	5	SOFTBALL	1343	n/a	n/a	0	0	0
1159.262	n/a	WORD	579631	wordpools/wasnorm_wordpool_576.txt	LTP285	ltpFR2	7	5	FOOTBALL	591	n/a	n/a	0	0	0
1161.824	n/a	WORD	580912	wordpools/wasnorm_wordpool_576.txt	LTP285	ltpFR2	7	5	CHEST	295	n/a	n/a	0	0	0
1164.538	n/a	WORD	582269	wordpools/wasnorm_wordpool_576.txt	LTP285	ltpFR2	7	5	GIRL	637	n/a	n/a	0	0	0
1167.018	n/a	WORD	583509	wordpools/wasnorm_wordpool_576.txt	LTP285	ltpFR2	7	5	BOARD	143	n/a	n/a	0	0	0
1169.68	n/a	WORD	584840	wordpools/wasnorm_wordpool_576.txt	LTP285	ltpFR2	7	5	EXPERT	543	n/a	n/a	0	0	0
1172.392	n/a	WORD	586196	wordpools/wasnorm_wordpool_576.txt	LTP285	ltpFR2	7	5	WRENCH	1625	n/a	n/a	0	0	0
1174.89	n/a	WORD	587445	wordpools/wasnorm_wordpool_576.txt	LTP285	ltpFR2	7	5	FRIEND	606	n/a	n/a	0	0	0
1177.518	n/a	WORD	588759	wordpools/wasnorm_wordpool_576.txt	LTP285	ltpFR2	7	5	SCULPTURE	1258	n/a	n/a	0	0	0
1180.032	n/a	WORD	590016	wordpools/wasnorm_wordpool_576.txt	LTP285	ltpFR2	7	5	DRAWING	494	n/a	n/a	0	0	0
1182.76	n/a	WORD	591380	wordpools/wasnorm_wordpool_576.txt	LTP285	ltpFR2	7	5	GYMNAST	675	n/a	n/a	0	0	0
1185.374	n/a	WORD	592687	wordpools/wasnorm_wordpool_576.txt	LTP285	ltpFR2	7	5	TUTU	1524	n/a	n/a	0	0	0
1188.07	n/a	WORD	594035	wordpools/wasnorm_wordpool_576.txt	LTP285	ltpFR2	7	5	CHAMPAGNE	278	n/a	n/a	0	0	0
1190.816	n/a	WORD	595408	wordpools/wasnorm_wordpool_576.txt	LTP285	ltpFR2	7	5	BUBBLE	183	n/a	n/a	0	0	0
1193.278	n/a	WORD	596639	wordpools/wasnorm_wordpool_576.txt	LTP285	ltpFR2	7	5	PEPPER	1047	n/a	n/a	0	0	0
1196.008	n/a	WORD	598004	wordpools/wasnorm_wordpool_576.txt	LTP285	ltpFR2	7	5	SWORD	1423	n/a	n/a	0	0	0
1197.622	n/a	START	598811	n/a	LTP285	ltpFR2	7	n/a	n/a	n/a	7	n/a	n/a	n/a	n/a
1198.758	n/a	DISTRACTOR	599379	n/a	LTP285	ltpFR2	7	5	n/a	n/a	n/a	n/a	0	0	0
1198.77	n/a	PROB	599385	n/a	LTP285	ltpFR2	7	n/a	n/a	n/a	7	20	9	9	2
1200.418	n/a	PROB	600209	n/a	LTP285	ltpFR2	7	n/a	n/a	n/a	7	15	7	4	4
1201.832	n/a	PROB	600916	n/a	LTP285	ltpFR2	7	n/a	n/a	n/a	7	18	1	9	8
1202.898	n/a	PROB	601449	n/a	LTP285	ltpFR2	7	n/a	n/a	n/a	7	22	8	6	8
1204.462	n/a	PROB	602231	n/a	LTP285	ltpFR2	7	n/a	n/a	n/a	7	13	4	1	8
1205.844	n/a	PROB	602922	n/a	LTP285	ltpFR2	7	n/a	n/a	n/a	7	14	4	8	2
1206.876	n/a	PROB	603438	n/a	LTP285	ltpFR2	7	n/a	n/a	n/a	7	20	9	3	8
1210.586	n/a	PROB	605293	n/a	LTP285	ltpFR2	7	n/a	n/a	n/a	7	9	1	4	4
1211.602	n/a	PROB	605801	n/a	LTP285	ltpFR2	7	n/a	n/a	n/a	7	20	6	9	5
1213.598	n/a	PROB	606799	n/a	LTP285	ltpFR2	7	n/a	n/a	n/a	7	10	1	3	6
1214.68	n/a	PROB	607340	n/a	LTP285	ltpFR2	7	n/a	n/a	n/a	7	18	7	8	3
1215.996	n/a	PROB	607998	n/a	LTP285	ltpFR2	7	n/a	n/a	n/a	7	15	7	2	6
1217.792	n/a	PROB	608896	n/a	LTP285	ltpFR2	7	n/a	n/a	n/a	7	23	5	9	9
1221.622	n/a	STOP	610811	n/a	LTP285	ltpFR2	7	n/a	n/a	n/a	7	n/a	n/a	n/a	n/a
1223.402	n/a	REC_START	611701	n/a	LTP285	ltpFR2	7	5	n/a	n/a	n/a	n/a	0	0	0
1224.088	n/a	REC_WORD	612044	wordpools/wasnorm_wordpool_576.txt	LTP285	ltpFR2	7	5	SCULPTURE	1258	n/a	n/a	0	0	0
1225.484	n/a	REC_WORD	612742	wordpools/wasnorm_wordpool_576.txt	LTP285	ltpFR2	7	5	PAINTER	1004	n/a	n/a	0	0	0
1226.762	n/a	REC_WORD	613381	wordpools/wasnorm_wordpool_576.txt	LTP285	ltpFR2	7	5	WRENCH	1625	n/a	n/a	0	0	0
1228.01	n/a	REC_WORD	614005	wordpools/wasnorm_wordpool_576.txt	LTP285	ltpFR2	7	5	DRILL	497	n/a	n/a	0	0	0
1233.774	n/a	REC_WORD	616887	wordpools/wasnorm_wordpool_576.txt	LTP285	ltpFR2	7	5	GYMNAST	675	n/a	n/a	0	0	0
1235.146	n/a	REC_WORD	617573	wordpools/wasnorm_wordpool_576.txt	LTP285	ltpFR2	7	5	TUTU	1524	n/a	n/a	0	0	0
1259.53	n/a	REC_WORD	629765	wordpools/wasnorm_wordpool_576.txt	LTP285	ltpFR2	7	5	BOARD	143	n/a	n/a	0	0	0
1260.96	n/a	REC_WORD	630480	wordpools/wasnorm_wordpool_576.txt	LTP285	ltpFR2	7	5	DASHBOARD	441	n/a	n/a	0	0	0
1270.934	n/a	REC_WORD	635467	wordpools/wasnorm_wordpool_576.txt	LTP285	ltpFR2	7	5	SOFTBALL	1343	n/a	n/a	0	0	0
1272.204	n/a	REC_WORD	636102	wordpools/wasnorm_wordpool_576.txt	LTP285	ltpFR2	7	5	FOOTBALL	591	n/a	n/a	0	0	0
1273.794	n/a	REC_WORD	636897	wordpools/wasnorm_wordpool_576.txt	LTP285	ltpFR2	7	5	CHAMPAGNE	278	n/a	n/a	0	0	0
1275.204	n/a	REC_WORD	637602	wordpools/wasnorm_wordpool_576.txt	LTP285	ltpFR2	7	5	BUBBLE	183	n/a	n/a	0	0	0
1314.066	n/a	WORD	657033	wordpools/wasnorm_wordpool_576.txt	LTP285	ltpFR2	7	6	TRIBE	1505	n/a	n/a	0	0	0
1316.63	n/a	WORD	658315	wordpools/wasnorm_wordpool_576.txt	LTP285	ltpFR2	7	6	VIKING	1565	n/a	n/a	0	0	0
1319.126	n/a	WORD	659563	wordpools/wasnorm_wordpool_576.txt	LTP285	ltpFR2	7	6	ARM	38	n/a	n/a	0	0	0
1321.922	n/a	WORD	660961	wordpools/wasnorm_wordpool_576.txt	LTP285	ltpFR2	7	6	ANKLE	24	n/a	n/a	0	0	0
1324.534	n/a	WORD	662267	wordpools/wasnorm_wordpool_576.txt	LTP285	ltpFR2	7	6	FUNGUS	614	n/a	n/a	0	0	0
1327.146	n/a	WORD	663573	wordpools/wasnorm_wordpool_576.txt	LTP285	ltpFR2	7	6	PRINCESS	1125	n/a	n/a	0	0	0
1329.61	n/a	WORD	664805	wordpools/wasnorm_wordpool_576.txt	LTP285	ltpFR2	7	6	HEDGE	699	n/a	n/a	0	0	0
1332.24	n/a	WORD	666120	wordpools/wasnorm_wordpool_576.txt	LTP285	ltpFR2	7	6	CRAYON	401	n/a	n/a	0	0	0
1334.87	n/a	WORD	667435	wordpools/wasnorm_wordpool_576.txt	LTP285	ltpFR2	7	6	AWARD	63	n/a	n/a	0	0	0
1337.664	n/a	WORD	668832	wordpools/wasnorm_wordpool_576.txt	LTP285	ltpFR2	7	6	PARROT	1015	n/a	n/a	0	0	0
1340.244	n/a	WORD	670122	wordpools/wasnorm_wordpool_576.txt	LTP285	ltpFR2	7	6	CLOCK	325	n/a	n/a	0	0	0
1342.79	n/a	WORD	671395	wordpools/wasnorm_wordpool_576.txt	LTP285	ltpFR2	7	6	MATCH	878	n/a	n/a	0	0	0
1345.502	n/a	WORD	672751	wordpools/wasnorm_wordpool_576.txt	LTP285	ltpFR2	7	6	FIREMAN	569	n/a	n/a	0	0	0
1347.984	n/a	WORD	673992	wordpools/wasnorm_wordpool_576.txt	LTP285	ltpFR2	7	6	FEMALE	559	n/a	n/a	0	0	0
1350.694	n/a	WORD	675347	wordpools/wasnorm_wordpool_576.txt	LTP285	ltpFR2	7	6	COWBOY	395	n/a	n/a	0	0	0
1353.208	n/a	WORD	676604	wordpools/wasnorm_wordpool_576.txt	LTP285	ltpFR2	7	6	CANYON	235	n/a	n/a	0	0	0
1355.704	n/a	WORD	677852	wordpools/wasnorm_wordpool_576.txt	LTP285	ltpFR2	7	6	FLAG	573	n/a	n/a	0	0	0
1358.266	n/a	WORD	679133	wordpools/wasnorm_wordpool_576.txt	LTP285	ltpFR2	7	6	MISSILE	900	n/a	n/a	0	0	0
1360.796	n/a	WORD	680398	wordpools/wasnorm_wordpool_576.txt	LTP285	ltpFR2	7	6	PICTURE	1061	n/a	n/a	0	0	0
1363.426	n/a	WORD	681713	wordpools/wasnorm_wordpool_576.txt	LTP285	ltpFR2	7	6	LIZARD	834	n/a	n/a	0	0	0
1365.974	n/a	WORD	682987	wordpools/wasnorm_wordpool_576.txt	LTP285	ltpFR2	7	6	OZONE	996	n/a	n/a	0	0	0
1368.752	n/a	WORD	684376	wordpools/wasnorm_wordpool_576.txt	LTP285	ltpFR2	7	6	PIGMENT	1066	n/a	n/a	0	0	0
1371.414	n/a	WORD	685707	wordpools/wasnorm_wordpool_576.txt	LTP285	ltpFR2	7	6	RECORD	1176	n/a	n/a	0	0	0
1374.144	n/a	WORD	687072	wordpools/wasnorm_wordpool_576.txt	LTP285	ltpFR2	7	6	CLAM	315	n/a	n/a	0	0	0
1375.758	n/a	START	687879	n/a	LTP285	ltpFR2	7	n/a	n/a	n/a	8	n/a	n/a	n/a	n/a
1376.636	n/a	DISTRACTOR	688318	n/a	LTP285	ltpFR2	7	6	n/a	n/a	n/a	n/a	0	0	0
1376.64	n/a	PROB	688320	n/a	LTP285	ltpFR2	7	n/a	n/a	n/a	8	15	9	4	4
1377.972	n/a	PROB	688986	n/a	LTP285	ltpFR2	7	n/a	n/a	n/a	8	15	4	8	3
1379.702	n/a	PROB	689851	n/a	LTP285	ltpFR2	7	n/a	n/a	n/a	8	15	2	9	4
1381.682	n/a	PROB	690841	n/a	LTP285	ltpFR2	7	n/a	n/a	n/a	8	4	1	1	2
1382.966	n/a	PROB	691483	n/a	LTP285	ltpFR2	7	n/a	n/a	n/a	8	12	6	3	3
1384.13	n/a	PROB	692065	n/a	LTP285	ltpFR2	7	n/a	n/a	n/a	8	11	3	2	6
1385.31	n/a	PROB	692655	n/a	LTP285	ltpFR2	7	n/a	n/a	n/a	8	6	3	1	2
1386.36	n/a	PROB	693180	n/a	LTP285	ltpFR2	7	n/a	n/a	n/a	8	13	2	9	2
1388.456	n/a	PROB	694228	n/a	LTP285	ltpFR2	7	n/a	n/a	n/a	8	10	4	3	3
1389.704	n/a	PROB	694852	n/a	LTP285	ltpFR2	7	n/a	n/a	n/a	8	14	3	7	4
1390.686	n/a	PROB	695343	n/a	LTP285	ltpFR2	7	n/a	n/a	n/a	8	17	7	7	3
1391.902	n/a	PROB	695951	n/a	LTP285	ltpFR2	7	n/a	n/a	n/a	8	11	1	5	5
1392.816	n/a	PROB	696408	n/a	LTP285	ltpFR2	7	n/a	n/a	n/a	8	9	1	7	1
1393.966	n/a	PROB	696983	n/a	LTP285	ltpFR2	7	n/a	n/a	n/a	8	16	1	7	8
1395.28	n/a	PROB	697640	n/a	LTP285	ltpFR2	7	n/a	n/a	n/a	8	13	6	5	2
1396.81	n/a	PROB	698405	n/a	LTP285	ltpFR2	7	n/a	n/a	n/a	8	12	1	9	2
1397.808	n/a	PROB	698904	n/a	LTP285	ltpFR2	7	n/a	n/a	n/a	8	13	6	1	6
1398.754	n/a	STOP	699377	n/a	LTP285	ltpFR2	7	n/a	n/a	n/a	8	n/a	n/a	n/a	n/a
1401.654	n/a	REC_START	700827	n/a	LTP285	ltpFR2	7	6	n/a	n/a	n/a	n/a	0	0	0
1402.712	n/a	REC_WORD	701356	wordpools/wasnorm_wordpool_576.txt	LTP285	ltpFR2	7	6	LIZARD	834	n/a	n/a	0	0	0
1403.716	n/a	REC_WORD	701858	wordpools/wasnorm_wordpool_576.txt	LTP285	ltpFR2	7	6	CLAM	315	n/a	n/a	0	0	0
1405.162	n/a	REC_WORD	702581	wordpools/wasnorm_wordpool_576.txt	LTP285	ltpFR2	7	6	PIGMENT	1066	n/a	n/a	0	0	0
1407.24	n/a	REC_WORD	703620	wordpools/wasnorm_wordpool_576.txt	LTP285	ltpFR2	7	6	FLAG	573	n/a	n/a	0	0	0
1408.766	n/a	REC_WORD	704383	wordpools/wasnorm_wordpool_576.txt	LTP285	ltpFR2	7	6	CANYON	235	n/a	n/a	0	0	0
1410.048	n/a	REC_WORD	705024	wordpools/wasnorm_wordpool_576.txt	LTP285	ltpFR2	7	6	CRAYON	401	n/a	n/a	0	0	0
1414.264	n/a	REC_WORD	707132	wordpools/wasnorm_wordpool_576.txt	LTP285	ltpFR2	7	6	FIREMAN	569	n/a	n/a	0	0	0
1415.99	n/a	REC_WORD	707995	wordpools/wasnorm_wordpool_576.txt	LTP285	ltpFR2	7	6	FEMALE	559	n/a	n/a	0	0	0
1417.306	n/a	REC_WORD	708653	wordpools/wasnorm_wordpool_576.txt	LTP285	ltpFR2	7	6	COWBOY	395	n/a	n/a	0	0	0
1424.286	n/a	REC_WORD	712143	wordpools/wasnorm_wordpool_576.txt	LTP285	ltpFR2	7	6	MATCH	878	n/a	n/a	0	0	0
1427.488	n/a	REC_WORD	713744	wordpools/wasnorm_wordpool_576.txt	LTP285	ltpFR2	7	6	TRIBE	1505	n/a	n/a	0	0	0
1428.684	n/a	REC_WORD	714342	wordpools/wasnorm_wordpool_576.txt	LTP285	ltpFR2	7	6	VIKING	1565	n/a	n/a	0	0	0
1447.486	n/a	REC_WORD	723743	wordpools/wasnorm_wordpool_576.txt	LTP285	ltpFR2	7	6	PADDLE	1000	n/a	n/a	0	0	0
1470.238	n/a	REC_WORD	735119	wordpools/wasnorm_wordpool_576.txt	LTP285	ltpFR2	7	6	OZONE	996	n/a	n/a	0	0	0
1492.302	n/a	DISTRACTOR	746151	n/a	LTP285	ltpFR2	7	7	n/a	n/a	n/a	n/a	0	0	0
1492.302	n/a	START	746151	n/a	LTP285	ltpFR2	7	n/a	n/a	n/a	9	n/a	n/a	n/a	n/a
1492.336	n/a	PROB	746168	n/a	LTP285	ltpFR2	7	n/a	n/a	n/a	9	13	6	1	6
1493.4	n/a	PROB	746700	n/a	LTP285	ltpFR2	7	n/a	n/a	n/a	9	20	5	8	7
1495.598	n/a	PROB	747799	n/a	LTP285	ltpFR2	7	n/a	n/a	n/a	9	23	8	9	6
1497.944	n/a	PROB	748972	n/a	LTP285	ltpFR2	7	n/a	n/a	n/a	9	17	7	6	4
1499.742	n/a	PROB	749871	n/a	LTP285	ltpFR2	7	n/a	n/a	n/a	9	22	5	9	8
1502.888	n/a	PROB	751444	n/a	LTP285	ltpFR2	7	n/a	n/a	n/a	9	9	1	7	1
1504.068	n/a	PROB	752034	n/a	LTP285	ltpFR2	7	n/a	n/a	n/a	9	19	5	5	9
1505.084	n/a	PROB	752542	n/a	LTP285	ltpFR2	7	n/a	n/a	n/a	9	15	6	3	6
1506.948	n/a	PROB	753474	n/a	LTP285	ltpFR2	7	n/a	n/a	n/a	9	10	2	7	1
1508.728	n/a	PROB	754364	n/a	LTP285	ltpFR2	7	n/a	n/a	n/a	9	7	2	2	3
1509.96	n/a	PROB	754980	n/a	LTP285	ltpFR2	7	n/a	n/a	n/a	9	5	1	3	1
1510.942	n/a	PROB	755471	n/a	LTP285	ltpFR2	7	n/a	n/a	n/a	9	16	4	3	9
1512.356	n/a	PROB	756178	n/a	LTP285	ltpFR2	7	n/a	n/a	n/a	9	19	5	8	6
1514.536	n/a	PROB	757268	n/a	LTP285	ltpFR2	7	n/a	n/a	n/a	9	6	3	2	1
1515.378	n/a	STOP	757689	n/a	LTP285	ltpFR2	7	n/a	n/a	n/a	9	n/a	n/a	n/a	n/a
1517.248	n/a	WORD	758624	wordpools/wasnorm_wordpool_576.txt	LTP285	ltpFR2	7	7	VENUS	1557	n/a	n/a	0	0	0
1519.844	n/a	WORD	759922	wordpools/wasnorm_wordpool_576.txt	LTP285	ltpFR2	7	7	HELMET	702	n/a	n/a	0	0	0
1522.308	n/a	WORD	761154	wordpools/wasnorm_wordpool_576.txt	LTP285	ltpFR2	7	7	PEDAL	1037	n/a	n/a	0	0	0
1524.772	n/a	WORD	762386	wordpools/wasnorm_wordpool_576.txt	LTP285	ltpFR2	7	7	HEADBAND	696	n/a	n/a	0	0	0
1527.434	n/a	WORD	763717	wordpools/wasnorm_wordpool_576.txt	LTP285	ltpFR2	7	7	BEEF	113	n/a	n/a	0	0	0
1530.214	n/a	WORD	765107	wordpools/wasnorm_wordpool_576.txt	LTP285	ltpFR2	7	7	GREASE	660	n/a	n/a	0	0	0
1532.792	n/a	WORD	766396	wordpools/wasnorm_wordpool_576.txt	LTP285	ltpFR2	7	7	FLASK	576	n/a	n/a	0	0	0
1535.422	n/a	WORD	767711	wordpools/wasnorm_wordpool_576.txt	LTP285	ltpFR2	7	7	POSTAGE	1113	n/a	n/a	0	0	0
1537.986	n/a	WORD	768993	wordpools/wasnorm_wordpool_576.txt	LTP285	ltpFR2	7	7	SEAL	1262	n/a	n/a	0	0	0
1540.564	n/a	WORD	770282	wordpools/wasnorm_wordpool_576.txt	LTP285	ltpFR2	7	7	SALAD	1224	n/a	n/a	0	0	0
1542.996	n/a	WORD	771498	wordpools/wasnorm_wordpool_576.txt	LTP285	ltpFR2	7	7	BACON	67	n/a	n/a	0	0	0
1545.674	n/a	WORD	772837	wordpools/wasnorm_wordpool_576.txt	LTP285	ltpFR2	7	7	CATTLE	261	n/a	n/a	0	0	0
1548.452	n/a	WORD	774226	wordpools/wasnorm_wordpool_576.txt	LTP285	ltpFR2	7	7	LODGE	839	n/a	n/a	0	0	0
1551.132	n/a	WORD	775566	wordpools/wasnorm_wordpool_576.txt	LTP285	ltpFR2	7	7	KETCHUP	771	n/a	n/a	0	0	0
1553.928	n/a	WORD	776964	wordpools/wasnorm_wordpool_576.txt	LTP285	ltpFR2	7	7	BUREAU	199	n/a	n/a	0	0	0
1556.574	n/a	WORD	778287	wordpools/wasnorm_wordpool_576.txt	LTP285	ltpFR2	7	7	VALVE	1546	n/a	n/a	0	0	0
1559.036	n/a	WORD	779518	wordpools/wasnorm_wordpool_576.txt	LTP285	ltpFR2	7	7	BEAKER	104	n/a	n/a	0	0	0
1561.534	n/a	WORD	780767	wordpools/wasnorm_wordpool_576.txt	LTP285	ltpFR2	7	7	POSSUM	1112	n/a	n/a	0	0	0
1564.096	n/a	WORD	782048	wordpools/wasnorm_wordpool_576.txt	LTP285	ltpFR2	7	7	WORLD	1622	n/a	n/a	0	0	0
1566.826	n/a	WORD	783413	wordpools/wasnorm_wordpool_576.txt	LTP285	ltpFR2	7	7	SPIDER	1351	n/a	n/a	0	0	0
1569.304	n/a	WORD	784652	wordpools/wasnorm_wordpool_576.txt	LTP285	ltpFR2	7	7	CONTRACT	368	n/a	n/a	0	0	0
1572.002	n/a	WORD	786001	wordpools/wasnorm_wordpool_576.txt	LTP285	ltpFR2	7	7	CASHIER	254	n/a	n/a	0	0	0
1574.73	n/a	WORD	787365	wordpools/wasnorm_wordpool_576.txt	LTP285	ltpFR2	7	7	SUITCASE	1403	n/a	n/a	0	0	0
1577.21	n/a	WORD	788605	wordpools/wasnorm_wordpool_576.txt	LTP285	ltpFR2	7	7	ARMY	39	n/a	n/a	0	0	0
1578.824	n/a	START	789412	n/a	LTP285	ltpFR2	7	n/a	n/a	n/a	10	n/a	n/a	n/a	n/a
1579.896	n/a	DISTRACTOR	789948	n/a	LTP285	ltpFR2	7	7	n/a	n/a	n/a	n/a	0	0	0
1579.906	n/a	PROB	789953	n/a	LTP285	ltpFR2	7	n/a	n/a	n/a	10	11	9	1	1
1582.07	n/a	PROB	791035	n/a	LTP285	ltpFR2	7	n/a	n/a	n/a	10	19	9	1	9
1583.566	n/a	PROB	791783	n/a	LTP285	ltpFR2	7	n/a	n/a	n/a	10	19	4	6	9
1584.648	n/a	PROB	792324	n/a	LTP285	ltpFR2	7	n/a	n/a	n/a	10	8	2	5	1
1586.762	n/a	PROB	793381	n/a	LTP285	ltpFR2	7	n/a	n/a	n/a	10	16	6	7	3
1588.012	n/a	PROB	794006	n/a	LTP285	ltpFR2	7	n/a	n/a	n/a	10	17	5	7	5
1589.092	n/a	PROB	794546	n/a	LTP285	ltpFR2	7	n/a	n/a	n/a	10	14	7	2	5
1590.624	n/a	PROB	795312	n/a	LTP285	ltpFR2	7	n/a	n/a	n/a	10	20	8	7	5
1592.104	n/a	PROB	796052	n/a	LTP285	ltpFR2	7	n/a	n/a	n/a	10	18	2	8	8
1593.186	n/a	PROB	796593	n/a	LTP285	ltpFR2	7	n/a	n/a	n/a	10	20	8	8	4
1595.432	n/a	PROB	797716	n/a	LTP285	ltpFR2	7	n/a	n/a	n/a	10	6	3	2	1
1596.298	n/a	PROB	798149	n/a	LTP285	ltpFR2	7	n/a	n/a	n/a	10	14	3	9	2
1597.996	n/a	PROB	798998	n/a	LTP285	ltpFR2	7	n/a	n/a	n/a	10	15	2	7	4
1599.376	n/a	PROB	799688	n/a	LTP285	ltpFR2	7	n/a	n/a	n/a	10	16	9	5	2
1601.316	n/a	STOP	800658	n/a	LTP285	ltpFR2	7	n/a	n/a	n/a	10	n/a	n/a	n/a	n/a
1604.72	n/a	REC_START	802360	n/a	LTP285	ltpFR2	7	7	n/a	n/a	n/a	n/a	0	0	0
1605.99	n/a	REC_WORD	802995	wordpools/wasnorm_wordpool_576.txt	LTP285	ltpFR2	7	7	POSTAGE	1113	n/a	n/a	0	0	0
1606.972	n/a	REC_WORD	803486	wordpools/wasnorm_wordpool_576.txt	LTP285	ltpFR2	7	7	BUREAU	199	n/a	n/a	0	0	0
1607.948	n/a	REC_WORD	803974	wordpools/wasnorm_wordpool_576.txt	LTP285	ltpFR2	7	7	SUITCASE	1403	n/a	n/a	0	0	0
1609.232	n/a	REC_WORD	804616	wordpools/wasnorm_wordpool_576.txt	LTP285	ltpFR2	7	7	SPIDER	1351	n/a	n/a	0	0	0
1610.716	n/a	REC_WORD	805358	wordpools/wasnorm_wordpool_576.txt	LTP285	ltpFR2	7	7	SALAD	1224	n/a	n/a	0	0	0
1611.946	n/a	REC_WORD	805973	wordpools/wasnorm_wordpool_576.txt	LTP285	ltpFR2	7	7	KETCHUP	771	n/a	n/a	0	0	0
1613.164	n/a	REC_WORD	806582	wordpools/wasnorm_wordpool_576.txt	LTP285	ltpFR2	7	7	BACON	67	n/a	n/a	0	0	0
1614.428	n/a	REC_WORD	807214	wordpools/wasnorm_wordpool_576.txt	LTP285	ltpFR2	7	7	CATTLE	261	n/a	n/a	0	0	0
1615.8	n/a	REC_WORD	807900	wordpools/wasnorm_wordpool_576.txt	LTP285	ltpFR2	7	7	BEEF	113	n/a	n/a	0	0	0
1617.076	n/a	REC_WORD	808538	wordpools/wasnorm_wordpool_576.txt	LTP285	ltpFR2	7	7	VALVE	1546	n/a	n/a	0	0	0
1619.42	n/a	REC_WORD	809710	wordpools/wasnorm_wordpool_576.txt	LTP285	ltpFR2	7	7	LODGE	839	n/a	n/a	0	0	0
1635.198	n/a	REC_WORD	817599	wordpools/wasnorm_wordpool_576.txt	LTP285	ltpFR2	7	7	ARMY	39	n/a	n/a	0	0	0
1652.616	n/a	REC_WORD	826308	wordpools/wasnorm_wordpool_576.txt	LTP285	ltpFR2	7	7	CASHIER	254	n/a	n/a	0	0	0
1695.368	n/a	DISTRACTOR	847684	n/a	LTP285	ltpFR2	7	8	n/a	n/a	n/a	n/a	0	0	0
1695.368	n/a	START	847684	n/a	LTP285	ltpFR2	7	n/a	n/a	n/a	11	n/a	n/a	n/a	n/a
1695.402	n/a	PROB	847701	n/a	LTP285	ltpFR2	7	n/a	n/a	n/a	11	14	6	6	2
1697.05	n/a	PROB	848525	n/a	LTP285	ltpFR2	7	n/a	n/a	n/a	11	11	1	2	8
1698.514	n/a	PROB	849257	n/a	LTP285	ltpFR2	7	n/a	n/a	n/a	11	17	8	7	2
1699.962	n/a	PROB	849981	n/a	LTP285	ltpFR2	7	n/a	n/a	n/a	11	10	4	1	5
1701.094	n/a	PROB	850547	n/a	LTP285	ltpFR2	7	n/a	n/a	n/a	11	23	9	7	7
1703.224	n/a	PROB	851612	n/a	LTP285	ltpFR2	7	n/a	n/a	n/a	11	17	4	6	7
1704.306	n/a	PROB	852153	n/a	LTP285	ltpFR2	7	n/a	n/a	n/a	11	13	1	9	3
1705.536	n/a	PROB	852768	n/a	LTP285	ltpFR2	7	n/a	n/a	n/a	11	15	5	8	2
1706.768	n/a	PROB	853384	n/a	LTP285	ltpFR2	7	n/a	n/a	n/a	11	10	4	2	4
1708.282	n/a	PROB	854141	n/a	LTP285	ltpFR2	7	n/a	n/a	n/a	11	22	9	9	4
1710.114	n/a	PROB	855057	n/a	LTP285	ltpFR2	7	n/a	n/a	n/a	11	15	8	3	4
1711.778	n/a	PROB	855889	n/a	LTP285	ltpFR2	7	n/a	n/a	n/a	11	15	6	1	8
1713.142	n/a	PROB	856571	n/a	LTP285	ltpFR2	7	n/a	n/a	n/a	11	25	8	8	9
1715.056	n/a	PROB	857528	n/a	LTP285	ltpFR2	7	n/a	n/a	n/a	11	14	6	1	7
1716.27	n/a	PROB	858135	n/a	LTP285	ltpFR2	7	n/a	n/a	n/a	11	13	3	2	8
1719.368	n/a	STOP	859684	n/a	LTP285	ltpFR2	7	n/a	n/a	n/a	11	n/a	n/a	n/a	n/a
1720.232	n/a	WORD	860116	wordpools/wasnorm_wordpool_576.txt	LTP285	ltpFR2	7	8	MAILMAN	858	n/a	n/a	0	0	0
1722.962	n/a	WORD	861481	wordpools/wasnorm_wordpool_576.txt	LTP285	ltpFR2	7	8	AUTHOR	61	n/a	n/a	0	0	0
1725.54	n/a	WORD	862770	wordpools/wasnorm_wordpool_576.txt	LTP285	ltpFR2	7	8	HAWK	692	n/a	n/a	0	0	0
1728.352	n/a	WORD	864176	wordpools/wasnorm_wordpool_576.txt	LTP285	ltpFR2	7	8	SCARECROW	1245	n/a	n/a	0	0	0
1730.832	n/a	WORD	865416	wordpools/wasnorm_wordpool_576.txt	LTP285	ltpFR2	7	8	POET	1095	n/a	n/a	0	0	0
1733.546	n/a	WORD	866773	wordpools/wasnorm_wordpool_576.txt	LTP285	ltpFR2	7	8	GRAPE	654	n/a	n/a	0	0	0
1736.258	n/a	WORD	868129	wordpools/wasnorm_wordpool_576.txt	LTP285	ltpFR2	7	8	PEANUT	1032	n/a	n/a	0	0	0
1738.938	n/a	WORD	869469	wordpools/wasnorm_wordpool_576.txt	LTP285	ltpFR2	7	8	REBEL	1172	n/a	n/a	0	0	0
1741.682	n/a	WORD	870841	wordpools/wasnorm_wordpool_576.txt	LTP285	ltpFR2	7	8	BRIEFCASE	175	n/a	n/a	0	0	0
1744.246	n/a	WORD	872123	wordpools/wasnorm_wordpool_576.txt	LTP285	ltpFR2	7	8	WARDROBE	1587	n/a	n/a	0	0	0
1746.742	n/a	WORD	873371	wordpools/wasnorm_wordpool_576.txt	LTP285	ltpFR2	7	8	OUTLAW	989	n/a	n/a	0	0	0
1749.554	n/a	WORD	874777	wordpools/wasnorm_wordpool_576.txt	LTP285	ltpFR2	7	8	TRUCK	1512	n/a	n/a	0	0	0
1752.184	n/a	WORD	876092	wordpools/wasnorm_wordpool_576.txt	LTP285	ltpFR2	7	8	MOTOR	922	n/a	n/a	0	0	0
1754.964	n/a	WORD	877482	wordpools/wasnorm_wordpool_576.txt	LTP285	ltpFR2	7	8	BANKER	84	n/a	n/a	0	0	0
1757.542	n/a	WORD	878771	wordpools/wasnorm_wordpool_576.txt	LTP285	ltpFR2	7	8	BRANCH	168	n/a	n/a	0	0	0
1760.172	n/a	WORD	880086	wordpools/wasnorm_wordpool_576.txt	LTP285	ltpFR2	7	8	POISON	1096	n/a	n/a	0	0	0
1762.72	n/a	WORD	881360	wordpools/wasnorm_wordpool_576.txt	LTP285	ltpFR2	7	8	TOMBSTONE	1478	n/a	n/a	0	0	0
1765.332	n/a	WORD	882666	wordpools/wasnorm_wordpool_576.txt	LTP285	ltpFR2	7	8	UMPIRE	1535	n/a	n/a	0	0	0
1768.094	n/a	WORD	884047	wordpools/wasnorm_wordpool_576.txt	LTP285	ltpFR2	7	8	FOREST	593	n/a	n/a	0	0	0
1770.758	n/a	WORD	885379	wordpools/wasnorm_wordpool_576.txt	LTP285	ltpFR2	7	8	CLAMP	316	n/a	n/a	0	0	0
1773.336	n/a	WORD	886668	wordpools/wasnorm_wordpool_576.txt	LTP285	ltpFR2	7	8	BATHTUB	100	n/a	n/a	0	0	0
1776.066	n/a	WORD	888033	wordpools/wasnorm_wordpool_576.txt	LTP285	ltpFR2	7	8	MARKER	870	n/a	n/a	0	0	0
1778.828	n/a	WORD	889414	wordpools/wasnorm_wordpool_576.txt	LTP285	ltpFR2	7	8	CITRUS	313	n/a	n/a	0	0	0
1781.324	n/a	WORD	890662	wordpools/wasnorm_wordpool_576.txt	LTP285	ltpFR2	7	8	CORAL	378	n/a	n/a	0	0	0
1782.94	n/a	START	891470	n/a	LTP285	ltpFR2	7	n/a	n/a	n/a	12	n/a	n/a	n/a	n/a
1783.788	n/a	DISTRACTOR	891894	n/a	LTP285	ltpFR2	7	8	n/a	n/a	n/a	n/a	0	0	0
1783.804	n/a	PROB	891902	n/a	LTP285	ltpFR2	7	n/a	n/a	n/a	12	11	6	2	3
1785.286	n/a	PROB	892643	n/a	LTP285	ltpFR2	7	n/a	n/a	n/a	12	11	5	3	3
1786.65	n/a	PROB	893325	n/a	LTP285	ltpFR2	7	n/a	n/a	n/a	12	15	3	8	4
1788.332	n/a	PROB	894166	n/a	LTP285	ltpFR2	7	n/a	n/a	n/a	12	11	1	4	6
1789.346	n/a	PROB	894673	n/a	LTP285	ltpFR2	7	n/a	n/a	n/a	12	23	7	8	8
1790.76	n/a	PROB	895380	n/a	LTP285	ltpFR2	7	n/a	n/a	n/a	12	20	9	6	5
1792.308	n/a	PROB	896154	n/a	LTP285	ltpFR2	7	n/a	n/a	n/a	12	6	3	1	2
1793.124	n/a	PROB	896562	n/a	LTP285	ltpFR2	7	n/a	n/a	n/a	12	12	9	1	2
1794.288	n/a	PROB	897144	n/a	LTP285	ltpFR2	7	n/a	n/a	n/a	12	17	9	3	5
1795.888	n/a	PROB	897944	n/a	LTP285	ltpFR2	7	n/a	n/a	n/a	12	20	9	8	3
1797.9	n/a	PROB	898950	n/a	LTP285	ltpFR2	7	n/a	n/a	n/a	12	13	8	1	4
1799.364	n/a	PROB	899682	n/a	LTP285	ltpFR2	7	n/a	n/a	n/a	12	6	1	2	3
1800.296	n/a	PROB	900148	n/a	LTP285	ltpFR2	7	n/a	n/a	n/a	12	15	1	7	7
1801.228	n/a	PROB	900614	n/a	LTP285	ltpFR2	7	n/a	n/a	n/a	12	16	3	6	7
1805.288	n/a	PROB	902644	n/a	LTP285	ltpFR2	7	n/a	n/a	n/a	12	15	3	6	6
1806.366	n/a	STOP	903183	n/a	LTP285	ltpFR2	7	n/a	n/a	n/a	12	n/a	n/a	n/a	n/a
1808.75	n/a	REC_START	904375	n/a	LTP285	ltpFR2	7	8	n/a	n/a	n/a	n/a	0	0	0
1809.358	n/a	REC_WORD	904679	wordpools/wasnorm_wordpool_576.txt	LTP285	ltpFR2	7	8	CITRUS	313	n/a	n/a	0	0	0
1810.468	n/a	REC_WORD	905234	wordpools/wasnorm_wordpool_576.txt	LTP285	ltpFR2	7	8	CORAL	378	n/a	n/a	0	0	0
1811.702	n/a	REC_WORD	905851	wordpools/wasnorm_wordpool_576.txt	LTP285	ltpFR2	7	8	BANKER	84	n/a	n/a	0	0	0
1812.872	n/a	REC_WORD	906436	wordpools/wasnorm_wordpool_576.txt	LTP285	ltpFR2	7	8	POISON	1096	n/a	n/a	0	0	0
1814.286	n/a	REC_WORD	907143	wordpools/wasnorm_wordpool_576.txt	LTP285	ltpFR2	7	8	TOMBSTONE	1478	n/a	n/a	0	0	0
1820.478	n/a	REC_WORD	910239	wordpools/wasnorm_wordpool_576.txt	LTP285	ltpFR2	7	8	WARDROBE	1587	n/a	n/a	0	0	0
1822.758	n/a	REC_WORD	911379	wordpools/wasnorm_wordpool_576.txt	LTP285	ltpFR2	7	8	SUIT	1402	n/a	n/a	0	0	0
1824.446	n/a	REC_WORD	912223	wordpools/wasnorm_wordpool_576.txt	LTP285	ltpFR2	7	8	BRIEFCASE	175	n/a	n/a	0	0	0
1828.012	n/a	REC_WORD	914006	wordpools/wasnorm_wordpool_576.txt	LTP285	ltpFR2	7	8	BATHTUB	100	n/a	n/a	0	0	0
1832.012	n/a	REC_WORD	916006	wordpools/wasnorm_wordpool_576.txt	LTP285	ltpFR2	7	8	HAWK	692	n/a	n/a	0	0	0
1835.738	n/a	REC_WORD	917869	wordpools/wasnorm_wordpool_576.txt	LTP285	ltpFR2	7	8	OUTLAW	989	n/a	n/a	0	0	0
1854.016	n/a	REC_WORD	927008	wordpools/wasnorm_wordpool_576.txt	LTP285	ltpFR2	7	8	MARKER	870	n/a	n/a	0	0	0
1868.154	n/a	REC_WORD	934077	wordpools/wasnorm_wordpool_576.txt	LTP285	ltpFR2	7	8	GRAPE	654	n/a	n/a	0	0	0
1869.586	n/a	REC_WORD	934793	wordpools/wasnorm_wordpool_576.txt	LTP285	ltpFR2	7	8	PEANUT	1032	n/a	n/a	0	0	0
1880.892	n/a	REC_WORD	940446	wordpools/wasnorm_wordpool_576.txt	LTP285	ltpFR2	7	8	HEDGE	699	n/a	n/a	0	0	0
1882.02	n/a	REC_WORD	941010	wordpools/wasnorm_wordpool_576.txt	LTP285	ltpFR2	7	8	BRANCH	168	n/a	n/a	0	0	0
1885.354	n/a	REST_REWET	942677	n/a	LTP285	ltpFR2	7	8	n/a	n/a	n/a	n/a	0	0	0
2237.116	n/a	DISTRACTOR	1118558	n/a	LTP285	ltpFR2	7	9	n/a	n/a	n/a	n/a	0	0	0
2237.118	n/a	START	1118559	n/a	LTP285	ltpFR2	7	n/a	n/a	n/a	13	n/a	n/a	n/a	n/a
2237.15	n/a	PROB	1118575	n/a	LTP285	ltpFR2	7	n/a	n/a	n/a	13	18	7	7	4
2238.932	n/a	PROB	1119466	n/a	LTP285	ltpFR2	7	n/a	n/a	n/a	13	12	3	5	4
2240.328	n/a	PROB	1120164	n/a	LTP285	ltpFR2	7	n/a	n/a	n/a	13	8	3	2	3
2242.028	n/a	PROB	1121014	n/a	LTP285	ltpFR2	7	n/a	n/a	n/a	13	17	4	8	5
2244.94	n/a	PROB	1122470	n/a	LTP285	ltpFR2	7	n/a	n/a	n/a	13	11	5	3	3
2246.104	n/a	PROB	1123052	n/a	LTP285	ltpFR2	7	n/a	n/a	n/a	13	9	1	2	6
2247.118	n/a	PROB	1123559	n/a	LTP285	ltpFR2	7	n/a	n/a	n/a	13	15	3	3	9
2248.55	n/a	PROB	1124275	n/a	LTP285	ltpFR2	7	n/a	n/a	n/a	13	13	2	9	2
2250.08	n/a	PROB	1125040	n/a	LTP285	ltpFR2	7	n/a	n/a	n/a	13	11	2	6	3
2252.294	n/a	PROB	1126147	n/a	LTP285	ltpFR2	7	n/a	n/a	n/a	13	12	5	5	2
2253.21	n/a	PROB	1126605	n/a	LTP285	ltpFR2	7	n/a	n/a	n/a	13	8	3	1	4
2254.242	n/a	PROB	1127121	n/a	LTP285	ltpFR2	7	n/a	n/a	n/a	13	22	5	8	9
2256.138	n/a	PROB	1128069	n/a	LTP285	ltpFR2	7	n/a	n/a	n/a	13	12	2	6	4
2257.17	n/a	PROB	1128585	n/a	LTP285	ltpFR2	7	n/a	n/a	n/a	13	15	7	1	7
2258.086	n/a	PROB	1129043	n/a	LTP285	ltpFR2	7	n/a	n/a	n/a	13	18	5	6	7
2259.318	n/a	PROB	1129659	n/a	LTP285	ltpFR2	7	n/a	n/a	n/a	13	7	3	3	1
2260.228	n/a	STOP	1130114	n/a	LTP285	ltpFR2	7	n/a	n/a	n/a	13	n/a	n/a	n/a	n/a
2262.18	n/a	WORD	1131090	wordpools/wasnorm_wordpool_576.txt	LTP285	ltpFR2	7	9	REPORT	1184	n/a	n/a	0	0	0
2264.776	n/a	WORD	1132388	wordpools/wasnorm_wordpool_576.txt	LTP285	ltpFR2	7	9	SERVER	1272	n/a	n/a	0	0	0
2267.222	n/a	WORD	1133611	wordpools/wasnorm_wordpool_576.txt	LTP285	ltpFR2	7	9	ACTOR	5	n/a	n/a	0	0	0
2270.036	n/a	WORD	1135018	wordpools/wasnorm_wordpool_576.txt	LTP285	ltpFR2	7	9	OINTMENT	974	n/a	n/a	0	0	0
2272.714	n/a	WORD	1136357	wordpools/wasnorm_wordpool_576.txt	LTP285	ltpFR2	7	9	OFFICE	972	n/a	n/a	0	0	0
2275.276	n/a	WORD	1137638	wordpools/wasnorm_wordpool_576.txt	LTP285	ltpFR2	7	9	WIDOW	1608	n/a	n/a	0	0	0
2277.772	n/a	WORD	1138886	wordpools/wasnorm_wordpool_576.txt	LTP285	ltpFR2	7	9	DINER	467	n/a	n/a	0	0	0
2280.302	n/a	WORD	1140151	wordpools/wasnorm_wordpool_576.txt	LTP285	ltpFR2	7	9	TROUT	1511	n/a	n/a	0	0	0
2282.748	n/a	WORD	1141374	wordpools/wasnorm_wordpool_576.txt	LTP285	ltpFR2	7	9	CRICKET	408	n/a	n/a	0	0	0
2285.262	n/a	WORD	1142631	wordpools/wasnorm_wordpool_576.txt	LTP285	ltpFR2	7	9	DENTIST	447	n/a	n/a	0	0	0
2287.824	n/a	WORD	1143912	wordpools/wasnorm_wordpool_576.txt	LTP285	ltpFR2	7	9	CHIPMUNK	304	n/a	n/a	0	0	0
2290.47	n/a	WORD	1145235	wordpools/wasnorm_wordpool_576.txt	LTP285	ltpFR2	7	9	TABLET	1427	n/a	n/a	0	0	0
2293.066	n/a	WORD	1146533	wordpools/wasnorm_wordpool_576.txt	LTP285	ltpFR2	7	9	MUMMY	932	n/a	n/a	0	0	0
2295.696	n/a	WORD	1147848	wordpools/wasnorm_wordpool_576.txt	LTP285	ltpFR2	7	9	TEMPLE	1448	n/a	n/a	0	0	0
2298.142	n/a	WORD	1149071	wordpools/wasnorm_wordpool_576.txt	LTP285	ltpFR2	7	9	FLIPPER	580	n/a	n/a	0	0	0
2300.806	n/a	WORD	1150403	wordpools/wasnorm_wordpool_576.txt	LTP285	ltpFR2	7	9	HERO	706	n/a	n/a	0	0	0
2303.584	n/a	WORD	1151792	wordpools/wasnorm_wordpool_576.txt	LTP285	ltpFR2	7	9	SERVANT	1271	n/a	n/a	0	0	0
2306.23	n/a	WORD	1153115	wordpools/wasnorm_wordpool_576.txt	LTP285	ltpFR2	7	9	WORKER	1621	n/a	n/a	0	0	0
2308.76	n/a	WORD	1154380	wordpools/wasnorm_wordpool_576.txt	LTP285	ltpFR2	7	9	STAMP	1370	n/a	n/a	0	0	0
2311.24	n/a	WORD	1155620	wordpools/wasnorm_wordpool_576.txt	LTP285	ltpFR2	7	9	SPHINX	1349	n/a	n/a	0	0	0
2314.036	n/a	WORD	1157018	wordpools/wasnorm_wordpool_576.txt	LTP285	ltpFR2	7	9	FREEZER	604	n/a	n/a	0	0	0
2316.732	n/a	WORD	1158366	wordpools/wasnorm_wordpool_576.txt	LTP285	ltpFR2	7	9	IGLOO	734	n/a	n/a	0	0	0
2319.512	n/a	WORD	1159756	wordpools/wasnorm_wordpool_576.txt	LTP285	ltpFR2	7	9	MAILBOX	857	n/a	n/a	0	0	0
2322.224	n/a	WORD	1161112	wordpools/wasnorm_wordpool_576.txt	LTP285	ltpFR2	7	9	TEACHER	1440	n/a	n/a	0	0	0
2323.838	n/a	START	1161919	n/a	LTP285	ltpFR2	7	n/a	n/a	n/a	14	n/a	n/a	n/a	n/a
2324.694	n/a	DISTRACTOR	1162347	n/a	LTP285	ltpFR2	7	9	n/a	n/a	n/a	n/a	0	0	0
2324.704	n/a	PROB	1162352	n/a	LTP285	ltpFR2	7	n/a	n/a	n/a	14	14	6	5	3
2326.202	n/a	PROB	1163101	n/a	LTP285	ltpFR2	7	n/a	n/a	n/a	14	18	4	6	6
2327.682	n/a	PROB	1163841	n/a	LTP285	ltpFR2	7	n/a	n/a	n/a	14	18	8	9	1
2329.514	n/a	PROB	1164757	n/a	LTP285	ltpFR2	7	n/a	n/a	n/a	14	11	1	6	4
2330.496	n/a	PROB	1165248	n/a	LTP285	ltpFR2	7	n/a	n/a	n/a	14	13	2	2	9
2332.01	n/a	PROB	1166005	n/a	LTP285	ltpFR2	7	n/a	n/a	n/a	14	13	1	9	3
2333.324	n/a	PROB	1166662	n/a	LTP285	ltpFR2	7	n/a	n/a	n/a	14	11	3	1	7
2334.406	n/a	PROB	1167203	n/a	LTP285	ltpFR2	7	n/a	n/a	n/a	14	15	8	1	6
2335.804	n/a	PROB	1167902	n/a	LTP285	ltpFR2	7	n/a	n/a	n/a	14	9	1	7	1
2336.852	n/a	PROB	1168426	n/a	LTP285	ltpFR2	7	n/a	n/a	n/a	14	21	9	4	8
2338.816	n/a	PROB	1169408	n/a	LTP285	ltpFR2	7	n/a	n/a	n/a	14	18	3	6	9
2339.948	n/a	PROB	1169974	n/a	LTP285	ltpFR2	7	n/a	n/a	n/a	14	12	8	2	2
2341.062	n/a	PROB	1170531	n/a	LTP285	ltpFR2	7	n/a	n/a	n/a	14	19	9	1	9
2342.112	n/a	PROB	1171056	n/a	LTP285	ltpFR2	7	n/a	n/a	n/a	14	15	2	9	4
2343.592	n/a	PROB	1171796	n/a	LTP285	ltpFR2	7	n/a	n/a	n/a	14	10	2	3	5
2344.84	n/a	PROB	1172420	n/a	LTP285	ltpFR2	7	n/a	n/a	n/a	14	16	1	9	6
2345.806	n/a	PROB	1172903	n/a	LTP285	ltpFR2	7	n/a	n/a	n/a	14	11	2	3	6
2346.95	n/a	STOP	1173475	n/a	LTP285	ltpFR2	7	n/a	n/a	n/a	14	n/a	n/a	n/a	n/a
2349.8	n/a	REC_START	1174900	n/a	LTP285	ltpFR2	7	9	n/a	n/a	n/a	n/a	0	0	0
2350.7	n/a	REC_WORD	1175350	wordpools/wasnorm_wordpool_576.txt	LTP285	ltpFR2	7	9	SERVER	1272	n/a	n/a	0	0	0
2352.282	n/a	REC_WORD	1176141	wordpools/wasnorm_wordpool_576.txt	LTP285	ltpFR2	7	9	SERVANT	1271	n/a	n/a	0	0	0
2353.588	n/a	REC_WORD	1176794	wordpools/wasnorm_wordpool_576.txt	LTP285	ltpFR2	7	9	DINER	467	n/a	n/a	0	0	0
2354.718	n/a	REC_WORD	1177359	wordpools/wasnorm_wordpool_576.txt	LTP285	ltpFR2	7	9	SPHINX	1349	n/a	n/a	0	0	0
2356.786	n/a	REC_WORD	1178393	wordpools/wasnorm_wordpool_576.txt	LTP285	ltpFR2	7	9	MUMMY	932	n/a	n/a	0	0	0
2357.906	n/a	REC_WORD	1178953	wordpools/wasnorm_wordpool_576.txt	LTP285	ltpFR2	7	9	TEMPLE	1448	n/a	n/a	0	0	0
2359.658	n/a	REC_WORD	1179829	wordpools/wasnorm_wordpool_576.txt	LTP285	ltpFR2	7	9	OFFICE	972	n/a	n/a	0	0	0
2364.85	n/a	REC_WORD	1182425	wordpools/wasnorm_wordpool_576.txt	LTP285	ltpFR2	7	9	TROUT	1511	n/a	n/a	0	0	0
2376.04	n/a	REC_WORD	1188020	wordpools/wasnorm_wordpool_576.txt	LTP285	ltpFR2	7	9	MAILBOX	857	n/a	n/a	0	0	0
2377.646	n/a	REC_WORD	1188823	wordpools/wasnorm_wordpool_576.txt	LTP285	ltpFR2	7	9	IGLOO	734	n/a	n/a	0	0	0
2382.094	n/a	REC_WORD	1191047	wordpools/wasnorm_wordpool_576.txt	LTP285	ltpFR2	7	9	OINTMENT	974	n/a	n/a	0	0	0
2440.448	n/a	DISTRACTOR	1220224	n/a	LTP285	ltpFR2	7	10	n/a	n/a	n/a	n/a	0	0	0
2440.448	n/a	START	1220224	n/a	LTP285	ltpFR2	7	n/a	n/a	n/a	15	n/a	n/a	n/a	n/a
2440.482	n/a	PROB	1220241	n/a	LTP285	ltpFR2	7	n/a	n/a	n/a	15	22	7	8	7
2442.162	n/a	PROB	1221081	n/a	LTP285	ltpFR2	7	n/a	n/a	n/a	15	14	5	2	7
2443.244	n/a	PROB	1221622	n/a	LTP285	ltpFR2	7	n/a	n/a	n/a	15	17	9	6	2
2444.944	n/a	PROB	1222472	n/a	LTP285	ltpFR2	7	n/a	n/a	n/a	15	15	5	4	6
2446.856	n/a	PROB	1223428	n/a	LTP285	ltpFR2	7	n/a	n/a	n/a	15	12	1	8	3
2448.12	n/a	PROB	1224060	n/a	LTP285	ltpFR2	7	n/a	n/a	n/a	15	14	9	3	2
2449.368	n/a	PROB	1224684	n/a	LTP285	ltpFR2	7	n/a	n/a	n/a	15	21	7	5	9
2453.88	n/a	PROB	1226940	n/a	LTP285	ltpFR2	7	n/a	n/a	n/a	15	18	5	8	5
2454.894	n/a	PROB	1227447	n/a	LTP285	ltpFR2	7	n/a	n/a	n/a	15	21	3	9	9
2456.524	n/a	PROB	1228262	n/a	LTP285	ltpFR2	7	n/a	n/a	n/a	15	19	6	7	6
2458.024	n/a	PROB	1229012	n/a	LTP285	ltpFR2	7	n/a	n/a	n/a	15	9	2	4	3
2459.786	n/a	PROB	1229893	n/a	LTP285	ltpFR2	7	n/a	n/a	n/a	15	18	5	5	8
2460.768	n/a	PROB	1230384	n/a	LTP285	ltpFR2	7	n/a	n/a	n/a	15	9	2	4	3
2462.15	n/a	PROB	1231075	n/a	LTP285	ltpFR2	7	n/a	n/a	n/a	15	19	4	9	6
2463.63	n/a	STOP	1231815	n/a	LTP285	ltpFR2	7	n/a	n/a	n/a	15	n/a	n/a	n/a	n/a
2465.328	n/a	WORD	1232664	wordpools/wasnorm_wordpool_576.txt	LTP285	ltpFR2	7	10	CROSS	413	n/a	n/a	0	0	0
2467.808	n/a	WORD	1233904	wordpools/wasnorm_wordpool_576.txt	LTP285	ltpFR2	7	10	VAGRANT	1544	n/a	n/a	0	0	0
2470.488	n/a	WORD	1235244	wordpools/wasnorm_wordpool_576.txt	LTP285	ltpFR2	7	10	ICEBERG	731	n/a	n/a	0	0	0
2473.084	n/a	WORD	1236542	wordpools/wasnorm_wordpool_576.txt	LTP285	ltpFR2	7	10	BACKBONE	66	n/a	n/a	0	0	0
2475.798	n/a	WORD	1237899	wordpools/wasnorm_wordpool_576.txt	LTP285	ltpFR2	7	10	LAVA	804	n/a	n/a	0	0	0
2478.476	n/a	WORD	1239238	wordpools/wasnorm_wordpool_576.txt	LTP285	ltpFR2	7	10	BASEMENT	94	n/a	n/a	0	0	0
2481.006	n/a	WORD	1240503	wordpools/wasnorm_wordpool_576.txt	LTP285	ltpFR2	7	10	FLEET	578	n/a	n/a	0	0	0
2483.702	n/a	WORD	1241851	wordpools/wasnorm_wordpool_576.txt	LTP285	ltpFR2	7	10	GUARD	667	n/a	n/a	0	0	0
2486.314	n/a	WORD	1243157	wordpools/wasnorm_wordpool_576.txt	LTP285	ltpFR2	7	10	SNACK	1331	n/a	n/a	0	0	0
2489.11	n/a	WORD	1244555	wordpools/wasnorm_wordpool_576.txt	LTP285	ltpFR2	7	10	BLUEPRINT	142	n/a	n/a	0	0	0
2491.756	n/a	WORD	1245878	wordpools/wasnorm_wordpool_576.txt	LTP285	ltpFR2	7	10	PUDDLE	1140	n/a	n/a	0	0	0
2494.52	n/a	WORD	1247260	wordpools/wasnorm_wordpool_576.txt	LTP285	ltpFR2	7	10	JUDGE	761	n/a	n/a	0	0	0
2497.116	n/a	WORD	1248558	wordpools/wasnorm_wordpool_576.txt	LTP285	ltpFR2	7	10	JURY	766	n/a	n/a	0	0	0
2499.728	n/a	WORD	1249864	wordpools/wasnorm_wordpool_576.txt	LTP285	ltpFR2	7	10	SEAFOOD	1260	n/a	n/a	0	0	0
2502.44	n/a	WORD	1251220	wordpools/wasnorm_wordpool_576.txt	LTP285	ltpFR2	7	10	PREACHER	1119	n/a	n/a	0	0	0
2505.186	n/a	WORD	1252593	wordpools/wasnorm_wordpool_576.txt	LTP285	ltpFR2	7	10	ROBOT	1200	n/a	n/a	0	0	0
2507.832	n/a	WORD	1253916	wordpools/wasnorm_wordpool_576.txt	LTP285	ltpFR2	7	10	WASHER	1592	n/a	n/a	0	0	0
2510.412	n/a	WORD	1255206	wordpools/wasnorm_wordpool_576.txt	LTP285	ltpFR2	7	10	XEROX	1628	n/a	n/a	0	0	0
2513.108	n/a	WORD	1256554	wordpools/wasnorm_wordpool_576.txt	LTP285	ltpFR2	7	10	BABY	64	n/a	n/a	0	0	0
2515.554	n/a	WORD	1257777	wordpools/wasnorm_wordpool_576.txt	LTP285	ltpFR2	7	10	PRINCE	1124	n/a	n/a	0	0	0
2517.986	n/a	WORD	1258993	wordpools/wasnorm_wordpool_576.txt	LTP285	ltpFR2	7	10	KNIFE	785	n/a	n/a	0	0	0
2520.496	n/a	WORD	1260248	wordpools/wasnorm_wordpool_576.txt	LTP285	ltpFR2	7	10	VIRUS	1572	n/a	n/a	0	0	0
2523.094	n/a	WORD	1261547	wordpools/wasnorm_wordpool_576.txt	LTP285	ltpFR2	7	10	CRUTCH	417	n/a	n/a	0	0	0
2525.756	n/a	WORD	1262878	wordpools/wasnorm_wordpool_576.txt	LTP285	ltpFR2	7	10	SALMON	1227	n/a	n/a	0	0	0
2527.37	n/a	START	1263685	n/a	LTP285	ltpFR2	7	n/a	n/a	n/a	16	n/a	n/a	n/a	n/a
2528.38	n/a	DISTRACTOR	1264190	n/a	LTP285	ltpFR2	7	10	n/a	n/a	n/a	n/a	0	0	0
2528.386	n/a	PROB	1264193	n/a	LTP285	ltpFR2	7	n/a	n/a	n/a	16	13	4	6	3
2529.95	n/a	PROB	1264975	n/a	LTP285	ltpFR2	7	n/a	n/a	n/a	16	17	5	6	6
2531.23	n/a	PROB	1265615	n/a	LTP285	ltpFR2	7	n/a	n/a	n/a	16	24	9	6	9
2533.062	n/a	PROB	1266531	n/a	LTP285	ltpFR2	7	n/a	n/a	n/a	16	18	5	4	9
2534.41	n/a	PROB	1267205	n/a	LTP285	ltpFR2	7	n/a	n/a	n/a	16	17	7	9	1
2535.542	n/a	PROB	1267771	n/a	LTP285	ltpFR2	7	n/a	n/a	n/a	16	17	7	5	5
2536.556	n/a	PROB	1268278	n/a	LTP285	ltpFR2	7	n/a	n/a	n/a	16	12	5	6	1
2538.404	n/a	PROB	1269202	n/a	LTP285	ltpFR2	7	n/a	n/a	n/a	16	7	1	1	5
2539.386	n/a	PROB	1269693	n/a	LTP285	ltpFR2	7	n/a	n/a	n/a	16	15	8	6	1
2540.418	n/a	PROB	1270209	n/a	LTP285	ltpFR2	7	n/a	n/a	n/a	16	14	1	5	8
2541.616	n/a	PROB	1270808	n/a	LTP285	ltpFR2	7	n/a	n/a	n/a	16	14	8	4	5
2543.18	n/a	PROB	1271590	n/a	LTP285	ltpFR2	7	n/a	n/a	n/a	16	16	1	9	6
2544.344	n/a	PROB	1272172	n/a	LTP285	ltpFR2	7	n/a	n/a	n/a	16	11	3	5	3
2546.092	n/a	PROB	1273046	n/a	LTP285	ltpFR2	7	n/a	n/a	n/a	16	8	4	3	1
2547.14	n/a	PROB	1273570	n/a	LTP285	ltpFR2	7	n/a	n/a	n/a	16	16	4	6	6
2548.172	n/a	PROB	1274086	n/a	LTP285	ltpFR2	7	n/a	n/a	n/a	16	16	4	4	6
2549.104	n/a	PROB	1274552	n/a	LTP285	ltpFR2	7	n/a	n/a	n/a	16	15	7	4	4
2551.008	n/a	STOP	1275504	n/a	LTP285	ltpFR2	7	n/a	n/a	n/a	16	n/a	n/a	n/a	n/a
2553.166	n/a	REC_START	1276583	n/a	LTP285	ltpFR2	7	10	n/a	n/a	n/a	n/a	0	0	0
2553.884	n/a	REC_WORD	1276942	wordpools/wasnorm_wordpool_576.txt	LTP285	ltpFR2	7	10	BLUEPRINT	142	n/a	n/a	0	0	0
2554.904	n/a	REC_WORD	1277452	wordpools/wasnorm_wordpool_576.txt	LTP285	ltpFR2	7	10	FLEET	578	n/a	n/a	0	0	0
2566.498	n/a	REC_WORD	1283249	wordpools/wasnorm_wordpool_576.txt	LTP285	ltpFR2	7	10	SALMON	1227	n/a	n/a	0	0	0
2567.88	n/a	REC_WORD	1283940	wordpools/wasnorm_wordpool_576.txt	LTP285	ltpFR2	7	10	SEAFOOD	1260	n/a	n/a	0	0	0
2569.026	n/a	REC_WORD	1284513	wordpools/wasnorm_wordpool_576.txt	LTP285	ltpFR2	7	10	KNIFE	785	n/a	n/a	0	0	0
2589.556	n/a	REC_WORD	1294778	wordpools/wasnorm_wordpool_576.txt	LTP285	ltpFR2	7	10	JUNGLE	764	n/a	n/a	0	0	0
2590.488	n/a	REC_WORD_VV	1295244	wordpools/wasnorm_wordpool_576.txt	LTP285	ltpFR2	7	10	<>	-1	n/a	n/a	0	0	0
2591.13	n/a	REC_WORD	1295565	wordpools/wasnorm_wordpool_576.txt	LTP285	ltpFR2	7	10	XEROX	1628	n/a	n/a	0	0	0
2597.03	n/a	REC_WORD	1298515	wordpools/wasnorm_wordpool_576.txt	LTP285	ltpFR2	7	10	LAVA	804	n/a	n/a	0	0	0
2598.102	n/a	REC_WORD	1299051	wordpools/wasnorm_wordpool_576.txt	LTP285	ltpFR2	7	10	ROBOT	1200	n/a	n/a	0	0	0
2608.382	n/a	REC_WORD	1304191	wordpools/wasnorm_wordpool_576.txt	LTP285	ltpFR2	7	10	BABY	64	n/a	n/a	0	0	0
2616.502	n/a	REC_WORD	1308251	wordpools/wasnorm_wordpool_576.txt	LTP285	ltpFR2	7	10	CROSS	413	n/a	n/a	0	0	0
2627.556	n/a	REC_WORD	1313778	wordpools/wasnorm_wordpool_576.txt	LTP285	ltpFR2	7	10	SNACK	1331	n/a	n/a	0	0	0
2643.814	n/a	DISTRACTOR	1321907	n/a	LTP285	ltpFR2	7	11	n/a	n/a	n/a	n/a	0	0	0
2643.816	n/a	START	1321908	n/a	LTP285	ltpFR2	7	n/a	n/a	n/a	17	n/a	n/a	n/a	n/a
2643.848	n/a	PROB	1321924	n/a	LTP285	ltpFR2	7	n/a	n/a	n/a	17	17	7	2	8
2645.896	n/a	PROB	1322948	n/a	LTP285	ltpFR2	7	n/a	n/a	n/a	17	12	6	7	1
2647.11	n/a	PROB	1323555	n/a	LTP285	ltpFR2	7	n/a	n/a	n/a	17	14	3	2	9
2648.474	n/a	PROB	1324237	n/a	LTP285	ltpFR2	7	n/a	n/a	n/a	17	23	9	5	9
2650.288	n/a	PROB	1325144	n/a	LTP285	ltpFR2	7	n/a	n/a	n/a	17	20	6	8	6
2652.052	n/a	PROB	1326026	n/a	LTP285	ltpFR2	7	n/a	n/a	n/a	17	16	7	4	5
2653.868	n/a	PROB	1326934	n/a	LTP285	ltpFR2	7	n/a	n/a	n/a	17	10	4	1	5
2655.298	n/a	PROB	1327649	n/a	LTP285	ltpFR2	7	n/a	n/a	n/a	17	24	8	7	9
2657.046	n/a	PROB	1328523	n/a	LTP285	ltpFR2	7	n/a	n/a	n/a	17	16	9	5	2
2658.394	n/a	PROB	1329197	n/a	LTP285	ltpFR2	7	n/a	n/a	n/a	17	10	2	5	3
2660.124	n/a	PROB	1330062	n/a	LTP285	ltpFR2	7	n/a	n/a	n/a	17	20	8	6	6
2661.572	n/a	PROB	1330786	n/a	LTP285	ltpFR2	7	n/a	n/a	n/a	17	7	3	3	1
2662.57	n/a	PROB	1331285	n/a	LTP285	ltpFR2	7	n/a	n/a	n/a	17	17	6	2	9
2665.018	n/a	PROB	1332509	n/a	LTP285	ltpFR2	7	n/a	n/a	n/a	17	10	1	1	8
2666.466	n/a	STOP	1333233	n/a	LTP285	ltpFR2	7	n/a	n/a	n/a	17	n/a	n/a	n/a	n/a
2669.012	n/a	WORD	1334506	wordpools/wasnorm_wordpool_576.txt	LTP285	ltpFR2	7	11	SNAIL	1332	n/a	n/a	0	0	0
2671.456	n/a	WORD	1335728	wordpools/wasnorm_wordpool_576.txt	LTP285	ltpFR2	7	11	SCALLOP	1242	n/a	n/a	0	0	0
2674.27	n/a	WORD	1337135	wordpools/wasnorm_wordpool_576.txt	LTP285	ltpFR2	7	11	TORTOISE	1486	n/a	n/a	0	0	0
2677.0	n/a	WORD	1338500	wordpools/wasnorm_wordpool_576.txt	LTP285	ltpFR2	7	11	STAPLE	1371	n/a	n/a	0	0	0
2679.594	n/a	WORD	1339797	wordpools/wasnorm_wordpool_576.txt	LTP285	ltpFR2	7	11	STALLION	1369	n/a	n/a	0	0	0
2682.324	n/a	WORD	1341162	wordpools/wasnorm_wordpool_576.txt	LTP285	ltpFR2	7	11	BUNNY	198	n/a	n/a	0	0	0
2684.77	n/a	WORD	1342385	wordpools/wasnorm_wordpool_576.txt	LTP285	ltpFR2	7	11	COIN	343	n/a	n/a	0	0	0
2687.3	n/a	WORD	1343650	wordpools/wasnorm_wordpool_576.txt	LTP285	ltpFR2	7	11	HANDBAG	684	n/a	n/a	0	0	0
2690.096	n/a	WORD	1345048	wordpools/wasnorm_wordpool_576.txt	LTP285	ltpFR2	7	11	FILM	565	n/a	n/a	0	0	0
2692.808	n/a	WORD	1346404	wordpools/wasnorm_wordpool_576.txt	LTP285	ltpFR2	7	11	PAPER	1011	n/a	n/a	0	0	0
2695.57	n/a	WORD	1347785	wordpools/wasnorm_wordpool_576.txt	LTP285	ltpFR2	7	11	BLADE	134	n/a	n/a	0	0	0
2698.366	n/a	WORD	1349183	wordpools/wasnorm_wordpool_576.txt	LTP285	ltpFR2	7	11	CAMEL	223	n/a	n/a	0	0	0
2700.998	n/a	WORD	1350499	wordpools/wasnorm_wordpool_576.txt	LTP285	ltpFR2	7	11	WITNESS	1618	n/a	n/a	0	0	0
2703.46	n/a	WORD	1351730	wordpools/wasnorm_wordpool_576.txt	LTP285	ltpFR2	7	11	BULLET	194	n/a	n/a	0	0	0
2706.272	n/a	WORD	1353136	wordpools/wasnorm_wordpool_576.txt	LTP285	ltpFR2	7	11	PISTOL	1075	n/a	n/a	0	0	0
2708.868	n/a	WORD	1354434	wordpools/wasnorm_wordpool_576.txt	LTP285	ltpFR2	7	11	PORK	1108	n/a	n/a	0	0	0
2711.564	n/a	WORD	1355782	wordpools/wasnorm_wordpool_576.txt	LTP285	ltpFR2	7	11	SAUSAGE	1238	n/a	n/a	0	0	0
2714.194	n/a	WORD	1357097	wordpools/wasnorm_wordpool_576.txt	LTP285	ltpFR2	7	11	GHETTO	633	n/a	n/a	0	0	0
2716.974	n/a	WORD	1358487	wordpools/wasnorm_wordpool_576.txt	LTP285	ltpFR2	7	11	DUSTPAN	509	n/a	n/a	0	0	0
2719.77	n/a	WORD	1359885	wordpools/wasnorm_wordpool_576.txt	LTP285	ltpFR2	7	11	RADISH	1158	n/a	n/a	0	0	0
2722.216	n/a	WORD	1361108	wordpools/wasnorm_wordpool_576.txt	LTP285	ltpFR2	7	11	ZEBRA	1635	n/a	n/a	0	0	0
2724.712	n/a	WORD	1362356	wordpools/wasnorm_wordpool_576.txt	LTP285	ltpFR2	7	11	CREVICE	405	n/a	n/a	0	0	0
2727.342	n/a	WORD	1363671	wordpools/wasnorm_wordpool_576.txt	LTP285	ltpFR2	7	11	HORSE	719	n/a	n/a	0	0	0
2729.854	n/a	WORD	1364927	wordpools/wasnorm_wordpool_576.txt	LTP285	ltpFR2	7	11	LUGGAGE	847	n/a	n/a	0	0	0
2731.468	n/a	START	1365734	n/a	LTP285	ltpFR2	7	n/a	n/a	n/a	18	n/a	n/a	n/a	n/a
2732.488	n/a	DISTRACTOR	1366244	n/a	LTP285	ltpFR2	7	11	n/a	n/a	n/a	n/a	0	0	0
2732.5	n/a	PROB	1366250	n/a	LTP285	ltpFR2	7	n/a	n/a	n/a	18	20	9	3	8
2736.81	n/a	PROB	1368405	n/a	LTP285	ltpFR2	7	n/a	n/a	n/a	18	8	1	6	1
2737.758	n/a	PROB	1368879	n/a	LTP285	ltpFR2	7	n/a	n/a	n/a	18	21	7	9	5
2740.654	n/a	PROB	1370327	n/a	LTP285	ltpFR2	7	n/a	n/a	n/a	18	3	1	1	1
2741.554	n/a	PROB	1370777	n/a	LTP285	ltpFR2	7	n/a	n/a	n/a	18	13	9	2	2
2743.15	n/a	PROB	1371575	n/a	LTP285	ltpFR2	7	n/a	n/a	n/a	18	11	2	8	1
2744.15	n/a	PROB	1372075	n/a	LTP285	ltpFR2	7	n/a	n/a	n/a	18	18	4	7	7
2745.864	n/a	PROB	1372932	n/a	LTP285	ltpFR2	7	n/a	n/a	n/a	18	11	1	9	1
2746.812	n/a	PROB	1373406	n/a	LTP285	ltpFR2	7	n/a	n/a	n/a	18	11	7	2	2
2747.912	n/a	PROB	1373956	n/a	LTP285	ltpFR2	7	n/a	n/a	n/a	18	21	9	5	7
2750.474	n/a	PROB	1375237	n/a	LTP285	ltpFR2	7	n/a	n/a	n/a	18	11	6	1	4
2751.372	n/a	PROB	1375686	n/a	LTP285	ltpFR2	7	n/a	n/a	n/a	18	16	9	2	5
2752.904	n/a	PROB	1376452	n/a	LTP285	ltpFR2	7	n/a	n/a	n/a	18	2	7	5	8
2754.81	n/a	STOP	1377405	n/a	LTP285	ltpFR2	7	n/a	n/a	n/a	18	n/a	n/a	n/a	n/a
2757.23	n/a	REC_START	1378615	n/a	LTP285	ltpFR2	7	11	n/a	n/a	n/a	n/a	0	0	0
2758.102	n/a	REC_WORD	1379051	wordpools/wasnorm_wordpool_576.txt	LTP285	ltpFR2	7	11	CREVICE	405	n/a	n/a	0	0	0
2759.75	n/a	REC_WORD	1379875	wordpools/wasnorm_wordpool_576.txt	LTP285	ltpFR2	7	11	PORK	1108	n/a	n/a	0	0	0
2760.612	n/a	REC_WORD	1380306	wordpools/wasnorm_wordpool_576.txt	LTP285	ltpFR2	7	11	SAUSAGE	1238	n/a	n/a	0	0	0
2762.194	n/a	REC_WORD	1381097	wordpools/wasnorm_wordpool_576.txt	LTP285	ltpFR2	7	11	SNAKE	1333	n/a	n/a	0	0	0
2764.074	n/a	REC_WORD	1382037	wordpools/wasnorm_wordpool_576.txt	LTP285	ltpFR2	7	11	STALLION	1369	n/a	n/a	0	0	0
2766.19	n/a	REC_WORD	1383095	wordpools/wasnorm_wordpool_576.txt	LTP285	ltpFR2	7	11	HORSE	719	n/a	n/a	0	0	0
2775.008	n/a	REC_WORD	1387504	wordpools/wasnorm_wordpool_576.txt	LTP285	ltpFR2	7	11	RADISH	1158	n/a	n/a	0	0	0
2783.732	n/a	REC_WORD	1391866	wordpools/wasnorm_wordpool_576.txt	LTP285	ltpFR2	7	11	DUSTPAN	509	n/a	n/a	0	0	0
2794.328	n/a	REC_WORD	1397164	wordpools/wasnorm_wordpool_576.txt	LTP285	ltpFR2	7	11	BULLET	194	n/a	n/a	0	0	0
2795.292	n/a	REC_WORD	1397646	wordpools/wasnorm_wordpool_576.txt	LTP285	ltpFR2	7	11	PISTOL	1075	n/a	n/a	0	0	0
2810.388	n/a	REC_WORD	1405194	wordpools/wasnorm_wordpool_576.txt	LTP285	ltpFR2	7	11	TORTOISE	1486	n/a	n/a	0	0	0
2847.896	n/a	DISTRACTOR	1423948	n/a	LTP285	ltpFR2	7	12	n/a	n/a	n/a	n/a	0	0	0
2847.896	n/a	START	1423948	n/a	LTP285	ltpFR2	7	n/a	n/a	n/a	19	n/a	n/a	n/a	n/a
2847.93	n/a	PROB	1423965	n/a	LTP285	ltpFR2	7	n/a	n/a	n/a	19	18	4	7	7
2849.742	n/a	PROB	1424871	n/a	LTP285	ltpFR2	7	n/a	n/a	n/a	19	12	6	5	1
2850.774	n/a	PROB	1425387	n/a	LTP285	ltpFR2	7	n/a	n/a	n/a	19	8	2	1	4
2852.008	n/a	PROB	1426004	n/a	LTP285	ltpFR2	7	n/a	n/a	n/a	19	15	6	1	8
2853.554	n/a	PROB	1426777	n/a	LTP285	ltpFR2	7	n/a	n/a	n/a	19	23	7	7	9
2854.986	n/a	PROB	1427493	n/a	LTP285	ltpFR2	7	n/a	n/a	n/a	19	19	4	9	6
2856.184	n/a	PROB	1428092	n/a	LTP285	ltpFR2	7	n/a	n/a	n/a	19	20	8	5	7
2858.196	n/a	PROB	1429098	n/a	LTP285	ltpFR2	7	n/a	n/a	n/a	19	14	4	7	3
2859.694	n/a	PROB	1429847	n/a	LTP285	ltpFR2	7	n/a	n/a	n/a	19	15	1	7	7
2860.726	n/a	PROB	1430363	n/a	LTP285	ltpFR2	7	n/a	n/a	n/a	19	15	5	1	9
2861.926	n/a	PROB	1430963	n/a	LTP285	ltpFR2	7	n/a	n/a	n/a	19	10	2	7	1
2863.09	n/a	PROB	1431545	n/a	LTP285	ltpFR2	7	n/a	n/a	n/a	19	19	3	7	9
2864.122	n/a	PROB	1432061	n/a	LTP285	ltpFR2	7	n/a	n/a	n/a	19	13	4	4	5
2865.32	n/a	PROB	1432660	n/a	LTP285	ltpFR2	7	n/a	n/a	n/a	19	19	4	7	8
2867.116	n/a	PROB	1433558	n/a	LTP285	ltpFR2	7	n/a	n/a	n/a	19	15	6	3	6
2868.664	n/a	PROB	1434332	n/a	LTP285	ltpFR2	7	n/a	n/a	n/a	19	16	9	1	6
2869.664	n/a	PROB	1434832	n/a	LTP285	ltpFR2	7	n/a	n/a	n/a	19	15	5	3	7
2870.716	n/a	STOP	1435358	n/a	LTP285	ltpFR2	7	n/a	n/a	n/a	19	n/a	n/a	n/a	n/a
2872.726	n/a	WORD	1436363	wordpools/wasnorm_wordpool_576.txt	LTP285	ltpFR2	7	12	JUGGLER	763	n/a	n/a	0	0	0
2875.338	n/a	WORD	1437669	wordpools/wasnorm_wordpool_576.txt	LTP285	ltpFR2	7	12	SALT	1229	n/a	n/a	0	0	0
2877.986	n/a	WORD	1438993	wordpools/wasnorm_wordpool_576.txt	LTP285	ltpFR2	7	12	BARREL	91	n/a	n/a	0	0	0
2880.78	n/a	WORD	1440390	wordpools/wasnorm_wordpool_576.txt	LTP285	ltpFR2	7	12	TART	1436	n/a	n/a	0	0	0
2883.244	n/a	WORD	1441622	wordpools/wasnorm_wordpool_576.txt	LTP285	ltpFR2	7	12	CANDY	230	n/a	n/a	0	0	0
2885.924	n/a	WORD	1442962	wordpools/wasnorm_wordpool_576.txt	LTP285	ltpFR2	7	12	TUNNEL	1519	n/a	n/a	0	0	0
2888.552	n/a	WORD	1444276	wordpools/wasnorm_wordpool_576.txt	LTP285	ltpFR2	7	12	ASIA	46	n/a	n/a	0	0	0
2891.116	n/a	WORD	1445558	wordpools/wasnorm_wordpool_576.txt	LTP285	ltpFR2	7	12	LONDON	843	n/a	n/a	0	0	0
2893.762	n/a	WORD	1446881	wordpools/wasnorm_wordpool_576.txt	LTP285	ltpFR2	7	12	PILOT	1070	n/a	n/a	0	0	0
2896.258	n/a	WORD	1448129	wordpools/wasnorm_wordpool_576.txt	LTP285	ltpFR2	7	12	STAR	1373	n/a	n/a	0	0	0
2898.854	n/a	WORD	1449427	wordpools/wasnorm_wordpool_576.txt	LTP285	ltpFR2	7	12	SWITCH	1422	n/a	n/a	0	0	0
2901.632	n/a	WORD	1450816	wordpools/wasnorm_wordpool_576.txt	LTP285	ltpFR2	7	12	PERFUME	1049	n/a	n/a	0	0	0
2904.23	n/a	WORD	1452115	wordpools/wasnorm_wordpool_576.txt	LTP285	ltpFR2	7	12	OX	994	n/a	n/a	0	0	0
2906.876	n/a	WORD	1453438	wordpools/wasnorm_wordpool_576.txt	LTP285	ltpFR2	7	12	OMELET	976	n/a	n/a	0	0	0
2909.354	n/a	WORD	1454677	wordpools/wasnorm_wordpool_576.txt	LTP285	ltpFR2	7	12	DAISY	435	n/a	n/a	0	0	0
2912.036	n/a	WORD	1456018	wordpools/wasnorm_wordpool_576.txt	LTP285	ltpFR2	7	12	HARP	689	n/a	n/a	0	0	0
2914.548	n/a	WORD	1457274	wordpools/wasnorm_wordpool_576.txt	LTP285	ltpFR2	7	12	SANDWICH	1232	n/a	n/a	0	0	0
2917.11	n/a	WORD	1458555	wordpools/wasnorm_wordpool_576.txt	LTP285	ltpFR2	7	12	MILK	895	n/a	n/a	0	0	0
2919.772	n/a	WORD	1459886	wordpools/wasnorm_wordpool_576.txt	LTP285	ltpFR2	7	12	AIRPLANE	12	n/a	n/a	0	0	0
2922.552	n/a	WORD	1461276	wordpools/wasnorm_wordpool_576.txt	LTP285	ltpFR2	7	12	OUTFIT	988	n/a	n/a	0	0	0
2925.198	n/a	WORD	1462599	wordpools/wasnorm_wordpool_576.txt	LTP285	ltpFR2	7	12	YACHT	1629	n/a	n/a	0	0	0
2927.644	n/a	WORD	1463822	wordpools/wasnorm_wordpool_576.txt	LTP285	ltpFR2	7	12	FIREPLACE	570	n/a	n/a	0	0	0
2930.206	n/a	WORD	1465103	wordpools/wasnorm_wordpool_576.txt	LTP285	ltpFR2	7	12	BANJO	82	n/a	n/a	0	0	0
2932.888	n/a	WORD	1466444	wordpools/wasnorm_wordpool_576.txt	LTP285	ltpFR2	7	12	PASSAGE	1019	n/a	n/a	0	0	0
2934.5	n/a	START	1467250	n/a	LTP285	ltpFR2	7	n/a	n/a	n/a	20	n/a	n/a	n/a	n/a
2935.638	n/a	DISTRACTOR	1467819	n/a	LTP285	ltpFR2	7	12	n/a	n/a	n/a	n/a	0	0	0
2935.648	n/a	PROB	1467824	n/a	LTP285	ltpFR2	7	n/a	n/a	n/a	20	10	1	1	8
2936.948	n/a	PROB	1468474	n/a	LTP285	ltpFR2	7	n/a	n/a	n/a	20	13	1	6	6
2938.344	n/a	PROB	1469172	n/a	LTP285	ltpFR2	7	n/a	n/a	n/a	20	18	8	5	5
2939.426	n/a	PROB	1469713	n/a	LTP285	ltpFR2	7	n/a	n/a	n/a	20	21	8	9	3
2941.424	n/a	PROB	1470712	n/a	LTP285	ltpFR2	7	n/a	n/a	n/a	20	18	8	7	1
2942.656	n/a	PROB	1471328	n/a	LTP285	ltpFR2	7	n/a	n/a	n/a	20	16	2	9	5
2944.286	n/a	PROB	1472143	n/a	LTP285	ltpFR2	7	n/a	n/a	n/a	20	11	1	8	2
2945.352	n/a	PROB	1472676	n/a	LTP285	ltpFR2	7	n/a	n/a	n/a	20	24	8	9	7
2947.432	n/a	PROB	1473716	n/a	LTP285	ltpFR2	7	n/a	n/a	n/a	20	13	3	3	7
2949.096	n/a	PROB	1474548	n/a	LTP285	ltpFR2	7	n/a	n/a	n/a	20	14	9	4	1
2950.36	n/a	PROB	1475180	n/a	LTP285	ltpFR2	7	n/a	n/a	n/a	20	11	9	1	1
2951.542	n/a	PROB	1475771	n/a	LTP285	ltpFR2	7	n/a	n/a	n/a	20	25	9	9	7
2953.008	n/a	PROB	1476504	n/a	LTP285	ltpFR2	7	n/a	n/a	n/a	20	12	4	4	4
2954.122	n/a	PROB	1477061	n/a	LTP285	ltpFR2	7	n/a	n/a	n/a	20	9	4	2	3
2955.62	n/a	PROB	1477810	n/a	LTP285	ltpFR2	7	n/a	n/a	n/a	20	14	2	3	9
2956.92	n/a	PROB	1478460	n/a	LTP285	ltpFR2	7	n/a	n/a	n/a	20	21	8	5	8
2958.246	n/a	STOP	1479123	n/a	LTP285	ltpFR2	7	n/a	n/a	n/a	20	n/a	n/a	n/a	n/a
2960.314	n/a	REC_START	1480157	n/a	LTP285	ltpFR2	7	12	n/a	n/a	n/a	n/a	0	0	0
2960.96	n/a	REC_WORD	1480480	wordpools/wasnorm_wordpool_576.txt	LTP285	ltpFR2	7	12	BANJO	82	n/a	n/a	0	0	0
2961.942	n/a	REC_WORD	1480971	wordpools/wasnorm_wordpool_576.txt	LTP285	ltpFR2	7	12	HARP	689	n/a	n/a	0	0	0
2963.142	n/a	REC_WORD	1481571	wordpools/wasnorm_wordpool_576.txt	LTP285	ltpFR2	7	12	PASSAGE	1019	n/a	n/a	0	0	0
2964.362	n/a	REC_WORD	1482181	wordpools/wasnorm_wordpool_576.txt	LTP285	ltpFR2	7	12	SANDWICH	1232	n/a	n/a	0	0	0
2981.262	n/a	REC_WORD	1490631	wordpools/wasnorm_wordpool_576.txt	LTP285	ltpFR2	7	12	OX	994	n/a	n/a	0	0	0
2988.548	n/a	REC_WORD	1494274	wordpools/wasnorm_wordpool_576.txt	LTP285	ltpFR2	7	12	PERFUME	1049	n/a	n/a	0	0	0
2990.028	n/a	REC_WORD	1495014	wordpools/wasnorm_wordpool_576.txt	LTP285	ltpFR2	7	12	DAISY	435	n/a	n/a	0	0	0
2996.0	n/a	REC_WORD	1498000	wordpools/wasnorm_wordpool_576.txt	LTP285	ltpFR2	7	12	ASIA	46	n/a	n/a	0	0	0
2998.07	n/a	REC_WORD	1499035	wordpools/wasnorm_wordpool_576.txt	LTP285	ltpFR2	7	12	LONDON	843	n/a	n/a	0	0	0
3051.046	n/a	DISTRACTOR	1525523	n/a	LTP285	ltpFR2	7	13	n/a	n/a	n/a	n/a	0	0	0
3051.046	n/a	START	1525523	n/a	LTP285	ltpFR2	7	n/a	n/a	n/a	21	n/a	n/a	n/a	n/a
3051.078	n/a	PROB	1525539	n/a	LTP285	ltpFR2	7	n/a	n/a	n/a	21	18	4	7	7
3052.56	n/a	PROB	1526280	n/a	LTP285	ltpFR2	7	n/a	n/a	n/a	21	25	7	9	9
3054.374	n/a	PROB	1527187	n/a	LTP285	ltpFR2	7	n/a	n/a	n/a	21	14	4	9	1
3055.372	n/a	PROB	1527686	n/a	LTP285	ltpFR2	7	n/a	n/a	n/a	21	4	2	1	1
3056.204	n/a	PROB	1528102	n/a	LTP285	ltpFR2	7	n/a	n/a	n/a	21	17	4	7	6
3057.602	n/a	PROB	1528801	n/a	LTP285	ltpFR2	7	n/a	n/a	n/a	21	13	6	6	1
3058.8	n/a	PROB	1529400	n/a	LTP285	ltpFR2	7	n/a	n/a	n/a	21	16	4	4	8
3060.63	n/a	PROB	1530315	n/a	LTP285	ltpFR2	7	n/a	n/a	n/a	21	13	1	5	7
3062.046	n/a	PROB	1531023	n/a	LTP285	ltpFR2	7	n/a	n/a	n/a	21	20	4	7	9
3063.426	n/a	PROB	1531713	n/a	LTP285	ltpFR2	7	n/a	n/a	n/a	21	20	8	5	7
3065.058	n/a	PROB	1532529	n/a	LTP285	ltpFR2	7	n/a	n/a	n/a	21	15	2	8	5
3066.172	n/a	PROB	1533086	n/a	LTP285	ltpFR2	7	n/a	n/a	n/a	21	13	1	4	8
3067.404	n/a	PROB	1533702	n/a	LTP285	ltpFR2	7	n/a	n/a	n/a	21	13	1	3	9
3068.818	n/a	PROB	1534409	n/a	LTP285	ltpFR2	7	n/a	n/a	n/a	21	11	6	3	1
3069.952	n/a	PROB	1534976	n/a	LTP285	ltpFR2	7	n/a	n/a	n/a	21	10	1	6	3
3072.364	n/a	PROB	1536182	n/a	LTP285	ltpFR2	7	n/a	n/a	n/a	21	20	7	7	6
3073.534	n/a	STOP	1536767	n/a	LTP285	ltpFR2	7	n/a	n/a	n/a	21	n/a	n/a	n/a	n/a
3076.174	n/a	WORD	1538087	wordpools/wasnorm_wordpool_576.txt	LTP285	ltpFR2	7	13	SCOTCH	1251	n/a	n/a	0	0	0
3078.82	n/a	WORD	1539410	wordpools/wasnorm_wordpool_576.txt	LTP285	ltpFR2	7	13	CONVICT	371	n/a	n/a	0	0	0
3081.484	n/a	WORD	1540742	wordpools/wasnorm_wordpool_576.txt	LTP285	ltpFR2	7	13	VICTIM	1562	n/a	n/a	0	0	0
3084.048	n/a	WORD	1542024	wordpools/wasnorm_wordpool_576.txt	LTP285	ltpFR2	7	13	YOLK	1633	n/a	n/a	0	0	0
3086.676	n/a	WORD	1543338	wordpools/wasnorm_wordpool_576.txt	LTP285	ltpFR2	7	13	DRUG	501	n/a	n/a	0	0	0
3089.122	n/a	WORD	1544561	wordpools/wasnorm_wordpool_576.txt	LTP285	ltpFR2	7	13	STONE	1385	n/a	n/a	0	0	0
3091.802	n/a	WORD	1545901	wordpools/wasnorm_wordpool_576.txt	LTP285	ltpFR2	7	13	PUPIL	1143	n/a	n/a	0	0	0
3094.43	n/a	WORD	1547215	wordpools/wasnorm_wordpool_576.txt	LTP285	ltpFR2	7	13	POCKET	1093	n/a	n/a	0	0	0
3097.16	n/a	WORD	1548580	wordpools/wasnorm_wordpool_576.txt	LTP285	ltpFR2	7	13	COTTAGE	384	n/a	n/a	0	0	0
3099.606	n/a	WORD	1549803	wordpools/wasnorm_wordpool_576.txt	LTP285	ltpFR2	7	13	BOYFRIEND	162	n/a	n/a	0	0	0
3102.252	n/a	WORD	1551126	wordpools/wasnorm_wordpool_576.txt	LTP285	ltpFR2	7	13	PIANO	1057	n/a	n/a	0	0	0
3104.798	n/a	WORD	1552399	wordpools/wasnorm_wordpool_576.txt	LTP285	ltpFR2	7	13	POWDER	1117	n/a	n/a	0	0	0
3107.594	n/a	WORD	1553797	wordpools/wasnorm_wordpool_576.txt	LTP285	ltpFR2	7	13	CIGAR	308	n/a	n/a	0	0	0
3110.374	n/a	WORD	1555187	wordpools/wasnorm_wordpool_576.txt	LTP285	ltpFR2	7	13	EYELASH	546	n/a	n/a	0	0	0
3112.838	n/a	WORD	1556419	wordpools/wasnorm_wordpool_576.txt	LTP285	ltpFR2	7	13	SHIRT	1287	n/a	n/a	0	0	0
3115.366	n/a	WORD	1557683	wordpools/wasnorm_wordpool_576.txt	LTP285	ltpFR2	7	13	MOP	916	n/a	n/a	0	0	0
3117.98	n/a	WORD	1558990	wordpools/wasnorm_wordpool_576.txt	LTP285	ltpFR2	7	13	NIGHTGOWN	953	n/a	n/a	0	0	0
3120.542	n/a	WORD	1560271	wordpools/wasnorm_wordpool_576.txt	LTP285	ltpFR2	7	13	DONOR	485	n/a	n/a	0	0	0
3123.024	n/a	WORD	1561512	wordpools/wasnorm_wordpool_576.txt	LTP285	ltpFR2	7	13	TURNIP	1521	n/a	n/a	0	0	0
3125.834	n/a	WORD	1562917	wordpools/wasnorm_wordpool_576.txt	LTP285	ltpFR2	7	13	CLOTHES	327	n/a	n/a	0	0	0
3128.298	n/a	WORD	1564149	wordpools/wasnorm_wordpool_576.txt	LTP285	ltpFR2	7	13	HAMPER	682	n/a	n/a	0	0	0
3130.962	n/a	WORD	1565481	wordpools/wasnorm_wordpool_576.txt	LTP285	ltpFR2	7	13	CONCERT	360	n/a	n/a	0	0	0
3133.74	n/a	WORD	1566870	wordpools/wasnorm_wordpool_576.txt	LTP285	ltpFR2	7	13	RUST	1219	n/a	n/a	0	0	0
3136.518	n/a	WORD	1568259	wordpools/wasnorm_wordpool_576.txt	LTP285	ltpFR2	7	13	TILE	1468	n/a	n/a	0	0	0
3138.134	n/a	START	1569067	n/a	LTP285	ltpFR2	7	n/a	n/a	n/a	22	n/a	n/a	n/a	n/a
3139.25	n/a	DISTRACTOR	1569625	n/a	LTP285	ltpFR2	7	13	n/a	n/a	n/a	n/a	0	0	0
3139.264	n/a	PROB	1569632	n/a	LTP285	ltpFR2	7	n/a	n/a	n/a	22	15	5	4	6
3141.562	n/a	PROB	1570781	n/a	LTP285	ltpFR2	7	n/a	n/a	n/a	22	17	8	5	4
3143.108	n/a	PROB	1571554	n/a	LTP285	ltpFR2	7	n/a	n/a	n/a	22	13	2	6	5
3144.64	n/a	PROB	1572320	n/a	LTP285	ltpFR2	7	n/a	n/a	n/a	22	16	9	1	6
3146.304	n/a	PROB	1573152	n/a	LTP285	ltpFR2	7	n/a	n/a	n/a	22	19	6	7	6
3147.802	n/a	PROB	1573901	n/a	LTP285	ltpFR2	7	n/a	n/a	n/a	22	5	1	1	3
3148.818	n/a	PROB	1574409	n/a	LTP285	ltpFR2	7	n/a	n/a	n/a	22	6	3	5	8
3150.314	n/a	PROB	1575157	n/a	LTP285	ltpFR2	7	n/a	n/a	n/a	22	22	9	4	9
3152.794	n/a	PROB	1576397	n/a	LTP285	ltpFR2	7	n/a	n/a	n/a	22	10	4	5	1
3154.658	n/a	PROB	1577329	n/a	LTP285	ltpFR2	7	n/a	n/a	n/a	22	15	5	8	2
3155.94	n/a	PROB	1577970	n/a	LTP285	ltpFR2	7	n/a	n/a	n/a	22	7	2	6	1
3158.252	n/a	PROB	1579126	n/a	LTP285	ltpFR2	7	n/a	n/a	n/a	22	16	8	7	1
3159.6	n/a	PROB	1579800	n/a	LTP285	ltpFR2	7	n/a	n/a	n/a	22	18	8	4	6
3160.696	n/a	STOP	1580348	n/a	LTP285	ltpFR2	7	n/a	n/a	n/a	22	n/a	n/a	n/a	n/a
3163.98	n/a	REC_START	1581990	n/a	LTP285	ltpFR2	7	13	n/a	n/a	n/a	n/a	0	0	0
3164.552	n/a	REC_WORD	1582276	wordpools/wasnorm_wordpool_576.txt	LTP285	ltpFR2	7	13	HAMPER	682	n/a	n/a	0	0	0
3165.462	n/a	REC_WORD	1582731	wordpools/wasnorm_wordpool_576.txt	LTP285	ltpFR2	7	13	CLOTHES	327	n/a	n/a	0	0	0
3166.48	n/a	REC_WORD	1583240	wordpools/wasnorm_wordpool_576.txt	LTP285	ltpFR2	7	13	SHIRT	1287	n/a	n/a	0	0	0
3167.808	n/a	REC_WORD	1583904	wordpools/wasnorm_wordpool_576.txt	LTP285	ltpFR2	7	13	RUST	1219	n/a	n/a	0	0	0
3171.028	n/a	REC_WORD	1585514	wordpools/wasnorm_wordpool_576.txt	LTP285	ltpFR2	7	13	TURNIP	1521	n/a	n/a	0	0	0
3174.376	n/a	REC_WORD	1587188	wordpools/wasnorm_wordpool_576.txt	LTP285	ltpFR2	7	13	POCKET	1093	n/a	n/a	0	0	0
3177.86	n/a	REC_WORD	1588930	wordpools/wasnorm_wordpool_576.txt	LTP285	ltpFR2	7	13	TILE	1468	n/a	n/a	0	0	0
3187.688	n/a	REC_WORD	1593844	wordpools/wasnorm_wordpool_576.txt	LTP285	ltpFR2	7	13	BOYFRIEND	162	n/a	n/a	0	0	0
3194.46	n/a	REC_WORD	1597230	wordpools/wasnorm_wordpool_576.txt	LTP285	ltpFR2	7	13	CONCERT	360	n/a	n/a	0	0	0
3208.132	n/a	REC_WORD	1604066	wordpools/wasnorm_wordpool_576.txt	LTP285	ltpFR2	7	13	EYELASH	546	n/a	n/a	0	0	0
3221.794	n/a	REC_WORD	1610897	wordpools/wasnorm_wordpool_576.txt	LTP285	ltpFR2	7	13	PIANO	1057	n/a	n/a	0	0	0
3232.634	n/a	REC_WORD	1616317	wordpools/wasnorm_wordpool_576.txt	LTP285	ltpFR2	7	13	MOP	916	n/a	n/a	0	0	0
3254.626	n/a	DISTRACTOR	1627313	n/a	LTP285	ltpFR2	7	14	n/a	n/a	n/a	n/a	0	0	0
3254.626	n/a	START	1627313	n/a	LTP285	ltpFR2	7	n/a	n/a	n/a	23	n/a	n/a	n/a	n/a
3254.66	n/a	PROB	1627330	n/a	LTP285	ltpFR2	7	n/a	n/a	n/a	23	19	7	3	9
3255.692	n/a	PROB	1627846	n/a	LTP285	ltpFR2	7	n/a	n/a	n/a	23	9	1	6	2
3257.638	n/a	PROB	1628819	n/a	LTP285	ltpFR2	7	n/a	n/a	n/a	23	12	2	7	3
3258.704	n/a	PROB	1629352	n/a	LTP285	ltpFR2	7	n/a	n/a	n/a	23	14	3	6	5
3260.734	n/a	PROB	1630367	n/a	LTP285	ltpFR2	7	n/a	n/a	n/a	23	1	2	7	1
3261.732	n/a	PROB	1630866	n/a	LTP285	ltpFR2	7	n/a	n/a	n/a	23	20	2	8	8
3264.246	n/a	PROB	1632123	n/a	LTP285	ltpFR2	7	n/a	n/a	n/a	23	18	4	5	9
3267.192	n/a	PROB	1633596	n/a	LTP285	ltpFR2	7	n/a	n/a	n/a	23	11	1	2	8
3268.306	n/a	PROB	1634153	n/a	LTP285	ltpFR2	7	n/a	n/a	n/a	23	1	6	1	9
3269.99	n/a	PROB	1634995	n/a	LTP285	ltpFR2	7	n/a	n/a	n/a	23	13	7	5	1
3271.618	n/a	PROB	1635809	n/a	LTP285	ltpFR2	7	n/a	n/a	n/a	23	14	4	9	1
3273.1	n/a	PROB	1636550	n/a	LTP285	ltpFR2	7	n/a	n/a	n/a	23	11	3	2	6
3274.382	n/a	PROB	1637191	n/a	LTP285	ltpFR2	7	n/a	n/a	n/a	23	12	3	3	6
3275.43	n/a	PROB	1637715	n/a	LTP285	ltpFR2	7	n/a	n/a	n/a	23	14	2	5	7
3276.896	n/a	PROB	1638448	n/a	LTP285	ltpFR2	7	n/a	n/a	n/a	23	16	5	4	7
3278.258	n/a	STOP	1639129	n/a	LTP285	ltpFR2	7	n/a	n/a	n/a	23	n/a	n/a	n/a	n/a
3279.474	n/a	WORD	1639737	wordpools/wasnorm_wordpool_576.txt	LTP285	ltpFR2	7	14	RIVER	1194	n/a	n/a	0	0	0
3282.236	n/a	WORD	1641118	wordpools/wasnorm_wordpool_576.txt	LTP285	ltpFR2	7	14	ROOSTER	1209	n/a	n/a	0	0	0
3284.866	n/a	WORD	1642433	wordpools/wasnorm_wordpool_576.txt	LTP285	ltpFR2	7	14	MOTEL	919	n/a	n/a	0	0	0
3287.546	n/a	WORD	1643773	wordpools/wasnorm_wordpool_576.txt	LTP285	ltpFR2	7	14	MARS	873	n/a	n/a	0	0	0
3289.992	n/a	WORD	1644996	wordpools/wasnorm_wordpool_576.txt	LTP285	ltpFR2	7	14	ANTLER	29	n/a	n/a	0	0	0
3292.522	n/a	WORD	1646261	wordpools/wasnorm_wordpool_576.txt	LTP285	ltpFR2	7	14	CHURCH	307	n/a	n/a	0	0	0
3295.218	n/a	WORD	1647609	wordpools/wasnorm_wordpool_576.txt	LTP285	ltpFR2	7	14	CREATURE	403	n/a	n/a	0	0	0
3297.83	n/a	WORD	1648915	wordpools/wasnorm_wordpool_576.txt	LTP285	ltpFR2	7	14	MATTRESS	879	n/a	n/a	0	0	0
3300.41	n/a	WORD	1650205	wordpools/wasnorm_wordpool_576.txt	LTP285	ltpFR2	7	14	TERMITE	1451	n/a	n/a	0	0	0
3303.138	n/a	WORD	1651569	wordpools/wasnorm_wordpool_576.txt	LTP285	ltpFR2	7	14	SLIDE	1326	n/a	n/a	0	0	0
3305.652	n/a	WORD	1652826	wordpools/wasnorm_wordpool_576.txt	LTP285	ltpFR2	7	14	ICING	732	n/a	n/a	0	0	0
3308.364	n/a	WORD	1654182	wordpools/wasnorm_wordpool_576.txt	LTP285	ltpFR2	7	14	FRIAR	605	n/a	n/a	0	0	0
3311.028	n/a	WORD	1655514	wordpools/wasnorm_wordpool_576.txt	LTP285	ltpFR2	7	14	LADDER	793	n/a	n/a	0	0	0
3313.64	n/a	WORD	1656820	wordpools/wasnorm_wordpool_576.txt	LTP285	ltpFR2	7	14	TREAT	1501	n/a	n/a	0	0	0
3316.07	n/a	WORD	1658035	wordpools/wasnorm_wordpool_576.txt	LTP285	ltpFR2	7	14	FRUIT	610	n/a	n/a	0	0	0
3318.648	n/a	WORD	1659324	wordpools/wasnorm_wordpool_576.txt	LTP285	ltpFR2	7	14	SHORTCAKE	1292	n/a	n/a	0	0	0
3321.394	n/a	WORD	1660697	wordpools/wasnorm_wordpool_576.txt	LTP285	ltpFR2	7	14	ITEM	746	n/a	n/a	0	0	0
3324.058	n/a	WORD	1662029	wordpools/wasnorm_wordpool_576.txt	LTP285	ltpFR2	7	14	JOURNAL	760	n/a	n/a	0	0	0
3326.836	n/a	WORD	1663418	wordpools/wasnorm_wordpool_576.txt	LTP285	ltpFR2	7	14	LOFT	840	n/a	n/a	0	0	0
3329.316	n/a	WORD	1664658	wordpools/wasnorm_wordpool_576.txt	LTP285	ltpFR2	7	14	SWIMMER	1420	n/a	n/a	0	0	0
3331.896	n/a	WORD	1665948	wordpools/wasnorm_wordpool_576.txt	LTP285	ltpFR2	7	14	GRAVEL	659	n/a	n/a	0	0	0
3334.708	n/a	WORD	1667354	wordpools/wasnorm_wordpool_576.txt	LTP285	ltpFR2	7	14	DUST	508	n/a	n/a	0	0	0
3337.37	n/a	WORD	1668685	wordpools/wasnorm_wordpool_576.txt	LTP285	ltpFR2	7	14	MARSH	874	n/a	n/a	0	0	0
3340.1	n/a	WORD	1670050	wordpools/wasnorm_wordpool_576.txt	LTP285	ltpFR2	7	14	GAZELLE	628	n/a	n/a	0	0	0
3341.714	n/a	START	1670857	n/a	LTP285	ltpFR2	7	n/a	n/a	n/a	24	n/a	n/a	n/a	n/a
3342.752	n/a	DISTRACTOR	1671376	n/a	LTP285	ltpFR2	7	14	n/a	n/a	n/a	n/a	0	0	0
3342.762	n/a	PROB	1671381	n/a	LTP285	ltpFR2	7	n/a	n/a	n/a	24	16	5	4	7
3344.21	n/a	PROB	1672105	n/a	LTP285	ltpFR2	7	n/a	n/a	n/a	24	12	4	3	5
3345.792	n/a	PROB	1672896	n/a	LTP285	ltpFR2	7	n/a	n/a	n/a	24	13	3	9	1
3347.456	n/a	PROB	1673728	n/a	LTP285	ltpFR2	7	n/a	n/a	n/a	24	14	7	4	3
3348.838	n/a	PROB	1674419	n/a	LTP285	ltpFR2	7	n/a	n/a	n/a	24	16	4	8	4
3349.988	n/a	PROB	1674994	n/a	LTP285	ltpFR2	7	n/a	n/a	n/a	24	17	3	6	8
3351.334	n/a	PROB	1675667	n/a	LTP285	ltpFR2	7	n/a	n/a	n/a	24	13	4	7	2
3352.632	n/a	PROB	1676316	n/a	LTP285	ltpFR2	7	n/a	n/a	n/a	24	15	4	8	3
3354.114	n/a	PROB	1677057	n/a	LTP285	ltpFR2	7	n/a	n/a	n/a	24	18	8	5	5
3355.162	n/a	PROB	1677581	n/a	LTP285	ltpFR2	7	n/a	n/a	n/a	24	11	2	2	7
3356.16	n/a	PROB	1678080	n/a	LTP285	ltpFR2	7	n/a	n/a	n/a	24	15	4	9	2
3357.792	n/a	PROB	1678896	n/a	LTP285	ltpFR2	7	n/a	n/a	n/a	24	2	4	7	9
3359.34	n/a	PROB	1679670	n/a	LTP285	ltpFR2	7	n/a	n/a	n/a	24	8	4	3	1
3360.688	n/a	PROB	1680344	n/a	LTP285	ltpFR2	7	n/a	n/a	n/a	24	16	8	4	4
3361.736	n/a	PROB	1680868	n/a	LTP285	ltpFR2	7	n/a	n/a	n/a	24	13	2	4	7
3363.116	n/a	PROB	1681558	n/a	LTP285	ltpFR2	7	n/a	n/a	n/a	24	6	2	2	2
3364.016	n/a	PROB	1682008	n/a	LTP285	ltpFR2	7	n/a	n/a	n/a	24	17	7	3	7
3365.13	n/a	STOP	1682565	n/a	LTP285	ltpFR2	7	n/a	n/a	n/a	24	n/a	n/a	n/a	n/a
3367.594	n/a	REC_START	1683797	n/a	LTP285	ltpFR2	7	14	n/a	n/a	n/a	n/a	0	0	0
3368.376	n/a	REC_WORD	1684188	wordpools/wasnorm_wordpool_576.txt	LTP285	ltpFR2	7	14	DUST	508	n/a	n/a	0	0	0
3369.352	n/a	REC_WORD	1684676	wordpools/wasnorm_wordpool_576.txt	LTP285	ltpFR2	7	14	GAZELLE	628	n/a	n/a	0	0	0
3370.53	n/a	REC_WORD	1685265	wordpools/wasnorm_wordpool_576.txt	LTP285	ltpFR2	7	14	FRIAR	605	n/a	n/a	0	0	0
3371.612	n/a	REC_WORD	1685806	wordpools/wasnorm_wordpool_576.txt	LTP285	ltpFR2	7	14	CHURCH	307	n/a	n/a	0	0	0
3373.238	n/a	REC_WORD	1686619	wordpools/wasnorm_wordpool_576.txt	LTP285	ltpFR2	7	14	ICING	732	n/a	n/a	0	0	0
3374.332	n/a	REC_WORD	1687166	wordpools/wasnorm_wordpool_576.txt	LTP285	ltpFR2	7	14	TREAT	1501	n/a	n/a	0	0	0
3376.76	n/a	REC_WORD	1688380	wordpools/wasnorm_wordpool_576.txt	LTP285	ltpFR2	7	14	SHORTCAKE	1292	n/a	n/a	0	0	0
3382.038	n/a	REC_WORD	1691019	wordpools/wasnorm_wordpool_576.txt	LTP285	ltpFR2	7	14	MARSH	874	n/a	n/a	0	0	0
3385.494	n/a	REC_WORD	1692747	wordpools/wasnorm_wordpool_576.txt	LTP285	ltpFR2	7	14	LOFT	840	n/a	n/a	0	0	0
3387.25	n/a	REC_WORD	1693625	wordpools/wasnorm_wordpool_576.txt	LTP285	ltpFR2	7	14	ITEM	746	n/a	n/a	0	0	0
3388.828	n/a	REC_WORD	1694414	wordpools/wasnorm_wordpool_576.txt	LTP285	ltpFR2	7	14	JOURNAL	760	n/a	n/a	0	0	0
3401.622	n/a	REC_WORD	1700811	wordpools/wasnorm_wordpool_576.txt	LTP285	ltpFR2	7	14	NIGHTGOWN	953	n/a	n/a	0	0	0
3458.226	n/a	DISTRACTOR	1729113	n/a	LTP285	ltpFR2	7	15	n/a	n/a	n/a	n/a	0	0	0
3458.226	n/a	START	1729113	n/a	LTP285	ltpFR2	7	n/a	n/a	n/a	25	n/a	n/a	n/a	n/a
3458.26	n/a	PROB	1729130	n/a	LTP285	ltpFR2	7	n/a	n/a	n/a	25	12	2	1	9
3460.406	n/a	PROB	1730203	n/a	LTP285	ltpFR2	7	n/a	n/a	n/a	25	14	1	8	5
3462.104	n/a	PROB	1731052	n/a	LTP285	ltpFR2	7	n/a	n/a	n/a	25	20	8	9	3
3464.25	n/a	PROB	1732125	n/a	LTP285	ltpFR2	7	n/a	n/a	n/a	25	16	7	8	1
3465.882	n/a	PROB	1732941	n/a	LTP285	ltpFR2	7	n/a	n/a	n/a	25	21	8	4	9
3467.528	n/a	PROB	1733764	n/a	LTP285	ltpFR2	7	n/a	n/a	n/a	25	7	1	4	2
3469.642	n/a	PROB	1734821	n/a	LTP285	ltpFR2	7	n/a	n/a	n/a	25	17	6	7	4
3471.422	n/a	PROB	1735711	n/a	LTP285	ltpFR2	7	n/a	n/a	n/a	25	13	5	6	2
3472.788	n/a	PROB	1736394	n/a	LTP285	ltpFR2	7	n/a	n/a	n/a	25	21	7	6	8
3474.768	n/a	PROB	1737384	n/a	LTP285	ltpFR2	7	n/a	n/a	n/a	25	14	3	6	9
3476.948	n/a	PROB	1738474	n/a	LTP285	ltpFR2	7	n/a	n/a	n/a	25	16	5	6	5
3478.296	n/a	PROB	1739148	n/a	LTP285	ltpFR2	7	n/a	n/a	n/a	25	16	6	1	9
3479.928	n/a	PROB	1739964	n/a	LTP285	ltpFR2	7	n/a	n/a	n/a	25	17	8	2	7
3481.124	n/a	STOP	1740562	n/a	LTP285	ltpFR2	7	n/a	n/a	n/a	25	n/a	n/a	n/a	n/a
3483.404	n/a	WORD	1741702	wordpools/wasnorm_wordpool_576.txt	LTP285	ltpFR2	7	15	SHORTS	1293	n/a	n/a	0	0	0
3485.986	n/a	WORD	1742993	wordpools/wasnorm_wordpool_576.txt	LTP285	ltpFR2	7	15	CARROT	249	n/a	n/a	0	0	0
3488.58	n/a	WORD	1744290	wordpools/wasnorm_wordpool_576.txt	LTP285	ltpFR2	7	15	SHERIFF	1284	n/a	n/a	0	0	0
3491.076	n/a	WORD	1745538	wordpools/wasnorm_wordpool_576.txt	LTP285	ltpFR2	7	15	TYPIST	1532	n/a	n/a	0	0	0
3493.872	n/a	WORD	1746936	wordpools/wasnorm_wordpool_576.txt	LTP285	ltpFR2	7	15	CASHEW	253	n/a	n/a	0	0	0
3496.418	n/a	WORD	1748209	wordpools/wasnorm_wordpool_576.txt	LTP285	ltpFR2	7	15	WHISKERS	1605	n/a	n/a	0	0	0
3499.114	n/a	WORD	1749557	wordpools/wasnorm_wordpool_576.txt	LTP285	ltpFR2	7	15	WAITER	1580	n/a	n/a	0	0	0
3501.644	n/a	WORD	1750822	wordpools/wasnorm_wordpool_576.txt	LTP285	ltpFR2	7	15	CAFE	216	n/a	n/a	0	0	0
3504.208	n/a	WORD	1752104	wordpools/wasnorm_wordpool_576.txt	LTP285	ltpFR2	7	15	SHOVEL	1295	n/a	n/a	0	0	0
3506.704	n/a	WORD	1753352	wordpools/wasnorm_wordpool_576.txt	LTP285	ltpFR2	7	15	ZIPPER	1636	n/a	n/a	0	0	0
3509.4	n/a	WORD	1754700	wordpools/wasnorm_wordpool_576.txt	LTP285	ltpFR2	7	15	SADDLE	1221	n/a	n/a	0	0	0
3512.096	n/a	WORD	1756048	wordpools/wasnorm_wordpool_576.txt	LTP285	ltpFR2	7	15	WINDOW	1611	n/a	n/a	0	0	0
3514.692	n/a	WORD	1757346	wordpools/wasnorm_wordpool_576.txt	LTP285	ltpFR2	7	15	LION	827	n/a	n/a	0	0	0
3517.156	n/a	WORD	1758578	wordpools/wasnorm_wordpool_576.txt	LTP285	ltpFR2	7	15	DRESSER	496	n/a	n/a	0	0	0
3519.968	n/a	WORD	1759984	wordpools/wasnorm_wordpool_576.txt	LTP285	ltpFR2	7	15	AGENT	10	n/a	n/a	0	0	0
3522.598	n/a	WORD	1761299	wordpools/wasnorm_wordpool_576.txt	LTP285	ltpFR2	7	15	PLAZA	1088	n/a	n/a	0	0	0
3525.044	n/a	WORD	1762522	wordpools/wasnorm_wordpool_576.txt	LTP285	ltpFR2	7	15	FRAGRANCE	599	n/a	n/a	0	0	0
3527.574	n/a	WORD	1763787	wordpools/wasnorm_wordpool_576.txt	LTP285	ltpFR2	7	15	ORANGE	980	n/a	n/a	0	0	0
3530.07	n/a	WORD	1765035	wordpools/wasnorm_wordpool_576.txt	LTP285	ltpFR2	7	15	LADY	794	n/a	n/a	0	0	0
3532.6	n/a	WORD	1766300	wordpools/wasnorm_wordpool_576.txt	LTP285	ltpFR2	7	15	WOMAN	1620	n/a	n/a	0	0	0
3535.362	n/a	WORD	1767681	wordpools/wasnorm_wordpool_576.txt	LTP285	ltpFR2	7	15	FOREHEAD	592	n/a	n/a	0	0	0
3538.058	n/a	WORD	1769029	wordpools/wasnorm_wordpool_576.txt	LTP285	ltpFR2	7	15	ROD	1203	n/a	n/a	0	0	0
3540.77	n/a	WORD	1770385	wordpools/wasnorm_wordpool_576.txt	LTP285	ltpFR2	7	15	CAPTIVE	240	n/a	n/a	0	0	0
3543.334	n/a	WORD	1771667	wordpools/wasnorm_wordpool_576.txt	LTP285	ltpFR2	7	15	COLONEL	348	n/a	n/a	0	0	0
3544.948	n/a	START	1772474	n/a	LTP285	ltpFR2	7	n/a	n/a	n/a	26	n/a	n/a	n/a	n/a
3545.966	n/a	DISTRACTOR	1772983	n/a	LTP285	ltpFR2	7	15	n/a	n/a	n/a	n/a	0	0	0
3545.98	n/a	PROB	1772990	n/a	LTP285	ltpFR2	7	n/a	n/a	n/a	26	7	1	5	1
3547.476	n/a	PROB	1773738	n/a	LTP285	ltpFR2	7	n/a	n/a	n/a	26	18	4	5	9
3549.624	n/a	PROB	1774812	n/a	LTP285	ltpFR2	7	n/a	n/a	n/a	26	14	3	3	8
3550.872	n/a	PROB	1775436	n/a	LTP285	ltpFR2	7	n/a	n/a	n/a	26	13	7	4	2
3551.988	n/a	PROB	1775994	n/a	LTP285	ltpFR2	7	n/a	n/a	n/a	26	23	7	7	9
3553.368	n/a	PROB	1776684	n/a	LTP285	ltpFR2	7	n/a	n/a	n/a	26	21	9	5	7
3555.132	n/a	PROB	1777566	n/a	LTP285	ltpFR2	7	n/a	n/a	n/a	26	18	7	6	5
3557.096	n/a	PROB	1778548	n/a	LTP285	ltpFR2	7	n/a	n/a	n/a	26	14	2	3	9
3558.328	n/a	PROB	1779164	n/a	LTP285	ltpFR2	7	n/a	n/a	n/a	26	16	5	6	1
3559.626	n/a	PROB	1779813	n/a	LTP285	ltpFR2	7	n/a	n/a	n/a	26	23	7	9	9
3561.472	n/a	PROB	1780736	n/a	LTP285	ltpFR2	7	n/a	n/a	n/a	26	14	1	9	4
3562.638	n/a	PROB	1781319	n/a	LTP285	ltpFR2	7	n/a	n/a	n/a	26	17	9	4	4
3565.034	n/a	PROB	1782517	n/a	LTP285	ltpFR2	7	n/a	n/a	n/a	26	12	3	4	5
3567.08	n/a	PROB	1783540	n/a	LTP285	ltpFR2	7	n/a	n/a	n/a	26	21	9	6	6
3568.628	n/a	STOP	1784314	n/a	LTP285	ltpFR2	7	n/a	n/a	n/a	26	n/a	n/a	n/a	n/a
3570.792	n/a	REC_START	1785396	n/a	LTP285	ltpFR2	7	15	n/a	n/a	n/a	n/a	0	0	0
3571.308	n/a	REC_WORD	1785654	wordpools/wasnorm_wordpool_576.txt	LTP285	ltpFR2	7	15	ROD	1203	n/a	n/a	0	0	0
3572.79	n/a	REC_WORD	1786395	wordpools/wasnorm_wordpool_576.txt	LTP285	ltpFR2	7	15	COLONEL	348	n/a	n/a	0	0	0
3574.09	n/a	REC_WORD	1787045	wordpools/wasnorm_wordpool_576.txt	LTP285	ltpFR2	7	15	CAPTIVE	240	n/a	n/a	0	0	0
3577.818	n/a	REC_WORD	1788909	wordpools/wasnorm_wordpool_576.txt	LTP285	ltpFR2	7	15	DRESSER	496	n/a	n/a	0	0	0
3585.4	n/a	REC_WORD	1792700	wordpools/wasnorm_wordpool_576.txt	LTP285	ltpFR2	7	15	SHORTS	1293	n/a	n/a	0	0	0
3603.224	n/a	REC_WORD	1801612	wordpools/wasnorm_wordpool_576.txt	LTP285	ltpFR2	7	15	FRAGRANCE	599	n/a	n/a	0	0	0
3604.482	n/a	REC_WORD	1802241	wordpools/wasnorm_wordpool_576.txt	LTP285	ltpFR2	7	15	LADY	794	n/a	n/a	0	0	0
3605.484	n/a	REC_WORD	1802742	wordpools/wasnorm_wordpool_576.txt	LTP285	ltpFR2	7	15	WOMAN	1620	n/a	n/a	0	0	0
3621.792	n/a	REC_WORD	1810896	wordpools/wasnorm_wordpool_576.txt	LTP285	ltpFR2	7	15	MARS	873	n/a	n/a	0	0	0
3634.192	n/a	REC_WORD	1817096	wordpools/wasnorm_wordpool_576.txt	LTP285	ltpFR2	7	15	MISSILE	900	n/a	n/a	0	0	0
3645.538	n/a	REC_WORD	1822769	wordpools/wasnorm_wordpool_576.txt	LTP285	ltpFR2	7	15	ORANGE	980	n/a	n/a	0	0	0
3661.474	n/a	WORD	1830737	wordpools/wasnorm_wordpool_576.txt	LTP285	ltpFR2	7	16	TABLE	1426	n/a	n/a	0	0	0
3663.906	n/a	WORD	1831953	wordpools/wasnorm_wordpool_576.txt	LTP285	ltpFR2	7	16	TROMBONE	1508	n/a	n/a	0	0	0
3666.55	n/a	WORD	1833275	wordpools/wasnorm_wordpool_576.txt	LTP285	ltpFR2	7	16	CELLAR	267	n/a	n/a	0	0	0
3669.164	n/a	WORD	1834582	wordpools/wasnorm_wordpool_576.txt	LTP285	ltpFR2	7	16	SISTER	1312	n/a	n/a	0	0	0
3671.894	n/a	WORD	1835947	wordpools/wasnorm_wordpool_576.txt	LTP285	ltpFR2	7	16	LIPSTICK	829	n/a	n/a	0	0	0
3674.406	n/a	WORD	1837203	wordpools/wasnorm_wordpool_576.txt	LTP285	ltpFR2	7	16	SPONGE	1355	n/a	n/a	0	0	0
3677.218	n/a	WORD	1838609	wordpools/wasnorm_wordpool_576.txt	LTP285	ltpFR2	7	16	FOX	598	n/a	n/a	0	0	0
3679.916	n/a	WORD	1839958	wordpools/wasnorm_wordpool_576.txt	LTP285	ltpFR2	7	16	BREAST	171	n/a	n/a	0	0	0
3682.578	n/a	WORD	1841289	wordpools/wasnorm_wordpool_576.txt	LTP285	ltpFR2	7	16	TURKEY	1520	n/a	n/a	0	0	0
3685.174	n/a	WORD	1842587	wordpools/wasnorm_wordpool_576.txt	LTP285	ltpFR2	7	16	LAKE	796	n/a	n/a	0	0	0
3687.886	n/a	WORD	1843943	wordpools/wasnorm_wordpool_576.txt	LTP285	ltpFR2	7	16	ROBIN	1199	n/a	n/a	0	0	0
3690.316	n/a	WORD	1845158	wordpools/wasnorm_wordpool_576.txt	LTP285	ltpFR2	7	16	EUROPE	541	n/a	n/a	0	0	0
3692.912	n/a	WORD	1846456	wordpools/wasnorm_wordpool_576.txt	LTP285	ltpFR2	7	16	FRANCE	601	n/a	n/a	0	0	0
3695.624	n/a	WORD	1847812	wordpools/wasnorm_wordpool_576.txt	LTP285	ltpFR2	7	16	DIVER	476	n/a	n/a	0	0	0
3698.27	n/a	WORD	1849135	wordpools/wasnorm_wordpool_576.txt	LTP285	ltpFR2	7	16	GRIZZLY	662	n/a	n/a	0	0	0
3700.884	n/a	WORD	1850442	wordpools/wasnorm_wordpool_576.txt	LTP285	ltpFR2	7	16	DAUGHTER	442	n/a	n/a	0	0	0
3703.43	n/a	WORD	1851715	wordpools/wasnorm_wordpool_576.txt	LTP285	ltpFR2	7	16	NOTEBOOK	959	n/a	n/a	0	0	0
3705.96	n/a	WORD	1852980	wordpools/wasnorm_wordpool_576.txt	LTP285	ltpFR2	7	16	BRANDY	169	n/a	n/a	0	0	0
3708.572	n/a	WORD	1854286	wordpools/wasnorm_wordpool_576.txt	LTP285	ltpFR2	7	16	BARLEY	88	n/a	n/a	0	0	0
3711.068	n/a	WORD	1855534	wordpools/wasnorm_wordpool_576.txt	LTP285	ltpFR2	7	16	RAFT	1159	n/a	n/a	0	0	0
3713.514	n/a	WORD	1856757	wordpools/wasnorm_wordpool_576.txt	LTP285	ltpFR2	7	16	THIEF	1456	n/a	n/a	0	0	0
3716.128	n/a	WORD	1858064	wordpools/wasnorm_wordpool_576.txt	LTP285	ltpFR2	7	16	GOBLIN	645	n/a	n/a	0	0	0
3718.856	n/a	WORD	1859428	wordpools/wasnorm_wordpool_576.txt	LTP285	ltpFR2	7	16	QUAIL	1147	n/a	n/a	0	0	0
3721.552	n/a	WORD	1860776	wordpools/wasnorm_wordpool_576.txt	LTP285	ltpFR2	7	16	NAPKIN	937	n/a	n/a	0	0	0
3723.166	n/a	START	1861583	n/a	LTP285	ltpFR2	7	n/a	n/a	n/a	27	n/a	n/a	n/a	n/a
3724.214	n/a	DISTRACTOR	1862107	n/a	LTP285	ltpFR2	7	16	n/a	n/a	n/a	n/a	0	0	0
3724.232	n/a	PROB	1862116	n/a	LTP285	ltpFR2	7	n/a	n/a	n/a	27	25	5	4	6
3726.896	n/a	PROB	1863448	n/a	LTP285	ltpFR2	7	n/a	n/a	n/a	27	14	1	6	7
3729.074	n/a	PROB	1864537	n/a	LTP285	ltpFR2	7	n/a	n/a	n/a	27	12	1	5	6
3730.09	n/a	PROB	1865045	n/a	LTP285	ltpFR2	7	n/a	n/a	n/a	27	12	2	1	9
3731.188	n/a	PROB	1865594	n/a	LTP285	ltpFR2	7	n/a	n/a	n/a	27	18	3	7	8
3732.236	n/a	PROB	1866118	n/a	LTP285	ltpFR2	7	n/a	n/a	n/a	27	4	2	1	1
3733.402	n/a	PROB	1866701	n/a	LTP285	ltpFR2	7	n/a	n/a	n/a	27	10	3	6	1
3734.55	n/a	PROB	1867275	n/a	LTP285	ltpFR2	7	n/a	n/a	n/a	27	16	7	1	9
3736.296	n/a	PROB	1868148	n/a	LTP285	ltpFR2	7	n/a	n/a	n/a	27	23	9	7	7
3738.694	n/a	PROB	1869347	n/a	LTP285	ltpFR2	7	n/a	n/a	n/a	27	13	3	9	1
3740.108	n/a	PROB	1870054	n/a	LTP285	ltpFR2	7	n/a	n/a	n/a	27	13	2	9	2
3741.556	n/a	PROB	1870778	n/a	LTP285	ltpFR2	7	n/a	n/a	n/a	27	16	2	9	5
3743.47	n/a	PROB	1871735	n/a	LTP285	ltpFR2	7	n/a	n/a	n/a	27	12	2	6	4
3744.702	n/a	PROB	1872351	n/a	LTP285	ltpFR2	7	n/a	n/a	n/a	27	21	5	8	8
3746.094	n/a	STOP	1873047	n/a	LTP285	ltpFR2	7	n/a	n/a	n/a	27	n/a	n/a	n/a	n/a
3749.096	n/a	REC_START	1874548	n/a	LTP285	ltpFR2	7	16	n/a	n/a	n/a	n/a	0	0	0
3750.052	n/a	REC_WORD	1875026	wordpools/wasnorm_wordpool_576.txt	LTP285	ltpFR2	7	16	GOBLIN	645	n/a	n/a	0	0	0
3751.24	n/a	REC_WORD	1875620	wordpools/wasnorm_wordpool_576.txt	LTP285	ltpFR2	7	16	EUROPE	541	n/a	n/a	0	0	0
3752.284	n/a	REC_WORD	1876142	wordpools/wasnorm_wordpool_576.txt	LTP285	ltpFR2	7	16	FRANCE	601	n/a	n/a	0	0	0
3753.514	n/a	REC_WORD	1876757	wordpools/wasnorm_wordpool_576.txt	LTP285	ltpFR2	7	16	SISTER	1312	n/a	n/a	0	0	0
3754.904	n/a	REC_WORD	1877452	wordpools/wasnorm_wordpool_576.txt	LTP285	ltpFR2	7	16	LIPSTICK	829	n/a	n/a	0	0	0
3756.214	n/a	REC_WORD	1878107	wordpools/wasnorm_wordpool_576.txt	LTP285	ltpFR2	7	16	DAUGHTER	442	n/a	n/a	0	0	0
3757.588	n/a	REC_WORD	1878794	wordpools/wasnorm_wordpool_576.txt	LTP285	ltpFR2	7	16	RAFT	1159	n/a	n/a	0	0	0
3760.314	n/a	REC_WORD	1880157	wordpools/wasnorm_wordpool_576.txt	LTP285	ltpFR2	7	16	FOX	598	n/a	n/a	0	0	0
3762.674	n/a	REC_WORD	1881337	wordpools/wasnorm_wordpool_576.txt	LTP285	ltpFR2	7	16	LION	827	n/a	n/a	0	0	0
3764.066	n/a	REC_WORD	1882033	wordpools/wasnorm_wordpool_576.txt	LTP285	ltpFR2	7	16	QUAIL	1147	n/a	n/a	0	0	0
3772.104	n/a	REC_WORD	1886052	wordpools/wasnorm_wordpool_576.txt	LTP285	ltpFR2	7	16	TABLE	1426	n/a	n/a	0	0	0
3796.848	n/a	REC_WORD	1898424	wordpools/wasnorm_wordpool_576.txt	LTP285	ltpFR2	7	16	ROBIN	1199	n/a	n/a	0	0	0
3806.178	n/a	REC_WORD	1903089	wordpools/wasnorm_wordpool_576.txt	LTP285	ltpFR2	7	16	BREAST	171	n/a	n/a	0	0	0
3823.762	n/a	REC_WORD	1911881	wordpools/wasnorm_wordpool_576.txt	LTP285	ltpFR2	7	16	TURKEY	1520	n/a	n/a	0	0	0
3825.698	n/a	REST_REWET	1912849	n/a	LTP285	ltpFR2	7	16	n/a	n/a	n/a	n/a	0	0	0
4205.636	n/a	WORD	2102818	wordpools/wasnorm_wordpool_576.txt	LTP285	ltpFR2	7	17	CLIMBER	323	n/a	n/a	0	0	0
4208.448	n/a	WORD	2104224	wordpools/wasnorm_wordpool_576.txt	LTP285	ltpFR2	7	17	RELISH	1183	n/a	n/a	0	0	0
4211.228	n/a	WORD	2105614	wordpools/wasnorm_wordpool_576.txt	LTP285	ltpFR2	7	17	TAXI	1438	n/a	n/a	0	0	0
4213.892	n/a	WORD	2106946	wordpools/wasnorm_wordpool_576.txt	LTP285	ltpFR2	7	17	CHAUFFEUR	283	n/a	n/a	0	0	0
4216.686	n/a	WORD	2108343	wordpools/wasnorm_wordpool_576.txt	LTP285	ltpFR2	7	17	MUFFIN	929	n/a	n/a	0	0	0
4219.398	n/a	WORD	2109699	wordpools/wasnorm_wordpool_576.txt	LTP285	ltpFR2	7	17	GLASS	639	n/a	n/a	0	0	0
4222.046	n/a	WORD	2111023	wordpools/wasnorm_wordpool_576.txt	LTP285	ltpFR2	7	17	BEAVER	109	n/a	n/a	0	0	0
4224.476	n/a	WORD	2112238	wordpools/wasnorm_wordpool_576.txt	LTP285	ltpFR2	7	17	SUMMIT	1405	n/a	n/a	0	0	0
4227.056	n/a	WORD	2113528	wordpools/wasnorm_wordpool_576.txt	LTP285	ltpFR2	7	17	TOASTER	1472	n/a	n/a	0	0	0
4229.6	n/a	WORD	2114800	wordpools/wasnorm_wordpool_576.txt	LTP285	ltpFR2	7	17	KEEPER	769	n/a	n/a	0	0	0
4232.314	n/a	WORD	2116157	wordpools/wasnorm_wordpool_576.txt	LTP285	ltpFR2	7	17	PIMPLE	1071	n/a	n/a	0	0	0
4234.744	n/a	WORD	2117372	wordpools/wasnorm_wordpool_576.txt	LTP285	ltpFR2	7	17	SKETCH	1315	n/a	n/a	0	0	0
4237.34	n/a	WORD	2118670	wordpools/wasnorm_wordpool_576.txt	LTP285	ltpFR2	7	17	PLASTER	1085	n/a	n/a	0	0	0
4240.152	n/a	WORD	2120076	wordpools/wasnorm_wordpool_576.txt	LTP285	ltpFR2	7	17	SHELTER	1282	n/a	n/a	0	0	0
4242.898	n/a	WORD	2121449	wordpools/wasnorm_wordpool_576.txt	LTP285	ltpFR2	7	17	MEAT	883	n/a	n/a	0	0	0
4245.344	n/a	WORD	2122672	wordpools/wasnorm_wordpool_576.txt	LTP285	ltpFR2	7	17	STOMACH	1384	n/a	n/a	0	0	0
4247.908	n/a	WORD	2123954	wordpools/wasnorm_wordpool_576.txt	LTP285	ltpFR2	7	17	HOSTESS	723	n/a	n/a	0	0	0
4250.37	n/a	WORD	2125185	wordpools/wasnorm_wordpool_576.txt	LTP285	ltpFR2	7	17	PUPPY	1144	n/a	n/a	0	0	0
4252.85	n/a	WORD	2126425	wordpools/wasnorm_wordpool_576.txt	LTP285	ltpFR2	7	17	LAGOON	795	n/a	n/a	0	0	0
