onset	duration	trial_type	sample	stim_file	subject	experiment	session	trial	task	item_name	item_num	recog_resp	recog_conf	resp	answer	test_x	test_y	test_z	color_r	color_g	color_b	case	font
236.658	n/a	SESS_START	118329	n/a	LTP210	ltpFR	15	n/a	n/a	n/a	n/a	1	5	n/a	n/a	0	0	0	n/a	n/a	n/a	n/a	n/a
273.258	n/a	START	136629	n/a	LTP210	ltpFR	15	n/a	n/a	n/a	n/a	n/a	n/a	n/a	n/a	n/a	n/a	n/a	n/a	n/a	n/a	n/a	n/a
273.308	n/a	PROB	136654	n/a	LTP210	ltpFR	15	n/a	n/a	n/a	n/a	n/a	n/a	n/a	13	9	2	2	n/a	n/a	n/a	n/a	n/a
275.492	n/a	PROB	137746	n/a	LTP210	ltpFR	15	n/a	n/a	n/a	n/a	n/a	n/a	n/a	20	8	4	8	n/a	n/a	n/a	n/a	n/a
277.232	n/a	PROB	138616	n/a	LTP210	ltpFR	15	n/a	n/a	n/a	n/a	n/a	n/a	n/a	14	9	4	1	n/a	n/a	n/a	n/a	n/a
278.79	n/a	PROB	139395	n/a	LTP210	ltpFR	15	n/a	n/a	n/a	n/a	n/a	n/a	n/a	12	4	7	1	n/a	n/a	n/a	n/a	n/a
280.212	n/a	PROB	140106	n/a	LTP210	ltpFR	15	n/a	n/a	n/a	n/a	n/a	n/a	n/a	7	4	1	2	n/a	n/a	n/a	n/a	n/a
281.506	n/a	PROB	140753	n/a	LTP210	ltpFR	15	n/a	n/a	n/a	n/a	n/a	n/a	n/a	17	8	2	7	n/a	n/a	n/a	n/a	n/a
283.632	n/a	PROB	141816	n/a	LTP210	ltpFR	15	n/a	n/a	n/a	n/a	n/a	n/a	n/a	14	5	2	7	n/a	n/a	n/a	n/a	n/a
285.874	n/a	PROB	142937	n/a	LTP210	ltpFR	15	n/a	n/a	n/a	n/a	n/a	n/a	n/a	8	5	1	2	n/a	n/a	n/a	n/a	n/a
287.154	n/a	PROB	143577	n/a	LTP210	ltpFR	15	n/a	n/a	n/a	n/a	n/a	n/a	n/a	18	1	8	9	n/a	n/a	n/a	n/a	n/a
293.26	n/a	STOP	146630	n/a	LTP210	ltpFR	15	n/a	n/a	n/a	n/a	n/a	n/a	n/a	n/a	n/a	n/a	n/a	n/a	n/a	n/a	n/a	n/a
357.876	n/a	START	178938	n/a	LTP210	ltpFR	15	n/a	n/a	n/a	n/a	n/a	n/a	n/a	n/a	n/a	n/a	n/a	n/a	n/a	n/a	n/a	n/a
359.388	n/a	PROB	179694	n/a	LTP210	ltpFR	15	n/a	n/a	n/a	n/a	n/a	n/a	n/a	21	3	9	7	n/a	n/a	n/a	n/a	n/a
362.208	n/a	PROB	181104	n/a	LTP210	ltpFR	15	n/a	n/a	n/a	n/a	n/a	n/a	n/a	13	1	6	6	n/a	n/a	n/a	n/a	n/a
364.524	n/a	STOP	182262	n/a	LTP210	ltpFR	15	n/a	n/a	n/a	n/a	n/a	n/a	n/a	n/a	n/a	n/a	n/a	n/a	n/a	n/a	n/a	n/a
366.792	n/a	WORD	183396	wordpools/wasnorm_wordpool_less_exclusions.txt	LTP210	ltpFR	15	1	1	CARROT	249	1	n/a	1	n/a	0	0	0	0.57763671875	0.412841796875	1	lower	zerothre.ttf
369.804	n/a	START	184902	n/a	LTP210	ltpFR	15	n/a	n/a	n/a	n/a	n/a	n/a	n/a	n/a	n/a	n/a	n/a	n/a	n/a	n/a	n/a	n/a
371.008	n/a	PROB	185504	n/a	LTP210	ltpFR	15	n/a	n/a	n/a	n/a	n/a	n/a	n/a	8	4	1	3	n/a	n/a	n/a	n/a	n/a
372.748	n/a	PROB	186374	n/a	LTP210	ltpFR	15	n/a	n/a	n/a	n/a	n/a	n/a	n/a	14	5	6	3	n/a	n/a	n/a	n/a	n/a
374.17	n/a	PROB	187085	n/a	LTP210	ltpFR	15	n/a	n/a	n/a	n/a	n/a	n/a	n/a	19	2	8	9	n/a	n/a	n/a	n/a	n/a
375.442	n/a	PROB	187721	n/a	LTP210	ltpFR	15	n/a	n/a	n/a	n/a	n/a	n/a	n/a	11	1	9	1	n/a	n/a	n/a	n/a	n/a
376.46	n/a	STOP	188230	n/a	LTP210	ltpFR	15	n/a	n/a	n/a	n/a	n/a	n/a	n/a	n/a	n/a	n/a	n/a	n/a	n/a	n/a	n/a	n/a
378.722	n/a	WORD	189361	wordpools/wasnorm_wordpool_less_exclusions.txt	LTP210	ltpFR	15	1	1	BIOLOGIST	128	n/a	n/a	1	n/a	0	0	0	0.57763671875	0.412841796875	1	lower	zerothre.ttf
381.734	n/a	START	190867	n/a	LTP210	ltpFR	15	n/a	n/a	n/a	n/a	n/a	n/a	n/a	n/a	n/a	n/a	n/a	n/a	n/a	n/a	n/a	n/a
382.788	n/a	PROB	191394	n/a	LTP210	ltpFR	15	n/a	n/a	n/a	n/a	n/a	n/a	n/a	17	8	1	8	n/a	n/a	n/a	n/a	n/a
384.376	n/a	PROB	192188	n/a	LTP210	ltpFR	15	n/a	n/a	n/a	n/a	n/a	n/a	n/a	17	8	6	3	n/a	n/a	n/a	n/a	n/a
386.182	n/a	PROB	193091	n/a	LTP210	ltpFR	15	n/a	n/a	n/a	n/a	n/a	n/a	n/a	12	8	1	3	n/a	n/a	n/a	n/a	n/a
387.764	n/a	PROB	193882	n/a	LTP210	ltpFR	15	n/a	n/a	n/a	n/a	n/a	n/a	n/a	18	6	6	6	n/a	n/a	n/a	n/a	n/a
389.172	n/a	STOP	194586	n/a	LTP210	ltpFR	15	n/a	n/a	n/a	n/a	n/a	n/a	n/a	n/a	n/a	n/a	n/a	n/a	n/a	n/a	n/a	n/a
390.574	n/a	WORD	195287	wordpools/wasnorm_wordpool_less_exclusions.txt	LTP210	ltpFR	15	1	1	MILITARY	894	n/a	n/a	0	n/a	0	0	0	0.57763671875	0.412841796875	1	lower	zerothre.ttf
393.586	n/a	START	196793	n/a	LTP210	ltpFR	15	n/a	n/a	n/a	n/a	n/a	n/a	n/a	n/a	n/a	n/a	n/a	n/a	n/a	n/a	n/a	n/a
394.666	n/a	PROB	197333	n/a	LTP210	ltpFR	15	n/a	n/a	n/a	n/a	n/a	n/a	n/a	15	5	5	5	n/a	n/a	n/a	n/a	n/a
395.67	n/a	PROB	197835	n/a	LTP210	ltpFR	15	n/a	n/a	n/a	n/a	n/a	n/a	n/a	16	9	4	3	n/a	n/a	n/a	n/a	n/a
397.684	n/a	PROB	198842	n/a	LTP210	ltpFR	15	n/a	n/a	n/a	n/a	n/a	n/a	n/a	12	1	4	7	n/a	n/a	n/a	n/a	n/a
399.652	n/a	PROB	199826	n/a	LTP210	ltpFR	15	n/a	n/a	n/a	n/a	n/a	n/a	n/a	20	5	6	9	n/a	n/a	n/a	n/a	n/a
401.372	n/a	STOP	200686	n/a	LTP210	ltpFR	15	n/a	n/a	n/a	n/a	n/a	n/a	n/a	n/a	n/a	n/a	n/a	n/a	n/a	n/a	n/a	n/a
402.78	n/a	WORD	201390	wordpools/wasnorm_wordpool_less_exclusions.txt	LTP210	ltpFR	15	1	1	ANGEL	22	n/a	n/a	1	n/a	0	0	0	0.57763671875	0.412841796875	1	lower	zerothre.ttf
405.792	n/a	START	202896	n/a	LTP210	ltpFR	15	n/a	n/a	n/a	n/a	n/a	n/a	n/a	n/a	n/a	n/a	n/a	n/a	n/a	n/a	n/a	n/a
406.702	n/a	PROB	203351	n/a	LTP210	ltpFR	15	n/a	n/a	n/a	n/a	n/a	n/a	n/a	13	8	1	4	n/a	n/a	n/a	n/a	n/a
408.334	n/a	PROB	204167	n/a	LTP210	ltpFR	15	n/a	n/a	n/a	n/a	n/a	n/a	n/a	6	4	1	1	n/a	n/a	n/a	n/a	n/a
409.764	n/a	PROB	204882	n/a	LTP210	ltpFR	15	n/a	n/a	n/a	n/a	n/a	n/a	n/a	19	9	6	4	n/a	n/a	n/a	n/a	n/a
412.526	n/a	STOP	206263	n/a	LTP210	ltpFR	15	n/a	n/a	n/a	n/a	n/a	n/a	n/a	n/a	n/a	n/a	n/a	n/a	n/a	n/a	n/a	n/a
414.716	n/a	WORD	207358	wordpools/wasnorm_wordpool_less_exclusions.txt	LTP210	ltpFR	15	1	0	PROFESSIONAL	1130	n/a	n/a	1	n/a	0	0	0	0.422607421875	0.5869140625	0	upper	amplitud.ttf
417.728	n/a	START	208864	n/a	LTP210	ltpFR	15	n/a	n/a	n/a	n/a	n/a	n/a	n/a	n/a	n/a	n/a	n/a	n/a	n/a	n/a	n/a	n/a
418.766	n/a	PROB	209383	n/a	LTP210	ltpFR	15	n/a	n/a	n/a	n/a	n/a	n/a	n/a	11	2	4	5	n/a	n/a	n/a	n/a	n/a
420.706	n/a	PROB	210353	n/a	LTP210	ltpFR	15	n/a	n/a	n/a	n/a	n/a	n/a	n/a	10	5	4	1	n/a	n/a	n/a	n/a	n/a
422.328	n/a	PROB	211164	n/a	LTP210	ltpFR	15	n/a	n/a	n/a	n/a	n/a	n/a	n/a	9	3	2	4	n/a	n/a	n/a	n/a	n/a
424.422	n/a	STOP	212211	n/a	LTP210	ltpFR	15	n/a	n/a	n/a	n/a	n/a	n/a	n/a	n/a	n/a	n/a	n/a	n/a	n/a	n/a	n/a	n/a
426.672	n/a	WORD	213336	wordpools/wasnorm_wordpool_less_exclusions.txt	LTP210	ltpFR	15	1	0	BAIT	70	n/a	n/a	0	n/a	0	0	0	0.422607421875	0.5869140625	0	upper	amplitud.ttf
429.684	n/a	START	214842	n/a	LTP210	ltpFR	15	n/a	n/a	n/a	n/a	n/a	n/a	n/a	n/a	n/a	n/a	n/a	n/a	n/a	n/a	n/a	n/a
430.704	n/a	PROB	215352	n/a	LTP210	ltpFR	15	n/a	n/a	n/a	n/a	n/a	n/a	n/a	15	4	2	9	n/a	n/a	n/a	n/a	n/a
432.292	n/a	PROB	216146	n/a	LTP210	ltpFR	15	n/a	n/a	n/a	n/a	n/a	n/a	n/a	24	8	7	9	n/a	n/a	n/a	n/a	n/a
434.34	n/a	PROB	217170	n/a	LTP210	ltpFR	15	n/a	n/a	n/a	n/a	n/a	n/a	n/a	10	2	1	7	n/a	n/a	n/a	n/a	n/a
435.706	n/a	PROB	217853	n/a	LTP210	ltpFR	15	n/a	n/a	n/a	n/a	n/a	n/a	n/a	11	1	7	3	n/a	n/a	n/a	n/a	n/a
436.84	n/a	STOP	218420	n/a	LTP210	ltpFR	15	n/a	n/a	n/a	n/a	n/a	n/a	n/a	n/a	n/a	n/a	n/a	n/a	n/a	n/a	n/a	n/a
438.742	n/a	WORD	219371	wordpools/wasnorm_wordpool_less_exclusions.txt	LTP210	ltpFR	15	1	1	PAVEMENT	1028	n/a	n/a	0	n/a	0	0	0	0.57763671875	0.412841796875	1	lower	zerothre.ttf
441.754	n/a	START	220877	n/a	LTP210	ltpFR	15	n/a	n/a	n/a	n/a	n/a	n/a	n/a	n/a	n/a	n/a	n/a	n/a	n/a	n/a	n/a	n/a
442.834	n/a	PROB	221417	n/a	LTP210	ltpFR	15	n/a	n/a	n/a	n/a	n/a	n/a	n/a	19	2	9	8	n/a	n/a	n/a	n/a	n/a
444.312	n/a	PROB	222156	n/a	LTP210	ltpFR	15	n/a	n/a	n/a	n/a	n/a	n/a	n/a	16	4	5	7	n/a	n/a	n/a	n/a	n/a
446.046	n/a	PROB	223023	n/a	LTP210	ltpFR	15	n/a	n/a	n/a	n/a	n/a	n/a	n/a	12	1	2	9	n/a	n/a	n/a	n/a	n/a
447.24	n/a	PROB	223620	n/a	LTP210	ltpFR	15	n/a	n/a	n/a	n/a	n/a	n/a	n/a	16	6	3	7	n/a	n/a	n/a	n/a	n/a
448.456	n/a	STOP	224228	n/a	LTP210	ltpFR	15	n/a	n/a	n/a	n/a	n/a	n/a	n/a	n/a	n/a	n/a	n/a	n/a	n/a	n/a	n/a	n/a
450.854	n/a	WORD	225427	wordpools/wasnorm_wordpool_less_exclusions.txt	LTP210	ltpFR	15	1	1	BOULEVARD	156	n/a	n/a	0	n/a	0	0	0	0.57763671875	0.412841796875	1	lower	zerothre.ttf
453.866	n/a	START	226933	n/a	LTP210	ltpFR	15	n/a	n/a	n/a	n/a	n/a	n/a	n/a	n/a	n/a	n/a	n/a	n/a	n/a	n/a	n/a	n/a
454.82	n/a	PROB	227410	n/a	LTP210	ltpFR	15	n/a	n/a	n/a	n/a	n/a	n/a	n/a	18	5	8	5	n/a	n/a	n/a	n/a	n/a
456.57	n/a	PROB	228285	n/a	LTP210	ltpFR	15	n/a	n/a	n/a	n/a	n/a	n/a	n/a	20	9	2	9	n/a	n/a	n/a	n/a	n/a
458.332	n/a	PROB	229166	n/a	LTP210	ltpFR	15	n/a	n/a	n/a	n/a	n/a	n/a	n/a	11	1	5	5	n/a	n/a	n/a	n/a	n/a
459.402	n/a	PROB	229701	n/a	LTP210	ltpFR	15	n/a	n/a	n/a	n/a	n/a	n/a	n/a	17	7	9	1	n/a	n/a	n/a	n/a	n/a
460.624	n/a	STOP	230312	n/a	LTP210	ltpFR	15	n/a	n/a	n/a	n/a	n/a	n/a	n/a	n/a	n/a	n/a	n/a	n/a	n/a	n/a	n/a	n/a
462.784	n/a	WORD	231392	wordpools/wasnorm_wordpool_less_exclusions.txt	LTP210	ltpFR	15	1	1	CITIZEN	312	n/a	n/a	1	n/a	0	0	0	0.57763671875	0.412841796875	1	lower	zerothre.ttf
465.796	n/a	START	232898	n/a	LTP210	ltpFR	15	n/a	n/a	n/a	n/a	n/a	n/a	n/a	n/a	n/a	n/a	n/a	n/a	n/a	n/a	n/a	n/a
466.832	n/a	PROB	233416	n/a	LTP210	ltpFR	15	n/a	n/a	n/a	n/a	n/a	n/a	n/a	12	1	2	9	n/a	n/a	n/a	n/a	n/a
467.988	n/a	PROB	233994	n/a	LTP210	ltpFR	15	n/a	n/a	n/a	n/a	n/a	n/a	n/a	18	4	6	8	n/a	n/a	n/a	n/a	n/a
469.894	n/a	PROB	234947	n/a	LTP210	ltpFR	15	n/a	n/a	n/a	n/a	n/a	n/a	n/a	18	9	7	2	n/a	n/a	n/a	n/a	n/a
471.852	n/a	PROB	235926	n/a	LTP210	ltpFR	15	n/a	n/a	n/a	n/a	n/a	n/a	n/a	17	7	7	3	n/a	n/a	n/a	n/a	n/a
473.44	n/a	STOP	236720	n/a	LTP210	ltpFR	15	n/a	n/a	n/a	n/a	n/a	n/a	n/a	n/a	n/a	n/a	n/a	n/a	n/a	n/a	n/a	n/a
474.712	n/a	WORD	237356	wordpools/wasnorm_wordpool_less_exclusions.txt	LTP210	ltpFR	15	1	1	FLAG	573	n/a	n/a	0	n/a	0	0	0	0.57763671875	0.412841796875	1	lower	zerothre.ttf
477.724	n/a	START	238862	n/a	LTP210	ltpFR	15	n/a	n/a	n/a	n/a	n/a	n/a	n/a	n/a	n/a	n/a	n/a	n/a	n/a	n/a	n/a	n/a
478.862	n/a	PROB	239431	n/a	LTP210	ltpFR	15	n/a	n/a	n/a	n/a	n/a	n/a	n/a	11	6	2	3	n/a	n/a	n/a	n/a	n/a
480.366	n/a	PROB	240183	n/a	LTP210	ltpFR	15	n/a	n/a	n/a	n/a	n/a	n/a	n/a	15	5	8	2	n/a	n/a	n/a	n/a	n/a
481.53	n/a	PROB	240765	n/a	LTP210	ltpFR	15	n/a	n/a	n/a	n/a	n/a	n/a	n/a	25	7	9	9	n/a	n/a	n/a	n/a	n/a
485.726	n/a	STOP	242863	n/a	LTP210	ltpFR	15	n/a	n/a	n/a	n/a	n/a	n/a	n/a	n/a	n/a	n/a	n/a	n/a	n/a	n/a	n/a	n/a
486.86	n/a	WORD	243430	wordpools/wasnorm_wordpool_less_exclusions.txt	LTP210	ltpFR	15	1	0	BEET	115	n/a	n/a	0	n/a	0	0	0	0.422607421875	0.5869140625	0	upper	amplitud.ttf
489.872	n/a	START	244936	n/a	LTP210	ltpFR	15	n/a	n/a	n/a	n/a	n/a	n/a	n/a	n/a	n/a	n/a	n/a	n/a	n/a	n/a	n/a	n/a
490.824	n/a	PROB	245412	n/a	LTP210	ltpFR	15	n/a	n/a	n/a	n/a	n/a	n/a	n/a	7	1	3	3	n/a	n/a	n/a	n/a	n/a
492.072	n/a	PROB	246036	n/a	LTP210	ltpFR	15	n/a	n/a	n/a	n/a	n/a	n/a	n/a	9	3	4	4	n/a	n/a	n/a	n/a	n/a
493.778	n/a	PROB	246889	n/a	LTP210	ltpFR	15	n/a	n/a	n/a	n/a	n/a	n/a	n/a	14	6	6	2	n/a	n/a	n/a	n/a	n/a
496.698	n/a	STOP	248349	n/a	LTP210	ltpFR	15	n/a	n/a	n/a	n/a	n/a	n/a	n/a	n/a	n/a	n/a	n/a	n/a	n/a	n/a	n/a	n/a
498.872	n/a	WORD	249436	wordpools/wasnorm_wordpool_less_exclusions.txt	LTP210	ltpFR	15	1	0	CHEMIST	292	n/a	n/a	1	n/a	0	0	0	0.422607421875	0.5869140625	0	upper	amplitud.ttf
501.884	n/a	START	250942	n/a	LTP210	ltpFR	15	n/a	n/a	n/a	n/a	n/a	n/a	n/a	n/a	n/a	n/a	n/a	n/a	n/a	n/a	n/a	n/a
502.836	n/a	PROB	251418	n/a	LTP210	ltpFR	15	n/a	n/a	n/a	n/a	n/a	n/a	n/a	18	1	9	8	n/a	n/a	n/a	n/a	n/a
504.1	n/a	PROB	252050	n/a	LTP210	ltpFR	15	n/a	n/a	n/a	n/a	n/a	n/a	n/a	9	2	5	2	n/a	n/a	n/a	n/a	n/a
505.982	n/a	PROB	252991	n/a	LTP210	ltpFR	15	n/a	n/a	n/a	n/a	n/a	n/a	n/a	20	7	6	7	n/a	n/a	n/a	n/a	n/a
507.816	n/a	PROB	253908	n/a	LTP210	ltpFR	15	n/a	n/a	n/a	n/a	n/a	n/a	n/a	12	2	4	6	n/a	n/a	n/a	n/a	n/a
509.458	n/a	STOP	254729	n/a	LTP210	ltpFR	15	n/a	n/a	n/a	n/a	n/a	n/a	n/a	n/a	n/a	n/a	n/a	n/a	n/a	n/a	n/a	n/a
510.776	n/a	WORD	255388	wordpools/wasnorm_wordpool_less_exclusions.txt	LTP210	ltpFR	15	1	0	UNIFORM	1539	n/a	n/a	1	n/a	0	0	0	0.422607421875	0.5869140625	0	upper	amplitud.ttf
513.788	n/a	START	256894	n/a	LTP210	ltpFR	15	n/a	n/a	n/a	n/a	n/a	n/a	n/a	n/a	n/a	n/a	n/a	n/a	n/a	n/a	n/a	n/a
514.716	n/a	PROB	257358	n/a	LTP210	ltpFR	15	n/a	n/a	n/a	n/a	n/a	n/a	n/a	12	7	1	4	n/a	n/a	n/a	n/a	n/a
516.13	n/a	PROB	258065	n/a	LTP210	ltpFR	15	n/a	n/a	n/a	n/a	n/a	n/a	n/a	21	9	5	7	n/a	n/a	n/a	n/a	n/a
518.556	n/a	PROB	259278	n/a	LTP210	ltpFR	15	n/a	n/a	n/a	n/a	n/a	n/a	n/a	16	8	1	7	n/a	n/a	n/a	n/a	n/a
520.274	n/a	STOP	260137	n/a	LTP210	ltpFR	15	n/a	n/a	n/a	n/a	n/a	n/a	n/a	n/a	n/a	n/a	n/a	n/a	n/a	n/a	n/a	n/a
522.756	n/a	WORD	261378	wordpools/wasnorm_wordpool_less_exclusions.txt	LTP210	ltpFR	15	1	0	COLESLAW	344	n/a	n/a	0	n/a	0	0	0	0.422607421875	0.5869140625	0	upper	amplitud.ttf
525.768	n/a	START	262884	n/a	LTP210	ltpFR	15	n/a	n/a	n/a	n/a	n/a	n/a	n/a	n/a	n/a	n/a	n/a	n/a	n/a	n/a	n/a	n/a
526.938	n/a	PROB	263469	n/a	LTP210	ltpFR	15	n/a	n/a	n/a	n/a	n/a	n/a	n/a	12	6	5	1	n/a	n/a	n/a	n/a	n/a
528.126	n/a	PROB	264063	n/a	LTP210	ltpFR	15	n/a	n/a	n/a	n/a	n/a	n/a	n/a	8	2	4	2	n/a	n/a	n/a	n/a	n/a
529.648	n/a	PROB	264824	n/a	LTP210	ltpFR	15	n/a	n/a	n/a	n/a	n/a	n/a	n/a	8	3	3	2	n/a	n/a	n/a	n/a	n/a
533.768	n/a	STOP	266884	n/a	LTP210	ltpFR	15	n/a	n/a	n/a	n/a	n/a	n/a	n/a	n/a	n/a	n/a	n/a	n/a	n/a	n/a	n/a	n/a
534.976	n/a	WORD	267488	wordpools/wasnorm_wordpool_less_exclusions.txt	LTP210	ltpFR	15	1	0	RACK	1154	n/a	n/a	1	n/a	0	0	0	0.422607421875	0.5869140625	0	upper	amplitud.ttf
537.988	n/a	START	268994	n/a	LTP210	ltpFR	15	n/a	n/a	n/a	n/a	n/a	n/a	n/a	n/a	n/a	n/a	n/a	n/a	n/a	n/a	n/a	n/a
539.068	n/a	PROB	269534	n/a	LTP210	ltpFR	15	n/a	n/a	n/a	n/a	n/a	n/a	n/a	11	1	9	1	n/a	n/a	n/a	n/a	n/a
540.194	n/a	PROB	270097	n/a	LTP210	ltpFR	15	n/a	n/a	n/a	n/a	n/a	n/a	n/a	7	3	3	1	n/a	n/a	n/a	n/a	n/a
541.476	n/a	PROB	270738	n/a	LTP210	ltpFR	15	n/a	n/a	n/a	n/a	n/a	n/a	n/a	15	1	5	9	n/a	n/a	n/a	n/a	n/a
542.806	n/a	PROB	271403	n/a	LTP210	ltpFR	15	n/a	n/a	n/a	n/a	n/a	n/a	n/a	16	5	8	3	n/a	n/a	n/a	n/a	n/a
544.734	n/a	STOP	272367	n/a	LTP210	ltpFR	15	n/a	n/a	n/a	n/a	n/a	n/a	n/a	n/a	n/a	n/a	n/a	n/a	n/a	n/a	n/a	n/a
546.872	n/a	WORD	273436	wordpools/wasnorm_wordpool_less_exclusions.txt	LTP210	ltpFR	15	1	0	VEST	1559	n/a	n/a	0	n/a	0	0	0	0.422607421875	0.5869140625	0	upper	amplitud.ttf
549.884	n/a	START	274942	n/a	LTP210	ltpFR	15	n/a	n/a	n/a	n/a	n/a	n/a	n/a	n/a	n/a	n/a	n/a	n/a	n/a	n/a	n/a	n/a
551.038	n/a	PROB	275519	n/a	LTP210	ltpFR	15	n/a	n/a	n/a	n/a	n/a	n/a	n/a	13	1	3	9	n/a	n/a	n/a	n/a	n/a
552.274	n/a	PROB	276137	n/a	LTP210	ltpFR	15	n/a	n/a	n/a	n/a	n/a	n/a	n/a	8	1	1	6	n/a	n/a	n/a	n/a	n/a
553.496	n/a	PROB	276748	n/a	LTP210	ltpFR	15	n/a	n/a	n/a	n/a	n/a	n/a	n/a	15	3	7	5	n/a	n/a	n/a	n/a	n/a
554.952	n/a	PROB	277476	n/a	LTP210	ltpFR	15	n/a	n/a	n/a	n/a	n/a	n/a	n/a	9	3	1	5	n/a	n/a	n/a	n/a	n/a
556.316	n/a	PROB	278158	n/a	LTP210	ltpFR	15	n/a	n/a	n/a	n/a	n/a	n/a	n/a	15	5	1	9	n/a	n/a	n/a	n/a	n/a
557.774	n/a	STOP	278887	n/a	LTP210	ltpFR	15	n/a	n/a	n/a	n/a	n/a	n/a	n/a	n/a	n/a	n/a	n/a	n/a	n/a	n/a	n/a	n/a
559.788	n/a	REC_START	279894	n/a	LTP210	ltpFR	15	1	n/a	n/a	n/a	n/a	n/a	n/a	n/a	0	0	0	n/a	n/a	n/a	n/a	n/a
560.818	n/a	REC_WORD	280409	wordpools/wasnorm_wordpool_less_exclusions.txt	LTP210	ltpFR	15	1	0	VEST	1559	n/a	n/a	0	n/a	0	0	0	n/a	n/a	n/a	n/a	n/a
562.06	n/a	REC_WORD	281030	wordpools/wasnorm_wordpool_less_exclusions.txt	LTP210	ltpFR	15	1	0	UNIFORM	1539	n/a	n/a	1	n/a	0	0	0	n/a	n/a	n/a	n/a	n/a
563.55	n/a	REC_WORD	281775	wordpools/wasnorm_wordpool_less_exclusions.txt	LTP210	ltpFR	15	1	1	PAVEMENT	1028	n/a	n/a	0	n/a	0	0	0	n/a	n/a	n/a	n/a	n/a
566.542	n/a	REC_WORD_VV	283271	wordpools/wasnorm_wordpool_less_exclusions.txt	LTP210	ltpFR	15	1	n/a	<>	-1	n/a	n/a	n/a	n/a	0	0	0	n/a	n/a	n/a	n/a	n/a
569.392	n/a	REC_WORD	284696	wordpools/wasnorm_wordpool_less_exclusions.txt	LTP210	ltpFR	15	1	0	CHEMIST	292	n/a	n/a	1	n/a	0	0	0	n/a	n/a	n/a	n/a	n/a
570.564	n/a	REC_WORD	285282	wordpools/wasnorm_wordpool_less_exclusions.txt	LTP210	ltpFR	15	1	1	CITIZEN	312	n/a	n/a	1	n/a	0	0	0	n/a	n/a	n/a	n/a	n/a
571.942	n/a	REC_WORD	285971	wordpools/wasnorm_wordpool_less_exclusions.txt	LTP210	ltpFR	15	1	1	FLAG	573	n/a	n/a	0	n/a	0	0	0	n/a	n/a	n/a	n/a	n/a
574.866	n/a	REC_WORD	287433	wordpools/wasnorm_wordpool_less_exclusions.txt	LTP210	ltpFR	15	1	1	CARROT	249	n/a	n/a	1	n/a	0	0	0	n/a	n/a	n/a	n/a	n/a
578.392	n/a	REC_WORD	289196	wordpools/wasnorm_wordpool_less_exclusions.txt	LTP210	ltpFR	15	1	1	ANGEL	22	n/a	n/a	1	n/a	0	0	0	n/a	n/a	n/a	n/a	n/a
582.674	n/a	REC_WORD	291337	wordpools/wasnorm_wordpool_less_exclusions.txt	LTP210	ltpFR	15	1	1	BOULEVARD	156	n/a	n/a	0	n/a	0	0	0	n/a	n/a	n/a	n/a	n/a
590.096	n/a	REC_WORD	295048	wordpools/wasnorm_wordpool_less_exclusions.txt	LTP210	ltpFR	15	1	0	COLESLAW	344	n/a	n/a	0	n/a	0	0	0	n/a	n/a	n/a	n/a	n/a
591.838	n/a	REC_WORD	295919	wordpools/wasnorm_wordpool_less_exclusions.txt	LTP210	ltpFR	15	1	0	PROFESSIONAL	1130	n/a	n/a	1	n/a	0	0	0	n/a	n/a	n/a	n/a	n/a
627.838	n/a	REC_WORD	313919	wordpools/wasnorm_wordpool_less_exclusions.txt	LTP210	ltpFR	15	1	0	BEET	115	n/a	n/a	0	n/a	0	0	0	n/a	n/a	n/a	n/a	n/a
688.112	n/a	WORD	344056	wordpools/wasnorm_wordpool_less_exclusions.txt	LTP210	ltpFR	15	2	0	TEAPOT	1442	n/a	n/a	0	n/a	0	0	0	0.422607421875	0.5869140625	0	upper	amplitud.ttf
692.16	n/a	WORD	346080	wordpools/wasnorm_wordpool_less_exclusions.txt	LTP210	ltpFR	15	2	0	BOWL	158	n/a	n/a	0	n/a	0	0	0	0.422607421875	0.5869140625	0	upper	amplitud.ttf
696.184	n/a	WORD	348092	wordpools/wasnorm_wordpool_less_exclusions.txt	LTP210	ltpFR	15	2	1	DOLPHIN	483	n/a	n/a	1	n/a	0	0	0	0.57763671875	0.412841796875	1	lower	zerothre.ttf
700.1	n/a	WORD	350050	wordpools/wasnorm_wordpool_less_exclusions.txt	LTP210	ltpFR	15	2	1	PERFUME	1049	n/a	n/a	0	n/a	0	0	0	0.57763671875	0.412841796875	1	lower	zerothre.ttf
704.306	n/a	WORD	352153	wordpools/wasnorm_wordpool_less_exclusions.txt	LTP210	ltpFR	15	2	1	SEED	1266	n/a	n/a	0	n/a	0	0	0	0.57763671875	0.412841796875	1	lower	zerothre.ttf
708.396	n/a	WORD	354198	wordpools/wasnorm_wordpool_less_exclusions.txt	LTP210	ltpFR	15	2	1	CABOOSE	214	n/a	n/a	0	n/a	0	0	0	0.57763671875	0.412841796875	1	lower	zerothre.ttf
712.362	n/a	WORD	356181	wordpools/wasnorm_wordpool_less_exclusions.txt	LTP210	ltpFR	15	2	0	RAIL	1161	n/a	n/a	1	n/a	0	0	0	0.422607421875	0.5869140625	0	upper	amplitud.ttf
716.496	n/a	WORD	358248	wordpools/wasnorm_wordpool_less_exclusions.txt	LTP210	ltpFR	15	2	0	WRITER	1627	n/a	n/a	1	n/a	0	0	0	0.422607421875	0.5869140625	0	upper	amplitud.ttf
720.534	n/a	WORD	360267	wordpools/wasnorm_wordpool_less_exclusions.txt	LTP210	ltpFR	15	2	1	SECRETARY	1265	n/a	n/a	1	n/a	0	0	0	0.57763671875	0.412841796875	1	lower	zerothre.ttf
724.442	n/a	WORD	362221	wordpools/wasnorm_wordpool_less_exclusions.txt	LTP210	ltpFR	15	2	1	SUGAR	1401	n/a	n/a	0	n/a	0	0	0	0.57763671875	0.412841796875	1	lower	zerothre.ttf
728.566	n/a	WORD	364283	wordpools/wasnorm_wordpool_less_exclusions.txt	LTP210	ltpFR	15	2	1	CORD	379	n/a	n/a	0	n/a	0	0	0	0.57763671875	0.412841796875	1	lower	zerothre.ttf
732.648	n/a	WORD	366324	wordpools/wasnorm_wordpool_less_exclusions.txt	LTP210	ltpFR	15	2	1	WATERFALL	1595	n/a	n/a	0	n/a	0	0	0	0.57763671875	0.412841796875	1	lower	zerothre.ttf
736.74	n/a	WORD	368370	wordpools/wasnorm_wordpool_less_exclusions.txt	LTP210	ltpFR	15	2	0	VINEGAR	1569	n/a	n/a	0	n/a	0	0	0	0.422607421875	0.5869140625	0	upper	amplitud.ttf
740.646	n/a	WORD	370323	wordpools/wasnorm_wordpool_less_exclusions.txt	LTP210	ltpFR	15	2	0	BULL	193	n/a	n/a	1	n/a	0	0	0	0.422607421875	0.5869140625	0	upper	amplitud.ttf
744.526	n/a	WORD	372263	wordpools/wasnorm_wordpool_less_exclusions.txt	LTP210	ltpFR	15	2	0	MARSH	874	n/a	n/a	1	n/a	0	0	0	0.422607421875	0.5869140625	0	upper	amplitud.ttf
748.56	n/a	WORD	374280	wordpools/wasnorm_wordpool_less_exclusions.txt	LTP210	ltpFR	15	2	0	SPONGE	1355	n/a	n/a	0	n/a	0	0	0	0.422607421875	0.5869140625	0	upper	amplitud.ttf
751.572	n/a	START	375786	n/a	LTP210	ltpFR	15	n/a	n/a	n/a	n/a	n/a	n/a	n/a	n/a	n/a	n/a	n/a	n/a	n/a	n/a	n/a	n/a
752.44	n/a	PROB	376220	n/a	LTP210	ltpFR	15	n/a	n/a	n/a	n/a	n/a	n/a	n/a	17	3	7	7	n/a	n/a	n/a	n/a	n/a
754.006	n/a	PROB	377003	n/a	LTP210	ltpFR	15	n/a	n/a	n/a	n/a	n/a	n/a	n/a	11	1	4	6	n/a	n/a	n/a	n/a	n/a
755.216	n/a	PROB	377608	n/a	LTP210	ltpFR	15	n/a	n/a	n/a	n/a	n/a	n/a	n/a	16	8	4	4	n/a	n/a	n/a	n/a	n/a
756.824	n/a	PROB	378412	n/a	LTP210	ltpFR	15	n/a	n/a	n/a	n/a	n/a	n/a	n/a	19	5	7	7	n/a	n/a	n/a	n/a	n/a
758.32	n/a	STOP	379160	n/a	LTP210	ltpFR	15	n/a	n/a	n/a	n/a	n/a	n/a	n/a	n/a	n/a	n/a	n/a	n/a	n/a	n/a	n/a	n/a
761.374	n/a	REC_START	380687	n/a	LTP210	ltpFR	15	2	n/a	n/a	n/a	n/a	n/a	n/a	n/a	0	0	0	n/a	n/a	n/a	n/a	n/a
761.988	n/a	REC_WORD	380994	wordpools/wasnorm_wordpool_less_exclusions.txt	LTP210	ltpFR	15	2	0	MARSH	874	n/a	n/a	1	n/a	0	0	0	n/a	n/a	n/a	n/a	n/a
764.488	n/a	REC_WORD	382244	wordpools/wasnorm_wordpool_less_exclusions.txt	LTP210	ltpFR	15	2	0	TEAPOT	1442	n/a	n/a	0	n/a	0	0	0	n/a	n/a	n/a	n/a	n/a
766.028	n/a	REC_WORD	383014	wordpools/wasnorm_wordpool_less_exclusions.txt	LTP210	ltpFR	15	2	0	BOWL	158	n/a	n/a	0	n/a	0	0	0	n/a	n/a	n/a	n/a	n/a
768.584	n/a	REC_WORD	384292	wordpools/wasnorm_wordpool_less_exclusions.txt	LTP210	ltpFR	15	2	0	BULL	193	n/a	n/a	1	n/a	0	0	0	n/a	n/a	n/a	n/a	n/a
772.65	n/a	REC_WORD	386325	wordpools/wasnorm_wordpool_less_exclusions.txt	LTP210	ltpFR	15	2	1	SECRETARY	1265	n/a	n/a	1	n/a	0	0	0	n/a	n/a	n/a	n/a	n/a
776.436	n/a	REC_WORD	388218	wordpools/wasnorm_wordpool_less_exclusions.txt	LTP210	ltpFR	15	2	1	WATERFALL	1595	n/a	n/a	0	n/a	0	0	0	n/a	n/a	n/a	n/a	n/a
780.83	n/a	REC_WORD	390415	wordpools/wasnorm_wordpool_less_exclusions.txt	LTP210	ltpFR	15	2	1	SEED	1266	n/a	n/a	0	n/a	0	0	0	n/a	n/a	n/a	n/a	n/a
786.06	n/a	REC_WORD	393030	wordpools/wasnorm_wordpool_less_exclusions.txt	LTP210	ltpFR	15	2	0	WRITER	1627	n/a	n/a	1	n/a	0	0	0	n/a	n/a	n/a	n/a	n/a
794.686	n/a	REC_WORD	397343	wordpools/wasnorm_wordpool_less_exclusions.txt	LTP210	ltpFR	15	2	0	VINEGAR	1569	n/a	n/a	0	n/a	0	0	0	n/a	n/a	n/a	n/a	n/a
798.712	n/a	REC_WORD	399356	wordpools/wasnorm_wordpool_less_exclusions.txt	LTP210	ltpFR	15	2	1	DOLPHIN	483	n/a	n/a	1	n/a	0	0	0	n/a	n/a	n/a	n/a	n/a
816.526	n/a	REC_WORD	408263	wordpools/wasnorm_wordpool_less_exclusions.txt	LTP210	ltpFR	15	2	0	RAIL	1161	n/a	n/a	1	n/a	0	0	0	n/a	n/a	n/a	n/a	n/a
891.414	n/a	WORD	445707	wordpools/wasnorm_wordpool_less_exclusions.txt	LTP210	ltpFR	15	3	0	RACCOON	1153	n/a	n/a	1	n/a	0	0	0	0.422607421875	0.5869140625	0	upper	amplitud.ttf
895.302	n/a	WORD	447651	wordpools/wasnorm_wordpool_less_exclusions.txt	LTP210	ltpFR	15	3	0	CAVE	263	n/a	n/a	1	n/a	0	0	0	0.422607421875	0.5869140625	0	upper	amplitud.ttf
899.518	n/a	WORD	449759	wordpools/wasnorm_wordpool_less_exclusions.txt	LTP210	ltpFR	15	3	0	SNORKEL	1336	n/a	n/a	0	n/a	0	0	0	0.422607421875	0.5869140625	0	upper	amplitud.ttf
903.602	n/a	WORD	451801	wordpools/wasnorm_wordpool_less_exclusions.txt	LTP210	ltpFR	15	3	0	ROPE	1211	n/a	n/a	0	n/a	0	0	0	0.422607421875	0.5869140625	0	upper	amplitud.ttf
907.744	n/a	WORD	453872	wordpools/wasnorm_wordpool_less_exclusions.txt	LTP210	ltpFR	15	3	0	CRATER	400	n/a	n/a	1	n/a	0	0	0	0.422607421875	0.5869140625	0	upper	amplitud.ttf
911.682	n/a	WORD	455841	wordpools/wasnorm_wordpool_less_exclusions.txt	LTP210	ltpFR	15	3	0	BATHROOM	99	n/a	n/a	1	n/a	0	0	0	0.422607421875	0.5869140625	0	upper	amplitud.ttf
915.58	n/a	WORD	457790	wordpools/wasnorm_wordpool_less_exclusions.txt	LTP210	ltpFR	15	3	0	TOILET	1475	n/a	n/a	1	n/a	0	0	0	0.422607421875	0.5869140625	0	upper	amplitud.ttf
919.596	n/a	WORD	459798	wordpools/wasnorm_wordpool_less_exclusions.txt	LTP210	ltpFR	15	3	0	PAIL	1002	n/a	n/a	1	n/a	0	0	0	0.422607421875	0.5869140625	0	upper	amplitud.ttf
923.612	n/a	WORD	461806	wordpools/wasnorm_wordpool_less_exclusions.txt	LTP210	ltpFR	15	3	0	CHIPMUNK	304	n/a	n/a	0	n/a	0	0	0	0.422607421875	0.5869140625	0	upper	amplitud.ttf
927.452	n/a	WORD	463726	wordpools/wasnorm_wordpool_less_exclusions.txt	LTP210	ltpFR	15	3	0	STUMP	1396	n/a	n/a	1	n/a	0	0	0	0.422607421875	0.5869140625	0	upper	amplitud.ttf
931.374	n/a	WORD	465687	wordpools/wasnorm_wordpool_less_exclusions.txt	LTP210	ltpFR	15	3	0	ORANGE	980	n/a	n/a	0	n/a	0	0	0	0.422607421875	0.5869140625	0	upper	amplitud.ttf
935.204	n/a	WORD	467602	wordpools/wasnorm_wordpool_less_exclusions.txt	LTP210	ltpFR	15	3	0	VICTOR	1563	n/a	n/a	1	n/a	0	0	0	0.422607421875	0.5869140625	0	upper	amplitud.ttf
939.154	n/a	WORD	469577	wordpools/wasnorm_wordpool_less_exclusions.txt	LTP210	ltpFR	15	3	0	FIST	572	n/a	n/a	0	n/a	0	0	0	0.422607421875	0.5869140625	0	upper	amplitud.ttf
943.078	n/a	WORD	471539	wordpools/wasnorm_wordpool_less_exclusions.txt	LTP210	ltpFR	15	3	0	PLANT	1083	n/a	n/a	0	n/a	0	0	0	0.422607421875	0.5869140625	0	upper	amplitud.ttf
947.226	n/a	WORD	473613	wordpools/wasnorm_wordpool_less_exclusions.txt	LTP210	ltpFR	15	3	0	CONDUCTOR	362	n/a	n/a	1	n/a	0	0	0	0.422607421875	0.5869140625	0	upper	amplitud.ttf
951.142	n/a	WORD	475571	wordpools/wasnorm_wordpool_less_exclusions.txt	LTP210	ltpFR	15	3	0	TUBA	1515	n/a	n/a	1	n/a	0	0	0	0.422607421875	0.5869140625	0	upper	amplitud.ttf
957.034	n/a	REC_START	478517	n/a	LTP210	ltpFR	15	3	n/a	n/a	n/a	n/a	n/a	n/a	n/a	0	0	0	n/a	n/a	n/a	n/a	n/a
957.882	n/a	REC_WORD	478941	wordpools/wasnorm_wordpool_less_exclusions.txt	LTP210	ltpFR	15	3	0	CHIPMUNK	304	n/a	n/a	0	n/a	0	0	0	n/a	n/a	n/a	n/a	n/a
959.308	n/a	REC_WORD	479654	wordpools/wasnorm_wordpool_less_exclusions.txt	LTP210	ltpFR	15	3	0	TUBA	1515	n/a	n/a	1	n/a	0	0	0	n/a	n/a	n/a	n/a	n/a
960.754	n/a	REC_WORD	480377	wordpools/wasnorm_wordpool_less_exclusions.txt	LTP210	ltpFR	15	3	0	ORANGE	980	n/a	n/a	0	n/a	0	0	0	n/a	n/a	n/a	n/a	n/a
968.422	n/a	REC_WORD	484211	wordpools/wasnorm_wordpool_less_exclusions.txt	LTP210	ltpFR	15	3	0	PAIL	1002	n/a	n/a	1	n/a	0	0	0	n/a	n/a	n/a	n/a	n/a
978.62	n/a	REC_WORD	489310	wordpools/wasnorm_wordpool_less_exclusions.txt	LTP210	ltpFR	15	3	0	ROPE	1211	n/a	n/a	0	n/a	0	0	0	n/a	n/a	n/a	n/a	n/a
982.726	n/a	REC_WORD	491363	wordpools/wasnorm_wordpool_less_exclusions.txt	LTP210	ltpFR	15	3	1	CORD	379	n/a	n/a	0	n/a	0	0	0	n/a	n/a	n/a	n/a	n/a
984.53	n/a	REC_WORD_VV	492265	wordpools/wasnorm_wordpool_less_exclusions.txt	LTP210	ltpFR	15	3	n/a	<>	-1	n/a	n/a	n/a	n/a	0	0	0	n/a	n/a	n/a	n/a	n/a
1002.052	n/a	REC_WORD	501026	wordpools/wasnorm_wordpool_less_exclusions.txt	LTP210	ltpFR	15	3	0	BATHROOM	99	n/a	n/a	1	n/a	0	0	0	n/a	n/a	n/a	n/a	n/a
1003.16	n/a	REC_WORD	501580	wordpools/wasnorm_wordpool_less_exclusions.txt	LTP210	ltpFR	15	3	0	TOILET	1475	n/a	n/a	1	n/a	0	0	0	n/a	n/a	n/a	n/a	n/a
1014.824	n/a	REC_WORD	507412	wordpools/wasnorm_wordpool_less_exclusions.txt	LTP210	ltpFR	15	3	0	FIST	572	n/a	n/a	0	n/a	0	0	0	n/a	n/a	n/a	n/a	n/a
1065.982	n/a	WORD	532991	wordpools/wasnorm_wordpool_less_exclusions.txt	LTP210	ltpFR	15	4	1	FINGER	567	n/a	n/a	0	n/a	0	0	0	0.57763671875	0.412841796875	1	lower	zerothre.ttf
1070.048	n/a	WORD	535024	wordpools/wasnorm_wordpool_less_exclusions.txt	LTP210	ltpFR	15	4	1	PANTHER	1009	n/a	n/a	1	n/a	0	0	0	0.57763671875	0.412841796875	1	lower	zerothre.ttf
1073.878	n/a	WORD	536939	wordpools/wasnorm_wordpool_less_exclusions.txt	LTP210	ltpFR	15	4	1	BEAVER	109	n/a	n/a	1	n/a	0	0	0	0.57763671875	0.412841796875	1	lower	zerothre.ttf
1078.086	n/a	WORD	539043	wordpools/wasnorm_wordpool_less_exclusions.txt	LTP210	ltpFR	15	4	1	FARM	552	n/a	n/a	0	n/a	0	0	0	0.57763671875	0.412841796875	1	lower	zerothre.ttf
1082.25	n/a	WORD	541125	wordpools/wasnorm_wordpool_less_exclusions.txt	LTP210	ltpFR	15	4	1	LOBSTER	837	n/a	n/a	1	n/a	0	0	0	0.57763671875	0.412841796875	1	lower	zerothre.ttf
1086.476	n/a	WORD	543238	wordpools/wasnorm_wordpool_less_exclusions.txt	LTP210	ltpFR	15	4	1	FOREST	593	n/a	n/a	0	n/a	0	0	0	0.57763671875	0.412841796875	1	lower	zerothre.ttf
1090.61	n/a	WORD	545305	wordpools/wasnorm_wordpool_less_exclusions.txt	LTP210	ltpFR	15	4	1	MOOSE	915	n/a	n/a	1	n/a	0	0	0	0.57763671875	0.412841796875	1	lower	zerothre.ttf
1094.682	n/a	WORD	547341	wordpools/wasnorm_wordpool_less_exclusions.txt	LTP210	ltpFR	15	4	1	POLICE	1098	n/a	n/a	1	n/a	0	0	0	0.57763671875	0.412841796875	1	lower	zerothre.ttf
1098.572	n/a	WORD	549286	wordpools/wasnorm_wordpool_less_exclusions.txt	LTP210	ltpFR	15	4	1	VALVE	1546	n/a	n/a	0	n/a	0	0	0	0.57763671875	0.412841796875	1	lower	zerothre.ttf
1102.596	n/a	WORD	551298	wordpools/wasnorm_wordpool_less_exclusions.txt	LTP210	ltpFR	15	4	1	BALCONY	72	n/a	n/a	0	n/a	0	0	0	0.57763671875	0.412841796875	1	lower	zerothre.ttf
1106.494	n/a	WORD	553247	wordpools/wasnorm_wordpool_less_exclusions.txt	LTP210	ltpFR	15	4	1	TRAY	1498	n/a	n/a	0	n/a	0	0	0	0.57763671875	0.412841796875	1	lower	zerothre.ttf
1110.324	n/a	WORD	555162	wordpools/wasnorm_wordpool_less_exclusions.txt	LTP210	ltpFR	15	4	1	CEREAL	272	n/a	n/a	0	n/a	0	0	0	0.57763671875	0.412841796875	1	lower	zerothre.ttf
1114.516	n/a	WORD	557258	wordpools/wasnorm_wordpool_less_exclusions.txt	LTP210	ltpFR	15	4	1	APARTMENT	30	n/a	n/a	0	n/a	0	0	0	0.57763671875	0.412841796875	1	lower	zerothre.ttf
1118.498	n/a	WORD	559249	wordpools/wasnorm_wordpool_less_exclusions.txt	LTP210	ltpFR	15	4	1	DASHBOARD	441	n/a	n/a	0	n/a	0	0	0	0.57763671875	0.412841796875	1	lower	zerothre.ttf
1122.588	n/a	WORD	561294	wordpools/wasnorm_wordpool_less_exclusions.txt	LTP210	ltpFR	15	4	1	HERD	705	n/a	n/a	0	n/a	0	0	0	0.57763671875	0.412841796875	1	lower	zerothre.ttf
1126.446	n/a	WORD	563223	wordpools/wasnorm_wordpool_less_exclusions.txt	LTP210	ltpFR	15	4	1	CATTLE	261	n/a	n/a	1	n/a	0	0	0	0.57763671875	0.412841796875	1	lower	zerothre.ttf
1129.456	n/a	START	564728	n/a	LTP210	ltpFR	15	n/a	n/a	n/a	n/a	n/a	n/a	n/a	n/a	n/a	n/a	n/a	n/a	n/a	n/a	n/a	n/a
1130.434	n/a	PROB	565217	n/a	LTP210	ltpFR	15	n/a	n/a	n/a	n/a	n/a	n/a	n/a	18	5	6	7	n/a	n/a	n/a	n/a	n/a
1132.218	n/a	PROB	566109	n/a	LTP210	ltpFR	15	n/a	n/a	n/a	n/a	n/a	n/a	n/a	20	7	6	7	n/a	n/a	n/a	n/a	n/a
1133.84	n/a	PROB	566920	n/a	LTP210	ltpFR	15	n/a	n/a	n/a	n/a	n/a	n/a	n/a	20	5	9	6	n/a	n/a	n/a	n/a	n/a
1136.028	n/a	STOP	568014	n/a	LTP210	ltpFR	15	n/a	n/a	n/a	n/a	n/a	n/a	n/a	n/a	n/a	n/a	n/a	n/a	n/a	n/a	n/a	n/a
1139.312	n/a	REC_START	569656	n/a	LTP210	ltpFR	15	4	n/a	n/a	n/a	n/a	n/a	n/a	n/a	0	0	0	n/a	n/a	n/a	n/a	n/a
1140.23	n/a	REC_WORD	570115	wordpools/wasnorm_wordpool_less_exclusions.txt	LTP210	ltpFR	15	4	1	CATTLE	261	n/a	n/a	1	n/a	0	0	0	n/a	n/a	n/a	n/a	n/a
1141.386	n/a	REC_WORD	570693	wordpools/wasnorm_wordpool_less_exclusions.txt	LTP210	ltpFR	15	4	1	HERD	705	n/a	n/a	0	n/a	0	0	0	n/a	n/a	n/a	n/a	n/a
1142.774	n/a	REC_WORD	571387	wordpools/wasnorm_wordpool_less_exclusions.txt	LTP210	ltpFR	15	4	1	POLICE	1098	n/a	n/a	1	n/a	0	0	0	n/a	n/a	n/a	n/a	n/a
1144.156	n/a	REC_WORD	572078	wordpools/wasnorm_wordpool_less_exclusions.txt	LTP210	ltpFR	15	4	1	FARM	552	n/a	n/a	0	n/a	0	0	0	n/a	n/a	n/a	n/a	n/a
1145.468	n/a	REC_WORD	572734	wordpools/wasnorm_wordpool_less_exclusions.txt	LTP210	ltpFR	15	4	1	FOREST	593	n/a	n/a	0	n/a	0	0	0	n/a	n/a	n/a	n/a	n/a
1146.92	n/a	REC_WORD	573460	wordpools/wasnorm_wordpool_less_exclusions.txt	LTP210	ltpFR	15	4	1	MOOSE	915	n/a	n/a	1	n/a	0	0	0	n/a	n/a	n/a	n/a	n/a
1150.95	n/a	REC_WORD	575475	wordpools/wasnorm_wordpool_less_exclusions.txt	LTP210	ltpFR	15	4	1	PANTHER	1009	n/a	n/a	1	n/a	0	0	0	n/a	n/a	n/a	n/a	n/a
1155.156	n/a	REC_WORD	577578	wordpools/wasnorm_wordpool_less_exclusions.txt	LTP210	ltpFR	15	4	1	FINGER	567	n/a	n/a	0	n/a	0	0	0	n/a	n/a	n/a	n/a	n/a
1157.87	n/a	REC_WORD	578935	wordpools/wasnorm_wordpool_less_exclusions.txt	LTP210	ltpFR	15	4	1	APARTMENT	30	n/a	n/a	0	n/a	0	0	0	n/a	n/a	n/a	n/a	n/a
1173.292	n/a	REC_WORD	586646	wordpools/wasnorm_wordpool_less_exclusions.txt	LTP210	ltpFR	15	4	1	POLICE	1098	n/a	n/a	1	n/a	0	0	0	n/a	n/a	n/a	n/a	n/a
1234.532	n/a	START	617266	n/a	LTP210	ltpFR	15	n/a	n/a	n/a	n/a	n/a	n/a	n/a	n/a	n/a	n/a	n/a	n/a	n/a	n/a	n/a	n/a
1236.048	n/a	PROB	618024	n/a	LTP210	ltpFR	15	n/a	n/a	n/a	n/a	n/a	n/a	n/a	15	4	9	2	n/a	n/a	n/a	n/a	n/a
1237.872	n/a	PROB	618936	n/a	LTP210	ltpFR	15	n/a	n/a	n/a	n/a	n/a	n/a	n/a	19	6	7	6	n/a	n/a	n/a	n/a	n/a
1240.514	n/a	PROB	620257	n/a	LTP210	ltpFR	15	n/a	n/a	n/a	n/a	n/a	n/a	n/a	15	3	8	4	n/a	n/a	n/a	n/a	n/a
1242.202	n/a	STOP	621101	n/a	LTP210	ltpFR	15	n/a	n/a	n/a	n/a	n/a	n/a	n/a	n/a	n/a	n/a	n/a	n/a	n/a	n/a	n/a	n/a
1243.578	n/a	WORD	621789	wordpools/wasnorm_wordpool_less_exclusions.txt	LTP210	ltpFR	15	5	1	FOUNTAIN	597	n/a	n/a	0	n/a	0	0	0	0.57763671875	0.412841796875	1	lower	zerothre.ttf
1246.588	n/a	START	623294	n/a	LTP210	ltpFR	15	n/a	n/a	n/a	n/a	n/a	n/a	n/a	n/a	n/a	n/a	n/a	n/a	n/a	n/a	n/a	n/a
1247.458	n/a	PROB	623729	n/a	LTP210	ltpFR	15	n/a	n/a	n/a	n/a	n/a	n/a	n/a	8	4	3	1	n/a	n/a	n/a	n/a	n/a
1248.864	n/a	PROB	624432	n/a	LTP210	ltpFR	15	n/a	n/a	n/a	n/a	n/a	n/a	n/a	16	4	8	4	n/a	n/a	n/a	n/a	n/a
1250.376	n/a	PROB	625188	n/a	LTP210	ltpFR	15	n/a	n/a	n/a	n/a	n/a	n/a	n/a	14	4	6	4	n/a	n/a	n/a	n/a	n/a
1251.674	n/a	PROB	625837	n/a	LTP210	ltpFR	15	n/a	n/a	n/a	n/a	n/a	n/a	n/a	16	1	9	6	n/a	n/a	n/a	n/a	n/a
1252.718	n/a	PROB	626359	n/a	LTP210	ltpFR	15	n/a	n/a	n/a	n/a	n/a	n/a	n/a	16	9	2	5	n/a	n/a	n/a	n/a	n/a
1254.258	n/a	STOP	627129	n/a	LTP210	ltpFR	15	n/a	n/a	n/a	n/a	n/a	n/a	n/a	n/a	n/a	n/a	n/a	n/a	n/a	n/a	n/a	n/a
1255.444	n/a	WORD	627722	wordpools/wasnorm_wordpool_less_exclusions.txt	LTP210	ltpFR	15	5	1	DRINK	498	n/a	n/a	0	n/a	0	0	0	0.57763671875	0.412841796875	1	lower	zerothre.ttf
1258.458	n/a	START	629229	n/a	LTP210	ltpFR	15	n/a	n/a	n/a	n/a	n/a	n/a	n/a	n/a	n/a	n/a	n/a	n/a	n/a	n/a	n/a	n/a
1259.488	n/a	PROB	629744	n/a	LTP210	ltpFR	15	n/a	n/a	n/a	n/a	n/a	n/a	n/a	21	4	8	9	n/a	n/a	n/a	n/a	n/a
1261.226	n/a	PROB	630613	n/a	LTP210	ltpFR	15	n/a	n/a	n/a	n/a	n/a	n/a	n/a	17	7	5	4	n/a	n/a	n/a	n/a	n/a
1263.418	n/a	PROB	631709	n/a	LTP210	ltpFR	15	n/a	n/a	n/a	n/a	n/a	n/a	n/a	13	1	7	5	n/a	n/a	n/a	n/a	n/a
1266.418	n/a	STOP	633209	n/a	LTP210	ltpFR	15	n/a	n/a	n/a	n/a	n/a	n/a	n/a	n/a	n/a	n/a	n/a	n/a	n/a	n/a	n/a	n/a
1267.324	n/a	WORD	633662	wordpools/wasnorm_wordpool_less_exclusions.txt	LTP210	ltpFR	15	5	1	MOTHER	921	n/a	n/a	1	n/a	0	0	0	0.57763671875	0.412841796875	1	lower	zerothre.ttf
1270.336	n/a	START	635168	n/a	LTP210	ltpFR	15	n/a	n/a	n/a	n/a	n/a	n/a	n/a	n/a	n/a	n/a	n/a	n/a	n/a	n/a	n/a	n/a
1271.256	n/a	PROB	635628	n/a	LTP210	ltpFR	15	n/a	n/a	n/a	n/a	n/a	n/a	n/a	14	2	4	8	n/a	n/a	n/a	n/a	n/a
1272.51	n/a	PROB	636255	n/a	LTP210	ltpFR	15	n/a	n/a	n/a	n/a	n/a	n/a	n/a	9	4	1	4	n/a	n/a	n/a	n/a	n/a
1273.732	n/a	PROB	636866	n/a	LTP210	ltpFR	15	n/a	n/a	n/a	n/a	n/a	n/a	n/a	16	2	6	8	n/a	n/a	n/a	n/a	n/a
1275.438	n/a	PROB	637719	n/a	LTP210	ltpFR	15	n/a	n/a	n/a	n/a	n/a	n/a	n/a	12	3	3	6	n/a	n/a	n/a	n/a	n/a
1278.336	n/a	STOP	639168	n/a	LTP210	ltpFR	15	n/a	n/a	n/a	n/a	n/a	n/a	n/a	n/a	n/a	n/a	n/a	n/a	n/a	n/a	n/a	n/a
1279.286	n/a	WORD	639643	wordpools/wasnorm_wordpool_less_exclusions.txt	LTP210	ltpFR	15	5	0	PLATE	1086	n/a	n/a	0	n/a	0	0	0	0.422607421875	0.5869140625	0	upper	amplitud.ttf
1282.298	n/a	START	641149	n/a	LTP210	ltpFR	15	n/a	n/a	n/a	n/a	n/a	n/a	n/a	n/a	n/a	n/a	n/a	n/a	n/a	n/a	n/a	n/a
1283.502	n/a	PROB	641751	n/a	LTP210	ltpFR	15	n/a	n/a	n/a	n/a	n/a	n/a	n/a	23	8	6	9	n/a	n/a	n/a	n/a	n/a
1285.42	n/a	PROB	642710	n/a	LTP210	ltpFR	15	n/a	n/a	n/a	n/a	n/a	n/a	n/a	17	7	7	3	n/a	n/a	n/a	n/a	n/a
1287.134	n/a	PROB	643567	n/a	LTP210	ltpFR	15	n/a	n/a	n/a	n/a	n/a	n/a	n/a	16	6	9	1	n/a	n/a	n/a	n/a	n/a
1288.48	n/a	PROB	644240	n/a	LTP210	ltpFR	15	n/a	n/a	n/a	n/a	n/a	n/a	n/a	6	1	4	1	n/a	n/a	n/a	n/a	n/a
1289.676	n/a	STOP	644838	n/a	LTP210	ltpFR	15	n/a	n/a	n/a	n/a	n/a	n/a	n/a	n/a	n/a	n/a	n/a	n/a	n/a	n/a	n/a	n/a
1291.348	n/a	WORD	645674	wordpools/wasnorm_wordpool_less_exclusions.txt	LTP210	ltpFR	15	5	0	BOTTLE	153	n/a	n/a	0	n/a	0	0	0	0.422607421875	0.5869140625	0	upper	amplitud.ttf
1294.362	n/a	START	647181	n/a	LTP210	ltpFR	15	n/a	n/a	n/a	n/a	n/a	n/a	n/a	n/a	n/a	n/a	n/a	n/a	n/a	n/a	n/a	n/a
1295.264	n/a	PROB	647632	n/a	LTP210	ltpFR	15	n/a	n/a	n/a	n/a	n/a	n/a	n/a	22	4	9	9	n/a	n/a	n/a	n/a	n/a
1296.904	n/a	PROB	648452	n/a	LTP210	ltpFR	15	n/a	n/a	n/a	n/a	n/a	n/a	n/a	12	8	1	3	n/a	n/a	n/a	n/a	n/a
1298.638	n/a	PROB	649319	n/a	LTP210	ltpFR	15	n/a	n/a	n/a	n/a	n/a	n/a	n/a	17	8	1	8	n/a	n/a	n/a	n/a	n/a
1301.292	n/a	STOP	650646	n/a	LTP210	ltpFR	15	n/a	n/a	n/a	n/a	n/a	n/a	n/a	n/a	n/a	n/a	n/a	n/a	n/a	n/a	n/a	n/a
1303.304	n/a	WORD	651652	wordpools/wasnorm_wordpool_less_exclusions.txt	LTP210	ltpFR	15	5	0	MUG	930	n/a	n/a	0	n/a	0	0	0	0.422607421875	0.5869140625	0	upper	amplitud.ttf
1306.316	n/a	START	653158	n/a	LTP210	ltpFR	15	n/a	n/a	n/a	n/a	n/a	n/a	n/a	n/a	n/a	n/a	n/a	n/a	n/a	n/a	n/a	n/a
1307.47	n/a	PROB	653735	n/a	LTP210	ltpFR	15	n/a	n/a	n/a	n/a	n/a	n/a	n/a	26	9	8	9	n/a	n/a	n/a	n/a	n/a
1309.152	n/a	PROB	654576	n/a	LTP210	ltpFR	15	n/a	n/a	n/a	n/a	n/a	n/a	n/a	18	6	6	6	n/a	n/a	n/a	n/a	n/a
1310.834	n/a	PROB	655417	n/a	LTP210	ltpFR	15	n/a	n/a	n/a	n/a	n/a	n/a	n/a	12	8	3	1	n/a	n/a	n/a	n/a	n/a
1312.246	n/a	PROB	656123	n/a	LTP210	ltpFR	15	n/a	n/a	n/a	n/a	n/a	n/a	n/a	18	8	6	4	n/a	n/a	n/a	n/a	n/a
1314.046	n/a	STOP	657023	n/a	LTP210	ltpFR	15	n/a	n/a	n/a	n/a	n/a	n/a	n/a	n/a	n/a	n/a	n/a	n/a	n/a	n/a	n/a	n/a
1315.342	n/a	WORD	657671	wordpools/wasnorm_wordpool_less_exclusions.txt	LTP210	ltpFR	15	5	0	NOVEL	960	n/a	n/a	0	n/a	0	0	0	0.422607421875	0.5869140625	0	upper	amplitud.ttf
1318.352	n/a	START	659176	n/a	LTP210	ltpFR	15	n/a	n/a	n/a	n/a	n/a	n/a	n/a	n/a	n/a	n/a	n/a	n/a	n/a	n/a	n/a	n/a
1319.298	n/a	PROB	659649	n/a	LTP210	ltpFR	15	n/a	n/a	n/a	n/a	n/a	n/a	n/a	4	1	1	2	n/a	n/a	n/a	n/a	n/a
1320.454	n/a	PROB	660227	n/a	LTP210	ltpFR	15	n/a	n/a	n/a	n/a	n/a	n/a	n/a	15	5	7	3	n/a	n/a	n/a	n/a	n/a
1322.628	n/a	PROB	661314	n/a	LTP210	ltpFR	15	n/a	n/a	n/a	n/a	n/a	n/a	n/a	18	8	3	7	n/a	n/a	n/a	n/a	n/a
1324.034	n/a	PROB	662017	n/a	LTP210	ltpFR	15	n/a	n/a	n/a	n/a	n/a	n/a	n/a	13	8	3	2	n/a	n/a	n/a	n/a	n/a
1325.574	n/a	STOP	662787	n/a	LTP210	ltpFR	15	n/a	n/a	n/a	n/a	n/a	n/a	n/a	n/a	n/a	n/a	n/a	n/a	n/a	n/a	n/a	n/a
1327.58	n/a	WORD	663790	wordpools/wasnorm_wordpool_less_exclusions.txt	LTP210	ltpFR	15	5	0	BARRACUDA	90	n/a	n/a	1	n/a	0	0	0	0.422607421875	0.5869140625	0	upper	amplitud.ttf
1330.592	n/a	START	665296	n/a	LTP210	ltpFR	15	n/a	n/a	n/a	n/a	n/a	n/a	n/a	n/a	n/a	n/a	n/a	n/a	n/a	n/a	n/a	n/a
1331.496	n/a	PROB	665748	n/a	LTP210	ltpFR	15	n/a	n/a	n/a	n/a	n/a	n/a	n/a	10	1	8	1	n/a	n/a	n/a	n/a	n/a
1332.752	n/a	PROB	666376	n/a	LTP210	ltpFR	15	n/a	n/a	n/a	n/a	n/a	n/a	n/a	15	7	1	7	n/a	n/a	n/a	n/a	n/a
1334.156	n/a	PROB	667078	n/a	LTP210	ltpFR	15	n/a	n/a	n/a	n/a	n/a	n/a	n/a	13	2	4	7	n/a	n/a	n/a	n/a	n/a
1336.59	n/a	PROB	668295	n/a	LTP210	ltpFR	15	n/a	n/a	n/a	n/a	n/a	n/a	n/a	15	1	8	6	n/a	n/a	n/a	n/a	n/a
1338.262	n/a	STOP	669131	n/a	LTP210	ltpFR	15	n/a	n/a	n/a	n/a	n/a	n/a	n/a	n/a	n/a	n/a	n/a	n/a	n/a	n/a	n/a	n/a
1339.652	n/a	WORD	669826	wordpools/wasnorm_wordpool_less_exclusions.txt	LTP210	ltpFR	15	5	1	SHARK	1275	n/a	n/a	1	n/a	0	0	0	0.57763671875	0.412841796875	1	lower	zerothre.ttf
1342.664	n/a	START	671332	n/a	LTP210	ltpFR	15	n/a	n/a	n/a	n/a	n/a	n/a	n/a	n/a	n/a	n/a	n/a	n/a	n/a	n/a	n/a	n/a
1343.876	n/a	PROB	671938	n/a	LTP210	ltpFR	15	n/a	n/a	n/a	n/a	n/a	n/a	n/a	5	3	1	1	n/a	n/a	n/a	n/a	n/a
1345.132	n/a	PROB	672566	n/a	LTP210	ltpFR	15	n/a	n/a	n/a	n/a	n/a	n/a	n/a	20	7	5	8	n/a	n/a	n/a	n/a	n/a
1346.938	n/a	PROB	673469	n/a	LTP210	ltpFR	15	n/a	n/a	n/a	n/a	n/a	n/a	n/a	19	8	5	6	n/a	n/a	n/a	n/a	n/a
1348.584	n/a	PROB	674292	n/a	LTP210	ltpFR	15	n/a	n/a	n/a	n/a	n/a	n/a	n/a	17	6	4	7	n/a	n/a	n/a	n/a	n/a
1349.778	n/a	STOP	674889	n/a	LTP210	ltpFR	15	n/a	n/a	n/a	n/a	n/a	n/a	n/a	n/a	n/a	n/a	n/a	n/a	n/a	n/a	n/a	n/a
1351.59	n/a	WORD	675795	wordpools/wasnorm_wordpool_less_exclusions.txt	LTP210	ltpFR	15	5	1	GORILLA	650	n/a	n/a	1	n/a	0	0	0	0.57763671875	0.412841796875	1	lower	zerothre.ttf
1354.602	n/a	START	677301	n/a	LTP210	ltpFR	15	n/a	n/a	n/a	n/a	n/a	n/a	n/a	n/a	n/a	n/a	n/a	n/a	n/a	n/a	n/a	n/a
1355.638	n/a	PROB	677819	n/a	LTP210	ltpFR	15	n/a	n/a	n/a	n/a	n/a	n/a	n/a	14	1	4	9	n/a	n/a	n/a	n/a	n/a
1356.71	n/a	PROB	678355	n/a	LTP210	ltpFR	15	n/a	n/a	n/a	n/a	n/a	n/a	n/a	21	4	9	8	n/a	n/a	n/a	n/a	n/a
1358.8	n/a	PROB	679400	n/a	LTP210	ltpFR	15	n/a	n/a	n/a	n/a	n/a	n/a	n/a	25	9	7	9	n/a	n/a	n/a	n/a	n/a
1362.602	n/a	STOP	681301	n/a	LTP210	ltpFR	15	n/a	n/a	n/a	n/a	n/a	n/a	n/a	n/a	n/a	n/a	n/a	n/a	n/a	n/a	n/a	n/a
1363.692	n/a	WORD	681846	wordpools/wasnorm_wordpool_less_exclusions.txt	LTP210	ltpFR	15	5	0	CURB	426	n/a	n/a	1	n/a	0	0	0	0.422607421875	0.5869140625	0	upper	amplitud.ttf
1366.704	n/a	START	683352	n/a	LTP210	ltpFR	15	n/a	n/a	n/a	n/a	n/a	n/a	n/a	n/a	n/a	n/a	n/a	n/a	n/a	n/a	n/a	n/a
1367.868	n/a	PROB	683934	n/a	LTP210	ltpFR	15	n/a	n/a	n/a	n/a	n/a	n/a	n/a	9	2	6	1	n/a	n/a	n/a	n/a	n/a
1369.19	n/a	PROB	684595	n/a	LTP210	ltpFR	15	n/a	n/a	n/a	n/a	n/a	n/a	n/a	24	9	7	8	n/a	n/a	n/a	n/a	n/a
1371.148	n/a	PROB	685574	n/a	LTP210	ltpFR	15	n/a	n/a	n/a	n/a	n/a	n/a	n/a	21	7	6	8	n/a	n/a	n/a	n/a	n/a
1374.706	n/a	STOP	687353	n/a	LTP210	ltpFR	15	n/a	n/a	n/a	n/a	n/a	n/a	n/a	n/a	n/a	n/a	n/a	n/a	n/a	n/a	n/a	n/a
1375.798	n/a	WORD	687899	wordpools/wasnorm_wordpool_less_exclusions.txt	LTP210	ltpFR	15	5	0	ANTEATER	26	n/a	n/a	1	n/a	0	0	0	0.422607421875	0.5869140625	0	upper	amplitud.ttf
1378.81	n/a	START	689405	n/a	LTP210	ltpFR	15	n/a	n/a	n/a	n/a	n/a	n/a	n/a	n/a	n/a	n/a	n/a	n/a	n/a	n/a	n/a	n/a
1379.62	n/a	PROB	689810	n/a	LTP210	ltpFR	15	n/a	n/a	n/a	n/a	n/a	n/a	n/a	15	2	8	5	n/a	n/a	n/a	n/a	n/a
1381.002	n/a	PROB	690501	n/a	LTP210	ltpFR	15	n/a	n/a	n/a	n/a	n/a	n/a	n/a	17	1	7	9	n/a	n/a	n/a	n/a	n/a
1382.414	n/a	PROB	691207	n/a	LTP210	ltpFR	15	n/a	n/a	n/a	n/a	n/a	n/a	n/a	8	1	2	5	n/a	n/a	n/a	n/a	n/a
1384.27	n/a	PROB	692135	n/a	LTP210	ltpFR	15	n/a	n/a	n/a	n/a	n/a	n/a	n/a	14	9	1	4	n/a	n/a	n/a	n/a	n/a
1385.352	n/a	STOP	692676	n/a	LTP210	ltpFR	15	n/a	n/a	n/a	n/a	n/a	n/a	n/a	n/a	n/a	n/a	n/a	n/a	n/a	n/a	n/a	n/a
1387.878	n/a	WORD	693939	wordpools/wasnorm_wordpool_less_exclusions.txt	LTP210	ltpFR	15	5	0	COFFEE	341	n/a	n/a	0	n/a	0	0	0	0.422607421875	0.5869140625	0	upper	amplitud.ttf
1390.89	n/a	START	695445	n/a	LTP210	ltpFR	15	n/a	n/a	n/a	n/a	n/a	n/a	n/a	n/a	n/a	n/a	n/a	n/a	n/a	n/a	n/a	n/a
1392.094	n/a	PROB	696047	n/a	LTP210	ltpFR	15	n/a	n/a	n/a	n/a	n/a	n/a	n/a	7	1	4	2	n/a	n/a	n/a	n/a	n/a
1394.31	n/a	PROB	697155	n/a	LTP210	ltpFR	15	n/a	n/a	n/a	n/a	n/a	n/a	n/a	14	2	4	8	n/a	n/a	n/a	n/a	n/a
1395.498	n/a	PROB	697749	n/a	LTP210	ltpFR	15	n/a	n/a	n/a	n/a	n/a	n/a	n/a	15	3	5	7	n/a	n/a	n/a	n/a	n/a
1396.886	n/a	PROB	698443	n/a	LTP210	ltpFR	15	n/a	n/a	n/a	n/a	n/a	n/a	n/a	23	8	9	6	n/a	n/a	n/a	n/a	n/a
1398.722	n/a	STOP	699361	n/a	LTP210	ltpFR	15	n/a	n/a	n/a	n/a	n/a	n/a	n/a	n/a	n/a	n/a	n/a	n/a	n/a	n/a	n/a	n/a
1399.964	n/a	WORD	699982	wordpools/wasnorm_wordpool_less_exclusions.txt	LTP210	ltpFR	15	5	1	KIDNEY	776	n/a	n/a	0	n/a	0	0	0	0.57763671875	0.412841796875	1	lower	zerothre.ttf
1402.976	n/a	START	701488	n/a	LTP210	ltpFR	15	n/a	n/a	n/a	n/a	n/a	n/a	n/a	n/a	n/a	n/a	n/a	n/a	n/a	n/a	n/a	n/a
1403.896	n/a	PROB	701948	n/a	LTP210	ltpFR	15	n/a	n/a	n/a	n/a	n/a	n/a	n/a	10	2	4	4	n/a	n/a	n/a	n/a	n/a
1405.26	n/a	PROB	702630	n/a	LTP210	ltpFR	15	n/a	n/a	n/a	n/a	n/a	n/a	n/a	13	7	2	4	n/a	n/a	n/a	n/a	n/a
1407.502	n/a	PROB	703751	n/a	LTP210	ltpFR	15	n/a	n/a	n/a	n/a	n/a	n/a	n/a	15	3	5	7	n/a	n/a	n/a	n/a	n/a
1410.978	n/a	STOP	705489	n/a	LTP210	ltpFR	15	n/a	n/a	n/a	n/a	n/a	n/a	n/a	n/a	n/a	n/a	n/a	n/a	n/a	n/a	n/a	n/a
1412.094	n/a	WORD	706047	wordpools/wasnorm_wordpool_less_exclusions.txt	LTP210	ltpFR	15	5	1	FATHER	554	n/a	n/a	1	n/a	0	0	0	0.57763671875	0.412841796875	1	lower	zerothre.ttf
1415.106	n/a	START	707553	n/a	LTP210	ltpFR	15	n/a	n/a	n/a	n/a	n/a	n/a	n/a	n/a	n/a	n/a	n/a	n/a	n/a	n/a	n/a	n/a
1416.086	n/a	PROB	708043	n/a	LTP210	ltpFR	15	n/a	n/a	n/a	n/a	n/a	n/a	n/a	17	6	6	5	n/a	n/a	n/a	n/a	n/a
1417.732	n/a	PROB	708866	n/a	LTP210	ltpFR	15	n/a	n/a	n/a	n/a	n/a	n/a	n/a	19	7	9	3	n/a	n/a	n/a	n/a	n/a
1418.92	n/a	PROB	709460	n/a	LTP210	ltpFR	15	n/a	n/a	n/a	n/a	n/a	n/a	n/a	14	8	5	1	n/a	n/a	n/a	n/a	n/a
1421.162	n/a	PROB	710581	n/a	LTP210	ltpFR	15	n/a	n/a	n/a	n/a	n/a	n/a	n/a	10	4	2	4	n/a	n/a	n/a	n/a	n/a
1422.434	n/a	STOP	711217	n/a	LTP210	ltpFR	15	n/a	n/a	n/a	n/a	n/a	n/a	n/a	n/a	n/a	n/a	n/a	n/a	n/a	n/a	n/a	n/a
1424.306	n/a	WORD	712153	wordpools/wasnorm_wordpool_less_exclusions.txt	LTP210	ltpFR	15	5	1	DIARY	460	n/a	n/a	0	n/a	0	0	0	0.57763671875	0.412841796875	1	lower	zerothre.ttf
1427.32	n/a	START	713660	n/a	LTP210	ltpFR	15	n/a	n/a	n/a	n/a	n/a	n/a	n/a	n/a	n/a	n/a	n/a	n/a	n/a	n/a	n/a	n/a
1428.34	n/a	PROB	714170	n/a	LTP210	ltpFR	15	n/a	n/a	n/a	n/a	n/a	n/a	n/a	13	6	3	4	n/a	n/a	n/a	n/a	n/a
1429.956	n/a	PROB	714978	n/a	LTP210	ltpFR	15	n/a	n/a	n/a	n/a	n/a	n/a	n/a	20	9	6	5	n/a	n/a	n/a	n/a	n/a
1432.014	n/a	PROB	716007	n/a	LTP210	ltpFR	15	n/a	n/a	n/a	n/a	n/a	n/a	n/a	14	5	2	7	n/a	n/a	n/a	n/a	n/a
1433.94	n/a	STOP	716970	n/a	LTP210	ltpFR	15	n/a	n/a	n/a	n/a	n/a	n/a	n/a	n/a	n/a	n/a	n/a	n/a	n/a	n/a	n/a	n/a
1437.15	n/a	REC_START	718575	n/a	LTP210	ltpFR	15	5	n/a	n/a	n/a	n/a	n/a	n/a	n/a	0	0	0	n/a	n/a	n/a	n/a	n/a
1443.506	n/a	REC_WORD	721753	wordpools/wasnorm_wordpool_less_exclusions.txt	LTP210	ltpFR	15	5	1	DIARY	460	n/a	n/a	0	n/a	0	0	0	n/a	n/a	n/a	n/a	n/a
1445.228	n/a	REC_WORD	722614	wordpools/wasnorm_wordpool_less_exclusions.txt	LTP210	ltpFR	15	5	0	NOVEL	960	n/a	n/a	0	n/a	0	0	0	n/a	n/a	n/a	n/a	n/a
1449.124	n/a	REC_WORD	724562	wordpools/wasnorm_wordpool_less_exclusions.txt	LTP210	ltpFR	15	5	0	ANTEATER	26	n/a	n/a	1	n/a	0	0	0	n/a	n/a	n/a	n/a	n/a
1456.36	n/a	REC_WORD	728180	wordpools/wasnorm_wordpool_less_exclusions.txt	LTP210	ltpFR	15	5	1	FATHER	554	n/a	n/a	1	n/a	0	0	0	n/a	n/a	n/a	n/a	n/a
1462.434	n/a	REC_WORD	731217	wordpools/wasnorm_wordpool_less_exclusions.txt	LTP210	ltpFR	15	5	0	COFFEE	341	n/a	n/a	0	n/a	0	0	0	n/a	n/a	n/a	n/a	n/a
1469.28	n/a	REC_WORD	734640	wordpools/wasnorm_wordpool_less_exclusions.txt	LTP210	ltpFR	15	5	1	KIDNEY	776	n/a	n/a	0	n/a	0	0	0	n/a	n/a	n/a	n/a	n/a
1474.972	n/a	REC_WORD	737486	wordpools/wasnorm_wordpool_less_exclusions.txt	LTP210	ltpFR	15	5	1	FOUNTAIN	597	n/a	n/a	0	n/a	0	0	0	n/a	n/a	n/a	n/a	n/a
1476.478	n/a	REC_WORD	738239	wordpools/wasnorm_wordpool_less_exclusions.txt	LTP210	ltpFR	15	5	1	DRINK	498	n/a	n/a	0	n/a	0	0	0	n/a	n/a	n/a	n/a	n/a
1532.396	n/a	START	766198	n/a	LTP210	ltpFR	15	n/a	n/a	n/a	n/a	n/a	n/a	n/a	n/a	n/a	n/a	n/a	n/a	n/a	n/a	n/a	n/a
1533.91	n/a	PROB	766955	n/a	LTP210	ltpFR	15	n/a	n/a	n/a	n/a	n/a	n/a	n/a	15	3	4	8	n/a	n/a	n/a	n/a	n/a
1535.676	n/a	PROB	767838	n/a	LTP210	ltpFR	15	n/a	n/a	n/a	n/a	n/a	n/a	n/a	22	9	5	8	n/a	n/a	n/a	n/a	n/a
1537.892	n/a	PROB	768946	n/a	LTP210	ltpFR	15	n/a	n/a	n/a	n/a	n/a	n/a	n/a	15	4	4	7	n/a	n/a	n/a	n/a	n/a
1540.452	n/a	PROB	770226	n/a	LTP210	ltpFR	15	n/a	n/a	n/a	n/a	n/a	n/a	n/a	15	8	3	4	n/a	n/a	n/a	n/a	n/a
1543.79	n/a	PROB	771895	n/a	LTP210	ltpFR	15	n/a	n/a	n/a	n/a	n/a	n/a	n/a	15	2	6	7	n/a	n/a	n/a	n/a	n/a
1545.632	n/a	PROB	772816	n/a	LTP210	ltpFR	15	n/a	n/a	n/a	n/a	n/a	n/a	n/a	16	5	2	9	n/a	n/a	n/a	n/a	n/a
1548.362	n/a	STOP	774181	n/a	LTP210	ltpFR	15	n/a	n/a	n/a	n/a	n/a	n/a	n/a	n/a	n/a	n/a	n/a	n/a	n/a	n/a	n/a	n/a
1549.344	n/a	WORD	774672	wordpools/wasnorm_wordpool_less_exclusions.txt	LTP210	ltpFR	15	6	1	DICTIONARY	463	n/a	n/a	0	n/a	0	0	0	0.57763671875	0.412841796875	1	lower	zerothre.ttf
1552.356	n/a	START	776178	n/a	LTP210	ltpFR	15	n/a	n/a	n/a	n/a	n/a	n/a	n/a	n/a	n/a	n/a	n/a	n/a	n/a	n/a	n/a	n/a
1553.444	n/a	PROB	776722	n/a	LTP210	ltpFR	15	n/a	n/a	n/a	n/a	n/a	n/a	n/a	24	7	9	8	n/a	n/a	n/a	n/a	n/a
1556.204	n/a	PROB	778102	n/a	LTP210	ltpFR	15	n/a	n/a	n/a	n/a	n/a	n/a	n/a	6	4	1	1	n/a	n/a	n/a	n/a	n/a
1557.66	n/a	PROB	778830	n/a	LTP210	ltpFR	15	n/a	n/a	n/a	n/a	n/a	n/a	n/a	18	6	3	9	n/a	n/a	n/a	n/a	n/a
1559.3	n/a	PROB	779650	n/a	LTP210	ltpFR	15	n/a	n/a	n/a	n/a	n/a	n/a	n/a	16	2	5	9	n/a	n/a	n/a	n/a	n/a
1561.28	n/a	PROB	780640	n/a	LTP210	ltpFR	15	n/a	n/a	n/a	n/a	n/a	n/a	n/a	18	5	8	5	n/a	n/a	n/a	n/a	n/a
1562.798	n/a	PROB	781399	n/a	LTP210	ltpFR	15	n/a	n/a	n/a	n/a	n/a	n/a	n/a	19	6	9	4	n/a	n/a	n/a	n/a	n/a
1564.086	n/a	PROB	782043	n/a	LTP210	ltpFR	15	n/a	n/a	n/a	n/a	n/a	n/a	n/a	23	6	9	8	n/a	n/a	n/a	n/a	n/a
1566.78	n/a	STOP	783390	n/a	LTP210	ltpFR	15	n/a	n/a	n/a	n/a	n/a	n/a	n/a	n/a	n/a	n/a	n/a	n/a	n/a	n/a	n/a	n/a
1569.294	n/a	WORD	784647	wordpools/wasnorm_wordpool_less_exclusions.txt	LTP210	ltpFR	15	6	1	DUNGEON	507	n/a	n/a	0	n/a	0	0	0	0.57763671875	0.412841796875	1	lower	zerothre.ttf
1572.306	n/a	START	786153	n/a	LTP210	ltpFR	15	n/a	n/a	n/a	n/a	n/a	n/a	n/a	n/a	n/a	n/a	n/a	n/a	n/a	n/a	n/a	n/a
1573.352	n/a	PROB	786676	n/a	LTP210	ltpFR	15	n/a	n/a	n/a	n/a	n/a	n/a	n/a	13	5	7	1	n/a	n/a	n/a	n/a	n/a
1575.01	n/a	PROB	787505	n/a	LTP210	ltpFR	15	n/a	n/a	n/a	n/a	n/a	n/a	n/a	23	9	6	8	n/a	n/a	n/a	n/a	n/a
1576.908	n/a	PROB	788454	n/a	LTP210	ltpFR	15	n/a	n/a	n/a	n/a	n/a	n/a	n/a	21	9	7	5	n/a	n/a	n/a	n/a	n/a
1578.85	n/a	PROB	789425	n/a	LTP210	ltpFR	15	n/a	n/a	n/a	n/a	n/a	n/a	n/a	12	4	7	1	n/a	n/a	n/a	n/a	n/a
1580.446	n/a	PROB	790223	n/a	LTP210	ltpFR	15	n/a	n/a	n/a	n/a	n/a	n/a	n/a	20	7	7	6	n/a	n/a	n/a	n/a	n/a
1581.936	n/a	PROB	790968	n/a	LTP210	ltpFR	15	n/a	n/a	n/a	n/a	n/a	n/a	n/a	14	3	8	3	n/a	n/a	n/a	n/a	n/a
1584.236	n/a	PROB	792118	n/a	LTP210	ltpFR	15	n/a	n/a	n/a	n/a	n/a	n/a	n/a	15	6	5	4	n/a	n/a	n/a	n/a	n/a
1586.276	n/a	PROB	793138	n/a	LTP210	ltpFR	15	n/a	n/a	n/a	n/a	n/a	n/a	n/a	16	4	8	4	n/a	n/a	n/a	n/a	n/a
1587.876	n/a	STOP	793938	n/a	LTP210	ltpFR	15	n/a	n/a	n/a	n/a	n/a	n/a	n/a	n/a	n/a	n/a	n/a	n/a	n/a	n/a	n/a	n/a
1589.28	n/a	WORD	794640	wordpools/wasnorm_wordpool_less_exclusions.txt	LTP210	ltpFR	15	6	0	SHOULDER	1294	n/a	n/a	1	n/a	0	0	0	0.422607421875	0.5869140625	0	upper	amplitud.ttf
1592.292	n/a	START	796146	n/a	LTP210	ltpFR	15	n/a	n/a	n/a	n/a	n/a	n/a	n/a	n/a	n/a	n/a	n/a	n/a	n/a	n/a	n/a	n/a
1593.186	n/a	PROB	796593	n/a	LTP210	ltpFR	15	n/a	n/a	n/a	n/a	n/a	n/a	n/a	21	9	8	4	n/a	n/a	n/a	n/a	n/a
1595.01	n/a	PROB	797505	n/a	LTP210	ltpFR	15	n/a	n/a	n/a	n/a	n/a	n/a	n/a	8	6	1	1	n/a	n/a	n/a	n/a	n/a
1596.174	n/a	PROB	798087	n/a	LTP210	ltpFR	15	n/a	n/a	n/a	n/a	n/a	n/a	n/a	12	7	4	1	n/a	n/a	n/a	n/a	n/a
1597.428	n/a	PROB	798714	n/a	LTP210	ltpFR	15	n/a	n/a	n/a	n/a	n/a	n/a	n/a	13	4	1	8	n/a	n/a	n/a	n/a	n/a
1598.858	n/a	PROB	799429	n/a	LTP210	ltpFR	15	n/a	n/a	n/a	n/a	n/a	n/a	n/a	12	3	6	3	n/a	n/a	n/a	n/a	n/a
1600.28	n/a	PROB	800140	n/a	LTP210	ltpFR	15	n/a	n/a	n/a	n/a	n/a	n/a	n/a	23	9	7	8	n/a	n/a	n/a	n/a	n/a
1603.66	n/a	PROB	801830	n/a	LTP210	ltpFR	15	n/a	n/a	n/a	n/a	n/a	n/a	n/a	16	9	2	5	n/a	n/a	n/a	n/a	n/a
1606.112	n/a	PROB	803056	n/a	LTP210	ltpFR	15	n/a	n/a	n/a	n/a	n/a	n/a	n/a	20	9	2	9	n/a	n/a	n/a	n/a	n/a
1607.572	n/a	STOP	803786	n/a	LTP210	ltpFR	15	n/a	n/a	n/a	n/a	n/a	n/a	n/a	n/a	n/a	n/a	n/a	n/a	n/a	n/a	n/a	n/a
1609.398	n/a	WORD	804699	wordpools/wasnorm_wordpool_less_exclusions.txt	LTP210	ltpFR	15	6	0	MARINE	869	n/a	n/a	1	n/a	0	0	0	0.422607421875	0.5869140625	0	upper	amplitud.ttf
1612.41	n/a	START	806205	n/a	LTP210	ltpFR	15	n/a	n/a	n/a	n/a	n/a	n/a	n/a	n/a	n/a	n/a	n/a	n/a	n/a	n/a	n/a	n/a
1613.424	n/a	PROB	806712	n/a	LTP210	ltpFR	15	n/a	n/a	n/a	n/a	n/a	n/a	n/a	14	3	2	9	n/a	n/a	n/a	n/a	n/a
1614.988	n/a	PROB	807494	n/a	LTP210	ltpFR	15	n/a	n/a	n/a	n/a	n/a	n/a	n/a	15	6	5	4	n/a	n/a	n/a	n/a	n/a
1616.334	n/a	PROB	808167	n/a	LTP210	ltpFR	15	n/a	n/a	n/a	n/a	n/a	n/a	n/a	18	9	3	6	n/a	n/a	n/a	n/a	n/a
1617.89	n/a	PROB	808945	n/a	LTP210	ltpFR	15	n/a	n/a	n/a	n/a	n/a	n/a	n/a	13	5	1	7	n/a	n/a	n/a	n/a	n/a
1619.604	n/a	PROB	809802	n/a	LTP210	ltpFR	15	n/a	n/a	n/a	n/a	n/a	n/a	n/a	18	8	7	3	n/a	n/a	n/a	n/a	n/a
1621.176	n/a	PROB	810588	n/a	LTP210	ltpFR	15	n/a	n/a	n/a	n/a	n/a	n/a	n/a	16	5	4	7	n/a	n/a	n/a	n/a	n/a
1622.792	n/a	PROB	811396	n/a	LTP210	ltpFR	15	n/a	n/a	n/a	n/a	n/a	n/a	n/a	22	9	5	8	n/a	n/a	n/a	n/a	n/a
1628.398	n/a	STOP	814199	n/a	LTP210	ltpFR	15	n/a	n/a	n/a	n/a	n/a	n/a	n/a	n/a	n/a	n/a	n/a	n/a	n/a	n/a	n/a	n/a
1629.306	n/a	WORD	814653	wordpools/wasnorm_wordpool_less_exclusions.txt	LTP210	ltpFR	15	6	0	PIGMENT	1066	n/a	n/a	0	n/a	0	0	0	0.422607421875	0.5869140625	0	upper	amplitud.ttf
1632.32	n/a	START	816160	n/a	LTP210	ltpFR	15	n/a	n/a	n/a	n/a	n/a	n/a	n/a	n/a	n/a	n/a	n/a	n/a	n/a	n/a	n/a	n/a
1633.248	n/a	PROB	816624	n/a	LTP210	ltpFR	15	n/a	n/a	n/a	n/a	n/a	n/a	n/a	20	9	2	9	n/a	n/a	n/a	n/a	n/a
1635.14	n/a	PROB	817570	n/a	LTP210	ltpFR	15	n/a	n/a	n/a	n/a	n/a	n/a	n/a	14	8	4	2	n/a	n/a	n/a	n/a	n/a
1636.662	n/a	PROB	818331	n/a	LTP210	ltpFR	15	n/a	n/a	n/a	n/a	n/a	n/a	n/a	11	1	8	2	n/a	n/a	n/a	n/a	n/a
1637.8	n/a	PROB	818900	n/a	LTP210	ltpFR	15	n/a	n/a	n/a	n/a	n/a	n/a	n/a	14	7	5	2	n/a	n/a	n/a	n/a	n/a
1639.932	n/a	PROB	819966	n/a	LTP210	ltpFR	15	n/a	n/a	n/a	n/a	n/a	n/a	n/a	21	7	8	6	n/a	n/a	n/a	n/a	n/a
1642.124	n/a	PROB	821062	n/a	LTP210	ltpFR	15	n/a	n/a	n/a	n/a	n/a	n/a	n/a	13	8	4	1	n/a	n/a	n/a	n/a	n/a
1643.714	n/a	PROB	821857	n/a	LTP210	ltpFR	15	n/a	n/a	n/a	n/a	n/a	n/a	n/a	19	9	7	3	n/a	n/a	n/a	n/a	n/a
1645.368	n/a	PROB	822684	n/a	LTP210	ltpFR	15	n/a	n/a	n/a	n/a	n/a	n/a	n/a	19	9	1	9	n/a	n/a	n/a	n/a	n/a
1648.32	n/a	STOP	824160	n/a	LTP210	ltpFR	15	n/a	n/a	n/a	n/a	n/a	n/a	n/a	n/a	n/a	n/a	n/a	n/a	n/a	n/a	n/a	n/a
1649.168	n/a	WORD	824584	wordpools/wasnorm_wordpool_less_exclusions.txt	LTP210	ltpFR	15	6	0	ARTERY	41	n/a	n/a	0	n/a	0	0	0	0.422607421875	0.5869140625	0	upper	amplitud.ttf
1652.178	n/a	START	826089	n/a	LTP210	ltpFR	15	n/a	n/a	n/a	n/a	n/a	n/a	n/a	n/a	n/a	n/a	n/a	n/a	n/a	n/a	n/a	n/a
1653.11	n/a	PROB	826555	n/a	LTP210	ltpFR	15	n/a	n/a	n/a	n/a	n/a	n/a	n/a	8	3	1	4	n/a	n/a	n/a	n/a	n/a
1654.606	n/a	PROB	827303	n/a	LTP210	ltpFR	15	n/a	n/a	n/a	n/a	n/a	n/a	n/a	17	8	7	2	n/a	n/a	n/a	n/a	n/a
1656.236	n/a	PROB	828118	n/a	LTP210	ltpFR	15	n/a	n/a	n/a	n/a	n/a	n/a	n/a	19	7	8	4	n/a	n/a	n/a	n/a	n/a
1659.082	n/a	PROB	829541	n/a	LTP210	ltpFR	15	n/a	n/a	n/a	n/a	n/a	n/a	n/a	18	9	6	3	n/a	n/a	n/a	n/a	n/a
1660.544	n/a	PROB	830272	n/a	LTP210	ltpFR	15	n/a	n/a	n/a	n/a	n/a	n/a	n/a	14	7	4	3	n/a	n/a	n/a	n/a	n/a
1664.074	n/a	PROB	832037	n/a	LTP210	ltpFR	15	n/a	n/a	n/a	n/a	n/a	n/a	n/a	6	2	2	2	n/a	n/a	n/a	n/a	n/a
1665.312	n/a	PROB	832656	n/a	LTP210	ltpFR	15	n/a	n/a	n/a	n/a	n/a	n/a	n/a	16	6	9	1	n/a	n/a	n/a	n/a	n/a
1666.618	n/a	PROB	833309	n/a	LTP210	ltpFR	15	n/a	n/a	n/a	n/a	n/a	n/a	n/a	15	6	6	3	n/a	n/a	n/a	n/a	n/a
1667.936	n/a	STOP	833968	n/a	LTP210	ltpFR	15	n/a	n/a	n/a	n/a	n/a	n/a	n/a	n/a	n/a	n/a	n/a	n/a	n/a	n/a	n/a	n/a
1669.244	n/a	WORD	834622	wordpools/wasnorm_wordpool_less_exclusions.txt	LTP210	ltpFR	15	6	0	ELBOW	520	n/a	n/a	0	n/a	0	0	0	0.422607421875	0.5869140625	0	upper	amplitud.ttf
1672.256	n/a	START	836128	n/a	LTP210	ltpFR	15	n/a	n/a	n/a	n/a	n/a	n/a	n/a	n/a	n/a	n/a	n/a	n/a	n/a	n/a	n/a	n/a
1673.368	n/a	PROB	836684	n/a	LTP210	ltpFR	15	n/a	n/a	n/a	n/a	n/a	n/a	n/a	17	8	1	8	n/a	n/a	n/a	n/a	n/a
1674.876	n/a	PROB	837438	n/a	LTP210	ltpFR	15	n/a	n/a	n/a	n/a	n/a	n/a	n/a	22	8	6	8	n/a	n/a	n/a	n/a	n/a
1676.934	n/a	PROB	838467	n/a	LTP210	ltpFR	15	n/a	n/a	n/a	n/a	n/a	n/a	n/a	13	4	4	5	n/a	n/a	n/a	n/a	n/a
1679.582	n/a	PROB	839791	n/a	LTP210	ltpFR	15	n/a	n/a	n/a	n/a	n/a	n/a	n/a	19	8	3	8	n/a	n/a	n/a	n/a	n/a
1682.144	n/a	PROB	841072	n/a	LTP210	ltpFR	15	n/a	n/a	n/a	n/a	n/a	n/a	n/a	24	7	8	9	n/a	n/a	n/a	n/a	n/a
1683.85	n/a	PROB	841925	n/a	LTP210	ltpFR	15	n/a	n/a	n/a	n/a	n/a	n/a	n/a	16	6	6	4	n/a	n/a	n/a	n/a	n/a
1685.732	n/a	PROB	842866	n/a	LTP210	ltpFR	15	n/a	n/a	n/a	n/a	n/a	n/a	n/a	17	3	9	5	n/a	n/a	n/a	n/a	n/a
1688.058	n/a	STOP	844029	n/a	LTP210	ltpFR	15	n/a	n/a	n/a	n/a	n/a	n/a	n/a	n/a	n/a	n/a	n/a	n/a	n/a	n/a	n/a	n/a
1689.42	n/a	WORD	844710	wordpools/wasnorm_wordpool_less_exclusions.txt	LTP210	ltpFR	15	6	1	REEF	1177	n/a	n/a	1	n/a	0	0	0	0.57763671875	0.412841796875	1	lower	zerothre.ttf
1692.432	n/a	START	846216	n/a	LTP210	ltpFR	15	n/a	n/a	n/a	n/a	n/a	n/a	n/a	n/a	n/a	n/a	n/a	n/a	n/a	n/a	n/a	n/a
1693.278	n/a	PROB	846639	n/a	LTP210	ltpFR	15	n/a	n/a	n/a	n/a	n/a	n/a	n/a	14	4	1	9	n/a	n/a	n/a	n/a	n/a
1694.708	n/a	PROB	847354	n/a	LTP210	ltpFR	15	n/a	n/a	n/a	n/a	n/a	n/a	n/a	8	3	4	1	n/a	n/a	n/a	n/a	n/a
1696.164	n/a	PROB	848082	n/a	LTP210	ltpFR	15	n/a	n/a	n/a	n/a	n/a	n/a	n/a	17	6	9	2	n/a	n/a	n/a	n/a	n/a
1698.196	n/a	PROB	849098	n/a	LTP210	ltpFR	15	n/a	n/a	n/a	n/a	n/a	n/a	n/a	14	2	4	8	n/a	n/a	n/a	n/a	n/a
1699.526	n/a	PROB	849763	n/a	LTP210	ltpFR	15	n/a	n/a	n/a	n/a	n/a	n/a	n/a	11	7	2	2	n/a	n/a	n/a	n/a	n/a
1700.982	n/a	PROB	850491	n/a	LTP210	ltpFR	15	n/a	n/a	n/a	n/a	n/a	n/a	n/a	23	8	9	6	n/a	n/a	n/a	n/a	n/a
1703.936	n/a	PROB	851968	n/a	LTP210	ltpFR	15	n/a	n/a	n/a	n/a	n/a	n/a	n/a	21	9	4	8	n/a	n/a	n/a	n/a	n/a
1708.434	n/a	STOP	854217	n/a	LTP210	ltpFR	15	n/a	n/a	n/a	n/a	n/a	n/a	n/a	n/a	n/a	n/a	n/a	n/a	n/a	n/a	n/a	n/a
1709.642	n/a	WORD	854821	wordpools/wasnorm_wordpool_less_exclusions.txt	LTP210	ltpFR	15	6	1	DRYER	503	n/a	n/a	0	n/a	0	0	0	0.57763671875	0.412841796875	1	lower	zerothre.ttf
1712.654	n/a	START	856327	n/a	LTP210	ltpFR	15	n/a	n/a	n/a	n/a	n/a	n/a	n/a	n/a	n/a	n/a	n/a	n/a	n/a	n/a	n/a	n/a
1713.832	n/a	PROB	856916	n/a	LTP210	ltpFR	15	n/a	n/a	n/a	n/a	n/a	n/a	n/a	12	7	1	3	n/a	n/a	n/a	n/a	n/a
1715.814	n/a	PROB	857907	n/a	LTP210	ltpFR	15	n/a	n/a	n/a	n/a	n/a	n/a	n/a	18	7	6	5	n/a	n/a	n/a	n/a	n/a
1719.83	n/a	PROB	859915	n/a	LTP210	ltpFR	15	n/a	n/a	n/a	n/a	n/a	n/a	n/a	13	2	6	5	n/a	n/a	n/a	n/a	n/a
1722.056	n/a	PROB	861028	n/a	LTP210	ltpFR	15	n/a	n/a	n/a	n/a	n/a	n/a	n/a	7	2	3	2	n/a	n/a	n/a	n/a	n/a
1723.718	n/a	PROB	861859	n/a	LTP210	ltpFR	15	n/a	n/a	n/a	n/a	n/a	n/a	n/a	14	3	6	5	n/a	n/a	n/a	n/a	n/a
1725.268	n/a	PROB	862634	n/a	LTP210	ltpFR	15	n/a	n/a	n/a	n/a	n/a	n/a	n/a	7	1	4	2	n/a	n/a	n/a	n/a	n/a
1726.808	n/a	PROB	863404	n/a	LTP210	ltpFR	15	n/a	n/a	n/a	n/a	n/a	n/a	n/a	15	9	1	5	n/a	n/a	n/a	n/a	n/a
1727.868	n/a	STOP	863934	n/a	LTP210	ltpFR	15	n/a	n/a	n/a	n/a	n/a	n/a	n/a	n/a	n/a	n/a	n/a	n/a	n/a	n/a	n/a	n/a
1729.676	n/a	WORD	864838	wordpools/wasnorm_wordpool_less_exclusions.txt	LTP210	ltpFR	15	6	1	WASHER	1592	n/a	n/a	0	n/a	0	0	0	0.57763671875	0.412841796875	1	lower	zerothre.ttf
1732.688	n/a	START	866344	n/a	LTP210	ltpFR	15	n/a	n/a	n/a	n/a	n/a	n/a	n/a	n/a	n/a	n/a	n/a	n/a	n/a	n/a	n/a	n/a
1733.556	n/a	PROB	866778	n/a	LTP210	ltpFR	15	n/a	n/a	n/a	n/a	n/a	n/a	n/a	16	5	3	8	n/a	n/a	n/a	n/a	n/a
1735.306	n/a	PROB	867653	n/a	LTP210	ltpFR	15	n/a	n/a	n/a	n/a	n/a	n/a	n/a	18	3	9	6	n/a	n/a	n/a	n/a	n/a
1737.672	n/a	PROB	868836	n/a	LTP210	ltpFR	15	n/a	n/a	n/a	n/a	n/a	n/a	n/a	23	9	7	7	n/a	n/a	n/a	n/a	n/a
1739.354	n/a	PROB	869677	n/a	LTP210	ltpFR	15	n/a	n/a	n/a	n/a	n/a	n/a	n/a	15	2	6	7	n/a	n/a	n/a	n/a	n/a
1740.968	n/a	PROB	870484	n/a	LTP210	ltpFR	15	n/a	n/a	n/a	n/a	n/a	n/a	n/a	22	8	7	7	n/a	n/a	n/a	n/a	n/a
1743.102	n/a	PROB	871551	n/a	LTP210	ltpFR	15	n/a	n/a	n/a	n/a	n/a	n/a	n/a	9	2	6	1	n/a	n/a	n/a	n/a	n/a
1744.364	n/a	PROB	872182	n/a	LTP210	ltpFR	15	n/a	n/a	n/a	n/a	n/a	n/a	n/a	22	9	9	4	n/a	n/a	n/a	n/a	n/a
1745.846	n/a	PROB	872923	n/a	LTP210	ltpFR	15	n/a	n/a	n/a	n/a	n/a	n/a	n/a	17	6	3	8	n/a	n/a	n/a	n/a	n/a
1747.324	n/a	STOP	873662	n/a	LTP210	ltpFR	15	n/a	n/a	n/a	n/a	n/a	n/a	n/a	n/a	n/a	n/a	n/a	n/a	n/a	n/a	n/a	n/a
1749.584	n/a	WORD	874792	wordpools/wasnorm_wordpool_less_exclusions.txt	LTP210	ltpFR	15	6	1	WITCH	1617	n/a	n/a	1	n/a	0	0	0	0.57763671875	0.412841796875	1	lower	zerothre.ttf
1752.596	n/a	START	876298	n/a	LTP210	ltpFR	15	n/a	n/a	n/a	n/a	n/a	n/a	n/a	n/a	n/a	n/a	n/a	n/a	n/a	n/a	n/a	n/a
1753.482	n/a	PROB	876741	n/a	LTP210	ltpFR	15	n/a	n/a	n/a	n/a	n/a	n/a	n/a	14	5	6	3	n/a	n/a	n/a	n/a	n/a
1755.338	n/a	PROB	877669	n/a	LTP210	ltpFR	15	n/a	n/a	n/a	n/a	n/a	n/a	n/a	9	1	1	7	n/a	n/a	n/a	n/a	n/a
1757.046	n/a	PROB	878523	n/a	LTP210	ltpFR	15	n/a	n/a	n/a	n/a	n/a	n/a	n/a	23	6	8	9	n/a	n/a	n/a	n/a	n/a
1760.168	n/a	PROB	880084	n/a	LTP210	ltpFR	15	n/a	n/a	n/a	n/a	n/a	n/a	n/a	17	1	8	8	n/a	n/a	n/a	n/a	n/a
1761.646	n/a	PROB	880823	n/a	LTP210	ltpFR	15	n/a	n/a	n/a	n/a	n/a	n/a	n/a	16	7	8	1	n/a	n/a	n/a	n/a	n/a
1763.648	n/a	PROB	881824	n/a	LTP210	ltpFR	15	n/a	n/a	n/a	n/a	n/a	n/a	n/a	16	8	1	7	n/a	n/a	n/a	n/a	n/a
1765.104	n/a	PROB	882552	n/a	LTP210	ltpFR	15	n/a	n/a	n/a	n/a	n/a	n/a	n/a	12	6	4	2	n/a	n/a	n/a	n/a	n/a
1766.61	n/a	PROB	883305	n/a	LTP210	ltpFR	15	n/a	n/a	n/a	n/a	n/a	n/a	n/a	12	5	1	6	n/a	n/a	n/a	n/a	n/a
1768.014	n/a	STOP	884007	n/a	LTP210	ltpFR	15	n/a	n/a	n/a	n/a	n/a	n/a	n/a	n/a	n/a	n/a	n/a	n/a	n/a	n/a	n/a	n/a
1769.762	n/a	WORD	884881	wordpools/wasnorm_wordpool_less_exclusions.txt	LTP210	ltpFR	15	6	1	MAGICIAN	854	n/a	n/a	1	n/a	0	0	0	0.57763671875	0.412841796875	1	lower	zerothre.ttf
1772.774	n/a	START	886387	n/a	LTP210	ltpFR	15	n/a	n/a	n/a	n/a	n/a	n/a	n/a	n/a	n/a	n/a	n/a	n/a	n/a	n/a	n/a	n/a
1773.944	n/a	PROB	886972	n/a	LTP210	ltpFR	15	n/a	n/a	n/a	n/a	n/a	n/a	n/a	18	9	6	3	n/a	n/a	n/a	n/a	n/a
1775.516	n/a	PROB	887758	n/a	LTP210	ltpFR	15	n/a	n/a	n/a	n/a	n/a	n/a	n/a	23	9	9	5	n/a	n/a	n/a	n/a	n/a
1777.006	n/a	PROB	888503	n/a	LTP210	ltpFR	15	n/a	n/a	n/a	n/a	n/a	n/a	n/a	12	1	4	7	n/a	n/a	n/a	n/a	n/a
1779.106	n/a	PROB	889553	n/a	LTP210	ltpFR	15	n/a	n/a	n/a	n/a	n/a	n/a	n/a	19	6	8	5	n/a	n/a	n/a	n/a	n/a
1781.556	n/a	PROB	890778	n/a	LTP210	ltpFR	15	n/a	n/a	n/a	n/a	n/a	n/a	n/a	17	9	3	5	n/a	n/a	n/a	n/a	n/a
1783.932	n/a	PROB	891966	n/a	LTP210	ltpFR	15	n/a	n/a	n/a	n/a	n/a	n/a	n/a	10	5	1	4	n/a	n/a	n/a	n/a	n/a
1785.296	n/a	PROB	892648	n/a	LTP210	ltpFR	15	n/a	n/a	n/a	n/a	n/a	n/a	n/a	15	3	7	5	n/a	n/a	n/a	n/a	n/a
1786.568	n/a	PROB	893284	n/a	LTP210	ltpFR	15	n/a	n/a	n/a	n/a	n/a	n/a	n/a	13	5	2	6	n/a	n/a	n/a	n/a	n/a
1788.422	n/a	STOP	894211	n/a	LTP210	ltpFR	15	n/a	n/a	n/a	n/a	n/a	n/a	n/a	n/a	n/a	n/a	n/a	n/a	n/a	n/a	n/a	n/a
1789.788	n/a	WORD	894894	wordpools/wasnorm_wordpool_less_exclusions.txt	LTP210	ltpFR	15	6	1	MAILMAN	858	n/a	n/a	1	n/a	0	0	0	0.57763671875	0.412841796875	1	lower	zerothre.ttf
1792.8	n/a	START	896400	n/a	LTP210	ltpFR	15	n/a	n/a	n/a	n/a	n/a	n/a	n/a	n/a	n/a	n/a	n/a	n/a	n/a	n/a	n/a	n/a
1793.636	n/a	PROB	896818	n/a	LTP210	ltpFR	15	n/a	n/a	n/a	n/a	n/a	n/a	n/a	12	4	5	3	n/a	n/a	n/a	n/a	n/a
1795.704	n/a	PROB	897852	n/a	LTP210	ltpFR	15	n/a	n/a	n/a	n/a	n/a	n/a	n/a	14	1	4	9	n/a	n/a	n/a	n/a	n/a
1797.016	n/a	PROB	898508	n/a	LTP210	ltpFR	15	n/a	n/a	n/a	n/a	n/a	n/a	n/a	13	8	1	4	n/a	n/a	n/a	n/a	n/a
1798.882	n/a	PROB	899441	n/a	LTP210	ltpFR	15	n/a	n/a	n/a	n/a	n/a	n/a	n/a	14	1	9	4	n/a	n/a	n/a	n/a	n/a
1800.104	n/a	PROB	900052	n/a	LTP210	ltpFR	15	n/a	n/a	n/a	n/a	n/a	n/a	n/a	18	9	2	7	n/a	n/a	n/a	n/a	n/a
1803.734	n/a	PROB	901867	n/a	LTP210	ltpFR	15	n/a	n/a	n/a	n/a	n/a	n/a	n/a	15	5	7	3	n/a	n/a	n/a	n/a	n/a
1806.044	n/a	PROB	903022	n/a	LTP210	ltpFR	15	n/a	n/a	n/a	n/a	n/a	n/a	n/a	10	4	1	5	n/a	n/a	n/a	n/a	n/a
1807.448	n/a	STOP	903724	n/a	LTP210	ltpFR	15	n/a	n/a	n/a	n/a	n/a	n/a	n/a	n/a	n/a	n/a	n/a	n/a	n/a	n/a	n/a	n/a
1809.656	n/a	WORD	904828	wordpools/wasnorm_wordpool_less_exclusions.txt	LTP210	ltpFR	15	6	0	FLEA	577	n/a	n/a	0	n/a	0	0	0	0.422607421875	0.5869140625	0	upper	amplitud.ttf
1812.668	n/a	START	906334	n/a	LTP210	ltpFR	15	n/a	n/a	n/a	n/a	n/a	n/a	n/a	n/a	n/a	n/a	n/a	n/a	n/a	n/a	n/a	n/a
1813.706	n/a	PROB	906853	n/a	LTP210	ltpFR	15	n/a	n/a	n/a	n/a	n/a	n/a	n/a	20	8	3	9	n/a	n/a	n/a	n/a	n/a
1815.502	n/a	PROB	907751	n/a	LTP210	ltpFR	15	n/a	n/a	n/a	n/a	n/a	n/a	n/a	16	7	1	8	n/a	n/a	n/a	n/a	n/a
1817.342	n/a	PROB	908671	n/a	LTP210	ltpFR	15	n/a	n/a	n/a	n/a	n/a	n/a	n/a	15	5	7	3	n/a	n/a	n/a	n/a	n/a
1819.276	n/a	PROB	909638	n/a	LTP210	ltpFR	15	n/a	n/a	n/a	n/a	n/a	n/a	n/a	13	1	7	4	n/a	n/a	n/a	n/a	n/a
1820.858	n/a	PROB	910429	n/a	LTP210	ltpFR	15	n/a	n/a	n/a	n/a	n/a	n/a	n/a	9	2	4	3	n/a	n/a	n/a	n/a	n/a
1824.632	n/a	PROB	912316	n/a	LTP210	ltpFR	15	n/a	n/a	n/a	n/a	n/a	n/a	n/a	15	2	6	7	n/a	n/a	n/a	n/a	n/a
1828.002	n/a	STOP	914001	n/a	LTP210	ltpFR	15	n/a	n/a	n/a	n/a	n/a	n/a	n/a	n/a	n/a	n/a	n/a	n/a	n/a	n/a	n/a	n/a
1829.734	n/a	WORD	914867	wordpools/wasnorm_wordpool_less_exclusions.txt	LTP210	ltpFR	15	6	0	PASSAGE	1019	n/a	n/a	1	n/a	0	0	0	0.422607421875	0.5869140625	0	upper	amplitud.ttf
1832.746	n/a	START	916373	n/a	LTP210	ltpFR	15	n/a	n/a	n/a	n/a	n/a	n/a	n/a	n/a	n/a	n/a	n/a	n/a	n/a	n/a	n/a	n/a
1833.94	n/a	PROB	916970	n/a	LTP210	ltpFR	15	n/a	n/a	n/a	n/a	n/a	n/a	n/a	17	2	6	9	n/a	n/a	n/a	n/a	n/a
1835.572	n/a	PROB	917786	n/a	LTP210	ltpFR	15	n/a	n/a	n/a	n/a	n/a	n/a	n/a	18	2	9	7	n/a	n/a	n/a	n/a	n/a
1837.168	n/a	PROB	918584	n/a	LTP210	ltpFR	15	n/a	n/a	n/a	n/a	n/a	n/a	n/a	10	8	1	1	n/a	n/a	n/a	n/a	n/a
1838.256	n/a	PROB	919128	n/a	LTP210	ltpFR	15	n/a	n/a	n/a	n/a	n/a	n/a	n/a	18	4	6	8	n/a	n/a	n/a	n/a	n/a
1839.606	n/a	PROB	919803	n/a	LTP210	ltpFR	15	n/a	n/a	n/a	n/a	n/a	n/a	n/a	13	1	7	5	n/a	n/a	n/a	n/a	n/a
1841.052	n/a	PROB	920526	n/a	LTP210	ltpFR	15	n/a	n/a	n/a	n/a	n/a	n/a	n/a	5	1	2	2	n/a	n/a	n/a	n/a	n/a
1842.472	n/a	PROB	921236	n/a	LTP210	ltpFR	15	n/a	n/a	n/a	n/a	n/a	n/a	n/a	14	8	2	4	n/a	n/a	n/a	n/a	n/a
1843.712	n/a	PROB	921856	n/a	LTP210	ltpFR	15	n/a	n/a	n/a	n/a	n/a	n/a	n/a	16	4	8	4	n/a	n/a	n/a	n/a	n/a
1845.584	n/a	PROB	922792	n/a	LTP210	ltpFR	15	n/a	n/a	n/a	n/a	n/a	n/a	n/a	9	7	1	1	n/a	n/a	n/a	n/a	n/a
1846.732	n/a	PROB	923366	n/a	LTP210	ltpFR	15	n/a	n/a	n/a	n/a	n/a	n/a	n/a	14	9	1	4	n/a	n/a	n/a	n/a	n/a
1847.874	n/a	STOP	923937	n/a	LTP210	ltpFR	15	n/a	n/a	n/a	n/a	n/a	n/a	n/a	n/a	n/a	n/a	n/a	n/a	n/a	n/a	n/a	n/a
1849.86	n/a	WORD	924930	wordpools/wasnorm_wordpool_less_exclusions.txt	LTP210	ltpFR	15	6	0	JACKET	747	n/a	n/a	1	n/a	0	0	0	0.422607421875	0.5869140625	0	upper	amplitud.ttf
1852.872	n/a	START	926436	n/a	LTP210	ltpFR	15	n/a	n/a	n/a	n/a	n/a	n/a	n/a	n/a	n/a	n/a	n/a	n/a	n/a	n/a	n/a	n/a
1853.732	n/a	PROB	926866	n/a	LTP210	ltpFR	15	n/a	n/a	n/a	n/a	n/a	n/a	n/a	15	6	2	7	n/a	n/a	n/a	n/a	n/a
1855.422	n/a	PROB	927711	n/a	LTP210	ltpFR	15	n/a	n/a	n/a	n/a	n/a	n/a	n/a	20	8	9	3	n/a	n/a	n/a	n/a	n/a
1857.708	n/a	PROB	928854	n/a	LTP210	ltpFR	15	n/a	n/a	n/a	n/a	n/a	n/a	n/a	12	9	1	2	n/a	n/a	n/a	n/a	n/a
1859.236	n/a	PROB	929618	n/a	LTP210	ltpFR	15	n/a	n/a	n/a	n/a	n/a	n/a	n/a	12	2	4	6	n/a	n/a	n/a	n/a	n/a
1865.418	n/a	PROB	932709	n/a	LTP210	ltpFR	15	n/a	n/a	n/a	n/a	n/a	n/a	n/a	12	5	2	5	n/a	n/a	n/a	n/a	n/a
1866.992	n/a	PROB	933496	n/a	LTP210	ltpFR	15	n/a	n/a	n/a	n/a	n/a	n/a	n/a	23	9	5	9	n/a	n/a	n/a	n/a	n/a
1868.716	n/a	STOP	934358	n/a	LTP210	ltpFR	15	n/a	n/a	n/a	n/a	n/a	n/a	n/a	n/a	n/a	n/a	n/a	n/a	n/a	n/a	n/a	n/a
1870.658	n/a	REC_START	935329	n/a	LTP210	ltpFR	15	6	n/a	n/a	n/a	n/a	n/a	n/a	n/a	0	0	0	n/a	n/a	n/a	n/a	n/a
1871.814	n/a	REC_WORD	935907	wordpools/wasnorm_wordpool_less_exclusions.txt	LTP210	ltpFR	15	6	0	PASSAGE	1019	n/a	n/a	1	n/a	0	0	0	n/a	n/a	n/a	n/a	n/a
1874.368	n/a	REC_WORD	937184	wordpools/wasnorm_wordpool_less_exclusions.txt	LTP210	ltpFR	15	6	1	WASHER	1592	n/a	n/a	0	n/a	0	0	0	n/a	n/a	n/a	n/a	n/a
1875.796	n/a	REC_WORD	937898	wordpools/wasnorm_wordpool_less_exclusions.txt	LTP210	ltpFR	15	6	1	DRYER	503	n/a	n/a	0	n/a	0	0	0	n/a	n/a	n/a	n/a	n/a
1884.782	n/a	REC_WORD	942391	wordpools/wasnorm_wordpool_less_exclusions.txt	LTP210	ltpFR	15	6	0	ELBOW	520	n/a	n/a	0	n/a	0	0	0	n/a	n/a	n/a	n/a	n/a
1886.108	n/a	REC_WORD	943054	wordpools/wasnorm_wordpool_less_exclusions.txt	LTP210	ltpFR	15	6	0	SHOULDER	1294	n/a	n/a	1	n/a	0	0	0	n/a	n/a	n/a	n/a	n/a
1929.89	n/a	REC_WORD	964945	wordpools/wasnorm_wordpool_less_exclusions.txt	LTP210	ltpFR	15	6	1	WITCH	1617	n/a	n/a	1	n/a	0	0	0	n/a	n/a	n/a	n/a	n/a
2019.09	n/a	WORD	1009545	wordpools/wasnorm_wordpool_less_exclusions.txt	LTP210	ltpFR	15	7	0	HEADBAND	696	n/a	n/a	0	n/a	0	0	0	0.422607421875	0.5869140625	0	upper	amplitud.ttf
2022.972	n/a	WORD	1011486	wordpools/wasnorm_wordpool_less_exclusions.txt	LTP210	ltpFR	15	7	0	SERGEANT	1269	n/a	n/a	1	n/a	0	0	0	0.422607421875	0.5869140625	0	upper	amplitud.ttf
2026.988	n/a	WORD	1013494	wordpools/wasnorm_wordpool_less_exclusions.txt	LTP210	ltpFR	15	7	0	BROCCOLI	176	n/a	n/a	0	n/a	0	0	0	0.422607421875	0.5869140625	0	upper	amplitud.ttf
2030.92	n/a	WORD	1015460	wordpools/wasnorm_wordpool_less_exclusions.txt	LTP210	ltpFR	15	7	0	SLEEVE	1324	n/a	n/a	0	n/a	0	0	0	0.422607421875	0.5869140625	0	upper	amplitud.ttf
2034.908	n/a	WORD	1017454	wordpools/wasnorm_wordpool_less_exclusions.txt	LTP210	ltpFR	15	7	0	BRUNETTE	181	n/a	n/a	1	n/a	0	0	0	0.422607421875	0.5869140625	0	upper	amplitud.ttf
2038.766	n/a	WORD	1019383	wordpools/wasnorm_wordpool_less_exclusions.txt	LTP210	ltpFR	15	7	1	FIG	563	n/a	n/a	1	n/a	0	0	0	0.57763671875	0.412841796875	1	lower	zerothre.ttf
2042.872	n/a	WORD	1021436	wordpools/wasnorm_wordpool_less_exclusions.txt	LTP210	ltpFR	15	7	1	SAP	1233	n/a	n/a	0	n/a	0	0	0	0.57763671875	0.412841796875	1	lower	zerothre.ttf
2046.764	n/a	WORD	1023382	wordpools/wasnorm_wordpool_less_exclusions.txt	LTP210	ltpFR	15	7	1	CROCODILE	411	n/a	n/a	1	n/a	0	0	0	0.57763671875	0.412841796875	1	lower	zerothre.ttf
2050.946	n/a	WORD	1025473	wordpools/wasnorm_wordpool_less_exclusions.txt	LTP210	ltpFR	15	7	1	SWAMP	1416	n/a	n/a	0	n/a	0	0	0	0.57763671875	0.412841796875	1	lower	zerothre.ttf
2055.036	n/a	WORD	1027518	wordpools/wasnorm_wordpool_less_exclusions.txt	LTP210	ltpFR	15	7	1	ONION	977	n/a	n/a	1	n/a	0	0	0	0.57763671875	0.412841796875	1	lower	zerothre.ttf
2058.966	n/a	WORD	1029483	wordpools/wasnorm_wordpool_less_exclusions.txt	LTP210	ltpFR	15	7	0	MAMMAL	861	n/a	n/a	1	n/a	0	0	0	0.422607421875	0.5869140625	0	upper	amplitud.ttf
2062.882	n/a	WORD	1031441	wordpools/wasnorm_wordpool_less_exclusions.txt	LTP210	ltpFR	15	7	0	DOLLAR	482	n/a	n/a	0	n/a	0	0	0	0.422607421875	0.5869140625	0	upper	amplitud.ttf
2066.814	n/a	WORD	1033407	wordpools/wasnorm_wordpool_less_exclusions.txt	LTP210	ltpFR	15	7	0	RASH	1167	n/a	n/a	0	n/a	0	0	0	0.422607421875	0.5869140625	0	upper	amplitud.ttf
2070.98	n/a	WORD	1035490	wordpools/wasnorm_wordpool_less_exclusions.txt	LTP210	ltpFR	15	7	1	WHISKERS	1605	n/a	n/a	0	n/a	0	0	0	0.57763671875	0.412841796875	1	lower	zerothre.ttf
2075.088	n/a	WORD	1037544	wordpools/wasnorm_wordpool_less_exclusions.txt	LTP210	ltpFR	15	7	1	PRIMATE	1123	n/a	n/a	1	n/a	0	0	0	0.57763671875	0.412841796875	1	lower	zerothre.ttf
2079.136	n/a	WORD	1039568	wordpools/wasnorm_wordpool_less_exclusions.txt	LTP210	ltpFR	15	7	1	BILL	126	n/a	n/a	0	n/a	0	0	0	0.57763671875	0.412841796875	1	lower	zerothre.ttf
2082.15	n/a	START	1041075	n/a	LTP210	ltpFR	15	n/a	n/a	n/a	n/a	n/a	n/a	n/a	n/a	n/a	n/a	n/a	n/a	n/a	n/a	n/a	n/a
2083.326	n/a	PROB	1041663	n/a	LTP210	ltpFR	15	n/a	n/a	n/a	n/a	n/a	n/a	n/a	18	7	5	6	n/a	n/a	n/a	n/a	n/a
2085.518	n/a	PROB	1042759	n/a	LTP210	ltpFR	15	n/a	n/a	n/a	n/a	n/a	n/a	n/a	13	6	1	6	n/a	n/a	n/a	n/a	n/a
2086.958	n/a	PROB	1043479	n/a	LTP210	ltpFR	15	n/a	n/a	n/a	n/a	n/a	n/a	n/a	16	6	5	5	n/a	n/a	n/a	n/a	n/a
2088.104	n/a	PROB	1044052	n/a	LTP210	ltpFR	15	n/a	n/a	n/a	n/a	n/a	n/a	n/a	9	1	2	6	n/a	n/a	n/a	n/a	n/a
2089.458	n/a	PROB	1044729	n/a	LTP210	ltpFR	15	n/a	n/a	n/a	n/a	n/a	n/a	n/a	14	2	7	5	n/a	n/a	n/a	n/a	n/a
2091.248	n/a	PROB	1045624	n/a	LTP210	ltpFR	15	n/a	n/a	n/a	n/a	n/a	n/a	n/a	11	2	7	2	n/a	n/a	n/a	n/a	n/a
2092.57	n/a	PROB	1046285	n/a	LTP210	ltpFR	15	n/a	n/a	n/a	n/a	n/a	n/a	n/a	17	4	5	8	n/a	n/a	n/a	n/a	n/a
2094.226	n/a	PROB	1047113	n/a	LTP210	ltpFR	15	n/a	n/a	n/a	n/a	n/a	n/a	n/a	15	6	5	4	n/a	n/a	n/a	n/a	n/a
2095.414	n/a	PROB	1047707	n/a	LTP210	ltpFR	15	n/a	n/a	n/a	n/a	n/a	n/a	n/a	11	1	1	9	n/a	n/a	n/a	n/a	n/a
2096.486	n/a	PROB	1048243	n/a	LTP210	ltpFR	15	n/a	n/a	n/a	n/a	n/a	n/a	n/a	17	7	1	9	n/a	n/a	n/a	n/a	n/a
2097.648	n/a	STOP	1048824	n/a	LTP210	ltpFR	15	n/a	n/a	n/a	n/a	n/a	n/a	n/a	n/a	n/a	n/a	n/a	n/a	n/a	n/a	n/a	n/a
2099.984	n/a	REC_START	1049992	n/a	LTP210	ltpFR	15	7	n/a	n/a	n/a	n/a	n/a	n/a	n/a	0	0	0	n/a	n/a	n/a	n/a	n/a
2101.242	n/a	REC_WORD	1050621	wordpools/wasnorm_wordpool_less_exclusions.txt	LTP210	ltpFR	15	7	1	BILL	126	n/a	n/a	0	n/a	0	0	0	n/a	n/a	n/a	n/a	n/a
2116.332	n/a	REC_WORD	1058166	wordpools/wasnorm_wordpool_less_exclusions.txt	LTP210	ltpFR	15	7	0	HEADBAND	696	n/a	n/a	0	n/a	0	0	0	n/a	n/a	n/a	n/a	n/a
2130.18	n/a	REC_WORD	1065090	wordpools/wasnorm_wordpool_less_exclusions.txt	LTP210	ltpFR	15	7	1	FIG	563	n/a	n/a	1	n/a	0	0	0	n/a	n/a	n/a	n/a	n/a
2131.654	n/a	REC_WORD	1065827	wordpools/wasnorm_wordpool_less_exclusions.txt	LTP210	ltpFR	15	7	1	SAP	1233	n/a	n/a	0	n/a	0	0	0	n/a	n/a	n/a	n/a	n/a
2156.572	n/a	REC_WORD	1078286	wordpools/wasnorm_wordpool_less_exclusions.txt	LTP210	ltpFR	15	7	0	MAMMAL	861	n/a	n/a	1	n/a	0	0	0	n/a	n/a	n/a	n/a	n/a
2223.01	n/a	WORD	1111505	wordpools/wasnorm_wordpool_less_exclusions.txt	LTP210	ltpFR	15	8	1	FREEWAY	603	n/a	n/a	0	n/a	0	0	0	0.57763671875	0.412841796875	1	lower	zerothre.ttf
2227.126	n/a	WORD	1113563	wordpools/wasnorm_wordpool_less_exclusions.txt	LTP210	ltpFR	15	8	1	WINDSHIELD	1612	n/a	n/a	0	n/a	0	0	0	0.57763671875	0.412841796875	1	lower	zerothre.ttf
2231.168	n/a	WORD	1115584	wordpools/wasnorm_wordpool_less_exclusions.txt	LTP210	ltpFR	15	8	1	BOOK	149	n/a	n/a	0	n/a	0	0	0	0.57763671875	0.412841796875	1	lower	zerothre.ttf
2235.274	n/a	WORD	1117637	wordpools/wasnorm_wordpool_less_exclusions.txt	LTP210	ltpFR	15	8	1	TRACTOR	1493	n/a	n/a	0	n/a	0	0	0	0.57763671875	0.412841796875	1	lower	zerothre.ttf
2239.172	n/a	WORD	1119586	wordpools/wasnorm_wordpool_less_exclusions.txt	LTP210	ltpFR	15	8	1	PRINCESS	1125	n/a	n/a	1	n/a	0	0	0	0.57763671875	0.412841796875	1	lower	zerothre.ttf
2243.104	n/a	WORD	1121552	wordpools/wasnorm_wordpool_less_exclusions.txt	LTP210	ltpFR	15	8	1	HOOD	714	n/a	n/a	0	n/a	0	0	0	0.57763671875	0.412841796875	1	lower	zerothre.ttf
2247.278	n/a	WORD	1123639	wordpools/wasnorm_wordpool_less_exclusions.txt	LTP210	ltpFR	15	8	1	CREATURE	403	n/a	n/a	1	n/a	0	0	0	0.57763671875	0.412841796875	1	lower	zerothre.ttf
2251.152	n/a	WORD	1125576	wordpools/wasnorm_wordpool_less_exclusions.txt	LTP210	ltpFR	15	8	1	SPARROW	1347	n/a	n/a	1	n/a	0	0	0	0.57763671875	0.412841796875	1	lower	zerothre.ttf
2255.366	n/a	WORD	1127683	wordpools/wasnorm_wordpool_less_exclusions.txt	LTP210	ltpFR	15	8	1	BRIDE	173	n/a	n/a	1	n/a	0	0	0	0.57763671875	0.412841796875	1	lower	zerothre.ttf
2259.516	n/a	WORD	1129758	wordpools/wasnorm_wordpool_less_exclusions.txt	LTP210	ltpFR	15	8	1	BEETLE	116	n/a	n/a	1	n/a	0	0	0	0.57763671875	0.412841796875	1	lower	zerothre.ttf
2263.356	n/a	WORD	1131678	wordpools/wasnorm_wordpool_less_exclusions.txt	LTP210	ltpFR	15	8	1	WHEEL	1603	n/a	n/a	0	n/a	0	0	0	0.57763671875	0.412841796875	1	lower	zerothre.ttf
2267.196	n/a	WORD	1133598	wordpools/wasnorm_wordpool_less_exclusions.txt	LTP210	ltpFR	15	8	1	ALMANAC	17	n/a	n/a	0	n/a	0	0	0	0.57763671875	0.412841796875	1	lower	zerothre.ttf
2271.26	n/a	WORD	1135630	wordpools/wasnorm_wordpool_less_exclusions.txt	LTP210	ltpFR	15	8	1	CORAL	378	n/a	n/a	1	n/a	0	0	0	0.57763671875	0.412841796875	1	lower	zerothre.ttf
2275.292	n/a	WORD	1137646	wordpools/wasnorm_wordpool_less_exclusions.txt	LTP210	ltpFR	15	8	1	OYSTER	995	n/a	n/a	1	n/a	0	0	0	0.57763671875	0.412841796875	1	lower	zerothre.ttf
2279.124	n/a	WORD	1139562	wordpools/wasnorm_wordpool_less_exclusions.txt	LTP210	ltpFR	15	8	1	POPCORN	1104	n/a	n/a	0	n/a	0	0	0	0.57763671875	0.412841796875	1	lower	zerothre.ttf
2283.074	n/a	WORD	1141537	wordpools/wasnorm_wordpool_less_exclusions.txt	LTP210	ltpFR	15	8	1	BUTTER	205	n/a	n/a	0	n/a	0	0	0	0.57763671875	0.412841796875	1	lower	zerothre.ttf
2286.084	n/a	START	1143042	n/a	LTP210	ltpFR	15	n/a	n/a	n/a	n/a	n/a	n/a	n/a	n/a	n/a	n/a	n/a	n/a	n/a	n/a	n/a	n/a
2287.248	n/a	PROB	1143624	n/a	LTP210	ltpFR	15	n/a	n/a	n/a	n/a	n/a	n/a	n/a	14	5	8	1	n/a	n/a	n/a	n/a	n/a
2290.318	n/a	PROB	1145159	n/a	LTP210	ltpFR	15	n/a	n/a	n/a	n/a	n/a	n/a	n/a	19	3	7	9	n/a	n/a	n/a	n/a	n/a
2292.202	n/a	PROB	1146101	n/a	LTP210	ltpFR	15	n/a	n/a	n/a	n/a	n/a	n/a	n/a	11	3	5	3	n/a	n/a	n/a	n/a	n/a
2295.328	n/a	PROB	1147664	n/a	LTP210	ltpFR	15	n/a	n/a	n/a	n/a	n/a	n/a	n/a	11	1	6	4	n/a	n/a	n/a	n/a	n/a
2296.59	n/a	PROB	1148295	n/a	LTP210	ltpFR	15	n/a	n/a	n/a	n/a	n/a	n/a	n/a	10	4	1	5	n/a	n/a	n/a	n/a	n/a
2297.856	n/a	PROB	1148928	n/a	LTP210	ltpFR	15	n/a	n/a	n/a	n/a	n/a	n/a	n/a	9	2	1	6	n/a	n/a	n/a	n/a	n/a
2299.094	n/a	PROB	1149547	n/a	LTP210	ltpFR	15	n/a	n/a	n/a	n/a	n/a	n/a	n/a	18	4	7	7	n/a	n/a	n/a	n/a	n/a
2300.898	n/a	STOP	1150449	n/a	LTP210	ltpFR	15	n/a	n/a	n/a	n/a	n/a	n/a	n/a	n/a	n/a	n/a	n/a	n/a	n/a	n/a	n/a	n/a
2304.038	n/a	REC_START	1152019	n/a	LTP210	ltpFR	15	8	n/a	n/a	n/a	n/a	n/a	n/a	n/a	0	0	0	n/a	n/a	n/a	n/a	n/a
2305.23	n/a	REC_WORD	1152615	wordpools/wasnorm_wordpool_less_exclusions.txt	LTP210	ltpFR	15	8	1	CORAL	378	n/a	n/a	1	n/a	0	0	0	n/a	n/a	n/a	n/a	n/a
2308.462	n/a	REC_WORD_VV	1154231	wordpools/wasnorm_wordpool_less_exclusions.txt	LTP210	ltpFR	15	8	n/a	<>	-1	n/a	n/a	n/a	n/a	0	0	0	n/a	n/a	n/a	n/a	n/a
2309.712	n/a	REC_WORD	1154856	wordpools/wasnorm_wordpool_less_exclusions.txt	LTP210	ltpFR	15	8	1	FREEWAY	603	n/a	n/a	0	n/a	0	0	0	n/a	n/a	n/a	n/a	n/a
2331.358	n/a	REC_WORD	1165679	wordpools/wasnorm_wordpool_less_exclusions.txt	LTP210	ltpFR	15	8	1	PRINCESS	1125	n/a	n/a	1	n/a	0	0	0	n/a	n/a	n/a	n/a	n/a
2359.096	n/a	REC_WORD	1179548	wordpools/wasnorm_wordpool_less_exclusions.txt	LTP210	ltpFR	15	8	1	WINDSHIELD	1612	n/a	n/a	0	n/a	0	0	0	n/a	n/a	n/a	n/a	n/a
2361.65	n/a	REC_WORD	1180825	wordpools/wasnorm_wordpool_less_exclusions.txt	LTP210	ltpFR	15	8	1	DASHBOARD	441	n/a	n/a	0	n/a	0	0	0	n/a	n/a	n/a	n/a	n/a
2368.38	n/a	REC_WORD	1184190	wordpools/wasnorm_wordpool_less_exclusions.txt	LTP210	ltpFR	15	8	1	POPCORN	1104	n/a	n/a	0	n/a	0	0	0	n/a	n/a	n/a	n/a	n/a
2370.152	n/a	REC_WORD	1185076	wordpools/wasnorm_wordpool_less_exclusions.txt	LTP210	ltpFR	15	8	1	BUTTER	205	n/a	n/a	0	n/a	0	0	0	n/a	n/a	n/a	n/a	n/a
2397.62	n/a	WORD	1198810	wordpools/wasnorm_wordpool_less_exclusions.txt	LTP210	ltpFR	15	9	0	BASEBALL	93	n/a	n/a	0	n/a	0	0	0	0.422607421875	0.5869140625	0	upper	amplitud.ttf
2401.71	n/a	WORD	1200855	wordpools/wasnorm_wordpool_less_exclusions.txt	LTP210	ltpFR	15	9	0	CATCHER	258	n/a	n/a	1	n/a	0	0	0	0.422607421875	0.5869140625	0	upper	amplitud.ttf
2405.802	n/a	WORD	1202901	wordpools/wasnorm_wordpool_less_exclusions.txt	LTP210	ltpFR	15	9	0	SHED	1277	n/a	n/a	1	n/a	0	0	0	0.422607421875	0.5869140625	0	upper	amplitud.ttf
2409.992	n/a	WORD	1204996	wordpools/wasnorm_wordpool_less_exclusions.txt	LTP210	ltpFR	15	9	1	CANDLE	229	n/a	n/a	0	n/a	0	0	0	0.57763671875	0.412841796875	1	lower	zerothre.ttf
2414.158	n/a	WORD	1207079	wordpools/wasnorm_wordpool_less_exclusions.txt	LTP210	ltpFR	15	9	1	HORNET	718	n/a	n/a	1	n/a	0	0	0	0.57763671875	0.412841796875	1	lower	zerothre.ttf
2418.372	n/a	WORD	1209186	wordpools/wasnorm_wordpool_less_exclusions.txt	LTP210	ltpFR	15	9	1	CAGE	218	n/a	n/a	0	n/a	0	0	0	0.57763671875	0.412841796875	1	lower	zerothre.ttf
2422.516	n/a	WORD	1211258	wordpools/wasnorm_wordpool_less_exclusions.txt	LTP210	ltpFR	15	9	1	STREAM	1392	n/a	n/a	0	n/a	0	0	0	0.57763671875	0.412841796875	1	lower	zerothre.ttf
2426.37	n/a	WORD	1213185	wordpools/wasnorm_wordpool_less_exclusions.txt	LTP210	ltpFR	15	9	0	SCROLL	1257	n/a	n/a	0	n/a	0	0	0	0.422607421875	0.5869140625	0	upper	amplitud.ttf
2430.546	n/a	WORD	1215273	wordpools/wasnorm_wordpool_less_exclusions.txt	LTP210	ltpFR	15	9	0	HAMMOCK	681	n/a	n/a	1	n/a	0	0	0	0.422607421875	0.5869140625	0	upper	amplitud.ttf
2434.434	n/a	WORD	1217217	wordpools/wasnorm_wordpool_less_exclusions.txt	LTP210	ltpFR	15	9	0	NET	946	n/a	n/a	0	n/a	0	0	0	0.422607421875	0.5869140625	0	upper	amplitud.ttf
2438.592	n/a	WORD	1219296	wordpools/wasnorm_wordpool_less_exclusions.txt	LTP210	ltpFR	15	9	1	DINNER	468	n/a	n/a	0	n/a	0	0	0	0.57763671875	0.412841796875	1	lower	zerothre.ttf
2442.482	n/a	WORD	1221241	wordpools/wasnorm_wordpool_less_exclusions.txt	LTP210	ltpFR	15	9	1	MARKET	871	n/a	n/a	0	n/a	0	0	0	0.57763671875	0.412841796875	1	lower	zerothre.ttf
2446.682	n/a	WORD	1223341	wordpools/wasnorm_wordpool_less_exclusions.txt	LTP210	ltpFR	15	9	1	CARAVAN	242	n/a	n/a	1	n/a	0	0	0	0.57763671875	0.412841796875	1	lower	zerothre.ttf
2450.572	n/a	WORD	1225286	wordpools/wasnorm_wordpool_less_exclusions.txt	LTP210	ltpFR	15	9	1	CHAUFFEUR	283	n/a	n/a	1	n/a	0	0	0	0.57763671875	0.412841796875	1	lower	zerothre.ttf
2454.594	n/a	WORD	1227297	wordpools/wasnorm_wordpool_less_exclusions.txt	LTP210	ltpFR	15	9	0	BEE	112	n/a	n/a	0	n/a	0	0	0	0.422607421875	0.5869140625	0	upper	amplitud.ttf
2458.822	n/a	WORD	1229411	wordpools/wasnorm_wordpool_less_exclusions.txt	LTP210	ltpFR	15	9	0	PARROT	1015	n/a	n/a	0	n/a	0	0	0	0.422607421875	0.5869140625	0	upper	amplitud.ttf
2461.834	n/a	START	1230917	n/a	LTP210	ltpFR	15	n/a	n/a	n/a	n/a	n/a	n/a	n/a	n/a	n/a	n/a	n/a	n/a	n/a	n/a	n/a	n/a
2463.004	n/a	PROB	1231502	n/a	LTP210	ltpFR	15	n/a	n/a	n/a	n/a	n/a	n/a	n/a	15	7	1	7	n/a	n/a	n/a	n/a	n/a
2464.492	n/a	PROB	1232246	n/a	LTP210	ltpFR	15	n/a	n/a	n/a	n/a	n/a	n/a	n/a	16	8	4	4	n/a	n/a	n/a	n/a	n/a
2466.248	n/a	PROB	1233124	n/a	LTP210	ltpFR	15	n/a	n/a	n/a	n/a	n/a	n/a	n/a	18	5	9	4	n/a	n/a	n/a	n/a	n/a
2468.332	n/a	STOP	1234166	n/a	LTP210	ltpFR	15	n/a	n/a	n/a	n/a	n/a	n/a	n/a	n/a	n/a	n/a	n/a	n/a	n/a	n/a	n/a	n/a
2471.788	n/a	REC_START	1235894	n/a	LTP210	ltpFR	15	9	n/a	n/a	n/a	n/a	n/a	n/a	n/a	0	0	0	n/a	n/a	n/a	n/a	n/a
2472.68	n/a	REC_WORD	1236340	wordpools/wasnorm_wordpool_less_exclusions.txt	LTP210	ltpFR	15	9	0	BEE	112	n/a	n/a	0	n/a	0	0	0	n/a	n/a	n/a	n/a	n/a
2474.202	n/a	REC_WORD	1237101	wordpools/wasnorm_wordpool_less_exclusions.txt	LTP210	ltpFR	15	9	0	PARROT	1015	n/a	n/a	0	n/a	0	0	0	n/a	n/a	n/a	n/a	n/a
2477.326	n/a	REC_WORD	1238663	wordpools/wasnorm_wordpool_less_exclusions.txt	LTP210	ltpFR	15	9	1	CARAVAN	242	n/a	n/a	1	n/a	0	0	0	n/a	n/a	n/a	n/a	n/a
2494.542	n/a	REC_WORD	1247271	wordpools/wasnorm_wordpool_less_exclusions.txt	LTP210	ltpFR	15	9	n/a	BASEMENT	94	n/a	n/a	n/a	n/a	0	0	0	n/a	n/a	n/a	n/a	n/a
2496.978	n/a	REC_WORD	1248489	wordpools/wasnorm_wordpool_less_exclusions.txt	LTP210	ltpFR	15	9	0	CATCHER	258	n/a	n/a	1	n/a	0	0	0	n/a	n/a	n/a	n/a	n/a
2500.948	n/a	REC_WORD	1250474	wordpools/wasnorm_wordpool_less_exclusions.txt	LTP210	ltpFR	15	9	1	DINNER	468	n/a	n/a	0	n/a	0	0	0	n/a	n/a	n/a	n/a	n/a
2560.508	n/a	WORD	1280254	wordpools/wasnorm_wordpool_less_exclusions.txt	LTP210	ltpFR	15	10	1	NEUTRON	947	n/a	n/a	0	n/a	0	0	0	0.57763671875	0.412841796875	1	lower	zerothre.ttf
2564.414	n/a	WORD	1282207	wordpools/wasnorm_wordpool_less_exclusions.txt	LTP210	ltpFR	15	10	1	MOLECULE	905	n/a	n/a	0	n/a	0	0	0	0.57763671875	0.412841796875	1	lower	zerothre.ttf
2568.446	n/a	WORD	1284223	wordpools/wasnorm_wordpool_less_exclusions.txt	LTP210	ltpFR	15	10	1	ZUCCHINI	1638	n/a	n/a	1	n/a	0	0	0	0.57763671875	0.412841796875	1	lower	zerothre.ttf
2572.546	n/a	WORD	1286273	wordpools/wasnorm_wordpool_less_exclusions.txt	LTP210	ltpFR	15	10	1	PICKLE	1059	n/a	n/a	0	n/a	0	0	0	0.57763671875	0.412841796875	1	lower	zerothre.ttf
2576.678	n/a	WORD	1288339	wordpools/wasnorm_wordpool_less_exclusions.txt	LTP210	ltpFR	15	10	1	LIBRARY	816	n/a	n/a	0	n/a	0	0	0	0.57763671875	0.412841796875	1	lower	zerothre.ttf
2580.76	n/a	WORD	1290380	wordpools/wasnorm_wordpool_less_exclusions.txt	LTP210	ltpFR	15	10	1	REBEL	1172	n/a	n/a	1	n/a	0	0	0	0.57763671875	0.412841796875	1	lower	zerothre.ttf
2584.87	n/a	WORD	1292435	wordpools/wasnorm_wordpool_less_exclusions.txt	LTP210	ltpFR	15	10	1	PAGE	1001	n/a	n/a	0	n/a	0	0	0	0.57763671875	0.412841796875	1	lower	zerothre.ttf
2588.808	n/a	WORD	1294404	wordpools/wasnorm_wordpool_less_exclusions.txt	LTP210	ltpFR	15	10	1	VEAL	1551	n/a	n/a	0	n/a	0	0	0	0.57763671875	0.412841796875	1	lower	zerothre.ttf
2592.84	n/a	WORD	1296420	wordpools/wasnorm_wordpool_less_exclusions.txt	LTP210	ltpFR	15	10	1	BINDER	127	n/a	n/a	0	n/a	0	0	0	0.57763671875	0.412841796875	1	lower	zerothre.ttf
2596.982	n/a	WORD	1298491	wordpools/wasnorm_wordpool_less_exclusions.txt	LTP210	ltpFR	15	10	1	NAVIGATOR	938	n/a	n/a	1	n/a	0	0	0	0.57763671875	0.412841796875	1	lower	zerothre.ttf
2600.904	n/a	WORD	1300452	wordpools/wasnorm_wordpool_less_exclusions.txt	LTP210	ltpFR	15	10	1	JOKER	759	n/a	n/a	1	n/a	0	0	0	0.57763671875	0.412841796875	1	lower	zerothre.ttf
2604.87	n/a	WORD	1302435	wordpools/wasnorm_wordpool_less_exclusions.txt	LTP210	ltpFR	15	10	1	EDITORIAL	517	n/a	n/a	0	n/a	0	0	0	0.57763671875	0.412841796875	1	lower	zerothre.ttf
2609.062	n/a	WORD	1304531	wordpools/wasnorm_wordpool_less_exclusions.txt	LTP210	ltpFR	15	10	1	POTATO	1115	n/a	n/a	1	n/a	0	0	0	0.57763671875	0.412841796875	1	lower	zerothre.ttf
2612.984	n/a	WORD	1306492	wordpools/wasnorm_wordpool_less_exclusions.txt	LTP210	ltpFR	15	10	1	MONSTER	912	n/a	n/a	1	n/a	0	0	0	0.57763671875	0.412841796875	1	lower	zerothre.ttf
2616.816	n/a	WORD	1308408	wordpools/wasnorm_wordpool_less_exclusions.txt	LTP210	ltpFR	15	10	1	SERVER	1272	n/a	n/a	1	n/a	0	0	0	0.57763671875	0.412841796875	1	lower	zerothre.ttf
2620.908	n/a	WORD	1310454	wordpools/wasnorm_wordpool_less_exclusions.txt	LTP210	ltpFR	15	10	1	CRAB	397	n/a	n/a	1	n/a	0	0	0	0.57763671875	0.412841796875	1	lower	zerothre.ttf
2626.806	n/a	REC_START	1313403	n/a	LTP210	ltpFR	15	10	n/a	n/a	n/a	n/a	n/a	n/a	n/a	0	0	0	n/a	n/a	n/a	n/a	n/a
2627.748	n/a	REC_WORD	1313874	wordpools/wasnorm_wordpool_less_exclusions.txt	LTP210	ltpFR	15	10	1	MONSTER	912	n/a	n/a	1	n/a	0	0	0	n/a	n/a	n/a	n/a	n/a
2629.544	n/a	REC_WORD	1314772	wordpools/wasnorm_wordpool_less_exclusions.txt	LTP210	ltpFR	15	10	1	CRAB	397	n/a	n/a	1	n/a	0	0	0	n/a	n/a	n/a	n/a	n/a
2631.12	n/a	REC_WORD	1315560	wordpools/wasnorm_wordpool_less_exclusions.txt	LTP210	ltpFR	15	10	1	EDITORIAL	517	n/a	n/a	0	n/a	0	0	0	n/a	n/a	n/a	n/a	n/a
2643.482	n/a	REC_WORD	1321741	wordpools/wasnorm_wordpool_less_exclusions.txt	LTP210	ltpFR	15	10	1	VEAL	1551	n/a	n/a	0	n/a	0	0	0	n/a	n/a	n/a	n/a	n/a
2648.292	n/a	REC_WORD	1324146	wordpools/wasnorm_wordpool_less_exclusions.txt	LTP210	ltpFR	15	10	1	ZUCCHINI	1638	n/a	n/a	1	n/a	0	0	0	n/a	n/a	n/a	n/a	n/a
2650.134	n/a	REC_WORD	1325067	wordpools/wasnorm_wordpool_less_exclusions.txt	LTP210	ltpFR	15	10	1	PICKLE	1059	n/a	n/a	0	n/a	0	0	0	n/a	n/a	n/a	n/a	n/a
2702.452	n/a	REST_REWET	1351226	n/a	LTP210	ltpFR	15	10	n/a	n/a	n/a	n/a	n/a	n/a	n/a	0	0	0	n/a	n/a	n/a	n/a	n/a
3067.28	n/a	START	1533640	n/a	LTP210	ltpFR	15	n/a	n/a	n/a	n/a	n/a	n/a	n/a	n/a	n/a	n/a	n/a	n/a	n/a	n/a	n/a	n/a
3068.792	n/a	PROB	1534396	n/a	LTP210	ltpFR	15	n/a	n/a	n/a	n/a	n/a	n/a	n/a	11	6	3	2	n/a	n/a	n/a	n/a	n/a
3070.816	n/a	PROB	1535408	n/a	LTP210	ltpFR	15	n/a	n/a	n/a	n/a	n/a	n/a	n/a	11	4	6	1	n/a	n/a	n/a	n/a	n/a
3071.98	n/a	PROB	1535990	n/a	LTP210	ltpFR	15	n/a	n/a	n/a	n/a	n/a	n/a	n/a	23	6	8	9	n/a	n/a	n/a	n/a	n/a
3073.7	n/a	STOP	1536850	n/a	LTP210	ltpFR	15	n/a	n/a	n/a	n/a	n/a	n/a	n/a	n/a	n/a	n/a	n/a	n/a	n/a	n/a	n/a	n/a
3076.336	n/a	WORD	1538168	wordpools/wasnorm_wordpool_less_exclusions.txt	LTP210	ltpFR	15	11	0	CHISEL	305	n/a	n/a	0	n/a	0	0	0	0.422607421875	0.5869140625	0	upper	amplitud.ttf
3079.35	n/a	START	1539675	n/a	LTP210	ltpFR	15	n/a	n/a	n/a	n/a	n/a	n/a	n/a	n/a	n/a	n/a	n/a	n/a	n/a	n/a	n/a	n/a
3080.386	n/a	PROB	1540193	n/a	LTP210	ltpFR	15	n/a	n/a	n/a	n/a	n/a	n/a	n/a	19	8	6	5	n/a	n/a	n/a	n/a	n/a
3082.036	n/a	PROB	1541018	n/a	LTP210	ltpFR	15	n/a	n/a	n/a	n/a	n/a	n/a	n/a	21	3	9	9	n/a	n/a	n/a	n/a	n/a
3083.676	n/a	PROB	1541838	n/a	LTP210	ltpFR	15	n/a	n/a	n/a	n/a	n/a	n/a	n/a	12	1	4	7	n/a	n/a	n/a	n/a	n/a
3086.814	n/a	STOP	1543407	n/a	LTP210	ltpFR	15	n/a	n/a	n/a	n/a	n/a	n/a	n/a	n/a	n/a	n/a	n/a	n/a	n/a	n/a	n/a	n/a
3088.484	n/a	WORD	1544242	wordpools/wasnorm_wordpool_less_exclusions.txt	LTP210	ltpFR	15	11	0	MUFFIN	929	n/a	n/a	0	n/a	0	0	0	0.422607421875	0.5869140625	0	upper	amplitud.ttf
3091.496	n/a	START	1545748	n/a	LTP210	ltpFR	15	n/a	n/a	n/a	n/a	n/a	n/a	n/a	n/a	n/a	n/a	n/a	n/a	n/a	n/a	n/a	n/a
3092.548	n/a	PROB	1546274	n/a	LTP210	ltpFR	15	n/a	n/a	n/a	n/a	n/a	n/a	n/a	13	5	4	4	n/a	n/a	n/a	n/a	n/a
3096.358	n/a	PROB	1548179	n/a	LTP210	ltpFR	15	n/a	n/a	n/a	n/a	n/a	n/a	n/a	18	4	8	6	n/a	n/a	n/a	n/a	n/a
3098.214	n/a	STOP	1549107	n/a	LTP210	ltpFR	15	n/a	n/a	n/a	n/a	n/a	n/a	n/a	n/a	n/a	n/a	n/a	n/a	n/a	n/a	n/a	n/a
3100.456	n/a	WORD	1550228	wordpools/wasnorm_wordpool_less_exclusions.txt	LTP210	ltpFR	15	11	0	TRIANGLE	1504	n/a	n/a	0	n/a	0	0	0	0.422607421875	0.5869140625	0	upper	amplitud.ttf
3103.468	n/a	START	1551734	n/a	LTP210	ltpFR	15	n/a	n/a	n/a	n/a	n/a	n/a	n/a	n/a	n/a	n/a	n/a	n/a	n/a	n/a	n/a	n/a
3104.428	n/a	PROB	1552214	n/a	LTP210	ltpFR	15	n/a	n/a	n/a	n/a	n/a	n/a	n/a	12	2	9	1	n/a	n/a	n/a	n/a	n/a
3105.878	n/a	PROB	1552939	n/a	LTP210	ltpFR	15	n/a	n/a	n/a	n/a	n/a	n/a	n/a	12	7	4	1	n/a	n/a	n/a	n/a	n/a
3108.368	n/a	PROB	1554184	n/a	LTP210	ltpFR	15	n/a	n/a	n/a	n/a	n/a	n/a	n/a	12	5	2	5	n/a	n/a	n/a	n/a	n/a
3109.564	n/a	PROB	1554782	n/a	LTP210	ltpFR	15	n/a	n/a	n/a	n/a	n/a	n/a	n/a	21	9	3	9	n/a	n/a	n/a	n/a	n/a
3111.278	n/a	STOP	1555639	n/a	LTP210	ltpFR	15	n/a	n/a	n/a	n/a	n/a	n/a	n/a	n/a	n/a	n/a	n/a	n/a	n/a	n/a	n/a	n/a
3112.552	n/a	WORD	1556276	wordpools/wasnorm_wordpool_less_exclusions.txt	LTP210	ltpFR	15	11	0	EMPIRE	530	n/a	n/a	1	n/a	0	0	0	0.422607421875	0.5869140625	0	upper	amplitud.ttf
3115.564	n/a	START	1557782	n/a	LTP210	ltpFR	15	n/a	n/a	n/a	n/a	n/a	n/a	n/a	n/a	n/a	n/a	n/a	n/a	n/a	n/a	n/a	n/a
3116.618	n/a	PROB	1558309	n/a	LTP210	ltpFR	15	n/a	n/a	n/a	n/a	n/a	n/a	n/a	15	3	4	8	n/a	n/a	n/a	n/a	n/a
3118.408	n/a	PROB	1559204	n/a	LTP210	ltpFR	15	n/a	n/a	n/a	n/a	n/a	n/a	n/a	21	4	9	8	n/a	n/a	n/a	n/a	n/a
3120.314	n/a	PROB	1560157	n/a	LTP210	ltpFR	15	n/a	n/a	n/a	n/a	n/a	n/a	n/a	19	9	7	3	n/a	n/a	n/a	n/a	n/a
3121.772	n/a	PROB	1560886	n/a	LTP210	ltpFR	15	n/a	n/a	n/a	n/a	n/a	n/a	n/a	7	1	2	4	n/a	n/a	n/a	n/a	n/a
3122.992	n/a	STOP	1561496	n/a	LTP210	ltpFR	15	n/a	n/a	n/a	n/a	n/a	n/a	n/a	n/a	n/a	n/a	n/a	n/a	n/a	n/a	n/a	n/a
3124.538	n/a	WORD	1562269	wordpools/wasnorm_wordpool_less_exclusions.txt	LTP210	ltpFR	15	11	0	GARLIC	624	n/a	n/a	0	n/a	0	0	0	0.422607421875	0.5869140625	0	upper	amplitud.ttf
3127.55	n/a	START	1563775	n/a	LTP210	ltpFR	15	n/a	n/a	n/a	n/a	n/a	n/a	n/a	n/a	n/a	n/a	n/a	n/a	n/a	n/a	n/a	n/a
3128.486	n/a	PROB	1564243	n/a	LTP210	ltpFR	15	n/a	n/a	n/a	n/a	n/a	n/a	n/a	15	8	5	2	n/a	n/a	n/a	n/a	n/a
3129.86	n/a	PROB	1564930	n/a	LTP210	ltpFR	15	n/a	n/a	n/a	n/a	n/a	n/a	n/a	12	1	4	7	n/a	n/a	n/a	n/a	n/a
3131.24	n/a	PROB	1565620	n/a	LTP210	ltpFR	15	n/a	n/a	n/a	n/a	n/a	n/a	n/a	14	6	3	5	n/a	n/a	n/a	n/a	n/a
3133.148	n/a	PROB	1566574	n/a	LTP210	ltpFR	15	n/a	n/a	n/a	n/a	n/a	n/a	n/a	9	3	3	3	n/a	n/a	n/a	n/a	n/a
3134.184	n/a	STOP	1567092	n/a	LTP210	ltpFR	15	n/a	n/a	n/a	n/a	n/a	n/a	n/a	n/a	n/a	n/a	n/a	n/a	n/a	n/a	n/a	n/a
3136.484	n/a	WORD	1568242	wordpools/wasnorm_wordpool_less_exclusions.txt	LTP210	ltpFR	15	11	0	STRAWBERRY	1391	n/a	n/a	0	n/a	0	0	0	0.422607421875	0.5869140625	0	upper	amplitud.ttf
3139.496	n/a	START	1569748	n/a	LTP210	ltpFR	15	n/a	n/a	n/a	n/a	n/a	n/a	n/a	n/a	n/a	n/a	n/a	n/a	n/a	n/a	n/a	n/a
3140.558	n/a	PROB	1570279	n/a	LTP210	ltpFR	15	n/a	n/a	n/a	n/a	n/a	n/a	n/a	16	5	7	4	n/a	n/a	n/a	n/a	n/a
3143.186	n/a	PROB	1571593	n/a	LTP210	ltpFR	15	n/a	n/a	n/a	n/a	n/a	n/a	n/a	8	5	1	2	n/a	n/a	n/a	n/a	n/a
3147.496	n/a	STOP	1573748	n/a	LTP210	ltpFR	15	n/a	n/a	n/a	n/a	n/a	n/a	n/a	n/a	n/a	n/a	n/a	n/a	n/a	n/a	n/a	n/a
3148.682	n/a	WORD	1574341	wordpools/wasnorm_wordpool_less_exclusions.txt	LTP210	ltpFR	15	11	0	SUBWAY	1400	n/a	n/a	1	n/a	0	0	0	0.422607421875	0.5869140625	0	upper	amplitud.ttf
3151.694	n/a	START	1575847	n/a	LTP210	ltpFR	15	n/a	n/a	n/a	n/a	n/a	n/a	n/a	n/a	n/a	n/a	n/a	n/a	n/a	n/a	n/a	n/a
3152.606	n/a	PROB	1576303	n/a	LTP210	ltpFR	15	n/a	n/a	n/a	n/a	n/a	n/a	n/a	14	6	5	3	n/a	n/a	n/a	n/a	n/a
3154.446	n/a	PROB	1577223	n/a	LTP210	ltpFR	15	n/a	n/a	n/a	n/a	n/a	n/a	n/a	13	4	7	2	n/a	n/a	n/a	n/a	n/a
3156.696	n/a	PROB	1578348	n/a	LTP210	ltpFR	15	n/a	n/a	n/a	n/a	n/a	n/a	n/a	25	9	9	7	n/a	n/a	n/a	n/a	n/a
3158.25	n/a	STOP	1579125	n/a	LTP210	ltpFR	15	n/a	n/a	n/a	n/a	n/a	n/a	n/a	n/a	n/a	n/a	n/a	n/a	n/a	n/a	n/a	n/a
3160.912	n/a	WORD	1580456	wordpools/wasnorm_wordpool_less_exclusions.txt	LTP210	ltpFR	15	11	0	BEARD	107	n/a	n/a	0	n/a	0	0	0	0.422607421875	0.5869140625	0	upper	amplitud.ttf
3163.924	n/a	START	1581962	n/a	LTP210	ltpFR	15	n/a	n/a	n/a	n/a	n/a	n/a	n/a	n/a	n/a	n/a	n/a	n/a	n/a	n/a	n/a	n/a
3165.004	n/a	PROB	1582502	n/a	LTP210	ltpFR	15	n/a	n/a	n/a	n/a	n/a	n/a	n/a	19	5	9	5	n/a	n/a	n/a	n/a	n/a
3166.498	n/a	PROB	1583249	n/a	LTP210	ltpFR	15	n/a	n/a	n/a	n/a	n/a	n/a	n/a	13	5	7	1	n/a	n/a	n/a	n/a	n/a
3168.398	n/a	PROB	1584199	n/a	LTP210	ltpFR	15	n/a	n/a	n/a	n/a	n/a	n/a	n/a	19	7	3	9	n/a	n/a	n/a	n/a	n/a
3169.77	n/a	PROB	1584885	n/a	LTP210	ltpFR	15	n/a	n/a	n/a	n/a	n/a	n/a	n/a	17	7	1	9	n/a	n/a	n/a	n/a	n/a
3171.034	n/a	STOP	1585517	n/a	LTP210	ltpFR	15	n/a	n/a	n/a	n/a	n/a	n/a	n/a	n/a	n/a	n/a	n/a	n/a	n/a	n/a	n/a	n/a
3173.058	n/a	WORD	1586529	wordpools/wasnorm_wordpool_less_exclusions.txt	LTP210	ltpFR	15	11	0	PEANUT	1032	n/a	n/a	0	n/a	0	0	0	0.422607421875	0.5869140625	0	upper	amplitud.ttf
3176.07	n/a	START	1588035	n/a	LTP210	ltpFR	15	n/a	n/a	n/a	n/a	n/a	n/a	n/a	n/a	n/a	n/a	n/a	n/a	n/a	n/a	n/a	n/a
3177.124	n/a	PROB	1588562	n/a	LTP210	ltpFR	15	n/a	n/a	n/a	n/a	n/a	n/a	n/a	16	7	7	2	n/a	n/a	n/a	n/a	n/a
3178.588	n/a	PROB	1589294	n/a	LTP210	ltpFR	15	n/a	n/a	n/a	n/a	n/a	n/a	n/a	19	9	2	8	n/a	n/a	n/a	n/a	n/a
3180.436	n/a	PROB	1590218	n/a	LTP210	ltpFR	15	n/a	n/a	n/a	n/a	n/a	n/a	n/a	5	1	2	2	n/a	n/a	n/a	n/a	n/a
3182.252	n/a	PROB	1591126	n/a	LTP210	ltpFR	15	n/a	n/a	n/a	n/a	n/a	n/a	n/a	8	3	2	3	n/a	n/a	n/a	n/a	n/a
3183.978	n/a	STOP	1591989	n/a	LTP210	ltpFR	15	n/a	n/a	n/a	n/a	n/a	n/a	n/a	n/a	n/a	n/a	n/a	n/a	n/a	n/a	n/a	n/a
3185.096	n/a	WORD	1592548	wordpools/wasnorm_wordpool_less_exclusions.txt	LTP210	ltpFR	15	11	0	NUT	965	n/a	n/a	0	n/a	0	0	0	0.422607421875	0.5869140625	0	upper	amplitud.ttf
3188.108	n/a	START	1594054	n/a	LTP210	ltpFR	15	n/a	n/a	n/a	n/a	n/a	n/a	n/a	n/a	n/a	n/a	n/a	n/a	n/a	n/a	n/a	n/a
3189.186	n/a	PROB	1594593	n/a	LTP210	ltpFR	15	n/a	n/a	n/a	n/a	n/a	n/a	n/a	19	8	4	7	n/a	n/a	n/a	n/a	n/a
3190.826	n/a	PROB	1595413	n/a	LTP210	ltpFR	15	n/a	n/a	n/a	n/a	n/a	n/a	n/a	14	3	7	4	n/a	n/a	n/a	n/a	n/a
3192.04	n/a	PROB	1596020	n/a	LTP210	ltpFR	15	n/a	n/a	n/a	n/a	n/a	n/a	n/a	18	6	3	9	n/a	n/a	n/a	n/a	n/a
3193.596	n/a	PROB	1596798	n/a	LTP210	ltpFR	15	n/a	n/a	n/a	n/a	n/a	n/a	n/a	14	4	8	2	n/a	n/a	n/a	n/a	n/a
3194.716	n/a	STOP	1597358	n/a	LTP210	ltpFR	15	n/a	n/a	n/a	n/a	n/a	n/a	n/a	n/a	n/a	n/a	n/a	n/a	n/a	n/a	n/a	n/a
3197.15	n/a	WORD	1598575	wordpools/wasnorm_wordpool_less_exclusions.txt	LTP210	ltpFR	15	11	0	COLT	349	n/a	n/a	1	n/a	0	0	0	0.422607421875	0.5869140625	0	upper	amplitud.ttf
3200.162	n/a	START	1600081	n/a	LTP210	ltpFR	15	n/a	n/a	n/a	n/a	n/a	n/a	n/a	n/a	n/a	n/a	n/a	n/a	n/a	n/a	n/a	n/a
3201.282	n/a	PROB	1600641	n/a	LTP210	ltpFR	15	n/a	n/a	n/a	n/a	n/a	n/a	n/a	17	3	9	5	n/a	n/a	n/a	n/a	n/a
3203.59	n/a	PROB	1601795	n/a	LTP210	ltpFR	15	n/a	n/a	n/a	n/a	n/a	n/a	n/a	14	3	5	6	n/a	n/a	n/a	n/a	n/a
3205.39	n/a	PROB	1602695	n/a	LTP210	ltpFR	15	n/a	n/a	n/a	n/a	n/a	n/a	n/a	15	4	4	7	n/a	n/a	n/a	n/a	n/a
3206.924	n/a	STOP	1603462	n/a	LTP210	ltpFR	15	n/a	n/a	n/a	n/a	n/a	n/a	n/a	n/a	n/a	n/a	n/a	n/a	n/a	n/a	n/a	n/a
3209.38	n/a	WORD	1604690	wordpools/wasnorm_wordpool_less_exclusions.txt	LTP210	ltpFR	15	11	0	BARLEY	88	n/a	n/a	0	n/a	0	0	0	0.422607421875	0.5869140625	0	upper	amplitud.ttf
3212.392	n/a	START	1606196	n/a	LTP210	ltpFR	15	n/a	n/a	n/a	n/a	n/a	n/a	n/a	n/a	n/a	n/a	n/a	n/a	n/a	n/a	n/a	n/a
3213.512	n/a	PROB	1606756	n/a	LTP210	ltpFR	15	n/a	n/a	n/a	n/a	n/a	n/a	n/a	20	8	3	9	n/a	n/a	n/a	n/a	n/a
3216.432	n/a	PROB	1608216	n/a	LTP210	ltpFR	15	n/a	n/a	n/a	n/a	n/a	n/a	n/a	12	3	4	5	n/a	n/a	n/a	n/a	n/a
3220.39	n/a	STOP	1610195	n/a	LTP210	ltpFR	15	n/a	n/a	n/a	n/a	n/a	n/a	n/a	n/a	n/a	n/a	n/a	n/a	n/a	n/a	n/a	n/a
3221.234	n/a	WORD	1610617	wordpools/wasnorm_wordpool_less_exclusions.txt	LTP210	ltpFR	15	11	0	CARRIAGE	248	n/a	n/a	1	n/a	0	0	0	0.422607421875	0.5869140625	0	upper	amplitud.ttf
3224.246	n/a	START	1612123	n/a	LTP210	ltpFR	15	n/a	n/a	n/a	n/a	n/a	n/a	n/a	n/a	n/a	n/a	n/a	n/a	n/a	n/a	n/a	n/a
3225.09	n/a	PROB	1612545	n/a	LTP210	ltpFR	15	n/a	n/a	n/a	n/a	n/a	n/a	n/a	13	5	5	3	n/a	n/a	n/a	n/a	n/a
3226.41	n/a	PROB	1613205	n/a	LTP210	ltpFR	15	n/a	n/a	n/a	n/a	n/a	n/a	n/a	11	9	1	1	n/a	n/a	n/a	n/a	n/a
3227.868	n/a	PROB	1613934	n/a	LTP210	ltpFR	15	n/a	n/a	n/a	n/a	n/a	n/a	n/a	19	8	6	5	n/a	n/a	n/a	n/a	n/a
3232.248	n/a	STOP	1616124	n/a	LTP210	ltpFR	15	n/a	n/a	n/a	n/a	n/a	n/a	n/a	n/a	n/a	n/a	n/a	n/a	n/a	n/a	n/a	n/a
3233.238	n/a	WORD	1616619	wordpools/wasnorm_wordpool_less_exclusions.txt	LTP210	ltpFR	15	11	0	INFANT	737	n/a	n/a	0	n/a	0	0	0	0.422607421875	0.5869140625	0	upper	amplitud.ttf
3236.25	n/a	START	1618125	n/a	LTP210	ltpFR	15	n/a	n/a	n/a	n/a	n/a	n/a	n/a	n/a	n/a	n/a	n/a	n/a	n/a	n/a	n/a	n/a
3237.446	n/a	PROB	1618723	n/a	LTP210	ltpFR	15	n/a	n/a	n/a	n/a	n/a	n/a	n/a	8	2	5	1	n/a	n/a	n/a	n/a	n/a
3238.852	n/a	PROB	1619426	n/a	LTP210	ltpFR	15	n/a	n/a	n/a	n/a	n/a	n/a	n/a	17	7	2	8	n/a	n/a	n/a	n/a	n/a
3240.598	n/a	PROB	1620299	n/a	LTP210	ltpFR	15	n/a	n/a	n/a	n/a	n/a	n/a	n/a	18	3	9	6	n/a	n/a	n/a	n/a	n/a
3244.25	n/a	STOP	1622125	n/a	LTP210	ltpFR	15	n/a	n/a	n/a	n/a	n/a	n/a	n/a	n/a	n/a	n/a	n/a	n/a	n/a	n/a	n/a	n/a
3245.434	n/a	WORD	1622717	wordpools/wasnorm_wordpool_less_exclusions.txt	LTP210	ltpFR	15	11	0	ENGINE	535	n/a	n/a	1	n/a	0	0	0	0.422607421875	0.5869140625	0	upper	amplitud.ttf
3248.446	n/a	START	1624223	n/a	LTP210	ltpFR	15	n/a	n/a	n/a	n/a	n/a	n/a	n/a	n/a	n/a	n/a	n/a	n/a	n/a	n/a	n/a	n/a
3249.516	n/a	PROB	1624758	n/a	LTP210	ltpFR	15	n/a	n/a	n/a	n/a	n/a	n/a	n/a	17	7	2	8	n/a	n/a	n/a	n/a	n/a
3250.848	n/a	PROB	1625424	n/a	LTP210	ltpFR	15	n/a	n/a	n/a	n/a	n/a	n/a	n/a	16	3	7	6	n/a	n/a	n/a	n/a	n/a
3252.044	n/a	PROB	1626022	n/a	LTP210	ltpFR	15	n/a	n/a	n/a	n/a	n/a	n/a	n/a	15	2	9	4	n/a	n/a	n/a	n/a	n/a
3253.894	n/a	PROB	1626947	n/a	LTP210	ltpFR	15	n/a	n/a	n/a	n/a	n/a	n/a	n/a	13	6	1	6	n/a	n/a	n/a	n/a	n/a
3255.206	n/a	STOP	1627603	n/a	LTP210	ltpFR	15	n/a	n/a	n/a	n/a	n/a	n/a	n/a	n/a	n/a	n/a	n/a	n/a	n/a	n/a	n/a	n/a
3257.512	n/a	WORD	1628756	wordpools/wasnorm_wordpool_less_exclusions.txt	LTP210	ltpFR	15	11	0	SHORTCAKE	1292	n/a	n/a	0	n/a	0	0	0	0.422607421875	0.5869140625	0	upper	amplitud.ttf
3260.524	n/a	START	1630262	n/a	LTP210	ltpFR	15	n/a	n/a	n/a	n/a	n/a	n/a	n/a	n/a	n/a	n/a	n/a	n/a	n/a	n/a	n/a	n/a
3261.42	n/a	PROB	1630710	n/a	LTP210	ltpFR	15	n/a	n/a	n/a	n/a	n/a	n/a	n/a	6	1	4	1	n/a	n/a	n/a	n/a	n/a
3262.684	n/a	PROB	1631342	n/a	LTP210	ltpFR	15	n/a	n/a	n/a	n/a	n/a	n/a	n/a	23	9	7	7	n/a	n/a	n/a	n/a	n/a
3264.498	n/a	PROB	1632249	n/a	LTP210	ltpFR	15	n/a	n/a	n/a	n/a	n/a	n/a	n/a	11	5	4	2	n/a	n/a	n/a	n/a	n/a
3266.114	n/a	PROB	1633057	n/a	LTP210	ltpFR	15	n/a	n/a	n/a	n/a	n/a	n/a	n/a	12	2	7	3	n/a	n/a	n/a	n/a	n/a
3267.224	n/a	STOP	1633612	n/a	LTP210	ltpFR	15	n/a	n/a	n/a	n/a	n/a	n/a	n/a	n/a	n/a	n/a	n/a	n/a	n/a	n/a	n/a	n/a
3270.472	n/a	REC_START	1635236	n/a	LTP210	ltpFR	15	11	n/a	n/a	n/a	n/a	n/a	n/a	n/a	0	0	0	n/a	n/a	n/a	n/a	n/a
3271.42	n/a	REC_WORD	1635710	wordpools/wasnorm_wordpool_less_exclusions.txt	LTP210	ltpFR	15	11	0	SHORTCAKE	1292	n/a	n/a	0	n/a	0	0	0	n/a	n/a	n/a	n/a	n/a
3274.912	n/a	REC_WORD	1637456	wordpools/wasnorm_wordpool_less_exclusions.txt	LTP210	ltpFR	15	11	0	CARRIAGE	248	n/a	n/a	1	n/a	0	0	0	n/a	n/a	n/a	n/a	n/a
3334.874	n/a	REC_WORD	1667437	wordpools/wasnorm_wordpool_less_exclusions.txt	LTP210	ltpFR	15	11	0	COLT	349	n/a	n/a	1	n/a	0	0	0	n/a	n/a	n/a	n/a	n/a
3448.544	n/a	START	1724272	n/a	LTP210	ltpFR	15	n/a	n/a	n/a	n/a	n/a	n/a	n/a	n/a	n/a	n/a	n/a	n/a	n/a	n/a	n/a	n/a
3450.058	n/a	PROB	1725029	n/a	LTP210	ltpFR	15	n/a	n/a	n/a	n/a	n/a	n/a	n/a	13	2	8	3	n/a	n/a	n/a	n/a	n/a
3451.336	n/a	PROB	1725668	n/a	LTP210	ltpFR	15	n/a	n/a	n/a	n/a	n/a	n/a	n/a	15	1	5	9	n/a	n/a	n/a	n/a	n/a
3452.642	n/a	PROB	1726321	n/a	LTP210	ltpFR	15	n/a	n/a	n/a	n/a	n/a	n/a	n/a	14	9	3	5	n/a	n/a	n/a	n/a	n/a
3454.35	n/a	PROB	1727175	n/a	LTP210	ltpFR	15	n/a	n/a	n/a	n/a	n/a	n/a	n/a	18	9	8	1	n/a	n/a	n/a	n/a	n/a
3456.356	n/a	PROB	1728178	n/a	LTP210	ltpFR	15	n/a	n/a	n/a	n/a	n/a	n/a	n/a	19	6	4	9	n/a	n/a	n/a	n/a	n/a
3457.654	n/a	PROB	1728827	n/a	LTP210	ltpFR	15	n/a	n/a	n/a	n/a	n/a	n/a	n/a	12	5	1	6	n/a	n/a	n/a	n/a	n/a
3459.06	n/a	PROB	1729530	n/a	LTP210	ltpFR	15	n/a	n/a	n/a	n/a	n/a	n/a	n/a	20	4	9	7	n/a	n/a	n/a	n/a	n/a
3461.302	n/a	PROB	1730651	n/a	LTP210	ltpFR	15	n/a	n/a	n/a	n/a	n/a	n/a	n/a	20	6	8	6	n/a	n/a	n/a	n/a	n/a
3463.504	n/a	STOP	1731752	n/a	LTP210	ltpFR	15	n/a	n/a	n/a	n/a	n/a	n/a	n/a	n/a	n/a	n/a	n/a	n/a	n/a	n/a	n/a	n/a
3465.434	n/a	WORD	1732717	wordpools/wasnorm_wordpool_less_exclusions.txt	LTP210	ltpFR	15	12	0	BONE	148	n/a	n/a	0	n/a	0	0	0	0.422607421875	0.5869140625	0	upper	amplitud.ttf
3468.446	n/a	START	1734223	n/a	LTP210	ltpFR	15	n/a	n/a	n/a	n/a	n/a	n/a	n/a	n/a	n/a	n/a	n/a	n/a	n/a	n/a	n/a	n/a
3469.472	n/a	PROB	1734736	n/a	LTP210	ltpFR	15	n/a	n/a	n/a	n/a	n/a	n/a	n/a	12	1	2	9	n/a	n/a	n/a	n/a	n/a
3470.626	n/a	PROB	1735313	n/a	LTP210	ltpFR	15	n/a	n/a	n/a	n/a	n/a	n/a	n/a	15	5	3	7	n/a	n/a	n/a	n/a	n/a
3472.276	n/a	PROB	1736138	n/a	LTP210	ltpFR	15	n/a	n/a	n/a	n/a	n/a	n/a	n/a	17	9	4	4	n/a	n/a	n/a	n/a	n/a
3473.884	n/a	PROB	1736942	n/a	LTP210	ltpFR	15	n/a	n/a	n/a	n/a	n/a	n/a	n/a	12	2	3	7	n/a	n/a	n/a	n/a	n/a
3475.212	n/a	PROB	1737606	n/a	LTP210	ltpFR	15	n/a	n/a	n/a	n/a	n/a	n/a	n/a	11	4	3	4	n/a	n/a	n/a	n/a	n/a
3477.012	n/a	PROB	1738506	n/a	LTP210	ltpFR	15	n/a	n/a	n/a	n/a	n/a	n/a	n/a	17	7	8	2	n/a	n/a	n/a	n/a	n/a
3478.416	n/a	PROB	1739208	n/a	LTP210	ltpFR	15	n/a	n/a	n/a	n/a	n/a	n/a	n/a	18	9	7	2	n/a	n/a	n/a	n/a	n/a
3480.676	n/a	PROB	1740338	n/a	LTP210	ltpFR	15	n/a	n/a	n/a	n/a	n/a	n/a	n/a	14	5	3	6	n/a	n/a	n/a	n/a	n/a
3483.698	n/a	STOP	1741849	n/a	LTP210	ltpFR	15	n/a	n/a	n/a	n/a	n/a	n/a	n/a	n/a	n/a	n/a	n/a	n/a	n/a	n/a	n/a	n/a
3485.568	n/a	WORD	1742784	wordpools/wasnorm_wordpool_less_exclusions.txt	LTP210	ltpFR	15	12	0	CALCULATOR	220	n/a	n/a	0	n/a	0	0	0	0.422607421875	0.5869140625	0	upper	amplitud.ttf
3488.58	n/a	START	1744290	n/a	LTP210	ltpFR	15	n/a	n/a	n/a	n/a	n/a	n/a	n/a	n/a	n/a	n/a	n/a	n/a	n/a	n/a	n/a	n/a
3489.684	n/a	PROB	1744842	n/a	LTP210	ltpFR	15	n/a	n/a	n/a	n/a	n/a	n/a	n/a	5	1	3	1	n/a	n/a	n/a	n/a	n/a
3490.906	n/a	PROB	1745453	n/a	LTP210	ltpFR	15	n/a	n/a	n/a	n/a	n/a	n/a	n/a	10	2	1	7	n/a	n/a	n/a	n/a	n/a
3492.572	n/a	PROB	1746286	n/a	LTP210	ltpFR	15	n/a	n/a	n/a	n/a	n/a	n/a	n/a	19	3	8	8	n/a	n/a	n/a	n/a	n/a
3494.278	n/a	PROB	1747139	n/a	LTP210	ltpFR	15	n/a	n/a	n/a	n/a	n/a	n/a	n/a	12	1	3	8	n/a	n/a	n/a	n/a	n/a
3495.784	n/a	PROB	1747892	n/a	LTP210	ltpFR	15	n/a	n/a	n/a	n/a	n/a	n/a	n/a	15	2	4	9	n/a	n/a	n/a	n/a	n/a
3498.25	n/a	PROB	1749125	n/a	LTP210	ltpFR	15	n/a	n/a	n/a	n/a	n/a	n/a	n/a	7	1	2	4	n/a	n/a	n/a	n/a	n/a
3499.598	n/a	PROB	1749799	n/a	LTP210	ltpFR	15	n/a	n/a	n/a	n/a	n/a	n/a	n/a	16	8	4	4	n/a	n/a	n/a	n/a	n/a
3501.222	n/a	PROB	1750611	n/a	LTP210	ltpFR	15	n/a	n/a	n/a	n/a	n/a	n/a	n/a	18	8	3	7	n/a	n/a	n/a	n/a	n/a
3502.5	n/a	PROB	1751250	n/a	LTP210	ltpFR	15	n/a	n/a	n/a	n/a	n/a	n/a	n/a	7	3	3	1	n/a	n/a	n/a	n/a	n/a
3504.036	n/a	STOP	1752018	n/a	LTP210	ltpFR	15	n/a	n/a	n/a	n/a	n/a	n/a	n/a	n/a	n/a	n/a	n/a	n/a	n/a	n/a	n/a	n/a
3505.78	n/a	WORD	1752890	wordpools/wasnorm_wordpool_less_exclusions.txt	LTP210	ltpFR	15	12	0	SHORTS	1293	n/a	n/a	0	n/a	0	0	0	0.422607421875	0.5869140625	0	upper	amplitud.ttf
3508.792	n/a	START	1754396	n/a	LTP210	ltpFR	15	n/a	n/a	n/a	n/a	n/a	n/a	n/a	n/a	n/a	n/a	n/a	n/a	n/a	n/a	n/a	n/a
3509.962	n/a	PROB	1754981	n/a	LTP210	ltpFR	15	n/a	n/a	n/a	n/a	n/a	n/a	n/a	15	6	6	3	n/a	n/a	n/a	n/a	n/a
3511.444	n/a	PROB	1755722	n/a	LTP210	ltpFR	15	n/a	n/a	n/a	n/a	n/a	n/a	n/a	25	8	9	8	n/a	n/a	n/a	n/a	n/a
3514.824	n/a	PROB	1757412	n/a	LTP210	ltpFR	15	n/a	n/a	n/a	n/a	n/a	n/a	n/a	16	5	9	2	n/a	n/a	n/a	n/a	n/a
3516.956	n/a	PROB	1758478	n/a	LTP210	ltpFR	15	n/a	n/a	n/a	n/a	n/a	n/a	n/a	15	4	9	2	n/a	n/a	n/a	n/a	n/a
3519.834	n/a	PROB	1759917	n/a	LTP210	ltpFR	15	n/a	n/a	n/a	n/a	n/a	n/a	n/a	18	7	4	7	n/a	n/a	n/a	n/a	n/a
