mstime	trial_type	stim_file	subject	experiment	session	trial	task	item_name	item_num	recog_conf	resp	color_b	color_g	color_r	case	font
0	SESS_START	n/a	LTP084	ltpFR	3	n/a	n/a	n/a	n/a	5	n/a	n/a	n/a	n/a	n/a	n/a
51550	WORD	wordpools/wasnorm_wordpool.txt	LTP084	ltpFR	3	1	1	HOOD	714	n/a	0	1	0.412841796875	0.57763671875	upper	../fonts/zerothre.ttf
55533	WORD	wordpools/wasnorm_wordpool.txt	LTP084	ltpFR	3	1	1	COAT	333	n/a	0	1	0.412841796875	0.57763671875	upper	../fonts/zerothre.ttf
59408	WORD	wordpools/wasnorm_wordpool.txt	LTP084	ltpFR	3	1	1	COLESLAW	344	n/a	0	1	0.412841796875	0.57763671875	upper	../fonts/zerothre.ttf
63507	WORD	wordpools/wasnorm_wordpool.txt	LTP084	ltpFR	3	1	1	TRANSPLANT	1496	n/a	0	1	0.412841796875	0.57763671875	upper	../fonts/zerothre.ttf
67465	WORD	wordpools/wasnorm_wordpool.txt	LTP084	ltpFR	3	1	0	KANGAROO	768	n/a	0	0	0.5869140625	0.422607421875	lower	../fonts/amplitud.ttf
71498	WORD	wordpools/wasnorm_wordpool.txt	LTP084	ltpFR	3	1	0	ANIMAL	23	n/a	0	0	0.5869140625	0.422607421875	lower	../fonts/amplitud.ttf
75640	WORD	wordpools/wasnorm_wordpool.txt	LTP084	ltpFR	3	1	0	NICKEL	950	n/a	0	0	0.5869140625	0.422607421875	lower	../fonts/amplitud.ttf
79498	WORD	wordpools/wasnorm_wordpool.txt	LTP084	ltpFR	3	1	0	CENT	270	n/a	0	0	0.5869140625	0.422607421875	lower	../fonts/amplitud.ttf
83673	WORD	wordpools/wasnorm_wordpool.txt	LTP084	ltpFR	3	1	1	YOKE	1632	n/a	0	1	0.412841796875	0.57763671875	upper	../fonts/zerothre.ttf
87847	WORD	wordpools/wasnorm_wordpool.txt	LTP084	ltpFR	3	1	1	SPIT	1354	n/a	0	1	0.412841796875	0.57763671875	upper	../fonts/zerothre.ttf
91780	WORD	wordpools/wasnorm_wordpool.txt	LTP084	ltpFR	3	1	0	SCROLL	1257	n/a	0	0	0.5869140625	0.422607421875	lower	../fonts/amplitud.ttf
95954	WORD	wordpools/wasnorm_wordpool.txt	LTP084	ltpFR	3	1	0	MATTRESS	879	n/a	0	0	0.5869140625	0.422607421875	lower	../fonts/amplitud.ttf
99912	WORD	wordpools/wasnorm_wordpool.txt	LTP084	ltpFR	3	1	0	CHILD	299	n/a	0	0	0.5869140625	0.422607421875	lower	../fonts/amplitud.ttf
104095	WORD	wordpools/wasnorm_wordpool.txt	LTP084	ltpFR	3	1	0	POLITICIAN	1099	n/a	0	0	0.5869140625	0.422607421875	lower	../fonts/amplitud.ttf
108254	WORD	wordpools/wasnorm_wordpool.txt	LTP084	ltpFR	3	1	1	LIP	828	n/a	0	1	0.412841796875	0.57763671875	upper	../fonts/zerothre.ttf
112078	WORD	wordpools/wasnorm_wordpool.txt	LTP084	ltpFR	3	1	1	NAPKIN	937	n/a	0	1	0.412841796875	0.57763671875	upper	../fonts/zerothre.ttf
117953	REC_START	n/a	LTP084	ltpFR	3	1	n/a	n/a	n/a	n/a	n/a	n/a	n/a	n/a	n/a	n/a
119010	REC_WORD	wordpools/wasnorm_wordpool.txt	LTP084	ltpFR	3	1	0	POLITICIAN	1099	n/a	0	n/a	n/a	n/a	n/a	n/a
120392	REC_WORD	wordpools/wasnorm_wordpool.txt	LTP084	ltpFR	3	1	1	NAPKIN	937	n/a	0	n/a	n/a	n/a	n/a	n/a
121420	REC_WORD	wordpools/wasnorm_wordpool.txt	LTP084	ltpFR	3	1	1	YOKE	1632	n/a	0	n/a	n/a	n/a	n/a	n/a
122268	REC_WORD	wordpools/wasnorm_wordpool.txt	LTP084	ltpFR	3	1	1	SPIT	1354	n/a	0	n/a	n/a	n/a	n/a	n/a
123525	REC_WORD	wordpools/wasnorm_wordpool.txt	LTP084	ltpFR	3	1	n/a	SQUIRREL	1362	n/a	n/a	n/a	n/a	n/a	n/a	n/a
125052	REC_WORD	wordpools/wasnorm_wordpool.txt	LTP084	ltpFR	3	1	0	CHILD	299	n/a	0	n/a	n/a	n/a	n/a	n/a
126049	REC_WORD	wordpools/wasnorm_wordpool.txt	LTP084	ltpFR	3	1	0	MATTRESS	879	n/a	0	n/a	n/a	n/a	n/a	n/a
127785	REC_WORD	wordpools/wasnorm_wordpool.txt	LTP084	ltpFR	3	1	0	NICKEL	950	n/a	0	n/a	n/a	n/a	n/a	n/a
128763	REC_WORD	wordpools/wasnorm_wordpool.txt	LTP084	ltpFR	3	1	0	CENT	270	n/a	0	n/a	n/a	n/a	n/a	n/a
130958	REC_WORD	wordpools/wasnorm_wordpool.txt	LTP084	ltpFR	3	1	1	HOOD	714	n/a	0	n/a	n/a	n/a	n/a	n/a
131996	REC_WORD	wordpools/wasnorm_wordpool.txt	LTP084	ltpFR	3	1	1	COLESLAW	344	n/a	0	n/a	n/a	n/a	n/a	n/a
157478	REC_WORD	wordpools/wasnorm_wordpool.txt	LTP084	ltpFR	3	1	0	ANIMAL	23	n/a	0	n/a	n/a	n/a	n/a	n/a
158396	REC_WORD	wordpools/wasnorm_wordpool.txt	LTP084	ltpFR	3	1	0	KANGAROO	768	n/a	0	n/a	n/a	n/a	n/a	n/a
204154	WORD	wordpools/wasnorm_wordpool.txt	LTP084	ltpFR	3	2	0	STREAM	1392	n/a	0	0	0.5869140625	0.422607421875	lower	../fonts/amplitud.ttf
208247	WORD	wordpools/wasnorm_wordpool.txt	LTP084	ltpFR	3	2	0	SALMON	1227	n/a	0	0	0.5869140625	0.422607421875	lower	../fonts/amplitud.ttf
212145	WORD	wordpools/wasnorm_wordpool.txt	LTP084	ltpFR	3	2	1	PICNIC	1060	n/a	0	1	0.412841796875	0.57763671875	upper	../fonts/zerothre.ttf
216053	WORD	wordpools/wasnorm_wordpool.txt	LTP084	ltpFR	3	2	1	MEAL	882	n/a	0	1	0.412841796875	0.57763671875	upper	../fonts/zerothre.ttf
219928	WORD	wordpools/wasnorm_wordpool.txt	LTP084	ltpFR	3	2	1	TRIBE	1505	n/a	0	1	0.412841796875	0.57763671875	upper	../fonts/zerothre.ttf
223894	WORD	wordpools/wasnorm_wordpool.txt	LTP084	ltpFR	3	2	1	FORT	595	n/a	0	1	0.412841796875	0.57763671875	upper	../fonts/zerothre.ttf
228044	WORD	wordpools/wasnorm_wordpool.txt	LTP084	ltpFR	3	2	1	TORCH	1484	n/a	0	1	0.412841796875	0.57763671875	upper	../fonts/zerothre.ttf
232220	WORD	wordpools/wasnorm_wordpool.txt	LTP084	ltpFR	3	2	1	LEOPARD	812	n/a	1	1	0.412841796875	0.57763671875	upper	../fonts/zerothre.ttf
236178	WORD	wordpools/wasnorm_wordpool.txt	LTP084	ltpFR	3	2	0	BLUEPRINT	142	n/a	0	0	0.5869140625	0.422607421875	lower	../fonts/amplitud.ttf
240102	WORD	wordpools/wasnorm_wordpool.txt	LTP084	ltpFR	3	2	0	FRECKLE	602	n/a	0	0	0.5869140625	0.422607421875	lower	../fonts/amplitud.ttf
244043	WORD	wordpools/wasnorm_wordpool.txt	LTP084	ltpFR	3	2	0	CACTUS	215	n/a	0	0	0.5869140625	0.422607421875	lower	../fonts/amplitud.ttf
247934	WORD	wordpools/wasnorm_wordpool.txt	LTP084	ltpFR	3	2	0	HAM	678	n/a	0	0	0.5869140625	0.422607421875	lower	../fonts/amplitud.ttf
251785	WORD	wordpools/wasnorm_wordpool.txt	LTP084	ltpFR	3	2	0	BRICK	172	n/a	0	0	0.5869140625	0.422607421875	lower	../fonts/amplitud.ttf
255776	WORD	wordpools/wasnorm_wordpool.txt	LTP084	ltpFR	3	2	0	MARROW	872	n/a	0	0	0.5869140625	0.422607421875	lower	../fonts/amplitud.ttf
259593	WORD	wordpools/wasnorm_wordpool.txt	LTP084	ltpFR	3	2	1	RIB	1188	n/a	0	1	0.412841796875	0.57763671875	upper	../fonts/zerothre.ttf
263426	WORD	wordpools/wasnorm_wordpool.txt	LTP084	ltpFR	3	2	1	FIREMAN	569	n/a	0	1	0.412841796875	0.57763671875	upper	../fonts/zerothre.ttf
269276	REC_START	n/a	LTP084	ltpFR	3	2	n/a	n/a	n/a	n/a	n/a	n/a	n/a	n/a	n/a	n/a
270398	REC_WORD	wordpools/wasnorm_wordpool.txt	LTP084	ltpFR	3	2	1	RIB	1188	n/a	0	n/a	n/a	n/a	n/a	n/a
272304	REC_WORD	wordpools/wasnorm_wordpool.txt	LTP084	ltpFR	3	2	1	FIREMAN	569	n/a	0	n/a	n/a	n/a	n/a	n/a
274479	REC_WORD	wordpools/wasnorm_wordpool.txt	LTP084	ltpFR	3	2	0	BRICK	172	n/a	0	n/a	n/a	n/a	n/a	n/a
276844	REC_WORD	wordpools/wasnorm_wordpool.txt	LTP084	ltpFR	3	2	0	BLUEPRINT	142	n/a	0	n/a	n/a	n/a	n/a	n/a
279388	REC_WORD	wordpools/wasnorm_wordpool.txt	LTP084	ltpFR	3	2	0	STREAM	1392	n/a	0	n/a	n/a	n/a	n/a	n/a
281523	REC_WORD	wordpools/wasnorm_wordpool.txt	LTP084	ltpFR	3	2	0	SALMON	1227	n/a	0	n/a	n/a	n/a	n/a	n/a
302141	REC_WORD	wordpools/wasnorm_wordpool.txt	LTP084	ltpFR	3	2	1	TRIBE	1505	n/a	0	n/a	n/a	n/a	n/a	n/a
303498	REC_WORD	wordpools/wasnorm_wordpool.txt	LTP084	ltpFR	3	2	1	FORT	595	n/a	0	n/a	n/a	n/a	n/a	n/a
306591	REC_WORD	wordpools/wasnorm_wordpool.txt	LTP084	ltpFR	3	2	1	PICNIC	1060	n/a	0	n/a	n/a	n/a	n/a	n/a
308013	REC_WORD	wordpools/wasnorm_wordpool.txt	LTP084	ltpFR	3	2	1	MEAL	882	n/a	0	n/a	n/a	n/a	n/a	n/a
316893	REC_WORD	wordpools/wasnorm_wordpool.txt	LTP084	ltpFR	3	2	0	HAM	678	n/a	0	n/a	n/a	n/a	n/a	n/a
320844	REC_WORD	wordpools/wasnorm_wordpool.txt	LTP084	ltpFR	3	2	0	FRECKLE	602	n/a	0	n/a	n/a	n/a	n/a	n/a
349228	WORD	wordpools/wasnorm_wordpool.txt	LTP084	ltpFR	3	3	0	BASEBALL	93	n/a	0	0	0.5869140625	0.422607421875	lower	../fonts/amplitud.ttf
353168	WORD	wordpools/wasnorm_wordpool.txt	LTP084	ltpFR	3	3	0	DEPUTY	450	n/a	0	0	0.5869140625	0.422607421875	lower	../fonts/amplitud.ttf
357060	WORD	wordpools/wasnorm_wordpool.txt	LTP084	ltpFR	3	3	0	OZONE	996	n/a	0	0	0.5869140625	0.422607421875	lower	../fonts/amplitud.ttf
360893	WORD	wordpools/wasnorm_wordpool.txt	LTP084	ltpFR	3	3	0	JAW	751	n/a	0	0	0.5869140625	0.422607421875	lower	../fonts/amplitud.ttf
364785	WORD	wordpools/wasnorm_wordpool.txt	LTP084	ltpFR	3	3	0	VAMPIRE	1547	n/a	0	0	0.5869140625	0.422607421875	lower	../fonts/amplitud.ttf
368693	WORD	wordpools/wasnorm_wordpool.txt	LTP084	ltpFR	3	3	0	SKI	1316	n/a	0	0	0.5869140625	0.422607421875	lower	../fonts/amplitud.ttf
372534	WORD	wordpools/wasnorm_wordpool.txt	LTP084	ltpFR	3	3	0	PREDATOR	1120	n/a	0	0	0.5869140625	0.422607421875	lower	../fonts/amplitud.ttf
376509	WORD	wordpools/wasnorm_wordpool.txt	LTP084	ltpFR	3	3	0	TOMATO	1476	n/a	0	0	0.5869140625	0.422607421875	lower	../fonts/amplitud.ttf
380509	WORD	wordpools/wasnorm_wordpool.txt	LTP084	ltpFR	3	3	0	FREEWAY	603	n/a	0	0	0.5869140625	0.422607421875	lower	../fonts/amplitud.ttf
384633	WORD	wordpools/wasnorm_wordpool.txt	LTP084	ltpFR	3	3	0	STREET	1393	n/a	0	0	0.5869140625	0.422607421875	lower	../fonts/amplitud.ttf
388733	WORD	wordpools/wasnorm_wordpool.txt	LTP084	ltpFR	3	3	0	CATCHER	258	n/a	0	0	0.5869140625	0.422607421875	lower	../fonts/amplitud.ttf
392666	WORD	wordpools/wasnorm_wordpool.txt	LTP084	ltpFR	3	3	0	CRAB	397	n/a	0	0	0.5869140625	0.422607421875	lower	../fonts/amplitud.ttf
396808	WORD	wordpools/wasnorm_wordpool.txt	LTP084	ltpFR	3	3	0	STAR	1373	n/a	n/a	0	0.5869140625	0.422607421875	lower	../fonts/amplitud.ttf
399832	SLOW_MSG	n/a	LTP084	ltpFR	3	3	n/a	n/a	n/a	n/a	n/a	n/a	n/a	n/a	n/a	n/a
402324	WORD	wordpools/wasnorm_wordpool.txt	LTP084	ltpFR	3	3	0	KETCHUP	771	n/a	0	0	0.5869140625	0.422607421875	lower	../fonts/amplitud.ttf
406465	WORD	wordpools/wasnorm_wordpool.txt	LTP084	ltpFR	3	3	0	CAR	241	n/a	0	0	0.5869140625	0.422607421875	lower	../fonts/amplitud.ttf
410448	WORD	wordpools/wasnorm_wordpool.txt	LTP084	ltpFR	3	3	0	PISTON	1076	n/a	0	0	0.5869140625	0.422607421875	lower	../fonts/amplitud.ttf
416147	REC_START	n/a	LTP084	ltpFR	3	3	n/a	n/a	n/a	n/a	n/a	n/a	n/a	n/a	n/a	n/a
417608	REC_WORD	wordpools/wasnorm_wordpool.txt	LTP084	ltpFR	3	3	0	STAR	1373	n/a	n/a	n/a	n/a	n/a	n/a	n/a
418861	REC_WORD	wordpools/wasnorm_wordpool.txt	LTP084	ltpFR	3	3	0	CAR	241	n/a	0	n/a	n/a	n/a	n/a	n/a
420083	REC_WORD	wordpools/wasnorm_wordpool.txt	LTP084	ltpFR	3	3	0	KETCHUP	771	n/a	0	n/a	n/a	n/a	n/a	n/a
421470	REC_WORD	wordpools/wasnorm_wordpool.txt	LTP084	ltpFR	3	3	0	PISTON	1076	n/a	0	n/a	n/a	n/a	n/a	n/a
423385	REC_WORD	wordpools/wasnorm_wordpool.txt	LTP084	ltpFR	3	3	0	FREEWAY	603	n/a	0	n/a	n/a	n/a	n/a	n/a
424772	REC_WORD	wordpools/wasnorm_wordpool.txt	LTP084	ltpFR	3	3	0	STREET	1393	n/a	0	n/a	n/a	n/a	n/a	n/a
427940	REC_WORD	wordpools/wasnorm_wordpool.txt	LTP084	ltpFR	3	3	0	CATCHER	258	n/a	0	n/a	n/a	n/a	n/a	n/a
429621	REC_WORD	wordpools/wasnorm_wordpool.txt	LTP084	ltpFR	3	3	0	BASEBALL	93	n/a	0	n/a	n/a	n/a	n/a	n/a
431627	REC_WORD	wordpools/wasnorm_wordpool.txt	LTP084	ltpFR	3	3	0	DEPUTY	450	n/a	0	n/a	n/a	n/a	n/a	n/a
440042	REC_WORD	wordpools/wasnorm_wordpool.txt	LTP084	ltpFR	3	3	0	CRAB	397	n/a	0	n/a	n/a	n/a	n/a	n/a
497907	WORD	wordpools/wasnorm_wordpool.txt	LTP084	ltpFR	3	4	-1	FIDDLE	561	n/a	-1	1	1.0	1.0	upper	../fonts/Verdana.ttf
501990	WORD	wordpools/wasnorm_wordpool.txt	LTP084	ltpFR	3	4	-1	CAFETERIA	217	n/a	-1	1	1.0	1.0	upper	../fonts/Verdana.ttf
505998	WORD	wordpools/wasnorm_wordpool.txt	LTP084	ltpFR	3	4	-1	PLANT	1083	n/a	-1	1	1.0	1.0	upper	../fonts/Verdana.ttf
509807	WORD	wordpools/wasnorm_wordpool.txt	LTP084	ltpFR	3	4	-1	TULIP	1517	n/a	-1	1	1.0	1.0	upper	../fonts/Verdana.ttf
513965	WORD	wordpools/wasnorm_wordpool.txt	LTP084	ltpFR	3	4	-1	WASHER	1592	n/a	-1	1	1.0	1.0	upper	../fonts/Verdana.ttf
517981	WORD	wordpools/wasnorm_wordpool.txt	LTP084	ltpFR	3	4	-1	LACE	792	n/a	-1	1	1.0	1.0	upper	../fonts/Verdana.ttf
521832	WORD	wordpools/wasnorm_wordpool.txt	LTP084	ltpFR	3	4	-1	RECIPE	1175	n/a	-1	1	1.0	1.0	upper	../fonts/Verdana.ttf
525740	WORD	wordpools/wasnorm_wordpool.txt	LTP084	ltpFR	3	4	-1	COOK	372	n/a	-1	1	1.0	1.0	upper	../fonts/Verdana.ttf
529681	WORD	wordpools/wasnorm_wordpool.txt	LTP084	ltpFR	3	4	-1	BUCKLE	185	n/a	-1	1	1.0	1.0	upper	../fonts/Verdana.ttf
533531	WORD	wordpools/wasnorm_wordpool.txt	LTP084	ltpFR	3	4	-1	TONGUE	1479	n/a	-1	1	1.0	1.0	upper	../fonts/Verdana.ttf
537564	WORD	wordpools/wasnorm_wordpool.txt	LTP084	ltpFR	3	4	-1	GARDEN	623	n/a	-1	1	1.0	1.0	upper	../fonts/Verdana.ttf
541555	WORD	wordpools/wasnorm_wordpool.txt	LTP084	ltpFR	3	4	-1	MOAT	903	n/a	-1	1	1.0	1.0	upper	../fonts/Verdana.ttf
545446	WORD	wordpools/wasnorm_wordpool.txt	LTP084	ltpFR	3	4	-1	BOAT	144	n/a	-1	1	1.0	1.0	upper	../fonts/Verdana.ttf
549605	WORD	wordpools/wasnorm_wordpool.txt	LTP084	ltpFR	3	4	-1	POPCORN	1104	n/a	-1	1	1.0	1.0	upper	../fonts/Verdana.ttf
553704	WORD	wordpools/wasnorm_wordpool.txt	LTP084	ltpFR	3	4	-1	RADIO	1157	n/a	-1	1	1.0	1.0	upper	../fonts/Verdana.ttf
557870	WORD	wordpools/wasnorm_wordpool.txt	LTP084	ltpFR	3	4	-1	DICTATOR	462	n/a	-1	1	1.0	1.0	upper	../fonts/Verdana.ttf
563729	REC_START	n/a	LTP084	ltpFR	3	4	n/a	n/a	n/a	n/a	n/a	n/a	n/a	n/a	n/a	n/a
568074	REC_WORD	wordpools/wasnorm_wordpool.txt	LTP084	ltpFR	3	4	-1	MOAT	903	n/a	-1	n/a	n/a	n/a	n/a	n/a
569765	REC_WORD	wordpools/wasnorm_wordpool.txt	LTP084	ltpFR	3	4	-1	BOAT	144	n/a	-1	n/a	n/a	n/a	n/a	n/a
571356	REC_WORD	wordpools/wasnorm_wordpool.txt	LTP084	ltpFR	3	4	-1	RADIO	1157	n/a	-1	n/a	n/a	n/a	n/a	n/a
572863	REC_WORD	wordpools/wasnorm_wordpool.txt	LTP084	ltpFR	3	4	-1	POPCORN	1104	n/a	-1	n/a	n/a	n/a	n/a	n/a
574380	REC_WORD	wordpools/wasnorm_wordpool.txt	LTP084	ltpFR	3	4	-1	DICTATOR	462	n/a	-1	n/a	n/a	n/a	n/a	n/a
576455	REC_WORD	wordpools/wasnorm_wordpool.txt	LTP084	ltpFR	3	4	-1	FIDDLE	561	n/a	-1	n/a	n/a	n/a	n/a	n/a
579388	REC_WORD	wordpools/wasnorm_wordpool.txt	LTP084	ltpFR	3	4	-1	CAFETERIA	217	n/a	-1	n/a	n/a	n/a	n/a	n/a
583509	REC_WORD	wordpools/wasnorm_wordpool.txt	LTP084	ltpFR	3	4	-1	RECIPE	1175	n/a	-1	n/a	n/a	n/a	n/a	n/a
585185	REC_WORD	wordpools/wasnorm_wordpool.txt	LTP084	ltpFR	3	4	-1	COOK	372	n/a	-1	n/a	n/a	n/a	n/a	n/a
586717	REC_WORD	wordpools/wasnorm_wordpool.txt	LTP084	ltpFR	3	4	-1	WASHER	1592	n/a	-1	n/a	n/a	n/a	n/a	n/a
588722	REC_WORD	wordpools/wasnorm_wordpool.txt	LTP084	ltpFR	3	4	-1	TONGUE	1479	n/a	-1	n/a	n/a	n/a	n/a	n/a
649038	WORD	wordpools/wasnorm_wordpool.txt	LTP084	ltpFR	3	5	1	CHAMPAGNE	278	n/a	0	1	0.412841796875	0.57763671875	upper	../fonts/zerothre.ttf
652888	WORD	wordpools/wasnorm_wordpool.txt	LTP084	ltpFR	3	5	1	HEART	697	n/a	1	1	0.412841796875	0.57763671875	upper	../fonts/zerothre.ttf
657046	WORD	wordpools/wasnorm_wordpool.txt	LTP084	ltpFR	3	5	1	DRESS	495	n/a	0	1	0.412841796875	0.57763671875	upper	../fonts/zerothre.ttf
661012	WORD	wordpools/wasnorm_wordpool.txt	LTP084	ltpFR	3	5	1	GLOVE	642	n/a	0	1	0.412841796875	0.57763671875	upper	../fonts/zerothre.ttf
665087	WORD	wordpools/wasnorm_wordpool.txt	LTP084	ltpFR	3	5	1	ARM	38	n/a	0	1	0.412841796875	0.57763671875	upper	../fonts/zerothre.ttf
669221	WORD	wordpools/wasnorm_wordpool.txt	LTP084	ltpFR	3	5	1	CHEST	295	n/a	0	1	0.412841796875	0.57763671875	upper	../fonts/zerothre.ttf
673295	WORD	wordpools/wasnorm_wordpool.txt	LTP084	ltpFR	3	5	1	BRUSH	182	n/a	0	1	0.412841796875	0.57763671875	upper	../fonts/zerothre.ttf
677403	WORD	wordpools/wasnorm_wordpool.txt	LTP084	ltpFR	3	5	1	PIGEON	1065	n/a	0	1	0.412841796875	0.57763671875	upper	../fonts/zerothre.ttf
681561	WORD	wordpools/wasnorm_wordpool.txt	LTP084	ltpFR	3	5	1	ROBIN	1199	n/a	0	1	0.412841796875	0.57763671875	upper	../fonts/zerothre.ttf
685411	WORD	wordpools/wasnorm_wordpool.txt	LTP084	ltpFR	3	5	1	SPY	1360	n/a	0	1	0.412841796875	0.57763671875	upper	../fonts/zerothre.ttf
689452	WORD	wordpools/wasnorm_wordpool.txt	LTP084	ltpFR	3	5	1	LAMP	798	n/a	0	1	0.412841796875	0.57763671875	upper	../fonts/zerothre.ttf
693527	WORD	wordpools/wasnorm_wordpool.txt	LTP084	ltpFR	3	5	1	SNEAKER	1334	n/a	0	1	0.412841796875	0.57763671875	upper	../fonts/zerothre.ttf
697377	WORD	wordpools/wasnorm_wordpool.txt	LTP084	ltpFR	3	5	1	ATLAS	53	n/a	0	1	0.412841796875	0.57763671875	upper	../fonts/zerothre.ttf
701277	WORD	wordpools/wasnorm_wordpool.txt	LTP084	ltpFR	3	5	1	AGENT	10	n/a	0	1	0.412841796875	0.57763671875	upper	../fonts/zerothre.ttf
705293	WORD	wordpools/wasnorm_wordpool.txt	LTP084	ltpFR	3	5	1	TROUSERS	1510	n/a	0	1	0.412841796875	0.57763671875	upper	../fonts/zerothre.ttf
709318	WORD	wordpools/wasnorm_wordpool.txt	LTP084	ltpFR	3	5	1	LUNG	850	n/a	0	1	0.412841796875	0.57763671875	upper	../fonts/zerothre.ttf
715251	REC_START	n/a	LTP084	ltpFR	3	5	n/a	n/a	n/a	n/a	n/a	n/a	n/a	n/a	n/a	n/a
716448	REC_WORD	wordpools/wasnorm_wordpool.txt	LTP084	ltpFR	3	5	1	AGENT	10	n/a	0	n/a	n/a	n/a	n/a	n/a
718104	REC_WORD	wordpools/wasnorm_wordpool.txt	LTP084	ltpFR	3	5	1	TROUSERS	1510	n/a	0	n/a	n/a	n/a	n/a	n/a
720584	REC_WORD	wordpools/wasnorm_wordpool.txt	LTP084	ltpFR	3	5	1	LUNG	850	n/a	0	n/a	n/a	n/a	n/a	n/a
721961	REC_WORD	wordpools/wasnorm_wordpool.txt	LTP084	ltpFR	3	5	1	ARM	38	n/a	0	n/a	n/a	n/a	n/a	n/a
723357	REC_WORD	wordpools/wasnorm_wordpool.txt	LTP084	ltpFR	3	5	1	HEART	697	n/a	1	n/a	n/a	n/a	n/a	n/a
724704	REC_WORD	wordpools/wasnorm_wordpool.txt	LTP084	ltpFR	3	5	1	CHEST	295	n/a	0	n/a	n/a	n/a	n/a	n/a
726810	REC_WORD	wordpools/wasnorm_wordpool.txt	LTP084	ltpFR	3	5	1	GLOVE	642	n/a	0	n/a	n/a	n/a	n/a	n/a
734791	REC_WORD	wordpools/wasnorm_wordpool.txt	LTP084	ltpFR	3	5	-1	LACE	792	n/a	-1	n/a	n/a	n/a	n/a	n/a
744839	REC_WORD	wordpools/wasnorm_wordpool.txt	LTP084	ltpFR	3	5	1	CHAMPAGNE	278	n/a	0	n/a	n/a	n/a	n/a	n/a
794977	WORD	wordpools/wasnorm_wordpool.txt	LTP084	ltpFR	3	6	0	RAILROAD	1162	n/a	0	0	0.5869140625	0.422607421875	lower	../fonts/amplitud.ttf
799143	WORD	wordpools/wasnorm_wordpool.txt	LTP084	ltpFR	3	6	0	BEDROOM	111	n/a	0	0	0.5869140625	0.422607421875	lower	../fonts/amplitud.ttf
803261	WORD	wordpools/wasnorm_wordpool.txt	LTP084	ltpFR	3	6	0	KEYBOARD	774	n/a	0	0	0.5869140625	0.422607421875	lower	../fonts/amplitud.ttf
807126	WORD	wordpools/wasnorm_wordpool.txt	LTP084	ltpFR	3	6	0	CLAY	320	n/a	0	0	0.5869140625	0.422607421875	lower	../fonts/amplitud.ttf
811067	WORD	wordpools/wasnorm_wordpool.txt	LTP084	ltpFR	3	6	0	PAINT	1003	n/a	0	0	0.5869140625	0.422607421875	lower	../fonts/amplitud.ttf
814950	WORD	wordpools/wasnorm_wordpool.txt	LTP084	ltpFR	3	6	0	ROBOT	1200	n/a	0	0	0.5869140625	0.422607421875	lower	../fonts/amplitud.ttf
818975	WORD	wordpools/wasnorm_wordpool.txt	LTP084	ltpFR	3	6	0	PORCH	1106	n/a	0	0	0.5869140625	0.422607421875	lower	../fonts/amplitud.ttf
822975	WORD	wordpools/wasnorm_wordpool.txt	LTP084	ltpFR	3	6	0	ADULT	8	n/a	0	0	0.5869140625	0.422607421875	lower	../fonts/amplitud.ttf
827150	WORD	wordpools/wasnorm_wordpool.txt	LTP084	ltpFR	3	6	0	OATMEAL	967	n/a	0	0	0.5869140625	0.422607421875	lower	../fonts/amplitud.ttf
831033	WORD	wordpools/wasnorm_wordpool.txt	LTP084	ltpFR	3	6	0	HAND	683	n/a	0	0	0.5869140625	0.422607421875	lower	../fonts/amplitud.ttf
835200	WORD	wordpools/wasnorm_wordpool.txt	LTP084	ltpFR	3	6	0	CANDLE	229	n/a	0	0	0.5869140625	0.422607421875	lower	../fonts/amplitud.ttf
839090	WORD	wordpools/wasnorm_wordpool.txt	LTP084	ltpFR	3	6	0	BUTTER	205	n/a	0	0	0.5869140625	0.422607421875	lower	../fonts/amplitud.ttf
843057	WORD	wordpools/wasnorm_wordpool.txt	LTP084	ltpFR	3	6	0	BISCUIT	130	n/a	0	0	0.5869140625	0.422607421875	lower	../fonts/amplitud.ttf
847123	WORD	wordpools/wasnorm_wordpool.txt	LTP084	ltpFR	3	6	0	TRAY	1498	n/a	0	0	0.5869140625	0.422607421875	lower	../fonts/amplitud.ttf
851139	WORD	wordpools/wasnorm_wordpool.txt	LTP084	ltpFR	3	6	0	CRATER	400	n/a	0	0	0.5869140625	0.422607421875	lower	../fonts/amplitud.ttf
855323	WORD	wordpools/wasnorm_wordpool.txt	LTP084	ltpFR	3	6	0	DIGGER	464	n/a	0	0	0.5869140625	0.422607421875	lower	../fonts/amplitud.ttf
860898	REC_START	n/a	LTP084	ltpFR	3	6	n/a	n/a	n/a	n/a	n/a	n/a	n/a	n/a	n/a	n/a
861521	REC_WORD	wordpools/wasnorm_wordpool.txt	LTP084	ltpFR	3	6	0	CRATER	400	n/a	0	n/a	n/a	n/a	n/a	n/a
862898	REC_WORD	wordpools/wasnorm_wordpool.txt	LTP084	ltpFR	3	6	0	DIGGER	464	n/a	0	n/a	n/a	n/a	n/a	n/a
863876	REC_WORD	wordpools/wasnorm_wordpool.txt	LTP084	ltpFR	3	6	0	TRAY	1498	n/a	0	n/a	n/a	n/a	n/a	n/a
865682	REC_WORD	wordpools/wasnorm_wordpool.txt	LTP084	ltpFR	3	6	0	CLAY	320	n/a	0	n/a	n/a	n/a	n/a	n/a
867398	REC_WORD	wordpools/wasnorm_wordpool.txt	LTP084	ltpFR	3	6	0	BUTTER	205	n/a	0	n/a	n/a	n/a	n/a	n/a
868895	REC_WORD	wordpools/wasnorm_wordpool.txt	LTP084	ltpFR	3	6	0	BISCUIT	130	n/a	0	n/a	n/a	n/a	n/a	n/a
870591	REC_WORD	wordpools/wasnorm_wordpool.txt	LTP084	ltpFR	3	6	0	OATMEAL	967	n/a	0	n/a	n/a	n/a	n/a	n/a
871968	REC_WORD	wordpools/wasnorm_wordpool.txt	LTP084	ltpFR	3	6	0	ADULT	8	n/a	0	n/a	n/a	n/a	n/a	n/a
891274	REC_WORD	wordpools/wasnorm_wordpool.txt	LTP084	ltpFR	3	6	0	RAILROAD	1162	n/a	0	n/a	n/a	n/a	n/a	n/a
911079	REC_WORD	wordpools/wasnorm_wordpool.txt	LTP084	ltpFR	3	6	0	CANDLE	229	n/a	0	n/a	n/a	n/a	n/a	n/a
940492	WORD	wordpools/wasnorm_wordpool.txt	LTP084	ltpFR	3	7	1	PAGE	1001	n/a	2	1	0.412841796875	0.57763671875	upper	../fonts/zerothre.ttf
941659	KEY_MSG	n/a	LTP084	ltpFR	3	7	n/a	n/a	n/a	n/a	n/a	n/a	n/a	n/a	n/a	n/a
944367	WORD	wordpools/wasnorm_wordpool.txt	LTP084	ltpFR	3	7	1	INCENSE	735	n/a	0	1	0.412841796875	0.57763671875	upper	../fonts/zerothre.ttf
948425	WORD	wordpools/wasnorm_wordpool.txt	LTP084	ltpFR	3	7	0	PICKLE	1059	n/a	0	0	0.5869140625	0.422607421875	lower	../fonts/amplitud.ttf
952283	WORD	wordpools/wasnorm_wordpool.txt	LTP084	ltpFR	3	7	0	RAFT	1159	n/a	0	0	0.5869140625	0.422607421875	lower	../fonts/amplitud.ttf
956391	WORD	wordpools/wasnorm_wordpool.txt	LTP084	ltpFR	3	7	0	VOLUNTEER	1577	n/a	0	0	0.5869140625	0.422607421875	lower	../fonts/amplitud.ttf
960324	WORD	wordpools/wasnorm_wordpool.txt	LTP084	ltpFR	3	7	0	POWDER	1117	n/a	0	0	0.5869140625	0.422607421875	lower	../fonts/amplitud.ttf
964148	WORD	wordpools/wasnorm_wordpool.txt	LTP084	ltpFR	3	7	0	STAPLE	1371	n/a	0	0	0.5869140625	0.422607421875	lower	../fonts/amplitud.ttf
968232	WORD	wordpools/wasnorm_wordpool.txt	LTP084	ltpFR	3	7	1	ALMANAC	17	n/a	0	1	0.412841796875	0.57763671875	upper	../fonts/zerothre.ttf
972055	WORD	wordpools/wasnorm_wordpool.txt	LTP084	ltpFR	3	7	1	SCREEN	1253	n/a	0	1	0.412841796875	0.57763671875	upper	../fonts/zerothre.ttf
976155	WORD	wordpools/wasnorm_wordpool.txt	LTP084	ltpFR	3	7	1	VIKING	1565	n/a	0	1	0.412841796875	0.57763671875	upper	../fonts/zerothre.ttf
980339	WORD	wordpools/wasnorm_wordpool.txt	LTP084	ltpFR	3	7	1	CASKET	255	n/a	0	1	0.412841796875	0.57763671875	upper	../fonts/zerothre.ttf
984172	WORD	wordpools/wasnorm_wordpool.txt	LTP084	ltpFR	3	7	0	POISON	1096	n/a	0	0	0.5869140625	0.422607421875	lower	../fonts/amplitud.ttf
988172	WORD	wordpools/wasnorm_wordpool.txt	LTP084	ltpFR	3	7	0	DELINQUENT	445	n/a	0	0	0.5869140625	0.422607421875	lower	../fonts/amplitud.ttf
992255	WORD	wordpools/wasnorm_wordpool.txt	LTP084	ltpFR	3	7	0	TEENAGER	1444	n/a	0	0	0.5869140625	0.422607421875	lower	../fonts/amplitud.ttf
996396	WORD	wordpools/wasnorm_wordpool.txt	LTP084	ltpFR	3	7	1	BOYFRIEND	162	n/a	0	1	0.412841796875	0.57763671875	upper	../fonts/zerothre.ttf
1000588	WORD	wordpools/wasnorm_wordpool.txt	LTP084	ltpFR	3	7	1	AUDIENCE	59	n/a	0	1	0.412841796875	0.57763671875	upper	../fonts/zerothre.ttf
1006346	REC_START	n/a	LTP084	ltpFR	3	7	n/a	n/a	n/a	n/a	n/a	n/a	n/a	n/a	n/a	n/a
1007648	REC_WORD	wordpools/wasnorm_wordpool.txt	LTP084	ltpFR	3	7	1	BOYFRIEND	162	n/a	0	n/a	n/a	n/a	n/a	n/a
1008925	REC_WORD	wordpools/wasnorm_wordpool.txt	LTP084	ltpFR	3	7	1	AUDIENCE	59	n/a	0	n/a	n/a	n/a	n/a	n/a
1010621	REC_WORD	wordpools/wasnorm_wordpool.txt	LTP084	ltpFR	3	7	1	CASKET	255	n/a	0	n/a	n/a	n/a	n/a	n/a
1013265	REC_WORD	wordpools/wasnorm_wordpool.txt	LTP084	ltpFR	3	7	1	INCENSE	735	n/a	0	n/a	n/a	n/a	n/a	n/a
1016099	REC_WORD	wordpools/wasnorm_wordpool.txt	LTP084	ltpFR	3	7	0	DELINQUENT	445	n/a	0	n/a	n/a	n/a	n/a	n/a
1018139	REC_WORD	wordpools/wasnorm_wordpool.txt	LTP084	ltpFR	3	7	0	TEENAGER	1444	n/a	0	n/a	n/a	n/a	n/a	n/a
1047363	REC_WORD	wordpools/wasnorm_wordpool.txt	LTP084	ltpFR	3	7	1	ALMANAC	17	n/a	0	n/a	n/a	n/a	n/a	n/a
1050595	REC_WORD	wordpools/wasnorm_wordpool.txt	LTP084	ltpFR	3	7	0	PICKLE	1059	n/a	0	n/a	n/a	n/a	n/a	n/a
1070271	REC_WORD	wordpools/wasnorm_wordpool.txt	LTP084	ltpFR	3	7	1	AUDIENCE	59	n/a	0	n/a	n/a	n/a	n/a	n/a
1085523	WORD	wordpools/wasnorm_wordpool.txt	LTP084	ltpFR	3	8	1	MONEY	908	n/a	0	1	0.412841796875	0.57763671875	upper	../fonts/zerothre.ttf
1089423	WORD	wordpools/wasnorm_wordpool.txt	LTP084	ltpFR	3	8	1	SHOULDER	1294	n/a	0	1	0.412841796875	0.57763671875	upper	../fonts/zerothre.ttf
1093397	WORD	wordpools/wasnorm_wordpool.txt	LTP084	ltpFR	3	8	0	CROOK	412	n/a	0	0	0.5869140625	0.422607421875	lower	../fonts/amplitud.ttf
1097514	WORD	wordpools/wasnorm_wordpool.txt	LTP084	ltpFR	3	8	0	INMATE	738	n/a	0	0	0.5869140625	0.422607421875	lower	../fonts/amplitud.ttf
1101497	WORD	wordpools/wasnorm_wordpool.txt	LTP084	ltpFR	3	8	0	COUNTY	389	n/a	0	0	0.5869140625	0.422607421875	lower	../fonts/amplitud.ttf
1105546	WORD	wordpools/wasnorm_wordpool.txt	LTP084	ltpFR	3	8	0	BUN	197	n/a	0	0	0.5869140625	0.422607421875	lower	../fonts/amplitud.ttf
1109529	WORD	wordpools/wasnorm_wordpool.txt	LTP084	ltpFR	3	8	1	CRUMB	416	n/a	0	1	0.412841796875	0.57763671875	upper	../fonts/zerothre.ttf
1113571	WORD	wordpools/wasnorm_wordpool.txt	LTP084	ltpFR	3	8	1	GOVERNOR	651	n/a	0	1	0.412841796875	0.57763671875	upper	../fonts/zerothre.ttf
1117729	WORD	wordpools/wasnorm_wordpool.txt	LTP084	ltpFR	3	8	1	FOOT	590	n/a	0	1	0.412841796875	0.57763671875	upper	../fonts/zerothre.ttf
1121795	WORD	wordpools/wasnorm_wordpool.txt	LTP084	ltpFR	3	8	1	PICK	1058	n/a	0	1	0.412841796875	0.57763671875	upper	../fonts/zerothre.ttf
1125986	WORD	wordpools/wasnorm_wordpool.txt	LTP084	ltpFR	3	8	1	COIN	343	n/a	0	1	0.412841796875	0.57763671875	upper	../fonts/zerothre.ttf
1130044	WORD	wordpools/wasnorm_wordpool.txt	LTP084	ltpFR	3	8	1	FAUCET	555	n/a	0	1	0.412841796875	0.57763671875	upper	../fonts/zerothre.ttf
1134203	WORD	wordpools/wasnorm_wordpool.txt	LTP084	ltpFR	3	8	0	HERD	705	n/a	0	0	0.5869140625	0.422607421875	lower	../fonts/amplitud.ttf
1138026	WORD	wordpools/wasnorm_wordpool.txt	LTP084	ltpFR	3	8	0	ACROBAT	4	n/a	0	0	0.5869140625	0.422607421875	lower	../fonts/amplitud.ttf
1141934	WORD	wordpools/wasnorm_wordpool.txt	LTP084	ltpFR	3	8	0	CREAM	402	n/a	0	0	0.5869140625	0.422607421875	lower	../fonts/amplitud.ttf
1145794	WORD	wordpools/wasnorm_wordpool.txt	LTP084	ltpFR	3	8	0	GLACIER	638	n/a	0	0	0.5869140625	0.422607421875	lower	../fonts/amplitud.ttf
1151510	REC_START	n/a	LTP084	ltpFR	3	8	n/a	n/a	n/a	n/a	n/a	n/a	n/a	n/a	n/a	n/a
1152183	REC_WORD	wordpools/wasnorm_wordpool.txt	LTP084	ltpFR	3	8	0	HERD	705	n/a	0	n/a	n/a	n/a	n/a	n/a
1153251	REC_WORD	wordpools/wasnorm_wordpool.txt	LTP084	ltpFR	3	8	0	ACROBAT	4	n/a	0	n/a	n/a	n/a	n/a	n/a
1154777	REC_WORD	wordpools/wasnorm_wordpool.txt	LTP084	ltpFR	3	8	0	CREAM	402	n/a	0	n/a	n/a	n/a	n/a	n/a
1156154	REC_WORD	wordpools/wasnorm_wordpool.txt	LTP084	ltpFR	3	8	0	GLACIER	638	n/a	0	n/a	n/a	n/a	n/a	n/a
1157995	REC_WORD	wordpools/wasnorm_wordpool.txt	LTP084	ltpFR	3	8	1	MONEY	908	n/a	0	n/a	n/a	n/a	n/a	n/a
1159377	REC_WORD	wordpools/wasnorm_wordpool.txt	LTP084	ltpFR	3	8	1	SHOULDER	1294	n/a	0	n/a	n/a	n/a	n/a	n/a
1161003	REC_WORD	wordpools/wasnorm_wordpool.txt	LTP084	ltpFR	3	8	0	CROOK	412	n/a	0	n/a	n/a	n/a	n/a	n/a
1162570	REC_WORD	wordpools/wasnorm_wordpool.txt	LTP084	ltpFR	3	8	0	INMATE	738	n/a	0	n/a	n/a	n/a	n/a	n/a
1165518	REC_WORD	wordpools/wasnorm_wordpool.txt	LTP084	ltpFR	3	8	1	GOVERNOR	651	n/a	0	n/a	n/a	n/a	n/a	n/a
1166790	REC_WORD	wordpools/wasnorm_wordpool.txt	LTP084	ltpFR	3	8	1	FOOT	590	n/a	0	n/a	n/a	n/a	n/a	n/a
1168711	REC_WORD	wordpools/wasnorm_wordpool.txt	LTP084	ltpFR	3	8	1	PICK	1058	n/a	0	n/a	n/a	n/a	n/a	n/a
1170547	REC_WORD	wordpools/wasnorm_wordpool.txt	LTP084	ltpFR	3	8	1	COIN	343	n/a	0	n/a	n/a	n/a	n/a	n/a
1231053	WORD	wordpools/wasnorm_wordpool.txt	LTP084	ltpFR	3	9	0	TOASTER	1472	n/a	0	0	0.5869140625	0.422607421875	lower	../fonts/amplitud.ttf
1235086	WORD	wordpools/wasnorm_wordpool.txt	LTP084	ltpFR	3	9	0	SATURN	1236	n/a	0	0	0.5869140625	0.422607421875	lower	../fonts/amplitud.ttf
1239211	WORD	wordpools/wasnorm_wordpool.txt	LTP084	ltpFR	3	9	0	HONEY	713	n/a	0	0	0.5869140625	0.422607421875	lower	../fonts/amplitud.ttf
1243253	WORD	wordpools/wasnorm_wordpool.txt	LTP084	ltpFR	3	9	1	BEET	115	n/a	0	1	0.412841796875	0.57763671875	upper	../fonts/zerothre.ttf
1247118	WORD	wordpools/wasnorm_wordpool.txt	LTP084	ltpFR	3	9	1	BROOM	178	n/a	0	1	0.412841796875	0.57763671875	upper	../fonts/zerothre.ttf
1251244	WORD	wordpools/wasnorm_wordpool.txt	LTP084	ltpFR	3	9	1	CLIFF	322	n/a	0	1	0.412841796875	0.57763671875	upper	../fonts/zerothre.ttf
1255177	WORD	wordpools/wasnorm_wordpool.txt	LTP084	ltpFR	3	9	1	BRIDGE	174	n/a	0	1	0.412841796875	0.57763671875	upper	../fonts/zerothre.ttf
1259126	WORD	wordpools/wasnorm_wordpool.txt	LTP084	ltpFR	3	9	0	STEAM	1375	n/a	0	0	0.5869140625	0.422607421875	lower	../fonts/amplitud.ttf
1262959	WORD	wordpools/wasnorm_wordpool.txt	LTP084	ltpFR	3	9	0	COYOTE	396	n/a	0	0	0.5869140625	0.422607421875	lower	../fonts/amplitud.ttf
1266843	WORD	wordpools/wasnorm_wordpool.txt	LTP084	ltpFR	3	9	0	MOOSE	915	n/a	0	0	0.5869140625	0.422607421875	lower	../fonts/amplitud.ttf
1270966	WORD	wordpools/wasnorm_wordpool.txt	LTP084	ltpFR	3	9	0	TOWEL	1489	n/a	0	0	0.5869140625	0.422607421875	lower	../fonts/amplitud.ttf
1274834	WORD	wordpools/wasnorm_wordpool.txt	LTP084	ltpFR	3	9	0	SMOG	1330	n/a	0	0	0.5869140625	0.422607421875	lower	../fonts/amplitud.ttf
1278916	WORD	wordpools/wasnorm_wordpool.txt	LTP084	ltpFR	3	9	1	MONKEY	911	n/a	0	1	0.412841796875	0.57763671875	upper	../fonts/zerothre.ttf
1282733	WORD	wordpools/wasnorm_wordpool.txt	LTP084	ltpFR	3	9	1	GORILLA	650	n/a	0	1	0.412841796875	0.57763671875	upper	../fonts/zerothre.ttf
1286741	WORD	wordpools/wasnorm_wordpool.txt	LTP084	ltpFR	3	9	1	LETTUCE	814	n/a	0	1	0.412841796875	0.57763671875	upper	../fonts/zerothre.ttf
1290633	WORD	wordpools/wasnorm_wordpool.txt	LTP084	ltpFR	3	9	1	BEE	112	n/a	0	1	0.412841796875	0.57763671875	upper	../fonts/zerothre.ttf
1296366	REC_START	n/a	LTP084	ltpFR	3	9	n/a	n/a	n/a	n/a	n/a	n/a	n/a	n/a	n/a	n/a
1297021	REC_WORD	wordpools/wasnorm_wordpool.txt	LTP084	ltpFR	3	9	1	MONKEY	911	n/a	0	n/a	n/a	n/a	n/a	n/a
1298137	REC_WORD	wordpools/wasnorm_wordpool.txt	LTP084	ltpFR	3	9	1	GORILLA	650	n/a	0	n/a	n/a	n/a	n/a	n/a
1299319	REC_WORD	wordpools/wasnorm_wordpool.txt	LTP084	ltpFR	3	9	1	LETTUCE	814	n/a	0	n/a	n/a	n/a	n/a	n/a
1300651	REC_WORD	wordpools/wasnorm_wordpool.txt	LTP084	ltpFR	3	9	1	BEE	112	n/a	0	n/a	n/a	n/a	n/a	n/a
1302257	REC_WORD	wordpools/wasnorm_wordpool.txt	LTP084	ltpFR	3	9	0	COYOTE	396	n/a	0	n/a	n/a	n/a	n/a	n/a
1303305	REC_WORD	wordpools/wasnorm_wordpool.txt	LTP084	ltpFR	3	9	0	STEAM	1375	n/a	0	n/a	n/a	n/a	n/a	n/a
1305181	REC_WORD	wordpools/wasnorm_wordpool.txt	LTP084	ltpFR	3	9	0	MOOSE	915	n/a	0	n/a	n/a	n/a	n/a	n/a
1311596	REC_WORD	wordpools/wasnorm_wordpool.txt	LTP084	ltpFR	3	9	0	HONEY	713	n/a	0	n/a	n/a	n/a	n/a	n/a
1375260	WORD	wordpools/wasnorm_wordpool.txt	LTP084	ltpFR	3	10	1	CRIMINAL	409	n/a	0	1	0.412841796875	0.57763671875	upper	../fonts/zerothre.ttf
1379193	WORD	wordpools/wasnorm_wordpool.txt	LTP084	ltpFR	3	10	1	KING	777	n/a	0	1	0.412841796875	0.57763671875	upper	../fonts/zerothre.ttf
1383209	WORD	wordpools/wasnorm_wordpool.txt	LTP084	ltpFR	3	10	1	RASPBERRY	1168	n/a	0	1	0.412841796875	0.57763671875	upper	../fonts/zerothre.ttf
1387049	WORD	wordpools/wasnorm_wordpool.txt	LTP084	ltpFR	3	10	1	PLUM	1090	n/a	0	1	0.412841796875	0.57763671875	upper	../fonts/zerothre.ttf
1390883	WORD	wordpools/wasnorm_wordpool.txt	LTP084	ltpFR	3	10	1	GARLIC	624	n/a	0	1	0.412841796875	0.57763671875	upper	../fonts/zerothre.ttf
1395024	WORD	wordpools/wasnorm_wordpool.txt	LTP084	ltpFR	3	10	1	BAKER	71	n/a	0	1	0.412841796875	0.57763671875	upper	../fonts/zerothre.ttf
1398924	WORD	wordpools/wasnorm_wordpool.txt	LTP084	ltpFR	3	10	1	MISTER	901	n/a	1	1	0.412841796875	0.57763671875	upper	../fonts/zerothre.ttf
1402774	WORD	wordpools/wasnorm_wordpool.txt	LTP084	ltpFR	3	10	1	MUFFIN	929	n/a	0	1	0.412841796875	0.57763671875	upper	../fonts/zerothre.ttf
1406766	WORD	wordpools/wasnorm_wordpool.txt	LTP084	ltpFR	3	10	1	WINE	1613	n/a	0	1	0.412841796875	0.57763671875	upper	../fonts/zerothre.ttf
1410824	WORD	wordpools/wasnorm_wordpool.txt	LTP084	ltpFR	3	10	1	COCKTAIL	338	n/a	0	1	0.412841796875	0.57763671875	upper	../fonts/zerothre.ttf
1414732	WORD	wordpools/wasnorm_wordpool.txt	LTP084	ltpFR	3	10	1	ELM	527	n/a	0	1	0.412841796875	0.57763671875	upper	../fonts/zerothre.ttf
1418740	WORD	wordpools/wasnorm_wordpool.txt	LTP084	ltpFR	3	10	1	BARLEY	88	n/a	0	1	0.412841796875	0.57763671875	upper	../fonts/zerothre.ttf
1422598	WORD	wordpools/wasnorm_wordpool.txt	LTP084	ltpFR	3	10	1	PRINCESS	1125	n/a	0	1	0.412841796875	0.57763671875	upper	../fonts/zerothre.ttf
1426623	WORD	wordpools/wasnorm_wordpool.txt	LTP084	ltpFR	3	10	1	LILY	821	n/a	0	1	0.412841796875	0.57763671875	upper	../fonts/zerothre.ttf
1430597	WORD	wordpools/wasnorm_wordpool.txt	LTP084	ltpFR	3	10	1	PRISONER	1128	n/a	0	1	0.412841796875	0.57763671875	upper	../fonts/zerothre.ttf
1434730	WORD	wordpools/wasnorm_wordpool.txt	LTP084	ltpFR	3	10	1	JAR	750	n/a	0	1	0.412841796875	0.57763671875	upper	../fonts/zerothre.ttf
1440764	REC_START	n/a	LTP084	ltpFR	3	10	n/a	n/a	n/a	n/a	n/a	n/a	n/a	n/a	n/a	n/a
1441757	REC_WORD	wordpools/wasnorm_wordpool.txt	LTP084	ltpFR	3	10	1	CRIMINAL	409	n/a	0	n/a	n/a	n/a	n/a	n/a
1442949	REC_WORD	wordpools/wasnorm_wordpool.txt	LTP084	ltpFR	3	10	1	KING	777	n/a	0	n/a	n/a	n/a	n/a	n/a
1444640	REC_WORD	wordpools/wasnorm_wordpool.txt	LTP084	ltpFR	3	10	1	GARLIC	624	n/a	0	n/a	n/a	n/a	n/a	n/a
1445907	REC_WORD	wordpools/wasnorm_wordpool.txt	LTP084	ltpFR	3	10	1	BARLEY	88	n/a	0	n/a	n/a	n/a	n/a	n/a
1448791	REC_WORD	wordpools/wasnorm_wordpool.txt	LTP084	ltpFR	3	10	1	BAKER	71	n/a	0	n/a	n/a	n/a	n/a	n/a
1450267	REC_WORD	wordpools/wasnorm_wordpool.txt	LTP084	ltpFR	3	10	1	MUFFIN	929	n/a	0	n/a	n/a	n/a	n/a	n/a
1452352	REC_WORD	wordpools/wasnorm_wordpool.txt	LTP084	ltpFR	3	10	1	MISTER	901	n/a	1	n/a	n/a	n/a	n/a	n/a
1454328	REC_WORD	wordpools/wasnorm_wordpool.txt	LTP084	ltpFR	3	10	1	JAR	750	n/a	0	n/a	n/a	n/a	n/a	n/a
1456254	REC_WORD	wordpools/wasnorm_wordpool.txt	LTP084	ltpFR	3	10	1	PRINCESS	1125	n/a	0	n/a	n/a	n/a	n/a	n/a
1485652	REC_WORD	wordpools/wasnorm_wordpool.txt	LTP084	ltpFR	3	10	1	RASPBERRY	1168	n/a	0	n/a	n/a	n/a	n/a	n/a
1487183	REC_WORD	wordpools/wasnorm_wordpool.txt	LTP084	ltpFR	3	10	1	PLUM	1090	n/a	0	n/a	n/a	n/a	n/a	n/a
1488934	REC_WORD	wordpools/wasnorm_wordpool.txt	LTP084	ltpFR	3	10	1	WINE	1613	n/a	0	n/a	n/a	n/a	n/a	n/a
1490097	REC_WORD	wordpools/wasnorm_wordpool.txt	LTP084	ltpFR	3	10	1	COCKTAIL	338	n/a	0	n/a	n/a	n/a	n/a	n/a
1521090	WORD	wordpools/wasnorm_wordpool.txt	LTP084	ltpFR	3	11	-1	STAFF	1365	n/a	-1	1	1.0	1.0	upper	../fonts/Verdana.ttf
1525048	WORD	wordpools/wasnorm_wordpool.txt	LTP084	ltpFR	3	11	-1	CAFE	216	n/a	-1	1	1.0	1.0	upper	../fonts/Verdana.ttf
1529190	WORD	wordpools/wasnorm_wordpool.txt	LTP084	ltpFR	3	11	-1	BARK	87	n/a	-1	1	1.0	1.0	upper	../fonts/Verdana.ttf
1533231	WORD	wordpools/wasnorm_wordpool.txt	LTP084	ltpFR	3	11	-1	QUEEN	1149	n/a	-1	1	1.0	1.0	upper	../fonts/Verdana.ttf
1537348	WORD	wordpools/wasnorm_wordpool.txt	LTP084	ltpFR	3	11	-1	MAGNET	855	n/a	-1	1	1.0	1.0	upper	../fonts/Verdana.ttf
1541506	WORD	wordpools/wasnorm_wordpool.txt	LTP084	ltpFR	3	11	-1	IRON	744	n/a	-1	1	1.0	1.0	upper	../fonts/Verdana.ttf
1545464	WORD	wordpools/wasnorm_wordpool.txt	LTP084	ltpFR	3	11	-1	TRUMPET	1513	n/a	-1	1	1.0	1.0	upper	../fonts/Verdana.ttf
1549430	WORD	wordpools/wasnorm_wordpool.txt	LTP084	ltpFR	3	11	-1	ERASER	538	n/a	-1	1	1.0	1.0	upper	../fonts/Verdana.ttf
1553496	WORD	wordpools/wasnorm_wordpool.txt	LTP084	ltpFR	3	11	-1	GLOBE	641	n/a	-1	1	1.0	1.0	upper	../fonts/Verdana.ttf
1557663	WORD	wordpools/wasnorm_wordpool.txt	LTP084	ltpFR	3	11	-1	TUXEDO	1525	n/a	-1	1	1.0	1.0	upper	../fonts/Verdana.ttf
1561621	WORD	wordpools/wasnorm_wordpool.txt	LTP084	ltpFR	3	11	-1	PANTS	1010	n/a	-1	1	1.0	1.0	upper	../fonts/Verdana.ttf
1565787	WORD	wordpools/wasnorm_wordpool.txt	LTP084	ltpFR	3	11	-1	ALBUM	14	n/a	-1	1	1.0	1.0	upper	../fonts/Verdana.ttf
1569911	WORD	wordpools/wasnorm_wordpool.txt	LTP084	ltpFR	3	11	-1	HOUND	724	n/a	-1	1	1.0	1.0	upper	../fonts/Verdana.ttf
1574011	WORD	wordpools/wasnorm_wordpool.txt	LTP084	ltpFR	3	11	-1	MARKET	871	n/a	-1	1	1.0	1.0	upper	../fonts/Verdana.ttf
1577985	WORD	wordpools/wasnorm_wordpool.txt	LTP084	ltpFR	3	11	-1	SHEPHERD	1283	n/a	-1	1	1.0	1.0	upper	../fonts/Verdana.ttf
1582035	WORD	wordpools/wasnorm_wordpool.txt	LTP084	ltpFR	3	11	-1	SHEEP	1278	n/a	-1	1	1.0	1.0	upper	../fonts/Verdana.ttf
1587960	REC_START	n/a	LTP084	ltpFR	3	11	n/a	n/a	n/a	n/a	n/a	n/a	n/a	n/a	n/a	n/a
1589212	REC_WORD	wordpools/wasnorm_wordpool.txt	LTP084	ltpFR	3	11	-1	SHEPHERD	1283	n/a	-1	n/a	n/a	n/a	n/a	n/a
1590629	REC_WORD	wordpools/wasnorm_wordpool.txt	LTP084	ltpFR	3	11	-1	SHEEP	1278	n/a	-1	n/a	n/a	n/a	n/a	n/a
1592609	REC_WORD	wordpools/wasnorm_wordpool.txt	LTP084	ltpFR	3	11	-1	GLOBE	641	n/a	-1	n/a	n/a	n/a	n/a	n/a
1594221	REC_WORD	wordpools/wasnorm_wordpool.txt	LTP084	ltpFR	3	11	-1	MARKET	871	n/a	-1	n/a	n/a	n/a	n/a	n/a
1595887	REC_WORD	wordpools/wasnorm_wordpool.txt	LTP084	ltpFR	3	11	-1	HOUND	724	n/a	-1	n/a	n/a	n/a	n/a	n/a
1621030	REC_WORD	wordpools/wasnorm_wordpool.txt	LTP084	ltpFR	3	11	-1	QUEEN	1149	n/a	-1	n/a	n/a	n/a	n/a	n/a
1623734	REC_WORD	wordpools/wasnorm_wordpool.txt	LTP084	ltpFR	3	11	-1	TRUMPET	1513	n/a	-1	n/a	n/a	n/a	n/a	n/a
1667180	WORD	wordpools/wasnorm_wordpool.txt	LTP084	ltpFR	3	12	1	FINGERNAIL	568	n/a	0	1	0.412841796875	0.57763671875	upper	../fonts/zerothre.ttf
1671296	WORD	wordpools/wasnorm_wordpool.txt	LTP084	ltpFR	3	12	1	KIWI	781	n/a	0	1	0.412841796875	0.57763671875	upper	../fonts/zerothre.ttf
1675396	WORD	wordpools/wasnorm_wordpool.txt	LTP084	ltpFR	3	12	1	FLEA	577	n/a	0	1	0.412841796875	0.57763671875	upper	../fonts/zerothre.ttf
1679270	WORD	wordpools/wasnorm_wordpool.txt	LTP084	ltpFR	3	12	1	HEEL	700	n/a	0	1	0.412841796875	0.57763671875	upper	../fonts/zerothre.ttf
1683102	WORD	wordpools/wasnorm_wordpool.txt	LTP084	ltpFR	3	12	1	LAKE	796	n/a	0	1	0.412841796875	0.57763671875	upper	../fonts/zerothre.ttf
1687286	WORD	wordpools/wasnorm_wordpool.txt	LTP084	ltpFR	3	12	1	OTTER	986	n/a	0	1	0.412841796875	0.57763671875	upper	../fonts/zerothre.ttf
1691369	WORD	wordpools/wasnorm_wordpool.txt	LTP084	ltpFR	3	12	1	SAP	1233	n/a	0	1	0.412841796875	0.57763671875	upper	../fonts/zerothre.ttf
1695486	WORD	wordpools/wasnorm_wordpool.txt	LTP084	ltpFR	3	12	1	PEAR	1033	n/a	1	1	0.412841796875	0.57763671875	upper	../fonts/zerothre.ttf
1699352	WORD	wordpools/wasnorm_wordpool.txt	LTP084	ltpFR	3	12	1	PENGUIN	1044	n/a	n/a	1	0.412841796875	0.57763671875	upper	../fonts/zerothre.ttf
1702377	SLOW_MSG	n/a	LTP084	ltpFR	3	12	n/a	n/a	n/a	n/a	n/a	n/a	n/a	n/a	n/a	n/a
1704835	WORD	wordpools/wasnorm_wordpool.txt	LTP084	ltpFR	3	12	1	CROW	414	n/a	1	1	0.412841796875	0.57763671875	upper	../fonts/zerothre.ttf
1708909	WORD	wordpools/wasnorm_wordpool.txt	LTP084	ltpFR	3	12	1	BLACKBERRY	132	n/a	1	1	0.412841796875	0.57763671875	upper	../fonts/zerothre.ttf
1712784	WORD	wordpools/wasnorm_wordpool.txt	LTP084	ltpFR	3	12	1	SWATTER	1418	n/a	0	1	0.412841796875	0.57763671875	upper	../fonts/zerothre.ttf
1716900	WORD	wordpools/wasnorm_wordpool.txt	LTP084	ltpFR	3	12	1	CUSTARD	429	n/a	0	1	0.412841796875	0.57763671875	upper	../fonts/zerothre.ttf
1720941	WORD	wordpools/wasnorm_wordpool.txt	LTP084	ltpFR	3	12	1	BLOUSE	139	n/a	0	1	0.412841796875	0.57763671875	upper	../fonts/zerothre.ttf
1724883	WORD	wordpools/wasnorm_wordpool.txt	LTP084	ltpFR	3	12	1	PASTA	1021	n/a	0	1	0.412841796875	0.57763671875	upper	../fonts/zerothre.ttf
1728750	WORD	wordpools/wasnorm_wordpool.txt	LTP084	ltpFR	3	12	1	LASER	801	n/a	0	1	0.412841796875	0.57763671875	upper	../fonts/zerothre.ttf
1734750	REC_START	n/a	LTP084	ltpFR	3	12	n/a	n/a	n/a	n/a	n/a	n/a	n/a	n/a	n/a	n/a
1737648	REC_WORD	wordpools/wasnorm_wordpool.txt	LTP084	ltpFR	3	12	1	SWATTER	1418	n/a	0	n/a	n/a	n/a	n/a	n/a
1739674	REC_WORD	wordpools/wasnorm_wordpool.txt	LTP084	ltpFR	3	12	1	CUSTARD	429	n/a	0	n/a	n/a	n/a	n/a	n/a
1741659	REC_WORD	wordpools/wasnorm_wordpool.txt	LTP084	ltpFR	3	12	1	LASER	801	n/a	0	n/a	n/a	n/a	n/a	n/a
1743625	REC_WORD	wordpools/wasnorm_wordpool.txt	LTP084	ltpFR	3	12	1	CROW	414	n/a	1	n/a	n/a	n/a	n/a	n/a
1746289	REC_WORD	wordpools/wasnorm_wordpool.txt	LTP084	ltpFR	3	12	1	FINGERNAIL	568	n/a	0	n/a	n/a	n/a	n/a	n/a
1749831	REC_WORD	wordpools/wasnorm_wordpool.txt	LTP084	ltpFR	3	12	1	BLACKBERRY	132	n/a	1	n/a	n/a	n/a	n/a	n/a
1756036	REC_WORD	wordpools/wasnorm_wordpool.txt	LTP084	ltpFR	3	12	1	PENGUIN	1044	n/a	n/a	n/a	n/a	n/a	n/a	n/a
1759698	REC_WORD	wordpools/wasnorm_wordpool.txt	LTP084	ltpFR	3	12	1	KIWI	781	n/a	0	n/a	n/a	n/a	n/a	n/a
1770753	REC_WORD	wordpools/wasnorm_wordpool.txt	LTP084	ltpFR	3	12	1	BLOUSE	139	n/a	0	n/a	n/a	n/a	n/a	n/a
1810336	REST_REWET	n/a	LTP084	ltpFR	3	12	n/a	n/a	n/a	n/a	n/a	n/a	n/a	n/a	n/a	n/a
2049684	WORD	wordpools/wasnorm_wordpool.txt	LTP084	ltpFR	3	13	-1	MOWER	928	n/a	-1	1	1.0	1.0	upper	../fonts/Verdana.ttf
2053517	WORD	wordpools/wasnorm_wordpool.txt	LTP084	ltpFR	3	13	-1	YOLK	1633	n/a	-1	1	1.0	1.0	upper	../fonts/Verdana.ttf
2057517	WORD	wordpools/wasnorm_wordpool.txt	LTP084	ltpFR	3	13	-1	CHICK	296	n/a	-1	1	1.0	1.0	upper	../fonts/Verdana.ttf
2061542	WORD	wordpools/wasnorm_wordpool.txt	LTP084	ltpFR	3	13	-1	BASKETBALL	96	n/a	-1	1	1.0	1.0	upper	../fonts/Verdana.ttf
2065375	WORD	wordpools/wasnorm_wordpool.txt	LTP084	ltpFR	3	13	-1	ANKLE	24	n/a	-1	1	1.0	1.0	upper	../fonts/Verdana.ttf
2069558	WORD	wordpools/wasnorm_wordpool.txt	LTP084	ltpFR	3	13	-1	TANGERINE	1431	n/a	-1	1	1.0	1.0	upper	../fonts/Verdana.ttf
2073591	WORD	wordpools/wasnorm_wordpool.txt	LTP084	ltpFR	3	13	-1	TICK	1463	n/a	-1	1	1.0	1.0	upper	../fonts/Verdana.ttf
2077557	WORD	wordpools/wasnorm_wordpool.txt	LTP084	ltpFR	3	13	-1	SHRINE	1298	n/a	-1	1	1.0	1.0	upper	../fonts/Verdana.ttf
2081699	WORD	wordpools/wasnorm_wordpool.txt	LTP084	ltpFR	3	13	-1	ARENA	37	n/a	-1	1	1.0	1.0	upper	../fonts/Verdana.ttf
2085881	WORD	wordpools/wasnorm_wordpool.txt	LTP084	ltpFR	3	13	-1	MEADOW	881	n/a	-1	1	1.0	1.0	upper	../fonts/Verdana.ttf
2089773	WORD	wordpools/wasnorm_wordpool.txt	LTP084	ltpFR	3	13	-1	PRAIRIE	1118	n/a	-1	1	1.0	1.0	upper	../fonts/Verdana.ttf
2093631	WORD	wordpools/wasnorm_wordpool.txt	LTP084	ltpFR	3	13	-1	PRINTER	1126	n/a	-1	1	1.0	1.0	upper	../fonts/Verdana.ttf
2097514	WORD	wordpools/wasnorm_wordpool.txt	LTP084	ltpFR	3	13	-1	CUPBOARD	425	n/a	-1	1	1.0	1.0	upper	../fonts/Verdana.ttf
2101489	WORD	wordpools/wasnorm_wordpool.txt	LTP084	ltpFR	3	13	-1	STOVE	1388	n/a	-1	1	1.0	1.0	upper	../fonts/Verdana.ttf
2105555	WORD	wordpools/wasnorm_wordpool.txt	LTP084	ltpFR	3	13	-1	COACH	331	n/a	-1	1	1.0	1.0	upper	../fonts/Verdana.ttf
2109463	WORD	wordpools/wasnorm_wordpool.txt	LTP084	ltpFR	3	13	-1	SOFTBALL	1343	n/a	-1	1	1.0	1.0	upper	../fonts/Verdana.ttf
2115297	REC_START	n/a	LTP084	ltpFR	3	13	n/a	n/a	n/a	n/a	n/a	n/a	n/a	n/a	n/a	n/a
2116250	REC_WORD	wordpools/wasnorm_wordpool.txt	LTP084	ltpFR	3	13	-1	MEADOW	881	n/a	-1	n/a	n/a	n/a	n/a	n/a
2119402	REC_WORD	wordpools/wasnorm_wordpool.txt	LTP084	ltpFR	3	13	-1	PRAIRIE	1118	n/a	-1	n/a	n/a	n/a	n/a	n/a
2121533	REC_WORD	wordpools/wasnorm_wordpool.txt	LTP084	ltpFR	3	13	-1	SOFTBALL	1343	n/a	-1	n/a	n/a	n/a	n/a	n/a
2124261	REC_WORD	wordpools/wasnorm_wordpool.txt	LTP084	ltpFR	3	13	-1	COACH	331	n/a	-1	n/a	n/a	n/a	n/a	n/a
2128282	REC_WORD	wordpools/wasnorm_wordpool.txt	LTP084	ltpFR	3	13	-1	BASKETBALL	96	n/a	-1	n/a	n/a	n/a	n/a	n/a
2130542	REC_WORD	wordpools/wasnorm_wordpool.txt	LTP084	ltpFR	3	13	-1	ARENA	37	n/a	-1	n/a	n/a	n/a	n/a	n/a
2132992	REC_WORD	wordpools/wasnorm_wordpool.txt	LTP084	ltpFR	3	13	-1	YOLK	1633	n/a	-1	n/a	n/a	n/a	n/a	n/a
2134907	REC_WORD	wordpools/wasnorm_wordpool.txt	LTP084	ltpFR	3	13	-1	MOWER	928	n/a	-1	n/a	n/a	n/a	n/a	n/a
2137292	REC_WORD	wordpools/wasnorm_wordpool.txt	LTP084	ltpFR	3	13	-1	MEADOW	881	n/a	-1	n/a	n/a	n/a	n/a	n/a
2144076	REC_WORD	wordpools/wasnorm_wordpool.txt	LTP084	ltpFR	3	13	-1	TICK	1463	n/a	-1	n/a	n/a	n/a	n/a	n/a
2153480	REC_WORD	wordpools/wasnorm_wordpool.txt	LTP084	ltpFR	3	13	-1	ANKLE	24	n/a	-1	n/a	n/a	n/a	n/a	n/a
2194897	WORD	wordpools/wasnorm_wordpool.txt	LTP084	ltpFR	3	14	0	UNIVERSE	1540	n/a	1	0	0.5869140625	0.422607421875	lower	../fonts/amplitud.ttf
2198897	WORD	wordpools/wasnorm_wordpool.txt	LTP084	ltpFR	3	14	0	MAPLE	866	n/a	0	0	0.5869140625	0.422607421875	lower	../fonts/amplitud.ttf
2203080	WORD	wordpools/wasnorm_wordpool.txt	LTP084	ltpFR	3	14	1	CAN	225	n/a	0	1	0.412841796875	0.57763671875	upper	../fonts/zerothre.ttf
2207030	WORD	wordpools/wasnorm_wordpool.txt	LTP084	ltpFR	3	14	1	AUTHOR	61	n/a	0	1	0.412841796875	0.57763671875	upper	../fonts/zerothre.ttf
2210896	WORD	wordpools/wasnorm_wordpool.txt	LTP084	ltpFR	3	14	1	RANCH	1166	n/a	0	1	0.412841796875	0.57763671875	upper	../fonts/zerothre.ttf
2214979	WORD	wordpools/wasnorm_wordpool.txt	LTP084	ltpFR	3	14	1	VIOLA	1570	n/a	0	1	0.412841796875	0.57763671875	upper	../fonts/zerothre.ttf
2218805	WORD	wordpools/wasnorm_wordpool.txt	LTP084	ltpFR	3	14	1	TUBA	1515	n/a	0	1	0.412841796875	0.57763671875	upper	../fonts/zerothre.ttf
2222937	WORD	wordpools/wasnorm_wordpool.txt	LTP084	ltpFR	3	14	0	DISH	474	n/a	0	0	0.5869140625	0.422607421875	lower	../fonts/amplitud.ttf
2227145	WORD	wordpools/wasnorm_wordpool.txt	LTP084	ltpFR	3	14	0	KITCHEN	778	n/a	0	0	0.5869140625	0.422607421875	lower	../fonts/amplitud.ttf
2231337	WORD	wordpools/wasnorm_wordpool.txt	LTP084	ltpFR	3	14	1	SPINACH	1352	n/a	0	1	0.412841796875	0.57763671875	upper	../fonts/zerothre.ttf
2235279	WORD	wordpools/wasnorm_wordpool.txt	LTP084	ltpFR	3	14	1	CARDINAL	244	n/a	0	1	0.412841796875	0.57763671875	upper	../fonts/zerothre.ttf
2239287	WORD	wordpools/wasnorm_wordpool.txt	LTP084	ltpFR	3	14	1	BUGGY	188	n/a	0	1	0.412841796875	0.57763671875	upper	../fonts/zerothre.ttf
2243370	WORD	wordpools/wasnorm_wordpool.txt	LTP084	ltpFR	3	14	0	SUN	1406	n/a	1	0	0.5869140625	0.422607421875	lower	../fonts/amplitud.ttf
2247303	WORD	wordpools/wasnorm_wordpool.txt	LTP084	ltpFR	3	14	0	PARROT	1015	n/a	1	0	0.5869140625	0.422607421875	lower	../fonts/amplitud.ttf
2251194	WORD	wordpools/wasnorm_wordpool.txt	LTP084	ltpFR	3	14	0	JEWEL	757	n/a	0	0	0.5869140625	0.422607421875	lower	../fonts/amplitud.ttf
2255236	WORD	wordpools/wasnorm_wordpool.txt	LTP084	ltpFR	3	14	0	GOLD	647	n/a	0	0	0.5869140625	0.422607421875	lower	../fonts/amplitud.ttf
2260811	REC_START	n/a	LTP084	ltpFR	3	14	n/a	n/a	n/a	n/a	n/a	n/a	n/a	n/a	n/a	n/a
2261694	REC_WORD	wordpools/wasnorm_wordpool.txt	LTP084	ltpFR	3	14	0	PARROT	1015	n/a	1	n/a	n/a	n/a	n/a	n/a
2263270	REC_WORD	wordpools/wasnorm_wordpool.txt	LTP084	ltpFR	3	14	0	JEWEL	757	n/a	0	n/a	n/a	n/a	n/a	n/a
2264817	REC_WORD	wordpools/wasnorm_wordpool.txt	LTP084	ltpFR	3	14	0	GOLD	647	n/a	0	n/a	n/a	n/a	n/a	n/a
2266842	REC_WORD	wordpools/wasnorm_wordpool.txt	LTP084	ltpFR	3	14	0	SUN	1406	n/a	1	n/a	n/a	n/a	n/a	n/a
2269631	REC_WORD	wordpools/wasnorm_wordpool.txt	LTP084	ltpFR	3	14	0	UNIVERSE	1540	n/a	1	n/a	n/a	n/a	n/a	n/a
2272454	REC_WORD	wordpools/wasnorm_wordpool.txt	LTP084	ltpFR	3	14	0	DISH	474	n/a	0	n/a	n/a	n/a	n/a	n/a
2275368	REC_WORD	wordpools/wasnorm_wordpool.txt	LTP084	ltpFR	3	14	0	KITCHEN	778	n/a	0	n/a	n/a	n/a	n/a	n/a
2278630	REC_WORD	wordpools/wasnorm_wordpool.txt	LTP084	ltpFR	3	14	1	SPINACH	1352	n/a	0	n/a	n/a	n/a	n/a	n/a
2288822	REC_WORD	wordpools/wasnorm_wordpool.txt	LTP084	ltpFR	3	14	0	PARROT	1015	n/a	1	n/a	n/a	n/a	n/a	n/a
2314339	REC_WORD	wordpools/wasnorm_wordpool.txt	LTP084	ltpFR	3	14	1	CARDINAL	244	n/a	0	n/a	n/a	n/a	n/a	n/a
2316903	REC_WORD	wordpools/wasnorm_wordpool.txt	LTP084	ltpFR	3	14	1	BUGGY	188	n/a	0	n/a	n/a	n/a	n/a	n/a
2339654	WORD	wordpools/wasnorm_wordpool.txt	LTP084	ltpFR	3	15	-1	FLOWER	584	n/a	-1	1	1.0	1.0	upper	../fonts/Verdana.ttf
2343779	WORD	wordpools/wasnorm_wordpool.txt	LTP084	ltpFR	3	15	-1	ROSE	1212	n/a	-1	1	1.0	1.0	upper	../fonts/Verdana.ttf
2347969	WORD	wordpools/wasnorm_wordpool.txt	LTP084	ltpFR	3	15	-1	SOAP	1337	n/a	-1	1	1.0	1.0	upper	../fonts/Verdana.ttf
2351877	WORD	wordpools/wasnorm_wordpool.txt	LTP084	ltpFR	3	15	-1	SCALPEL	1243	n/a	-1	1	1.0	1.0	upper	../fonts/Verdana.ttf
2356060	WORD	wordpools/wasnorm_wordpool.txt	LTP084	ltpFR	3	15	-1	BIOLOGIST	128	n/a	-1	1	1.0	1.0	upper	../fonts/Verdana.ttf
2360060	WORD	wordpools/wasnorm_wordpool.txt	LTP084	ltpFR	3	15	-1	COURT	391	n/a	-1	1	1.0	1.0	upper	../fonts/Verdana.ttf
2364252	WORD	wordpools/wasnorm_wordpool.txt	LTP084	ltpFR	3	15	-1	SLOPE	1328	n/a	-1	1	1.0	1.0	upper	../fonts/Verdana.ttf
2368294	WORD	wordpools/wasnorm_wordpool.txt	LTP084	ltpFR	3	15	-1	NEEDLE	941	n/a	-1	1	1.0	1.0	upper	../fonts/Verdana.ttf
2372252	WORD	wordpools/wasnorm_wordpool.txt	LTP084	ltpFR	3	15	-1	SHOWER	1296	n/a	-1	1	1.0	1.0	upper	../fonts/Verdana.ttf
2376352	WORD	wordpools/wasnorm_wordpool.txt	LTP084	ltpFR	3	15	-1	SHELTER	1282	n/a	-1	1	1.0	1.0	upper	../fonts/Verdana.ttf
2380293	WORD	wordpools/wasnorm_wordpool.txt	LTP084	ltpFR	3	15	-1	MERMAID	887	n/a	-1	1	1.0	1.0	upper	../fonts/Verdana.ttf
2384293	WORD	wordpools/wasnorm_wordpool.txt	LTP084	ltpFR	3	15	-1	SUSPECT	1415	n/a	-1	1	1.0	1.0	upper	../fonts/Verdana.ttf
2388259	WORD	wordpools/wasnorm_wordpool.txt	LTP084	ltpFR	3	15	-1	VILLAIN	1567	n/a	-1	1	1.0	1.0	upper	../fonts/Verdana.ttf
2392292	WORD	wordpools/wasnorm_wordpool.txt	LTP084	ltpFR	3	15	-1	TREAD	1499	n/a	-1	1	1.0	1.0	upper	../fonts/Verdana.ttf
2396208	WORD	wordpools/wasnorm_wordpool.txt	LTP084	ltpFR	3	15	-1	COLONEL	348	n/a	-1	1	1.0	1.0	upper	../fonts/Verdana.ttf
2400325	WORD	wordpools/wasnorm_wordpool.txt	LTP084	ltpFR	3	15	-1	CLIMBER	323	n/a	-1	1	1.0	1.0	upper	../fonts/Verdana.ttf
2405999	REC_START	n/a	LTP084	ltpFR	3	15	n/a	n/a	n/a	n/a	n/a	n/a	n/a	n/a	n/a	n/a
2407231	REC_WORD	wordpools/wasnorm_wordpool.txt	LTP084	ltpFR	3	15	-1	TREAD	1499	n/a	-1	n/a	n/a	n/a	n/a	n/a
2408787	REC_WORD	wordpools/wasnorm_wordpool.txt	LTP084	ltpFR	3	15	-1	COLONEL	348	n/a	-1	n/a	n/a	n/a	n/a	n/a
2410878	REC_WORD	wordpools/wasnorm_wordpool.txt	LTP084	ltpFR	3	15	-1	CLIMBER	323	n/a	-1	n/a	n/a	n/a	n/a	n/a
2417303	REC_WORD	wordpools/wasnorm_wordpool.txt	LTP084	ltpFR	3	15	-1	SOAP	1337	n/a	-1	n/a	n/a	n/a	n/a	n/a
2419314	REC_WORD	wordpools/wasnorm_wordpool.txt	LTP084	ltpFR	3	15	-1	SHELTER	1282	n/a	-1	n/a	n/a	n/a	n/a	n/a
2421274	REC_WORD	wordpools/wasnorm_wordpool.txt	LTP084	ltpFR	3	15	-1	SCALPEL	1243	n/a	-1	n/a	n/a	n/a	n/a	n/a
2424252	REC_WORD	wordpools/wasnorm_wordpool.txt	LTP084	ltpFR	3	15	-1	BIOLOGIST	128	n/a	-1	n/a	n/a	n/a	n/a	n/a
2430049	REC_WORD	wordpools/wasnorm_wordpool.txt	LTP084	ltpFR	3	15	-1	NEEDLE	941	n/a	-1	n/a	n/a	n/a	n/a	n/a
2438884	REC_WORD	wordpools/wasnorm_wordpool.txt	LTP084	ltpFR	3	15	-1	FLOWER	584	n/a	-1	n/a	n/a	n/a	n/a	n/a
2440760	REC_WORD	wordpools/wasnorm_wordpool.txt	LTP084	ltpFR	3	15	-1	ROSE	1212	n/a	-1	n/a	n/a	n/a	n/a	n/a
2484851	WORD	wordpools/wasnorm_wordpool.txt	LTP084	ltpFR	3	16	0	CORN	381	n/a	0	0	0.5869140625	0.422607421875	lower	../fonts/amplitud.ttf
2488934	WORD	wordpools/wasnorm_wordpool.txt	LTP084	ltpFR	3	16	0	HOOP	716	n/a	0	0	0.5869140625	0.422607421875	lower	../fonts/amplitud.ttf
2492908	WORD	wordpools/wasnorm_wordpool.txt	LTP084	ltpFR	3	16	0	EMPLOYER	532	n/a	0	0	0.5869140625	0.422607421875	lower	../fonts/amplitud.ttf
2497050	WORD	wordpools/wasnorm_wordpool.txt	LTP084	ltpFR	3	16	0	WORKER	1621	n/a	0	0	0.5869140625	0.422607421875	lower	../fonts/amplitud.ttf
2501025	WORD	wordpools/wasnorm_wordpool.txt	LTP084	ltpFR	3	16	0	AUNT	60	n/a	0	0	0.5869140625	0.422607421875	lower	../fonts/amplitud.ttf
2504899	WORD	wordpools/wasnorm_wordpool.txt	LTP084	ltpFR	3	16	0	NIECE	952	n/a	0	0	0.5869140625	0.422607421875	lower	../fonts/amplitud.ttf
2508974	WORD	wordpools/wasnorm_wordpool.txt	LTP084	ltpFR	3	16	0	TICKET	1464	n/a	0	0	0.5869140625	0.422607421875	lower	../fonts/amplitud.ttf
2512907	WORD	wordpools/wasnorm_wordpool.txt	LTP084	ltpFR	3	16	0	ENGINE	535	n/a	0	0	0.5869140625	0.422607421875	lower	../fonts/amplitud.ttf
2517115	WORD	wordpools/wasnorm_wordpool.txt	LTP084	ltpFR	3	16	0	FIELD	562	n/a	0	0	0.5869140625	0.422607421875	lower	../fonts/amplitud.ttf
2521131	WORD	wordpools/wasnorm_wordpool.txt	LTP084	ltpFR	3	16	0	BANK	83	n/a	0	0	0.5869140625	0.422607421875	lower	../fonts/amplitud.ttf
2525282	WORD	wordpools/wasnorm_wordpool.txt	LTP084	ltpFR	3	16	0	PUBLISHER	1137	n/a	0	0	0.5869140625	0.422607421875	lower	../fonts/amplitud.ttf
2529273	WORD	wordpools/wasnorm_wordpool.txt	LTP084	ltpFR	3	16	0	BIBLE	124	n/a	0	0	0.5869140625	0.422607421875	lower	../fonts/amplitud.ttf
2533215	WORD	wordpools/wasnorm_wordpool.txt	LTP084	ltpFR	3	16	0	RECORD	1176	n/a	0	0	0.5869140625	0.422607421875	lower	../fonts/amplitud.ttf
2537381	WORD	wordpools/wasnorm_wordpool.txt	LTP084	ltpFR	3	16	0	MAT	877	n/a	0	0	0.5869140625	0.422607421875	lower	../fonts/amplitud.ttf
2541523	WORD	wordpools/wasnorm_wordpool.txt	LTP084	ltpFR	3	16	0	DICTIONARY	463	n/a	0	0	0.5869140625	0.422607421875	lower	../fonts/amplitud.ttf
2545389	WORD	wordpools/wasnorm_wordpool.txt	LTP084	ltpFR	3	16	0	QUARTER	1148	n/a	0	0	0.5869140625	0.422607421875	lower	../fonts/amplitud.ttf
2551231	REC_START	n/a	LTP084	ltpFR	3	16	n/a	n/a	n/a	n/a	n/a	n/a	n/a	n/a	n/a	n/a
2552034	REC_WORD	wordpools/wasnorm_wordpool.txt	LTP084	ltpFR	3	16	0	BIBLE	124	n/a	0	n/a	n/a	n/a	n/a	n/a
2553580	REC_WORD	wordpools/wasnorm_wordpool.txt	LTP084	ltpFR	3	16	0	MAT	877	n/a	0	n/a	n/a	n/a	n/a	n/a
2555247	REC_WORD	wordpools/wasnorm_wordpool.txt	LTP084	ltpFR	3	16	0	DICTIONARY	463	n/a	0	n/a	n/a	n/a	n/a	n/a
2556574	REC_WORD	wordpools/wasnorm_wordpool.txt	LTP084	ltpFR	3	16	0	QUARTER	1148	n/a	0	n/a	n/a	n/a	n/a	n/a
2558479	REC_WORD	wordpools/wasnorm_wordpool.txt	LTP084	ltpFR	3	16	0	BANK	83	n/a	0	n/a	n/a	n/a	n/a	n/a
2559567	REC_WORD	wordpools/wasnorm_wordpool.txt	LTP084	ltpFR	3	16	0	PUBLISHER	1137	n/a	0	n/a	n/a	n/a	n/a	n/a
2561547	REC_WORD	wordpools/wasnorm_wordpool.txt	LTP084	ltpFR	3	16	0	EMPLOYER	532	n/a	0	n/a	n/a	n/a	n/a	n/a
2563174	REC_WORD	wordpools/wasnorm_wordpool.txt	LTP084	ltpFR	3	16	0	WORKER	1621	n/a	0	n/a	n/a	n/a	n/a	n/a
2564865	REC_WORD	wordpools/wasnorm_wordpool.txt	LTP084	ltpFR	3	16	0	AUNT	60	n/a	0	n/a	n/a	n/a	n/a	n/a
2566072	REC_WORD	wordpools/wasnorm_wordpool.txt	LTP084	ltpFR	3	16	0	NIECE	952	n/a	0	n/a	n/a	n/a	n/a	n/a
2573355	REC_WORD	wordpools/wasnorm_wordpool.txt	LTP084	ltpFR	3	16	0	HOOP	716	n/a	0	n/a	n/a	n/a	n/a	n/a
2652098	REC_START	n/a	LTP084	ltpFR	3	1	n/a	n/a	n/a	n/a	n/a	n/a	n/a	n/a	n/a	n/a
2652130	RECOG_TARGET	n/a	LTP084	ltpFR	3	1	-1	STOVE	1388	5	-1	n/a	n/a	n/a	n/a	n/a
2657840	RECOG_RESP	n/a	LTP084	ltpFR	3	1	-1	STOVE	1388	n/a	-1	n/a	n/a	n/a	n/a	n/a
2661641	RECOG_CONF	n/a	LTP084	ltpFR	3	1	-1	STOVE	1388	5	-1	n/a	n/a	n/a	n/a	n/a
2663230	RECOG_TARGET	n/a	LTP084	ltpFR	3	1	0	POWDER	1117	5	0	n/a	n/a	n/a	n/a	n/a
2664360	RECOG_RESP	n/a	LTP084	ltpFR	3	1	0	POWDER	1117	n/a	0	n/a	n/a	n/a	n/a	n/a
2665862	RECOG_CONF	n/a	LTP084	ltpFR	3	1	0	POWDER	1117	5	0	n/a	n/a	n/a	n/a	n/a
2667413	RECOG_TARGET	n/a	LTP084	ltpFR	3	1	-1	MARKET	871	5	-1	n/a	n/a	n/a	n/a	n/a
2668346	RECOG_RESP	n/a	LTP084	ltpFR	3	1	-1	MARKET	871	n/a	-1	n/a	n/a	n/a	n/a	n/a
2669713	RECOG_CONF	n/a	LTP084	ltpFR	3	1	-1	MARKET	871	5	-1	n/a	n/a	n/a	n/a	n/a
2671263	RECOG_LURE	n/a	LTP084	ltpFR	3	1	n/a	CUP	424	3	n/a	n/a	n/a	n/a	n/a	n/a
2672791	RECOG_RESP	n/a	LTP084	ltpFR	3	1	n/a	CUP	424	n/a	n/a	n/a	n/a	n/a	n/a	n/a
2673873	RECOG_CONF	n/a	LTP084	ltpFR	3	1	n/a	CUP	424	3	n/a	n/a	n/a	n/a	n/a	n/a
2675371	RECOG_TARGET	n/a	LTP084	ltpFR	3	1	0	GOLD	647	5	0	n/a	n/a	n/a	n/a	n/a
2676163	RECOG_RESP	n/a	LTP084	ltpFR	3	1	0	GOLD	647	n/a	0	n/a	n/a	n/a	n/a	n/a
2677236	RECOG_CONF	n/a	LTP084	ltpFR	3	1	0	GOLD	647	5	0	n/a	n/a	n/a	n/a	n/a
2678895	RECOG_TARGET	n/a	LTP084	ltpFR	3	1	-1	MOAT	903	5	-1	n/a	n/a	n/a	n/a	n/a
2680274	RECOG_RESP	n/a	LTP084	ltpFR	3	1	-1	MOAT	903	n/a	-1	n/a	n/a	n/a	n/a	n/a
2681566	RECOG_CONF	n/a	LTP084	ltpFR	3	1	-1	MOAT	903	5	-1	n/a	n/a	n/a	n/a	n/a
2683078	RECOG_TARGET	n/a	LTP084	ltpFR	3	1	0	TOMATO	1476	5	0	n/a	n/a	n/a	n/a	n/a
2684070	RECOG_RESP	n/a	LTP084	ltpFR	3	1	0	TOMATO	1476	n/a	0	n/a	n/a	n/a	n/a	n/a
2685457	RECOG_CONF	n/a	LTP084	ltpFR	3	1	0	TOMATO	1476	5	0	n/a	n/a	n/a	n/a	n/a
2687019	RECOG_TARGET	n/a	LTP084	ltpFR	3	1	1	KING	777	5	0	n/a	n/a	n/a	n/a	n/a
2688415	RECOG_RESP	n/a	LTP084	ltpFR	3	1	1	KING	777	n/a	0	n/a	n/a	n/a	n/a	n/a
2689667	RECOG_CONF	n/a	LTP084	ltpFR	3	1	1	KING	777	5	0	n/a	n/a	n/a	n/a	n/a
2691211	RECOG_TARGET	n/a	LTP084	ltpFR	3	1	-1	YOLK	1633	5	-1	n/a	n/a	n/a	n/a	n/a
2692042	RECOG_RESP	n/a	LTP084	ltpFR	3	1	-1	YOLK	1633	n/a	-1	n/a	n/a	n/a	n/a	n/a
2693299	RECOG_CONF	n/a	LTP084	ltpFR	3	1	-1	YOLK	1633	5	-1	n/a	n/a	n/a	n/a	n/a
2694794	RECOG_LURE	n/a	LTP084	ltpFR	3	1	n/a	ROBBER	1197	2	n/a	n/a	n/a	n/a	n/a	n/a
2697864	RECOG_RESP	n/a	LTP084	ltpFR	3	1	n/a	ROBBER	1197	n/a	n/a	n/a	n/a	n/a	n/a	n/a
2698976	RECOG_CONF	n/a	LTP084	ltpFR	3	1	n/a	ROBBER	1197	2	n/a	n/a	n/a	n/a	n/a	n/a
2701076	RECOG_LURE	n/a	LTP084	ltpFR	3	1	n/a	PELICAN	1039	5	n/a	n/a	n/a	n/a	n/a	n/a
2702139	RECOG_RESP	n/a	LTP084	ltpFR	3	1	n/a	PELICAN	1039	n/a	n/a	n/a	n/a	n/a	n/a	n/a
2703127	RECOG_CONF	n/a	LTP084	ltpFR	3	1	n/a	PELICAN	1039	5	n/a	n/a	n/a	n/a	n/a	n/a
2704635	RECOG_TARGET	n/a	LTP084	ltpFR	3	1	1	BEE	112	5	0	n/a	n/a	n/a	n/a	n/a
2705427	RECOG_RESP	n/a	LTP084	ltpFR	3	1	1	BEE	112	n/a	0	n/a	n/a	n/a	n/a	n/a
2706469	RECOG_CONF	n/a	LTP084	ltpFR	3	1	1	BEE	112	5	0	n/a	n/a	n/a	n/a	n/a
2707859	RECOG_TARGET	n/a	LTP084	ltpFR	3	1	-1	ANKLE	24	5	-1	n/a	n/a	n/a	n/a	n/a
2708594	RECOG_RESP	n/a	LTP084	ltpFR	3	1	-1	ANKLE	24	n/a	-1	n/a	n/a	n/a	n/a	n/a
2709712	RECOG_CONF	n/a	LTP084	ltpFR	3	1	-1	ANKLE	24	5	-1	n/a	n/a	n/a	n/a	n/a
2711226	RECOG_TARGET	n/a	LTP084	ltpFR	3	1	-1	POPCORN	1104	5	-1	n/a	n/a	n/a	n/a	n/a
2712221	RECOG_RESP	n/a	LTP084	ltpFR	3	1	-1	POPCORN	1104	n/a	-1	n/a	n/a	n/a	n/a	n/a
2713214	RECOG_CONF	n/a	LTP084	ltpFR	3	1	-1	POPCORN	1104	5	-1	n/a	n/a	n/a	n/a	n/a
2714693	RECOG_LURE	n/a	LTP084	ltpFR	3	1	n/a	MIRROR	899	5	n/a	n/a	n/a	n/a	n/a	n/a
2715988	RECOG_RESP	n/a	LTP084	ltpFR	3	1	n/a	MIRROR	899	n/a	n/a	n/a	n/a	n/a	n/a	n/a
2717215	RECOG_CONF	n/a	LTP084	ltpFR	3	1	n/a	MIRROR	899	5	n/a	n/a	n/a	n/a	n/a	n/a
2718709	RECOG_TARGET	n/a	LTP084	ltpFR	3	1	0	INMATE	738	5	0	n/a	n/a	n/a	n/a	n/a
2719644	RECOG_RESP	n/a	LTP084	ltpFR	3	1	0	INMATE	738	n/a	0	n/a	n/a	n/a	n/a	n/a
2720777	RECOG_CONF	n/a	LTP084	ltpFR	3	1	0	INMATE	738	5	0	n/a	n/a	n/a	n/a	n/a
2722234	RECOG_LURE	n/a	LTP084	ltpFR	3	1	n/a	SYRUP	1425	5	n/a	n/a	n/a	n/a	n/a	n/a
2723491	RECOG_RESP	n/a	LTP084	ltpFR	3	1	n/a	SYRUP	1425	n/a	n/a	n/a	n/a	n/a	n/a	n/a
2724568	RECOG_CONF	n/a	LTP084	ltpFR	3	1	n/a	SYRUP	1425	5	n/a	n/a	n/a	n/a	n/a	n/a
2726066	RECOG_TARGET	n/a	LTP084	ltpFR	3	1	1	MONEY	908	5	0	n/a	n/a	n/a	n/a	n/a
2727097	RECOG_RESP	n/a	LTP084	ltpFR	3	1	1	MONEY	908	n/a	0	n/a	n/a	n/a	n/a	n/a
2728110	RECOG_CONF	n/a	LTP084	ltpFR	3	1	1	MONEY	908	5	0	n/a	n/a	n/a	n/a	n/a
2729742	RECOG_LURE	n/a	LTP084	ltpFR	3	1	n/a	BEAKER	104	3	n/a	n/a	n/a	n/a	n/a	n/a
2730764	RECOG_RESP	n/a	LTP084	ltpFR	3	1	n/a	BEAKER	104	n/a	n/a	n/a	n/a	n/a	n/a	n/a
2731832	RECOG_CONF	n/a	LTP084	ltpFR	3	1	n/a	BEAKER	104	3	n/a	n/a	n/a	n/a	n/a	n/a
2733417	RECOG_LURE	n/a	LTP084	ltpFR	3	1	n/a	FARM	552	5	n/a	n/a	n/a	n/a	n/a	n/a
2734406	RECOG_RESP	n/a	LTP084	ltpFR	3	1	n/a	FARM	552	n/a	n/a	n/a	n/a	n/a	n/a	n/a
2735493	RECOG_CONF	n/a	LTP084	ltpFR	3	1	n/a	FARM	552	5	n/a	n/a	n/a	n/a	n/a	n/a
2739223	REC_START	n/a	LTP084	ltpFR	3	2	n/a	n/a	n/a	n/a	n/a	n/a	n/a	n/a	n/a	n/a
2739258	RECOG_LURE	n/a	LTP084	ltpFR	3	2	n/a	SUNRISE	1407	5	n/a	n/a	n/a	n/a	n/a	n/a
2740176	RECOG_RESP	n/a	LTP084	ltpFR	3	2	n/a	SUNRISE	1407	n/a	n/a	n/a	n/a	n/a	n/a	n/a
2741273	RECOG_CONF	n/a	LTP084	ltpFR	3	2	n/a	SUNRISE	1407	5	n/a	n/a	n/a	n/a	n/a	n/a
2742732	RECOG_LURE	n/a	LTP084	ltpFR	3	2	n/a	TOOL	1480	5	n/a	n/a	n/a	n/a	n/a	n/a
2744321	RECOG_RESP	n/a	LTP084	ltpFR	3	2	n/a	TOOL	1480	n/a	n/a	n/a	n/a	n/a	n/a	n/a
2745314	RECOG_CONF	n/a	LTP084	ltpFR	3	2	n/a	TOOL	1480	5	n/a	n/a	n/a	n/a	n/a	n/a
2746807	RECOG_TARGET	n/a	LTP084	ltpFR	3	2	0	STAPLE	1371	5	0	n/a	n/a	n/a	n/a	n/a
2747569	RECOG_RESP	n/a	LTP084	ltpFR	3	2	0	STAPLE	1371	n/a	0	n/a	n/a	n/a	n/a	n/a
2748577	RECOG_CONF	n/a	LTP084	ltpFR	3	2	0	STAPLE	1371	5	0	n/a	n/a	n/a	n/a	n/a
2750073	RECOG_LURE	n/a	LTP084	ltpFR	3	2	n/a	HORNET	718	5	n/a	n/a	n/a	n/a	n/a	n/a
2750941	RECOG_RESP	n/a	LTP084	ltpFR	3	2	n/a	HORNET	718	n/a	n/a	n/a	n/a	n/a	n/a	n/a
2752029	RECOG_CONF	n/a	LTP084	ltpFR	3	2	n/a	HORNET	718	5	n/a	n/a	n/a	n/a	n/a	n/a
2753432	RECOG_TARGET	n/a	LTP084	ltpFR	3	2	-1	TONGUE	1479	5	-1	n/a	n/a	n/a	n/a	n/a
2754234	RECOG_RESP	n/a	LTP084	ltpFR	3	2	-1	TONGUE	1479	n/a	-1	n/a	n/a	n/a	n/a	n/a
2755431	RECOG_CONF	n/a	LTP084	ltpFR	3	2	-1	TONGUE	1479	5	-1	n/a	n/a	n/a	n/a	n/a
2756947	RECOG_TARGET	n/a	LTP084	ltpFR	3	2	1	FIREMAN	569	5	0	n/a	n/a	n/a	n/a	n/a
2757865	RECOG_RESP	n/a	LTP084	ltpFR	3	2	1	FIREMAN	569	n/a	0	n/a	n/a	n/a	n/a	n/a
2758953	RECOG_CONF	n/a	LTP084	ltpFR	3	2	1	FIREMAN	569	5	0	n/a	n/a	n/a	n/a	n/a
2760398	RECOG_TARGET	n/a	LTP084	ltpFR	3	2	-1	DICTATOR	462	5	-1	n/a	n/a	n/a	n/a	n/a
2761617	RECOG_RESP	n/a	LTP084	ltpFR	3	2	-1	DICTATOR	462	n/a	-1	n/a	n/a	n/a	n/a	n/a
2762595	RECOG_CONF	n/a	LTP084	ltpFR	3	2	-1	DICTATOR	462	5	-1	n/a	n/a	n/a	n/a	n/a
2764146	RECOG_TARGET	n/a	LTP084	ltpFR	3	2	0	CENT	270	5	0	n/a	n/a	n/a	n/a	n/a
2764949	RECOG_RESP	n/a	LTP084	ltpFR	3	2	0	CENT	270	n/a	0	n/a	n/a	n/a	n/a	n/a
2766067	RECOG_CONF	n/a	LTP084	ltpFR	3	2	0	CENT	270	5	0	n/a	n/a	n/a	n/a	n/a
2767514	RECOG_TARGET	n/a	LTP084	ltpFR	3	2	-1	GARDEN	623	5	-1	n/a	n/a	n/a	n/a	n/a
2768546	RECOG_RESP	n/a	LTP084	ltpFR	3	2	-1	GARDEN	623	n/a	-1	n/a	n/a	n/a	n/a	n/a
2769629	RECOG_CONF	n/a	LTP084	ltpFR	3	2	-1	GARDEN	623	5	-1	n/a	n/a	n/a	n/a	n/a
2771104	RECOG_TARGET	n/a	LTP084	ltpFR	3	2	0	PREDATOR	1120	5	0	n/a	n/a	n/a	n/a	n/a
2772113	RECOG_RESP	n/a	LTP084	ltpFR	3	2	0	PREDATOR	1120	n/a	0	n/a	n/a	n/a	n/a	n/a
2773001	RECOG_CONF	n/a	LTP084	ltpFR	3	2	0	PREDATOR	1120	5	0	n/a	n/a	n/a	n/a	n/a
2774655	RECOG_TARGET	n/a	LTP084	ltpFR	3	2	1	FAUCET	555	5	0	n/a	n/a	n/a	n/a	n/a
2775570	RECOG_RESP	n/a	LTP084	ltpFR	3	2	1	FAUCET	555	n/a	0	n/a	n/a	n/a	n/a	n/a
2776703	RECOG_CONF	n/a	LTP084	ltpFR	3	2	1	FAUCET	555	5	0	n/a	n/a	n/a	n/a	n/a
2778121	RECOG_TARGET	n/a	LTP084	ltpFR	3	2	1	LIP	828	5	0	n/a	n/a	n/a	n/a	n/a
2778868	RECOG_RESP	n/a	LTP084	ltpFR	3	2	1	LIP	828	n/a	0	n/a	n/a	n/a	n/a	n/a
2779895	RECOG_CONF	n/a	LTP084	ltpFR	3	2	1	LIP	828	5	0	n/a	n/a	n/a	n/a	n/a
2781480	RECOG_LURE	n/a	LTP084	ltpFR	3	2	n/a	WART	1590	5	n/a	n/a	n/a	n/a	n/a	n/a
2782320	RECOG_RESP	n/a	LTP084	ltpFR	3	2	n/a	WART	1590	n/a	n/a	n/a	n/a	n/a	n/a	n/a
2783367	RECOG_CONF	n/a	LTP084	ltpFR	3	2	n/a	WART	1590	5	n/a	n/a	n/a	n/a	n/a	n/a
2784738	RECOG_TARGET	n/a	LTP084	ltpFR	3	2	0	HAM	678	5	0	n/a	n/a	n/a	n/a	n/a
2785473	RECOG_RESP	n/a	LTP084	ltpFR	3	2	0	HAM	678	n/a	0	n/a	n/a	n/a	n/a	n/a
2786760	RECOG_CONF	n/a	LTP084	ltpFR	3	2	0	HAM	678	5	0	n/a	n/a	n/a	n/a	n/a
2788296	RECOG_TARGET	n/a	LTP084	ltpFR	3	2	0	TICKET	1464	5	0	n/a	n/a	n/a	n/a	n/a
2788980	RECOG_RESP	n/a	LTP084	ltpFR	3	2	0	TICKET	1464	n/a	0	n/a	n/a	n/a	n/a	n/a
2790042	RECOG_CONF	n/a	LTP084	ltpFR	3	2	0	TICKET	1464	5	0	n/a	n/a	n/a	n/a	n/a
2791520	RECOG_LURE	n/a	LTP084	ltpFR	3	2	n/a	CHESS	294	1	n/a	n/a	n/a	n/a	n/a	n/a
2792367	RECOG_RESP	n/a	LTP084	ltpFR	3	2	n/a	CHESS	294	n/a	n/a	n/a	n/a	n/a	n/a	n/a
2795879	RECOG_CONF	n/a	LTP084	ltpFR	3	2	n/a	CHESS	294	1	n/a	n/a	n/a	n/a	n/a	n/a
2797603	RECOG_LURE	n/a	LTP084	ltpFR	3	2	n/a	BOSS	152	5	n/a	n/a	n/a	n/a	n/a	n/a
2799221	RECOG_RESP	n/a	LTP084	ltpFR	3	2	n/a	BOSS	152	n/a	n/a	n/a	n/a	n/a	n/a	n/a
2800279	RECOG_CONF	n/a	LTP084	ltpFR	3	2	n/a	BOSS	152	5	n/a	n/a	n/a	n/a	n/a	n/a
2801944	RECOG_TARGET	n/a	LTP084	ltpFR	3	2	-1	PRINTER	1126	5	-1	n/a	n/a	n/a	n/a	n/a
2802753	RECOG_RESP	n/a	LTP084	ltpFR	3	2	-1	PRINTER	1126	n/a	-1	n/a	n/a	n/a	n/a	n/a
2803911	RECOG_CONF	n/a	LTP084	ltpFR	3	2	-1	PRINTER	1126	5	-1	n/a	n/a	n/a	n/a	n/a
2805303	RECOG_LURE	n/a	LTP084	ltpFR	3	2	n/a	BLOSSOM	138	5	n/a	n/a	n/a	n/a	n/a	n/a
2806211	RECOG_RESP	n/a	LTP084	ltpFR	3	2	n/a	BLOSSOM	138	n/a	n/a	n/a	n/a	n/a	n/a	n/a
2807233	RECOG_CONF	n/a	LTP084	ltpFR	3	2	n/a	BLOSSOM	138	5	n/a	n/a	n/a	n/a	n/a	n/a
2808769	RECOG_LURE	n/a	LTP084	ltpFR	3	2	n/a	PUMP	1141	5	n/a	n/a	n/a	n/a	n/a	n/a
2810057	RECOG_RESP	n/a	LTP084	ltpFR	3	2	n/a	PUMP	1141	n/a	n/a	n/a	n/a	n/a	n/a	n/a
2811254	RECOG_CONF	n/a	LTP084	ltpFR	3	2	n/a	PUMP	1141	5	n/a	n/a	n/a	n/a	n/a	n/a
2814829	REC_START	n/a	LTP084	ltpFR	3	3	n/a	n/a	n/a	n/a	n/a	n/a	n/a	n/a	n/a	n/a
2814859	RECOG_TARGET	n/a	LTP084	ltpFR	3	3	0	NICKEL	950	5	0	n/a	n/a	n/a	n/a	n/a
2817538	RECOG_RESP	n/a	LTP084	ltpFR	3	3	0	NICKEL	950	n/a	0	n/a	n/a	n/a	n/a	n/a
2818495	RECOG_CONF	n/a	LTP084	ltpFR	3	3	0	NICKEL	950	5	0	n/a	n/a	n/a	n/a	n/a
2820227	RECOG_LURE	n/a	LTP084	ltpFR	3	3	n/a	SCOUT	1252	5	n/a	n/a	n/a	n/a	n/a	n/a
2820930	RECOG_RESP	n/a	LTP084	ltpFR	3	3	n/a	SCOUT	1252	n/a	n/a	n/a	n/a	n/a	n/a	n/a
2822387	RECOG_CONF	n/a	LTP084	ltpFR	3	3	n/a	SCOUT	1252	5	n/a	n/a	n/a	n/a	n/a	n/a
2824109	RECOG_TARGET	n/a	LTP084	ltpFR	3	3	0	OZONE	996	5	0	n/a	n/a	n/a	n/a	n/a
2824866	RECOG_RESP	n/a	LTP084	ltpFR	3	3	0	OZONE	996	n/a	0	n/a	n/a	n/a	n/a	n/a
2826497	RECOG_CONF	n/a	LTP084	ltpFR	3	3	0	OZONE	996	5	0	n/a	n/a	n/a	n/a	n/a
2828184	RECOG_LURE	n/a	LTP084	ltpFR	3	3	n/a	RACK	1154	5	n/a	n/a	n/a	n/a	n/a	n/a
2829825	RECOG_RESP	n/a	LTP084	ltpFR	3	3	n/a	RACK	1154	n/a	n/a	n/a	n/a	n/a	n/a	n/a
2830738	RECOG_CONF	n/a	LTP084	ltpFR	3	3	n/a	RACK	1154	5	n/a	n/a	n/a	n/a	n/a	n/a
2832367	RECOG_TARGET	n/a	LTP084	ltpFR	3	3	-1	ROSE	1212	5	-1	n/a	n/a	n/a	n/a	n/a
2833162	RECOG_RESP	n/a	LTP084	ltpFR	3	3	-1	ROSE	1212	n/a	-1	n/a	n/a	n/a	n/a	n/a
2834140	RECOG_CONF	n/a	LTP084	ltpFR	3	3	-1	ROSE	1212	5	-1	n/a	n/a	n/a	n/a	n/a
2835717	RECOG_LURE	n/a	LTP084	ltpFR	3	3	n/a	PELT	1040	5	n/a	n/a	n/a	n/a	n/a	n/a
2836704	RECOG_RESP	n/a	LTP084	ltpFR	3	3	n/a	PELT	1040	n/a	n/a	n/a	n/a	n/a	n/a	n/a
2837702	RECOG_CONF	n/a	LTP084	ltpFR	3	3	n/a	PELT	1040	5	n/a	n/a	n/a	n/a	n/a	n/a
2839267	RECOG_TARGET	n/a	LTP084	ltpFR	3	3	0	CAR	241	5	0	n/a	n/a	n/a	n/a	n/a
2840481	RECOG_RESP	n/a	LTP084	ltpFR	3	3	0	CAR	241	n/a	0	n/a	n/a	n/a	n/a	n/a
2841324	RECOG_CONF	n/a	LTP084	ltpFR	3	3	0	CAR	241	5	0	n/a	n/a	n/a	n/a	n/a
2842949	RECOG_TARGET	n/a	LTP084	ltpFR	3	3	0	POISON	1096	5	0	n/a	n/a	n/a	n/a	n/a
2843818	RECOG_RESP	n/a	LTP084	ltpFR	3	3	0	POISON	1096	n/a	0	n/a	n/a	n/a	n/a	n/a
2844846	RECOG_CONF	n/a	LTP084	ltpFR	3	3	0	POISON	1096	5	0	n/a	n/a	n/a	n/a	n/a
2846483	RECOG_TARGET	n/a	LTP084	ltpFR	3	3	0	SATURN	1236	5	0	n/a	n/a	n/a	n/a	n/a
2847390	RECOG_RESP	n/a	LTP084	ltpFR	3	3	0	SATURN	1236	n/a	0	n/a	n/a	n/a	n/a	n/a
2848577	RECOG_CONF	n/a	LTP084	ltpFR	3	3	0	SATURN	1236	5	0	n/a	n/a	n/a	n/a	n/a
2850015	RECOG_TARGET	n/a	LTP084	ltpFR	3	3	1	CASKET	255	5	0	n/a	n/a	n/a	n/a	n/a
2850887	RECOG_RESP	n/a	LTP084	ltpFR	3	3	1	CASKET	255	n/a	0	n/a	n/a	n/a	n/a	n/a
2852009	RECOG_CONF	n/a	LTP084	ltpFR	3	3	1	CASKET	255	5	0	n/a	n/a	n/a	n/a	n/a
2853641	RECOG_TARGET	n/a	LTP084	ltpFR	3	3	1	CUSTARD	429	5	0	n/a	n/a	n/a	n/a	n/a
2854234	RECOG_RESP	n/a	LTP084	ltpFR	3	3	1	CUSTARD	429	n/a	0	n/a	n/a	n/a	n/a	n/a
2855282	RECOG_CONF	n/a	LTP084	ltpFR	3	3	1	CUSTARD	429	5	0	n/a	n/a	n/a	n/a	n/a
2856741	RECOG_TARGET	n/a	LTP084	ltpFR	3	3	0	STREAM	1392	5	0	n/a	n/a	n/a	n/a	n/a
2857402	RECOG_RESP	n/a	LTP084	ltpFR	3	3	0	STREAM	1392	n/a	0	n/a	n/a	n/a	n/a	n/a
2858465	RECOG_CONF	n/a	LTP084	ltpFR	3	3	0	STREAM	1392	5	0	n/a	n/a	n/a	n/a	n/a
2859939	RECOG_LURE	n/a	LTP084	ltpFR	3	3	n/a	PIANO	1057	5	n/a	n/a	n/a	n/a	n/a	n/a
2860919	RECOG_RESP_VV	n/a	LTP084	ltpFR	3	3	n/a	PIANO	1057	n/a	n/a	n/a	n/a	n/a	n/a	n/a
2864775	RECOG_RESP	n/a	LTP084	ltpFR	3	3	n/a	PIANO	1057	n/a	n/a	n/a	n/a	n/a	n/a	n/a
2865778	RECOG_CONF	n/a	LTP084	ltpFR	3	3	n/a	PIANO	1057	5	n/a	n/a	n/a	n/a	n/a	n/a
2867423	RECOG_TARGET	n/a	LTP084	ltpFR	3	3	0	KITCHEN	778	5	0	n/a	n/a	n/a	n/a	n/a
2868173	RECOG_RESP	n/a	LTP084	ltpFR	3	3	0	KITCHEN	778	n/a	0	n/a	n/a	n/a	n/a	n/a
2869310	RECOG_CONF	n/a	LTP084	ltpFR	3	3	0	KITCHEN	778	5	0	n/a	n/a	n/a	n/a	n/a
2870781	RECOG_TARGET	n/a	LTP084	ltpFR	3	3	1	BRIDGE	174	5	0	n/a	n/a	n/a	n/a	n/a
2871440	RECOG_RESP	n/a	LTP084	ltpFR	3	3	1	BRIDGE	174	n/a	0	n/a	n/a	n/a	n/a	n/a
2872423	RECOG_CONF	n/a	LTP084	ltpFR	3	3	1	BRIDGE	174	5	0	n/a	n/a	n/a	n/a	n/a
2874055	RECOG_LURE	n/a	LTP084	ltpFR	3	3	n/a	FUGITIVE	612	5	n/a	n/a	n/a	n/a	n/a	n/a
2874857	RECOG_RESP	n/a	LTP084	ltpFR	3	3	n/a	FUGITIVE	612	n/a	n/a	n/a	n/a	n/a	n/a	n/a
2875815	RECOG_CONF	n/a	LTP084	ltpFR	3	3	n/a	FUGITIVE	612	5	n/a	n/a	n/a	n/a	n/a	n/a
2877381	RECOG_TARGET	n/a	LTP084	ltpFR	3	3	1	AUTHOR	61	5	0	n/a	n/a	n/a	n/a	n/a
2878095	RECOG_RESP	n/a	LTP084	ltpFR	3	3	1	AUTHOR	61	n/a	0	n/a	n/a	n/a	n/a	n/a
2879048	RECOG_CONF	n/a	LTP084	ltpFR	3	3	1	AUTHOR	61	5	0	n/a	n/a	n/a	n/a	n/a
2880547	RECOG_TARGET	n/a	LTP084	ltpFR	3	3	1	ATLAS	53	5	0	n/a	n/a	n/a	n/a	n/a
2881203	RECOG_RESP	n/a	LTP084	ltpFR	3	3	1	ATLAS	53	n/a	0	n/a	n/a	n/a	n/a	n/a
2882360	RECOG_CONF	n/a	LTP084	ltpFR	3	3	1	ATLAS	53	5	0	n/a	n/a	n/a	n/a	n/a
2883888	RECOG_TARGET	n/a	LTP084	ltpFR	3	3	1	TROUSERS	1510	5	0	n/a	n/a	n/a	n/a	n/a
2884765	RECOG_RESP	n/a	LTP084	ltpFR	3	3	1	TROUSERS	1510	n/a	0	n/a	n/a	n/a	n/a	n/a
2885812	RECOG_CONF	n/a	LTP084	ltpFR	3	3	1	TROUSERS	1510	5	0	n/a	n/a	n/a	n/a	n/a
2887322	RECOG_LURE	n/a	LTP084	ltpFR	3	3	n/a	JELLO	754	5	n/a	n/a	n/a	n/a	n/a	n/a
2888267	RECOG_RESP	n/a	LTP084	ltpFR	3	3	n/a	JELLO	754	n/a	n/a	n/a	n/a	n/a	n/a	n/a
2889255	RECOG_CONF	n/a	LTP084	ltpFR	3	3	n/a	JELLO	754	5	n/a	n/a	n/a	n/a	n/a	n/a
2892492	REC_START	n/a	LTP084	ltpFR	3	4	n/a	n/a	n/a	n/a	n/a	n/a	n/a	n/a	n/a	n/a
2892530	RECOG_TARGET	n/a	LTP084	ltpFR	3	4	-1	SUSPECT	1415	5	-1	n/a	n/a	n/a	n/a	n/a
2893385	RECOG_RESP	n/a	LTP084	ltpFR	3	4	-1	SUSPECT	1415	n/a	-1	n/a	n/a	n/a	n/a	n/a
2894383	RECOG_CONF	n/a	LTP084	ltpFR	3	4	-1	SUSPECT	1415	5	-1	n/a	n/a	n/a	n/a	n/a
2895953	RECOG_TARGET	n/a	LTP084	ltpFR	3	4	1	BOYFRIEND	162	5	0	n/a	n/a	n/a	n/a	n/a
2896747	RECOG_RESP	n/a	LTP084	ltpFR	3	4	1	BOYFRIEND	162	n/a	0	n/a	n/a	n/a	n/a	n/a
2897705	RECOG_CONF	n/a	LTP084	ltpFR	3	4	1	BOYFRIEND	162	5	0	n/a	n/a	n/a	n/a	n/a
2899287	RECOG_TARGET	n/a	LTP084	ltpFR	3	4	1	NAPKIN	937	5	0	n/a	n/a	n/a	n/a	n/a
2901486	RECOG_RESP	n/a	LTP084	ltpFR	3	4	1	NAPKIN	937	n/a	0	n/a	n/a	n/a	n/a	n/a
2902364	RECOG_CONF	n/a	LTP084	ltpFR	3	4	1	NAPKIN	937	5	0	n/a	n/a	n/a	n/a	n/a
2903944	RECOG_LURE	n/a	LTP084	ltpFR	3	4	n/a	BOLT	146	5	n/a	n/a	n/a	n/a	n/a	n/a
2905936	RECOG_RESP	n/a	LTP084	ltpFR	3	4	n/a	BOLT	146	n/a	n/a	n/a	n/a	n/a	n/a	n/a
2906984	RECOG_CONF	n/a	LTP084	ltpFR	3	4	n/a	BOLT	146	5	n/a	n/a	n/a	n/a	n/a	n/a
2908645	RECOG_LURE	n/a	LTP084	ltpFR	3	4	n/a	LEG	809	5	n/a	n/a	n/a	n/a	n/a	n/a
2909533	RECOG_RESP	n/a	LTP084	ltpFR	3	4	n/a	LEG	809	n/a	n/a	n/a	n/a	n/a	n/a	n/a
2910506	RECOG_CONF	n/a	LTP084	ltpFR	3	4	n/a	LEG	809	5	n/a	n/a	n/a	n/a	n/a	n/a
2912203	RECOG_LURE	n/a	LTP084	ltpFR	3	4	n/a	FELLOW	558	5	n/a	n/a	n/a	n/a	n/a	n/a
2913285	RECOG_RESP	n/a	LTP084	ltpFR	3	4	n/a	FELLOW	558	n/a	n/a	n/a	n/a	n/a	n/a	n/a
2914547	RECOG_CONF	n/a	LTP084	ltpFR	3	4	n/a	FELLOW	558	5	n/a	n/a	n/a	n/a	n/a	n/a
2916102	RECOG_TARGET	n/a	LTP084	ltpFR	3	4	-1	VILLAIN	1567	5	-1	n/a	n/a	n/a	n/a	n/a
2916991	RECOG_RESP	n/a	LTP084	ltpFR	3	4	-1	VILLAIN	1567	n/a	-1	n/a	n/a	n/a	n/a	n/a
2918079	RECOG_CONF	n/a	LTP084	ltpFR	3	4	-1	VILLAIN	1567	5	-1	n/a	n/a	n/a	n/a	n/a
2919653	RECOG_TARGET	n/a	LTP084	ltpFR	3	4	0	TEENAGER	1444	5	0	n/a	n/a	n/a	n/a	n/a
2920363	RECOG_RESP	n/a	LTP084	ltpFR	3	4	0	TEENAGER	1444	n/a	0	n/a	n/a	n/a	n/a	n/a
2921421	RECOG_CONF	n/a	LTP084	ltpFR	3	4	0	TEENAGER	1444	5	0	n/a	n/a	n/a	n/a	n/a
2923010	RECOG_TARGET	n/a	LTP084	ltpFR	3	4	1	VIKING	1565	5	0	n/a	n/a	n/a	n/a	n/a
2923801	RECOG_RESP	n/a	LTP084	ltpFR	3	4	1	VIKING	1565	n/a	0	n/a	n/a	n/a	n/a	n/a
2924773	RECOG_CONF	n/a	LTP084	ltpFR	3	4	1	VIKING	1565	5	0	n/a	n/a	n/a	n/a	n/a
2926377	RECOG_TARGET	n/a	LTP084	ltpFR	3	4	0	PARROT	1015	5	1	n/a	n/a	n/a	n/a	n/a
2927043	RECOG_RESP	n/a	LTP084	ltpFR	3	4	0	PARROT	1015	n/a	1	n/a	n/a	n/a	n/a	n/a
2928086	RECOG_CONF	n/a	LTP084	ltpFR	3	4	0	PARROT	1015	5	1	n/a	n/a	n/a	n/a	n/a
2929727	RECOG_TARGET	n/a	LTP084	ltpFR	3	4	0	PORCH	1106	5	0	n/a	n/a	n/a	n/a	n/a
2931074	RECOG_RESP	n/a	LTP084	ltpFR	3	4	0	PORCH	1106	n/a	0	n/a	n/a	n/a	n/a	n/a
2932057	RECOG_CONF	n/a	LTP084	ltpFR	3	4	0	PORCH	1106	5	0	n/a	n/a	n/a	n/a	n/a
2933668	RECOG_TARGET	n/a	LTP084	ltpFR	3	4	0	DICTIONARY	463	5	0	n/a	n/a	n/a	n/a	n/a
2934317	RECOG_RESP	n/a	LTP084	ltpFR	3	4	0	DICTIONARY	463	n/a	0	n/a	n/a	n/a	n/a	n/a
2935349	RECOG_CONF	n/a	LTP084	ltpFR	3	4	0	DICTIONARY	463	5	0	n/a	n/a	n/a	n/a	n/a
2936934	RECOG_LURE	n/a	LTP084	ltpFR	3	4	n/a	NUN	962	5	n/a	n/a	n/a	n/a	n/a	n/a
2937784	RECOG_RESP	n/a	LTP084	ltpFR	3	4	n/a	NUN	962	n/a	n/a	n/a	n/a	n/a	n/a	n/a
2938762	RECOG_CONF	n/a	LTP084	ltpFR	3	4	n/a	NUN	962	5	n/a	n/a	n/a	n/a	n/a	n/a
2940309	RECOG_TARGET	n/a	LTP084	ltpFR	3	4	0	TRAY	1498	5	0	n/a	n/a	n/a	n/a	n/a
2941146	RECOG_RESP	n/a	LTP084	ltpFR	3	4	0	TRAY	1498	n/a	0	n/a	n/a	n/a	n/a	n/a
2942224	RECOG_CONF	n/a	LTP084	ltpFR	3	4	0	TRAY	1498	5	0	n/a	n/a	n/a	n/a	n/a
2943584	RECOG_TARGET	n/a	LTP084	ltpFR	3	4	1	LASER	801	5	0	n/a	n/a	n/a	n/a	n/a
2944529	RECOG_RESP	n/a	LTP084	ltpFR	3	4	1	LASER	801	n/a	0	n/a	n/a	n/a	n/a	n/a
2945407	RECOG_CONF	n/a	LTP084	ltpFR	3	4	1	LASER	801	5	0	n/a	n/a	n/a	n/a	n/a
2947075	RECOG_LURE	n/a	LTP084	ltpFR	3	4	n/a	MAILMAN	858	5	n/a	n/a	n/a	n/a	n/a	n/a
2948160	RECOG_RESP	n/a	LTP084	ltpFR	3	4	n/a	MAILMAN	858	n/a	n/a	n/a	n/a	n/a	n/a	n/a
2949208	RECOG_CONF	n/a	LTP084	ltpFR	3	4	n/a	MAILMAN	858	5	n/a	n/a	n/a	n/a	n/a	n/a
2950592	RECOG_TARGET	n/a	LTP084	ltpFR	3	4	0	CHILD	299	5	0	n/a	n/a	n/a	n/a	n/a
2951333	RECOG_RESP	n/a	LTP084	ltpFR	3	4	0	CHILD	299	n/a	0	n/a	n/a	n/a	n/a	n/a
2952231	RECOG_CONF	n/a	LTP084	ltpFR	3	4	0	CHILD	299	5	0	n/a	n/a	n/a	n/a	n/a
2953792	RECOG_TARGET	n/a	LTP084	ltpFR	3	4	-1	BASKETBALL	96	5	-1	n/a	n/a	n/a	n/a	n/a
2954476	RECOG_RESP	n/a	LTP084	ltpFR	3	4	-1	BASKETBALL	96	n/a	-1	n/a	n/a	n/a	n/a	n/a
2955583	RECOG_CONF	n/a	LTP084	ltpFR	3	4	-1	BASKETBALL	96	5	-1	n/a	n/a	n/a	n/a	n/a
2957216	RECOG_LURE	n/a	LTP084	ltpFR	3	4	n/a	VAULT	1550	5	n/a	n/a	n/a	n/a	n/a	n/a
2957998	RECOG_RESP	n/a	LTP084	ltpFR	3	4	n/a	VAULT	1550	n/a	n/a	n/a	n/a	n/a	n/a	n/a
2958986	RECOG_CONF	n/a	LTP084	ltpFR	3	4	n/a	VAULT	1550	5	n/a	n/a	n/a	n/a	n/a	n/a
2960458	RECOG_TARGET	n/a	LTP084	ltpFR	3	4	1	RANCH	1166	5	0	n/a	n/a	n/a	n/a	n/a
2961520	RECOG_RESP	n/a	LTP084	ltpFR	3	4	1	RANCH	1166	n/a	0	n/a	n/a	n/a	n/a	n/a
2962617	RECOG_CONF	n/a	LTP084	ltpFR	3	4	1	RANCH	1166	5	0	n/a	n/a	n/a	n/a	n/a
2966346	REC_START	n/a	LTP084	ltpFR	3	5	n/a	n/a	n/a	n/a	n/a	n/a	n/a	n/a	n/a	n/a
2966382	RECOG_TARGET	n/a	LTP084	ltpFR	3	5	-1	TREAD	1499	5	-1	n/a	n/a	n/a	n/a	n/a
2967119	RECOG_RESP	n/a	LTP084	ltpFR	3	5	-1	TREAD	1499	n/a	-1	n/a	n/a	n/a	n/a	n/a
2968227	RECOG_CONF	n/a	LTP084	ltpFR	3	5	-1	TREAD	1499	5	-1	n/a	n/a	n/a	n/a	n/a
2969799	RECOG_TARGET	n/a	LTP084	ltpFR	3	5	1	PAGE	1001	5	2	n/a	n/a	n/a	n/a	n/a
2970851	RECOG_RESP	n/a	LTP084	ltpFR	3	5	1	PAGE	1001	n/a	2	n/a	n/a	n/a	n/a	n/a
2971938	RECOG_CONF	n/a	LTP084	ltpFR	3	5	1	PAGE	1001	5	2	n/a	n/a	n/a	n/a	n/a
2973340	RECOG_TARGET	n/a	LTP084	ltpFR	3	5	0	CLAY	320	5	0	n/a	n/a	n/a	n/a	n/a
2974432	RECOG_RESP	n/a	LTP084	ltpFR	3	5	0	CLAY	320	n/a	0	n/a	n/a	n/a	n/a	n/a
2975580	RECOG_CONF	n/a	LTP084	ltpFR	3	5	0	CLAY	320	5	0	n/a	n/a	n/a	n/a	n/a
2977122	RECOG_TARGET	n/a	LTP084	ltpFR	3	5	-1	MAGNET	855	5	-1	n/a	n/a	n/a	n/a	n/a
2977805	RECOG_RESP	n/a	LTP084	ltpFR	3	5	-1	MAGNET	855	n/a	-1	n/a	n/a	n/a	n/a	n/a
2978753	RECOG_CONF	n/a	LTP084	ltpFR	3	5	-1	MAGNET	855	5	-1	n/a	n/a	n/a	n/a	n/a
2980240	RECOG_TARGET	n/a	LTP084	ltpFR	3	5	1	PEAR	1033	5	1	n/a	n/a	n/a	n/a	n/a
2981157	RECOG_RESP_VV	n/a	LTP084	ltpFR	3	5	1	PEAR	1033	n/a	1	n/a	n/a	n/a	n/a	n/a
2982843	RECOG_RESP	n/a	LTP084	ltpFR	3	5	1	PEAR	1033	n/a	1	n/a	n/a	n/a	n/a	n/a
2984340	RECOG_CONF	n/a	LTP084	ltpFR	3	5	1	PEAR	1033	5	1	n/a	n/a	n/a	n/a	n/a
2985872	RECOG_TARGET	n/a	LTP084	ltpFR	3	5	0	SMOG	1330	5	0	n/a	n/a	n/a	n/a	n/a
2986715	RECOG_RESP	n/a	LTP084	ltpFR	3	5	0	SMOG	1330	n/a	0	n/a	n/a	n/a	n/a	n/a
2987722	RECOG_CONF	n/a	LTP084	ltpFR	3	5	0	SMOG	1330	5	0	n/a	n/a	n/a	n/a	n/a
2989647	RECOG_LURE	n/a	LTP084	ltpFR	3	5	n/a	SNOB	1335	5	n/a	n/a	n/a	n/a	n/a	n/a
2991783	RECOG_RESP	n/a	LTP084	ltpFR	3	5	n/a	SNOB	1335	n/a	n/a	n/a	n/a	n/a	n/a	n/a
2992990	RECOG_CONF	n/a	LTP084	ltpFR	3	5	n/a	SNOB	1335	5	n/a	n/a	n/a	n/a	n/a	n/a
2994605	RECOG_TARGET	n/a	LTP084	ltpFR	3	5	0	FRECKLE	602	5	0	n/a	n/a	n/a	n/a	n/a
2995395	RECOG_RESP	n/a	LTP084	ltpFR	3	5	0	FRECKLE	602	n/a	0	n/a	n/a	n/a	n/a	n/a
2996482	RECOG_CONF	n/a	LTP084	ltpFR	3	5	0	FRECKLE	602	5	0	n/a	n/a	n/a	n/a	n/a
2998121	RECOG_TARGET	n/a	LTP084	ltpFR	3	5	-1	BIOLOGIST	128	5	-1	n/a	n/a	n/a	n/a	n/a
2998897	RECOG_RESP	n/a	LTP084	ltpFR	3	5	-1	BIOLOGIST	128	n/a	-1	n/a	n/a	n/a	n/a	n/a
3000014	RECOG_CONF	n/a	LTP084	ltpFR	3	5	-1	BIOLOGIST	128	5	-1	n/a	n/a	n/a	n/a	n/a
3001646	RECOG_LURE	n/a	LTP084	ltpFR	3	5	n/a	FLY	586	5	n/a	n/a	n/a	n/a	n/a	n/a
3003621	RECOG_RESP	n/a	LTP084	ltpFR	3	5	n/a	FLY	586	n/a	n/a	n/a	n/a	n/a	n/a	n/a
3004773	RECOG_CONF	n/a	LTP084	ltpFR	3	5	n/a	FLY	586	5	n/a	n/a	n/a	n/a	n/a	n/a
3006229	RECOG_TARGET	n/a	LTP084	ltpFR	3	5	0	STEAM	1375	5	0	n/a	n/a	n/a	n/a	n/a
3006959	RECOG_RESP	n/a	LTP084	ltpFR	3	5	0	STEAM	1375	n/a	0	n/a	n/a	n/a	n/a	n/a
3008226	RECOG_CONF	n/a	LTP084	ltpFR	3	5	0	STEAM	1375	5	0	n/a	n/a	n/a	n/a	n/a
3009621	RECOG_TARGET	n/a	LTP084	ltpFR	3	5	0	ACROBAT	4	1	0	n/a	n/a	n/a	n/a	n/a
3010690	RECOG_RESP	n/a	LTP084	ltpFR	3	5	0	ACROBAT	4	n/a	0	n/a	n/a	n/a	n/a	n/a
3012007	RECOG_CONF	n/a	LTP084	ltpFR	3	5	0	ACROBAT	4	1	0	n/a	n/a	n/a	n/a	n/a
3013587	RECOG_TARGET	n/a	LTP084	ltpFR	3	5	1	SCREEN	1253	5	0	n/a	n/a	n/a	n/a	n/a
3015514	RECOG_RESP_VV	n/a	LTP084	ltpFR	3	5	1	SCREEN	1253	n/a	0	n/a	n/a	n/a	n/a	n/a
3018168	RECOG_RESP	n/a	LTP084	ltpFR	3	5	1	SCREEN	1253	n/a	0	n/a	n/a	n/a	n/a	n/a
3019370	RECOG_CONF	n/a	LTP084	ltpFR	3	5	1	SCREEN	1253	5	0	n/a	n/a	n/a	n/a	n/a
3021019	RECOG_TARGET	n/a	LTP084	ltpFR	3	5	1	WINE	1613	5	0	n/a	n/a	n/a	n/a	n/a
3021900	RECOG_RESP	n/a	LTP084	ltpFR	3	5	1	WINE	1613	n/a	0	n/a	n/a	n/a	n/a	n/a
3023052	RECOG_CONF	n/a	LTP084	ltpFR	3	5	1	WINE	1613	5	0	n/a	n/a	n/a	n/a	n/a
3024561	RECOG_LURE	n/a	LTP084	ltpFR	3	5	n/a	APPLE	33	5	n/a	n/a	n/a	n/a	n/a	n/a
3025446	RECOG_RESP	n/a	LTP084	ltpFR	3	5	n/a	APPLE	33	n/a	n/a	n/a	n/a	n/a	n/a	n/a
3026474	RECOG_CONF	n/a	LTP084	ltpFR	3	5	n/a	APPLE	33	5	n/a	n/a	n/a	n/a	n/a	n/a
3028052	RECOG_LURE	n/a	LTP084	ltpFR	3	5	n/a	ELBOW	520	5	n/a	n/a	n/a	n/a	n/a	n/a
3029183	RECOG_RESP	n/a	LTP084	ltpFR	3	5	n/a	ELBOW	520	n/a	n/a	n/a	n/a	n/a	n/a	n/a
3030266	RECOG_CONF	n/a	LTP084	ltpFR	3	5	n/a	ELBOW	520	5	n/a	n/a	n/a	n/a	n/a	n/a
3031852	RECOG_LURE	n/a	LTP084	ltpFR	3	5	n/a	ENCYCLOPEDIA	533	5	n/a	n/a	n/a	n/a	n/a	n/a
3032964	RECOG_RESP	n/a	LTP084	ltpFR	3	5	n/a	ENCYCLOPEDIA	533	n/a	n/a	n/a	n/a	n/a	n/a	n/a
3034207	RECOG_CONF	n/a	LTP084	ltpFR	3	5	n/a	ENCYCLOPEDIA	533	5	n/a	n/a	n/a	n/a	n/a	n/a
3035786	RECOG_LURE	n/a	LTP084	ltpFR	3	5	n/a	LUMBER	848	5	n/a	n/a	n/a	n/a	n/a	n/a
3038577	RECOG_RESP	n/a	LTP084	ltpFR	3	5	n/a	LUMBER	848	n/a	n/a	n/a	n/a	n/a	n/a	n/a
3040223	RECOG_CONF	n/a	LTP084	ltpFR	3	5	n/a	LUMBER	848	5	n/a	n/a	n/a	n/a	n/a	n/a
3042092	RECOG_LURE	n/a	LTP084	ltpFR	3	5	n/a	GRAPE	654	5	n/a	n/a	n/a	n/a	n/a	n/a
3043800	RECOG_RESP	n/a	LTP084	ltpFR	3	5	n/a	GRAPE	654	n/a	n/a	n/a	n/a	n/a	n/a	n/a
3045152	RECOG_CONF	n/a	LTP084	ltpFR	3	5	n/a	GRAPE	654	5	n/a	n/a	n/a	n/a	n/a	n/a
3046718	RECOG_LURE	n/a	LTP084	ltpFR	3	5	n/a	WHEAT	1602	5	n/a	n/a	n/a	n/a	n/a	n/a
3047536	RECOG_RESP	n/a	LTP084	ltpFR	3	5	n/a	WHEAT	1602	n/a	n/a	n/a	n/a	n/a	n/a	n/a
3048793	RECOG_CONF	n/a	LTP084	ltpFR	3	5	n/a	WHEAT	1602	5	n/a	n/a	n/a	n/a	n/a	n/a
3060292	REC_START	n/a	LTP084	ltpFR	3	6	n/a	n/a	n/a	n/a	n/a	n/a	n/a	n/a	n/a	n/a
3060325	RECOG_TARGET	n/a	LTP084	ltpFR	3	6	0	BASEBALL	93	n/a	0	n/a	n/a	n/a	n/a	n/a
3064991	RECOG_TARGET	n/a	LTP084	ltpFR	3	6	-1	TULIP	1517	n/a	-1	n/a	n/a	n/a	n/a	n/a
3069441	RECOG_TARGET	n/a	LTP084	ltpFR	3	6	-1	SOFTBALL	1343	n/a	-1	n/a	n/a	n/a	n/a	n/a
3081065	RECOG_LURE	n/a	LTP084	ltpFR	3	6	n/a	REFEREE	1178	n/a	n/a	n/a	n/a	n/a	n/a	n/a
3099888	RECOG_TARGET	n/a	LTP084	ltpFR	3	6	1	JAR	750	n/a	0	n/a	n/a	n/a	n/a	n/a
3130645	RECOG_TARGET	n/a	LTP084	ltpFR	3	6	1	BROOM	178	n/a	0	n/a	n/a	n/a	n/a	n/a
3150018	RECOG_TARGET	n/a	LTP084	ltpFR	3	6	-1	SCALPEL	1243	n/a	-1	n/a	n/a	n/a	n/a	n/a
3164067	RECOG_TARGET	n/a	LTP084	ltpFR	3	6	0	CROOK	412	n/a	0	n/a	n/a	n/a	n/a	n/a
3174916	RECOG_TARGET	n/a	LTP084	ltpFR	3	6	0	COUNTY	389	n/a	0	n/a	n/a	n/a	n/a	n/a
3179965	RECOG_TARGET	n/a	LTP084	ltpFR	3	6	-1	SHRINE	1298	n/a	-1	n/a	n/a	n/a	n/a	n/a
3184741	RECOG_TARGET	n/a	LTP084	ltpFR	3	6	0	MAPLE	866	n/a	0	n/a	n/a	n/a	n/a	n/a
3191881	RECOG_TARGET	n/a	LTP084	ltpFR	3	6	1	COIN	343	n/a	0	n/a	n/a	n/a	n/a	n/a
3197549	RECOG_TARGET	n/a	LTP084	ltpFR	3	6	1	CRIMINAL	409	n/a	0	n/a	n/a	n/a	n/a	n/a
3203431	RECOG_TARGET	n/a	LTP084	ltpFR	3	6	0	KETCHUP	771	n/a	0	n/a	n/a	n/a	n/a	n/a
3209022	RECOG_TARGET	n/a	LTP084	ltpFR	3	6	1	SPIT	1354	n/a	0	n/a	n/a	n/a	n/a	n/a
3223372	RECOG_TARGET	n/a	LTP084	ltpFR	3	6	1	CAN	225	n/a	0	n/a	n/a	n/a	n/a	n/a
3228446	RECOG_TARGET	n/a	LTP084	ltpFR	3	6	0	CATCHER	258	n/a	0	n/a	n/a	n/a	n/a	n/a
3231995	RECOG_TARGET	n/a	LTP084	ltpFR	3	6	1	PASTA	1021	n/a	0	n/a	n/a	n/a	n/a	n/a
3235746	RECOG_TARGET	n/a	LTP084	ltpFR	3	6	1	COCKTAIL	338	n/a	0	n/a	n/a	n/a	n/a	n/a
3239512	RECOG_TARGET	n/a	LTP084	ltpFR	3	6	0	GLACIER	638	n/a	0	n/a	n/a	n/a	n/a	n/a
3265448	REC_START	n/a	LTP084	ltpFR	3	7	n/a	n/a	n/a	n/a	n/a	n/a	n/a	n/a	n/a	n/a
3265485	RECOG_LURE	n/a	LTP084	ltpFR	3	7	n/a	DRUM	502	n/a	n/a	n/a	n/a	n/a	n/a	n/a
3271167	RECOG_TARGET	n/a	LTP084	ltpFR	3	7	0	WORKER	1621	n/a	0	n/a	n/a	n/a	n/a	n/a
3280767	RECOG_LURE	n/a	LTP084	ltpFR	3	7	n/a	COBWEB	337	n/a	n/a	n/a	n/a	n/a	n/a	n/a
3285275	RECOG_TARGET	n/a	LTP084	ltpFR	3	7	0	CRATER	400	n/a	0	n/a	n/a	n/a	n/a	n/a
3289924	RECOG_LURE	n/a	LTP084	ltpFR	3	7	n/a	OCEAN	970	n/a	n/a	n/a	n/a	n/a	n/a	n/a
3294057	RECOG_LURE	n/a	LTP084	ltpFR	3	7	n/a	COW	393	n/a	n/a	n/a	n/a	n/a	n/a	n/a
3298499	RECOG_TARGET	n/a	LTP084	ltpFR	3	7	-1	PLANT	1083	n/a	-1	n/a	n/a	n/a	n/a	n/a
3302799	RECOG_LURE	n/a	LTP084	ltpFR	3	7	n/a	GLASSES	640	n/a	n/a	n/a	n/a	n/a	n/a	n/a
3307407	RECOG_TARGET	n/a	LTP084	ltpFR	3	7	-1	CLIMBER	323	n/a	-1	n/a	n/a	n/a	n/a	n/a
3311964	RECOG_TARGET	n/a	LTP084	ltpFR	3	7	-1	QUEEN	1149	n/a	-1	n/a	n/a	n/a	n/a	n/a
3316206	RECOG_LURE	n/a	LTP084	ltpFR	3	7	n/a	SWAN	1417	n/a	n/a	n/a	n/a	n/a	n/a	n/a
3320223	RECOG_TARGET	n/a	LTP084	ltpFR	3	7	0	MOOSE	915	n/a	0	n/a	n/a	n/a	n/a	n/a
3325314	RECOG_LURE	n/a	LTP084	ltpFR	3	7	n/a	SKATE	1313	n/a	n/a	n/a	n/a	n/a	n/a	n/a
3329239	RECOG_LURE	n/a	LTP084	ltpFR	3	7	n/a	WRENCH	1625	n/a	n/a	n/a	n/a	n/a	n/a	n/a
3333797	RECOG_TARGET	n/a	LTP084	ltpFR	3	7	-1	RECIPE	1175	n/a	-1	n/a	n/a	n/a	n/a	n/a
3338213	RECOG_TARGET	n/a	LTP084	ltpFR	3	7	1	LETTUCE	814	n/a	0	n/a	n/a	n/a	n/a	n/a
3342413	RECOG_TARGET	n/a	LTP084	ltpFR	3	7	1	MUFFIN	929	n/a	0	n/a	n/a	n/a	n/a	n/a
3346396	RECOG_TARGET	n/a	LTP084	ltpFR	3	7	-1	FIDDLE	561	n/a	-1	n/a	n/a	n/a	n/a	n/a
3350729	RECOG_TARGET	n/a	LTP084	ltpFR	3	7	0	VOLUNTEER	1577	n/a	0	n/a	n/a	n/a	n/a	n/a
3354670	RECOG_TARGET	n/a	LTP084	ltpFR	3	7	-1	ALBUM	14	n/a	-1	n/a	n/a	n/a	n/a	n/a
3384805	REC_START	n/a	LTP084	ltpFR	3	8	n/a	n/a	n/a	n/a	n/a	n/a	n/a	n/a	n/a	n/a
3384843	RECOG_TARGET	n/a	LTP084	ltpFR	3	8	1	AUDIENCE	59	n/a	0	n/a	n/a	n/a	n/a	n/a
3389567	RECOG_TARGET	n/a	LTP084	ltpFR	3	8	1	GARLIC	624	n/a	0	n/a	n/a	n/a	n/a	n/a
3393551	RECOG_TARGET	n/a	LTP084	ltpFR	3	8	0	POLITICIAN	1099	n/a	0	n/a	n/a	n/a	n/a	n/a
3397492	RECOG_TARGET	n/a	LTP084	ltpFR	3	8	0	DIGGER	464	n/a	0	n/a	n/a	n/a	n/a	n/a
3401383	RECOG_LURE	n/a	LTP084	ltpFR	3	8	n/a	TOOTHBRUSH	1482	n/a	n/a	n/a	n/a	n/a	n/a	n/a
3405516	RECOG_TARGET	n/a	LTP084	ltpFR	3	8	-1	TICK	1463	n/a	-1	n/a	n/a	n/a	n/a	n/a
3409541	RECOG_TARGET	n/a	LTP084	ltpFR	3	8	1	CHEST	295	n/a	0	n/a	n/a	n/a	n/a	n/a
3413216	RECOG_TARGET	n/a	LTP084	ltpFR	3	8	-1	BOAT	144	n/a	-1	n/a	n/a	n/a	n/a	n/a
3418557	RECOG_LURE	n/a	LTP084	ltpFR	3	8	n/a	MASCARA	875	n/a	n/a	n/a	n/a	n/a	n/a	n/a
3422765	RECOG_TARGET	n/a	LTP084	ltpFR	3	8	0	KEYBOARD	774	n/a	0	n/a	n/a	n/a	n/a	n/a
3426440	RECOG_TARGET	n/a	LTP084	ltpFR	3	8	1	PENGUIN	1044	n/a	n/a	n/a	n/a	n/a	n/a	n/a
3430289	RECOG_TARGET	n/a	LTP084	ltpFR	3	8	1	LAMP	798	n/a	0	n/a	n/a	n/a	n/a	n/a
3434414	RECOG_TARGET	n/a	LTP084	ltpFR	3	8	1	TUBA	1515	n/a	0	n/a	n/a	n/a	n/a	n/a
3438280	RECOG_TARGET	n/a	LTP084	ltpFR	3	8	1	FORT	595	n/a	0	n/a	n/a	n/a	n/a	n/a
3446588	RECOG_TARGET	n/a	LTP084	ltpFR	3	8	-1	CAFE	216	n/a	-1	n/a	n/a	n/a	n/a	n/a
3450571	RECOG_TARGET	n/a	LTP084	ltpFR	3	8	1	SAP	1233	n/a	0	n/a	n/a	n/a	n/a	n/a
3455196	RECOG_LURE	n/a	LTP084	ltpFR	3	8	n/a	PATIENT	1024	n/a	n/a	n/a	n/a	n/a	n/a	n/a
3460045	RECOG_TARGET	n/a	LTP084	ltpFR	3	8	-1	SHEPHERD	1283	n/a	-1	n/a	n/a	n/a	n/a	n/a
3464254	RECOG_TARGET	n/a	LTP084	ltpFR	3	8	1	CARDINAL	244	n/a	0	n/a	n/a	n/a	n/a	n/a
3468061	RECOG_TARGET	n/a	LTP084	ltpFR	3	8	-1	SLOPE	1328	n/a	-1	n/a	n/a	n/a	n/a	n/a
3474848	REC_START	n/a	LTP084	ltpFR	3	9	n/a	n/a	n/a	n/a	n/a	n/a	n/a	n/a	n/a	n/a
3474885	RECOG_TARGET	n/a	LTP084	ltpFR	3	9	0	DELINQUENT	445	n/a	0	n/a	n/a	n/a	n/a	n/a
3478627	RECOG_LURE	n/a	LTP084	ltpFR	3	9	n/a	PIKE	1067	n/a	n/a	n/a	n/a	n/a	n/a	n/a
3483610	RECOG_TARGET	n/a	LTP084	ltpFR	3	9	1	LUNG	850	n/a	0	n/a	n/a	n/a	n/a	n/a
3487167	RECOG_LURE	n/a	LTP084	ltpFR	3	9	n/a	BUYER	208	n/a	n/a	n/a	n/a	n/a	n/a	n/a
3490967	RECOG_TARGET	n/a	LTP084	ltpFR	3	9	1	MONKEY	911	n/a	0	n/a	n/a	n/a	n/a	n/a
3494718	RECOG_TARGET	n/a	LTP084	ltpFR	3	9	0	PICKLE	1059	n/a	0	n/a	n/a	n/a	n/a	n/a
3498334	RECOG_TARGET	n/a	LTP084	ltpFR	3	9	0	TOASTER	1472	n/a	0	n/a	n/a	n/a	n/a	n/a
3502158	RECOG_TARGET	n/a	LTP084	ltpFR	3	9	1	PICNIC	1060	n/a	0	n/a	n/a	n/a	n/a	n/a
3505267	RECOG_TARGET	n/a	LTP084	ltpFR	3	9	-1	SHELTER	1282	n/a	-1	n/a	n/a	n/a	n/a	n/a
3508484	RECOG_TARGET	n/a	LTP084	ltpFR	3	9	1	BEET	115	n/a	0	n/a	n/a	n/a	n/a	n/a
3511866	RECOG_LURE	n/a	LTP084	ltpFR	3	9	n/a	CRICKET	408	n/a	n/a	n/a	n/a	n/a	n/a	n/a
3516124	RECOG_TARGET	n/a	LTP084	ltpFR	3	9	0	UNIVERSE	1540	n/a	1	n/a	n/a	n/a	n/a	n/a
3519691	RECOG_TARGET	n/a	LTP084	ltpFR	3	9	1	PIGEON	1065	n/a	0	n/a	n/a	n/a	n/a	n/a
3523607	RECOG_TARGET	n/a	LTP084	ltpFR	3	9	0	RAILROAD	1162	n/a	0	n/a	n/a	n/a	n/a	n/a
3527374	RECOG_TARGET	n/a	LTP084	ltpFR	3	9	0	DEPUTY	450	n/a	0	n/a	n/a	n/a	n/a	n/a
3530824	RECOG_TARGET	n/a	LTP084	ltpFR	3	9	1	BLACKBERRY	132	n/a	1	n/a	n/a	n/a	n/a	n/a
3534565	RECOG_LURE	n/a	LTP084	ltpFR	3	9	n/a	WALLET	1583	n/a	n/a	n/a	n/a	n/a	n/a	n/a
3538498	RECOG_LURE	n/a	LTP084	ltpFR	3	9	n/a	SCENERY	1247	n/a	n/a	n/a	n/a	n/a	n/a	n/a
3542598	RECOG_LURE	n/a	LTP084	ltpFR	3	9	n/a	HERB	704	n/a	n/a	n/a	n/a	n/a	n/a	n/a
3548822	RECOG_TARGET	n/a	LTP084	ltpFR	3	9	-1	COLONEL	348	n/a	-1	n/a	n/a	n/a	n/a	n/a
3555119	REC_START	n/a	LTP084	ltpFR	3	10	n/a	n/a	n/a	n/a	n/a	n/a	n/a	n/a	n/a	n/a
3555154	RECOG_TARGET	n/a	LTP084	ltpFR	3	10	-1	FLOWER	584	n/a	-1	n/a	n/a	n/a	n/a	n/a
3558671	RECOG_LURE	n/a	LTP084	ltpFR	3	10	n/a	TIGER	1467	n/a	n/a	n/a	n/a	n/a	n/a	n/a
3562430	RECOG_TARGET	n/a	LTP084	ltpFR	3	10	1	MEAL	882	n/a	0	n/a	n/a	n/a	n/a	n/a
3566112	RECOG_TARGET	n/a	LTP084	ltpFR	3	10	1	SHOULDER	1294	n/a	0	n/a	n/a	n/a	n/a	n/a
3569895	RECOG_TARGET	n/a	LTP084	ltpFR	3	10	0	ENGINE	535	n/a	0	n/a	n/a	n/a	n/a	n/a
3573512	RECOG_TARGET	n/a	LTP084	ltpFR	3	10	1	LILY	821	n/a	0	n/a	n/a	n/a	n/a	n/a
3577212	RECOG_TARGET	n/a	LTP084	ltpFR	3	10	0	SUN	1406	n/a	1	n/a	n/a	n/a	n/a	n/a
3580820	RECOG_TARGET	n/a	LTP084	ltpFR	3	10	1	RASPBERRY	1168	n/a	0	n/a	n/a	n/a	n/a	n/a
3584420	RECOG_TARGET	n/a	LTP084	ltpFR	3	10	1	HEEL	700	n/a	0	n/a	n/a	n/a	n/a	n/a
3589077	RECOG_TARGET	n/a	LTP084	ltpFR	3	10	0	PAINT	1003	n/a	0	n/a	n/a	n/a	n/a	n/a
3592469	RECOG_TARGET	n/a	LTP084	ltpFR	3	10	-1	PANTS	1010	n/a	-1	n/a	n/a	n/a	n/a	n/a
3596109	RECOG_LURE	n/a	LTP084	ltpFR	3	10	n/a	SCISSORS	1250	n/a	n/a	n/a	n/a	n/a	n/a	n/a
3599909	RECOG_TARGET	n/a	LTP084	ltpFR	3	10	0	CORN	381	n/a	0	n/a	n/a	n/a	n/a	n/a
3604485	RECOG_TARGET	n/a	LTP084	ltpFR	3	10	0	AUNT	60	n/a	0	n/a	n/a	n/a	n/a	n/a
3608584	RECOG_LURE	n/a	LTP084	ltpFR	3	10	n/a	FURNITURE	616	n/a	n/a	n/a	n/a	n/a	n/a	n/a
3614367	RECOG_TARGET	n/a	LTP084	ltpFR	3	10	0	QUARTER	1148	n/a	0	n/a	n/a	n/a	n/a	n/a
3617858	RECOG_TARGET	n/a	LTP084	ltpFR	3	10	-1	COACH	331	n/a	-1	n/a	n/a	n/a	n/a	n/a
3621700	RECOG_TARGET	n/a	LTP084	ltpFR	3	10	1	TRIBE	1505	n/a	0	n/a	n/a	n/a	n/a	n/a
3625141	RECOG_TARGET	n/a	LTP084	ltpFR	3	10	0	STAR	1373	n/a	n/a	n/a	n/a	n/a	n/a	n/a
3628633	RECOG_LURE	n/a	LTP084	ltpFR	3	10	n/a	SUGAR	1401	n/a	n/a	n/a	n/a	n/a	n/a	n/a
3634661	REC_START	n/a	LTP084	ltpFR	3	11	n/a	n/a	n/a	n/a	n/a	n/a	n/a	n/a	n/a	n/a
3634691	RECOG_LURE	n/a	LTP084	ltpFR	3	11	n/a	KEG	770	n/a	n/a	n/a	n/a	n/a	n/a	n/a
3638265	RECOG_TARGET	n/a	LTP084	ltpFR	3	11	1	OTTER	986	n/a	0	n/a	n/a	n/a	n/a	n/a
3641989	RECOG_TARGET	n/a	LTP084	ltpFR	3	11	0	SCROLL	1257	n/a	0	n/a	n/a	n/a	n/a	n/a
3645757	RECOG_TARGET	n/a	LTP084	ltpFR	3	11	1	FOOT	590	n/a	0	n/a	n/a	n/a	n/a	n/a
3649997	RECOG_TARGET	n/a	LTP084	ltpFR	3	11	1	DRESS	495	n/a	0	n/a	n/a	n/a	n/a	n/a
3656138	RECOG_TARGET	n/a	LTP084	ltpFR	3	11	-1	BARK	87	n/a	-1	n/a	n/a	n/a	n/a	n/a
3659806	RECOG_TARGET	n/a	LTP084	ltpFR	3	11	1	TORCH	1484	n/a	0	n/a	n/a	n/a	n/a	n/a
3663564	RECOG_LURE	n/a	LTP084	ltpFR	3	11	n/a	FACE	547	n/a	n/a	n/a	n/a	n/a	n/a	n/a
3667112	RECOG_TARGET	n/a	LTP084	ltpFR	3	11	0	FREEWAY	603	n/a	0	n/a	n/a	n/a	n/a	n/a
3672920	RECOG_LURE	n/a	LTP084	ltpFR	3	11	n/a	SCIENTIST	1249	n/a	n/a	n/a	n/a	n/a	n/a	n/a
3679804	RECOG_TARGET	n/a	LTP084	ltpFR	3	11	0	CACTUS	215	n/a	0	n/a	n/a	n/a	n/a	n/a
3683520	RECOG_TARGET	n/a	LTP084	ltpFR	3	11	1	GOVERNOR	651	n/a	0	n/a	n/a	n/a	n/a	n/a
3687420	RECOG_TARGET	n/a	LTP084	ltpFR	3	11	-1	PRAIRIE	1118	n/a	-1	n/a	n/a	n/a	n/a	n/a
3691002	RECOG_TARGET	n/a	LTP084	ltpFR	3	11	0	EMPLOYER	532	n/a	0	n/a	n/a	n/a	n/a	n/a
3694603	RECOG_TARGET	n/a	LTP084	ltpFR	3	11	1	INCENSE	735	n/a	0	n/a	n/a	n/a	n/a	n/a
3697828	RECOG_LURE	n/a	LTP084	ltpFR	3	11	n/a	LID	817	n/a	n/a	n/a	n/a	n/a	n/a	n/a
3701552	RECOG_TARGET	n/a	LTP084	ltpFR	3	11	0	BRICK	172	n/a	0	n/a	n/a	n/a	n/a	n/a
3705719	RECOG_TARGET	n/a	LTP084	ltpFR	3	11	1	FLEA	577	n/a	0	n/a	n/a	n/a	n/a	n/a
3709084	RECOG_TARGET	n/a	LTP084	ltpFR	3	11	0	BUTTER	205	n/a	0	n/a	n/a	n/a	n/a	n/a
3712593	RECOG_TARGET	n/a	LTP084	ltpFR	3	11	-1	SHEEP	1278	n/a	-1	n/a	n/a	n/a	n/a	n/a
3718357	REC_START	n/a	LTP084	ltpFR	3	12	n/a	n/a	n/a	n/a	n/a	n/a	n/a	n/a	n/a	n/a
3718393	RECOG_TARGET	n/a	LTP084	ltpFR	3	12	0	HAND	683	n/a	0	n/a	n/a	n/a	n/a	n/a
3726767	RECOG_TARGET	n/a	LTP084	ltpFR	3	12	1	PICK	1058	n/a	0	n/a	n/a	n/a	n/a	n/a
3730192	RECOG_TARGET	n/a	LTP084	ltpFR	3	12	0	MATTRESS	879	n/a	0	n/a	n/a	n/a	n/a	n/a
3733717	RECOG_TARGET	n/a	LTP084	ltpFR	3	12	1	SPY	1360	n/a	0	n/a	n/a	n/a	n/a	n/a
3741724	RECOG_TARGET	n/a	LTP084	ltpFR	3	12	-1	WASHER	1592	n/a	-1	n/a	n/a	n/a	n/a	n/a
3745224	RECOG_TARGET	n/a	LTP084	ltpFR	3	12	0	NIECE	952	n/a	0	n/a	n/a	n/a	n/a	n/a
3749090	RECOG_TARGET	n/a	LTP084	ltpFR	3	12	1	MISTER	901	n/a	1	n/a	n/a	n/a	n/a	n/a
3752832	RECOG_TARGET	n/a	LTP084	ltpFR	3	12	1	KIWI	781	n/a	0	n/a	n/a	n/a	n/a	n/a
3756473	RECOG_TARGET	n/a	LTP084	ltpFR	3	12	1	GORILLA	650	n/a	0	n/a	n/a	n/a	n/a	n/a
3759748	RECOG_TARGET	n/a	LTP084	ltpFR	3	12	0	ANIMAL	23	n/a	0	n/a	n/a	n/a	n/a	n/a
3763173	RECOG_TARGET	n/a	LTP084	ltpFR	3	12	1	HEART	697	n/a	1	n/a	n/a	n/a	n/a	n/a
3766564	RECOG_TARGET	n/a	LTP084	ltpFR	3	12	-1	GLOBE	641	n/a	-1	n/a	n/a	n/a	n/a	n/a
3769946	RECOG_LURE	n/a	LTP084	ltpFR	3	12	n/a	TREAT	1501	n/a	n/a	n/a	n/a	n/a	n/a	n/a
3773896	RECOG_TARGET	n/a	LTP084	ltpFR	3	12	1	BARLEY	88	n/a	0	n/a	n/a	n/a	n/a	n/a
3777388	RECOG_TARGET	n/a	LTP084	ltpFR	3	12	0	HOOP	716	n/a	0	n/a	n/a	n/a	n/a	n/a
3780887	RECOG_TARGET	n/a	LTP084	ltpFR	3	12	0	JAW	751	n/a	0	n/a	n/a	n/a	n/a	n/a
3784779	RECOG_TARGET	n/a	LTP084	ltpFR	3	12	1	FINGERNAIL	568	n/a	0	n/a	n/a	n/a	n/a	n/a
3788213	RECOG_LURE	n/a	LTP084	ltpFR	3	12	n/a	BONE	148	n/a	n/a	n/a	n/a	n/a	n/a	n/a
3792271	RECOG_LURE	n/a	LTP084	ltpFR	3	12	n/a	ATOM	55	n/a	n/a	n/a	n/a	n/a	n/a	n/a
3796295	RECOG_TARGET	n/a	LTP084	ltpFR	3	12	1	PLUM	1090	n/a	0	n/a	n/a	n/a	n/a	n/a
3807970	REC_START	n/a	LTP084	ltpFR	3	13	n/a	n/a	n/a	n/a	n/a	n/a	n/a	n/a	n/a	n/a
3808002	RECOG_TARGET	n/a	LTP084	ltpFR	3	13	1	ROBIN	1199	n/a	0	n/a	n/a	n/a	n/a	n/a
3811836	RECOG_LURE	n/a	LTP084	ltpFR	3	13	n/a	KNUCKLE	789	n/a	n/a	n/a	n/a	n/a	n/a	n/a
3815402	RECOG_TARGET	n/a	LTP084	ltpFR	3	13	1	PRINCESS	1125	n/a	0	n/a	n/a	n/a	n/a	n/a
3818909	RECOG_TARGET	n/a	LTP084	ltpFR	3	13	1	HOOD	714	n/a	0	n/a	n/a	n/a	n/a	n/a
3823992	RECOG_TARGET	n/a	LTP084	ltpFR	3	13	-1	COOK	372	n/a	-1	n/a	n/a	n/a	n/a	n/a
3831184	RECOG_TARGET	n/a	LTP084	ltpFR	3	13	1	SNEAKER	1334	n/a	0	n/a	n/a	n/a	n/a	n/a
3834933	RECOG_TARGET	n/a	LTP084	ltpFR	3	13	0	ADULT	8	n/a	0	n/a	n/a	n/a	n/a	n/a
3838409	RECOG_LURE	n/a	LTP084	ltpFR	3	13	n/a	SALAD	1224	n/a	n/a	n/a	n/a	n/a	n/a	n/a
3842133	RECOG_TARGET	n/a	LTP084	ltpFR	3	13	0	TOWEL	1489	n/a	0	n/a	n/a	n/a	n/a	n/a
3848400	RECOG_TARGET	n/a	LTP084	ltpFR	3	13	0	PUBLISHER	1137	n/a	0	n/a	n/a	n/a	n/a	n/a
3852400	RECOG_TARGET	n/a	LTP084	ltpFR	3	13	0	BEDROOM	111	n/a	0	n/a	n/a	n/a	n/a	n/a
3856057	RECOG_TARGET	n/a	LTP084	ltpFR	3	13	-1	CUPBOARD	425	n/a	-1	n/a	n/a	n/a	n/a	n/a
3860090	RECOG_TARGET	n/a	LTP084	ltpFR	3	13	1	ELM	527	n/a	0	n/a	n/a	n/a	n/a	n/a
3867707	RECOG_TARGET	n/a	LTP084	ltpFR	3	13	0	HERD	705	n/a	0	n/a	n/a	n/a	n/a	n/a
3872548	RECOG_LURE	n/a	LTP084	ltpFR	3	13	n/a	ASHTRAY	45	n/a	n/a	n/a	n/a	n/a	n/a	n/a
3876972	RECOG_LURE	n/a	LTP084	ltpFR	3	13	n/a	PLUTO	1092	n/a	n/a	n/a	n/a	n/a	n/a	n/a
3881155	RECOG_TARGET	n/a	LTP084	ltpFR	3	13	0	BLUEPRINT	142	n/a	0	n/a	n/a	n/a	n/a	n/a
3884747	RECOG_TARGET	n/a	LTP084	ltpFR	3	13	1	ALMANAC	17	n/a	0	n/a	n/a	n/a	n/a	n/a
3888247	RECOG_TARGET	n/a	LTP084	ltpFR	3	13	0	OATMEAL	967	n/a	0	n/a	n/a	n/a	n/a	n/a
3891780	RECOG_LURE	n/a	LTP084	ltpFR	3	13	n/a	OWNER	993	n/a	n/a	n/a	n/a	n/a	n/a	n/a
3897326	REC_START	n/a	LTP084	ltpFR	3	14	n/a	n/a	n/a	n/a	n/a	n/a	n/a	n/a	n/a	n/a
3897363	RECOG_TARGET	n/a	LTP084	ltpFR	3	14	-1	TRUMPET	1513	n/a	-1	n/a	n/a	n/a	n/a	n/a
3901861	RECOG_TARGET	n/a	LTP084	ltpFR	3	14	0	STREET	1393	n/a	0	n/a	n/a	n/a	n/a	n/a
3906445	RECOG_TARGET	n/a	LTP084	ltpFR	3	14	-1	HOUND	724	n/a	-1	n/a	n/a	n/a	n/a	n/a
3911528	RECOG_LURE	n/a	LTP084	ltpFR	3	14	n/a	PLAYGROUND	1087	n/a	n/a	n/a	n/a	n/a	n/a	n/a
3915453	RECOG_LURE	n/a	LTP084	ltpFR	3	14	n/a	CHICKEN	297	n/a	n/a	n/a	n/a	n/a	n/a	n/a
3921236	RECOG_TARGET	n/a	LTP084	ltpFR	3	14	-1	CHICK	296	n/a	-1	n/a	n/a	n/a	n/a	n/a
3924851	RECOG_TARGET	n/a	LTP084	ltpFR	3	14	1	SWATTER	1418	n/a	0	n/a	n/a	n/a	n/a	n/a
3928452	RECOG_TARGET	n/a	LTP084	ltpFR	3	14	0	BIBLE	124	n/a	0	n/a	n/a	n/a	n/a	n/a
3931594	RECOG_TARGET	n/a	LTP084	ltpFR	3	14	1	LAKE	796	n/a	0	n/a	n/a	n/a	n/a	n/a
3935034	RECOG_TARGET	n/a	LTP084	ltpFR	3	14	-1	COURT	391	n/a	-1	n/a	n/a	n/a	n/a	n/a
3938793	RECOG_LURE	n/a	LTP084	ltpFR	3	14	n/a	APE	31	n/a	n/a	n/a	n/a	n/a	n/a	n/a
3942917	RECOG_TARGET	n/a	LTP084	ltpFR	3	14	-1	BUCKLE	185	n/a	-1	n/a	n/a	n/a	n/a	n/a
3946426	RECOG_TARGET	n/a	LTP084	ltpFR	3	14	0	FIELD	562	n/a	0	n/a	n/a	n/a	n/a	n/a
3950525	RECOG_LURE	n/a	LTP084	ltpFR	3	14	n/a	CHOCOLATE	306	n/a	n/a	n/a	n/a	n/a	n/a	n/a
3955175	RECOG_TARGET	n/a	LTP084	ltpFR	3	14	0	SKI	1316	n/a	0	n/a	n/a	n/a	n/a	n/a
3958866	RECOG_LURE	n/a	LTP084	ltpFR	3	14	n/a	SUBWAY	1400	n/a	n/a	n/a	n/a	n/a	n/a	n/a
3963165	RECOG_TARGET	n/a	LTP084	ltpFR	3	14	1	COLESLAW	344	n/a	0	n/a	n/a	n/a	n/a	n/a
3969299	RECOG_TARGET	n/a	LTP084	ltpFR	3	14	1	SPINACH	1352	n/a	0	n/a	n/a	n/a	n/a	n/a
3972956	RECOG_LURE	n/a	LTP084	ltpFR	3	14	n/a	PURSE	1145	n/a	n/a	n/a	n/a	n/a	n/a	n/a
3977473	RECOG_TARGET	n/a	LTP084	ltpFR	3	14	1	YOKE	1632	n/a	0	n/a	n/a	n/a	n/a	n/a
3983586	REC_START	n/a	LTP084	ltpFR	3	15	n/a	n/a	n/a	n/a	n/a	n/a	n/a	n/a	n/a	n/a
3983623	RECOG_TARGET	n/a	LTP084	ltpFR	3	15	1	BUGGY	188	n/a	0	n/a	n/a	n/a	n/a	n/a
3987456	RECOG_TARGET	n/a	LTP084	ltpFR	3	15	-1	STAFF	1365	n/a	-1	n/a	n/a	n/a	n/a	n/a
3990963	RECOG_TARGET	n/a	LTP084	ltpFR	3	15	0	CRAB	397	n/a	0	n/a	n/a	n/a	n/a	n/a
3995464	RECOG_TARGET	n/a	LTP084	ltpFR	3	15	0	JEWEL	757	n/a	0	n/a	n/a	n/a	n/a	n/a
3998871	RECOG_TARGET	n/a	LTP084	ltpFR	3	15	1	AGENT	10	n/a	0	n/a	n/a	n/a	n/a	n/a
4002638	RECOG_TARGET	n/a	LTP084	ltpFR	3	15	-1	LACE	792	n/a	-1	n/a	n/a	n/a	n/a	n/a
4006095	RECOG_TARGET	n/a	LTP084	ltpFR	3	15	0	RAFT	1159	n/a	0	n/a	n/a	n/a	n/a	n/a
4009771	RECOG_LURE	n/a	LTP084	ltpFR	3	15	n/a	SAGE	1222	n/a	n/a	n/a	n/a	n/a	n/a	n/a
4013729	RECOG_LURE	n/a	LTP084	ltpFR	3	15	n/a	PASSAGE	1019	n/a	n/a	n/a	n/a	n/a	n/a	n/a
4017754	RECOG_TARGET	n/a	LTP084	ltpFR	3	15	0	CANDLE	229	n/a	0	n/a	n/a	n/a	n/a	n/a
4024345	RECOG_TARGET	n/a	LTP084	ltpFR	3	15	0	MARROW	872	n/a	0	n/a	n/a	n/a	n/a	n/a
4028353	RECOG_TARGET	n/a	LTP084	ltpFR	3	15	-1	ERASER	538	n/a	-1	n/a	n/a	n/a	n/a	n/a
4031985	RECOG_TARGET	n/a	LTP084	ltpFR	3	15	0	SALMON	1227	n/a	0	n/a	n/a	n/a	n/a	n/a
4035636	RECOG_TARGET	n/a	LTP084	ltpFR	3	15	1	GLOVE	642	n/a	0	n/a	n/a	n/a	n/a	n/a
4039210	RECOG_TARGET	n/a	LTP084	ltpFR	3	15	-1	IRON	744	n/a	-1	n/a	n/a	n/a	n/a	n/a
4043068	RECOG_LURE	n/a	LTP084	ltpFR	3	15	n/a	INVENTOR	743	n/a	n/a	n/a	n/a	n/a	n/a	n/a
4047001	RECOG_TARGET	n/a	LTP084	ltpFR	3	15	0	HONEY	713	n/a	0	n/a	n/a	n/a	n/a	n/a
4050726	RECOG_TARGET	n/a	LTP084	ltpFR	3	15	-1	ARENA	37	n/a	-1	n/a	n/a	n/a	n/a	n/a
4054058	RECOG_TARGET	n/a	LTP084	ltpFR	3	15	0	KANGAROO	768	n/a	0	n/a	n/a	n/a	n/a	n/a
4057676	RECOG_TARGET	n/a	LTP084	ltpFR	3	15	-1	NEEDLE	941	n/a	-1	n/a	n/a	n/a	n/a	n/a
4075293	REC_START	n/a	LTP084	ltpFR	3	16	n/a	n/a	n/a	n/a	n/a	n/a	n/a	n/a	n/a	n/a
4075324	RECOG_TARGET	n/a	LTP084	ltpFR	3	16	-1	SOAP	1337	n/a	-1	n/a	n/a	n/a	n/a	n/a
4079483	RECOG_TARGET	n/a	LTP084	ltpFR	3	16	-1	TUXEDO	1525	n/a	-1	n/a	n/a	n/a	n/a	n/a
4084632	RECOG_TARGET	n/a	LTP084	ltpFR	3	16	-1	MOWER	928	n/a	-1	n/a	n/a	n/a	n/a	n/a
4088373	RECOG_TARGET	n/a	LTP084	ltpFR	3	16	1	COAT	333	n/a	0	n/a	n/a	n/a	n/a	n/a
4092398	RECOG_TARGET	n/a	LTP084	ltpFR	3	16	0	VAMPIRE	1547	n/a	0	n/a	n/a	n/a	n/a	n/a
4096573	RECOG_TARGET	n/a	LTP084	ltpFR	3	16	0	DISH	474	n/a	0	n/a	n/a	n/a	n/a	n/a
4100448	RECOG_LURE	n/a	LTP084	ltpFR	3	16	n/a	HANDKERCHIEF	686	n/a	n/a	n/a	n/a	n/a	n/a	n/a
4104181	RECOG_LURE	n/a	LTP084	ltpFR	3	16	n/a	STOMACH	1384	n/a	n/a	n/a	n/a	n/a	n/a	n/a
4107979	RECOG_TARGET	n/a	LTP084	ltpFR	3	16	1	BLOUSE	139	n/a	0	n/a	n/a	n/a	n/a	n/a
4112572	RECOG_TARGET	n/a	LTP084	ltpFR	3	16	-1	MEADOW	881	n/a	-1	n/a	n/a	n/a	n/a	n/a
4116313	RECOG_TARGET	n/a	LTP084	ltpFR	3	16	0	BANK	83	n/a	0	n/a	n/a	n/a	n/a	n/a
4119838	RECOG_TARGET	n/a	LTP084	ltpFR	3	16	-1	RADIO	1157	n/a	-1	n/a	n/a	n/a	n/a	n/a
4123571	RECOG_TARGET	n/a	LTP084	ltpFR	3	16	0	ROBOT	1200	n/a	0	n/a	n/a	n/a	n/a	n/a
4127886	RECOG_TARGET	n/a	LTP084	ltpFR	3	16	-1	SHOWER	1296	n/a	-1	n/a	n/a	n/a	n/a	n/a
4131720	RECOG_TARGET	n/a	LTP084	ltpFR	3	16	1	CHAMPAGNE	278	n/a	0	n/a	n/a	n/a	n/a	n/a
4135170	RECOG_TARGET	n/a	LTP084	ltpFR	3	16	1	LEOPARD	812	n/a	1	n/a	n/a	n/a	n/a	n/a
4139069	RECOG_TARGET	n/a	LTP084	ltpFR	3	16	1	RIB	1188	n/a	0	n/a	n/a	n/a	n/a	n/a
4142811	RECOG_TARGET	n/a	LTP084	ltpFR	3	16	1	VIOLA	1570	n/a	0	n/a	n/a	n/a	n/a	n/a
4146552	RECOG_TARGET	n/a	LTP084	ltpFR	3	16	-1	TANGERINE	1431	n/a	-1	n/a	n/a	n/a	n/a	n/a
4150269	RECOG_TARGET	n/a	LTP084	ltpFR	3	16	0	RECORD	1176	n/a	0	n/a	n/a	n/a	n/a	n/a
4174033	SESS_END	n/a	LTP084	ltpFR	3	16	n/a	n/a	n/a	n/a	n/a	n/a	n/a	n/a	n/a	n/a
