mstime	trial_type	stim_file	subject	experiment	session	trial	item_name	item_num	list	answer	test_x	test_y	test_z
0	SESS_START	n/a	LTP349	ltpFR2	9	n/a	n/a	n/a	n/a	n/a	0	0	0
48979	START	n/a	LTP349	ltpFR2	9	n/a	n/a	n/a	-1	n/a	n/a	n/a	n/a
49009	PROB	n/a	LTP349	ltpFR2	9	n/a	n/a	n/a	-1	18	9	7	2
52157	PROB	n/a	LTP349	ltpFR2	9	n/a	n/a	n/a	-1	11	1	8	2
54406	PROB	n/a	LTP349	ltpFR2	9	n/a	n/a	n/a	-1	20	8	8	4
60979	STOP	n/a	LTP349	ltpFR2	9	n/a	n/a	n/a	-1	n/a	n/a	n/a	n/a
92604	WORD	wordpools/wasnorm_wordpool_576.txt	LTP349	ltpFR2	9	1	TEMPLE	1448	n/a	n/a	0	0	0
95136	WORD	wordpools/wasnorm_wordpool_576.txt	LTP349	ltpFR2	9	1	CHURCH	307	n/a	n/a	0	0	0
97868	WORD	wordpools/wasnorm_wordpool_576.txt	LTP349	ltpFR2	9	1	CANDY	230	n/a	n/a	0	0	0
100317	WORD	wordpools/wasnorm_wordpool_576.txt	LTP349	ltpFR2	9	1	MARS	873	n/a	n/a	0	0	0
102815	WORD	wordpools/wasnorm_wordpool_576.txt	LTP349	ltpFR2	9	1	WASP	1593	n/a	n/a	0	0	0
105264	WORD	wordpools/wasnorm_wordpool_576.txt	LTP349	ltpFR2	9	1	SPIDER	1351	n/a	n/a	0	0	0
107863	WORD	wordpools/wasnorm_wordpool_576.txt	LTP349	ltpFR2	9	1	GUITAR	670	n/a	n/a	0	0	0
110561	WORD	wordpools/wasnorm_wordpool_576.txt	LTP349	ltpFR2	9	1	MUFFIN	929	n/a	n/a	0	0	0
113294	WORD	wordpools/wasnorm_wordpool_576.txt	LTP349	ltpFR2	9	1	CORAL	378	n/a	n/a	0	0	0
115776	WORD	wordpools/wasnorm_wordpool_576.txt	LTP349	ltpFR2	9	1	PERMIT	1051	n/a	n/a	0	0	0
118258	WORD	wordpools/wasnorm_wordpool_576.txt	LTP349	ltpFR2	9	1	TOASTER	1472	n/a	n/a	0	0	0
120806	WORD	wordpools/wasnorm_wordpool_576.txt	LTP349	ltpFR2	9	1	CANYON	235	n/a	n/a	0	0	0
123239	WORD	wordpools/wasnorm_wordpool_576.txt	LTP349	ltpFR2	9	1	CLOTHES	327	n/a	n/a	0	0	0
125854	WORD	wordpools/wasnorm_wordpool_576.txt	LTP349	ltpFR2	9	1	BOX	159	n/a	n/a	0	0	0
128419	WORD	wordpools/wasnorm_wordpool_576.txt	LTP349	ltpFR2	9	1	GIFT	635	n/a	n/a	0	0	0
130985	WORD	wordpools/wasnorm_wordpool_576.txt	LTP349	ltpFR2	9	1	ROD	1203	n/a	n/a	0	0	0
133683	WORD	wordpools/wasnorm_wordpool_576.txt	LTP349	ltpFR2	9	1	MONSTER	912	n/a	n/a	0	0	0
136349	WORD	wordpools/wasnorm_wordpool_576.txt	LTP349	ltpFR2	9	1	FLOWER	584	n/a	n/a	0	0	0
139147	WORD	wordpools/wasnorm_wordpool_576.txt	LTP349	ltpFR2	9	1	PUPIL	1143	n/a	n/a	0	0	0
141813	WORD	wordpools/wasnorm_wordpool_576.txt	LTP349	ltpFR2	9	1	MISTER	901	n/a	n/a	0	0	0
144495	WORD	wordpools/wasnorm_wordpool_576.txt	LTP349	ltpFR2	9	1	DONOR	485	n/a	n/a	0	0	0
147310	WORD	wordpools/wasnorm_wordpool_576.txt	LTP349	ltpFR2	9	1	HARP	689	n/a	n/a	0	0	0
149809	WORD	wordpools/wasnorm_wordpool_576.txt	LTP349	ltpFR2	9	1	SNACK	1331	n/a	n/a	0	0	0
152591	WORD	wordpools/wasnorm_wordpool_576.txt	LTP349	ltpFR2	9	1	MARINE	869	n/a	n/a	0	0	0
154207	START	n/a	LTP349	ltpFR2	9	n/a	n/a	n/a	1	n/a	n/a	n/a	n/a
155128	DISTRACTOR	n/a	LTP349	ltpFR2	9	1	n/a	n/a	n/a	n/a	0	0	0
155139	PROB	n/a	LTP349	ltpFR2	9	n/a	n/a	n/a	1	20	3	9	8
157305	PROB	n/a	LTP349	ltpFR2	9	n/a	n/a	n/a	1	7	1	3	3
159404	PROB	n/a	LTP349	ltpFR2	9	n/a	n/a	n/a	1	9	2	5	2
161203	PROB	n/a	LTP349	ltpFR2	9	n/a	n/a	n/a	1	12	3	1	8
162902	PROB	n/a	LTP349	ltpFR2	9	n/a	n/a	n/a	1	14	4	5	5
164135	PROB	n/a	LTP349	ltpFR2	9	n/a	n/a	n/a	1	12	5	5	2
165401	PROB	n/a	LTP349	ltpFR2	9	n/a	n/a	n/a	1	14	7	5	2
167099	PROB	n/a	LTP349	ltpFR2	9	n/a	n/a	n/a	1	20	8	4	8
168783	PROB	n/a	LTP349	ltpFR2	9	n/a	n/a	n/a	1	17	3	9	3
171381	PROB	n/a	LTP349	ltpFR2	9	n/a	n/a	n/a	1	17	6	3	8
174563	PROB	n/a	LTP349	ltpFR2	9	n/a	n/a	n/a	1	13	6	2	5
177759	STOP	n/a	LTP349	ltpFR2	9	n/a	n/a	n/a	1	n/a	n/a	n/a	n/a
179995	REC_START	n/a	LTP349	ltpFR2	9	1	n/a	n/a	n/a	n/a	0	0	0
183141	REC_WORD	wordpools/wasnorm_wordpool_576.txt	LTP349	ltpFR2	9	1	TEMPLE	1448	n/a	n/a	0	0	0
184186	REC_WORD	wordpools/wasnorm_wordpool_576.txt	LTP349	ltpFR2	9	1	CHURCH	307	n/a	n/a	0	0	0
185386	REC_WORD	wordpools/wasnorm_wordpool_576.txt	LTP349	ltpFR2	9	1	MISTER	901	n/a	n/a	0	0	0
186571	REC_WORD	wordpools/wasnorm_wordpool_576.txt	LTP349	ltpFR2	9	1	MARS	873	n/a	n/a	0	0	0
187611	REC_WORD	wordpools/wasnorm_wordpool_576.txt	LTP349	ltpFR2	9	1	MARINE	869	n/a	n/a	0	0	0
189525	REC_WORD	wordpools/wasnorm_wordpool_576.txt	LTP349	ltpFR2	9	1	FLOWER	584	n/a	n/a	0	0	0
197883	REC_WORD	wordpools/wasnorm_wordpool_576.txt	LTP349	ltpFR2	9	1	HARP	689	n/a	n/a	0	0	0
199040	REC_WORD	wordpools/wasnorm_wordpool_576.txt	LTP349	ltpFR2	9	1	GUITAR	670	n/a	n/a	0	0	0
200029	REC_WORD	wordpools/wasnorm_wordpool_576.txt	LTP349	ltpFR2	9	1	SPIDER	1351	n/a	n/a	0	0	0
201368	REC_WORD	wordpools/wasnorm_wordpool_576.txt	LTP349	ltpFR2	9	1	MONSTER	912	n/a	n/a	0	0	0
202620	REC_WORD	wordpools/wasnorm_wordpool_576.txt	LTP349	ltpFR2	9	1	BOX	159	n/a	n/a	0	0	0
203793	REC_WORD	wordpools/wasnorm_wordpool_576.txt	LTP349	ltpFR2	9	1	CANDY	230	n/a	n/a	0	0	0
211152	REC_WORD	wordpools/wasnorm_wordpool_576.txt	LTP349	ltpFR2	9	1	TEMPLE	1448	n/a	n/a	0	0	0
211549	REC_WORD	wordpools/wasnorm_wordpool_576.txt	LTP349	ltpFR2	9	1	CHURCH	307	n/a	n/a	0	0	0
214728	REC_WORD	wordpools/wasnorm_wordpool_576.txt	LTP349	ltpFR2	9	1	WASP	1593	n/a	n/a	0	0	0
219777	REC_WORD	wordpools/wasnorm_wordpool_576.txt	LTP349	ltpFR2	9	1	ROD	1203	n/a	n/a	0	0	0
225614	REC_WORD	wordpools/wasnorm_wordpool_576.txt	LTP349	ltpFR2	9	1	CLOTHES	327	n/a	n/a	0	0	0
236270	REC_WORD	wordpools/wasnorm_wordpool_576.txt	LTP349	ltpFR2	9	1	TOASTER	1472	n/a	n/a	0	0	0
246872	REC_WORD	wordpools/wasnorm_wordpool_576.txt	LTP349	ltpFR2	9	1	SNACK	1331	n/a	n/a	0	0	0
270449	WORD	wordpools/wasnorm_wordpool_576.txt	LTP349	ltpFR2	9	2	INMATE	738	n/a	n/a	0	0	0
273064	WORD	wordpools/wasnorm_wordpool_576.txt	LTP349	ltpFR2	9	2	SPOON	1357	n/a	n/a	0	0	0
275496	WORD	wordpools/wasnorm_wordpool_576.txt	LTP349	ltpFR2	9	2	OUTDOORS	987	n/a	n/a	0	0	0
278278	WORD	wordpools/wasnorm_wordpool_576.txt	LTP349	ltpFR2	9	2	SHOVEL	1295	n/a	n/a	0	0	0
281044	WORD	wordpools/wasnorm_wordpool_576.txt	LTP349	ltpFR2	9	2	MEAT	883	n/a	n/a	0	0	0
283542	WORD	wordpools/wasnorm_wordpool_576.txt	LTP349	ltpFR2	9	2	CANAL	226	n/a	n/a	0	0	0
286174	WORD	wordpools/wasnorm_wordpool_576.txt	LTP349	ltpFR2	9	2	ROBBER	1197	n/a	n/a	0	0	0
288990	WORD	wordpools/wasnorm_wordpool_576.txt	LTP349	ltpFR2	9	2	BEEF	113	n/a	n/a	0	0	0
291488	WORD	wordpools/wasnorm_wordpool_576.txt	LTP349	ltpFR2	9	2	BLADE	134	n/a	n/a	0	0	0
294204	WORD	wordpools/wasnorm_wordpool_576.txt	LTP349	ltpFR2	9	2	SCALPEL	1243	n/a	n/a	0	0	0
296652	WORD	wordpools/wasnorm_wordpool_576.txt	LTP349	ltpFR2	9	2	DENTIST	447	n/a	n/a	0	0	0
299351	WORD	wordpools/wasnorm_wordpool_576.txt	LTP349	ltpFR2	9	2	CLAM	315	n/a	n/a	0	0	0
301917	WORD	wordpools/wasnorm_wordpool_576.txt	LTP349	ltpFR2	9	2	OYSTER	995	n/a	n/a	0	0	0
304482	WORD	wordpools/wasnorm_wordpool_576.txt	LTP349	ltpFR2	9	2	CRICKET	408	n/a	n/a	0	0	0
307131	WORD	wordpools/wasnorm_wordpool_576.txt	LTP349	ltpFR2	9	2	SUSPECT	1415	n/a	n/a	0	0	0
309879	WORD	wordpools/wasnorm_wordpool_576.txt	LTP349	ltpFR2	9	2	ZEBRA	1635	n/a	n/a	0	0	0
312478	WORD	wordpools/wasnorm_wordpool_576.txt	LTP349	ltpFR2	9	2	NOTEBOOK	959	n/a	n/a	0	0	0
314910	WORD	wordpools/wasnorm_wordpool_576.txt	LTP349	ltpFR2	9	2	FLEET	578	n/a	n/a	0	0	0
317342	WORD	wordpools/wasnorm_wordpool_576.txt	LTP349	ltpFR2	9	2	CAMEL	223	n/a	n/a	0	0	0
319891	WORD	wordpools/wasnorm_wordpool_576.txt	LTP349	ltpFR2	9	2	ANKLE	24	n/a	n/a	0	0	0
322490	WORD	wordpools/wasnorm_wordpool_576.txt	LTP349	ltpFR2	9	2	HAND	683	n/a	n/a	0	0	0
325205	WORD	wordpools/wasnorm_wordpool_576.txt	LTP349	ltpFR2	9	2	OUTLAW	989	n/a	n/a	0	0	0
327887	WORD	wordpools/wasnorm_wordpool_576.txt	LTP349	ltpFR2	9	2	STAKE	1368	n/a	n/a	0	0	0
330702	WORD	wordpools/wasnorm_wordpool_576.txt	LTP349	ltpFR2	9	2	TROMBONE	1508	n/a	n/a	0	0	0
332318	START	n/a	LTP349	ltpFR2	9	n/a	n/a	n/a	2	n/a	n/a	n/a	n/a
333126	DISTRACTOR	n/a	LTP349	ltpFR2	9	2	n/a	n/a	n/a	n/a	0	0	0
333134	PROB	n/a	LTP349	ltpFR2	9	n/a	n/a	n/a	2	17	7	8	2
335150	PROB	n/a	LTP349	ltpFR2	9	n/a	n/a	n/a	2	18	7	4	7
336583	PROB	n/a	LTP349	ltpFR2	9	n/a	n/a	n/a	2	19	7	6	6
338615	PROB	n/a	LTP349	ltpFR2	9	n/a	n/a	n/a	2	13	2	2	9
340198	PROB	n/a	LTP349	ltpFR2	9	n/a	n/a	n/a	2	23	5	9	9
342730	PROB	n/a	LTP349	ltpFR2	9	n/a	n/a	n/a	2	22	8	4	8
344529	PROB	n/a	LTP349	ltpFR2	9	n/a	n/a	n/a	2	17	8	2	7
346161	PROB	n/a	LTP349	ltpFR2	9	n/a	n/a	n/a	2	8	2	2	4
347910	PROB	n/a	LTP349	ltpFR2	9	n/a	n/a	n/a	2	19	9	8	4
350642	PROB	n/a	LTP349	ltpFR2	9	n/a	n/a	n/a	2	11	9	1	1
353074	PROB	n/a	LTP349	ltpFR2	9	n/a	n/a	n/a	2	13	5	3	5
356318	STOP	n/a	LTP349	ltpFR2	9	n/a	n/a	n/a	2	n/a	n/a	n/a	n/a
358156	REC_START	n/a	LTP349	ltpFR2	9	2	n/a	n/a	n/a	n/a	0	0	0
361124	REC_WORD	wordpools/wasnorm_wordpool_576.txt	LTP349	ltpFR2	9	2	INMATE	738	n/a	n/a	0	0	0
362956	REC_WORD	wordpools/wasnorm_wordpool_576.txt	LTP349	ltpFR2	9	2	SUSPECT	1415	n/a	n/a	0	0	0
364599	REC_WORD	wordpools/wasnorm_wordpool_576.txt	LTP349	ltpFR2	9	2	OUTLAW	989	n/a	n/a	0	0	0
365895	REC_WORD	wordpools/wasnorm_wordpool_576.txt	LTP349	ltpFR2	9	2	TROMBONE	1508	n/a	n/a	0	0	0
372175	REC_WORD	wordpools/wasnorm_wordpool_576.txt	LTP349	ltpFR2	9	2	ZEBRA	1635	n/a	n/a	0	0	0
373713	REC_WORD	wordpools/wasnorm_wordpool_576.txt	LTP349	ltpFR2	9	2	CAMEL	223	n/a	n/a	0	0	0
374897	REC_WORD	wordpools/wasnorm_wordpool_576.txt	LTP349	ltpFR2	9	2	ANKLE	24	n/a	n/a	0	0	0
376207	REC_WORD	wordpools/wasnorm_wordpool_576.txt	LTP349	ltpFR2	9	2	HAND	683	n/a	n/a	0	0	0
377809	REC_WORD	wordpools/wasnorm_wordpool_576.txt	LTP349	ltpFR2	9	2	BEEF	113	n/a	n/a	0	0	0
379101	REC_WORD	wordpools/wasnorm_wordpool_576.txt	LTP349	ltpFR2	9	2	MEAT	883	n/a	n/a	0	0	0
380359	REC_WORD	wordpools/wasnorm_wordpool_576.txt	LTP349	ltpFR2	9	2	CANAL	226	n/a	n/a	0	0	0
382897	REC_WORD	wordpools/wasnorm_wordpool_576.txt	LTP349	ltpFR2	9	2	SPOON	1357	n/a	n/a	0	0	0
384807	REC_WORD	wordpools/wasnorm_wordpool_576.txt	LTP349	ltpFR2	9	2	SHOVEL	1295	n/a	n/a	0	0	0
386107	REC_WORD	wordpools/wasnorm_wordpool_576.txt	LTP349	ltpFR2	9	2	OUTDOORS	987	n/a	n/a	0	0	0
387662	REC_WORD	wordpools/wasnorm_wordpool_576.txt	LTP349	ltpFR2	9	2	BLADE	134	n/a	n/a	0	0	0
388665	REC_WORD	wordpools/wasnorm_wordpool_576.txt	LTP349	ltpFR2	9	2	SCALPEL	1243	n/a	n/a	0	0	0
390411	REC_WORD	wordpools/wasnorm_wordpool_576.txt	LTP349	ltpFR2	9	2	DENTIST	447	n/a	n/a	0	0	0
448660	WORD	wordpools/wasnorm_wordpool_576.txt	LTP349	ltpFR2	9	3	FLESH	579	n/a	n/a	0	0	0
451276	WORD	wordpools/wasnorm_wordpool_576.txt	LTP349	ltpFR2	9	3	TRANSPLANT	1496	n/a	n/a	0	0	0
453725	WORD	wordpools/wasnorm_wordpool_576.txt	LTP349	ltpFR2	9	3	RATTLE	1170	n/a	n/a	0	0	0
456523	WORD	wordpools/wasnorm_wordpool_576.txt	LTP349	ltpFR2	9	3	CHILD	299	n/a	n/a	0	0	0
459288	WORD	wordpools/wasnorm_wordpool_576.txt	LTP349	ltpFR2	9	3	GOBLIN	645	n/a	n/a	0	0	0
461770	WORD	wordpools/wasnorm_wordpool_576.txt	LTP349	ltpFR2	9	3	COWBOY	395	n/a	n/a	0	0	0
464336	WORD	wordpools/wasnorm_wordpool_576.txt	LTP349	ltpFR2	9	3	CHAUFFEUR	283	n/a	n/a	0	0	0
467084	WORD	wordpools/wasnorm_wordpool_576.txt	LTP349	ltpFR2	9	3	SHORTCAKE	1292	n/a	n/a	0	0	0
469533	WORD	wordpools/wasnorm_wordpool_576.txt	LTP349	ltpFR2	9	3	BRICK	172	n/a	n/a	0	0	0
472265	WORD	wordpools/wasnorm_wordpool_576.txt	LTP349	ltpFR2	9	3	CHAPEL	280	n/a	n/a	0	0	0
474731	WORD	wordpools/wasnorm_wordpool_576.txt	LTP349	ltpFR2	9	3	GRAVE	658	n/a	n/a	0	0	0
477446	WORD	wordpools/wasnorm_wordpool_576.txt	LTP349	ltpFR2	9	3	CHAMPAGNE	278	n/a	n/a	0	0	0
480178	WORD	wordpools/wasnorm_wordpool_576.txt	LTP349	ltpFR2	9	3	TUTU	1524	n/a	n/a	0	0	0
482760	WORD	wordpools/wasnorm_wordpool_576.txt	LTP349	ltpFR2	9	3	TORTOISE	1486	n/a	n/a	0	0	0
485309	WORD	wordpools/wasnorm_wordpool_576.txt	LTP349	ltpFR2	9	3	SKIRT	1319	n/a	n/a	0	0	0
488107	WORD	wordpools/wasnorm_wordpool_576.txt	LTP349	ltpFR2	9	3	HOSTESS	723	n/a	n/a	0	0	0
490706	WORD	wordpools/wasnorm_wordpool_576.txt	LTP349	ltpFR2	9	3	PEPPER	1047	n/a	n/a	0	0	0
493205	WORD	wordpools/wasnorm_wordpool_576.txt	LTP349	ltpFR2	9	3	CITRUS	313	n/a	n/a	0	0	0
496020	WORD	wordpools/wasnorm_wordpool_576.txt	LTP349	ltpFR2	9	3	BEAVER	109	n/a	n/a	0	0	0
498669	WORD	wordpools/wasnorm_wordpool_576.txt	LTP349	ltpFR2	9	3	SPHINX	1349	n/a	n/a	0	0	0
501151	WORD	wordpools/wasnorm_wordpool_576.txt	LTP349	ltpFR2	9	3	HOOD	714	n/a	n/a	0	0	0
503633	WORD	wordpools/wasnorm_wordpool_576.txt	LTP349	ltpFR2	9	3	FRIAR	605	n/a	n/a	0	0	0
506148	WORD	wordpools/wasnorm_wordpool_576.txt	LTP349	ltpFR2	9	3	ACTOR	5	n/a	n/a	0	0	0
508714	WORD	wordpools/wasnorm_wordpool_576.txt	LTP349	ltpFR2	9	3	ACTRESS	6	n/a	n/a	0	0	0
510330	START	n/a	LTP349	ltpFR2	9	n/a	n/a	n/a	3	n/a	n/a	n/a	n/a
511369	DISTRACTOR	n/a	LTP349	ltpFR2	9	3	n/a	n/a	n/a	n/a	0	0	0
511379	PROB	n/a	LTP349	ltpFR2	9	n/a	n/a	n/a	3	11	4	6	1
513062	PROB	n/a	LTP349	ltpFR2	9	n/a	n/a	n/a	3	14	1	6	7
514711	PROB	n/a	LTP349	ltpFR2	9	n/a	n/a	n/a	3	22	9	7	6
517943	PROB	n/a	LTP349	ltpFR2	9	n/a	n/a	n/a	3	14	8	1	5
519325	PROB	n/a	LTP349	ltpFR2	9	n/a	n/a	n/a	3	19	8	7	4
521391	PROB	n/a	LTP349	ltpFR2	9	n/a	n/a	n/a	3	8	3	2	3
523190	PROB	n/a	LTP349	ltpFR2	9	n/a	n/a	n/a	3	19	8	2	9
524922	PROB	n/a	LTP349	ltpFR2	9	n/a	n/a	n/a	3	19	8	9	2
528504	PROB	n/a	LTP349	ltpFR2	9	n/a	n/a	n/a	3	21	9	3	9
530836	PROB	n/a	LTP349	ltpFR2	9	n/a	n/a	n/a	3	12	1	6	5
533375	STOP	n/a	LTP349	ltpFR2	9	n/a	n/a	n/a	3	n/a	n/a	n/a	n/a
536134	REC_START	n/a	LTP349	ltpFR2	9	3	n/a	n/a	n/a	n/a	0	0	0
537761	REC_WORD	wordpools/wasnorm_wordpool_576.txt	LTP349	ltpFR2	9	3	FRIAR	605	n/a	n/a	0	0	0
539567	REC_WORD	wordpools/wasnorm_wordpool_576.txt	LTP349	ltpFR2	9	3	FRIAR	605	n/a	n/a	0	0	0
541230	REC_WORD	wordpools/wasnorm_wordpool_576.txt	LTP349	ltpFR2	9	3	ACTOR	5	n/a	n/a	0	0	0
542340	REC_WORD	wordpools/wasnorm_wordpool_576.txt	LTP349	ltpFR2	9	3	ACTRESS	6	n/a	n/a	0	0	0
543946	REC_WORD	wordpools/wasnorm_wordpool_576.txt	LTP349	ltpFR2	9	3	SPHINX	1349	n/a	n/a	0	0	0
626572	DISTRACTOR	n/a	LTP349	ltpFR2	9	4	n/a	n/a	n/a	n/a	0	0	0
626572	START	n/a	LTP349	ltpFR2	9	n/a	n/a	n/a	4	n/a	n/a	n/a	n/a
626589	PROB	n/a	LTP349	ltpFR2	9	n/a	n/a	n/a	4	11	8	1	2
628155	PROB	n/a	LTP349	ltpFR2	9	n/a	n/a	n/a	4	1	4	6	8
630787	PROB	n/a	LTP349	ltpFR2	9	n/a	n/a	n/a	4	11	5	2	4
634451	PROB	n/a	LTP349	ltpFR2	9	n/a	n/a	n/a	4	13	2	9	2
636900	PROB	n/a	LTP349	ltpFR2	9	n/a	n/a	n/a	4	15	1	9	5
638516	PROB	n/a	LTP349	ltpFR2	9	n/a	n/a	n/a	4	13	6	4	3
640049	PROB	n/a	LTP349	ltpFR2	9	n/a	n/a	n/a	4	24	9	9	6
643330	PROB	n/a	LTP349	ltpFR2	9	n/a	n/a	n/a	4	9	3	3	3
644713	PROB	n/a	LTP349	ltpFR2	9	n/a	n/a	n/a	4	6	3	1	2
646545	PROB	n/a	LTP349	ltpFR2	9	n/a	n/a	n/a	4	12	2	4	6
648295	PROB	n/a	LTP349	ltpFR2	9	n/a	n/a	n/a	4	19	9	6	4
650094	STOP	n/a	LTP349	ltpFR2	9	n/a	n/a	n/a	4	n/a	n/a	n/a	n/a
651726	WORD	wordpools/wasnorm_wordpool_576.txt	LTP349	ltpFR2	9	4	HEDGE	699	n/a	n/a	0	0	0
654275	WORD	wordpools/wasnorm_wordpool_576.txt	LTP349	ltpFR2	9	4	PANTHER	1009	n/a	n/a	0	0	0
656940	WORD	wordpools/wasnorm_wordpool_576.txt	LTP349	ltpFR2	9	4	CABBAGE	210	n/a	n/a	0	0	0
659422	WORD	wordpools/wasnorm_wordpool_576.txt	LTP349	ltpFR2	9	4	BURGLAR	200	n/a	n/a	0	0	0
661938	WORD	wordpools/wasnorm_wordpool_576.txt	LTP349	ltpFR2	9	4	ORCHID	982	n/a	n/a	0	0	0
664686	WORD	wordpools/wasnorm_wordpool_576.txt	LTP349	ltpFR2	9	4	SKILLET	1317	n/a	n/a	0	0	0
667468	WORD	wordpools/wasnorm_wordpool_576.txt	LTP349	ltpFR2	9	4	VIRUS	1572	n/a	n/a	0	0	0
670217	WORD	wordpools/wasnorm_wordpool_576.txt	LTP349	ltpFR2	9	4	LILY	821	n/a	n/a	0	0	0
672649	WORD	wordpools/wasnorm_wordpool_576.txt	LTP349	ltpFR2	9	4	LUNCH	849	n/a	n/a	0	0	0
675080	WORD	wordpools/wasnorm_wordpool_576.txt	LTP349	ltpFR2	9	4	PACKAGE	997	n/a	n/a	0	0	0
677530	WORD	wordpools/wasnorm_wordpool_576.txt	LTP349	ltpFR2	9	4	YOLK	1633	n/a	n/a	0	0	0
680112	WORD	wordpools/wasnorm_wordpool_576.txt	LTP349	ltpFR2	9	4	BLENDER	136	n/a	n/a	0	0	0
682727	WORD	wordpools/wasnorm_wordpool_576.txt	LTP349	ltpFR2	9	4	WORKER	1621	n/a	n/a	0	0	0
685376	WORD	wordpools/wasnorm_wordpool_576.txt	LTP349	ltpFR2	9	4	VELVET	1555	n/a	n/a	0	0	0
688091	WORD	wordpools/wasnorm_wordpool_576.txt	LTP349	ltpFR2	9	4	PADDING	999	n/a	n/a	0	0	0
690723	WORD	wordpools/wasnorm_wordpool_576.txt	LTP349	ltpFR2	9	4	UNCLE	1536	n/a	n/a	0	0	0
693172	WORD	wordpools/wasnorm_wordpool_576.txt	LTP349	ltpFR2	9	4	PLUTO	1092	n/a	n/a	0	0	0
695654	WORD	wordpools/wasnorm_wordpool_576.txt	LTP349	ltpFR2	9	4	AIRPORT	13	n/a	n/a	0	0	0
698137	WORD	wordpools/wasnorm_wordpool_576.txt	LTP349	ltpFR2	9	4	SCULPTURE	1258	n/a	n/a	0	0	0
700735	WORD	wordpools/wasnorm_wordpool_576.txt	LTP349	ltpFR2	9	4	EGYPT	519	n/a	n/a	0	0	0
703317	WORD	wordpools/wasnorm_wordpool_576.txt	LTP349	ltpFR2	9	4	PAPER	1011	n/a	n/a	0	0	0
706066	WORD	wordpools/wasnorm_wordpool_576.txt	LTP349	ltpFR2	9	4	BINDER	127	n/a	n/a	0	0	0
708881	WORD	wordpools/wasnorm_wordpool_576.txt	LTP349	ltpFR2	9	4	SKETCH	1315	n/a	n/a	0	0	0
711363	WORD	wordpools/wasnorm_wordpool_576.txt	LTP349	ltpFR2	9	4	BLUEPRINT	142	n/a	n/a	0	0	0
712979	START	n/a	LTP349	ltpFR2	9	n/a	n/a	n/a	5	n/a	n/a	n/a	n/a
714118	DISTRACTOR	n/a	LTP349	ltpFR2	9	4	n/a	n/a	n/a	n/a	0	0	0
714129	PROB	n/a	LTP349	ltpFR2	9	n/a	n/a	n/a	5	16	6	1	9
718193	PROB	n/a	LTP349	ltpFR2	9	n/a	n/a	n/a	5	11	4	4	3
721825	PROB	n/a	LTP349	ltpFR2	9	n/a	n/a	n/a	5	12	9	2	1
724423	PROB	n/a	LTP349	ltpFR2	9	n/a	n/a	n/a	5	17	6	7	4
726206	PROB	n/a	LTP349	ltpFR2	9	n/a	n/a	n/a	5	1	8	7	9
728372	PROB	n/a	LTP349	ltpFR2	9	n/a	n/a	n/a	5	19	6	8	5
732736	PROB	n/a	LTP349	ltpFR2	9	n/a	n/a	n/a	5	16	8	4	4
734452	PROB	n/a	LTP349	ltpFR2	9	n/a	n/a	n/a	5	7	3	2	2
736959	STOP	n/a	LTP349	ltpFR2	9	n/a	n/a	n/a	5	n/a	n/a	n/a	n/a
738750	REC_START	n/a	LTP349	ltpFR2	9	4	n/a	n/a	n/a	n/a	0	0	0
743548	REC_WORD	wordpools/wasnorm_wordpool_576.txt	LTP349	ltpFR2	9	4	HEDGE	699	n/a	n/a	0	0	0
744936	REC_WORD	wordpools/wasnorm_wordpool_576.txt	LTP349	ltpFR2	9	4	CABBAGE	210	n/a	n/a	0	0	0
746208	REC_WORD	wordpools/wasnorm_wordpool_576.txt	LTP349	ltpFR2	9	4	PANTHER	1009	n/a	n/a	0	0	0
747571	REC_WORD	wordpools/wasnorm_wordpool_576.txt	LTP349	ltpFR2	9	4	BURGLAR	200	n/a	n/a	0	0	0
749046	REC_WORD	wordpools/wasnorm_wordpool_576.txt	LTP349	ltpFR2	9	4	BLUEPRINT	142	n/a	n/a	0	0	0
750106	REC_WORD	wordpools/wasnorm_wordpool_576.txt	LTP349	ltpFR2	9	4	SKETCH	1315	n/a	n/a	0	0	0
752513	REC_WORD	wordpools/wasnorm_wordpool_576.txt	LTP349	ltpFR2	9	4	BINDER	127	n/a	n/a	0	0	0
754742	REC_WORD	wordpools/wasnorm_wordpool_576.txt	LTP349	ltpFR2	9	4	PAPER	1011	n/a	n/a	0	0	0
759240	REC_WORD	wordpools/wasnorm_wordpool_576.txt	LTP349	ltpFR2	9	4	BLENDER	136	n/a	n/a	0	0	0
760557	REC_WORD	wordpools/wasnorm_wordpool_576.txt	LTP349	ltpFR2	9	4	EGYPT	519	n/a	n/a	0	0	0
769714	REC_WORD	wordpools/wasnorm_wordpool_576.txt	LTP349	ltpFR2	9	4	SKILLET	1317	n/a	n/a	0	0	0
771356	REC_WORD	wordpools/wasnorm_wordpool_576.txt	LTP349	ltpFR2	9	4	VIRUS	1572	n/a	n/a	0	0	0
778977	REC_WORD	wordpools/wasnorm_wordpool_576.txt	LTP349	ltpFR2	9	4	ORCHID	982	n/a	n/a	0	0	0
829188	DISTRACTOR	n/a	LTP349	ltpFR2	9	5	n/a	n/a	n/a	n/a	0	0	0
829188	START	n/a	LTP349	ltpFR2	9	n/a	n/a	n/a	6	n/a	n/a	n/a	n/a
829205	PROB	n/a	LTP349	ltpFR2	9	n/a	n/a	n/a	6	21	6	8	7
834286	PROB	n/a	LTP349	ltpFR2	9	n/a	n/a	n/a	6	15	6	1	8
836868	PROB	n/a	LTP349	ltpFR2	9	n/a	n/a	n/a	6	24	7	9	8
839683	PROB	n/a	LTP349	ltpFR2	9	n/a	n/a	n/a	6	17	3	5	9
843798	PROB	n/a	LTP349	ltpFR2	9	n/a	n/a	n/a	6	7	2	1	4
846130	PROB	n/a	LTP349	ltpFR2	9	n/a	n/a	n/a	6	13	9	3	1
848812	PROB	n/a	LTP349	ltpFR2	9	n/a	n/a	n/a	6	18	4	8	6
850561	PROB	n/a	LTP349	ltpFR2	9	n/a	n/a	n/a	6	11	5	2	4
852399	STOP	n/a	LTP349	ltpFR2	9	n/a	n/a	n/a	6	n/a	n/a	n/a	n/a
854292	WORD	wordpools/wasnorm_wordpool_576.txt	LTP349	ltpFR2	9	5	PECAN	1036	n/a	n/a	0	0	0
857041	WORD	wordpools/wasnorm_wordpool_576.txt	LTP349	ltpFR2	9	5	CASHEW	253	n/a	n/a	0	0	0
859706	WORD	wordpools/wasnorm_wordpool_576.txt	LTP349	ltpFR2	9	5	AIRPLANE	12	n/a	n/a	0	0	0
862172	WORD	wordpools/wasnorm_wordpool_576.txt	LTP349	ltpFR2	9	5	COLONEL	348	n/a	n/a	0	0	0
864854	WORD	wordpools/wasnorm_wordpool_576.txt	LTP349	ltpFR2	9	5	POSSUM	1112	n/a	n/a	0	0	0
867353	WORD	wordpools/wasnorm_wordpool_576.txt	LTP349	ltpFR2	9	5	SERVER	1272	n/a	n/a	0	0	0
869935	WORD	wordpools/wasnorm_wordpool_576.txt	LTP349	ltpFR2	9	5	THRONE	1461	n/a	n/a	0	0	0
872567	WORD	wordpools/wasnorm_wordpool_576.txt	LTP349	ltpFR2	9	5	LIVER	833	n/a	n/a	0	0	0
875015	WORD	wordpools/wasnorm_wordpool_576.txt	LTP349	ltpFR2	9	5	THIEF	1456	n/a	n/a	0	0	0
877797	WORD	wordpools/wasnorm_wordpool_576.txt	LTP349	ltpFR2	9	5	COUNTRY	388	n/a	n/a	0	0	0
880413	WORD	wordpools/wasnorm_wordpool_576.txt	LTP349	ltpFR2	9	5	BRANCH	168	n/a	n/a	0	0	0
882995	WORD	wordpools/wasnorm_wordpool_576.txt	LTP349	ltpFR2	9	5	CREATURE	403	n/a	n/a	0	0	0
885593	WORD	wordpools/wasnorm_wordpool_576.txt	LTP349	ltpFR2	9	5	HATCHET	691	n/a	n/a	0	0	0
888242	WORD	wordpools/wasnorm_wordpool_576.txt	LTP349	ltpFR2	9	5	ORANGE	980	n/a	n/a	0	0	0
890891	WORD	wordpools/wasnorm_wordpool_576.txt	LTP349	ltpFR2	9	5	PORK	1108	n/a	n/a	0	0	0
893689	WORD	wordpools/wasnorm_wordpool_576.txt	LTP349	ltpFR2	9	5	PRINCE	1124	n/a	n/a	0	0	0
896488	WORD	wordpools/wasnorm_wordpool_576.txt	LTP349	ltpFR2	9	5	SHELTER	1282	n/a	n/a	0	0	0
899253	WORD	wordpools/wasnorm_wordpool_576.txt	LTP349	ltpFR2	9	5	PALACE	1006	n/a	n/a	0	0	0
901702	WORD	wordpools/wasnorm_wordpool_576.txt	LTP349	ltpFR2	9	5	OMELET	976	n/a	n/a	0	0	0
904201	WORD	wordpools/wasnorm_wordpool_576.txt	LTP349	ltpFR2	9	5	CRAB	397	n/a	n/a	0	0	0
906850	WORD	wordpools/wasnorm_wordpool_576.txt	LTP349	ltpFR2	9	5	COOKBOOK	373	n/a	n/a	0	0	0
909348	WORD	wordpools/wasnorm_wordpool_576.txt	LTP349	ltpFR2	9	5	BODY	145	n/a	n/a	0	0	0
911947	WORD	wordpools/wasnorm_wordpool_576.txt	LTP349	ltpFR2	9	5	GRAPE	654	n/a	n/a	0	0	0
914646	WORD	wordpools/wasnorm_wordpool_576.txt	LTP349	ltpFR2	9	5	BREAST	171	n/a	n/a	0	0	0
916262	START	n/a	LTP349	ltpFR2	9	n/a	n/a	n/a	7	n/a	n/a	n/a	n/a
917081	DISTRACTOR	n/a	LTP349	ltpFR2	9	5	n/a	n/a	n/a	n/a	0	0	0
917093	PROB	n/a	LTP349	ltpFR2	9	n/a	n/a	n/a	7	18	6	8	4
918794	PROB	n/a	LTP349	ltpFR2	9	n/a	n/a	n/a	7	14	1	6	7
920526	PROB	n/a	LTP349	ltpFR2	9	n/a	n/a	n/a	7	13	2	3	8
922908	PROB	n/a	LTP349	ltpFR2	9	n/a	n/a	n/a	7	7	2	1	4
926323	PROB	n/a	LTP349	ltpFR2	9	n/a	n/a	n/a	7	13	4	5	4
930071	PROB	n/a	LTP349	ltpFR2	9	n/a	n/a	n/a	7	14	1	8	5
933536	PROB	n/a	LTP349	ltpFR2	9	n/a	n/a	n/a	7	17	7	4	6
936118	PROB	n/a	LTP349	ltpFR2	9	n/a	n/a	n/a	7	17	7	5	5
940262	STOP	n/a	LTP349	ltpFR2	9	n/a	n/a	n/a	7	n/a	n/a	n/a	n/a
942116	REC_START	n/a	LTP349	ltpFR2	9	5	n/a	n/a	n/a	n/a	0	0	0
944541	REC_WORD	wordpools/wasnorm_wordpool_576.txt	LTP349	ltpFR2	9	5	BEAST	108	n/a	n/a	0	0	0
947817	REC_WORD	wordpools/wasnorm_wordpool_576.txt	LTP349	ltpFR2	9	5	THRONE	1461	n/a	n/a	0	0	0
949381	REC_WORD	wordpools/wasnorm_wordpool_576.txt	LTP349	ltpFR2	9	5	PALACE	1006	n/a	n/a	0	0	0
952413	REC_WORD	wordpools/wasnorm_wordpool_576.txt	LTP349	ltpFR2	9	5	KING	777	n/a	n/a	0	0	0
952897	REC_WORD_VV	wordpools/wasnorm_wordpool_576.txt	LTP349	ltpFR2	9	5	<>	-1	n/a	n/a	0	0	0
958849	REC_WORD	wordpools/wasnorm_wordpool_576.txt	LTP349	ltpFR2	9	5	CASHEW	253	n/a	n/a	0	0	0
961991	REC_WORD	wordpools/wasnorm_wordpool_576.txt	LTP349	ltpFR2	9	5	PECAN	1036	n/a	n/a	0	0	0
965493	REC_WORD	wordpools/wasnorm_wordpool_576.txt	LTP349	ltpFR2	9	5	AIRPLANE	12	n/a	n/a	0	0	0
967723	REC_WORD	wordpools/wasnorm_wordpool_576.txt	LTP349	ltpFR2	9	5	CRAB	397	n/a	n/a	0	0	0
969616	REC_WORD	wordpools/wasnorm_wordpool_576.txt	LTP349	ltpFR2	9	5	OMELET	976	n/a	n/a	0	0	0
971233	REC_WORD	wordpools/wasnorm_wordpool_576.txt	LTP349	ltpFR2	9	5	COOKBOOK	373	n/a	n/a	0	0	0
972904	REC_WORD	wordpools/wasnorm_wordpool_576.txt	LTP349	ltpFR2	9	5	THIEF	1456	n/a	n/a	0	0	0
1032570	WORD	wordpools/wasnorm_wordpool_576.txt	LTP349	ltpFR2	9	6	BRANDY	169	n/a	n/a	0	0	0
1035153	WORD	wordpools/wasnorm_wordpool_576.txt	LTP349	ltpFR2	9	6	SCOTCH	1251	n/a	n/a	0	0	0
1037768	WORD	wordpools/wasnorm_wordpool_576.txt	LTP349	ltpFR2	9	6	BUGGY	188	n/a	n/a	0	0	0
1040467	WORD	wordpools/wasnorm_wordpool_576.txt	LTP349	ltpFR2	9	6	DASHBOARD	441	n/a	n/a	0	0	0
1042899	WORD	wordpools/wasnorm_wordpool_576.txt	LTP349	ltpFR2	9	6	BUBBLE	183	n/a	n/a	0	0	0
1045381	WORD	wordpools/wasnorm_wordpool_576.txt	LTP349	ltpFR2	9	6	WIFE	1609	n/a	n/a	0	0	0
1048179	WORD	wordpools/wasnorm_wordpool_576.txt	LTP349	ltpFR2	9	6	PICNIC	1060	n/a	n/a	0	0	0
1050911	WORD	wordpools/wasnorm_wordpool_576.txt	LTP349	ltpFR2	9	6	PEACH	1031	n/a	n/a	0	0	0
1053560	WORD	wordpools/wasnorm_wordpool_576.txt	LTP349	ltpFR2	9	6	DRINK	498	n/a	n/a	0	0	0
1056342	WORD	wordpools/wasnorm_wordpool_576.txt	LTP349	ltpFR2	9	6	GALLON	618	n/a	n/a	0	0	0
1058857	WORD	wordpools/wasnorm_wordpool_576.txt	LTP349	ltpFR2	9	6	COURSE	390	n/a	n/a	0	0	0
1061339	WORD	wordpools/wasnorm_wordpool_576.txt	LTP349	ltpFR2	9	6	LOVER	846	n/a	n/a	0	0	0
1063888	WORD	wordpools/wasnorm_wordpool_576.txt	LTP349	ltpFR2	9	6	SWIMMER	1420	n/a	n/a	0	0	0
1066537	WORD	wordpools/wasnorm_wordpool_576.txt	LTP349	ltpFR2	9	6	MARSH	874	n/a	n/a	0	0	0
1069219	WORD	wordpools/wasnorm_wordpool_576.txt	LTP349	ltpFR2	9	6	TYPIST	1532	n/a	n/a	0	0	0
1071768	WORD	wordpools/wasnorm_wordpool_576.txt	LTP349	ltpFR2	9	6	COLLEGE	346	n/a	n/a	0	0	0
1074333	WORD	wordpools/wasnorm_wordpool_576.txt	LTP349	ltpFR2	9	6	HEADBAND	696	n/a	n/a	0	0	0
1076965	WORD	wordpools/wasnorm_wordpool_576.txt	LTP349	ltpFR2	9	6	DANCER	437	n/a	n/a	0	0	0
1079597	WORD	wordpools/wasnorm_wordpool_576.txt	LTP349	ltpFR2	9	6	CRIB	407	n/a	n/a	0	0	0
1082279	WORD	wordpools/wasnorm_wordpool_576.txt	LTP349	ltpFR2	9	6	TAXI	1438	n/a	n/a	0	0	0
1084795	WORD	wordpools/wasnorm_wordpool_576.txt	LTP349	ltpFR2	9	6	PREACHER	1119	n/a	n/a	0	0	0
1087243	WORD	wordpools/wasnorm_wordpool_576.txt	LTP349	ltpFR2	9	6	IDOL	733	n/a	n/a	0	0	0
1089725	WORD	wordpools/wasnorm_wordpool_576.txt	LTP349	ltpFR2	9	6	COD	340	n/a	n/a	0	0	0
1092374	WORD	wordpools/wasnorm_wordpool_576.txt	LTP349	ltpFR2	9	6	PATIENT	1024	n/a	n/a	0	0	0
1093990	START	n/a	LTP349	ltpFR2	9	n/a	n/a	n/a	8	n/a	n/a	n/a	n/a
1095015	DISTRACTOR	n/a	LTP349	ltpFR2	9	6	n/a	n/a	n/a	n/a	0	0	0
1095023	PROB	n/a	LTP349	ltpFR2	9	n/a	n/a	n/a	8	23	6	8	9
1098388	PROB	n/a	LTP349	ltpFR2	9	n/a	n/a	n/a	8	15	7	3	5
1100803	PROB	n/a	LTP349	ltpFR2	9	n/a	n/a	n/a	8	18	6	7	5
1104168	PROB	n/a	LTP349	ltpFR2	9	n/a	n/a	n/a	8	13	2	3	8
1106950	PROB	n/a	LTP349	ltpFR2	9	n/a	n/a	n/a	8	19	2	9	8
1109549	PROB	n/a	LTP349	ltpFR2	9	n/a	n/a	n/a	8	17	8	1	8
1111981	PROB	n/a	LTP349	ltpFR2	9	n/a	n/a	n/a	8	15	3	9	3
1114247	PROB	n/a	LTP349	ltpFR2	9	n/a	n/a	n/a	8	19	7	9	3
1117989	STOP	n/a	LTP349	ltpFR2	9	n/a	n/a	n/a	8	n/a	n/a	n/a	n/a
1119878	REC_START	n/a	LTP349	ltpFR2	9	6	n/a	n/a	n/a	n/a	0	0	0
1124029	REC_WORD	wordpools/wasnorm_wordpool_576.txt	LTP349	ltpFR2	9	6	LOVER	846	n/a	n/a	0	0	0
1125562	REC_WORD	wordpools/wasnorm_wordpool_576.txt	LTP349	ltpFR2	9	6	PEACH	1031	n/a	n/a	0	0	0
1126677	REC_WORD	wordpools/wasnorm_wordpool_576.txt	LTP349	ltpFR2	9	6	SCOTCH	1251	n/a	n/a	0	0	0
1128025	REC_WORD	wordpools/wasnorm_wordpool_576.txt	LTP349	ltpFR2	9	6	BRANDY	169	n/a	n/a	0	0	0
1129224	REC_WORD	wordpools/wasnorm_wordpool_576.txt	LTP349	ltpFR2	9	6	BUGGY	188	n/a	n/a	0	0	0
1130283	REC_WORD	wordpools/wasnorm_wordpool_576.txt	LTP349	ltpFR2	9	6	COURSE	390	n/a	n/a	0	0	0
1131904	REC_WORD	wordpools/wasnorm_wordpool_576.txt	LTP349	ltpFR2	9	6	PICNIC	1060	n/a	n/a	0	0	0
1133069	REC_WORD	wordpools/wasnorm_wordpool_576.txt	LTP349	ltpFR2	9	6	SWIMMER	1420	n/a	n/a	0	0	0
1210316	DISTRACTOR	n/a	LTP349	ltpFR2	9	7	n/a	n/a	n/a	n/a	0	0	0
1210316	START	n/a	LTP349	ltpFR2	9	n/a	n/a	n/a	9	n/a	n/a	n/a	n/a
1210332	PROB	n/a	LTP349	ltpFR2	9	n/a	n/a	n/a	9	15	7	6	2
1212381	PROB	n/a	LTP349	ltpFR2	9	n/a	n/a	n/a	9	17	1	9	7
1214014	PROB	n/a	LTP349	ltpFR2	9	n/a	n/a	n/a	9	15	7	7	1
1215346	PROB	n/a	LTP349	ltpFR2	9	n/a	n/a	n/a	9	19	9	8	2
1217129	PROB	n/a	LTP349	ltpFR2	9	n/a	n/a	n/a	9	22	8	6	8
1219611	PROB	n/a	LTP349	ltpFR2	9	n/a	n/a	n/a	9	8	1	1	6
1220977	PROB	n/a	LTP349	ltpFR2	9	n/a	n/a	n/a	9	13	3	8	2
1222543	PROB	n/a	LTP349	ltpFR2	9	n/a	n/a	n/a	9	14	8	3	3
1225108	PROB	n/a	LTP349	ltpFR2	9	n/a	n/a	n/a	9	5	1	3	1
1226424	PROB	n/a	LTP349	ltpFR2	9	n/a	n/a	n/a	9	13	3	5	5
1227907	PROB	n/a	LTP349	ltpFR2	9	n/a	n/a	n/a	9	15	7	3	5
1230356	PROB	n/a	LTP349	ltpFR2	9	n/a	n/a	n/a	9	9	5	1	3
1234303	STOP	n/a	LTP349	ltpFR2	9	n/a	n/a	n/a	9	n/a	n/a	n/a	n/a
1235370	WORD	wordpools/wasnorm_wordpool_576.txt	LTP349	ltpFR2	9	7	VICTIM	1562	n/a	n/a	0	0	0
1237819	WORD	wordpools/wasnorm_wordpool_576.txt	LTP349	ltpFR2	9	7	QUARTER	1148	n/a	n/a	0	0	0
1240367	WORD	wordpools/wasnorm_wordpool_576.txt	LTP349	ltpFR2	9	7	CASHIER	254	n/a	n/a	0	0	0
1242866	WORD	wordpools/wasnorm_wordpool_576.txt	LTP349	ltpFR2	9	7	GAVEL	627	n/a	n/a	0	0	0
1245298	WORD	wordpools/wasnorm_wordpool_576.txt	LTP349	ltpFR2	9	7	PISTOL	1075	n/a	n/a	0	0	0
1247963	WORD	wordpools/wasnorm_wordpool_576.txt	LTP349	ltpFR2	9	7	MATTRESS	879	n/a	n/a	0	0	0
1250562	WORD	wordpools/wasnorm_wordpool_576.txt	LTP349	ltpFR2	9	7	RUG	1215	n/a	n/a	0	0	0
1253194	WORD	wordpools/wasnorm_wordpool_576.txt	LTP349	ltpFR2	9	7	FLASHLIGHT	575	n/a	n/a	0	0	0
1255860	WORD	wordpools/wasnorm_wordpool_576.txt	LTP349	ltpFR2	9	7	CLOCK	325	n/a	n/a	0	0	0
1258442	WORD	wordpools/wasnorm_wordpool_576.txt	LTP349	ltpFR2	9	7	COOK	372	n/a	n/a	0	0	0
1261089	WORD	wordpools/wasnorm_wordpool_576.txt	LTP349	ltpFR2	9	7	EXPERT	543	n/a	n/a	0	0	0
1263722	WORD	wordpools/wasnorm_wordpool_576.txt	LTP349	ltpFR2	9	7	KITCHEN	778	n/a	n/a	0	0	0
1266188	WORD	wordpools/wasnorm_wordpool_576.txt	LTP349	ltpFR2	9	7	SADDLE	1221	n/a	n/a	0	0	0
1268687	WORD	wordpools/wasnorm_wordpool_576.txt	LTP349	ltpFR2	9	7	BASEMENT	94	n/a	n/a	0	0	0
1271335	WORD	wordpools/wasnorm_wordpool_576.txt	LTP349	ltpFR2	9	7	TUNNEL	1519	n/a	n/a	0	0	0
1274100	WORD	wordpools/wasnorm_wordpool_576.txt	LTP349	ltpFR2	9	7	SUNRISE	1407	n/a	n/a	0	0	0
1276899	WORD	wordpools/wasnorm_wordpool_576.txt	LTP349	ltpFR2	9	7	CAPTIVE	240	n/a	n/a	0	0	0
1279531	WORD	wordpools/wasnorm_wordpool_576.txt	LTP349	ltpFR2	9	7	APPLE	33	n/a	n/a	0	0	0
1282047	WORD	wordpools/wasnorm_wordpool_576.txt	LTP349	ltpFR2	9	7	NECKLACE	940	n/a	n/a	0	0	0
1284795	WORD	wordpools/wasnorm_wordpool_576.txt	LTP349	ltpFR2	9	7	YARN	1631	n/a	n/a	0	0	0
1287227	WORD	wordpools/wasnorm_wordpool_576.txt	LTP349	ltpFR2	9	7	PEBBLE	1035	n/a	n/a	0	0	0
1289959	WORD	wordpools/wasnorm_wordpool_576.txt	LTP349	ltpFR2	9	7	KIDNEY	776	n/a	n/a	0	0	0
1292708	WORD	wordpools/wasnorm_wordpool_576.txt	LTP349	ltpFR2	9	7	PLATE	1086	n/a	n/a	0	0	0
1295257	WORD	wordpools/wasnorm_wordpool_576.txt	LTP349	ltpFR2	9	7	CONVICT	371	n/a	n/a	0	0	0
1296873	START	n/a	LTP349	ltpFR2	9	n/a	n/a	n/a	10	n/a	n/a	n/a	n/a
1298072	DISTRACTOR	n/a	LTP349	ltpFR2	9	7	n/a	n/a	n/a	n/a	0	0	0
1298088	PROB	n/a	LTP349	ltpFR2	9	n/a	n/a	n/a	10	13	2	7	4
1301887	PROB	n/a	LTP349	ltpFR2	9	n/a	n/a	n/a	10	13	2	9	2
1304369	PROB	n/a	LTP349	ltpFR2	9	n/a	n/a	n/a	10	18	3	9	6
1306618	PROB	n/a	LTP349	ltpFR2	9	n/a	n/a	n/a	10	24	9	9	6
1309650	PROB	n/a	LTP349	ltpFR2	9	n/a	n/a	n/a	10	13	1	6	6
1311832	PROB	n/a	LTP349	ltpFR2	9	n/a	n/a	n/a	10	21	7	8	6
1314264	PROB	n/a	LTP349	ltpFR2	9	n/a	n/a	n/a	10	23	6	8	9
1320873	STOP	n/a	LTP349	ltpFR2	9	n/a	n/a	n/a	10	n/a	n/a	n/a	n/a
1322695	REC_START	n/a	LTP349	ltpFR2	9	7	n/a	n/a	n/a	n/a	0	0	0
1328541	REC_WORD_VV	wordpools/wasnorm_wordpool_576.txt	LTP349	ltpFR2	9	7	<>	-1	n/a	n/a	0	0	0
1330335	REC_WORD	wordpools/wasnorm_wordpool_576.txt	LTP349	ltpFR2	9	7	KIDNEY	776	n/a	n/a	0	0	0
1337521	REC_WORD	wordpools/wasnorm_wordpool_576.txt	LTP349	ltpFR2	9	7	SADDLE	1221	n/a	n/a	0	0	0
1339932	REC_WORD	wordpools/wasnorm_wordpool_576.txt	LTP349	ltpFR2	9	7	BASEMENT	94	n/a	n/a	0	0	0
1341710	REC_WORD	wordpools/wasnorm_wordpool_576.txt	LTP349	ltpFR2	9	7	TUNNEL	1519	n/a	n/a	0	0	0
1346448	REC_WORD	wordpools/wasnorm_wordpool_576.txt	LTP349	ltpFR2	9	7	YARN	1631	n/a	n/a	0	0	0
1348271	REC_WORD	wordpools/wasnorm_wordpool_576.txt	LTP349	ltpFR2	9	7	NECKLACE	940	n/a	n/a	0	0	0
1386314	REC_WORD	wordpools/wasnorm_wordpool_576.txt	LTP349	ltpFR2	9	7	CLOCK	325	n/a	n/a	0	0	0
1413148	WORD	wordpools/wasnorm_wordpool_576.txt	LTP349	ltpFR2	9	8	JELLO	754	n/a	n/a	0	0	0
1415580	WORD	wordpools/wasnorm_wordpool_576.txt	LTP349	ltpFR2	9	8	APRON	35	n/a	n/a	0	0	0
1418062	WORD	wordpools/wasnorm_wordpool_576.txt	LTP349	ltpFR2	9	8	MARKER	870	n/a	n/a	0	0	0
1420828	WORD	wordpools/wasnorm_wordpool_576.txt	LTP349	ltpFR2	9	8	FOOT	590	n/a	n/a	0	0	0
1423543	WORD	wordpools/wasnorm_wordpool_576.txt	LTP349	ltpFR2	9	8	BRIEFCASE	175	n/a	n/a	0	0	0
1426108	WORD	wordpools/wasnorm_wordpool_576.txt	LTP349	ltpFR2	9	8	LACE	792	n/a	n/a	0	0	0
1428874	WORD	wordpools/wasnorm_wordpool_576.txt	LTP349	ltpFR2	9	8	SILK	1307	n/a	n/a	0	0	0
1431706	WORD	wordpools/wasnorm_wordpool_576.txt	LTP349	ltpFR2	9	8	MEDAL	885	n/a	n/a	0	0	0
1434188	WORD	wordpools/wasnorm_wordpool_576.txt	LTP349	ltpFR2	9	8	COIN	343	n/a	n/a	0	0	0
1436670	WORD	wordpools/wasnorm_wordpool_576.txt	LTP349	ltpFR2	9	8	CABIN	211	n/a	n/a	0	0	0
1439368	WORD	wordpools/wasnorm_wordpool_576.txt	LTP349	ltpFR2	9	8	TERMITE	1451	n/a	n/a	0	0	0
1442034	WORD	wordpools/wasnorm_wordpool_576.txt	LTP349	ltpFR2	9	8	WRENCH	1625	n/a	n/a	0	0	0
1444766	WORD	wordpools/wasnorm_wordpool_576.txt	LTP349	ltpFR2	9	8	HAWK	692	n/a	n/a	0	0	0
1447315	WORD	wordpools/wasnorm_wordpool_576.txt	LTP349	ltpFR2	9	8	PLASTER	1085	n/a	n/a	0	0	0
1449963	WORD	wordpools/wasnorm_wordpool_576.txt	LTP349	ltpFR2	9	8	MISSILE	900	n/a	n/a	0	0	0
1452629	WORD	wordpools/wasnorm_wordpool_576.txt	LTP349	ltpFR2	9	8	DIME	466	n/a	n/a	0	0	0
1455294	WORD	wordpools/wasnorm_wordpool_576.txt	LTP349	ltpFR2	9	8	BABY	64	n/a	n/a	0	0	0
1457959	WORD	wordpools/wasnorm_wordpool_576.txt	LTP349	ltpFR2	9	8	BLOCKADE	137	n/a	n/a	0	0	0
1460625	WORD	wordpools/wasnorm_wordpool_576.txt	LTP349	ltpFR2	9	8	BRAKE	166	n/a	n/a	0	0	0
1463123	WORD	wordpools/wasnorm_wordpool_576.txt	LTP349	ltpFR2	9	8	TWEEZERS	1526	n/a	n/a	0	0	0
1465872	WORD	wordpools/wasnorm_wordpool_576.txt	LTP349	ltpFR2	9	8	REPORT	1184	n/a	n/a	0	0	0
1468571	WORD	wordpools/wasnorm_wordpool_576.txt	LTP349	ltpFR2	9	8	MONEY	908	n/a	n/a	0	0	0
1471119	WORD	wordpools/wasnorm_wordpool_576.txt	LTP349	ltpFR2	9	8	FRIEND	606	n/a	n/a	0	0	0
1473652	WORD	wordpools/wasnorm_wordpool_576.txt	LTP349	ltpFR2	9	8	JURY	766	n/a	n/a	0	0	0
1475268	START	n/a	LTP349	ltpFR2	9	n/a	n/a	n/a	11	n/a	n/a	n/a	n/a
1476091	DISTRACTOR	n/a	LTP349	ltpFR2	9	8	n/a	n/a	n/a	n/a	0	0	0
1476099	PROB	n/a	LTP349	ltpFR2	9	n/a	n/a	n/a	11	19	7	9	5
1480648	PROB	n/a	LTP349	ltpFR2	9	n/a	n/a	n/a	11	17	8	5	4
1483813	PROB	n/a	LTP349	ltpFR2	9	n/a	n/a	n/a	11	13	7	1	5
1486112	PROB	n/a	LTP349	ltpFR2	9	n/a	n/a	n/a	11	20	4	9	7
1489827	PROB	n/a	LTP349	ltpFR2	9	n/a	n/a	n/a	11	15	4	7	4
1492142	PROB	n/a	LTP349	ltpFR2	9	n/a	n/a	n/a	11	17	8	3	6
1495391	PROB	n/a	LTP349	ltpFR2	9	n/a	n/a	n/a	11	11	2	4	5
1499268	STOP	n/a	LTP349	ltpFR2	9	n/a	n/a	n/a	11	n/a	n/a	n/a	n/a
1501022	REC_START	n/a	LTP349	ltpFR2	9	8	n/a	n/a	n/a	n/a	0	0	0
1528930	REC_WORD	wordpools/wasnorm_wordpool_576.txt	LTP349	ltpFR2	9	8	SILK	1307	n/a	n/a	0	0	0
1530761	REC_WORD	wordpools/wasnorm_wordpool_576.txt	LTP349	ltpFR2	9	8	LACE	792	n/a	n/a	0	0	0
1577567	REST_REWET	n/a	LTP349	ltpFR2	9	8	n/a	n/a	n/a	n/a	0	0	0
1759276	WORD	wordpools/wasnorm_wordpool_576.txt	LTP349	ltpFR2	9	9	KETCHUP	771	n/a	n/a	0	0	0
1761708	WORD	wordpools/wasnorm_wordpool_576.txt	LTP349	ltpFR2	9	9	JAPAN	749	n/a	n/a	0	0	0
1764141	WORD	wordpools/wasnorm_wordpool_576.txt	LTP349	ltpFR2	9	9	MOTOR	922	n/a	n/a	0	0	0
1766606	WORD	wordpools/wasnorm_wordpool_576.txt	LTP349	ltpFR2	9	9	SPONGE	1355	n/a	n/a	0	0	0
1769221	WORD	wordpools/wasnorm_wordpool_576.txt	LTP349	ltpFR2	9	9	SCARECROW	1245	n/a	n/a	0	0	0
1771753	WORD	wordpools/wasnorm_wordpool_576.txt	LTP349	ltpFR2	9	9	RIVER	1194	n/a	n/a	0	0	0
1774269	WORD	wordpools/wasnorm_wordpool_576.txt	LTP349	ltpFR2	9	9	BATHTUB	100	n/a	n/a	0	0	0
1776701	WORD	wordpools/wasnorm_wordpool_576.txt	LTP349	ltpFR2	9	9	FLUTE	585	n/a	n/a	0	0	0
1779500	WORD	wordpools/wasnorm_wordpool_576.txt	LTP349	ltpFR2	9	9	PEANUT	1032	n/a	n/a	0	0	0
1782115	WORD	wordpools/wasnorm_wordpool_576.txt	LTP349	ltpFR2	9	9	LAVA	804	n/a	n/a	0	0	0
1784597	WORD	wordpools/wasnorm_wordpool_576.txt	LTP349	ltpFR2	9	9	DRAWING	494	n/a	n/a	0	0	0
1787262	WORD	wordpools/wasnorm_wordpool_576.txt	LTP349	ltpFR2	9	9	ASIA	46	n/a	n/a	0	0	0
1789794	WORD	wordpools/wasnorm_wordpool_576.txt	LTP349	ltpFR2	9	9	LUMBER	848	n/a	n/a	0	0	0
1792260	WORD	wordpools/wasnorm_wordpool_576.txt	LTP349	ltpFR2	9	9	EMPIRE	530	n/a	n/a	0	0	0
1794809	WORD	wordpools/wasnorm_wordpool_576.txt	LTP349	ltpFR2	9	9	GLASS	639	n/a	n/a	0	0	0
1797591	WORD	wordpools/wasnorm_wordpool_576.txt	LTP349	ltpFR2	9	9	PENGUIN	1044	n/a	n/a	0	0	0
1800073	WORD	wordpools/wasnorm_wordpool_576.txt	LTP349	ltpFR2	9	9	WRIST	1626	n/a	n/a	0	0	0
1802738	WORD	wordpools/wasnorm_wordpool_576.txt	LTP349	ltpFR2	9	9	PARTNER	1017	n/a	n/a	0	0	0
1805520	WORD	wordpools/wasnorm_wordpool_576.txt	LTP349	ltpFR2	9	9	ARM	38	n/a	n/a	0	0	0
1808101	WORD	wordpools/wasnorm_wordpool_576.txt	LTP349	ltpFR2	9	9	LEG	809	n/a	n/a	0	0	0
1810601	WORD	wordpools/wasnorm_wordpool_576.txt	LTP349	ltpFR2	9	9	BLACKBOARD	133	n/a	n/a	0	0	0
1813416	WORD	wordpools/wasnorm_wordpool_576.txt	LTP349	ltpFR2	9	9	LIGHTNING	820	n/a	n/a	0	0	0
1816198	WORD	wordpools/wasnorm_wordpool_576.txt	LTP349	ltpFR2	9	9	PUDDLE	1140	n/a	n/a	0	0	0
1818913	WORD	wordpools/wasnorm_wordpool_576.txt	LTP349	ltpFR2	9	9	GLOVE	642	n/a	n/a	0	0	0
1820529	START	n/a	LTP349	ltpFR2	9	n/a	n/a	n/a	12	n/a	n/a	n/a	n/a
1821366	DISTRACTOR	n/a	LTP349	ltpFR2	9	9	n/a	n/a	n/a	n/a	0	0	0
1821379	PROB	n/a	LTP349	ltpFR2	9	n/a	n/a	n/a	12	11	5	4	2
1823295	PROB	n/a	LTP349	ltpFR2	9	n/a	n/a	n/a	12	9	3	4	2
1824994	PROB	n/a	LTP349	ltpFR2	9	n/a	n/a	n/a	12	16	9	3	4
1828109	PROB	n/a	LTP349	ltpFR2	9	n/a	n/a	n/a	12	21	6	8	7
1830291	PROB	n/a	LTP349	ltpFR2	9	n/a	n/a	n/a	12	18	7	2	9
1832390	PROB	n/a	LTP349	ltpFR2	9	n/a	n/a	n/a	12	15	8	2	5
1834972	PROB	n/a	LTP349	ltpFR2	9	n/a	n/a	n/a	12	16	5	5	6
1836838	PROB	n/a	LTP349	ltpFR2	9	n/a	n/a	n/a	12	10	3	2	5
1838987	PROB	n/a	LTP349	ltpFR2	9	n/a	n/a	n/a	12	8	4	1	3
1841186	PROB	n/a	LTP349	ltpFR2	9	n/a	n/a	n/a	12	19	6	8	5
1843615	STOP	n/a	LTP349	ltpFR2	9	n/a	n/a	n/a	12	n/a	n/a	n/a	n/a
1846317	REC_START	n/a	LTP349	ltpFR2	9	9	n/a	n/a	n/a	n/a	0	0	0
1849450	REC_WORD	wordpools/wasnorm_wordpool_576.txt	LTP349	ltpFR2	9	9	KETCHUP	771	n/a	n/a	0	0	0
1850885	REC_WORD	wordpools/wasnorm_wordpool_576.txt	LTP349	ltpFR2	9	9	BATHTUB	100	n/a	n/a	0	0	0
1852264	REC_WORD	wordpools/wasnorm_wordpool_576.txt	LTP349	ltpFR2	9	9	RIVER	1194	n/a	n/a	0	0	0
1853600	REC_WORD	wordpools/wasnorm_wordpool_576.txt	LTP349	ltpFR2	9	9	LAVA	804	n/a	n/a	0	0	0
1855161	REC_WORD	wordpools/wasnorm_wordpool_576.txt	LTP349	ltpFR2	9	9	JAPAN	749	n/a	n/a	0	0	0
1856389	REC_WORD	wordpools/wasnorm_wordpool_576.txt	LTP349	ltpFR2	9	9	EMPIRE	530	n/a	n/a	0	0	0
1858835	REC_WORD	wordpools/wasnorm_wordpool_576.txt	LTP349	ltpFR2	9	9	SPONGE	1355	n/a	n/a	0	0	0
1861423	REC_WORD	wordpools/wasnorm_wordpool_576.txt	LTP349	ltpFR2	9	9	SCARECROW	1245	n/a	n/a	0	0	0
1919752	REC_WORD	wordpools/wasnorm_wordpool_576.txt	LTP349	ltpFR2	9	9	ARM	38	n/a	n/a	0	0	0
1920505	REC_WORD	wordpools/wasnorm_wordpool_576.txt	LTP349	ltpFR2	9	9	LEG	809	n/a	n/a	0	0	0
1936755	DISTRACTOR	n/a	LTP349	ltpFR2	9	10	n/a	n/a	n/a	n/a	0	0	0
1936755	START	n/a	LTP349	ltpFR2	9	n/a	n/a	n/a	13	n/a	n/a	n/a	n/a
1936772	PROB	n/a	LTP349	ltpFR2	9	n/a	n/a	n/a	13	15	1	9	5
1938487	PROB	n/a	LTP349	ltpFR2	9	n/a	n/a	n/a	13	11	4	3	4
1943002	PROB	n/a	LTP349	ltpFR2	9	n/a	n/a	n/a	13	10	2	6	2
1944584	PROB	n/a	LTP349	ltpFR2	9	n/a	n/a	n/a	13	13	8	3	2
1946950	PROB	n/a	LTP349	ltpFR2	9	n/a	n/a	n/a	13	16	4	8	4
1949199	PROB	n/a	LTP349	ltpFR2	9	n/a	n/a	n/a	13	21	6	9	6
1953730	PROB	n/a	LTP349	ltpFR2	9	n/a	n/a	n/a	13	5	1	1	3
1955078	PROB	n/a	LTP349	ltpFR2	9	n/a	n/a	n/a	13	23	9	8	6
1960755	STOP	n/a	LTP349	ltpFR2	9	n/a	n/a	n/a	13	n/a	n/a	n/a	n/a
1961743	WORD	wordpools/wasnorm_wordpool_576.txt	LTP349	ltpFR2	9	10	COCKTAIL	338	n/a	n/a	0	0	0
1964574	WORD	wordpools/wasnorm_wordpool_576.txt	LTP349	ltpFR2	9	10	MARKET	871	n/a	n/a	0	0	0
1967290	WORD	wordpools/wasnorm_wordpool_576.txt	LTP349	ltpFR2	9	10	LODGE	839	n/a	n/a	0	0	0
1970038	WORD	wordpools/wasnorm_wordpool_576.txt	LTP349	ltpFR2	9	10	JEANS	752	n/a	n/a	0	0	0
1972770	WORD	wordpools/wasnorm_wordpool_576.txt	LTP349	ltpFR2	9	10	DENIM	446	n/a	n/a	0	0	0
1975369	WORD	wordpools/wasnorm_wordpool_576.txt	LTP349	ltpFR2	9	10	STREAM	1392	n/a	n/a	0	0	0
1978001	WORD	wordpools/wasnorm_wordpool_576.txt	LTP349	ltpFR2	9	10	FREEZER	604	n/a	n/a	0	0	0
1980583	WORD	wordpools/wasnorm_wordpool_576.txt	LTP349	ltpFR2	9	10	SHELF	1280	n/a	n/a	0	0	0
1983348	WORD	wordpools/wasnorm_wordpool_576.txt	LTP349	ltpFR2	9	10	DINER	467	n/a	n/a	0	0	0
1986096	WORD	wordpools/wasnorm_wordpool_576.txt	LTP349	ltpFR2	9	10	TURTLE	1522	n/a	n/a	0	0	0
1988762	WORD	wordpools/wasnorm_wordpool_576.txt	LTP349	ltpFR2	9	10	RABBIT	1152	n/a	n/a	0	0	0
1991578	WORD	wordpools/wasnorm_wordpool_576.txt	LTP349	ltpFR2	9	10	SLIME	1327	n/a	n/a	0	0	0
1994010	WORD	wordpools/wasnorm_wordpool_576.txt	LTP349	ltpFR2	9	10	TWISTER	1530	n/a	n/a	0	0	0
1996492	WORD	wordpools/wasnorm_wordpool_576.txt	LTP349	ltpFR2	9	10	CUSTARD	429	n/a	n/a	0	0	0
1999007	WORD	wordpools/wasnorm_wordpool_576.txt	LTP349	ltpFR2	9	10	STICKER	1382	n/a	n/a	0	0	0
2001606	WORD	wordpools/wasnorm_wordpool_576.txt	LTP349	ltpFR2	9	10	HERO	706	n/a	n/a	0	0	0
2004271	WORD	wordpools/wasnorm_wordpool_576.txt	LTP349	ltpFR2	9	10	WITNESS	1618	n/a	n/a	0	0	0
2006937	WORD	wordpools/wasnorm_wordpool_576.txt	LTP349	ltpFR2	9	10	DANDRUFF	439	n/a	n/a	0	0	0
2009635	WORD	wordpools/wasnorm_wordpool_576.txt	LTP349	ltpFR2	9	10	DONKEY	484	n/a	n/a	0	0	0
2012284	WORD	wordpools/wasnorm_wordpool_576.txt	LTP349	ltpFR2	9	10	BEAST	108	n/a	n/a	0	0	0
2014966	WORD	wordpools/wasnorm_wordpool_576.txt	LTP349	ltpFR2	9	10	KLEENEX	782	n/a	n/a	0	0	0
2017432	WORD	wordpools/wasnorm_wordpool_576.txt	LTP349	ltpFR2	9	10	MAILMAN	858	n/a	n/a	0	0	0
2019947	WORD	wordpools/wasnorm_wordpool_576.txt	LTP349	ltpFR2	9	10	JUDGE	761	n/a	n/a	0	0	0
2022612	WORD	wordpools/wasnorm_wordpool_576.txt	LTP349	ltpFR2	9	10	AWARD	63	n/a	n/a	0	0	0
2024228	START	n/a	LTP349	ltpFR2	9	n/a	n/a	n/a	14	n/a	n/a	n/a	n/a
2025140	DISTRACTOR	n/a	LTP349	ltpFR2	9	10	n/a	n/a	n/a	n/a	0	0	0
2025144	PROB	n/a	LTP349	ltpFR2	9	n/a	n/a	n/a	14	17	9	5	3
2028193	PROB	n/a	LTP349	ltpFR2	9	n/a	n/a	n/a	14	8	2	2	4
2030091	PROB	n/a	LTP349	ltpFR2	9	n/a	n/a	n/a	14	13	3	1	9
2032341	PROB	n/a	LTP349	ltpFR2	9	n/a	n/a	n/a	14	9	7	1	1
2033840	PROB	n/a	LTP349	ltpFR2	9	n/a	n/a	n/a	14	20	9	3	8
2038038	PROB	n/a	LTP349	ltpFR2	9	n/a	n/a	n/a	14	15	7	7	1
2039970	PROB	n/a	LTP349	ltpFR2	9	n/a	n/a	n/a	14	10	1	8	1
2041753	PROB	n/a	LTP349	ltpFR2	9	n/a	n/a	n/a	14	22	4	9	9
2044701	PROB	n/a	LTP349	ltpFR2	9	n/a	n/a	n/a	14	12	1	7	4
2047287	STOP	n/a	LTP349	ltpFR2	9	n/a	n/a	n/a	14	n/a	n/a	n/a	n/a
2050149	REC_START	n/a	LTP349	ltpFR2	9	10	n/a	n/a	n/a	n/a	0	0	0
2053806	REC_WORD	wordpools/wasnorm_wordpool_576.txt	LTP349	ltpFR2	9	10	BEAST	108	n/a	n/a	0	0	0
2055202	REC_WORD	wordpools/wasnorm_wordpool_576.txt	LTP349	ltpFR2	9	10	DONKEY	484	n/a	n/a	0	0	0
2056439	REC_WORD	wordpools/wasnorm_wordpool_576.txt	LTP349	ltpFR2	9	10	DANDRUFF	439	n/a	n/a	0	0	0
2057850	REC_WORD	wordpools/wasnorm_wordpool_576.txt	LTP349	ltpFR2	9	10	HERO	706	n/a	n/a	0	0	0
2059232	REC_WORD	wordpools/wasnorm_wordpool_576.txt	LTP349	ltpFR2	9	10	JUDGE	761	n/a	n/a	0	0	0
2063919	REC_WORD	wordpools/wasnorm_wordpool_576.txt	LTP349	ltpFR2	9	10	MARKET	871	n/a	n/a	0	0	0
2070966	REC_WORD	wordpools/wasnorm_wordpool_576.txt	LTP349	ltpFR2	9	10	AWARD	63	n/a	n/a	0	0	0
2080621	REC_WORD	wordpools/wasnorm_wordpool_576.txt	LTP349	ltpFR2	9	10	COCKTAIL	338	n/a	n/a	0	0	0
2083044	REC_WORD	wordpools/wasnorm_wordpool_576.txt	LTP349	ltpFR2	9	10	KLEENEX	782	n/a	n/a	0	0	0
2140587	DISTRACTOR	n/a	LTP349	ltpFR2	9	11	n/a	n/a	n/a	n/a	0	0	0
2140587	START	n/a	LTP349	ltpFR2	9	n/a	n/a	n/a	15	n/a	n/a	n/a	n/a
2140604	PROB	n/a	LTP349	ltpFR2	9	n/a	n/a	n/a	15	9	6	2	1
2142403	PROB	n/a	LTP349	ltpFR2	9	n/a	n/a	n/a	15	18	5	6	7
2144735	PROB	n/a	LTP349	ltpFR2	9	n/a	n/a	n/a	15	11	8	2	1
2146634	PROB	n/a	LTP349	ltpFR2	9	n/a	n/a	n/a	15	18	8	5	5
2147867	PROB	n/a	LTP349	ltpFR2	9	n/a	n/a	n/a	15	13	8	1	4
2149916	PROB	n/a	LTP349	ltpFR2	9	n/a	n/a	n/a	15	16	6	4	6
2152198	PROB	n/a	LTP349	ltpFR2	9	n/a	n/a	n/a	15	15	9	5	1
2154014	PROB	n/a	LTP349	ltpFR2	9	n/a	n/a	n/a	15	10	1	4	5
2156029	PROB	n/a	LTP349	ltpFR2	9	n/a	n/a	n/a	15	9	7	1	1
2157462	PROB	n/a	LTP349	ltpFR2	9	n/a	n/a	n/a	15	15	5	1	9
2159461	PROB	n/a	LTP349	ltpFR2	9	n/a	n/a	n/a	15	11	2	6	3
2161677	PROB	n/a	LTP349	ltpFR2	9	n/a	n/a	n/a	15	21	7	7	7
2163479	STOP	n/a	LTP349	ltpFR2	9	n/a	n/a	n/a	15	n/a	n/a	n/a	n/a
2165675	WORD	wordpools/wasnorm_wordpool_576.txt	LTP349	ltpFR2	9	11	BUREAU	199	n/a	n/a	0	0	0
2168323	WORD	wordpools/wasnorm_wordpool_576.txt	LTP349	ltpFR2	9	11	OUTFIT	988	n/a	n/a	0	0	0
2170789	WORD	wordpools/wasnorm_wordpool_576.txt	LTP349	ltpFR2	9	11	SCALLOP	1242	n/a	n/a	0	0	0
2173354	WORD	wordpools/wasnorm_wordpool_576.txt	LTP349	ltpFR2	9	11	BACON	67	n/a	n/a	0	0	0
2175836	WORD	wordpools/wasnorm_wordpool_576.txt	LTP349	ltpFR2	9	11	MILK	895	n/a	n/a	0	0	0
2178635	WORD	wordpools/wasnorm_wordpool_576.txt	LTP349	ltpFR2	9	11	CUPBOARD	425	n/a	n/a	0	0	0
2181167	WORD	wordpools/wasnorm_wordpool_576.txt	LTP349	ltpFR2	9	11	BRACES	164	n/a	n/a	0	0	0
2183932	WORD	wordpools/wasnorm_wordpool_576.txt	LTP349	ltpFR2	9	11	BUCKET	184	n/a	n/a	0	0	0
2186581	WORD	wordpools/wasnorm_wordpool_576.txt	LTP349	ltpFR2	9	11	GLOBE	641	n/a	n/a	0	0	0
2189046	WORD	wordpools/wasnorm_wordpool_576.txt	LTP349	ltpFR2	9	11	CROWN	415	n/a	n/a	0	0	0
2191678	WORD	wordpools/wasnorm_wordpool_576.txt	LTP349	ltpFR2	9	11	MUMMY	932	n/a	n/a	0	0	0
2194127	WORD	wordpools/wasnorm_wordpool_576.txt	LTP349	ltpFR2	9	11	JUNGLE	764	n/a	n/a	0	0	0
2196593	WORD	wordpools/wasnorm_wordpool_576.txt	LTP349	ltpFR2	9	11	SPARROW	1347	n/a	n/a	0	0	0
2199408	WORD	wordpools/wasnorm_wordpool_576.txt	LTP349	ltpFR2	9	11	PIGMENT	1066	n/a	n/a	0	0	0
2201940	WORD	wordpools/wasnorm_wordpool_576.txt	LTP349	ltpFR2	9	11	MATCH	878	n/a	n/a	0	0	0
2204705	WORD	wordpools/wasnorm_wordpool_576.txt	LTP349	ltpFR2	9	11	CATTLE	261	n/a	n/a	0	0	0
2207254	WORD	wordpools/wasnorm_wordpool_576.txt	LTP349	ltpFR2	9	11	PERCH	1048	n/a	n/a	0	0	0
2209753	WORD	wordpools/wasnorm_wordpool_576.txt	LTP349	ltpFR2	9	11	GHETTO	633	n/a	n/a	0	0	0
2212401	WORD	wordpools/wasnorm_wordpool_576.txt	LTP349	ltpFR2	9	11	RELISH	1183	n/a	n/a	0	0	0
2214850	WORD	wordpools/wasnorm_wordpool_576.txt	LTP349	ltpFR2	9	11	MUSTARD	935	n/a	n/a	0	0	0
2217649	WORD	wordpools/wasnorm_wordpool_576.txt	LTP349	ltpFR2	9	11	NEUTRON	947	n/a	n/a	0	0	0
2220148	WORD	wordpools/wasnorm_wordpool_576.txt	LTP349	ltpFR2	9	11	STUDENT	1395	n/a	n/a	0	0	0
2222580	WORD	wordpools/wasnorm_wordpool_576.txt	LTP349	ltpFR2	9	11	PISTON	1076	n/a	n/a	0	0	0
2225145	WORD	wordpools/wasnorm_wordpool_576.txt	LTP349	ltpFR2	9	11	KNAPSACK	783	n/a	n/a	0	0	0
2226761	START	n/a	LTP349	ltpFR2	9	n/a	n/a	n/a	16	n/a	n/a	n/a	n/a
2227570	DISTRACTOR	n/a	LTP349	ltpFR2	9	11	n/a	n/a	n/a	n/a	0	0	0
2227577	PROB	n/a	LTP349	ltpFR2	9	n/a	n/a	n/a	16	15	3	7	5
2229543	PROB	n/a	LTP349	ltpFR2	9	n/a	n/a	n/a	16	18	7	3	8
2231742	PROB	n/a	LTP349	ltpFR2	9	n/a	n/a	n/a	16	25	8	8	9
2233974	PROB	n/a	LTP349	ltpFR2	9	n/a	n/a	n/a	16	8	2	5	1
2236556	PROB	n/a	LTP349	ltpFR2	9	n/a	n/a	n/a	16	16	1	8	7
2238255	PROB	n/a	LTP349	ltpFR2	9	n/a	n/a	n/a	16	1	7	9	8
2240487	PROB	n/a	LTP349	ltpFR2	9	n/a	n/a	n/a	16	21	9	9	3
2242270	PROB	n/a	LTP349	ltpFR2	9	n/a	n/a	n/a	16	22	9	6	7
2244869	PROB	n/a	LTP349	ltpFR2	9	n/a	n/a	n/a	16	11	2	8	1
2246701	PROB	n/a	LTP349	ltpFR2	9	n/a	n/a	n/a	16	18	5	9	4
2250761	STOP	n/a	LTP349	ltpFR2	9	n/a	n/a	n/a	16	n/a	n/a	n/a	n/a
2252565	REC_START	n/a	LTP349	ltpFR2	9	11	n/a	n/a	n/a	n/a	0	0	0
2254480	REC_WORD	wordpools/wasnorm_wordpool_576.txt	LTP349	ltpFR2	9	11	MUMMY	932	n/a	n/a	0	0	0
2257310	REC_WORD	wordpools/wasnorm_wordpool_576.txt	LTP349	ltpFR2	9	11	GLOBE	641	n/a	n/a	0	0	0
2259372	REC_WORD	wordpools/wasnorm_wordpool_576.txt	LTP349	ltpFR2	9	11	BUCKET	184	n/a	n/a	0	0	0
2265404	REC_WORD	wordpools/wasnorm_wordpool_576.txt	LTP349	ltpFR2	9	11	MUSTARD	935	n/a	n/a	0	0	0
2271474	REC_WORD	wordpools/wasnorm_wordpool_576.txt	LTP349	ltpFR2	9	11	GHETTO	633	n/a	n/a	0	0	0
2274590	REC_WORD	wordpools/wasnorm_wordpool_576.txt	LTP349	ltpFR2	9	11	JUNGLE	764	n/a	n/a	0	0	0
2276039	REC_WORD	wordpools/wasnorm_wordpool_576.txt	LTP349	ltpFR2	9	11	CATTLE	261	n/a	n/a	0	0	0
2281751	REC_WORD	wordpools/wasnorm_wordpool_576.txt	LTP349	ltpFR2	9	11	PERCH	1048	n/a	n/a	0	0	0
2314579	REC_WORD	wordpools/wasnorm_wordpool_576.txt	LTP349	ltpFR2	9	11	SCALLOP	1242	n/a	n/a	0	0	0
2343036	WORD	wordpools/wasnorm_wordpool_576.txt	LTP349	ltpFR2	9	12	ULCER	1533	n/a	n/a	0	0	0
2345469	WORD	wordpools/wasnorm_wordpool_576.txt	LTP349	ltpFR2	9	12	NOVEL	960	n/a	n/a	0	0	0
2348284	WORD	wordpools/wasnorm_wordpool_576.txt	LTP349	ltpFR2	9	12	FRUIT	610	n/a	n/a	0	0	0
2350749	WORD	wordpools/wasnorm_wordpool_576.txt	LTP349	ltpFR2	9	12	POLICE	1098	n/a	n/a	0	0	0
2353548	WORD	wordpools/wasnorm_wordpool_576.txt	LTP349	ltpFR2	9	12	PATROL	1027	n/a	n/a	0	0	0
2356213	WORD	wordpools/wasnorm_wordpool_576.txt	LTP349	ltpFR2	9	12	CURTAIN	427	n/a	n/a	0	0	0
2359045	WORD	wordpools/wasnorm_wordpool_576.txt	LTP349	ltpFR2	9	12	KNIFE	785	n/a	n/a	0	0	0
2361810	WORD	wordpools/wasnorm_wordpool_576.txt	LTP349	ltpFR2	9	12	STAMP	1370	n/a	n/a	0	0	0
2364426	WORD	wordpools/wasnorm_wordpool_576.txt	LTP349	ltpFR2	9	12	OFFICE	972	n/a	n/a	0	0	0
2366875	WORD	wordpools/wasnorm_wordpool_576.txt	LTP349	ltpFR2	9	12	MOP	916	n/a	n/a	0	0	0
2369340	WORD	wordpools/wasnorm_wordpool_576.txt	LTP349	ltpFR2	9	12	ATLAS	53	n/a	n/a	0	0	0
2371905	WORD	wordpools/wasnorm_wordpool_576.txt	LTP349	ltpFR2	9	12	DAUGHTER	442	n/a	n/a	0	0	0
2374571	WORD	wordpools/wasnorm_wordpool_576.txt	LTP349	ltpFR2	9	12	PARENT	1013	n/a	n/a	0	0	0
2377170	WORD	wordpools/wasnorm_wordpool_576.txt	LTP349	ltpFR2	9	12	BALLOON	75	n/a	n/a	0	0	0
2379668	WORD	wordpools/wasnorm_wordpool_576.txt	LTP349	ltpFR2	9	12	VIKING	1565	n/a	n/a	0	0	0
2382484	WORD	wordpools/wasnorm_wordpool_576.txt	LTP349	ltpFR2	9	12	SISTER	1312	n/a	n/a	0	0	0
2384916	WORD	wordpools/wasnorm_wordpool_576.txt	LTP349	ltpFR2	9	12	WORLD	1622	n/a	n/a	0	0	0
2387714	WORD	wordpools/wasnorm_wordpool_576.txt	LTP349	ltpFR2	9	12	SODA	1341	n/a	n/a	0	0	0
2390180	WORD	wordpools/wasnorm_wordpool_576.txt	LTP349	ltpFR2	9	12	BADGE	68	n/a	n/a	0	0	0
2392845	WORD	wordpools/wasnorm_wordpool_576.txt	LTP349	ltpFR2	9	12	FOREHEAD	592	n/a	n/a	0	0	0
2395610	WORD	wordpools/wasnorm_wordpool_576.txt	LTP349	ltpFR2	9	12	IGLOO	734	n/a	n/a	0	0	0
2398326	WORD	wordpools/wasnorm_wordpool_576.txt	LTP349	ltpFR2	9	12	COMPASS	358	n/a	n/a	0	0	0
2400758	WORD	wordpools/wasnorm_wordpool_576.txt	LTP349	ltpFR2	9	12	BOYFRIEND	162	n/a	n/a	0	0	0
2403457	WORD	wordpools/wasnorm_wordpool_576.txt	LTP349	ltpFR2	9	12	WINDOW	1611	n/a	n/a	0	0	0
2405073	START	n/a	LTP349	ltpFR2	9	n/a	n/a	n/a	17	n/a	n/a	n/a	n/a
2406013	DISTRACTOR	n/a	LTP349	ltpFR2	9	12	n/a	n/a	n/a	n/a	0	0	0
2406022	PROB	n/a	LTP349	ltpFR2	9	n/a	n/a	n/a	17	8	4	2	2
2408754	PROB	n/a	LTP349	ltpFR2	9	n/a	n/a	n/a	17	16	6	4	6
2411153	PROB	n/a	LTP349	ltpFR2	9	n/a	n/a	n/a	17	13	1	5	7
2413218	PROB	n/a	LTP349	ltpFR2	9	n/a	n/a	n/a	17	8	4	1	3
2415800	PROB	n/a	LTP349	ltpFR2	9	n/a	n/a	n/a	17	11	7	2	2
2418216	PROB	n/a	LTP349	ltpFR2	9	n/a	n/a	n/a	17	20	7	5	8
2421614	PROB	n/a	LTP349	ltpFR2	9	n/a	n/a	n/a	17	20	7	4	9
2425795	PROB	n/a	LTP349	ltpFR2	9	n/a	n/a	n/a	17	13	1	7	5
2427759	STOP	n/a	LTP349	ltpFR2	9	n/a	n/a	n/a	17	n/a	n/a	n/a	n/a
2430977	REC_START	n/a	LTP349	ltpFR2	9	12	n/a	n/a	n/a	n/a	0	0	0
2433115	REC_WORD	wordpools/wasnorm_wordpool_576.txt	LTP349	ltpFR2	9	12	PARENT	1013	n/a	n/a	0	0	0
2435049	REC_WORD	wordpools/wasnorm_wordpool_576.txt	LTP349	ltpFR2	9	12	POLICE	1098	n/a	n/a	0	0	0
2436263	REC_WORD	wordpools/wasnorm_wordpool_576.txt	LTP349	ltpFR2	9	12	STAMP	1370	n/a	n/a	0	0	0
2437585	REC_WORD	wordpools/wasnorm_wordpool_576.txt	LTP349	ltpFR2	9	12	STAMP	1370	n/a	n/a	0	0	0
2438792	REC_WORD	wordpools/wasnorm_wordpool_576.txt	LTP349	ltpFR2	9	12	OFFICE	972	n/a	n/a	0	0	0
2439927	REC_WORD	wordpools/wasnorm_wordpool_576.txt	LTP349	ltpFR2	9	12	CURTAIN	427	n/a	n/a	0	0	0
2441526	REC_WORD	wordpools/wasnorm_wordpool_576.txt	LTP349	ltpFR2	9	12	KNIFE	785	n/a	n/a	0	0	0
2443950	REC_WORD	wordpools/wasnorm_wordpool_576.txt	LTP349	ltpFR2	9	12	ULCER	1533	n/a	n/a	0	0	0
2445167	REC_WORD	wordpools/wasnorm_wordpool_576.txt	LTP349	ltpFR2	9	12	FRUIT	610	n/a	n/a	0	0	0
2521431	WORD	wordpools/wasnorm_wordpool_576.txt	LTP349	ltpFR2	9	13	ISLAND	745	n/a	n/a	0	0	0
2524096	WORD	wordpools/wasnorm_wordpool_576.txt	LTP349	ltpFR2	9	13	MASK	876	n/a	n/a	0	0	0
2526862	WORD	wordpools/wasnorm_wordpool_576.txt	LTP349	ltpFR2	9	13	MESSAGE	888	n/a	n/a	0	0	0
2529494	WORD	wordpools/wasnorm_wordpool_576.txt	LTP349	ltpFR2	9	13	HORNET	718	n/a	n/a	0	0	0
2532209	WORD	wordpools/wasnorm_wordpool_576.txt	LTP349	ltpFR2	9	13	MAILBOX	857	n/a	n/a	0	0	0
2534791	WORD	wordpools/wasnorm_wordpool_576.txt	LTP349	ltpFR2	9	13	LABEL	790	n/a	n/a	0	0	0
2537223	WORD	wordpools/wasnorm_wordpool_576.txt	LTP349	ltpFR2	9	13	SPOUSE	1358	n/a	n/a	0	0	0
2539856	WORD	wordpools/wasnorm_wordpool_576.txt	LTP349	ltpFR2	9	13	SERVANT	1271	n/a	n/a	0	0	0
2542471	WORD	wordpools/wasnorm_wordpool_576.txt	LTP349	ltpFR2	9	13	WAITRESS	1581	n/a	n/a	0	0	0
2545186	WORD	wordpools/wasnorm_wordpool_576.txt	LTP349	ltpFR2	9	13	HONEY	713	n/a	n/a	0	0	0
2547901	WORD	wordpools/wasnorm_wordpool_576.txt	LTP349	ltpFR2	9	13	BROOK	177	n/a	n/a	0	0	0
2550434	WORD	wordpools/wasnorm_wordpool_576.txt	LTP349	ltpFR2	9	13	SEAGULL	1261	n/a	n/a	0	0	0
2553132	WORD	wordpools/wasnorm_wordpool_576.txt	LTP349	ltpFR2	9	13	ROBIN	1199	n/a	n/a	0	0	0
2555764	WORD	wordpools/wasnorm_wordpool_576.txt	LTP349	ltpFR2	9	13	BANJO	82	n/a	n/a	0	0	0
2558280	WORD	wordpools/wasnorm_wordpool_576.txt	LTP349	ltpFR2	9	13	PASTA	1021	n/a	n/a	0	0	0
2561045	WORD	wordpools/wasnorm_wordpool_576.txt	LTP349	ltpFR2	9	13	SIDEWALK	1303	n/a	n/a	0	0	0
2563527	WORD	wordpools/wasnorm_wordpool_576.txt	LTP349	ltpFR2	9	13	EUROPE	541	n/a	n/a	0	0	0
2566326	WORD	wordpools/wasnorm_wordpool_576.txt	LTP349	ltpFR2	9	13	RIFLE	1192	n/a	n/a	0	0	0
2569074	WORD	wordpools/wasnorm_wordpool_576.txt	LTP349	ltpFR2	9	13	WIDOW	1608	n/a	n/a	0	0	0
2571740	WORD	wordpools/wasnorm_wordpool_576.txt	LTP349	ltpFR2	9	13	LIZARD	834	n/a	n/a	0	0	0
2574188	WORD	wordpools/wasnorm_wordpool_576.txt	LTP349	ltpFR2	9	13	OZONE	996	n/a	n/a	0	0	0
2576737	WORD	wordpools/wasnorm_wordpool_576.txt	LTP349	ltpFR2	9	13	WARDROBE	1587	n/a	n/a	0	0	0
2579253	WORD	wordpools/wasnorm_wordpool_576.txt	LTP349	ltpFR2	9	13	PLIERS	1089	n/a	n/a	0	0	0
2581768	WORD	wordpools/wasnorm_wordpool_576.txt	LTP349	ltpFR2	9	13	UMPIRE	1535	n/a	n/a	0	0	0
2583384	START	n/a	LTP349	ltpFR2	9	n/a	n/a	n/a	18	n/a	n/a	n/a	n/a
2584491	DISTRACTOR	n/a	LTP349	ltpFR2	9	13	n/a	n/a	n/a	n/a	0	0	0
2584500	PROB	n/a	LTP349	ltpFR2	9	n/a	n/a	n/a	18	19	9	1	9
2587132	PROB	n/a	LTP349	ltpFR2	9	n/a	n/a	n/a	18	14	7	1	6
2589597	PROB	n/a	LTP349	ltpFR2	9	n/a	n/a	n/a	18	16	6	4	6
2591380	PROB	n/a	LTP349	ltpFR2	9	n/a	n/a	n/a	18	25	9	7	9
2595511	PROB	n/a	LTP349	ltpFR2	9	n/a	n/a	n/a	18	11	8	2	1
2597027	PROB	n/a	LTP349	ltpFR2	9	n/a	n/a	n/a	18	17	5	9	1
2607384	STOP	n/a	LTP349	ltpFR2	9	n/a	n/a	n/a	18	n/a	n/a	n/a	n/a
2609222	REC_START	n/a	LTP349	ltpFR2	9	13	n/a	n/a	n/a	n/a	0	0	0
2612956	REC_WORD	wordpools/wasnorm_wordpool_576.txt	LTP349	ltpFR2	9	13	WINDOW	1611	n/a	n/a	0	0	0
2699659	DISTRACTOR	n/a	LTP349	ltpFR2	9	14	n/a	n/a	n/a	n/a	0	0	0
2699660	START	n/a	LTP349	ltpFR2	9	n/a	n/a	n/a	19	n/a	n/a	n/a	n/a
2699676	PROB	n/a	LTP349	ltpFR2	9	n/a	n/a	n/a	19	22	6	9	7
2702775	PROB	n/a	LTP349	ltpFR2	9	n/a	n/a	n/a	19	22	8	6	8
2704840	PROB	n/a	LTP349	ltpFR2	9	n/a	n/a	n/a	19	21	7	8	6
2708655	PROB	n/a	LTP349	ltpFR2	9	n/a	n/a	n/a	19	17	5	6	6
2711220	PROB	n/a	LTP349	ltpFR2	9	n/a	n/a	n/a	19	17	7	2	8
2713503	PROB	n/a	LTP349	ltpFR2	9	n/a	n/a	n/a	19	14	8	4	2
2716068	PROB	n/a	LTP349	ltpFR2	9	n/a	n/a	n/a	19	17	6	3	8
2719450	PROB	n/a	LTP349	ltpFR2	9	n/a	n/a	n/a	19	18	8	9	2
2722559	STOP	n/a	LTP349	ltpFR2	9	n/a	n/a	n/a	19	n/a	n/a	n/a	n/a
2724664	WORD	wordpools/wasnorm_wordpool_576.txt	LTP349	ltpFR2	9	14	PUDDING	1139	n/a	n/a	0	0	0
2727296	WORD	wordpools/wasnorm_wordpool_576.txt	LTP349	ltpFR2	9	14	BEAKER	104	n/a	n/a	0	0	0
2730093	WORD	wordpools/wasnorm_wordpool_576.txt	LTP349	ltpFR2	9	14	DUST	508	n/a	n/a	0	0	0
2732676	WORD	wordpools/wasnorm_wordpool_576.txt	LTP349	ltpFR2	9	14	TRENCH	1503	n/a	n/a	0	0	0
2735225	WORD	wordpools/wasnorm_wordpool_576.txt	LTP349	ltpFR2	9	14	PLAYGROUND	1087	n/a	n/a	0	0	0
2737757	WORD	wordpools/wasnorm_wordpool_576.txt	LTP349	ltpFR2	9	14	JELLY	755	n/a	n/a	0	0	0
2740289	WORD	wordpools/wasnorm_wordpool_576.txt	LTP349	ltpFR2	9	14	SURVEY	1414	n/a	n/a	0	0	0
2743005	WORD	wordpools/wasnorm_wordpool_576.txt	LTP349	ltpFR2	9	14	ROBOT	1200	n/a	n/a	0	0	0
2745503	WORD	wordpools/wasnorm_wordpool_576.txt	LTP349	ltpFR2	9	14	TRIBE	1505	n/a	n/a	0	0	0
2748119	WORD	wordpools/wasnorm_wordpool_576.txt	LTP349	ltpFR2	9	14	DRUG	501	n/a	n/a	0	0	0
2750734	WORD	wordpools/wasnorm_wordpool_576.txt	LTP349	ltpFR2	9	14	SLOPE	1328	n/a	n/a	0	0	0
2753349	WORD	wordpools/wasnorm_wordpool_576.txt	LTP349	ltpFR2	9	14	TABLET	1427	n/a	n/a	0	0	0
2755982	WORD	wordpools/wasnorm_wordpool_576.txt	LTP349	ltpFR2	9	14	CREVICE	405	n/a	n/a	0	0	0
2758530	WORD	wordpools/wasnorm_wordpool_576.txt	LTP349	ltpFR2	9	14	PAIL	1002	n/a	n/a	0	0	0
2761146	WORD	wordpools/wasnorm_wordpool_576.txt	LTP349	ltpFR2	9	14	SWAMP	1416	n/a	n/a	0	0	0
2763894	WORD	wordpools/wasnorm_wordpool_576.txt	LTP349	ltpFR2	9	14	GARBAGE	622	n/a	n/a	0	0	0
2766693	WORD	wordpools/wasnorm_wordpool_576.txt	LTP349	ltpFR2	9	14	LADDER	793	n/a	n/a	0	0	0
2769225	WORD	wordpools/wasnorm_wordpool_576.txt	LTP349	ltpFR2	9	14	LEADER	807	n/a	n/a	0	0	0
2771907	WORD	wordpools/wasnorm_wordpool_576.txt	LTP349	ltpFR2	9	14	DAISY	435	n/a	n/a	0	0	0
2774456	WORD	wordpools/wasnorm_wordpool_576.txt	LTP349	ltpFR2	9	14	TURNIP	1521	n/a	n/a	0	0	0
2777154	WORD	wordpools/wasnorm_wordpool_576.txt	LTP349	ltpFR2	9	14	YACHT	1629	n/a	n/a	0	0	0
2779786	WORD	wordpools/wasnorm_wordpool_576.txt	LTP349	ltpFR2	9	14	DUSTPAN	509	n/a	n/a	0	0	0
2782485	WORD	wordpools/wasnorm_wordpool_576.txt	LTP349	ltpFR2	9	14	INFANT	737	n/a	n/a	0	0	0
2785200	WORD	wordpools/wasnorm_wordpool_576.txt	LTP349	ltpFR2	9	14	CHEMIST	292	n/a	n/a	0	0	0
2786816	START	n/a	LTP349	ltpFR2	9	n/a	n/a	n/a	20	n/a	n/a	n/a	n/a
2787988	DISTRACTOR	n/a	LTP349	ltpFR2	9	14	n/a	n/a	n/a	n/a	0	0	0
2787999	PROB	n/a	LTP349	ltpFR2	9	n/a	n/a	n/a	20	11	5	2	4
2790448	PROB	n/a	LTP349	ltpFR2	9	n/a	n/a	n/a	20	14	7	3	4
2793496	PROB	n/a	LTP349	ltpFR2	9	n/a	n/a	n/a	20	7	1	1	5
2795379	PROB	n/a	LTP349	ltpFR2	9	n/a	n/a	n/a	20	20	6	5	9
2799127	PROB	n/a	LTP349	ltpFR2	9	n/a	n/a	n/a	20	20	9	5	6
2804541	PROB	n/a	LTP349	ltpFR2	9	n/a	n/a	n/a	20	10	6	3	1
2810816	STOP	n/a	LTP349	ltpFR2	9	n/a	n/a	n/a	20	n/a	n/a	n/a	n/a
2812604	REC_START	n/a	LTP349	ltpFR2	9	14	n/a	n/a	n/a	n/a	0	0	0
2815714	REC_WORD	wordpools/wasnorm_wordpool_576.txt	LTP349	ltpFR2	9	14	TRIBE	1505	n/a	n/a	0	0	0
2817112	REC_WORD	wordpools/wasnorm_wordpool_576.txt	LTP349	ltpFR2	9	14	TABLET	1427	n/a	n/a	0	0	0
2818391	REC_WORD	wordpools/wasnorm_wordpool_576.txt	LTP349	ltpFR2	9	14	ROBOT	1200	n/a	n/a	0	0	0
2821535	REC_WORD	wordpools/wasnorm_wordpool_576.txt	LTP349	ltpFR2	9	14	CLIMB	-1	n/a	n/a	0	0	0
2903059	WORD	wordpools/wasnorm_wordpool_576.txt	LTP349	ltpFR2	9	15	BACKBONE	66	n/a	n/a	0	0	0
2905641	WORD	wordpools/wasnorm_wordpool_576.txt	LTP349	ltpFR2	9	15	HELMET	702	n/a	n/a	0	0	0
2908123	WORD	wordpools/wasnorm_wordpool_576.txt	LTP349	ltpFR2	9	15	GUARD	667	n/a	n/a	0	0	0
2910938	WORD	wordpools/wasnorm_wordpool_576.txt	LTP349	ltpFR2	9	15	SOFTBALL	1343	n/a	n/a	0	0	0
2913736	WORD	wordpools/wasnorm_wordpool_576.txt	LTP349	ltpFR2	9	15	HEART	697	n/a	n/a	0	0	0
2916535	WORD	wordpools/wasnorm_wordpool_576.txt	LTP349	ltpFR2	9	15	ITEM	746	n/a	n/a	0	0	0
2919267	WORD	wordpools/wasnorm_wordpool_576.txt	LTP349	ltpFR2	9	15	PERFUME	1049	n/a	n/a	0	0	0
2921783	WORD	wordpools/wasnorm_wordpool_576.txt	LTP349	ltpFR2	9	15	OINTMENT	974	n/a	n/a	0	0	0
2924215	WORD	wordpools/wasnorm_wordpool_576.txt	LTP349	ltpFR2	9	15	HOOK	715	n/a	n/a	0	0	0
2926963	WORD	wordpools/wasnorm_wordpool_576.txt	LTP349	ltpFR2	9	15	LONDON	843	n/a	n/a	0	0	0
2929745	WORD	wordpools/wasnorm_wordpool_576.txt	LTP349	ltpFR2	9	15	QUEEN	1149	n/a	n/a	0	0	0
2932511	WORD	wordpools/wasnorm_wordpool_576.txt	LTP349	ltpFR2	9	15	CASKET	255	n/a	n/a	0	0	0
2935309	WORD	wordpools/wasnorm_wordpool_576.txt	LTP349	ltpFR2	9	15	POISON	1096	n/a	n/a	0	0	0
2938058	WORD	wordpools/wasnorm_wordpool_576.txt	LTP349	ltpFR2	9	15	CHEST	295	n/a	n/a	0	0	0
2940756	WORD	wordpools/wasnorm_wordpool_576.txt	LTP349	ltpFR2	9	15	GREASE	660	n/a	n/a	0	0	0
2943222	WORD	wordpools/wasnorm_wordpool_576.txt	LTP349	ltpFR2	9	15	CAFE	216	n/a	n/a	0	0	0
2945671	WORD	wordpools/wasnorm_wordpool_576.txt	LTP349	ltpFR2	9	15	BANQUET	86	n/a	n/a	0	0	0
2948486	WORD	wordpools/wasnorm_wordpool_576.txt	LTP349	ltpFR2	9	15	WHISKERS	1605	n/a	n/a	0	0	0
2950951	WORD	wordpools/wasnorm_wordpool_576.txt	LTP349	ltpFR2	9	15	CONCERT	360	n/a	n/a	0	0	0
2953667	WORD	wordpools/wasnorm_wordpool_576.txt	LTP349	ltpFR2	9	15	VALVE	1546	n/a	n/a	0	0	0
2956415	WORD	wordpools/wasnorm_wordpool_576.txt	LTP349	ltpFR2	9	15	LAKE	796	n/a	n/a	0	0	0
2958897	WORD	wordpools/wasnorm_wordpool_576.txt	LTP349	ltpFR2	9	15	PEDAL	1037	n/a	n/a	0	0	0
2961463	WORD	wordpools/wasnorm_wordpool_576.txt	LTP349	ltpFR2	9	15	EAGLE	512	n/a	n/a	0	0	0
2964045	WORD	wordpools/wasnorm_wordpool_576.txt	LTP349	ltpFR2	9	15	BIKE	125	n/a	n/a	0	0	0
2965661	START	n/a	LTP349	ltpFR2	9	n/a	n/a	n/a	21	n/a	n/a	n/a	n/a
2966643	DISTRACTOR	n/a	LTP349	ltpFR2	9	15	n/a	n/a	n/a	n/a	0	0	0
2966660	PROB	n/a	LTP349	ltpFR2	9	n/a	n/a	n/a	21	22	9	4	9
2969126	PROB	n/a	LTP349	ltpFR2	9	n/a	n/a	n/a	21	1	5	4	4
2971658	PROB	n/a	LTP349	ltpFR2	9	n/a	n/a	n/a	21	18	9	5	4
2974007	PROB	n/a	LTP349	ltpFR2	9	n/a	n/a	n/a	21	23	7	7	9
2976988	PROB	n/a	LTP349	ltpFR2	9	n/a	n/a	n/a	21	12	4	7	1
2979404	PROB	n/a	LTP349	ltpFR2	9	n/a	n/a	n/a	21	13	5	4	4
2982686	PROB	n/a	LTP349	ltpFR2	9	n/a	n/a	n/a	21	14	6	1	7
2989661	STOP	n/a	LTP349	ltpFR2	9	n/a	n/a	n/a	21	n/a	n/a	n/a	n/a
2991515	REC_START	n/a	LTP349	ltpFR2	9	15	n/a	n/a	n/a	n/a	0	0	0
3066533	REC_WORD_VV	wordpools/wasnorm_wordpool_576.txt	LTP349	ltpFR2	9	15	<>	-1	n/a	n/a	0	0	0
3081970	WORD	wordpools/wasnorm_wordpool_576.txt	LTP349	ltpFR2	9	16	GRIZZLY	662	n/a	n/a	0	0	0
3084635	WORD	wordpools/wasnorm_wordpool_576.txt	LTP349	ltpFR2	9	16	SCRIBBLE	1256	n/a	n/a	0	0	0
3087134	WORD	wordpools/wasnorm_wordpool_576.txt	LTP349	ltpFR2	9	16	RAFT	1159	n/a	n/a	0	0	0
3089666	WORD	wordpools/wasnorm_wordpool_576.txt	LTP349	ltpFR2	9	16	VENUS	1557	n/a	n/a	0	0	0
3092281	WORD	wordpools/wasnorm_wordpool_576.txt	LTP349	ltpFR2	9	16	COMET	353	n/a	n/a	0	0	0
3094913	WORD	wordpools/wasnorm_wordpool_576.txt	LTP349	ltpFR2	9	16	GROUND	666	n/a	n/a	0	0	0
3097729	WORD	wordpools/wasnorm_wordpool_576.txt	LTP349	ltpFR2	9	16	SWORD	1423	n/a	n/a	0	0	0
3100494	WORD	wordpools/wasnorm_wordpool_576.txt	LTP349	ltpFR2	9	16	RAZOR	1171	n/a	n/a	0	0	0
3103226	WORD	wordpools/wasnorm_wordpool_576.txt	LTP349	ltpFR2	9	16	DRESS	495	n/a	n/a	0	0	0
3106008	WORD	wordpools/wasnorm_wordpool_576.txt	LTP349	ltpFR2	9	16	PADDLE	1000	n/a	n/a	0	0	0
3108773	WORD	wordpools/wasnorm_wordpool_576.txt	LTP349	ltpFR2	9	16	CROSS	413	n/a	n/a	0	0	0
3111588	WORD	wordpools/wasnorm_wordpool_576.txt	LTP349	ltpFR2	9	16	FRAGRANCE	599	n/a	n/a	0	0	0
3114037	WORD	wordpools/wasnorm_wordpool_576.txt	LTP349	ltpFR2	9	16	JOURNAL	760	n/a	n/a	0	0	0
3116786	WORD	wordpools/wasnorm_wordpool_576.txt	LTP349	ltpFR2	9	16	WOMAN	1620	n/a	n/a	0	0	0
3119251	WORD	wordpools/wasnorm_wordpool_576.txt	LTP349	ltpFR2	9	16	CLOUD	328	n/a	n/a	0	0	0
3121817	WORD	wordpools/wasnorm_wordpool_576.txt	LTP349	ltpFR2	9	16	SHARK	1275	n/a	n/a	0	0	0
3124565	WORD	wordpools/wasnorm_wordpool_576.txt	LTP349	ltpFR2	9	16	PROTON	1132	n/a	n/a	0	0	0
3127197	WORD	wordpools/wasnorm_wordpool_576.txt	LTP349	ltpFR2	9	16	LAMP	798	n/a	n/a	0	0	0
3129696	WORD	wordpools/wasnorm_wordpool_576.txt	LTP349	ltpFR2	9	16	GIRL	637	n/a	n/a	0	0	0
3132211	WORD	wordpools/wasnorm_wordpool_576.txt	LTP349	ltpFR2	9	16	FILM	565	n/a	n/a	0	0	0
3134810	WORD	wordpools/wasnorm_wordpool_576.txt	LTP349	ltpFR2	9	16	POPCORN	1104	n/a	n/a	0	0	0
3137542	WORD	wordpools/wasnorm_wordpool_576.txt	LTP349	ltpFR2	9	16	PIGEON	1065	n/a	n/a	0	0	0
3140307	WORD	wordpools/wasnorm_wordpool_576.txt	LTP349	ltpFR2	9	16	LION	827	n/a	n/a	0	0	0
3142823	WORD	wordpools/wasnorm_wordpool_576.txt	LTP349	ltpFR2	9	16	ROCKET	1202	n/a	n/a	0	0	0
3144439	START	n/a	LTP349	ltpFR2	9	n/a	n/a	n/a	22	n/a	n/a	n/a	n/a
3145436	DISTRACTOR	n/a	LTP349	ltpFR2	9	16	n/a	n/a	n/a	n/a	0	0	0
3145438	PROB	n/a	LTP349	ltpFR2	9	n/a	n/a	n/a	22	17	6	3	8
3150319	PROB	n/a	LTP349	ltpFR2	9	n/a	n/a	n/a	22	17	8	5	4
3152918	PROB	n/a	LTP349	ltpFR2	9	n/a	n/a	n/a	22	18	8	2	8
3155400	PROB	n/a	LTP349	ltpFR2	9	n/a	n/a	n/a	22	18	9	5	4
3158465	PROB	n/a	LTP349	ltpFR2	9	n/a	n/a	n/a	22	19	4	8	7
3161414	PROB	n/a	LTP349	ltpFR2	9	n/a	n/a	n/a	22	1	5	1	7
3163596	PROB	n/a	LTP349	ltpFR2	9	n/a	n/a	n/a	22	11	5	5	1
3165312	PROB	n/a	LTP349	ltpFR2	9	n/a	n/a	n/a	22	12	1	6	4
3168311	STOP	n/a	LTP349	ltpFR2	9	n/a	n/a	n/a	22	n/a	n/a	n/a	n/a
3170276	REC_START	n/a	LTP349	ltpFR2	9	16	n/a	n/a	n/a	n/a	0	0	0
3171981	REC_WORD	wordpools/wasnorm_wordpool_576.txt	LTP349	ltpFR2	9	16	VENUS	1557	n/a	n/a	0	0	0
3175381	REC_WORD	wordpools/wasnorm_wordpool_576.txt	LTP349	ltpFR2	9	16	RAZOR	1171	n/a	n/a	0	0	0
3180611	REC_WORD	wordpools/wasnorm_wordpool_576.txt	LTP349	ltpFR2	9	16	COMET	353	n/a	n/a	0	0	0
3195795	REC_WORD_VV	wordpools/wasnorm_wordpool_576.txt	LTP349	ltpFR2	9	16	<>	-1	n/a	n/a	0	0	0
3196822	REC_WORD	wordpools/wasnorm_wordpool_576.txt	LTP349	ltpFR2	9	16	VENUS	1557	n/a	n/a	0	0	0
3197298	REC_WORD	wordpools/wasnorm_wordpool_576.txt	LTP349	ltpFR2	9	16	COMET	353	n/a	n/a	0	0	0
3199053	REC_WORD	wordpools/wasnorm_wordpool_576.txt	LTP349	ltpFR2	9	16	RAZOR	1171	n/a	n/a	0	0	0
3200045	REC_WORD	wordpools/wasnorm_wordpool_576.txt	LTP349	ltpFR2	9	16	CAKE	219	n/a	n/a	0	0	0
3203958	REC_WORD_VV	wordpools/wasnorm_wordpool_576.txt	LTP349	ltpFR2	9	16	<>	-1	n/a	n/a	0	0	0
3246821	REST_REWET	n/a	LTP349	ltpFR2	9	16	n/a	n/a	n/a	n/a	0	0	0
3396813	DISTRACTOR	n/a	LTP349	ltpFR2	9	17	n/a	n/a	n/a	n/a	0	0	0
3396814	START	n/a	LTP349	ltpFR2	9	n/a	n/a	n/a	23	n/a	n/a	n/a	n/a
3396830	PROB	n/a	LTP349	ltpFR2	9	n/a	n/a	n/a	23	25	9	8	8
3400761	PROB	n/a	LTP349	ltpFR2	9	n/a	n/a	n/a	23	19	7	5	7
3403144	PROB	n/a	LTP349	ltpFR2	9	n/a	n/a	n/a	23	11	1	2	8
3404843	PROB	n/a	LTP349	ltpFR2	9	n/a	n/a	n/a	23	26	9	9	8
3408274	PROB	n/a	LTP349	ltpFR2	9	n/a	n/a	n/a	23	22	6	7	9
3411989	PROB	n/a	LTP349	ltpFR2	9	n/a	n/a	n/a	23	16	7	5	4
3414821	PROB	n/a	LTP349	ltpFR2	9	n/a	n/a	n/a	23	10	3	6	1
3420814	STOP	n/a	LTP349	ltpFR2	9	n/a	n/a	n/a	23	n/a	n/a	n/a	n/a
3421784	WORD	wordpools/wasnorm_wordpool_576.txt	LTP349	ltpFR2	9	17	FLIPPER	580	n/a	n/a	0	0	0
3424316	WORD	wordpools/wasnorm_wordpool_576.txt	LTP349	ltpFR2	9	17	STATUE	1374	n/a	n/a	0	0	0
3427097	WORD	wordpools/wasnorm_wordpool_576.txt	LTP349	ltpFR2	9	17	SLIDE	1326	n/a	n/a	0	0	0
3429780	WORD	wordpools/wasnorm_wordpool_576.txt	LTP349	ltpFR2	9	17	ELBOW	520	n/a	n/a	0	0	0
3432346	WORD	wordpools/wasnorm_wordpool_576.txt	LTP349	ltpFR2	9	17	SHOULDER	1294	n/a	n/a	0	0	0
3435011	WORD	wordpools/wasnorm_wordpool_576.txt	LTP349	ltpFR2	9	17	FEMALE	559	n/a	n/a	0	0	0
3437626	WORD	wordpools/wasnorm_wordpool_576.txt	LTP349	ltpFR2	9	17	TROUT	1511	n/a	n/a	0	0	0
3440075	WORD	wordpools/wasnorm_wordpool_576.txt	LTP349	ltpFR2	9	17	HAMPER	682	n/a	n/a	0	0	0
3442724	WORD	wordpools/wasnorm_wordpool_576.txt	LTP349	ltpFR2	9	17	PARROT	1015	n/a	n/a	0	0	0
3445306	WORD	wordpools/wasnorm_wordpool_576.txt	LTP349	ltpFR2	9	17	LIPSTICK	829	n/a	n/a	0	0	0
3447755	WORD	wordpools/wasnorm_wordpool_576.txt	LTP349	ltpFR2	9	17	CHIPMUNK	304	n/a	n/a	0	0	0
3450403	WORD	wordpools/wasnorm_wordpool_576.txt	LTP349	ltpFR2	9	17	SEAFOOD	1260	n/a	n/a	0	0	0
3453101	WORD	wordpools/wasnorm_wordpool_576.txt	LTP349	ltpFR2	9	17	SEAL	1262	n/a	n/a	0	0	0
3455784	WORD	wordpools/wasnorm_wordpool_576.txt	LTP349	ltpFR2	9	17	MILDEW	893	n/a	n/a	0	0	0
3458266	WORD	wordpools/wasnorm_wordpool_576.txt	LTP349	ltpFR2	9	17	PARSLEY	1016	n/a	n/a	0	0	0
3460782	WORD	wordpools/wasnorm_wordpool_576.txt	LTP349	ltpFR2	9	17	LAPEL	800	n/a	n/a	0	0	0
3463580	WORD	wordpools/wasnorm_wordpool_576.txt	LTP349	ltpFR2	9	17	MARROW	872	n/a	n/a	0	0	0
3466112	WORD	wordpools/wasnorm_wordpool_576.txt	LTP349	ltpFR2	9	17	COFFEE	341	n/a	n/a	0	0	0
3468694	WORD	wordpools/wasnorm_wordpool_576.txt	LTP349	ltpFR2	9	17	BARLEY	88	n/a	n/a	0	0	0
3471426	WORD	wordpools/wasnorm_wordpool_576.txt	LTP349	ltpFR2	9	17	POET	1095	n/a	n/a	0	0	0
3474158	WORD	wordpools/wasnorm_wordpool_576.txt	LTP349	ltpFR2	9	17	WAITER	1580	n/a	n/a	0	0	0
3476840	WORD	wordpools/wasnorm_wordpool_576.txt	LTP349	ltpFR2	9	17	DOUGHNUT	490	n/a	n/a	0	0	0
3479339	WORD	wordpools/wasnorm_wordpool_576.txt	LTP349	ltpFR2	9	17	RADISH	1158	n/a	n/a	0	0	0
3481921	WORD	wordpools/wasnorm_wordpool_576.txt	LTP349	ltpFR2	9	17	SALT	1229	n/a	n/a	0	0	0
3483537	START	n/a	LTP349	ltpFR2	9	n/a	n/a	n/a	24	n/a	n/a	n/a	n/a
3484646	DISTRACTOR	n/a	LTP349	ltpFR2	9	17	n/a	n/a	n/a	n/a	0	0	0
3484653	PROB	n/a	LTP349	ltpFR2	9	n/a	n/a	n/a	24	11	3	7	1
3486369	PROB	n/a	LTP349	ltpFR2	9	n/a	n/a	n/a	24	21	9	9	3
3488001	PROB	n/a	LTP349	ltpFR2	9	n/a	n/a	n/a	24	11	7	2	1
3490083	PROB	n/a	LTP349	ltpFR2	9	n/a	n/a	n/a	24	12	8	1	3
3493066	PROB	n/a	LTP349	ltpFR2	9	n/a	n/a	n/a	24	10	3	3	4
3495631	PROB	n/a	LTP349	ltpFR2	9	n/a	n/a	n/a	24	7	3	1	3
3497597	PROB	n/a	LTP349	ltpFR2	9	n/a	n/a	n/a	24	13	6	6	1
3500094	PROB	n/a	LTP349	ltpFR2	9	n/a	n/a	n/a	24	12	1	4	7
3502078	PROB	n/a	LTP349	ltpFR2	9	n/a	n/a	n/a	24	11	2	2	7
3507537	STOP	n/a	LTP349	ltpFR2	9	n/a	n/a	n/a	24	n/a	n/a	n/a	n/a
3509442	REC_START	n/a	LTP349	ltpFR2	9	17	n/a	n/a	n/a	n/a	0	0	0
3511436	REC_WORD	wordpools/wasnorm_wordpool_576.txt	LTP349	ltpFR2	9	17	FLIPPER	580	n/a	n/a	0	0	0
3512572	REC_WORD	wordpools/wasnorm_wordpool_576.txt	LTP349	ltpFR2	9	17	TROUT	1511	n/a	n/a	0	0	0
3513729	REC_WORD	wordpools/wasnorm_wordpool_576.txt	LTP349	ltpFR2	9	17	LIPSTICK	829	n/a	n/a	0	0	0
3517836	REC_WORD	wordpools/wasnorm_wordpool_576.txt	LTP349	ltpFR2	9	17	SLIDE	1326	n/a	n/a	0	0	0
3519174	REC_WORD	wordpools/wasnorm_wordpool_576.txt	LTP349	ltpFR2	9	17	ELBOW	520	n/a	n/a	0	0	0
3520216	REC_WORD	wordpools/wasnorm_wordpool_576.txt	LTP349	ltpFR2	9	17	SHOULDER	1294	n/a	n/a	0	0	0
3522557	REC_WORD	wordpools/wasnorm_wordpool_576.txt	LTP349	ltpFR2	9	17	COFFEE	341	n/a	n/a	0	0	0
3524551	REC_WORD	wordpools/wasnorm_wordpool_576.txt	LTP349	ltpFR2	9	17	PARSLEY	1016	n/a	n/a	0	0	0
3527116	REC_WORD_VV	wordpools/wasnorm_wordpool_576.txt	LTP349	ltpFR2	9	17	<>	-1	n/a	n/a	0	0	0
3527704	REC_WORD	wordpools/wasnorm_wordpool_576.txt	LTP349	ltpFR2	9	17	BARLEY	88	n/a	n/a	0	0	0
3534936	REC_WORD	wordpools/wasnorm_wordpool_576.txt	LTP349	ltpFR2	9	17	CHIPMUNK	304	n/a	n/a	0	0	0
3599879	DISTRACTOR	n/a	LTP349	ltpFR2	9	18	n/a	n/a	n/a	n/a	0	0	0
3599879	START	n/a	LTP349	ltpFR2	9	n/a	n/a	n/a	25	n/a	n/a	n/a	n/a
3599896	PROB	n/a	LTP349	ltpFR2	9	n/a	n/a	n/a	25	13	2	8	3
3602611	PROB	n/a	LTP349	ltpFR2	9	n/a	n/a	n/a	25	14	6	4	4
3604943	PROB	n/a	LTP349	ltpFR2	9	n/a	n/a	n/a	25	21	5	8	8
3607142	PROB	n/a	LTP349	ltpFR2	9	n/a	n/a	n/a	25	5	1	2	2
3608658	PROB	n/a	LTP349	ltpFR2	9	n/a	n/a	n/a	25	16	4	5	7
3610957	PROB	n/a	LTP349	ltpFR2	9	n/a	n/a	n/a	25	17	5	3	9
3616504	PROB	n/a	LTP349	ltpFR2	9	n/a	n/a	n/a	25	12	4	7	1
3619320	PROB	n/a	LTP349	ltpFR2	9	n/a	n/a	n/a	25	14	5	5	4
3620652	PROB	n/a	LTP349	ltpFR2	9	n/a	n/a	n/a	25	12	5	1	6
3622487	STOP	n/a	LTP349	ltpFR2	9	n/a	n/a	n/a	25	n/a	n/a	n/a	n/a
3624967	WORD	wordpools/wasnorm_wordpool_576.txt	LTP349	ltpFR2	9	18	LOFT	840	n/a	n/a	0	0	0
3627499	WORD	wordpools/wasnorm_wordpool_576.txt	LTP349	ltpFR2	9	18	CRITIC	410	n/a	n/a	0	0	0
3629964	WORD	wordpools/wasnorm_wordpool_576.txt	LTP349	ltpFR2	9	18	ARMY	39	n/a	n/a	0	0	0
3632396	WORD	wordpools/wasnorm_wordpool_576.txt	LTP349	ltpFR2	9	18	MAMMAL	861	n/a	n/a	0	0	0
3635112	WORD	wordpools/wasnorm_wordpool_576.txt	LTP349	ltpFR2	9	18	SHORTS	1293	n/a	n/a	0	0	0
3637710	WORD	wordpools/wasnorm_wordpool_576.txt	LTP349	ltpFR2	9	18	COCOON	339	n/a	n/a	0	0	0
3640409	WORD	wordpools/wasnorm_wordpool_576.txt	LTP349	ltpFR2	9	18	POSTAGE	1113	n/a	n/a	0	0	0
3643124	WORD	wordpools/wasnorm_wordpool_576.txt	LTP349	ltpFR2	9	18	HOUND	724	n/a	n/a	0	0	0
3645707	WORD	wordpools/wasnorm_wordpool_576.txt	LTP349	ltpFR2	9	18	FOX	598	n/a	n/a	0	0	0
3648355	WORD	wordpools/wasnorm_wordpool_576.txt	LTP349	ltpFR2	9	18	SMOG	1330	n/a	n/a	0	0	0
3650871	WORD	wordpools/wasnorm_wordpool_576.txt	LTP349	ltpFR2	9	18	SAUSAGE	1238	n/a	n/a	0	0	0
3653336	WORD	wordpools/wasnorm_wordpool_576.txt	LTP349	ltpFR2	9	18	PRIMATE	1123	n/a	n/a	0	0	0
3655801	WORD	wordpools/wasnorm_wordpool_576.txt	LTP349	ltpFR2	9	18	SHIRT	1287	n/a	n/a	0	0	0
3658334	WORD	wordpools/wasnorm_wordpool_576.txt	LTP349	ltpFR2	9	18	PLAID	1080	n/a	n/a	0	0	0
3660799	WORD	wordpools/wasnorm_wordpool_576.txt	LTP349	ltpFR2	9	18	BLOUSE	139	n/a	n/a	0	0	0
3663414	WORD	wordpools/wasnorm_wordpool_576.txt	LTP349	ltpFR2	9	18	KEEPER	769	n/a	n/a	0	0	0
3665896	WORD	wordpools/wasnorm_wordpool_576.txt	LTP349	ltpFR2	9	18	COBRA	336	n/a	n/a	0	0	0
3668695	WORD	wordpools/wasnorm_wordpool_576.txt	LTP349	ltpFR2	9	18	DRIVER	499	n/a	n/a	0	0	0
3671410	WORD	wordpools/wasnorm_wordpool_576.txt	LTP349	ltpFR2	9	18	CRAYON	401	n/a	n/a	0	0	0
3673926	WORD	wordpools/wasnorm_wordpool_576.txt	LTP349	ltpFR2	9	18	GARLIC	624	n/a	n/a	0	0	0
3676591	WORD	wordpools/wasnorm_wordpool_576.txt	LTP349	ltpFR2	9	18	NIGHTGOWN	953	n/a	n/a	0	0	0
3679140	WORD	wordpools/wasnorm_wordpool_576.txt	LTP349	ltpFR2	9	18	GRAVEL	659	n/a	n/a	0	0	0
3681722	WORD	wordpools/wasnorm_wordpool_576.txt	LTP349	ltpFR2	9	18	STONE	1385	n/a	n/a	0	0	0
3684471	WORD	wordpools/wasnorm_wordpool_576.txt	LTP349	ltpFR2	9	18	COSTUME	383	n/a	n/a	0	0	0
3686086	START	n/a	LTP349	ltpFR2	9	n/a	n/a	n/a	26	n/a	n/a	n/a	n/a
3687007	DISTRACTOR	n/a	LTP349	ltpFR2	9	18	n/a	n/a	n/a	n/a	0	0	0
3687019	PROB	n/a	LTP349	ltpFR2	9	n/a	n/a	n/a	26	9	5	3	1
3689002	PROB	n/a	LTP349	ltpFR2	9	n/a	n/a	n/a	26	13	3	5	5
3690617	PROB	n/a	LTP349	ltpFR2	9	n/a	n/a	n/a	26	15	9	4	2
3692716	PROB	n/a	LTP349	ltpFR2	9	n/a	n/a	n/a	26	13	1	5	7
3695698	PROB	n/a	LTP349	ltpFR2	9	n/a	n/a	n/a	26	16	5	2	9
3701162	PROB	n/a	LTP349	ltpFR2	9	n/a	n/a	n/a	26	12	4	3	5
3704494	PROB	n/a	LTP349	ltpFR2	9	n/a	n/a	n/a	26	12	3	7	2
3706060	PROB	n/a	LTP349	ltpFR2	9	n/a	n/a	n/a	26	19	8	6	5
3708639	STOP	n/a	LTP349	ltpFR2	9	n/a	n/a	n/a	26	n/a	n/a	n/a	n/a
3711941	REC_START	n/a	LTP349	ltpFR2	9	18	n/a	n/a	n/a	n/a	0	0	0
3724494	REC_WORD	wordpools/wasnorm_wordpool_576.txt	LTP349	ltpFR2	9	18	BLOUSE	139	n/a	n/a	0	0	0
3726123	REC_WORD	wordpools/wasnorm_wordpool_576.txt	LTP349	ltpFR2	9	18	PLAID	1080	n/a	n/a	0	0	0
3727456	REC_WORD	wordpools/wasnorm_wordpool_576.txt	LTP349	ltpFR2	9	18	SHIRT	1287	n/a	n/a	0	0	0
3731182	REC_WORD	wordpools/wasnorm_wordpool_576.txt	LTP349	ltpFR2	9	18	SAUSAGE	1238	n/a	n/a	0	0	0
3758637	REC_WORD	wordpools/wasnorm_wordpool_576.txt	LTP349	ltpFR2	9	18	CRAYON	401	n/a	n/a	0	0	0
3761039	REC_WORD_VV	wordpools/wasnorm_wordpool_576.txt	LTP349	ltpFR2	9	18	<>	-1	n/a	n/a	0	0	0
3761969	REC_WORD	wordpools/wasnorm_wordpool_576.txt	LTP349	ltpFR2	9	18	CANYON	235	n/a	n/a	0	0	0
3766559	REC_WORD_VV	wordpools/wasnorm_wordpool_576.txt	LTP349	ltpFR2	9	18	<>	-1	n/a	n/a	0	0	0
3766898	REC_WORD	wordpools/wasnorm_wordpool_576.txt	LTP349	ltpFR2	9	18	CRAYON	401	n/a	n/a	0	0	0
3802379	DISTRACTOR	n/a	LTP349	ltpFR2	9	19	n/a	n/a	n/a	n/a	0	0	0
3802379	START	n/a	LTP349	ltpFR2	9	n/a	n/a	n/a	27	n/a	n/a	n/a	n/a
3802395	PROB	n/a	LTP349	ltpFR2	9	n/a	n/a	n/a	27	17	3	6	8
3804761	PROB	n/a	LTP349	ltpFR2	9	n/a	n/a	n/a	27	16	6	7	3
3807092	PROB	n/a	LTP349	ltpFR2	9	n/a	n/a	n/a	27	11	1	2	8
3808559	PROB	n/a	LTP349	ltpFR2	9	n/a	n/a	n/a	27	12	4	4	4
3810008	PROB	n/a	LTP349	ltpFR2	9	n/a	n/a	n/a	27	10	2	2	6
3811791	PROB	n/a	LTP349	ltpFR2	9	n/a	n/a	n/a	27	2	8	8	5
3813307	PROB	n/a	LTP349	ltpFR2	9	n/a	n/a	n/a	27	15	3	7	5
3815289	PROB	n/a	LTP349	ltpFR2	9	n/a	n/a	n/a	27	20	6	9	5
3818504	PROB	n/a	LTP349	ltpFR2	9	n/a	n/a	n/a	27	10	2	1	7
3820503	PROB	n/a	LTP349	ltpFR2	9	n/a	n/a	n/a	27	16	2	7	7
3822152	PROB	n/a	LTP349	ltpFR2	9	n/a	n/a	n/a	27	13	7	1	5
3826378	STOP	n/a	LTP349	ltpFR2	9	n/a	n/a	n/a	27	n/a	n/a	n/a	n/a
3827333	WORD	wordpools/wasnorm_wordpool_576.txt	LTP349	ltpFR2	9	19	SNAIL	1332	n/a	n/a	0	0	0
3830132	WORD	wordpools/wasnorm_wordpool_576.txt	LTP349	ltpFR2	9	19	LETTUCE	814	n/a	n/a	0	0	0
3832747	WORD	wordpools/wasnorm_wordpool_576.txt	LTP349	ltpFR2	9	19	QUAIL	1147	n/a	n/a	0	0	0
3835362	WORD	wordpools/wasnorm_wordpool_576.txt	LTP349	ltpFR2	9	19	CARROT	249	n/a	n/a	0	0	0
3837878	WORD	wordpools/wasnorm_wordpool_576.txt	LTP349	ltpFR2	9	19	SANDWICH	1232	n/a	n/a	0	0	0
3840460	WORD	wordpools/wasnorm_wordpool_576.txt	LTP349	ltpFR2	9	19	SLUG	1329	n/a	n/a	0	0	0
3842925	WORD	wordpools/wasnorm_wordpool_576.txt	LTP349	ltpFR2	9	19	BUTCHER	203	n/a	n/a	0	0	0
3845657	WORD	wordpools/wasnorm_wordpool_576.txt	LTP349	ltpFR2	9	19	HUMAN	726	n/a	n/a	0	0	0
3848473	WORD	wordpools/wasnorm_wordpool_576.txt	LTP349	ltpFR2	9	19	FOREST	593	n/a	n/a	0	0	0
3850938	WORD	wordpools/wasnorm_wordpool_576.txt	LTP349	ltpFR2	9	19	TREAT	1501	n/a	n/a	0	0	0
3853370	WORD	wordpools/wasnorm_wordpool_576.txt	LTP349	ltpFR2	9	19	SUITCASE	1403	n/a	n/a	0	0	0
3855885	WORD	wordpools/wasnorm_wordpool_576.txt	LTP349	ltpFR2	9	19	CIGAR	308	n/a	n/a	0	0	0
3858684	WORD	wordpools/wasnorm_wordpool_576.txt	LTP349	ltpFR2	9	19	CLAMP	316	n/a	n/a	0	0	0
3861183	WORD	wordpools/wasnorm_wordpool_576.txt	LTP349	ltpFR2	9	19	GRILL	661	n/a	n/a	0	0	0
3863898	WORD	wordpools/wasnorm_wordpool_576.txt	LTP349	ltpFR2	9	19	PRINCESS	1125	n/a	n/a	0	0	0
3866330	WORD	wordpools/wasnorm_wordpool_576.txt	LTP349	ltpFR2	9	19	SNAKE	1333	n/a	n/a	0	0	0
3869062	WORD	wordpools/wasnorm_wordpool_576.txt	LTP349	ltpFR2	9	19	TURKEY	1520	n/a	n/a	0	0	0
3871828	WORD	wordpools/wasnorm_wordpool_576.txt	LTP349	ltpFR2	9	19	SUBWAY	1400	n/a	n/a	0	0	0
3874410	WORD	wordpools/wasnorm_wordpool_576.txt	LTP349	ltpFR2	9	19	RECEIPT	1173	n/a	n/a	0	0	0
3877142	WORD	wordpools/wasnorm_wordpool_576.txt	LTP349	ltpFR2	9	19	BANK	83	n/a	n/a	0	0	0
3879807	WORD	wordpools/wasnorm_wordpool_576.txt	LTP349	ltpFR2	9	19	LASER	801	n/a	n/a	0	0	0
3882456	WORD	wordpools/wasnorm_wordpool_576.txt	LTP349	ltpFR2	9	19	HORSE	719	n/a	n/a	0	0	0
3885271	WORD	wordpools/wasnorm_wordpool_576.txt	LTP349	ltpFR2	9	19	SCARF	1246	n/a	n/a	0	0	0
3887870	WORD	wordpools/wasnorm_wordpool_576.txt	LTP349	ltpFR2	9	19	ICEBERG	731	n/a	n/a	0	0	0
3889486	START	n/a	LTP349	ltpFR2	9	n/a	n/a	n/a	28	n/a	n/a	n/a	n/a
3890628	DISTRACTOR	n/a	LTP349	ltpFR2	9	19	n/a	n/a	n/a	n/a	0	0	0
3890635	PROB	n/a	LTP349	ltpFR2	9	n/a	n/a	n/a	28	10	4	4	2
3894516	PROB	n/a	LTP349	ltpFR2	9	n/a	n/a	n/a	28	17	9	1	7
3896865	PROB	n/a	LTP349	ltpFR2	9	n/a	n/a	n/a	28	11	2	7	2
3898981	PROB	n/a	LTP349	ltpFR2	9	n/a	n/a	n/a	28	7	2	3	2
3902013	PROB	n/a	LTP349	ltpFR2	9	n/a	n/a	n/a	28	10	5	1	4
3903995	PROB	n/a	LTP349	ltpFR2	9	n/a	n/a	n/a	28	13	7	4	2
3907210	PROB	n/a	LTP349	ltpFR2	9	n/a	n/a	n/a	28	21	3	8	9
3910458	PROB	n/a	LTP349	ltpFR2	9	n/a	n/a	n/a	28	15	5	4	6
3912751	STOP	n/a	LTP349	ltpFR2	9	n/a	n/a	n/a	28	n/a	n/a	n/a	n/a
3915340	REC_START	n/a	LTP349	ltpFR2	9	19	n/a	n/a	n/a	n/a	0	0	0
3917944	REC_WORD	wordpools/wasnorm_wordpool_576.txt	LTP349	ltpFR2	9	19	SNAIL	1332	n/a	n/a	0	0	0
3919231	REC_WORD	wordpools/wasnorm_wordpool_576.txt	LTP349	ltpFR2	9	19	LETTUCE	814	n/a	n/a	0	0	0
3920470	REC_WORD	wordpools/wasnorm_wordpool_576.txt	LTP349	ltpFR2	9	19	QUAIL	1147	n/a	n/a	0	0	0
3921405	REC_WORD	wordpools/wasnorm_wordpool_576.txt	LTP349	ltpFR2	9	19	CARROT	249	n/a	n/a	0	0	0
3922605	REC_WORD	wordpools/wasnorm_wordpool_576.txt	LTP349	ltpFR2	9	19	SANDWICH	1232	n/a	n/a	0	0	0
3924065	REC_WORD	wordpools/wasnorm_wordpool_576.txt	LTP349	ltpFR2	9	19	SLUG	1329	n/a	n/a	0	0	0
3925429	REC_WORD	wordpools/wasnorm_wordpool_576.txt	LTP349	ltpFR2	9	19	BUTCHER	203	n/a	n/a	0	0	0
3926417	REC_WORD	wordpools/wasnorm_wordpool_576.txt	LTP349	ltpFR2	9	19	FOREST	593	n/a	n/a	0	0	0
3931540	REC_WORD	wordpools/wasnorm_wordpool_576.txt	LTP349	ltpFR2	9	19	BANK	83	n/a	n/a	0	0	0
3933152	REC_WORD	wordpools/wasnorm_wordpool_576.txt	LTP349	ltpFR2	9	19	LASER	801	n/a	n/a	0	0	0
3934432	REC_WORD	wordpools/wasnorm_wordpool_576.txt	LTP349	ltpFR2	9	19	HORSE	719	n/a	n/a	0	0	0
3940661	REC_WORD	wordpools/wasnorm_wordpool_576.txt	LTP349	ltpFR2	9	19	HUMAN	726	n/a	n/a	0	0	0
4005778	DISTRACTOR	n/a	LTP349	ltpFR2	9	20	n/a	n/a	n/a	n/a	0	0	0
4005778	START	n/a	LTP349	ltpFR2	9	n/a	n/a	n/a	29	n/a	n/a	n/a	n/a
4005794	PROB	n/a	LTP349	ltpFR2	9	n/a	n/a	n/a	29	18	6	7	5
4008127	PROB	n/a	LTP349	ltpFR2	9	n/a	n/a	n/a	29	10	4	5	1
4009892	PROB	n/a	LTP349	ltpFR2	9	n/a	n/a	n/a	29	23	8	7	8
4014423	PROB	n/a	LTP349	ltpFR2	9	n/a	n/a	n/a	29	8	2	2	4
4017239	PROB	n/a	LTP349	ltpFR2	9	n/a	n/a	n/a	29	11	5	1	5
4018771	PROB	n/a	LTP349	ltpFR2	9	n/a	n/a	n/a	29	17	7	3	7
4020953	PROB	n/a	LTP349	ltpFR2	9	n/a	n/a	n/a	29	12	5	1	6
4022736	PROB	n/a	LTP349	ltpFR2	9	n/a	n/a	n/a	29	13	1	8	4
4024735	PROB	n/a	LTP349	ltpFR2	9	n/a	n/a	n/a	29	19	4	8	7
4026934	PROB	n/a	LTP349	ltpFR2	9	n/a	n/a	n/a	29	15	9	2	4
4028847	STOP	n/a	LTP349	ltpFR2	9	n/a	n/a	n/a	29	n/a	n/a	n/a	n/a
4030799	WORD	wordpools/wasnorm_wordpool_576.txt	LTP349	ltpFR2	9	20	TABLE	1426	n/a	n/a	0	0	0
4033297	WORD	wordpools/wasnorm_wordpool_576.txt	LTP349	ltpFR2	9	20	COTTAGE	384	n/a	n/a	0	0	0
4035863	WORD	wordpools/wasnorm_wordpool_576.txt	LTP349	ltpFR2	9	20	STALLION	1369	n/a	n/a	0	0	0
4038495	WORD	wordpools/wasnorm_wordpool_576.txt	LTP349	ltpFR2	9	20	CARRIAGE	248	n/a	n/a	0	0	0
4041092	WORD	wordpools/wasnorm_wordpool_576.txt	LTP349	ltpFR2	9	20	BULLET	194	n/a	n/a	0	0	0
4043592	WORD	wordpools/wasnorm_wordpool_576.txt	LTP349	ltpFR2	9	20	GANGSTER	620	n/a	n/a	0	0	0
4046208	WORD	wordpools/wasnorm_wordpool_576.txt	LTP349	ltpFR2	9	20	BANKER	84	n/a	n/a	0	0	0
4048940	WORD	wordpools/wasnorm_wordpool_576.txt	LTP349	ltpFR2	9	20	PORTRAIT	1111	n/a	n/a	0	0	0
4051405	WORD	wordpools/wasnorm_wordpool_576.txt	LTP349	ltpFR2	9	20	ZIPPER	1636	n/a	n/a	0	0	0
4054170	WORD	wordpools/wasnorm_wordpool_576.txt	LTP349	ltpFR2	9	20	AGENT	10	n/a	n/a	0	0	0
4056602	WORD	wordpools/wasnorm_wordpool_576.txt	LTP349	ltpFR2	9	20	TRUCK	1512	n/a	n/a	0	0	0
4059251	WORD	wordpools/wasnorm_wordpool_576.txt	LTP349	ltpFR2	9	20	CELLAR	267	n/a	n/a	0	0	0
4061817	WORD	wordpools/wasnorm_wordpool_576.txt	LTP349	ltpFR2	9	20	NOMAD	955	n/a	n/a	0	0	0
4064499	WORD	wordpools/wasnorm_wordpool_576.txt	LTP349	ltpFR2	9	20	HIKER	708	n/a	n/a	0	0	0
4067014	WORD	wordpools/wasnorm_wordpool_576.txt	LTP349	ltpFR2	9	20	PILOT	1070	n/a	n/a	0	0	0
4069546	WORD	wordpools/wasnorm_wordpool_576.txt	LTP349	ltpFR2	9	20	COUCH	386	n/a	n/a	0	0	0
4072361	WORD	wordpools/wasnorm_wordpool_576.txt	LTP349	ltpFR2	9	20	CONTRACT	368	n/a	n/a	0	0	0
4075060	WORD	wordpools/wasnorm_wordpool_576.txt	LTP349	ltpFR2	9	20	CEILING	265	n/a	n/a	0	0	0
4077742	WORD	wordpools/wasnorm_wordpool_576.txt	LTP349	ltpFR2	9	20	CATCHER	258	n/a	n/a	0	0	0
4080174	WORD	wordpools/wasnorm_wordpool_576.txt	LTP349	ltpFR2	9	20	RUST	1219	n/a	n/a	0	0	0
4082640	WORD	wordpools/wasnorm_wordpool_576.txt	LTP349	ltpFR2	9	20	LUGGAGE	847	n/a	n/a	0	0	0
4085172	WORD	wordpools/wasnorm_wordpool_576.txt	LTP349	ltpFR2	9	20	PUPPY	1144	n/a	n/a	0	0	0
4087937	WORD	wordpools/wasnorm_wordpool_576.txt	LTP349	ltpFR2	9	20	EYELASH	546	n/a	n/a	0	0	0
4090452	WORD	wordpools/wasnorm_wordpool_576.txt	LTP349	ltpFR2	9	20	LEOPARD	812	n/a	n/a	0	0	0
4092068	START	n/a	LTP349	ltpFR2	9	n/a	n/a	n/a	30	n/a	n/a	n/a	n/a
4093193	DISTRACTOR	n/a	LTP349	ltpFR2	9	20	n/a	n/a	n/a	n/a	0	0	0
4093201	PROB	n/a	LTP349	ltpFR2	9	n/a	n/a	n/a	30	18	8	8	2
4095683	PROB	n/a	LTP349	ltpFR2	9	n/a	n/a	n/a	30	8	6	1	1
4097432	PROB	n/a	LTP349	ltpFR2	9	n/a	n/a	n/a	30	21	7	8	7
4101164	PROB	n/a	LTP349	ltpFR2	9	n/a	n/a	n/a	30	9	4	2	3
4103912	PROB	n/a	LTP349	ltpFR2	9	n/a	n/a	n/a	30	15	9	2	4
4108077	PROB	n/a	LTP349	ltpFR2	9	n/a	n/a	n/a	30	17	6	6	5
4110459	PROB	n/a	LTP349	ltpFR2	9	n/a	n/a	n/a	30	20	3	8	9
4116068	STOP	n/a	LTP349	ltpFR2	9	n/a	n/a	n/a	30	n/a	n/a	n/a	n/a
4117839	REC_START	n/a	LTP349	ltpFR2	9	20	n/a	n/a	n/a	n/a	0	0	0
4120087	REC_WORD	wordpools/wasnorm_wordpool_576.txt	LTP349	ltpFR2	9	20	BANKER	84	n/a	n/a	0	0	0
4122145	REC_WORD	wordpools/wasnorm_wordpool_576.txt	LTP349	ltpFR2	9	20	STALLION	1369	n/a	n/a	0	0	0
4123903	REC_WORD	wordpools/wasnorm_wordpool_576.txt	LTP349	ltpFR2	9	20	COTTAGE	384	n/a	n/a	0	0	0
4125420	REC_WORD	wordpools/wasnorm_wordpool_576.txt	LTP349	ltpFR2	9	20	TABLE	1426	n/a	n/a	0	0	0
4127849	REC_WORD	wordpools/wasnorm_wordpool_576.txt	LTP349	ltpFR2	9	20	GANGSTER	620	n/a	n/a	0	0	0
4130272	REC_WORD	wordpools/wasnorm_wordpool_576.txt	LTP349	ltpFR2	9	20	BULLET	194	n/a	n/a	0	0	0
4155855	REC_WORD	wordpools/wasnorm_wordpool_576.txt	LTP349	ltpFR2	9	20	DUSTPAN	509	n/a	n/a	0	0	0
4208277	DISTRACTOR	n/a	LTP349	ltpFR2	9	21	n/a	n/a	n/a	n/a	0	0	0
4208277	START	n/a	LTP349	ltpFR2	9	n/a	n/a	n/a	31	n/a	n/a	n/a	n/a
4208294	PROB	n/a	LTP349	ltpFR2	9	n/a	n/a	n/a	31	18	8	5	5
4209926	PROB	n/a	LTP349	ltpFR2	9	n/a	n/a	n/a	31	15	5	6	4
4211625	PROB	n/a	LTP349	ltpFR2	9	n/a	n/a	n/a	31	17	8	5	4
4214691	PROB	n/a	LTP349	ltpFR2	9	n/a	n/a	n/a	31	20	6	7	7
4217073	PROB	n/a	LTP349	ltpFR2	9	n/a	n/a	n/a	31	13	4	6	3
4220055	PROB	n/a	LTP349	ltpFR2	9	n/a	n/a	n/a	31	10	3	5	2
4222104	PROB	n/a	LTP349	ltpFR2	9	n/a	n/a	n/a	31	19	7	4	8
4224569	PROB	n/a	LTP349	ltpFR2	9	n/a	n/a	n/a	31	25	9	7	9
4232276	STOP	n/a	LTP349	ltpFR2	9	n/a	n/a	n/a	31	n/a	n/a	n/a	n/a
4233331	WORD	wordpools/wasnorm_wordpool_576.txt	LTP349	ltpFR2	9	21	SALMON	1227	n/a	n/a	0	0	0
4236147	WORD	wordpools/wasnorm_wordpool_576.txt	LTP349	ltpFR2	9	21	DOLPHIN	483	n/a	n/a	0	0	0
4238795	WORD	wordpools/wasnorm_wordpool_576.txt	LTP349	ltpFR2	9	21	AUTHOR	61	n/a	n/a	0	0	0
4241544	WORD	wordpools/wasnorm_wordpool_576.txt	LTP349	ltpFR2	9	21	ATOM	55	n/a	n/a	0	0	0
4244309	WORD	wordpools/wasnorm_wordpool_576.txt	LTP349	ltpFR2	9	21	DRILL	497	n/a	n/a	0	0	0
4246841	WORD	wordpools/wasnorm_wordpool_576.txt	LTP349	ltpFR2	9	21	GAZELLE	628	n/a	n/a	0	0	0
4249507	WORD	wordpools/wasnorm_wordpool_576.txt	LTP349	ltpFR2	9	21	SALAD	1224	n/a	n/a	0	0	0
4252122	WORD	wordpools/wasnorm_wordpool_576.txt	LTP349	ltpFR2	9	21	CLIMBER	323	n/a	n/a	0	0	0
4254854	WORD	wordpools/wasnorm_wordpool_576.txt	LTP349	ltpFR2	9	21	PLAZA	1088	n/a	n/a	0	0	0
4257636	WORD	wordpools/wasnorm_wordpool_576.txt	LTP349	ltpFR2	9	21	HUSBAND	728	n/a	n/a	0	0	0
4260185	WORD	wordpools/wasnorm_wordpool_576.txt	LTP349	ltpFR2	9	21	CRUTCH	417	n/a	n/a	0	0	0
4262983	WORD	wordpools/wasnorm_wordpool_576.txt	LTP349	ltpFR2	9	21	STOVE	1388	n/a	n/a	0	0	0
4265749	WORD	wordpools/wasnorm_wordpool_576.txt	LTP349	ltpFR2	9	21	TRACTOR	1493	n/a	n/a	0	0	0
4268214	WORD	wordpools/wasnorm_wordpool_576.txt	LTP349	ltpFR2	9	21	FIREMAN	569	n/a	n/a	0	0	0
4270646	WORD	wordpools/wasnorm_wordpool_576.txt	LTP349	ltpFR2	9	21	FIREPLACE	570	n/a	n/a	0	0	0
4273411	WORD	wordpools/wasnorm_wordpool_576.txt	LTP349	ltpFR2	9	21	XEROX	1628	n/a	n/a	0	0	0
4276027	WORD	wordpools/wasnorm_wordpool_576.txt	LTP349	ltpFR2	9	21	PIMPLE	1071	n/a	n/a	0	0	0
4278825	WORD	wordpools/wasnorm_wordpool_576.txt	LTP349	ltpFR2	9	21	SUMMIT	1405	n/a	n/a	0	0	0
4281641	WORD	wordpools/wasnorm_wordpool_576.txt	LTP349	ltpFR2	9	21	FRECKLE	602	n/a	n/a	0	0	0
4284173	WORD	wordpools/wasnorm_wordpool_576.txt	LTP349	ltpFR2	9	21	POWDER	1117	n/a	n/a	0	0	0
4286971	WORD	wordpools/wasnorm_wordpool_576.txt	LTP349	ltpFR2	9	21	SHRUB	1299	n/a	n/a	0	0	0
4289587	WORD	wordpools/wasnorm_wordpool_576.txt	LTP349	ltpFR2	9	21	BUNNY	198	n/a	n/a	0	0	0
4292235	WORD	wordpools/wasnorm_wordpool_576.txt	LTP349	ltpFR2	9	21	WASHER	1592	n/a	n/a	0	0	0
4295001	WORD	wordpools/wasnorm_wordpool_576.txt	LTP349	ltpFR2	9	21	ANTLER	29	n/a	n/a	0	0	0
4296617	START	n/a	LTP349	ltpFR2	9	n/a	n/a	n/a	32	n/a	n/a	n/a	n/a
4297815	DISTRACTOR	n/a	LTP349	ltpFR2	9	21	n/a	n/a	n/a	n/a	0	0	0
4297833	PROB	n/a	LTP349	ltpFR2	9	n/a	n/a	n/a	32	19	1	9	9
4301164	PROB	n/a	LTP349	ltpFR2	9	n/a	n/a	n/a	32	14	2	8	4
4304363	PROB	n/a	LTP349	ltpFR2	9	n/a	n/a	n/a	32	15	3	8	4
4310310	PROB	n/a	LTP349	ltpFR2	9	n/a	n/a	n/a	32	12	1	7	4
4313991	PROB	n/a	LTP349	ltpFR2	9	n/a	n/a	n/a	32	23	9	7	7
4318272	PROB	n/a	LTP349	ltpFR2	9	n/a	n/a	n/a	32	15	6	3	6
4320073	STOP	n/a	LTP349	ltpFR2	9	n/a	n/a	n/a	32	n/a	n/a	n/a	n/a
4322404	REC_START	n/a	LTP349	ltpFR2	9	21	n/a	n/a	n/a	n/a	0	0	0
4323561	REC_WORD	wordpools/wasnorm_wordpool_576.txt	LTP349	ltpFR2	9	21	LUMBER	848	n/a	n/a	0	0	0
4324824	REC_WORD	wordpools/wasnorm_wordpool_576.txt	LTP349	ltpFR2	9	21	BANKER	84	n/a	n/a	0	0	0
4352332	REC_WORD	wordpools/wasnorm_wordpool_576.txt	LTP349	ltpFR2	9	21	XEROX	1628	n/a	n/a	0	0	0
4412842	DISTRACTOR	n/a	LTP349	ltpFR2	9	22	n/a	n/a	n/a	n/a	0	0	0
4412842	START	n/a	LTP349	ltpFR2	9	n/a	n/a	n/a	33	n/a	n/a	n/a	n/a
4412859	PROB	n/a	LTP349	ltpFR2	9	n/a	n/a	n/a	33	18	6	8	4
4414758	PROB	n/a	LTP349	ltpFR2	9	n/a	n/a	n/a	33	13	5	1	7
4417390	PROB	n/a	LTP349	ltpFR2	9	n/a	n/a	n/a	33	21	9	4	8
4423587	PROB	n/a	LTP349	ltpFR2	9	n/a	n/a	n/a	33	13	8	1	4
4426069	PROB	n/a	LTP349	ltpFR2	9	n/a	n/a	n/a	33	8	2	1	5
4427951	PROB	n/a	LTP349	ltpFR2	9	n/a	n/a	n/a	33	17	2	8	7
4429867	PROB	n/a	LTP349	ltpFR2	9	n/a	n/a	n/a	33	18	9	1	8
4431583	PROB	n/a	LTP349	ltpFR2	9	n/a	n/a	n/a	33	19	7	6	6
4435640	STOP	n/a	LTP349	ltpFR2	9	n/a	n/a	n/a	33	n/a	n/a	n/a	n/a
4437897	WORD	wordpools/wasnorm_wordpool_576.txt	LTP349	ltpFR2	9	22	SPACE	1345	n/a	n/a	0	0	0
4440662	WORD	wordpools/wasnorm_wordpool_576.txt	LTP349	ltpFR2	9	22	LAGOON	795	n/a	n/a	0	0	0
4443277	WORD	wordpools/wasnorm_wordpool_576.txt	LTP349	ltpFR2	9	22	FLAG	573	n/a	n/a	0	0	0
4445776	WORD	wordpools/wasnorm_wordpool_576.txt	LTP349	ltpFR2	9	22	TEACHER	1440	n/a	n/a	0	0	0
4448441	WORD	wordpools/wasnorm_wordpool_576.txt	LTP349	ltpFR2	9	22	FINGER	567	n/a	n/a	0	0	0
4451107	WORD	wordpools/wasnorm_wordpool_576.txt	LTP349	ltpFR2	9	22	CRATER	400	n/a	n/a	0	0	0
4453739	WORD	wordpools/wasnorm_wordpool_576.txt	LTP349	ltpFR2	9	22	DIVER	476	n/a	n/a	0	0	0
4456221	WORD	wordpools/wasnorm_wordpool_576.txt	LTP349	ltpFR2	9	22	SWITCH	1422	n/a	n/a	0	0	0
4458803	WORD	wordpools/wasnorm_wordpool_576.txt	LTP349	ltpFR2	9	22	SHERIFF	1284	n/a	n/a	0	0	0
4461318	WORD	wordpools/wasnorm_wordpool_576.txt	LTP349	ltpFR2	9	22	VALLEY	1545	n/a	n/a	0	0	0
4464083	WORD	wordpools/wasnorm_wordpool_576.txt	LTP349	ltpFR2	9	22	ICING	732	n/a	n/a	0	0	0
4466532	WORD	wordpools/wasnorm_wordpool_576.txt	LTP349	ltpFR2	9	22	MOTEL	919	n/a	n/a	0	0	0
4469231	WORD	wordpools/wasnorm_wordpool_576.txt	LTP349	ltpFR2	9	22	DORM	488	n/a	n/a	0	0	0
4471996	WORD	wordpools/wasnorm_wordpool_576.txt	LTP349	ltpFR2	9	22	FIDDLE	561	n/a	n/a	0	0	0
4474778	WORD	wordpools/wasnorm_wordpool_576.txt	LTP349	ltpFR2	9	22	WHISTLE	1606	n/a	n/a	0	0	0
4477394	WORD	wordpools/wasnorm_wordpool_576.txt	LTP349	ltpFR2	9	22	TART	1436	n/a	n/a	0	0	0
4480109	WORD	wordpools/wasnorm_wordpool_576.txt	LTP349	ltpFR2	9	22	RACKET	1155	n/a	n/a	0	0	0
4482758	WORD	wordpools/wasnorm_wordpool_576.txt	LTP349	ltpFR2	9	22	FUNGUS	614	n/a	n/a	0	0	0
4485306	WORD	wordpools/wasnorm_wordpool_576.txt	LTP349	ltpFR2	9	22	FARMER	553	n/a	n/a	0	0	0
4488038	WORD	wordpools/wasnorm_wordpool_576.txt	LTP349	ltpFR2	9	22	FRANCE	601	n/a	n/a	0	0	0
4490487	WORD	wordpools/wasnorm_wordpool_576.txt	LTP349	ltpFR2	9	22	JUGGLER	763	n/a	n/a	0	0	0
4492969	WORD	wordpools/wasnorm_wordpool_576.txt	LTP349	ltpFR2	9	22	GYMNAST	675	n/a	n/a	0	0	0
4495401	WORD	wordpools/wasnorm_wordpool_576.txt	LTP349	ltpFR2	9	22	PASTRY	1022	n/a	n/a	0	0	0
4497883	WORD	wordpools/wasnorm_wordpool_576.txt	LTP349	ltpFR2	9	22	GARDEN	623	n/a	n/a	0	0	0
4499500	START	n/a	LTP349	ltpFR2	9	n/a	n/a	n/a	34	n/a	n/a	n/a	n/a
4500374	DISTRACTOR	n/a	LTP349	ltpFR2	9	22	n/a	n/a	n/a	n/a	0	0	0
4500382	PROB	n/a	LTP349	ltpFR2	9	n/a	n/a	n/a	34	20	2	7	1
4502831	PROB	n/a	LTP349	ltpFR2	9	n/a	n/a	n/a	34	12	9	1	2
4506379	PROB	n/a	LTP349	ltpFR2	9	n/a	n/a	n/a	34	15	7	1	7
4507728	PROB	n/a	LTP349	ltpFR2	9	n/a	n/a	n/a	34	9	3	5	1
4509594	PROB	n/a	LTP349	ltpFR2	9	n/a	n/a	n/a	34	18	8	6	4
4511077	PROB	n/a	LTP349	ltpFR2	9	n/a	n/a	n/a	34	23	8	6	9
4513626	PROB	n/a	LTP349	ltpFR2	9	n/a	n/a	n/a	34	9	2	2	5
4514942	PROB	n/a	LTP349	ltpFR2	9	n/a	n/a	n/a	34	18	9	4	5
4517723	PROB	n/a	LTP349	ltpFR2	9	n/a	n/a	n/a	34	17	9	1	7
4519822	PROB	n/a	LTP349	ltpFR2	9	n/a	n/a	n/a	34	7	1	4	2
4522408	STOP	n/a	LTP349	ltpFR2	9	n/a	n/a	n/a	34	n/a	n/a	n/a	n/a
4525337	REC_START	n/a	LTP349	ltpFR2	9	22	n/a	n/a	n/a	n/a	0	0	0
4528637	REC_WORD	wordpools/wasnorm_wordpool_576.txt	LTP349	ltpFR2	9	22	JUGGLER	763	n/a	n/a	0	0	0
4529500	REC_WORD	wordpools/wasnorm_wordpool_576.txt	LTP349	ltpFR2	9	22	GYMNAST	675	n/a	n/a	0	0	0
4530909	REC_WORD	wordpools/wasnorm_wordpool_576.txt	LTP349	ltpFR2	9	22	FRANCE	601	n/a	n/a	0	0	0
4532619	REC_WORD	wordpools/wasnorm_wordpool_576.txt	LTP349	ltpFR2	9	22	PASTRY	1022	n/a	n/a	0	0	0
4538257	REC_WORD	wordpools/wasnorm_wordpool_576.txt	LTP349	ltpFR2	9	22	GARDEN	623	n/a	n/a	0	0	0
4615791	WORD	wordpools/wasnorm_wordpool_576.txt	LTP349	ltpFR2	9	23	MACHINE	852	n/a	n/a	0	0	0
4618524	WORD	wordpools/wasnorm_wordpool_576.txt	LTP349	ltpFR2	9	23	BELLY	119	n/a	n/a	0	0	0
4621106	WORD	wordpools/wasnorm_wordpool_576.txt	LTP349	ltpFR2	9	23	STOMACH	1384	n/a	n/a	0	0	0
4623638	WORD	wordpools/wasnorm_wordpool_576.txt	LTP349	ltpFR2	9	23	BROTHER	179	n/a	n/a	0	0	0
4626136	WORD	wordpools/wasnorm_wordpool_576.txt	LTP349	ltpFR2	9	23	TWIG	1527	n/a	n/a	0	0	0
4628718	WORD	wordpools/wasnorm_wordpool_576.txt	LTP349	ltpFR2	9	23	OX	994	n/a	n/a	0	0	0
4631367	WORD	wordpools/wasnorm_wordpool_576.txt	LTP349	ltpFR2	9	23	WAGON	1578	n/a	n/a	0	0	0
4633982	WORD	wordpools/wasnorm_wordpool_576.txt	LTP349	ltpFR2	9	23	TOURIST	1488	n/a	n/a	0	0	0
4636665	WORD	wordpools/wasnorm_wordpool_576.txt	LTP349	ltpFR2	9	23	FLASK	576	n/a	n/a	0	0	0
4639363	WORD	wordpools/wasnorm_wordpool_576.txt	LTP349	ltpFR2	9	23	FOOTBALL	591	n/a	n/a	0	0	0
4642094	WORD	wordpools/wasnorm_wordpool_576.txt	LTP349	ltpFR2	9	23	CYCLONE	431	n/a	n/a	0	0	0
4644877	WORD	wordpools/wasnorm_wordpool_576.txt	LTP349	ltpFR2	9	23	REBEL	1172	n/a	n/a	0	0	0
4647626	WORD	wordpools/wasnorm_wordpool_576.txt	LTP349	ltpFR2	9	23	TUBA	1515	n/a	n/a	0	0	0
4650391	WORD	wordpools/wasnorm_wordpool_576.txt	LTP349	ltpFR2	9	23	COUNTY	389	n/a	n/a	0	0	0
4652856	WORD	wordpools/wasnorm_wordpool_576.txt	LTP349	ltpFR2	9	23	POCKET	1093	n/a	n/a	0	0	0
4655655	WORD	wordpools/wasnorm_wordpool_576.txt	LTP349	ltpFR2	9	23	HANDBAG	684	n/a	n/a	0	0	0
4658137	WORD	wordpools/wasnorm_wordpool_576.txt	LTP349	ltpFR2	9	23	ONION	977	n/a	n/a	0	0	0
4660869	WORD	wordpools/wasnorm_wordpool_576.txt	LTP349	ltpFR2	9	23	BOARD	143	n/a	n/a	0	0	0
4663485	WORD	wordpools/wasnorm_wordpool_576.txt	LTP349	ltpFR2	9	23	MAPLE	866	n/a	n/a	0	0	0
4666082	WORD	wordpools/wasnorm_wordpool_576.txt	LTP349	ltpFR2	9	23	PASSAGE	1019	n/a	n/a	0	0	0
4668665	WORD	wordpools/wasnorm_wordpool_576.txt	LTP349	ltpFR2	9	23	HIGHWAY	707	n/a	n/a	0	0	0
4671231	WORD	wordpools/wasnorm_wordpool_576.txt	LTP349	ltpFR2	9	23	VAGRANT	1544	n/a	n/a	0	0	0
4673929	WORD	wordpools/wasnorm_wordpool_576.txt	LTP349	ltpFR2	9	23	SIBLING	1301	n/a	n/a	0	0	0
4676561	WORD	wordpools/wasnorm_wordpool_576.txt	LTP349	ltpFR2	9	23	BARREL	91	n/a	n/a	0	0	0
4678177	START	n/a	LTP349	ltpFR2	9	n/a	n/a	n/a	35	n/a	n/a	n/a	n/a
4679296	DISTRACTOR	n/a	LTP349	ltpFR2	9	23	n/a	n/a	n/a	n/a	0	0	0
4679310	PROB	n/a	LTP349	ltpFR2	9	n/a	n/a	n/a	35	25	8	9	8
4682625	PROB	n/a	LTP349	ltpFR2	9	n/a	n/a	n/a	35	18	5	4	9
4684924	PROB	n/a	LTP349	ltpFR2	9	n/a	n/a	n/a	35	14	6	4	4
4687023	PROB	n/a	LTP349	ltpFR2	9	n/a	n/a	n/a	35	11	4	6	1
4688639	PROB	n/a	LTP349	ltpFR2	9	n/a	n/a	n/a	35	13	5	5	3
4691054	PROB	n/a	LTP349	ltpFR2	9	n/a	n/a	n/a	35	11	1	5	5
4693036	PROB	n/a	LTP349	ltpFR2	9	n/a	n/a	n/a	35	8	1	4	3
4700656	STOP	n/a	LTP349	ltpFR2	9	n/a	n/a	n/a	35	n/a	n/a	n/a	n/a
4703982	REC_START	n/a	LTP349	ltpFR2	9	23	n/a	n/a	n/a	n/a	0	0	0
4778982	REC_WORD_VV	wordpools/wasnorm_wordpool_576.txt	LTP349	ltpFR2	9	23	<>	-1	n/a	n/a	0	0	0
4794436	WORD	wordpools/wasnorm_wordpool_576.txt	LTP349	ltpFR2	9	24	DRESSER	496	n/a	n/a	0	0	0
4796935	WORD	wordpools/wasnorm_wordpool_576.txt	LTP349	ltpFR2	9	24	STAPLE	1371	n/a	n/a	0	0	0
4799700	WORD	wordpools/wasnorm_wordpool_576.txt	LTP349	ltpFR2	9	24	RECORD	1176	n/a	n/a	0	0	0
4802182	WORD	wordpools/wasnorm_wordpool_576.txt	LTP349	ltpFR2	9	24	PIANO	1057	n/a	n/a	0	0	0
4804898	WORD	wordpools/wasnorm_wordpool_576.txt	LTP349	ltpFR2	9	24	STAR	1373	n/a	n/a	0	0	0
4807613	WORD	wordpools/wasnorm_wordpool_576.txt	LTP349	ltpFR2	9	24	BUG	187	n/a	n/a	0	0	0
4810428	WORD	wordpools/wasnorm_wordpool_576.txt	LTP349	ltpFR2	9	24	PIZZA	1079	n/a	n/a	0	0	0
4813110	WORD	wordpools/wasnorm_wordpool_576.txt	LTP349	ltpFR2	9	24	LADY	794	n/a	n/a	0	0	0
4815542	WORD	wordpools/wasnorm_wordpool_576.txt	LTP349	ltpFR2	9	24	NURSE	963	n/a	n/a	0	0	0
4818124	WORD	wordpools/wasnorm_wordpool_576.txt	LTP349	ltpFR2	9	24	BOUQUET	157	n/a	n/a	0	0	0
4820623	WORD	wordpools/wasnorm_wordpool_576.txt	LTP349	ltpFR2	9	24	TILE	1468	n/a	n/a	0	0	0
4823055	WORD	wordpools/wasnorm_wordpool_576.txt	LTP349	ltpFR2	9	24	THREAD	1460	n/a	n/a	0	0	0
4825537	WORD	wordpools/wasnorm_wordpool_576.txt	LTP349	ltpFR2	9	24	BISON	131	n/a	n/a	0	0	0
4828003	WORD	wordpools/wasnorm_wordpool_576.txt	LTP349	ltpFR2	9	24	DRAGON	492	n/a	n/a	0	0	0
4830751	WORD	wordpools/wasnorm_wordpool_576.txt	LTP349	ltpFR2	9	24	SPOOL	1356	n/a	n/a	0	0	0
4833433	WORD	wordpools/wasnorm_wordpool_576.txt	LTP349	ltpFR2	9	24	ROOSTER	1209	n/a	n/a	0	0	0
4835899	WORD	wordpools/wasnorm_wordpool_576.txt	LTP349	ltpFR2	9	24	SUNSET	1408	n/a	n/a	0	0	0
4838531	WORD	wordpools/wasnorm_wordpool_576.txt	LTP349	ltpFR2	9	24	FRAME	600	n/a	n/a	0	0	0
4841095	WORD	wordpools/wasnorm_wordpool_576.txt	LTP349	ltpFR2	9	24	PICTURE	1061	n/a	n/a	0	0	0
4843795	WORD	wordpools/wasnorm_wordpool_576.txt	LTP349	ltpFR2	9	24	SCISSORS	1250	n/a	n/a	0	0	0
4846544	WORD	wordpools/wasnorm_wordpool_576.txt	LTP349	ltpFR2	9	24	COUSIN	392	n/a	n/a	0	0	0
4849192	WORD	wordpools/wasnorm_wordpool_576.txt	LTP349	ltpFR2	9	24	SUPPER	1411	n/a	n/a	0	0	0
4851774	WORD	wordpools/wasnorm_wordpool_576.txt	LTP349	ltpFR2	9	24	NAPKIN	937	n/a	n/a	0	0	0
4854423	WORD	wordpools/wasnorm_wordpool_576.txt	LTP349	ltpFR2	9	24	TOMBSTONE	1478	n/a	n/a	0	0	0
4856039	START	n/a	LTP349	ltpFR2	9	n/a	n/a	n/a	36	n/a	n/a	n/a	n/a
4856964	DISTRACTOR	n/a	LTP349	ltpFR2	9	24	n/a	n/a	n/a	n/a	0	0	0
4856972	PROB	n/a	LTP349	ltpFR2	9	n/a	n/a	n/a	36	11	1	6	4
4858854	PROB	n/a	LTP349	ltpFR2	9	n/a	n/a	n/a	36	20	6	9	5
4861986	PROB	n/a	LTP349	ltpFR2	9	n/a	n/a	n/a	36	21	6	9	6
4864501	PROB	n/a	LTP349	ltpFR2	9	n/a	n/a	n/a	36	18	8	1	7
4867766	PROB	n/a	LTP349	ltpFR2	9	n/a	n/a	n/a	36	10	4	1	5
4870365	PROB	n/a	LTP349	ltpFR2	9	n/a	n/a	n/a	36	10	6	1	3
4872347	PROB	n/a	LTP349	ltpFR2	9	n/a	n/a	n/a	36	23	8	9	6
4875479	PROB	n/a	LTP349	ltpFR2	9	n/a	n/a	n/a	36	16	5	5	6
4877745	PROB	n/a	LTP349	ltpFR2	9	n/a	n/a	n/a	36	11	9	1	1
4879280	STOP	n/a	LTP349	ltpFR2	9	n/a	n/a	n/a	36	n/a	n/a	n/a	n/a
4881977	REC_START	n/a	LTP349	ltpFR2	9	24	n/a	n/a	n/a	n/a	0	0	0
4884805	REC_WORD	wordpools/wasnorm_wordpool_576.txt	LTP349	ltpFR2	9	24	DRESSER	496	n/a	n/a	0	0	0
4887188	REC_WORD	wordpools/wasnorm_wordpool_576.txt	LTP349	ltpFR2	9	24	PIZZA	1079	n/a	n/a	0	0	0
4889394	REC_WORD	wordpools/wasnorm_wordpool_576.txt	LTP349	ltpFR2	9	24	BUG	187	n/a	n/a	0	0	0
4897836	REC_WORD	wordpools/wasnorm_wordpool_576.txt	LTP349	ltpFR2	9	24	RECORD	1176	n/a	n/a	0	0	0
4899827	REC_WORD	wordpools/wasnorm_wordpool_576.txt	LTP349	ltpFR2	9	24	PIANO	1057	n/a	n/a	0	0	0
4910817	REC_WORD	wordpools/wasnorm_wordpool_576.txt	LTP349	ltpFR2	9	24	DRAGON	492	n/a	n/a	0	0	0
4917010	REC_WORD	wordpools/wasnorm_wordpool_576.txt	LTP349	ltpFR2	9	24	BANDIT	81	n/a	n/a	0	0	0
4964003	SESS_END	n/a	LTP349	ltpFR2	9	24	n/a	n/a	n/a	n/a	0	0	0
