onset	duration	trial_type	sample	stim_file	subject	experiment	session	trial	item_name	item_num	list	answer	test_x	test_y	test_z
226.634765625	n/a	SESS_START	464148	n/a	LTP364	ltpFR2	2	n/a	n/a	n/a	n/a	n/a	0	0	0
260.2197265625	n/a	START	532930	n/a	LTP364	ltpFR2	2	n/a	n/a	n/a	-1	n/a	n/a	n/a	n/a
260.25048828125	n/a	PROB	532993	n/a	LTP364	ltpFR2	2	n/a	n/a	n/a	-1	12	9	2	1
262.4833984375	n/a	PROB	537566	n/a	LTP364	ltpFR2	2	n/a	n/a	n/a	-1	14	7	6	1
264.44970703125	n/a	PROB	541593	n/a	LTP364	ltpFR2	2	n/a	n/a	n/a	-1	12	7	4	1
266.38037109375	n/a	PROB	545547	n/a	LTP364	ltpFR2	2	n/a	n/a	n/a	-1	17	5	9	3
268.99658203125	n/a	PROB	550905	n/a	LTP364	ltpFR2	2	n/a	n/a	n/a	-1	12	1	2	9
271.29150390625	n/a	STOP	555605	n/a	LTP364	ltpFR2	2	n/a	n/a	n/a	-1	n/a	n/a	n/a	n/a
332.44970703125	n/a	DISTRACTOR	680857	n/a	LTP364	ltpFR2	2	1	n/a	n/a	n/a	n/a	0	0	0
332.45068359375	n/a	START	680859	n/a	LTP364	ltpFR2	2	n/a	n/a	n/a	1	n/a	n/a	n/a	n/a
332.46630859375	n/a	PROB	680891	n/a	LTP364	ltpFR2	2	n/a	n/a	n/a	1	17	8	6	3
336.49853515625	n/a	PROB	689149	n/a	LTP364	ltpFR2	2	n/a	n/a	n/a	1	13	3	4	5
339.9130859375	n/a	PROB	696142	n/a	LTP364	ltpFR2	2	n/a	n/a	n/a	1	13	4	8	1
343.56103515625	n/a	PROB	703613	n/a	LTP364	ltpFR2	2	n/a	n/a	n/a	1	15	4	3	8
346.2919921875	n/a	PROB	709206	n/a	LTP364	ltpFR2	2	n/a	n/a	n/a	1	24	9	9	6
349.9248046875	n/a	PROB	716646	n/a	LTP364	ltpFR2	2	n/a	n/a	n/a	1	8	1	2	5
352.18896484375	n/a	PROB	721283	n/a	LTP364	ltpFR2	2	n/a	n/a	n/a	1	15	1	7	7
356.44873046875	n/a	STOP	730007	n/a	LTP364	ltpFR2	2	n/a	n/a	n/a	1	n/a	n/a	n/a	n/a
357.587890625	n/a	WORD	732340	wordpools/wasnorm_wordpool_576.txt	LTP364	ltpFR2	2	1	FOX	598	n/a	n/a	0	0	0
360.302734375	n/a	WORD	737900	wordpools/wasnorm_wordpool_576.txt	LTP364	ltpFR2	2	1	SPARROW	1347	n/a	n/a	0	0	0
363.00048828125	n/a	WORD	743425	wordpools/wasnorm_wordpool_576.txt	LTP364	ltpFR2	2	1	ONION	977	n/a	n/a	0	0	0
365.650390625	n/a	WORD	748852	wordpools/wasnorm_wordpool_576.txt	LTP364	ltpFR2	2	1	PLATE	1086	n/a	n/a	0	0	0
368.44921875	n/a	WORD	754584	wordpools/wasnorm_wordpool_576.txt	LTP364	ltpFR2	2	1	CUPBOARD	425	n/a	n/a	0	0	0
371.0634765625	n/a	WORD	759938	wordpools/wasnorm_wordpool_576.txt	LTP364	ltpFR2	2	1	CRAB	397	n/a	n/a	0	0	0
373.86328125	n/a	WORD	765672	wordpools/wasnorm_wordpool_576.txt	LTP364	ltpFR2	2	1	WASP	1593	n/a	n/a	0	0	0
376.4453125	n/a	WORD	770960	wordpools/wasnorm_wordpool_576.txt	LTP364	ltpFR2	2	1	BELLY	119	n/a	n/a	0	0	0
379.1103515625	n/a	WORD	776418	wordpools/wasnorm_wordpool_576.txt	LTP364	ltpFR2	2	1	TEACHER	1440	n/a	n/a	0	0	0
381.84326171875	n/a	WORD	782015	wordpools/wasnorm_wordpool_576.txt	LTP364	ltpFR2	2	1	BLACKBOARD	133	n/a	n/a	0	0	0
384.47509765625	n/a	WORD	787405	wordpools/wasnorm_wordpool_576.txt	LTP364	ltpFR2	2	1	TUTU	1524	n/a	n/a	0	0	0
386.98876953125	n/a	WORD	792553	wordpools/wasnorm_wordpool_576.txt	LTP364	ltpFR2	2	1	NECKLACE	940	n/a	n/a	0	0	0
389.60595703125	n/a	WORD	797913	wordpools/wasnorm_wordpool_576.txt	LTP364	ltpFR2	2	1	MISSILE	900	n/a	n/a	0	0	0
392.0537109375	n/a	WORD	802926	wordpools/wasnorm_wordpool_576.txt	LTP364	ltpFR2	2	1	COCOON	339	n/a	n/a	0	0	0
394.70263671875	n/a	WORD	808351	wordpools/wasnorm_wordpool_576.txt	LTP364	ltpFR2	2	1	TWISTER	1530	n/a	n/a	0	0	0
397.30078125	n/a	WORD	813672	wordpools/wasnorm_wordpool_576.txt	LTP364	ltpFR2	2	1	AWARD	63	n/a	n/a	0	0	0
400.03271484375	n/a	WORD	819267	wordpools/wasnorm_wordpool_576.txt	LTP364	ltpFR2	2	1	CLAM	315	n/a	n/a	0	0	0
402.79931640625	n/a	WORD	824933	wordpools/wasnorm_wordpool_576.txt	LTP364	ltpFR2	2	1	VELVET	1555	n/a	n/a	0	0	0
405.59814453125	n/a	WORD	830665	wordpools/wasnorm_wordpool_576.txt	LTP364	ltpFR2	2	1	SCALPEL	1243	n/a	n/a	0	0	0
408.0625	n/a	WORD	835712	wordpools/wasnorm_wordpool_576.txt	LTP364	ltpFR2	2	1	SWORD	1423	n/a	n/a	0	0	0
410.56201171875	n/a	WORD	840831	wordpools/wasnorm_wordpool_576.txt	LTP364	ltpFR2	2	1	PADDING	999	n/a	n/a	0	0	0
413.16015625	n/a	WORD	846152	wordpools/wasnorm_wordpool_576.txt	LTP364	ltpFR2	2	1	COLLEGE	346	n/a	n/a	0	0	0
415.76025390625	n/a	WORD	851477	wordpools/wasnorm_wordpool_576.txt	LTP364	ltpFR2	2	1	MONSTER	912	n/a	n/a	0	0	0
418.5751953125	n/a	WORD	857242	wordpools/wasnorm_wordpool_576.txt	LTP364	ltpFR2	2	1	POPCORN	1104	n/a	n/a	0	0	0
420.18994140625	n/a	START	860549	n/a	LTP364	ltpFR2	2	n/a	n/a	n/a	2	n/a	n/a	n/a	n/a
421.18505859375	n/a	DISTRACTOR	862587	n/a	LTP364	ltpFR2	2	1	n/a	n/a	n/a	n/a	0	0	0
421.18896484375	n/a	PROB	862595	n/a	LTP364	ltpFR2	2	n/a	n/a	n/a	2	23	8	6	9
426.9697265625	n/a	PROB	874434	n/a	LTP364	ltpFR2	2	n/a	n/a	n/a	2	8	3	1	4
428.96875	n/a	PROB	878528	n/a	LTP364	ltpFR2	2	n/a	n/a	n/a	2	15	5	6	4
431.41845703125	n/a	PROB	883545	n/a	LTP364	ltpFR2	2	n/a	n/a	n/a	2	14	1	7	6
433.4013671875	n/a	PROB	887606	n/a	LTP364	ltpFR2	2	n/a	n/a	n/a	2	22	9	6	7
438.28125	n/a	PROB	897600	n/a	LTP364	ltpFR2	2	n/a	n/a	n/a	2	25	9	7	9
442.900390625	n/a	STOP	907060	n/a	LTP364	ltpFR2	2	n/a	n/a	n/a	2	n/a	n/a	n/a	n/a
446.0283203125	n/a	REC_START	913466	n/a	LTP364	ltpFR2	2	1	n/a	n/a	n/a	n/a	0	0	0
448.4150390625	n/a	REC_WORD	918354	wordpools/wasnorm_wordpool_576.txt	LTP364	ltpFR2	2	1	FOX	598	n/a	n/a	0	0	0
449.77099609375	n/a	REC_WORD	921131	wordpools/wasnorm_wordpool_576.txt	LTP364	ltpFR2	2	1	SPARROW	1347	n/a	n/a	0	0	0
451.48388671875	n/a	REC_WORD	924639	wordpools/wasnorm_wordpool_576.txt	LTP364	ltpFR2	2	1	ONION	977	n/a	n/a	0	0	0
453.0	n/a	REC_WORD	927744	wordpools/wasnorm_wordpool_576.txt	LTP364	ltpFR2	2	1	PLATE	1086	n/a	n/a	0	0	0
454.31494140625	n/a	REC_WORD	930437	wordpools/wasnorm_wordpool_576.txt	LTP364	ltpFR2	2	1	CUPBOARD	425	n/a	n/a	0	0	0
462.9384765625	n/a	REC_WORD	948098	wordpools/wasnorm_wordpool_576.txt	LTP364	ltpFR2	2	1	CRAB	397	n/a	n/a	0	0	0
464.94189453125	n/a	REC_WORD	952201	wordpools/wasnorm_wordpool_576.txt	LTP364	ltpFR2	2	1	WASP	1593	n/a	n/a	0	0	0
466.9384765625	n/a	REC_WORD	956290	wordpools/wasnorm_wordpool_576.txt	LTP364	ltpFR2	2	1	BELLY	119	n/a	n/a	0	0	0
468.29443359375	n/a	REC_WORD	959067	wordpools/wasnorm_wordpool_576.txt	LTP364	ltpFR2	2	1	TEACHER	1440	n/a	n/a	0	0	0
469.83154296875	n/a	REC_WORD	962215	wordpools/wasnorm_wordpool_576.txt	LTP364	ltpFR2	2	1	BLACKBOARD	133	n/a	n/a	0	0	0
471.75341796875	n/a	REC_WORD	966151	wordpools/wasnorm_wordpool_576.txt	LTP364	ltpFR2	2	1	TUTU	1524	n/a	n/a	0	0	0
473.4384765625	n/a	REC_WORD	969602	wordpools/wasnorm_wordpool_576.txt	LTP364	ltpFR2	2	1	NECKLACE	940	n/a	n/a	0	0	0
475.08642578125	n/a	REC_WORD	972977	wordpools/wasnorm_wordpool_576.txt	LTP364	ltpFR2	2	1	MISSILE	900	n/a	n/a	0	0	0
476.7724609375	n/a	REC_WORD	976430	wordpools/wasnorm_wordpool_576.txt	LTP364	ltpFR2	2	1	COCOON	339	n/a	n/a	0	0	0
478.857421875	n/a	REC_WORD	980700	wordpools/wasnorm_wordpool_576.txt	LTP364	ltpFR2	2	1	AWARD	63	n/a	n/a	0	0	0
480.87939453125	n/a	REC_WORD	984841	wordpools/wasnorm_wordpool_576.txt	LTP364	ltpFR2	2	1	VELVET	1555	n/a	n/a	0	0	0
484.822265625	n/a	REC_WORD	992916	wordpools/wasnorm_wordpool_576.txt	LTP364	ltpFR2	2	1	SCALPEL	1243	n/a	n/a	0	0	0
485.947265625	n/a	REC_WORD	995220	wordpools/wasnorm_wordpool_576.txt	LTP364	ltpFR2	2	1	SWORD	1423	n/a	n/a	0	0	0
487.70703125	n/a	REC_WORD	998824	wordpools/wasnorm_wordpool_576.txt	LTP364	ltpFR2	2	1	CUSHION	428	n/a	n/a	0	0	0
489.0439453125	n/a	REC_WORD	1001562	wordpools/wasnorm_wordpool_576.txt	LTP364	ltpFR2	2	1	COLLEGE	346	n/a	n/a	0	0	0
490.60009765625	n/a	REC_WORD	1004749	wordpools/wasnorm_wordpool_576.txt	LTP364	ltpFR2	2	1	POPCORN	1104	n/a	n/a	0	0	0
499.75341796875	n/a	REC_WORD	1023495	wordpools/wasnorm_wordpool_576.txt	LTP364	ltpFR2	2	1	CLAM	315	n/a	n/a	0	0	0
505.45361328125	n/a	REC_WORD	1035169	wordpools/wasnorm_wordpool_576.txt	LTP364	ltpFR2	2	1	MONSTER	912	n/a	n/a	0	0	0
536.45166015625	n/a	DISTRACTOR	1098653	n/a	LTP364	ltpFR2	2	2	n/a	n/a	n/a	n/a	0	0	0
536.45166015625	n/a	START	1098653	n/a	LTP364	ltpFR2	2	n/a	n/a	n/a	3	n/a	n/a	n/a	n/a
536.4677734375	n/a	PROB	1098686	n/a	LTP364	ltpFR2	2	n/a	n/a	n/a	3	13	3	3	7
542.63134765625	n/a	PROB	1111309	n/a	LTP364	ltpFR2	2	n/a	n/a	n/a	3	18	5	8	5
545.51318359375	n/a	PROB	1117211	n/a	LTP364	ltpFR2	2	n/a	n/a	n/a	3	5	1	3	1
547.328125	n/a	PROB	1120928	n/a	LTP364	ltpFR2	2	n/a	n/a	n/a	3	10	1	4	5
549.6123046875	n/a	PROB	1125606	n/a	LTP364	ltpFR2	2	n/a	n/a	n/a	3	6	1	3	2
551.51123046875	n/a	PROB	1129495	n/a	LTP364	ltpFR2	2	n/a	n/a	n/a	3	16	3	5	8
553.64306640625	n/a	PROB	1133861	n/a	LTP364	ltpFR2	2	n/a	n/a	n/a	3	15	3	3	9
556.658203125	n/a	PROB	1140036	n/a	LTP364	ltpFR2	2	n/a	n/a	n/a	3	12	6	2	4
559.5966796875	n/a	STOP	1146054	n/a	LTP364	ltpFR2	2	n/a	n/a	n/a	3	n/a	n/a	n/a	n/a
561.505859375	n/a	WORD	1149964	wordpools/wasnorm_wordpool_576.txt	LTP364	ltpFR2	2	2	FLOWER	584	n/a	n/a	0	0	0
564.18701171875	n/a	WORD	1155455	wordpools/wasnorm_wordpool_576.txt	LTP364	ltpFR2	2	2	CLOUD	328	n/a	n/a	0	0	0
566.76953125	n/a	WORD	1160744	wordpools/wasnorm_wordpool_576.txt	LTP364	ltpFR2	2	2	GRIZZLY	662	n/a	n/a	0	0	0
569.33447265625	n/a	WORD	1165997	wordpools/wasnorm_wordpool_576.txt	LTP364	ltpFR2	2	2	MARINE	869	n/a	n/a	0	0	0
571.767578125	n/a	WORD	1170980	wordpools/wasnorm_wordpool_576.txt	LTP364	ltpFR2	2	2	GAVEL	627	n/a	n/a	0	0	0
574.19873046875	n/a	WORD	1175959	wordpools/wasnorm_wordpool_576.txt	LTP364	ltpFR2	2	2	ARM	38	n/a	n/a	0	0	0
576.99755859375	n/a	WORD	1181691	wordpools/wasnorm_wordpool_576.txt	LTP364	ltpFR2	2	2	GYMNAST	675	n/a	n/a	0	0	0
579.54736328125	n/a	WORD	1186913	wordpools/wasnorm_wordpool_576.txt	LTP364	ltpFR2	2	2	BUG	187	n/a	n/a	0	0	0
582.14501953125	n/a	WORD	1192233	wordpools/wasnorm_wordpool_576.txt	LTP364	ltpFR2	2	2	SUITCASE	1403	n/a	n/a	0	0	0
584.71142578125	n/a	WORD	1197489	wordpools/wasnorm_wordpool_576.txt	LTP364	ltpFR2	2	2	SUBWAY	1400	n/a	n/a	0	0	0
587.35888671875	n/a	WORD	1202911	wordpools/wasnorm_wordpool_576.txt	LTP364	ltpFR2	2	2	KLEENEX	782	n/a	n/a	0	0	0
590.0908203125	n/a	WORD	1208506	wordpools/wasnorm_wordpool_576.txt	LTP364	ltpFR2	2	2	PIGMENT	1066	n/a	n/a	0	0	0
592.74072265625	n/a	WORD	1213933	wordpools/wasnorm_wordpool_576.txt	LTP364	ltpFR2	2	2	WRENCH	1625	n/a	n/a	0	0	0
595.2890625	n/a	WORD	1219152	wordpools/wasnorm_wordpool_576.txt	LTP364	ltpFR2	2	2	PANTHER	1009	n/a	n/a	0	0	0
597.970703125	n/a	WORD	1224644	wordpools/wasnorm_wordpool_576.txt	LTP364	ltpFR2	2	2	CAMEL	223	n/a	n/a	0	0	0
600.5537109375	n/a	WORD	1229934	wordpools/wasnorm_wordpool_576.txt	LTP364	ltpFR2	2	2	PILOT	1070	n/a	n/a	0	0	0
603.0517578125	n/a	WORD	1235050	wordpools/wasnorm_wordpool_576.txt	LTP364	ltpFR2	2	2	OUTDOORS	987	n/a	n/a	0	0	0
605.75146484375	n/a	WORD	1240579	wordpools/wasnorm_wordpool_576.txt	LTP364	ltpFR2	2	2	MISTER	901	n/a	n/a	0	0	0
608.19970703125	n/a	WORD	1245593	wordpools/wasnorm_wordpool_576.txt	LTP364	ltpFR2	2	2	WOMAN	1620	n/a	n/a	0	0	0
610.8984375	n/a	WORD	1251120	wordpools/wasnorm_wordpool_576.txt	LTP364	ltpFR2	2	2	YACHT	1629	n/a	n/a	0	0	0
613.63037109375	n/a	WORD	1256715	wordpools/wasnorm_wordpool_576.txt	LTP364	ltpFR2	2	2	FOOTBALL	591	n/a	n/a	0	0	0
616.29541015625	n/a	WORD	1262173	wordpools/wasnorm_wordpool_576.txt	LTP364	ltpFR2	2	2	LEG	809	n/a	n/a	0	0	0
618.79541015625	n/a	WORD	1267293	wordpools/wasnorm_wordpool_576.txt	LTP364	ltpFR2	2	2	TOMBSTONE	1478	n/a	n/a	0	0	0
621.326171875	n/a	WORD	1272476	wordpools/wasnorm_wordpool_576.txt	LTP364	ltpFR2	2	2	WIDOW	1608	n/a	n/a	0	0	0
622.94189453125	n/a	START	1275785	n/a	LTP364	ltpFR2	2	n/a	n/a	n/a	4	n/a	n/a	n/a	n/a
623.9990234375	n/a	DISTRACTOR	1277950	n/a	LTP364	ltpFR2	2	2	n/a	n/a	n/a	n/a	0	0	0
624.0078125	n/a	PROB	1277968	n/a	LTP364	ltpFR2	2	n/a	n/a	n/a	4	16	6	1	9
627.70703125	n/a	PROB	1285544	n/a	LTP364	ltpFR2	2	n/a	n/a	n/a	4	16	6	8	2
629.65673828125	n/a	PROB	1289537	n/a	LTP364	ltpFR2	2	n/a	n/a	n/a	4	17	5	6	6
632.15380859375	n/a	PROB	1294651	n/a	LTP364	ltpFR2	2	n/a	n/a	n/a	4	21	9	3	9
635.8369140625	n/a	PROB	1302194	n/a	LTP364	ltpFR2	2	n/a	n/a	n/a	4	13	8	2	3
638.3017578125	n/a	PROB	1307242	n/a	LTP364	ltpFR2	2	n/a	n/a	n/a	4	9	4	1	4
646.9404296875	n/a	STOP	1324934	n/a	LTP364	ltpFR2	2	n/a	n/a	n/a	4	n/a	n/a	n/a	n/a
648.79736328125	n/a	REC_START	1328737	n/a	LTP364	ltpFR2	2	2	n/a	n/a	n/a	n/a	0	0	0
653.876953125	n/a	REC_WORD	1339140	wordpools/wasnorm_wordpool_576.txt	LTP364	ltpFR2	2	2	FLOWER	584	n/a	n/a	0	0	0
655.39013671875	n/a	REC_WORD	1342239	wordpools/wasnorm_wordpool_576.txt	LTP364	ltpFR2	2	2	CLOUD	328	n/a	n/a	0	0	0
657.4873046875	n/a	REC_WORD	1346534	wordpools/wasnorm_wordpool_576.txt	LTP364	ltpFR2	2	2	GRIZZLY	662	n/a	n/a	0	0	0
658.86181640625	n/a	REC_WORD	1349349	wordpools/wasnorm_wordpool_576.txt	LTP364	ltpFR2	2	2	MARINE	869	n/a	n/a	0	0	0
660.69775390625	n/a	REC_WORD	1353109	wordpools/wasnorm_wordpool_576.txt	LTP364	ltpFR2	2	2	GYMNAST	675	n/a	n/a	0	0	0
663.8330078125	n/a	REC_WORD	1359530	wordpools/wasnorm_wordpool_576.txt	LTP364	ltpFR2	2	2	INSECT	740	n/a	n/a	0	0	0
665.55078125	n/a	REC_WORD	1363048	wordpools/wasnorm_wordpool_576.txt	LTP364	ltpFR2	2	2	SUITCASE	1403	n/a	n/a	0	0	0
667.3515625	n/a	REC_WORD	1366736	wordpools/wasnorm_wordpool_576.txt	LTP364	ltpFR2	2	2	SUBWAY	1400	n/a	n/a	0	0	0
672.49658203125	n/a	REC_WORD	1377273	wordpools/wasnorm_wordpool_576.txt	LTP364	ltpFR2	2	2	GAVEL	627	n/a	n/a	0	0	0
675.48779296875	n/a	REC_WORD	1383399	wordpools/wasnorm_wordpool_576.txt	LTP364	ltpFR2	2	2	LEG	809	n/a	n/a	0	0	0
681.9794921875	n/a	REC_WORD	1396694	wordpools/wasnorm_wordpool_576.txt	LTP364	ltpFR2	2	2	WRENCH	1625	n/a	n/a	0	0	0
691.44189453125	n/a	REC_WORD	1416073	wordpools/wasnorm_wordpool_576.txt	LTP364	ltpFR2	2	2	CAMEL	223	n/a	n/a	0	0	0
699.7197265625	n/a	REC_WORD	1433026	wordpools/wasnorm_wordpool_576.txt	LTP364	ltpFR2	2	2	OUTDOORS	987	n/a	n/a	0	0	0
701.66357421875	n/a	REC_WORD	1437007	wordpools/wasnorm_wordpool_576.txt	LTP364	ltpFR2	2	2	MISTER	901	n/a	n/a	0	0	0
703.24365234375	n/a	REC_WORD	1440243	wordpools/wasnorm_wordpool_576.txt	LTP364	ltpFR2	2	2	WOMAN	1620	n/a	n/a	0	0	0
705.6796875	n/a	REC_WORD	1445232	wordpools/wasnorm_wordpool_576.txt	LTP364	ltpFR2	2	2	WIDOW	1608	n/a	n/a	0	0	0
739.2529296875	n/a	WORD	1513990	wordpools/wasnorm_wordpool_576.txt	LTP364	ltpFR2	2	3	BLADE	134	n/a	n/a	0	0	0
741.9345703125	n/a	WORD	1519482	wordpools/wasnorm_wordpool_576.txt	LTP364	ltpFR2	2	3	COTTAGE	384	n/a	n/a	0	0	0
744.634765625	n/a	WORD	1525012	wordpools/wasnorm_wordpool_576.txt	LTP364	ltpFR2	2	3	SPHINX	1349	n/a	n/a	0	0	0
747.365234375	n/a	WORD	1530604	wordpools/wasnorm_wordpool_576.txt	LTP364	ltpFR2	2	3	SKIRT	1319	n/a	n/a	0	0	0
750.01416015625	n/a	WORD	1536029	wordpools/wasnorm_wordpool_576.txt	LTP364	ltpFR2	2	3	PASTA	1021	n/a	n/a	0	0	0
752.46337890625	n/a	WORD	1541045	wordpools/wasnorm_wordpool_576.txt	LTP364	ltpFR2	2	3	CHEST	295	n/a	n/a	0	0	0
755.12841796875	n/a	WORD	1546503	wordpools/wasnorm_wordpool_576.txt	LTP364	ltpFR2	2	3	THREAD	1460	n/a	n/a	0	0	0
757.59423828125	n/a	WORD	1551553	wordpools/wasnorm_wordpool_576.txt	LTP364	ltpFR2	2	3	GLOBE	641	n/a	n/a	0	0	0
760.10888671875	n/a	WORD	1556703	wordpools/wasnorm_wordpool_576.txt	LTP364	ltpFR2	2	3	SODA	1341	n/a	n/a	0	0	0
762.6259765625	n/a	WORD	1561858	wordpools/wasnorm_wordpool_576.txt	LTP364	ltpFR2	2	3	TRIBE	1505	n/a	n/a	0	0	0
765.373046875	n/a	WORD	1567484	wordpools/wasnorm_wordpool_576.txt	LTP364	ltpFR2	2	3	IGLOO	734	n/a	n/a	0	0	0
768.0048828125	n/a	WORD	1572874	wordpools/wasnorm_wordpool_576.txt	LTP364	ltpFR2	2	3	MAILMAN	858	n/a	n/a	0	0	0
770.52197265625	n/a	WORD	1578029	wordpools/wasnorm_wordpool_576.txt	LTP364	ltpFR2	2	3	BIKE	125	n/a	n/a	0	0	0
773.06982421875	n/a	WORD	1583247	wordpools/wasnorm_wordpool_576.txt	LTP364	ltpFR2	2	3	HELMET	702	n/a	n/a	0	0	0
775.6357421875	n/a	WORD	1588502	wordpools/wasnorm_wordpool_576.txt	LTP364	ltpFR2	2	3	MARS	873	n/a	n/a	0	0	0
778.36669921875	n/a	WORD	1594095	wordpools/wasnorm_wordpool_576.txt	LTP364	ltpFR2	2	3	OZONE	996	n/a	n/a	0	0	0
780.900390625	n/a	WORD	1599284	wordpools/wasnorm_wordpool_576.txt	LTP364	ltpFR2	2	3	KNIFE	785	n/a	n/a	0	0	0
783.58251953125	n/a	WORD	1604777	wordpools/wasnorm_wordpool_576.txt	LTP364	ltpFR2	2	3	CARROT	249	n/a	n/a	0	0	0
786.0302734375	n/a	WORD	1609790	wordpools/wasnorm_wordpool_576.txt	LTP364	ltpFR2	2	3	GRILL	661	n/a	n/a	0	0	0
788.67919921875	n/a	WORD	1615215	wordpools/wasnorm_wordpool_576.txt	LTP364	ltpFR2	2	3	SANDWICH	1232	n/a	n/a	0	0	0
791.34423828125	n/a	WORD	1620673	wordpools/wasnorm_wordpool_576.txt	LTP364	ltpFR2	2	3	SALMON	1227	n/a	n/a	0	0	0
794.09326171875	n/a	WORD	1626303	wordpools/wasnorm_wordpool_576.txt	LTP364	ltpFR2	2	3	MAMMAL	861	n/a	n/a	0	0	0
796.6259765625	n/a	WORD	1631490	wordpools/wasnorm_wordpool_576.txt	LTP364	ltpFR2	2	3	CONTRACT	368	n/a	n/a	0	0	0
799.07373046875	n/a	WORD	1636503	wordpools/wasnorm_wordpool_576.txt	LTP364	ltpFR2	2	3	ORANGE	980	n/a	n/a	0	0	0
800.69091796875	n/a	START	1639815	n/a	LTP364	ltpFR2	2	n/a	n/a	n/a	5	n/a	n/a	n/a	n/a
801.52099609375	n/a	DISTRACTOR	1641515	n/a	LTP364	ltpFR2	2	3	n/a	n/a	n/a	n/a	0	0	0
801.52294921875	n/a	PROB	1641519	n/a	LTP364	ltpFR2	2	n/a	n/a	n/a	5	6	1	4	1
803.52294921875	n/a	PROB	1645615	n/a	LTP364	ltpFR2	2	n/a	n/a	n/a	5	20	9	2	9
806.52099609375	n/a	PROB	1651755	n/a	LTP364	ltpFR2	2	n/a	n/a	n/a	5	13	3	4	5
809.0517578125	n/a	PROB	1656938	n/a	LTP364	ltpFR2	2	n/a	n/a	n/a	5	20	8	8	6
813.83447265625	n/a	PROB	1666733	n/a	LTP364	ltpFR2	2	n/a	n/a	n/a	5	14	1	4	9
817.04833984375	n/a	PROB	1673315	n/a	LTP364	ltpFR2	2	n/a	n/a	n/a	5	15	1	6	8
820.16357421875	n/a	PROB	1679695	n/a	LTP364	ltpFR2	2	n/a	n/a	n/a	5	12	1	9	2
822.4462890625	n/a	PROB	1684370	n/a	LTP364	ltpFR2	2	n/a	n/a	n/a	5	8	6	1	1
824.42822265625	n/a	STOP	1688429	n/a	LTP364	ltpFR2	2	n/a	n/a	n/a	5	n/a	n/a	n/a	n/a
826.54541015625	n/a	REC_START	1692765	n/a	LTP364	ltpFR2	2	3	n/a	n/a	n/a	n/a	0	0	0
844.6357421875	n/a	REC_WORD	1729814	wordpools/wasnorm_wordpool_576.txt	LTP364	ltpFR2	2	3	SWORD	1423	n/a	n/a	0	0	0
847.21533203125	n/a	REC_WORD	1735097	wordpools/wasnorm_wordpool_576.txt	LTP364	ltpFR2	2	3	COTTAGE	384	n/a	n/a	0	0	0
848.36962890625	n/a	REC_WORD	1737461	wordpools/wasnorm_wordpool_576.txt	LTP364	ltpFR2	2	3	SPHINX	1349	n/a	n/a	0	0	0
851.1123046875	n/a	REC_WORD	1743078	wordpools/wasnorm_wordpool_576.txt	LTP364	ltpFR2	2	3	PASTA	1021	n/a	n/a	0	0	0
857.30126953125	n/a	REC_WORD	1755753	wordpools/wasnorm_wordpool_576.txt	LTP364	ltpFR2	2	3	APRON	35	n/a	n/a	0	0	0
865.18896484375	n/a	REC_WORD	1771907	wordpools/wasnorm_wordpool_576.txt	LTP364	ltpFR2	2	3	KNIFE	785	n/a	n/a	0	0	0
866.173828125	n/a	REC_WORD	1773924	wordpools/wasnorm_wordpool_576.txt	LTP364	ltpFR2	2	3	SALMON	1227	n/a	n/a	0	0	0
867.421875	n/a	REC_WORD	1776480	wordpools/wasnorm_wordpool_576.txt	LTP364	ltpFR2	2	3	MAMMAL	861	n/a	n/a	0	0	0
868.43505859375	n/a	REC_WORD	1778555	wordpools/wasnorm_wordpool_576.txt	LTP364	ltpFR2	2	3	SANDWICH	1232	n/a	n/a	0	0	0
869.48583984375	n/a	REC_WORD	1780707	wordpools/wasnorm_wordpool_576.txt	LTP364	ltpFR2	2	3	GRILL	661	n/a	n/a	0	0	0
870.52294921875	n/a	REC_WORD	1782831	wordpools/wasnorm_wordpool_576.txt	LTP364	ltpFR2	2	3	CARROT	249	n/a	n/a	0	0	0
871.7587890625	n/a	REC_WORD	1785362	wordpools/wasnorm_wordpool_576.txt	LTP364	ltpFR2	2	3	IGLOO	734	n/a	n/a	0	0	0
876.02783203125	n/a	REC_WORD	1794105	wordpools/wasnorm_wordpool_576.txt	LTP364	ltpFR2	2	3	TRIBE	1505	n/a	n/a	0	0	0
877.1865234375	n/a	REC_WORD	1796478	wordpools/wasnorm_wordpool_576.txt	LTP364	ltpFR2	2	3	MAILMAN	858	n/a	n/a	0	0	0
878.9736328125	n/a	REC_WORD	1800138	wordpools/wasnorm_wordpool_576.txt	LTP364	ltpFR2	2	3	BIKE	125	n/a	n/a	0	0	0
879.95654296875	n/a	REC_WORD	1802151	wordpools/wasnorm_wordpool_576.txt	LTP364	ltpFR2	2	3	HELMET	702	n/a	n/a	0	0	0
882.3076171875	n/a	REC_WORD	1806966	wordpools/wasnorm_wordpool_576.txt	LTP364	ltpFR2	2	3	MARS	873	n/a	n/a	0	0	0
884.2783203125	n/a	REC_WORD	1811002	wordpools/wasnorm_wordpool_576.txt	LTP364	ltpFR2	2	3	OZONE	996	n/a	n/a	0	0	0
916.96630859375	n/a	DISTRACTOR	1877947	n/a	LTP364	ltpFR2	2	4	n/a	n/a	n/a	n/a	0	0	0
916.96630859375	n/a	START	1877947	n/a	LTP364	ltpFR2	2	n/a	n/a	n/a	6	n/a	n/a	n/a	n/a
916.9833984375	n/a	PROB	1877982	n/a	LTP364	ltpFR2	2	n/a	n/a	n/a	6	18	7	8	3
920.03125	n/a	PROB	1884224	n/a	LTP364	ltpFR2	2	n/a	n/a	n/a	6	9	2	2	5
921.765625	n/a	PROB	1887776	n/a	LTP364	ltpFR2	2	n/a	n/a	n/a	6	8	1	1	6
923.41455078125	n/a	PROB	1891153	n/a	LTP364	ltpFR2	2	n/a	n/a	n/a	6	23	6	8	9
926.3125	n/a	PROB	1897088	n/a	LTP364	ltpFR2	2	n/a	n/a	n/a	6	14	7	4	3
929.27734375	n/a	PROB	1903160	n/a	LTP364	ltpFR2	2	n/a	n/a	n/a	6	19	3	7	9
931.5439453125	n/a	PROB	1907802	n/a	LTP364	ltpFR2	2	n/a	n/a	n/a	6	8	9	1	8
933.85888671875	n/a	PROB	1912543	n/a	LTP364	ltpFR2	2	n/a	n/a	n/a	6	11	6	3	2
937.30712890625	n/a	PROB	1919605	n/a	LTP364	ltpFR2	2	n/a	n/a	n/a	6	11	3	7	1
939.708984375	n/a	STOP	1924524	n/a	LTP364	ltpFR2	2	n/a	n/a	n/a	6	n/a	n/a	n/a	n/a
941.8388671875	n/a	WORD	1928886	wordpools/wasnorm_wordpool_576.txt	LTP364	ltpFR2	2	4	GRAPE	654	n/a	n/a	0	0	0
944.31982421875	n/a	WORD	1933967	wordpools/wasnorm_wordpool_576.txt	LTP364	ltpFR2	2	4	HIKER	708	n/a	n/a	0	0	0
947.03564453125	n/a	WORD	1939529	wordpools/wasnorm_wordpool_576.txt	LTP364	ltpFR2	2	4	LACE	792	n/a	n/a	0	0	0
949.58544921875	n/a	WORD	1944751	wordpools/wasnorm_wordpool_576.txt	LTP364	ltpFR2	2	4	JELLO	754	n/a	n/a	0	0	0
952.2333984375	n/a	WORD	1950174	wordpools/wasnorm_wordpool_576.txt	LTP364	ltpFR2	2	4	CABIN	211	n/a	n/a	0	0	0
954.7822265625	n/a	WORD	1955394	wordpools/wasnorm_wordpool_576.txt	LTP364	ltpFR2	2	4	BINDER	127	n/a	n/a	0	0	0
957.58154296875	n/a	WORD	1961127	wordpools/wasnorm_wordpool_576.txt	LTP364	ltpFR2	2	4	GARLIC	624	n/a	n/a	0	0	0
960.21240234375	n/a	WORD	1966515	wordpools/wasnorm_wordpool_576.txt	LTP364	ltpFR2	2	4	PASTRY	1022	n/a	n/a	0	0	0
962.87939453125	n/a	WORD	1971977	wordpools/wasnorm_wordpool_576.txt	LTP364	ltpFR2	2	4	TRUCK	1512	n/a	n/a	0	0	0
965.6611328125	n/a	WORD	1977674	wordpools/wasnorm_wordpool_576.txt	LTP364	ltpFR2	2	4	BLUEPRINT	142	n/a	n/a	0	0	0
968.125	n/a	WORD	1982720	wordpools/wasnorm_wordpool_576.txt	LTP364	ltpFR2	2	4	AUTHOR	61	n/a	n/a	0	0	0
970.80810546875	n/a	WORD	1988215	wordpools/wasnorm_wordpool_576.txt	LTP364	ltpFR2	2	4	SPONGE	1355	n/a	n/a	0	0	0
973.255859375	n/a	WORD	1993228	wordpools/wasnorm_wordpool_576.txt	LTP364	ltpFR2	2	4	EAGLE	512	n/a	n/a	0	0	0
975.93798828125	n/a	WORD	1998721	wordpools/wasnorm_wordpool_576.txt	LTP364	ltpFR2	2	4	BARLEY	88	n/a	n/a	0	0	0
978.53759765625	n/a	WORD	2004045	wordpools/wasnorm_wordpool_576.txt	LTP364	ltpFR2	2	4	PARSLEY	1016	n/a	n/a	0	0	0
981.2685546875	n/a	WORD	2009638	wordpools/wasnorm_wordpool_576.txt	LTP364	ltpFR2	2	4	PEANUT	1032	n/a	n/a	0	0	0
983.9677734375	n/a	WORD	2015166	wordpools/wasnorm_wordpool_576.txt	LTP364	ltpFR2	2	4	PERCH	1048	n/a	n/a	0	0	0
986.650390625	n/a	WORD	2020660	wordpools/wasnorm_wordpool_576.txt	LTP364	ltpFR2	2	4	TURKEY	1520	n/a	n/a	0	0	0
989.3994140625	n/a	WORD	2026290	wordpools/wasnorm_wordpool_576.txt	LTP364	ltpFR2	2	4	ORCHID	982	n/a	n/a	0	0	0
991.96435546875	n/a	WORD	2031543	wordpools/wasnorm_wordpool_576.txt	LTP364	ltpFR2	2	4	LILY	821	n/a	n/a	0	0	0
994.68017578125	n/a	WORD	2037105	wordpools/wasnorm_wordpool_576.txt	LTP364	ltpFR2	2	4	DRAWING	494	n/a	n/a	0	0	0
997.31103515625	n/a	WORD	2042493	wordpools/wasnorm_wordpool_576.txt	LTP364	ltpFR2	2	4	RECORD	1176	n/a	n/a	0	0	0
1000.1103515625	n/a	WORD	2048226	wordpools/wasnorm_wordpool_576.txt	LTP364	ltpFR2	2	4	LODGE	839	n/a	n/a	0	0	0
1002.92529296875	n/a	WORD	2053991	wordpools/wasnorm_wordpool_576.txt	LTP364	ltpFR2	2	4	SCALLOP	1242	n/a	n/a	0	0	0
1004.5419921875	n/a	START	2057302	n/a	LTP364	ltpFR2	2	n/a	n/a	n/a	7	n/a	n/a	n/a	n/a
1005.3779296875	n/a	DISTRACTOR	2059014	n/a	LTP364	ltpFR2	2	4	n/a	n/a	n/a	n/a	0	0	0
1005.39208984375	n/a	PROB	2059043	n/a	LTP364	ltpFR2	2	n/a	n/a	n/a	7	25	8	8	9
1009.3896484375	n/a	PROB	2067230	n/a	LTP364	ltpFR2	2	n/a	n/a	n/a	7	9	1	5	2
1011.03759765625	n/a	PROB	2070605	n/a	LTP364	ltpFR2	2	n/a	n/a	n/a	7	15	7	5	3
1014.9208984375	n/a	PROB	2078558	n/a	LTP364	ltpFR2	2	n/a	n/a	n/a	7	11	1	9	1
1016.56982421875	n/a	PROB	2081935	n/a	LTP364	ltpFR2	2	n/a	n/a	n/a	7	13	3	6	4
1019.03466796875	n/a	PROB	2086983	n/a	LTP364	ltpFR2	2	n/a	n/a	n/a	7	14	6	1	7
1021.232421875	n/a	PROB	2091484	n/a	LTP364	ltpFR2	2	n/a	n/a	n/a	7	16	5	5	6
1022.650390625	n/a	PROB	2094388	n/a	LTP364	ltpFR2	2	n/a	n/a	n/a	7	9	7	1	1
1024.16552734375	n/a	PROB	2097491	n/a	LTP364	ltpFR2	2	n/a	n/a	n/a	7	8	2	2	4
1028.54052734375	n/a	STOP	2106451	n/a	LTP364	ltpFR2	2	n/a	n/a	n/a	7	n/a	n/a	n/a	n/a
1030.4462890625	n/a	REC_START	2110354	n/a	LTP364	ltpFR2	2	4	n/a	n/a	n/a	n/a	0	0	0
1033.30810546875	n/a	REC_WORD	2116215	wordpools/wasnorm_wordpool_576.txt	LTP364	ltpFR2	2	4	GRAPE	654	n/a	n/a	0	0	0
1034.97998046875	n/a	REC_WORD	2119639	wordpools/wasnorm_wordpool_576.txt	LTP364	ltpFR2	2	4	HIKER	708	n/a	n/a	0	0	0
1037.6142578125	n/a	REC_WORD	2125034	wordpools/wasnorm_wordpool_576.txt	LTP364	ltpFR2	2	4	JELLO	754	n/a	n/a	0	0	0
1039.68505859375	n/a	REC_WORD	2129275	wordpools/wasnorm_wordpool_576.txt	LTP364	ltpFR2	2	4	CABIN	211	n/a	n/a	0	0	0
1041.591796875	n/a	REC_WORD	2133180	wordpools/wasnorm_wordpool_576.txt	LTP364	ltpFR2	2	4	TRUCK	1512	n/a	n/a	0	0	0
1047.763671875	n/a	REC_WORD	2145820	wordpools/wasnorm_wordpool_576.txt	LTP364	ltpFR2	2	4	EAGLE	512	n/a	n/a	0	0	0
1050.71875	n/a	REC_WORD	2151872	wordpools/wasnorm_wordpool_576.txt	LTP364	ltpFR2	2	4	BARLEY	88	n/a	n/a	0	0	0
1052.03173828125	n/a	REC_WORD	2154561	wordpools/wasnorm_wordpool_576.txt	LTP364	ltpFR2	2	4	PARSLEY	1016	n/a	n/a	0	0	0
1053.87744140625	n/a	REC_WORD	2158341	wordpools/wasnorm_wordpool_576.txt	LTP364	ltpFR2	2	4	TURKEY	1520	n/a	n/a	0	0	0
1055.193359375	n/a	REC_WORD	2161036	wordpools/wasnorm_wordpool_576.txt	LTP364	ltpFR2	2	4	ORCHID	982	n/a	n/a	0	0	0
1056.57568359375	n/a	REC_WORD	2163867	wordpools/wasnorm_wordpool_576.txt	LTP364	ltpFR2	2	4	LILY	821	n/a	n/a	0	0	0
1058.060546875	n/a	REC_WORD	2166908	wordpools/wasnorm_wordpool_576.txt	LTP364	ltpFR2	2	4	LODGE	839	n/a	n/a	0	0	0
1060.765625	n/a	REC_WORD	2172448	wordpools/wasnorm_wordpool_576.txt	LTP364	ltpFR2	2	4	SCALLOP	1242	n/a	n/a	0	0	0
1062.08544921875	n/a	REC_WORD	2175151	wordpools/wasnorm_wordpool_576.txt	LTP364	ltpFR2	2	4	LACE	792	n/a	n/a	0	0	0
1067.66015625	n/a	REC_WORD	2186568	wordpools/wasnorm_wordpool_576.txt	LTP364	ltpFR2	2	4	PEANUT	1032	n/a	n/a	0	0	0
1088.49267578125	n/a	REC_WORD	2229233	wordpools/wasnorm_wordpool_576.txt	LTP364	ltpFR2	2	4	DRAWING	494	n/a	n/a	0	0	0
1089.5595703125	n/a	REC_WORD	2231418	wordpools/wasnorm_wordpool_576.txt	LTP364	ltpFR2	2	4	RECORD	1176	n/a	n/a	0	0	0
1094.03125	n/a	REC_WORD	2240576	wordpools/wasnorm_wordpool_576.txt	LTP364	ltpFR2	2	4	BLUEPRINT	142	n/a	n/a	0	0	0
1095.30126953125	n/a	REC_WORD	2243177	wordpools/wasnorm_wordpool_576.txt	LTP364	ltpFR2	2	4	AUTHOR	61	n/a	n/a	0	0	0
1120.8857421875	n/a	DISTRACTOR	2295574	n/a	LTP364	ltpFR2	2	5	n/a	n/a	n/a	n/a	0	0	0
1120.88671875	n/a	START	2295576	n/a	LTP364	ltpFR2	2	n/a	n/a	n/a	8	n/a	n/a	n/a	n/a
1120.90283203125	n/a	PROB	2295609	n/a	LTP364	ltpFR2	2	n/a	n/a	n/a	8	21	6	5	8
1128.1484375	n/a	PROB	2310448	n/a	LTP364	ltpFR2	2	n/a	n/a	n/a	8	9	2	3	4
1130.58154296875	n/a	PROB	2315431	n/a	LTP364	ltpFR2	2	n/a	n/a	n/a	8	12	5	3	4
1132.9130859375	n/a	PROB	2320206	n/a	LTP364	ltpFR2	2	n/a	n/a	n/a	8	19	9	1	9
1134.779296875	n/a	PROB	2324028	n/a	LTP364	ltpFR2	2	n/a	n/a	n/a	8	14	1	7	6
1136.994140625	n/a	PROB	2328564	n/a	LTP364	ltpFR2	2	n/a	n/a	n/a	8	16	3	7	6
1138.876953125	n/a	PROB	2332420	n/a	LTP364	ltpFR2	2	n/a	n/a	n/a	8	17	3	5	9
1144.884765625	n/a	STOP	2344724	n/a	LTP364	ltpFR2	2	n/a	n/a	n/a	8	n/a	n/a	n/a	n/a
1146.02294921875	n/a	WORD	2347055	wordpools/wasnorm_wordpool_576.txt	LTP364	ltpFR2	2	5	BACKBONE	66	n/a	n/a	0	0	0
1148.4560546875	n/a	WORD	2352038	wordpools/wasnorm_wordpool_576.txt	LTP364	ltpFR2	2	5	LAPEL	800	n/a	n/a	0	0	0
1151.13671875	n/a	WORD	2357528	wordpools/wasnorm_wordpool_576.txt	LTP364	ltpFR2	2	5	STAMP	1370	n/a	n/a	0	0	0
1153.90380859375	n/a	WORD	2363195	wordpools/wasnorm_wordpool_576.txt	LTP364	ltpFR2	2	5	ROBOT	1200	n/a	n/a	0	0	0
1156.70166015625	n/a	WORD	2368925	wordpools/wasnorm_wordpool_576.txt	LTP364	ltpFR2	2	5	MACHINE	852	n/a	n/a	0	0	0
1159.50048828125	n/a	WORD	2374657	wordpools/wasnorm_wordpool_576.txt	LTP364	ltpFR2	2	5	FINGER	567	n/a	n/a	0	0	0
1162.28125	n/a	WORD	2380352	wordpools/wasnorm_wordpool_576.txt	LTP364	ltpFR2	2	5	HEART	697	n/a	n/a	0	0	0
1164.83154296875	n/a	WORD	2385575	wordpools/wasnorm_wordpool_576.txt	LTP364	ltpFR2	2	5	GUARD	667	n/a	n/a	0	0	0
1167.61328125	n/a	WORD	2391272	wordpools/wasnorm_wordpool_576.txt	LTP364	ltpFR2	2	5	HOSTESS	723	n/a	n/a	0	0	0
1170.2783203125	n/a	WORD	2396730	wordpools/wasnorm_wordpool_576.txt	LTP364	ltpFR2	2	5	SADDLE	1221	n/a	n/a	0	0	0
1172.97607421875	n/a	WORD	2402255	wordpools/wasnorm_wordpool_576.txt	LTP364	ltpFR2	2	5	MARKET	871	n/a	n/a	0	0	0
1175.79296875	n/a	WORD	2408024	wordpools/wasnorm_wordpool_576.txt	LTP364	ltpFR2	2	5	BROOK	177	n/a	n/a	0	0	0
1178.4248046875	n/a	WORD	2413414	wordpools/wasnorm_wordpool_576.txt	LTP364	ltpFR2	2	5	DRESSER	496	n/a	n/a	0	0	0
1180.8740234375	n/a	WORD	2418430	wordpools/wasnorm_wordpool_576.txt	LTP364	ltpFR2	2	5	WASHER	1592	n/a	n/a	0	0	0
1183.32177734375	n/a	WORD	2423443	wordpools/wasnorm_wordpool_576.txt	LTP364	ltpFR2	2	5	CHAPEL	280	n/a	n/a	0	0	0
1185.78759765625	n/a	WORD	2428493	wordpools/wasnorm_wordpool_576.txt	LTP364	ltpFR2	2	5	MASK	876	n/a	n/a	0	0	0
1188.603515625	n/a	WORD	2434260	wordpools/wasnorm_wordpool_576.txt	LTP364	ltpFR2	2	5	AIRPLANE	12	n/a	n/a	0	0	0
1191.36767578125	n/a	WORD	2439921	wordpools/wasnorm_wordpool_576.txt	LTP364	ltpFR2	2	5	COOK	372	n/a	n/a	0	0	0
1193.884765625	n/a	WORD	2445076	wordpools/wasnorm_wordpool_576.txt	LTP364	ltpFR2	2	5	COUSIN	392	n/a	n/a	0	0	0
1196.56640625	n/a	WORD	2450568	wordpools/wasnorm_wordpool_576.txt	LTP364	ltpFR2	2	5	WAITRESS	1581	n/a	n/a	0	0	0
1199.13037109375	n/a	WORD	2455819	wordpools/wasnorm_wordpool_576.txt	LTP364	ltpFR2	2	5	NAPKIN	937	n/a	n/a	0	0	0
1201.8134765625	n/a	WORD	2461314	wordpools/wasnorm_wordpool_576.txt	LTP364	ltpFR2	2	5	TRENCH	1503	n/a	n/a	0	0	0
1204.34423828125	n/a	WORD	2466497	wordpools/wasnorm_wordpool_576.txt	LTP364	ltpFR2	2	5	STOMACH	1384	n/a	n/a	0	0	0
1207.09326171875	n/a	WORD	2472127	wordpools/wasnorm_wordpool_576.txt	LTP364	ltpFR2	2	5	PICNIC	1060	n/a	n/a	0	0	0
1208.7099609375	n/a	START	2475438	n/a	LTP364	ltpFR2	2	n/a	n/a	n/a	9	n/a	n/a	n/a	n/a
1209.7119140625	n/a	DISTRACTOR	2477490	n/a	LTP364	ltpFR2	2	5	n/a	n/a	n/a	n/a	0	0	0
1209.72607421875	n/a	PROB	2477519	n/a	LTP364	ltpFR2	2	n/a	n/a	n/a	9	16	8	7	1
1211.7421875	n/a	PROB	2481648	n/a	LTP364	ltpFR2	2	n/a	n/a	n/a	9	20	6	5	9
1216.52294921875	n/a	PROB	2491439	n/a	LTP364	ltpFR2	2	n/a	n/a	n/a	9	19	7	3	9
1218.85595703125	n/a	PROB	2496217	n/a	LTP364	ltpFR2	2	n/a	n/a	n/a	9	6	1	3	2
1220.68798828125	n/a	PROB	2499969	n/a	LTP364	ltpFR2	2	n/a	n/a	n/a	9	12	1	4	7
1223.83642578125	n/a	PROB	2506417	n/a	LTP364	ltpFR2	2	n/a	n/a	n/a	9	16	4	7	5
1232.70947265625	n/a	STOP	2524589	n/a	LTP364	ltpFR2	2	n/a	n/a	n/a	9	n/a	n/a	n/a	n/a
1234.63134765625	n/a	REC_START	2528525	n/a	LTP364	ltpFR2	2	5	n/a	n/a	n/a	n/a	0	0	0
1246.14990234375	n/a	REC_WORD	2552115	wordpools/wasnorm_wordpool_576.txt	LTP364	ltpFR2	2	5	GUARD	667	n/a	n/a	0	0	0
1249.30810546875	n/a	REC_WORD	2558583	wordpools/wasnorm_wordpool_576.txt	LTP364	ltpFR2	2	5	MISTRESS	-1	n/a	n/a	0	0	0
1250.1708984375	n/a	REC_WORD	2560350	wordpools/wasnorm_wordpool_576.txt	LTP364	ltpFR2	2	5	HEART	697	n/a	n/a	0	0	0
1253.95654296875	n/a	REC_WORD	2568103	wordpools/wasnorm_wordpool_576.txt	LTP364	ltpFR2	2	5	SADDLE	1221	n/a	n/a	0	0	0
1255.94287109375	n/a	REC_WORD	2572171	wordpools/wasnorm_wordpool_576.txt	LTP364	ltpFR2	2	5	BROOK	177	n/a	n/a	0	0	0
1257.12451171875	n/a	REC_WORD	2574591	wordpools/wasnorm_wordpool_576.txt	LTP364	ltpFR2	2	5	DRESSER	496	n/a	n/a	0	0	0
1258.31982421875	n/a	REC_WORD	2577039	wordpools/wasnorm_wordpool_576.txt	LTP364	ltpFR2	2	5	WASHER	1592	n/a	n/a	0	0	0
1260.0166015625	n/a	REC_WORD	2580514	wordpools/wasnorm_wordpool_576.txt	LTP364	ltpFR2	2	5	COOK	372	n/a	n/a	0	0	0
1261.931640625	n/a	REC_WORD	2584436	wordpools/wasnorm_wordpool_576.txt	LTP364	ltpFR2	2	5	WAITRESS	1581	n/a	n/a	0	0	0
1325.0869140625	n/a	WORD	2713778	wordpools/wasnorm_wordpool_576.txt	LTP364	ltpFR2	2	6	SNAIL	1332	n/a	n/a	0	0	0
1327.83642578125	n/a	WORD	2719409	wordpools/wasnorm_wordpool_576.txt	LTP364	ltpFR2	2	6	PAIL	1002	n/a	n/a	0	0	0
1330.267578125	n/a	WORD	2724388	wordpools/wasnorm_wordpool_576.txt	LTP364	ltpFR2	2	6	SWAMP	1416	n/a	n/a	0	0	0
1332.86767578125	n/a	WORD	2729713	wordpools/wasnorm_wordpool_576.txt	LTP364	ltpFR2	2	6	BUTCHER	203	n/a	n/a	0	0	0
1335.66552734375	n/a	WORD	2735443	wordpools/wasnorm_wordpool_576.txt	LTP364	ltpFR2	2	6	VAGRANT	1544	n/a	n/a	0	0	0
1338.146484375	n/a	WORD	2740524	wordpools/wasnorm_wordpool_576.txt	LTP364	ltpFR2	2	6	FOOT	590	n/a	n/a	0	0	0
1340.63037109375	n/a	WORD	2745611	wordpools/wasnorm_wordpool_576.txt	LTP364	ltpFR2	2	6	BEEF	113	n/a	n/a	0	0	0
1343.39501953125	n/a	WORD	2751273	wordpools/wasnorm_wordpool_576.txt	LTP364	ltpFR2	2	6	SURVEY	1414	n/a	n/a	0	0	0
1346.076171875	n/a	WORD	2756764	wordpools/wasnorm_wordpool_576.txt	LTP364	ltpFR2	2	6	HEADBAND	696	n/a	n/a	0	0	0
1348.80908203125	n/a	WORD	2762361	wordpools/wasnorm_wordpool_576.txt	LTP364	ltpFR2	2	6	WRIST	1626	n/a	n/a	0	0	0
1351.5078125	n/a	WORD	2767888	wordpools/wasnorm_wordpool_576.txt	LTP364	ltpFR2	2	6	LASER	801	n/a	n/a	0	0	0
1354.23876953125	n/a	WORD	2773481	wordpools/wasnorm_wordpool_576.txt	LTP364	ltpFR2	2	6	FLASHLIGHT	575	n/a	n/a	0	0	0
1356.87158203125	n/a	WORD	2778873	wordpools/wasnorm_wordpool_576.txt	LTP364	ltpFR2	2	6	ASIA	46	n/a	n/a	0	0	0
1359.40380859375	n/a	WORD	2784059	wordpools/wasnorm_wordpool_576.txt	LTP364	ltpFR2	2	6	RIFLE	1192	n/a	n/a	0	0	0
1362.03564453125	n/a	WORD	2789449	wordpools/wasnorm_wordpool_576.txt	LTP364	ltpFR2	2	6	THIEF	1456	n/a	n/a	0	0	0
1364.78466796875	n/a	WORD	2795079	wordpools/wasnorm_wordpool_576.txt	LTP364	ltpFR2	2	6	PRINCE	1124	n/a	n/a	0	0	0
1367.46728515625	n/a	WORD	2800573	wordpools/wasnorm_wordpool_576.txt	LTP364	ltpFR2	2	6	SKETCH	1315	n/a	n/a	0	0	0
1369.99853515625	n/a	WORD	2805757	wordpools/wasnorm_wordpool_576.txt	LTP364	ltpFR2	2	6	STICKER	1382	n/a	n/a	0	0	0
1372.76416015625	n/a	WORD	2811421	wordpools/wasnorm_wordpool_576.txt	LTP364	ltpFR2	2	6	GIRL	637	n/a	n/a	0	0	0
1375.5302734375	n/a	WORD	2817086	wordpools/wasnorm_wordpool_576.txt	LTP364	ltpFR2	2	6	VALVE	1546	n/a	n/a	0	0	0
1378.31103515625	n/a	WORD	2822781	wordpools/wasnorm_wordpool_576.txt	LTP364	ltpFR2	2	6	SUNRISE	1407	n/a	n/a	0	0	0
1381.04296875	n/a	WORD	2828376	wordpools/wasnorm_wordpool_576.txt	LTP364	ltpFR2	2	6	ACTRESS	6	n/a	n/a	0	0	0
1383.55908203125	n/a	WORD	2833529	wordpools/wasnorm_wordpool_576.txt	LTP364	ltpFR2	2	6	THRONE	1461	n/a	n/a	0	0	0
1386.33984375	n/a	WORD	2839224	wordpools/wasnorm_wordpool_576.txt	LTP364	ltpFR2	2	6	HAND	683	n/a	n/a	0	0	0
1387.9560546875	n/a	START	2842534	n/a	LTP364	ltpFR2	2	n/a	n/a	n/a	10	n/a	n/a	n/a	n/a
1388.8837890625	n/a	DISTRACTOR	2844434	n/a	LTP364	ltpFR2	2	6	n/a	n/a	n/a	n/a	0	0	0
1388.8896484375	n/a	PROB	2844446	n/a	LTP364	ltpFR2	2	n/a	n/a	n/a	10	14	2	9	3
1392.27099609375	n/a	PROB	2851371	n/a	LTP364	ltpFR2	2	n/a	n/a	n/a	10	13	3	7	3
1394.40380859375	n/a	PROB	2855739	n/a	LTP364	ltpFR2	2	n/a	n/a	n/a	10	11	1	6	4
1396.935546875	n/a	PROB	2860924	n/a	LTP364	ltpFR2	2	n/a	n/a	n/a	10	15	3	7	5
1399.9833984375	n/a	PROB	2867166	n/a	LTP364	ltpFR2	2	n/a	n/a	n/a	10	15	3	6	6
1402.29931640625	n/a	PROB	2871909	n/a	LTP364	ltpFR2	2	n/a	n/a	n/a	10	7	5	1	1
1404.13134765625	n/a	PROB	2875661	n/a	LTP364	ltpFR2	2	n/a	n/a	n/a	10	8	1	5	2
1407.49755859375	n/a	PROB	2882555	n/a	LTP364	ltpFR2	2	n/a	n/a	n/a	10	16	2	7	7
1410.85302734375	n/a	STOP	2889427	n/a	LTP364	ltpFR2	2	n/a	n/a	n/a	10	n/a	n/a	n/a	n/a
1413.8779296875	n/a	REC_START	2895622	n/a	LTP364	ltpFR2	2	6	n/a	n/a	n/a	n/a	0	0	0
1416.02685546875	n/a	REC_WORD	2900023	wordpools/wasnorm_wordpool_576.txt	LTP364	ltpFR2	2	6	SNAIL	1332	n/a	n/a	0	0	0
1417.5068359375	n/a	REC_WORD	2903054	wordpools/wasnorm_wordpool_576.txt	LTP364	ltpFR2	2	6	PAIL	1002	n/a	n/a	0	0	0
1419.05712890625	n/a	REC_WORD	2906229	wordpools/wasnorm_wordpool_576.txt	LTP364	ltpFR2	2	6	SWAMP	1416	n/a	n/a	0	0	0
1420.671875	n/a	REC_WORD	2909536	wordpools/wasnorm_wordpool_576.txt	LTP364	ltpFR2	2	6	BUTCHER	203	n/a	n/a	0	0	0
1431.7333984375	n/a	REC_WORD	2932190	wordpools/wasnorm_wordpool_576.txt	LTP364	ltpFR2	2	6	FOOT	590	n/a	n/a	0	0	0
1435.79833984375	n/a	REC_WORD	2940515	wordpools/wasnorm_wordpool_576.txt	LTP364	ltpFR2	2	6	VAGRANT	1544	n/a	n/a	0	0	0
1439.29052734375	n/a	REC_WORD	2947667	wordpools/wasnorm_wordpool_576.txt	LTP364	ltpFR2	2	6	MEAT	883	n/a	n/a	0	0	0
1443.1044921875	n/a	REC_WORD	2955478	wordpools/wasnorm_wordpool_576.txt	LTP364	ltpFR2	2	6	PRINCE	1124	n/a	n/a	0	0	0
1444.91943359375	n/a	REC_WORD	2959195	wordpools/wasnorm_wordpool_576.txt	LTP364	ltpFR2	2	6	STAMP	1370	n/a	n/a	0	0	0
1446.83935546875	n/a	REC_WORD	2963127	wordpools/wasnorm_wordpool_576.txt	LTP364	ltpFR2	2	6	STICKER	1382	n/a	n/a	0	0	0
1448.404296875	n/a	REC_WORD	2966332	wordpools/wasnorm_wordpool_576.txt	LTP364	ltpFR2	2	6	GIRL	637	n/a	n/a	0	0	0
1450.35498046875	n/a	REC_WORD	2970327	wordpools/wasnorm_wordpool_576.txt	LTP364	ltpFR2	2	6	SUNRISE	1407	n/a	n/a	0	0	0
1452.18994140625	n/a	REC_WORD	2974085	wordpools/wasnorm_wordpool_576.txt	LTP364	ltpFR2	2	6	ACTRESS	6	n/a	n/a	0	0	0
1453.72509765625	n/a	REC_WORD	2977229	wordpools/wasnorm_wordpool_576.txt	LTP364	ltpFR2	2	6	THRONE	1461	n/a	n/a	0	0	0
1504.33349609375	n/a	WORD	3080875	wordpools/wasnorm_wordpool_576.txt	LTP364	ltpFR2	2	7	COFFEE	341	n/a	n/a	0	0	0
1507.08251953125	n/a	WORD	3086505	wordpools/wasnorm_wordpool_576.txt	LTP364	ltpFR2	2	7	CRITIC	410	n/a	n/a	0	0	0
1509.88134765625	n/a	WORD	3092237	wordpools/wasnorm_wordpool_576.txt	LTP364	ltpFR2	2	7	HOOD	714	n/a	n/a	0	0	0
1512.3291015625	n/a	WORD	3097250	wordpools/wasnorm_wordpool_576.txt	LTP364	ltpFR2	2	7	MOTEL	919	n/a	n/a	0	0	0
1515.01123046875	n/a	WORD	3102743	wordpools/wasnorm_wordpool_576.txt	LTP364	ltpFR2	2	7	DORM	488	n/a	n/a	0	0	0
1517.76123046875	n/a	WORD	3108375	wordpools/wasnorm_wordpool_576.txt	LTP364	ltpFR2	2	7	SIBLING	1301	n/a	n/a	0	0	0
1520.19189453125	n/a	WORD	3113353	wordpools/wasnorm_wordpool_576.txt	LTP364	ltpFR2	2	7	SHIRT	1287	n/a	n/a	0	0	0
1522.625	n/a	WORD	3118336	wordpools/wasnorm_wordpool_576.txt	LTP364	ltpFR2	2	7	WINDOW	1611	n/a	n/a	0	0	0
1525.35693359375	n/a	WORD	3123931	wordpools/wasnorm_wordpool_576.txt	LTP364	ltpFR2	2	7	CURTAIN	427	n/a	n/a	0	0	0
1527.7900390625	n/a	WORD	3128914	wordpools/wasnorm_wordpool_576.txt	LTP364	ltpFR2	2	7	SUSPECT	1415	n/a	n/a	0	0	0
1530.388671875	n/a	WORD	3134236	wordpools/wasnorm_wordpool_576.txt	LTP364	ltpFR2	2	7	PARENT	1013	n/a	n/a	0	0	0
1532.87060546875	n/a	WORD	3139319	wordpools/wasnorm_wordpool_576.txt	LTP364	ltpFR2	2	7	IDOL	733	n/a	n/a	0	0	0
1535.33447265625	n/a	WORD	3144365	wordpools/wasnorm_wordpool_576.txt	LTP364	ltpFR2	2	7	LOFT	840	n/a	n/a	0	0	0
1537.83447265625	n/a	WORD	3149485	wordpools/wasnorm_wordpool_576.txt	LTP364	ltpFR2	2	7	SCISSORS	1250	n/a	n/a	0	0	0
1540.33251953125	n/a	WORD	3154601	wordpools/wasnorm_wordpool_576.txt	LTP364	ltpFR2	2	7	DIVER	476	n/a	n/a	0	0	0
1542.8154296875	n/a	WORD	3159686	wordpools/wasnorm_wordpool_576.txt	LTP364	ltpFR2	2	7	BATHTUB	100	n/a	n/a	0	0	0
1545.29736328125	n/a	WORD	3164769	wordpools/wasnorm_wordpool_576.txt	LTP364	ltpFR2	2	7	COSTUME	383	n/a	n/a	0	0	0
1548.09521484375	n/a	WORD	3170499	wordpools/wasnorm_wordpool_576.txt	LTP364	ltpFR2	2	7	BLOUSE	139	n/a	n/a	0	0	0
1550.59521484375	n/a	WORD	3175619	wordpools/wasnorm_wordpool_576.txt	LTP364	ltpFR2	2	7	SHARK	1275	n/a	n/a	0	0	0
1553.39404296875	n/a	WORD	3181351	wordpools/wasnorm_wordpool_576.txt	LTP364	ltpFR2	2	7	CHURCH	307	n/a	n/a	0	0	0
1555.9248046875	n/a	WORD	3186534	wordpools/wasnorm_wordpool_576.txt	LTP364	ltpFR2	2	7	APRON	35	n/a	n/a	0	0	0
1558.74072265625	n/a	WORD	3192301	wordpools/wasnorm_wordpool_576.txt	LTP364	ltpFR2	2	7	CASHEW	253	n/a	n/a	0	0	0
1561.5400390625	n/a	WORD	3198034	wordpools/wasnorm_wordpool_576.txt	LTP364	ltpFR2	2	7	EMPIRE	530	n/a	n/a	0	0	0
1564.1376953125	n/a	WORD	3203354	wordpools/wasnorm_wordpool_576.txt	LTP364	ltpFR2	2	7	JAPAN	749	n/a	n/a	0	0	0
1565.7548828125	n/a	START	3206666	n/a	LTP364	ltpFR2	2	n/a	n/a	n/a	11	n/a	n/a	n/a	n/a
1566.8359375	n/a	DISTRACTOR	3208880	n/a	LTP364	ltpFR2	2	7	n/a	n/a	n/a	n/a	0	0	0
1566.837890625	n/a	PROB	3208884	n/a	LTP364	ltpFR2	2	n/a	n/a	n/a	11	11	2	4	5
1569.61962890625	n/a	PROB	3214581	n/a	LTP364	ltpFR2	2	n/a	n/a	n/a	11	23	8	6	9
1572.5185546875	n/a	PROB	3220518	n/a	LTP364	ltpFR2	2	n/a	n/a	n/a	11	18	6	4	8
1574.08251953125	n/a	PROB	3223721	n/a	LTP364	ltpFR2	2	n/a	n/a	n/a	11	9	7	1	1
1576.49951171875	n/a	PROB	3228671	n/a	LTP364	ltpFR2	2	n/a	n/a	n/a	11	10	6	2	2
1578.98046875	n/a	PROB	3233752	n/a	LTP364	ltpFR2	2	n/a	n/a	n/a	11	20	6	5	9
1589.75390625	n/a	STOP	3255816	n/a	LTP364	ltpFR2	2	n/a	n/a	n/a	11	n/a	n/a	n/a	n/a
1591.5087890625	n/a	REC_START	3259410	n/a	LTP364	ltpFR2	2	7	n/a	n/a	n/a	n/a	0	0	0
1594.8759765625	n/a	REC_WORD	3266306	wordpools/wasnorm_wordpool_576.txt	LTP364	ltpFR2	2	7	COFFEE	341	n/a	n/a	0	0	0
1596.255859375	n/a	REC_WORD	3269132	wordpools/wasnorm_wordpool_576.txt	LTP364	ltpFR2	2	7	CRITIC	410	n/a	n/a	0	0	0
1602.41845703125	n/a	REC_WORD	3281753	wordpools/wasnorm_wordpool_576.txt	LTP364	ltpFR2	2	7	MOTEL	919	n/a	n/a	0	0	0
1610.13232421875	n/a	REC_WORD	3297551	wordpools/wasnorm_wordpool_576.txt	LTP364	ltpFR2	2	7	BROTHER	179	n/a	n/a	0	0	0
1613.603515625	n/a	REC_WORD	3304660	wordpools/wasnorm_wordpool_576.txt	LTP364	ltpFR2	2	7	SHIRT	1287	n/a	n/a	0	0	0
1617.41015625	n/a	REC_WORD	3312456	wordpools/wasnorm_wordpool_576.txt	LTP364	ltpFR2	2	7	SUSPECT	1415	n/a	n/a	0	0	0
1618.76123046875	n/a	REC_WORD	3315223	wordpools/wasnorm_wordpool_576.txt	LTP364	ltpFR2	2	7	WINDOW	1611	n/a	n/a	0	0	0
1619.94921875	n/a	REC_WORD	3317656	wordpools/wasnorm_wordpool_576.txt	LTP364	ltpFR2	2	7	CURTAIN	427	n/a	n/a	0	0	0
1621.8232421875	n/a	REC_WORD	3321494	wordpools/wasnorm_wordpool_576.txt	LTP364	ltpFR2	2	7	SCISSORS	1250	n/a	n/a	0	0	0
1623.0751953125	n/a	REC_WORD	3324058	wordpools/wasnorm_wordpool_576.txt	LTP364	ltpFR2	2	7	TUB	1514	n/a	n/a	0	0	0
1624.31103515625	n/a	REC_WORD	3326589	wordpools/wasnorm_wordpool_576.txt	LTP364	ltpFR2	2	7	SHARK	1275	n/a	n/a	0	0	0
1626.0068359375	n/a	REC_WORD	3330062	wordpools/wasnorm_wordpool_576.txt	LTP364	ltpFR2	2	7	BLOUSE	139	n/a	n/a	0	0	0
1627.7529296875	n/a	REC_WORD	3333638	wordpools/wasnorm_wordpool_576.txt	LTP364	ltpFR2	2	7	PARENT	1013	n/a	n/a	0	0	0
1629.06005859375	n/a	REC_WORD	3336315	wordpools/wasnorm_wordpool_576.txt	LTP364	ltpFR2	2	7	IDOL	733	n/a	n/a	0	0	0
1631.19384765625	n/a	REC_WORD	3340685	wordpools/wasnorm_wordpool_576.txt	LTP364	ltpFR2	2	7	CHURCH	307	n/a	n/a	0	0	0
1681.947265625	n/a	DISTRACTOR	3444628	n/a	LTP364	ltpFR2	2	8	n/a	n/a	n/a	n/a	0	0	0
1681.947265625	n/a	START	3444628	n/a	LTP364	ltpFR2	2	n/a	n/a	n/a	12	n/a	n/a	n/a	n/a
1681.96435546875	n/a	PROB	3444663	n/a	LTP364	ltpFR2	2	n/a	n/a	n/a	12	10	3	6	1
1684.63037109375	n/a	PROB	3450123	n/a	LTP364	ltpFR2	2	n/a	n/a	n/a	12	17	8	7	2
1686.79638671875	n/a	PROB	3454559	n/a	LTP364	ltpFR2	2	n/a	n/a	n/a	12	12	1	4	7
1690.72802734375	n/a	PROB	3462611	n/a	LTP364	ltpFR2	2	n/a	n/a	n/a	12	25	8	9	8
1694.64208984375	n/a	PROB	3470627	n/a	LTP364	ltpFR2	2	n/a	n/a	n/a	12	13	7	1	5
1705.94580078125	n/a	STOP	3493777	n/a	LTP364	ltpFR2	2	n/a	n/a	n/a	12	n/a	n/a	n/a	n/a
1706.8037109375	n/a	WORD	3495534	wordpools/wasnorm_wordpool_576.txt	LTP364	ltpFR2	2	8	BACON	67	n/a	n/a	0	0	0
1709.45166015625	n/a	WORD	3500957	wordpools/wasnorm_wordpool_576.txt	LTP364	ltpFR2	2	8	SLUG	1329	n/a	n/a	0	0	0
1712.232421875	n/a	WORD	3506652	wordpools/wasnorm_wordpool_576.txt	LTP364	ltpFR2	2	8	SCULPTURE	1258	n/a	n/a	0	0	0
1714.71630859375	n/a	WORD	3511739	wordpools/wasnorm_wordpool_576.txt	LTP364	ltpFR2	2	8	JELLY	755	n/a	n/a	0	0	0
1717.23046875	n/a	WORD	3516888	wordpools/wasnorm_wordpool_576.txt	LTP364	ltpFR2	2	8	OUTFIT	988	n/a	n/a	0	0	0
1719.96240234375	n/a	WORD	3522483	wordpools/wasnorm_wordpool_576.txt	LTP364	ltpFR2	2	8	SUPPER	1411	n/a	n/a	0	0	0
1722.67919921875	n/a	WORD	3528047	wordpools/wasnorm_wordpool_576.txt	LTP364	ltpFR2	2	8	COOKBOOK	373	n/a	n/a	0	0	0
1725.26025390625	n/a	WORD	3533333	wordpools/wasnorm_wordpool_576.txt	LTP364	ltpFR2	2	8	TURNIP	1521	n/a	n/a	0	0	0
1727.826171875	n/a	WORD	3538588	wordpools/wasnorm_wordpool_576.txt	LTP364	ltpFR2	2	8	BEAKER	104	n/a	n/a	0	0	0
1730.5751953125	n/a	WORD	3544218	wordpools/wasnorm_wordpool_576.txt	LTP364	ltpFR2	2	8	SHORTCAKE	1292	n/a	n/a	0	0	0
1733.22265625	n/a	WORD	3549640	wordpools/wasnorm_wordpool_576.txt	LTP364	ltpFR2	2	8	HIGHWAY	707	n/a	n/a	0	0	0
1736.0048828125	n/a	WORD	3555338	wordpools/wasnorm_wordpool_576.txt	LTP364	ltpFR2	2	8	POCKET	1093	n/a	n/a	0	0	0
1738.5048828125	n/a	WORD	3560458	wordpools/wasnorm_wordpool_576.txt	LTP364	ltpFR2	2	8	JEANS	752	n/a	n/a	0	0	0
1741.06884765625	n/a	WORD	3565709	wordpools/wasnorm_wordpool_576.txt	LTP364	ltpFR2	2	8	PIANO	1057	n/a	n/a	0	0	0
1743.5185546875	n/a	WORD	3570726	wordpools/wasnorm_wordpool_576.txt	LTP364	ltpFR2	2	8	FRUIT	610	n/a	n/a	0	0	0
1746.00048828125	n/a	WORD	3575809	wordpools/wasnorm_wordpool_576.txt	LTP364	ltpFR2	2	8	TORTOISE	1486	n/a	n/a	0	0	0
1748.7666015625	n/a	WORD	3581474	wordpools/wasnorm_wordpool_576.txt	LTP364	ltpFR2	2	8	DIME	466	n/a	n/a	0	0	0
1751.34716796875	n/a	WORD	3586759	wordpools/wasnorm_wordpool_576.txt	LTP364	ltpFR2	2	8	TRANSPLANT	1496	n/a	n/a	0	0	0
1753.9462890625	n/a	WORD	3592082	wordpools/wasnorm_wordpool_576.txt	LTP364	ltpFR2	2	8	FREEZER	604	n/a	n/a	0	0	0
1756.6123046875	n/a	WORD	3597542	wordpools/wasnorm_wordpool_576.txt	LTP364	ltpFR2	2	8	BANQUET	86	n/a	n/a	0	0	0
1759.3779296875	n/a	WORD	3603206	wordpools/wasnorm_wordpool_576.txt	LTP364	ltpFR2	2	8	XEROX	1628	n/a	n/a	0	0	0
1762.00927734375	n/a	WORD	3608595	wordpools/wasnorm_wordpool_576.txt	LTP364	ltpFR2	2	8	FIDDLE	561	n/a	n/a	0	0	0
1764.55908203125	n/a	WORD	3613817	wordpools/wasnorm_wordpool_576.txt	LTP364	ltpFR2	2	8	KIDNEY	776	n/a	n/a	0	0	0
1767.22265625	n/a	WORD	3619272	wordpools/wasnorm_wordpool_576.txt	LTP364	ltpFR2	2	8	BANK	83	n/a	n/a	0	0	0
1768.83984375	n/a	START	3622584	n/a	LTP364	ltpFR2	2	n/a	n/a	n/a	13	n/a	n/a	n/a	n/a
1769.89697265625	n/a	DISTRACTOR	3624749	n/a	LTP364	ltpFR2	2	8	n/a	n/a	n/a	n/a	0	0	0
1769.90478515625	n/a	PROB	3624765	n/a	LTP364	ltpFR2	2	n/a	n/a	n/a	13	14	5	2	7
1772.837890625	n/a	PROB	3630772	n/a	LTP364	ltpFR2	2	n/a	n/a	n/a	13	17	7	8	2
1775.01953125	n/a	PROB	3635240	n/a	LTP364	ltpFR2	2	n/a	n/a	n/a	13	13	2	8	3
1777.134765625	n/a	PROB	3639572	n/a	LTP364	ltpFR2	2	n/a	n/a	n/a	13	11	8	2	1
1779.28369140625	n/a	PROB	3643973	n/a	LTP364	ltpFR2	2	n/a	n/a	n/a	13	14	3	6	5
1782.58349609375	n/a	PROB	3650731	n/a	LTP364	ltpFR2	2	n/a	n/a	n/a	13	18	6	6	6
1784.83251953125	n/a	PROB	3655337	n/a	LTP364	ltpFR2	2	n/a	n/a	n/a	13	19	3	9	7
1788.59716796875	n/a	PROB	3663047	n/a	LTP364	ltpFR2	2	n/a	n/a	n/a	13	14	2	8	4
1792.83837890625	n/a	STOP	3671733	n/a	LTP364	ltpFR2	2	n/a	n/a	n/a	13	n/a	n/a	n/a	n/a
1794.7109375	n/a	REC_START	3675568	n/a	LTP364	ltpFR2	2	8	n/a	n/a	n/a	n/a	0	0	0
1803.28662109375	n/a	REC_WORD	3693131	wordpools/wasnorm_wordpool_576.txt	LTP364	ltpFR2	2	8	SNAIL	1332	n/a	n/a	0	0	0
1805.3505859375	n/a	REC_WORD	3697358	wordpools/wasnorm_wordpool_576.txt	LTP364	ltpFR2	2	8	BACON	67	n/a	n/a	0	0	0
1809.41357421875	n/a	REC_WORD	3705679	wordpools/wasnorm_wordpool_576.txt	LTP364	ltpFR2	2	8	JELLY	755	n/a	n/a	0	0	0
1815.92431640625	n/a	REC_WORD	3719013	wordpools/wasnorm_wordpool_576.txt	LTP364	ltpFR2	2	8	SUPPER	1411	n/a	n/a	0	0	0
1821.62548828125	n/a	REC_WORD	3730689	wordpools/wasnorm_wordpool_576.txt	LTP364	ltpFR2	2	8	SKIRT	1319	n/a	n/a	0	0	0
1824.236328125	n/a	REC_WORD	3736036	wordpools/wasnorm_wordpool_576.txt	LTP364	ltpFR2	2	8	COOKBOOK	373	n/a	n/a	0	0	0
1826.01513671875	n/a	REC_WORD	3739679	wordpools/wasnorm_wordpool_576.txt	LTP364	ltpFR2	2	8	BEAKER	104	n/a	n/a	0	0	0
1827.328125	n/a	REC_WORD	3742368	wordpools/wasnorm_wordpool_576.txt	LTP364	ltpFR2	2	8	TURNIP	1521	n/a	n/a	0	0	0
1830.43603515625	n/a	REC_WORD	3748733	wordpools/wasnorm_wordpool_576.txt	LTP364	ltpFR2	2	8	HIGHWAY	707	n/a	n/a	0	0	0
1832.05419921875	n/a	REC_WORD	3752047	wordpools/wasnorm_wordpool_576.txt	LTP364	ltpFR2	2	8	POCKET	1093	n/a	n/a	0	0	0
1833.56982421875	n/a	REC_WORD	3755151	wordpools/wasnorm_wordpool_576.txt	LTP364	ltpFR2	2	8	JEANS	752	n/a	n/a	0	0	0
1835.23291015625	n/a	REC_WORD	3758557	wordpools/wasnorm_wordpool_576.txt	LTP364	ltpFR2	2	8	PIANO	1057	n/a	n/a	0	0	0
1838.6748046875	n/a	REC_WORD	3765606	wordpools/wasnorm_wordpool_576.txt	LTP364	ltpFR2	2	8	TORTOISE	1486	n/a	n/a	0	0	0
1871.255859375	n/a	REST_REWET	3832332	n/a	LTP364	ltpFR2	2	8	n/a	n/a	n/a	n/a	0	0	0
2051.15283203125	n/a	WORD	4200761	wordpools/wasnorm_wordpool_576.txt	LTP364	ltpFR2	2	9	NURSE	963	n/a	n/a	0	0	0
2053.9677734375	n/a	WORD	4206526	wordpools/wasnorm_wordpool_576.txt	LTP364	ltpFR2	2	9	BASEMENT	94	n/a	n/a	0	0	0
2056.484375	n/a	WORD	4211680	wordpools/wasnorm_wordpool_576.txt	LTP364	ltpFR2	2	9	WORKER	1621	n/a	n/a	0	0	0
2059.0322265625	n/a	WORD	4216898	wordpools/wasnorm_wordpool_576.txt	LTP364	ltpFR2	2	9	OFFICE	972	n/a	n/a	0	0	0
2061.51513671875	n/a	WORD	4221983	wordpools/wasnorm_wordpool_576.txt	LTP364	ltpFR2	2	9	FLAG	573	n/a	n/a	0	0	0
2063.98046875	n/a	WORD	4227032	wordpools/wasnorm_wordpool_576.txt	LTP364	ltpFR2	2	9	BEAVER	109	n/a	n/a	0	0	0
2066.71337890625	n/a	WORD	4232629	wordpools/wasnorm_wordpool_576.txt	LTP364	ltpFR2	2	9	SCRIBBLE	1256	n/a	n/a	0	0	0
2069.4951171875	n/a	WORD	4238326	wordpools/wasnorm_wordpool_576.txt	LTP364	ltpFR2	2	9	CLAMP	316	n/a	n/a	0	0	0
2072.14306640625	n/a	WORD	4243749	wordpools/wasnorm_wordpool_576.txt	LTP364	ltpFR2	2	9	FLUTE	585	n/a	n/a	0	0	0
2074.591796875	n/a	WORD	4248764	wordpools/wasnorm_wordpool_576.txt	LTP364	ltpFR2	2	9	HUMAN	726	n/a	n/a	0	0	0
2077.14013671875	n/a	WORD	4253983	wordpools/wasnorm_wordpool_576.txt	LTP364	ltpFR2	2	9	POSSUM	1112	n/a	n/a	0	0	0
2079.8896484375	n/a	WORD	4259614	wordpools/wasnorm_wordpool_576.txt	LTP364	ltpFR2	2	9	MUFFIN	929	n/a	n/a	0	0	0
2082.32080078125	n/a	WORD	4264593	wordpools/wasnorm_wordpool_576.txt	LTP364	ltpFR2	2	9	FLIPPER	580	n/a	n/a	0	0	0
2084.7705078125	n/a	WORD	4269610	wordpools/wasnorm_wordpool_576.txt	LTP364	ltpFR2	2	9	PERFUME	1049	n/a	n/a	0	0	0
2087.33544921875	n/a	WORD	4274863	wordpools/wasnorm_wordpool_576.txt	LTP364	ltpFR2	2	9	EYELASH	546	n/a	n/a	0	0	0
2090.0673828125	n/a	WORD	4280458	wordpools/wasnorm_wordpool_576.txt	LTP364	ltpFR2	2	9	BUCKET	184	n/a	n/a	0	0	0
2092.68359375	n/a	WORD	4285816	wordpools/wasnorm_wordpool_576.txt	LTP364	ltpFR2	2	9	FRECKLE	602	n/a	n/a	0	0	0
2095.4326171875	n/a	WORD	4291446	wordpools/wasnorm_wordpool_576.txt	LTP364	ltpFR2	2	9	RAZOR	1171	n/a	n/a	0	0	0
2098.09619140625	n/a	WORD	4296901	wordpools/wasnorm_wordpool_576.txt	LTP364	ltpFR2	2	9	ROCKET	1202	n/a	n/a	0	0	0
2100.76318359375	n/a	WORD	4302363	wordpools/wasnorm_wordpool_576.txt	LTP364	ltpFR2	2	9	BISON	131	n/a	n/a	0	0	0
2103.4619140625	n/a	WORD	4307890	wordpools/wasnorm_wordpool_576.txt	LTP364	ltpFR2	2	9	CREATURE	403	n/a	n/a	0	0	0
2106.208984375	n/a	WORD	4313516	wordpools/wasnorm_wordpool_576.txt	LTP364	ltpFR2	2	9	CELLAR	267	n/a	n/a	0	0	0
2108.77587890625	n/a	WORD	4318773	wordpools/wasnorm_wordpool_576.txt	LTP364	ltpFR2	2	9	OINTMENT	974	n/a	n/a	0	0	0
2111.55810546875	n/a	WORD	4324471	wordpools/wasnorm_wordpool_576.txt	LTP364	ltpFR2	2	9	MEDAL	885	n/a	n/a	0	0	0
2113.1728515625	n/a	START	4327778	n/a	LTP364	ltpFR2	2	n/a	n/a	n/a	14	n/a	n/a	n/a	n/a
2114.07568359375	n/a	DISTRACTOR	4329627	n/a	LTP364	ltpFR2	2	9	n/a	n/a	n/a	n/a	0	0	0
2114.0888671875	n/a	PROB	4329654	n/a	LTP364	ltpFR2	2	n/a	n/a	n/a	14	22	5	9	8
2120.1025390625	n/a	PROB	4341970	n/a	LTP364	ltpFR2	2	n/a	n/a	n/a	14	13	6	5	2
2124.78466796875	n/a	PROB	4351559	n/a	LTP364	ltpFR2	2	n/a	n/a	n/a	14	21	9	4	8
2130.49853515625	n/a	PROB	4363261	n/a	LTP364	ltpFR2	2	n/a	n/a	n/a	14	12	5	3	4
2134.76318359375	n/a	PROB	4371995	n/a	LTP364	ltpFR2	2	n/a	n/a	n/a	14	10	2	5	3
2136.822265625	n/a	STOP	4376212	n/a	LTP364	ltpFR2	2	n/a	n/a	n/a	14	n/a	n/a	n/a	n/a
2138.97705078125	n/a	REC_START	4380625	n/a	LTP364	ltpFR2	2	9	n/a	n/a	n/a	n/a	0	0	0
2141.93701171875	n/a	REC_WORD	4386687	wordpools/wasnorm_wordpool_576.txt	LTP364	ltpFR2	2	9	NURSE	963	n/a	n/a	0	0	0
2144.97705078125	n/a	REC_WORD	4392913	wordpools/wasnorm_wordpool_576.txt	LTP364	ltpFR2	2	9	BASEMENT	94	n/a	n/a	0	0	0
2157.0654296875	n/a	REC_WORD	4417670	wordpools/wasnorm_wordpool_576.txt	LTP364	ltpFR2	2	9	BEAVER	109	n/a	n/a	0	0	0
2158.57958984375	n/a	REC_WORD	4420771	wordpools/wasnorm_wordpool_576.txt	LTP364	ltpFR2	2	9	BUCKET	184	n/a	n/a	0	0	0
2160.11865234375	n/a	REC_WORD	4423923	wordpools/wasnorm_wordpool_576.txt	LTP364	ltpFR2	2	9	FRECKLE	602	n/a	n/a	0	0	0
2162.48046875	n/a	REC_WORD	4428760	wordpools/wasnorm_wordpool_576.txt	LTP364	ltpFR2	2	9	POSSUM	1112	n/a	n/a	0	0	0
2164.4462890625	n/a	REC_WORD	4432786	wordpools/wasnorm_wordpool_576.txt	LTP364	ltpFR2	2	9	FLIPPER	580	n/a	n/a	0	0	0
2166.986328125	n/a	REC_WORD	4437988	wordpools/wasnorm_wordpool_576.txt	LTP364	ltpFR2	2	9	EYELASH	546	n/a	n/a	0	0	0
2168.947265625	n/a	REC_WORD	4442004	wordpools/wasnorm_wordpool_576.txt	LTP364	ltpFR2	2	9	MAN	862	n/a	n/a	0	0	0
2173.16015625	n/a	REC_WORD	4450632	wordpools/wasnorm_wordpool_576.txt	LTP364	ltpFR2	2	9	RAZOR	1171	n/a	n/a	0	0	0
2174.72314453125	n/a	REC_WORD	4453833	wordpools/wasnorm_wordpool_576.txt	LTP364	ltpFR2	2	9	BISON	131	n/a	n/a	0	0	0
2178.65673828125	n/a	REC_WORD	4461889	wordpools/wasnorm_wordpool_576.txt	LTP364	ltpFR2	2	9	CREATURE	403	n/a	n/a	0	0	0
2183.65576171875	n/a	REC_WORD	4472127	wordpools/wasnorm_wordpool_576.txt	LTP364	ltpFR2	2	9	CELLAR	267	n/a	n/a	0	0	0
2187.65966796875	n/a	REC_WORD	4480327	wordpools/wasnorm_wordpool_576.txt	LTP364	ltpFR2	2	9	CLAMP	316	n/a	n/a	0	0	0
2190.51953125	n/a	REC_WORD	4486184	wordpools/wasnorm_wordpool_576.txt	LTP364	ltpFR2	2	9	OINTMENT	974	n/a	n/a	0	0	0
2193.29248046875	n/a	REC_WORD	4491863	wordpools/wasnorm_wordpool_576.txt	LTP364	ltpFR2	2	9	MEDAL	885	n/a	n/a	0	0	0
2204.451171875	n/a	REC_WORD	4514716	wordpools/wasnorm_wordpool_576.txt	LTP364	ltpFR2	2	9	TEACHER	1440	n/a	n/a	0	0	0
2205.84619140625	n/a	REC_WORD	4517573	wordpools/wasnorm_wordpool_576.txt	LTP364	ltpFR2	2	9	OFFICE	972	n/a	n/a	0	0	0
2229.41748046875	n/a	WORD	4565847	wordpools/wasnorm_wordpool_576.txt	LTP364	ltpFR2	2	10	HARP	689	n/a	n/a	0	0	0
2231.88330078125	n/a	WORD	4570897	wordpools/wasnorm_wordpool_576.txt	LTP364	ltpFR2	2	10	CRATER	400	n/a	n/a	0	0	0
2234.3984375	n/a	WORD	4576048	wordpools/wasnorm_wordpool_576.txt	LTP364	ltpFR2	2	10	SEAFOOD	1260	n/a	n/a	0	0	0
2237.0791015625	n/a	WORD	4581538	wordpools/wasnorm_wordpool_576.txt	LTP364	ltpFR2	2	10	RUST	1219	n/a	n/a	0	0	0
2239.81201171875	n/a	WORD	4587135	wordpools/wasnorm_wordpool_576.txt	LTP364	ltpFR2	2	10	TABLE	1426	n/a	n/a	0	0	0
2242.51123046875	n/a	WORD	4592663	wordpools/wasnorm_wordpool_576.txt	LTP364	ltpFR2	2	10	SAUSAGE	1238	n/a	n/a	0	0	0
2245.25927734375	n/a	WORD	4598291	wordpools/wasnorm_wordpool_576.txt	LTP364	ltpFR2	2	10	VENUS	1557	n/a	n/a	0	0	0
2248.02392578125	n/a	WORD	4603953	wordpools/wasnorm_wordpool_576.txt	LTP364	ltpFR2	2	10	KEEPER	769	n/a	n/a	0	0	0
2250.57373046875	n/a	WORD	4609175	wordpools/wasnorm_wordpool_576.txt	LTP364	ltpFR2	2	10	CEILING	265	n/a	n/a	0	0	0
2253.07177734375	n/a	WORD	4614291	wordpools/wasnorm_wordpool_576.txt	LTP364	ltpFR2	2	10	MOP	916	n/a	n/a	0	0	0
2255.62158203125	n/a	WORD	4619513	wordpools/wasnorm_wordpool_576.txt	LTP364	ltpFR2	2	10	TILE	1468	n/a	n/a	0	0	0
2258.15283203125	n/a	WORD	4624697	wordpools/wasnorm_wordpool_576.txt	LTP364	ltpFR2	2	10	HATCHET	691	n/a	n/a	0	0	0
2260.75244140625	n/a	WORD	4630021	wordpools/wasnorm_wordpool_576.txt	LTP364	ltpFR2	2	10	LEOPARD	812	n/a	n/a	0	0	0
2263.3515625	n/a	WORD	4635344	wordpools/wasnorm_wordpool_576.txt	LTP364	ltpFR2	2	10	RADISH	1158	n/a	n/a	0	0	0
2265.91552734375	n/a	WORD	4640595	wordpools/wasnorm_wordpool_576.txt	LTP364	ltpFR2	2	10	BURGLAR	200	n/a	n/a	0	0	0
2268.63134765625	n/a	WORD	4646157	wordpools/wasnorm_wordpool_576.txt	LTP364	ltpFR2	2	10	PORK	1108	n/a	n/a	0	0	0
2271.24609375	n/a	WORD	4651512	wordpools/wasnorm_wordpool_576.txt	LTP364	ltpFR2	2	10	MARKER	870	n/a	n/a	0	0	0
2274.01123046875	n/a	WORD	4657175	wordpools/wasnorm_wordpool_576.txt	LTP364	ltpFR2	2	10	COUCH	386	n/a	n/a	0	0	0
2276.47802734375	n/a	WORD	4662227	wordpools/wasnorm_wordpool_576.txt	LTP364	ltpFR2	2	10	SPOOL	1356	n/a	n/a	0	0	0
2279.19189453125	n/a	WORD	4667785	wordpools/wasnorm_wordpool_576.txt	LTP364	ltpFR2	2	10	ZEBRA	1635	n/a	n/a	0	0	0
2282.0078125	n/a	WORD	4673552	wordpools/wasnorm_wordpool_576.txt	LTP364	ltpFR2	2	10	CONVICT	371	n/a	n/a	0	0	0
2284.55810546875	n/a	WORD	4678775	wordpools/wasnorm_wordpool_576.txt	LTP364	ltpFR2	2	10	CAPTIVE	240	n/a	n/a	0	0	0
2287.12158203125	n/a	WORD	4684025	wordpools/wasnorm_wordpool_576.txt	LTP364	ltpFR2	2	10	FOREHEAD	592	n/a	n/a	0	0	0
2289.62158203125	n/a	WORD	4689145	wordpools/wasnorm_wordpool_576.txt	LTP364	ltpFR2	2	10	FLESH	579	n/a	n/a	0	0	0
2291.23681640625	n/a	START	4692453	n/a	LTP364	ltpFR2	2	n/a	n/a	n/a	15	n/a	n/a	n/a	n/a
2292.27783203125	n/a	DISTRACTOR	4694585	n/a	LTP364	ltpFR2	2	10	n/a	n/a	n/a	n/a	0	0	0
2292.28564453125	n/a	PROB	4694601	n/a	LTP364	ltpFR2	2	n/a	n/a	n/a	15	17	9	3	5
2295.33447265625	n/a	PROB	4700845	n/a	LTP364	ltpFR2	2	n/a	n/a	n/a	15	13	3	7	3
2298.11669921875	n/a	PROB	4706543	n/a	LTP364	ltpFR2	2	n/a	n/a	n/a	15	12	6	1	5
2301.265625	n/a	PROB	4712992	n/a	LTP364	ltpFR2	2	n/a	n/a	n/a	15	16	5	5	6
2303.4482421875	n/a	PROB	4717462	n/a	LTP364	ltpFR2	2	n/a	n/a	n/a	15	24	9	7	6
2306.92919921875	n/a	PROB	4724591	n/a	LTP364	ltpFR2	2	n/a	n/a	n/a	15	13	5	7	1
2310.01123046875	n/a	PROB	4730903	n/a	LTP364	ltpFR2	2	n/a	n/a	n/a	15	15	7	4	4
2315.23583984375	n/a	STOP	4741603	n/a	LTP364	ltpFR2	2	n/a	n/a	n/a	15	n/a	n/a	n/a	n/a
2317.125	n/a	REC_START	4745472	n/a	LTP364	ltpFR2	2	10	n/a	n/a	n/a	n/a	0	0	0
2329.890625	n/a	REC_WORD	4771616	wordpools/wasnorm_wordpool_576.txt	LTP364	ltpFR2	2	10	FIDDLE	561	n/a	n/a	0	0	0
2331.79052734375	n/a	REC_WORD	4775507	wordpools/wasnorm_wordpool_576.txt	LTP364	ltpFR2	2	10	CRATER	400	n/a	n/a	0	0	0
2334.37939453125	n/a	REC_WORD	4780809	wordpools/wasnorm_wordpool_576.txt	LTP364	ltpFR2	2	10	RUST	1219	n/a	n/a	0	0	0
2336.2333984375	n/a	REC_WORD	4784606	wordpools/wasnorm_wordpool_576.txt	LTP364	ltpFR2	2	10	TABLE	1426	n/a	n/a	0	0	0
2340.05615234375	n/a	REC_WORD	4792435	wordpools/wasnorm_wordpool_576.txt	LTP364	ltpFR2	2	10	VENUS	1557	n/a	n/a	0	0	0
2343.52001953125	n/a	REC_WORD	4799529	wordpools/wasnorm_wordpool_576.txt	LTP364	ltpFR2	2	10	TURNIP	1521	n/a	n/a	0	0	0
2348.1142578125	n/a	REC_WORD	4808938	wordpools/wasnorm_wordpool_576.txt	LTP364	ltpFR2	2	10	ZEBRA	1635	n/a	n/a	0	0	0
2352.31884765625	n/a	REC_WORD	4817549	wordpools/wasnorm_wordpool_576.txt	LTP364	ltpFR2	2	10	SCRIBBLE	1256	n/a	n/a	0	0	0
2354.1240234375	n/a	REC_WORD	4821246	wordpools/wasnorm_wordpool_576.txt	LTP364	ltpFR2	2	10	COUCH	386	n/a	n/a	0	0	0
2358.2978515625	n/a	REC_WORD	4829794	wordpools/wasnorm_wordpool_576.txt	LTP364	ltpFR2	2	10	CONVICT	371	n/a	n/a	0	0	0
2360.94970703125	n/a	REC_WORD	4835225	wordpools/wasnorm_wordpool_576.txt	LTP364	ltpFR2	2	10	PRISONER	1128	n/a	n/a	0	0	0
2407.564453125	n/a	WORD	4930692	wordpools/wasnorm_wordpool_576.txt	LTP364	ltpFR2	2	11	PATIENT	1024	n/a	n/a	0	0	0
2410.34619140625	n/a	WORD	4936389	wordpools/wasnorm_wordpool_576.txt	LTP364	ltpFR2	2	11	VIRUS	1572	n/a	n/a	0	0	0
2412.89404296875	n/a	WORD	4941607	wordpools/wasnorm_wordpool_576.txt	LTP364	ltpFR2	2	11	VIKING	1565	n/a	n/a	0	0	0
2415.34423828125	n/a	WORD	4946625	wordpools/wasnorm_wordpool_576.txt	LTP364	ltpFR2	2	11	COMET	353	n/a	n/a	0	0	0
2417.9248046875	n/a	WORD	4951910	wordpools/wasnorm_wordpool_576.txt	LTP364	ltpFR2	2	11	POSTAGE	1113	n/a	n/a	0	0	0
2420.4248046875	n/a	WORD	4957030	wordpools/wasnorm_wordpool_576.txt	LTP364	ltpFR2	2	11	MESSAGE	888	n/a	n/a	0	0	0
2423.18896484375	n/a	WORD	4962691	wordpools/wasnorm_wordpool_576.txt	LTP364	ltpFR2	2	11	CLOCK	325	n/a	n/a	0	0	0
2425.73876953125	n/a	WORD	4967913	wordpools/wasnorm_wordpool_576.txt	LTP364	ltpFR2	2	11	OX	994	n/a	n/a	0	0	0
2428.3544921875	n/a	WORD	4973270	wordpools/wasnorm_wordpool_576.txt	LTP364	ltpFR2	2	11	SIDEWALK	1303	n/a	n/a	0	0	0
2430.935546875	n/a	WORD	4978556	wordpools/wasnorm_wordpool_576.txt	LTP364	ltpFR2	2	11	KNAPSACK	783	n/a	n/a	0	0	0
2433.50146484375	n/a	WORD	4983811	wordpools/wasnorm_wordpool_576.txt	LTP364	ltpFR2	2	11	STREAM	1392	n/a	n/a	0	0	0
2436.1494140625	n/a	WORD	4989234	wordpools/wasnorm_wordpool_576.txt	LTP364	ltpFR2	2	11	SALT	1229	n/a	n/a	0	0	0
2438.91552734375	n/a	WORD	4994899	wordpools/wasnorm_wordpool_576.txt	LTP364	ltpFR2	2	11	SALAD	1224	n/a	n/a	0	0	0
2441.46435546875	n/a	WORD	5000119	wordpools/wasnorm_wordpool_576.txt	LTP364	ltpFR2	2	11	BADGE	68	n/a	n/a	0	0	0
2444.2451171875	n/a	WORD	5005814	wordpools/wasnorm_wordpool_576.txt	LTP364	ltpFR2	2	11	POLICE	1098	n/a	n/a	0	0	0
2447.01123046875	n/a	WORD	5011479	wordpools/wasnorm_wordpool_576.txt	LTP364	ltpFR2	2	11	QUEEN	1149	n/a	n/a	0	0	0
2449.77734375	n/a	WORD	5017144	wordpools/wasnorm_wordpool_576.txt	LTP364	ltpFR2	2	11	SPOON	1357	n/a	n/a	0	0	0
2452.54296875	n/a	WORD	5022808	wordpools/wasnorm_wordpool_576.txt	LTP364	ltpFR2	2	11	TWIG	1527	n/a	n/a	0	0	0
2455.07373046875	n/a	WORD	5027991	wordpools/wasnorm_wordpool_576.txt	LTP364	ltpFR2	2	11	FARMER	553	n/a	n/a	0	0	0
2457.888671875	n/a	WORD	5033756	wordpools/wasnorm_wordpool_576.txt	LTP364	ltpFR2	2	11	BARREL	91	n/a	n/a	0	0	0
2460.37158203125	n/a	WORD	5038841	wordpools/wasnorm_wordpool_576.txt	LTP364	ltpFR2	2	11	EXPERT	543	n/a	n/a	0	0	0
2463.0537109375	n/a	WORD	5044334	wordpools/wasnorm_wordpool_576.txt	LTP364	ltpFR2	2	11	CABBAGE	210	n/a	n/a	0	0	0
2465.802734375	n/a	WORD	5049964	wordpools/wasnorm_wordpool_576.txt	LTP364	ltpFR2	2	11	BLENDER	136	n/a	n/a	0	0	0
2468.30078125	n/a	WORD	5055080	wordpools/wasnorm_wordpool_576.txt	LTP364	ltpFR2	2	11	STAR	1373	n/a	n/a	0	0	0
2469.91650390625	n/a	START	5058389	n/a	LTP364	ltpFR2	2	n/a	n/a	n/a	16	n/a	n/a	n/a	n/a
2470.8447265625	n/a	DISTRACTOR	5060290	n/a	LTP364	ltpFR2	2	11	n/a	n/a	n/a	n/a	0	0	0
2470.8505859375	n/a	PROB	5060302	n/a	LTP364	ltpFR2	2	n/a	n/a	n/a	16	10	4	5	1
2472.88232421875	n/a	PROB	5064463	n/a	LTP364	ltpFR2	2	n/a	n/a	n/a	16	14	5	1	8
2475.79833984375	n/a	PROB	5070435	n/a	LTP364	ltpFR2	2	n/a	n/a	n/a	16	23	8	8	7
2481.6953125	n/a	PROB	5082512	n/a	LTP364	ltpFR2	2	n/a	n/a	n/a	16	24	8	6	8
2493.916015625	n/a	STOP	5107540	n/a	LTP364	ltpFR2	2	n/a	n/a	n/a	16	n/a	n/a	n/a	n/a
2495.77197265625	n/a	REC_START	5111341	n/a	LTP364	ltpFR2	2	11	n/a	n/a	n/a	n/a	0	0	0
2497.86962890625	n/a	REC_WORD	5115637	wordpools/wasnorm_wordpool_576.txt	LTP364	ltpFR2	2	11	PATIENT	1024	n/a	n/a	0	0	0
2499.56787109375	n/a	REC_WORD	5119115	wordpools/wasnorm_wordpool_576.txt	LTP364	ltpFR2	2	11	VIRUS	1572	n/a	n/a	0	0	0
2507.8125	n/a	REC_WORD	5136000	wordpools/wasnorm_wordpool_576.txt	LTP364	ltpFR2	2	11	COMET	353	n/a	n/a	0	0	0
2509.4765625	n/a	REC_WORD	5139408	wordpools/wasnorm_wordpool_576.txt	LTP364	ltpFR2	2	11	OX	994	n/a	n/a	0	0	0
2511.25341796875	n/a	REC_WORD	5143047	wordpools/wasnorm_wordpool_576.txt	LTP364	ltpFR2	2	11	POSTAGE	1113	n/a	n/a	0	0	0
2512.9443359375	n/a	REC_WORD	5146510	wordpools/wasnorm_wordpool_576.txt	LTP364	ltpFR2	2	11	MESSAGE	888	n/a	n/a	0	0	0
2516.89892578125	n/a	REC_WORD	5154609	wordpools/wasnorm_wordpool_576.txt	LTP364	ltpFR2	2	11	SIDEWALK	1303	n/a	n/a	0	0	0
2518.59619140625	n/a	REC_WORD	5158085	wordpools/wasnorm_wordpool_576.txt	LTP364	ltpFR2	2	11	KNAPSACK	783	n/a	n/a	0	0	0
2520.02587890625	n/a	REC_WORD	5161013	wordpools/wasnorm_wordpool_576.txt	LTP364	ltpFR2	2	11	STREAM	1392	n/a	n/a	0	0	0
2524.4609375	n/a	REC_WORD	5170096	wordpools/wasnorm_wordpool_576.txt	LTP364	ltpFR2	2	11	FARMER	553	n/a	n/a	0	0	0
2526.49169921875	n/a	REC_WORD	5174255	wordpools/wasnorm_wordpool_576.txt	LTP364	ltpFR2	2	11	OX	994	n/a	n/a	0	0	0
2529.46875	n/a	REC_WORD	5180352	wordpools/wasnorm_wordpool_576.txt	LTP364	ltpFR2	2	11	CABBAGE	210	n/a	n/a	0	0	0
2530.83984375	n/a	REC_WORD	5183160	wordpools/wasnorm_wordpool_576.txt	LTP364	ltpFR2	2	11	BARREL	91	n/a	n/a	0	0	0
2532.74267578125	n/a	REC_WORD	5187057	wordpools/wasnorm_wordpool_576.txt	LTP364	ltpFR2	2	11	EXPERT	543	n/a	n/a	0	0	0
2534.78173828125	n/a	REC_WORD	5191233	wordpools/wasnorm_wordpool_576.txt	LTP364	ltpFR2	2	11	QUEEN	1149	n/a	n/a	0	0	0
2536.0595703125	n/a	REC_WORD	5193850	wordpools/wasnorm_wordpool_576.txt	LTP364	ltpFR2	2	11	BADGE	68	n/a	n/a	0	0	0
2537.142578125	n/a	REC_WORD	5196068	wordpools/wasnorm_wordpool_576.txt	LTP364	ltpFR2	2	11	POLICE	1098	n/a	n/a	0	0	0
2555.0859375	n/a	REC_WORD	5232816	wordpools/wasnorm_wordpool_576.txt	LTP364	ltpFR2	2	11	STICK	-1	n/a	n/a	0	0	0
2556.67919921875	n/a	REC_WORD	5236079	wordpools/wasnorm_wordpool_576.txt	LTP364	ltpFR2	2	11	FOREST	593	n/a	n/a	0	0	0
2586.2099609375	n/a	DISTRACTOR	5296558	n/a	LTP364	ltpFR2	2	12	n/a	n/a	n/a	n/a	0	0	0
2586.2099609375	n/a	START	5296558	n/a	LTP364	ltpFR2	2	n/a	n/a	n/a	17	n/a	n/a	n/a	n/a
2586.22705078125	n/a	PROB	5296593	n/a	LTP364	ltpFR2	2	n/a	n/a	n/a	17	19	1	9	9
2588.51025390625	n/a	PROB	5301269	n/a	LTP364	ltpFR2	2	n/a	n/a	n/a	17	21	8	5	8
2592.5419921875	n/a	PROB	5309526	n/a	LTP364	ltpFR2	2	n/a	n/a	n/a	17	11	1	7	3
2594.52392578125	n/a	PROB	5313585	n/a	LTP364	ltpFR2	2	n/a	n/a	n/a	17	15	2	6	7
2599.27099609375	n/a	PROB	5323307	n/a	LTP364	ltpFR2	2	n/a	n/a	n/a	17	21	7	8	6
2603.48681640625	n/a	PROB	5331941	n/a	LTP364	ltpFR2	2	n/a	n/a	n/a	17	23	6	9	8
2610.20849609375	n/a	STOP	5345707	n/a	LTP364	ltpFR2	2	n/a	n/a	n/a	17	n/a	n/a	n/a	n/a
2611.29833984375	n/a	WORD	5347939	wordpools/wasnorm_wordpool_576.txt	LTP364	ltpFR2	2	12	HAWK	692	n/a	n/a	0	0	0
2613.84716796875	n/a	WORD	5353159	wordpools/wasnorm_wordpool_576.txt	LTP364	ltpFR2	2	12	UNCLE	1536	n/a	n/a	0	0	0
2616.43017578125	n/a	WORD	5358449	wordpools/wasnorm_wordpool_576.txt	LTP364	ltpFR2	2	12	MILK	895	n/a	n/a	0	0	0
2618.96142578125	n/a	WORD	5363633	wordpools/wasnorm_wordpool_576.txt	LTP364	ltpFR2	2	12	HEDGE	699	n/a	n/a	0	0	0
2621.4609375	n/a	WORD	5368752	wordpools/wasnorm_wordpool_576.txt	LTP364	ltpFR2	2	12	CHILD	299	n/a	n/a	0	0	0
2624.208984375	n/a	WORD	5374380	wordpools/wasnorm_wordpool_576.txt	LTP364	ltpFR2	2	12	CRIB	407	n/a	n/a	0	0	0
2627.02392578125	n/a	WORD	5380145	wordpools/wasnorm_wordpool_576.txt	LTP364	ltpFR2	2	12	FLASK	576	n/a	n/a	0	0	0
2629.45703125	n/a	WORD	5385128	wordpools/wasnorm_wordpool_576.txt	LTP364	ltpFR2	2	12	CYCLONE	431	n/a	n/a	0	0	0
2631.95458984375	n/a	WORD	5390243	wordpools/wasnorm_wordpool_576.txt	LTP364	ltpFR2	2	12	PATROL	1027	n/a	n/a	0	0	0
2634.45458984375	n/a	WORD	5395363	wordpools/wasnorm_wordpool_576.txt	LTP364	ltpFR2	2	12	GOBLIN	645	n/a	n/a	0	0	0
2637.00244140625	n/a	WORD	5400581	wordpools/wasnorm_wordpool_576.txt	LTP364	ltpFR2	2	12	SLIME	1327	n/a	n/a	0	0	0
2639.56884765625	n/a	WORD	5405837	wordpools/wasnorm_wordpool_576.txt	LTP364	ltpFR2	2	12	CHIPMUNK	304	n/a	n/a	0	0	0
2642.16650390625	n/a	WORD	5411157	wordpools/wasnorm_wordpool_576.txt	LTP364	ltpFR2	2	12	BEAST	108	n/a	n/a	0	0	0
2644.8984375	n/a	WORD	5416752	wordpools/wasnorm_wordpool_576.txt	LTP364	ltpFR2	2	12	SERVANT	1271	n/a	n/a	0	0	0
2647.3984375	n/a	WORD	5421872	wordpools/wasnorm_wordpool_576.txt	LTP364	ltpFR2	2	12	LAGOON	795	n/a	n/a	0	0	0
2650.029296875	n/a	WORD	5427260	wordpools/wasnorm_wordpool_576.txt	LTP364	ltpFR2	2	12	BOX	159	n/a	n/a	0	0	0
2652.779296875	n/a	WORD	5432892	wordpools/wasnorm_wordpool_576.txt	LTP364	ltpFR2	2	12	PACKAGE	997	n/a	n/a	0	0	0
2655.2431640625	n/a	WORD	5437938	wordpools/wasnorm_wordpool_576.txt	LTP364	ltpFR2	2	12	SEAGULL	1261	n/a	n/a	0	0	0
2657.84326171875	n/a	WORD	5443263	wordpools/wasnorm_wordpool_576.txt	LTP364	ltpFR2	2	12	WIFE	1609	n/a	n/a	0	0	0
2660.625	n/a	WORD	5448960	wordpools/wasnorm_wordpool_576.txt	LTP364	ltpFR2	2	12	STUDENT	1395	n/a	n/a	0	0	0
2663.15576171875	n/a	WORD	5454143	wordpools/wasnorm_wordpool_576.txt	LTP364	ltpFR2	2	12	PLAZA	1088	n/a	n/a	0	0	0
2665.623046875	n/a	WORD	5459196	wordpools/wasnorm_wordpool_576.txt	LTP364	ltpFR2	2	12	JUNGLE	764	n/a	n/a	0	0	0
2668.0869140625	n/a	WORD	5464242	wordpools/wasnorm_wordpool_576.txt	LTP364	ltpFR2	2	12	GUITAR	670	n/a	n/a	0	0	0
2670.8369140625	n/a	WORD	5469874	wordpools/wasnorm_wordpool_576.txt	LTP364	ltpFR2	2	12	OYSTER	995	n/a	n/a	0	0	0
2672.45263671875	n/a	START	5473183	n/a	LTP364	ltpFR2	2	n/a	n/a	n/a	18	n/a	n/a	n/a	n/a
2673.3037109375	n/a	DISTRACTOR	5474926	n/a	LTP364	ltpFR2	2	12	n/a	n/a	n/a	n/a	0	0	0
2673.3173828125	n/a	PROB	5474954	n/a	LTP364	ltpFR2	2	n/a	n/a	n/a	18	14	4	5	5
2675.58447265625	n/a	PROB	5479597	n/a	LTP364	ltpFR2	2	n/a	n/a	n/a	18	11	1	6	4
2678.19970703125	n/a	PROB	5484953	n/a	LTP364	ltpFR2	2	n/a	n/a	n/a	18	9	4	4	1
2682.46435546875	n/a	PROB	5493687	n/a	LTP364	ltpFR2	2	n/a	n/a	n/a	18	14	5	2	7
2684.9951171875	n/a	PROB	5498870	n/a	LTP364	ltpFR2	2	n/a	n/a	n/a	18	12	8	3	1
2687.72900390625	n/a	PROB	5504469	n/a	LTP364	ltpFR2	2	n/a	n/a	n/a	18	24	6	9	9
2696.4521484375	n/a	STOP	5522334	n/a	LTP364	ltpFR2	2	n/a	n/a	n/a	18	n/a	n/a	n/a	n/a
2698.27294921875	n/a	REC_START	5526063	n/a	LTP364	ltpFR2	2	12	n/a	n/a	n/a	n/a	0	0	0
2700.69775390625	n/a	REC_WORD	5531029	wordpools/wasnorm_wordpool_576.txt	LTP364	ltpFR2	2	12	HAWK	692	n/a	n/a	0	0	0
2702.02099609375	n/a	REC_WORD	5533739	wordpools/wasnorm_wordpool_576.txt	LTP364	ltpFR2	2	12	UNCLE	1536	n/a	n/a	0	0	0
2706.98046875	n/a	REC_WORD	5543896	wordpools/wasnorm_wordpool_576.txt	LTP364	ltpFR2	2	12	MILK	895	n/a	n/a	0	0	0
2709.8447265625	n/a	REC_WORD	5549762	wordpools/wasnorm_wordpool_576.txt	LTP364	ltpFR2	2	12	HEDGE	699	n/a	n/a	0	0	0
2711.24462890625	n/a	REC_WORD	5552629	wordpools/wasnorm_wordpool_576.txt	LTP364	ltpFR2	2	12	CHIPMUNK	304	n/a	n/a	0	0	0
2713.13134765625	n/a	REC_WORD	5556493	wordpools/wasnorm_wordpool_576.txt	LTP364	ltpFR2	2	12	MONSTER	912	n/a	n/a	0	0	0
2715.50146484375	n/a	REC_WORD	5561347	wordpools/wasnorm_wordpool_576.txt	LTP364	ltpFR2	2	12	SERVANT	1271	n/a	n/a	0	0	0
2717.05419921875	n/a	REC_WORD	5564527	wordpools/wasnorm_wordpool_576.txt	LTP364	ltpFR2	2	12	CRIB	407	n/a	n/a	0	0	0
2720.9140625	n/a	REC_WORD	5572432	wordpools/wasnorm_wordpool_576.txt	LTP364	ltpFR2	2	12	FLASK	576	n/a	n/a	0	0	0
2722.25732421875	n/a	REC_WORD	5575183	wordpools/wasnorm_wordpool_576.txt	LTP364	ltpFR2	2	12	CYCLONE	431	n/a	n/a	0	0	0
2738.7705078125	n/a	REC_WORD	5609002	wordpools/wasnorm_wordpool_576.txt	LTP364	ltpFR2	2	12	BOX	159	n/a	n/a	0	0	0
2739.765625	n/a	REC_WORD	5611040	wordpools/wasnorm_wordpool_576.txt	LTP364	ltpFR2	2	12	PACKAGE	997	n/a	n/a	0	0	0
2740.86474609375	n/a	REC_WORD	5613291	wordpools/wasnorm_wordpool_576.txt	LTP364	ltpFR2	2	12	SEAGULL	1261	n/a	n/a	0	0	0
2742.6005859375	n/a	REC_WORD	5616846	wordpools/wasnorm_wordpool_576.txt	LTP364	ltpFR2	2	12	WIFE	1609	n/a	n/a	0	0	0
2744.4775390625	n/a	REC_WORD	5620690	wordpools/wasnorm_wordpool_576.txt	LTP364	ltpFR2	2	12	PLAZA	1088	n/a	n/a	0	0	0
2745.71337890625	n/a	REC_WORD	5623221	wordpools/wasnorm_wordpool_576.txt	LTP364	ltpFR2	2	12	JUNGLE	764	n/a	n/a	0	0	0
2747.80224609375	n/a	REC_WORD	5627499	wordpools/wasnorm_wordpool_576.txt	LTP364	ltpFR2	2	12	GUITAR	670	n/a	n/a	0	0	0
2749.1083984375	n/a	REC_WORD	5630174	wordpools/wasnorm_wordpool_576.txt	LTP364	ltpFR2	2	12	OYSTER	995	n/a	n/a	0	0	0
2757.51123046875	n/a	REC_WORD	5647383	wordpools/wasnorm_wordpool_576.txt	LTP364	ltpFR2	2	12	CHILD	299	n/a	n/a	0	0	0
2788.71337890625	n/a	WORD	5711285	wordpools/wasnorm_wordpool_576.txt	LTP364	ltpFR2	2	13	ANKLE	24	n/a	n/a	0	0	0
2791.14404296875	n/a	WORD	5716263	wordpools/wasnorm_wordpool_576.txt	LTP364	ltpFR2	2	13	PAPER	1011	n/a	n/a	0	0	0
2793.626953125	n/a	WORD	5721348	wordpools/wasnorm_wordpool_576.txt	LTP364	ltpFR2	2	13	NOTEBOOK	959	n/a	n/a	0	0	0
2796.19189453125	n/a	WORD	5726601	wordpools/wasnorm_wordpool_576.txt	LTP364	ltpFR2	2	13	BOYFRIEND	162	n/a	n/a	0	0	0
2798.8251953125	n/a	WORD	5731994	wordpools/wasnorm_wordpool_576.txt	LTP364	ltpFR2	2	13	FEMALE	559	n/a	n/a	0	0	0
2801.3408203125	n/a	WORD	5737146	wordpools/wasnorm_wordpool_576.txt	LTP364	ltpFR2	2	13	TREAT	1501	n/a	n/a	0	0	0
2804.10498046875	n/a	WORD	5742807	wordpools/wasnorm_wordpool_576.txt	LTP364	ltpFR2	2	13	BOARD	143	n/a	n/a	0	0	0
2806.53759765625	n/a	WORD	5747789	wordpools/wasnorm_wordpool_576.txt	LTP364	ltpFR2	2	13	DUSTPAN	509	n/a	n/a	0	0	0
2809.1025390625	n/a	WORD	5753042	wordpools/wasnorm_wordpool_576.txt	LTP364	ltpFR2	2	13	DUST	508	n/a	n/a	0	0	0
2811.56884765625	n/a	WORD	5758093	wordpools/wasnorm_wordpool_576.txt	LTP364	ltpFR2	2	13	DOUGHNUT	490	n/a	n/a	0	0	0
2814.2333984375	n/a	WORD	5763550	wordpools/wasnorm_wordpool_576.txt	LTP364	ltpFR2	2	13	GARBAGE	622	n/a	n/a	0	0	0
2816.8984375	n/a	WORD	5769008	wordpools/wasnorm_wordpool_576.txt	LTP364	ltpFR2	2	13	ROBBER	1197	n/a	n/a	0	0	0
2819.58154296875	n/a	WORD	5774503	wordpools/wasnorm_wordpool_576.txt	LTP364	ltpFR2	2	13	ELBOW	520	n/a	n/a	0	0	0
2822.21240234375	n/a	WORD	5779891	wordpools/wasnorm_wordpool_576.txt	LTP364	ltpFR2	2	13	SHOVEL	1295	n/a	n/a	0	0	0
2824.8623046875	n/a	WORD	5785318	wordpools/wasnorm_wordpool_576.txt	LTP364	ltpFR2	2	13	GIFT	635	n/a	n/a	0	0	0
2827.328125	n/a	WORD	5790368	wordpools/wasnorm_wordpool_576.txt	LTP364	ltpFR2	2	13	ATLAS	53	n/a	n/a	0	0	0
2830.0419921875	n/a	WORD	5795926	wordpools/wasnorm_wordpool_576.txt	LTP364	ltpFR2	2	13	PARTNER	1017	n/a	n/a	0	0	0
2832.85888671875	n/a	WORD	5801695	wordpools/wasnorm_wordpool_576.txt	LTP364	ltpFR2	2	13	CANDY	230	n/a	n/a	0	0	0
2835.52392578125	n/a	WORD	5807153	wordpools/wasnorm_wordpool_576.txt	LTP364	ltpFR2	2	13	VICTIM	1562	n/a	n/a	0	0	0
2838.2548828125	n/a	WORD	5812746	wordpools/wasnorm_wordpool_576.txt	LTP364	ltpFR2	2	13	WORLD	1622	n/a	n/a	0	0	0
2840.85498046875	n/a	WORD	5818071	wordpools/wasnorm_wordpool_576.txt	LTP364	ltpFR2	2	13	GLASS	639	n/a	n/a	0	0	0
2843.603515625	n/a	WORD	5823700	wordpools/wasnorm_wordpool_576.txt	LTP364	ltpFR2	2	13	PUDDING	1139	n/a	n/a	0	0	0
2846.33544921875	n/a	WORD	5829295	wordpools/wasnorm_wordpool_576.txt	LTP364	ltpFR2	2	13	BALLOON	75	n/a	n/a	0	0	0
2848.8173828125	n/a	WORD	5834378	wordpools/wasnorm_wordpool_576.txt	LTP364	ltpFR2	2	13	PISTON	1076	n/a	n/a	0	0	0
2850.43359375	n/a	START	5837688	n/a	LTP364	ltpFR2	2	n/a	n/a	n/a	19	n/a	n/a	n/a	n/a
2851.45947265625	n/a	DISTRACTOR	5839789	n/a	LTP364	ltpFR2	2	13	n/a	n/a	n/a	n/a	0	0	0
2851.46630859375	n/a	PROB	5839803	n/a	LTP364	ltpFR2	2	n/a	n/a	n/a	19	13	6	4	3
2854.18017578125	n/a	PROB	5845361	n/a	LTP364	ltpFR2	2	n/a	n/a	n/a	19	9	6	2	1
2856.1962890625	n/a	PROB	5849490	n/a	LTP364	ltpFR2	2	n/a	n/a	n/a	19	15	1	7	7
2858.7294921875	n/a	PROB	5854678	n/a	LTP364	ltpFR2	2	n/a	n/a	n/a	19	19	4	6	9
2860.244140625	n/a	PROB	5857780	n/a	LTP364	ltpFR2	2	n/a	n/a	n/a	19	21	4	8	9
2867.7578125	n/a	PROB	5873168	n/a	LTP364	ltpFR2	2	n/a	n/a	n/a	19	15	2	4	9
2869.77392578125	n/a	PROB	5877297	n/a	LTP364	ltpFR2	2	n/a	n/a	n/a	19	13	5	7	1
2872.4560546875	n/a	PROB	5882790	n/a	LTP364	ltpFR2	2	n/a	n/a	n/a	19	6	4	1	1
2874.3896484375	n/a	STOP	5886750	n/a	LTP364	ltpFR2	2	n/a	n/a	n/a	19	n/a	n/a	n/a	n/a
2876.3037109375	n/a	REC_START	5890670	n/a	LTP364	ltpFR2	2	13	n/a	n/a	n/a	n/a	0	0	0
2879.57470703125	n/a	REC_WORD	5897369	wordpools/wasnorm_wordpool_576.txt	LTP364	ltpFR2	2	13	ANKLE	24	n/a	n/a	0	0	0
2881.13671875	n/a	REC_WORD	5900568	wordpools/wasnorm_wordpool_576.txt	LTP364	ltpFR2	2	13	PAPER	1011	n/a	n/a	0	0	0
2882.38232421875	n/a	REC_WORD	5903119	wordpools/wasnorm_wordpool_576.txt	LTP364	ltpFR2	2	13	NOTEBOOK	959	n/a	n/a	0	0	0
2883.95654296875	n/a	REC_WORD	5906343	wordpools/wasnorm_wordpool_576.txt	LTP364	ltpFR2	2	13	BOYFRIEND	162	n/a	n/a	0	0	0
2888.21142578125	n/a	REC_WORD	5915057	wordpools/wasnorm_wordpool_576.txt	LTP364	ltpFR2	2	13	BOARD	143	n/a	n/a	0	0	0
2892.6474609375	n/a	REC_WORD	5924142	wordpools/wasnorm_wordpool_576.txt	LTP364	ltpFR2	2	13	DUSTPAN	509	n/a	n/a	0	0	0
2904.083984375	n/a	REC_WORD	5947564	wordpools/wasnorm_wordpool_576.txt	LTP364	ltpFR2	2	13	ELBOW	520	n/a	n/a	0	0	0
2905.53076171875	n/a	REC_WORD	5950527	wordpools/wasnorm_wordpool_576.txt	LTP364	ltpFR2	2	13	THIEF	1456	n/a	n/a	0	0	0
2909.02001953125	n/a	REC_WORD	5957673	wordpools/wasnorm_wordpool_576.txt	LTP364	ltpFR2	2	13	CANDY	230	n/a	n/a	0	0	0
2916.3046875	n/a	REC_WORD	5972592	wordpools/wasnorm_wordpool_576.txt	LTP364	ltpFR2	2	13	PARTNER	1017	n/a	n/a	0	0	0
2923.63330078125	n/a	REC_WORD	5987601	wordpools/wasnorm_wordpool_576.txt	LTP364	ltpFR2	2	13	VICTIM	1562	n/a	n/a	0	0	0
2925.08251953125	n/a	REC_WORD	5990569	wordpools/wasnorm_wordpool_576.txt	LTP364	ltpFR2	2	13	WORLD	1622	n/a	n/a	0	0	0
2927.3642578125	n/a	REC_WORD	5995242	wordpools/wasnorm_wordpool_576.txt	LTP364	ltpFR2	2	13	ATLAS	53	n/a	n/a	0	0	0
2933.1640625	n/a	REC_WORD	6007120	wordpools/wasnorm_wordpool_576.txt	LTP364	ltpFR2	2	13	GLASS	639	n/a	n/a	0	0	0
2936.62109375	n/a	REC_WORD	6014200	wordpools/wasnorm_wordpool_576.txt	LTP364	ltpFR2	2	13	PUDDING	1139	n/a	n/a	0	0	0
2937.81201171875	n/a	REC_WORD	6016639	wordpools/wasnorm_wordpool_576.txt	LTP364	ltpFR2	2	13	BALLOON	75	n/a	n/a	0	0	0
2966.744140625	n/a	DISTRACTOR	6075892	n/a	LTP364	ltpFR2	2	14	n/a	n/a	n/a	n/a	0	0	0
2966.744140625	n/a	START	6075892	n/a	LTP364	ltpFR2	2	n/a	n/a	n/a	20	n/a	n/a	n/a	n/a
2966.76025390625	n/a	PROB	6075925	n/a	LTP364	ltpFR2	2	n/a	n/a	n/a	20	6	1	3	2
2968.6591796875	n/a	PROB	6079814	n/a	LTP364	ltpFR2	2	n/a	n/a	n/a	20	16	1	6	9
2972.89013671875	n/a	PROB	6088479	n/a	LTP364	ltpFR2	2	n/a	n/a	n/a	20	20	9	7	4
2975.98779296875	n/a	PROB	6094823	n/a	LTP364	ltpFR2	2	n/a	n/a	n/a	20	13	5	3	5
2978.77099609375	n/a	PROB	6100523	n/a	LTP364	ltpFR2	2	n/a	n/a	n/a	20	10	5	3	2
2981.31884765625	n/a	PROB	6105741	n/a	LTP364	ltpFR2	2	n/a	n/a	n/a	20	22	7	6	7
2985.70166015625	n/a	PROB	6114717	n/a	LTP364	ltpFR2	2	n/a	n/a	n/a	20	16	5	4	9
2989.62939453125	n/a	STOP	6122761	n/a	LTP364	ltpFR2	2	n/a	n/a	n/a	20	n/a	n/a	n/a	n/a
2991.79833984375	n/a	WORD	6127203	wordpools/wasnorm_wordpool_576.txt	LTP364	ltpFR2	2	14	ULCER	1533	n/a	n/a	0	0	0
2994.4970703125	n/a	WORD	6132730	wordpools/wasnorm_wordpool_576.txt	LTP364	ltpFR2	2	14	FUNGUS	614	n/a	n/a	0	0	0
2997.1943359375	n/a	WORD	6138254	wordpools/wasnorm_wordpool_576.txt	LTP364	ltpFR2	2	14	ROOSTER	1209	n/a	n/a	0	0	0
2999.8759765625	n/a	WORD	6143746	wordpools/wasnorm_wordpool_576.txt	LTP364	ltpFR2	2	14	CANYON	235	n/a	n/a	0	0	0
3002.69287109375	n/a	WORD	6149515	wordpools/wasnorm_wordpool_576.txt	LTP364	ltpFR2	2	14	MILDEW	893	n/a	n/a	0	0	0
3005.2412109375	n/a	WORD	6154734	wordpools/wasnorm_wordpool_576.txt	LTP364	ltpFR2	2	14	RATTLE	1170	n/a	n/a	0	0	0
3008.0390625	n/a	WORD	6160464	wordpools/wasnorm_wordpool_576.txt	LTP364	ltpFR2	2	14	CAFE	216	n/a	n/a	0	0	0
3010.755859375	n/a	WORD	6166028	wordpools/wasnorm_wordpool_576.txt	LTP364	ltpFR2	2	14	PALACE	1006	n/a	n/a	0	0	0
3013.35498046875	n/a	WORD	6171351	wordpools/wasnorm_wordpool_576.txt	LTP364	ltpFR2	2	14	PLASTER	1085	n/a	n/a	0	0	0
3015.8369140625	n/a	WORD	6176434	wordpools/wasnorm_wordpool_576.txt	LTP364	ltpFR2	2	14	MAPLE	866	n/a	n/a	0	0	0
3018.45166015625	n/a	WORD	6181789	wordpools/wasnorm_wordpool_576.txt	LTP364	ltpFR2	2	14	PORTRAIT	1111	n/a	n/a	0	0	0
3021.16650390625	n/a	WORD	6187349	wordpools/wasnorm_wordpool_576.txt	LTP364	ltpFR2	2	14	LIGHTNING	820	n/a	n/a	0	0	0
3023.71630859375	n/a	WORD	6192571	wordpools/wasnorm_wordpool_576.txt	LTP364	ltpFR2	2	14	ROD	1203	n/a	n/a	0	0	0
3026.49853515625	n/a	WORD	6198269	wordpools/wasnorm_wordpool_576.txt	LTP364	ltpFR2	2	14	MEAT	883	n/a	n/a	0	0	0
3028.92919921875	n/a	WORD	6203247	wordpools/wasnorm_wordpool_576.txt	LTP364	ltpFR2	2	14	LIVER	833	n/a	n/a	0	0	0
3031.51220703125	n/a	WORD	6208537	wordpools/wasnorm_wordpool_576.txt	LTP364	ltpFR2	2	14	TAXI	1438	n/a	n/a	0	0	0
3034.1259765625	n/a	WORD	6213890	wordpools/wasnorm_wordpool_576.txt	LTP364	ltpFR2	2	14	QUAIL	1147	n/a	n/a	0	0	0
3036.59326171875	n/a	WORD	6218943	wordpools/wasnorm_wordpool_576.txt	LTP364	ltpFR2	2	14	PENGUIN	1044	n/a	n/a	0	0	0
3039.19091796875	n/a	WORD	6224263	wordpools/wasnorm_wordpool_576.txt	LTP364	ltpFR2	2	14	CARRIAGE	248	n/a	n/a	0	0	0
3041.69091796875	n/a	WORD	6229383	wordpools/wasnorm_wordpool_576.txt	LTP364	ltpFR2	2	14	STONE	1385	n/a	n/a	0	0	0
3044.47265625	n/a	WORD	6235080	wordpools/wasnorm_wordpool_576.txt	LTP364	ltpFR2	2	14	LETTUCE	814	n/a	n/a	0	0	0
3047.03662109375	n/a	WORD	6240331	wordpools/wasnorm_wordpool_576.txt	LTP364	ltpFR2	2	14	ICEBERG	731	n/a	n/a	0	0	0
3049.603515625	n/a	WORD	6245588	wordpools/wasnorm_wordpool_576.txt	LTP364	ltpFR2	2	14	PRINCESS	1125	n/a	n/a	0	0	0
3052.134765625	n/a	WORD	6250772	wordpools/wasnorm_wordpool_576.txt	LTP364	ltpFR2	2	14	YARN	1631	n/a	n/a	0	0	0
3053.75146484375	n/a	START	6254083	n/a	LTP364	ltpFR2	2	n/a	n/a	n/a	21	n/a	n/a	n/a	n/a
3054.94873046875	n/a	DISTRACTOR	6256535	n/a	LTP364	ltpFR2	2	14	n/a	n/a	n/a	n/a	0	0	0
3054.94970703125	n/a	PROB	6256537	n/a	LTP364	ltpFR2	2	n/a	n/a	n/a	21	12	2	7	3
3056.96533203125	n/a	PROB	6260665	n/a	LTP364	ltpFR2	2	n/a	n/a	n/a	21	12	8	2	2
3060.314453125	n/a	PROB	6267524	n/a	LTP364	ltpFR2	2	n/a	n/a	n/a	21	13	5	2	6
3062.896484375	n/a	PROB	6272812	n/a	LTP364	ltpFR2	2	n/a	n/a	n/a	21	10	4	5	1
3064.9111328125	n/a	PROB	6276938	n/a	LTP364	ltpFR2	2	n/a	n/a	n/a	21	19	3	8	8
3067.861328125	n/a	PROB	6282980	n/a	LTP364	ltpFR2	2	n/a	n/a	n/a	21	8	5	2	1
3069.7099609375	n/a	PROB	6286766	n/a	LTP364	ltpFR2	2	n/a	n/a	n/a	21	5	1	1	3
3071.64306640625	n/a	PROB	6290725	n/a	LTP364	ltpFR2	2	n/a	n/a	n/a	21	16	3	8	5
3077.7509765625	n/a	STOP	6303234	n/a	LTP364	ltpFR2	2	n/a	n/a	n/a	21	n/a	n/a	n/a	n/a
3079.5556640625	n/a	REC_START	6306930	n/a	LTP364	ltpFR2	2	14	n/a	n/a	n/a	n/a	0	0	0
3083.48291015625	n/a	REC_WORD	6314973	wordpools/wasnorm_wordpool_576.txt	LTP364	ltpFR2	2	14	ULCER	1533	n/a	n/a	0	0	0
3084.74462890625	n/a	REC_WORD	6317557	wordpools/wasnorm_wordpool_576.txt	LTP364	ltpFR2	2	14	FUNGUS	614	n/a	n/a	0	0	0
3086.48486328125	n/a	REC_WORD	6321121	wordpools/wasnorm_wordpool_576.txt	LTP364	ltpFR2	2	14	ROOSTER	1209	n/a	n/a	0	0	0
3087.87060546875	n/a	REC_WORD	6323959	wordpools/wasnorm_wordpool_576.txt	LTP364	ltpFR2	2	14	CANYON	235	n/a	n/a	0	0	0
3089.2216796875	n/a	REC_WORD	6326726	wordpools/wasnorm_wordpool_576.txt	LTP364	ltpFR2	2	14	MILDEW	893	n/a	n/a	0	0	0
3091.63330078125	n/a	REC_WORD	6331665	wordpools/wasnorm_wordpool_576.txt	LTP364	ltpFR2	2	14	RATTLE	1170	n/a	n/a	0	0	0
3097.1474609375	n/a	REC_WORD	6342958	wordpools/wasnorm_wordpool_576.txt	LTP364	ltpFR2	2	14	CAFE	216	n/a	n/a	0	0	0
3105.73193359375	n/a	REC_WORD	6360539	wordpools/wasnorm_wordpool_576.txt	LTP364	ltpFR2	2	14	PALACE	1006	n/a	n/a	0	0	0
3107.04296875	n/a	REC_WORD	6363224	wordpools/wasnorm_wordpool_576.txt	LTP364	ltpFR2	2	14	PLASTER	1085	n/a	n/a	0	0	0
3116.8369140625	n/a	REC_WORD_VV	6383282	wordpools/wasnorm_wordpool_576.txt	LTP364	ltpFR2	2	14	<>	-1	n/a	n/a	0	0	0
3119.99951171875	n/a	REC_WORD	6389759	wordpools/wasnorm_wordpool_576.txt	LTP364	ltpFR2	2	14	PORTRAIT	1111	n/a	n/a	0	0	0
3123.69677734375	n/a	REC_WORD	6397331	wordpools/wasnorm_wordpool_576.txt	LTP364	ltpFR2	2	14	LIGHTNING	820	n/a	n/a	0	0	0
3125.12841796875	n/a	REC_WORD	6400263	wordpools/wasnorm_wordpool_576.txt	LTP364	ltpFR2	2	14	ROD	1203	n/a	n/a	0	0	0
3130.72412109375	n/a	REC_WORD	6411723	wordpools/wasnorm_wordpool_576.txt	LTP364	ltpFR2	2	14	CARRIAGE	248	n/a	n/a	0	0	0
3132.09130859375	n/a	REC_WORD	6414523	wordpools/wasnorm_wordpool_576.txt	LTP364	ltpFR2	2	14	QUAIL	1147	n/a	n/a	0	0	0
3138.615234375	n/a	REC_WORD	6427884	wordpools/wasnorm_wordpool_576.txt	LTP364	ltpFR2	2	14	STONE	1385	n/a	n/a	0	0	0
3140.43896484375	n/a	REC_WORD	6431619	wordpools/wasnorm_wordpool_576.txt	LTP364	ltpFR2	2	14	ICEBERG	731	n/a	n/a	0	0	0
3142.02197265625	n/a	REC_WORD	6434861	wordpools/wasnorm_wordpool_576.txt	LTP364	ltpFR2	2	14	LETTUCE	814	n/a	n/a	0	0	0
3143.5849609375	n/a	REC_WORD	6438062	wordpools/wasnorm_wordpool_576.txt	LTP364	ltpFR2	2	14	PRINCESS	1125	n/a	n/a	0	0	0
3169.994140625	n/a	DISTRACTOR	6492148	n/a	LTP364	ltpFR2	2	15	n/a	n/a	n/a	n/a	0	0	0
3169.994140625	n/a	START	6492148	n/a	LTP364	ltpFR2	2	n/a	n/a	n/a	22	n/a	n/a	n/a	n/a
3170.01123046875	n/a	PROB	6492183	n/a	LTP364	ltpFR2	2	n/a	n/a	n/a	22	15	7	5	3
3172.22607421875	n/a	PROB	6496719	n/a	LTP364	ltpFR2	2	n/a	n/a	n/a	22	19	9	8	2
3174.02587890625	n/a	PROB	6500405	n/a	LTP364	ltpFR2	2	n/a	n/a	n/a	22	12	2	8	2
3175.84228515625	n/a	PROB	6504125	n/a	LTP364	ltpFR2	2	n/a	n/a	n/a	22	13	7	2	4
3178.6240234375	n/a	PROB	6509822	n/a	LTP364	ltpFR2	2	n/a	n/a	n/a	22	12	3	7	2
3180.35693359375	n/a	PROB	6513371	n/a	LTP364	ltpFR2	2	n/a	n/a	n/a	22	9	3	1	5
3182.755859375	n/a	PROB	6518284	n/a	LTP364	ltpFR2	2	n/a	n/a	n/a	22	17	9	3	5
3186.98583984375	n/a	PROB	6526947	n/a	LTP364	ltpFR2	2	n/a	n/a	n/a	22	17	9	5	3
3189.50244140625	n/a	PROB	6532101	n/a	LTP364	ltpFR2	2	n/a	n/a	n/a	22	17	2	9	6
3193.99365234375	n/a	STOP	6541299	n/a	LTP364	ltpFR2	2	n/a	n/a	n/a	22	n/a	n/a	n/a	n/a
3194.99853515625	n/a	WORD	6543357	wordpools/wasnorm_wordpool_576.txt	LTP364	ltpFR2	2	15	DRIVER	499	n/a	n/a	0	0	0
3197.49853515625	n/a	WORD	6548477	wordpools/wasnorm_wordpool_576.txt	LTP364	ltpFR2	2	15	FRAGRANCE	599	n/a	n/a	0	0	0
3199.99658203125	n/a	WORD	6553593	wordpools/wasnorm_wordpool_576.txt	LTP364	ltpFR2	2	15	CRUTCH	417	n/a	n/a	0	0	0
3202.42919921875	n/a	WORD	6558575	wordpools/wasnorm_wordpool_576.txt	LTP364	ltpFR2	2	15	STAPLE	1371	n/a	n/a	0	0	0
3205.0771484375	n/a	WORD	6563998	wordpools/wasnorm_wordpool_576.txt	LTP364	ltpFR2	2	15	FRIEND	606	n/a	n/a	0	0	0
3207.5439453125	n/a	WORD	6569050	wordpools/wasnorm_wordpool_576.txt	LTP364	ltpFR2	2	15	ITEM	746	n/a	n/a	0	0	0
3210.00830078125	n/a	WORD	6574097	wordpools/wasnorm_wordpool_576.txt	LTP364	ltpFR2	2	15	SILK	1307	n/a	n/a	0	0	0
3212.5078125	n/a	WORD	6579216	wordpools/wasnorm_wordpool_576.txt	LTP364	ltpFR2	2	15	TUBA	1515	n/a	n/a	0	0	0
3214.9560546875	n/a	WORD	6584230	wordpools/wasnorm_wordpool_576.txt	LTP364	ltpFR2	2	15	WHISTLE	1606	n/a	n/a	0	0	0
3217.505859375	n/a	WORD	6589452	wordpools/wasnorm_wordpool_576.txt	LTP364	ltpFR2	2	15	LOVER	846	n/a	n/a	0	0	0
3220.169921875	n/a	WORD	6594908	wordpools/wasnorm_wordpool_576.txt	LTP364	ltpFR2	2	15	LUGGAGE	847	n/a	n/a	0	0	0
3222.61962890625	n/a	WORD	6599925	wordpools/wasnorm_wordpool_576.txt	LTP364	ltpFR2	2	15	SHERIFF	1284	n/a	n/a	0	0	0
3225.267578125	n/a	WORD	6605348	wordpools/wasnorm_wordpool_576.txt	LTP364	ltpFR2	2	15	AGENT	10	n/a	n/a	0	0	0
3227.94970703125	n/a	WORD	6610841	wordpools/wasnorm_wordpool_576.txt	LTP364	ltpFR2	2	15	DONKEY	484	n/a	n/a	0	0	0
3230.58251953125	n/a	WORD	6616233	wordpools/wasnorm_wordpool_576.txt	LTP364	ltpFR2	2	15	MAILBOX	857	n/a	n/a	0	0	0
3233.2802734375	n/a	WORD	6621758	wordpools/wasnorm_wordpool_576.txt	LTP364	ltpFR2	2	15	CROSS	413	n/a	n/a	0	0	0
3236.029296875	n/a	WORD	6627388	wordpools/wasnorm_wordpool_576.txt	LTP364	ltpFR2	2	15	AIRPORT	13	n/a	n/a	0	0	0
3238.79541015625	n/a	WORD	6633053	wordpools/wasnorm_wordpool_576.txt	LTP364	ltpFR2	2	15	BRACES	164	n/a	n/a	0	0	0
3241.52734375	n/a	WORD	6638648	wordpools/wasnorm_wordpool_576.txt	LTP364	ltpFR2	2	15	DENTIST	447	n/a	n/a	0	0	0
3244.02490234375	n/a	WORD	6643763	wordpools/wasnorm_wordpool_576.txt	LTP364	ltpFR2	2	15	FRAME	600	n/a	n/a	0	0	0
3246.8408203125	n/a	WORD	6649530	wordpools/wasnorm_wordpool_576.txt	LTP364	ltpFR2	2	15	PIMPLE	1071	n/a	n/a	0	0	0
3249.65673828125	n/a	WORD	6655297	wordpools/wasnorm_wordpool_576.txt	LTP364	ltpFR2	2	15	LAMP	798	n/a	n/a	0	0	0
3252.28759765625	n/a	WORD	6660685	wordpools/wasnorm_wordpool_576.txt	LTP364	ltpFR2	2	15	CIGAR	308	n/a	n/a	0	0	0
3254.85400390625	n/a	WORD	6665941	wordpools/wasnorm_wordpool_576.txt	LTP364	ltpFR2	2	15	PREACHER	1119	n/a	n/a	0	0	0
3256.470703125	n/a	START	6669252	n/a	LTP364	ltpFR2	2	n/a	n/a	n/a	23	n/a	n/a	n/a	n/a
3257.60888671875	n/a	DISTRACTOR	6671583	n/a	LTP364	ltpFR2	2	15	n/a	n/a	n/a	n/a	0	0	0
3257.61962890625	n/a	PROB	6671605	n/a	LTP364	ltpFR2	2	n/a	n/a	n/a	23	11	3	6	2
3260.5517578125	n/a	PROB	6677610	n/a	LTP364	ltpFR2	2	n/a	n/a	n/a	23	17	5	9	3
3262.99951171875	n/a	PROB	6682623	n/a	LTP364	ltpFR2	2	n/a	n/a	n/a	23	18	7	6	5
3267.6142578125	n/a	PROB	6692074	n/a	LTP364	ltpFR2	2	n/a	n/a	n/a	23	15	3	6	6
3269.99609375	n/a	PROB	6696952	n/a	LTP364	ltpFR2	2	n/a	n/a	n/a	23	13	6	5	2
3274.37841796875	n/a	PROB	6705927	n/a	LTP364	ltpFR2	2	n/a	n/a	n/a	23	21	9	6	6
3277.076171875	n/a	PROB	6711452	n/a	LTP364	ltpFR2	2	n/a	n/a	n/a	23	17	5	5	7
3279.35009765625	n/a	STOP	6716109	n/a	LTP364	ltpFR2	2	n/a	n/a	n/a	23	n/a	n/a	n/a	n/a
3282.3408203125	n/a	REC_START	6722234	n/a	LTP364	ltpFR2	2	15	n/a	n/a	n/a	n/a	0	0	0
3302.5166015625	n/a	REC_WORD	6763554	wordpools/wasnorm_wordpool_576.txt	LTP364	ltpFR2	2	15	BRACES	164	n/a	n/a	0	0	0
3303.61328125	n/a	REC_WORD	6765800	wordpools/wasnorm_wordpool_576.txt	LTP364	ltpFR2	2	15	FRAME	600	n/a	n/a	0	0	0
3304.95947265625	n/a	REC_WORD	6768557	wordpools/wasnorm_wordpool_576.txt	LTP364	ltpFR2	2	15	PIMPLE	1071	n/a	n/a	0	0	0
3324.8515625	n/a	REC_WORD	6809296	wordpools/wasnorm_wordpool_576.txt	LTP364	ltpFR2	2	15	TUBA	1515	n/a	n/a	0	0	0
3326.33056640625	n/a	REC_WORD	6812325	wordpools/wasnorm_wordpool_576.txt	LTP364	ltpFR2	2	15	LOVER	846	n/a	n/a	0	0	0
3328.16162109375	n/a	REC_WORD	6816075	wordpools/wasnorm_wordpool_576.txt	LTP364	ltpFR2	2	15	WHISTLE	1606	n/a	n/a	0	0	0
3347.96826171875	n/a	REC_WORD	6856639	wordpools/wasnorm_wordpool_576.txt	LTP364	ltpFR2	2	15	DRIVER	499	n/a	n/a	0	0	0
3348.794921875	n/a	REC_WORD	6858332	wordpools/wasnorm_wordpool_576.txt	LTP364	ltpFR2	2	15	FRAGRANCE	599	n/a	n/a	0	0	0
3350.34912109375	n/a	REC_WORD	6861515	wordpools/wasnorm_wordpool_576.txt	LTP364	ltpFR2	2	15	CRUTCH	417	n/a	n/a	0	0	0
3354.1396484375	n/a	REC_WORD	6869278	wordpools/wasnorm_wordpool_576.txt	LTP364	ltpFR2	2	15	FRIEND	606	n/a	n/a	0	0	0
3372.79736328125	n/a	WORD	6907489	wordpools/wasnorm_wordpool_576.txt	LTP364	ltpFR2	2	16	HERO	706	n/a	n/a	0	0	0
3375.5625	n/a	WORD	6913152	wordpools/wasnorm_wordpool_576.txt	LTP364	ltpFR2	2	16	APPLE	33	n/a	n/a	0	0	0
3378.31103515625	n/a	WORD	6918781	wordpools/wasnorm_wordpool_576.txt	LTP364	ltpFR2	2	16	PARROT	1015	n/a	n/a	0	0	0
3381.05908203125	n/a	WORD	6924409	wordpools/wasnorm_wordpool_576.txt	LTP364	ltpFR2	2	16	DRINK	498	n/a	n/a	0	0	0
3383.5419921875	n/a	WORD	6929494	wordpools/wasnorm_wordpool_576.txt	LTP364	ltpFR2	2	16	NOVEL	960	n/a	n/a	0	0	0
3386.07275390625	n/a	WORD	6934677	wordpools/wasnorm_wordpool_576.txt	LTP364	ltpFR2	2	16	EGYPT	519	n/a	n/a	0	0	0
3388.6396484375	n/a	WORD	6939934	wordpools/wasnorm_wordpool_576.txt	LTP364	ltpFR2	2	16	PECAN	1036	n/a	n/a	0	0	0
3391.43798828125	n/a	WORD	6945665	wordpools/wasnorm_wordpool_576.txt	LTP364	ltpFR2	2	16	GROUND	666	n/a	n/a	0	0	0
3394.2685546875	n/a	WORD	6951462	wordpools/wasnorm_wordpool_576.txt	LTP364	ltpFR2	2	16	TOASTER	1472	n/a	n/a	0	0	0
3396.98486328125	n/a	WORD	6957025	wordpools/wasnorm_wordpool_576.txt	LTP364	ltpFR2	2	16	TEMPLE	1448	n/a	n/a	0	0	0
3399.41748046875	n/a	WORD	6962007	wordpools/wasnorm_wordpool_576.txt	LTP364	ltpFR2	2	16	STOVE	1388	n/a	n/a	0	0	0
3401.96533203125	n/a	WORD	6967225	wordpools/wasnorm_wordpool_576.txt	LTP364	ltpFR2	2	16	DINER	467	n/a	n/a	0	0	0
3404.71533203125	n/a	WORD	6972857	wordpools/wasnorm_wordpool_576.txt	LTP364	ltpFR2	2	16	ROBIN	1199	n/a	n/a	0	0	0
3407.17919921875	n/a	WORD	6977903	wordpools/wasnorm_wordpool_576.txt	LTP364	ltpFR2	2	16	DAUGHTER	442	n/a	n/a	0	0	0
3409.779296875	n/a	WORD	6983228	wordpools/wasnorm_wordpool_576.txt	LTP364	ltpFR2	2	16	GLOVE	642	n/a	n/a	0	0	0
3412.56103515625	n/a	WORD	6988925	wordpools/wasnorm_wordpool_576.txt	LTP364	ltpFR2	2	16	HANDBAG	684	n/a	n/a	0	0	0
3415.31005859375	n/a	WORD	6994555	wordpools/wasnorm_wordpool_576.txt	LTP364	ltpFR2	2	16	KETCHUP	771	n/a	n/a	0	0	0
3417.77490234375	n/a	WORD	6999603	wordpools/wasnorm_wordpool_576.txt	LTP364	ltpFR2	2	16	MUSTARD	935	n/a	n/a	0	0	0
3420.27294921875	n/a	WORD	7004719	wordpools/wasnorm_wordpool_576.txt	LTP364	ltpFR2	2	16	VALLEY	1545	n/a	n/a	0	0	0
3423.02197265625	n/a	WORD	7010349	wordpools/wasnorm_wordpool_576.txt	LTP364	ltpFR2	2	16	SUMMIT	1405	n/a	n/a	0	0	0
3425.68798828125	n/a	WORD	7015809	wordpools/wasnorm_wordpool_576.txt	LTP364	ltpFR2	2	16	SHOULDER	1294	n/a	n/a	0	0	0
3428.169921875	n/a	WORD	7020892	wordpools/wasnorm_wordpool_576.txt	LTP364	ltpFR2	2	16	ACTOR	5	n/a	n/a	0	0	0
3430.8525390625	n/a	WORD	7026386	wordpools/wasnorm_wordpool_576.txt	LTP364	ltpFR2	2	16	PEDAL	1037	n/a	n/a	0	0	0
3433.30078125	n/a	WORD	7031400	wordpools/wasnorm_wordpool_576.txt	LTP364	ltpFR2	2	16	CASKET	255	n/a	n/a	0	0	0
3434.91650390625	n/a	START	7034709	n/a	LTP364	ltpFR2	2	n/a	n/a	n/a	24	n/a	n/a	n/a	n/a
3435.94140625	n/a	DISTRACTOR	7036808	n/a	LTP364	ltpFR2	2	16	n/a	n/a	n/a	n/a	0	0	0
3435.94873046875	n/a	PROB	7036823	n/a	LTP364	ltpFR2	2	n/a	n/a	n/a	24	12	2	6	4
3438.33251953125	n/a	PROB	7041705	n/a	LTP364	ltpFR2	2	n/a	n/a	n/a	24	17	8	1	8
3440.58154296875	n/a	PROB	7046311	n/a	LTP364	ltpFR2	2	n/a	n/a	n/a	24	19	7	3	9
3442.162109375	n/a	PROB	7049548	n/a	LTP364	ltpFR2	2	n/a	n/a	n/a	24	10	3	1	6
3443.978515625	n/a	PROB	7053268	n/a	LTP364	ltpFR2	2	n/a	n/a	n/a	24	200	4	7	9
3446.828125	n/a	PROB	7059104	n/a	LTP364	ltpFR2	2	n/a	n/a	n/a	24	7	2	4	1
3451.5419921875	n/a	PROB	7068758	n/a	LTP364	ltpFR2	2	n/a	n/a	n/a	24	16	1	7	8
3454.23974609375	n/a	PROB	7074283	n/a	LTP364	ltpFR2	2	n/a	n/a	n/a	24	13	6	2	5
3456.40673828125	n/a	PROB	7078721	n/a	LTP364	ltpFR2	2	n/a	n/a	n/a	24	16	7	8	1
3458.4697265625	n/a	STOP	7082946	n/a	LTP364	ltpFR2	2	n/a	n/a	n/a	24	n/a	n/a	n/a	n/a
3460.77197265625	n/a	REC_START	7087661	n/a	LTP364	ltpFR2	2	16	n/a	n/a	n/a	n/a	0	0	0
3470.13232421875	n/a	REC_WORD	7106831	wordpools/wasnorm_wordpool_576.txt	LTP364	ltpFR2	2	16	ACTOR	5	n/a	n/a	0	0	0
3471.73046875	n/a	REC_WORD	7110104	wordpools/wasnorm_wordpool_576.txt	LTP364	ltpFR2	2	16	SHOULDER	1294	n/a	n/a	0	0	0
3477.947265625	n/a	REC_WORD	7122836	wordpools/wasnorm_wordpool_576.txt	LTP364	ltpFR2	2	16	KETCHUP	771	n/a	n/a	0	0	0
3478.693359375	n/a	REC_WORD	7124364	wordpools/wasnorm_wordpool_576.txt	LTP364	ltpFR2	2	16	MUSTARD	935	n/a	n/a	0	0	0
3481.12109375	n/a	REC_WORD	7129336	wordpools/wasnorm_wordpool_576.txt	LTP364	ltpFR2	2	16	VALLEY	1545	n/a	n/a	0	0	0
3481.92236328125	n/a	REC_WORD	7130977	wordpools/wasnorm_wordpool_576.txt	LTP364	ltpFR2	2	16	SUMMIT	1405	n/a	n/a	0	0	0
3489.55712890625	n/a	REC_WORD	7146613	wordpools/wasnorm_wordpool_576.txt	LTP364	ltpFR2	2	16	PARROT	1015	n/a	n/a	0	0	0
3490.6318359375	n/a	REC_WORD	7148814	wordpools/wasnorm_wordpool_576.txt	LTP364	ltpFR2	2	16	HERO	706	n/a	n/a	0	0	0
3492.173828125	n/a	REC_WORD	7151972	wordpools/wasnorm_wordpool_576.txt	LTP364	ltpFR2	2	16	APPLE	33	n/a	n/a	0	0	0
3494.52587890625	n/a	REC_WORD	7156789	wordpools/wasnorm_wordpool_576.txt	LTP364	ltpFR2	2	16	DRINK	498	n/a	n/a	0	0	0
3537.33447265625	n/a	REST_REWET	7244461	n/a	LTP364	ltpFR2	2	16	n/a	n/a	n/a	n/a	0	0	0
3659.2080078125	n/a	WORD	7494058	wordpools/wasnorm_wordpool_576.txt	LTP364	ltpFR2	2	17	WAGON	1578	n/a	n/a	0	0	0
3661.673828125	n/a	WORD	7499108	wordpools/wasnorm_wordpool_576.txt	LTP364	ltpFR2	2	17	CHAMPAGNE	278	n/a	n/a	0	0	0
3664.1220703125	n/a	WORD	7504122	wordpools/wasnorm_wordpool_576.txt	LTP364	ltpFR2	2	17	DENIM	446	n/a	n/a	0	0	0
3666.57177734375	n/a	WORD	7509139	wordpools/wasnorm_wordpool_576.txt	LTP364	ltpFR2	2	17	ZIPPER	1636	n/a	n/a	0	0	0
3669.0029296875	n/a	WORD	7514118	wordpools/wasnorm_wordpool_576.txt	LTP364	ltpFR2	2	17	GARDEN	623	n/a	n/a	0	0	0
3671.685546875	n/a	WORD	7519612	wordpools/wasnorm_wordpool_576.txt	LTP364	ltpFR2	2	17	COLONEL	348	n/a	n/a	0	0	0
3674.2177734375	n/a	WORD	7524798	wordpools/wasnorm_wordpool_576.txt	LTP364	ltpFR2	2	17	MUMMY	932	n/a	n/a	0	0	0
3676.86572265625	n/a	WORD	7530221	wordpools/wasnorm_wordpool_576.txt	LTP364	ltpFR2	2	17	CITRUS	313	n/a	n/a	0	0	0
3679.4482421875	n/a	WORD	7535510	wordpools/wasnorm_wordpool_576.txt	LTP364	ltpFR2	2	17	TWEEZERS	1526	n/a	n/a	0	0	0
3682.24658203125	n/a	WORD	7541241	wordpools/wasnorm_wordpool_576.txt	LTP364	ltpFR2	2	17	BRIEFCASE	175	n/a	n/a	0	0	0
3684.74609375	n/a	WORD	7546360	wordpools/wasnorm_wordpool_576.txt	LTP364	ltpFR2	2	17	TYPIST	1532	n/a	n/a	0	0	0
3687.328125	n/a	WORD	7551648	wordpools/wasnorm_wordpool_576.txt	LTP364	ltpFR2	2	17	CONCERT	360	n/a	n/a	0	0	0
3689.84423828125	n/a	WORD	7556801	wordpools/wasnorm_wordpool_576.txt	LTP364	ltpFR2	2	17	BUBBLE	183	n/a	n/a	0	0	0
3692.6591796875	n/a	WORD	7562566	wordpools/wasnorm_wordpool_576.txt	LTP364	ltpFR2	2	17	STALLION	1369	n/a	n/a	0	0	0
3695.3408203125	n/a	WORD	7568058	wordpools/wasnorm_wordpool_576.txt	LTP364	ltpFR2	2	17	TUNNEL	1519	n/a	n/a	0	0	0
3698.07177734375	n/a	WORD	7573651	wordpools/wasnorm_wordpool_576.txt	LTP364	ltpFR2	2	17	SWIMMER	1420	n/a	n/a	0	0	0
3700.638671875	n/a	WORD	7578908	wordpools/wasnorm_wordpool_576.txt	LTP364	ltpFR2	2	17	SEAL	1262	n/a	n/a	0	0	0
3703.1865234375	n/a	WORD	7584126	wordpools/wasnorm_wordpool_576.txt	LTP364	ltpFR2	2	17	PROTON	1132	n/a	n/a	0	0	0
3705.81982421875	n/a	WORD	7589519	wordpools/wasnorm_wordpool_576.txt	LTP364	ltpFR2	2	17	CATTLE	261	n/a	n/a	0	0	0
3708.4345703125	n/a	WORD	7594874	wordpools/wasnorm_wordpool_576.txt	LTP364	ltpFR2	2	17	RAFT	1159	n/a	n/a	0	0	0
3710.94970703125	n/a	WORD	7600025	wordpools/wasnorm_wordpool_576.txt	LTP364	ltpFR2	2	17	LAKE	796	n/a	n/a	0	0	0
3713.5654296875	n/a	WORD	7605382	wordpools/wasnorm_wordpool_576.txt	LTP364	ltpFR2	2	17	JUDGE	761	n/a	n/a	0	0	0
3716.26318359375	n/a	WORD	7610907	wordpools/wasnorm_wordpool_576.txt	LTP364	ltpFR2	2	17	NEUTRON	947	n/a	n/a	0	0	0
3718.7802734375	n/a	WORD	7616062	wordpools/wasnorm_wordpool_576.txt	LTP364	ltpFR2	2	17	PLIERS	1089	n/a	n/a	0	0	0
3720.396484375	n/a	START	7619372	n/a	LTP364	ltpFR2	2	n/a	n/a	n/a	25	n/a	n/a	n/a	n/a
3721.47802734375	n/a	DISTRACTOR	7621587	n/a	LTP364	ltpFR2	2	17	n/a	n/a	n/a	n/a	0	0	0
3721.4951171875	n/a	PROB	7621622	n/a	LTP364	ltpFR2	2	n/a	n/a	n/a	25	11	2	5	4
3725.94189453125	n/a	PROB	7630729	n/a	LTP364	ltpFR2	2	n/a	n/a	n/a	25	24	6	9	9
3730.27294921875	n/a	PROB	7639599	n/a	LTP364	ltpFR2	2	n/a	n/a	n/a	25	10	4	3	3
3731.98876953125	n/a	PROB	7643113	n/a	LTP364	ltpFR2	2	n/a	n/a	n/a	25	12	4	2	6
3734.7216796875	n/a	PROB	7648710	n/a	LTP364	ltpFR2	2	n/a	n/a	n/a	25	20	9	7	4
3738.78662109375	n/a	PROB	7657035	n/a	LTP364	ltpFR2	2	n/a	n/a	n/a	25	17	6	9	2
3742.90869140625	n/a	STOP	7665477	n/a	LTP364	ltpFR2	2	n/a	n/a	n/a	25	n/a	n/a	n/a	n/a
3746.1826171875	n/a	REC_START	7672182	n/a	LTP364	ltpFR2	2	17	n/a	n/a	n/a	n/a	0	0	0
3752.39013671875	n/a	REC_WORD	7684895	wordpools/wasnorm_wordpool_576.txt	LTP364	ltpFR2	2	17	CARRIAGE	248	n/a	n/a	0	0	0
3754.17822265625	n/a	REC_WORD	7688557	wordpools/wasnorm_wordpool_576.txt	LTP364	ltpFR2	2	17	ZIPPER	1636	n/a	n/a	0	0	0
3754.9892578125	n/a	REC_WORD	7690218	wordpools/wasnorm_wordpool_576.txt	LTP364	ltpFR2	2	17	DENIM	446	n/a	n/a	0	0	0
3763.26025390625	n/a	REC_WORD	7707157	wordpools/wasnorm_wordpool_576.txt	LTP364	ltpFR2	2	17	TWEEZERS	1526	n/a	n/a	0	0	0
3764.85400390625	n/a	REC_WORD	7710421	wordpools/wasnorm_wordpool_576.txt	LTP364	ltpFR2	2	17	BRIEFCASE	175	n/a	n/a	0	0	0
3766.1279296875	n/a	REC_WORD	7713030	wordpools/wasnorm_wordpool_576.txt	LTP364	ltpFR2	2	17	TYPIST	1532	n/a	n/a	0	0	0
3767.28076171875	n/a	REC_WORD	7715391	wordpools/wasnorm_wordpool_576.txt	LTP364	ltpFR2	2	17	CONCERT	360	n/a	n/a	0	0	0
3768.47900390625	n/a	REC_WORD	7717845	wordpools/wasnorm_wordpool_576.txt	LTP364	ltpFR2	2	17	BUBBLE	183	n/a	n/a	0	0	0
3773.96875	n/a	REC_WORD	7729088	wordpools/wasnorm_wordpool_576.txt	LTP364	ltpFR2	2	17	STALLION	1369	n/a	n/a	0	0	0
3781.0576171875	n/a	REC_WORD	7743606	wordpools/wasnorm_wordpool_576.txt	LTP364	ltpFR2	2	17	RIVER	1194	n/a	n/a	0	0	0
3782.4033203125	n/a	REC_WORD	7746362	wordpools/wasnorm_wordpool_576.txt	LTP364	ltpFR2	2	17	RAFT	1159	n/a	n/a	0	0	0
3783.66162109375	n/a	REC_WORD	7748939	wordpools/wasnorm_wordpool_576.txt	LTP364	ltpFR2	2	17	CATTLE	261	n/a	n/a	0	0	0
3786.66943359375	n/a	REC_WORD	7755099	wordpools/wasnorm_wordpool_576.txt	LTP364	ltpFR2	2	17	PROTON	1132	n/a	n/a	0	0	0
3794.85693359375	n/a	REC_WORD	7771867	wordpools/wasnorm_wordpool_576.txt	LTP364	ltpFR2	2	17	NEUTRON	947	n/a	n/a	0	0	0
3796.27099609375	n/a	REC_WORD	7774763	wordpools/wasnorm_wordpool_576.txt	LTP364	ltpFR2	2	17	SEAL	1262	n/a	n/a	0	0	0
3800.25	n/a	REC_WORD	7782912	wordpools/wasnorm_wordpool_576.txt	LTP364	ltpFR2	2	17	WIDOW	1608	n/a	n/a	0	0	0
3816.08447265625	n/a	REC_WORD	7815341	wordpools/wasnorm_wordpool_576.txt	LTP364	ltpFR2	2	17	CASTLE	256	n/a	n/a	0	0	0
3836.64013671875	n/a	WORD	7857439	wordpools/wasnorm_wordpool_576.txt	LTP364	ltpFR2	2	18	BULLET	194	n/a	n/a	0	0	0
3839.07080078125	n/a	WORD	7862417	wordpools/wasnorm_wordpool_576.txt	LTP364	ltpFR2	2	18	SHORTS	1293	n/a	n/a	0	0	0
3841.70361328125	n/a	WORD	7867809	wordpools/wasnorm_wordpool_576.txt	LTP364	ltpFR2	2	18	HAMPER	682	n/a	n/a	0	0	0
3844.31884765625	n/a	WORD	7873165	wordpools/wasnorm_wordpool_576.txt	LTP364	ltpFR2	2	18	KITCHEN	778	n/a	n/a	0	0	0
3846.75146484375	n/a	WORD	7878147	wordpools/wasnorm_wordpool_576.txt	LTP364	ltpFR2	2	18	SNACK	1331	n/a	n/a	0	0	0
3849.54931640625	n/a	WORD	7883877	wordpools/wasnorm_wordpool_576.txt	LTP364	ltpFR2	2	18	BOUQUET	157	n/a	n/a	0	0	0
3852.04736328125	n/a	WORD	7888993	wordpools/wasnorm_wordpool_576.txt	LTP364	ltpFR2	2	18	DRAGON	492	n/a	n/a	0	0	0
3854.63037109375	n/a	WORD	7894283	wordpools/wasnorm_wordpool_576.txt	LTP364	ltpFR2	2	18	WHISKERS	1605	n/a	n/a	0	0	0
3857.26220703125	n/a	WORD	7899673	wordpools/wasnorm_wordpool_576.txt	LTP364	ltpFR2	2	18	SHRUB	1299	n/a	n/a	0	0	0
3859.92724609375	n/a	WORD	7905131	wordpools/wasnorm_wordpool_576.txt	LTP364	ltpFR2	2	18	SPIDER	1351	n/a	n/a	0	0	0
3862.51025390625	n/a	WORD	7910421	wordpools/wasnorm_wordpool_576.txt	LTP364	ltpFR2	2	18	PLAID	1080	n/a	n/a	0	0	0
3865.10791015625	n/a	WORD	7915741	wordpools/wasnorm_wordpool_576.txt	LTP364	ltpFR2	2	18	DASHBOARD	441	n/a	n/a	0	0	0
3867.72412109375	n/a	WORD	7921099	wordpools/wasnorm_wordpool_576.txt	LTP364	ltpFR2	2	18	QUARTER	1148	n/a	n/a	0	0	0
3870.39013671875	n/a	WORD	7926559	wordpools/wasnorm_wordpool_576.txt	LTP364	ltpFR2	2	18	CASHIER	254	n/a	n/a	0	0	0
3873.20361328125	n/a	WORD	7932321	wordpools/wasnorm_wordpool_576.txt	LTP364	ltpFR2	2	18	OUTLAW	989	n/a	n/a	0	0	0
3876.03564453125	n/a	WORD	7938121	wordpools/wasnorm_wordpool_576.txt	LTP364	ltpFR2	2	18	LION	827	n/a	n/a	0	0	0
