onset	duration	trial_type	sample	stim_file	subject	experiment	session	trial	task	item_name	item_num	recog_resp	recog_conf	resp	color_r	color_g	color_b	case	font
258.128	n/a	SESS_START	129064	n/a	LTP196	ltpFR	5	n/a	n/a	n/a	n/a	0	3	n/a	n/a	n/a	n/a	n/a	n/a
305.616	n/a	WORD	152808	wordpools/wasnorm_wordpool_less_exclusions.txt	LTP196	ltpFR	5	1	1	SCARECROW	1245	1	n/a	1	0.57763671875	0.412841796875	1	upper	amplitud.ttf
309.61	n/a	WORD	154805	wordpools/wasnorm_wordpool_less_exclusions.txt	LTP196	ltpFR	5	1	1	RAIL	1161	n/a	n/a	0	0.57763671875	0.412841796875	1	upper	amplitud.ttf
313.504	n/a	WORD	156752	wordpools/wasnorm_wordpool_less_exclusions.txt	LTP196	ltpFR	5	1	1	CONCERT	360	n/a	n/a	0	0.57763671875	0.412841796875	1	upper	amplitud.ttf
317.714	n/a	WORD	158857	wordpools/wasnorm_wordpool_less_exclusions.txt	LTP196	ltpFR	5	1	0	COMPANION	357	n/a	n/a	1	0.422607421875	0.5869140625	0	lower	zerothre.ttf
321.574	n/a	WORD	160787	wordpools/wasnorm_wordpool_less_exclusions.txt	LTP196	ltpFR	5	1	0	BOYFRIEND	162	n/a	n/a	1	0.422607421875	0.5869140625	0	lower	zerothre.ttf
325.586	n/a	WORD	162793	wordpools/wasnorm_wordpool_less_exclusions.txt	LTP196	ltpFR	5	1	0	ANCHOR	21	n/a	n/a	0	0.422607421875	0.5869140625	0	lower	zerothre.ttf
329.48	n/a	WORD	164740	wordpools/wasnorm_wordpool_less_exclusions.txt	LTP196	ltpFR	5	1	0	CARDINAL	244	n/a	n/a	1	0.422607421875	0.5869140625	0	lower	zerothre.ttf
333.406	n/a	WORD	166703	wordpools/wasnorm_wordpool_less_exclusions.txt	LTP196	ltpFR	5	1	1	BADGE	68	n/a	n/a	0	0.57763671875	0.412841796875	1	upper	amplitud.ttf
337.468	n/a	WORD	168734	wordpools/wasnorm_wordpool_less_exclusions.txt	LTP196	ltpFR	5	1	1	DEPUTY	450	n/a	n/a	1	0.57763671875	0.412841796875	1	upper	amplitud.ttf
341.362	n/a	WORD	170681	wordpools/wasnorm_wordpool_less_exclusions.txt	LTP196	ltpFR	5	1	0	CEREAL	272	n/a	n/a	0	0.422607421875	0.5869140625	0	lower	zerothre.ttf
345.272	n/a	WORD	172636	wordpools/wasnorm_wordpool_less_exclusions.txt	LTP196	ltpFR	5	1	0	GRAPE	654	n/a	n/a	0	0.422607421875	0.5869140625	0	lower	zerothre.ttf
349.366	n/a	WORD	174683	wordpools/wasnorm_wordpool_less_exclusions.txt	LTP196	ltpFR	5	1	0	HEART	697	n/a	n/a	0	0.422607421875	0.5869140625	0	lower	zerothre.ttf
353.444	n/a	WORD	176722	wordpools/wasnorm_wordpool_less_exclusions.txt	LTP196	ltpFR	5	1	0	COCKTAIL	338	n/a	n/a	0	0.422607421875	0.5869140625	0	lower	zerothre.ttf
357.404	n/a	WORD	178702	wordpools/wasnorm_wordpool_less_exclusions.txt	LTP196	ltpFR	5	1	1	DOCK	477	n/a	n/a	0	0.57763671875	0.412841796875	1	upper	amplitud.ttf
361.566	n/a	WORD	180783	wordpools/wasnorm_wordpool_less_exclusions.txt	LTP196	ltpFR	5	1	1	CREATURE	403	n/a	n/a	1	0.57763671875	0.412841796875	1	upper	amplitud.ttf
365.61	n/a	WORD	182805	wordpools/wasnorm_wordpool_less_exclusions.txt	LTP196	ltpFR	5	1	1	LOUNGE	845	n/a	n/a	0	0.57763671875	0.412841796875	1	upper	amplitud.ttf
371.486	n/a	REC_START	185743	n/a	LTP196	ltpFR	5	1	n/a	n/a	n/a	n/a	n/a	n/a	n/a	n/a	n/a	n/a	n/a
375.83	n/a	REC_WORD	187915	wordpools/wasnorm_wordpool_less_exclusions.txt	LTP196	ltpFR	5	1	0	CARDINAL	244	n/a	n/a	1	n/a	n/a	n/a	n/a	n/a
378.334	n/a	REC_WORD	189167	wordpools/wasnorm_wordpool_less_exclusions.txt	LTP196	ltpFR	5	1	n/a	TRAIN	1494	n/a	n/a	n/a	n/a	n/a	n/a	n/a	n/a
380.834	n/a	REC_WORD	190417	wordpools/wasnorm_wordpool_less_exclusions.txt	LTP196	ltpFR	5	1	0	BOYFRIEND	162	n/a	n/a	1	n/a	n/a	n/a	n/a	n/a
382.97	n/a	REC_WORD	191485	wordpools/wasnorm_wordpool_less_exclusions.txt	LTP196	ltpFR	5	1	1	CONCERT	360	n/a	n/a	0	n/a	n/a	n/a	n/a	n/a
385.598	n/a	REC_WORD	192799	wordpools/wasnorm_wordpool_less_exclusions.txt	LTP196	ltpFR	5	1	1	DOCK	477	n/a	n/a	0	n/a	n/a	n/a	n/a	n/a
388.088	n/a	REC_WORD	194044	wordpools/wasnorm_wordpool_less_exclusions.txt	LTP196	ltpFR	5	1	0	GRAPE	654	n/a	n/a	0	n/a	n/a	n/a	n/a	n/a
390.572	n/a	REC_WORD	195286	wordpools/wasnorm_wordpool_less_exclusions.txt	LTP196	ltpFR	5	1	0	CEREAL	272	n/a	n/a	0	n/a	n/a	n/a	n/a	n/a
392.302	n/a	REC_WORD	196151	wordpools/wasnorm_wordpool_less_exclusions.txt	LTP196	ltpFR	5	1	0	HEART	697	n/a	n/a	0	n/a	n/a	n/a	n/a	n/a
394.612	n/a	REC_WORD	197306	wordpools/wasnorm_wordpool_less_exclusions.txt	LTP196	ltpFR	5	1	1	BADGE	68	n/a	n/a	0	n/a	n/a	n/a	n/a	n/a
412.018	n/a	REC_WORD	206009	wordpools/wasnorm_wordpool_less_exclusions.txt	LTP196	ltpFR	5	1	0	ANCHOR	21	n/a	n/a	0	n/a	n/a	n/a	n/a	n/a
418.614	n/a	REC_WORD	209307	wordpools/wasnorm_wordpool_less_exclusions.txt	LTP196	ltpFR	5	1	n/a	PARROT	1015	n/a	n/a	n/a	n/a	n/a	n/a	n/a	n/a
425.598	n/a	REC_WORD	212799	wordpools/wasnorm_wordpool_less_exclusions.txt	LTP196	ltpFR	5	1	1	DEPUTY	450	n/a	n/a	1	n/a	n/a	n/a	n/a	n/a
450.418	n/a	WORD	225209	wordpools/wasnorm_wordpool_less_exclusions.txt	LTP196	ltpFR	5	2	0	WINDSHIELD	1612	n/a	n/a	1	0.422607421875	0.5869140625	0	lower	zerothre.ttf
454.362	n/a	WORD	227181	wordpools/wasnorm_wordpool_less_exclusions.txt	LTP196	ltpFR	5	2	0	OATS	968	n/a	n/a	0	0.422607421875	0.5869140625	0	lower	zerothre.ttf
458.506	n/a	WORD	229253	wordpools/wasnorm_wordpool_less_exclusions.txt	LTP196	ltpFR	5	2	0	SPONGE	1355	n/a	n/a	0	0.422607421875	0.5869140625	0	lower	zerothre.ttf
462.6	n/a	WORD	231300	wordpools/wasnorm_wordpool_less_exclusions.txt	LTP196	ltpFR	5	2	1	CANAL	226	n/a	n/a	0	0.57763671875	0.412841796875	1	upper	amplitud.ttf
466.494	n/a	WORD	233247	wordpools/wasnorm_wordpool_less_exclusions.txt	LTP196	ltpFR	5	2	1	HOOP	716	n/a	n/a	0	0.57763671875	0.412841796875	1	upper	amplitud.ttf
470.654	n/a	WORD	235327	wordpools/wasnorm_wordpool_less_exclusions.txt	LTP196	ltpFR	5	2	1	DRIVEWAY	500	n/a	n/a	0	0.57763671875	0.412841796875	1	upper	amplitud.ttf
474.498	n/a	WORD	237249	wordpools/wasnorm_wordpool_less_exclusions.txt	LTP196	ltpFR	5	2	1	SPARROW	1347	n/a	n/a	0	0.57763671875	0.412841796875	1	upper	amplitud.ttf
478.492	n/a	WORD	239246	wordpools/wasnorm_wordpool_less_exclusions.txt	LTP196	ltpFR	5	2	1	SCAPEGOAT	1244	n/a	n/a	0	0.57763671875	0.412841796875	1	upper	amplitud.ttf
482.586	n/a	WORD	241293	wordpools/wasnorm_wordpool_less_exclusions.txt	LTP196	ltpFR	5	2	1	HELMET	702	n/a	n/a	0	0.57763671875	0.412841796875	1	upper	amplitud.ttf
486.714	n/a	WORD	243357	wordpools/wasnorm_wordpool_less_exclusions.txt	LTP196	ltpFR	5	2	0	STADIUM	1364	n/a	n/a	1	0.422607421875	0.5869140625	0	lower	zerothre.ttf
490.892	n/a	WORD	245446	wordpools/wasnorm_wordpool_less_exclusions.txt	LTP196	ltpFR	5	2	0	STAKE	1368	n/a	n/a	1	0.422607421875	0.5869140625	0	lower	zerothre.ttf
495.034	n/a	WORD	247517	wordpools/wasnorm_wordpool_less_exclusions.txt	LTP196	ltpFR	5	2	0	CARPENTER	246	n/a	n/a	1	0.422607421875	0.5869140625	0	lower	zerothre.ttf
499.112	n/a	WORD	249556	wordpools/wasnorm_wordpool_less_exclusions.txt	LTP196	ltpFR	5	2	0	CORPORATION	382	n/a	n/a	1	0.422607421875	0.5869140625	0	lower	zerothre.ttf
503.088	n/a	WORD	251544	wordpools/wasnorm_wordpool_less_exclusions.txt	LTP196	ltpFR	5	2	0	OYSTER	995	n/a	n/a	0	0.422607421875	0.5869140625	0	lower	zerothre.ttf
506.934	n/a	WORD	253467	wordpools/wasnorm_wordpool_less_exclusions.txt	LTP196	ltpFR	5	2	1	DONKEY	484	n/a	n/a	0	0.57763671875	0.412841796875	1	upper	amplitud.ttf
511.06	n/a	WORD	255530	wordpools/wasnorm_wordpool_less_exclusions.txt	LTP196	ltpFR	5	2	1	BILL	126	n/a	n/a	0	0.57763671875	0.412841796875	1	upper	amplitud.ttf
517.036	n/a	REC_START	258518	n/a	LTP196	ltpFR	5	2	n/a	n/a	n/a	n/a	n/a	n/a	n/a	n/a	n/a	n/a	n/a
519.874	n/a	REC_WORD	259937	wordpools/wasnorm_wordpool_less_exclusions.txt	LTP196	ltpFR	5	2	1	CANAL	226	n/a	n/a	0	n/a	n/a	n/a	n/a	n/a
521.432	n/a	REC_WORD	260716	wordpools/wasnorm_wordpool_less_exclusions.txt	LTP196	ltpFR	5	2	0	WINDSHIELD	1612	n/a	n/a	1	n/a	n/a	n/a	n/a	n/a
523.422	n/a	REC_WORD	261711	wordpools/wasnorm_wordpool_less_exclusions.txt	LTP196	ltpFR	5	2	0	OATS	968	n/a	n/a	0	n/a	n/a	n/a	n/a	n/a
524.574	n/a	REC_WORD	262287	wordpools/wasnorm_wordpool_less_exclusions.txt	LTP196	ltpFR	5	2	0	SPONGE	1355	n/a	n/a	0	n/a	n/a	n/a	n/a	n/a
525.574	n/a	REC_WORD_VV	262787	wordpools/wasnorm_wordpool_less_exclusions.txt	LTP196	ltpFR	5	2	n/a	<>	-1	n/a	n/a	n/a	n/a	n/a	n/a	n/a	n/a
527.218	n/a	REC_WORD	263609	wordpools/wasnorm_wordpool_less_exclusions.txt	LTP196	ltpFR	5	2	1	DRIVEWAY	500	n/a	n/a	0	n/a	n/a	n/a	n/a	n/a
531.138	n/a	REC_WORD	265569	wordpools/wasnorm_wordpool_less_exclusions.txt	LTP196	ltpFR	5	2	1	SPARROW	1347	n/a	n/a	0	n/a	n/a	n/a	n/a	n/a
537.25	n/a	REC_WORD	268625	wordpools/wasnorm_wordpool_less_exclusions.txt	LTP196	ltpFR	5	2	1	SCAPEGOAT	1244	n/a	n/a	0	n/a	n/a	n/a	n/a	n/a
540.234	n/a	REC_WORD	270117	wordpools/wasnorm_wordpool_less_exclusions.txt	LTP196	ltpFR	5	2	0	OYSTER	995	n/a	n/a	0	n/a	n/a	n/a	n/a	n/a
542.946	n/a	REC_WORD	271473	wordpools/wasnorm_wordpool_less_exclusions.txt	LTP196	ltpFR	5	2	0	STADIUM	1364	n/a	n/a	1	n/a	n/a	n/a	n/a	n/a
546.07	n/a	REC_WORD	273035	wordpools/wasnorm_wordpool_less_exclusions.txt	LTP196	ltpFR	5	2	0	CORPORATION	382	n/a	n/a	1	n/a	n/a	n/a	n/a	n/a
581.36	n/a	REC_WORD	290680	wordpools/wasnorm_wordpool_less_exclusions.txt	LTP196	ltpFR	5	2	0	CARPENTER	246	n/a	n/a	1	n/a	n/a	n/a	n/a	n/a
595.82	n/a	WORD	297910	wordpools/wasnorm_wordpool_less_exclusions.txt	LTP196	ltpFR	5	3	-1	OVEN	991	n/a	n/a	-1	1.0	1.0	1	upper	Verdana.ttf
599.846	n/a	WORD	299923	wordpools/wasnorm_wordpool_less_exclusions.txt	LTP196	ltpFR	5	3	-1	SEED	1266	n/a	n/a	-1	1.0	1.0	1	upper	Verdana.ttf
603.774	n/a	WORD	301887	wordpools/wasnorm_wordpool_less_exclusions.txt	LTP196	ltpFR	5	3	-1	POCKET	1093	n/a	n/a	-1	1.0	1.0	1	upper	Verdana.ttf
607.752	n/a	WORD	303876	wordpools/wasnorm_wordpool_less_exclusions.txt	LTP196	ltpFR	5	3	-1	WILDERNESS	1610	n/a	n/a	-1	1.0	1.0	1	upper	Verdana.ttf
611.78	n/a	WORD	305890	wordpools/wasnorm_wordpool_less_exclusions.txt	LTP196	ltpFR	5	3	-1	KNEE	784	n/a	n/a	-1	1.0	1.0	1	upper	Verdana.ttf
615.874	n/a	WORD	307937	wordpools/wasnorm_wordpool_less_exclusions.txt	LTP196	ltpFR	5	3	-1	JOINT	758	n/a	n/a	-1	1.0	1.0	1	upper	Verdana.ttf
620.082	n/a	WORD	310041	wordpools/wasnorm_wordpool_less_exclusions.txt	LTP196	ltpFR	5	3	-1	IDOL	733	n/a	n/a	-1	1.0	1.0	1	upper	Verdana.ttf
623.912	n/a	WORD	311956	wordpools/wasnorm_wordpool_less_exclusions.txt	LTP196	ltpFR	5	3	-1	MONUMENT	913	n/a	n/a	-1	1.0	1.0	1	upper	Verdana.ttf
627.922	n/a	WORD	313961	wordpools/wasnorm_wordpool_less_exclusions.txt	LTP196	ltpFR	5	3	-1	FLOWER	584	n/a	n/a	-1	1.0	1.0	1	upper	Verdana.ttf
631.766	n/a	WORD	315883	wordpools/wasnorm_wordpool_less_exclusions.txt	LTP196	ltpFR	5	3	-1	ACORN	3	n/a	n/a	-1	1.0	1.0	1	upper	Verdana.ttf
635.594	n/a	WORD	317797	wordpools/wasnorm_wordpool_less_exclusions.txt	LTP196	ltpFR	5	3	-1	KETTLE	772	n/a	n/a	-1	1.0	1.0	1	upper	Verdana.ttf
639.688	n/a	WORD	319844	wordpools/wasnorm_wordpool_less_exclusions.txt	LTP196	ltpFR	5	3	-1	CARAVAN	242	n/a	n/a	-1	1.0	1.0	1	upper	Verdana.ttf
643.732	n/a	WORD	321866	wordpools/wasnorm_wordpool_less_exclusions.txt	LTP196	ltpFR	5	3	-1	CORN	381	n/a	n/a	-1	1.0	1.0	1	upper	Verdana.ttf
647.942	n/a	WORD	323971	wordpools/wasnorm_wordpool_less_exclusions.txt	LTP196	ltpFR	5	3	-1	VEAL	1551	n/a	n/a	-1	1.0	1.0	1	upper	Verdana.ttf
652.018	n/a	WORD	326009	wordpools/wasnorm_wordpool_less_exclusions.txt	LTP196	ltpFR	5	3	-1	OUTDOORS	987	n/a	n/a	-1	1.0	1.0	1	upper	Verdana.ttf
656.03	n/a	WORD	328015	wordpools/wasnorm_wordpool_less_exclusions.txt	LTP196	ltpFR	5	3	-1	MOVIE	927	n/a	n/a	-1	1.0	1.0	1	upper	Verdana.ttf
662.138	n/a	REC_START	331069	n/a	LTP196	ltpFR	5	3	n/a	n/a	n/a	n/a	n/a	n/a	n/a	n/a	n/a	n/a	n/a
666.696	n/a	REC_WORD	333348	wordpools/wasnorm_wordpool_less_exclusions.txt	LTP196	ltpFR	5	3	-1	WILDERNESS	1610	n/a	n/a	-1	n/a	n/a	n/a	n/a	n/a
668.528	n/a	REC_WORD	334264	wordpools/wasnorm_wordpool_less_exclusions.txt	LTP196	ltpFR	5	3	-1	SEED	1266	n/a	n/a	-1	n/a	n/a	n/a	n/a	n/a
670.942	n/a	REC_WORD	335471	wordpools/wasnorm_wordpool_less_exclusions.txt	LTP196	ltpFR	5	3	-1	OVEN	991	n/a	n/a	-1	n/a	n/a	n/a	n/a	n/a
672.744	n/a	REC_WORD	336372	wordpools/wasnorm_wordpool_less_exclusions.txt	LTP196	ltpFR	5	3	-1	KETTLE	772	n/a	n/a	-1	n/a	n/a	n/a	n/a	n/a
676.02	n/a	REC_WORD	338010	wordpools/wasnorm_wordpool_less_exclusions.txt	LTP196	ltpFR	5	3	-1	KNEE	784	n/a	n/a	-1	n/a	n/a	n/a	n/a	n/a
678.186	n/a	REC_WORD	339093	wordpools/wasnorm_wordpool_less_exclusions.txt	LTP196	ltpFR	5	3	-1	JOINT	758	n/a	n/a	-1	n/a	n/a	n/a	n/a	n/a
688.672	n/a	REC_WORD	344336	wordpools/wasnorm_wordpool_less_exclusions.txt	LTP196	ltpFR	5	3	-1	VEAL	1551	n/a	n/a	-1	n/a	n/a	n/a	n/a	n/a
691.192	n/a	REC_WORD	345596	wordpools/wasnorm_wordpool_less_exclusions.txt	LTP196	ltpFR	5	3	-1	OUTDOORS	987	n/a	n/a	-1	n/a	n/a	n/a	n/a	n/a
692.192	n/a	REC_WORD_VV	346096	wordpools/wasnorm_wordpool_less_exclusions.txt	LTP196	ltpFR	5	3	n/a	<>	-1	n/a	n/a	n/a	n/a	n/a	n/a	n/a	n/a
696.78	n/a	REC_WORD	348390	wordpools/wasnorm_wordpool_less_exclusions.txt	LTP196	ltpFR	5	3	-1	MOVIE	927	n/a	n/a	-1	n/a	n/a	n/a	n/a	n/a
730.522	n/a	REC_WORD	365261	wordpools/wasnorm_wordpool_less_exclusions.txt	LTP196	ltpFR	5	3	-1	ACORN	3	n/a	n/a	-1	n/a	n/a	n/a	n/a	n/a
732.254	n/a	REC_WORD	366127	wordpools/wasnorm_wordpool_less_exclusions.txt	LTP196	ltpFR	5	3	-1	CORN	381	n/a	n/a	-1	n/a	n/a	n/a	n/a	n/a
736.564	n/a	REC_WORD	368282	wordpools/wasnorm_wordpool_less_exclusions.txt	LTP196	ltpFR	5	3	-1	FLOWER	584	n/a	n/a	-1	n/a	n/a	n/a	n/a	n/a
743.266	n/a	WORD	371633	wordpools/wasnorm_wordpool_less_exclusions.txt	LTP196	ltpFR	5	4	0	ACTRESS	6	n/a	n/a	1	0.422607421875	0.5869140625	0	lower	zerothre.ttf
747.41	n/a	WORD	373705	wordpools/wasnorm_wordpool_less_exclusions.txt	LTP196	ltpFR	5	4	0	CROOK	412	n/a	n/a	1	0.422607421875	0.5869140625	0	lower	zerothre.ttf
751.404	n/a	WORD	375702	wordpools/wasnorm_wordpool_less_exclusions.txt	LTP196	ltpFR	5	4	0	OUTLAW	989	n/a	n/a	1	0.422607421875	0.5869140625	0	lower	zerothre.ttf
755.498	n/a	WORD	377749	wordpools/wasnorm_wordpool_less_exclusions.txt	LTP196	ltpFR	5	4	0	SPINACH	1352	n/a	n/a	0	0.422607421875	0.5869140625	0	lower	zerothre.ttf
759.526	n/a	WORD	379763	wordpools/wasnorm_wordpool_less_exclusions.txt	LTP196	ltpFR	5	4	0	PORCUPINE	1107	n/a	n/a	0	0.422607421875	0.5869140625	0	lower	zerothre.ttf
763.52	n/a	WORD	381760	wordpools/wasnorm_wordpool_less_exclusions.txt	LTP196	ltpFR	5	4	0	DIARY	460	n/a	n/a	0	0.422607421875	0.5869140625	0	lower	zerothre.ttf
767.432	n/a	WORD	383716	wordpools/wasnorm_wordpool_less_exclusions.txt	LTP196	ltpFR	5	4	0	BABY	64	n/a	n/a	0	0.422607421875	0.5869140625	0	lower	zerothre.ttf
771.442	n/a	WORD	385721	wordpools/wasnorm_wordpool_less_exclusions.txt	LTP196	ltpFR	5	4	0	POSSUM	1112	n/a	n/a	1	0.422607421875	0.5869140625	0	lower	zerothre.ttf
775.37	n/a	WORD	387685	wordpools/wasnorm_wordpool_less_exclusions.txt	LTP196	ltpFR	5	4	0	CUE	422	n/a	n/a	0	0.422607421875	0.5869140625	0	lower	zerothre.ttf
779.314	n/a	WORD	389657	wordpools/wasnorm_wordpool_less_exclusions.txt	LTP196	ltpFR	5	4	0	FACE	547	n/a	n/a	0	0.422607421875	0.5869140625	0	lower	zerothre.ttf
783.224	n/a	WORD	391612	wordpools/wasnorm_wordpool_less_exclusions.txt	LTP196	ltpFR	5	4	0	CAP	236	n/a	n/a	0	0.422607421875	0.5869140625	0	lower	zerothre.ttf
787.418	n/a	WORD	393709	wordpools/wasnorm_wordpool_less_exclusions.txt	LTP196	ltpFR	5	4	0	ZOO	1637	n/a	n/a	0	0.422607421875	0.5869140625	0	lower	zerothre.ttf
791.428	n/a	WORD	395714	wordpools/wasnorm_wordpool_less_exclusions.txt	LTP196	ltpFR	5	4	0	ORANGE	980	n/a	n/a	0	0.422607421875	0.5869140625	0	lower	zerothre.ttf
795.324	n/a	WORD	397662	wordpools/wasnorm_wordpool_less_exclusions.txt	LTP196	ltpFR	5	4	0	SLEEVE	1324	n/a	n/a	0	0.422607421875	0.5869140625	0	lower	zerothre.ttf
799.284	n/a	WORD	399642	wordpools/wasnorm_wordpool_less_exclusions.txt	LTP196	ltpFR	5	4	0	TROUSERS	1510	n/a	n/a	0	0.422607421875	0.5869140625	0	lower	zerothre.ttf
803.194	n/a	WORD	401597	wordpools/wasnorm_wordpool_less_exclusions.txt	LTP196	ltpFR	5	4	0	LEMON	810	n/a	n/a	0	0.422607421875	0.5869140625	0	lower	zerothre.ttf
808.838	n/a	REC_START	404419	n/a	LTP196	ltpFR	5	4	n/a	n/a	n/a	n/a	n/a	n/a	n/a	n/a	n/a	n/a	n/a
811.606	n/a	REC_WORD	405803	wordpools/wasnorm_wordpool_less_exclusions.txt	LTP196	ltpFR	5	4	0	ORANGE	980	n/a	n/a	0	n/a	n/a	n/a	n/a	n/a
812.658	n/a	REC_WORD	406329	wordpools/wasnorm_wordpool_less_exclusions.txt	LTP196	ltpFR	5	4	0	LEMON	810	n/a	n/a	0	n/a	n/a	n/a	n/a	n/a
813.59	n/a	REC_WORD	406795	wordpools/wasnorm_wordpool_less_exclusions.txt	LTP196	ltpFR	5	4	0	SLEEVE	1324	n/a	n/a	0	n/a	n/a	n/a	n/a	n/a
815.666	n/a	REC_WORD	407833	wordpools/wasnorm_wordpool_less_exclusions.txt	LTP196	ltpFR	5	4	0	BABY	64	n/a	n/a	0	n/a	n/a	n/a	n/a	n/a
818.724	n/a	REC_WORD	409362	wordpools/wasnorm_wordpool_less_exclusions.txt	LTP196	ltpFR	5	4	0	POSSUM	1112	n/a	n/a	1	n/a	n/a	n/a	n/a	n/a
856.69	n/a	REC_WORD	428345	wordpools/wasnorm_wordpool_less_exclusions.txt	LTP196	ltpFR	5	4	0	TROUSERS	1510	n/a	n/a	0	n/a	n/a	n/a	n/a	n/a
864.292	n/a	REC_WORD	432146	wordpools/wasnorm_wordpool_less_exclusions.txt	LTP196	ltpFR	5	4	0	ORANGE	980	n/a	n/a	0	n/a	n/a	n/a	n/a	n/a
888.768	n/a	WORD	444384	wordpools/wasnorm_wordpool_less_exclusions.txt	LTP196	ltpFR	5	5	0	TOAD	1470	n/a	n/a	0	0.422607421875	0.5869140625	0	lower	zerothre.ttf
892.846	n/a	WORD	446423	wordpools/wasnorm_wordpool_less_exclusions.txt	LTP196	ltpFR	5	5	0	CHEDDAR	286	n/a	n/a	0	0.422607421875	0.5869140625	0	lower	zerothre.ttf
896.89	n/a	WORD	448445	wordpools/wasnorm_wordpool_less_exclusions.txt	LTP196	ltpFR	5	5	0	SHRIMP	1297	n/a	n/a	0	0.422607421875	0.5869140625	0	lower	zerothre.ttf
900.8	n/a	WORD	450400	wordpools/wasnorm_wordpool_less_exclusions.txt	LTP196	ltpFR	5	5	0	MARKET	871	n/a	n/a	0	0.422607421875	0.5869140625	0	lower	zerothre.ttf
904.744	n/a	WORD	452372	wordpools/wasnorm_wordpool_less_exclusions.txt	LTP196	ltpFR	5	5	0	PIPE	1073	n/a	n/a	0	0.422607421875	0.5869140625	0	lower	zerothre.ttf
908.838	n/a	WORD	454419	wordpools/wasnorm_wordpool_less_exclusions.txt	LTP196	ltpFR	5	5	0	MARINE	869	n/a	n/a	0	0.422607421875	0.5869140625	0	lower	zerothre.ttf
912.766	n/a	WORD	456383	wordpools/wasnorm_wordpool_less_exclusions.txt	LTP196	ltpFR	5	5	1	LONDON	843	n/a	n/a	0	0.57763671875	0.412841796875	1	upper	amplitud.ttf
916.976	n/a	WORD	458488	wordpools/wasnorm_wordpool_less_exclusions.txt	LTP196	ltpFR	5	5	1	WICK	1607	n/a	n/a	0	0.57763671875	0.412841796875	1	upper	amplitud.ttf
921.136	n/a	WORD	460568	wordpools/wasnorm_wordpool_less_exclusions.txt	LTP196	ltpFR	5	5	1	CHEESE	289	n/a	n/a	0	0.57763671875	0.412841796875	1	upper	amplitud.ttf
925.296	n/a	WORD	462648	wordpools/wasnorm_wordpool_less_exclusions.txt	LTP196	ltpFR	5	5	1	FEATHER	557	n/a	n/a	0	0.57763671875	0.412841796875	1	upper	amplitud.ttf
929.492	n/a	WORD	464746	wordpools/wasnorm_wordpool_less_exclusions.txt	LTP196	ltpFR	5	5	1	PIGEON	1065	n/a	n/a	1	0.57763671875	0.412841796875	1	upper	amplitud.ttf
933.652	n/a	WORD	466826	wordpools/wasnorm_wordpool_less_exclusions.txt	LTP196	ltpFR	5	5	1	CART	250	n/a	n/a	0	0.57763671875	0.412841796875	1	upper	amplitud.ttf
937.714	n/a	WORD	468857	wordpools/wasnorm_wordpool_less_exclusions.txt	LTP196	ltpFR	5	5	0	BEAN	105	n/a	n/a	0	0.422607421875	0.5869140625	0	lower	zerothre.ttf
941.556	n/a	WORD	470778	wordpools/wasnorm_wordpool_less_exclusions.txt	LTP196	ltpFR	5	5	0	ASSISTANT	48	n/a	n/a	1	0.422607421875	0.5869140625	0	lower	zerothre.ttf
945.684	n/a	WORD	472842	wordpools/wasnorm_wordpool_less_exclusions.txt	LTP196	ltpFR	5	5	1	BOSS	152	n/a	n/a	1	0.57763671875	0.412841796875	1	upper	amplitud.ttf
949.712	n/a	WORD	474856	wordpools/wasnorm_wordpool_less_exclusions.txt	LTP196	ltpFR	5	5	1	PLAZA	1088	n/a	n/a	0	0.57763671875	0.412841796875	1	upper	amplitud.ttf
955.602	n/a	REC_START	477801	n/a	LTP196	ltpFR	5	5	n/a	n/a	n/a	n/a	n/a	n/a	n/a	n/a	n/a	n/a	n/a
961.274	n/a	REC_WORD	480637	wordpools/wasnorm_wordpool_less_exclusions.txt	LTP196	ltpFR	5	5	0	TOAD	1470	n/a	n/a	0	n/a	n/a	n/a	n/a	n/a
963.23	n/a	REC_WORD	481615	wordpools/wasnorm_wordpool_less_exclusions.txt	LTP196	ltpFR	5	5	0	SHRIMP	1297	n/a	n/a	0	n/a	n/a	n/a	n/a	n/a
964.428	n/a	REC_WORD	482214	wordpools/wasnorm_wordpool_less_exclusions.txt	LTP196	ltpFR	5	5	0	CHEDDAR	286	n/a	n/a	0	n/a	n/a	n/a	n/a	n/a
964.942	n/a	REC_WORD	482471	wordpools/wasnorm_wordpool_less_exclusions.txt	LTP196	ltpFR	5	5	1	CHEESE	289	n/a	n/a	0	n/a	n/a	n/a	n/a	n/a
966.462	n/a	REC_WORD	483231	wordpools/wasnorm_wordpool_less_exclusions.txt	LTP196	ltpFR	5	5	1	CHEESE	289	n/a	n/a	0	n/a	n/a	n/a	n/a	n/a
969.52	n/a	REC_WORD	484760	wordpools/wasnorm_wordpool_less_exclusions.txt	LTP196	ltpFR	5	5	0	PIPE	1073	n/a	n/a	0	n/a	n/a	n/a	n/a	n/a
972.952	n/a	REC_WORD	486476	wordpools/wasnorm_wordpool_less_exclusions.txt	LTP196	ltpFR	5	5	1	BOSS	152	n/a	n/a	1	n/a	n/a	n/a	n/a	n/a
975.492	n/a	REC_WORD	487746	wordpools/wasnorm_wordpool_less_exclusions.txt	LTP196	ltpFR	5	5	1	LONDON	843	n/a	n/a	0	n/a	n/a	n/a	n/a	n/a
977.398	n/a	REC_WORD	488699	wordpools/wasnorm_wordpool_less_exclusions.txt	LTP196	ltpFR	5	5	1	PLAZA	1088	n/a	n/a	0	n/a	n/a	n/a	n/a	n/a
979.518	n/a	REC_WORD	489759	wordpools/wasnorm_wordpool_less_exclusions.txt	LTP196	ltpFR	5	5	1	WICK	1607	n/a	n/a	0	n/a	n/a	n/a	n/a	n/a
999.288	n/a	REC_WORD	499644	wordpools/wasnorm_wordpool_less_exclusions.txt	LTP196	ltpFR	5	5	0	MARINE	869	n/a	n/a	0	n/a	n/a	n/a	n/a	n/a
1034.502	n/a	WORD	517251	wordpools/wasnorm_wordpool_less_exclusions.txt	LTP196	ltpFR	5	6	-1	PAINT	1003	n/a	n/a	-1	1.0	1.0	1	upper	Verdana.ttf
1038.646	n/a	WORD	519323	wordpools/wasnorm_wordpool_less_exclusions.txt	LTP196	ltpFR	5	6	-1	HEAD	695	n/a	n/a	-1	1.0	1.0	1	upper	Verdana.ttf
1042.474	n/a	WORD	521237	wordpools/wasnorm_wordpool_less_exclusions.txt	LTP196	ltpFR	5	6	-1	VEST	1559	n/a	n/a	-1	1.0	1.0	1	upper	Verdana.ttf
1046.534	n/a	WORD	523267	wordpools/wasnorm_wordpool_less_exclusions.txt	LTP196	ltpFR	5	6	-1	HOOK	715	n/a	n/a	-1	1.0	1.0	1	upper	Verdana.ttf
1050.728	n/a	WORD	525364	wordpools/wasnorm_wordpool_less_exclusions.txt	LTP196	ltpFR	5	6	-1	SCALLOP	1242	n/a	n/a	-1	1.0	1.0	1	upper	Verdana.ttf
1054.79	n/a	WORD	527395	wordpools/wasnorm_wordpool_less_exclusions.txt	LTP196	ltpFR	5	6	-1	HINGE	709	n/a	n/a	-1	1.0	1.0	1	upper	Verdana.ttf
1058.884	n/a	WORD	529442	wordpools/wasnorm_wordpool_less_exclusions.txt	LTP196	ltpFR	5	6	-1	LOCK	838	n/a	n/a	-1	1.0	1.0	1	upper	Verdana.ttf
1062.976	n/a	WORD	531488	wordpools/wasnorm_wordpool_less_exclusions.txt	LTP196	ltpFR	5	6	-1	ROAD	1196	n/a	n/a	-1	1.0	1.0	1	upper	Verdana.ttf
1067.136	n/a	WORD	533568	wordpools/wasnorm_wordpool_less_exclusions.txt	LTP196	ltpFR	5	6	-1	VIOLIN	1571	n/a	n/a	-1	1.0	1.0	1	upper	Verdana.ttf
1071.08	n/a	WORD	535540	wordpools/wasnorm_wordpool_less_exclusions.txt	LTP196	ltpFR	5	6	-1	STATUE	1374	n/a	n/a	-1	1.0	1.0	1	upper	Verdana.ttf
1075.108	n/a	WORD	537554	wordpools/wasnorm_wordpool_less_exclusions.txt	LTP196	ltpFR	5	6	-1	KNAPSACK	783	n/a	n/a	-1	1.0	1.0	1	upper	Verdana.ttf
1079.336	n/a	WORD	539668	wordpools/wasnorm_wordpool_less_exclusions.txt	LTP196	ltpFR	5	6	-1	GARBAGE	622	n/a	n/a	-1	1.0	1.0	1	upper	Verdana.ttf
1083.33	n/a	WORD	541665	wordpools/wasnorm_wordpool_less_exclusions.txt	LTP196	ltpFR	5	6	-1	GENTLEMAN	631	n/a	n/a	-1	1.0	1.0	1	upper	Verdana.ttf
1087.456	n/a	WORD	543728	wordpools/wasnorm_wordpool_less_exclusions.txt	LTP196	ltpFR	5	6	-1	OUTFIT	988	n/a	n/a	-1	1.0	1.0	1	upper	Verdana.ttf
1091.518	n/a	WORD	545759	wordpools/wasnorm_wordpool_less_exclusions.txt	LTP196	ltpFR	5	6	-1	LIVER	833	n/a	n/a	-1	1.0	1.0	1	upper	Verdana.ttf
1095.396	n/a	WORD	547698	wordpools/wasnorm_wordpool_less_exclusions.txt	LTP196	ltpFR	5	6	-1	SCULPTURE	1258	n/a	n/a	-1	1.0	1.0	1	upper	Verdana.ttf
1101.27	n/a	REC_START	550635	n/a	LTP196	ltpFR	5	6	n/a	n/a	n/a	n/a	n/a	n/a	n/a	n/a	n/a	n/a	n/a
1103.634	n/a	REC_WORD	551817	wordpools/wasnorm_wordpool_less_exclusions.txt	LTP196	ltpFR	5	6	-1	PAINT	1003	n/a	n/a	-1	n/a	n/a	n/a	n/a	n/a
1105.346	n/a	REC_WORD	552673	wordpools/wasnorm_wordpool_less_exclusions.txt	LTP196	ltpFR	5	6	-1	HEAD	695	n/a	n/a	-1	n/a	n/a	n/a	n/a	n/a
1106.748	n/a	REC_WORD	553374	wordpools/wasnorm_wordpool_less_exclusions.txt	LTP196	ltpFR	5	6	-1	VEST	1559	n/a	n/a	-1	n/a	n/a	n/a	n/a	n/a
1108.23	n/a	REC_WORD	554115	wordpools/wasnorm_wordpool_less_exclusions.txt	LTP196	ltpFR	5	6	-1	HOOK	715	n/a	n/a	-1	n/a	n/a	n/a	n/a	n/a
1109.78	n/a	REC_WORD	554890	wordpools/wasnorm_wordpool_less_exclusions.txt	LTP196	ltpFR	5	6	-1	SCALLOP	1242	n/a	n/a	-1	n/a	n/a	n/a	n/a	n/a
1112.38	n/a	REC_WORD	556190	wordpools/wasnorm_wordpool_less_exclusions.txt	LTP196	ltpFR	5	6	-1	VIOLIN	1571	n/a	n/a	-1	n/a	n/a	n/a	n/a	n/a
1115.458	n/a	REC_WORD	557729	wordpools/wasnorm_wordpool_less_exclusions.txt	LTP196	ltpFR	5	6	-1	OUTFIT	988	n/a	n/a	-1	n/a	n/a	n/a	n/a	n/a
1126.562	n/a	REC_WORD	563281	wordpools/wasnorm_wordpool_less_exclusions.txt	LTP196	ltpFR	5	6	-1	LIVER	833	n/a	n/a	-1	n/a	n/a	n/a	n/a	n/a
1161.862	n/a	REC_WORD	580931	wordpools/wasnorm_wordpool_less_exclusions.txt	LTP196	ltpFR	5	6	-1	KNAPSACK	783	n/a	n/a	-1	n/a	n/a	n/a	n/a	n/a
1179.52	n/a	WORD	589760	wordpools/wasnorm_wordpool_less_exclusions.txt	LTP196	ltpFR	5	7	1	SECRETARY	1265	n/a	n/a	1	0.57763671875	0.412841796875	1	upper	amplitud.ttf
1183.664	n/a	WORD	591832	wordpools/wasnorm_wordpool_less_exclusions.txt	LTP196	ltpFR	5	7	1	ENCYCLOPEDIA	533	n/a	n/a	0	0.57763671875	0.412841796875	1	upper	amplitud.ttf
1187.642	n/a	WORD	593821	wordpools/wasnorm_wordpool_less_exclusions.txt	LTP196	ltpFR	5	7	1	BEAVER	109	n/a	n/a	1	0.57763671875	0.412841796875	1	upper	amplitud.ttf
1191.602	n/a	WORD	595801	wordpools/wasnorm_wordpool_less_exclusions.txt	LTP196	ltpFR	5	7	0	TEACHER	1440	n/a	n/a	0	0.422607421875	0.5869140625	0	lower	zerothre.ttf
1195.498	n/a	WORD	597749	wordpools/wasnorm_wordpool_less_exclusions.txt	LTP196	ltpFR	5	7	0	PUDDLE	1140	n/a	n/a	0	0.422607421875	0.5869140625	0	lower	zerothre.ttf
1199.708	n/a	WORD	599854	wordpools/wasnorm_wordpool_less_exclusions.txt	LTP196	ltpFR	5	7	0	FAUCET	555	n/a	n/a	0	0.422607421875	0.5869140625	0	lower	zerothre.ttf
1203.602	n/a	WORD	601801	wordpools/wasnorm_wordpool_less_exclusions.txt	LTP196	ltpFR	5	7	0	SUITCASE	1403	n/a	n/a	1	0.422607421875	0.5869140625	0	lower	zerothre.ttf
1207.612	n/a	WORD	603806	wordpools/wasnorm_wordpool_less_exclusions.txt	LTP196	ltpFR	5	7	0	HANDBAG	684	n/a	n/a	1	0.422607421875	0.5869140625	0	lower	zerothre.ttf
1211.724	n/a	WORD	605862	wordpools/wasnorm_wordpool_less_exclusions.txt	LTP196	ltpFR	5	7	1	FRANCE	601	n/a	n/a	0	0.57763671875	0.412841796875	1	upper	amplitud.ttf
1215.852	n/a	WORD	607926	wordpools/wasnorm_wordpool_less_exclusions.txt	LTP196	ltpFR	5	7	1	SALMON	1227	n/a	n/a	0	0.57763671875	0.412841796875	1	upper	amplitud.ttf
1219.828	n/a	WORD	609914	wordpools/wasnorm_wordpool_less_exclusions.txt	LTP196	ltpFR	5	7	0	STUDENT	1395	n/a	n/a	1	0.422607421875	0.5869140625	0	lower	zerothre.ttf
1223.772	n/a	WORD	611886	wordpools/wasnorm_wordpool_less_exclusions.txt	LTP196	ltpFR	5	7	0	FUR	615	n/a	n/a	1	0.422607421875	0.5869140625	0	lower	zerothre.ttf
1227.834	n/a	WORD	613917	wordpools/wasnorm_wordpool_less_exclusions.txt	LTP196	ltpFR	5	7	0	MUSTARD	935	n/a	n/a	1	0.422607421875	0.5869140625	0	lower	zerothre.ttf
1231.71	n/a	WORD	615855	wordpools/wasnorm_wordpool_less_exclusions.txt	LTP196	ltpFR	5	7	1	NAPKIN	937	n/a	n/a	0	0.57763671875	0.412841796875	1	upper	amplitud.ttf
1235.804	n/a	WORD	617902	wordpools/wasnorm_wordpool_less_exclusions.txt	LTP196	ltpFR	5	7	1	PAPER	1011	n/a	n/a	0	0.57763671875	0.412841796875	1	upper	amplitud.ttf
1239.748	n/a	WORD	619874	wordpools/wasnorm_wordpool_less_exclusions.txt	LTP196	ltpFR	5	7	1	WATER	1594	n/a	n/a	0	0.57763671875	0.412841796875	1	upper	amplitud.ttf
1245.806	n/a	REC_START	622903	n/a	LTP196	ltpFR	5	7	n/a	n/a	n/a	n/a	n/a	n/a	n/a	n/a	n/a	n/a	n/a
1247.776	n/a	REC_WORD	623888	wordpools/wasnorm_wordpool_less_exclusions.txt	LTP196	ltpFR	5	7	1	SALMON	1227	n/a	n/a	0	n/a	n/a	n/a	n/a	n/a
1249.228	n/a	REC_WORD	624614	wordpools/wasnorm_wordpool_less_exclusions.txt	LTP196	ltpFR	5	7	0	STUDENT	1395	n/a	n/a	1	n/a	n/a	n/a	n/a	n/a
1251.26	n/a	REC_WORD	625630	wordpools/wasnorm_wordpool_less_exclusions.txt	LTP196	ltpFR	5	7	1	NAPKIN	937	n/a	n/a	0	n/a	n/a	n/a	n/a	n/a
1252.342	n/a	REC_WORD	626171	wordpools/wasnorm_wordpool_less_exclusions.txt	LTP196	ltpFR	5	7	1	PAPER	1011	n/a	n/a	0	n/a	n/a	n/a	n/a	n/a
1254.412	n/a	REC_WORD	627206	wordpools/wasnorm_wordpool_less_exclusions.txt	LTP196	ltpFR	5	7	0	MUSTARD	935	n/a	n/a	1	n/a	n/a	n/a	n/a	n/a
1257.28	n/a	REC_WORD	628640	wordpools/wasnorm_wordpool_less_exclusions.txt	LTP196	ltpFR	5	7	1	FRANCE	601	n/a	n/a	0	n/a	n/a	n/a	n/a	n/a
1258.682	n/a	REC_WORD	629341	wordpools/wasnorm_wordpool_less_exclusions.txt	LTP196	ltpFR	5	7	0	HANDBAG	684	n/a	n/a	1	n/a	n/a	n/a	n/a	n/a
1261.426	n/a	REC_WORD	630713	wordpools/wasnorm_wordpool_less_exclusions.txt	LTP196	ltpFR	5	7	0	SUITCASE	1403	n/a	n/a	1	n/a	n/a	n/a	n/a	n/a
1262.426	n/a	REC_WORD_VV	631213	wordpools/wasnorm_wordpool_less_exclusions.txt	LTP196	ltpFR	5	7	n/a	<>	-1	n/a	n/a	n/a	n/a	n/a	n/a	n/a	n/a
1269.512	n/a	REC_WORD	634756	wordpools/wasnorm_wordpool_less_exclusions.txt	LTP196	ltpFR	5	7	1	SECRETARY	1265	n/a	n/a	1	n/a	n/a	n/a	n/a	n/a
1270.738	n/a	REC_WORD	635369	wordpools/wasnorm_wordpool_less_exclusions.txt	LTP196	ltpFR	5	7	1	ENCYCLOPEDIA	533	n/a	n/a	0	n/a	n/a	n/a	n/a	n/a
1271.738	n/a	REC_WORD_VV	635869	wordpools/wasnorm_wordpool_less_exclusions.txt	LTP196	ltpFR	5	7	n/a	<>	-1	n/a	n/a	n/a	n/a	n/a	n/a	n/a	n/a
1275.48	n/a	REC_WORD	637740	wordpools/wasnorm_wordpool_less_exclusions.txt	LTP196	ltpFR	5	7	1	BEAVER	109	n/a	n/a	1	n/a	n/a	n/a	n/a	n/a
1284.654	n/a	REC_WORD	642327	wordpools/wasnorm_wordpool_less_exclusions.txt	LTP196	ltpFR	5	7	0	FAUCET	555	n/a	n/a	0	n/a	n/a	n/a	n/a	n/a
1289.542	n/a	REC_WORD	644771	wordpools/wasnorm_wordpool_less_exclusions.txt	LTP196	ltpFR	5	7	0	FUR	615	n/a	n/a	1	n/a	n/a	n/a	n/a	n/a
1327.068	n/a	WORD	663534	wordpools/wasnorm_wordpool_less_exclusions.txt	LTP196	ltpFR	5	8	1	SPICE	1350	n/a	n/a	0	0.57763671875	0.412841796875	1	upper	amplitud.ttf
1331.23	n/a	WORD	665615	wordpools/wasnorm_wordpool_less_exclusions.txt	LTP196	ltpFR	5	8	1	CABLE	213	n/a	n/a	0	0.57763671875	0.412841796875	1	upper	amplitud.ttf
1335.306	n/a	WORD	667653	wordpools/wasnorm_wordpool_less_exclusions.txt	LTP196	ltpFR	5	8	1	CLIPPERS	324	n/a	n/a	0	0.57763671875	0.412841796875	1	upper	amplitud.ttf
1339.518	n/a	WORD	669759	wordpools/wasnorm_wordpool_less_exclusions.txt	LTP196	ltpFR	5	8	1	CHAMPION	279	n/a	n/a	1	0.57763671875	0.412841796875	1	upper	amplitud.ttf
1343.444	n/a	WORD	671722	wordpools/wasnorm_wordpool_less_exclusions.txt	LTP196	ltpFR	5	8	1	STAIRS	1367	n/a	n/a	1	0.57763671875	0.412841796875	1	upper	amplitud.ttf
1347.406	n/a	WORD	673703	wordpools/wasnorm_wordpool_less_exclusions.txt	LTP196	ltpFR	5	8	1	TWEEZERS	1526	n/a	n/a	0	0.57763671875	0.412841796875	1	upper	amplitud.ttf
1351.516	n/a	WORD	675758	wordpools/wasnorm_wordpool_less_exclusions.txt	LTP196	ltpFR	5	8	1	DASHBOARD	441	n/a	n/a	0	0.57763671875	0.412841796875	1	upper	amplitud.ttf
1355.46	n/a	WORD	677730	wordpools/wasnorm_wordpool_less_exclusions.txt	LTP196	ltpFR	5	8	1	EMPLOYEE	531	n/a	n/a	1	0.57763671875	0.412841796875	1	upper	amplitud.ttf
1359.454	n/a	WORD	679727	wordpools/wasnorm_wordpool_less_exclusions.txt	LTP196	ltpFR	5	8	1	FOLLOWER	589	n/a	n/a	0	0.57763671875	0.412841796875	1	upper	amplitud.ttf
1363.648	n/a	WORD	681824	wordpools/wasnorm_wordpool_less_exclusions.txt	LTP196	ltpFR	5	8	1	MILK	895	n/a	n/a	0	0.57763671875	0.412841796875	1	upper	amplitud.ttf
1367.692	n/a	WORD	683846	wordpools/wasnorm_wordpool_less_exclusions.txt	LTP196	ltpFR	5	8	1	EDITORIAL	517	n/a	n/a	0	0.57763671875	0.412841796875	1	upper	amplitud.ttf
1371.786	n/a	WORD	685893	wordpools/wasnorm_wordpool_less_exclusions.txt	LTP196	ltpFR	5	8	1	EDITOR	516	n/a	n/a	0	0.57763671875	0.412841796875	1	upper	amplitud.ttf
1375.646	n/a	WORD	687823	wordpools/wasnorm_wordpool_less_exclusions.txt	LTP196	ltpFR	5	8	1	REGISTER	1180	n/a	n/a	0	0.57763671875	0.412841796875	1	upper	amplitud.ttf
1379.54	n/a	WORD	689770	wordpools/wasnorm_wordpool_less_exclusions.txt	LTP196	ltpFR	5	8	1	BANK	83	n/a	n/a	0	0.57763671875	0.412841796875	1	upper	amplitud.ttf
1383.634	n/a	WORD	691817	wordpools/wasnorm_wordpool_less_exclusions.txt	LTP196	ltpFR	5	8	1	PLANT	1083	n/a	n/a	0	0.57763671875	0.412841796875	1	upper	amplitud.ttf
1387.646	n/a	WORD	693823	wordpools/wasnorm_wordpool_less_exclusions.txt	LTP196	ltpFR	5	8	1	LIMOUSINE	824	n/a	n/a	0	0.57763671875	0.412841796875	1	upper	amplitud.ttf
1393.238	n/a	REC_START	696619	n/a	LTP196	ltpFR	5	8	n/a	n/a	n/a	n/a	n/a	n/a	n/a	n/a	n/a	n/a	n/a
1395.606	n/a	REC_WORD	697803	wordpools/wasnorm_wordpool_less_exclusions.txt	LTP196	ltpFR	5	8	1	EMPLOYEE	531	n/a	n/a	1	n/a	n/a	n/a	n/a	n/a
1397.064	n/a	REC_WORD	698532	wordpools/wasnorm_wordpool_less_exclusions.txt	LTP196	ltpFR	5	8	1	FOLLOWER	589	n/a	n/a	0	n/a	n/a	n/a	n/a	n/a
1401.134	n/a	REC_WORD	700567	wordpools/wasnorm_wordpool_less_exclusions.txt	LTP196	ltpFR	5	8	1	LIMOUSINE	824	n/a	n/a	0	n/a	n/a	n/a	n/a	n/a
1402.286	n/a	REC_WORD	701143	wordpools/wasnorm_wordpool_less_exclusions.txt	LTP196	ltpFR	5	8	1	PLANT	1083	n/a	n/a	0	n/a	n/a	n/a	n/a	n/a
1425.664	n/a	REC_WORD	712832	wordpools/wasnorm_wordpool_less_exclusions.txt	LTP196	ltpFR	5	8	1	CLIPPERS	324	n/a	n/a	0	n/a	n/a	n/a	n/a	n/a
1427.496	n/a	REC_WORD	713748	wordpools/wasnorm_wordpool_less_exclusions.txt	LTP196	ltpFR	5	8	1	CHAMPION	279	n/a	n/a	1	n/a	n/a	n/a	n/a	n/a
1430.872	n/a	REC_WORD	715436	wordpools/wasnorm_wordpool_less_exclusions.txt	LTP196	ltpFR	5	8	1	CABLE	213	n/a	n/a	0	n/a	n/a	n/a	n/a	n/a
1471.806	n/a	WORD	735903	wordpools/wasnorm_wordpool_less_exclusions.txt	LTP196	ltpFR	5	9	1	LANDSCAPE	799	n/a	n/a	0	0.57763671875	0.412841796875	1	upper	amplitud.ttf
1475.866	n/a	WORD	737933	wordpools/wasnorm_wordpool_less_exclusions.txt	LTP196	ltpFR	5	9	1	GRASS	655	n/a	n/a	0	0.57763671875	0.412841796875	1	upper	amplitud.ttf
1480.008	n/a	WORD	740004	wordpools/wasnorm_wordpool_less_exclusions.txt	LTP196	ltpFR	5	9	1	ENEMY	534	n/a	n/a	0	0.57763671875	0.412841796875	1	upper	amplitud.ttf
1484.07	n/a	WORD	742035	wordpools/wasnorm_wordpool_less_exclusions.txt	LTP196	ltpFR	5	9	1	FIREMAN	569	n/a	n/a	1	0.57763671875	0.412841796875	1	upper	amplitud.ttf
1488.13	n/a	WORD	744065	wordpools/wasnorm_wordpool_less_exclusions.txt	LTP196	ltpFR	5	9	1	STREET	1393	n/a	n/a	0	0.57763671875	0.412841796875	1	upper	amplitud.ttf
1492.356	n/a	WORD	746178	wordpools/wasnorm_wordpool_less_exclusions.txt	LTP196	ltpFR	5	9	1	CHAUFFEUR	283	n/a	n/a	1	0.57763671875	0.412841796875	1	upper	amplitud.ttf
1496.402	n/a	WORD	748201	wordpools/wasnorm_wordpool_less_exclusions.txt	LTP196	ltpFR	5	9	1	PREACHER	1119	n/a	n/a	1	0.57763671875	0.412841796875	1	upper	amplitud.ttf
1500.562	n/a	WORD	750281	wordpools/wasnorm_wordpool_less_exclusions.txt	LTP196	ltpFR	5	9	1	LAGOON	795	n/a	n/a	0	0.57763671875	0.412841796875	1	upper	amplitud.ttf
1504.472	n/a	WORD	752236	wordpools/wasnorm_wordpool_less_exclusions.txt	LTP196	ltpFR	5	9	1	THREAD	1460	n/a	n/a	0	0.57763671875	0.412841796875	1	upper	amplitud.ttf
1508.368	n/a	WORD	754184	wordpools/wasnorm_wordpool_less_exclusions.txt	LTP196	ltpFR	5	9	1	THORN	1459	n/a	n/a	0	0.57763671875	0.412841796875	1	upper	amplitud.ttf
1512.428	n/a	WORD	756214	wordpools/wasnorm_wordpool_less_exclusions.txt	LTP196	ltpFR	5	9	1	PIER	1063	n/a	n/a	0	0.57763671875	0.412841796875	1	upper	amplitud.ttf
1516.604	n/a	WORD	758302	wordpools/wasnorm_wordpool_less_exclusions.txt	LTP196	ltpFR	5	9	1	DEODORANT	448	n/a	n/a	0	0.57763671875	0.412841796875	1	upper	amplitud.ttf
1520.582	n/a	WORD	760291	wordpools/wasnorm_wordpool_less_exclusions.txt	LTP196	ltpFR	5	9	1	BLOCKADE	137	n/a	n/a	0	0.57763671875	0.412841796875	1	upper	amplitud.ttf
1524.476	n/a	WORD	762238	wordpools/wasnorm_wordpool_less_exclusions.txt	LTP196	ltpFR	5	9	1	BUS	201	n/a	n/a	0	0.57763671875	0.412841796875	1	upper	amplitud.ttf
1528.338	n/a	WORD	764169	wordpools/wasnorm_wordpool_less_exclusions.txt	LTP196	ltpFR	5	9	1	VOLLEYBALL	1576	n/a	n/a	0	0.57763671875	0.412841796875	1	upper	amplitud.ttf
1532.348	n/a	WORD	766174	wordpools/wasnorm_wordpool_less_exclusions.txt	LTP196	ltpFR	5	9	1	CHESS	294	n/a	n/a	0	0.57763671875	0.412841796875	1	upper	amplitud.ttf
1538.156	n/a	REC_START	769078	n/a	LTP196	ltpFR	5	9	n/a	n/a	n/a	n/a	n/a	n/a	n/a	n/a	n/a	n/a	n/a
1541.434	n/a	REC_WORD	770717	wordpools/wasnorm_wordpool_less_exclusions.txt	LTP196	ltpFR	5	9	1	BLOCKADE	137	n/a	n/a	0	n/a	n/a	n/a	n/a	n/a
1543.624	n/a	REC_WORD	771812	wordpools/wasnorm_wordpool_less_exclusions.txt	LTP196	ltpFR	5	9	1	BUS	201	n/a	n/a	0	n/a	n/a	n/a	n/a	n/a
1545.794	n/a	REC_WORD	772897	wordpools/wasnorm_wordpool_less_exclusions.txt	LTP196	ltpFR	5	9	1	CHESS	294	n/a	n/a	0	n/a	n/a	n/a	n/a	n/a
1562.944	n/a	REC_WORD	781472	wordpools/wasnorm_wordpool_less_exclusions.txt	LTP196	ltpFR	5	9	1	LAGOON	795	n/a	n/a	0	n/a	n/a	n/a	n/a	n/a
1564.876	n/a	REC_WORD	782438	wordpools/wasnorm_wordpool_less_exclusions.txt	LTP196	ltpFR	5	9	n/a	BEER	114	n/a	n/a	n/a	n/a	n/a	n/a	n/a	n/a
1617.122	n/a	WORD	808561	wordpools/wasnorm_wordpool_less_exclusions.txt	LTP196	ltpFR	5	10	0	NITROGEN	954	n/a	n/a	0	0.422607421875	0.5869140625	0	lower	zerothre.ttf
1621.25	n/a	WORD	810625	wordpools/wasnorm_wordpool_less_exclusions.txt	LTP196	ltpFR	5	10	0	PROTON	1132	n/a	n/a	0	0.422607421875	0.5869140625	0	lower	zerothre.ttf
1625.426	n/a	WORD	812713	wordpools/wasnorm_wordpool_less_exclusions.txt	LTP196	ltpFR	5	10	0	KNIGHT	786	n/a	n/a	1	0.422607421875	0.5869140625	0	lower	zerothre.ttf
1629.654	n/a	WORD	814827	wordpools/wasnorm_wordpool_less_exclusions.txt	LTP196	ltpFR	5	10	0	AIRCRAFT	11	n/a	n/a	1	0.422607421875	0.5869140625	0	lower	zerothre.ttf
1633.632	n/a	WORD	816816	wordpools/wasnorm_wordpool_less_exclusions.txt	LTP196	ltpFR	5	10	0	KITTEN	780	n/a	n/a	0	0.422607421875	0.5869140625	0	lower	zerothre.ttf
1637.508	n/a	WORD	818754	wordpools/wasnorm_wordpool_less_exclusions.txt	LTP196	ltpFR	5	10	0	NICOTINE	951	n/a	n/a	0	0.422607421875	0.5869140625	0	lower	zerothre.ttf
1641.37	n/a	WORD	820685	wordpools/wasnorm_wordpool_less_exclusions.txt	LTP196	ltpFR	5	10	0	PAWN	1030	n/a	n/a	0	0.422607421875	0.5869140625	0	lower	zerothre.ttf
1645.496	n/a	WORD	822748	wordpools/wasnorm_wordpool_less_exclusions.txt	LTP196	ltpFR	5	10	0	NICKEL	950	n/a	n/a	0	0.422607421875	0.5869140625	0	lower	zerothre.ttf
1649.374	n/a	WORD	824687	wordpools/wasnorm_wordpool_less_exclusions.txt	LTP196	ltpFR	5	10	0	TIGER	1467	n/a	n/a	1	0.422607421875	0.5869140625	0	lower	zerothre.ttf
1653.218	n/a	WORD	826609	wordpools/wasnorm_wordpool_less_exclusions.txt	LTP196	ltpFR	5	10	0	FIG	563	n/a	n/a	0	0.422607421875	0.5869140625	0	lower	zerothre.ttf
1657.38	n/a	WORD	828690	wordpools/wasnorm_wordpool_less_exclusions.txt	LTP196	ltpFR	5	10	0	ASH	44	n/a	n/a	0	0.422607421875	0.5869140625	0	lower	zerothre.ttf
1661.574	n/a	WORD	830787	wordpools/wasnorm_wordpool_less_exclusions.txt	LTP196	ltpFR	5	10	0	DRAGON	492	n/a	n/a	1	0.422607421875	0.5869140625	0	lower	zerothre.ttf
1665.668	n/a	WORD	832834	wordpools/wasnorm_wordpool_less_exclusions.txt	LTP196	ltpFR	5	10	0	ASSOCIATE	49	n/a	n/a	1	0.422607421875	0.5869140625	0	lower	zerothre.ttf
1669.73	n/a	WORD	834865	wordpools/wasnorm_wordpool_less_exclusions.txt	LTP196	ltpFR	5	10	0	CABOOSE	214	n/a	n/a	1	0.422607421875	0.5869140625	0	lower	zerothre.ttf
1673.806	n/a	WORD	836903	wordpools/wasnorm_wordpool_less_exclusions.txt	LTP196	ltpFR	5	10	0	FARMER	553	n/a	n/a	1	0.422607421875	0.5869140625	0	lower	zerothre.ttf
1677.666	n/a	WORD	838833	wordpools/wasnorm_wordpool_less_exclusions.txt	LTP196	ltpFR	5	10	0	FARM	552	n/a	n/a	1	0.422607421875	0.5869140625	0	lower	zerothre.ttf
1683.424	n/a	REC_START	841712	n/a	LTP196	ltpFR	5	10	n/a	n/a	n/a	n/a	n/a	n/a	n/a	n/a	n/a	n/a	n/a
1684.736	n/a	REC_WORD	842368	wordpools/wasnorm_wordpool_less_exclusions.txt	LTP196	ltpFR	5	10	0	FARMER	553	n/a	n/a	1	n/a	n/a	n/a	n/a	n/a
1685.868	n/a	REC_WORD	842934	wordpools/wasnorm_wordpool_less_exclusions.txt	LTP196	ltpFR	5	10	0	FARM	552	n/a	n/a	1	n/a	n/a	n/a	n/a	n/a
1687.046	n/a	REC_WORD	843523	wordpools/wasnorm_wordpool_less_exclusions.txt	LTP196	ltpFR	5	10	0	CABOOSE	214	n/a	n/a	1	n/a	n/a	n/a	n/a	n/a
1692.704	n/a	REC_WORD	846352	wordpools/wasnorm_wordpool_less_exclusions.txt	LTP196	ltpFR	5	10	0	PAWN	1030	n/a	n/a	0	n/a	n/a	n/a	n/a	n/a
1695.412	n/a	REC_WORD	847706	wordpools/wasnorm_wordpool_less_exclusions.txt	LTP196	ltpFR	5	10	0	TIGER	1467	n/a	n/a	1	n/a	n/a	n/a	n/a	n/a
1696.5	n/a	REC_WORD	848250	wordpools/wasnorm_wordpool_less_exclusions.txt	LTP196	ltpFR	5	10	0	NICKEL	950	n/a	n/a	0	n/a	n/a	n/a	n/a	n/a
1700.82	n/a	REC_WORD	850410	wordpools/wasnorm_wordpool_less_exclusions.txt	LTP196	ltpFR	5	10	0	KITTEN	780	n/a	n/a	0	n/a	n/a	n/a	n/a	n/a
1706.158	n/a	REC_WORD	853079	wordpools/wasnorm_wordpool_less_exclusions.txt	LTP196	ltpFR	5	10	0	KNIGHT	786	n/a	n/a	1	n/a	n/a	n/a	n/a	n/a
1725.368	n/a	REC_WORD	862684	wordpools/wasnorm_wordpool_less_exclusions.txt	LTP196	ltpFR	5	10	1	BUS	201	n/a	n/a	0	n/a	n/a	n/a	n/a	n/a
1726.552	n/a	REC_WORD	863276	wordpools/wasnorm_wordpool_less_exclusions.txt	LTP196	ltpFR	5	10	0	AIRCRAFT	11	n/a	n/a	1	n/a	n/a	n/a	n/a	n/a
1731.386	n/a	REC_WORD	865693	wordpools/wasnorm_wordpool_less_exclusions.txt	LTP196	ltpFR	5	10	n/a	HORSE	719	n/a	n/a	n/a	n/a	n/a	n/a	n/a	n/a
1731.862	n/a	REC_WORD	865931	wordpools/wasnorm_wordpool_less_exclusions.txt	LTP196	ltpFR	5	10	n/a	DRAWN	-1	n/a	n/a	n/a	n/a	n/a	n/a	n/a	n/a
1762.34	n/a	WORD	881170	wordpools/wasnorm_wordpool_less_exclusions.txt	LTP196	ltpFR	5	11	0	DOORBELL	487	n/a	n/a	2	0.422607421875	0.5869140625	0	lower	zerothre.ttf
1763.656	n/a	KEY_MSG	881828	n/a	LTP196	ltpFR	5	11	n/a	n/a	n/a	n/a	n/a	n/a	n/a	n/a	n/a	n/a	n/a
1766.302	n/a	WORD	883151	wordpools/wasnorm_wordpool_less_exclusions.txt	LTP196	ltpFR	5	11	0	RING	1193	n/a	n/a	0	0.422607421875	0.5869140625	0	lower	zerothre.ttf
1770.446	n/a	WORD	885223	wordpools/wasnorm_wordpool_less_exclusions.txt	LTP196	ltpFR	5	11	1	ANIMAL	23	n/a	n/a	1	0.57763671875	0.412841796875	1	upper	amplitud.ttf
1774.572	n/a	WORD	887286	wordpools/wasnorm_wordpool_less_exclusions.txt	LTP196	ltpFR	5	11	1	MAID	856	n/a	n/a	1	0.57763671875	0.412841796875	1	upper	amplitud.ttf
1778.634	n/a	WORD	889317	wordpools/wasnorm_wordpool_less_exclusions.txt	LTP196	ltpFR	5	11	1	PEACH	1031	n/a	n/a	1	0.57763671875	0.412841796875	1	upper	amplitud.ttf
1782.644	n/a	WORD	891322	wordpools/wasnorm_wordpool_less_exclusions.txt	LTP196	ltpFR	5	11	1	SLUG	1329	n/a	n/a	1	0.57763671875	0.412841796875	1	upper	amplitud.ttf
1786.838	n/a	WORD	893419	wordpools/wasnorm_wordpool_less_exclusions.txt	LTP196	ltpFR	5	11	1	BUG	187	n/a	n/a	1	0.57763671875	0.412841796875	1	upper	amplitud.ttf
1790.766	n/a	WORD	895383	wordpools/wasnorm_wordpool_less_exclusions.txt	LTP196	ltpFR	5	11	0	PATIO	1025	n/a	n/a	1	0.422607421875	0.5869140625	0	lower	zerothre.ttf
1794.626	n/a	WORD	897313	wordpools/wasnorm_wordpool_less_exclusions.txt	LTP196	ltpFR	5	11	0	HOME	712	n/a	n/a	1	0.422607421875	0.5869140625	0	lower	zerothre.ttf
1798.838	n/a	WORD	899419	wordpools/wasnorm_wordpool_less_exclusions.txt	LTP196	ltpFR	5	11	1	THERMOMETER	1453	n/a	n/a	0	0.57763671875	0.412841796875	1	upper	amplitud.ttf
1802.798	n/a	WORD	901399	wordpools/wasnorm_wordpool_less_exclusions.txt	LTP196	ltpFR	5	11	1	LAKE	796	n/a	n/a	0	0.57763671875	0.412841796875	1	upper	amplitud.ttf
1806.926	n/a	WORD	903463	wordpools/wasnorm_wordpool_less_exclusions.txt	LTP196	ltpFR	5	11	1	THICKET	1455	n/a	n/a	0	0.57763671875	0.412841796875	1	upper	amplitud.ttf
1810.836	n/a	WORD	905418	wordpools/wasnorm_wordpool_less_exclusions.txt	LTP196	ltpFR	5	11	0	MATCH	878	n/a	n/a	0	0.422607421875	0.5869140625	0	lower	zerothre.ttf
1814.964	n/a	WORD	907482	wordpools/wasnorm_wordpool_less_exclusions.txt	LTP196	ltpFR	5	11	0	PIKE	1067	n/a	n/a	1	0.422607421875	0.5869140625	0	lower	zerothre.ttf
1819.04	n/a	WORD	909520	wordpools/wasnorm_wordpool_less_exclusions.txt	LTP196	ltpFR	5	11	0	VET	1560	n/a	n/a	1	0.422607421875	0.5869140625	0	lower	zerothre.ttf
1823.234	n/a	WORD	911617	wordpools/wasnorm_wordpool_less_exclusions.txt	LTP196	ltpFR	5	11	0	SAP	1233	n/a	n/a	0	0.422607421875	0.5869140625	0	lower	zerothre.ttf
1829.01	n/a	REC_START	914505	n/a	LTP196	ltpFR	5	11	n/a	n/a	n/a	n/a	n/a	n/a	n/a	n/a	n/a	n/a	n/a
1832.92	n/a	REC_WORD	916460	wordpools/wasnorm_wordpool_less_exclusions.txt	LTP196	ltpFR	5	11	1	MAID	856	n/a	n/a	1	n/a	n/a	n/a	n/a	n/a
1834.652	n/a	REC_WORD	917326	wordpools/wasnorm_wordpool_less_exclusions.txt	LTP196	ltpFR	5	11	0	HOME	712	n/a	n/a	1	n/a	n/a	n/a	n/a	n/a
1836.726	n/a	REC_WORD	918363	wordpools/wasnorm_wordpool_less_exclusions.txt	LTP196	ltpFR	5	11	0	PATIO	1025	n/a	n/a	1	n/a	n/a	n/a	n/a	n/a
1841.086	n/a	REC_WORD	920543	wordpools/wasnorm_wordpool_less_exclusions.txt	LTP196	ltpFR	5	11	1	LAKE	796	n/a	n/a	0	n/a	n/a	n/a	n/a	n/a
1842.09	n/a	REC_WORD	921045	wordpools/wasnorm_wordpool_less_exclusions.txt	LTP196	ltpFR	5	11	1	THERMOMETER	1453	n/a	n/a	0	n/a	n/a	n/a	n/a	n/a
1845.802	n/a	REC_WORD	922901	wordpools/wasnorm_wordpool_less_exclusions.txt	LTP196	ltpFR	5	11	0	PIKE	1067	n/a	n/a	1	n/a	n/a	n/a	n/a	n/a
1846.694	n/a	REC_WORD	923347	wordpools/wasnorm_wordpool_less_exclusions.txt	LTP196	ltpFR	5	11	0	VET	1560	n/a	n/a	1	n/a	n/a	n/a	n/a	n/a
1858.88	n/a	REC_WORD	929440	wordpools/wasnorm_wordpool_less_exclusions.txt	LTP196	ltpFR	5	11	1	THICKET	1455	n/a	n/a	0	n/a	n/a	n/a	n/a	n/a
1907.826	n/a	WORD	953913	wordpools/wasnorm_wordpool_less_exclusions.txt	LTP196	ltpFR	5	12	-1	BRICK	172	n/a	n/a	-1	1.0	1.0	1	upper	Verdana.ttf
1911.986	n/a	WORD	955993	wordpools/wasnorm_wordpool_less_exclusions.txt	LTP196	ltpFR	5	12	-1	BLACKBERRY	132	n/a	n/a	-1	1.0	1.0	1	upper	Verdana.ttf
1916.08	n/a	WORD	958040	wordpools/wasnorm_wordpool_less_exclusions.txt	LTP196	ltpFR	5	12	-1	JOURNAL	760	n/a	n/a	-1	1.0	1.0	1	upper	Verdana.ttf
1920.24	n/a	WORD	960120	wordpools/wasnorm_wordpool_less_exclusions.txt	LTP196	ltpFR	5	12	-1	CHALK	276	n/a	n/a	-1	1.0	1.0	1	upper	Verdana.ttf
1924.134	n/a	WORD	962067	wordpools/wasnorm_wordpool_less_exclusions.txt	LTP196	ltpFR	5	12	-1	TAR	1435	n/a	n/a	-1	1.0	1.0	1	upper	Verdana.ttf
1927.98	n/a	WORD	963990	wordpools/wasnorm_wordpool_less_exclusions.txt	LTP196	ltpFR	5	12	-1	SHELTER	1282	n/a	n/a	-1	1.0	1.0	1	upper	Verdana.ttf
1932.09	n/a	WORD	966045	wordpools/wasnorm_wordpool_less_exclusions.txt	LTP196	ltpFR	5	12	-1	LUMBER	848	n/a	n/a	-1	1.0	1.0	1	upper	Verdana.ttf
1936.0	n/a	WORD	968000	wordpools/wasnorm_wordpool_less_exclusions.txt	LTP196	ltpFR	5	12	-1	LODGE	839	n/a	n/a	-1	1.0	1.0	1	upper	Verdana.ttf
1939.828	n/a	WORD	969914	wordpools/wasnorm_wordpool_less_exclusions.txt	LTP196	ltpFR	5	12	-1	JUPITER	765	n/a	n/a	-1	1.0	1.0	1	upper	Verdana.ttf
1943.656	n/a	WORD	971828	wordpools/wasnorm_wordpool_less_exclusions.txt	LTP196	ltpFR	5	12	-1	PLUTO	1092	n/a	n/a	-1	1.0	1.0	1	upper	Verdana.ttf
1947.7	n/a	WORD	973850	wordpools/wasnorm_wordpool_less_exclusions.txt	LTP196	ltpFR	5	12	-1	SEA	1259	n/a	n/a	-1	1.0	1.0	1	upper	Verdana.ttf
1951.56	n/a	WORD	975780	wordpools/wasnorm_wordpool_less_exclusions.txt	LTP196	ltpFR	5	12	-1	SCALE	1241	n/a	n/a	-1	1.0	1.0	1	upper	Verdana.ttf
1955.472	n/a	WORD	977736	wordpools/wasnorm_wordpool_less_exclusions.txt	LTP196	ltpFR	5	12	-1	LIST	830	n/a	n/a	-1	1.0	1.0	1	upper	Verdana.ttf
1959.498	n/a	WORD	979749	wordpools/wasnorm_wordpool_less_exclusions.txt	LTP196	ltpFR	5	12	-1	SPRINKLE	1359	n/a	n/a	-1	1.0	1.0	1	upper	Verdana.ttf
1963.526	n/a	WORD	981763	wordpools/wasnorm_wordpool_less_exclusions.txt	LTP196	ltpFR	5	12	-1	SHOP	1290	n/a	n/a	-1	1.0	1.0	1	upper	Verdana.ttf
1967.386	n/a	WORD	983693	wordpools/wasnorm_wordpool_less_exclusions.txt	LTP196	ltpFR	5	12	-1	CUSTOMER	430	n/a	n/a	-1	1.0	1.0	1	upper	Verdana.ttf
1973.162	n/a	REC_START	986581	n/a	LTP196	ltpFR	5	12	n/a	n/a	n/a	n/a	n/a	n/a	n/a	n/a	n/a	n/a	n/a
1976.498	n/a	REC_WORD	988249	wordpools/wasnorm_wordpool_less_exclusions.txt	LTP196	ltpFR	5	12	-1	CUSTOMER	430	n/a	n/a	-1	n/a	n/a	n/a	n/a	n/a
1977.656	n/a	REC_WORD	988828	wordpools/wasnorm_wordpool_less_exclusions.txt	LTP196	ltpFR	5	12	-1	SHOP	1290	n/a	n/a	-1	n/a	n/a	n/a	n/a	n/a
1979.718	n/a	REC_WORD	989859	wordpools/wasnorm_wordpool_less_exclusions.txt	LTP196	ltpFR	5	12	-1	SEA	1259	n/a	n/a	-1	n/a	n/a	n/a	n/a	n/a
1981.538	n/a	REC_WORD	990769	wordpools/wasnorm_wordpool_less_exclusions.txt	LTP196	ltpFR	5	12	-1	SCALE	1241	n/a	n/a	-1	n/a	n/a	n/a	n/a	n/a
2031.49	n/a	REC_WORD	1015745	wordpools/wasnorm_wordpool_less_exclusions.txt	LTP196	ltpFR	5	12	n/a	LODGING	-1	n/a	n/a	n/a	n/a	n/a	n/a	n/a	n/a
2032.892	n/a	REC_WORD	1016446	wordpools/wasnorm_wordpool_less_exclusions.txt	LTP196	ltpFR	5	12	n/a	TIMBER	1469	n/a	n/a	n/a	n/a	n/a	n/a	n/a	n/a
2042.68	n/a	REC_WORD	1021340	wordpools/wasnorm_wordpool_less_exclusions.txt	LTP196	ltpFR	5	12	n/a	JOB	-1	n/a	n/a	n/a	n/a	n/a	n/a	n/a	n/a
2048.75	n/a	REST_REWET	1024375	n/a	LTP196	ltpFR	5	12	n/a	n/a	n/a	n/a	n/a	n/a	n/a	n/a	n/a	n/a	n/a
2395.386	n/a	WORD	1197693	wordpools/wasnorm_wordpool_less_exclusions.txt	LTP196	ltpFR	5	13	-1	PADDING	999	n/a	n/a	-1	1.0	1.0	1	upper	Verdana.ttf
2399.398	n/a	WORD	1199699	wordpools/wasnorm_wordpool_less_exclusions.txt	LTP196	ltpFR	5	13	-1	SOFA	1342	n/a	n/a	-1	1.0	1.0	1	upper	Verdana.ttf
2403.424	n/a	WORD	1201712	wordpools/wasnorm_wordpool_less_exclusions.txt	LTP196	ltpFR	5	13	-1	DRYER	503	n/a	n/a	-1	1.0	1.0	1	upper	Verdana.ttf
2407.618	n/a	WORD	1203809	wordpools/wasnorm_wordpool_less_exclusions.txt	LTP196	ltpFR	5	13	-1	CATERPILLAR	259	n/a	n/a	-1	1.0	1.0	1	upper	Verdana.ttf
2411.662	n/a	WORD	1205831	wordpools/wasnorm_wordpool_less_exclusions.txt	LTP196	ltpFR	5	13	-1	BEE	112	n/a	n/a	-1	1.0	1.0	1	upper	Verdana.ttf
2415.874	n/a	WORD	1207937	wordpools/wasnorm_wordpool_less_exclusions.txt	LTP196	ltpFR	5	13	-1	RIVER	1194	n/a	n/a	-1	1.0	1.0	1	upper	Verdana.ttf
2419.852	n/a	WORD	1209926	wordpools/wasnorm_wordpool_less_exclusions.txt	LTP196	ltpFR	5	13	-1	DIVER	476	n/a	n/a	-1	1.0	1.0	1	upper	Verdana.ttf
2423.896	n/a	WORD	1211948	wordpools/wasnorm_wordpool_less_exclusions.txt	LTP196	ltpFR	5	13	-1	PASTA	1021	n/a	n/a	-1	1.0	1.0	1	upper	Verdana.ttf
2428.088	n/a	WORD	1214044	wordpools/wasnorm_wordpool_less_exclusions.txt	LTP196	ltpFR	5	13	-1	MARS	873	n/a	n/a	-1	1.0	1.0	1	upper	Verdana.ttf
2431.966	n/a	WORD	1215983	wordpools/wasnorm_wordpool_less_exclusions.txt	LTP196	ltpFR	5	13	-1	DIAGRAM	456	n/a	n/a	-1	1.0	1.0	1	upper	Verdana.ttf
2435.828	n/a	WORD	1217914	wordpools/wasnorm_wordpool_less_exclusions.txt	LTP196	ltpFR	5	13	-1	POPCORN	1104	n/a	n/a	-1	1.0	1.0	1	upper	Verdana.ttf
2439.988	n/a	WORD	1219994	wordpools/wasnorm_wordpool_less_exclusions.txt	LTP196	ltpFR	5	13	-1	ASTEROID	50	n/a	n/a	-1	1.0	1.0	1	upper	Verdana.ttf
2443.848	n/a	WORD	1221924	wordpools/wasnorm_wordpool_less_exclusions.txt	LTP196	ltpFR	5	13	-1	PORTRAIT	1111	n/a	n/a	-1	1.0	1.0	1	upper	Verdana.ttf
2447.942	n/a	WORD	1223971	wordpools/wasnorm_wordpool_less_exclusions.txt	LTP196	ltpFR	5	13	-1	DRAWER	493	n/a	n/a	-1	1.0	1.0	1	upper	Verdana.ttf
2451.77	n/a	WORD	1225885	wordpools/wasnorm_wordpool_less_exclusions.txt	LTP196	ltpFR	5	13	-1	SUN	1406	n/a	n/a	-1	1.0	1.0	1	upper	Verdana.ttf
2455.914	n/a	WORD	1227957	wordpools/wasnorm_wordpool_less_exclusions.txt	LTP196	ltpFR	5	13	-1	MOTHER	921	n/a	n/a	-1	1.0	1.0	1	upper	Verdana.ttf
2461.722	n/a	REC_START	1230861	n/a	LTP196	ltpFR	5	13	n/a	n/a	n/a	n/a	n/a	n/a	n/a	n/a	n/a	n/a	n/a
2463.188	n/a	REC_WORD	1231594	wordpools/wasnorm_wordpool_less_exclusions.txt	LTP196	ltpFR	5	13	-1	PADDING	999	n/a	n/a	-1	n/a	n/a	n/a	n/a	n/a
2464.196	n/a	REC_WORD	1232098	wordpools/wasnorm_wordpool_less_exclusions.txt	LTP196	ltpFR	5	13	-1	SOFA	1342	n/a	n/a	-1	n/a	n/a	n/a	n/a	n/a
2465.844	n/a	REC_WORD	1232922	wordpools/wasnorm_wordpool_less_exclusions.txt	LTP196	ltpFR	5	13	-1	DRYER	503	n/a	n/a	-1	n/a	n/a	n/a	n/a	n/a
2467.066	n/a	REC_WORD	1233533	wordpools/wasnorm_wordpool_less_exclusions.txt	LTP196	ltpFR	5	13	-1	CATERPILLAR	259	n/a	n/a	-1	n/a	n/a	n/a	n/a	n/a
2468.668	n/a	REC_WORD	1234334	wordpools/wasnorm_wordpool_less_exclusions.txt	LTP196	ltpFR	5	13	-1	BEE	112	n/a	n/a	-1	n/a	n/a	n/a	n/a	n/a
2470.03	n/a	REC_WORD	1235015	wordpools/wasnorm_wordpool_less_exclusions.txt	LTP196	ltpFR	5	13	-1	RIVER	1194	n/a	n/a	-1	n/a	n/a	n/a	n/a	n/a
2472.22	n/a	REC_WORD	1236110	wordpools/wasnorm_wordpool_less_exclusions.txt	LTP196	ltpFR	5	13	-1	DIVER	476	n/a	n/a	-1	n/a	n/a	n/a	n/a	n/a
2473.462	n/a	REC_WORD	1236731	wordpools/wasnorm_wordpool_less_exclusions.txt	LTP196	ltpFR	5	13	-1	PASTA	1021	n/a	n/a	-1	n/a	n/a	n/a	n/a	n/a
2475.178	n/a	REC_WORD	1237589	wordpools/wasnorm_wordpool_less_exclusions.txt	LTP196	ltpFR	5	13	-1	POPCORN	1104	n/a	n/a	-1	n/a	n/a	n/a	n/a	n/a
2476.954	n/a	REC_WORD	1238477	wordpools/wasnorm_wordpool_less_exclusions.txt	LTP196	ltpFR	5	13	-1	DIAGRAM	456	n/a	n/a	-1	n/a	n/a	n/a	n/a	n/a
2480.116	n/a	REC_WORD	1240058	wordpools/wasnorm_wordpool_less_exclusions.txt	LTP196	ltpFR	5	13	-1	MARS	873	n/a	n/a	-1	n/a	n/a	n/a	n/a	n/a
2481.258	n/a	REC_WORD	1240629	wordpools/wasnorm_wordpool_less_exclusions.txt	LTP196	ltpFR	5	13	-1	SUN	1406	n/a	n/a	-1	n/a	n/a	n/a	n/a	n/a
2483.698	n/a	REC_WORD	1241849	wordpools/wasnorm_wordpool_less_exclusions.txt	LTP196	ltpFR	5	13	-1	PORTRAIT	1111	n/a	n/a	-1	n/a	n/a	n/a	n/a	n/a
2484.452	n/a	REC_WORD	1242226	wordpools/wasnorm_wordpool_less_exclusions.txt	LTP196	ltpFR	5	13	-1	DRAWER	493	n/a	n/a	-1	n/a	n/a	n/a	n/a	n/a
2492.07	n/a	REC_WORD	1246035	wordpools/wasnorm_wordpool_less_exclusions.txt	LTP196	ltpFR	5	13	-1	MOTHER	921	n/a	n/a	-1	n/a	n/a	n/a	n/a	n/a
2539.906	n/a	WORD	1269953	wordpools/wasnorm_wordpool_less_exclusions.txt	LTP196	ltpFR	5	14	1	OINTMENT	974	n/a	n/a	0	0.57763671875	0.412841796875	1	upper	amplitud.ttf
2544.0	n/a	WORD	1272000	wordpools/wasnorm_wordpool_less_exclusions.txt	LTP196	ltpFR	5	14	1	SHORTCAKE	1292	n/a	n/a	0	0.57763671875	0.412841796875	1	upper	amplitud.ttf
2547.994	n/a	WORD	1273997	wordpools/wasnorm_wordpool_less_exclusions.txt	LTP196	ltpFR	5	14	1	VASE	1549	n/a	n/a	0	0.57763671875	0.412841796875	1	upper	amplitud.ttf
2551.972	n/a	WORD	1275986	wordpools/wasnorm_wordpool_less_exclusions.txt	LTP196	ltpFR	5	14	1	GLASS	639	n/a	n/a	0	0.57763671875	0.412841796875	1	upper	amplitud.ttf
2556.082	n/a	WORD	1278041	wordpools/wasnorm_wordpool_less_exclusions.txt	LTP196	ltpFR	5	14	1	ORCHESTRA	981	n/a	n/a	0	0.57763671875	0.412841796875	1	upper	amplitud.ttf
2560.126	n/a	WORD	1280063	wordpools/wasnorm_wordpool_less_exclusions.txt	LTP196	ltpFR	5	14	1	HIKER	708	n/a	n/a	0	0.57763671875	0.412841796875	1	upper	amplitud.ttf
2564.32	n/a	WORD	1282160	wordpools/wasnorm_wordpool_less_exclusions.txt	LTP196	ltpFR	5	14	1	BASKET	95	n/a	n/a	0	0.57763671875	0.412841796875	1	upper	amplitud.ttf
2568.28	n/a	WORD	1284140	wordpools/wasnorm_wordpool_less_exclusions.txt	LTP196	ltpFR	5	14	1	TABLET	1427	n/a	n/a	0	0.57763671875	0.412841796875	1	upper	amplitud.ttf
2572.274	n/a	WORD	1286137	wordpools/wasnorm_wordpool_less_exclusions.txt	LTP196	ltpFR	5	14	1	VIOLA	1570	n/a	n/a	0	0.57763671875	0.412841796875	1	upper	amplitud.ttf
2576.136	n/a	WORD	1288068	wordpools/wasnorm_wordpool_less_exclusions.txt	LTP196	ltpFR	5	14	1	ASTRONAUT	51	n/a	n/a	1	0.57763671875	0.412841796875	1	upper	amplitud.ttf
2580.346	n/a	WORD	1290173	wordpools/wasnorm_wordpool_less_exclusions.txt	LTP196	ltpFR	5	14	1	LEOPARD	812	n/a	n/a	1	0.57763671875	0.412841796875	1	upper	amplitud.ttf
2584.472	n/a	WORD	1292236	wordpools/wasnorm_wordpool_less_exclusions.txt	LTP196	ltpFR	5	14	1	PANTHER	1009	n/a	n/a	1	0.57763671875	0.412841796875	1	upper	amplitud.ttf
2588.534	n/a	WORD	1294267	wordpools/wasnorm_wordpool_less_exclusions.txt	LTP196	ltpFR	5	14	1	TROUT	1511	n/a	n/a	1	0.57763671875	0.412841796875	1	upper	amplitud.ttf
2592.46	n/a	WORD	1296230	wordpools/wasnorm_wordpool_less_exclusions.txt	LTP196	ltpFR	5	14	1	SANDWICH	1232	n/a	n/a	0	0.57763671875	0.412841796875	1	upper	amplitud.ttf
2596.604	n/a	WORD	1298302	wordpools/wasnorm_wordpool_less_exclusions.txt	LTP196	ltpFR	5	14	1	CAFE	216	n/a	n/a	0	0.57763671875	0.412841796875	1	upper	amplitud.ttf
2600.532	n/a	WORD	1300266	wordpools/wasnorm_wordpool_less_exclusions.txt	LTP196	ltpFR	5	14	1	COOK	372	n/a	n/a	0	0.57763671875	0.412841796875	1	upper	amplitud.ttf
2606.458	n/a	REC_START	1303229	n/a	LTP196	ltpFR	5	14	n/a	n/a	n/a	n/a	n/a	n/a	n/a	n/a	n/a	n/a	n/a
2611.586	n/a	REC_WORD	1305793	wordpools/wasnorm_wordpool_less_exclusions.txt	LTP196	ltpFR	5	14	1	ORCHESTRA	981	n/a	n/a	0	n/a	n/a	n/a	n/a	n/a
2614.144	n/a	REC_WORD	1307072	wordpools/wasnorm_wordpool_less_exclusions.txt	LTP196	ltpFR	5	14	1	OINTMENT	974	n/a	n/a	0	n/a	n/a	n/a	n/a	n/a
2615.352	n/a	REC_WORD	1307676	wordpools/wasnorm_wordpool_less_exclusions.txt	LTP196	ltpFR	5	14	1	VASE	1549	n/a	n/a	0	n/a	n/a	n/a	n/a	n/a
2616.51	n/a	REC_WORD	1308255	wordpools/wasnorm_wordpool_less_exclusions.txt	LTP196	ltpFR	5	14	1	GLASS	639	n/a	n/a	0	n/a	n/a	n/a	n/a	n/a
2618.006	n/a	REC_WORD	1309003	wordpools/wasnorm_wordpool_less_exclusions.txt	LTP196	ltpFR	5	14	n/a	SHORTBREAD	-1	n/a	n/a	n/a	n/a	n/a	n/a	n/a	n/a
2619.916	n/a	REC_WORD	1309958	wordpools/wasnorm_wordpool_less_exclusions.txt	LTP196	ltpFR	5	14	1	COOK	372	n/a	n/a	0	n/a	n/a	n/a	n/a	n/a
2623.538	n/a	REC_WORD	1311769	wordpools/wasnorm_wordpool_less_exclusions.txt	LTP196	ltpFR	5	14	1	VIOLA	1570	n/a	n/a	0	n/a	n/a	n/a	n/a	n/a
2624.866	n/a	REC_WORD	1312433	wordpools/wasnorm_wordpool_less_exclusions.txt	LTP196	ltpFR	5	14	1	ASTRONAUT	51	n/a	n/a	1	n/a	n/a	n/a	n/a	n/a
2627.636	n/a	REC_WORD	1313818	wordpools/wasnorm_wordpool_less_exclusions.txt	LTP196	ltpFR	5	14	1	SANDWICH	1232	n/a	n/a	0	n/a	n/a	n/a	n/a	n/a
2628.818	n/a	REC_WORD	1314409	wordpools/wasnorm_wordpool_less_exclusions.txt	LTP196	ltpFR	5	14	1	CAFE	216	n/a	n/a	0	n/a	n/a	n/a	n/a	n/a
2635.024	n/a	REC_WORD	1317512	wordpools/wasnorm_wordpool_less_exclusions.txt	LTP196	ltpFR	5	14	1	LEOPARD	812	n/a	n/a	1	n/a	n/a	n/a	n/a	n/a
2635.882	n/a	REC_WORD	1317941	wordpools/wasnorm_wordpool_less_exclusions.txt	LTP196	ltpFR	5	14	1	PANTHER	1009	n/a	n/a	1	n/a	n/a	n/a	n/a	n/a
2638.39	n/a	REC_WORD	1319195	wordpools/wasnorm_wordpool_less_exclusions.txt	LTP196	ltpFR	5	14	1	TROUT	1511	n/a	n/a	1	n/a	n/a	n/a	n/a	n/a
2645.964	n/a	REC_WORD	1322982	wordpools/wasnorm_wordpool_less_exclusions.txt	LTP196	ltpFR	5	14	1	HIKER	708	n/a	n/a	0	n/a	n/a	n/a	n/a	n/a
2684.758	n/a	WORD	1342379	wordpools/wasnorm_wordpool_less_exclusions.txt	LTP196	ltpFR	5	15	1	LIEUTENANT	818	n/a	n/a	1	0.57763671875	0.412841796875	1	upper	amplitud.ttf
2688.668	n/a	WORD	1344334	wordpools/wasnorm_wordpool_less_exclusions.txt	LTP196	ltpFR	5	15	1	BLOUSE	139	n/a	n/a	0	0.57763671875	0.412841796875	1	upper	amplitud.ttf
2692.562	n/a	WORD	1346281	wordpools/wasnorm_wordpool_less_exclusions.txt	LTP196	ltpFR	5	15	1	TULIP	1517	n/a	n/a	1	0.57763671875	0.412841796875	1	upper	amplitud.ttf
2696.758	n/a	WORD	1348379	wordpools/wasnorm_wordpool_less_exclusions.txt	LTP196	ltpFR	5	15	1	COMMANDER	354	n/a	n/a	1	0.57763671875	0.412841796875	1	upper	amplitud.ttf
2700.768	n/a	WORD	1350384	wordpools/wasnorm_wordpool_less_exclusions.txt	LTP196	ltpFR	5	15	0	FOREHEAD	592	n/a	n/a	1	0.422607421875	0.5869140625	0	lower	zerothre.ttf
2704.812	n/a	WORD	1352406	wordpools/wasnorm_wordpool_less_exclusions.txt	LTP196	ltpFR	5	15	0	CHEST	295	n/a	n/a	1	0.422607421875	0.5869140625	0	lower	zerothre.ttf
2708.706	n/a	WORD	1354353	wordpools/wasnorm_wordpool_less_exclusions.txt	LTP196	ltpFR	5	15	0	SCARF	1246	n/a	n/a	1	0.422607421875	0.5869140625	0	lower	zerothre.ttf
2712.734	n/a	WORD	1356367	wordpools/wasnorm_wordpool_less_exclusions.txt	LTP196	ltpFR	5	15	0	BUTTON	207	n/a	n/a	0	0.422607421875	0.5869140625	0	lower	zerothre.ttf
2716.744	n/a	WORD	1358372	wordpools/wasnorm_wordpool_less_exclusions.txt	LTP196	ltpFR	5	15	0	BAKER	71	n/a	n/a	1	0.422607421875	0.5869140625	0	lower	zerothre.ttf
2720.572	n/a	WORD	1360286	wordpools/wasnorm_wordpool_less_exclusions.txt	LTP196	ltpFR	5	15	1	PENGUIN	1044	n/a	n/a	1	0.57763671875	0.412841796875	1	upper	amplitud.ttf
2724.432	n/a	WORD	1362216	wordpools/wasnorm_wordpool_less_exclusions.txt	LTP196	ltpFR	5	15	1	SUIT	1402	n/a	n/a	1	0.57763671875	0.412841796875	1	upper	amplitud.ttf
2728.376	n/a	WORD	1364188	wordpools/wasnorm_wordpool_less_exclusions.txt	LTP196	ltpFR	5	15	1	LAPEL	800	n/a	n/a	0	0.57763671875	0.412841796875	1	upper	amplitud.ttf
2732.57	n/a	WORD	1366285	wordpools/wasnorm_wordpool_less_exclusions.txt	LTP196	ltpFR	5	15	1	SIGNATURE	1306	n/a	n/a	0	0.57763671875	0.412841796875	1	upper	amplitud.ttf
2736.464	n/a	WORD	1368232	wordpools/wasnorm_wordpool_less_exclusions.txt	LTP196	ltpFR	5	15	0	VICTOR	1563	n/a	n/a	1	0.422607421875	0.5869140625	0	lower	zerothre.ttf
2740.358	n/a	WORD	1370179	wordpools/wasnorm_wordpool_less_exclusions.txt	LTP196	ltpFR	5	15	0	BISON	131	n/a	n/a	1	0.422607421875	0.5869140625	0	lower	zerothre.ttf
2744.202	n/a	WORD	1372101	wordpools/wasnorm_wordpool_less_exclusions.txt	LTP196	ltpFR	5	15	0	SHOVEL	1295	n/a	n/a	0	0.422607421875	0.5869140625	0	lower	zerothre.ttf
2750.262	n/a	REC_START	1375131	n/a	LTP196	ltpFR	5	15	n/a	n/a	n/a	n/a	n/a	n/a	n/a	n/a	n/a	n/a	n/a
2752.068	n/a	REC_WORD	1376034	wordpools/wasnorm_wordpool_less_exclusions.txt	LTP196	ltpFR	5	15	1	COMMANDER	354	n/a	n/a	1	n/a	n/a	n/a	n/a	n/a
2753.42	n/a	REC_WORD	1376710	wordpools/wasnorm_wordpool_less_exclusions.txt	LTP196	ltpFR	5	15	1	LIEUTENANT	818	n/a	n/a	1	n/a	n/a	n/a	n/a	n/a
2754.586	n/a	REC_WORD	1377293	wordpools/wasnorm_wordpool_less_exclusions.txt	LTP196	ltpFR	5	15	1	BLOUSE	139	n/a	n/a	0	n/a	n/a	n/a	n/a	n/a
2755.694	n/a	REC_WORD	1377847	wordpools/wasnorm_wordpool_less_exclusions.txt	LTP196	ltpFR	5	15	0	BUTTON	207	n/a	n/a	0	n/a	n/a	n/a	n/a	n/a
2757.4	n/a	REC_WORD	1378700	wordpools/wasnorm_wordpool_less_exclusions.txt	LTP196	ltpFR	5	15	0	FOREHEAD	592	n/a	n/a	1	n/a	n/a	n/a	n/a	n/a
2758.412	n/a	REC_WORD	1379206	wordpools/wasnorm_wordpool_less_exclusions.txt	LTP196	ltpFR	5	15	0	CHEST	295	n/a	n/a	1	n/a	n/a	n/a	n/a	n/a
2760.342	n/a	REC_WORD	1380171	wordpools/wasnorm_wordpool_less_exclusions.txt	LTP196	ltpFR	5	15	0	SCARF	1246	n/a	n/a	1	n/a	n/a	n/a	n/a	n/a
2764.758	n/a	REC_WORD	1382379	wordpools/wasnorm_wordpool_less_exclusions.txt	LTP196	ltpFR	5	15	0	BAKER	71	n/a	n/a	1	n/a	n/a	n/a	n/a	n/a
2773.508	n/a	REC_WORD	1386754	wordpools/wasnorm_wordpool_less_exclusions.txt	LTP196	ltpFR	5	15	0	VICTOR	1563	n/a	n/a	1	n/a	n/a	n/a	n/a	n/a
2775.404	n/a	REC_WORD	1387702	wordpools/wasnorm_wordpool_less_exclusions.txt	LTP196	ltpFR	5	15	0	BISON	131	n/a	n/a	1	n/a	n/a	n/a	n/a	n/a
2777.25	n/a	REC_WORD	1388625	wordpools/wasnorm_wordpool_less_exclusions.txt	LTP196	ltpFR	5	15	0	SHOVEL	1295	n/a	n/a	0	n/a	n/a	n/a	n/a	n/a
2801.282	n/a	REC_WORD	1400641	wordpools/wasnorm_wordpool_less_exclusions.txt	LTP196	ltpFR	5	15	1	LAPEL	800	n/a	n/a	0	n/a	n/a	n/a	n/a	n/a
2802.792	n/a	REC_WORD	1401396	wordpools/wasnorm_wordpool_less_exclusions.txt	LTP196	ltpFR	5	15	1	PENGUIN	1044	n/a	n/a	1	n/a	n/a	n/a	n/a	n/a
2803.606	n/a	REC_WORD	1401803	wordpools/wasnorm_wordpool_less_exclusions.txt	LTP196	ltpFR	5	15	1	SUIT	1402	n/a	n/a	1	n/a	n/a	n/a	n/a	n/a
2805.172	n/a	REC_WORD	1402586	wordpools/wasnorm_wordpool_less_exclusions.txt	LTP196	ltpFR	5	15	1	SIGNATURE	1306	n/a	n/a	0	n/a	n/a	n/a	n/a	n/a
2828.796	n/a	WORD	1414398	wordpools/wasnorm_wordpool_less_exclusions.txt	LTP196	ltpFR	5	16	0	FORT	595	n/a	n/a	1	0.422607421875	0.5869140625	0	lower	zerothre.ttf
2833.004	n/a	WORD	1416502	wordpools/wasnorm_wordpool_less_exclusions.txt	LTP196	ltpFR	5	16	0	FLY	586	n/a	n/a	1	0.422607421875	0.5869140625	0	lower	zerothre.ttf
2837.132	n/a	WORD	1418566	wordpools/wasnorm_wordpool_less_exclusions.txt	LTP196	ltpFR	5	16	0	STEREO	1378	n/a	n/a	1	0.422607421875	0.5869140625	0	lower	zerothre.ttf
2841.042	n/a	WORD	1420521	wordpools/wasnorm_wordpool_less_exclusions.txt	LTP196	ltpFR	5	16	0	MICROPHONE	890	n/a	n/a	1	0.422607421875	0.5869140625	0	lower	zerothre.ttf
2845.254	n/a	WORD	1422627	wordpools/wasnorm_wordpool_less_exclusions.txt	LTP196	ltpFR	5	16	0	SLIDE	1326	n/a	n/a	1	0.422607421875	0.5869140625	0	lower	zerothre.ttf
2849.264	n/a	WORD	1424632	wordpools/wasnorm_wordpool_less_exclusions.txt	LTP196	ltpFR	5	16	0	CANOE	233	n/a	n/a	1	0.422607421875	0.5869140625	0	lower	zerothre.ttf
2853.142	n/a	WORD	1426571	wordpools/wasnorm_wordpool_less_exclusions.txt	LTP196	ltpFR	5	16	0	RUG	1215	n/a	n/a	1	0.422607421875	0.5869140625	0	lower	zerothre.ttf
2856.97	n/a	WORD	1428485	wordpools/wasnorm_wordpool_less_exclusions.txt	LTP196	ltpFR	5	16	0	FLOOR	581	n/a	n/a	1	0.422607421875	0.5869140625	0	lower	zerothre.ttf
2860.88	n/a	WORD	1430440	wordpools/wasnorm_wordpool_less_exclusions.txt	LTP196	ltpFR	5	16	0	HEADBAND	696	n/a	n/a	0	0.422607421875	0.5869140625	0	lower	zerothre.ttf
2865.024	n/a	WORD	1432512	wordpools/wasnorm_wordpool_less_exclusions.txt	LTP196	ltpFR	5	16	0	GAVEL	627	n/a	n/a	1	0.422607421875	0.5869140625	0	lower	zerothre.ttf
2869.034	n/a	WORD	1434517	wordpools/wasnorm_wordpool_less_exclusions.txt	LTP196	ltpFR	5	16	0	COLESLAW	344	n/a	n/a	0	0.422607421875	0.5869140625	0	lower	zerothre.ttf
2873.246	n/a	WORD	1436623	wordpools/wasnorm_wordpool_less_exclusions.txt	LTP196	ltpFR	5	16	0	CHERRY	293	n/a	n/a	0	0.422607421875	0.5869140625	0	lower	zerothre.ttf
2877.356	n/a	WORD	1438678	wordpools/wasnorm_wordpool_less_exclusions.txt	LTP196	ltpFR	5	16	0	SWATTER	1418	n/a	n/a	1	0.422607421875	0.5869140625	0	lower	zerothre.ttf
2881.45	n/a	WORD	1440725	wordpools/wasnorm_wordpool_less_exclusions.txt	LTP196	ltpFR	5	16	0	PEOPLE	1046	n/a	n/a	1	0.422607421875	0.5869140625	0	lower	zerothre.ttf
2885.444	n/a	WORD	1442722	wordpools/wasnorm_wordpool_less_exclusions.txt	LTP196	ltpFR	5	16	0	DESSERT	453	n/a	n/a	0	0.422607421875	0.5869140625	0	lower	zerothre.ttf
2889.504	n/a	WORD	1444752	wordpools/wasnorm_wordpool_less_exclusions.txt	LTP196	ltpFR	5	16	0	POTATO	1115	n/a	n/a	0	0.422607421875	0.5869140625	0	lower	zerothre.ttf
2895.346	n/a	REC_START	1447673	n/a	LTP196	ltpFR	5	16	n/a	n/a	n/a	n/a	n/a	n/a	n/a	n/a	n/a	n/a	n/a
2896.828	n/a	REC_WORD	1448414	wordpools/wasnorm_wordpool_less_exclusions.txt	LTP196	ltpFR	5	16	0	FORT	595	n/a	n/a	1	n/a	n/a	n/a	n/a	n/a
2898.15	n/a	REC_WORD	1449075	wordpools/wasnorm_wordpool_less_exclusions.txt	LTP196	ltpFR	5	16	0	FLY	586	n/a	n/a	1	n/a	n/a	n/a	n/a	n/a
2898.848	n/a	REC_WORD	1449424	wordpools/wasnorm_wordpool_less_exclusions.txt	LTP196	ltpFR	5	16	0	SWATTER	1418	n/a	n/a	1	n/a	n/a	n/a	n/a	n/a
2901.542	n/a	REC_WORD	1450771	wordpools/wasnorm_wordpool_less_exclusions.txt	LTP196	ltpFR	5	16	0	FLOOR	581	n/a	n/a	1	n/a	n/a	n/a	n/a	n/a
2902.14	n/a	REC_WORD	1451070	wordpools/wasnorm_wordpool_less_exclusions.txt	LTP196	ltpFR	5	16	n/a	CARPET	247	n/a	n/a	n/a	n/a	n/a	n/a	n/a	n/a
2903.442	n/a	REC_WORD	1451721	wordpools/wasnorm_wordpool_less_exclusions.txt	LTP196	ltpFR	5	16	0	RUG	1215	n/a	n/a	1	n/a	n/a	n/a	n/a	n/a
2905.434	n/a	REC_WORD	1452717	wordpools/wasnorm_wordpool_less_exclusions.txt	LTP196	ltpFR	5	16	1	SLUG	1329	n/a	n/a	1	n/a	n/a	n/a	n/a	n/a
2906.756	n/a	REC_WORD	1453378	wordpools/wasnorm_wordpool_less_exclusions.txt	LTP196	ltpFR	5	16	0	CANOE	233	n/a	n/a	1	n/a	n/a	n/a	n/a	n/a
2912.662	n/a	REC_WORD	1456331	wordpools/wasnorm_wordpool_less_exclusions.txt	LTP196	ltpFR	5	16	0	PEOPLE	1046	n/a	n/a	1	n/a	n/a	n/a	n/a	n/a
2914.816	n/a	REC_WORD	1457408	wordpools/wasnorm_wordpool_less_exclusions.txt	LTP196	ltpFR	5	16	0	HEADBAND	696	n/a	n/a	0	n/a	n/a	n/a	n/a	n/a
2918.034	n/a	REC_WORD	1459017	wordpools/wasnorm_wordpool_less_exclusions.txt	LTP196	ltpFR	5	16	0	COLESLAW	344	n/a	n/a	0	n/a	n/a	n/a	n/a	n/a
2918.948	n/a	REC_WORD	1459474	wordpools/wasnorm_wordpool_less_exclusions.txt	LTP196	ltpFR	5	16	0	POTATO	1115	n/a	n/a	0	n/a	n/a	n/a	n/a	n/a
2920.804	n/a	REC_WORD	1460402	wordpools/wasnorm_wordpool_less_exclusions.txt	LTP196	ltpFR	5	16	0	CHERRY	293	n/a	n/a	0	n/a	n/a	n/a	n/a	n/a
2921.39	n/a	REC_WORD	1460695	wordpools/wasnorm_wordpool_less_exclusions.txt	LTP196	ltpFR	5	16	0	DESSERT	453	n/a	n/a	0	n/a	n/a	n/a	n/a	n/a
2987.31	n/a	REC_START	1493655	n/a	LTP196	ltpFR	5	n/a	n/a	n/a	n/a	n/a	n/a	n/a	n/a	n/a	n/a	n/a	n/a
2989.516	n/a	FFR_REC_WORD	1494758	wordpools/wasnorm_wordpool_less_exclusions.txt	LTP196	ltpFR	5	n/a	1	LIEUTENANT	818	n/a	n/a	1	n/a	n/a	n/a	n/a	n/a
2992.858	n/a	FFR_REC_WORD	1496429	wordpools/wasnorm_wordpool_less_exclusions.txt	LTP196	ltpFR	5	n/a	1	BLOUSE	139	n/a	n/a	0	n/a	n/a	n/a	n/a	n/a
2994.0	n/a	FFR_REC_WORD	1497000	wordpools/wasnorm_wordpool_less_exclusions.txt	LTP196	ltpFR	5	n/a	0	BUTTON	207	n/a	n/a	0	n/a	n/a	n/a	n/a	n/a
2995.626	n/a	FFR_REC_WORD	1497813	wordpools/wasnorm_wordpool_less_exclusions.txt	LTP196	ltpFR	5	n/a	1	LAPEL	800	n/a	n/a	0	n/a	n/a	n/a	n/a	n/a
2996.884	n/a	FFR_REC_WORD	1498442	wordpools/wasnorm_wordpool_less_exclusions.txt	LTP196	ltpFR	5	n/a	1	SUIT	1402	n/a	n/a	1	n/a	n/a	n/a	n/a	n/a
3002.426	n/a	FFR_REC_WORD	1501213	wordpools/wasnorm_wordpool_less_exclusions.txt	LTP196	ltpFR	5	n/a	0	TROUSERS	1510	n/a	n/a	0	n/a	n/a	n/a	n/a	n/a
3003.426	n/a	FFR_REC_WORD_VV	1501713	wordpools/wasnorm_wordpool_less_exclusions.txt	LTP196	ltpFR	5	n/a	n/a	<>	-1	n/a	n/a	n/a	n/a	n/a	n/a	n/a	n/a
3005.16	n/a	FFR_REC_WORD	1502580	wordpools/wasnorm_wordpool_less_exclusions.txt	LTP196	ltpFR	5	n/a	0	HEADBAND	696	n/a	n/a	0	n/a	n/a	n/a	n/a	n/a
3014.354	n/a	FFR_REC_WORD	1507177	wordpools/wasnorm_wordpool_less_exclusions.txt	LTP196	ltpFR	5	n/a	-1	DIAGRAM	456	n/a	n/a	-1	n/a	n/a	n/a	n/a	n/a
3016.688	n/a	FFR_REC_WORD	1508344	wordpools/wasnorm_wordpool_less_exclusions.txt	LTP196	ltpFR	5	n/a	-1	MARS	873	n/a	n/a	-1	n/a	n/a	n/a	n/a	n/a
3017.606	n/a	FFR_REC_WORD	1508803	wordpools/wasnorm_wordpool_less_exclusions.txt	LTP196	ltpFR	5	n/a	-1	JUPITER	765	n/a	n/a	-1	n/a	n/a	n/a	n/a	n/a
3018.33	n/a	FFR_REC_WORD	1509165	wordpools/wasnorm_wordpool_less_exclusions.txt	LTP196	ltpFR	5	n/a	-1	SUN	1406	n/a	n/a	-1	n/a	n/a	n/a	n/a	n/a
3020.006	n/a	FFR_REC_WORD	1510003	wordpools/wasnorm_wordpool_less_exclusions.txt	LTP196	ltpFR	5	n/a	1	ASTRONAUT	51	n/a	n/a	1	n/a	n/a	n/a	n/a	n/a
3022.964	n/a	FFR_REC_WORD	1511482	wordpools/wasnorm_wordpool_less_exclusions.txt	LTP196	ltpFR	5	n/a	0	TEACHER	1440	n/a	n/a	0	n/a	n/a	n/a	n/a	n/a
3023.756	n/a	FFR_REC_WORD	1511878	wordpools/wasnorm_wordpool_less_exclusions.txt	LTP196	ltpFR	5	n/a	0	ASSISTANT	48	n/a	n/a	1	n/a	n/a	n/a	n/a	n/a
3030.158	n/a	FFR_REC_WORD	1515079	wordpools/wasnorm_wordpool_less_exclusions.txt	LTP196	ltpFR	5	n/a	1	LEOPARD	812	n/a	n/a	1	n/a	n/a	n/a	n/a	n/a
3032.948	n/a	FFR_REC_WORD	1516474	wordpools/wasnorm_wordpool_less_exclusions.txt	LTP196	ltpFR	5	n/a	1	TROUT	1511	n/a	n/a	1	n/a	n/a	n/a	n/a	n/a
3037.582	n/a	FFR_REC_WORD	1518791	wordpools/wasnorm_wordpool_less_exclusions.txt	LTP196	ltpFR	5	n/a	-1	SCALLOP	1242	n/a	n/a	-1	n/a	n/a	n/a	n/a	n/a
3038.582	n/a	FFR_REC_WORD_VV	1519291	wordpools/wasnorm_wordpool_less_exclusions.txt	LTP196	ltpFR	5	n/a	n/a	<>	-1	n/a	n/a	n/a	n/a	n/a	n/a	n/a	n/a
3043.644	n/a	FFR_REC_WORD	1521822	wordpools/wasnorm_wordpool_less_exclusions.txt	LTP196	ltpFR	5	n/a	0	SHRIMP	1297	n/a	n/a	0	n/a	n/a	n/a	n/a	n/a
3047.106	n/a	FFR_REC_WORD	1523553	wordpools/wasnorm_wordpool_less_exclusions.txt	LTP196	ltpFR	5	n/a	0	CHEDDAR	286	n/a	n/a	0	n/a	n/a	n/a	n/a	n/a
3047.634	n/a	FFR_REC_WORD	1523817	wordpools/wasnorm_wordpool_less_exclusions.txt	LTP196	ltpFR	5	n/a	1	CHEESE	289	n/a	n/a	0	n/a	n/a	n/a	n/a	n/a
3049.136	n/a	FFR_REC_WORD	1524568	wordpools/wasnorm_wordpool_less_exclusions.txt	LTP196	ltpFR	5	n/a	1	CHEESE	289	n/a	n/a	0	n/a	n/a	n/a	n/a	n/a
3051.062	n/a	FFR_REC_WORD	1525531	wordpools/wasnorm_wordpool_less_exclusions.txt	LTP196	ltpFR	5	n/a	0	COLESLAW	344	n/a	n/a	0	n/a	n/a	n/a	n/a	n/a
3052.678	n/a	FFR_REC_WORD	1526339	wordpools/wasnorm_wordpool_less_exclusions.txt	LTP196	ltpFR	5	n/a	0	POTATO	1115	n/a	n/a	0	n/a	n/a	n/a	n/a	n/a
3053.726	n/a	FFR_REC_WORD	1526863	wordpools/wasnorm_wordpool_less_exclusions.txt	LTP196	ltpFR	5	n/a	0	CHERRY	293	n/a	n/a	0	n/a	n/a	n/a	n/a	n/a
3054.394	n/a	FFR_REC_WORD	1527197	wordpools/wasnorm_wordpool_less_exclusions.txt	LTP196	ltpFR	5	n/a	0	DESSERT	453	n/a	n/a	0	n/a	n/a	n/a	n/a	n/a
3069.26	n/a	FFR_REC_WORD	1534630	wordpools/wasnorm_wordpool_less_exclusions.txt	LTP196	ltpFR	5	n/a	0	FORT	595	n/a	n/a	1	n/a	n/a	n/a	n/a	n/a
3071.71	n/a	FFR_REC_WORD	1535855	wordpools/wasnorm_wordpool_less_exclusions.txt	LTP196	ltpFR	5	n/a	0	FLOOR	581	n/a	n/a	1	n/a	n/a	n/a	n/a	n/a
3073.236	n/a	FFR_REC_WORD	1536618	wordpools/wasnorm_wordpool_less_exclusions.txt	LTP196	ltpFR	5	n/a	0	RUG	1215	n/a	n/a	1	n/a	n/a	n/a	n/a	n/a
3075.066	n/a	FFR_REC_WORD	1537533	wordpools/wasnorm_wordpool_less_exclusions.txt	LTP196	ltpFR	5	n/a	-1	SOFA	1342	n/a	n/a	-1	n/a	n/a	n/a	n/a	n/a
3077.068	n/a	FFR_REC_WORD	1538534	wordpools/wasnorm_wordpool_less_exclusions.txt	LTP196	ltpFR	5	n/a	-1	PADDING	999	n/a	n/a	-1	n/a	n/a	n/a	n/a	n/a
3081.916	n/a	FFR_REC_WORD	1540958	wordpools/wasnorm_wordpool_less_exclusions.txt	LTP196	ltpFR	5	n/a	-1	RIVER	1194	n/a	n/a	-1	n/a	n/a	n/a	n/a	n/a
3083.318	n/a	FFR_REC_WORD	1541659	wordpools/wasnorm_wordpool_less_exclusions.txt	LTP196	ltpFR	5	n/a	0	CANOE	233	n/a	n/a	1	n/a	n/a	n/a	n/a	n/a
3084.136	n/a	FFR_REC_WORD	1542068	wordpools/wasnorm_wordpool_less_exclusions.txt	LTP196	ltpFR	5	n/a	0	SLIDE	1326	n/a	n/a	1	n/a	n/a	n/a	n/a	n/a
3086.39	n/a	FFR_REC_WORD	1543195	wordpools/wasnorm_wordpool_less_exclusions.txt	LTP196	ltpFR	5	n/a	-1	BEE	112	n/a	n/a	-1	n/a	n/a	n/a	n/a	n/a
3087.598	n/a	FFR_REC_WORD	1543799	wordpools/wasnorm_wordpool_less_exclusions.txt	LTP196	ltpFR	5	n/a	-1	CATERPILLAR	259	n/a	n/a	-1	n/a	n/a	n/a	n/a	n/a
3106.65	n/a	FFR_REC_WORD	1553325	wordpools/wasnorm_wordpool_less_exclusions.txt	LTP196	ltpFR	5	n/a	0	COCKTAIL	338	n/a	n/a	0	n/a	n/a	n/a	n/a	n/a
3121.328	n/a	FFR_REC_WORD	1560664	wordpools/wasnorm_wordpool_less_exclusions.txt	LTP196	ltpFR	5	n/a	1	FRANCE	601	n/a	n/a	0	n/a	n/a	n/a	n/a	n/a
3122.73	n/a	FFR_REC_WORD	1561365	wordpools/wasnorm_wordpool_less_exclusions.txt	LTP196	ltpFR	5	n/a	1	LONDON	843	n/a	n/a	0	n/a	n/a	n/a	n/a	n/a
3132.522	n/a	FFR_REC_WORD	1566261	wordpools/wasnorm_wordpool_less_exclusions.txt	LTP196	ltpFR	5	n/a	n/a	WARDROBE	1587	n/a	n/a	n/a	n/a	n/a	n/a	n/a	n/a
3145.946	n/a	FFR_REC_WORD	1572973	wordpools/wasnorm_wordpool_less_exclusions.txt	LTP196	ltpFR	5	n/a	0	TOAD	1470	n/a	n/a	0	n/a	n/a	n/a	n/a	n/a
3148.236	n/a	FFR_REC_WORD	1574118	wordpools/wasnorm_wordpool_less_exclusions.txt	LTP196	ltpFR	5	n/a	0	PIPE	1073	n/a	n/a	0	n/a	n/a	n/a	n/a	n/a
3154.636	n/a	FFR_REC_WORD	1577318	wordpools/wasnorm_wordpool_less_exclusions.txt	LTP196	ltpFR	5	n/a	1	SALMON	1227	n/a	n/a	0	n/a	n/a	n/a	n/a	n/a
3158.992	n/a	FFR_REC_WORD	1579496	wordpools/wasnorm_wordpool_less_exclusions.txt	LTP196	ltpFR	5	n/a	1	PAPER	1011	n/a	n/a	0	n/a	n/a	n/a	n/a	n/a
3160.698	n/a	FFR_REC_WORD	1580349	wordpools/wasnorm_wordpool_less_exclusions.txt	LTP196	ltpFR	5	n/a	1	NAPKIN	937	n/a	n/a	0	n/a	n/a	n/a	n/a	n/a
3163.762	n/a	FFR_REC_WORD	1581881	wordpools/wasnorm_wordpool_less_exclusions.txt	LTP196	ltpFR	5	n/a	-1	PORTRAIT	1111	n/a	n/a	-1	n/a	n/a	n/a	n/a	n/a
3164.624	n/a	FFR_REC_WORD	1582312	wordpools/wasnorm_wordpool_less_exclusions.txt	LTP196	ltpFR	5	n/a	-1	DRAWER	493	n/a	n/a	-1	n/a	n/a	n/a	n/a	n/a
3185.552	n/a	FFR_REC_WORD	1592776	wordpools/wasnorm_wordpool_less_exclusions.txt	LTP196	ltpFR	5	n/a	0	SHOVEL	1295	n/a	n/a	0	n/a	n/a	n/a	n/a	n/a
3187.926	n/a	FFR_REC_WORD	1593963	wordpools/wasnorm_wordpool_less_exclusions.txt	LTP196	ltpFR	5	n/a	0	BISON	131	n/a	n/a	1	n/a	n/a	n/a	n/a	n/a
3193.13	n/a	FFR_REC_WORD	1596565	wordpools/wasnorm_wordpool_less_exclusions.txt	LTP196	ltpFR	5	n/a	0	VICTOR	1563	n/a	n/a	1	n/a	n/a	n/a	n/a	n/a
3199.626	n/a	FFR_REC_WORD	1599813	wordpools/wasnorm_wordpool_less_exclusions.txt	LTP196	ltpFR	5	n/a	0	NICKEL	950	n/a	n/a	0	n/a	n/a	n/a	n/a	n/a
3202.484	n/a	FFR_REC_WORD	1601242	wordpools/wasnorm_wordpool_less_exclusions.txt	LTP196	ltpFR	5	n/a	0	KITTEN	780	n/a	n/a	0	n/a	n/a	n/a	n/a	n/a
3203.936	n/a	FFR_REC_WORD	1601968	wordpools/wasnorm_wordpool_less_exclusions.txt	LTP196	ltpFR	5	n/a	0	TIGER	1467	n/a	n/a	1	n/a	n/a	n/a	n/a	n/a
3208.506	n/a	FFR_REC_WORD	1604253	wordpools/wasnorm_wordpool_less_exclusions.txt	LTP196	ltpFR	5	n/a	1	LIEUTENANT	818	n/a	n/a	1	n/a	n/a	n/a	n/a	n/a
3209.344	n/a	FFR_REC_WORD	1604672	wordpools/wasnorm_wordpool_less_exclusions.txt	LTP196	ltpFR	5	n/a	n/a	COLONEL	348	n/a	n/a	n/a	n/a	n/a	n/a	n/a	n/a
3209.946	n/a	FFR_REC_WORD	1604973	wordpools/wasnorm_wordpool_less_exclusions.txt	LTP196	ltpFR	5	n/a	0	ASSISTANT	48	n/a	n/a	1	n/a	n/a	n/a	n/a	n/a
3211.768	n/a	FFR_REC_WORD	1605884	wordpools/wasnorm_wordpool_less_exclusions.txt	LTP196	ltpFR	5	n/a	1	BOSS	152	n/a	n/a	1	n/a	n/a	n/a	n/a	n/a
3240.772	n/a	FFR_REC_WORD	1620386	wordpools/wasnorm_wordpool_less_exclusions.txt	LTP196	ltpFR	5	n/a	-1	MOTHER	921	n/a	n/a	-1	n/a	n/a	n/a	n/a	n/a
3317.006	n/a	REC_START	1658503	n/a	LTP196	ltpFR	5	1	n/a	n/a	n/a	n/a	n/a	n/a	n/a	n/a	n/a	n/a	n/a
3317.038	n/a	RECOG_LURE	1658519	n/a	LTP196	ltpFR	5	1	n/a	MAYONNAISE	880	0	4	n/a	n/a	n/a	n/a	n/a	n/a
3318.482	n/a	RECOG_RESP	1659241	n/a	LTP196	ltpFR	5	1	n/a	MAYONNAISE	880	0	n/a	n/a	n/a	n/a	n/a	n/a	n/a
3320.198	n/a	RECOG_CONF	1660099	n/a	LTP196	ltpFR	5	1	n/a	MAYONNAISE	880	n/a	4	n/a	n/a	n/a	n/a	n/a	n/a
3321.982	n/a	RECOG_LURE	1660991	n/a	LTP196	ltpFR	5	1	n/a	BRIDGE	174	0	2	n/a	n/a	n/a	n/a	n/a	n/a
3323.036	n/a	RECOG_RESP	1661518	n/a	LTP196	ltpFR	5	1	n/a	BRIDGE	174	0	n/a	n/a	n/a	n/a	n/a	n/a	n/a
3324.002	n/a	RECOG_CONF	1662001	n/a	LTP196	ltpFR	5	1	n/a	BRIDGE	174	n/a	2	n/a	n/a	n/a	n/a	n/a	n/a
3325.792	n/a	RECOG_LURE	1662896	n/a	LTP196	ltpFR	5	1	n/a	JAPAN	749	0	5	n/a	n/a	n/a	n/a	n/a	n/a
3326.618	n/a	RECOG_RESP	1663309	n/a	LTP196	ltpFR	5	1	n/a	JAPAN	749	0	n/a	n/a	n/a	n/a	n/a	n/a	n/a
3327.276	n/a	RECOG_CONF	1663638	n/a	LTP196	ltpFR	5	1	n/a	JAPAN	749	n/a	5	n/a	n/a	n/a	n/a	n/a	n/a
3328.772	n/a	RECOG_LURE	1664386	n/a	LTP196	ltpFR	5	1	n/a	LASH	802	0	4	n/a	n/a	n/a	n/a	n/a	n/a
3329.598	n/a	RECOG_RESP	1664799	n/a	LTP196	ltpFR	5	1	n/a	LASH	802	0	n/a	n/a	n/a	n/a	n/a	n/a	n/a
3330.052	n/a	RECOG_CONF	1665026	n/a	LTP196	ltpFR	5	1	n/a	LASH	802	n/a	4	n/a	n/a	n/a	n/a	n/a	n/a
3331.734	n/a	RECOG_LURE	1665867	n/a	LTP196	ltpFR	5	1	n/a	OCEAN	970	0	3	n/a	n/a	n/a	n/a	n/a	n/a
3332.39	n/a	RECOG_RESP	1666195	n/a	LTP196	ltpFR	5	1	n/a	OCEAN	970	0	n/a	n/a	n/a	n/a	n/a	n/a	n/a
3332.954	n/a	RECOG_CONF	1666477	n/a	LTP196	ltpFR	5	1	n/a	OCEAN	970	n/a	3	n/a	n/a	n/a	n/a	n/a	n/a
3334.496	n/a	RECOG_TARGET	1667248	n/a	LTP196	ltpFR	5	1	1	STREET	1393	1	3	0	n/a	n/a	n/a	n/a	n/a
3335.824	n/a	RECOG_RESP	1667912	n/a	LTP196	ltpFR	5	1	1	STREET	1393	1	n/a	0	n/a	n/a	n/a	n/a	n/a
3336.696	n/a	RECOG_CONF	1668348	n/a	LTP196	ltpFR	5	1	1	STREET	1393	n/a	3	0	n/a	n/a	n/a	n/a	n/a
3338.29	n/a	RECOG_TARGET	1669145	n/a	LTP196	ltpFR	5	1	0	MARINE	869	1	4	0	n/a	n/a	n/a	n/a	n/a
3339.176	n/a	RECOG_RESP	1669588	n/a	LTP196	ltpFR	5	1	0	MARINE	869	1	n/a	0	n/a	n/a	n/a	n/a	n/a
3339.842	n/a	RECOG_CONF	1669921	n/a	LTP196	ltpFR	5	1	0	MARINE	869	n/a	4	0	n/a	n/a	n/a	n/a	n/a
3341.168	n/a	RECOG_TARGET	1670584	n/a	LTP196	ltpFR	5	1	1	PIGEON	1065	0	3	1	n/a	n/a	n/a	n/a	n/a
3342.812	n/a	RECOG_RESP	1671406	n/a	LTP196	ltpFR	5	1	1	PIGEON	1065	0	n/a	1	n/a	n/a	n/a	n/a	n/a
3343.38	n/a	RECOG_CONF	1671690	n/a	LTP196	ltpFR	5	1	1	PIGEON	1065	n/a	3	1	n/a	n/a	n/a	n/a	n/a
3344.88	n/a	RECOG_LURE	1672440	n/a	LTP196	ltpFR	5	1	n/a	DICE	461	0	4	n/a	n/a	n/a	n/a	n/a	n/a
3345.724	n/a	RECOG_RESP	1672862	n/a	LTP196	ltpFR	5	1	n/a	DICE	461	0	n/a	n/a	n/a	n/a	n/a	n/a	n/a
3346.136	n/a	RECOG_CONF	1673068	n/a	LTP196	ltpFR	5	1	n/a	DICE	461	n/a	4	n/a	n/a	n/a	n/a	n/a	n/a
3347.792	n/a	RECOG_LURE	1673896	n/a	LTP196	ltpFR	5	1	n/a	GRAVEL	659	0	5	n/a	n/a	n/a	n/a	n/a	n/a
3348.602	n/a	RECOG_RESP	1674301	n/a	LTP196	ltpFR	5	1	n/a	GRAVEL	659	0	n/a	n/a	n/a	n/a	n/a	n/a	n/a
3349.128	n/a	RECOG_CONF	1674564	n/a	LTP196	ltpFR	5	1	n/a	GRAVEL	659	n/a	5	n/a	n/a	n/a	n/a	n/a	n/a
3350.756	n/a	RECOG_LURE	1675378	n/a	LTP196	ltpFR	5	1	n/a	RAILROAD	1162	0	4	n/a	n/a	n/a	n/a	n/a	n/a
3351.69	n/a	RECOG_RESP	1675845	n/a	LTP196	ltpFR	5	1	n/a	RAILROAD	1162	0	n/a	n/a	n/a	n/a	n/a	n/a	n/a
3352.25	n/a	RECOG_CONF	1676125	n/a	LTP196	ltpFR	5	1	n/a	RAILROAD	1162	n/a	4	n/a	n/a	n/a	n/a	n/a	n/a
3353.884	n/a	RECOG_LURE	1676942	n/a	LTP196	ltpFR	5	1	n/a	CANNON	232	0	5	n/a	n/a	n/a	n/a	n/a	n/a
3354.63	n/a	RECOG_RESP	1677315	n/a	LTP196	ltpFR	5	1	n/a	CANNON	232	0	n/a	n/a	n/a	n/a	n/a	n/a	n/a
3355.074	n/a	RECOG_CONF	1677537	n/a	LTP196	ltpFR	5	1	n/a	CANNON	232	n/a	5	n/a	n/a	n/a	n/a	n/a	n/a
3356.63	n/a	RECOG_TARGET	1678315	n/a	LTP196	ltpFR	5	1	0	LEMON	810	1	4	0	n/a	n/a	n/a	n/a	n/a
3357.424	n/a	RECOG_RESP	1678712	n/a	LTP196	ltpFR	5	1	0	LEMON	810	1	n/a	0	n/a	n/a	n/a	n/a	n/a
3358.028	n/a	RECOG_CONF	1679014	n/a	LTP196	ltpFR	5	1	0	LEMON	810	n/a	4	0	n/a	n/a	n/a	n/a	n/a
3359.458	n/a	RECOG_TARGET	1679729	n/a	LTP196	ltpFR	5	1	-1	MONUMENT	913	1	5	-1	n/a	n/a	n/a	n/a	n/a
3360.266	n/a	RECOG_RESP	1680133	n/a	LTP196	ltpFR	5	1	-1	MONUMENT	913	1	n/a	-1	n/a	n/a	n/a	n/a	n/a
3360.792	n/a	RECOG_CONF	1680396	n/a	LTP196	ltpFR	5	1	-1	MONUMENT	913	n/a	5	-1	n/a	n/a	n/a	n/a	n/a
3362.254	n/a	RECOG_TARGET	1681127	n/a	LTP196	ltpFR	5	1	1	SHORTCAKE	1292	1	5	0	n/a	n/a	n/a	n/a	n/a
3362.906	n/a	RECOG_RESP	1681453	n/a	LTP196	ltpFR	5	1	1	SHORTCAKE	1292	1	n/a	0	n/a	n/a	n/a	n/a	n/a
3363.428	n/a	RECOG_CONF	1681714	n/a	LTP196	ltpFR	5	1	1	SHORTCAKE	1292	n/a	5	0	n/a	n/a	n/a	n/a	n/a
3364.902	n/a	RECOG_TARGET	1682451	n/a	LTP196	ltpFR	5	1	-1	PAINT	1003	1	4	-1	n/a	n/a	n/a	n/a	n/a
3365.602	n/a	RECOG_RESP	1682801	n/a	LTP196	ltpFR	5	1	-1	PAINT	1003	1	n/a	-1	n/a	n/a	n/a	n/a	n/a
3366.192	n/a	RECOG_CONF	1683096	n/a	LTP196	ltpFR	5	1	-1	PAINT	1003	n/a	4	-1	n/a	n/a	n/a	n/a	n/a
3367.73	n/a	RECOG_LURE	1683865	n/a	LTP196	ltpFR	5	1	n/a	ANTELOPE	27	0	4	n/a	n/a	n/a	n/a	n/a	n/a
3368.6	n/a	RECOG_RESP	1684300	n/a	LTP196	ltpFR	5	1	n/a	ANTELOPE	27	0	n/a	n/a	n/a	n/a	n/a	n/a	n/a
3369.132	n/a	RECOG_CONF	1684566	n/a	LTP196	ltpFR	5	1	n/a	ANTELOPE	27	n/a	4	n/a	n/a	n/a	n/a	n/a	n/a
3370.658	n/a	RECOG_LURE	1685329	n/a	LTP196	ltpFR	5	1	n/a	ARMY	39	0	2	n/a	n/a	n/a	n/a	n/a	n/a
3372.526	n/a	RECOG_RESP	1686263	n/a	LTP196	ltpFR	5	1	n/a	ARMY	39	0	n/a	n/a	n/a	n/a	n/a	n/a	n/a
3373.26	n/a	RECOG_CONF	1686630	n/a	LTP196	ltpFR	5	1	n/a	ARMY	39	n/a	2	n/a	n/a	n/a	n/a	n/a	n/a
3374.886	n/a	RECOG_TARGET	1687443	n/a	LTP196	ltpFR	5	1	1	DONKEY	484	0	4	0	n/a	n/a	n/a	n/a	n/a
3375.612	n/a	RECOG_RESP	1687806	n/a	LTP196	ltpFR	5	1	1	DONKEY	484	0	n/a	0	n/a	n/a	n/a	n/a	n/a
3376.048	n/a	RECOG_CONF	1688024	n/a	LTP196	ltpFR	5	1	1	DONKEY	484	n/a	4	0	n/a	n/a	n/a	n/a	n/a
3377.516	n/a	RECOG_LURE	1688758	n/a	LTP196	ltpFR	5	1	n/a	SAGE	1222	0	5	n/a	n/a	n/a	n/a	n/a	n/a
3378.456	n/a	RECOG_RESP	1689228	n/a	LTP196	ltpFR	5	1	n/a	SAGE	1222	0	n/a	n/a	n/a	n/a	n/a	n/a	n/a
3378.9	n/a	RECOG_CONF	1689450	n/a	LTP196	ltpFR	5	1	n/a	SAGE	1222	n/a	5	n/a	n/a	n/a	n/a	n/a	n/a
3382.106	n/a	REC_START	1691053	n/a	LTP196	ltpFR	5	2	n/a	n/a	n/a	n/a	n/a	n/a	n/a	n/a	n/a	n/a	n/a
3382.142	n/a	RECOG_LURE	1691071	n/a	LTP196	ltpFR	5	2	n/a	BULB	192	0	3	n/a	n/a	n/a	n/a	n/a	n/a
3383.514	n/a	RECOG_RESP	1691757	n/a	LTP196	ltpFR	5	2	n/a	BULB	192	0	n/a	n/a	n/a	n/a	n/a	n/a	n/a
3384.036	n/a	RECOG_CONF	1692018	n/a	LTP196	ltpFR	5	2	n/a	BULB	192	n/a	3	n/a	n/a	n/a	n/a	n/a	n/a
3385.52	n/a	RECOG_LURE	1692760	n/a	LTP196	ltpFR	5	2	n/a	UTENSIL	1542	0	4	n/a	n/a	n/a	n/a	n/a	n/a
3386.612	n/a	RECOG_RESP	1693306	n/a	LTP196	ltpFR	5	2	n/a	UTENSIL	1542	0	n/a	n/a	n/a	n/a	n/a	n/a	n/a
3387.13	n/a	RECOG_CONF	1693565	n/a	LTP196	ltpFR	5	2	n/a	UTENSIL	1542	n/a	4	n/a	n/a	n/a	n/a	n/a	n/a
3388.782	n/a	RECOG_LURE	1694391	n/a	LTP196	ltpFR	5	2	n/a	CROSS	413	0	5	n/a	n/a	n/a	n/a	n/a	n/a
3389.494	n/a	RECOG_RESP	1694747	n/a	LTP196	ltpFR	5	2	n/a	CROSS	413	0	n/a	n/a	n/a	n/a	n/a	n/a	n/a
3389.924	n/a	RECOG_CONF	1694962	n/a	LTP196	ltpFR	5	2	n/a	CROSS	413	n/a	5	n/a	n/a	n/a	n/a	n/a	n/a
3391.344	n/a	RECOG_LURE	1695672	n/a	LTP196	ltpFR	5	2	n/a	SOLDIER	1344	0	5	n/a	n/a	n/a	n/a	n/a	n/a
3392.352	n/a	RECOG_RESP	1696176	n/a	LTP196	ltpFR	5	2	n/a	SOLDIER	1344	0	n/a	n/a	n/a	n/a	n/a	n/a	n/a
3392.816	n/a	RECOG_CONF	1696408	n/a	LTP196	ltpFR	5	2	n/a	SOLDIER	1344	n/a	5	n/a	n/a	n/a	n/a	n/a	n/a
3394.34	n/a	RECOG_TARGET	1697170	n/a	LTP196	ltpFR	5	2	-1	ACORN	3	1	5	-1	n/a	n/a	n/a	n/a	n/a
3395.13	n/a	RECOG_RESP	1697565	n/a	LTP196	ltpFR	5	2	-1	ACORN	3	1	n/a	-1	n/a	n/a	n/a	n/a	n/a
3395.78	n/a	RECOG_CONF	1697890	n/a	LTP196	ltpFR	5	2	-1	ACORN	3	n/a	5	-1	n/a	n/a	n/a	n/a	n/a
3397.436	n/a	RECOG_LURE	1698718	n/a	LTP196	ltpFR	5	2	n/a	ELEVATOR	524	0	4	n/a	n/a	n/a	n/a	n/a	n/a
3398.216	n/a	RECOG_RESP	1699108	n/a	LTP196	ltpFR	5	2	n/a	ELEVATOR	524	0	n/a	n/a	n/a	n/a	n/a	n/a	n/a
3398.764	n/a	RECOG_CONF	1699382	n/a	LTP196	ltpFR	5	2	n/a	ELEVATOR	524	n/a	4	n/a	n/a	n/a	n/a	n/a	n/a
3400.164	n/a	RECOG_TARGET	1700082	n/a	LTP196	ltpFR	5	2	1	TULIP	1517	1	5	1	n/a	n/a	n/a	n/a	n/a
3400.982	n/a	RECOG_RESP	1700491	n/a	LTP196	ltpFR	5	2	1	TULIP	1517	1	n/a	1	n/a	n/a	n/a	n/a	n/a
3401.686	n/a	RECOG_CONF	1700843	n/a	LTP196	ltpFR	5	2	1	TULIP	1517	n/a	5	1	n/a	n/a	n/a	n/a	n/a
3403.326	n/a	RECOG_TARGET	1701663	n/a	LTP196	ltpFR	5	2	1	CHEESE	289	1	5	0	n/a	n/a	n/a	n/a	n/a
3403.958	n/a	RECOG_RESP	1701979	n/a	LTP196	ltpFR	5	2	1	CHEESE	289	1	n/a	0	n/a	n/a	n/a	n/a	n/a
3404.546	n/a	RECOG_CONF	1702273	n/a	LTP196	ltpFR	5	2	1	CHEESE	289	n/a	5	0	n/a	n/a	n/a	n/a	n/a
3406.04	n/a	RECOG_LURE	1703020	n/a	LTP196	ltpFR	5	2	n/a	SHAMPOO	1274	0	4	n/a	n/a	n/a	n/a	n/a	n/a
3406.838	n/a	RECOG_RESP	1703419	n/a	LTP196	ltpFR	5	2	n/a	SHAMPOO	1274	0	n/a	n/a	n/a	n/a	n/a	n/a	n/a
3407.394	n/a	RECOG_CONF	1703697	n/a	LTP196	ltpFR	5	2	n/a	SHAMPOO	1274	n/a	4	n/a	n/a	n/a	n/a	n/a	n/a
3409.052	n/a	RECOG_LURE	1704526	n/a	LTP196	ltpFR	5	2	n/a	VEHICLE	1553	0	2	n/a	n/a	n/a	n/a	n/a	n/a
3410.532	n/a	RECOG_RESP	1705266	n/a	LTP196	ltpFR	5	2	n/a	VEHICLE	1553	0	n/a	n/a	n/a	n/a	n/a	n/a	n/a
3411.332	n/a	RECOG_CONF	1705666	n/a	LTP196	ltpFR	5	2	n/a	VEHICLE	1553	n/a	2	n/a	n/a	n/a	n/a	n/a	n/a
3412.846	n/a	RECOG_LURE	1706423	n/a	LTP196	ltpFR	5	2	n/a	SHACK	1273	0	4	n/a	n/a	n/a	n/a	n/a	n/a
3413.808	n/a	RECOG_RESP	1706904	n/a	LTP196	ltpFR	5	2	n/a	SHACK	1273	0	n/a	n/a	n/a	n/a	n/a	n/a	n/a
3414.378	n/a	RECOG_CONF	1707189	n/a	LTP196	ltpFR	5	2	n/a	SHACK	1273	n/a	4	n/a	n/a	n/a	n/a	n/a	n/a
3416.09	n/a	RECOG_TARGET	1708045	n/a	LTP196	ltpFR	5	2	-1	OVEN	991	1	5	-1	n/a	n/a	n/a	n/a	n/a
3417.042	n/a	RECOG_RESP	1708521	n/a	LTP196	ltpFR	5	2	-1	OVEN	991	1	n/a	-1	n/a	n/a	n/a	n/a	n/a
3417.67	n/a	RECOG_CONF	1708835	n/a	LTP196	ltpFR	5	2	-1	OVEN	991	n/a	5	-1	n/a	n/a	n/a	n/a	n/a
3419.286	n/a	RECOG_TARGET	1709643	n/a	LTP196	ltpFR	5	2	-1	OUTFIT	988	1	5	-1	n/a	n/a	n/a	n/a	n/a
3420.108	n/a	RECOG_RESP	1710054	n/a	LTP196	ltpFR	5	2	-1	OUTFIT	988	1	n/a	-1	n/a	n/a	n/a	n/a	n/a
3420.784	n/a	RECOG_CONF	1710392	n/a	LTP196	ltpFR	5	2	-1	OUTFIT	988	n/a	5	-1	n/a	n/a	n/a	n/a	n/a
3422.216	n/a	RECOG_TARGET	1711108	n/a	LTP196	ltpFR	5	2	-1	HINGE	709	1	5	-1	n/a	n/a	n/a	n/a	n/a
3423.03	n/a	RECOG_RESP	1711515	n/a	LTP196	ltpFR	5	2	-1	HINGE	709	1	n/a	-1	n/a	n/a	n/a	n/a	n/a
3423.636	n/a	RECOG_CONF	1711818	n/a	LTP196	ltpFR	5	2	-1	HINGE	709	n/a	5	-1	n/a	n/a	n/a	n/a	n/a
3425.36	n/a	RECOG_LURE	1712680	n/a	LTP196	ltpFR	5	2	n/a	ANKLE	24	0	4	n/a	n/a	n/a	n/a	n/a	n/a
3426.11	n/a	RECOG_RESP	1713055	n/a	LTP196	ltpFR	5	2	n/a	ANKLE	24	0	n/a	n/a	n/a	n/a	n/a	n/a	n/a
3426.81	n/a	RECOG_CONF	1713405	n/a	LTP196	ltpFR	5	2	n/a	ANKLE	24	n/a	4	n/a	n/a	n/a	n/a	n/a	n/a
3429.204	n/a	RECOG_LURE	1714602	n/a	LTP196	ltpFR	5	2	n/a	OWL	992	0	5	n/a	n/a	n/a	n/a	n/a	n/a
3430.426	n/a	RECOG_RESP	1715213	n/a	LTP196	ltpFR	5	2	n/a	OWL	992	0	n/a	n/a	n/a	n/a	n/a	n/a	n/a
3431.01	n/a	RECOG_CONF	1715505	n/a	LTP196	ltpFR	5	2	n/a	OWL	992	n/a	5	n/a	n/a	n/a	n/a	n/a	n/a
3432.516	n/a	RECOG_TARGET	1716258	n/a	LTP196	ltpFR	5	2	1	PREACHER	1119	0	3	1	n/a	n/a	n/a	n/a	n/a
3433.546	n/a	RECOG_RESP	1716773	n/a	LTP196	ltpFR	5	2	1	PREACHER	1119	0	n/a	1	n/a	n/a	n/a	n/a	n/a
3434.078	n/a	RECOG_CONF	1717039	n/a	LTP196	ltpFR	5	2	1	PREACHER	1119	n/a	3	1	n/a	n/a	n/a	n/a	n/a
3435.73	n/a	RECOG_TARGET	1717865	n/a	LTP196	ltpFR	5	2	-1	LOCK	838	1	4	-1	n/a	n/a	n/a	n/a	n/a
3437.02	n/a	RECOG_RESP	1718510	n/a	LTP196	ltpFR	5	2	-1	LOCK	838	1	n/a	-1	n/a	n/a	n/a	n/a	n/a
3438.004	n/a	RECOG_CONF	1719002	n/a	LTP196	ltpFR	5	2	-1	LOCK	838	n/a	4	-1	n/a	n/a	n/a	n/a	n/a
3439.44	n/a	RECOG_LURE	1719720	n/a	LTP196	ltpFR	5	2	n/a	MOLECULE	905	0	3	n/a	n/a	n/a	n/a	n/a	n/a
3440.4	n/a	RECOG_RESP	1720200	n/a	LTP196	ltpFR	5	2	n/a	MOLECULE	905	0	n/a	n/a	n/a	n/a	n/a	n/a	n/a
3441.124	n/a	RECOG_CONF	1720562	n/a	LTP196	ltpFR	5	2	n/a	MOLECULE	905	n/a	3	n/a	n/a	n/a	n/a	n/a	n/a
3442.668	n/a	RECOG_LURE	1721334	n/a	LTP196	ltpFR	5	2	n/a	PELICAN	1039	0	4	n/a	n/a	n/a	n/a	n/a	n/a
3443.672	n/a	RECOG_RESP	1721836	n/a	LTP196	ltpFR	5	2	n/a	PELICAN	1039	0	n/a	n/a	n/a	n/a	n/a	n/a	n/a
3444.45	n/a	RECOG_CONF	1722225	n/a	LTP196	ltpFR	5	2	n/a	PELICAN	1039	n/a	4	n/a	n/a	n/a	n/a	n/a	n/a
3447.482	n/a	REC_START	1723741	n/a	LTP196	ltpFR	5	3	n/a	n/a	n/a	n/a	n/a	n/a	n/a	n/a	n/a	n/a	n/a
3447.512	n/a	RECOG_LURE	1723756	n/a	LTP196	ltpFR	5	3	n/a	COLLAR	345	0	2	n/a	n/a	n/a	n/a	n/a	n/a
3449.344	n/a	RECOG_RESP	1724672	n/a	LTP196	ltpFR	5	3	n/a	COLLAR	345	0	n/a	n/a	n/a	n/a	n/a	n/a	n/a
3450.014	n/a	RECOG_CONF	1725007	n/a	LTP196	ltpFR	5	3	n/a	COLLAR	345	n/a	2	n/a	n/a	n/a	n/a	n/a	n/a
3451.506	n/a	RECOG_LURE	1725753	n/a	LTP196	ltpFR	5	3	n/a	SCALPEL	1243	0	5	n/a	n/a	n/a	n/a	n/a	n/a
3452.882	n/a	RECOG_RESP	1726441	n/a	LTP196	ltpFR	5	3	n/a	SCALPEL	1243	0	n/a	n/a	n/a	n/a	n/a	n/a	n/a
3453.502	n/a	RECOG_CONF	1726751	n/a	LTP196	ltpFR	5	3	n/a	SCALPEL	1243	n/a	5	n/a	n/a	n/a	n/a	n/a	n/a
3455.316	n/a	RECOG_TARGET	1727658	n/a	LTP196	ltpFR	5	3	-1	RIVER	1194	1	4	-1	n/a	n/a	n/a	n/a	n/a
3456.132	n/a	RECOG_RESP	1728066	n/a	LTP196	ltpFR	5	3	-1	RIVER	1194	1	n/a	-1	n/a	n/a	n/a	n/a	n/a
3456.914	n/a	RECOG_CONF	1728457	n/a	LTP196	ltpFR	5	3	-1	RIVER	1194	n/a	4	-1	n/a	n/a	n/a	n/a	n/a
3458.362	n/a	RECOG_LURE	1729181	n/a	LTP196	ltpFR	5	3	n/a	HATCHET	691	1	3	n/a	n/a	n/a	n/a	n/a	n/a
3460.444	n/a	RECOG_RESP	1730222	n/a	LTP196	ltpFR	5	3	n/a	HATCHET	691	1	n/a	n/a	n/a	n/a	n/a	n/a	n/a
3461.048	n/a	RECOG_CONF	1730524	n/a	LTP196	ltpFR	5	3	n/a	HATCHET	691	n/a	3	n/a	n/a	n/a	n/a	n/a	n/a
3462.69	n/a	RECOG_LURE	1731345	n/a	LTP196	ltpFR	5	3	n/a	LOAF	835	0	4	n/a	n/a	n/a	n/a	n/a	n/a
3463.612	n/a	RECOG_RESP	1731806	n/a	LTP196	ltpFR	5	3	n/a	LOAF	835	0	n/a	n/a	n/a	n/a	n/a	n/a	n/a
3464.264	n/a	RECOG_CONF	1732132	n/a	LTP196	ltpFR	5	3	n/a	LOAF	835	n/a	4	n/a	n/a	n/a	n/a	n/a	n/a
3465.702	n/a	RECOG_TARGET	1732851	n/a	LTP196	ltpFR	5	3	0	ASSOCIATE	49	0	4	1	n/a	n/a	n/a	n/a	n/a
3466.868	n/a	RECOG_RESP	1733434	n/a	LTP196	ltpFR	5	3	0	ASSOCIATE	49	0	n/a	1	n/a	n/a	n/a	n/a	n/a
3467.392	n/a	RECOG_CONF	1733696	n/a	LTP196	ltpFR	5	3	0	ASSOCIATE	49	n/a	4	1	n/a	n/a	n/a	n/a	n/a
3468.914	n/a	RECOG_TARGET	1734457	n/a	LTP196	ltpFR	5	3	-1	LUMBER	848	0	4	-1	n/a	n/a	n/a	n/a	n/a
3469.83	n/a	RECOG_RESP	1734915	n/a	LTP196	ltpFR	5	3	-1	LUMBER	848	0	n/a	-1	n/a	n/a	n/a	n/a	n/a
3470.424	n/a	RECOG_CONF	1735212	n/a	LTP196	ltpFR	5	3	-1	LUMBER	848	n/a	4	-1	n/a	n/a	n/a	n/a	n/a
3471.608	n/a	RECOG_LURE	1735804	n/a	LTP196	ltpFR	5	3	n/a	COLLEGE	346	0	4	n/a	n/a	n/a	n/a	n/a	n/a
3472.428	n/a	RECOG_RESP	1736214	n/a	LTP196	ltpFR	5	3	n/a	COLLEGE	346	0	n/a	n/a	n/a	n/a	n/a	n/a	n/a
3473.054	n/a	RECOG_CONF	1736527	n/a	LTP196	ltpFR	5	3	n/a	COLLEGE	346	n/a	4	n/a	n/a	n/a	n/a	n/a	n/a
3474.338	n/a	RECOG_LURE	1737169	n/a	LTP196	ltpFR	5	3	n/a	TORNADO	1485	0	4	n/a	n/a	n/a	n/a	n/a	n/a
3475.098	n/a	RECOG_RESP	1737549	n/a	LTP196	ltpFR	5	3	n/a	TORNADO	1485	0	n/a	n/a	n/a	n/a	n/a	n/a	n/a
3475.976	n/a	RECOG_CONF	1737988	n/a	LTP196	ltpFR	5	3	n/a	TORNADO	1485	n/a	4	n/a	n/a	n/a	n/a	n/a	n/a
3477.684	n/a	RECOG_TARGET	1738842	n/a	LTP196	ltpFR	5	3	1	WICK	1607	1	5	0	n/a	n/a	n/a	n/a	n/a
3478.5	n/a	RECOG_RESP	1739250	n/a	LTP196	ltpFR	5	3	1	WICK	1607	1	n/a	0	n/a	n/a	n/a	n/a	n/a
3479.142	n/a	RECOG_CONF	1739571	n/a	LTP196	ltpFR	5	3	1	WICK	1607	n/a	5	0	n/a	n/a	n/a	n/a	n/a
3480.746	n/a	RECOG_TARGET	1740373	n/a	LTP196	ltpFR	5	3	1	ENCYCLOPEDIA	533	1	5	0	n/a	n/a	n/a	n/a	n/a
3481.536	n/a	RECOG_RESP	1740768	n/a	LTP196	ltpFR	5	3	1	ENCYCLOPEDIA	533	1	n/a	0	n/a	n/a	n/a	n/a	n/a
3482.188	n/a	RECOG_CONF	1741094	n/a	LTP196	ltpFR	5	3	1	ENCYCLOPEDIA	533	n/a	5	0	n/a	n/a	n/a	n/a	n/a
3483.908	n/a	RECOG_TARGET	1741954	n/a	LTP196	ltpFR	5	3	1	CART	250	1	2	0	n/a	n/a	n/a	n/a	n/a
3486.204	n/a	RECOG_RESP	1743102	n/a	LTP196	ltpFR	5	3	1	CART	250	1	n/a	0	n/a	n/a	n/a	n/a	n/a
3486.93	n/a	RECOG_CONF	1743465	n/a	LTP196	ltpFR	5	3	1	CART	250	n/a	2	0	n/a	n/a	n/a	n/a	n/a
3488.55	n/a	RECOG_TARGET	1744275	n/a	LTP196	ltpFR	5	3	0	DRAGON	492	1	5	1	n/a	n/a	n/a	n/a	n/a
3489.352	n/a	RECOG_RESP	1744676	n/a	LTP196	ltpFR	5	3	0	DRAGON	492	1	n/a	1	n/a	n/a	n/a	n/a	n/a
3489.996	n/a	RECOG_CONF	1744998	n/a	LTP196	ltpFR	5	3	0	DRAGON	492	n/a	5	1	n/a	n/a	n/a	n/a	n/a
3491.612	n/a	RECOG_LURE	1745806	n/a	LTP196	ltpFR	5	3	n/a	COUGAR	387	1	3	n/a	n/a	n/a	n/a	n/a	n/a
3492.474	n/a	RECOG_RESP	1746237	n/a	LTP196	ltpFR	5	3	n/a	COUGAR	387	1	n/a	n/a	n/a	n/a	n/a	n/a	n/a
3493.122	n/a	RECOG_CONF	1746561	n/a	LTP196	ltpFR	5	3	n/a	COUGAR	387	n/a	3	n/a	n/a	n/a	n/a	n/a	n/a
3494.726	n/a	RECOG_TARGET	1747363	n/a	LTP196	ltpFR	5	3	-1	WILDERNESS	1610	1	5	-1	n/a	n/a	n/a	n/a	n/a
3495.536	n/a	RECOG_RESP	1747768	n/a	LTP196	ltpFR	5	3	-1	WILDERNESS	1610	1	n/a	-1	n/a	n/a	n/a	n/a	n/a
3496.256	n/a	RECOG_CONF	1748128	n/a	LTP196	ltpFR	5	3	-1	WILDERNESS	1610	n/a	5	-1	n/a	n/a	n/a	n/a	n/a
3497.788	n/a	RECOG_TARGET	1748894	n/a	LTP196	ltpFR	5	3	-1	POPCORN	1104	0	5	-1	n/a	n/a	n/a	n/a	n/a
3498.686	n/a	RECOG_RESP	1749343	n/a	LTP196	ltpFR	5	3	-1	POPCORN	1104	0	n/a	-1	n/a	n/a	n/a	n/a	n/a
3499.368	n/a	RECOG_CONF	1749684	n/a	LTP196	ltpFR	5	3	-1	POPCORN	1104	n/a	5	-1	n/a	n/a	n/a	n/a	n/a
3500.9	n/a	RECOG_TARGET	1750450	n/a	LTP196	ltpFR	5	3	-1	JOURNAL	760	1	4	-1	n/a	n/a	n/a	n/a	n/a
3501.654	n/a	RECOG_RESP	1750827	n/a	LTP196	ltpFR	5	3	-1	JOURNAL	760	1	n/a	-1	n/a	n/a	n/a	n/a	n/a
3502.246	n/a	RECOG_CONF	1751123	n/a	LTP196	ltpFR	5	3	-1	JOURNAL	760	n/a	4	-1	n/a	n/a	n/a	n/a	n/a
3503.946	n/a	RECOG_TARGET	1751973	n/a	LTP196	ltpFR	5	3	1	BANK	83	1	2	0	n/a	n/a	n/a	n/a	n/a
3505.264	n/a	RECOG_RESP	1752632	n/a	LTP196	ltpFR	5	3	1	BANK	83	1	n/a	0	n/a	n/a	n/a	n/a	n/a
3505.946	n/a	RECOG_CONF	1752973	n/a	LTP196	ltpFR	5	3	1	BANK	83	n/a	2	0	n/a	n/a	n/a	n/a	n/a
3507.572	n/a	RECOG_TARGET	1753786	n/a	LTP196	ltpFR	5	3	0	FLOOR	581	1	5	1	n/a	n/a	n/a	n/a	n/a
3508.224	n/a	RECOG_RESP	1754112	n/a	LTP196	ltpFR	5	3	0	FLOOR	581	1	n/a	1	n/a	n/a	n/a	n/a	n/a
3508.768	n/a	RECOG_CONF	1754384	n/a	LTP196	ltpFR	5	3	0	FLOOR	581	n/a	5	1	n/a	n/a	n/a	n/a	n/a
3510.5	n/a	RECOG_TARGET	1755250	n/a	LTP196	ltpFR	5	3	0	KNIGHT	786	1	5	1	n/a	n/a	n/a	n/a	n/a
3512.014	n/a	RECOG_RESP	1756007	n/a	LTP196	ltpFR	5	3	0	KNIGHT	786	1	n/a	1	n/a	n/a	n/a	n/a	n/a
3512.652	n/a	RECOG_CONF	1756326	n/a	LTP196	ltpFR	5	3	0	KNIGHT	786	n/a	5	1	n/a	n/a	n/a	n/a	n/a
3516.104	n/a	REC_START	1758052	n/a	LTP196	ltpFR	5	4	n/a	n/a	n/a	n/a	n/a	n/a	n/a	n/a	n/a	n/a	n/a
3516.142	n/a	RECOG_LURE	1758071	n/a	LTP196	ltpFR	5	4	n/a	CURTAIN	427	0	3	n/a	n/a	n/a	n/a	n/a	n/a
3517.26	n/a	RECOG_RESP	1758630	n/a	LTP196	ltpFR	5	4	n/a	CURTAIN	427	0	n/a	n/a	n/a	n/a	n/a	n/a	n/a
3517.946	n/a	RECOG_CONF	1758973	n/a	LTP196	ltpFR	5	4	n/a	CURTAIN	427	n/a	3	n/a	n/a	n/a	n/a	n/a	n/a
3519.388	n/a	RECOG_TARGET	1759694	n/a	LTP196	ltpFR	5	4	1	TWEEZERS	1526	1	5	0	n/a	n/a	n/a	n/a	n/a
3520.296	n/a	RECOG_RESP	1760148	n/a	LTP196	ltpFR	5	4	1	TWEEZERS	1526	1	n/a	0	n/a	n/a	n/a	n/a	n/a
3520.86	n/a	RECOG_CONF	1760430	n/a	LTP196	ltpFR	5	4	1	TWEEZERS	1526	n/a	5	0	n/a	n/a	n/a	n/a	n/a
3522.434	n/a	RECOG_TARGET	1761217	n/a	LTP196	ltpFR	5	4	1	THERMOMETER	1453	1	5	0	n/a	n/a	n/a	n/a	n/a
3523.224	n/a	RECOG_RESP	1761612	n/a	LTP196	ltpFR	5	4	1	THERMOMETER	1453	1	n/a	0	n/a	n/a	n/a	n/a	n/a
3523.852	n/a	RECOG_CONF	1761926	n/a	LTP196	ltpFR	5	4	1	THERMOMETER	1453	n/a	5	0	n/a	n/a	n/a	n/a	n/a
3525.346	n/a	RECOG_TARGET	1762673	n/a	LTP196	ltpFR	5	4	1	CREATURE	403	1	4	1	n/a	n/a	n/a	n/a	n/a
3526.138	n/a	RECOG_RESP	1763069	n/a	LTP196	ltpFR	5	4	1	CREATURE	403	1	n/a	1	n/a	n/a	n/a	n/a	n/a
3526.776	n/a	RECOG_CONF	1763388	n/a	LTP196	ltpFR	5	4	1	CREATURE	403	n/a	4	1	n/a	n/a	n/a	n/a	n/a
3528.458	n/a	RECOG_TARGET	1764229	n/a	LTP196	ltpFR	5	4	0	RING	1193	1	4	0	n/a	n/a	n/a	n/a	n/a
3529.124	n/a	RECOG_RESP	1764562	n/a	LTP196	ltpFR	5	4	0	RING	1193	1	n/a	0	n/a	n/a	n/a	n/a	n/a
3529.7	n/a	RECOG_CONF	1764850	n/a	LTP196	ltpFR	5	4	0	RING	1193	n/a	4	0	n/a	n/a	n/a	n/a	n/a
3531.338	n/a	RECOG_TARGET	1765669	n/a	LTP196	ltpFR	5	4	0	PEOPLE	1046	1	5	1	n/a	n/a	n/a	n/a	n/a
3532.104	n/a	RECOG_RESP	1766052	n/a	LTP196	ltpFR	5	4	0	PEOPLE	1046	1	n/a	1	n/a	n/a	n/a	n/a	n/a
3532.722	n/a	RECOG_CONF	1766361	n/a	LTP196	ltpFR	5	4	0	PEOPLE	1046	n/a	5	1	n/a	n/a	n/a	n/a	n/a
3534.332	n/a	RECOG_LURE	1767166	n/a	LTP196	ltpFR	5	4	n/a	RACCOON	1153	0	2	n/a	n/a	n/a	n/a	n/a	n/a
3535.616	n/a	RECOG_RESP	1767808	n/a	LTP196	ltpFR	5	4	n/a	RACCOON	1153	0	n/a	n/a	n/a	n/a	n/a	n/a	n/a
3536.228	n/a	RECOG_CONF	1768114	n/a	LTP196	ltpFR	5	4	n/a	RACCOON	1153	n/a	2	n/a	n/a	n/a	n/a	n/a	n/a
3537.694	n/a	RECOG_TARGET	1768847	n/a	LTP196	ltpFR	5	4	-1	MOTHER	921	1	5	-1	n/a	n/a	n/a	n/a	n/a
3538.354	n/a	RECOG_RESP	1769177	n/a	LTP196	ltpFR	5	4	-1	MOTHER	921	1	n/a	-1	n/a	n/a	n/a	n/a	n/a
3538.824	n/a	RECOG_CONF	1769412	n/a	LTP196	ltpFR	5	4	-1	MOTHER	921	n/a	5	-1	n/a	n/a	n/a	n/a	n/a
3540.474	n/a	RECOG_LURE	1770237	n/a	LTP196	ltpFR	5	4	n/a	VITAMIN	1574	0	4	n/a	n/a	n/a	n/a	n/a	n/a
3541.318	n/a	RECOG_RESP	1770659	n/a	LTP196	ltpFR	5	4	n/a	VITAMIN	1574	0	n/a	n/a	n/a	n/a	n/a	n/a	n/a
3541.792	n/a	RECOG_CONF	1770896	n/a	LTP196	ltpFR	5	4	n/a	VITAMIN	1574	n/a	4	n/a	n/a	n/a	n/a	n/a	n/a
3543.302	n/a	RECOG_TARGET	1771651	n/a	LTP196	ltpFR	5	4	-1	GENTLEMAN	631	1	3	-1	n/a	n/a	n/a	n/a	n/a
3544.71	n/a	RECOG_RESP_VV	1772355	n/a	LTP196	ltpFR	5	4	-1	GENTLEMAN	631	0	n/a	-1	n/a	n/a	n/a	n/a	n/a
3545.728	n/a	RECOG_RESP	1772864	n/a	LTP196	ltpFR	5	4	-1	GENTLEMAN	631	1	n/a	-1	n/a	n/a	n/a	n/a	n/a
3546.778	n/a	RECOG_CONF	1773389	n/a	LTP196	ltpFR	5	4	-1	GENTLEMAN	631	n/a	3	-1	n/a	n/a	n/a	n/a	n/a
3548.328	n/a	RECOG_LURE	1774164	n/a	LTP196	ltpFR	5	4	n/a	BANDAGE	79	1	2	n/a	n/a	n/a	n/a	n/a	n/a
3549.376	n/a	RECOG_RESP	1774688	n/a	LTP196	ltpFR	5	4	n/a	BANDAGE	79	1	n/a	n/a	n/a	n/a	n/a	n/a	n/a
3550.178	n/a	RECOG_CONF	1775089	n/a	LTP196	ltpFR	5	4	n/a	BANDAGE	79	n/a	2	n/a	n/a	n/a	n/a	n/a	n/a
3551.59	n/a	RECOG_LURE	1775795	n/a	LTP196	ltpFR	5	4	n/a	RASH	1167	0	3	n/a	n/a	n/a	n/a	n/a	n/a
3552.6	n/a	RECOG_RESP	1776300	n/a	LTP196	ltpFR	5	4	n/a	RASH	1167	0	n/a	n/a	n/a	n/a	n/a	n/a	n/a
3553.286	n/a	RECOG_CONF	1776643	n/a	LTP196	ltpFR	5	4	n/a	RASH	1167	n/a	3	n/a	n/a	n/a	n/a	n/a	n/a
3554.754	n/a	RECOG_TARGET	1777377	n/a	LTP196	ltpFR	5	4	-1	VEAL	1551	1	4	-1	n/a	n/a	n/a	n/a	n/a
3555.466	n/a	RECOG_RESP	1777733	n/a	LTP196	ltpFR	5	4	-1	VEAL	1551	1	n/a	-1	n/a	n/a	n/a	n/a	n/a
3556.148	n/a	RECOG_CONF	1778074	n/a	LTP196	ltpFR	5	4	-1	VEAL	1551	n/a	4	-1	n/a	n/a	n/a	n/a	n/a
3557.898	n/a	RECOG_TARGET	1778949	n/a	LTP196	ltpFR	5	4	0	SHRIMP	1297	1	5	0	n/a	n/a	n/a	n/a	n/a
3559.088	n/a	RECOG_RESP	1779544	n/a	LTP196	ltpFR	5	4	0	SHRIMP	1297	1	n/a	0	n/a	n/a	n/a	n/a	n/a
3559.772	n/a	RECOG_CONF	1779886	n/a	LTP196	ltpFR	5	4	0	SHRIMP	1297	n/a	5	0	n/a	n/a	n/a	n/a	n/a
3561.31	n/a	RECOG_TARGET	1780655	n/a	LTP196	ltpFR	5	4	0	TOAD	1470	1	5	0	n/a	n/a	n/a	n/a	n/a
3562.104	n/a	RECOG_RESP	1781052	n/a	LTP196	ltpFR	5	4	0	TOAD	1470	1	n/a	0	n/a	n/a	n/a	n/a	n/a
3562.646	n/a	RECOG_CONF	1781323	n/a	LTP196	ltpFR	5	4	0	TOAD	1470	n/a	5	0	n/a	n/a	n/a	n/a	n/a
3564.354	n/a	RECOG_TARGET	1782177	n/a	LTP196	ltpFR	5	4	0	BABY	64	1	3	0	n/a	n/a	n/a	n/a	n/a
3565.572	n/a	RECOG_RESP	1782786	n/a	LTP196	ltpFR	5	4	0	BABY	64	1	n/a	0	n/a	n/a	n/a	n/a	n/a
3566.396	n/a	RECOG_CONF	1783198	n/a	LTP196	ltpFR	5	4	0	BABY	64	n/a	3	0	n/a	n/a	n/a	n/a	n/a
3568.1	n/a	RECOG_TARGET	1784050	n/a	LTP196	ltpFR	5	4	0	CARPENTER	246	1	4	1	n/a	n/a	n/a	n/a	n/a
3568.962	n/a	RECOG_RESP	1784481	n/a	LTP196	ltpFR	5	4	0	CARPENTER	246	1	n/a	1	n/a	n/a	n/a	n/a	n/a
3569.688	n/a	RECOG_CONF	1784844	n/a	LTP196	ltpFR	5	4	0	CARPENTER	246	n/a	4	1	n/a	n/a	n/a	n/a	n/a
3571.178	n/a	RECOG_LURE	1785589	n/a	LTP196	ltpFR	5	4	n/a	ROBOT	1200	0	2	n/a	n/a	n/a	n/a	n/a	n/a
3573.594	n/a	RECOG_RESP	1786797	n/a	LTP196	ltpFR	5	4	n/a	ROBOT	1200	0	n/a	n/a	n/a	n/a	n/a	n/a	n/a
3574.306	n/a	RECOG_CONF	1787153	n/a	LTP196	ltpFR	5	4	n/a	ROBOT	1200	n/a	2	n/a	n/a	n/a	n/a	n/a	n/a
3575.856	n/a	RECOG_TARGET	1787928	n/a	LTP196	ltpFR	5	4	1	BUS	201	1	4	0	n/a	n/a	n/a	n/a	n/a
3576.746	n/a	RECOG_RESP	1788373	n/a	LTP196	ltpFR	5	4	1	BUS	201	1	n/a	0	n/a	n/a	n/a	n/a	n/a
3577.78	n/a	RECOG_CONF	1788890	n/a	LTP196	ltpFR	5	4	1	BUS	201	n/a	4	0	n/a	n/a	n/a	n/a	n/a
3579.466	n/a	RECOG_TARGET	1789733	n/a	LTP196	ltpFR	5	4	1	BUG	187	1	5	1	n/a	n/a	n/a	n/a	n/a
3580.188	n/a	RECOG_RESP	1790094	n/a	LTP196	ltpFR	5	4	1	BUG	187	1	n/a	1	n/a	n/a	n/a	n/a	n/a
3580.796	n/a	RECOG_CONF	1790398	n/a	LTP196	ltpFR	5	4	1	BUG	187	n/a	5	1	n/a	n/a	n/a	n/a	n/a
3584.072	n/a	REC_START	1792036	n/a	LTP196	ltpFR	5	5	n/a	n/a	n/a	n/a	n/a	n/a	n/a	n/a	n/a	n/a	n/a
3584.108	n/a	RECOG_TARGET	1792054	n/a	LTP196	ltpFR	5	5	-1	CUSTOMER	430	1	4	-1	n/a	n/a	n/a	n/a	n/a
3584.96	n/a	RECOG_RESP	1792480	n/a	LTP196	ltpFR	5	5	-1	CUSTOMER	430	1	n/a	-1	n/a	n/a	n/a	n/a	n/a
3585.632	n/a	RECOG_CONF	1792816	n/a	LTP196	ltpFR	5	5	-1	CUSTOMER	430	n/a	4	-1	n/a	n/a	n/a	n/a	n/a
3587.254	n/a	RECOG_TARGET	1793627	n/a	LTP196	ltpFR	5	5	0	KITTEN	780	1	4	0	n/a	n/a	n/a	n/a	n/a
3587.988	n/a	RECOG_RESP	1793994	n/a	LTP196	ltpFR	5	5	0	KITTEN	780	1	n/a	0	n/a	n/a	n/a	n/a	n/a
3588.706	n/a	RECOG_CONF	1794353	n/a	LTP196	ltpFR	5	5	0	KITTEN	780	n/a	4	0	n/a	n/a	n/a	n/a	n/a
3590.232	n/a	RECOG_LURE	1795116	n/a	LTP196	ltpFR	5	5	n/a	BROCCOLI	176	0	4	n/a	n/a	n/a	n/a	n/a	n/a
3591.212	n/a	RECOG_RESP	1795606	n/a	LTP196	ltpFR	5	5	n/a	BROCCOLI	176	0	n/a	n/a	n/a	n/a	n/a	n/a	n/a
3591.708	n/a	RECOG_CONF	1795854	n/a	LTP196	ltpFR	5	5	n/a	BROCCOLI	176	n/a	4	n/a	n/a	n/a	n/a	n/a	n/a
3593.128	n/a	RECOG_TARGET	1796564	n/a	LTP196	ltpFR	5	5	1	PAPER	1011	1	5	0	n/a	n/a	n/a	n/a	n/a
3593.874	n/a	RECOG_RESP	1796937	n/a	LTP196	ltpFR	5	5	1	PAPER	1011	1	n/a	0	n/a	n/a	n/a	n/a	n/a
3594.558	n/a	RECOG_CONF	1797279	n/a	LTP196	ltpFR	5	5	1	PAPER	1011	n/a	5	0	n/a	n/a	n/a	n/a	n/a
3596.074	n/a	RECOG_TARGET	1798037	n/a	LTP196	ltpFR	5	5	1	VASE	1549	1	5	0	n/a	n/a	n/a	n/a	n/a
3596.726	n/a	RECOG_RESP	1798363	n/a	LTP196	ltpFR	5	5	1	VASE	1549	1	n/a	0	n/a	n/a	n/a	n/a	n/a
