mstime	trial_type	stim_file	subject	experiment	session	trial	task	item_name	item_num	recog_conf	resp	color_b	color_g	color_r	case	font
0	SESS_START	n/a	LTP293	ltpFR	3	n/a	n/a	n/a	n/a	3	n/a	n/a	n/a	n/a	n/a	n/a
81087	WORD	wordpools/wasnorm_wordpool_less_exclusions.txt	LTP293	ltpFR	3	1	1	MISTER	901	5	1	1	0.412841796875	0.57763671875	upper	../fonts/amplitud.ttf
85015	WORD	wordpools/wasnorm_wordpool_less_exclusions.txt	LTP293	ltpFR	3	1	1	BANK	83	n/a	0	1	0.412841796875	0.57763671875	upper	../fonts/amplitud.ttf
88942	WORD	wordpools/wasnorm_wordpool_less_exclusions.txt	LTP293	ltpFR	3	1	1	QUARTER	1148	n/a	0	1	0.412841796875	0.57763671875	upper	../fonts/amplitud.ttf
92836	WORD	wordpools/wasnorm_wordpool_less_exclusions.txt	LTP293	ltpFR	3	1	1	TOWN	1491	n/a	0	1	0.412841796875	0.57763671875	upper	../fonts/amplitud.ttf
96880	WORD	wordpools/wasnorm_wordpool_less_exclusions.txt	LTP293	ltpFR	3	1	0	FLOWER	584	n/a	0	0	0.5869140625	0.422607421875	lower	../fonts/zerothre.ttf
100758	WORD	wordpools/wasnorm_wordpool_less_exclusions.txt	LTP293	ltpFR	3	1	0	BILL	126	n/a	0	0	0.5869140625	0.422607421875	lower	../fonts/zerothre.ttf
104802	WORD	wordpools/wasnorm_wordpool_less_exclusions.txt	LTP293	ltpFR	3	1	1	SLIDE	1326	n/a	0	1	0.412841796875	0.57763671875	upper	../fonts/amplitud.ttf
108663	WORD	wordpools/wasnorm_wordpool_less_exclusions.txt	LTP293	ltpFR	3	1	1	FOUNTAIN	597	n/a	0	1	0.412841796875	0.57763671875	upper	../fonts/amplitud.ttf
112856	WORD	wordpools/wasnorm_wordpool_less_exclusions.txt	LTP293	ltpFR	3	1	1	WORKER	1621	n/a	1	1	0.412841796875	0.57763671875	upper	../fonts/amplitud.ttf
117017	WORD	wordpools/wasnorm_wordpool_less_exclusions.txt	LTP293	ltpFR	3	1	1	TULIP	1517	n/a	0	1	0.412841796875	0.57763671875	upper	../fonts/amplitud.ttf
121077	WORD	wordpools/wasnorm_wordpool_less_exclusions.txt	LTP293	ltpFR	3	1	0	GOLD	647	n/a	0	0	0.5869140625	0.422607421875	lower	../fonts/zerothre.ttf
125055	WORD	wordpools/wasnorm_wordpool_less_exclusions.txt	LTP293	ltpFR	3	1	0	COUNTRY	388	n/a	1	0	0.5869140625	0.422607421875	lower	../fonts/zerothre.ttf
129232	WORD	wordpools/wasnorm_wordpool_less_exclusions.txt	LTP293	ltpFR	3	1	0	SUPERVISOR	1410	n/a	1	0	0.5869140625	0.422607421875	lower	../fonts/zerothre.ttf
133226	WORD	wordpools/wasnorm_wordpool_less_exclusions.txt	LTP293	ltpFR	3	1	0	BASSINET	97	n/a	0	0	0.5869140625	0.422607421875	lower	../fonts/zerothre.ttf
137203	WORD	wordpools/wasnorm_wordpool_less_exclusions.txt	LTP293	ltpFR	3	1	0	CHART	282	n/a	1	0	0.5869140625	0.422607421875	lower	../fonts/zerothre.ttf
141397	WORD	wordpools/wasnorm_wordpool_less_exclusions.txt	LTP293	ltpFR	3	1	0	PAGE	1001	n/a	0	0	0.5869140625	0.422607421875	lower	../fonts/zerothre.ttf
147256	REC_START	n/a	LTP293	ltpFR	3	1	n/a	n/a	n/a	n/a	n/a	n/a	n/a	n/a	n/a	n/a
148145	REC_WORD	wordpools/wasnorm_wordpool_less_exclusions.txt	LTP293	ltpFR	3	1	1	BANK	83	n/a	0	n/a	n/a	n/a	n/a	n/a
149247	REC_WORD	wordpools/wasnorm_wordpool_less_exclusions.txt	LTP293	ltpFR	3	1	1	MISTER	901	n/a	1	n/a	n/a	n/a	n/a	n/a
150758	REC_WORD	wordpools/wasnorm_wordpool_less_exclusions.txt	LTP293	ltpFR	3	1	0	SUPERVISOR	1410	n/a	1	n/a	n/a	n/a	n/a	n/a
152390	REC_WORD	wordpools/wasnorm_wordpool_less_exclusions.txt	LTP293	ltpFR	3	1	0	BILL	126	n/a	0	n/a	n/a	n/a	n/a	n/a
153967	REC_WORD	wordpools/wasnorm_wordpool_less_exclusions.txt	LTP293	ltpFR	3	1	1	QUARTER	1148	n/a	0	n/a	n/a	n/a	n/a	n/a
155279	REC_WORD	wordpools/wasnorm_wordpool_less_exclusions.txt	LTP293	ltpFR	3	1	0	BASSINET	97	n/a	0	n/a	n/a	n/a	n/a	n/a
156682	REC_WORD	wordpools/wasnorm_wordpool_less_exclusions.txt	LTP293	ltpFR	3	1	1	TULIP	1517	n/a	0	n/a	n/a	n/a	n/a	n/a
158025	REC_WORD	wordpools/wasnorm_wordpool_less_exclusions.txt	LTP293	ltpFR	3	1	0	FLOWER	584	n/a	0	n/a	n/a	n/a	n/a	n/a
159611	REC_WORD	wordpools/wasnorm_wordpool_less_exclusions.txt	LTP293	ltpFR	3	1	0	COUNTRY	388	n/a	1	n/a	n/a	n/a	n/a	n/a
162364	REC_WORD	wordpools/wasnorm_wordpool_less_exclusions.txt	LTP293	ltpFR	3	1	1	SLIDE	1326	n/a	0	n/a	n/a	n/a	n/a	n/a
163751	REC_WORD	wordpools/wasnorm_wordpool_less_exclusions.txt	LTP293	ltpFR	3	1	1	FOUNTAIN	597	n/a	0	n/a	n/a	n/a	n/a	n/a
175231	REC_WORD	wordpools/wasnorm_wordpool_less_exclusions.txt	LTP293	ltpFR	3	1	0	CHART	282	n/a	1	n/a	n/a	n/a	n/a	n/a
181665	REC_WORD	wordpools/wasnorm_wordpool_less_exclusions.txt	LTP293	ltpFR	3	1	1	TOWN	1491	n/a	0	n/a	n/a	n/a	n/a	n/a
197707	REC_WORD	wordpools/wasnorm_wordpool_less_exclusions.txt	LTP293	ltpFR	3	1	1	QUARTER	1148	n/a	0	n/a	n/a	n/a	n/a	n/a
217426	REC_WORD	wordpools/wasnorm_wordpool_less_exclusions.txt	LTP293	ltpFR	3	1	0	GOLD	647	n/a	0	n/a	n/a	n/a	n/a	n/a
247905	WORD	wordpools/wasnorm_wordpool_less_exclusions.txt	LTP293	ltpFR	3	2	0	PUBLICATION	1136	n/a	2	0	0.5869140625	0.422607421875	lower	../fonts/zerothre.ttf
249785	KEY_MSG	n/a	LTP293	ltpFR	3	2	n/a	n/a	n/a	n/a	n/a	n/a	n/a	n/a	n/a	n/a
252265	WORD	wordpools/wasnorm_wordpool_less_exclusions.txt	LTP293	ltpFR	3	2	0	BINDER	127	n/a	2	0	0.5869140625	0.422607421875	lower	../fonts/zerothre.ttf
253197	KEY_MSG	n/a	LTP293	ltpFR	3	2	n/a	n/a	n/a	n/a	n/a	n/a	n/a	n/a	n/a	n/a
256192	WORD	wordpools/wasnorm_wordpool_less_exclusions.txt	LTP293	ltpFR	3	2	0	BRIDGE	174	n/a	1	0	0.5869140625	0.422607421875	lower	../fonts/zerothre.ttf
260286	WORD	wordpools/wasnorm_wordpool_less_exclusions.txt	LTP293	ltpFR	3	2	0	VIOLIN	1571	n/a	1	0	0.5869140625	0.422607421875	lower	../fonts/zerothre.ttf
264214	WORD	wordpools/wasnorm_wordpool_less_exclusions.txt	LTP293	ltpFR	3	2	1	PHILOSOPHER	1054	n/a	1	1	0.412841796875	0.57763671875	upper	../fonts/amplitud.ttf
268224	WORD	wordpools/wasnorm_wordpool_less_exclusions.txt	LTP293	ltpFR	3	2	1	COOKIE	374	n/a	0	1	0.412841796875	0.57763671875	upper	../fonts/amplitud.ttf
272268	WORD	wordpools/wasnorm_wordpool_less_exclusions.txt	LTP293	ltpFR	3	2	0	ROCKET	1202	n/a	1	0	0.5869140625	0.422607421875	lower	../fonts/zerothre.ttf
276296	WORD	wordpools/wasnorm_wordpool_less_exclusions.txt	LTP293	ltpFR	3	2	0	BUCKET	184	n/a	0	0	0.5869140625	0.422607421875	lower	../fonts/zerothre.ttf
280323	WORD	wordpools/wasnorm_wordpool_less_exclusions.txt	LTP293	ltpFR	3	2	0	QUILL	1150	n/a	0	0	0.5869140625	0.422607421875	lower	../fonts/zerothre.ttf
284467	WORD	wordpools/wasnorm_wordpool_less_exclusions.txt	LTP293	ltpFR	3	2	0	PENCIL	1042	n/a	0	0	0.5869140625	0.422607421875	lower	../fonts/zerothre.ttf
288493	WORD	wordpools/wasnorm_wordpool_less_exclusions.txt	LTP293	ltpFR	3	2	1	SUITCASE	1403	n/a	0	1	0.412841796875	0.57763671875	upper	../fonts/amplitud.ttf
292388	WORD	wordpools/wasnorm_wordpool_less_exclusions.txt	LTP293	ltpFR	3	2	1	BURGLAR	200	n/a	1	1	0.412841796875	0.57763671875	upper	../fonts/amplitud.ttf
296466	WORD	wordpools/wasnorm_wordpool_less_exclusions.txt	LTP293	ltpFR	3	2	1	ENGINEER	536	n/a	1	1	0.412841796875	0.57763671875	upper	../fonts/amplitud.ttf
300676	WORD	wordpools/wasnorm_wordpool_less_exclusions.txt	LTP293	ltpFR	3	2	1	VINEGAR	1569	n/a	0	1	0.412841796875	0.57763671875	upper	../fonts/amplitud.ttf
304602	WORD	wordpools/wasnorm_wordpool_less_exclusions.txt	LTP293	ltpFR	3	2	1	FELLOW	558	n/a	1	1	0.412841796875	0.57763671875	upper	../fonts/amplitud.ttf
308646	WORD	wordpools/wasnorm_wordpool_less_exclusions.txt	LTP293	ltpFR	3	2	1	TRAITOR	1495	n/a	1	1	0.412841796875	0.57763671875	upper	../fonts/amplitud.ttf
314505	REC_START	n/a	LTP293	ltpFR	3	2	n/a	n/a	n/a	n/a	n/a	n/a	n/a	n/a	n/a	n/a
315606	REC_WORD	wordpools/wasnorm_wordpool_less_exclusions.txt	LTP293	ltpFR	3	2	1	TRAITOR	1495	n/a	1	n/a	n/a	n/a	n/a	n/a
316736	REC_WORD	wordpools/wasnorm_wordpool_less_exclusions.txt	LTP293	ltpFR	3	2	1	SUITCASE	1403	n/a	0	n/a	n/a	n/a	n/a	n/a
317736	REC_WORD_VV	wordpools/wasnorm_wordpool_less_exclusions.txt	LTP293	ltpFR	3	2	n/a	<>	-1	n/a	n/a	n/a	n/a	n/a	n/a	n/a
318252	REC_WORD	wordpools/wasnorm_wordpool_less_exclusions.txt	LTP293	ltpFR	3	2	0	PENCIL	1042	n/a	0	n/a	n/a	n/a	n/a	n/a
319567	REC_WORD	wordpools/wasnorm_wordpool_less_exclusions.txt	LTP293	ltpFR	3	2	0	QUILL	1150	n/a	0	n/a	n/a	n/a	n/a	n/a
320784	REC_WORD	wordpools/wasnorm_wordpool_less_exclusions.txt	LTP293	ltpFR	3	2	1	PHILOSOPHER	1054	n/a	1	n/a	n/a	n/a	n/a	n/a
322241	REC_WORD	wordpools/wasnorm_wordpool_less_exclusions.txt	LTP293	ltpFR	3	2	0	VIOLIN	1571	n/a	1	n/a	n/a	n/a	n/a	n/a
325567	REC_WORD	wordpools/wasnorm_wordpool_less_exclusions.txt	LTP293	ltpFR	3	2	1	ENGINEER	536	n/a	1	n/a	n/a	n/a	n/a	n/a
327249	REC_WORD	wordpools/wasnorm_wordpool_less_exclusions.txt	LTP293	ltpFR	3	2	0	BRIDGE	174	n/a	1	n/a	n/a	n/a	n/a	n/a
338024	REC_WORD	wordpools/wasnorm_wordpool_less_exclusions.txt	LTP293	ltpFR	3	2	1	FELLOW	558	n/a	1	n/a	n/a	n/a	n/a	n/a
385437	REC_WORD	wordpools/wasnorm_wordpool_less_exclusions.txt	LTP293	ltpFR	3	2	1	COOKIE	374	n/a	0	n/a	n/a	n/a	n/a	n/a
395984	WORD	wordpools/wasnorm_wordpool_less_exclusions.txt	LTP293	ltpFR	3	3	1	TREE	1502	n/a	1	1	0.412841796875	0.57763671875	upper	../fonts/amplitud.ttf
399894	WORD	wordpools/wasnorm_wordpool_less_exclusions.txt	LTP293	ltpFR	3	3	1	LEAF	808	n/a	1	1	0.412841796875	0.57763671875	upper	../fonts/amplitud.ttf
404022	WORD	wordpools/wasnorm_wordpool_less_exclusions.txt	LTP293	ltpFR	3	3	1	OAR	966	n/a	0	1	0.412841796875	0.57763671875	upper	../fonts/amplitud.ttf
408249	WORD	wordpools/wasnorm_wordpool_less_exclusions.txt	LTP293	ltpFR	3	3	0	COMMITTEE	355	n/a	1	0	0.5869140625	0.422607421875	lower	../fonts/zerothre.ttf
412193	WORD	wordpools/wasnorm_wordpool_less_exclusions.txt	LTP293	ltpFR	3	3	0	OLIVE	975	n/a	0	0	0.5869140625	0.422607421875	lower	../fonts/zerothre.ttf
416137	WORD	wordpools/wasnorm_wordpool_less_exclusions.txt	LTP293	ltpFR	3	3	0	RICE	1190	n/a	0	0	0.5869140625	0.422607421875	lower	../fonts/zerothre.ttf
420131	WORD	wordpools/wasnorm_wordpool_less_exclusions.txt	LTP293	ltpFR	3	3	0	BLUEJAY	141	n/a	0	0	0.5869140625	0.422607421875	lower	../fonts/zerothre.ttf
424192	WORD	wordpools/wasnorm_wordpool_less_exclusions.txt	LTP293	ltpFR	3	3	1	BAY	102	n/a	0	1	0.412841796875	0.57763671875	upper	../fonts/amplitud.ttf
428252	WORD	wordpools/wasnorm_wordpool_less_exclusions.txt	LTP293	ltpFR	3	3	1	LEOPARD	812	n/a	1	1	0.412841796875	0.57763671875	upper	../fonts/amplitud.ttf
432296	WORD	wordpools/wasnorm_wordpool_less_exclusions.txt	LTP293	ltpFR	3	3	1	WRIST	1626	n/a	0	1	0.412841796875	0.57763671875	upper	../fonts/amplitud.ttf
436257	WORD	wordpools/wasnorm_wordpool_less_exclusions.txt	LTP293	ltpFR	3	3	0	CACTUS	215	n/a	0	0	0.5869140625	0.422607421875	lower	../fonts/zerothre.ttf
440234	WORD	wordpools/wasnorm_wordpool_less_exclusions.txt	LTP293	ltpFR	3	3	0	RIVER	1194	n/a	1	0	0.5869140625	0.422607421875	lower	../fonts/zerothre.ttf
444212	WORD	wordpools/wasnorm_wordpool_less_exclusions.txt	LTP293	ltpFR	3	3	0	CORPORATION	382	n/a	1	0	0.5869140625	0.422607421875	lower	../fonts/zerothre.ttf
448322	WORD	wordpools/wasnorm_wordpool_less_exclusions.txt	LTP293	ltpFR	3	3	0	APPLICATION	34	n/a	0	0	0.5869140625	0.422607421875	lower	../fonts/zerothre.ttf
452416	WORD	wordpools/wasnorm_wordpool_less_exclusions.txt	LTP293	ltpFR	3	3	1	SEED	1266	n/a	0	1	0.412841796875	0.57763671875	upper	../fonts/amplitud.ttf
456344	WORD	wordpools/wasnorm_wordpool_less_exclusions.txt	LTP293	ltpFR	3	3	1	AUDIENCE	59	n/a	0	1	0.412841796875	0.57763671875	upper	../fonts/amplitud.ttf
462235	REC_START	n/a	LTP293	ltpFR	3	3	n/a	n/a	n/a	n/a	n/a	n/a	n/a	n/a	n/a	n/a
463042	REC_WORD	wordpools/wasnorm_wordpool_less_exclusions.txt	LTP293	ltpFR	3	3	1	AUDIENCE	59	n/a	0	n/a	n/a	n/a	n/a	n/a
463952	REC_WORD	wordpools/wasnorm_wordpool_less_exclusions.txt	LTP293	ltpFR	3	3	1	SEED	1266	n/a	0	n/a	n/a	n/a	n/a	n/a
465343	REC_WORD	wordpools/wasnorm_wordpool_less_exclusions.txt	LTP293	ltpFR	3	3	1	TREE	1502	n/a	1	n/a	n/a	n/a	n/a	n/a
466752	REC_WORD	wordpools/wasnorm_wordpool_less_exclusions.txt	LTP293	ltpFR	3	3	1	LEAF	808	n/a	1	n/a	n/a	n/a	n/a	n/a
468022	REC_WORD	wordpools/wasnorm_wordpool_less_exclusions.txt	LTP293	ltpFR	3	3	0	COMMITTEE	355	n/a	1	n/a	n/a	n/a	n/a	n/a
469434	REC_WORD	wordpools/wasnorm_wordpool_less_exclusions.txt	LTP293	ltpFR	3	3	0	CORPORATION	382	n/a	1	n/a	n/a	n/a	n/a	n/a
471879	REC_WORD	wordpools/wasnorm_wordpool_less_exclusions.txt	LTP293	ltpFR	3	3	0	OLIVE	975	n/a	0	n/a	n/a	n/a	n/a	n/a
474368	REC_WORD	wordpools/wasnorm_wordpool_less_exclusions.txt	LTP293	ltpFR	3	3	0	RICE	1190	n/a	0	n/a	n/a	n/a	n/a	n/a
475830	REC_WORD	wordpools/wasnorm_wordpool_less_exclusions.txt	LTP293	ltpFR	3	3	1	LEOPARD	812	n/a	1	n/a	n/a	n/a	n/a	n/a
477277	REC_WORD	wordpools/wasnorm_wordpool_less_exclusions.txt	LTP293	ltpFR	3	3	0	RIVER	1194	n/a	1	n/a	n/a	n/a	n/a	n/a
478898	REC_WORD	wordpools/wasnorm_wordpool_less_exclusions.txt	LTP293	ltpFR	3	3	1	BAY	102	n/a	0	n/a	n/a	n/a	n/a	n/a
486626	REC_WORD	wordpools/wasnorm_wordpool_less_exclusions.txt	LTP293	ltpFR	3	3	1	OAR	966	n/a	0	n/a	n/a	n/a	n/a	n/a
494667	REC_WORD	wordpools/wasnorm_wordpool_less_exclusions.txt	LTP293	ltpFR	3	3	0	APPLICATION	34	n/a	0	n/a	n/a	n/a	n/a	n/a
545509	WORD	wordpools/wasnorm_wordpool_less_exclusions.txt	LTP293	ltpFR	3	4	1	SUSPECT	1415	n/a	1	1	0.412841796875	0.57763671875	upper	../fonts/amplitud.ttf
549537	WORD	wordpools/wasnorm_wordpool_less_exclusions.txt	LTP293	ltpFR	3	4	1	PIKE	1067	n/a	1	1	0.412841796875	0.57763671875	upper	../fonts/amplitud.ttf
553597	WORD	wordpools/wasnorm_wordpool_less_exclusions.txt	LTP293	ltpFR	3	4	1	MECHANIC	884	n/a	1	1	0.412841796875	0.57763671875	upper	../fonts/amplitud.ttf
557775	WORD	wordpools/wasnorm_wordpool_less_exclusions.txt	LTP293	ltpFR	3	4	1	FAN	551	n/a	0	1	0.412841796875	0.57763671875	upper	../fonts/amplitud.ttf
561836	WORD	wordpools/wasnorm_wordpool_less_exclusions.txt	LTP293	ltpFR	3	4	1	ATMOSPHERE	54	n/a	0	1	0.412841796875	0.57763671875	upper	../fonts/amplitud.ttf
565913	WORD	wordpools/wasnorm_wordpool_less_exclusions.txt	LTP293	ltpFR	3	4	1	TURKEY	1520	n/a	1	1	0.412841796875	0.57763671875	upper	../fonts/amplitud.ttf
569757	WORD	wordpools/wasnorm_wordpool_less_exclusions.txt	LTP293	ltpFR	3	4	1	COOK	372	n/a	1	1	0.412841796875	0.57763671875	upper	../fonts/amplitud.ttf
573801	WORD	wordpools/wasnorm_wordpool_less_exclusions.txt	LTP293	ltpFR	3	4	1	CUSHION	428	n/a	0	1	0.412841796875	0.57763671875	upper	../fonts/amplitud.ttf
577979	WORD	wordpools/wasnorm_wordpool_less_exclusions.txt	LTP293	ltpFR	3	4	1	BASKET	95	n/a	0	1	0.412841796875	0.57763671875	upper	../fonts/amplitud.ttf
582089	WORD	wordpools/wasnorm_wordpool_less_exclusions.txt	LTP293	ltpFR	3	4	1	SCAPEGOAT	1244	n/a	1	1	0.412841796875	0.57763671875	upper	../fonts/amplitud.ttf
586033	WORD	wordpools/wasnorm_wordpool_less_exclusions.txt	LTP293	ltpFR	3	4	1	LIMOUSINE	824	n/a	0	1	0.412841796875	0.57763671875	upper	../fonts/amplitud.ttf
589961	WORD	wordpools/wasnorm_wordpool_less_exclusions.txt	LTP293	ltpFR	3	4	1	FISH	571	n/a	1	1	0.412841796875	0.57763671875	upper	../fonts/amplitud.ttf
594105	WORD	wordpools/wasnorm_wordpool_less_exclusions.txt	LTP293	ltpFR	3	4	1	BIKE	125	n/a	0	1	0.412841796875	0.57763671875	upper	../fonts/amplitud.ttf
598298	WORD	wordpools/wasnorm_wordpool_less_exclusions.txt	LTP293	ltpFR	3	4	1	SPOOL	1356	n/a	0	1	0.412841796875	0.57763671875	upper	../fonts/amplitud.ttf
602492	WORD	wordpools/wasnorm_wordpool_less_exclusions.txt	LTP293	ltpFR	3	4	1	JOINT	758	n/a	0	1	0.412841796875	0.57763671875	upper	../fonts/amplitud.ttf
606686	WORD	wordpools/wasnorm_wordpool_less_exclusions.txt	LTP293	ltpFR	3	4	1	TREASURE	1500	n/a	0	1	0.412841796875	0.57763671875	upper	../fonts/amplitud.ttf
612510	REC_START	n/a	LTP293	ltpFR	3	4	n/a	n/a	n/a	n/a	n/a	n/a	n/a	n/a	n/a	n/a
613201	REC_WORD	wordpools/wasnorm_wordpool_less_exclusions.txt	LTP293	ltpFR	3	4	1	TREASURE	1500	n/a	0	n/a	n/a	n/a	n/a	n/a
614335	REC_WORD	wordpools/wasnorm_wordpool_less_exclusions.txt	LTP293	ltpFR	3	4	1	JOINT	758	n/a	0	n/a	n/a	n/a	n/a	n/a
615304	REC_WORD	wordpools/wasnorm_wordpool_less_exclusions.txt	LTP293	ltpFR	3	4	1	SPOOL	1356	n/a	0	n/a	n/a	n/a	n/a	n/a
616739	REC_WORD	wordpools/wasnorm_wordpool_less_exclusions.txt	LTP293	ltpFR	3	4	1	CUSHION	428	n/a	0	n/a	n/a	n/a	n/a	n/a
617994	REC_WORD	wordpools/wasnorm_wordpool_less_exclusions.txt	LTP293	ltpFR	3	4	1	BASKET	95	n/a	0	n/a	n/a	n/a	n/a	n/a
621056	REC_WORD	wordpools/wasnorm_wordpool_less_exclusions.txt	LTP293	ltpFR	3	4	1	FISH	571	n/a	1	n/a	n/a	n/a	n/a	n/a
625546	REC_WORD	wordpools/wasnorm_wordpool_less_exclusions.txt	LTP293	ltpFR	3	4	1	PIKE	1067	n/a	1	n/a	n/a	n/a	n/a	n/a
678723	REC_WORD	wordpools/wasnorm_wordpool_less_exclusions.txt	LTP293	ltpFR	3	4	1	SCAPEGOAT	1244	n/a	1	n/a	n/a	n/a	n/a	n/a
699048	WORD	wordpools/wasnorm_wordpool_less_exclusions.txt	LTP293	ltpFR	3	5	0	KETCHUP	771	n/a	0	0	0.5869140625	0.422607421875	lower	../fonts/zerothre.ttf
703092	WORD	wordpools/wasnorm_wordpool_less_exclusions.txt	LTP293	ltpFR	3	5	0	NIECE	952	n/a	1	0	0.5869140625	0.422607421875	lower	../fonts/zerothre.ttf
707286	WORD	wordpools/wasnorm_wordpool_less_exclusions.txt	LTP293	ltpFR	3	5	0	TIDE	1465	n/a	0	0	0.5869140625	0.422607421875	lower	../fonts/zerothre.ttf
711263	WORD	wordpools/wasnorm_wordpool_less_exclusions.txt	LTP293	ltpFR	3	5	0	FAUCET	555	n/a	0	0	0.5869140625	0.422607421875	lower	../fonts/zerothre.ttf
715157	WORD	wordpools/wasnorm_wordpool_less_exclusions.txt	LTP293	ltpFR	3	5	1	DILL	465	n/a	0	1	0.412841796875	0.57763671875	upper	../fonts/amplitud.ttf
719184	WORD	wordpools/wasnorm_wordpool_less_exclusions.txt	LTP293	ltpFR	3	5	1	CABBAGE	210	n/a	1	1	0.412841796875	0.57763671875	upper	../fonts/amplitud.ttf
723328	WORD	wordpools/wasnorm_wordpool_less_exclusions.txt	LTP293	ltpFR	3	5	1	STREAM	1392	n/a	1	1	0.412841796875	0.57763671875	upper	../fonts/amplitud.ttf
727256	WORD	wordpools/wasnorm_wordpool_less_exclusions.txt	LTP293	ltpFR	3	5	1	PUPPY	1144	n/a	1	1	0.412841796875	0.57763671875	upper	../fonts/amplitud.ttf
731150	WORD	wordpools/wasnorm_wordpool_less_exclusions.txt	LTP293	ltpFR	3	5	0	COLLAR	345	n/a	0	0	0.5869140625	0.422607421875	lower	../fonts/zerothre.ttf
735144	WORD	wordpools/wasnorm_wordpool_less_exclusions.txt	LTP293	ltpFR	3	5	0	UNCLE	1536	n/a	1	0	0.5869140625	0.422607421875	lower	../fonts/zerothre.ttf
739221	WORD	wordpools/wasnorm_wordpool_less_exclusions.txt	LTP293	ltpFR	3	5	0	CHICK	296	n/a	0	0	0.5869140625	0.422607421875	lower	../fonts/zerothre.ttf
743348	WORD	wordpools/wasnorm_wordpool_less_exclusions.txt	LTP293	ltpFR	3	5	0	PIPE	1073	n/a	1	0	0.5869140625	0.422607421875	lower	../fonts/zerothre.ttf
747508	WORD	wordpools/wasnorm_wordpool_less_exclusions.txt	LTP293	ltpFR	3	5	1	TOTE	1487	n/a	0	1	0.412841796875	0.57763671875	upper	../fonts/amplitud.ttf
751585	WORD	wordpools/wasnorm_wordpool_less_exclusions.txt	LTP293	ltpFR	3	5	1	SCALLOP	1242	n/a	0	1	0.412841796875	0.57763671875	upper	../fonts/amplitud.ttf
755796	WORD	wordpools/wasnorm_wordpool_less_exclusions.txt	LTP293	ltpFR	3	5	1	COLT	349	n/a	1	1	0.412841796875	0.57763671875	upper	../fonts/amplitud.ttf
759840	WORD	wordpools/wasnorm_wordpool_less_exclusions.txt	LTP293	ltpFR	3	5	1	EGG	518	n/a	1	1	0.412841796875	0.57763671875	upper	../fonts/amplitud.ttf
765799	REC_START	n/a	LTP293	ltpFR	3	5	n/a	n/a	n/a	n/a	n/a	n/a	n/a	n/a	n/a	n/a
766719	REC_WORD	wordpools/wasnorm_wordpool_less_exclusions.txt	LTP293	ltpFR	3	5	1	EGG	518	n/a	1	n/a	n/a	n/a	n/a	n/a
767885	REC_WORD	wordpools/wasnorm_wordpool_less_exclusions.txt	LTP293	ltpFR	3	5	1	COLT	349	n/a	1	n/a	n/a	n/a	n/a	n/a
769860	REC_WORD	wordpools/wasnorm_wordpool_less_exclusions.txt	LTP293	ltpFR	3	5	0	NIECE	952	n/a	1	n/a	n/a	n/a	n/a	n/a
771292	REC_WORD	wordpools/wasnorm_wordpool_less_exclusions.txt	LTP293	ltpFR	3	5	0	UNCLE	1536	n/a	1	n/a	n/a	n/a	n/a	n/a
772860	REC_WORD	wordpools/wasnorm_wordpool_less_exclusions.txt	LTP293	ltpFR	3	5	0	KETCHUP	771	n/a	0	n/a	n/a	n/a	n/a	n/a
774535	REC_WORD	wordpools/wasnorm_wordpool_less_exclusions.txt	LTP293	ltpFR	3	5	0	CHICK	296	n/a	0	n/a	n/a	n/a	n/a	n/a
778354	REC_WORD	wordpools/wasnorm_wordpool_less_exclusions.txt	LTP293	ltpFR	3	5	1	DILL	465	n/a	0	n/a	n/a	n/a	n/a	n/a
895553	WORD	wordpools/wasnorm_wordpool_less_exclusions.txt	LTP293	ltpFR	3	6	0	OYSTER	995	n/a	0	0	0.5869140625	0.422607421875	lower	../fonts/zerothre.ttf
899631	WORD	wordpools/wasnorm_wordpool_less_exclusions.txt	LTP293	ltpFR	3	6	0	CHEF	290	n/a	1	0	0.5869140625	0.422607421875	lower	../fonts/zerothre.ttf
903792	WORD	wordpools/wasnorm_wordpool_less_exclusions.txt	LTP293	ltpFR	3	6	0	DINNER	468	n/a	0	0	0.5869140625	0.422607421875	lower	../fonts/zerothre.ttf
907936	WORD	wordpools/wasnorm_wordpool_less_exclusions.txt	LTP293	ltpFR	3	6	0	BANJO	82	n/a	1	0	0.5869140625	0.422607421875	lower	../fonts/zerothre.ttf
912046	WORD	wordpools/wasnorm_wordpool_less_exclusions.txt	LTP293	ltpFR	3	6	0	PIANO	1057	n/a	1	0	0.5869140625	0.422607421875	lower	../fonts/zerothre.ttf
915907	WORD	wordpools/wasnorm_wordpool_less_exclusions.txt	LTP293	ltpFR	3	6	0	WASHER	1592	n/a	1	0	0.5869140625	0.422607421875	lower	../fonts/zerothre.ttf
920051	WORD	wordpools/wasnorm_wordpool_less_exclusions.txt	LTP293	ltpFR	3	6	0	HOUND	724	n/a	1	0	0.5869140625	0.422607421875	lower	../fonts/zerothre.ttf
923895	WORD	wordpools/wasnorm_wordpool_less_exclusions.txt	LTP293	ltpFR	3	6	0	MOLECULE	905	n/a	0	0	0.5869140625	0.422607421875	lower	../fonts/zerothre.ttf
927790	WORD	wordpools/wasnorm_wordpool_less_exclusions.txt	LTP293	ltpFR	3	6	0	OVAL	990	n/a	0	0	0.5869140625	0.422607421875	lower	../fonts/zerothre.ttf
931784	WORD	wordpools/wasnorm_wordpool_less_exclusions.txt	LTP293	ltpFR	3	6	0	ATLAS	53	n/a	1	0	0.5869140625	0.422607421875	lower	../fonts/zerothre.ttf
935761	WORD	wordpools/wasnorm_wordpool_less_exclusions.txt	LTP293	ltpFR	3	6	0	ALMOND	18	n/a	0	0	0.5869140625	0.422607421875	lower	../fonts/zerothre.ttf
939621	WORD	wordpools/wasnorm_wordpool_less_exclusions.txt	LTP293	ltpFR	3	6	0	LOG	841	n/a	1	0	0.5869140625	0.422607421875	lower	../fonts/zerothre.ttf
943615	WORD	wordpools/wasnorm_wordpool_less_exclusions.txt	LTP293	ltpFR	3	6	0	CLOUD	328	n/a	1	0	0.5869140625	0.422607421875	lower	../fonts/zerothre.ttf
947626	WORD	wordpools/wasnorm_wordpool_less_exclusions.txt	LTP293	ltpFR	3	6	0	COYOTE	396	n/a	1	0	0.5869140625	0.422607421875	lower	../fonts/zerothre.ttf
951653	WORD	wordpools/wasnorm_wordpool_less_exclusions.txt	LTP293	ltpFR	3	6	0	SHED	1277	n/a	1	0	0.5869140625	0.422607421875	lower	../fonts/zerothre.ttf
955748	WORD	wordpools/wasnorm_wordpool_less_exclusions.txt	LTP293	ltpFR	3	6	0	NERVE	944	n/a	0	0	0.5869140625	0.422607421875	lower	../fonts/zerothre.ttf
961473	REC_START	n/a	LTP293	ltpFR	3	6	n/a	n/a	n/a	n/a	n/a	n/a	n/a	n/a	n/a	n/a
962030	REC_WORD	wordpools/wasnorm_wordpool_less_exclusions.txt	LTP293	ltpFR	3	6	0	NERVE	944	n/a	0	n/a	n/a	n/a	n/a	n/a
962927	REC_WORD	wordpools/wasnorm_wordpool_less_exclusions.txt	LTP293	ltpFR	3	6	0	MOLECULE	905	n/a	0	n/a	n/a	n/a	n/a	n/a
964067	REC_WORD	wordpools/wasnorm_wordpool_less_exclusions.txt	LTP293	ltpFR	3	6	0	SHED	1277	n/a	1	n/a	n/a	n/a	n/a	n/a
965354	REC_WORD	wordpools/wasnorm_wordpool_less_exclusions.txt	LTP293	ltpFR	3	6	0	CHEF	290	n/a	1	n/a	n/a	n/a	n/a	n/a
966723	REC_WORD	wordpools/wasnorm_wordpool_less_exclusions.txt	LTP293	ltpFR	3	6	0	OYSTER	995	n/a	0	n/a	n/a	n/a	n/a	n/a
968054	REC_WORD	wordpools/wasnorm_wordpool_less_exclusions.txt	LTP293	ltpFR	3	6	0	DINNER	468	n/a	0	n/a	n/a	n/a	n/a	n/a
969636	REC_WORD	wordpools/wasnorm_wordpool_less_exclusions.txt	LTP293	ltpFR	3	6	0	HOUND	724	n/a	1	n/a	n/a	n/a	n/a	n/a
970855	REC_WORD	wordpools/wasnorm_wordpool_less_exclusions.txt	LTP293	ltpFR	3	6	0	COYOTE	396	n/a	1	n/a	n/a	n/a	n/a	n/a
972476	REC_WORD	wordpools/wasnorm_wordpool_less_exclusions.txt	LTP293	ltpFR	3	6	0	ATLAS	53	n/a	1	n/a	n/a	n/a	n/a	n/a
973555	REC_WORD	wordpools/wasnorm_wordpool_less_exclusions.txt	LTP293	ltpFR	3	6	0	OVAL	990	n/a	0	n/a	n/a	n/a	n/a	n/a
976970	REC_WORD	wordpools/wasnorm_wordpool_less_exclusions.txt	LTP293	ltpFR	3	6	0	ALMOND	18	n/a	0	n/a	n/a	n/a	n/a	n/a
978653	REC_WORD	wordpools/wasnorm_wordpool_less_exclusions.txt	LTP293	ltpFR	3	6	0	WASHER	1592	n/a	1	n/a	n/a	n/a	n/a	n/a
983128	REC_WORD	wordpools/wasnorm_wordpool_less_exclusions.txt	LTP293	ltpFR	3	6	0	LOG	841	n/a	1	n/a	n/a	n/a	n/a	n/a
1064219	WORD	wordpools/wasnorm_wordpool_less_exclusions.txt	LTP293	ltpFR	3	7	1	LITERATURE	831	n/a	0	1	0.412841796875	0.57763671875	upper	../fonts/amplitud.ttf
1068363	WORD	wordpools/wasnorm_wordpool_less_exclusions.txt	LTP293	ltpFR	3	7	1	COLUMN	350	n/a	0	1	0.412841796875	0.57763671875	upper	../fonts/amplitud.ttf
1072539	WORD	wordpools/wasnorm_wordpool_less_exclusions.txt	LTP293	ltpFR	3	7	1	METEOR	889	n/a	0	1	0.412841796875	0.57763671875	upper	../fonts/amplitud.ttf
1076667	WORD	wordpools/wasnorm_wordpool_less_exclusions.txt	LTP293	ltpFR	3	7	1	MICROWAVE	892	n/a	0	1	0.412841796875	0.57763671875	upper	../fonts/amplitud.ttf
1080627	WORD	wordpools/wasnorm_wordpool_less_exclusions.txt	LTP293	ltpFR	3	7	0	BULL	193	n/a	1	0	0.5869140625	0.422607421875	lower	../fonts/zerothre.ttf
1084805	WORD	wordpools/wasnorm_wordpool_less_exclusions.txt	LTP293	ltpFR	3	7	0	STAR	1373	n/a	1	0	0.5869140625	0.422607421875	lower	../fonts/zerothre.ttf
1089015	WORD	wordpools/wasnorm_wordpool_less_exclusions.txt	LTP293	ltpFR	3	7	0	OFFICER	973	n/a	1	0	0.5869140625	0.422607421875	lower	../fonts/zerothre.ttf
1093109	WORD	wordpools/wasnorm_wordpool_less_exclusions.txt	LTP293	ltpFR	3	7	0	COD	340	n/a	0	0	0.5869140625	0.422607421875	lower	../fonts/zerothre.ttf
1097004	WORD	wordpools/wasnorm_wordpool_less_exclusions.txt	LTP293	ltpFR	3	7	1	REFRIGERATOR	1179	n/a	0	1	0.412841796875	0.57763671875	upper	../fonts/amplitud.ttf
1100848	WORD	wordpools/wasnorm_wordpool_less_exclusions.txt	LTP293	ltpFR	3	7	1	DEPARTMENT	449	n/a	0	1	0.412841796875	0.57763671875	upper	../fonts/amplitud.ttf
1104675	WORD	wordpools/wasnorm_wordpool_less_exclusions.txt	LTP293	ltpFR	3	7	1	BLADE	134	n/a	0	1	0.412841796875	0.57763671875	upper	../fonts/amplitud.ttf
1108719	WORD	wordpools/wasnorm_wordpool_less_exclusions.txt	LTP293	ltpFR	3	7	1	INVENTOR	743	n/a	1	1	0.412841796875	0.57763671875	upper	../fonts/amplitud.ttf
1112830	WORD	wordpools/wasnorm_wordpool_less_exclusions.txt	LTP293	ltpFR	3	7	0	LIPSTICK	829	n/a	0	0	0.5869140625	0.422607421875	lower	../fonts/zerothre.ttf
1117007	WORD	wordpools/wasnorm_wordpool_less_exclusions.txt	LTP293	ltpFR	3	7	0	ROUGE	1213	n/a	0	0	0.5869140625	0.422607421875	lower	../fonts/zerothre.ttf
1121184	WORD	wordpools/wasnorm_wordpool_less_exclusions.txt	LTP293	ltpFR	3	7	0	MICROSCOPE	891	n/a	0	0	0.5869140625	0.422607421875	lower	../fonts/zerothre.ttf
1125211	WORD	wordpools/wasnorm_wordpool_less_exclusions.txt	LTP293	ltpFR	3	7	0	BEAKER	104	n/a	0	0	0.5869140625	0.422607421875	lower	../fonts/zerothre.ttf
1131203	REC_START	n/a	LTP293	ltpFR	3	7	n/a	n/a	n/a	n/a	n/a	n/a	n/a	n/a	n/a	n/a
1131765	REC_WORD	wordpools/wasnorm_wordpool_less_exclusions.txt	LTP293	ltpFR	3	7	0	MICROSCOPE	891	n/a	0	n/a	n/a	n/a	n/a	n/a
1132945	REC_WORD	wordpools/wasnorm_wordpool_less_exclusions.txt	LTP293	ltpFR	3	7	0	BEAKER	104	n/a	0	n/a	n/a	n/a	n/a	n/a
1134175	REC_WORD	wordpools/wasnorm_wordpool_less_exclusions.txt	LTP293	ltpFR	3	7	0	LIPSTICK	829	n/a	0	n/a	n/a	n/a	n/a	n/a
1136173	REC_WORD	wordpools/wasnorm_wordpool_less_exclusions.txt	LTP293	ltpFR	3	7	0	ROUGE	1213	n/a	0	n/a	n/a	n/a	n/a	n/a
1138201	REC_WORD	wordpools/wasnorm_wordpool_less_exclusions.txt	LTP293	ltpFR	3	7	1	COLUMN	350	n/a	0	n/a	n/a	n/a	n/a	n/a
1139536	REC_WORD	wordpools/wasnorm_wordpool_less_exclusions.txt	LTP293	ltpFR	3	7	1	METEOR	889	n/a	0	n/a	n/a	n/a	n/a	n/a
1140773	REC_WORD	wordpools/wasnorm_wordpool_less_exclusions.txt	LTP293	ltpFR	3	7	0	STAR	1373	n/a	1	n/a	n/a	n/a	n/a	n/a
1144465	REC_WORD	wordpools/wasnorm_wordpool_less_exclusions.txt	LTP293	ltpFR	3	7	0	OFFICER	973	n/a	1	n/a	n/a	n/a	n/a	n/a
1161833	REC_WORD	wordpools/wasnorm_wordpool_less_exclusions.txt	LTP293	ltpFR	3	7	1	MICROWAVE	892	n/a	0	n/a	n/a	n/a	n/a	n/a
1163097	REC_WORD	wordpools/wasnorm_wordpool_less_exclusions.txt	LTP293	ltpFR	3	7	1	REFRIGERATOR	1179	n/a	0	n/a	n/a	n/a	n/a	n/a
1214594	WORD	wordpools/wasnorm_wordpool_less_exclusions.txt	LTP293	ltpFR	3	8	-1	FIREMAN	569	n/a	-1	1	1.0	1.0	upper	../fonts/Verdana.ttf
1218504	WORD	wordpools/wasnorm_wordpool_less_exclusions.txt	LTP293	ltpFR	3	8	-1	REPORT	1184	n/a	-1	1	1.0	1.0	upper	../fonts/Verdana.ttf
1222483	WORD	wordpools/wasnorm_wordpool_less_exclusions.txt	LTP293	ltpFR	3	8	-1	PAPER	1011	n/a	-1	1	1.0	1.0	upper	../fonts/Verdana.ttf
1226410	WORD	wordpools/wasnorm_wordpool_less_exclusions.txt	LTP293	ltpFR	3	8	-1	CONCERT	360	n/a	-1	1	1.0	1.0	upper	../fonts/Verdana.ttf
1230271	WORD	wordpools/wasnorm_wordpool_less_exclusions.txt	LTP293	ltpFR	3	8	-1	GARDEN	623	n/a	-1	1	1.0	1.0	upper	../fonts/Verdana.ttf
1234215	WORD	wordpools/wasnorm_wordpool_less_exclusions.txt	LTP293	ltpFR	3	8	-1	TURNIP	1521	n/a	-1	1	1.0	1.0	upper	../fonts/Verdana.ttf
1238043	WORD	wordpools/wasnorm_wordpool_less_exclusions.txt	LTP293	ltpFR	3	8	-1	DIME	466	n/a	-1	1	1.0	1.0	upper	../fonts/Verdana.ttf
1242237	WORD	wordpools/wasnorm_wordpool_less_exclusions.txt	LTP293	ltpFR	3	8	-1	CASH	252	n/a	-1	1	1.0	1.0	upper	../fonts/Verdana.ttf
1246331	WORD	wordpools/wasnorm_wordpool_less_exclusions.txt	LTP293	ltpFR	3	8	-1	MILITARY	894	n/a	-1	1	1.0	1.0	upper	../fonts/Verdana.ttf
1250341	WORD	wordpools/wasnorm_wordpool_less_exclusions.txt	LTP293	ltpFR	3	8	-1	MAJOR	859	n/a	-1	1	1.0	1.0	upper	../fonts/Verdana.ttf
1254435	WORD	wordpools/wasnorm_wordpool_less_exclusions.txt	LTP293	ltpFR	3	8	-1	TWEEZERS	1526	n/a	-1	1	1.0	1.0	upper	../fonts/Verdana.ttf
1258595	WORD	wordpools/wasnorm_wordpool_less_exclusions.txt	LTP293	ltpFR	3	8	-1	DRYER	503	n/a	-1	1	1.0	1.0	upper	../fonts/Verdana.ttf
1262806	WORD	wordpools/wasnorm_wordpool_less_exclusions.txt	LTP293	ltpFR	3	8	-1	SKETCH	1315	n/a	-1	1	1.0	1.0	upper	../fonts/Verdana.ttf
1266700	WORD	wordpools/wasnorm_wordpool_less_exclusions.txt	LTP293	ltpFR	3	8	-1	VASE	1549	n/a	-1	1	1.0	1.0	upper	../fonts/Verdana.ttf
1270861	WORD	wordpools/wasnorm_wordpool_less_exclusions.txt	LTP293	ltpFR	3	8	-1	CHEERLEADER	288	n/a	-1	1	1.0	1.0	upper	../fonts/Verdana.ttf
1274905	WORD	wordpools/wasnorm_wordpool_less_exclusions.txt	LTP293	ltpFR	3	8	-1	BEET	115	n/a	-1	1	1.0	1.0	upper	../fonts/Verdana.ttf
1280830	REC_START	n/a	LTP293	ltpFR	3	8	n/a	n/a	n/a	n/a	n/a	n/a	n/a	n/a	n/a	n/a
1281334	REC_WORD	wordpools/wasnorm_wordpool_less_exclusions.txt	LTP293	ltpFR	3	8	-1	BEET	115	n/a	-1	n/a	n/a	n/a	n/a	n/a
1282154	REC_WORD	wordpools/wasnorm_wordpool_less_exclusions.txt	LTP293	ltpFR	3	8	-1	TURNIP	1521	n/a	-1	n/a	n/a	n/a	n/a	n/a
1283066	REC_WORD	wordpools/wasnorm_wordpool_less_exclusions.txt	LTP293	ltpFR	3	8	-1	GARDEN	623	n/a	-1	n/a	n/a	n/a	n/a	n/a
1284133	REC_WORD	wordpools/wasnorm_wordpool_less_exclusions.txt	LTP293	ltpFR	3	8	-1	DIME	466	n/a	-1	n/a	n/a	n/a	n/a	n/a
1285274	REC_WORD	wordpools/wasnorm_wordpool_less_exclusions.txt	LTP293	ltpFR	3	8	-1	FIREMAN	569	n/a	-1	n/a	n/a	n/a	n/a	n/a
1286389	REC_WORD	wordpools/wasnorm_wordpool_less_exclusions.txt	LTP293	ltpFR	3	8	-1	REPORT	1184	n/a	-1	n/a	n/a	n/a	n/a	n/a
1287471	REC_WORD	wordpools/wasnorm_wordpool_less_exclusions.txt	LTP293	ltpFR	3	8	-1	PAPER	1011	n/a	-1	n/a	n/a	n/a	n/a	n/a
1288350	REC_WORD	wordpools/wasnorm_wordpool_less_exclusions.txt	LTP293	ltpFR	3	8	-1	SKETCH	1315	n/a	-1	n/a	n/a	n/a	n/a	n/a
1291906	REC_WORD	wordpools/wasnorm_wordpool_less_exclusions.txt	LTP293	ltpFR	3	8	-1	CONCERT	360	n/a	-1	n/a	n/a	n/a	n/a	n/a
1356433	REST_REWET	n/a	LTP293	ltpFR	3	8	n/a	n/a	n/a	n/a	n/a	n/a	n/a	n/a	n/a	n/a
1829177	WORD	wordpools/wasnorm_wordpool_less_exclusions.txt	LTP293	ltpFR	3	9	1	PARROT	1015	n/a	1	1	0.412841796875	0.57763671875	upper	../fonts/amplitud.ttf
1833038	WORD	wordpools/wasnorm_wordpool_less_exclusions.txt	LTP293	ltpFR	3	9	1	THICKET	1455	n/a	0	1	0.412841796875	0.57763671875	upper	../fonts/amplitud.ttf
1837215	WORD	wordpools/wasnorm_wordpool_less_exclusions.txt	LTP293	ltpFR	3	9	1	POWDER	1117	n/a	0	1	0.412841796875	0.57763671875	upper	../fonts/amplitud.ttf
1841392	WORD	wordpools/wasnorm_wordpool_less_exclusions.txt	LTP293	ltpFR	3	9	1	BEARD	107	n/a	0	1	0.412841796875	0.57763671875	upper	../fonts/amplitud.ttf
1845518	WORD	wordpools/wasnorm_wordpool_less_exclusions.txt	LTP293	ltpFR	3	9	1	KING	777	n/a	1	1	0.412841796875	0.57763671875	upper	../fonts/amplitud.ttf
1849663	WORD	wordpools/wasnorm_wordpool_less_exclusions.txt	LTP293	ltpFR	3	9	1	DICTATOR	462	n/a	1	1	0.412841796875	0.57763671875	upper	../fonts/amplitud.ttf
1853657	WORD	wordpools/wasnorm_wordpool_less_exclusions.txt	LTP293	ltpFR	3	9	1	TREAD	1499	n/a	0	1	0.412841796875	0.57763671875	upper	../fonts/amplitud.ttf
1857550	WORD	wordpools/wasnorm_wordpool_less_exclusions.txt	LTP293	ltpFR	3	9	1	FEAST	556	n/a	0	1	0.412841796875	0.57763671875	upper	../fonts/amplitud.ttf
1861695	WORD	wordpools/wasnorm_wordpool_less_exclusions.txt	LTP293	ltpFR	3	9	1	AIRPLANE	12	n/a	0	1	0.412841796875	0.57763671875	upper	../fonts/amplitud.ttf
1865722	WORD	wordpools/wasnorm_wordpool_less_exclusions.txt	LTP293	ltpFR	3	9	1	POPE	1105	n/a	1	1	0.412841796875	0.57763671875	upper	../fonts/amplitud.ttf
1869800	WORD	wordpools/wasnorm_wordpool_less_exclusions.txt	LTP293	ltpFR	3	9	1	CROSS	413	n/a	0	1	0.412841796875	0.57763671875	upper	../fonts/amplitud.ttf
1873810	WORD	wordpools/wasnorm_wordpool_less_exclusions.txt	LTP293	ltpFR	3	9	1	PUDDLE	1140	n/a	0	1	0.412841796875	0.57763671875	upper	../fonts/amplitud.ttf
1877904	WORD	wordpools/wasnorm_wordpool_less_exclusions.txt	LTP293	ltpFR	3	9	1	WAITRESS	1581	n/a	1	1	0.412841796875	0.57763671875	upper	../fonts/amplitud.ttf
1881865	WORD	wordpools/wasnorm_wordpool_less_exclusions.txt	LTP293	ltpFR	3	9	1	NOVEL	960	n/a	0	1	0.412841796875	0.57763671875	upper	../fonts/amplitud.ttf
1886075	WORD	wordpools/wasnorm_wordpool_less_exclusions.txt	LTP293	ltpFR	3	9	1	FARMER	553	n/a	1	1	0.412841796875	0.57763671875	upper	../fonts/amplitud.ttf
1890019	WORD	wordpools/wasnorm_wordpool_less_exclusions.txt	LTP293	ltpFR	3	9	1	BUTTERFLY	206	n/a	0	1	0.412841796875	0.57763671875	upper	../fonts/amplitud.ttf
1895911	REC_START	n/a	LTP293	ltpFR	3	9	n/a	n/a	n/a	n/a	n/a	n/a	n/a	n/a	n/a	n/a
1896760	REC_WORD	wordpools/wasnorm_wordpool_less_exclusions.txt	LTP293	ltpFR	3	9	1	KING	777	n/a	1	n/a	n/a	n/a	n/a	n/a
1897787	REC_WORD	wordpools/wasnorm_wordpool_less_exclusions.txt	LTP293	ltpFR	3	9	1	DICTATOR	462	n/a	1	n/a	n/a	n/a	n/a	n/a
1899078	REC_WORD	wordpools/wasnorm_wordpool_less_exclusions.txt	LTP293	ltpFR	3	9	1	PARROT	1015	n/a	1	n/a	n/a	n/a	n/a	n/a
1901840	REC_WORD	wordpools/wasnorm_wordpool_less_exclusions.txt	LTP293	ltpFR	3	9	1	WAITRESS	1581	n/a	1	n/a	n/a	n/a	n/a	n/a
1903467	REC_WORD	wordpools/wasnorm_wordpool_less_exclusions.txt	LTP293	ltpFR	3	9	1	FEAST	556	n/a	0	n/a	n/a	n/a	n/a	n/a
1906634	REC_WORD	wordpools/wasnorm_wordpool_less_exclusions.txt	LTP293	ltpFR	3	9	1	PUDDLE	1140	n/a	0	n/a	n/a	n/a	n/a	n/a
1918219	REC_WORD	wordpools/wasnorm_wordpool_less_exclusions.txt	LTP293	ltpFR	3	9	1	BEARD	107	n/a	0	n/a	n/a	n/a	n/a	n/a
1929055	REC_WORD	wordpools/wasnorm_wordpool_less_exclusions.txt	LTP293	ltpFR	3	9	1	TREAD	1499	n/a	0	n/a	n/a	n/a	n/a	n/a
1945793	REC_WORD	wordpools/wasnorm_wordpool_less_exclusions.txt	LTP293	ltpFR	3	9	1	AIRPLANE	12	n/a	0	n/a	n/a	n/a	n/a	n/a
1952199	REC_WORD	wordpools/wasnorm_wordpool_less_exclusions.txt	LTP293	ltpFR	3	9	1	POWDER	1117	n/a	0	n/a	n/a	n/a	n/a	n/a
1996926	WORD	wordpools/wasnorm_wordpool_less_exclusions.txt	LTP293	ltpFR	3	10	1	JUDGE	761	n/a	1	1	0.412841796875	0.57763671875	upper	../fonts/amplitud.ttf
2000937	WORD	wordpools/wasnorm_wordpool_less_exclusions.txt	LTP293	ltpFR	3	10	1	RECEPTIONIST	1174	n/a	1	1	0.412841796875	0.57763671875	upper	../fonts/amplitud.ttf
2005114	WORD	wordpools/wasnorm_wordpool_less_exclusions.txt	LTP293	ltpFR	3	10	1	SCRIBBLE	1256	n/a	0	1	0.412841796875	0.57763671875	upper	../fonts/amplitud.ttf
2009092	WORD	wordpools/wasnorm_wordpool_less_exclusions.txt	LTP293	ltpFR	3	10	1	CAPE	237	n/a	0	1	0.412841796875	0.57763671875	upper	../fonts/amplitud.ttf
2013019	WORD	wordpools/wasnorm_wordpool_less_exclusions.txt	LTP293	ltpFR	3	10	1	WHEEL	1603	n/a	0	1	0.412841796875	0.57763671875	upper	../fonts/amplitud.ttf
2016980	WORD	wordpools/wasnorm_wordpool_less_exclusions.txt	LTP293	ltpFR	3	10	1	DRIVER	499	n/a	1	1	0.412841796875	0.57763671875	upper	../fonts/amplitud.ttf
2021207	WORD	wordpools/wasnorm_wordpool_less_exclusions.txt	LTP293	ltpFR	3	10	1	DESSERT	453	n/a	0	1	0.412841796875	0.57763671875	upper	../fonts/amplitud.ttf
2025401	WORD	wordpools/wasnorm_wordpool_less_exclusions.txt	LTP293	ltpFR	3	10	1	DIAMOND	458	n/a	0	1	0.412841796875	0.57763671875	upper	../fonts/amplitud.ttf
2029228	WORD	wordpools/wasnorm_wordpool_less_exclusions.txt	LTP293	ltpFR	3	10	1	DRAWING	494	n/a	0	1	0.412841796875	0.57763671875	upper	../fonts/amplitud.ttf
2033289	WORD	wordpools/wasnorm_wordpool_less_exclusions.txt	LTP293	ltpFR	3	10	1	ATTORNEY	58	n/a	1	1	0.412841796875	0.57763671875	upper	../fonts/amplitud.ttf
2037116	WORD	wordpools/wasnorm_wordpool_less_exclusions.txt	LTP293	ltpFR	3	10	1	EMPLOYEE	531	n/a	1	1	0.412841796875	0.57763671875	upper	../fonts/amplitud.ttf
2041293	WORD	wordpools/wasnorm_wordpool_less_exclusions.txt	LTP293	ltpFR	3	10	1	COAL	332	n/a	0	1	0.412841796875	0.57763671875	upper	../fonts/amplitud.ttf
2045503	WORD	wordpools/wasnorm_wordpool_less_exclusions.txt	LTP293	ltpFR	3	10	1	MEDAL	885	n/a	0	1	0.412841796875	0.57763671875	upper	../fonts/amplitud.ttf
2049698	WORD	wordpools/wasnorm_wordpool_less_exclusions.txt	LTP293	ltpFR	3	10	1	DOVE	491	n/a	1	1	0.412841796875	0.57763671875	upper	../fonts/amplitud.ttf
2053607	WORD	wordpools/wasnorm_wordpool_less_exclusions.txt	LTP293	ltpFR	3	10	1	HAY	693	n/a	0	1	0.412841796875	0.57763671875	upper	../fonts/amplitud.ttf
2057651	WORD	wordpools/wasnorm_wordpool_less_exclusions.txt	LTP293	ltpFR	3	10	1	MULE	931	n/a	1	1	0.412841796875	0.57763671875	upper	../fonts/amplitud.ttf
2063493	REC_START	n/a	LTP293	ltpFR	3	10	n/a	n/a	n/a	n/a	n/a	n/a	n/a	n/a	n/a	n/a
2064333	REC_WORD	wordpools/wasnorm_wordpool_less_exclusions.txt	LTP293	ltpFR	3	10	1	JUDGE	761	n/a	1	n/a	n/a	n/a	n/a	n/a
2065108	REC_WORD	wordpools/wasnorm_wordpool_less_exclusions.txt	LTP293	ltpFR	3	10	1	RECEPTIONIST	1174	n/a	1	n/a	n/a	n/a	n/a	n/a
2066748	REC_WORD	wordpools/wasnorm_wordpool_less_exclusions.txt	LTP293	ltpFR	3	10	1	SCRIBBLE	1256	n/a	0	n/a	n/a	n/a	n/a	n/a
2068773	REC_WORD	wordpools/wasnorm_wordpool_less_exclusions.txt	LTP293	ltpFR	3	10	1	ATTORNEY	58	n/a	1	n/a	n/a	n/a	n/a	n/a
2070651	REC_WORD	wordpools/wasnorm_wordpool_less_exclusions.txt	LTP293	ltpFR	3	10	1	WHEEL	1603	n/a	0	n/a	n/a	n/a	n/a	n/a
2072273	REC_WORD	wordpools/wasnorm_wordpool_less_exclusions.txt	LTP293	ltpFR	3	10	1	DOVE	491	n/a	1	n/a	n/a	n/a	n/a	n/a
2076438	REC_WORD	wordpools/wasnorm_wordpool_less_exclusions.txt	LTP293	ltpFR	3	10	1	MULE	931	n/a	1	n/a	n/a	n/a	n/a	n/a
2078599	REC_WORD	wordpools/wasnorm_wordpool_less_exclusions.txt	LTP293	ltpFR	3	10	1	DIAMOND	458	n/a	0	n/a	n/a	n/a	n/a	n/a
2080222	REC_WORD	wordpools/wasnorm_wordpool_less_exclusions.txt	LTP293	ltpFR	3	10	1	COAL	332	n/a	0	n/a	n/a	n/a	n/a	n/a
2085190	REC_WORD	wordpools/wasnorm_wordpool_less_exclusions.txt	LTP293	ltpFR	3	10	1	CAPE	237	n/a	0	n/a	n/a	n/a	n/a	n/a
2144706	WORD	wordpools/wasnorm_wordpool_less_exclusions.txt	LTP293	ltpFR	3	11	0	SERGEANT	1269	n/a	1	0	0.5869140625	0.422607421875	lower	../fonts/zerothre.ttf
2148616	WORD	wordpools/wasnorm_wordpool_less_exclusions.txt	LTP293	ltpFR	3	11	0	BUS	201	n/a	1	0	0.5869140625	0.422607421875	lower	../fonts/zerothre.ttf
2152661	WORD	wordpools/wasnorm_wordpool_less_exclusions.txt	LTP293	ltpFR	3	11	0	TUNA	1518	n/a	1	0	0.5869140625	0.422607421875	lower	../fonts/zerothre.ttf
2156688	WORD	wordpools/wasnorm_wordpool_less_exclusions.txt	LTP293	ltpFR	3	11	0	PIZZA	1079	n/a	1	0	0.5869140625	0.422607421875	lower	../fonts/zerothre.ttf
2160699	WORD	wordpools/wasnorm_wordpool_less_exclusions.txt	LTP293	ltpFR	3	11	0	MUSHROOM	934	n/a	0	0	0.5869140625	0.422607421875	lower	../fonts/zerothre.ttf
2164558	WORD	wordpools/wasnorm_wordpool_less_exclusions.txt	LTP293	ltpFR	3	11	0	DOOR	486	n/a	1	0	0.5869140625	0.422607421875	lower	../fonts/zerothre.ttf
2168720	WORD	wordpools/wasnorm_wordpool_less_exclusions.txt	LTP293	ltpFR	3	11	0	PASSAGE	1019	n/a	0	0	0.5869140625	0.422607421875	lower	../fonts/zerothre.ttf
2172930	WORD	wordpools/wasnorm_wordpool_less_exclusions.txt	LTP293	ltpFR	3	11	0	BUTTER	205	n/a	0	0	0.5869140625	0.422607421875	lower	../fonts/zerothre.ttf
2176775	WORD	wordpools/wasnorm_wordpool_less_exclusions.txt	LTP293	ltpFR	3	11	0	COMPASS	358	n/a	0	0	0.5869140625	0.422607421875	lower	../fonts/zerothre.ttf
2180719	WORD	wordpools/wasnorm_wordpool_less_exclusions.txt	LTP293	ltpFR	3	11	0	KITCHEN	778	n/a	1	0	0.5869140625	0.422607421875	lower	../fonts/zerothre.ttf
2184746	WORD	wordpools/wasnorm_wordpool_less_exclusions.txt	LTP293	ltpFR	3	11	0	TOE	1473	n/a	0	0	0.5869140625	0.422607421875	lower	../fonts/zerothre.ttf
2188623	WORD	wordpools/wasnorm_wordpool_less_exclusions.txt	LTP293	ltpFR	3	11	0	FOOT	590	n/a	0	0	0.5869140625	0.422607421875	lower	../fonts/zerothre.ttf
2192517	WORD	wordpools/wasnorm_wordpool_less_exclusions.txt	LTP293	ltpFR	3	11	0	BANNER	85	n/a	1	0	0.5869140625	0.422607421875	lower	../fonts/zerothre.ttf
2196728	WORD	wordpools/wasnorm_wordpool_less_exclusions.txt	LTP293	ltpFR	3	11	0	COLONEL	348	n/a	1	0	0.5869140625	0.422607421875	lower	../fonts/zerothre.ttf
2200588	WORD	wordpools/wasnorm_wordpool_less_exclusions.txt	LTP293	ltpFR	3	11	0	SNACK	1331	n/a	0	0	0.5869140625	0.422607421875	lower	../fonts/zerothre.ttf
2204515	WORD	wordpools/wasnorm_wordpool_less_exclusions.txt	LTP293	ltpFR	3	11	0	SCREW	1254	n/a	0	0	0.5869140625	0.422607421875	lower	../fonts/zerothre.ttf
2210325	REC_START	n/a	LTP293	ltpFR	3	11	n/a	n/a	n/a	n/a	n/a	n/a	n/a	n/a	n/a	n/a
2211001	REC_WORD	wordpools/wasnorm_wordpool_less_exclusions.txt	LTP293	ltpFR	3	11	0	SCREW	1254	n/a	0	n/a	n/a	n/a	n/a	n/a
2212186	REC_WORD	wordpools/wasnorm_wordpool_less_exclusions.txt	LTP293	ltpFR	3	11	0	SNACK	1331	n/a	0	n/a	n/a	n/a	n/a	n/a
2213980	REC_WORD	wordpools/wasnorm_wordpool_less_exclusions.txt	LTP293	ltpFR	3	11	0	SERGEANT	1269	n/a	1	n/a	n/a	n/a	n/a	n/a
2215577	REC_WORD	wordpools/wasnorm_wordpool_less_exclusions.txt	LTP293	ltpFR	3	11	0	COLONEL	348	n/a	1	n/a	n/a	n/a	n/a	n/a
2217136	REC_WORD	wordpools/wasnorm_wordpool_less_exclusions.txt	LTP293	ltpFR	3	11	0	BUS	201	n/a	1	n/a	n/a	n/a	n/a	n/a
2220057	REC_WORD	wordpools/wasnorm_wordpool_less_exclusions.txt	LTP293	ltpFR	3	11	0	BANNER	85	n/a	1	n/a	n/a	n/a	n/a	n/a
2223703	REC_WORD	wordpools/wasnorm_wordpool_less_exclusions.txt	LTP293	ltpFR	3	11	0	FOOT	590	n/a	0	n/a	n/a	n/a	n/a	n/a
2225297	REC_WORD	wordpools/wasnorm_wordpool_less_exclusions.txt	LTP293	ltpFR	3	11	0	TOE	1473	n/a	0	n/a	n/a	n/a	n/a	n/a
2229863	REC_WORD	wordpools/wasnorm_wordpool_less_exclusions.txt	LTP293	ltpFR	3	11	0	TUNA	1518	n/a	1	n/a	n/a	n/a	n/a	n/a
2277047	REC_WORD	wordpools/wasnorm_wordpool_less_exclusions.txt	LTP293	ltpFR	3	11	0	DOOR	486	n/a	1	n/a	n/a	n/a	n/a	n/a
2316166	WORD	wordpools/wasnorm_wordpool_less_exclusions.txt	LTP293	ltpFR	3	12	0	HEEL	700	n/a	0	0	0.5869140625	0.422607421875	lower	../fonts/zerothre.ttf
2320027	WORD	wordpools/wasnorm_wordpool_less_exclusions.txt	LTP293	ltpFR	3	12	0	EMPLOYER	532	n/a	1	0	0.5869140625	0.422607421875	lower	../fonts/zerothre.ttf
2323955	WORD	wordpools/wasnorm_wordpool_less_exclusions.txt	LTP293	ltpFR	3	12	1	SHRINE	1298	n/a	0	1	0.412841796875	0.57763671875	upper	../fonts/amplitud.ttf
2328082	WORD	wordpools/wasnorm_wordpool_less_exclusions.txt	LTP293	ltpFR	3	12	1	RASPBERRY	1168	n/a	0	1	0.412841796875	0.57763671875	upper	../fonts/amplitud.ttf
2332076	WORD	wordpools/wasnorm_wordpool_less_exclusions.txt	LTP293	ltpFR	3	12	1	BAKER	71	n/a	1	1	0.412841796875	0.57763671875	upper	../fonts/amplitud.ttf
2336270	WORD	wordpools/wasnorm_wordpool_less_exclusions.txt	LTP293	ltpFR	3	12	0	JAM	748	n/a	0	0	0.5869140625	0.422607421875	lower	../fonts/zerothre.ttf
2340247	WORD	wordpools/wasnorm_wordpool_less_exclusions.txt	LTP293	ltpFR	3	12	0	JELLY	755	n/a	0	0	0.5869140625	0.422607421875	lower	../fonts/zerothre.ttf
2344175	WORD	wordpools/wasnorm_wordpool_less_exclusions.txt	LTP293	ltpFR	3	12	0	ROOSTER	1209	n/a	0	0	0.5869140625	0.422607421875	lower	../fonts/zerothre.ttf
2348252	WORD	wordpools/wasnorm_wordpool_less_exclusions.txt	LTP293	ltpFR	3	12	0	COLESLAW	344	n/a	0	0	0.5869140625	0.422607421875	lower	../fonts/zerothre.ttf
2352246	WORD	wordpools/wasnorm_wordpool_less_exclusions.txt	LTP293	ltpFR	3	12	1	TYPEWRITER	1531	n/a	0	1	0.412841796875	0.57763671875	upper	../fonts/amplitud.ttf
2356123	WORD	wordpools/wasnorm_wordpool_less_exclusions.txt	LTP293	ltpFR	3	12	1	ASTEROID	50	n/a	0	1	0.412841796875	0.57763671875	upper	../fonts/amplitud.ttf
2360184	WORD	wordpools/wasnorm_wordpool_less_exclusions.txt	LTP293	ltpFR	3	12	1	CHERRY	293	n/a	1	1	0.412841796875	0.57763671875	upper	../fonts/amplitud.ttf
2364245	WORD	wordpools/wasnorm_wordpool_less_exclusions.txt	LTP293	ltpFR	3	12	1	MONASTERY	907	n/a	0	1	0.412841796875	0.57763671875	upper	../fonts/amplitud.ttf
2368222	WORD	wordpools/wasnorm_wordpool_less_exclusions.txt	LTP293	ltpFR	3	12	1	TIE	1466	n/a	0	1	0.412841796875	0.57763671875	upper	../fonts/amplitud.ttf
2372233	WORD	wordpools/wasnorm_wordpool_less_exclusions.txt	LTP293	ltpFR	3	12	0	CALF	222	n/a	0	0	0.5869140625	0.422607421875	lower	../fonts/zerothre.ttf
2376177	WORD	wordpools/wasnorm_wordpool_less_exclusions.txt	LTP293	ltpFR	3	12	0	LAMB	797	n/a	1	0	0.5869140625	0.422607421875	lower	../fonts/zerothre.ttf
2382102	REC_START	n/a	LTP293	ltpFR	3	12	n/a	n/a	n/a	n/a	n/a	n/a	n/a	n/a	n/a	n/a
2382816	REC_WORD	wordpools/wasnorm_wordpool_less_exclusions.txt	LTP293	ltpFR	3	12	0	CALF	222	n/a	0	n/a	n/a	n/a	n/a	n/a
2383856	REC_WORD	wordpools/wasnorm_wordpool_less_exclusions.txt	LTP293	ltpFR	3	12	0	LAMB	797	n/a	1	n/a	n/a	n/a	n/a	n/a
2384943	REC_WORD	wordpools/wasnorm_wordpool_less_exclusions.txt	LTP293	ltpFR	3	12	1	MONASTERY	907	n/a	0	n/a	n/a	n/a	n/a	n/a
2386566	REC_WORD	wordpools/wasnorm_wordpool_less_exclusions.txt	LTP293	ltpFR	3	12	1	SHRINE	1298	n/a	0	n/a	n/a	n/a	n/a	n/a
2387837	REC_WORD	wordpools/wasnorm_wordpool_less_exclusions.txt	LTP293	ltpFR	3	12	1	CHERRY	293	n/a	1	n/a	n/a	n/a	n/a	n/a
2389144	REC_WORD	wordpools/wasnorm_wordpool_less_exclusions.txt	LTP293	ltpFR	3	12	1	RASPBERRY	1168	n/a	0	n/a	n/a	n/a	n/a	n/a
2396638	REC_WORD	wordpools/wasnorm_wordpool_less_exclusions.txt	LTP293	ltpFR	3	12	0	HEEL	700	n/a	0	n/a	n/a	n/a	n/a	n/a
2489474	WORD	wordpools/wasnorm_wordpool_less_exclusions.txt	LTP293	ltpFR	3	13	-1	CARAVAN	242	n/a	-1	1	1.0	1.0	upper	../fonts/Verdana.ttf
2493435	WORD	wordpools/wasnorm_wordpool_less_exclusions.txt	LTP293	ltpFR	3	13	-1	PAINTING	1005	n/a	-1	1	1.0	1.0	upper	../fonts/Verdana.ttf
2497329	WORD	wordpools/wasnorm_wordpool_less_exclusions.txt	LTP293	ltpFR	3	13	-1	FOE	587	n/a	-1	1	1.0	1.0	upper	../fonts/Verdana.ttf
2501539	WORD	wordpools/wasnorm_wordpool_less_exclusions.txt	LTP293	ltpFR	3	13	-1	CLAMP	316	n/a	-1	1	1.0	1.0	upper	../fonts/Verdana.ttf
2505484	WORD	wordpools/wasnorm_wordpool_less_exclusions.txt	LTP293	ltpFR	3	13	-1	QUAIL	1147	n/a	-1	1	1.0	1.0	upper	../fonts/Verdana.ttf
2509593	WORD	wordpools/wasnorm_wordpool_less_exclusions.txt	LTP293	ltpFR	3	13	-1	BIRD	129	n/a	-1	1	1.0	1.0	upper	../fonts/Verdana.ttf
2513472	WORD	wordpools/wasnorm_wordpool_less_exclusions.txt	LTP293	ltpFR	3	13	-1	COMPUTER	359	n/a	-1	1	1.0	1.0	upper	../fonts/Verdana.ttf
2517383	WORD	wordpools/wasnorm_wordpool_less_exclusions.txt	LTP293	ltpFR	3	13	-1	CLERK	321	n/a	-1	1	1.0	1.0	upper	../fonts/Verdana.ttf
2521477	WORD	wordpools/wasnorm_wordpool_less_exclusions.txt	LTP293	ltpFR	3	13	-1	RADIATOR	1156	n/a	-1	1	1.0	1.0	upper	../fonts/Verdana.ttf
2525670	WORD	wordpools/wasnorm_wordpool_less_exclusions.txt	LTP293	ltpFR	3	13	-1	FOREHEAD	592	n/a	-1	1	1.0	1.0	upper	../fonts/Verdana.ttf
2529881	WORD	wordpools/wasnorm_wordpool_less_exclusions.txt	LTP293	ltpFR	3	13	-1	FLEA	577	n/a	-1	1	1.0	1.0	upper	../fonts/Verdana.ttf
2533825	WORD	wordpools/wasnorm_wordpool_less_exclusions.txt	LTP293	ltpFR	3	13	-1	MACARONI	851	n/a	-1	1	1.0	1.0	upper	../fonts/Verdana.ttf
2537935	WORD	wordpools/wasnorm_wordpool_less_exclusions.txt	LTP293	ltpFR	3	13	-1	VEHICLE	1553	n/a	-1	1	1.0	1.0	upper	../fonts/Verdana.ttf
2542096	WORD	wordpools/wasnorm_wordpool_less_exclusions.txt	LTP293	ltpFR	3	13	-1	SUPERMARKET	1409	n/a	-1	1	1.0	1.0	upper	../fonts/Verdana.ttf
2546289	WORD	wordpools/wasnorm_wordpool_less_exclusions.txt	LTP293	ltpFR	3	13	-1	CUPBOARD	425	n/a	-1	1	1.0	1.0	upper	../fonts/Verdana.ttf
2550417	WORD	wordpools/wasnorm_wordpool_less_exclusions.txt	LTP293	ltpFR	3	13	-1	FRAME	600	n/a	-1	1	1.0	1.0	upper	../fonts/Verdana.ttf
2556475	REC_START	n/a	LTP293	ltpFR	3	13	n/a	n/a	n/a	n/a	n/a	n/a	n/a	n/a	n/a	n/a
2557134	REC_WORD	wordpools/wasnorm_wordpool_less_exclusions.txt	LTP293	ltpFR	3	13	-1	FRAME	600	n/a	-1	n/a	n/a	n/a	n/a	n/a
2558351	REC_WORD	wordpools/wasnorm_wordpool_less_exclusions.txt	LTP293	ltpFR	3	13	-1	PAINTING	1005	n/a	-1	n/a	n/a	n/a	n/a	n/a
2559684	REC_WORD	wordpools/wasnorm_wordpool_less_exclusions.txt	LTP293	ltpFR	3	13	-1	CARAVAN	242	n/a	-1	n/a	n/a	n/a	n/a	n/a
2561083	REC_WORD	wordpools/wasnorm_wordpool_less_exclusions.txt	LTP293	ltpFR	3	13	-1	VEHICLE	1553	n/a	-1	n/a	n/a	n/a	n/a	n/a
2562521	REC_WORD	wordpools/wasnorm_wordpool_less_exclusions.txt	LTP293	ltpFR	3	13	-1	FOE	587	n/a	-1	n/a	n/a	n/a	n/a	n/a
2564549	REC_WORD	wordpools/wasnorm_wordpool_less_exclusions.txt	LTP293	ltpFR	3	13	-1	SUPERMARKET	1409	n/a	-1	n/a	n/a	n/a	n/a	n/a
2566510	REC_WORD	wordpools/wasnorm_wordpool_less_exclusions.txt	LTP293	ltpFR	3	13	-1	FLEA	577	n/a	-1	n/a	n/a	n/a	n/a	n/a
2573189	REC_WORD	wordpools/wasnorm_wordpool_less_exclusions.txt	LTP293	ltpFR	3	13	-1	CLERK	321	n/a	-1	n/a	n/a	n/a	n/a	n/a
2575513	REC_WORD	wordpools/wasnorm_wordpool_less_exclusions.txt	LTP293	ltpFR	3	13	-1	CUPBOARD	425	n/a	-1	n/a	n/a	n/a	n/a	n/a
2579096	REC_WORD	wordpools/wasnorm_wordpool_less_exclusions.txt	LTP293	ltpFR	3	13	-1	COMPUTER	359	n/a	-1	n/a	n/a	n/a	n/a	n/a
2580868	REC_WORD	wordpools/wasnorm_wordpool_less_exclusions.txt	LTP293	ltpFR	3	13	-1	FOREHEAD	592	n/a	-1	n/a	n/a	n/a	n/a	n/a
2653679	WORD	wordpools/wasnorm_wordpool_less_exclusions.txt	LTP293	ltpFR	3	14	-1	STEAM	1375	n/a	-1	1	1.0	1.0	upper	../fonts/Verdana.ttf
2657790	WORD	wordpools/wasnorm_wordpool_less_exclusions.txt	LTP293	ltpFR	3	14	-1	MAYONNAISE	880	n/a	-1	1	1.0	1.0	upper	../fonts/Verdana.ttf
2661750	WORD	wordpools/wasnorm_wordpool_less_exclusions.txt	LTP293	ltpFR	3	14	-1	SALOON	1228	n/a	-1	1	1.0	1.0	upper	../fonts/Verdana.ttf
2665761	WORD	wordpools/wasnorm_wordpool_less_exclusions.txt	LTP293	ltpFR	3	14	-1	PUB	1135	n/a	-1	1	1.0	1.0	upper	../fonts/Verdana.ttf
2669672	WORD	wordpools/wasnorm_wordpool_less_exclusions.txt	LTP293	ltpFR	3	14	-1	COW	393	n/a	-1	1	1.0	1.0	upper	../fonts/Verdana.ttf
2673582	WORD	wordpools/wasnorm_wordpool_less_exclusions.txt	LTP293	ltpFR	3	14	-1	UMPIRE	1535	n/a	-1	1	1.0	1.0	upper	../fonts/Verdana.ttf
2677460	WORD	wordpools/wasnorm_wordpool_less_exclusions.txt	LTP293	ltpFR	3	14	-1	PONY	1102	n/a	-1	1	1.0	1.0	upper	../fonts/Verdana.ttf
2681438	WORD	wordpools/wasnorm_wordpool_less_exclusions.txt	LTP293	ltpFR	3	14	-1	TRAIN	1494	n/a	-1	1	1.0	1.0	upper	../fonts/Verdana.ttf
2685514	WORD	wordpools/wasnorm_wordpool_less_exclusions.txt	LTP293	ltpFR	3	14	-1	WAGON	1578	n/a	-1	1	1.0	1.0	upper	../fonts/Verdana.ttf
2689409	WORD	wordpools/wasnorm_wordpool_less_exclusions.txt	LTP293	ltpFR	3	14	-1	REFEREE	1178	n/a	-1	1	1.0	1.0	upper	../fonts/Verdana.ttf
2693453	WORD	wordpools/wasnorm_wordpool_less_exclusions.txt	LTP293	ltpFR	3	14	-1	PELT	1040	n/a	-1	1	1.0	1.0	upper	../fonts/Verdana.ttf
2697480	WORD	wordpools/wasnorm_wordpool_less_exclusions.txt	LTP293	ltpFR	3	14	-1	GALLON	618	n/a	-1	1	1.0	1.0	upper	../fonts/Verdana.ttf
2701358	WORD	wordpools/wasnorm_wordpool_less_exclusions.txt	LTP293	ltpFR	3	14	-1	OATS	968	n/a	-1	1	1.0	1.0	upper	../fonts/Verdana.ttf
2705517	WORD	wordpools/wasnorm_wordpool_less_exclusions.txt	LTP293	ltpFR	3	14	-1	SAUSAGE	1238	n/a	-1	1	1.0	1.0	upper	../fonts/Verdana.ttf
2709561	WORD	wordpools/wasnorm_wordpool_less_exclusions.txt	LTP293	ltpFR	3	14	-1	CHAIN	273	n/a	-1	1	1.0	1.0	upper	../fonts/Verdana.ttf
2713572	WORD	wordpools/wasnorm_wordpool_less_exclusions.txt	LTP293	ltpFR	3	14	-1	BOY	161	n/a	-1	1	1.0	1.0	upper	../fonts/Verdana.ttf
2719432	REC_START	n/a	LTP293	ltpFR	3	14	n/a	n/a	n/a	n/a	n/a	n/a	n/a	n/a	n/a	n/a
2720052	REC_WORD	wordpools/wasnorm_wordpool_less_exclusions.txt	LTP293	ltpFR	3	14	-1	BOY	161	n/a	-1	n/a	n/a	n/a	n/a	n/a
2720836	REC_WORD	wordpools/wasnorm_wordpool_less_exclusions.txt	LTP293	ltpFR	3	14	-1	SAUSAGE	1238	n/a	-1	n/a	n/a	n/a	n/a	n/a
2722391	REC_WORD	wordpools/wasnorm_wordpool_less_exclusions.txt	LTP293	ltpFR	3	14	-1	CHAIN	273	n/a	-1	n/a	n/a	n/a	n/a	n/a
2723650	REC_WORD	wordpools/wasnorm_wordpool_less_exclusions.txt	LTP293	ltpFR	3	14	-1	COW	393	n/a	-1	n/a	n/a	n/a	n/a	n/a
2724615	REC_WORD	wordpools/wasnorm_wordpool_less_exclusions.txt	LTP293	ltpFR	3	14	-1	SALOON	1228	n/a	-1	n/a	n/a	n/a	n/a	n/a
2726132	REC_WORD	wordpools/wasnorm_wordpool_less_exclusions.txt	LTP293	ltpFR	3	14	-1	GALLON	618	n/a	-1	n/a	n/a	n/a	n/a	n/a
2727319	REC_WORD	wordpools/wasnorm_wordpool_less_exclusions.txt	LTP293	ltpFR	3	14	-1	PUB	1135	n/a	-1	n/a	n/a	n/a	n/a	n/a
2732286	REC_WORD	wordpools/wasnorm_wordpool_less_exclusions.txt	LTP293	ltpFR	3	14	-1	STEAM	1375	n/a	-1	n/a	n/a	n/a	n/a	n/a
2733481	REC_WORD	wordpools/wasnorm_wordpool_less_exclusions.txt	LTP293	ltpFR	3	14	-1	MAYONNAISE	880	n/a	-1	n/a	n/a	n/a	n/a	n/a
2804787	WORD	wordpools/wasnorm_wordpool_less_exclusions.txt	LTP293	ltpFR	3	15	0	SHOULDER	1294	n/a	1	0	0.5869140625	0.422607421875	lower	../fonts/zerothre.ttf
2808797	WORD	wordpools/wasnorm_wordpool_less_exclusions.txt	LTP293	ltpFR	3	15	0	BATTERY	101	n/a	1	0	0.5869140625	0.422607421875	lower	../fonts/zerothre.ttf
2812808	WORD	wordpools/wasnorm_wordpool_less_exclusions.txt	LTP293	ltpFR	3	15	0	AUTOMOBILE	62	n/a	1	0	0.5869140625	0.422607421875	lower	../fonts/zerothre.ttf
2816985	WORD	wordpools/wasnorm_wordpool_less_exclusions.txt	LTP293	ltpFR	3	15	0	APPENDAGE	32	n/a	0	0	0.5869140625	0.422607421875	lower	../fonts/zerothre.ttf
2821129	WORD	wordpools/wasnorm_wordpool_less_exclusions.txt	LTP293	ltpFR	3	15	0	SHOE	1288	n/a	0	0	0.5869140625	0.422607421875	lower	../fonts/zerothre.ttf
2825073	WORD	wordpools/wasnorm_wordpool_less_exclusions.txt	LTP293	ltpFR	3	15	0	MAILBOX	857	n/a	1	0	0.5869140625	0.422607421875	lower	../fonts/zerothre.ttf
2829100	WORD	wordpools/wasnorm_wordpool_less_exclusions.txt	LTP293	ltpFR	3	15	0	SEAL	1262	n/a	1	0	0.5869140625	0.422607421875	lower	../fonts/zerothre.ttf
2833061	WORD	wordpools/wasnorm_wordpool_less_exclusions.txt	LTP293	ltpFR	3	15	0	GATE	625	n/a	1	0	0.5869140625	0.422607421875	lower	../fonts/zerothre.ttf
2837005	WORD	wordpools/wasnorm_wordpool_less_exclusions.txt	LTP293	ltpFR	3	15	0	ELECTRICIAN	521	n/a	1	0	0.5869140625	0.422607421875	lower	../fonts/zerothre.ttf
2841132	WORD	wordpools/wasnorm_wordpool_less_exclusions.txt	LTP293	ltpFR	3	15	0	SPATULA	1348	n/a	0	0	0.5869140625	0.422607421875	lower	../fonts/zerothre.ttf
2845110	WORD	wordpools/wasnorm_wordpool_less_exclusions.txt	LTP293	ltpFR	3	15	0	SIGN	1305	n/a	1	0	0.5869140625	0.422607421875	lower	../fonts/zerothre.ttf
2848987	WORD	wordpools/wasnorm_wordpool_less_exclusions.txt	LTP293	ltpFR	3	15	0	EDITOR	516	n/a	1	0	0.5869140625	0.422607421875	lower	../fonts/zerothre.ttf
2852848	WORD	wordpools/wasnorm_wordpool_less_exclusions.txt	LTP293	ltpFR	3	15	0	TOASTER	1472	n/a	1	0	0.5869140625	0.422607421875	lower	../fonts/zerothre.ttf
2856976	WORD	wordpools/wasnorm_wordpool_less_exclusions.txt	LTP293	ltpFR	3	15	0	BULB	192	n/a	0	0	0.5869140625	0.422607421875	lower	../fonts/zerothre.ttf
2860903	WORD	wordpools/wasnorm_wordpool_less_exclusions.txt	LTP293	ltpFR	3	15	0	TWIG	1527	n/a	0	0	0.5869140625	0.422607421875	lower	../fonts/zerothre.ttf
2864930	WORD	wordpools/wasnorm_wordpool_less_exclusions.txt	LTP293	ltpFR	3	15	0	MAGNET	855	n/a	0	0	0.5869140625	0.422607421875	lower	../fonts/zerothre.ttf
2870772	REC_START	n/a	LTP293	ltpFR	3	15	n/a	n/a	n/a	n/a	n/a	n/a	n/a	n/a	n/a	n/a
2871726	REC_WORD	wordpools/wasnorm_wordpool_less_exclusions.txt	LTP293	ltpFR	3	15	0	MAGNET	855	n/a	0	n/a	n/a	n/a	n/a	n/a
2872790	REC_WORD	wordpools/wasnorm_wordpool_less_exclusions.txt	LTP293	ltpFR	3	15	0	SEAL	1262	n/a	1	n/a	n/a	n/a	n/a	n/a
2876393	REC_WORD	wordpools/wasnorm_wordpool_less_exclusions.txt	LTP293	ltpFR	3	15	0	ELECTRICIAN	521	n/a	1	n/a	n/a	n/a	n/a	n/a
2962817	WORD	wordpools/wasnorm_wordpool_less_exclusions.txt	LTP293	ltpFR	3	16	-1	BAND	78	n/a	-1	1	1.0	1.0	upper	../fonts/Verdana.ttf
2967011	WORD	wordpools/wasnorm_wordpool_less_exclusions.txt	LTP293	ltpFR	3	16	-1	BALLERINA	74	n/a	-1	1	1.0	1.0	upper	../fonts/Verdana.ttf
2971005	WORD	wordpools/wasnorm_wordpool_less_exclusions.txt	LTP293	ltpFR	3	16	-1	CLOSET	326	n/a	-1	1	1.0	1.0	upper	../fonts/Verdana.ttf
2975216	WORD	wordpools/wasnorm_wordpool_less_exclusions.txt	LTP293	ltpFR	3	16	-1	CAFE	216	n/a	-1	1	1.0	1.0	upper	../fonts/Verdana.ttf
2979310	WORD	wordpools/wasnorm_wordpool_less_exclusions.txt	LTP293	ltpFR	3	16	-1	MARINE	869	n/a	-1	1	1.0	1.0	upper	../fonts/Verdana.ttf
2983519	WORD	wordpools/wasnorm_wordpool_less_exclusions.txt	LTP293	ltpFR	3	16	-1	BEVERAGE	123	n/a	-1	1	1.0	1.0	upper	../fonts/Verdana.ttf
2987714	WORD	wordpools/wasnorm_wordpool_less_exclusions.txt	LTP293	ltpFR	3	16	-1	BEER	114	n/a	-1	1	1.0	1.0	upper	../fonts/Verdana.ttf
2991623	WORD	wordpools/wasnorm_wordpool_less_exclusions.txt	LTP293	ltpFR	3	16	-1	SWAMP	1416	n/a	-1	1	1.0	1.0	upper	../fonts/Verdana.ttf
2995534	WORD	wordpools/wasnorm_wordpool_less_exclusions.txt	LTP293	ltpFR	3	16	-1	GREASE	660	n/a	-1	1	1.0	1.0	upper	../fonts/Verdana.ttf
2999528	WORD	wordpools/wasnorm_wordpool_less_exclusions.txt	LTP293	ltpFR	3	16	-1	OX	994	n/a	-1	1	1.0	1.0	upper	../fonts/Verdana.ttf
3003357	WORD	wordpools/wasnorm_wordpool_less_exclusions.txt	LTP293	ltpFR	3	16	-1	CONCRETE	361	n/a	-1	1	1.0	1.0	upper	../fonts/Verdana.ttf
3007401	WORD	wordpools/wasnorm_wordpool_less_exclusions.txt	LTP293	ltpFR	3	16	-1	BRANCH	168	n/a	-1	1	1.0	1.0	upper	../fonts/Verdana.ttf
3011445	WORD	wordpools/wasnorm_wordpool_less_exclusions.txt	LTP293	ltpFR	3	16	-1	HEDGE	699	n/a	-1	1	1.0	1.0	upper	../fonts/Verdana.ttf
3015406	WORD	wordpools/wasnorm_wordpool_less_exclusions.txt	LTP293	ltpFR	3	16	-1	SPOON	1357	n/a	-1	1	1.0	1.0	upper	../fonts/Verdana.ttf
3019266	WORD	wordpools/wasnorm_wordpool_less_exclusions.txt	LTP293	ltpFR	3	16	-1	HAMPER	682	n/a	-1	1	1.0	1.0	upper	../fonts/Verdana.ttf
3023161	WORD	wordpools/wasnorm_wordpool_less_exclusions.txt	LTP293	ltpFR	3	16	-1	BUGLE	189	n/a	-1	1	1.0	1.0	upper	../fonts/Verdana.ttf
3029102	REC_START	n/a	LTP293	ltpFR	3	16	n/a	n/a	n/a	n/a	n/a	n/a	n/a	n/a	n/a	n/a
3029926	REC_WORD	wordpools/wasnorm_wordpool_less_exclusions.txt	LTP293	ltpFR	3	16	-1	BUGLE	189	n/a	-1	n/a	n/a	n/a	n/a	n/a
3031349	REC_WORD	wordpools/wasnorm_wordpool_less_exclusions.txt	LTP293	ltpFR	3	16	-1	CONCRETE	361	n/a	-1	n/a	n/a	n/a	n/a	n/a
3033325	REC_WORD	wordpools/wasnorm_wordpool_less_exclusions.txt	LTP293	ltpFR	3	16	-1	CAFE	216	n/a	-1	n/a	n/a	n/a	n/a	n/a
3034776	REC_WORD	wordpools/wasnorm_wordpool_less_exclusions.txt	LTP293	ltpFR	3	16	-1	SPOON	1357	n/a	-1	n/a	n/a	n/a	n/a	n/a
3036534	REC_WORD	wordpools/wasnorm_wordpool_less_exclusions.txt	LTP293	ltpFR	3	16	-1	BEVERAGE	123	n/a	-1	n/a	n/a	n/a	n/a	n/a
3038032	REC_WORD	wordpools/wasnorm_wordpool_less_exclusions.txt	LTP293	ltpFR	3	16	-1	BALLERINA	74	n/a	-1	n/a	n/a	n/a	n/a	n/a
3039701	REC_WORD	wordpools/wasnorm_wordpool_less_exclusions.txt	LTP293	ltpFR	3	16	-1	OX	994	n/a	-1	n/a	n/a	n/a	n/a	n/a
3564635	REC_START	n/a	LTP293	ltpFR	3	1	n/a	n/a	n/a	n/a	n/a	n/a	n/a	n/a	n/a	n/a
3564669	RECOG_TARGET	n/a	LTP293	ltpFR	3	1	-1	BIRD	129	3	-1	n/a	n/a	n/a	n/a	n/a
3565630	RECOG_RESP	n/a	LTP293	ltpFR	3	1	-1	BIRD	129	n/a	-1	n/a	n/a	n/a	n/a	n/a
3567485	RECOG_CONF	n/a	LTP293	ltpFR	3	1	-1	BIRD	129	3	-1	n/a	n/a	n/a	n/a	n/a
3569229	RECOG_TARGET	n/a	LTP293	ltpFR	3	1	1	EMPLOYEE	531	4	1	n/a	n/a	n/a	n/a	n/a
3570025	RECOG_RESP	n/a	LTP293	ltpFR	3	1	1	EMPLOYEE	531	n/a	1	n/a	n/a	n/a	n/a	n/a
3571145	RECOG_CONF	n/a	LTP293	ltpFR	3	1	1	EMPLOYEE	531	4	1	n/a	n/a	n/a	n/a	n/a
3573056	RECOG_TARGET	n/a	LTP293	ltpFR	3	1	-1	VEHICLE	1553	4	-1	n/a	n/a	n/a	n/a	n/a
3573655	RECOG_RESP	n/a	LTP293	ltpFR	3	1	-1	VEHICLE	1553	n/a	-1	n/a	n/a	n/a	n/a	n/a
3574605	RECOG_CONF	n/a	LTP293	ltpFR	3	1	-1	VEHICLE	1553	4	-1	n/a	n/a	n/a	n/a	n/a
3576368	RECOG_LURE	n/a	LTP293	ltpFR	3	1	n/a	WALLET	1583	4	n/a	n/a	n/a	n/a	n/a	n/a
3576965	RECOG_RESP	n/a	LTP293	ltpFR	3	1	n/a	WALLET	1583	n/a	n/a	n/a	n/a	n/a	n/a	n/a
3577865	RECOG_CONF	n/a	LTP293	ltpFR	3	1	n/a	WALLET	1583	4	n/a	n/a	n/a	n/a	n/a	n/a
3579780	RECOG_TARGET	n/a	LTP293	ltpFR	3	1	-1	DIME	466	5	-1	n/a	n/a	n/a	n/a	n/a
3580405	RECOG_RESP	n/a	LTP293	ltpFR	3	1	-1	DIME	466	n/a	-1	n/a	n/a	n/a	n/a	n/a
3581325	RECOG_CONF	n/a	LTP293	ltpFR	3	1	-1	DIME	466	5	-1	n/a	n/a	n/a	n/a	n/a
3583174	RECOG_TARGET	n/a	LTP293	ltpFR	3	1	-1	CLERK	321	5	-1	n/a	n/a	n/a	n/a	n/a
3583745	RECOG_RESP	n/a	LTP293	ltpFR	3	1	-1	CLERK	321	n/a	-1	n/a	n/a	n/a	n/a	n/a
3584655	RECOG_CONF	n/a	LTP293	ltpFR	3	1	-1	CLERK	321	5	-1	n/a	n/a	n/a	n/a	n/a
3586552	RECOG_TARGET	n/a	LTP293	ltpFR	3	1	0	JAM	748	3	0	n/a	n/a	n/a	n/a	n/a
3587105	RECOG_RESP	n/a	LTP293	ltpFR	3	1	0	JAM	748	n/a	0	n/a	n/a	n/a	n/a	n/a
3588155	RECOG_CONF	n/a	LTP293	ltpFR	3	1	0	JAM	748	3	0	n/a	n/a	n/a	n/a	n/a
3589964	RECOG_TARGET	n/a	LTP293	ltpFR	3	1	0	STAR	1373	5	1	n/a	n/a	n/a	n/a	n/a
3590545	RECOG_RESP	n/a	LTP293	ltpFR	3	1	0	STAR	1373	n/a	1	n/a	n/a	n/a	n/a	n/a
3591355	RECOG_CONF	n/a	LTP293	ltpFR	3	1	0	STAR	1373	5	1	n/a	n/a	n/a	n/a	n/a
3593259	RECOG_TARGET	n/a	LTP293	ltpFR	3	1	1	BAY	102	4	0	n/a	n/a	n/a	n/a	n/a
3593830	RECOG_RESP	n/a	LTP293	ltpFR	3	1	1	BAY	102	n/a	0	n/a	n/a	n/a	n/a	n/a
3594725	RECOG_CONF	n/a	LTP293	ltpFR	3	1	1	BAY	102	4	0	n/a	n/a	n/a	n/a	n/a
3596688	RECOG_TARGET	n/a	LTP293	ltpFR	3	1	0	SHOULDER	1294	5	1	n/a	n/a	n/a	n/a	n/a
3597215	RECOG_RESP	n/a	LTP293	ltpFR	3	1	0	SHOULDER	1294	n/a	1	n/a	n/a	n/a	n/a	n/a
3598065	RECOG_CONF	n/a	LTP293	ltpFR	3	1	0	SHOULDER	1294	5	1	n/a	n/a	n/a	n/a	n/a
3600132	RECOG_LURE	n/a	LTP293	ltpFR	3	1	n/a	PRAIRIE	1118	2	n/a	n/a	n/a	n/a	n/a	n/a
3600740	RECOG_RESP	n/a	LTP293	ltpFR	3	1	n/a	PRAIRIE	1118	n/a	n/a	n/a	n/a	n/a	n/a	n/a
3601635	RECOG_CONF	n/a	LTP293	ltpFR	3	1	n/a	PRAIRIE	1118	2	n/a	n/a	n/a	n/a	n/a	n/a
3603493	RECOG_TARGET	n/a	LTP293	ltpFR	3	1	1	THICKET	1455	3	0	n/a	n/a	n/a	n/a	n/a
3604065	RECOG_RESP	n/a	LTP293	ltpFR	3	1	1	THICKET	1455	n/a	0	n/a	n/a	n/a	n/a	n/a
3604895	RECOG_CONF	n/a	LTP293	ltpFR	3	1	1	THICKET	1455	3	0	n/a	n/a	n/a	n/a	n/a
3606839	RECOG_TARGET	n/a	LTP293	ltpFR	3	1	0	COYOTE	396	4	1	n/a	n/a	n/a	n/a	n/a
3607440	RECOG_RESP	n/a	LTP293	ltpFR	3	1	0	COYOTE	396	n/a	1	n/a	n/a	n/a	n/a	n/a
3608335	RECOG_CONF	n/a	LTP293	ltpFR	3	1	0	COYOTE	396	4	1	n/a	n/a	n/a	n/a	n/a
3610201	RECOG_TARGET	n/a	LTP293	ltpFR	3	1	1	EGG	518	1	1	n/a	n/a	n/a	n/a	n/a
3610950	RECOG_RESP	n/a	LTP293	ltpFR	3	1	1	EGG	518	n/a	1	n/a	n/a	n/a	n/a	n/a
3611785	RECOG_CONF	n/a	LTP293	ltpFR	3	1	1	EGG	518	1	1	n/a	n/a	n/a	n/a	n/a
3613762	RECOG_TARGET	n/a	LTP293	ltpFR	3	1	1	TOWN	1491	2	0	n/a	n/a	n/a	n/a	n/a
3614245	RECOG_RESP	n/a	LTP293	ltpFR	3	1	1	TOWN	1491	n/a	0	n/a	n/a	n/a	n/a	n/a
3615145	RECOG_CONF	n/a	LTP293	ltpFR	3	1	1	TOWN	1491	2	0	n/a	n/a	n/a	n/a	n/a
3617057	RECOG_TARGET	n/a	LTP293	ltpFR	3	1	1	BURGLAR	200	2	1	n/a	n/a	n/a	n/a	n/a
3617685	RECOG_RESP	n/a	LTP293	ltpFR	3	1	1	BURGLAR	200	n/a	1	n/a	n/a	n/a	n/a	n/a
3618575	RECOG_CONF	n/a	LTP293	ltpFR	3	1	1	BURGLAR	200	2	1	n/a	n/a	n/a	n/a	n/a
3620452	RECOG_TARGET	n/a	LTP293	ltpFR	3	1	1	BUTTERFLY	206	4	0	n/a	n/a	n/a	n/a	n/a
3621015	RECOG_RESP	n/a	LTP293	ltpFR	3	1	1	BUTTERFLY	206	n/a	0	n/a	n/a	n/a	n/a	n/a
3621885	RECOG_CONF	n/a	LTP293	ltpFR	3	1	1	BUTTERFLY	206	4	0	n/a	n/a	n/a	n/a	n/a
3623764	RECOG_TARGET	n/a	LTP293	ltpFR	3	1	0	MOLECULE	905	3	0	n/a	n/a	n/a	n/a	n/a
3624470	RECOG_RESP	n/a	LTP293	ltpFR	3	1	0	MOLECULE	905	n/a	0	n/a	n/a	n/a	n/a	n/a
3625345	RECOG_CONF	n/a	LTP293	ltpFR	3	1	0	MOLECULE	905	3	0	n/a	n/a	n/a	n/a	n/a
3627209	RECOG_TARGET	n/a	LTP293	ltpFR	3	1	0	BULB	192	4	0	n/a	n/a	n/a	n/a	n/a
3627845	RECOG_RESP	n/a	LTP293	ltpFR	3	1	0	BULB	192	n/a	0	n/a	n/a	n/a	n/a	n/a
3628745	RECOG_CONF	n/a	LTP293	ltpFR	3	1	0	BULB	192	4	0	n/a	n/a	n/a	n/a	n/a
3630703	RECOG_LURE	n/a	LTP293	ltpFR	3	1	n/a	BRICK	172	4	n/a	n/a	n/a	n/a	n/a	n/a
3631320	RECOG_RESP	n/a	LTP293	ltpFR	3	1	n/a	BRICK	172	n/a	n/a	n/a	n/a	n/a	n/a	n/a
3632095	RECOG_CONF	n/a	LTP293	ltpFR	3	1	n/a	BRICK	172	4	n/a	n/a	n/a	n/a	n/a	n/a
3638125	REC_START	n/a	LTP293	ltpFR	3	2	n/a	n/a	n/a	n/a	n/a	n/a	n/a	n/a	n/a	n/a
3638159	RECOG_TARGET	n/a	LTP293	ltpFR	3	2	0	ROUGE	1213	4	0	n/a	n/a	n/a	n/a	n/a
3638885	RECOG_RESP	n/a	LTP293	ltpFR	3	2	0	ROUGE	1213	n/a	0	n/a	n/a	n/a	n/a	n/a
3639695	RECOG_CONF	n/a	LTP293	ltpFR	3	2	0	ROUGE	1213	4	0	n/a	n/a	n/a	n/a	n/a
3641586	RECOG_TARGET	n/a	LTP293	ltpFR	3	2	0	SUPERVISOR	1410	3	1	n/a	n/a	n/a	n/a	n/a
3642620	RECOG_RESP	n/a	LTP293	ltpFR	3	2	0	SUPERVISOR	1410	n/a	1	n/a	n/a	n/a	n/a	n/a
3643445	RECOG_CONF	n/a	LTP293	ltpFR	3	2	0	SUPERVISOR	1410	3	1	n/a	n/a	n/a	n/a	n/a
3645315	RECOG_TARGET	n/a	LTP293	ltpFR	3	2	0	HOUND	724	4	1	n/a	n/a	n/a	n/a	n/a
3645900	RECOG_RESP	n/a	LTP293	ltpFR	3	2	0	HOUND	724	n/a	1	n/a	n/a	n/a	n/a	n/a
3646695	RECOG_CONF	n/a	LTP293	ltpFR	3	2	0	HOUND	724	4	1	n/a	n/a	n/a	n/a	n/a
3648559	RECOG_TARGET	n/a	LTP293	ltpFR	3	2	0	CLOUD	328	2	1	n/a	n/a	n/a	n/a	n/a
3649125	RECOG_RESP	n/a	LTP293	ltpFR	3	2	0	CLOUD	328	n/a	1	n/a	n/a	n/a	n/a	n/a
3649985	RECOG_CONF	n/a	LTP293	ltpFR	3	2	0	CLOUD	328	2	1	n/a	n/a	n/a	n/a	n/a
3651855	RECOG_TARGET	n/a	LTP293	ltpFR	3	2	1	NOVEL	960	3	0	n/a	n/a	n/a	n/a	n/a
3652505	RECOG_RESP	n/a	LTP293	ltpFR	3	2	1	NOVEL	960	n/a	0	n/a	n/a	n/a	n/a	n/a
3653345	RECOG_CONF	n/a	LTP293	ltpFR	3	2	1	NOVEL	960	3	0	n/a	n/a	n/a	n/a	n/a
3655200	RECOG_TARGET	n/a	LTP293	ltpFR	3	2	0	SHED	1277	4	1	n/a	n/a	n/a	n/a	n/a
3655840	RECOG_RESP	n/a	LTP293	ltpFR	3	2	0	SHED	1277	n/a	1	n/a	n/a	n/a	n/a	n/a
3656665	RECOG_CONF	n/a	LTP293	ltpFR	3	2	0	SHED	1277	4	1	n/a	n/a	n/a	n/a	n/a
3658544	RECOG_TARGET	n/a	LTP293	ltpFR	3	2	0	DOOR	486	5	1	n/a	n/a	n/a	n/a	n/a
3659100	RECOG_RESP	n/a	LTP293	ltpFR	3	2	0	DOOR	486	n/a	1	n/a	n/a	n/a	n/a	n/a
3659865	RECOG_CONF	n/a	LTP293	ltpFR	3	2	0	DOOR	486	5	1	n/a	n/a	n/a	n/a	n/a
3661907	RECOG_TARGET	n/a	LTP293	ltpFR	3	2	-1	CARAVAN	242	5	-1	n/a	n/a	n/a	n/a	n/a
3662500	RECOG_RESP	n/a	LTP293	ltpFR	3	2	-1	CARAVAN	242	n/a	-1	n/a	n/a	n/a	n/a	n/a
3663315	RECOG_CONF	n/a	LTP293	ltpFR	3	2	-1	CARAVAN	242	5	-1	n/a	n/a	n/a	n/a	n/a
3665335	RECOG_TARGET	n/a	LTP293	ltpFR	3	2	1	TOTE	1487	4	0	n/a	n/a	n/a	n/a	n/a
3666025	RECOG_RESP	n/a	LTP293	ltpFR	3	2	1	TOTE	1487	n/a	0	n/a	n/a	n/a	n/a	n/a
3666805	RECOG_CONF	n/a	LTP293	ltpFR	3	2	1	TOTE	1487	4	0	n/a	n/a	n/a	n/a	n/a
3668629	RECOG_TARGET	n/a	LTP293	ltpFR	3	2	0	OFFICER	973	3	1	n/a	n/a	n/a	n/a	n/a
3669265	RECOG_RESP	n/a	LTP293	ltpFR	3	2	0	OFFICER	973	n/a	1	n/a	n/a	n/a	n/a	n/a
3670115	RECOG_CONF	n/a	LTP293	ltpFR	3	2	0	OFFICER	973	3	1	n/a	n/a	n/a	n/a	n/a
3671992	RECOG_LURE	n/a	LTP293	ltpFR	3	2	n/a	FIELD	562	2	n/a	n/a	n/a	n/a	n/a	n/a
3672595	RECOG_RESP	n/a	LTP293	ltpFR	3	2	n/a	FIELD	562	n/a	n/a	n/a	n/a	n/a	n/a	n/a
3673445	RECOG_CONF	n/a	LTP293	ltpFR	3	2	n/a	FIELD	562	2	n/a	n/a	n/a	n/a	n/a	n/a
3675270	RECOG_LURE	n/a	LTP293	ltpFR	3	2	n/a	CHILD	299	3	n/a	n/a	n/a	n/a	n/a	n/a
3675880	RECOG_RESP	n/a	LTP293	ltpFR	3	2	n/a	CHILD	299	n/a	n/a	n/a	n/a	n/a	n/a	n/a
3676635	RECOG_CONF	n/a	LTP293	ltpFR	3	2	n/a	CHILD	299	3	n/a	n/a	n/a	n/a	n/a	n/a
3678631	RECOG_TARGET	n/a	LTP293	ltpFR	3	2	0	CACTUS	215	5	0	n/a	n/a	n/a	n/a	n/a
3679185	RECOG_RESP	n/a	LTP293	ltpFR	3	2	0	CACTUS	215	n/a	0	n/a	n/a	n/a	n/a	n/a
3680065	RECOG_CONF	n/a	LTP293	ltpFR	3	2	0	CACTUS	215	5	0	n/a	n/a	n/a	n/a	n/a
3681894	RECOG_TARGET	n/a	LTP293	ltpFR	3	2	0	COLESLAW	344	4	0	n/a	n/a	n/a	n/a	n/a
3682510	RECOG_RESP	n/a	LTP293	ltpFR	3	2	0	COLESLAW	344	n/a	0	n/a	n/a	n/a	n/a	n/a
3683355	RECOG_CONF	n/a	LTP293	ltpFR	3	2	0	COLESLAW	344	4	0	n/a	n/a	n/a	n/a	n/a
3685272	RECOG_TARGET	n/a	LTP293	ltpFR	3	2	0	OVAL	990	5	0	n/a	n/a	n/a	n/a	n/a
3685855	RECOG_RESP	n/a	LTP293	ltpFR	3	2	0	OVAL	990	n/a	0	n/a	n/a	n/a	n/a	n/a
3686645	RECOG_CONF	n/a	LTP293	ltpFR	3	2	0	OVAL	990	5	0	n/a	n/a	n/a	n/a	n/a
3688633	RECOG_TARGET	n/a	LTP293	ltpFR	3	2	1	MISTER	901	5	1	n/a	n/a	n/a	n/a	n/a
3689220	RECOG_RESP	n/a	LTP293	ltpFR	3	2	1	MISTER	901	n/a	1	n/a	n/a	n/a	n/a	n/a
3690095	RECOG_CONF	n/a	LTP293	ltpFR	3	2	1	MISTER	901	5	1	n/a	n/a	n/a	n/a	n/a
3692095	RECOG_LURE	n/a	LTP293	ltpFR	3	2	n/a	COFFIN	342	1	n/a	n/a	n/a	n/a	n/a	n/a
3692740	RECOG_RESP	n/a	LTP293	ltpFR	3	2	n/a	COFFIN	342	n/a	n/a	n/a	n/a	n/a	n/a	n/a
3693595	RECOG_CONF	n/a	LTP293	ltpFR	3	2	n/a	COFFIN	342	1	n/a	n/a	n/a	n/a	n/a	n/a
3695440	RECOG_TARGET	n/a	LTP293	ltpFR	3	2	-1	OX	994	4	-1	n/a	n/a	n/a	n/a	n/a
3695965	RECOG_RESP	n/a	LTP293	ltpFR	3	2	-1	OX	994	n/a	-1	n/a	n/a	n/a	n/a	n/a
3696845	RECOG_CONF	n/a	LTP293	ltpFR	3	2	-1	OX	994	4	-1	n/a	n/a	n/a	n/a	n/a
3698752	RECOG_TARGET	n/a	LTP293	ltpFR	3	2	1	CROSS	413	5	0	n/a	n/a	n/a	n/a	n/a
3699360	RECOG_RESP	n/a	LTP293	ltpFR	3	2	1	CROSS	413	n/a	0	n/a	n/a	n/a	n/a	n/a
3700205	RECOG_CONF	n/a	LTP293	ltpFR	3	2	1	CROSS	413	5	0	n/a	n/a	n/a	n/a	n/a
3702163	RECOG_TARGET	n/a	LTP293	ltpFR	3	2	0	COD	340	3	0	n/a	n/a	n/a	n/a	n/a
3702840	RECOG_RESP	n/a	LTP293	ltpFR	3	2	0	COD	340	n/a	0	n/a	n/a	n/a	n/a	n/a
3703745	RECOG_CONF	n/a	LTP293	ltpFR	3	2	0	COD	340	3	0	n/a	n/a	n/a	n/a	n/a
3710922	REC_START	n/a	LTP293	ltpFR	3	3	n/a	n/a	n/a	n/a	n/a	n/a	n/a	n/a	n/a	n/a
3710950	RECOG_TARGET	n/a	LTP293	ltpFR	3	3	1	JOINT	758	4	0	n/a	n/a	n/a	n/a	n/a
3711547	RECOG_RESP	n/a	LTP293	ltpFR	3	3	1	JOINT	758	n/a	0	n/a	n/a	n/a	n/a	n/a
3712422	RECOG_CONF	n/a	LTP293	ltpFR	3	3	1	JOINT	758	4	0	n/a	n/a	n/a	n/a	n/a
3714345	RECOG_TARGET	n/a	LTP293	ltpFR	3	3	0	FOOT	590	5	0	n/a	n/a	n/a	n/a	n/a
3714957	RECOG_RESP	n/a	LTP293	ltpFR	3	3	0	FOOT	590	n/a	0	n/a	n/a	n/a	n/a	n/a
3715792	RECOG_CONF	n/a	LTP293	ltpFR	3	3	0	FOOT	590	5	0	n/a	n/a	n/a	n/a	n/a
3717657	RECOG_TARGET	n/a	LTP293	ltpFR	3	3	-1	OATS	968	3	-1	n/a	n/a	n/a	n/a	n/a
3718197	RECOG_RESP	n/a	LTP293	ltpFR	3	3	-1	OATS	968	n/a	-1	n/a	n/a	n/a	n/a	n/a
3719062	RECOG_CONF	n/a	LTP293	ltpFR	3	3	-1	OATS	968	3	-1	n/a	n/a	n/a	n/a	n/a
3720886	RECOG_TARGET	n/a	LTP293	ltpFR	3	3	-1	TWEEZERS	1526	2	-1	n/a	n/a	n/a	n/a	n/a
3721457	RECOG_RESP	n/a	LTP293	ltpFR	3	3	-1	TWEEZERS	1526	n/a	-1	n/a	n/a	n/a	n/a	n/a
3722292	RECOG_CONF	n/a	LTP293	ltpFR	3	3	-1	TWEEZERS	1526	2	-1	n/a	n/a	n/a	n/a	n/a
3724247	RECOG_TARGET	n/a	LTP293	ltpFR	3	3	1	COAL	332	4	0	n/a	n/a	n/a	n/a	n/a
3724767	RECOG_RESP	n/a	LTP293	ltpFR	3	3	1	COAL	332	n/a	0	n/a	n/a	n/a	n/a	n/a
3725542	RECOG_CONF	n/a	LTP293	ltpFR	3	3	1	COAL	332	4	0	n/a	n/a	n/a	n/a	n/a
3727392	RECOG_TARGET	n/a	LTP293	ltpFR	3	3	0	JELLY	755	4	0	n/a	n/a	n/a	n/a	n/a
3727932	RECOG_RESP	n/a	LTP293	ltpFR	3	3	0	JELLY	755	n/a	0	n/a	n/a	n/a	n/a	n/a
3728742	RECOG_CONF	n/a	LTP293	ltpFR	3	3	0	JELLY	755	4	0	n/a	n/a	n/a	n/a	n/a
3730654	RECOG_TARGET	n/a	LTP293	ltpFR	3	3	-1	FIREMAN	569	4	-1	n/a	n/a	n/a	n/a	n/a
3731242	RECOG_RESP	n/a	LTP293	ltpFR	3	3	-1	FIREMAN	569	n/a	-1	n/a	n/a	n/a	n/a	n/a
3732132	RECOG_CONF	n/a	LTP293	ltpFR	3	3	-1	FIREMAN	569	4	-1	n/a	n/a	n/a	n/a	n/a
3734066	RECOG_TARGET	n/a	LTP293	ltpFR	3	3	0	BINDER	127	2	2	n/a	n/a	n/a	n/a	n/a
3734767	RECOG_RESP	n/a	LTP293	ltpFR	3	3	0	BINDER	127	n/a	2	n/a	n/a	n/a	n/a	n/a
3735612	RECOG_CONF	n/a	LTP293	ltpFR	3	3	0	BINDER	127	2	2	n/a	n/a	n/a	n/a	n/a
3737510	RECOG_LURE	n/a	LTP293	ltpFR	3	3	n/a	SHIRT	1287	3	n/a	n/a	n/a	n/a	n/a	n/a
3738142	RECOG_RESP	n/a	LTP293	ltpFR	3	3	n/a	SHIRT	1287	n/a	n/a	n/a	n/a	n/a	n/a	n/a
3738952	RECOG_CONF	n/a	LTP293	ltpFR	3	3	n/a	SHIRT	1287	3	n/a	n/a	n/a	n/a	n/a	n/a
3740756	RECOG_TARGET	n/a	LTP293	ltpFR	3	3	0	DINNER	468	4	0	n/a	n/a	n/a	n/a	n/a
3741422	RECOG_RESP	n/a	LTP293	ltpFR	3	3	0	DINNER	468	n/a	0	n/a	n/a	n/a	n/a	n/a
3742192	RECOG_CONF	n/a	LTP293	ltpFR	3	3	0	DINNER	468	4	0	n/a	n/a	n/a	n/a	n/a
3744034	RECOG_TARGET	n/a	LTP293	ltpFR	3	3	-1	GREASE	660	2	-1	n/a	n/a	n/a	n/a	n/a
3744677	RECOG_RESP_VV	n/a	LTP293	ltpFR	3	3	-1	GREASE	660	n/a	-1	n/a	n/a	n/a	n/a	n/a
3745372	RECOG_RESP	n/a	LTP293	ltpFR	3	3	-1	GREASE	660	n/a	-1	n/a	n/a	n/a	n/a	n/a
3746372	RECOG_CONF	n/a	LTP293	ltpFR	3	3	-1	GREASE	660	2	-1	n/a	n/a	n/a	n/a	n/a
3748245	RECOG_LURE	n/a	LTP293	ltpFR	3	3	n/a	DUMP	505	4	n/a	n/a	n/a	n/a	n/a	n/a
3748897	RECOG_RESP	n/a	LTP293	ltpFR	3	3	n/a	DUMP	505	n/a	n/a	n/a	n/a	n/a	n/a	n/a
3749722	RECOG_CONF	n/a	LTP293	ltpFR	3	3	n/a	DUMP	505	4	n/a	n/a	n/a	n/a	n/a	n/a
3751706	RECOG_LURE	n/a	LTP293	ltpFR	3	3	n/a	EMPEROR	529	3	n/a	n/a	n/a	n/a	n/a	n/a
3752317	RECOG_RESP	n/a	LTP293	ltpFR	3	3	n/a	EMPEROR	529	n/a	n/a	n/a	n/a	n/a	n/a	n/a
3753112	RECOG_CONF	n/a	LTP293	ltpFR	3	3	n/a	EMPEROR	529	3	n/a	n/a	n/a	n/a	n/a	n/a
3754985	RECOG_TARGET	n/a	LTP293	ltpFR	3	3	-1	BEER	114	5	-1	n/a	n/a	n/a	n/a	n/a
3755532	RECOG_RESP	n/a	LTP293	ltpFR	3	3	-1	BEER	114	n/a	-1	n/a	n/a	n/a	n/a	n/a
3756372	RECOG_CONF	n/a	LTP293	ltpFR	3	3	-1	BEER	114	5	-1	n/a	n/a	n/a	n/a	n/a
3758379	RECOG_TARGET	n/a	LTP293	ltpFR	3	3	1	DILL	465	4	0	n/a	n/a	n/a	n/a	n/a
3759157	RECOG_RESP	n/a	LTP293	ltpFR	3	3	1	DILL	465	n/a	0	n/a	n/a	n/a	n/a	n/a
3760002	RECOG_CONF	n/a	LTP293	ltpFR	3	3	1	DILL	465	4	0	n/a	n/a	n/a	n/a	n/a
3761907	RECOG_TARGET	n/a	LTP293	ltpFR	3	3	-1	MILITARY	894	2	-1	n/a	n/a	n/a	n/a	n/a
3762457	RECOG_RESP	n/a	LTP293	ltpFR	3	3	-1	MILITARY	894	n/a	-1	n/a	n/a	n/a	n/a	n/a
3763332	RECOG_CONF	n/a	LTP293	ltpFR	3	3	-1	MILITARY	894	2	-1	n/a	n/a	n/a	n/a	n/a
3765069	RECOG_TARGET	n/a	LTP293	ltpFR	3	3	-1	QUAIL	1147	5	-1	n/a	n/a	n/a	n/a	n/a
3765642	RECOG_RESP	n/a	LTP293	ltpFR	3	3	-1	QUAIL	1147	n/a	-1	n/a	n/a	n/a	n/a	n/a
3766492	RECOG_CONF	n/a	LTP293	ltpFR	3	3	-1	QUAIL	1147	5	-1	n/a	n/a	n/a	n/a	n/a
3768248	RECOG_LURE	n/a	LTP293	ltpFR	3	3	n/a	TOY	1492	3	n/a	n/a	n/a	n/a	n/a	n/a
3768932	RECOG_RESP	n/a	LTP293	ltpFR	3	3	n/a	TOY	1492	n/a	n/a	n/a	n/a	n/a	n/a	n/a
3769802	RECOG_CONF	n/a	LTP293	ltpFR	3	3	n/a	TOY	1492	3	n/a	n/a	n/a	n/a	n/a	n/a
3771625	RECOG_TARGET	n/a	LTP293	ltpFR	3	3	-1	MAJOR	859	2	-1	n/a	n/a	n/a	n/a	n/a
3772227	RECOG_RESP	n/a	LTP293	ltpFR	3	3	-1	MAJOR	859	n/a	-1	n/a	n/a	n/a	n/a	n/a
3773112	RECOG_CONF	n/a	LTP293	ltpFR	3	3	-1	MAJOR	859	2	-1	n/a	n/a	n/a	n/a	n/a
3775021	RECOG_TARGET	n/a	LTP293	ltpFR	3	3	-1	BOY	161	4	-1	n/a	n/a	n/a	n/a	n/a
3775562	RECOG_RESP	n/a	LTP293	ltpFR	3	3	-1	BOY	161	n/a	-1	n/a	n/a	n/a	n/a	n/a
3776412	RECOG_CONF	n/a	LTP293	ltpFR	3	3	-1	BOY	161	4	-1	n/a	n/a	n/a	n/a	n/a
3782509	REC_START	n/a	LTP293	ltpFR	3	4	n/a	n/a	n/a	n/a	n/a	n/a	n/a	n/a	n/a	n/a
3782542	RECOG_TARGET	n/a	LTP293	ltpFR	3	4	0	ELECTRICIAN	521	4	1	n/a	n/a	n/a	n/a	n/a
3783464	RECOG_RESP	n/a	LTP293	ltpFR	3	4	0	ELECTRICIAN	521	n/a	1	n/a	n/a	n/a	n/a	n/a
3784349	RECOG_CONF	n/a	LTP293	ltpFR	3	4	0	ELECTRICIAN	521	4	1	n/a	n/a	n/a	n/a	n/a
3786138	RECOG_TARGET	n/a	LTP293	ltpFR	3	4	0	BUCKET	184	3	0	n/a	n/a	n/a	n/a	n/a
3786709	RECOG_RESP	n/a	LTP293	ltpFR	3	4	0	BUCKET	184	n/a	0	n/a	n/a	n/a	n/a	n/a
3787549	RECOG_CONF	n/a	LTP293	ltpFR	3	4	0	BUCKET	184	3	0	n/a	n/a	n/a	n/a	n/a
3789283	RECOG_TARGET	n/a	LTP293	ltpFR	3	4	1	BANK	83	5	0	n/a	n/a	n/a	n/a	n/a
3789839	RECOG_RESP	n/a	LTP293	ltpFR	3	4	1	BANK	83	n/a	0	n/a	n/a	n/a	n/a	n/a
3790609	RECOG_CONF	n/a	LTP293	ltpFR	3	4	1	BANK	83	5	0	n/a	n/a	n/a	n/a	n/a
3792527	RECOG_TARGET	n/a	LTP293	ltpFR	3	4	0	SIGN	1305	5	1	n/a	n/a	n/a	n/a	n/a
3793094	RECOG_RESP	n/a	LTP293	ltpFR	3	4	0	SIGN	1305	n/a	1	n/a	n/a	n/a	n/a	n/a
3793919	RECOG_CONF	n/a	LTP293	ltpFR	3	4	0	SIGN	1305	5	1	n/a	n/a	n/a	n/a	n/a
3795857	RECOG_LURE	n/a	LTP293	ltpFR	3	4	n/a	BLUEPRINT	142	4	n/a	n/a	n/a	n/a	n/a	n/a
3796409	RECOG_RESP	n/a	LTP293	ltpFR	3	4	n/a	BLUEPRINT	142	n/a	n/a	n/a	n/a	n/a	n/a	n/a
3797199	RECOG_CONF	n/a	LTP293	ltpFR	3	4	n/a	BLUEPRINT	142	4	n/a	n/a	n/a	n/a	n/a	n/a
3799102	RECOG_TARGET	n/a	LTP293	ltpFR	3	4	1	LIMOUSINE	824	5	0	n/a	n/a	n/a	n/a	n/a
3799739	RECOG_RESP	n/a	LTP293	ltpFR	3	4	1	LIMOUSINE	824	n/a	0	n/a	n/a	n/a	n/a	n/a
3800579	RECOG_CONF	n/a	LTP293	ltpFR	3	4	1	LIMOUSINE	824	5	0	n/a	n/a	n/a	n/a	n/a
3802496	RECOG_TARGET	n/a	LTP293	ltpFR	3	4	0	GOLD	647	4	0	n/a	n/a	n/a	n/a	n/a
3803024	RECOG_RESP	n/a	LTP293	ltpFR	3	4	0	GOLD	647	n/a	0	n/a	n/a	n/a	n/a	n/a
3803859	RECOG_CONF	n/a	LTP293	ltpFR	3	4	0	GOLD	647	4	0	n/a	n/a	n/a	n/a	n/a
3805809	RECOG_TARGET	n/a	LTP293	ltpFR	3	4	1	BAKER	71	3	1	n/a	n/a	n/a	n/a	n/a
3806359	RECOG_RESP	n/a	LTP293	ltpFR	3	4	1	BAKER	71	n/a	1	n/a	n/a	n/a	n/a	n/a
3807439	RECOG_CONF	n/a	LTP293	ltpFR	3	4	1	BAKER	71	3	1	n/a	n/a	n/a	n/a	n/a
3809120	RECOG_TARGET	n/a	LTP293	ltpFR	3	4	1	DRAWING	494	1	0	n/a	n/a	n/a	n/a	n/a
3809824	RECOG_RESP	n/a	LTP293	ltpFR	3	4	1	DRAWING	494	n/a	0	n/a	n/a	n/a	n/a	n/a
3810699	RECOG_CONF	n/a	LTP293	ltpFR	3	4	1	DRAWING	494	1	0	n/a	n/a	n/a	n/a	n/a
3812482	RECOG_TARGET	n/a	LTP293	ltpFR	3	4	1	DIAMOND	458	4	0	n/a	n/a	n/a	n/a	n/a
3813054	RECOG_RESP	n/a	LTP293	ltpFR	3	4	1	DIAMOND	458	n/a	0	n/a	n/a	n/a	n/a	n/a
3813889	RECOG_CONF	n/a	LTP293	ltpFR	3	4	1	DIAMOND	458	4	0	n/a	n/a	n/a	n/a	n/a
3815760	RECOG_TARGET	n/a	LTP293	ltpFR	3	4	1	FELLOW	558	5	1	n/a	n/a	n/a	n/a	n/a
3816374	RECOG_RESP	n/a	LTP293	ltpFR	3	4	1	FELLOW	558	n/a	1	n/a	n/a	n/a	n/a	n/a
3817199	RECOG_CONF	n/a	LTP293	ltpFR	3	4	1	FELLOW	558	5	1	n/a	n/a	n/a	n/a	n/a
3819155	RECOG_LURE	n/a	LTP293	ltpFR	3	4	n/a	FLESH	579	3	n/a	n/a	n/a	n/a	n/a	n/a
3819859	RECOG_RESP	n/a	LTP293	ltpFR	3	4	n/a	FLESH	579	n/a	n/a	n/a	n/a	n/a	n/a	n/a
3820629	RECOG_CONF	n/a	LTP293	ltpFR	3	4	n/a	FLESH	579	3	n/a	n/a	n/a	n/a	n/a	n/a
3822417	RECOG_LURE	n/a	LTP293	ltpFR	3	4	n/a	RACKET	1155	2	n/a	n/a	n/a	n/a	n/a	n/a
3822989	RECOG_RESP	n/a	LTP293	ltpFR	3	4	n/a	RACKET	1155	n/a	n/a	n/a	n/a	n/a	n/a	n/a
3823819	RECOG_CONF	n/a	LTP293	ltpFR	3	4	n/a	RACKET	1155	2	n/a	n/a	n/a	n/a	n/a	n/a
3825812	RECOG_TARGET	n/a	LTP293	ltpFR	3	4	1	DOVE	491	4	1	n/a	n/a	n/a	n/a	n/a
3826369	RECOG_RESP	n/a	LTP293	ltpFR	3	4	1	DOVE	491	n/a	1	n/a	n/a	n/a	n/a	n/a
3827309	RECOG_CONF	n/a	LTP293	ltpFR	3	4	1	DOVE	491	4	1	n/a	n/a	n/a	n/a	n/a
3828991	RECOG_TARGET	n/a	LTP293	ltpFR	3	4	-1	TURNIP	1521	5	-1	n/a	n/a	n/a	n/a	n/a
3829614	RECOG_RESP	n/a	LTP293	ltpFR	3	4	-1	TURNIP	1521	n/a	-1	n/a	n/a	n/a	n/a	n/a
3830449	RECOG_CONF	n/a	LTP293	ltpFR	3	4	-1	TURNIP	1521	5	-1	n/a	n/a	n/a	n/a	n/a
3832419	RECOG_LURE	n/a	LTP293	ltpFR	3	4	n/a	ARMY	39	3	n/a	n/a	n/a	n/a	n/a	n/a
3832899	RECOG_RESP	n/a	LTP293	ltpFR	3	4	n/a	ARMY	39	n/a	n/a	n/a	n/a	n/a	n/a	n/a
3833659	RECOG_CONF	n/a	LTP293	ltpFR	3	4	n/a	ARMY	39	3	n/a	n/a	n/a	n/a	n/a	n/a
3835563	RECOG_LURE	n/a	LTP293	ltpFR	3	4	n/a	SHACK	1273	2	n/a	n/a	n/a	n/a	n/a	n/a
3836189	RECOG_RESP	n/a	LTP293	ltpFR	3	4	n/a	SHACK	1273	n/a	n/a	n/a	n/a	n/a	n/a	n/a
3836979	RECOG_CONF	n/a	LTP293	ltpFR	3	4	n/a	SHACK	1273	2	n/a	n/a	n/a	n/a	n/a	n/a
3838926	RECOG_TARGET	n/a	LTP293	ltpFR	3	4	-1	COW	393	4	-1	n/a	n/a	n/a	n/a	n/a
3839504	RECOG_RESP	n/a	LTP293	ltpFR	3	4	-1	COW	393	n/a	-1	n/a	n/a	n/a	n/a	n/a
3840339	RECOG_CONF	n/a	LTP293	ltpFR	3	4	-1	COW	393	4	-1	n/a	n/a	n/a	n/a	n/a
3842138	RECOG_TARGET	n/a	LTP293	ltpFR	3	4	1	VINEGAR	1569	3	0	n/a	n/a	n/a	n/a	n/a
3842749	RECOG_RESP	n/a	LTP293	ltpFR	3	4	1	VINEGAR	1569	n/a	0	n/a	n/a	n/a	n/a	n/a
3843559	RECOG_CONF	n/a	LTP293	ltpFR	3	4	1	VINEGAR	1569	3	0	n/a	n/a	n/a	n/a	n/a
3845400	RECOG_TARGET	n/a	LTP293	ltpFR	3	4	1	POPE	1105	4	1	n/a	n/a	n/a	n/a	n/a
3846204	RECOG_RESP	n/a	LTP293	ltpFR	3	4	1	POPE	1105	n/a	1	n/a	n/a	n/a	n/a	n/a
3847139	RECOG_CONF	n/a	LTP293	ltpFR	3	4	1	POPE	1105	4	1	n/a	n/a	n/a	n/a	n/a
3859392	REC_START	n/a	LTP293	ltpFR	3	5	n/a	n/a	n/a	n/a	n/a	n/a	n/a	n/a	n/a	n/a
3859429	RECOG_TARGET	n/a	LTP293	ltpFR	3	5	1	CABBAGE	210	4	1	n/a	n/a	n/a	n/a	n/a
3860060	RECOG_RESP	n/a	LTP293	ltpFR	3	5	1	CABBAGE	210	n/a	1	n/a	n/a	n/a	n/a	n/a
3860922	RECOG_CONF	n/a	LTP293	ltpFR	3	5	1	CABBAGE	210	4	1	n/a	n/a	n/a	n/a	n/a
3862707	RECOG_LURE	n/a	LTP293	ltpFR	3	5	n/a	PARTY	1018	3	n/a	n/a	n/a	n/a	n/a	n/a
3863292	RECOG_RESP	n/a	LTP293	ltpFR	3	5	n/a	PARTY	1018	n/a	n/a	n/a	n/a	n/a	n/a	n/a
3864062	RECOG_CONF	n/a	LTP293	ltpFR	3	5	n/a	PARTY	1018	3	n/a	n/a	n/a	n/a	n/a	n/a
3866019	RECOG_TARGET	n/a	LTP293	ltpFR	3	5	-1	BALLERINA	74	5	-1	n/a	n/a	n/a	n/a	n/a
3866592	RECOG_RESP	n/a	LTP293	ltpFR	3	5	-1	BALLERINA	74	n/a	-1	n/a	n/a	n/a	n/a	n/a
3867382	RECOG_CONF	n/a	LTP293	ltpFR	3	5	-1	BALLERINA	74	5	-1	n/a	n/a	n/a	n/a	n/a
3869414	RECOG_TARGET	n/a	LTP293	ltpFR	3	5	0	CHART	282	4	1	n/a	n/a	n/a	n/a	n/a
3870057	RECOG_RESP	n/a	LTP293	ltpFR	3	5	0	CHART	282	n/a	1	n/a	n/a	n/a	n/a	n/a
3870892	RECOG_CONF	n/a	LTP293	ltpFR	3	5	0	CHART	282	4	1	n/a	n/a	n/a	n/a	n/a
3872775	RECOG_LURE	n/a	LTP293	ltpFR	3	5	n/a	TAIL	1430	2	n/a	n/a	n/a	n/a	n/a	n/a
3873327	RECOG_RESP	n/a	LTP293	ltpFR	3	5	n/a	TAIL	1430	n/a	n/a	n/a	n/a	n/a	n/a	n/a
3874162	RECOG_CONF	n/a	LTP293	ltpFR	3	5	n/a	TAIL	1430	2	n/a	n/a	n/a	n/a	n/a	n/a
3875904	RECOG_TARGET	n/a	LTP293	ltpFR	3	5	-1	STEAM	1375	5	-1	n/a	n/a	n/a	n/a	n/a
3876447	RECOG_RESP	n/a	LTP293	ltpFR	3	5	-1	STEAM	1375	n/a	-1	n/a	n/a	n/a	n/a	n/a
3877282	RECOG_CONF	n/a	LTP293	ltpFR	3	5	-1	STEAM	1375	5	-1	n/a	n/a	n/a	n/a	n/a
3879066	RECOG_TARGET	n/a	LTP293	ltpFR	3	5	1	RECEPTIONIST	1174	5	1	n/a	n/a	n/a	n/a	n/a
3879647	RECOG_RESP	n/a	LTP293	ltpFR	3	5	1	RECEPTIONIST	1174	n/a	1	n/a	n/a	n/a	n/a	n/a
3880552	RECOG_CONF	n/a	LTP293	ltpFR	3	5	1	RECEPTIONIST	1174	5	1	n/a	n/a	n/a	n/a	n/a
3882244	RECOG_TARGET	n/a	LTP293	ltpFR	3	5	1	BLADE	134	4	0	n/a	n/a	n/a	n/a	n/a
3882867	RECOG_RESP	n/a	LTP293	ltpFR	3	5	1	BLADE	134	n/a	0	n/a	n/a	n/a	n/a	n/a
3883712	RECOG_CONF	n/a	LTP293	ltpFR	3	5	1	BLADE	134	4	0	n/a	n/a	n/a	n/a	n/a
3885572	RECOG_LURE	n/a	LTP293	ltpFR	3	5	n/a	WIFE	1609	3	n/a	n/a	n/a	n/a	n/a	n/a
3886132	RECOG_RESP	n/a	LTP293	ltpFR	3	5	n/a	WIFE	1609	n/a	n/a	n/a	n/a	n/a	n/a	n/a
3886952	RECOG_CONF	n/a	LTP293	ltpFR	3	5	n/a	WIFE	1609	3	n/a	n/a	n/a	n/a	n/a	n/a
3888702	RECOG_LURE	n/a	LTP293	ltpFR	3	5	n/a	WHISKERS	1605	4	n/a	n/a	n/a	n/a	n/a	n/a
3889252	RECOG_RESP	n/a	LTP293	ltpFR	3	5	n/a	WHISKERS	1605	n/a	n/a	n/a	n/a	n/a	n/a	n/a
3889992	RECOG_CONF	n/a	LTP293	ltpFR	3	5	n/a	WHISKERS	1605	4	n/a	n/a	n/a	n/a	n/a	n/a
3891830	RECOG_TARGET	n/a	LTP293	ltpFR	3	5	1	WHEEL	1603	4	0	n/a	n/a	n/a	n/a	n/a
3892372	RECOG_RESP	n/a	LTP293	ltpFR	3	5	1	WHEEL	1603	n/a	0	n/a	n/a	n/a	n/a	n/a
3893122	RECOG_CONF	n/a	LTP293	ltpFR	3	5	1	WHEEL	1603	4	0	n/a	n/a	n/a	n/a	n/a
3895109	RECOG_LURE	n/a	LTP293	ltpFR	3	5	n/a	POCKET	1093	2	n/a	n/a	n/a	n/a	n/a	n/a
3895757	RECOG_RESP	n/a	LTP293	ltpFR	3	5	n/a	POCKET	1093	n/a	n/a	n/a	n/a	n/a	n/a	n/a
3896562	RECOG_CONF	n/a	LTP293	ltpFR	3	5	n/a	POCKET	1093	2	n/a	n/a	n/a	n/a	n/a	n/a
3898437	RECOG_TARGET	n/a	LTP293	ltpFR	3	5	-1	GARDEN	623	5	-1	n/a	n/a	n/a	n/a	n/a
3898952	RECOG_RESP	n/a	LTP293	ltpFR	3	5	-1	GARDEN	623	n/a	-1	n/a	n/a	n/a	n/a	n/a
3899692	RECOG_CONF	n/a	LTP293	ltpFR	3	5	-1	GARDEN	623	5	-1	n/a	n/a	n/a	n/a	n/a
3901732	RECOG_LURE	n/a	LTP293	ltpFR	3	5	n/a	RODENT	1204	1	n/a	n/a	n/a	n/a	n/a	n/a
3902292	RECOG_RESP	n/a	LTP293	ltpFR	3	5	n/a	RODENT	1204	n/a	n/a	n/a	n/a	n/a	n/a	n/a
3903152	RECOG_CONF	n/a	LTP293	ltpFR	3	5	n/a	RODENT	1204	1	n/a	n/a	n/a	n/a	n/a	n/a
3904994	RECOG_LURE	n/a	LTP293	ltpFR	3	5	n/a	SIREN	1310	2	n/a	n/a	n/a	n/a	n/a	n/a
3905607	RECOG_RESP	n/a	LTP293	ltpFR	3	5	n/a	SIREN	1310	n/a	n/a	n/a	n/a	n/a	n/a	n/a
3906492	RECOG_CONF	n/a	LTP293	ltpFR	3	5	n/a	SIREN	1310	2	n/a	n/a	n/a	n/a	n/a	n/a
3908389	RECOG_TARGET	n/a	LTP293	ltpFR	3	5	1	FOUNTAIN	597	5	0	n/a	n/a	n/a	n/a	n/a
3908957	RECOG_RESP	n/a	LTP293	ltpFR	3	5	1	FOUNTAIN	597	n/a	0	n/a	n/a	n/a	n/a	n/a
3909722	RECOG_CONF	n/a	LTP293	ltpFR	3	5	1	FOUNTAIN	597	5	0	n/a	n/a	n/a	n/a	n/a
3911701	RECOG_LURE	n/a	LTP293	ltpFR	3	5	n/a	CIGAR	308	4	n/a	n/a	n/a	n/a	n/a	n/a
3912325	RECOG_RESP	n/a	LTP293	ltpFR	3	5	n/a	CIGAR	308	n/a	n/a	n/a	n/a	n/a	n/a	n/a
3913102	RECOG_CONF	n/a	LTP293	ltpFR	3	5	n/a	CIGAR	308	4	n/a	n/a	n/a	n/a	n/a	n/a
3914979	RECOG_TARGET	n/a	LTP293	ltpFR	3	5	1	BASKET	95	5	0	n/a	n/a	n/a	n/a	n/a
3915577	RECOG_RESP	n/a	LTP293	ltpFR	3	5	1	BASKET	95	n/a	0	n/a	n/a	n/a	n/a	n/a
3916322	RECOG_CONF	n/a	LTP293	ltpFR	3	5	1	BASKET	95	5	0	n/a	n/a	n/a	n/a	n/a
3918307	RECOG_TARGET	n/a	LTP293	ltpFR	3	5	0	MAGNET	855	5	0	n/a	n/a	n/a	n/a	n/a
3918862	RECOG_RESP	n/a	LTP293	ltpFR	3	5	0	MAGNET	855	n/a	0	n/a	n/a	n/a	n/a	n/a
3919622	RECOG_CONF	n/a	LTP293	ltpFR	3	5	0	MAGNET	855	5	0	n/a	n/a	n/a	n/a	n/a
3921535	RECOG_LURE	n/a	LTP293	ltpFR	3	5	n/a	HOE	711	4	n/a	n/a	n/a	n/a	n/a	n/a
3922042	RECOG_RESP	n/a	LTP293	ltpFR	3	5	n/a	HOE	711	n/a	n/a	n/a	n/a	n/a	n/a	n/a
3922772	RECOG_CONF	n/a	LTP293	ltpFR	3	5	n/a	HOE	711	4	n/a	n/a	n/a	n/a	n/a	n/a
3928009	REC_START	n/a	LTP293	ltpFR	3	6	n/a	n/a	n/a	n/a	n/a	n/a	n/a	n/a	n/a	n/a
3928043	RECOG_TARGET	n/a	LTP293	ltpFR	3	6	1	LITERATURE	831	4	0	n/a	n/a	n/a	n/a	n/a
3928654	RECOG_RESP	n/a	LTP293	ltpFR	3	6	1	LITERATURE	831	n/a	0	n/a	n/a	n/a	n/a	n/a
3929400	RECOG_CONF	n/a	LTP293	ltpFR	3	6	1	LITERATURE	831	4	0	n/a	n/a	n/a	n/a	n/a
3931288	RECOG_TARGET	n/a	LTP293	ltpFR	3	6	1	LEAF	808	5	1	n/a	n/a	n/a	n/a	n/a
3931834	RECOG_RESP	n/a	LTP293	ltpFR	3	6	1	LEAF	808	n/a	1	n/a	n/a	n/a	n/a	n/a
3932589	RECOG_CONF	n/a	LTP293	ltpFR	3	6	1	LEAF	808	5	1	n/a	n/a	n/a	n/a	n/a
3934400	RECOG_TARGET	n/a	LTP293	ltpFR	3	6	1	METEOR	889	5	0	n/a	n/a	n/a	n/a	n/a
3935049	RECOG_RESP	n/a	LTP293	ltpFR	3	6	1	METEOR	889	n/a	0	n/a	n/a	n/a	n/a	n/a
3935869	RECOG_CONF	n/a	LTP293	ltpFR	3	6	1	METEOR	889	5	0	n/a	n/a	n/a	n/a	n/a
3937479	RECOG_TARGET	n/a	LTP293	ltpFR	3	6	0	COMPASS	358	5	0	n/a	n/a	n/a	n/a	n/a
3938044	RECOG_RESP	n/a	LTP293	ltpFR	3	6	0	COMPASS	358	n/a	0	n/a	n/a	n/a	n/a	n/a
3938869	RECOG_CONF	n/a	LTP293	ltpFR	3	6	0	COMPASS	358	5	0	n/a	n/a	n/a	n/a	n/a
3940691	RECOG_TARGET	n/a	LTP293	ltpFR	3	6	1	MECHANIC	884	2	1	n/a	n/a	n/a	n/a	n/a
3941334	RECOG_RESP	n/a	LTP293	ltpFR	3	6	1	MECHANIC	884	n/a	1	n/a	n/a	n/a	n/a	n/a
3942629	RECOG_CONF	n/a	LTP293	ltpFR	3	6	1	MECHANIC	884	2	1	n/a	n/a	n/a	n/a	n/a
3944335	RECOG_TARGET	n/a	LTP293	ltpFR	3	6	0	ALMOND	18	3	0	n/a	n/a	n/a	n/a	n/a
3944934	RECOG_RESP	n/a	LTP293	ltpFR	3	6	0	ALMOND	18	n/a	0	n/a	n/a	n/a	n/a	n/a
3945769	RECOG_CONF	n/a	LTP293	ltpFR	3	6	0	ALMOND	18	3	0	n/a	n/a	n/a	n/a	n/a
3947563	RECOG_TARGET	n/a	LTP293	ltpFR	3	6	1	COLT	349	4	1	n/a	n/a	n/a	n/a	n/a
3948119	RECOG_RESP	n/a	LTP293	ltpFR	3	6	1	COLT	349	n/a	1	n/a	n/a	n/a	n/a	n/a
3948829	RECOG_CONF	n/a	LTP293	ltpFR	3	6	1	COLT	349	4	1	n/a	n/a	n/a	n/a	n/a
3950925	RECOG_TARGET	n/a	LTP293	ltpFR	3	6	0	UNCLE	1536	5	1	n/a	n/a	n/a	n/a	n/a
3951424	RECOG_RESP	n/a	LTP293	ltpFR	3	6	0	UNCLE	1536	n/a	1	n/a	n/a	n/a	n/a	n/a
3952219	RECOG_CONF	n/a	LTP293	ltpFR	3	6	0	UNCLE	1536	5	1	n/a	n/a	n/a	n/a	n/a
3954137	RECOG_LURE	n/a	LTP293	ltpFR	3	6	n/a	TROMBONE	1508	4	n/a	n/a	n/a	n/a	n/a	n/a
3954639	RECOG_RESP	n/a	LTP293	ltpFR	3	6	n/a	TROMBONE	1508	n/a	n/a	n/a	n/a	n/a	n/a	n/a
3955419	RECOG_CONF	n/a	LTP293	ltpFR	3	6	n/a	TROMBONE	1508	4	n/a	n/a	n/a	n/a	n/a	n/a
3957332	RECOG_TARGET	n/a	LTP293	ltpFR	3	6	0	RICE	1190	5	0	n/a	n/a	n/a	n/a	n/a
3957834	RECOG_RESP	n/a	LTP293	ltpFR	3	6	0	RICE	1190	n/a	0	n/a	n/a	n/a	n/a	n/a
3958629	RECOG_CONF	n/a	LTP293	ltpFR	3	6	0	RICE	1190	5	0	n/a	n/a	n/a	n/a	n/a
3960493	RECOG_TARGET	n/a	LTP293	ltpFR	3	6	-1	CLOSET	326	5	-1	n/a	n/a	n/a	n/a	n/a
3961089	RECOG_RESP	n/a	LTP293	ltpFR	3	6	-1	CLOSET	326	n/a	-1	n/a	n/a	n/a	n/a	n/a
3961919	RECOG_CONF	n/a	LTP293	ltpFR	3	6	-1	CLOSET	326	5	-1	n/a	n/a	n/a	n/a	n/a
3963889	RECOG_TARGET	n/a	LTP293	ltpFR	3	6	0	BLUEJAY	141	4	0	n/a	n/a	n/a	n/a	n/a
3964424	RECOG_RESP	n/a	LTP293	ltpFR	3	6	0	BLUEJAY	141	n/a	0	n/a	n/a	n/a	n/a	n/a
3965269	RECOG_CONF	n/a	LTP293	ltpFR	3	6	0	BLUEJAY	141	4	0	n/a	n/a	n/a	n/a	n/a
3967184	RECOG_TARGET	n/a	LTP293	ltpFR	3	6	1	PUDDLE	1140	5	0	n/a	n/a	n/a	n/a	n/a
3967734	RECOG_RESP	n/a	LTP293	ltpFR	3	6	1	PUDDLE	1140	n/a	0	n/a	n/a	n/a	n/a	n/a
3968599	RECOG_CONF	n/a	LTP293	ltpFR	3	6	1	PUDDLE	1140	5	0	n/a	n/a	n/a	n/a	n/a
3970662	RECOG_TARGET	n/a	LTP293	ltpFR	3	6	1	SCALLOP	1242	4	0	n/a	n/a	n/a	n/a	n/a
3971204	RECOG_RESP	n/a	LTP293	ltpFR	3	6	1	SCALLOP	1242	n/a	0	n/a	n/a	n/a	n/a	n/a
3972079	RECOG_CONF	n/a	LTP293	ltpFR	3	6	1	SCALLOP	1242	4	0	n/a	n/a	n/a	n/a	n/a
3973808	RECOG_TARGET	n/a	LTP293	ltpFR	3	6	0	HEEL	700	5	0	n/a	n/a	n/a	n/a	n/a
3974509	RECOG_RESP	n/a	LTP293	ltpFR	3	6	0	HEEL	700	n/a	0	n/a	n/a	n/a	n/a	n/a
3975519	RECOG_CONF	n/a	LTP293	ltpFR	3	6	0	HEEL	700	5	0	n/a	n/a	n/a	n/a	n/a
3977419	RECOG_TARGET	n/a	LTP293	ltpFR	3	6	-1	FRAME	600	5	-1	n/a	n/a	n/a	n/a	n/a
3977989	RECOG_RESP	n/a	LTP293	ltpFR	3	6	-1	FRAME	600	n/a	-1	n/a	n/a	n/a	n/a	n/a
3978929	RECOG_CONF	n/a	LTP293	ltpFR	3	6	-1	FRAME	600	5	-1	n/a	n/a	n/a	n/a	n/a
3980781	RECOG_TARGET	n/a	LTP293	ltpFR	3	6	0	GATE	625	4	1	n/a	n/a	n/a	n/a	n/a
3981314	RECOG_RESP	n/a	LTP293	ltpFR	3	6	0	GATE	625	n/a	1	n/a	n/a	n/a	n/a	n/a
3982269	RECOG_CONF	n/a	LTP293	ltpFR	3	6	0	GATE	625	4	1	n/a	n/a	n/a	n/a	n/a
3984325	RECOG_TARGET	n/a	LTP293	ltpFR	3	6	1	SHRINE	1298	5	0	n/a	n/a	n/a	n/a	n/a
3984969	RECOG_RESP	n/a	LTP293	ltpFR	3	6	1	SHRINE	1298	n/a	0	n/a	n/a	n/a	n/a	n/a
3985879	RECOG_CONF	n/a	LTP293	ltpFR	3	6	1	SHRINE	1298	5	0	n/a	n/a	n/a	n/a	n/a
3987854	RECOG_TARGET	n/a	LTP293	ltpFR	3	6	1	TREE	1502	5	1	n/a	n/a	n/a	n/a	n/a
3988419	RECOG_RESP	n/a	LTP293	ltpFR	3	6	1	TREE	1502	n/a	1	n/a	n/a	n/a	n/a	n/a
3989329	RECOG_CONF	n/a	LTP293	ltpFR	3	6	1	TREE	1502	5	1	n/a	n/a	n/a	n/a	n/a
3991248	RECOG_LURE	n/a	LTP293	ltpFR	3	6	n/a	HANDCUFFS	685	3	n/a	n/a	n/a	n/a	n/a	n/a
3991879	RECOG_RESP	n/a	LTP293	ltpFR	3	6	n/a	HANDCUFFS	685	n/a	n/a	n/a	n/a	n/a	n/a	n/a
3992759	RECOG_CONF	n/a	LTP293	ltpFR	3	6	n/a	HANDCUFFS	685	3	n/a	n/a	n/a	n/a	n/a	n/a
4000201	REC_START	n/a	LTP293	ltpFR	3	7	n/a	n/a	n/a	n/a	n/a	n/a	n/a	n/a	n/a	n/a
4000235	RECOG_TARGET	n/a	LTP293	ltpFR	3	7	0	SHOE	1288	4	0	n/a	n/a	n/a	n/a	n/a
4001011	RECOG_RESP	n/a	LTP293	ltpFR	3	7	0	SHOE	1288	n/a	0	n/a	n/a	n/a	n/a	n/a
4001851	RECOG_CONF	n/a	LTP293	ltpFR	3	7	0	SHOE	1288	4	0	n/a	n/a	n/a	n/a	n/a
4003763	RECOG_TARGET	n/a	LTP293	ltpFR	3	7	0	COLLAR	345	4	0	n/a	n/a	n/a	n/a	n/a
4004526	RECOG_RESP	n/a	LTP293	ltpFR	3	7	0	COLLAR	345	n/a	0	n/a	n/a	n/a	n/a	n/a
4005391	RECOG_CONF	n/a	LTP293	ltpFR	3	7	0	COLLAR	345	4	0	n/a	n/a	n/a	n/a	n/a
4007158	RECOG_LURE	n/a	LTP293	ltpFR	3	7	n/a	JUG	762	2	n/a	n/a	n/a	n/a	n/a	n/a
4007776	RECOG_RESP	n/a	LTP293	ltpFR	3	7	n/a	JUG	762	n/a	n/a	n/a	n/a	n/a	n/a	n/a
4008591	RECOG_CONF	n/a	LTP293	ltpFR	3	7	n/a	JUG	762	2	n/a	n/a	n/a	n/a	n/a	n/a
4010370	RECOG_TARGET	n/a	LTP293	ltpFR	3	7	0	LAMB	797	5	1	n/a	n/a	n/a	n/a	n/a
4010976	RECOG_RESP	n/a	LTP293	ltpFR	3	7	0	LAMB	797	n/a	1	n/a	n/a	n/a	n/a	n/a
4011721	RECOG_CONF	n/a	LTP293	ltpFR	3	7	0	LAMB	797	5	1	n/a	n/a	n/a	n/a	n/a
4013581	RECOG_LURE	n/a	LTP293	ltpFR	3	7	n/a	SAILOR	1223	4	n/a	n/a	n/a	n/a	n/a	n/a
4014166	RECOG_RESP	n/a	LTP293	ltpFR	3	7	n/a	SAILOR	1223	n/a	n/a	n/a	n/a	n/a	n/a	n/a
4014961	RECOG_CONF	n/a	LTP293	ltpFR	3	7	n/a	SAILOR	1223	4	n/a	n/a	n/a	n/a	n/a	n/a
4016777	RECOG_LURE	n/a	LTP293	ltpFR	3	7	n/a	FLASHLIGHT	575	2	n/a	n/a	n/a	n/a	n/a	n/a
4017526	RECOG_RESP	n/a	LTP293	ltpFR	3	7	n/a	FLASHLIGHT	575	n/a	n/a	n/a	n/a	n/a	n/a	n/a
4018341	RECOG_CONF	n/a	LTP293	ltpFR	3	7	n/a	FLASHLIGHT	575	2	n/a	n/a	n/a	n/a	n/a	n/a
4019956	RECOG_TARGET	n/a	LTP293	ltpFR	3	7	0	KETCHUP	771	5	0	n/a	n/a	n/a	n/a	n/a
4020531	RECOG_RESP	n/a	LTP293	ltpFR	3	7	0	KETCHUP	771	n/a	0	n/a	n/a	n/a	n/a	n/a
4021351	RECOG_CONF	n/a	LTP293	ltpFR	3	7	0	KETCHUP	771	5	0	n/a	n/a	n/a	n/a	n/a
4023267	RECOG_TARGET	n/a	LTP293	ltpFR	3	7	0	OLIVE	975	4	0	n/a	n/a	n/a	n/a	n/a
4023796	RECOG_RESP	n/a	LTP293	ltpFR	3	7	0	OLIVE	975	n/a	0	n/a	n/a	n/a	n/a	n/a
4024641	RECOG_CONF	n/a	LTP293	ltpFR	3	7	0	OLIVE	975	4	0	n/a	n/a	n/a	n/a	n/a
4026595	RECOG_TARGET	n/a	LTP293	ltpFR	3	7	0	APPENDAGE	32	3	0	n/a	n/a	n/a	n/a	n/a
4027426	RECOG_RESP	n/a	LTP293	ltpFR	3	7	0	APPENDAGE	32	n/a	0	n/a	n/a	n/a	n/a	n/a
4028231	RECOG_CONF	n/a	LTP293	ltpFR	3	7	0	APPENDAGE	32	3	0	n/a	n/a	n/a	n/a	n/a
4030190	RECOG_TARGET	n/a	LTP293	ltpFR	3	7	0	AUTOMOBILE	62	2	1	n/a	n/a	n/a	n/a	n/a
4030691	RECOG_RESP	n/a	LTP293	ltpFR	3	7	0	AUTOMOBILE	62	n/a	1	n/a	n/a	n/a	n/a	n/a
4031531	RECOG_CONF	n/a	LTP293	ltpFR	3	7	0	AUTOMOBILE	62	2	1	n/a	n/a	n/a	n/a	n/a
4033369	RECOG_LURE	n/a	LTP293	ltpFR	3	7	n/a	HOUSE	725	4	n/a	n/a	n/a	n/a	n/a	n/a
4033966	RECOG_RESP	n/a	LTP293	ltpFR	3	7	n/a	HOUSE	725	n/a	n/a	n/a	n/a	n/a	n/a	n/a
4034841	RECOG_CONF	n/a	LTP293	ltpFR	3	7	n/a	HOUSE	725	4	n/a	n/a	n/a	n/a	n/a	n/a
4036546	RECOG_LURE	n/a	LTP293	ltpFR	3	7	n/a	TOOTH	1481	3	n/a	n/a	n/a	n/a	n/a	n/a
4037221	RECOG_RESP	n/a	LTP293	ltpFR	3	7	n/a	TOOTH	1481	n/a	n/a	n/a	n/a	n/a	n/a	n/a
4038091	RECOG_CONF	n/a	LTP293	ltpFR	3	7	n/a	TOOTH	1481	3	n/a	n/a	n/a	n/a	n/a	n/a
4039909	RECOG_LURE	n/a	LTP293	ltpFR	3	7	n/a	NEWSPAPER	948	4	n/a	n/a	n/a	n/a	n/a	n/a
4040591	RECOG_RESP	n/a	LTP293	ltpFR	3	7	n/a	NEWSPAPER	948	n/a	n/a	n/a	n/a	n/a	n/a	n/a
4041371	RECOG_CONF	n/a	LTP293	ltpFR	3	7	n/a	NEWSPAPER	948	4	n/a	n/a	n/a	n/a	n/a	n/a
4043171	RECOG_TARGET	n/a	LTP293	ltpFR	3	7	1	ATTORNEY	58	5	1	n/a	n/a	n/a	n/a	n/a
4043751	RECOG_RESP	n/a	LTP293	ltpFR	3	7	1	ATTORNEY	58	n/a	1	n/a	n/a	n/a	n/a	n/a
4044661	RECOG_CONF	n/a	LTP293	ltpFR	3	7	1	ATTORNEY	58	5	1	n/a	n/a	n/a	n/a	n/a
4046666	RECOG_TARGET	n/a	LTP293	ltpFR	3	7	1	MICROWAVE	892	4	0	n/a	n/a	n/a	n/a	n/a
4047196	RECOG_RESP	n/a	LTP293	ltpFR	3	7	1	MICROWAVE	892	n/a	0	n/a	n/a	n/a	n/a	n/a
4048061	RECOG_CONF	n/a	LTP293	ltpFR	3	7	1	MICROWAVE	892	4	0	n/a	n/a	n/a	n/a	n/a
4050227	RECOG_TARGET	n/a	LTP293	ltpFR	3	7	0	ROOSTER	1209	1	0	n/a	n/a	n/a	n/a	n/a
4050851	RECOG_RESP	n/a	LTP293	ltpFR	3	7	0	ROOSTER	1209	n/a	0	n/a	n/a	n/a	n/a	n/a
4051801	RECOG_CONF	n/a	LTP293	ltpFR	3	7	0	ROOSTER	1209	1	0	n/a	n/a	n/a	n/a	n/a
4053554	RECOG_TARGET	n/a	LTP293	ltpFR	3	7	0	NERVE	944	2	0	n/a	n/a	n/a	n/a	n/a
4054411	RECOG_RESP	n/a	LTP293	ltpFR	3	7	0	NERVE	944	n/a	0	n/a	n/a	n/a	n/a	n/a
4055361	RECOG_CONF	n/a	LTP293	ltpFR	3	7	0	NERVE	944	2	0	n/a	n/a	n/a	n/a	n/a
4057167	RECOG_TARGET	n/a	LTP293	ltpFR	3	7	0	TUNA	1518	4	1	n/a	n/a	n/a	n/a	n/a
4057701	RECOG_RESP	n/a	LTP293	ltpFR	3	7	0	TUNA	1518	n/a	1	n/a	n/a	n/a	n/a	n/a
4058681	RECOG_CONF	n/a	LTP293	ltpFR	3	7	0	TUNA	1518	4	1	n/a	n/a	n/a	n/a	n/a
4060627	RECOG_TARGET	n/a	LTP293	ltpFR	3	7	0	MICROSCOPE	891	3	0	n/a	n/a	n/a	n/a	n/a
4061166	RECOG_RESP	n/a	LTP293	ltpFR	3	7	0	MICROSCOPE	891	n/a	0	n/a	n/a	n/a	n/a	n/a
4062161	RECOG_CONF	n/a	LTP293	ltpFR	3	7	0	MICROSCOPE	891	3	0	n/a	n/a	n/a	n/a	n/a
4064073	RECOG_TARGET	n/a	LTP293	ltpFR	3	7	-1	HEDGE	699	2	-1	n/a	n/a	n/a	n/a	n/a
4064496	RECOG_RESP	n/a	LTP293	ltpFR	3	7	-1	HEDGE	699	n/a	-1	n/a	n/a	n/a	n/a	n/a
4065481	RECOG_CONF	n/a	LTP293	ltpFR	3	7	-1	HEDGE	699	2	-1	n/a	n/a	n/a	n/a	n/a
4101798	REC_START	n/a	LTP293	ltpFR	3	8	n/a	n/a	n/a	n/a	n/a	n/a	n/a	n/a	n/a	n/a
4101833	RECOG_TARGET	n/a	LTP293	ltpFR	3	8	0	BANNER	85	5	1	n/a	n/a	n/a	n/a	n/a
4102563	RECOG_RESP	n/a	LTP293	ltpFR	3	8	0	BANNER	85	n/a	1	n/a	n/a	n/a	n/a	n/a
4103438	RECOG_CONF	n/a	LTP293	ltpFR	3	8	0	BANNER	85	5	1	n/a	n/a	n/a	n/a	n/a
4104945	RECOG_TARGET	n/a	LTP293	ltpFR	3	8	-1	CONCRETE	361	4	-1	n/a	n/a	n/a	n/a	n/a
4105433	RECOG_RESP	n/a	LTP293	ltpFR	3	8	-1	CONCRETE	361	n/a	-1	n/a	n/a	n/a	n/a	n/a
4106238	RECOG_CONF	n/a	LTP293	ltpFR	3	8	-1	CONCRETE	361	4	-1	n/a	n/a	n/a	n/a	n/a
4108107	RECOG_LURE	n/a	LTP293	ltpFR	3	8	n/a	DRILL	497	4	n/a	n/a	n/a	n/a	n/a	n/a
4108718	RECOG_RESP	n/a	LTP293	ltpFR	3	8	n/a	DRILL	497	n/a	n/a	n/a	n/a	n/a	n/a	n/a
4109618	RECOG_CONF	n/a	LTP293	ltpFR	3	8	n/a	DRILL	497	4	n/a	n/a	n/a	n/a	n/a	n/a
4111302	RECOG_LURE	n/a	LTP293	ltpFR	3	8	n/a	WEB	1598	3	n/a	n/a	n/a	n/a	n/a	n/a
4111843	RECOG_RESP	n/a	LTP293	ltpFR	3	8	n/a	WEB	1598	n/a	n/a	n/a	n/a	n/a	n/a	n/a
4112678	RECOG_CONF	n/a	LTP293	ltpFR	3	8	n/a	WEB	1598	3	n/a	n/a	n/a	n/a	n/a	n/a
4114563	RECOG_TARGET	n/a	LTP293	ltpFR	3	8	1	DICTATOR	462	4	1	n/a	n/a	n/a	n/a	n/a
4115073	RECOG_RESP	n/a	LTP293	ltpFR	3	8	1	DICTATOR	462	n/a	1	n/a	n/a	n/a	n/a	n/a
4115908	RECOG_CONF	n/a	LTP293	ltpFR	3	8	1	DICTATOR	462	4	1	n/a	n/a	n/a	n/a	n/a
4117793	RECOG_TARGET	n/a	LTP293	ltpFR	3	8	0	PIZZA	1079	4	1	n/a	n/a	n/a	n/a	n/a
4118308	RECOG_RESP	n/a	LTP293	ltpFR	3	8	0	PIZZA	1079	n/a	1	n/a	n/a	n/a	n/a	n/a
4119218	RECOG_CONF	n/a	LTP293	ltpFR	3	8	0	PIZZA	1079	4	1	n/a	n/a	n/a	n/a	n/a
4121055	RECOG_TARGET	n/a	LTP293	ltpFR	3	8	-1	PELT	1040	5	-1	n/a	n/a	n/a	n/a	n/a
4121823	RECOG_RESP	n/a	LTP293	ltpFR	3	8	-1	PELT	1040	n/a	-1	n/a	n/a	n/a	n/a	n/a
4122648	RECOG_CONF	n/a	LTP293	ltpFR	3	8	-1	PELT	1040	5	-1	n/a	n/a	n/a	n/a	n/a
4124582	RECOG_TARGET	n/a	LTP293	ltpFR	3	8	1	ATMOSPHERE	54	4	0	n/a	n/a	n/a	n/a	n/a
4125263	RECOG_RESP	n/a	LTP293	ltpFR	3	8	1	ATMOSPHERE	54	n/a	0	n/a	n/a	n/a	n/a	n/a
4126048	RECOG_CONF	n/a	LTP293	ltpFR	3	8	1	ATMOSPHERE	54	4	0	n/a	n/a	n/a	n/a	n/a
4128011	RECOG_TARGET	n/a	LTP293	ltpFR	3	8	0	FAUCET	555	4	0	n/a	n/a	n/a	n/a	n/a
4128543	RECOG_RESP	n/a	LTP293	ltpFR	3	8	0	FAUCET	555	n/a	0	n/a	n/a	n/a	n/a	n/a
4129398	RECOG_CONF	n/a	LTP293	ltpFR	3	8	0	FAUCET	555	4	0	n/a	n/a	n/a	n/a	n/a
4131406	RECOG_TARGET	n/a	LTP293	ltpFR	3	8	1	INVENTOR	743	3	1	n/a	n/a	n/a	n/a	n/a
4132153	RECOG_RESP_VV	n/a	LTP293	ltpFR	3	8	1	INVENTOR	743	n/a	1	n/a	n/a	n/a	n/a	n/a
4132783	RECOG_RESP	n/a	LTP293	ltpFR	3	8	1	INVENTOR	743	n/a	1	n/a	n/a	n/a	n/a	n/a
4133728	RECOG_CONF	n/a	LTP293	ltpFR	3	8	1	INVENTOR	743	3	1	n/a	n/a	n/a	n/a	n/a
4135532	RECOG_TARGET	n/a	LTP293	ltpFR	3	8	0	BANJO	82	5	1	n/a	n/a	n/a	n/a	n/a
4136038	RECOG_RESP	n/a	LTP293	ltpFR	3	8	0	BANJO	82	n/a	1	n/a	n/a	n/a	n/a	n/a
4136888	RECOG_CONF	n/a	LTP293	ltpFR	3	8	0	BANJO	82	5	1	n/a	n/a	n/a	n/a	n/a
4138878	RECOG_TARGET	n/a	LTP293	ltpFR	3	8	-1	FOREHEAD	592	5	-1	n/a	n/a	n/a	n/a	n/a
4139358	RECOG_RESP	n/a	LTP293	ltpFR	3	8	-1	FOREHEAD	592	n/a	-1	n/a	n/a	n/a	n/a	n/a
4140318	RECOG_CONF	n/a	LTP293	ltpFR	3	8	-1	FOREHEAD	592	5	-1	n/a	n/a	n/a	n/a	n/a
4142173	RECOG_TARGET	n/a	LTP293	ltpFR	3	8	0	ATLAS	53	5	1	n/a	n/a	n/a	n/a	n/a
4142688	RECOG_RESP	n/a	LTP293	ltpFR	3	8	0	ATLAS	53	n/a	1	n/a	n/a	n/a	n/a	n/a
4143558	RECOG_CONF	n/a	LTP293	ltpFR	3	8	0	ATLAS	53	5	1	n/a	n/a	n/a	n/a	n/a
4145452	RECOG_LURE	n/a	LTP293	ltpFR	3	8	n/a	STRAW	1390	1	n/a	n/a	n/a	n/a	n/a	n/a
4146008	RECOG_RESP	n/a	LTP293	ltpFR	3	8	n/a	STRAW	1390	n/a	n/a	n/a	n/a	n/a	n/a	n/a
4147348	RECOG_CONF	n/a	LTP293	ltpFR	3	8	n/a	STRAW	1390	1	n/a	n/a	n/a	n/a	n/a	n/a
4149213	RECOG_LURE	n/a	LTP293	ltpFR	3	8	n/a	CAGE	218	2	n/a	n/a	n/a	n/a	n/a	n/a
4149913	RECOG_RESP	n/a	LTP293	ltpFR	3	8	n/a	CAGE	218	n/a	n/a	n/a	n/a	n/a	n/a	n/a
4151068	RECOG_CONF	n/a	LTP293	ltpFR	3	8	n/a	CAGE	218	2	n/a	n/a	n/a	n/a	n/a	n/a
4152990	RECOG_TARGET	n/a	LTP293	ltpFR	3	8	0	MAILBOX	857	4	1	n/a	n/a	n/a	n/a	n/a
4153508	RECOG_RESP	n/a	LTP293	ltpFR	3	8	0	MAILBOX	857	n/a	1	n/a	n/a	n/a	n/a	n/a
4154448	RECOG_CONF	n/a	LTP293	ltpFR	3	8	0	MAILBOX	857	4	1	n/a	n/a	n/a	n/a	n/a
4156285	RECOG_TARGET	n/a	LTP293	ltpFR	3	8	1	TULIP	1517	5	0	n/a	n/a	n/a	n/a	n/a
4156823	RECOG_RESP	n/a	LTP293	ltpFR	3	8	1	TULIP	1517	n/a	0	n/a	n/a	n/a	n/a	n/a
4157728	RECOG_CONF	n/a	LTP293	ltpFR	3	8	1	TULIP	1517	5	0	n/a	n/a	n/a	n/a	n/a
4159464	RECOG_TARGET	n/a	LTP293	ltpFR	3	8	-1	CHEERLEADER	288	3	-1	n/a	n/a	n/a	n/a	n/a
4160083	RECOG_RESP	n/a	LTP293	ltpFR	3	8	-1	CHEERLEADER	288	n/a	-1	n/a	n/a	n/a	n/a	n/a
4160988	RECOG_CONF	n/a	LTP293	ltpFR	3	8	-1	CHEERLEADER	288	3	-1	n/a	n/a	n/a	n/a	n/a
4162892	RECOG_LURE	n/a	LTP293	ltpFR	3	8	n/a	SLOPE	1328	2	n/a	n/a	n/a	n/a	n/a	n/a
4163438	RECOG_RESP	n/a	LTP293	ltpFR	3	8	n/a	SLOPE	1328	n/a	n/a	n/a	n/a	n/a	n/a	n/a
4164473	RECOG_CONF	n/a	LTP293	ltpFR	3	8	n/a	SLOPE	1328	2	n/a	n/a	n/a	n/a	n/a	n/a
4166254	RECOG_TARGET	n/a	LTP293	ltpFR	3	8	-1	HAMPER	682	1	-1	n/a	n/a	n/a	n/a	n/a
4167013	RECOG_RESP	n/a	LTP293	ltpFR	3	8	-1	HAMPER	682	n/a	-1	n/a	n/a	n/a	n/a	n/a
4167848	RECOG_CONF	n/a	LTP293	ltpFR	3	8	-1	HAMPER	682	1	-1	n/a	n/a	n/a	n/a	n/a
4185744	REC_START	n/a	LTP293	ltpFR	3	9	n/a	n/a	n/a	n/a	n/a	n/a	n/a	n/a	n/a	n/a
4185775	RECOG_TARGET	n/a	LTP293	ltpFR	3	9	-1	DRYER	503	4	-1	n/a	n/a	n/a	n/a	n/a
4186569	RECOG_RESP	n/a	LTP293	ltpFR	3	9	-1	DRYER	503	n/a	-1	n/a	n/a	n/a	n/a	n/a
4187424	RECOG_CONF	n/a	LTP293	ltpFR	3	9	-1	DRYER	503	4	-1	n/a	n/a	n/a	n/a	n/a
4189186	RECOG_TARGET	n/a	LTP293	ltpFR	3	9	1	SCAPEGOAT	1244	5	1	n/a	n/a	n/a	n/a	n/a
4189719	RECOG_RESP	n/a	LTP293	ltpFR	3	9	1	SCAPEGOAT	1244	n/a	1	n/a	n/a	n/a	n/a	n/a
4190534	RECOG_CONF	n/a	LTP293	ltpFR	3	9	1	SCAPEGOAT	1244	5	1	n/a	n/a	n/a	n/a	n/a
4192365	RECOG_TARGET	n/a	LTP293	ltpFR	3	9	1	PIKE	1067	4	1	n/a	n/a	n/a	n/a	n/a
4192894	RECOG_RESP	n/a	LTP293	ltpFR	3	9	1	PIKE	1067	n/a	1	n/a	n/a	n/a	n/a	n/a
4193704	RECOG_CONF	n/a	LTP293	ltpFR	3	9	1	PIKE	1067	4	1	n/a	n/a	n/a	n/a	n/a
4195493	RECOG_TARGET	n/a	LTP293	ltpFR	3	9	0	TIDE	1465	5	0	n/a	n/a	n/a	n/a	n/a
4196039	RECOG_RESP	n/a	LTP293	ltpFR	3	9	0	TIDE	1465	n/a	0	n/a	n/a	n/a	n/a	n/a
4196904	RECOG_CONF	n/a	LTP293	ltpFR	3	9	0	TIDE	1465	5	0	n/a	n/a	n/a	n/a	n/a
4198755	RECOG_LURE	n/a	LTP293	ltpFR	3	9	n/a	SKUNK	1321	4	n/a	n/a	n/a	n/a	n/a	n/a
4199519	RECOG_RESP	n/a	LTP293	ltpFR	3	9	n/a	SKUNK	1321	n/a	n/a	n/a	n/a	n/a	n/a	n/a
4200324	RECOG_CONF	n/a	LTP293	ltpFR	3	9	n/a	SKUNK	1321	4	n/a	n/a	n/a	n/a	n/a	n/a
4202134	RECOG_TARGET	n/a	LTP293	ltpFR	3	9	-1	BRANCH	168	3	-1	n/a	n/a	n/a	n/a	n/a
4202684	RECOG_RESP	n/a	LTP293	ltpFR	3	9	-1	BRANCH	168	n/a	-1	n/a	n/a	n/a	n/a	n/a
4203524	RECOG_CONF	n/a	LTP293	ltpFR	3	9	-1	BRANCH	168	3	-1	n/a	n/a	n/a	n/a	n/a
4205362	RECOG_TARGET	n/a	LTP293	ltpFR	3	9	-1	REPORT	1184	4	-1	n/a	n/a	n/a	n/a	n/a
4206049	RECOG_RESP_VV	n/a	LTP293	ltpFR	3	9	-1	REPORT	1184	n/a	-1	n/a	n/a	n/a	n/a	n/a
4206764	RECOG_RESP	n/a	LTP293	ltpFR	3	9	-1	REPORT	1184	n/a	-1	n/a	n/a	n/a	n/a	n/a
4207584	RECOG_CONF	n/a	LTP293	ltpFR	3	9	-1	REPORT	1184	4	-1	n/a	n/a	n/a	n/a	n/a
4209373	RECOG_TARGET	n/a	LTP293	ltpFR	3	9	0	PUBLICATION	1136	4	2	n/a	n/a	n/a	n/a	n/a
4210004	RECOG_RESP	n/a	LTP293	ltpFR	3	9	0	PUBLICATION	1136	n/a	2	n/a	n/a	n/a	n/a	n/a
4210844	RECOG_CONF	n/a	LTP293	ltpFR	3	9	0	PUBLICATION	1136	4	2	n/a	n/a	n/a	n/a	n/a
4212751	RECOG_TARGET	n/a	LTP293	ltpFR	3	9	1	RASPBERRY	1168	5	0	n/a	n/a	n/a	n/a	n/a
4213319	RECOG_RESP	n/a	LTP293	ltpFR	3	9	1	RASPBERRY	1168	n/a	0	n/a	n/a	n/a	n/a	n/a
4214104	RECOG_CONF	n/a	LTP293	ltpFR	3	9	1	RASPBERRY	1168	5	0	n/a	n/a	n/a	n/a	n/a
4216063	RECOG_TARGET	n/a	LTP293	ltpFR	3	9	1	PUPPY	1144	4	1	n/a	n/a	n/a	n/a	n/a
