mstime	trial_type	stim_file	subject	experiment	session	trial	task	item_name	item_num	recog_conf	resp	color_b	color_g	color_r	case	font
0	SESS_START	n/a	LTP111	ltpFR	15	n/a	n/a	n/a	n/a	n/a	n/a	n/a	n/a	n/a	n/a	n/a
50847	WORD	wordpools/wasnorm_wordpool.txt	LTP111	ltpFR	15	1	0	TROUT	1511	n/a	0	0	0.5869140625	0.422607421875	lower	../fonts/amplitud.ttf
55018	WORD	wordpools/wasnorm_wordpool.txt	LTP111	ltpFR	15	1	0	WATER	1594	n/a	0	0	0.5869140625	0.422607421875	lower	../fonts/amplitud.ttf
59096	WORD	wordpools/wasnorm_wordpool.txt	LTP111	ltpFR	15	1	1	MINER	896	n/a	1	1	0.412841796875	0.57763671875	upper	../fonts/zerothre.ttf
63234	WORD	wordpools/wasnorm_wordpool.txt	LTP111	ltpFR	15	1	1	REEF	1177	n/a	3	1	0.412841796875	0.57763671875	upper	../fonts/zerothre.ttf
65014	KEY_MSG	n/a	LTP111	ltpFR	15	1	n/a	n/a	n/a	n/a	n/a	n/a	n/a	n/a	n/a	n/a
67353	WORD	wordpools/wasnorm_wordpool.txt	LTP111	ltpFR	15	1	1	CARPET	247	n/a	0	1	0.412841796875	0.57763671875	upper	../fonts/zerothre.ttf
71415	WORD	wordpools/wasnorm_wordpool.txt	LTP111	ltpFR	15	1	1	ANT	25	n/a	1	1	0.412841796875	0.57763671875	upper	../fonts/zerothre.ttf
75287	WORD	wordpools/wasnorm_wordpool.txt	LTP111	ltpFR	15	1	0	BUG	187	n/a	0	0	0.5869140625	0.422607421875	lower	../fonts/amplitud.ttf
79148	WORD	wordpools/wasnorm_wordpool.txt	LTP111	ltpFR	15	1	0	CITRUS	313	n/a	0	0	0.5869140625	0.422607421875	lower	../fonts/amplitud.ttf
83127	WORD	wordpools/wasnorm_wordpool.txt	LTP111	ltpFR	15	1	0	JELLO	754	n/a	0	0	0.5869140625	0.422607421875	lower	../fonts/amplitud.ttf
87273	WORD	wordpools/wasnorm_wordpool.txt	LTP111	ltpFR	15	1	1	DESSERT	453	n/a	0	1	0.412841796875	0.57763671875	upper	../fonts/zerothre.ttf
91243	WORD	wordpools/wasnorm_wordpool.txt	LTP111	ltpFR	15	1	1	FLESH	579	n/a	1	1	0.412841796875	0.57763671875	upper	../fonts/zerothre.ttf
95312	WORD	wordpools/wasnorm_wordpool.txt	LTP111	ltpFR	15	1	1	SCRIBBLE	1256	n/a	1	1	0.412841796875	0.57763671875	upper	../fonts/zerothre.ttf
99301	WORD	wordpools/wasnorm_wordpool.txt	LTP111	ltpFR	15	1	1	BLACKBOARD	133	n/a	0	1	0.412841796875	0.57763671875	upper	../fonts/zerothre.ttf
103428	WORD	wordpools/wasnorm_wordpool.txt	LTP111	ltpFR	15	1	0	CRAYON	401	n/a	0	0	0.5869140625	0.422607421875	lower	../fonts/amplitud.ttf
107357	WORD	wordpools/wasnorm_wordpool.txt	LTP111	ltpFR	15	1	0	CEILING	265	n/a	1	0	0.5869140625	0.422607421875	lower	../fonts/amplitud.ttf
111186	WORD	wordpools/wasnorm_wordpool.txt	LTP111	ltpFR	15	1	0	PIRATE	1074	n/a	0	0	0.5869140625	0.422607421875	lower	../fonts/amplitud.ttf
116897	REC_START	n/a	LTP111	ltpFR	15	1	n/a	n/a	n/a	n/a	n/a	n/a	n/a	n/a	n/a	n/a
119057	REC_WORD	wordpools/wasnorm_wordpool.txt	LTP111	ltpFR	15	1	0	TROUT	1511	n/a	0	n/a	n/a	n/a	n/a	n/a
120154	REC_WORD	wordpools/wasnorm_wordpool.txt	LTP111	ltpFR	15	1	0	WATER	1594	n/a	0	n/a	n/a	n/a	n/a	n/a
122115	REC_WORD	wordpools/wasnorm_wordpool.txt	LTP111	ltpFR	15	1	1	MINER	896	n/a	1	n/a	n/a	n/a	n/a	n/a
124205	REC_WORD	wordpools/wasnorm_wordpool.txt	LTP111	ltpFR	15	1	1	REEF	1177	n/a	3	n/a	n/a	n/a	n/a	n/a
128361	REC_WORD	wordpools/wasnorm_wordpool.txt	LTP111	ltpFR	15	1	1	ANT	25	n/a	1	n/a	n/a	n/a	n/a	n/a
130037	REC_WORD	wordpools/wasnorm_wordpool.txt	LTP111	ltpFR	15	1	0	BUG	187	n/a	0	n/a	n/a	n/a	n/a	n/a
131837	REC_WORD	wordpools/wasnorm_wordpool.txt	LTP111	ltpFR	15	1	0	CEILING	265	n/a	1	n/a	n/a	n/a	n/a	n/a
135784	REC_WORD	wordpools/wasnorm_wordpool.txt	LTP111	ltpFR	15	1	1	BLACKBOARD	133	n/a	0	n/a	n/a	n/a	n/a	n/a
136586	REC_WORD	wordpools/wasnorm_wordpool.txt	LTP111	ltpFR	15	1	1	SCRIBBLE	1256	n/a	1	n/a	n/a	n/a	n/a	n/a
137959	REC_WORD	wordpools/wasnorm_wordpool.txt	LTP111	ltpFR	15	1	0	CRAYON	401	n/a	0	n/a	n/a	n/a	n/a	n/a
140767	REC_WORD	wordpools/wasnorm_wordpool.txt	LTP111	ltpFR	15	1	1	DESSERT	453	n/a	0	n/a	n/a	n/a	n/a	n/a
142678	REC_WORD	wordpools/wasnorm_wordpool.txt	LTP111	ltpFR	15	1	0	JELLO	754	n/a	0	n/a	n/a	n/a	n/a	n/a
204086	WORD	wordpools/wasnorm_wordpool.txt	LTP111	ltpFR	15	2	1	MONARCH	906	n/a	1	1	0.412841796875	0.57763671875	upper	../fonts/zerothre.ttf
208274	WORD	wordpools/wasnorm_wordpool.txt	LTP111	ltpFR	15	2	1	COB	334	n/a	1	1	0.412841796875	0.57763671875	upper	../fonts/zerothre.ttf
212219	WORD	wordpools/wasnorm_wordpool.txt	LTP111	ltpFR	15	2	0	DAM	436	n/a	0	0	0.5869140625	0.422607421875	lower	../fonts/amplitud.ttf
216222	WORD	wordpools/wasnorm_wordpool.txt	LTP111	ltpFR	15	2	0	MUSHROOM	934	n/a	0	0	0.5869140625	0.422607421875	lower	../fonts/amplitud.ttf
220159	WORD	wordpools/wasnorm_wordpool.txt	LTP111	ltpFR	15	2	1	COLESLAW	344	n/a	0	1	0.412841796875	0.57763671875	upper	../fonts/zerothre.ttf
224005	WORD	wordpools/wasnorm_wordpool.txt	LTP111	ltpFR	15	2	1	RAISIN	1163	n/a	0	1	0.412841796875	0.57763671875	upper	../fonts/zerothre.ttf
228192	WORD	wordpools/wasnorm_wordpool.txt	LTP111	ltpFR	15	2	0	SUSPECT	1415	n/a	0	0	0.5869140625	0.422607421875	lower	../fonts/amplitud.ttf
232129	WORD	wordpools/wasnorm_wordpool.txt	LTP111	ltpFR	15	2	0	CRIMINAL	409	n/a	0	0	0.5869140625	0.422607421875	lower	../fonts/amplitud.ttf
236116	WORD	wordpools/wasnorm_wordpool.txt	LTP111	ltpFR	15	2	0	ROBE	1198	n/a	0	0	0.5869140625	0.422607421875	lower	../fonts/amplitud.ttf
240270	WORD	wordpools/wasnorm_wordpool.txt	LTP111	ltpFR	15	2	0	CAVITY	264	n/a	0	0	0.5869140625	0.422607421875	lower	../fonts/amplitud.ttf
244307	WORD	wordpools/wasnorm_wordpool.txt	LTP111	ltpFR	15	2	0	CACTUS	215	n/a	0	0	0.5869140625	0.422607421875	lower	../fonts/amplitud.ttf
248135	WORD	wordpools/wasnorm_wordpool.txt	LTP111	ltpFR	15	2	0	MOSS	918	n/a	0	0	0.5869140625	0.422607421875	lower	../fonts/amplitud.ttf
252232	WORD	wordpools/wasnorm_wordpool.txt	LTP111	ltpFR	15	2	1	BATH	98	n/a	0	1	0.412841796875	0.57763671875	upper	../fonts/zerothre.ttf
256134	WORD	wordpools/wasnorm_wordpool.txt	LTP111	ltpFR	15	2	1	CHARCOAL	281	n/a	0	1	0.412841796875	0.57763671875	upper	../fonts/zerothre.ttf
260272	WORD	wordpools/wasnorm_wordpool.txt	LTP111	ltpFR	15	2	1	SAUCER	1237	n/a	0	1	0.412841796875	0.57763671875	upper	../fonts/zerothre.ttf
264317	WORD	wordpools/wasnorm_wordpool.txt	LTP111	ltpFR	15	2	1	LAGOON	795	n/a	0	1	0.412841796875	0.57763671875	upper	../fonts/zerothre.ttf
270111	REC_START	n/a	LTP111	ltpFR	15	2	n/a	n/a	n/a	n/a	n/a	n/a	n/a	n/a	n/a	n/a
271792	REC_WORD	wordpools/wasnorm_wordpool.txt	LTP111	ltpFR	15	2	1	MONARCH	906	n/a	1	n/a	n/a	n/a	n/a	n/a
275818	REC_WORD	wordpools/wasnorm_wordpool.txt	LTP111	ltpFR	15	2	0	DAM	436	n/a	0	n/a	n/a	n/a	n/a	n/a
277119	REC_WORD	wordpools/wasnorm_wordpool.txt	LTP111	ltpFR	15	2	0	SUSPECT	1415	n/a	0	n/a	n/a	n/a	n/a	n/a
279000	REC_WORD	wordpools/wasnorm_wordpool.txt	LTP111	ltpFR	15	2	0	CRIMINAL	409	n/a	0	n/a	n/a	n/a	n/a	n/a
282423	REC_WORD	wordpools/wasnorm_wordpool.txt	LTP111	ltpFR	15	2	0	MUSHROOM	934	n/a	0	n/a	n/a	n/a	n/a	n/a
284897	REC_WORD	wordpools/wasnorm_wordpool.txt	LTP111	ltpFR	15	2	1	COB	334	n/a	1	n/a	n/a	n/a	n/a	n/a
287900	REC_WORD	wordpools/wasnorm_wordpool.txt	LTP111	ltpFR	15	2	1	RAISIN	1163	n/a	0	n/a	n/a	n/a	n/a	n/a
291352	REC_WORD	wordpools/wasnorm_wordpool.txt	LTP111	ltpFR	15	2	1	SAUCER	1237	n/a	0	n/a	n/a	n/a	n/a	n/a
298241	REC_WORD	wordpools/wasnorm_wordpool.txt	LTP111	ltpFR	15	2	1	LAGOON	795	n/a	0	n/a	n/a	n/a	n/a	n/a
300921	REC_WORD	wordpools/wasnorm_wordpool.txt	LTP111	ltpFR	15	2	1	BATH	98	n/a	0	n/a	n/a	n/a	n/a	n/a
303190	REC_WORD	wordpools/wasnorm_wordpool.txt	LTP111	ltpFR	15	2	1	CHARCOAL	281	n/a	0	n/a	n/a	n/a	n/a	n/a
365041	WORD	wordpools/wasnorm_wordpool.txt	LTP111	ltpFR	15	3	1	THIGH	1457	n/a	1	1	0.412841796875	0.57763671875	upper	../fonts/zerothre.ttf
369103	WORD	wordpools/wasnorm_wordpool.txt	LTP111	ltpFR	15	3	1	LAWN	805	n/a	0	1	0.412841796875	0.57763671875	upper	../fonts/zerothre.ttf
373315	WORD	wordpools/wasnorm_wordpool.txt	LTP111	ltpFR	15	3	1	STUMP	1396	n/a	0	1	0.412841796875	0.57763671875	upper	../fonts/zerothre.ttf
377452	WORD	wordpools/wasnorm_wordpool.txt	LTP111	ltpFR	15	3	1	PEAR	1033	n/a	1	1	0.412841796875	0.57763671875	upper	../fonts/zerothre.ttf
381456	WORD	wordpools/wasnorm_wordpool.txt	LTP111	ltpFR	15	3	1	THREAD	1460	n/a	0	1	0.412841796875	0.57763671875	upper	../fonts/zerothre.ttf
385651	WORD	wordpools/wasnorm_wordpool.txt	LTP111	ltpFR	15	3	1	PEDESTRIAN	1038	n/a	1	1	0.412841796875	0.57763671875	upper	../fonts/zerothre.ttf
389763	WORD	wordpools/wasnorm_wordpool.txt	LTP111	ltpFR	15	3	1	RUBY	1214	n/a	0	1	0.412841796875	0.57763671875	upper	../fonts/zerothre.ttf
393783	WORD	wordpools/wasnorm_wordpool.txt	LTP111	ltpFR	15	3	1	RING	1193	n/a	0	1	0.412841796875	0.57763671875	upper	../fonts/zerothre.ttf
397953	WORD	wordpools/wasnorm_wordpool.txt	LTP111	ltpFR	15	3	1	BOYFRIEND	162	n/a	1	1	0.412841796875	0.57763671875	upper	../fonts/zerothre.ttf
402082	WORD	wordpools/wasnorm_wordpool.txt	LTP111	ltpFR	15	3	1	SPIT	1354	n/a	0	1	0.412841796875	0.57763671875	upper	../fonts/zerothre.ttf
405911	WORD	wordpools/wasnorm_wordpool.txt	LTP111	ltpFR	15	3	1	PANTS	1010	n/a	0	1	0.412841796875	0.57763671875	upper	../fonts/zerothre.ttf
409923	WORD	wordpools/wasnorm_wordpool.txt	LTP111	ltpFR	15	3	1	CUFF	423	n/a	0	1	0.412841796875	0.57763671875	upper	../fonts/zerothre.ttf
413735	WORD	wordpools/wasnorm_wordpool.txt	LTP111	ltpFR	15	3	1	UNIVERSITY	1541	n/a	0	1	0.412841796875	0.57763671875	upper	../fonts/zerothre.ttf
417880	WORD	wordpools/wasnorm_wordpool.txt	LTP111	ltpFR	15	3	1	MILDEW	893	n/a	0	1	0.412841796875	0.57763671875	upper	../fonts/zerothre.ttf
421801	WORD	wordpools/wasnorm_wordpool.txt	LTP111	ltpFR	15	3	1	ROOMMATE	1207	n/a	0	1	0.412841796875	0.57763671875	upper	../fonts/zerothre.ttf
426004	WORD	wordpools/wasnorm_wordpool.txt	LTP111	ltpFR	15	3	1	SHOULDER	1294	n/a	1	1	0.412841796875	0.57763671875	upper	../fonts/zerothre.ttf
431648	REC_START	n/a	LTP111	ltpFR	15	3	n/a	n/a	n/a	n/a	n/a	n/a	n/a	n/a	n/a	n/a
432431	REC_WORD	wordpools/wasnorm_wordpool.txt	LTP111	ltpFR	15	3	1	ROOMMATE	1207	n/a	0	n/a	n/a	n/a	n/a	n/a
433494	REC_WORD	wordpools/wasnorm_wordpool.txt	LTP111	ltpFR	15	3	1	SHOULDER	1294	n/a	1	n/a	n/a	n/a	n/a	n/a
435978	REC_WORD	wordpools/wasnorm_wordpool.txt	LTP111	ltpFR	15	3	1	LAWN	805	n/a	0	n/a	n/a	n/a	n/a	n/a
438198	REC_WORD	wordpools/wasnorm_wordpool.txt	LTP111	ltpFR	15	3	1	THIGH	1457	n/a	1	n/a	n/a	n/a	n/a	n/a
440547	REC_WORD	wordpools/wasnorm_wordpool.txt	LTP111	ltpFR	15	3	1	STUMP	1396	n/a	0	n/a	n/a	n/a	n/a	n/a
456162	REC_WORD	wordpools/wasnorm_wordpool.txt	LTP111	ltpFR	15	3	1	PEDESTRIAN	1038	n/a	1	n/a	n/a	n/a	n/a	n/a
458073	REC_WORD	wordpools/wasnorm_wordpool.txt	LTP111	ltpFR	15	3	1	RING	1193	n/a	0	n/a	n/a	n/a	n/a	n/a
460008	REC_WORD	wordpools/wasnorm_wordpool.txt	LTP111	ltpFR	15	3	1	RUBY	1214	n/a	0	n/a	n/a	n/a	n/a	n/a
462587	REC_WORD	wordpools/wasnorm_wordpool.txt	LTP111	ltpFR	15	3	1	THREAD	1460	n/a	0	n/a	n/a	n/a	n/a	n/a
464962	REC_WORD	wordpools/wasnorm_wordpool.txt	LTP111	ltpFR	15	3	1	BOYFRIEND	162	n/a	1	n/a	n/a	n/a	n/a	n/a
467251	REC_WORD	wordpools/wasnorm_wordpool.txt	LTP111	ltpFR	15	3	1	SPIT	1354	n/a	0	n/a	n/a	n/a	n/a	n/a
514393	WORD	wordpools/wasnorm_wordpool.txt	LTP111	ltpFR	15	4	-1	TUB	1514	n/a	-1	1	1.0	1.0	upper	../fonts/Verdana.ttf
518364	WORD	wordpools/wasnorm_wordpool.txt	LTP111	ltpFR	15	4	-1	DRIVEWAY	500	n/a	-1	1	1.0	1.0	upper	../fonts/Verdana.ttf
522359	WORD	wordpools/wasnorm_wordpool.txt	LTP111	ltpFR	15	4	-1	TIDE	1465	n/a	-1	1	1.0	1.0	upper	../fonts/Verdana.ttf
526462	WORD	wordpools/wasnorm_wordpool.txt	LTP111	ltpFR	15	4	-1	CHIMNEY	301	n/a	-1	1	1.0	1.0	upper	../fonts/Verdana.ttf
530624	WORD	wordpools/wasnorm_wordpool.txt	LTP111	ltpFR	15	4	-1	RIB	1188	n/a	-1	1	1.0	1.0	upper	../fonts/Verdana.ttf
534495	WORD	wordpools/wasnorm_wordpool.txt	LTP111	ltpFR	15	4	-1	BEAN	105	n/a	-1	1	1.0	1.0	upper	../fonts/Verdana.ttf
538474	WORD	wordpools/wasnorm_wordpool.txt	LTP111	ltpFR	15	4	-1	SWEATER	1419	n/a	-1	1	1.0	1.0	upper	../fonts/Verdana.ttf
542494	WORD	wordpools/wasnorm_wordpool.txt	LTP111	ltpFR	15	4	-1	MOTOR	922	n/a	-1	1	1.0	1.0	upper	../fonts/Verdana.ttf
546323	WORD	wordpools/wasnorm_wordpool.txt	LTP111	ltpFR	15	4	-1	WAITER	1580	n/a	-1	1	1.0	1.0	upper	../fonts/Verdana.ttf
550501	WORD	wordpools/wasnorm_wordpool.txt	LTP111	ltpFR	15	4	-1	BUTLER	204	n/a	-1	1	1.0	1.0	upper	../fonts/Verdana.ttf
554430	WORD	wordpools/wasnorm_wordpool.txt	LTP111	ltpFR	15	4	-1	VACUUM	1543	n/a	-1	1	1.0	1.0	upper	../fonts/Verdana.ttf
558425	WORD	wordpools/wasnorm_wordpool.txt	LTP111	ltpFR	15	4	-1	TAXI	1438	n/a	-1	1	1.0	1.0	upper	../fonts/Verdana.ttf
562546	WORD	wordpools/wasnorm_wordpool.txt	LTP111	ltpFR	15	4	-1	CARDINAL	244	n/a	-1	1	1.0	1.0	upper	../fonts/Verdana.ttf
566449	WORD	wordpools/wasnorm_wordpool.txt	LTP111	ltpFR	15	4	-1	QUAIL	1147	n/a	-1	1	1.0	1.0	upper	../fonts/Verdana.ttf
570536	WORD	wordpools/wasnorm_wordpool.txt	LTP111	ltpFR	15	4	-1	MOAT	903	n/a	-1	1	1.0	1.0	upper	../fonts/Verdana.ttf
574399	WORD	wordpools/wasnorm_wordpool.txt	LTP111	ltpFR	15	4	-1	SWATTER	1418	n/a	-1	1	1.0	1.0	upper	../fonts/Verdana.ttf
580043	REC_START	n/a	LTP111	ltpFR	15	4	n/a	n/a	n/a	n/a	n/a	n/a	n/a	n/a	n/a	n/a
583305	REC_WORD	wordpools/wasnorm_wordpool.txt	LTP111	ltpFR	15	4	-1	MOAT	903	n/a	-1	n/a	n/a	n/a	n/a	n/a
583779	REC_WORD	wordpools/wasnorm_wordpool.txt	LTP111	ltpFR	15	4	-1	SWATTER	1418	n/a	-1	n/a	n/a	n/a	n/a	n/a
587271	REC_WORD	wordpools/wasnorm_wordpool.txt	LTP111	ltpFR	15	4	-1	DRIVEWAY	500	n/a	-1	n/a	n/a	n/a	n/a	n/a
590394	REC_WORD	wordpools/wasnorm_wordpool.txt	LTP111	ltpFR	15	4	-1	TUB	1514	n/a	-1	n/a	n/a	n/a	n/a	n/a
593317	REC_WORD	wordpools/wasnorm_wordpool.txt	LTP111	ltpFR	15	4	-1	SWEATER	1419	n/a	-1	n/a	n/a	n/a	n/a	n/a
595069	REC_WORD	wordpools/wasnorm_wordpool.txt	LTP111	ltpFR	15	4	-1	BEAN	105	n/a	-1	n/a	n/a	n/a	n/a	n/a
597094	REC_WORD	wordpools/wasnorm_wordpool.txt	LTP111	ltpFR	15	4	-1	CARDINAL	244	n/a	-1	n/a	n/a	n/a	n/a	n/a
603629	REC_WORD	wordpools/wasnorm_wordpool.txt	LTP111	ltpFR	15	4	-1	CHIMNEY	301	n/a	-1	n/a	n/a	n/a	n/a	n/a
605201	REC_WORD	wordpools/wasnorm_wordpool.txt	LTP111	ltpFR	15	4	1	LAWN	805	n/a	0	n/a	n/a	n/a	n/a	n/a
661556	WORD	wordpools/wasnorm_wordpool.txt	LTP111	ltpFR	15	5	1	PERISCOPE	1050	n/a	0	1	0.412841796875	0.57763671875	upper	../fonts/zerothre.ttf
665501	WORD	wordpools/wasnorm_wordpool.txt	LTP111	ltpFR	15	5	1	STRING	1394	n/a	0	1	0.412841796875	0.57763671875	upper	../fonts/zerothre.ttf
669505	WORD	wordpools/wasnorm_wordpool.txt	LTP111	ltpFR	15	5	1	BATHTUB	100	n/a	0	1	0.412841796875	0.57763671875	upper	../fonts/zerothre.ttf
673683	WORD	wordpools/wasnorm_wordpool.txt	LTP111	ltpFR	15	5	1	SCREWDRIVER	1255	n/a	0	1	0.412841796875	0.57763671875	upper	../fonts/zerothre.ttf
677604	WORD	wordpools/wasnorm_wordpool.txt	LTP111	ltpFR	15	5	1	CHEMIST	292	n/a	0	1	0.412841796875	0.57763671875	upper	../fonts/zerothre.ttf
681599	WORD	wordpools/wasnorm_wordpool.txt	LTP111	ltpFR	15	5	1	ZOO	1637	n/a	0	1	0.412841796875	0.57763671875	upper	../fonts/zerothre.ttf
685470	WORD	wordpools/wasnorm_wordpool.txt	LTP111	ltpFR	15	5	1	UNICORN	1538	n/a	1	1	0.412841796875	0.57763671875	upper	../fonts/zerothre.ttf
689382	WORD	wordpools/wasnorm_wordpool.txt	LTP111	ltpFR	15	5	1	COTTAGE	384	n/a	0	1	0.412841796875	0.57763671875	upper	../fonts/zerothre.ttf
693544	WORD	wordpools/wasnorm_wordpool.txt	LTP111	ltpFR	15	5	1	CABIN	211	n/a	0	1	0.412841796875	0.57763671875	upper	../fonts/zerothre.ttf
697589	WORD	wordpools/wasnorm_wordpool.txt	LTP111	ltpFR	15	5	1	MARINE	869	n/a	0	1	0.412841796875	0.57763671875	upper	../fonts/zerothre.ttf
701684	WORD	wordpools/wasnorm_wordpool.txt	LTP111	ltpFR	15	5	1	HORSE	719	n/a	1	1	0.412841796875	0.57763671875	upper	../fonts/zerothre.ttf
705588	WORD	wordpools/wasnorm_wordpool.txt	LTP111	ltpFR	15	5	1	JAW	751	n/a	0	1	0.412841796875	0.57763671875	upper	../fonts/zerothre.ttf
709450	WORD	wordpools/wasnorm_wordpool.txt	LTP111	ltpFR	15	5	1	SKULL	1320	n/a	0	1	0.412841796875	0.57763671875	upper	../fonts/zerothre.ttf
713504	WORD	wordpools/wasnorm_wordpool.txt	LTP111	ltpFR	15	5	1	CROSS	413	n/a	0	1	0.412841796875	0.57763671875	upper	../fonts/zerothre.ttf
717533	WORD	wordpools/wasnorm_wordpool.txt	LTP111	ltpFR	15	5	1	SHRINE	1298	n/a	0	1	0.412841796875	0.57763671875	upper	../fonts/zerothre.ttf
721478	WORD	wordpools/wasnorm_wordpool.txt	LTP111	ltpFR	15	5	1	LAMB	797	n/a	1	1	0.412841796875	0.57763671875	upper	../fonts/zerothre.ttf
727281	REC_START	n/a	LTP111	ltpFR	15	5	n/a	n/a	n/a	n/a	n/a	n/a	n/a	n/a	n/a	n/a
731361	REC_WORD	wordpools/wasnorm_wordpool.txt	LTP111	ltpFR	15	5	1	SHRINE	1298	n/a	0	n/a	n/a	n/a	n/a	n/a
736500	REC_WORD	wordpools/wasnorm_wordpool.txt	LTP111	ltpFR	15	5	1	LAMB	797	n/a	1	n/a	n/a	n/a	n/a	n/a
806804	WORD	wordpools/wasnorm_wordpool.txt	LTP111	ltpFR	15	6	1	GOLD	647	n/a	0	1	0.412841796875	0.57763671875	upper	../fonts/zerothre.ttf
810833	WORD	wordpools/wasnorm_wordpool.txt	LTP111	ltpFR	15	6	1	PUPPY	1144	n/a	1	1	0.412841796875	0.57763671875	upper	../fonts/zerothre.ttf
814970	WORD	wordpools/wasnorm_wordpool.txt	LTP111	ltpFR	15	6	1	SIREN	1310	n/a	0	1	0.412841796875	0.57763671875	upper	../fonts/zerothre.ttf
819131	WORD	wordpools/wasnorm_wordpool.txt	LTP111	ltpFR	15	6	1	BARK	87	n/a	0	1	0.412841796875	0.57763671875	upper	../fonts/zerothre.ttf
823110	WORD	wordpools/wasnorm_wordpool.txt	LTP111	ltpFR	15	6	0	FELLOW	558	n/a	0	0	0.5869140625	0.422607421875	lower	../fonts/amplitud.ttf
827047	WORD	wordpools/wasnorm_wordpool.txt	LTP111	ltpFR	15	6	0	COMPANION	357	n/a	0	0	0.5869140625	0.422607421875	lower	../fonts/amplitud.ttf
831209	WORD	wordpools/wasnorm_wordpool.txt	LTP111	ltpFR	15	6	0	PATROL	1027	n/a	0	0	0.5869140625	0.422607421875	lower	../fonts/amplitud.ttf
835071	WORD	wordpools/wasnorm_wordpool.txt	LTP111	ltpFR	15	6	1	RELATIVE	1182	n/a	1	1	0.412841796875	0.57763671875	upper	../fonts/zerothre.ttf
838908	WORD	wordpools/wasnorm_wordpool.txt	LTP111	ltpFR	15	6	1	MUMMY	932	n/a	1	1	0.412841796875	0.57763671875	upper	../fonts/zerothre.ttf
842979	WORD	wordpools/wasnorm_wordpool.txt	LTP111	ltpFR	15	6	1	TEMPLE	1448	n/a	2	1	0.412841796875	0.57763671875	upper	../fonts/zerothre.ttf
845076	KEY_MSG	n/a	LTP111	ltpFR	15	6	n/a	n/a	n/a	n/a	n/a	n/a	n/a	n/a	n/a	n/a
847465	WORD	wordpools/wasnorm_wordpool.txt	LTP111	ltpFR	15	6	1	LIMB	822	n/a	1	1	0.412841796875	0.57763671875	upper	../fonts/zerothre.ttf
851427	WORD	wordpools/wasnorm_wordpool.txt	LTP111	ltpFR	15	6	0	ROCKET	1202	n/a	0	0	0.5869140625	0.422607421875	lower	../fonts/amplitud.ttf
855539	WORD	wordpools/wasnorm_wordpool.txt	LTP111	ltpFR	15	6	0	DRILL	497	n/a	1	0	0.5869140625	0.422607421875	lower	../fonts/amplitud.ttf
859476	WORD	wordpools/wasnorm_wordpool.txt	LTP111	ltpFR	15	6	0	DONKEY	484	n/a	0	0	0.5869140625	0.422607421875	lower	../fonts/amplitud.ttf
863671	WORD	wordpools/wasnorm_wordpool.txt	LTP111	ltpFR	15	6	0	CORK	380	n/a	0	0	0.5869140625	0.422607421875	lower	../fonts/amplitud.ttf
867783	WORD	wordpools/wasnorm_wordpool.txt	LTP111	ltpFR	15	6	0	GALAXY	617	n/a	0	0	0.5869140625	0.422607421875	lower	../fonts/amplitud.ttf
873569	REC_START	n/a	LTP111	ltpFR	15	6	n/a	n/a	n/a	n/a	n/a	n/a	n/a	n/a	n/a	n/a
875280	REC_WORD	wordpools/wasnorm_wordpool.txt	LTP111	ltpFR	15	6	0	GALAXY	617	n/a	0	n/a	n/a	n/a	n/a	n/a
876153	REC_WORD	wordpools/wasnorm_wordpool.txt	LTP111	ltpFR	15	6	0	CORK	380	n/a	0	n/a	n/a	n/a	n/a	n/a
879036	REC_WORD	wordpools/wasnorm_wordpool.txt	LTP111	ltpFR	15	6	1	GOLD	647	n/a	0	n/a	n/a	n/a	n/a	n/a
880618	REC_WORD	wordpools/wasnorm_wordpool.txt	LTP111	ltpFR	15	6	1	PUPPY	1144	n/a	1	n/a	n/a	n/a	n/a	n/a
882603	REC_WORD	wordpools/wasnorm_wordpool.txt	LTP111	ltpFR	15	6	1	SIREN	1310	n/a	0	n/a	n/a	n/a	n/a	n/a
884718	REC_WORD	wordpools/wasnorm_wordpool.txt	LTP111	ltpFR	15	6	1	BARK	87	n/a	0	n/a	n/a	n/a	n/a	n/a
886754	REC_WORD	wordpools/wasnorm_wordpool.txt	LTP111	ltpFR	15	6	1	RELATIVE	1182	n/a	1	n/a	n/a	n/a	n/a	n/a
888659	REC_WORD	wordpools/wasnorm_wordpool.txt	LTP111	ltpFR	15	6	0	COMPANION	357	n/a	0	n/a	n/a	n/a	n/a	n/a
892540	REC_WORD	wordpools/wasnorm_wordpool.txt	LTP111	ltpFR	15	6	1	MUMMY	932	n/a	1	n/a	n/a	n/a	n/a	n/a
962790	WORD	wordpools/wasnorm_wordpool.txt	LTP111	ltpFR	15	7	0	AMBULANCE	19	n/a	0	0	0.5869140625	0.422607421875	lower	../fonts/amplitud.ttf
966802	WORD	wordpools/wasnorm_wordpool.txt	LTP111	ltpFR	15	7	0	GENERAL	630	n/a	1	0	0.5869140625	0.422607421875	lower	../fonts/amplitud.ttf
970889	WORD	wordpools/wasnorm_wordpool.txt	LTP111	ltpFR	15	7	0	MEAL	882	n/a	0	0	0.5869140625	0.422607421875	lower	../fonts/amplitud.ttf
974818	WORD	wordpools/wasnorm_wordpool.txt	LTP111	ltpFR	15	7	0	MONEY	908	n/a	0	0	0.5869140625	0.422607421875	lower	../fonts/amplitud.ttf
979021	WORD	wordpools/wasnorm_wordpool.txt	LTP111	ltpFR	15	7	0	CELLO	268	n/a	0	0	0.5869140625	0.422607421875	lower	../fonts/amplitud.ttf
982858	WORD	wordpools/wasnorm_wordpool.txt	LTP111	ltpFR	15	7	0	PAINTING	1005	n/a	0	0	0.5869140625	0.422607421875	lower	../fonts/amplitud.ttf
986870	WORD	wordpools/wasnorm_wordpool.txt	LTP111	ltpFR	15	7	0	PAINTER	1004	n/a	1	0	0.5869140625	0.422607421875	lower	../fonts/amplitud.ttf
990849	WORD	wordpools/wasnorm_wordpool.txt	LTP111	ltpFR	15	7	0	PIKE	1067	n/a	1	0	0.5869140625	0.422607421875	lower	../fonts/amplitud.ttf
995052	WORD	wordpools/wasnorm_wordpool.txt	LTP111	ltpFR	15	7	0	BEEF	113	n/a	0	0	0.5869140625	0.422607421875	lower	../fonts/amplitud.ttf
999173	WORD	wordpools/wasnorm_wordpool.txt	LTP111	ltpFR	15	7	0	SEAFOOD	1260	n/a	0	0	0.5869140625	0.422607421875	lower	../fonts/amplitud.ttf
1003359	WORD	wordpools/wasnorm_wordpool.txt	LTP111	ltpFR	15	7	0	HOSTAGE	722	n/a	0	0	0.5869140625	0.422607421875	lower	../fonts/amplitud.ttf
1007521	WORD	wordpools/wasnorm_wordpool.txt	LTP111	ltpFR	15	7	0	TAG	1429	n/a	0	0	0.5869140625	0.422607421875	lower	../fonts/amplitud.ttf
1011716	WORD	wordpools/wasnorm_wordpool.txt	LTP111	ltpFR	15	7	0	HANGER	687	n/a	n/a	0	0.5869140625	0.422607421875	lower	../fonts/amplitud.ttf
1014738	SLOW_MSG	n/a	LTP111	ltpFR	15	7	n/a	n/a	n/a	n/a	n/a	n/a	n/a	n/a	n/a	n/a
1017410	WORD	wordpools/wasnorm_wordpool.txt	LTP111	ltpFR	15	7	0	PRISONER	1128	n/a	0	0	0.5869140625	0.422607421875	lower	../fonts/amplitud.ttf
1021430	WORD	wordpools/wasnorm_wordpool.txt	LTP111	ltpFR	15	7	0	SQUID	1361	n/a	0	0	0.5869140625	0.422607421875	lower	../fonts/amplitud.ttf
1025500	WORD	wordpools/wasnorm_wordpool.txt	LTP111	ltpFR	15	7	0	MICROPHONE	890	n/a	0	0	0.5869140625	0.422607421875	lower	../fonts/amplitud.ttf
1031287	REC_START	n/a	LTP111	ltpFR	15	7	n/a	n/a	n/a	n/a	n/a	n/a	n/a	n/a	n/a	n/a
1032953	REC_WORD	wordpools/wasnorm_wordpool.txt	LTP111	ltpFR	15	7	0	PRISONER	1128	n/a	0	n/a	n/a	n/a	n/a	n/a
1035586	REC_WORD	wordpools/wasnorm_wordpool.txt	LTP111	ltpFR	15	7	0	SQUID	1361	n/a	0	n/a	n/a	n/a	n/a	n/a
1038904	REC_WORD	wordpools/wasnorm_wordpool.txt	LTP111	ltpFR	15	7	0	MICROPHONE	890	n/a	0	n/a	n/a	n/a	n/a	n/a
1044008	REC_WORD	wordpools/wasnorm_wordpool.txt	LTP111	ltpFR	15	7	0	PIKE	1067	n/a	1	n/a	n/a	n/a	n/a	n/a
1046876	REC_WORD	wordpools/wasnorm_wordpool.txt	LTP111	ltpFR	15	7	0	AMBULANCE	19	n/a	0	n/a	n/a	n/a	n/a	n/a
1049735	REC_WORD	wordpools/wasnorm_wordpool.txt	LTP111	ltpFR	15	7	0	GENERAL	630	n/a	1	n/a	n/a	n/a	n/a	n/a
1052613	REC_WORD	wordpools/wasnorm_wordpool.txt	LTP111	ltpFR	15	7	0	CELLO	268	n/a	0	n/a	n/a	n/a	n/a	n/a
1055681	REC_WORD	wordpools/wasnorm_wordpool.txt	LTP111	ltpFR	15	7	0	PAINTING	1005	n/a	0	n/a	n/a	n/a	n/a	n/a
1058819	REC_WORD	wordpools/wasnorm_wordpool.txt	LTP111	ltpFR	15	7	0	PAINTER	1004	n/a	1	n/a	n/a	n/a	n/a	n/a
1109761	WORD	wordpools/wasnorm_wordpool.txt	LTP111	ltpFR	15	8	0	BAY	102	n/a	0	0	0.5869140625	0.422607421875	lower	../fonts/amplitud.ttf
1113615	WORD	wordpools/wasnorm_wordpool.txt	LTP111	ltpFR	15	8	0	ORCHID	982	n/a	0	0	0.5869140625	0.422607421875	lower	../fonts/amplitud.ttf
1117735	WORD	wordpools/wasnorm_wordpool.txt	LTP111	ltpFR	15	8	1	RODENT	1204	n/a	1	1	0.412841796875	0.57763671875	upper	../fonts/zerothre.ttf
1121897	WORD	wordpools/wasnorm_wordpool.txt	LTP111	ltpFR	15	8	1	SEAL	1262	n/a	1	1	0.412841796875	0.57763671875	upper	../fonts/zerothre.ttf
1126092	WORD	wordpools/wasnorm_wordpool.txt	LTP111	ltpFR	15	8	1	RUNNER	1218	n/a	1	1	0.412841796875	0.57763671875	upper	../fonts/zerothre.ttf
1130087	WORD	wordpools/wasnorm_wordpool.txt	LTP111	ltpFR	15	8	1	RAILROAD	1162	n/a	1	1	0.412841796875	0.57763671875	upper	../fonts/zerothre.ttf
1134259	WORD	wordpools/wasnorm_wordpool.txt	LTP111	ltpFR	15	8	0	DEPUTY	450	n/a	0	0	0.5869140625	0.422607421875	lower	../fonts/amplitud.ttf
1138271	WORD	wordpools/wasnorm_wordpool.txt	LTP111	ltpFR	15	8	0	KITTEN	780	n/a	0	0	0.5869140625	0.422607421875	lower	../fonts/amplitud.ttf
1142190	WORD	wordpools/wasnorm_wordpool.txt	LTP111	ltpFR	15	8	0	PERSON	1052	n/a	0	0	0.5869140625	0.422607421875	lower	../fonts/amplitud.ttf
1146253	WORD	wordpools/wasnorm_wordpool.txt	LTP111	ltpFR	15	8	1	GODDESS	646	n/a	0	1	0.412841796875	0.57763671875	upper	../fonts/zerothre.ttf
1150173	WORD	wordpools/wasnorm_wordpool.txt	LTP111	ltpFR	15	8	1	BADGE	68	n/a	0	1	0.412841796875	0.57763671875	upper	../fonts/zerothre.ttf
1154227	WORD	wordpools/wasnorm_wordpool.txt	LTP111	ltpFR	15	8	1	CAT	257	n/a	2	1	0.412841796875	0.57763671875	upper	../fonts/zerothre.ttf
1155541	KEY_MSG	n/a	LTP111	ltpFR	15	8	n/a	n/a	n/a	n/a	n/a	n/a	n/a	n/a	n/a	n/a
1158273	WORD	wordpools/wasnorm_wordpool.txt	LTP111	ltpFR	15	8	1	FOUNTAIN	597	n/a	0	1	0.412841796875	0.57763671875	upper	../fonts/zerothre.ttf
1162284	WORD	wordpools/wasnorm_wordpool.txt	LTP111	ltpFR	15	8	0	ISLAND	745	n/a	0	0	0.5869140625	0.422607421875	lower	../fonts/amplitud.ttf
1166247	WORD	wordpools/wasnorm_wordpool.txt	LTP111	ltpFR	15	8	0	CORD	379	n/a	0	0	0.5869140625	0.422607421875	lower	../fonts/amplitud.ttf
1170432	WORD	wordpools/wasnorm_wordpool.txt	LTP111	ltpFR	15	8	0	BOOTH	151	n/a	0	0	0.5869140625	0.422607421875	lower	../fonts/amplitud.ttf
1176101	REC_START	n/a	LTP111	ltpFR	15	8	n/a	n/a	n/a	n/a	n/a	n/a	n/a	n/a	n/a	n/a
1179224	REC_WORD	wordpools/wasnorm_wordpool.txt	LTP111	ltpFR	15	8	0	BOOTH	151	n/a	0	n/a	n/a	n/a	n/a	n/a
1182905	REC_WORD	wordpools/wasnorm_wordpool.txt	LTP111	ltpFR	15	8	0	ISLAND	745	n/a	0	n/a	n/a	n/a	n/a	n/a
1194968	REC_WORD	wordpools/wasnorm_wordpool.txt	LTP111	ltpFR	15	8	0	BAY	102	n/a	0	n/a	n/a	n/a	n/a	n/a
1200835	REC_WORD	wordpools/wasnorm_wordpool.txt	LTP111	ltpFR	15	8	1	RUNNER	1218	n/a	1	n/a	n/a	n/a	n/a	n/a
1209814	REC_WORD	wordpools/wasnorm_wordpool.txt	LTP111	ltpFR	15	8	0	KITTEN	780	n/a	0	n/a	n/a	n/a	n/a	n/a
1255675	WORD	wordpools/wasnorm_wordpool.txt	LTP111	ltpFR	15	9	-1	DIAPER	459	n/a	-1	1	1.0	1.0	upper	../fonts/Verdana.ttf
1259804	WORD	wordpools/wasnorm_wordpool.txt	LTP111	ltpFR	15	9	-1	RATTLE	1170	n/a	-1	1	1.0	1.0	upper	../fonts/Verdana.ttf
1263882	WORD	wordpools/wasnorm_wordpool.txt	LTP111	ltpFR	15	9	-1	EAR	513	n/a	-1	1	1.0	1.0	upper	../fonts/Verdana.ttf
1267961	WORD	wordpools/wasnorm_wordpool.txt	LTP111	ltpFR	15	9	-1	COMEDIAN	352	n/a	-1	1	1.0	1.0	upper	../fonts/Verdana.ttf
1272048	WORD	wordpools/wasnorm_wordpool.txt	LTP111	ltpFR	15	9	-1	OATS	968	n/a	-1	1	1.0	1.0	upper	../fonts/Verdana.ttf
1276076	WORD	wordpools/wasnorm_wordpool.txt	LTP111	ltpFR	15	9	-1	GROUND	666	n/a	-1	1	1.0	1.0	upper	../fonts/Verdana.ttf
1279939	WORD	wordpools/wasnorm_wordpool.txt	LTP111	ltpFR	15	9	-1	FUGITIVE	612	n/a	-1	1	1.0	1.0	upper	../fonts/Verdana.ttf
1284034	WORD	wordpools/wasnorm_wordpool.txt	LTP111	ltpFR	15	9	-1	CEREAL	272	n/a	-1	1	1.0	1.0	upper	../fonts/Verdana.ttf
1287896	WORD	wordpools/wasnorm_wordpool.txt	LTP111	ltpFR	15	9	-1	NEPTUNE	943	n/a	-1	1	1.0	1.0	upper	../fonts/Verdana.ttf
1291975	WORD	wordpools/wasnorm_wordpool.txt	LTP111	ltpFR	15	9	-1	EARRING	514	n/a	-1	1	1.0	1.0	upper	../fonts/Verdana.ttf
1296037	WORD	wordpools/wasnorm_wordpool.txt	LTP111	ltpFR	15	9	-1	BUFFALO	186	n/a	-1	1	1.0	1.0	upper	../fonts/Verdana.ttf
1300241	WORD	wordpools/wasnorm_wordpool.txt	LTP111	ltpFR	15	9	-1	BISON	131	n/a	-1	1	1.0	1.0	upper	../fonts/Verdana.ttf
1304186	WORD	wordpools/wasnorm_wordpool.txt	LTP111	ltpFR	15	9	-1	STAPLE	1371	n/a	-1	1	1.0	1.0	upper	../fonts/Verdana.ttf
1308347	WORD	wordpools/wasnorm_wordpool.txt	LTP111	ltpFR	15	9	-1	CABINET	212	n/a	-1	1	1.0	1.0	upper	../fonts/Verdana.ttf
1312227	WORD	wordpools/wasnorm_wordpool.txt	LTP111	ltpFR	15	9	-1	EXPERT	543	n/a	-1	1	1.0	1.0	upper	../fonts/Verdana.ttf
1316330	WORD	wordpools/wasnorm_wordpool.txt	LTP111	ltpFR	15	9	-1	INFANT	737	n/a	-1	1	1.0	1.0	upper	../fonts/Verdana.ttf
1322007	REC_START	n/a	LTP111	ltpFR	15	9	n/a	n/a	n/a	n/a	n/a	n/a	n/a	n/a	n/a	n/a
1323019	REC_WORD	wordpools/wasnorm_wordpool.txt	LTP111	ltpFR	15	9	-1	INFANT	737	n/a	-1	n/a	n/a	n/a	n/a	n/a
1326801	REC_WORD	wordpools/wasnorm_wordpool.txt	LTP111	ltpFR	15	9	-1	EAR	513	n/a	-1	n/a	n/a	n/a	n/a	n/a
1329644	REC_WORD	wordpools/wasnorm_wordpool.txt	LTP111	ltpFR	15	9	-1	COMEDIAN	352	n/a	-1	n/a	n/a	n/a	n/a	n/a
1332647	REC_WORD	wordpools/wasnorm_wordpool.txt	LTP111	ltpFR	15	9	-1	RATTLE	1170	n/a	-1	n/a	n/a	n/a	n/a	n/a
1335521	REC_WORD	wordpools/wasnorm_wordpool.txt	LTP111	ltpFR	15	9	-1	GROUND	666	n/a	-1	n/a	n/a	n/a	n/a	n/a
1338055	REC_WORD	wordpools/wasnorm_wordpool.txt	LTP111	ltpFR	15	9	0	PATROL	1027	n/a	0	n/a	n/a	n/a	n/a	n/a
1341677	REC_WORD	wordpools/wasnorm_wordpool.txt	LTP111	ltpFR	15	9	-1	BUFFALO	186	n/a	-1	n/a	n/a	n/a	n/a	n/a
1344650	REC_WORD	wordpools/wasnorm_wordpool.txt	LTP111	ltpFR	15	9	-1	BISON	131	n/a	-1	n/a	n/a	n/a	n/a	n/a
1347478	REC_WORD	wordpools/wasnorm_wordpool.txt	LTP111	ltpFR	15	9	-1	STAPLE	1371	n/a	-1	n/a	n/a	n/a	n/a	n/a
1350751	REC_WORD	wordpools/wasnorm_wordpool.txt	LTP111	ltpFR	15	9	-1	CABINET	212	n/a	-1	n/a	n/a	n/a	n/a	n/a
1400216	WORD	wordpools/wasnorm_wordpool.txt	LTP111	ltpFR	15	10	1	ROACH	1195	n/a	1	1	0.412841796875	0.57763671875	upper	../fonts/zerothre.ttf
1404304	WORD	wordpools/wasnorm_wordpool.txt	LTP111	ltpFR	15	10	1	FLY	586	n/a	1	1	0.412841796875	0.57763671875	upper	../fonts/zerothre.ttf
1408365	WORD	wordpools/wasnorm_wordpool.txt	LTP111	ltpFR	15	10	1	LONDON	843	n/a	0	1	0.412841796875	0.57763671875	upper	../fonts/zerothre.ttf
1412460	WORD	wordpools/wasnorm_wordpool.txt	LTP111	ltpFR	15	10	0	EUROPE	541	n/a	1	0	0.5869140625	0.422607421875	lower	../fonts/amplitud.ttf
1416282	WORD	wordpools/wasnorm_wordpool.txt	LTP111	ltpFR	15	10	0	LODGE	839	n/a	0	0	0.5869140625	0.422607421875	lower	../fonts/amplitud.ttf
1420277	WORD	wordpools/wasnorm_wordpool.txt	LTP111	ltpFR	15	10	1	NICOTINE	951	n/a	0	1	0.412841796875	0.57763671875	upper	../fonts/zerothre.ttf
1424247	WORD	wordpools/wasnorm_wordpool.txt	LTP111	ltpFR	15	10	1	HAT	690	n/a	0	1	0.412841796875	0.57763671875	upper	../fonts/zerothre.ttf
1428133	WORD	wordpools/wasnorm_wordpool.txt	LTP111	ltpFR	15	10	1	COMMANDER	354	n/a	0	1	0.412841796875	0.57763671875	upper	../fonts/zerothre.ttf
1432204	WORD	wordpools/wasnorm_wordpool.txt	LTP111	ltpFR	15	10	0	HAMMOCK	681	n/a	0	0	0.5869140625	0.422607421875	lower	../fonts/amplitud.ttf
1436382	WORD	wordpools/wasnorm_wordpool.txt	LTP111	ltpFR	15	10	0	TRIGGER	1507	n/a	0	0	0.5869140625	0.422607421875	lower	../fonts/amplitud.ttf
1440361	WORD	wordpools/wasnorm_wordpool.txt	LTP111	ltpFR	15	10	0	QUEEN	1149	n/a	2	0	0.5869140625	0.422607421875	lower	../fonts/amplitud.ttf
1441668	KEY_MSG	n/a	LTP111	ltpFR	15	10	n/a	n/a	n/a	n/a	n/a	n/a	n/a	n/a	n/a	n/a
1444515	WORD	wordpools/wasnorm_wordpool.txt	LTP111	ltpFR	15	10	0	CAMEL	223	n/a	0	0	0.5869140625	0.422607421875	lower	../fonts/amplitud.ttf
1448327	WORD	wordpools/wasnorm_wordpool.txt	LTP111	ltpFR	15	10	0	COAT	333	n/a	0	0	0.5869140625	0.422607421875	lower	../fonts/amplitud.ttf
1452257	WORD	wordpools/wasnorm_wordpool.txt	LTP111	ltpFR	15	10	0	CASKET	255	n/a	0	0	0.5869140625	0.422607421875	lower	../fonts/amplitud.ttf
1456269	WORD	wordpools/wasnorm_wordpool.txt	LTP111	ltpFR	15	10	1	LEOPARD	812	n/a	1	1	0.412841796875	0.57763671875	upper	../fonts/zerothre.ttf
1460130	WORD	wordpools/wasnorm_wordpool.txt	LTP111	ltpFR	15	10	1	JUNGLE	764	n/a	0	1	0.412841796875	0.57763671875	upper	../fonts/zerothre.ttf
1466223	REC_START	n/a	LTP111	ltpFR	15	10	n/a	n/a	n/a	n/a	n/a	n/a	n/a	n/a	n/a	n/a
1467310	REC_WORD	wordpools/wasnorm_wordpool.txt	LTP111	ltpFR	15	10	0	TRIGGER	1507	n/a	0	n/a	n/a	n/a	n/a	n/a
1468981	REC_WORD	wordpools/wasnorm_wordpool.txt	LTP111	ltpFR	15	10	0	QUEEN	1149	n/a	2	n/a	n/a	n/a	n/a	n/a
1470518	REC_WORD	wordpools/wasnorm_wordpool.txt	LTP111	ltpFR	15	10	0	CAMEL	223	n/a	0	n/a	n/a	n/a	n/a	n/a
1472514	REC_WORD	wordpools/wasnorm_wordpool.txt	LTP111	ltpFR	15	10	0	COAT	333	n/a	0	n/a	n/a	n/a	n/a	n/a
1476165	REC_WORD	wordpools/wasnorm_wordpool.txt	LTP111	ltpFR	15	10	1	LEOPARD	812	n/a	1	n/a	n/a	n/a	n/a	n/a
1480520	REC_WORD	wordpools/wasnorm_wordpool.txt	LTP111	ltpFR	15	10	1	FLY	586	n/a	1	n/a	n/a	n/a	n/a	n/a
1482885	REC_WORD	wordpools/wasnorm_wordpool.txt	LTP111	ltpFR	15	10	1	ROACH	1195	n/a	1	n/a	n/a	n/a	n/a	n/a
1485878	REC_WORD	wordpools/wasnorm_wordpool.txt	LTP111	ltpFR	15	10	1	LONDON	843	n/a	0	n/a	n/a	n/a	n/a	n/a
1488337	REC_WORD	wordpools/wasnorm_wordpool.txt	LTP111	ltpFR	15	10	0	EUROPE	541	n/a	1	n/a	n/a	n/a	n/a	n/a
1546862	WORD	wordpools/wasnorm_wordpool.txt	LTP111	ltpFR	15	11	0	SILVERWARE	1308	n/a	0	0	0.5869140625	0.422607421875	lower	../fonts/amplitud.ttf
1550800	WORD	wordpools/wasnorm_wordpool.txt	LTP111	ltpFR	15	11	0	SWORD	1423	n/a	0	0	0.5869140625	0.422607421875	lower	../fonts/amplitud.ttf
1554720	WORD	wordpools/wasnorm_wordpool.txt	LTP111	ltpFR	15	11	0	NOVEL	960	n/a	0	0	0.5869140625	0.422607421875	lower	../fonts/amplitud.ttf
1558865	WORD	wordpools/wasnorm_wordpool.txt	LTP111	ltpFR	15	11	0	LITERATURE	831	n/a	0	0	0.5869140625	0.422607421875	lower	../fonts/amplitud.ttf
1562927	WORD	wordpools/wasnorm_wordpool.txt	LTP111	ltpFR	15	11	0	FLORIDA	582	n/a	1	0	0.5869140625	0.422607421875	lower	../fonts/amplitud.ttf
1566789	WORD	wordpools/wasnorm_wordpool.txt	LTP111	ltpFR	15	11	1	WALRUS	1585	n/a	1	1	0.412841796875	0.57763671875	upper	../fonts/zerothre.ttf
1570851	WORD	wordpools/wasnorm_wordpool.txt	LTP111	ltpFR	15	11	1	GREASE	660	n/a	0	1	0.412841796875	0.57763671875	upper	../fonts/zerothre.ttf
1575021	WORD	wordpools/wasnorm_wordpool.txt	LTP111	ltpFR	15	11	1	CAPITAL	238	n/a	0	1	0.412841796875	0.57763671875	upper	../fonts/zerothre.ttf
1578875	WORD	wordpools/wasnorm_wordpool.txt	LTP111	ltpFR	15	11	0	LAKE	796	n/a	0	0	0.5869140625	0.422607421875	lower	../fonts/amplitud.ttf
1583087	WORD	wordpools/wasnorm_wordpool.txt	LTP111	ltpFR	15	11	0	BARTENDER	92	n/a	0	0	0.5869140625	0.422607421875	lower	../fonts/amplitud.ttf
1587224	WORD	wordpools/wasnorm_wordpool.txt	LTP111	ltpFR	15	11	0	RIVER	1194	n/a	0	0	0.5869140625	0.422607421875	lower	../fonts/amplitud.ttf
1591361	WORD	wordpools/wasnorm_wordpool.txt	LTP111	ltpFR	15	11	1	COCOON	339	n/a	0	1	0.412841796875	0.57763671875	upper	../fonts/zerothre.ttf
1595398	WORD	wordpools/wasnorm_wordpool.txt	LTP111	ltpFR	15	11	1	PENGUIN	1044	n/a	2	1	0.412841796875	0.57763671875	upper	../fonts/zerothre.ttf
1596580	KEY_MSG	n/a	LTP111	ltpFR	15	11	n/a	n/a	n/a	n/a	n/a	n/a	n/a	n/a	n/a	n/a
1599560	WORD	wordpools/wasnorm_wordpool.txt	LTP111	ltpFR	15	11	1	KIWI	781	n/a	1	1	0.412841796875	0.57763671875	upper	../fonts/zerothre.ttf
1603505	WORD	wordpools/wasnorm_wordpool.txt	LTP111	ltpFR	15	11	1	STRAWBERRY	1391	n/a	1	1	0.412841796875	0.57763671875	upper	../fonts/zerothre.ttf
1607342	WORD	wordpools/wasnorm_wordpool.txt	LTP111	ltpFR	15	11	1	MECHANIC	884	n/a	0	1	0.412841796875	0.57763671875	upper	../fonts/zerothre.ttf
1613153	REC_START	n/a	LTP111	ltpFR	15	11	n/a	n/a	n/a	n/a	n/a	n/a	n/a	n/a	n/a	n/a
1614125	REC_WORD	wordpools/wasnorm_wordpool.txt	LTP111	ltpFR	15	11	1	MECHANIC	884	n/a	0	n/a	n/a	n/a	n/a	n/a
1616475	REC_WORD	wordpools/wasnorm_wordpool.txt	LTP111	ltpFR	15	11	1	STRAWBERRY	1391	n/a	1	n/a	n/a	n/a	n/a	n/a
1642930	REC_WORD	wordpools/wasnorm_wordpool.txt	LTP111	ltpFR	15	11	0	LAKE	796	n/a	0	n/a	n/a	n/a	n/a	n/a
1650717	REC_WORD	wordpools/wasnorm_wordpool.txt	LTP111	ltpFR	15	11	1	WALRUS	1585	n/a	1	n/a	n/a	n/a	n/a	n/a
1693542	WORD	wordpools/wasnorm_wordpool.txt	LTP111	ltpFR	15	12	0	JURY	766	n/a	0	0	0.5869140625	0.422607421875	lower	../fonts/amplitud.ttf
1697529	WORD	wordpools/wasnorm_wordpool.txt	LTP111	ltpFR	15	12	0	INCENSE	735	n/a	0	0	0.5869140625	0.422607421875	lower	../fonts/amplitud.ttf
1701558	WORD	wordpools/wasnorm_wordpool.txt	LTP111	ltpFR	15	12	0	SKELETON	1314	n/a	0	0	0.5869140625	0.422607421875	lower	../fonts/amplitud.ttf
1705370	WORD	wordpools/wasnorm_wordpool.txt	LTP111	ltpFR	15	12	0	PHOTO	1055	n/a	0	0	0.5869140625	0.422607421875	lower	../fonts/amplitud.ttf
1709366	WORD	wordpools/wasnorm_wordpool.txt	LTP111	ltpFR	15	12	0	CALENDAR	221	n/a	0	0	0.5869140625	0.422607421875	lower	../fonts/amplitud.ttf
1713319	WORD	wordpools/wasnorm_wordpool.txt	LTP111	ltpFR	15	12	0	TWINE	1529	n/a	0	0	0.5869140625	0.422607421875	lower	../fonts/amplitud.ttf
1717465	WORD	wordpools/wasnorm_wordpool.txt	LTP111	ltpFR	15	12	0	TIE	1466	n/a	0	0	0.5869140625	0.422607421875	lower	../fonts/amplitud.ttf
1721502	WORD	wordpools/wasnorm_wordpool.txt	LTP111	ltpFR	15	12	0	SUBMARINE	1398	n/a	n/a	0	0.5869140625	0.422607421875	lower	../fonts/amplitud.ttf
1724523	SLOW_MSG	n/a	LTP111	ltpFR	15	12	n/a	n/a	n/a	n/a	n/a	n/a	n/a	n/a	n/a	n/a
1727095	WORD	wordpools/wasnorm_wordpool.txt	LTP111	ltpFR	15	12	0	BOAT	144	n/a	0	0	0.5869140625	0.422607421875	lower	../fonts/amplitud.ttf
1731090	WORD	wordpools/wasnorm_wordpool.txt	LTP111	ltpFR	15	12	0	DRAWING	494	n/a	0	0	0.5869140625	0.422607421875	lower	../fonts/amplitud.ttf
1735094	WORD	wordpools/wasnorm_wordpool.txt	LTP111	ltpFR	15	12	0	SHED	1277	n/a	0	0	0.5869140625	0.422607421875	lower	../fonts/amplitud.ttf
1739040	WORD	wordpools/wasnorm_wordpool.txt	LTP111	ltpFR	15	12	0	CATERPILLAR	259	n/a	0	0	0.5869140625	0.422607421875	lower	../fonts/amplitud.ttf
1743210	WORD	wordpools/wasnorm_wordpool.txt	LTP111	ltpFR	15	12	0	VIOLIN	1571	n/a	0	0	0.5869140625	0.422607421875	lower	../fonts/amplitud.ttf
1747413	WORD	wordpools/wasnorm_wordpool.txt	LTP111	ltpFR	15	12	0	ACORN	3	n/a	0	0	0.5869140625	0.422607421875	lower	../fonts/amplitud.ttf
1751417	WORD	wordpools/wasnorm_wordpool.txt	LTP111	ltpFR	15	12	0	MARGARINE	868	n/a	0	0	0.5869140625	0.422607421875	lower	../fonts/amplitud.ttf
1755479	WORD	wordpools/wasnorm_wordpool.txt	LTP111	ltpFR	15	12	0	TROMBONE	1508	n/a	0	0	0.5869140625	0.422607421875	lower	../fonts/amplitud.ttf
1761389	REC_START	n/a	LTP111	ltpFR	15	12	n/a	n/a	n/a	n/a	n/a	n/a	n/a	n/a	n/a	n/a
1762850	REC_WORD	wordpools/wasnorm_wordpool.txt	LTP111	ltpFR	15	12	0	SUBMARINE	1398	n/a	n/a	n/a	n/a	n/a	n/a	n/a
1763514	REC_WORD	wordpools/wasnorm_wordpool.txt	LTP111	ltpFR	15	12	0	DRAWING	494	n/a	0	n/a	n/a	n/a	n/a	n/a
1764177	REC_WORD	wordpools/wasnorm_wordpool.txt	LTP111	ltpFR	15	12	0	ACORN	3	n/a	0	n/a	n/a	n/a	n/a	n/a
1764806	REC_WORD	wordpools/wasnorm_wordpool.txt	LTP111	ltpFR	15	12	0	VIOLIN	1571	n/a	0	n/a	n/a	n/a	n/a	n/a
1765435	REC_WORD	wordpools/wasnorm_wordpool.txt	LTP111	ltpFR	15	12	0	SHED	1277	n/a	0	n/a	n/a	n/a	n/a	n/a
1836976	REST_REWET	n/a	LTP111	ltpFR	15	12	n/a	n/a	n/a	n/a	n/a	n/a	n/a	n/a	n/a	n/a
2377707	WORD	wordpools/wasnorm_wordpool.txt	LTP111	ltpFR	15	13	1	OLIVE	975	n/a	1	1	0.412841796875	0.57763671875	upper	../fonts/zerothre.ttf
2381719	WORD	wordpools/wasnorm_wordpool.txt	LTP111	ltpFR	15	13	1	LOBBY	836	n/a	0	1	0.412841796875	0.57763671875	upper	../fonts/zerothre.ttf
2385864	WORD	wordpools/wasnorm_wordpool.txt	LTP111	ltpFR	15	13	1	CONVENT	370	n/a	0	1	0.412841796875	0.57763671875	upper	../fonts/zerothre.ttf
2389901	WORD	wordpools/wasnorm_wordpool.txt	LTP111	ltpFR	15	13	1	SHRIMP	1297	n/a	1	1	0.412841796875	0.57763671875	upper	../fonts/zerothre.ttf
2394097	WORD	wordpools/wasnorm_wordpool.txt	LTP111	ltpFR	15	13	1	SUPPER	1411	n/a	0	1	0.412841796875	0.57763671875	upper	../fonts/zerothre.ttf
2398259	WORD	wordpools/wasnorm_wordpool.txt	LTP111	ltpFR	15	13	1	CHICKEN	297	n/a	0	1	0.412841796875	0.57763671875	upper	../fonts/zerothre.ttf
2402370	WORD	wordpools/wasnorm_wordpool.txt	LTP111	ltpFR	15	13	1	MOTHER	921	n/a	1	1	0.412841796875	0.57763671875	upper	../fonts/zerothre.ttf
2406515	WORD	wordpools/wasnorm_wordpool.txt	LTP111	ltpFR	15	13	1	PREACHER	1119	n/a	1	1	0.412841796875	0.57763671875	upper	../fonts/zerothre.ttf
2410519	WORD	wordpools/wasnorm_wordpool.txt	LTP111	ltpFR	15	13	1	HALL	677	n/a	0	1	0.412841796875	0.57763671875	upper	../fonts/zerothre.ttf
2414373	WORD	wordpools/wasnorm_wordpool.txt	LTP111	ltpFR	15	13	1	RADIO	1157	n/a	0	1	0.412841796875	0.57763671875	upper	../fonts/zerothre.ttf
2418278	WORD	wordpools/wasnorm_wordpool.txt	LTP111	ltpFR	15	13	1	CORPORATION	382	n/a	0	1	0.412841796875	0.57763671875	upper	../fonts/zerothre.ttf
2422372	WORD	wordpools/wasnorm_wordpool.txt	LTP111	ltpFR	15	13	1	DIME	466	n/a	0	1	0.412841796875	0.57763671875	upper	../fonts/zerothre.ttf
2426542	WORD	wordpools/wasnorm_wordpool.txt	LTP111	ltpFR	15	13	1	SCHOOL	1248	n/a	0	1	0.412841796875	0.57763671875	upper	../fonts/zerothre.ttf
2430671	WORD	wordpools/wasnorm_wordpool.txt	LTP111	ltpFR	15	13	1	ATTORNEY	58	n/a	0	1	0.412841796875	0.57763671875	upper	../fonts/zerothre.ttf
2434774	WORD	wordpools/wasnorm_wordpool.txt	LTP111	ltpFR	15	13	1	SOLDIER	1344	n/a	0	1	0.412841796875	0.57763671875	upper	../fonts/zerothre.ttf
2438936	WORD	wordpools/wasnorm_wordpool.txt	LTP111	ltpFR	15	13	1	SERGEANT	1269	n/a	1	1	0.412841796875	0.57763671875	upper	../fonts/zerothre.ttf
2444697	REC_START	n/a	LTP111	ltpFR	15	13	n/a	n/a	n/a	n/a	n/a	n/a	n/a	n/a	n/a	n/a
2446258	REC_WORD	wordpools/wasnorm_wordpool.txt	LTP111	ltpFR	15	13	1	SOLDIER	1344	n/a	0	n/a	n/a	n/a	n/a	n/a
2446842	REC_WORD	wordpools/wasnorm_wordpool.txt	LTP111	ltpFR	15	13	1	SERGEANT	1269	n/a	1	n/a	n/a	n/a	n/a	n/a
2447710	REC_WORD	wordpools/wasnorm_wordpool.txt	LTP111	ltpFR	15	13	1	DIME	466	n/a	0	n/a	n/a	n/a	n/a	n/a
2450025	REC_WORD	wordpools/wasnorm_wordpool.txt	LTP111	ltpFR	15	13	1	LOBBY	836	n/a	0	n/a	n/a	n/a	n/a	n/a
2450808	REC_WORD	wordpools/wasnorm_wordpool.txt	LTP111	ltpFR	15	13	1	OLIVE	975	n/a	1	n/a	n/a	n/a	n/a	n/a
2451686	REC_WORD	wordpools/wasnorm_wordpool.txt	LTP111	ltpFR	15	13	1	SHRIMP	1297	n/a	1	n/a	n/a	n/a	n/a	n/a
2454963	REC_WORD	wordpools/wasnorm_wordpool.txt	LTP111	ltpFR	15	13	1	SUPPER	1411	n/a	0	n/a	n/a	n/a	n/a	n/a
2455863	REC_WORD	wordpools/wasnorm_wordpool.txt	LTP111	ltpFR	15	13	1	CHICKEN	297	n/a	0	n/a	n/a	n/a	n/a	n/a
2458061	REC_WORD	wordpools/wasnorm_wordpool.txt	LTP111	ltpFR	15	13	1	MOTHER	921	n/a	1	n/a	n/a	n/a	n/a	n/a
2460256	REC_WORD	wordpools/wasnorm_wordpool.txt	LTP111	ltpFR	15	13	1	CONVENT	370	n/a	0	n/a	n/a	n/a	n/a	n/a
2461094	REC_WORD	wordpools/wasnorm_wordpool.txt	LTP111	ltpFR	15	13	1	SCHOOL	1248	n/a	0	n/a	n/a	n/a	n/a	n/a
2468702	REC_WORD	wordpools/wasnorm_wordpool.txt	LTP111	ltpFR	15	13	1	HALL	677	n/a	0	n/a	n/a	n/a	n/a	n/a
2478624	REC_WORD	wordpools/wasnorm_wordpool.txt	LTP111	ltpFR	15	13	1	ATTORNEY	58	n/a	0	n/a	n/a	n/a	n/a	n/a
2523713	WORD	wordpools/wasnorm_wordpool.txt	LTP111	ltpFR	15	14	-1	FRUIT	610	n/a	-1	1	1.0	1.0	upper	../fonts/Verdana.ttf
2527858	WORD	wordpools/wasnorm_wordpool.txt	LTP111	ltpFR	15	14	-1	BUCKLE	185	n/a	-1	1	1.0	1.0	upper	../fonts/Verdana.ttf
2531895	WORD	wordpools/wasnorm_wordpool.txt	LTP111	ltpFR	15	14	-1	FIREPLACE	570	n/a	-1	1	1.0	1.0	upper	../fonts/Verdana.ttf
2536082	WORD	wordpools/wasnorm_wordpool.txt	LTP111	ltpFR	15	14	-1	STALLION	1369	n/a	-1	1	1.0	1.0	upper	../fonts/Verdana.ttf
2540160	WORD	wordpools/wasnorm_wordpool.txt	LTP111	ltpFR	15	14	-1	WINGS	1614	n/a	-1	1	1.0	1.0	upper	../fonts/Verdana.ttf
2544123	WORD	wordpools/wasnorm_wordpool.txt	LTP111	ltpFR	15	14	-1	BREAST	171	n/a	-1	1	1.0	1.0	upper	../fonts/Verdana.ttf
2548218	WORD	wordpools/wasnorm_wordpool.txt	LTP111	ltpFR	15	14	-1	BALCONY	72	n/a	-1	1	1.0	1.0	upper	../fonts/Verdana.ttf
2552038	WORD	wordpools/wasnorm_wordpool.txt	LTP111	ltpFR	15	14	-1	EYELASH	546	n/a	-1	1	1.0	1.0	upper	../fonts/Verdana.ttf
2555925	WORD	wordpools/wasnorm_wordpool.txt	LTP111	ltpFR	15	14	-1	LASH	802	n/a	-1	1	1.0	1.0	upper	../fonts/Verdana.ttf
2559738	WORD	wordpools/wasnorm_wordpool.txt	LTP111	ltpFR	15	14	-1	STABLE	1363	n/a	-1	1	1.0	1.0	upper	../fonts/Verdana.ttf
2563850	WORD	wordpools/wasnorm_wordpool.txt	LTP111	ltpFR	15	14	-1	SAW	1239	n/a	-1	1	1.0	1.0	upper	../fonts/Verdana.ttf
2567895	WORD	wordpools/wasnorm_wordpool.txt	LTP111	ltpFR	15	14	-1	CARROT	249	n/a	-1	1	1.0	1.0	upper	../fonts/Verdana.ttf
2571707	WORD	wordpools/wasnorm_wordpool.txt	LTP111	ltpFR	15	14	-1	CHIEF	298	n/a	-1	1	1.0	1.0	upper	../fonts/Verdana.ttf
2575569	WORD	wordpools/wasnorm_wordpool.txt	LTP111	ltpFR	15	14	-1	ONION	977	n/a	-1	1	1.0	1.0	upper	../fonts/Verdana.ttf
2579465	WORD	wordpools/wasnorm_wordpool.txt	LTP111	ltpFR	15	14	-1	FOOT	590	n/a	-1	1	1.0	1.0	upper	../fonts/Verdana.ttf
2583352	WORD	wordpools/wasnorm_wordpool.txt	LTP111	ltpFR	15	14	-1	ANKLE	24	n/a	-1	1	1.0	1.0	upper	../fonts/Verdana.ttf
2589354	REC_START	n/a	LTP111	ltpFR	15	14	n/a	n/a	n/a	n/a	n/a	n/a	n/a	n/a	n/a	n/a
2590945	REC_WORD	wordpools/wasnorm_wordpool.txt	LTP111	ltpFR	15	14	-1	FOOT	590	n/a	-1	n/a	n/a	n/a	n/a	n/a
2591693	REC_WORD	wordpools/wasnorm_wordpool.txt	LTP111	ltpFR	15	14	-1	ANKLE	24	n/a	-1	n/a	n/a	n/a	n/a	n/a
2592267	REC_WORD	wordpools/wasnorm_wordpool.txt	LTP111	ltpFR	15	14	-1	FRUIT	610	n/a	-1	n/a	n/a	n/a	n/a	n/a
2597719	REC_WORD	wordpools/wasnorm_wordpool.txt	LTP111	ltpFR	15	14	-1	STALLION	1369	n/a	-1	n/a	n/a	n/a	n/a	n/a
2599326	REC_WORD	wordpools/wasnorm_wordpool.txt	LTP111	ltpFR	15	14	-1	STABLE	1363	n/a	-1	n/a	n/a	n/a	n/a	n/a
2600618	REC_WORD	wordpools/wasnorm_wordpool.txt	LTP111	ltpFR	15	14	-1	CARROT	249	n/a	-1	n/a	n/a	n/a	n/a	n/a
2602604	REC_WORD	wordpools/wasnorm_wordpool.txt	LTP111	ltpFR	15	14	-1	WINGS	1614	n/a	-1	n/a	n/a	n/a	n/a	n/a
2606629	REC_WORD	wordpools/wasnorm_wordpool.txt	LTP111	ltpFR	15	14	-1	BREAST	171	n/a	-1	n/a	n/a	n/a	n/a	n/a
2608181	REC_WORD	wordpools/wasnorm_wordpool.txt	LTP111	ltpFR	15	14	-1	ONION	977	n/a	-1	n/a	n/a	n/a	n/a	n/a
2610366	REC_WORD	wordpools/wasnorm_wordpool.txt	LTP111	ltpFR	15	14	-1	LASH	802	n/a	-1	n/a	n/a	n/a	n/a	n/a
2612232	REC_WORD	wordpools/wasnorm_wordpool.txt	LTP111	ltpFR	15	14	-1	EYELASH	546	n/a	-1	n/a	n/a	n/a	n/a	n/a
2614457	REC_WORD	wordpools/wasnorm_wordpool.txt	LTP111	ltpFR	15	14	-1	BALCONY	72	n/a	-1	n/a	n/a	n/a	n/a	n/a
2617010	REC_WORD	wordpools/wasnorm_wordpool.txt	LTP111	ltpFR	15	14	-1	SAW	1239	n/a	-1	n/a	n/a	n/a	n/a	n/a
2619231	REC_WORD	wordpools/wasnorm_wordpool.txt	LTP111	ltpFR	15	14	-1	CHIEF	298	n/a	-1	n/a	n/a	n/a	n/a	n/a
2673481	WORD	wordpools/wasnorm_wordpool.txt	LTP111	ltpFR	15	15	-1	COLLEGE	346	n/a	-1	1	1.0	1.0	upper	../fonts/Verdana.ttf
2677518	WORD	wordpools/wasnorm_wordpool.txt	LTP111	ltpFR	15	15	-1	PATIENT	1024	n/a	-1	1	1.0	1.0	upper	../fonts/Verdana.ttf
2681388	WORD	wordpools/wasnorm_wordpool.txt	LTP111	ltpFR	15	15	-1	STOVE	1388	n/a	-1	1	1.0	1.0	upper	../fonts/Verdana.ttf
2685534	WORD	wordpools/wasnorm_wordpool.txt	LTP111	ltpFR	15	15	-1	SIRLOIN	1311	n/a	-1	1	1.0	1.0	upper	../fonts/Verdana.ttf
2689654	WORD	wordpools/wasnorm_wordpool.txt	LTP111	ltpFR	15	15	-1	DICE	461	n/a	-1	1	1.0	1.0	upper	../fonts/Verdana.ttf
2693574	WORD	wordpools/wasnorm_wordpool.txt	LTP111	ltpFR	15	15	-1	COLUMN	350	n/a	-1	1	1.0	1.0	upper	../fonts/Verdana.ttf
2697570	WORD	wordpools/wasnorm_wordpool.txt	LTP111	ltpFR	15	15	-1	ENCYCLOPEDIA	533	n/a	-1	1	1.0	1.0	upper	../fonts/Verdana.ttf
2701690	WORD	wordpools/wasnorm_wordpool.txt	LTP111	ltpFR	15	15	-1	PAGE	1001	n/a	-1	1	1.0	1.0	upper	../fonts/Verdana.ttf
2705510	WORD	wordpools/wasnorm_wordpool.txt	LTP111	ltpFR	15	15	-1	COBBLER	335	n/a	-1	1	1.0	1.0	upper	../fonts/Verdana.ttf
2709722	WORD	wordpools/wasnorm_wordpool.txt	LTP111	ltpFR	15	15	-1	BANANA	77	n/a	-1	1	1.0	1.0	upper	../fonts/Verdana.ttf
2713767	WORD	wordpools/wasnorm_wordpool.txt	LTP111	ltpFR	15	15	-1	CUBE	420	n/a	-1	1	1.0	1.0	upper	../fonts/Verdana.ttf
2717596	WORD	wordpools/wasnorm_wordpool.txt	LTP111	ltpFR	15	15	-1	SURGEON	1413	n/a	-1	1	1.0	1.0	upper	../fonts/Verdana.ttf
2721767	WORD	wordpools/wasnorm_wordpool.txt	LTP111	ltpFR	15	15	-1	POTATO	1115	n/a	-1	1	1.0	1.0	upper	../fonts/Verdana.ttf
2725787	WORD	wordpools/wasnorm_wordpool.txt	LTP111	ltpFR	15	15	-1	TELEVISION	1447	n/a	-1	1	1.0	1.0	upper	../fonts/Verdana.ttf
2729724	WORD	wordpools/wasnorm_wordpool.txt	LTP111	ltpFR	15	15	-1	EDITOR	516	n/a	-1	1	1.0	1.0	upper	../fonts/Verdana.ttf
2733769	WORD	wordpools/wasnorm_wordpool.txt	LTP111	ltpFR	15	15	-1	STAFF	1365	n/a	-1	1	1.0	1.0	upper	../fonts/Verdana.ttf
2739572	REC_START	n/a	LTP111	ltpFR	15	15	n/a	n/a	n/a	n/a	n/a	n/a	n/a	n/a	n/a	n/a
2740629	REC_WORD	wordpools/wasnorm_wordpool.txt	LTP111	ltpFR	15	15	-1	EDITOR	516	n/a	-1	n/a	n/a	n/a	n/a	n/a
2741188	REC_WORD	wordpools/wasnorm_wordpool.txt	LTP111	ltpFR	15	15	-1	STAFF	1365	n/a	-1	n/a	n/a	n/a	n/a	n/a
2741667	REC_WORD	wordpools/wasnorm_wordpool.txt	LTP111	ltpFR	15	15	-1	COLLEGE	346	n/a	-1	n/a	n/a	n/a	n/a	n/a
2742255	REC_WORD	wordpools/wasnorm_wordpool.txt	LTP111	ltpFR	15	15	-1	PATIENT	1024	n/a	-1	n/a	n/a	n/a	n/a	n/a
2744920	REC_WORD	wordpools/wasnorm_wordpool.txt	LTP111	ltpFR	15	15	n/a	OVEN	991	n/a	n/a	n/a	n/a	n/a	n/a	n/a
2745563	REC_WORD	wordpools/wasnorm_wordpool.txt	LTP111	ltpFR	15	15	-1	STOVE	1388	n/a	-1	n/a	n/a	n/a	n/a	n/a
2752218	REC_WORD	wordpools/wasnorm_wordpool.txt	LTP111	ltpFR	15	15	n/a	KITCHEN	778	n/a	n/a	n/a	n/a	n/a	n/a	n/a
2755919	REC_WORD	wordpools/wasnorm_wordpool.txt	LTP111	ltpFR	15	15	-1	SIRLOIN	1311	n/a	-1	n/a	n/a	n/a	n/a	n/a
2758140	REC_WORD	wordpools/wasnorm_wordpool.txt	LTP111	ltpFR	15	15	-1	POTATO	1115	n/a	-1	n/a	n/a	n/a	n/a	n/a
2759990	REC_WORD	wordpools/wasnorm_wordpool.txt	LTP111	ltpFR	15	15	-1	BANANA	77	n/a	-1	n/a	n/a	n/a	n/a	n/a
2762101	REC_WORD	wordpools/wasnorm_wordpool.txt	LTP111	ltpFR	15	15	-1	COBBLER	335	n/a	-1	n/a	n/a	n/a	n/a	n/a
2764235	REC_WORD	wordpools/wasnorm_wordpool.txt	LTP111	ltpFR	15	15	-1	SURGEON	1413	n/a	-1	n/a	n/a	n/a	n/a	n/a
2766396	REC_WORD	wordpools/wasnorm_wordpool.txt	LTP111	ltpFR	15	15	-1	DICE	461	n/a	-1	n/a	n/a	n/a	n/a	n/a
2768486	REC_WORD	wordpools/wasnorm_wordpool.txt	LTP111	ltpFR	15	15	-1	CUBE	420	n/a	-1	n/a	n/a	n/a	n/a	n/a
2770636	REC_WORD	wordpools/wasnorm_wordpool.txt	LTP111	ltpFR	15	15	-1	COLUMN	350	n/a	-1	n/a	n/a	n/a	n/a	n/a
2772327	REC_WORD	wordpools/wasnorm_wordpool.txt	LTP111	ltpFR	15	15	-1	EDITOR	516	n/a	-1	n/a	n/a	n/a	n/a	n/a
2773529	REC_WORD	wordpools/wasnorm_wordpool.txt	LTP111	ltpFR	15	15	-1	STAFF	1365	n/a	-1	n/a	n/a	n/a	n/a	n/a
2818213	WORD	wordpools/wasnorm_wordpool.txt	LTP111	ltpFR	15	16	0	BRIEFCASE	175	n/a	0	0	0.5869140625	0.422607421875	lower	../fonts/amplitud.ttf
2822408	WORD	wordpools/wasnorm_wordpool.txt	LTP111	ltpFR	15	16	0	SUITCASE	1403	n/a	0	0	0.5869140625	0.422607421875	lower	../fonts/amplitud.ttf
2826280	WORD	wordpools/wasnorm_wordpool.txt	LTP111	ltpFR	15	16	0	NOTEBOOK	959	n/a	0	0	0.5869140625	0.422607421875	lower	../fonts/amplitud.ttf
2830465	WORD	wordpools/wasnorm_wordpool.txt	LTP111	ltpFR	15	16	0	RACK	1154	n/a	0	0	0.5869140625	0.422607421875	lower	../fonts/amplitud.ttf
2834353	WORD	wordpools/wasnorm_wordpool.txt	LTP111	ltpFR	15	16	0	CUPBOARD	425	n/a	0	0	0.5869140625	0.422607421875	lower	../fonts/amplitud.ttf
2838465	WORD	wordpools/wasnorm_wordpool.txt	LTP111	ltpFR	15	16	0	FARMER	553	n/a	0	0	0.5869140625	0.422607421875	lower	../fonts/amplitud.ttf
2842526	WORD	wordpools/wasnorm_wordpool.txt	LTP111	ltpFR	15	16	0	SODA	1341	n/a	0	0	0.5869140625	0.422607421875	lower	../fonts/amplitud.ttf
2846480	WORD	wordpools/wasnorm_wordpool.txt	LTP111	ltpFR	15	16	0	COBWEB	337	n/a	0	0	0.5869140625	0.422607421875	lower	../fonts/amplitud.ttf
2850592	WORD	wordpools/wasnorm_wordpool.txt	LTP111	ltpFR	15	16	0	GRASSHOPPER	656	n/a	0	0	0.5869140625	0.422607421875	lower	../fonts/amplitud.ttf
2854646	WORD	wordpools/wasnorm_wordpool.txt	LTP111	ltpFR	15	16	0	FLOUR	583	n/a	0	0	0.5869140625	0.422607421875	lower	../fonts/amplitud.ttf
2858583	WORD	wordpools/wasnorm_wordpool.txt	LTP111	ltpFR	15	16	0	SCROLL	1257	n/a	0	0	0.5869140625	0.422607421875	lower	../fonts/amplitud.ttf
2862720	WORD	wordpools/wasnorm_wordpool.txt	LTP111	ltpFR	15	16	0	SPINACH	1352	n/a	0	0	0.5869140625	0.422607421875	lower	../fonts/amplitud.ttf
2866607	WORD	wordpools/wasnorm_wordpool.txt	LTP111	ltpFR	15	16	0	BOWL	158	n/a	0	0	0.5869140625	0.422607421875	lower	../fonts/amplitud.ttf
2870419	WORD	wordpools/wasnorm_wordpool.txt	LTP111	ltpFR	15	16	0	SURVEY	1414	n/a	0	0	0.5869140625	0.422607421875	lower	../fonts/amplitud.ttf
2874539	WORD	wordpools/wasnorm_wordpool.txt	LTP111	ltpFR	15	16	0	HAND	683	n/a	0	0	0.5869140625	0.422607421875	lower	../fonts/amplitud.ttf
2878435	WORD	wordpools/wasnorm_wordpool.txt	LTP111	ltpFR	15	16	0	FINGERNAIL	568	n/a	0	0	0.5869140625	0.422607421875	lower	../fonts/amplitud.ttf
2884246	REC_START	n/a	LTP111	ltpFR	15	16	n/a	n/a	n/a	n/a	n/a	n/a	n/a	n/a	n/a	n/a
2885318	REC_WORD	wordpools/wasnorm_wordpool.txt	LTP111	ltpFR	15	16	0	HAND	683	n/a	0	n/a	n/a	n/a	n/a	n/a
2885827	REC_WORD	wordpools/wasnorm_wordpool.txt	LTP111	ltpFR	15	16	0	FINGERNAIL	568	n/a	0	n/a	n/a	n/a	n/a	n/a
2888691	REC_WORD	wordpools/wasnorm_wordpool.txt	LTP111	ltpFR	15	16	0	BRIEFCASE	175	n/a	0	n/a	n/a	n/a	n/a	n/a
2891334	REC_WORD	wordpools/wasnorm_wordpool.txt	LTP111	ltpFR	15	16	n/a	KITCHEN	778	n/a	n/a	n/a	n/a	n/a	n/a	n/a
2894313	REC_WORD	wordpools/wasnorm_wordpool.txt	LTP111	ltpFR	15	16	0	GRASSHOPPER	656	n/a	0	n/a	n/a	n/a	n/a	n/a
2897082	REC_WORD	wordpools/wasnorm_wordpool.txt	LTP111	ltpFR	15	16	n/a	SHELF	1280	n/a	n/a	n/a	n/a	n/a	n/a	n/a
2898598	REC_WORD	wordpools/wasnorm_wordpool.txt	LTP111	ltpFR	15	16	0	CUPBOARD	425	n/a	0	n/a	n/a	n/a	n/a	n/a
2900473	REC_WORD	wordpools/wasnorm_wordpool.txt	LTP111	ltpFR	15	16	0	FARMER	553	n/a	0	n/a	n/a	n/a	n/a	n/a
2903281	REC_WORD	wordpools/wasnorm_wordpool.txt	LTP111	ltpFR	15	16	-1	ENCYCLOPEDIA	533	n/a	-1	n/a	n/a	n/a	n/a	n/a
2904559	REC_WORD	wordpools/wasnorm_wordpool.txt	LTP111	ltpFR	15	16	0	SCROLL	1257	n/a	0	n/a	n/a	n/a	n/a	n/a
2906874	REC_WORD	wordpools/wasnorm_wordpool.txt	LTP111	ltpFR	15	16	0	SODA	1341	n/a	0	n/a	n/a	n/a	n/a	n/a
2908131	REC_WORD	wordpools/wasnorm_wordpool.txt	LTP111	ltpFR	15	16	0	BOWL	158	n/a	0	n/a	n/a	n/a	n/a	n/a
2910102	REC_WORD	wordpools/wasnorm_wordpool.txt	LTP111	ltpFR	15	16	0	FLOUR	583	n/a	0	n/a	n/a	n/a	n/a	n/a
2912456	REC_WORD	wordpools/wasnorm_wordpool.txt	LTP111	ltpFR	15	16	0	SPINACH	1352	n/a	0	n/a	n/a	n/a	n/a	n/a
2971969	REC_START	n/a	LTP111	ltpFR	15	n/a	n/a	n/a	n/a	n/a	n/a	n/a	n/a	n/a	n/a	n/a
2973884	FFR_REC_WORD	wordpools/wasnorm_wordpool.txt	LTP111	ltpFR	15	n/a	0	FINGERNAIL	568	n/a	0	n/a	n/a	n/a	n/a	n/a
2977012	FFR_REC_WORD	wordpools/wasnorm_wordpool.txt	LTP111	ltpFR	15	n/a	0	HAND	683	n/a	0	n/a	n/a	n/a	n/a	n/a
2980634	FFR_REC_WORD	wordpools/wasnorm_wordpool.txt	LTP111	ltpFR	15	n/a	0	GRASSHOPPER	656	n/a	0	n/a	n/a	n/a	n/a	n/a
2983418	FFR_REC_WORD	wordpools/wasnorm_wordpool.txt	LTP111	ltpFR	15	n/a	0	BRIEFCASE	175	n/a	0	n/a	n/a	n/a	n/a	n/a
2986226	FFR_REC_WORD	wordpools/wasnorm_wordpool.txt	LTP111	ltpFR	15	n/a	n/a	SHELF	1280	n/a	n/a	n/a	n/a	n/a	n/a	n/a
2989788	FFR_REC_WORD	wordpools/wasnorm_wordpool.txt	LTP111	ltpFR	15	n/a	-1	ENCYCLOPEDIA	533	n/a	-1	n/a	n/a	n/a	n/a	n/a
2992871	FFR_REC_WORD	wordpools/wasnorm_wordpool.txt	LTP111	ltpFR	15	n/a	0	SCROLL	1257	n/a	0	n/a	n/a	n/a	n/a	n/a
2995605	FFR_REC_WORD	wordpools/wasnorm_wordpool.txt	LTP111	ltpFR	15	n/a	0	FARMER	553	n/a	0	n/a	n/a	n/a	n/a	n/a
2998293	FFR_REC_WORD	wordpools/wasnorm_wordpool.txt	LTP111	ltpFR	15	n/a	0	SODA	1341	n/a	0	n/a	n/a	n/a	n/a	n/a
2999820	FFR_REC_WORD	wordpools/wasnorm_wordpool.txt	LTP111	ltpFR	15	n/a	0	BOWL	158	n/a	0	n/a	n/a	n/a	n/a	n/a
3000683	FFR_REC_WORD	wordpools/wasnorm_wordpool.txt	LTP111	ltpFR	15	n/a	0	SPINACH	1352	n/a	0	n/a	n/a	n/a	n/a	n/a
3002045	FFR_REC_WORD	wordpools/wasnorm_wordpool.txt	LTP111	ltpFR	15	n/a	n/a	FLOWER	584	n/a	n/a	n/a	n/a	n/a	n/a	n/a
3006929	FFR_REC_WORD	wordpools/wasnorm_wordpool.txt	LTP111	ltpFR	15	n/a	1	LAGOON	795	n/a	0	n/a	n/a	n/a	n/a	n/a
3009074	FFR_REC_WORD	wordpools/wasnorm_wordpool.txt	LTP111	ltpFR	15	n/a	1	COB	334	n/a	1	n/a	n/a	n/a	n/a	n/a
3010446	FFR_REC_WORD	wordpools/wasnorm_wordpool.txt	LTP111	ltpFR	15	n/a	0	MUSHROOM	934	n/a	0	n/a	n/a	n/a	n/a	n/a
3014761	FFR_REC_WORD	wordpools/wasnorm_wordpool.txt	LTP111	ltpFR	15	n/a	1	RAISIN	1163	n/a	0	n/a	n/a	n/a	n/a	n/a
3016811	FFR_REC_WORD	wordpools/wasnorm_wordpool.txt	LTP111	ltpFR	15	n/a	0	SUSPECT	1415	n/a	0	n/a	n/a	n/a	n/a	n/a
3019097	FFR_REC_WORD	wordpools/wasnorm_wordpool.txt	LTP111	ltpFR	15	n/a	0	DAM	436	n/a	0	n/a	n/a	n/a	n/a	n/a
3024479	FFR_REC_WORD	wordpools/wasnorm_wordpool.txt	LTP111	ltpFR	15	n/a	0	CRIMINAL	409	n/a	0	n/a	n/a	n/a	n/a	n/a
3036042	FFR_REC_WORD	wordpools/wasnorm_wordpool.txt	LTP111	ltpFR	15	n/a	n/a	CHRISTMAS	-1	n/a	n/a	n/a	n/a	n/a	n/a	n/a
3038213	FFR_REC_WORD	wordpools/wasnorm_wordpool.txt	LTP111	ltpFR	15	n/a	-1	WINGS	1614	n/a	-1	n/a	n/a	n/a	n/a	n/a
3041805	FFR_REC_WORD	wordpools/wasnorm_wordpool.txt	LTP111	ltpFR	15	n/a	-1	FRUIT	610	n/a	-1	n/a	n/a	n/a	n/a	n/a
3045689	FFR_REC_WORD	wordpools/wasnorm_wordpool.txt	LTP111	ltpFR	15	n/a	-1	STALLION	1369	n/a	-1	n/a	n/a	n/a	n/a	n/a
3048529	FFR_REC_WORD	wordpools/wasnorm_wordpool.txt	LTP111	ltpFR	15	n/a	-1	STABLE	1363	n/a	-1	n/a	n/a	n/a	n/a	n/a
3051144	FFR_REC_WORD	wordpools/wasnorm_wordpool.txt	LTP111	ltpFR	15	n/a	-1	CARROT	249	n/a	-1	n/a	n/a	n/a	n/a	n/a
3053399	FFR_REC_WORD	wordpools/wasnorm_wordpool.txt	LTP111	ltpFR	15	n/a	-1	ONION	977	n/a	-1	n/a	n/a	n/a	n/a	n/a
3057165	FFR_REC_WORD	wordpools/wasnorm_wordpool.txt	LTP111	ltpFR	15	n/a	-1	FOOT	590	n/a	-1	n/a	n/a	n/a	n/a	n/a
3058178	FFR_REC_WORD	wordpools/wasnorm_wordpool.txt	LTP111	ltpFR	15	n/a	-1	ANKLE	24	n/a	-1	n/a	n/a	n/a	n/a	n/a
3059963	FFR_REC_WORD	wordpools/wasnorm_wordpool.txt	LTP111	ltpFR	15	n/a	-1	SAW	1239	n/a	-1	n/a	n/a	n/a	n/a	n/a
3082418	FFR_REC_WORD	wordpools/wasnorm_wordpool.txt	LTP111	ltpFR	15	n/a	1	OLIVE	975	n/a	1	n/a	n/a	n/a	n/a	n/a
3084074	FFR_REC_WORD	wordpools/wasnorm_wordpool.txt	LTP111	ltpFR	15	n/a	1	SHRIMP	1297	n/a	1	n/a	n/a	n/a	n/a	n/a
3086014	FFR_REC_WORD	wordpools/wasnorm_wordpool.txt	LTP111	ltpFR	15	n/a	1	LOBBY	836	n/a	0	n/a	n/a	n/a	n/a	n/a
3088878	FFR_REC_WORD	wordpools/wasnorm_wordpool.txt	LTP111	ltpFR	15	n/a	1	CONVENT	370	n/a	0	n/a	n/a	n/a	n/a	n/a
3090558	FFR_REC_WORD	wordpools/wasnorm_wordpool.txt	LTP111	ltpFR	15	n/a	1	SCHOOL	1248	n/a	0	n/a	n/a	n/a	n/a	n/a
3092719	FFR_REC_WORD	wordpools/wasnorm_wordpool.txt	LTP111	ltpFR	15	n/a	1	DIME	466	n/a	0	n/a	n/a	n/a	n/a	n/a
3095078	FFR_REC_WORD	wordpools/wasnorm_wordpool.txt	LTP111	ltpFR	15	n/a	n/a	HOTEL	-1	n/a	n/a	n/a	n/a	n/a	n/a	n/a
3097084	FFR_REC_WORD	wordpools/wasnorm_wordpool.txt	LTP111	ltpFR	15	n/a	1	CHICKEN	297	n/a	0	n/a	n/a	n/a	n/a	n/a
3098989	FFR_REC_WORD	wordpools/wasnorm_wordpool.txt	LTP111	ltpFR	15	n/a	1	SUPPER	1411	n/a	0	n/a	n/a	n/a	n/a	n/a
3103275	FFR_REC_WORD	wordpools/wasnorm_wordpool.txt	LTP111	ltpFR	15	n/a	1	MOTHER	921	n/a	1	n/a	n/a	n/a	n/a	n/a
3108723	FFR_REC_WORD	wordpools/wasnorm_wordpool.txt	LTP111	ltpFR	15	n/a	1	HALL	677	n/a	0	n/a	n/a	n/a	n/a	n/a
3111032	FFR_REC_WORD	wordpools/wasnorm_wordpool.txt	LTP111	ltpFR	15	n/a	1	ATTORNEY	58	n/a	0	n/a	n/a	n/a	n/a	n/a
3291656	REC_START	n/a	LTP111	ltpFR	15	1	n/a	n/a	n/a	n/a	n/a	n/a	n/a	n/a	n/a	n/a
3291689	RECOG_TARGET	n/a	LTP111	ltpFR	15	1	0	PAINTING	1005	2	0	n/a	n/a	n/a	n/a	n/a
3294524	RECOG_RESP	n/a	LTP111	ltpFR	15	1	0	PAINTING	1005	n/a	0	n/a	n/a	n/a	n/a	n/a
3295991	RECOG_CONF	n/a	LTP111	ltpFR	15	1	0	PAINTING	1005	2	0	n/a	n/a	n/a	n/a	n/a
3297582	RECOG_TARGET	n/a	LTP111	ltpFR	15	1	1	STRAWBERRY	1391	4	1	n/a	n/a	n/a	n/a	n/a
3298321	RECOG_RESP	n/a	LTP111	ltpFR	15	1	1	STRAWBERRY	1391	n/a	1	n/a	n/a	n/a	n/a	n/a
3299962	RECOG_CONF	n/a	LTP111	ltpFR	15	1	1	STRAWBERRY	1391	4	1	n/a	n/a	n/a	n/a	n/a
3301536	RECOG_TARGET	n/a	LTP111	ltpFR	15	1	0	RIVER	1194	1	0	n/a	n/a	n/a	n/a	n/a
3302336	RECOG_RESP	n/a	LTP111	ltpFR	15	1	0	RIVER	1194	n/a	0	n/a	n/a	n/a	n/a	n/a
3303165	RECOG_CONF	n/a	LTP111	ltpFR	15	1	0	RIVER	1194	1	0	n/a	n/a	n/a	n/a	n/a
3304582	RECOG_LURE	n/a	LTP111	ltpFR	15	1	n/a	SHOELACE	1289	1	n/a	n/a	n/a	n/a	n/a	n/a
3305260	RECOG_RESP	n/a	LTP111	ltpFR	15	1	n/a	SHOELACE	1289	n/a	n/a	n/a	n/a	n/a	n/a	n/a
3306038	RECOG_CONF	n/a	LTP111	ltpFR	15	1	n/a	SHOELACE	1289	1	n/a	n/a	n/a	n/a	n/a	n/a
3307354	RECOG_TARGET	n/a	LTP111	ltpFR	15	1	0	BOOTH	151	1	0	n/a	n/a	n/a	n/a	n/a
3308308	RECOG_RESP	n/a	LTP111	ltpFR	15	1	0	BOOTH	151	n/a	0	n/a	n/a	n/a	n/a	n/a
3309301	RECOG_CONF	n/a	LTP111	ltpFR	15	1	0	BOOTH	151	1	0	n/a	n/a	n/a	n/a	n/a
3310858	RECOG_TARGET	n/a	LTP111	ltpFR	15	1	0	CRAYON	401	3	0	n/a	n/a	n/a	n/a	n/a
3311765	RECOG_RESP	n/a	LTP111	ltpFR	15	1	0	CRAYON	401	n/a	0	n/a	n/a	n/a	n/a	n/a
3312763	RECOG_CONF	n/a	LTP111	ltpFR	15	1	0	CRAYON	401	3	0	n/a	n/a	n/a	n/a	n/a
3314138	RECOG_TARGET	n/a	LTP111	ltpFR	15	1	1	MILDEW	893	2	0	n/a	n/a	n/a	n/a	n/a
3315422	RECOG_RESP	n/a	LTP111	ltpFR	15	1	1	MILDEW	893	n/a	0	n/a	n/a	n/a	n/a	n/a
3316574	RECOG_CONF	n/a	LTP111	ltpFR	15	1	1	MILDEW	893	2	0	n/a	n/a	n/a	n/a	n/a
3318058	RECOG_TARGET	n/a	LTP111	ltpFR	15	1	0	CRIMINAL	409	5	0	n/a	n/a	n/a	n/a	n/a
3318734	RECOG_RESP	n/a	LTP111	ltpFR	15	1	0	CRIMINAL	409	n/a	0	n/a	n/a	n/a	n/a	n/a
3319627	RECOG_CONF	n/a	LTP111	ltpFR	15	1	0	CRIMINAL	409	5	0	n/a	n/a	n/a	n/a	n/a
3321113	RECOG_LURE	n/a	LTP111	ltpFR	15	1	n/a	SQUIRREL	1362	1	n/a	n/a	n/a	n/a	n/a	n/a
3322650	RECOG_RESP	n/a	LTP111	ltpFR	15	1	n/a	SQUIRREL	1362	n/a	n/a	n/a	n/a	n/a	n/a	n/a
3323917	RECOG_CONF	n/a	LTP111	ltpFR	15	1	n/a	SQUIRREL	1362	1	n/a	n/a	n/a	n/a	n/a	n/a
3325691	RECOG_LURE	n/a	LTP111	ltpFR	15	1	n/a	NICKEL	950	3	n/a	n/a	n/a	n/a	n/a	n/a
3326412	RECOG_RESP	n/a	LTP111	ltpFR	15	1	n/a	NICKEL	950	n/a	n/a	n/a	n/a	n/a	n/a	n/a
3327350	RECOG_CONF	n/a	LTP111	ltpFR	15	1	n/a	NICKEL	950	3	n/a	n/a	n/a	n/a	n/a	n/a
3328746	RECOG_TARGET	n/a	LTP111	ltpFR	15	1	-1	EDITOR	516	5	-1	n/a	n/a	n/a	n/a	n/a
3329560	RECOG_RESP	n/a	LTP111	ltpFR	15	1	-1	EDITOR	516	n/a	-1	n/a	n/a	n/a	n/a	n/a
3330433	RECOG_CONF	n/a	LTP111	ltpFR	15	1	-1	EDITOR	516	5	-1	n/a	n/a	n/a	n/a	n/a
3332017	RECOG_LURE	n/a	LTP111	ltpFR	15	1	n/a	BATTERY	101	1	n/a	n/a	n/a	n/a	n/a	n/a
3332887	RECOG_RESP	n/a	LTP111	ltpFR	15	1	n/a	BATTERY	101	n/a	n/a	n/a	n/a	n/a	n/a	n/a
3333725	RECOG_CONF	n/a	LTP111	ltpFR	15	1	n/a	BATTERY	101	1	n/a	n/a	n/a	n/a	n/a	n/a
3335213	RECOG_TARGET	n/a	LTP111	ltpFR	15	1	1	SKULL	1320	1	0	n/a	n/a	n/a	n/a	n/a
3336030	RECOG_RESP	n/a	LTP111	ltpFR	15	1	1	SKULL	1320	n/a	0	n/a	n/a	n/a	n/a	n/a
3336938	RECOG_CONF	n/a	LTP111	ltpFR	15	1	1	SKULL	1320	1	0	n/a	n/a	n/a	n/a	n/a
3338351	RECOG_LURE	n/a	LTP111	ltpFR	15	1	n/a	CRACKER	398	1	n/a	n/a	n/a	n/a	n/a	n/a
3339243	RECOG_RESP	n/a	LTP111	ltpFR	15	1	n/a	CRACKER	398	n/a	n/a	n/a	n/a	n/a	n/a	n/a
3340161	RECOG_CONF	n/a	LTP111	ltpFR	15	1	n/a	CRACKER	398	1	n/a	n/a	n/a	n/a	n/a	n/a
3341464	RECOG_TARGET	n/a	LTP111	ltpFR	15	1	0	CAMEL	223	2	0	n/a	n/a	n/a	n/a	n/a
3342221	RECOG_RESP	n/a	LTP111	ltpFR	15	1	0	CAMEL	223	n/a	0	n/a	n/a	n/a	n/a	n/a
3343194	RECOG_CONF	n/a	LTP111	ltpFR	15	1	0	CAMEL	223	2	0	n/a	n/a	n/a	n/a	n/a
3344544	RECOG_TARGET	n/a	LTP111	ltpFR	15	1	1	HALL	677	4	0	n/a	n/a	n/a	n/a	n/a
3345264	RECOG_RESP	n/a	LTP111	ltpFR	15	1	1	HALL	677	n/a	0	n/a	n/a	n/a	n/a	n/a
3346137	RECOG_CONF	n/a	LTP111	ltpFR	15	1	1	HALL	677	4	0	n/a	n/a	n/a	n/a	n/a
3347607	RECOG_TARGET	n/a	LTP111	ltpFR	15	1	-1	EAR	513	3	-1	n/a	n/a	n/a	n/a	n/a
3348382	RECOG_RESP	n/a	LTP111	ltpFR	15	1	-1	EAR	513	n/a	-1	n/a	n/a	n/a	n/a	n/a
3349340	RECOG_CONF	n/a	LTP111	ltpFR	15	1	-1	EAR	513	3	-1	n/a	n/a	n/a	n/a	n/a
3350645	RECOG_LURE	n/a	LTP111	ltpFR	15	1	n/a	FLOOR	581	2	n/a	n/a	n/a	n/a	n/a	n/a
3351804	RECOG_RESP	n/a	LTP111	ltpFR	15	1	n/a	FLOOR	581	n/a	n/a	n/a	n/a	n/a	n/a	n/a
3352812	RECOG_CONF	n/a	LTP111	ltpFR	15	1	n/a	FLOOR	581	2	n/a	n/a	n/a	n/a	n/a	n/a
3354191	RECOG_TARGET	n/a	LTP111	ltpFR	15	1	0	PERSON	1052	1	0	n/a	n/a	n/a	n/a	n/a
3355296	RECOG_RESP	n/a	LTP111	ltpFR	15	1	0	PERSON	1052	n/a	0	n/a	n/a	n/a	n/a	n/a
3356094	RECOG_CONF	n/a	LTP111	ltpFR	15	1	0	PERSON	1052	1	0	n/a	n/a	n/a	n/a	n/a
3357504	RECOG_TARGET	n/a	LTP111	ltpFR	15	1	-1	SWATTER	1418	4	-1	n/a	n/a	n/a	n/a	n/a
3358299	RECOG_RESP	n/a	LTP111	ltpFR	15	1	-1	SWATTER	1418	n/a	-1	n/a	n/a	n/a	n/a	n/a
3359207	RECOG_CONF	n/a	LTP111	ltpFR	15	1	-1	SWATTER	1418	4	-1	n/a	n/a	n/a	n/a	n/a
3362144	REC_START	n/a	LTP111	ltpFR	15	2	n/a	n/a	n/a	n/a	n/a	n/a	n/a	n/a	n/a	n/a
3362174	RECOG_TARGET	n/a	LTP111	ltpFR	15	2	1	CORPORATION	382	5	0	n/a	n/a	n/a	n/a	n/a
3362987	RECOG_RESP	n/a	LTP111	ltpFR	15	2	1	CORPORATION	382	n/a	0	n/a	n/a	n/a	n/a	n/a
3363775	RECOG_CONF	n/a	LTP111	ltpFR	15	2	1	CORPORATION	382	5	0	n/a	n/a	n/a	n/a	n/a
3365212	RECOG_TARGET	n/a	LTP111	ltpFR	15	2	0	DONKEY	484	1	0	n/a	n/a	n/a	n/a	n/a
3366130	RECOG_RESP	n/a	LTP111	ltpFR	15	2	0	DONKEY	484	n/a	0	n/a	n/a	n/a	n/a	n/a
3366958	RECOG_CONF	n/a	LTP111	ltpFR	15	2	0	DONKEY	484	1	0	n/a	n/a	n/a	n/a	n/a
3368301	RECOG_TARGET	n/a	LTP111	ltpFR	15	2	0	TRIGGER	1507	1	0	n/a	n/a	n/a	n/a	n/a
3369053	RECOG_RESP	n/a	LTP111	ltpFR	15	2	0	TRIGGER	1507	n/a	0	n/a	n/a	n/a	n/a	n/a
3369791	RECOG_CONF	n/a	LTP111	ltpFR	15	2	0	TRIGGER	1507	1	0	n/a	n/a	n/a	n/a	n/a
3371097	RECOG_TARGET	n/a	LTP111	ltpFR	15	2	1	SHRINE	1298	1	0	n/a	n/a	n/a	n/a	n/a
3373967	RECOG_RESP	n/a	LTP111	ltpFR	15	2	1	SHRINE	1298	n/a	0	n/a	n/a	n/a	n/a	n/a
3374970	RECOG_CONF	n/a	LTP111	ltpFR	15	2	1	SHRINE	1298	1	0	n/a	n/a	n/a	n/a	n/a
3376515	RECOG_TARGET	n/a	LTP111	ltpFR	15	2	0	AMBULANCE	19	1	0	n/a	n/a	n/a	n/a	n/a
3378282	RECOG_RESP	n/a	LTP111	ltpFR	15	2	0	AMBULANCE	19	n/a	0	n/a	n/a	n/a	n/a	n/a
3379100	RECOG_CONF	n/a	LTP111	ltpFR	15	2	0	AMBULANCE	19	1	0	n/a	n/a	n/a	n/a	n/a
3380461	RECOG_TARGET	n/a	LTP111	ltpFR	15	2	1	HORSE	719	1	1	n/a	n/a	n/a	n/a	n/a
3384747	RECOG_RESP	n/a	LTP111	ltpFR	15	2	1	HORSE	719	n/a	1	n/a	n/a	n/a	n/a	n/a
3385556	RECOG_CONF	n/a	LTP111	ltpFR	15	2	1	HORSE	719	1	1	n/a	n/a	n/a	n/a	n/a
3387012	RECOG_TARGET	n/a	LTP111	ltpFR	15	2	0	FLOUR	583	4	0	n/a	n/a	n/a	n/a	n/a
3387791	RECOG_RESP	n/a	LTP111	ltpFR	15	2	0	FLOUR	583	n/a	0	n/a	n/a	n/a	n/a	n/a
3388509	RECOG_CONF	n/a	LTP111	ltpFR	15	2	0	FLOUR	583	4	0	n/a	n/a	n/a	n/a	n/a
3389783	RECOG_LURE	n/a	LTP111	ltpFR	15	2	n/a	BOY	161	1	n/a	n/a	n/a	n/a	n/a	n/a
3390779	RECOG_RESP	n/a	LTP111	ltpFR	15	2	n/a	BOY	161	n/a	n/a	n/a	n/a	n/a	n/a	n/a
3391482	RECOG_CONF	n/a	LTP111	ltpFR	15	2	n/a	BOY	161	1	n/a	n/a	n/a	n/a	n/a	n/a
3392747	RECOG_LURE	n/a	LTP111	ltpFR	15	2	n/a	KID	775	2	n/a	n/a	n/a	n/a	n/a	n/a
3393657	RECOG_RESP	n/a	LTP111	ltpFR	15	2	n/a	KID	775	n/a	n/a	n/a	n/a	n/a	n/a	n/a
3394415	RECOG_CONF	n/a	LTP111	ltpFR	15	2	n/a	KID	775	2	n/a	n/a	n/a	n/a	n/a	n/a
3395702	RECOG_LURE	n/a	LTP111	ltpFR	15	2	n/a	CHIMPANZEE	302	2	n/a	n/a	n/a	n/a	n/a	n/a
3397628	RECOG_RESP	n/a	LTP111	ltpFR	15	2	n/a	CHIMPANZEE	302	n/a	n/a	n/a	n/a	n/a	n/a	n/a
3398436	RECOG_CONF	n/a	LTP111	ltpFR	15	2	n/a	CHIMPANZEE	302	2	n/a	n/a	n/a	n/a	n/a	n/a
3399655	RECOG_TARGET	n/a	LTP111	ltpFR	15	2	0	DRAWING	494	1	0	n/a	n/a	n/a	n/a	n/a
3404343	RECOG_RESP	n/a	LTP111	ltpFR	15	2	0	DRAWING	494	n/a	0	n/a	n/a	n/a	n/a	n/a
3405071	RECOG_CONF	n/a	LTP111	ltpFR	15	2	0	DRAWING	494	1	0	n/a	n/a	n/a	n/a	n/a
3406630	RECOG_TARGET	n/a	LTP111	ltpFR	15	2	0	SUSPECT	1415	1	0	n/a	n/a	n/a	n/a	n/a
3407600	RECOG_RESP	n/a	LTP111	ltpFR	15	2	0	SUSPECT	1415	n/a	0	n/a	n/a	n/a	n/a	n/a
3408254	RECOG_CONF	n/a	LTP111	ltpFR	15	2	0	SUSPECT	1415	1	0	n/a	n/a	n/a	n/a	n/a
3409427	RECOG_LURE	n/a	LTP111	ltpFR	15	2	n/a	MAGICIAN	854	2	n/a	n/a	n/a	n/a	n/a	n/a
3410968	RECOG_RESP	n/a	LTP111	ltpFR	15	2	n/a	MAGICIAN	854	n/a	n/a	n/a	n/a	n/a	n/a	n/a
3411926	RECOG_CONF	n/a	LTP111	ltpFR	15	2	n/a	MAGICIAN	854	2	n/a	n/a	n/a	n/a	n/a	n/a
3413423	RECOG_TARGET	n/a	LTP111	ltpFR	15	2	-1	STOVE	1388	3	-1	n/a	n/a	n/a	n/a	n/a
3415019	RECOG_RESP	n/a	LTP111	ltpFR	15	2	-1	STOVE	1388	n/a	-1	n/a	n/a	n/a	n/a	n/a
3415957	RECOG_CONF	n/a	LTP111	ltpFR	15	2	-1	STOVE	1388	3	-1	n/a	n/a	n/a	n/a	n/a
3417376	RECOG_LURE	n/a	LTP111	ltpFR	15	2	n/a	PIGMENT	1066	2	n/a	n/a	n/a	n/a	n/a	n/a
3418326	RECOG_RESP	n/a	LTP111	ltpFR	15	2	n/a	PIGMENT	1066	n/a	n/a	n/a	n/a	n/a	n/a	n/a
3419239	RECOG_CONF	n/a	LTP111	ltpFR	15	2	n/a	PIGMENT	1066	2	n/a	n/a	n/a	n/a	n/a	n/a
3420489	RECOG_TARGET	n/a	LTP111	ltpFR	15	2	1	ANT	25	1	1	n/a	n/a	n/a	n/a	n/a
3421339	RECOG_RESP	n/a	LTP111	ltpFR	15	2	1	ANT	25	n/a	1	n/a	n/a	n/a	n/a	n/a
3422123	RECOG_CONF	n/a	LTP111	ltpFR	15	2	1	ANT	25	1	1	n/a	n/a	n/a	n/a	n/a
3423444	RECOG_LURE	n/a	LTP111	ltpFR	15	2	n/a	PASSENGER	1020	1	n/a	n/a	n/a	n/a	n/a	n/a
3424283	RECOG_RESP	n/a	LTP111	ltpFR	15	2	n/a	PASSENGER	1020	n/a	n/a	n/a	n/a	n/a	n/a	n/a
3425096	RECOG_CONF	n/a	LTP111	ltpFR	15	2	n/a	PASSENGER	1020	1	n/a	n/a	n/a	n/a	n/a	n/a
3426499	RECOG_LURE	n/a	LTP111	ltpFR	15	2	n/a	CHAIN	273	1	n/a	n/a	n/a	n/a	n/a	n/a
3427226	RECOG_RESP	n/a	LTP111	ltpFR	15	2	n/a	CHAIN	273	n/a	n/a	n/a	n/a	n/a	n/a	n/a
3428059	RECOG_CONF	n/a	LTP111	ltpFR	15	2	n/a	CHAIN	273	1	n/a	n/a	n/a	n/a	n/a	n/a
3429387	RECOG_TARGET	n/a	LTP111	ltpFR	15	2	-1	BALCONY	72	1	-1	n/a	n/a	n/a	n/a	n/a
3431746	RECOG_RESP	n/a	LTP111	ltpFR	15	2	-1	BALCONY	72	n/a	-1	n/a	n/a	n/a	n/a	n/a
3432599	RECOG_CONF	n/a	LTP111	ltpFR	15	2	-1	BALCONY	72	1	-1	n/a	n/a	n/a	n/a	n/a
3434107	RECOG_LURE	n/a	LTP111	ltpFR	15	2	n/a	GAZELLE	628	3	n/a	n/a	n/a	n/a	n/a	n/a
3435218	RECOG_RESP	n/a	LTP111	ltpFR	15	2	n/a	GAZELLE	628	n/a	n/a	n/a	n/a	n/a	n/a	n/a
3436181	RECOG_CONF	n/a	LTP111	ltpFR	15	2	n/a	GAZELLE	628	3	n/a	n/a	n/a	n/a	n/a	n/a
3439445	REC_START	n/a	LTP111	ltpFR	15	3	n/a	n/a	n/a	n/a	n/a	n/a	n/a	n/a	n/a	n/a
3439476	RECOG_TARGET	n/a	LTP111	ltpFR	15	3	0	COAT	333	2	0	n/a	n/a	n/a	n/a	n/a
3440637	RECOG_RESP	n/a	LTP111	ltpFR	15	3	0	COAT	333	n/a	0	n/a	n/a	n/a	n/a	n/a
3441705	RECOG_CONF	n/a	LTP111	ltpFR	15	3	0	COAT	333	2	0	n/a	n/a	n/a	n/a	n/a
3443088	RECOG_TARGET	n/a	LTP111	ltpFR	15	3	-1	OATS	968	5	-1	n/a	n/a	n/a	n/a	n/a
3444169	RECOG_RESP	n/a	LTP111	ltpFR	15	3	-1	OATS	968	n/a	-1	n/a	n/a	n/a	n/a	n/a
3445077	RECOG_CONF	n/a	LTP111	ltpFR	15	3	-1	OATS	968	5	-1	n/a	n/a	n/a	n/a	n/a
3446584	RECOG_TARGET	n/a	LTP111	ltpFR	15	3	1	WALRUS	1585	5	1	n/a	n/a	n/a	n/a	n/a
3447486	RECOG_RESP	n/a	LTP111	ltpFR	15	3	1	WALRUS	1585	n/a	1	n/a	n/a	n/a	n/a	n/a
3448469	RECOG_CONF	n/a	LTP111	ltpFR	15	3	1	WALRUS	1585	5	1	n/a	n/a	n/a	n/a	n/a
3449847	RECOG_LURE	n/a	LTP111	ltpFR	15	3	n/a	CABBAGE	210	1	n/a	n/a	n/a	n/a	n/a	n/a
3450764	RECOG_RESP	n/a	LTP111	ltpFR	15	3	n/a	CABBAGE	210	n/a	n/a	n/a	n/a	n/a	n/a	n/a
3451652	RECOG_CONF	n/a	LTP111	ltpFR	15	3	n/a	CABBAGE	210	1	n/a	n/a	n/a	n/a	n/a	n/a
3453143	RECOG_TARGET	n/a	LTP111	ltpFR	15	3	1	THIGH	1457	4	1	n/a	n/a	n/a	n/a	n/a
3453947	RECOG_RESP	n/a	LTP111	ltpFR	15	3	1	THIGH	1457	n/a	1	n/a	n/a	n/a	n/a	n/a
3454815	RECOG_CONF	n/a	LTP111	ltpFR	15	3	1	THIGH	1457	4	1	n/a	n/a	n/a	n/a	n/a
3456190	RECOG_LURE	n/a	LTP111	ltpFR	15	3	n/a	ROOT	1210	1	n/a	n/a	n/a	n/a	n/a	n/a
3457414	RECOG_RESP	n/a	LTP111	ltpFR	15	3	n/a	ROOT	1210	n/a	n/a	n/a	n/a	n/a	n/a	n/a
3458457	RECOG_CONF	n/a	LTP111	ltpFR	15	3	n/a	ROOT	1210	1	n/a	n/a	n/a	n/a	n/a	n/a
3459927	RECOG_TARGET	n/a	LTP111	ltpFR	15	3	0	MEAL	882	3	0	n/a	n/a	n/a	n/a	n/a
3460801	RECOG_RESP	n/a	LTP111	ltpFR	15	3	0	MEAL	882	n/a	0	n/a	n/a	n/a	n/a	n/a
3461899	RECOG_CONF	n/a	LTP111	ltpFR	15	3	0	MEAL	882	3	0	n/a	n/a	n/a	n/a	n/a
3463348	RECOG_TARGET	n/a	LTP111	ltpFR	15	3	-1	VACUUM	1543	4	-1	n/a	n/a	n/a	n/a	n/a
3464159	RECOG_RESP	n/a	LTP111	ltpFR	15	3	-1	VACUUM	1543	n/a	-1	n/a	n/a	n/a	n/a	n/a
3465131	RECOG_CONF	n/a	LTP111	ltpFR	15	3	-1	VACUUM	1543	4	-1	n/a	n/a	n/a	n/a	n/a
3466511	RECOG_LURE	n/a	LTP111	ltpFR	15	3	n/a	BALLOON	75	1	n/a	n/a	n/a	n/a	n/a	n/a
3467441	RECOG_RESP	n/a	LTP111	ltpFR	15	3	n/a	BALLOON	75	n/a	n/a	n/a	n/a	n/a	n/a	n/a
3468264	RECOG_CONF	n/a	LTP111	ltpFR	15	3	n/a	BALLOON	75	1	n/a	n/a	n/a	n/a	n/a	n/a
3469732	RECOG_TARGET	n/a	LTP111	ltpFR	15	3	1	RUBY	1214	1	0	n/a	n/a	n/a	n/a	n/a
3470350	RECOG_RESP	n/a	LTP111	ltpFR	15	3	1	RUBY	1214	n/a	0	n/a	n/a	n/a	n/a	n/a
3471218	RECOG_CONF	n/a	LTP111	ltpFR	15	3	1	RUBY	1214	1	0	n/a	n/a	n/a	n/a	n/a
3472654	RECOG_TARGET	n/a	LTP111	ltpFR	15	3	-1	EYELASH	546	1	-1	n/a	n/a	n/a	n/a	n/a
3474720	RECOG_RESP	n/a	LTP111	ltpFR	15	3	-1	EYELASH	546	n/a	-1	n/a	n/a	n/a	n/a	n/a
3475638	RECOG_CONF	n/a	LTP111	ltpFR	15	3	-1	EYELASH	546	1	-1	n/a	n/a	n/a	n/a	n/a
3477032	RECOG_LURE	n/a	LTP111	ltpFR	15	3	n/a	TOASTER	1472	2	n/a	n/a	n/a	n/a	n/a	n/a
3477902	RECOG_RESP	n/a	LTP111	ltpFR	15	3	n/a	TOASTER	1472	n/a	n/a	n/a	n/a	n/a	n/a	n/a
3478970	RECOG_CONF	n/a	LTP111	ltpFR	15	3	n/a	TOASTER	1472	2	n/a	n/a	n/a	n/a	n/a	n/a
3480304	RECOG_TARGET	n/a	LTP111	ltpFR	15	3	0	SPINACH	1352	3	0	n/a	n/a	n/a	n/a	n/a
3481180	RECOG_RESP	n/a	LTP111	ltpFR	15	3	0	SPINACH	1352	n/a	0	n/a	n/a	n/a	n/a	n/a
3482193	RECOG_CONF	n/a	LTP111	ltpFR	15	3	0	SPINACH	1352	3	0	n/a	n/a	n/a	n/a	n/a
3483400	RECOG_TARGET	n/a	LTP111	ltpFR	15	3	1	STRING	1394	4	0	n/a	n/a	n/a	n/a	n/a
3484368	RECOG_RESP	n/a	LTP111	ltpFR	15	3	1	STRING	1394	n/a	0	n/a	n/a	n/a	n/a	n/a
3485445	RECOG_CONF	n/a	LTP111	ltpFR	15	3	1	STRING	1394	4	0	n/a	n/a	n/a	n/a	n/a
3486663	RECOG_TARGET	n/a	LTP111	ltpFR	15	3	0	BRIEFCASE	175	1	0	n/a	n/a	n/a	n/a	n/a
3487964	RECOG_RESP	n/a	LTP111	ltpFR	15	3	0	BRIEFCASE	175	n/a	0	n/a	n/a	n/a	n/a	n/a
3488947	RECOG_CONF	n/a	LTP111	ltpFR	15	3	0	BRIEFCASE	175	1	0	n/a	n/a	n/a	n/a	n/a
3490375	RECOG_TARGET	n/a	LTP111	ltpFR	15	3	-1	CARDINAL	244	1	-1	n/a	n/a	n/a	n/a	n/a
3491596	RECOG_RESP	n/a	LTP111	ltpFR	15	3	-1	CARDINAL	244	n/a	-1	n/a	n/a	n/a	n/a	n/a
3492629	RECOG_CONF	n/a	LTP111	ltpFR	15	3	-1	CARDINAL	244	1	-1	n/a	n/a	n/a	n/a	n/a
3494096	RECOG_TARGET	n/a	LTP111	ltpFR	15	3	1	CUFF	423	2	0	n/a	n/a	n/a	n/a	n/a
3495158	RECOG_RESP	n/a	LTP111	ltpFR	15	3	1	CUFF	423	n/a	0	n/a	n/a	n/a	n/a	n/a
3496231	RECOG_CONF	n/a	LTP111	ltpFR	15	3	1	CUFF	423	2	0	n/a	n/a	n/a	n/a	n/a
3497650	RECOG_LURE	n/a	LTP111	ltpFR	15	3	n/a	VASE	1549	1	n/a	n/a	n/a	n/a	n/a	n/a
3498491	RECOG_RESP	n/a	LTP111	ltpFR	15	3	n/a	VASE	1549	n/a	n/a	n/a	n/a	n/a	n/a	n/a
3499433	RECOG_CONF	n/a	LTP111	ltpFR	15	3	n/a	VASE	1549	1	n/a	n/a	n/a	n/a	n/a	n/a
3500880	RECOG_LURE	n/a	LTP111	ltpFR	15	3	n/a	CHERRY	293	1	n/a	n/a	n/a	n/a	n/a	n/a
3501763	RECOG_RESP	n/a	LTP111	ltpFR	15	3	n/a	CHERRY	293	n/a	n/a	n/a	n/a	n/a	n/a	n/a
3502756	RECOG_CONF	n/a	LTP111	ltpFR	15	3	n/a	CHERRY	293	1	n/a	n/a	n/a	n/a	n/a	n/a
3504176	RECOG_TARGET	n/a	LTP111	ltpFR	15	3	0	DEPUTY	450	2	0	n/a	n/a	n/a	n/a	n/a
3508662	RECOG_RESP	n/a	LTP111	ltpFR	15	3	0	DEPUTY	450	n/a	0	n/a	n/a	n/a	n/a	n/a
3509640	RECOG_CONF	n/a	LTP111	ltpFR	15	3	0	DEPUTY	450	2	0	n/a	n/a	n/a	n/a	n/a
3513078	REC_START	n/a	LTP111	ltpFR	15	4	n/a	n/a	n/a	n/a	n/a	n/a	n/a	n/a	n/a	n/a
3513107	RECOG_TARGET	n/a	LTP111	ltpFR	15	4	0	EUROPE	541	5	1	n/a	n/a	n/a	n/a	n/a
3515921	RECOG_RESP	n/a	LTP111	ltpFR	15	4	0	EUROPE	541	n/a	1	n/a	n/a	n/a	n/a	n/a
3516934	RECOG_CONF	n/a	LTP111	ltpFR	15	4	0	EUROPE	541	5	1	n/a	n/a	n/a	n/a	n/a
3518418	RECOG_TARGET	n/a	LTP111	ltpFR	15	4	-1	WAITER	1580	2	-1	n/a	n/a	n/a	n/a	n/a
3519508	RECOG_RESP	n/a	LTP111	ltpFR	15	4	-1	WAITER	1580	n/a	-1	n/a	n/a	n/a	n/a	n/a
3520636	RECOG_CONF	n/a	LTP111	ltpFR	15	4	-1	WAITER	1580	2	-1	n/a	n/a	n/a	n/a	n/a
3522055	RECOG_TARGET	n/a	LTP111	ltpFR	15	4	1	RELATIVE	1182	3	1	n/a	n/a	n/a	n/a	n/a
3522925	RECOG_RESP	n/a	LTP111	ltpFR	15	4	1	RELATIVE	1182	n/a	1	n/a	n/a	n/a	n/a	n/a
3523888	RECOG_CONF	n/a	LTP111	ltpFR	15	4	1	RELATIVE	1182	3	1	n/a	n/a	n/a	n/a	n/a
3525409	RECOG_TARGET	n/a	LTP111	ltpFR	15	4	1	SEAL	1262	1	1	n/a	n/a	n/a	n/a	n/a
3526577	RECOG_RESP	n/a	LTP111	ltpFR	15	4	1	SEAL	1262	n/a	1	n/a	n/a	n/a	n/a	n/a
3527460	RECOG_CONF	n/a	LTP111	ltpFR	15	4	1	SEAL	1262	1	1	n/a	n/a	n/a	n/a	n/a
3528814	RECOG_LURE	n/a	LTP111	ltpFR	15	4	n/a	ORGAN	984	2	n/a	n/a	n/a	n/a	n/a	n/a
3529640	RECOG_RESP	n/a	LTP111	ltpFR	15	4	n/a	ORGAN	984	n/a	n/a	n/a	n/a	n/a	n/a	n/a
3530633	RECOG_CONF	n/a	LTP111	ltpFR	15	4	n/a	ORGAN	984	2	n/a	n/a	n/a	n/a	n/a	n/a
3531869	RECOG_TARGET	n/a	LTP111	ltpFR	15	4	-1	BANANA	77	4	-1	n/a	n/a	n/a	n/a	n/a
3533132	RECOG_RESP	n/a	LTP111	ltpFR	15	4	-1	BANANA	77	n/a	-1	n/a	n/a	n/a	n/a	n/a
3534045	RECOG_CONF	n/a	LTP111	ltpFR	15	4	-1	BANANA	77	4	-1	n/a	n/a	n/a	n/a	n/a
3535489	RECOG_LURE	n/a	LTP111	ltpFR	15	4	n/a	STONE	1385	1	n/a	n/a	n/a	n/a	n/a	n/a
3536495	RECOG_RESP	n/a	LTP111	ltpFR	15	4	n/a	STONE	1385	n/a	n/a	n/a	n/a	n/a	n/a	n/a
3537328	RECOG_CONF	n/a	LTP111	ltpFR	15	4	n/a	STONE	1385	1	n/a	n/a	n/a	n/a	n/a	n/a
3538736	RECOG_TARGET	n/a	LTP111	ltpFR	15	4	1	LIMB	822	2	1	n/a	n/a	n/a	n/a	n/a
3539862	RECOG_RESP	n/a	LTP111	ltpFR	15	4	1	LIMB	822	n/a	1	n/a	n/a	n/a	n/a	n/a
3540760	RECOG_CONF	n/a	LTP111	ltpFR	15	4	1	LIMB	822	2	1	n/a	n/a	n/a	n/a	n/a
3542140	RECOG_LURE	n/a	LTP111	ltpFR	15	4	n/a	BAIT	70	1	n/a	n/a	n/a	n/a	n/a	n/a
3542945	RECOG_RESP	n/a	LTP111	ltpFR	15	4	n/a	BAIT	70	n/a	n/a	n/a	n/a	n/a	n/a	n/a
3543743	RECOG_CONF	n/a	LTP111	ltpFR	15	4	n/a	BAIT	70	1	n/a	n/a	n/a	n/a	n/a	n/a
3545211	RECOG_TARGET	n/a	LTP111	ltpFR	15	4	-1	ENCYCLOPEDIA	533	3	-1	n/a	n/a	n/a	n/a	n/a
3545928	RECOG_RESP	n/a	LTP111	ltpFR	15	4	-1	ENCYCLOPEDIA	533	n/a	-1	n/a	n/a	n/a	n/a	n/a
3546856	RECOG_CONF	n/a	LTP111	ltpFR	15	4	-1	ENCYCLOPEDIA	533	3	-1	n/a	n/a	n/a	n/a	n/a
3548358	RECOG_TARGET	n/a	LTP111	ltpFR	15	4	1	MINER	896	1	1	n/a	n/a	n/a	n/a	n/a
3549370	RECOG_RESP	n/a	LTP111	ltpFR	15	4	1	MINER	896	n/a	1	n/a	n/a	n/a	n/a	n/a
3550208	RECOG_CONF	n/a	LTP111	ltpFR	15	4	1	MINER	896	1	1	n/a	n/a	n/a	n/a	n/a
3551629	RECOG_TARGET	n/a	LTP111	ltpFR	15	4	1	LEOPARD	812	1	1	n/a	n/a	n/a	n/a	n/a
3552513	RECOG_RESP	n/a	LTP111	ltpFR	15	4	1	LEOPARD	812	n/a	1	n/a	n/a	n/a	n/a	n/a
3553281	RECOG_CONF	n/a	LTP111	ltpFR	15	4	1	LEOPARD	812	1	1	n/a	n/a	n/a	n/a	n/a
3554759	RECOG_TARGET	n/a	LTP111	ltpFR	15	4	0	RACK	1154	4	0	n/a	n/a	n/a	n/a	n/a
3555566	RECOG_RESP	n/a	LTP111	ltpFR	15	4	0	RACK	1154	n/a	0	n/a	n/a	n/a	n/a	n/a
3556484	RECOG_CONF	n/a	LTP111	ltpFR	15	4	0	RACK	1154	4	0	n/a	n/a	n/a	n/a	n/a
3557897	RECOG_TARGET	n/a	LTP111	ltpFR	15	4	0	SCROLL	1257	5	0	n/a	n/a	n/a	n/a	n/a
3558714	RECOG_RESP	n/a	LTP111	ltpFR	15	4	0	SCROLL	1257	n/a	0	n/a	n/a	n/a	n/a	n/a
3559547	RECOG_CONF	n/a	LTP111	ltpFR	15	4	0	SCROLL	1257	5	0	n/a	n/a	n/a	n/a	n/a
3561043	RECOG_TARGET	n/a	LTP111	ltpFR	15	4	-1	MOAT	903	1	-1	n/a	n/a	n/a	n/a	n/a
3562017	RECOG_RESP	n/a	LTP111	ltpFR	15	4	-1	MOAT	903	n/a	-1	n/a	n/a	n/a	n/a	n/a
3562730	RECOG_CONF	n/a	LTP111	ltpFR	15	4	-1	MOAT	903	1	-1	n/a	n/a	n/a	n/a	n/a
3564156	RECOG_TARGET	n/a	LTP111	ltpFR	15	4	1	ROACH	1195	4	1	n/a	n/a	n/a	n/a	n/a
3564890	RECOG_RESP	n/a	LTP111	ltpFR	15	4	1	ROACH	1195	n/a	1	n/a	n/a	n/a	n/a	n/a
3565753	RECOG_CONF	n/a	LTP111	ltpFR	15	4	1	ROACH	1195	4	1	n/a	n/a	n/a	n/a	n/a
3567203	RECOG_LURE	n/a	LTP111	ltpFR	15	4	n/a	ASTEROID	50	1	n/a	n/a	n/a	n/a	n/a	n/a
3568282	RECOG_RESP	n/a	LTP111	ltpFR	15	4	n/a	ASTEROID	50	n/a	n/a	n/a	n/a	n/a	n/a	n/a
3569135	RECOG_CONF	n/a	LTP111	ltpFR	15	4	n/a	ASTEROID	50	1	n/a	n/a	n/a	n/a	n/a	n/a
3570515	RECOG_LURE	n/a	LTP111	ltpFR	15	4	n/a	GLOVE	642	1	n/a	n/a	n/a	n/a	n/a	n/a
3571236	RECOG_RESP	n/a	LTP111	ltpFR	15	4	n/a	GLOVE	642	n/a	n/a	n/a	n/a	n/a	n/a	n/a
3572039	RECOG_CONF	n/a	LTP111	ltpFR	15	4	n/a	GLOVE	642	1	n/a	n/a	n/a	n/a	n/a	n/a
3573395	RECOG_LURE	n/a	LTP111	ltpFR	15	4	n/a	CANVAS	234	1	n/a	n/a	n/a	n/a	n/a	n/a
3574214	RECOG_RESP	n/a	LTP111	ltpFR	15	4	n/a	CANVAS	234	n/a	n/a	n/a	n/a	n/a	n/a	n/a
3575052	RECOG_CONF	n/a	LTP111	ltpFR	15	4	n/a	CANVAS	234	1	n/a	n/a	n/a	n/a	n/a	n/a
3576467	RECOG_TARGET	n/a	LTP111	ltpFR	15	4	-1	BUTLER	204	1	-1	n/a	n/a	n/a	n/a	n/a
3578305	RECOG_RESP	n/a	LTP111	ltpFR	15	4	-1	BUTLER	204	n/a	-1	n/a	n/a	n/a	n/a	n/a
3579133	RECOG_CONF	n/a	LTP111	ltpFR	15	4	-1	BUTLER	204	1	-1	n/a	n/a	n/a	n/a	n/a
3582466	REC_START	n/a	LTP111	ltpFR	15	5	n/a	n/a	n/a	n/a	n/a	n/a	n/a	n/a	n/a	n/a
3582493	RECOG_LURE	n/a	LTP111	ltpFR	15	5	n/a	ANTEATER	26	1	n/a	n/a	n/a	n/a	n/a	n/a
3584322	RECOG_RESP	n/a	LTP111	ltpFR	15	5	n/a	ANTEATER	26	n/a	n/a	n/a	n/a	n/a	n/a	n/a
3585225	RECOG_CONF	n/a	LTP111	ltpFR	15	5	n/a	ANTEATER	26	1	n/a	n/a	n/a	n/a	n/a	n/a
3586655	RECOG_TARGET	n/a	LTP111	ltpFR	15	5	1	ZOO	1637	1	0	n/a	n/a	n/a	n/a	n/a
3587504	RECOG_RESP	n/a	LTP111	ltpFR	15	5	1	ZOO	1637	n/a	0	n/a	n/a	n/a	n/a	n/a
3588447	RECOG_CONF	n/a	LTP111	ltpFR	15	5	1	ZOO	1637	1	0	n/a	n/a	n/a	n/a	n/a
3589943	RECOG_TARGET	n/a	LTP111	ltpFR	15	5	0	CALENDAR	221	1	0	n/a	n/a	n/a	n/a	n/a
3591331	RECOG_RESP	n/a	LTP111	ltpFR	15	5	0	CALENDAR	221	n/a	0	n/a	n/a	n/a	n/a	n/a
3592149	RECOG_CONF	n/a	LTP111	ltpFR	15	5	0	CALENDAR	221	1	0	n/a	n/a	n/a	n/a	n/a
3593639	RECOG_TARGET	n/a	LTP111	ltpFR	15	5	-1	SAW	1239	1	-1	n/a	n/a	n/a	n/a	n/a
3594468	RECOG_RESP	n/a	LTP111	ltpFR	15	5	-1	SAW	1239	n/a	-1	n/a	n/a	n/a	n/a	n/a
3595421	RECOG_CONF	n/a	LTP111	ltpFR	15	5	-1	SAW	1239	1	-1	n/a	n/a	n/a	n/a	n/a
3596760	RECOG_LURE	n/a	LTP111	ltpFR	15	5	n/a	WAIST	1579	1	n/a	n/a	n/a	n/a	n/a	n/a
3597761	RECOG_RESP	n/a	LTP111	ltpFR	15	5	n/a	WAIST	1579	n/a	n/a	n/a	n/a	n/a	n/a	n/a
3598564	RECOG_CONF	n/a	LTP111	ltpFR	15	5	n/a	WAIST	1579	1	n/a	n/a	n/a	n/a	n/a	n/a
3600015	RECOG_TARGET	n/a	LTP111	ltpFR	15	5	0	GRASSHOPPER	656	1	0	n/a	n/a	n/a	n/a	n/a
3600934	RECOG_RESP	n/a	LTP111	ltpFR	15	5	0	GRASSHOPPER	656	n/a	0	n/a	n/a	n/a	n/a	n/a
3601807	RECOG_CONF	n/a	LTP111	ltpFR	15	5	0	GRASSHOPPER	656	1	0	n/a	n/a	n/a	n/a	n/a
3603069	RECOG_TARGET	n/a	LTP111	ltpFR	15	5	0	INCENSE	735	1	0	n/a	n/a	n/a	n/a	n/a
3604246	RECOG_RESP	n/a	LTP111	ltpFR	15	5	0	INCENSE	735	n/a	0	n/a	n/a	n/a	n/a	n/a
3605049	RECOG_CONF	n/a	LTP111	ltpFR	15	5	0	INCENSE	735	1	0	n/a	n/a	n/a	n/a	n/a
3606365	RECOG_TARGET	n/a	LTP111	ltpFR	15	5	0	ORCHID	982	3	0	n/a	n/a	n/a	n/a	n/a
3607190	RECOG_RESP	n/a	LTP111	ltpFR	15	5	0	ORCHID	982	n/a	0	n/a	n/a	n/a	n/a	n/a
3608063	RECOG_CONF	n/a	LTP111	ltpFR	15	5	0	ORCHID	982	3	0	n/a	n/a	n/a	n/a	n/a
3609370	RECOG_LURE	n/a	LTP111	ltpFR	15	5	n/a	QUARTER	1148	1	n/a	n/a	n/a	n/a	n/a	n/a
3610193	RECOG_RESP	n/a	LTP111	ltpFR	15	5	n/a	QUARTER	1148	n/a	n/a	n/a	n/a	n/a	n/a	n/a
3610936	RECOG_CONF	n/a	LTP111	ltpFR	15	5	n/a	QUARTER	1148	1	n/a	n/a	n/a	n/a	n/a	n/a
3612384	RECOG_TARGET	n/a	LTP111	ltpFR	15	5	-1	SWEATER	1419	4	-1	n/a	n/a	n/a	n/a	n/a
3613216	RECOG_RESP	n/a	LTP111	ltpFR	15	5	-1	SWEATER	1419	n/a	-1	n/a	n/a	n/a	n/a	n/a
3613999	RECOG_CONF	n/a	LTP111	ltpFR	15	5	-1	SWEATER	1419	4	-1	n/a	n/a	n/a	n/a	n/a
3615338	RECOG_LURE	n/a	LTP111	ltpFR	15	5	n/a	BOTTLE	153	1	n/a	n/a	n/a	n/a	n/a	n/a
3616079	RECOG_RESP	n/a	LTP111	ltpFR	15	5	n/a	BOTTLE	153	n/a	n/a	n/a	n/a	n/a	n/a	n/a
3616952	RECOG_CONF	n/a	LTP111	ltpFR	15	5	n/a	BOTTLE	153	1	n/a	n/a	n/a	n/a	n/a	n/a
3618443	RECOG_TARGET	n/a	LTP111	ltpFR	15	5	0	MONEY	908	2	0	n/a	n/a	n/a	n/a	n/a
3619571	RECOG_RESP	n/a	LTP111	ltpFR	15	5	0	MONEY	908	n/a	0	n/a	n/a	n/a	n/a	n/a
3620534	RECOG_CONF	n/a	LTP111	ltpFR	15	5	0	MONEY	908	2	0	n/a	n/a	n/a	n/a	n/a
3621931	RECOG_TARGET	n/a	LTP111	ltpFR	15	5	-1	PAGE	1001	4	-1	n/a	n/a	n/a	n/a	n/a
3622834	RECOG_RESP	n/a	LTP111	ltpFR	15	5	-1	PAGE	1001	n/a	-1	n/a	n/a	n/a	n/a	n/a
3623647	RECOG_CONF	n/a	LTP111	ltpFR	15	5	-1	PAGE	1001	4	-1	n/a	n/a	n/a	n/a	n/a
3625169	RECOG_TARGET	n/a	LTP111	ltpFR	15	5	0	BARTENDER	92	5	0	n/a	n/a	n/a	n/a	n/a
3625967	RECOG_RESP	n/a	LTP111	ltpFR	15	5	0	BARTENDER	92	n/a	0	n/a	n/a	n/a	n/a	n/a
3626870	RECOG_CONF	n/a	LTP111	ltpFR	15	5	0	BARTENDER	92	5	0	n/a	n/a	n/a	n/a	n/a
3628365	RECOG_LURE	n/a	LTP111	ltpFR	15	5	n/a	WHISTLE	1606	1	n/a	n/a	n/a	n/a	n/a	n/a
3629170	RECOG_RESP	n/a	LTP111	ltpFR	15	5	n/a	WHISTLE	1606	n/a	n/a	n/a	n/a	n/a	n/a	n/a
3630053	RECOG_CONF	n/a	LTP111	ltpFR	15	5	n/a	WHISTLE	1606	1	n/a	n/a	n/a	n/a	n/a	n/a
3631511	RECOG_LURE	n/a	LTP111	ltpFR	15	5	n/a	TELEPHONE	1445	2	n/a	n/a	n/a	n/a	n/a	n/a
3632462	RECOG_RESP	n/a	LTP111	ltpFR	15	5	n/a	TELEPHONE	1445	n/a	n/a	n/a	n/a	n/a	n/a	n/a
3633235	RECOG_CONF	n/a	LTP111	ltpFR	15	5	n/a	TELEPHONE	1445	2	n/a	n/a	n/a	n/a	n/a	n/a
3634658	RECOG_LURE	n/a	LTP111	ltpFR	15	5	n/a	HUT	729	1	n/a	n/a	n/a	n/a	n/a	n/a
3635470	RECOG_RESP	n/a	LTP111	ltpFR	15	5	n/a	HUT	729	n/a	n/a	n/a	n/a	n/a	n/a	n/a
3636308	RECOG_CONF	n/a	LTP111	ltpFR	15	5	n/a	HUT	729	1	n/a	n/a	n/a	n/a	n/a	n/a
3637604	RECOG_TARGET	n/a	LTP111	ltpFR	15	5	1	OLIVE	975	5	1	n/a	n/a	n/a	n/a	n/a
3638329	RECOG_RESP	n/a	LTP111	ltpFR	15	5	1	OLIVE	975	n/a	1	n/a	n/a	n/a	n/a	n/a
3639252	RECOG_CONF	n/a	LTP111	ltpFR	15	5	1	OLIVE	975	5	1	n/a	n/a	n/a	n/a	n/a
3640734	RECOG_TARGET	n/a	LTP111	ltpFR	15	5	1	MARINE	869	4	0	n/a	n/a	n/a	n/a	n/a
3641536	RECOG_RESP	n/a	LTP111	ltpFR	15	5	1	MARINE	869	n/a	0	n/a	n/a	n/a	n/a	n/a
3642395	RECOG_CONF	n/a	LTP111	ltpFR	15	5	1	MARINE	869	4	0	n/a	n/a	n/a	n/a	n/a
3643780	RECOG_TARGET	n/a	LTP111	ltpFR	15	5	-1	RATTLE	1170	5	-1	n/a	n/a	n/a	n/a	n/a
3644779	RECOG_RESP	n/a	LTP111	ltpFR	15	5	-1	RATTLE	1170	n/a	-1	n/a	n/a	n/a	n/a	n/a
3645577	RECOG_CONF	n/a	LTP111	ltpFR	15	5	-1	RATTLE	1170	5	-1	n/a	n/a	n/a	n/a	n/a
3648908	REC_START	n/a	LTP111	ltpFR	15	6	n/a	n/a	n/a	n/a	n/a	n/a	n/a	n/a	n/a	n/a
3648933	RECOG_TARGET	n/a	LTP111	ltpFR	15	6	0	JURY	766	1	0	n/a	n/a	n/a	n/a	n/a
3650075	RECOG_RESP	n/a	LTP111	ltpFR	15	6	0	JURY	766	n/a	0	n/a	n/a	n/a	n/a	n/a
3650968	RECOG_CONF	n/a	LTP111	ltpFR	15	6	0	JURY	766	1	0	n/a	n/a	n/a	n/a	n/a
3652395	RECOG_LURE	n/a	LTP111	ltpFR	15	6	n/a	VICTOR	1563	2	n/a	n/a	n/a	n/a	n/a	n/a
3653807	RECOG_RESP	n/a	LTP111	ltpFR	15	6	n/a	VICTOR	1563	n/a	n/a	n/a	n/a	n/a	n/a	n/a
3654779	RECOG_CONF	n/a	LTP111	ltpFR	15	6	n/a	VICTOR	1563	2	n/a	n/a	n/a	n/a	n/a	n/a
3656116	RECOG_TARGET	n/a	LTP111	ltpFR	15	6	-1	CEREAL	272	1	-1	n/a	n/a	n/a	n/a	n/a
3656974	RECOG_RESP	n/a	LTP111	ltpFR	15	6	-1	CEREAL	272	n/a	-1	n/a	n/a	n/a	n/a	n/a
3657872	RECOG_CONF	n/a	LTP111	ltpFR	15	6	-1	CEREAL	272	1	-1	n/a	n/a	n/a	n/a	n/a
3659239	RECOG_LURE	n/a	LTP111	ltpFR	15	6	n/a	CONCRETE	361	1	n/a	n/a	n/a	n/a	n/a	n/a
3660846	RECOG_RESP	n/a	LTP111	ltpFR	15	6	n/a	CONCRETE	361	n/a	n/a	n/a	n/a	n/a	n/a	n/a
3661694	RECOG_CONF	n/a	LTP111	ltpFR	15	6	n/a	CONCRETE	361	1	n/a	n/a	n/a	n/a	n/a	n/a
3663166	RECOG_LURE	n/a	LTP111	ltpFR	15	6	n/a	SALIVA	1226	1	n/a	n/a	n/a	n/a	n/a	n/a
3664203	RECOG_RESP	n/a	LTP111	ltpFR	15	6	n/a	SALIVA	1226	n/a	n/a	n/a	n/a	n/a	n/a	n/a
3665036	RECOG_CONF	n/a	LTP111	ltpFR	15	6	n/a	SALIVA	1226	1	n/a	n/a	n/a	n/a	n/a	n/a
3666571	RECOG_TARGET	n/a	LTP111	ltpFR	15	6	0	TWINE	1529	1	0	n/a	n/a	n/a	n/a	n/a
3667525	RECOG_RESP	n/a	LTP111	ltpFR	15	6	0	TWINE	1529	n/a	0	n/a	n/a	n/a	n/a	n/a
3668279	RECOG_CONF	n/a	LTP111	ltpFR	15	6	0	TWINE	1529	1	0	n/a	n/a	n/a	n/a	n/a
3669742	RECOG_TARGET	n/a	LTP111	ltpFR	15	6	1	FLY	586	2	1	n/a	n/a	n/a	n/a	n/a
3670863	RECOG_RESP	n/a	LTP111	ltpFR	15	6	1	FLY	586	n/a	1	n/a	n/a	n/a	n/a	n/a
3671651	RECOG_CONF	n/a	LTP111	ltpFR	15	6	1	FLY	586	2	1	n/a	n/a	n/a	n/a	n/a
3673096	RECOG_TARGET	n/a	LTP111	ltpFR	15	6	1	SERGEANT	1269	1	1	n/a	n/a	n/a	n/a	n/a
3673901	RECOG_RESP	n/a	LTP111	ltpFR	15	6	1	SERGEANT	1269	n/a	1	n/a	n/a	n/a	n/a	n/a
3674694	RECOG_CONF	n/a	LTP111	ltpFR	15	6	1	SERGEANT	1269	1	1	n/a	n/a	n/a	n/a	n/a
3676026	RECOG_TARGET	n/a	LTP111	ltpFR	15	6	1	SUPPER	1411	3	0	n/a	n/a	n/a	n/a	n/a
3676739	RECOG_RESP	n/a	LTP111	ltpFR	15	6	1	SUPPER	1411	n/a	0	n/a	n/a	n/a	n/a	n/a
3677548	RECOG_CONF	n/a	LTP111	ltpFR	15	6	1	SUPPER	1411	3	0	n/a	n/a	n/a	n/a	n/a
3678965	RECOG_TARGET	n/a	LTP111	ltpFR	15	6	1	MECHANIC	884	4	0	n/a	n/a	n/a	n/a	n/a
3679862	RECOG_RESP	n/a	LTP111	ltpFR	15	6	1	MECHANIC	884	n/a	0	n/a	n/a	n/a	n/a	n/a
3680641	RECOG_CONF	n/a	LTP111	ltpFR	15	6	1	MECHANIC	884	4	0	n/a	n/a	n/a	n/a	n/a
3681986	RECOG_TARGET	n/a	LTP111	ltpFR	15	6	-1	WINGS	1614	5	-1	n/a	n/a	n/a	n/a	n/a
3682935	RECOG_RESP	n/a	LTP111	ltpFR	15	6	-1	WINGS	1614	n/a	-1	n/a	n/a	n/a	n/a	n/a
3683833	RECOG_CONF	n/a	LTP111	ltpFR	15	6	-1	WINGS	1614	5	-1	n/a	n/a	n/a	n/a	n/a
3685316	RECOG_TARGET	n/a	LTP111	ltpFR	15	6	1	LAMB	797	4	1	n/a	n/a	n/a	n/a	n/a
3686238	RECOG_RESP	n/a	LTP111	ltpFR	15	6	1	LAMB	797	n/a	1	n/a	n/a	n/a	n/a	n/a
3687036	RECOG_CONF	n/a	LTP111	ltpFR	15	6	1	LAMB	797	4	1	n/a	n/a	n/a	n/a	n/a
3688545	RECOG_TARGET	n/a	LTP111	ltpFR	15	6	-1	TUB	1514	4	-1	n/a	n/a	n/a	n/a	n/a
3689261	RECOG_RESP	n/a	LTP111	ltpFR	15	6	-1	TUB	1514	n/a	-1	n/a	n/a	n/a	n/a	n/a
3690039	RECOG_CONF	n/a	LTP111	ltpFR	15	6	-1	TUB	1514	4	-1	n/a	n/a	n/a	n/a	n/a
3691517	RECOG_TARGET	n/a	LTP111	ltpFR	15	6	-1	FUGITIVE	612	5	-1	n/a	n/a	n/a	n/a	n/a
3692414	RECOG_RESP	n/a	LTP111	ltpFR	15	6	-1	FUGITIVE	612	n/a	-1	n/a	n/a	n/a	n/a	n/a
3693262	RECOG_CONF	n/a	LTP111	ltpFR	15	6	-1	FUGITIVE	612	5	-1	n/a	n/a	n/a	n/a	n/a
3694863	RECOG_TARGET	n/a	LTP111	ltpFR	15	6	1	JAW	751	1	0	n/a	n/a	n/a	n/a	n/a
3696016	RECOG_RESP	n/a	LTP111	ltpFR	15	6	1	JAW	751	n/a	0	n/a	n/a	n/a	n/a	n/a
3696764	RECOG_CONF	n/a	LTP111	ltpFR	15	6	1	JAW	751	1	0	n/a	n/a	n/a	n/a	n/a
3698201	RECOG_LURE	n/a	LTP111	ltpFR	15	6	n/a	PLANT	1083	1	n/a	n/a	n/a	n/a	n/a	n/a
3699079	RECOG_RESP	n/a	LTP111	ltpFR	15	6	n/a	PLANT	1083	n/a	n/a	n/a	n/a	n/a	n/a	n/a
3699807	RECOG_CONF	n/a	LTP111	ltpFR	15	6	n/a	PLANT	1083	1	n/a	n/a	n/a	n/a	n/a	n/a
3701273	RECOG_TARGET	n/a	LTP111	ltpFR	15	6	0	SILVERWARE	1308	4	0	n/a	n/a	n/a	n/a	n/a
3702082	RECOG_RESP	n/a	LTP111	ltpFR	15	6	0	SILVERWARE	1308	n/a	0	n/a	n/a	n/a	n/a	n/a
3702940	RECOG_CONF	n/a	LTP111	ltpFR	15	6	0	SILVERWARE	1308	4	0	n/a	n/a	n/a	n/a	n/a
3704319	RECOG_LURE	n/a	LTP111	ltpFR	15	6	n/a	ALLEY	15	1	n/a	n/a	n/a	n/a	n/a	n/a
3705135	RECOG_RESP	n/a	LTP111	ltpFR	15	6	n/a	ALLEY	15	n/a	n/a	n/a	n/a	n/a	n/a	n/a
3705983	RECOG_CONF	n/a	LTP111	ltpFR	15	6	n/a	ALLEY	15	1	n/a	n/a	n/a	n/a	n/a	n/a
3707565	RECOG_TARGET	n/a	LTP111	ltpFR	15	6	1	SOLDIER	1344	4	0	n/a	n/a	n/a	n/a	n/a
3708208	RECOG_RESP	n/a	LTP111	ltpFR	15	6	1	SOLDIER	1344	n/a	0	n/a	n/a	n/a	n/a	n/a
3709066	RECOG_CONF	n/a	LTP111	ltpFR	15	6	1	SOLDIER	1344	4	0	n/a	n/a	n/a	n/a	n/a
3710461	RECOG_TARGET	n/a	LTP111	ltpFR	15	6	0	HAMMOCK	681	1	0	n/a	n/a	n/a	n/a	n/a
3711366	RECOG_RESP	n/a	LTP111	ltpFR	15	6	0	HAMMOCK	681	n/a	0	n/a	n/a	n/a	n/a	n/a
3712069	RECOG_CONF	n/a	LTP111	ltpFR	15	6	0	HAMMOCK	681	1	0	n/a	n/a	n/a	n/a	n/a
3715088	REC_START	n/a	LTP111	ltpFR	15	7	n/a	n/a	n/a	n/a	n/a	n/a	n/a	n/a	n/a	n/a
3715123	RECOG_TARGET	n/a	LTP111	ltpFR	15	7	1	COMMANDER	354	1	0	n/a	n/a	n/a	n/a	n/a
3716559	RECOG_RESP	n/a	LTP111	ltpFR	15	7	1	COMMANDER	354	n/a	0	n/a	n/a	n/a	n/a	n/a
3717378	RECOG_CONF	n/a	LTP111	ltpFR	15	7	1	COMMANDER	354	1	0	n/a	n/a	n/a	n/a	n/a
3718777	RECOG_TARGET	n/a	LTP111	ltpFR	15	7	1	CAT	257	1	2	n/a	n/a	n/a	n/a	n/a
3719578	RECOG_RESP	n/a	LTP111	ltpFR	15	7	1	CAT	257	n/a	2	n/a	n/a	n/a	n/a	n/a
3720331	RECOG_CONF	n/a	LTP111	ltpFR	15	7	1	CAT	257	1	2	n/a	n/a	n/a	n/a	n/a
3721782	RECOG_TARGET	n/a	LTP111	ltpFR	15	7	1	PREACHER	1119	2	1	n/a	n/a	n/a	n/a	n/a
3723000	RECOG_RESP	n/a	LTP111	ltpFR	15	7	1	PREACHER	1119	n/a	1	n/a	n/a	n/a	n/a	n/a
3723893	RECOG_CONF	n/a	LTP111	ltpFR	15	7	1	PREACHER	1119	2	1	n/a	n/a	n/a	n/a	n/a
3725178	RECOG_LURE	n/a	LTP111	ltpFR	15	7	n/a	VALLEY	1545	3	n/a	n/a	n/a	n/a	n/a	n/a
3726203	RECOG_RESP	n/a	LTP111	ltpFR	15	7	n/a	VALLEY	1545	n/a	n/a	n/a	n/a	n/a	n/a	n/a
3727046	RECOG_CONF	n/a	LTP111	ltpFR	15	7	n/a	VALLEY	1545	3	n/a	n/a	n/a	n/a	n/a	n/a
3728507	RECOG_TARGET	n/a	LTP111	ltpFR	15	7	1	COCOON	339	1	0	n/a	n/a	n/a	n/a	n/a
3729460	RECOG_RESP	n/a	LTP111	ltpFR	15	7	1	COCOON	339	n/a	0	n/a	n/a	n/a	n/a	n/a
3730208	RECOG_CONF	n/a	LTP111	ltpFR	15	7	1	COCOON	339	1	0	n/a	n/a	n/a	n/a	n/a
3731670	RECOG_LURE	n/a	LTP111	ltpFR	15	7	n/a	GOO	648	1	n/a	n/a	n/a	n/a	n/a	n/a
3732493	RECOG_RESP	n/a	LTP111	ltpFR	15	7	n/a	GOO	648	n/a	n/a	n/a	n/a	n/a	n/a	n/a
3733291	RECOG_CONF	n/a	LTP111	ltpFR	15	7	n/a	GOO	648	1	n/a	n/a	n/a	n/a	n/a	n/a
3734841	RECOG_TARGET	n/a	LTP111	ltpFR	15	7	0	TAG	1429	2	0	n/a	n/a	n/a	n/a	n/a
3736080	RECOG_RESP	n/a	LTP111	ltpFR	15	7	0	TAG	1429	n/a	0	n/a	n/a	n/a	n/a	n/a
3736903	RECOG_CONF	n/a	LTP111	ltpFR	15	7	0	TAG	1429	2	0	n/a	n/a	n/a	n/a	n/a
3738288	RECOG_LURE	n/a	LTP111	ltpFR	15	7	n/a	GYMNAST	675	3	n/a	n/a	n/a	n/a	n/a	n/a
3739308	RECOG_RESP	n/a	LTP111	ltpFR	15	7	n/a	GYMNAST	675	n/a	n/a	n/a	n/a	n/a	n/a	n/a
3740385	RECOG_CONF	n/a	LTP111	ltpFR	15	7	n/a	GYMNAST	675	3	n/a	n/a	n/a	n/a	n/a	n/a
3741858	RECOG_TARGET	n/a	LTP111	ltpFR	15	7	0	CUPBOARD	425	4	0	n/a	n/a	n/a	n/a	n/a
3742730	RECOG_RESP	n/a	LTP111	ltpFR	15	7	0	CUPBOARD	425	n/a	0	n/a	n/a	n/a	n/a	n/a
3743598	RECOG_CONF	n/a	LTP111	ltpFR	15	7	0	CUPBOARD	425	4	0	n/a	n/a	n/a	n/a	n/a
3745080	RECOG_LURE	n/a	LTP111	ltpFR	15	7	n/a	CAPE	237	4	n/a	n/a	n/a	n/a	n/a	n/a
3746082	RECOG_RESP	n/a	LTP111	ltpFR	15	7	n/a	CAPE	237	n/a	n/a	n/a	n/a	n/a	n/a	n/a
3746891	RECOG_CONF	n/a	LTP111	ltpFR	15	7	n/a	CAPE	237	4	n/a	n/a	n/a	n/a	n/a	n/a
3748260	RECOG_TARGET	n/a	LTP111	ltpFR	15	7	1	NICOTINE	951	2	0	n/a	n/a	n/a	n/a	n/a
3749495	RECOG_RESP	n/a	LTP111	ltpFR	15	7	1	NICOTINE	951	n/a	0	n/a	n/a	n/a	n/a	n/a
3750403	RECOG_CONF	n/a	LTP111	ltpFR	15	7	1	NICOTINE	951	2	0	n/a	n/a	n/a	n/a	n/a
3751789	RECOG_LURE	n/a	LTP111	ltpFR	15	7	n/a	FORK	594	3	n/a	n/a	n/a	n/a	n/a	n/a
3753002	RECOG_RESP	n/a	LTP111	ltpFR	15	7	n/a	FORK	594	n/a	n/a	n/a	n/a	n/a	n/a	n/a
3753954	RECOG_CONF	n/a	LTP111	ltpFR	15	7	n/a	FORK	594	3	n/a	n/a	n/a	n/a	n/a	n/a
3755310	RECOG_LURE	n/a	LTP111	ltpFR	15	7	n/a	DUNGEON	507	1	n/a	n/a	n/a	n/a	n/a	n/a
3756758	RECOG_RESP	n/a	LTP111	ltpFR	15	7	n/a	DUNGEON	507	n/a	n/a	n/a	n/a	n/a	n/a	n/a
3757536	RECOG_CONF	n/a	LTP111	ltpFR	15	7	n/a	DUNGEON	507	1	n/a	n/a	n/a	n/a	n/a	n/a
3758930	RECOG_LURE	n/a	LTP111	ltpFR	15	7	n/a	PURSE	1145	1	n/a	n/a	n/a	n/a	n/a	n/a
3760175	RECOG_RESP	n/a	LTP111	ltpFR	15	7	n/a	PURSE	1145	n/a	n/a	n/a	n/a	n/a	n/a	n/a
3760899	RECOG_CONF	n/a	LTP111	ltpFR	15	7	n/a	PURSE	1145	1	n/a	n/a	n/a	n/a	n/a	n/a
3762360	RECOG_TARGET	n/a	LTP111	ltpFR	15	7	-1	CHIMNEY	301	4	-1	n/a	n/a	n/a	n/a	n/a
3764490	RECOG_RESP	n/a	LTP111	ltpFR	15	7	-1	CHIMNEY	301	n/a	-1	n/a	n/a	n/a	n/a	n/a
3765339	RECOG_CONF	n/a	LTP111	ltpFR	15	7	-1	CHIMNEY	301	4	-1	n/a	n/a	n/a	n/a	n/a
3766929	RECOG_TARGET	n/a	LTP111	ltpFR	15	7	-1	NEPTUNE	943	3	-1	n/a	n/a	n/a	n/a	n/a
3767838	RECOG_RESP	n/a	LTP111	ltpFR	15	7	-1	NEPTUNE	943	n/a	-1	n/a	n/a	n/a	n/a	n/a
3768631	RECOG_CONF	n/a	LTP111	ltpFR	15	7	-1	NEPTUNE	943	3	-1	n/a	n/a	n/a	n/a	n/a
3769967	RECOG_LURE	n/a	LTP111	ltpFR	15	7	n/a	HURRICANE	727	1	n/a	n/a	n/a	n/a	n/a	n/a
3771041	RECOG_RESP	n/a	LTP111	ltpFR	15	7	n/a	HURRICANE	727	n/a	n/a	n/a	n/a	n/a	n/a	n/a
3771754	RECOG_CONF	n/a	LTP111	ltpFR	15	7	n/a	HURRICANE	727	1	n/a	n/a	n/a	n/a	n/a	n/a
3773130	RECOG_TARGET	n/a	LTP111	ltpFR	15	7	1	MUMMY	932	4	1	n/a	n/a	n/a	n/a	n/a
3773979	RECOG_RESP	n/a	LTP111	ltpFR	15	7	1	MUMMY	932	n/a	1	n/a	n/a	n/a	n/a	n/a
3774757	RECOG_CONF	n/a	LTP111	ltpFR	15	7	1	MUMMY	932	4	1	n/a	n/a	n/a	n/a	n/a
3776127	RECOG_TARGET	n/a	LTP111	ltpFR	15	7	1	RING	1193	5	0	n/a	n/a	n/a	n/a	n/a
3777167	RECOG_RESP	n/a	LTP111	ltpFR	15	7	1	RING	1193	n/a	0	n/a	n/a	n/a	n/a	n/a
3777950	RECOG_CONF	n/a	LTP111	ltpFR	15	7	1	RING	1193	5	0	n/a	n/a	n/a	n/a	n/a
3779365	RECOG_LURE	n/a	LTP111	ltpFR	15	7	n/a	HINGE	709	1	n/a	n/a	n/a	n/a	n/a	n/a
3780464	RECOG_RESP	n/a	LTP111	ltpFR	15	7	n/a	HINGE	709	n/a	n/a	n/a	n/a	n/a	n/a	n/a
3781153	RECOG_CONF	n/a	LTP111	ltpFR	15	7	n/a	HINGE	709	1	n/a	n/a	n/a	n/a	n/a	n/a
3784479	REC_START	n/a	LTP111	ltpFR	15	8	n/a	n/a	n/a	n/a	n/a	n/a	n/a	n/a	n/a	n/a
3784509	RECOG_TARGET	n/a	LTP111	ltpFR	15	8	0	MOSS	918	4	0	n/a	n/a	n/a	n/a	n/a
3785551	RECOG_RESP	n/a	LTP111	ltpFR	15	8	0	MOSS	918	n/a	0	n/a	n/a	n/a	n/a	n/a
3786330	RECOG_CONF	n/a	LTP111	ltpFR	15	8	0	MOSS	918	4	0	n/a	n/a	n/a	n/a	n/a
3787788	RECOG_TARGET	n/a	LTP111	ltpFR	15	8	1	DESSERT	453	5	0	n/a	n/a	n/a	n/a	n/a
3788425	RECOG_RESP	n/a	LTP111	ltpFR	15	8	1	DESSERT	453	n/a	0	n/a	n/a	n/a	n/a	n/a
3789173	RECOG_CONF	n/a	LTP111	ltpFR	15	8	1	DESSERT	453	5	0	n/a	n/a	n/a	n/a	n/a
3790535	RECOG_TARGET	n/a	LTP111	ltpFR	15	8	-1	ANKLE	24	5	-1	n/a	n/a	n/a	n/a	n/a
3791258	RECOG_RESP	n/a	LTP111	ltpFR	15	8	-1	ANKLE	24	n/a	-1	n/a	n/a	n/a	n/a	n/a
3792057	RECOG_CONF	n/a	LTP111	ltpFR	15	8	-1	ANKLE	24	5	-1	n/a	n/a	n/a	n/a	n/a
3793498	RECOG_LURE	n/a	LTP111	ltpFR	15	8	n/a	DIAGRAM	456	1	n/a	n/a	n/a	n/a	n/a	n/a
3794067	RECOG_RESP	n/a	LTP111	ltpFR	15	8	n/a	DIAGRAM	456	n/a	n/a	n/a	n/a	n/a	n/a	n/a
3794780	RECOG_CONF	n/a	LTP111	ltpFR	15	8	n/a	DIAGRAM	456	1	n/a	n/a	n/a	n/a	n/a	n/a
3796230	RECOG_LURE	n/a	LTP111	ltpFR	15	8	n/a	BRANCH	168	1	n/a	n/a	n/a	n/a	n/a	n/a
3797110	RECOG_RESP	n/a	LTP111	ltpFR	15	8	n/a	BRANCH	168	n/a	n/a	n/a	n/a	n/a	n/a	n/a
3797843	RECOG_CONF	n/a	LTP111	ltpFR	15	8	n/a	BRANCH	168	1	n/a	n/a	n/a	n/a	n/a	n/a
3799259	RECOG_LURE	n/a	LTP111	ltpFR	15	8	n/a	GUM	672	4	n/a	n/a	n/a	n/a	n/a	n/a
3800013	RECOG_RESP	n/a	LTP111	ltpFR	15	8	n/a	GUM	672	n/a	n/a	n/a	n/a	n/a	n/a	n/a
3800807	RECOG_CONF	n/a	LTP111	ltpFR	15	8	n/a	GUM	672	4	n/a	n/a	n/a	n/a	n/a	n/a
3802089	RECOG_LURE	n/a	LTP111	ltpFR	15	8	n/a	SLOPE	1328	1	n/a	n/a	n/a	n/a	n/a	n/a
3802822	RECOG_RESP	n/a	LTP111	ltpFR	15	8	n/a	SLOPE	1328	n/a	n/a	n/a	n/a	n/a	n/a	n/a
3803521	RECOG_CONF	n/a	LTP111	ltpFR	15	8	n/a	SLOPE	1328	1	n/a	n/a	n/a	n/a	n/a	n/a
3804910	RECOG_LURE	n/a	LTP111	ltpFR	15	8	n/a	INVENTOR	743	1	n/a	n/a	n/a	n/a	n/a	n/a
3805661	RECOG_RESP	n/a	LTP111	ltpFR	15	8	n/a	INVENTOR	743	n/a	n/a	n/a	n/a	n/a	n/a	n/a
3806394	RECOG_CONF	n/a	LTP111	ltpFR	15	8	n/a	INVENTOR	743	1	n/a	n/a	n/a	n/a	n/a	n/a
3807749	RECOG_LURE	n/a	LTP111	ltpFR	15	8	n/a	DISHWASHER	475	1	n/a	n/a	n/a	n/a	n/a	n/a
3808554	RECOG_RESP	n/a	LTP111	ltpFR	15	8	n/a	DISHWASHER	475	n/a	n/a	n/a	n/a	n/a	n/a	n/a
3809277	RECOG_CONF	n/a	LTP111	ltpFR	15	8	n/a	DISHWASHER	475	1	n/a	n/a	n/a	n/a	n/a	n/a
3810662	RECOG_LURE	n/a	LTP111	ltpFR	15	8	n/a	SNAKE	1333	1	n/a	n/a	n/a	n/a	n/a	n/a
3811348	RECOG_RESP	n/a	LTP111	ltpFR	15	8	n/a	SNAKE	1333	n/a	n/a	n/a	n/a	n/a	n/a	n/a
3812071	RECOG_CONF	n/a	LTP111	ltpFR	15	8	n/a	SNAKE	1333	1	n/a	n/a	n/a	n/a	n/a	n/a
3813484	RECOG_TARGET	n/a	LTP111	ltpFR	15	8	0	LITERATURE	831	1	0	n/a	n/a	n/a	n/a	n/a
3814461	RECOG_RESP	n/a	LTP111	ltpFR	15	8	0	LITERATURE	831	n/a	0	n/a	n/a	n/a	n/a	n/a
3815174	RECOG_CONF	n/a	LTP111	ltpFR	15	8	0	LITERATURE	831	1	0	n/a	n/a	n/a	n/a	n/a
3816547	RECOG_LURE	n/a	LTP111	ltpFR	15	8	n/a	TUNA	1518	1	n/a	n/a	n/a	n/a	n/a	n/a
3817903	RECOG_RESP	n/a	LTP111	ltpFR	15	8	n/a	TUNA	1518	n/a	n/a	n/a	n/a	n/a	n/a	n/a
3818656	RECOG_CONF	n/a	LTP111	ltpFR	15	8	n/a	TUNA	1518	1	n/a	n/a	n/a	n/a	n/a	n/a
3819976	RECOG_TARGET	n/a	LTP111	ltpFR	15	8	-1	CUBE	420	1	-1	n/a	n/a	n/a	n/a	n/a
3820991	RECOG_RESP	n/a	LTP111	ltpFR	15	8	-1	CUBE	420	n/a	-1	n/a	n/a	n/a	n/a	n/a
3821739	RECOG_CONF	n/a	LTP111	ltpFR	15	8	-1	CUBE	420	1	-1	n/a	n/a	n/a	n/a	n/a
3823122	RECOG_LURE	n/a	LTP111	ltpFR	15	8	n/a	MAT	877	1	n/a	n/a	n/a	n/a	n/a	n/a
3824179	RECOG_RESP	n/a	LTP111	ltpFR	15	8	n/a	MAT	877	n/a	n/a	n/a	n/a	n/a	n/a	n/a
3824802	RECOG_CONF	n/a	LTP111	ltpFR	15	8	n/a	MAT	877	1	n/a	n/a	n/a	n/a	n/a	n/a
3826061	RECOG_LURE	n/a	LTP111	ltpFR	15	8	n/a	PLAQUE	1084	1	n/a	n/a	n/a	n/a	n/a	n/a
3826897	RECOG_RESP	n/a	LTP111	ltpFR	15	8	n/a	PLAQUE	1084	n/a	n/a	n/a	n/a	n/a	n/a	n/a
3827616	RECOG_CONF	n/a	LTP111	ltpFR	15	8	n/a	PLAQUE	1084	1	n/a	n/a	n/a	n/a	n/a	n/a
3828966	RECOG_LURE	n/a	LTP111	ltpFR	15	8	n/a	PUCK	1138	1	n/a	n/a	n/a	n/a	n/a	n/a
3830010	RECOG_RESP	n/a	LTP111	ltpFR	15	8	n/a	PUCK	1138	n/a	n/a	n/a	n/a	n/a	n/a	n/a
3830749	RECOG_CONF	n/a	LTP111	ltpFR	15	8	n/a	PUCK	1138	1	n/a	n/a	n/a	n/a	n/a	n/a
3832120	RECOG_TARGET	n/a	LTP111	ltpFR	15	8	0	SWORD	1423	1	0	n/a	n/a	n/a	n/a	n/a
3832959	RECOG_RESP	n/a	LTP111	ltpFR	15	8	0	SWORD	1423	n/a	0	n/a	n/a	n/a	n/a	n/a
3833672	RECOG_CONF	n/a	LTP111	ltpFR	15	8	0	SWORD	1423	1	0	n/a	n/a	n/a	n/a	n/a
3834992	RECOG_TARGET	n/a	LTP111	ltpFR	15	8	0	CASKET	255	1	0	n/a	n/a	n/a	n/a	n/a
3835807	RECOG_RESP	n/a	LTP111	ltpFR	15	8	0	CASKET	255	n/a	0	n/a	n/a	n/a	n/a	n/a
3836496	RECOG_CONF	n/a	LTP111	ltpFR	15	8	0	CASKET	255	1	0	n/a	n/a	n/a	n/a	n/a
3837805	RECOG_TARGET	n/a	LTP111	ltpFR	15	8	-1	STALLION	1369	1	-1	n/a	n/a	n/a	n/a	n/a
3838571	RECOG_RESP	n/a	LTP111	ltpFR	15	8	-1	STALLION	1369	n/a	-1	n/a	n/a	n/a	n/a	n/a
3839279	RECOG_CONF	n/a	LTP111	ltpFR	15	8	-1	STALLION	1369	1	-1	n/a	n/a	n/a	n/a	n/a
3840735	RECOG_TARGET	n/a	LTP111	ltpFR	15	8	0	ROCKET	1202	1	0	n/a	n/a	n/a	n/a	n/a
3841659	RECOG_RESP	n/a	LTP111	ltpFR	15	8	0	ROCKET	1202	n/a	0	n/a	n/a	n/a	n/a	n/a
3842332	RECOG_CONF	n/a	LTP111	ltpFR	15	8	0	ROCKET	1202	1	0	n/a	n/a	n/a	n/a	n/a
3845260	REC_START	n/a	LTP111	ltpFR	15	9	n/a	n/a	n/a	n/a	n/a	n/a	n/a	n/a	n/a	n/a
3845289	RECOG_TARGET	n/a	LTP111	ltpFR	15	9	1	ATTORNEY	58	4	0	n/a	n/a	n/a	n/a	n/a
3846262	RECOG_RESP	n/a	LTP111	ltpFR	15	9	1	ATTORNEY	58	n/a	0	n/a	n/a	n/a	n/a	n/a
3847031	RECOG_CONF	n/a	LTP111	ltpFR	15	9	1	ATTORNEY	58	4	0	n/a	n/a	n/a	n/a	n/a
3848376	RECOG_TARGET	n/a	LTP111	ltpFR	15	9	1	PEDESTRIAN	1038	1	1	n/a	n/a	n/a	n/a	n/a
3849171	RECOG_RESP	n/a	LTP111	ltpFR	15	9	1	PEDESTRIAN	1038	n/a	1	n/a	n/a	n/a	n/a	n/a
3849765	RECOG_CONF	n/a	LTP111	ltpFR	15	9	1	PEDESTRIAN	1038	1	1	n/a	n/a	n/a	n/a	n/a
3851123	RECOG_LURE	n/a	LTP111	ltpFR	15	9	n/a	BUBBLE	183	1	n/a	n/a	n/a	n/a	n/a	n/a
3851670	RECOG_RESP	n/a	LTP111	ltpFR	15	9	n/a	BUBBLE	183	n/a	n/a	n/a	n/a	n/a	n/a	n/a
3852259	RECOG_CONF	n/a	LTP111	ltpFR	15	9	n/a	BUBBLE	183	1	n/a	n/a	n/a	n/a	n/a	n/a
3853645	RECOG_LURE	n/a	LTP111	ltpFR	15	9	n/a	LADY	794	1	n/a	n/a	n/a	n/a	n/a	n/a
3854489	RECOG_RESP	n/a	LTP111	ltpFR	15	9	n/a	LADY	794	n/a	n/a	n/a	n/a	n/a	n/a	n/a
3855142	RECOG_CONF	n/a	LTP111	ltpFR	15	9	n/a	LADY	794	1	n/a	n/a	n/a	n/a	n/a	n/a
3856492	RECOG_TARGET	n/a	LTP111	ltpFR	15	9	0	MUSHROOM	934	4	0	n/a	n/a	n/a	n/a	n/a
3857317	RECOG_RESP	n/a	LTP111	ltpFR	15	9	0	MUSHROOM	934	n/a	0	n/a	n/a	n/a	n/a	n/a
3858046	RECOG_CONF	n/a	LTP111	ltpFR	15	9	0	MUSHROOM	934	4	0	n/a	n/a	n/a	n/a	n/a
3859389	RECOG_LURE	n/a	LTP111	ltpFR	15	9	n/a	TRASH	1497	3	n/a	n/a	n/a	n/a	n/a	n/a
3860306	RECOG_RESP	n/a	LTP111	ltpFR	15	9	n/a	TRASH	1497	n/a	n/a	n/a	n/a	n/a	n/a	n/a
3861099	RECOG_CONF	n/a	LTP111	ltpFR	15	9	n/a	TRASH	1497	3	n/a	n/a	n/a	n/a	n/a	n/a
3862535	RECOG_TARGET	n/a	LTP111	ltpFR	15	9	1	BARK	87	3	0	n/a	n/a	n/a	n/a	n/a
3863339	RECOG_RESP	n/a	LTP111	ltpFR	15	9	1	BARK	87	n/a	0	n/a	n/a	n/a	n/a	n/a
3864102	RECOG_CONF	n/a	LTP111	ltpFR	15	9	1	BARK	87	3	0	n/a	n/a	n/a	n/a	n/a
3865448	RECOG_LURE	n/a	LTP111	ltpFR	15	9	n/a	SANDWICH	1232	1	n/a	n/a	n/a	n/a	n/a	n/a
3866282	RECOG_RESP	n/a	LTP111	ltpFR	15	9	n/a	SANDWICH	1232	n/a	n/a	n/a	n/a	n/a	n/a	n/a
3866995	RECOG_CONF	n/a	LTP111	ltpFR	15	9	n/a	SANDWICH	1232	1	n/a	n/a	n/a	n/a	n/a	n/a
3868353	RECOG_LURE	n/a	LTP111	ltpFR	15	9	n/a	FINGER	567	2	n/a	n/a	n/a	n/a	n/a	n/a
3869210	RECOG_RESP	n/a	LTP111	ltpFR	15	9	n/a	FINGER	567	n/a	n/a	n/a	n/a	n/a	n/a	n/a
3869969	RECOG_CONF	n/a	LTP111	ltpFR	15	9	n/a	FINGER	567	2	n/a	n/a	n/a	n/a	n/a	n/a
3871276	RECOG_LURE	n/a	LTP111	ltpFR	15	9	n/a	LOFT	840	2	n/a	n/a	n/a	n/a	n/a	n/a
3872503	RECOG_RESP	n/a	LTP111	ltpFR	15	9	n/a	LOFT	840	n/a	n/a	n/a	n/a	n/a	n/a	n/a
3873271	RECOG_CONF	n/a	LTP111	ltpFR	15	9	n/a	LOFT	840	2	n/a	n/a	n/a	n/a	n/a	n/a
3874638	RECOG_TARGET	n/a	LTP111	ltpFR	15	9	-1	POTATO	1115	4	-1	n/a	n/a	n/a	n/a	n/a
