onset	duration	trial_type	sample	stim_file	subject	experiment	session	trial	item_name	item_num	list	answer	test_x	test_y	test_z
226.86376953125	n/a	SESS_START	464617	n/a	LTP339	ltpFR2	23	n/a	n/a	n/a	n/a	n/a	0	0	0
245.375	n/a	START	502528	n/a	LTP339	ltpFR2	23	n/a	n/a	n/a	-1	n/a	n/a	n/a	n/a
245.40478515625	n/a	PROB	502589	n/a	LTP339	ltpFR2	23	n/a	n/a	n/a	-1	10	4	2	4
247.13720703125	n/a	PROB	506137	n/a	LTP339	ltpFR2	23	n/a	n/a	n/a	-1	16	4	3	9
249.2861328125	n/a	PROB	510538	n/a	LTP339	ltpFR2	23	n/a	n/a	n/a	-1	15	5	1	9
250.55126953125	n/a	PROB	513129	n/a	LTP339	ltpFR2	23	n/a	n/a	n/a	-1	14	5	5	4
251.80224609375	n/a	PROB	515691	n/a	LTP339	ltpFR2	23	n/a	n/a	n/a	-1	10	1	2	7
252.98486328125	n/a	PROB	518113	n/a	LTP339	ltpFR2	23	n/a	n/a	n/a	-1	13	7	5	1
257.375	n/a	STOP	527104	n/a	LTP339	ltpFR2	23	n/a	n/a	n/a	-1	n/a	n/a	n/a	n/a
301.4931640625	n/a	DISTRACTOR	617458	n/a	LTP339	ltpFR2	23	1	n/a	n/a	n/a	n/a	0	0	0
301.4931640625	n/a	START	617458	n/a	LTP339	ltpFR2	23	n/a	n/a	n/a	1	n/a	n/a	n/a	n/a
301.51025390625	n/a	PROB	617493	n/a	LTP339	ltpFR2	23	n/a	n/a	n/a	1	17	4	6	7
303.21044921875	n/a	PROB	620975	n/a	LTP339	ltpFR2	23	n/a	n/a	n/a	1	15	2	8	5
304.69140625	n/a	PROB	624008	n/a	LTP339	ltpFR2	23	n/a	n/a	n/a	1	10	6	3	1
305.80859375	n/a	PROB	626296	n/a	LTP339	ltpFR2	23	n/a	n/a	n/a	1	13	5	2	6
307.70654296875	n/a	PROB	630183	n/a	LTP339	ltpFR2	23	n/a	n/a	n/a	1	22	7	9	6
309.67236328125	n/a	PROB	634209	n/a	LTP339	ltpFR2	23	n/a	n/a	n/a	1	17	1	9	7
311.0224609375	n/a	PROB	636974	n/a	LTP339	ltpFR2	23	n/a	n/a	n/a	1	19	6	6	7
312.62158203125	n/a	PROB	640249	n/a	LTP339	ltpFR2	23	n/a	n/a	n/a	1	17	8	4	5
314.37158203125	n/a	PROB	643833	n/a	LTP339	ltpFR2	23	n/a	n/a	n/a	1	25	8	7	9
317.353515625	n/a	PROB	649940	n/a	LTP339	ltpFR2	23	n/a	n/a	n/a	1	9	2	3	4
320.2685546875	n/a	PROB	655910	n/a	LTP339	ltpFR2	23	n/a	n/a	n/a	1	13	4	6	3
322.16748046875	n/a	PROB	659799	n/a	LTP339	ltpFR2	23	n/a	n/a	n/a	1	13	6	6	1
323.3505859375	n/a	PROB	662222	n/a	LTP339	ltpFR2	23	n/a	n/a	n/a	1	17	7	2	8
325.05029296875	n/a	STOP	665703	n/a	LTP339	ltpFR2	23	n/a	n/a	n/a	1	n/a	n/a	n/a	n/a
326.3154296875	n/a	WORD	668294	wordpools/wasnorm_wordpool_576.txt	LTP339	ltpFR2	23	1	ALMOND	18	n/a	n/a	0	0	0
329.13037109375	n/a	WORD	674059	wordpools/wasnorm_wordpool_576.txt	LTP339	ltpFR2	23	1	SEAGULL	1261	n/a	n/a	0	0	0
331.74658203125	n/a	WORD	679417	wordpools/wasnorm_wordpool_576.txt	LTP339	ltpFR2	23	1	MUMMY	932	n/a	n/a	0	0	0
334.3115234375	n/a	WORD	684670	wordpools/wasnorm_wordpool_576.txt	LTP339	ltpFR2	23	1	XEROX	1628	n/a	n/a	0	0	0
336.91064453125	n/a	WORD	689993	wordpools/wasnorm_wordpool_576.txt	LTP339	ltpFR2	23	1	DART	440	n/a	n/a	0	0	0
339.65771484375	n/a	WORD	695619	wordpools/wasnorm_wordpool_576.txt	LTP339	ltpFR2	23	1	CHECKERS	285	n/a	n/a	0	0	0
342.2578125	n/a	WORD	700944	wordpools/wasnorm_wordpool_576.txt	LTP339	ltpFR2	23	1	PARTY	1018	n/a	n/a	0	0	0
344.939453125	n/a	WORD	706436	wordpools/wasnorm_wordpool_576.txt	LTP339	ltpFR2	23	1	CIRCUS	311	n/a	n/a	0	0	0
347.7548828125	n/a	WORD	712202	wordpools/wasnorm_wordpool_576.txt	LTP339	ltpFR2	23	1	PIRATE	1074	n/a	n/a	0	0	0
350.3369140625	n/a	WORD	717490	wordpools/wasnorm_wordpool_576.txt	LTP339	ltpFR2	23	1	COLONEL	348	n/a	n/a	0	0	0
353.0029296875	n/a	WORD	722950	wordpools/wasnorm_wordpool_576.txt	LTP339	ltpFR2	23	1	ROBBER	1197	n/a	n/a	0	0	0
355.69970703125	n/a	WORD	728473	wordpools/wasnorm_wordpool_576.txt	LTP339	ltpFR2	23	1	ROBIN	1199	n/a	n/a	0	0	0
358.2666015625	n/a	WORD	733730	wordpools/wasnorm_wordpool_576.txt	LTP339	ltpFR2	23	1	FLESH	579	n/a	n/a	0	0	0
360.69775390625	n/a	WORD	738709	wordpools/wasnorm_wordpool_576.txt	LTP339	ltpFR2	23	1	DOORBELL	487	n/a	n/a	0	0	0
363.49560546875	n/a	WORD	744439	wordpools/wasnorm_wordpool_576.txt	LTP339	ltpFR2	23	1	TEMPLE	1448	n/a	n/a	0	0	0
366.1787109375	n/a	WORD	749934	wordpools/wasnorm_wordpool_576.txt	LTP339	ltpFR2	23	1	ELK	526	n/a	n/a	0	0	0
368.8447265625	n/a	WORD	755394	wordpools/wasnorm_wordpool_576.txt	LTP339	ltpFR2	23	1	HARP	689	n/a	n/a	0	0	0
371.6259765625	n/a	WORD	761090	wordpools/wasnorm_wordpool_576.txt	LTP339	ltpFR2	23	1	SENATE	1267	n/a	n/a	0	0	0
374.1748046875	n/a	WORD	766310	wordpools/wasnorm_wordpool_576.txt	LTP339	ltpFR2	23	1	RULER	1216	n/a	n/a	0	0	0
376.99072265625	n/a	WORD	772077	wordpools/wasnorm_wordpool_576.txt	LTP339	ltpFR2	23	1	HAMPER	682	n/a	n/a	0	0	0
379.671875	n/a	WORD	777568	wordpools/wasnorm_wordpool_576.txt	LTP339	ltpFR2	23	1	WASHER	1592	n/a	n/a	0	0	0
382.3876953125	n/a	WORD	783130	wordpools/wasnorm_wordpool_576.txt	LTP339	ltpFR2	23	1	POET	1095	n/a	n/a	0	0	0
385.06982421875	n/a	WORD	788623	wordpools/wasnorm_wordpool_576.txt	LTP339	ltpFR2	23	1	SQUIRREL	1362	n/a	n/a	0	0	0
387.5009765625	n/a	WORD	793602	wordpools/wasnorm_wordpool_576.txt	LTP339	ltpFR2	23	1	SHAMPOO	1274	n/a	n/a	0	0	0
389.1181640625	n/a	START	796914	n/a	LTP339	ltpFR2	23	n/a	n/a	n/a	2	n/a	n/a	n/a	n/a
390.14697265625	n/a	DISTRACTOR	799021	n/a	LTP339	ltpFR2	23	1	n/a	n/a	n/a	n/a	0	0	0
390.15087890625	n/a	PROB	799029	n/a	LTP339	ltpFR2	23	n/a	n/a	n/a	2	12	1	6	5
391.93310546875	n/a	PROB	802679	n/a	LTP339	ltpFR2	23	n/a	n/a	n/a	2	23	6	9	8
396.23095703125	n/a	PROB	811481	n/a	LTP339	ltpFR2	23	n/a	n/a	n/a	2	22	7	6	9
399.77880859375	n/a	PROB	818747	n/a	LTP339	ltpFR2	23	n/a	n/a	n/a	2	16	7	7	2
401.11181640625	n/a	PROB	821477	n/a	LTP339	ltpFR2	23	n/a	n/a	n/a	2	119	8	4	7
402.92822265625	n/a	PROB	825197	n/a	LTP339	ltpFR2	23	n/a	n/a	n/a	2	18	4	6	8
406.5419921875	n/a	PROB	832598	n/a	LTP339	ltpFR2	23	n/a	n/a	n/a	2	9	1	5	3
408.22509765625	n/a	PROB	836045	n/a	LTP339	ltpFR2	23	n/a	n/a	n/a	2	13	1	4	8
409.97412109375	n/a	PROB	839627	n/a	LTP339	ltpFR2	23	n/a	n/a	n/a	2	14	3	3	8
411.794921875	n/a	STOP	843356	n/a	LTP339	ltpFR2	23	n/a	n/a	n/a	2	n/a	n/a	n/a	n/a
414.9560546875	n/a	REC_START	849830	n/a	LTP339	ltpFR2	23	1	n/a	n/a	n/a	n/a	0	0	0
415.2939453125	n/a	REC_WORD	850522	wordpools/wasnorm_wordpool_576.txt	LTP339	ltpFR2	23	1	ALMOND	18	n/a	n/a	0	0	0
416.125	n/a	REC_WORD	852224	wordpools/wasnorm_wordpool_576.txt	LTP339	ltpFR2	23	1	DART	440	n/a	n/a	0	0	0
416.65234375	n/a	REC_WORD	853304	wordpools/wasnorm_wordpool_576.txt	LTP339	ltpFR2	23	1	MUMMY	932	n/a	n/a	0	0	0
419.3251953125	n/a	REC_WORD	858778	wordpools/wasnorm_wordpool_576.txt	LTP339	ltpFR2	23	1	PIRATE	1074	n/a	n/a	0	0	0
430.05810546875	n/a	REC_WORD	880759	wordpools/wasnorm_wordpool_576.txt	LTP339	ltpFR2	23	1	COLONEL	348	n/a	n/a	0	0	0
505.41064453125	n/a	WORD	1035081	wordpools/wasnorm_wordpool_576.txt	LTP339	ltpFR2	23	2	WRENCH	1625	n/a	n/a	0	0	0
508.009765625	n/a	WORD	1040404	wordpools/wasnorm_wordpool_576.txt	LTP339	ltpFR2	23	2	DRILL	497	n/a	n/a	0	0	0
510.69091796875	n/a	WORD	1045895	wordpools/wasnorm_wordpool_576.txt	LTP339	ltpFR2	23	2	TIGER	1467	n/a	n/a	0	0	0
513.140625	n/a	WORD	1050912	wordpools/wasnorm_wordpool_576.txt	LTP339	ltpFR2	23	2	LITTER	832	n/a	n/a	0	0	0
515.5888671875	n/a	WORD	1055926	wordpools/wasnorm_wordpool_576.txt	LTP339	ltpFR2	23	2	CEILING	265	n/a	n/a	0	0	0
518.40478515625	n/a	WORD	1061693	wordpools/wasnorm_wordpool_576.txt	LTP339	ltpFR2	23	2	WAIST	1579	n/a	n/a	0	0	0
520.95361328125	n/a	WORD	1066913	wordpools/wasnorm_wordpool_576.txt	LTP339	ltpFR2	23	2	BUCKLE	185	n/a	n/a	0	0	0
523.61767578125	n/a	WORD	1072369	wordpools/wasnorm_wordpool_576.txt	LTP339	ltpFR2	23	2	WORLD	1622	n/a	n/a	0	0	0
526.15087890625	n/a	WORD	1077557	wordpools/wasnorm_wordpool_576.txt	LTP339	ltpFR2	23	2	LAUNDRY	803	n/a	n/a	0	0	0
528.89990234375	n/a	WORD	1083187	wordpools/wasnorm_wordpool_576.txt	LTP339	ltpFR2	23	2	PARTNER	1017	n/a	n/a	0	0	0
531.33203125	n/a	WORD	1088168	wordpools/wasnorm_wordpool_576.txt	LTP339	ltpFR2	23	2	SALAD	1224	n/a	n/a	0	0	0
533.94677734375	n/a	WORD	1093523	wordpools/wasnorm_wordpool_576.txt	LTP339	ltpFR2	23	2	FLIPPER	580	n/a	n/a	0	0	0
536.5107421875	n/a	WORD	1098774	wordpools/wasnorm_wordpool_576.txt	LTP339	ltpFR2	23	2	KITTEN	780	n/a	n/a	0	0	0
538.94482421875	n/a	WORD	1103759	wordpools/wasnorm_wordpool_576.txt	LTP339	ltpFR2	23	2	PECAN	1036	n/a	n/a	0	0	0
541.591796875	n/a	WORD	1109180	wordpools/wasnorm_wordpool_576.txt	LTP339	ltpFR2	23	2	LADY	794	n/a	n/a	0	0	0
544.05908203125	n/a	WORD	1114233	wordpools/wasnorm_wordpool_576.txt	LTP339	ltpFR2	23	2	FIGHTER	564	n/a	n/a	0	0	0
546.505859375	n/a	WORD	1119244	wordpools/wasnorm_wordpool_576.txt	LTP339	ltpFR2	23	2	LETTUCE	814	n/a	n/a	0	0	0
549.3232421875	n/a	WORD	1125014	wordpools/wasnorm_wordpool_576.txt	LTP339	ltpFR2	23	2	PLAID	1080	n/a	n/a	0	0	0
552.0048828125	n/a	WORD	1130506	wordpools/wasnorm_wordpool_576.txt	LTP339	ltpFR2	23	2	WARDROBE	1587	n/a	n/a	0	0	0
554.7373046875	n/a	WORD	1136102	wordpools/wasnorm_wordpool_576.txt	LTP339	ltpFR2	23	2	CANVAS	234	n/a	n/a	0	0	0
557.28515625	n/a	WORD	1141320	wordpools/wasnorm_wordpool_576.txt	LTP339	ltpFR2	23	2	SEASHORE	1263	n/a	n/a	0	0	0
559.951171875	n/a	WORD	1146780	wordpools/wasnorm_wordpool_576.txt	LTP339	ltpFR2	23	2	LEMON	810	n/a	n/a	0	0	0
562.48291015625	n/a	WORD	1151965	wordpools/wasnorm_wordpool_576.txt	LTP339	ltpFR2	23	2	SPRINKLE	1359	n/a	n/a	0	0	0
565.21533203125	n/a	WORD	1157561	wordpools/wasnorm_wordpool_576.txt	LTP339	ltpFR2	23	2	PORPOISE	1109	n/a	n/a	0	0	0
566.8310546875	n/a	START	1160870	n/a	LTP339	ltpFR2	23	n/a	n/a	n/a	3	n/a	n/a	n/a	n/a
567.7451171875	n/a	DISTRACTOR	1162742	n/a	LTP339	ltpFR2	23	2	n/a	n/a	n/a	n/a	0	0	0
567.7470703125	n/a	PROB	1162746	n/a	LTP339	ltpFR2	23	n/a	n/a	n/a	3	13	6	6	1
569.18017578125	n/a	PROB	1165681	n/a	LTP339	ltpFR2	23	n/a	n/a	n/a	3	18	6	7	5
572.21142578125	n/a	PROB	1171889	n/a	LTP339	ltpFR2	23	n/a	n/a	n/a	3	14	1	7	6
574.34423828125	n/a	PROB	1176257	n/a	LTP339	ltpFR2	23	n/a	n/a	n/a	3	8	4	1	3
575.87646484375	n/a	PROB	1179395	n/a	LTP339	ltpFR2	23	n/a	n/a	n/a	3	17	9	3	5
579.12548828125	n/a	PROB	1186049	n/a	LTP339	ltpFR2	23	n/a	n/a	n/a	3	16	3	6	7
583.5380859375	n/a	PROB	1195086	n/a	LTP339	ltpFR2	23	n/a	n/a	n/a	3	17	8	2	7
584.80517578125	n/a	PROB	1197681	n/a	LTP339	ltpFR2	23	n/a	n/a	n/a	3	11	4	2	5
587.05419921875	n/a	PROB	1202287	n/a	LTP339	ltpFR2	23	n/a	n/a	n/a	3	10	2	6	2
590.83056640625	n/a	STOP	1210021	n/a	LTP339	ltpFR2	23	n/a	n/a	n/a	3	n/a	n/a	n/a	n/a
592.7353515625	n/a	REC_START	1213922	n/a	LTP339	ltpFR2	23	2	n/a	n/a	n/a	n/a	0	0	0
593.22314453125	n/a	REC_WORD	1214921	wordpools/wasnorm_wordpool_576.txt	LTP339	ltpFR2	23	2	WRENCH	1625	n/a	n/a	0	0	0
593.87646484375	n/a	REC_WORD	1216259	wordpools/wasnorm_wordpool_576.txt	LTP339	ltpFR2	23	2	DRILL	497	n/a	n/a	0	0	0
594.63232421875	n/a	REC_WORD	1217807	wordpools/wasnorm_wordpool_576.txt	LTP339	ltpFR2	23	2	TIGER	1467	n/a	n/a	0	0	0
595.33056640625	n/a	REC_WORD	1219237	wordpools/wasnorm_wordpool_576.txt	LTP339	ltpFR2	23	2	LITTER	832	n/a	n/a	0	0	0
595.9873046875	n/a	REC_WORD	1220582	wordpools/wasnorm_wordpool_576.txt	LTP339	ltpFR2	23	2	CEILING	265	n/a	n/a	0	0	0
596.88720703125	n/a	REC_WORD	1222425	wordpools/wasnorm_wordpool_576.txt	LTP339	ltpFR2	23	2	SEASHORE	1263	n/a	n/a	0	0	0
597.7763671875	n/a	REC_WORD	1224246	wordpools/wasnorm_wordpool_576.txt	LTP339	ltpFR2	23	2	LEMON	810	n/a	n/a	0	0	0
683.20703125	n/a	DISTRACTOR	1399208	n/a	LTP339	ltpFR2	23	3	n/a	n/a	n/a	n/a	0	0	0
683.20703125	n/a	START	1399208	n/a	LTP339	ltpFR2	23	n/a	n/a	n/a	4	n/a	n/a	n/a	n/a
683.22412109375	n/a	PROB	1399243	n/a	LTP339	ltpFR2	23	n/a	n/a	n/a	4	14	5	1	8
685.18994140625	n/a	PROB	1403269	n/a	LTP339	ltpFR2	23	n/a	n/a	n/a	4	14	3	9	2
687.921875	n/a	PROB	1408864	n/a	LTP339	ltpFR2	23	n/a	n/a	n/a	4	15	8	6	1
689.48681640625	n/a	PROB	1412069	n/a	LTP339	ltpFR2	23	n/a	n/a	n/a	4	13	6	6	1
690.73681640625	n/a	PROB	1414629	n/a	LTP339	ltpFR2	23	n/a	n/a	n/a	4	16	8	3	5
692.8359375	n/a	PROB	1418928	n/a	LTP339	ltpFR2	23	n/a	n/a	n/a	4	18	6	9	3
694.6669921875	n/a	PROB	1422678	n/a	LTP339	ltpFR2	23	n/a	n/a	n/a	4	19	6	9	4
696.1181640625	n/a	PROB	1425650	n/a	LTP339	ltpFR2	23	n/a	n/a	n/a	4	17	3	9	5
698.30029296875	n/a	PROB	1430119	n/a	LTP339	ltpFR2	23	n/a	n/a	n/a	4	13	3	3	7
700.08203125	n/a	PROB	1433768	n/a	LTP339	ltpFR2	23	n/a	n/a	n/a	4	9	2	3	4
702.68017578125	n/a	PROB	1439089	n/a	LTP339	ltpFR2	23	n/a	n/a	n/a	4	17	2	9	6
705.1962890625	n/a	PROB	1444242	n/a	LTP339	ltpFR2	23	n/a	n/a	n/a	4	18	8	7	3
706.47705078125	n/a	STOP	1446865	n/a	LTP339	ltpFR2	23	n/a	n/a	n/a	4	n/a	n/a	n/a	n/a
708.22802734375	n/a	WORD	1450451	wordpools/wasnorm_wordpool_576.txt	LTP339	ltpFR2	23	3	CROSS	413	n/a	n/a	0	0	0
711.02734375	n/a	WORD	1456184	wordpools/wasnorm_wordpool_576.txt	LTP339	ltpFR2	23	3	DRINK	498	n/a	n/a	0	0	0
713.57421875	n/a	WORD	1461400	wordpools/wasnorm_wordpool_576.txt	LTP339	ltpFR2	23	3	FARMER	553	n/a	n/a	0	0	0
716.32421875	n/a	WORD	1467032	wordpools/wasnorm_wordpool_576.txt	LTP339	ltpFR2	23	3	PLAYGROUND	1087	n/a	n/a	0	0	0
718.84033203125	n/a	WORD	1472185	wordpools/wasnorm_wordpool_576.txt	LTP339	ltpFR2	23	3	CACTUS	215	n/a	n/a	0	0	0
721.47216796875	n/a	WORD	1477575	wordpools/wasnorm_wordpool_576.txt	LTP339	ltpFR2	23	3	BUGGY	188	n/a	n/a	0	0	0
724.25341796875	n/a	WORD	1483271	wordpools/wasnorm_wordpool_576.txt	LTP339	ltpFR2	23	3	LUMBER	848	n/a	n/a	0	0	0
727.05224609375	n/a	WORD	1489003	wordpools/wasnorm_wordpool_576.txt	LTP339	ltpFR2	23	3	RODENT	1204	n/a	n/a	0	0	0
729.8173828125	n/a	WORD	1494666	wordpools/wasnorm_wordpool_576.txt	LTP339	ltpFR2	23	3	SALMON	1227	n/a	n/a	0	0	0
732.33349609375	n/a	WORD	1499819	wordpools/wasnorm_wordpool_576.txt	LTP339	ltpFR2	23	3	CLAM	315	n/a	n/a	0	0	0
735.0654296875	n/a	WORD	1505414	wordpools/wasnorm_wordpool_576.txt	LTP339	ltpFR2	23	3	CHURCH	307	n/a	n/a	0	0	0
737.51318359375	n/a	WORD	1510427	wordpools/wasnorm_wordpool_576.txt	LTP339	ltpFR2	23	3	INFANT	737	n/a	n/a	0	0	0
740.29638671875	n/a	WORD	1516127	wordpools/wasnorm_wordpool_576.txt	LTP339	ltpFR2	23	3	MAMMAL	861	n/a	n/a	0	0	0
743.02734375	n/a	WORD	1521720	wordpools/wasnorm_wordpool_576.txt	LTP339	ltpFR2	23	3	BACKBONE	66	n/a	n/a	0	0	0
745.70849609375	n/a	WORD	1527211	wordpools/wasnorm_wordpool_576.txt	LTP339	ltpFR2	23	3	MARROW	872	n/a	n/a	0	0	0
748.34228515625	n/a	WORD	1532605	wordpools/wasnorm_wordpool_576.txt	LTP339	ltpFR2	23	3	SHINGLE	1285	n/a	n/a	0	0	0
751.12353515625	n/a	WORD	1538301	wordpools/wasnorm_wordpool_576.txt	LTP339	ltpFR2	23	3	WALNUT	1584	n/a	n/a	0	0	0
753.87255859375	n/a	WORD	1543931	wordpools/wasnorm_wordpool_576.txt	LTP339	ltpFR2	23	3	CREEK	404	n/a	n/a	0	0	0
756.3544921875	n/a	WORD	1549014	wordpools/wasnorm_wordpool_576.txt	LTP339	ltpFR2	23	3	SCALPEL	1243	n/a	n/a	0	0	0
758.986328125	n/a	WORD	1554404	wordpools/wasnorm_wordpool_576.txt	LTP339	ltpFR2	23	3	NURSE	963	n/a	n/a	0	0	0
761.70166015625	n/a	WORD	1559965	wordpools/wasnorm_wordpool_576.txt	LTP339	ltpFR2	23	3	FIREPLACE	570	n/a	n/a	0	0	0
764.28466796875	n/a	WORD	1565255	wordpools/wasnorm_wordpool_576.txt	LTP339	ltpFR2	23	3	NEPHEW	942	n/a	n/a	0	0	0
766.96630859375	n/a	WORD	1570747	wordpools/wasnorm_wordpool_576.txt	LTP339	ltpFR2	23	3	STAIRS	1367	n/a	n/a	0	0	0
769.46435546875	n/a	WORD	1575863	wordpools/wasnorm_wordpool_576.txt	LTP339	ltpFR2	23	3	STRANGER	1389	n/a	n/a	0	0	0
771.08154296875	n/a	START	1579175	n/a	LTP339	ltpFR2	23	n/a	n/a	n/a	5	n/a	n/a	n/a	n/a
771.96630859375	n/a	DISTRACTOR	1580987	n/a	LTP339	ltpFR2	23	3	n/a	n/a	n/a	n/a	0	0	0
771.98046875	n/a	PROB	1581016	n/a	LTP339	ltpFR2	23	n/a	n/a	n/a	5	11	5	3	3
773.4296875	n/a	PROB	1583984	n/a	LTP339	ltpFR2	23	n/a	n/a	n/a	5	18	7	4	7
774.9287109375	n/a	PROB	1587054	n/a	LTP339	ltpFR2	23	n/a	n/a	n/a	5	18	8	6	4
776.57666015625	n/a	PROB	1590429	n/a	LTP339	ltpFR2	23	n/a	n/a	n/a	5	18	8	4	6
777.8447265625	n/a	PROB	1593026	n/a	LTP339	ltpFR2	23	n/a	n/a	n/a	5	12	2	6	4
779.5087890625	n/a	PROB	1596434	n/a	LTP339	ltpFR2	23	n/a	n/a	n/a	5	11	3	5	3
781.62451171875	n/a	PROB	1600767	n/a	LTP339	ltpFR2	23	n/a	n/a	n/a	5	13	1	8	4
783.30859375	n/a	PROB	1604216	n/a	LTP339	ltpFR2	23	n/a	n/a	n/a	5	24	9	8	7
785.65576171875	n/a	PROB	1609023	n/a	LTP339	ltpFR2	23	n/a	n/a	n/a	5	14	6	4	4
788.0224609375	n/a	PROB	1613870	n/a	LTP339	ltpFR2	23	n/a	n/a	n/a	5	16	3	8	5
789.9384765625	n/a	PROB	1617794	n/a	LTP339	ltpFR2	23	n/a	n/a	n/a	5	21	5	7	9
792.0537109375	n/a	PROB	1622126	n/a	LTP339	ltpFR2	23	n/a	n/a	n/a	5	13	4	5	4
794.61279296875	n/a	STOP	1627367	n/a	LTP339	ltpFR2	23	n/a	n/a	n/a	5	n/a	n/a	n/a	n/a
796.90185546875	n/a	REC_START	1632055	n/a	LTP339	ltpFR2	23	3	n/a	n/a	n/a	n/a	0	0	0
797.1689453125	n/a	REC_WORD	1632602	wordpools/wasnorm_wordpool_576.txt	LTP339	ltpFR2	23	3	CROSS	413	n/a	n/a	0	0	0
797.90673828125	n/a	REC_WORD	1634113	wordpools/wasnorm_wordpool_576.txt	LTP339	ltpFR2	23	3	DRINK	498	n/a	n/a	0	0	0
798.4189453125	n/a	REC_WORD	1635162	wordpools/wasnorm_wordpool_576.txt	LTP339	ltpFR2	23	3	FARMER	553	n/a	n/a	0	0	0
799.2705078125	n/a	REC_WORD	1636906	wordpools/wasnorm_wordpool_576.txt	LTP339	ltpFR2	23	3	PLAYGROUND	1087	n/a	n/a	0	0	0
800.06884765625	n/a	REC_WORD	1638541	wordpools/wasnorm_wordpool_576.txt	LTP339	ltpFR2	23	3	CACTUS	215	n/a	n/a	0	0	0
800.98876953125	n/a	REC_WORD	1640425	wordpools/wasnorm_wordpool_576.txt	LTP339	ltpFR2	23	3	CHURCH	307	n/a	n/a	0	0	0
801.90771484375	n/a	REC_WORD	1642307	wordpools/wasnorm_wordpool_576.txt	LTP339	ltpFR2	23	3	INFANT	737	n/a	n/a	0	0	0
808.90966796875	n/a	REC_WORD	1656647	wordpools/wasnorm_wordpool_576.txt	LTP339	ltpFR2	23	3	HUSBAND	728	n/a	n/a	0	0	0
809.90966796875	n/a	REC_WORD_VV	1658695	wordpools/wasnorm_wordpool_576.txt	LTP339	ltpFR2	23	3	<>	-1	n/a	n/a	0	0	0
813.69970703125	n/a	REC_WORD	1666457	wordpools/wasnorm_wordpool_576.txt	LTP339	ltpFR2	23	3	FIREMAN	569	n/a	n/a	0	0	0
814.69970703125	n/a	REC_WORD_VV	1668505	wordpools/wasnorm_wordpool_576.txt	LTP339	ltpFR2	23	3	<>	-1	n/a	n/a	0	0	0
815.181640625	n/a	REC_WORD	1669492	wordpools/wasnorm_wordpool_576.txt	LTP339	ltpFR2	23	3	FIREPLACE	570	n/a	n/a	0	0	0
854.0810546875	n/a	REC_WORD	1749158	wordpools/wasnorm_wordpool_576.txt	LTP339	ltpFR2	23	3	BACKBONE	66	n/a	n/a	0	0	0
858.97412109375	n/a	REC_WORD	1759179	wordpools/wasnorm_wordpool_576.txt	LTP339	ltpFR2	23	3	SCALPEL	1243	n/a	n/a	0	0	0
887.357421875	n/a	WORD	1817308	wordpools/wasnorm_wordpool_576.txt	LTP339	ltpFR2	23	4	GREASE	660	n/a	n/a	0	0	0
890.08935546875	n/a	WORD	1822903	wordpools/wasnorm_wordpool_576.txt	LTP339	ltpFR2	23	4	MEADOW	881	n/a	n/a	0	0	0
892.72021484375	n/a	WORD	1828291	wordpools/wasnorm_wordpool_576.txt	LTP339	ltpFR2	23	4	TULIP	1517	n/a	n/a	0	0	0
895.2705078125	n/a	WORD	1833514	wordpools/wasnorm_wordpool_576.txt	LTP339	ltpFR2	23	4	POSTAGE	1113	n/a	n/a	0	0	0
897.96826171875	n/a	WORD	1839039	wordpools/wasnorm_wordpool_576.txt	LTP339	ltpFR2	23	4	NAPKIN	937	n/a	n/a	0	0	0
900.599609375	n/a	WORD	1844428	wordpools/wasnorm_wordpool_576.txt	LTP339	ltpFR2	23	4	HANDCUFFS	685	n/a	n/a	0	0	0
903.33251953125	n/a	WORD	1850025	wordpools/wasnorm_wordpool_576.txt	LTP339	ltpFR2	23	4	FIELD	562	n/a	n/a	0	0	0
906.13134765625	n/a	WORD	1855757	wordpools/wasnorm_wordpool_576.txt	LTP339	ltpFR2	23	4	FOSSIL	596	n/a	n/a	0	0	0
908.79638671875	n/a	WORD	1861215	wordpools/wasnorm_wordpool_576.txt	LTP339	ltpFR2	23	4	FRECKLE	602	n/a	n/a	0	0	0
911.29541015625	n/a	WORD	1866333	wordpools/wasnorm_wordpool_576.txt	LTP339	ltpFR2	23	4	BOULDER	155	n/a	n/a	0	0	0
913.74462890625	n/a	WORD	1871349	wordpools/wasnorm_wordpool_576.txt	LTP339	ltpFR2	23	4	CONTRACT	368	n/a	n/a	0	0	0
916.4423828125	n/a	WORD	1876874	wordpools/wasnorm_wordpool_576.txt	LTP339	ltpFR2	23	4	HORSE	719	n/a	n/a	0	0	0
919.07470703125	n/a	WORD	1882265	wordpools/wasnorm_wordpool_576.txt	LTP339	ltpFR2	23	4	BISCUIT	130	n/a	n/a	0	0	0
921.74072265625	n/a	WORD	1887725	wordpools/wasnorm_wordpool_576.txt	LTP339	ltpFR2	23	4	DASHBOARD	441	n/a	n/a	0	0	0
924.50439453125	n/a	WORD	1893385	wordpools/wasnorm_wordpool_576.txt	LTP339	ltpFR2	23	4	COFFIN	342	n/a	n/a	0	0	0
926.98779296875	n/a	WORD	1898471	wordpools/wasnorm_wordpool_576.txt	LTP339	ltpFR2	23	4	SOLDIER	1344	n/a	n/a	0	0	0
929.802734375	n/a	WORD	1904236	wordpools/wasnorm_wordpool_576.txt	LTP339	ltpFR2	23	4	TOILET	1475	n/a	n/a	0	0	0
932.58349609375	n/a	WORD	1909931	wordpools/wasnorm_wordpool_576.txt	LTP339	ltpFR2	23	4	BAKER	71	n/a	n/a	0	0	0
935.216796875	n/a	WORD	1915324	wordpools/wasnorm_wordpool_576.txt	LTP339	ltpFR2	23	4	MAJOR	859	n/a	n/a	0	0	0
937.9658203125	n/a	WORD	1920954	wordpools/wasnorm_wordpool_576.txt	LTP339	ltpFR2	23	4	BALLOON	75	n/a	n/a	0	0	0
940.69677734375	n/a	WORD	1926547	wordpools/wasnorm_wordpool_576.txt	LTP339	ltpFR2	23	4	SATURN	1236	n/a	n/a	0	0	0
943.2294921875	n/a	WORD	1931734	wordpools/wasnorm_wordpool_576.txt	LTP339	ltpFR2	23	4	FREEWAY	603	n/a	n/a	0	0	0
945.7275390625	n/a	WORD	1936850	wordpools/wasnorm_wordpool_576.txt	LTP339	ltpFR2	23	4	REPTILE	1185	n/a	n/a	0	0	0
948.4267578125	n/a	WORD	1942378	wordpools/wasnorm_wordpool_576.txt	LTP339	ltpFR2	23	4	SERPENT	1270	n/a	n/a	0	0	0
950.0439453125	n/a	START	1945690	n/a	LTP339	ltpFR2	23	n/a	n/a	n/a	6	n/a	n/a	n/a	n/a
950.9189453125	n/a	DISTRACTOR	1947482	n/a	LTP339	ltpFR2	23	4	n/a	n/a	n/a	n/a	0	0	0
950.92578125	n/a	PROB	1947496	n/a	LTP339	ltpFR2	23	n/a	n/a	n/a	6	15	4	4	7
953.091796875	n/a	PROB	1951932	n/a	LTP339	ltpFR2	23	n/a	n/a	n/a	6	22	9	5	8
955.3740234375	n/a	PROB	1956606	n/a	LTP339	ltpFR2	23	n/a	n/a	n/a	6	17	6	2	9
957.10693359375	n/a	PROB	1960155	n/a	LTP339	ltpFR2	23	n/a	n/a	n/a	6	19	9	1	9
958.53759765625	n/a	PROB	1963085	n/a	LTP339	ltpFR2	23	n/a	n/a	n/a	6	16	8	4	4
960.2216796875	n/a	PROB	1966534	n/a	LTP339	ltpFR2	23	n/a	n/a	n/a	6	16	7	7	2
961.77099609375	n/a	PROB	1969707	n/a	LTP339	ltpFR2	23	n/a	n/a	n/a	6	11	3	6	2
963.31982421875	n/a	PROB	1972879	n/a	LTP339	ltpFR2	23	n/a	n/a	n/a	6	16	5	6	5
965.28564453125	n/a	PROB	1976905	n/a	LTP339	ltpFR2	23	n/a	n/a	n/a	6	15	9	5	1
967.6337890625	n/a	PROB	1981714	n/a	LTP339	ltpFR2	23	n/a	n/a	n/a	6	16	4	8	4
969.01708984375	n/a	PROB	1984547	n/a	LTP339	ltpFR2	23	n/a	n/a	n/a	6	11	2	7	2
970.4169921875	n/a	PROB	1987414	n/a	LTP339	ltpFR2	23	n/a	n/a	n/a	6	18	6	6	6
973.1748046875	n/a	STOP	1993062	n/a	LTP339	ltpFR2	23	n/a	n/a	n/a	6	n/a	n/a	n/a	n/a
975.98095703125	n/a	REC_START	1998809	n/a	LTP339	ltpFR2	23	4	n/a	n/a	n/a	n/a	0	0	0
976.216796875	n/a	REC_WORD	1999292	wordpools/wasnorm_wordpool_576.txt	LTP339	ltpFR2	23	4	GREASE	660	n/a	n/a	0	0	0
976.73974609375	n/a	REC_WORD	2000363	wordpools/wasnorm_wordpool_576.txt	LTP339	ltpFR2	23	4	MEADOW	881	n/a	n/a	0	0	0
977.552734375	n/a	REC_WORD	2002028	wordpools/wasnorm_wordpool_576.txt	LTP339	ltpFR2	23	4	TULIP	1517	n/a	n/a	0	0	0
978.34716796875	n/a	REC_WORD	2003655	wordpools/wasnorm_wordpool_576.txt	LTP339	ltpFR2	23	4	POSTAGE	1113	n/a	n/a	0	0	0
979.34375	n/a	REC_WORD	2005696	wordpools/wasnorm_wordpool_576.txt	LTP339	ltpFR2	23	4	NAPKIN	937	n/a	n/a	0	0	0
980.7939453125	n/a	REC_WORD	2008666	wordpools/wasnorm_wordpool_576.txt	LTP339	ltpFR2	23	4	FOSSIL	596	n/a	n/a	0	0	0
1066.45263671875	n/a	DISTRACTOR	2184095	n/a	LTP339	ltpFR2	23	5	n/a	n/a	n/a	n/a	0	0	0
1066.45263671875	n/a	START	2184095	n/a	LTP339	ltpFR2	23	n/a	n/a	n/a	7	n/a	n/a	n/a	n/a
1066.4697265625	n/a	PROB	2184130	n/a	LTP339	ltpFR2	23	n/a	n/a	n/a	7	24	8	8	8
1068.5673828125	n/a	PROB	2188426	n/a	LTP339	ltpFR2	23	n/a	n/a	n/a	7	17	3	7	7
1070.234375	n/a	PROB	2191840	n/a	LTP339	ltpFR2	23	n/a	n/a	n/a	7	17	4	8	5
1071.6826171875	n/a	PROB	2194806	n/a	LTP339	ltpFR2	23	n/a	n/a	n/a	7	15	6	7	2
1073.33251953125	n/a	PROB	2198185	n/a	LTP339	ltpFR2	23	n/a	n/a	n/a	7	15	7	6	2
1075.931640625	n/a	PROB	2203508	n/a	LTP339	ltpFR2	23	n/a	n/a	n/a	7	15	4	3	8
1077.763671875	n/a	PROB	2207260	n/a	LTP339	ltpFR2	23	n/a	n/a	n/a	7	11	3	2	6
1080.345703125	n/a	PROB	2212548	n/a	LTP339	ltpFR2	23	n/a	n/a	n/a	7	14	4	5	5
1081.49560546875	n/a	PROB	2214903	n/a	LTP339	ltpFR2	23	n/a	n/a	n/a	7	9	3	1	5
1082.91162109375	n/a	PROB	2217803	n/a	LTP339	ltpFR2	23	n/a	n/a	n/a	7	12	3	3	6
1084.4775390625	n/a	PROB	2221010	n/a	LTP339	ltpFR2	23	n/a	n/a	n/a	7	20	7	6	7
1085.85986328125	n/a	PROB	2223841	n/a	LTP339	ltpFR2	23	n/a	n/a	n/a	7	11	3	1	7
1087.02587890625	n/a	PROB	2226229	n/a	LTP339	ltpFR2	23	n/a	n/a	n/a	7	12	5	4	3
1090.45263671875	n/a	STOP	2233247	n/a	LTP339	ltpFR2	23	n/a	n/a	n/a	7	n/a	n/a	n/a	n/a
1091.35693359375	n/a	WORD	2235099	wordpools/wasnorm_wordpool_576.txt	LTP339	ltpFR2	23	5	COLUMN	350	n/a	n/a	0	0	0
1094.12255859375	n/a	WORD	2240763	wordpools/wasnorm_wordpool_576.txt	LTP339	ltpFR2	23	5	ZEBRA	1635	n/a	n/a	0	0	0
1096.9208984375	n/a	WORD	2246494	wordpools/wasnorm_wordpool_576.txt	LTP339	ltpFR2	23	5	FRIAR	605	n/a	n/a	0	0	0
1099.6015625	n/a	WORD	2251984	wordpools/wasnorm_wordpool_576.txt	LTP339	ltpFR2	23	5	CHAUFFEUR	283	n/a	n/a	0	0	0
1102.3349609375	n/a	WORD	2257582	wordpools/wasnorm_wordpool_576.txt	LTP339	ltpFR2	23	5	TRANSPLANT	1496	n/a	n/a	0	0	0
1104.8505859375	n/a	WORD	2262734	wordpools/wasnorm_wordpool_576.txt	LTP339	ltpFR2	23	5	PLANET	1082	n/a	n/a	0	0	0
1107.6650390625	n/a	WORD	2268498	wordpools/wasnorm_wordpool_576.txt	LTP339	ltpFR2	23	5	PERSON	1052	n/a	n/a	0	0	0
1110.46484375	n/a	WORD	2274232	wordpools/wasnorm_wordpool_576.txt	LTP339	ltpFR2	23	5	WITNESS	1618	n/a	n/a	0	0	0
1113.1630859375	n/a	WORD	2279758	wordpools/wasnorm_wordpool_576.txt	LTP339	ltpFR2	23	5	JURY	766	n/a	n/a	0	0	0
1115.72802734375	n/a	WORD	2285011	wordpools/wasnorm_wordpool_576.txt	LTP339	ltpFR2	23	5	BRAKE	166	n/a	n/a	0	0	0
1118.36083984375	n/a	WORD	2290403	wordpools/wasnorm_wordpool_576.txt	LTP339	ltpFR2	23	5	SHEPHERD	1283	n/a	n/a	0	0	0
1121.1259765625	n/a	WORD	2296066	wordpools/wasnorm_wordpool_576.txt	LTP339	ltpFR2	23	5	DUSTPAN	509	n/a	n/a	0	0	0
1123.55712890625	n/a	WORD	2301045	wordpools/wasnorm_wordpool_576.txt	LTP339	ltpFR2	23	5	PUMPKIN	1142	n/a	n/a	0	0	0
1126.2900390625	n/a	WORD	2306642	wordpools/wasnorm_wordpool_576.txt	LTP339	ltpFR2	23	5	MARINE	869	n/a	n/a	0	0	0
1128.85595703125	n/a	WORD	2311897	wordpools/wasnorm_wordpool_576.txt	LTP339	ltpFR2	23	5	CAMEL	223	n/a	n/a	0	0	0
1131.537109375	n/a	WORD	2317388	wordpools/wasnorm_wordpool_576.txt	LTP339	ltpFR2	23	5	ANCHOR	21	n/a	n/a	0	0	0
1133.97021484375	n/a	WORD	2322371	wordpools/wasnorm_wordpool_576.txt	LTP339	ltpFR2	23	5	DANDRUFF	439	n/a	n/a	0	0	0
1136.51708984375	n/a	WORD	2327587	wordpools/wasnorm_wordpool_576.txt	LTP339	ltpFR2	23	5	MOP	916	n/a	n/a	0	0	0
1139.216796875	n/a	WORD	2333116	wordpools/wasnorm_wordpool_576.txt	LTP339	ltpFR2	23	5	TORCH	1484	n/a	n/a	0	0	0
1141.6982421875	n/a	WORD	2338198	wordpools/wasnorm_wordpool_576.txt	LTP339	ltpFR2	23	5	BIBLE	124	n/a	n/a	0	0	0
1144.248046875	n/a	WORD	2343420	wordpools/wasnorm_wordpool_576.txt	LTP339	ltpFR2	23	5	TUBA	1515	n/a	n/a	0	0	0
1146.93017578125	n/a	WORD	2348913	wordpools/wasnorm_wordpool_576.txt	LTP339	ltpFR2	23	5	GLASS	639	n/a	n/a	0	0	0
1149.7451171875	n/a	WORD	2354678	wordpools/wasnorm_wordpool_576.txt	LTP339	ltpFR2	23	5	CURTAIN	427	n/a	n/a	0	0	0
1152.3271484375	n/a	WORD	2359966	wordpools/wasnorm_wordpool_576.txt	LTP339	ltpFR2	23	5	ULCER	1533	n/a	n/a	0	0	0
1153.943359375	n/a	START	2363276	n/a	LTP339	ltpFR2	23	n/a	n/a	n/a	8	n/a	n/a	n/a	n/a
1154.97705078125	n/a	DISTRACTOR	2365393	n/a	LTP339	ltpFR2	23	5	n/a	n/a	n/a	n/a	0	0	0
1154.9931640625	n/a	PROB	2365426	n/a	LTP339	ltpFR2	23	n/a	n/a	n/a	8	17	3	5	9
1158.45703125	n/a	PROB	2372520	n/a	LTP339	ltpFR2	23	n/a	n/a	n/a	8	15	1	7	7
1159.873046875	n/a	PROB	2375420	n/a	LTP339	ltpFR2	23	n/a	n/a	n/a	8	22	7	6	9
1164.80419921875	n/a	PROB	2385519	n/a	LTP339	ltpFR2	23	n/a	n/a	n/a	8	15	9	3	3
1168.18603515625	n/a	PROB	2392445	n/a	LTP339	ltpFR2	23	n/a	n/a	n/a	8	13	5	6	2
1169.91845703125	n/a	PROB	2395993	n/a	LTP339	ltpFR2	23	n/a	n/a	n/a	8	14	4	3	7
1171.18408203125	n/a	PROB	2398585	n/a	LTP339	ltpFR2	23	n/a	n/a	n/a	8	7	2	1	4
1174.283203125	n/a	PROB	2404932	n/a	LTP339	ltpFR2	23	n/a	n/a	n/a	8	17	6	9	2
1176.34912109375	n/a	PROB	2409163	n/a	LTP339	ltpFR2	23	n/a	n/a	n/a	8	20	2	9	9
1177.63916015625	n/a	STOP	2411805	n/a	LTP339	ltpFR2	23	n/a	n/a	n/a	8	n/a	n/a	n/a	n/a
1179.79833984375	n/a	REC_START	2416227	n/a	LTP339	ltpFR2	23	5	n/a	n/a	n/a	n/a	0	0	0
1180.05322265625	n/a	REC_WORD	2416749	wordpools/wasnorm_wordpool_576.txt	LTP339	ltpFR2	23	5	COLUMN	350	n/a	n/a	0	0	0
1180.6494140625	n/a	REC_WORD	2417970	wordpools/wasnorm_wordpool_576.txt	LTP339	ltpFR2	23	5	ZEBRA	1635	n/a	n/a	0	0	0
1181.34033203125	n/a	REC_WORD	2419385	wordpools/wasnorm_wordpool_576.txt	LTP339	ltpFR2	23	5	FRIAR	605	n/a	n/a	0	0	0
1181.953125	n/a	REC_WORD	2420640	wordpools/wasnorm_wordpool_576.txt	LTP339	ltpFR2	23	5	CHAUFFEUR	283	n/a	n/a	0	0	0
1183.0283203125	n/a	REC_WORD	2422842	wordpools/wasnorm_wordpool_576.txt	LTP339	ltpFR2	23	5	TRANSPLANT	1496	n/a	n/a	0	0	0
1186.66650390625	n/a	REC_WORD	2430293	wordpools/wasnorm_wordpool_576.txt	LTP339	ltpFR2	23	5	ANCHOR	21	n/a	n/a	0	0	0
1205.67529296875	n/a	REC_WORD	2469223	wordpools/wasnorm_wordpool_576.txt	LTP339	ltpFR2	23	5	ULCER	1533	n/a	n/a	0	0	0
1270.23583984375	n/a	DISTRACTOR	2601443	n/a	LTP339	ltpFR2	23	6	n/a	n/a	n/a	n/a	0	0	0
1270.23583984375	n/a	START	2601443	n/a	LTP339	ltpFR2	23	n/a	n/a	n/a	9	n/a	n/a	n/a	n/a
1270.2529296875	n/a	PROB	2601478	n/a	LTP339	ltpFR2	23	n/a	n/a	n/a	9	19	3	7	9
1271.7177734375	n/a	PROB	2604478	n/a	LTP339	ltpFR2	23	n/a	n/a	n/a	9	16	4	4	8
1273.0849609375	n/a	PROB	2607278	n/a	LTP339	ltpFR2	23	n/a	n/a	n/a	9	11	6	2	3
1275.0009765625	n/a	PROB	2611202	n/a	LTP339	ltpFR2	23	n/a	n/a	n/a	9	15	5	2	8
1277.298828125	n/a	PROB	2615908	n/a	LTP339	ltpFR2	23	n/a	n/a	n/a	9	17	7	8	2
1279.76513671875	n/a	PROB	2620959	n/a	LTP339	ltpFR2	23	n/a	n/a	n/a	9	13	2	4	7
1282.14697265625	n/a	PROB	2625837	n/a	LTP339	ltpFR2	23	n/a	n/a	n/a	9	15	6	8	1
1283.67919921875	n/a	PROB	2628975	n/a	LTP339	ltpFR2	23	n/a	n/a	n/a	9	14	3	5	6
1285.56103515625	n/a	PROB	2632829	n/a	LTP339	ltpFR2	23	n/a	n/a	n/a	9	20	9	3	8
1287.4111328125	n/a	PROB	2636618	n/a	LTP339	ltpFR2	23	n/a	n/a	n/a	9	15	4	9	2
1290.77587890625	n/a	PROB	2643509	n/a	LTP339	ltpFR2	23	n/a	n/a	n/a	9	13	1	7	5
1292.64111328125	n/a	PROB	2647329	n/a	LTP339	ltpFR2	23	n/a	n/a	n/a	9	15	5	8	2
1294.11328125	n/a	STOP	2650344	n/a	LTP339	ltpFR2	23	n/a	n/a	n/a	9	n/a	n/a	n/a	n/a
1295.34130859375	n/a	WORD	2652859	wordpools/wasnorm_wordpool_576.txt	LTP339	ltpFR2	23	6	CLIMBER	323	n/a	n/a	0	0	0
1297.90625	n/a	WORD	2658112	wordpools/wasnorm_wordpool_576.txt	LTP339	ltpFR2	23	6	YARD	1630	n/a	n/a	0	0	0
1300.654296875	n/a	WORD	2663740	wordpools/wasnorm_wordpool_576.txt	LTP339	ltpFR2	23	6	POSSUM	1112	n/a	n/a	0	0	0
1303.419921875	n/a	WORD	2669404	wordpools/wasnorm_wordpool_576.txt	LTP339	ltpFR2	23	6	HOSTAGE	722	n/a	n/a	0	0	0
1306.03515625	n/a	WORD	2674760	wordpools/wasnorm_wordpool_576.txt	LTP339	ltpFR2	23	6	SIBLING	1301	n/a	n/a	0	0	0
1308.68310546875	n/a	WORD	2680183	wordpools/wasnorm_wordpool_576.txt	LTP339	ltpFR2	23	6	VENUS	1557	n/a	n/a	0	0	0
1311.34912109375	n/a	WORD	2685643	wordpools/wasnorm_wordpool_576.txt	LTP339	ltpFR2	23	6	MARS	873	n/a	n/a	0	0	0
1313.9482421875	n/a	WORD	2690966	wordpools/wasnorm_wordpool_576.txt	LTP339	ltpFR2	23	6	PASSAGE	1019	n/a	n/a	0	0	0
1316.48046875	n/a	WORD	2696152	wordpools/wasnorm_wordpool_576.txt	LTP339	ltpFR2	23	6	TURTLE	1522	n/a	n/a	0	0	0
1318.96240234375	n/a	WORD	2701235	wordpools/wasnorm_wordpool_576.txt	LTP339	ltpFR2	23	6	SURGEON	1413	n/a	n/a	0	0	0
1321.62744140625	n/a	WORD	2706693	wordpools/wasnorm_wordpool_576.txt	LTP339	ltpFR2	23	6	LEOPARD	812	n/a	n/a	0	0	0
1324.34326171875	n/a	WORD	2712255	wordpools/wasnorm_wordpool_576.txt	LTP339	ltpFR2	23	6	CASHEW	253	n/a	n/a	0	0	0
1327.17529296875	n/a	WORD	2718055	wordpools/wasnorm_wordpool_576.txt	LTP339	ltpFR2	23	6	CHIPMUNK	304	n/a	n/a	0	0	0
1329.63916015625	n/a	WORD	2723101	wordpools/wasnorm_wordpool_576.txt	LTP339	ltpFR2	23	6	MOTOR	922	n/a	n/a	0	0	0
1332.20654296875	n/a	WORD	2728359	wordpools/wasnorm_wordpool_576.txt	LTP339	ltpFR2	23	6	LANDSCAPE	799	n/a	n/a	0	0	0
1334.63720703125	n/a	WORD	2733337	wordpools/wasnorm_wordpool_576.txt	LTP339	ltpFR2	23	6	VILLAIN	1567	n/a	n/a	0	0	0
1337.1865234375	n/a	WORD	2738558	wordpools/wasnorm_wordpool_576.txt	LTP339	ltpFR2	23	6	HELMET	702	n/a	n/a	0	0	0
1340.00244140625	n/a	WORD	2744325	wordpools/wasnorm_wordpool_576.txt	LTP339	ltpFR2	23	6	BACON	67	n/a	n/a	0	0	0
1342.484375	n/a	WORD	2749408	wordpools/wasnorm_wordpool_576.txt	LTP339	ltpFR2	23	6	SAUSAGE	1238	n/a	n/a	0	0	0
1345.21630859375	n/a	WORD	2755003	wordpools/wasnorm_wordpool_576.txt	LTP339	ltpFR2	23	6	KLEENEX	782	n/a	n/a	0	0	0
1347.78125	n/a	WORD	2760256	wordpools/wasnorm_wordpool_576.txt	LTP339	ltpFR2	23	6	SISTER	1312	n/a	n/a	0	0	0
1350.36328125	n/a	WORD	2765544	wordpools/wasnorm_wordpool_576.txt	LTP339	ltpFR2	23	6	SLEEVE	1324	n/a	n/a	0	0	0
1352.9453125	n/a	WORD	2770832	wordpools/wasnorm_wordpool_576.txt	LTP339	ltpFR2	23	6	CRACKER	398	n/a	n/a	0	0	0
1355.62646484375	n/a	WORD	2776323	wordpools/wasnorm_wordpool_576.txt	LTP339	ltpFR2	23	6	SOCKET	1340	n/a	n/a	0	0	0
1357.24365234375	n/a	START	2779635	n/a	LTP339	ltpFR2	23	n/a	n/a	n/a	10	n/a	n/a	n/a	n/a
1358.33935546875	n/a	DISTRACTOR	2781879	n/a	LTP339	ltpFR2	23	6	n/a	n/a	n/a	n/a	0	0	0
1358.34375	n/a	PROB	2781888	n/a	LTP339	ltpFR2	23	n/a	n/a	n/a	10	11	1	8	2
1360.24267578125	n/a	PROB	2785777	n/a	LTP339	ltpFR2	23	n/a	n/a	n/a	10	14	6	5	3
1365.07373046875	n/a	PROB	2795671	n/a	LTP339	ltpFR2	23	n/a	n/a	n/a	10	17	7	8	2
1366.65478515625	n/a	PROB	2798909	n/a	LTP339	ltpFR2	23	n/a	n/a	n/a	10	13	4	6	3
1368.1044921875	n/a	PROB	2801878	n/a	LTP339	ltpFR2	23	n/a	n/a	n/a	10	14	6	2	6
1369.3046875	n/a	PROB	2804336	n/a	LTP339	ltpFR2	23	n/a	n/a	n/a	10	16	3	4	9
1372.40283203125	n/a	PROB	2810681	n/a	LTP339	ltpFR2	23	n/a	n/a	n/a	10	15	5	5	5
1373.435546875	n/a	PROB	2812796	n/a	LTP339	ltpFR2	23	n/a	n/a	n/a	10	7	1	3	3
1374.95166015625	n/a	PROB	2815901	n/a	LTP339	ltpFR2	23	n/a	n/a	n/a	10	15	5	2	8
1376.5498046875	n/a	PROB	2819174	n/a	LTP339	ltpFR2	23	n/a	n/a	n/a	10	12	4	3	5
1378.74951171875	n/a	PROB	2823679	n/a	LTP339	ltpFR2	23	n/a	n/a	n/a	10	14	8	2	4
1380.00146484375	n/a	STOP	2826243	n/a	LTP339	ltpFR2	23	n/a	n/a	n/a	10	n/a	n/a	n/a	n/a
1383.1474609375	n/a	REC_START	2832686	n/a	LTP339	ltpFR2	23	6	n/a	n/a	n/a	n/a	0	0	0
1383.55078125	n/a	REC_WORD	2833512	wordpools/wasnorm_wordpool_576.txt	LTP339	ltpFR2	23	6	CLIMBER	323	n/a	n/a	0	0	0
1384.3408203125	n/a	REC_WORD	2835130	wordpools/wasnorm_wordpool_576.txt	LTP339	ltpFR2	23	6	YARD	1630	n/a	n/a	0	0	0
1384.99365234375	n/a	REC_WORD	2836467	wordpools/wasnorm_wordpool_576.txt	LTP339	ltpFR2	23	6	HOSTAGE	722	n/a	n/a	0	0	0
1385.86865234375	n/a	REC_WORD	2838259	wordpools/wasnorm_wordpool_576.txt	LTP339	ltpFR2	23	6	SIBLING	1301	n/a	n/a	0	0	0
1386.9287109375	n/a	REC_WORD	2840430	wordpools/wasnorm_wordpool_576.txt	LTP339	ltpFR2	23	6	PASSAGE	1019	n/a	n/a	0	0	0
1387.77490234375	n/a	REC_WORD	2842163	wordpools/wasnorm_wordpool_576.txt	LTP339	ltpFR2	23	6	POSSUM	1112	n/a	n/a	0	0	0
1388.681640625	n/a	REC_WORD	2844020	wordpools/wasnorm_wordpool_576.txt	LTP339	ltpFR2	23	6	TURTLE	1522	n/a	n/a	0	0	0
1390.185546875	n/a	REC_WORD	2847100	wordpools/wasnorm_wordpool_576.txt	LTP339	ltpFR2	23	6	VENUS	1557	n/a	n/a	0	0	0
1392.2578125	n/a	REC_WORD	2851344	wordpools/wasnorm_wordpool_576.txt	LTP339	ltpFR2	23	6	LEOPARD	812	n/a	n/a	0	0	0
1439.21484375	n/a	REC_WORD	2947512	wordpools/wasnorm_wordpool_576.txt	LTP339	ltpFR2	23	6	KLEENEX	782	n/a	n/a	0	0	0
1473.619140625	n/a	WORD	3017972	wordpools/wasnorm_wordpool_576.txt	LTP339	ltpFR2	23	7	RABBIT	1152	n/a	n/a	0	0	0
1476.40234375	n/a	WORD	3023672	wordpools/wasnorm_wordpool_576.txt	LTP339	ltpFR2	23	7	BABY	64	n/a	n/a	0	0	0
1479.08447265625	n/a	WORD	3029165	wordpools/wasnorm_wordpool_576.txt	LTP339	ltpFR2	23	7	RUBY	1214	n/a	n/a	0	0	0
1481.58154296875	n/a	WORD	3034279	wordpools/wasnorm_wordpool_576.txt	LTP339	ltpFR2	23	7	SAPPHIRE	1234	n/a	n/a	0	0	0
1484.3984375	n/a	WORD	3040048	wordpools/wasnorm_wordpool_576.txt	LTP339	ltpFR2	23	7	PICTURE	1061	n/a	n/a	0	0	0
1486.91357421875	n/a	WORD	3045199	wordpools/wasnorm_wordpool_576.txt	LTP339	ltpFR2	23	7	BEAKER	104	n/a	n/a	0	0	0
1489.46240234375	n/a	WORD	3050419	wordpools/wasnorm_wordpool_576.txt	LTP339	ltpFR2	23	7	DENTIST	447	n/a	n/a	0	0	0
1492.02734375	n/a	WORD	3055672	wordpools/wasnorm_wordpool_576.txt	LTP339	ltpFR2	23	7	FRAME	600	n/a	n/a	0	0	0
1494.62548828125	n/a	WORD	3060993	wordpools/wasnorm_wordpool_576.txt	LTP339	ltpFR2	23	7	PARCEL	1012	n/a	n/a	0	0	0
1497.25830078125	n/a	WORD	3066385	wordpools/wasnorm_wordpool_576.txt	LTP339	ltpFR2	23	7	DESSERT	453	n/a	n/a	0	0	0
1499.87353515625	n/a	WORD	3071741	wordpools/wasnorm_wordpool_576.txt	LTP339	ltpFR2	23	7	SHOVEL	1295	n/a	n/a	0	0	0
1502.42236328125	n/a	WORD	3076961	wordpools/wasnorm_wordpool_576.txt	LTP339	ltpFR2	23	7	VICTOR	1563	n/a	n/a	0	0	0
1505.1376953125	n/a	WORD	3082522	wordpools/wasnorm_wordpool_576.txt	LTP339	ltpFR2	23	7	CABBAGE	210	n/a	n/a	0	0	0
1507.853515625	n/a	WORD	3088084	wordpools/wasnorm_wordpool_576.txt	LTP339	ltpFR2	23	7	MUSHROOM	934	n/a	n/a	0	0	0
1510.66748046875	n/a	WORD	3093847	wordpools/wasnorm_wordpool_576.txt	LTP339	ltpFR2	23	7	FOOT	590	n/a	n/a	0	0	0
1513.41748046875	n/a	WORD	3099479	wordpools/wasnorm_wordpool_576.txt	LTP339	ltpFR2	23	7	HIGHWAY	707	n/a	n/a	0	0	0
1516.03271484375	n/a	WORD	3104835	wordpools/wasnorm_wordpool_576.txt	LTP339	ltpFR2	23	7	GRAVEL	659	n/a	n/a	0	0	0
1518.58056640625	n/a	WORD	3110053	wordpools/wasnorm_wordpool_576.txt	LTP339	ltpFR2	23	7	SNOB	1335	n/a	n/a	0	0	0
1521.36376953125	n/a	WORD	3115753	wordpools/wasnorm_wordpool_576.txt	LTP339	ltpFR2	23	7	TROPHY	1509	n/a	n/a	0	0	0
1524.1787109375	n/a	WORD	3121518	wordpools/wasnorm_wordpool_576.txt	LTP339	ltpFR2	23	7	PERFUME	1049	n/a	n/a	0	0	0
1526.62646484375	n/a	WORD	3126531	wordpools/wasnorm_wordpool_576.txt	LTP339	ltpFR2	23	7	SCOUT	1252	n/a	n/a	0	0	0
1529.17578125	n/a	WORD	3131752	wordpools/wasnorm_wordpool_576.txt	LTP339	ltpFR2	23	7	SHEARS	1276	n/a	n/a	0	0	0
1531.7236328125	n/a	WORD	3136970	wordpools/wasnorm_wordpool_576.txt	LTP339	ltpFR2	23	7	CHISEL	305	n/a	n/a	0	0	0
1534.20654296875	n/a	WORD	3142055	wordpools/wasnorm_wordpool_576.txt	LTP339	ltpFR2	23	7	JOINT	758	n/a	n/a	0	0	0
1535.82275390625	n/a	START	3145365	n/a	LTP339	ltpFR2	23	n/a	n/a	n/a	11	n/a	n/a	n/a	n/a
1536.76171875	n/a	DISTRACTOR	3147288	n/a	LTP339	ltpFR2	23	7	n/a	n/a	n/a	n/a	0	0	0
1536.77294921875	n/a	PROB	3147311	n/a	LTP339	ltpFR2	23	n/a	n/a	n/a	11	12	2	9	1
1538.3544921875	n/a	PROB	3150550	n/a	LTP339	ltpFR2	23	n/a	n/a	n/a	11	14	5	2	7
1540.1708984375	n/a	PROB	3154270	n/a	LTP339	ltpFR2	23	n/a	n/a	n/a	11	9	5	1	3
1543.20263671875	n/a	PROB	3160479	n/a	LTP339	ltpFR2	23	n/a	n/a	n/a	11	12	1	4	7
1545.6005859375	n/a	PROB	3165390	n/a	LTP339	ltpFR2	23	n/a	n/a	n/a	11	8	2	2	4
1546.98388671875	n/a	PROB	3168223	n/a	LTP339	ltpFR2	23	n/a	n/a	n/a	11	17	5	7	5
1548.14990234375	n/a	PROB	3170611	n/a	LTP339	ltpFR2	23	n/a	n/a	n/a	11	21	9	5	7
1550.78173828125	n/a	PROB	3176001	n/a	LTP339	ltpFR2	23	n/a	n/a	n/a	11	18	6	6	6
1552.08203125	n/a	PROB	3178664	n/a	LTP339	ltpFR2	23	n/a	n/a	n/a	11	21	4	9	8
1553.81396484375	n/a	PROB	3182211	n/a	LTP339	ltpFR2	23	n/a	n/a	n/a	11	20	8	7	5
1555.51171875	n/a	PROB	3185688	n/a	LTP339	ltpFR2	23	n/a	n/a	n/a	11	12	3	6	3
1557.37890625	n/a	PROB	3189512	n/a	LTP339	ltpFR2	23	n/a	n/a	n/a	11	18	9	3	6
1559.57763671875	n/a	STOP	3194015	n/a	LTP339	ltpFR2	23	n/a	n/a	n/a	11	n/a	n/a	n/a	n/a
1561.64306640625	n/a	REC_START	3198245	n/a	LTP339	ltpFR2	23	7	n/a	n/a	n/a	n/a	0	0	0
1561.97412109375	n/a	REC_WORD	3198923	wordpools/wasnorm_wordpool_576.txt	LTP339	ltpFR2	23	7	RABBIT	1152	n/a	n/a	0	0	0
1562.72509765625	n/a	REC_WORD	3200461	wordpools/wasnorm_wordpool_576.txt	LTP339	ltpFR2	23	7	BABY	64	n/a	n/a	0	0	0
1563.44189453125	n/a	REC_WORD	3201929	wordpools/wasnorm_wordpool_576.txt	LTP339	ltpFR2	23	7	RUBY	1214	n/a	n/a	0	0	0
1564.1337890625	n/a	REC_WORD	3203346	wordpools/wasnorm_wordpool_576.txt	LTP339	ltpFR2	23	7	SAPPHIRE	1234	n/a	n/a	0	0	0
1565.15869140625	n/a	REC_WORD	3205445	wordpools/wasnorm_wordpool_576.txt	LTP339	ltpFR2	23	7	PICTURE	1061	n/a	n/a	0	0	0
1566.06982421875	n/a	REC_WORD	3207311	wordpools/wasnorm_wordpool_576.txt	LTP339	ltpFR2	23	7	FOOT	590	n/a	n/a	0	0	0
1579.93701171875	n/a	REC_WORD	3235711	wordpools/wasnorm_wordpool_576.txt	LTP339	ltpFR2	23	7	CHISEL	305	n/a	n/a	0	0	0
1581.97412109375	n/a	REC_WORD	3239883	wordpools/wasnorm_wordpool_576.txt	LTP339	ltpFR2	23	7	SNOB	1335	n/a	n/a	0	0	0
1652.099609375	n/a	WORD	3383500	wordpools/wasnorm_wordpool_576.txt	LTP339	ltpFR2	23	8	CLIPPERS	324	n/a	n/a	0	0	0
1654.63037109375	n/a	WORD	3388683	wordpools/wasnorm_wordpool_576.txt	LTP339	ltpFR2	23	8	STRING	1394	n/a	n/a	0	0	0
1657.12939453125	n/a	WORD	3393801	wordpools/wasnorm_wordpool_576.txt	LTP339	ltpFR2	23	8	BLACKBOARD	133	n/a	n/a	0	0	0
1659.62744140625	n/a	WORD	3398917	wordpools/wasnorm_wordpool_576.txt	LTP339	ltpFR2	23	8	DAD	433	n/a	n/a	0	0	0
1662.3447265625	n/a	WORD	3404482	wordpools/wasnorm_wordpool_576.txt	LTP339	ltpFR2	23	8	MOTHER	921	n/a	n/a	0	0	0
1665.0263671875	n/a	WORD	3409974	wordpools/wasnorm_wordpool_576.txt	LTP339	ltpFR2	23	8	GERM	632	n/a	n/a	0	0	0
1667.82470703125	n/a	WORD	3415705	wordpools/wasnorm_wordpool_576.txt	LTP339	ltpFR2	23	8	COWBOY	395	n/a	n/a	0	0	0
1670.505859375	n/a	WORD	3421196	wordpools/wasnorm_wordpool_576.txt	LTP339	ltpFR2	23	8	REINDEER	1181	n/a	n/a	0	0	0
1673.0224609375	n/a	WORD	3426350	wordpools/wasnorm_wordpool_576.txt	LTP339	ltpFR2	23	8	DWARF	510	n/a	n/a	0	0	0
1675.70361328125	n/a	WORD	3431841	wordpools/wasnorm_wordpool_576.txt	LTP339	ltpFR2	23	8	STREAM	1392	n/a	n/a	0	0	0
1678.45263671875	n/a	WORD	3437471	wordpools/wasnorm_wordpool_576.txt	LTP339	ltpFR2	23	8	DESK	452	n/a	n/a	0	0	0
1681.0185546875	n/a	WORD	3442726	wordpools/wasnorm_wordpool_576.txt	LTP339	ltpFR2	23	8	BRUNETTE	181	n/a	n/a	0	0	0
1683.7158203125	n/a	WORD	3448250	wordpools/wasnorm_wordpool_576.txt	LTP339	ltpFR2	23	8	BELLY	119	n/a	n/a	0	0	0
1686.19873046875	n/a	WORD	3453335	wordpools/wasnorm_wordpool_576.txt	LTP339	ltpFR2	23	8	BELT	120	n/a	n/a	0	0	0
1688.81494140625	n/a	WORD	3458693	wordpools/wasnorm_wordpool_576.txt	LTP339	ltpFR2	23	8	GIRL	637	n/a	n/a	0	0	0
1691.3466796875	n/a	WORD	3463878	wordpools/wasnorm_wordpool_576.txt	LTP339	ltpFR2	23	8	MONGOOSE	909	n/a	n/a	0	0	0
1693.91162109375	n/a	WORD	3469131	wordpools/wasnorm_wordpool_576.txt	LTP339	ltpFR2	23	8	FRIES	607	n/a	n/a	0	0	0
1696.49365234375	n/a	WORD	3474419	wordpools/wasnorm_wordpool_576.txt	LTP339	ltpFR2	23	8	BENCH	121	n/a	n/a	0	0	0
1698.9755859375	n/a	WORD	3479502	wordpools/wasnorm_wordpool_576.txt	LTP339	ltpFR2	23	8	FATHER	554	n/a	n/a	0	0	0
1701.60693359375	n/a	WORD	3484891	wordpools/wasnorm_wordpool_576.txt	LTP339	ltpFR2	23	8	MERMAID	887	n/a	n/a	0	0	0
1704.19091796875	n/a	WORD	3490183	wordpools/wasnorm_wordpool_576.txt	LTP339	ltpFR2	23	8	SNORKEL	1336	n/a	n/a	0	0	0
1707.005859375	n/a	WORD	3495948	wordpools/wasnorm_wordpool_576.txt	LTP339	ltpFR2	23	8	STUDENT	1395	n/a	n/a	0	0	0
1709.5537109375	n/a	WORD	3501166	wordpools/wasnorm_wordpool_576.txt	LTP339	ltpFR2	23	8	CLOUD	328	n/a	n/a	0	0	0
1712.35302734375	n/a	WORD	3506899	wordpools/wasnorm_wordpool_576.txt	LTP339	ltpFR2	23	8	STATUE	1374	n/a	n/a	0	0	0
1713.96875	n/a	START	3510208	n/a	LTP339	ltpFR2	23	n/a	n/a	n/a	12	n/a	n/a	n/a	n/a
1714.9228515625	n/a	DISTRACTOR	3512162	n/a	LTP339	ltpFR2	23	8	n/a	n/a	n/a	n/a	0	0	0
1714.93505859375	n/a	PROB	3512187	n/a	LTP339	ltpFR2	23	n/a	n/a	n/a	12	20	3	8	9
1717.40087890625	n/a	PROB	3517237	n/a	LTP339	ltpFR2	23	n/a	n/a	n/a	12	17	8	7	2
1720.78173828125	n/a	PROB	3524161	n/a	LTP339	ltpFR2	23	n/a	n/a	n/a	12	13	6	1	6
1721.94775390625	n/a	PROB	3526549	n/a	LTP339	ltpFR2	23	n/a	n/a	n/a	12	15	5	2	8
1723.43115234375	n/a	PROB	3529587	n/a	LTP339	ltpFR2	23	n/a	n/a	n/a	12	10	4	1	5
1724.5791015625	n/a	PROB	3531938	n/a	LTP339	ltpFR2	23	n/a	n/a	n/a	12	13	6	2	5
1728.36181640625	n/a	PROB	3539685	n/a	LTP339	ltpFR2	23	n/a	n/a	n/a	12	14	6	4	4
1729.4609375	n/a	PROB	3541936	n/a	LTP339	ltpFR2	23	n/a	n/a	n/a	12	17	5	3	9
1731.0771484375	n/a	PROB	3545246	n/a	LTP339	ltpFR2	23	n/a	n/a	n/a	12	17	6	2	9
1735.57421875	n/a	PROB	3554456	n/a	LTP339	ltpFR2	23	n/a	n/a	n/a	12	15	4	8	3
1737.3798828125	n/a	STOP	3558154	n/a	LTP339	ltpFR2	23	n/a	n/a	n/a	12	n/a	n/a	n/a	n/a
1739.7900390625	n/a	REC_START	3563090	n/a	LTP339	ltpFR2	23	8	n/a	n/a	n/a	n/a	0	0	0
1740.01416015625	n/a	REC_WORD	3563549	wordpools/wasnorm_wordpool_576.txt	LTP339	ltpFR2	23	8	CLIPPERS	324	n/a	n/a	0	0	0
1740.68212890625	n/a	REC_WORD	3564917	wordpools/wasnorm_wordpool_576.txt	LTP339	ltpFR2	23	8	STRING	1394	n/a	n/a	0	0	0
1741.55517578125	n/a	REC_WORD	3566705	wordpools/wasnorm_wordpool_576.txt	LTP339	ltpFR2	23	8	BLACKBOARD	133	n/a	n/a	0	0	0
1742.42529296875	n/a	REC_WORD	3568487	wordpools/wasnorm_wordpool_576.txt	LTP339	ltpFR2	23	8	DAD	433	n/a	n/a	0	0	0
1743.05615234375	n/a	REC_WORD	3569779	wordpools/wasnorm_wordpool_576.txt	LTP339	ltpFR2	23	8	MOTHER	921	n/a	n/a	0	0	0
1743.89111328125	n/a	REC_WORD	3571489	wordpools/wasnorm_wordpool_576.txt	LTP339	ltpFR2	23	8	GIRL	637	n/a	n/a	0	0	0
1747.21728515625	n/a	REC_WORD	3578301	wordpools/wasnorm_wordpool_576.txt	LTP339	ltpFR2	23	8	MONGOOSE	909	n/a	n/a	0	0	0
1774.4443359375	n/a	REC_WORD_VV	3634062	wordpools/wasnorm_wordpool_576.txt	LTP339	ltpFR2	23	8	<>	-1	n/a	n/a	0	0	0
1777.4541015625	n/a	REC_WORD	3640226	wordpools/wasnorm_wordpool_576.txt	LTP339	ltpFR2	23	8	MERMAID	887	n/a	n/a	0	0	0
1779.46142578125	n/a	REC_WORD	3644337	wordpools/wasnorm_wordpool_576.txt	LTP339	ltpFR2	23	8	SNORKEL	1336	n/a	n/a	0	0	0
1816.33544921875	n/a	REST_REWET	3719855	n/a	LTP339	ltpFR2	23	8	n/a	n/a	n/a	n/a	0	0	0
1884.93505859375	n/a	DISTRACTOR	3860347	n/a	LTP339	ltpFR2	23	9	n/a	n/a	n/a	n/a	0	0	0
1884.93505859375	n/a	START	3860347	n/a	LTP339	ltpFR2	23	n/a	n/a	n/a	13	n/a	n/a	n/a	n/a
1884.9521484375	n/a	PROB	3860382	n/a	LTP339	ltpFR2	23	n/a	n/a	n/a	13	11	5	3	3
1886.6669921875	n/a	PROB	3863894	n/a	LTP339	ltpFR2	23	n/a	n/a	n/a	13	19	5	7	7
1888.10009765625	n/a	PROB	3866829	n/a	LTP339	ltpFR2	23	n/a	n/a	n/a	13	25	9	8	8
1889.89892578125	n/a	PROB	3870513	n/a	LTP339	ltpFR2	23	n/a	n/a	n/a	13	25	8	9	8
1891.26513671875	n/a	PROB	3873311	n/a	LTP339	ltpFR2	23	n/a	n/a	n/a	13	15	4	6	5
1892.96435546875	n/a	PROB	3876791	n/a	LTP339	ltpFR2	23	n/a	n/a	n/a	13	14	1	7	6
1895.26318359375	n/a	PROB	3881499	n/a	LTP339	ltpFR2	23	n/a	n/a	n/a	13	18	6	6	6
1896.3291015625	n/a	PROB	3883682	n/a	LTP339	ltpFR2	23	n/a	n/a	n/a	13	24	6	8	9
1898.794921875	n/a	PROB	3888732	n/a	LTP339	ltpFR2	23	n/a	n/a	n/a	13	17	4	6	7
1900.4111328125	n/a	PROB	3892042	n/a	LTP339	ltpFR2	23	n/a	n/a	n/a	13	20	7	8	5
1901.8271484375	n/a	PROB	3894942	n/a	LTP339	ltpFR2	23	n/a	n/a	n/a	13	17	4	9	4
1903.69140625	n/a	PROB	3898760	n/a	LTP339	ltpFR2	23	n/a	n/a	n/a	13	10	7	1	2
1904.9921875	n/a	PROB	3901424	n/a	LTP339	ltpFR2	23	n/a	n/a	n/a	13	13	4	6	3
1906.72314453125	n/a	PROB	3904969	n/a	LTP339	ltpFR2	23	n/a	n/a	n/a	13	9	5	3	1
1907.94140625	n/a	STOP	3907464	n/a	LTP339	ltpFR2	23	n/a	n/a	n/a	13	n/a	n/a	n/a	n/a
1910.123046875	n/a	WORD	3911932	wordpools/wasnorm_wordpool_576.txt	LTP339	ltpFR2	23	9	MAGNET	855	n/a	n/a	0	0	0
1912.92138671875	n/a	WORD	3917663	wordpools/wasnorm_wordpool_576.txt	LTP339	ltpFR2	23	9	FROST	609	n/a	n/a	0	0	0
1915.42041015625	n/a	WORD	3922781	wordpools/wasnorm_wordpool_576.txt	LTP339	ltpFR2	23	9	LONDON	843	n/a	n/a	0	0	0
1918.16943359375	n/a	WORD	3928411	wordpools/wasnorm_wordpool_576.txt	LTP339	ltpFR2	23	9	WAX	1597	n/a	n/a	0	0	0
1920.83447265625	n/a	WORD	3933869	wordpools/wasnorm_wordpool_576.txt	LTP339	ltpFR2	23	9	RAISIN	1163	n/a	n/a	0	0	0
1923.5322265625	n/a	WORD	3939394	wordpools/wasnorm_wordpool_576.txt	LTP339	ltpFR2	23	9	KIWI	781	n/a	n/a	0	0	0
1926.09814453125	n/a	WORD	3944649	wordpools/wasnorm_wordpool_576.txt	LTP339	ltpFR2	23	9	GANGSTER	620	n/a	n/a	0	0	0
1928.62939453125	n/a	WORD	3949833	wordpools/wasnorm_wordpool_576.txt	LTP339	ltpFR2	23	9	STUMP	1396	n/a	n/a	0	0	0
1931.09619140625	n/a	WORD	3954885	wordpools/wasnorm_wordpool_576.txt	LTP339	ltpFR2	23	9	LUGGAGE	847	n/a	n/a	0	0	0
1933.67626953125	n/a	WORD	3960169	wordpools/wasnorm_wordpool_576.txt	LTP339	ltpFR2	23	9	PORT	1110	n/a	n/a	0	0	0
1936.24365234375	n/a	WORD	3965427	wordpools/wasnorm_wordpool_576.txt	LTP339	ltpFR2	23	9	SALESMAN	1225	n/a	n/a	0	0	0
1938.79248046875	n/a	WORD	3970647	wordpools/wasnorm_wordpool_576.txt	LTP339	ltpFR2	23	9	CAFE	216	n/a	n/a	0	0	0
1941.3076171875	n/a	WORD	3975798	wordpools/wasnorm_wordpool_576.txt	LTP339	ltpFR2	23	9	BUSH	202	n/a	n/a	0	0	0
1943.806640625	n/a	WORD	3980916	wordpools/wasnorm_wordpool_576.txt	LTP339	ltpFR2	23	9	VESSEL	1558	n/a	n/a	0	0	0
1946.4052734375	n/a	WORD	3986238	wordpools/wasnorm_wordpool_576.txt	LTP339	ltpFR2	23	9	CANOE	233	n/a	n/a	0	0	0
1948.9873046875	n/a	WORD	3991526	wordpools/wasnorm_wordpool_576.txt	LTP339	ltpFR2	23	9	JEEP	753	n/a	n/a	0	0	0
1951.568359375	n/a	WORD	3996812	wordpools/wasnorm_wordpool_576.txt	LTP339	ltpFR2	23	9	DANCER	437	n/a	n/a	0	0	0
1954.384765625	n/a	WORD	4002580	wordpools/wasnorm_wordpool_576.txt	LTP339	ltpFR2	23	9	CLIFF	322	n/a	n/a	0	0	0
1957.03369140625	n/a	WORD	4008005	wordpools/wasnorm_wordpool_576.txt	LTP339	ltpFR2	23	9	STAPLER	1372	n/a	n/a	0	0	0
1959.49853515625	n/a	WORD	4013053	wordpools/wasnorm_wordpool_576.txt	LTP339	ltpFR2	23	9	COUGAR	387	n/a	n/a	0	0	0
1961.98046875	n/a	WORD	4018136	wordpools/wasnorm_wordpool_576.txt	LTP339	ltpFR2	23	9	PROTON	1132	n/a	n/a	0	0	0
1964.51171875	n/a	WORD	4023320	wordpools/wasnorm_wordpool_576.txt	LTP339	ltpFR2	23	9	BRIEFCASE	175	n/a	n/a	0	0	0
1967.02880859375	n/a	WORD	4028475	wordpools/wasnorm_wordpool_576.txt	LTP339	ltpFR2	23	9	SWORD	1423	n/a	n/a	0	0	0
1969.65966796875	n/a	WORD	4033863	wordpools/wasnorm_wordpool_576.txt	LTP339	ltpFR2	23	9	WINDSHIELD	1612	n/a	n/a	0	0	0
1971.27685546875	n/a	START	4037175	n/a	LTP339	ltpFR2	23	n/a	n/a	n/a	14	n/a	n/a	n/a	n/a
1972.171875	n/a	DISTRACTOR	4039008	n/a	LTP339	ltpFR2	23	9	n/a	n/a	n/a	n/a	0	0	0
1972.17578125	n/a	PROB	4039016	n/a	LTP339	ltpFR2	23	n/a	n/a	n/a	14	19	5	7	7
1973.65771484375	n/a	PROB	4042051	n/a	LTP339	ltpFR2	23	n/a	n/a	n/a	14	22	9	5	8
1976.77392578125	n/a	PROB	4048433	n/a	LTP339	ltpFR2	23	n/a	n/a	n/a	14	12	8	2	2
1977.9228515625	n/a	PROB	4050786	n/a	LTP339	ltpFR2	23	n/a	n/a	n/a	14	16	2	8	6
1979.388671875	n/a	PROB	4053788	n/a	LTP339	ltpFR2	23	n/a	n/a	n/a	14	22	9	8	5
1981.470703125	n/a	PROB	4058052	n/a	LTP339	ltpFR2	23	n/a	n/a	n/a	14	15	2	7	6
1983.419921875	n/a	PROB	4062044	n/a	LTP339	ltpFR2	23	n/a	n/a	n/a	14	9	1	6	2
1984.935546875	n/a	PROB	4065148	n/a	LTP339	ltpFR2	23	n/a	n/a	n/a	14	22	5	9	7
1987.2685546875	n/a	PROB	4069926	n/a	LTP339	ltpFR2	23	n/a	n/a	n/a	14	24	8	8	8
1990.0009765625	n/a	PROB	4075522	n/a	LTP339	ltpFR2	23	n/a	n/a	n/a	14	16	5	8	3
1991.5146484375	n/a	PROB	4078622	n/a	LTP339	ltpFR2	23	n/a	n/a	n/a	14	16	6	5	5
1992.59765625	n/a	PROB	4080840	n/a	LTP339	ltpFR2	23	n/a	n/a	n/a	14	14	3	2	9
1995.10986328125	n/a	STOP	4085985	n/a	LTP339	ltpFR2	23	n/a	n/a	n/a	14	n/a	n/a	n/a	n/a
1997.0478515625	n/a	REC_START	4089954	n/a	LTP339	ltpFR2	23	9	n/a	n/a	n/a	n/a	0	0	0
1997.3427734375	n/a	REC_WORD	4090558	wordpools/wasnorm_wordpool_576.txt	LTP339	ltpFR2	23	9	MAGNET	855	n/a	n/a	0	0	0
1998.015625	n/a	REC_WORD	4091936	wordpools/wasnorm_wordpool_576.txt	LTP339	ltpFR2	23	9	FROST	609	n/a	n/a	0	0	0
1998.91796875	n/a	REC_WORD	4093784	wordpools/wasnorm_wordpool_576.txt	LTP339	ltpFR2	23	9	LONDON	843	n/a	n/a	0	0	0
1999.69873046875	n/a	REC_WORD	4095383	wordpools/wasnorm_wordpool_576.txt	LTP339	ltpFR2	23	9	WAX	1597	n/a	n/a	0	0	0
2000.51806640625	n/a	REC_WORD	4097061	wordpools/wasnorm_wordpool_576.txt	LTP339	ltpFR2	23	9	RAISIN	1163	n/a	n/a	0	0	0
2001.5048828125	n/a	REC_WORD	4099082	wordpools/wasnorm_wordpool_576.txt	LTP339	ltpFR2	23	9	DANCER	437	n/a	n/a	0	0	0
2002.5556640625	n/a	REC_WORD	4101234	wordpools/wasnorm_wordpool_576.txt	LTP339	ltpFR2	23	9	CLIFF	322	n/a	n/a	0	0	0
2005.35400390625	n/a	REC_WORD	4106965	wordpools/wasnorm_wordpool_576.txt	LTP339	ltpFR2	23	9	LUGGAGE	847	n/a	n/a	0	0	0
2006.1787109375	n/a	REC_WORD	4108654	wordpools/wasnorm_wordpool_576.txt	LTP339	ltpFR2	23	9	BRIEFCASE	175	n/a	n/a	0	0	0
2007.7197265625	n/a	REC_WORD	4111810	wordpools/wasnorm_wordpool_576.txt	LTP339	ltpFR2	23	9	KIWI	781	n/a	n/a	0	0	0
2009.9638671875	n/a	REC_WORD	4116406	wordpools/wasnorm_wordpool_576.txt	LTP339	ltpFR2	23	9	SWORD	1423	n/a	n/a	0	0	0
2087.5185546875	n/a	WORD	4275238	wordpools/wasnorm_wordpool_576.txt	LTP339	ltpFR2	23	10	BRIDGE	174	n/a	n/a	0	0	0
2089.95166015625	n/a	WORD	4280221	wordpools/wasnorm_wordpool_576.txt	LTP339	ltpFR2	23	10	SALT	1229	n/a	n/a	0	0	0
2092.69970703125	n/a	WORD	4285849	wordpools/wasnorm_wordpool_576.txt	LTP339	ltpFR2	23	10	BOUILLON	154	n/a	n/a	0	0	0
2095.46533203125	n/a	WORD	4291513	wordpools/wasnorm_wordpool_576.txt	LTP339	ltpFR2	23	10	BUGLE	189	n/a	n/a	0	0	0
2097.947265625	n/a	WORD	4296596	wordpools/wasnorm_wordpool_576.txt	LTP339	ltpFR2	23	10	NICKEL	950	n/a	n/a	0	0	0
2100.54541015625	n/a	WORD	4301917	wordpools/wasnorm_wordpool_576.txt	LTP339	ltpFR2	23	10	BANDIT	81	n/a	n/a	0	0	0
2103.3447265625	n/a	WORD	4307650	wordpools/wasnorm_wordpool_576.txt	LTP339	ltpFR2	23	10	ELBOW	520	n/a	n/a	0	0	0
2106.12646484375	n/a	WORD	4313347	wordpools/wasnorm_wordpool_576.txt	LTP339	ltpFR2	23	10	SIRLOIN	1311	n/a	n/a	0	0	0
2108.87548828125	n/a	WORD	4318977	wordpools/wasnorm_wordpool_576.txt	LTP339	ltpFR2	23	10	COURSE	390	n/a	n/a	0	0	0
2111.556640625	n/a	WORD	4324468	wordpools/wasnorm_wordpool_576.txt	LTP339	ltpFR2	23	10	DOG	480	n/a	n/a	0	0	0
2113.98974609375	n/a	WORD	4329451	wordpools/wasnorm_wordpool_576.txt	LTP339	ltpFR2	23	10	TRUMPET	1513	n/a	n/a	0	0	0
2116.57080078125	n/a	WORD	4334737	wordpools/wasnorm_wordpool_576.txt	LTP339	ltpFR2	23	10	MISSILE	900	n/a	n/a	0	0	0
2119.40380859375	n/a	WORD	4340539	wordpools/wasnorm_wordpool_576.txt	LTP339	ltpFR2	23	10	STREET	1393	n/a	n/a	0	0	0
2122.03564453125	n/a	WORD	4345929	wordpools/wasnorm_wordpool_576.txt	LTP339	ltpFR2	23	10	SPHINX	1349	n/a	n/a	0	0	0
2124.75048828125	n/a	WORD	4351489	wordpools/wasnorm_wordpool_576.txt	LTP339	ltpFR2	23	10	BOYFRIEND	162	n/a	n/a	0	0	0
2127.53173828125	n/a	WORD	4357185	wordpools/wasnorm_wordpool_576.txt	LTP339	ltpFR2	23	10	GLACIER	638	n/a	n/a	0	0	0
2130.28173828125	n/a	WORD	4362817	wordpools/wasnorm_wordpool_576.txt	LTP339	ltpFR2	23	10	SKATE	1313	n/a	n/a	0	0	0
2132.72998046875	n/a	WORD	4367831	wordpools/wasnorm_wordpool_576.txt	LTP339	ltpFR2	23	10	CAPTAIN	239	n/a	n/a	0	0	0
2135.544921875	n/a	WORD	4373596	wordpools/wasnorm_wordpool_576.txt	LTP339	ltpFR2	23	10	SERGEANT	1269	n/a	n/a	0	0	0
2138.11083984375	n/a	WORD	4378851	wordpools/wasnorm_wordpool_576.txt	LTP339	ltpFR2	23	10	DRAWER	493	n/a	n/a	0	0	0
2140.57568359375	n/a	WORD	4383899	wordpools/wasnorm_wordpool_576.txt	LTP339	ltpFR2	23	10	ATTIRE	57	n/a	n/a	0	0	0
2143.27490234375	n/a	WORD	4389427	wordpools/wasnorm_wordpool_576.txt	LTP339	ltpFR2	23	10	SPONGE	1355	n/a	n/a	0	0	0
2146.041015625	n/a	WORD	4395092	wordpools/wasnorm_wordpool_576.txt	LTP339	ltpFR2	23	10	MOTEL	919	n/a	n/a	0	0	0
2148.6376953125	n/a	WORD	4400410	wordpools/wasnorm_wordpool_576.txt	LTP339	ltpFR2	23	10	WATER	1594	n/a	n/a	0	0	0
2150.255859375	n/a	START	4403724	n/a	LTP339	ltpFR2	23	n/a	n/a	n/a	15	n/a	n/a	n/a	n/a
2151.16064453125	n/a	DISTRACTOR	4405577	n/a	LTP339	ltpFR2	23	10	n/a	n/a	n/a	n/a	0	0	0
2151.1708984375	n/a	PROB	4405598	n/a	LTP339	ltpFR2	23	n/a	n/a	n/a	15	16	2	5	9
2153.552734375	n/a	PROB	4410476	n/a	LTP339	ltpFR2	23	n/a	n/a	n/a	15	19	2	9	8
2155.81884765625	n/a	PROB	4415117	n/a	LTP339	ltpFR2	23	n/a	n/a	n/a	15	13	5	4	4
2157.70068359375	n/a	PROB	4418971	n/a	LTP339	ltpFR2	23	n/a	n/a	n/a	15	19	3	7	9
2158.91796875	n/a	PROB	4421464	n/a	LTP339	ltpFR2	23	n/a	n/a	n/a	15	15	1	7	7
2160.01708984375	n/a	PROB	4423715	n/a	LTP339	ltpFR2	23	n/a	n/a	n/a	15	22	8	6	8
2161.548828125	n/a	PROB	4426852	n/a	LTP339	ltpFR2	23	n/a	n/a	n/a	15	13	8	4	1
2163.83203125	n/a	PROB	4431528	n/a	LTP339	ltpFR2	23	n/a	n/a	n/a	15	16	6	7	3
2165.9638671875	n/a	PROB	4435894	n/a	LTP339	ltpFR2	23	n/a	n/a	n/a	15	11	6	4	1
2167.11376953125	n/a	PROB	4438249	n/a	LTP339	ltpFR2	23	n/a	n/a	n/a	15	9	3	2	4
2169.3291015625	n/a	PROB	4442786	n/a	LTP339	ltpFR2	23	n/a	n/a	n/a	15	10	6	1	3
2170.52783203125	n/a	PROB	4445241	n/a	LTP339	ltpFR2	23	n/a	n/a	n/a	15	16	9	1	6
2172.01123046875	n/a	PROB	4448279	n/a	LTP339	ltpFR2	23	n/a	n/a	n/a	15	9	1	6	2
2173.58203125	n/a	STOP	4451496	n/a	LTP339	ltpFR2	23	n/a	n/a	n/a	15	n/a	n/a	n/a	n/a
2176.17626953125	n/a	REC_START	4456809	n/a	LTP339	ltpFR2	23	10	n/a	n/a	n/a	n/a	0	0	0
2176.45703125	n/a	REC_WORD	4457384	wordpools/wasnorm_wordpool_576.txt	LTP339	ltpFR2	23	10	BRIDGE	174	n/a	n/a	0	0	0
2176.947265625	n/a	REC_WORD	4458388	wordpools/wasnorm_wordpool_576.txt	LTP339	ltpFR2	23	10	SALT	1229	n/a	n/a	0	0	0
2177.8271484375	n/a	REC_WORD	4460190	wordpools/wasnorm_wordpool_576.txt	LTP339	ltpFR2	23	10	BOUILLON	154	n/a	n/a	0	0	0
2178.75927734375	n/a	REC_WORD	4462099	wordpools/wasnorm_wordpool_576.txt	LTP339	ltpFR2	23	10	BULGE	-1	n/a	n/a	0	0	0
2179.34619140625	n/a	REC_WORD	4463301	wordpools/wasnorm_wordpool_576.txt	LTP339	ltpFR2	23	10	NICKEL	950	n/a	n/a	0	0	0
2180.23486328125	n/a	REC_WORD	4465121	wordpools/wasnorm_wordpool_576.txt	LTP339	ltpFR2	23	10	STREET	1393	n/a	n/a	0	0	0
2190.00390625	n/a	REC_WORD	4485128	wordpools/wasnorm_wordpool_576.txt	LTP339	ltpFR2	23	10	SPHINX	1349	n/a	n/a	0	0	0
2194.369140625	n/a	REC_WORD	4494068	wordpools/wasnorm_wordpool_576.txt	LTP339	ltpFR2	23	10	MOTEL	919	n/a	n/a	0	0	0
2195.01708984375	n/a	REC_WORD	4495395	wordpools/wasnorm_wordpool_576.txt	LTP339	ltpFR2	23	10	WATER	1594	n/a	n/a	0	0	0
2195.72314453125	n/a	REC_WORD	4496841	wordpools/wasnorm_wordpool_576.txt	LTP339	ltpFR2	23	10	ATTIRE	57	n/a	n/a	0	0	0
2266.630859375	n/a	WORD	4642060	wordpools/wasnorm_wordpool_576.txt	LTP339	ltpFR2	23	11	CARPET	247	n/a	n/a	0	0	0
2269.08056640625	n/a	WORD	4647077	wordpools/wasnorm_wordpool_576.txt	LTP339	ltpFR2	23	11	BRACELET	163	n/a	n/a	0	0	0
2271.69482421875	n/a	WORD	4652431	wordpools/wasnorm_wordpool_576.txt	LTP339	ltpFR2	23	11	DRESSER	496	n/a	n/a	0	0	0
2274.32763671875	n/a	WORD	4657823	wordpools/wasnorm_wordpool_576.txt	LTP339	ltpFR2	23	11	WAREHOUSE	1588	n/a	n/a	0	0	0
2276.9599609375	n/a	WORD	4663214	wordpools/wasnorm_wordpool_576.txt	LTP339	ltpFR2	23	11	CARTON	251	n/a	n/a	0	0	0
2279.54052734375	n/a	WORD	4668499	wordpools/wasnorm_wordpool_576.txt	LTP339	ltpFR2	23	11	GIFT	635	n/a	n/a	0	0	0
2282.140625	n/a	WORD	4673824	wordpools/wasnorm_wordpool_576.txt	LTP339	ltpFR2	23	11	PACKAGE	997	n/a	n/a	0	0	0
2284.77294921875	n/a	WORD	4679215	wordpools/wasnorm_wordpool_576.txt	LTP339	ltpFR2	23	11	POPCORN	1104	n/a	n/a	0	0	0
2287.23779296875	n/a	WORD	4684263	wordpools/wasnorm_wordpool_576.txt	LTP339	ltpFR2	23	11	PEACH	1031	n/a	n/a	0	0	0
2290.0537109375	n/a	WORD	4690030	wordpools/wasnorm_wordpool_576.txt	LTP339	ltpFR2	23	11	PIGMENT	1066	n/a	n/a	0	0	0
2292.751953125	n/a	WORD	4695556	wordpools/wasnorm_wordpool_576.txt	LTP339	ltpFR2	23	11	OMELET	976	n/a	n/a	0	0	0
2295.30078125	n/a	WORD	4700776	wordpools/wasnorm_wordpool_576.txt	LTP339	ltpFR2	23	11	BRANDY	169	n/a	n/a	0	0	0
2298.10009765625	n/a	WORD	4706509	wordpools/wasnorm_wordpool_576.txt	LTP339	ltpFR2	23	11	CONCRETE	361	n/a	n/a	0	0	0
2300.78076171875	n/a	WORD	4711999	wordpools/wasnorm_wordpool_576.txt	LTP339	ltpFR2	23	11	GRILL	661	n/a	n/a	0	0	0
2303.27978515625	n/a	WORD	4717117	wordpools/wasnorm_wordpool_576.txt	LTP339	ltpFR2	23	11	BODY	145	n/a	n/a	0	0	0
2305.845703125	n/a	WORD	4722372	wordpools/wasnorm_wordpool_576.txt	LTP339	ltpFR2	23	11	CHEMIST	292	n/a	n/a	0	0	0
2308.66015625	n/a	WORD	4728136	wordpools/wasnorm_wordpool_576.txt	LTP339	ltpFR2	23	11	SAUCER	1237	n/a	n/a	0	0	0
2311.22607421875	n/a	WORD	4733391	wordpools/wasnorm_wordpool_576.txt	LTP339	ltpFR2	23	11	DRIVEWAY	500	n/a	n/a	0	0	0
2313.8251953125	n/a	WORD	4738714	wordpools/wasnorm_wordpool_576.txt	LTP339	ltpFR2	23	11	LIVER	833	n/a	n/a	0	0	0
2316.45703125	n/a	WORD	4744104	wordpools/wasnorm_wordpool_576.txt	LTP339	ltpFR2	23	11	TREASURE	1500	n/a	n/a	0	0	0
2319.18896484375	n/a	WORD	4749699	wordpools/wasnorm_wordpool_576.txt	LTP339	ltpFR2	23	11	WRITER	1627	n/a	n/a	0	0	0
2321.669921875	n/a	WORD	4754780	wordpools/wasnorm_wordpool_576.txt	LTP339	ltpFR2	23	11	SHACK	1273	n/a	n/a	0	0	0
2324.30322265625	n/a	WORD	4760173	wordpools/wasnorm_wordpool_576.txt	LTP339	ltpFR2	23	11	BRIDE	173	n/a	n/a	0	0	0
2326.80224609375	n/a	WORD	4765291	wordpools/wasnorm_wordpool_576.txt	LTP339	ltpFR2	23	11	BANDAGE	79	n/a	n/a	0	0	0
2328.41796875	n/a	START	4768600	n/a	LTP339	ltpFR2	23	n/a	n/a	n/a	16	n/a	n/a	n/a	n/a
2329.55615234375	n/a	DISTRACTOR	4770931	n/a	LTP339	ltpFR2	23	11	n/a	n/a	n/a	n/a	0	0	0
2329.56591796875	n/a	PROB	4770951	n/a	LTP339	ltpFR2	23	n/a	n/a	n/a	16	19	6	9	4
2331.3330078125	n/a	PROB	4774570	n/a	LTP339	ltpFR2	23	n/a	n/a	n/a	16	11	6	1	4
2332.3662109375	n/a	PROB	4776686	n/a	LTP339	ltpFR2	23	n/a	n/a	n/a	16	15	9	2	4
2334.01513671875	n/a	PROB	4780063	n/a	LTP339	ltpFR2	23	n/a	n/a	n/a	16	13	6	4	3
2335.39794921875	n/a	PROB	4782895	n/a	LTP339	ltpFR2	23	n/a	n/a	n/a	16	19	5	6	8
2337.36328125	n/a	PROB	4786920	n/a	LTP339	ltpFR2	23	n/a	n/a	n/a	16	11	6	1	4
2338.31298828125	n/a	PROB	4788865	n/a	LTP339	ltpFR2	23	n/a	n/a	n/a	16	18	3	6	9
2340.97802734375	n/a	PROB	4794323	n/a	LTP339	ltpFR2	23	n/a	n/a	n/a	16	15	2	6	7
2343.06103515625	n/a	PROB	4798589	n/a	LTP339	ltpFR2	23	n/a	n/a	n/a	16	16	6	8	2
2345.7421875	n/a	PROB	4804080	n/a	LTP339	ltpFR2	23	n/a	n/a	n/a	16	17	3	6	8
2348.00830078125	n/a	PROB	4808721	n/a	LTP339	ltpFR2	23	n/a	n/a	n/a	16	9	6	2	1
2349.5400390625	n/a	PROB	4811858	n/a	LTP339	ltpFR2	23	n/a	n/a	n/a	16	8	2	2	4
2350.92822265625	n/a	STOP	4814701	n/a	LTP339	ltpFR2	23	n/a	n/a	n/a	16	n/a	n/a	n/a	n/a
2354.33935546875	n/a	REC_START	4821687	n/a	LTP339	ltpFR2	23	11	n/a	n/a	n/a	n/a	0	0	0
2354.71337890625	n/a	REC_WORD	4822453	wordpools/wasnorm_wordpool_576.txt	LTP339	ltpFR2	23	11	CARPET	247	n/a	n/a	0	0	0
2355.4140625	n/a	REC_WORD	4823888	wordpools/wasnorm_wordpool_576.txt	LTP339	ltpFR2	23	11	BRACELET	163	n/a	n/a	0	0	0
2356.26416015625	n/a	REC_WORD	4825629	wordpools/wasnorm_wordpool_576.txt	LTP339	ltpFR2	23	11	DRESSER	496	n/a	n/a	0	0	0
2356.9951171875	n/a	REC_WORD	4827126	wordpools/wasnorm_wordpool_576.txt	LTP339	ltpFR2	23	11	WAREHOUSE	1588	n/a	n/a	0	0	0
2357.8740234375	n/a	REC_WORD	4828926	wordpools/wasnorm_wordpool_576.txt	LTP339	ltpFR2	23	11	CONCRETE	361	n/a	n/a	0	0	0
2358.8193359375	n/a	REC_WORD	4830862	wordpools/wasnorm_wordpool_576.txt	LTP339	ltpFR2	23	11	GRILL	661	n/a	n/a	0	0	0
2359.869140625	n/a	REC_WORD	4833012	wordpools/wasnorm_wordpool_576.txt	LTP339	ltpFR2	23	11	BRIDE	173	n/a	n/a	0	0	0
2444.77783203125	n/a	DISTRACTOR	5006905	n/a	LTP339	ltpFR2	23	12	n/a	n/a	n/a	n/a	0	0	0
2444.77783203125	n/a	START	5006905	n/a	LTP339	ltpFR2	23	n/a	n/a	n/a	17	n/a	n/a	n/a	n/a
2444.7939453125	n/a	PROB	5006938	n/a	LTP339	ltpFR2	23	n/a	n/a	n/a	17	17	7	7	3
2446.77685546875	n/a	PROB	5010999	n/a	LTP339	ltpFR2	23	n/a	n/a	n/a	17	4	2	1	1
2448.10888671875	n/a	PROB	5013727	n/a	LTP339	ltpFR2	23	n/a	n/a	n/a	17	8	1	2	5
2449.74072265625	n/a	PROB	5017069	n/a	LTP339	ltpFR2	23	n/a	n/a	n/a	17	23	7	9	7
2451.68994140625	n/a	PROB	5021061	n/a	LTP339	ltpFR2	23	n/a	n/a	n/a	17	15	5	6	4
2452.85693359375	n/a	PROB	5023451	n/a	LTP339	ltpFR2	23	n/a	n/a	n/a	17	11	1	3	7
2454.10595703125	n/a	PROB	5026009	n/a	LTP339	ltpFR2	23	n/a	n/a	n/a	17	10	8	5	6
2459.037109375	n/a	PROB	5036108	n/a	LTP339	ltpFR2	23	n/a	n/a	n/a	17	14	6	7	1
2462.15185546875	n/a	PROB	5042487	n/a	LTP339	ltpFR2	23	n/a	n/a	n/a	17	19	9	6	4
2463.15185546875	n/a	PROB	5044535	n/a	LTP339	ltpFR2	23	n/a	n/a	n/a	17	18	7	3	8
2464.3681640625	n/a	PROB	5047026	n/a	LTP339	ltpFR2	23	n/a	n/a	n/a	17	10	4	4	2
2465.51611328125	n/a	PROB	5049377	n/a	LTP339	ltpFR2	23	n/a	n/a	n/a	17	20	4	9	7
2468.32080078125	n/a	STOP	5055121	n/a	LTP339	ltpFR2	23	n/a	n/a	n/a	17	n/a	n/a	n/a	n/a
2469.81494140625	n/a	WORD	5058181	wordpools/wasnorm_wordpool_576.txt	LTP339	ltpFR2	23	12	PARENT	1013	n/a	n/a	0	0	0
2472.26416015625	n/a	WORD	5063197	wordpools/wasnorm_wordpool_576.txt	LTP339	ltpFR2	23	12	YARN	1631	n/a	n/a	0	0	0
2474.9130859375	n/a	WORD	5068622	wordpools/wasnorm_wordpool_576.txt	LTP339	ltpFR2	23	12	HOOD	714	n/a	n/a	0	0	0
2477.7099609375	n/a	WORD	5074350	wordpools/wasnorm_wordpool_576.txt	LTP339	ltpFR2	23	12	TRENCH	1503	n/a	n/a	0	0	0
2480.26025390625	n/a	WORD	5079573	wordpools/wasnorm_wordpool_576.txt	LTP339	ltpFR2	23	12	SUGAR	1401	n/a	n/a	0	0	0
2482.9091796875	n/a	WORD	5084998	wordpools/wasnorm_wordpool_576.txt	LTP339	ltpFR2	23	12	INSECT	740	n/a	n/a	0	0	0
2485.45703125	n/a	WORD	5090216	wordpools/wasnorm_wordpool_576.txt	LTP339	ltpFR2	23	12	RACKET	1155	n/a	n/a	0	0	0
2488.02294921875	n/a	WORD	5095471	wordpools/wasnorm_wordpool_576.txt	LTP339	ltpFR2	23	12	DAUGHTER	442	n/a	n/a	0	0	0
2490.50537109375	n/a	WORD	5100555	wordpools/wasnorm_wordpool_576.txt	LTP339	ltpFR2	23	12	MEAT	883	n/a	n/a	0	0	0
2492.9873046875	n/a	WORD	5105638	wordpools/wasnorm_wordpool_576.txt	LTP339	ltpFR2	23	12	PENCIL	1042	n/a	n/a	0	0	0
2495.6181640625	n/a	WORD	5111026	wordpools/wasnorm_wordpool_576.txt	LTP339	ltpFR2	23	12	PLANT	1083	n/a	n/a	0	0	0
2498.21826171875	n/a	WORD	5116351	wordpools/wasnorm_wordpool_576.txt	LTP339	ltpFR2	23	12	JUDGE	761	n/a	n/a	0	0	0
2500.916015625	n/a	WORD	5121876	wordpools/wasnorm_wordpool_576.txt	LTP339	ltpFR2	23	12	RIBBON	1189	n/a	n/a	0	0	0
2503.53125	n/a	WORD	5127232	wordpools/wasnorm_wordpool_576.txt	LTP339	ltpFR2	23	12	SPOUSE	1358	n/a	n/a	0	0	0
2506.01416015625	n/a	WORD	5132317	wordpools/wasnorm_wordpool_576.txt	LTP339	ltpFR2	23	12	WIFE	1609	n/a	n/a	0	0	0
2508.578125	n/a	WORD	5137568	wordpools/wasnorm_wordpool_576.txt	LTP339	ltpFR2	23	12	CANDY	230	n/a	n/a	0	0	0
2511.2451171875	n/a	WORD	5143030	wordpools/wasnorm_wordpool_576.txt	LTP339	ltpFR2	23	12	STABLE	1363	n/a	n/a	0	0	0
2513.8935546875	n/a	WORD	5148454	wordpools/wasnorm_wordpool_576.txt	LTP339	ltpFR2	23	12	UNCLE	1536	n/a	n/a	0	0	0
2516.4921875	n/a	WORD	5153776	wordpools/wasnorm_wordpool_576.txt	LTP339	ltpFR2	23	12	COOKBOOK	373	n/a	n/a	0	0	0
2519.20751953125	n/a	WORD	5159337	wordpools/wasnorm_wordpool_576.txt	LTP339	ltpFR2	23	12	BEEF	113	n/a	n/a	0	0	0
2521.88916015625	n/a	WORD	5164829	wordpools/wasnorm_wordpool_576.txt	LTP339	ltpFR2	23	12	NECKLACE	940	n/a	n/a	0	0	0
2524.6044921875	n/a	WORD	5170390	wordpools/wasnorm_wordpool_576.txt	LTP339	ltpFR2	23	12	RUST	1219	n/a	n/a	0	0	0
2527.3203125	n/a	WORD	5175952	wordpools/wasnorm_wordpool_576.txt	LTP339	ltpFR2	23	12	SAILOR	1223	n/a	n/a	0	0	0
2529.8525390625	n/a	WORD	5181138	wordpools/wasnorm_wordpool_576.txt	LTP339	ltpFR2	23	12	MONKEY	911	n/a	n/a	0	0	0
2531.46826171875	n/a	START	5184447	n/a	LTP339	ltpFR2	23	n/a	n/a	n/a	18	n/a	n/a	n/a	n/a
2532.3662109375	n/a	DISTRACTOR	5186286	n/a	LTP339	ltpFR2	23	12	n/a	n/a	n/a	n/a	0	0	0
2532.36767578125	n/a	PROB	5186289	n/a	LTP339	ltpFR2	23	n/a	n/a	n/a	18	6	4	1	1
2534.03369140625	n/a	PROB	5189701	n/a	LTP339	ltpFR2	23	n/a	n/a	n/a	18	18	7	5	6
2536.099609375	n/a	PROB	5193932	n/a	LTP339	ltpFR2	23	n/a	n/a	n/a	18	10	1	1	8
2536.982421875	n/a	PROB	5195740	n/a	LTP339	ltpFR2	23	n/a	n/a	n/a	18	15	1	5	9
2539.2646484375	n/a	PROB	5200414	n/a	LTP339	ltpFR2	23	n/a	n/a	n/a	18	12	6	3	3
2541.09765625	n/a	PROB	5204168	n/a	LTP339	ltpFR2	23	n/a	n/a	n/a	18	11	1	2	8
2542.12939453125	n/a	PROB	5206281	n/a	LTP339	ltpFR2	23	n/a	n/a	n/a	18	17	6	5	6
2544.24560546875	n/a	PROB	5210615	n/a	LTP339	ltpFR2	23	n/a	n/a	n/a	18	18	9	8	1
2545.5107421875	n/a	PROB	5213206	n/a	LTP339	ltpFR2	23	n/a	n/a	n/a	18	15	4	8	3
2551.20849609375	n/a	PROB	5224875	n/a	LTP339	ltpFR2	23	n/a	n/a	n/a	18	13	3	4	6
2555.4658203125	n/a	STOP	5233594	n/a	LTP339	ltpFR2	23	n/a	n/a	n/a	18	n/a	n/a	n/a	n/a
2557.23974609375	n/a	REC_START	5237227	n/a	LTP339	ltpFR2	23	12	n/a	n/a	n/a	n/a	0	0	0
2557.57177734375	n/a	REC_WORD	5237907	wordpools/wasnorm_wordpool_576.txt	LTP339	ltpFR2	23	12	PARENT	1013	n/a	n/a	0	0	0
2558.23974609375	n/a	REC_WORD	5239275	wordpools/wasnorm_wordpool_576.txt	LTP339	ltpFR2	23	12	YARN	1631	n/a	n/a	0	0	0
2558.87646484375	n/a	REC_WORD	5240579	wordpools/wasnorm_wordpool_576.txt	LTP339	ltpFR2	23	12	HOOD	714	n/a	n/a	0	0	0
2559.5966796875	n/a	REC_WORD	5242054	wordpools/wasnorm_wordpool_576.txt	LTP339	ltpFR2	23	12	TRENCH	1503	n/a	n/a	0	0	0
2560.390625	n/a	REC_WORD	5243680	wordpools/wasnorm_wordpool_576.txt	LTP339	ltpFR2	23	12	PENCIL	1042	n/a	n/a	0	0	0
2561.12451171875	n/a	REC_WORD	5245183	wordpools/wasnorm_wordpool_576.txt	LTP339	ltpFR2	23	12	NECKLACE	940	n/a	n/a	0	0	0
2647.67724609375	n/a	DISTRACTOR	5422443	n/a	LTP339	ltpFR2	23	13	n/a	n/a	n/a	n/a	0	0	0
2647.67724609375	n/a	START	5422443	n/a	LTP339	ltpFR2	23	n/a	n/a	n/a	19	n/a	n/a	n/a	n/a
2647.6943359375	n/a	PROB	5422478	n/a	LTP339	ltpFR2	23	n/a	n/a	n/a	19	11	1	1	9
2649.12744140625	n/a	PROB	5425413	n/a	LTP339	ltpFR2	23	n/a	n/a	n/a	19	10	4	2	4
2651.54248046875	n/a	PROB	5430359	n/a	LTP339	ltpFR2	23	n/a	n/a	n/a	19	25	9	7	9
2656.4072265625	n/a	PROB	5440322	n/a	LTP339	ltpFR2	23	n/a	n/a	n/a	19	22	8	8	6
2658.30615234375	n/a	PROB	5444211	n/a	LTP339	ltpFR2	23	n/a	n/a	n/a	19	1	8	4	1
2660.4052734375	n/a	PROB	5448510	n/a	LTP339	ltpFR2	23	n/a	n/a	n/a	19	13	6	3	4
2662.9375	n/a	PROB	5453696	n/a	LTP339	ltpFR2	23	n/a	n/a	n/a	19	14	2	5	7
2665.00341796875	n/a	PROB	5457927	n/a	LTP339	ltpFR2	23	n/a	n/a	n/a	19	11	4	3	4
2666.4521484375	n/a	PROB	5460894	n/a	LTP339	ltpFR2	23	n/a	n/a	n/a	19	16	3	5	8
2671.67724609375	n/a	STOP	5471595	n/a	LTP339	ltpFR2	23	n/a	n/a	n/a	19	n/a	n/a	n/a	n/a
2672.58154296875	n/a	WORD	5473447	wordpools/wasnorm_wordpool_576.txt	LTP339	ltpFR2	23	13	GUITAR	670	n/a	n/a	0	0	0
2675.3642578125	n/a	WORD	5479146	wordpools/wasnorm_wordpool_576.txt	LTP339	ltpFR2	23	13	LEG	809	n/a	n/a	0	0	0
2678.0302734375	n/a	WORD	5484606	wordpools/wasnorm_wordpool_576.txt	LTP339	ltpFR2	23	13	CABIN	211	n/a	n/a	0	0	0
2680.7275390625	n/a	WORD	5490130	wordpools/wasnorm_wordpool_576.txt	LTP339	ltpFR2	23	13	PAVEMENT	1028	n/a	n/a	0	0	0
2683.16064453125	n/a	WORD	5495113	wordpools/wasnorm_wordpool_576.txt	LTP339	ltpFR2	23	13	SLIME	1327	n/a	n/a	0	0	0
2685.65869140625	n/a	WORD	5500229	wordpools/wasnorm_wordpool_576.txt	LTP339	ltpFR2	23	13	BLANKET	135	n/a	n/a	0	0	0
2688.224609375	n/a	WORD	5505484	wordpools/wasnorm_wordpool_576.txt	LTP339	ltpFR2	23	13	CRICKET	408	n/a	n/a	0	0	0
2690.95654296875	n/a	WORD	5511079	wordpools/wasnorm_wordpool_576.txt	LTP339	ltpFR2	23	13	LAMP	798	n/a	n/a	0	0	0
2693.70458984375	n/a	WORD	5516707	wordpools/wasnorm_wordpool_576.txt	LTP339	ltpFR2	23	13	CARROT	249	n/a	n/a	0	0	0
2696.4375	n/a	WORD	5522304	wordpools/wasnorm_wordpool_576.txt	LTP339	ltpFR2	23	13	BLOSSOM	138	n/a	n/a	0	0	0
2699.16943359375	n/a	WORD	5527899	wordpools/wasnorm_wordpool_576.txt	LTP339	ltpFR2	23	13	SADDLE	1221	n/a	n/a	0	0	0
2701.7333984375	n/a	WORD	5533150	wordpools/wasnorm_wordpool_576.txt	LTP339	ltpFR2	23	13	RADISH	1158	n/a	n/a	0	0	0
2704.36669921875	n/a	WORD	5538543	wordpools/wasnorm_wordpool_576.txt	LTP339	ltpFR2	23	13	CONCERT	360	n/a	n/a	0	0	0
2706.86572265625	n/a	WORD	5543661	wordpools/wasnorm_wordpool_576.txt	LTP339	ltpFR2	23	13	SCHOOL	1248	n/a	n/a	0	0	0
2709.66357421875	n/a	WORD	5549391	wordpools/wasnorm_wordpool_576.txt	LTP339	ltpFR2	23	13	LOBBY	836	n/a	n/a	0	0	0
2712.462890625	n/a	WORD	5555124	wordpools/wasnorm_wordpool_576.txt	LTP339	ltpFR2	23	13	BLUEJAY	141	n/a	n/a	0	0	0
2715.19482421875	n/a	WORD	5560719	wordpools/wasnorm_wordpool_576.txt	LTP339	ltpFR2	23	13	BUG	187	n/a	n/a	0	0	0
2717.9609375	n/a	WORD	5566384	wordpools/wasnorm_wordpool_576.txt	LTP339	ltpFR2	23	13	WRIST	1626	n/a	n/a	0	0	0
2720.6416015625	n/a	WORD	5571874	wordpools/wasnorm_wordpool_576.txt	LTP339	ltpFR2	23	13	CHARCOAL	281	n/a	n/a	0	0	0
2723.19091796875	n/a	WORD	5577095	wordpools/wasnorm_wordpool_576.txt	LTP339	ltpFR2	23	13	CLERK	321	n/a	n/a	0	0	0
2725.62255859375	n/a	WORD	5582075	wordpools/wasnorm_wordpool_576.txt	LTP339	ltpFR2	23	13	SEAL	1262	n/a	n/a	0	0	0
2728.10595703125	n/a	WORD	5587161	wordpools/wasnorm_wordpool_576.txt	LTP339	ltpFR2	23	13	BEAST	108	n/a	n/a	0	0	0
2730.90380859375	n/a	WORD	5592891	wordpools/wasnorm_wordpool_576.txt	LTP339	ltpFR2	23	13	OYSTER	995	n/a	n/a	0	0	0
2733.36962890625	n/a	WORD	5597941	wordpools/wasnorm_wordpool_576.txt	LTP339	ltpFR2	23	13	SCALLOP	1242	n/a	n/a	0	0	0
2734.98583984375	n/a	START	5601251	n/a	LTP339	ltpFR2	23	n/a	n/a	n/a	20	n/a	n/a	n/a	n/a
2736.03076171875	n/a	DISTRACTOR	5603391	n/a	LTP339	ltpFR2	23	13	n/a	n/a	n/a	n/a	0	0	0
2736.03466796875	n/a	PROB	5603399	n/a	LTP339	ltpFR2	23	n/a	n/a	n/a	20	19	6	8	5
2737.95068359375	n/a	PROB	5607323	n/a	LTP339	ltpFR2	23	n/a	n/a	n/a	20	17	5	6	6
2739.7998046875	n/a	PROB	5611110	n/a	LTP339	ltpFR2	23	n/a	n/a	n/a	20	15	7	5	3
2741.4990234375	n/a	PROB	5614590	n/a	LTP339	ltpFR2	23	n/a	n/a	n/a	20	12	7	4	1
2744.72998046875	n/a	PROB	5621207	n/a	LTP339	ltpFR2	23	n/a	n/a	n/a	20	9	4	4	1
2747.0458984375	n/a	PROB	5625950	n/a	LTP339	ltpFR2	23	n/a	n/a	n/a	20	16	3	7	6
2748.52783203125	n/a	PROB	5628985	n/a	LTP339	ltpFR2	23	n/a	n/a	n/a	20	8	2	2	4
2750.2451171875	n/a	PROB	5632502	n/a	LTP339	ltpFR2	23	n/a	n/a	n/a	20	16	5	6	5
2751.72607421875	n/a	PROB	5635535	n/a	LTP339	ltpFR2	23	n/a	n/a	n/a	20	20	7	5	8
2754.14306640625	n/a	PROB	5640485	n/a	LTP339	ltpFR2	23	n/a	n/a	n/a	20	9	2	6	1
2756.8408203125	n/a	PROB	5646010	n/a	LTP339	ltpFR2	23	n/a	n/a	n/a	20	11	5	5	1
2757.85107421875	n/a	STOP	5648079	n/a	LTP339	ltpFR2	23	n/a	n/a	n/a	20	n/a	n/a	n/a	n/a
2760.83984375	n/a	REC_START	5654200	n/a	LTP339	ltpFR2	23	13	n/a	n/a	n/a	n/a	0	0	0
2761.15283203125	n/a	REC_WORD	5654841	wordpools/wasnorm_wordpool_576.txt	LTP339	ltpFR2	23	13	GUITAR	670	n/a	n/a	0	0	0
2761.82275390625	n/a	REC_WORD	5656213	wordpools/wasnorm_wordpool_576.txt	LTP339	ltpFR2	23	13	LEG	809	n/a	n/a	0	0	0
2762.671875	n/a	REC_WORD	5657952	wordpools/wasnorm_wordpool_576.txt	LTP339	ltpFR2	23	13	CABIN	211	n/a	n/a	0	0	0
2763.4521484375	n/a	REC_WORD	5659550	wordpools/wasnorm_wordpool_576.txt	LTP339	ltpFR2	23	13	PAVEMENT	1028	n/a	n/a	0	0	0
2764.10009765625	n/a	REC_WORD	5660877	wordpools/wasnorm_wordpool_576.txt	LTP339	ltpFR2	23	13	SLIME	1327	n/a	n/a	0	0	0
2851.29541015625	n/a	DISTRACTOR	5839453	n/a	LTP339	ltpFR2	23	14	n/a	n/a	n/a	n/a	0	0	0
2851.29541015625	n/a	START	5839453	n/a	LTP339	ltpFR2	23	n/a	n/a	n/a	21	n/a	n/a	n/a	n/a
2851.3115234375	n/a	PROB	5839486	n/a	LTP339	ltpFR2	23	n/a	n/a	n/a	21	13	1	2	9
2852.927734375	n/a	PROB	5842796	n/a	LTP339	ltpFR2	23	n/a	n/a	n/a	21	13	2	7	4
2854.9267578125	n/a	PROB	5846890	n/a	LTP339	ltpFR2	23	n/a	n/a	n/a	21	20	8	7	5
2856.45947265625	n/a	PROB	5850029	n/a	LTP339	ltpFR2	23	n/a	n/a	n/a	21	15	6	6	3
2857.8916015625	n/a	PROB	5852962	n/a	LTP339	ltpFR2	23	n/a	n/a	n/a	21	12	1	8	3
2861.60546875	n/a	PROB	5860568	n/a	LTP339	ltpFR2	23	n/a	n/a	n/a	21	21	9	9	3
2863.15576171875	n/a	PROB	5863743	n/a	LTP339	ltpFR2	23	n/a	n/a	n/a	21	10	2	5	3
2865.021484375	n/a	PROB	5867564	n/a	LTP339	ltpFR2	23	n/a	n/a	n/a	21	14	5	4	5
2866.90380859375	n/a	PROB	5871419	n/a	LTP339	ltpFR2	23	n/a	n/a	n/a	21	20	4	8	8
2868.61865234375	n/a	PROB	5874931	n/a	LTP339	ltpFR2	23	n/a	n/a	n/a	21	17	4	4	9
2870.31884765625	n/a	PROB	5878413	n/a	LTP339	ltpFR2	23	n/a	n/a	n/a	21	12	4	2	6
2871.8017578125	n/a	PROB	5881450	n/a	LTP339	ltpFR2	23	n/a	n/a	n/a	21	10	1	2	7
2875.2958984375	n/a	STOP	5888606	n/a	LTP339	ltpFR2	23	n/a	n/a	n/a	21	n/a	n/a	n/a	n/a
2876.39990234375	n/a	WORD	5890867	wordpools/wasnorm_wordpool_576.txt	LTP339	ltpFR2	23	14	SAND	1230	n/a	n/a	0	0	0
2878.89794921875	n/a	WORD	5895983	wordpools/wasnorm_wordpool_576.txt	LTP339	ltpFR2	23	14	EUROPE	541	n/a	n/a	0	0	0
2881.712890625	n/a	WORD	5901748	wordpools/wasnorm_wordpool_576.txt	LTP339	ltpFR2	23	14	CRADLE	399	n/a	n/a	0	0	0
2884.19580078125	n/a	WORD	5906833	wordpools/wasnorm_wordpool_576.txt	LTP339	ltpFR2	23	14	MUSTARD	935	n/a	n/a	0	0	0
2886.74365234375	n/a	WORD	5912051	wordpools/wasnorm_wordpool_576.txt	LTP339	ltpFR2	23	14	GARAGE	621	n/a	n/a	0	0	0
2889.27685546875	n/a	WORD	5917239	wordpools/wasnorm_wordpool_576.txt	LTP339	ltpFR2	23	14	LAKE	796	n/a	n/a	0	0	0
2891.7080078125	n/a	WORD	5922218	wordpools/wasnorm_wordpool_576.txt	LTP339	ltpFR2	23	14	ICING	732	n/a	n/a	0	0	0
2894.5068359375	n/a	WORD	5927950	wordpools/wasnorm_wordpool_576.txt	LTP339	ltpFR2	23	14	ACORN	3	n/a	n/a	0	0	0
2897.123046875	n/a	WORD	5933308	wordpools/wasnorm_wordpool_576.txt	LTP339	ltpFR2	23	14	JAPAN	749	n/a	n/a	0	0	0
2899.9208984375	n/a	WORD	5939038	wordpools/wasnorm_wordpool_576.txt	LTP339	ltpFR2	23	14	SUITCASE	1403	n/a	n/a	0	0	0
2902.5859375	n/a	WORD	5944496	wordpools/wasnorm_wordpool_576.txt	LTP339	ltpFR2	23	14	SHOULDER	1294	n/a	n/a	0	0	0
2905.3349609375	n/a	WORD	5950126	wordpools/wasnorm_wordpool_576.txt	LTP339	ltpFR2	23	14	ANKLE	24	n/a	n/a	0	0	0
2907.80078125	n/a	WORD	5955176	wordpools/wasnorm_wordpool_576.txt	LTP339	ltpFR2	23	14	CLOSET	326	n/a	n/a	0	0	0
2910.283203125	n/a	WORD	5960260	wordpools/wasnorm_wordpool_576.txt	LTP339	ltpFR2	23	14	TOASTER	1472	n/a	n/a	0	0	0
2912.8818359375	n/a	WORD	5965582	wordpools/wasnorm_wordpool_576.txt	LTP339	ltpFR2	23	14	RELISH	1183	n/a	n/a	0	0	0
2915.62890625	n/a	WORD	5971208	wordpools/wasnorm_wordpool_576.txt	LTP339	ltpFR2	23	14	FROG	608	n/a	n/a	0	0	0
2918.22900390625	n/a	WORD	5976533	wordpools/wasnorm_wordpool_576.txt	LTP339	ltpFR2	23	14	CROWN	415	n/a	n/a	0	0	0
2920.84423828125	n/a	WORD	5981889	wordpools/wasnorm_wordpool_576.txt	LTP339	ltpFR2	23	14	SHIRT	1287	n/a	n/a	0	0	0
2923.5751953125	n/a	WORD	5987482	wordpools/wasnorm_wordpool_576.txt	LTP339	ltpFR2	23	14	BLOUSE	139	n/a	n/a	0	0	0
2926.27490234375	n/a	WORD	5993011	wordpools/wasnorm_wordpool_576.txt	LTP339	ltpFR2	23	14	EARRING	514	n/a	n/a	0	0	0
2928.89013671875	n/a	WORD	5998367	wordpools/wasnorm_wordpool_576.txt	LTP339	ltpFR2	23	14	EMPIRE	530	n/a	n/a	0	0	0
2931.6552734375	n/a	WORD	6004030	wordpools/wasnorm_wordpool_576.txt	LTP339	ltpFR2	23	14	CRAYON	401	n/a	n/a	0	0	0
2934.42138671875	n/a	WORD	6009695	wordpools/wasnorm_wordpool_576.txt	LTP339	ltpFR2	23	14	SKETCH	1315	n/a	n/a	0	0	0
2937.203125	n/a	WORD	6015392	wordpools/wasnorm_wordpool_576.txt	LTP339	ltpFR2	23	14	TRIGGER	1507	n/a	n/a	0	0	0
2938.8193359375	n/a	START	6018702	n/a	LTP339	ltpFR2	23	n/a	n/a	n/a	22	n/a	n/a	n/a	n/a
2939.7890625	n/a	DISTRACTOR	6020688	n/a	LTP339	ltpFR2	23	14	n/a	n/a	n/a	n/a	0	0	0
2939.80224609375	n/a	PROB	6020715	n/a	LTP339	ltpFR2	23	n/a	n/a	n/a	22	17	5	4	8
2942.71630859375	n/a	PROB	6026683	n/a	LTP339	ltpFR2	23	n/a	n/a	n/a	22	16	4	9	3
2945.21533203125	n/a	PROB	6031801	n/a	LTP339	ltpFR2	23	n/a	n/a	n/a	22	18	2	7	9
2948.4140625	n/a	PROB	6038352	n/a	LTP339	ltpFR2	23	n/a	n/a	n/a	22	181	8	7	3
2949.79736328125	n/a	PROB	6041185	n/a	LTP339	ltpFR2	23	n/a	n/a	n/a	22	15	4	7	4
2953.1953125	n/a	PROB	6048144	n/a	LTP339	ltpFR2	23	n/a	n/a	n/a	22	13	5	5	3
2954.361328125	n/a	PROB	6050532	n/a	LTP339	ltpFR2	23	n/a	n/a	n/a	22	20	6	7	7
2955.609375	n/a	PROB	6053088	n/a	LTP339	ltpFR2	23	n/a	n/a	n/a	22	19	5	9	5
2956.67529296875	n/a	PROB	6055271	n/a	LTP339	ltpFR2	23	n/a	n/a	n/a	22	16	3	9	4
2958.64111328125	n/a	PROB	6059297	n/a	LTP339	ltpFR2	23	n/a	n/a	n/a	22	17	3	8	6
2960.97412109375	n/a	PROB	6064075	n/a	LTP339	ltpFR2	23	n/a	n/a	n/a	22	11	2	8	1
2962.5712890625	n/a	STOP	6067346	n/a	LTP339	ltpFR2	23	n/a	n/a	n/a	22	n/a	n/a	n/a	n/a
2964.62255859375	n/a	REC_START	6071547	n/a	LTP339	ltpFR2	23	14	n/a	n/a	n/a	n/a	0	0	0
2964.84716796875	n/a	REC_WORD	6072007	wordpools/wasnorm_wordpool_576.txt	LTP339	ltpFR2	23	14	SAND	1230	n/a	n/a	0	0	0
2965.560546875	n/a	REC_WORD	6073468	wordpools/wasnorm_wordpool_576.txt	LTP339	ltpFR2	23	14	EUROPE	541	n/a	n/a	0	0	0
2966.25146484375	n/a	REC_WORD	6074883	wordpools/wasnorm_wordpool_576.txt	LTP339	ltpFR2	23	14	CRADLE	399	n/a	n/a	0	0	0
2966.96435546875	n/a	REC_WORD	6076343	wordpools/wasnorm_wordpool_576.txt	LTP339	ltpFR2	23	14	MUSTARD	935	n/a	n/a	0	0	0
2967.66943359375	n/a	REC_WORD	6077787	wordpools/wasnorm_wordpool_576.txt	LTP339	ltpFR2	23	14	MASSAGE	-1	n/a	n/a	0	0	0
3055.11181640625	n/a	WORD	6256869	wordpools/wasnorm_wordpool_576.txt	LTP339	ltpFR2	23	15	WIDOW	1608	n/a	n/a	0	0	0
3057.8271484375	n/a	WORD	6262430	wordpools/wasnorm_wordpool_576.txt	LTP339	ltpFR2	23	15	GLASSES	640	n/a	n/a	0	0	0
3060.4091796875	n/a	WORD	6267718	wordpools/wasnorm_wordpool_576.txt	LTP339	ltpFR2	23	15	BOXER	160	n/a	n/a	0	0	0
3063.0751953125	n/a	WORD	6273178	wordpools/wasnorm_wordpool_576.txt	LTP339	ltpFR2	23	15	MESSAGE	888	n/a	n/a	0	0	0
3065.83984375	n/a	WORD	6278840	wordpools/wasnorm_wordpool_576.txt	LTP339	ltpFR2	23	15	QUAIL	1147	n/a	n/a	0	0	0
3068.4892578125	n/a	WORD	6284266	wordpools/wasnorm_wordpool_576.txt	LTP339	ltpFR2	23	15	RESORT	1186	n/a	n/a	0	0	0
3071.2373046875	n/a	WORD	6289894	wordpools/wasnorm_wordpool_576.txt	LTP339	ltpFR2	23	15	ORANGE	980	n/a	n/a	0	0	0
3073.9189453125	n/a	WORD	6295386	wordpools/wasnorm_wordpool_576.txt	LTP339	ltpFR2	23	15	DRUG	501	n/a	n/a	0	0	0
3076.4853515625	n/a	WORD	6300642	wordpools/wasnorm_wordpool_576.txt	LTP339	ltpFR2	23	15	TABLET	1427	n/a	n/a	0	0	0
3079.25	n/a	WORD	6306304	wordpools/wasnorm_wordpool_576.txt	LTP339	ltpFR2	23	15	FEAST	556	n/a	n/a	0	0	0
3081.89892578125	n/a	WORD	6311729	wordpools/wasnorm_wordpool_576.txt	LTP339	ltpFR2	23	15	COLESLAW	344	n/a	n/a	0	0	0
3084.6630859375	n/a	WORD	6317390	wordpools/wasnorm_wordpool_576.txt	LTP339	ltpFR2	23	15	BOX	159	n/a	n/a	0	0	0
3087.42919921875	n/a	WORD	6323055	wordpools/wasnorm_wordpool_576.txt	LTP339	ltpFR2	23	15	SUMMIT	1405	n/a	n/a	0	0	0
3089.96142578125	n/a	WORD	6328241	wordpools/wasnorm_wordpool_576.txt	LTP339	ltpFR2	23	15	SHELF	1280	n/a	n/a	0	0	0
3092.72607421875	n/a	WORD	6333903	wordpools/wasnorm_wordpool_576.txt	LTP339	ltpFR2	23	15	DOCK	477	n/a	n/a	0	0	0
3095.4921875	n/a	WORD	6339568	wordpools/wasnorm_wordpool_576.txt	LTP339	ltpFR2	23	15	FIREMAN	569	n/a	n/a	0	0	0
3098.1240234375	n/a	WORD	6344958	wordpools/wasnorm_wordpool_576.txt	LTP339	ltpFR2	23	15	FRUIT	610	n/a	n/a	0	0	0
3100.83935546875	n/a	WORD	6350519	wordpools/wasnorm_wordpool_576.txt	LTP339	ltpFR2	23	15	CROOK	412	n/a	n/a	0	0	0
3103.58740234375	n/a	WORD	6356147	wordpools/wasnorm_wordpool_576.txt	LTP339	ltpFR2	23	15	MONEY	908	n/a	n/a	0	0	0
3106.38623046875	n/a	WORD	6361879	wordpools/wasnorm_wordpool_576.txt	LTP339	ltpFR2	23	15	DIME	466	n/a	n/a	0	0	0
3109.16845703125	n/a	WORD	6367577	wordpools/wasnorm_wordpool_576.txt	LTP339	ltpFR2	23	15	TOOTHPASTE	1483	n/a	n/a	0	0	0
3111.984375	n/a	WORD	6373344	wordpools/wasnorm_wordpool_576.txt	LTP339	ltpFR2	23	15	STAMP	1370	n/a	n/a	0	0	0
3114.6484375	n/a	WORD	6378800	wordpools/wasnorm_wordpool_576.txt	LTP339	ltpFR2	23	15	AGENT	10	n/a	n/a	0	0	0
3117.21435546875	n/a	WORD	6384055	wordpools/wasnorm_wordpool_576.txt	LTP339	ltpFR2	23	15	GRAVE	658	n/a	n/a	0	0	0
3118.83154296875	n/a	START	6387367	n/a	LTP339	ltpFR2	23	n/a	n/a	n/a	23	n/a	n/a	n/a	n/a
3119.6513671875	n/a	DISTRACTOR	6389046	n/a	LTP339	ltpFR2	23	15	n/a	n/a	n/a	n/a	0	0	0
3119.66259765625	n/a	PROB	6389069	n/a	LTP339	ltpFR2	23	n/a	n/a	n/a	23	14	8	2	4
3121.29638671875	n/a	PROB	6392415	n/a	LTP339	ltpFR2	23	n/a	n/a	n/a	23	16	1	9	6
3122.8125	n/a	PROB	6395520	n/a	LTP339	ltpFR2	23	n/a	n/a	n/a	23	17	3	8	4
3126.310546875	n/a	PROB	6402684	n/a	LTP339	ltpFR2	23	n/a	n/a	n/a	23	19	9	7	3
3127.8095703125	n/a	PROB	6405754	n/a	LTP339	ltpFR2	23	n/a	n/a	n/a	23	22	6	8	8
3129.42529296875	n/a	PROB	6409063	n/a	LTP339	ltpFR2	23	n/a	n/a	n/a	23	10	1	8	1
3130.5732421875	n/a	PROB	6411414	n/a	LTP339	ltpFR2	23	n/a	n/a	n/a	23	13	2	2	9
3132.40771484375	n/a	PROB	6415171	n/a	LTP339	ltpFR2	23	n/a	n/a	n/a	23	23	8	7	8
3135.22265625	n/a	PROB	6420936	n/a	LTP339	ltpFR2	23	n/a	n/a	n/a	23	7	2	3	2
3137.78759765625	n/a	PROB	6426189	n/a	LTP339	ltpFR2	23	n/a	n/a	n/a	23	21	7	9	4
3139.9365234375	n/a	PROB	6430590	n/a	LTP339	ltpFR2	23	n/a	n/a	n/a	23	2	8	8	7
3141.78955078125	n/a	STOP	6434385	n/a	LTP339	ltpFR2	23	n/a	n/a	n/a	23	n/a	n/a	n/a	n/a
3144.61767578125	n/a	REC_START	6440177	n/a	LTP339	ltpFR2	23	15	n/a	n/a	n/a	n/a	0	0	0
3144.8603515625	n/a	REC_WORD	6440674	wordpools/wasnorm_wordpool_576.txt	LTP339	ltpFR2	23	15	WIDOW	1608	n/a	n/a	0	0	0
3145.478515625	n/a	REC_WORD	6441940	wordpools/wasnorm_wordpool_576.txt	LTP339	ltpFR2	23	15	GLASSES	640	n/a	n/a	0	0	0
3146.24365234375	n/a	REC_WORD	6443507	wordpools/wasnorm_wordpool_576.txt	LTP339	ltpFR2	23	15	BOXER	160	n/a	n/a	0	0	0
3146.9296875	n/a	REC_WORD	6444912	wordpools/wasnorm_wordpool_576.txt	LTP339	ltpFR2	23	15	QUAIL	1147	n/a	n/a	0	0	0
3147.50537109375	n/a	REC_WORD	6446091	wordpools/wasnorm_wordpool_576.txt	LTP339	ltpFR2	23	15	RESORT	1186	n/a	n/a	0	0	0
3154.2548828125	n/a	REC_WORD	6459914	wordpools/wasnorm_wordpool_576.txt	LTP339	ltpFR2	23	15	TOOTHPASTE	1483	n/a	n/a	0	0	0
3235.07421875	n/a	WORD	6625432	wordpools/wasnorm_wordpool_576.txt	LTP339	ltpFR2	23	16	CLAMP	316	n/a	n/a	0	0	0
3237.75537109375	n/a	WORD	6630923	wordpools/wasnorm_wordpool_576.txt	LTP339	ltpFR2	23	16	MISTER	901	n/a	n/a	0	0	0
3240.43798828125	n/a	WORD	6636417	wordpools/wasnorm_wordpool_576.txt	LTP339	ltpFR2	23	16	WASP	1593	n/a	n/a	0	0	0
3243.26904296875	n/a	WORD	6642215	wordpools/wasnorm_wordpool_576.txt	LTP339	ltpFR2	23	16	NEPTUNE	943	n/a	n/a	0	0	0
3245.71728515625	n/a	WORD	6647229	wordpools/wasnorm_wordpool_576.txt	LTP339	ltpFR2	23	16	GODDESS	646	n/a	n/a	0	0	0
3248.4501953125	n/a	WORD	6652826	wordpools/wasnorm_wordpool_576.txt	LTP339	ltpFR2	23	16	CRYSTAL	418	n/a	n/a	0	0	0
3251.01611328125	n/a	WORD	6658081	wordpools/wasnorm_wordpool_576.txt	LTP339	ltpFR2	23	16	THIMBLE	1458	n/a	n/a	0	0	0
3253.63037109375	n/a	WORD	6663435	wordpools/wasnorm_wordpool_576.txt	LTP339	ltpFR2	23	16	SWIMMER	1420	n/a	n/a	0	0	0
3256.16357421875	n/a	WORD	6668623	wordpools/wasnorm_wordpool_576.txt	LTP339	ltpFR2	23	16	SINK	1309	n/a	n/a	0	0	0
3258.92822265625	n/a	WORD	6674285	wordpools/wasnorm_wordpool_576.txt	LTP339	ltpFR2	23	16	FAUCET	555	n/a	n/a	0	0	0
3261.5263671875	n/a	WORD	6679606	wordpools/wasnorm_wordpool_576.txt	LTP339	ltpFR2	23	16	PICKLE	1059	n/a	n/a	0	0	0
3264.09228515625	n/a	WORD	6684861	wordpools/wasnorm_wordpool_576.txt	LTP339	ltpFR2	23	16	ARMY	39	n/a	n/a	0	0	0
3266.7236328125	n/a	WORD	6690250	wordpools/wasnorm_wordpool_576.txt	LTP339	ltpFR2	23	16	SCULPTURE	1258	n/a	n/a	0	0	0
3269.3232421875	n/a	WORD	6695574	wordpools/wasnorm_wordpool_576.txt	LTP339	ltpFR2	23	16	QUILT	1151	n/a	n/a	0	0	0
3271.92236328125	n/a	WORD	6700897	wordpools/wasnorm_wordpool_576.txt	LTP339	ltpFR2	23	16	JOKER	759	n/a	n/a	0	0	0
3274.75439453125	n/a	WORD	6706697	wordpools/wasnorm_wordpool_576.txt	LTP339	ltpFR2	23	16	HEEL	700	n/a	n/a	0	0	0
3277.36962890625	n/a	WORD	6712053	wordpools/wasnorm_wordpool_576.txt	LTP339	ltpFR2	23	16	SHOELACE	1289	n/a	n/a	0	0	0
3279.8515625	n/a	WORD	6717136	wordpools/wasnorm_wordpool_576.txt	LTP339	ltpFR2	23	16	VAMPIRE	1547	n/a	n/a	0	0	0
3282.53271484375	n/a	WORD	6722627	wordpools/wasnorm_wordpool_576.txt	LTP339	ltpFR2	23	16	PLAQUE	1084	n/a	n/a	0	0	0
3285.19970703125	n/a	WORD	6728089	wordpools/wasnorm_wordpool_576.txt	LTP339	ltpFR2	23	16	FINGER	567	n/a	n/a	0	0	0
3287.86474609375	n/a	WORD	6733547	wordpools/wasnorm_wordpool_576.txt	LTP339	ltpFR2	23	16	LOBSTER	837	n/a	n/a	0	0	0
3290.36376953125	n/a	WORD	6738665	wordpools/wasnorm_wordpool_576.txt	LTP339	ltpFR2	23	16	HEDGE	699	n/a	n/a	0	0	0
3292.8955078125	n/a	WORD	6743850	wordpools/wasnorm_wordpool_576.txt	LTP339	ltpFR2	23	16	TEAPOT	1442	n/a	n/a	0	0	0
3295.65966796875	n/a	WORD	6749511	wordpools/wasnorm_wordpool_576.txt	LTP339	ltpFR2	23	16	SHRIMP	1297	n/a	n/a	0	0	0
3297.2763671875	n/a	START	6752822	n/a	LTP339	ltpFR2	23	n/a	n/a	n/a	24	n/a	n/a	n/a	n/a
3298.23583984375	n/a	DISTRACTOR	6754787	n/a	LTP339	ltpFR2	23	16	n/a	n/a	n/a	n/a	0	0	0
3298.24267578125	n/a	PROB	6754801	n/a	LTP339	ltpFR2	23	n/a	n/a	n/a	24	17	8	1	8
3299.775390625	n/a	PROB	6757940	n/a	LTP339	ltpFR2	23	n/a	n/a	n/a	24	12	9	2	1
3301.73974609375	n/a	PROB	6761963	n/a	LTP339	ltpFR2	23	n/a	n/a	n/a	24	14	2	6	6
3303.1064453125	n/a	PROB	6764762	n/a	LTP339	ltpFR2	23	n/a	n/a	n/a	24	14	3	8	3
3304.9228515625	n/a	PROB	6768482	n/a	LTP339	ltpFR2	23	n/a	n/a	n/a	24	12	1	8	3
3307.921875	n/a	PROB	6774624	n/a	LTP339	ltpFR2	23	n/a	n/a	n/a	24	21	9	7	5
3309.7705078125	n/a	PROB	6778410	n/a	LTP339	ltpFR2	23	n/a	n/a	n/a	24	16	6	2	8
3311.23681640625	n/a	PROB	6781413	n/a	LTP339	ltpFR2	23	n/a	n/a	n/a	24	15	9	1	5
3312.5517578125	n/a	PROB	6784106	n/a	LTP339	ltpFR2	23	n/a	n/a	n/a	24	23	5	9	9
3314.03466796875	n/a	PROB	6787143	n/a	LTP339	ltpFR2	23	n/a	n/a	n/a	24	23	5	9	9
3315.134765625	n/a	PROB	6789396	n/a	LTP339	ltpFR2	23	n/a	n/a	n/a	24	10	6	3	1
3316.41650390625	n/a	PROB	6792021	n/a	LTP339	ltpFR2	23	n/a	n/a	n/a	24	16	7	6	3
3318.41552734375	n/a	PROB	6796115	n/a	LTP339	ltpFR2	23	n/a	n/a	n/a	24	21	8	5	8
3319.806640625	n/a	STOP	6798964	n/a	LTP339	ltpFR2	23	n/a	n/a	n/a	24	n/a	n/a	n/a	n/a
3323.1806640625	n/a	REC_START	6805874	n/a	LTP339	ltpFR2	23	16	n/a	n/a	n/a	n/a	0	0	0
3323.5947265625	n/a	REC_WORD	6806722	wordpools/wasnorm_wordpool_576.txt	LTP339	ltpFR2	23	16	CLAMP	316	n/a	n/a	0	0	0
3324.2958984375	n/a	REC_WORD	6808158	wordpools/wasnorm_wordpool_576.txt	LTP339	ltpFR2	23	16	MISTER	901	n/a	n/a	0	0	0
3325.07373046875	n/a	REC_WORD	6809751	wordpools/wasnorm_wordpool_576.txt	LTP339	ltpFR2	23	16	WASP	1593	n/a	n/a	0	0	0
3325.81494140625	n/a	REC_WORD	6811269	wordpools/wasnorm_wordpool_576.txt	LTP339	ltpFR2	23	16	NEPTUNE	943	n/a	n/a	0	0	0
3326.81201171875	n/a	REC_WORD	6813311	wordpools/wasnorm_wordpool_576.txt	LTP339	ltpFR2	23	16	GODDESS	646	n/a	n/a	0	0	0
3327.6416015625	n/a	REC_WORD	6815010	wordpools/wasnorm_wordpool_576.txt	LTP339	ltpFR2	23	16	ARMY	39	n/a	n/a	0	0	0
3334.78564453125	n/a	REC_WORD	6829641	wordpools/wasnorm_wordpool_576.txt	LTP339	ltpFR2	23	16	FINGER	567	n/a	n/a	0	0	0
3399.72509765625	n/a	REST_REWET	6962637	n/a	LTP339	ltpFR2	23	16	n/a	n/a	n/a	n/a	0	0	0
3484.23486328125	n/a	DISTRACTOR	7135713	n/a	LTP339	ltpFR2	23	17	n/a	n/a	n/a	n/a	0	0	0
3484.23486328125	n/a	START	7135713	n/a	LTP339	ltpFR2	23	n/a	n/a	n/a	25	n/a	n/a	n/a	n/a
3484.251953125	n/a	PROB	7135748	n/a	LTP339	ltpFR2	23	n/a	n/a	n/a	25	12	5	3	4
3487.333984375	n/a	PROB	7142060	n/a	LTP339	ltpFR2	23	n/a	n/a	n/a	25	4	2	1	1
3488.78271484375	n/a	PROB	7145027	n/a	LTP339	ltpFR2	23	n/a	n/a	n/a	25	17	9	1	7
3491.34814453125	n/a	PROB	7150281	n/a	LTP339	ltpFR2	23	n/a	n/a	n/a	25	17	6	6	5
3493.94677734375	n/a	PROB	7155603	n/a	LTP339	ltpFR2	23	n/a	n/a	n/a	25	10	1	8	1
3494.99609375	n/a	PROB	7157752	n/a	LTP339	ltpFR2	23	n/a	n/a	n/a	25	11	6	4	1
3495.9287109375	n/a	PROB	7159662	n/a	LTP339	ltpFR2	23	n/a	n/a	n/a	25	14	2	3	9
3497.4951171875	n/a	PROB	7162870	n/a	LTP339	ltpFR2	23	n/a	n/a	n/a	25	8	3	4	1
3498.6767578125	n/a	PROB	7165290	n/a	LTP339	ltpFR2	23	n/a	n/a	n/a	25	14	1	7	6
3500.244140625	n/a	PROB	7168500	n/a	LTP339	ltpFR2	23	n/a	n/a	n/a	25	17	5	9	3
3502.10986328125	n/a	PROB	7172321	n/a	LTP339	ltpFR2	23	n/a	n/a	n/a	25	12	1	7	4
3503.5908203125	n/a	PROB	7175354	n/a	LTP339	ltpFR2	23	n/a	n/a	n/a	25	21	4	8	9
3505.47509765625	n/a	PROB	7179213	n/a	LTP339	ltpFR2	23	n/a	n/a	n/a	25	8	5	3	1
3506.787109375	n/a	STOP	7181900	n/a	LTP339	ltpFR2	23	n/a	n/a	n/a	25	n/a	n/a	n/a	n/a
3509.3388671875	n/a	WORD	7187126	wordpools/wasnorm_wordpool_576.txt	LTP339	ltpFR2	23	17	PRINCESS	1125	n/a	n/a	0	0	0
3511.87109375	n/a	WORD	7192312	wordpools/wasnorm_wordpool_576.txt	LTP339	ltpFR2	23	17	THIEF	1456	n/a	n/a	0	0	0
3514.56884765625	n/a	WORD	7197837	wordpools/wasnorm_wordpool_576.txt	LTP339	ltpFR2	23	17	SWATTER	1418	n/a	n/a	0	0	0
3517.0361328125	n/a	WORD	7202890	wordpools/wasnorm_wordpool_576.txt	LTP339	ltpFR2	23	17	FEATHER	557	n/a	n/a	0	0	0
3519.6669921875	n/a	WORD	7208278	wordpools/wasnorm_wordpool_576.txt	LTP339	ltpFR2	23	17	TIMBER	1469	n/a	n/a	0	0	0
3522.23291015625	n/a	WORD	7213533	wordpools/wasnorm_wordpool_576.txt	LTP339	ltpFR2	23	17	LETTER	813	n/a	n/a	0	0	0
3524.84814453125	n/a	WORD	7218889	wordpools/wasnorm_wordpool_576.txt	LTP339	ltpFR2	23	17	ARTIST	43	n/a	n/a	0	0	0
3527.447265625	n/a	WORD	7224212	wordpools/wasnorm_wordpool_576.txt	LTP339	ltpFR2	23	17	PAINTING	1005	n/a	n/a	0	0	0
3530.1123046875	n/a	WORD	7229670	wordpools/wasnorm_wordpool_576.txt	LTP339	ltpFR2	23	17	LOVER	846	n/a	n/a	0	0	0
3532.72705078125	n/a	WORD	7235025	wordpools/wasnorm_wordpool_576.txt	LTP339	ltpFR2	23	17	LIST	830	n/a	n/a	0	0	0
3535.34326171875	n/a	WORD	7240383	wordpools/wasnorm_wordpool_576.txt	LTP339	ltpFR2	23	17	CATTLE	261	n/a	n/a	0	0	0
3537.9580078125	n/a	WORD	7245738	wordpools/wasnorm_wordpool_576.txt	LTP339	ltpFR2	23	17	HOOK	715	n/a	n/a	0	0	0
3540.42431640625	n/a	WORD	7250789	wordpools/wasnorm_wordpool_576.txt	LTP339	ltpFR2	23	17	CHEST	295	n/a	n/a	0	0	0
3542.9560546875	n/a	WORD	7255974	wordpools/wasnorm_wordpool_576.txt	LTP339	ltpFR2	23	17	ORGAN	984	n/a	n/a	0	0	0
3545.5703125	n/a	WORD	7261328	wordpools/wasnorm_wordpool_576.txt	LTP339	ltpFR2	23	17	LEAF	808	n/a	n/a	0	0	0
3548.08740234375	n/a	WORD	7266483	wordpools/wasnorm_wordpool_576.txt	LTP339	ltpFR2	23	17	PRAIRIE	1118	n/a	n/a	0	0	0
3550.91943359375	n/a	WORD	7272283	wordpools/wasnorm_wordpool_576.txt	LTP339	ltpFR2	23	17	SPINACH	1352	n/a	n/a	0	0	0
3553.51611328125	n/a	WORD	7277601	wordpools/wasnorm_wordpool_576.txt	LTP339	ltpFR2	23	17	GLOVE	642	n/a	n/a	0	0	0
3556.1162109375	n/a	WORD	7282926	wordpools/wasnorm_wordpool_576.txt	LTP339	ltpFR2	23	17	MARBLE	867	n/a	n/a	0	0	0
3558.697265625	n/a	WORD	7288212	wordpools/wasnorm_wordpool_576.txt	LTP339	ltpFR2	23	17	SOFA	1342	n/a	n/a	0	0	0
3561.34716796875	n/a	WORD	7293639	wordpools/wasnorm_wordpool_576.txt	LTP339	ltpFR2	23	17	BASKET	95	n/a	n/a	0	0	0
3564.029296875	n/a	WORD	7299132	wordpools/wasnorm_wordpool_576.txt	LTP339	ltpFR2	23	17	KEYBOARD	774	n/a	n/a	0	0	0
3566.7265625	n/a	WORD	7304656	wordpools/wasnorm_wordpool_576.txt	LTP339	ltpFR2	23	17	HEART	697	n/a	n/a	0	0	0
3569.17626953125	n/a	WORD	7309673	wordpools/wasnorm_wordpool_576.txt	LTP339	ltpFR2	23	17	FIST	572	n/a	n/a	0	0	0
3570.79248046875	n/a	START	7312983	n/a	LTP339	ltpFR2	23	n/a	n/a	n/a	26	n/a	n/a	n/a	n/a
3571.9794921875	n/a	DISTRACTOR	7315414	n/a	LTP339	ltpFR2	23	17	n/a	n/a	n/a	n/a	0	0	0
3571.99169921875	n/a	PROB	7315439	n/a	LTP339	ltpFR2	23	n/a	n/a	n/a	26	11	3	3	5
3574.890625	n/a	PROB	7321376	n/a	LTP339	ltpFR2	23	n/a	n/a	n/a	26	18	5	4	9
3576.2236328125	n/a	PROB	7324106	n/a	LTP339	ltpFR2	23	n/a	n/a	n/a	26	14	2	8	4
3578.62158203125	n/a	PROB	7329017	n/a	LTP339	ltpFR2	23	n/a	n/a	n/a	26	17	6	3	8
3580.17138671875	n/a	PROB	7332191	n/a	LTP339	ltpFR2	23	n/a	n/a	n/a	26	10	3	4	3
3581.853515625	n/a	PROB	7335636	n/a	LTP339	ltpFR2	23	n/a	n/a	n/a	26	23	9	8	5
3583.78662109375	n/a	PROB	7339595	n/a	LTP339	ltpFR2	23	n/a	n/a	n/a	26	14	3	2	9
3586.068359375	n/a	PROB	7344268	n/a	LTP339	ltpFR2	23	n/a	n/a	n/a	26	13	3	8	2
3587.384765625	n/a	PROB	7346964	n/a	LTP339	ltpFR2	23	n/a	n/a	n/a	26	20	9	4	7
3589.849609375	n/a	PROB	7352012	n/a	LTP339	ltpFR2	23	n/a	n/a	n/a	26	7	1	3	3
3591.99853515625	n/a	PROB	7356413	n/a	LTP339	ltpFR2	23	n/a	n/a	n/a	26	12	1	3	8
3593.6796875	n/a	STOP	7359856	n/a	LTP339	ltpFR2	23	n/a	n/a	n/a	26	n/a	n/a	n/a	n/a
3596.69677734375	n/a	REC_START	7366035	n/a	LTP339	ltpFR2	23	17	n/a	n/a	n/a	n/a	0	0	0
3596.94287109375	n/a	REC_WORD	7366539	wordpools/wasnorm_wordpool_576.txt	LTP339	ltpFR2	23	17	PRINCESS	1125	n/a	n/a	0	0	0
3597.66943359375	n/a	REC_WORD	7368027	wordpools/wasnorm_wordpool_576.txt	LTP339	ltpFR2	23	17	THIEF	1456	n/a	n/a	0	0	0
3598.29150390625	n/a	REC_WORD	7369301	wordpools/wasnorm_wordpool_576.txt	LTP339	ltpFR2	23	17	SWATTER	1418	n/a	n/a	0	0	0
3599.08056640625	n/a	REC_WORD	7370917	wordpools/wasnorm_wordpool_576.txt	LTP339	ltpFR2	23	17	FEATHER	557	n/a	n/a	0	0	0
3599.91357421875	n/a	REC_WORD	7372623	wordpools/wasnorm_wordpool_576.txt	LTP339	ltpFR2	23	17	TIMBER	1469	n/a	n/a	0	0	0
3603.9638671875	n/a	REC_WORD	7380918	wordpools/wasnorm_wordpool_576.txt	LTP339	ltpFR2	23	17	MARBLE	867	n/a	n/a	0	0	0
3687.15234375	n/a	DISTRACTOR	7551288	n/a	LTP339	ltpFR2	23	18	n/a	n/a	n/a	n/a	0	0	0
3687.15234375	n/a	START	7551288	n/a	LTP339	ltpFR2	23	n/a	n/a	n/a	27	n/a	n/a	n/a	n/a
3687.16943359375	n/a	PROB	7551323	n/a	LTP339	ltpFR2	23	n/a	n/a	n/a	27	20	8	4	8
3688.6171875	n/a	PROB	7554288	n/a	LTP339	ltpFR2	23	n/a	n/a	n/a	27	10	2	1	7
3689.76708984375	n/a	PROB	7556643	n/a	LTP339	ltpFR2	23	n/a	n/a	n/a	27	12	1	4	7
3691.900390625	n/a	PROB	7561012	n/a	LTP339	ltpFR2	23	n/a	n/a	n/a	27	16	9	6	1
3694.54736328125	n/a	PROB	7566433	n/a	LTP339	ltpFR2	23	n/a	n/a	n/a	27	17	7	2	8
3696.08154296875	n/a	PROB	7569575	n/a	LTP339	ltpFR2	23	n/a	n/a	n/a	27	19	9	1	9
3697.314453125	n/a	PROB	7572100	n/a	LTP339	ltpFR2	23	n/a	n/a	n/a	27	14	8	3	3
3699.146484375	n/a	PROB	7575852	n/a	LTP339	ltpFR2	23	n/a	n/a	n/a	27	25	9	7	9
3701.412109375	n/a	PROB	7580492	n/a	LTP339	ltpFR2	23	n/a	n/a	n/a	27	19	2	8	9
3703.09423828125	n/a	PROB	7583937	n/a	LTP339	ltpFR2	23	n/a	n/a	n/a	27	12	2	3	7
3704.84326171875	n/a	PROB	7587519	n/a	LTP339	ltpFR2	23	n/a	n/a	n/a	27	24	9	9	6
3706.34228515625	n/a	PROB	7590589	n/a	LTP339	ltpFR2	23	n/a	n/a	n/a	27	12	6	5	1
3707.54150390625	n/a	PROB	7593045	n/a	LTP339	ltpFR2	23	n/a	n/a	n/a	27	12	5	2	5
3708.79150390625	n/a	PROB	7595605	n/a	LTP339	ltpFR2	23	n/a	n/a	n/a	27	13	1	9	3
3710.0732421875	n/a	STOP	7598230	n/a	LTP339	ltpFR2	23	n/a	n/a	n/a	27	n/a	n/a	n/a	n/a
3712.3564453125	n/a	WORD	7602906	wordpools/wasnorm_wordpool_576.txt	LTP339	ltpFR2	23	18	CREATURE	403	n/a	n/a	0	0	0
3715.08837890625	n/a	WORD	7608501	wordpools/wasnorm_wordpool_576.txt	LTP339	ltpFR2	23	18	POISON	1096	n/a	n/a	0	0	0
3717.736328125	n/a	WORD	7613924	wordpools/wasnorm_wordpool_576.txt	LTP339	ltpFR2	23	18	COBRA	336	n/a	n/a	0	0	0
3720.26953125	n/a	WORD	7619112	wordpools/wasnorm_wordpool_576.txt	LTP339	ltpFR2	23	18	CLOTHES	327	n/a	n/a	0	0	0
3723.0185546875	n/a	WORD	7624742	wordpools/wasnorm_wordpool_576.txt	LTP339	ltpFR2	23	18	PONY	1102	n/a	n/a	0	0	0
3725.69970703125	n/a	WORD	7630233	wordpools/wasnorm_wordpool_576.txt	LTP339	ltpFR2	23	18	TRACTOR	1493	n/a	n/a	0	0	0
3728.4326171875	n/a	WORD	7635830	wordpools/wasnorm_wordpool_576.txt	LTP339	ltpFR2	23	18	IDOL	733	n/a	n/a	0	0	0
3730.98046875	n/a	WORD	7641048	wordpools/wasnorm_wordpool_576.txt	LTP339	ltpFR2	23	18	ATHLETE	52	n/a	n/a	0	0	0
3733.66162109375	n/a	WORD	7646539	wordpools/wasnorm_wordpool_576.txt	LTP339	ltpFR2	23	18	BISON	131	n/a	n/a	0	0	0
3736.11181640625	n/a	WORD	7651557	wordpools/wasnorm_wordpool_576.txt	LTP339	ltpFR2	23	18	POND	1101	n/a	n/a	0	0	0
3738.91064453125	n/a	WORD	7657289	wordpools/wasnorm_wordpool_576.txt	LTP339	ltpFR2	23	18	GAUZE	626	n/a	n/a	0	0	0
3741.6416015625	n/a	WORD	7662882	wordpools/wasnorm_wordpool_576.txt	LTP339	ltpFR2	23	18	WAITRESS	1581	n/a	n/a	0	0	0
3744.390625	n/a	WORD	7668512	wordpools/wasnorm_wordpool_576.txt	LTP339	ltpFR2	23	18	SNACK	1331	n/a	n/a	0	0	0
3747.15673828125	n/a	WORD	7674177	wordpools/wasnorm_wordpool_576.txt	LTP339	ltpFR2	23	18	PICNIC	1060	n/a	n/a	0	0	0
3749.771484375	n/a	WORD	7679532	wordpools/wasnorm_wordpool_576.txt	LTP339	ltpFR2	23	18	CRAB	397	n/a	n/a	0	0	0
3752.20361328125	n/a	WORD	7684513	wordpools/wasnorm_wordpool_576.txt	LTP339	ltpFR2	23	18	STOCKING	1383	n/a	n/a	0	0	0
3754.73486328125	n/a	WORD	7689697	wordpools/wasnorm_wordpool_576.txt	LTP339	ltpFR2	23	18	BANQUET	86	n/a	n/a	0	0	0
3757.5498046875	n/a	WORD	7695462	wordpools/wasnorm_wordpool_576.txt	LTP339	ltpFR2	23	18	DONOR	485	n/a	n/a	0	0	0
3760.0166015625	n/a	WORD	7700514	wordpools/wasnorm_wordpool_576.txt	LTP339	ltpFR2	23	18	WOMAN	1620	n/a	n/a	0	0	0
3762.81494140625	n/a	WORD	7706245	wordpools/wasnorm_wordpool_576.txt	LTP339	ltpFR2	23	18	CHICKEN	297	n/a	n/a	0	0	0
3765.56298828125	n/a	WORD	7711873	wordpools/wasnorm_wordpool_576.txt	LTP339	ltpFR2	23	18	CASTLE	256	n/a	n/a	0	0	0
3768.2626953125	n/a	WORD	7717402	wordpools/wasnorm_wordpool_576.txt	LTP339	ltpFR2	23	18	COSTUME	383	n/a	n/a	0	0	0
3771.044921875	n/a	WORD	7723100	wordpools/wasnorm_wordpool_576.txt	LTP339	ltpFR2	23	18	TAXI	1438	n/a	n/a	0	0	0
3773.509765625	n/a	WORD	7728148	wordpools/wasnorm_wordpool_576.txt	LTP339	ltpFR2	23	18	JACKET	747	n/a	n/a	0	0	0
3775.1259765625	n/a	START	7731458	n/a	LTP339	ltpFR2	23	n/a	n/a	n/a	28	n/a	n/a	n/a	n/a
3776.2578125	n/a	DISTRACTOR	7733776	n/a	LTP339	ltpFR2	23	18	n/a	n/a	n/a	n/a	0	0	0
3776.27490234375	n/a	PROB	7733811	n/a	LTP339	ltpFR2	23	n/a	n/a	n/a	28	16	5	5	6
3777.65673828125	n/a	PROB	7736641	n/a	LTP339	ltpFR2	23	n/a	n/a	n/a	28	17	8	8	1
3780.3896484375	n/a	PROB	7742238	n/a	LTP339	ltpFR2	23	n/a	n/a	n/a	28	14	1	6	7
3783.62109375	n/a	PROB	7748856	n/a	LTP339	ltpFR2	23	n/a	n/a	n/a	28	11	5	1	5
3784.56982421875	n/a	PROB	7750799	n/a	LTP339	ltpFR2	23	n/a	n/a	n/a	28	13	4	3	6
3786.13671875	n/a	PROB	7754008	n/a	LTP339	ltpFR2	23	n/a	n/a	n/a	28	14	3	4	7
3787.953125	n/a	PROB	7757728	n/a	LTP339	ltpFR2	23	n/a	n/a	n/a	28	7	4	1	2
3790.26806640625	n/a	PROB	7762469	n/a	LTP339	ltpFR2	23	n/a	n/a	n/a	28	11	9	1	1
3791.31787109375	n/a	PROB	7764619	n/a	LTP339	ltpFR2	23	n/a	n/a	n/a	28	19	9	7	3
3792.51611328125	n/a	PROB	7767073	n/a	LTP339	ltpFR2	23	n/a	n/a	n/a	28	12	1	5	7
3794.2001953125	n/a	PROB	7770522	n/a	LTP339	ltpFR2	23	n/a	n/a	n/a	28	9	1	7	1
3799.1259765625	n/a	STOP	7780610	n/a	LTP339	ltpFR2	23	n/a	n/a	n/a	28	n/a	n/a	n/a	n/a
3801.06494140625	n/a	REC_START	7784581	n/a	LTP339	ltpFR2	23	18	n/a	n/a	n/a	n/a	0	0	0
3801.27978515625	n/a	REC_WORD	7785021	wordpools/wasnorm_wordpool_576.txt	LTP339	ltpFR2	23	18	CREATURE	403	n/a	n/a	0	0	0
3802.02099609375	n/a	REC_WORD	7786539	wordpools/wasnorm_wordpool_576.txt	LTP339	ltpFR2	23	18	COBRA	336	n/a	n/a	0	0	0
3802.77490234375	n/a	REC_WORD	7788083	wordpools/wasnorm_wordpool_576.txt	LTP339	ltpFR2	23	18	POISON	1096	n/a	n/a	0	0	0
3806.92919921875	n/a	REC_WORD	7796591	wordpools/wasnorm_wordpool_576.txt	LTP339	ltpFR2	23	18	CLOTHES	327	n/a	n/a	0	0	0
3807.69287109375	n/a	REC_WORD	7798155	wordpools/wasnorm_wordpool_576.txt	LTP339	ltpFR2	23	18	PONY	1102	n/a	n/a	0	0	0
3809.822265625	n/a	REC_WORD	7802516	wordpools/wasnorm_wordpool_576.txt	LTP339	ltpFR2	23	18	JACKET	747	n/a	n/a	0	0	0
3891.517578125	n/a	WORD	7969828	wordpools/wasnorm_wordpool_576.txt	LTP339	ltpFR2	23	19	PERMIT	1051	n/a	n/a	0	0	0
3894.15087890625	n/a	WORD	7975221	wordpools/wasnorm_wordpool_576.txt	LTP339	ltpFR2	23	19	LIZARD	834	n/a	n/a	0	0	0
3896.91552734375	n/a	WORD	7980883	wordpools/wasnorm_wordpool_576.txt	LTP339	ltpFR2	23	19	BATHROOM	99	n/a	n/a	0	0	0
3899.66357421875	n/a	WORD	7986511	wordpools/wasnorm_wordpool_576.txt	LTP339	ltpFR2	23	19	MONARCH	906	n/a	n/a	0	0	0
3902.36376953125	n/a	WORD	7992041	wordpools/wasnorm_wordpool_576.txt	LTP339	ltpFR2	23	19	MANSION	864	n/a	n/a	0	0	0
3905.0458984375	n/a	WORD	7997534	wordpools/wasnorm_wordpool_576.txt	LTP339	ltpFR2	23	19	OCEAN	970	n/a	n/a	0	0	0
3907.6435546875	n/a	WORD	8002854	wordpools/wasnorm_wordpool_576.txt	LTP339	ltpFR2	23	19	SICKLE	1302	n/a	n/a	0	0	0
