mstime	trial_type	stim_file	subject	experiment	session	trial	task	item_name	item_num	recog_conf	resp	color_b	color_g	color_r	case	font
0	SESS_START	n/a	LTP333	ltpFR	0	n/a	n/a	n/a	n/a	n/a	n/a	n/a	n/a	n/a	n/a	n/a
45179	WORD	wordpools/wasnorm_wordpool_less_exclusions.txt	LTP333	ltpFR	0	1	-1	BLUEBERRY	140	n/a	-1	1	1.0	1.0	upper	../fonts/Verdana.ttf
49327	WORD	wordpools/wasnorm_wordpool_less_exclusions.txt	LTP333	ltpFR	0	1	-1	FRUIT	610	n/a	-1	1	1.0	1.0	upper	../fonts/Verdana.ttf
53375	WORD	wordpools/wasnorm_wordpool_less_exclusions.txt	LTP333	ltpFR	0	1	-1	GOAT	644	n/a	-1	1	1.0	1.0	upper	../fonts/Verdana.ttf
57223	WORD	wordpools/wasnorm_wordpool_less_exclusions.txt	LTP333	ltpFR	0	1	-1	SCARECROW	1245	n/a	-1	1	1.0	1.0	upper	../fonts/Verdana.ttf
61421	WORD	wordpools/wasnorm_wordpool_less_exclusions.txt	LTP333	ltpFR	0	1	-1	STAPLE	1371	n/a	-1	1	1.0	1.0	upper	../fonts/Verdana.ttf
65270	WORD	wordpools/wasnorm_wordpool_less_exclusions.txt	LTP333	ltpFR	0	1	-1	UNIFORM	1539	n/a	-1	1	1.0	1.0	upper	../fonts/Verdana.ttf
69234	WORD	wordpools/wasnorm_wordpool_less_exclusions.txt	LTP333	ltpFR	0	1	-1	VALLEY	1545	n/a	-1	1	1.0	1.0	upper	../fonts/Verdana.ttf
73416	WORD	wordpools/wasnorm_wordpool_less_exclusions.txt	LTP333	ltpFR	0	1	-1	CHERRY	293	n/a	-1	1	1.0	1.0	upper	../fonts/Verdana.ttf
77614	WORD	wordpools/wasnorm_wordpool_less_exclusions.txt	LTP333	ltpFR	0	1	-1	CARTON	251	n/a	-1	1	1.0	1.0	upper	../fonts/Verdana.ttf
81812	WORD	wordpools/wasnorm_wordpool_less_exclusions.txt	LTP333	ltpFR	0	1	-1	WAREHOUSE	1588	n/a	-1	1	1.0	1.0	upper	../fonts/Verdana.ttf
85946	WORD	wordpools/wasnorm_wordpool_less_exclusions.txt	LTP333	ltpFR	0	1	-1	TOWEL	1489	n/a	-1	1	1.0	1.0	upper	../fonts/Verdana.ttf
90076	WORD	wordpools/wasnorm_wordpool_less_exclusions.txt	LTP333	ltpFR	0	1	-1	PEACH	1031	n/a	-1	1	1.0	1.0	upper	../fonts/Verdana.ttf
93925	WORD	wordpools/wasnorm_wordpool_less_exclusions.txt	LTP333	ltpFR	0	1	-1	FORT	595	n/a	-1	1	1.0	1.0	upper	../fonts/Verdana.ttf
97940	WORD	wordpools/wasnorm_wordpool_less_exclusions.txt	LTP333	ltpFR	0	1	-1	CONTAINER	366	n/a	-1	1	1.0	1.0	upper	../fonts/Verdana.ttf
102137	WORD	wordpools/wasnorm_wordpool_less_exclusions.txt	LTP333	ltpFR	0	1	-1	WASHCLOTH	1591	n/a	-1	1	1.0	1.0	upper	../fonts/Verdana.ttf
106186	WORD	wordpools/wasnorm_wordpool_less_exclusions.txt	LTP333	ltpFR	0	1	-1	PUDDLE	1140	n/a	-1	1	1.0	1.0	upper	../fonts/Verdana.ttf
112001	REC_START	n/a	LTP333	ltpFR	0	1	n/a	n/a	n/a	n/a	n/a	n/a	n/a	n/a	n/a	n/a
113283	REC_WORD	wordpools/wasnorm_wordpool_less_exclusions.txt	LTP333	ltpFR	0	1	-1	BLUEBERRY	140	n/a	-1	n/a	n/a	n/a	n/a	n/a
114506	REC_WORD	wordpools/wasnorm_wordpool_less_exclusions.txt	LTP333	ltpFR	0	1	-1	CHERRY	293	n/a	-1	n/a	n/a	n/a	n/a	n/a
115481	REC_WORD	wordpools/wasnorm_wordpool_less_exclusions.txt	LTP333	ltpFR	0	1	-1	FRUIT	610	n/a	-1	n/a	n/a	n/a	n/a	n/a
116818	REC_WORD	wordpools/wasnorm_wordpool_less_exclusions.txt	LTP333	ltpFR	0	1	-1	CONTAINER	366	n/a	-1	n/a	n/a	n/a	n/a	n/a
118447	REC_WORD	wordpools/wasnorm_wordpool_less_exclusions.txt	LTP333	ltpFR	0	1	-1	PUDDLE	1140	n/a	-1	n/a	n/a	n/a	n/a	n/a
119805	REC_WORD	wordpools/wasnorm_wordpool_less_exclusions.txt	LTP333	ltpFR	0	1	-1	UNIFORM	1539	n/a	-1	n/a	n/a	n/a	n/a	n/a
151720	REC_WORD	wordpools/wasnorm_wordpool_less_exclusions.txt	LTP333	ltpFR	0	1	n/a	VIEW	-1	n/a	n/a	n/a	n/a	n/a	n/a	n/a
183489	REC_WORD	wordpools/wasnorm_wordpool_less_exclusions.txt	LTP333	ltpFR	0	1	-1	GOAT	644	n/a	-1	n/a	n/a	n/a	n/a	n/a
198626	WORD	wordpools/wasnorm_wordpool_less_exclusions.txt	LTP333	ltpFR	0	2	-1	COMMUNITY	356	n/a	-1	1	1.0	1.0	upper	../fonts/Verdana.ttf
202674	WORD	wordpools/wasnorm_wordpool_less_exclusions.txt	LTP333	ltpFR	0	2	-1	SUPERMARKET	1409	n/a	-1	1	1.0	1.0	upper	../fonts/Verdana.ttf
206623	WORD	wordpools/wasnorm_wordpool_less_exclusions.txt	LTP333	ltpFR	0	2	-1	YOLK	1633	n/a	-1	1	1.0	1.0	upper	../fonts/Verdana.ttf
210537	WORD	wordpools/wasnorm_wordpool_less_exclusions.txt	LTP333	ltpFR	0	2	-1	WINE	1613	n/a	-1	1	1.0	1.0	upper	../fonts/Verdana.ttf
214686	WORD	wordpools/wasnorm_wordpool_less_exclusions.txt	LTP333	ltpFR	0	2	-1	PICNIC	1060	n/a	-1	1	1.0	1.0	upper	../fonts/Verdana.ttf
218900	WORD	wordpools/wasnorm_wordpool_less_exclusions.txt	LTP333	ltpFR	0	2	-1	KEYBOARD	774	n/a	-1	1	1.0	1.0	upper	../fonts/Verdana.ttf
223132	WORD	wordpools/wasnorm_wordpool_less_exclusions.txt	LTP333	ltpFR	0	2	-1	BAND	78	n/a	-1	1	1.0	1.0	upper	../fonts/Verdana.ttf
227213	WORD	wordpools/wasnorm_wordpool_less_exclusions.txt	LTP333	ltpFR	0	2	-1	TRAIN	1494	n/a	-1	1	1.0	1.0	upper	../fonts/Verdana.ttf
231095	WORD	wordpools/wasnorm_wordpool_less_exclusions.txt	LTP333	ltpFR	0	2	-1	CONDUCTOR	362	n/a	-1	1	1.0	1.0	upper	../fonts/Verdana.ttf
234961	WORD	wordpools/wasnorm_wordpool_less_exclusions.txt	LTP333	ltpFR	0	2	-1	CHIPMUNK	304	n/a	-1	1	1.0	1.0	upper	../fonts/Verdana.ttf
239058	WORD	wordpools/wasnorm_wordpool_less_exclusions.txt	LTP333	ltpFR	0	2	-1	ROOMMATE	1207	n/a	-1	1	1.0	1.0	upper	../fonts/Verdana.ttf
242940	WORD	wordpools/wasnorm_wordpool_less_exclusions.txt	LTP333	ltpFR	0	2	-1	GALLON	618	n/a	-1	1	1.0	1.0	upper	../fonts/Verdana.ttf
246838	WORD	wordpools/wasnorm_wordpool_less_exclusions.txt	LTP333	ltpFR	0	2	-1	FUR	615	n/a	-1	1	1.0	1.0	upper	../fonts/Verdana.ttf
250836	WORD	wordpools/wasnorm_wordpool_less_exclusions.txt	LTP333	ltpFR	0	2	-1	RAG	1160	n/a	-1	1	1.0	1.0	upper	../fonts/Verdana.ttf
254817	WORD	wordpools/wasnorm_wordpool_less_exclusions.txt	LTP333	ltpFR	0	2	-1	SUIT	1402	n/a	-1	1	1.0	1.0	upper	../fonts/Verdana.ttf
258899	WORD	wordpools/wasnorm_wordpool_less_exclusions.txt	LTP333	ltpFR	0	2	-1	CHICKEN	297	n/a	-1	1	1.0	1.0	upper	../fonts/Verdana.ttf
264881	REC_START	n/a	LTP333	ltpFR	0	2	n/a	n/a	n/a	n/a	n/a	n/a	n/a	n/a	n/a	n/a
266571	REC_WORD	wordpools/wasnorm_wordpool_less_exclusions.txt	LTP333	ltpFR	0	2	-1	COMMUNITY	356	n/a	-1	n/a	n/a	n/a	n/a	n/a
267757	REC_WORD	wordpools/wasnorm_wordpool_less_exclusions.txt	LTP333	ltpFR	0	2	-1	SUPERMARKET	1409	n/a	-1	n/a	n/a	n/a	n/a	n/a
269534	REC_WORD	wordpools/wasnorm_wordpool_less_exclusions.txt	LTP333	ltpFR	0	2	-1	CHICKEN	297	n/a	-1	n/a	n/a	n/a	n/a	n/a
270840	REC_WORD	wordpools/wasnorm_wordpool_less_exclusions.txt	LTP333	ltpFR	0	2	-1	YOLK	1633	n/a	-1	n/a	n/a	n/a	n/a	n/a
272421	REC_WORD	wordpools/wasnorm_wordpool_less_exclusions.txt	LTP333	ltpFR	0	2	n/a	MILK	895	n/a	n/a	n/a	n/a	n/a	n/a	n/a
274188	REC_WORD	wordpools/wasnorm_wordpool_less_exclusions.txt	LTP333	ltpFR	0	2	-1	SUIT	1402	n/a	-1	n/a	n/a	n/a	n/a	n/a
275807	REC_WORD	wordpools/wasnorm_wordpool_less_exclusions.txt	LTP333	ltpFR	0	2	-1	RAG	1160	n/a	-1	n/a	n/a	n/a	n/a	n/a
286361	REC_WORD	wordpools/wasnorm_wordpool_less_exclusions.txt	LTP333	ltpFR	0	2	-1	FUR	615	n/a	-1	n/a	n/a	n/a	n/a	n/a
328972	REC_WORD	wordpools/wasnorm_wordpool_less_exclusions.txt	LTP333	ltpFR	0	2	-1	PICNIC	1060	n/a	-1	n/a	n/a	n/a	n/a	n/a
346093	WORD	wordpools/wasnorm_wordpool_less_exclusions.txt	LTP333	ltpFR	0	3	-1	BATHTUB	100	n/a	-1	1	1.0	1.0	upper	../fonts/Verdana.ttf
350009	WORD	wordpools/wasnorm_wordpool_less_exclusions.txt	LTP333	ltpFR	0	3	-1	REINDEER	1181	n/a	-1	1	1.0	1.0	upper	../fonts/Verdana.ttf
353889	WORD	wordpools/wasnorm_wordpool_less_exclusions.txt	LTP333	ltpFR	0	3	-1	CLERK	321	n/a	-1	1	1.0	1.0	upper	../fonts/Verdana.ttf
357837	WORD	wordpools/wasnorm_wordpool_less_exclusions.txt	LTP333	ltpFR	0	3	-1	PILOT	1070	n/a	-1	1	1.0	1.0	upper	../fonts/Verdana.ttf
362003	WORD	wordpools/wasnorm_wordpool_less_exclusions.txt	LTP333	ltpFR	0	3	-1	LOG	841	n/a	-1	1	1.0	1.0	upper	../fonts/Verdana.ttf
366150	WORD	wordpools/wasnorm_wordpool_less_exclusions.txt	LTP333	ltpFR	0	3	-1	TYPIST	1532	n/a	-1	1	1.0	1.0	upper	../fonts/Verdana.ttf
370198	WORD	wordpools/wasnorm_wordpool_less_exclusions.txt	LTP333	ltpFR	0	3	-1	TOOTHBRUSH	1482	n/a	-1	1	1.0	1.0	upper	../fonts/Verdana.ttf
374280	WORD	wordpools/wasnorm_wordpool_less_exclusions.txt	LTP333	ltpFR	0	3	-1	LIP	828	n/a	-1	1	1.0	1.0	upper	../fonts/Verdana.ttf
378161	WORD	wordpools/wasnorm_wordpool_less_exclusions.txt	LTP333	ltpFR	0	3	-1	CHARCOAL	281	n/a	-1	1	1.0	1.0	upper	../fonts/Verdana.ttf
382093	WORD	wordpools/wasnorm_wordpool_less_exclusions.txt	LTP333	ltpFR	0	3	-1	NITROGEN	954	n/a	-1	1	1.0	1.0	upper	../fonts/Verdana.ttf
386158	WORD	wordpools/wasnorm_wordpool_less_exclusions.txt	LTP333	ltpFR	0	3	-1	POSSUM	1112	n/a	-1	1	1.0	1.0	upper	../fonts/Verdana.ttf
390306	WORD	wordpools/wasnorm_wordpool_less_exclusions.txt	LTP333	ltpFR	0	3	-1	ANIMAL	23	n/a	-1	1	1.0	1.0	upper	../fonts/Verdana.ttf
394387	WORD	wordpools/wasnorm_wordpool_less_exclusions.txt	LTP333	ltpFR	0	3	-1	MOLECULE	905	n/a	-1	1	1.0	1.0	upper	../fonts/Verdana.ttf
398569	WORD	wordpools/wasnorm_wordpool_less_exclusions.txt	LTP333	ltpFR	0	3	-1	BEAN	105	n/a	-1	1	1.0	1.0	upper	../fonts/Verdana.ttf
402784	WORD	wordpools/wasnorm_wordpool_less_exclusions.txt	LTP333	ltpFR	0	3	-1	SPINACH	1352	n/a	-1	1	1.0	1.0	upper	../fonts/Verdana.ttf
406898	WORD	wordpools/wasnorm_wordpool_less_exclusions.txt	LTP333	ltpFR	0	3	-1	VAULT	1550	n/a	-1	1	1.0	1.0	upper	../fonts/Verdana.ttf
412980	REC_START	n/a	LTP333	ltpFR	0	3	n/a	n/a	n/a	n/a	n/a	n/a	n/a	n/a	n/a	n/a
415049	REC_WORD	wordpools/wasnorm_wordpool_less_exclusions.txt	LTP333	ltpFR	0	3	-1	BATHTUB	100	n/a	-1	n/a	n/a	n/a	n/a	n/a
416364	REC_WORD	wordpools/wasnorm_wordpool_less_exclusions.txt	LTP333	ltpFR	0	3	-1	REINDEER	1181	n/a	-1	n/a	n/a	n/a	n/a	n/a
418485	REC_WORD	wordpools/wasnorm_wordpool_less_exclusions.txt	LTP333	ltpFR	0	3	-1	NITROGEN	954	n/a	-1	n/a	n/a	n/a	n/a	n/a
419936	REC_WORD	wordpools/wasnorm_wordpool_less_exclusions.txt	LTP333	ltpFR	0	3	-1	MOLECULE	905	n/a	-1	n/a	n/a	n/a	n/a	n/a
422132	REC_WORD	wordpools/wasnorm_wordpool_less_exclusions.txt	LTP333	ltpFR	0	3	-1	CHARCOAL	281	n/a	-1	n/a	n/a	n/a	n/a	n/a
424341	REC_WORD	wordpools/wasnorm_wordpool_less_exclusions.txt	LTP333	ltpFR	0	3	-1	LIP	828	n/a	-1	n/a	n/a	n/a	n/a	n/a
473797	REC_WORD	wordpools/wasnorm_wordpool_less_exclusions.txt	LTP333	ltpFR	0	3	n/a	TYPEWRITER	1531	n/a	n/a	n/a	n/a	n/a	n/a	n/a
477888	REC_WORD	wordpools/wasnorm_wordpool_less_exclusions.txt	LTP333	ltpFR	0	3	-1	TYPIST	1532	n/a	-1	n/a	n/a	n/a	n/a	n/a
510785	WORD	wordpools/wasnorm_wordpool_less_exclusions.txt	LTP333	ltpFR	0	4	-1	CELLAR	267	n/a	-1	1	1.0	1.0	upper	../fonts/Verdana.ttf
514799	WORD	wordpools/wasnorm_wordpool_less_exclusions.txt	LTP333	ltpFR	0	4	-1	SMOG	1330	n/a	-1	1	1.0	1.0	upper	../fonts/Verdana.ttf
519015	WORD	wordpools/wasnorm_wordpool_less_exclusions.txt	LTP333	ltpFR	0	4	-1	DESIGNER	451	n/a	-1	1	1.0	1.0	upper	../fonts/Verdana.ttf
523062	WORD	wordpools/wasnorm_wordpool_less_exclusions.txt	LTP333	ltpFR	0	4	-1	OYSTER	995	n/a	-1	1	1.0	1.0	upper	../fonts/Verdana.ttf
527194	WORD	wordpools/wasnorm_wordpool_less_exclusions.txt	LTP333	ltpFR	0	4	-1	POOL	1103	n/a	-1	1	1.0	1.0	upper	../fonts/Verdana.ttf
531325	WORD	wordpools/wasnorm_wordpool_less_exclusions.txt	LTP333	ltpFR	0	4	-1	JUGGLER	763	n/a	-1	1	1.0	1.0	upper	../fonts/Verdana.ttf
535307	WORD	wordpools/wasnorm_wordpool_less_exclusions.txt	LTP333	ltpFR	0	4	-1	CLOUD	328	n/a	-1	1	1.0	1.0	upper	../fonts/Verdana.ttf
539288	WORD	wordpools/wasnorm_wordpool_less_exclusions.txt	LTP333	ltpFR	0	4	-1	LOFT	840	n/a	-1	1	1.0	1.0	upper	../fonts/Verdana.ttf
543220	WORD	wordpools/wasnorm_wordpool_less_exclusions.txt	LTP333	ltpFR	0	4	-1	HAMMOCK	681	n/a	-1	1	1.0	1.0	upper	../fonts/Verdana.ttf
547318	WORD	wordpools/wasnorm_wordpool_less_exclusions.txt	LTP333	ltpFR	0	4	-1	GREASE	660	n/a	-1	1	1.0	1.0	upper	../fonts/Verdana.ttf
551166	WORD	wordpools/wasnorm_wordpool_less_exclusions.txt	LTP333	ltpFR	0	4	-1	GROUND	666	n/a	-1	1	1.0	1.0	upper	../fonts/Verdana.ttf
555364	WORD	wordpools/wasnorm_wordpool_less_exclusions.txt	LTP333	ltpFR	0	4	-1	COCOON	339	n/a	-1	1	1.0	1.0	upper	../fonts/Verdana.ttf
559579	WORD	wordpools/wasnorm_wordpool_less_exclusions.txt	LTP333	ltpFR	0	4	-1	ANT	25	n/a	-1	1	1.0	1.0	upper	../fonts/Verdana.ttf
563711	WORD	wordpools/wasnorm_wordpool_less_exclusions.txt	LTP333	ltpFR	0	4	-1	BOTTLE	153	n/a	-1	1	1.0	1.0	upper	../fonts/Verdana.ttf
567892	WORD	wordpools/wasnorm_wordpool_less_exclusions.txt	LTP333	ltpFR	0	4	-1	FAUCET	555	n/a	-1	1	1.0	1.0	upper	../fonts/Verdana.ttf
571757	WORD	wordpools/wasnorm_wordpool_less_exclusions.txt	LTP333	ltpFR	0	4	-1	ELECTRON	522	n/a	-1	1	1.0	1.0	upper	../fonts/Verdana.ttf
577555	REC_START	n/a	LTP333	ltpFR	0	4	n/a	n/a	n/a	n/a	n/a	n/a	n/a	n/a	n/a	n/a
578990	REC_WORD_VV	wordpools/wasnorm_wordpool_less_exclusions.txt	LTP333	ltpFR	0	4	n/a	<>	-1	n/a	n/a	n/a	n/a	n/a	n/a	n/a
580420	REC_WORD	wordpools/wasnorm_wordpool_less_exclusions.txt	LTP333	ltpFR	0	4	-1	HAMMOCK	681	n/a	-1	n/a	n/a	n/a	n/a	n/a
581974	REC_WORD	wordpools/wasnorm_wordpool_less_exclusions.txt	LTP333	ltpFR	0	4	-1	JUGGLER	763	n/a	-1	n/a	n/a	n/a	n/a	n/a
583208	REC_WORD	wordpools/wasnorm_wordpool_less_exclusions.txt	LTP333	ltpFR	0	4	-1	SMOG	1330	n/a	-1	n/a	n/a	n/a	n/a	n/a
584208	REC_WORD_VV	wordpools/wasnorm_wordpool_less_exclusions.txt	LTP333	ltpFR	0	4	n/a	<>	-1	n/a	n/a	n/a	n/a	n/a	n/a	n/a
585694	REC_WORD	wordpools/wasnorm_wordpool_less_exclusions.txt	LTP333	ltpFR	0	4	-1	POOL	1103	n/a	-1	n/a	n/a	n/a	n/a	n/a
588475	REC_WORD	wordpools/wasnorm_wordpool_less_exclusions.txt	LTP333	ltpFR	0	4	-1	GROUND	666	n/a	-1	n/a	n/a	n/a	n/a	n/a
590940	REC_WORD	wordpools/wasnorm_wordpool_less_exclusions.txt	LTP333	ltpFR	0	4	-1	GREASE	660	n/a	-1	n/a	n/a	n/a	n/a	n/a
594418	REC_WORD	wordpools/wasnorm_wordpool_less_exclusions.txt	LTP333	ltpFR	0	4	-1	SMOG	1330	n/a	-1	n/a	n/a	n/a	n/a	n/a
606038	REC_WORD	wordpools/wasnorm_wordpool_less_exclusions.txt	LTP333	ltpFR	0	4	-1	OYSTER	995	n/a	-1	n/a	n/a	n/a	n/a	n/a
609255	REC_WORD	wordpools/wasnorm_wordpool_less_exclusions.txt	LTP333	ltpFR	0	4	-1	CLOUD	328	n/a	-1	n/a	n/a	n/a	n/a	n/a
816663	WORD	wordpools/wasnorm_wordpool_less_exclusions.txt	LTP333	ltpFR	0	5	1	SHED	1277	n/a	n/a	1	0.412841796875	0.57763671875	lower	../fonts/amplitud.ttf
819695	SLOW_MSG	n/a	LTP333	ltpFR	0	5	n/a	n/a	n/a	n/a	n/a	n/a	n/a	n/a	n/a	n/a
822360	WORD	wordpools/wasnorm_wordpool_less_exclusions.txt	LTP333	ltpFR	0	5	1	WOLF	1619	n/a	1	1	0.412841796875	0.57763671875	lower	../fonts/amplitud.ttf
826375	WORD	wordpools/wasnorm_wordpool_less_exclusions.txt	LTP333	ltpFR	0	5	1	STUDENT	1395	n/a	1	1	0.412841796875	0.57763671875	lower	../fonts/amplitud.ttf
830490	WORD	wordpools/wasnorm_wordpool_less_exclusions.txt	LTP333	ltpFR	0	5	1	LUNCH	849	n/a	0	1	0.412841796875	0.57763671875	lower	../fonts/amplitud.ttf
834605	WORD	wordpools/wasnorm_wordpool_less_exclusions.txt	LTP333	ltpFR	0	5	1	RAFT	1159	n/a	0	1	0.412841796875	0.57763671875	lower	../fonts/amplitud.ttf
838653	WORD	wordpools/wasnorm_wordpool_less_exclusions.txt	LTP333	ltpFR	0	5	1	SKIN	1318	n/a	0	1	0.412841796875	0.57763671875	lower	../fonts/amplitud.ttf
842634	WORD	wordpools/wasnorm_wordpool_less_exclusions.txt	LTP333	ltpFR	0	5	1	CEREAL	272	n/a	0	1	0.412841796875	0.57763671875	lower	../fonts/amplitud.ttf
846649	WORD	wordpools/wasnorm_wordpool_less_exclusions.txt	LTP333	ltpFR	0	5	1	DISH	474	n/a	0	1	0.412841796875	0.57763671875	lower	../fonts/amplitud.ttf
850664	WORD	wordpools/wasnorm_wordpool_less_exclusions.txt	LTP333	ltpFR	0	5	1	AFRICA	9	n/a	0	1	0.412841796875	0.57763671875	lower	../fonts/amplitud.ttf
854579	WORD	wordpools/wasnorm_wordpool_less_exclusions.txt	LTP333	ltpFR	0	5	1	COUNTY	389	n/a	0	1	0.412841796875	0.57763671875	lower	../fonts/amplitud.ttf
858577	WORD	wordpools/wasnorm_wordpool_less_exclusions.txt	LTP333	ltpFR	0	5	1	CUPBOARD	425	n/a	0	1	0.412841796875	0.57763671875	lower	../fonts/amplitud.ttf
862592	WORD	wordpools/wasnorm_wordpool_less_exclusions.txt	LTP333	ltpFR	0	5	1	BEAST	108	n/a	1	1	0.412841796875	0.57763671875	lower	../fonts/amplitud.ttf
866440	WORD	wordpools/wasnorm_wordpool_less_exclusions.txt	LTP333	ltpFR	0	5	1	BUFFALO	186	n/a	1	1	0.412841796875	0.57763671875	lower	../fonts/amplitud.ttf
870572	WORD	wordpools/wasnorm_wordpool_less_exclusions.txt	LTP333	ltpFR	0	5	1	COB	334	n/a	1	1	0.412841796875	0.57763671875	lower	../fonts/amplitud.ttf
874437	WORD	wordpools/wasnorm_wordpool_less_exclusions.txt	LTP333	ltpFR	0	5	1	KNEE	784	n/a	0	1	0.412841796875	0.57763671875	lower	../fonts/amplitud.ttf
878501	WORD	wordpools/wasnorm_wordpool_less_exclusions.txt	LTP333	ltpFR	0	5	1	DICTATOR	462	n/a	1	1	0.412841796875	0.57763671875	lower	../fonts/amplitud.ttf
884349	REC_START	n/a	LTP333	ltpFR	0	5	n/a	n/a	n/a	n/a	n/a	n/a	n/a	n/a	n/a	n/a
885577	REC_WORD	wordpools/wasnorm_wordpool_less_exclusions.txt	LTP333	ltpFR	0	5	1	AFRICA	9	n/a	0	n/a	n/a	n/a	n/a	n/a
887028	REC_WORD	wordpools/wasnorm_wordpool_less_exclusions.txt	LTP333	ltpFR	0	5	1	COB	334	n/a	1	n/a	n/a	n/a	n/a	n/a
888762	REC_WORD	wordpools/wasnorm_wordpool_less_exclusions.txt	LTP333	ltpFR	0	5	1	DICTATOR	462	n/a	1	n/a	n/a	n/a	n/a	n/a
890401	REC_WORD	wordpools/wasnorm_wordpool_less_exclusions.txt	LTP333	ltpFR	0	5	1	KNEE	784	n/a	0	n/a	n/a	n/a	n/a	n/a
892101	REC_WORD	wordpools/wasnorm_wordpool_less_exclusions.txt	LTP333	ltpFR	0	5	1	SKIN	1318	n/a	0	n/a	n/a	n/a	n/a	n/a
900948	REC_WORD	wordpools/wasnorm_wordpool_less_exclusions.txt	LTP333	ltpFR	0	5	1	WOLF	1619	n/a	1	n/a	n/a	n/a	n/a	n/a
906206	REC_WORD	wordpools/wasnorm_wordpool_less_exclusions.txt	LTP333	ltpFR	0	5	1	CEREAL	272	n/a	0	n/a	n/a	n/a	n/a	n/a
910889	REC_WORD	wordpools/wasnorm_wordpool_less_exclusions.txt	LTP333	ltpFR	0	5	1	BEAST	108	n/a	1	n/a	n/a	n/a	n/a	n/a
914263	REC_WORD	wordpools/wasnorm_wordpool_less_exclusions.txt	LTP333	ltpFR	0	5	1	LUNCH	849	n/a	0	n/a	n/a	n/a	n/a	n/a
938366	REC_WORD	wordpools/wasnorm_wordpool_less_exclusions.txt	LTP333	ltpFR	0	5	n/a	HOUSE	725	n/a	n/a	n/a	n/a	n/a	n/a	n/a
971876	WORD	wordpools/wasnorm_wordpool_less_exclusions.txt	LTP333	ltpFR	0	6	1	BOMB	147	n/a	0	1	0.412841796875	0.57763671875	lower	../fonts/amplitud.ttf
975791	WORD	wordpools/wasnorm_wordpool_less_exclusions.txt	LTP333	ltpFR	0	6	1	SEAL	1262	n/a	1	1	0.412841796875	0.57763671875	lower	../fonts/amplitud.ttf
979655	WORD	wordpools/wasnorm_wordpool_less_exclusions.txt	LTP333	ltpFR	0	6	1	CONVENT	370	n/a	1	1	0.412841796875	0.57763671875	lower	../fonts/amplitud.ttf
983520	WORD	wordpools/wasnorm_wordpool_less_exclusions.txt	LTP333	ltpFR	0	6	1	SCREWDRIVER	1255	n/a	0	1	0.412841796875	0.57763671875	lower	../fonts/amplitud.ttf
987752	WORD	wordpools/wasnorm_wordpool_less_exclusions.txt	LTP333	ltpFR	0	6	1	BALCONY	72	n/a	0	1	0.412841796875	0.57763671875	lower	../fonts/amplitud.ttf
991750	WORD	wordpools/wasnorm_wordpool_less_exclusions.txt	LTP333	ltpFR	0	6	1	ROOM	1206	n/a	0	1	0.412841796875	0.57763671875	lower	../fonts/amplitud.ttf
995831	WORD	wordpools/wasnorm_wordpool_less_exclusions.txt	LTP333	ltpFR	0	6	1	COCKTAIL	338	n/a	0	1	0.412841796875	0.57763671875	lower	../fonts/amplitud.ttf
1000047	WORD	wordpools/wasnorm_wordpool_less_exclusions.txt	LTP333	ltpFR	0	6	1	MEADOW	881	n/a	0	1	0.412841796875	0.57763671875	lower	../fonts/amplitud.ttf
1004061	WORD	wordpools/wasnorm_wordpool_less_exclusions.txt	LTP333	ltpFR	0	6	1	GAZELLE	628	n/a	1	1	0.412841796875	0.57763671875	lower	../fonts/amplitud.ttf
1008044	WORD	wordpools/wasnorm_wordpool_less_exclusions.txt	LTP333	ltpFR	0	6	1	ELK	526	n/a	1	1	0.412841796875	0.57763671875	lower	../fonts/amplitud.ttf
1012174	WORD	wordpools/wasnorm_wordpool_less_exclusions.txt	LTP333	ltpFR	0	6	1	ARTIST	43	n/a	1	1	0.412841796875	0.57763671875	lower	../fonts/amplitud.ttf
1016289	WORD	wordpools/wasnorm_wordpool_less_exclusions.txt	LTP333	ltpFR	0	6	1	ENGINEER	536	n/a	1	1	0.412841796875	0.57763671875	lower	../fonts/amplitud.ttf
1020137	WORD	wordpools/wasnorm_wordpool_less_exclusions.txt	LTP333	ltpFR	0	6	1	PRINTER	1126	n/a	0	1	0.412841796875	0.57763671875	lower	../fonts/amplitud.ttf
1024185	WORD	wordpools/wasnorm_wordpool_less_exclusions.txt	LTP333	ltpFR	0	6	1	COSTUME	383	n/a	0	1	0.412841796875	0.57763671875	lower	../fonts/amplitud.ttf
1028333	WORD	wordpools/wasnorm_wordpool_less_exclusions.txt	LTP333	ltpFR	0	6	1	COMB	351	n/a	0	1	0.412841796875	0.57763671875	lower	../fonts/amplitud.ttf
1032165	WORD	wordpools/wasnorm_wordpool_less_exclusions.txt	LTP333	ltpFR	0	6	1	CHAPEL	280	n/a	0	1	0.412841796875	0.57763671875	lower	../fonts/amplitud.ttf
1038031	REC_START	n/a	LTP333	ltpFR	0	6	n/a	n/a	n/a	n/a	n/a	n/a	n/a	n/a	n/a	n/a
1040081	REC_WORD	wordpools/wasnorm_wordpool_less_exclusions.txt	LTP333	ltpFR	0	6	1	CHAPEL	280	n/a	0	n/a	n/a	n/a	n/a	n/a
1042349	REC_WORD	wordpools/wasnorm_wordpool_less_exclusions.txt	LTP333	ltpFR	0	6	1	BOMB	147	n/a	0	n/a	n/a	n/a	n/a	n/a
1049064	REC_WORD	wordpools/wasnorm_wordpool_less_exclusions.txt	LTP333	ltpFR	0	6	1	ARTIST	43	n/a	1	n/a	n/a	n/a	n/a	n/a
1050255	REC_WORD	wordpools/wasnorm_wordpool_less_exclusions.txt	LTP333	ltpFR	0	6	1	ENGINEER	536	n/a	1	n/a	n/a	n/a	n/a	n/a
1051952	REC_WORD	wordpools/wasnorm_wordpool_less_exclusions.txt	LTP333	ltpFR	0	6	1	PRINTER	1126	n/a	0	n/a	n/a	n/a	n/a	n/a
1053941	REC_WORD	wordpools/wasnorm_wordpool_less_exclusions.txt	LTP333	ltpFR	0	6	1	GAZELLE	628	n/a	1	n/a	n/a	n/a	n/a	n/a
1056814	REC_WORD	wordpools/wasnorm_wordpool_less_exclusions.txt	LTP333	ltpFR	0	6	1	COMB	351	n/a	0	n/a	n/a	n/a	n/a	n/a
1081660	REC_WORD	wordpools/wasnorm_wordpool_less_exclusions.txt	LTP333	ltpFR	0	6	1	MEADOW	881	n/a	0	n/a	n/a	n/a	n/a	n/a
1126589	WORD	wordpools/wasnorm_wordpool_less_exclusions.txt	LTP333	ltpFR	0	7	1	FROST	609	n/a	0	1	0.412841796875	0.57763671875	lower	../fonts/amplitud.ttf
1130770	WORD	wordpools/wasnorm_wordpool_less_exclusions.txt	LTP333	ltpFR	0	7	1	TIE	1466	n/a	0	1	0.412841796875	0.57763671875	lower	../fonts/amplitud.ttf
1134986	WORD	wordpools/wasnorm_wordpool_less_exclusions.txt	LTP333	ltpFR	0	7	1	MOSS	918	n/a	1	1	0.412841796875	0.57763671875	lower	../fonts/amplitud.ttf
1139133	WORD	wordpools/wasnorm_wordpool_less_exclusions.txt	LTP333	ltpFR	0	7	1	OX	994	n/a	1	1	0.412841796875	0.57763671875	lower	../fonts/amplitud.ttf
1143098	WORD	wordpools/wasnorm_wordpool_less_exclusions.txt	LTP333	ltpFR	0	7	1	ZEBRA	1635	n/a	1	1	0.412841796875	0.57763671875	lower	../fonts/amplitud.ttf
1147246	WORD	wordpools/wasnorm_wordpool_less_exclusions.txt	LTP333	ltpFR	0	7	1	BRIEFCASE	175	n/a	0	1	0.412841796875	0.57763671875	lower	../fonts/amplitud.ttf
1151428	WORD	wordpools/wasnorm_wordpool_less_exclusions.txt	LTP333	ltpFR	0	7	1	TREE	1502	n/a	1	1	0.412841796875	0.57763671875	lower	../fonts/amplitud.ttf
1155359	WORD	wordpools/wasnorm_wordpool_less_exclusions.txt	LTP333	ltpFR	0	7	1	ZUCCHINI	1638	n/a	1	1	0.412841796875	0.57763671875	lower	../fonts/amplitud.ttf
1159307	WORD	wordpools/wasnorm_wordpool_less_exclusions.txt	LTP333	ltpFR	0	7	1	SHELF	1280	n/a	0	1	0.412841796875	0.57763671875	lower	../fonts/amplitud.ttf
1163406	WORD	wordpools/wasnorm_wordpool_less_exclusions.txt	LTP333	ltpFR	0	7	1	TECHNICIAN	1443	n/a	1	1	0.412841796875	0.57763671875	lower	../fonts/amplitud.ttf
1167554	WORD	wordpools/wasnorm_wordpool_less_exclusions.txt	LTP333	ltpFR	0	7	1	PASSENGER	1020	n/a	1	1	0.412841796875	0.57763671875	lower	../fonts/amplitud.ttf
1171718	WORD	wordpools/wasnorm_wordpool_less_exclusions.txt	LTP333	ltpFR	0	7	1	SHOE	1288	n/a	0	1	0.412841796875	0.57763671875	lower	../fonts/amplitud.ttf
1175850	WORD	wordpools/wasnorm_wordpool_less_exclusions.txt	LTP333	ltpFR	0	7	1	PIANO	1057	n/a	0	1	0.412841796875	0.57763671875	lower	../fonts/amplitud.ttf
1179765	WORD	wordpools/wasnorm_wordpool_less_exclusions.txt	LTP333	ltpFR	0	7	1	BANJO	82	n/a	0	1	0.412841796875	0.57763671875	lower	../fonts/amplitud.ttf
1183896	WORD	wordpools/wasnorm_wordpool_less_exclusions.txt	LTP333	ltpFR	0	7	1	TOURIST	1488	n/a	1	1	0.412841796875	0.57763671875	lower	../fonts/amplitud.ttf
1187945	WORD	wordpools/wasnorm_wordpool_less_exclusions.txt	LTP333	ltpFR	0	7	1	PICKLE	1059	n/a	0	1	0.412841796875	0.57763671875	lower	../fonts/amplitud.ttf
1194059	REC_START	n/a	LTP333	ltpFR	0	7	n/a	n/a	n/a	n/a	n/a	n/a	n/a	n/a	n/a	n/a
1195490	REC_WORD	wordpools/wasnorm_wordpool_less_exclusions.txt	LTP333	ltpFR	0	7	1	PIANO	1057	n/a	0	n/a	n/a	n/a	n/a	n/a
1196855	REC_WORD	wordpools/wasnorm_wordpool_less_exclusions.txt	LTP333	ltpFR	0	7	1	MOSS	918	n/a	1	n/a	n/a	n/a	n/a	n/a
1198344	REC_WORD	wordpools/wasnorm_wordpool_less_exclusions.txt	LTP333	ltpFR	0	7	1	TECHNICIAN	1443	n/a	1	n/a	n/a	n/a	n/a	n/a
1210634	REC_WORD	wordpools/wasnorm_wordpool_less_exclusions.txt	LTP333	ltpFR	0	7	1	PASSENGER	1020	n/a	1	n/a	n/a	n/a	n/a	n/a
1238942	REC_WORD	wordpools/wasnorm_wordpool_less_exclusions.txt	LTP333	ltpFR	0	7	n/a	BELL	118	n/a	n/a	n/a	n/a	n/a	n/a	n/a
1260251	REC_WORD	wordpools/wasnorm_wordpool_less_exclusions.txt	LTP333	ltpFR	0	7	1	PICKLE	1059	n/a	0	n/a	n/a	n/a	n/a	n/a
1306925	WORD	wordpools/wasnorm_wordpool_less_exclusions.txt	LTP333	ltpFR	0	8	1	NAVIGATOR	938	n/a	1	1	0.412841796875	0.57763671875	lower	../fonts/amplitud.ttf
1310940	WORD	wordpools/wasnorm_wordpool_less_exclusions.txt	LTP333	ltpFR	0	8	1	PELICAN	1039	n/a	1	1	0.412841796875	0.57763671875	lower	../fonts/amplitud.ttf
1314971	WORD	wordpools/wasnorm_wordpool_less_exclusions.txt	LTP333	ltpFR	0	8	1	PENCIL	1042	n/a	0	1	0.412841796875	0.57763671875	lower	../fonts/amplitud.ttf
1319135	WORD	wordpools/wasnorm_wordpool_less_exclusions.txt	LTP333	ltpFR	0	8	1	LADY	794	n/a	1	1	0.412841796875	0.57763671875	lower	../fonts/amplitud.ttf
1323316	WORD	wordpools/wasnorm_wordpool_less_exclusions.txt	LTP333	ltpFR	0	8	1	DRYER	503	n/a	0	1	0.412841796875	0.57763671875	lower	../fonts/amplitud.ttf
1327165	WORD	wordpools/wasnorm_wordpool_less_exclusions.txt	LTP333	ltpFR	0	8	1	SERVANT	1271	n/a	1	1	0.412841796875	0.57763671875	lower	../fonts/amplitud.ttf
1331230	WORD	wordpools/wasnorm_wordpool_less_exclusions.txt	LTP333	ltpFR	0	8	1	SCROLL	1257	n/a	0	1	0.412841796875	0.57763671875	lower	../fonts/amplitud.ttf
1335444	WORD	wordpools/wasnorm_wordpool_less_exclusions.txt	LTP333	ltpFR	0	8	1	TRENCH	1503	n/a	0	1	0.412841796875	0.57763671875	lower	../fonts/amplitud.ttf
1339559	WORD	wordpools/wasnorm_wordpool_less_exclusions.txt	LTP333	ltpFR	0	8	1	HUMAN	726	n/a	1	1	0.412841796875	0.57763671875	lower	../fonts/amplitud.ttf
1343491	WORD	wordpools/wasnorm_wordpool_less_exclusions.txt	LTP333	ltpFR	0	8	1	STAKE	1368	n/a	0	1	0.412841796875	0.57763671875	lower	../fonts/amplitud.ttf
1347672	WORD	wordpools/wasnorm_wordpool_less_exclusions.txt	LTP333	ltpFR	0	8	1	MEAT	883	n/a	0	1	0.412841796875	0.57763671875	lower	../fonts/amplitud.ttf
1351520	WORD	wordpools/wasnorm_wordpool_less_exclusions.txt	LTP333	ltpFR	0	8	1	MAID	856	n/a	1	1	0.412841796875	0.57763671875	lower	../fonts/amplitud.ttf
1355735	WORD	wordpools/wasnorm_wordpool_less_exclusions.txt	LTP333	ltpFR	0	8	1	LAGOON	795	n/a	0	1	0.412841796875	0.57763671875	lower	../fonts/amplitud.ttf
1359683	WORD	wordpools/wasnorm_wordpool_less_exclusions.txt	LTP333	ltpFR	0	8	1	STEAM	1375	n/a	0	1	0.412841796875	0.57763671875	lower	../fonts/amplitud.ttf
1363715	WORD	wordpools/wasnorm_wordpool_less_exclusions.txt	LTP333	ltpFR	0	8	1	FEAST	556	n/a	0	1	0.412841796875	0.57763671875	lower	../fonts/amplitud.ttf
1367663	WORD	wordpools/wasnorm_wordpool_less_exclusions.txt	LTP333	ltpFR	0	8	1	GROCERIES	663	n/a	0	1	0.412841796875	0.57763671875	lower	../fonts/amplitud.ttf
1373527	REC_START	n/a	LTP333	ltpFR	0	8	n/a	n/a	n/a	n/a	n/a	n/a	n/a	n/a	n/a	n/a
1375871	REC_WORD	wordpools/wasnorm_wordpool_less_exclusions.txt	LTP333	ltpFR	0	8	1	FEAST	556	n/a	0	n/a	n/a	n/a	n/a	n/a
1377176	REC_WORD	wordpools/wasnorm_wordpool_less_exclusions.txt	LTP333	ltpFR	0	8	1	MEAT	883	n/a	0	n/a	n/a	n/a	n/a	n/a
1378045	REC_WORD	wordpools/wasnorm_wordpool_less_exclusions.txt	LTP333	ltpFR	0	8	1	STAKE	1368	n/a	0	n/a	n/a	n/a	n/a	n/a
1379589	REC_WORD	wordpools/wasnorm_wordpool_less_exclusions.txt	LTP333	ltpFR	0	8	1	GROCERIES	663	n/a	0	n/a	n/a	n/a	n/a	n/a
1381477	REC_WORD	wordpools/wasnorm_wordpool_less_exclusions.txt	LTP333	ltpFR	0	8	1	HUMAN	726	n/a	1	n/a	n/a	n/a	n/a	n/a
1382635	REC_WORD	wordpools/wasnorm_wordpool_less_exclusions.txt	LTP333	ltpFR	0	8	1	LADY	794	n/a	1	n/a	n/a	n/a	n/a	n/a
1384160	REC_WORD	wordpools/wasnorm_wordpool_less_exclusions.txt	LTP333	ltpFR	0	8	1	MAID	856	n/a	1	n/a	n/a	n/a	n/a	n/a
1439083	REC_WORD	wordpools/wasnorm_wordpool_less_exclusions.txt	LTP333	ltpFR	0	8	n/a	BOOK	149	n/a	n/a	n/a	n/a	n/a	n/a	n/a
1449110	REST_REWET	n/a	LTP333	ltpFR	0	8	n/a	n/a	n/a	n/a	n/a	n/a	n/a	n/a	n/a	n/a
1567007	WORD	wordpools/wasnorm_wordpool_less_exclusions.txt	LTP333	ltpFR	0	9	0	RIVER	1194	n/a	1	0	0.5869140625	0.422607421875	upper	../fonts/zerothre.ttf
1571204	WORD	wordpools/wasnorm_wordpool_less_exclusions.txt	LTP333	ltpFR	0	9	0	TACK	1428	n/a	0	0	0.5869140625	0.422607421875	upper	../fonts/zerothre.ttf
1575286	WORD	wordpools/wasnorm_wordpool_less_exclusions.txt	LTP333	ltpFR	0	9	0	CART	250	n/a	1	0	0.5869140625	0.422607421875	upper	../fonts/zerothre.ttf
1579517	WORD	wordpools/wasnorm_wordpool_less_exclusions.txt	LTP333	ltpFR	0	9	0	CARAVAN	242	n/a	1	0	0.5869140625	0.422607421875	upper	../fonts/zerothre.ttf
1583732	WORD	wordpools/wasnorm_wordpool_less_exclusions.txt	LTP333	ltpFR	0	9	0	CITRUS	313	n/a	0	0	0.5869140625	0.422607421875	upper	../fonts/zerothre.ttf
1587630	WORD	wordpools/wasnorm_wordpool_less_exclusions.txt	LTP333	ltpFR	0	9	0	LIME	823	n/a	0	0	0.5869140625	0.422607421875	upper	../fonts/zerothre.ttf
1591528	WORD	wordpools/wasnorm_wordpool_less_exclusions.txt	LTP333	ltpFR	0	9	0	PAVEMENT	1028	n/a	1	0	0.5869140625	0.422607421875	upper	../fonts/zerothre.ttf
1595543	WORD	wordpools/wasnorm_wordpool_less_exclusions.txt	LTP333	ltpFR	0	9	0	ALLIGATOR	16	n/a	1	0	0.5869140625	0.422607421875	upper	../fonts/zerothre.ttf
1599674	WORD	wordpools/wasnorm_wordpool_less_exclusions.txt	LTP333	ltpFR	0	9	0	RESORT	1186	n/a	1	0	0.5869140625	0.422607421875	upper	../fonts/zerothre.ttf
1603806	WORD	wordpools/wasnorm_wordpool_less_exclusions.txt	LTP333	ltpFR	0	9	0	RAIL	1161	n/a	1	0	0.5869140625	0.422607421875	upper	../fonts/zerothre.ttf
1607888	WORD	wordpools/wasnorm_wordpool_less_exclusions.txt	LTP333	ltpFR	0	9	0	DIAMOND	458	n/a	0	0	0.5869140625	0.422607421875	upper	../fonts/zerothre.ttf
1611786	WORD	wordpools/wasnorm_wordpool_less_exclusions.txt	LTP333	ltpFR	0	9	0	BANKER	84	n/a	1	0	0.5869140625	0.422607421875	upper	../fonts/zerothre.ttf
1615784	WORD	wordpools/wasnorm_wordpool_less_exclusions.txt	LTP333	ltpFR	0	9	0	NAIL	936	n/a	0	0	0.5869140625	0.422607421875	upper	../fonts/zerothre.ttf
1619749	WORD	wordpools/wasnorm_wordpool_less_exclusions.txt	LTP333	ltpFR	0	9	0	BUG	187	n/a	0	0	0.5869140625	0.422607421875	upper	../fonts/zerothre.ttf
1623948	WORD	wordpools/wasnorm_wordpool_less_exclusions.txt	LTP333	ltpFR	0	9	0	PORK	1108	n/a	0	0	0.5869140625	0.422607421875	upper	../fonts/zerothre.ttf
1627895	WORD	wordpools/wasnorm_wordpool_less_exclusions.txt	LTP333	ltpFR	0	9	0	HAM	678	n/a	0	0	0.5869140625	0.422607421875	upper	../fonts/zerothre.ttf
1633810	REC_START	n/a	LTP333	ltpFR	0	9	n/a	n/a	n/a	n/a	n/a	n/a	n/a	n/a	n/a	n/a
1635461	REC_WORD	wordpools/wasnorm_wordpool_less_exclusions.txt	LTP333	ltpFR	0	9	0	RIVER	1194	n/a	1	n/a	n/a	n/a	n/a	n/a
1637498	REC_WORD	wordpools/wasnorm_wordpool_less_exclusions.txt	LTP333	ltpFR	0	9	0	PORK	1108	n/a	0	n/a	n/a	n/a	n/a	n/a
1638871	REC_WORD	wordpools/wasnorm_wordpool_less_exclusions.txt	LTP333	ltpFR	0	9	0	HAM	678	n/a	0	n/a	n/a	n/a	n/a	n/a
1640922	REC_WORD	wordpools/wasnorm_wordpool_less_exclusions.txt	LTP333	ltpFR	0	9	0	NAIL	936	n/a	0	n/a	n/a	n/a	n/a	n/a
1642579	REC_WORD	wordpools/wasnorm_wordpool_less_exclusions.txt	LTP333	ltpFR	0	9	0	TACK	1428	n/a	0	n/a	n/a	n/a	n/a	n/a
1644711	REC_WORD	wordpools/wasnorm_wordpool_less_exclusions.txt	LTP333	ltpFR	0	9	0	CARAVAN	242	n/a	1	n/a	n/a	n/a	n/a	n/a
1648349	REC_WORD	wordpools/wasnorm_wordpool_less_exclusions.txt	LTP333	ltpFR	0	9	0	CART	250	n/a	1	n/a	n/a	n/a	n/a	n/a
1658107	REC_WORD	wordpools/wasnorm_wordpool_less_exclusions.txt	LTP333	ltpFR	0	9	0	PAVEMENT	1028	n/a	1	n/a	n/a	n/a	n/a	n/a
1665537	REC_WORD	wordpools/wasnorm_wordpool_less_exclusions.txt	LTP333	ltpFR	0	9	0	BUG	187	n/a	0	n/a	n/a	n/a	n/a	n/a
1690027	REC_WORD	wordpools/wasnorm_wordpool_less_exclusions.txt	LTP333	ltpFR	0	9	n/a	RESEARCHER	-1	n/a	n/a	n/a	n/a	n/a	n/a	n/a
1704200	REC_WORD	wordpools/wasnorm_wordpool_less_exclusions.txt	LTP333	ltpFR	0	9	0	CITRUS	313	n/a	0	n/a	n/a	n/a	n/a	n/a
1706425	REC_WORD	wordpools/wasnorm_wordpool_less_exclusions.txt	LTP333	ltpFR	0	9	0	LIME	823	n/a	0	n/a	n/a	n/a	n/a	n/a
1717088	WORD	wordpools/wasnorm_wordpool_less_exclusions.txt	LTP333	ltpFR	0	10	0	CYLINDER	432	n/a	1	0	0.5869140625	0.422607421875	upper	../fonts/zerothre.ttf
1721336	WORD	wordpools/wasnorm_wordpool_less_exclusions.txt	LTP333	ltpFR	0	10	0	DOG	480	n/a	1	0	0.5869140625	0.422607421875	upper	../fonts/zerothre.ttf
1725368	WORD	wordpools/wasnorm_wordpool_less_exclusions.txt	LTP333	ltpFR	0	10	0	LIMB	822	n/a	1	0	0.5869140625	0.422607421875	upper	../fonts/zerothre.ttf
1729232	WORD	wordpools/wasnorm_wordpool_less_exclusions.txt	LTP333	ltpFR	0	10	0	CAGE	218	n/a	1	0	0.5869140625	0.422607421875	upper	../fonts/zerothre.ttf
1733164	WORD	wordpools/wasnorm_wordpool_less_exclusions.txt	LTP333	ltpFR	0	10	0	BEAD	103	n/a	0	0	0.5869140625	0.422607421875	upper	../fonts/zerothre.ttf
1737145	WORD	wordpools/wasnorm_wordpool_less_exclusions.txt	LTP333	ltpFR	0	10	0	CLAM	315	n/a	0	0	0.5869140625	0.422607421875	upper	../fonts/zerothre.ttf
1741144	WORD	wordpools/wasnorm_wordpool_less_exclusions.txt	LTP333	ltpFR	0	10	0	BISCUIT	130	n/a	0	0	0.5869140625	0.422607421875	upper	../fonts/zerothre.ttf
1745225	WORD	wordpools/wasnorm_wordpool_less_exclusions.txt	LTP333	ltpFR	0	10	0	MARGARINE	868	n/a	0	0	0.5869140625	0.422607421875	upper	../fonts/zerothre.ttf
1749173	WORD	wordpools/wasnorm_wordpool_less_exclusions.txt	LTP333	ltpFR	0	10	0	SALESMAN	1225	n/a	1	0	0.5869140625	0.422607421875	upper	../fonts/zerothre.ttf
1753238	WORD	wordpools/wasnorm_wordpool_less_exclusions.txt	LTP333	ltpFR	0	10	0	VEHICLE	1553	n/a	1	0	0.5869140625	0.422607421875	upper	../fonts/zerothre.ttf
1757403	WORD	wordpools/wasnorm_wordpool_less_exclusions.txt	LTP333	ltpFR	0	10	0	PERCH	1048	n/a	0	0	0.5869140625	0.422607421875	upper	../fonts/zerothre.ttf
1761285	WORD	wordpools/wasnorm_wordpool_less_exclusions.txt	LTP333	ltpFR	0	10	0	APPLE	33	n/a	0	0	0.5869140625	0.422607421875	upper	../fonts/zerothre.ttf
1765449	WORD	wordpools/wasnorm_wordpool_less_exclusions.txt	LTP333	ltpFR	0	10	0	FOLDER	588	n/a	0	0	0.5869140625	0.422607421875	upper	../fonts/zerothre.ttf
1769481	WORD	wordpools/wasnorm_wordpool_less_exclusions.txt	LTP333	ltpFR	0	10	0	SHRINE	1298	n/a	1	0	0.5869140625	0.422607421875	upper	../fonts/zerothre.ttf
1773362	WORD	wordpools/wasnorm_wordpool_less_exclusions.txt	LTP333	ltpFR	0	10	0	SALAD	1224	n/a	0	0	0.5869140625	0.422607421875	upper	../fonts/zerothre.ttf
1777511	WORD	wordpools/wasnorm_wordpool_less_exclusions.txt	LTP333	ltpFR	0	10	0	TYPEWRITER	1531	n/a	0	0	0.5869140625	0.422607421875	upper	../fonts/zerothre.ttf
1783208	REC_START	n/a	LTP333	ltpFR	0	10	n/a	n/a	n/a	n/a	n/a	n/a	n/a	n/a	n/a	n/a
1785044	REC_WORD	wordpools/wasnorm_wordpool_less_exclusions.txt	LTP333	ltpFR	0	10	0	SALAD	1224	n/a	0	n/a	n/a	n/a	n/a	n/a
1786613	REC_WORD	wordpools/wasnorm_wordpool_less_exclusions.txt	LTP333	ltpFR	0	10	0	TYPEWRITER	1531	n/a	0	n/a	n/a	n/a	n/a	n/a
1790168	REC_WORD	wordpools/wasnorm_wordpool_less_exclusions.txt	LTP333	ltpFR	0	10	0	MARGARINE	868	n/a	0	n/a	n/a	n/a	n/a	n/a
1791168	REC_WORD_VV	wordpools/wasnorm_wordpool_less_exclusions.txt	LTP333	ltpFR	0	10	n/a	<>	-1	n/a	n/a	n/a	n/a	n/a	n/a	n/a
1797614	REC_WORD	wordpools/wasnorm_wordpool_less_exclusions.txt	LTP333	ltpFR	0	10	0	BEAD	103	n/a	0	n/a	n/a	n/a	n/a	n/a
1809057	REC_WORD	wordpools/wasnorm_wordpool_less_exclusions.txt	LTP333	ltpFR	0	10	0	TYPEWRITER	1531	n/a	0	n/a	n/a	n/a	n/a	n/a
1816462	REC_WORD	wordpools/wasnorm_wordpool_less_exclusions.txt	LTP333	ltpFR	0	10	0	APPLE	33	n/a	0	n/a	n/a	n/a	n/a	n/a
1823488	REC_WORD	wordpools/wasnorm_wordpool_less_exclusions.txt	LTP333	ltpFR	0	10	0	CYLINDER	432	n/a	1	n/a	n/a	n/a	n/a	n/a
1826899	REC_WORD	wordpools/wasnorm_wordpool_less_exclusions.txt	LTP333	ltpFR	0	10	0	FOLDER	588	n/a	0	n/a	n/a	n/a	n/a	n/a
1894975	WORD	wordpools/wasnorm_wordpool_less_exclusions.txt	LTP333	ltpFR	0	11	0	MARINE	869	n/a	1	0	0.5869140625	0.422607421875	upper	../fonts/zerothre.ttf
1899106	WORD	wordpools/wasnorm_wordpool_less_exclusions.txt	LTP333	ltpFR	0	11	0	ISLAND	745	n/a	1	0	0.5869140625	0.422607421875	upper	../fonts/zerothre.ttf
1903038	WORD	wordpools/wasnorm_wordpool_less_exclusions.txt	LTP333	ltpFR	0	11	0	CHAIN	273	n/a	0	0	0.5869140625	0.422607421875	upper	../fonts/zerothre.ttf
1906869	WORD	wordpools/wasnorm_wordpool_less_exclusions.txt	LTP333	ltpFR	0	11	0	LAKE	796	n/a	1	0	0.5869140625	0.422607421875	upper	../fonts/zerothre.ttf
1911083	WORD	wordpools/wasnorm_wordpool_less_exclusions.txt	LTP333	ltpFR	0	11	0	JUG	762	n/a	0	0	0.5869140625	0.422607421875	upper	../fonts/zerothre.ttf
1915132	WORD	wordpools/wasnorm_wordpool_less_exclusions.txt	LTP333	ltpFR	0	11	0	APARTMENT	30	n/a	1	0	0.5869140625	0.422607421875	upper	../fonts/zerothre.ttf
1919196	WORD	wordpools/wasnorm_wordpool_less_exclusions.txt	LTP333	ltpFR	0	11	0	COMMANDER	354	n/a	1	0	0.5869140625	0.422607421875	upper	../fonts/zerothre.ttf
1923361	WORD	wordpools/wasnorm_wordpool_less_exclusions.txt	LTP333	ltpFR	0	11	0	TEA	1439	n/a	0	0	0.5869140625	0.422607421875	upper	../fonts/zerothre.ttf
1927243	WORD	wordpools/wasnorm_wordpool_less_exclusions.txt	LTP333	ltpFR	0	11	0	KETTLE	772	n/a	0	0	0.5869140625	0.422607421875	upper	../fonts/zerothre.ttf
1931358	WORD	wordpools/wasnorm_wordpool_less_exclusions.txt	LTP333	ltpFR	0	11	0	UMPIRE	1535	n/a	1	0	0.5869140625	0.422607421875	upper	../fonts/zerothre.ttf
1935356	WORD	wordpools/wasnorm_wordpool_less_exclusions.txt	LTP333	ltpFR	0	11	0	TULIP	1517	n/a	0	0	0.5869140625	0.422607421875	upper	../fonts/zerothre.ttf
1939304	WORD	wordpools/wasnorm_wordpool_less_exclusions.txt	LTP333	ltpFR	0	11	0	SEAFOOD	1260	n/a	1	0	0.5869140625	0.422607421875	upper	../fonts/zerothre.ttf
1943285	WORD	wordpools/wasnorm_wordpool_less_exclusions.txt	LTP333	ltpFR	0	11	0	STEW	1380	n/a	1	0	0.5869140625	0.422607421875	upper	../fonts/zerothre.ttf
1947533	WORD	wordpools/wasnorm_wordpool_less_exclusions.txt	LTP333	ltpFR	0	11	0	GUARD	667	n/a	1	0	0.5869140625	0.422607421875	upper	../fonts/zerothre.ttf
1951432	WORD	wordpools/wasnorm_wordpool_less_exclusions.txt	LTP333	ltpFR	0	11	0	FOUNTAIN	597	n/a	1	0	0.5869140625	0.422607421875	upper	../fonts/zerothre.ttf
1955563	WORD	wordpools/wasnorm_wordpool_less_exclusions.txt	LTP333	ltpFR	0	11	0	CREEK	404	n/a	1	0	0.5869140625	0.422607421875	upper	../fonts/zerothre.ttf
1961278	REC_START	n/a	LTP333	ltpFR	0	11	n/a	n/a	n/a	n/a	n/a	n/a	n/a	n/a	n/a	n/a
1963642	REC_WORD	wordpools/wasnorm_wordpool_less_exclusions.txt	LTP333	ltpFR	0	11	0	MARINE	869	n/a	1	n/a	n/a	n/a	n/a	n/a
1966133	REC_WORD	wordpools/wasnorm_wordpool_less_exclusions.txt	LTP333	ltpFR	0	11	0	CREEK	404	n/a	1	n/a	n/a	n/a	n/a	n/a
1967676	REC_WORD	wordpools/wasnorm_wordpool_less_exclusions.txt	LTP333	ltpFR	0	11	0	COMMANDER	354	n/a	1	n/a	n/a	n/a	n/a	n/a
1968899	REC_WORD	wordpools/wasnorm_wordpool_less_exclusions.txt	LTP333	ltpFR	0	11	0	GUARD	667	n/a	1	n/a	n/a	n/a	n/a	n/a
1986669	REC_WORD	wordpools/wasnorm_wordpool_less_exclusions.txt	LTP333	ltpFR	0	11	0	RIVER	1194	n/a	1	n/a	n/a	n/a	n/a	n/a
2002555	REC_WORD	wordpools/wasnorm_wordpool_less_exclusions.txt	LTP333	ltpFR	0	11	0	KETTLE	772	n/a	0	n/a	n/a	n/a	n/a	n/a
2003845	REC_WORD	wordpools/wasnorm_wordpool_less_exclusions.txt	LTP333	ltpFR	0	11	0	TEA	1439	n/a	0	n/a	n/a	n/a	n/a	n/a
2048155	WORD	wordpools/wasnorm_wordpool_less_exclusions.txt	LTP333	ltpFR	0	12	0	ROPE	1211	n/a	0	0	0.5869140625	0.422607421875	upper	../fonts/zerothre.ttf
2052369	WORD	wordpools/wasnorm_wordpool_less_exclusions.txt	LTP333	ltpFR	0	12	0	TAG	1429	n/a	0	0	0.5869140625	0.422607421875	upper	../fonts/zerothre.ttf
2056567	WORD	wordpools/wasnorm_wordpool_less_exclusions.txt	LTP333	ltpFR	0	12	0	EAGLE	512	n/a	1	0	0.5869140625	0.422607421875	upper	../fonts/zerothre.ttf
2060749	WORD	wordpools/wasnorm_wordpool_less_exclusions.txt	LTP333	ltpFR	0	12	0	TICKET	1464	n/a	0	0	0.5869140625	0.422607421875	upper	../fonts/zerothre.ttf
2064948	WORD	wordpools/wasnorm_wordpool_less_exclusions.txt	LTP333	ltpFR	0	12	0	BREAST	171	n/a	1	0	0.5869140625	0.422607421875	upper	../fonts/zerothre.ttf
2068812	WORD	wordpools/wasnorm_wordpool_less_exclusions.txt	LTP333	ltpFR	0	12	0	INSTRUCTOR	741	n/a	1	0	0.5869140625	0.422607421875	upper	../fonts/zerothre.ttf
2072843	WORD	wordpools/wasnorm_wordpool_less_exclusions.txt	LTP333	ltpFR	0	12	0	GARAGE	621	n/a	1	0	0.5869140625	0.422607421875	upper	../fonts/zerothre.ttf
2076758	WORD	wordpools/wasnorm_wordpool_less_exclusions.txt	LTP333	ltpFR	0	12	0	BOUILLON	154	n/a	0	0	0.5869140625	0.422607421875	upper	../fonts/zerothre.ttf
2080756	WORD	wordpools/wasnorm_wordpool_less_exclusions.txt	LTP333	ltpFR	0	12	0	VAN	1548	n/a	1	0	0.5869140625	0.422607421875	upper	../fonts/zerothre.ttf
2084605	WORD	wordpools/wasnorm_wordpool_less_exclusions.txt	LTP333	ltpFR	0	12	0	WINGS	1614	n/a	0	0	0.5869140625	0.422607421875	upper	../fonts/zerothre.ttf
2088520	WORD	wordpools/wasnorm_wordpool_less_exclusions.txt	LTP333	ltpFR	0	12	0	SPOON	1357	n/a	0	0	0.5869140625	0.422607421875	upper	../fonts/zerothre.ttf
2092401	WORD	wordpools/wasnorm_wordpool_less_exclusions.txt	LTP333	ltpFR	0	12	0	REFRIGERATOR	1179	n/a	1	0	0.5869140625	0.422607421875	upper	../fonts/zerothre.ttf
2096416	WORD	wordpools/wasnorm_wordpool_less_exclusions.txt	LTP333	ltpFR	0	12	0	NEWSSTAND	949	n/a	1	0	0.5869140625	0.422607421875	upper	../fonts/zerothre.ttf
2100414	WORD	wordpools/wasnorm_wordpool_less_exclusions.txt	LTP333	ltpFR	0	12	0	DOCUMENT	479	n/a	1	0	0.5869140625	0.422607421875	upper	../fonts/zerothre.ttf
2104379	WORD	wordpools/wasnorm_wordpool_less_exclusions.txt	LTP333	ltpFR	0	12	0	TUB	1514	n/a	1	0	0.5869140625	0.422607421875	upper	../fonts/zerothre.ttf
2108477	WORD	wordpools/wasnorm_wordpool_less_exclusions.txt	LTP333	ltpFR	0	12	0	SURF	1412	n/a	1	0	0.5869140625	0.422607421875	upper	../fonts/zerothre.ttf
2114425	REC_START	n/a	LTP333	ltpFR	0	12	n/a	n/a	n/a	n/a	n/a	n/a	n/a	n/a	n/a	n/a
2116256	REC_WORD	wordpools/wasnorm_wordpool_less_exclusions.txt	LTP333	ltpFR	0	12	0	DOCUMENT	479	n/a	1	n/a	n/a	n/a	n/a	n/a
2117461	REC_WORD	wordpools/wasnorm_wordpool_less_exclusions.txt	LTP333	ltpFR	0	12	0	TAG	1429	n/a	0	n/a	n/a	n/a	n/a	n/a
2118908	REC_WORD	wordpools/wasnorm_wordpool_less_exclusions.txt	LTP333	ltpFR	0	12	0	SURF	1412	n/a	1	n/a	n/a	n/a	n/a	n/a
2120499	REC_WORD	wordpools/wasnorm_wordpool_less_exclusions.txt	LTP333	ltpFR	0	12	0	INSTRUCTOR	741	n/a	1	n/a	n/a	n/a	n/a	n/a
2122840	REC_WORD	wordpools/wasnorm_wordpool_less_exclusions.txt	LTP333	ltpFR	0	12	0	REFRIGERATOR	1179	n/a	1	n/a	n/a	n/a	n/a	n/a
2125515	REC_WORD	wordpools/wasnorm_wordpool_less_exclusions.txt	LTP333	ltpFR	0	12	0	WINGS	1614	n/a	0	n/a	n/a	n/a	n/a	n/a
2127948	REC_WORD	wordpools/wasnorm_wordpool_less_exclusions.txt	LTP333	ltpFR	0	12	0	EAGLE	512	n/a	1	n/a	n/a	n/a	n/a	n/a
2145814	REC_WORD	wordpools/wasnorm_wordpool_less_exclusions.txt	LTP333	ltpFR	0	12	0	BREAST	171	n/a	1	n/a	n/a	n/a	n/a	n/a
2155756	REC_WORD	wordpools/wasnorm_wordpool_less_exclusions.txt	LTP333	ltpFR	0	12	0	DOCUMENT	479	n/a	1	n/a	n/a	n/a	n/a	n/a
2179466	REC_WORD	wordpools/wasnorm_wordpool_less_exclusions.txt	LTP333	ltpFR	0	12	0	TICKET	1464	n/a	0	n/a	n/a	n/a	n/a	n/a
2223242	WORD	wordpools/wasnorm_wordpool_less_exclusions.txt	LTP333	ltpFR	0	13	0	CACTUS	215	n/a	1	0	0.5869140625	0.422607421875	upper	../fonts/zerothre.ttf
2227373	WORD	wordpools/wasnorm_wordpool_less_exclusions.txt	LTP333	ltpFR	0	13	0	THICKET	1455	n/a	1	0	0.5869140625	0.422607421875	upper	../fonts/zerothre.ttf
2231472	WORD	wordpools/wasnorm_wordpool_less_exclusions.txt	LTP333	ltpFR	0	13	0	TANK	1432	n/a	1	0	0.5869140625	0.422607421875	upper	../fonts/zerothre.ttf
2235403	WORD	wordpools/wasnorm_wordpool_less_exclusions.txt	LTP333	ltpFR	0	13	1	SWIMMER	1420	n/a	1	1	0.412841796875	0.57763671875	lower	../fonts/amplitud.ttf
2239418	WORD	wordpools/wasnorm_wordpool_less_exclusions.txt	LTP333	ltpFR	0	13	1	SPIT	1354	n/a	0	1	0.412841796875	0.57763671875	lower	../fonts/amplitud.ttf
2243366	WORD	wordpools/wasnorm_wordpool_less_exclusions.txt	LTP333	ltpFR	0	13	1	ELM	527	n/a	1	1	0.412841796875	0.57763671875	lower	../fonts/amplitud.ttf
2247581	WORD	wordpools/wasnorm_wordpool_less_exclusions.txt	LTP333	ltpFR	0	13	0	SHORE	1291	n/a	1	0	0.5869140625	0.422607421875	upper	../fonts/zerothre.ttf
2251746	WORD	wordpools/wasnorm_wordpool_less_exclusions.txt	LTP333	ltpFR	0	13	0	SNORKEL	1336	n/a	0	0	0.5869140625	0.422607421875	upper	../fonts/zerothre.ttf
2255760	WORD	wordpools/wasnorm_wordpool_less_exclusions.txt	LTP333	ltpFR	0	13	1	DANDELION	438	n/a	1	1	0.412841796875	0.57763671875	lower	../fonts/amplitud.ttf
2259993	WORD	wordpools/wasnorm_wordpool_less_exclusions.txt	LTP333	ltpFR	0	13	1	PASTRY	1022	n/a	0	1	0.412841796875	0.57763671875	lower	../fonts/amplitud.ttf
2264090	WORD	wordpools/wasnorm_wordpool_less_exclusions.txt	LTP333	ltpFR	0	13	1	COOKIE	374	n/a	0	1	0.412841796875	0.57763671875	lower	../fonts/amplitud.ttf
2268321	WORD	wordpools/wasnorm_wordpool_less_exclusions.txt	LTP333	ltpFR	0	13	1	CARPENTER	246	n/a	1	1	0.412841796875	0.57763671875	lower	../fonts/amplitud.ttf
2272336	WORD	wordpools/wasnorm_wordpool_less_exclusions.txt	LTP333	ltpFR	0	13	1	DIVER	476	n/a	1	1	0.412841796875	0.57763671875	lower	../fonts/amplitud.ttf
2276484	WORD	wordpools/wasnorm_wordpool_less_exclusions.txt	LTP333	ltpFR	0	13	0	ACORN	3	n/a	0	0	0.5869140625	0.422607421875	upper	../fonts/zerothre.ttf
2280366	WORD	wordpools/wasnorm_wordpool_less_exclusions.txt	LTP333	ltpFR	0	13	0	BUREAU	199	n/a	1	0	0.5869140625	0.422607421875	upper	../fonts/zerothre.ttf
2284514	WORD	wordpools/wasnorm_wordpool_less_exclusions.txt	LTP333	ltpFR	0	13	0	FIELD	562	n/a	1	0	0.5869140625	0.422607421875	upper	../fonts/zerothre.ttf
2290362	REC_START	n/a	LTP333	ltpFR	0	13	n/a	n/a	n/a	n/a	n/a	n/a	n/a	n/a	n/a	n/a
2291962	REC_WORD	wordpools/wasnorm_wordpool_less_exclusions.txt	LTP333	ltpFR	0	13	0	FIELD	562	n/a	1	n/a	n/a	n/a	n/a	n/a
2293122	REC_WORD	wordpools/wasnorm_wordpool_less_exclusions.txt	LTP333	ltpFR	0	13	0	SHORE	1291	n/a	1	n/a	n/a	n/a	n/a	n/a
2295042	REC_WORD	wordpools/wasnorm_wordpool_less_exclusions.txt	LTP333	ltpFR	0	13	0	ACORN	3	n/a	0	n/a	n/a	n/a	n/a	n/a
2296607	REC_WORD	wordpools/wasnorm_wordpool_less_exclusions.txt	LTP333	ltpFR	0	13	1	DIVER	476	n/a	1	n/a	n/a	n/a	n/a	n/a
2298207	REC_WORD	wordpools/wasnorm_wordpool_less_exclusions.txt	LTP333	ltpFR	0	13	0	SNORKEL	1336	n/a	0	n/a	n/a	n/a	n/a	n/a
2300218	REC_WORD	wordpools/wasnorm_wordpool_less_exclusions.txt	LTP333	ltpFR	0	13	0	BUREAU	199	n/a	1	n/a	n/a	n/a	n/a	n/a
2303773	REC_WORD	wordpools/wasnorm_wordpool_less_exclusions.txt	LTP333	ltpFR	0	13	1	DANDELION	438	n/a	1	n/a	n/a	n/a	n/a	n/a
2371108	WORD	wordpools/wasnorm_wordpool_less_exclusions.txt	LTP333	ltpFR	0	14	1	SCAPEGOAT	1244	n/a	1	1	0.412841796875	0.57763671875	lower	../fonts/amplitud.ttf
2375056	WORD	wordpools/wasnorm_wordpool_less_exclusions.txt	LTP333	ltpFR	0	14	1	COLT	349	n/a	1	1	0.412841796875	0.57763671875	lower	../fonts/amplitud.ttf
2379121	WORD	wordpools/wasnorm_wordpool_less_exclusions.txt	LTP333	ltpFR	0	14	1	STALLION	1369	n/a	1	1	0.412841796875	0.57763671875	lower	../fonts/amplitud.ttf
2383269	WORD	wordpools/wasnorm_wordpool_less_exclusions.txt	LTP333	ltpFR	0	14	0	YACHT	1629	n/a	1	0	0.5869140625	0.422607421875	upper	../fonts/zerothre.ttf
2387435	WORD	wordpools/wasnorm_wordpool_less_exclusions.txt	LTP333	ltpFR	0	14	0	NUT	965	n/a	0	0	0.5869140625	0.422607421875	upper	../fonts/zerothre.ttf
2391350	WORD	wordpools/wasnorm_wordpool_less_exclusions.txt	LTP333	ltpFR	0	14	0	JOURNAL	760	n/a	0	0	0.5869140625	0.422607421875	upper	../fonts/zerothre.ttf
2395431	WORD	wordpools/wasnorm_wordpool_less_exclusions.txt	LTP333	ltpFR	0	14	0	FLASK	576	n/a	0	0	0.5869140625	0.422607421875	upper	../fonts/zerothre.ttf
2399663	WORD	wordpools/wasnorm_wordpool_less_exclusions.txt	LTP333	ltpFR	0	14	1	HEDGE	699	n/a	1	1	0.412841796875	0.57763671875	lower	../fonts/amplitud.ttf
2403877	WORD	wordpools/wasnorm_wordpool_less_exclusions.txt	LTP333	ltpFR	0	14	1	PASSAGE	1019	n/a	0	1	0.412841796875	0.57763671875	lower	../fonts/amplitud.ttf
2407927	WORD	wordpools/wasnorm_wordpool_less_exclusions.txt	LTP333	ltpFR	0	14	1	WRITER	1627	n/a	1	1	0.412841796875	0.57763671875	lower	../fonts/amplitud.ttf
2412008	WORD	wordpools/wasnorm_wordpool_less_exclusions.txt	LTP333	ltpFR	0	14	0	DOLL	481	n/a	0	0	0.5869140625	0.422607421875	upper	../fonts/zerothre.ttf
2415940	WORD	wordpools/wasnorm_wordpool_less_exclusions.txt	LTP333	ltpFR	0	14	0	BURGLAR	200	n/a	1	0	0.5869140625	0.422607421875	upper	../fonts/zerothre.ttf
2420120	WORD	wordpools/wasnorm_wordpool_less_exclusions.txt	LTP333	ltpFR	0	14	0	SUSPECT	1415	n/a	1	0	0.5869140625	0.422607421875	upper	../fonts/zerothre.ttf
2424235	WORD	wordpools/wasnorm_wordpool_less_exclusions.txt	LTP333	ltpFR	0	14	0	WEED	1599	n/a	0	0	0.5869140625	0.422607421875	upper	../fonts/zerothre.ttf
2428300	WORD	wordpools/wasnorm_wordpool_less_exclusions.txt	LTP333	ltpFR	0	14	1	TENT	1449	n/a	0	1	0.412841796875	0.57763671875	lower	../fonts/amplitud.ttf
2432498	WORD	wordpools/wasnorm_wordpool_less_exclusions.txt	LTP333	ltpFR	0	14	1	CHAMPAGNE	278	n/a	0	1	0.412841796875	0.57763671875	lower	../fonts/amplitud.ttf
2438429	REC_START	n/a	LTP333	ltpFR	0	14	n/a	n/a	n/a	n/a	n/a	n/a	n/a	n/a	n/a	n/a
2439752	REC_WORD	wordpools/wasnorm_wordpool_less_exclusions.txt	LTP333	ltpFR	0	14	1	CHAMPAGNE	278	n/a	0	n/a	n/a	n/a	n/a	n/a
2441493	REC_WORD	wordpools/wasnorm_wordpool_less_exclusions.txt	LTP333	ltpFR	0	14	1	TENT	1449	n/a	0	n/a	n/a	n/a	n/a	n/a
2443368	REC_WORD	wordpools/wasnorm_wordpool_less_exclusions.txt	LTP333	ltpFR	0	14	1	SCAPEGOAT	1244	n/a	1	n/a	n/a	n/a	n/a	n/a
2446290	REC_WORD	wordpools/wasnorm_wordpool_less_exclusions.txt	LTP333	ltpFR	0	14	1	COLT	349	n/a	1	n/a	n/a	n/a	n/a	n/a
2448204	REC_WORD	wordpools/wasnorm_wordpool_less_exclusions.txt	LTP333	ltpFR	0	14	1	STALLION	1369	n/a	1	n/a	n/a	n/a	n/a	n/a
2450400	REC_WORD	wordpools/wasnorm_wordpool_less_exclusions.txt	LTP333	ltpFR	0	14	0	WEED	1599	n/a	0	n/a	n/a	n/a	n/a	n/a
2452154	REC_WORD	wordpools/wasnorm_wordpool_less_exclusions.txt	LTP333	ltpFR	0	14	0	NUT	965	n/a	0	n/a	n/a	n/a	n/a	n/a
2455617	REC_WORD	wordpools/wasnorm_wordpool_less_exclusions.txt	LTP333	ltpFR	0	14	0	BURGLAR	200	n/a	1	n/a	n/a	n/a	n/a	n/a
2456562	REC_WORD	wordpools/wasnorm_wordpool_less_exclusions.txt	LTP333	ltpFR	0	14	0	SUSPECT	1415	n/a	1	n/a	n/a	n/a	n/a	n/a
2469889	REC_WORD	wordpools/wasnorm_wordpool_less_exclusions.txt	LTP333	ltpFR	0	14	0	ACORN	3	n/a	0	n/a	n/a	n/a	n/a	n/a
2493480	REC_WORD	wordpools/wasnorm_wordpool_less_exclusions.txt	LTP333	ltpFR	0	14	1	TENT	1449	n/a	0	n/a	n/a	n/a	n/a	n/a
2522041	WORD	wordpools/wasnorm_wordpool_less_exclusions.txt	LTP333	ltpFR	0	15	1	EGG	518	n/a	1	1	0.412841796875	0.57763671875	lower	../fonts/amplitud.ttf
2526221	WORD	wordpools/wasnorm_wordpool_less_exclusions.txt	LTP333	ltpFR	0	15	1	CHIP	303	n/a	0	1	0.412841796875	0.57763671875	lower	../fonts/amplitud.ttf
2530069	WORD	wordpools/wasnorm_wordpool_less_exclusions.txt	LTP333	ltpFR	0	15	1	GOLD	647	n/a	0	1	0.412841796875	0.57763671875	lower	../fonts/amplitud.ttf
2534118	WORD	wordpools/wasnorm_wordpool_less_exclusions.txt	LTP333	ltpFR	0	15	0	METEOR	889	n/a	1	0	0.5869140625	0.422607421875	upper	../fonts/zerothre.ttf
2538216	WORD	wordpools/wasnorm_wordpool_less_exclusions.txt	LTP333	ltpFR	0	15	0	ATMOSPHERE	54	n/a	1	0	0.5869140625	0.422607421875	upper	../fonts/zerothre.ttf
2542331	WORD	wordpools/wasnorm_wordpool_less_exclusions.txt	LTP333	ltpFR	0	15	0	NET	946	n/a	1	0	0.5869140625	0.422607421875	upper	../fonts/zerothre.ttf
2546412	WORD	wordpools/wasnorm_wordpool_less_exclusions.txt	LTP333	ltpFR	0	15	0	ATHLETE	52	n/a	1	0	0.5869140625	0.422607421875	upper	../fonts/zerothre.ttf
2550444	WORD	wordpools/wasnorm_wordpool_less_exclusions.txt	LTP333	ltpFR	0	15	0	COACH	331	n/a	1	0	0.5869140625	0.422607421875	upper	../fonts/zerothre.ttf
2554592	WORD	wordpools/wasnorm_wordpool_less_exclusions.txt	LTP333	ltpFR	0	15	1	NECKLACE	940	n/a	0	1	0.412841796875	0.57763671875	lower	../fonts/amplitud.ttf
2558490	WORD	wordpools/wasnorm_wordpool_less_exclusions.txt	LTP333	ltpFR	0	15	1	FIG	563	n/a	1	1	0.412841796875	0.57763671875	lower	../fonts/amplitud.ttf
2562721	WORD	wordpools/wasnorm_wordpool_less_exclusions.txt	LTP333	ltpFR	0	15	1	PLUM	1090	n/a	1	1	0.412841796875	0.57763671875	lower	../fonts/amplitud.ttf
2566669	WORD	wordpools/wasnorm_wordpool_less_exclusions.txt	LTP333	ltpFR	0	15	1	OFFICER	973	n/a	1	1	0.412841796875	0.57763671875	lower	../fonts/amplitud.ttf
2570551	WORD	wordpools/wasnorm_wordpool_less_exclusions.txt	LTP333	ltpFR	0	15	1	PENGUIN	1044	n/a	1	1	0.412841796875	0.57763671875	lower	../fonts/amplitud.ttf
2574416	WORD	wordpools/wasnorm_wordpool_less_exclusions.txt	LTP333	ltpFR	0	15	0	CASHIER	254	n/a	1	0	0.5869140625	0.422607421875	upper	../fonts/zerothre.ttf
2578547	WORD	wordpools/wasnorm_wordpool_less_exclusions.txt	LTP333	ltpFR	0	15	0	WORM	1623	n/a	0	0	0.5869140625	0.422607421875	upper	../fonts/zerothre.ttf
2582596	WORD	wordpools/wasnorm_wordpool_less_exclusions.txt	LTP333	ltpFR	0	15	0	TOMATO	1476	n/a	0	0	0.5869140625	0.422607421875	upper	../fonts/zerothre.ttf
2588610	REC_START	n/a	LTP333	ltpFR	0	15	n/a	n/a	n/a	n/a	n/a	n/a	n/a	n/a	n/a	n/a
2590539	REC_WORD	wordpools/wasnorm_wordpool_less_exclusions.txt	LTP333	ltpFR	0	15	n/a	CASHEW	253	n/a	n/a	n/a	n/a	n/a	n/a	n/a
2591489	REC_WORD	wordpools/wasnorm_wordpool_less_exclusions.txt	LTP333	ltpFR	0	15	0	WORM	1623	n/a	0	n/a	n/a	n/a	n/a	n/a
2592401	REC_WORD	wordpools/wasnorm_wordpool_less_exclusions.txt	LTP333	ltpFR	0	15	0	TOMATO	1476	n/a	0	n/a	n/a	n/a	n/a	n/a
2593737	REC_WORD	wordpools/wasnorm_wordpool_less_exclusions.txt	LTP333	ltpFR	0	15	0	COACH	331	n/a	1	n/a	n/a	n/a	n/a	n/a
2595150	REC_WORD	wordpools/wasnorm_wordpool_less_exclusions.txt	LTP333	ltpFR	0	15	0	ATHLETE	52	n/a	1	n/a	n/a	n/a	n/a	n/a
2596876	REC_WORD	wordpools/wasnorm_wordpool_less_exclusions.txt	LTP333	ltpFR	0	15	1	EGG	518	n/a	1	n/a	n/a	n/a	n/a	n/a
2621689	REC_WORD	wordpools/wasnorm_wordpool_less_exclusions.txt	LTP333	ltpFR	0	15	0	CASHIER	254	n/a	1	n/a	n/a	n/a	n/a	n/a
2627414	REC_WORD	wordpools/wasnorm_wordpool_less_exclusions.txt	LTP333	ltpFR	0	15	0	METEOR	889	n/a	1	n/a	n/a	n/a	n/a	n/a
2628793	REC_WORD	wordpools/wasnorm_wordpool_less_exclusions.txt	LTP333	ltpFR	0	15	0	ATMOSPHERE	54	n/a	1	n/a	n/a	n/a	n/a	n/a
2678286	WORD	wordpools/wasnorm_wordpool_less_exclusions.txt	LTP333	ltpFR	0	16	0	ROCK	1201	n/a	0	0	0.5869140625	0.422607421875	upper	../fonts/zerothre.ttf
2682517	WORD	wordpools/wasnorm_wordpool_less_exclusions.txt	LTP333	ltpFR	0	16	0	CATERPILLAR	259	n/a	0	0	0.5869140625	0.422607421875	upper	../fonts/zerothre.ttf
2686382	WORD	wordpools/wasnorm_wordpool_less_exclusions.txt	LTP333	ltpFR	0	16	0	SWAN	1417	n/a	1	0	0.5869140625	0.422607421875	upper	../fonts/zerothre.ttf
2690447	WORD	wordpools/wasnorm_wordpool_less_exclusions.txt	LTP333	ltpFR	0	16	0	LIGHTNING	820	n/a	1	0	0.5869140625	0.422607421875	upper	../fonts/zerothre.ttf
2694295	WORD	wordpools/wasnorm_wordpool_less_exclusions.txt	LTP333	ltpFR	0	16	1	INSECT	740	n/a	1	1	0.412841796875	0.57763671875	lower	../fonts/amplitud.ttf
2698343	WORD	wordpools/wasnorm_wordpool_less_exclusions.txt	LTP333	ltpFR	0	16	1	STAMP	1370	n/a	0	1	0.412841796875	0.57763671875	lower	../fonts/amplitud.ttf
2702508	WORD	wordpools/wasnorm_wordpool_less_exclusions.txt	LTP333	ltpFR	0	16	1	MAILMAN	858	n/a	1	1	0.412841796875	0.57763671875	lower	../fonts/amplitud.ttf
2706639	WORD	wordpools/wasnorm_wordpool_less_exclusions.txt	LTP333	ltpFR	0	16	1	PILL	1068	n/a	0	1	0.412841796875	0.57763671875	lower	../fonts/amplitud.ttf
2710671	WORD	wordpools/wasnorm_wordpool_less_exclusions.txt	LTP333	ltpFR	0	16	0	SPRINKLE	1359	n/a	n/a	0	0.5869140625	0.422607421875	upper	../fonts/zerothre.ttf
2713720	SLOW_MSG	n/a	LTP333	ltpFR	0	16	n/a	n/a	n/a	n/a	n/a	n/a	n/a	n/a	n/a	n/a
2716452	WORD	wordpools/wasnorm_wordpool_less_exclusions.txt	LTP333	ltpFR	0	16	0	ROOST	1208	n/a	0	0	0.5869140625	0.422607421875	upper	../fonts/zerothre.ttf
2720450	WORD	wordpools/wasnorm_wordpool_less_exclusions.txt	LTP333	ltpFR	0	16	0	BLOCKADE	137	n/a	1	0	0.5869140625	0.422607421875	upper	../fonts/zerothre.ttf
2724298	WORD	wordpools/wasnorm_wordpool_less_exclusions.txt	LTP333	ltpFR	0	16	0	GUARDIAN	668	n/a	1	0	0.5869140625	0.422607421875	upper	../fonts/zerothre.ttf
2728146	WORD	wordpools/wasnorm_wordpool_less_exclusions.txt	LTP333	ltpFR	0	16	1	PHOTO	1055	n/a	0	1	0.412841796875	0.57763671875	lower	../fonts/amplitud.ttf
2731996	WORD	wordpools/wasnorm_wordpool_less_exclusions.txt	LTP333	ltpFR	0	16	1	SKETCH	1315	n/a	0	1	0.412841796875	0.57763671875	lower	../fonts/amplitud.ttf
2735977	WORD	wordpools/wasnorm_wordpool_less_exclusions.txt	LTP333	ltpFR	0	16	1	PIZZA	1079	n/a	0	1	0.412841796875	0.57763671875	lower	../fonts/amplitud.ttf
2740091	WORD	wordpools/wasnorm_wordpool_less_exclusions.txt	LTP333	ltpFR	0	16	1	GARLIC	624	n/a	1	1	0.412841796875	0.57763671875	lower	../fonts/amplitud.ttf
2745872	REC_START	n/a	LTP333	ltpFR	0	16	n/a	n/a	n/a	n/a	n/a	n/a	n/a	n/a	n/a	n/a
2748809	REC_WORD	wordpools/wasnorm_wordpool_less_exclusions.txt	LTP333	ltpFR	0	16	1	GARLIC	624	n/a	1	n/a	n/a	n/a	n/a	n/a
2750109	REC_WORD	wordpools/wasnorm_wordpool_less_exclusions.txt	LTP333	ltpFR	0	16	0	ROOST	1208	n/a	0	n/a	n/a	n/a	n/a	n/a
2766939	REC_WORD	wordpools/wasnorm_wordpool_less_exclusions.txt	LTP333	ltpFR	0	16	0	CATERPILLAR	259	n/a	0	n/a	n/a	n/a	n/a	n/a
2781069	REC_WORD	wordpools/wasnorm_wordpool_less_exclusions.txt	LTP333	ltpFR	0	16	0	LIGHTNING	820	n/a	1	n/a	n/a	n/a	n/a	n/a
2858988	REC_START	n/a	LTP333	ltpFR	0	n/a	n/a	n/a	n/a	n/a	n/a	n/a	n/a	n/a	n/a	n/a
2860421	FFR_REC_WORD	wordpools/wasnorm_wordpool_less_exclusions.txt	LTP333	ltpFR	0	n/a	0	CASHIER	254	n/a	1	n/a	n/a	n/a	n/a	n/a
2862114	FFR_REC_WORD	wordpools/wasnorm_wordpool_less_exclusions.txt	LTP333	ltpFR	0	n/a	0	ACORN	3	n/a	0	n/a	n/a	n/a	n/a	n/a
2863103	FFR_REC_WORD	wordpools/wasnorm_wordpool_less_exclusions.txt	LTP333	ltpFR	0	n/a	0	METEOR	889	n/a	1	n/a	n/a	n/a	n/a	n/a
2864242	FFR_REC_WORD	wordpools/wasnorm_wordpool_less_exclusions.txt	LTP333	ltpFR	0	n/a	0	ATMOSPHERE	54	n/a	1	n/a	n/a	n/a	n/a	n/a
2865930	FFR_REC_WORD	wordpools/wasnorm_wordpool_less_exclusions.txt	LTP333	ltpFR	0	n/a	0	LIGHTNING	820	n/a	1	n/a	n/a	n/a	n/a	n/a
2867327	FFR_REC_WORD	wordpools/wasnorm_wordpool_less_exclusions.txt	LTP333	ltpFR	0	n/a	1	PASSENGER	1020	n/a	1	n/a	n/a	n/a	n/a	n/a
2868232	FFR_REC_WORD	wordpools/wasnorm_wordpool_less_exclusions.txt	LTP333	ltpFR	0	n/a	-1	CONDUCTOR	362	n/a	-1	n/a	n/a	n/a	n/a	n/a
2870128	FFR_REC_WORD	wordpools/wasnorm_wordpool_less_exclusions.txt	LTP333	ltpFR	0	n/a	0	BURGLAR	200	n/a	1	n/a	n/a	n/a	n/a	n/a
2872066	FFR_REC_WORD	wordpools/wasnorm_wordpool_less_exclusions.txt	LTP333	ltpFR	0	n/a	0	GUARD	667	n/a	1	n/a	n/a	n/a	n/a	n/a
2873575	FFR_REC_WORD	wordpools/wasnorm_wordpool_less_exclusions.txt	LTP333	ltpFR	0	n/a	1	SCAPEGOAT	1244	n/a	1	n/a	n/a	n/a	n/a	n/a
2874960	FFR_REC_WORD	wordpools/wasnorm_wordpool_less_exclusions.txt	LTP333	ltpFR	0	n/a	1	COLT	349	n/a	1	n/a	n/a	n/a	n/a	n/a
2876963	FFR_REC_WORD	wordpools/wasnorm_wordpool_less_exclusions.txt	LTP333	ltpFR	0	n/a	-1	FRUIT	610	n/a	-1	n/a	n/a	n/a	n/a	n/a
2879183	FFR_REC_WORD	wordpools/wasnorm_wordpool_less_exclusions.txt	LTP333	ltpFR	0	n/a	0	CITRUS	313	n/a	0	n/a	n/a	n/a	n/a	n/a
2880735	FFR_REC_WORD	wordpools/wasnorm_wordpool_less_exclusions.txt	LTP333	ltpFR	0	n/a	0	LIME	823	n/a	0	n/a	n/a	n/a	n/a	n/a
2883319	FFR_REC_WORD	wordpools/wasnorm_wordpool_less_exclusions.txt	LTP333	ltpFR	0	n/a	-1	CHERRY	293	n/a	-1	n/a	n/a	n/a	n/a	n/a
2884694	FFR_REC_WORD	wordpools/wasnorm_wordpool_less_exclusions.txt	LTP333	ltpFR	0	n/a	0	APPLE	33	n/a	0	n/a	n/a	n/a	n/a	n/a
2888058	FFR_REC_WORD	wordpools/wasnorm_wordpool_less_exclusions.txt	LTP333	ltpFR	0	n/a	0	WINGS	1614	n/a	0	n/a	n/a	n/a	n/a	n/a
2889565	FFR_REC_WORD	wordpools/wasnorm_wordpool_less_exclusions.txt	LTP333	ltpFR	0	n/a	0	NUT	965	n/a	0	n/a	n/a	n/a	n/a	n/a
2891031	FFR_REC_WORD	wordpools/wasnorm_wordpool_less_exclusions.txt	LTP333	ltpFR	0	n/a	0	WEED	1599	n/a	0	n/a	n/a	n/a	n/a	n/a
2894487	FFR_REC_WORD	wordpools/wasnorm_wordpool_less_exclusions.txt	LTP333	ltpFR	0	n/a	0	TACK	1428	n/a	0	n/a	n/a	n/a	n/a	n/a
2895558	FFR_REC_WORD	wordpools/wasnorm_wordpool_less_exclusions.txt	LTP333	ltpFR	0	n/a	0	NAIL	936	n/a	0	n/a	n/a	n/a	n/a	n/a
2897579	FFR_REC_WORD	wordpools/wasnorm_wordpool_less_exclusions.txt	LTP333	ltpFR	0	n/a	0	WORM	1623	n/a	0	n/a	n/a	n/a	n/a	n/a
2898831	FFR_REC_WORD	wordpools/wasnorm_wordpool_less_exclusions.txt	LTP333	ltpFR	0	n/a	0	CATERPILLAR	259	n/a	0	n/a	n/a	n/a	n/a	n/a
2900959	FFR_REC_WORD	wordpools/wasnorm_wordpool_less_exclusions.txt	LTP333	ltpFR	0	n/a	0	EAGLE	512	n/a	1	n/a	n/a	n/a	n/a	n/a
2905361	FFR_REC_WORD	wordpools/wasnorm_wordpool_less_exclusions.txt	LTP333	ltpFR	0	n/a	0	TYPEWRITER	1531	n/a	0	n/a	n/a	n/a	n/a	n/a
2906764	FFR_REC_WORD	wordpools/wasnorm_wordpool_less_exclusions.txt	LTP333	ltpFR	0	n/a	-1	TYPIST	1532	n/a	-1	n/a	n/a	n/a	n/a	n/a
2913553	FFR_REC_WORD	wordpools/wasnorm_wordpool_less_exclusions.txt	LTP333	ltpFR	0	n/a	0	SHORE	1291	n/a	1	n/a	n/a	n/a	n/a	n/a
2915634	FFR_REC_WORD	wordpools/wasnorm_wordpool_less_exclusions.txt	LTP333	ltpFR	0	n/a	0	RIVER	1194	n/a	1	n/a	n/a	n/a	n/a	n/a
2916760	FFR_REC_WORD	wordpools/wasnorm_wordpool_less_exclusions.txt	LTP333	ltpFR	0	n/a	0	CREEK	404	n/a	1	n/a	n/a	n/a	n/a	n/a
2922737	FFR_REC_WORD	wordpools/wasnorm_wordpool_less_exclusions.txt	LTP333	ltpFR	0	n/a	n/a	PERSON	1052	n/a	n/a	n/a	n/a	n/a	n/a	n/a
2923687	FFR_REC_WORD	wordpools/wasnorm_wordpool_less_exclusions.txt	LTP333	ltpFR	0	n/a	1	HUMAN	726	n/a	1	n/a	n/a	n/a	n/a	n/a
2928031	FFR_REC_WORD	wordpools/wasnorm_wordpool_less_exclusions.txt	LTP333	ltpFR	0	n/a	0	FOUNTAIN	597	n/a	1	n/a	n/a	n/a	n/a	n/a
2937585	FFR_REC_WORD	wordpools/wasnorm_wordpool_less_exclusions.txt	LTP333	ltpFR	0	n/a	1	BEAST	108	n/a	1	n/a	n/a	n/a	n/a	n/a
2938590	FFR_REC_WORD	wordpools/wasnorm_wordpool_less_exclusions.txt	LTP333	ltpFR	0	n/a	1	MEAT	883	n/a	0	n/a	n/a	n/a	n/a	n/a
2940540	FFR_REC_WORD	wordpools/wasnorm_wordpool_less_exclusions.txt	LTP333	ltpFR	0	n/a	0	HAM	678	n/a	0	n/a	n/a	n/a	n/a	n/a
2941540	FFR_REC_WORD	wordpools/wasnorm_wordpool_less_exclusions.txt	LTP333	ltpFR	0	n/a	0	PORK	1108	n/a	0	n/a	n/a	n/a	n/a	n/a
2949806	FFR_REC_WORD	wordpools/wasnorm_wordpool_less_exclusions.txt	LTP333	ltpFR	0	n/a	0	FOLDER	588	n/a	0	n/a	n/a	n/a	n/a	n/a
2951398	FFR_REC_WORD	wordpools/wasnorm_wordpool_less_exclusions.txt	LTP333	ltpFR	0	n/a	0	CYLINDER	432	n/a	1	n/a	n/a	n/a	n/a	n/a
2959274	FFR_REC_WORD	wordpools/wasnorm_wordpool_less_exclusions.txt	LTP333	ltpFR	0	n/a	0	TICKET	1464	n/a	0	n/a	n/a	n/a	n/a	n/a
2966221	FFR_REC_WORD	wordpools/wasnorm_wordpool_less_exclusions.txt	LTP333	ltpFR	0	n/a	-1	CHERRY	293	n/a	-1	n/a	n/a	n/a	n/a	n/a
2971977	FFR_REC_WORD	wordpools/wasnorm_wordpool_less_exclusions.txt	LTP333	ltpFR	0	n/a	0	REFRIGERATOR	1179	n/a	1	n/a	n/a	n/a	n/a	n/a
2976365	FFR_REC_WORD	wordpools/wasnorm_wordpool_less_exclusions.txt	LTP333	ltpFR	0	n/a	1	DANDELION	438	n/a	1	n/a	n/a	n/a	n/a	n/a
3009095	FFR_REC_WORD	wordpools/wasnorm_wordpool_less_exclusions.txt	LTP333	ltpFR	0	n/a	n/a	MATCH	878	n/a	n/a	n/a	n/a	n/a	n/a	n/a
3032535	FFR_REC_WORD	wordpools/wasnorm_wordpool_less_exclusions.txt	LTP333	ltpFR	0	n/a	n/a	MECHANIC	884	n/a	n/a	n/a	n/a	n/a	n/a	n/a
3037569	FFR_REC_WORD	wordpools/wasnorm_wordpool_less_exclusions.txt	LTP333	ltpFR	0	n/a	1	DICTATOR	462	n/a	1	n/a	n/a	n/a	n/a	n/a
3043621	FFR_REC_WORD	wordpools/wasnorm_wordpool_less_exclusions.txt	LTP333	ltpFR	0	n/a	0	MARINE	869	n/a	1	n/a	n/a	n/a	n/a	n/a
3081737	FFR_REC_WORD	wordpools/wasnorm_wordpool_less_exclusions.txt	LTP333	ltpFR	0	n/a	0	INSTRUCTOR	741	n/a	1	n/a	n/a	n/a	n/a	n/a
3130611	FFR_REC_WORD	wordpools/wasnorm_wordpool_less_exclusions.txt	LTP333	ltpFR	0	n/a	1	LUNCH	849	n/a	0	n/a	n/a	n/a	n/a	n/a
3159634	REST_REWET	n/a	LTP333	ltpFR	0	16	n/a	n/a	n/a	n/a	n/a	n/a	n/a	n/a	n/a	n/a
3313051	REC_START	n/a	LTP333	ltpFR	0	1	n/a	n/a	n/a	n/a	n/a	n/a	n/a	n/a	n/a	n/a
3313081	RECOG_TARGET	n/a	LTP333	ltpFR	0	1	0	TACK	1428	5	0	n/a	n/a	n/a	n/a	n/a
3315830	RECOG_RESP	n/a	LTP333	ltpFR	0	1	0	TACK	1428	n/a	0	n/a	n/a	n/a	n/a	n/a
3320398	RECOG_CONF	n/a	LTP333	ltpFR	0	1	0	TACK	1428	5	0	n/a	n/a	n/a	n/a	n/a
3323560	RECOG_TARGET	n/a	LTP333	ltpFR	0	1	0	LIGHTNING	820	5	1	n/a	n/a	n/a	n/a	n/a
3324980	RECOG_RESP	n/a	LTP333	ltpFR	0	1	0	LIGHTNING	820	n/a	1	n/a	n/a	n/a	n/a	n/a
3327508	RECOG_CONF	n/a	LTP333	ltpFR	0	1	0	LIGHTNING	820	5	1	n/a	n/a	n/a	n/a	n/a
3329707	RECOG_TARGET	n/a	LTP333	ltpFR	0	1	1	SEAL	1262	3	1	n/a	n/a	n/a	n/a	n/a
3331995	RECOG_RESP	n/a	LTP333	ltpFR	0	1	1	SEAL	1262	n/a	1	n/a	n/a	n/a	n/a	n/a
3335066	RECOG_CONF	n/a	LTP333	ltpFR	0	1	1	SEAL	1262	3	1	n/a	n/a	n/a	n/a	n/a
3337570	RECOG_LURE	n/a	LTP333	ltpFR	0	1	n/a	BARK	87	4	n/a	n/a	n/a	n/a	n/a	n/a
3339089	RECOG_RESP	n/a	LTP333	ltpFR	0	1	n/a	BARK	87	n/a	n/a	n/a	n/a	n/a	n/a	n/a
3343678	RECOG_CONF	n/a	LTP333	ltpFR	0	1	n/a	BARK	87	4	n/a	n/a	n/a	n/a	n/a	n/a
3346066	RECOG_LURE	n/a	LTP333	ltpFR	0	1	n/a	INTESTINE	742	5	n/a	n/a	n/a	n/a	n/a	n/a
3347894	RECOG_RESP	n/a	LTP333	ltpFR	0	1	n/a	INTESTINE	742	n/a	n/a	n/a	n/a	n/a	n/a	n/a
3350368	RECOG_CONF	n/a	LTP333	ltpFR	0	1	n/a	INTESTINE	742	5	n/a	n/a	n/a	n/a	n/a	n/a
3352613	RECOG_LURE	n/a	LTP333	ltpFR	0	1	n/a	BRANDY	169	5	n/a	n/a	n/a	n/a	n/a	n/a
3353889	RECOG_RESP	n/a	LTP333	ltpFR	0	1	n/a	BRANDY	169	n/a	n/a	n/a	n/a	n/a	n/a	n/a
3357178	RECOG_CONF	n/a	LTP333	ltpFR	0	1	n/a	BRANDY	169	5	n/a	n/a	n/a	n/a	n/a	n/a
3358928	RECOG_LURE	n/a	LTP333	ltpFR	0	1	n/a	TUTU	1524	5	n/a	n/a	n/a	n/a	n/a	n/a
3360094	RECOG_RESP	n/a	LTP333	ltpFR	0	1	n/a	TUTU	1524	n/a	n/a	n/a	n/a	n/a	n/a	n/a
3362058	RECOG_CONF	n/a	LTP333	ltpFR	0	1	n/a	TUTU	1524	5	n/a	n/a	n/a	n/a	n/a	n/a
3364108	RECOG_TARGET	n/a	LTP333	ltpFR	0	1	-1	BAND	78	2	-1	n/a	n/a	n/a	n/a	n/a
3365869	RECOG_RESP	n/a	LTP333	ltpFR	0	1	-1	BAND	78	n/a	-1	n/a	n/a	n/a	n/a	n/a
3368183	RECOG_CONF	n/a	LTP333	ltpFR	0	1	-1	BAND	78	2	-1	n/a	n/a	n/a	n/a	n/a
3370172	RECOG_TARGET	n/a	LTP333	ltpFR	0	1	-1	GREASE	660	5	-1	n/a	n/a	n/a	n/a	n/a
3371495	RECOG_RESP	n/a	LTP333	ltpFR	0	1	-1	GREASE	660	n/a	-1	n/a	n/a	n/a	n/a	n/a
3373438	RECOG_CONF	n/a	LTP333	ltpFR	0	1	-1	GREASE	660	5	-1	n/a	n/a	n/a	n/a	n/a
3375336	RECOG_TARGET	n/a	LTP333	ltpFR	0	1	1	ELM	527	3	1	n/a	n/a	n/a	n/a	n/a
3377224	RECOG_RESP	n/a	LTP333	ltpFR	0	1	1	ELM	527	n/a	1	n/a	n/a	n/a	n/a	n/a
3379676	RECOG_CONF	n/a	LTP333	ltpFR	0	1	1	ELM	527	3	1	n/a	n/a	n/a	n/a	n/a
3381617	RECOG_TARGET	n/a	LTP333	ltpFR	0	1	0	EAGLE	512	5	1	n/a	n/a	n/a	n/a	n/a
3382680	RECOG_RESP	n/a	LTP333	ltpFR	0	1	0	EAGLE	512	n/a	1	n/a	n/a	n/a	n/a	n/a
3384808	RECOG_CONF	n/a	LTP333	ltpFR	0	1	0	EAGLE	512	5	1	n/a	n/a	n/a	n/a	n/a
3386631	RECOG_TARGET	n/a	LTP333	ltpFR	0	1	1	COMB	351	4	0	n/a	n/a	n/a	n/a	n/a
3387990	RECOG_RESP	n/a	LTP333	ltpFR	0	1	1	COMB	351	n/a	0	n/a	n/a	n/a	n/a	n/a
3390018	RECOG_CONF	n/a	LTP333	ltpFR	0	1	1	COMB	351	4	0	n/a	n/a	n/a	n/a	n/a
3392030	RECOG_TARGET	n/a	LTP333	ltpFR	0	1	1	NAVIGATOR	938	2	1	n/a	n/a	n/a	n/a	n/a
3393980	RECOG_RESP	n/a	LTP333	ltpFR	0	1	1	NAVIGATOR	938	n/a	1	n/a	n/a	n/a	n/a	n/a
3395963	RECOG_CONF	n/a	LTP333	ltpFR	0	1	1	NAVIGATOR	938	2	1	n/a	n/a	n/a	n/a	n/a
3397994	RECOG_LURE	n/a	LTP333	ltpFR	0	1	n/a	LASH	802	1	n/a	n/a	n/a	n/a	n/a	n/a
3400739	RECOG_RESP	n/a	LTP333	ltpFR	0	1	n/a	LASH	802	n/a	n/a	n/a	n/a	n/a	n/a	n/a
3402573	RECOG_CONF	n/a	LTP333	ltpFR	0	1	n/a	LASH	802	1	n/a	n/a	n/a	n/a	n/a	n/a
3404473	RECOG_LURE	n/a	LTP333	ltpFR	0	1	n/a	BAKER	71	2	n/a	n/a	n/a	n/a	n/a	n/a
3406180	RECOG_RESP	n/a	LTP333	ltpFR	0	1	n/a	BAKER	71	n/a	n/a	n/a	n/a	n/a	n/a	n/a
3408113	RECOG_CONF	n/a	LTP333	ltpFR	0	1	n/a	BAKER	71	2	n/a	n/a	n/a	n/a	n/a	n/a
3410038	RECOG_TARGET	n/a	LTP333	ltpFR	0	1	1	MEADOW	881	5	0	n/a	n/a	n/a	n/a	n/a
3411550	RECOG_RESP	n/a	LTP333	ltpFR	0	1	1	MEADOW	881	n/a	0	n/a	n/a	n/a	n/a	n/a
3413178	RECOG_CONF	n/a	LTP333	ltpFR	0	1	1	MEADOW	881	5	0	n/a	n/a	n/a	n/a	n/a
3415118	RECOG_TARGET	n/a	LTP333	ltpFR	0	1	1	CHAPEL	280	5	0	n/a	n/a	n/a	n/a	n/a
3416025	RECOG_RESP	n/a	LTP333	ltpFR	0	1	1	CHAPEL	280	n/a	0	n/a	n/a	n/a	n/a	n/a
3417618	RECOG_CONF	n/a	LTP333	ltpFR	0	1	1	CHAPEL	280	5	0	n/a	n/a	n/a	n/a	n/a
3419683	RECOG_LURE	n/a	LTP333	ltpFR	0	1	n/a	SPACE	1345	1	n/a	n/a	n/a	n/a	n/a	n/a
3422390	RECOG_RESP	n/a	LTP333	ltpFR	0	1	n/a	SPACE	1345	n/a	n/a	n/a	n/a	n/a	n/a	n/a
3423883	RECOG_CONF	n/a	LTP333	ltpFR	0	1	n/a	SPACE	1345	1	n/a	n/a	n/a	n/a	n/a	n/a
3425730	RECOG_TARGET	n/a	LTP333	ltpFR	0	1	1	DIVER	476	3	1	n/a	n/a	n/a	n/a	n/a
3427675	RECOG_RESP	n/a	LTP333	ltpFR	0	1	1	DIVER	476	n/a	1	n/a	n/a	n/a	n/a	n/a
3429696	RECOG_CONF	n/a	LTP333	ltpFR	0	1	1	DIVER	476	3	1	n/a	n/a	n/a	n/a	n/a
3431528	RECOG_LURE	n/a	LTP333	ltpFR	0	1	n/a	EMPEROR	529	4	n/a	n/a	n/a	n/a	n/a	n/a
3432749	RECOG_RESP	n/a	LTP333	ltpFR	0	1	n/a	EMPEROR	529	n/a	n/a	n/a	n/a	n/a	n/a	n/a
3434058	RECOG_CONF	n/a	LTP333	ltpFR	0	1	n/a	EMPEROR	529	4	n/a	n/a	n/a	n/a	n/a	n/a
3461456	REC_START	n/a	LTP333	ltpFR	0	2	n/a	n/a	n/a	n/a	n/a	n/a	n/a	n/a	n/a	n/a
3461481	RECOG_TARGET	n/a	LTP333	ltpFR	0	2	1	TOURIST	1488	3	1	n/a	n/a	n/a	n/a	n/a
3462915	RECOG_RESP	n/a	LTP333	ltpFR	0	2	1	TOURIST	1488	n/a	1	n/a	n/a	n/a	n/a	n/a
3465881	RECOG_CONF	n/a	LTP333	ltpFR	0	2	1	TOURIST	1488	3	1	n/a	n/a	n/a	n/a	n/a
3467811	RECOG_LURE	n/a	LTP333	ltpFR	0	2	n/a	NIECE	952	4	n/a	n/a	n/a	n/a	n/a	n/a
3468939	RECOG_RESP	n/a	LTP333	ltpFR	0	2	n/a	NIECE	952	n/a	n/a	n/a	n/a	n/a	n/a	n/a
3470503	RECOG_CONF	n/a	LTP333	ltpFR	0	2	n/a	NIECE	952	4	n/a	n/a	n/a	n/a	n/a	n/a
3472242	RECOG_TARGET	n/a	LTP333	ltpFR	0	2	1	LUNCH	849	4	0	n/a	n/a	n/a	n/a	n/a
3473930	RECOG_RESP	n/a	LTP333	ltpFR	0	2	1	LUNCH	849	n/a	0	n/a	n/a	n/a	n/a	n/a
3475703	RECOG_CONF	n/a	LTP333	ltpFR	0	2	1	LUNCH	849	4	0	n/a	n/a	n/a	n/a	n/a
3477423	RECOG_LURE	n/a	LTP333	ltpFR	0	2	n/a	TOOTHPASTE	1483	2	n/a	n/a	n/a	n/a	n/a	n/a
3479425	RECOG_RESP	n/a	LTP333	ltpFR	0	2	n/a	TOOTHPASTE	1483	n/a	n/a	n/a	n/a	n/a	n/a	n/a
3480858	RECOG_CONF	n/a	LTP333	ltpFR	0	2	n/a	TOOTHPASTE	1483	2	n/a	n/a	n/a	n/a	n/a	n/a
3482638	RECOG_TARGET	n/a	LTP333	ltpFR	0	2	-1	PILOT	1070	1	-1	n/a	n/a	n/a	n/a	n/a
3484844	RECOG_RESP	n/a	LTP333	ltpFR	0	2	-1	PILOT	1070	n/a	-1	n/a	n/a	n/a	n/a	n/a
3487118	RECOG_CONF	n/a	LTP333	ltpFR	0	2	-1	PILOT	1070	1	-1	n/a	n/a	n/a	n/a	n/a
3488802	RECOG_LURE	n/a	LTP333	ltpFR	0	2	n/a	LAPEL	800	5	n/a	n/a	n/a	n/a	n/a	n/a
3489944	RECOG_RESP	n/a	LTP333	ltpFR	0	2	n/a	LAPEL	800	n/a	n/a	n/a	n/a	n/a	n/a	n/a
3491353	RECOG_CONF	n/a	LTP333	ltpFR	0	2	n/a	LAPEL	800	5	n/a	n/a	n/a	n/a	n/a	n/a
3493266	RECOG_TARGET	n/a	LTP333	ltpFR	0	2	-1	ELECTRON	522	4	-1	n/a	n/a	n/a	n/a	n/a
3494144	RECOG_RESP	n/a	LTP333	ltpFR	0	2	-1	ELECTRON	522	n/a	-1	n/a	n/a	n/a	n/a	n/a
3496673	RECOG_CONF	n/a	LTP333	ltpFR	0	2	-1	ELECTRON	522	4	-1	n/a	n/a	n/a	n/a	n/a
3498497	RECOG_TARGET	n/a	LTP333	ltpFR	0	2	1	WOLF	1619	1	1	n/a	n/a	n/a	n/a	n/a
3500599	RECOG_RESP	n/a	LTP333	ltpFR	0	2	1	WOLF	1619	n/a	1	n/a	n/a	n/a	n/a	n/a
3502408	RECOG_CONF	n/a	LTP333	ltpFR	0	2	1	WOLF	1619	1	1	n/a	n/a	n/a	n/a	n/a
3504411	RECOG_TARGET	n/a	LTP333	ltpFR	0	2	-1	LOG	841	3	-1	n/a	n/a	n/a	n/a	n/a
3506654	RECOG_RESP	n/a	LTP333	ltpFR	0	2	-1	LOG	841	n/a	-1	n/a	n/a	n/a	n/a	n/a
3508851	RECOG_CONF	n/a	LTP333	ltpFR	0	2	-1	LOG	841	3	-1	n/a	n/a	n/a	n/a	n/a
3510492	RECOG_LURE	n/a	LTP333	ltpFR	0	2	n/a	FREEZER	604	2	n/a	n/a	n/a	n/a	n/a	n/a
3513489	RECOG_RESP	n/a	LTP333	ltpFR	0	2	n/a	FREEZER	604	n/a	n/a	n/a	n/a	n/a	n/a	n/a
3516658	RECOG_CONF	n/a	LTP333	ltpFR	0	2	n/a	FREEZER	604	2	n/a	n/a	n/a	n/a	n/a	n/a
3518488	RECOG_LURE	n/a	LTP333	ltpFR	0	2	n/a	FOOTBALL	591	5	n/a	n/a	n/a	n/a	n/a	n/a
3519799	RECOG_RESP	n/a	LTP333	ltpFR	0	2	n/a	FOOTBALL	591	n/a	n/a	n/a	n/a	n/a	n/a	n/a
3521483	RECOG_CONF	n/a	LTP333	ltpFR	0	2	n/a	FOOTBALL	591	5	n/a	n/a	n/a	n/a	n/a	n/a
3523236	RECOG_TARGET	n/a	LTP333	ltpFR	0	2	1	NECKLACE	940	1	0	n/a	n/a	n/a	n/a	n/a
3525880	RECOG_RESP	n/a	LTP333	ltpFR	0	2	1	NECKLACE	940	n/a	0	n/a	n/a	n/a	n/a	n/a
3528119	RECOG_CONF	n/a	LTP333	ltpFR	0	2	1	NECKLACE	940	1	0	n/a	n/a	n/a	n/a	n/a
3530149	RECOG_TARGET	n/a	LTP333	ltpFR	0	2	1	SPIT	1354	3	0	n/a	n/a	n/a	n/a	n/a
3532989	RECOG_RESP	n/a	LTP333	ltpFR	0	2	1	SPIT	1354	n/a	0	n/a	n/a	n/a	n/a	n/a
3535921	RECOG_CONF	n/a	LTP333	ltpFR	0	2	1	SPIT	1354	3	0	n/a	n/a	n/a	n/a	n/a
3537496	RECOG_LURE	n/a	LTP333	ltpFR	0	2	n/a	ATTORNEY	58	5	n/a	n/a	n/a	n/a	n/a	n/a
3538549	RECOG_RESP	n/a	LTP333	ltpFR	0	2	n/a	ATTORNEY	58	n/a	n/a	n/a	n/a	n/a	n/a	n/a
3539733	RECOG_CONF	n/a	LTP333	ltpFR	0	2	n/a	ATTORNEY	58	5	n/a	n/a	n/a	n/a	n/a	n/a
3541578	RECOG_TARGET	n/a	LTP333	ltpFR	0	2	1	CHIP	303	5	0	n/a	n/a	n/a	n/a	n/a
3542585	RECOG_RESP	n/a	LTP333	ltpFR	0	2	1	CHIP	303	n/a	0	n/a	n/a	n/a	n/a	n/a
3543453	RECOG_CONF	n/a	LTP333	ltpFR	0	2	1	CHIP	303	5	0	n/a	n/a	n/a	n/a	n/a
3545476	RECOG_TARGET	n/a	LTP333	ltpFR	0	2	0	LIMB	822	5	1	n/a	n/a	n/a	n/a	n/a
3546760	RECOG_RESP	n/a	LTP333	ltpFR	0	2	0	LIMB	822	n/a	1	n/a	n/a	n/a	n/a	n/a
3547963	RECOG_CONF	n/a	LTP333	ltpFR	0	2	0	LIMB	822	5	1	n/a	n/a	n/a	n/a	n/a
3549891	RECOG_TARGET	n/a	LTP333	ltpFR	0	2	-1	CONTAINER	366	1	-1	n/a	n/a	n/a	n/a	n/a
3553269	RECOG_RESP	n/a	LTP333	ltpFR	0	2	-1	CONTAINER	366	n/a	-1	n/a	n/a	n/a	n/a	n/a
3554848	RECOG_CONF	n/a	LTP333	ltpFR	0	2	-1	CONTAINER	366	1	-1	n/a	n/a	n/a	n/a	n/a
3556721	RECOG_TARGET	n/a	LTP333	ltpFR	0	2	0	SPOON	1357	5	0	n/a	n/a	n/a	n/a	n/a
3557960	RECOG_RESP	n/a	LTP333	ltpFR	0	2	0	SPOON	1357	n/a	0	n/a	n/a	n/a	n/a	n/a
3559013	RECOG_CONF	n/a	LTP333	ltpFR	0	2	0	SPOON	1357	5	0	n/a	n/a	n/a	n/a	n/a
3560819	RECOG_TARGET	n/a	LTP333	ltpFR	0	2	0	JUG	762	2	0	n/a	n/a	n/a	n/a	n/a
3565270	RECOG_RESP	n/a	LTP333	ltpFR	0	2	0	JUG	762	n/a	0	n/a	n/a	n/a	n/a	n/a
3566578	RECOG_CONF	n/a	LTP333	ltpFR	0	2	0	JUG	762	2	0	n/a	n/a	n/a	n/a	n/a
3568499	RECOG_TARGET	n/a	LTP333	ltpFR	0	2	0	NEWSSTAND	949	5	1	n/a	n/a	n/a	n/a	n/a
3569495	RECOG_RESP	n/a	LTP333	ltpFR	0	2	0	NEWSSTAND	949	n/a	1	n/a	n/a	n/a	n/a	n/a
3570333	RECOG_CONF	n/a	LTP333	ltpFR	0	2	0	NEWSSTAND	949	5	1	n/a	n/a	n/a	n/a	n/a
3574224	REC_START	n/a	LTP333	ltpFR	0	3	n/a	n/a	n/a	n/a	n/a	n/a	n/a	n/a	n/a	n/a
3574246	RECOG_TARGET	n/a	LTP333	ltpFR	0	3	0	CITRUS	313	5	0	n/a	n/a	n/a	n/a	n/a
3575188	RECOG_RESP	n/a	LTP333	ltpFR	0	3	0	CITRUS	313	n/a	0	n/a	n/a	n/a	n/a	n/a
3576231	RECOG_CONF	n/a	LTP333	ltpFR	0	3	0	CITRUS	313	5	0	n/a	n/a	n/a	n/a	n/a
3578128	RECOG_LURE	n/a	LTP333	ltpFR	0	3	n/a	MUSTARD	935	5	n/a	n/a	n/a	n/a	n/a	n/a
3580088	RECOG_RESP	n/a	LTP333	ltpFR	0	3	n/a	MUSTARD	935	n/a	n/a	n/a	n/a	n/a	n/a	n/a
3581151	RECOG_CONF	n/a	LTP333	ltpFR	0	3	n/a	MUSTARD	935	5	n/a	n/a	n/a	n/a	n/a	n/a
3583043	RECOG_LURE	n/a	LTP333	ltpFR	0	3	n/a	CURTAIN	427	2	n/a	n/a	n/a	n/a	n/a	n/a
3585517	RECOG_RESP	n/a	LTP333	ltpFR	0	3	n/a	CURTAIN	427	n/a	n/a	n/a	n/a	n/a	n/a	n/a
3587736	RECOG_CONF	n/a	LTP333	ltpFR	0	3	n/a	CURTAIN	427	2	n/a	n/a	n/a	n/a	n/a	n/a
3589406	RECOG_LURE	n/a	LTP333	ltpFR	0	3	n/a	FILM	565	1	n/a	n/a	n/a	n/a	n/a	n/a
3591897	RECOG_RESP	n/a	LTP333	ltpFR	0	3	n/a	FILM	565	n/a	n/a	n/a	n/a	n/a	n/a	n/a
3593176	RECOG_CONF	n/a	LTP333	ltpFR	0	3	n/a	FILM	565	1	n/a	n/a	n/a	n/a	n/a	n/a
3595220	RECOG_TARGET	n/a	LTP333	ltpFR	0	3	0	TYPEWRITER	1531	5	0	n/a	n/a	n/a	n/a	n/a
3596083	RECOG_RESP	n/a	LTP333	ltpFR	0	3	0	TYPEWRITER	1531	n/a	0	n/a	n/a	n/a	n/a	n/a
3597001	RECOG_CONF	n/a	LTP333	ltpFR	0	3	0	TYPEWRITER	1531	5	0	n/a	n/a	n/a	n/a	n/a
3598802	RECOG_TARGET	n/a	LTP333	ltpFR	0	3	1	DRYER	503	5	0	n/a	n/a	n/a	n/a	n/a
3599628	RECOG_RESP	n/a	LTP333	ltpFR	0	3	1	DRYER	503	n/a	0	n/a	n/a	n/a	n/a	n/a
3600591	RECOG_CONF	n/a	LTP333	ltpFR	0	3	1	DRYER	503	5	0	n/a	n/a	n/a	n/a	n/a
3602333	RECOG_TARGET	n/a	LTP333	ltpFR	0	3	0	ROOST	1208	5	0	n/a	n/a	n/a	n/a	n/a
3603068	RECOG_RESP	n/a	LTP333	ltpFR	0	3	0	ROOST	1208	n/a	0	n/a	n/a	n/a	n/a	n/a
3604041	RECOG_CONF	n/a	LTP333	ltpFR	0	3	0	ROOST	1208	5	0	n/a	n/a	n/a	n/a	n/a
3606115	RECOG_TARGET	n/a	LTP333	ltpFR	0	3	-1	FORT	595	5	-1	n/a	n/a	n/a	n/a	n/a
3607073	RECOG_RESP	n/a	LTP333	ltpFR	0	3	-1	FORT	595	n/a	-1	n/a	n/a	n/a	n/a	n/a
3607921	RECOG_CONF	n/a	LTP333	ltpFR	0	3	-1	FORT	595	5	-1	n/a	n/a	n/a	n/a	n/a
3609880	RECOG_TARGET	n/a	LTP333	ltpFR	0	3	0	BREAST	171	5	1	n/a	n/a	n/a	n/a	n/a
3610663	RECOG_RESP	n/a	LTP333	ltpFR	0	3	0	BREAST	171	n/a	1	n/a	n/a	n/a	n/a	n/a
3611471	RECOG_CONF	n/a	LTP333	ltpFR	0	3	0	BREAST	171	5	1	n/a	n/a	n/a	n/a	n/a
3613395	RECOG_TARGET	n/a	LTP333	ltpFR	0	3	0	BOUILLON	154	5	0	n/a	n/a	n/a	n/a	n/a
3614178	RECOG_RESP	n/a	LTP333	ltpFR	0	3	0	BOUILLON	154	n/a	0	n/a	n/a	n/a	n/a	n/a
3614951	RECOG_CONF	n/a	LTP333	ltpFR	0	3	0	BOUILLON	154	5	0	n/a	n/a	n/a	n/a	n/a
3616994	RECOG_TARGET	n/a	LTP333	ltpFR	0	3	0	CART	250	5	1	n/a	n/a	n/a	n/a	n/a
3617953	RECOG_RESP	n/a	LTP333	ltpFR	0	3	0	CART	250	n/a	1	n/a	n/a	n/a	n/a	n/a
3618931	RECOG_CONF	n/a	LTP333	ltpFR	0	3	0	CART	250	5	1	n/a	n/a	n/a	n/a	n/a
3620908	RECOG_TARGET	n/a	LTP333	ltpFR	0	3	0	LIME	823	5	0	n/a	n/a	n/a	n/a	n/a
3621633	RECOG_RESP	n/a	LTP333	ltpFR	0	3	0	LIME	823	n/a	0	n/a	n/a	n/a	n/a	n/a
3622731	RECOG_CONF	n/a	LTP333	ltpFR	0	3	0	LIME	823	5	0	n/a	n/a	n/a	n/a	n/a
3624673	RECOG_LURE	n/a	LTP333	ltpFR	0	3	n/a	PAINT	1003	3	n/a	n/a	n/a	n/a	n/a	n/a
3626968	RECOG_RESP	n/a	LTP333	ltpFR	0	3	n/a	PAINT	1003	n/a	n/a	n/a	n/a	n/a	n/a	n/a
3630389	RECOG_CONF	n/a	LTP333	ltpFR	0	3	n/a	PAINT	1003	3	n/a	n/a	n/a	n/a	n/a	n/a
3632153	RECOG_TARGET	n/a	LTP333	ltpFR	0	3	-1	RAG	1160	5	-1	n/a	n/a	n/a	n/a	n/a
3633108	RECOG_RESP	n/a	LTP333	ltpFR	0	3	-1	RAG	1160	n/a	-1	n/a	n/a	n/a	n/a	n/a
3634281	RECOG_CONF	n/a	LTP333	ltpFR	0	3	-1	RAG	1160	5	-1	n/a	n/a	n/a	n/a	n/a
3636168	RECOG_TARGET	n/a	LTP333	ltpFR	0	3	-1	PEACH	1031	2	-1	n/a	n/a	n/a	n/a	n/a
3638723	RECOG_RESP	n/a	LTP333	ltpFR	0	3	-1	PEACH	1031	n/a	-1	n/a	n/a	n/a	n/a	n/a
3641016	RECOG_CONF	n/a	LTP333	ltpFR	0	3	-1	PEACH	1031	2	-1	n/a	n/a	n/a	n/a	n/a
3642898	RECOG_TARGET	n/a	LTP333	ltpFR	0	3	-1	SUIT	1402	5	-1	n/a	n/a	n/a	n/a	n/a
3643803	RECOG_RESP	n/a	LTP333	ltpFR	0	3	-1	SUIT	1402	n/a	-1	n/a	n/a	n/a	n/a	n/a
3645091	RECOG_CONF	n/a	LTP333	ltpFR	0	3	-1	SUIT	1402	5	-1	n/a	n/a	n/a	n/a	n/a
3646981	RECOG_LURE	n/a	LTP333	ltpFR	0	3	n/a	SATURN	1236	4	n/a	n/a	n/a	n/a	n/a	n/a
3648552	RECOG_RESP	n/a	LTP333	ltpFR	0	3	n/a	SATURN	1236	n/a	n/a	n/a	n/a	n/a	n/a	n/a
3650631	RECOG_CONF	n/a	LTP333	ltpFR	0	3	n/a	SATURN	1236	4	n/a	n/a	n/a	n/a	n/a	n/a
3652661	RECOG_TARGET	n/a	LTP333	ltpFR	0	3	-1	COMMUNITY	356	5	-1	n/a	n/a	n/a	n/a	n/a
3653588	RECOG_RESP	n/a	LTP333	ltpFR	0	3	-1	COMMUNITY	356	n/a	-1	n/a	n/a	n/a	n/a	n/a
3654711	RECOG_CONF	n/a	LTP333	ltpFR	0	3	-1	COMMUNITY	356	5	-1	n/a	n/a	n/a	n/a	n/a
3656575	RECOG_TARGET	n/a	LTP333	ltpFR	0	3	0	SNORKEL	1336	5	0	n/a	n/a	n/a	n/a	n/a
3657393	RECOG_RESP	n/a	LTP333	ltpFR	0	3	0	SNORKEL	1336	n/a	0	n/a	n/a	n/a	n/a	n/a
3658491	RECOG_CONF	n/a	LTP333	ltpFR	0	3	0	SNORKEL	1336	5	0	n/a	n/a	n/a	n/a	n/a
3660540	RECOG_TARGET	n/a	LTP333	ltpFR	0	3	0	DOLL	481	5	0	n/a	n/a	n/a	n/a	n/a
3661848	RECOG_RESP	n/a	LTP333	ltpFR	0	3	0	DOLL	481	n/a	0	n/a	n/a	n/a	n/a	n/a
3663191	RECOG_CONF	n/a	LTP333	ltpFR	0	3	0	DOLL	481	5	0	n/a	n/a	n/a	n/a	n/a
3672715	REC_START	n/a	LTP333	ltpFR	0	4	n/a	n/a	n/a	n/a	n/a	n/a	n/a	n/a	n/a	n/a
3672735	RECOG_TARGET	n/a	LTP333	ltpFR	0	4	1	PENCIL	1042	3	0	n/a	n/a	n/a	n/a	n/a
3674419	RECOG_RESP	n/a	LTP333	ltpFR	0	4	1	PENCIL	1042	n/a	0	n/a	n/a	n/a	n/a	n/a
3675870	RECOG_CONF	n/a	LTP333	ltpFR	0	4	1	PENCIL	1042	3	0	n/a	n/a	n/a	n/a	n/a
3677666	RECOG_TARGET	n/a	LTP333	ltpFR	0	4	1	OFFICER	973	4	1	n/a	n/a	n/a	n/a	n/a
3679014	RECOG_RESP	n/a	LTP333	ltpFR	0	4	1	OFFICER	973	n/a	1	n/a	n/a	n/a	n/a	n/a
3680192	RECOG_CONF	n/a	LTP333	ltpFR	0	4	1	OFFICER	973	4	1	n/a	n/a	n/a	n/a	n/a
3682247	RECOG_TARGET	n/a	LTP333	ltpFR	0	4	1	GROCERIES	663	4	0	n/a	n/a	n/a	n/a	n/a
3683669	RECOG_RESP	n/a	LTP333	ltpFR	0	4	1	GROCERIES	663	n/a	0	n/a	n/a	n/a	n/a	n/a
3684882	RECOG_CONF	n/a	LTP333	ltpFR	0	4	1	GROCERIES	663	4	0	n/a	n/a	n/a	n/a	n/a
3686828	RECOG_LURE	n/a	LTP333	ltpFR	0	4	n/a	CUSTOMER	430	4	n/a	n/a	n/a	n/a	n/a	n/a
3687789	RECOG_RESP	n/a	LTP333	ltpFR	0	4	n/a	CUSTOMER	430	n/a	n/a	n/a	n/a	n/a	n/a	n/a
3689272	RECOG_CONF	n/a	LTP333	ltpFR	0	4	n/a	CUSTOMER	430	4	n/a	n/a	n/a	n/a	n/a	n/a
3690944	RECOG_TARGET	n/a	LTP333	ltpFR	0	4	1	HEDGE	699	5	1	n/a	n/a	n/a	n/a	n/a
3691944	RECOG_RESP	n/a	LTP333	ltpFR	0	4	1	HEDGE	699	n/a	1	n/a	n/a	n/a	n/a	n/a
3692862	RECOG_CONF	n/a	LTP333	ltpFR	0	4	1	HEDGE	699	5	1	n/a	n/a	n/a	n/a	n/a
3694458	RECOG_TARGET	n/a	LTP333	ltpFR	0	4	1	CONVENT	370	5	1	n/a	n/a	n/a	n/a	n/a
3695674	RECOG_RESP	n/a	LTP333	ltpFR	0	4	1	CONVENT	370	n/a	1	n/a	n/a	n/a	n/a	n/a
3696122	RECOG_CONF	n/a	LTP333	ltpFR	0	4	1	CONVENT	370	5	1	n/a	n/a	n/a	n/a	n/a
3698656	RECOG_TARGET	n/a	LTP333	ltpFR	0	4	0	SALESMAN	1225	3	1	n/a	n/a	n/a	n/a	n/a
3699869	RECOG_RESP	n/a	LTP333	ltpFR	0	4	0	SALESMAN	1225	n/a	1	n/a	n/a	n/a	n/a	n/a
3701990	RECOG_CONF	n/a	LTP333	ltpFR	0	4	0	SALESMAN	1225	3	1	n/a	n/a	n/a	n/a	n/a
3703904	RECOG_TARGET	n/a	LTP333	ltpFR	0	4	-1	TOOTHBRUSH	1482	3	-1	n/a	n/a	n/a	n/a	n/a
3705179	RECOG_RESP	n/a	LTP333	ltpFR	0	4	-1	TOOTHBRUSH	1482	n/a	-1	n/a	n/a	n/a	n/a	n/a
3707370	RECOG_CONF	n/a	LTP333	ltpFR	0	4	-1	TOOTHBRUSH	1482	3	-1	n/a	n/a	n/a	n/a	n/a
3708969	RECOG_TARGET	n/a	LTP333	ltpFR	0	4	0	ROCK	1201	5	0	n/a	n/a	n/a	n/a	n/a
3710049	RECOG_RESP	n/a	LTP333	ltpFR	0	4	0	ROCK	1201	n/a	0	n/a	n/a	n/a	n/a	n/a
3710522	RECOG_CONF	n/a	LTP333	ltpFR	0	4	0	ROCK	1201	5	0	n/a	n/a	n/a	n/a	n/a
3712850	RECOG_TARGET	n/a	LTP333	ltpFR	0	4	1	GARLIC	624	5	1	n/a	n/a	n/a	n/a	n/a
3713744	RECOG_RESP	n/a	LTP333	ltpFR	0	4	1	GARLIC	624	n/a	1	n/a	n/a	n/a	n/a	n/a
3714762	RECOG_CONF	n/a	LTP333	ltpFR	0	4	1	GARLIC	624	5	1	n/a	n/a	n/a	n/a	n/a
3716715	RECOG_TARGET	n/a	LTP333	ltpFR	0	4	1	STAKE	1368	5	0	n/a	n/a	n/a	n/a	n/a
3717504	RECOG_RESP	n/a	LTP333	ltpFR	0	4	1	STAKE	1368	n/a	0	n/a	n/a	n/a	n/a	n/a
3718352	RECOG_CONF	n/a	LTP333	ltpFR	0	4	1	STAKE	1368	5	0	n/a	n/a	n/a	n/a	n/a
3720263	RECOG_TARGET	n/a	LTP333	ltpFR	0	4	0	STEW	1380	5	1	n/a	n/a	n/a	n/a	n/a
3720979	RECOG_RESP	n/a	LTP333	ltpFR	0	4	0	STEW	1380	n/a	1	n/a	n/a	n/a	n/a	n/a
3722012	RECOG_CONF	n/a	LTP333	ltpFR	0	4	0	STEW	1380	5	1	n/a	n/a	n/a	n/a	n/a
3723878	RECOG_LURE	n/a	LTP333	ltpFR	0	4	n/a	KETCHUP	771	3	n/a	n/a	n/a	n/a	n/a	n/a
3725043	RECOG_RESP	n/a	LTP333	ltpFR	0	4	n/a	KETCHUP	771	n/a	n/a	n/a	n/a	n/a	n/a	n/a
3726870	RECOG_CONF	n/a	LTP333	ltpFR	0	4	n/a	KETCHUP	771	3	n/a	n/a	n/a	n/a	n/a	n/a
3728776	RECOG_TARGET	n/a	LTP333	ltpFR	0	4	0	BUG	187	5	0	n/a	n/a	n/a	n/a	n/a
3729849	RECOG_RESP	n/a	LTP333	ltpFR	0	4	0	BUG	187	n/a	0	n/a	n/a	n/a	n/a	n/a
3730862	RECOG_CONF	n/a	LTP333	ltpFR	0	4	0	BUG	187	5	0	n/a	n/a	n/a	n/a	n/a
3732791	RECOG_TARGET	n/a	LTP333	ltpFR	0	4	0	SHRINE	1298	5	1	n/a	n/a	n/a	n/a	n/a
3733609	RECOG_RESP	n/a	LTP333	ltpFR	0	4	0	SHRINE	1298	n/a	1	n/a	n/a	n/a	n/a	n/a
3734462	RECOG_CONF	n/a	LTP333	ltpFR	0	4	0	SHRINE	1298	5	1	n/a	n/a	n/a	n/a	n/a
3736306	RECOG_TARGET	n/a	LTP333	ltpFR	0	4	-1	FRUIT	610	5	-1	n/a	n/a	n/a	n/a	n/a
3737069	RECOG_RESP	n/a	LTP333	ltpFR	0	4	-1	FRUIT	610	n/a	-1	n/a	n/a	n/a	n/a	n/a
3737982	RECOG_CONF	n/a	LTP333	ltpFR	0	4	-1	FRUIT	610	5	-1	n/a	n/a	n/a	n/a	n/a
3739804	RECOG_TARGET	n/a	LTP333	ltpFR	0	4	1	SERVANT	1271	4	1	n/a	n/a	n/a	n/a	n/a
3740874	RECOG_RESP	n/a	LTP333	ltpFR	0	4	1	SERVANT	1271	n/a	1	n/a	n/a	n/a	n/a	n/a
3741952	RECOG_CONF	n/a	LTP333	ltpFR	0	4	1	SERVANT	1271	4	1	n/a	n/a	n/a	n/a	n/a
3743819	RECOG_TARGET	n/a	LTP333	ltpFR	0	4	0	ROPE	1211	5	0	n/a	n/a	n/a	n/a	n/a
3744529	RECOG_RESP	n/a	LTP333	ltpFR	0	4	0	ROPE	1211	n/a	0	n/a	n/a	n/a	n/a	n/a
3745382	RECOG_CONF	n/a	LTP333	ltpFR	0	4	0	ROPE	1211	5	0	n/a	n/a	n/a	n/a	n/a
3747351	RECOG_LURE	n/a	LTP333	ltpFR	0	4	n/a	CLOVE	329	1	n/a	n/a	n/a	n/a	n/a	n/a
3749468	RECOG_RESP	n/a	LTP333	ltpFR	0	4	n/a	CLOVE	329	n/a	n/a	n/a	n/a	n/a	n/a	n/a
3751097	RECOG_CONF	n/a	LTP333	ltpFR	0	4	n/a	CLOVE	329	1	n/a	n/a	n/a	n/a	n/a	n/a
3752966	RECOG_TARGET	n/a	LTP333	ltpFR	0	4	1	TIE	1466	5	0	n/a	n/a	n/a	n/a	n/a
3753769	RECOG_RESP	n/a	LTP333	ltpFR	0	4	1	TIE	1466	n/a	0	n/a	n/a	n/a	n/a	n/a
3754482	RECOG_CONF	n/a	LTP333	ltpFR	0	4	1	TIE	1466	5	0	n/a	n/a	n/a	n/a	n/a
3766346	REC_START	n/a	LTP333	ltpFR	0	5	n/a	n/a	n/a	n/a	n/a	n/a	n/a	n/a	n/a	n/a
3766376	RECOG_TARGET	n/a	LTP333	ltpFR	0	5	-1	CLOUD	328	3	-1	n/a	n/a	n/a	n/a	n/a
3767720	RECOG_RESP	n/a	LTP333	ltpFR	0	5	-1	CLOUD	328	n/a	-1	n/a	n/a	n/a	n/a	n/a
3770121	RECOG_CONF	n/a	LTP333	ltpFR	0	5	-1	CLOUD	328	3	-1	n/a	n/a	n/a	n/a	n/a
3772056	RECOG_TARGET	n/a	LTP333	ltpFR	0	5	-1	FUR	615	5	-1	n/a	n/a	n/a	n/a	n/a
3772910	RECOG_RESP	n/a	LTP333	ltpFR	0	5	-1	FUR	615	n/a	-1	n/a	n/a	n/a	n/a	n/a
3773893	RECOG_CONF	n/a	LTP333	ltpFR	0	5	-1	FUR	615	5	-1	n/a	n/a	n/a	n/a	n/a
3775522	RECOG_TARGET	n/a	LTP333	ltpFR	0	5	1	PASTRY	1022	2	0	n/a	n/a	n/a	n/a	n/a
3777545	RECOG_RESP	n/a	LTP333	ltpFR	0	5	1	PASTRY	1022	n/a	0	n/a	n/a	n/a	n/a	n/a
3778758	RECOG_CONF	n/a	LTP333	ltpFR	0	5	1	PASTRY	1022	2	0	n/a	n/a	n/a	n/a	n/a
3780603	RECOG_TARGET	n/a	LTP333	ltpFR	0	5	1	PIANO	1057	5	0	n/a	n/a	n/a	n/a	n/a
3781970	RECOG_RESP	n/a	LTP333	ltpFR	0	5	1	PIANO	1057	n/a	0	n/a	n/a	n/a	n/a	n/a
3782913	RECOG_CONF	n/a	LTP333	ltpFR	0	5	1	PIANO	1057	5	0	n/a	n/a	n/a	n/a	n/a
3784717	RECOG_TARGET	n/a	LTP333	ltpFR	0	5	-1	CHIPMUNK	304	3	-1	n/a	n/a	n/a	n/a	n/a
3785809	RECOG_RESP	n/a	LTP333	ltpFR	0	5	-1	CHIPMUNK	304	n/a	-1	n/a	n/a	n/a	n/a	n/a
3786941	RECOG_CONF	n/a	LTP333	ltpFR	0	5	-1	CHIPMUNK	304	3	-1	n/a	n/a	n/a	n/a	n/a
3788732	RECOG_TARGET	n/a	LTP333	ltpFR	0	5	0	BEAD	103	5	0	n/a	n/a	n/a	n/a	n/a
3789825	RECOG_RESP	n/a	LTP333	ltpFR	0	5	0	BEAD	103	n/a	0	n/a	n/a	n/a	n/a	n/a
3790453	RECOG_CONF	n/a	LTP333	ltpFR	0	5	0	BEAD	103	5	0	n/a	n/a	n/a	n/a	n/a
3792347	RECOG_TARGET	n/a	LTP333	ltpFR	0	5	0	TEA	1439	5	0	n/a	n/a	n/a	n/a	n/a
3793035	RECOG_RESP	n/a	LTP333	ltpFR	0	5	0	TEA	1439	n/a	0	n/a	n/a	n/a	n/a	n/a
3793693	RECOG_CONF	n/a	LTP333	ltpFR	0	5	0	TEA	1439	5	0	n/a	n/a	n/a	n/a	n/a
3795446	RECOG_LURE	n/a	LTP333	ltpFR	0	5	n/a	SILK	1307	1	n/a	n/a	n/a	n/a	n/a	n/a
3799139	RECOG_RESP	n/a	LTP333	ltpFR	0	5	n/a	SILK	1307	n/a	n/a	n/a	n/a	n/a	n/a	n/a
3800278	RECOG_CONF	n/a	LTP333	ltpFR	0	5	n/a	SILK	1307	1	n/a	n/a	n/a	n/a	n/a	n/a
3802259	RECOG_LURE	n/a	LTP333	ltpFR	0	5	n/a	RICE	1190	1	n/a	n/a	n/a	n/a	n/a	n/a
3806230	RECOG_RESP	n/a	LTP333	ltpFR	0	5	n/a	RICE	1190	n/a	n/a	n/a	n/a	n/a	n/a	n/a
3807728	RECOG_CONF	n/a	LTP333	ltpFR	0	5	n/a	RICE	1190	1	n/a	n/a	n/a	n/a	n/a	n/a
3809589	RECOG_TARGET	n/a	LTP333	ltpFR	0	5	-1	PUDDLE	1140	4	-1	n/a	n/a	n/a	n/a	n/a
3810890	RECOG_RESP	n/a	LTP333	ltpFR	0	5	-1	PUDDLE	1140	n/a	-1	n/a	n/a	n/a	n/a	n/a
3812403	RECOG_CONF	n/a	LTP333	ltpFR	0	5	-1	PUDDLE	1140	4	-1	n/a	n/a	n/a	n/a	n/a
3814154	RECOG_LURE	n/a	LTP333	ltpFR	0	5	n/a	PERSON	1052	5	n/a	n/a	n/a	n/a	n/a	n/a
3814985	RECOG_RESP	n/a	LTP333	ltpFR	0	5	n/a	PERSON	1052	n/a	n/a	n/a	n/a	n/a	n/a	n/a
3815763	RECOG_CONF	n/a	LTP333	ltpFR	0	5	n/a	PERSON	1052	5	n/a	n/a	n/a	n/a	n/a	n/a
3817436	RECOG_TARGET	n/a	LTP333	ltpFR	0	5	-1	CHERRY	293	5	-1	n/a	n/a	n/a	n/a	n/a
3818995	RECOG_RESP	n/a	LTP333	ltpFR	0	5	-1	CHERRY	293	n/a	-1	n/a	n/a	n/a	n/a	n/a
3819803	RECOG_CONF	n/a	LTP333	ltpFR	0	5	-1	CHERRY	293	5	-1	n/a	n/a	n/a	n/a	n/a
3821767	RECOG_TARGET	n/a	LTP333	ltpFR	0	5	1	PELICAN	1039	3	1	n/a	n/a	n/a	n/a	n/a
3822960	RECOG_RESP	n/a	LTP333	ltpFR	0	5	1	PELICAN	1039	n/a	1	n/a	n/a	n/a	n/a	n/a
3824131	RECOG_CONF	n/a	LTP333	ltpFR	0	5	1	PELICAN	1039	3	1	n/a	n/a	n/a	n/a	n/a
3825782	RECOG_TARGET	n/a	LTP333	ltpFR	0	5	0	RESORT	1186	4	1	n/a	n/a	n/a	n/a	n/a
3826980	RECOG_RESP	n/a	LTP333	ltpFR	0	5	0	RESORT	1186	n/a	1	n/a	n/a	n/a	n/a	n/a
3828019	RECOG_CONF	n/a	LTP333	ltpFR	0	5	0	RESORT	1186	4	1	n/a	n/a	n/a	n/a	n/a
3829780	RECOG_TARGET	n/a	LTP333	ltpFR	0	5	0	TUB	1514	5	1	n/a	n/a	n/a	n/a	n/a
3830535	RECOG_RESP	n/a	LTP333	ltpFR	0	5	0	TUB	1514	n/a	1	n/a	n/a	n/a	n/a	n/a
3831493	RECOG_CONF	n/a	LTP333	ltpFR	0	5	0	TUB	1514	5	1	n/a	n/a	n/a	n/a	n/a
3833295	RECOG_TARGET	n/a	LTP333	ltpFR	0	5	-1	REINDEER	1181	4	-1	n/a	n/a	n/a	n/a	n/a
3834370	RECOG_RESP	n/a	LTP333	ltpFR	0	5	-1	REINDEER	1181	n/a	-1	n/a	n/a	n/a	n/a	n/a
3835553	RECOG_CONF	n/a	LTP333	ltpFR	0	5	-1	REINDEER	1181	4	-1	n/a	n/a	n/a	n/a	n/a
3837277	RECOG_TARGET	n/a	LTP333	ltpFR	0	5	0	GARAGE	621	5	1	n/a	n/a	n/a	n/a	n/a
3838060	RECOG_RESP	n/a	LTP333	ltpFR	0	5	0	GARAGE	621	n/a	1	n/a	n/a	n/a	n/a	n/a
3839013	RECOG_CONF	n/a	LTP333	ltpFR	0	5	0	GARAGE	621	5	1	n/a	n/a	n/a	n/a	n/a
3840709	RECOG_LURE	n/a	LTP333	ltpFR	0	5	n/a	BEETLE	116	2	n/a	n/a	n/a	n/a	n/a	n/a
3842235	RECOG_RESP	n/a	LTP333	ltpFR	0	5	n/a	BEETLE	116	n/a	n/a	n/a	n/a	n/a	n/a	n/a
3843348	RECOG_CONF	n/a	LTP333	ltpFR	0	5	n/a	BEETLE	116	2	n/a	n/a	n/a	n/a	n/a	n/a
3845223	RECOG_TARGET	n/a	LTP333	ltpFR	0	5	-1	STAPLE	1371	5	-1	n/a	n/a	n/a	n/a	n/a
3846425	RECOG_RESP	n/a	LTP333	ltpFR	0	5	-1	STAPLE	1371	n/a	-1	n/a	n/a	n/a	n/a	n/a
3847453	RECOG_CONF	n/a	LTP333	ltpFR	0	5	-1	STAPLE	1371	5	-1	n/a	n/a	n/a	n/a	n/a
3849338	RECOG_TARGET	n/a	LTP333	ltpFR	0	5	0	NUT	965	5	0	n/a	n/a	n/a	n/a	n/a
3849975	RECOG_RESP	n/a	LTP333	ltpFR	0	5	0	NUT	965	n/a	0	n/a	n/a	n/a	n/a	n/a
3850933	RECOG_CONF	n/a	LTP333	ltpFR	0	5	0	NUT	965	5	0	n/a	n/a	n/a	n/a	n/a
3879379	REC_START	n/a	LTP333	ltpFR	0	6	n/a	n/a	n/a	n/a	n/a	n/a	n/a	n/a	n/a	n/a
3879408	RECOG_LURE	n/a	LTP333	ltpFR	0	6	n/a	COMEDIAN	352	4	n/a	n/a	n/a	n/a	n/a	n/a
3880307	RECOG_RESP	n/a	LTP333	ltpFR	0	6	n/a	COMEDIAN	352	n/a	n/a	n/a	n/a	n/a	n/a	n/a
3881486	RECOG_CONF	n/a	LTP333	ltpFR	0	6	n/a	COMEDIAN	352	4	n/a	n/a	n/a	n/a	n/a	n/a
3883339	RECOG_TARGET	n/a	LTP333	ltpFR	0	6	0	ISLAND	745	5	1	n/a	n/a	n/a	n/a	n/a
3884108	RECOG_RESP	n/a	LTP333	ltpFR	0	6	0	ISLAND	745	n/a	1	n/a	n/a	n/a	n/a	n/a
3885106	RECOG_CONF	n/a	LTP333	ltpFR	0	6	0	ISLAND	745	5	1	n/a	n/a	n/a	n/a	n/a
3886738	RECOG_TARGET	n/a	LTP333	ltpFR	0	6	1	HUMAN	726	5	1	n/a	n/a	n/a	n/a	n/a
3887368	RECOG_RESP	n/a	LTP333	ltpFR	0	6	1	HUMAN	726	n/a	1	n/a	n/a	n/a	n/a	n/a
3888156	RECOG_CONF	n/a	LTP333	ltpFR	0	6	1	HUMAN	726	5	1	n/a	n/a	n/a	n/a	n/a
3889770	RECOG_TARGET	n/a	LTP333	ltpFR	0	6	1	COOKIE	374	2	0	n/a	n/a	n/a	n/a	n/a
3891037	RECOG_RESP	n/a	LTP333	ltpFR	0	6	1	COOKIE	374	n/a	0	n/a	n/a	n/a	n/a	n/a
3893081	RECOG_CONF	n/a	LTP333	ltpFR	0	6	1	COOKIE	374	2	0	n/a	n/a	n/a	n/a	n/a
3894801	RECOG_TARGET	n/a	LTP333	ltpFR	0	6	0	RIVER	1194	5	1	n/a	n/a	n/a	n/a	n/a
3895628	RECOG_RESP	n/a	LTP333	ltpFR	0	6	0	RIVER	1194	n/a	1	n/a	n/a	n/a	n/a	n/a
3897236	RECOG_CONF	n/a	LTP333	ltpFR	0	6	0	RIVER	1194	5	1	n/a	n/a	n/a	n/a	n/a
3898950	RECOG_LURE	n/a	LTP333	ltpFR	0	6	n/a	CLIPPERS	324	4	n/a	n/a	n/a	n/a	n/a	n/a
3899742	RECOG_RESP	n/a	LTP333	ltpFR	0	6	n/a	CLIPPERS	324	n/a	n/a	n/a	n/a	n/a	n/a	n/a
3900956	RECOG_CONF	n/a	LTP333	ltpFR	0	6	n/a	CLIPPERS	324	4	n/a	n/a	n/a	n/a	n/a	n/a
3902764	RECOG_TARGET	n/a	LTP333	ltpFR	0	6	0	DOCUMENT	479	5	1	n/a	n/a	n/a	n/a	n/a
3903513	RECOG_RESP	n/a	LTP333	ltpFR	0	6	0	DOCUMENT	479	n/a	1	n/a	n/a	n/a	n/a	n/a
3904356	RECOG_CONF	n/a	LTP333	ltpFR	0	6	0	DOCUMENT	479	5	1	n/a	n/a	n/a	n/a	n/a
3906196	RECOG_TARGET	n/a	LTP333	ltpFR	0	6	-1	ANIMAL	23	1	-1	n/a	n/a	n/a	n/a	n/a
3907726	RECOG_RESP	n/a	LTP333	ltpFR	0	6	-1	ANIMAL	23	n/a	-1	n/a	n/a	n/a	n/a	n/a
3909691	RECOG_CONF	n/a	LTP333	ltpFR	0	6	-1	ANIMAL	23	1	-1	n/a	n/a	n/a	n/a	n/a
3911393	RECOG_LURE	n/a	LTP333	ltpFR	0	6	n/a	ENCYCLOPEDIA	533	5	n/a	n/a	n/a	n/a	n/a	n/a
3912252	RECOG_RESP	n/a	LTP333	ltpFR	0	6	n/a	ENCYCLOPEDIA	533	n/a	n/a	n/a	n/a	n/a	n/a	n/a
3913166	RECOG_CONF	n/a	LTP333	ltpFR	0	6	n/a	ENCYCLOPEDIA	533	5	n/a	n/a	n/a	n/a	n/a	n/a
3914842	RECOG_TARGET	n/a	LTP333	ltpFR	0	6	0	VEHICLE	1553	5	1	n/a	n/a	n/a	n/a	n/a
3915733	RECOG_RESP	n/a	LTP333	ltpFR	0	6	0	VEHICLE	1553	n/a	1	n/a	n/a	n/a	n/a	n/a
3916656	RECOG_CONF	n/a	LTP333	ltpFR	0	6	0	VEHICLE	1553	5	1	n/a	n/a	n/a	n/a	n/a
3918273	RECOG_LURE	n/a	LTP333	ltpFR	0	6	n/a	ARTICLE	42	3	n/a	n/a	n/a	n/a	n/a	n/a
3919667	RECOG_RESP	n/a	LTP333	ltpFR	0	6	n/a	ARTICLE	42	n/a	n/a	n/a	n/a	n/a	n/a	n/a
3922564	RECOG_CONF	n/a	LTP333	ltpFR	0	6	n/a	ARTICLE	42	3	n/a	n/a	n/a	n/a	n/a	n/a
3924238	RECOG_LURE	n/a	LTP333	ltpFR	0	6	n/a	ROAD	1196	1	n/a	n/a	n/a	n/a	n/a	n/a
3926683	RECOG_RESP	n/a	LTP333	ltpFR	0	6	n/a	ROAD	1196	n/a	n/a	n/a	n/a	n/a	n/a	n/a
3927761	RECOG_CONF	n/a	LTP333	ltpFR	0	6	n/a	ROAD	1196	1	n/a	n/a	n/a	n/a	n/a	n/a
3929185	RECOG_LURE	n/a	LTP333	ltpFR	0	6	n/a	TREASURE	1500	1	n/a	n/a	n/a	n/a	n/a	n/a
3931457	RECOG_RESP	n/a	LTP333	ltpFR	0	6	n/a	TREASURE	1500	n/a	n/a	n/a	n/a	n/a	n/a	n/a
3934401	RECOG_CONF	n/a	LTP333	ltpFR	0	6	n/a	TREASURE	1500	1	n/a	n/a	n/a	n/a	n/a	n/a
3936099	RECOG_TARGET	n/a	LTP333	ltpFR	0	6	0	SPRINKLE	1359	1	n/a	n/a	n/a	n/a	n/a	n/a
3937242	RECOG_RESP	n/a	LTP333	ltpFR	0	6	0	SPRINKLE	1359	n/a	n/a	n/a	n/a	n/a	n/a	n/a
3940261	RECOG_CONF	n/a	LTP333	ltpFR	0	6	0	SPRINKLE	1359	1	n/a	n/a	n/a	n/a	n/a	n/a
3941947	RECOG_TARGET	n/a	LTP333	ltpFR	0	6	-1	MOLECULE	905	5	-1	n/a	n/a	n/a	n/a	n/a
3942678	RECOG_RESP	n/a	LTP333	ltpFR	0	6	-1	MOLECULE	905	n/a	-1	n/a	n/a	n/a	n/a	n/a
3943456	RECOG_CONF	n/a	LTP333	ltpFR	0	6	-1	MOLECULE	905	5	-1	n/a	n/a	n/a	n/a	n/a
3945046	RECOG_TARGET	n/a	LTP333	ltpFR	0	6	-1	GALLON	618	3	-1	n/a	n/a	n/a	n/a	n/a
3946167	RECOG_RESP	n/a	LTP333	ltpFR	0	6	-1	GALLON	618	n/a	-1	n/a	n/a	n/a	n/a	n/a
3947254	RECOG_CONF	n/a	LTP333	ltpFR	0	6	-1	GALLON	618	3	-1	n/a	n/a	n/a	n/a	n/a
3948893	RECOG_LURE	n/a	LTP333	ltpFR	0	6	n/a	CAPTIVE	240	1	n/a	n/a	n/a	n/a	n/a	n/a
3951943	RECOG_RESP	n/a	LTP333	ltpFR	0	6	n/a	CAPTIVE	240	n/a	n/a	n/a	n/a	n/a	n/a	n/a
3953411	RECOG_CONF	n/a	LTP333	ltpFR	0	6	n/a	CAPTIVE	240	1	n/a	n/a	n/a	n/a	n/a	n/a
3955223	RECOG_TARGET	n/a	LTP333	ltpFR	0	6	-1	TYPIST	1532	1	-1	n/a	n/a	n/a	n/a	n/a
3956142	RECOG_RESP	n/a	LTP333	ltpFR	0	6	-1	TYPIST	1532	n/a	-1	n/a	n/a	n/a	n/a	n/a
3958631	RECOG_CONF	n/a	LTP333	ltpFR	0	6	-1	TYPIST	1532	1	-1	n/a	n/a	n/a	n/a	n/a
3960171	RECOG_TARGET	n/a	LTP333	ltpFR	0	6	1	SKIN	1318	5	0	n/a	n/a	n/a	n/a	n/a
3961458	RECOG_RESP	n/a	LTP333	ltpFR	0	6	1	SKIN	1318	n/a	0	n/a	n/a	n/a	n/a	n/a
3962926	RECOG_CONF	n/a	LTP333	ltpFR	0	6	1	SKIN	1318	5	0	n/a	n/a	n/a	n/a	n/a
3964536	RECOG_TARGET	n/a	LTP333	ltpFR	0	6	0	CASHIER	254	5	1	n/a	n/a	n/a	n/a	n/a
3965208	RECOG_RESP	n/a	LTP333	ltpFR	0	6	0	CASHIER	254	n/a	1	n/a	n/a	n/a	n/a	n/a
3966256	RECOG_CONF	n/a	LTP333	ltpFR	0	6	0	CASHIER	254	5	1	n/a	n/a	n/a	n/a	n/a
3969849	REC_START	n/a	LTP333	ltpFR	0	7	n/a	n/a	n/a	n/a	n/a	n/a	n/a	n/a	n/a	n/a
3969883	RECOG_TARGET	n/a	LTP333	ltpFR	0	7	1	BRIEFCASE	175	4	0	n/a	n/a	n/a	n/a	n/a
3971138	RECOG_RESP	n/a	LTP333	ltpFR	0	7	1	BRIEFCASE	175	n/a	0	n/a	n/a	n/a	n/a	n/a
3972206	RECOG_CONF	n/a	LTP333	ltpFR	0	7	1	BRIEFCASE	175	4	0	n/a	n/a	n/a	n/a	n/a
3973933	RECOG_TARGET	n/a	LTP333	ltpFR	0	7	1	WRITER	1627	3	1	n/a	n/a	n/a	n/a	n/a
3975087	RECOG_RESP	n/a	LTP333	ltpFR	0	7	1	WRITER	1627	n/a	1	n/a	n/a	n/a	n/a	n/a
3976964	RECOG_CONF	n/a	LTP333	ltpFR	0	7	1	WRITER	1627	3	1	n/a	n/a	n/a	n/a	n/a
3978779	RECOG_TARGET	n/a	LTP333	ltpFR	0	7	0	NAIL	936	5	0	n/a	n/a	n/a	n/a	n/a
3980203	RECOG_RESP	n/a	LTP333	ltpFR	0	7	0	NAIL	936	n/a	0	n/a	n/a	n/a	n/a	n/a
3981556	RECOG_CONF	n/a	LTP333	ltpFR	0	7	0	NAIL	936	5	0	n/a	n/a	n/a	n/a	n/a
3983494	RECOG_TARGET	n/a	LTP333	ltpFR	0	7	1	SHOE	1288	2	0	n/a	n/a	n/a	n/a	n/a
3984508	RECOG_RESP	n/a	LTP333	ltpFR	0	7	1	SHOE	1288	n/a	0	n/a	n/a	n/a	n/a	n/a
3986641	RECOG_CONF	n/a	LTP333	ltpFR	0	7	1	SHOE	1288	2	0	n/a	n/a	n/a	n/a	n/a
3988425	RECOG_TARGET	n/a	LTP333	ltpFR	0	7	0	BANKER	84	4	1	n/a	n/a	n/a	n/a	n/a
3989548	RECOG_RESP	n/a	LTP333	ltpFR	0	7	0	BANKER	84	n/a	1	n/a	n/a	n/a	n/a	n/a
3990736	RECOG_CONF	n/a	LTP333	ltpFR	0	7	0	BANKER	84	4	1	n/a	n/a	n/a	n/a	n/a
3992357	RECOG_LURE	n/a	LTP333	ltpFR	0	7	n/a	COTTAGE	384	5	n/a	n/a	n/a	n/a	n/a	n/a
3993387	RECOG_RESP	n/a	LTP333	ltpFR	0	7	n/a	COTTAGE	384	n/a	n/a	n/a	n/a	n/a	n/a	n/a
3994731	RECOG_CONF	n/a	LTP333	ltpFR	0	7	n/a	COTTAGE	384	5	n/a	n/a	n/a	n/a	n/a	n/a
3996505	RECOG_LURE	n/a	LTP333	ltpFR	0	7	n/a	PEDAL	1037	5	n/a	n/a	n/a	n/a	n/a	n/a
3997677	RECOG_RESP	n/a	LTP333	ltpFR	0	7	n/a	PEDAL	1037	n/a	n/a	n/a	n/a	n/a	n/a	n/a
3999006	RECOG_CONF	n/a	LTP333	ltpFR	0	7	n/a	PEDAL	1037	5	n/a	n/a	n/a	n/a	n/a	n/a
4000703	RECOG_LURE	n/a	LTP333	ltpFR	0	7	n/a	ALBUM	14	4	n/a	n/a	n/a	n/a	n/a	n/a
4001532	RECOG_RESP	n/a	LTP333	ltpFR	0	7	n/a	ALBUM	14	n/a	n/a	n/a	n/a	n/a	n/a	n/a
4003423	RECOG_CONF	n/a	LTP333	ltpFR	0	7	n/a	ALBUM	14	4	n/a	n/a	n/a	n/a	n/a	n/a
4005217	RECOG_LURE	n/a	LTP333	ltpFR	0	7	n/a	BLOUSE	139	5	n/a	n/a	n/a	n/a	n/a	n/a
4006177	RECOG_RESP	n/a	LTP333	ltpFR	0	7	n/a	BLOUSE	139	n/a	n/a	n/a	n/a	n/a	n/a	n/a
4007116	RECOG_CONF	n/a	LTP333	ltpFR	0	7	n/a	BLOUSE	139	5	n/a	n/a	n/a	n/a	n/a	n/a
4008916	RECOG_TARGET	n/a	LTP333	ltpFR	0	7	-1	TRAIN	1494	1	-1	n/a	n/a	n/a	n/a	n/a
4011123	RECOG_RESP	n/a	LTP333	ltpFR	0	7	-1	TRAIN	1494	n/a	-1	n/a	n/a	n/a	n/a	n/a
4012581	RECOG_CONF	n/a	LTP333	ltpFR	0	7	-1	TRAIN	1494	1	-1	n/a	n/a	n/a	n/a	n/a
4014430	RECOG_LURE	n/a	LTP333	ltpFR	0	7	n/a	HOSE	720	2	n/a	n/a	n/a	n/a	n/a	n/a
4016187	RECOG_RESP	n/a	LTP333	ltpFR	0	7	n/a	HOSE	720	n/a	n/a	n/a	n/a	n/a	n/a	n/a
4017871	RECOG_CONF	n/a	LTP333	ltpFR	0	7	n/a	HOSE	720	2	n/a	n/a	n/a	n/a	n/a	n/a
4019578	RECOG_TARGET	n/a	LTP333	ltpFR	0	7	-1	OYSTER	995	4	-1	n/a	n/a	n/a	n/a	n/a
4021023	RECOG_RESP	n/a	LTP333	ltpFR	0	7	-1	OYSTER	995	n/a	-1	n/a	n/a	n/a	n/a	n/a
4022536	RECOG_CONF	n/a	LTP333	ltpFR	0	7	-1	OYSTER	995	4	-1	n/a	n/a	n/a	n/a	n/a
4024225	RECOG_TARGET	n/a	LTP333	ltpFR	0	7	-1	JUGGLER	763	5	-1	n/a	n/a	n/a	n/a	n/a
4025153	RECOG_RESP	n/a	LTP333	ltpFR	0	7	-1	JUGGLER	763	n/a	-1	n/a	n/a	n/a	n/a	n/a
4026166	RECOG_CONF	n/a	LTP333	ltpFR	0	7	-1	JUGGLER	763	5	-1	n/a	n/a	n/a	n/a	n/a
4027975	RECOG_LURE	n/a	LTP333	ltpFR	0	7	n/a	PARROT	1015	4	n/a	n/a	n/a	n/a	n/a	n/a
4028907	RECOG_RESP	n/a	LTP333	ltpFR	0	7	n/a	PARROT	1015	n/a	n/a	n/a	n/a	n/a	n/a	n/a
4030276	RECOG_CONF	n/a	LTP333	ltpFR	0	7	n/a	PARROT	1015	4	n/a	n/a	n/a	n/a	n/a	n/a
4031839	RECOG_TARGET	n/a	LTP333	ltpFR	0	7	-1	ANT	25	3	-1	n/a	n/a	n/a	n/a	n/a
4033528	RECOG_RESP	n/a	LTP333	ltpFR	0	7	-1	ANT	25	n/a	-1	n/a	n/a	n/a	n/a	n/a
4034714	RECOG_CONF	n/a	LTP333	ltpFR	0	7	-1	ANT	25	3	-1	n/a	n/a	n/a	n/a	n/a
4036470	RECOG_TARGET	n/a	LTP333	ltpFR	0	7	0	FLASK	576	5	0	n/a	n/a	n/a	n/a	n/a
4037353	RECOG_RESP	n/a	LTP333	ltpFR	0	7	0	FLASK	576	n/a	0	n/a	n/a	n/a	n/a	n/a
4038216	RECOG_CONF	n/a	LTP333	ltpFR	0	7	0	FLASK	576	5	0	n/a	n/a	n/a	n/a	n/a
4040019	RECOG_TARGET	n/a	LTP333	ltpFR	0	7	-1	CLERK	321	1	-1	n/a	n/a	n/a	n/a	n/a
4041618	RECOG_RESP	n/a	LTP333	ltpFR	0	7	-1	CLERK	321	n/a	-1	n/a	n/a	n/a	n/a	n/a
4043831	RECOG_CONF	n/a	LTP333	ltpFR	0	7	-1	CLERK	321	1	-1	n/a	n/a	n/a	n/a	n/a
4045416	RECOG_TARGET	n/a	LTP333	ltpFR	0	7	-1	VAULT	1550	2	-1	n/a	n/a	n/a	n/a	n/a
4047343	RECOG_RESP	n/a	LTP333	ltpFR	0	7	-1	VAULT	1550	n/a	-1	n/a	n/a	n/a	n/a	n/a
4048761	RECOG_CONF	n/a	LTP333	ltpFR	0	7	-1	VAULT	1550	2	-1	n/a	n/a	n/a	n/a	n/a
4050813	RECOG_TARGET	n/a	LTP333	ltpFR	0	7	0	NET	946	5	1	n/a	n/a	n/a	n/a	n/a
4052093	RECOG_RESP	n/a	LTP333	ltpFR	0	7	0	NET	946	n/a	1	n/a	n/a	n/a	n/a	n/a
4053236	RECOG_CONF	n/a	LTP333	ltpFR	0	7	0	NET	946	5	1	n/a	n/a	n/a	n/a	n/a
4055178	RECOG_TARGET	n/a	LTP333	ltpFR	0	7	1	BUFFALO	186	5	1	n/a	n/a	n/a	n/a	n/a
4055918	RECOG_RESP	n/a	LTP333	ltpFR	0	7	1	BUFFALO	186	n/a	1	n/a	n/a	n/a	n/a	n/a
4056916	RECOG_CONF	n/a	LTP333	ltpFR	0	7	1	BUFFALO	186	5	1	n/a	n/a	n/a	n/a	n/a
4061647	REC_START	n/a	LTP333	ltpFR	0	8	n/a	n/a	n/a	n/a	n/a	n/a	n/a	n/a	n/a	n/a
4061675	RECOG_TARGET	n/a	LTP333	ltpFR	0	8	0	BURGLAR	200	5	1	n/a	n/a	n/a	n/a	n/a
4062316	RECOG_RESP	n/a	LTP333	ltpFR	0	8	0	BURGLAR	200	n/a	1	n/a	n/a	n/a	n/a	n/a
4063454	RECOG_CONF	n/a	LTP333	ltpFR	0	8	0	BURGLAR	200	5	1	n/a	n/a	n/a	n/a	n/a
4065307	RECOG_LURE	n/a	LTP333	ltpFR	0	8	n/a	HOUSE	725	5	n/a	n/a	n/a	n/a	n/a	n/a
4066261	RECOG_RESP	n/a	LTP333	ltpFR	0	8	n/a	HOUSE	725	n/a	n/a	n/a	n/a	n/a	n/a	n/a
4067324	RECOG_CONF	n/a	LTP333	ltpFR	0	8	n/a	HOUSE	725	5	n/a	n/a	n/a	n/a	n/a	n/a
4069188	RECOG_TARGET	n/a	LTP333	ltpFR	0	8	1	COUNTY	389	3	0	n/a	n/a	n/a	n/a	n/a
4070471	RECOG_RESP	n/a	LTP333	ltpFR	0	8	1	COUNTY	389	n/a	0	n/a	n/a	n/a	n/a	n/a
4071712	RECOG_CONF	n/a	LTP333	ltpFR	0	8	1	COUNTY	389	3	0	n/a	n/a	n/a	n/a	n/a
4073620	RECOG_TARGET	n/a	LTP333	ltpFR	0	8	-1	KEYBOARD	774	3	-1	n/a	n/a	n/a	n/a	n/a
4075056	RECOG_RESP	n/a	LTP333	ltpFR	0	8	-1	KEYBOARD	774	n/a	-1	n/a	n/a	n/a	n/a	n/a
4076582	RECOG_CONF	n/a	LTP333	ltpFR	0	8	-1	KEYBOARD	774	3	-1	n/a	n/a	n/a	n/a	n/a
4078368	RECOG_TARGET	n/a	LTP333	ltpFR	0	8	1	ELK	526	5	1	n/a	n/a	n/a	n/a	n/a
4079176	RECOG_RESP	n/a	LTP333	ltpFR	0	8	1	ELK	526	n/a	1	n/a	n/a	n/a	n/a	n/a
4080304	RECOG_CONF	n/a	LTP333	ltpFR	0	8	1	ELK	526	5	1	n/a	n/a	n/a	n/a	n/a
4082282	RECOG_TARGET	n/a	LTP333	ltpFR	0	8	0	CREEK	404	5	1	n/a	n/a	n/a	n/a	n/a
4083031	RECOG_RESP	n/a	LTP333	ltpFR	0	8	0	CREEK	404	n/a	1	n/a	n/a	n/a	n/a	n/a
4084284	RECOG_CONF	n/a	LTP333	ltpFR	0	8	0	CREEK	404	5	1	n/a	n/a	n/a	n/a	n/a
4086247	RECOG_TARGET	n/a	LTP333	ltpFR	0	8	-1	CELLAR	267	2	-1	n/a	n/a	n/a	n/a	n/a
4087436	RECOG_RESP	n/a	LTP333	ltpFR	0	8	-1	CELLAR	267	n/a	-1	n/a	n/a	n/a	n/a	n/a
4089069	RECOG_CONF	n/a	LTP333	ltpFR	0	8	-1	CELLAR	267	2	-1	n/a	n/a	n/a	n/a	n/a
4090879	RECOG_TARGET	n/a	LTP333	ltpFR	0	8	-1	ROOMMATE	1207	3	-1	n/a	n/a	n/a	n/a	n/a
4091945	RECOG_RESP	n/a	LTP333	ltpFR	0	8	-1	ROOMMATE	1207	n/a	-1	n/a	n/a	n/a	n/a	n/a
4093342	RECOG_CONF	n/a	LTP333	ltpFR	0	8	-1	ROOMMATE	1207	3	-1	n/a	n/a	n/a	n/a	n/a
4095143	RECOG_LURE	n/a	LTP333	ltpFR	0	8	n/a	REFEREE	1178	2	n/a	n/a	n/a	n/a	n/a	n/a
4096080	RECOG_RESP	n/a	LTP333	ltpFR	0	8	n/a	REFEREE	1178	n/a	n/a	n/a	n/a	n/a	n/a	n/a
4098479	RECOG_CONF	n/a	LTP333	ltpFR	0	8	n/a	REFEREE	1178	2	n/a	n/a	n/a	n/a	n/a	n/a
4100191	RECOG_TARGET	n/a	LTP333	ltpFR	0	8	0	CLAM	315	2	0	n/a	n/a	n/a	n/a	n/a
4101211	RECOG_RESP	n/a	LTP333	ltpFR	0	8	0	CLAM	315	n/a	0	n/a	n/a	n/a	n/a	n/a
4102879	RECOG_CONF	n/a	LTP333	ltpFR	0	8	0	CLAM	315	2	0	n/a	n/a	n/a	n/a	n/a
4104856	RECOG_TARGET	n/a	LTP333	ltpFR	0	8	1	COSTUME	383	1	0	n/a	n/a	n/a	n/a	n/a
4107000	RECOG_RESP	n/a	LTP333	ltpFR	0	8	1	COSTUME	383	n/a	0	n/a	n/a	n/a	n/a	n/a
4108319	RECOG_CONF	n/a	LTP333	ltpFR	0	8	1	COSTUME	383	1	0	n/a	n/a	n/a	n/a	n/a
4110186	RECOG_TARGET	n/a	LTP333	ltpFR	0	8	0	VAN	1548	4	1	n/a	n/a	n/a	n/a	n/a
4111116	RECOG_RESP	n/a	LTP333	ltpFR	0	8	0	VAN	1548	n/a	1	n/a	n/a	n/a	n/a	n/a
4112819	RECOG_CONF	n/a	LTP333	ltpFR	0	8	0	VAN	1548	4	1	n/a	n/a	n/a	n/a	n/a
