mstime	trial_type	stim_file	subject	experiment	session	trial	task	item_name	item_num	recog_conf	resp	answer	test_x	test_y	test_z	color_b	color_g	color_r	case	font
0	SESS_START	n/a	LTP278	ltpFR	7	n/a	n/a	n/a	n/a	1	n/a	n/a	0	0	0	n/a	n/a	n/a	n/a	n/a
123392	START	n/a	LTP278	ltpFR	7	n/a	n/a	n/a	n/a	n/a	n/a	n/a	n/a	n/a	n/a	n/a	n/a	n/a	n/a	n/a
123441	PROB	n/a	LTP278	ltpFR	7	n/a	n/a	n/a	n/a	n/a	n/a	12	5	6	1	n/a	n/a	n/a	n/a	n/a
128543	PROB	n/a	LTP278	ltpFR	7	n/a	n/a	n/a	n/a	n/a	n/a	13	4	8	1	n/a	n/a	n/a	n/a	n/a
135753	PROB	n/a	LTP278	ltpFR	7	n/a	n/a	n/a	n/a	n/a	n/a	17	5	7	5	n/a	n/a	n/a	n/a	n/a
140655	PROB	n/a	LTP278	ltpFR	7	n/a	n/a	n/a	n/a	n/a	n/a	16	6	5	5	n/a	n/a	n/a	n/a	n/a
143152	STOP	n/a	LTP278	ltpFR	7	n/a	n/a	n/a	n/a	n/a	n/a	n/a	n/a	n/a	n/a	n/a	n/a	n/a	n/a	n/a
230060	WORD	wordpools/wasnorm_wordpool_less_exclusions.txt	LTP278	ltpFR	7	1	0	PAPER	1011	3	1	n/a	0	0	0	1	0.412841796875	0.57763671875	upper	../fonts/amplitud.ttf
234008	WORD	wordpools/wasnorm_wordpool_less_exclusions.txt	LTP278	ltpFR	7	1	0	CONTRACT	368	n/a	0	n/a	0	0	0	1	0.412841796875	0.57763671875	upper	../fonts/amplitud.ttf
238023	WORD	wordpools/wasnorm_wordpool_less_exclusions.txt	LTP278	ltpFR	7	1	0	SHERIFF	1284	n/a	1	n/a	0	0	0	1	0.412841796875	0.57763671875	upper	../fonts/amplitud.ttf
242122	WORD	wordpools/wasnorm_wordpool_less_exclusions.txt	LTP278	ltpFR	7	1	0	OFFICER	973	n/a	1	n/a	0	0	0	1	0.412841796875	0.57763671875	upper	../fonts/amplitud.ttf
246320	WORD	wordpools/wasnorm_wordpool_less_exclusions.txt	LTP278	ltpFR	7	1	0	PEDESTRIAN	1038	n/a	1	n/a	0	0	0	1	0.412841796875	0.57763671875	upper	../fonts/amplitud.ttf
250219	WORD	wordpools/wasnorm_wordpool_less_exclusions.txt	LTP278	ltpFR	7	1	0	CHAIR	274	n/a	1	n/a	0	0	0	1	0.412841796875	0.57763671875	upper	../fonts/amplitud.ttf
254285	WORD	wordpools/wasnorm_wordpool_less_exclusions.txt	LTP278	ltpFR	7	1	0	TURTLE	1522	n/a	0	n/a	0	0	0	1	0.412841796875	0.57763671875	upper	../fonts/amplitud.ttf
258283	WORD	wordpools/wasnorm_wordpool_less_exclusions.txt	LTP278	ltpFR	7	1	0	ALLIGATOR	16	n/a	1	n/a	0	0	0	1	0.412841796875	0.57763671875	upper	../fonts/amplitud.ttf
262246	WORD	wordpools/wasnorm_wordpool_less_exclusions.txt	LTP278	ltpFR	7	1	0	CLAM	315	n/a	0	n/a	0	0	0	1	0.412841796875	0.57763671875	upper	../fonts/amplitud.ttf
266313	WORD	wordpools/wasnorm_wordpool_less_exclusions.txt	LTP278	ltpFR	7	1	0	MEADOW	881	n/a	1	n/a	0	0	0	1	0.412841796875	0.57763671875	upper	../fonts/amplitud.ttf
270411	WORD	wordpools/wasnorm_wordpool_less_exclusions.txt	LTP278	ltpFR	7	1	0	GARDEN	623	n/a	1	n/a	0	0	0	1	0.412841796875	0.57763671875	upper	../fonts/amplitud.ttf
274476	WORD	wordpools/wasnorm_wordpool_less_exclusions.txt	LTP278	ltpFR	7	1	0	NECK	939	n/a	0	n/a	0	0	0	1	0.412841796875	0.57763671875	upper	../fonts/amplitud.ttf
278375	WORD	wordpools/wasnorm_wordpool_less_exclusions.txt	LTP278	ltpFR	7	1	0	MANSION	864	n/a	1	n/a	0	0	0	1	0.412841796875	0.57763671875	upper	../fonts/amplitud.ttf
282307	WORD	wordpools/wasnorm_wordpool_less_exclusions.txt	LTP278	ltpFR	7	1	0	DIVER	476	n/a	0	n/a	0	0	0	1	0.412841796875	0.57763671875	upper	../fonts/amplitud.ttf
286255	WORD	wordpools/wasnorm_wordpool_less_exclusions.txt	LTP278	ltpFR	7	1	0	LOBSTER	837	n/a	1	n/a	0	0	0	1	0.412841796875	0.57763671875	upper	../fonts/amplitud.ttf
290103	WORD	wordpools/wasnorm_wordpool_less_exclusions.txt	LTP278	ltpFR	7	1	0	COTTAGE	384	n/a	1	n/a	0	0	0	1	0.412841796875	0.57763671875	upper	../fonts/amplitud.ttf
293115	START	n/a	LTP278	ltpFR	7	n/a	n/a	n/a	n/a	n/a	n/a	n/a	n/a	n/a	n/a	n/a	n/a	n/a	n/a	n/a
294218	PROB	n/a	LTP278	ltpFR	7	n/a	n/a	n/a	n/a	n/a	n/a	12	7	1	4	n/a	n/a	n/a	n/a	n/a
301115	STOP	n/a	LTP278	ltpFR	7	n/a	n/a	n/a	n/a	n/a	n/a	n/a	n/a	n/a	n/a	n/a	n/a	n/a	n/a	n/a
303020	REC_START	n/a	LTP278	ltpFR	7	1	n/a	n/a	n/a	n/a	n/a	n/a	0	0	0	n/a	n/a	n/a	n/a	n/a
304800	REC_WORD	wordpools/wasnorm_wordpool_less_exclusions.txt	LTP278	ltpFR	7	1	0	LOBSTER	837	n/a	1	n/a	0	0	0	n/a	n/a	n/a	n/a	n/a
306195	REC_WORD	wordpools/wasnorm_wordpool_less_exclusions.txt	LTP278	ltpFR	7	1	0	MANSION	864	n/a	1	n/a	0	0	0	n/a	n/a	n/a	n/a	n/a
310859	REC_WORD	wordpools/wasnorm_wordpool_less_exclusions.txt	LTP278	ltpFR	7	1	0	OFFICER	973	n/a	1	n/a	0	0	0	n/a	n/a	n/a	n/a	n/a
312087	REC_WORD	wordpools/wasnorm_wordpool_less_exclusions.txt	LTP278	ltpFR	7	1	0	PEDESTRIAN	1038	n/a	1	n/a	0	0	0	n/a	n/a	n/a	n/a	n/a
313183	REC_WORD	wordpools/wasnorm_wordpool_less_exclusions.txt	LTP278	ltpFR	7	1	0	SHERIFF	1284	n/a	1	n/a	0	0	0	n/a	n/a	n/a	n/a	n/a
314396	REC_WORD	wordpools/wasnorm_wordpool_less_exclusions.txt	LTP278	ltpFR	7	1	0	NECK	939	n/a	0	n/a	0	0	0	n/a	n/a	n/a	n/a	n/a
316030	REC_WORD	wordpools/wasnorm_wordpool_less_exclusions.txt	LTP278	ltpFR	7	1	0	PAPER	1011	n/a	1	n/a	0	0	0	n/a	n/a	n/a	n/a	n/a
317136	REC_WORD	wordpools/wasnorm_wordpool_less_exclusions.txt	LTP278	ltpFR	7	1	0	CONTRACT	368	n/a	0	n/a	0	0	0	n/a	n/a	n/a	n/a	n/a
319244	REC_WORD	wordpools/wasnorm_wordpool_less_exclusions.txt	LTP278	ltpFR	7	1	0	CLAM	315	n/a	0	n/a	0	0	0	n/a	n/a	n/a	n/a	n/a
322254	REC_WORD	wordpools/wasnorm_wordpool_less_exclusions.txt	LTP278	ltpFR	7	1	0	TURTLE	1522	n/a	0	n/a	0	0	0	n/a	n/a	n/a	n/a	n/a
338652	REC_WORD	wordpools/wasnorm_wordpool_less_exclusions.txt	LTP278	ltpFR	7	1	0	CHAIR	274	n/a	1	n/a	0	0	0	n/a	n/a	n/a	n/a	n/a
407627	START	n/a	LTP278	ltpFR	7	n/a	n/a	n/a	n/a	n/a	n/a	n/a	n/a	n/a	n/a	n/a	n/a	n/a	n/a	n/a
409135	PROB	n/a	LTP278	ltpFR	7	n/a	n/a	n/a	n/a	n/a	n/a	15	9	1	5	n/a	n/a	n/a	n/a	n/a
411778	PROB	n/a	LTP278	ltpFR	7	n/a	n/a	n/a	n/a	n/a	n/a	18	1	9	8	n/a	n/a	n/a	n/a	n/a
414088	STOP	n/a	LTP278	ltpFR	7	n/a	n/a	n/a	n/a	n/a	n/a	n/a	n/a	n/a	n/a	n/a	n/a	n/a	n/a	n/a
416545	WORD	wordpools/wasnorm_wordpool_less_exclusions.txt	LTP278	ltpFR	7	2	1	NAIL	936	n/a	0	n/a	0	0	0	0	0.5869140625	0.422607421875	lower	../fonts/zerothre.ttf
419557	START	n/a	LTP278	ltpFR	7	n/a	n/a	n/a	n/a	n/a	n/a	n/a	n/a	n/a	n/a	n/a	n/a	n/a	n/a	n/a
420410	PROB	n/a	LTP278	ltpFR	7	n/a	n/a	n/a	n/a	n/a	n/a	19	5	9	5	n/a	n/a	n/a	n/a	n/a
423991	PROB	n/a	LTP278	ltpFR	7	n/a	n/a	n/a	n/a	n/a	n/a	14	4	8	2	n/a	n/a	n/a	n/a	n/a
427112	STOP	n/a	LTP278	ltpFR	7	n/a	n/a	n/a	n/a	n/a	n/a	n/a	n/a	n/a	n/a	n/a	n/a	n/a	n/a	n/a
428457	WORD	wordpools/wasnorm_wordpool_less_exclusions.txt	LTP278	ltpFR	7	2	1	DANDELION	438	n/a	1	n/a	0	0	0	0	0.5869140625	0.422607421875	lower	../fonts/zerothre.ttf
431469	START	n/a	LTP278	ltpFR	7	n/a	n/a	n/a	n/a	n/a	n/a	n/a	n/a	n/a	n/a	n/a	n/a	n/a	n/a	n/a
432572	PROB	n/a	LTP278	ltpFR	7	n/a	n/a	n/a	n/a	n/a	n/a	18	1	9	8	n/a	n/a	n/a	n/a	n/a
434330	PROB	n/a	LTP278	ltpFR	7	n/a	n/a	n/a	n/a	n/a	n/a	24	9	6	9	n/a	n/a	n/a	n/a	n/a
439468	STOP	n/a	LTP278	ltpFR	7	n/a	n/a	n/a	n/a	n/a	n/a	n/a	n/a	n/a	n/a	n/a	n/a	n/a	n/a	n/a
440536	WORD	wordpools/wasnorm_wordpool_less_exclusions.txt	LTP278	ltpFR	7	2	1	KITE	779	n/a	0	n/a	0	0	0	0	0.5869140625	0.422607421875	lower	../fonts/zerothre.ttf
443548	START	n/a	LTP278	ltpFR	7	n/a	n/a	n/a	n/a	n/a	n/a	n/a	n/a	n/a	n/a	n/a	n/a	n/a	n/a	n/a
444400	PROB	n/a	LTP278	ltpFR	7	n/a	n/a	n/a	n/a	n/a	n/a	19	8	5	6	n/a	n/a	n/a	n/a	n/a
446794	PROB	n/a	LTP278	ltpFR	7	n/a	n/a	n/a	n/a	n/a	n/a	15	4	4	7	n/a	n/a	n/a	n/a	n/a
448801	PROB	n/a	LTP278	ltpFR	7	n/a	n/a	n/a	n/a	n/a	n/a	14	5	4	5	n/a	n/a	n/a	n/a	n/a
450422	STOP	n/a	LTP278	ltpFR	7	n/a	n/a	n/a	n/a	n/a	n/a	n/a	n/a	n/a	n/a	n/a	n/a	n/a	n/a	n/a
452581	WORD	wordpools/wasnorm_wordpool_less_exclusions.txt	LTP278	ltpFR	7	2	1	BATHROOM	99	n/a	0	n/a	0	0	0	0	0.5869140625	0.422607421875	lower	../fonts/zerothre.ttf
455593	START	n/a	LTP278	ltpFR	7	n/a	n/a	n/a	n/a	n/a	n/a	n/a	n/a	n/a	n/a	n/a	n/a	n/a	n/a	n/a
456748	PROB	n/a	LTP278	ltpFR	7	n/a	n/a	n/a	n/a	n/a	n/a	21	3	9	9	n/a	n/a	n/a	n/a	n/a
459090	PROB	n/a	LTP278	ltpFR	7	n/a	n/a	n/a	n/a	n/a	n/a	16	3	4	9	n/a	n/a	n/a	n/a	n/a
463593	STOP	n/a	LTP278	ltpFR	7	n/a	n/a	n/a	n/a	n/a	n/a	n/a	n/a	n/a	n/a	n/a	n/a	n/a	n/a	n/a
464660	WORD	wordpools/wasnorm_wordpool_less_exclusions.txt	LTP278	ltpFR	7	2	1	CACTUS	215	n/a	1	n/a	0	0	0	0	0.5869140625	0.422607421875	lower	../fonts/zerothre.ttf
467672	START	n/a	LTP278	ltpFR	7	n/a	n/a	n/a	n/a	n/a	n/a	n/a	n/a	n/a	n/a	n/a	n/a	n/a	n/a	n/a
468843	PROB	n/a	LTP278	ltpFR	7	n/a	n/a	n/a	n/a	n/a	n/a	12	5	2	5	n/a	n/a	n/a	n/a	n/a
470432	PROB	n/a	LTP278	ltpFR	7	n/a	n/a	n/a	n/a	n/a	n/a	22	9	7	6	n/a	n/a	n/a	n/a	n/a
472724	PROB	n/a	LTP278	ltpFR	7	n/a	n/a	n/a	n/a	n/a	n/a	11	3	4	4	n/a	n/a	n/a	n/a	n/a
474543	STOP	n/a	LTP278	ltpFR	7	n/a	n/a	n/a	n/a	n/a	n/a	n/a	n/a	n/a	n/a	n/a	n/a	n/a	n/a	n/a
476555	WORD	wordpools/wasnorm_wordpool_less_exclusions.txt	LTP278	ltpFR	7	2	1	BIRD	129	n/a	1	n/a	0	0	0	0	0.5869140625	0.422607421875	lower	../fonts/zerothre.ttf
479567	START	n/a	LTP278	ltpFR	7	n/a	n/a	n/a	n/a	n/a	n/a	n/a	n/a	n/a	n/a	n/a	n/a	n/a	n/a	n/a
480503	PROB	n/a	LTP278	ltpFR	7	n/a	n/a	n/a	n/a	n/a	n/a	14	8	1	5	n/a	n/a	n/a	n/a	n/a
483398	PROB	n/a	LTP278	ltpFR	7	n/a	n/a	n/a	n/a	n/a	n/a	13	4	6	3	n/a	n/a	n/a	n/a	n/a
485589	PROB	n/a	LTP278	ltpFR	7	n/a	n/a	n/a	n/a	n/a	n/a	11	3	1	7	n/a	n/a	n/a	n/a	n/a
487104	STOP	n/a	LTP278	ltpFR	7	n/a	n/a	n/a	n/a	n/a	n/a	n/a	n/a	n/a	n/a	n/a	n/a	n/a	n/a	n/a
488785	WORD	wordpools/wasnorm_wordpool_less_exclusions.txt	LTP278	ltpFR	7	2	1	CANAL	226	n/a	0	n/a	0	0	0	0	0.5869140625	0.422607421875	lower	../fonts/zerothre.ttf
491798	START	n/a	LTP278	ltpFR	7	n/a	n/a	n/a	n/a	n/a	n/a	n/a	n/a	n/a	n/a	n/a	n/a	n/a	n/a	n/a
492867	PROB	n/a	LTP278	ltpFR	7	n/a	n/a	n/a	n/a	n/a	n/a	16	8	6	2	n/a	n/a	n/a	n/a	n/a
495709	PROB	n/a	LTP278	ltpFR	7	n/a	n/a	n/a	n/a	n/a	n/a	10	1	2	7	n/a	n/a	n/a	n/a	n/a
499798	STOP	n/a	LTP278	ltpFR	7	n/a	n/a	n/a	n/a	n/a	n/a	n/a	n/a	n/a	n/a	n/a	n/a	n/a	n/a	n/a
500629	WORD	wordpools/wasnorm_wordpool_less_exclusions.txt	LTP278	ltpFR	7	2	1	PALM	1007	n/a	0	n/a	0	0	0	0	0.5869140625	0.422607421875	lower	../fonts/zerothre.ttf
503641	START	n/a	LTP278	ltpFR	7	n/a	n/a	n/a	n/a	n/a	n/a	n/a	n/a	n/a	n/a	n/a	n/a	n/a	n/a	n/a
504694	PROB	n/a	LTP278	ltpFR	7	n/a	n/a	n/a	n/a	n/a	n/a	13	3	4	6	n/a	n/a	n/a	n/a	n/a
506835	PROB	n/a	LTP278	ltpFR	7	n/a	n/a	n/a	n/a	n/a	n/a	15	1	5	9	n/a	n/a	n/a	n/a	n/a
511641	STOP	n/a	LTP278	ltpFR	7	n/a	n/a	n/a	n/a	n/a	n/a	n/a	n/a	n/a	n/a	n/a	n/a	n/a	n/a	n/a
512507	WORD	wordpools/wasnorm_wordpool_less_exclusions.txt	LTP278	ltpFR	7	2	1	PERSONNEL	1053	n/a	1	n/a	0	0	0	0	0.5869140625	0.422607421875	lower	../fonts/zerothre.ttf
515519	START	n/a	LTP278	ltpFR	7	n/a	n/a	n/a	n/a	n/a	n/a	n/a	n/a	n/a	n/a	n/a	n/a	n/a	n/a	n/a
516522	PROB	n/a	LTP278	ltpFR	7	n/a	n/a	n/a	n/a	n/a	n/a	18	6	8	4	n/a	n/a	n/a	n/a	n/a
518964	PROB	n/a	LTP278	ltpFR	7	n/a	n/a	n/a	n/a	n/a	n/a	9	1	3	5	n/a	n/a	n/a	n/a	n/a
522096	STOP	n/a	LTP278	ltpFR	7	n/a	n/a	n/a	n/a	n/a	n/a	n/a	n/a	n/a	n/a	n/a	n/a	n/a	n/a	n/a
524703	WORD	wordpools/wasnorm_wordpool_less_exclusions.txt	LTP278	ltpFR	7	2	1	OWNER	993	n/a	1	n/a	0	0	0	0	0.5869140625	0.422607421875	lower	../fonts/zerothre.ttf
527715	START	n/a	LTP278	ltpFR	7	n/a	n/a	n/a	n/a	n/a	n/a	n/a	n/a	n/a	n/a	n/a	n/a	n/a	n/a	n/a
535714	STOP	n/a	LTP278	ltpFR	7	n/a	n/a	n/a	n/a	n/a	n/a	n/a	n/a	n/a	n/a	n/a	n/a	n/a	n/a	n/a
536598	WORD	wordpools/wasnorm_wordpool_less_exclusions.txt	LTP278	ltpFR	7	2	1	PEAR	1033	n/a	0	n/a	0	0	0	0	0.5869140625	0.422607421875	lower	../fonts/zerothre.ttf
539610	START	n/a	LTP278	ltpFR	7	n/a	n/a	n/a	n/a	n/a	n/a	n/a	n/a	n/a	n/a	n/a	n/a	n/a	n/a	n/a
540697	PROB	n/a	LTP278	ltpFR	7	n/a	n/a	n/a	n/a	n/a	n/a	18	3	8	7	n/a	n/a	n/a	n/a	n/a
543072	PROB	n/a	LTP278	ltpFR	7	n/a	n/a	n/a	n/a	n/a	n/a	8	3	2	3	n/a	n/a	n/a	n/a	n/a
545230	PROB	n/a	LTP278	ltpFR	7	n/a	n/a	n/a	n/a	n/a	n/a	22	6	7	9	n/a	n/a	n/a	n/a	n/a
547400	STOP	n/a	LTP278	ltpFR	7	n/a	n/a	n/a	n/a	n/a	n/a	n/a	n/a	n/a	n/a	n/a	n/a	n/a	n/a	n/a
548710	WORD	wordpools/wasnorm_wordpool_less_exclusions.txt	LTP278	ltpFR	7	2	1	NEST	945	n/a	0	n/a	0	0	0	0	0.5869140625	0.422607421875	lower	../fonts/zerothre.ttf
551722	START	n/a	LTP278	ltpFR	7	n/a	n/a	n/a	n/a	n/a	n/a	n/a	n/a	n/a	n/a	n/a	n/a	n/a	n/a	n/a
552707	PROB	n/a	LTP278	ltpFR	7	n/a	n/a	n/a	n/a	n/a	n/a	21	8	5	8	n/a	n/a	n/a	n/a	n/a
555002	PROB	n/a	LTP278	ltpFR	7	n/a	n/a	n/a	n/a	n/a	n/a	17	2	7	8	n/a	n/a	n/a	n/a	n/a
557543	PROB	n/a	LTP278	ltpFR	7	n/a	n/a	n/a	n/a	n/a	n/a	13	5	3	5	n/a	n/a	n/a	n/a	n/a
559591	STOP	n/a	LTP278	ltpFR	7	n/a	n/a	n/a	n/a	n/a	n/a	n/a	n/a	n/a	n/a	n/a	n/a	n/a	n/a	n/a
560572	WORD	wordpools/wasnorm_wordpool_less_exclusions.txt	LTP278	ltpFR	7	2	1	SWAN	1417	n/a	1	n/a	0	0	0	0	0.5869140625	0.422607421875	lower	../fonts/zerothre.ttf
563584	START	n/a	LTP278	ltpFR	7	n/a	n/a	n/a	n/a	n/a	n/a	n/a	n/a	n/a	n/a	n/a	n/a	n/a	n/a	n/a
564670	PROB	n/a	LTP278	ltpFR	7	n/a	n/a	n/a	n/a	n/a	n/a	16	2	9	5	n/a	n/a	n/a	n/a	n/a
567315	PROB	n/a	LTP278	ltpFR	7	n/a	n/a	n/a	n/a	n/a	n/a	15	9	4	2	n/a	n/a	n/a	n/a	n/a
571584	STOP	n/a	LTP278	ltpFR	7	n/a	n/a	n/a	n/a	n/a	n/a	n/a	n/a	n/a	n/a	n/a	n/a	n/a	n/a	n/a
572717	WORD	wordpools/wasnorm_wordpool_less_exclusions.txt	LTP278	ltpFR	7	2	1	ROBIN	1199	n/a	1	n/a	0	0	0	0	0.5869140625	0.422607421875	lower	../fonts/zerothre.ttf
575730	START	n/a	LTP278	ltpFR	7	n/a	n/a	n/a	n/a	n/a	n/a	n/a	n/a	n/a	n/a	n/a	n/a	n/a	n/a	n/a
576934	PROB	n/a	LTP278	ltpFR	7	n/a	n/a	n/a	n/a	n/a	n/a	18	8	3	7	n/a	n/a	n/a	n/a	n/a
579310	PROB	n/a	LTP278	ltpFR	7	n/a	n/a	n/a	n/a	n/a	n/a	16	9	4	3	n/a	n/a	n/a	n/a	n/a
583730	STOP	n/a	LTP278	ltpFR	7	n/a	n/a	n/a	n/a	n/a	n/a	n/a	n/a	n/a	n/a	n/a	n/a	n/a	n/a	n/a
584594	WORD	wordpools/wasnorm_wordpool_less_exclusions.txt	LTP278	ltpFR	7	2	1	BEAST	108	n/a	1	n/a	0	0	0	0	0.5869140625	0.422607421875	lower	../fonts/zerothre.ttf
587607	START	n/a	LTP278	ltpFR	7	n/a	n/a	n/a	n/a	n/a	n/a	n/a	n/a	n/a	n/a	n/a	n/a	n/a	n/a	n/a
588594	PROB	n/a	LTP278	ltpFR	7	n/a	n/a	n/a	n/a	n/a	n/a	14	6	1	7	n/a	n/a	n/a	n/a	n/a
590985	PROB	n/a	LTP278	ltpFR	7	n/a	n/a	n/a	n/a	n/a	n/a	7	5	1	1	n/a	n/a	n/a	n/a	n/a
592961	PROB	n/a	LTP278	ltpFR	7	n/a	n/a	n/a	n/a	n/a	n/a	18	9	3	6	n/a	n/a	n/a	n/a	n/a
595400	STOP	n/a	LTP278	ltpFR	7	n/a	n/a	n/a	n/a	n/a	n/a	n/a	n/a	n/a	n/a	n/a	n/a	n/a	n/a	n/a
596507	WORD	wordpools/wasnorm_wordpool_less_exclusions.txt	LTP278	ltpFR	7	2	1	CHIPMUNK	304	n/a	1	n/a	0	0	0	0	0.5869140625	0.422607421875	lower	../fonts/zerothre.ttf
599519	START	n/a	LTP278	ltpFR	7	n/a	n/a	n/a	n/a	n/a	n/a	n/a	n/a	n/a	n/a	n/a	n/a	n/a	n/a	n/a
600639	PROB	n/a	LTP278	ltpFR	7	n/a	n/a	n/a	n/a	n/a	n/a	10	2	6	2	n/a	n/a	n/a	n/a	n/a
603081	PROB	n/a	LTP278	ltpFR	7	n/a	n/a	n/a	n/a	n/a	n/a	12	6	5	1	n/a	n/a	n/a	n/a	n/a
607519	STOP	n/a	LTP278	ltpFR	7	n/a	n/a	n/a	n/a	n/a	n/a	n/a	n/a	n/a	n/a	n/a	n/a	n/a	n/a	n/a
609324	REC_START	n/a	LTP278	ltpFR	7	2	n/a	n/a	n/a	n/a	n/a	n/a	0	0	0	n/a	n/a	n/a	n/a	n/a
610536	REC_WORD	wordpools/wasnorm_wordpool_less_exclusions.txt	LTP278	ltpFR	7	2	1	CHIPMUNK	304	n/a	1	n/a	0	0	0	n/a	n/a	n/a	n/a	n/a
612493	REC_WORD	wordpools/wasnorm_wordpool_less_exclusions.txt	LTP278	ltpFR	7	2	1	ROBIN	1199	n/a	1	n/a	0	0	0	n/a	n/a	n/a	n/a	n/a
613809	REC_WORD	wordpools/wasnorm_wordpool_less_exclusions.txt	LTP278	ltpFR	7	2	1	BIRD	129	n/a	1	n/a	0	0	0	n/a	n/a	n/a	n/a	n/a
614838	REC_WORD	wordpools/wasnorm_wordpool_less_exclusions.txt	LTP278	ltpFR	7	2	1	DANDELION	438	n/a	1	n/a	0	0	0	n/a	n/a	n/a	n/a	n/a
616177	REC_WORD	wordpools/wasnorm_wordpool_less_exclusions.txt	LTP278	ltpFR	7	2	1	PERSONNEL	1053	n/a	1	n/a	0	0	0	n/a	n/a	n/a	n/a	n/a
619784	REC_WORD	wordpools/wasnorm_wordpool_less_exclusions.txt	LTP278	ltpFR	7	2	1	NAIL	936	n/a	0	n/a	0	0	0	n/a	n/a	n/a	n/a	n/a
624913	REC_WORD	wordpools/wasnorm_wordpool_less_exclusions.txt	LTP278	ltpFR	7	2	1	PALM	1007	n/a	0	n/a	0	0	0	n/a	n/a	n/a	n/a	n/a
628363	REC_WORD_VV	wordpools/wasnorm_wordpool_less_exclusions.txt	LTP278	ltpFR	7	2	n/a	<>	-1	n/a	n/a	n/a	0	0	0	n/a	n/a	n/a	n/a	n/a
629988	REC_WORD_VV	wordpools/wasnorm_wordpool_less_exclusions.txt	LTP278	ltpFR	7	2	n/a	<>	-1	n/a	n/a	n/a	0	0	0	n/a	n/a	n/a	n/a	n/a
639807	REC_WORD	wordpools/wasnorm_wordpool_less_exclusions.txt	LTP278	ltpFR	7	2	1	NEST	945	n/a	0	n/a	0	0	0	n/a	n/a	n/a	n/a	n/a
643383	REC_WORD	wordpools/wasnorm_wordpool_less_exclusions.txt	LTP278	ltpFR	7	2	1	CACTUS	215	n/a	1	n/a	0	0	0	n/a	n/a	n/a	n/a	n/a
799105	WORD	wordpools/wasnorm_wordpool_less_exclusions.txt	LTP278	ltpFR	7	3	1	SLIDE	1326	n/a	0	n/a	0	0	0	0	0.5869140625	0.422607421875	lower	../fonts/zerothre.ttf
803103	WORD	wordpools/wasnorm_wordpool_less_exclusions.txt	LTP278	ltpFR	7	3	1	CABOOSE	214	n/a	0	n/a	0	0	0	0	0.5869140625	0.422607421875	lower	../fonts/zerothre.ttf
807235	WORD	wordpools/wasnorm_wordpool_less_exclusions.txt	LTP278	ltpFR	7	3	1	SEAGULL	1261	n/a	1	n/a	0	0	0	0	0.5869140625	0.422607421875	lower	../fonts/zerothre.ttf
811234	WORD	wordpools/wasnorm_wordpool_less_exclusions.txt	LTP278	ltpFR	7	3	1	PLANT	1083	n/a	1	n/a	0	0	0	0	0.5869140625	0.422607421875	lower	../fonts/zerothre.ttf
815182	WORD	wordpools/wasnorm_wordpool_less_exclusions.txt	LTP278	ltpFR	7	3	1	ORANGE	980	n/a	1	n/a	0	0	0	0	0.5869140625	0.422607421875	lower	../fonts/zerothre.ttf
819348	WORD	wordpools/wasnorm_wordpool_less_exclusions.txt	LTP278	ltpFR	7	3	1	KIWI	781	n/a	1	n/a	0	0	0	0	0.5869140625	0.422607421875	lower	../fonts/zerothre.ttf
823446	WORD	wordpools/wasnorm_wordpool_less_exclusions.txt	LTP278	ltpFR	7	3	1	POOL	1103	n/a	0	n/a	0	0	0	0	0.5869140625	0.422607421875	lower	../fonts/zerothre.ttf
827395	WORD	wordpools/wasnorm_wordpool_less_exclusions.txt	LTP278	ltpFR	7	3	1	KEYBOARD	774	n/a	0	n/a	0	0	0	0	0.5869140625	0.422607421875	lower	../fonts/zerothre.ttf
831243	WORD	wordpools/wasnorm_wordpool_less_exclusions.txt	LTP278	ltpFR	7	3	1	OBOE	969	n/a	1	n/a	0	0	0	0	0.5869140625	0.422607421875	lower	../fonts/zerothre.ttf
835107	WORD	wordpools/wasnorm_wordpool_less_exclusions.txt	LTP278	ltpFR	7	3	1	TRENCH	1503	n/a	0	n/a	0	0	0	0	0.5869140625	0.422607421875	lower	../fonts/zerothre.ttf
838989	WORD	wordpools/wasnorm_wordpool_less_exclusions.txt	LTP278	ltpFR	7	3	1	CREVICE	405	n/a	0	n/a	0	0	0	0	0.5869140625	0.422607421875	lower	../fonts/zerothre.ttf
843188	WORD	wordpools/wasnorm_wordpool_less_exclusions.txt	LTP278	ltpFR	7	3	1	ENGINEER	536	n/a	1	n/a	0	0	0	0	0.5869140625	0.422607421875	lower	../fonts/zerothre.ttf
847153	WORD	wordpools/wasnorm_wordpool_less_exclusions.txt	LTP278	ltpFR	7	3	1	PELICAN	1039	n/a	1	n/a	0	0	0	0	0.5869140625	0.422607421875	lower	../fonts/zerothre.ttf
851051	WORD	wordpools/wasnorm_wordpool_less_exclusions.txt	LTP278	ltpFR	7	3	1	EDITOR	516	n/a	1	n/a	0	0	0	0	0.5869140625	0.422607421875	lower	../fonts/zerothre.ttf
855066	WORD	wordpools/wasnorm_wordpool_less_exclusions.txt	LTP278	ltpFR	7	3	1	FARMER	553	n/a	1	n/a	0	0	0	0	0.5869140625	0.422607421875	lower	../fonts/zerothre.ttf
859048	WORD	wordpools/wasnorm_wordpool_less_exclusions.txt	LTP278	ltpFR	7	3	1	TYPEWRITER	1531	n/a	0	n/a	0	0	0	0	0.5869140625	0.422607421875	lower	../fonts/zerothre.ttf
862059	START	n/a	LTP278	ltpFR	7	n/a	n/a	n/a	n/a	n/a	n/a	n/a	n/a	n/a	n/a	n/a	n/a	n/a	n/a	n/a
863096	PROB	n/a	LTP278	ltpFR	7	n/a	n/a	n/a	n/a	n/a	n/a	11	4	3	4	n/a	n/a	n/a	n/a	n/a
866323	PROB	n/a	LTP278	ltpFR	7	n/a	n/a	n/a	n/a	n/a	n/a	10	6	3	1	n/a	n/a	n/a	n/a	n/a
870058	STOP	n/a	LTP278	ltpFR	7	n/a	n/a	n/a	n/a	n/a	n/a	n/a	n/a	n/a	n/a	n/a	n/a	n/a	n/a	n/a
871980	REC_START	n/a	LTP278	ltpFR	7	3	n/a	n/a	n/a	n/a	n/a	n/a	0	0	0	n/a	n/a	n/a	n/a	n/a
872453	REC_WORD	wordpools/wasnorm_wordpool_less_exclusions.txt	LTP278	ltpFR	7	3	1	TYPEWRITER	1531	n/a	0	n/a	0	0	0	n/a	n/a	n/a	n/a	n/a
873676	REC_WORD	wordpools/wasnorm_wordpool_less_exclusions.txt	LTP278	ltpFR	7	3	1	ENGINEER	536	n/a	1	n/a	0	0	0	n/a	n/a	n/a	n/a	n/a
874743	REC_WORD	wordpools/wasnorm_wordpool_less_exclusions.txt	LTP278	ltpFR	7	3	1	FARMER	553	n/a	1	n/a	0	0	0	n/a	n/a	n/a	n/a	n/a
877444	REC_WORD	wordpools/wasnorm_wordpool_less_exclusions.txt	LTP278	ltpFR	7	3	1	KIWI	781	n/a	1	n/a	0	0	0	n/a	n/a	n/a	n/a	n/a
882848	REC_WORD	wordpools/wasnorm_wordpool_less_exclusions.txt	LTP278	ltpFR	7	3	1	SEAGULL	1261	n/a	1	n/a	0	0	0	n/a	n/a	n/a	n/a	n/a
887526	REC_WORD	wordpools/wasnorm_wordpool_less_exclusions.txt	LTP278	ltpFR	7	3	1	ORANGE	980	n/a	1	n/a	0	0	0	n/a	n/a	n/a	n/a	n/a
888831	REC_WORD	wordpools/wasnorm_wordpool_less_exclusions.txt	LTP278	ltpFR	7	3	1	PLANT	1083	n/a	1	n/a	0	0	0	n/a	n/a	n/a	n/a	n/a
928695	REC_WORD	wordpools/wasnorm_wordpool_less_exclusions.txt	LTP278	ltpFR	7	3	1	CABOOSE	214	n/a	0	n/a	0	0	0	n/a	n/a	n/a	n/a	n/a
948584	START	n/a	LTP278	ltpFR	7	n/a	n/a	n/a	n/a	n/a	n/a	n/a	n/a	n/a	n/a	n/a	n/a	n/a	n/a	n/a
950091	PROB	n/a	LTP278	ltpFR	7	n/a	n/a	n/a	n/a	n/a	n/a	13	5	5	3	n/a	n/a	n/a	n/a	n/a
956584	STOP	n/a	LTP278	ltpFR	7	n/a	n/a	n/a	n/a	n/a	n/a	n/a	n/a	n/a	n/a	n/a	n/a	n/a	n/a	n/a
957501	WORD	wordpools/wasnorm_wordpool_less_exclusions.txt	LTP278	ltpFR	7	4	0	ASHTRAY	45	n/a	0	n/a	0	0	0	1	0.412841796875	0.57763671875	upper	../fonts/amplitud.ttf
960513	START	n/a	LTP278	ltpFR	7	n/a	n/a	n/a	n/a	n/a	n/a	n/a	n/a	n/a	n/a	n/a	n/a	n/a	n/a	n/a
961583	PROB	n/a	LTP278	ltpFR	7	n/a	n/a	n/a	n/a	n/a	n/a	12	1	1	8	n/a	n/a	n/a	n/a	n/a
964261	PROB	n/a	LTP278	ltpFR	7	n/a	n/a	n/a	n/a	n/a	n/a	9	3	1	5	n/a	n/a	n/a	n/a	n/a
967623	STOP	n/a	LTP278	ltpFR	7	n/a	n/a	n/a	n/a	n/a	n/a	n/a	n/a	n/a	n/a	n/a	n/a	n/a	n/a	n/a
969479	WORD	wordpools/wasnorm_wordpool_less_exclusions.txt	LTP278	ltpFR	7	4	0	ANIMAL	23	n/a	1	n/a	0	0	0	1	0.412841796875	0.57763671875	upper	../fonts/amplitud.ttf
972492	START	n/a	LTP278	ltpFR	7	n/a	n/a	n/a	n/a	n/a	n/a	n/a	n/a	n/a	n/a	n/a	n/a	n/a	n/a	n/a
973343	PROB	n/a	LTP278	ltpFR	7	n/a	n/a	n/a	n/a	n/a	n/a	15	3	3	9	n/a	n/a	n/a	n/a	n/a
975386	PROB	n/a	LTP278	ltpFR	7	n/a	n/a	n/a	n/a	n/a	n/a	22	4	9	9	n/a	n/a	n/a	n/a	n/a
980492	STOP	n/a	LTP278	ltpFR	7	n/a	n/a	n/a	n/a	n/a	n/a	n/a	n/a	n/a	n/a	n/a	n/a	n/a	n/a	n/a
981642	WORD	wordpools/wasnorm_wordpool_less_exclusions.txt	LTP278	ltpFR	7	4	0	ROOM	1206	n/a	1	n/a	0	0	0	1	0.412841796875	0.57763671875	upper	../fonts/amplitud.ttf
984654	START	n/a	LTP278	ltpFR	7	n/a	n/a	n/a	n/a	n/a	n/a	n/a	n/a	n/a	n/a	n/a	n/a	n/a	n/a	n/a
985674	PROB	n/a	LTP278	ltpFR	7	n/a	n/a	n/a	n/a	n/a	n/a	14	8	5	1	n/a	n/a	n/a	n/a	n/a
987932	PROB	n/a	LTP278	ltpFR	7	n/a	n/a	n/a	n/a	n/a	n/a	19	3	9	7	n/a	n/a	n/a	n/a	n/a
991463	STOP	n/a	LTP278	ltpFR	7	n/a	n/a	n/a	n/a	n/a	n/a	n/a	n/a	n/a	n/a	n/a	n/a	n/a	n/a	n/a
993670	WORD	wordpools/wasnorm_wordpool_less_exclusions.txt	LTP278	ltpFR	7	4	0	PITCHFORK	1078	n/a	1	n/a	0	0	0	1	0.412841796875	0.57763671875	upper	../fonts/amplitud.ttf
996683	START	n/a	LTP278	ltpFR	7	n/a	n/a	n/a	n/a	n/a	n/a	n/a	n/a	n/a	n/a	n/a	n/a	n/a	n/a	n/a
997871	PROB	n/a	LTP278	ltpFR	7	n/a	n/a	n/a	n/a	n/a	n/a	22	8	9	5	n/a	n/a	n/a	n/a	n/a
1002319	PROB	n/a	LTP278	ltpFR	7	n/a	n/a	n/a	n/a	n/a	n/a	15	7	2	8	n/a	n/a	n/a	n/a	n/a
1004304	STOP	n/a	LTP278	ltpFR	7	n/a	n/a	n/a	n/a	n/a	n/a	n/a	n/a	n/a	n/a	n/a	n/a	n/a	n/a	n/a
1005682	WORD	wordpools/wasnorm_wordpool_less_exclusions.txt	LTP278	ltpFR	7	4	0	DESSERT	453	n/a	0	n/a	0	0	0	1	0.412841796875	0.57763671875	upper	../fonts/amplitud.ttf
1008695	START	n/a	LTP278	ltpFR	7	n/a	n/a	n/a	n/a	n/a	n/a	n/a	n/a	n/a	n/a	n/a	n/a	n/a	n/a	n/a
1009614	PROB	n/a	LTP278	ltpFR	7	n/a	n/a	n/a	n/a	n/a	n/a	14	2	6	6	n/a	n/a	n/a	n/a	n/a
1011924	PROB	n/a	LTP278	ltpFR	7	n/a	n/a	n/a	n/a	n/a	n/a	5	1	2	2	n/a	n/a	n/a	n/a	n/a
1013245	PROB	n/a	LTP278	ltpFR	7	n/a	n/a	n/a	n/a	n/a	n/a	15	6	3	6	n/a	n/a	n/a	n/a	n/a
1015200	STOP	n/a	LTP278	ltpFR	7	n/a	n/a	n/a	n/a	n/a	n/a	n/a	n/a	n/a	n/a	n/a	n/a	n/a	n/a	n/a
1017644	WORD	wordpools/wasnorm_wordpool_less_exclusions.txt	LTP278	ltpFR	7	4	0	GENERAL	630	n/a	1	n/a	0	0	0	1	0.412841796875	0.57763671875	upper	../fonts/amplitud.ttf
1020656	START	n/a	LTP278	ltpFR	7	n/a	n/a	n/a	n/a	n/a	n/a	n/a	n/a	n/a	n/a	n/a	n/a	n/a	n/a	n/a
1021492	PROB	n/a	LTP278	ltpFR	7	n/a	n/a	n/a	n/a	n/a	n/a	10	5	3	2	n/a	n/a	n/a	n/a	n/a
1024053	PROB	n/a	LTP278	ltpFR	7	n/a	n/a	n/a	n/a	n/a	n/a	13	7	4	2	n/a	n/a	n/a	n/a	n/a
1027407	STOP	n/a	LTP278	ltpFR	7	n/a	n/a	n/a	n/a	n/a	n/a	n/a	n/a	n/a	n/a	n/a	n/a	n/a	n/a	n/a
1029539	WORD	wordpools/wasnorm_wordpool_less_exclusions.txt	LTP278	ltpFR	7	4	0	ARMY	39	n/a	1	n/a	0	0	0	1	0.412841796875	0.57763671875	upper	../fonts/amplitud.ttf
1032551	START	n/a	LTP278	ltpFR	7	n/a	n/a	n/a	n/a	n/a	n/a	n/a	n/a	n/a	n/a	n/a	n/a	n/a	n/a	n/a
1033519	PROB	n/a	LTP278	ltpFR	7	n/a	n/a	n/a	n/a	n/a	n/a	20	7	6	7	n/a	n/a	n/a	n/a	n/a
1036165	PROB	n/a	LTP278	ltpFR	7	n/a	n/a	n/a	n/a	n/a	n/a	19	6	8	5	n/a	n/a	n/a	n/a	n/a
1040551	STOP	n/a	LTP278	ltpFR	7	n/a	n/a	n/a	n/a	n/a	n/a	n/a	n/a	n/a	n/a	n/a	n/a	n/a	n/a	n/a
1041651	WORD	wordpools/wasnorm_wordpool_less_exclusions.txt	LTP278	ltpFR	7	4	0	OCEAN	970	n/a	1	n/a	0	0	0	1	0.412841796875	0.57763671875	upper	../fonts/amplitud.ttf
1044663	START	n/a	LTP278	ltpFR	7	n/a	n/a	n/a	n/a	n/a	n/a	n/a	n/a	n/a	n/a	n/a	n/a	n/a	n/a	n/a
1045768	PROB	n/a	LTP278	ltpFR	7	n/a	n/a	n/a	n/a	n/a	n/a	16	6	7	3	n/a	n/a	n/a	n/a	n/a
1048110	PROB	n/a	LTP278	ltpFR	7	n/a	n/a	n/a	n/a	n/a	n/a	15	4	3	8	n/a	n/a	n/a	n/a	n/a
1050183	PROB	n/a	LTP278	ltpFR	7	n/a	n/a	n/a	n/a	n/a	n/a	12	1	4	7	n/a	n/a	n/a	n/a	n/a
1051896	STOP	n/a	LTP278	ltpFR	7	n/a	n/a	n/a	n/a	n/a	n/a	n/a	n/a	n/a	n/a	n/a	n/a	n/a	n/a	n/a
1053513	WORD	wordpools/wasnorm_wordpool_less_exclusions.txt	LTP278	ltpFR	7	4	0	PIKE	1067	n/a	0	n/a	0	0	0	1	0.412841796875	0.57763671875	upper	../fonts/amplitud.ttf
1056525	START	n/a	LTP278	ltpFR	7	n/a	n/a	n/a	n/a	n/a	n/a	n/a	n/a	n/a	n/a	n/a	n/a	n/a	n/a	n/a
1057627	PROB	n/a	LTP278	ltpFR	7	n/a	n/a	n/a	n/a	n/a	n/a	9	2	1	6	n/a	n/a	n/a	n/a	n/a
1059886	PROB	n/a	LTP278	ltpFR	7	n/a	n/a	n/a	n/a	n/a	n/a	12	5	4	3	n/a	n/a	n/a	n/a	n/a
1064525	STOP	n/a	LTP278	ltpFR	7	n/a	n/a	n/a	n/a	n/a	n/a	n/a	n/a	n/a	n/a	n/a	n/a	n/a	n/a	n/a
1065575	WORD	wordpools/wasnorm_wordpool_less_exclusions.txt	LTP278	ltpFR	7	4	0	BASEBALL	93	n/a	0	n/a	0	0	0	1	0.412841796875	0.57763671875	upper	../fonts/amplitud.ttf
1068587	START	n/a	LTP278	ltpFR	7	n/a	n/a	n/a	n/a	n/a	n/a	n/a	n/a	n/a	n/a	n/a	n/a	n/a	n/a	n/a
1069724	PROB	n/a	LTP278	ltpFR	7	n/a	n/a	n/a	n/a	n/a	n/a	13	3	5	5	n/a	n/a	n/a	n/a	n/a
1071850	PROB	n/a	LTP278	ltpFR	7	n/a	n/a	n/a	n/a	n/a	n/a	18	6	6	6	n/a	n/a	n/a	n/a	n/a
1074123	PROB	n/a	LTP278	ltpFR	7	n/a	n/a	n/a	n/a	n/a	n/a	11	5	5	1	n/a	n/a	n/a	n/a	n/a
1075841	STOP	n/a	LTP278	ltpFR	7	n/a	n/a	n/a	n/a	n/a	n/a	n/a	n/a	n/a	n/a	n/a	n/a	n/a	n/a	n/a
1077721	WORD	wordpools/wasnorm_wordpool_less_exclusions.txt	LTP278	ltpFR	7	4	0	APPLE	33	n/a	0	n/a	0	0	0	1	0.412841796875	0.57763671875	upper	../fonts/amplitud.ttf
1080734	START	n/a	LTP278	ltpFR	7	n/a	n/a	n/a	n/a	n/a	n/a	n/a	n/a	n/a	n/a	n/a	n/a	n/a	n/a	n/a
1081737	PROB	n/a	LTP278	ltpFR	7	n/a	n/a	n/a	n/a	n/a	n/a	12	4	7	1	n/a	n/a	n/a	n/a	n/a
1083610	PROB	n/a	LTP278	ltpFR	7	n/a	n/a	n/a	n/a	n/a	n/a	18	8	2	8	n/a	n/a	n/a	n/a	n/a
1088734	STOP	n/a	LTP278	ltpFR	7	n/a	n/a	n/a	n/a	n/a	n/a	n/a	n/a	n/a	n/a	n/a	n/a	n/a	n/a	n/a
1089615	WORD	wordpools/wasnorm_wordpool_less_exclusions.txt	LTP278	ltpFR	7	4	0	RAISIN	1163	n/a	0	n/a	0	0	0	1	0.412841796875	0.57763671875	upper	../fonts/amplitud.ttf
1092628	START	n/a	LTP278	ltpFR	7	n/a	n/a	n/a	n/a	n/a	n/a	n/a	n/a	n/a	n/a	n/a	n/a	n/a	n/a	n/a
1093580	PROB	n/a	LTP278	ltpFR	7	n/a	n/a	n/a	n/a	n/a	n/a	18	2	8	8	n/a	n/a	n/a	n/a	n/a
1095338	PROB	n/a	LTP278	ltpFR	7	n/a	n/a	n/a	n/a	n/a	n/a	11	1	9	1	n/a	n/a	n/a	n/a	n/a
1097294	PROB	n/a	LTP278	ltpFR	7	n/a	n/a	n/a	n/a	n/a	n/a	11	1	8	2	n/a	n/a	n/a	n/a	n/a
1100615	STOP	n/a	LTP278	ltpFR	7	n/a	n/a	n/a	n/a	n/a	n/a	n/a	n/a	n/a	n/a	n/a	n/a	n/a	n/a	n/a
1101745	WORD	wordpools/wasnorm_wordpool_less_exclusions.txt	LTP278	ltpFR	7	4	0	OTTER	986	n/a	0	n/a	0	0	0	1	0.412841796875	0.57763671875	upper	../fonts/amplitud.ttf
1104758	START	n/a	LTP278	ltpFR	7	n/a	n/a	n/a	n/a	n/a	n/a	n/a	n/a	n/a	n/a	n/a	n/a	n/a	n/a	n/a
1105961	PROB	n/a	LTP278	ltpFR	7	n/a	n/a	n/a	n/a	n/a	n/a	16	6	1	9	n/a	n/a	n/a	n/a	n/a
1112752	STOP	n/a	LTP278	ltpFR	7	n/a	n/a	n/a	n/a	n/a	n/a	n/a	n/a	n/a	n/a	n/a	n/a	n/a	n/a	n/a
1113975	WORD	wordpools/wasnorm_wordpool_less_exclusions.txt	LTP278	ltpFR	7	4	0	DICE	461	n/a	0	n/a	0	0	0	1	0.412841796875	0.57763671875	upper	../fonts/amplitud.ttf
1116987	START	n/a	LTP278	ltpFR	7	n/a	n/a	n/a	n/a	n/a	n/a	n/a	n/a	n/a	n/a	n/a	n/a	n/a	n/a	n/a
1117806	PROB	n/a	LTP278	ltpFR	7	n/a	n/a	n/a	n/a	n/a	n/a	19	5	5	9	n/a	n/a	n/a	n/a	n/a
1120464	PROB	n/a	LTP278	ltpFR	7	n/a	n/a	n/a	n/a	n/a	n/a	24	6	9	9	n/a	n/a	n/a	n/a	n/a
1124656	STOP	n/a	LTP278	ltpFR	7	n/a	n/a	n/a	n/a	n/a	n/a	n/a	n/a	n/a	n/a	n/a	n/a	n/a	n/a	n/a
1126153	WORD	wordpools/wasnorm_wordpool_less_exclusions.txt	LTP278	ltpFR	7	4	0	SEAL	1262	n/a	1	n/a	0	0	0	1	0.412841796875	0.57763671875	upper	../fonts/amplitud.ttf
1129166	START	n/a	LTP278	ltpFR	7	n/a	n/a	n/a	n/a	n/a	n/a	n/a	n/a	n/a	n/a	n/a	n/a	n/a	n/a	n/a
1130186	PROB	n/a	LTP278	ltpFR	7	n/a	n/a	n/a	n/a	n/a	n/a	9	4	1	4	n/a	n/a	n/a	n/a	n/a
1132378	PROB	n/a	LTP278	ltpFR	7	n/a	n/a	n/a	n/a	n/a	n/a	14	5	6	3	n/a	n/a	n/a	n/a	n/a
1134602	PROB	n/a	LTP278	ltpFR	7	n/a	n/a	n/a	n/a	n/a	n/a	15	5	4	6	n/a	n/a	n/a	n/a	n/a
1136240	STOP	n/a	LTP278	ltpFR	7	n/a	n/a	n/a	n/a	n/a	n/a	n/a	n/a	n/a	n/a	n/a	n/a	n/a	n/a	n/a
1138099	WORD	wordpools/wasnorm_wordpool_less_exclusions.txt	LTP278	ltpFR	7	4	0	CAFE	216	n/a	1	n/a	0	0	0	1	0.412841796875	0.57763671875	upper	../fonts/amplitud.ttf
1141111	START	n/a	LTP278	ltpFR	7	n/a	n/a	n/a	n/a	n/a	n/a	n/a	n/a	n/a	n/a	n/a	n/a	n/a	n/a	n/a
1141930	PROB	n/a	LTP278	ltpFR	7	n/a	n/a	n/a	n/a	n/a	n/a	9	5	1	3	n/a	n/a	n/a	n/a	n/a
1144521	PROB	n/a	LTP278	ltpFR	7	n/a	n/a	n/a	n/a	n/a	n/a	16	1	8	7	n/a	n/a	n/a	n/a	n/a
1147841	STOP	n/a	LTP278	ltpFR	7	n/a	n/a	n/a	n/a	n/a	n/a	n/a	n/a	n/a	n/a	n/a	n/a	n/a	n/a	n/a
1150898	REC_START	n/a	LTP278	ltpFR	7	4	n/a	n/a	n/a	n/a	n/a	n/a	0	0	0	n/a	n/a	n/a	n/a	n/a
1151929	REC_WORD	wordpools/wasnorm_wordpool_less_exclusions.txt	LTP278	ltpFR	7	4	0	CAFE	216	n/a	1	n/a	0	0	0	n/a	n/a	n/a	n/a	n/a
1156316	REC_WORD	wordpools/wasnorm_wordpool_less_exclusions.txt	LTP278	ltpFR	7	4	0	SEAL	1262	n/a	1	n/a	0	0	0	n/a	n/a	n/a	n/a	n/a
1157518	REC_WORD	wordpools/wasnorm_wordpool_less_exclusions.txt	LTP278	ltpFR	7	4	0	OTTER	986	n/a	0	n/a	0	0	0	n/a	n/a	n/a	n/a	n/a
1171191	REC_WORD	wordpools/wasnorm_wordpool_less_exclusions.txt	LTP278	ltpFR	7	4	0	PITCHFORK	1078	n/a	1	n/a	0	0	0	n/a	n/a	n/a	n/a	n/a
1194070	REC_WORD	wordpools/wasnorm_wordpool_less_exclusions.txt	LTP278	ltpFR	7	4	0	ARMY	39	n/a	1	n/a	0	0	0	n/a	n/a	n/a	n/a	n/a
1197812	REC_WORD	wordpools/wasnorm_wordpool_less_exclusions.txt	LTP278	ltpFR	7	4	0	GENERAL	630	n/a	1	n/a	0	0	0	n/a	n/a	n/a	n/a	n/a
1229576	WORD	wordpools/wasnorm_wordpool_less_exclusions.txt	LTP278	ltpFR	7	5	0	SUIT	1402	n/a	1	n/a	0	0	0	1	0.412841796875	0.57763671875	upper	../fonts/amplitud.ttf
1233776	WORD	wordpools/wasnorm_wordpool_less_exclusions.txt	LTP278	ltpFR	7	5	0	SLEEVE	1324	n/a	0	n/a	0	0	0	1	0.412841796875	0.57763671875	upper	../fonts/amplitud.ttf
1237842	WORD	wordpools/wasnorm_wordpool_less_exclusions.txt	LTP278	ltpFR	7	5	0	ASSISTANT	48	n/a	1	n/a	0	0	0	1	0.412841796875	0.57763671875	upper	../fonts/amplitud.ttf
1242007	WORD	wordpools/wasnorm_wordpool_less_exclusions.txt	LTP278	ltpFR	7	5	0	SHIP	1286	n/a	0	n/a	0	0	0	1	0.412841796875	0.57763671875	upper	../fonts/amplitud.ttf
1245989	WORD	wordpools/wasnorm_wordpool_less_exclusions.txt	LTP278	ltpFR	7	5	0	BOAT	144	n/a	1	n/a	0	0	0	1	0.412841796875	0.57763671875	upper	../fonts/amplitud.ttf
1249902	WORD	wordpools/wasnorm_wordpool_less_exclusions.txt	LTP278	ltpFR	7	5	0	PENGUIN	1044	n/a	1	n/a	0	0	0	1	0.412841796875	0.57763671875	upper	../fonts/amplitud.ttf
1254051	WORD	wordpools/wasnorm_wordpool_less_exclusions.txt	LTP278	ltpFR	7	5	0	FRAGRANCE	599	n/a	1	n/a	0	0	0	1	0.412841796875	0.57763671875	upper	../fonts/amplitud.ttf
1257984	WORD	wordpools/wasnorm_wordpool_less_exclusions.txt	LTP278	ltpFR	7	5	0	PUB	1135	n/a	1	n/a	0	0	0	1	0.412841796875	0.57763671875	upper	../fonts/amplitud.ttf
1262167	WORD	wordpools/wasnorm_wordpool_less_exclusions.txt	LTP278	ltpFR	7	5	0	WALL	1582	n/a	1	n/a	0	0	0	1	0.412841796875	0.57763671875	upper	../fonts/amplitud.ttf
1266031	WORD	wordpools/wasnorm_wordpool_less_exclusions.txt	LTP278	ltpFR	7	5	0	ROAD	1196	n/a	0	n/a	0	0	0	1	0.412841796875	0.57763671875	upper	../fonts/amplitud.ttf
1269913	WORD	wordpools/wasnorm_wordpool_less_exclusions.txt	LTP278	ltpFR	7	5	0	BOOK	149	n/a	0	n/a	0	0	0	1	0.412841796875	0.57763671875	upper	../fonts/amplitud.ttf
1273878	WORD	wordpools/wasnorm_wordpool_less_exclusions.txt	LTP278	ltpFR	7	5	0	SCREW	1254	n/a	0	n/a	0	0	0	1	0.412841796875	0.57763671875	upper	../fonts/amplitud.ttf
1278094	WORD	wordpools/wasnorm_wordpool_less_exclusions.txt	LTP278	ltpFR	7	5	0	MANAGER	863	n/a	1	n/a	0	0	0	1	0.412841796875	0.57763671875	upper	../fonts/amplitud.ttf
1281975	WORD	wordpools/wasnorm_wordpool_less_exclusions.txt	LTP278	ltpFR	7	5	0	KEEPER	769	n/a	1	n/a	0	0	0	1	0.412841796875	0.57763671875	upper	../fonts/amplitud.ttf
1286174	WORD	wordpools/wasnorm_wordpool_less_exclusions.txt	LTP278	ltpFR	7	5	0	CHISEL	305	n/a	0	n/a	0	0	0	1	0.412841796875	0.57763671875	upper	../fonts/amplitud.ttf
1290204	WORD	wordpools/wasnorm_wordpool_less_exclusions.txt	LTP278	ltpFR	7	5	0	CASHEW	253	n/a	0	n/a	0	0	0	1	0.412841796875	0.57763671875	upper	../fonts/amplitud.ttf
1293218	START	n/a	LTP278	ltpFR	7	n/a	n/a	n/a	n/a	n/a	n/a	n/a	n/a	n/a	n/a	n/a	n/a	n/a	n/a	n/a
1294271	PROB	n/a	LTP278	ltpFR	7	n/a	n/a	n/a	n/a	n/a	n/a	17	4	6	7	n/a	n/a	n/a	n/a	n/a
1297098	PROB	n/a	LTP278	ltpFR	7	n/a	n/a	n/a	n/a	n/a	n/a	11	5	1	5	n/a	n/a	n/a	n/a	n/a
1298368	PROB	n/a	LTP278	ltpFR	7	n/a	n/a	n/a	n/a	n/a	n/a	12	6	3	3	n/a	n/a	n/a	n/a	n/a
1301193	STOP	n/a	LTP278	ltpFR	7	n/a	n/a	n/a	n/a	n/a	n/a	n/a	n/a	n/a	n/a	n/a	n/a	n/a	n/a	n/a
1303039	REC_START	n/a	LTP278	ltpFR	7	5	n/a	n/a	n/a	n/a	n/a	n/a	0	0	0	n/a	n/a	n/a	n/a	n/a
1303942	REC_WORD	wordpools/wasnorm_wordpool_less_exclusions.txt	LTP278	ltpFR	7	5	0	CASHEW	253	n/a	0	n/a	0	0	0	n/a	n/a	n/a	n/a	n/a
1305139	REC_WORD	wordpools/wasnorm_wordpool_less_exclusions.txt	LTP278	ltpFR	7	5	0	SUIT	1402	n/a	1	n/a	0	0	0	n/a	n/a	n/a	n/a	n/a
1306084	REC_WORD	wordpools/wasnorm_wordpool_less_exclusions.txt	LTP278	ltpFR	7	5	0	SLEEVE	1324	n/a	0	n/a	0	0	0	n/a	n/a	n/a	n/a	n/a
1307154	REC_WORD	wordpools/wasnorm_wordpool_less_exclusions.txt	LTP278	ltpFR	7	5	0	ASSISTANT	48	n/a	1	n/a	0	0	0	n/a	n/a	n/a	n/a	n/a
1308286	REC_WORD	wordpools/wasnorm_wordpool_less_exclusions.txt	LTP278	ltpFR	7	5	0	BOOK	149	n/a	0	n/a	0	0	0	n/a	n/a	n/a	n/a	n/a
1309211	REC_WORD	wordpools/wasnorm_wordpool_less_exclusions.txt	LTP278	ltpFR	7	5	0	ROAD	1196	n/a	0	n/a	0	0	0	n/a	n/a	n/a	n/a	n/a
1310676	REC_WORD	wordpools/wasnorm_wordpool_less_exclusions.txt	LTP278	ltpFR	7	5	0	BOAT	144	n/a	1	n/a	0	0	0	n/a	n/a	n/a	n/a	n/a
1311488	REC_WORD	wordpools/wasnorm_wordpool_less_exclusions.txt	LTP278	ltpFR	7	5	0	SHIP	1286	n/a	0	n/a	0	0	0	n/a	n/a	n/a	n/a	n/a
1381266	WORD	wordpools/wasnorm_wordpool_less_exclusions.txt	LTP278	ltpFR	7	6	0	SHOELACE	1289	n/a	0	n/a	0	0	0	1	0.412841796875	0.57763671875	upper	../fonts/amplitud.ttf
1385298	WORD	wordpools/wasnorm_wordpool_less_exclusions.txt	LTP278	ltpFR	7	6	0	HAIL	676	n/a	0	n/a	0	0	0	1	0.412841796875	0.57763671875	upper	../fonts/amplitud.ttf
1389380	WORD	wordpools/wasnorm_wordpool_less_exclusions.txt	LTP278	ltpFR	7	6	0	ENCYCLOPEDIA	533	n/a	1	n/a	0	0	0	1	0.412841796875	0.57763671875	upper	../fonts/amplitud.ttf
1393442	WORD	wordpools/wasnorm_wordpool_less_exclusions.txt	LTP278	ltpFR	7	6	0	SWATTER	1418	n/a	0	n/a	0	0	0	1	0.412841796875	0.57763671875	upper	../fonts/amplitud.ttf
1397626	WORD	wordpools/wasnorm_wordpool_less_exclusions.txt	LTP278	ltpFR	7	6	0	BOLT	146	n/a	0	n/a	0	0	0	1	0.412841796875	0.57763671875	upper	../fonts/amplitud.ttf
1401524	WORD	wordpools/wasnorm_wordpool_less_exclusions.txt	LTP278	ltpFR	7	6	0	POSSUM	1112	n/a	1	n/a	0	0	0	1	0.412841796875	0.57763671875	upper	../fonts/amplitud.ttf
1405556	WORD	wordpools/wasnorm_wordpool_less_exclusions.txt	LTP278	ltpFR	7	6	0	BUFFALO	186	n/a	1	n/a	0	0	0	1	0.412841796875	0.57763671875	upper	../fonts/amplitud.ttf
1409538	WORD	wordpools/wasnorm_wordpool_less_exclusions.txt	LTP278	ltpFR	7	6	0	SHELF	1280	n/a	1	n/a	0	0	0	1	0.412841796875	0.57763671875	upper	../fonts/amplitud.ttf
1413419	WORD	wordpools/wasnorm_wordpool_less_exclusions.txt	LTP278	ltpFR	7	6	0	PUBLICATION	1136	n/a	1	n/a	0	0	0	1	0.412841796875	0.57763671875	upper	../fonts/amplitud.ttf
1417468	WORD	wordpools/wasnorm_wordpool_less_exclusions.txt	LTP278	ltpFR	7	6	0	CHOCOLATE	306	n/a	0	n/a	0	0	0	1	0.412841796875	0.57763671875	upper	../fonts/amplitud.ttf
1421414	WORD	wordpools/wasnorm_wordpool_less_exclusions.txt	LTP278	ltpFR	7	6	0	COBBLER	335	n/a	1	n/a	0	0	0	1	0.412841796875	0.57763671875	upper	../fonts/amplitud.ttf
1425365	WORD	wordpools/wasnorm_wordpool_less_exclusions.txt	LTP278	ltpFR	7	6	0	TIE	1466	n/a	0	n/a	0	0	0	1	0.412841796875	0.57763671875	upper	../fonts/amplitud.ttf
1429196	WORD	wordpools/wasnorm_wordpool_less_exclusions.txt	LTP278	ltpFR	7	6	0	HELICOPTER	701	n/a	1	n/a	0	0	0	1	0.412841796875	0.57763671875	upper	../fonts/amplitud.ttf
1433178	WORD	wordpools/wasnorm_wordpool_less_exclusions.txt	LTP278	ltpFR	7	6	0	UMPIRE	1535	n/a	1	n/a	0	0	0	1	0.412841796875	0.57763671875	upper	../fonts/amplitud.ttf
1437260	WORD	wordpools/wasnorm_wordpool_less_exclusions.txt	LTP278	ltpFR	7	6	0	QUARTER	1148	n/a	0	n/a	0	0	0	1	0.412841796875	0.57763671875	upper	../fonts/amplitud.ttf
1441242	WORD	wordpools/wasnorm_wordpool_less_exclusions.txt	LTP278	ltpFR	7	6	0	STAR	1373	n/a	0	n/a	0	0	0	1	0.412841796875	0.57763671875	upper	../fonts/amplitud.ttf
1444253	START	n/a	LTP278	ltpFR	7	n/a	n/a	n/a	n/a	n/a	n/a	n/a	n/a	n/a	n/a	n/a	n/a	n/a	n/a	n/a
1445341	PROB	n/a	LTP278	ltpFR	7	n/a	n/a	n/a	n/a	n/a	n/a	19	4	7	8	n/a	n/a	n/a	n/a	n/a
1447934	PROB	n/a	LTP278	ltpFR	7	n/a	n/a	n/a	n/a	n/a	n/a	13	4	6	3	n/a	n/a	n/a	n/a	n/a
1450107	PROB	n/a	LTP278	ltpFR	7	n/a	n/a	n/a	n/a	n/a	n/a	15	4	4	3	n/a	n/a	n/a	n/a	n/a
1451999	PROB	n/a	LTP278	ltpFR	7	n/a	n/a	n/a	n/a	n/a	n/a	12	1	8	3	n/a	n/a	n/a	n/a	n/a
1455311	PROB	n/a	LTP278	ltpFR	7	n/a	n/a	n/a	n/a	n/a	n/a	15	2	8	5	n/a	n/a	n/a	n/a	n/a
1457018	PROB	n/a	LTP278	ltpFR	7	n/a	n/a	n/a	n/a	n/a	n/a	11	3	3	5	n/a	n/a	n/a	n/a	n/a
1459160	STOP	n/a	LTP278	ltpFR	7	n/a	n/a	n/a	n/a	n/a	n/a	n/a	n/a	n/a	n/a	n/a	n/a	n/a	n/a	n/a
1462004	REC_START	n/a	LTP278	ltpFR	7	6	n/a	n/a	n/a	n/a	n/a	n/a	0	0	0	n/a	n/a	n/a	n/a	n/a
1463905	REC_WORD	wordpools/wasnorm_wordpool_less_exclusions.txt	LTP278	ltpFR	7	6	0	STAR	1373	n/a	0	n/a	0	0	0	n/a	n/a	n/a	n/a	n/a
1466397	REC_WORD	wordpools/wasnorm_wordpool_less_exclusions.txt	LTP278	ltpFR	7	6	0	POSSUM	1112	n/a	1	n/a	0	0	0	n/a	n/a	n/a	n/a	n/a
1467428	REC_WORD	wordpools/wasnorm_wordpool_less_exclusions.txt	LTP278	ltpFR	7	6	0	BUFFALO	186	n/a	1	n/a	0	0	0	n/a	n/a	n/a	n/a	n/a
1471535	REC_WORD	wordpools/wasnorm_wordpool_less_exclusions.txt	LTP278	ltpFR	7	6	0	ENCYCLOPEDIA	533	n/a	1	n/a	0	0	0	n/a	n/a	n/a	n/a	n/a
1472535	REC_WORD_VV	wordpools/wasnorm_wordpool_less_exclusions.txt	LTP278	ltpFR	7	6	n/a	<>	-1	n/a	n/a	n/a	0	0	0	n/a	n/a	n/a	n/a	n/a
1477572	REC_WORD	wordpools/wasnorm_wordpool_less_exclusions.txt	LTP278	ltpFR	7	6	0	BOLT	146	n/a	0	n/a	0	0	0	n/a	n/a	n/a	n/a	n/a
1489113	REC_WORD	wordpools/wasnorm_wordpool_less_exclusions.txt	LTP278	ltpFR	7	6	0	HAIL	676	n/a	0	n/a	0	0	0	n/a	n/a	n/a	n/a	n/a
1489850	REC_WORD	wordpools/wasnorm_wordpool_less_exclusions.txt	LTP278	ltpFR	7	6	0	HELICOPTER	701	n/a	1	n/a	0	0	0	n/a	n/a	n/a	n/a	n/a
1537652	REST_REWET	n/a	LTP278	ltpFR	7	6	n/a	n/a	n/a	n/a	n/a	n/a	0	0	0	n/a	n/a	n/a	n/a	n/a
1961937	WORD	wordpools/wasnorm_wordpool_less_exclusions.txt	LTP278	ltpFR	7	7	1	LETTUCE	814	n/a	1	n/a	0	0	0	0	0.5869140625	0.422607421875	lower	../fonts/zerothre.ttf
1965986	WORD	wordpools/wasnorm_wordpool_less_exclusions.txt	LTP278	ltpFR	7	7	1	PUZZLE	1146	n/a	0	n/a	0	0	0	0	0.5869140625	0.422607421875	lower	../fonts/zerothre.ttf
1970035	WORD	wordpools/wasnorm_wordpool_less_exclusions.txt	LTP278	ltpFR	7	7	1	MAMMAL	861	n/a	1	n/a	0	0	0	0	0.5869140625	0.422607421875	lower	../fonts/zerothre.ttf
1973983	WORD	wordpools/wasnorm_wordpool_less_exclusions.txt	LTP278	ltpFR	7	7	1	PERSON	1052	n/a	1	n/a	0	0	0	0	0.5869140625	0.422607421875	lower	../fonts/zerothre.ttf
1977881	WORD	wordpools/wasnorm_wordpool_less_exclusions.txt	LTP278	ltpFR	7	7	1	GRASSHOPPER	656	n/a	1	n/a	0	0	0	0	0.5869140625	0.422607421875	lower	../fonts/zerothre.ttf
1981896	WORD	wordpools/wasnorm_wordpool_less_exclusions.txt	LTP278	ltpFR	7	7	1	TRAY	1498	n/a	0	n/a	0	0	0	0	0.5869140625	0.422607421875	lower	../fonts/zerothre.ttf
1985878	WORD	wordpools/wasnorm_wordpool_less_exclusions.txt	LTP278	ltpFR	7	7	1	BENCH	121	n/a	1	n/a	0	0	0	0	0.5869140625	0.422607421875	lower	../fonts/zerothre.ttf
1989742	WORD	wordpools/wasnorm_wordpool_less_exclusions.txt	LTP278	ltpFR	7	7	1	GRASS	655	n/a	1	n/a	0	0	0	0	0.5869140625	0.422607421875	lower	../fonts/zerothre.ttf
1993706	WORD	wordpools/wasnorm_wordpool_less_exclusions.txt	LTP278	ltpFR	7	7	1	PADDLE	1000	n/a	0	n/a	0	0	0	0	0.5869140625	0.422607421875	lower	../fonts/zerothre.ttf
1997669	WORD	wordpools/wasnorm_wordpool_less_exclusions.txt	LTP278	ltpFR	7	7	1	PAIL	1002	n/a	1	n/a	0	0	0	0	0.5869140625	0.422607421875	lower	../fonts/zerothre.ttf
2001651	WORD	wordpools/wasnorm_wordpool_less_exclusions.txt	LTP278	ltpFR	7	7	1	BUCKET	184	n/a	0	n/a	0	0	0	0	0.5869140625	0.422607421875	lower	../fonts/zerothre.ttf
2005701	WORD	wordpools/wasnorm_wordpool_less_exclusions.txt	LTP278	ltpFR	7	7	1	DRIVEWAY	500	n/a	0	n/a	0	0	0	0	0.5869140625	0.422607421875	lower	../fonts/zerothre.ttf
2009883	WORD	wordpools/wasnorm_wordpool_less_exclusions.txt	LTP278	ltpFR	7	7	1	RUST	1219	n/a	0	n/a	0	0	0	0	0.5869140625	0.422607421875	lower	../fonts/zerothre.ttf
2014034	WORD	wordpools/wasnorm_wordpool_less_exclusions.txt	LTP278	ltpFR	7	7	1	SAILOR	1223	n/a	1	n/a	0	0	0	0	0.5869140625	0.422607421875	lower	../fonts/zerothre.ttf
2017863	WORD	wordpools/wasnorm_wordpool_less_exclusions.txt	LTP278	ltpFR	7	7	1	DOLPHIN	483	n/a	0	n/a	0	0	0	0	0.5869140625	0.422607421875	lower	../fonts/zerothre.ttf
2021763	WORD	wordpools/wasnorm_wordpool_less_exclusions.txt	LTP278	ltpFR	7	7	1	HAND	683	n/a	1	n/a	0	0	0	0	0.5869140625	0.422607421875	lower	../fonts/zerothre.ttf
2027719	REC_START	n/a	LTP278	ltpFR	7	7	n/a	n/a	n/a	n/a	n/a	n/a	0	0	0	n/a	n/a	n/a	n/a	n/a
2028831	REC_WORD	wordpools/wasnorm_wordpool_less_exclusions.txt	LTP278	ltpFR	7	7	1	HAND	683	n/a	1	n/a	0	0	0	n/a	n/a	n/a	n/a	n/a
2030000	REC_WORD	wordpools/wasnorm_wordpool_less_exclusions.txt	LTP278	ltpFR	7	7	1	DOLPHIN	483	n/a	0	n/a	0	0	0	n/a	n/a	n/a	n/a	n/a
2031117	REC_WORD	wordpools/wasnorm_wordpool_less_exclusions.txt	LTP278	ltpFR	7	7	1	PUZZLE	1146	n/a	0	n/a	0	0	0	n/a	n/a	n/a	n/a	n/a
2033630	REC_WORD	wordpools/wasnorm_wordpool_less_exclusions.txt	LTP278	ltpFR	7	7	1	LETTUCE	814	n/a	1	n/a	0	0	0	n/a	n/a	n/a	n/a	n/a
2035756	REC_WORD	wordpools/wasnorm_wordpool_less_exclusions.txt	LTP278	ltpFR	7	7	1	MAMMAL	861	n/a	1	n/a	0	0	0	n/a	n/a	n/a	n/a	n/a
2036977	REC_WORD	wordpools/wasnorm_wordpool_less_exclusions.txt	LTP278	ltpFR	7	7	1	PERSON	1052	n/a	1	n/a	0	0	0	n/a	n/a	n/a	n/a	n/a
2038293	REC_WORD	wordpools/wasnorm_wordpool_less_exclusions.txt	LTP278	ltpFR	7	7	1	SAILOR	1223	n/a	1	n/a	0	0	0	n/a	n/a	n/a	n/a	n/a
2039756	REC_WORD	wordpools/wasnorm_wordpool_less_exclusions.txt	LTP278	ltpFR	7	7	1	RUST	1219	n/a	0	n/a	0	0	0	n/a	n/a	n/a	n/a	n/a
2124283	START	n/a	LTP278	ltpFR	7	n/a	n/a	n/a	n/a	n/a	n/a	n/a	n/a	n/a	n/a	n/a	n/a	n/a	n/a	n/a
2125788	PROB	n/a	LTP278	ltpFR	7	n/a	n/a	n/a	n/a	n/a	n/a	19	8	9	2	n/a	n/a	n/a	n/a	n/a
2129466	PROB	n/a	LTP278	ltpFR	7	n/a	n/a	n/a	n/a	n/a	n/a	10	1	3	6	n/a	n/a	n/a	n/a	n/a
2131259	PROB	n/a	LTP278	ltpFR	7	n/a	n/a	n/a	n/a	n/a	n/a	10	4	2	4	n/a	n/a	n/a	n/a	n/a
2133082	PROB	n/a	LTP278	ltpFR	7	n/a	n/a	n/a	n/a	n/a	n/a	19	9	4	6	n/a	n/a	n/a	n/a	n/a
2136044	PROB	n/a	LTP278	ltpFR	7	n/a	n/a	n/a	n/a	n/a	n/a	5	2	2	1	n/a	n/a	n/a	n/a	n/a
2140283	STOP	n/a	LTP278	ltpFR	7	n/a	n/a	n/a	n/a	n/a	n/a	n/a	n/a	n/a	n/a	n/a	n/a	n/a	n/a	n/a
2141463	WORD	wordpools/wasnorm_wordpool_less_exclusions.txt	LTP278	ltpFR	7	8	1	RIB	1188	n/a	0	n/a	0	0	0	0	0.5869140625	0.422607421875	lower	../fonts/zerothre.ttf
2144475	START	n/a	LTP278	ltpFR	7	n/a	n/a	n/a	n/a	n/a	n/a	n/a	n/a	n/a	n/a	n/a	n/a	n/a	n/a	n/a
2145362	PROB	n/a	LTP278	ltpFR	7	n/a	n/a	n/a	n/a	n/a	n/a	12	5	6	1	n/a	n/a	n/a	n/a	n/a
2149677	PROB	n/a	LTP278	ltpFR	7	n/a	n/a	n/a	n/a	n/a	n/a	14	1	5	8	n/a	n/a	n/a	n/a	n/a
2152171	PROB	n/a	LTP278	ltpFR	7	n/a	n/a	n/a	n/a	n/a	n/a	18	6	9	3	n/a	n/a	n/a	n/a	n/a
2154764	PROB	n/a	LTP278	ltpFR	7	n/a	n/a	n/a	n/a	n/a	n/a	12	1	9	2	n/a	n/a	n/a	n/a	n/a
2157357	PROB	n/a	LTP278	ltpFR	7	n/a	n/a	n/a	n/a	n/a	n/a	9	1	3	5	n/a	n/a	n/a	n/a	n/a
2160424	STOP	n/a	LTP278	ltpFR	7	n/a	n/a	n/a	n/a	n/a	n/a	n/a	n/a	n/a	n/a	n/a	n/a	n/a	n/a	n/a
2161689	WORD	wordpools/wasnorm_wordpool_less_exclusions.txt	LTP278	ltpFR	7	8	1	PEACH	1031	n/a	1	n/a	0	0	0	0	0.5869140625	0.422607421875	lower	../fonts/zerothre.ttf
2164701	START	n/a	LTP278	ltpFR	7	n/a	n/a	n/a	n/a	n/a	n/a	n/a	n/a	n/a	n/a	n/a	n/a	n/a	n/a	n/a
2165739	PROB	n/a	LTP278	ltpFR	7	n/a	n/a	n/a	n/a	n/a	n/a	15	6	8	1	n/a	n/a	n/a	n/a	n/a
2169018	PROB	n/a	LTP278	ltpFR	7	n/a	n/a	n/a	n/a	n/a	n/a	12	5	4	3	n/a	n/a	n/a	n/a	n/a
2171193	PROB	n/a	LTP278	ltpFR	7	n/a	n/a	n/a	n/a	n/a	n/a	23	9	6	8	n/a	n/a	n/a	n/a	n/a
2177149	PROB	n/a	LTP278	ltpFR	7	n/a	n/a	n/a	n/a	n/a	n/a	13	1	4	8	n/a	n/a	n/a	n/a	n/a
2179696	STOP	n/a	LTP278	ltpFR	7	n/a	n/a	n/a	n/a	n/a	n/a	n/a	n/a	n/a	n/a	n/a	n/a	n/a	n/a	n/a
2181564	WORD	wordpools/wasnorm_wordpool_less_exclusions.txt	LTP278	ltpFR	7	8	1	TANGERINE	1431	n/a	1	n/a	0	0	0	0	0.5869140625	0.422607421875	lower	../fonts/zerothre.ttf
2184576	START	n/a	LTP278	ltpFR	7	n/a	n/a	n/a	n/a	n/a	n/a	n/a	n/a	n/a	n/a	n/a	n/a	n/a	n/a	n/a
2185462	PROB	n/a	LTP278	ltpFR	7	n/a	n/a	n/a	n/a	n/a	n/a	7	4	2	1	n/a	n/a	n/a	n/a	n/a
2188438	PROB	n/a	LTP278	ltpFR	7	n/a	n/a	n/a	n/a	n/a	n/a	16	8	5	3	n/a	n/a	n/a	n/a	n/a
2191634	PROB	n/a	LTP278	ltpFR	7	n/a	n/a	n/a	n/a	n/a	n/a	18	7	8	3	n/a	n/a	n/a	n/a	n/a
2193761	PROB	n/a	LTP278	ltpFR	7	n/a	n/a	n/a	n/a	n/a	n/a	20	9	6	5	n/a	n/a	n/a	n/a	n/a
2197325	PROB	n/a	LTP278	ltpFR	7	n/a	n/a	n/a	n/a	n/a	n/a	21	9	7	5	n/a	n/a	n/a	n/a	n/a
2199680	STOP	n/a	LTP278	ltpFR	7	n/a	n/a	n/a	n/a	n/a	n/a	n/a	n/a	n/a	n/a	n/a	n/a	n/a	n/a	n/a
2201606	WORD	wordpools/wasnorm_wordpool_less_exclusions.txt	LTP278	ltpFR	7	8	1	DETERGENT	455	n/a	0	n/a	0	0	0	0	0.5869140625	0.422607421875	lower	../fonts/zerothre.ttf
2204619	START	n/a	LTP278	ltpFR	7	n/a	n/a	n/a	n/a	n/a	n/a	n/a	n/a	n/a	n/a	n/a	n/a	n/a	n/a	n/a
2205555	PROB	n/a	LTP278	ltpFR	7	n/a	n/a	n/a	n/a	n/a	n/a	21	9	9	3	n/a	n/a	n/a	n/a	n/a
2208566	PROB	n/a	LTP278	ltpFR	7	n/a	n/a	n/a	n/a	n/a	n/a	8	3	1	4	n/a	n/a	n/a	n/a	n/a
2213768	PROB	n/a	LTP278	ltpFR	7	n/a	n/a	n/a	n/a	n/a	n/a	9	3	2	4	n/a	n/a	n/a	n/a	n/a
2216279	PROB	n/a	LTP278	ltpFR	7	n/a	n/a	n/a	n/a	n/a	n/a	21	7	9	5	n/a	n/a	n/a	n/a	n/a
2220619	STOP	n/a	LTP278	ltpFR	7	n/a	n/a	n/a	n/a	n/a	n/a	n/a	n/a	n/a	n/a	n/a	n/a	n/a	n/a	n/a
2221615	WORD	wordpools/wasnorm_wordpool_less_exclusions.txt	LTP278	ltpFR	7	8	1	DANCER	437	n/a	1	n/a	0	0	0	0	0.5869140625	0.422607421875	lower	../fonts/zerothre.ttf
2224627	START	n/a	LTP278	ltpFR	7	n/a	n/a	n/a	n/a	n/a	n/a	n/a	n/a	n/a	n/a	n/a	n/a	n/a	n/a	n/a
2225597	PROB	n/a	LTP278	ltpFR	7	n/a	n/a	n/a	n/a	n/a	n/a	19	6	5	8	n/a	n/a	n/a	n/a	n/a
2227471	PROB	n/a	LTP278	ltpFR	7	n/a	n/a	n/a	n/a	n/a	n/a	23	8	7	8	n/a	n/a	n/a	n/a	n/a
2231635	PROB	n/a	LTP278	ltpFR	7	n/a	n/a	n/a	n/a	n/a	n/a	15	6	6	3	n/a	n/a	n/a	n/a	n/a
2235251	PROB	n/a	LTP278	ltpFR	7	n/a	n/a	n/a	n/a	n/a	n/a	15	3	6	6	n/a	n/a	n/a	n/a	n/a
2237173	PROB	n/a	LTP278	ltpFR	7	n/a	n/a	n/a	n/a	n/a	n/a	15	4	8	3	n/a	n/a	n/a	n/a	n/a
2240408	STOP	n/a	LTP278	ltpFR	7	n/a	n/a	n/a	n/a	n/a	n/a	n/a	n/a	n/a	n/a	n/a	n/a	n/a	n/a	n/a
2241607	WORD	wordpools/wasnorm_wordpool_less_exclusions.txt	LTP278	ltpFR	7	8	1	DOUGHNUT	490	n/a	0	n/a	0	0	0	0	0.5869140625	0.422607421875	lower	../fonts/zerothre.ttf
2244619	START	n/a	LTP278	ltpFR	7	n/a	n/a	n/a	n/a	n/a	n/a	n/a	n/a	n/a	n/a	n/a	n/a	n/a	n/a	n/a
2245689	PROB	n/a	LTP278	ltpFR	7	n/a	n/a	n/a	n/a	n/a	n/a	9	3	2	4	n/a	n/a	n/a	n/a	n/a
2248819	PROB	n/a	LTP278	ltpFR	7	n/a	n/a	n/a	n/a	n/a	n/a	6	1	3	2	n/a	n/a	n/a	n/a	n/a
2251679	PROB	n/a	LTP278	ltpFR	7	n/a	n/a	n/a	n/a	n/a	n/a	19	3	8	8	n/a	n/a	n/a	n/a	n/a
2254621	PROB	n/a	LTP278	ltpFR	7	n/a	n/a	n/a	n/a	n/a	n/a	11	5	5	1	n/a	n/a	n/a	n/a	n/a
2255845	PROB	n/a	LTP278	ltpFR	7	n/a	n/a	n/a	n/a	n/a	n/a	18	5	8	5	n/a	n/a	n/a	n/a	n/a
2260619	STOP	n/a	LTP278	ltpFR	7	n/a	n/a	n/a	n/a	n/a	n/a	n/a	n/a	n/a	n/a	n/a	n/a	n/a	n/a	n/a
2261716	WORD	wordpools/wasnorm_wordpool_less_exclusions.txt	LTP278	ltpFR	7	8	1	CHIP	303	n/a	0	n/a	0	0	0	0	0.5869140625	0.422607421875	lower	../fonts/zerothre.ttf
2264729	START	n/a	LTP278	ltpFR	7	n/a	n/a	n/a	n/a	n/a	n/a	n/a	n/a	n/a	n/a	n/a	n/a	n/a	n/a	n/a
2265681	PROB	n/a	LTP278	ltpFR	7	n/a	n/a	n/a	n/a	n/a	n/a	18	5	8	5	n/a	n/a	n/a	n/a	n/a
2267170	PROB	n/a	LTP278	ltpFR	7	n/a	n/a	n/a	n/a	n/a	n/a	6	1	1	4	n/a	n/a	n/a	n/a	n/a
2269346	PROB	n/a	LTP278	ltpFR	7	n/a	n/a	n/a	n/a	n/a	n/a	23	8	6	9	n/a	n/a	n/a	n/a	n/a
2272539	PROB	n/a	LTP278	ltpFR	7	n/a	n/a	n/a	n/a	n/a	n/a	23	7	7	9	n/a	n/a	n/a	n/a	n/a
2276739	PROB	n/a	LTP278	ltpFR	7	n/a	n/a	n/a	n/a	n/a	n/a	16	1	7	8	n/a	n/a	n/a	n/a	n/a
2278429	PROB	n/a	LTP278	ltpFR	7	n/a	n/a	n/a	n/a	n/a	n/a	15	8	3	4	n/a	n/a	n/a	n/a	n/a
2280408	STOP	n/a	LTP278	ltpFR	7	n/a	n/a	n/a	n/a	n/a	n/a	n/a	n/a	n/a	n/a	n/a	n/a	n/a	n/a	n/a
2281726	WORD	wordpools/wasnorm_wordpool_less_exclusions.txt	LTP278	ltpFR	7	8	1	COUGAR	387	n/a	1	n/a	0	0	0	0	0.5869140625	0.422607421875	lower	../fonts/zerothre.ttf
2284738	START	n/a	LTP278	ltpFR	7	n/a	n/a	n/a	n/a	n/a	n/a	n/a	n/a	n/a	n/a	n/a	n/a	n/a	n/a	n/a
2285722	PROB	n/a	LTP278	ltpFR	7	n/a	n/a	n/a	n/a	n/a	n/a	18	8	7	3	n/a	n/a	n/a	n/a	n/a
2287916	PROB	n/a	LTP278	ltpFR	7	n/a	n/a	n/a	n/a	n/a	n/a	21	5	9	7	n/a	n/a	n/a	n/a	n/a
2291981	PROB	n/a	LTP278	ltpFR	7	n/a	n/a	n/a	n/a	n/a	n/a	22	8	9	5	n/a	n/a	n/a	n/a	n/a
2296529	PROB	n/a	LTP278	ltpFR	7	n/a	n/a	n/a	n/a	n/a	n/a	14	2	6	6	n/a	n/a	n/a	n/a	n/a
2298587	PROB	n/a	LTP278	ltpFR	7	n/a	n/a	n/a	n/a	n/a	n/a	12	2	9	1	n/a	n/a	n/a	n/a	n/a
2300432	STOP	n/a	LTP278	ltpFR	7	n/a	n/a	n/a	n/a	n/a	n/a	n/a	n/a	n/a	n/a	n/a	n/a	n/a	n/a	n/a
2301700	WORD	wordpools/wasnorm_wordpool_less_exclusions.txt	LTP278	ltpFR	7	8	1	VENUS	1557	n/a	0	n/a	0	0	0	0	0.5869140625	0.422607421875	lower	../fonts/zerothre.ttf
2304712	START	n/a	LTP278	ltpFR	7	n/a	n/a	n/a	n/a	n/a	n/a	n/a	n/a	n/a	n/a	n/a	n/a	n/a	n/a	n/a
2305699	PROB	n/a	LTP278	ltpFR	7	n/a	n/a	n/a	n/a	n/a	n/a	15	9	2	4	n/a	n/a	n/a	n/a	n/a
2308109	PROB	n/a	LTP278	ltpFR	7	n/a	n/a	n/a	n/a	n/a	n/a	16	7	4	5	n/a	n/a	n/a	n/a	n/a
2310367	PROB	n/a	LTP278	ltpFR	7	n/a	n/a	n/a	n/a	n/a	n/a	23	9	8	6	n/a	n/a	n/a	n/a	n/a
2314013	PROB	n/a	LTP278	ltpFR	7	n/a	n/a	n/a	n/a	n/a	n/a	10	4	2	4	n/a	n/a	n/a	n/a	n/a
2316540	PROB	n/a	LTP278	ltpFR	7	n/a	n/a	n/a	n/a	n/a	n/a	17	9	4	4	n/a	n/a	n/a	n/a	n/a
2319487	STOP	n/a	LTP278	ltpFR	7	n/a	n/a	n/a	n/a	n/a	n/a	n/a	n/a	n/a	n/a	n/a	n/a	n/a	n/a	n/a
2321744	WORD	wordpools/wasnorm_wordpool_less_exclusions.txt	LTP278	ltpFR	7	8	1	SANDWICH	1232	n/a	0	n/a	0	0	0	0	0.5869140625	0.422607421875	lower	../fonts/zerothre.ttf
2324756	START	n/a	LTP278	ltpFR	7	n/a	n/a	n/a	n/a	n/a	n/a	n/a	n/a	n/a	n/a	n/a	n/a	n/a	n/a	n/a
2325656	PROB	n/a	LTP278	ltpFR	7	n/a	n/a	n/a	n/a	n/a	n/a	17	7	5	5	n/a	n/a	n/a	n/a	n/a
2327596	PROB	n/a	LTP278	ltpFR	7	n/a	n/a	n/a	n/a	n/a	n/a	11	2	1	8	n/a	n/a	n/a	n/a	n/a
2329739	PROB	n/a	LTP278	ltpFR	7	n/a	n/a	n/a	n/a	n/a	n/a	9	1	7	1	n/a	n/a	n/a	n/a	n/a
2331479	PROB	n/a	LTP278	ltpFR	7	n/a	n/a	n/a	n/a	n/a	n/a	21	9	9	3	n/a	n/a	n/a	n/a	n/a
2334356	PROB	n/a	LTP278	ltpFR	7	n/a	n/a	n/a	n/a	n/a	n/a	10	1	6	3	n/a	n/a	n/a	n/a	n/a
2337217	PROB	n/a	LTP278	ltpFR	7	n/a	n/a	n/a	n/a	n/a	n/a	7	1	4	2	n/a	n/a	n/a	n/a	n/a
2339640	STOP	n/a	LTP278	ltpFR	7	n/a	n/a	n/a	n/a	n/a	n/a	n/a	n/a	n/a	n/a	n/a	n/a	n/a	n/a	n/a
2341769	WORD	wordpools/wasnorm_wordpool_less_exclusions.txt	LTP278	ltpFR	7	8	1	ENEMY	534	n/a	1	n/a	0	0	0	0	0.5869140625	0.422607421875	lower	../fonts/zerothre.ttf
2344781	START	n/a	LTP278	ltpFR	7	n/a	n/a	n/a	n/a	n/a	n/a	n/a	n/a	n/a	n/a	n/a	n/a	n/a	n/a	n/a
2345666	PROB	n/a	LTP278	ltpFR	7	n/a	n/a	n/a	n/a	n/a	n/a	9	2	5	2	n/a	n/a	n/a	n/a	n/a
2347374	PROB	n/a	LTP278	ltpFR	7	n/a	n/a	n/a	n/a	n/a	n/a	15	1	8	6	n/a	n/a	n/a	n/a	n/a
2349464	PROB	n/a	LTP278	ltpFR	7	n/a	n/a	n/a	n/a	n/a	n/a	13	1	9	3	n/a	n/a	n/a	n/a	n/a
2351205	PROB	n/a	LTP278	ltpFR	7	n/a	n/a	n/a	n/a	n/a	n/a	16	7	4	5	n/a	n/a	n/a	n/a	n/a
2354198	PROB	n/a	LTP278	ltpFR	7	n/a	n/a	n/a	n/a	n/a	n/a	4	1	1	2	n/a	n/a	n/a	n/a	n/a
2355619	PROB	n/a	LTP278	ltpFR	7	n/a	n/a	n/a	n/a	n/a	n/a	23	8	7	8	n/a	n/a	n/a	n/a	n/a
2360781	STOP	n/a	LTP278	ltpFR	7	n/a	n/a	n/a	n/a	n/a	n/a	n/a	n/a	n/a	n/a	n/a	n/a	n/a	n/a	n/a
2361641	WORD	wordpools/wasnorm_wordpool_less_exclusions.txt	LTP278	ltpFR	7	8	1	BASKETBALL	96	n/a	0	n/a	0	0	0	0	0.5869140625	0.422607421875	lower	../fonts/zerothre.ttf
2364655	START	n/a	LTP278	ltpFR	7	n/a	n/a	n/a	n/a	n/a	n/a	n/a	n/a	n/a	n/a	n/a	n/a	n/a	n/a	n/a
2365810	PROB	n/a	LTP278	ltpFR	7	n/a	n/a	n/a	n/a	n/a	n/a	18	7	5	6	n/a	n/a	n/a	n/a	n/a
2368336	PROB	n/a	LTP278	ltpFR	7	n/a	n/a	n/a	n/a	n/a	n/a	18	9	5	4	n/a	n/a	n/a	n/a	n/a
2370625	PROB	n/a	LTP278	ltpFR	7	n/a	n/a	n/a	n/a	n/a	n/a	19	5	8	6	n/a	n/a	n/a	n/a	n/a
2372752	PROB	n/a	LTP278	ltpFR	7	n/a	n/a	n/a	n/a	n/a	n/a	22	7	8	7	n/a	n/a	n/a	n/a	n/a
2375627	PROB	n/a	LTP278	ltpFR	7	n/a	n/a	n/a	n/a	n/a	n/a	13	3	5	5	n/a	n/a	n/a	n/a	n/a
2377755	PROB	n/a	LTP278	ltpFR	7	n/a	n/a	n/a	n/a	n/a	n/a	12	1	8	3	n/a	n/a	n/a	n/a	n/a
2379655	STOP	n/a	LTP278	ltpFR	7	n/a	n/a	n/a	n/a	n/a	n/a	n/a	n/a	n/a	n/a	n/a	n/a	n/a	n/a	n/a
2381685	WORD	wordpools/wasnorm_wordpool_less_exclusions.txt	LTP278	ltpFR	7	8	1	CHEERLEADER	288	n/a	1	n/a	0	0	0	0	0.5869140625	0.422607421875	lower	../fonts/zerothre.ttf
2384697	START	n/a	LTP278	ltpFR	7	n/a	n/a	n/a	n/a	n/a	n/a	n/a	n/a	n/a	n/a	n/a	n/a	n/a	n/a	n/a
2385550	PROB	n/a	LTP278	ltpFR	7	n/a	n/a	n/a	n/a	n/a	n/a	10	4	2	4	n/a	n/a	n/a	n/a	n/a
2388161	PROB	n/a	LTP278	ltpFR	7	n/a	n/a	n/a	n/a	n/a	n/a	24	8	7	9	n/a	n/a	n/a	n/a	n/a
2392207	PROB	n/a	LTP278	ltpFR	7	n/a	n/a	n/a	n/a	n/a	n/a	14	3	9	2	n/a	n/a	n/a	n/a	n/a
2394400	PROB	n/a	LTP278	ltpFR	7	n/a	n/a	n/a	n/a	n/a	n/a	22	5	8	9	n/a	n/a	n/a	n/a	n/a
2397077	PROB	n/a	LTP278	ltpFR	7	n/a	n/a	n/a	n/a	n/a	n/a	16	6	7	3	n/a	n/a	n/a	n/a	n/a
2399777	STOP	n/a	LTP278	ltpFR	7	n/a	n/a	n/a	n/a	n/a	n/a	n/a	n/a	n/a	n/a	n/a	n/a	n/a	n/a	n/a
2401829	WORD	wordpools/wasnorm_wordpool_less_exclusions.txt	LTP278	ltpFR	7	8	1	COMPANION	357	n/a	1	n/a	0	0	0	0	0.5869140625	0.422607421875	lower	../fonts/zerothre.ttf
2404841	START	n/a	LTP278	ltpFR	7	n/a	n/a	n/a	n/a	n/a	n/a	n/a	n/a	n/a	n/a	n/a	n/a	n/a	n/a	n/a
2405877	PROB	n/a	LTP278	ltpFR	7	n/a	n/a	n/a	n/a	n/a	n/a	10	1	8	1	n/a	n/a	n/a	n/a	n/a
2409156	PROB	n/a	LTP278	ltpFR	7	n/a	n/a	n/a	n/a	n/a	n/a	23	9	7	7	n/a	n/a	n/a	n/a	n/a
2411531	PROB	n/a	LTP278	ltpFR	7	n/a	n/a	n/a	n/a	n/a	n/a	14	3	9	2	n/a	n/a	n/a	n/a	n/a
2415763	PROB	n/a	LTP278	ltpFR	7	n/a	n/a	n/a	n/a	n/a	n/a	12	4	5	3	n/a	n/a	n/a	n/a	n/a
2417988	PROB	n/a	LTP278	ltpFR	7	n/a	n/a	n/a	n/a	n/a	n/a	20	3	8	9	n/a	n/a	n/a	n/a	n/a
2420208	STOP	n/a	LTP278	ltpFR	7	n/a	n/a	n/a	n/a	n/a	n/a	n/a	n/a	n/a	n/a	n/a	n/a	n/a	n/a	n/a
2421988	WORD	wordpools/wasnorm_wordpool_less_exclusions.txt	LTP278	ltpFR	7	8	1	WINDSHIELD	1612	n/a	0	n/a	0	0	0	0	0.5869140625	0.422607421875	lower	../fonts/zerothre.ttf
2425000	START	n/a	LTP278	ltpFR	7	n/a	n/a	n/a	n/a	n/a	n/a	n/a	n/a	n/a	n/a	n/a	n/a	n/a	n/a	n/a
2426120	PROB	n/a	LTP278	ltpFR	7	n/a	n/a	n/a	n/a	n/a	n/a	11	3	5	3	n/a	n/a	n/a	n/a	n/a
2428312	PROB	n/a	LTP278	ltpFR	7	n/a	n/a	n/a	n/a	n/a	n/a	17	3	6	8	n/a	n/a	n/a	n/a	n/a
2430888	PROB	n/a	LTP278	ltpFR	7	n/a	n/a	n/a	n/a	n/a	n/a	8	3	4	1	n/a	n/a	n/a	n/a	n/a
2433312	PROB	n/a	LTP278	ltpFR	7	n/a	n/a	n/a	n/a	n/a	n/a	15	1	9	5	n/a	n/a	n/a	n/a	n/a
2435153	PROB	n/a	LTP278	ltpFR	7	n/a	n/a	n/a	n/a	n/a	n/a	12	4	4	4	n/a	n/a	n/a	n/a	n/a
2436624	PROB	n/a	LTP278	ltpFR	7	n/a	n/a	n/a	n/a	n/a	n/a	17	3	5	9	n/a	n/a	n/a	n/a	n/a
2440536	STOP	n/a	LTP278	ltpFR	7	n/a	n/a	n/a	n/a	n/a	n/a	n/a	n/a	n/a	n/a	n/a	n/a	n/a	n/a	n/a
2441997	WORD	wordpools/wasnorm_wordpool_less_exclusions.txt	LTP278	ltpFR	7	8	1	DUNE	506	n/a	0	n/a	0	0	0	0	0.5869140625	0.422607421875	lower	../fonts/zerothre.ttf
2445008	START	n/a	LTP278	ltpFR	7	n/a	n/a	n/a	n/a	n/a	n/a	n/a	n/a	n/a	n/a	n/a	n/a	n/a	n/a	n/a
2446012	PROB	n/a	LTP278	ltpFR	7	n/a	n/a	n/a	n/a	n/a	n/a	17	8	5	4	n/a	n/a	n/a	n/a	n/a
2450161	PROB	n/a	LTP278	ltpFR	7	n/a	n/a	n/a	n/a	n/a	n/a	18	8	3	7	n/a	n/a	n/a	n/a	n/a
2452185	PROB	n/a	LTP278	ltpFR	7	n/a	n/a	n/a	n/a	n/a	n/a	14	6	3	5	n/a	n/a	n/a	n/a	n/a
2455799	PROB	n/a	LTP278	ltpFR	7	n/a	n/a	n/a	n/a	n/a	n/a	18	9	1	8	n/a	n/a	n/a	n/a	n/a
2461008	STOP	n/a	LTP278	ltpFR	7	n/a	n/a	n/a	n/a	n/a	n/a	n/a	n/a	n/a	n/a	n/a	n/a	n/a	n/a	n/a
2462927	REC_START	n/a	LTP278	ltpFR	7	8	n/a	n/a	n/a	n/a	n/a	n/a	0	0	0	n/a	n/a	n/a	n/a	n/a
2463747	REC_WORD	wordpools/wasnorm_wordpool_less_exclusions.txt	LTP278	ltpFR	7	8	1	VENUS	1557	n/a	0	n/a	0	0	0	n/a	n/a	n/a	n/a	n/a
2465240	REC_WORD	wordpools/wasnorm_wordpool_less_exclusions.txt	LTP278	ltpFR	7	8	1	COMPANION	357	n/a	1	n/a	0	0	0	n/a	n/a	n/a	n/a	n/a
2473894	REC_WORD	wordpools/wasnorm_wordpool_less_exclusions.txt	LTP278	ltpFR	7	8	1	CHEERLEADER	288	n/a	1	n/a	0	0	0	n/a	n/a	n/a	n/a	n/a
2482936	REC_WORD	wordpools/wasnorm_wordpool_less_exclusions.txt	LTP278	ltpFR	7	8	1	TANGERINE	1431	n/a	1	n/a	0	0	0	n/a	n/a	n/a	n/a	n/a
2485595	REC_WORD	wordpools/wasnorm_wordpool_less_exclusions.txt	LTP278	ltpFR	7	8	1	PEACH	1031	n/a	1	n/a	0	0	0	n/a	n/a	n/a	n/a	n/a
2540084	START	n/a	LTP278	ltpFR	7	n/a	n/a	n/a	n/a	n/a	n/a	n/a	n/a	n/a	n/a	n/a	n/a	n/a	n/a	n/a
2541588	PROB	n/a	LTP278	ltpFR	7	n/a	n/a	n/a	n/a	n/a	n/a	8	4	3	1	n/a	n/a	n/a	n/a	n/a
2544082	PROB	n/a	LTP278	ltpFR	7	n/a	n/a	n/a	n/a	n/a	n/a	18	8	6	4	n/a	n/a	n/a	n/a	n/a
2546703	STOP	n/a	LTP278	ltpFR	7	n/a	n/a	n/a	n/a	n/a	n/a	n/a	n/a	n/a	n/a	n/a	n/a	n/a	n/a	n/a
2549033	WORD	wordpools/wasnorm_wordpool_less_exclusions.txt	LTP278	ltpFR	7	9	0	ALLEY	15	n/a	0	n/a	0	0	0	1	0.412841796875	0.57763671875	upper	../fonts/amplitud.ttf
2552046	START	n/a	LTP278	ltpFR	7	n/a	n/a	n/a	n/a	n/a	n/a	n/a	n/a	n/a	n/a	n/a	n/a	n/a	n/a	n/a
2553015	PROB	n/a	LTP278	ltpFR	7	n/a	n/a	n/a	n/a	n/a	n/a	14	3	7	4	n/a	n/a	n/a	n/a	n/a
2555088	PROB	n/a	LTP278	ltpFR	7	n/a	n/a	n/a	n/a	n/a	n/a	9	2	4	3	n/a	n/a	n/a	n/a	n/a
2557581	PROB	n/a	LTP278	ltpFR	7	n/a	n/a	n/a	n/a	n/a	n/a	14	5	7	2	n/a	n/a	n/a	n/a	n/a
2559273	STOP	n/a	LTP278	ltpFR	7	n/a	n/a	n/a	n/a	n/a	n/a	n/a	n/a	n/a	n/a	n/a	n/a	n/a	n/a	n/a
2560962	WORD	wordpools/wasnorm_wordpool_less_exclusions.txt	LTP278	ltpFR	7	9	0	FREEWAY	603	n/a	1	n/a	0	0	0	1	0.412841796875	0.57763671875	upper	../fonts/amplitud.ttf
2563974	START	n/a	LTP278	ltpFR	7	n/a	n/a	n/a	n/a	n/a	n/a	n/a	n/a	n/a	n/a	n/a	n/a	n/a	n/a	n/a
2565159	PROB	n/a	LTP278	ltpFR	7	n/a	n/a	n/a	n/a	n/a	n/a	21	5	7	9	n/a	n/a	n/a	n/a	n/a
2567536	PROB	n/a	LTP278	ltpFR	7	n/a	n/a	n/a	n/a	n/a	n/a	9	1	6	2	n/a	n/a	n/a	n/a	n/a
2569508	PROB	n/a	LTP278	ltpFR	7	n/a	n/a	n/a	n/a	n/a	n/a	20	3	9	8	n/a	n/a	n/a	n/a	n/a
2571896	STOP	n/a	LTP278	ltpFR	7	n/a	n/a	n/a	n/a	n/a	n/a	n/a	n/a	n/a	n/a	n/a	n/a	n/a	n/a	n/a
2573124	WORD	wordpools/wasnorm_wordpool_less_exclusions.txt	LTP278	ltpFR	7	9	0	POWDER	1117	n/a	0	n/a	0	0	0	1	0.412841796875	0.57763671875	upper	../fonts/amplitud.ttf
2576136	START	n/a	LTP278	ltpFR	7	n/a	n/a	n/a	n/a	n/a	n/a	n/a	n/a	n/a	n/a	n/a	n/a	n/a	n/a	n/a
2577190	PROB	n/a	LTP278	ltpFR	7	n/a	n/a	n/a	n/a	n/a	n/a	19	8	4	7	n/a	n/a	n/a	n/a	n/a
2579615	PROB	n/a	LTP278	ltpFR	7	n/a	n/a	n/a	n/a	n/a	n/a	16	7	7	2	n/a	n/a	n/a	n/a	n/a
2582058	PROB	n/a	LTP278	ltpFR	7	n/a	n/a	n/a	n/a	n/a	n/a	16	7	5	4	n/a	n/a	n/a	n/a	n/a
2583745	STOP	n/a	LTP278	ltpFR	7	n/a	n/a	n/a	n/a	n/a	n/a	n/a	n/a	n/a	n/a	n/a	n/a	n/a	n/a	n/a
2585270	WORD	wordpools/wasnorm_wordpool_less_exclusions.txt	LTP278	ltpFR	7	9	0	WHISKERS	1605	n/a	0	n/a	0	0	0	1	0.412841796875	0.57763671875	upper	../fonts/amplitud.ttf
2588282	START	n/a	LTP278	ltpFR	7	n/a	n/a	n/a	n/a	n/a	n/a	n/a	n/a	n/a	n/a	n/a	n/a	n/a	n/a	n/a
2589335	PROB	n/a	LTP278	ltpFR	7	n/a	n/a	n/a	n/a	n/a	n/a	15	9	2	4	n/a	n/a	n/a	n/a	n/a
2591576	PROB	n/a	LTP278	ltpFR	7	n/a	n/a	n/a	n/a	n/a	n/a	12	1	9	2	n/a	n/a	n/a	n/a	n/a
2593100	PROB	n/a	LTP278	ltpFR	7	n/a	n/a	n/a	n/a	n/a	n/a	9	3	3	3	n/a	n/a	n/a	n/a	n/a
2596282	STOP	n/a	LTP278	ltpFR	7	n/a	n/a	n/a	n/a	n/a	n/a	n/a	n/a	n/a	n/a	n/a	n/a	n/a	n/a	n/a
2597182	WORD	wordpools/wasnorm_wordpool_less_exclusions.txt	LTP278	ltpFR	7	9	0	FORT	595	n/a	1	n/a	0	0	0	1	0.412841796875	0.57763671875	upper	../fonts/amplitud.ttf
2600194	START	n/a	LTP278	ltpFR	7	n/a	n/a	n/a	n/a	n/a	n/a	n/a	n/a	n/a	n/a	n/a	n/a	n/a	n/a	n/a
2601013	PROB	n/a	LTP278	ltpFR	7	n/a	n/a	n/a	n/a	n/a	n/a	14	4	6	4	n/a	n/a	n/a	n/a	n/a
2603204	PROB	n/a	LTP278	ltpFR	7	n/a	n/a	n/a	n/a	n/a	n/a	10	3	2	5	n/a	n/a	n/a	n/a	n/a
2605212	PROB	n/a	LTP278	ltpFR	7	n/a	n/a	n/a	n/a	n/a	n/a	15	7	3	5	n/a	n/a	n/a	n/a	n/a
2607785	STOP	n/a	LTP278	ltpFR	7	n/a	n/a	n/a	n/a	n/a	n/a	n/a	n/a	n/a	n/a	n/a	n/a	n/a	n/a	n/a
2609143	WORD	wordpools/wasnorm_wordpool_less_exclusions.txt	LTP278	ltpFR	7	9	0	TENT	1449	n/a	1	n/a	0	0	0	1	0.412841796875	0.57763671875	upper	../fonts/amplitud.ttf
2612155	START	n/a	LTP278	ltpFR	7	n/a	n/a	n/a	n/a	n/a	n/a	n/a	n/a	n/a	n/a	n/a	n/a	n/a	n/a	n/a
2613058	PROB	n/a	LTP278	ltpFR	7	n/a	n/a	n/a	n/a	n/a	n/a	23	8	7	8	n/a	n/a	n/a	n/a	n/a
2620155	STOP	n/a	LTP278	ltpFR	7	n/a	n/a	n/a	n/a	n/a	n/a	n/a	n/a	n/a	n/a	n/a	n/a	n/a	n/a	n/a
2621087	WORD	wordpools/wasnorm_wordpool_less_exclusions.txt	LTP278	ltpFR	7	9	0	CANARY	227	n/a	0	n/a	0	0	0	1	0.412841796875	0.57763671875	upper	../fonts/amplitud.ttf
2624100	START	n/a	LTP278	ltpFR	7	n/a	n/a	n/a	n/a	n/a	n/a	n/a	n/a	n/a	n/a	n/a	n/a	n/a	n/a	n/a
2624986	PROB	n/a	LTP278	ltpFR	7	n/a	n/a	n/a	n/a	n/a	n/a	17	6	6	5	n/a	n/a	n/a	n/a	n/a
2627762	PROB	n/a	LTP278	ltpFR	7	n/a	n/a	n/a	n/a	n/a	n/a	15	8	2	5	n/a	n/a	n/a	n/a	n/a
2632100	STOP	n/a	LTP278	ltpFR	7	n/a	n/a	n/a	n/a	n/a	n/a	n/a	n/a	n/a	n/a	n/a	n/a	n/a	n/a	n/a
2633017	WORD	wordpools/wasnorm_wordpool_less_exclusions.txt	LTP278	ltpFR	7	9	0	APARTMENT	30	n/a	1	n/a	0	0	0	1	0.412841796875	0.57763671875	upper	../fonts/amplitud.ttf
2636029	START	n/a	LTP278	ltpFR	7	n/a	n/a	n/a	n/a	n/a	n/a	n/a	n/a	n/a	n/a	n/a	n/a	n/a	n/a	n/a
2637116	PROB	n/a	LTP278	ltpFR	7	n/a	n/a	n/a	n/a	n/a	n/a	19	4	7	8	n/a	n/a	n/a	n/a	n/a
2638855	PROB	n/a	LTP278	ltpFR	7	n/a	n/a	n/a	n/a	n/a	n/a	9	3	5	1	n/a	n/a	n/a	n/a	n/a
2641398	PROB	n/a	LTP278	ltpFR	7	n/a	n/a	n/a	n/a	n/a	n/a	9	2	3	4	n/a	n/a	n/a	n/a	n/a
2643672	STOP	n/a	LTP278	ltpFR	7	n/a	n/a	n/a	n/a	n/a	n/a	n/a	n/a	n/a	n/a	n/a	n/a	n/a	n/a	n/a
2645062	WORD	wordpools/wasnorm_wordpool_less_exclusions.txt	LTP278	ltpFR	7	9	0	TEA	1439	n/a	0	n/a	0	0	0	1	0.412841796875	0.57763671875	upper	../fonts/amplitud.ttf
2648074	START	n/a	LTP278	ltpFR	7	n/a	n/a	n/a	n/a	n/a	n/a	n/a	n/a	n/a	n/a	n/a	n/a	n/a	n/a	n/a
2648960	PROB	n/a	LTP278	ltpFR	7	n/a	n/a	n/a	n/a	n/a	n/a	14	2	5	7	n/a	n/a	n/a	n/a	n/a
2656074	STOP	n/a	LTP278	ltpFR	7	n/a	n/a	n/a	n/a	n/a	n/a	n/a	n/a	n/a	n/a	n/a	n/a	n/a	n/a	n/a
2656907	WORD	wordpools/wasnorm_wordpool_less_exclusions.txt	LTP278	ltpFR	7	9	0	DRAGON	492	n/a	1	n/a	0	0	0	1	0.412841796875	0.57763671875	upper	../fonts/amplitud.ttf
2659919	START	n/a	LTP278	ltpFR	7	n/a	n/a	n/a	n/a	n/a	n/a	n/a	n/a	n/a	n/a	n/a	n/a	n/a	n/a	n/a
2660822	PROB	n/a	LTP278	ltpFR	7	n/a	n/a	n/a	n/a	n/a	n/a	15	6	5	4	n/a	n/a	n/a	n/a	n/a
2663113	PROB	n/a	LTP278	ltpFR	7	n/a	n/a	n/a	n/a	n/a	n/a	20	9	2	9	n/a	n/a	n/a	n/a	n/a
2666712	STOP	n/a	LTP278	ltpFR	7	n/a	n/a	n/a	n/a	n/a	n/a	n/a	n/a	n/a	n/a	n/a	n/a	n/a	n/a	n/a
2669086	WORD	wordpools/wasnorm_wordpool_less_exclusions.txt	LTP278	ltpFR	7	9	0	GAZELLE	628	n/a	1	n/a	0	0	0	1	0.412841796875	0.57763671875	upper	../fonts/amplitud.ttf
2672098	START	n/a	LTP278	ltpFR	7	n/a	n/a	n/a	n/a	n/a	n/a	n/a	n/a	n/a	n/a	n/a	n/a	n/a	n/a	n/a
2673168	PROB	n/a	LTP278	ltpFR	7	n/a	n/a	n/a	n/a	n/a	n/a	20	4	9	7	n/a	n/a	n/a	n/a	n/a
2675209	PROB	n/a	LTP278	ltpFR	7	n/a	n/a	n/a	n/a	n/a	n/a	14	5	3	6	n/a	n/a	n/a	n/a	n/a
2678102	PROB	n/a	LTP278	ltpFR	7	n/a	n/a	n/a	n/a	n/a	n/a	16	4	7	5	n/a	n/a	n/a	n/a	n/a
2679953	STOP	n/a	LTP278	ltpFR	7	n/a	n/a	n/a	n/a	n/a	n/a	n/a	n/a	n/a	n/a	n/a	n/a	n/a	n/a	n/a
2681014	WORD	wordpools/wasnorm_wordpool_less_exclusions.txt	LTP278	ltpFR	7	9	0	TEAPOT	1442	n/a	1	n/a	0	0	0	1	0.412841796875	0.57763671875	upper	../fonts/amplitud.ttf
2684026	START	n/a	LTP278	ltpFR	7	n/a	n/a	n/a	n/a	n/a	n/a	n/a	n/a	n/a	n/a	n/a	n/a	n/a	n/a	n/a
2684879	PROB	n/a	LTP278	ltpFR	7	n/a	n/a	n/a	n/a	n/a	n/a	13	2	8	3	n/a	n/a	n/a	n/a	n/a
2686851	PROB	n/a	LTP278	ltpFR	7	n/a	n/a	n/a	n/a	n/a	n/a	10	4	5	1	n/a	n/a	n/a	n/a	n/a
2688575	PROB	n/a	LTP278	ltpFR	7	n/a	n/a	n/a	n/a	n/a	n/a	18	5	9	4	n/a	n/a	n/a	n/a	n/a
2690849	STOP	n/a	LTP278	ltpFR	7	n/a	n/a	n/a	n/a	n/a	n/a	n/a	n/a	n/a	n/a	n/a	n/a	n/a	n/a	n/a
2693160	WORD	wordpools/wasnorm_wordpool_less_exclusions.txt	LTP278	ltpFR	7	9	0	MOAT	903	n/a	1	n/a	0	0	0	1	0.412841796875	0.57763671875	upper	../fonts/amplitud.ttf
2696172	START	n/a	LTP278	ltpFR	7	n/a	n/a	n/a	n/a	n/a	n/a	n/a	n/a	n/a	n/a	n/a	n/a	n/a	n/a	n/a
2697292	PROB	n/a	LTP278	ltpFR	7	n/a	n/a	n/a	n/a	n/a	n/a	11	1	9	1	n/a	n/a	n/a	n/a	n/a
2699148	PROB	n/a	LTP278	ltpFR	7	n/a	n/a	n/a	n/a	n/a	n/a	11	2	8	1	n/a	n/a	n/a	n/a	n/a
2700570	PROB	n/a	LTP278	ltpFR	7	n/a	n/a	n/a	n/a	n/a	n/a	19	5	8	6	n/a	n/a	n/a	n/a	n/a
2702688	STOP	n/a	LTP278	ltpFR	7	n/a	n/a	n/a	n/a	n/a	n/a	n/a	n/a	n/a	n/a	n/a	n/a	n/a	n/a	n/a
2705239	WORD	wordpools/wasnorm_wordpool_less_exclusions.txt	LTP278	ltpFR	7	9	0	NOVEL	960	n/a	0	n/a	0	0	0	1	0.412841796875	0.57763671875	upper	../fonts/amplitud.ttf
2708251	START	n/a	LTP278	ltpFR	7	n/a	n/a	n/a	n/a	n/a	n/a	n/a	n/a	n/a	n/a	n/a	n/a	n/a	n/a	n/a
2709120	PROB	n/a	LTP278	ltpFR	7	n/a	n/a	n/a	n/a	n/a	n/a	9	1	3	5	n/a	n/a	n/a	n/a	n/a
2711078	PROB	n/a	LTP278	ltpFR	7	n/a	n/a	n/a	n/a	n/a	n/a	17	7	1	9	n/a	n/a	n/a	n/a	n/a
2716251	STOP	n/a	LTP278	ltpFR	7	n/a	n/a	n/a	n/a	n/a	n/a	n/a	n/a	n/a	n/a	n/a	n/a	n/a	n/a	n/a
2717434	WORD	wordpools/wasnorm_wordpool_less_exclusions.txt	LTP278	ltpFR	7	9	0	LIBRARY	816	n/a	1	n/a	0	0	0	1	0.412841796875	0.57763671875	upper	../fonts/amplitud.ttf
2720446	START	n/a	LTP278	ltpFR	7	n/a	n/a	n/a	n/a	n/a	n/a	n/a	n/a	n/a	n/a	n/a	n/a	n/a	n/a	n/a
2721533	PROB	n/a	LTP278	ltpFR	7	n/a	n/a	n/a	n/a	n/a	n/a	18	3	9	4	n/a	n/a	n/a	n/a	n/a
2724110	PROB	n/a	LTP278	ltpFR	7	n/a	n/a	n/a	n/a	n/a	n/a	12	7	3	2	n/a	n/a	n/a	n/a	n/a
2726216	PROB	n/a	LTP278	ltpFR	7	n/a	n/a	n/a	n/a	n/a	n/a	13	3	4	6	n/a	n/a	n/a	n/a	n/a
2728296	STOP	n/a	LTP278	ltpFR	7	n/a	n/a	n/a	n/a	n/a	n/a	n/a	n/a	n/a	n/a	n/a	n/a	n/a	n/a	n/a
2729647	WORD	wordpools/wasnorm_wordpool_less_exclusions.txt	LTP278	ltpFR	7	9	0	KING	777	n/a	1	n/a	0	0	0	1	0.412841796875	0.57763671875	upper	../fonts/amplitud.ttf
2732658	START	n/a	LTP278	ltpFR	7	n/a	n/a	n/a	n/a	n/a	n/a	n/a	n/a	n/a	n/a	n/a	n/a	n/a	n/a	n/a
2733528	PROB	n/a	LTP278	ltpFR	7	n/a	n/a	n/a	n/a	n/a	n/a	17	2	9	5	n/a	n/a	n/a	n/a	n/a
2740657	STOP	n/a	LTP278	ltpFR	7	n/a	n/a	n/a	n/a	n/a	n/a	n/a	n/a	n/a	n/a	n/a	n/a	n/a	n/a	n/a
2742613	REC_START	n/a	LTP278	ltpFR	7	9	n/a	n/a	n/a	n/a	n/a	n/a	0	0	0	n/a	n/a	n/a	n/a	n/a
2743696	REC_WORD	wordpools/wasnorm_wordpool_less_exclusions.txt	LTP278	ltpFR	7	9	0	MOAT	903	n/a	1	n/a	0	0	0	n/a	n/a	n/a	n/a	n/a
2745669	REC_WORD_VV	wordpools/wasnorm_wordpool_less_exclusions.txt	LTP278	ltpFR	7	9	n/a	<>	-1	n/a	n/a	n/a	0	0	0	n/a	n/a	n/a	n/a	n/a
2746242	REC_WORD	wordpools/wasnorm_wordpool_less_exclusions.txt	LTP278	ltpFR	7	9	0	KING	777	n/a	1	n/a	0	0	0	n/a	n/a	n/a	n/a	n/a
2749874	REC_WORD_VV	wordpools/wasnorm_wordpool_less_exclusions.txt	LTP278	ltpFR	7	9	n/a	<>	-1	n/a	n/a	n/a	0	0	0	n/a	n/a	n/a	n/a	n/a
2750869	REC_WORD	wordpools/wasnorm_wordpool_less_exclusions.txt	LTP278	ltpFR	7	9	0	FREEWAY	603	n/a	1	n/a	0	0	0	n/a	n/a	n/a	n/a	n/a
2751886	REC_WORD	wordpools/wasnorm_wordpool_less_exclusions.txt	LTP278	ltpFR	7	9	0	ALLEY	15	n/a	0	n/a	0	0	0	n/a	n/a	n/a	n/a	n/a
2752668	REC_WORD	wordpools/wasnorm_wordpool_less_exclusions.txt	LTP278	ltpFR	7	9	0	WHISKERS	1605	n/a	0	n/a	0	0	0	n/a	n/a	n/a	n/a	n/a
2763031	REC_WORD	wordpools/wasnorm_wordpool_less_exclusions.txt	LTP278	ltpFR	7	9	0	NOVEL	960	n/a	0	n/a	0	0	0	n/a	n/a	n/a	n/a	n/a
2772697	REC_WORD	wordpools/wasnorm_wordpool_less_exclusions.txt	LTP278	ltpFR	7	9	0	CANARY	227	n/a	0	n/a	0	0	0	n/a	n/a	n/a	n/a	n/a
2778662	REC_WORD	wordpools/wasnorm_wordpool_less_exclusions.txt	LTP278	ltpFR	7	9	0	APARTMENT	30	n/a	1	n/a	0	0	0	n/a	n/a	n/a	n/a	n/a
2821226	WORD	wordpools/wasnorm_wordpool_less_exclusions.txt	LTP278	ltpFR	7	10	0	SHRIMP	1297	n/a	0	n/a	0	0	0	1	0.412841796875	0.57763671875	upper	../fonts/amplitud.ttf
2825291	WORD	wordpools/wasnorm_wordpool_less_exclusions.txt	LTP278	ltpFR	7	10	0	PARSLEY	1016	n/a	0	n/a	0	0	0	1	0.412841796875	0.57763671875	upper	../fonts/amplitud.ttf
2829256	WORD	wordpools/wasnorm_wordpool_less_exclusions.txt	LTP278	ltpFR	7	10	0	APPENDAGE	32	n/a	0	n/a	0	0	0	1	0.412841796875	0.57763671875	upper	../fonts/amplitud.ttf
2833403	WORD	wordpools/wasnorm_wordpool_less_exclusions.txt	LTP278	ltpFR	7	10	0	WRIST	1626	n/a	0	n/a	0	0	0	1	0.412841796875	0.57763671875	upper	../fonts/amplitud.ttf
2837603	WORD	wordpools/wasnorm_wordpool_less_exclusions.txt	LTP278	ltpFR	7	10	0	FOX	598	n/a	1	n/a	0	0	0	1	0.412841796875	0.57763671875	upper	../fonts/amplitud.ttf
2841485	WORD	wordpools/wasnorm_wordpool_less_exclusions.txt	LTP278	ltpFR	7	10	0	ROOF	1205	n/a	1	n/a	0	0	0	1	0.412841796875	0.57763671875	upper	../fonts/amplitud.ttf
2845450	WORD	wordpools/wasnorm_wordpool_less_exclusions.txt	LTP278	ltpFR	7	10	0	FAUCET	555	n/a	0	n/a	0	0	0	1	0.412841796875	0.57763671875	upper	../fonts/amplitud.ttf
2849548	WORD	wordpools/wasnorm_wordpool_less_exclusions.txt	LTP278	ltpFR	7	10	0	RIBBON	1189	n/a	0	n/a	0	0	0	1	0.412841796875	0.57763671875	upper	../fonts/amplitud.ttf
2853430	WORD	wordpools/wasnorm_wordpool_less_exclusions.txt	LTP278	ltpFR	7	10	0	PERISCOPE	1050	n/a	0	n/a	0	0	0	1	0.412841796875	0.57763671875	upper	../fonts/amplitud.ttf
2857595	WORD	wordpools/wasnorm_wordpool_less_exclusions.txt	LTP278	ltpFR	7	10	0	WICK	1607	n/a	0	n/a	0	0	0	1	0.412841796875	0.57763671875	upper	../fonts/amplitud.ttf
2861644	WORD	wordpools/wasnorm_wordpool_less_exclusions.txt	LTP278	ltpFR	7	10	0	CEILING	265	n/a	1	n/a	0	0	0	1	0.412841796875	0.57763671875	upper	../fonts/amplitud.ttf
2865828	WORD	wordpools/wasnorm_wordpool_less_exclusions.txt	LTP278	ltpFR	7	10	0	BEGGAR	117	n/a	0	n/a	0	0	0	1	0.412841796875	0.57763671875	upper	../fonts/amplitud.ttf
2869926	WORD	wordpools/wasnorm_wordpool_less_exclusions.txt	LTP278	ltpFR	7	10	0	THICKET	1455	n/a	1	n/a	0	0	0	1	0.412841796875	0.57763671875	upper	../fonts/amplitud.ttf
2873791	WORD	wordpools/wasnorm_wordpool_less_exclusions.txt	LTP278	ltpFR	7	10	0	BATH	98	n/a	1	n/a	0	0	0	1	0.412841796875	0.57763671875	upper	../fonts/amplitud.ttf
2877906	WORD	wordpools/wasnorm_wordpool_less_exclusions.txt	LTP278	ltpFR	7	10	0	JACKET	747	n/a	1	n/a	0	0	0	1	0.412841796875	0.57763671875	upper	../fonts/amplitud.ttf
2881905	WORD	wordpools/wasnorm_wordpool_less_exclusions.txt	LTP278	ltpFR	7	10	0	CAPE	237	n/a	1	n/a	0	0	0	1	0.412841796875	0.57763671875	upper	../fonts/amplitud.ttf
2887542	REC_START	n/a	LTP278	ltpFR	7	10	n/a	n/a	n/a	n/a	n/a	n/a	0	0	0	n/a	n/a	n/a	n/a	n/a
2888014	REC_WORD	wordpools/wasnorm_wordpool_less_exclusions.txt	LTP278	ltpFR	7	10	0	CAPE	237	n/a	1	n/a	0	0	0	n/a	n/a	n/a	n/a	n/a
2889074	REC_WORD	wordpools/wasnorm_wordpool_less_exclusions.txt	LTP278	ltpFR	7	10	0	BEGGAR	117	n/a	0	n/a	0	0	0	n/a	n/a	n/a	n/a	n/a
2890504	REC_WORD	wordpools/wasnorm_wordpool_less_exclusions.txt	LTP278	ltpFR	7	10	0	THICKET	1455	n/a	1	n/a	0	0	0	n/a	n/a	n/a	n/a	n/a
2892144	REC_WORD	wordpools/wasnorm_wordpool_less_exclusions.txt	LTP278	ltpFR	7	10	0	PERISCOPE	1050	n/a	0	n/a	0	0	0	n/a	n/a	n/a	n/a	n/a
2894671	REC_WORD	wordpools/wasnorm_wordpool_less_exclusions.txt	LTP278	ltpFR	7	10	0	WICK	1607	n/a	0	n/a	0	0	0	n/a	n/a	n/a	n/a	n/a
2898239	REC_WORD	wordpools/wasnorm_wordpool_less_exclusions.txt	LTP278	ltpFR	7	10	0	APPENDAGE	32	n/a	0	n/a	0	0	0	n/a	n/a	n/a	n/a	n/a
2902437	REC_WORD	wordpools/wasnorm_wordpool_less_exclusions.txt	LTP278	ltpFR	7	10	0	FOX	598	n/a	1	n/a	0	0	0	n/a	n/a	n/a	n/a	n/a
2903299	REC_WORD	wordpools/wasnorm_wordpool_less_exclusions.txt	LTP278	ltpFR	7	10	0	ROOF	1205	n/a	1	n/a	0	0	0	n/a	n/a	n/a	n/a	n/a
2903945	REC_WORD	wordpools/wasnorm_wordpool_less_exclusions.txt	LTP278	ltpFR	7	10	0	CEILING	265	n/a	1	n/a	0	0	0	n/a	n/a	n/a	n/a	n/a
2912464	REC_WORD	wordpools/wasnorm_wordpool_less_exclusions.txt	LTP278	ltpFR	7	10	0	PARSLEY	1016	n/a	0	n/a	0	0	0	n/a	n/a	n/a	n/a	n/a
2965804	WORD	wordpools/wasnorm_wordpool_less_exclusions.txt	LTP278	ltpFR	7	11	1	CARTON	251	n/a	0	n/a	0	0	0	0	0.5869140625	0.422607421875	lower	../fonts/zerothre.ttf
2969668	WORD	wordpools/wasnorm_wordpool_less_exclusions.txt	LTP278	ltpFR	7	11	1	PAW	1029	n/a	1	n/a	0	0	0	0	0.5869140625	0.422607421875	lower	../fonts/zerothre.ttf
2973650	WORD	wordpools/wasnorm_wordpool_less_exclusions.txt	LTP278	ltpFR	7	11	1	RACCOON	1153	n/a	1	n/a	0	0	0	0	0.5869140625	0.422607421875	lower	../fonts/zerothre.ttf
2977866	WORD	wordpools/wasnorm_wordpool_less_exclusions.txt	LTP278	ltpFR	7	11	1	GALLON	618	n/a	0	n/a	0	0	0	0	0.5869140625	0.422607421875	lower	../fonts/zerothre.ttf
2981848	WORD	wordpools/wasnorm_wordpool_less_exclusions.txt	LTP278	ltpFR	7	11	1	FENCE	560	n/a	0	n/a	0	0	0	0	0.5869140625	0.422607421875	lower	../fonts/zerothre.ttf
2985710	WORD	wordpools/wasnorm_wordpool_less_exclusions.txt	LTP278	ltpFR	7	11	1	TRUMPET	1513	n/a	0	n/a	0	0	0	0	0.5869140625	0.422607421875	lower	../fonts/zerothre.ttf
2989878	WORD	wordpools/wasnorm_wordpool_less_exclusions.txt	LTP278	ltpFR	7	11	1	SKYSCRAPER	1322	n/a	0	n/a	0	0	0	0	0.5869140625	0.422607421875	lower	../fonts/zerothre.ttf
2994094	WORD	wordpools/wasnorm_wordpool_less_exclusions.txt	LTP278	ltpFR	7	11	1	BALCONY	72	n/a	0	n/a	0	0	0	0	0.5869140625	0.422607421875	lower	../fonts/zerothre.ttf
2998210	WORD	wordpools/wasnorm_wordpool_less_exclusions.txt	LTP278	ltpFR	7	11	1	GROUND	666	n/a	0	n/a	0	0	0	0	0.5869140625	0.422607421875	lower	../fonts/zerothre.ttf
3002041	WORD	wordpools/wasnorm_wordpool_less_exclusions.txt	LTP278	ltpFR	7	11	1	SIGN	1305	n/a	0	n/a	0	0	0	0	0.5869140625	0.422607421875	lower	../fonts/zerothre.ttf
3006039	WORD	wordpools/wasnorm_wordpool_less_exclusions.txt	LTP278	ltpFR	7	11	1	CAPITAL	238	n/a	0	n/a	0	0	0	0	0.5869140625	0.422607421875	lower	../fonts/zerothre.ttf
3010238	WORD	wordpools/wasnorm_wordpool_less_exclusions.txt	LTP278	ltpFR	7	11	1	OX	994	n/a	1	n/a	0	0	0	0	0.5869140625	0.422607421875	lower	../fonts/zerothre.ttf
3014254	WORD	wordpools/wasnorm_wordpool_less_exclusions.txt	LTP278	ltpFR	7	11	1	LIMB	822	n/a	1	n/a	0	0	0	0	0.5869140625	0.422607421875	lower	../fonts/zerothre.ttf
3018133	WORD	wordpools/wasnorm_wordpool_less_exclusions.txt	LTP278	ltpFR	7	11	1	SHRUB	1299	n/a	1	n/a	0	0	0	0	0.5869140625	0.422607421875	lower	../fonts/zerothre.ttf
3021999	WORD	wordpools/wasnorm_wordpool_less_exclusions.txt	LTP278	ltpFR	7	11	1	CANDIDATE	228	n/a	1	n/a	0	0	0	0	0.5869140625	0.422607421875	lower	../fonts/zerothre.ttf
3025914	WORD	wordpools/wasnorm_wordpool_less_exclusions.txt	LTP278	ltpFR	7	11	1	PRESIDENT	1121	n/a	1	n/a	0	0	0	0	0.5869140625	0.422607421875	lower	../fonts/zerothre.ttf
3028926	START	n/a	LTP278	ltpFR	7	n/a	n/a	n/a	n/a	n/a	n/a	n/a	n/a	n/a	n/a	n/a	n/a	n/a	n/a	n/a
3029795	PROB	n/a	LTP278	ltpFR	7	n/a	n/a	n/a	n/a	n/a	n/a	9	3	5	4	n/a	n/a	n/a	n/a	n/a
3033075	PROB	n/a	LTP278	ltpFR	7	n/a	n/a	n/a	n/a	n/a	n/a	8	2	2	4	n/a	n/a	n/a	n/a	n/a
3035913	STOP	n/a	LTP278	ltpFR	7	n/a	n/a	n/a	n/a	n/a	n/a	n/a	n/a	n/a	n/a	n/a	n/a	n/a	n/a	n/a
3038864	REC_START	n/a	LTP278	ltpFR	7	11	n/a	n/a	n/a	n/a	n/a	n/a	0	0	0	n/a	n/a	n/a	n/a	n/a
3039852	REC_WORD	wordpools/wasnorm_wordpool_less_exclusions.txt	LTP278	ltpFR	7	11	1	OX	994	n/a	1	n/a	0	0	0	n/a	n/a	n/a	n/a	n/a
3040603	REC_WORD	wordpools/wasnorm_wordpool_less_exclusions.txt	LTP278	ltpFR	7	11	1	PRESIDENT	1121	n/a	1	n/a	0	0	0	n/a	n/a	n/a	n/a	n/a
3041376	REC_WORD	wordpools/wasnorm_wordpool_less_exclusions.txt	LTP278	ltpFR	7	11	1	CAPITAL	238	n/a	0	n/a	0	0	0	n/a	n/a	n/a	n/a	n/a
3050508	REC_WORD	wordpools/wasnorm_wordpool_less_exclusions.txt	LTP278	ltpFR	7	11	1	CARTON	251	n/a	0	n/a	0	0	0	n/a	n/a	n/a	n/a	n/a
3051326	REC_WORD	wordpools/wasnorm_wordpool_less_exclusions.txt	LTP278	ltpFR	7	11	1	RACCOON	1153	n/a	1	n/a	0	0	0	n/a	n/a	n/a	n/a	n/a
3052404	REC_WORD	wordpools/wasnorm_wordpool_less_exclusions.txt	LTP278	ltpFR	7	11	1	PAW	1029	n/a	1	n/a	0	0	0	n/a	n/a	n/a	n/a	n/a
3067174	REC_WORD	wordpools/wasnorm_wordpool_less_exclusions.txt	LTP278	ltpFR	7	11	1	GALLON	618	n/a	0	n/a	0	0	0	n/a	n/a	n/a	n/a	n/a
3096548	REC_WORD	wordpools/wasnorm_wordpool_less_exclusions.txt	LTP278	ltpFR	7	11	1	OX	994	n/a	1	n/a	0	0	0	n/a	n/a	n/a	n/a	n/a
3116438	START	n/a	LTP278	ltpFR	7	n/a	n/a	n/a	n/a	n/a	n/a	n/a	n/a	n/a	n/a	n/a	n/a	n/a	n/a	n/a
3117944	PROB	n/a	LTP278	ltpFR	7	n/a	n/a	n/a	n/a	n/a	n/a	20	3	8	9	n/a	n/a	n/a	n/a	n/a
3122863	PROB	n/a	LTP278	ltpFR	7	n/a	n/a	n/a	n/a	n/a	n/a	5	1	3	1	n/a	n/a	n/a	n/a	n/a
3124199	STOP	n/a	LTP278	ltpFR	7	n/a	n/a	n/a	n/a	n/a	n/a	n/a	n/a	n/a	n/a	n/a	n/a	n/a	n/a	n/a
3125438	WORD	wordpools/wasnorm_wordpool_less_exclusions.txt	LTP278	ltpFR	7	12	1	ANTEATER	26	n/a	1	n/a	0	0	0	0	0.5869140625	0.422607421875	lower	../fonts/zerothre.ttf
3128450	START	n/a	LTP278	ltpFR	7	n/a	n/a	n/a	n/a	n/a	n/a	n/a	n/a	n/a	n/a	n/a	n/a	n/a	n/a	n/a
3129654	PROB	n/a	LTP278	ltpFR	7	n/a	n/a	n/a	n/a	n/a	n/a	6	2	2	2	n/a	n/a	n/a	n/a	n/a
3131295	PROB	n/a	LTP278	ltpFR	7	n/a	n/a	n/a	n/a	n/a	n/a	11	5	2	4	n/a	n/a	n/a	n/a	n/a
3136450	STOP	n/a	LTP278	ltpFR	7	n/a	n/a	n/a	n/a	n/a	n/a	n/a	n/a	n/a	n/a	n/a	n/a	n/a	n/a	n/a
3137617	WORD	wordpools/wasnorm_wordpool_less_exclusions.txt	LTP278	ltpFR	7	12	1	BLOSSOM	138	n/a	1	n/a	0	0	0	0	0.5869140625	0.422607421875	lower	../fonts/zerothre.ttf
3140630	START	n/a	LTP278	ltpFR	7	n/a	n/a	n/a	n/a	n/a	n/a	n/a	n/a	n/a	n/a	n/a	n/a	n/a	n/a	n/a
3141532	PROB	n/a	LTP278	ltpFR	7	n/a	n/a	n/a	n/a	n/a	n/a	11	2	7	2	n/a	n/a	n/a	n/a	n/a
3144745	PROB	n/a	LTP278	ltpFR	7	n/a	n/a	n/a	n/a	n/a	n/a	15	7	4	4	n/a	n/a	n/a	n/a	n/a
3148630	STOP	n/a	LTP278	ltpFR	7	n/a	n/a	n/a	n/a	n/a	n/a	n/a	n/a	n/a	n/a	n/a	n/a	n/a	n/a	n/a
3149629	WORD	wordpools/wasnorm_wordpool_less_exclusions.txt	LTP278	ltpFR	7	12	1	LABEL	790	n/a	0	n/a	0	0	0	0	0.5869140625	0.422607421875	lower	../fonts/zerothre.ttf
3152642	START	n/a	LTP278	ltpFR	7	n/a	n/a	n/a	n/a	n/a	n/a	n/a	n/a	n/a	n/a	n/a	n/a	n/a	n/a	n/a
3153794	PROB	n/a	LTP278	ltpFR	7	n/a	n/a	n/a	n/a	n/a	n/a	19	6	9	4	n/a	n/a	n/a	n/a	n/a
3156455	PROB	n/a	LTP278	ltpFR	7	n/a	n/a	n/a	n/a	n/a	n/a	10	6	1	3	n/a	n/a	n/a	n/a	n/a
3158613	PROB	n/a	LTP278	ltpFR	7	n/a	n/a	n/a	n/a	n/a	n/a	4	2	1	1	n/a	n/a	n/a	n/a	n/a
3160313	STOP	n/a	LTP278	ltpFR	7	n/a	n/a	n/a	n/a	n/a	n/a	n/a	n/a	n/a	n/a	n/a	n/a	n/a	n/a	n/a
3161474	WORD	wordpools/wasnorm_wordpool_less_exclusions.txt	LTP278	ltpFR	7	12	1	RAM	1165	n/a	1	n/a	0	0	0	0	0.5869140625	0.422607421875	lower	../fonts/zerothre.ttf
3164486	START	n/a	LTP278	ltpFR	7	n/a	n/a	n/a	n/a	n/a	n/a	n/a	n/a	n/a	n/a	n/a	n/a	n/a	n/a	n/a
3165323	PROB	n/a	LTP278	ltpFR	7	n/a	n/a	n/a	n/a	n/a	n/a	12	1	7	4	n/a	n/a	n/a	n/a	n/a
3168886	PROB	n/a	LTP278	ltpFR	7	n/a	n/a	n/a	n/a	n/a	n/a	19	8	4	7	n/a	n/a	n/a	n/a	n/a
3171113	STOP	n/a	LTP278	ltpFR	7	n/a	n/a	n/a	n/a	n/a	n/a	n/a	n/a	n/a	n/a	n/a	n/a	n/a	n/a	n/a
3173402	WORD	wordpools/wasnorm_wordpool_less_exclusions.txt	LTP278	ltpFR	7	12	1	SNACK	1331	n/a	0	n/a	0	0	0	0	0.5869140625	0.422607421875	lower	../fonts/zerothre.ttf
3176414	START	n/a	LTP278	ltpFR	7	n/a	n/a	n/a	n/a	n/a	n/a	n/a	n/a	n/a	n/a	n/a	n/a	n/a	n/a	n/a
3177352	PROB	n/a	LTP278	ltpFR	7	n/a	n/a	n/a	n/a	n/a	n/a	12	6	1	5	n/a	n/a	n/a	n/a	n/a
3179192	PROB	n/a	LTP278	ltpFR	7	n/a	n/a	n/a	n/a	n/a	n/a	13	2	7	4	n/a	n/a	n/a	n/a	n/a
3181583	PROB	n/a	LTP278	ltpFR	7	n/a	n/a	n/a	n/a	n/a	n/a	9	1	2	6	n/a	n/a	n/a	n/a	n/a
3183169	STOP	n/a	LTP278	ltpFR	7	n/a	n/a	n/a	n/a	n/a	n/a	n/a	n/a	n/a	n/a	n/a	n/a	n/a	n/a	n/a
3185399	WORD	wordpools/wasnorm_wordpool_less_exclusions.txt	LTP278	ltpFR	7	12	1	TEACHER	1440	n/a	1	n/a	0	0	0	0	0.5869140625	0.422607421875	lower	../fonts/zerothre.ttf
3188410	START	n/a	LTP278	ltpFR	7	n/a	n/a	n/a	n/a	n/a	n/a	n/a	n/a	n/a	n/a	n/a	n/a	n/a	n/a	n/a
3189230	PROB	n/a	LTP278	ltpFR	7	n/a	n/a	n/a	n/a	n/a	n/a	22	7	8	7	n/a	n/a	n/a	n/a	n/a
3192858	PROB	n/a	LTP278	ltpFR	7	n/a	n/a	n/a	n/a	n/a	n/a	19	7	7	5	n/a	n/a	n/a	n/a	n/a
3195769	STOP	n/a	LTP278	ltpFR	7	n/a	n/a	n/a	n/a	n/a	n/a	n/a	n/a	n/a	n/a	n/a	n/a	n/a	n/a	n/a
3197493	WORD	wordpools/wasnorm_wordpool_less_exclusions.txt	LTP278	ltpFR	7	12	1	STUDENT	1395	n/a	1	n/a	0	0	0	0	0.5869140625	0.422607421875	lower	../fonts/zerothre.ttf
3200505	START	n/a	LTP278	ltpFR	7	n/a	n/a	n/a	n/a	n/a	n/a	n/a	n/a	n/a	n/a	n/a	n/a	n/a	n/a	n/a
3201642	PROB	n/a	LTP278	ltpFR	7	n/a	n/a	n/a	n/a	n/a	n/a	18	9	7	2	n/a	n/a	n/a	n/a	n/a
3204551	PROB	n/a	LTP278	ltpFR	7	n/a	n/a	n/a	n/a	n/a	n/a	19	7	5	7	n/a	n/a	n/a	n/a	n/a
3208505	STOP	n/a	LTP278	ltpFR	7	n/a	n/a	n/a	n/a	n/a	n/a	n/a	n/a	n/a	n/a	n/a	n/a	n/a	n/a	n/a
3209339	WORD	wordpools/wasnorm_wordpool_less_exclusions.txt	LTP278	ltpFR	7	12	1	TUNA	1518	n/a	1	n/a	0	0	0	0	0.5869140625	0.422607421875	lower	../fonts/zerothre.ttf
3212351	START	n/a	LTP278	ltpFR	7	n/a	n/a	n/a	n/a	n/a	n/a	n/a	n/a	n/a	n/a	n/a	n/a	n/a	n/a	n/a
3213320	PROB	n/a	LTP278	ltpFR	7	n/a	n/a	n/a	n/a	n/a	n/a	13	3	5	5	n/a	n/a	n/a	n/a	n/a
3220350	STOP	n/a	LTP278	ltpFR	7	n/a	n/a	n/a	n/a	n/a	n/a	n/a	n/a	n/a	n/a	n/a	n/a	n/a	n/a	n/a
3221450	WORD	wordpools/wasnorm_wordpool_less_exclusions.txt	LTP278	ltpFR	7	12	1	SUPERMARKET	1409	n/a	0	n/a	0	0	0	0	0.5869140625	0.422607421875	lower	../fonts/zerothre.ttf
3224462	START	n/a	LTP278	ltpFR	7	n/a	n/a	n/a	n/a	n/a	n/a	n/a	n/a	n/a	n/a	n/a	n/a	n/a	n/a	n/a
3225316	PROB	n/a	LTP278	ltpFR	7	n/a	n/a	n/a	n/a	n/a	n/a	8	5	2	1	n/a	n/a	n/a	n/a	n/a
3227473	PROB	n/a	LTP278	ltpFR	7	n/a	n/a	n/a	n/a	n/a	n/a	17	4	6	7	n/a	n/a	n/a	n/a	n/a
3229749	PROB	n/a	LTP278	ltpFR	7	n/a	n/a	n/a	n/a	n/a	n/a	14	7	2	5	n/a	n/a	n/a	n/a	n/a
3231712	STOP	n/a	LTP278	ltpFR	7	n/a	n/a	n/a	n/a	n/a	n/a	n/a	n/a	n/a	n/a	n/a	n/a	n/a	n/a	n/a
3233496	WORD	wordpools/wasnorm_wordpool_less_exclusions.txt	LTP278	ltpFR	7	12	1	SQUIRREL	1362	n/a	1	n/a	0	0	0	0	0.5869140625	0.422607421875	lower	../fonts/zerothre.ttf
3236508	START	n/a	LTP278	ltpFR	7	n/a	n/a	n/a	n/a	n/a	n/a	n/a	n/a	n/a	n/a	n/a	n/a	n/a	n/a	n/a
3237578	PROB	n/a	LTP278	ltpFR	7	n/a	n/a	n/a	n/a	n/a	n/a	9	1	2	6	n/a	n/a	n/a	n/a	n/a
3239318	PROB	n/a	LTP278	ltpFR	7	n/a	n/a	n/a	n/a	n/a	n/a	20	3	8	9	n/a	n/a	n/a	n/a	n/a
3241778	PROB	n/a	LTP278	ltpFR	7	n/a	n/a	n/a	n/a	n/a	n/a	17	4	8	5	n/a	n/a	n/a	n/a	n/a
3244177	STOP	n/a	LTP278	ltpFR	7	n/a	n/a	n/a	n/a	n/a	n/a	n/a	n/a	n/a	n/a	n/a	n/a	n/a	n/a	n/a
3245608	WORD	wordpools/wasnorm_wordpool_less_exclusions.txt	LTP278	ltpFR	7	12	1	DAM	436	n/a	0	n/a	0	0	0	0	0.5869140625	0.422607421875	lower	../fonts/zerothre.ttf
3248620	START	n/a	LTP278	ltpFR	7	n/a	n/a	n/a	n/a	n/a	n/a	n/a	n/a	n/a	n/a	n/a	n/a	n/a	n/a	n/a
3249791	PROB	n/a	LTP278	ltpFR	7	n/a	n/a	n/a	n/a	n/a	n/a	21	5	8	8	n/a	n/a	n/a	n/a	n/a
3251849	PROB	n/a	LTP278	ltpFR	7	n/a	n/a	n/a	n/a	n/a	n/a	12	2	8	2	n/a	n/a	n/a	n/a	n/a
3253672	PROB	n/a	LTP278	ltpFR	7	n/a	n/a	n/a	n/a	n/a	n/a	13	3	8	2	n/a	n/a	n/a	n/a	n/a
3255233	STOP	n/a	LTP278	ltpFR	7	n/a	n/a	n/a	n/a	n/a	n/a	n/a	n/a	n/a	n/a	n/a	n/a	n/a	n/a	n/a
3257703	WORD	wordpools/wasnorm_wordpool_less_exclusions.txt	LTP278	ltpFR	7	12	1	JUG	762	n/a	0	n/a	0	0	0	0	0.5869140625	0.422607421875	lower	../fonts/zerothre.ttf
3260715	START	n/a	LTP278	ltpFR	7	n/a	n/a	n/a	n/a	n/a	n/a	n/a	n/a	n/a	n/a	n/a	n/a	n/a	n/a	n/a
3261535	PROB	n/a	LTP278	ltpFR	7	n/a	n/a	n/a	n/a	n/a	n/a	23	9	8	5	n/a	n/a	n/a	n/a	n/a
3264932	PROB	n/a	LTP278	ltpFR	7	n/a	n/a	n/a	n/a	n/a	n/a	19	7	6	6	n/a	n/a	n/a	n/a	n/a
3267201	STOP	n/a	LTP278	ltpFR	7	n/a	n/a	n/a	n/a	n/a	n/a	n/a	n/a	n/a	n/a	n/a	n/a	n/a	n/a	n/a
3269833	WORD	wordpools/wasnorm_wordpool_less_exclusions.txt	LTP278	ltpFR	7	12	1	SUBURB	1399	n/a	0	n/a	0	0	0	0	0.5869140625	0.422607421875	lower	../fonts/zerothre.ttf
3272846	START	n/a	LTP278	ltpFR	7	n/a	n/a	n/a	n/a	n/a	n/a	n/a	n/a	n/a	n/a	n/a	n/a	n/a	n/a	n/a
3273782	PROB	n/a	LTP278	ltpFR	7	n/a	n/a	n/a	n/a	n/a	n/a	23	9	6	8	n/a	n/a	n/a	n/a	n/a
3276289	PROB	n/a	LTP278	ltpFR	7	n/a	n/a	n/a	n/a	n/a	n/a	13	5	1	7	n/a	n/a	n/a	n/a	n/a
3278465	PROB	n/a	LTP278	ltpFR	7	n/a	n/a	n/a	n/a	n/a	n/a	12	7	3	2	n/a	n/a	n/a	n/a	n/a
3280105	STOP	n/a	LTP278	ltpFR	7	n/a	n/a	n/a	n/a	n/a	n/a	n/a	n/a	n/a	n/a	n/a	n/a	n/a	n/a	n/a
3281795	WORD	wordpools/wasnorm_wordpool_less_exclusions.txt	LTP278	ltpFR	7	12	1	OCTOPUS	971	n/a	1	n/a	0	0	0	0	0.5869140625	0.422607421875	lower	../fonts/zerothre.ttf
3284807	START	n/a	LTP278	ltpFR	7	n/a	n/a	n/a	n/a	n/a	n/a	n/a	n/a	n/a	n/a	n/a	n/a	n/a	n/a	n/a
3285777	PROB	n/a	LTP278	ltpFR	7	n/a	n/a	n/a	n/a	n/a	n/a	9	5	3	1	n/a	n/a	n/a	n/a	n/a
3287414	PROB	n/a	LTP278	ltpFR	7	n/a	n/a	n/a	n/a	n/a	n/a	16	9	2	5	n/a	n/a	n/a	n/a	n/a
3289488	PROB	n/a	LTP278	ltpFR	7	n/a	n/a	n/a	n/a	n/a	n/a	11	2	4	5	n/a	n/a	n/a	n/a	n/a
3291889	STOP	n/a	LTP278	ltpFR	7	n/a	n/a	n/a	n/a	n/a	n/a	n/a	n/a	n/a	n/a	n/a	n/a	n/a	n/a	n/a
3293807	WORD	wordpools/wasnorm_wordpool_less_exclusions.txt	LTP278	ltpFR	7	12	1	MARSH	874	n/a	0	n/a	0	0	0	0	0.5869140625	0.422607421875	lower	../fonts/zerothre.ttf
3296819	START	n/a	LTP278	ltpFR	7	n/a	n/a	n/a	n/a	n/a	n/a	n/a	n/a	n/a	n/a	n/a	n/a	n/a	n/a	n/a
3297772	PROB	n/a	LTP278	ltpFR	7	n/a	n/a	n/a	n/a	n/a	n/a	14	5	3	6	n/a	n/a	n/a	n/a	n/a
3299511	PROB	n/a	LTP278	ltpFR	7	n/a	n/a	n/a	n/a	n/a	n/a	16	9	4	3	n/a	n/a	n/a	n/a	n/a
3302522	PROB	n/a	LTP278	ltpFR	7	n/a	n/a	n/a	n/a	n/a	n/a	18	9	8	1	n/a	n/a	n/a	n/a	n/a
3304113	STOP	n/a	LTP278	ltpFR	7	n/a	n/a	n/a	n/a	n/a	n/a	n/a	n/a	n/a	n/a	n/a	n/a	n/a	n/a	n/a
3305869	WORD	wordpools/wasnorm_wordpool_less_exclusions.txt	LTP278	ltpFR	7	12	1	CUE	422	n/a	0	n/a	0	0	0	0	0.5869140625	0.422607421875	lower	../fonts/zerothre.ttf
3308881	START	n/a	LTP278	ltpFR	7	n/a	n/a	n/a	n/a	n/a	n/a	n/a	n/a	n/a	n/a	n/a	n/a	n/a	n/a	n/a
3309734	PROB	n/a	LTP278	ltpFR	7	n/a	n/a	n/a	n/a	n/a	n/a	13	5	1	7	n/a	n/a	n/a	n/a	n/a
3311422	PROB	n/a	LTP278	ltpFR	7	n/a	n/a	n/a	n/a	n/a	n/a	15	3	6	6	n/a	n/a	n/a	n/a	n/a
3313247	PROB	n/a	LTP278	ltpFR	7	n/a	n/a	n/a	n/a	n/a	n/a	15	4	2	9	n/a	n/a	n/a	n/a	n/a
3316881	STOP	n/a	LTP278	ltpFR	7	n/a	n/a	n/a	n/a	n/a	n/a	n/a	n/a	n/a	n/a	n/a	n/a	n/a	n/a	n/a
3318785	REC_START	n/a	LTP278	ltpFR	7	12	n/a	n/a	n/a	n/a	n/a	n/a	0	0	0	n/a	n/a	n/a	n/a	n/a
3320880	REC_WORD	wordpools/wasnorm_wordpool_less_exclusions.txt	LTP278	ltpFR	7	12	1	BLOSSOM	138	n/a	1	n/a	0	0	0	n/a	n/a	n/a	n/a	n/a
3326478	REC_WORD	wordpools/wasnorm_wordpool_less_exclusions.txt	LTP278	ltpFR	7	12	1	SQUIRREL	1362	n/a	1	n/a	0	0	0	n/a	n/a	n/a	n/a	n/a
3344403	REC_WORD	wordpools/wasnorm_wordpool_less_exclusions.txt	LTP278	ltpFR	7	12	1	ANTEATER	26	n/a	1	n/a	0	0	0	n/a	n/a	n/a	n/a	n/a
3352962	REC_WORD	wordpools/wasnorm_wordpool_less_exclusions.txt	LTP278	ltpFR	7	12	1	JUG	762	n/a	0	n/a	0	0	0	n/a	n/a	n/a	n/a	n/a
3360806	REC_WORD	wordpools/wasnorm_wordpool_less_exclusions.txt	LTP278	ltpFR	7	12	1	STUDENT	1395	n/a	1	n/a	0	0	0	n/a	n/a	n/a	n/a	n/a
3362018	REC_WORD	wordpools/wasnorm_wordpool_less_exclusions.txt	LTP278	ltpFR	7	12	1	TEACHER	1440	n/a	1	n/a	0	0	0	n/a	n/a	n/a	n/a	n/a
3373132	REC_WORD	wordpools/wasnorm_wordpool_less_exclusions.txt	LTP278	ltpFR	7	12	1	MARSH	874	n/a	0	n/a	0	0	0	n/a	n/a	n/a	n/a	n/a
3395757	START	n/a	LTP278	ltpFR	7	n/a	n/a	n/a	n/a	n/a	n/a	n/a	n/a	n/a	n/a	n/a	n/a	n/a	n/a	n/a
3397264	PROB	n/a	LTP278	ltpFR	7	n/a	n/a	n/a	n/a	n/a	n/a	16	8	6	2	n/a	n/a	n/a	n/a	n/a
3400307	PROB	n/a	LTP278	ltpFR	7	n/a	n/a	n/a	n/a	n/a	n/a	15	5	2	8	n/a	n/a	n/a	n/a	n/a
3403119	PROB	n/a	LTP278	ltpFR	7	n/a	n/a	n/a	n/a	n/a	n/a	15	7	4	4	n/a	n/a	n/a	n/a	n/a
3405896	PROB	n/a	LTP278	ltpFR	7	n/a	n/a	n/a	n/a	n/a	n/a	12	5	4	3	n/a	n/a	n/a	n/a	n/a
3411757	STOP	n/a	LTP278	ltpFR	7	n/a	n/a	n/a	n/a	n/a	n/a	n/a	n/a	n/a	n/a	n/a	n/a	n/a	n/a	n/a
3412721	WORD	wordpools/wasnorm_wordpool_less_exclusions.txt	LTP278	ltpFR	7	13	0	YACHT	1629	n/a	1	n/a	0	0	0	1	0.412841796875	0.57763671875	upper	../fonts/amplitud.ttf
3415734	START	n/a	LTP278	ltpFR	7	n/a	n/a	n/a	n/a	n/a	n/a	n/a	n/a	n/a	n/a	n/a	n/a	n/a	n/a	n/a
3416703	PROB	n/a	LTP278	ltpFR	7	n/a	n/a	n/a	n/a	n/a	n/a	12	1	6	3	n/a	n/a	n/a	n/a	n/a
3419263	PROB	n/a	LTP278	ltpFR	7	n/a	n/a	n/a	n/a	n/a	n/a	18	2	9	7	n/a	n/a	n/a	n/a	n/a
3423829	PROB	n/a	LTP278	ltpFR	7	n/a	n/a	n/a	n/a	n/a	n/a	17	3	7	7	n/a	n/a	n/a	n/a	n/a
3426156	PROB	n/a	LTP278	ltpFR	7	n/a	n/a	n/a	n/a	n/a	n/a	21	4	8	9	n/a	n/a	n/a	n/a	n/a
3429067	PROB	n/a	LTP278	ltpFR	7	n/a	n/a	n/a	n/a	n/a	n/a	16	5	3	8	n/a	n/a	n/a	n/a	n/a
3430616	STOP	n/a	LTP278	ltpFR	7	n/a	n/a	n/a	n/a	n/a	n/a	n/a	n/a	n/a	n/a	n/a	n/a	n/a	n/a	n/a
3432629	WORD	wordpools/wasnorm_wordpool_less_exclusions.txt	LTP278	ltpFR	7	13	0	CAPTAIN	239	n/a	1	n/a	0	0	0	1	0.412841796875	0.57763671875	upper	../fonts/amplitud.ttf
3435641	START	n/a	LTP278	ltpFR	7	n/a	n/a	n/a	n/a	n/a	n/a	n/a	n/a	n/a	n/a	n/a	n/a	n/a	n/a	n/a
3436578	PROB	n/a	LTP278	ltpFR	7	n/a	n/a	n/a	n/a	n/a	n/a	25	8	7	8	n/a	n/a	n/a	n/a	n/a
3440259	PROB	n/a	LTP278	ltpFR	7	n/a	n/a	n/a	n/a	n/a	n/a	8	1	2	5	n/a	n/a	n/a	n/a	n/a
3442166	PROB	n/a	LTP278	ltpFR	7	n/a	n/a	n/a	n/a	n/a	n/a	12	8	3	1	n/a	n/a	n/a	n/a	n/a
3444625	PROB	n/a	LTP278	ltpFR	7	n/a	n/a	n/a	n/a	n/a	n/a	11	1	6	4	n/a	n/a	n/a	n/a	n/a
3446163	PROB	n/a	LTP278	ltpFR	7	n/a	n/a	n/a	n/a	n/a	n/a	10	4	5	1	n/a	n/a	n/a	n/a	n/a
3447905	PROB	n/a	LTP278	ltpFR	7	n/a	n/a	n/a	n/a	n/a	n/a	13	1	4	8	n/a	n/a	n/a	n/a	n/a
3451641	STOP	n/a	LTP278	ltpFR	7	n/a	n/a	n/a	n/a	n/a	n/a	n/a	n/a	n/a	n/a	n/a	n/a	n/a	n/a	n/a
3452722	WORD	wordpools/wasnorm_wordpool_less_exclusions.txt	LTP278	ltpFR	7	13	0	BRIDE	173	n/a	1	n/a	0	0	0	1	0.412841796875	0.57763671875	upper	../fonts/amplitud.ttf
3455735	START	n/a	LTP278	ltpFR	7	n/a	n/a	n/a	n/a	n/a	n/a	n/a	n/a	n/a	n/a	n/a	n/a	n/a	n/a	n/a
3456653	PROB	n/a	LTP278	ltpFR	7	n/a	n/a	n/a	n/a	n/a	n/a	11	1	1	9	n/a	n/a	n/a	n/a	n/a
3458427	PROB	n/a	LTP278	ltpFR	7	n/a	n/a	n/a	n/a	n/a	n/a	14	1	4	9	n/a	n/a	n/a	n/a	n/a
3462209	PROB	n/a	LTP278	ltpFR	7	n/a	n/a	n/a	n/a	n/a	n/a	17	6	2	9	n/a	n/a	n/a	n/a	n/a
3464665	PROB	n/a	LTP278	ltpFR	7	n/a	n/a	n/a	n/a	n/a	n/a	11	9	2	1	n/a	n/a	n/a	n/a	n/a
3466910	PROB	n/a	LTP278	ltpFR	7	n/a	n/a	n/a	n/a	n/a	n/a	16	8	2	6	n/a	n/a	n/a	n/a	n/a
3468733	PROB	n/a	LTP278	ltpFR	7	n/a	n/a	n/a	n/a	n/a	n/a	9	4	1	4	n/a	n/a	n/a	n/a	n/a
3470257	STOP	n/a	LTP278	ltpFR	7	n/a	n/a	n/a	n/a	n/a	n/a	n/a	n/a	n/a	n/a	n/a	n/a	n/a	n/a	n/a
3472664	WORD	wordpools/wasnorm_wordpool_less_exclusions.txt	LTP278	ltpFR	7	13	0	CASHIER	254	n/a	1	n/a	0	0	0	1	0.412841796875	0.57763671875	upper	../fonts/amplitud.ttf
3475676	START	n/a	LTP278	ltpFR	7	n/a	n/a	n/a	n/a	n/a	n/a	n/a	n/a	n/a	n/a	n/a	n/a	n/a	n/a	n/a
3476847	PROB	n/a	LTP278	ltpFR	7	n/a	n/a	n/a	n/a	n/a	n/a	12	2	7	3	n/a	n/a	n/a	n/a	n/a
3479690	PROB	n/a	LTP278	ltpFR	7	n/a	n/a	n/a	n/a	n/a	n/a	14	6	5	3	n/a	n/a	n/a	n/a	n/a
3482417	PROB	n/a	LTP278	ltpFR	7	n/a	n/a	n/a	n/a	n/a	n/a	16	6	2	8	n/a	n/a	n/a	n/a	n/a
3484743	PROB	n/a	LTP278	ltpFR	7	n/a	n/a	n/a	n/a	n/a	n/a	19	5	8	6	n/a	n/a	n/a	n/a	n/a
3487704	PROB	n/a	LTP278	ltpFR	7	n/a	n/a	n/a	n/a	n/a	n/a	18	5	6	7	n/a	n/a	n/a	n/a	n/a
3491025	STOP	n/a	LTP278	ltpFR	7	n/a	n/a	n/a	n/a	n/a	n/a	n/a	n/a	n/a	n/a	n/a	n/a	n/a	n/a	n/a
3492687	WORD	wordpools/wasnorm_wordpool_less_exclusions.txt	LTP278	ltpFR	7	13	0	TRIGGER	1507	n/a	0	n/a	0	0	0	1	0.412841796875	0.57763671875	upper	../fonts/amplitud.ttf
3495702	START	n/a	LTP278	ltpFR	7	n/a	n/a	n/a	n/a	n/a	n/a	n/a	n/a	n/a	n/a	n/a	n/a	n/a	n/a	n/a
3496671	PROB	n/a	LTP278	ltpFR	7	n/a	n/a	n/a	n/a	n/a	n/a	16	1	8	7	n/a	n/a	n/a	n/a	n/a
3499064	PROB	n/a	LTP278	ltpFR	7	n/a	n/a	n/a	n/a	n/a	n/a	20	4	8	8	n/a	n/a	n/a	n/a	n/a
3503595	PROB	n/a	LTP278	ltpFR	7	n/a	n/a	n/a	n/a	n/a	n/a	20	8	4	8	n/a	n/a	n/a	n/a	n/a
3506491	PROB	n/a	LTP278	ltpFR	7	n/a	n/a	n/a	n/a	n/a	n/a	24	9	6	9	n/a	n/a	n/a	n/a	n/a
3509584	PROB	n/a	LTP278	ltpFR	7	n/a	n/a	n/a	n/a	n/a	n/a	15	3	8	4	n/a	n/a	n/a	n/a	n/a
3511424	STOP	n/a	LTP278	ltpFR	7	n/a	n/a	n/a	n/a	n/a	n/a	n/a	n/a	n/a	n/a	n/a	n/a	n/a	n/a	n/a
3512664	WORD	wordpools/wasnorm_wordpool_less_exclusions.txt	LTP278	ltpFR	7	13	0	SCENERY	1247	n/a	1	n/a	0	0	0	1	0.412841796875	0.57763671875	upper	../fonts/amplitud.ttf
3515677	START	n/a	LTP278	ltpFR	7	n/a	n/a	n/a	n/a	n/a	n/a	n/a	n/a	n/a	n/a	n/a	n/a	n/a	n/a	n/a
3516881	PROB	n/a	LTP278	ltpFR	7	n/a	n/a	n/a	n/a	n/a	n/a	8	5	2	1	n/a	n/a	n/a	n/a	n/a
3519406	PROB	n/a	LTP278	ltpFR	7	n/a	n/a	n/a	n/a	n/a	n/a	13	5	6	2	n/a	n/a	n/a	n/a	n/a
3521900	PROB	n/a	LTP278	ltpFR	7	n/a	n/a	n/a	n/a	n/a	n/a	9	2	4	3	n/a	n/a	n/a	n/a	n/a
3524125	PROB	n/a	LTP278	ltpFR	7	n/a	n/a	n/a	n/a	n/a	n/a	18	5	5	8	n/a	n/a	n/a	n/a	n/a
3525763	PROB	n/a	LTP278	ltpFR	7	n/a	n/a	n/a	n/a	n/a	n/a	17	7	8	2	n/a	n/a	n/a	n/a	n/a
3527971	PROB	n/a	LTP278	ltpFR	7	n/a	n/a	n/a	n/a	n/a	n/a	14	5	8	1	n/a	n/a	n/a	n/a	n/a
3531677	STOP	n/a	LTP278	ltpFR	7	n/a	n/a	n/a	n/a	n/a	n/a	n/a	n/a	n/a	n/a	n/a	n/a	n/a	n/a	n/a
3532758	WORD	wordpools/wasnorm_wordpool_less_exclusions.txt	LTP278	ltpFR	7	13	0	NEWSSTAND	949	n/a	1	n/a	0	0	0	1	0.412841796875	0.57763671875	upper	../fonts/amplitud.ttf
3535770	START	n/a	LTP278	ltpFR	7	n/a	n/a	n/a	n/a	n/a	n/a	n/a	n/a	n/a	n/a	n/a	n/a	n/a	n/a	n/a
3536840	PROB	n/a	LTP278	ltpFR	7	n/a	n/a	n/a	n/a	n/a	n/a	14	7	4	3	n/a	n/a	n/a	n/a	n/a
3539266	PROB	n/a	LTP278	ltpFR	7	n/a	n/a	n/a	n/a	n/a	n/a	10	6	3	1	n/a	n/a	n/a	n/a	n/a
3541389	PROB	n/a	LTP278	ltpFR	7	n/a	n/a	n/a	n/a	n/a	n/a	16	6	3	7	n/a	n/a	n/a	n/a	n/a
3543950	PROB	n/a	LTP278	ltpFR	7	n/a	n/a	n/a	n/a	n/a	n/a	14	5	4	5	n/a	n/a	n/a	n/a	n/a
3545639	PROB	n/a	LTP278	ltpFR	7	n/a	n/a	n/a	n/a	n/a	n/a	15	4	4	7	n/a	n/a	n/a	n/a	n/a
3547579	PROB	n/a	LTP278	ltpFR	7	n/a	n/a	n/a	n/a	n/a	n/a	14	3	2	9	n/a	n/a	n/a	n/a	n/a
3549303	PROB	n/a	LTP278	ltpFR	7	n/a	n/a	n/a	n/a	n/a	n/a	7	1	2	4	n/a	n/a	n/a	n/a	n/a
3551305	STOP	n/a	LTP278	ltpFR	7	n/a	n/a	n/a	n/a	n/a	n/a	n/a	n/a	n/a	n/a	n/a	n/a	n/a	n/a	n/a
3552800	WORD	wordpools/wasnorm_wordpool_less_exclusions.txt	LTP278	ltpFR	7	13	0	COPIER	377	n/a	1	n/a	0	0	0	1	0.412841796875	0.57763671875	upper	../fonts/amplitud.ttf
3555812	START	n/a	LTP278	ltpFR	7	n/a	n/a	n/a	n/a	n/a	n/a	n/a	n/a	n/a	n/a	n/a	n/a	n/a	n/a	n/a
3556680	PROB	n/a	LTP278	ltpFR	7	n/a	n/a	n/a	n/a	n/a	n/a	16	4	8	4	n/a	n/a	n/a	n/a	n/a
3558990	PROB	n/a	LTP278	ltpFR	7	n/a	n/a	n/a	n/a	n/a	n/a	16	7	3	6	n/a	n/a	n/a	n/a	n/a
3561048	PROB	n/a	LTP278	ltpFR	7	n/a	n/a	n/a	n/a	n/a	n/a	12	3	6	3	n/a	n/a	n/a	n/a	n/a
3562853	PROB	n/a	LTP278	ltpFR	7	n/a	n/a	n/a	n/a	n/a	n/a	13	8	2	3	n/a	n/a	n/a	n/a	n/a
3564508	PROB	n/a	LTP278	ltpFR	7	n/a	n/a	n/a	n/a	n/a	n/a	11	2	4	5	n/a	n/a	n/a	n/a	n/a
3567271	PROB	n/a	LTP278	ltpFR	7	n/a	n/a	n/a	n/a	n/a	n/a	19	8	2	9	n/a	n/a	n/a	n/a	n/a
3571812	STOP	n/a	LTP278	ltpFR	7	n/a	n/a	n/a	n/a	n/a	n/a	n/a	n/a	n/a	n/a	n/a	n/a	n/a	n/a	n/a
3572824	WORD	wordpools/wasnorm_wordpool_less_exclusions.txt	LTP278	ltpFR	7	13	0	ACTOR	5	n/a	1	n/a	0	0	0	1	0.412841796875	0.57763671875	upper	../fonts/amplitud.ttf
3575838	START	n/a	LTP278	ltpFR	7	n/a	n/a	n/a	n/a	n/a	n/a	n/a	n/a	n/a	n/a	n/a	n/a	n/a	n/a	n/a
3576774	PROB	n/a	LTP278	ltpFR	7	n/a	n/a	n/a	n/a	n/a	n/a	15	6	2	7	n/a	n/a	n/a	n/a	n/a
3579097	PROB	n/a	LTP278	ltpFR	7	n/a	n/a	n/a	n/a	n/a	n/a	12	1	4	7	n/a	n/a	n/a	n/a	n/a
3581691	PROB	n/a	LTP278	ltpFR	7	n/a	n/a	n/a	n/a	n/a	n/a	21	7	7	7	n/a	n/a	n/a	n/a	n/a
3583716	PROB	n/a	LTP278	ltpFR	7	n/a	n/a	n/a	n/a	n/a	n/a	22	6	9	7	n/a	n/a	n/a	n/a	n/a
3587849	PROB	n/a	LTP278	ltpFR	7	n/a	n/a	n/a	n/a	n/a	n/a	9	1	3	5	n/a	n/a	n/a	n/a	n/a
3590624	STOP	n/a	LTP278	ltpFR	7	n/a	n/a	n/a	n/a	n/a	n/a	n/a	n/a	n/a	n/a	n/a	n/a	n/a	n/a	n/a
3593001	WORD	wordpools/wasnorm_wordpool_less_exclusions.txt	LTP278	ltpFR	7	13	0	SATURN	1236	n/a	n/a	n/a	0	0	0	1	0.412841796875	0.57763671875	upper	../fonts/amplitud.ttf
3596046	SLOW_MSG	n/a	LTP278	ltpFR	7	13	n/a	n/a	n/a	n/a	n/a	n/a	0	0	0	n/a	n/a	n/a	n/a	n/a
3597568	START	n/a	LTP278	ltpFR	7	n/a	n/a	n/a	n/a	n/a	n/a	n/a	n/a	n/a	n/a	n/a	n/a	n/a	n/a	n/a
3598620	PROB	n/a	LTP278	ltpFR	7	n/a	n/a	n/a	n/a	n/a	n/a	26	9	9	8	n/a	n/a	n/a	n/a	n/a
3602086	PROB	n/a	LTP278	ltpFR	7	n/a	n/a	n/a	n/a	n/a	n/a	14	1	6	7	n/a	n/a	n/a	n/a	n/a
3603976	PROB	n/a	LTP278	ltpFR	7	n/a	n/a	n/a	n/a	n/a	n/a	21	9	3	9	n/a	n/a	n/a	n/a	n/a
3607421	PROB	n/a	LTP278	ltpFR	7	n/a	n/a	n/a	n/a	n/a	n/a	12	5	2	5	n/a	n/a	n/a	n/a	n/a
3609012	PROB	n/a	LTP278	ltpFR	7	n/a	n/a	n/a	n/a	n/a	n/a	17	6	7	4	n/a	n/a	n/a	n/a	n/a
3611470	PROB	n/a	LTP278	ltpFR	7	n/a	n/a	n/a	n/a	n/a	n/a	10	6	3	1	n/a	n/a	n/a	n/a	n/a
3612833	STOP	n/a	LTP278	ltpFR	7	n/a	n/a	n/a	n/a	n/a	n/a	n/a	n/a	n/a	n/a	n/a	n/a	n/a	n/a	n/a
3614665	WORD	wordpools/wasnorm_wordpool_less_exclusions.txt	LTP278	ltpFR	7	13	0	BEAN	105	n/a	0	n/a	0	0	0	1	0.412841796875	0.57763671875	upper	../fonts/amplitud.ttf
3617677	START	n/a	LTP278	ltpFR	7	n/a	n/a	n/a	n/a	n/a	n/a	n/a	n/a	n/a	n/a	n/a	n/a	n/a	n/a	n/a
3618732	PROB	n/a	LTP278	ltpFR	7	n/a	n/a	n/a	n/a	n/a	n/a	12	3	6	3	n/a	n/a	n/a	n/a	n/a
3620703	PROB	n/a	LTP278	ltpFR	7	n/a	n/a	n/a	n/a	n/a	n/a	12	3	3	6	n/a	n/a	n/a	n/a	n/a
3623332	PROB	n/a	LTP278	ltpFR	7	n/a	n/a	n/a	n/a	n/a	n/a	7	1	5	1	n/a	n/a	n/a	n/a	n/a
3624989	PROB	n/a	LTP278	ltpFR	7	n/a	n/a	n/a	n/a	n/a	n/a	16	5	5	6	n/a	n/a	n/a	n/a	n/a
3626811	PROB	n/a	LTP278	ltpFR	7	n/a	n/a	n/a	n/a	n/a	n/a	14	4	5	5	n/a	n/a	n/a	n/a	n/a
3628416	PROB	n/a	LTP278	ltpFR	7	n/a	n/a	n/a	n/a	n/a	n/a	19	9	6	4	n/a	n/a	n/a	n/a	n/a
3630274	PROB	n/a	LTP278	ltpFR	7	n/a	n/a	n/a	n/a	n/a	n/a	12	2	5	5	n/a	n/a	n/a	n/a	n/a
3633677	STOP	n/a	LTP278	ltpFR	7	n/a	n/a	n/a	n/a	n/a	n/a	n/a	n/a	n/a	n/a	n/a	n/a	n/a	n/a	n/a
3634591	WORD	wordpools/wasnorm_wordpool_less_exclusions.txt	LTP278	ltpFR	7	13	0	PAWN	1030	n/a	0	n/a	0	0	0	1	0.412841796875	0.57763671875	upper	../fonts/amplitud.ttf
3637602	START	n/a	LTP278	ltpFR	7	n/a	n/a	n/a	n/a	n/a	n/a	n/a	n/a	n/a	n/a	n/a	n/a	n/a	n/a	n/a
3638589	PROB	n/a	LTP278	ltpFR	7	n/a	n/a	n/a	n/a	n/a	n/a	8	4	3	1	n/a	n/a	n/a	n/a	n/a
3640513	PROB	n/a	LTP278	ltpFR	7	n/a	n/a	n/a	n/a	n/a	n/a	12	8	1	3	n/a	n/a	n/a	n/a	n/a
3642504	PROB	n/a	LTP278	ltpFR	7	n/a	n/a	n/a	n/a	n/a	n/a	15	6	6	3	n/a	n/a	n/a	n/a	n/a
3644694	PROB	n/a	LTP278	ltpFR	7	n/a	n/a	n/a	n/a	n/a	n/a	14	5	8	1	n/a	n/a	n/a	n/a	n/a
3647222	PROB	n/a	LTP278	ltpFR	7	n/a	n/a	n/a	n/a	n/a	n/a	13	7	3	3	n/a	n/a	n/a	n/a	n/a
3649512	PROB	n/a	LTP278	ltpFR	7	n/a	n/a	n/a	n/a	n/a	n/a	14	2	7	5	n/a	n/a	n/a	n/a	n/a
3652017	STOP	n/a	LTP278	ltpFR	7	n/a	n/a	n/a	n/a	n/a	n/a	n/a	n/a	n/a	n/a	n/a	n/a	n/a	n/a	n/a
3654582	WORD	wordpools/wasnorm_wordpool_less_exclusions.txt	LTP278	ltpFR	7	13	0	BILL	126	n/a	0	n/a	0	0	0	1	0.412841796875	0.57763671875	upper	../fonts/amplitud.ttf
3657595	START	n/a	LTP278	ltpFR	7	n/a	n/a	n/a	n/a	n/a	n/a	n/a	n/a	n/a	n/a	n/a	n/a	n/a	n/a	n/a
3658430	PROB	n/a	LTP278	ltpFR	7	n/a	n/a	n/a	n/a	n/a	n/a	21	7	7	7	n/a	n/a	n/a	n/a	n/a
3661075	PROB	n/a	LTP278	ltpFR	7	n/a	n/a	n/a	n/a	n/a	n/a	15	7	7	1	n/a	n/a	n/a	n/a	n/a
3662913	PROB	n/a	LTP278	ltpFR	7	n/a	n/a	n/a	n/a	n/a	n/a	17	6	2	9	n/a	n/a	n/a	n/a	n/a
3665157	PROB	n/a	LTP278	ltpFR	7	n/a	n/a	n/a	n/a	n/a	n/a	16	7	5	4	n/a	n/a	n/a	n/a	n/a
3667097	PROB	n/a	LTP278	ltpFR	7	n/a	n/a	n/a	n/a	n/a	n/a	13	3	9	1	n/a	n/a	n/a	n/a	n/a
3669254	PROB	n/a	LTP278	ltpFR	7	n/a	n/a	n/a	n/a	n/a	n/a	21	4	9	8	n/a	n/a	n/a	n/a	n/a
3673105	STOP	n/a	LTP278	ltpFR	7	n/a	n/a	n/a	n/a	n/a	n/a	n/a	n/a	n/a	n/a	n/a	n/a	n/a	n/a	n/a
3674641	WORD	wordpools/wasnorm_wordpool_less_exclusions.txt	LTP278	ltpFR	7	13	0	PRINCESS	1125	n/a	1	n/a	0	0	0	1	0.412841796875	0.57763671875	upper	../fonts/amplitud.ttf
3677653	START	n/a	LTP278	ltpFR	7	n/a	n/a	n/a	n/a	n/a	n/a	n/a	n/a	n/a	n/a	n/a	n/a	n/a	n/a	n/a
3678506	PROB	n/a	LTP278	ltpFR	7	n/a	n/a	n/a	n/a	n/a	n/a	13	3	6	4	n/a	n/a	n/a	n/a	n/a
3681015	PROB	n/a	LTP278	ltpFR	7	n/a	n/a	n/a	n/a	n/a	n/a	17	7	5	5	n/a	n/a	n/a	n/a	n/a
3682873	PROB	n/a	LTP278	ltpFR	7	n/a	n/a	n/a	n/a	n/a	n/a	13	6	6	1	n/a	n/a	n/a	n/a	n/a
3684781	PROB	n/a	LTP278	ltpFR	7	n/a	n/a	n/a	n/a	n/a	n/a	17	4	7	6	n/a	n/a	n/a	n/a	n/a
3686956	PROB	n/a	LTP278	ltpFR	7	n/a	n/a	n/a	n/a	n/a	n/a	14	8	5	1	n/a	n/a	n/a	n/a	n/a
3689479	PROB	n/a	LTP278	ltpFR	7	n/a	n/a	n/a	n/a	n/a	n/a	17	4	7	6	n/a	n/a	n/a	n/a	n/a
3693652	STOP	n/a	LTP278	ltpFR	7	n/a	n/a	n/a	n/a	n/a	n/a	n/a	n/a	n/a	n/a	n/a	n/a	n/a	n/a	n/a
3694869	WORD	wordpools/wasnorm_wordpool_less_exclusions.txt	LTP278	ltpFR	7	13	0	NOTEBOOK	959	n/a	0	n/a	0	0	0	1	0.412841796875	0.57763671875	upper	../fonts/amplitud.ttf
3697881	START	n/a	LTP278	ltpFR	7	n/a	n/a	n/a	n/a	n/a	n/a	n/a	n/a	n/a	n/a	n/a	n/a	n/a	n/a	n/a
3698800	PROB	n/a	LTP278	ltpFR	7	n/a	n/a	n/a	n/a	n/a	n/a	16	3	6	7	n/a	n/a	n/a	n/a	n/a
3701025	PROB	n/a	LTP278	ltpFR	7	n/a	n/a	n/a	n/a	n/a	n/a	18	8	9	1	n/a	n/a	n/a	n/a	n/a
3703183	PROB	n/a	LTP278	ltpFR	7	n/a	n/a	n/a	n/a	n/a	n/a	9	1	5	3	n/a	n/a	n/a	n/a	n/a
3705223	PROB	n/a	LTP278	ltpFR	7	n/a	n/a	n/a	n/a	n/a	n/a	16	7	1	8	n/a	n/a	n/a	n/a	n/a
3707115	PROB	n/a	LTP278	ltpFR	7	n/a	n/a	n/a	n/a	n/a	n/a	9	6	1	2	n/a	n/a	n/a	n/a	n/a
3709039	PROB	n/a	LTP278	ltpFR	7	n/a	n/a	n/a	n/a	n/a	n/a	6	4	1	1	n/a	n/a	n/a	n/a	n/a
3710944	PROB	n/a	LTP278	ltpFR	7	n/a	n/a	n/a	n/a	n/a	n/a	12	4	5	3	n/a	n/a	n/a	n/a	n/a
3712865	STOP	n/a	LTP278	ltpFR	7	n/a	n/a	n/a	n/a	n/a	n/a	n/a	n/a	n/a	n/a	n/a	n/a	n/a	n/a	n/a
3714976	WORD	wordpools/wasnorm_wordpool_less_exclusions.txt	LTP278	ltpFR	7	13	0	FLESH	579	n/a	0	n/a	0	0	0	1	0.412841796875	0.57763671875	upper	../fonts/amplitud.ttf
3717990	START	n/a	LTP278	ltpFR	7	n/a	n/a	n/a	n/a	n/a	n/a	n/a	n/a	n/a	n/a	n/a	n/a	n/a	n/a	n/a
3719026	PROB	n/a	LTP278	ltpFR	7	n/a	n/a	n/a	n/a	n/a	n/a	14	3	7	4	n/a	n/a	n/a	n/a	n/a
3723624	PROB	n/a	LTP278	ltpFR	7	n/a	n/a	n/a	n/a	n/a	n/a	15	6	7	2	n/a	n/a	n/a	n/a	n/a
3726336	PROB	n/a	LTP278	ltpFR	7	n/a	n/a	n/a	n/a	n/a	n/a	10	5	4	1	n/a	n/a	n/a	n/a	n/a
3727910	PROB	n/a	LTP278	ltpFR	7	n/a	n/a	n/a	n/a	n/a	n/a	15	9	1	5	n/a	n/a	n/a	n/a	n/a
3729498	PROB	n/a	LTP278	ltpFR	7	n/a	n/a	n/a	n/a	n/a	n/a	13	3	8	2	n/a	n/a	n/a	n/a	n/a
3733990	STOP	n/a	LTP278	ltpFR	7	n/a	n/a	n/a	n/a	n/a	n/a	n/a	n/a	n/a	n/a	n/a	n/a	n/a	n/a	n/a
3735807	REC_START	n/a	LTP278	ltpFR	7	13	n/a	n/a	n/a	n/a	n/a	n/a	0	0	0	n/a	n/a	n/a	n/a	n/a
3737498	REC_WORD	wordpools/wasnorm_wordpool_less_exclusions.txt	LTP278	ltpFR	7	13	0	PRINCESS	1125	n/a	1	n/a	0	0	0	n/a	n/a	n/a	n/a	n/a
3738476	REC_WORD	wordpools/wasnorm_wordpool_less_exclusions.txt	LTP278	ltpFR	7	13	0	BRIDE	173	n/a	1	n/a	0	0	0	n/a	n/a	n/a	n/a	n/a
3739348	REC_WORD	wordpools/wasnorm_wordpool_less_exclusions.txt	LTP278	ltpFR	7	13	0	YACHT	1629	n/a	1	n/a	0	0	0	n/a	n/a	n/a	n/a	n/a
3740338	REC_WORD	wordpools/wasnorm_wordpool_less_exclusions.txt	LTP278	ltpFR	7	13	0	CAPTAIN	239	n/a	1	n/a	0	0	0	n/a	n/a	n/a	n/a	n/a
