mstime	trial_type	stim_file	subject	experiment	session	trial	task	item_name	item_num	recog_resp	recog_conf	resp	color_r	color_g	color_b	case	font
0	SESS_START	n/a	LTP264	ltpFR	18	n/a	n/a	n/a	n/a	1	5	n/a	n/a	n/a	n/a	n/a	n/a
17462	WORD	wordpools/wasnorm_wordpool_less_exclusions.txt	LTP264	ltpFR	18	1	0	TOURIST	1488	0	n/a	1	0.422607421875	0.5869140625	0	upper	zerothre.ttf
21561	WORD	wordpools/wasnorm_wordpool_less_exclusions.txt	LTP264	ltpFR	18	1	0	CLOSET	326	n/a	n/a	1	0.422607421875	0.5869140625	0	upper	zerothre.ttf
25442	WORD	wordpools/wasnorm_wordpool_less_exclusions.txt	LTP264	ltpFR	18	1	0	CREEK	404	n/a	n/a	1	0.422607421875	0.5869140625	0	upper	zerothre.ttf
29291	WORD	wordpools/wasnorm_wordpool_less_exclusions.txt	LTP264	ltpFR	18	1	0	APARTMENT	30	n/a	n/a	1	0.422607421875	0.5869140625	0	upper	zerothre.ttf
33155	WORD	wordpools/wasnorm_wordpool_less_exclusions.txt	LTP264	ltpFR	18	1	0	BUTTON	207	n/a	n/a	0	0.422607421875	0.5869140625	0	upper	zerothre.ttf
37019	WORD	wordpools/wasnorm_wordpool_less_exclusions.txt	LTP264	ltpFR	18	1	0	COMPANION	357	n/a	n/a	1	0.422607421875	0.5869140625	0	upper	zerothre.ttf
41068	WORD	wordpools/wasnorm_wordpool_less_exclusions.txt	LTP264	ltpFR	18	1	1	LINT	826	n/a	n/a	0	0.57763671875	0.412841796875	1	lower	amplitud.ttf
45016	WORD	wordpools/wasnorm_wordpool_less_exclusions.txt	LTP264	ltpFR	18	1	1	GLASSES	640	n/a	n/a	1	0.57763671875	0.412841796875	1	lower	amplitud.ttf
49031	WORD	wordpools/wasnorm_wordpool_less_exclusions.txt	LTP264	ltpFR	18	1	1	THRONE	1461	n/a	n/a	3	0.57763671875	0.412841796875	1	lower	amplitud.ttf
50821	KEY_MSG	n/a	LTP264	ltpFR	18	1	n/a	n/a	n/a	n/a	n/a	n/a	n/a	n/a	n/a	n/a	n/a
53212	WORD	wordpools/wasnorm_wordpool_less_exclusions.txt	LTP264	ltpFR	18	1	0	DICTATOR	462	n/a	n/a	1	0.422607421875	0.5869140625	0	upper	zerothre.ttf
57396	WORD	wordpools/wasnorm_wordpool_less_exclusions.txt	LTP264	ltpFR	18	1	0	SPONGE	1355	n/a	n/a	0	0.422607421875	0.5869140625	0	upper	zerothre.ttf
61245	WORD	wordpools/wasnorm_wordpool_less_exclusions.txt	LTP264	ltpFR	18	1	1	CROW	414	n/a	n/a	0	0.57763671875	0.412841796875	1	lower	amplitud.ttf
65426	WORD	wordpools/wasnorm_wordpool_less_exclusions.txt	LTP264	ltpFR	18	1	1	EAGLE	512	n/a	n/a	1	0.57763671875	0.412841796875	1	lower	amplitud.ttf
69609	WORD	wordpools/wasnorm_wordpool_less_exclusions.txt	LTP264	ltpFR	18	1	1	SILVERWARE	1308	n/a	n/a	0	0.57763671875	0.412841796875	1	lower	amplitud.ttf
73657	WORD	wordpools/wasnorm_wordpool_less_exclusions.txt	LTP264	ltpFR	18	1	1	CONTAINER	366	n/a	n/a	0	0.57763671875	0.412841796875	1	lower	amplitud.ttf
77806	WORD	wordpools/wasnorm_wordpool_less_exclusions.txt	LTP264	ltpFR	18	1	1	NOTEBOOK	959	n/a	n/a	0	0.57763671875	0.412841796875	1	lower	amplitud.ttf
83412	REC_START	n/a	LTP264	ltpFR	18	1	n/a	n/a	n/a	n/a	n/a	n/a	n/a	n/a	n/a	n/a	n/a
83839	REC_WORD	wordpools/wasnorm_wordpool_less_exclusions.txt	LTP264	ltpFR	18	1	1	NOTEBOOK	959	n/a	n/a	0	n/a	n/a	n/a	n/a	n/a
84435	REC_WORD	wordpools/wasnorm_wordpool_less_exclusions.txt	LTP264	ltpFR	18	1	1	CONTAINER	366	n/a	n/a	0	n/a	n/a	n/a	n/a	n/a
86086	REC_WORD	wordpools/wasnorm_wordpool_less_exclusions.txt	LTP264	ltpFR	18	1	1	SILVERWARE	1308	n/a	n/a	0	n/a	n/a	n/a	n/a	n/a
87055	REC_WORD	wordpools/wasnorm_wordpool_less_exclusions.txt	LTP264	ltpFR	18	1	1	EAGLE	512	n/a	n/a	1	n/a	n/a	n/a	n/a	n/a
87621	REC_WORD	wordpools/wasnorm_wordpool_less_exclusions.txt	LTP264	ltpFR	18	1	1	CROW	414	n/a	n/a	0	n/a	n/a	n/a	n/a	n/a
88086	REC_WORD	wordpools/wasnorm_wordpool_less_exclusions.txt	LTP264	ltpFR	18	1	0	SPONGE	1355	n/a	n/a	0	n/a	n/a	n/a	n/a	n/a
89476	REC_WORD	wordpools/wasnorm_wordpool_less_exclusions.txt	LTP264	ltpFR	18	1	0	DICTATOR	462	n/a	n/a	1	n/a	n/a	n/a	n/a	n/a
90045	REC_WORD	wordpools/wasnorm_wordpool_less_exclusions.txt	LTP264	ltpFR	18	1	1	THRONE	1461	n/a	n/a	3	n/a	n/a	n/a	n/a	n/a
91802	REC_WORD	wordpools/wasnorm_wordpool_less_exclusions.txt	LTP264	ltpFR	18	1	1	GLASSES	640	n/a	n/a	1	n/a	n/a	n/a	n/a	n/a
94157	REC_WORD	wordpools/wasnorm_wordpool_less_exclusions.txt	LTP264	ltpFR	18	1	1	LINT	826	n/a	n/a	0	n/a	n/a	n/a	n/a	n/a
96245	REC_WORD	wordpools/wasnorm_wordpool_less_exclusions.txt	LTP264	ltpFR	18	1	0	COMPANION	357	n/a	n/a	1	n/a	n/a	n/a	n/a	n/a
97292	REC_WORD	wordpools/wasnorm_wordpool_less_exclusions.txt	LTP264	ltpFR	18	1	0	BUTTON	207	n/a	n/a	0	n/a	n/a	n/a	n/a	n/a
103963	REC_WORD	wordpools/wasnorm_wordpool_less_exclusions.txt	LTP264	ltpFR	18	1	0	APARTMENT	30	n/a	n/a	1	n/a	n/a	n/a	n/a	n/a
104753	REC_WORD	wordpools/wasnorm_wordpool_less_exclusions.txt	LTP264	ltpFR	18	1	0	CREEK	404	n/a	n/a	1	n/a	n/a	n/a	n/a	n/a
105529	REC_WORD	wordpools/wasnorm_wordpool_less_exclusions.txt	LTP264	ltpFR	18	1	0	CLOSET	326	n/a	n/a	1	n/a	n/a	n/a	n/a	n/a
107233	REC_WORD	wordpools/wasnorm_wordpool_less_exclusions.txt	LTP264	ltpFR	18	1	0	TOURIST	1488	n/a	n/a	1	n/a	n/a	n/a	n/a	n/a
161990	WORD	wordpools/wasnorm_wordpool_less_exclusions.txt	LTP264	ltpFR	18	2	1	OINTMENT	974	n/a	n/a	0	0.57763671875	0.412841796875	1	lower	amplitud.ttf
166005	WORD	wordpools/wasnorm_wordpool_less_exclusions.txt	LTP264	ltpFR	18	2	1	OLIVE	975	n/a	n/a	0	0.57763671875	0.412841796875	1	lower	amplitud.ttf
169970	WORD	wordpools/wasnorm_wordpool_less_exclusions.txt	LTP264	ltpFR	18	2	0	KANGAROO	768	n/a	n/a	1	0.422607421875	0.5869140625	0	upper	zerothre.ttf
174069	WORD	wordpools/wasnorm_wordpool_less_exclusions.txt	LTP264	ltpFR	18	2	0	KNAPSACK	783	n/a	n/a	1	0.422607421875	0.5869140625	0	upper	zerothre.ttf
177900	WORD	wordpools/wasnorm_wordpool_less_exclusions.txt	LTP264	ltpFR	18	2	0	FEAST	556	n/a	n/a	0	0.422607421875	0.5869140625	0	upper	zerothre.ttf
182066	WORD	wordpools/wasnorm_wordpool_less_exclusions.txt	LTP264	ltpFR	18	2	0	TWISTER	1530	n/a	n/a	1	0.422607421875	0.5869140625	0	upper	zerothre.ttf
186233	WORD	wordpools/wasnorm_wordpool_less_exclusions.txt	LTP264	ltpFR	18	2	1	CLAM	315	n/a	n/a	0	0.57763671875	0.412841796875	1	lower	amplitud.ttf
190113	WORD	wordpools/wasnorm_wordpool_less_exclusions.txt	LTP264	ltpFR	18	2	1	CROSS	413	n/a	n/a	0	0.57763671875	0.412841796875	1	lower	amplitud.ttf
194095	WORD	wordpools/wasnorm_wordpool_less_exclusions.txt	LTP264	ltpFR	18	2	0	DINER	467	n/a	n/a	1	0.422607421875	0.5869140625	0	upper	zerothre.ttf
198143	WORD	wordpools/wasnorm_wordpool_less_exclusions.txt	LTP264	ltpFR	18	2	0	BRIDE	173	n/a	n/a	1	0.422607421875	0.5869140625	0	upper	zerothre.ttf
202025	WORD	wordpools/wasnorm_wordpool_less_exclusions.txt	LTP264	ltpFR	18	2	0	SNEAKER	1334	n/a	n/a	1	0.422607421875	0.5869140625	0	upper	zerothre.ttf
206174	WORD	wordpools/wasnorm_wordpool_less_exclusions.txt	LTP264	ltpFR	18	2	0	SHOELACE	1289	n/a	n/a	1	0.422607421875	0.5869140625	0	upper	zerothre.ttf
210172	WORD	wordpools/wasnorm_wordpool_less_exclusions.txt	LTP264	ltpFR	18	2	1	POPE	1105	n/a	n/a	1	0.57763671875	0.412841796875	1	lower	amplitud.ttf
214137	WORD	wordpools/wasnorm_wordpool_less_exclusions.txt	LTP264	ltpFR	18	2	1	WAITRESS	1581	n/a	n/a	0	0.57763671875	0.412841796875	1	lower	amplitud.ttf
218220	WORD	wordpools/wasnorm_wordpool_less_exclusions.txt	LTP264	ltpFR	18	2	1	TOTE	1487	n/a	n/a	0	0.57763671875	0.412841796875	1	lower	amplitud.ttf
222067	WORD	wordpools/wasnorm_wordpool_less_exclusions.txt	LTP264	ltpFR	18	2	1	OREGANO	983	n/a	n/a	1	0.57763671875	0.412841796875	1	lower	amplitud.ttf
227722	REC_START	n/a	LTP264	ltpFR	18	2	n/a	n/a	n/a	n/a	n/a	n/a	n/a	n/a	n/a	n/a	n/a
228279	REC_WORD	wordpools/wasnorm_wordpool_less_exclusions.txt	LTP264	ltpFR	18	2	1	OREGANO	983	n/a	n/a	1	n/a	n/a	n/a	n/a	n/a
229150	REC_WORD	wordpools/wasnorm_wordpool_less_exclusions.txt	LTP264	ltpFR	18	2	1	TOTE	1487	n/a	n/a	0	n/a	n/a	n/a	n/a	n/a
229880	REC_WORD	wordpools/wasnorm_wordpool_less_exclusions.txt	LTP264	ltpFR	18	2	1	WAITRESS	1581	n/a	n/a	0	n/a	n/a	n/a	n/a	n/a
230706	REC_WORD	wordpools/wasnorm_wordpool_less_exclusions.txt	LTP264	ltpFR	18	2	1	POPE	1105	n/a	n/a	1	n/a	n/a	n/a	n/a	n/a
231870	REC_WORD	wordpools/wasnorm_wordpool_less_exclusions.txt	LTP264	ltpFR	18	2	0	SHOELACE	1289	n/a	n/a	1	n/a	n/a	n/a	n/a	n/a
232542	REC_WORD	wordpools/wasnorm_wordpool_less_exclusions.txt	LTP264	ltpFR	18	2	0	SNEAKER	1334	n/a	n/a	1	n/a	n/a	n/a	n/a	n/a
233648	REC_WORD	wordpools/wasnorm_wordpool_less_exclusions.txt	LTP264	ltpFR	18	2	0	BRIDE	173	n/a	n/a	1	n/a	n/a	n/a	n/a	n/a
234713	REC_WORD	wordpools/wasnorm_wordpool_less_exclusions.txt	LTP264	ltpFR	18	2	0	DINER	467	n/a	n/a	1	n/a	n/a	n/a	n/a	n/a
238617	REC_WORD	wordpools/wasnorm_wordpool_less_exclusions.txt	LTP264	ltpFR	18	2	1	CROSS	413	n/a	n/a	0	n/a	n/a	n/a	n/a	n/a
239395	REC_WORD	wordpools/wasnorm_wordpool_less_exclusions.txt	LTP264	ltpFR	18	2	1	CLAM	315	n/a	n/a	0	n/a	n/a	n/a	n/a	n/a
240087	REC_WORD	wordpools/wasnorm_wordpool_less_exclusions.txt	LTP264	ltpFR	18	2	0	TWISTER	1530	n/a	n/a	1	n/a	n/a	n/a	n/a	n/a
245099	REC_WORD	wordpools/wasnorm_wordpool_less_exclusions.txt	LTP264	ltpFR	18	2	0	FEAST	556	n/a	n/a	0	n/a	n/a	n/a	n/a	n/a
246082	REC_WORD	wordpools/wasnorm_wordpool_less_exclusions.txt	LTP264	ltpFR	18	2	0	KNAPSACK	783	n/a	n/a	1	n/a	n/a	n/a	n/a	n/a
247550	REC_WORD	wordpools/wasnorm_wordpool_less_exclusions.txt	LTP264	ltpFR	18	2	0	KANGAROO	768	n/a	n/a	1	n/a	n/a	n/a	n/a	n/a
250521	REC_WORD	wordpools/wasnorm_wordpool_less_exclusions.txt	LTP264	ltpFR	18	2	1	OLIVE	975	n/a	n/a	0	n/a	n/a	n/a	n/a	n/a
251191	REC_WORD	wordpools/wasnorm_wordpool_less_exclusions.txt	LTP264	ltpFR	18	2	1	OINTMENT	974	n/a	n/a	0	n/a	n/a	n/a	n/a	n/a
269222	REC_WORD	wordpools/wasnorm_wordpool_less_exclusions.txt	LTP264	ltpFR	18	2	0	BRIDE	173	n/a	n/a	1	n/a	n/a	n/a	n/a	n/a
305966	WORD	wordpools/wasnorm_wordpool_less_exclusions.txt	LTP264	ltpFR	18	3	0	SHRUB	1299	n/a	n/a	1	0.422607421875	0.5869140625	0	upper	zerothre.ttf
309981	WORD	wordpools/wasnorm_wordpool_less_exclusions.txt	LTP264	ltpFR	18	3	0	CITIZEN	312	n/a	n/a	0	0.422607421875	0.5869140625	0	upper	zerothre.ttf
314178	WORD	wordpools/wasnorm_wordpool_less_exclusions.txt	LTP264	ltpFR	18	3	0	PORTRAIT	1111	n/a	n/a	1	0.422607421875	0.5869140625	0	upper	zerothre.ttf
318397	WORD	wordpools/wasnorm_wordpool_less_exclusions.txt	LTP264	ltpFR	18	3	0	THORN	1459	n/a	n/a	1	0.422607421875	0.5869140625	0	upper	zerothre.ttf
322346	WORD	wordpools/wasnorm_wordpool_less_exclusions.txt	LTP264	ltpFR	18	3	0	ROOT	1210	n/a	n/a	1	0.422607421875	0.5869140625	0	upper	zerothre.ttf
326190	WORD	wordpools/wasnorm_wordpool_less_exclusions.txt	LTP264	ltpFR	18	3	0	WAVE	1596	n/a	n/a	0	0.422607421875	0.5869140625	0	upper	zerothre.ttf
330040	WORD	wordpools/wasnorm_wordpool_less_exclusions.txt	LTP264	ltpFR	18	3	0	TOY	1492	n/a	n/a	1	0.422607421875	0.5869140625	0	upper	zerothre.ttf
334072	WORD	wordpools/wasnorm_wordpool_less_exclusions.txt	LTP264	ltpFR	18	3	0	COLESLAW	344	n/a	n/a	1	0.422607421875	0.5869140625	0	upper	zerothre.ttf
337970	WORD	wordpools/wasnorm_wordpool_less_exclusions.txt	LTP264	ltpFR	18	3	0	SNACK	1331	n/a	n/a	0	0.422607421875	0.5869140625	0	upper	zerothre.ttf
341801	WORD	wordpools/wasnorm_wordpool_less_exclusions.txt	LTP264	ltpFR	18	3	0	TART	1436	n/a	n/a	1	0.422607421875	0.5869140625	0	upper	zerothre.ttf
345750	WORD	wordpools/wasnorm_wordpool_less_exclusions.txt	LTP264	ltpFR	18	3	0	DISHWASHER	475	n/a	n/a	0	0.422607421875	0.5869140625	0	upper	zerothre.ttf
349815	WORD	wordpools/wasnorm_wordpool_less_exclusions.txt	LTP264	ltpFR	18	3	0	SCENERY	1247	n/a	n/a	1	0.422607421875	0.5869140625	0	upper	zerothre.ttf
353797	WORD	wordpools/wasnorm_wordpool_less_exclusions.txt	LTP264	ltpFR	18	3	0	MEDAL	885	n/a	n/a	1	0.422607421875	0.5869140625	0	upper	zerothre.ttf
357728	WORD	wordpools/wasnorm_wordpool_less_exclusions.txt	LTP264	ltpFR	18	3	0	AWARD	63	n/a	n/a	1	0.422607421875	0.5869140625	0	upper	zerothre.ttf
361676	WORD	wordpools/wasnorm_wordpool_less_exclusions.txt	LTP264	ltpFR	18	3	0	DIARY	460	n/a	n/a	0	0.422607421875	0.5869140625	0	upper	zerothre.ttf
365775	WORD	wordpools/wasnorm_wordpool_less_exclusions.txt	LTP264	ltpFR	18	3	0	HERD	705	n/a	n/a	1	0.422607421875	0.5869140625	0	upper	zerothre.ttf
371850	REC_START	n/a	LTP264	ltpFR	18	3	n/a	n/a	n/a	n/a	n/a	n/a	n/a	n/a	n/a	n/a	n/a
372645	REC_WORD	wordpools/wasnorm_wordpool_less_exclusions.txt	LTP264	ltpFR	18	3	0	HERD	705	n/a	n/a	1	n/a	n/a	n/a	n/a	n/a
373373	REC_WORD	wordpools/wasnorm_wordpool_less_exclusions.txt	LTP264	ltpFR	18	3	0	DIARY	460	n/a	n/a	0	n/a	n/a	n/a	n/a	n/a
373976	REC_WORD	wordpools/wasnorm_wordpool_less_exclusions.txt	LTP264	ltpFR	18	3	0	MEDAL	885	n/a	n/a	1	n/a	n/a	n/a	n/a	n/a
374251	REC_WORD	wordpools/wasnorm_wordpool_less_exclusions.txt	LTP264	ltpFR	18	3	0	AWARD	63	n/a	n/a	1	n/a	n/a	n/a	n/a	n/a
375107	REC_WORD	wordpools/wasnorm_wordpool_less_exclusions.txt	LTP264	ltpFR	18	3	0	COLESLAW	344	n/a	n/a	1	n/a	n/a	n/a	n/a	n/a
378289	REC_WORD	wordpools/wasnorm_wordpool_less_exclusions.txt	LTP264	ltpFR	18	3	0	WAVE	1596	n/a	n/a	0	n/a	n/a	n/a	n/a	n/a
392156	REC_WORD	wordpools/wasnorm_wordpool_less_exclusions.txt	LTP264	ltpFR	18	3	0	HERD	705	n/a	n/a	1	n/a	n/a	n/a	n/a	n/a
414182	REC_WORD	wordpools/wasnorm_wordpool_less_exclusions.txt	LTP264	ltpFR	18	3	0	SHRUB	1299	n/a	n/a	1	n/a	n/a	n/a	n/a	n/a
415296	REC_WORD	wordpools/wasnorm_wordpool_less_exclusions.txt	LTP264	ltpFR	18	3	0	CITIZEN	312	n/a	n/a	0	n/a	n/a	n/a	n/a	n/a
416219	REC_WORD	wordpools/wasnorm_wordpool_less_exclusions.txt	LTP264	ltpFR	18	3	0	PORTRAIT	1111	n/a	n/a	1	n/a	n/a	n/a	n/a	n/a
425352	REC_WORD	wordpools/wasnorm_wordpool_less_exclusions.txt	LTP264	ltpFR	18	3	0	THORN	1459	n/a	n/a	1	n/a	n/a	n/a	n/a	n/a
426102	REC_WORD	wordpools/wasnorm_wordpool_less_exclusions.txt	LTP264	ltpFR	18	3	0	ROOT	1210	n/a	n/a	1	n/a	n/a	n/a	n/a	n/a
429735	REC_WORD	wordpools/wasnorm_wordpool_less_exclusions.txt	LTP264	ltpFR	18	3	0	TOY	1492	n/a	n/a	1	n/a	n/a	n/a	n/a	n/a
451265	WORD	wordpools/wasnorm_wordpool_less_exclusions.txt	LTP264	ltpFR	18	4	1	SOFTBALL	1343	n/a	n/a	0	0.57763671875	0.412841796875	1	lower	amplitud.ttf
455314	WORD	wordpools/wasnorm_wordpool_less_exclusions.txt	LTP264	ltpFR	18	4	1	LIVER	833	n/a	n/a	1	0.57763671875	0.412841796875	1	lower	amplitud.ttf
459395	WORD	wordpools/wasnorm_wordpool_less_exclusions.txt	LTP264	ltpFR	18	4	1	BLANKET	135	n/a	n/a	0	0.57763671875	0.412841796875	1	lower	amplitud.ttf
463243	WORD	wordpools/wasnorm_wordpool_less_exclusions.txt	LTP264	ltpFR	18	4	1	SWAN	1417	n/a	n/a	1	0.57763671875	0.412841796875	1	lower	amplitud.ttf
467375	WORD	wordpools/wasnorm_wordpool_less_exclusions.txt	LTP264	ltpFR	18	4	0	CANARY	227	n/a	n/a	1	0.422607421875	0.5869140625	0	upper	zerothre.ttf
471390	WORD	wordpools/wasnorm_wordpool_less_exclusions.txt	LTP264	ltpFR	18	4	0	LAPEL	800	n/a	n/a	0	0.422607421875	0.5869140625	0	upper	zerothre.ttf
475371	WORD	wordpools/wasnorm_wordpool_less_exclusions.txt	LTP264	ltpFR	18	4	0	MONSTER	912	n/a	n/a	1	0.422607421875	0.5869140625	0	upper	zerothre.ttf
479420	WORD	wordpools/wasnorm_wordpool_less_exclusions.txt	LTP264	ltpFR	18	4	0	PRESIDENT	1121	n/a	n/a	0	0.422607421875	0.5869140625	0	upper	zerothre.ttf
483352	WORD	wordpools/wasnorm_wordpool_less_exclusions.txt	LTP264	ltpFR	18	4	1	DOG	480	n/a	n/a	0	0.57763671875	0.412841796875	1	lower	amplitud.ttf
487383	WORD	wordpools/wasnorm_wordpool_less_exclusions.txt	LTP264	ltpFR	18	4	1	PIGEON	1065	n/a	n/a	1	0.57763671875	0.412841796875	1	lower	amplitud.ttf
491516	WORD	wordpools/wasnorm_wordpool_less_exclusions.txt	LTP264	ltpFR	18	4	1	DOVE	491	n/a	n/a	1	0.57763671875	0.412841796875	1	lower	amplitud.ttf
495414	WORD	wordpools/wasnorm_wordpool_less_exclusions.txt	LTP264	ltpFR	18	4	1	BASKETBALL	96	n/a	n/a	0	0.57763671875	0.412841796875	1	lower	amplitud.ttf
499462	WORD	wordpools/wasnorm_wordpool_less_exclusions.txt	LTP264	ltpFR	18	4	0	CRUMB	416	n/a	n/a	0	0.422607421875	0.5869140625	0	upper	zerothre.ttf
503410	WORD	wordpools/wasnorm_wordpool_less_exclusions.txt	LTP264	ltpFR	18	4	0	CHOCOLATE	306	n/a	n/a	1	0.422607421875	0.5869140625	0	upper	zerothre.ttf
507459	WORD	wordpools/wasnorm_wordpool_less_exclusions.txt	LTP264	ltpFR	18	4	0	FILM	565	n/a	n/a	0	0.422607421875	0.5869140625	0	upper	zerothre.ttf
511457	WORD	wordpools/wasnorm_wordpool_less_exclusions.txt	LTP264	ltpFR	18	4	0	HEATER	698	n/a	n/a	1	0.422607421875	0.5869140625	0	upper	zerothre.ttf
517197	REC_START	n/a	LTP264	ltpFR	18	4	n/a	n/a	n/a	n/a	n/a	n/a	n/a	n/a	n/a	n/a	n/a
518419	REC_WORD	wordpools/wasnorm_wordpool_less_exclusions.txt	LTP264	ltpFR	18	4	0	PRESIDENT	1121	n/a	n/a	0	n/a	n/a	n/a	n/a	n/a
519260	REC_WORD	wordpools/wasnorm_wordpool_less_exclusions.txt	LTP264	ltpFR	18	4	1	DOG	480	n/a	n/a	0	n/a	n/a	n/a	n/a	n/a
521979	REC_WORD	wordpools/wasnorm_wordpool_less_exclusions.txt	LTP264	ltpFR	18	4	1	DOVE	491	n/a	n/a	1	n/a	n/a	n/a	n/a	n/a
523914	REC_WORD	wordpools/wasnorm_wordpool_less_exclusions.txt	LTP264	ltpFR	18	4	1	SWAN	1417	n/a	n/a	1	n/a	n/a	n/a	n/a	n/a
524485	REC_WORD	wordpools/wasnorm_wordpool_less_exclusions.txt	LTP264	ltpFR	18	4	0	CANARY	227	n/a	n/a	1	n/a	n/a	n/a	n/a	n/a
525016	REC_WORD	wordpools/wasnorm_wordpool_less_exclusions.txt	LTP264	ltpFR	18	4	1	BLANKET	135	n/a	n/a	0	n/a	n/a	n/a	n/a	n/a
528836	REC_WORD	wordpools/wasnorm_wordpool_less_exclusions.txt	LTP264	ltpFR	18	4	0	FILM	565	n/a	n/a	0	n/a	n/a	n/a	n/a	n/a
529274	REC_WORD	wordpools/wasnorm_wordpool_less_exclusions.txt	LTP264	ltpFR	18	4	0	HEATER	698	n/a	n/a	1	n/a	n/a	n/a	n/a	n/a
535575	REC_WORD	wordpools/wasnorm_wordpool_less_exclusions.txt	LTP264	ltpFR	18	4	0	CRUMB	416	n/a	n/a	0	n/a	n/a	n/a	n/a	n/a
536126	REC_WORD	wordpools/wasnorm_wordpool_less_exclusions.txt	LTP264	ltpFR	18	4	0	CHOCOLATE	306	n/a	n/a	1	n/a	n/a	n/a	n/a	n/a
544527	REC_WORD	wordpools/wasnorm_wordpool_less_exclusions.txt	LTP264	ltpFR	18	4	1	SWAN	1417	n/a	n/a	1	n/a	n/a	n/a	n/a	n/a
549014	REC_WORD	wordpools/wasnorm_wordpool_less_exclusions.txt	LTP264	ltpFR	18	4	1	SOFTBALL	1343	n/a	n/a	0	n/a	n/a	n/a	n/a	n/a
549733	REC_WORD	wordpools/wasnorm_wordpool_less_exclusions.txt	LTP264	ltpFR	18	4	1	LIVER	833	n/a	n/a	1	n/a	n/a	n/a	n/a	n/a
556350	REC_WORD	wordpools/wasnorm_wordpool_less_exclusions.txt	LTP264	ltpFR	18	4	0	MONSTER	912	n/a	n/a	1	n/a	n/a	n/a	n/a	n/a
595341	WORD	wordpools/wasnorm_wordpool_less_exclusions.txt	LTP264	ltpFR	18	5	-1	NEST	945	n/a	n/a	-1	1.0	1.0	1	upper	Verdana.ttf
599273	WORD	wordpools/wasnorm_wordpool_less_exclusions.txt	LTP264	ltpFR	18	5	-1	SPINE	1353	n/a	n/a	-1	1.0	1.0	1	upper	Verdana.ttf
603184	WORD	wordpools/wasnorm_wordpool_less_exclusions.txt	LTP264	ltpFR	18	5	-1	BACK	65	n/a	n/a	-1	1.0	1.0	1	upper	Verdana.ttf
607320	WORD	wordpools/wasnorm_wordpool_less_exclusions.txt	LTP264	ltpFR	18	5	-1	COAT	333	n/a	n/a	-1	1.0	1.0	1	upper	Verdana.ttf
611251	WORD	wordpools/wasnorm_wordpool_less_exclusions.txt	LTP264	ltpFR	18	5	-1	STOVE	1388	n/a	n/a	-1	1.0	1.0	1	upper	Verdana.ttf
615115	WORD	wordpools/wasnorm_wordpool_less_exclusions.txt	LTP264	ltpFR	18	5	-1	BUN	197	n/a	n/a	-1	1.0	1.0	1	upper	Verdana.ttf
619030	WORD	wordpools/wasnorm_wordpool_less_exclusions.txt	LTP264	ltpFR	18	5	-1	DRIVEWAY	500	n/a	n/a	-1	1.0	1.0	1	upper	Verdana.ttf
623112	WORD	wordpools/wasnorm_wordpool_less_exclusions.txt	LTP264	ltpFR	18	5	-1	BRAKE	166	n/a	n/a	-1	1.0	1.0	1	upper	Verdana.ttf
627177	WORD	wordpools/wasnorm_wordpool_less_exclusions.txt	LTP264	ltpFR	18	5	-1	SCARECROW	1245	n/a	n/a	-1	1.0	1.0	1	upper	Verdana.ttf
631360	WORD	wordpools/wasnorm_wordpool_less_exclusions.txt	LTP264	ltpFR	18	5	-1	ROPE	1211	n/a	n/a	-1	1.0	1.0	1	upper	Verdana.ttf
635188	WORD	wordpools/wasnorm_wordpool_less_exclusions.txt	LTP264	ltpFR	18	5	-1	MOTOR	922	n/a	n/a	-1	1.0	1.0	1	upper	Verdana.ttf
639155	WORD	wordpools/wasnorm_wordpool_less_exclusions.txt	LTP264	ltpFR	18	5	-1	ALLEY	15	n/a	n/a	-1	1.0	1.0	1	upper	Verdana.ttf
643171	WORD	wordpools/wasnorm_wordpool_less_exclusions.txt	LTP264	ltpFR	18	5	-1	CENT	270	n/a	n/a	-1	1.0	1.0	1	upper	Verdana.ttf
647049	WORD	wordpools/wasnorm_wordpool_less_exclusions.txt	LTP264	ltpFR	18	5	-1	RABBIT	1152	n/a	n/a	-1	1.0	1.0	1	upper	Verdana.ttf
651050	WORD	wordpools/wasnorm_wordpool_less_exclusions.txt	LTP264	ltpFR	18	5	-1	DASHBOARD	441	n/a	n/a	-1	1.0	1.0	1	upper	Verdana.ttf
655015	WORD	wordpools/wasnorm_wordpool_less_exclusions.txt	LTP264	ltpFR	18	5	-1	HOOD	714	n/a	n/a	-1	1.0	1.0	1	upper	Verdana.ttf
660788	REC_START	n/a	LTP264	ltpFR	18	5	n/a	n/a	n/a	n/a	n/a	n/a	n/a	n/a	n/a	n/a	n/a
662784	REC_WORD	wordpools/wasnorm_wordpool_less_exclusions.txt	LTP264	ltpFR	18	5	-1	DASHBOARD	441	n/a	n/a	-1	n/a	n/a	n/a	n/a	n/a
663378	REC_WORD	wordpools/wasnorm_wordpool_less_exclusions.txt	LTP264	ltpFR	18	5	-1	HOOD	714	n/a	n/a	-1	n/a	n/a	n/a	n/a	n/a
664742	REC_WORD	wordpools/wasnorm_wordpool_less_exclusions.txt	LTP264	ltpFR	18	5	-1	RABBIT	1152	n/a	n/a	-1	n/a	n/a	n/a	n/a	n/a
665211	REC_WORD	wordpools/wasnorm_wordpool_less_exclusions.txt	LTP264	ltpFR	18	5	-1	CENT	270	n/a	n/a	-1	n/a	n/a	n/a	n/a	n/a
666229	REC_WORD	wordpools/wasnorm_wordpool_less_exclusions.txt	LTP264	ltpFR	18	5	-1	CENT	270	n/a	n/a	-1	n/a	n/a	n/a	n/a	n/a
668107	REC_WORD	wordpools/wasnorm_wordpool_less_exclusions.txt	LTP264	ltpFR	18	5	-1	MOTOR	922	n/a	n/a	-1	n/a	n/a	n/a	n/a	n/a
668706	REC_WORD	wordpools/wasnorm_wordpool_less_exclusions.txt	LTP264	ltpFR	18	5	-1	ALLEY	15	n/a	n/a	-1	n/a	n/a	n/a	n/a	n/a
669957	REC_WORD	wordpools/wasnorm_wordpool_less_exclusions.txt	LTP264	ltpFR	18	5	-1	DRIVEWAY	500	n/a	n/a	-1	n/a	n/a	n/a	n/a	n/a
671307	REC_WORD	wordpools/wasnorm_wordpool_less_exclusions.txt	LTP264	ltpFR	18	5	-1	SCARECROW	1245	n/a	n/a	-1	n/a	n/a	n/a	n/a	n/a
672346	REC_WORD	wordpools/wasnorm_wordpool_less_exclusions.txt	LTP264	ltpFR	18	5	-1	ROPE	1211	n/a	n/a	-1	n/a	n/a	n/a	n/a	n/a
677190	REC_WORD	wordpools/wasnorm_wordpool_less_exclusions.txt	LTP264	ltpFR	18	5	-1	BRAKE	166	n/a	n/a	-1	n/a	n/a	n/a	n/a	n/a
679019	REC_WORD	wordpools/wasnorm_wordpool_less_exclusions.txt	LTP264	ltpFR	18	5	-1	STOVE	1388	n/a	n/a	-1	n/a	n/a	n/a	n/a	n/a
680543	REC_WORD	wordpools/wasnorm_wordpool_less_exclusions.txt	LTP264	ltpFR	18	5	-1	NEST	945	n/a	n/a	-1	n/a	n/a	n/a	n/a	n/a
681209	REC_WORD	wordpools/wasnorm_wordpool_less_exclusions.txt	LTP264	ltpFR	18	5	-1	SPINE	1353	n/a	n/a	-1	n/a	n/a	n/a	n/a	n/a
682241	REC_WORD	wordpools/wasnorm_wordpool_less_exclusions.txt	LTP264	ltpFR	18	5	-1	BACK	65	n/a	n/a	-1	n/a	n/a	n/a	n/a	n/a
682970	REC_WORD	wordpools/wasnorm_wordpool_less_exclusions.txt	LTP264	ltpFR	18	5	-1	COAT	333	n/a	n/a	-1	n/a	n/a	n/a	n/a	n/a
739484	WORD	wordpools/wasnorm_wordpool_less_exclusions.txt	LTP264	ltpFR	18	6	1	SCISSORS	1250	n/a	n/a	0	0.57763671875	0.412841796875	1	lower	amplitud.ttf
743582	WORD	wordpools/wasnorm_wordpool_less_exclusions.txt	LTP264	ltpFR	18	6	1	SHERIFF	1284	n/a	n/a	1	0.57763671875	0.412841796875	1	lower	amplitud.ttf
747464	WORD	wordpools/wasnorm_wordpool_less_exclusions.txt	LTP264	ltpFR	18	6	1	MANAGER	863	n/a	n/a	0	0.57763671875	0.412841796875	1	lower	amplitud.ttf
751546	WORD	wordpools/wasnorm_wordpool_less_exclusions.txt	LTP264	ltpFR	18	6	1	EMPLOYER	532	n/a	n/a	1	0.57763671875	0.412841796875	1	lower	amplitud.ttf
755695	WORD	wordpools/wasnorm_wordpool_less_exclusions.txt	LTP264	ltpFR	18	6	1	SPOOL	1356	n/a	n/a	0	0.57763671875	0.412841796875	1	lower	amplitud.ttf
759626	WORD	wordpools/wasnorm_wordpool_less_exclusions.txt	LTP264	ltpFR	18	6	1	STRING	1394	n/a	n/a	1	0.57763671875	0.412841796875	1	lower	amplitud.ttf
763491	WORD	wordpools/wasnorm_wordpool_less_exclusions.txt	LTP264	ltpFR	18	6	1	WAND	1586	n/a	n/a	0	0.57763671875	0.412841796875	1	lower	amplitud.ttf
767656	WORD	wordpools/wasnorm_wordpool_less_exclusions.txt	LTP264	ltpFR	18	6	1	CHIME	300	n/a	n/a	0	0.57763671875	0.412841796875	1	lower	amplitud.ttf
771571	WORD	wordpools/wasnorm_wordpool_less_exclusions.txt	LTP264	ltpFR	18	6	1	HARP	689	n/a	n/a	0	0.57763671875	0.412841796875	1	lower	amplitud.ttf
775553	WORD	wordpools/wasnorm_wordpool_less_exclusions.txt	LTP264	ltpFR	18	6	1	WAITER	1580	n/a	n/a	1	0.57763671875	0.412841796875	1	lower	amplitud.ttf
779702	WORD	wordpools/wasnorm_wordpool_less_exclusions.txt	LTP264	ltpFR	18	6	1	OUTLAW	989	n/a	n/a	1	0.57763671875	0.412841796875	1	lower	amplitud.ttf
783600	WORD	wordpools/wasnorm_wordpool_less_exclusions.txt	LTP264	ltpFR	18	6	1	SAXOPHONE	1240	n/a	n/a	1	0.57763671875	0.412841796875	1	lower	amplitud.ttf
787682	WORD	wordpools/wasnorm_wordpool_less_exclusions.txt	LTP264	ltpFR	18	6	1	BUTLER	204	n/a	n/a	0	0.57763671875	0.412841796875	1	lower	amplitud.ttf
791881	WORD	wordpools/wasnorm_wordpool_less_exclusions.txt	LTP264	ltpFR	18	6	1	PERISCOPE	1050	n/a	n/a	1	0.57763671875	0.412841796875	1	lower	amplitud.ttf
796047	WORD	wordpools/wasnorm_wordpool_less_exclusions.txt	LTP264	ltpFR	18	6	1	NOTE	958	n/a	n/a	1	0.57763671875	0.412841796875	1	lower	amplitud.ttf
800112	WORD	wordpools/wasnorm_wordpool_less_exclusions.txt	LTP264	ltpFR	18	6	1	WIRE	1616	n/a	n/a	1	0.57763671875	0.412841796875	1	lower	amplitud.ttf
806102	REC_START	n/a	LTP264	ltpFR	18	6	n/a	n/a	n/a	n/a	n/a	n/a	n/a	n/a	n/a	n/a	n/a
807951	REC_WORD	wordpools/wasnorm_wordpool_less_exclusions.txt	LTP264	ltpFR	18	6	1	NOTE	958	n/a	n/a	1	n/a	n/a	n/a	n/a	n/a
808931	REC_WORD	wordpools/wasnorm_wordpool_less_exclusions.txt	LTP264	ltpFR	18	6	1	WIRE	1616	n/a	n/a	1	n/a	n/a	n/a	n/a	n/a
810826	REC_WORD	wordpools/wasnorm_wordpool_less_exclusions.txt	LTP264	ltpFR	18	6	1	PERISCOPE	1050	n/a	n/a	1	n/a	n/a	n/a	n/a	n/a
812449	REC_WORD	wordpools/wasnorm_wordpool_less_exclusions.txt	LTP264	ltpFR	18	6	1	BUTLER	204	n/a	n/a	0	n/a	n/a	n/a	n/a	n/a
815022	REC_WORD	wordpools/wasnorm_wordpool_less_exclusions.txt	LTP264	ltpFR	18	6	1	SAXOPHONE	1240	n/a	n/a	1	n/a	n/a	n/a	n/a	n/a
817614	REC_WORD	wordpools/wasnorm_wordpool_less_exclusions.txt	LTP264	ltpFR	18	6	1	HARP	689	n/a	n/a	0	n/a	n/a	n/a	n/a	n/a
818292	REC_WORD	wordpools/wasnorm_wordpool_less_exclusions.txt	LTP264	ltpFR	18	6	1	CHIME	300	n/a	n/a	0	n/a	n/a	n/a	n/a	n/a
823346	REC_WORD	wordpools/wasnorm_wordpool_less_exclusions.txt	LTP264	ltpFR	18	6	1	EMPLOYER	532	n/a	n/a	1	n/a	n/a	n/a	n/a	n/a
824140	REC_WORD	wordpools/wasnorm_wordpool_less_exclusions.txt	LTP264	ltpFR	18	6	1	MANAGER	863	n/a	n/a	0	n/a	n/a	n/a	n/a	n/a
825218	REC_WORD	wordpools/wasnorm_wordpool_less_exclusions.txt	LTP264	ltpFR	18	6	1	SHERIFF	1284	n/a	n/a	1	n/a	n/a	n/a	n/a	n/a
825697	REC_WORD	wordpools/wasnorm_wordpool_less_exclusions.txt	LTP264	ltpFR	18	6	1	SCISSORS	1250	n/a	n/a	0	n/a	n/a	n/a	n/a	n/a
826297	REC_WORD	wordpools/wasnorm_wordpool_less_exclusions.txt	LTP264	ltpFR	18	6	1	SPOOL	1356	n/a	n/a	0	n/a	n/a	n/a	n/a	n/a
827037	REC_WORD	wordpools/wasnorm_wordpool_less_exclusions.txt	LTP264	ltpFR	18	6	1	STRING	1394	n/a	n/a	1	n/a	n/a	n/a	n/a	n/a
836346	REC_WORD	wordpools/wasnorm_wordpool_less_exclusions.txt	LTP264	ltpFR	18	6	n/a	THREAD	1460	n/a	n/a	n/a	n/a	n/a	n/a	n/a	n/a
873517	REC_WORD	wordpools/wasnorm_wordpool_less_exclusions.txt	LTP264	ltpFR	18	6	n/a	WIND	-1	n/a	n/a	n/a	n/a	n/a	n/a	n/a	n/a
886504	WORD	wordpools/wasnorm_wordpool_less_exclusions.txt	LTP264	ltpFR	18	7	-1	WINDSHIELD	1612	n/a	n/a	-1	1.0	1.0	1	upper	Verdana.ttf
890670	WORD	wordpools/wasnorm_wordpool_less_exclusions.txt	LTP264	ltpFR	18	7	-1	ENEMY	534	n/a	n/a	-1	1.0	1.0	1	upper	Verdana.ttf
894585	WORD	wordpools/wasnorm_wordpool_less_exclusions.txt	LTP264	ltpFR	18	7	-1	ZIPPER	1636	n/a	n/a	-1	1.0	1.0	1	upper	Verdana.ttf
898750	WORD	wordpools/wasnorm_wordpool_less_exclusions.txt	LTP264	ltpFR	18	7	-1	TERRITORY	1452	n/a	n/a	-1	1.0	1.0	1	upper	Verdana.ttf
902615	WORD	wordpools/wasnorm_wordpool_less_exclusions.txt	LTP264	ltpFR	18	7	-1	PEN	1041	n/a	n/a	-1	1.0	1.0	1	upper	Verdana.ttf
906496	WORD	wordpools/wasnorm_wordpool_less_exclusions.txt	LTP264	ltpFR	18	7	-1	THERMOMETER	1453	n/a	n/a	-1	1.0	1.0	1	upper	Verdana.ttf
910629	WORD	wordpools/wasnorm_wordpool_less_exclusions.txt	LTP264	ltpFR	18	7	-1	STORE	1387	n/a	n/a	-1	1.0	1.0	1	upper	Verdana.ttf
914677	WORD	wordpools/wasnorm_wordpool_less_exclusions.txt	LTP264	ltpFR	18	7	-1	HANGER	687	n/a	n/a	-1	1.0	1.0	1	upper	Verdana.ttf
918522	WORD	wordpools/wasnorm_wordpool_less_exclusions.txt	LTP264	ltpFR	18	7	-1	WAGON	1578	n/a	n/a	-1	1.0	1.0	1	upper	Verdana.ttf
922423	WORD	wordpools/wasnorm_wordpool_less_exclusions.txt	LTP264	ltpFR	18	7	-1	TRAIN	1494	n/a	n/a	-1	1.0	1.0	1	upper	Verdana.ttf
926455	WORD	wordpools/wasnorm_wordpool_less_exclusions.txt	LTP264	ltpFR	18	7	-1	OZONE	996	n/a	n/a	-1	1.0	1.0	1	upper	Verdana.ttf
930554	WORD	wordpools/wasnorm_wordpool_less_exclusions.txt	LTP264	ltpFR	18	7	-1	FOOTBALL	591	n/a	n/a	-1	1.0	1.0	1	upper	Verdana.ttf
934468	WORD	wordpools/wasnorm_wordpool_less_exclusions.txt	LTP264	ltpFR	18	7	-1	SHORTS	1293	n/a	n/a	-1	1.0	1.0	1	upper	Verdana.ttf
938617	WORD	wordpools/wasnorm_wordpool_less_exclusions.txt	LTP264	ltpFR	18	7	-1	SCROLL	1257	n/a	n/a	-1	1.0	1.0	1	upper	Verdana.ttf
942797	WORD	wordpools/wasnorm_wordpool_less_exclusions.txt	LTP264	ltpFR	18	7	-1	LEAF	808	n/a	n/a	-1	1.0	1.0	1	upper	Verdana.ttf
946848	WORD	wordpools/wasnorm_wordpool_less_exclusions.txt	LTP264	ltpFR	18	7	-1	FIG	563	n/a	n/a	-1	1.0	1.0	1	upper	Verdana.ttf
952872	REC_START	n/a	LTP264	ltpFR	18	7	n/a	n/a	n/a	n/a	n/a	n/a	n/a	n/a	n/a	n/a	n/a
953529	REC_WORD	wordpools/wasnorm_wordpool_less_exclusions.txt	LTP264	ltpFR	18	7	-1	FIG	563	n/a	n/a	-1	n/a	n/a	n/a	n/a	n/a
954118	REC_WORD	wordpools/wasnorm_wordpool_less_exclusions.txt	LTP264	ltpFR	18	7	-1	SCROLL	1257	n/a	n/a	-1	n/a	n/a	n/a	n/a	n/a
954984	REC_WORD	wordpools/wasnorm_wordpool_less_exclusions.txt	LTP264	ltpFR	18	7	-1	LEAF	808	n/a	n/a	-1	n/a	n/a	n/a	n/a	n/a
955440	REC_WORD	wordpools/wasnorm_wordpool_less_exclusions.txt	LTP264	ltpFR	18	7	-1	SHORTS	1293	n/a	n/a	-1	n/a	n/a	n/a	n/a	n/a
956090	REC_WORD	wordpools/wasnorm_wordpool_less_exclusions.txt	LTP264	ltpFR	18	7	-1	FOOTBALL	591	n/a	n/a	-1	n/a	n/a	n/a	n/a	n/a
956749	REC_WORD	wordpools/wasnorm_wordpool_less_exclusions.txt	LTP264	ltpFR	18	7	-1	OZONE	996	n/a	n/a	-1	n/a	n/a	n/a	n/a	n/a
957376	REC_WORD	wordpools/wasnorm_wordpool_less_exclusions.txt	LTP264	ltpFR	18	7	-1	TRAIN	1494	n/a	n/a	-1	n/a	n/a	n/a	n/a	n/a
958534	REC_WORD	wordpools/wasnorm_wordpool_less_exclusions.txt	LTP264	ltpFR	18	7	-1	STORE	1387	n/a	n/a	-1	n/a	n/a	n/a	n/a	n/a
959399	REC_WORD	wordpools/wasnorm_wordpool_less_exclusions.txt	LTP264	ltpFR	18	7	-1	WAGON	1578	n/a	n/a	-1	n/a	n/a	n/a	n/a	n/a
959932	REC_WORD	wordpools/wasnorm_wordpool_less_exclusions.txt	LTP264	ltpFR	18	7	-1	HANGER	687	n/a	n/a	-1	n/a	n/a	n/a	n/a	n/a
961422	REC_WORD	wordpools/wasnorm_wordpool_less_exclusions.txt	LTP264	ltpFR	18	7	-1	TERRITORY	1452	n/a	n/a	-1	n/a	n/a	n/a	n/a	n/a
962225	REC_WORD	wordpools/wasnorm_wordpool_less_exclusions.txt	LTP264	ltpFR	18	7	-1	ENEMY	534	n/a	n/a	-1	n/a	n/a	n/a	n/a	n/a
965157	REC_WORD	wordpools/wasnorm_wordpool_less_exclusions.txt	LTP264	ltpFR	18	7	-1	WINDSHIELD	1612	n/a	n/a	-1	n/a	n/a	n/a	n/a	n/a
965823	REC_WORD	wordpools/wasnorm_wordpool_less_exclusions.txt	LTP264	ltpFR	18	7	-1	ZIPPER	1636	n/a	n/a	-1	n/a	n/a	n/a	n/a	n/a
966938	REC_WORD	wordpools/wasnorm_wordpool_less_exclusions.txt	LTP264	ltpFR	18	7	-1	PEN	1041	n/a	n/a	-1	n/a	n/a	n/a	n/a	n/a
968056	REC_WORD	wordpools/wasnorm_wordpool_less_exclusions.txt	LTP264	ltpFR	18	7	-1	THERMOMETER	1453	n/a	n/a	-1	n/a	n/a	n/a	n/a	n/a
1031284	WORD	wordpools/wasnorm_wordpool_less_exclusions.txt	LTP264	ltpFR	18	8	0	BOWL	158	n/a	n/a	1	0.422607421875	0.5869140625	0	upper	zerothre.ttf
1035114	WORD	wordpools/wasnorm_wordpool_less_exclusions.txt	LTP264	ltpFR	18	8	0	MONKEY	911	n/a	n/a	1	0.422607421875	0.5869140625	0	upper	zerothre.ttf
1038996	WORD	wordpools/wasnorm_wordpool_less_exclusions.txt	LTP264	ltpFR	18	8	0	POLICE	1098	n/a	n/a	0	0.422607421875	0.5869140625	0	upper	zerothre.ttf
1043111	WORD	wordpools/wasnorm_wordpool_less_exclusions.txt	LTP264	ltpFR	18	8	0	CEREAL	272	n/a	n/a	1	0.422607421875	0.5869140625	0	upper	zerothre.ttf
1047295	WORD	wordpools/wasnorm_wordpool_less_exclusions.txt	LTP264	ltpFR	18	8	0	MICROWAVE	892	n/a	n/a	1	0.422607421875	0.5869140625	0	upper	zerothre.ttf
1051139	WORD	wordpools/wasnorm_wordpool_less_exclusions.txt	LTP264	ltpFR	18	8	0	GARLIC	624	n/a	n/a	1	0.422607421875	0.5869140625	0	upper	zerothre.ttf
1055140	WORD	wordpools/wasnorm_wordpool_less_exclusions.txt	LTP264	ltpFR	18	8	0	CLOVE	329	n/a	n/a	1	0.422607421875	0.5869140625	0	upper	zerothre.ttf
1059273	WORD	wordpools/wasnorm_wordpool_less_exclusions.txt	LTP264	ltpFR	18	8	0	ATTIRE	57	n/a	n/a	0	0.422607421875	0.5869140625	0	upper	zerothre.ttf
1063288	WORD	wordpools/wasnorm_wordpool_less_exclusions.txt	LTP264	ltpFR	18	8	0	GOWN	652	n/a	n/a	1	0.422607421875	0.5869140625	0	upper	zerothre.ttf
1067500	WORD	wordpools/wasnorm_wordpool_less_exclusions.txt	LTP264	ltpFR	18	8	0	HUMAN	726	n/a	n/a	1	0.422607421875	0.5869140625	0	upper	zerothre.ttf
1071435	WORD	wordpools/wasnorm_wordpool_less_exclusions.txt	LTP264	ltpFR	18	8	0	MISTER	901	n/a	n/a	1	0.422607421875	0.5869140625	0	upper	zerothre.ttf
1075317	WORD	wordpools/wasnorm_wordpool_less_exclusions.txt	LTP264	ltpFR	18	8	0	CANDY	230	n/a	n/a	0	0.422607421875	0.5869140625	0	upper	zerothre.ttf
1079299	WORD	wordpools/wasnorm_wordpool_less_exclusions.txt	LTP264	ltpFR	18	8	0	ATMOSPHERE	54	n/a	n/a	1	0.422607421875	0.5869140625	0	upper	zerothre.ttf
1083494	WORD	wordpools/wasnorm_wordpool_less_exclusions.txt	LTP264	ltpFR	18	8	0	RIVER	1194	n/a	n/a	1	0.422607421875	0.5869140625	0	upper	zerothre.ttf
1087428	WORD	wordpools/wasnorm_wordpool_less_exclusions.txt	LTP264	ltpFR	18	8	0	APE	31	n/a	n/a	1	0.422607421875	0.5869140625	0	upper	zerothre.ttf
1091544	WORD	wordpools/wasnorm_wordpool_less_exclusions.txt	LTP264	ltpFR	18	8	0	DINNER	468	n/a	n/a	0	0.422607421875	0.5869140625	0	upper	zerothre.ttf
1097568	REC_START	n/a	LTP264	ltpFR	18	8	n/a	n/a	n/a	n/a	n/a	n/a	n/a	n/a	n/a	n/a	n/a
1099187	REC_WORD	wordpools/wasnorm_wordpool_less_exclusions.txt	LTP264	ltpFR	18	8	0	APE	31	n/a	n/a	1	n/a	n/a	n/a	n/a	n/a
1100108	REC_WORD	wordpools/wasnorm_wordpool_less_exclusions.txt	LTP264	ltpFR	18	8	0	DINNER	468	n/a	n/a	0	n/a	n/a	n/a	n/a	n/a
1101853	REC_WORD	wordpools/wasnorm_wordpool_less_exclusions.txt	LTP264	ltpFR	18	8	0	MISTER	901	n/a	n/a	1	n/a	n/a	n/a	n/a	n/a
1102627	REC_WORD	wordpools/wasnorm_wordpool_less_exclusions.txt	LTP264	ltpFR	18	8	0	CANDY	230	n/a	n/a	0	n/a	n/a	n/a	n/a	n/a
1103252	REC_WORD	wordpools/wasnorm_wordpool_less_exclusions.txt	LTP264	ltpFR	18	8	0	HUMAN	726	n/a	n/a	1	n/a	n/a	n/a	n/a	n/a
1104931	REC_WORD_VV	wordpools/wasnorm_wordpool_less_exclusions.txt	LTP264	ltpFR	18	8	n/a	<>	-1	n/a	n/a	n/a	n/a	n/a	n/a	n/a	n/a
1105998	REC_WORD	wordpools/wasnorm_wordpool_less_exclusions.txt	LTP264	ltpFR	18	8	0	RIVER	1194	n/a	n/a	1	n/a	n/a	n/a	n/a	n/a
1109732	REC_WORD	wordpools/wasnorm_wordpool_less_exclusions.txt	LTP264	ltpFR	18	8	0	GOWN	652	n/a	n/a	1	n/a	n/a	n/a	n/a	n/a
1111278	REC_WORD	wordpools/wasnorm_wordpool_less_exclusions.txt	LTP264	ltpFR	18	8	0	POLICE	1098	n/a	n/a	0	n/a	n/a	n/a	n/a	n/a
1113252	REC_WORD	wordpools/wasnorm_wordpool_less_exclusions.txt	LTP264	ltpFR	18	8	0	GARLIC	624	n/a	n/a	1	n/a	n/a	n/a	n/a	n/a
1114014	REC_WORD	wordpools/wasnorm_wordpool_less_exclusions.txt	LTP264	ltpFR	18	8	0	MICROWAVE	892	n/a	n/a	1	n/a	n/a	n/a	n/a	n/a
1115974	REC_WORD	wordpools/wasnorm_wordpool_less_exclusions.txt	LTP264	ltpFR	18	8	0	CLOVE	329	n/a	n/a	1	n/a	n/a	n/a	n/a	n/a
1117887	REC_WORD	wordpools/wasnorm_wordpool_less_exclusions.txt	LTP264	ltpFR	18	8	0	MONKEY	911	n/a	n/a	1	n/a	n/a	n/a	n/a	n/a
1118589	REC_WORD	wordpools/wasnorm_wordpool_less_exclusions.txt	LTP264	ltpFR	18	8	0	BOWL	158	n/a	n/a	1	n/a	n/a	n/a	n/a	n/a
1118922	REC_WORD	wordpools/wasnorm_wordpool_less_exclusions.txt	LTP264	ltpFR	18	8	0	CEREAL	272	n/a	n/a	1	n/a	n/a	n/a	n/a	n/a
1122318	REC_WORD	wordpools/wasnorm_wordpool_less_exclusions.txt	LTP264	ltpFR	18	8	0	POLICE	1098	n/a	n/a	0	n/a	n/a	n/a	n/a	n/a
1123811	REC_WORD	wordpools/wasnorm_wordpool_less_exclusions.txt	LTP264	ltpFR	18	8	0	ATTIRE	57	n/a	n/a	0	n/a	n/a	n/a	n/a	n/a
1137568	REC_WORD	wordpools/wasnorm_wordpool_less_exclusions.txt	LTP264	ltpFR	18	8	0	ATMOSPHERE	54	n/a	n/a	1	n/a	n/a	n/a	n/a	n/a
1177234	WORD	wordpools/wasnorm_wordpool_less_exclusions.txt	LTP264	ltpFR	18	9	0	DORM	488	n/a	n/a	1	0.422607421875	0.5869140625	0	upper	zerothre.ttf
1181363	WORD	wordpools/wasnorm_wordpool_less_exclusions.txt	LTP264	ltpFR	18	9	0	BANQUET	86	n/a	n/a	1	0.422607421875	0.5869140625	0	upper	zerothre.ttf
1185265	WORD	wordpools/wasnorm_wordpool_less_exclusions.txt	LTP264	ltpFR	18	9	0	CONE	363	n/a	n/a	0	0.422607421875	0.5869140625	0	upper	zerothre.ttf
1189413	WORD	wordpools/wasnorm_wordpool_less_exclusions.txt	LTP264	ltpFR	18	9	0	SHACK	1273	n/a	n/a	1	0.422607421875	0.5869140625	0	upper	zerothre.ttf
1193578	WORD	wordpools/wasnorm_wordpool_less_exclusions.txt	LTP264	ltpFR	18	9	0	CEILING	265	n/a	n/a	0	0.422607421875	0.5869140625	0	upper	zerothre.ttf
1197443	WORD	wordpools/wasnorm_wordpool_less_exclusions.txt	LTP264	ltpFR	18	9	0	WAX	1597	n/a	n/a	1	0.422607421875	0.5869140625	0	upper	zerothre.ttf
1201323	WORD	wordpools/wasnorm_wordpool_less_exclusions.txt	LTP264	ltpFR	18	9	0	COOKBOOK	373	n/a	n/a	0	0.422607421875	0.5869140625	0	upper	zerothre.ttf
1205257	WORD	wordpools/wasnorm_wordpool_less_exclusions.txt	LTP264	ltpFR	18	9	0	RIB	1188	n/a	n/a	1	0.422607421875	0.5869140625	0	upper	zerothre.ttf
1209222	WORD	wordpools/wasnorm_wordpool_less_exclusions.txt	LTP264	ltpFR	18	9	0	PIKE	1067	n/a	n/a	1	0.422607421875	0.5869140625	0	upper	zerothre.ttf
1213370	WORD	wordpools/wasnorm_wordpool_less_exclusions.txt	LTP264	ltpFR	18	9	0	SUPPER	1411	n/a	n/a	1	0.422607421875	0.5869140625	0	upper	zerothre.ttf
1217252	WORD	wordpools/wasnorm_wordpool_less_exclusions.txt	LTP264	ltpFR	18	9	0	ABDOMEN	1	n/a	n/a	0	0.422607421875	0.5869140625	0	upper	zerothre.ttf
1221149	WORD	wordpools/wasnorm_wordpool_less_exclusions.txt	LTP264	ltpFR	18	9	0	FISH	571	n/a	n/a	0	0.422607421875	0.5869140625	0	upper	zerothre.ttf
1225249	WORD	wordpools/wasnorm_wordpool_less_exclusions.txt	LTP264	ltpFR	18	9	0	NET	946	n/a	n/a	1	0.422607421875	0.5869140625	0	upper	zerothre.ttf
1229109	WORD	wordpools/wasnorm_wordpool_less_exclusions.txt	LTP264	ltpFR	18	9	0	MARROW	872	n/a	n/a	0	0.422607421875	0.5869140625	0	upper	zerothre.ttf
1233192	WORD	wordpools/wasnorm_wordpool_less_exclusions.txt	LTP264	ltpFR	18	9	0	ASTEROID	50	n/a	n/a	1	0.422607421875	0.5869140625	0	upper	zerothre.ttf
1237261	WORD	wordpools/wasnorm_wordpool_less_exclusions.txt	LTP264	ltpFR	18	9	0	FLASHLIGHT	575	n/a	n/a	0	0.422607421875	0.5869140625	0	upper	zerothre.ttf
1243234	REC_START	n/a	LTP264	ltpFR	18	9	n/a	n/a	n/a	n/a	n/a	n/a	n/a	n/a	n/a	n/a	n/a
1244844	REC_WORD	wordpools/wasnorm_wordpool_less_exclusions.txt	LTP264	ltpFR	18	9	0	ASTEROID	50	n/a	n/a	1	n/a	n/a	n/a	n/a	n/a
1245617	REC_WORD	wordpools/wasnorm_wordpool_less_exclusions.txt	LTP264	ltpFR	18	9	0	MARROW	872	n/a	n/a	0	n/a	n/a	n/a	n/a	n/a
1246071	REC_WORD	wordpools/wasnorm_wordpool_less_exclusions.txt	LTP264	ltpFR	18	9	0	FLASHLIGHT	575	n/a	n/a	0	n/a	n/a	n/a	n/a	n/a
1246969	REC_WORD	wordpools/wasnorm_wordpool_less_exclusions.txt	LTP264	ltpFR	18	9	0	FISH	571	n/a	n/a	0	n/a	n/a	n/a	n/a	n/a
1248536	REC_WORD	wordpools/wasnorm_wordpool_less_exclusions.txt	LTP264	ltpFR	18	9	0	PIKE	1067	n/a	n/a	1	n/a	n/a	n/a	n/a	n/a
1249114	REC_WORD	wordpools/wasnorm_wordpool_less_exclusions.txt	LTP264	ltpFR	18	9	0	RIB	1188	n/a	n/a	1	n/a	n/a	n/a	n/a	n/a
1249749	REC_WORD	wordpools/wasnorm_wordpool_less_exclusions.txt	LTP264	ltpFR	18	9	0	COOKBOOK	373	n/a	n/a	0	n/a	n/a	n/a	n/a	n/a
1251417	REC_WORD	wordpools/wasnorm_wordpool_less_exclusions.txt	LTP264	ltpFR	18	9	0	BANQUET	86	n/a	n/a	1	n/a	n/a	n/a	n/a	n/a
1252144	REC_WORD	wordpools/wasnorm_wordpool_less_exclusions.txt	LTP264	ltpFR	18	9	0	CONE	363	n/a	n/a	0	n/a	n/a	n/a	n/a	n/a
1252592	REC_WORD	wordpools/wasnorm_wordpool_less_exclusions.txt	LTP264	ltpFR	18	9	0	CEILING	265	n/a	n/a	0	n/a	n/a	n/a	n/a	n/a
1253406	REC_WORD	wordpools/wasnorm_wordpool_less_exclusions.txt	LTP264	ltpFR	18	9	0	WAX	1597	n/a	n/a	1	n/a	n/a	n/a	n/a	n/a
1254257	REC_WORD	wordpools/wasnorm_wordpool_less_exclusions.txt	LTP264	ltpFR	18	9	0	DORM	488	n/a	n/a	1	n/a	n/a	n/a	n/a	n/a
1296061	REC_WORD	wordpools/wasnorm_wordpool_less_exclusions.txt	LTP264	ltpFR	18	9	0	BANQUET	86	n/a	n/a	1	n/a	n/a	n/a	n/a	n/a
1313126	REC_WORD	wordpools/wasnorm_wordpool_less_exclusions.txt	LTP264	ltpFR	18	9	0	FLASHLIGHT	575	n/a	n/a	0	n/a	n/a	n/a	n/a	n/a
1321544	WORD	wordpools/wasnorm_wordpool_less_exclusions.txt	LTP264	ltpFR	18	10	1	WOMAN	1620	n/a	n/a	0	0.57763671875	0.412841796875	1	lower	amplitud.ttf
1325392	WORD	wordpools/wasnorm_wordpool_less_exclusions.txt	LTP264	ltpFR	18	10	1	SCOUT	1252	n/a	n/a	1	0.57763671875	0.412841796875	1	lower	amplitud.ttf
1329407	WORD	wordpools/wasnorm_wordpool_less_exclusions.txt	LTP264	ltpFR	18	10	1	CUBE	420	n/a	n/a	0	0.57763671875	0.412841796875	1	lower	amplitud.ttf
1333522	WORD	wordpools/wasnorm_wordpool_less_exclusions.txt	LTP264	ltpFR	18	10	1	PORPOISE	1109	n/a	n/a	1	0.57763671875	0.412841796875	1	lower	amplitud.ttf
1337354	WORD	wordpools/wasnorm_wordpool_less_exclusions.txt	LTP264	ltpFR	18	10	1	XEROX	1628	n/a	n/a	0	0.57763671875	0.412841796875	1	lower	amplitud.ttf
1341369	WORD	wordpools/wasnorm_wordpool_less_exclusions.txt	LTP264	ltpFR	18	10	1	WORM	1623	n/a	n/a	1	0.57763671875	0.412841796875	1	lower	amplitud.ttf
1345417	WORD	wordpools/wasnorm_wordpool_less_exclusions.txt	LTP264	ltpFR	18	10	1	SWING	1421	n/a	n/a	1	0.57763671875	0.412841796875	1	lower	amplitud.ttf
1349600	WORD	wordpools/wasnorm_wordpool_less_exclusions.txt	LTP264	ltpFR	18	10	1	FEMALE	559	n/a	n/a	1	0.57763671875	0.412841796875	1	lower	amplitud.ttf
1353665	WORD	wordpools/wasnorm_wordpool_less_exclusions.txt	LTP264	ltpFR	18	10	1	SUPERVISOR	1410	n/a	n/a	0	0.57763671875	0.412841796875	1	lower	amplitud.ttf
1357864	WORD	wordpools/wasnorm_wordpool_less_exclusions.txt	LTP264	ltpFR	18	10	1	ASSISTANT	48	n/a	n/a	1	0.57763671875	0.412841796875	1	lower	amplitud.ttf
1361796	WORD	wordpools/wasnorm_wordpool_less_exclusions.txt	LTP264	ltpFR	18	10	1	PILLOW	1069	n/a	n/a	0	0.57763671875	0.412841796875	1	lower	amplitud.ttf
1365878	WORD	wordpools/wasnorm_wordpool_less_exclusions.txt	LTP264	ltpFR	18	10	1	SATURN	1236	n/a	n/a	1	0.57763671875	0.412841796875	1	lower	amplitud.ttf
1369926	WORD	wordpools/wasnorm_wordpool_less_exclusions.txt	LTP264	ltpFR	18	10	1	VENUS	1557	n/a	n/a	0	0.57763671875	0.412841796875	1	lower	amplitud.ttf
1373925	WORD	wordpools/wasnorm_wordpool_less_exclusions.txt	LTP264	ltpFR	18	10	1	CAULIFLOWER	262	n/a	n/a	0	0.57763671875	0.412841796875	1	lower	amplitud.ttf
1378023	WORD	wordpools/wasnorm_wordpool_less_exclusions.txt	LTP264	ltpFR	18	10	1	COPIER	377	n/a	n/a	1	0.57763671875	0.412841796875	1	lower	amplitud.ttf
1382105	WORD	wordpools/wasnorm_wordpool_less_exclusions.txt	LTP264	ltpFR	18	10	1	LIZARD	834	n/a	n/a	0	0.57763671875	0.412841796875	1	lower	amplitud.ttf
1388045	REC_START	n/a	LTP264	ltpFR	18	10	n/a	n/a	n/a	n/a	n/a	n/a	n/a	n/a	n/a	n/a	n/a
1388875	REC_WORD	wordpools/wasnorm_wordpool_less_exclusions.txt	LTP264	ltpFR	18	10	1	LIZARD	834	n/a	n/a	0	n/a	n/a	n/a	n/a	n/a
1389512	REC_WORD_VV	wordpools/wasnorm_wordpool_less_exclusions.txt	LTP264	ltpFR	18	10	n/a	<>	-1	n/a	n/a	n/a	n/a	n/a	n/a	n/a	n/a
1389993	REC_WORD	wordpools/wasnorm_wordpool_less_exclusions.txt	LTP264	ltpFR	18	10	1	PORPOISE	1109	n/a	n/a	1	n/a	n/a	n/a	n/a	n/a
1390787	REC_WORD	wordpools/wasnorm_wordpool_less_exclusions.txt	LTP264	ltpFR	18	10	1	WORM	1623	n/a	n/a	1	n/a	n/a	n/a	n/a	n/a
1391307	REC_WORD	wordpools/wasnorm_wordpool_less_exclusions.txt	LTP264	ltpFR	18	10	1	XEROX	1628	n/a	n/a	0	n/a	n/a	n/a	n/a	n/a
1392009	REC_WORD	wordpools/wasnorm_wordpool_less_exclusions.txt	LTP264	ltpFR	18	10	1	COPIER	377	n/a	n/a	1	n/a	n/a	n/a	n/a	n/a
1393472	REC_WORD_VV	wordpools/wasnorm_wordpool_less_exclusions.txt	LTP264	ltpFR	18	10	n/a	<>	-1	n/a	n/a	n/a	n/a	n/a	n/a	n/a	n/a
1393940	REC_WORD	wordpools/wasnorm_wordpool_less_exclusions.txt	LTP264	ltpFR	18	10	1	ASSISTANT	48	n/a	n/a	1	n/a	n/a	n/a	n/a	n/a
1394797	REC_WORD	wordpools/wasnorm_wordpool_less_exclusions.txt	LTP264	ltpFR	18	10	1	SUPERVISOR	1410	n/a	n/a	0	n/a	n/a	n/a	n/a	n/a
1397275	REC_WORD	wordpools/wasnorm_wordpool_less_exclusions.txt	LTP264	ltpFR	18	10	1	WOMAN	1620	n/a	n/a	0	n/a	n/a	n/a	n/a	n/a
1397795	REC_WORD	wordpools/wasnorm_wordpool_less_exclusions.txt	LTP264	ltpFR	18	10	1	FEMALE	559	n/a	n/a	1	n/a	n/a	n/a	n/a	n/a
1401431	REC_WORD	wordpools/wasnorm_wordpool_less_exclusions.txt	LTP264	ltpFR	18	10	1	SATURN	1236	n/a	n/a	1	n/a	n/a	n/a	n/a	n/a
1402147	REC_WORD	wordpools/wasnorm_wordpool_less_exclusions.txt	LTP264	ltpFR	18	10	n/a	JUPITER	765	n/a	n/a	n/a	n/a	n/a	n/a	n/a	n/a
1416654	REC_WORD	wordpools/wasnorm_wordpool_less_exclusions.txt	LTP264	ltpFR	18	10	1	CUBE	420	n/a	n/a	0	n/a	n/a	n/a	n/a	n/a
1466674	WORD	wordpools/wasnorm_wordpool_less_exclusions.txt	LTP264	ltpFR	18	11	-1	AIRPLANE	12	n/a	n/a	-1	1.0	1.0	1	upper	Verdana.ttf
1470689	WORD	wordpools/wasnorm_wordpool_less_exclusions.txt	LTP264	ltpFR	18	11	-1	FLY	586	n/a	n/a	-1	1.0	1.0	1	upper	Verdana.ttf
1474852	WORD	wordpools/wasnorm_wordpool_less_exclusions.txt	LTP264	ltpFR	18	11	-1	ALMANAC	17	n/a	n/a	-1	1.0	1.0	1	upper	Verdana.ttf
1479037	WORD	wordpools/wasnorm_wordpool_less_exclusions.txt	LTP264	ltpFR	18	11	-1	GREASE	660	n/a	n/a	-1	1.0	1.0	1	upper	Verdana.ttf
1483254	WORD	wordpools/wasnorm_wordpool_less_exclusions.txt	LTP264	ltpFR	18	11	-1	CLAMP	316	n/a	n/a	-1	1.0	1.0	1	upper	Verdana.ttf
1487419	WORD	wordpools/wasnorm_wordpool_less_exclusions.txt	LTP264	ltpFR	18	11	-1	RESTAURANT	1187	n/a	n/a	-1	1.0	1.0	1	upper	Verdana.ttf
1491635	WORD	wordpools/wasnorm_wordpool_less_exclusions.txt	LTP264	ltpFR	18	11	-1	PUMP	1141	n/a	n/a	-1	1.0	1.0	1	upper	Verdana.ttf
1495633	WORD	wordpools/wasnorm_wordpool_less_exclusions.txt	LTP264	ltpFR	18	11	-1	SURF	1412	n/a	n/a	-1	1.0	1.0	1	upper	Verdana.ttf
1499849	WORD	wordpools/wasnorm_wordpool_less_exclusions.txt	LTP264	ltpFR	18	11	-1	MOAT	903	n/a	n/a	-1	1.0	1.0	1	upper	Verdana.ttf
1504032	WORD	wordpools/wasnorm_wordpool_less_exclusions.txt	LTP264	ltpFR	18	11	-1	EUROPE	541	n/a	n/a	-1	1.0	1.0	1	upper	Verdana.ttf
1507913	WORD	wordpools/wasnorm_wordpool_less_exclusions.txt	LTP264	ltpFR	18	11	-1	BULLY	196	n/a	n/a	-1	1.0	1.0	1	upper	Verdana.ttf
1511744	WORD	wordpools/wasnorm_wordpool_less_exclusions.txt	LTP264	ltpFR	18	11	-1	BRIDGE	174	n/a	n/a	-1	1.0	1.0	1	upper	Verdana.ttf
1515826	WORD	wordpools/wasnorm_wordpool_less_exclusions.txt	LTP264	ltpFR	18	11	-1	PLANET	1082	n/a	n/a	-1	1.0	1.0	1	upper	Verdana.ttf
1519688	WORD	wordpools/wasnorm_wordpool_less_exclusions.txt	LTP264	ltpFR	18	11	-1	NOVEL	960	n/a	n/a	-1	1.0	1.0	1	upper	Verdana.ttf
1523686	WORD	wordpools/wasnorm_wordpool_less_exclusions.txt	LTP264	ltpFR	18	11	-1	APRON	35	n/a	n/a	-1	1.0	1.0	1	upper	Verdana.ttf
1527520	WORD	wordpools/wasnorm_wordpool_less_exclusions.txt	LTP264	ltpFR	18	11	-1	STONE	1385	n/a	n/a	-1	1.0	1.0	1	upper	Verdana.ttf
1533227	REC_START	n/a	LTP264	ltpFR	18	11	n/a	n/a	n/a	n/a	n/a	n/a	n/a	n/a	n/a	n/a	n/a
1535272	REC_WORD	wordpools/wasnorm_wordpool_less_exclusions.txt	LTP264	ltpFR	18	11	-1	PLANET	1082	n/a	n/a	-1	n/a	n/a	n/a	n/a	n/a
1536326	REC_WORD	wordpools/wasnorm_wordpool_less_exclusions.txt	LTP264	ltpFR	18	11	-1	APRON	35	n/a	n/a	-1	n/a	n/a	n/a	n/a	n/a
1536760	REC_WORD	wordpools/wasnorm_wordpool_less_exclusions.txt	LTP264	ltpFR	18	11	-1	STONE	1385	n/a	n/a	-1	n/a	n/a	n/a	n/a	n/a
1538884	REC_WORD	wordpools/wasnorm_wordpool_less_exclusions.txt	LTP264	ltpFR	18	11	-1	ALMANAC	17	n/a	n/a	-1	n/a	n/a	n/a	n/a	n/a
1539548	REC_WORD	wordpools/wasnorm_wordpool_less_exclusions.txt	LTP264	ltpFR	18	11	-1	CLAMP	316	n/a	n/a	-1	n/a	n/a	n/a	n/a	n/a
1540278	REC_WORD	wordpools/wasnorm_wordpool_less_exclusions.txt	LTP264	ltpFR	18	11	-1	GREASE	660	n/a	n/a	-1	n/a	n/a	n/a	n/a	n/a
1540925	REC_WORD	wordpools/wasnorm_wordpool_less_exclusions.txt	LTP264	ltpFR	18	11	-1	RESTAURANT	1187	n/a	n/a	-1	n/a	n/a	n/a	n/a	n/a
1541552	REC_WORD	wordpools/wasnorm_wordpool_less_exclusions.txt	LTP264	ltpFR	18	11	-1	MOAT	903	n/a	n/a	-1	n/a	n/a	n/a	n/a	n/a
1542158	REC_WORD	wordpools/wasnorm_wordpool_less_exclusions.txt	LTP264	ltpFR	18	11	-1	PUMP	1141	n/a	n/a	-1	n/a	n/a	n/a	n/a	n/a
1542735	REC_WORD	wordpools/wasnorm_wordpool_less_exclusions.txt	LTP264	ltpFR	18	11	-1	BULLY	196	n/a	n/a	-1	n/a	n/a	n/a	n/a	n/a
1543246	REC_WORD	wordpools/wasnorm_wordpool_less_exclusions.txt	LTP264	ltpFR	18	11	-1	BRIDGE	174	n/a	n/a	-1	n/a	n/a	n/a	n/a	n/a
1543761	REC_WORD	wordpools/wasnorm_wordpool_less_exclusions.txt	LTP264	ltpFR	18	11	-1	EUROPE	541	n/a	n/a	-1	n/a	n/a	n/a	n/a	n/a
1546676	REC_WORD	wordpools/wasnorm_wordpool_less_exclusions.txt	LTP264	ltpFR	18	11	-1	AIRPLANE	12	n/a	n/a	-1	n/a	n/a	n/a	n/a	n/a
1547251	REC_WORD	wordpools/wasnorm_wordpool_less_exclusions.txt	LTP264	ltpFR	18	11	-1	FLY	586	n/a	n/a	-1	n/a	n/a	n/a	n/a	n/a
1550856	REC_WORD	wordpools/wasnorm_wordpool_less_exclusions.txt	LTP264	ltpFR	18	11	-1	SURF	1412	n/a	n/a	-1	n/a	n/a	n/a	n/a	n/a
1580662	REC_WORD	wordpools/wasnorm_wordpool_less_exclusions.txt	LTP264	ltpFR	18	11	-1	NOVEL	960	n/a	n/a	-1	n/a	n/a	n/a	n/a	n/a
1583333	REC_WORD	wordpools/wasnorm_wordpool_less_exclusions.txt	LTP264	ltpFR	18	11	-1	PLANET	1082	n/a	n/a	-1	n/a	n/a	n/a	n/a	n/a
1603887	REC_WORD	wordpools/wasnorm_wordpool_less_exclusions.txt	LTP264	ltpFR	18	11	-1	APRON	35	n/a	n/a	-1	n/a	n/a	n/a	n/a	n/a
1604534	REC_WORD	wordpools/wasnorm_wordpool_less_exclusions.txt	LTP264	ltpFR	18	11	-1	STONE	1385	n/a	n/a	-1	n/a	n/a	n/a	n/a	n/a
1611436	WORD	wordpools/wasnorm_wordpool_less_exclusions.txt	LTP264	ltpFR	18	12	-1	AIRCRAFT	11	n/a	n/a	-1	1.0	1.0	1	upper	Verdana.ttf
1615335	WORD	wordpools/wasnorm_wordpool_less_exclusions.txt	LTP264	ltpFR	18	12	-1	BLACKBERRY	132	n/a	n/a	-1	1.0	1.0	1	upper	Verdana.ttf
1619250	WORD	wordpools/wasnorm_wordpool_less_exclusions.txt	LTP264	ltpFR	18	12	-1	MOON	914	n/a	n/a	-1	1.0	1.0	1	upper	Verdana.ttf
1623147	WORD	wordpools/wasnorm_wordpool_less_exclusions.txt	LTP264	ltpFR	18	12	-1	ESCALATOR	539	n/a	n/a	-1	1.0	1.0	1	upper	Verdana.ttf
1627193	WORD	wordpools/wasnorm_wordpool_less_exclusions.txt	LTP264	ltpFR	18	12	-1	TOMATO	1476	n/a	n/a	-1	1.0	1.0	1	upper	Verdana.ttf
1631363	WORD	wordpools/wasnorm_wordpool_less_exclusions.txt	LTP264	ltpFR	18	12	-1	HAMBURGER	679	n/a	n/a	-1	1.0	1.0	1	upper	Verdana.ttf
1635311	WORD	wordpools/wasnorm_wordpool_less_exclusions.txt	LTP264	ltpFR	18	12	-1	STEP	1377	n/a	n/a	-1	1.0	1.0	1	upper	Verdana.ttf
1639509	WORD	wordpools/wasnorm_wordpool_less_exclusions.txt	LTP264	ltpFR	18	12	-1	CHERRY	293	n/a	n/a	-1	1.0	1.0	1	upper	Verdana.ttf
1643608	WORD	wordpools/wasnorm_wordpool_less_exclusions.txt	LTP264	ltpFR	18	12	-1	RUST	1219	n/a	n/a	-1	1.0	1.0	1	upper	Verdana.ttf
1647472	WORD	wordpools/wasnorm_wordpool_less_exclusions.txt	LTP264	ltpFR	18	12	-1	ELM	527	n/a	n/a	-1	1.0	1.0	1	upper	Verdana.ttf
1651471	WORD	wordpools/wasnorm_wordpool_less_exclusions.txt	LTP264	ltpFR	18	12	-1	TWIG	1527	n/a	n/a	-1	1.0	1.0	1	upper	Verdana.ttf
1655503	WORD	wordpools/wasnorm_wordpool_less_exclusions.txt	LTP264	ltpFR	18	12	-1	TORNADO	1485	n/a	n/a	-1	1.0	1.0	1	upper	Verdana.ttf
1659332	WORD	wordpools/wasnorm_wordpool_less_exclusions.txt	LTP264	ltpFR	18	12	-1	KITE	779	n/a	n/a	-1	1.0	1.0	1	upper	Verdana.ttf
1663449	WORD	wordpools/wasnorm_wordpool_less_exclusions.txt	LTP264	ltpFR	18	12	-1	MISSILE	900	n/a	n/a	-1	1.0	1.0	1	upper	Verdana.ttf
1667665	WORD	wordpools/wasnorm_wordpool_less_exclusions.txt	LTP264	ltpFR	18	12	-1	OFFICER	973	n/a	n/a	-1	1.0	1.0	1	upper	Verdana.ttf
1671577	WORD	wordpools/wasnorm_wordpool_less_exclusions.txt	LTP264	ltpFR	18	12	-1	SKILLET	1317	n/a	n/a	-1	1.0	1.0	1	upper	Verdana.ttf
1677587	REC_START	n/a	LTP264	ltpFR	18	12	n/a	n/a	n/a	n/a	n/a	n/a	n/a	n/a	n/a	n/a	n/a
1678678	REC_WORD	wordpools/wasnorm_wordpool_less_exclusions.txt	LTP264	ltpFR	18	12	-1	OFFICER	973	n/a	n/a	-1	n/a	n/a	n/a	n/a	n/a
1679131	REC_WORD	wordpools/wasnorm_wordpool_less_exclusions.txt	LTP264	ltpFR	18	12	-1	SKILLET	1317	n/a	n/a	-1	n/a	n/a	n/a	n/a	n/a
1681704	REC_WORD	wordpools/wasnorm_wordpool_less_exclusions.txt	LTP264	ltpFR	18	12	-1	ELM	527	n/a	n/a	-1	n/a	n/a	n/a	n/a	n/a
1682027	REC_WORD	wordpools/wasnorm_wordpool_less_exclusions.txt	LTP264	ltpFR	18	12	-1	TWIG	1527	n/a	n/a	-1	n/a	n/a	n/a	n/a	n/a
1685219	REC_WORD	wordpools/wasnorm_wordpool_less_exclusions.txt	LTP264	ltpFR	18	12	0	TWISTER	1530	n/a	n/a	1	n/a	n/a	n/a	n/a	n/a
1685774	REC_WORD	wordpools/wasnorm_wordpool_less_exclusions.txt	LTP264	ltpFR	18	12	-1	KITE	779	n/a	n/a	-1	n/a	n/a	n/a	n/a	n/a
1693382	REC_WORD	wordpools/wasnorm_wordpool_less_exclusions.txt	LTP264	ltpFR	18	12	-1	AIRCRAFT	11	n/a	n/a	-1	n/a	n/a	n/a	n/a	n/a
1694143	REC_WORD	wordpools/wasnorm_wordpool_less_exclusions.txt	LTP264	ltpFR	18	12	-1	BLACKBERRY	132	n/a	n/a	-1	n/a	n/a	n/a	n/a	n/a
1696208	REC_WORD	wordpools/wasnorm_wordpool_less_exclusions.txt	LTP264	ltpFR	18	12	-1	STEP	1377	n/a	n/a	-1	n/a	n/a	n/a	n/a	n/a
1696798	REC_WORD	wordpools/wasnorm_wordpool_less_exclusions.txt	LTP264	ltpFR	18	12	-1	CHERRY	293	n/a	n/a	-1	n/a	n/a	n/a	n/a	n/a
1697295	REC_WORD	wordpools/wasnorm_wordpool_less_exclusions.txt	LTP264	ltpFR	18	12	-1	RUST	1219	n/a	n/a	-1	n/a	n/a	n/a	n/a	n/a
1699827	REC_WORD	wordpools/wasnorm_wordpool_less_exclusions.txt	LTP264	ltpFR	18	12	n/a	BURGER	-1	n/a	n/a	n/a	n/a	n/a	n/a	n/a	n/a
1700720	REC_WORD	wordpools/wasnorm_wordpool_less_exclusions.txt	LTP264	ltpFR	18	12	-1	HAMBURGER	679	n/a	n/a	-1	n/a	n/a	n/a	n/a	n/a
1702182	REC_WORD	wordpools/wasnorm_wordpool_less_exclusions.txt	LTP264	ltpFR	18	12	-1	TOMATO	1476	n/a	n/a	-1	n/a	n/a	n/a	n/a	n/a
1706525	REC_WORD	wordpools/wasnorm_wordpool_less_exclusions.txt	LTP264	ltpFR	18	12	-1	MOON	914	n/a	n/a	-1	n/a	n/a	n/a	n/a	n/a
1707249	REC_WORD	wordpools/wasnorm_wordpool_less_exclusions.txt	LTP264	ltpFR	18	12	-1	ESCALATOR	539	n/a	n/a	-1	n/a	n/a	n/a	n/a	n/a
1753236	REST_REWET	n/a	LTP264	ltpFR	18	12	n/a	n/a	n/a	n/a	n/a	n/a	n/a	n/a	n/a	n/a	n/a
2074983	WORD	wordpools/wasnorm_wordpool_less_exclusions.txt	LTP264	ltpFR	18	13	0	STRAW	1390	n/a	n/a	0	0.422607421875	0.5869140625	0	upper	zerothre.ttf
2078831	WORD	wordpools/wasnorm_wordpool_less_exclusions.txt	LTP264	ltpFR	18	13	0	FUDGE	611	n/a	n/a	1	0.422607421875	0.5869140625	0	upper	zerothre.ttf
2082846	WORD	wordpools/wasnorm_wordpool_less_exclusions.txt	LTP264	ltpFR	18	13	0	LID	817	n/a	n/a	0	0.422607421875	0.5869140625	0	upper	zerothre.ttf
2086895	WORD	wordpools/wasnorm_wordpool_less_exclusions.txt	LTP264	ltpFR	18	13	0	JAR	750	n/a	n/a	1	0.422607421875	0.5869140625	0	upper	zerothre.ttf
2090810	WORD	wordpools/wasnorm_wordpool_less_exclusions.txt	LTP264	ltpFR	18	13	1	FROST	609	n/a	n/a	0	0.57763671875	0.412841796875	1	lower	amplitud.ttf
2094691	WORD	wordpools/wasnorm_wordpool_less_exclusions.txt	LTP264	ltpFR	18	13	1	CALF	222	n/a	n/a	1	0.57763671875	0.412841796875	1	lower	amplitud.ttf
2098857	WORD	wordpools/wasnorm_wordpool_less_exclusions.txt	LTP264	ltpFR	18	13	1	BRANDY	169	n/a	n/a	0	0.57763671875	0.412841796875	1	lower	amplitud.ttf
2103022	WORD	wordpools/wasnorm_wordpool_less_exclusions.txt	LTP264	ltpFR	18	13	1	FATHER	554	n/a	n/a	1	0.57763671875	0.412841796875	1	lower	amplitud.ttf
2107135	WORD	wordpools/wasnorm_wordpool_less_exclusions.txt	LTP264	ltpFR	18	13	0	CHIEF	298	n/a	n/a	1	0.422607421875	0.5869140625	0	upper	zerothre.ttf
2111103	WORD	wordpools/wasnorm_wordpool_less_exclusions.txt	LTP264	ltpFR	18	13	0	BATHTUB	100	n/a	n/a	0	0.422607421875	0.5869140625	0	upper	zerothre.ttf
2115253	WORD	wordpools/wasnorm_wordpool_less_exclusions.txt	LTP264	ltpFR	18	13	0	DANDRUFF	439	n/a	n/a	1	0.422607421875	0.5869140625	0	upper	zerothre.ttf
2119100	WORD	wordpools/wasnorm_wordpool_less_exclusions.txt	LTP264	ltpFR	18	13	0	SLEIGH	1325	n/a	n/a	1	0.422607421875	0.5869140625	0	upper	zerothre.ttf
2123283	WORD	wordpools/wasnorm_wordpool_less_exclusions.txt	LTP264	ltpFR	18	13	1	PITCHFORK	1078	n/a	n/a	0	0.57763671875	0.412841796875	1	lower	amplitud.ttf
2127364	WORD	wordpools/wasnorm_wordpool_less_exclusions.txt	LTP264	ltpFR	18	13	1	ROBIN	1199	n/a	n/a	1	0.57763671875	0.412841796875	1	lower	amplitud.ttf
2131330	WORD	wordpools/wasnorm_wordpool_less_exclusions.txt	LTP264	ltpFR	18	13	1	QUAIL	1147	n/a	n/a	0	0.57763671875	0.412841796875	1	lower	amplitud.ttf
2135194	WORD	wordpools/wasnorm_wordpool_less_exclusions.txt	LTP264	ltpFR	18	13	1	ICE	730	n/a	n/a	1	0.57763671875	0.412841796875	1	lower	amplitud.ttf
2141218	REC_START	n/a	LTP264	ltpFR	18	13	n/a	n/a	n/a	n/a	n/a	n/a	n/a	n/a	n/a	n/a	n/a
2142264	REC_WORD	wordpools/wasnorm_wordpool_less_exclusions.txt	LTP264	ltpFR	18	13	1	ICE	730	n/a	n/a	1	n/a	n/a	n/a	n/a	n/a
2142883	REC_WORD	wordpools/wasnorm_wordpool_less_exclusions.txt	LTP264	ltpFR	18	13	1	PITCHFORK	1078	n/a	n/a	0	n/a	n/a	n/a	n/a	n/a
2144844	REC_WORD	wordpools/wasnorm_wordpool_less_exclusions.txt	LTP264	ltpFR	18	13	1	ROBIN	1199	n/a	n/a	1	n/a	n/a	n/a	n/a	n/a
2145463	REC_WORD	wordpools/wasnorm_wordpool_less_exclusions.txt	LTP264	ltpFR	18	13	1	QUAIL	1147	n/a	n/a	0	n/a	n/a	n/a	n/a	n/a
2146079	REC_WORD	wordpools/wasnorm_wordpool_less_exclusions.txt	LTP264	ltpFR	18	13	0	SLEIGH	1325	n/a	n/a	1	n/a	n/a	n/a	n/a	n/a
2148292	REC_WORD	wordpools/wasnorm_wordpool_less_exclusions.txt	LTP264	ltpFR	18	13	0	BATHTUB	100	n/a	n/a	0	n/a	n/a	n/a	n/a	n/a
2149022	REC_WORD	wordpools/wasnorm_wordpool_less_exclusions.txt	LTP264	ltpFR	18	13	0	DANDRUFF	439	n/a	n/a	1	n/a	n/a	n/a	n/a	n/a
2150024	REC_WORD	wordpools/wasnorm_wordpool_less_exclusions.txt	LTP264	ltpFR	18	13	1	FATHER	554	n/a	n/a	1	n/a	n/a	n/a	n/a	n/a
2150647	REC_WORD	wordpools/wasnorm_wordpool_less_exclusions.txt	LTP264	ltpFR	18	13	0	CHIEF	298	n/a	n/a	1	n/a	n/a	n/a	n/a	n/a
2152095	REC_WORD	wordpools/wasnorm_wordpool_less_exclusions.txt	LTP264	ltpFR	18	13	1	BRANDY	169	n/a	n/a	0	n/a	n/a	n/a	n/a	n/a
2154392	REC_WORD	wordpools/wasnorm_wordpool_less_exclusions.txt	LTP264	ltpFR	18	13	0	JAR	750	n/a	n/a	1	n/a	n/a	n/a	n/a	n/a
2155052	REC_WORD	wordpools/wasnorm_wordpool_less_exclusions.txt	LTP264	ltpFR	18	13	0	LID	817	n/a	n/a	0	n/a	n/a	n/a	n/a	n/a
2155695	REC_WORD	wordpools/wasnorm_wordpool_less_exclusions.txt	LTP264	ltpFR	18	13	1	FROST	609	n/a	n/a	0	n/a	n/a	n/a	n/a	n/a
2156550	REC_WORD	wordpools/wasnorm_wordpool_less_exclusions.txt	LTP264	ltpFR	18	13	1	CALF	222	n/a	n/a	1	n/a	n/a	n/a	n/a	n/a
2157722	REC_WORD	wordpools/wasnorm_wordpool_less_exclusions.txt	LTP264	ltpFR	18	13	0	CHOCOLATE	306	n/a	n/a	1	n/a	n/a	n/a	n/a	n/a
2158326	REC_WORD	wordpools/wasnorm_wordpool_less_exclusions.txt	LTP264	ltpFR	18	13	0	STRAW	1390	n/a	n/a	0	n/a	n/a	n/a	n/a	n/a
2219679	WORD	wordpools/wasnorm_wordpool_less_exclusions.txt	LTP264	ltpFR	18	14	1	TUBA	1515	n/a	n/a	0	0.57763671875	0.412841796875	1	lower	amplitud.ttf
2223845	WORD	wordpools/wasnorm_wordpool_less_exclusions.txt	LTP264	ltpFR	18	14	1	VELVET	1555	n/a	n/a	0	0.57763671875	0.412841796875	1	lower	amplitud.ttf
2227692	WORD	wordpools/wasnorm_wordpool_less_exclusions.txt	LTP264	ltpFR	18	14	0	WASHER	1592	n/a	n/a	1	0.422607421875	0.5869140625	0	upper	zerothre.ttf
2231657	WORD	wordpools/wasnorm_wordpool_less_exclusions.txt	LTP264	ltpFR	18	14	0	FOUNTAIN	597	n/a	n/a	0	0.422607421875	0.5869140625	0	upper	zerothre.ttf
2235505	WORD	wordpools/wasnorm_wordpool_less_exclusions.txt	LTP264	ltpFR	18	14	0	DIPLOMA	470	n/a	n/a	1	0.422607421875	0.5869140625	0	upper	zerothre.ttf
2239484	WORD	wordpools/wasnorm_wordpool_less_exclusions.txt	LTP264	ltpFR	18	14	0	GRADUATE	653	n/a	n/a	0	0.422607421875	0.5869140625	0	upper	zerothre.ttf
2243569	WORD	wordpools/wasnorm_wordpool_less_exclusions.txt	LTP264	ltpFR	18	14	1	PRIEST	1122	n/a	n/a	0	0.57763671875	0.412841796875	1	lower	amplitud.ttf
2247634	WORD	wordpools/wasnorm_wordpool_less_exclusions.txt	LTP264	ltpFR	18	14	1	TURKEY	1520	n/a	n/a	0	0.57763671875	0.412841796875	1	lower	amplitud.ttf
2251699	WORD	wordpools/wasnorm_wordpool_less_exclusions.txt	LTP264	ltpFR	18	14	1	CHEF	290	n/a	n/a	1	0.57763671875	0.412841796875	1	lower	amplitud.ttf
2255595	WORD	wordpools/wasnorm_wordpool_less_exclusions.txt	LTP264	ltpFR	18	14	1	BAND	78	n/a	n/a	0	0.57763671875	0.412841796875	1	lower	amplitud.ttf
2259479	WORD	wordpools/wasnorm_wordpool_less_exclusions.txt	LTP264	ltpFR	18	14	0	CROOK	412	n/a	n/a	1	0.422607421875	0.5869140625	0	upper	zerothre.ttf
2263527	WORD	wordpools/wasnorm_wordpool_less_exclusions.txt	LTP264	ltpFR	18	14	0	SANDPAPER	1231	n/a	n/a	0	0.422607421875	0.5869140625	0	upper	zerothre.ttf
2267643	WORD	wordpools/wasnorm_wordpool_less_exclusions.txt	LTP264	ltpFR	18	14	0	SPRINKLE	1359	n/a	n/a	1	0.422607421875	0.5869140625	0	upper	zerothre.ttf
2271588	WORD	wordpools/wasnorm_wordpool_less_exclusions.txt	LTP264	ltpFR	18	14	0	MERMAID	887	n/a	n/a	1	0.422607421875	0.5869140625	0	upper	zerothre.ttf
2275506	WORD	wordpools/wasnorm_wordpool_less_exclusions.txt	LTP264	ltpFR	18	14	1	PUDDLE	1140	n/a	n/a	2	0.57763671875	0.412841796875	1	lower	amplitud.ttf
2277297	KEY_MSG	n/a	LTP264	ltpFR	18	14	n/a	n/a	n/a	n/a	n/a	n/a	n/a	n/a	n/a	n/a	n/a
2279872	WORD	wordpools/wasnorm_wordpool_less_exclusions.txt	LTP264	ltpFR	18	14	1	LIPSTICK	829	n/a	n/a	1	0.57763671875	0.412841796875	1	lower	amplitud.ttf
2285812	REC_START	n/a	LTP264	ltpFR	18	14	n/a	n/a	n/a	n/a	n/a	n/a	n/a	n/a	n/a	n/a	n/a
2286732	REC_WORD	wordpools/wasnorm_wordpool_less_exclusions.txt	LTP264	ltpFR	18	14	1	LIPSTICK	829	n/a	n/a	1	n/a	n/a	n/a	n/a	n/a
2287572	REC_WORD	wordpools/wasnorm_wordpool_less_exclusions.txt	LTP264	ltpFR	18	14	1	PUDDLE	1140	n/a	n/a	2	n/a	n/a	n/a	n/a	n/a
2288647	REC_WORD	wordpools/wasnorm_wordpool_less_exclusions.txt	LTP264	ltpFR	18	14	0	MERMAID	887	n/a	n/a	1	n/a	n/a	n/a	n/a	n/a
2292552	REC_WORD	wordpools/wasnorm_wordpool_less_exclusions.txt	LTP264	ltpFR	18	14	1	CHEF	290	n/a	n/a	1	n/a	n/a	n/a	n/a	n/a
2293640	REC_WORD	wordpools/wasnorm_wordpool_less_exclusions.txt	LTP264	ltpFR	18	14	n/a	COOK	372	n/a	n/a	n/a	n/a	n/a	n/a	n/a	n/a
2302497	REC_WORD	wordpools/wasnorm_wordpool_less_exclusions.txt	LTP264	ltpFR	18	14	n/a	TUB	1514	n/a	n/a	n/a	n/a	n/a	n/a	n/a	n/a
2303264	REC_WORD	wordpools/wasnorm_wordpool_less_exclusions.txt	LTP264	ltpFR	18	14	1	VELVET	1555	n/a	n/a	0	n/a	n/a	n/a	n/a	n/a
2304191	REC_WORD	wordpools/wasnorm_wordpool_less_exclusions.txt	LTP264	ltpFR	18	14	0	WASHER	1592	n/a	n/a	1	n/a	n/a	n/a	n/a	n/a
2304944	REC_WORD	wordpools/wasnorm_wordpool_less_exclusions.txt	LTP264	ltpFR	18	14	0	FOUNTAIN	597	n/a	n/a	0	n/a	n/a	n/a	n/a	n/a
2308500	REC_WORD	wordpools/wasnorm_wordpool_less_exclusions.txt	LTP264	ltpFR	18	14	0	DIPLOMA	470	n/a	n/a	1	n/a	n/a	n/a	n/a	n/a
2310317	REC_WORD	wordpools/wasnorm_wordpool_less_exclusions.txt	LTP264	ltpFR	18	14	0	GRADUATE	653	n/a	n/a	0	n/a	n/a	n/a	n/a	n/a
2310980	REC_WORD	wordpools/wasnorm_wordpool_less_exclusions.txt	LTP264	ltpFR	18	14	1	PRIEST	1122	n/a	n/a	0	n/a	n/a	n/a	n/a	n/a
2313620	REC_WORD	wordpools/wasnorm_wordpool_less_exclusions.txt	LTP264	ltpFR	18	14	1	TURKEY	1520	n/a	n/a	0	n/a	n/a	n/a	n/a	n/a
2364826	WORD	wordpools/wasnorm_wordpool_less_exclusions.txt	LTP264	ltpFR	18	15	1	WORLD	1622	n/a	n/a	0	0.57763671875	0.412841796875	1	lower	amplitud.ttf
2369008	WORD	wordpools/wasnorm_wordpool_less_exclusions.txt	LTP264	ltpFR	18	15	1	RIBBON	1189	n/a	n/a	0	0.57763671875	0.412841796875	1	lower	amplitud.ttf
2372873	WORD	wordpools/wasnorm_wordpool_less_exclusions.txt	LTP264	ltpFR	18	15	1	WHIP	1604	n/a	n/a	0	0.57763671875	0.412841796875	1	lower	amplitud.ttf
2377072	WORD	wordpools/wasnorm_wordpool_less_exclusions.txt	LTP264	ltpFR	18	15	1	MOOSE	915	n/a	n/a	1	0.57763671875	0.412841796875	1	lower	amplitud.ttf
2381236	WORD	wordpools/wasnorm_wordpool_less_exclusions.txt	LTP264	ltpFR	18	15	1	DWARF	510	n/a	n/a	0	0.57763671875	0.412841796875	1	lower	amplitud.ttf
2385085	WORD	wordpools/wasnorm_wordpool_less_exclusions.txt	LTP264	ltpFR	18	15	1	TAPIOCA	1434	n/a	n/a	0	0.57763671875	0.412841796875	1	lower	amplitud.ttf
2389235	WORD	wordpools/wasnorm_wordpool_less_exclusions.txt	LTP264	ltpFR	18	15	1	GOVERNOR	651	n/a	n/a	1	0.57763671875	0.412841796875	1	lower	amplitud.ttf
2393066	WORD	wordpools/wasnorm_wordpool_less_exclusions.txt	LTP264	ltpFR	18	15	1	LEADER	807	n/a	n/a	1	0.57763671875	0.412841796875	1	lower	amplitud.ttf
2396964	WORD	wordpools/wasnorm_wordpool_less_exclusions.txt	LTP264	ltpFR	18	15	1	HORSE	719	n/a	n/a	0	0.57763671875	0.412841796875	1	lower	amplitud.ttf
2400828	WORD	wordpools/wasnorm_wordpool_less_exclusions.txt	LTP264	ltpFR	18	15	1	ARROW	40	n/a	n/a	1	0.57763671875	0.412841796875	1	lower	amplitud.ttf
2404676	WORD	wordpools/wasnorm_wordpool_less_exclusions.txt	LTP264	ltpFR	18	15	1	PORK	1108	n/a	n/a	1	0.57763671875	0.412841796875	1	lower	amplitud.ttf
2408691	WORD	wordpools/wasnorm_wordpool_less_exclusions.txt	LTP264	ltpFR	18	15	1	OX	994	n/a	n/a	1	0.57763671875	0.412841796875	1	lower	amplitud.ttf
2412874	WORD	wordpools/wasnorm_wordpool_less_exclusions.txt	LTP264	ltpFR	18	15	1	POT	1114	n/a	n/a	0	0.57763671875	0.412841796875	1	lower	amplitud.ttf
2416939	WORD	wordpools/wasnorm_wordpool_less_exclusions.txt	LTP264	ltpFR	18	15	1	UTENSIL	1542	n/a	n/a	1	0.57763671875	0.412841796875	1	lower	amplitud.ttf
2421102	WORD	wordpools/wasnorm_wordpool_less_exclusions.txt	LTP264	ltpFR	18	15	1	SERGEANT	1269	n/a	n/a	0	0.57763671875	0.412841796875	1	lower	amplitud.ttf
2424986	WORD	wordpools/wasnorm_wordpool_less_exclusions.txt	LTP264	ltpFR	18	15	1	FLEET	578	n/a	n/a	1	0.57763671875	0.412841796875	1	lower	amplitud.ttf
2431076	REC_START	n/a	LTP264	ltpFR	18	15	n/a	n/a	n/a	n/a	n/a	n/a	n/a	n/a	n/a	n/a	n/a
2432099	REC_WORD	wordpools/wasnorm_wordpool_less_exclusions.txt	LTP264	ltpFR	18	15	1	PORK	1108	n/a	n/a	1	n/a	n/a	n/a	n/a	n/a
2432875	REC_WORD	wordpools/wasnorm_wordpool_less_exclusions.txt	LTP264	ltpFR	18	15	1	ARROW	40	n/a	n/a	1	n/a	n/a	n/a	n/a	n/a
2433506	REC_WORD	wordpools/wasnorm_wordpool_less_exclusions.txt	LTP264	ltpFR	18	15	1	OX	994	n/a	n/a	1	n/a	n/a	n/a	n/a	n/a
2433862	REC_WORD	wordpools/wasnorm_wordpool_less_exclusions.txt	LTP264	ltpFR	18	15	1	SERGEANT	1269	n/a	n/a	0	n/a	n/a	n/a	n/a	n/a
2434705	REC_WORD	wordpools/wasnorm_wordpool_less_exclusions.txt	LTP264	ltpFR	18	15	1	FLEET	578	n/a	n/a	1	n/a	n/a	n/a	n/a	n/a
2439213	REC_WORD	wordpools/wasnorm_wordpool_less_exclusions.txt	LTP264	ltpFR	18	15	1	DWARF	510	n/a	n/a	0	n/a	n/a	n/a	n/a	n/a
2439895	REC_WORD	wordpools/wasnorm_wordpool_less_exclusions.txt	LTP264	ltpFR	18	15	1	TAPIOCA	1434	n/a	n/a	0	n/a	n/a	n/a	n/a	n/a
2445300	REC_WORD	wordpools/wasnorm_wordpool_less_exclusions.txt	LTP264	ltpFR	18	15	1	GOVERNOR	651	n/a	n/a	1	n/a	n/a	n/a	n/a	n/a
2445936	REC_WORD	wordpools/wasnorm_wordpool_less_exclusions.txt	LTP264	ltpFR	18	15	1	LEADER	807	n/a	n/a	1	n/a	n/a	n/a	n/a	n/a
2446608	REC_WORD	wordpools/wasnorm_wordpool_less_exclusions.txt	LTP264	ltpFR	18	15	1	HORSE	719	n/a	n/a	0	n/a	n/a	n/a	n/a	n/a
2452473	REC_WORD	wordpools/wasnorm_wordpool_less_exclusions.txt	LTP264	ltpFR	18	15	1	WORLD	1622	n/a	n/a	0	n/a	n/a	n/a	n/a	n/a
2452831	REC_WORD	wordpools/wasnorm_wordpool_less_exclusions.txt	LTP264	ltpFR	18	15	1	RIBBON	1189	n/a	n/a	0	n/a	n/a	n/a	n/a	n/a
2483316	REC_WORD	wordpools/wasnorm_wordpool_less_exclusions.txt	LTP264	ltpFR	18	15	1	POT	1114	n/a	n/a	0	n/a	n/a	n/a	n/a	n/a
2509170	WORD	wordpools/wasnorm_wordpool_less_exclusions.txt	LTP264	ltpFR	18	16	0	ORANGE	980	n/a	n/a	1	0.422607421875	0.5869140625	0	upper	zerothre.ttf
2513203	WORD	wordpools/wasnorm_wordpool_less_exclusions.txt	LTP264	ltpFR	18	16	0	HORIZON	717	n/a	n/a	1	0.422607421875	0.5869140625	0	upper	zerothre.ttf
2517418	WORD	wordpools/wasnorm_wordpool_less_exclusions.txt	LTP264	ltpFR	18	16	1	CELERY	266	n/a	n/a	0	0.57763671875	0.412841796875	1	lower	amplitud.ttf
2521617	WORD	wordpools/wasnorm_wordpool_less_exclusions.txt	LTP264	ltpFR	18	16	1	LIME	823	n/a	n/a	1	0.57763671875	0.412841796875	1	lower	amplitud.ttf
2525665	WORD	wordpools/wasnorm_wordpool_less_exclusions.txt	LTP264	ltpFR	18	16	1	ANT	25	n/a	n/a	1	0.57763671875	0.412841796875	1	lower	amplitud.ttf
2529513	WORD	wordpools/wasnorm_wordpool_less_exclusions.txt	LTP264	ltpFR	18	16	1	SEAFOOD	1260	n/a	n/a	0	0.57763671875	0.412841796875	1	lower	amplitud.ttf
2533595	WORD	wordpools/wasnorm_wordpool_less_exclusions.txt	LTP264	ltpFR	18	16	1	RECIPE	1175	n/a	n/a	1	0.57763671875	0.412841796875	1	lower	amplitud.ttf
2537811	WORD	wordpools/wasnorm_wordpool_less_exclusions.txt	LTP264	ltpFR	18	16	0	ELK	526	n/a	n/a	1	0.422607421875	0.5869140625	0	upper	zerothre.ttf
2541709	WORD	wordpools/wasnorm_wordpool_less_exclusions.txt	LTP264	ltpFR	18	16	0	ANTELOPE	27	n/a	n/a	0	0.422607421875	0.5869140625	0	upper	zerothre.ttf
2545741	WORD	wordpools/wasnorm_wordpool_less_exclusions.txt	LTP264	ltpFR	18	16	1	COBBLER	335	n/a	n/a	3	0.57763671875	0.412841796875	1	lower	amplitud.ttf
2547197	KEY_MSG	n/a	LTP264	ltpFR	18	16	n/a	n/a	n/a	n/a	n/a	n/a	n/a	n/a	n/a	n/a	n/a
2549706	WORD	wordpools/wasnorm_wordpool_less_exclusions.txt	LTP264	ltpFR	18	16	1	DISH	474	n/a	n/a	1	0.57763671875	0.412841796875	1	lower	amplitud.ttf
2553905	WORD	wordpools/wasnorm_wordpool_less_exclusions.txt	LTP264	ltpFR	18	16	1	CATTLE	261	n/a	n/a	1	0.57763671875	0.412841796875	1	lower	amplitud.ttf
2557736	WORD	wordpools/wasnorm_wordpool_less_exclusions.txt	LTP264	ltpFR	18	16	0	DAUGHTER	442	n/a	n/a	1	0.422607421875	0.5869140625	0	upper	zerothre.ttf
2561801	WORD	wordpools/wasnorm_wordpool_less_exclusions.txt	LTP264	ltpFR	18	16	0	HOOK	715	n/a	n/a	2	0.422607421875	0.5869140625	0	upper	zerothre.ttf
2563508	KEY_MSG	n/a	LTP264	ltpFR	18	16	n/a	n/a	n/a	n/a	n/a	n/a	n/a	n/a	n/a	n/a	n/a
2566236	WORD	wordpools/wasnorm_wordpool_less_exclusions.txt	LTP264	ltpFR	18	16	0	GRAVEL	659	n/a	n/a	0	0.422607421875	0.5869140625	0	upper	zerothre.ttf
2570080	WORD	wordpools/wasnorm_wordpool_less_exclusions.txt	LTP264	ltpFR	18	16	0	PAVEMENT	1028	n/a	n/a	1	0.422607421875	0.5869140625	0	upper	zerothre.ttf
2575739	REC_START	n/a	LTP264	ltpFR	18	16	n/a	n/a	n/a	n/a	n/a	n/a	n/a	n/a	n/a	n/a	n/a
2576257	REC_WORD	wordpools/wasnorm_wordpool_less_exclusions.txt	LTP264	ltpFR	18	16	0	HOOK	715	n/a	n/a	2	n/a	n/a	n/a	n/a	n/a
2576887	REC_WORD	wordpools/wasnorm_wordpool_less_exclusions.txt	LTP264	ltpFR	18	16	0	GRAVEL	659	n/a	n/a	0	n/a	n/a	n/a	n/a	n/a
2577476	REC_WORD	wordpools/wasnorm_wordpool_less_exclusions.txt	LTP264	ltpFR	18	16	n/a	PAYMENT	-1	n/a	n/a	n/a	n/a	n/a	n/a	n/a	n/a
2578293	REC_WORD	wordpools/wasnorm_wordpool_less_exclusions.txt	LTP264	ltpFR	18	16	0	ORANGE	980	n/a	n/a	1	n/a	n/a	n/a	n/a	n/a
2578893	REC_WORD	wordpools/wasnorm_wordpool_less_exclusions.txt	LTP264	ltpFR	18	16	0	HORIZON	717	n/a	n/a	1	n/a	n/a	n/a	n/a	n/a
2579554	REC_WORD	wordpools/wasnorm_wordpool_less_exclusions.txt	LTP264	ltpFR	18	16	1	CELERY	266	n/a	n/a	0	n/a	n/a	n/a	n/a	n/a
2580330	REC_WORD	wordpools/wasnorm_wordpool_less_exclusions.txt	LTP264	ltpFR	18	16	1	LIME	823	n/a	n/a	1	n/a	n/a	n/a	n/a	n/a
2581017	REC_WORD	wordpools/wasnorm_wordpool_less_exclusions.txt	LTP264	ltpFR	18	16	1	ANT	25	n/a	n/a	1	n/a	n/a	n/a	n/a	n/a
2582472	REC_WORD	wordpools/wasnorm_wordpool_less_exclusions.txt	LTP264	ltpFR	18	16	1	RECIPE	1175	n/a	n/a	1	n/a	n/a	n/a	n/a	n/a
2585763	REC_WORD	wordpools/wasnorm_wordpool_less_exclusions.txt	LTP264	ltpFR	18	16	0	ELK	526	n/a	n/a	1	n/a	n/a	n/a	n/a	n/a
2587561	REC_WORD	wordpools/wasnorm_wordpool_less_exclusions.txt	LTP264	ltpFR	18	16	1	COBBLER	335	n/a	n/a	3	n/a	n/a	n/a	n/a	n/a
2592803	REC_WORD	wordpools/wasnorm_wordpool_less_exclusions.txt	LTP264	ltpFR	18	16	0	ANTELOPE	27	n/a	n/a	0	n/a	n/a	n/a	n/a	n/a
2659955	REC_START	n/a	LTP264	ltpFR	18	n/a	n/a	n/a	n/a	n/a	n/a	n/a	n/a	n/a	n/a	n/a	n/a
2661032	FFR_REC_WORD	wordpools/wasnorm_wordpool_less_exclusions.txt	LTP264	ltpFR	18	n/a	0	ELK	526	n/a	n/a	1	n/a	n/a	n/a	n/a	n/a
2661646	FFR_REC_WORD	wordpools/wasnorm_wordpool_less_exclusions.txt	LTP264	ltpFR	18	n/a	0	ANTELOPE	27	n/a	n/a	0	n/a	n/a	n/a	n/a	n/a
2664594	FFR_REC_WORD	wordpools/wasnorm_wordpool_less_exclusions.txt	LTP264	ltpFR	18	n/a	n/a	BURGER	-1	n/a	n/a	n/a	n/a	n/a	n/a	n/a	n/a
2665078	FFR_REC_WORD	wordpools/wasnorm_wordpool_less_exclusions.txt	LTP264	ltpFR	18	n/a	1	HORSE	719	n/a	n/a	0	n/a	n/a	n/a	n/a	n/a
2665598	FFR_REC_WORD	wordpools/wasnorm_wordpool_less_exclusions.txt	LTP264	ltpFR	18	n/a	1	LEADER	807	n/a	n/a	1	n/a	n/a	n/a	n/a	n/a
2666260	FFR_REC_WORD	wordpools/wasnorm_wordpool_less_exclusions.txt	LTP264	ltpFR	18	n/a	1	GOVERNOR	651	n/a	n/a	1	n/a	n/a	n/a	n/a	n/a
2666773	FFR_REC_WORD	wordpools/wasnorm_wordpool_less_exclusions.txt	LTP264	ltpFR	18	n/a	1	LIME	823	n/a	n/a	1	n/a	n/a	n/a	n/a	n/a
2667862	FFR_REC_WORD	wordpools/wasnorm_wordpool_less_exclusions.txt	LTP264	ltpFR	18	n/a	1	CELERY	266	n/a	n/a	0	n/a	n/a	n/a	n/a	n/a
2668670	FFR_REC_WORD	wordpools/wasnorm_wordpool_less_exclusions.txt	LTP264	ltpFR	18	n/a	1	ANT	25	n/a	n/a	1	n/a	n/a	n/a	n/a	n/a
2669174	FFR_REC_WORD	wordpools/wasnorm_wordpool_less_exclusions.txt	LTP264	ltpFR	18	n/a	0	COOKBOOK	373	n/a	n/a	0	n/a	n/a	n/a	n/a	n/a
2669767	FFR_REC_WORD	wordpools/wasnorm_wordpool_less_exclusions.txt	LTP264	ltpFR	18	n/a	1	RECIPE	1175	n/a	n/a	1	n/a	n/a	n/a	n/a	n/a
2672277	FFR_REC_WORD	wordpools/wasnorm_wordpool_less_exclusions.txt	LTP264	ltpFR	18	n/a	0	BOWL	158	n/a	n/a	1	n/a	n/a	n/a	n/a	n/a
2672885	FFR_REC_WORD	wordpools/wasnorm_wordpool_less_exclusions.txt	LTP264	ltpFR	18	n/a	1	POT	1114	n/a	n/a	0	n/a	n/a	n/a	n/a	n/a
2674347	FFR_REC_WORD	wordpools/wasnorm_wordpool_less_exclusions.txt	LTP264	ltpFR	18	n/a	0	CEREAL	272	n/a	n/a	1	n/a	n/a	n/a	n/a	n/a
2675080	FFR_REC_WORD	wordpools/wasnorm_wordpool_less_exclusions.txt	LTP264	ltpFR	18	n/a	0	MONKEY	911	n/a	n/a	1	n/a	n/a	n/a	n/a	n/a
2675739	FFR_REC_WORD	wordpools/wasnorm_wordpool_less_exclusions.txt	LTP264	ltpFR	18	n/a	0	APE	31	n/a	n/a	1	n/a	n/a	n/a	n/a	n/a
2677051	FFR_REC_WORD	wordpools/wasnorm_wordpool_less_exclusions.txt	LTP264	ltpFR	18	n/a	0	DINNER	468	n/a	n/a	0	n/a	n/a	n/a	n/a	n/a
2677679	FFR_REC_WORD	wordpools/wasnorm_wordpool_less_exclusions.txt	LTP264	ltpFR	18	n/a	0	SUPPER	1411	n/a	n/a	1	n/a	n/a	n/a	n/a	n/a
2679006	FFR_REC_WORD	wordpools/wasnorm_wordpool_less_exclusions.txt	LTP264	ltpFR	18	n/a	0	DINER	467	n/a	n/a	1	n/a	n/a	n/a	n/a	n/a
2680438	FFR_REC_WORD	wordpools/wasnorm_wordpool_less_exclusions.txt	LTP264	ltpFR	18	n/a	1	POPE	1105	n/a	n/a	1	n/a	n/a	n/a	n/a	n/a
2682010	FFR_REC_WORD	wordpools/wasnorm_wordpool_less_exclusions.txt	LTP264	ltpFR	18	n/a	0	BRIDE	173	n/a	n/a	1	n/a	n/a	n/a	n/a	n/a
2682653	FFR_REC_WORD	wordpools/wasnorm_wordpool_less_exclusions.txt	LTP264	ltpFR	18	n/a	0	SHOELACE	1289	n/a	n/a	1	n/a	n/a	n/a	n/a	n/a
2683288	FFR_REC_WORD	wordpools/wasnorm_wordpool_less_exclusions.txt	LTP264	ltpFR	18	n/a	n/a	SHOE	1288	n/a	n/a	n/a	n/a	n/a	n/a	n/a	n/a
2684489	FFR_REC_WORD	wordpools/wasnorm_wordpool_less_exclusions.txt	LTP264	ltpFR	18	n/a	0	SNEAKER	1334	n/a	n/a	1	n/a	n/a	n/a	n/a	n/a
2687208	FFR_REC_WORD	wordpools/wasnorm_wordpool_less_exclusions.txt	LTP264	ltpFR	18	n/a	-1	TORNADO	1485	n/a	n/a	-1	n/a	n/a	n/a	n/a	n/a
2687876	FFR_REC_WORD	wordpools/wasnorm_wordpool_less_exclusions.txt	LTP264	ltpFR	18	n/a	1	CROSS	413	n/a	n/a	0	n/a	n/a	n/a	n/a	n/a
2688614	FFR_REC_WORD	wordpools/wasnorm_wordpool_less_exclusions.txt	LTP264	ltpFR	18	n/a	1	CLAM	315	n/a	n/a	0	n/a	n/a	n/a	n/a	n/a
2695020	FFR_REC_WORD	wordpools/wasnorm_wordpool_less_exclusions.txt	LTP264	ltpFR	18	n/a	1	SERGEANT	1269	n/a	n/a	0	n/a	n/a	n/a	n/a	n/a
2695693	FFR_REC_WORD	wordpools/wasnorm_wordpool_less_exclusions.txt	LTP264	ltpFR	18	n/a	1	FLEET	578	n/a	n/a	1	n/a	n/a	n/a	n/a	n/a
2703611	FFR_REC_WORD	wordpools/wasnorm_wordpool_less_exclusions.txt	LTP264	ltpFR	18	n/a	1	CUBE	420	n/a	n/a	0	n/a	n/a	n/a	n/a	n/a
2705137	FFR_REC_WORD	wordpools/wasnorm_wordpool_less_exclusions.txt	LTP264	ltpFR	18	n/a	1	XEROX	1628	n/a	n/a	0	n/a	n/a	n/a	n/a	n/a
2705865	FFR_REC_WORD	wordpools/wasnorm_wordpool_less_exclusions.txt	LTP264	ltpFR	18	n/a	1	COPIER	377	n/a	n/a	1	n/a	n/a	n/a	n/a	n/a
2706539	FFR_REC_WORD	wordpools/wasnorm_wordpool_less_exclusions.txt	LTP264	ltpFR	18	n/a	1	WOMAN	1620	n/a	n/a	0	n/a	n/a	n/a	n/a	n/a
2706930	FFR_REC_WORD	wordpools/wasnorm_wordpool_less_exclusions.txt	LTP264	ltpFR	18	n/a	1	FEMALE	559	n/a	n/a	1	n/a	n/a	n/a	n/a	n/a
2707781	FFR_REC_WORD	wordpools/wasnorm_wordpool_less_exclusions.txt	LTP264	ltpFR	18	n/a	1	ASSISTANT	48	n/a	n/a	1	n/a	n/a	n/a	n/a	n/a
2713628	FFR_REC_WORD	wordpools/wasnorm_wordpool_less_exclusions.txt	LTP264	ltpFR	18	n/a	0	ORANGE	980	n/a	n/a	1	n/a	n/a	n/a	n/a	n/a
2714536	FFR_REC_WORD	wordpools/wasnorm_wordpool_less_exclusions.txt	LTP264	ltpFR	18	n/a	0	HORIZON	717	n/a	n/a	1	n/a	n/a	n/a	n/a	n/a
2718771	FFR_REC_WORD	wordpools/wasnorm_wordpool_less_exclusions.txt	LTP264	ltpFR	18	n/a	-1	DRIVEWAY	500	n/a	n/a	-1	n/a	n/a	n/a	n/a	n/a
2719554	FFR_REC_WORD	wordpools/wasnorm_wordpool_less_exclusions.txt	LTP264	ltpFR	18	n/a	-1	NEST	945	n/a	n/a	-1	n/a	n/a	n/a	n/a	n/a
2720268	FFR_REC_WORD	wordpools/wasnorm_wordpool_less_exclusions.txt	LTP264	ltpFR	18	n/a	-1	BACK	65	n/a	n/a	-1	n/a	n/a	n/a	n/a	n/a
2720687	FFR_REC_WORD	wordpools/wasnorm_wordpool_less_exclusions.txt	LTP264	ltpFR	18	n/a	-1	SPINE	1353	n/a	n/a	-1	n/a	n/a	n/a	n/a	n/a
2722069	FFR_REC_WORD	wordpools/wasnorm_wordpool_less_exclusions.txt	LTP264	ltpFR	18	n/a	-1	COAT	333	n/a	n/a	-1	n/a	n/a	n/a	n/a	n/a
2724693	FFR_REC_WORD	wordpools/wasnorm_wordpool_less_exclusions.txt	LTP264	ltpFR	18	n/a	-1	ROPE	1211	n/a	n/a	-1	n/a	n/a	n/a	n/a	n/a
2725466	FFR_REC_WORD	wordpools/wasnorm_wordpool_less_exclusions.txt	LTP264	ltpFR	18	n/a	-1	SCARECROW	1245	n/a	n/a	-1	n/a	n/a	n/a	n/a	n/a
2727960	FFR_REC_WORD_VV	wordpools/wasnorm_wordpool_less_exclusions.txt	LTP264	ltpFR	18	n/a	n/a	<>	-1	n/a	n/a	n/a	n/a	n/a	n/a	n/a	n/a
2729811	FFR_REC_WORD	wordpools/wasnorm_wordpool_less_exclusions.txt	LTP264	ltpFR	18	n/a	-1	MOTOR	922	n/a	n/a	-1	n/a	n/a	n/a	n/a	n/a
2730455	FFR_REC_WORD	wordpools/wasnorm_wordpool_less_exclusions.txt	LTP264	ltpFR	18	n/a	-1	ALLEY	15	n/a	n/a	-1	n/a	n/a	n/a	n/a	n/a
2735199	FFR_REC_WORD	wordpools/wasnorm_wordpool_less_exclusions.txt	LTP264	ltpFR	18	n/a	-1	RABBIT	1152	n/a	n/a	-1	n/a	n/a	n/a	n/a	n/a
2736167	FFR_REC_WORD	wordpools/wasnorm_wordpool_less_exclusions.txt	LTP264	ltpFR	18	n/a	-1	CENT	270	n/a	n/a	-1	n/a	n/a	n/a	n/a	n/a
2750235	FFR_REC_WORD	wordpools/wasnorm_wordpool_less_exclusions.txt	LTP264	ltpFR	18	n/a	1	EMPLOYER	532	n/a	n/a	1	n/a	n/a	n/a	n/a	n/a
2752225	FFR_REC_WORD	wordpools/wasnorm_wordpool_less_exclusions.txt	LTP264	ltpFR	18	n/a	1	MANAGER	863	n/a	n/a	0	n/a	n/a	n/a	n/a	n/a
2752765	FFR_REC_WORD	wordpools/wasnorm_wordpool_less_exclusions.txt	LTP264	ltpFR	18	n/a	1	SHERIFF	1284	n/a	n/a	1	n/a	n/a	n/a	n/a	n/a
2753308	FFR_REC_WORD	wordpools/wasnorm_wordpool_less_exclusions.txt	LTP264	ltpFR	18	n/a	1	SCISSORS	1250	n/a	n/a	0	n/a	n/a	n/a	n/a	n/a
2755418	FFR_REC_WORD	wordpools/wasnorm_wordpool_less_exclusions.txt	LTP264	ltpFR	18	n/a	1	SPOOL	1356	n/a	n/a	0	n/a	n/a	n/a	n/a	n/a
2756071	FFR_REC_WORD	wordpools/wasnorm_wordpool_less_exclusions.txt	LTP264	ltpFR	18	n/a	n/a	THREAD	1460	n/a	n/a	n/a	n/a	n/a	n/a	n/a	n/a
2757937	FFR_REC_WORD	wordpools/wasnorm_wordpool_less_exclusions.txt	LTP264	ltpFR	18	n/a	1	HARP	689	n/a	n/a	0	n/a	n/a	n/a	n/a	n/a
2759808	FFR_REC_WORD	wordpools/wasnorm_wordpool_less_exclusions.txt	LTP264	ltpFR	18	n/a	1	CHIME	300	n/a	n/a	0	n/a	n/a	n/a	n/a	n/a
2760382	FFR_REC_WORD	wordpools/wasnorm_wordpool_less_exclusions.txt	LTP264	ltpFR	18	n/a	1	SAXOPHONE	1240	n/a	n/a	1	n/a	n/a	n/a	n/a	n/a
2766328	FFR_REC_WORD	wordpools/wasnorm_wordpool_less_exclusions.txt	LTP264	ltpFR	18	n/a	1	PERISCOPE	1050	n/a	n/a	1	n/a	n/a	n/a	n/a	n/a
2767191	FFR_REC_WORD	wordpools/wasnorm_wordpool_less_exclusions.txt	LTP264	ltpFR	18	n/a	1	BUTLER	204	n/a	n/a	0	n/a	n/a	n/a	n/a	n/a
2775263	FFR_REC_WORD	wordpools/wasnorm_wordpool_less_exclusions.txt	LTP264	ltpFR	18	n/a	1	CHEF	290	n/a	n/a	1	n/a	n/a	n/a	n/a	n/a
2776909	FFR_REC_WORD	wordpools/wasnorm_wordpool_less_exclusions.txt	LTP264	ltpFR	18	n/a	n/a	COOK	372	n/a	n/a	n/a	n/a	n/a	n/a	n/a	n/a
2783783	FFR_REC_WORD	wordpools/wasnorm_wordpool_less_exclusions.txt	LTP264	ltpFR	18	n/a	n/a	PEOPLE	1046	n/a	n/a	n/a	n/a	n/a	n/a	n/a	n/a
2795377	FFR_REC_WORD	wordpools/wasnorm_wordpool_less_exclusions.txt	LTP264	ltpFR	18	n/a	0	HUMAN	726	n/a	n/a	1	n/a	n/a	n/a	n/a	n/a
2807260	FFR_REC_WORD	wordpools/wasnorm_wordpool_less_exclusions.txt	LTP264	ltpFR	18	n/a	-1	AIRCRAFT	11	n/a	n/a	-1	n/a	n/a	n/a	n/a	n/a
2808133	FFR_REC_WORD	wordpools/wasnorm_wordpool_less_exclusions.txt	LTP264	ltpFR	18	n/a	-1	AIRPLANE	12	n/a	n/a	-1	n/a	n/a	n/a	n/a	n/a
2809006	FFR_REC_WORD	wordpools/wasnorm_wordpool_less_exclusions.txt	LTP264	ltpFR	18	n/a	-1	ESCALATOR	539	n/a	n/a	-1	n/a	n/a	n/a	n/a	n/a
2810947	FFR_REC_WORD	wordpools/wasnorm_wordpool_less_exclusions.txt	LTP264	ltpFR	18	n/a	-1	BLACKBERRY	132	n/a	n/a	-1	n/a	n/a	n/a	n/a	n/a
2813386	FFR_REC_WORD	wordpools/wasnorm_wordpool_less_exclusions.txt	LTP264	ltpFR	18	n/a	-1	CHERRY	293	n/a	n/a	-1	n/a	n/a	n/a	n/a	n/a
2814294	FFR_REC_WORD	wordpools/wasnorm_wordpool_less_exclusions.txt	LTP264	ltpFR	18	n/a	-1	TOMATO	1476	n/a	n/a	-1	n/a	n/a	n/a	n/a	n/a
2815461	FFR_REC_WORD	wordpools/wasnorm_wordpool_less_exclusions.txt	LTP264	ltpFR	18	n/a	-1	STEP	1377	n/a	n/a	-1	n/a	n/a	n/a	n/a	n/a
2819467	FFR_REC_WORD	wordpools/wasnorm_wordpool_less_exclusions.txt	LTP264	ltpFR	18	n/a	-1	AIRPLANE	12	n/a	n/a	-1	n/a	n/a	n/a	n/a	n/a
2821622	FFR_REC_WORD	wordpools/wasnorm_wordpool_less_exclusions.txt	LTP264	ltpFR	18	n/a	-1	ALMANAC	17	n/a	n/a	-1	n/a	n/a	n/a	n/a	n/a
2822685	FFR_REC_WORD	wordpools/wasnorm_wordpool_less_exclusions.txt	LTP264	ltpFR	18	n/a	-1	NOVEL	960	n/a	n/a	-1	n/a	n/a	n/a	n/a	n/a
2823378	FFR_REC_WORD	wordpools/wasnorm_wordpool_less_exclusions.txt	LTP264	ltpFR	18	n/a	-1	PLANET	1082	n/a	n/a	-1	n/a	n/a	n/a	n/a	n/a
2824705	FFR_REC_WORD	wordpools/wasnorm_wordpool_less_exclusions.txt	LTP264	ltpFR	18	n/a	-1	STONE	1385	n/a	n/a	-1	n/a	n/a	n/a	n/a	n/a
2825893	FFR_REC_WORD	wordpools/wasnorm_wordpool_less_exclusions.txt	LTP264	ltpFR	18	n/a	-1	APRON	35	n/a	n/a	-1	n/a	n/a	n/a	n/a	n/a
2827898	FFR_REC_WORD	wordpools/wasnorm_wordpool_less_exclusions.txt	LTP264	ltpFR	18	n/a	-1	CLAMP	316	n/a	n/a	-1	n/a	n/a	n/a	n/a	n/a
2828502	FFR_REC_WORD	wordpools/wasnorm_wordpool_less_exclusions.txt	LTP264	ltpFR	18	n/a	-1	GREASE	660	n/a	n/a	-1	n/a	n/a	n/a	n/a	n/a
2829270	FFR_REC_WORD	wordpools/wasnorm_wordpool_less_exclusions.txt	LTP264	ltpFR	18	n/a	-1	RESTAURANT	1187	n/a	n/a	-1	n/a	n/a	n/a	n/a	n/a
2829948	FFR_REC_WORD	wordpools/wasnorm_wordpool_less_exclusions.txt	LTP264	ltpFR	18	n/a	-1	MOAT	903	n/a	n/a	-1	n/a	n/a	n/a	n/a	n/a
2830582	FFR_REC_WORD	wordpools/wasnorm_wordpool_less_exclusions.txt	LTP264	ltpFR	18	n/a	-1	PUMP	1141	n/a	n/a	-1	n/a	n/a	n/a	n/a	n/a
2831156	FFR_REC_WORD	wordpools/wasnorm_wordpool_less_exclusions.txt	LTP264	ltpFR	18	n/a	-1	SURF	1412	n/a	n/a	-1	n/a	n/a	n/a	n/a	n/a
2872827	FFR_REC_WORD	wordpools/wasnorm_wordpool_less_exclusions.txt	LTP264	ltpFR	18	n/a	0	TOY	1492	n/a	n/a	1	n/a	n/a	n/a	n/a	n/a
2873539	FFR_REC_WORD	wordpools/wasnorm_wordpool_less_exclusions.txt	LTP264	ltpFR	18	n/a	0	WAVE	1596	n/a	n/a	0	n/a	n/a	n/a	n/a	n/a
2873978	FFR_REC_WORD	wordpools/wasnorm_wordpool_less_exclusions.txt	LTP264	ltpFR	18	n/a	0	COLESLAW	344	n/a	n/a	1	n/a	n/a	n/a	n/a	n/a
2880374	FFR_REC_WORD	wordpools/wasnorm_wordpool_less_exclusions.txt	LTP264	ltpFR	18	n/a	0	PORTRAIT	1111	n/a	n/a	1	n/a	n/a	n/a	n/a	n/a
2881332	FFR_REC_WORD	wordpools/wasnorm_wordpool_less_exclusions.txt	LTP264	ltpFR	18	n/a	0	SHRUB	1299	n/a	n/a	1	n/a	n/a	n/a	n/a	n/a
2882639	FFR_REC_WORD	wordpools/wasnorm_wordpool_less_exclusions.txt	LTP264	ltpFR	18	n/a	0	MISTER	901	n/a	n/a	1	n/a	n/a	n/a	n/a	n/a
2884584	FFR_REC_WORD	wordpools/wasnorm_wordpool_less_exclusions.txt	LTP264	ltpFR	18	n/a	0	CANDY	230	n/a	n/a	0	n/a	n/a	n/a	n/a	n/a
2885323	FFR_REC_WORD	wordpools/wasnorm_wordpool_less_exclusions.txt	LTP264	ltpFR	18	n/a	0	ATMOSPHERE	54	n/a	n/a	1	n/a	n/a	n/a	n/a	n/a
2893349	FFR_REC_WORD	wordpools/wasnorm_wordpool_less_exclusions.txt	LTP264	ltpFR	18	n/a	1	VENUS	1557	n/a	n/a	0	n/a	n/a	n/a	n/a	n/a
2894577	FFR_REC_WORD	wordpools/wasnorm_wordpool_less_exclusions.txt	LTP264	ltpFR	18	n/a	n/a	JUPITER	765	n/a	n/a	n/a	n/a	n/a	n/a	n/a	n/a
2895086	FFR_REC_WORD	wordpools/wasnorm_wordpool_less_exclusions.txt	LTP264	ltpFR	18	n/a	1	SATURN	1236	n/a	n/a	1	n/a	n/a	n/a	n/a	n/a
2895819	FFR_REC_WORD	wordpools/wasnorm_wordpool_less_exclusions.txt	LTP264	ltpFR	18	n/a	-1	PLANET	1082	n/a	n/a	-1	n/a	n/a	n/a	n/a	n/a
2908181	FFR_REC_WORD	wordpools/wasnorm_wordpool_less_exclusions.txt	LTP264	ltpFR	18	n/a	1	SWAN	1417	n/a	n/a	1	n/a	n/a	n/a	n/a	n/a
2908994	FFR_REC_WORD	wordpools/wasnorm_wordpool_less_exclusions.txt	LTP264	ltpFR	18	n/a	1	BLANKET	135	n/a	n/a	0	n/a	n/a	n/a	n/a	n/a
2910480	FFR_REC_WORD	wordpools/wasnorm_wordpool_less_exclusions.txt	LTP264	ltpFR	18	n/a	0	CANARY	227	n/a	n/a	1	n/a	n/a	n/a	n/a	n/a
2911448	FFR_REC_WORD	wordpools/wasnorm_wordpool_less_exclusions.txt	LTP264	ltpFR	18	n/a	0	MONSTER	912	n/a	n/a	1	n/a	n/a	n/a	n/a	n/a
2913259	FFR_REC_WORD	wordpools/wasnorm_wordpool_less_exclusions.txt	LTP264	ltpFR	18	n/a	1	SOFTBALL	1343	n/a	n/a	0	n/a	n/a	n/a	n/a	n/a
2914097	FFR_REC_WORD	wordpools/wasnorm_wordpool_less_exclusions.txt	LTP264	ltpFR	18	n/a	1	LIVER	833	n/a	n/a	1	n/a	n/a	n/a	n/a	n/a
2918517	FFR_REC_WORD	wordpools/wasnorm_wordpool_less_exclusions.txt	LTP264	ltpFR	18	n/a	0	PRESIDENT	1121	n/a	n/a	0	n/a	n/a	n/a	n/a	n/a
2925885	FFR_REC_WORD	wordpools/wasnorm_wordpool_less_exclusions.txt	LTP264	ltpFR	18	n/a	0	CRUMB	416	n/a	n/a	0	n/a	n/a	n/a	n/a	n/a
2926419	FFR_REC_WORD	wordpools/wasnorm_wordpool_less_exclusions.txt	LTP264	ltpFR	18	n/a	0	CHOCOLATE	306	n/a	n/a	1	n/a	n/a	n/a	n/a	n/a
2928160	FFR_REC_WORD	wordpools/wasnorm_wordpool_less_exclusions.txt	LTP264	ltpFR	18	n/a	0	JAR	750	n/a	n/a	1	n/a	n/a	n/a	n/a	n/a
2929163	FFR_REC_WORD	wordpools/wasnorm_wordpool_less_exclusions.txt	LTP264	ltpFR	18	n/a	0	LID	817	n/a	n/a	0	n/a	n/a	n/a	n/a	n/a
2930026	FFR_REC_WORD	wordpools/wasnorm_wordpool_less_exclusions.txt	LTP264	ltpFR	18	n/a	1	FROST	609	n/a	n/a	0	n/a	n/a	n/a	n/a	n/a
2930874	FFR_REC_WORD	wordpools/wasnorm_wordpool_less_exclusions.txt	LTP264	ltpFR	18	n/a	0	CHOCOLATE	306	n/a	n/a	1	n/a	n/a	n/a	n/a	n/a
2931428	FFR_REC_WORD	wordpools/wasnorm_wordpool_less_exclusions.txt	LTP264	ltpFR	18	n/a	0	STRAW	1390	n/a	n/a	0	n/a	n/a	n/a	n/a	n/a
2932999	FFR_REC_WORD	wordpools/wasnorm_wordpool_less_exclusions.txt	LTP264	ltpFR	18	n/a	n/a	COW	393	n/a	n/a	n/a	n/a	n/a	n/a	n/a	n/a
2933892	FFR_REC_WORD	wordpools/wasnorm_wordpool_less_exclusions.txt	LTP264	ltpFR	18	n/a	1	CALF	222	n/a	n/a	1	n/a	n/a	n/a	n/a	n/a
2935034	FFR_REC_WORD	wordpools/wasnorm_wordpool_less_exclusions.txt	LTP264	ltpFR	18	n/a	1	FATHER	554	n/a	n/a	1	n/a	n/a	n/a	n/a	n/a
2935653	FFR_REC_WORD	wordpools/wasnorm_wordpool_less_exclusions.txt	LTP264	ltpFR	18	n/a	1	BRANDY	169	n/a	n/a	0	n/a	n/a	n/a	n/a	n/a
2938452	FFR_REC_WORD	wordpools/wasnorm_wordpool_less_exclusions.txt	LTP264	ltpFR	18	n/a	0	CHIEF	298	n/a	n/a	1	n/a	n/a	n/a	n/a	n/a
2939170	FFR_REC_WORD	wordpools/wasnorm_wordpool_less_exclusions.txt	LTP264	ltpFR	18	n/a	0	BATHTUB	100	n/a	n/a	0	n/a	n/a	n/a	n/a	n/a
2941106	FFR_REC_WORD	wordpools/wasnorm_wordpool_less_exclusions.txt	LTP264	ltpFR	18	n/a	0	DANDRUFF	439	n/a	n/a	1	n/a	n/a	n/a	n/a	n/a
2945690	FFR_REC_WORD	wordpools/wasnorm_wordpool_less_exclusions.txt	LTP264	ltpFR	18	n/a	1	ICE	730	n/a	n/a	1	n/a	n/a	n/a	n/a	n/a
2946199	FFR_REC_WORD	wordpools/wasnorm_wordpool_less_exclusions.txt	LTP264	ltpFR	18	n/a	1	PITCHFORK	1078	n/a	n/a	0	n/a	n/a	n/a	n/a	n/a
2947955	FFR_REC_WORD	wordpools/wasnorm_wordpool_less_exclusions.txt	LTP264	ltpFR	18	n/a	1	QUAIL	1147	n/a	n/a	0	n/a	n/a	n/a	n/a	n/a
2954181	FFR_REC_WORD	wordpools/wasnorm_wordpool_less_exclusions.txt	LTP264	ltpFR	18	n/a	1	DOVE	491	n/a	n/a	1	n/a	n/a	n/a	n/a	n/a
2954770	FFR_REC_WORD	wordpools/wasnorm_wordpool_less_exclusions.txt	LTP264	ltpFR	18	n/a	1	DOG	480	n/a	n/a	0	n/a	n/a	n/a	n/a	n/a
2958716	FFR_REC_WORD	wordpools/wasnorm_wordpool_less_exclusions.txt	LTP264	ltpFR	18	n/a	1	CROW	414	n/a	n/a	0	n/a	n/a	n/a	n/a	n/a
2959499	FFR_REC_WORD	wordpools/wasnorm_wordpool_less_exclusions.txt	LTP264	ltpFR	18	n/a	1	EAGLE	512	n/a	n/a	1	n/a	n/a	n/a	n/a	n/a
2979125	REC_START	n/a	LTP264	ltpFR	18	1	n/a	n/a	n/a	n/a	n/a	n/a	n/a	n/a	n/a	n/a	n/a
2979174	RECOG_LURE	n/a	LTP264	ltpFR	18	1	n/a	BROTHER	179	0	4	n/a	n/a	n/a	n/a	n/a	n/a
2980635	RECOG_RESP	n/a	LTP264	ltpFR	18	1	n/a	BROTHER	179	0	n/a	n/a	n/a	n/a	n/a	n/a	n/a
2981345	RECOG_CONF	n/a	LTP264	ltpFR	18	1	n/a	BROTHER	179	n/a	4	n/a	n/a	n/a	n/a	n/a	n/a
2983274	RECOG_TARGET	n/a	LTP264	ltpFR	18	1	0	CROOK	412	1	3	1	n/a	n/a	n/a	n/a	n/a
2983950	RECOG_RESP	n/a	LTP264	ltpFR	18	1	0	CROOK	412	1	n/a	1	n/a	n/a	n/a	n/a	n/a
2984665	RECOG_CONF	n/a	LTP264	ltpFR	18	1	0	CROOK	412	n/a	3	1	n/a	n/a	n/a	n/a	n/a
2986382	RECOG_LURE	n/a	LTP264	ltpFR	18	1	n/a	STAGE	1366	0	4	n/a	n/a	n/a	n/a	n/a	n/a
2987065	RECOG_RESP	n/a	LTP264	ltpFR	18	1	n/a	STAGE	1366	0	n/a	n/a	n/a	n/a	n/a	n/a	n/a
2987525	RECOG_CONF	n/a	LTP264	ltpFR	18	1	n/a	STAGE	1366	n/a	4	n/a	n/a	n/a	n/a	n/a	n/a
2989396	RECOG_LURE	n/a	LTP264	ltpFR	18	1	n/a	HOSE	720	1	3	n/a	n/a	n/a	n/a	n/a	n/a
2989820	RECOG_RESP	n/a	LTP264	ltpFR	18	1	n/a	HOSE	720	1	n/a	n/a	n/a	n/a	n/a	n/a	n/a
2990345	RECOG_CONF	n/a	LTP264	ltpFR	18	1	n/a	HOSE	720	n/a	3	n/a	n/a	n/a	n/a	n/a	n/a
2992107	RECOG_TARGET	n/a	LTP264	ltpFR	18	1	1	ROBIN	1199	1	4	1	n/a	n/a	n/a	n/a	n/a
2992650	RECOG_RESP	n/a	LTP264	ltpFR	18	1	1	ROBIN	1199	1	n/a	1	n/a	n/a	n/a	n/a	n/a
2993105	RECOG_CONF	n/a	LTP264	ltpFR	18	1	1	ROBIN	1199	n/a	4	1	n/a	n/a	n/a	n/a	n/a
2994931	RECOG_LURE	n/a	LTP264	ltpFR	18	1	n/a	FOSSIL	596	0	5	n/a	n/a	n/a	n/a	n/a	n/a
2995720	RECOG_RESP	n/a	LTP264	ltpFR	18	1	n/a	FOSSIL	596	0	n/a	n/a	n/a	n/a	n/a	n/a	n/a
2996275	RECOG_CONF	n/a	LTP264	ltpFR	18	1	n/a	FOSSIL	596	n/a	5	n/a	n/a	n/a	n/a	n/a	n/a
2997842	RECOG_LURE	n/a	LTP264	ltpFR	18	1	n/a	RAG	1160	1	3	n/a	n/a	n/a	n/a	n/a	n/a
2998345	RECOG_RESP	n/a	LTP264	ltpFR	18	1	n/a	RAG	1160	1	n/a	n/a	n/a	n/a	n/a	n/a	n/a
2998925	RECOG_CONF	n/a	LTP264	ltpFR	18	1	n/a	RAG	1160	n/a	3	n/a	n/a	n/a	n/a	n/a	n/a
3000636	RECOG_TARGET	n/a	LTP264	ltpFR	18	1	0	JAR	750	1	5	1	n/a	n/a	n/a	n/a	n/a
3001400	RECOG_RESP	n/a	LTP264	ltpFR	18	1	0	JAR	750	1	n/a	1	n/a	n/a	n/a	n/a	n/a
3001865	RECOG_CONF	n/a	LTP264	ltpFR	18	1	0	JAR	750	n/a	5	1	n/a	n/a	n/a	n/a	n/a
3003700	RECOG_TARGET	n/a	LTP264	ltpFR	18	1	-1	STOVE	1388	1	3	-1	n/a	n/a	n/a	n/a	n/a
3004140	RECOG_RESP	n/a	LTP264	ltpFR	18	1	-1	STOVE	1388	1	n/a	-1	n/a	n/a	n/a	n/a	n/a
3004725	RECOG_CONF	n/a	LTP264	ltpFR	18	1	-1	STOVE	1388	n/a	3	-1	n/a	n/a	n/a	n/a	n/a
3006528	RECOG_LURE	n/a	LTP264	ltpFR	18	1	n/a	TRASH	1497	1	4	n/a	n/a	n/a	n/a	n/a	n/a
3006850	RECOG_RESP	n/a	LTP264	ltpFR	18	1	n/a	TRASH	1497	1	n/a	n/a	n/a	n/a	n/a	n/a	n/a
3007385	RECOG_CONF	n/a	LTP264	ltpFR	18	1	n/a	TRASH	1497	n/a	4	n/a	n/a	n/a	n/a	n/a	n/a
3009236	RECOG_TARGET	n/a	LTP264	ltpFR	18	1	0	CONE	363	1	5	0	n/a	n/a	n/a	n/a	n/a
3009805	RECOG_RESP	n/a	LTP264	ltpFR	18	1	0	CONE	363	1	n/a	0	n/a	n/a	n/a	n/a	n/a
3010285	RECOG_CONF	n/a	LTP264	ltpFR	18	1	0	CONE	363	n/a	5	0	n/a	n/a	n/a	n/a	n/a
3012149	RECOG_TARGET	n/a	LTP264	ltpFR	18	1	-1	ROPE	1211	1	5	-1	n/a	n/a	n/a	n/a	n/a
3012500	RECOG_RESP	n/a	LTP264	ltpFR	18	1	-1	ROPE	1211	1	n/a	-1	n/a	n/a	n/a	n/a	n/a
3013035	RECOG_CONF	n/a	LTP264	ltpFR	18	1	-1	ROPE	1211	n/a	5	-1	n/a	n/a	n/a	n/a	n/a
3014756	RECOG_TARGET	n/a	LTP264	ltpFR	18	1	1	BAND	78	1	3	0	n/a	n/a	n/a	n/a	n/a
3015260	RECOG_RESP	n/a	LTP264	ltpFR	18	1	1	BAND	78	1	n/a	0	n/a	n/a	n/a	n/a	n/a
3015805	RECOG_CONF	n/a	LTP264	ltpFR	18	1	1	BAND	78	n/a	3	0	n/a	n/a	n/a	n/a	n/a
3017533	RECOG_TARGET	n/a	LTP264	ltpFR	18	1	1	SWAN	1417	1	4	1	n/a	n/a	n/a	n/a	n/a
3017920	RECOG_RESP	n/a	LTP264	ltpFR	18	1	1	SWAN	1417	1	n/a	1	n/a	n/a	n/a	n/a	n/a
3018405	RECOG_CONF	n/a	LTP264	ltpFR	18	1	1	SWAN	1417	n/a	4	1	n/a	n/a	n/a	n/a	n/a
3020247	RECOG_LURE	n/a	LTP264	ltpFR	18	1	n/a	NAPKIN	937	1	2	n/a	n/a	n/a	n/a	n/a	n/a
3020555	RECOG_RESP	n/a	LTP264	ltpFR	18	1	n/a	NAPKIN	937	1	n/a	n/a	n/a	n/a	n/a	n/a	n/a
3021005	RECOG_CONF	n/a	LTP264	ltpFR	18	1	n/a	NAPKIN	937	n/a	2	n/a	n/a	n/a	n/a	n/a	n/a
3022973	RECOG_TARGET	n/a	LTP264	ltpFR	18	1	1	COPIER	377	1	5	1	n/a	n/a	n/a	n/a	n/a
3023520	RECOG_RESP	n/a	LTP264	ltpFR	18	1	1	COPIER	377	1	n/a	1	n/a	n/a	n/a	n/a	n/a
3023985	RECOG_CONF	n/a	LTP264	ltpFR	18	1	1	COPIER	377	n/a	5	1	n/a	n/a	n/a	n/a	n/a
3025750	RECOG_TARGET	n/a	LTP264	ltpFR	18	1	-1	WAGON	1578	1	5	-1	n/a	n/a	n/a	n/a	n/a
3026070	RECOG_RESP	n/a	LTP264	ltpFR	18	1	-1	WAGON	1578	1	n/a	-1	n/a	n/a	n/a	n/a	n/a
3026545	RECOG_CONF	n/a	LTP264	ltpFR	18	1	-1	WAGON	1578	n/a	5	-1	n/a	n/a	n/a	n/a	n/a
3028344	RECOG_TARGET	n/a	LTP264	ltpFR	18	1	1	NOTEBOOK	959	1	2	0	n/a	n/a	n/a	n/a	n/a
3028585	RECOG_RESP	n/a	LTP264	ltpFR	18	1	1	NOTEBOOK	959	1	n/a	0	n/a	n/a	n/a	n/a	n/a
3029225	RECOG_CONF	n/a	LTP264	ltpFR	18	1	1	NOTEBOOK	959	n/a	2	0	n/a	n/a	n/a	n/a	n/a
3030986	RECOG_LURE	n/a	LTP264	ltpFR	18	1	n/a	MOTORCYCLE	923	0	5	n/a	n/a	n/a	n/a	n/a	n/a
3031220	RECOG_RESP_VV	n/a	LTP264	ltpFR	18	1	n/a	MOTORCYCLE	923	1	n/a	n/a	n/a	n/a	n/a	n/a	n/a
3031895	RECOG_RESP	n/a	LTP264	ltpFR	18	1	n/a	MOTORCYCLE	923	0	n/a	n/a	n/a	n/a	n/a	n/a	n/a
3032475	RECOG_CONF	n/a	LTP264	ltpFR	18	1	n/a	MOTORCYCLE	923	n/a	5	n/a	n/a	n/a	n/a	n/a	n/a
3034014	RECOG_LURE	n/a	LTP264	ltpFR	18	1	n/a	COW	393	1	3	n/a	n/a	n/a	n/a	n/a	n/a
3034240	RECOG_RESP	n/a	LTP264	ltpFR	18	1	n/a	COW	393	1	n/a	n/a	n/a	n/a	n/a	n/a	n/a
3034795	RECOG_CONF	n/a	LTP264	ltpFR	18	1	n/a	COW	393	n/a	3	n/a	n/a	n/a	n/a	n/a	n/a
3038128	REC_START	n/a	LTP264	ltpFR	18	2	n/a	n/a	n/a	n/a	n/a	n/a	n/a	n/a	n/a	n/a	n/a
3038180	RECOG_LURE	n/a	LTP264	ltpFR	18	2	n/a	WALNUT	1584	1	4	n/a	n/a	n/a	n/a	n/a	n/a
3038653	RECOG_RESP	n/a	LTP264	ltpFR	18	2	n/a	WALNUT	1584	1	n/a	n/a	n/a	n/a	n/a	n/a	n/a
3039098	RECOG_CONF	n/a	LTP264	ltpFR	18	2	n/a	WALNUT	1584	n/a	4	n/a	n/a	n/a	n/a	n/a	n/a
3040756	RECOG_TARGET	n/a	LTP264	ltpFR	18	2	0	SLEIGH	1325	1	5	1	n/a	n/a	n/a	n/a	n/a
3041943	RECOG_RESP	n/a	LTP264	ltpFR	18	2	0	SLEIGH	1325	1	n/a	1	n/a	n/a	n/a	n/a	n/a
3042368	RECOG_CONF	n/a	LTP264	ltpFR	18	2	0	SLEIGH	1325	n/a	5	1	n/a	n/a	n/a	n/a	n/a
3044186	RECOG_LURE	n/a	LTP264	ltpFR	18	2	n/a	FUR	615	0	3	n/a	n/a	n/a	n/a	n/a	n/a
3044888	RECOG_RESP	n/a	LTP264	ltpFR	18	2	n/a	FUR	615	0	n/a	n/a	n/a	n/a	n/a	n/a	n/a
3045228	RECOG_CONF	n/a	LTP264	ltpFR	18	2	n/a	FUR	615	n/a	3	n/a	n/a	n/a	n/a	n/a	n/a
3047080	RECOG_TARGET	n/a	LTP264	ltpFR	18	2	-1	BRIDGE	174	1	4	-1	n/a	n/a	n/a	n/a	n/a
3047383	RECOG_RESP	n/a	LTP264	ltpFR	18	2	-1	BRIDGE	174	1	n/a	-1	n/a	n/a	n/a	n/a	n/a
3047878	RECOG_CONF	n/a	LTP264	ltpFR	18	2	-1	BRIDGE	174	n/a	4	-1	n/a	n/a	n/a	n/a	n/a
3049657	RECOG_TARGET	n/a	LTP264	ltpFR	18	2	0	COOKBOOK	373	1	5	0	n/a	n/a	n/a	n/a	n/a
3049978	RECOG_RESP	n/a	LTP264	ltpFR	18	2	0	COOKBOOK	373	1	n/a	0	n/a	n/a	n/a	n/a	n/a
3050468	RECOG_CONF	n/a	LTP264	ltpFR	18	2	0	COOKBOOK	373	n/a	5	0	n/a	n/a	n/a	n/a	n/a
3052133	RECOG_TARGET	n/a	LTP264	ltpFR	18	2	0	BRIDE	173	1	3	1	n/a	n/a	n/a	n/a	n/a
3052448	RECOG_RESP	n/a	LTP264	ltpFR	18	2	0	BRIDE	173	1	n/a	1	n/a	n/a	n/a	n/a	n/a
3052958	RECOG_CONF	n/a	LTP264	ltpFR	18	2	0	BRIDE	173	n/a	3	1	n/a	n/a	n/a	n/a	n/a
3054659	RECOG_LURE	n/a	LTP264	ltpFR	18	2	n/a	PLATE	1086	1	4	n/a	n/a	n/a	n/a	n/a	n/a
3054943	RECOG_RESP	n/a	LTP264	ltpFR	18	2	n/a	PLATE	1086	1	n/a	n/a	n/a	n/a	n/a	n/a	n/a
3055538	RECOG_CONF	n/a	LTP264	ltpFR	18	2	n/a	PLATE	1086	n/a	4	n/a	n/a	n/a	n/a	n/a	n/a
3057115	RECOG_TARGET	n/a	LTP264	ltpFR	18	2	0	DIPLOMA	470	1	5	1	n/a	n/a	n/a	n/a	n/a
3057413	RECOG_RESP	n/a	LTP264	ltpFR	18	2	0	DIPLOMA	470	1	n/a	1	n/a	n/a	n/a	n/a	n/a
3057948	RECOG_CONF	n/a	LTP264	ltpFR	18	2	0	DIPLOMA	470	n/a	5	1	n/a	n/a	n/a	n/a	n/a
3059792	RECOG_TARGET	n/a	LTP264	ltpFR	18	2	0	CANARY	227	1	3	1	n/a	n/a	n/a	n/a	n/a
3060003	RECOG_RESP	n/a	LTP264	ltpFR	18	2	0	CANARY	227	1	n/a	1	n/a	n/a	n/a	n/a	n/a
3060528	RECOG_CONF	n/a	LTP264	ltpFR	18	2	0	CANARY	227	n/a	3	1	n/a	n/a	n/a	n/a	n/a
3062322	RECOG_LURE	n/a	LTP264	ltpFR	18	2	n/a	FRAME	600	1	4	n/a	n/a	n/a	n/a	n/a	n/a
3062538	RECOG_RESP	n/a	LTP264	ltpFR	18	2	n/a	FRAME	600	1	n/a	n/a	n/a	n/a	n/a	n/a	n/a
3063078	RECOG_CONF	n/a	LTP264	ltpFR	18	2	n/a	FRAME	600	n/a	4	n/a	n/a	n/a	n/a	n/a	n/a
3064780	RECOG_LURE	n/a	LTP264	ltpFR	18	2	n/a	RAILROAD	1162	0	5	n/a	n/a	n/a	n/a	n/a	n/a
3065703	RECOG_RESP	n/a	LTP264	ltpFR	18	2	n/a	RAILROAD	1162	0	n/a	n/a	n/a	n/a	n/a	n/a	n/a
3066618	RECOG_CONF	n/a	LTP264	ltpFR	18	2	n/a	RAILROAD	1162	n/a	5	n/a	n/a	n/a	n/a	n/a	n/a
3068444	RECOG_TARGET	n/a	LTP264	ltpFR	18	2	-1	OZONE	996	1	5	-1	n/a	n/a	n/a	n/a	n/a
3069038	RECOG_RESP	n/a	LTP264	ltpFR	18	2	-1	OZONE	996	1	n/a	-1	n/a	n/a	n/a	n/a	n/a
3069468	RECOG_CONF	n/a	LTP264	ltpFR	18	2	-1	OZONE	996	n/a	5	-1	n/a	n/a	n/a	n/a	n/a
3071306	RECOG_LURE	n/a	LTP264	ltpFR	18	2	n/a	GIRAFFE	636	0	5	n/a	n/a	n/a	n/a	n/a	n/a
3072143	RECOG_RESP	n/a	LTP264	ltpFR	18	2	n/a	GIRAFFE	636	0	n/a	n/a	n/a	n/a	n/a	n/a	n/a
3072688	RECOG_CONF	n/a	LTP264	ltpFR	18	2	n/a	GIRAFFE	636	n/a	5	n/a	n/a	n/a	n/a	n/a	n/a
3074351	RECOG_LURE	n/a	LTP264	ltpFR	18	2	n/a	CRACKER	398	0	5	n/a	n/a	n/a	n/a	n/a	n/a
3074613	RECOG_RESP_VV	n/a	LTP264	ltpFR	18	2	n/a	CRACKER	398	1	n/a	n/a	n/a	n/a	n/a	n/a	n/a
3075343	RECOG_RESP	n/a	LTP264	ltpFR	18	2	n/a	CRACKER	398	0	n/a	n/a	n/a	n/a	n/a	n/a	n/a
3075898	RECOG_CONF	n/a	LTP264	ltpFR	18	2	n/a	CRACKER	398	n/a	5	n/a	n/a	n/a	n/a	n/a	n/a
3077528	RECOG_LURE	n/a	LTP264	ltpFR	18	2	n/a	ROBE	1198	0	5	n/a	n/a	n/a	n/a	n/a	n/a
3078328	RECOG_RESP	n/a	LTP264	ltpFR	18	2	n/a	ROBE	1198	0	n/a	n/a	n/a	n/a	n/a	n/a	n/a
3078678	RECOG_CONF	n/a	LTP264	ltpFR	18	2	n/a	ROBE	1198	n/a	5	n/a	n/a	n/a	n/a	n/a	n/a
3080456	RECOG_TARGET	n/a	LTP264	ltpFR	18	2	-1	BACK	65	1	5	-1	n/a	n/a	n/a	n/a	n/a
3081348	RECOG_RESP	n/a	LTP264	ltpFR	18	2	-1	BACK	65	1	n/a	-1	n/a	n/a	n/a	n/a	n/a
3081838	RECOG_CONF	n/a	LTP264	ltpFR	18	2	-1	BACK	65	n/a	5	-1	n/a	n/a	n/a	n/a	n/a
3083565	RECOG_LURE	n/a	LTP264	ltpFR	18	2	n/a	CLOUD	328	0	5	n/a	n/a	n/a	n/a	n/a	n/a
3085173	RECOG_RESP	n/a	LTP264	ltpFR	18	2	n/a	CLOUD	328	0	n/a	n/a	n/a	n/a	n/a	n/a	n/a
3085598	RECOG_CONF	n/a	LTP264	ltpFR	18	2	n/a	CLOUD	328	n/a	5	n/a	n/a	n/a	n/a	n/a	n/a
3087316	RECOG_TARGET	n/a	LTP264	ltpFR	18	2	0	CRUMB	416	1	5	0	n/a	n/a	n/a	n/a	n/a
3087608	RECOG_RESP	n/a	LTP264	ltpFR	18	2	0	CRUMB	416	1	n/a	0	n/a	n/a	n/a	n/a	n/a
3088088	RECOG_CONF	n/a	LTP264	ltpFR	18	2	0	CRUMB	416	n/a	5	0	n/a	n/a	n/a	n/a	n/a
3089975	RECOG_TARGET	n/a	LTP264	ltpFR	18	2	1	NOTE	958	1	5	1	n/a	n/a	n/a	n/a	n/a
3090168	RECOG_RESP	n/a	LTP264	ltpFR	18	2	1	NOTE	958	1	n/a	1	n/a	n/a	n/a	n/a	n/a
3090628	RECOG_CONF	n/a	LTP264	ltpFR	18	2	1	NOTE	958	n/a	5	1	n/a	n/a	n/a	n/a	n/a
3092384	RECOG_LURE	n/a	LTP264	ltpFR	18	2	n/a	GANGSTER	620	0	5	n/a	n/a	n/a	n/a	n/a	n/a
3093108	RECOG_RESP	n/a	LTP264	ltpFR	18	2	n/a	GANGSTER	620	0	n/a	n/a	n/a	n/a	n/a	n/a	n/a
3093488	RECOG_CONF	n/a	LTP264	ltpFR	18	2	n/a	GANGSTER	620	n/a	5	n/a	n/a	n/a	n/a	n/a	n/a
3096692	REC_START	n/a	LTP264	ltpFR	18	3	n/a	n/a	n/a	n/a	n/a	n/a	n/a	n/a	n/a	n/a	n/a
3096751	RECOG_LURE	n/a	LTP264	ltpFR	18	3	n/a	CREAM	402	0	5	n/a	n/a	n/a	n/a	n/a	n/a
3097677	RECOG_RESP	n/a	LTP264	ltpFR	18	3	n/a	CREAM	402	0	n/a	n/a	n/a	n/a	n/a	n/a	n/a
3098042	RECOG_CONF	n/a	LTP264	ltpFR	18	3	n/a	CREAM	402	n/a	5	n/a	n/a	n/a	n/a	n/a	n/a
3099963	RECOG_TARGET	n/a	LTP264	ltpFR	18	3	-1	RESTAURANT	1187	1	5	-1	n/a	n/a	n/a	n/a	n/a
3100182	RECOG_RESP_VV	n/a	LTP264	ltpFR	18	3	-1	RESTAURANT	1187	0	n/a	-1	n/a	n/a	n/a	n/a	n/a
3100697	RECOG_RESP	n/a	LTP264	ltpFR	18	3	-1	RESTAURANT	1187	1	n/a	-1	n/a	n/a	n/a	n/a	n/a
3101122	RECOG_CONF	n/a	LTP264	ltpFR	18	3	-1	RESTAURANT	1187	n/a	5	-1	n/a	n/a	n/a	n/a	n/a
3102841	RECOG_LURE	n/a	LTP264	ltpFR	18	3	n/a	CHECK	284	1	5	n/a	n/a	n/a	n/a	n/a	n/a
3103097	RECOG_RESP	n/a	LTP264	ltpFR	18	3	n/a	CHECK	284	1	n/a	n/a	n/a	n/a	n/a	n/a	n/a
3103682	RECOG_CONF	n/a	LTP264	ltpFR	18	3	n/a	CHECK	284	n/a	5	n/a	n/a	n/a	n/a	n/a	n/a
3105301	RECOG_LURE	n/a	LTP264	ltpFR	18	3	n/a	CAFE	216	1	3	n/a	n/a	n/a	n/a	n/a	n/a
3106037	RECOG_RESP	n/a	LTP264	ltpFR	18	3	n/a	CAFE	216	1	n/a	n/a	n/a	n/a	n/a	n/a	n/a
3106652	RECOG_CONF	n/a	LTP264	ltpFR	18	3	n/a	CAFE	216	n/a	3	n/a	n/a	n/a	n/a	n/a	n/a
3108295	RECOG_LURE	n/a	LTP264	ltpFR	18	3	n/a	BOTTLE	153	0	5	n/a	n/a	n/a	n/a	n/a	n/a
3109367	RECOG_RESP	n/a	LTP264	ltpFR	18	3	n/a	BOTTLE	153	0	n/a	n/a	n/a	n/a	n/a	n/a	n/a
3109872	RECOG_CONF	n/a	LTP264	ltpFR	18	3	n/a	BOTTLE	153	n/a	5	n/a	n/a	n/a	n/a	n/a	n/a
3111389	RECOG_TARGET	n/a	LTP264	ltpFR	18	3	1	LINT	826	1	5	0	n/a	n/a	n/a	n/a	n/a
3112022	RECOG_RESP	n/a	LTP264	ltpFR	18	3	1	LINT	826	1	n/a	0	n/a	n/a	n/a	n/a	n/a
3112452	RECOG_CONF	n/a	LTP264	ltpFR	18	3	1	LINT	826	n/a	5	0	n/a	n/a	n/a	n/a	n/a
3114167	RECOG_LURE	n/a	LTP264	ltpFR	18	3	n/a	SAGE	1222	0	3	n/a	n/a	n/a	n/a	n/a	n/a
3115242	RECOG_RESP	n/a	LTP264	ltpFR	18	3	n/a	SAGE	1222	0	n/a	n/a	n/a	n/a	n/a	n/a	n/a
3116022	RECOG_CONF	n/a	LTP264	ltpFR	18	3	n/a	SAGE	1222	n/a	3	n/a	n/a	n/a	n/a	n/a	n/a
3117864	RECOG_TARGET	n/a	LTP264	ltpFR	18	3	-1	TRAIN	1494	1	5	-1	n/a	n/a	n/a	n/a	n/a
3118432	RECOG_RESP	n/a	LTP264	ltpFR	18	3	-1	TRAIN	1494	1	n/a	-1	n/a	n/a	n/a	n/a	n/a
3118882	RECOG_CONF	n/a	LTP264	ltpFR	18	3	-1	TRAIN	1494	n/a	5	-1	n/a	n/a	n/a	n/a	n/a
3120641	RECOG_TARGET	n/a	LTP264	ltpFR	18	3	1	BASKETBALL	96	1	3	0	n/a	n/a	n/a	n/a	n/a
3120852	RECOG_RESP	n/a	LTP264	ltpFR	18	3	1	BASKETBALL	96	1	n/a	0	n/a	n/a	n/a	n/a	n/a
3122432	RECOG_CONF	n/a	LTP264	ltpFR	18	3	1	BASKETBALL	96	n/a	3	0	n/a	n/a	n/a	n/a	n/a
3124272	RECOG_LURE	n/a	LTP264	ltpFR	18	3	n/a	SPACE	1345	1	4	n/a	n/a	n/a	n/a	n/a	n/a
3124547	RECOG_RESP	n/a	LTP264	ltpFR	18	3	n/a	SPACE	1345	1	n/a	n/a	n/a	n/a	n/a	n/a	n/a
3124982	RECOG_CONF	n/a	LTP264	ltpFR	18	3	n/a	SPACE	1345	n/a	4	n/a	n/a	n/a	n/a	n/a	n/a
3126730	RECOG_TARGET	n/a	LTP264	ltpFR	18	3	-1	NEST	945	1	5	-1	n/a	n/a	n/a	n/a	n/a
3127077	RECOG_RESP	n/a	LTP264	ltpFR	18	3	-1	NEST	945	1	n/a	-1	n/a	n/a	n/a	n/a	n/a
3127532	RECOG_CONF	n/a	LTP264	ltpFR	18	3	-1	NEST	945	n/a	5	-1	n/a	n/a	n/a	n/a	n/a
3129325	RECOG_LURE	n/a	LTP264	ltpFR	18	3	n/a	VIDEO	1564	0	5	n/a	n/a	n/a	n/a	n/a	n/a
3130097	RECOG_RESP	n/a	LTP264	ltpFR	18	3	n/a	VIDEO	1564	0	n/a	n/a	n/a	n/a	n/a	n/a	n/a
3130412	RECOG_CONF	n/a	LTP264	ltpFR	18	3	n/a	VIDEO	1564	n/a	5	n/a	n/a	n/a	n/a	n/a	n/a
3132368	RECOG_LURE	n/a	LTP264	ltpFR	18	3	n/a	GROCERY	664	0	5	n/a	n/a	n/a	n/a	n/a	n/a
3136557	RECOG_RESP	n/a	LTP264	ltpFR	18	3	n/a	GROCERY	664	0	n/a	n/a	n/a	n/a	n/a	n/a	n/a
3137102	RECOG_CONF	n/a	LTP264	ltpFR	18	3	n/a	GROCERY	664	n/a	5	n/a	n/a	n/a	n/a	n/a	n/a
3138907	RECOG_LURE	n/a	LTP264	ltpFR	18	3	n/a	BIRD	129	1	3	n/a	n/a	n/a	n/a	n/a	n/a
