onset	duration	trial_type	sample	stim_file	subject	experiment	session	trial	item_name	item_num	list	answer	test_x	test_y	test_z
208.91845703125	n/a	SESS_START	427865	n/a	LTP348	ltpFR2	9	n/a	n/a	n/a	n/a	n/a	0	0	0
223.66357421875	n/a	START	458063	n/a	LTP348	ltpFR2	9	n/a	n/a	n/a	-1	n/a	n/a	n/a	n/a
223.69482421875	n/a	PROB	458127	n/a	LTP348	ltpFR2	9	n/a	n/a	n/a	-1	16	2	7	7
225.810546875	n/a	PROB	462460	n/a	LTP348	ltpFR2	9	n/a	n/a	n/a	-1	40	2	2	6
229.357421875	n/a	PROB	469724	n/a	LTP348	ltpFR2	9	n/a	n/a	n/a	-1	17	5	5	7
230.90771484375	n/a	PROB	472899	n/a	LTP348	ltpFR2	9	n/a	n/a	n/a	-1	17	8	7	2
234.6474609375	n/a	STOP	480558	n/a	LTP348	ltpFR2	9	n/a	n/a	n/a	-1	n/a	n/a	n/a	n/a
273.0869140625	n/a	WORD	559282	wordpools/wasnorm_wordpool_576.txt	LTP348	ltpFR2	9	1	STALLION	1369	n/a	n/a	0	0	0
275.81982421875	n/a	WORD	564879	wordpools/wasnorm_wordpool_576.txt	LTP348	ltpFR2	9	1	MARINE	869	n/a	n/a	0	0	0
278.2841796875	n/a	WORD	569926	wordpools/wasnorm_wordpool_576.txt	LTP348	ltpFR2	9	1	MILK	895	n/a	n/a	0	0	0
280.9990234375	n/a	WORD	575486	wordpools/wasnorm_wordpool_576.txt	LTP348	ltpFR2	9	1	CATTLE	261	n/a	n/a	0	0	0
283.5810546875	n/a	WORD	580774	wordpools/wasnorm_wordpool_576.txt	LTP348	ltpFR2	9	1	FILM	565	n/a	n/a	0	0	0
286.26318359375	n/a	WORD	586267	wordpools/wasnorm_wordpool_576.txt	LTP348	ltpFR2	9	1	MARSH	874	n/a	n/a	0	0	0
288.9130859375	n/a	WORD	591694	wordpools/wasnorm_wordpool_576.txt	LTP348	ltpFR2	9	1	BADGE	68	n/a	n/a	0	0	0
291.4111328125	n/a	WORD	596810	wordpools/wasnorm_wordpool_576.txt	LTP348	ltpFR2	9	1	DOUGHNUT	490	n/a	n/a	0	0	0
294.1591796875	n/a	WORD	602438	wordpools/wasnorm_wordpool_576.txt	LTP348	ltpFR2	9	1	PAIL	1002	n/a	n/a	0	0	0
296.72607421875	n/a	WORD	607695	wordpools/wasnorm_wordpool_576.txt	LTP348	ltpFR2	9	1	CRATER	400	n/a	n/a	0	0	0
299.45703125	n/a	WORD	613288	wordpools/wasnorm_wordpool_576.txt	LTP348	ltpFR2	9	1	FOOTBALL	591	n/a	n/a	0	0	0
301.9892578125	n/a	WORD	618474	wordpools/wasnorm_wordpool_576.txt	LTP348	ltpFR2	9	1	STAPLE	1371	n/a	n/a	0	0	0
304.5712890625	n/a	WORD	623762	wordpools/wasnorm_wordpool_576.txt	LTP348	ltpFR2	9	1	FOOT	590	n/a	n/a	0	0	0
307.02001953125	n/a	WORD	628777	wordpools/wasnorm_wordpool_576.txt	LTP348	ltpFR2	9	1	SUPPER	1411	n/a	n/a	0	0	0
309.80322265625	n/a	WORD	634477	wordpools/wasnorm_wordpool_576.txt	LTP348	ltpFR2	9	1	KNAPSACK	783	n/a	n/a	0	0	0
312.583984375	n/a	WORD	640172	wordpools/wasnorm_wordpool_576.txt	LTP348	ltpFR2	9	1	PAPER	1011	n/a	n/a	0	0	0
315.1162109375	n/a	WORD	645358	wordpools/wasnorm_wordpool_576.txt	LTP348	ltpFR2	9	1	OUTDOORS	987	n/a	n/a	0	0	0
317.865234375	n/a	WORD	650988	wordpools/wasnorm_wordpool_576.txt	LTP348	ltpFR2	9	1	VALLEY	1545	n/a	n/a	0	0	0
320.54638671875	n/a	WORD	656479	wordpools/wasnorm_wordpool_576.txt	LTP348	ltpFR2	9	1	CHURCH	307	n/a	n/a	0	0	0
323.1953125	n/a	WORD	661904	wordpools/wasnorm_wordpool_576.txt	LTP348	ltpFR2	9	1	GUARD	667	n/a	n/a	0	0	0
325.62744140625	n/a	WORD	666885	wordpools/wasnorm_wordpool_576.txt	LTP348	ltpFR2	9	1	VELVET	1555	n/a	n/a	0	0	0
328.22607421875	n/a	WORD	672207	wordpools/wasnorm_wordpool_576.txt	LTP348	ltpFR2	9	1	SILK	1307	n/a	n/a	0	0	0
330.94140625	n/a	WORD	677768	wordpools/wasnorm_wordpool_576.txt	LTP348	ltpFR2	9	1	GARBAGE	622	n/a	n/a	0	0	0
333.490234375	n/a	WORD	682988	wordpools/wasnorm_wordpool_576.txt	LTP348	ltpFR2	9	1	DIME	466	n/a	n/a	0	0	0
335.1064453125	n/a	START	686298	n/a	LTP348	ltpFR2	9	n/a	n/a	n/a	1	n/a	n/a	n/a	n/a
336.0595703125	n/a	DISTRACTOR	688250	n/a	LTP348	ltpFR2	9	1	n/a	n/a	n/a	n/a	0	0	0
336.072265625	n/a	PROB	688276	n/a	LTP348	ltpFR2	9	n/a	n/a	n/a	1	22	9	4	9
339.17041015625	n/a	PROB	694621	n/a	LTP348	ltpFR2	9	n/a	n/a	n/a	1	18	9	3	6
342.25244140625	n/a	PROB	700933	n/a	LTP348	ltpFR2	9	n/a	n/a	n/a	1	16	5	9	2
346.150390625	n/a	PROB	708916	n/a	LTP348	ltpFR2	9	n/a	n/a	n/a	1	18	2	8	8
348.283203125	n/a	PROB	713284	n/a	LTP348	ltpFR2	9	n/a	n/a	n/a	1	13	1	6	6
349.7001953125	n/a	PROB	716186	n/a	LTP348	ltpFR2	9	n/a	n/a	n/a	1	23	7	8	6
355.0966796875	n/a	PROB	727238	n/a	LTP348	ltpFR2	9	n/a	n/a	n/a	1	17	4	6	7
359.10546875	n/a	STOP	735448	n/a	LTP348	ltpFR2	9	n/a	n/a	n/a	1	n/a	n/a	n/a	n/a
361.02734375	n/a	REC_START	739384	n/a	LTP348	ltpFR2	9	1	n/a	n/a	n/a	n/a	0	0	0
361.33251953125	n/a	REC_WORD	740009	wordpools/wasnorm_wordpool_576.txt	LTP348	ltpFR2	9	1	STALLION	1369	n/a	n/a	0	0	0
362.13232421875	n/a	REC_WORD	741647	wordpools/wasnorm_wordpool_576.txt	LTP348	ltpFR2	9	1	MARSH	874	n/a	n/a	0	0	0
362.8603515625	n/a	REC_WORD	743138	wordpools/wasnorm_wordpool_576.txt	LTP348	ltpFR2	9	1	VELVET	1555	n/a	n/a	0	0	0
363.37841796875	n/a	REC_WORD	744199	wordpools/wasnorm_wordpool_576.txt	LTP348	ltpFR2	9	1	SILK	1307	n/a	n/a	0	0	0
364.0673828125	n/a	REC_WORD	745610	wordpools/wasnorm_wordpool_576.txt	LTP348	ltpFR2	9	1	KNAPSACK	783	n/a	n/a	0	0	0
373.99853515625	n/a	REC_WORD	765949	wordpools/wasnorm_wordpool_576.txt	LTP348	ltpFR2	9	1	SHIRT	1287	n/a	n/a	0	0	0
380.95654296875	n/a	REC_WORD	780199	wordpools/wasnorm_wordpool_576.txt	LTP348	ltpFR2	9	1	BADGE	68	n/a	n/a	0	0	0
382.24951171875	n/a	REC_WORD	782847	wordpools/wasnorm_wordpool_576.txt	LTP348	ltpFR2	9	1	DRAGON	492	n/a	n/a	0	0	0
382.8974609375	n/a	REC_WORD	784174	wordpools/wasnorm_wordpool_576.txt	LTP348	ltpFR2	9	1	DANGER	-1	n/a	n/a	0	0	0
402.66259765625	n/a	REC_WORD	824653	wordpools/wasnorm_wordpool_576.txt	LTP348	ltpFR2	9	1	FOOTBALL	591	n/a	n/a	0	0	0
451.4658203125	n/a	DISTRACTOR	924602	n/a	LTP348	ltpFR2	9	2	n/a	n/a	n/a	n/a	0	0	0
451.4658203125	n/a	START	924602	n/a	LTP348	ltpFR2	9	n/a	n/a	n/a	2	n/a	n/a	n/a	n/a
451.48193359375	n/a	PROB	924635	n/a	LTP348	ltpFR2	9	n/a	n/a	n/a	2	16	3	6	7
454.248046875	n/a	PROB	930300	n/a	LTP348	ltpFR2	9	n/a	n/a	n/a	2	11	5	1	5
456.06298828125	n/a	PROB	934017	n/a	LTP348	ltpFR2	9	n/a	n/a	n/a	2	16	3	4	9
460.494140625	n/a	PROB	943092	n/a	LTP348	ltpFR2	9	n/a	n/a	n/a	2	10	2	1	7
462.52734375	n/a	PROB	947256	n/a	LTP348	ltpFR2	9	n/a	n/a	n/a	2	16	7	7	2
464.326171875	n/a	PROB	950940	n/a	LTP348	ltpFR2	9	n/a	n/a	n/a	2	18	8	7	3
466.275390625	n/a	PROB	954932	n/a	LTP348	ltpFR2	9	n/a	n/a	n/a	2	15	3	4	8
470.35595703125	n/a	PROB	963289	n/a	LTP348	ltpFR2	9	n/a	n/a	n/a	2	11	4	6	1
472.02197265625	n/a	PROB	966701	n/a	LTP348	ltpFR2	9	n/a	n/a	n/a	2	16	9	5	2
474.89013671875	n/a	STOP	972575	n/a	LTP348	ltpFR2	9	n/a	n/a	n/a	2	n/a	n/a	n/a	n/a
476.4873046875	n/a	WORD	975846	wordpools/wasnorm_wordpool_576.txt	LTP348	ltpFR2	9	2	WRENCH	1625	n/a	n/a	0	0	0
479.25244140625	n/a	WORD	981509	wordpools/wasnorm_wordpool_576.txt	LTP348	ltpFR2	9	2	TWEEZERS	1526	n/a	n/a	0	0	0
481.984375	n/a	WORD	987104	wordpools/wasnorm_wordpool_576.txt	LTP348	ltpFR2	9	2	LOFT	840	n/a	n/a	0	0	0
484.56640625	n/a	WORD	992392	wordpools/wasnorm_wordpool_576.txt	LTP348	ltpFR2	9	2	CHAPEL	280	n/a	n/a	0	0	0
487.1982421875	n/a	WORD	997782	wordpools/wasnorm_wordpool_576.txt	LTP348	ltpFR2	9	2	SUBWAY	1400	n/a	n/a	0	0	0
489.79833984375	n/a	WORD	1003107	wordpools/wasnorm_wordpool_576.txt	LTP348	ltpFR2	9	2	CRAB	397	n/a	n/a	0	0	0
492.42919921875	n/a	WORD	1008495	wordpools/wasnorm_wordpool_576.txt	LTP348	ltpFR2	9	2	DONKEY	484	n/a	n/a	0	0	0
495.01123046875	n/a	WORD	1013783	wordpools/wasnorm_wordpool_576.txt	LTP348	ltpFR2	9	2	MUMMY	932	n/a	n/a	0	0	0
497.45947265625	n/a	WORD	1018797	wordpools/wasnorm_wordpool_576.txt	LTP348	ltpFR2	9	2	EGYPT	519	n/a	n/a	0	0	0
499.9755859375	n/a	WORD	1023950	wordpools/wasnorm_wordpool_576.txt	LTP348	ltpFR2	9	2	COWBOY	395	n/a	n/a	0	0	0
502.42431640625	n/a	WORD	1028965	wordpools/wasnorm_wordpool_576.txt	LTP348	ltpFR2	9	2	CROSS	413	n/a	n/a	0	0	0
505.08935546875	n/a	WORD	1034423	wordpools/wasnorm_wordpool_576.txt	LTP348	ltpFR2	9	2	CANDY	230	n/a	n/a	0	0	0
507.53857421875	n/a	WORD	1039439	wordpools/wasnorm_wordpool_576.txt	LTP348	ltpFR2	9	2	PARSLEY	1016	n/a	n/a	0	0	0
510.30322265625	n/a	WORD	1045101	wordpools/wasnorm_wordpool_576.txt	LTP348	ltpFR2	9	2	SADDLE	1221	n/a	n/a	0	0	0
512.7705078125	n/a	WORD	1050154	wordpools/wasnorm_wordpool_576.txt	LTP348	ltpFR2	9	2	PERMIT	1051	n/a	n/a	0	0	0
515.50146484375	n/a	WORD	1055747	wordpools/wasnorm_wordpool_576.txt	LTP348	ltpFR2	9	2	REBEL	1172	n/a	n/a	0	0	0
518.08349609375	n/a	WORD	1061035	wordpools/wasnorm_wordpool_576.txt	LTP348	ltpFR2	9	2	MASK	876	n/a	n/a	0	0	0
520.515625	n/a	WORD	1066016	wordpools/wasnorm_wordpool_576.txt	LTP348	ltpFR2	9	2	THRONE	1461	n/a	n/a	0	0	0
522.99755859375	n/a	WORD	1071099	wordpools/wasnorm_wordpool_576.txt	LTP348	ltpFR2	9	2	HEADBAND	696	n/a	n/a	0	0	0
525.74658203125	n/a	WORD	1076729	wordpools/wasnorm_wordpool_576.txt	LTP348	ltpFR2	9	2	POISON	1096	n/a	n/a	0	0	0
528.427734375	n/a	WORD	1082220	wordpools/wasnorm_wordpool_576.txt	LTP348	ltpFR2	9	2	BEAST	108	n/a	n/a	0	0	0
531.20947265625	n/a	WORD	1087917	wordpools/wasnorm_wordpool_576.txt	LTP348	ltpFR2	9	2	PENGUIN	1044	n/a	n/a	0	0	0
533.8427734375	n/a	WORD	1093310	wordpools/wasnorm_wordpool_576.txt	LTP348	ltpFR2	9	2	BUTCHER	203	n/a	n/a	0	0	0
536.2744140625	n/a	WORD	1098290	wordpools/wasnorm_wordpool_576.txt	LTP348	ltpFR2	9	2	POET	1095	n/a	n/a	0	0	0
537.8916015625	n/a	START	1101602	n/a	LTP348	ltpFR2	9	n/a	n/a	n/a	3	n/a	n/a	n/a	n/a
538.93359375	n/a	DISTRACTOR	1103736	n/a	LTP348	ltpFR2	9	2	n/a	n/a	n/a	n/a	0	0	0
538.9404296875	n/a	PROB	1103750	n/a	LTP348	ltpFR2	9	n/a	n/a	n/a	3	22	9	4	9
542.00439453125	n/a	PROB	1110025	n/a	LTP348	ltpFR2	9	n/a	n/a	n/a	3	14	4	3	7
544.0205078125	n/a	PROB	1114154	n/a	LTP348	ltpFR2	9	n/a	n/a	n/a	3	10	4	3	3
545.8037109375	n/a	PROB	1117806	n/a	LTP348	ltpFR2	9	n/a	n/a	n/a	3	8	1	6	1
547.46875	n/a	PROB	1121216	n/a	LTP348	ltpFR2	9	n/a	n/a	n/a	3	7	5	1	1
549.6005859375	n/a	PROB	1125582	n/a	LTP348	ltpFR2	9	n/a	n/a	n/a	3	18	6	4	8
551.16650390625	n/a	PROB	1128789	n/a	LTP348	ltpFR2	9	n/a	n/a	n/a	3	20	8	8	4
552.78369140625	n/a	PROB	1132101	n/a	LTP348	ltpFR2	9	n/a	n/a	n/a	3	9	4	3	2
554.66455078125	n/a	PROB	1135953	n/a	LTP348	ltpFR2	9	n/a	n/a	n/a	3	22	8	8	6
561.8916015625	n/a	STOP	1150754	n/a	LTP348	ltpFR2	9	n/a	n/a	n/a	3	n/a	n/a	n/a	n/a
563.72900390625	n/a	REC_START	1154517	n/a	LTP348	ltpFR2	9	2	n/a	n/a	n/a	n/a	0	0	0
564.36083984375	n/a	REC_WORD	1155811	wordpools/wasnorm_wordpool_576.txt	LTP348	ltpFR2	9	2	WRENCH	1625	n/a	n/a	0	0	0
565.15576171875	n/a	REC_WORD	1157439	wordpools/wasnorm_wordpool_576.txt	LTP348	ltpFR2	9	2	LOFT	840	n/a	n/a	0	0	0
566.12255859375	n/a	REC_WORD	1159419	wordpools/wasnorm_wordpool_576.txt	LTP348	ltpFR2	9	2	MUMMY	932	n/a	n/a	0	0	0
567.005859375	n/a	REC_WORD	1161228	wordpools/wasnorm_wordpool_576.txt	LTP348	ltpFR2	9	2	DONKEY	484	n/a	n/a	0	0	0
567.833984375	n/a	REC_WORD	1162924	wordpools/wasnorm_wordpool_576.txt	LTP348	ltpFR2	9	2	PENGUIN	1044	n/a	n/a	0	0	0
591.7431640625	n/a	REC_WORD	1211890	wordpools/wasnorm_wordpool_576.txt	LTP348	ltpFR2	9	2	COWBOY	395	n/a	n/a	0	0	0
606.70703125	n/a	REC_WORD	1242536	wordpools/wasnorm_wordpool_576.txt	LTP348	ltpFR2	9	2	POLICE	1098	n/a	n/a	0	0	0
654.18310546875	n/a	WORD	1339767	wordpools/wasnorm_wordpool_576.txt	LTP348	ltpFR2	9	3	UNCLE	1536	n/a	n/a	0	0	0
656.83251953125	n/a	WORD	1345193	wordpools/wasnorm_wordpool_576.txt	LTP348	ltpFR2	9	3	COMPASS	358	n/a	n/a	0	0	0
659.447265625	n/a	WORD	1350548	wordpools/wasnorm_wordpool_576.txt	LTP348	ltpFR2	9	3	LETTUCE	814	n/a	n/a	0	0	0
662.07958984375	n/a	WORD	1355939	wordpools/wasnorm_wordpool_576.txt	LTP348	ltpFR2	9	3	RADISH	1158	n/a	n/a	0	0	0
664.57763671875	n/a	WORD	1361055	wordpools/wasnorm_wordpool_576.txt	LTP348	ltpFR2	9	3	TEACHER	1440	n/a	n/a	0	0	0
667.0263671875	n/a	WORD	1366070	wordpools/wasnorm_wordpool_576.txt	LTP348	ltpFR2	9	3	BELLY	119	n/a	n/a	0	0	0
669.642578125	n/a	WORD	1371428	wordpools/wasnorm_wordpool_576.txt	LTP348	ltpFR2	9	3	COIN	343	n/a	n/a	0	0	0
672.4072265625	n/a	WORD	1377090	wordpools/wasnorm_wordpool_576.txt	LTP348	ltpFR2	9	3	PATROL	1027	n/a	n/a	0	0	0
675.072265625	n/a	WORD	1382548	wordpools/wasnorm_wordpool_576.txt	LTP348	ltpFR2	9	3	BLOCKADE	137	n/a	n/a	0	0	0
677.7724609375	n/a	WORD	1388078	wordpools/wasnorm_wordpool_576.txt	LTP348	ltpFR2	9	3	COOKBOOK	373	n/a	n/a	0	0	0
680.50341796875	n/a	WORD	1393671	wordpools/wasnorm_wordpool_576.txt	LTP348	ltpFR2	9	3	SLUG	1329	n/a	n/a	0	0	0
683.3017578125	n/a	WORD	1399402	wordpools/wasnorm_wordpool_576.txt	LTP348	ltpFR2	9	3	BUREAU	199	n/a	n/a	0	0	0
685.984375	n/a	WORD	1404896	wordpools/wasnorm_wordpool_576.txt	LTP348	ltpFR2	9	3	EAGLE	512	n/a	n/a	0	0	0
688.53271484375	n/a	WORD	1410115	wordpools/wasnorm_wordpool_576.txt	LTP348	ltpFR2	9	3	SNAIL	1332	n/a	n/a	0	0	0
691.2314453125	n/a	WORD	1415642	wordpools/wasnorm_wordpool_576.txt	LTP348	ltpFR2	9	3	SIBLING	1301	n/a	n/a	0	0	0
693.96337890625	n/a	WORD	1421237	wordpools/wasnorm_wordpool_576.txt	LTP348	ltpFR2	9	3	GLOBE	641	n/a	n/a	0	0	0
696.3955078125	n/a	WORD	1426218	wordpools/wasnorm_wordpool_576.txt	LTP348	ltpFR2	9	3	APRON	35	n/a	n/a	0	0	0
699.177734375	n/a	WORD	1431916	wordpools/wasnorm_wordpool_576.txt	LTP348	ltpFR2	9	3	FOX	598	n/a	n/a	0	0	0
701.9765625	n/a	WORD	1437648	wordpools/wasnorm_wordpool_576.txt	LTP348	ltpFR2	9	3	CATCHER	258	n/a	n/a	0	0	0
704.54150390625	n/a	WORD	1442901	wordpools/wasnorm_wordpool_576.txt	LTP348	ltpFR2	9	3	GRILL	661	n/a	n/a	0	0	0
707.29052734375	n/a	WORD	1448531	wordpools/wasnorm_wordpool_576.txt	LTP348	ltpFR2	9	3	COMET	353	n/a	n/a	0	0	0
709.8896484375	n/a	WORD	1453854	wordpools/wasnorm_wordpool_576.txt	LTP348	ltpFR2	9	3	PLAID	1080	n/a	n/a	0	0	0
712.4208984375	n/a	WORD	1459038	wordpools/wasnorm_wordpool_576.txt	LTP348	ltpFR2	9	3	ZIPPER	1636	n/a	n/a	0	0	0
715.20263671875	n/a	WORD	1464735	wordpools/wasnorm_wordpool_576.txt	LTP348	ltpFR2	9	3	BALLOON	75	n/a	n/a	0	0	0
716.81982421875	n/a	START	1468047	n/a	LTP348	ltpFR2	9	n/a	n/a	n/a	4	n/a	n/a	n/a	n/a
717.7236328125	n/a	DISTRACTOR	1469898	n/a	LTP348	ltpFR2	9	3	n/a	n/a	n/a	n/a	0	0	0
717.73583984375	n/a	PROB	1469923	n/a	LTP348	ltpFR2	9	n/a	n/a	n/a	4	13	2	3	8
721.25	n/a	PROB	1477120	n/a	LTP348	ltpFR2	9	n/a	n/a	n/a	4	6	3	2	1
723.78271484375	n/a	PROB	1482307	n/a	LTP348	ltpFR2	9	n/a	n/a	n/a	4	20	7	5	8
727.61376953125	n/a	PROB	1490153	n/a	LTP348	ltpFR2	9	n/a	n/a	n/a	4	19	6	9	4
730.61181640625	n/a	PROB	1496293	n/a	LTP348	ltpFR2	9	n/a	n/a	n/a	4	17	4	4	9
733.2607421875	n/a	PROB	1501718	n/a	LTP348	ltpFR2	9	n/a	n/a	n/a	4	19	3	7	9
734.86083984375	n/a	PROB	1504995	n/a	LTP348	ltpFR2	9	n/a	n/a	n/a	4	9	3	3	3
736.259765625	n/a	PROB	1507860	n/a	LTP348	ltpFR2	9	n/a	n/a	n/a	4	18	3	8	7
739.69970703125	n/a	STOP	1514905	n/a	LTP348	ltpFR2	9	n/a	n/a	n/a	4	n/a	n/a	n/a	n/a
742.60693359375	n/a	REC_START	1520859	n/a	LTP348	ltpFR2	9	3	n/a	n/a	n/a	n/a	0	0	0
743.419921875	n/a	REC_WORD	1522524	wordpools/wasnorm_wordpool_576.txt	LTP348	ltpFR2	9	3	ZIPPER	1636	n/a	n/a	0	0	0
744.18212890625	n/a	REC_WORD	1524085	wordpools/wasnorm_wordpool_576.txt	LTP348	ltpFR2	9	3	PLAID	1080	n/a	n/a	0	0	0
745.2119140625	n/a	REC_WORD	1526194	wordpools/wasnorm_wordpool_576.txt	LTP348	ltpFR2	9	3	UNCLE	1536	n/a	n/a	0	0	0
751.72509765625	n/a	REC_WORD	1539533	wordpools/wasnorm_wordpool_576.txt	LTP348	ltpFR2	9	3	FOX	598	n/a	n/a	0	0	0
752.65380859375	n/a	REC_WORD	1541435	wordpools/wasnorm_wordpool_576.txt	LTP348	ltpFR2	9	3	SLUG	1329	n/a	n/a	0	0	0
763.1640625	n/a	REC_WORD	1562960	wordpools/wasnorm_wordpool_576.txt	LTP348	ltpFR2	9	3	BUREAU	199	n/a	n/a	0	0	0
772.3369140625	n/a	REC_WORD	1581746	wordpools/wasnorm_wordpool_576.txt	LTP348	ltpFR2	9	3	CATCHER	258	n/a	n/a	0	0	0
833.07861328125	n/a	DISTRACTOR	1706145	n/a	LTP348	ltpFR2	9	4	n/a	n/a	n/a	n/a	0	0	0
833.07861328125	n/a	START	1706145	n/a	LTP348	ltpFR2	9	n/a	n/a	n/a	5	n/a	n/a	n/a	n/a
833.095703125	n/a	PROB	1706180	n/a	LTP348	ltpFR2	9	n/a	n/a	n/a	5	23	9	7	7
835.34423828125	n/a	PROB	1710785	n/a	LTP348	ltpFR2	9	n/a	n/a	n/a	5	13	1	3	9
837.693359375	n/a	PROB	1715596	n/a	LTP348	ltpFR2	9	n/a	n/a	n/a	5	17	5	5	7
839.0595703125	n/a	PROB	1718394	n/a	LTP348	ltpFR2	9	n/a	n/a	n/a	5	20	6	8	5
846.75634765625	n/a	PROB	1734157	n/a	LTP348	ltpFR2	9	n/a	n/a	n/a	5	13	7	4	2
850.6875	n/a	PROB	1742208	n/a	LTP348	ltpFR2	9	n/a	n/a	n/a	5	9	6	2	1
852.4853515625	n/a	PROB	1745890	n/a	LTP348	ltpFR2	9	n/a	n/a	n/a	5	11	1	4	6
857.07763671875	n/a	STOP	1755295	n/a	LTP348	ltpFR2	9	n/a	n/a	n/a	5	n/a	n/a	n/a	n/a
858.0166015625	n/a	WORD	1757218	wordpools/wasnorm_wordpool_576.txt	LTP348	ltpFR2	9	4	CASKET	255	n/a	n/a	0	0	0
860.4658203125	n/a	WORD	1762234	wordpools/wasnorm_wordpool_576.txt	LTP348	ltpFR2	9	4	MEAT	883	n/a	n/a	0	0	0
863.19775390625	n/a	WORD	1767829	wordpools/wasnorm_wordpool_576.txt	LTP348	ltpFR2	9	4	GALLON	618	n/a	n/a	0	0	0
865.763671875	n/a	WORD	1773084	wordpools/wasnorm_wordpool_576.txt	LTP348	ltpFR2	9	4	WIDOW	1608	n/a	n/a	0	0	0
868.36181640625	n/a	WORD	1778405	wordpools/wasnorm_wordpool_576.txt	LTP348	ltpFR2	9	4	PARTNER	1017	n/a	n/a	0	0	0
870.89453125	n/a	WORD	1783592	wordpools/wasnorm_wordpool_576.txt	LTP348	ltpFR2	9	4	FREEZER	604	n/a	n/a	0	0	0
873.60888671875	n/a	WORD	1789151	wordpools/wasnorm_wordpool_576.txt	LTP348	ltpFR2	9	4	GIRL	637	n/a	n/a	0	0	0
876.0576171875	n/a	WORD	1794166	wordpools/wasnorm_wordpool_576.txt	LTP348	ltpFR2	9	4	SCARF	1246	n/a	n/a	0	0	0
878.85791015625	n/a	WORD	1799901	wordpools/wasnorm_wordpool_576.txt	LTP348	ltpFR2	9	4	IGLOO	734	n/a	n/a	0	0	0
881.5546875	n/a	WORD	1805424	wordpools/wasnorm_wordpool_576.txt	LTP348	ltpFR2	9	4	HONEY	713	n/a	n/a	0	0	0
884.35400390625	n/a	WORD	1811157	wordpools/wasnorm_wordpool_576.txt	LTP348	ltpFR2	9	4	HORNET	718	n/a	n/a	0	0	0
887.1015625	n/a	WORD	1816784	wordpools/wasnorm_wordpool_576.txt	LTP348	ltpFR2	9	4	STICKER	1382	n/a	n/a	0	0	0
889.884765625	n/a	WORD	1822484	wordpools/wasnorm_wordpool_576.txt	LTP348	ltpFR2	9	4	KEEPER	769	n/a	n/a	0	0	0
892.515625	n/a	WORD	1827872	wordpools/wasnorm_wordpool_576.txt	LTP348	ltpFR2	9	4	LUMBER	848	n/a	n/a	0	0	0
895.28173828125	n/a	WORD	1833537	wordpools/wasnorm_wordpool_576.txt	LTP348	ltpFR2	9	4	STAKE	1368	n/a	n/a	0	0	0
898.013671875	n/a	WORD	1839132	wordpools/wasnorm_wordpool_576.txt	LTP348	ltpFR2	9	4	WASHER	1592	n/a	n/a	0	0	0
900.595703125	n/a	WORD	1844420	wordpools/wasnorm_wordpool_576.txt	LTP348	ltpFR2	9	4	CARRIAGE	248	n/a	n/a	0	0	0
903.2939453125	n/a	WORD	1849946	wordpools/wasnorm_wordpool_576.txt	LTP348	ltpFR2	9	4	ITEM	746	n/a	n/a	0	0	0
906.07568359375	n/a	WORD	1855643	wordpools/wasnorm_wordpool_576.txt	LTP348	ltpFR2	9	4	CRAYON	401	n/a	n/a	0	0	0
908.826171875	n/a	WORD	1861276	wordpools/wasnorm_wordpool_576.txt	LTP348	ltpFR2	9	4	MUFFIN	929	n/a	n/a	0	0	0
911.57275390625	n/a	WORD	1866901	wordpools/wasnorm_wordpool_576.txt	LTP348	ltpFR2	9	4	MAILBOX	857	n/a	n/a	0	0	0
914.27197265625	n/a	WORD	1872429	wordpools/wasnorm_wordpool_576.txt	LTP348	ltpFR2	9	4	BREAST	171	n/a	n/a	0	0	0
916.80517578125	n/a	WORD	1877617	wordpools/wasnorm_wordpool_576.txt	LTP348	ltpFR2	9	4	COURSE	390	n/a	n/a	0	0	0
919.453125	n/a	WORD	1883040	wordpools/wasnorm_wordpool_576.txt	LTP348	ltpFR2	9	4	BLUEPRINT	142	n/a	n/a	0	0	0
921.06884765625	n/a	START	1886349	n/a	LTP348	ltpFR2	9	n/a	n/a	n/a	6	n/a	n/a	n/a	n/a
922.17578125	n/a	DISTRACTOR	1888616	n/a	LTP348	ltpFR2	9	4	n/a	n/a	n/a	n/a	0	0	0
922.18505859375	n/a	PROB	1888635	n/a	LTP348	ltpFR2	9	n/a	n/a	n/a	6	11	6	4	1
924.23388671875	n/a	PROB	1892831	n/a	LTP348	ltpFR2	9	n/a	n/a	n/a	6	8	1	1	6
925.80126953125	n/a	PROB	1896041	n/a	LTP348	ltpFR2	9	n/a	n/a	n/a	6	11	5	4	2
928.1650390625	n/a	PROB	1900882	n/a	LTP348	ltpFR2	9	n/a	n/a	n/a	6	20	5	7	8
932.3798828125	n/a	PROB	1909514	n/a	LTP348	ltpFR2	9	n/a	n/a	n/a	6	17	9	6	2
937.67822265625	n/a	PROB	1920365	n/a	LTP348	ltpFR2	9	n/a	n/a	n/a	6	18	7	6	5
940.59228515625	n/a	PROB	1926333	n/a	LTP348	ltpFR2	9	n/a	n/a	n/a	6	15	5	2	8
943.99609375	n/a	STOP	1933304	n/a	LTP348	ltpFR2	9	n/a	n/a	n/a	6	n/a	n/a	n/a	n/a
946.92431640625	n/a	REC_START	1939301	n/a	LTP348	ltpFR2	9	4	n/a	n/a	n/a	n/a	0	0	0
947.357421875	n/a	REC_WORD	1940188	wordpools/wasnorm_wordpool_576.txt	LTP348	ltpFR2	9	4	WIDOW	1608	n/a	n/a	0	0	0
948.1142578125	n/a	REC_WORD	1941738	wordpools/wasnorm_wordpool_576.txt	LTP348	ltpFR2	9	4	PARTNER	1017	n/a	n/a	0	0	0
948.775390625	n/a	REC_WORD	1943092	wordpools/wasnorm_wordpool_576.txt	LTP348	ltpFR2	9	4	LUMBER	848	n/a	n/a	0	0	0
949.4541015625	n/a	REC_WORD	1944482	wordpools/wasnorm_wordpool_576.txt	LTP348	ltpFR2	9	4	STAKE	1368	n/a	n/a	0	0	0
950.4599609375	n/a	REC_WORD	1946542	wordpools/wasnorm_wordpool_576.txt	LTP348	ltpFR2	9	4	CASKET	255	n/a	n/a	0	0	0
953.18212890625	n/a	REC_WORD	1952117	wordpools/wasnorm_wordpool_576.txt	LTP348	ltpFR2	9	4	HATCHET	691	n/a	n/a	0	0	0
981.0205078125	n/a	REC_WORD	2009130	wordpools/wasnorm_wordpool_576.txt	LTP348	ltpFR2	9	4	GIRL	637	n/a	n/a	0	0	0
1003.9013671875	n/a	REC_WORD	2055990	wordpools/wasnorm_wordpool_576.txt	LTP348	ltpFR2	9	4	BLUEPRINT	142	n/a	n/a	0	0	0
1037.36181640625	n/a	DISTRACTOR	2124517	n/a	LTP348	ltpFR2	9	5	n/a	n/a	n/a	n/a	0	0	0
1037.36181640625	n/a	START	2124517	n/a	LTP348	ltpFR2	9	n/a	n/a	n/a	7	n/a	n/a	n/a	n/a
1037.37890625	n/a	PROB	2124552	n/a	LTP348	ltpFR2	9	n/a	n/a	n/a	7	17	3	4	9
1043.15869140625	n/a	PROB	2136389	n/a	LTP348	ltpFR2	9	n/a	n/a	n/a	7	12	3	1	8
1045.57470703125	n/a	PROB	2141337	n/a	LTP348	ltpFR2	9	n/a	n/a	n/a	7	13	5	2	6
1049.27294921875	n/a	PROB	2148911	n/a	LTP348	ltpFR2	9	n/a	n/a	n/a	7	5	1	2	2
1051.2216796875	n/a	PROB	2152902	n/a	LTP348	ltpFR2	9	n/a	n/a	n/a	7	9	1	2	6
1053.0380859375	n/a	PROB	2156622	n/a	LTP348	ltpFR2	9	n/a	n/a	n/a	7	14	3	8	3
1056.77001953125	n/a	PROB	2164265	n/a	LTP348	ltpFR2	9	n/a	n/a	n/a	7	14	3	8	3
1058.8359375	n/a	PROB	2168496	n/a	LTP348	ltpFR2	9	n/a	n/a	n/a	7	12	3	7	2
1060.541015625	n/a	STOP	2171988	n/a	LTP348	ltpFR2	9	n/a	n/a	n/a	7	n/a	n/a	n/a	n/a
1062.18310546875	n/a	WORD	2175351	wordpools/wasnorm_wordpool_576.txt	LTP348	ltpFR2	9	5	TUNNEL	1519	n/a	n/a	0	0	0
1064.68310546875	n/a	WORD	2180471	wordpools/wasnorm_wordpool_576.txt	LTP348	ltpFR2	9	5	GARDEN	623	n/a	n/a	0	0	0
1067.43115234375	n/a	WORD	2186099	wordpools/wasnorm_wordpool_576.txt	LTP348	ltpFR2	9	5	JURY	766	n/a	n/a	0	0	0
1070.12890625	n/a	WORD	2191624	wordpools/wasnorm_wordpool_576.txt	LTP348	ltpFR2	9	5	SHRUB	1299	n/a	n/a	0	0	0
1072.56103515625	n/a	WORD	2196605	wordpools/wasnorm_wordpool_576.txt	LTP348	ltpFR2	9	5	MARS	873	n/a	n/a	0	0	0
1075.02685546875	n/a	WORD	2201655	wordpools/wasnorm_wordpool_576.txt	LTP348	ltpFR2	9	5	FRIEND	606	n/a	n/a	0	0	0
1077.60888671875	n/a	WORD	2206943	wordpools/wasnorm_wordpool_576.txt	LTP348	ltpFR2	9	5	SEAGULL	1261	n/a	n/a	0	0	0
1080.19091796875	n/a	WORD	2212231	wordpools/wasnorm_wordpool_576.txt	LTP348	ltpFR2	9	5	SOFTBALL	1343	n/a	n/a	0	0	0
1082.9560546875	n/a	WORD	2217894	wordpools/wasnorm_wordpool_576.txt	LTP348	ltpFR2	9	5	HEDGE	699	n/a	n/a	0	0	0
1085.587890625	n/a	WORD	2223284	wordpools/wasnorm_wordpool_576.txt	LTP348	ltpFR2	9	5	SWORD	1423	n/a	n/a	0	0	0
1088.30419921875	n/a	WORD	2228847	wordpools/wasnorm_wordpool_576.txt	LTP348	ltpFR2	9	5	RECORD	1176	n/a	n/a	0	0	0
1091.03515625	n/a	WORD	2234440	wordpools/wasnorm_wordpool_576.txt	LTP348	ltpFR2	9	5	SPACE	1345	n/a	n/a	0	0	0
1093.55126953125	n/a	WORD	2239593	wordpools/wasnorm_wordpool_576.txt	LTP348	ltpFR2	9	5	ASIA	46	n/a	n/a	0	0	0
1096.1162109375	n/a	WORD	2244846	wordpools/wasnorm_wordpool_576.txt	LTP348	ltpFR2	9	5	SPONGE	1355	n/a	n/a	0	0	0
1098.79931640625	n/a	WORD	2250341	wordpools/wasnorm_wordpool_576.txt	LTP348	ltpFR2	9	5	BATHTUB	100	n/a	n/a	0	0	0
1101.46435546875	n/a	WORD	2255799	wordpools/wasnorm_wordpool_576.txt	LTP348	ltpFR2	9	5	ROCKET	1202	n/a	n/a	0	0	0
1104.01220703125	n/a	WORD	2261017	wordpools/wasnorm_wordpool_576.txt	LTP348	ltpFR2	9	5	MISSILE	900	n/a	n/a	0	0	0
1106.47802734375	n/a	WORD	2266067	wordpools/wasnorm_wordpool_576.txt	LTP348	ltpFR2	9	5	LONDON	843	n/a	n/a	0	0	0
1108.92822265625	n/a	WORD	2271085	wordpools/wasnorm_wordpool_576.txt	LTP348	ltpFR2	9	5	KETCHUP	771	n/a	n/a	0	0	0
1111.55908203125	n/a	WORD	2276473	wordpools/wasnorm_wordpool_576.txt	LTP348	ltpFR2	9	5	THIEF	1456	n/a	n/a	0	0	0
1114.041015625	n/a	WORD	2281556	wordpools/wasnorm_wordpool_576.txt	LTP348	ltpFR2	9	5	COUSIN	392	n/a	n/a	0	0	0
1116.70703125	n/a	WORD	2287016	wordpools/wasnorm_wordpool_576.txt	LTP348	ltpFR2	9	5	LION	827	n/a	n/a	0	0	0
1119.42138671875	n/a	WORD	2292575	wordpools/wasnorm_wordpool_576.txt	LTP348	ltpFR2	9	5	PIANO	1057	n/a	n/a	0	0	0
1122.0703125	n/a	WORD	2298000	wordpools/wasnorm_wordpool_576.txt	LTP348	ltpFR2	9	5	WHISTLE	1606	n/a	n/a	0	0	0
1123.6875	n/a	START	2301312	n/a	LTP348	ltpFR2	9	n/a	n/a	n/a	8	n/a	n/a	n/a	n/a
1124.8310546875	n/a	DISTRACTOR	2303654	n/a	LTP348	ltpFR2	9	5	n/a	n/a	n/a	n/a	0	0	0
1124.83642578125	n/a	PROB	2303665	n/a	LTP348	ltpFR2	9	n/a	n/a	n/a	8	4	1	1	2
1126.55126953125	n/a	PROB	2307177	n/a	LTP348	ltpFR2	9	n/a	n/a	n/a	8	16	7	1	8
1129.283203125	n/a	PROB	2312772	n/a	LTP348	ltpFR2	9	n/a	n/a	n/a	8	21	8	7	6
1136.16357421875	n/a	PROB	2326863	n/a	LTP348	ltpFR2	9	n/a	n/a	n/a	8	14	1	8	5
1138.84619140625	n/a	PROB	2332357	n/a	LTP348	ltpFR2	9	n/a	n/a	n/a	8	14	3	2	9
1141.32763671875	n/a	PROB	2337439	n/a	LTP348	ltpFR2	9	n/a	n/a	n/a	8	12	6	5	1
1143.09326171875	n/a	PROB	2341055	n/a	LTP348	ltpFR2	9	n/a	n/a	n/a	8	9	2	2	5
1145.0751953125	n/a	PROB	2345114	n/a	LTP348	ltpFR2	9	n/a	n/a	n/a	8	10	6	1	3
1147.3095703125	n/a	STOP	2349690	n/a	LTP348	ltpFR2	9	n/a	n/a	n/a	8	n/a	n/a	n/a	n/a
1149.5244140625	n/a	REC_START	2354226	n/a	LTP348	ltpFR2	9	5	n/a	n/a	n/a	n/a	0	0	0
1150.24560546875	n/a	REC_WORD	2355703	wordpools/wasnorm_wordpool_576.txt	LTP348	ltpFR2	9	5	TUNNEL	1519	n/a	n/a	0	0	0
1151.01123046875	n/a	REC_WORD	2357271	wordpools/wasnorm_wordpool_576.txt	LTP348	ltpFR2	9	5	WHISTLE	1606	n/a	n/a	0	0	0
1152.8955078125	n/a	REC_WORD	2361130	wordpools/wasnorm_wordpool_576.txt	LTP348	ltpFR2	9	5	LION	827	n/a	n/a	0	0	0
1154.689453125	n/a	REC_WORD	2364804	wordpools/wasnorm_wordpool_576.txt	LTP348	ltpFR2	9	5	SOFTBALL	1343	n/a	n/a	0	0	0
1173.00048828125	n/a	REC_WORD	2402305	wordpools/wasnorm_wordpool_576.txt	LTP348	ltpFR2	9	5	KETCHUP	771	n/a	n/a	0	0	0
1182.4736328125	n/a	REC_WORD	2421706	wordpools/wasnorm_wordpool_576.txt	LTP348	ltpFR2	9	5	LONDON	843	n/a	n/a	0	0	0
1187.2177734375	n/a	REC_WORD	2431422	wordpools/wasnorm_wordpool_576.txt	LTP348	ltpFR2	9	5	ASIA	46	n/a	n/a	0	0	0
1239.962890625	n/a	DISTRACTOR	2539444	n/a	LTP348	ltpFR2	9	6	n/a	n/a	n/a	n/a	0	0	0
1239.962890625	n/a	START	2539444	n/a	LTP348	ltpFR2	9	n/a	n/a	n/a	9	n/a	n/a	n/a	n/a
1239.97900390625	n/a	PROB	2539477	n/a	LTP348	ltpFR2	9	n/a	n/a	n/a	9	13	1	6	6
1241.578125	n/a	PROB	2542752	n/a	LTP348	ltpFR2	9	n/a	n/a	n/a	9	15	2	8	5
1243.26123046875	n/a	PROB	2546199	n/a	LTP348	ltpFR2	9	n/a	n/a	n/a	9	10	1	2	7
1244.92822265625	n/a	PROB	2549613	n/a	LTP348	ltpFR2	9	n/a	n/a	n/a	9	18	9	3	6
1249.35791015625	n/a	PROB	2558685	n/a	LTP348	ltpFR2	9	n/a	n/a	n/a	9	19	2	9	8
1252.9892578125	n/a	PROB	2566122	n/a	LTP348	ltpFR2	9	n/a	n/a	n/a	9	23	7	9	7
1255.7392578125	n/a	PROB	2571754	n/a	LTP348	ltpFR2	9	n/a	n/a	n/a	9	19	9	3	5
1263.96337890625	n/a	STOP	2588597	n/a	LTP348	ltpFR2	9	n/a	n/a	n/a	9	n/a	n/a	n/a	n/a
1265.0673828125	n/a	WORD	2590858	wordpools/wasnorm_wordpool_576.txt	LTP348	ltpFR2	9	6	CANYON	235	n/a	n/a	0	0	0
1267.63232421875	n/a	WORD	2596111	wordpools/wasnorm_wordpool_576.txt	LTP348	ltpFR2	9	6	PLUTO	1092	n/a	n/a	0	0	0
1270.26416015625	n/a	WORD	2601501	wordpools/wasnorm_wordpool_576.txt	LTP348	ltpFR2	9	6	LIZARD	834	n/a	n/a	0	0	0
1272.7470703125	n/a	WORD	2606586	wordpools/wasnorm_wordpool_576.txt	LTP348	ltpFR2	9	6	TRIBE	1505	n/a	n/a	0	0	0
1275.34521484375	n/a	WORD	2611907	wordpools/wasnorm_wordpool_576.txt	LTP348	ltpFR2	9	6	NOMAD	955	n/a	n/a	0	0	0
1277.7783203125	n/a	WORD	2616890	wordpools/wasnorm_wordpool_576.txt	LTP348	ltpFR2	9	6	WASP	1593	n/a	n/a	0	0	0
1280.2431640625	n/a	WORD	2621938	wordpools/wasnorm_wordpool_576.txt	LTP348	ltpFR2	9	6	SKILLET	1317	n/a	n/a	0	0	0
1282.97509765625	n/a	WORD	2627533	wordpools/wasnorm_wordpool_576.txt	LTP348	ltpFR2	9	6	WHISKERS	1605	n/a	n/a	0	0	0
1285.62353515625	n/a	WORD	2632957	wordpools/wasnorm_wordpool_576.txt	LTP348	ltpFR2	9	6	FARMER	553	n/a	n/a	0	0	0
1288.12255859375	n/a	WORD	2638075	wordpools/wasnorm_wordpool_576.txt	LTP348	ltpFR2	9	6	WITNESS	1618	n/a	n/a	0	0	0
1290.87255859375	n/a	WORD	2643707	wordpools/wasnorm_wordpool_576.txt	LTP348	ltpFR2	9	6	KITCHEN	778	n/a	n/a	0	0	0
1293.619140625	n/a	WORD	2649332	wordpools/wasnorm_wordpool_576.txt	LTP348	ltpFR2	9	6	RECEIPT	1173	n/a	n/a	0	0	0
1296.25146484375	n/a	WORD	2654723	wordpools/wasnorm_wordpool_576.txt	LTP348	ltpFR2	9	6	ANTLER	29	n/a	n/a	0	0	0
1299.05029296875	n/a	WORD	2660455	wordpools/wasnorm_wordpool_576.txt	LTP348	ltpFR2	9	6	GAZELLE	628	n/a	n/a	0	0	0
1301.7001953125	n/a	WORD	2665882	wordpools/wasnorm_wordpool_576.txt	LTP348	ltpFR2	9	6	GAVEL	627	n/a	n/a	0	0	0
1304.48046875	n/a	WORD	2671576	wordpools/wasnorm_wordpool_576.txt	LTP348	ltpFR2	9	6	LAKE	796	n/a	n/a	0	0	0
1306.9306640625	n/a	WORD	2676594	wordpools/wasnorm_wordpool_576.txt	LTP348	ltpFR2	9	6	RATTLE	1170	n/a	n/a	0	0	0
1309.74658203125	n/a	WORD	2682361	wordpools/wasnorm_wordpool_576.txt	LTP348	ltpFR2	9	6	SCARECROW	1245	n/a	n/a	0	0	0
1312.27734375	n/a	WORD	2687544	wordpools/wasnorm_wordpool_576.txt	LTP348	ltpFR2	9	6	BABY	64	n/a	n/a	0	0	0
1314.95947265625	n/a	WORD	2693037	wordpools/wasnorm_wordpool_576.txt	LTP348	ltpFR2	9	6	TROMBONE	1508	n/a	n/a	0	0	0
1317.49169921875	n/a	WORD	2698223	wordpools/wasnorm_wordpool_576.txt	LTP348	ltpFR2	9	6	TROUT	1511	n/a	n/a	0	0	0
1319.9404296875	n/a	WORD	2703238	wordpools/wasnorm_wordpool_576.txt	LTP348	ltpFR2	9	6	SCULPTURE	1258	n/a	n/a	0	0	0
1322.60546875	n/a	WORD	2708696	wordpools/wasnorm_wordpool_576.txt	LTP348	ltpFR2	9	6	CHIPMUNK	304	n/a	n/a	0	0	0
1325.12060546875	n/a	WORD	2713847	wordpools/wasnorm_wordpool_576.txt	LTP348	ltpFR2	9	6	ZEBRA	1635	n/a	n/a	0	0	0
1326.73779296875	n/a	START	2717159	n/a	LTP348	ltpFR2	9	n/a	n/a	n/a	10	n/a	n/a	n/a	n/a
1327.66455078125	n/a	DISTRACTOR	2719057	n/a	LTP348	ltpFR2	9	6	n/a	n/a	n/a	n/a	0	0	0
1327.66943359375	n/a	PROB	2719067	n/a	LTP348	ltpFR2	9	n/a	n/a	n/a	10	19	7	5	8
1336.03173828125	n/a	PROB	2736193	n/a	LTP348	ltpFR2	9	n/a	n/a	n/a	10	21	7	7	7
1337.69873046875	n/a	PROB	2739607	n/a	LTP348	ltpFR2	9	n/a	n/a	n/a	10	16	8	7	1
1339.41357421875	n/a	PROB	2743119	n/a	LTP348	ltpFR2	9	n/a	n/a	n/a	10	19	8	2	9
1341.11279296875	n/a	PROB	2746599	n/a	LTP348	ltpFR2	9	n/a	n/a	n/a	10	11	4	1	6
1342.6455078125	n/a	PROB	2749738	n/a	LTP348	ltpFR2	9	n/a	n/a	n/a	10	11	1	9	1
1344.01171875	n/a	PROB	2752536	n/a	LTP348	ltpFR2	9	n/a	n/a	n/a	10	18	6	3	9
1346.4765625	n/a	PROB	2757584	n/a	LTP348	ltpFR2	9	n/a	n/a	n/a	10	13	6	5	2
1349.37451171875	n/a	STOP	2763519	n/a	LTP348	ltpFR2	9	n/a	n/a	n/a	10	n/a	n/a	n/a	n/a
1352.67578125	n/a	REC_START	2770280	n/a	LTP348	ltpFR2	9	6	n/a	n/a	n/a	n/a	0	0	0
1353.0908203125	n/a	REC_WORD	2771130	wordpools/wasnorm_wordpool_576.txt	LTP348	ltpFR2	9	6	ZEBRA	1635	n/a	n/a	0	0	0
1353.8828125	n/a	REC_WORD	2772752	wordpools/wasnorm_wordpool_576.txt	LTP348	ltpFR2	9	6	SKILLET	1317	n/a	n/a	0	0	0
1358.24658203125	n/a	REC_WORD	2781689	wordpools/wasnorm_wordpool_576.txt	LTP348	ltpFR2	9	6	CANYON	235	n/a	n/a	0	0	0
1360.4267578125	n/a	REC_WORD	2786154	wordpools/wasnorm_wordpool_576.txt	LTP348	ltpFR2	9	6	GAVEL	627	n/a	n/a	0	0	0
1363.43603515625	n/a	REC_WORD	2792317	wordpools/wasnorm_wordpool_576.txt	LTP348	ltpFR2	9	6	BABY	64	n/a	n/a	0	0	0
1370.19970703125	n/a	REC_WORD	2806169	wordpools/wasnorm_wordpool_576.txt	LTP348	ltpFR2	9	6	KITCHEN	778	n/a	n/a	0	0	0
1374.48486328125	n/a	REC_WORD	2814945	wordpools/wasnorm_wordpool_576.txt	LTP348	ltpFR2	9	6	KETCHUP	771	n/a	n/a	0	0	0
1377.39697265625	n/a	REC_WORD	2820909	wordpools/wasnorm_wordpool_576.txt	LTP348	ltpFR2	9	6	WARDROBE	1587	n/a	n/a	0	0	0
1379.07275390625	n/a	REC_WORD	2824341	wordpools/wasnorm_wordpool_576.txt	LTP348	ltpFR2	9	6	WAITER	1580	n/a	n/a	0	0	0
1391.25	n/a	REC_WORD	2849280	wordpools/wasnorm_wordpool_576.txt	LTP348	ltpFR2	9	6	HIKE	-1	n/a	n/a	0	0	0
1395.0009765625	n/a	REC_WORD	2856962	wordpools/wasnorm_wordpool_576.txt	LTP348	ltpFR2	9	6	SCARECROW	1245	n/a	n/a	0	0	0
1395.73486328125	n/a	REC_WORD	2858465	wordpools/wasnorm_wordpool_576.txt	LTP348	ltpFR2	9	6	TROMBONE	1508	n/a	n/a	0	0	0
1413.6611328125	n/a	REC_WORD	2895178	wordpools/wasnorm_wordpool_576.txt	LTP348	ltpFR2	9	6	CRAYON	401	n/a	n/a	0	0	0
1443.12939453125	n/a	WORD	2955529	wordpools/wasnorm_wordpool_576.txt	LTP348	ltpFR2	9	7	WIFE	1609	n/a	n/a	0	0	0
1445.76220703125	n/a	WORD	2960921	wordpools/wasnorm_wordpool_576.txt	LTP348	ltpFR2	9	7	HUSBAND	728	n/a	n/a	0	0	0
1448.46044921875	n/a	WORD	2966447	wordpools/wasnorm_wordpool_576.txt	LTP348	ltpFR2	9	7	PUPIL	1143	n/a	n/a	0	0	0
1451.04248046875	n/a	WORD	2971735	wordpools/wasnorm_wordpool_576.txt	LTP348	ltpFR2	9	7	CREATURE	403	n/a	n/a	0	0	0
1453.55859375	n/a	WORD	2976888	wordpools/wasnorm_wordpool_576.txt	LTP348	ltpFR2	9	7	LACE	792	n/a	n/a	0	0	0
1456.17333984375	n/a	WORD	2982243	wordpools/wasnorm_wordpool_576.txt	LTP348	ltpFR2	9	7	POSSUM	1112	n/a	n/a	0	0	0
1458.70654296875	n/a	WORD	2987431	wordpools/wasnorm_wordpool_576.txt	LTP348	ltpFR2	9	7	OFFICE	972	n/a	n/a	0	0	0
1461.25439453125	n/a	WORD	2992649	wordpools/wasnorm_wordpool_576.txt	LTP348	ltpFR2	9	7	WORKER	1621	n/a	n/a	0	0	0
1463.78759765625	n/a	WORD	2997837	wordpools/wasnorm_wordpool_576.txt	LTP348	ltpFR2	9	7	PADDLE	1000	n/a	n/a	0	0	0
1466.5185546875	n/a	WORD	3003430	wordpools/wasnorm_wordpool_576.txt	LTP348	ltpFR2	9	7	JUGGLER	763	n/a	n/a	0	0	0
1469.08349609375	n/a	WORD	3008683	wordpools/wasnorm_wordpool_576.txt	LTP348	ltpFR2	9	7	BUGGY	188	n/a	n/a	0	0	0
1471.88330078125	n/a	WORD	3014417	wordpools/wasnorm_wordpool_576.txt	LTP348	ltpFR2	9	7	SLIDE	1326	n/a	n/a	0	0	0
1474.69873046875	n/a	WORD	3020183	wordpools/wasnorm_wordpool_576.txt	LTP348	ltpFR2	9	7	CORAL	378	n/a	n/a	0	0	0
1477.41259765625	n/a	WORD	3025741	wordpools/wasnorm_wordpool_576.txt	LTP348	ltpFR2	9	7	TWISTER	1530	n/a	n/a	0	0	0
1479.96142578125	n/a	WORD	3030961	wordpools/wasnorm_wordpool_576.txt	LTP348	ltpFR2	9	7	RACKET	1155	n/a	n/a	0	0	0
1482.443359375	n/a	WORD	3036044	wordpools/wasnorm_wordpool_576.txt	LTP348	ltpFR2	9	7	PORTRAIT	1111	n/a	n/a	0	0	0
1485.009765625	n/a	WORD	3041300	wordpools/wasnorm_wordpool_576.txt	LTP348	ltpFR2	9	7	GUITAR	670	n/a	n/a	0	0	0
1487.775390625	n/a	WORD	3046964	wordpools/wasnorm_wordpool_576.txt	LTP348	ltpFR2	9	7	TUBA	1515	n/a	n/a	0	0	0
1490.439453125	n/a	WORD	3052420	wordpools/wasnorm_wordpool_576.txt	LTP348	ltpFR2	9	7	BURGLAR	200	n/a	n/a	0	0	0
1493.23876953125	n/a	WORD	3058153	wordpools/wasnorm_wordpool_576.txt	LTP348	ltpFR2	9	7	SALMON	1227	n/a	n/a	0	0	0
1495.95361328125	n/a	WORD	3063713	wordpools/wasnorm_wordpool_576.txt	LTP348	ltpFR2	9	7	QUAIL	1147	n/a	n/a	0	0	0
1498.7197265625	n/a	WORD	3069378	wordpools/wasnorm_wordpool_576.txt	LTP348	ltpFR2	9	7	INMATE	738	n/a	n/a	0	0	0
1501.28466796875	n/a	WORD	3074631	wordpools/wasnorm_wordpool_576.txt	LTP348	ltpFR2	9	7	CYCLONE	431	n/a	n/a	0	0	0
1503.93359375	n/a	WORD	3080056	wordpools/wasnorm_wordpool_576.txt	LTP348	ltpFR2	9	7	HOUND	724	n/a	n/a	0	0	0
1505.548828125	n/a	START	3083364	n/a	LTP348	ltpFR2	9	n/a	n/a	n/a	11	n/a	n/a	n/a	n/a
1506.53759765625	n/a	DISTRACTOR	3085389	n/a	LTP348	ltpFR2	9	7	n/a	n/a	n/a	n/a	0	0	0
1506.548828125	n/a	PROB	3085412	n/a	LTP348	ltpFR2	9	n/a	n/a	n/a	11	12	8	2	2
1509.73193359375	n/a	PROB	3091931	n/a	LTP348	ltpFR2	9	n/a	n/a	n/a	11	19	6	5	8
1513.845703125	n/a	PROB	3100356	n/a	LTP348	ltpFR2	9	n/a	n/a	n/a	11	20	9	7	4
1516.2607421875	n/a	PROB	3105302	n/a	LTP348	ltpFR2	9	n/a	n/a	n/a	11	12	7	2	3
1518.009765625	n/a	PROB	3108884	n/a	LTP348	ltpFR2	9	n/a	n/a	n/a	11	18	7	4	5
1522.15771484375	n/a	PROB	3117379	n/a	LTP348	ltpFR2	9	n/a	n/a	n/a	11	22	7	6	9
1529.5478515625	n/a	STOP	3132514	n/a	LTP348	ltpFR2	9	n/a	n/a	n/a	11	n/a	n/a	n/a	n/a
1531.31982421875	n/a	REC_START	3136143	n/a	LTP348	ltpFR2	9	7	n/a	n/a	n/a	n/a	0	0	0
1536.48291015625	n/a	REC_WORD	3146717	wordpools/wasnorm_wordpool_576.txt	LTP348	ltpFR2	9	7	SALMON	1227	n/a	n/a	0	0	0
1546.26318359375	n/a	REC_WORD	3166747	wordpools/wasnorm_wordpool_576.txt	LTP348	ltpFR2	9	7	BUGGY	188	n/a	n/a	0	0	0
1547.9677734375	n/a	REC_WORD	3170238	wordpools/wasnorm_wordpool_576.txt	LTP348	ltpFR2	9	7	HUSBAND	728	n/a	n/a	0	0	0
1548.5458984375	n/a	REC_WORD	3171422	wordpools/wasnorm_wordpool_576.txt	LTP348	ltpFR2	9	7	WIFE	1609	n/a	n/a	0	0	0
1550.19921875	n/a	REC_WORD	3174808	wordpools/wasnorm_wordpool_576.txt	LTP348	ltpFR2	9	7	LACE	792	n/a	n/a	0	0	0
1551.1748046875	n/a	REC_WORD	3176806	wordpools/wasnorm_wordpool_576.txt	LTP348	ltpFR2	9	7	PUPIL	1143	n/a	n/a	0	0	0
1557.39892578125	n/a	REC_WORD	3189553	wordpools/wasnorm_wordpool_576.txt	LTP348	ltpFR2	9	7	OFFICE	972	n/a	n/a	0	0	0
1558.97705078125	n/a	REC_WORD	3192785	wordpools/wasnorm_wordpool_576.txt	LTP348	ltpFR2	9	7	WORKER	1621	n/a	n/a	0	0	0
1621.7763671875	n/a	WORD	3321398	wordpools/wasnorm_wordpool_576.txt	LTP348	ltpFR2	9	8	OYSTER	995	n/a	n/a	0	0	0
1624.357421875	n/a	WORD	3326684	wordpools/wasnorm_wordpool_576.txt	LTP348	ltpFR2	9	8	FOREST	593	n/a	n/a	0	0	0
1626.9072265625	n/a	WORD	3331906	wordpools/wasnorm_wordpool_576.txt	LTP348	ltpFR2	9	8	PISTON	1076	n/a	n/a	0	0	0
1629.58837890625	n/a	WORD	3337397	wordpools/wasnorm_wordpool_576.txt	LTP348	ltpFR2	9	8	CHILD	299	n/a	n/a	0	0	0
1632.353515625	n/a	WORD	3343060	wordpools/wasnorm_wordpool_576.txt	LTP348	ltpFR2	9	8	SERVER	1272	n/a	n/a	0	0	0
1634.78662109375	n/a	WORD	3348043	wordpools/wasnorm_wordpool_576.txt	LTP348	ltpFR2	9	8	SHOULDER	1294	n/a	n/a	0	0	0
1637.53466796875	n/a	WORD	3353671	wordpools/wasnorm_wordpool_576.txt	LTP348	ltpFR2	9	8	FRECKLE	602	n/a	n/a	0	0	0
1640.232421875	n/a	WORD	3359196	wordpools/wasnorm_wordpool_576.txt	LTP348	ltpFR2	9	8	POLICE	1098	n/a	n/a	0	0	0
1642.86572265625	n/a	WORD	3364589	wordpools/wasnorm_wordpool_576.txt	LTP348	ltpFR2	9	8	PREACHER	1119	n/a	n/a	0	0	0
1645.49658203125	n/a	WORD	3369977	wordpools/wasnorm_wordpool_576.txt	LTP348	ltpFR2	9	8	GHETTO	633	n/a	n/a	0	0	0
1648.3125	n/a	WORD	3375744	wordpools/wasnorm_wordpool_576.txt	LTP348	ltpFR2	9	8	ATOM	55	n/a	n/a	0	0	0
1650.845703125	n/a	WORD	3380932	wordpools/wasnorm_wordpool_576.txt	LTP348	ltpFR2	9	8	BRACES	164	n/a	n/a	0	0	0
1653.49365234375	n/a	WORD	3386355	wordpools/wasnorm_wordpool_576.txt	LTP348	ltpFR2	9	8	DENTIST	447	n/a	n/a	0	0	0
1656.20849609375	n/a	WORD	3391915	wordpools/wasnorm_wordpool_576.txt	LTP348	ltpFR2	9	8	FLIPPER	580	n/a	n/a	0	0	0
1658.77490234375	n/a	WORD	3397171	wordpools/wasnorm_wordpool_576.txt	LTP348	ltpFR2	9	8	HOOK	715	n/a	n/a	0	0	0
1661.439453125	n/a	WORD	3402628	wordpools/wasnorm_wordpool_576.txt	LTP348	ltpFR2	9	8	VAGRANT	1544	n/a	n/a	0	0	0
1663.98779296875	n/a	WORD	3407847	wordpools/wasnorm_wordpool_576.txt	LTP348	ltpFR2	9	8	JAPAN	749	n/a	n/a	0	0	0
1666.6875	n/a	WORD	3413376	wordpools/wasnorm_wordpool_576.txt	LTP348	ltpFR2	9	8	ARMY	39	n/a	n/a	0	0	0
1669.11865234375	n/a	WORD	3418355	wordpools/wasnorm_wordpool_576.txt	LTP348	ltpFR2	9	8	AGENT	10	n/a	n/a	0	0	0
1671.8017578125	n/a	WORD	3423850	wordpools/wasnorm_wordpool_576.txt	LTP348	ltpFR2	9	8	ELBOW	520	n/a	n/a	0	0	0
1674.25	n/a	WORD	3428864	wordpools/wasnorm_wordpool_576.txt	LTP348	ltpFR2	9	8	WAGON	1578	n/a	n/a	0	0	0
1676.94970703125	n/a	WORD	3434393	wordpools/wasnorm_wordpool_576.txt	LTP348	ltpFR2	9	8	MOP	916	n/a	n/a	0	0	0
1679.73095703125	n/a	WORD	3440089	wordpools/wasnorm_wordpool_576.txt	LTP348	ltpFR2	9	8	PORK	1108	n/a	n/a	0	0	0
1682.462890625	n/a	WORD	3445684	wordpools/wasnorm_wordpool_576.txt	LTP348	ltpFR2	9	8	BACON	67	n/a	n/a	0	0	0
1684.07861328125	n/a	START	3448993	n/a	LTP348	ltpFR2	9	n/a	n/a	n/a	12	n/a	n/a	n/a	n/a
1685.2236328125	n/a	DISTRACTOR	3451338	n/a	LTP348	ltpFR2	9	8	n/a	n/a	n/a	n/a	0	0	0
1685.22802734375	n/a	PROB	3451347	n/a	LTP348	ltpFR2	9	n/a	n/a	n/a	12	8	3	4	1
1688.958984375	n/a	PROB	3458988	n/a	LTP348	ltpFR2	9	n/a	n/a	n/a	12	12	6	1	5
1691.3408203125	n/a	PROB	3463866	n/a	LTP348	ltpFR2	9	n/a	n/a	n/a	12	14	1	7	6
1693.5068359375	n/a	PROB	3468302	n/a	LTP348	ltpFR2	9	n/a	n/a	n/a	12	19	9	1	9
1696.48876953125	n/a	PROB	3474409	n/a	LTP348	ltpFR2	9	n/a	n/a	n/a	12	10	1	4	5
1698.2880859375	n/a	PROB	3478094	n/a	LTP348	ltpFR2	9	n/a	n/a	n/a	12	22	7	9	6
1703.9521484375	n/a	PROB	3489694	n/a	LTP348	ltpFR2	9	n/a	n/a	n/a	12	20	9	3	8
1707.4970703125	n/a	STOP	3496954	n/a	LTP348	ltpFR2	9	n/a	n/a	n/a	12	n/a	n/a	n/a	n/a
1709.966796875	n/a	REC_START	3502012	n/a	LTP348	ltpFR2	9	8	n/a	n/a	n/a	n/a	0	0	0
1710.52490234375	n/a	REC_WORD	3503155	wordpools/wasnorm_wordpool_576.txt	LTP348	ltpFR2	9	8	OYSTER	995	n/a	n/a	0	0	0
1711.27587890625	n/a	REC_WORD	3504693	wordpools/wasnorm_wordpool_576.txt	LTP348	ltpFR2	9	8	BACON	67	n/a	n/a	0	0	0
1712.05322265625	n/a	REC_WORD	3506285	wordpools/wasnorm_wordpool_576.txt	LTP348	ltpFR2	9	8	PORK	1108	n/a	n/a	0	0	0
1725.59912109375	n/a	REC_WORD	3534027	wordpools/wasnorm_wordpool_576.txt	LTP348	ltpFR2	9	8	PISTON	1076	n/a	n/a	0	0	0
1726.5302734375	n/a	REC_WORD	3535934	wordpools/wasnorm_wordpool_576.txt	LTP348	ltpFR2	9	8	GHETTO	633	n/a	n/a	0	0	0
1729.27001953125	n/a	REC_WORD	3541545	wordpools/wasnorm_wordpool_576.txt	LTP348	ltpFR2	9	8	PREACHER	1119	n/a	n/a	0	0	0
1734.6572265625	n/a	REC_WORD	3552578	wordpools/wasnorm_wordpool_576.txt	LTP348	ltpFR2	9	8	POLICE	1098	n/a	n/a	0	0	0
1735.87890625	n/a	REC_WORD	3555080	wordpools/wasnorm_wordpool_576.txt	LTP348	ltpFR2	9	8	ATOM	55	n/a	n/a	0	0	0
1756.40625	n/a	REC_WORD	3597120	wordpools/wasnorm_wordpool_576.txt	LTP348	ltpFR2	9	8	CHILD	299	n/a	n/a	0	0	0
1786.51123046875	n/a	REST_REWET	3658775	n/a	LTP348	ltpFR2	9	8	n/a	n/a	n/a	n/a	0	0	0
1963.29150390625	n/a	WORD	4020821	wordpools/wasnorm_wordpool_576.txt	LTP348	ltpFR2	9	9	INFANT	737	n/a	n/a	0	0	0
1965.857421875	n/a	WORD	4026076	wordpools/wasnorm_wordpool_576.txt	LTP348	ltpFR2	9	9	EUROPE	541	n/a	n/a	0	0	0
1968.388671875	n/a	WORD	4031260	wordpools/wasnorm_wordpool_576.txt	LTP348	ltpFR2	9	9	ISLAND	745	n/a	n/a	0	0	0
1971.0537109375	n/a	WORD	4036718	wordpools/wasnorm_wordpool_576.txt	LTP348	ltpFR2	9	9	SISTER	1312	n/a	n/a	0	0	0
1973.7705078125	n/a	WORD	4042282	wordpools/wasnorm_wordpool_576.txt	LTP348	ltpFR2	9	9	COLONEL	348	n/a	n/a	0	0	0
1976.53466796875	n/a	WORD	4047943	wordpools/wasnorm_wordpool_576.txt	LTP348	ltpFR2	9	9	TURNIP	1521	n/a	n/a	0	0	0
1979.06689453125	n/a	WORD	4053129	wordpools/wasnorm_wordpool_576.txt	LTP348	ltpFR2	9	9	AIRPORT	13	n/a	n/a	0	0	0
1981.69970703125	n/a	WORD	4058521	wordpools/wasnorm_wordpool_576.txt	LTP348	ltpFR2	9	9	CRITIC	410	n/a	n/a	0	0	0
1984.5146484375	n/a	WORD	4064286	wordpools/wasnorm_wordpool_576.txt	LTP348	ltpFR2	9	9	TABLET	1427	n/a	n/a	0	0	0
1987.1796875	n/a	WORD	4069744	wordpools/wasnorm_wordpool_576.txt	LTP348	ltpFR2	9	9	MESSAGE	888	n/a	n/a	0	0	0
1989.86279296875	n/a	WORD	4075239	wordpools/wasnorm_wordpool_576.txt	LTP348	ltpFR2	9	9	FRANCE	601	n/a	n/a	0	0	0
1992.4609375	n/a	WORD	4080560	wordpools/wasnorm_wordpool_576.txt	LTP348	ltpFR2	9	9	DRAWING	494	n/a	n/a	0	0	0
1995.0927734375	n/a	WORD	4085950	wordpools/wasnorm_wordpool_576.txt	LTP348	ltpFR2	9	9	PICTURE	1061	n/a	n/a	0	0	0
1997.7587890625	n/a	WORD	4091410	wordpools/wasnorm_wordpool_576.txt	LTP348	ltpFR2	9	9	STAR	1373	n/a	n/a	0	0	0
2000.57275390625	n/a	WORD	4097173	wordpools/wasnorm_wordpool_576.txt	LTP348	ltpFR2	9	9	TRACTOR	1493	n/a	n/a	0	0	0
2003.15478515625	n/a	WORD	4102461	wordpools/wasnorm_wordpool_576.txt	LTP348	ltpFR2	9	9	BUCKET	184	n/a	n/a	0	0	0
2005.7880859375	n/a	WORD	4107854	wordpools/wasnorm_wordpool_576.txt	LTP348	ltpFR2	9	9	SPHINX	1349	n/a	n/a	0	0	0
2008.2529296875	n/a	WORD	4112902	wordpools/wasnorm_wordpool_576.txt	LTP348	ltpFR2	9	9	TEMPLE	1448	n/a	n/a	0	0	0
2010.70263671875	n/a	WORD	4117919	wordpools/wasnorm_wordpool_576.txt	LTP348	ltpFR2	9	9	STAMP	1370	n/a	n/a	0	0	0
2013.4169921875	n/a	WORD	4123478	wordpools/wasnorm_wordpool_576.txt	LTP348	ltpFR2	9	9	OINTMENT	974	n/a	n/a	0	0	0
2015.98193359375	n/a	WORD	4128731	wordpools/wasnorm_wordpool_576.txt	LTP348	ltpFR2	9	9	STUDENT	1395	n/a	n/a	0	0	0
2018.4638671875	n/a	WORD	4133814	wordpools/wasnorm_wordpool_576.txt	LTP348	ltpFR2	9	9	JEANS	752	n/a	n/a	0	0	0
2021.01318359375	n/a	WORD	4139035	wordpools/wasnorm_wordpool_576.txt	LTP348	ltpFR2	9	9	HOSTESS	723	n/a	n/a	0	0	0
2023.52783203125	n/a	WORD	4144185	wordpools/wasnorm_wordpool_576.txt	LTP348	ltpFR2	9	9	VICTIM	1562	n/a	n/a	0	0	0
2025.14501953125	n/a	START	4147497	n/a	LTP348	ltpFR2	9	n/a	n/a	n/a	13	n/a	n/a	n/a	n/a
2026.3017578125	n/a	DISTRACTOR	4149866	n/a	LTP348	ltpFR2	9	9	n/a	n/a	n/a	n/a	0	0	0
2026.31005859375	n/a	PROB	4149883	n/a	LTP348	ltpFR2	9	n/a	n/a	n/a	13	16	5	4	7
2030.091796875	n/a	PROB	4157628	n/a	LTP348	ltpFR2	9	n/a	n/a	n/a	13	24	9	7	6
2038.10498046875	n/a	PROB	4174039	n/a	LTP348	ltpFR2	9	n/a	n/a	n/a	13	1	5	5	8
2039.705078125	n/a	PROB	4177316	n/a	LTP348	ltpFR2	9	n/a	n/a	n/a	13	24	2	8	4
2042.98486328125	n/a	PROB	4184033	n/a	LTP348	ltpFR2	9	n/a	n/a	n/a	13	12	1	6	5
2045.1181640625	n/a	PROB	4188402	n/a	LTP348	ltpFR2	9	n/a	n/a	n/a	13	9	2	2	5
2046.80126953125	n/a	PROB	4191849	n/a	LTP348	ltpFR2	9	n/a	n/a	n/a	13	11	9	1	1
2048.13916015625	n/a	STOP	4194589	n/a	LTP348	ltpFR2	9	n/a	n/a	n/a	13	n/a	n/a	n/a	n/a
2051.01513671875	n/a	REC_START	4200479	n/a	LTP348	ltpFR2	9	9	n/a	n/a	n/a	n/a	0	0	0
2051.4091796875	n/a	REC_WORD	4201286	wordpools/wasnorm_wordpool_576.txt	LTP348	ltpFR2	9	9	SPHINX	1349	n/a	n/a	0	0	0
2053.2451171875	n/a	REC_WORD	4205046	wordpools/wasnorm_wordpool_576.txt	LTP348	ltpFR2	9	9	ISLAND	745	n/a	n/a	0	0	0
2054.13330078125	n/a	REC_WORD	4206865	wordpools/wasnorm_wordpool_576.txt	LTP348	ltpFR2	9	9	EUROPE	541	n/a	n/a	0	0	0
2066.125	n/a	REC_WORD	4231424	wordpools/wasnorm_wordpool_576.txt	LTP348	ltpFR2	9	9	RIVER	1194	n/a	n/a	0	0	0
2104.90966796875	n/a	REC_WORD	4310855	wordpools/wasnorm_wordpool_576.txt	LTP348	ltpFR2	9	9	CRAB	397	n/a	n/a	0	0	0
2109.8447265625	n/a	REC_WORD	4320962	wordpools/wasnorm_wordpool_576.txt	LTP348	ltpFR2	9	9	STAMP	1370	n/a	n/a	0	0	0
2115.859375	n/a	REC_WORD	4333280	wordpools/wasnorm_wordpool_576.txt	LTP348	ltpFR2	9	9	POSTAGE	1113	n/a	n/a	0	0	0
2141.470703125	n/a	DISTRACTOR	4385732	n/a	LTP348	ltpFR2	9	10	n/a	n/a	n/a	n/a	0	0	0
2141.470703125	n/a	START	4385732	n/a	LTP348	ltpFR2	9	n/a	n/a	n/a	14	n/a	n/a	n/a	n/a
2141.48779296875	n/a	PROB	4385767	n/a	LTP348	ltpFR2	9	n/a	n/a	n/a	14	14	4	4	6
2144.11962890625	n/a	PROB	4391157	n/a	LTP348	ltpFR2	9	n/a	n/a	n/a	14	16	8	2	6
2145.73681640625	n/a	PROB	4394469	n/a	LTP348	ltpFR2	9	n/a	n/a	n/a	14	18	5	4	9
2148.20068359375	n/a	PROB	4399515	n/a	LTP348	ltpFR2	9	n/a	n/a	n/a	14	14	4	9	1
2149.70068359375	n/a	PROB	4402587	n/a	LTP348	ltpFR2	9	n/a	n/a	n/a	14	14	4	2	8
2151.548828125	n/a	PROB	4406372	n/a	LTP348	ltpFR2	9	n/a	n/a	n/a	14	11	3	5	3
2153.99755859375	n/a	PROB	4411387	n/a	LTP348	ltpFR2	9	n/a	n/a	n/a	14	6	1	2	3
2156.52978515625	n/a	PROB	4416573	n/a	LTP348	ltpFR2	9	n/a	n/a	n/a	14	15	4	6	5
2158.07861328125	n/a	PROB	4419745	n/a	LTP348	ltpFR2	9	n/a	n/a	n/a	14	11	2	2	7
2160.36181640625	n/a	PROB	4424421	n/a	LTP348	ltpFR2	9	n/a	n/a	n/a	14	14	4	6	4
2161.86181640625	n/a	PROB	4427493	n/a	LTP348	ltpFR2	9	n/a	n/a	n/a	14	12	8	1	3
2164.82080078125	n/a	STOP	4433553	n/a	LTP348	ltpFR2	9	n/a	n/a	n/a	14	n/a	n/a	n/a	n/a
2166.30908203125	n/a	WORD	4436601	wordpools/wasnorm_wordpool_576.txt	LTP348	ltpFR2	9	10	FOREHEAD	592	n/a	n/a	0	0	0
2169.02392578125	n/a	WORD	4442161	wordpools/wasnorm_wordpool_576.txt	LTP348	ltpFR2	9	10	SWIMMER	1420	n/a	n/a	0	0	0
2171.70703125	n/a	WORD	4447656	wordpools/wasnorm_wordpool_576.txt	LTP348	ltpFR2	9	10	ATLAS	53	n/a	n/a	0	0	0
2174.27099609375	n/a	WORD	4452907	wordpools/wasnorm_wordpool_576.txt	LTP348	ltpFR2	9	10	DRUG	501	n/a	n/a	0	0	0
2176.98681640625	n/a	WORD	4458469	wordpools/wasnorm_wordpool_576.txt	LTP348	ltpFR2	9	10	PADDING	999	n/a	n/a	0	0	0
2179.5517578125	n/a	WORD	4463722	wordpools/wasnorm_wordpool_576.txt	LTP348	ltpFR2	9	10	BLENDER	136	n/a	n/a	0	0	0
2182.2841796875	n/a	WORD	4469318	wordpools/wasnorm_wordpool_576.txt	LTP348	ltpFR2	9	10	LIPSTICK	829	n/a	n/a	0	0	0
2184.85009765625	n/a	WORD	4474573	wordpools/wasnorm_wordpool_576.txt	LTP348	ltpFR2	9	10	ROBBER	1197	n/a	n/a	0	0	0
2187.615234375	n/a	WORD	4480236	wordpools/wasnorm_wordpool_576.txt	LTP348	ltpFR2	9	10	FLUTE	585	n/a	n/a	0	0	0
2190.4130859375	n/a	WORD	4485966	wordpools/wasnorm_wordpool_576.txt	LTP348	ltpFR2	9	10	HORSE	719	n/a	n/a	0	0	0
2193.22900390625	n/a	WORD	4491733	wordpools/wasnorm_wordpool_576.txt	LTP348	ltpFR2	9	10	GLOVE	642	n/a	n/a	0	0	0
2195.84521484375	n/a	WORD	4497091	wordpools/wasnorm_wordpool_576.txt	LTP348	ltpFR2	9	10	WRIST	1626	n/a	n/a	0	0	0
2198.47607421875	n/a	WORD	4502479	wordpools/wasnorm_wordpool_576.txt	LTP348	ltpFR2	9	10	BROTHER	179	n/a	n/a	0	0	0
2201.00830078125	n/a	WORD	4507665	wordpools/wasnorm_wordpool_576.txt	LTP348	ltpFR2	9	10	UMPIRE	1535	n/a	n/a	0	0	0
2203.43994140625	n/a	WORD	4512645	wordpools/wasnorm_wordpool_576.txt	LTP348	ltpFR2	9	10	MATTRESS	879	n/a	n/a	0	0	0
2205.93994140625	n/a	WORD	4517765	wordpools/wasnorm_wordpool_576.txt	LTP348	ltpFR2	9	10	OUTLAW	989	n/a	n/a	0	0	0
2208.37109375	n/a	WORD	4522744	wordpools/wasnorm_wordpool_576.txt	LTP348	ltpFR2	9	10	DORM	488	n/a	n/a	0	0	0
2211.0361328125	n/a	WORD	4528202	wordpools/wasnorm_wordpool_576.txt	LTP348	ltpFR2	9	10	MOTOR	922	n/a	n/a	0	0	0
2213.76904296875	n/a	WORD	4533799	wordpools/wasnorm_wordpool_576.txt	LTP348	ltpFR2	9	10	HIKER	708	n/a	n/a	0	0	0
2216.30029296875	n/a	WORD	4538983	wordpools/wasnorm_wordpool_576.txt	LTP348	ltpFR2	9	10	PANTHER	1009	n/a	n/a	0	0	0
2218.783203125	n/a	WORD	4544068	wordpools/wasnorm_wordpool_576.txt	LTP348	ltpFR2	9	10	LEOPARD	812	n/a	n/a	0	0	0
2221.54833984375	n/a	WORD	4549731	wordpools/wasnorm_wordpool_576.txt	LTP348	ltpFR2	9	10	HUMAN	726	n/a	n/a	0	0	0
2224.01318359375	n/a	WORD	4554779	wordpools/wasnorm_wordpool_576.txt	LTP348	ltpFR2	9	10	BACKBONE	66	n/a	n/a	0	0	0
2226.59521484375	n/a	WORD	4560067	wordpools/wasnorm_wordpool_576.txt	LTP348	ltpFR2	9	10	SHELF	1280	n/a	n/a	0	0	0
2228.21142578125	n/a	START	4563377	n/a	LTP348	ltpFR2	9	n/a	n/a	n/a	15	n/a	n/a	n/a	n/a
2229.037109375	n/a	DISTRACTOR	4565068	n/a	LTP348	ltpFR2	9	10	n/a	n/a	n/a	n/a	0	0	0
2229.04443359375	n/a	PROB	4565083	n/a	LTP348	ltpFR2	9	n/a	n/a	n/a	15	25	9	8	7
2234.859375	n/a	PROB	4576992	n/a	LTP348	ltpFR2	9	n/a	n/a	n/a	15	19	8	9	2
2238.58935546875	n/a	PROB	4584631	n/a	LTP348	ltpFR2	9	n/a	n/a	n/a	15	14	5	7	2
2241.83935546875	n/a	PROB	4591287	n/a	LTP348	ltpFR2	9	n/a	n/a	n/a	15	20	5	8	7
2244.986328125	n/a	PROB	4597732	n/a	LTP348	ltpFR2	9	n/a	n/a	n/a	15	19	2	8	9
2246.88623046875	n/a	PROB	4601623	n/a	LTP348	ltpFR2	9	n/a	n/a	n/a	15	24	9	9	6
2250.58349609375	n/a	PROB	4609195	n/a	LTP348	ltpFR2	9	n/a	n/a	n/a	15	14	5	4	5
2252.04443359375	n/a	STOP	4612187	n/a	LTP348	ltpFR2	9	n/a	n/a	n/a	15	n/a	n/a	n/a	n/a
2254.13232421875	n/a	REC_START	4616463	n/a	LTP348	ltpFR2	9	10	n/a	n/a	n/a	n/a	0	0	0
2254.818359375	n/a	REC_WORD	4617868	wordpools/wasnorm_wordpool_576.txt	LTP348	ltpFR2	9	10	ATLAS	53	n/a	n/a	0	0	0
2256.142578125	n/a	REC_WORD	4620580	wordpools/wasnorm_wordpool_576.txt	LTP348	ltpFR2	9	10	HIKER	708	n/a	n/a	0	0	0
2263.27734375	n/a	REC_WORD	4635192	wordpools/wasnorm_wordpool_576.txt	LTP348	ltpFR2	9	10	ROBBER	1197	n/a	n/a	0	0	0
2273.66552734375	n/a	REC_WORD	4656467	wordpools/wasnorm_wordpool_576.txt	LTP348	ltpFR2	9	10	WRIST	1626	n/a	n/a	0	0	0
2275.32177734375	n/a	REC_WORD_VV	4659859	wordpools/wasnorm_wordpool_576.txt	LTP348	ltpFR2	9	10	<>	-1	n/a	n/a	0	0	0
2277.88134765625	n/a	REC_WORD	4665101	wordpools/wasnorm_wordpool_576.txt	LTP348	ltpFR2	9	10	FLUTE	585	n/a	n/a	0	0	0
2294.84765625	n/a	REC_WORD	4699848	wordpools/wasnorm_wordpool_576.txt	LTP348	ltpFR2	9	10	GLOVE	642	n/a	n/a	0	0	0
2344.57080078125	n/a	DISTRACTOR	4801681	n/a	LTP348	ltpFR2	9	11	n/a	n/a	n/a	n/a	0	0	0
2344.57080078125	n/a	START	4801681	n/a	LTP348	ltpFR2	9	n/a	n/a	n/a	16	n/a	n/a	n/a	n/a
2344.587890625	n/a	PROB	4801716	n/a	LTP348	ltpFR2	9	n/a	n/a	n/a	16	6	1	1	4
2346.287109375	n/a	PROB	4805196	n/a	LTP348	ltpFR2	9	n/a	n/a	n/a	16	17	8	2	7
2348.80322265625	n/a	PROB	4810349	n/a	LTP348	ltpFR2	9	n/a	n/a	n/a	16	9	3	1	5
2351.5009765625	n/a	PROB	4815874	n/a	LTP348	ltpFR2	9	n/a	n/a	n/a	16	12	6	2	4
2353.71826171875	n/a	PROB	4820415	n/a	LTP348	ltpFR2	9	n/a	n/a	n/a	16	10	4	3	3
2355.93310546875	n/a	PROB	4824951	n/a	LTP348	ltpFR2	9	n/a	n/a	n/a	16	11	5	5	1
2357.365234375	n/a	PROB	4827884	n/a	LTP348	ltpFR2	9	n/a	n/a	n/a	16	20	9	6	5
2360.39697265625	n/a	PROB	4834093	n/a	LTP348	ltpFR2	9	n/a	n/a	n/a	16	24	9	6	7
2365.14404296875	n/a	PROB	4843815	n/a	LTP348	ltpFR2	9	n/a	n/a	n/a	16	19	9	4	6
2368.5712890625	n/a	STOP	4850834	n/a	LTP348	ltpFR2	9	n/a	n/a	n/a	16	n/a	n/a	n/a	n/a
2369.47509765625	n/a	WORD	4852685	wordpools/wasnorm_wordpool_576.txt	LTP348	ltpFR2	9	11	GARLIC	624	n/a	n/a	0	0	0
2372.041015625	n/a	WORD	4857940	wordpools/wasnorm_wordpool_576.txt	LTP348	ltpFR2	9	11	JUDGE	761	n/a	n/a	0	0	0
2374.69140625	n/a	WORD	4863368	wordpools/wasnorm_wordpool_576.txt	LTP348	ltpFR2	9	11	COUNTRY	388	n/a	n/a	0	0	0
2377.322265625	n/a	WORD	4868756	wordpools/wasnorm_wordpool_576.txt	LTP348	ltpFR2	9	11	SCALPEL	1243	n/a	n/a	0	0	0
2379.9052734375	n/a	WORD	4874046	wordpools/wasnorm_wordpool_576.txt	LTP348	ltpFR2	9	11	FIDDLE	561	n/a	n/a	0	0	0
2382.43603515625	n/a	WORD	4879229	wordpools/wasnorm_wordpool_576.txt	LTP348	ltpFR2	9	11	BANJO	82	n/a	n/a	0	0	0
2385.234375	n/a	WORD	4884960	wordpools/wasnorm_wordpool_576.txt	LTP348	ltpFR2	9	11	BLADE	134	n/a	n/a	0	0	0
2387.96630859375	n/a	WORD	4890555	wordpools/wasnorm_wordpool_576.txt	LTP348	ltpFR2	9	11	PLAZA	1088	n/a	n/a	0	0	0
2390.5322265625	n/a	WORD	4895810	wordpools/wasnorm_wordpool_576.txt	LTP348	ltpFR2	9	11	CUSTARD	429	n/a	n/a	0	0	0
2393.18017578125	n/a	WORD	4901233	wordpools/wasnorm_wordpool_576.txt	LTP348	ltpFR2	9	11	PASTRY	1022	n/a	n/a	0	0	0
2395.86328125	n/a	WORD	4906728	wordpools/wasnorm_wordpool_576.txt	LTP348	ltpFR2	9	11	TILE	1468	n/a	n/a	0	0	0
2398.34423828125	n/a	WORD	4911809	wordpools/wasnorm_wordpool_576.txt	LTP348	ltpFR2	9	11	SPOUSE	1358	n/a	n/a	0	0	0
2400.87744140625	n/a	WORD	4916997	wordpools/wasnorm_wordpool_576.txt	LTP348	ltpFR2	9	11	CHAUFFEUR	283	n/a	n/a	0	0	0
2403.642578125	n/a	WORD	4922660	wordpools/wasnorm_wordpool_576.txt	LTP348	ltpFR2	9	11	PLIERS	1089	n/a	n/a	0	0	0
2406.357421875	n/a	WORD	4928220	wordpools/wasnorm_wordpool_576.txt	LTP348	ltpFR2	9	11	HAWK	692	n/a	n/a	0	0	0
2409.072265625	n/a	WORD	4933780	wordpools/wasnorm_wordpool_576.txt	LTP348	ltpFR2	9	11	GREASE	660	n/a	n/a	0	0	0
2411.6044921875	n/a	WORD	4938966	wordpools/wasnorm_wordpool_576.txt	LTP348	ltpFR2	9	11	DASHBOARD	441	n/a	n/a	0	0	0
2414.2705078125	n/a	WORD	4944426	wordpools/wasnorm_wordpool_576.txt	LTP348	ltpFR2	9	11	DUSTPAN	509	n/a	n/a	0	0	0
2417.05224609375	n/a	WORD	4950123	wordpools/wasnorm_wordpool_576.txt	LTP348	ltpFR2	9	11	NECKLACE	940	n/a	n/a	0	0	0
2419.71826171875	n/a	WORD	4955583	wordpools/wasnorm_wordpool_576.txt	LTP348	ltpFR2	9	11	SURVEY	1414	n/a	n/a	0	0	0
2422.2666015625	n/a	WORD	4960802	wordpools/wasnorm_wordpool_576.txt	LTP348	ltpFR2	9	11	FIREMAN	569	n/a	n/a	0	0	0
2425.015625	n/a	WORD	4966432	wordpools/wasnorm_wordpool_576.txt	LTP348	ltpFR2	9	11	LAMP	798	n/a	n/a	0	0	0
2427.513671875	n/a	WORD	4971548	wordpools/wasnorm_wordpool_576.txt	LTP348	ltpFR2	9	11	ICING	732	n/a	n/a	0	0	0
2430.2294921875	n/a	WORD	4977110	wordpools/wasnorm_wordpool_576.txt	LTP348	ltpFR2	9	11	SUSPECT	1415	n/a	n/a	0	0	0
2431.8466796875	n/a	START	4980422	n/a	LTP348	ltpFR2	9	n/a	n/a	n/a	17	n/a	n/a	n/a	n/a
2432.9306640625	n/a	DISTRACTOR	4982642	n/a	LTP348	ltpFR2	9	11	n/a	n/a	n/a	n/a	0	0	0
2432.9453125	n/a	PROB	4982672	n/a	LTP348	ltpFR2	9	n/a	n/a	n/a	17	12	9	1	2
2434.74462890625	n/a	PROB	4986357	n/a	LTP348	ltpFR2	9	n/a	n/a	n/a	17	12	9	2	1
2436.693359375	n/a	PROB	4990348	n/a	LTP348	ltpFR2	9	n/a	n/a	n/a	17	14	3	5	6
2441.32373046875	n/a	PROB	4999831	n/a	LTP348	ltpFR2	9	n/a	n/a	n/a	17	10	2	2	4
2443.23974609375	n/a	PROB	5003755	n/a	LTP348	ltpFR2	9	n/a	n/a	n/a	17	18	5	8	5
2445.3046875	n/a	PROB	5007984	n/a	LTP348	ltpFR2	9	n/a	n/a	n/a	17	14	4	3	5
2450.31982421875	n/a	PROB	5018255	n/a	LTP348	ltpFR2	9	n/a	n/a	n/a	17	17	8	7	2
2454.58154296875	n/a	STOP	5026983	n/a	LTP348	ltpFR2	9	n/a	n/a	n/a	17	n/a	n/a	n/a	n/a
2457.716796875	n/a	REC_START	5033404	n/a	LTP348	ltpFR2	9	11	n/a	n/a	n/a	n/a	0	0	0
2458.05078125	n/a	REC_WORD	5034088	wordpools/wasnorm_wordpool_576.txt	LTP348	ltpFR2	9	11	GARLIC	624	n/a	n/a	0	0	0
2462.65185546875	n/a	REC_WORD	5043511	wordpools/wasnorm_wordpool_576.txt	LTP348	ltpFR2	9	11	BLENDER	136	n/a	n/a	0	0	0
2463.36767578125	n/a	REC_WORD	5044977	wordpools/wasnorm_wordpool_576.txt	LTP348	ltpFR2	9	11	BLADE	134	n/a	n/a	0	0	0
2469.56787109375	n/a	REC_WORD	5057675	wordpools/wasnorm_wordpool_576.txt	LTP348	ltpFR2	9	11	CUSTARD	429	n/a	n/a	0	0	0
2470.24853515625	n/a	REC_WORD	5059069	wordpools/wasnorm_wordpool_576.txt	LTP348	ltpFR2	9	11	PLAZA	1088	n/a	n/a	0	0	0
2472.48583984375	n/a	REC_WORD	5063651	wordpools/wasnorm_wordpool_576.txt	LTP348	ltpFR2	9	11	PLIERS	1089	n/a	n/a	0	0	0
2493.89892578125	n/a	REC_WORD	5107505	wordpools/wasnorm_wordpool_576.txt	LTP348	ltpFR2	9	11	TRAVEL	-1	n/a	n/a	0	0	0
2510.166015625	n/a	REC_WORD	5140820	wordpools/wasnorm_wordpool_576.txt	LTP348	ltpFR2	9	11	SWIMMER	1420	n/a	n/a	0	0	0
2519.23828125	n/a	REC_WORD	5159400	wordpools/wasnorm_wordpool_576.txt	LTP348	ltpFR2	9	11	LIZARD	834	n/a	n/a	0	0	0
2548.154296875	n/a	DISTRACTOR	5218620	n/a	LTP348	ltpFR2	9	12	n/a	n/a	n/a	n/a	0	0	0
2548.1552734375	n/a	START	5218622	n/a	LTP348	ltpFR2	9	n/a	n/a	n/a	18	n/a	n/a	n/a	n/a
2548.17138671875	n/a	PROB	5218655	n/a	LTP348	ltpFR2	9	n/a	n/a	n/a	18	10	5	4	1
2550.0703125	n/a	PROB	5222544	n/a	LTP348	ltpFR2	9	n/a	n/a	n/a	18	12	4	4	4
2551.7373046875	n/a	PROB	5225958	n/a	LTP348	ltpFR2	9	n/a	n/a	n/a	18	21	8	8	5
2553.9521484375	n/a	PROB	5230494	n/a	LTP348	ltpFR2	9	n/a	n/a	n/a	18	14	4	7	3
2555.6171875	n/a	PROB	5233904	n/a	LTP348	ltpFR2	9	n/a	n/a	n/a	18	17	5	7	5
2557.734375	n/a	PROB	5238240	n/a	LTP348	ltpFR2	9	n/a	n/a	n/a	18	9	2	2	3
2560.01513671875	n/a	PROB	5242911	n/a	LTP348	ltpFR2	9	n/a	n/a	n/a	18	14	4	2	8
2563.43017578125	n/a	PROB	5249905	n/a	LTP348	ltpFR2	9	n/a	n/a	n/a	18	17	9	3	5
2572.154296875	n/a	STOP	5267772	n/a	LTP348	ltpFR2	9	n/a	n/a	n/a	18	n/a	n/a	n/a	n/a
2573.09228515625	n/a	WORD	5269693	wordpools/wasnorm_wordpool_576.txt	LTP348	ltpFR2	9	12	HEART	697	n/a	n/a	0	0	0
2575.8251953125	n/a	WORD	5275290	wordpools/wasnorm_wordpool_576.txt	LTP348	ltpFR2	9	12	PEDAL	1037	n/a	n/a	0	0	0
2578.4736328125	n/a	WORD	5280714	wordpools/wasnorm_wordpool_576.txt	LTP348	ltpFR2	9	12	BRIEFCASE	175	n/a	n/a	0	0	0
2581.28857421875	n/a	WORD	5286479	wordpools/wasnorm_wordpool_576.txt	LTP348	ltpFR2	9	12	BOARD	143	n/a	n/a	0	0	0
2583.95458984375	n/a	WORD	5291939	wordpools/wasnorm_wordpool_576.txt	LTP348	ltpFR2	9	12	BLACKBOARD	133	n/a	n/a	0	0	0
2586.4853515625	n/a	WORD	5297122	wordpools/wasnorm_wordpool_576.txt	LTP348	ltpFR2	9	12	COFFEE	341	n/a	n/a	0	0	0
2589.0673828125	n/a	WORD	5302410	wordpools/wasnorm_wordpool_576.txt	LTP348	ltpFR2	9	12	OX	994	n/a	n/a	0	0	0
2591.8505859375	n/a	WORD	5308110	wordpools/wasnorm_wordpool_576.txt	LTP348	ltpFR2	9	12	COUNTY	389	n/a	n/a	0	0	0
2594.49853515625	n/a	WORD	5313533	wordpools/wasnorm_wordpool_576.txt	LTP348	ltpFR2	9	12	SALAD	1224	n/a	n/a	0	0	0
2597.1474609375	n/a	WORD	5318958	wordpools/wasnorm_wordpool_576.txt	LTP348	ltpFR2	9	12	DRAGON	492	n/a	n/a	0	0	0
2599.595703125	n/a	WORD	5323972	wordpools/wasnorm_wordpool_576.txt	LTP348	ltpFR2	9	12	MAPLE	866	n/a	n/a	0	0	0
2602.11181640625	n/a	WORD	5329125	wordpools/wasnorm_wordpool_576.txt	LTP348	ltpFR2	9	12	PASTA	1021	n/a	n/a	0	0	0
2604.79443359375	n/a	WORD	5334619	wordpools/wasnorm_wordpool_576.txt	LTP348	ltpFR2	9	12	AWARD	63	n/a	n/a	0	0	0
2607.57568359375	n/a	WORD	5340315	wordpools/wasnorm_wordpool_576.txt	LTP348	ltpFR2	9	12	PROTON	1132	n/a	n/a	0	0	0
2610.37353515625	n/a	WORD	5346045	wordpools/wasnorm_wordpool_576.txt	LTP348	ltpFR2	9	12	CLOCK	325	n/a	n/a	0	0	0
2612.90771484375	n/a	WORD	5351235	wordpools/wasnorm_wordpool_576.txt	LTP348	ltpFR2	9	12	CUPBOARD	425	n/a	n/a	0	0	0
2615.4716796875	n/a	WORD	5356486	wordpools/wasnorm_wordpool_576.txt	LTP348	ltpFR2	9	12	DRILL	497	n/a	n/a	0	0	0
2618.26953125	n/a	WORD	5362216	wordpools/wasnorm_wordpool_576.txt	LTP348	ltpFR2	9	12	COCOON	339	n/a	n/a	0	0	0
2620.98583984375	n/a	WORD	5367779	wordpools/wasnorm_wordpool_576.txt	LTP348	ltpFR2	9	12	ACTRESS	6	n/a	n/a	0	0	0
2623.71875	n/a	WORD	5373376	wordpools/wasnorm_wordpool_576.txt	LTP348	ltpFR2	9	12	BISON	131	n/a	n/a	0	0	0
2626.216796875	n/a	WORD	5378492	wordpools/wasnorm_wordpool_576.txt	LTP348	ltpFR2	9	12	LABEL	790	n/a	n/a	0	0	0
2629.0146484375	n/a	WORD	5384222	wordpools/wasnorm_wordpool_576.txt	LTP348	ltpFR2	9	12	PERCH	1048	n/a	n/a	0	0	0
2631.48095703125	n/a	WORD	5389273	wordpools/wasnorm_wordpool_576.txt	LTP348	ltpFR2	9	12	GROUND	666	n/a	n/a	0	0	0
2634.06298828125	n/a	WORD	5394561	wordpools/wasnorm_wordpool_576.txt	LTP348	ltpFR2	9	12	DUST	508	n/a	n/a	0	0	0
2635.6787109375	n/a	START	5397870	n/a	LTP348	ltpFR2	9	n/a	n/a	n/a	19	n/a	n/a	n/a	n/a
2636.72265625	n/a	DISTRACTOR	5400008	n/a	LTP348	ltpFR2	9	12	n/a	n/a	n/a	n/a	0	0	0
2636.72900390625	n/a	PROB	5400021	n/a	LTP348	ltpFR2	9	n/a	n/a	n/a	19	24	6	9	9
2640.5927734375	n/a	PROB	5407934	n/a	LTP348	ltpFR2	9	n/a	n/a	n/a	19	15	5	6	4
2643.07470703125	n/a	PROB	5413017	n/a	LTP348	ltpFR2	9	n/a	n/a	n/a	19	17	7	1	9
2645.60693359375	n/a	PROB	5418203	n/a	LTP348	ltpFR2	9	n/a	n/a	n/a	19	16	7	8	1
2648.65478515625	n/a	PROB	5424445	n/a	LTP348	ltpFR2	9	n/a	n/a	n/a	19	15	3	6	6
2651.63671875	n/a	PROB	5430552	n/a	LTP348	ltpFR2	9	n/a	n/a	n/a	19	13	3	3	7
2655.15185546875	n/a	PROB	5437751	n/a	LTP348	ltpFR2	9	n/a	n/a	n/a	19	11	8	2	1
2656.869140625	n/a	PROB	5441268	n/a	LTP348	ltpFR2	9	n/a	n/a	n/a	19	8	5	1	2
2659.19091796875	n/a	STOP	5446023	n/a	LTP348	ltpFR2	9	n/a	n/a	n/a	19	n/a	n/a	n/a	n/a
2661.56591796875	n/a	REC_START	5450887	n/a	LTP348	ltpFR2	9	12	n/a	n/a	n/a	n/a	0	0	0
2661.90185546875	n/a	REC_WORD	5451575	wordpools/wasnorm_wordpool_576.txt	LTP348	ltpFR2	9	12	DUST	508	n/a	n/a	0	0	0
2663.5439453125	n/a	REC_WORD	5454938	wordpools/wasnorm_wordpool_576.txt	LTP348	ltpFR2	9	12	MAPLE	866	n/a	n/a	0	0	0
2664.36376953125	n/a	REC_WORD	5456617	wordpools/wasnorm_wordpool_576.txt	LTP348	ltpFR2	9	12	COCOON	339	n/a	n/a	0	0	0
2665.48681640625	n/a	REC_WORD	5458917	wordpools/wasnorm_wordpool_576.txt	LTP348	ltpFR2	9	12	HEART	697	n/a	n/a	0	0	0
2667.47998046875	n/a	REC_WORD	5462999	wordpools/wasnorm_wordpool_576.txt	LTP348	ltpFR2	9	12	COUNTY	389	n/a	n/a	0	0	0
2669.46923828125	n/a	REC_WORD	5467073	wordpools/wasnorm_wordpool_576.txt	LTP348	ltpFR2	9	12	DRAGON	492	n/a	n/a	0	0	0
2672.92529296875	n/a	REC_WORD	5474151	wordpools/wasnorm_wordpool_576.txt	LTP348	ltpFR2	9	12	PROTON	1132	n/a	n/a	0	0	0
2675.88623046875	n/a	REC_WORD	5480215	wordpools/wasnorm_wordpool_576.txt	LTP348	ltpFR2	9	12	PIZZA	1079	n/a	n/a	0	0	0
2676.7099609375	n/a	REC_WORD	5481902	wordpools/wasnorm_wordpool_576.txt	LTP348	ltpFR2	9	12	PASTA	1021	n/a	n/a	0	0	0
2679.1650390625	n/a	REC_WORD	5486930	wordpools/wasnorm_wordpool_576.txt	LTP348	ltpFR2	9	12	CUSTARD	429	n/a	n/a	0	0	0
2683.7353515625	n/a	REC_WORD	5496290	wordpools/wasnorm_wordpool_576.txt	LTP348	ltpFR2	9	12	COFFEE	341	n/a	n/a	0	0	0
2693.8662109375	n/a	REC_WORD	5517038	wordpools/wasnorm_wordpool_576.txt	LTP348	ltpFR2	9	12	WAITRESS	1581	n/a	n/a	0	0	0
2694.6611328125	n/a	REC_WORD	5518666	wordpools/wasnorm_wordpool_576.txt	LTP348	ltpFR2	9	12	ACTRESS	6	n/a	n/a	0	0	0
2706.83642578125	n/a	REC_WORD	5543601	wordpools/wasnorm_wordpool_576.txt	LTP348	ltpFR2	9	12	PERCH	1048	n/a	n/a	0	0	0
2729.42041015625	n/a	REC_WORD	5589853	wordpools/wasnorm_wordpool_576.txt	LTP348	ltpFR2	9	12	WAITER	1580	n/a	n/a	0	0	0
2735.95654296875	n/a	REC_WORD	5603239	wordpools/wasnorm_wordpool_576.txt	LTP348	ltpFR2	9	12	BREAST	171	n/a	n/a	0	0	0
2752.00439453125	n/a	DISTRACTOR	5636105	n/a	LTP348	ltpFR2	9	13	n/a	n/a	n/a	n/a	0	0	0
2752.00439453125	n/a	START	5636105	n/a	LTP348	ltpFR2	9	n/a	n/a	n/a	20	n/a	n/a	n/a	n/a
2752.021484375	n/a	PROB	5636140	n/a	LTP348	ltpFR2	9	n/a	n/a	n/a	20	14	3	8	3
2756.00244140625	n/a	PROB	5644293	n/a	LTP348	ltpFR2	9	n/a	n/a	n/a	20	16	9	2	5
2761.6845703125	n/a	PROB	5655930	n/a	LTP348	ltpFR2	9	n/a	n/a	n/a	20	12	2	2	8
2764.58154296875	n/a	PROB	5661863	n/a	LTP348	ltpFR2	9	n/a	n/a	n/a	20	18	8	6	4
2766.0478515625	n/a	PROB	5664866	n/a	LTP348	ltpFR2	9	n/a	n/a	n/a	20	8	4	3	1
2767.86474609375	n/a	PROB	5668587	n/a	LTP348	ltpFR2	9	n/a	n/a	n/a	20	16	5	2	9
2771.9296875	n/a	PROB	5676912	n/a	LTP348	ltpFR2	9	n/a	n/a	n/a	20	12	8	3	1
2776.0048828125	n/a	STOP	5685258	n/a	LTP348	ltpFR2	9	n/a	n/a	n/a	20	n/a	n/a	n/a	n/a
2777.0927734375	n/a	WORD	5687486	wordpools/wasnorm_wordpool_576.txt	LTP348	ltpFR2	9	13	OZONE	996	n/a	n/a	0	0	0
2779.65771484375	n/a	WORD	5692739	wordpools/wasnorm_wordpool_576.txt	LTP348	ltpFR2	9	13	LADY	794	n/a	n/a	0	0	0
2782.37255859375	n/a	WORD	5698299	wordpools/wasnorm_wordpool_576.txt	LTP348	ltpFR2	9	13	CRUTCH	417	n/a	n/a	0	0	0
2785.10498046875	n/a	WORD	5703895	wordpools/wasnorm_wordpool_576.txt	LTP348	ltpFR2	9	13	LEG	809	n/a	n/a	0	0	0
2787.90478515625	n/a	WORD	5709629	wordpools/wasnorm_wordpool_576.txt	LTP348	ltpFR2	9	13	TOMBSTONE	1478	n/a	n/a	0	0	0
2790.40283203125	n/a	WORD	5714745	wordpools/wasnorm_wordpool_576.txt	LTP348	ltpFR2	9	13	NOTEBOOK	959	n/a	n/a	0	0	0
2793.2177734375	n/a	WORD	5720510	wordpools/wasnorm_wordpool_576.txt	LTP348	ltpFR2	9	13	SCRIBBLE	1256	n/a	n/a	0	0	0
2795.8505859375	n/a	WORD	5725902	wordpools/wasnorm_wordpool_576.txt	LTP348	ltpFR2	9	13	HIGHWAY	707	n/a	n/a	0	0	0
2798.46484375	n/a	WORD	5731256	wordpools/wasnorm_wordpool_576.txt	LTP348	ltpFR2	9	13	PASSAGE	1019	n/a	n/a	0	0	0
2801.06396484375	n/a	WORD	5736579	wordpools/wasnorm_wordpool_576.txt	LTP348	ltpFR2	9	13	ROOSTER	1209	n/a	n/a	0	0	0
2803.763671875	n/a	WORD	5742108	wordpools/wasnorm_wordpool_576.txt	LTP348	ltpFR2	9	13	MARKET	871	n/a	n/a	0	0	0
2806.3447265625	n/a	WORD	5747394	wordpools/wasnorm_wordpool_576.txt	LTP348	ltpFR2	9	13	PLAYGROUND	1087	n/a	n/a	0	0	0
2808.9599609375	n/a	WORD	5752750	wordpools/wasnorm_wordpool_576.txt	LTP348	ltpFR2	9	13	YOLK	1633	n/a	n/a	0	0	0
2811.77587890625	n/a	WORD	5758517	wordpools/wasnorm_wordpool_576.txt	LTP348	ltpFR2	9	13	CELLAR	267	n/a	n/a	0	0	0
2814.35693359375	n/a	WORD	5763803	wordpools/wasnorm_wordpool_576.txt	LTP348	ltpFR2	9	13	FRAME	600	n/a	n/a	0	0	0
2816.8408203125	n/a	WORD	5768890	wordpools/wasnorm_wordpool_576.txt	LTP348	ltpFR2	9	13	WOMAN	1620	n/a	n/a	0	0	0
2819.55517578125	n/a	WORD	5774449	wordpools/wasnorm_wordpool_576.txt	LTP348	ltpFR2	9	13	GRIZZLY	662	n/a	n/a	0	0	0
2822.287109375	n/a	WORD	5780044	wordpools/wasnorm_wordpool_576.txt	LTP348	ltpFR2	9	13	MARKER	870	n/a	n/a	0	0	0
2825.0361328125	n/a	WORD	5785674	wordpools/wasnorm_wordpool_576.txt	LTP348	ltpFR2	9	13	WARDROBE	1587	n/a	n/a	0	0	0
2827.583984375	n/a	WORD	5790892	wordpools/wasnorm_wordpool_576.txt	LTP348	ltpFR2	9	13	COSTUME	383	n/a	n/a	0	0	0
2830.2001953125	n/a	WORD	5796250	wordpools/wasnorm_wordpool_576.txt	LTP348	ltpFR2	9	13	ROBIN	1199	n/a	n/a	0	0	0
2832.6318359375	n/a	WORD	5801230	wordpools/wasnorm_wordpool_576.txt	LTP348	ltpFR2	9	13	PIGMENT	1066	n/a	n/a	0	0	0
2835.447265625	n/a	WORD	5806996	wordpools/wasnorm_wordpool_576.txt	LTP348	ltpFR2	9	13	FRIAR	605	n/a	n/a	0	0	0
2838.06201171875	n/a	WORD	5812351	wordpools/wasnorm_wordpool_576.txt	LTP348	ltpFR2	9	13	ROD	1203	n/a	n/a	0	0	0
2839.67822265625	n/a	START	5815661	n/a	LTP348	ltpFR2	9	n/a	n/a	n/a	21	n/a	n/a	n/a	n/a
2840.50830078125	n/a	DISTRACTOR	5817361	n/a	LTP348	ltpFR2	9	13	n/a	n/a	n/a	n/a	0	0	0
2840.51123046875	n/a	PROB	5817367	n/a	LTP348	ltpFR2	9	n/a	n/a	n/a	21	15	4	6	5
2842.92822265625	n/a	PROB	5822317	n/a	LTP348	ltpFR2	9	n/a	n/a	n/a	21	15	7	2	6
2847.2080078125	n/a	PROB	5831082	n/a	LTP348	ltpFR2	9	n/a	n/a	n/a	21	19	5	9	5
2849.0400390625	n/a	PROB	5834834	n/a	LTP348	ltpFR2	9	n/a	n/a	n/a	21	13	5	5	3
2850.373046875	n/a	PROB	5837564	n/a	LTP348	ltpFR2	9	n/a	n/a	n/a	21	20	8	4	8
2853.25537109375	n/a	PROB	5843467	n/a	LTP348	ltpFR2	9	n/a	n/a	n/a	21	17	2	9	5
2857.43603515625	n/a	PROB	5852029	n/a	LTP348	ltpFR2	9	n/a	n/a	n/a	21	15	9	4	2
2863.67724609375	n/a	STOP	5864811	n/a	LTP348	ltpFR2	9	n/a	n/a	n/a	21	n/a	n/a	n/a	n/a
2865.46630859375	n/a	REC_START	5868475	n/a	LTP348	ltpFR2	9	13	n/a	n/a	n/a	n/a	0	0	0
2865.9873046875	n/a	REC_WORD	5869542	wordpools/wasnorm_wordpool_576.txt	LTP348	ltpFR2	9	13	OZONE	996	n/a	n/a	0	0	0
2866.783203125	n/a	REC_WORD	5871172	wordpools/wasnorm_wordpool_576.txt	LTP348	ltpFR2	9	13	LADY	794	n/a	n/a	0	0	0
2867.6083984375	n/a	REC_WORD	5872862	wordpools/wasnorm_wordpool_576.txt	LTP348	ltpFR2	9	13	WOMAN	1620	n/a	n/a	0	0	0
2888.55419921875	n/a	REC_WORD	5915759	wordpools/wasnorm_wordpool_576.txt	LTP348	ltpFR2	9	13	ROBIN	1199	n/a	n/a	0	0	0
2889.3603515625	n/a	REC_WORD	5917410	wordpools/wasnorm_wordpool_576.txt	LTP348	ltpFR2	9	13	PIGMENT	1066	n/a	n/a	0	0	0
2893.7294921875	n/a	REC_WORD	5926358	wordpools/wasnorm_wordpool_576.txt	LTP348	ltpFR2	9	13	FRAGMENT	-1	n/a	n/a	0	0	0
2917.2666015625	n/a	REC_WORD	5974562	wordpools/wasnorm_wordpool_576.txt	LTP348	ltpFR2	9	13	TROMBONE	1508	n/a	n/a	0	0	0
2923.62255859375	n/a	REC_WORD	5987579	wordpools/wasnorm_wordpool_576.txt	LTP348	ltpFR2	9	13	TOMBSTONE	1478	n/a	n/a	0	0	0
2955.9228515625	n/a	WORD	6053730	wordpools/wasnorm_wordpool_576.txt	LTP348	ltpFR2	9	14	YARN	1631	n/a	n/a	0	0	0
2958.4697265625	n/a	WORD	6058946	wordpools/wasnorm_wordpool_576.txt	LTP348	ltpFR2	9	14	JOURNAL	760	n/a	n/a	0	0	0
2961.251953125	n/a	WORD	6064644	wordpools/wasnorm_wordpool_576.txt	LTP348	ltpFR2	9	14	CEILING	265	n/a	n/a	0	0	0
2963.98388671875	n/a	WORD	6070239	wordpools/wasnorm_wordpool_576.txt	LTP348	ltpFR2	9	14	LADDER	793	n/a	n/a	0	0	0
2966.56591796875	n/a	WORD	6075527	wordpools/wasnorm_wordpool_576.txt	LTP348	ltpFR2	9	14	PEPPER	1047	n/a	n/a	0	0	0
2969.23193359375	n/a	WORD	6080987	wordpools/wasnorm_wordpool_576.txt	LTP348	ltpFR2	9	14	BARLEY	88	n/a	n/a	0	0	0
2971.73095703125	n/a	WORD	6086105	wordpools/wasnorm_wordpool_576.txt	LTP348	ltpFR2	9	14	SHOVEL	1295	n/a	n/a	0	0	0
2974.24609375	n/a	WORD	6091256	wordpools/wasnorm_wordpool_576.txt	LTP348	ltpFR2	9	14	KIDNEY	776	n/a	n/a	0	0	0
2976.677734375	n/a	WORD	6096236	wordpools/wasnorm_wordpool_576.txt	LTP348	ltpFR2	9	14	YACHT	1629	n/a	n/a	0	0	0
2979.1767578125	n/a	WORD	6101354	wordpools/wasnorm_wordpool_576.txt	LTP348	ltpFR2	9	14	GRAVE	658	n/a	n/a	0	0	0
2981.89306640625	n/a	WORD	6106917	wordpools/wasnorm_wordpool_576.txt	LTP348	ltpFR2	9	14	BANKER	84	n/a	n/a	0	0	0
2984.4072265625	n/a	WORD	6112066	wordpools/wasnorm_wordpool_576.txt	LTP348	ltpFR2	9	14	PECAN	1036	n/a	n/a	0	0	0
2987.0888671875	n/a	WORD	6117558	wordpools/wasnorm_wordpool_576.txt	LTP348	ltpFR2	9	14	SEAFOOD	1260	n/a	n/a	0	0	0
2989.822265625	n/a	WORD	6123156	wordpools/wasnorm_wordpool_576.txt	LTP348	ltpFR2	9	14	SCALLOP	1242	n/a	n/a	0	0	0
2992.31982421875	n/a	WORD	6128271	wordpools/wasnorm_wordpool_576.txt	LTP348	ltpFR2	9	14	PALACE	1006	n/a	n/a	0	0	0
2994.919921875	n/a	WORD	6133596	wordpools/wasnorm_wordpool_576.txt	LTP348	ltpFR2	9	14	GOBLIN	645	n/a	n/a	0	0	0
2997.43408203125	n/a	WORD	6138745	wordpools/wasnorm_wordpool_576.txt	LTP348	ltpFR2	9	14	DONOR	485	n/a	n/a	0	0	0
3000.0	n/a	WORD	6144000	wordpools/wasnorm_wordpool_576.txt	LTP348	ltpFR2	9	14	MACHINE	852	n/a	n/a	0	0	0
3002.63232421875	n/a	WORD	6149391	wordpools/wasnorm_wordpool_576.txt	LTP348	ltpFR2	9	14	VENUS	1557	n/a	n/a	0	0	0
3005.4140625	n/a	WORD	6155088	wordpools/wasnorm_wordpool_576.txt	LTP348	ltpFR2	9	14	THREAD	1460	n/a	n/a	0	0	0
3007.97900390625	n/a	WORD	6160341	wordpools/wasnorm_wordpool_576.txt	LTP348	ltpFR2	9	14	GRAPE	654	n/a	n/a	0	0	0
3010.5283203125	n/a	WORD	6165562	wordpools/wasnorm_wordpool_576.txt	LTP348	ltpFR2	9	14	LIGHTNING	820	n/a	n/a	0	0	0
3013.2763671875	n/a	WORD	6171190	wordpools/wasnorm_wordpool_576.txt	LTP348	ltpFR2	9	14	XEROX	1628	n/a	n/a	0	0	0
3015.84326171875	n/a	WORD	6176447	wordpools/wasnorm_wordpool_576.txt	LTP348	ltpFR2	9	14	WINDOW	1611	n/a	n/a	0	0	0
3017.4580078125	n/a	START	6179754	n/a	LTP348	ltpFR2	9	n/a	n/a	n/a	22	n/a	n/a	n/a	n/a
3018.31103515625	n/a	DISTRACTOR	6181501	n/a	LTP348	ltpFR2	9	14	n/a	n/a	n/a	n/a	0	0	0
3018.32421875	n/a	PROB	6181528	n/a	LTP348	ltpFR2	9	n/a	n/a	n/a	22	12	2	8	2
3020.70703125	n/a	PROB	6186408	n/a	LTP348	ltpFR2	9	n/a	n/a	n/a	22	12	2	5	5
3022.205078125	n/a	PROB	6189476	n/a	LTP348	ltpFR2	9	n/a	n/a	n/a	22	20	6	6	8
3025.0712890625	n/a	PROB	6195346	n/a	LTP348	ltpFR2	9	n/a	n/a	n/a	22	11	6	4	1
3026.5703125	n/a	PROB	6198416	n/a	LTP348	ltpFR2	9	n/a	n/a	n/a	22	6	2	1	3
3028.8203125	n/a	PROB	6203024	n/a	LTP348	ltpFR2	9	n/a	n/a	n/a	22	12	9	2	1
3030.53515625	n/a	PROB	6206536	n/a	LTP348	ltpFR2	9	n/a	n/a	n/a	22	21	7	7	7
3032.08447265625	n/a	PROB	6209709	n/a	LTP348	ltpFR2	9	n/a	n/a	n/a	22	13	3	5	5
3033.58349609375	n/a	PROB	6212779	n/a	LTP348	ltpFR2	9	n/a	n/a	n/a	22	17	6	9	2
3041.45849609375	n/a	STOP	6228907	n/a	LTP348	ltpFR2	9	n/a	n/a	n/a	22	n/a	n/a	n/a	n/a
3043.3623046875	n/a	REC_START	6232806	n/a	LTP348	ltpFR2	9	14	n/a	n/a	n/a	n/a	0	0	0
3047.5205078125	n/a	REC_WORD	6241322	wordpools/wasnorm_wordpool_576.txt	LTP348	ltpFR2	9	14	KIDNEY	776	n/a	n/a	0	0	0
3049.64453125	n/a	REC_WORD	6245672	wordpools/wasnorm_wordpool_576.txt	LTP348	ltpFR2	9	14	DONOR	485	n/a	n/a	0	0	0
3053.150390625	n/a	REC_WORD	6252852	wordpools/wasnorm_wordpool_576.txt	LTP348	ltpFR2	9	14	GRAVEL	659	n/a	n/a	0	0	0
3055.943359375	n/a	REC_WORD	6258572	wordpools/wasnorm_wordpool_576.txt	LTP348	ltpFR2	9	14	WIDOW	1608	n/a	n/a	0	0	0
3057.08935546875	n/a	REC_WORD	6260919	wordpools/wasnorm_wordpool_576.txt	LTP348	ltpFR2	9	14	KITCHEN	778	n/a	n/a	0	0	0
3057.697265625	n/a	REC_WORD	6262164	wordpools/wasnorm_wordpool_576.txt	LTP348	ltpFR2	9	14	WINDOW	1611	n/a	n/a	0	0	0
3065.62841796875	n/a	REC_WORD	6278407	wordpools/wasnorm_wordpool_576.txt	LTP348	ltpFR2	9	14	YARN	1631	n/a	n/a	0	0	0
3066.34033203125	n/a	REC_WORD	6279865	wordpools/wasnorm_wordpool_576.txt	LTP348	ltpFR2	9	14	YACHT	1629	n/a	n/a	0	0	0
3072.42236328125	n/a	REC_WORD	6292321	wordpools/wasnorm_wordpool_576.txt	LTP348	ltpFR2	9	14	SIBLING	1301	n/a	n/a	0	0	0
3085.5986328125	n/a	REC_WORD	6319306	wordpools/wasnorm_wordpool_576.txt	LTP348	ltpFR2	9	14	JOURNAL	760	n/a	n/a	0	0	0
3094.64794921875	n/a	REC_WORD	6337839	wordpools/wasnorm_wordpool_576.txt	LTP348	ltpFR2	9	14	PASTA	1021	n/a	n/a	0	0	0
3095.28564453125	n/a	REC_WORD	6339145	wordpools/wasnorm_wordpool_576.txt	LTP348	ltpFR2	9	14	PIZZA	1079	n/a	n/a	0	0	0
3098.685546875	n/a	REC_WORD	6346108	wordpools/wasnorm_wordpool_576.txt	LTP348	ltpFR2	9	14	MUSTARD	935	n/a	n/a	0	0	0
3099.3056640625	n/a	REC_WORD	6347378	wordpools/wasnorm_wordpool_576.txt	LTP348	ltpFR2	9	14	SEAFOOD	1260	n/a	n/a	0	0	0
3133.81884765625	n/a	WORD	6418061	wordpools/wasnorm_wordpool_576.txt	LTP348	ltpFR2	9	15	DANDRUFF	439	n/a	n/a	0	0	0
3136.5830078125	n/a	WORD	6423722	wordpools/wasnorm_wordpool_576.txt	LTP348	ltpFR2	9	15	BODY	145	n/a	n/a	0	0	0
3139.31494140625	n/a	WORD	6429317	wordpools/wasnorm_wordpool_576.txt	LTP348	ltpFR2	9	15	APPLE	33	n/a	n/a	0	0	0
3141.8310546875	n/a	WORD	6434470	wordpools/wasnorm_wordpool_576.txt	LTP348	ltpFR2	9	15	FRUIT	610	n/a	n/a	0	0	0
3144.39599609375	n/a	WORD	6439723	wordpools/wasnorm_wordpool_576.txt	LTP348	ltpFR2	9	15	VIKING	1565	n/a	n/a	0	0	0
3147.02783203125	n/a	WORD	6445113	wordpools/wasnorm_wordpool_576.txt	LTP348	ltpFR2	9	15	MAMMAL	861	n/a	n/a	0	0	0
3149.81103515625	n/a	WORD	6450813	wordpools/wasnorm_wordpool_576.txt	LTP348	ltpFR2	9	15	SHERIFF	1284	n/a	n/a	0	0	0
3152.44189453125	n/a	WORD	6456201	wordpools/wasnorm_wordpool_576.txt	LTP348	ltpFR2	9	15	OUTFIT	988	n/a	n/a	0	0	0
3155.14013671875	n/a	WORD	6461727	wordpools/wasnorm_wordpool_576.txt	LTP348	ltpFR2	9	15	PILOT	1070	n/a	n/a	0	0	0
3157.85693359375	n/a	WORD	6467291	wordpools/wasnorm_wordpool_576.txt	LTP348	ltpFR2	9	15	TRANSPLANT	1496	n/a	n/a	0	0	0
3160.404296875	n/a	WORD	6472508	wordpools/wasnorm_wordpool_576.txt	LTP348	ltpFR2	9	15	LIVER	833	n/a	n/a	0	0	0
3162.87109375	n/a	WORD	6477560	wordpools/wasnorm_wordpool_576.txt	LTP348	ltpFR2	9	15	CASHIER	254	n/a	n/a	0	0	0
3165.68603515625	n/a	WORD	6483325	wordpools/wasnorm_wordpool_576.txt	LTP348	ltpFR2	9	15	BRICK	172	n/a	n/a	0	0	0
3168.13427734375	n/a	WORD	6488339	wordpools/wasnorm_wordpool_576.txt	LTP348	ltpFR2	9	15	PUDDING	1139	n/a	n/a	0	0	0
3170.59912109375	n/a	WORD	6493387	wordpools/wasnorm_wordpool_576.txt	LTP348	ltpFR2	9	15	STREAM	1392	n/a	n/a	0	0	0
3173.365234375	n/a	WORD	6499052	wordpools/wasnorm_wordpool_576.txt	LTP348	ltpFR2	9	15	RAFT	1159	n/a	n/a	0	0	0
3175.814453125	n/a	WORD	6504068	wordpools/wasnorm_wordpool_576.txt	LTP348	ltpFR2	9	15	AIRPLANE	12	n/a	n/a	0	0	0
3178.42919921875	n/a	WORD	6509423	wordpools/wasnorm_wordpool_576.txt	LTP348	ltpFR2	9	15	SHELTER	1282	n/a	n/a	0	0	0
3181.14404296875	n/a	WORD	6514983	wordpools/wasnorm_wordpool_576.txt	LTP348	ltpFR2	9	15	FLOWER	584	n/a	n/a	0	0	0
3183.76025390625	n/a	WORD	6520341	wordpools/wasnorm_wordpool_576.txt	LTP348	ltpFR2	9	15	PEBBLE	1035	n/a	n/a	0	0	0
3186.22509765625	n/a	WORD	6525389	wordpools/wasnorm_wordpool_576.txt	LTP348	ltpFR2	9	15	DIVER	476	n/a	n/a	0	0	0
3188.775390625	n/a	WORD	6530612	wordpools/wasnorm_wordpool_576.txt	LTP348	ltpFR2	9	15	AUTHOR	61	n/a	n/a	0	0	0
3191.322265625	n/a	WORD	6535828	wordpools/wasnorm_wordpool_576.txt	LTP348	ltpFR2	9	15	NOVEL	960	n/a	n/a	0	0	0
3193.9052734375	n/a	WORD	6541118	wordpools/wasnorm_wordpool_576.txt	LTP348	ltpFR2	9	15	SUMMIT	1405	n/a	n/a	0	0	0
3195.5205078125	n/a	START	6544426	n/a	LTP348	ltpFR2	9	n/a	n/a	n/a	23	n/a	n/a	n/a	n/a
3196.494140625	n/a	DISTRACTOR	6546420	n/a	LTP348	ltpFR2	9	15	n/a	n/a	n/a	n/a	0	0	0
3196.50341796875	n/a	PROB	6546439	n/a	LTP348	ltpFR2	9	n/a	n/a	n/a	23	12	1	4	7
3201.201171875	n/a	PROB	6556060	n/a	LTP348	ltpFR2	9	n/a	n/a	n/a	23	15	9	2	4
3205.41552734375	n/a	PROB	6564691	n/a	LTP348	ltpFR2	9	n/a	n/a	n/a	23	11	2	8	1
3207.28125	n/a	PROB	6568512	n/a	LTP348	ltpFR2	9	n/a	n/a	n/a	23	19	6	8	5
3213.54541015625	n/a	PROB	6581341	n/a	LTP348	ltpFR2	9	n/a	n/a	n/a	23	197	4	6	7
3219.5205078125	n/a	STOP	6593578	n/a	LTP348	ltpFR2	9	n/a	n/a	n/a	23	n/a	n/a	n/a	n/a
3221.29150390625	n/a	REC_START	6597205	n/a	LTP348	ltpFR2	9	15	n/a	n/a	n/a	n/a	0	0	0
3222.7705078125	n/a	REC_WORD	6600234	wordpools/wasnorm_wordpool_576.txt	LTP348	ltpFR2	9	15	BODY	145	n/a	n/a	0	0	0
3223.2333984375	n/a	REC_WORD	6601182	wordpools/wasnorm_wordpool_576.txt	LTP348	ltpFR2	9	15	HUMAN	726	n/a	n/a	0	0	0
3228.4365234375	n/a	REC_WORD	6611838	wordpools/wasnorm_wordpool_576.txt	LTP348	ltpFR2	9	15	FLOWER	584	n/a	n/a	0	0	0
3237.6328125	n/a	REC_WORD	6630672	wordpools/wasnorm_wordpool_576.txt	LTP348	ltpFR2	9	15	GRAVE	658	n/a	n/a	0	0	0
3242.2197265625	n/a	REC_WORD	6640066	wordpools/wasnorm_wordpool_576.txt	LTP348	ltpFR2	9	15	MAMMAL	861	n/a	n/a	0	0	0
3244.77685546875	n/a	REC_WORD	6645303	wordpools/wasnorm_wordpool_576.txt	LTP348	ltpFR2	9	15	DIVER	476	n/a	n/a	0	0	0
3268.91357421875	n/a	REC_WORD	6694735	wordpools/wasnorm_wordpool_576.txt	LTP348	ltpFR2	9	15	PAIL	1002	n/a	n/a	0	0	0
3269.65380859375	n/a	REC_WORD	6696251	wordpools/wasnorm_wordpool_576.txt	LTP348	ltpFR2	9	15	PLAID	1080	n/a	n/a	0	0	0
3311.748046875	n/a	WORD	6782460	wordpools/wasnorm_wordpool_576.txt	LTP348	ltpFR2	9	16	CRICKET	408	n/a	n/a	0	0	0
3314.1962890625	n/a	WORD	6787474	wordpools/wasnorm_wordpool_576.txt	LTP348	ltpFR2	9	16	TERMITE	1451	n/a	n/a	0	0	0
3316.6611328125	n/a	WORD	6792522	wordpools/wasnorm_wordpool_576.txt	LTP348	ltpFR2	9	16	MEDAL	885	n/a	n/a	0	0	0
3319.17724609375	n/a	WORD	6797675	wordpools/wasnorm_wordpool_576.txt	LTP348	ltpFR2	9	16	RELISH	1183	n/a	n/a	0	0	0
3321.958984375	n/a	WORD	6803372	wordpools/wasnorm_wordpool_576.txt	LTP348	ltpFR2	9	16	PATIENT	1024	n/a	n/a	0	0	0
3324.7412109375	n/a	WORD	6809070	wordpools/wasnorm_wordpool_576.txt	LTP348	ltpFR2	9	16	QUEEN	1149	n/a	n/a	0	0	0
3327.4560546875	n/a	WORD	6814630	wordpools/wasnorm_wordpool_576.txt	LTP348	ltpFR2	9	16	DINER	467	n/a	n/a	0	0	0
3330.25439453125	n/a	WORD	6820361	wordpools/wasnorm_wordpool_576.txt	LTP348	ltpFR2	9	16	FIREPLACE	570	n/a	n/a	0	0	0
3332.9541015625	n/a	WORD	6825890	wordpools/wasnorm_wordpool_576.txt	LTP348	ltpFR2	9	16	SNAKE	1333	n/a	n/a	0	0	0
3335.76904296875	n/a	WORD	6831655	wordpools/wasnorm_wordpool_576.txt	LTP348	ltpFR2	9	16	ORCHID	982	n/a	n/a	0	0	0
3338.38427734375	n/a	WORD	6837011	wordpools/wasnorm_wordpool_576.txt	LTP348	ltpFR2	9	16	BEAKER	104	n/a	n/a	0	0	0
3341.18212890625	n/a	WORD	6842741	wordpools/wasnorm_wordpool_576.txt	LTP348	ltpFR2	9	16	BEEF	113	n/a	n/a	0	0	0
3343.88232421875	n/a	WORD	6848271	wordpools/wasnorm_wordpool_576.txt	LTP348	ltpFR2	9	16	GLASS	639	n/a	n/a	0	0	0
3346.59619140625	n/a	WORD	6853829	wordpools/wasnorm_wordpool_576.txt	LTP348	ltpFR2	9	16	COCKTAIL	338	n/a	n/a	0	0	0
3349.12841796875	n/a	WORD	6859015	wordpools/wasnorm_wordpool_576.txt	LTP348	ltpFR2	9	16	SPOON	1357	n/a	n/a	0	0	0
3351.9111328125	n/a	WORD	6864714	wordpools/wasnorm_wordpool_576.txt	LTP348	ltpFR2	9	16	HATCHET	691	n/a	n/a	0	0	0
3354.62646484375	n/a	WORD	6870275	wordpools/wasnorm_wordpool_576.txt	LTP348	ltpFR2	9	16	BEAVER	109	n/a	n/a	0	0	0
3357.2412109375	n/a	WORD	6875630	wordpools/wasnorm_wordpool_576.txt	LTP348	ltpFR2	9	16	VIRUS	1572	n/a	n/a	0	0	0
3359.8916015625	n/a	WORD	6881058	wordpools/wasnorm_wordpool_576.txt	LTP348	ltpFR2	9	16	TYPIST	1532	n/a	n/a	0	0	0
3362.4384765625	n/a	WORD	6886274	wordpools/wasnorm_wordpool_576.txt	LTP348	ltpFR2	9	16	ROBOT	1200	n/a	n/a	0	0	0
3364.88818359375	n/a	WORD	6891291	wordpools/wasnorm_wordpool_576.txt	LTP348	ltpFR2	9	16	SAUSAGE	1238	n/a	n/a	0	0	0
3367.46923828125	n/a	WORD	6896577	wordpools/wasnorm_wordpool_576.txt	LTP348	ltpFR2	9	16	JELLY	755	n/a	n/a	0	0	0
3370.2685546875	n/a	WORD	6902310	wordpools/wasnorm_wordpool_576.txt	LTP348	ltpFR2	9	16	BANQUET	86	n/a	n/a	0	0	0
3373.00048828125	n/a	WORD	6907905	wordpools/wasnorm_wordpool_576.txt	LTP348	ltpFR2	9	16	PIMPLE	1071	n/a	n/a	0	0	0
3374.61669921875	n/a	START	6911215	n/a	LTP348	ltpFR2	9	n/a	n/a	n/a	24	n/a	n/a	n/a	n/a
3375.49365234375	n/a	DISTRACTOR	6913011	n/a	LTP348	ltpFR2	9	16	n/a	n/a	n/a	n/a	0	0	0
3375.49951171875	n/a	PROB	6913023	n/a	LTP348	ltpFR2	9	n/a	n/a	n/a	24	15	6	7	2
3379.21337890625	n/a	PROB	6920629	n/a	LTP348	ltpFR2	9	n/a	n/a	n/a	24	14	7	3	4
3380.814453125	n/a	PROB	6923908	n/a	LTP348	ltpFR2	9	n/a	n/a	n/a	24	16	7	1	8
3382.96240234375	n/a	PROB	6928307	n/a	LTP348	ltpFR2	9	n/a	n/a	n/a	24	13	6	2	5
3385.427734375	n/a	PROB	6933356	n/a	LTP348	ltpFR2	9	n/a	n/a	n/a	24	20	8	5	7
3389.7763671875	n/a	PROB	6942262	n/a	LTP348	ltpFR2	9	n/a	n/a	n/a	24	7	5	1	1
3392.57373046875	n/a	PROB	6947991	n/a	LTP348	ltpFR2	9	n/a	n/a	n/a	24	10	1	3	6
3394.65673828125	n/a	PROB	6952257	n/a	LTP348	ltpFR2	9	n/a	n/a	n/a	24	12	6	1	5
3398.61669921875	n/a	STOP	6960367	n/a	LTP348	ltpFR2	9	n/a	n/a	n/a	24	n/a	n/a	n/a	n/a
3400.5205078125	n/a	REC_START	6964266	n/a	LTP348	ltpFR2	9	16	n/a	n/a	n/a	n/a	0	0	0
3401.0166015625	n/a	REC_WORD	6965282	wordpools/wasnorm_wordpool_576.txt	LTP348	ltpFR2	9	16	BANQUET	86	n/a	n/a	0	0	0
3408.12451171875	n/a	REC_WORD	6979839	wordpools/wasnorm_wordpool_576.txt	LTP348	ltpFR2	9	16	JELLY	755	n/a	n/a	0	0	0
3424.0166015625	n/a	REC_WORD	7012386	wordpools/wasnorm_wordpool_576.txt	LTP348	ltpFR2	9	16	SAUSAGE	1238	n/a	n/a	0	0	0
3436.71875	n/a	REC_WORD	7038400	wordpools/wasnorm_wordpool_576.txt	LTP348	ltpFR2	9	16	AIRPORT	13	n/a	n/a	0	0	0
3437.55810546875	n/a	REC_WORD	7040119	wordpools/wasnorm_wordpool_576.txt	LTP348	ltpFR2	9	16	AIRPLANE	12	n/a	n/a	0	0	0
3453.3388671875	n/a	REC_WORD_VV	7072438	wordpools/wasnorm_wordpool_576.txt	LTP348	ltpFR2	9	16	<>	-1	n/a	n/a	0	0	0
3456.61376953125	n/a	REC_WORD	7079145	wordpools/wasnorm_wordpool_576.txt	LTP348	ltpFR2	9	16	GAVEL	627	n/a	n/a	0	0	0
3457.6162109375	n/a	REC_WORD	7081198	wordpools/wasnorm_wordpool_576.txt	LTP348	ltpFR2	9	16	GRAVEL	659	n/a	n/a	0	0	0
3459.30810546875	n/a	REC_WORD	7084663	wordpools/wasnorm_wordpool_576.txt	LTP348	ltpFR2	9	16	ROCKET	1202	n/a	n/a	0	0	0
3477.06591796875	n/a	REST_REWET	7121031	n/a	LTP348	ltpFR2	9	16	n/a	n/a	n/a	n/a	0	0	0
3689.12841796875	n/a	WORD	7555335	wordpools/wasnorm_wordpool_576.txt	LTP348	ltpFR2	9	17	SALT	1229	n/a	n/a	0	0	0
3691.67724609375	n/a	WORD	7560555	wordpools/wasnorm_wordpool_576.txt	LTP348	ltpFR2	9	17	SPIDER	1351	n/a	n/a	0	0	0
3694.20947265625	n/a	WORD	7565741	wordpools/wasnorm_wordpool_576.txt	LTP348	ltpFR2	9	17	BUG	187	n/a	n/a	0	0	0
3696.90966796875	n/a	WORD	7571271	wordpools/wasnorm_wordpool_576.txt	LTP348	ltpFR2	9	17	TART	1436	n/a	n/a	0	0	0
3699.34033203125	n/a	WORD	7576249	wordpools/wasnorm_wordpool_576.txt	LTP348	ltpFR2	9	17	TREAT	1501	n/a	n/a	0	0	0
3701.97265625	n/a	WORD	7581640	wordpools/wasnorm_wordpool_576.txt	LTP348	ltpFR2	9	17	MOTEL	919	n/a	n/a	0	0	0
3704.53759765625	n/a	WORD	7586893	wordpools/wasnorm_wordpool_576.txt	LTP348	ltpFR2	9	17	SCOTCH	1251	n/a	n/a	0	0	0
3707.3525390625	n/a	WORD	7592658	wordpools/wasnorm_wordpool_576.txt	LTP348	ltpFR2	9	17	DRESSER	496	n/a	n/a	0	0	0
3709.81982421875	n/a	WORD	7597711	wordpools/wasnorm_wordpool_576.txt	LTP348	ltpFR2	9	17	COUCH	386	n/a	n/a	0	0	0
3712.33349609375	n/a	WORD	7602859	wordpools/wasnorm_wordpool_576.txt	LTP348	ltpFR2	9	17	SHORTCAKE	1292	n/a	n/a	0	0	0
3714.9658203125	n/a	WORD	7608250	wordpools/wasnorm_wordpool_576.txt	LTP348	ltpFR2	9	17	MONEY	908	n/a	n/a	0	0	0
3717.3974609375	n/a	WORD	7613230	wordpools/wasnorm_wordpool_576.txt	LTP348	ltpFR2	9	17	OMELET	976	n/a	n/a	0	0	0
3719.94775390625	n/a	WORD	7618453	wordpools/wasnorm_wordpool_576.txt	LTP348	ltpFR2	9	17	TOURIST	1488	n/a	n/a	0	0	0
3722.57861328125	n/a	WORD	7623841	wordpools/wasnorm_wordpool_576.txt	LTP348	ltpFR2	9	17	LOVER	846	n/a	n/a	0	0	0
3725.11083984375	n/a	WORD	7629027	wordpools/wasnorm_wordpool_576.txt	LTP348	ltpFR2	9	17	FLASK	576	n/a	n/a	0	0	0
3727.77783203125	n/a	WORD	7634489	wordpools/wasnorm_wordpool_576.txt	LTP348	ltpFR2	9	17	PACKAGE	997	n/a	n/a	0	0	0
3730.40869140625	n/a	WORD	7639877	wordpools/wasnorm_wordpool_576.txt	LTP348	ltpFR2	9	17	COOK	372	n/a	n/a	0	0	0
3732.87451171875	n/a	WORD	7644927	wordpools/wasnorm_wordpool_576.txt	LTP348	ltpFR2	9	17	CABBAGE	210	n/a	n/a	0	0	0
3735.52294921875	n/a	WORD	7650351	wordpools/wasnorm_wordpool_576.txt	LTP348	ltpFR2	9	17	TUTU	1524	n/a	n/a	0	0	0
3738.2216796875	n/a	WORD	7655878	wordpools/wasnorm_wordpool_576.txt	LTP348	ltpFR2	9	17	TABLE	1426	n/a	n/a	0	0	0
3740.82080078125	n/a	WORD	7661201	wordpools/wasnorm_wordpool_576.txt	LTP348	ltpFR2	9	17	NIGHTGOWN	953	n/a	n/a	0	0	0
3743.6015625	n/a	WORD	7666896	wordpools/wasnorm_wordpool_576.txt	LTP348	ltpFR2	9	17	NURSE	963	n/a	n/a	0	0	0
3746.216796875	n/a	WORD	7672252	wordpools/wasnorm_wordpool_576.txt	LTP348	ltpFR2	9	17	SHORTS	1293	n/a	n/a	0	0	0
3748.70068359375	n/a	WORD	7677339	wordpools/wasnorm_wordpool_576.txt	LTP348	ltpFR2	9	17	QUARTER	1148	n/a	n/a	0	0	0
3750.31591796875	n/a	START	7680647	n/a	LTP348	ltpFR2	9	n/a	n/a	n/a	25	n/a	n/a	n/a	n/a
3751.474609375	n/a	DISTRACTOR	7683020	n/a	LTP348	ltpFR2	9	17	n/a	n/a	n/a	n/a	0	0	0
3751.48193359375	n/a	PROB	7683035	n/a	LTP348	ltpFR2	9	n/a	n/a	n/a	25	22	6	9	8
3756.962890625	n/a	PROB	7694260	n/a	LTP348	ltpFR2	9	n/a	n/a	n/a	25	22	8	6	8
3759.927734375	n/a	PROB	7700332	n/a	LTP348	ltpFR2	9	n/a	n/a	n/a	25	19	7	6	6
3764.32470703125	n/a	PROB	7709337	n/a	LTP348	ltpFR2	9	n/a	n/a	n/a	25	168	7	7	4
3774.31591796875	n/a	STOP	7729799	n/a	LTP348	ltpFR2	9	n/a	n/a	n/a	25	n/a	n/a	n/a	n/a
3776.18701171875	n/a	REC_START	7733631	n/a	LTP348	ltpFR2	9	17	n/a	n/a	n/a	n/a	0	0	0
3776.7958984375	n/a	REC_WORD	7734878	wordpools/wasnorm_wordpool_576.txt	LTP348	ltpFR2	9	17	SHORTCAKE	1292	n/a	n/a	0	0	0
3777.72802734375	n/a	REC_WORD	7736787	wordpools/wasnorm_wordpool_576.txt	LTP348	ltpFR2	9	17	TART	1436	n/a	n/a	0	0	0
3779.09521484375	n/a	REC_WORD	7739587	wordpools/wasnorm_wordpool_576.txt	LTP348	ltpFR2	9	17	BUG	187	n/a	n/a	0	0	0
3781.18505859375	n/a	REC_WORD	7743867	wordpools/wasnorm_wordpool_576.txt	LTP348	ltpFR2	9	17	DRESSER	496	n/a	n/a	0	0	0
3783.205078125	n/a	REC_WORD	7748004	wordpools/wasnorm_wordpool_576.txt	LTP348	ltpFR2	9	17	SHIRT	1287	n/a	n/a	0	0	0
3788.697265625	n/a	REC_WORD	7759252	wordpools/wasnorm_wordpool_576.txt	LTP348	ltpFR2	9	17	CUSTARD	429	n/a	n/a	0	0	0
3795.318359375	n/a	REC_WORD	7772812	wordpools/wasnorm_wordpool_576.txt	LTP348	ltpFR2	9	17	SPIDER	1351	n/a	n/a	0	0	0
3812.08544921875	n/a	REC_WORD	7807151	wordpools/wasnorm_wordpool_576.txt	LTP348	ltpFR2	9	17	SCOTCH	1251	n/a	n/a	0	0	0
3812.830078125	n/a	REC_WORD	7808676	wordpools/wasnorm_wordpool_576.txt	LTP348	ltpFR2	9	17	DRINK	498	n/a	n/a	0	0	0
3817.68310546875	n/a	REC_WORD	7818615	wordpools/wasnorm_wordpool_576.txt	LTP348	ltpFR2	9	17	WHISKEY	-1	n/a	n/a	0	0	0
3866.6748046875	n/a	WORD	7918950	wordpools/wasnorm_wordpool_576.txt	LTP348	ltpFR2	9	18	SIDEWALK	1303	n/a	n/a	0	0	0
3869.107421875	n/a	WORD	7923932	wordpools/wasnorm_wordpool_576.txt	LTP348	ltpFR2	9	18	LUGGAGE	847	n/a	n/a	0	0	0
3871.7568359375	n/a	WORD	7929358	wordpools/wasnorm_wordpool_576.txt	LTP348	ltpFR2	9	18	SUITCASE	1403	n/a	n/a	0	0	0
3874.25439453125	n/a	WORD	7934473	wordpools/wasnorm_wordpool_576.txt	LTP348	ltpFR2	9	18	COBRA	336	n/a	n/a	0	0	0
3876.8046875	n/a	WORD	7939696	wordpools/wasnorm_wordpool_576.txt	LTP348	ltpFR2	9	18	BASEMENT	94	n/a	n/a	0	0	0
3879.3857421875	n/a	WORD	7944982	wordpools/wasnorm_wordpool_576.txt	LTP348	ltpFR2	9	18	CLIMBER	323	n/a	n/a	0	0	0
3881.8515625	n/a	WORD	7950032	wordpools/wasnorm_wordpool_576.txt	LTP348	ltpFR2	9	18	BOYFRIEND	162	n/a	n/a	0	0	0
3884.2998046875	n/a	WORD	7955046	wordpools/wasnorm_wordpool_576.txt	LTP348	ltpFR2	9	18	TRUCK	1512	n/a	n/a	0	0	0
3886.74951171875	n/a	WORD	7960063	wordpools/wasnorm_wordpool_576.txt	LTP348	ltpFR2	9	18	PRIMATE	1123	n/a	n/a	0	0	0
3889.33056640625	n/a	WORD	7965349	wordpools/wasnorm_wordpool_576.txt	LTP348	ltpFR2	9	18	NAPKIN	937	n/a	n/a	0	0	0
3892.1455078125	n/a	WORD	7971114	wordpools/wasnorm_wordpool_576.txt	LTP348	ltpFR2	9	18	CONTRACT	368	n/a	n/a	0	0	0
3894.7958984375	n/a	WORD	7976542	wordpools/wasnorm_wordpool_576.txt	LTP348	ltpFR2	9	18	CABIN	211	n/a	n/a	0	0	0
3897.4267578125	n/a	WORD	7981930	wordpools/wasnorm_wordpool_576.txt	LTP348	ltpFR2	9	18	JUNGLE	764	n/a	n/a	0	0	0
3900.224609375	n/a	WORD	7987660	wordpools/wasnorm_wordpool_576.txt	LTP348	ltpFR2	9	18	ULCER	1533	n/a	n/a	0	0	0
3902.7578125	n/a	WORD	7992848	wordpools/wasnorm_wordpool_576.txt	LTP348	ltpFR2	9	18	STOMACH	1384	n/a	n/a	0	0	0
3905.52294921875	n/a	WORD	7998511	wordpools/wasnorm_wordpool_576.txt	LTP348	ltpFR2	9	18	RUG	1215	n/a	n/a	0	0	0
3908.23779296875	n/a	WORD	8004071	wordpools/wasnorm_wordpool_576.txt	LTP348	ltpFR2	9	18	SANDWICH	1232	n/a	n/a	0	0	0
3910.8876953125	n/a	WORD	8009498	wordpools/wasnorm_wordpool_576.txt	LTP348	ltpFR2	9	18	RUST	1219	n/a	n/a	0	0	0
3913.3359375	n/a	WORD	8014512	wordpools/wasnorm_wordpool_576.txt	LTP348	ltpFR2	9	18	WORLD	1622	n/a	n/a	0	0	0
3916.05078125	n/a	WORD	8020072	wordpools/wasnorm_wordpool_576.txt	LTP348	ltpFR2	9	18	MARROW	872	n/a	n/a	0	0	0
3918.5830078125	n/a	WORD	8025258	wordpools/wasnorm_wordpool_576.txt	LTP348	ltpFR2	9	18	PUPPY	1144	n/a	n/a	0	0	0
3921.39794921875	n/a	WORD	8031023	wordpools/wasnorm_wordpool_576.txt	LTP348	ltpFR2	9	18	SWAMP	1416	n/a	n/a	0	0	0
3924.11279296875	n/a	WORD	8036583	wordpools/wasnorm_wordpool_576.txt	LTP348	ltpFR2	9	18	LODGE	839	n/a	n/a	0	0	0
3926.595703125	n/a	WORD	8041668	wordpools/wasnorm_wordpool_576.txt	LTP348	ltpFR2	9	18	CREVICE	405	n/a	n/a	0	0	0
3928.2119140625	n/a	START	8044978	n/a	LTP348	ltpFR2	9	n/a	n/a	n/a	26	n/a	n/a	n/a	n/a
3929.14501953125	n/a	DISTRACTOR	8046889	n/a	LTP348	ltpFR2	9	18	n/a	n/a	n/a	n/a	0	0	0
3929.1611328125	n/a	PROB	8046922	n/a	LTP348	ltpFR2	9	n/a	n/a	n/a	26	18	7	3	8
3931.2431640625	n/a	PROB	8051186	n/a	LTP348	ltpFR2	9	n/a	n/a	n/a	26	31	6	5	9
3939.572265625	n/a	PROB	8068244	n/a	LTP348	ltpFR2	9	n/a	n/a	n/a	26	15	5	6	4
3941.98828125	n/a	PROB	8073192	n/a	LTP348	ltpFR2	9	n/a	n/a	n/a	26	20	5	8	7
3946.35205078125	n/a	PROB	8082129	n/a	LTP348	ltpFR2	9	n/a	n/a	n/a	26	7	3	1	3
3948.66796875	n/a	PROB	8086872	n/a	LTP348	ltpFR2	9	n/a	n/a	n/a	26	8	1	2	5
3951.21533203125	n/a	STOP	8092089	n/a	LTP348	ltpFR2	9	n/a	n/a	n/a	26	n/a	n/a	n/a	n/a
3954.06689453125	n/a	REC_START	8097929	n/a	LTP348	ltpFR2	9	18	n/a	n/a	n/a	n/a	0	0	0
3954.30126953125	n/a	REC_WORD	8098409	wordpools/wasnorm_wordpool_576.txt	LTP348	ltpFR2	9	18	CREVICE	405	n/a	n/a	0	0	0
3956.00830078125	n/a	REC_WORD	8101905	wordpools/wasnorm_wordpool_576.txt	LTP348	ltpFR2	9	18	SIDEWALK	1303	n/a	n/a	0	0	0
3984.49609375	n/a	REC_WORD	8160248	wordpools/wasnorm_wordpool_576.txt	LTP348	ltpFR2	9	18	CHEST	295	n/a	n/a	0	0	0
4044.53759765625	n/a	WORD	8283213	wordpools/wasnorm_wordpool_576.txt	LTP348	ltpFR2	9	19	PLASTER	1085	n/a	n/a	0	0	0
4047.302734375	n/a	WORD	8288876	wordpools/wasnorm_wordpool_576.txt	LTP348	ltpFR2	9	19	PEANUT	1032	n/a	n/a	0	0	0
4049.919921875	n/a	WORD	8294236	wordpools/wasnorm_wordpool_576.txt	LTP348	ltpFR2	9	19	MUSTARD	935	n/a	n/a	0	0	0
4052.48388671875	n/a	WORD	8299487	wordpools/wasnorm_wordpool_576.txt	LTP348	ltpFR2	9	19	DANCER	437	n/a	n/a	0	0	0
4055.03271484375	n/a	WORD	8304707	wordpools/wasnorm_wordpool_576.txt	LTP348	ltpFR2	9	19	CROWN	415	n/a	n/a	0	0	0
4057.83154296875	n/a	WORD	8310439	wordpools/wasnorm_wordpool_576.txt	LTP348	ltpFR2	9	19	KNIFE	785	n/a	n/a	0	0	0
4060.5966796875	n/a	WORD	8316102	wordpools/wasnorm_wordpool_576.txt	LTP348	ltpFR2	9	19	CIGAR	308	n/a	n/a	0	0	0
4063.02880859375	n/a	WORD	8321083	wordpools/wasnorm_wordpool_576.txt	LTP348	ltpFR2	9	19	PRINCESS	1125	n/a	n/a	0	0	0
4065.5107421875	n/a	WORD	8326166	wordpools/wasnorm_wordpool_576.txt	LTP348	ltpFR2	9	19	PISTOL	1075	n/a	n/a	0	0	0
4068.009765625	n/a	WORD	8331284	wordpools/wasnorm_wordpool_576.txt	LTP348	ltpFR2	9	19	FEMALE	559	n/a	n/a	0	0	0
4070.72607421875	n/a	WORD	8336847	wordpools/wasnorm_wordpool_576.txt	LTP348	ltpFR2	9	19	SKETCH	1315	n/a	n/a	0	0	0
4073.20703125	n/a	WORD	8341928	wordpools/wasnorm_wordpool_576.txt	LTP348	ltpFR2	9	19	BULLET	194	n/a	n/a	0	0	0
4075.7900390625	n/a	WORD	8347218	wordpools/wasnorm_wordpool_576.txt	LTP348	ltpFR2	9	19	ARM	38	n/a	n/a	0	0	0
4078.5537109375	n/a	WORD	8352878	wordpools/wasnorm_wordpool_576.txt	LTP348	ltpFR2	9	19	SPARROW	1347	n/a	n/a	0	0	0
4081.0869140625	n/a	WORD	8358066	wordpools/wasnorm_wordpool_576.txt	LTP348	ltpFR2	9	19	COTTAGE	384	n/a	n/a	0	0	0
4083.7197265625	n/a	WORD	8363458	wordpools/wasnorm_wordpool_576.txt	LTP348	ltpFR2	9	19	MONSTER	912	n/a	n/a	0	0	0
4086.51708984375	n/a	WORD	8369187	wordpools/wasnorm_wordpool_576.txt	LTP348	ltpFR2	9	19	CAMEL	223	n/a	n/a	0	0	0
4089.166015625	n/a	WORD	8374612	wordpools/wasnorm_wordpool_576.txt	LTP348	ltpFR2	9	19	FRAGRANCE	599	n/a	n/a	0	0	0
4091.73193359375	n/a	WORD	8379867	wordpools/wasnorm_wordpool_576.txt	LTP348	ltpFR2	9	19	ONION	977	n/a	n/a	0	0	0
4094.212890625	n/a	WORD	8384948	wordpools/wasnorm_wordpool_576.txt	LTP348	ltpFR2	9	19	LASER	801	n/a	n/a	0	0	0
4096.662109375	n/a	WORD	8389964	wordpools/wasnorm_wordpool_576.txt	LTP348	ltpFR2	9	19	FLASHLIGHT	575	n/a	n/a	0	0	0
4099.44384765625	n/a	WORD	8395661	wordpools/wasnorm_wordpool_576.txt	LTP348	ltpFR2	9	19	MATCH	878	n/a	n/a	0	0	0
4102.05908203125	n/a	WORD	8401017	wordpools/wasnorm_wordpool_576.txt	LTP348	ltpFR2	9	19	HERO	706	n/a	n/a	0	0	0
4104.50830078125	n/a	WORD	8406033	wordpools/wasnorm_wordpool_576.txt	LTP348	ltpFR2	9	19	SEAL	1262	n/a	n/a	0	0	0
4106.1240234375	n/a	START	8409342	n/a	LTP348	ltpFR2	9	n/a	n/a	n/a	27	n/a	n/a	n/a	n/a
4107.0791015625	n/a	DISTRACTOR	8411298	n/a	LTP348	ltpFR2	9	19	n/a	n/a	n/a	n/a	0	0	0
4107.08984375	n/a	PROB	8411320	n/a	LTP348	ltpFR2	9	n/a	n/a	n/a	27	13	5	7	1
4113.12109375	n/a	PROB	8423672	n/a	LTP348	ltpFR2	9	n/a	n/a	n/a	27	9	4	3	2
4117.10205078125	n/a	PROB	8431825	n/a	LTP348	ltpFR2	9	n/a	n/a	n/a	27	14	8	1	5
4119.51708984375	n/a	PROB	8436771	n/a	LTP348	ltpFR2	9	n/a	n/a	n/a	27	13	8	2	3
4121.533203125	n/a	PROB	8440900	n/a	LTP348	ltpFR2	9	n/a	n/a	n/a	27	15	1	4	8
4130.1240234375	n/a	STOP	8458494	n/a	LTP348	ltpFR2	9	n/a	n/a	n/a	27	n/a	n/a	n/a	n/a
4131.8974609375	n/a	REC_START	8462126	n/a	LTP348	ltpFR2	9	19	n/a	n/a	n/a	n/a	0	0	0
4132.7001953125	n/a	REC_WORD	8463770	wordpools/wasnorm_wordpool_576.txt	LTP348	ltpFR2	9	19	PEANUT	1032	n/a	n/a	0	0	0
4134.13623046875	n/a	REC_WORD	8466711	wordpools/wasnorm_wordpool_576.txt	LTP348	ltpFR2	9	19	PISTOL	1075	n/a	n/a	0	0	0
4139.7412109375	n/a	REC_WORD	8478190	wordpools/wasnorm_wordpool_576.txt	LTP348	ltpFR2	9	19	PRINCESS	1125	n/a	n/a	0	0	0
4159.87548828125	n/a	REC_WORD	8519425	wordpools/wasnorm_wordpool_576.txt	LTP348	ltpFR2	9	19	DRESSER	496	n/a	n/a	0	0	0
4165.2236328125	n/a	REC_WORD	8530378	wordpools/wasnorm_wordpool_576.txt	LTP348	ltpFR2	9	19	SEAL	1262	n/a	n/a	0	0	0
4168.17626953125	n/a	REC_WORD	8536425	wordpools/wasnorm_wordpool_576.txt	LTP348	ltpFR2	9	19	JELLY	755	n/a	n/a	0	0	0
4178.54833984375	n/a	REC_WORD	8557667	wordpools/wasnorm_wordpool_576.txt	LTP348	ltpFR2	9	19	GANGSTER	620	n/a	n/a	0	0	0
4186.845703125	n/a	REC_WORD	8574660	wordpools/wasnorm_wordpool_576.txt	LTP348	ltpFR2	9	19	MUSTARD	935	n/a	n/a	0	0	0
4191.009765625	n/a	REC_WORD	8583188	wordpools/wasnorm_wordpool_576.txt	LTP348	ltpFR2	9	19	PALACE	1006	n/a	n/a	0	0	0
4222.3505859375	n/a	DISTRACTOR	8647374	n/a	LTP348	ltpFR2	9	20	n/a	n/a	n/a	n/a	0	0	0
4222.3505859375	n/a	START	8647374	n/a	LTP348	ltpFR2	9	n/a	n/a	n/a	28	n/a	n/a	n/a	n/a
4222.36669921875	n/a	PROB	8647407	n/a	LTP348	ltpFR2	9	n/a	n/a	n/a	28	21	4	7	9
4226.5146484375	n/a	PROB	8655902	n/a	LTP348	ltpFR2	9	n/a	n/a	n/a	28	15	3	6	6
4231.3798828125	n/a	PROB	8665866	n/a	LTP348	ltpFR2	9	n/a	n/a	n/a	28	17	5	7	5
4233.11181640625	n/a	PROB	8669413	n/a	LTP348	ltpFR2	9	n/a	n/a	n/a	28	14	6	5	3
4238.7939453125	n/a	PROB	8681050	n/a	LTP348	ltpFR2	9	n/a	n/a	n/a	28	16	6	8	7
4240.80908203125	n/a	PROB	8685177	n/a	LTP348	ltpFR2	9	n/a	n/a	n/a	28	23	9	3	8
4246.041015625	n/a	STOP	8695892	n/a	LTP348	ltpFR2	9	n/a	n/a	n/a	28	n/a	n/a	n/a	n/a
4247.22216796875	n/a	WORD	8698311	wordpools/wasnorm_wordpool_576.txt	LTP348	ltpFR2	9	20	CAPTIVE	240	n/a	n/a	0	0	0
4249.68701171875	n/a	WORD	8703359	wordpools/wasnorm_wordpool_576.txt	LTP348	ltpFR2	9	20	COD	340	n/a	n/a	0	0	0
4252.40283203125	n/a	WORD	8708921	wordpools/wasnorm_wordpool_576.txt	LTP348	ltpFR2	9	20	SHARK	1275	n/a	n/a	0	0	0
4254.869140625	n/a	WORD	8713972	wordpools/wasnorm_wordpool_576.txt	LTP348	ltpFR2	9	20	CONVICT	371	n/a	n/a	0	0	0
4257.3828125	n/a	WORD	8719120	wordpools/wasnorm_wordpool_576.txt	LTP348	ltpFR2	9	20	ORANGE	980	n/a	n/a	0	0	0
4260.09912109375	n/a	WORD	8724683	wordpools/wasnorm_wordpool_576.txt	LTP348	ltpFR2	9	20	BUNNY	198	n/a	n/a	0	0	0
4262.89794921875	n/a	WORD	8730415	wordpools/wasnorm_wordpool_576.txt	LTP348	ltpFR2	9	20	PUDDLE	1140	n/a	n/a	0	0	0
4265.4130859375	n/a	WORD	8735566	wordpools/wasnorm_wordpool_576.txt	LTP348	ltpFR2	9	20	PEACH	1031	n/a	n/a	0	0	0
4268.06103515625	n/a	WORD	8740989	wordpools/wasnorm_wordpool_576.txt	LTP348	ltpFR2	9	20	GRAVEL	659	n/a	n/a	0	0	0
4270.56005859375	n/a	WORD	8746107	wordpools/wasnorm_wordpool_576.txt	LTP348	ltpFR2	9	20	PIZZA	1079	n/a	n/a	0	0	0
4273.359375	n/a	WORD	8751840	wordpools/wasnorm_wordpool_576.txt	LTP348	ltpFR2	9	20	SERVANT	1271	n/a	n/a	0	0	0
4275.9580078125	n/a	WORD	8757162	wordpools/wasnorm_wordpool_576.txt	LTP348	ltpFR2	9	20	HELMET	702	n/a	n/a	0	0	0
4278.623046875	n/a	WORD	8762620	wordpools/wasnorm_wordpool_576.txt	LTP348	ltpFR2	9	20	LAPEL	800	n/a	n/a	0	0	0
4281.072265625	n/a	WORD	8767636	wordpools/wasnorm_wordpool_576.txt	LTP348	ltpFR2	9	20	HOOD	714	n/a	n/a	0	0	0
4283.85498046875	n/a	WORD	8773335	wordpools/wasnorm_wordpool_576.txt	LTP348	ltpFR2	9	20	CLOUD	328	n/a	n/a	0	0	0
4286.58642578125	n/a	WORD	8778929	wordpools/wasnorm_wordpool_576.txt	LTP348	ltpFR2	9	20	CHEST	295	n/a	n/a	0	0	0
4289.4013671875	n/a	WORD	8784694	wordpools/wasnorm_wordpool_576.txt	LTP348	ltpFR2	9	20	CASHEW	253	n/a	n/a	0	0	0
4292.10009765625	n/a	WORD	8790221	wordpools/wasnorm_wordpool_576.txt	LTP348	ltpFR2	9	20	POPCORN	1104	n/a	n/a	0	0	0
4294.88232421875	n/a	WORD	8795919	wordpools/wasnorm_wordpool_576.txt	LTP348	ltpFR2	9	20	FINGER	567	n/a	n/a	0	0	0
4297.38037109375	n/a	WORD	8801035	wordpools/wasnorm_wordpool_576.txt	LTP348	ltpFR2	9	20	FLESH	579	n/a	n/a	0	0	0
4300.162109375	n/a	WORD	8806732	wordpools/wasnorm_wordpool_576.txt	LTP348	ltpFR2	9	20	RIVER	1194	n/a	n/a	0	0	0
4302.71240234375	n/a	WORD	8811955	wordpools/wasnorm_wordpool_576.txt	LTP348	ltpFR2	9	20	IDOL	733	n/a	n/a	0	0	0
4305.326171875	n/a	WORD	8817308	wordpools/wasnorm_wordpool_576.txt	LTP348	ltpFR2	9	20	ANKLE	24	n/a	n/a	0	0	0
4308.09228515625	n/a	WORD	8822973	wordpools/wasnorm_wordpool_576.txt	LTP348	ltpFR2	9	20	STONE	1385	n/a	n/a	0	0	0
4309.70947265625	n/a	START	8826285	n/a	LTP348	ltpFR2	9	n/a	n/a	n/a	29	n/a	n/a	n/a	n/a
4310.8232421875	n/a	DISTRACTOR	8828566	n/a	LTP348	ltpFR2	9	20	n/a	n/a	n/a	n/a	0	0	0
4310.82421875	n/a	PROB	8828568	n/a	LTP348	ltpFR2	9	n/a	n/a	n/a	29	20	5	9	6
4315.63818359375	n/a	PROB	8838427	n/a	LTP348	ltpFR2	9	n/a	n/a	n/a	29	16	2	7	7
4317.4873046875	n/a	PROB	8842214	n/a	LTP348	ltpFR2	9	n/a	n/a	n/a	29	10	3	6	1
4319.61962890625	n/a	PROB	8846581	n/a	LTP348	ltpFR2	9	n/a	n/a	n/a	29	21	5	8	8
4321.58544921875	n/a	PROB	8850607	n/a	LTP348	ltpFR2	9	n/a	n/a	n/a	29	14	5	6	3
4325.11669921875	n/a	PROB	8857839	n/a	LTP348	ltpFR2	9	n/a	n/a	n/a	29	14	2	6	6
4326.71728515625	n/a	PROB	8861117	n/a	LTP348	ltpFR2	9	n/a	n/a	n/a	29	20	7	8	6
4333.70947265625	n/a	STOP	8875437	n/a	LTP348	ltpFR2	9	n/a	n/a	n/a	29	n/a	n/a	n/a	n/a
4335.57861328125	n/a	REC_START	8879265	n/a	LTP348	ltpFR2	9	20	n/a	n/a	n/a	n/a	0	0	0
4336.1103515625	n/a	REC_WORD	8880354	wordpools/wasnorm_wordpool_576.txt	LTP348	ltpFR2	9	20	SHARK	1275	n/a	n/a	0	0	0
4337.43359375	n/a	REC_WORD	8883064	wordpools/wasnorm_wordpool_576.txt	LTP348	ltpFR2	9	20	CAPTIVE	240	n/a	n/a	0	0	0
4341.8125	n/a	REC_WORD	8892032	wordpools/wasnorm_wordpool_576.txt	LTP348	ltpFR2	9	20	PIZZA	1079	n/a	n/a	0	0	0
4344.025390625	n/a	REC_WORD	8896564	wordpools/wasnorm_wordpool_576.txt	LTP348	ltpFR2	9	20	BUNNY	198	n/a	n/a	0	0	0
4349.8447265625	n/a	REC_WORD	8908482	wordpools/wasnorm_wordpool_576.txt	LTP348	ltpFR2	9	20	GRAVEL	659	n/a	n/a	0	0	0
4356.5986328125	n/a	REC_WORD	8922314	wordpools/wasnorm_wordpool_576.txt	LTP348	ltpFR2	9	20	DIVER	476	n/a	n/a	0	0	0
4357.32666015625	n/a	REC_WORD	8923805	wordpools/wasnorm_wordpool_576.txt	LTP348	ltpFR2	9	20	SWIMMER	1420	n/a	n/a	0	0	0
4377.19189453125	n/a	REC_WORD	8964489	wordpools/wasnorm_wordpool_576.txt	LTP348	ltpFR2	9	20	DOLPHIN	483	n/a	n/a	0	0	0
