onset	duration	trial_type	sample	stim_file	subject	experiment	session	trial	task	item_name	item_num	recog_resp	recog_conf	resp	color_r	color_g	color_b	case	font
238.086	n/a	SESS_START	119043	n/a	LTP107	ltpFR	6	n/a	n/a	n/a	n/a	1	5	n/a	n/a	n/a	n/a	n/a	n/a
303.196	n/a	WORD	151598	wordpools/wasnorm_wordpool.txt	LTP107	ltpFR	6	1	0	CLAW	319	1	n/a	0	0.422607421875	0.5869140625	0	lower	zerothre.ttf
307.128	n/a	WORD	153564	wordpools/wasnorm_wordpool.txt	LTP107	ltpFR	6	1	0	PREDATOR	1120	n/a	n/a	1	0.422607421875	0.5869140625	0	lower	zerothre.ttf
311.012	n/a	WORD	155506	wordpools/wasnorm_wordpool.txt	LTP107	ltpFR	6	1	0	PALM	1007	n/a	n/a	0	0.422607421875	0.5869140625	0	lower	zerothre.ttf
314.962	n/a	WORD	157481	wordpools/wasnorm_wordpool.txt	LTP107	ltpFR	6	1	1	TACK	1428	n/a	n/a	0	0.57763671875	0.412841796875	1	upper	amplitud.ttf
318.986	n/a	WORD	159493	wordpools/wasnorm_wordpool.txt	LTP107	ltpFR	6	1	1	SISTER	1312	n/a	n/a	1	0.57763671875	0.412841796875	1	upper	amplitud.ttf
323.12	n/a	WORD	161560	wordpools/wasnorm_wordpool.txt	LTP107	ltpFR	6	1	1	BOULDER	155	n/a	n/a	0	0.57763671875	0.412841796875	1	upper	amplitud.ttf
327.152	n/a	WORD	163576	wordpools/wasnorm_wordpool.txt	LTP107	ltpFR	6	1	1	CUCUMBER	421	n/a	n/a	0	0.57763671875	0.412841796875	1	upper	amplitud.ttf
331.186	n/a	WORD	165593	wordpools/wasnorm_wordpool.txt	LTP107	ltpFR	6	1	0	CEREAL	272	n/a	n/a	0	0.422607421875	0.5869140625	0	lower	zerothre.ttf
335.362	n/a	WORD	167681	wordpools/wasnorm_wordpool.txt	LTP107	ltpFR	6	1	0	OWL	992	n/a	n/a	1	0.422607421875	0.5869140625	0	lower	zerothre.ttf
339.57	n/a	WORD	169785	wordpools/wasnorm_wordpool.txt	LTP107	ltpFR	6	1	0	GUEST	669	n/a	n/a	1	0.422607421875	0.5869140625	0	lower	zerothre.ttf
343.62	n/a	WORD	171810	wordpools/wasnorm_wordpool.txt	LTP107	ltpFR	6	1	1	DAM	436	n/a	n/a	0	0.57763671875	0.412841796875	1	upper	amplitud.ttf
347.444	n/a	WORD	173722	wordpools/wasnorm_wordpool.txt	LTP107	ltpFR	6	1	1	TIDE	1465	n/a	n/a	0	0.57763671875	0.412841796875	1	upper	amplitud.ttf
351.612	n/a	WORD	175806	wordpools/wasnorm_wordpool.txt	LTP107	ltpFR	6	1	1	BOX	159	n/a	n/a	0	0.57763671875	0.412841796875	1	upper	amplitud.ttf
355.728	n/a	WORD	177864	wordpools/wasnorm_wordpool.txt	LTP107	ltpFR	6	1	1	VISITOR	1573	n/a	n/a	1	0.57763671875	0.412841796875	1	upper	amplitud.ttf
359.936	n/a	WORD	179968	wordpools/wasnorm_wordpool.txt	LTP107	ltpFR	6	1	0	CRIMINAL	409	n/a	n/a	1	0.422607421875	0.5869140625	0	lower	zerothre.ttf
364.034	n/a	WORD	182017	wordpools/wasnorm_wordpool.txt	LTP107	ltpFR	6	1	0	LIME	823	n/a	n/a	0	0.422607421875	0.5869140625	0	lower	zerothre.ttf
369.712	n/a	REC_START	184856	n/a	LTP107	ltpFR	6	1	n/a	n/a	n/a	n/a	n/a	n/a	n/a	n/a	n/a	n/a	n/a
370.26	n/a	REC_WORD	185130	wordpools/wasnorm_wordpool.txt	LTP107	ltpFR	6	1	0	LIME	823	n/a	n/a	0	n/a	n/a	n/a	n/a	n/a
371.204	n/a	REC_WORD	185602	wordpools/wasnorm_wordpool.txt	LTP107	ltpFR	6	1	0	CRIMINAL	409	n/a	n/a	1	n/a	n/a	n/a	n/a	n/a
372.362	n/a	REC_WORD	186181	wordpools/wasnorm_wordpool.txt	LTP107	ltpFR	6	1	1	BOX	159	n/a	n/a	0	n/a	n/a	n/a	n/a	n/a
373.908	n/a	REC_WORD	186954	wordpools/wasnorm_wordpool.txt	LTP107	ltpFR	6	1	1	SISTER	1312	n/a	n/a	1	n/a	n/a	n/a	n/a	n/a
376.96	n/a	REC_WORD	188480	wordpools/wasnorm_wordpool.txt	LTP107	ltpFR	6	1	0	PALM	1007	n/a	n/a	0	n/a	n/a	n/a	n/a	n/a
379.186	n/a	REC_WORD	189593	wordpools/wasnorm_wordpool.txt	LTP107	ltpFR	6	1	0	PREDATOR	1120	n/a	n/a	1	n/a	n/a	n/a	n/a	n/a
380.648	n/a	REC_WORD	190324	wordpools/wasnorm_wordpool.txt	LTP107	ltpFR	6	1	0	CLAW	319	n/a	n/a	0	n/a	n/a	n/a	n/a	n/a
394.102	n/a	REC_WORD	197051	wordpools/wasnorm_wordpool.txt	LTP107	ltpFR	6	1	0	OWL	992	n/a	n/a	1	n/a	n/a	n/a	n/a	n/a
400.942	n/a	REC_WORD	200471	wordpools/wasnorm_wordpool.txt	LTP107	ltpFR	6	1	1	TIDE	1465	n/a	n/a	0	n/a	n/a	n/a	n/a	n/a
402.124	n/a	REC_WORD	201062	wordpools/wasnorm_wordpool.txt	LTP107	ltpFR	6	1	1	BOULDER	155	n/a	n/a	0	n/a	n/a	n/a	n/a	n/a
415.376	n/a	REC_WORD	207688	wordpools/wasnorm_wordpool.txt	LTP107	ltpFR	6	1	1	VISITOR	1573	n/a	n/a	1	n/a	n/a	n/a	n/a	n/a
450.25	n/a	WORD	225125	wordpools/wasnorm_wordpool.txt	LTP107	ltpFR	6	2	1	LANDSCAPE	799	n/a	n/a	0	0.57763671875	0.412841796875	1	upper	amplitud.ttf
454.342	n/a	WORD	227171	wordpools/wasnorm_wordpool.txt	LTP107	ltpFR	6	2	1	BUTLER	204	n/a	n/a	1	0.57763671875	0.412841796875	1	upper	amplitud.ttf
458.408	n/a	WORD	229204	wordpools/wasnorm_wordpool.txt	LTP107	ltpFR	6	2	1	JUG	762	n/a	n/a	0	0.57763671875	0.412841796875	1	upper	amplitud.ttf
462.466	n/a	WORD	231233	wordpools/wasnorm_wordpool.txt	LTP107	ltpFR	6	2	1	FOUNTAIN	597	n/a	n/a	0	0.57763671875	0.412841796875	1	upper	amplitud.ttf
466.516	n/a	WORD	233258	wordpools/wasnorm_wordpool.txt	LTP107	ltpFR	6	2	0	HUT	729	n/a	n/a	0	0.422607421875	0.5869140625	0	lower	zerothre.ttf
470.65	n/a	WORD	235325	wordpools/wasnorm_wordpool.txt	LTP107	ltpFR	6	2	0	PUDDING	1139	n/a	n/a	0	0.422607421875	0.5869140625	0	lower	zerothre.ttf
474.776	n/a	WORD	237388	wordpools/wasnorm_wordpool.txt	LTP107	ltpFR	6	2	0	DICTATOR	462	n/a	n/a	1	0.422607421875	0.5869140625	0	lower	zerothre.ttf
478.89	n/a	WORD	239445	wordpools/wasnorm_wordpool.txt	LTP107	ltpFR	6	2	0	RACCOON	1153	n/a	n/a	0	0.422607421875	0.5869140625	0	lower	zerothre.ttf
482.724	n/a	WORD	241362	wordpools/wasnorm_wordpool.txt	LTP107	ltpFR	6	2	0	TROUSERS	1510	n/a	n/a	0	0.422607421875	0.5869140625	0	lower	zerothre.ttf
486.816	n/a	WORD	243408	wordpools/wasnorm_wordpool.txt	LTP107	ltpFR	6	2	1	TIE	1466	n/a	n/a	0	0.57763671875	0.412841796875	1	upper	amplitud.ttf
490.858	n/a	WORD	245429	wordpools/wasnorm_wordpool.txt	LTP107	ltpFR	6	2	1	KITTEN	780	n/a	n/a	1	0.57763671875	0.412841796875	1	upper	amplitud.ttf
494.89	n/a	WORD	247445	wordpools/wasnorm_wordpool.txt	LTP107	ltpFR	6	2	1	CACTUS	215	n/a	n/a	1	0.57763671875	0.412841796875	1	upper	amplitud.ttf
498.732	n/a	WORD	249366	wordpools/wasnorm_wordpool.txt	LTP107	ltpFR	6	2	1	BLOSSOM	138	n/a	n/a	1	0.57763671875	0.412841796875	1	upper	amplitud.ttf
502.94	n/a	WORD	251470	wordpools/wasnorm_wordpool.txt	LTP107	ltpFR	6	2	0	CHOCOLATE	306	n/a	n/a	0	0.422607421875	0.5869140625	0	lower	zerothre.ttf
506.88	n/a	WORD	253440	wordpools/wasnorm_wordpool.txt	LTP107	ltpFR	6	2	0	NEWSPAPER	948	n/a	n/a	0	0.422607421875	0.5869140625	0	lower	zerothre.ttf
511.006	n/a	WORD	255503	wordpools/wasnorm_wordpool.txt	LTP107	ltpFR	6	2	0	MANSION	864	n/a	n/a	1	0.422607421875	0.5869140625	0	lower	zerothre.ttf
516.758	n/a	REC_START	258379	n/a	LTP107	ltpFR	6	2	n/a	n/a	n/a	n/a	n/a	n/a	n/a	n/a	n/a	n/a	n/a
517.6	n/a	REC_WORD	258800	wordpools/wasnorm_wordpool.txt	LTP107	ltpFR	6	2	0	MANSION	864	n/a	n/a	1	n/a	n/a	n/a	n/a	n/a
518.614	n/a	REC_WORD	259307	wordpools/wasnorm_wordpool.txt	LTP107	ltpFR	6	2	0	HUT	729	n/a	n/a	0	n/a	n/a	n/a	n/a	n/a
519.736	n/a	REC_WORD	259868	wordpools/wasnorm_wordpool.txt	LTP107	ltpFR	6	2	0	TROUSERS	1510	n/a	n/a	0	n/a	n/a	n/a	n/a	n/a
521.082	n/a	REC_WORD	260541	wordpools/wasnorm_wordpool.txt	LTP107	ltpFR	6	2	1	KITTEN	780	n/a	n/a	1	n/a	n/a	n/a	n/a	n/a
522.56	n/a	REC_WORD	261280	wordpools/wasnorm_wordpool.txt	LTP107	ltpFR	6	2	1	LANDSCAPE	799	n/a	n/a	0	n/a	n/a	n/a	n/a	n/a
524.07	n/a	REC_WORD	262035	wordpools/wasnorm_wordpool.txt	LTP107	ltpFR	6	2	1	BUTLER	204	n/a	n/a	1	n/a	n/a	n/a	n/a	n/a
525.204	n/a	REC_WORD	262602	wordpools/wasnorm_wordpool.txt	LTP107	ltpFR	6	2	1	TIE	1466	n/a	n/a	0	n/a	n/a	n/a	n/a	n/a
526.5	n/a	REC_WORD	263250	wordpools/wasnorm_wordpool.txt	LTP107	ltpFR	6	2	1	FOUNTAIN	597	n/a	n/a	0	n/a	n/a	n/a	n/a	n/a
527.898	n/a	REC_WORD	263949	wordpools/wasnorm_wordpool.txt	LTP107	ltpFR	6	2	0	CHOCOLATE	306	n/a	n/a	0	n/a	n/a	n/a	n/a	n/a
542.544	n/a	REC_WORD	271272	wordpools/wasnorm_wordpool.txt	LTP107	ltpFR	6	2	1	JUG	762	n/a	n/a	0	n/a	n/a	n/a	n/a	n/a
560.554	n/a	REC_WORD	280277	wordpools/wasnorm_wordpool.txt	LTP107	ltpFR	6	2	n/a	PUDDLE	1140	n/a	n/a	n/a	n/a	n/a	n/a	n/a	n/a
562.74	n/a	REC_WORD	281370	wordpools/wasnorm_wordpool.txt	LTP107	ltpFR	6	2	0	TROUSERS	1510	n/a	n/a	0	n/a	n/a	n/a	n/a	n/a
598.654	n/a	WORD	299327	wordpools/wasnorm_wordpool.txt	LTP107	ltpFR	6	3	-1	SACK	1220	n/a	n/a	-1	1.0	1.0	1	upper	Verdana.ttf
602.762	n/a	WORD	301381	wordpools/wasnorm_wordpool.txt	LTP107	ltpFR	6	3	-1	POTTERY	1116	n/a	n/a	-1	1.0	1.0	1	upper	Verdana.ttf
606.87	n/a	WORD	303435	wordpools/wasnorm_wordpool.txt	LTP107	ltpFR	6	3	-1	ORCHID	982	n/a	n/a	-1	1.0	1.0	1	upper	Verdana.ttf
610.878	n/a	WORD	305439	wordpools/wasnorm_wordpool.txt	LTP107	ltpFR	6	3	-1	WHEEL	1603	n/a	n/a	-1	1.0	1.0	1	upper	Verdana.ttf
614.838	n/a	WORD	307419	wordpools/wasnorm_wordpool.txt	LTP107	ltpFR	6	3	-1	THERMOMETER	1453	n/a	n/a	-1	1.0	1.0	1	upper	Verdana.ttf
618.77	n/a	WORD	309385	wordpools/wasnorm_wordpool.txt	LTP107	ltpFR	6	3	-1	POLE	1097	n/a	n/a	-1	1.0	1.0	1	upper	Verdana.ttf
622.704	n/a	WORD	311352	wordpools/wasnorm_wordpool.txt	LTP107	ltpFR	6	3	-1	CONCRETE	361	n/a	n/a	-1	1.0	1.0	1	upper	Verdana.ttf
626.886	n/a	WORD	313443	wordpools/wasnorm_wordpool.txt	LTP107	ltpFR	6	3	-1	RAIL	1161	n/a	n/a	-1	1.0	1.0	1	upper	Verdana.ttf
630.82	n/a	WORD	315410	wordpools/wasnorm_wordpool.txt	LTP107	ltpFR	6	3	-1	POCKET	1093	n/a	n/a	-1	1.0	1.0	1	upper	Verdana.ttf
634.838	n/a	WORD	317419	wordpools/wasnorm_wordpool.txt	LTP107	ltpFR	6	3	-1	GARAGE	621	n/a	n/a	-1	1.0	1.0	1	upper	Verdana.ttf
638.696	n/a	WORD	319348	wordpools/wasnorm_wordpool.txt	LTP107	ltpFR	6	3	-1	OCEAN	970	n/a	n/a	-1	1.0	1.0	1	upper	Verdana.ttf
642.554	n/a	WORD	321277	wordpools/wasnorm_wordpool.txt	LTP107	ltpFR	6	3	-1	SEASHORE	1263	n/a	n/a	-1	1.0	1.0	1	upper	Verdana.ttf
646.42	n/a	WORD	323210	wordpools/wasnorm_wordpool.txt	LTP107	ltpFR	6	3	-1	BALLOON	75	n/a	n/a	-1	1.0	1.0	1	upper	Verdana.ttf
650.378	n/a	WORD	325189	wordpools/wasnorm_wordpool.txt	LTP107	ltpFR	6	3	-1	OZONE	996	n/a	n/a	-1	1.0	1.0	1	upper	Verdana.ttf
654.22	n/a	WORD	327110	wordpools/wasnorm_wordpool.txt	LTP107	ltpFR	6	3	-1	TROUT	1511	n/a	n/a	-1	1.0	1.0	1	upper	Verdana.ttf
658.42	n/a	WORD	329210	wordpools/wasnorm_wordpool.txt	LTP107	ltpFR	6	3	-1	SLEEVE	1324	n/a	n/a	-1	1.0	1.0	1	upper	Verdana.ttf
664.32	n/a	REC_START	332160	n/a	LTP107	ltpFR	6	3	n/a	n/a	n/a	n/a	n/a	n/a	n/a	n/a	n/a	n/a	n/a
664.864	n/a	REC_WORD	332432	wordpools/wasnorm_wordpool.txt	LTP107	ltpFR	6	3	-1	SLEEVE	1324	n/a	n/a	-1	n/a	n/a	n/a	n/a	n/a
665.962	n/a	REC_WORD	332981	wordpools/wasnorm_wordpool.txt	LTP107	ltpFR	6	3	-1	TROUT	1511	n/a	n/a	-1	n/a	n/a	n/a	n/a	n/a
667.328	n/a	REC_WORD	333664	wordpools/wasnorm_wordpool.txt	LTP107	ltpFR	6	3	-1	OZONE	996	n/a	n/a	-1	n/a	n/a	n/a	n/a	n/a
668.84	n/a	REC_WORD	334420	wordpools/wasnorm_wordpool.txt	LTP107	ltpFR	6	3	-1	OCEAN	970	n/a	n/a	-1	n/a	n/a	n/a	n/a	n/a
670.002	n/a	REC_WORD	335001	wordpools/wasnorm_wordpool.txt	LTP107	ltpFR	6	3	-1	SEASHORE	1263	n/a	n/a	-1	n/a	n/a	n/a	n/a	n/a
673.19	n/a	REC_WORD	336595	wordpools/wasnorm_wordpool.txt	LTP107	ltpFR	6	3	-1	RAIL	1161	n/a	n/a	-1	n/a	n/a	n/a	n/a	n/a
674.442	n/a	REC_WORD	337221	wordpools/wasnorm_wordpool.txt	LTP107	ltpFR	6	3	-1	POLE	1097	n/a	n/a	-1	n/a	n/a	n/a	n/a	n/a
677.76	n/a	REC_WORD	338880	wordpools/wasnorm_wordpool.txt	LTP107	ltpFR	6	3	-1	SACK	1220	n/a	n/a	-1	n/a	n/a	n/a	n/a	n/a
679.212	n/a	REC_WORD	339606	wordpools/wasnorm_wordpool.txt	LTP107	ltpFR	6	3	-1	POCKET	1093	n/a	n/a	-1	n/a	n/a	n/a	n/a	n/a
681.64	n/a	REC_WORD	340820	wordpools/wasnorm_wordpool.txt	LTP107	ltpFR	6	3	-1	WHEEL	1603	n/a	n/a	-1	n/a	n/a	n/a	n/a	n/a
682.884	n/a	REC_WORD	341442	wordpools/wasnorm_wordpool.txt	LTP107	ltpFR	6	3	-1	POTTERY	1116	n/a	n/a	-1	n/a	n/a	n/a	n/a	n/a
684.71	n/a	REC_WORD	342355	wordpools/wasnorm_wordpool.txt	LTP107	ltpFR	6	3	-1	GARAGE	621	n/a	n/a	-1	n/a	n/a	n/a	n/a	n/a
692.208	n/a	REC_WORD	346104	wordpools/wasnorm_wordpool.txt	LTP107	ltpFR	6	3	-1	TROUT	1511	n/a	n/a	-1	n/a	n/a	n/a	n/a	n/a
704.866	n/a	REC_WORD	352433	wordpools/wasnorm_wordpool.txt	LTP107	ltpFR	6	3	-1	CONCRETE	361	n/a	n/a	-1	n/a	n/a	n/a	n/a	n/a
745.108	n/a	WORD	372554	wordpools/wasnorm_wordpool.txt	LTP107	ltpFR	6	4	0	DRILL	497	n/a	n/a	1	0.422607421875	0.5869140625	0	lower	zerothre.ttf
749.176	n/a	WORD	374588	wordpools/wasnorm_wordpool.txt	LTP107	ltpFR	6	4	0	COB	334	n/a	n/a	0	0.422607421875	0.5869140625	0	lower	zerothre.ttf
753.208	n/a	WORD	376604	wordpools/wasnorm_wordpool.txt	LTP107	ltpFR	6	4	0	MERMAID	887	n/a	n/a	1	0.422607421875	0.5869140625	0	lower	zerothre.ttf
757.3	n/a	WORD	378650	wordpools/wasnorm_wordpool.txt	LTP107	ltpFR	6	4	0	FIREMAN	569	n/a	n/a	1	0.422607421875	0.5869140625	0	lower	zerothre.ttf
761.15	n/a	WORD	380575	wordpools/wasnorm_wordpool.txt	LTP107	ltpFR	6	4	0	MINER	896	n/a	n/a	1	0.422607421875	0.5869140625	0	lower	zerothre.ttf
765.3	n/a	WORD	382650	wordpools/wasnorm_wordpool.txt	LTP107	ltpFR	6	4	1	FIN	566	n/a	n/a	0	0.57763671875	0.412841796875	1	upper	amplitud.ttf
769.174	n/a	WORD	384587	wordpools/wasnorm_wordpool.txt	LTP107	ltpFR	6	4	1	DUST	508	n/a	n/a	0	0.57763671875	0.412841796875	1	upper	amplitud.ttf
773.09	n/a	WORD	386545	wordpools/wasnorm_wordpool.txt	LTP107	ltpFR	6	4	1	OATS	968	n/a	n/a	0	0.57763671875	0.412841796875	1	upper	amplitud.ttf
777.058	n/a	WORD	388529	wordpools/wasnorm_wordpool.txt	LTP107	ltpFR	6	4	1	CHAIRPERSON	275	n/a	n/a	1	0.57763671875	0.412841796875	1	upper	amplitud.ttf
781.224	n/a	WORD	390612	wordpools/wasnorm_wordpool.txt	LTP107	ltpFR	6	4	1	CHIEF	298	n/a	n/a	1	0.57763671875	0.412841796875	1	upper	amplitud.ttf
785.308	n/a	WORD	392654	wordpools/wasnorm_wordpool.txt	LTP107	ltpFR	6	4	1	KIWI	781	n/a	n/a	0	0.57763671875	0.412841796875	1	upper	amplitud.ttf
789.358	n/a	WORD	394679	wordpools/wasnorm_wordpool.txt	LTP107	ltpFR	6	4	0	CAGE	218	n/a	n/a	0	0.422607421875	0.5869140625	0	lower	zerothre.ttf
793.516	n/a	WORD	396758	wordpools/wasnorm_wordpool.txt	LTP107	ltpFR	6	4	0	DWARF	510	n/a	n/a	0	0.422607421875	0.5869140625	0	lower	zerothre.ttf
797.542	n/a	WORD	398771	wordpools/wasnorm_wordpool.txt	LTP107	ltpFR	6	4	0	MUG	930	n/a	n/a	0	0.422607421875	0.5869140625	0	lower	zerothre.ttf
801.676	n/a	WORD	400838	wordpools/wasnorm_wordpool.txt	LTP107	ltpFR	6	4	1	SCHOOL	1248	n/a	n/a	0	0.57763671875	0.412841796875	1	upper	amplitud.ttf
805.65	n/a	WORD	402825	wordpools/wasnorm_wordpool.txt	LTP107	ltpFR	6	4	1	GRADUATE	653	n/a	n/a	1	0.57763671875	0.412841796875	1	upper	amplitud.ttf
811.484	n/a	REC_START	405742	n/a	LTP107	ltpFR	6	4	n/a	n/a	n/a	n/a	n/a	n/a	n/a	n/a	n/a	n/a	n/a
812.166	n/a	REC_WORD	406083	wordpools/wasnorm_wordpool.txt	LTP107	ltpFR	6	4	1	GRADUATE	653	n/a	n/a	1	n/a	n/a	n/a	n/a	n/a
813.334	n/a	REC_WORD	406667	wordpools/wasnorm_wordpool.txt	LTP107	ltpFR	6	4	0	MUG	930	n/a	n/a	0	n/a	n/a	n/a	n/a	n/a
814.652	n/a	REC_WORD	407326	wordpools/wasnorm_wordpool.txt	LTP107	ltpFR	6	4	0	DWARF	510	n/a	n/a	0	n/a	n/a	n/a	n/a	n/a
817.05	n/a	REC_WORD	408525	wordpools/wasnorm_wordpool.txt	LTP107	ltpFR	6	4	1	CHAIRPERSON	275	n/a	n/a	1	n/a	n/a	n/a	n/a	n/a
818.398	n/a	REC_WORD	409199	wordpools/wasnorm_wordpool.txt	LTP107	ltpFR	6	4	1	CHIEF	298	n/a	n/a	1	n/a	n/a	n/a	n/a	n/a
830.272	n/a	REC_WORD	415136	wordpools/wasnorm_wordpool.txt	LTP107	ltpFR	6	4	1	SCHOOL	1248	n/a	n/a	0	n/a	n/a	n/a	n/a	n/a
892.98	n/a	WORD	446490	wordpools/wasnorm_wordpool.txt	LTP107	ltpFR	6	5	0	GENTLEMAN	631	n/a	n/a	1	0.422607421875	0.5869140625	0	lower	zerothre.ttf
896.84	n/a	WORD	448420	wordpools/wasnorm_wordpool.txt	LTP107	ltpFR	6	5	0	FOREHEAD	592	n/a	n/a	0	0.422607421875	0.5869140625	0	lower	zerothre.ttf
900.706	n/a	WORD	450353	wordpools/wasnorm_wordpool.txt	LTP107	ltpFR	6	5	0	MEAL	882	n/a	n/a	0	0.422607421875	0.5869140625	0	lower	zerothre.ttf
904.764	n/a	WORD	452382	wordpools/wasnorm_wordpool.txt	LTP107	ltpFR	6	5	0	HOOK	715	n/a	n/a	0	0.422607421875	0.5869140625	0	lower	zerothre.ttf
908.688	n/a	WORD	454344	wordpools/wasnorm_wordpool.txt	LTP107	ltpFR	6	5	1	DIVER	476	n/a	n/a	0	0.57763671875	0.412841796875	1	upper	amplitud.ttf
912.788	n/a	WORD	456394	wordpools/wasnorm_wordpool.txt	LTP107	ltpFR	6	5	1	PLUMBER	1091	n/a	n/a	1	0.57763671875	0.412841796875	1	upper	amplitud.ttf
916.996	n/a	WORD	458498	wordpools/wasnorm_wordpool.txt	LTP107	ltpFR	6	5	1	TART	1436	n/a	n/a	0	0.57763671875	0.412841796875	1	upper	amplitud.ttf
921.146	n/a	WORD	460573	wordpools/wasnorm_wordpool.txt	LTP107	ltpFR	6	5	1	FOOTBALL	591	n/a	n/a	0	0.57763671875	0.412841796875	1	upper	amplitud.ttf
925.012	n/a	WORD	462506	wordpools/wasnorm_wordpool.txt	LTP107	ltpFR	6	5	0	FLIPPER	580	n/a	n/a	0	0.422607421875	0.5869140625	0	lower	zerothre.ttf
928.946	n/a	WORD	464473	wordpools/wasnorm_wordpool.txt	LTP107	ltpFR	6	5	0	POT	1114	n/a	n/a	0	0.422607421875	0.5869140625	0	lower	zerothre.ttf
933.094	n/a	WORD	466547	wordpools/wasnorm_wordpool.txt	LTP107	ltpFR	6	5	1	CHEF	290	n/a	n/a	1	0.57763671875	0.412841796875	1	upper	amplitud.ttf
936.92	n/a	WORD	468460	wordpools/wasnorm_wordpool.txt	LTP107	ltpFR	6	5	1	COACH	331	n/a	n/a	1	0.57763671875	0.412841796875	1	upper	amplitud.ttf
940.854	n/a	WORD	470427	wordpools/wasnorm_wordpool.txt	LTP107	ltpFR	6	5	1	COMPANION	357	n/a	n/a	1	0.57763671875	0.412841796875	1	upper	amplitud.ttf
944.688	n/a	WORD	472344	wordpools/wasnorm_wordpool.txt	LTP107	ltpFR	6	5	1	DOLLAR	482	n/a	n/a	0	0.57763671875	0.412841796875	1	upper	amplitud.ttf
948.638	n/a	WORD	474319	wordpools/wasnorm_wordpool.txt	LTP107	ltpFR	6	5	0	DIME	466	n/a	n/a	0	0.422607421875	0.5869140625	0	lower	zerothre.ttf
952.546	n/a	WORD	476273	wordpools/wasnorm_wordpool.txt	LTP107	ltpFR	6	5	0	BELLY	119	n/a	n/a	1	0.422607421875	0.5869140625	0	lower	zerothre.ttf
958.146	n/a	REC_START	479073	n/a	LTP107	ltpFR	6	5	n/a	n/a	n/a	n/a	n/a	n/a	n/a	n/a	n/a	n/a	n/a
958.888	n/a	REC_WORD	479444	wordpools/wasnorm_wordpool.txt	LTP107	ltpFR	6	5	0	BELLY	119	n/a	n/a	1	n/a	n/a	n/a	n/a	n/a
959.922	n/a	REC_WORD	479961	wordpools/wasnorm_wordpool.txt	LTP107	ltpFR	6	5	0	DIME	466	n/a	n/a	0	n/a	n/a	n/a	n/a	n/a
961.224	n/a	REC_WORD	480612	wordpools/wasnorm_wordpool.txt	LTP107	ltpFR	6	5	1	DOLLAR	482	n/a	n/a	0	n/a	n/a	n/a	n/a	n/a
962.29	n/a	REC_WORD	481145	wordpools/wasnorm_wordpool.txt	LTP107	ltpFR	6	5	1	COMPANION	357	n/a	n/a	1	n/a	n/a	n/a	n/a	n/a
963.758	n/a	REC_WORD	481879	wordpools/wasnorm_wordpool.txt	LTP107	ltpFR	6	5	1	COACH	331	n/a	n/a	1	n/a	n/a	n/a	n/a	n/a
965.384	n/a	REC_WORD	482692	wordpools/wasnorm_wordpool.txt	LTP107	ltpFR	6	5	1	CHEF	290	n/a	n/a	1	n/a	n/a	n/a	n/a	n/a
967.26	n/a	REC_WORD	483630	wordpools/wasnorm_wordpool.txt	LTP107	ltpFR	6	5	0	MEAL	882	n/a	n/a	0	n/a	n/a	n/a	n/a	n/a
968.232	n/a	REC_WORD	484116	wordpools/wasnorm_wordpool.txt	LTP107	ltpFR	6	5	0	HOOK	715	n/a	n/a	0	n/a	n/a	n/a	n/a	n/a
969.624	n/a	REC_WORD	484812	wordpools/wasnorm_wordpool.txt	LTP107	ltpFR	6	5	1	DIVER	476	n/a	n/a	0	n/a	n/a	n/a	n/a	n/a
970.842	n/a	REC_WORD	485421	wordpools/wasnorm_wordpool.txt	LTP107	ltpFR	6	5	1	PLUMBER	1091	n/a	n/a	1	n/a	n/a	n/a	n/a	n/a
976.924	n/a	REC_WORD	488462	wordpools/wasnorm_wordpool.txt	LTP107	ltpFR	6	5	0	GENTLEMAN	631	n/a	n/a	1	n/a	n/a	n/a	n/a	n/a
978.086	n/a	REC_WORD	489043	wordpools/wasnorm_wordpool.txt	LTP107	ltpFR	6	5	0	FOREHEAD	592	n/a	n/a	0	n/a	n/a	n/a	n/a	n/a
1022.044	n/a	REC_WORD	511022	wordpools/wasnorm_wordpool.txt	LTP107	ltpFR	6	5	1	TART	1436	n/a	n/a	0	n/a	n/a	n/a	n/a	n/a
1039.326	n/a	WORD	519663	wordpools/wasnorm_wordpool.txt	LTP107	ltpFR	6	6	0	TRIANGLE	1504	n/a	n/a	0	0.422607421875	0.5869140625	0	lower	zerothre.ttf
1043.318	n/a	WORD	521659	wordpools/wasnorm_wordpool.txt	LTP107	ltpFR	6	6	0	JET	756	n/a	n/a	1	0.422607421875	0.5869140625	0	lower	zerothre.ttf
1047.25	n/a	WORD	523625	wordpools/wasnorm_wordpool.txt	LTP107	ltpFR	6	6	0	VITAMIN	1574	n/a	n/a	0	0.422607421875	0.5869140625	0	lower	zerothre.ttf
1051.4	n/a	WORD	525700	wordpools/wasnorm_wordpool.txt	LTP107	ltpFR	6	6	0	PAINTING	1005	n/a	n/a	0	0.422607421875	0.5869140625	0	lower	zerothre.ttf
1055.268	n/a	WORD	527634	wordpools/wasnorm_wordpool.txt	LTP107	ltpFR	6	6	0	PAINTER	1004	n/a	n/a	1	0.422607421875	0.5869140625	0	lower	zerothre.ttf
1059.168	n/a	WORD	529584	wordpools/wasnorm_wordpool.txt	LTP107	ltpFR	6	6	0	TREAT	1501	n/a	n/a	0	0.422607421875	0.5869140625	0	lower	zerothre.ttf
1063.266	n/a	WORD	531633	wordpools/wasnorm_wordpool.txt	LTP107	ltpFR	6	6	0	TOWER	1490	n/a	n/a	1	0.422607421875	0.5869140625	0	lower	zerothre.ttf
1067.45	n/a	WORD	533725	wordpools/wasnorm_wordpool.txt	LTP107	ltpFR	6	6	0	BEET	115	n/a	n/a	0	0.422607421875	0.5869140625	0	lower	zerothre.ttf
1071.484	n/a	WORD	535742	wordpools/wasnorm_wordpool.txt	LTP107	ltpFR	6	6	0	FARM	552	n/a	n/a	1	0.422607421875	0.5869140625	0	lower	zerothre.ttf
1075.468	n/a	WORD	537734	wordpools/wasnorm_wordpool.txt	LTP107	ltpFR	6	6	0	ALLIGATOR	16	n/a	n/a	1	0.422607421875	0.5869140625	0	lower	zerothre.ttf
1079.592	n/a	WORD	539796	wordpools/wasnorm_wordpool.txt	LTP107	ltpFR	6	6	0	SPACE	1345	n/a	n/a	1	0.422607421875	0.5869140625	0	lower	zerothre.ttf
1083.408	n/a	WORD	541704	wordpools/wasnorm_wordpool.txt	LTP107	ltpFR	6	6	0	CRATER	400	n/a	n/a	1	0.422607421875	0.5869140625	0	lower	zerothre.ttf
1087.342	n/a	WORD	543671	wordpools/wasnorm_wordpool.txt	LTP107	ltpFR	6	6	0	VINEGAR	1569	n/a	n/a	0	0.422607421875	0.5869140625	0	lower	zerothre.ttf
1091.384	n/a	WORD	545692	wordpools/wasnorm_wordpool.txt	LTP107	ltpFR	6	6	0	DAISY	435	n/a	n/a	0	0.422607421875	0.5869140625	0	lower	zerothre.ttf
1095.242	n/a	WORD	547621	wordpools/wasnorm_wordpool.txt	LTP107	ltpFR	6	6	0	VEGETABLE	1552	n/a	n/a	0	0.422607421875	0.5869140625	0	lower	zerothre.ttf
1099.334	n/a	WORD	549667	wordpools/wasnorm_wordpool.txt	LTP107	ltpFR	6	6	0	AIRPORT	13	n/a	n/a	1	0.422607421875	0.5869140625	0	lower	zerothre.ttf
1105.426	n/a	REC_START	552713	n/a	LTP107	ltpFR	6	6	n/a	n/a	n/a	n/a	n/a	n/a	n/a	n/a	n/a	n/a	n/a
1106.598	n/a	REC_WORD	553299	wordpools/wasnorm_wordpool.txt	LTP107	ltpFR	6	6	0	AIRPORT	13	n/a	n/a	1	n/a	n/a	n/a	n/a	n/a
1107.59	n/a	REC_WORD	553795	wordpools/wasnorm_wordpool.txt	LTP107	ltpFR	6	6	0	VEGETABLE	1552	n/a	n/a	0	n/a	n/a	n/a	n/a	n/a
1109.022	n/a	REC_WORD	554511	wordpools/wasnorm_wordpool.txt	LTP107	ltpFR	6	6	0	BEET	115	n/a	n/a	0	n/a	n/a	n/a	n/a	n/a
1110.438	n/a	REC_WORD	555219	wordpools/wasnorm_wordpool.txt	LTP107	ltpFR	6	6	0	TREAT	1501	n/a	n/a	0	n/a	n/a	n/a	n/a	n/a
1111.912	n/a	REC_WORD	555956	wordpools/wasnorm_wordpool.txt	LTP107	ltpFR	6	6	0	FARM	552	n/a	n/a	1	n/a	n/a	n/a	n/a	n/a
1114.252	n/a	REC_WORD	557126	wordpools/wasnorm_wordpool.txt	LTP107	ltpFR	6	6	n/a	PLANE	1081	n/a	n/a	n/a	n/a	n/a	n/a	n/a	n/a
1117.734	n/a	REC_WORD	558867	wordpools/wasnorm_wordpool.txt	LTP107	ltpFR	6	6	0	PAINTING	1005	n/a	n/a	0	n/a	n/a	n/a	n/a	n/a
1119.19	n/a	REC_WORD	559595	wordpools/wasnorm_wordpool.txt	LTP107	ltpFR	6	6	0	PAINTER	1004	n/a	n/a	1	n/a	n/a	n/a	n/a	n/a
1120.746	n/a	REC_WORD	560373	wordpools/wasnorm_wordpool.txt	LTP107	ltpFR	6	6	0	TRIANGLE	1504	n/a	n/a	0	n/a	n/a	n/a	n/a	n/a
1136.656	n/a	REC_WORD	568328	wordpools/wasnorm_wordpool.txt	LTP107	ltpFR	6	6	0	VITAMIN	1574	n/a	n/a	0	n/a	n/a	n/a	n/a	n/a
1157.256	n/a	REC_WORD	578628	wordpools/wasnorm_wordpool.txt	LTP107	ltpFR	6	6	0	TOWER	1490	n/a	n/a	1	n/a	n/a	n/a	n/a	n/a
1164.51	n/a	REC_WORD	582255	wordpools/wasnorm_wordpool.txt	LTP107	ltpFR	6	6	0	CRATER	400	n/a	n/a	1	n/a	n/a	n/a	n/a	n/a
1169.3	n/a	REC_WORD	584650	wordpools/wasnorm_wordpool.txt	LTP107	ltpFR	6	6	0	SPACE	1345	n/a	n/a	1	n/a	n/a	n/a	n/a	n/a
1185.54	n/a	WORD	592770	wordpools/wasnorm_wordpool.txt	LTP107	ltpFR	6	7	1	FIGHTER	564	n/a	n/a	1	0.57763671875	0.412841796875	1	upper	amplitud.ttf
1189.49	n/a	WORD	594745	wordpools/wasnorm_wordpool.txt	LTP107	ltpFR	6	7	1	TOASTER	1472	n/a	n/a	0	0.57763671875	0.412841796875	1	upper	amplitud.ttf
1193.34	n/a	WORD	596670	wordpools/wasnorm_wordpool.txt	LTP107	ltpFR	6	7	1	SUIT	1402	n/a	n/a	0	0.57763671875	0.412841796875	1	upper	amplitud.ttf
1197.38	n/a	WORD	598690	wordpools/wasnorm_wordpool.txt	LTP107	ltpFR	6	7	0	SENATE	1267	n/a	n/a	1	0.422607421875	0.5869140625	0	lower	zerothre.ttf
1201.364	n/a	WORD	600682	wordpools/wasnorm_wordpool.txt	LTP107	ltpFR	6	7	0	POLITICIAN	1099	n/a	n/a	1	0.422607421875	0.5869140625	0	lower	zerothre.ttf
1205.212	n/a	WORD	602606	wordpools/wasnorm_wordpool.txt	LTP107	ltpFR	6	7	0	DRAWER	493	n/a	n/a	1	0.422607421875	0.5869140625	0	lower	zerothre.ttf
1209.13	n/a	WORD	604565	wordpools/wasnorm_wordpool.txt	LTP107	ltpFR	6	7	0	WHEAT	1602	n/a	n/a	0	0.422607421875	0.5869140625	0	lower	zerothre.ttf
1213.34	n/a	WORD	606670	wordpools/wasnorm_wordpool.txt	LTP107	ltpFR	6	7	0	DUCK	504	n/a	n/a	0	0.422607421875	0.5869140625	0	lower	zerothre.ttf
1217.288	n/a	WORD	608644	wordpools/wasnorm_wordpool.txt	LTP107	ltpFR	6	7	1	SCOTCH	1251	n/a	n/a	0	0.57763671875	0.412841796875	1	upper	amplitud.ttf
1221.446	n/a	WORD	610723	wordpools/wasnorm_wordpool.txt	LTP107	ltpFR	6	7	1	ARTIST	43	n/a	n/a	1	0.57763671875	0.412841796875	1	upper	amplitud.ttf
1225.622	n/a	WORD	612811	wordpools/wasnorm_wordpool.txt	LTP107	ltpFR	6	7	1	SHELTER	1282	n/a	n/a	0	0.57763671875	0.412841796875	1	upper	amplitud.ttf
1229.714	n/a	WORD	614857	wordpools/wasnorm_wordpool.txt	LTP107	ltpFR	6	7	0	RIFLE	1192	n/a	n/a	1	0.422607421875	0.5869140625	0	lower	zerothre.ttf
1233.68	n/a	WORD	616840	wordpools/wasnorm_wordpool.txt	LTP107	ltpFR	6	7	0	STAPLE	1371	n/a	n/a	0	0.422607421875	0.5869140625	0	lower	zerothre.ttf
1237.714	n/a	WORD	618857	wordpools/wasnorm_wordpool.txt	LTP107	ltpFR	6	7	0	VAULT	1550	n/a	n/a	1	0.422607421875	0.5869140625	0	lower	zerothre.ttf
1241.63	n/a	WORD	620815	wordpools/wasnorm_wordpool.txt	LTP107	ltpFR	6	7	1	PLANET	1082	n/a	n/a	1	0.57763671875	0.412841796875	1	upper	amplitud.ttf
1245.604	n/a	WORD	622802	wordpools/wasnorm_wordpool.txt	LTP107	ltpFR	6	7	1	BRANDY	169	n/a	n/a	0	0.57763671875	0.412841796875	1	upper	amplitud.ttf
1251.372	n/a	REC_START	625686	n/a	LTP107	ltpFR	6	7	n/a	n/a	n/a	n/a	n/a	n/a	n/a	n/a	n/a	n/a	n/a
1252.12	n/a	REC_WORD	626060	wordpools/wasnorm_wordpool.txt	LTP107	ltpFR	6	7	1	PLANET	1082	n/a	n/a	1	n/a	n/a	n/a	n/a	n/a
1253.302	n/a	REC_WORD	626651	wordpools/wasnorm_wordpool.txt	LTP107	ltpFR	6	7	1	BRANDY	169	n/a	n/a	0	n/a	n/a	n/a	n/a	n/a
1254.34	n/a	REC_WORD	627170	wordpools/wasnorm_wordpool.txt	LTP107	ltpFR	6	7	1	SCOTCH	1251	n/a	n/a	0	n/a	n/a	n/a	n/a	n/a
1256.58	n/a	REC_WORD	628290	wordpools/wasnorm_wordpool.txt	LTP107	ltpFR	6	7	0	SENATE	1267	n/a	n/a	1	n/a	n/a	n/a	n/a	n/a
1265.132	n/a	REC_WORD	632566	wordpools/wasnorm_wordpool.txt	LTP107	ltpFR	6	7	0	PAINTER	1004	n/a	n/a	1	n/a	n/a	n/a	n/a	n/a
1267.432	n/a	REC_WORD	633716	wordpools/wasnorm_wordpool.txt	LTP107	ltpFR	6	7	1	SHELTER	1282	n/a	n/a	0	n/a	n/a	n/a	n/a	n/a
1276.95	n/a	REC_WORD	638475	wordpools/wasnorm_wordpool.txt	LTP107	ltpFR	6	7	1	SUIT	1402	n/a	n/a	0	n/a	n/a	n/a	n/a	n/a
1282.548	n/a	REC_WORD	641274	wordpools/wasnorm_wordpool.txt	LTP107	ltpFR	6	7	0	RIFLE	1192	n/a	n/a	1	n/a	n/a	n/a	n/a	n/a
1287.772	n/a	REC_WORD	643886	wordpools/wasnorm_wordpool.txt	LTP107	ltpFR	6	7	0	DUCK	504	n/a	n/a	0	n/a	n/a	n/a	n/a	n/a
1292.766	n/a	REC_WORD	646383	wordpools/wasnorm_wordpool.txt	LTP107	ltpFR	6	7	0	DRAWER	493	n/a	n/a	1	n/a	n/a	n/a	n/a	n/a
1331.952	n/a	WORD	665976	wordpools/wasnorm_wordpool.txt	LTP107	ltpFR	6	8	-1	ZEBRA	1635	n/a	n/a	-1	1.0	1.0	1	upper	Verdana.ttf
1336.092	n/a	WORD	668046	wordpools/wasnorm_wordpool.txt	LTP107	ltpFR	6	8	-1	CONCERT	360	n/a	n/a	-1	1.0	1.0	1	upper	Verdana.ttf
1340.176	n/a	WORD	670088	wordpools/wasnorm_wordpool.txt	LTP107	ltpFR	6	8	-1	BONE	148	n/a	n/a	-1	1.0	1.0	1	upper	Verdana.ttf
1344.218	n/a	WORD	672109	wordpools/wasnorm_wordpool.txt	LTP107	ltpFR	6	8	-1	BACK	65	n/a	n/a	-1	1.0	1.0	1	upper	Verdana.ttf
1348.118	n/a	WORD	674059	wordpools/wasnorm_wordpool.txt	LTP107	ltpFR	6	8	-1	SCALLOP	1242	n/a	n/a	-1	1.0	1.0	1	upper	Verdana.ttf
1352.026	n/a	WORD	676013	wordpools/wasnorm_wordpool.txt	LTP107	ltpFR	6	8	-1	BOUILLON	154	n/a	n/a	-1	1.0	1.0	1	upper	Verdana.ttf
1355.86	n/a	WORD	677930	wordpools/wasnorm_wordpool.txt	LTP107	ltpFR	6	8	-1	MISTER	901	n/a	n/a	-1	1.0	1.0	1	upper	Verdana.ttf
1359.752	n/a	WORD	679876	wordpools/wasnorm_wordpool.txt	LTP107	ltpFR	6	8	-1	SCAPEGOAT	1244	n/a	n/a	-1	1.0	1.0	1	upper	Verdana.ttf
1363.684	n/a	WORD	681842	wordpools/wasnorm_wordpool.txt	LTP107	ltpFR	6	8	-1	INMATE	738	n/a	n/a	-1	1.0	1.0	1	upper	Verdana.ttf
1367.86	n/a	WORD	683930	wordpools/wasnorm_wordpool.txt	LTP107	ltpFR	6	8	-1	TRANSPLANT	1496	n/a	n/a	-1	1.0	1.0	1	upper	Verdana.ttf
1371.918	n/a	WORD	685959	wordpools/wasnorm_wordpool.txt	LTP107	ltpFR	6	8	-1	BEAST	108	n/a	n/a	-1	1.0	1.0	1	upper	Verdana.ttf
1375.86	n/a	WORD	687930	wordpools/wasnorm_wordpool.txt	LTP107	ltpFR	6	8	-1	PENDULUM	1043	n/a	n/a	-1	1.0	1.0	1	upper	Verdana.ttf
1380.074	n/a	WORD	690037	wordpools/wasnorm_wordpool.txt	LTP107	ltpFR	6	8	-1	BARRACUDA	90	n/a	n/a	-1	1.0	1.0	1	upper	Verdana.ttf
1384.192	n/a	WORD	692096	wordpools/wasnorm_wordpool.txt	LTP107	ltpFR	6	8	-1	ARTERY	41	n/a	n/a	-1	1.0	1.0	1	upper	Verdana.ttf
1388.108	n/a	WORD	694054	wordpools/wasnorm_wordpool.txt	LTP107	ltpFR	6	8	-1	HAMBURGER	679	n/a	n/a	-1	1.0	1.0	1	upper	Verdana.ttf
1391.992	n/a	WORD	695996	wordpools/wasnorm_wordpool.txt	LTP107	ltpFR	6	8	-1	BUN	197	n/a	n/a	-1	1.0	1.0	1	upper	Verdana.ttf
1398.0	n/a	REC_START	699000	n/a	LTP107	ltpFR	6	8	n/a	n/a	n/a	n/a	n/a	n/a	n/a	n/a	n/a	n/a	n/a
1398.748	n/a	REC_WORD	699374	wordpools/wasnorm_wordpool.txt	LTP107	ltpFR	6	8	-1	BUN	197	n/a	n/a	-1	n/a	n/a	n/a	n/a	n/a
1399.572	n/a	REC_WORD	699786	wordpools/wasnorm_wordpool.txt	LTP107	ltpFR	6	8	-1	HAMBURGER	679	n/a	n/a	-1	n/a	n/a	n/a	n/a	n/a
1401.068	n/a	REC_WORD	700534	wordpools/wasnorm_wordpool.txt	LTP107	ltpFR	6	8	-1	SCALLOP	1242	n/a	n/a	-1	n/a	n/a	n/a	n/a	n/a
1404.306	n/a	REC_WORD_VV	702153	wordpools/wasnorm_wordpool.txt	LTP107	ltpFR	6	8	n/a	<>	-1	n/a	n/a	n/a	n/a	n/a	n/a	n/a	n/a
1409.93	n/a	REC_WORD	704965	wordpools/wasnorm_wordpool.txt	LTP107	ltpFR	6	8	-1	ZEBRA	1635	n/a	n/a	-1	n/a	n/a	n/a	n/a	n/a
1412.672	n/a	REC_WORD	706336	wordpools/wasnorm_wordpool.txt	LTP107	ltpFR	6	8	-1	BONE	148	n/a	n/a	-1	n/a	n/a	n/a	n/a	n/a
1413.78	n/a	REC_WORD	706890	wordpools/wasnorm_wordpool.txt	LTP107	ltpFR	6	8	-1	BACK	65	n/a	n/a	-1	n/a	n/a	n/a	n/a	n/a
1421.602	n/a	REC_WORD	710801	wordpools/wasnorm_wordpool.txt	LTP107	ltpFR	6	8	-1	BEAST	108	n/a	n/a	-1	n/a	n/a	n/a	n/a	n/a
1423.02	n/a	REC_WORD	711510	wordpools/wasnorm_wordpool.txt	LTP107	ltpFR	6	8	-1	BARRACUDA	90	n/a	n/a	-1	n/a	n/a	n/a	n/a	n/a
1433.94	n/a	REC_WORD	716970	wordpools/wasnorm_wordpool.txt	LTP107	ltpFR	6	8	-1	BOUILLON	154	n/a	n/a	-1	n/a	n/a	n/a	n/a	n/a
1480.956	n/a	WORD	740478	wordpools/wasnorm_wordpool.txt	LTP107	ltpFR	6	9	1	PROTRACTOR	1133	n/a	n/a	0	0.57763671875	0.412841796875	1	upper	amplitud.ttf
1484.972	n/a	WORD	742486	wordpools/wasnorm_wordpool.txt	LTP107	ltpFR	6	9	1	PIG	1064	n/a	n/a	1	0.57763671875	0.412841796875	1	upper	amplitud.ttf
1488.898	n/a	WORD	744449	wordpools/wasnorm_wordpool.txt	LTP107	ltpFR	6	9	1	WEB	1598	n/a	n/a	0	0.57763671875	0.412841796875	1	upper	amplitud.ttf
1492.848	n/a	WORD	746424	wordpools/wasnorm_wordpool.txt	LTP107	ltpFR	6	9	1	CUBE	420	n/a	n/a	0	0.57763671875	0.412841796875	1	upper	amplitud.ttf
1496.89	n/a	WORD	748445	wordpools/wasnorm_wordpool.txt	LTP107	ltpFR	6	9	1	ORNAMENT	985	n/a	n/a	0	0.57763671875	0.412841796875	1	upper	amplitud.ttf
1500.972	n/a	WORD	750486	wordpools/wasnorm_wordpool.txt	LTP107	ltpFR	6	9	1	GLACIER	638	n/a	n/a	0	0.57763671875	0.412841796875	1	upper	amplitud.ttf
1505.022	n/a	WORD	752511	wordpools/wasnorm_wordpool.txt	LTP107	ltpFR	6	9	0	BATHROOM	99	n/a	n/a	0	0.422607421875	0.5869140625	0	lower	zerothre.ttf
1509.114	n/a	WORD	754557	wordpools/wasnorm_wordpool.txt	LTP107	ltpFR	6	9	0	MILDEW	893	n/a	n/a	0	0.422607421875	0.5869140625	0	lower	zerothre.ttf
1513.304	n/a	WORD	756652	wordpools/wasnorm_wordpool.txt	LTP107	ltpFR	6	9	1	BUSH	202	n/a	n/a	0	0.57763671875	0.412841796875	1	upper	amplitud.ttf
1517.348	n/a	WORD	758674	wordpools/wasnorm_wordpool.txt	LTP107	ltpFR	6	9	1	FROST	609	n/a	n/a	0	0.57763671875	0.412841796875	1	upper	amplitud.ttf
1521.422	n/a	WORD	760711	wordpools/wasnorm_wordpool.txt	LTP107	ltpFR	6	9	0	BEAN	105	n/a	n/a	0	0.422607421875	0.5869140625	0	lower	zerothre.ttf
1525.59	n/a	WORD	762795	wordpools/wasnorm_wordpool.txt	LTP107	ltpFR	6	9	0	NIECE	952	n/a	n/a	1	0.422607421875	0.5869140625	0	lower	zerothre.ttf
1529.664	n/a	WORD	764832	wordpools/wasnorm_wordpool.txt	LTP107	ltpFR	6	9	0	ANCESTOR	20	n/a	n/a	1	0.422607421875	0.5869140625	0	lower	zerothre.ttf
1533.48	n/a	WORD	766740	wordpools/wasnorm_wordpool.txt	LTP107	ltpFR	6	9	0	RELATIVE	1182	n/a	n/a	1	0.422607421875	0.5869140625	0	lower	zerothre.ttf
1537.614	n/a	WORD	768807	wordpools/wasnorm_wordpool.txt	LTP107	ltpFR	6	9	0	SPARROW	1347	n/a	n/a	0	0.422607421875	0.5869140625	0	lower	zerothre.ttf
1541.588	n/a	WORD	770794	wordpools/wasnorm_wordpool.txt	LTP107	ltpFR	6	9	0	GULL	671	n/a	n/a	0	0.422607421875	0.5869140625	0	lower	zerothre.ttf
1547.39	n/a	REC_START	773695	n/a	LTP107	ltpFR	6	9	n/a	n/a	n/a	n/a	n/a	n/a	n/a	n/a	n/a	n/a	n/a
1547.874	n/a	REC_WORD	773937	wordpools/wasnorm_wordpool.txt	LTP107	ltpFR	6	9	0	SPARROW	1347	n/a	n/a	0	n/a	n/a	n/a	n/a	n/a
1549.106	n/a	REC_WORD	774553	wordpools/wasnorm_wordpool.txt	LTP107	ltpFR	6	9	0	GULL	671	n/a	n/a	0	n/a	n/a	n/a	n/a	n/a
1550.528	n/a	REC_WORD	775264	wordpools/wasnorm_wordpool.txt	LTP107	ltpFR	6	9	0	ANCESTOR	20	n/a	n/a	1	n/a	n/a	n/a	n/a	n/a
1551.954	n/a	REC_WORD	775977	wordpools/wasnorm_wordpool.txt	LTP107	ltpFR	6	9	0	NIECE	952	n/a	n/a	1	n/a	n/a	n/a	n/a	n/a
1553.232	n/a	REC_WORD	776616	wordpools/wasnorm_wordpool.txt	LTP107	ltpFR	6	9	0	RELATIVE	1182	n/a	n/a	1	n/a	n/a	n/a	n/a	n/a
1556.244	n/a	REC_WORD	778122	wordpools/wasnorm_wordpool.txt	LTP107	ltpFR	6	9	1	GLACIER	638	n/a	n/a	0	n/a	n/a	n/a	n/a	n/a
1557.966	n/a	REC_WORD	778983	wordpools/wasnorm_wordpool.txt	LTP107	ltpFR	6	9	1	BUSH	202	n/a	n/a	0	n/a	n/a	n/a	n/a	n/a
1559.188	n/a	REC_WORD	779594	wordpools/wasnorm_wordpool.txt	LTP107	ltpFR	6	9	1	FROST	609	n/a	n/a	0	n/a	n/a	n/a	n/a	n/a
1631.252	n/a	WORD	815626	wordpools/wasnorm_wordpool.txt	LTP107	ltpFR	6	10	-1	HOE	711	n/a	n/a	-1	1.0	1.0	1	upper	Verdana.ttf
1635.152	n/a	WORD	817576	wordpools/wasnorm_wordpool.txt	LTP107	ltpFR	6	10	-1	SHAMPOO	1274	n/a	n/a	-1	1.0	1.0	1	upper	Verdana.ttf
1639.336	n/a	WORD	819668	wordpools/wasnorm_wordpool.txt	LTP107	ltpFR	6	10	-1	CONTRACT	368	n/a	n/a	-1	1.0	1.0	1	upper	Verdana.ttf
1643.536	n/a	WORD	821768	wordpools/wasnorm_wordpool.txt	LTP107	ltpFR	6	10	-1	BUTTER	205	n/a	n/a	-1	1.0	1.0	1	upper	Verdana.ttf
1647.402	n/a	WORD	823701	wordpools/wasnorm_wordpool.txt	LTP107	ltpFR	6	10	-1	GRASS	655	n/a	n/a	-1	1.0	1.0	1	upper	Verdana.ttf
1651.528	n/a	WORD	825764	wordpools/wasnorm_wordpool.txt	LTP107	ltpFR	6	10	-1	DRESS	495	n/a	n/a	-1	1.0	1.0	1	upper	Verdana.ttf
1655.736	n/a	WORD	827868	wordpools/wasnorm_wordpool.txt	LTP107	ltpFR	6	10	-1	LACE	792	n/a	n/a	-1	1.0	1.0	1	upper	Verdana.ttf
1659.594	n/a	WORD	829797	wordpools/wasnorm_wordpool.txt	LTP107	ltpFR	6	10	-1	OVEN	991	n/a	n/a	-1	1.0	1.0	1	upper	Verdana.ttf
1663.636	n/a	WORD	831818	wordpools/wasnorm_wordpool.txt	LTP107	ltpFR	6	10	-1	THIEF	1456	n/a	n/a	-1	1.0	1.0	1	upper	Verdana.ttf
1667.626	n/a	WORD	833813	wordpools/wasnorm_wordpool.txt	LTP107	ltpFR	6	10	-1	BANK	83	n/a	n/a	-1	1.0	1.0	1	upper	Verdana.ttf
1671.71	n/a	WORD	835855	wordpools/wasnorm_wordpool.txt	LTP107	ltpFR	6	10	-1	WHISTLE	1606	n/a	n/a	-1	1.0	1.0	1	upper	Verdana.ttf
1675.778	n/a	WORD	837889	wordpools/wasnorm_wordpool.txt	LTP107	ltpFR	6	10	-1	CONTAINER	366	n/a	n/a	-1	1.0	1.0	1	upper	Verdana.ttf
1679.918	n/a	WORD	839959	wordpools/wasnorm_wordpool.txt	LTP107	ltpFR	6	10	-1	DANDRUFF	439	n/a	n/a	-1	1.0	1.0	1	upper	Verdana.ttf
1683.81	n/a	WORD	841905	wordpools/wasnorm_wordpool.txt	LTP107	ltpFR	6	10	-1	CLOTHES	327	n/a	n/a	-1	1.0	1.0	1	upper	Verdana.ttf
1687.992	n/a	WORD	843996	wordpools/wasnorm_wordpool.txt	LTP107	ltpFR	6	10	-1	LAUNDRY	803	n/a	n/a	-1	1.0	1.0	1	upper	Verdana.ttf
1692.092	n/a	WORD	846046	wordpools/wasnorm_wordpool.txt	LTP107	ltpFR	6	10	-1	VACUUM	1543	n/a	n/a	-1	1.0	1.0	1	upper	Verdana.ttf
1698.05	n/a	REC_START	849025	n/a	LTP107	ltpFR	6	10	n/a	n/a	n/a	n/a	n/a	n/a	n/a	n/a	n/a	n/a	n/a
1699.032	n/a	REC_WORD	849516	wordpools/wasnorm_wordpool.txt	LTP107	ltpFR	6	10	-1	VACUUM	1543	n/a	n/a	-1	n/a	n/a	n/a	n/a	n/a
1700.07	n/a	REC_WORD	850035	wordpools/wasnorm_wordpool.txt	LTP107	ltpFR	6	10	-1	LAUNDRY	803	n/a	n/a	-1	n/a	n/a	n/a	n/a	n/a
1701.776	n/a	REC_WORD	850888	wordpools/wasnorm_wordpool.txt	LTP107	ltpFR	6	10	-1	DRESS	495	n/a	n/a	-1	n/a	n/a	n/a	n/a	n/a
1703.512	n/a	REC_WORD	851756	wordpools/wasnorm_wordpool.txt	LTP107	ltpFR	6	10	-1	BUTTER	205	n/a	n/a	-1	n/a	n/a	n/a	n/a	n/a
1705.288	n/a	REC_WORD	852644	wordpools/wasnorm_wordpool.txt	LTP107	ltpFR	6	10	-1	SHAMPOO	1274	n/a	n/a	-1	n/a	n/a	n/a	n/a	n/a
1707.19	n/a	REC_WORD	853595	wordpools/wasnorm_wordpool.txt	LTP107	ltpFR	6	10	-1	DANDRUFF	439	n/a	n/a	-1	n/a	n/a	n/a	n/a	n/a
1708.936	n/a	REC_WORD	854468	wordpools/wasnorm_wordpool.txt	LTP107	ltpFR	6	10	-1	HOE	711	n/a	n/a	-1	n/a	n/a	n/a	n/a	n/a
1712.482	n/a	REC_WORD	856241	wordpools/wasnorm_wordpool.txt	LTP107	ltpFR	6	10	-1	BANK	83	n/a	n/a	-1	n/a	n/a	n/a	n/a	n/a
1735.782	n/a	REC_WORD	867891	wordpools/wasnorm_wordpool.txt	LTP107	ltpFR	6	10	-1	GRASS	655	n/a	n/a	-1	n/a	n/a	n/a	n/a	n/a
1780.84	n/a	WORD	890420	wordpools/wasnorm_wordpool.txt	LTP107	ltpFR	6	11	1	JUPITER	765	n/a	n/a	0	0.57763671875	0.412841796875	1	upper	amplitud.ttf
1784.84	n/a	WORD	892420	wordpools/wasnorm_wordpool.txt	LTP107	ltpFR	6	11	1	REEF	1177	n/a	n/a	1	0.57763671875	0.412841796875	1	upper	amplitud.ttf
1789.038	n/a	WORD	894519	wordpools/wasnorm_wordpool.txt	LTP107	ltpFR	6	11	1	SNORKEL	1336	n/a	n/a	0	0.57763671875	0.412841796875	1	upper	amplitud.ttf
1792.964	n/a	WORD	896482	wordpools/wasnorm_wordpool.txt	LTP107	ltpFR	6	11	1	MOVIE	927	n/a	n/a	0	0.57763671875	0.412841796875	1	upper	amplitud.ttf
1797.056	n/a	WORD	898528	wordpools/wasnorm_wordpool.txt	LTP107	ltpFR	6	11	1	CHART	282	n/a	n/a	0	0.57763671875	0.412841796875	1	upper	amplitud.ttf
1801.006	n/a	WORD	900503	wordpools/wasnorm_wordpool.txt	LTP107	ltpFR	6	11	1	RANCH	1166	n/a	n/a	0	0.57763671875	0.412841796875	1	upper	amplitud.ttf
1804.914	n/a	WORD	902457	wordpools/wasnorm_wordpool.txt	LTP107	ltpFR	6	11	1	COP	376	n/a	n/a	0	0.57763671875	0.412841796875	1	upper	amplitud.ttf
1808.732	n/a	WORD	904366	wordpools/wasnorm_wordpool.txt	LTP107	ltpFR	6	11	1	RECEPTIONIST	1174	n/a	n/a	1	0.57763671875	0.412841796875	1	upper	amplitud.ttf
1812.766	n/a	WORD	906383	wordpools/wasnorm_wordpool.txt	LTP107	ltpFR	6	11	1	KETTLE	772	n/a	n/a	0	0.57763671875	0.412841796875	1	upper	amplitud.ttf
1816.79	n/a	WORD	908395	wordpools/wasnorm_wordpool.txt	LTP107	ltpFR	6	11	1	COLT	349	n/a	n/a	1	0.57763671875	0.412841796875	1	upper	amplitud.ttf
1820.956	n/a	WORD	910478	wordpools/wasnorm_wordpool.txt	LTP107	ltpFR	6	11	1	ZOO	1637	n/a	n/a	0	0.57763671875	0.412841796875	1	upper	amplitud.ttf
1825.014	n/a	WORD	912507	wordpools/wasnorm_wordpool.txt	LTP107	ltpFR	6	11	1	TORTOISE	1486	n/a	n/a	1	0.57763671875	0.412841796875	1	upper	amplitud.ttf
1828.972	n/a	WORD	914486	wordpools/wasnorm_wordpool.txt	LTP107	ltpFR	6	11	1	CREW	406	n/a	n/a	1	0.57763671875	0.412841796875	1	upper	amplitud.ttf
1832.798	n/a	WORD	916399	wordpools/wasnorm_wordpool.txt	LTP107	ltpFR	6	11	1	YACHT	1629	n/a	n/a	0	0.57763671875	0.412841796875	1	upper	amplitud.ttf
1836.714	n/a	WORD	918357	wordpools/wasnorm_wordpool.txt	LTP107	ltpFR	6	11	1	RECORD	1176	n/a	n/a	0	0.57763671875	0.412841796875	1	upper	amplitud.ttf
1840.722	n/a	WORD	920361	wordpools/wasnorm_wordpool.txt	LTP107	ltpFR	6	11	1	ACTOR	5	n/a	n/a	1	0.57763671875	0.412841796875	1	upper	amplitud.ttf
1846.422	n/a	REC_START	923211	n/a	LTP107	ltpFR	6	11	n/a	n/a	n/a	n/a	n/a	n/a	n/a	n/a	n/a	n/a	n/a
1847.624	n/a	REC_WORD	923812	wordpools/wasnorm_wordpool.txt	LTP107	ltpFR	6	11	1	ACTOR	5	n/a	n/a	1	n/a	n/a	n/a	n/a	n/a
1848.602	n/a	REC_WORD	924301	wordpools/wasnorm_wordpool.txt	LTP107	ltpFR	6	11	1	RECORD	1176	n/a	n/a	0	n/a	n/a	n/a	n/a	n/a
1849.92	n/a	REC_WORD	924960	wordpools/wasnorm_wordpool.txt	LTP107	ltpFR	6	11	1	MOVIE	927	n/a	n/a	0	n/a	n/a	n/a	n/a	n/a
1851.088	n/a	REC_WORD	925544	wordpools/wasnorm_wordpool.txt	LTP107	ltpFR	6	11	1	RECEPTIONIST	1174	n/a	n/a	1	n/a	n/a	n/a	n/a	n/a
1853.302	n/a	REC_WORD	926651	wordpools/wasnorm_wordpool.txt	LTP107	ltpFR	6	11	1	REEF	1177	n/a	n/a	1	n/a	n/a	n/a	n/a	n/a
1854.58	n/a	REC_WORD	927290	wordpools/wasnorm_wordpool.txt	LTP107	ltpFR	6	11	1	SNORKEL	1336	n/a	n/a	0	n/a	n/a	n/a	n/a	n/a
1856.346	n/a	REC_WORD	928173	wordpools/wasnorm_wordpool.txt	LTP107	ltpFR	6	11	1	YACHT	1629	n/a	n/a	0	n/a	n/a	n/a	n/a	n/a
1857.992	n/a	REC_WORD	928996	wordpools/wasnorm_wordpool.txt	LTP107	ltpFR	6	11	1	RANCH	1166	n/a	n/a	0	n/a	n/a	n/a	n/a	n/a
1859.554	n/a	REC_WORD	929777	wordpools/wasnorm_wordpool.txt	LTP107	ltpFR	6	11	1	COP	376	n/a	n/a	0	n/a	n/a	n/a	n/a	n/a
1860.906	n/a	REC_WORD	930453	wordpools/wasnorm_wordpool.txt	LTP107	ltpFR	6	11	1	CREW	406	n/a	n/a	1	n/a	n/a	n/a	n/a	n/a
1865.938	n/a	REC_WORD	932969	wordpools/wasnorm_wordpool.txt	LTP107	ltpFR	6	11	1	TORTOISE	1486	n/a	n/a	1	n/a	n/a	n/a	n/a	n/a
1867.25	n/a	REC_WORD	933625	wordpools/wasnorm_wordpool.txt	LTP107	ltpFR	6	11	1	ZOO	1637	n/a	n/a	0	n/a	n/a	n/a	n/a	n/a
1868.808	n/a	REC_WORD	934404	wordpools/wasnorm_wordpool.txt	LTP107	ltpFR	6	11	1	COLT	349	n/a	n/a	1	n/a	n/a	n/a	n/a	n/a
1928.62	n/a	WORD	964310	wordpools/wasnorm_wordpool.txt	LTP107	ltpFR	6	12	1	MICROWAVE	892	n/a	n/a	0	0.57763671875	0.412841796875	1	upper	amplitud.ttf
1932.512	n/a	WORD	966256	wordpools/wasnorm_wordpool.txt	LTP107	ltpFR	6	12	1	TURKEY	1520	n/a	n/a	1	0.57763671875	0.412841796875	1	upper	amplitud.ttf
1936.536	n/a	WORD	968268	wordpools/wasnorm_wordpool.txt	LTP107	ltpFR	6	12	1	MICROPHONE	890	n/a	n/a	0	0.57763671875	0.412841796875	1	upper	amplitud.ttf
1940.478	n/a	WORD	970239	wordpools/wasnorm_wordpool.txt	LTP107	ltpFR	6	12	1	STEW	1380	n/a	n/a	0	0.57763671875	0.412841796875	1	upper	amplitud.ttf
1944.61	n/a	WORD	972305	wordpools/wasnorm_wordpool.txt	LTP107	ltpFR	6	12	1	ANTELOPE	27	n/a	n/a	1	0.57763671875	0.412841796875	1	upper	amplitud.ttf
1948.704	n/a	WORD	974352	wordpools/wasnorm_wordpool.txt	LTP107	ltpFR	6	12	1	LAMB	797	n/a	n/a	1	0.57763671875	0.412841796875	1	upper	amplitud.ttf
1952.744	n/a	WORD	976372	wordpools/wasnorm_wordpool.txt	LTP107	ltpFR	6	12	1	PORCUPINE	1107	n/a	n/a	1	0.57763671875	0.412841796875	1	upper	amplitud.ttf
1956.952	n/a	WORD	978476	wordpools/wasnorm_wordpool.txt	LTP107	ltpFR	6	12	1	FINGER	567	n/a	n/a	0	0.57763671875	0.412841796875	1	upper	amplitud.ttf
1961.084	n/a	WORD	980542	wordpools/wasnorm_wordpool.txt	LTP107	ltpFR	6	12	1	SKULL	1320	n/a	n/a	0	0.57763671875	0.412841796875	1	upper	amplitud.ttf
1965.242	n/a	WORD	982621	wordpools/wasnorm_wordpool.txt	LTP107	ltpFR	6	12	1	ASTRONAUT	51	n/a	n/a	1	0.57763671875	0.412841796875	1	upper	amplitud.ttf
1969.302	n/a	WORD	984651	wordpools/wasnorm_wordpool.txt	LTP107	ltpFR	6	12	1	SANDWICH	1232	n/a	n/a	0	0.57763671875	0.412841796875	1	upper	amplitud.ttf
1973.31	n/a	WORD	986655	wordpools/wasnorm_wordpool.txt	LTP107	ltpFR	6	12	1	TROMBONE	1508	n/a	n/a	0	0.57763671875	0.412841796875	1	upper	amplitud.ttf
1977.192	n/a	WORD	988596	wordpools/wasnorm_wordpool.txt	LTP107	ltpFR	6	12	1	RAM	1165	n/a	n/a	1	0.57763671875	0.412841796875	1	upper	amplitud.ttf
1981.242	n/a	WORD	990621	wordpools/wasnorm_wordpool.txt	LTP107	ltpFR	6	12	1	PATIENT	1024	n/a	n/a	1	0.57763671875	0.412841796875	1	upper	amplitud.ttf
1985.426	n/a	WORD	992713	wordpools/wasnorm_wordpool.txt	LTP107	ltpFR	6	12	1	ELBOW	520	n/a	n/a	0	0.57763671875	0.412841796875	1	upper	amplitud.ttf
1989.334	n/a	WORD	994667	wordpools/wasnorm_wordpool.txt	LTP107	ltpFR	6	12	1	LEG	809	n/a	n/a	0	0.57763671875	0.412841796875	1	upper	amplitud.ttf
1995.16	n/a	REC_START	997580	n/a	LTP107	ltpFR	6	12	n/a	n/a	n/a	n/a	n/a	n/a	n/a	n/a	n/a	n/a	n/a
1995.724	n/a	REC_WORD	997862	wordpools/wasnorm_wordpool.txt	LTP107	ltpFR	6	12	1	LEG	809	n/a	n/a	0	n/a	n/a	n/a	n/a	n/a
1996.64	n/a	REC_WORD	998320	wordpools/wasnorm_wordpool.txt	LTP107	ltpFR	6	12	1	ELBOW	520	n/a	n/a	0	n/a	n/a	n/a	n/a	n/a
1997.598	n/a	REC_WORD	998799	wordpools/wasnorm_wordpool.txt	LTP107	ltpFR	6	12	1	SKULL	1320	n/a	n/a	0	n/a	n/a	n/a	n/a	n/a
1999.154	n/a	REC_WORD	999577	wordpools/wasnorm_wordpool.txt	LTP107	ltpFR	6	12	1	FINGER	567	n/a	n/a	0	n/a	n/a	n/a	n/a	n/a
2000.498	n/a	REC_WORD	1000249	wordpools/wasnorm_wordpool.txt	LTP107	ltpFR	6	12	1	PORCUPINE	1107	n/a	n/a	1	n/a	n/a	n/a	n/a	n/a
2002.028	n/a	REC_WORD	1001014	wordpools/wasnorm_wordpool.txt	LTP107	ltpFR	6	12	1	RAM	1165	n/a	n/a	1	n/a	n/a	n/a	n/a	n/a
2006.54	n/a	REC_WORD	1003270	wordpools/wasnorm_wordpool.txt	LTP107	ltpFR	6	12	1	ANTELOPE	27	n/a	n/a	1	n/a	n/a	n/a	n/a	n/a
2012.68	n/a	REC_WORD	1006340	wordpools/wasnorm_wordpool.txt	LTP107	ltpFR	6	12	1	TURKEY	1520	n/a	n/a	1	n/a	n/a	n/a	n/a	n/a
2014.352	n/a	REC_WORD	1007176	wordpools/wasnorm_wordpool.txt	LTP107	ltpFR	6	12	1	STEW	1380	n/a	n/a	0	n/a	n/a	n/a	n/a	n/a
2015.668	n/a	REC_WORD	1007834	wordpools/wasnorm_wordpool.txt	LTP107	ltpFR	6	12	1	SANDWICH	1232	n/a	n/a	0	n/a	n/a	n/a	n/a	n/a
2027.104	n/a	REC_WORD	1013552	wordpools/wasnorm_wordpool.txt	LTP107	ltpFR	6	12	1	MICROWAVE	892	n/a	n/a	0	n/a	n/a	n/a	n/a	n/a
2070.75	n/a	REST_REWET	1035375	n/a	LTP107	ltpFR	6	12	n/a	n/a	n/a	n/a	n/a	n/a	n/a	n/a	n/a	n/a	n/a
2507.32	n/a	WORD	1253660	wordpools/wasnorm_wordpool.txt	LTP107	ltpFR	6	13	1	FREEZER	604	n/a	n/a	0	0.57763671875	0.412841796875	1	upper	amplitud.ttf
2511.194	n/a	WORD	1255597	wordpools/wasnorm_wordpool.txt	LTP107	ltpFR	6	13	1	SPHINX	1349	n/a	n/a	1	0.57763671875	0.412841796875	1	upper	amplitud.ttf
2515.212	n/a	WORD	1257606	wordpools/wasnorm_wordpool.txt	LTP107	ltpFR	6	13	1	JURY	766	n/a	n/a	1	0.57763671875	0.412841796875	1	upper	amplitud.ttf
2519.22	n/a	WORD	1259610	wordpools/wasnorm_wordpool.txt	LTP107	ltpFR	6	13	1	RULER	1216	n/a	n/a	0	0.57763671875	0.412841796875	1	upper	amplitud.ttf
2523.07	n/a	WORD	1261535	wordpools/wasnorm_wordpool.txt	LTP107	ltpFR	6	13	1	SENATOR	1268	n/a	n/a	1	0.57763671875	0.412841796875	1	upper	amplitud.ttf
2527.236	n/a	WORD	1263618	wordpools/wasnorm_wordpool.txt	LTP107	ltpFR	6	13	1	CAKE	219	n/a	n/a	0	0.57763671875	0.412841796875	1	upper	amplitud.ttf
2531.32	n/a	WORD	1265660	wordpools/wasnorm_wordpool.txt	LTP107	ltpFR	6	13	1	PICKLE	1059	n/a	n/a	0	0.57763671875	0.412841796875	1	upper	amplitud.ttf
2535.344	n/a	WORD	1267672	wordpools/wasnorm_wordpool.txt	LTP107	ltpFR	6	13	1	SPINACH	1352	n/a	n/a	0	0.57763671875	0.412841796875	1	upper	amplitud.ttf
2539.286	n/a	WORD	1269643	wordpools/wasnorm_wordpool.txt	LTP107	ltpFR	6	13	1	COYOTE	396	n/a	n/a	1	0.57763671875	0.412841796875	1	upper	amplitud.ttf
2543.11	n/a	WORD	1271555	wordpools/wasnorm_wordpool.txt	LTP107	ltpFR	6	13	1	PUPPY	1144	n/a	n/a	1	0.57763671875	0.412841796875	1	upper	amplitud.ttf
2546.946	n/a	WORD	1273473	wordpools/wasnorm_wordpool.txt	LTP107	ltpFR	6	13	1	BARN	89	n/a	n/a	0	0.57763671875	0.412841796875	1	upper	amplitud.ttf
2550.82	n/a	WORD	1275410	wordpools/wasnorm_wordpool.txt	LTP107	ltpFR	6	13	1	TENT	1449	n/a	n/a	0	0.57763671875	0.412841796875	1	upper	amplitud.ttf
2554.812	n/a	WORD	1277406	wordpools/wasnorm_wordpool.txt	LTP107	ltpFR	6	13	1	TWIN	1528	n/a	n/a	1	0.57763671875	0.412841796875	1	upper	amplitud.ttf
2558.796	n/a	WORD	1279398	wordpools/wasnorm_wordpool.txt	LTP107	ltpFR	6	13	1	CROCODILE	411	n/a	n/a	1	0.57763671875	0.412841796875	1	upper	amplitud.ttf
2562.978	n/a	WORD	1281489	wordpools/wasnorm_wordpool.txt	LTP107	ltpFR	6	13	1	MUMMY	932	n/a	n/a	0	0.57763671875	0.412841796875	1	upper	amplitud.ttf
2567.16	n/a	WORD	1283580	wordpools/wasnorm_wordpool.txt	LTP107	ltpFR	6	13	1	KLEENEX	782	n/a	n/a	0	0.57763671875	0.412841796875	1	upper	amplitud.ttf
2572.804	n/a	REC_START	1286402	n/a	LTP107	ltpFR	6	13	n/a	n/a	n/a	n/a	n/a	n/a	n/a	n/a	n/a	n/a	n/a
2573.536	n/a	REC_WORD	1286768	wordpools/wasnorm_wordpool.txt	LTP107	ltpFR	6	13	1	KLEENEX	782	n/a	n/a	0	n/a	n/a	n/a	n/a	n/a
2574.584	n/a	REC_WORD	1287292	wordpools/wasnorm_wordpool.txt	LTP107	ltpFR	6	13	1	MUMMY	932	n/a	n/a	0	n/a	n/a	n/a	n/a	n/a
2575.612	n/a	REC_WORD	1287806	wordpools/wasnorm_wordpool.txt	LTP107	ltpFR	6	13	1	CROCODILE	411	n/a	n/a	1	n/a	n/a	n/a	n/a	n/a
2577.248	n/a	REC_WORD	1288624	wordpools/wasnorm_wordpool.txt	LTP107	ltpFR	6	13	1	TENT	1449	n/a	n/a	0	n/a	n/a	n/a	n/a	n/a
2578.42	n/a	REC_WORD	1289210	wordpools/wasnorm_wordpool.txt	LTP107	ltpFR	6	13	1	BARN	89	n/a	n/a	0	n/a	n/a	n/a	n/a	n/a
2593.852	n/a	REC_WORD	1296926	wordpools/wasnorm_wordpool.txt	LTP107	ltpFR	6	13	1	PUPPY	1144	n/a	n/a	1	n/a	n/a	n/a	n/a	n/a
2594.984	n/a	REC_WORD	1297492	wordpools/wasnorm_wordpool.txt	LTP107	ltpFR	6	13	1	COYOTE	396	n/a	n/a	1	n/a	n/a	n/a	n/a	n/a
2596.466	n/a	REC_WORD	1298233	wordpools/wasnorm_wordpool.txt	LTP107	ltpFR	6	13	1	SPHINX	1349	n/a	n/a	1	n/a	n/a	n/a	n/a	n/a
2654.618	n/a	WORD	1327309	wordpools/wasnorm_wordpool.txt	LTP107	ltpFR	6	14	-1	FUGITIVE	612	n/a	n/a	-1	1.0	1.0	1	upper	Verdana.ttf
2658.576	n/a	WORD	1329288	wordpools/wasnorm_wordpool.txt	LTP107	ltpFR	6	14	-1	PATRIOT	1026	n/a	n/a	-1	1.0	1.0	1	upper	Verdana.ttf
2662.6	n/a	WORD	1331300	wordpools/wasnorm_wordpool.txt	LTP107	ltpFR	6	14	-1	EUROPE	541	n/a	n/a	-1	1.0	1.0	1	upper	Verdana.ttf
2666.726	n/a	WORD	1333363	wordpools/wasnorm_wordpool.txt	LTP107	ltpFR	6	14	-1	STREAM	1392	n/a	n/a	-1	1.0	1.0	1	upper	Verdana.ttf
2670.726	n/a	WORD	1335363	wordpools/wasnorm_wordpool.txt	LTP107	ltpFR	6	14	-1	SPONGE	1355	n/a	n/a	-1	1.0	1.0	1	upper	Verdana.ttf
2674.692	n/a	WORD	1337346	wordpools/wasnorm_wordpool.txt	LTP107	ltpFR	6	14	-1	PEARL	1034	n/a	n/a	-1	1.0	1.0	1	upper	Verdana.ttf
2678.584	n/a	WORD	1339292	wordpools/wasnorm_wordpool.txt	LTP107	ltpFR	6	14	-1	BELL	118	n/a	n/a	-1	1.0	1.0	1	upper	Verdana.ttf
2682.792	n/a	WORD	1341396	wordpools/wasnorm_wordpool.txt	LTP107	ltpFR	6	14	-1	HAMMER	680	n/a	n/a	-1	1.0	1.0	1	upper	Verdana.ttf
2686.708	n/a	WORD	1343354	wordpools/wasnorm_wordpool.txt	LTP107	ltpFR	6	14	-1	PORTRAIT	1111	n/a	n/a	-1	1.0	1.0	1	upper	Verdana.ttf
2690.566	n/a	WORD	1345283	wordpools/wasnorm_wordpool.txt	LTP107	ltpFR	6	14	-1	STICKER	1382	n/a	n/a	-1	1.0	1.0	1	upper	Verdana.ttf
2694.724	n/a	WORD	1347362	wordpools/wasnorm_wordpool.txt	LTP107	ltpFR	6	14	-1	TEAPOT	1442	n/a	n/a	-1	1.0	1.0	1	upper	Verdana.ttf
2698.7	n/a	WORD	1349350	wordpools/wasnorm_wordpool.txt	LTP107	ltpFR	6	14	-1	SINK	1309	n/a	n/a	-1	1.0	1.0	1	upper	Verdana.ttf
2702.732	n/a	WORD	1351366	wordpools/wasnorm_wordpool.txt	LTP107	ltpFR	6	14	-1	WAGON	1578	n/a	n/a	-1	1.0	1.0	1	upper	Verdana.ttf
2706.608	n/a	WORD	1353304	wordpools/wasnorm_wordpool.txt	LTP107	ltpFR	6	14	-1	ANTLER	29	n/a	n/a	-1	1.0	1.0	1	upper	Verdana.ttf
2710.624	n/a	WORD	1355312	wordpools/wasnorm_wordpool.txt	LTP107	ltpFR	6	14	-1	AFRICA	9	n/a	n/a	-1	1.0	1.0	1	upper	Verdana.ttf
2714.592	n/a	WORD	1357296	wordpools/wasnorm_wordpool.txt	LTP107	ltpFR	6	14	-1	CARPENTER	246	n/a	n/a	-1	1.0	1.0	1	upper	Verdana.ttf
2720.424	n/a	REC_START	1360212	n/a	LTP107	ltpFR	6	14	n/a	n/a	n/a	n/a	n/a	n/a	n/a	n/a	n/a	n/a	n/a
2721.682	n/a	REC_WORD	1360841	wordpools/wasnorm_wordpool.txt	LTP107	ltpFR	6	14	-1	CARPENTER	246	n/a	n/a	-1	n/a	n/a	n/a	n/a	n/a
2722.764	n/a	REC_WORD	1361382	wordpools/wasnorm_wordpool.txt	LTP107	ltpFR	6	14	-1	AFRICA	9	n/a	n/a	-1	n/a	n/a	n/a	n/a	n/a
2724.08	n/a	REC_WORD	1362040	wordpools/wasnorm_wordpool.txt	LTP107	ltpFR	6	14	-1	ANTLER	29	n/a	n/a	-1	n/a	n/a	n/a	n/a	n/a
2726.956	n/a	REC_WORD	1363478	wordpools/wasnorm_wordpool.txt	LTP107	ltpFR	6	14	-1	WAGON	1578	n/a	n/a	-1	n/a	n/a	n/a	n/a	n/a
2728.722	n/a	REC_WORD	1364361	wordpools/wasnorm_wordpool.txt	LTP107	ltpFR	6	14	-1	FUGITIVE	612	n/a	n/a	-1	n/a	n/a	n/a	n/a	n/a
2730.248	n/a	REC_WORD	1365124	wordpools/wasnorm_wordpool.txt	LTP107	ltpFR	6	14	-1	PATRIOT	1026	n/a	n/a	-1	n/a	n/a	n/a	n/a	n/a
2732.034	n/a	REC_WORD	1366017	wordpools/wasnorm_wordpool.txt	LTP107	ltpFR	6	14	-1	EUROPE	541	n/a	n/a	-1	n/a	n/a	n/a	n/a	n/a
2732.992	n/a	REC_WORD	1366496	wordpools/wasnorm_wordpool.txt	LTP107	ltpFR	6	14	-1	STREAM	1392	n/a	n/a	-1	n/a	n/a	n/a	n/a	n/a
2734.424	n/a	REC_WORD	1367212	wordpools/wasnorm_wordpool.txt	LTP107	ltpFR	6	14	-1	PEARL	1034	n/a	n/a	-1	n/a	n/a	n/a	n/a	n/a
2735.716	n/a	REC_WORD	1367858	wordpools/wasnorm_wordpool.txt	LTP107	ltpFR	6	14	n/a	FAUCET	555	n/a	n/a	n/a	n/a	n/a	n/a	n/a	n/a
2754.468	n/a	REC_WORD	1377234	wordpools/wasnorm_wordpool.txt	LTP107	ltpFR	6	14	-1	BELL	118	n/a	n/a	-1	n/a	n/a	n/a	n/a	n/a
2755.94	n/a	REC_WORD	1377970	wordpools/wasnorm_wordpool.txt	LTP107	ltpFR	6	14	-1	TEAPOT	1442	n/a	n/a	-1	n/a	n/a	n/a	n/a	n/a
2757.516	n/a	REC_WORD	1378758	wordpools/wasnorm_wordpool.txt	LTP107	ltpFR	6	14	-1	HAMMER	680	n/a	n/a	-1	n/a	n/a	n/a	n/a	n/a
2801.88	n/a	WORD	1400940	wordpools/wasnorm_wordpool.txt	LTP107	ltpFR	6	15	0	PAVEMENT	1028	n/a	n/a	1	0.422607421875	0.5869140625	0	lower	zerothre.ttf
2805.706	n/a	WORD	1402853	wordpools/wasnorm_wordpool.txt	LTP107	ltpFR	6	15	0	BLUEBERRY	140	n/a	n/a	0	0.422607421875	0.5869140625	0	lower	zerothre.ttf
2809.656	n/a	WORD	1404828	wordpools/wasnorm_wordpool.txt	LTP107	ltpFR	6	15	0	BERRY	122	n/a	n/a	0	0.422607421875	0.5869140625	0	lower	zerothre.ttf
2813.746	n/a	WORD	1406873	wordpools/wasnorm_wordpool.txt	LTP107	ltpFR	6	15	0	SQUID	1361	n/a	n/a	1	0.422607421875	0.5869140625	0	lower	zerothre.ttf
2817.922	n/a	WORD	1408961	wordpools/wasnorm_wordpool.txt	LTP107	ltpFR	6	15	0	DUSTPAN	509	n/a	n/a	1	0.422607421875	0.5869140625	0	lower	zerothre.ttf
2821.946	n/a	WORD	1410973	wordpools/wasnorm_wordpool.txt	LTP107	ltpFR	6	15	0	AUDIENCE	59	n/a	n/a	1	0.422607421875	0.5869140625	0	lower	zerothre.ttf
2826.054	n/a	WORD	1413027	wordpools/wasnorm_wordpool.txt	LTP107	ltpFR	6	15	0	SARDINE	1235	n/a	n/a	0	0.422607421875	0.5869140625	0	lower	zerothre.ttf
2830.236	n/a	WORD	1415118	wordpools/wasnorm_wordpool.txt	LTP107	ltpFR	6	15	0	COOKBOOK	373	n/a	n/a	0	0.422607421875	0.5869140625	0	lower	zerothre.ttf
2834.136	n/a	WORD	1417068	wordpools/wasnorm_wordpool.txt	LTP107	ltpFR	6	15	0	SHRIMP	1297	n/a	n/a	0	0.422607421875	0.5869140625	0	lower	zerothre.ttf
2838.104	n/a	WORD	1419052	wordpools/wasnorm_wordpool.txt	LTP107	ltpFR	6	15	0	STAFF	1365	n/a	n/a	1	0.422607421875	0.5869140625	0	lower	zerothre.ttf
2841.954	n/a	WORD	1420977	wordpools/wasnorm_wordpool.txt	LTP107	ltpFR	6	15	0	WASHER	1592	n/a	n/a	1	0.422607421875	0.5869140625	0	lower	zerothre.ttf
2845.954	n/a	WORD	1422977	wordpools/wasnorm_wordpool.txt	LTP107	ltpFR	6	15	0	FOOT	590	n/a	n/a	0	0.422607421875	0.5869140625	0	lower	zerothre.ttf
2849.77	n/a	WORD	1424885	wordpools/wasnorm_wordpool.txt	LTP107	ltpFR	6	15	0	MARROW	872	n/a	n/a	0	0.422607421875	0.5869140625	0	lower	zerothre.ttf
2853.704	n/a	WORD	1426852	wordpools/wasnorm_wordpool.txt	LTP107	ltpFR	6	15	0	BODY	145	n/a	n/a	1	0.422607421875	0.5869140625	0	lower	zerothre.ttf
2857.554	n/a	WORD	1428777	wordpools/wasnorm_wordpool.txt	LTP107	ltpFR	6	15	0	DAUGHTER	442	n/a	n/a	1	0.422607421875	0.5869140625	0	lower	zerothre.ttf
2861.47	n/a	WORD	1430735	wordpools/wasnorm_wordpool.txt	LTP107	ltpFR	6	15	0	STAIRS	1367	n/a	n/a	1	0.422607421875	0.5869140625	0	lower	zerothre.ttf
2867.472	n/a	REC_START	1433736	n/a	LTP107	ltpFR	6	15	n/a	n/a	n/a	n/a	n/a	n/a	n/a	n/a	n/a	n/a	n/a
2868.054	n/a	REC_WORD	1434027	wordpools/wasnorm_wordpool.txt	LTP107	ltpFR	6	15	0	STAIRS	1367	n/a	n/a	1	n/a	n/a	n/a	n/a	n/a
2869.352	n/a	REC_WORD	1434676	wordpools/wasnorm_wordpool.txt	LTP107	ltpFR	6	15	0	BODY	145	n/a	n/a	1	n/a	n/a	n/a	n/a	n/a
2871.248	n/a	REC_WORD	1435624	wordpools/wasnorm_wordpool.txt	LTP107	ltpFR	6	15	0	DAUGHTER	442	n/a	n/a	1	n/a	n/a	n/a	n/a	n/a
2872.984	n/a	REC_WORD	1436492	wordpools/wasnorm_wordpool.txt	LTP107	ltpFR	6	15	0	PAVEMENT	1028	n/a	n/a	1	n/a	n/a	n/a	n/a	n/a
2874.112	n/a	REC_WORD	1437056	wordpools/wasnorm_wordpool.txt	LTP107	ltpFR	6	15	0	SQUID	1361	n/a	n/a	1	n/a	n/a	n/a	n/a	n/a
2875.364	n/a	REC_WORD	1437682	wordpools/wasnorm_wordpool.txt	LTP107	ltpFR	6	15	0	SHRIMP	1297	n/a	n/a	0	n/a	n/a	n/a	n/a	n/a
2876.426	n/a	REC_WORD	1438213	wordpools/wasnorm_wordpool.txt	LTP107	ltpFR	6	15	0	SARDINE	1235	n/a	n/a	0	n/a	n/a	n/a	n/a	n/a
2878.182	n/a	REC_WORD	1439091	wordpools/wasnorm_wordpool.txt	LTP107	ltpFR	6	15	0	COOKBOOK	373	n/a	n/a	0	n/a	n/a	n/a	n/a	n/a
2879.484	n/a	REC_WORD	1439742	wordpools/wasnorm_wordpool.txt	LTP107	ltpFR	6	15	0	BERRY	122	n/a	n/a	0	n/a	n/a	n/a	n/a	n/a
2880.592	n/a	REC_WORD	1440296	wordpools/wasnorm_wordpool.txt	LTP107	ltpFR	6	15	0	BLUEBERRY	140	n/a	n/a	0	n/a	n/a	n/a	n/a	n/a
2882.438	n/a	REC_WORD	1441219	wordpools/wasnorm_wordpool.txt	LTP107	ltpFR	6	15	0	AUDIENCE	59	n/a	n/a	1	n/a	n/a	n/a	n/a	n/a
2883.636	n/a	REC_WORD	1441818	wordpools/wasnorm_wordpool.txt	LTP107	ltpFR	6	15	0	STAFF	1365	n/a	n/a	1	n/a	n/a	n/a	n/a	n/a
2901.18	n/a	REC_WORD	1450590	wordpools/wasnorm_wordpool.txt	LTP107	ltpFR	6	15	0	MARROW	872	n/a	n/a	0	n/a	n/a	n/a	n/a	n/a
2905.312	n/a	REC_WORD	1452656	wordpools/wasnorm_wordpool.txt	LTP107	ltpFR	6	15	0	BODY	145	n/a	n/a	1	n/a	n/a	n/a	n/a	n/a
2911.058	n/a	REC_WORD	1455529	wordpools/wasnorm_wordpool.txt	LTP107	ltpFR	6	15	0	FOOT	590	n/a	n/a	0	n/a	n/a	n/a	n/a	n/a
2948.034	n/a	WORD	1474017	wordpools/wasnorm_wordpool.txt	LTP107	ltpFR	6	16	0	CITRUS	313	n/a	n/a	0	0.422607421875	0.5869140625	0	lower	zerothre.ttf
2951.842	n/a	WORD	1475921	wordpools/wasnorm_wordpool.txt	LTP107	ltpFR	6	16	0	KEY	773	n/a	n/a	0	0.422607421875	0.5869140625	0	lower	zerothre.ttf
2955.792	n/a	WORD	1477896	wordpools/wasnorm_wordpool.txt	LTP107	ltpFR	6	16	0	CABINET	212	n/a	n/a	1	0.422607421875	0.5869140625	0	lower	zerothre.ttf
2959.742	n/a	WORD	1479871	wordpools/wasnorm_wordpool.txt	LTP107	ltpFR	6	16	0	MICROSCOPE	891	n/a	n/a	1	0.422607421875	0.5869140625	0	lower	zerothre.ttf
2963.602	n/a	WORD	1481801	wordpools/wasnorm_wordpool.txt	LTP107	ltpFR	6	16	0	VAGRANT	1544	n/a	n/a	1	0.422607421875	0.5869140625	0	lower	zerothre.ttf
2967.676	n/a	WORD	1483838	wordpools/wasnorm_wordpool.txt	LTP107	ltpFR	6	16	0	SCREW	1254	n/a	n/a	0	0.422607421875	0.5869140625	0	lower	zerothre.ttf
2971.626	n/a	WORD	1485813	wordpools/wasnorm_wordpool.txt	LTP107	ltpFR	6	16	0	JELLY	755	n/a	n/a	0	0.422607421875	0.5869140625	0	lower	zerothre.ttf
2975.6	n/a	WORD	1487800	wordpools/wasnorm_wordpool.txt	LTP107	ltpFR	6	16	0	SCENERY	1247	n/a	n/a	1	0.422607421875	0.5869140625	0	lower	zerothre.ttf
2979.76	n/a	WORD	1489880	wordpools/wasnorm_wordpool.txt	LTP107	ltpFR	6	16	0	CLAMP	316	n/a	n/a	0	0.422607421875	0.5869140625	0	lower	zerothre.ttf
2983.592	n/a	WORD	1491796	wordpools/wasnorm_wordpool.txt	LTP107	ltpFR	6	16	0	BLACKBERRY	132	n/a	n/a	0	0.422607421875	0.5869140625	0	lower	zerothre.ttf
2987.742	n/a	WORD	1493871	wordpools/wasnorm_wordpool.txt	LTP107	ltpFR	6	16	0	CAMERA	224	n/a	n/a	1	0.422607421875	0.5869140625	0	lower	zerothre.ttf
2991.776	n/a	WORD	1495888	wordpools/wasnorm_wordpool.txt	LTP107	ltpFR	6	16	0	UNCLE	1536	n/a	n/a	1	0.422607421875	0.5869140625	0	lower	zerothre.ttf
2995.866	n/a	WORD	1497933	wordpools/wasnorm_wordpool.txt	LTP107	ltpFR	6	16	0	TREAD	1499	n/a	n/a	1	0.422607421875	0.5869140625	0	lower	zerothre.ttf
2999.75	n/a	WORD	1499875	wordpools/wasnorm_wordpool.txt	LTP107	ltpFR	6	16	0	BROOK	177	n/a	n/a	1	0.422607421875	0.5869140625	0	lower	zerothre.ttf
3003.834	n/a	WORD	1501917	wordpools/wasnorm_wordpool.txt	LTP107	ltpFR	6	16	0	COOK	372	n/a	n/a	1	0.422607421875	0.5869140625	0	lower	zerothre.ttf
3007.884	n/a	WORD	1503942	wordpools/wasnorm_wordpool.txt	LTP107	ltpFR	6	16	0	LOBSTER	837	n/a	n/a	0	0.422607421875	0.5869140625	0	lower	zerothre.ttf
3013.542	n/a	REC_START	1506771	n/a	LTP107	ltpFR	6	16	n/a	n/a	n/a	n/a	n/a	n/a	n/a	n/a	n/a	n/a	n/a
3014.026	n/a	REC_WORD	1507013	wordpools/wasnorm_wordpool.txt	LTP107	ltpFR	6	16	0	LOBSTER	837	n/a	n/a	0	n/a	n/a	n/a	n/a	n/a
3015.032	n/a	REC_WORD	1507516	wordpools/wasnorm_wordpool.txt	LTP107	ltpFR	6	16	0	COOK	372	n/a	n/a	1	n/a	n/a	n/a	n/a	n/a
3016.166	n/a	REC_WORD	1508083	wordpools/wasnorm_wordpool.txt	LTP107	ltpFR	6	16	0	UNCLE	1536	n/a	n/a	1	n/a	n/a	n/a	n/a	n/a
3017.138	n/a	REC_WORD	1508569	wordpools/wasnorm_wordpool.txt	LTP107	ltpFR	6	16	0	TREAD	1499	n/a	n/a	1	n/a	n/a	n/a	n/a	n/a
3018.34	n/a	REC_WORD	1509170	wordpools/wasnorm_wordpool.txt	LTP107	ltpFR	6	16	0	CAMERA	224	n/a	n/a	1	n/a	n/a	n/a	n/a	n/a
3019.628	n/a	REC_WORD	1509814	wordpools/wasnorm_wordpool.txt	LTP107	ltpFR	6	16	0	BROOK	177	n/a	n/a	1	n/a	n/a	n/a	n/a	n/a
3020.9	n/a	REC_WORD	1510450	wordpools/wasnorm_wordpool.txt	LTP107	ltpFR	6	16	0	VAGRANT	1544	n/a	n/a	1	n/a	n/a	n/a	n/a	n/a
3022.342	n/a	REC_WORD	1511171	wordpools/wasnorm_wordpool.txt	LTP107	ltpFR	6	16	0	KEY	773	n/a	n/a	0	n/a	n/a	n/a	n/a	n/a
3023.664	n/a	REC_WORD	1511832	wordpools/wasnorm_wordpool.txt	LTP107	ltpFR	6	16	0	CITRUS	313	n/a	n/a	0	n/a	n/a	n/a	n/a	n/a
3025.16	n/a	REC_WORD	1512580	wordpools/wasnorm_wordpool.txt	LTP107	ltpFR	6	16	0	CABINET	212	n/a	n/a	1	n/a	n/a	n/a	n/a	n/a
3026.538	n/a	REC_WORD	1513269	wordpools/wasnorm_wordpool.txt	LTP107	ltpFR	6	16	0	MICROSCOPE	891	n/a	n/a	1	n/a	n/a	n/a	n/a	n/a
3031.182	n/a	REC_WORD	1515591	wordpools/wasnorm_wordpool.txt	LTP107	ltpFR	6	16	0	BLACKBERRY	132	n/a	n/a	0	n/a	n/a	n/a	n/a	n/a
3049.446	n/a	REC_WORD	1524723	wordpools/wasnorm_wordpool.txt	LTP107	ltpFR	6	16	0	SCREW	1254	n/a	n/a	0	n/a	n/a	n/a	n/a	n/a
3067.412	n/a	REC_WORD	1533706	wordpools/wasnorm_wordpool.txt	LTP107	ltpFR	6	16	0	TREAD	1499	n/a	n/a	1	n/a	n/a	n/a	n/a	n/a
3113.196	n/a	REC_START	1556598	n/a	LTP107	ltpFR	6	1	n/a	n/a	n/a	n/a	n/a	n/a	n/a	n/a	n/a	n/a	n/a
3113.23	n/a	RECOG_TARGET	1556615	n/a	LTP107	ltpFR	6	1	0	DICTATOR	462	1	5	1	n/a	n/a	n/a	n/a	n/a
3114.718	n/a	RECOG_RESP	1557359	n/a	LTP107	ltpFR	6	1	0	DICTATOR	462	1	n/a	1	n/a	n/a	n/a	n/a	n/a
3116.266	n/a	RECOG_CONF	1558133	n/a	LTP107	ltpFR	6	1	0	DICTATOR	462	n/a	5	1	n/a	n/a	n/a	n/a	n/a
3118.112	n/a	RECOG_TARGET	1559056	n/a	LTP107	ltpFR	6	1	1	JURY	766	1	3	1	n/a	n/a	n/a	n/a	n/a
3119.218	n/a	RECOG_RESP	1559609	n/a	LTP107	ltpFR	6	1	1	JURY	766	1	n/a	1	n/a	n/a	n/a	n/a	n/a
3120.496	n/a	RECOG_CONF	1560248	n/a	LTP107	ltpFR	6	1	1	JURY	766	n/a	3	1	n/a	n/a	n/a	n/a	n/a
3121.88	n/a	RECOG_TARGET	1560940	n/a	LTP107	ltpFR	6	1	0	CAMERA	224	1	5	1	n/a	n/a	n/a	n/a	n/a
3122.522	n/a	RECOG_RESP	1561261	n/a	LTP107	ltpFR	6	1	0	CAMERA	224	1	n/a	1	n/a	n/a	n/a	n/a	n/a
3123.548	n/a	RECOG_CONF	1561774	n/a	LTP107	ltpFR	6	1	0	CAMERA	224	n/a	5	1	n/a	n/a	n/a	n/a	n/a
3124.938	n/a	RECOG_TARGET	1562469	n/a	LTP107	ltpFR	6	1	0	BROOK	177	1	5	1	n/a	n/a	n/a	n/a	n/a
3125.514	n/a	RECOG_RESP	1562757	n/a	LTP107	ltpFR	6	1	0	BROOK	177	1	n/a	1	n/a	n/a	n/a	n/a	n/a
3126.452	n/a	RECOG_CONF	1563226	n/a	LTP107	ltpFR	6	1	0	BROOK	177	n/a	5	1	n/a	n/a	n/a	n/a	n/a
3127.804	n/a	RECOG_LURE	1563902	n/a	LTP107	ltpFR	6	1	n/a	ACTRESS	6	0	4	n/a	n/a	n/a	n/a	n/a	n/a
3128.638	n/a	RECOG_RESP	1564319	n/a	LTP107	ltpFR	6	1	n/a	ACTRESS	6	0	n/a	n/a	n/a	n/a	n/a	n/a	n/a
3129.894	n/a	RECOG_CONF	1564947	n/a	LTP107	ltpFR	6	1	n/a	ACTRESS	6	n/a	4	n/a	n/a	n/a	n/a	n/a	n/a
3131.196	n/a	RECOG_LURE	1565598	n/a	LTP107	ltpFR	6	1	n/a	GOOSE	649	0	5	n/a	n/a	n/a	n/a	n/a	n/a
3131.934	n/a	RECOG_RESP	1565967	n/a	LTP107	ltpFR	6	1	n/a	GOOSE	649	0	n/a	n/a	n/a	n/a	n/a	n/a	n/a
3132.968	n/a	RECOG_CONF	1566484	n/a	LTP107	ltpFR	6	1	n/a	GOOSE	649	n/a	5	n/a	n/a	n/a	n/a	n/a	n/a
3134.336	n/a	RECOG_LURE	1567168	n/a	LTP107	ltpFR	6	1	n/a	ALLEY	15	0	4	n/a	n/a	n/a	n/a	n/a	n/a
3135.042	n/a	RECOG_RESP	1567521	n/a	LTP107	ltpFR	6	1	n/a	ALLEY	15	0	n/a	n/a	n/a	n/a	n/a	n/a	n/a
3136.162	n/a	RECOG_CONF	1568081	n/a	LTP107	ltpFR	6	1	n/a	ALLEY	15	n/a	4	n/a	n/a	n/a	n/a	n/a	n/a
3137.538	n/a	RECOG_LURE	1568769	n/a	LTP107	ltpFR	6	1	n/a	PERFUME	1049	0	5	n/a	n/a	n/a	n/a	n/a	n/a
3138.226	n/a	RECOG_RESP	1569113	n/a	LTP107	ltpFR	6	1	n/a	PERFUME	1049	0	n/a	n/a	n/a	n/a	n/a	n/a	n/a
3139.204	n/a	RECOG_CONF	1569602	n/a	LTP107	ltpFR	6	1	n/a	PERFUME	1049	n/a	5	n/a	n/a	n/a	n/a	n/a	n/a
3140.496	n/a	RECOG_TARGET	1570248	n/a	LTP107	ltpFR	6	1	1	BARN	89	1	5	0	n/a	n/a	n/a	n/a	n/a
3141.154	n/a	RECOG_RESP	1570577	n/a	LTP107	ltpFR	6	1	1	BARN	89	1	n/a	0	n/a	n/a	n/a	n/a	n/a
3142.158	n/a	RECOG_CONF	1571079	n/a	LTP107	ltpFR	6	1	1	BARN	89	n/a	5	0	n/a	n/a	n/a	n/a	n/a
3143.496	n/a	RECOG_TARGET	1571748	n/a	LTP107	ltpFR	6	1	-1	TEAPOT	1442	1	5	-1	n/a	n/a	n/a	n/a	n/a
3144.188	n/a	RECOG_RESP	1572094	n/a	LTP107	ltpFR	6	1	-1	TEAPOT	1442	1	n/a	-1	n/a	n/a	n/a	n/a	n/a
3145.23	n/a	RECOG_CONF	1572615	n/a	LTP107	ltpFR	6	1	-1	TEAPOT	1442	n/a	5	-1	n/a	n/a	n/a	n/a	n/a
3146.572	n/a	RECOG_TARGET	1573286	n/a	LTP107	ltpFR	6	1	-1	DRESS	495	1	5	-1	n/a	n/a	n/a	n/a	n/a
3147.176	n/a	RECOG_RESP	1573588	n/a	LTP107	ltpFR	6	1	-1	DRESS	495	1	n/a	-1	n/a	n/a	n/a	n/a	n/a
3148.254	n/a	RECOG_CONF	1574127	n/a	LTP107	ltpFR	6	1	-1	DRESS	495	n/a	5	-1	n/a	n/a	n/a	n/a	n/a
3149.654	n/a	RECOG_TARGET	1574827	n/a	LTP107	ltpFR	6	1	1	PIG	1064	1	5	1	n/a	n/a	n/a	n/a	n/a
3150.338	n/a	RECOG_RESP	1575169	n/a	LTP107	ltpFR	6	1	1	PIG	1064	1	n/a	1	n/a	n/a	n/a	n/a	n/a
3151.436	n/a	RECOG_CONF	1575718	n/a	LTP107	ltpFR	6	1	1	PIG	1064	n/a	5	1	n/a	n/a	n/a	n/a	n/a
3152.762	n/a	RECOG_TARGET	1576381	n/a	LTP107	ltpFR	6	1	0	PALM	1007	1	5	0	n/a	n/a	n/a	n/a	n/a
3153.392	n/a	RECOG_RESP	1576696	n/a	LTP107	ltpFR	6	1	0	PALM	1007	1	n/a	0	n/a	n/a	n/a	n/a	n/a
3154.48	n/a	RECOG_CONF	1577240	n/a	LTP107	ltpFR	6	1	0	PALM	1007	n/a	5	0	n/a	n/a	n/a	n/a	n/a
3155.914	n/a	RECOG_TARGET	1577957	n/a	LTP107	ltpFR	6	1	1	CHART	282	1	4	0	n/a	n/a	n/a	n/a	n/a
3156.83	n/a	RECOG_RESP	1578415	n/a	LTP107	ltpFR	6	1	1	CHART	282	1	n/a	0	n/a	n/a	n/a	n/a	n/a
3157.952	n/a	RECOG_CONF	1578976	n/a	LTP107	ltpFR	6	1	1	CHART	282	n/a	4	0	n/a	n/a	n/a	n/a	n/a
3159.312	n/a	RECOG_TARGET	1579656	n/a	LTP107	ltpFR	6	1	0	VEGETABLE	1552	1	5	0	n/a	n/a	n/a	n/a	n/a
3160.018	n/a	RECOG_RESP	1580009	n/a	LTP107	ltpFR	6	1	0	VEGETABLE	1552	1	n/a	0	n/a	n/a	n/a	n/a	n/a
3161.066	n/a	RECOG_CONF	1580533	n/a	LTP107	ltpFR	6	1	0	VEGETABLE	1552	n/a	5	0	n/a	n/a	n/a	n/a	n/a
3162.446	n/a	RECOG_LURE	1581223	n/a	LTP107	ltpFR	6	1	n/a	TRAITOR	1495	0	1	n/a	n/a	n/a	n/a	n/a	n/a
3163.564	n/a	RECOG_RESP	1581782	n/a	LTP107	ltpFR	6	1	n/a	TRAITOR	1495	0	n/a	n/a	n/a	n/a	n/a	n/a	n/a
3164.668	n/a	RECOG_CONF	1582334	n/a	LTP107	ltpFR	6	1	n/a	TRAITOR	1495	n/a	1	n/a	n/a	n/a	n/a	n/a	n/a
3166.086	n/a	RECOG_LURE	1583043	n/a	LTP107	ltpFR	6	1	n/a	LID	817	0	5	n/a	n/a	n/a	n/a	n/a	n/a
3166.872	n/a	RECOG_RESP	1583436	n/a	LTP107	ltpFR	6	1	n/a	LID	817	0	n/a	n/a	n/a	n/a	n/a	n/a	n/a
3167.89	n/a	RECOG_CONF	1583945	n/a	LTP107	ltpFR	6	1	n/a	LID	817	n/a	5	n/a	n/a	n/a	n/a	n/a	n/a
3169.252	n/a	RECOG_TARGET	1584626	n/a	LTP107	ltpFR	6	1	1	TART	1436	1	5	0	n/a	n/a	n/a	n/a	n/a
3169.946	n/a	RECOG_RESP	1584973	n/a	LTP107	ltpFR	6	1	1	TART	1436	1	n/a	0	n/a	n/a	n/a	n/a	n/a
3170.884	n/a	RECOG_CONF	1585442	n/a	LTP107	ltpFR	6	1	1	TART	1436	n/a	5	0	n/a	n/a	n/a	n/a	n/a
3172.42	n/a	RECOG_TARGET	1586210	n/a	LTP107	ltpFR	6	1	1	ASTRONAUT	51	1	5	1	n/a	n/a	n/a	n/a	n/a
3173.068	n/a	RECOG_RESP	1586534	n/a	LTP107	ltpFR	6	1	1	ASTRONAUT	51	1	n/a	1	n/a	n/a	n/a	n/a	n/a
3173.976	n/a	RECOG_CONF	1586988	n/a	LTP107	ltpFR	6	1	1	ASTRONAUT	51	n/a	5	1	n/a	n/a	n/a	n/a	n/a
3175.304	n/a	RECOG_TARGET	1587652	n/a	LTP107	ltpFR	6	1	1	RECORD	1176	1	5	0	n/a	n/a	n/a	n/a	n/a
3175.932	n/a	RECOG_RESP	1587966	n/a	LTP107	ltpFR	6	1	1	RECORD	1176	1	n/a	0	n/a	n/a	n/a	n/a	n/a
3176.83	n/a	RECOG_CONF	1588415	n/a	LTP107	ltpFR	6	1	1	RECORD	1176	n/a	5	0	n/a	n/a	n/a	n/a	n/a
3180.222	n/a	REC_START	1590111	n/a	LTP107	ltpFR	6	2	n/a	n/a	n/a	n/a	n/a	n/a	n/a	n/a	n/a	n/a	n/a
3180.262	n/a	RECOG_TARGET	1590131	n/a	LTP107	ltpFR	6	2	1	SPHINX	1349	1	5	1	n/a	n/a	n/a	n/a	n/a
3180.876	n/a	RECOG_RESP	1590438	n/a	LTP107	ltpFR	6	2	1	SPHINX	1349	1	n/a	1	n/a	n/a	n/a	n/a	n/a
3181.854	n/a	RECOG_CONF	1590927	n/a	LTP107	ltpFR	6	2	1	SPHINX	1349	n/a	5	1	n/a	n/a	n/a	n/a	n/a
3183.302	n/a	RECOG_TARGET	1591651	n/a	LTP107	ltpFR	6	2	-1	POCKET	1093	1	1	-1	n/a	n/a	n/a	n/a	n/a
3184.288	n/a	RECOG_RESP	1592144	n/a	LTP107	ltpFR	6	2	-1	POCKET	1093	1	n/a	-1	n/a	n/a	n/a	n/a	n/a
3185.456	n/a	RECOG_CONF	1592728	n/a	LTP107	ltpFR	6	2	-1	POCKET	1093	n/a	1	-1	n/a	n/a	n/a	n/a	n/a
3186.828	n/a	RECOG_TARGET	1593414	n/a	LTP107	ltpFR	6	2	1	REEF	1177	1	5	1	n/a	n/a	n/a	n/a	n/a
3187.49	n/a	RECOG_RESP	1593745	n/a	LTP107	ltpFR	6	2	1	REEF	1177	1	n/a	1	n/a	n/a	n/a	n/a	n/a
3188.468	n/a	RECOG_CONF	1594234	n/a	LTP107	ltpFR	6	2	1	REEF	1177	n/a	5	1	n/a	n/a	n/a	n/a	n/a
3189.87	n/a	RECOG_LURE	1594935	n/a	LTP107	ltpFR	6	2	n/a	PRINCESS	1125	0	4	n/a	n/a	n/a	n/a	n/a	n/a
3190.714	n/a	RECOG_RESP	1595357	n/a	LTP107	ltpFR	6	2	n/a	PRINCESS	1125	0	n/a	n/a	n/a	n/a	n/a	n/a	n/a
3191.772	n/a	RECOG_CONF	1595886	n/a	LTP107	ltpFR	6	2	n/a	PRINCESS	1125	n/a	4	n/a	n/a	n/a	n/a	n/a	n/a
3193.176	n/a	RECOG_TARGET	1596588	n/a	LTP107	ltpFR	6	2	0	BODY	145	1	5	1	n/a	n/a	n/a	n/a	n/a
3193.782	n/a	RECOG_RESP	1596891	n/a	LTP107	ltpFR	6	2	0	BODY	145	1	n/a	1	n/a	n/a	n/a	n/a	n/a
3194.716	n/a	RECOG_CONF	1597358	n/a	LTP107	ltpFR	6	2	0	BODY	145	n/a	5	1	n/a	n/a	n/a	n/a	n/a
3196.144	n/a	RECOG_TARGET	1598072	n/a	LTP107	ltpFR	6	2	-1	POLE	1097	1	5	-1	n/a	n/a	n/a	n/a	n/a
3196.86	n/a	RECOG_RESP	1598430	n/a	LTP107	ltpFR	6	2	-1	POLE	1097	1	n/a	-1	n/a	n/a	n/a	n/a	n/a
3197.778	n/a	RECOG_CONF	1598889	n/a	LTP107	ltpFR	6	2	-1	POLE	1097	n/a	5	-1	n/a	n/a	n/a	n/a	n/a
3199.144	n/a	RECOG_TARGET	1599572	n/a	LTP107	ltpFR	6	2	1	CAKE	219	1	5	0	n/a	n/a	n/a	n/a	n/a
3199.848	n/a	RECOG_RESP	1599924	n/a	LTP107	ltpFR	6	2	1	CAKE	219	1	n/a	0	n/a	n/a	n/a	n/a	n/a
3200.842	n/a	RECOG_CONF	1600421	n/a	LTP107	ltpFR	6	2	1	CAKE	219	n/a	5	0	n/a	n/a	n/a	n/a	n/a
3202.278	n/a	RECOG_TARGET	1601139	n/a	LTP107	ltpFR	6	2	-1	BELL	118	1	5	-1	n/a	n/a	n/a	n/a	n/a
3202.876	n/a	RECOG_RESP	1601438	n/a	LTP107	ltpFR	6	2	-1	BELL	118	1	n/a	-1	n/a	n/a	n/a	n/a	n/a
3203.864	n/a	RECOG_CONF	1601932	n/a	LTP107	ltpFR	6	2	-1	BELL	118	n/a	5	-1	n/a	n/a	n/a	n/a	n/a
3205.252	n/a	RECOG_TARGET	1602626	n/a	LTP107	ltpFR	6	2	-1	SACK	1220	1	5	-1	n/a	n/a	n/a	n/a	n/a
3205.87	n/a	RECOG_RESP	1602935	n/a	LTP107	ltpFR	6	2	-1	SACK	1220	1	n/a	-1	n/a	n/a	n/a	n/a	n/a
3206.888	n/a	RECOG_CONF	1603444	n/a	LTP107	ltpFR	6	2	-1	SACK	1220	n/a	5	-1	n/a	n/a	n/a	n/a	n/a
3208.326	n/a	RECOG_TARGET	1604163	n/a	LTP107	ltpFR	6	2	-1	ORCHID	982	1	5	-1	n/a	n/a	n/a	n/a	n/a
3208.962	n/a	RECOG_RESP	1604481	n/a	LTP107	ltpFR	6	2	-1	ORCHID	982	1	n/a	-1	n/a	n/a	n/a	n/a	n/a
3209.98	n/a	RECOG_CONF	1604990	n/a	LTP107	ltpFR	6	2	-1	ORCHID	982	n/a	5	-1	n/a	n/a	n/a	n/a	n/a
3211.452	n/a	RECOG_TARGET	1605726	n/a	LTP107	ltpFR	6	2	1	FOUNTAIN	597	1	5	0	n/a	n/a	n/a	n/a	n/a
3212.076	n/a	RECOG_RESP	1606038	n/a	LTP107	ltpFR	6	2	1	FOUNTAIN	597	1	n/a	0	n/a	n/a	n/a	n/a	n/a
3213.134	n/a	RECOG_CONF	1606567	n/a	LTP107	ltpFR	6	2	1	FOUNTAIN	597	n/a	5	0	n/a	n/a	n/a	n/a	n/a
3214.62	n/a	RECOG_TARGET	1607310	n/a	LTP107	ltpFR	6	2	1	FREEZER	604	1	4	0	n/a	n/a	n/a	n/a	n/a
3215.24	n/a	RECOG_RESP	1607620	n/a	LTP107	ltpFR	6	2	1	FREEZER	604	1	n/a	0	n/a	n/a	n/a	n/a	n/a
3216.446	n/a	RECOG_CONF	1608223	n/a	LTP107	ltpFR	6	2	1	FREEZER	604	n/a	4	0	n/a	n/a	n/a	n/a	n/a
3217.836	n/a	RECOG_TARGET	1608918	n/a	LTP107	ltpFR	6	2	1	LANDSCAPE	799	1	5	0	n/a	n/a	n/a	n/a	n/a
3218.472	n/a	RECOG_RESP	1609236	n/a	LTP107	ltpFR	6	2	1	LANDSCAPE	799	1	n/a	0	n/a	n/a	n/a	n/a	n/a
3219.49	n/a	RECOG_CONF	1609745	n/a	LTP107	ltpFR	6	2	1	LANDSCAPE	799	n/a	5	0	n/a	n/a	n/a	n/a	n/a
3220.928	n/a	RECOG_TARGET	1610464	n/a	LTP107	ltpFR	6	2	0	AUDIENCE	59	1	5	1	n/a	n/a	n/a	n/a	n/a
3221.57	n/a	RECOG_RESP	1610785	n/a	LTP107	ltpFR	6	2	0	AUDIENCE	59	1	n/a	1	n/a	n/a	n/a	n/a	n/a
3222.544	n/a	RECOG_CONF	1611272	n/a	LTP107	ltpFR	6	2	0	AUDIENCE	59	n/a	5	1	n/a	n/a	n/a	n/a	n/a
3223.97	n/a	RECOG_LURE	1611985	n/a	LTP107	ltpFR	6	2	n/a	ARTICLE	42	0	3	n/a	n/a	n/a	n/a	n/a	n/a
3224.868	n/a	RECOG_RESP	1612434	n/a	LTP107	ltpFR	6	2	n/a	ARTICLE	42	0	n/a	n/a	n/a	n/a	n/a	n/a	n/a
3225.866	n/a	RECOG_CONF	1612933	n/a	LTP107	ltpFR	6	2	n/a	ARTICLE	42	n/a	3	n/a	n/a	n/a	n/a	n/a	n/a
3227.36	n/a	RECOG_TARGET	1613680	n/a	LTP107	ltpFR	6	2	1	SANDWICH	1232	1	5	0	n/a	n/a	n/a	n/a	n/a
3228.36	n/a	RECOG_RESP	1614180	n/a	LTP107	ltpFR	6	2	1	SANDWICH	1232	1	n/a	0	n/a	n/a	n/a	n/a	n/a
3229.288	n/a	RECOG_CONF	1614644	n/a	LTP107	ltpFR	6	2	1	SANDWICH	1232	n/a	5	0	n/a	n/a	n/a	n/a	n/a
3230.802	n/a	RECOG_TARGET	1615401	n/a	LTP107	ltpFR	6	2	-1	TROUT	1511	1	4	-1	n/a	n/a	n/a	n/a	n/a
3231.462	n/a	RECOG_RESP	1615731	n/a	LTP107	ltpFR	6	2	-1	TROUT	1511	1	n/a	-1	n/a	n/a	n/a	n/a	n/a
3232.542	n/a	RECOG_CONF	1616271	n/a	LTP107	ltpFR	6	2	-1	TROUT	1511	n/a	4	-1	n/a	n/a	n/a	n/a	n/a
3233.92	n/a	RECOG_TARGET	1616960	n/a	LTP107	ltpFR	6	2	0	UNCLE	1536	1	5	1	n/a	n/a	n/a	n/a	n/a
3234.542	n/a	RECOG_RESP	1617271	n/a	LTP107	ltpFR	6	2	0	UNCLE	1536	1	n/a	1	n/a	n/a	n/a	n/a	n/a
3235.494	n/a	RECOG_CONF	1617747	n/a	LTP107	ltpFR	6	2	0	UNCLE	1536	n/a	5	1	n/a	n/a	n/a	n/a	n/a
3236.936	n/a	RECOG_LURE	1618468	n/a	LTP107	ltpFR	6	2	n/a	VELVET	1555	0	5	n/a	n/a	n/a	n/a	n/a	n/a
3237.71	n/a	RECOG_RESP	1618855	n/a	LTP107	ltpFR	6	2	n/a	VELVET	1555	0	n/a	n/a	n/a	n/a	n/a	n/a	n/a
3238.658	n/a	RECOG_CONF	1619329	n/a	LTP107	ltpFR	6	2	n/a	VELVET	1555	n/a	5	n/a	n/a	n/a	n/a	n/a	n/a
3240.202	n/a	RECOG_TARGET	1620101	n/a	LTP107	ltpFR	6	2	-1	TRANSPLANT	1496	1	5	-1	n/a	n/a	n/a	n/a	n/a
3240.968	n/a	RECOG_RESP	1620484	n/a	LTP107	ltpFR	6	2	-1	TRANSPLANT	1496	1	n/a	-1	n/a	n/a	n/a	n/a	n/a
3242.01	n/a	RECOG_CONF	1621005	n/a	LTP107	ltpFR	6	2	-1	TRANSPLANT	1496	n/a	5	-1	n/a	n/a	n/a	n/a	n/a
3245.326	n/a	REC_START	1622663	n/a	LTP107	ltpFR	6	3	n/a	n/a	n/a	n/a	n/a	n/a	n/a	n/a	n/a	n/a	n/a
3245.36	n/a	RECOG_TARGET	1622680	n/a	LTP107	ltpFR	6	3	-1	BANK	83	1	5	-1	n/a	n/a	n/a	n/a	n/a
3245.978	n/a	RECOG_RESP	1622989	n/a	LTP107	ltpFR	6	3	-1	BANK	83	1	n/a	-1	n/a	n/a	n/a	n/a	n/a
3246.876	n/a	RECOG_CONF	1623438	n/a	LTP107	ltpFR	6	3	-1	BANK	83	n/a	5	-1	n/a	n/a	n/a	n/a	n/a
3248.342	n/a	RECOG_TARGET	1624171	n/a	LTP107	ltpFR	6	3	0	BEET	115	1	5	0	n/a	n/a	n/a	n/a	n/a
3249.156	n/a	RECOG_RESP	1624578	n/a	LTP107	ltpFR	6	3	0	BEET	115	1	n/a	0	n/a	n/a	n/a	n/a	n/a
3250.07	n/a	RECOG_CONF	1625035	n/a	LTP107	ltpFR	6	3	0	BEET	115	n/a	5	0	n/a	n/a	n/a	n/a	n/a
3251.56	n/a	RECOG_LURE	1625780	n/a	LTP107	ltpFR	6	3	n/a	SOLDIER	1344	0	4	n/a	n/a	n/a	n/a	n/a	n/a
3252.276	n/a	RECOG_RESP	1626138	n/a	LTP107	ltpFR	6	3	n/a	SOLDIER	1344	0	n/a	n/a	n/a	n/a	n/a	n/a	n/a
3253.224	n/a	RECOG_CONF	1626612	n/a	LTP107	ltpFR	6	3	n/a	SOLDIER	1344	n/a	4	n/a	n/a	n/a	n/a	n/a	n/a
3254.686	n/a	RECOG_TARGET	1627343	n/a	LTP107	ltpFR	6	3	1	ANTELOPE	27	1	5	1	n/a	n/a	n/a	n/a	n/a
3255.318	n/a	RECOG_RESP	1627659	n/a	LTP107	ltpFR	6	3	1	ANTELOPE	27	1	n/a	1	n/a	n/a	n/a	n/a	n/a
3256.266	n/a	RECOG_CONF	1628133	n/a	LTP107	ltpFR	6	3	1	ANTELOPE	27	n/a	5	1	n/a	n/a	n/a	n/a	n/a
3257.776	n/a	RECOG_TARGET	1628888	n/a	LTP107	ltpFR	6	3	-1	VACUUM	1543	1	5	-1	n/a	n/a	n/a	n/a	n/a
3258.412	n/a	RECOG_RESP	1629206	n/a	LTP107	ltpFR	6	3	-1	VACUUM	1543	1	n/a	-1	n/a	n/a	n/a	n/a	n/a
3259.3	n/a	RECOG_CONF	1629650	n/a	LTP107	ltpFR	6	3	-1	VACUUM	1543	n/a	5	-1	n/a	n/a	n/a	n/a	n/a
3260.71	n/a	RECOG_TARGET	1630355	n/a	LTP107	ltpFR	6	3	1	FINGER	567	1	5	0	n/a	n/a	n/a	n/a	n/a
3261.354	n/a	RECOG_RESP	1630677	n/a	LTP107	ltpFR	6	3	1	FINGER	567	1	n/a	0	n/a	n/a	n/a	n/a	n/a
3262.272	n/a	RECOG_CONF	1631136	n/a	LTP107	ltpFR	6	3	1	FINGER	567	n/a	5	0	n/a	n/a	n/a	n/a	n/a
3263.76	n/a	RECOG_TARGET	1631880	n/a	LTP107	ltpFR	6	3	1	TENT	1449	1	5	0	n/a	n/a	n/a	n/a	n/a
3264.318	n/a	RECOG_RESP	1632159	n/a	LTP107	ltpFR	6	3	1	TENT	1449	1	n/a	0	n/a	n/a	n/a	n/a	n/a
3265.266	n/a	RECOG_CONF	1632633	n/a	LTP107	ltpFR	6	3	1	TENT	1449	n/a	5	0	n/a	n/a	n/a	n/a	n/a
3266.726	n/a	RECOG_TARGET	1633363	n/a	LTP107	ltpFR	6	3	0	GENTLEMAN	631	1	5	1	n/a	n/a	n/a	n/a	n/a
3267.392	n/a	RECOG_RESP	1633696	n/a	LTP107	ltpFR	6	3	0	GENTLEMAN	631	1	n/a	1	n/a	n/a	n/a	n/a	n/a
3268.408	n/a	RECOG_CONF	1634204	n/a	LTP107	ltpFR	6	3	0	GENTLEMAN	631	n/a	5	1	n/a	n/a	n/a	n/a	n/a
3269.76	n/a	RECOG_TARGET	1634880	n/a	LTP107	ltpFR	6	3	-1	BONE	148	1	5	-1	n/a	n/a	n/a	n/a	n/a
3270.28	n/a	RECOG_RESP	1635140	n/a	LTP107	ltpFR	6	3	-1	BONE	148	1	n/a	-1	n/a	n/a	n/a	n/a	n/a
3271.292	n/a	RECOG_CONF	1635646	n/a	LTP107	ltpFR	6	3	-1	BONE	148	n/a	5	-1	n/a	n/a	n/a	n/a	n/a
3272.71	n/a	RECOG_TARGET	1636355	n/a	LTP107	ltpFR	6	3	0	MICROSCOPE	891	1	5	1	n/a	n/a	n/a	n/a	n/a
3273.414	n/a	RECOG_RESP	1636707	n/a	LTP107	ltpFR	6	3	0	MICROSCOPE	891	1	n/a	1	n/a	n/a	n/a	n/a	n/a
3274.346	n/a	RECOG_CONF	1637173	n/a	LTP107	ltpFR	6	3	0	MICROSCOPE	891	n/a	5	1	n/a	n/a	n/a	n/a	n/a
3275.718	n/a	RECOG_LURE	1637859	n/a	LTP107	ltpFR	6	3	n/a	CALENDAR	221	0	4	n/a	n/a	n/a	n/a	n/a	n/a
3276.532	n/a	RECOG_RESP_VV	1638266	n/a	LTP107	ltpFR	6	3	n/a	CALENDAR	221	1	n/a	n/a	n/a	n/a	n/a	n/a	n/a
3277.618	n/a	RECOG_RESP	1638809	n/a	LTP107	ltpFR	6	3	n/a	CALENDAR	221	0	n/a	n/a	n/a	n/a	n/a	n/a	n/a
3278.916	n/a	RECOG_CONF	1639458	n/a	LTP107	ltpFR	6	3	n/a	CALENDAR	221	n/a	4	n/a	n/a	n/a	n/a	n/a	n/a
3280.434	n/a	RECOG_TARGET	1640217	n/a	LTP107	ltpFR	6	3	0	FLIPPER	580	1	3	0	n/a	n/a	n/a	n/a	n/a
3281.12	n/a	RECOG_RESP	1640560	n/a	LTP107	ltpFR	6	3	0	FLIPPER	580	1	n/a	0	n/a	n/a	n/a	n/a	n/a
3282.208	n/a	RECOG_CONF	1641104	n/a	LTP107	ltpFR	6	3	0	FLIPPER	580	n/a	3	0	n/a	n/a	n/a	n/a	n/a
3283.634	n/a	RECOG_TARGET	1641817	n/a	LTP107	ltpFR	6	3	1	ZOO	1637	1	5	0	n/a	n/a	n/a	n/a	n/a
3284.198	n/a	RECOG_RESP	1642099	n/a	LTP107	ltpFR	6	3	1	ZOO	1637	1	n/a	0	n/a	n/a	n/a	n/a	n/a
3285.202	n/a	RECOG_CONF	1642601	n/a	LTP107	ltpFR	6	3	1	ZOO	1637	n/a	5	0	n/a	n/a	n/a	n/a	n/a
3286.726	n/a	RECOG_TARGET	1643363	n/a	LTP107	ltpFR	6	3	-1	PEARL	1034	1	5	-1	n/a	n/a	n/a	n/a	n/a
3287.346	n/a	RECOG_RESP	1643673	n/a	LTP107	ltpFR	6	3	-1	PEARL	1034	1	n/a	-1	n/a	n/a	n/a	n/a	n/a
3288.334	n/a	RECOG_CONF	1644167	n/a	LTP107	ltpFR	6	3	-1	PEARL	1034	n/a	5	-1	n/a	n/a	n/a	n/a	n/a
3289.734	n/a	RECOG_TARGET	1644867	n/a	LTP107	ltpFR	6	3	1	JUPITER	765	1	5	0	n/a	n/a	n/a	n/a	n/a
3290.34	n/a	RECOG_RESP	1645170	n/a	LTP107	ltpFR	6	3	1	JUPITER	765	1	n/a	0	n/a	n/a	n/a	n/a	n/a
3291.328	n/a	RECOG_CONF	1645664	n/a	LTP107	ltpFR	6	3	1	JUPITER	765	n/a	5	0	n/a	n/a	n/a	n/a	n/a
3292.792	n/a	RECOG_TARGET	1646396	n/a	LTP107	ltpFR	6	3	1	CUCUMBER	421	1	1	0	n/a	n/a	n/a	n/a	n/a
3293.544	n/a	RECOG_RESP	1646772	n/a	LTP107	ltpFR	6	3	1	CUCUMBER	421	1	n/a	0	n/a	n/a	n/a	n/a	n/a
3294.702	n/a	RECOG_CONF	1647351	n/a	LTP107	ltpFR	6	3	1	CUCUMBER	421	n/a	1	0	n/a	n/a	n/a	n/a	n/a
3296.274	n/a	RECOG_LURE	1648137	n/a	LTP107	ltpFR	6	3	n/a	CORN	381	0	4	n/a	n/a	n/a	n/a	n/a	n/a
3297.036	n/a	RECOG_RESP	1648518	n/a	LTP107	ltpFR	6	3	n/a	CORN	381	0	n/a	n/a	n/a	n/a	n/a	n/a	n/a
3298.034	n/a	RECOG_CONF	1649017	n/a	LTP107	ltpFR	6	3	n/a	CORN	381	n/a	4	n/a	n/a	n/a	n/a	n/a	n/a
3299.4	n/a	RECOG_TARGET	1649700	n/a	LTP107	ltpFR	6	3	1	YACHT	1629	1	5	0	n/a	n/a	n/a	n/a	n/a
3300.038	n/a	RECOG_RESP	1650019	n/a	LTP107	ltpFR	6	3	1	YACHT	1629	1	n/a	0	n/a	n/a	n/a	n/a	n/a
3300.956	n/a	RECOG_CONF	1650478	n/a	LTP107	ltpFR	6	3	1	YACHT	1629	n/a	5	0	n/a	n/a	n/a	n/a	n/a
3302.392	n/a	RECOG_TARGET	1651196	n/a	LTP107	ltpFR	6	3	1	MICROPHONE	890	0	2	0	n/a	n/a	n/a	n/a	n/a
3303.366	n/a	RECOG_RESP	1651683	n/a	LTP107	ltpFR	6	3	1	MICROPHONE	890	0	n/a	0	n/a	n/a	n/a	n/a	n/a
3305.606	n/a	RECOG_CONF	1652803	n/a	LTP107	ltpFR	6	3	1	MICROPHONE	890	n/a	2	0	n/a	n/a	n/a	n/a	n/a
3306.958	n/a	RECOG_TARGET	1653479	n/a	LTP107	ltpFR	6	3	1	FOOTBALL	591	1	5	0	n/a	n/a	n/a	n/a	n/a
3307.602	n/a	RECOG_RESP	1653801	n/a	LTP107	ltpFR	6	3	1	FOOTBALL	591	1	n/a	0	n/a	n/a	n/a	n/a	n/a
3308.5	n/a	RECOG_CONF	1654250	n/a	LTP107	ltpFR	6	3	1	FOOTBALL	591	n/a	5	0	n/a	n/a	n/a	n/a	n/a
3311.928	n/a	REC_START	1655964	n/a	LTP107	ltpFR	6	4	n/a	n/a	n/a	n/a	n/a	n/a	n/a	n/a	n/a	n/a	n/a
3311.958	n/a	RECOG_TARGET	1655979	n/a	LTP107	ltpFR	6	4	0	COOK	372	1	4	1	n/a	n/a	n/a	n/a	n/a
3312.566	n/a	RECOG_RESP	1656283	n/a	LTP107	ltpFR	6	4	0	COOK	372	1	n/a	1	n/a	n/a	n/a	n/a	n/a
3313.62	n/a	RECOG_CONF	1656810	n/a	LTP107	ltpFR	6	4	0	COOK	372	n/a	4	1	n/a	n/a	n/a	n/a	n/a
3314.926	n/a	RECOG_TARGET	1657463	n/a	LTP107	ltpFR	6	4	0	BELLY	119	1	5	1	n/a	n/a	n/a	n/a	n/a
3315.55	n/a	RECOG_RESP	1657775	n/a	LTP107	ltpFR	6	4	0	BELLY	119	1	n/a	1	n/a	n/a	n/a	n/a	n/a
3316.414	n/a	RECOG_CONF	1658207	n/a	LTP107	ltpFR	6	4	0	BELLY	119	n/a	5	1	n/a	n/a	n/a	n/a	n/a
3317.708	n/a	RECOG_TARGET	1658854	n/a	LTP107	ltpFR	6	4	1	PORCUPINE	1107	1	5	1	n/a	n/a	n/a	n/a	n/a
3318.264	n/a	RECOG_RESP	1659132	n/a	LTP107	ltpFR	6	4	1	PORCUPINE	1107	1	n/a	1	n/a	n/a	n/a	n/a	n/a
3319.108	n/a	RECOG_CONF	1659554	n/a	LTP107	ltpFR	6	4	1	PORCUPINE	1107	n/a	5	1	n/a	n/a	n/a	n/a	n/a
3320.474	n/a	RECOG_TARGET	1660237	n/a	LTP107	ltpFR	6	4	0	WASHER	1592	1	5	1	n/a	n/a	n/a	n/a	n/a
3321.232	n/a	RECOG_RESP	1660616	n/a	LTP107	ltpFR	6	4	0	WASHER	1592	1	n/a	1	n/a	n/a	n/a	n/a	n/a
3322.2	n/a	RECOG_CONF	1661100	n/a	LTP107	ltpFR	6	4	0	WASHER	1592	n/a	5	1	n/a	n/a	n/a	n/a	n/a
3323.466	n/a	RECOG_TARGET	1661733	n/a	LTP107	ltpFR	6	4	0	PREDATOR	1120	1	5	1	n/a	n/a	n/a	n/a	n/a
3324.066	n/a	RECOG_RESP	1662033	n/a	LTP107	ltpFR	6	4	0	PREDATOR	1120	1	n/a	1	n/a	n/a	n/a	n/a	n/a
3324.984	n/a	RECOG_CONF	1662492	n/a	LTP107	ltpFR	6	4	0	PREDATOR	1120	n/a	5	1	n/a	n/a	n/a	n/a	n/a
3326.34	n/a	RECOG_TARGET	1663170	n/a	LTP107	ltpFR	6	4	-1	DANDRUFF	439	1	5	-1	n/a	n/a	n/a	n/a	n/a
3327.02	n/a	RECOG_RESP	1663510	n/a	LTP107	ltpFR	6	4	-1	DANDRUFF	439	1	n/a	-1	n/a	n/a	n/a	n/a	n/a
3328.006	n/a	RECOG_CONF	1664003	n/a	LTP107	ltpFR	6	4	-1	DANDRUFF	439	n/a	5	-1	n/a	n/a	n/a	n/a	n/a
3329.364	n/a	RECOG_TARGET	1664682	n/a	LTP107	ltpFR	6	4	0	SENATE	1267	1	5	1	n/a	n/a	n/a	n/a	n/a
3330.028	n/a	RECOG_RESP	1665014	n/a	LTP107	ltpFR	6	4	0	SENATE	1267	1	n/a	1	n/a	n/a	n/a	n/a	n/a
3330.952	n/a	RECOG_CONF	1665476	n/a	LTP107	ltpFR	6	4	0	SENATE	1267	n/a	5	1	n/a	n/a	n/a	n/a	n/a
3332.382	n/a	RECOG_TARGET	1666191	n/a	LTP107	ltpFR	6	4	1	PATIENT	1024	0	1	1	n/a	n/a	n/a	n/a	n/a
3333.246	n/a	RECOG_RESP	1666623	n/a	LTP107	ltpFR	6	4	1	PATIENT	1024	0	n/a	1	n/a	n/a	n/a	n/a	n/a
3334.244	n/a	RECOG_CONF	1667122	n/a	LTP107	ltpFR	6	4	1	PATIENT	1024	n/a	1	1	n/a	n/a	n/a	n/a	n/a
3335.634	n/a	RECOG_TARGET	1667817	n/a	LTP107	ltpFR	6	4	1	PLANET	1082	1	5	1	n/a	n/a	n/a	n/a	n/a
3336.24	n/a	RECOG_RESP	1668120	n/a	LTP107	ltpFR	6	4	1	PLANET	1082	1	n/a	1	n/a	n/a	n/a	n/a	n/a
3337.118	n/a	RECOG_CONF	1668559	n/a	LTP107	ltpFR	6	4	1	PLANET	1082	n/a	5	1	n/a	n/a	n/a	n/a	n/a
3338.516	n/a	RECOG_TARGET	1669258	n/a	LTP107	ltpFR	6	4	0	DIME	466	1	5	0	n/a	n/a	n/a	n/a	n/a
3339.042	n/a	RECOG_RESP	1669521	n/a	LTP107	ltpFR	6	4	0	DIME	466	1	n/a	0	n/a	n/a	n/a	n/a	n/a
3339.98	n/a	RECOG_CONF	1669990	n/a	LTP107	ltpFR	6	4	0	DIME	466	n/a	5	0	n/a	n/a	n/a	n/a	n/a
3341.232	n/a	RECOG_TARGET	1670616	n/a	LTP107	ltpFR	6	4	-1	CARPENTER	246	1	5	-1	n/a	n/a	n/a	n/a	n/a
3341.836	n/a	RECOG_RESP	1670918	n/a	LTP107	ltpFR	6	4	-1	CARPENTER	246	1	n/a	-1	n/a	n/a	n/a	n/a	n/a
3342.694	n/a	RECOG_CONF	1671347	n/a	LTP107	ltpFR	6	4	-1	CARPENTER	246	n/a	5	-1	n/a	n/a	n/a	n/a	n/a
3344.148	n/a	RECOG_TARGET	1672074	n/a	LTP107	ltpFR	6	4	1	TORTOISE	1486	1	5	1	n/a	n/a	n/a	n/a	n/a
3344.744	n/a	RECOG_RESP	1672372	n/a	LTP107	ltpFR	6	4	1	TORTOISE	1486	1	n/a	1	n/a	n/a	n/a	n/a	n/a
3346.006	n/a	RECOG_CONF	1673003	n/a	LTP107	ltpFR	6	4	1	TORTOISE	1486	n/a	5	1	n/a	n/a	n/a	n/a	n/a
3347.44	n/a	RECOG_TARGET	1673720	n/a	LTP107	ltpFR	6	4	0	DAISY	435	1	3	0	n/a	n/a	n/a	n/a	n/a
3348.192	n/a	RECOG_RESP	1674096	n/a	LTP107	ltpFR	6	4	0	DAISY	435	1	n/a	0	n/a	n/a	n/a	n/a	n/a
3349.31	n/a	RECOG_CONF	1674655	n/a	LTP107	ltpFR	6	4	0	DAISY	435	n/a	3	0	n/a	n/a	n/a	n/a	n/a
3350.742	n/a	RECOG_TARGET	1675371	n/a	LTP107	ltpFR	6	4	1	STEW	1380	1	4	0	n/a	n/a	n/a	n/a	n/a
3351.456	n/a	RECOG_RESP	1675728	n/a	LTP107	ltpFR	6	4	1	STEW	1380	1	n/a	0	n/a	n/a	n/a	n/a	n/a
3353.052	n/a	RECOG_CONF	1676526	n/a	LTP107	ltpFR	6	4	1	STEW	1380	n/a	4	0	n/a	n/a	n/a	n/a	n/a
3354.374	n/a	RECOG_TARGET	1677187	n/a	LTP107	ltpFR	6	4	1	SCOTCH	1251	1	5	0	n/a	n/a	n/a	n/a	n/a
3354.828	n/a	RECOG_RESP	1677414	n/a	LTP107	ltpFR	6	4	1	SCOTCH	1251	1	n/a	0	n/a	n/a	n/a	n/a	n/a
3355.816	n/a	RECOG_CONF	1677908	n/a	LTP107	ltpFR	6	4	1	SCOTCH	1251	n/a	5	0	n/a	n/a	n/a	n/a	n/a
3357.14	n/a	RECOG_TARGET	1678570	n/a	LTP107	ltpFR	6	4	-1	BUN	197	1	5	-1	n/a	n/a	n/a	n/a	n/a
3357.742	n/a	RECOG_RESP	1678871	n/a	LTP107	ltpFR	6	4	-1	BUN	197	1	n/a	-1	n/a	n/a	n/a	n/a	n/a
3358.71	n/a	RECOG_CONF	1679355	n/a	LTP107	ltpFR	6	4	-1	BUN	197	n/a	5	-1	n/a	n/a	n/a	n/a	n/a
3360.148	n/a	RECOG_TARGET	1680074	n/a	LTP107	ltpFR	6	4	0	BATHROOM	99	0	4	0	n/a	n/a	n/a	n/a	n/a
3361.004	n/a	RECOG_RESP	1680502	n/a	LTP107	ltpFR	6	4	0	BATHROOM	99	0	n/a	0	n/a	n/a	n/a	n/a	n/a
3361.942	n/a	RECOG_CONF	1680971	n/a	LTP107	ltpFR	6	4	0	BATHROOM	99	n/a	4	0	n/a	n/a	n/a	n/a	n/a
3363.322	n/a	RECOG_LURE	1681661	n/a	LTP107	ltpFR	6	4	n/a	MOTORCYCLE	923	0	5	n/a	n/a	n/a	n/a	n/a	n/a
3363.902	n/a	RECOG_RESP_VV	1681951	n/a	LTP107	ltpFR	6	4	n/a	MOTORCYCLE	923	1	n/a	n/a	n/a	n/a	n/a	n/a	n/a
3364.786	n/a	RECOG_RESP	1682393	n/a	LTP107	ltpFR	6	4	n/a	MOTORCYCLE	923	0	n/a	n/a	n/a	n/a	n/a	n/a	n/a
3366.092	n/a	RECOG_CONF	1683046	n/a	LTP107	ltpFR	6	4	n/a	MOTORCYCLE	923	n/a	5	n/a	n/a	n/a	n/a	n/a	n/a
3367.598	n/a	RECOG_LURE	1683799	n/a	LTP107	ltpFR	6	4	n/a	PASTRY	1022	0	3	n/a	n/a	n/a	n/a	n/a	n/a
3369.042	n/a	RECOG_RESP	1684521	n/a	LTP107	ltpFR	6	4	n/a	PASTRY	1022	0	n/a	n/a	n/a	n/a	n/a	n/a	n/a
3370.054	n/a	RECOG_CONF	1685027	n/a	LTP107	ltpFR	6	4	n/a	PASTRY	1022	n/a	3	n/a	n/a	n/a	n/a	n/a	n/a
3371.49	n/a	RECOG_LURE	1685745	n/a	LTP107	ltpFR	6	4	n/a	DOLPHIN	483	0	4	n/a	n/a	n/a	n/a	n/a	n/a
3372.204	n/a	RECOG_RESP	1686102	n/a	LTP107	ltpFR	6	4	n/a	DOLPHIN	483	0	n/a	n/a	n/a	n/a	n/a	n/a	n/a
3373.446	n/a	RECOG_CONF	1686723	n/a	LTP107	ltpFR	6	4	n/a	DOLPHIN	483	n/a	4	n/a	n/a	n/a	n/a	n/a	n/a
3376.492	n/a	REC_START	1688246	n/a	LTP107	ltpFR	6	5	n/a	n/a	n/a	n/a	n/a	n/a	n/a	n/a	n/a	n/a	n/a
3376.524	n/a	RECOG_TARGET	1688262	n/a	LTP107	ltpFR	6	5	0	DUCK	504	1	5	0	n/a	n/a	n/a	n/a	n/a
3377.26	n/a	RECOG_RESP	1688630	n/a	LTP107	ltpFR	6	5	0	DUCK	504	1	n/a	0	n/a	n/a	n/a	n/a	n/a
3378.142	n/a	RECOG_CONF	1689071	n/a	LTP107	ltpFR	6	5	0	DUCK	504	n/a	5	0	n/a	n/a	n/a	n/a	n/a
3379.532	n/a	RECOG_TARGET	1689766	n/a	LTP107	ltpFR	6	5	0	TOWER	1490	1	5	1	n/a	n/a	n/a	n/a	n/a
3380.098	n/a	RECOG_RESP	1690049	n/a	LTP107	ltpFR	6	5	0	TOWER	1490	1	n/a	1	n/a	n/a	n/a	n/a	n/a
3380.996	n/a	RECOG_CONF	1690498	n/a	LTP107	ltpFR	6	5	0	TOWER	1490	n/a	5	1	n/a	n/a	n/a	n/a	n/a
3382.314	n/a	RECOG_TARGET	1691157	n/a	LTP107	ltpFR	6	5	0	COB	334	0	4	0	n/a	n/a	n/a	n/a	n/a
3383.082	n/a	RECOG_RESP	1691541	n/a	LTP107	ltpFR	6	5	0	COB	334	0	n/a	0	n/a	n/a	n/a	n/a	n/a
3384.388	n/a	RECOG_CONF	1692194	n/a	LTP107	ltpFR	6	5	0	COB	334	n/a	4	0	n/a	n/a	n/a	n/a	n/a
3385.706	n/a	RECOG_TARGET	1692853	n/a	LTP107	ltpFR	6	5	0	CRIMINAL	409	0	3	1	n/a	n/a	n/a	n/a	n/a
3386.364	n/a	RECOG_RESP_VV	1693182	n/a	LTP107	ltpFR	6	5	0	CRIMINAL	409	1	n/a	1	n/a	n/a	n/a	n/a	n/a
3387.142	n/a	RECOG_RESP	1693571	n/a	LTP107	ltpFR	6	5	0	CRIMINAL	409	0	n/a	1	n/a	n/a	n/a	n/a	n/a
3388.16	n/a	RECOG_CONF	1694080	n/a	LTP107	ltpFR	6	5	0	CRIMINAL	409	n/a	3	1	n/a	n/a	n/a	n/a	n/a
3389.474	n/a	RECOG_LURE	1694737	n/a	LTP107	ltpFR	6	5	n/a	RACK	1154	0	4	n/a	n/a	n/a	n/a	n/a	n/a
3390.476	n/a	RECOG_RESP	1695238	n/a	LTP107	ltpFR	6	5	n/a	RACK	1154	0	n/a	n/a	n/a	n/a	n/a	n/a	n/a
3391.394	n/a	RECOG_CONF	1695697	n/a	LTP107	ltpFR	6	5	n/a	RACK	1154	n/a	4	n/a	n/a	n/a	n/a	n/a	n/a
3392.632	n/a	RECOG_LURE	1696316	n/a	LTP107	ltpFR	6	5	n/a	CRYSTAL	418	0	4	n/a	n/a	n/a	n/a	n/a	n/a
3393.618	n/a	RECOG_RESP	1696809	n/a	LTP107	ltpFR	6	5	n/a	CRYSTAL	418	0	n/a	n/a	n/a	n/a	n/a	n/a	n/a
3394.546	n/a	RECOG_CONF	1697273	n/a	LTP107	ltpFR	6	5	n/a	CRYSTAL	418	n/a	4	n/a	n/a	n/a	n/a	n/a	n/a
3395.832	n/a	RECOG_TARGET	1697916	n/a	LTP107	ltpFR	6	5	0	TREAD	1499	1	5	1	n/a	n/a	n/a	n/a	n/a
3396.502	n/a	RECOG_RESP	1698251	n/a	LTP107	ltpFR	6	5	0	TREAD	1499	1	n/a	1	n/a	n/a	n/a	n/a	n/a
3397.29	n/a	RECOG_CONF	1698645	n/a	LTP107	ltpFR	6	5	0	TREAD	1499	n/a	5	1	n/a	n/a	n/a	n/a	n/a
3398.772	n/a	RECOG_TARGET	1699386	n/a	LTP107	ltpFR	6	5	0	TREAT	1501	1	5	0	n/a	n/a	n/a	n/a	n/a
3399.544	n/a	RECOG_RESP	1699772	n/a	LTP107	ltpFR	6	5	0	TREAT	1501	1	n/a	0	n/a	n/a	n/a	n/a	n/a
3400.314	n/a	RECOG_CONF	1700157	n/a	LTP107	ltpFR	6	5	0	TREAT	1501	n/a	5	0	n/a	n/a	n/a	n/a	n/a
3401.698	n/a	RECOG_TARGET	1700849	n/a	LTP107	ltpFR	6	5	0	CHOCOLATE	306	1	5	0	n/a	n/a	n/a	n/a	n/a
3402.278	n/a	RECOG_RESP	1701139	n/a	LTP107	ltpFR	6	5	0	CHOCOLATE	306	1	n/a	0	n/a	n/a	n/a	n/a	n/a
3403.076	n/a	RECOG_CONF	1701538	n/a	LTP107	ltpFR	6	5	0	CHOCOLATE	306	n/a	5	0	n/a	n/a	n/a	n/a	n/a
3404.488	n/a	RECOG_LURE	1702244	n/a	LTP107	ltpFR	6	5	n/a	SIBLING	1301	0	3	n/a	n/a	n/a	n/a	n/a	n/a
3405.482	n/a	RECOG_RESP	1702741	n/a	LTP107	ltpFR	6	5	n/a	SIBLING	1301	0	n/a	n/a	n/a	n/a	n/a	n/a	n/a
3406.44	n/a	RECOG_CONF	1703220	n/a	LTP107	ltpFR	6	5	n/a	SIBLING	1301	n/a	3	n/a	n/a	n/a	n/a	n/a	n/a
3407.748	n/a	RECOG_TARGET	1703874	n/a	LTP107	ltpFR	6	5	1	CREW	406	1	5	1	n/a	n/a	n/a	n/a	n/a
3408.466	n/a	RECOG_RESP	1704233	n/a	LTP107	ltpFR	6	5	1	CREW	406	1	n/a	1	n/a	n/a	n/a	n/a	n/a
3409.304	n/a	RECOG_CONF	1704652	n/a	LTP107	ltpFR	6	5	1	CREW	406	n/a	5	1	n/a	n/a	n/a	n/a	n/a
3410.764	n/a	RECOG_TARGET	1705382	n/a	LTP107	ltpFR	6	5	-1	WAGON	1578	1	4	-1	n/a	n/a	n/a	n/a	n/a
3411.38	n/a	RECOG_RESP	1705690	n/a	LTP107	ltpFR	6	5	-1	WAGON	1578	1	n/a	-1	n/a	n/a	n/a	n/a	n/a
3412.296	n/a	RECOG_CONF	1706148	n/a	LTP107	ltpFR	6	5	-1	WAGON	1578	n/a	4	-1	n/a	n/a	n/a	n/a	n/a
3413.706	n/a	RECOG_TARGET	1706853	n/a	LTP107	ltpFR	6	5	0	VAULT	1550	1	5	1	n/a	n/a	n/a	n/a	n/a
3414.302	n/a	RECOG_RESP	1707151	n/a	LTP107	ltpFR	6	5	0	VAULT	1550	1	n/a	1	n/a	n/a	n/a	n/a	n/a
3415.21	n/a	RECOG_CONF	1707605	n/a	LTP107	ltpFR	6	5	0	VAULT	1550	n/a	5	1	n/a	n/a	n/a	n/a	n/a
3416.59	n/a	RECOG_LURE	1708295	n/a	LTP107	ltpFR	6	5	n/a	CASH	252	0	4	n/a	n/a	n/a	n/a	n/a	n/a
3417.146	n/a	RECOG_RESP_VV	1708573	n/a	LTP107	ltpFR	6	5	n/a	CASH	252	1	n/a	n/a	n/a	n/a	n/a	n/a	n/a
3418.074	n/a	RECOG_RESP	1709037	n/a	LTP107	ltpFR	6	5	n/a	CASH	252	0	n/a	n/a	n/a	n/a	n/a	n/a	n/a
3419.132	n/a	RECOG_CONF	1709566	n/a	LTP107	ltpFR	6	5	n/a	CASH	252	n/a	4	n/a	n/a	n/a	n/a	n/a	n/a
3420.498	n/a	RECOG_TARGET	1710249	n/a	LTP107	ltpFR	6	5	-1	EUROPE	541	1	5	-1	n/a	n/a	n/a	n/a	n/a
3421.236	n/a	RECOG_RESP	1710618	n/a	LTP107	ltpFR	6	5	-1	EUROPE	541	1	n/a	-1	n/a	n/a	n/a	n/a	n/a
3422.124	n/a	RECOG_CONF	1711062	n/a	LTP107	ltpFR	6	5	-1	EUROPE	541	n/a	5	-1	n/a	n/a	n/a	n/a	n/a
3423.412	n/a	RECOG_TARGET	1711706	n/a	LTP107	ltpFR	6	5	1	LAMB	797	1	5	1	n/a	n/a	n/a	n/a	n/a
3424.04	n/a	RECOG_RESP	1712020	n/a	LTP107	ltpFR	6	5	1	LAMB	797	1	n/a	1	n/a	n/a	n/a	n/a	n/a
3424.998	n/a	RECOG_CONF	1712499	n/a	LTP107	ltpFR	6	5	1	LAMB	797	n/a	5	1	n/a	n/a	n/a	n/a	n/a
3426.37	n/a	RECOG_TARGET	1713185	n/a	LTP107	ltpFR	6	5	0	SHRIMP	1297	1	5	0	n/a	n/a	n/a	n/a	n/a
3427.034	n/a	RECOG_RESP	1713517	n/a	LTP107	ltpFR	6	5	0	SHRIMP	1297	1	n/a	0	n/a	n/a	n/a	n/a	n/a
3428.002	n/a	RECOG_CONF	1714001	n/a	LTP107	ltpFR	6	5	0	SHRIMP	1297	n/a	5	0	n/a	n/a	n/a	n/a	n/a
3429.388	n/a	RECOG_LURE	1714694	n/a	LTP107	ltpFR	6	5	n/a	BROCCOLI	176	0	5	n/a	n/a	n/a	n/a	n/a	n/a
3430.128	n/a	RECOG_RESP	1715064	n/a	LTP107	ltpFR	6	5	n/a	BROCCOLI	176	0	n/a	n/a	n/a	n/a	n/a	n/a	n/a
3431.036	n/a	RECOG_CONF	1715518	n/a	LTP107	ltpFR	6	5	n/a	BROCCOLI	176	n/a	5	n/a	n/a	n/a	n/a	n/a	n/a
3432.388	n/a	RECOG_LURE	1716194	n/a	LTP107	ltpFR	6	5	n/a	STAKE	1368	0	5	n/a	n/a	n/a	n/a	n/a	n/a
3433.16	n/a	RECOG_RESP	1716580	n/a	LTP107	ltpFR	6	5	n/a	STAKE	1368	0	n/a	n/a	n/a	n/a	n/a	n/a	n/a
3434.048	n/a	RECOG_CONF	1717024	n/a	LTP107	ltpFR	6	5	n/a	STAKE	1368	n/a	5	n/a	n/a	n/a	n/a	n/a	n/a
3435.522	n/a	RECOG_TARGET	1717761	n/a	LTP107	ltpFR	6	5	1	KLEENEX	782	1	5	0	n/a	n/a	n/a	n/a	n/a
3436.194	n/a	RECOG_RESP	1718097	n/a	LTP107	ltpFR	6	5	1	KLEENEX	782	1	n/a	0	n/a	n/a	n/a	n/a	n/a
3437.142	n/a	RECOG_CONF	1718571	n/a	LTP107	ltpFR	6	5	1	KLEENEX	782	n/a	5	0	n/a	n/a	n/a	n/a	n/a
3440.836	n/a	REC_START	1720418	n/a	LTP107	ltpFR	6	6	n/a	n/a	n/a	n/a	n/a	n/a	n/a	n/a	n/a	n/a	n/a
3440.872	n/a	RECOG_LURE	1720436	n/a	LTP107	ltpFR	6	6	n/a	EMPIRE	530	1	2	n/a	n/a	n/a	n/a	n/a	n/a
3441.948	n/a	RECOG_RESP	1720974	n/a	LTP107	ltpFR	6	6	n/a	EMPIRE	530	1	n/a	n/a	n/a	n/a	n/a	n/a	n/a
3443.296	n/a	RECOG_CONF	1721648	n/a	LTP107	ltpFR	6	6	n/a	EMPIRE	530	n/a	2	n/a	n/a	n/a	n/a	n/a	n/a
3444.612	n/a	RECOG_LURE	1722306	n/a	LTP107	ltpFR	6	6	n/a	CASKET	255	0	5	n/a	n/a	n/a	n/a	n/a	n/a
3445.39	n/a	RECOG_RESP	1722695	n/a	LTP107	ltpFR	6	6	n/a	CASKET	255	0	n/a	n/a	n/a	n/a	n/a	n/a	n/a
3446.378	n/a	RECOG_CONF	1723189	n/a	LTP107	ltpFR	6	6	n/a	CASKET	255	n/a	5	n/a	n/a	n/a	n/a	n/a	n/a
3447.722	n/a	RECOG_TARGET	1723861	n/a	LTP107	ltpFR	6	6	0	SCREW	1254	1	5	0	n/a	n/a	n/a	n/a	n/a
3448.376	n/a	RECOG_RESP	1724188	n/a	LTP107	ltpFR	6	6	0	SCREW	1254	1	n/a	0	n/a	n/a	n/a	n/a	n/a
3449.314	n/a	RECOG_CONF	1724657	n/a	LTP107	ltpFR	6	6	0	SCREW	1254	n/a	5	0	n/a	n/a	n/a	n/a	n/a
3450.722	n/a	RECOG_TARGET	1725361	n/a	LTP107	ltpFR	6	6	-1	BUTTER	205	1	5	-1	n/a	n/a	n/a	n/a	n/a
3451.328	n/a	RECOG_RESP	1725664	n/a	LTP107	ltpFR	6	6	-1	BUTTER	205	1	n/a	-1	n/a	n/a	n/a	n/a	n/a
3452.246	n/a	RECOG_CONF	1726123	n/a	LTP107	ltpFR	6	6	-1	BUTTER	205	n/a	5	-1	n/a	n/a	n/a	n/a	n/a
3453.604	n/a	RECOG_TARGET	1726802	n/a	LTP107	ltpFR	6	6	0	MUG	930	1	5	0	n/a	n/a	n/a	n/a	n/a
3454.342	n/a	RECOG_RESP_VV	1727171	n/a	LTP107	ltpFR	6	6	0	MUG	930	0	n/a	0	n/a	n/a	n/a	n/a	n/a
3455.244	n/a	RECOG_RESP	1727622	n/a	LTP107	ltpFR	6	6	0	MUG	930	1	n/a	0	n/a	n/a	n/a	n/a	n/a
3456.348	n/a	RECOG_CONF	1728174	n/a	LTP107	ltpFR	6	6	0	MUG	930	n/a	5	0	n/a	n/a	n/a	n/a	n/a
3457.804	n/a	RECOG_TARGET	1728902	n/a	LTP107	ltpFR	6	6	-1	OCEAN	970	1	5	-1	n/a	n/a	n/a	n/a	n/a
3458.412	n/a	RECOG_RESP	1729206	n/a	LTP107	ltpFR	6	6	-1	OCEAN	970	1	n/a	-1	n/a	n/a	n/a	n/a	n/a
3459.34	n/a	RECOG_CONF	1729670	n/a	LTP107	ltpFR	6	6	-1	OCEAN	970	n/a	5	-1	n/a	n/a	n/a	n/a	n/a
3460.68	n/a	RECOG_TARGET	1730340	n/a	LTP107	ltpFR	6	6	-1	RAIL	1161	1	5	-1	n/a	n/a	n/a	n/a	n/a
3461.356	n/a	RECOG_RESP	1730678	n/a	LTP107	ltpFR	6	6	-1	RAIL	1161	1	n/a	-1	n/a	n/a	n/a	n/a	n/a
3462.254	n/a	RECOG_CONF	1731127	n/a	LTP107	ltpFR	6	6	-1	RAIL	1161	n/a	5	-1	n/a	n/a	n/a	n/a	n/a
3463.612	n/a	RECOG_TARGET	1731806	n/a	LTP107	ltpFR	6	6	1	DAM	436	1	1	0	n/a	n/a	n/a	n/a	n/a
3464.318	n/a	RECOG_RESP	1732159	n/a	LTP107	ltpFR	6	6	1	DAM	436	1	n/a	0	n/a	n/a	n/a	n/a	n/a
3465.416	n/a	RECOG_CONF	1732708	n/a	LTP107	ltpFR	6	6	1	DAM	436	n/a	1	0	n/a	n/a	n/a	n/a	n/a
3466.864	n/a	RECOG_TARGET	1733432	n/a	LTP107	ltpFR	6	6	0	STAIRS	1367	1	4	1	n/a	n/a	n/a	n/a	n/a
3467.492	n/a	RECOG_RESP	1733746	n/a	LTP107	ltpFR	6	6	0	STAIRS	1367	1	n/a	1	n/a	n/a	n/a	n/a	n/a
3468.44	n/a	RECOG_CONF	1734220	n/a	LTP107	ltpFR	6	6	0	STAIRS	1367	n/a	4	1	n/a	n/a	n/a	n/a	n/a
3469.822	n/a	RECOG_TARGET	1734911	n/a	LTP107	ltpFR	6	6	-1	ARTERY	41	1	5	-1	n/a	n/a	n/a	n/a	n/a
3470.406	n/a	RECOG_RESP	1735203	n/a	LTP107	ltpFR	6	6	-1	ARTERY	41	1	n/a	-1	n/a	n/a	n/a	n/a	n/a
3471.244	n/a	RECOG_CONF	1735622	n/a	LTP107	ltpFR	6	6	-1	ARTERY	41	n/a	5	-1	n/a	n/a	n/a	n/a	n/a
3472.638	n/a	RECOG_LURE	1736319	n/a	LTP107	ltpFR	6	6	n/a	WARRIOR	1589	0	3	n/a	n/a	n/a	n/a	n/a	n/a
3473.35	n/a	RECOG_RESP	1736675	n/a	LTP107	ltpFR	6	6	n/a	WARRIOR	1589	0	n/a	n/a	n/a	n/a	n/a	n/a	n/a
3474.646	n/a	RECOG_CONF	1737323	n/a	LTP107	ltpFR	6	6	n/a	WARRIOR	1589	n/a	3	n/a	n/a	n/a	n/a	n/a	n/a
3475.988	n/a	RECOG_TARGET	1737994	n/a	LTP107	ltpFR	6	6	-1	SLEEVE	1324	1	5	-1	n/a	n/a	n/a	n/a	n/a
3476.776	n/a	RECOG_RESP	1738388	n/a	LTP107	ltpFR	6	6	-1	SLEEVE	1324	1	n/a	-1	n/a	n/a	n/a	n/a	n/a
3477.73	n/a	RECOG_CONF	1738865	n/a	LTP107	ltpFR	6	6	-1	SLEEVE	1324	n/a	5	-1	n/a	n/a	n/a	n/a	n/a
3479.07	n/a	RECOG_TARGET	1739535	n/a	LTP107	ltpFR	6	6	0	SARDINE	1235	1	5	0	n/a	n/a	n/a	n/a	n/a
3479.714	n/a	RECOG_RESP	1739857	n/a	LTP107	ltpFR	6	6	0	SARDINE	1235	1	n/a	0	n/a	n/a	n/a	n/a	n/a
3480.672	n/a	RECOG_CONF	1740336	n/a	LTP107	ltpFR	6	6	0	SARDINE	1235	n/a	5	0	n/a	n/a	n/a	n/a	n/a
3482.052	n/a	RECOG_TARGET	1741026	n/a	LTP107	ltpFR	6	6	-1	SHAMPOO	1274	1	5	-1	n/a	n/a	n/a	n/a	n/a
3482.598	n/a	RECOG_RESP	1741299	n/a	LTP107	ltpFR	6	6	-1	SHAMPOO	1274	1	n/a	-1	n/a	n/a	n/a	n/a	n/a
3483.536	n/a	RECOG_CONF	1741768	n/a	LTP107	ltpFR	6	6	-1	SHAMPOO	1274	n/a	5	-1	n/a	n/a	n/a	n/a	n/a
3484.946	n/a	RECOG_TARGET	1742473	n/a	LTP107	ltpFR	6	6	0	CEREAL	272	0	5	0	n/a	n/a	n/a	n/a	n/a
3485.682	n/a	RECOG_RESP	1742841	n/a	LTP107	ltpFR	6	6	0	CEREAL	272	0	n/a	0	n/a	n/a	n/a	n/a	n/a
3486.52	n/a	RECOG_CONF	1743260	n/a	LTP107	ltpFR	6	6	0	CEREAL	272	n/a	5	0	n/a	n/a	n/a	n/a	n/a
3487.904	n/a	RECOG_TARGET	1743952	n/a	LTP107	ltpFR	6	6	0	MINER	896	1	5	1	n/a	n/a	n/a	n/a	n/a
3489.754	n/a	RECOG_RESP	1744877	n/a	LTP107	ltpFR	6	6	0	MINER	896	1	n/a	1	n/a	n/a	n/a	n/a	n/a
3490.79	n/a	RECOG_CONF	1745395	n/a	LTP107	ltpFR	6	6	0	MINER	896	n/a	5	1	n/a	n/a	n/a	n/a	n/a
3492.27	n/a	RECOG_TARGET	1746135	n/a	LTP107	ltpFR	6	6	-1	STICKER	1382	1	5	-1	n/a	n/a	n/a	n/a	n/a
3492.896	n/a	RECOG_RESP	1746448	n/a	LTP107	ltpFR	6	6	-1	STICKER	1382	1	n/a	-1	n/a	n/a	n/a	n/a	n/a
3493.824	n/a	RECOG_CONF	1746912	n/a	LTP107	ltpFR	6	6	-1	STICKER	1382	n/a	5	-1	n/a	n/a	n/a	n/a	n/a
3495.136	n/a	RECOG_TARGET	1747568	n/a	LTP107	ltpFR	6	6	0	HOOK	715	1	5	0	n/a	n/a	n/a	n/a	n/a
3496.018	n/a	RECOG_RESP	1748009	n/a	LTP107	ltpFR	6	6	0	HOOK	715	1	n/a	0	n/a	n/a	n/a	n/a	n/a
3496.906	n/a	RECOG_CONF	1748453	n/a	LTP107	ltpFR	6	6	0	HOOK	715	n/a	5	0	n/a	n/a	n/a	n/a	n/a
3498.244	n/a	RECOG_TARGET	1749122	n/a	LTP107	ltpFR	6	6	-1	SCALLOP	1242	1	5	-1	n/a	n/a	n/a	n/a	n/a
3498.872	n/a	RECOG_RESP	1749436	n/a	LTP107	ltpFR	6	6	-1	SCALLOP	1242	1	n/a	-1	n/a	n/a	n/a	n/a	n/a
3499.81	n/a	RECOG_CONF	1749905	n/a	LTP107	ltpFR	6	6	-1	SCALLOP	1242	n/a	5	-1	n/a	n/a	n/a	n/a	n/a
3501.218	n/a	RECOG_TARGET	1750609	n/a	LTP107	ltpFR	6	6	-1	CONCRETE	361	1	4	-1	n/a	n/a	n/a	n/a	n/a
3501.876	n/a	RECOG_RESP	1750938	n/a	LTP107	ltpFR	6	6	-1	CONCRETE	361	1	n/a	-1	n/a	n/a	n/a	n/a	n/a
3503.014	n/a	RECOG_CONF	1751507	n/a	LTP107	ltpFR	6	6	-1	CONCRETE	361	n/a	4	-1	n/a	n/a	n/a	n/a	n/a
3506.048	n/a	REC_START	1753024	n/a	LTP107	ltpFR	6	7	n/a	n/a	n/a	n/a	n/a	n/a	n/a	n/a	n/a	n/a	n/a
3506.078	n/a	RECOG_TARGET	1753039	n/a	LTP107	ltpFR	6	7	1	TWIN	1528	1	5	1	n/a	n/a	n/a	n/a	n/a
3506.73	n/a	RECOG_RESP	1753365	n/a	LTP107	ltpFR	6	7	1	TWIN	1528	1	n/a	1	n/a	n/a	n/a	n/a	n/a
3507.648	n/a	RECOG_CONF	1753824	n/a	LTP107	ltpFR	6	7	1	TWIN	1528	n/a	5	1	n/a	n/a	n/a	n/a	n/a
3508.962	n/a	RECOG_LURE	1754481	n/a	LTP107	ltpFR	6	7	n/a	SEAL	1262	0	3	n/a	n/a	n/a	n/a	n/a	n/a
3509.64	n/a	RECOG_RESP	1754820	n/a	LTP107	ltpFR	6	7	n/a	SEAL	1262	0	n/a	n/a	n/a	n/a	n/a	n/a	n/a
3510.542	n/a	RECOG_CONF	1755271	n/a	LTP107	ltpFR	6	7	n/a	SEAL	1262	n/a	3	n/a	n/a	n/a	n/a	n/a	n/a
3511.862	n/a	RECOG_TARGET	1755931	n/a	LTP107	ltpFR	6	7	1	KITTEN	780	1	5	1	n/a	n/a	n/a	n/a	n/a
3512.528	n/a	RECOG_RESP	1756264	n/a	LTP107	ltpFR	6	7	1	KITTEN	780	1	n/a	1	n/a	n/a	n/a	n/a	n/a
3513.376	n/a	RECOG_CONF	1756688	n/a	LTP107	ltpFR	6	7	1	KITTEN	780	n/a	5	1	n/a	n/a	n/a	n/a	n/a
3514.862	n/a	RECOG_TARGET	1757431	n/a	LTP107	ltpFR	6	7	0	DRILL	497	1	2	1	n/a	n/a	n/a	n/a	n/a
3515.7	n/a	RECOG_RESP	1757850	n/a	LTP107	ltpFR	6	7	0	DRILL	497	1	n/a	1	n/a	n/a	n/a	n/a	n/a
3516.788	n/a	RECOG_CONF	1758394	n/a	LTP107	ltpFR	6	7	0	DRILL	497	n/a	2	1	n/a	n/a	n/a	n/a	n/a
3518.286	n/a	RECOG_TARGET	1759143	n/a	LTP107	ltpFR	6	7	0	DRAWER	493	1	5	1	n/a	n/a	n/a	n/a	n/a
3519.032	n/a	RECOG_RESP	1759516	n/a	LTP107	ltpFR	6	7	0	DRAWER	493	1	n/a	1	n/a	n/a	n/a	n/a	n/a
3519.93	n/a	RECOG_CONF	1759965	n/a	LTP107	ltpFR	6	7	0	DRAWER	493	n/a	5	1	n/a	n/a	n/a	n/a	n/a
3521.252	n/a	RECOG_TARGET	1760626	n/a	LTP107	ltpFR	6	7	1	CHIEF	298	1	4	1	n/a	n/a	n/a	n/a	n/a
3521.976	n/a	RECOG_RESP	1760988	n/a	LTP107	ltpFR	6	7	1	CHIEF	298	1	n/a	1	n/a	n/a	n/a	n/a	n/a
3522.994	n/a	RECOG_CONF	1761497	n/a	LTP107	ltpFR	6	7	1	CHIEF	298	n/a	4	1	n/a	n/a	n/a	n/a	n/a
3524.294	n/a	RECOG_TARGET	1762147	n/a	LTP107	ltpFR	6	7	-1	PENDULUM	1043	1	5	-1	n/a	n/a	n/a	n/a	n/a
3525.016	n/a	RECOG_RESP	1762508	n/a	LTP107	ltpFR	6	7	-1	PENDULUM	1043	1	n/a	-1	n/a	n/a	n/a	n/a	n/a
3525.878	n/a	RECOG_CONF	1762939	n/a	LTP107	ltpFR	6	7	-1	PENDULUM	1043	n/a	5	-1	n/a	n/a	n/a	n/a	n/a
3527.218	n/a	RECOG_TARGET	1763609	n/a	LTP107	ltpFR	6	7	-1	WHEEL	1603	1	1	-1	n/a	n/a	n/a	n/a	n/a
3527.914	n/a	RECOG_RESP	1763957	n/a	LTP107	ltpFR	6	7	-1	WHEEL	1603	1	n/a	-1	n/a	n/a	n/a	n/a	n/a
3528.902	n/a	RECOG_CONF	1764451	n/a	LTP107	ltpFR	6	7	-1	WHEEL	1603	n/a	1	-1	n/a	n/a	n/a	n/a	n/a
3530.352	n/a	RECOG_TARGET	1765176	n/a	LTP107	ltpFR	6	7	-1	BOUILLON	154	1	5	-1	n/a	n/a	n/a	n/a	n/a
3531.076	n/a	RECOG_RESP	1765538	n/a	LTP107	ltpFR	6	7	-1	BOUILLON	154	1	n/a	-1	n/a	n/a	n/a	n/a	n/a
3532.044	n/a	RECOG_CONF	1766022	n/a	LTP107	ltpFR	6	7	-1	BOUILLON	154	n/a	5	-1	n/a	n/a	n/a	n/a	n/a
3533.394	n/a	RECOG_TARGET	1766697	n/a	LTP107	ltpFR	6	7	1	RANCH	1166	1	5	0	n/a	n/a	n/a	n/a	n/a
3534.1	n/a	RECOG_RESP	1767050	n/a	LTP107	ltpFR	6	7	1	RANCH	1166	1	n/a	0	n/a	n/a	n/a	n/a	n/a
3535.018	n/a	RECOG_CONF	1767509	n/a	LTP107	ltpFR	6	7	1	RANCH	1166	n/a	5	0	n/a	n/a	n/a	n/a	n/a
3536.418	n/a	RECOG_TARGET	1768209	n/a	LTP107	ltpFR	6	7	0	TRIANGLE	1504	1	5	0	n/a	n/a	n/a	n/a	n/a
3537.172	n/a	RECOG_RESP	1768586	n/a	LTP107	ltpFR	6	7	0	TRIANGLE	1504	1	n/a	0	n/a	n/a	n/a	n/a	n/a
3538.09	n/a	RECOG_CONF	1769045	n/a	LTP107	ltpFR	6	7	0	TRIANGLE	1504	n/a	5	0	n/a	n/a	n/a	n/a	n/a
3539.544	n/a	RECOG_TARGET	1769772	n/a	LTP107	ltpFR	6	7	-1	POTTERY	1116	1	4	-1	n/a	n/a	n/a	n/a	n/a
3540.196	n/a	RECOG_RESP	1770098	n/a	LTP107	ltpFR	6	7	-1	POTTERY	1116	1	n/a	-1	n/a	n/a	n/a	n/a	n/a
3541.204	n/a	RECOG_CONF	1770602	n/a	LTP107	ltpFR	6	7	-1	POTTERY	1116	n/a	4	-1	n/a	n/a	n/a	n/a	n/a
3542.536	n/a	RECOG_LURE	1771268	n/a	LTP107	ltpFR	6	7	n/a	POET	1095	0	3	n/a	n/a	n/a	n/a	n/a	n/a
3543.228	n/a	RECOG_RESP_VV	1771614	n/a	LTP107	ltpFR	6	7	n/a	POET	1095	1	n/a	n/a	n/a	n/a	n/a	n/a	n/a
3544.168	n/a	RECOG_RESP	1772084	n/a	LTP107	ltpFR	6	7	n/a	POET	1095	0	n/a	n/a	n/a	n/a	n/a	n/a	n/a
3545.384	n/a	RECOG_CONF	1772692	n/a	LTP107	ltpFR	6	7	n/a	POET	1095	n/a	3	n/a	n/a	n/a	n/a	n/a	n/a
3546.802	n/a	RECOG_TARGET	1773401	n/a	LTP107	ltpFR	6	7	0	VINEGAR	1569	1	5	0	n/a	n/a	n/a	n/a	n/a
3547.76	n/a	RECOG_RESP	1773880	n/a	LTP107	ltpFR	6	7	0	VINEGAR	1569	1	n/a	0	n/a	n/a	n/a	n/a	n/a
3548.588	n/a	RECOG_CONF	1774294	n/a	LTP107	ltpFR	6	7	0	VINEGAR	1569	n/a	5	0	n/a	n/a	n/a	n/a	n/a
3549.986	n/a	RECOG_TARGET	1774993	n/a	LTP107	ltpFR	6	7	1	BUTLER	204	1	5	1	n/a	n/a	n/a	n/a	n/a
3550.912	n/a	RECOG_RESP	1775456	n/a	LTP107	ltpFR	6	7	1	BUTLER	204	1	n/a	1	n/a	n/a	n/a	n/a	n/a
3551.75	n/a	RECOG_CONF	1775875	n/a	LTP107	ltpFR	6	7	1	BUTLER	204	n/a	5	1	n/a	n/a	n/a	n/a	n/a
3553.084	n/a	RECOG_LURE	1776542	n/a	LTP107	ltpFR	6	7	n/a	RICE	1190	0	5	n/a	n/a	n/a	n/a	n/a	n/a
3553.826	n/a	RECOG_RESP	1776913	n/a	LTP107	ltpFR	6	7	n/a	RICE	1190	0	n/a	n/a	n/a	n/a	n/a	n/a	n/a
3554.674	n/a	RECOG_CONF	1777337	n/a	LTP107	ltpFR	6	7	n/a	RICE	1190	n/a	5	n/a	n/a	n/a	n/a	n/a	n/a
3556.018	n/a	RECOG_TARGET	1778009	n/a	LTP107	ltpFR	6	7	-1	CLOTHES	327	1	3	-1	n/a	n/a	n/a	n/a	n/a
