mstime	trial_type	stim_file	subject	experiment	session	trial	item_name	item_num	list	answer	test_x	test_y	test_z
0	SESS_START	n/a	LTP325	ltpFR2	11	n/a	n/a	n/a	n/a	n/a	0	0	0
22404	START	n/a	LTP325	ltpFR2	11	n/a	n/a	n/a	-1	n/a	n/a	n/a	n/a
22419	PROB	n/a	LTP325	ltpFR2	11	n/a	n/a	n/a	-1	22	8	6	8
24855	PROB	n/a	LTP325	ltpFR2	11	n/a	n/a	n/a	-1	7	1	1	5
26173	PROB	n/a	LTP325	ltpFR2	11	n/a	n/a	n/a	-1	20	7	9	4
28424	PROB	n/a	LTP325	ltpFR2	11	n/a	n/a	n/a	-1	14	3	6	5
30326	PROB	n/a	LTP325	ltpFR2	11	n/a	n/a	n/a	-1	17	9	3	5
32411	PROB	n/a	LTP325	ltpFR2	11	n/a	n/a	n/a	-1	18	5	4	9
33979	STOP	n/a	LTP325	ltpFR2	11	n/a	n/a	n/a	-1	n/a	n/a	n/a	n/a
55414	DISTRACTOR	n/a	LTP325	ltpFR2	11	1	n/a	n/a	n/a	n/a	0	0	0
55414	START	n/a	LTP325	ltpFR2	11	n/a	n/a	n/a	1	n/a	n/a	n/a	n/a
55431	PROB	n/a	LTP325	ltpFR2	11	n/a	n/a	n/a	1	18	7	8	3
57017	PROB	n/a	LTP325	ltpFR2	11	n/a	n/a	n/a	1	16	9	6	1
58350	PROB	n/a	LTP325	ltpFR2	11	n/a	n/a	n/a	1	12	3	1	8
62004	PROB	n/a	LTP325	ltpFR2	11	n/a	n/a	n/a	1	11	5	2	4
64606	PROB	n/a	LTP325	ltpFR2	11	n/a	n/a	n/a	1	14	5	5	4
65874	PROB	n/a	LTP325	ltpFR2	11	n/a	n/a	n/a	1	24	7	6	9
69094	PROB	n/a	LTP325	ltpFR2	11	n/a	n/a	n/a	1	14	5	1	8
72196	PROB	n/a	LTP325	ltpFR2	11	n/a	n/a	n/a	1	21	6	9	6
74048	PROB	n/a	LTP325	ltpFR2	11	n/a	n/a	n/a	1	20	2	9	9
75782	PROB	n/a	LTP325	ltpFR2	11	n/a	n/a	n/a	1	17	8	6	3
79412	STOP	n/a	LTP325	ltpFR2	11	n/a	n/a	n/a	1	n/a	n/a	n/a	n/a
80569	WORD	wordpools/wasnorm_wordpool_576.txt	LTP325	ltpFR2	11	1	GUITAR	670	n/a	n/a	0	0	0
83222	WORD	wordpools/wasnorm_wordpool_576.txt	LTP325	ltpFR2	11	1	SCISSORS	1250	n/a	n/a	0	0	0
85992	WORD	wordpools/wasnorm_wordpool_576.txt	LTP325	ltpFR2	11	1	TUBA	1515	n/a	n/a	0	0	0
88593	WORD	wordpools/wasnorm_wordpool_576.txt	LTP325	ltpFR2	11	1	RECORD	1176	n/a	n/a	0	0	0
91030	WORD	wordpools/wasnorm_wordpool_576.txt	LTP325	ltpFR2	11	1	SPACE	1345	n/a	n/a	0	0	0
93781	WORD	wordpools/wasnorm_wordpool_576.txt	LTP325	ltpFR2	11	1	LIZARD	834	n/a	n/a	0	0	0
96316	WORD	wordpools/wasnorm_wordpool_576.txt	LTP325	ltpFR2	11	1	SNAIL	1332	n/a	n/a	0	0	0
98785	WORD	wordpools/wasnorm_wordpool_576.txt	LTP325	ltpFR2	11	1	DANCER	437	n/a	n/a	0	0	0
101521	WORD	wordpools/wasnorm_wordpool_576.txt	LTP325	ltpFR2	11	1	CONCERT	360	n/a	n/a	0	0	0
104108	WORD	wordpools/wasnorm_wordpool_576.txt	LTP325	ltpFR2	11	1	FLASK	576	n/a	n/a	0	0	0
106725	WORD	wordpools/wasnorm_wordpool_576.txt	LTP325	ltpFR2	11	1	BEAKER	104	n/a	n/a	0	0	0
109378	WORD	wordpools/wasnorm_wordpool_576.txt	LTP325	ltpFR2	11	1	PASTA	1021	n/a	n/a	0	0	0
111948	WORD	wordpools/wasnorm_wordpool_576.txt	LTP325	ltpFR2	11	1	OFFICE	972	n/a	n/a	0	0	0
114582	WORD	wordpools/wasnorm_wordpool_576.txt	LTP325	ltpFR2	11	1	FEMALE	559	n/a	n/a	0	0	0
117418	WORD	wordpools/wasnorm_wordpool_576.txt	LTP325	ltpFR2	11	1	DIVER	476	n/a	n/a	0	0	0
120172	WORD	wordpools/wasnorm_wordpool_576.txt	LTP325	ltpFR2	11	1	DIME	466	n/a	n/a	0	0	0
122723	WORD	wordpools/wasnorm_wordpool_576.txt	LTP325	ltpFR2	11	1	MOTOR	922	n/a	n/a	0	0	0
125459	WORD	wordpools/wasnorm_wordpool_576.txt	LTP325	ltpFR2	11	1	SEAL	1262	n/a	n/a	0	0	0
128178	WORD	wordpools/wasnorm_wordpool_576.txt	LTP325	ltpFR2	11	1	FOOT	590	n/a	n/a	0	0	0
130696	WORD	wordpools/wasnorm_wordpool_576.txt	LTP325	ltpFR2	11	1	EXPERT	543	n/a	n/a	0	0	0
133415	WORD	wordpools/wasnorm_wordpool_576.txt	LTP325	ltpFR2	11	1	SALMON	1227	n/a	n/a	0	0	0
136085	WORD	wordpools/wasnorm_wordpool_576.txt	LTP325	ltpFR2	11	1	ROCKET	1202	n/a	n/a	0	0	0
138653	WORD	wordpools/wasnorm_wordpool_576.txt	LTP325	ltpFR2	11	1	HOOD	714	n/a	n/a	0	0	0
141256	WORD	wordpools/wasnorm_wordpool_576.txt	LTP325	ltpFR2	11	1	CRATER	400	n/a	n/a	0	0	0
142875	START	n/a	LTP325	ltpFR2	11	n/a	n/a	n/a	2	n/a	n/a	n/a	n/a
143977	DISTRACTOR	n/a	LTP325	ltpFR2	11	1	n/a	n/a	n/a	n/a	0	0	0
143992	PROB	n/a	LTP325	ltpFR2	11	n/a	n/a	n/a	2	20	6	8	6
146077	PROB	n/a	LTP325	ltpFR2	11	n/a	n/a	n/a	2	11	9	1	1
147912	PROB	n/a	LTP325	ltpFR2	11	n/a	n/a	n/a	2	18	9	2	7
150865	PROB	n/a	LTP325	ltpFR2	11	n/a	n/a	n/a	2	11	1	4	6
152883	PROB	n/a	LTP325	ltpFR2	11	n/a	n/a	n/a	2	13	2	6	5
155601	PROB	n/a	LTP325	ltpFR2	11	n/a	n/a	n/a	2	11	4	2	5
157703	PROB	n/a	LTP325	ltpFR2	11	n/a	n/a	n/a	2	19	9	8	2
159371	PROB	n/a	LTP325	ltpFR2	11	n/a	n/a	n/a	2	18	7	3	8
160722	PROB	n/a	LTP325	ltpFR2	11	n/a	n/a	n/a	2	17	6	7	4
162008	PROB	n/a	LTP325	ltpFR2	11	n/a	n/a	n/a	2	12	1	8	3
164259	PROB	n/a	LTP325	ltpFR2	11	n/a	n/a	n/a	2	11	3	4	4
166319	STOP	n/a	LTP325	ltpFR2	11	n/a	n/a	n/a	2	n/a	n/a	n/a	n/a
168781	REC_START	n/a	LTP325	ltpFR2	11	1	n/a	n/a	n/a	n/a	0	0	0
169964	REC_WORD	wordpools/wasnorm_wordpool_576.txt	LTP325	ltpFR2	11	1	GUITAR	670	n/a	n/a	0	0	0
171434	REC_WORD	wordpools/wasnorm_wordpool_576.txt	LTP325	ltpFR2	11	1	SCISSORS	1250	n/a	n/a	0	0	0
173108	REC_WORD	wordpools/wasnorm_wordpool_576.txt	LTP325	ltpFR2	11	1	TUBA	1515	n/a	n/a	0	0	0
174546	REC_WORD	wordpools/wasnorm_wordpool_576.txt	LTP325	ltpFR2	11	1	RECORD	1176	n/a	n/a	0	0	0
177798	REC_WORD	wordpools/wasnorm_wordpool_576.txt	LTP325	ltpFR2	11	1	FEMALE	559	n/a	n/a	0	0	0
179410	REC_WORD	wordpools/wasnorm_wordpool_576.txt	LTP325	ltpFR2	11	1	DIVER	476	n/a	n/a	0	0	0
184077	REC_WORD	wordpools/wasnorm_wordpool_576.txt	LTP325	ltpFR2	11	1	SNAIL	1332	n/a	n/a	0	0	0
185535	REC_WORD	wordpools/wasnorm_wordpool_576.txt	LTP325	ltpFR2	11	1	LIZARD	834	n/a	n/a	0	0	0
186976	REC_WORD	wordpools/wasnorm_wordpool_576.txt	LTP325	ltpFR2	11	1	SPACE	1345	n/a	n/a	0	0	0
188751	REC_WORD	wordpools/wasnorm_wordpool_576.txt	LTP325	ltpFR2	11	1	ROCKET	1202	n/a	n/a	0	0	0
191798	REC_WORD	wordpools/wasnorm_wordpool_576.txt	LTP325	ltpFR2	11	1	BEAKER	104	n/a	n/a	0	0	0
192969	REC_WORD	wordpools/wasnorm_wordpool_576.txt	LTP325	ltpFR2	11	1	FLASK	576	n/a	n/a	0	0	0
194563	REC_WORD	wordpools/wasnorm_wordpool_576.txt	LTP325	ltpFR2	11	1	DANCER	437	n/a	n/a	0	0	0
196035	REC_WORD	wordpools/wasnorm_wordpool_576.txt	LTP325	ltpFR2	11	1	CONCERT	360	n/a	n/a	0	0	0
203517	REC_WORD	wordpools/wasnorm_wordpool_576.txt	LTP325	ltpFR2	11	1	FOOT	590	n/a	n/a	0	0	0
204806	REC_WORD	wordpools/wasnorm_wordpool_576.txt	LTP325	ltpFR2	11	1	SEAL	1262	n/a	n/a	0	0	0
211525	REC_WORD	wordpools/wasnorm_wordpool_576.txt	LTP325	ltpFR2	11	1	SPACE	1345	n/a	n/a	0	0	0
213797	REC_WORD	wordpools/wasnorm_wordpool_576.txt	LTP325	ltpFR2	11	1	ROCKET	1202	n/a	n/a	0	0	0
259225	DISTRACTOR	n/a	LTP325	ltpFR2	11	2	n/a	n/a	n/a	n/a	0	0	0
259225	START	n/a	LTP325	ltpFR2	11	n/a	n/a	n/a	3	n/a	n/a	n/a	n/a
259242	PROB	n/a	LTP325	ltpFR2	11	n/a	n/a	n/a	3	13	1	4	8
261794	PROB	n/a	LTP325	ltpFR2	11	n/a	n/a	n/a	3	16	7	1	8
264180	PROB	n/a	LTP325	ltpFR2	11	n/a	n/a	n/a	3	11	2	5	4
266165	PROB	n/a	LTP325	ltpFR2	11	n/a	n/a	n/a	3	17	8	3	6
270301	PROB	n/a	LTP325	ltpFR2	11	n/a	n/a	n/a	3	15	2	5	8
272070	PROB	n/a	LTP325	ltpFR2	11	n/a	n/a	n/a	3	26	9	8	9
274139	PROB	n/a	LTP325	ltpFR2	11	n/a	n/a	n/a	3	18	8	7	3
275756	PROB	n/a	LTP325	ltpFR2	11	n/a	n/a	n/a	3	21	7	9	5
280593	PROB	n/a	LTP325	ltpFR2	11	n/a	n/a	n/a	3	10	2	1	7
282803	STOP	n/a	LTP325	ltpFR2	11	n/a	n/a	n/a	3	n/a	n/a	n/a	n/a
284097	WORD	wordpools/wasnorm_wordpool_576.txt	LTP325	ltpFR2	11	2	AIRPLANE	12	n/a	n/a	0	0	0
286682	WORD	wordpools/wasnorm_wordpool_576.txt	LTP325	ltpFR2	11	2	TRANSPLANT	1496	n/a	n/a	0	0	0
289135	WORD	wordpools/wasnorm_wordpool_576.txt	LTP325	ltpFR2	11	2	WOMAN	1620	n/a	n/a	0	0	0
291820	WORD	wordpools/wasnorm_wordpool_576.txt	LTP325	ltpFR2	11	2	WASP	1593	n/a	n/a	0	0	0
294572	WORD	wordpools/wasnorm_wordpool_576.txt	LTP325	ltpFR2	11	2	HUMAN	726	n/a	n/a	0	0	0
297358	WORD	wordpools/wasnorm_wordpool_576.txt	LTP325	ltpFR2	11	2	GLOBE	641	n/a	n/a	0	0	0
299810	WORD	wordpools/wasnorm_wordpool_576.txt	LTP325	ltpFR2	11	2	WORLD	1622	n/a	n/a	0	0	0
302462	WORD	wordpools/wasnorm_wordpool_576.txt	LTP325	ltpFR2	11	2	MEDAL	885	n/a	n/a	0	0	0
305099	WORD	wordpools/wasnorm_wordpool_576.txt	LTP325	ltpFR2	11	2	FRANCE	601	n/a	n/a	0	0	0
307834	WORD	wordpools/wasnorm_wordpool_576.txt	LTP325	ltpFR2	11	2	HIKER	708	n/a	n/a	0	0	0
310403	WORD	wordpools/wasnorm_wordpool_576.txt	LTP325	ltpFR2	11	2	GYMNAST	675	n/a	n/a	0	0	0
312906	WORD	wordpools/wasnorm_wordpool_576.txt	LTP325	ltpFR2	11	2	DAUGHTER	442	n/a	n/a	0	0	0
315591	WORD	wordpools/wasnorm_wordpool_576.txt	LTP325	ltpFR2	11	2	PATIENT	1024	n/a	n/a	0	0	0
318044	WORD	wordpools/wasnorm_wordpool_576.txt	LTP325	ltpFR2	11	2	COMPASS	358	n/a	n/a	0	0	0
320628	WORD	wordpools/wasnorm_wordpool_576.txt	LTP325	ltpFR2	11	2	ATLAS	53	n/a	n/a	0	0	0
323247	WORD	wordpools/wasnorm_wordpool_576.txt	LTP325	ltpFR2	11	2	PERMIT	1051	n/a	n/a	0	0	0
325851	WORD	wordpools/wasnorm_wordpool_576.txt	LTP325	ltpFR2	11	2	CRITIC	410	n/a	n/a	0	0	0
328552	WORD	wordpools/wasnorm_wordpool_576.txt	LTP325	ltpFR2	11	2	PARENT	1013	n/a	n/a	0	0	0
331005	WORD	wordpools/wasnorm_wordpool_576.txt	LTP325	ltpFR2	11	2	EYELASH	546	n/a	n/a	0	0	0
333573	WORD	wordpools/wasnorm_wordpool_576.txt	LTP325	ltpFR2	11	2	MISTER	901	n/a	n/a	0	0	0
336292	WORD	wordpools/wasnorm_wordpool_576.txt	LTP325	ltpFR2	11	2	COUNTRY	388	n/a	n/a	0	0	0
338794	WORD	wordpools/wasnorm_wordpool_576.txt	LTP325	ltpFR2	11	2	JELLY	755	n/a	n/a	0	0	0
341480	WORD	wordpools/wasnorm_wordpool_576.txt	LTP325	ltpFR2	11	2	PASSAGE	1019	n/a	n/a	0	0	0
344083	WORD	wordpools/wasnorm_wordpool_576.txt	LTP325	ltpFR2	11	2	NOVEL	960	n/a	n/a	0	0	0
345700	START	n/a	LTP325	ltpFR2	11	n/a	n/a	n/a	4	n/a	n/a	n/a	n/a
346628	DISTRACTOR	n/a	LTP325	ltpFR2	11	2	n/a	n/a	n/a	n/a	0	0	0
346651	PROB	n/a	LTP325	ltpFR2	11	n/a	n/a	n/a	4	12	1	2	9
348186	PROB	n/a	LTP325	ltpFR2	11	n/a	n/a	n/a	4	27	7	9	9
351739	PROB	n/a	LTP325	ltpFR2	11	n/a	n/a	n/a	4	20	6	7	8
356593	PROB	n/a	LTP325	ltpFR2	11	n/a	n/a	n/a	4	16	3	7	6
358244	PROB	n/a	LTP325	ltpFR2	11	n/a	n/a	n/a	4	14	6	6	2
360296	PROB	n/a	LTP325	ltpFR2	11	n/a	n/a	n/a	4	15	8	5	2
361865	PROB	n/a	LTP325	ltpFR2	11	n/a	n/a	n/a	4	8	3	4	1
363449	PROB	n/a	LTP325	ltpFR2	11	n/a	n/a	n/a	4	15	4	4	7
365384	PROB	n/a	LTP325	ltpFR2	11	n/a	n/a	n/a	4	11	7	3	1
366618	PROB	n/a	LTP325	ltpFR2	11	n/a	n/a	n/a	4	20	7	4	9
368559	STOP	n/a	LTP325	ltpFR2	11	n/a	n/a	n/a	4	n/a	n/a	n/a	n/a
371573	REC_START	n/a	LTP325	ltpFR2	11	2	n/a	n/a	n/a	n/a	0	0	0
373111	REC_WORD	wordpools/wasnorm_wordpool_576.txt	LTP325	ltpFR2	11	2	AIRPLANE	12	n/a	n/a	0	0	0
376210	REC_WORD	wordpools/wasnorm_wordpool_576.txt	LTP325	ltpFR2	11	2	HIKER	708	n/a	n/a	0	0	0
377480	REC_WORD	wordpools/wasnorm_wordpool_576.txt	LTP325	ltpFR2	11	2	GYMNAST	675	n/a	n/a	0	0	0
378480	REC_WORD_VV	wordpools/wasnorm_wordpool_576.txt	LTP325	ltpFR2	11	2	<>	-1	n/a	n/a	0	0	0
381061	REC_WORD	wordpools/wasnorm_wordpool_576.txt	LTP325	ltpFR2	11	2	HUMAN	726	n/a	n/a	0	0	0
382570	REC_WORD	wordpools/wasnorm_wordpool_576.txt	LTP325	ltpFR2	11	2	WOMAN	1620	n/a	n/a	0	0	0
386510	REC_WORD	wordpools/wasnorm_wordpool_576.txt	LTP325	ltpFR2	11	2	WASP	1593	n/a	n/a	0	0	0
389289	REC_WORD	wordpools/wasnorm_wordpool_576.txt	LTP325	ltpFR2	11	2	PARENT	1013	n/a	n/a	0	0	0
390753	REC_WORD	wordpools/wasnorm_wordpool_576.txt	LTP325	ltpFR2	11	2	EYELASH	546	n/a	n/a	0	0	0
395958	REC_WORD	wordpools/wasnorm_wordpool_576.txt	LTP325	ltpFR2	11	2	PERMIT	1051	n/a	n/a	0	0	0
397308	REC_WORD	wordpools/wasnorm_wordpool_576.txt	LTP325	ltpFR2	11	2	PASSAGE	1019	n/a	n/a	0	0	0
399040	REC_WORD	wordpools/wasnorm_wordpool_576.txt	LTP325	ltpFR2	11	2	JELLY	755	n/a	n/a	0	0	0
401541	REC_WORD	wordpools/wasnorm_wordpool_576.txt	LTP325	ltpFR2	11	2	GLOBE	641	n/a	n/a	0	0	0
402636	REC_WORD	wordpools/wasnorm_wordpool_576.txt	LTP325	ltpFR2	11	2	WORLD	1622	n/a	n/a	0	0	0
404056	REC_WORD	wordpools/wasnorm_wordpool_576.txt	LTP325	ltpFR2	11	2	ATLAS	53	n/a	n/a	0	0	0
419713	REC_WORD	wordpools/wasnorm_wordpool_576.txt	LTP325	ltpFR2	11	2	MEDAL	885	n/a	n/a	0	0	0
420924	REC_WORD	wordpools/wasnorm_wordpool_576.txt	LTP325	ltpFR2	11	2	FRANCE	601	n/a	n/a	0	0	0
421924	REC_WORD_VV	wordpools/wasnorm_wordpool_576.txt	LTP325	ltpFR2	11	2	<>	-1	n/a	n/a	0	0	0
422887	REC_WORD	wordpools/wasnorm_wordpool_576.txt	LTP325	ltpFR2	11	2	COUNTRY	388	n/a	n/a	0	0	0
427612	REC_WORD	wordpools/wasnorm_wordpool_576.txt	LTP325	ltpFR2	11	2	NOVEL	960	n/a	n/a	0	0	0
462069	WORD	wordpools/wasnorm_wordpool_576.txt	LTP325	ltpFR2	11	3	TOURIST	1488	n/a	n/a	0	0	0
464820	WORD	wordpools/wasnorm_wordpool_576.txt	LTP325	ltpFR2	11	3	MILK	895	n/a	n/a	0	0	0
467389	WORD	wordpools/wasnorm_wordpool_576.txt	LTP325	ltpFR2	11	3	SUBWAY	1400	n/a	n/a	0	0	0
469993	WORD	wordpools/wasnorm_wordpool_576.txt	LTP325	ltpFR2	11	3	BLADE	134	n/a	n/a	0	0	0
472594	WORD	wordpools/wasnorm_wordpool_576.txt	LTP325	ltpFR2	11	3	DRINK	498	n/a	n/a	0	0	0
475396	WORD	wordpools/wasnorm_wordpool_576.txt	LTP325	ltpFR2	11	3	NECKLACE	940	n/a	n/a	0	0	0
477966	WORD	wordpools/wasnorm_wordpool_576.txt	LTP325	ltpFR2	11	3	SCALPEL	1243	n/a	n/a	0	0	0
480784	WORD	wordpools/wasnorm_wordpool_576.txt	LTP325	ltpFR2	11	3	CLIMBER	323	n/a	n/a	0	0	0
483487	WORD	wordpools/wasnorm_wordpool_576.txt	LTP325	ltpFR2	11	3	ACTOR	5	n/a	n/a	0	0	0
485940	WORD	wordpools/wasnorm_wordpool_576.txt	LTP325	ltpFR2	11	3	SWORD	1423	n/a	n/a	0	0	0
488608	WORD	wordpools/wasnorm_wordpool_576.txt	LTP325	ltpFR2	11	3	RAFT	1159	n/a	n/a	0	0	0
491377	WORD	wordpools/wasnorm_wordpool_576.txt	LTP325	ltpFR2	11	3	ROOSTER	1209	n/a	n/a	0	0	0
493930	WORD	wordpools/wasnorm_wordpool_576.txt	LTP325	ltpFR2	11	3	COOK	372	n/a	n/a	0	0	0
496498	WORD	wordpools/wasnorm_wordpool_576.txt	LTP325	ltpFR2	11	3	SKILLET	1317	n/a	n/a	0	0	0
499135	WORD	wordpools/wasnorm_wordpool_576.txt	LTP325	ltpFR2	11	3	BROOK	177	n/a	n/a	0	0	0
501887	WORD	wordpools/wasnorm_wordpool_576.txt	LTP325	ltpFR2	11	3	LAGOON	795	n/a	n/a	0	0	0
504455	WORD	wordpools/wasnorm_wordpool_576.txt	LTP325	ltpFR2	11	3	BULLET	194	n/a	n/a	0	0	0
506908	WORD	wordpools/wasnorm_wordpool_576.txt	LTP325	ltpFR2	11	3	OUTLAW	989	n/a	n/a	0	0	0
509376	WORD	wordpools/wasnorm_wordpool_576.txt	LTP325	ltpFR2	11	3	MARSH	874	n/a	n/a	0	0	0
512012	WORD	wordpools/wasnorm_wordpool_576.txt	LTP325	ltpFR2	11	3	KNIFE	785	n/a	n/a	0	0	0
514831	WORD	wordpools/wasnorm_wordpool_576.txt	LTP325	ltpFR2	11	3	LIVER	833	n/a	n/a	0	0	0
517483	WORD	wordpools/wasnorm_wordpool_576.txt	LTP325	ltpFR2	11	3	HATCHET	691	n/a	n/a	0	0	0
520269	WORD	wordpools/wasnorm_wordpool_576.txt	LTP325	ltpFR2	11	3	MILDEW	893	n/a	n/a	0	0	0
522939	WORD	wordpools/wasnorm_wordpool_576.txt	LTP325	ltpFR2	11	3	FRIAR	605	n/a	n/a	0	0	0
524556	START	n/a	LTP325	ltpFR2	11	n/a	n/a	n/a	5	n/a	n/a	n/a	n/a
525715	DISTRACTOR	n/a	LTP325	ltpFR2	11	3	n/a	n/a	n/a	n/a	0	0	0
525723	PROB	n/a	LTP325	ltpFR2	11	n/a	n/a	n/a	5	18	6	8	4
528392	PROB	n/a	LTP325	ltpFR2	11	n/a	n/a	n/a	5	16	2	8	6
529794	PROB	n/a	LTP325	ltpFR2	11	n/a	n/a	n/a	5	10	4	5	1
531412	PROB	n/a	LTP325	ltpFR2	11	n/a	n/a	n/a	5	22	9	5	8
534899	PROB	n/a	LTP325	ltpFR2	11	n/a	n/a	n/a	5	17	5	6	6
536700	PROB	n/a	LTP325	ltpFR2	11	n/a	n/a	n/a	5	19	9	9	1
538618	PROB	n/a	LTP325	ltpFR2	11	n/a	n/a	n/a	5	15	5	1	9
540369	PROB	n/a	LTP325	ltpFR2	11	n/a	n/a	n/a	5	5	3	1	1
542455	PROB	n/a	LTP325	ltpFR2	11	n/a	n/a	n/a	5	14	9	2	3
548556	STOP	n/a	LTP325	ltpFR2	11	n/a	n/a	n/a	5	n/a	n/a	n/a	n/a
550429	REC_START	n/a	LTP325	ltpFR2	11	3	n/a	n/a	n/a	n/a	0	0	0
552473	REC_WORD	wordpools/wasnorm_wordpool_576.txt	LTP325	ltpFR2	11	3	FRIAR	605	n/a	n/a	0	0	0
555049	REC_WORD	wordpools/wasnorm_wordpool_576.txt	LTP325	ltpFR2	11	3	CLIMBER	323	n/a	n/a	0	0	0
568270	REC_WORD	wordpools/wasnorm_wordpool_576.txt	LTP325	ltpFR2	11	3	ACTOR	5	n/a	n/a	0	0	0
595335	REC_WORD	wordpools/wasnorm_wordpool_576.txt	LTP325	ltpFR2	11	3	BULLET	194	n/a	n/a	0	0	0
596748	REC_WORD	wordpools/wasnorm_wordpool_576.txt	LTP325	ltpFR2	11	3	OUTLAW	989	n/a	n/a	0	0	0
598062	REC_WORD	wordpools/wasnorm_wordpool_576.txt	LTP325	ltpFR2	11	3	MARSH	874	n/a	n/a	0	0	0
599794	REC_WORD	wordpools/wasnorm_wordpool_576.txt	LTP325	ltpFR2	11	3	KNIFE	785	n/a	n/a	0	0	0
614229	REC_WORD	wordpools/wasnorm_wordpool_576.txt	LTP325	ltpFR2	11	3	SCALPEL	1243	n/a	n/a	0	0	0
682094	DISTRACTOR	n/a	LTP325	ltpFR2	11	4	n/a	n/a	n/a	n/a	0	0	0
682094	START	n/a	LTP325	ltpFR2	11	n/a	n/a	n/a	6	n/a	n/a	n/a	n/a
682127	PROB	n/a	LTP325	ltpFR2	11	n/a	n/a	n/a	6	16	7	5	6
684795	PROB	n/a	LTP325	ltpFR2	11	n/a	n/a	n/a	6	20	7	7	6
686881	PROB	n/a	LTP325	ltpFR2	11	n/a	n/a	n/a	6	12	4	7	1
689399	PROB	n/a	LTP325	ltpFR2	11	n/a	n/a	n/a	6	18	9	6	3
692702	PROB	n/a	LTP325	ltpFR2	11	n/a	n/a	n/a	6	12	5	5	2
694420	PROB	n/a	LTP325	ltpFR2	11	n/a	n/a	n/a	6	10	6	3	1
696123	PROB	n/a	LTP325	ltpFR2	11	n/a	n/a	n/a	6	14	2	4	8
697757	PROB	n/a	LTP325	ltpFR2	11	n/a	n/a	n/a	6	13	8	3	2
706093	STOP	n/a	LTP325	ltpFR2	11	n/a	n/a	n/a	6	n/a	n/a	n/a	n/a
706999	WORD	wordpools/wasnorm_wordpool_576.txt	LTP325	ltpFR2	11	4	FIREMAN	569	n/a	n/a	0	0	0
709433	WORD	wordpools/wasnorm_wordpool_576.txt	LTP325	ltpFR2	11	4	DRUG	501	n/a	n/a	0	0	0
711920	WORD	wordpools/wasnorm_wordpool_576.txt	LTP325	ltpFR2	11	4	TABLET	1427	n/a	n/a	0	0	0
714438	WORD	wordpools/wasnorm_wordpool_576.txt	LTP325	ltpFR2	11	4	CHURCH	307	n/a	n/a	0	0	0
717240	WORD	wordpools/wasnorm_wordpool_576.txt	LTP325	ltpFR2	11	4	LEG	809	n/a	n/a	0	0	0
720044	WORD	wordpools/wasnorm_wordpool_576.txt	LTP325	ltpFR2	11	4	PRINCE	1124	n/a	n/a	0	0	0
722762	WORD	wordpools/wasnorm_wordpool_576.txt	LTP325	ltpFR2	11	4	THRONE	1461	n/a	n/a	0	0	0
725547	WORD	wordpools/wasnorm_wordpool_576.txt	LTP325	ltpFR2	11	4	BRANCH	168	n/a	n/a	0	0	0
728017	WORD	wordpools/wasnorm_wordpool_576.txt	LTP325	ltpFR2	11	4	MARS	873	n/a	n/a	0	0	0
730552	WORD	wordpools/wasnorm_wordpool_576.txt	LTP325	ltpFR2	11	4	HONEY	713	n/a	n/a	0	0	0
733022	WORD	wordpools/wasnorm_wordpool_576.txt	LTP325	ltpFR2	11	4	HORNET	718	n/a	n/a	0	0	0
735539	WORD	wordpools/wasnorm_wordpool_576.txt	LTP325	ltpFR2	11	4	SHORTCAKE	1292	n/a	n/a	0	0	0
738358	WORD	wordpools/wasnorm_wordpool_576.txt	LTP325	ltpFR2	11	4	CRUTCH	417	n/a	n/a	0	0	0
741145	WORD	wordpools/wasnorm_wordpool_576.txt	LTP325	ltpFR2	11	4	KLEENEX	782	n/a	n/a	0	0	0
743630	WORD	wordpools/wasnorm_wordpool_576.txt	LTP325	ltpFR2	11	4	NIGHTGOWN	953	n/a	n/a	0	0	0
746099	WORD	wordpools/wasnorm_wordpool_576.txt	LTP325	ltpFR2	11	4	CLOCK	325	n/a	n/a	0	0	0
748885	WORD	wordpools/wasnorm_wordpool_576.txt	LTP325	ltpFR2	11	4	HUSBAND	728	n/a	n/a	0	0	0
751620	WORD	wordpools/wasnorm_wordpool_576.txt	LTP325	ltpFR2	11	4	LUMBER	848	n/a	n/a	0	0	0
754423	WORD	wordpools/wasnorm_wordpool_576.txt	LTP325	ltpFR2	11	4	PORTRAIT	1111	n/a	n/a	0	0	0
757209	WORD	wordpools/wasnorm_wordpool_576.txt	LTP325	ltpFR2	11	4	JEANS	752	n/a	n/a	0	0	0
759761	WORD	wordpools/wasnorm_wordpool_576.txt	LTP325	ltpFR2	11	4	SERVER	1272	n/a	n/a	0	0	0
762596	WORD	wordpools/wasnorm_wordpool_576.txt	LTP325	ltpFR2	11	4	SPONGE	1355	n/a	n/a	0	0	0
765199	WORD	wordpools/wasnorm_wordpool_576.txt	LTP325	ltpFR2	11	4	BLACKBOARD	133	n/a	n/a	0	0	0
767885	WORD	wordpools/wasnorm_wordpool_576.txt	LTP325	ltpFR2	11	4	PICTURE	1061	n/a	n/a	0	0	0
769502	START	n/a	LTP325	ltpFR2	11	n/a	n/a	n/a	7	n/a	n/a	n/a	n/a
770597	DISTRACTOR	n/a	LTP325	ltpFR2	11	4	n/a	n/a	n/a	n/a	0	0	0
770620	PROB	n/a	LTP325	ltpFR2	11	n/a	n/a	n/a	7	12	2	7	3
772321	PROB	n/a	LTP325	ltpFR2	11	n/a	n/a	n/a	7	12	8	1	3
774107	PROB	n/a	LTP325	ltpFR2	11	n/a	n/a	n/a	7	15	7	6	2
776458	PROB	n/a	LTP325	ltpFR2	11	n/a	n/a	n/a	7	14	1	7	6
779344	PROB	n/a	LTP325	ltpFR2	11	n/a	n/a	n/a	7	11	4	5	2
781279	PROB	n/a	LTP325	ltpFR2	11	n/a	n/a	n/a	7	14	3	6	5
783298	PROB	n/a	LTP325	ltpFR2	11	n/a	n/a	n/a	7	27	7	9	9
787102	PROB	n/a	LTP325	ltpFR2	11	n/a	n/a	n/a	7	13	8	2	3
788802	PROB	n/a	LTP325	ltpFR2	11	n/a	n/a	n/a	7	26	8	9	9
793502	STOP	n/a	LTP325	ltpFR2	11	n/a	n/a	n/a	7	n/a	n/a	n/a	n/a
795442	REC_START	n/a	LTP325	ltpFR2	11	4	n/a	n/a	n/a	n/a	0	0	0
798493	REC_WORD	wordpools/wasnorm_wordpool_576.txt	LTP325	ltpFR2	11	4	PRINCE	1124	n/a	n/a	0	0	0
799798	REC_WORD	wordpools/wasnorm_wordpool_576.txt	LTP325	ltpFR2	11	4	THRONE	1461	n/a	n/a	0	0	0
801131	REC_WORD	wordpools/wasnorm_wordpool_576.txt	LTP325	ltpFR2	11	4	LEG	809	n/a	n/a	0	0	0
802257	REC_WORD	wordpools/wasnorm_wordpool_576.txt	LTP325	ltpFR2	11	4	CHURCH	307	n/a	n/a	0	0	0
805899	REC_WORD	wordpools/wasnorm_wordpool_576.txt	LTP325	ltpFR2	11	4	HUSBAND	728	n/a	n/a	0	0	0
816449	REC_WORD	wordpools/wasnorm_wordpool_576.txt	LTP325	ltpFR2	11	4	SERVER	1272	n/a	n/a	0	0	0
818017	REC_WORD	wordpools/wasnorm_wordpool_576.txt	LTP325	ltpFR2	11	4	BLACKBOARD	133	n/a	n/a	0	0	0
827327	REC_WORD	wordpools/wasnorm_wordpool_576.txt	LTP325	ltpFR2	11	4	SPONGE	1355	n/a	n/a	0	0	0
849289	REC_WORD	wordpools/wasnorm_wordpool_576.txt	LTP325	ltpFR2	11	4	CRUTCH	417	n/a	n/a	0	0	0
886088	WORD	wordpools/wasnorm_wordpool_576.txt	LTP325	ltpFR2	11	5	GLASS	639	n/a	n/a	0	0	0
888539	WORD	wordpools/wasnorm_wordpool_576.txt	LTP325	ltpFR2	11	5	PASTRY	1022	n/a	n/a	0	0	0
891258	WORD	wordpools/wasnorm_wordpool_576.txt	LTP325	ltpFR2	11	5	TART	1436	n/a	n/a	0	0	0
893878	WORD	wordpools/wasnorm_wordpool_576.txt	LTP325	ltpFR2	11	5	BARREL	91	n/a	n/a	0	0	0
896513	WORD	wordpools/wasnorm_wordpool_576.txt	LTP325	ltpFR2	11	5	TWIG	1527	n/a	n/a	0	0	0
899016	WORD	wordpools/wasnorm_wordpool_576.txt	LTP325	ltpFR2	11	5	IDOL	733	n/a	n/a	0	0	0
901684	WORD	wordpools/wasnorm_wordpool_576.txt	LTP325	ltpFR2	11	5	JELLO	754	n/a	n/a	0	0	0
904453	WORD	wordpools/wasnorm_wordpool_576.txt	LTP325	ltpFR2	11	5	VIRUS	1572	n/a	n/a	0	0	0
907239	WORD	wordpools/wasnorm_wordpool_576.txt	LTP325	ltpFR2	11	5	CANAL	226	n/a	n/a	0	0	0
909976	WORD	wordpools/wasnorm_wordpool_576.txt	LTP325	ltpFR2	11	5	MARINE	869	n/a	n/a	0	0	0
912510	WORD	wordpools/wasnorm_wordpool_576.txt	LTP325	ltpFR2	11	5	PUDDING	1139	n/a	n/a	0	0	0
915113	WORD	wordpools/wasnorm_wordpool_576.txt	LTP325	ltpFR2	11	5	MAILBOX	857	n/a	n/a	0	0	0
917765	WORD	wordpools/wasnorm_wordpool_576.txt	LTP325	ltpFR2	11	5	RADISH	1158	n/a	n/a	0	0	0
920267	WORD	wordpools/wasnorm_wordpool_576.txt	LTP325	ltpFR2	11	5	TWISTER	1530	n/a	n/a	0	0	0
922920	WORD	wordpools/wasnorm_wordpool_576.txt	LTP325	ltpFR2	11	5	CATTLE	261	n/a	n/a	0	0	0
925405	WORD	wordpools/wasnorm_wordpool_576.txt	LTP325	ltpFR2	11	5	RABBIT	1152	n/a	n/a	0	0	0
927975	WORD	wordpools/wasnorm_wordpool_576.txt	LTP325	ltpFR2	11	5	HEDGE	699	n/a	n/a	0	0	0
930509	WORD	wordpools/wasnorm_wordpool_576.txt	LTP325	ltpFR2	11	5	SIBLING	1301	n/a	n/a	0	0	0
933129	WORD	wordpools/wasnorm_wordpool_576.txt	LTP325	ltpFR2	11	5	FRIEND	606	n/a	n/a	0	0	0
935814	WORD	wordpools/wasnorm_wordpool_576.txt	LTP325	ltpFR2	11	5	MONEY	908	n/a	n/a	0	0	0
938366	WORD	wordpools/wasnorm_wordpool_576.txt	LTP325	ltpFR2	11	5	VIKING	1565	n/a	n/a	0	0	0
940886	WORD	wordpools/wasnorm_wordpool_576.txt	LTP325	ltpFR2	11	5	STREAM	1392	n/a	n/a	0	0	0
943621	WORD	wordpools/wasnorm_wordpool_576.txt	LTP325	ltpFR2	11	5	QUAIL	1147	n/a	n/a	0	0	0
946074	WORD	wordpools/wasnorm_wordpool_576.txt	LTP325	ltpFR2	11	5	BREAST	171	n/a	n/a	0	0	0
947691	START	n/a	LTP325	ltpFR2	11	n/a	n/a	n/a	8	n/a	n/a	n/a	n/a
948493	DISTRACTOR	n/a	LTP325	ltpFR2	11	5	n/a	n/a	n/a	n/a	0	0	0
948508	PROB	n/a	LTP325	ltpFR2	11	n/a	n/a	n/a	8	20	8	4	8
951095	PROB	n/a	LTP325	ltpFR2	11	n/a	n/a	n/a	8	15	3	3	8
953964	PROB	n/a	LTP325	ltpFR2	11	n/a	n/a	n/a	8	20	9	4	7
957083	PROB	n/a	LTP325	ltpFR2	11	n/a	n/a	n/a	8	9	3	4	2
959434	PROB	n/a	LTP325	ltpFR2	11	n/a	n/a	n/a	8	12	2	4	6
961170	PROB	n/a	LTP325	ltpFR2	11	n/a	n/a	n/a	8	24	8	9	7
964355	PROB	n/a	LTP325	ltpFR2	11	n/a	n/a	n/a	8	20	9	4	7
966557	PROB	n/a	LTP325	ltpFR2	11	n/a	n/a	n/a	8	15	6	3	6
968109	PROB	n/a	LTP325	ltpFR2	11	n/a	n/a	n/a	8	16	8	4	4
970879	STOP	n/a	LTP325	ltpFR2	11	n/a	n/a	n/a	8	n/a	n/a	n/a	n/a
973480	REC_START	n/a	LTP325	ltpFR2	11	5	n/a	n/a	n/a	n/a	0	0	0
996512	REC_WORD	wordpools/wasnorm_wordpool_576.txt	LTP325	ltpFR2	11	5	BREAST	171	n/a	n/a	0	0	0
1014604	REC_WORD	wordpools/wasnorm_wordpool_576.txt	LTP325	ltpFR2	11	5	FRIEND	606	n/a	n/a	0	0	0
1016120	REC_WORD	wordpools/wasnorm_wordpool_576.txt	LTP325	ltpFR2	11	5	SIBLING	1301	n/a	n/a	0	0	0
1017721	REC_WORD	wordpools/wasnorm_wordpool_576.txt	LTP325	ltpFR2	11	5	MONEY	908	n/a	n/a	0	0	0
1039614	REC_WORD	wordpools/wasnorm_wordpool_576.txt	LTP325	ltpFR2	11	5	TURNIP	1521	n/a	n/a	0	0	0
1040954	REC_WORD	wordpools/wasnorm_wordpool_576.txt	LTP325	ltpFR2	11	5	MAILBOX	857	n/a	n/a	0	0	0
1041954	REC_WORD_VV	wordpools/wasnorm_wordpool_576.txt	LTP325	ltpFR2	11	5	<>	-1	n/a	n/a	0	0	0
1064093	DISTRACTOR	n/a	LTP325	ltpFR2	11	6	n/a	n/a	n/a	n/a	0	0	0
1064093	START	n/a	LTP325	ltpFR2	11	n/a	n/a	n/a	9	n/a	n/a	n/a	n/a
1064126	PROB	n/a	LTP325	ltpFR2	11	n/a	n/a	n/a	9	16	6	6	4
1065911	PROB	n/a	LTP325	ltpFR2	11	n/a	n/a	n/a	9	18	2	9	7
1068312	PROB	n/a	LTP325	ltpFR2	11	n/a	n/a	n/a	9	20	9	2	9
1070231	PROB	n/a	LTP325	ltpFR2	11	n/a	n/a	n/a	9	15	7	5	3
1072050	PROB	n/a	LTP325	ltpFR2	11	n/a	n/a	n/a	9	10	4	5	1
1074102	PROB	n/a	LTP325	ltpFR2	11	n/a	n/a	n/a	9	18	4	7	7
1076486	PROB	n/a	LTP325	ltpFR2	11	n/a	n/a	n/a	9	7	1	2	4
1078488	PROB	n/a	LTP325	ltpFR2	11	n/a	n/a	n/a	9	16	8	3	5
1080924	PROB	n/a	LTP325	ltpFR2	11	n/a	n/a	n/a	9	16	6	4	6
1082859	PROB	n/a	LTP325	ltpFR2	11	n/a	n/a	n/a	9	17	6	4	7
1084426	PROB	n/a	LTP325	ltpFR2	11	n/a	n/a	n/a	9	16	2	5	9
1088093	STOP	n/a	LTP325	ltpFR2	11	n/a	n/a	n/a	9	n/a	n/a	n/a	n/a
1089215	WORD	wordpools/wasnorm_wordpool_576.txt	LTP325	ltpFR2	11	6	PEPPER	1047	n/a	n/a	0	0	0
1091884	WORD	wordpools/wasnorm_wordpool_576.txt	LTP325	ltpFR2	11	6	MARKER	870	n/a	n/a	0	0	0
1094635	WORD	wordpools/wasnorm_wordpool_576.txt	LTP325	ltpFR2	11	6	DRAGON	492	n/a	n/a	0	0	0
1097237	WORD	wordpools/wasnorm_wordpool_576.txt	LTP325	ltpFR2	11	6	LODGE	839	n/a	n/a	0	0	0
1099723	WORD	wordpools/wasnorm_wordpool_576.txt	LTP325	ltpFR2	11	6	MONSTER	912	n/a	n/a	0	0	0
1102309	WORD	wordpools/wasnorm_wordpool_576.txt	LTP325	ltpFR2	11	6	HAMPER	682	n/a	n/a	0	0	0
1104777	WORD	wordpools/wasnorm_wordpool_576.txt	LTP325	ltpFR2	11	6	IGLOO	734	n/a	n/a	0	0	0
1107496	WORD	wordpools/wasnorm_wordpool_576.txt	LTP325	ltpFR2	11	6	ICING	732	n/a	n/a	0	0	0
1109950	WORD	wordpools/wasnorm_wordpool_576.txt	LTP325	ltpFR2	11	6	ZIPPER	1636	n/a	n/a	0	0	0
1112467	WORD	wordpools/wasnorm_wordpool_576.txt	LTP325	ltpFR2	11	6	ICEBERG	731	n/a	n/a	0	0	0
1115171	WORD	wordpools/wasnorm_wordpool_576.txt	LTP325	ltpFR2	11	6	SLUG	1329	n/a	n/a	0	0	0
1117923	WORD	wordpools/wasnorm_wordpool_576.txt	LTP325	ltpFR2	11	6	PIZZA	1079	n/a	n/a	0	0	0
1120574	WORD	wordpools/wasnorm_wordpool_576.txt	LTP325	ltpFR2	11	6	PLASTER	1085	n/a	n/a	0	0	0
1123327	WORD	wordpools/wasnorm_wordpool_576.txt	LTP325	ltpFR2	11	6	CYCLONE	431	n/a	n/a	0	0	0
1125847	WORD	wordpools/wasnorm_wordpool_576.txt	LTP325	ltpFR2	11	6	GLOVE	642	n/a	n/a	0	0	0
1128381	WORD	wordpools/wasnorm_wordpool_576.txt	LTP325	ltpFR2	11	6	STATUE	1374	n/a	n/a	0	0	0
1130934	WORD	wordpools/wasnorm_wordpool_576.txt	LTP325	ltpFR2	11	6	SCULPTURE	1258	n/a	n/a	0	0	0
1133752	WORD	wordpools/wasnorm_wordpool_576.txt	LTP325	ltpFR2	11	6	PAPER	1011	n/a	n/a	0	0	0
1136372	WORD	wordpools/wasnorm_wordpool_576.txt	LTP325	ltpFR2	11	6	STAPLE	1371	n/a	n/a	0	0	0
1139208	WORD	wordpools/wasnorm_wordpool_576.txt	LTP325	ltpFR2	11	6	JURY	766	n/a	n/a	0	0	0
1141726	WORD	wordpools/wasnorm_wordpool_576.txt	LTP325	ltpFR2	11	6	COTTAGE	384	n/a	n/a	0	0	0
1144395	WORD	wordpools/wasnorm_wordpool_576.txt	LTP325	ltpFR2	11	6	BARLEY	88	n/a	n/a	0	0	0
1147215	WORD	wordpools/wasnorm_wordpool_576.txt	LTP325	ltpFR2	11	6	SCARECROW	1245	n/a	n/a	0	0	0
1150001	WORD	wordpools/wasnorm_wordpool_576.txt	LTP325	ltpFR2	11	6	WAITER	1580	n/a	n/a	0	0	0
1151618	START	n/a	LTP325	ltpFR2	11	n/a	n/a	n/a	10	n/a	n/a	n/a	n/a
1152579	DISTRACTOR	n/a	LTP325	ltpFR2	11	6	n/a	n/a	n/a	n/a	0	0	0
1152602	PROB	n/a	LTP325	ltpFR2	11	n/a	n/a	n/a	10	16	9	3	4
1156173	PROB	n/a	LTP325	ltpFR2	11	n/a	n/a	n/a	10	14	5	4	5
1157858	PROB	n/a	LTP325	ltpFR2	11	n/a	n/a	n/a	10	14	5	8	1
1159860	PROB	n/a	LTP325	ltpFR2	11	n/a	n/a	n/a	10	26	9	9	6
1163046	PROB	n/a	LTP325	ltpFR2	11	n/a	n/a	n/a	10	21	8	4	9
1167415	PROB	n/a	LTP325	ltpFR2	11	n/a	n/a	n/a	10	7	3	2	2
1169384	PROB	n/a	LTP325	ltpFR2	11	n/a	n/a	n/a	10	11	3	1	7
1175618	STOP	n/a	LTP325	ltpFR2	11	n/a	n/a	n/a	10	n/a	n/a	n/a	n/a
1177458	REC_START	n/a	LTP325	ltpFR2	11	6	n/a	n/a	n/a	n/a	0	0	0
1250309	REC_WORD	wordpools/wasnorm_wordpool_576.txt	LTP325	ltpFR2	11	6	MARKER	870	n/a	n/a	0	0	0
1251886	REC_WORD	wordpools/wasnorm_wordpool_576.txt	LTP325	ltpFR2	11	6	PEPPER	1047	n/a	n/a	0	0	0
1267920	WORD	wordpools/wasnorm_wordpool_576.txt	LTP325	ltpFR2	11	7	PADDING	999	n/a	n/a	0	0	0
1270472	WORD	wordpools/wasnorm_wordpool_576.txt	LTP325	ltpFR2	11	7	VELVET	1555	n/a	n/a	0	0	0
1272958	WORD	wordpools/wasnorm_wordpool_576.txt	LTP325	ltpFR2	11	7	TREAT	1501	n/a	n/a	0	0	0
1275709	WORD	wordpools/wasnorm_wordpool_576.txt	LTP325	ltpFR2	11	7	SOFTBALL	1343	n/a	n/a	0	0	0
1278362	WORD	wordpools/wasnorm_wordpool_576.txt	LTP325	ltpFR2	11	7	CRICKET	408	n/a	n/a	0	0	0
1281148	WORD	wordpools/wasnorm_wordpool_576.txt	LTP325	ltpFR2	11	7	SUPPER	1411	n/a	n/a	0	0	0
1283934	WORD	wordpools/wasnorm_wordpool_576.txt	LTP325	ltpFR2	11	7	ZEBRA	1635	n/a	n/a	0	0	0
1286619	WORD	wordpools/wasnorm_wordpool_576.txt	LTP325	ltpFR2	11	7	PECAN	1036	n/a	n/a	0	0	0
1289221	WORD	wordpools/wasnorm_wordpool_576.txt	LTP325	ltpFR2	11	7	BABY	64	n/a	n/a	0	0	0
1292008	WORD	wordpools/wasnorm_wordpool_576.txt	LTP325	ltpFR2	11	7	PIGMENT	1066	n/a	n/a	0	0	0
1294659	WORD	wordpools/wasnorm_wordpool_576.txt	LTP325	ltpFR2	11	7	WAGON	1578	n/a	n/a	0	0	0
1297163	WORD	wordpools/wasnorm_wordpool_576.txt	LTP325	ltpFR2	11	7	CASHEW	253	n/a	n/a	0	0	0
1299948	WORD	wordpools/wasnorm_wordpool_576.txt	LTP325	ltpFR2	11	7	WRENCH	1625	n/a	n/a	0	0	0
1302399	WORD	wordpools/wasnorm_wordpool_576.txt	LTP325	ltpFR2	11	7	DUST	508	n/a	n/a	0	0	0
1304902	WORD	wordpools/wasnorm_wordpool_576.txt	LTP325	ltpFR2	11	7	DUSTPAN	509	n/a	n/a	0	0	0
1307487	WORD	wordpools/wasnorm_wordpool_576.txt	LTP325	ltpFR2	11	7	PARTNER	1017	n/a	n/a	0	0	0
1309974	WORD	wordpools/wasnorm_wordpool_576.txt	LTP325	ltpFR2	11	7	SPOON	1357	n/a	n/a	0	0	0
1312441	WORD	wordpools/wasnorm_wordpool_576.txt	LTP325	ltpFR2	11	7	SUNSET	1408	n/a	n/a	0	0	0
1315145	WORD	wordpools/wasnorm_wordpool_576.txt	LTP325	ltpFR2	11	7	POCKET	1093	n/a	n/a	0	0	0
1317914	WORD	wordpools/wasnorm_wordpool_576.txt	LTP325	ltpFR2	11	7	TYPIST	1532	n/a	n/a	0	0	0
1320615	WORD	wordpools/wasnorm_wordpool_576.txt	LTP325	ltpFR2	11	7	SALAD	1224	n/a	n/a	0	0	0
1323418	WORD	wordpools/wasnorm_wordpool_576.txt	LTP325	ltpFR2	11	7	CRAYON	401	n/a	n/a	0	0	0
1326138	WORD	wordpools/wasnorm_wordpool_576.txt	LTP325	ltpFR2	11	7	MATCH	878	n/a	n/a	0	0	0
1328806	WORD	wordpools/wasnorm_wordpool_576.txt	LTP325	ltpFR2	11	7	CASHIER	254	n/a	n/a	0	0	0
1330424	START	n/a	LTP325	ltpFR2	11	n/a	n/a	n/a	11	n/a	n/a	n/a	n/a
1331262	DISTRACTOR	n/a	LTP325	ltpFR2	11	7	n/a	n/a	n/a	n/a	0	0	0
1331274	PROB	n/a	LTP325	ltpFR2	11	n/a	n/a	n/a	11	14	9	2	3
1334461	PROB	n/a	LTP325	ltpFR2	11	n/a	n/a	n/a	11	12	2	8	2
1335828	PROB	n/a	LTP325	ltpFR2	11	n/a	n/a	n/a	11	14	8	2	3
1337280	PROB	n/a	LTP325	ltpFR2	11	n/a	n/a	n/a	11	20	8	3	9
1340282	PROB	n/a	LTP325	ltpFR2	11	n/a	n/a	n/a	11	18	6	4	8
1341901	PROB	n/a	LTP325	ltpFR2	11	n/a	n/a	n/a	11	22	7	6	9
1348723	PROB	n/a	LTP325	ltpFR2	11	n/a	n/a	n/a	11	5	3	1	1
1350641	PROB	n/a	LTP325	ltpFR2	11	n/a	n/a	n/a	11	19	5	8	6
1353126	STOP	n/a	LTP325	ltpFR2	11	n/a	n/a	n/a	11	n/a	n/a	n/a	n/a
1356230	REC_START	n/a	LTP325	ltpFR2	11	7	n/a	n/a	n/a	n/a	0	0	0
1358575	REC_WORD	wordpools/wasnorm_wordpool_576.txt	LTP325	ltpFR2	11	7	TYPIST	1532	n/a	n/a	0	0	0
1360239	REC_WORD	wordpools/wasnorm_wordpool_576.txt	LTP325	ltpFR2	11	7	PIANO	1057	n/a	n/a	0	0	0
1391102	REC_WORD	wordpools/wasnorm_wordpool_576.txt	LTP325	ltpFR2	11	7	CRAYON	401	n/a	n/a	0	0	0
1392918	REC_WORD	wordpools/wasnorm_wordpool_576.txt	LTP325	ltpFR2	11	7	MATCH	878	n/a	n/a	0	0	0
1397716	REC_WORD	wordpools/wasnorm_wordpool_576.txt	LTP325	ltpFR2	11	7	CASHEW	253	n/a	n/a	0	0	0
1399271	REC_WORD	wordpools/wasnorm_wordpool_576.txt	LTP325	ltpFR2	11	7	PECAN	1036	n/a	n/a	0	0	0
1401376	REC_WORD	wordpools/wasnorm_wordpool_576.txt	LTP325	ltpFR2	11	7	CRICKET	408	n/a	n/a	0	0	0
1402290	REC_WORD	wordpools/wasnorm_wordpool_576.txt	LTP325	ltpFR2	11	7	SOFTBALL	1343	n/a	n/a	0	0	0
1403290	REC_WORD_VV	wordpools/wasnorm_wordpool_576.txt	LTP325	ltpFR2	11	7	<>	-1	n/a	n/a	0	0	0
1404079	REC_WORD	wordpools/wasnorm_wordpool_576.txt	LTP325	ltpFR2	11	7	DINNER	468	n/a	n/a	0	0	0
1419326	REC_WORD	wordpools/wasnorm_wordpool_576.txt	LTP325	ltpFR2	11	7	DUST	508	n/a	n/a	0	0	0
1420750	REC_WORD	wordpools/wasnorm_wordpool_576.txt	LTP325	ltpFR2	11	7	DUSTPAN	509	n/a	n/a	0	0	0
1446708	WORD	wordpools/wasnorm_wordpool_576.txt	LTP325	ltpFR2	11	8	CEILING	265	n/a	n/a	0	0	0
1449444	WORD	wordpools/wasnorm_wordpool_576.txt	LTP325	ltpFR2	11	8	NURSE	963	n/a	n/a	0	0	0
1452181	WORD	wordpools/wasnorm_wordpool_576.txt	LTP325	ltpFR2	11	8	STAR	1373	n/a	n/a	0	0	0
1454815	WORD	wordpools/wasnorm_wordpool_576.txt	LTP325	ltpFR2	11	8	CHAUFFEUR	283	n/a	n/a	0	0	0
1457434	WORD	wordpools/wasnorm_wordpool_576.txt	LTP325	ltpFR2	11	8	DRILL	497	n/a	n/a	0	0	0
1460087	WORD	wordpools/wasnorm_wordpool_576.txt	LTP325	ltpFR2	11	8	PLIERS	1089	n/a	n/a	0	0	0
1462890	WORD	wordpools/wasnorm_wordpool_576.txt	LTP325	ltpFR2	11	8	WASHER	1592	n/a	n/a	0	0	0
1465425	WORD	wordpools/wasnorm_wordpool_576.txt	LTP325	ltpFR2	11	8	UMPIRE	1535	n/a	n/a	0	0	0
1468243	WORD	wordpools/wasnorm_wordpool_576.txt	LTP325	ltpFR2	11	8	CIGAR	308	n/a	n/a	0	0	0
1470897	WORD	wordpools/wasnorm_wordpool_576.txt	LTP325	ltpFR2	11	8	CRAB	397	n/a	n/a	0	0	0
1473648	WORD	wordpools/wasnorm_wordpool_576.txt	LTP325	ltpFR2	11	8	HIGHWAY	707	n/a	n/a	0	0	0
1476434	WORD	wordpools/wasnorm_wordpool_576.txt	LTP325	ltpFR2	11	8	THREAD	1460	n/a	n/a	0	0	0
1479253	WORD	wordpools/wasnorm_wordpool_576.txt	LTP325	ltpFR2	11	8	RACKET	1155	n/a	n/a	0	0	0
1481772	WORD	wordpools/wasnorm_wordpool_576.txt	LTP325	ltpFR2	11	8	CATCHER	258	n/a	n/a	0	0	0
1484274	WORD	wordpools/wasnorm_wordpool_576.txt	LTP325	ltpFR2	11	8	WRIST	1626	n/a	n/a	0	0	0
1487011	WORD	wordpools/wasnorm_wordpool_576.txt	LTP325	ltpFR2	11	8	CURTAIN	427	n/a	n/a	0	0	0
1489712	WORD	wordpools/wasnorm_wordpool_576.txt	LTP325	ltpFR2	11	8	WINDOW	1611	n/a	n/a	0	0	0
1492315	WORD	wordpools/wasnorm_wordpool_576.txt	LTP325	ltpFR2	11	8	INMATE	738	n/a	n/a	0	0	0
1495085	WORD	wordpools/wasnorm_wordpool_576.txt	LTP325	ltpFR2	11	8	CORAL	378	n/a	n/a	0	0	0
1497669	WORD	wordpools/wasnorm_wordpool_576.txt	LTP325	ltpFR2	11	8	CITRUS	313	n/a	n/a	0	0	0
1500288	WORD	wordpools/wasnorm_wordpool_576.txt	LTP325	ltpFR2	11	8	MOP	916	n/a	n/a	0	0	0
1502908	WORD	wordpools/wasnorm_wordpool_576.txt	LTP325	ltpFR2	11	8	JAPAN	749	n/a	n/a	0	0	0
1505476	WORD	wordpools/wasnorm_wordpool_576.txt	LTP325	ltpFR2	11	8	CAFE	216	n/a	n/a	0	0	0
1508113	WORD	wordpools/wasnorm_wordpool_576.txt	LTP325	ltpFR2	11	8	INFANT	737	n/a	n/a	0	0	0
1509730	START	n/a	LTP325	ltpFR2	11	n/a	n/a	n/a	12	n/a	n/a	n/a	n/a
1510893	DISTRACTOR	n/a	LTP325	ltpFR2	11	8	n/a	n/a	n/a	n/a	0	0	0
1510915	PROB	n/a	LTP325	ltpFR2	11	n/a	n/a	n/a	12	25	9	7	9
1518270	PROB	n/a	LTP325	ltpFR2	11	n/a	n/a	n/a	12	17	7	1	9
1520789	PROB	n/a	LTP325	ltpFR2	11	n/a	n/a	n/a	12	8	1	1	6
1522274	PROB	n/a	LTP325	ltpFR2	11	n/a	n/a	n/a	12	25	8	8	9
1525144	PROB	n/a	LTP325	ltpFR2	11	n/a	n/a	n/a	12	17	8	3	6
1528130	PROB	n/a	LTP325	ltpFR2	11	n/a	n/a	n/a	12	14	7	5	2
1530665	PROB	n/a	LTP325	ltpFR2	11	n/a	n/a	n/a	12	11	3	1	7
1531917	PROB	n/a	LTP325	ltpFR2	11	n/a	n/a	n/a	12	10	1	8	1
1533260	STOP	n/a	LTP325	ltpFR2	11	n/a	n/a	n/a	12	n/a	n/a	n/a	n/a
1535553	REC_START	n/a	LTP325	ltpFR2	11	8	n/a	n/a	n/a	n/a	0	0	0
1540713	REC_WORD	wordpools/wasnorm_wordpool_576.txt	LTP325	ltpFR2	11	8	CATCHER	258	n/a	n/a	0	0	0
1542613	REC_WORD	wordpools/wasnorm_wordpool_576.txt	LTP325	ltpFR2	11	8	WRIST	1626	n/a	n/a	0	0	0
1544612	REC_WORD	wordpools/wasnorm_wordpool_576.txt	LTP325	ltpFR2	11	8	CURTAIN	427	n/a	n/a	0	0	0
1546257	REC_WORD	wordpools/wasnorm_wordpool_576.txt	LTP325	ltpFR2	11	8	CEILING	265	n/a	n/a	0	0	0
1547837	REC_WORD	wordpools/wasnorm_wordpool_576.txt	LTP325	ltpFR2	11	8	NURSE	963	n/a	n/a	0	0	0
1566002	REC_WORD	wordpools/wasnorm_wordpool_576.txt	LTP325	ltpFR2	11	8	WINDOW	1611	n/a	n/a	0	0	0
1567381	REC_WORD	wordpools/wasnorm_wordpool_576.txt	LTP325	ltpFR2	11	8	INMATE	738	n/a	n/a	0	0	0
1568669	REC_WORD	wordpools/wasnorm_wordpool_576.txt	LTP325	ltpFR2	11	8	CORAL	378	n/a	n/a	0	0	0
1612103	REST_REWET	n/a	LTP325	ltpFR2	11	8	n/a	n/a	n/a	n/a	0	0	0
1871561	WORD	wordpools/wasnorm_wordpool_576.txt	LTP325	ltpFR2	11	9	SCRIBBLE	1256	n/a	n/a	0	0	0
1874181	WORD	wordpools/wasnorm_wordpool_576.txt	LTP325	ltpFR2	11	9	NOTEBOOK	959	n/a	n/a	0	0	0
1877000	WORD	wordpools/wasnorm_wordpool_576.txt	LTP325	ltpFR2	11	9	LABEL	790	n/a	n/a	0	0	0
1879518	WORD	wordpools/wasnorm_wordpool_576.txt	LTP325	ltpFR2	11	9	CHAPEL	280	n/a	n/a	0	0	0
1882205	WORD	wordpools/wasnorm_wordpool_576.txt	LTP325	ltpFR2	11	9	ORCHID	982	n/a	n/a	0	0	0
1884874	WORD	wordpools/wasnorm_wordpool_576.txt	LTP325	ltpFR2	11	9	SHARK	1275	n/a	n/a	0	0	0
1887508	WORD	wordpools/wasnorm_wordpool_576.txt	LTP325	ltpFR2	11	9	BUCKET	184	n/a	n/a	0	0	0
1890277	WORD	wordpools/wasnorm_wordpool_576.txt	LTP325	ltpFR2	11	9	FLOWER	584	n/a	n/a	0	0	0
1892847	WORD	wordpools/wasnorm_wordpool_576.txt	LTP325	ltpFR2	11	9	PLATE	1086	n/a	n/a	0	0	0
1895282	WORD	wordpools/wasnorm_wordpool_576.txt	LTP325	ltpFR2	11	9	BUBBLE	183	n/a	n/a	0	0	0
1897985	WORD	wordpools/wasnorm_wordpool_576.txt	LTP325	ltpFR2	11	9	RATTLE	1170	n/a	n/a	0	0	0
1900687	WORD	wordpools/wasnorm_wordpool_576.txt	LTP325	ltpFR2	11	9	JUNGLE	764	n/a	n/a	0	0	0
1903123	WORD	wordpools/wasnorm_wordpool_576.txt	LTP325	ltpFR2	11	9	LEOPARD	812	n/a	n/a	0	0	0
1905808	WORD	wordpools/wasnorm_wordpool_576.txt	LTP325	ltpFR2	11	9	BRACES	164	n/a	n/a	0	0	0
1908477	WORD	wordpools/wasnorm_wordpool_576.txt	LTP325	ltpFR2	11	9	DENTIST	447	n/a	n/a	0	0	0
1911180	WORD	wordpools/wasnorm_wordpool_576.txt	LTP325	ltpFR2	11	9	FLIPPER	580	n/a	n/a	0	0	0
1913648	WORD	wordpools/wasnorm_wordpool_576.txt	LTP325	ltpFR2	11	9	SHOVEL	1295	n/a	n/a	0	0	0
1916400	WORD	wordpools/wasnorm_wordpool_576.txt	LTP325	ltpFR2	11	9	CROSS	413	n/a	n/a	0	0	0
1918970	WORD	wordpools/wasnorm_wordpool_576.txt	LTP325	ltpFR2	11	9	PEDAL	1037	n/a	n/a	0	0	0
1921638	WORD	wordpools/wasnorm_wordpool_576.txt	LTP325	ltpFR2	11	9	COBRA	336	n/a	n/a	0	0	0
1924274	WORD	wordpools/wasnorm_wordpool_576.txt	LTP325	ltpFR2	11	9	COUCH	386	n/a	n/a	0	0	0
1926894	WORD	wordpools/wasnorm_wordpool_576.txt	LTP325	ltpFR2	11	9	SHELF	1280	n/a	n/a	0	0	0
1929612	WORD	wordpools/wasnorm_wordpool_576.txt	LTP325	ltpFR2	11	9	FARMER	553	n/a	n/a	0	0	0
1932148	WORD	wordpools/wasnorm_wordpool_576.txt	LTP325	ltpFR2	11	9	VALLEY	1545	n/a	n/a	0	0	0
1933766	START	n/a	LTP325	ltpFR2	11	n/a	n/a	n/a	13	n/a	n/a	n/a	n/a
1934629	DISTRACTOR	n/a	LTP325	ltpFR2	11	9	n/a	n/a	n/a	n/a	0	0	0
1934633	PROB	n/a	LTP325	ltpFR2	11	n/a	n/a	n/a	13	10	1	6	3
1937186	PROB	n/a	LTP325	ltpFR2	11	n/a	n/a	n/a	13	21	9	7	5
1942958	PROB	n/a	LTP325	ltpFR2	11	n/a	n/a	n/a	13	15	5	7	3
1944625	PROB	n/a	LTP325	ltpFR2	11	n/a	n/a	n/a	13	21	8	4	9
1947895	PROB	n/a	LTP325	ltpFR2	11	n/a	n/a	n/a	13	17	8	2	7
1949847	PROB	n/a	LTP325	ltpFR2	11	n/a	n/a	n/a	13	20	9	3	8
1953183	PROB	n/a	LTP325	ltpFR2	11	n/a	n/a	n/a	13	9	2	2	5
1955334	PROB	n/a	LTP325	ltpFR2	11	n/a	n/a	n/a	13	10	7	1	2
1956820	STOP	n/a	LTP325	ltpFR2	11	n/a	n/a	n/a	13	n/a	n/a	n/a	n/a
1959571	REC_START	n/a	LTP325	ltpFR2	11	9	n/a	n/a	n/a	n/a	0	0	0
1960820	REC_WORD	wordpools/wasnorm_wordpool_576.txt	LTP325	ltpFR2	11	9	FARMER	553	n/a	n/a	0	0	0
1963197	REC_WORD	wordpools/wasnorm_wordpool_576.txt	LTP325	ltpFR2	11	9	SCRIBBLE	1256	n/a	n/a	0	0	0
1964754	REC_WORD	wordpools/wasnorm_wordpool_576.txt	LTP325	ltpFR2	11	9	NOTEBOOK	959	n/a	n/a	0	0	0
1966571	REC_WORD	wordpools/wasnorm_wordpool_576.txt	LTP325	ltpFR2	11	9	LABEL	790	n/a	n/a	0	0	0
1970107	REC_WORD	wordpools/wasnorm_wordpool_576.txt	LTP325	ltpFR2	11	9	CHAPEL	280	n/a	n/a	0	0	0
1971676	REC_WORD	wordpools/wasnorm_wordpool_576.txt	LTP325	ltpFR2	11	9	ORCHID	982	n/a	n/a	0	0	0
1973347	REC_WORD	wordpools/wasnorm_wordpool_576.txt	LTP325	ltpFR2	11	9	FLOWER	584	n/a	n/a	0	0	0
1980365	REC_WORD	wordpools/wasnorm_wordpool_576.txt	LTP325	ltpFR2	11	9	COBRA	336	n/a	n/a	0	0	0
1981514	REC_WORD	wordpools/wasnorm_wordpool_576.txt	LTP325	ltpFR2	11	9	COUCH	386	n/a	n/a	0	0	0
1982444	REC_WORD	wordpools/wasnorm_wordpool_576.txt	LTP325	ltpFR2	11	9	SHELF	1280	n/a	n/a	0	0	0
2014879	REC_WORD	wordpools/wasnorm_wordpool_576.txt	LTP325	ltpFR2	11	9	JUNGLE	764	n/a	n/a	0	0	0
2016032	REC_WORD	wordpools/wasnorm_wordpool_576.txt	LTP325	ltpFR2	11	9	LEOPARD	812	n/a	n/a	0	0	0
2019744	REC_WORD	wordpools/wasnorm_wordpool_576.txt	LTP325	ltpFR2	11	9	BRACES	164	n/a	n/a	0	0	0
2020935	REC_WORD	wordpools/wasnorm_wordpool_576.txt	LTP325	ltpFR2	11	9	DENTIST	447	n/a	n/a	0	0	0
2050201	DISTRACTOR	n/a	LTP325	ltpFR2	11	10	n/a	n/a	n/a	n/a	0	0	0
2050201	START	n/a	LTP325	ltpFR2	11	n/a	n/a	n/a	14	n/a	n/a	n/a	n/a
2050233	PROB	n/a	LTP325	ltpFR2	11	n/a	n/a	n/a	14	17	1	9	7
2051986	PROB	n/a	LTP325	ltpFR2	11	n/a	n/a	n/a	14	19	7	8	4
2055105	PROB	n/a	LTP325	ltpFR2	11	n/a	n/a	n/a	14	20	7	8	5
2057706	PROB	n/a	LTP325	ltpFR2	11	n/a	n/a	n/a	14	14	1	7	6
2061526	PROB	n/a	LTP325	ltpFR2	11	n/a	n/a	n/a	14	20	7	9	4
2064779	PROB	n/a	LTP325	ltpFR2	11	n/a	n/a	n/a	14	15	4	8	3
2069600	PROB	n/a	LTP325	ltpFR2	11	n/a	n/a	n/a	14	20	5	6	9
2071452	PROB	n/a	LTP325	ltpFR2	11	n/a	n/a	n/a	14	11	5	5	1
2074201	STOP	n/a	LTP325	ltpFR2	11	n/a	n/a	n/a	14	n/a	n/a	n/a	n/a
2075422	WORD	wordpools/wasnorm_wordpool_576.txt	LTP325	ltpFR2	11	10	SKIRT	1319	n/a	n/a	0	0	0
2077925	WORD	wordpools/wasnorm_wordpool_576.txt	LTP325	ltpFR2	11	10	CUPBOARD	425	n/a	n/a	0	0	0
2080393	WORD	wordpools/wasnorm_wordpool_576.txt	LTP325	ltpFR2	11	10	COD	340	n/a	n/a	0	0	0
2083096	WORD	wordpools/wasnorm_wordpool_576.txt	LTP325	ltpFR2	11	10	PLAZA	1088	n/a	n/a	0	0	0
2085882	WORD	wordpools/wasnorm_wordpool_576.txt	LTP325	ltpFR2	11	10	SILK	1307	n/a	n/a	0	0	0
2088433	WORD	wordpools/wasnorm_wordpool_576.txt	LTP325	ltpFR2	11	10	POSSUM	1112	n/a	n/a	0	0	0
2091103	WORD	wordpools/wasnorm_wordpool_576.txt	LTP325	ltpFR2	11	10	LAVA	804	n/a	n/a	0	0	0
2093839	WORD	wordpools/wasnorm_wordpool_576.txt	LTP325	ltpFR2	11	10	SHELTER	1282	n/a	n/a	0	0	0
2096407	WORD	wordpools/wasnorm_wordpool_576.txt	LTP325	ltpFR2	11	10	SHORTS	1293	n/a	n/a	0	0	0
2098876	WORD	wordpools/wasnorm_wordpool_576.txt	LTP325	ltpFR2	11	10	CLAM	315	n/a	n/a	0	0	0
2101661	WORD	wordpools/wasnorm_wordpool_576.txt	LTP325	ltpFR2	11	10	BODY	145	n/a	n/a	0	0	0
2104397	WORD	wordpools/wasnorm_wordpool_576.txt	LTP325	ltpFR2	11	10	LACE	792	n/a	n/a	0	0	0
2106950	WORD	wordpools/wasnorm_wordpool_576.txt	LTP325	ltpFR2	11	10	KNAPSACK	783	n/a	n/a	0	0	0
2109585	WORD	wordpools/wasnorm_wordpool_576.txt	LTP325	ltpFR2	11	10	EUROPE	541	n/a	n/a	0	0	0
2112304	WORD	wordpools/wasnorm_wordpool_576.txt	LTP325	ltpFR2	11	10	OUTDOORS	987	n/a	n/a	0	0	0
2114823	WORD	wordpools/wasnorm_wordpool_576.txt	LTP325	ltpFR2	11	10	SCARF	1246	n/a	n/a	0	0	0
2117592	WORD	wordpools/wasnorm_wordpool_576.txt	LTP325	ltpFR2	11	10	SEAGULL	1261	n/a	n/a	0	0	0
2120394	WORD	wordpools/wasnorm_wordpool_576.txt	LTP325	ltpFR2	11	10	PERCH	1048	n/a	n/a	0	0	0
2123214	WORD	wordpools/wasnorm_wordpool_576.txt	LTP325	ltpFR2	11	10	PERFUME	1049	n/a	n/a	0	0	0
2126017	WORD	wordpools/wasnorm_wordpool_576.txt	LTP325	ltpFR2	11	10	BOUQUET	157	n/a	n/a	0	0	0
2128518	WORD	wordpools/wasnorm_wordpool_576.txt	LTP325	ltpFR2	11	10	TRIBE	1505	n/a	n/a	0	0	0
2131320	WORD	wordpools/wasnorm_wordpool_576.txt	LTP325	ltpFR2	11	10	NOMAD	955	n/a	n/a	0	0	0
2133924	WORD	wordpools/wasnorm_wordpool_576.txt	LTP325	ltpFR2	11	10	PENGUIN	1044	n/a	n/a	0	0	0
2136658	WORD	wordpools/wasnorm_wordpool_576.txt	LTP325	ltpFR2	11	10	MAMMAL	861	n/a	n/a	0	0	0
2138260	START	n/a	LTP325	ltpFR2	11	n/a	n/a	n/a	15	n/a	n/a	n/a	n/a
2139239	DISTRACTOR	n/a	LTP325	ltpFR2	11	10	n/a	n/a	n/a	n/a	0	0	0
2139244	PROB	n/a	LTP325	ltpFR2	11	n/a	n/a	n/a	15	18	7	6	5
2141779	PROB	n/a	LTP325	ltpFR2	11	n/a	n/a	n/a	15	18	9	1	8
2143231	PROB	n/a	LTP325	ltpFR2	11	n/a	n/a	n/a	15	13	8	3	2
2144732	PROB	n/a	LTP325	ltpFR2	11	n/a	n/a	n/a	15	13	2	2	9
2146767	PROB	n/a	LTP325	ltpFR2	11	n/a	n/a	n/a	15	11	3	7	1
2147986	PROB	n/a	LTP325	ltpFR2	11	n/a	n/a	n/a	15	21	6	6	9
2149670	PROB	n/a	LTP325	ltpFR2	11	n/a	n/a	n/a	15	11	1	3	7
2151172	PROB	n/a	LTP325	ltpFR2	11	n/a	n/a	n/a	15	15	6	4	5
2152656	PROB	n/a	LTP325	ltpFR2	11	n/a	n/a	n/a	15	17	1	7	9
2154507	PROB	n/a	LTP325	ltpFR2	11	n/a	n/a	n/a	15	19	4	8	7
2157743	PROB	n/a	LTP325	ltpFR2	11	n/a	n/a	n/a	15	16	6	2	8
2159295	PROB	n/a	LTP325	ltpFR2	11	n/a	n/a	n/a	15	11	3	3	5
2161165	STOP	n/a	LTP325	ltpFR2	11	n/a	n/a	n/a	15	n/a	n/a	n/a	n/a
2164017	REC_START	n/a	LTP325	ltpFR2	11	10	n/a	n/a	n/a	n/a	0	0	0
2166020	REC_WORD	wordpools/wasnorm_wordpool_576.txt	LTP325	ltpFR2	11	10	SKIRT	1319	n/a	n/a	0	0	0
2167559	REC_WORD	wordpools/wasnorm_wordpool_576.txt	LTP325	ltpFR2	11	10	CUPBOARD	425	n/a	n/a	0	0	0
2169119	REC_WORD	wordpools/wasnorm_wordpool_576.txt	LTP325	ltpFR2	11	10	COD	340	n/a	n/a	0	0	0
2171964	REC_WORD	wordpools/wasnorm_wordpool_576.txt	LTP325	ltpFR2	11	10	SILK	1307	n/a	n/a	0	0	0
2177679	REC_WORD	wordpools/wasnorm_wordpool_576.txt	LTP325	ltpFR2	11	10	SHORTS	1293	n/a	n/a	0	0	0
2183558	REC_WORD	wordpools/wasnorm_wordpool_576.txt	LTP325	ltpFR2	11	10	LACE	792	n/a	n/a	0	0	0
2184906	REC_WORD	wordpools/wasnorm_wordpool_576.txt	LTP325	ltpFR2	11	10	BODY	145	n/a	n/a	0	0	0
2189323	REC_WORD	wordpools/wasnorm_wordpool_576.txt	LTP325	ltpFR2	11	10	PENGUIN	1044	n/a	n/a	0	0	0
2194702	REC_WORD	wordpools/wasnorm_wordpool_576.txt	LTP325	ltpFR2	11	10	SCARF	1246	n/a	n/a	0	0	0
2254511	DISTRACTOR	n/a	LTP325	ltpFR2	11	11	n/a	n/a	n/a	n/a	0	0	0
2254511	START	n/a	LTP325	ltpFR2	11	n/a	n/a	n/a	16	n/a	n/a	n/a	n/a
2254544	PROB	n/a	LTP325	ltpFR2	11	n/a	n/a	n/a	16	12	2	5	5
2256808	PROB	n/a	LTP325	ltpFR2	11	n/a	n/a	n/a	16	18	3	8	7
2258458	PROB	n/a	LTP325	ltpFR2	11	n/a	n/a	n/a	16	11	4	5	2
2261527	PROB	n/a	LTP325	ltpFR2	11	n/a	n/a	n/a	16	15	7	5	3
2263694	PROB	n/a	LTP325	ltpFR2	11	n/a	n/a	n/a	16	13	4	2	7
2266665	PROB	n/a	LTP325	ltpFR2	11	n/a	n/a	n/a	16	17	3	9	5
2269433	PROB	n/a	LTP325	ltpFR2	11	n/a	n/a	n/a	16	22	9	9	4
2271385	PROB	n/a	LTP325	ltpFR2	11	n/a	n/a	n/a	16	20	6	7	7
2273586	PROB	n/a	LTP325	ltpFR2	11	n/a	n/a	n/a	16	18	8	7	3
2275106	PROB	n/a	LTP325	ltpFR2	11	n/a	n/a	n/a	16	17	5	6	6
2278511	STOP	n/a	LTP325	ltpFR2	11	n/a	n/a	n/a	16	n/a	n/a	n/a	n/a
2279492	WORD	wordpools/wasnorm_wordpool_576.txt	LTP325	ltpFR2	11	11	CREATURE	403	n/a	n/a	0	0	0
2282005	WORD	wordpools/wasnorm_wordpool_576.txt	LTP325	ltpFR2	11	11	APRON	35	n/a	n/a	0	0	0
2284429	WORD	wordpools/wasnorm_wordpool_576.txt	LTP325	ltpFR2	11	11	PISTON	1076	n/a	n/a	0	0	0
2287249	WORD	wordpools/wasnorm_wordpool_576.txt	LTP325	ltpFR2	11	11	MUMMY	932	n/a	n/a	0	0	0
2289800	WORD	wordpools/wasnorm_wordpool_576.txt	LTP325	ltpFR2	11	11	SHERIFF	1284	n/a	n/a	0	0	0
2292296	WORD	wordpools/wasnorm_wordpool_576.txt	LTP325	ltpFR2	11	11	BOX	159	n/a	n/a	0	0	0
2295056	WORD	wordpools/wasnorm_wordpool_576.txt	LTP325	ltpFR2	11	11	LILY	821	n/a	n/a	0	0	0
2297523	WORD	wordpools/wasnorm_wordpool_576.txt	LTP325	ltpFR2	11	11	PICNIC	1060	n/a	n/a	0	0	0
2300009	WORD	wordpools/wasnorm_wordpool_576.txt	LTP325	ltpFR2	11	11	AWARD	63	n/a	n/a	0	0	0
2302588	WORD	wordpools/wasnorm_wordpool_576.txt	LTP325	ltpFR2	11	11	HERO	706	n/a	n/a	0	0	0
2305391	WORD	wordpools/wasnorm_wordpool_576.txt	LTP325	ltpFR2	11	11	LASER	801	n/a	n/a	0	0	0
2307944	WORD	wordpools/wasnorm_wordpool_576.txt	LTP325	ltpFR2	11	11	GROUND	666	n/a	n/a	0	0	0
2310529	WORD	wordpools/wasnorm_wordpool_576.txt	LTP325	ltpFR2	11	11	HELMET	702	n/a	n/a	0	0	0
2313336	WORD	wordpools/wasnorm_wordpool_576.txt	LTP325	ltpFR2	11	11	BUGGY	188	n/a	n/a	0	0	0
2316056	WORD	wordpools/wasnorm_wordpool_576.txt	LTP325	ltpFR2	11	11	LAMP	798	n/a	n/a	0	0	0
2318491	WORD	wordpools/wasnorm_wordpool_576.txt	LTP325	ltpFR2	11	11	FIREPLACE	570	n/a	n/a	0	0	0
2321160	WORD	wordpools/wasnorm_wordpool_576.txt	LTP325	ltpFR2	11	11	EMPIRE	530	n/a	n/a	0	0	0
2323924	WORD	wordpools/wasnorm_wordpool_576.txt	LTP325	ltpFR2	11	11	FOREST	593	n/a	n/a	0	0	0
2326477	WORD	wordpools/wasnorm_wordpool_576.txt	LTP325	ltpFR2	11	11	SHRUB	1299	n/a	n/a	0	0	0
2329266	WORD	wordpools/wasnorm_wordpool_576.txt	LTP325	ltpFR2	11	11	QUARTER	1148	n/a	n/a	0	0	0
2331815	WORD	wordpools/wasnorm_wordpool_576.txt	LTP325	ltpFR2	11	11	CAMEL	223	n/a	n/a	0	0	0
2334300	WORD	wordpools/wasnorm_wordpool_576.txt	LTP325	ltpFR2	11	11	SUMMIT	1405	n/a	n/a	0	0	0
2337070	WORD	wordpools/wasnorm_wordpool_576.txt	LTP325	ltpFR2	11	11	SLOPE	1328	n/a	n/a	0	0	0
2339772	WORD	wordpools/wasnorm_wordpool_576.txt	LTP325	ltpFR2	11	11	KEEPER	769	n/a	n/a	0	0	0
2341390	START	n/a	LTP325	ltpFR2	11	n/a	n/a	n/a	17	n/a	n/a	n/a	n/a
2342560	DISTRACTOR	n/a	LTP325	ltpFR2	11	11	n/a	n/a	n/a	n/a	0	0	0
2342573	PROB	n/a	LTP325	ltpFR2	11	n/a	n/a	n/a	17	15	5	5	5
2344225	PROB	n/a	LTP325	ltpFR2	11	n/a	n/a	n/a	17	15	2	5	8
2346412	PROB	n/a	LTP325	ltpFR2	11	n/a	n/a	n/a	17	8	2	3	3
2348165	PROB	n/a	LTP325	ltpFR2	11	n/a	n/a	n/a	17	22	4	9	9
2350149	PROB	n/a	LTP325	ltpFR2	11	n/a	n/a	n/a	17	18	5	8	5
2352168	PROB	n/a	LTP325	ltpFR2	11	n/a	n/a	n/a	17	11	1	5	5
2353399	PROB	n/a	LTP325	ltpFR2	11	n/a	n/a	n/a	17	11	1	4	6
2354985	PROB	n/a	LTP325	ltpFR2	11	n/a	n/a	n/a	17	11	6	2	3
2358190	PROB	n/a	LTP325	ltpFR2	11	n/a	n/a	n/a	17	16	4	8	4
2362994	PROB	n/a	LTP325	ltpFR2	11	n/a	n/a	n/a	17	10	2	3	5
2364845	STOP	n/a	LTP325	ltpFR2	11	n/a	n/a	n/a	17	n/a	n/a	n/a	n/a
2367163	REC_START	n/a	LTP325	ltpFR2	11	11	n/a	n/a	n/a	n/a	0	0	0
2390578	REC_WORD	wordpools/wasnorm_wordpool_576.txt	LTP325	ltpFR2	11	11	FOREST	593	n/a	n/a	0	0	0
2391578	REC_WORD_VV	wordpools/wasnorm_wordpool_576.txt	LTP325	ltpFR2	11	11	<>	-1	n/a	n/a	0	0	0
2392271	REC_WORD	wordpools/wasnorm_wordpool_576.txt	LTP325	ltpFR2	11	11	SHRUB	1299	n/a	n/a	0	0	0
2413804	REC_WORD	wordpools/wasnorm_wordpool_576.txt	LTP325	ltpFR2	11	11	BOX	159	n/a	n/a	0	0	0
2434463	REC_WORD	wordpools/wasnorm_wordpool_576.txt	LTP325	ltpFR2	11	11	AWARD	63	n/a	n/a	0	0	0
2435573	REC_WORD	wordpools/wasnorm_wordpool_576.txt	LTP325	ltpFR2	11	11	HERO	706	n/a	n/a	0	0	0
2457586	DISTRACTOR	n/a	LTP325	ltpFR2	11	12	n/a	n/a	n/a	n/a	0	0	0
2457586	START	n/a	LTP325	ltpFR2	11	n/a	n/a	n/a	18	n/a	n/a	n/a	n/a
2457601	PROB	n/a	LTP325	ltpFR2	11	n/a	n/a	n/a	18	20	7	8	5
2463123	PROB	n/a	LTP325	ltpFR2	11	n/a	n/a	n/a	18	20	7	7	6
2465273	PROB	n/a	LTP325	ltpFR2	11	n/a	n/a	n/a	18	10	3	4	3
2468342	PROB	n/a	LTP325	ltpFR2	11	n/a	n/a	n/a	18	17	5	8	3
2470410	PROB	n/a	LTP325	ltpFR2	11	n/a	n/a	n/a	18	19	3	7	9
2472179	PROB	n/a	LTP325	ltpFR2	11	n/a	n/a	n/a	18	9	3	5	1
2474430	PROB	n/a	LTP325	ltpFR2	11	n/a	n/a	n/a	18	12	5	1	8
2481585	STOP	n/a	LTP325	ltpFR2	11	n/a	n/a	n/a	18	n/a	n/a	n/a	n/a
2482538	WORD	wordpools/wasnorm_wordpool_576.txt	LTP325	ltpFR2	11	12	OX	994	n/a	n/a	0	0	0
2485158	WORD	wordpools/wasnorm_wordpool_576.txt	LTP325	ltpFR2	11	12	FRAGRANCE	599	n/a	n/a	0	0	0
2487810	WORD	wordpools/wasnorm_wordpool_576.txt	LTP325	ltpFR2	11	12	FOREHEAD	592	n/a	n/a	0	0	0
2490486	WORD	wordpools/wasnorm_wordpool_576.txt	LTP325	ltpFR2	11	12	ARMY	39	n/a	n/a	0	0	0
2492947	WORD	wordpools/wasnorm_wordpool_576.txt	LTP325	ltpFR2	11	12	BACON	67	n/a	n/a	0	0	0
2495498	WORD	wordpools/wasnorm_wordpool_576.txt	LTP325	ltpFR2	11	12	SAUSAGE	1238	n/a	n/a	0	0	0
2497951	WORD	wordpools/wasnorm_wordpool_576.txt	LTP325	ltpFR2	11	12	BELLY	119	n/a	n/a	0	0	0
2500769	WORD	wordpools/wasnorm_wordpool_576.txt	LTP325	ltpFR2	11	12	FLEET	578	n/a	n/a	0	0	0
2503272	WORD	wordpools/wasnorm_wordpool_576.txt	LTP325	ltpFR2	11	12	DAISY	435	n/a	n/a	0	0	0
2505699	WORD	wordpools/wasnorm_wordpool_576.txt	LTP325	ltpFR2	11	12	TURNIP	1521	n/a	n/a	0	0	0
2508170	WORD	wordpools/wasnorm_wordpool_576.txt	LTP325	ltpFR2	11	12	TURKEY	1520	n/a	n/a	0	0	0
2510904	WORD	wordpools/wasnorm_wordpool_576.txt	LTP325	ltpFR2	11	12	HAWK	692	n/a	n/a	0	0	0
2513607	WORD	wordpools/wasnorm_wordpool_576.txt	LTP325	ltpFR2	11	12	DRESSER	496	n/a	n/a	0	0	0
2516375	WORD	wordpools/wasnorm_wordpool_576.txt	LTP325	ltpFR2	11	12	PATROL	1027	n/a	n/a	0	0	0
2518995	WORD	wordpools/wasnorm_wordpool_576.txt	LTP325	ltpFR2	11	12	SEAFOOD	1260	n/a	n/a	0	0	0
2521680	WORD	wordpools/wasnorm_wordpool_576.txt	LTP325	ltpFR2	11	12	HEART	697	n/a	n/a	0	0	0
2524149	WORD	wordpools/wasnorm_wordpool_576.txt	LTP325	ltpFR2	11	12	ONION	977	n/a	n/a	0	0	0
2526935	WORD	wordpools/wasnorm_wordpool_576.txt	LTP325	ltpFR2	11	12	PRIMATE	1123	n/a	n/a	0	0	0
2529670	WORD	wordpools/wasnorm_wordpool_576.txt	LTP325	ltpFR2	11	12	STICKER	1382	n/a	n/a	0	0	0
2532207	WORD	wordpools/wasnorm_wordpool_576.txt	LTP325	ltpFR2	11	12	CAPTIVE	240	n/a	n/a	0	0	0
2534708	WORD	wordpools/wasnorm_wordpool_576.txt	LTP325	ltpFR2	11	12	SPARROW	1347	n/a	n/a	0	0	0
2537327	WORD	wordpools/wasnorm_wordpool_576.txt	LTP325	ltpFR2	11	12	GRAVEL	659	n/a	n/a	0	0	0
2539812	WORD	wordpools/wasnorm_wordpool_576.txt	LTP325	ltpFR2	11	12	YACHT	1629	n/a	n/a	0	0	0
2542536	WORD	wordpools/wasnorm_wordpool_576.txt	LTP325	ltpFR2	11	12	MISSILE	900	n/a	n/a	0	0	0
2544152	START	n/a	LTP325	ltpFR2	11	n/a	n/a	n/a	19	n/a	n/a	n/a	n/a
2545320	DISTRACTOR	n/a	LTP325	ltpFR2	11	12	n/a	n/a	n/a	n/a	0	0	0
2545334	PROB	n/a	LTP325	ltpFR2	11	n/a	n/a	n/a	19	16	6	6	4
2547859	PROB	n/a	LTP325	ltpFR2	11	n/a	n/a	n/a	19	20	8	7	5
2550559	PROB	n/a	LTP325	ltpFR2	11	n/a	n/a	n/a	19	19	6	5	8
2552728	PROB	n/a	LTP325	ltpFR2	11	n/a	n/a	n/a	19	18	6	8	4
2554779	PROB	n/a	LTP325	ltpFR2	11	n/a	n/a	n/a	19	17	4	4	9
2558148	PROB	n/a	LTP325	ltpFR2	11	n/a	n/a	n/a	19	13	4	6	3
2560085	PROB	n/a	LTP325	ltpFR2	11	n/a	n/a	n/a	19	13	6	3	4
2561552	PROB	n/a	LTP325	ltpFR2	11	n/a	n/a	n/a	19	22	7	8	7
2563415	PROB	n/a	LTP325	ltpFR2	11	n/a	n/a	n/a	19	13	1	4	8
2565717	PROB	n/a	LTP325	ltpFR2	11	n/a	n/a	n/a	19	16	7	6	3
2567165	STOP	n/a	LTP325	ltpFR2	11	n/a	n/a	n/a	19	n/a	n/a	n/a	n/a
2569892	REC_START	n/a	LTP325	ltpFR2	11	12	n/a	n/a	n/a	n/a	0	0	0
2574324	REC_WORD	wordpools/wasnorm_wordpool_576.txt	LTP325	ltpFR2	11	12	TURNIP	1521	n/a	n/a	0	0	0
2584030	REC_WORD	wordpools/wasnorm_wordpool_576.txt	LTP325	ltpFR2	11	12	OX	994	n/a	n/a	0	0	0
2590228	REC_WORD	wordpools/wasnorm_wordpool_576.txt	LTP325	ltpFR2	11	12	SAUSAGE	1238	n/a	n/a	0	0	0
2591228	REC_WORD_VV	wordpools/wasnorm_wordpool_576.txt	LTP325	ltpFR2	11	12	<>	-1	n/a	n/a	0	0	0
2591700	REC_WORD	wordpools/wasnorm_wordpool_576.txt	LTP325	ltpFR2	11	12	BACON	67	n/a	n/a	0	0	0
2594270	REC_WORD	wordpools/wasnorm_wordpool_576.txt	LTP325	ltpFR2	11	12	ONION	977	n/a	n/a	0	0	0
2660335	DISTRACTOR	n/a	LTP325	ltpFR2	11	13	n/a	n/a	n/a	n/a	0	0	0
2660335	START	n/a	LTP325	ltpFR2	11	n/a	n/a	n/a	20	n/a	n/a	n/a	n/a
2660350	PROB	n/a	LTP325	ltpFR2	11	n/a	n/a	n/a	20	16	5	6	5
2661781	PROB	n/a	LTP325	ltpFR2	11	n/a	n/a	n/a	20	11	6	4	1
2662983	PROB	n/a	LTP325	ltpFR2	11	n/a	n/a	n/a	20	14	6	1	7
2664984	PROB	n/a	LTP325	ltpFR2	11	n/a	n/a	n/a	20	12	3	6	3
2666736	PROB	n/a	LTP325	ltpFR2	11	n/a	n/a	n/a	20	14	6	1	7
2668787	PROB	n/a	LTP325	ltpFR2	11	n/a	n/a	n/a	20	8	4	3	1
2671007	PROB	n/a	LTP325	ltpFR2	11	n/a	n/a	n/a	20	8	1	5	2
2673609	PROB	n/a	LTP325	ltpFR2	11	n/a	n/a	n/a	20	8	1	3	4
2675877	PROB	n/a	LTP325	ltpFR2	11	n/a	n/a	n/a	20	16	7	8	1
2678412	PROB	n/a	LTP325	ltpFR2	11	n/a	n/a	n/a	20	9	3	3	3
2680646	PROB	n/a	LTP325	ltpFR2	11	n/a	n/a	n/a	20	12	5	1	6
2683129	STOP	n/a	LTP325	ltpFR2	11	n/a	n/a	n/a	20	n/a	n/a	n/a	n/a
2685222	WORD	wordpools/wasnorm_wordpool_576.txt	LTP325	ltpFR2	11	13	RUG	1215	n/a	n/a	0	0	0
2688009	WORD	wordpools/wasnorm_wordpool_576.txt	LTP325	ltpFR2	11	13	HOUND	724	n/a	n/a	0	0	0
2690811	WORD	wordpools/wasnorm_wordpool_576.txt	LTP325	ltpFR2	11	13	UNCLE	1536	n/a	n/a	0	0	0
2693596	WORD	wordpools/wasnorm_wordpool_576.txt	LTP325	ltpFR2	11	13	TRACTOR	1493	n/a	n/a	0	0	0
2696410	WORD	wordpools/wasnorm_wordpool_576.txt	LTP325	ltpFR2	11	13	RIFLE	1192	n/a	n/a	0	0	0
2698952	WORD	wordpools/wasnorm_wordpool_576.txt	LTP325	ltpFR2	11	13	HORSE	719	n/a	n/a	0	0	0
2701648	WORD	wordpools/wasnorm_wordpool_576.txt	LTP325	ltpFR2	11	13	CARRIAGE	248	n/a	n/a	0	0	0
2704266	WORD	wordpools/wasnorm_wordpool_576.txt	LTP325	ltpFR2	11	13	CANYON	235	n/a	n/a	0	0	0
2706802	WORD	wordpools/wasnorm_wordpool_576.txt	LTP325	ltpFR2	11	13	GUARD	667	n/a	n/a	0	0	0
2709560	WORD	wordpools/wasnorm_wordpool_576.txt	LTP325	ltpFR2	11	13	GOBLIN	645	n/a	n/a	0	0	0
2712306	WORD	wordpools/wasnorm_wordpool_576.txt	LTP325	ltpFR2	11	13	COCKTAIL	338	n/a	n/a	0	0	0
2714757	WORD	wordpools/wasnorm_wordpool_576.txt	LTP325	ltpFR2	11	13	GRIZZLY	662	n/a	n/a	0	0	0
2717560	WORD	wordpools/wasnorm_wordpool_576.txt	LTP325	ltpFR2	11	13	COUSIN	392	n/a	n/a	0	0	0
2720245	WORD	wordpools/wasnorm_wordpool_576.txt	LTP325	ltpFR2	11	13	REPORT	1184	n/a	n/a	0	0	0
2722771	WORD	wordpools/wasnorm_wordpool_576.txt	LTP325	ltpFR2	11	13	BRIEFCASE	175	n/a	n/a	0	0	0
2725566	WORD	wordpools/wasnorm_wordpool_576.txt	LTP325	ltpFR2	11	13	OZONE	996	n/a	n/a	0	0	0
2728293	WORD	wordpools/wasnorm_wordpool_576.txt	LTP325	ltpFR2	11	13	LETTUCE	814	n/a	n/a	0	0	0
2731063	WORD	wordpools/wasnorm_wordpool_576.txt	LTP325	ltpFR2	11	13	YOLK	1633	n/a	n/a	0	0	0
2733689	WORD	wordpools/wasnorm_wordpool_576.txt	LTP325	ltpFR2	11	13	BIKE	125	n/a	n/a	0	0	0
2736176	WORD	wordpools/wasnorm_wordpool_576.txt	LTP325	ltpFR2	11	13	GARDEN	623	n/a	n/a	0	0	0
2738944	WORD	wordpools/wasnorm_wordpool_576.txt	LTP325	ltpFR2	11	13	POLICE	1098	n/a	n/a	0	0	0
2741595	WORD	wordpools/wasnorm_wordpool_576.txt	LTP325	ltpFR2	11	13	FRECKLE	602	n/a	n/a	0	0	0
2744141	WORD	wordpools/wasnorm_wordpool_576.txt	LTP325	ltpFR2	11	13	GIFT	635	n/a	n/a	0	0	0
2746643	WORD	wordpools/wasnorm_wordpool_576.txt	LTP325	ltpFR2	11	13	AGENT	10	n/a	n/a	0	0	0
2748253	START	n/a	LTP325	ltpFR2	11	n/a	n/a	n/a	21	n/a	n/a	n/a	n/a
2749381	DISTRACTOR	n/a	LTP325	ltpFR2	11	13	n/a	n/a	n/a	n/a	0	0	0
2749385	PROB	n/a	LTP325	ltpFR2	11	n/a	n/a	n/a	21	10	3	3	4
2751420	PROB	n/a	LTP325	ltpFR2	11	n/a	n/a	n/a	21	17	2	9	6
2753572	PROB	n/a	LTP325	ltpFR2	11	n/a	n/a	n/a	21	22	7	6	9
2757860	PROB	n/a	LTP325	ltpFR2	11	n/a	n/a	n/a	21	8	5	1	2
2760078	PROB	n/a	LTP325	ltpFR2	11	n/a	n/a	n/a	21	17	4	9	4
2763779	PROB	n/a	LTP325	ltpFR2	11	n/a	n/a	n/a	21	11	5	5	1
2764899	PROB	n/a	LTP325	ltpFR2	11	n/a	n/a	n/a	21	11	1	7	3
2766201	PROB	n/a	LTP325	ltpFR2	11	n/a	n/a	n/a	21	8	2	3	3
2767885	PROB	n/a	LTP325	ltpFR2	11	n/a	n/a	n/a	21	8	2	1	5
2772253	STOP	n/a	LTP325	ltpFR2	11	n/a	n/a	n/a	21	n/a	n/a	n/a	n/a
2774174	REC_START	n/a	LTP325	ltpFR2	11	13	n/a	n/a	n/a	n/a	0	0	0
2780138	REC_WORD	wordpools/wasnorm_wordpool_576.txt	LTP325	ltpFR2	11	13	HOUND	724	n/a	n/a	0	0	0
2781368	REC_WORD	wordpools/wasnorm_wordpool_576.txt	LTP325	ltpFR2	11	13	UNCLE	1536	n/a	n/a	0	0	0
2783157	REC_WORD	wordpools/wasnorm_wordpool_576.txt	LTP325	ltpFR2	11	13	RIFLE	1192	n/a	n/a	0	0	0
2784862	REC_WORD	wordpools/wasnorm_wordpool_576.txt	LTP325	ltpFR2	11	13	HORSE	719	n/a	n/a	0	0	0
2786014	REC_WORD	wordpools/wasnorm_wordpool_576.txt	LTP325	ltpFR2	11	13	TRACTOR	1493	n/a	n/a	0	0	0
2787384	REC_WORD	wordpools/wasnorm_wordpool_576.txt	LTP325	ltpFR2	11	13	CARRIAGE	248	n/a	n/a	0	0	0
2788384	REC_WORD_VV	wordpools/wasnorm_wordpool_576.txt	LTP325	ltpFR2	11	13	<>	-1	n/a	n/a	0	0	0
2864645	WORD	wordpools/wasnorm_wordpool_576.txt	LTP325	ltpFR2	11	14	FLESH	579	n/a	n/a	0	0	0
2867296	WORD	wordpools/wasnorm_wordpool_576.txt	LTP325	ltpFR2	11	14	BINDER	127	n/a	n/a	0	0	0
2870067	WORD	wordpools/wasnorm_wordpool_576.txt	LTP325	ltpFR2	11	14	STAMP	1370	n/a	n/a	0	0	0
2872752	WORD	wordpools/wasnorm_wordpool_576.txt	LTP325	ltpFR2	11	14	FRAME	600	n/a	n/a	0	0	0
2875320	WORD	wordpools/wasnorm_wordpool_576.txt	LTP325	ltpFR2	11	14	GAZELLE	628	n/a	n/a	0	0	0
2878023	WORD	wordpools/wasnorm_wordpool_576.txt	LTP325	ltpFR2	11	14	LUNCH	849	n/a	n/a	0	0	0
2880524	WORD	wordpools/wasnorm_wordpool_576.txt	LTP325	ltpFR2	11	14	SKETCH	1315	n/a	n/a	0	0	0
2883178	WORD	wordpools/wasnorm_wordpool_576.txt	LTP325	ltpFR2	11	14	BEEF	113	n/a	n/a	0	0	0
2885812	WORD	wordpools/wasnorm_wordpool_576.txt	LTP325	ltpFR2	11	14	BUTCHER	203	n/a	n/a	0	0	0
2888347	WORD	wordpools/wasnorm_wordpool_576.txt	LTP325	ltpFR2	11	14	PACKAGE	997	n/a	n/a	0	0	0
2891084	WORD	wordpools/wasnorm_wordpool_576.txt	LTP325	ltpFR2	11	14	GRILL	661	n/a	n/a	0	0	0
2893518	WORD	wordpools/wasnorm_wordpool_576.txt	LTP325	ltpFR2	11	14	SNACK	1331	n/a	n/a	0	0	0
2896104	WORD	wordpools/wasnorm_wordpool_576.txt	LTP325	ltpFR2	11	14	PROTON	1132	n/a	n/a	0	0	0
2898839	WORD	wordpools/wasnorm_wordpool_576.txt	LTP325	ltpFR2	11	14	BRICK	172	n/a	n/a	0	0	0
2901325	WORD	wordpools/wasnorm_wordpool_576.txt	LTP325	ltpFR2	11	14	MATTRESS	879	n/a	n/a	0	0	0
2903960	WORD	wordpools/wasnorm_wordpool_576.txt	LTP325	ltpFR2	11	14	BALLOON	75	n/a	n/a	0	0	0
2906748	WORD	wordpools/wasnorm_wordpool_576.txt	LTP325	ltpFR2	11	14	CHILD	299	n/a	n/a	0	0	0
2909531	WORD	wordpools/wasnorm_wordpool_576.txt	LTP325	ltpFR2	11	14	CREVICE	405	n/a	n/a	0	0	0
2912088	WORD	wordpools/wasnorm_wordpool_576.txt	LTP325	ltpFR2	11	14	PEBBLE	1035	n/a	n/a	0	0	0
2914752	WORD	wordpools/wasnorm_wordpool_576.txt	LTP325	ltpFR2	11	14	ORANGE	980	n/a	n/a	0	0	0
2917290	WORD	wordpools/wasnorm_wordpool_576.txt	LTP325	ltpFR2	11	14	PUPPY	1144	n/a	n/a	0	0	0
2919957	WORD	wordpools/wasnorm_wordpool_576.txt	LTP325	ltpFR2	11	14	PIGEON	1065	n/a	n/a	0	0	0
2922758	WORD	wordpools/wasnorm_wordpool_576.txt	LTP325	ltpFR2	11	14	JUGGLER	763	n/a	n/a	0	0	0
2925260	WORD	wordpools/wasnorm_wordpool_576.txt	LTP325	ltpFR2	11	14	DINER	467	n/a	n/a	0	0	0
2926868	START	n/a	LTP325	ltpFR2	11	n/a	n/a	n/a	22	n/a	n/a	n/a	n/a
2927974	DISTRACTOR	n/a	LTP325	ltpFR2	11	14	n/a	n/a	n/a	n/a	0	0	0
2927979	PROB	n/a	LTP325	ltpFR2	11	n/a	n/a	n/a	22	11	2	2	7
2930015	PROB	n/a	LTP325	ltpFR2	11	n/a	n/a	n/a	22	17	9	4	3
2933199	PROB	n/a	LTP325	ltpFR2	11	n/a	n/a	n/a	22	12	8	3	1
2935168	PROB	n/a	LTP325	ltpFR2	11	n/a	n/a	n/a	22	13	5	6	2
2938687	PROB	n/a	LTP325	ltpFR2	11	n/a	n/a	n/a	22	12	1	9	2
2940421	PROB	n/a	LTP325	ltpFR2	11	n/a	n/a	n/a	22	13	3	7	3
2941858	PROB	n/a	LTP325	ltpFR2	11	n/a	n/a	n/a	22	11	8	2	1
2943141	PROB	n/a	LTP325	ltpFR2	11	n/a	n/a	n/a	22	7	2	3	2
2945192	PROB	n/a	LTP325	ltpFR2	11	n/a	n/a	n/a	22	14	2	6	6
2946694	PROB	n/a	LTP325	ltpFR2	11	n/a	n/a	n/a	22	15	3	3	9
2950868	STOP	n/a	LTP325	ltpFR2	11	n/a	n/a	n/a	22	n/a	n/a	n/a	n/a
2952614	REC_START	n/a	LTP325	ltpFR2	11	14	n/a	n/a	n/a	n/a	0	0	0
2956755	REC_WORD	wordpools/wasnorm_wordpool_576.txt	LTP325	ltpFR2	11	14	GAZELLE	628	n/a	n/a	0	0	0
2958164	REC_WORD	wordpools/wasnorm_wordpool_576.txt	LTP325	ltpFR2	11	14	LUNCH	849	n/a	n/a	0	0	0
2959751	REC_WORD	wordpools/wasnorm_wordpool_576.txt	LTP325	ltpFR2	11	14	SKETCH	1315	n/a	n/a	0	0	0
2966792	REC_WORD	wordpools/wasnorm_wordpool_576.txt	LTP325	ltpFR2	11	14	BEEF	113	n/a	n/a	0	0	0
2970086	REC_WORD	wordpools/wasnorm_wordpool_576.txt	LTP325	ltpFR2	11	14	BUTCHER	203	n/a	n/a	0	0	0
2977706	REC_WORD	wordpools/wasnorm_wordpool_576.txt	LTP325	ltpFR2	11	14	CHILD	299	n/a	n/a	0	0	0
2988553	REC_WORD	wordpools/wasnorm_wordpool_576.txt	LTP325	ltpFR2	11	14	CANYON	235	n/a	n/a	0	0	0
2992525	REC_WORD	wordpools/wasnorm_wordpool_576.txt	LTP325	ltpFR2	11	14	PEBBLE	1035	n/a	n/a	0	0	0
3043152	DISTRACTOR	n/a	LTP325	ltpFR2	11	15	n/a	n/a	n/a	n/a	0	0	0
3043152	START	n/a	LTP325	ltpFR2	11	n/a	n/a	n/a	23	n/a	n/a	n/a	n/a
3043167	PROB	n/a	LTP325	ltpFR2	11	n/a	n/a	n/a	23	19	1	9	9
3045042	PROB	n/a	LTP325	ltpFR2	11	n/a	n/a	n/a	23	18	2	9	7
3047639	PROB	n/a	LTP325	ltpFR2	11	n/a	n/a	n/a	23	11	1	5	5
3048808	PROB	n/a	LTP325	ltpFR2	11	n/a	n/a	n/a	23	13	2	7	4
3051362	PROB	n/a	LTP325	ltpFR2	11	n/a	n/a	n/a	23	15	2	4	9
3054845	PROB	n/a	LTP325	ltpFR2	11	n/a	n/a	n/a	23	10	5	2	3
3058583	PROB	n/a	LTP325	ltpFR2	11	n/a	n/a	n/a	23	12	5	6	1
3060532	PROB	n/a	LTP325	ltpFR2	11	n/a	n/a	n/a	23	13	8	1	4
3062504	PROB	n/a	LTP325	ltpFR2	11	n/a	n/a	n/a	23	16	7	1	8
3065485	PROB	n/a	LTP325	ltpFR2	11	n/a	n/a	n/a	23	13	5	5	3
3066929	STOP	n/a	LTP325	ltpFR2	11	n/a	n/a	n/a	23	n/a	n/a	n/a	n/a
3068357	WORD	wordpools/wasnorm_wordpool_576.txt	LTP325	ltpFR2	11	15	BLUEPRINT	142	n/a	n/a	0	0	0
3071111	WORD	wordpools/wasnorm_wordpool_576.txt	LTP325	ltpFR2	11	15	CABIN	211	n/a	n/a	0	0	0
3073660	WORD	wordpools/wasnorm_wordpool_576.txt	LTP325	ltpFR2	11	15	SPOUSE	1358	n/a	n/a	0	0	0
3076280	WORD	wordpools/wasnorm_wordpool_576.txt	LTP325	ltpFR2	11	15	BLENDER	136	n/a	n/a	0	0	0
3079084	WORD	wordpools/wasnorm_wordpool_576.txt	LTP325	ltpFR2	11	15	PLAYGROUND	1087	n/a	n/a	0	0	0
3081568	WORD	wordpools/wasnorm_wordpool_576.txt	LTP325	ltpFR2	11	15	DANDRUFF	439	n/a	n/a	0	0	0
3084138	WORD	wordpools/wasnorm_wordpool_576.txt	LTP325	ltpFR2	11	15	POET	1095	n/a	n/a	0	0	0
3086572	WORD	wordpools/wasnorm_wordpool_576.txt	LTP325	ltpFR2	11	15	DONOR	485	n/a	n/a	0	0	0
3089124	WORD	wordpools/wasnorm_wordpool_576.txt	LTP325	ltpFR2	11	15	SLIME	1327	n/a	n/a	0	0	0
3091861	WORD	wordpools/wasnorm_wordpool_576.txt	LTP325	ltpFR2	11	15	MEAT	883	n/a	n/a	0	0	0
3094563	WORD	wordpools/wasnorm_wordpool_576.txt	LTP325	ltpFR2	11	15	TABLE	1426	n/a	n/a	0	0	0
3097032	WORD	wordpools/wasnorm_wordpool_576.txt	LTP325	ltpFR2	11	15	TOASTER	1472	n/a	n/a	0	0	0
3099651	WORD	wordpools/wasnorm_wordpool_576.txt	LTP325	ltpFR2	11	15	SIDEWALK	1303	n/a	n/a	0	0	0
3102318	WORD	wordpools/wasnorm_wordpool_576.txt	LTP325	ltpFR2	11	15	PEACH	1031	n/a	n/a	0	0	0
3105139	WORD	wordpools/wasnorm_wordpool_576.txt	LTP325	ltpFR2	11	15	AUTHOR	61	n/a	n/a	0	0	0
3107606	WORD	wordpools/wasnorm_wordpool_576.txt	LTP325	ltpFR2	11	15	COURSE	390	n/a	n/a	0	0	0
3110043	WORD	wordpools/wasnorm_wordpool_576.txt	LTP325	ltpFR2	11	15	LIGHTNING	820	n/a	n/a	0	0	0
3112644	WORD	wordpools/wasnorm_wordpool_576.txt	LTP325	ltpFR2	11	15	PORK	1108	n/a	n/a	0	0	0
3115114	WORD	wordpools/wasnorm_wordpool_576.txt	LTP325	ltpFR2	11	15	BUNNY	198	n/a	n/a	0	0	0
3117581	WORD	wordpools/wasnorm_wordpool_576.txt	LTP325	ltpFR2	11	15	CARROT	249	n/a	n/a	0	0	0
3120201	WORD	wordpools/wasnorm_wordpool_576.txt	LTP325	ltpFR2	11	15	PUPIL	1143	n/a	n/a	0	0	0
3122769	WORD	wordpools/wasnorm_wordpool_576.txt	LTP325	ltpFR2	11	15	COLLEGE	346	n/a	n/a	0	0	0
3125520	WORD	wordpools/wasnorm_wordpool_576.txt	LTP325	ltpFR2	11	15	STOVE	1388	n/a	n/a	0	0	0
3128042	WORD	wordpools/wasnorm_wordpool_576.txt	LTP325	ltpFR2	11	15	EGYPT	519	n/a	n/a	0	0	0
3129659	START	n/a	LTP325	ltpFR2	11	n/a	n/a	n/a	24	n/a	n/a	n/a	n/a
3130821	DISTRACTOR	n/a	LTP325	ltpFR2	11	15	n/a	n/a	n/a	n/a	0	0	0
3130825	PROB	n/a	LTP325	ltpFR2	11	n/a	n/a	n/a	24	12	1	6	5
3132726	PROB	n/a	LTP325	ltpFR2	11	n/a	n/a	n/a	24	18	2	7	9
3136196	PROB	n/a	LTP325	ltpFR2	11	n/a	n/a	n/a	24	18	5	9	4
3141516	PROB	n/a	LTP325	ltpFR2	11	n/a	n/a	n/a	24	20	8	5	7
3145204	PROB	n/a	LTP325	ltpFR2	11	n/a	n/a	n/a	24	16	5	7	4
3148354	PROB	n/a	LTP325	ltpFR2	11	n/a	n/a	n/a	24	14	6	7	1
3150373	PROB	n/a	LTP325	ltpFR2	11	n/a	n/a	n/a	24	15	3	3	9
3152323	STOP	n/a	LTP325	ltpFR2	11	n/a	n/a	n/a	24	n/a	n/a	n/a	n/a
3155611	REC_START	n/a	LTP325	ltpFR2	11	15	n/a	n/a	n/a	n/a	0	0	0
3157028	REC_WORD	wordpools/wasnorm_wordpool_576.txt	LTP325	ltpFR2	11	15	STOVE	1388	n/a	n/a	0	0	0
3158620	REC_WORD	wordpools/wasnorm_wordpool_576.txt	LTP325	ltpFR2	11	15	EGYPT	519	n/a	n/a	0	0	0
3177677	REC_WORD	wordpools/wasnorm_wordpool_576.txt	LTP325	ltpFR2	11	15	LIGHTNING	820	n/a	n/a	0	0	0
3202910	REC_WORD	wordpools/wasnorm_wordpool_576.txt	LTP325	ltpFR2	11	15	BUNNY	198	n/a	n/a	0	0	0
3204059	REC_WORD	wordpools/wasnorm_wordpool_576.txt	LTP325	ltpFR2	11	15	CARROT	249	n/a	n/a	0	0	0
3246034	WORD	wordpools/wasnorm_wordpool_576.txt	LTP325	ltpFR2	11	16	STOMACH	1384	n/a	n/a	0	0	0
3248769	WORD	wordpools/wasnorm_wordpool_576.txt	LTP325	ltpFR2	11	16	CHIPMUNK	304	n/a	n/a	0	0	0
3251365	WORD	wordpools/wasnorm_wordpool_576.txt	LTP325	ltpFR2	11	16	TAXI	1438	n/a	n/a	0	0	0
3253891	WORD	wordpools/wasnorm_wordpool_576.txt	LTP325	ltpFR2	11	16	DORM	488	n/a	n/a	0	0	0
3256475	WORD	wordpools/wasnorm_wordpool_576.txt	LTP325	ltpFR2	11	16	DENIM	446	n/a	n/a	0	0	0
3259056	WORD	wordpools/wasnorm_wordpool_576.txt	LTP325	ltpFR2	11	16	SLIDE	1326	n/a	n/a	0	0	0
3261507	WORD	wordpools/wasnorm_wordpool_576.txt	LTP325	ltpFR2	11	16	RIVER	1194	n/a	n/a	0	0	0
3264094	WORD	wordpools/wasnorm_wordpool_576.txt	LTP325	ltpFR2	11	16	TILE	1468	n/a	n/a	0	0	0
3266828	WORD	wordpools/wasnorm_wordpool_576.txt	LTP325	ltpFR2	11	16	OYSTER	995	n/a	n/a	0	0	0
3269414	WORD	wordpools/wasnorm_wordpool_576.txt	LTP325	ltpFR2	11	16	RELISH	1183	n/a	n/a	0	0	0
3272106	WORD	wordpools/wasnorm_wordpool_576.txt	LTP325	ltpFR2	11	16	SANDWICH	1232	n/a	n/a	0	0	0
3274819	WORD	wordpools/wasnorm_wordpool_576.txt	LTP325	ltpFR2	11	16	CRIB	407	n/a	n/a	0	0	0
3277621	WORD	wordpools/wasnorm_wordpool_576.txt	LTP325	ltpFR2	11	16	GAVEL	627	n/a	n/a	0	0	0
3280223	WORD	wordpools/wasnorm_wordpool_576.txt	LTP325	ltpFR2	11	16	VALVE	1546	n/a	n/a	0	0	0
3282915	WORD	wordpools/wasnorm_wordpool_576.txt	LTP325	ltpFR2	11	16	FLUTE	585	n/a	n/a	0	0	0
3285428	WORD	wordpools/wasnorm_wordpool_576.txt	LTP325	ltpFR2	11	16	PIANO	1057	n/a	n/a	0	0	0
3288031	WORD	wordpools/wasnorm_wordpool_576.txt	LTP325	ltpFR2	11	16	POPCORN	1104	n/a	n/a	0	0	0
3290851	WORD	wordpools/wasnorm_wordpool_576.txt	LTP325	ltpFR2	11	16	CLOUD	328	n/a	n/a	0	0	0
3293536	WORD	wordpools/wasnorm_wordpool_576.txt	LTP325	ltpFR2	11	16	ISLAND	745	n/a	n/a	0	0	0
3296041	WORD	wordpools/wasnorm_wordpool_576.txt	LTP325	ltpFR2	11	16	SNAKE	1333	n/a	n/a	0	0	0
3298807	WORD	wordpools/wasnorm_wordpool_576.txt	LTP325	ltpFR2	11	16	SWIMMER	1420	n/a	n/a	0	0	0
3301342	WORD	wordpools/wasnorm_wordpool_576.txt	LTP325	ltpFR2	11	16	ROBIN	1199	n/a	n/a	0	0	0
3303945	WORD	wordpools/wasnorm_wordpool_576.txt	LTP325	ltpFR2	11	16	GALLON	618	n/a	n/a	0	0	0
3306564	WORD	wordpools/wasnorm_wordpool_576.txt	LTP325	ltpFR2	11	16	SWAMP	1416	n/a	n/a	0	0	0
3308169	START	n/a	LTP325	ltpFR2	11	n/a	n/a	n/a	25	n/a	n/a	n/a	n/a
3309175	DISTRACTOR	n/a	LTP325	ltpFR2	11	16	n/a	n/a	n/a	n/a	0	0	0
3309184	PROB	n/a	LTP325	ltpFR2	11	n/a	n/a	n/a	25	16	6	2	8
3311034	PROB	n/a	LTP325	ltpFR2	11	n/a	n/a	n/a	25	14	7	1	6
3313869	PROB	n/a	LTP325	ltpFR2	11	n/a	n/a	n/a	25	22	6	9	7
3320141	PROB	n/a	LTP325	ltpFR2	11	n/a	n/a	n/a	25	10	4	5	1
3322130	PROB	n/a	LTP325	ltpFR2	11	n/a	n/a	n/a	25	17	8	4	5
3324930	PROB	n/a	LTP325	ltpFR2	11	n/a	n/a	n/a	25	14	3	9	2
3327150	PROB	n/a	LTP325	ltpFR2	11	n/a	n/a	n/a	25	22	3	9	9
3329986	PROB	n/a	LTP325	ltpFR2	11	n/a	n/a	n/a	25	12	3	7	2
3331482	STOP	n/a	LTP325	ltpFR2	11	n/a	n/a	n/a	25	n/a	n/a	n/a	n/a
3334056	REC_START	n/a	LTP325	ltpFR2	11	16	n/a	n/a	n/a	n/a	0	0	0
3338261	REC_WORD	wordpools/wasnorm_wordpool_576.txt	LTP325	ltpFR2	11	16	PIANO	1057	n/a	n/a	0	0	0
3363030	REC_WORD	wordpools/wasnorm_wordpool_576.txt	LTP325	ltpFR2	11	16	SWIMMER	1420	n/a	n/a	0	0	0
3410582	REST_REWET	n/a	LTP325	ltpFR2	11	16	n/a	n/a	n/a	n/a	0	0	0
3648840	WORD	wordpools/wasnorm_wordpool_576.txt	LTP325	ltpFR2	11	17	WITNESS	1618	n/a	n/a	0	0	0
3651309	WORD	wordpools/wasnorm_wordpool_576.txt	LTP325	ltpFR2	11	17	SUSPECT	1415	n/a	n/a	0	0	0
3653883	WORD	wordpools/wasnorm_wordpool_576.txt	LTP325	ltpFR2	11	17	PLUTO	1092	n/a	n/a	0	0	0
3656662	WORD	wordpools/wasnorm_wordpool_576.txt	LTP325	ltpFR2	11	17	COFFEE	341	n/a	n/a	0	0	0
3659183	WORD	wordpools/wasnorm_wordpool_576.txt	LTP325	ltpFR2	11	17	DRIVER	499	n/a	n/a	0	0	0
3661834	WORD	wordpools/wasnorm_wordpool_576.txt	LTP325	ltpFR2	11	17	SCOTCH	1251	n/a	n/a	0	0	0
3664486	WORD	wordpools/wasnorm_wordpool_576.txt	LTP325	ltpFR2	11	17	DONKEY	484	n/a	n/a	0	0	0
3667277	WORD	wordpools/wasnorm_wordpool_576.txt	LTP325	ltpFR2	11	17	PALACE	1006	n/a	n/a	0	0	0
3669892	WORD	wordpools/wasnorm_wordpool_576.txt	LTP325	ltpFR2	11	17	PRINCESS	1125	n/a	n/a	0	0	0
3672409	WORD	wordpools/wasnorm_wordpool_576.txt	LTP325	ltpFR2	11	17	GHETTO	633	n/a	n/a	0	0	0
3674885	WORD	wordpools/wasnorm_wordpool_576.txt	LTP325	ltpFR2	11	17	SUITCASE	1403	n/a	n/a	0	0	0
3677513	WORD	wordpools/wasnorm_wordpool_576.txt	LTP325	ltpFR2	11	17	LUGGAGE	847	n/a	n/a	0	0	0
3680056	WORD	wordpools/wasnorm_wordpool_576.txt	LTP325	ltpFR2	11	17	BADGE	68	n/a	n/a	0	0	0
3682484	WORD	wordpools/wasnorm_wordpool_576.txt	LTP325	ltpFR2	11	17	ULCER	1533	n/a	n/a	0	0	0
3685071	WORD	wordpools/wasnorm_wordpool_576.txt	LTP325	ltpFR2	11	17	BRANDY	169	n/a	n/a	0	0	0
3687688	WORD	wordpools/wasnorm_wordpool_576.txt	LTP325	ltpFR2	11	17	LADDER	793	n/a	n/a	0	0	0
3690215	WORD	wordpools/wasnorm_wordpool_576.txt	LTP325	ltpFR2	11	17	FOOTBALL	591	n/a	n/a	0	0	0
3692775	WORD	wordpools/wasnorm_wordpool_576.txt	LTP325	ltpFR2	11	17	JUDGE	761	n/a	n/a	0	0	0
3695327	WORD	wordpools/wasnorm_wordpool_576.txt	LTP325	ltpFR2	11	17	DRAWING	494	n/a	n/a	0	0	0
3697940	WORD	wordpools/wasnorm_wordpool_576.txt	LTP325	ltpFR2	11	17	FREEZER	604	n/a	n/a	0	0	0
3700456	WORD	wordpools/wasnorm_wordpool_576.txt	LTP325	ltpFR2	11	17	COMET	353	n/a	n/a	0	0	0
3702901	WORD	wordpools/wasnorm_wordpool_576.txt	LTP325	ltpFR2	11	17	BRAKE	166	n/a	n/a	0	0	0
3705461	WORD	wordpools/wasnorm_wordpool_576.txt	LTP325	ltpFR2	11	17	BANK	83	n/a	n/a	0	0	0
3708081	WORD	wordpools/wasnorm_wordpool_576.txt	LTP325	ltpFR2	11	17	QUEEN	1149	n/a	n/a	0	0	0
3709690	START	n/a	LTP325	ltpFR2	11	n/a	n/a	n/a	26	n/a	n/a	n/a	n/a
3710812	DISTRACTOR	n/a	LTP325	ltpFR2	11	17	n/a	n/a	n/a	n/a	0	0	0
3710823	PROB	n/a	LTP325	ltpFR2	11	n/a	n/a	n/a	26	12	5	3	4
3714276	PROB	n/a	LTP325	ltpFR2	11	n/a	n/a	n/a	26	11	1	9	1
3715576	PROB	n/a	LTP325	ltpFR2	11	n/a	n/a	n/a	26	14	9	2	3
3717595	PROB	n/a	LTP325	ltpFR2	11	n/a	n/a	n/a	26	12	3	2	7
3718912	PROB	n/a	LTP325	ltpFR2	11	n/a	n/a	n/a	26	19	9	4	6
3720696	PROB	n/a	LTP325	ltpFR2	11	n/a	n/a	n/a	26	19	4	9	6
3722397	PROB	n/a	LTP325	ltpFR2	11	n/a	n/a	n/a	26	12	7	2	3
3723916	PROB	n/a	LTP325	ltpFR2	11	n/a	n/a	n/a	26	15	8	4	3
3727302	PROB	n/a	LTP325	ltpFR2	11	n/a	n/a	n/a	26	15	6	3	6
3728904	PROB	n/a	LTP325	ltpFR2	11	n/a	n/a	n/a	26	17	7	3	7
3730688	PROB	n/a	LTP325	ltpFR2	11	n/a	n/a	n/a	26	10	3	2	5
3732682	STOP	n/a	LTP325	ltpFR2	11	n/a	n/a	n/a	26	n/a	n/a	n/a	n/a
3735575	REC_START	n/a	LTP325	ltpFR2	11	17	n/a	n/a	n/a	n/a	0	0	0
3739615	REC_WORD	wordpools/wasnorm_wordpool_576.txt	LTP325	ltpFR2	11	17	DONKEY	484	n/a	n/a	0	0	0
3742555	REC_WORD	wordpools/wasnorm_wordpool_576.txt	LTP325	ltpFR2	11	17	PALACE	1006	n/a	n/a	0	0	0
3744230	REC_WORD	wordpools/wasnorm_wordpool_576.txt	LTP325	ltpFR2	11	17	PRINCESS	1125	n/a	n/a	0	0	0
3745230	REC_WORD_VV	wordpools/wasnorm_wordpool_576.txt	LTP325	ltpFR2	11	17	<>	-1	n/a	n/a	0	0	0
3746119	REC_WORD	wordpools/wasnorm_wordpool_576.txt	LTP325	ltpFR2	11	17	QUEEN	1149	n/a	n/a	0	0	0
3749858	REC_WORD	wordpools/wasnorm_wordpool_576.txt	LTP325	ltpFR2	11	17	PLUTO	1092	n/a	n/a	0	0	0
3751680	REC_WORD	wordpools/wasnorm_wordpool_576.txt	LTP325	ltpFR2	11	17	DRIVER	499	n/a	n/a	0	0	0
3752680	REC_WORD_VV	wordpools/wasnorm_wordpool_576.txt	LTP325	ltpFR2	11	17	<>	-1	n/a	n/a	0	0	0
3753148	REC_WORD	wordpools/wasnorm_wordpool_576.txt	LTP325	ltpFR2	11	17	COFFEE	341	n/a	n/a	0	0	0
3755490	REC_WORD	wordpools/wasnorm_wordpool_576.txt	LTP325	ltpFR2	11	17	BRAKE	166	n/a	n/a	0	0	0
3756809	REC_WORD	wordpools/wasnorm_wordpool_576.txt	LTP325	ltpFR2	11	17	COMET	353	n/a	n/a	0	0	0
3761565	REC_WORD	wordpools/wasnorm_wordpool_576.txt	LTP325	ltpFR2	11	17	FRIDGE	-1	n/a	n/a	0	0	0
3786330	REC_WORD	wordpools/wasnorm_wordpool_576.txt	LTP325	ltpFR2	11	17	WITNESS	1618	n/a	n/a	0	0	0
3787436	REC_WORD	wordpools/wasnorm_wordpool_576.txt	LTP325	ltpFR2	11	17	SUSPECT	1415	n/a	n/a	0	0	0
3788436	REC_WORD_VV	wordpools/wasnorm_wordpool_576.txt	LTP325	ltpFR2	11	17	<>	-1	n/a	n/a	0	0	0
3789011	REC_WORD	wordpools/wasnorm_wordpool_576.txt	LTP325	ltpFR2	11	17	JUDGE	761	n/a	n/a	0	0	0
3842165	DISTRACTOR	n/a	LTP325	ltpFR2	11	18	n/a	n/a	n/a	n/a	0	0	0
3842165	START	n/a	LTP325	ltpFR2	11	n/a	n/a	n/a	27	n/a	n/a	n/a	n/a
3842178	PROB	n/a	LTP325	ltpFR2	11	n/a	n/a	n/a	27	21	8	9	4
3846330	PROB	n/a	LTP325	ltpFR2	11	n/a	n/a	n/a	27	18	5	6	7
3848434	PROB	n/a	LTP325	ltpFR2	11	n/a	n/a	n/a	27	25	7	9	9
3853520	PROB	n/a	LTP325	ltpFR2	11	n/a	n/a	n/a	27	24	9	8	7
3858158	PROB	n/a	LTP325	ltpFR2	11	n/a	n/a	n/a	27	22	6	8	8
3860525	PROB	n/a	LTP325	ltpFR2	11	n/a	n/a	n/a	27	24	7	6	9
3866165	STOP	n/a	LTP325	ltpFR2	11	n/a	n/a	n/a	27	n/a	n/a	n/a	n/a
3867301	WORD	wordpools/wasnorm_wordpool_576.txt	LTP325	ltpFR2	11	18	ARM	38	n/a	n/a	0	0	0
3869733	WORD	wordpools/wasnorm_wordpool_576.txt	LTP325	ltpFR2	11	18	ATOM	55	n/a	n/a	0	0	0
3872319	WORD	wordpools/wasnorm_wordpool_576.txt	LTP325	ltpFR2	11	18	NEUTRON	947	n/a	n/a	0	0	0
3874889	WORD	wordpools/wasnorm_wordpool_576.txt	LTP325	ltpFR2	11	18	CLOTHES	327	n/a	n/a	0	0	0
3877624	WORD	wordpools/wasnorm_wordpool_576.txt	LTP325	ltpFR2	11	18	COSTUME	383	n/a	n/a	0	0	0
3880064	WORD	wordpools/wasnorm_wordpool_576.txt	LTP325	ltpFR2	11	18	CONVICT	371	n/a	n/a	0	0	0
3882577	WORD	wordpools/wasnorm_wordpool_576.txt	LTP325	ltpFR2	11	18	TORTOISE	1486	n/a	n/a	0	0	0
3884997	WORD	wordpools/wasnorm_wordpool_576.txt	LTP325	ltpFR2	11	18	POWDER	1117	n/a	n/a	0	0	0
3887786	WORD	wordpools/wasnorm_wordpool_576.txt	LTP325	ltpFR2	11	18	WHISKERS	1605	n/a	n/a	0	0	0
3890505	WORD	wordpools/wasnorm_wordpool_576.txt	LTP325	ltpFR2	11	18	COCOON	339	n/a	n/a	0	0	0
3893025	WORD	wordpools/wasnorm_wordpool_576.txt	LTP325	ltpFR2	11	18	SPHINX	1349	n/a	n/a	0	0	0
3895604	WORD	wordpools/wasnorm_wordpool_576.txt	LTP325	ltpFR2	11	18	NAPKIN	937	n/a	n/a	0	0	0
3898391	WORD	wordpools/wasnorm_wordpool_576.txt	LTP325	ltpFR2	11	18	SPIDER	1351	n/a	n/a	0	0	0
3900932	WORD	wordpools/wasnorm_wordpool_576.txt	LTP325	ltpFR2	11	18	COLONEL	348	n/a	n/a	0	0	0
3903599	WORD	wordpools/wasnorm_wordpool_576.txt	LTP325	ltpFR2	11	18	LADY	794	n/a	n/a	0	0	0
3906353	WORD	wordpools/wasnorm_wordpool_576.txt	LTP325	ltpFR2	11	18	STONE	1385	n/a	n/a	0	0	0
3909139	WORD	wordpools/wasnorm_wordpool_576.txt	LTP325	ltpFR2	11	18	TRUCK	1512	n/a	n/a	0	0	0
3911623	WORD	wordpools/wasnorm_wordpool_576.txt	LTP325	ltpFR2	11	18	SISTER	1312	n/a	n/a	0	0	0
3914087	WORD	wordpools/wasnorm_wordpool_576.txt	LTP325	ltpFR2	11	18	BUG	187	n/a	n/a	0	0	0
3916705	WORD	wordpools/wasnorm_wordpool_576.txt	LTP325	ltpFR2	11	18	TERMITE	1451	n/a	n/a	0	0	0
3919240	WORD	wordpools/wasnorm_wordpool_576.txt	LTP325	ltpFR2	11	18	SCALLOP	1242	n/a	n/a	0	0	0
3921833	WORD	wordpools/wasnorm_wordpool_576.txt	LTP325	ltpFR2	11	18	MAILMAN	858	n/a	n/a	0	0	0
3924402	WORD	wordpools/wasnorm_wordpool_576.txt	LTP325	ltpFR2	11	18	ROBBER	1197	n/a	n/a	0	0	0
3927030	WORD	wordpools/wasnorm_wordpool_576.txt	LTP325	ltpFR2	11	18	TURTLE	1522	n/a	n/a	0	0	0
3928640	START	n/a	LTP325	ltpFR2	11	n/a	n/a	n/a	28	n/a	n/a	n/a	n/a
3929834	DISTRACTOR	n/a	LTP325	ltpFR2	11	18	n/a	n/a	n/a	n/a	0	0	0
3929841	PROB	n/a	LTP325	ltpFR2	11	n/a	n/a	n/a	28	18	2	8	8
3931549	PROB	n/a	LTP325	ltpFR2	11	n/a	n/a	n/a	28	15	2	5	8
3933368	PROB	n/a	LTP325	ltpFR2	11	n/a	n/a	n/a	28	10	1	1	8
3934970	PROB	n/a	LTP325	ltpFR2	11	n/a	n/a	n/a	28	14	3	7	4
3936605	PROB	n/a	LTP325	ltpFR2	11	n/a	n/a	n/a	28	12	8	1	3
3938539	PROB	n/a	LTP325	ltpFR2	11	n/a	n/a	n/a	28	15	6	3	6
3940374	PROB	n/a	LTP325	ltpFR2	11	n/a	n/a	n/a	28	10	3	4	3
3942959	PROB	n/a	LTP325	ltpFR2	11	n/a	n/a	n/a	28	13	5	6	2
3946494	PROB	n/a	LTP325	ltpFR2	11	n/a	n/a	n/a	28	16	2	6	8
3948531	PROB	n/a	LTP325	ltpFR2	11	n/a	n/a	n/a	28	15	1	6	8
3952640	STOP	n/a	LTP325	ltpFR2	11	n/a	n/a	n/a	28	n/a	n/a	n/a	n/a
3954485	REC_START	n/a	LTP325	ltpFR2	11	18	n/a	n/a	n/a	n/a	0	0	0
3955483	REC_WORD	wordpools/wasnorm_wordpool_576.txt	LTP325	ltpFR2	11	18	ROBBER	1197	n/a	n/a	0	0	0
3982501	REC_WORD	wordpools/wasnorm_wordpool_576.txt	LTP325	ltpFR2	11	18	DRAWING	494	n/a	n/a	0	0	0
3997911	REC_WORD	wordpools/wasnorm_wordpool_576.txt	LTP325	ltpFR2	11	18	NAPKIN	937	n/a	n/a	0	0	0
3999545	REC_WORD	wordpools/wasnorm_wordpool_576.txt	LTP325	ltpFR2	11	18	SPIDER	1351	n/a	n/a	0	0	0
4000545	REC_WORD_VV	wordpools/wasnorm_wordpool_576.txt	LTP325	ltpFR2	11	18	<>	-1	n/a	n/a	0	0	0
4001645	REC_WORD	wordpools/wasnorm_wordpool_576.txt	LTP325	ltpFR2	11	18	SISTER	1312	n/a	n/a	0	0	0
4003317	REC_WORD	wordpools/wasnorm_wordpool_576.txt	LTP325	ltpFR2	11	18	BUG	187	n/a	n/a	0	0	0
4004826	REC_WORD	wordpools/wasnorm_wordpool_576.txt	LTP325	ltpFR2	11	18	TERMITE	1451	n/a	n/a	0	0	0
4005826	REC_WORD_VV	wordpools/wasnorm_wordpool_576.txt	LTP325	ltpFR2	11	18	<>	-1	n/a	n/a	0	0	0
4012955	REC_WORD	wordpools/wasnorm_wordpool_576.txt	LTP325	ltpFR2	11	18	LADY	794	n/a	n/a	0	0	0
4014483	REC_WORD	wordpools/wasnorm_wordpool_576.txt	LTP325	ltpFR2	11	18	COLONEL	348	n/a	n/a	0	0	0
4044926	DISTRACTOR	n/a	LTP325	ltpFR2	11	19	n/a	n/a	n/a	n/a	0	0	0
4044926	START	n/a	LTP325	ltpFR2	11	n/a	n/a	n/a	29	n/a	n/a	n/a	n/a
4044942	PROB	n/a	LTP325	ltpFR2	11	n/a	n/a	n/a	29	12	4	3	5
4048494	PROB	n/a	LTP325	ltpFR2	11	n/a	n/a	n/a	29	18	9	2	7
4050727	PROB	n/a	LTP325	ltpFR2	11	n/a	n/a	n/a	29	13	6	4	3
4052245	PROB	n/a	LTP325	ltpFR2	11	n/a	n/a	n/a	29	16	4	5	7
4054065	PROB	n/a	LTP325	ltpFR2	11	n/a	n/a	n/a	29	18	9	3	6
4056100	PROB	n/a	LTP325	ltpFR2	11	n/a	n/a	n/a	29	11	2	1	8
4057466	PROB	n/a	LTP325	ltpFR2	11	n/a	n/a	n/a	29	23	6	8	9
4064056	PROB	n/a	LTP325	ltpFR2	11	n/a	n/a	n/a	29	16	7	3	6
4065607	PROB	n/a	LTP325	ltpFR2	11	n/a	n/a	n/a	29	13	4	8	1
4067591	STOP	n/a	LTP325	ltpFR2	11	n/a	n/a	n/a	29	n/a	n/a	n/a	n/a
4069846	WORD	wordpools/wasnorm_wordpool_576.txt	LTP325	ltpFR2	11	19	BOARD	143	n/a	n/a	0	0	0
4072330	WORD	wordpools/wasnorm_wordpool_576.txt	LTP325	ltpFR2	11	19	PEANUT	1032	n/a	n/a	0	0	0
4075032	WORD	wordpools/wasnorm_wordpool_576.txt	LTP325	ltpFR2	11	19	MUFFIN	929	n/a	n/a	0	0	0
4077617	WORD	wordpools/wasnorm_wordpool_576.txt	LTP325	ltpFR2	11	19	SMOG	1330	n/a	n/a	0	0	0
4080203	WORD	wordpools/wasnorm_wordpool_576.txt	LTP325	ltpFR2	11	19	TOMBSTONE	1478	n/a	n/a	0	0	0
4082889	WORD	wordpools/wasnorm_wordpool_576.txt	LTP325	ltpFR2	11	19	BANKER	84	n/a	n/a	0	0	0
4085440	WORD	wordpools/wasnorm_wordpool_576.txt	LTP325	ltpFR2	11	19	STUDENT	1395	n/a	n/a	0	0	0
4088177	WORD	wordpools/wasnorm_wordpool_576.txt	LTP325	ltpFR2	11	19	TEACHER	1440	n/a	n/a	0	0	0
4090711	WORD	wordpools/wasnorm_wordpool_576.txt	LTP325	ltpFR2	11	19	WIFE	1609	n/a	n/a	0	0	0
4093298	WORD	wordpools/wasnorm_wordpool_576.txt	LTP325	ltpFR2	11	19	RECEIPT	1173	n/a	n/a	0	0	0
4095749	WORD	wordpools/wasnorm_wordpool_576.txt	LTP325	ltpFR2	11	19	WHISTLE	1606	n/a	n/a	0	0	0
4098534	WORD	wordpools/wasnorm_wordpool_576.txt	LTP325	ltpFR2	11	19	XEROX	1628	n/a	n/a	0	0	0
4101036	WORD	wordpools/wasnorm_wordpool_576.txt	LTP325	ltpFR2	11	19	COOKBOOK	373	n/a	n/a	0	0	0
4103824	WORD	wordpools/wasnorm_wordpool_576.txt	LTP325	ltpFR2	11	19	FIDDLE	561	n/a	n/a	0	0	0
4106259	WORD	wordpools/wasnorm_wordpool_576.txt	LTP325	ltpFR2	11	19	WIDOW	1608	n/a	n/a	0	0	0
4109027	WORD	wordpools/wasnorm_wordpool_576.txt	LTP325	ltpFR2	11	19	TUTU	1524	n/a	n/a	0	0	0
4111828	WORD	wordpools/wasnorm_wordpool_576.txt	LTP325	ltpFR2	11	19	DOUGHNUT	490	n/a	n/a	0	0	0
4114463	WORD	wordpools/wasnorm_wordpool_576.txt	LTP325	ltpFR2	11	19	LION	827	n/a	n/a	0	0	0
4116883	WORD	wordpools/wasnorm_wordpool_576.txt	LTP325	ltpFR2	11	19	CASKET	255	n/a	n/a	0	0	0
4119684	WORD	wordpools/wasnorm_wordpool_576.txt	LTP325	ltpFR2	11	19	VICTIM	1562	n/a	n/a	0	0	0
4122386	WORD	wordpools/wasnorm_wordpool_576.txt	LTP325	ltpFR2	11	19	TROMBONE	1508	n/a	n/a	0	0	0
4124889	WORD	wordpools/wasnorm_wordpool_576.txt	LTP325	ltpFR2	11	19	GARBAGE	622	n/a	n/a	0	0	0
4127541	WORD	wordpools/wasnorm_wordpool_576.txt	LTP325	ltpFR2	11	19	ROBOT	1200	n/a	n/a	0	0	0
4130309	WORD	wordpools/wasnorm_wordpool_576.txt	LTP325	ltpFR2	11	19	CANDY	230	n/a	n/a	0	0	0
4131917	START	n/a	LTP325	ltpFR2	11	n/a	n/a	n/a	30	n/a	n/a	n/a	n/a
4132759	DISTRACTOR	n/a	LTP325	ltpFR2	11	19	n/a	n/a	n/a	n/a	0	0	0
4132767	PROB	n/a	LTP325	ltpFR2	11	n/a	n/a	n/a	30	11	1	4	6
4134444	PROB	n/a	LTP325	ltpFR2	11	n/a	n/a	n/a	30	19	8	9	2
4137182	PROB	n/a	LTP325	ltpFR2	11	n/a	n/a	n/a	30	24	8	7	8
4140784	PROB	n/a	LTP325	ltpFR2	11	n/a	n/a	n/a	30	15	9	2	4
4143669	PROB	n/a	LTP325	ltpFR2	11	n/a	n/a	n/a	30	24	8	6	9
4148957	PROB	n/a	LTP325	ltpFR2	11	n/a	n/a	n/a	30	17	8	4	5
4151960	PROB	n/a	LTP325	ltpFR2	11	n/a	n/a	n/a	30	15	5	5	5
4155917	STOP	n/a	LTP325	ltpFR2	11	n/a	n/a	n/a	30	n/a	n/a	n/a	n/a
4157731	REC_START	n/a	LTP325	ltpFR2	11	19	n/a	n/a	n/a	n/a	0	0	0
4160086	REC_WORD	wordpools/wasnorm_wordpool_576.txt	LTP325	ltpFR2	11	19	TROMBONE	1508	n/a	n/a	0	0	0
4175932	REC_WORD	wordpools/wasnorm_wordpool_576.txt	LTP325	ltpFR2	11	19	STUDENT	1395	n/a	n/a	0	0	0
4177762	REC_WORD	wordpools/wasnorm_wordpool_576.txt	LTP325	ltpFR2	11	19	TEACHER	1440	n/a	n/a	0	0	0
4179322	REC_WORD	wordpools/wasnorm_wordpool_576.txt	LTP325	ltpFR2	11	19	WIFE	1609	n/a	n/a	0	0	0
4219994	REC_WORD	wordpools/wasnorm_wordpool_576.txt	LTP325	ltpFR2	11	19	FIDDLE	561	n/a	n/a	0	0	0
4248166	WORD	wordpools/wasnorm_wordpool_576.txt	LTP325	ltpFR2	11	20	SURVEY	1414	n/a	n/a	0	0	0
4250635	WORD	wordpools/wasnorm_wordpool_576.txt	LTP325	ltpFR2	11	20	KITCHEN	778	n/a	n/a	0	0	0
4253437	WORD	wordpools/wasnorm_wordpool_576.txt	LTP325	ltpFR2	11	20	CELLAR	267	n/a	n/a	0	0	0
4256075	WORD	wordpools/wasnorm_wordpool_576.txt	LTP325	ltpFR2	11	20	MARKET	871	n/a	n/a	0	0	0
4258643	WORD	wordpools/wasnorm_wordpool_576.txt	LTP325	ltpFR2	11	20	BANQUET	86	n/a	n/a	0	0	0
4261162	WORD	wordpools/wasnorm_wordpool_576.txt	LTP325	ltpFR2	11	20	GRAPE	654	n/a	n/a	0	0	0
4263797	WORD	wordpools/wasnorm_wordpool_576.txt	LTP325	ltpFR2	11	20	RUST	1219	n/a	n/a	0	0	0
4266365	WORD	wordpools/wasnorm_wordpool_576.txt	LTP325	ltpFR2	11	20	GREASE	660	n/a	n/a	0	0	0
4269155	WORD	wordpools/wasnorm_wordpool_576.txt	LTP325	ltpFR2	11	20	LAKE	796	n/a	n/a	0	0	0
4271654	WORD	wordpools/wasnorm_wordpool_576.txt	LTP325	ltpFR2	11	20	WAITRESS	1581	n/a	n/a	0	0	0
4274389	WORD	wordpools/wasnorm_wordpool_576.txt	LTP325	ltpFR2	11	20	BASEMENT	94	n/a	n/a	0	0	0
4277076	WORD	wordpools/wasnorm_wordpool_576.txt	LTP325	ltpFR2	11	20	BEAST	108	n/a	n/a	0	0	0
4279728	WORD	wordpools/wasnorm_wordpool_576.txt	LTP325	ltpFR2	11	20	BISON	131	n/a	n/a	0	0	0
4282446	WORD	wordpools/wasnorm_wordpool_576.txt	LTP325	ltpFR2	11	20	GRAVE	658	n/a	n/a	0	0	0
4285149	WORD	wordpools/wasnorm_wordpool_576.txt	LTP325	ltpFR2	11	20	TRENCH	1503	n/a	n/a	0	0	0
4287685	WORD	wordpools/wasnorm_wordpool_576.txt	LTP325	ltpFR2	11	20	SODA	1341	n/a	n/a	0	0	0
4290371	WORD	wordpools/wasnorm_wordpool_576.txt	LTP325	ltpFR2	11	20	PARROT	1015	n/a	n/a	0	0	0
4292990	WORD	wordpools/wasnorm_wordpool_576.txt	LTP325	ltpFR2	11	20	ACTRESS	6	n/a	n/a	0	0	0
4295791	WORD	wordpools/wasnorm_wordpool_576.txt	LTP325	ltpFR2	11	20	DOLPHIN	483	n/a	n/a	0	0	0
4298243	WORD	wordpools/wasnorm_wordpool_576.txt	LTP325	ltpFR2	11	20	AIRPORT	13	n/a	n/a	0	0	0
4300913	WORD	wordpools/wasnorm_wordpool_576.txt	LTP325	ltpFR2	11	20	SERVANT	1271	n/a	n/a	0	0	0
4303715	WORD	wordpools/wasnorm_wordpool_576.txt	LTP325	ltpFR2	11	20	EAGLE	512	n/a	n/a	0	0	0
4306351	WORD	wordpools/wasnorm_wordpool_576.txt	LTP325	ltpFR2	11	20	BROTHER	179	n/a	n/a	0	0	0
4308835	WORD	wordpools/wasnorm_wordpool_576.txt	LTP325	ltpFR2	11	20	PAIL	1002	n/a	n/a	0	0	0
4310454	START	n/a	LTP325	ltpFR2	11	n/a	n/a	n/a	31	n/a	n/a	n/a	n/a
4311616	DISTRACTOR	n/a	LTP325	ltpFR2	11	20	n/a	n/a	n/a	n/a	0	0	0
4311621	PROB	n/a	LTP325	ltpFR2	11	n/a	n/a	n/a	31	15	4	6	5
4313455	PROB	n/a	LTP325	ltpFR2	11	n/a	n/a	n/a	31	19	9	8	2
4315190	PROB	n/a	LTP325	ltpFR2	11	n/a	n/a	n/a	31	12	8	3	1
4317192	PROB	n/a	LTP325	ltpFR2	11	n/a	n/a	n/a	31	12	2	4	6
4318659	PROB	n/a	LTP325	ltpFR2	11	n/a	n/a	n/a	31	14	8	3	3
4320778	PROB	n/a	LTP325	ltpFR2	11	n/a	n/a	n/a	31	12	1	5	6
4322478	PROB	n/a	LTP325	ltpFR2	11	n/a	n/a	n/a	31	16	7	6	3
4324231	PROB	n/a	LTP325	ltpFR2	11	n/a	n/a	n/a	31	14	6	1	7
4325918	PROB	n/a	LTP325	ltpFR2	11	n/a	n/a	n/a	31	17	9	7	1
4328500	PROB	n/a	LTP325	ltpFR2	11	n/a	n/a	n/a	31	5	1	2	2
4330369	PROB	n/a	LTP325	ltpFR2	11	n/a	n/a	n/a	31	19	8	8	3
4333313	STOP	n/a	LTP325	ltpFR2	11	n/a	n/a	n/a	31	n/a	n/a	n/a	n/a
4336308	REC_START	n/a	LTP325	ltpFR2	11	20	n/a	n/a	n/a	n/a	0	0	0
4362883	REC_WORD	wordpools/wasnorm_wordpool_576.txt	LTP325	ltpFR2	11	20	GREASE	660	n/a	n/a	0	0	0
4364293	REC_WORD	wordpools/wasnorm_wordpool_576.txt	LTP325	ltpFR2	11	20	RUST	1219	n/a	n/a	0	0	0
4372008	REC_WORD	wordpools/wasnorm_wordpool_576.txt	LTP325	ltpFR2	11	20	LAKE	796	n/a	n/a	0	0	0
4375983	REC_WORD	wordpools/wasnorm_wordpool_576.txt	LTP325	ltpFR2	11	20	WAITRESS	1581	n/a	n/a	0	0	0
4376983	REC_WORD_VV	wordpools/wasnorm_wordpool_576.txt	LTP325	ltpFR2	11	20	<>	-1	n/a	n/a	0	0	0
4379002	REC_WORD	wordpools/wasnorm_wordpool_576.txt	LTP325	ltpFR2	11	20	AIRPORT	13	n/a	n/a	0	0	0
4401631	REC_WORD	wordpools/wasnorm_wordpool_576.txt	LTP325	ltpFR2	11	20	SERVANT	1271	n/a	n/a	0	0	0
4426746	WORD	wordpools/wasnorm_wordpool_576.txt	LTP325	ltpFR2	11	21	CROWN	415	n/a	n/a	0	0	0
4429424	WORD	wordpools/wasnorm_wordpool_576.txt	LTP325	ltpFR2	11	21	BATHTUB	100	n/a	n/a	0	0	0
4432127	WORD	wordpools/wasnorm_wordpool_576.txt	LTP325	ltpFR2	11	21	LOFT	840	n/a	n/a	0	0	0
4434628	WORD	wordpools/wasnorm_wordpool_576.txt	LTP325	ltpFR2	11	21	ITEM	746	n/a	n/a	0	0	0
4437106	WORD	wordpools/wasnorm_wordpool_576.txt	LTP325	ltpFR2	11	21	COIN	343	n/a	n/a	0	0	0
4439892	WORD	wordpools/wasnorm_wordpool_576.txt	LTP325	ltpFR2	11	21	ANKLE	24	n/a	n/a	0	0	0
4442485	WORD	wordpools/wasnorm_wordpool_576.txt	LTP325	ltpFR2	11	21	ANTLER	29	n/a	n/a	0	0	0
4444905	WORD	wordpools/wasnorm_wordpool_576.txt	LTP325	ltpFR2	11	21	FLASHLIGHT	575	n/a	n/a	0	0	0
4447591	WORD	wordpools/wasnorm_wordpool_576.txt	LTP325	ltpFR2	11	21	LIPSTICK	829	n/a	n/a	0	0	0
4450243	WORD	wordpools/wasnorm_wordpool_576.txt	LTP325	ltpFR2	11	21	POSTAGE	1113	n/a	n/a	0	0	0
4452863	WORD	wordpools/wasnorm_wordpool_576.txt	LTP325	ltpFR2	11	21	DRESS	495	n/a	n/a	0	0	0
4455413	WORD	wordpools/wasnorm_wordpool_576.txt	LTP325	ltpFR2	11	21	BLOUSE	139	n/a	n/a	0	0	0
4457933	WORD	wordpools/wasnorm_wordpool_576.txt	LTP325	ltpFR2	11	21	TUNNEL	1519	n/a	n/a	0	0	0
4460451	WORD	wordpools/wasnorm_wordpool_576.txt	LTP325	ltpFR2	11	21	BOYFRIEND	162	n/a	n/a	0	0	0
4462977	WORD	wordpools/wasnorm_wordpool_576.txt	LTP325	ltpFR2	11	21	JOURNAL	760	n/a	n/a	0	0	0
4465523	WORD	wordpools/wasnorm_wordpool_576.txt	LTP325	ltpFR2	11	21	HANDBAG	684	n/a	n/a	0	0	0
4468126	WORD	wordpools/wasnorm_wordpool_576.txt	LTP325	ltpFR2	11	21	BUREAU	199	n/a	n/a	0	0	0
4470716	WORD	wordpools/wasnorm_wordpool_576.txt	LTP325	ltpFR2	11	21	STAKE	1368	n/a	n/a	0	0	0
4473430	WORD	wordpools/wasnorm_wordpool_576.txt	LTP325	ltpFR2	11	21	SADDLE	1221	n/a	n/a	0	0	0
4475899	WORD	wordpools/wasnorm_wordpool_576.txt	LTP325	ltpFR2	11	21	SWITCH	1422	n/a	n/a	0	0	0
4478717	WORD	wordpools/wasnorm_wordpool_576.txt	LTP325	ltpFR2	11	21	BURGLAR	200	n/a	n/a	0	0	0
4481204	WORD	wordpools/wasnorm_wordpool_576.txt	LTP325	ltpFR2	11	21	THIEF	1456	n/a	n/a	0	0	0
4483772	WORD	wordpools/wasnorm_wordpool_576.txt	LTP325	ltpFR2	11	21	PLAID	1080	n/a	n/a	0	0	0
4486240	WORD	wordpools/wasnorm_wordpool_576.txt	LTP325	ltpFR2	11	21	LONDON	843	n/a	n/a	0	0	0
4487847	START	n/a	LTP325	ltpFR2	11	n/a	n/a	n/a	32	n/a	n/a	n/a	n/a
4488810	DISTRACTOR	n/a	LTP325	ltpFR2	11	21	n/a	n/a	n/a	n/a	0	0	0
4488826	PROB	n/a	LTP325	ltpFR2	11	n/a	n/a	n/a	32	11	6	3	2
4491661	PROB	n/a	LTP325	ltpFR2	11	n/a	n/a	n/a	32	14	5	5	4
4493018	PROB	n/a	LTP325	ltpFR2	11	n/a	n/a	n/a	32	12	3	8	1
4494703	PROB	n/a	LTP325	ltpFR2	11	n/a	n/a	n/a	32	22	6	8	7
4498885	PROB	n/a	LTP325	ltpFR2	11	n/a	n/a	n/a	32	15	5	1	9
4503040	PROB	n/a	LTP325	ltpFR2	11	n/a	n/a	n/a	32	11	5	2	4
4505006	PROB	n/a	LTP325	ltpFR2	11	n/a	n/a	n/a	32	10	3	1	6
4506775	PROB	n/a	LTP325	ltpFR2	11	n/a	n/a	n/a	32	19	9	9	1
4508225	PROB	n/a	LTP325	ltpFR2	11	n/a	n/a	n/a	32	11	2	8	1
4511847	STOP	n/a	LTP325	ltpFR2	11	n/a	n/a	n/a	32	n/a	n/a	n/a	n/a
4513714	REC_START	n/a	LTP325	ltpFR2	11	21	n/a	n/a	n/a	n/a	0	0	0
4538203	REC_WORD	wordpools/wasnorm_wordpool_576.txt	LTP325	ltpFR2	11	21	LONDON	843	n/a	n/a	0	0	0
4552486	REC_WORD	wordpools/wasnorm_wordpool_576.txt	LTP325	ltpFR2	11	21	BURGLAR	200	n/a	n/a	0	0	0
4553850	REC_WORD	wordpools/wasnorm_wordpool_576.txt	LTP325	ltpFR2	11	21	THIEF	1456	n/a	n/a	0	0	0
4604156	WORD	wordpools/wasnorm_wordpool_576.txt	LTP325	ltpFR2	11	22	MUSTARD	935	n/a	n/a	0	0	0
4606964	WORD	wordpools/wasnorm_wordpool_576.txt	LTP325	ltpFR2	11	22	OMELET	976	n/a	n/a	0	0	0
4609577	WORD	wordpools/wasnorm_wordpool_576.txt	LTP325	ltpFR2	11	22	CUSTARD	429	n/a	n/a	0	0	0
4612079	WORD	wordpools/wasnorm_wordpool_576.txt	LTP325	ltpFR2	11	22	MACHINE	852	n/a	n/a	0	0	0
4614798	WORD	wordpools/wasnorm_wordpool_576.txt	LTP325	ltpFR2	11	22	FINGER	567	n/a	n/a	0	0	0
4617533	WORD	wordpools/wasnorm_wordpool_576.txt	LTP325	ltpFR2	11	22	HAND	683	n/a	n/a	0	0	0
4620053	WORD	wordpools/wasnorm_wordpool_576.txt	LTP325	ltpFR2	11	22	FUNGUS	614	n/a	n/a	0	0	0
4622820	WORD	wordpools/wasnorm_wordpool_576.txt	LTP325	ltpFR2	11	22	PARSLEY	1016	n/a	n/a	0	0	0
4625406	WORD	wordpools/wasnorm_wordpool_576.txt	LTP325	ltpFR2	11	22	PIMPLE	1071	n/a	n/a	0	0	0
4628027	WORD	wordpools/wasnorm_wordpool_576.txt	LTP325	ltpFR2	11	22	LEADER	807	n/a	n/a	0	0	0
4630493	WORD	wordpools/wasnorm_wordpool_576.txt	LTP325	ltpFR2	11	22	KETCHUP	771	n/a	n/a	0	0	0
4633030	WORD	wordpools/wasnorm_wordpool_576.txt	LTP325	ltpFR2	11	22	BEAVER	109	n/a	n/a	0	0	0
4635704	WORD	wordpools/wasnorm_wordpool_576.txt	LTP325	ltpFR2	11	22	VAGRANT	1544	n/a	n/a	0	0	0
4638373	WORD	wordpools/wasnorm_wordpool_576.txt	LTP325	ltpFR2	11	22	MOTEL	919	n/a	n/a	0	0	0
4641104	WORD	wordpools/wasnorm_wordpool_576.txt	LTP325	ltpFR2	11	22	TWEEZERS	1526	n/a	n/a	0	0	0
4643794	WORD	wordpools/wasnorm_wordpool_576.txt	LTP325	ltpFR2	11	22	RAZOR	1171	n/a	n/a	0	0	0
4646289	WORD	wordpools/wasnorm_wordpool_576.txt	LTP325	ltpFR2	11	22	WORKER	1621	n/a	n/a	0	0	0
4648775	WORD	wordpools/wasnorm_wordpool_576.txt	LTP325	ltpFR2	11	22	FOX	598	n/a	n/a	0	0	0
4651578	WORD	wordpools/wasnorm_wordpool_576.txt	LTP325	ltpFR2	11	22	OINTMENT	974	n/a	n/a	0	0	0
4654370	WORD	wordpools/wasnorm_wordpool_576.txt	LTP325	ltpFR2	11	22	TROUT	1511	n/a	n/a	0	0	0
4656916	WORD	wordpools/wasnorm_wordpool_576.txt	LTP325	ltpFR2	11	22	PUDDLE	1140	n/a	n/a	0	0	0
4659683	WORD	wordpools/wasnorm_wordpool_576.txt	LTP325	ltpFR2	11	22	PADDLE	1000	n/a	n/a	0	0	0
4662360	WORD	wordpools/wasnorm_wordpool_576.txt	LTP325	ltpFR2	11	22	DASHBOARD	441	n/a	n/a	0	0	0
4665081	WORD	wordpools/wasnorm_wordpool_576.txt	LTP325	ltpFR2	11	22	KIDNEY	776	n/a	n/a	0	0	0
4666690	START	n/a	LTP325	ltpFR2	11	n/a	n/a	n/a	33	n/a	n/a	n/a	n/a
4667716	DISTRACTOR	n/a	LTP325	ltpFR2	11	22	n/a	n/a	n/a	n/a	0	0	0
4667724	PROB	n/a	LTP325	ltpFR2	11	n/a	n/a	n/a	33	12	8	1	3
4670759	PROB	n/a	LTP325	ltpFR2	11	n/a	n/a	n/a	33	19	6	5	8
4677080	PROB	n/a	LTP325	ltpFR2	11	n/a	n/a	n/a	33	9	1	6	2
4679231	PROB	n/a	LTP325	ltpFR2	11	n/a	n/a	n/a	33	19	3	9	7
4680901	PROB	n/a	LTP325	ltpFR2	11	n/a	n/a	n/a	33	11	5	1	5
4682051	PROB	n/a	LTP325	ltpFR2	11	n/a	n/a	n/a	33	11	1	1	9
4683235	PROB	n/a	LTP325	ltpFR2	11	n/a	n/a	n/a	33	27	9	9	9
4687521	PROB	n/a	LTP325	ltpFR2	11	n/a	n/a	n/a	33	10	4	3	3
4689872	STOP	n/a	LTP325	ltpFR2	11	n/a	n/a	n/a	33	n/a	n/a	n/a	n/a
4692577	REC_START	n/a	LTP325	ltpFR2	11	22	n/a	n/a	n/a	n/a	0	0	0
4700503	REC_WORD	wordpools/wasnorm_wordpool_576.txt	LTP325	ltpFR2	11	22	FINGER	567	n/a	n/a	0	0	0
4701478	REC_WORD	wordpools/wasnorm_wordpool_576.txt	LTP325	ltpFR2	11	22	HAND	683	n/a	n/a	0	0	0
4702478	REC_WORD_VV	wordpools/wasnorm_wordpool_576.txt	LTP325	ltpFR2	11	22	<>	-1	n/a	n/a	0	0	0
4704033	REC_WORD	wordpools/wasnorm_wordpool_576.txt	LTP325	ltpFR2	11	22	OMELET	976	n/a	n/a	0	0	0
4706295	REC_WORD	wordpools/wasnorm_wordpool_576.txt	LTP325	ltpFR2	11	22	KETCHUP	771	n/a	n/a	0	0	0
4708167	REC_WORD	wordpools/wasnorm_wordpool_576.txt	LTP325	ltpFR2	11	22	MUSTARD	935	n/a	n/a	0	0	0
4709793	REC_WORD	wordpools/wasnorm_wordpool_576.txt	LTP325	ltpFR2	11	22	RELISH	1183	n/a	n/a	0	0	0
4711756	REC_WORD	wordpools/wasnorm_wordpool_576.txt	LTP325	ltpFR2	11	22	MACHINE	852	n/a	n/a	0	0	0
4732141	REC_WORD	wordpools/wasnorm_wordpool_576.txt	LTP325	ltpFR2	11	22	FOX	598	n/a	n/a	0	0	0
4733923	REC_WORD	wordpools/wasnorm_wordpool_576.txt	LTP325	ltpFR2	11	22	CASHIER	254	n/a	n/a	0	0	0
4736904	REC_WORD	wordpools/wasnorm_wordpool_576.txt	LTP325	ltpFR2	11	22	WORKER	1621	n/a	n/a	0	0	0
4755217	REC_WORD	wordpools/wasnorm_wordpool_576.txt	LTP325	ltpFR2	11	22	LEADER	807	n/a	n/a	0	0	0
4757277	REC_WORD	wordpools/wasnorm_wordpool_576.txt	LTP325	ltpFR2	11	22	BEAVER	109	n/a	n/a	0	0	0
4764653	REC_WORD	wordpools/wasnorm_wordpool_576.txt	LTP325	ltpFR2	11	22	PIMPLE	1071	n/a	n/a	0	0	0
4783049	WORD	wordpools/wasnorm_wordpool_576.txt	LTP325	ltpFR2	11	23	APPLE	33	n/a	n/a	0	0	0
4785635	WORD	wordpools/wasnorm_wordpool_576.txt	LTP325	ltpFR2	11	23	FRUIT	610	n/a	n/a	0	0	0
4788337	WORD	wordpools/wasnorm_wordpool_576.txt	LTP325	ltpFR2	11	23	PILOT	1070	n/a	n/a	0	0	0
4791090	WORD	wordpools/wasnorm_wordpool_576.txt	LTP325	ltpFR2	11	23	GANGSTER	620	n/a	n/a	0	0	0
4793592	WORD	wordpools/wasnorm_wordpool_576.txt	LTP325	ltpFR2	11	23	PANTHER	1009	n/a	n/a	0	0	0
4796277	WORD	wordpools/wasnorm_wordpool_576.txt	LTP325	ltpFR2	11	23	POISON	1096	n/a	n/a	0	0	0
4798980	WORD	wordpools/wasnorm_wordpool_576.txt	LTP325	ltpFR2	11	23	ELBOW	520	n/a	n/a	0	0	0
4801698	WORD	wordpools/wasnorm_wordpool_576.txt	LTP325	ltpFR2	11	23	HOOK	715	n/a	n/a	0	0	0
4804233	WORD	wordpools/wasnorm_wordpool_576.txt	LTP325	ltpFR2	11	23	LAPEL	800	n/a	n/a	0	0	0
4806937	WORD	wordpools/wasnorm_wordpool_576.txt	LTP325	ltpFR2	11	23	PISTOL	1075	n/a	n/a	0	0	0
4809638	WORD	wordpools/wasnorm_wordpool_576.txt	LTP325	ltpFR2	11	23	CABBAGE	210	n/a	n/a	0	0	0
4812173	WORD	wordpools/wasnorm_wordpool_576.txt	LTP325	ltpFR2	11	23	COUNTY	389	n/a	n/a	0	0	0
4814808	WORD	wordpools/wasnorm_wordpool_576.txt	LTP325	ltpFR2	11	23	VENUS	1557	n/a	n/a	0	0	0
4817477	WORD	wordpools/wasnorm_wordpool_576.txt	LTP325	ltpFR2	11	23	FLAG	573	n/a	n/a	0	0	0
4819914	WORD	wordpools/wasnorm_wordpool_576.txt	LTP325	ltpFR2	11	23	GIRL	637	n/a	n/a	0	0	0
4822448	WORD	wordpools/wasnorm_wordpool_576.txt	LTP325	ltpFR2	11	23	LOVER	846	n/a	n/a	0	0	0
4824869	WORD	wordpools/wasnorm_wordpool_576.txt	LTP325	ltpFR2	11	23	ASIA	46	n/a	n/a	0	0	0
4827502	WORD	wordpools/wasnorm_wordpool_576.txt	LTP325	ltpFR2	11	23	SHOULDER	1294	n/a	n/a	0	0	0
4830271	WORD	wordpools/wasnorm_wordpool_576.txt	LTP325	ltpFR2	11	23	CHEMIST	292	n/a	n/a	0	0	0
4832726	WORD	wordpools/wasnorm_wordpool_576.txt	LTP325	ltpFR2	11	23	COWBOY	395	n/a	n/a	0	0	0
4835441	WORD	wordpools/wasnorm_wordpool_576.txt	LTP325	ltpFR2	11	23	STALLION	1369	n/a	n/a	0	0	0
4837961	WORD	wordpools/wasnorm_wordpool_576.txt	LTP325	ltpFR2	11	23	REBEL	1172	n/a	n/a	0	0	0
4840678	WORD	wordpools/wasnorm_wordpool_576.txt	LTP325	ltpFR2	11	23	BACKBONE	66	n/a	n/a	0	0	0
4843369	WORD	wordpools/wasnorm_wordpool_576.txt	LTP325	ltpFR2	11	23	FILM	565	n/a	n/a	0	0	0
4844984	START	n/a	LTP325	ltpFR2	11	n/a	n/a	n/a	34	n/a	n/a	n/a	n/a
4845901	DISTRACTOR	n/a	LTP325	ltpFR2	11	23	n/a	n/a	n/a	n/a	0	0	0
4845905	PROB	n/a	LTP325	ltpFR2	11	n/a	n/a	n/a	34	15	9	2	4
4848334	PROB	n/a	LTP325	ltpFR2	11	n/a	n/a	n/a	34	14	2	4	8
4850137	PROB	n/a	LTP325	ltpFR2	11	n/a	n/a	n/a	34	11	1	7	3
4851386	PROB	n/a	LTP325	ltpFR2	11	n/a	n/a	n/a	34	9	5	3	1
4853572	PROB	n/a	LTP325	ltpFR2	11	n/a	n/a	n/a	34	15	8	5	2
4855007	PROB	n/a	LTP325	ltpFR2	11	n/a	n/a	n/a	34	9	4	2	3
4857142	PROB	n/a	LTP325	ltpFR2	11	n/a	n/a	n/a	34	13	4	3	6
4859178	PROB	n/a	LTP325	ltpFR2	11	n/a	n/a	n/a	34	7	5	1	1
4861029	PROB	n/a	LTP325	ltpFR2	11	n/a	n/a	n/a	34	18	7	4	7
4862730	PROB	n/a	LTP325	ltpFR2	11	n/a	n/a	n/a	34	25	8	8	9
4865032	PROB	n/a	LTP325	ltpFR2	11	n/a	n/a	n/a	34	15	6	8	1
4866966	PROB	n/a	LTP325	ltpFR2	11	n/a	n/a	n/a	34	12	5	1	6
4868774	STOP	n/a	LTP325	ltpFR2	11	n/a	n/a	n/a	34	n/a	n/a	n/a	n/a
4870787	REC_START	n/a	LTP325	ltpFR2	11	23	n/a	n/a	n/a	n/a	0	0	0
4872393	REC_WORD	wordpools/wasnorm_wordpool_576.txt	LTP325	ltpFR2	11	23	FILM	565	n/a	n/a	0	0	0
4873902	REC_WORD	wordpools/wasnorm_wordpool_576.txt	LTP325	ltpFR2	11	23	COWBOY	395	n/a	n/a	0	0	0
4891608	REC_WORD	wordpools/wasnorm_wordpool_576.txt	LTP325	ltpFR2	11	23	PANTHER	1009	n/a	n/a	0	0	0
4898177	REC_WORD	wordpools/wasnorm_wordpool_576.txt	LTP325	ltpFR2	11	23	GANGSTER	620	n/a	n/a	0	0	0
4902711	REC_WORD	wordpools/wasnorm_wordpool_576.txt	LTP325	ltpFR2	11	23	GUN	673	n/a	n/a	0	0	0
4961206	DISTRACTOR	n/a	LTP325	ltpFR2	11	24	n/a	n/a	n/a	n/a	0	0	0
4961206	START	n/a	LTP325	ltpFR2	11	n/a	n/a	n/a	35	n/a	n/a	n/a	n/a
4961220	PROB	n/a	LTP325	ltpFR2	11	n/a	n/a	n/a	35	20	3	8	9
4963727	PROB	n/a	LTP325	ltpFR2	11	n/a	n/a	n/a	35	13	1	4	8
4966096	PROB	n/a	LTP325	ltpFR2	11	n/a	n/a	n/a	35	13	2	3	8
4967614	PROB	n/a	LTP325	ltpFR2	11	n/a	n/a	n/a	35	9	4	4	1
4969100	PROB	n/a	LTP325	ltpFR2	11	n/a	n/a	n/a	35	10	6	1	3
4971267	PROB	n/a	LTP325	ltpFR2	11	n/a	n/a	n/a	35	18	4	8	6
4973681	PROB	n/a	LTP325	ltpFR2	11	n/a	n/a	n/a	35	17	6	7	4
4975733	PROB	n/a	LTP325	ltpFR2	11	n/a	n/a	n/a	35	16	4	7	5
4977534	PROB	n/a	LTP325	ltpFR2	11	n/a	n/a	n/a	35	10	1	8	1
4978924	PROB	n/a	LTP325	ltpFR2	11	n/a	n/a	n/a	35	19	7	3	9
4980421	PROB	n/a	LTP325	ltpFR2	11	n/a	n/a	n/a	35	18	7	4	7
4982291	PROB	n/a	LTP325	ltpFR2	11	n/a	n/a	n/a	35	12	5	1	6
4983771	STOP	n/a	LTP325	ltpFR2	11	n/a	n/a	n/a	35	n/a	n/a	n/a	n/a
4986412	WORD	wordpools/wasnorm_wordpool_576.txt	LTP325	ltpFR2	11	24	BANJO	82	n/a	n/a	0	0	0
4988929	WORD	wordpools/wasnorm_wordpool_576.txt	LTP325	ltpFR2	11	24	MASK	876	n/a	n/a	0	0	0
4991697	WORD	wordpools/wasnorm_wordpool_576.txt	LTP325	ltpFR2	11	24	CONTRACT	368	n/a	n/a	0	0	0
4994317	WORD	wordpools/wasnorm_wordpool_576.txt	LTP325	ltpFR2	11	24	CHEST	295	n/a	n/a	0	0	0
4996903	WORD	wordpools/wasnorm_wordpool_576.txt	LTP325	ltpFR2	11	24	HEADBAND	696	n/a	n/a	0	0	0
4999621	WORD	wordpools/wasnorm_wordpool_576.txt	LTP325	ltpFR2	11	24	ROD	1203	n/a	n/a	0	0	0
5002174	WORD	wordpools/wasnorm_wordpool_576.txt	LTP325	ltpFR2	11	24	YARN	1631	n/a	n/a	0	0	0
5004742	WORD	wordpools/wasnorm_wordpool_576.txt	LTP325	ltpFR2	11	24	SPOOL	1356	n/a	n/a	0	0	0
5007478	WORD	wordpools/wasnorm_wordpool_576.txt	LTP325	ltpFR2	11	24	WARDROBE	1587	n/a	n/a	0	0	0
5009914	WORD	wordpools/wasnorm_wordpool_576.txt	LTP325	ltpFR2	11	24	SHIRT	1287	n/a	n/a	0	0	0
5012349	WORD	wordpools/wasnorm_wordpool_576.txt	LTP325	ltpFR2	11	24	PREACHER	1119	n/a	n/a	0	0	0
5015019	WORD	wordpools/wasnorm_wordpool_576.txt	LTP325	ltpFR2	11	24	TEMPLE	1448	n/a	n/a	0	0	0
5017469	WORD	wordpools/wasnorm_wordpool_576.txt	LTP325	ltpFR2	11	24	SALT	1229	n/a	n/a	0	0	0
5020272	WORD	wordpools/wasnorm_wordpool_576.txt	LTP325	ltpFR2	11	24	CLAMP	316	n/a	n/a	0	0	0
5022842	WORD	wordpools/wasnorm_wordpool_576.txt	LTP325	ltpFR2	11	24	CHAMPAGNE	278	n/a	n/a	0	0	0
5025277	WORD	wordpools/wasnorm_wordpool_576.txt	LTP325	ltpFR2	11	24	HARP	689	n/a	n/a	0	0	0
5028014	WORD	wordpools/wasnorm_wordpool_576.txt	LTP325	ltpFR2	11	24	GARLIC	624	n/a	n/a	0	0	0
5030515	WORD	wordpools/wasnorm_wordpool_576.txt	LTP325	ltpFR2	11	24	MAPLE	866	n/a	n/a	0	0	0
5033101	WORD	wordpools/wasnorm_wordpool_576.txt	LTP325	ltpFR2	11	24	SUNRISE	1407	n/a	n/a	0	0	0
