mstime	trial_type	stim_file	subject	experiment	session	trial	item_name	item_num	list	answer	test_x	test_y	test_z
0	SESS_START	n/a	LTP385	ltpFR2	9	n/a	n/a	n/a	n/a	n/a	0	0	0
14586	START	n/a	LTP385	ltpFR2	9	n/a	n/a	n/a	-1	n/a	n/a	n/a	n/a
14617	PROB	n/a	LTP385	ltpFR2	9	n/a	n/a	n/a	-1	15	8	2	5
17334	PROB	n/a	LTP385	ltpFR2	9	n/a	n/a	n/a	-1	24	9	9	6
19983	PROB	n/a	LTP385	ltpFR2	9	n/a	n/a	n/a	-1	22	6	9	7
22700	PROB	n/a	LTP385	ltpFR2	9	n/a	n/a	n/a	-1	12	2	7	3
26586	STOP	n/a	LTP385	ltpFR2	9	n/a	n/a	n/a	-1	n/a	n/a	n/a	n/a
83649	WORD	wordpools/wasnorm_wordpool_576.txt	LTP385	ltpFR2	9	1	ROBOT	1200	n/a	n/a	0	0	0
86249	WORD	wordpools/wasnorm_wordpool_576.txt	LTP385	ltpFR2	9	1	WASHER	1592	n/a	n/a	0	0	0
88816	WORD	wordpools/wasnorm_wordpool_576.txt	LTP385	ltpFR2	9	1	PLASTER	1085	n/a	n/a	0	0	0
91316	WORD	wordpools/wasnorm_wordpool_576.txt	LTP385	ltpFR2	9	1	SNAIL	1332	n/a	n/a	0	0	0
93782	WORD	wordpools/wasnorm_wordpool_576.txt	LTP385	ltpFR2	9	1	ZIPPER	1636	n/a	n/a	0	0	0
96332	WORD	wordpools/wasnorm_wordpool_576.txt	LTP385	ltpFR2	9	1	MEAT	883	n/a	n/a	0	0	0
98782	WORD	wordpools/wasnorm_wordpool_576.txt	LTP385	ltpFR2	9	1	BRANCH	168	n/a	n/a	0	0	0
101382	WORD	wordpools/wasnorm_wordpool_576.txt	LTP385	ltpFR2	9	1	PUDDLE	1140	n/a	n/a	0	0	0
103982	WORD	wordpools/wasnorm_wordpool_576.txt	LTP385	ltpFR2	9	1	PLAID	1080	n/a	n/a	0	0	0
106749	WORD	wordpools/wasnorm_wordpool_576.txt	LTP385	ltpFR2	9	1	POSSUM	1112	n/a	n/a	0	0	0
109232	WORD	wordpools/wasnorm_wordpool_576.txt	LTP385	ltpFR2	9	1	COUNTRY	388	n/a	n/a	0	0	0
111682	WORD	wordpools/wasnorm_wordpool_576.txt	LTP385	ltpFR2	9	1	LIVER	833	n/a	n/a	0	0	0
114332	WORD	wordpools/wasnorm_wordpool_576.txt	LTP385	ltpFR2	9	1	KIDNEY	776	n/a	n/a	0	0	0
117132	WORD	wordpools/wasnorm_wordpool_576.txt	LTP385	ltpFR2	9	1	MARSH	874	n/a	n/a	0	0	0
119933	WORD	wordpools/wasnorm_wordpool_576.txt	LTP385	ltpFR2	9	1	FINGER	567	n/a	n/a	0	0	0
122582	WORD	wordpools/wasnorm_wordpool_576.txt	LTP385	ltpFR2	9	1	HONEY	713	n/a	n/a	0	0	0
125149	WORD	wordpools/wasnorm_wordpool_576.txt	LTP385	ltpFR2	9	1	DORM	488	n/a	n/a	0	0	0
127765	WORD	wordpools/wasnorm_wordpool_576.txt	LTP385	ltpFR2	9	1	PICNIC	1060	n/a	n/a	0	0	0
130215	WORD	wordpools/wasnorm_wordpool_576.txt	LTP385	ltpFR2	9	1	CELLAR	267	n/a	n/a	0	0	0
132715	WORD	wordpools/wasnorm_wordpool_576.txt	LTP385	ltpFR2	9	1	FLASK	576	n/a	n/a	0	0	0
135298	WORD	wordpools/wasnorm_wordpool_576.txt	LTP385	ltpFR2	9	1	BALLOON	75	n/a	n/a	0	0	0
137865	WORD	wordpools/wasnorm_wordpool_576.txt	LTP385	ltpFR2	9	1	TEMPLE	1448	n/a	n/a	0	0	0
140415	WORD	wordpools/wasnorm_wordpool_576.txt	LTP385	ltpFR2	9	1	SISTER	1312	n/a	n/a	0	0	0
142916	WORD	wordpools/wasnorm_wordpool_576.txt	LTP385	ltpFR2	9	1	LADY	794	n/a	n/a	0	0	0
144532	START	n/a	LTP385	ltpFR2	9	n/a	n/a	n/a	1	n/a	n/a	n/a	n/a
145431	DISTRACTOR	n/a	LTP385	ltpFR2	9	1	n/a	n/a	n/a	n/a	0	0	0
145448	PROB	n/a	LTP385	ltpFR2	9	n/a	n/a	n/a	1	17	1	7	9
148332	PROB	n/a	LTP385	ltpFR2	9	n/a	n/a	n/a	1	8	2	3	3
150315	PROB	n/a	LTP385	ltpFR2	9	n/a	n/a	n/a	1	15	3	3	9
152282	PROB	n/a	LTP385	ltpFR2	9	n/a	n/a	n/a	1	18	6	5	7
154765	PROB	n/a	LTP385	ltpFR2	9	n/a	n/a	n/a	1	13	3	2	8
156848	PROB	n/a	LTP385	ltpFR2	9	n/a	n/a	n/a	1	21	9	9	3
158631	PROB	n/a	LTP385	ltpFR2	9	n/a	n/a	n/a	1	14	4	7	4
161148	PROB	n/a	LTP385	ltpFR2	9	n/a	n/a	n/a	1	16	5	2	9
163665	PROB	n/a	LTP385	ltpFR2	9	n/a	n/a	n/a	1	11	4	2	5
165965	PROB	n/a	LTP385	ltpFR2	9	n/a	n/a	n/a	1	8	2	5	1
167852	STOP	n/a	LTP385	ltpFR2	9	n/a	n/a	n/a	1	n/a	n/a	n/a	n/a
170432	REC_START	n/a	LTP385	ltpFR2	9	1	n/a	n/a	n/a	n/a	0	0	0
172307	REC_WORD	wordpools/wasnorm_wordpool_576.txt	LTP385	ltpFR2	9	1	PLAID	1080	n/a	n/a	0	0	0
173985	REC_WORD	wordpools/wasnorm_wordpool_576.txt	LTP385	ltpFR2	9	1	SISTER	1312	n/a	n/a	0	0	0
175125	REC_WORD	wordpools/wasnorm_wordpool_576.txt	LTP385	ltpFR2	9	1	LADY	794	n/a	n/a	0	0	0
176387	REC_WORD	wordpools/wasnorm_wordpool_576.txt	LTP385	ltpFR2	9	1	ROBOT	1200	n/a	n/a	0	0	0
177576	REC_WORD	wordpools/wasnorm_wordpool_576.txt	LTP385	ltpFR2	9	1	WASHER	1592	n/a	n/a	0	0	0
179120	REC_WORD	wordpools/wasnorm_wordpool_576.txt	LTP385	ltpFR2	9	1	ZIPPER	1636	n/a	n/a	0	0	0
180299	REC_WORD	wordpools/wasnorm_wordpool_576.txt	LTP385	ltpFR2	9	1	SNAIL	1332	n/a	n/a	0	0	0
182199	REC_WORD	wordpools/wasnorm_wordpool_576.txt	LTP385	ltpFR2	9	1	PUDDLE	1140	n/a	n/a	0	0	0
183099	REC_WORD	wordpools/wasnorm_wordpool_576.txt	LTP385	ltpFR2	9	1	BRANCH	168	n/a	n/a	0	0	0
184072	REC_WORD	wordpools/wasnorm_wordpool_576.txt	LTP385	ltpFR2	9	1	MEAT	883	n/a	n/a	0	0	0
185085	REC_WORD	wordpools/wasnorm_wordpool_576.txt	LTP385	ltpFR2	9	1	LIVER	833	n/a	n/a	0	0	0
186269	REC_WORD	wordpools/wasnorm_wordpool_576.txt	LTP385	ltpFR2	9	1	KIDNEY	776	n/a	n/a	0	0	0
187204	REC_WORD	wordpools/wasnorm_wordpool_576.txt	LTP385	ltpFR2	9	1	SWAMP	1416	n/a	n/a	0	0	0
192094	REC_WORD	wordpools/wasnorm_wordpool_576.txt	LTP385	ltpFR2	9	1	DORM	488	n/a	n/a	0	0	0
192817	REC_WORD	wordpools/wasnorm_wordpool_576.txt	LTP385	ltpFR2	9	1	PICNIC	1060	n/a	n/a	0	0	0
199678	REC_WORD	wordpools/wasnorm_wordpool_576.txt	LTP385	ltpFR2	9	1	SELLY	-1	n/a	n/a	0	0	0
200714	REC_WORD	wordpools/wasnorm_wordpool_576.txt	LTP385	ltpFR2	9	1	CELLUAR	-1	n/a	n/a	0	0	0
201775	REC_WORD	wordpools/wasnorm_wordpool_576.txt	LTP385	ltpFR2	9	1	CELLULAR	-1	n/a	n/a	0	0	0
260863	DISTRACTOR	n/a	LTP385	ltpFR2	9	2	n/a	n/a	n/a	n/a	0	0	0
260863	START	n/a	LTP385	ltpFR2	9	n/a	n/a	n/a	2	n/a	n/a	n/a	n/a
260881	PROB	n/a	LTP385	ltpFR2	9	n/a	n/a	n/a	2	11	2	8	1
262763	PROB	n/a	LTP385	ltpFR2	9	n/a	n/a	n/a	2	21	8	4	9
267096	PROB	n/a	LTP385	ltpFR2	9	n/a	n/a	n/a	2	12	8	1	3
269130	PROB	n/a	LTP385	ltpFR2	9	n/a	n/a	n/a	2	16	5	7	4
272063	PROB	n/a	LTP385	ltpFR2	9	n/a	n/a	n/a	2	19	2	9	8
274346	PROB	n/a	LTP385	ltpFR2	9	n/a	n/a	n/a	2	22	7	6	8
278796	PROB	n/a	LTP385	ltpFR2	9	n/a	n/a	n/a	2	19	4	6	9
281846	PROB	n/a	LTP385	ltpFR2	9	n/a	n/a	n/a	2	24	9	7	8
284720	STOP	n/a	LTP385	ltpFR2	9	n/a	n/a	n/a	2	n/a	n/a	n/a	n/a
285930	WORD	wordpools/wasnorm_wordpool_576.txt	LTP385	ltpFR2	9	2	PUPPY	1144	n/a	n/a	0	0	0
288746	WORD	wordpools/wasnorm_wordpool_576.txt	LTP385	ltpFR2	9	2	MOTOR	922	n/a	n/a	0	0	0
291563	WORD	wordpools/wasnorm_wordpool_576.txt	LTP385	ltpFR2	9	2	MOP	916	n/a	n/a	0	0	0
294113	WORD	wordpools/wasnorm_wordpool_576.txt	LTP385	ltpFR2	9	2	HAWK	692	n/a	n/a	0	0	0
296596	WORD	wordpools/wasnorm_wordpool_576.txt	LTP385	ltpFR2	9	2	PISTOL	1075	n/a	n/a	0	0	0
299079	WORD	wordpools/wasnorm_wordpool_576.txt	LTP385	ltpFR2	9	2	RIFLE	1192	n/a	n/a	0	0	0
301646	WORD	wordpools/wasnorm_wordpool_576.txt	LTP385	ltpFR2	9	2	TURKEY	1520	n/a	n/a	0	0	0
304212	WORD	wordpools/wasnorm_wordpool_576.txt	LTP385	ltpFR2	9	2	HOUND	724	n/a	n/a	0	0	0
306696	WORD	wordpools/wasnorm_wordpool_576.txt	LTP385	ltpFR2	9	2	COD	340	n/a	n/a	0	0	0
309146	WORD	wordpools/wasnorm_wordpool_576.txt	LTP385	ltpFR2	9	2	MARINE	869	n/a	n/a	0	0	0
311679	WORD	wordpools/wasnorm_wordpool_576.txt	LTP385	ltpFR2	9	2	GRILL	661	n/a	n/a	0	0	0
314496	WORD	wordpools/wasnorm_wordpool_576.txt	LTP385	ltpFR2	9	2	BEAST	108	n/a	n/a	0	0	0
317329	WORD	wordpools/wasnorm_wordpool_576.txt	LTP385	ltpFR2	9	2	DIVER	476	n/a	n/a	0	0	0
320029	WORD	wordpools/wasnorm_wordpool_576.txt	LTP385	ltpFR2	9	2	WHISTLE	1606	n/a	n/a	0	0	0
322712	WORD	wordpools/wasnorm_wordpool_576.txt	LTP385	ltpFR2	9	2	OZONE	996	n/a	n/a	0	0	0
325262	WORD	wordpools/wasnorm_wordpool_576.txt	LTP385	ltpFR2	9	2	YARN	1631	n/a	n/a	0	0	0
327846	WORD	wordpools/wasnorm_wordpool_576.txt	LTP385	ltpFR2	9	2	SWORD	1423	n/a	n/a	0	0	0
330612	WORD	wordpools/wasnorm_wordpool_576.txt	LTP385	ltpFR2	9	2	SCALPEL	1243	n/a	n/a	0	0	0
333079	WORD	wordpools/wasnorm_wordpool_576.txt	LTP385	ltpFR2	9	2	CEILING	265	n/a	n/a	0	0	0
335779	WORD	wordpools/wasnorm_wordpool_576.txt	LTP385	ltpFR2	9	2	FOX	598	n/a	n/a	0	0	0
338379	WORD	wordpools/wasnorm_wordpool_576.txt	LTP385	ltpFR2	9	2	CITRUS	313	n/a	n/a	0	0	0
341179	WORD	wordpools/wasnorm_wordpool_576.txt	LTP385	ltpFR2	9	2	MESSAGE	888	n/a	n/a	0	0	0
343612	WORD	wordpools/wasnorm_wordpool_576.txt	LTP385	ltpFR2	9	2	TOASTER	1472	n/a	n/a	0	0	0
346195	WORD	wordpools/wasnorm_wordpool_576.txt	LTP385	ltpFR2	9	2	STATUE	1374	n/a	n/a	0	0	0
347812	START	n/a	LTP385	ltpFR2	9	n/a	n/a	n/a	3	n/a	n/a	n/a	n/a
348619	DISTRACTOR	n/a	LTP385	ltpFR2	9	2	n/a	n/a	n/a	n/a	0	0	0
348628	PROB	n/a	LTP385	ltpFR2	9	n/a	n/a	n/a	3	16	6	3	7
352145	PROB	n/a	LTP385	ltpFR2	9	n/a	n/a	n/a	3	10	3	5	2
354462	PROB	n/a	LTP385	ltpFR2	9	n/a	n/a	n/a	3	20	9	5	6
356712	PROB	n/a	LTP385	ltpFR2	9	n/a	n/a	n/a	3	24	8	7	9
361328	PROB	n/a	LTP385	ltpFR2	9	n/a	n/a	n/a	3	19	9	4	6
363428	PROB	n/a	LTP385	ltpFR2	9	n/a	n/a	n/a	3	12	5	4	3
365545	PROB	n/a	LTP385	ltpFR2	9	n/a	n/a	n/a	3	17	7	1	9
368245	PROB	n/a	LTP385	ltpFR2	9	n/a	n/a	n/a	3	7	1	5	1
371812	STOP	n/a	LTP385	ltpFR2	9	n/a	n/a	n/a	3	n/a	n/a	n/a	n/a
373729	REC_START	n/a	LTP385	ltpFR2	9	2	n/a	n/a	n/a	n/a	0	0	0
374667	REC_WORD	wordpools/wasnorm_wordpool_576.txt	LTP385	ltpFR2	9	2	MASSAGE	-1	n/a	n/a	0	0	0
375807	REC_WORD	wordpools/wasnorm_wordpool_576.txt	LTP385	ltpFR2	9	2	TOASTER	1472	n/a	n/a	0	0	0
376586	REC_WORD	wordpools/wasnorm_wordpool_576.txt	LTP385	ltpFR2	9	2	STATUE	1374	n/a	n/a	0	0	0
378540	REC_WORD	wordpools/wasnorm_wordpool_576.txt	LTP385	ltpFR2	9	2	PUPPY	1144	n/a	n/a	0	0	0
379544	REC_WORD	wordpools/wasnorm_wordpool_576.txt	LTP385	ltpFR2	9	2	MOTOR	922	n/a	n/a	0	0	0
381653	REC_WORD	wordpools/wasnorm_wordpool_576.txt	LTP385	ltpFR2	9	2	GUN	673	n/a	n/a	0	0	0
382530	REC_WORD	wordpools/wasnorm_wordpool_576.txt	LTP385	ltpFR2	9	2	RIFLE	1192	n/a	n/a	0	0	0
383434	REC_WORD	wordpools/wasnorm_wordpool_576.txt	LTP385	ltpFR2	9	2	HOUND	724	n/a	n/a	0	0	0
384891	REC_WORD	wordpools/wasnorm_wordpool_576.txt	LTP385	ltpFR2	9	2	FOX	598	n/a	n/a	0	0	0
386035	REC_WORD	wordpools/wasnorm_wordpool_576.txt	LTP385	ltpFR2	9	2	HAWK	692	n/a	n/a	0	0	0
464193	WORD	wordpools/wasnorm_wordpool_576.txt	LTP385	ltpFR2	9	3	CANAL	226	n/a	n/a	0	0	0
466743	WORD	wordpools/wasnorm_wordpool_576.txt	LTP385	ltpFR2	9	3	TWISTER	1530	n/a	n/a	0	0	0
469560	WORD	wordpools/wasnorm_wordpool_576.txt	LTP385	ltpFR2	9	3	TRENCH	1503	n/a	n/a	0	0	0
472027	WORD	wordpools/wasnorm_wordpool_576.txt	LTP385	ltpFR2	9	3	SHIRT	1287	n/a	n/a	0	0	0
474727	WORD	wordpools/wasnorm_wordpool_576.txt	LTP385	ltpFR2	9	3	BRACES	164	n/a	n/a	0	0	0
477310	WORD	wordpools/wasnorm_wordpool_576.txt	LTP385	ltpFR2	9	3	LILY	821	n/a	n/a	0	0	0
479928	WORD	wordpools/wasnorm_wordpool_576.txt	LTP385	ltpFR2	9	3	BARREL	91	n/a	n/a	0	0	0
482360	WORD	wordpools/wasnorm_wordpool_576.txt	LTP385	ltpFR2	9	3	STOVE	1388	n/a	n/a	0	0	0
485010	WORD	wordpools/wasnorm_wordpool_576.txt	LTP385	ltpFR2	9	3	KITCHEN	778	n/a	n/a	0	0	0
487543	WORD	wordpools/wasnorm_wordpool_576.txt	LTP385	ltpFR2	9	3	PLIERS	1089	n/a	n/a	0	0	0
490010	WORD	wordpools/wasnorm_wordpool_576.txt	LTP385	ltpFR2	9	3	SCISSORS	1250	n/a	n/a	0	0	0
492626	WORD	wordpools/wasnorm_wordpool_576.txt	LTP385	ltpFR2	9	3	FOOT	590	n/a	n/a	0	0	0
495110	WORD	wordpools/wasnorm_wordpool_576.txt	LTP385	ltpFR2	9	3	PERMIT	1051	n/a	n/a	0	0	0
497593	WORD	wordpools/wasnorm_wordpool_576.txt	LTP385	ltpFR2	9	3	COCKTAIL	338	n/a	n/a	0	0	0
500243	WORD	wordpools/wasnorm_wordpool_576.txt	LTP385	ltpFR2	9	3	GARDEN	623	n/a	n/a	0	0	0
502709	WORD	wordpools/wasnorm_wordpool_576.txt	LTP385	ltpFR2	9	3	PIZZA	1079	n/a	n/a	0	0	0
505426	WORD	wordpools/wasnorm_wordpool_576.txt	LTP385	ltpFR2	9	3	CASHEW	253	n/a	n/a	0	0	0
507976	WORD	wordpools/wasnorm_wordpool_576.txt	LTP385	ltpFR2	9	3	IDOL	733	n/a	n/a	0	0	0
510509	WORD	wordpools/wasnorm_wordpool_576.txt	LTP385	ltpFR2	9	3	DRILL	497	n/a	n/a	0	0	0
513259	WORD	wordpools/wasnorm_wordpool_576.txt	LTP385	ltpFR2	9	3	TOURIST	1488	n/a	n/a	0	0	0
515793	WORD	wordpools/wasnorm_wordpool_576.txt	LTP385	ltpFR2	9	3	SUITCASE	1403	n/a	n/a	0	0	0
518326	WORD	wordpools/wasnorm_wordpool_576.txt	LTP385	ltpFR2	9	3	CLOCK	325	n/a	n/a	0	0	0
520809	WORD	wordpools/wasnorm_wordpool_576.txt	LTP385	ltpFR2	9	3	PENGUIN	1044	n/a	n/a	0	0	0
523276	WORD	wordpools/wasnorm_wordpool_576.txt	LTP385	ltpFR2	9	3	WINDOW	1611	n/a	n/a	0	0	0
524894	START	n/a	LTP385	ltpFR2	9	n/a	n/a	n/a	4	n/a	n/a	n/a	n/a
525778	DISTRACTOR	n/a	LTP385	ltpFR2	9	3	n/a	n/a	n/a	n/a	0	0	0
525792	PROB	n/a	LTP385	ltpFR2	9	n/a	n/a	n/a	4	18	7	3	8
529910	PROB	n/a	LTP385	ltpFR2	9	n/a	n/a	n/a	4	18	7	4	6
533559	PROB	n/a	LTP385	ltpFR2	9	n/a	n/a	n/a	4	10	4	1	5
536059	PROB	n/a	LTP385	ltpFR2	9	n/a	n/a	n/a	4	12	5	3	4
538259	PROB	n/a	LTP385	ltpFR2	9	n/a	n/a	n/a	4	13	9	2	2
540192	PROB	n/a	LTP385	ltpFR2	9	n/a	n/a	n/a	4	19	8	3	8
542359	PROB	n/a	LTP385	ltpFR2	9	n/a	n/a	n/a	4	22	9	9	4
547384	STOP	n/a	LTP385	ltpFR2	9	n/a	n/a	n/a	4	n/a	n/a	n/a	n/a
550727	REC_START	n/a	LTP385	ltpFR2	9	3	n/a	n/a	n/a	n/a	0	0	0
551957	REC_WORD	wordpools/wasnorm_wordpool_576.txt	LTP385	ltpFR2	9	3	CLOCK	325	n/a	n/a	0	0	0
552671	REC_WORD	wordpools/wasnorm_wordpool_576.txt	LTP385	ltpFR2	9	3	PENGUIN	1044	n/a	n/a	0	0	0
553266	REC_WORD	wordpools/wasnorm_wordpool_576.txt	LTP385	ltpFR2	9	3	WIDOW	1608	n/a	n/a	0	0	0
555632	REC_WORD	wordpools/wasnorm_wordpool_576.txt	LTP385	ltpFR2	9	3	TWISTER	1530	n/a	n/a	0	0	0
556690	REC_WORD	wordpools/wasnorm_wordpool_576.txt	LTP385	ltpFR2	9	3	TRENCH	1503	n/a	n/a	0	0	0
557364	REC_WORD	wordpools/wasnorm_wordpool_576.txt	LTP385	ltpFR2	9	3	CANAL	226	n/a	n/a	0	0	0
559097	REC_WORD	wordpools/wasnorm_wordpool_576.txt	LTP385	ltpFR2	9	3	BARREL	91	n/a	n/a	0	0	0
560614	REC_WORD	wordpools/wasnorm_wordpool_576.txt	LTP385	ltpFR2	9	3	LILY	821	n/a	n/a	0	0	0
755722	DISTRACTOR	n/a	LTP385	ltpFR2	9	4	n/a	n/a	n/a	n/a	0	0	0
755722	START	n/a	LTP385	ltpFR2	9	n/a	n/a	n/a	5	n/a	n/a	n/a	n/a
755739	PROB	n/a	LTP385	ltpFR2	9	n/a	n/a	n/a	5	16	4	5	7
758322	PROB	n/a	LTP385	ltpFR2	9	n/a	n/a	n/a	5	24	9	9	6
761956	PROB	n/a	LTP385	ltpFR2	9	n/a	n/a	n/a	5	23	9	8	4
765022	PROB	n/a	LTP385	ltpFR2	9	n/a	n/a	n/a	5	22	4	9	9
767489	PROB	n/a	LTP385	ltpFR2	9	n/a	n/a	n/a	5	18	7	4	7
772355	PROB	n/a	LTP385	ltpFR2	9	n/a	n/a	n/a	5	14	4	9	1
774222	PROB	n/a	LTP385	ltpFR2	9	n/a	n/a	n/a	5	14	8	3	3
776772	PROB	n/a	LTP385	ltpFR2	9	n/a	n/a	n/a	5	21	8	9	4
779311	STOP	n/a	LTP385	ltpFR2	9	n/a	n/a	n/a	5	n/a	n/a	n/a	n/a
780923	WORD	wordpools/wasnorm_wordpool_576.txt	LTP385	ltpFR2	9	4	TUNNEL	1519	n/a	n/a	0	0	0
783372	WORD	wordpools/wasnorm_wordpool_576.txt	LTP385	ltpFR2	9	4	CHIPMUNK	304	n/a	n/a	0	0	0
786055	WORD	wordpools/wasnorm_wordpool_576.txt	LTP385	ltpFR2	9	4	GUARD	667	n/a	n/a	0	0	0
788588	WORD	wordpools/wasnorm_wordpool_576.txt	LTP385	ltpFR2	9	4	FRIAR	605	n/a	n/a	0	0	0
791338	WORD	wordpools/wasnorm_wordpool_576.txt	LTP385	ltpFR2	9	4	EXPERT	543	n/a	n/a	0	0	0
793889	WORD	wordpools/wasnorm_wordpool_576.txt	LTP385	ltpFR2	9	4	TEACHER	1440	n/a	n/a	0	0	0
796355	WORD	wordpools/wasnorm_wordpool_576.txt	LTP385	ltpFR2	9	4	BACON	67	n/a	n/a	0	0	0
798906	WORD	wordpools/wasnorm_wordpool_576.txt	LTP385	ltpFR2	9	4	GRAPE	654	n/a	n/a	0	0	0
801405	WORD	wordpools/wasnorm_wordpool_576.txt	LTP385	ltpFR2	9	4	CHAMPAGNE	278	n/a	n/a	0	0	0
804105	WORD	wordpools/wasnorm_wordpool_576.txt	LTP385	ltpFR2	9	4	DIME	466	n/a	n/a	0	0	0
806655	WORD	wordpools/wasnorm_wordpool_576.txt	LTP385	ltpFR2	9	4	JEANS	752	n/a	n/a	0	0	0
809388	WORD	wordpools/wasnorm_wordpool_576.txt	LTP385	ltpFR2	9	4	BUGGY	188	n/a	n/a	0	0	0
811872	WORD	wordpools/wasnorm_wordpool_576.txt	LTP385	ltpFR2	9	4	FLEET	578	n/a	n/a	0	0	0
814671	WORD	wordpools/wasnorm_wordpool_576.txt	LTP385	ltpFR2	9	4	BLOUSE	139	n/a	n/a	0	0	0
817455	WORD	wordpools/wasnorm_wordpool_576.txt	LTP385	ltpFR2	9	4	PASTRY	1022	n/a	n/a	0	0	0
820021	WORD	wordpools/wasnorm_wordpool_576.txt	LTP385	ltpFR2	9	4	ICING	732	n/a	n/a	0	0	0
822671	WORD	wordpools/wasnorm_wordpool_576.txt	LTP385	ltpFR2	9	4	BANKER	84	n/a	n/a	0	0	0
825405	WORD	wordpools/wasnorm_wordpool_576.txt	LTP385	ltpFR2	9	4	SHORTS	1293	n/a	n/a	0	0	0
827955	WORD	wordpools/wasnorm_wordpool_576.txt	LTP385	ltpFR2	9	4	RECORD	1176	n/a	n/a	0	0	0
830754	WORD	wordpools/wasnorm_wordpool_576.txt	LTP385	ltpFR2	9	4	PRIMATE	1123	n/a	n/a	0	0	0
833538	WORD	wordpools/wasnorm_wordpool_576.txt	LTP385	ltpFR2	9	4	CYCLONE	431	n/a	n/a	0	0	0
836254	WORD	wordpools/wasnorm_wordpool_576.txt	LTP385	ltpFR2	9	4	COWBOY	395	n/a	n/a	0	0	0
839004	WORD	wordpools/wasnorm_wordpool_576.txt	LTP385	ltpFR2	9	4	PARENT	1013	n/a	n/a	0	0	0
841788	WORD	wordpools/wasnorm_wordpool_576.txt	LTP385	ltpFR2	9	4	HIKER	708	n/a	n/a	0	0	0
843404	START	n/a	LTP385	ltpFR2	9	n/a	n/a	n/a	6	n/a	n/a	n/a	n/a
844532	DISTRACTOR	n/a	LTP385	ltpFR2	9	4	n/a	n/a	n/a	n/a	0	0	0
844538	PROB	n/a	LTP385	ltpFR2	9	n/a	n/a	n/a	6	24	8	8	8
846754	PROB	n/a	LTP385	ltpFR2	9	n/a	n/a	n/a	6	23	9	7	7
850087	PROB	n/a	LTP385	ltpFR2	9	n/a	n/a	n/a	6	18	6	9	2
852471	PROB	n/a	LTP385	ltpFR2	9	n/a	n/a	n/a	6	14	8	1	5
855604	PROB	n/a	LTP385	ltpFR2	9	n/a	n/a	n/a	6	13	2	4	7
858221	PROB	n/a	LTP385	ltpFR2	9	n/a	n/a	n/a	6	21	5	7	9
862888	PROB	n/a	LTP385	ltpFR2	9	n/a	n/a	n/a	6	11	2	3	6
867404	STOP	n/a	LTP385	ltpFR2	9	n/a	n/a	n/a	6	n/a	n/a	n/a	n/a
869221	REC_START	n/a	LTP385	ltpFR2	9	4	n/a	n/a	n/a	n/a	0	0	0
875155	REC_WORD	wordpools/wasnorm_wordpool_576.txt	LTP385	ltpFR2	9	4	COWBOY	395	n/a	n/a	0	0	0
875942	REC_WORD	wordpools/wasnorm_wordpool_576.txt	LTP385	ltpFR2	9	4	HIKER	708	n/a	n/a	0	0	0
883111	REC_WORD	wordpools/wasnorm_wordpool_576.txt	LTP385	ltpFR2	9	4	CLIMBER	323	n/a	n/a	0	0	0
887479	REC_WORD	wordpools/wasnorm_wordpool_576.txt	LTP385	ltpFR2	9	4	TEACHER	1440	n/a	n/a	0	0	0
888605	REC_WORD	wordpools/wasnorm_wordpool_576.txt	LTP385	ltpFR2	9	4	DIME	466	n/a	n/a	0	0	0
890331	REC_WORD	wordpools/wasnorm_wordpool_576.txt	LTP385	ltpFR2	9	4	JEANS	752	n/a	n/a	0	0	0
892384	REC_WORD	wordpools/wasnorm_wordpool_576.txt	LTP385	ltpFR2	9	4	CHAMPAGNE	278	n/a	n/a	0	0	0
898238	REC_WORD	wordpools/wasnorm_wordpool_576.txt	LTP385	ltpFR2	9	4	FLEET	578	n/a	n/a	0	0	0
900971	REC_WORD	wordpools/wasnorm_wordpool_576.txt	LTP385	ltpFR2	9	4	BLOUSE	139	n/a	n/a	0	0	0
904389	REC_WORD	wordpools/wasnorm_wordpool_576.txt	LTP385	ltpFR2	9	4	CYCLONE	431	n/a	n/a	0	0	0
959703	WORD	wordpools/wasnorm_wordpool_576.txt	LTP385	ltpFR2	9	5	ACTOR	5	n/a	n/a	0	0	0
962303	WORD	wordpools/wasnorm_wordpool_576.txt	LTP385	ltpFR2	9	5	FARMER	553	n/a	n/a	0	0	0
964769	WORD	wordpools/wasnorm_wordpool_576.txt	LTP385	ltpFR2	9	5	SNACK	1331	n/a	n/a	0	0	0
967402	WORD	wordpools/wasnorm_wordpool_576.txt	LTP385	ltpFR2	9	5	PEANUT	1032	n/a	n/a	0	0	0
970186	WORD	wordpools/wasnorm_wordpool_576.txt	LTP385	ltpFR2	9	5	MUFFIN	929	n/a	n/a	0	0	0
972936	WORD	wordpools/wasnorm_wordpool_576.txt	LTP385	ltpFR2	9	5	PARROT	1015	n/a	n/a	0	0	0
975536	WORD	wordpools/wasnorm_wordpool_576.txt	LTP385	ltpFR2	9	5	SWAMP	1416	n/a	n/a	0	0	0
978352	WORD	wordpools/wasnorm_wordpool_576.txt	LTP385	ltpFR2	9	5	KETCHUP	771	n/a	n/a	0	0	0
981052	WORD	wordpools/wasnorm_wordpool_576.txt	LTP385	ltpFR2	9	5	RELISH	1183	n/a	n/a	0	0	0
983485	WORD	wordpools/wasnorm_wordpool_576.txt	LTP385	ltpFR2	9	5	HATCHET	691	n/a	n/a	0	0	0
986135	WORD	wordpools/wasnorm_wordpool_576.txt	LTP385	ltpFR2	9	5	REBEL	1172	n/a	n/a	0	0	0
988869	WORD	wordpools/wasnorm_wordpool_576.txt	LTP385	ltpFR2	9	5	TWIG	1527	n/a	n/a	0	0	0
991352	WORD	wordpools/wasnorm_wordpool_576.txt	LTP385	ltpFR2	9	5	RABBIT	1152	n/a	n/a	0	0	0
994069	WORD	wordpools/wasnorm_wordpool_576.txt	LTP385	ltpFR2	9	5	DANDRUFF	439	n/a	n/a	0	0	0
996519	WORD	wordpools/wasnorm_wordpool_576.txt	LTP385	ltpFR2	9	5	PEACH	1031	n/a	n/a	0	0	0
999219	WORD	wordpools/wasnorm_wordpool_576.txt	LTP385	ltpFR2	9	5	WIFE	1609	n/a	n/a	0	0	0
1001752	WORD	wordpools/wasnorm_wordpool_576.txt	LTP385	ltpFR2	9	5	DRAWING	494	n/a	n/a	0	0	0
1004535	WORD	wordpools/wasnorm_wordpool_576.txt	LTP385	ltpFR2	9	5	SUPPER	1411	n/a	n/a	0	0	0
1007152	WORD	wordpools/wasnorm_wordpool_576.txt	LTP385	ltpFR2	9	5	POWDER	1117	n/a	n/a	0	0	0
1009768	WORD	wordpools/wasnorm_wordpool_576.txt	LTP385	ltpFR2	9	5	CHILD	299	n/a	n/a	0	0	0
1012302	WORD	wordpools/wasnorm_wordpool_576.txt	LTP385	ltpFR2	9	5	BOYFRIEND	162	n/a	n/a	0	0	0
1014952	WORD	wordpools/wasnorm_wordpool_576.txt	LTP385	ltpFR2	9	5	TOMBSTONE	1478	n/a	n/a	0	0	0
1017468	WORD	wordpools/wasnorm_wordpool_576.txt	LTP385	ltpFR2	9	5	FRAGRANCE	599	n/a	n/a	0	0	0
1020285	WORD	wordpools/wasnorm_wordpool_576.txt	LTP385	ltpFR2	9	5	HEDGE	699	n/a	n/a	0	0	0
1021903	START	n/a	LTP385	ltpFR2	9	n/a	n/a	n/a	7	n/a	n/a	n/a	n/a
1022899	DISTRACTOR	n/a	LTP385	ltpFR2	9	5	n/a	n/a	n/a	n/a	0	0	0
1022903	PROB	n/a	LTP385	ltpFR2	9	n/a	n/a	n/a	7	23	8	7	8
1029685	PROB	n/a	LTP385	ltpFR2	9	n/a	n/a	n/a	7	18	4	7	7
1032735	PROB	n/a	LTP385	ltpFR2	9	n/a	n/a	n/a	7	14	5	1	8
1035468	PROB	n/a	LTP385	ltpFR2	9	n/a	n/a	n/a	7	23	5	8	9
1038685	PROB	n/a	LTP385	ltpFR2	9	n/a	n/a	n/a	7	19	4	9	6
1042135	PROB	n/a	LTP385	ltpFR2	9	n/a	n/a	n/a	7	11	8	1	2
1044101	PROB	n/a	LTP385	ltpFR2	9	n/a	n/a	n/a	7	13	6	6	1
1045775	STOP	n/a	LTP385	ltpFR2	9	n/a	n/a	n/a	7	n/a	n/a	n/a	n/a
1047735	REC_START	n/a	LTP385	ltpFR2	9	5	n/a	n/a	n/a	n/a	0	0	0
1048921	REC_WORD	wordpools/wasnorm_wordpool_576.txt	LTP385	ltpFR2	9	5	FRAGRANCE	599	n/a	n/a	0	0	0
1049968	REC_WORD	wordpools/wasnorm_wordpool_576.txt	LTP385	ltpFR2	9	5	WIFE	1609	n/a	n/a	0	0	0
1050635	REC_WORD	wordpools/wasnorm_wordpool_576.txt	LTP385	ltpFR2	9	5	PEACH	1031	n/a	n/a	0	0	0
1052072	REC_WORD	wordpools/wasnorm_wordpool_576.txt	LTP385	ltpFR2	9	5	ACTOR	5	n/a	n/a	0	0	0
1053256	REC_WORD	wordpools/wasnorm_wordpool_576.txt	LTP385	ltpFR2	9	5	REBEL	1172	n/a	n/a	0	0	0
1055658	REC_WORD	wordpools/wasnorm_wordpool_576.txt	LTP385	ltpFR2	9	5	SNACK	1331	n/a	n/a	0	0	0
1060500	REC_WORD	wordpools/wasnorm_wordpool_576.txt	LTP385	ltpFR2	9	5	PEANUT	1032	n/a	n/a	0	0	0
1063789	REC_WORD	wordpools/wasnorm_wordpool_576.txt	LTP385	ltpFR2	9	5	RELISH	1183	n/a	n/a	0	0	0
1064699	REC_WORD	wordpools/wasnorm_wordpool_576.txt	LTP385	ltpFR2	9	5	KETCHUP	771	n/a	n/a	0	0	0
1070307	REC_WORD	wordpools/wasnorm_wordpool_576.txt	LTP385	ltpFR2	9	5	CAVE	263	n/a	n/a	0	0	0
1138200	WORD	wordpools/wasnorm_wordpool_576.txt	LTP385	ltpFR2	9	6	PECAN	1036	n/a	n/a	0	0	0
1140633	WORD	wordpools/wasnorm_wordpool_576.txt	LTP385	ltpFR2	9	6	BANJO	82	n/a	n/a	0	0	0
1143350	WORD	wordpools/wasnorm_wordpool_576.txt	LTP385	ltpFR2	9	6	SHELF	1280	n/a	n/a	0	0	0
1146050	WORD	wordpools/wasnorm_wordpool_576.txt	LTP385	ltpFR2	9	6	NOVEL	960	n/a	n/a	0	0	0
1148750	WORD	wordpools/wasnorm_wordpool_576.txt	LTP385	ltpFR2	9	6	COLLEGE	346	n/a	n/a	0	0	0
1151349	WORD	wordpools/wasnorm_wordpool_576.txt	LTP385	ltpFR2	9	6	VIKING	1565	n/a	n/a	0	0	0
1153799	WORD	wordpools/wasnorm_wordpool_576.txt	LTP385	ltpFR2	9	6	MARS	873	n/a	n/a	0	0	0
1156533	WORD	wordpools/wasnorm_wordpool_576.txt	LTP385	ltpFR2	9	6	CANDY	230	n/a	n/a	0	0	0
1159016	WORD	wordpools/wasnorm_wordpool_576.txt	LTP385	ltpFR2	9	6	POCKET	1093	n/a	n/a	0	0	0
1161666	WORD	wordpools/wasnorm_wordpool_576.txt	LTP385	ltpFR2	9	6	DENIM	446	n/a	n/a	0	0	0
1164283	WORD	wordpools/wasnorm_wordpool_576.txt	LTP385	ltpFR2	9	6	AWARD	63	n/a	n/a	0	0	0
1167099	WORD	wordpools/wasnorm_wordpool_576.txt	LTP385	ltpFR2	9	6	RAFT	1159	n/a	n/a	0	0	0
1169884	WORD	wordpools/wasnorm_wordpool_576.txt	LTP385	ltpFR2	9	6	WORKER	1621	n/a	n/a	0	0	0
1172366	WORD	wordpools/wasnorm_wordpool_576.txt	LTP385	ltpFR2	9	6	DINER	467	n/a	n/a	0	0	0
1174849	WORD	wordpools/wasnorm_wordpool_576.txt	LTP385	ltpFR2	9	6	GUITAR	670	n/a	n/a	0	0	0
1177649	WORD	wordpools/wasnorm_wordpool_576.txt	LTP385	ltpFR2	9	6	HERO	706	n/a	n/a	0	0	0
1180216	WORD	wordpools/wasnorm_wordpool_576.txt	LTP385	ltpFR2	9	6	PATROL	1027	n/a	n/a	0	0	0
1182933	WORD	wordpools/wasnorm_wordpool_576.txt	LTP385	ltpFR2	9	6	LOFT	840	n/a	n/a	0	0	0
1185616	WORD	wordpools/wasnorm_wordpool_576.txt	LTP385	ltpFR2	9	6	RECEIPT	1173	n/a	n/a	0	0	0
1188182	WORD	wordpools/wasnorm_wordpool_576.txt	LTP385	ltpFR2	9	6	CUSTARD	429	n/a	n/a	0	0	0
1190782	WORD	wordpools/wasnorm_wordpool_576.txt	LTP385	ltpFR2	9	6	GRAVE	658	n/a	n/a	0	0	0
1193316	WORD	wordpools/wasnorm_wordpool_576.txt	LTP385	ltpFR2	9	6	CABIN	211	n/a	n/a	0	0	0
1195816	WORD	wordpools/wasnorm_wordpool_576.txt	LTP385	ltpFR2	9	6	HEADBAND	696	n/a	n/a	0	0	0
1198515	WORD	wordpools/wasnorm_wordpool_576.txt	LTP385	ltpFR2	9	6	BRICK	172	n/a	n/a	0	0	0
1200132	START	n/a	LTP385	ltpFR2	9	n/a	n/a	n/a	8	n/a	n/a	n/a	n/a
1201314	DISTRACTOR	n/a	LTP385	ltpFR2	9	6	n/a	n/a	n/a	n/a	0	0	0
1201332	PROB	n/a	LTP385	ltpFR2	9	n/a	n/a	n/a	8	10	6	1	3
1204715	PROB	n/a	LTP385	ltpFR2	9	n/a	n/a	n/a	8	16	4	4	8
1207182	PROB	n/a	LTP385	ltpFR2	9	n/a	n/a	n/a	8	14	7	4	3
1209582	PROB	n/a	LTP385	ltpFR2	9	n/a	n/a	n/a	8	20	6	8	6
1215049	PROB	n/a	LTP385	ltpFR2	9	n/a	n/a	n/a	8	16	5	4	7
1217098	PROB	n/a	LTP385	ltpFR2	9	n/a	n/a	n/a	8	19	7	3	9
1219198	PROB	n/a	LTP385	ltpFR2	9	n/a	n/a	n/a	8	23	8	8	9
1222677	STOP	n/a	LTP385	ltpFR2	9	n/a	n/a	n/a	8	n/a	n/a	n/a	n/a
1225933	REC_START	n/a	LTP385	ltpFR2	9	6	n/a	n/a	n/a	n/a	0	0	0
1226810	REC_WORD	wordpools/wasnorm_wordpool_576.txt	LTP385	ltpFR2	9	6	GRAVE	658	n/a	n/a	0	0	0
1227418	REC_WORD	wordpools/wasnorm_wordpool_576.txt	LTP385	ltpFR2	9	6	CABIN	211	n/a	n/a	0	0	0
1228020	REC_WORD	wordpools/wasnorm_wordpool_576.txt	LTP385	ltpFR2	9	6	HEADBAND	696	n/a	n/a	0	0	0
1233436	REC_WORD	wordpools/wasnorm_wordpool_576.txt	LTP385	ltpFR2	9	6	NOVEL	960	n/a	n/a	0	0	0
1236363	REC_WORD	wordpools/wasnorm_wordpool_576.txt	LTP385	ltpFR2	9	6	CANDY	230	n/a	n/a	0	0	0
1237115	REC_WORD	wordpools/wasnorm_wordpool_576.txt	LTP385	ltpFR2	9	6	POCKET	1093	n/a	n/a	0	0	0
1237932	REC_WORD	wordpools/wasnorm_wordpool_576.txt	LTP385	ltpFR2	9	6	DENIM	446	n/a	n/a	0	0	0
1239031	REC_WORD	wordpools/wasnorm_wordpool_576.txt	LTP385	ltpFR2	9	6	COLLEGE	346	n/a	n/a	0	0	0
1243516	REC_WORD	wordpools/wasnorm_wordpool_576.txt	LTP385	ltpFR2	9	6	VIKING	1565	n/a	n/a	0	0	0
1255450	REC_WORD	wordpools/wasnorm_wordpool_576.txt	LTP385	ltpFR2	9	6	MARS	873	n/a	n/a	0	0	0
1316397	WORD	wordpools/wasnorm_wordpool_576.txt	LTP385	ltpFR2	9	7	CASHIER	254	n/a	n/a	0	0	0
1319080	WORD	wordpools/wasnorm_wordpool_576.txt	LTP385	ltpFR2	9	7	PIANO	1057	n/a	n/a	0	0	0
1321647	WORD	wordpools/wasnorm_wordpool_576.txt	LTP385	ltpFR2	9	7	SUNRISE	1407	n/a	n/a	0	0	0
1324147	WORD	wordpools/wasnorm_wordpool_576.txt	LTP385	ltpFR2	9	7	GAVEL	627	n/a	n/a	0	0	0
1326647	WORD	wordpools/wasnorm_wordpool_576.txt	LTP385	ltpFR2	9	7	CHURCH	307	n/a	n/a	0	0	0
1329280	WORD	wordpools/wasnorm_wordpool_576.txt	LTP385	ltpFR2	9	7	EGYPT	519	n/a	n/a	0	0	0
1332047	WORD	wordpools/wasnorm_wordpool_576.txt	LTP385	ltpFR2	9	7	TURTLE	1522	n/a	n/a	0	0	0
1334630	WORD	wordpools/wasnorm_wordpool_576.txt	LTP385	ltpFR2	9	7	AGENT	10	n/a	n/a	0	0	0
1337230	WORD	wordpools/wasnorm_wordpool_576.txt	LTP385	ltpFR2	9	7	COSTUME	383	n/a	n/a	0	0	0
1339663	WORD	wordpools/wasnorm_wordpool_576.txt	LTP385	ltpFR2	9	7	CLOTHES	327	n/a	n/a	0	0	0
1342480	WORD	wordpools/wasnorm_wordpool_576.txt	LTP385	ltpFR2	9	7	SHERIFF	1284	n/a	n/a	0	0	0
1345063	WORD	wordpools/wasnorm_wordpool_576.txt	LTP385	ltpFR2	9	7	ITEM	746	n/a	n/a	0	0	0
1347763	WORD	wordpools/wasnorm_wordpool_576.txt	LTP385	ltpFR2	9	7	LEOPARD	812	n/a	n/a	0	0	0
1350463	WORD	wordpools/wasnorm_wordpool_576.txt	LTP385	ltpFR2	9	7	ROBIN	1199	n/a	n/a	0	0	0
1352963	WORD	wordpools/wasnorm_wordpool_576.txt	LTP385	ltpFR2	9	7	TORTOISE	1486	n/a	n/a	0	0	0
1355630	WORD	wordpools/wasnorm_wordpool_576.txt	LTP385	ltpFR2	9	7	PASTA	1021	n/a	n/a	0	0	0
1358446	WORD	wordpools/wasnorm_wordpool_576.txt	LTP385	ltpFR2	9	7	LONDON	843	n/a	n/a	0	0	0
1360931	WORD	wordpools/wasnorm_wordpool_576.txt	LTP385	ltpFR2	9	7	HOOD	714	n/a	n/a	0	0	0
1363563	WORD	wordpools/wasnorm_wordpool_576.txt	LTP385	ltpFR2	9	7	TAXI	1438	n/a	n/a	0	0	0
1366280	WORD	wordpools/wasnorm_wordpool_576.txt	LTP385	ltpFR2	9	7	SUBWAY	1400	n/a	n/a	0	0	0
1369013	WORD	wordpools/wasnorm_wordpool_576.txt	LTP385	ltpFR2	9	7	CONCERT	360	n/a	n/a	0	0	0
1371546	WORD	wordpools/wasnorm_wordpool_576.txt	LTP385	ltpFR2	9	7	ACTRESS	6	n/a	n/a	0	0	0
1374296	WORD	wordpools/wasnorm_wordpool_576.txt	LTP385	ltpFR2	9	7	BINDER	127	n/a	n/a	0	0	0
1376763	WORD	wordpools/wasnorm_wordpool_576.txt	LTP385	ltpFR2	9	7	JOURNAL	760	n/a	n/a	0	0	0
1378380	START	n/a	LTP385	ltpFR2	9	n/a	n/a	n/a	9	n/a	n/a	n/a	n/a
1379526	DISTRACTOR	n/a	LTP385	ltpFR2	9	7	n/a	n/a	n/a	n/a	0	0	0
1379529	PROB	n/a	LTP385	ltpFR2	9	n/a	n/a	n/a	9	20	9	8	3
1382196	PROB	n/a	LTP385	ltpFR2	9	n/a	n/a	n/a	9	22	8	7	7
1385496	PROB	n/a	LTP385	ltpFR2	9	n/a	n/a	n/a	9	20	9	9	2
1387930	PROB	n/a	LTP385	ltpFR2	9	n/a	n/a	n/a	9	16	5	6	5
1390013	PROB	n/a	LTP385	ltpFR2	9	n/a	n/a	n/a	9	13	5	5	3
1392279	PROB	n/a	LTP385	ltpFR2	9	n/a	n/a	n/a	9	12	1	7	4
1402380	STOP	n/a	LTP385	ltpFR2	9	n/a	n/a	n/a	9	n/a	n/a	n/a	n/a
1404163	REC_START	n/a	LTP385	ltpFR2	9	7	n/a	n/a	n/a	n/a	0	0	0
1406267	REC_WORD	wordpools/wasnorm_wordpool_576.txt	LTP385	ltpFR2	9	7	ACTRESS	6	n/a	n/a	0	0	0
1408206	REC_WORD	wordpools/wasnorm_wordpool_576.txt	LTP385	ltpFR2	9	7	BINDER	127	n/a	n/a	0	0	0
1410065	REC_WORD	wordpools/wasnorm_wordpool_576.txt	LTP385	ltpFR2	9	7	JOURNAL	760	n/a	n/a	0	0	0
1494611	DISTRACTOR	n/a	LTP385	ltpFR2	9	8	n/a	n/a	n/a	n/a	0	0	0
1494611	START	n/a	LTP385	ltpFR2	9	n/a	n/a	n/a	10	n/a	n/a	n/a	n/a
1494627	PROB	n/a	LTP385	ltpFR2	9	n/a	n/a	n/a	10	17	4	7	5
1500011	PROB	n/a	LTP385	ltpFR2	9	n/a	n/a	n/a	10	15	5	6	4
1502827	PROB	n/a	LTP385	ltpFR2	9	n/a	n/a	n/a	10	20	7	4	9
1506061	PROB	n/a	LTP385	ltpFR2	9	n/a	n/a	n/a	10	16	6	6	4
1508777	PROB	n/a	LTP385	ltpFR2	9	n/a	n/a	n/a	10	18	4	9	5
1513144	PROB	n/a	LTP385	ltpFR2	9	n/a	n/a	n/a	10	15	6	5	4
1515411	PROB	n/a	LTP385	ltpFR2	9	n/a	n/a	n/a	10	19	6	3	9
1517558	STOP	n/a	LTP385	ltpFR2	9	n/a	n/a	n/a	10	n/a	n/a	n/a	n/a
1519677	WORD	wordpools/wasnorm_wordpool_576.txt	LTP385	ltpFR2	9	8	LACE	792	n/a	n/a	0	0	0
1522277	WORD	wordpools/wasnorm_wordpool_576.txt	LTP385	ltpFR2	9	8	ANKLE	24	n/a	n/a	0	0	0
1524878	WORD	wordpools/wasnorm_wordpool_576.txt	LTP385	ltpFR2	9	8	BEEF	113	n/a	n/a	0	0	0
1527577	WORD	wordpools/wasnorm_wordpool_576.txt	LTP385	ltpFR2	9	8	CHEST	295	n/a	n/a	0	0	0
1530060	WORD	wordpools/wasnorm_wordpool_576.txt	LTP385	ltpFR2	9	8	SODA	1341	n/a	n/a	0	0	0
1532878	WORD	wordpools/wasnorm_wordpool_576.txt	LTP385	ltpFR2	9	8	STUDENT	1395	n/a	n/a	0	0	0
1535677	WORD	wordpools/wasnorm_wordpool_576.txt	LTP385	ltpFR2	9	8	VAGRANT	1544	n/a	n/a	0	0	0
1538277	WORD	wordpools/wasnorm_wordpool_576.txt	LTP385	ltpFR2	9	8	TWEEZERS	1526	n/a	n/a	0	0	0
1540827	WORD	wordpools/wasnorm_wordpool_576.txt	LTP385	ltpFR2	9	8	ASIA	46	n/a	n/a	0	0	0
1543627	WORD	wordpools/wasnorm_wordpool_576.txt	LTP385	ltpFR2	9	8	TROUT	1511	n/a	n/a	0	0	0
1546177	WORD	wordpools/wasnorm_wordpool_576.txt	LTP385	ltpFR2	9	8	JELLO	754	n/a	n/a	0	0	0
1548993	WORD	wordpools/wasnorm_wordpool_576.txt	LTP385	ltpFR2	9	8	MISTER	901	n/a	n/a	0	0	0
1551510	WORD	wordpools/wasnorm_wordpool_576.txt	LTP385	ltpFR2	9	8	LEADER	807	n/a	n/a	0	0	0
1553993	WORD	wordpools/wasnorm_wordpool_576.txt	LTP385	ltpFR2	9	8	PLAZA	1088	n/a	n/a	0	0	0
1556460	WORD	wordpools/wasnorm_wordpool_576.txt	LTP385	ltpFR2	9	8	GARBAGE	622	n/a	n/a	0	0	0
1558993	WORD	wordpools/wasnorm_wordpool_576.txt	LTP385	ltpFR2	9	8	POET	1095	n/a	n/a	0	0	0
1561476	WORD	wordpools/wasnorm_wordpool_576.txt	LTP385	ltpFR2	9	8	AUTHOR	61	n/a	n/a	0	0	0
1564093	WORD	wordpools/wasnorm_wordpool_576.txt	LTP385	ltpFR2	9	8	LOVER	846	n/a	n/a	0	0	0
1566726	WORD	wordpools/wasnorm_wordpool_576.txt	LTP385	ltpFR2	9	8	ANTLER	29	n/a	n/a	0	0	0
1569460	WORD	wordpools/wasnorm_wordpool_576.txt	LTP385	ltpFR2	9	8	STAKE	1368	n/a	n/a	0	0	0
1572160	WORD	wordpools/wasnorm_wordpool_576.txt	LTP385	ltpFR2	9	8	WOMAN	1620	n/a	n/a	0	0	0
1574793	WORD	wordpools/wasnorm_wordpool_576.txt	LTP385	ltpFR2	9	8	DRINK	498	n/a	n/a	0	0	0
1577243	WORD	wordpools/wasnorm_wordpool_576.txt	LTP385	ltpFR2	9	8	FRANCE	601	n/a	n/a	0	0	0
1579826	WORD	wordpools/wasnorm_wordpool_576.txt	LTP385	ltpFR2	9	8	EUROPE	541	n/a	n/a	0	0	0
1581443	START	n/a	LTP385	ltpFR2	9	n/a	n/a	n/a	11	n/a	n/a	n/a	n/a
1582445	DISTRACTOR	n/a	LTP385	ltpFR2	9	8	n/a	n/a	n/a	n/a	0	0	0
1582459	PROB	n/a	LTP385	ltpFR2	9	n/a	n/a	n/a	11	19	5	8	6
1586726	PROB	n/a	LTP385	ltpFR2	9	n/a	n/a	n/a	11	15	6	6	3
1589459	PROB	n/a	LTP385	ltpFR2	9	n/a	n/a	n/a	11	15	2	5	8
1592059	PROB	n/a	LTP385	ltpFR2	9	n/a	n/a	n/a	11	14	1	6	7
1594326	PROB	n/a	LTP385	ltpFR2	9	n/a	n/a	n/a	11	16	6	9	1
1596959	PROB	n/a	LTP385	ltpFR2	9	n/a	n/a	n/a	11	15	5	8	2
1598776	PROB	n/a	LTP385	ltpFR2	9	n/a	n/a	n/a	11	13	1	8	4
1600692	PROB	n/a	LTP385	ltpFR2	9	n/a	n/a	n/a	11	18	7	6	5
1602792	PROB	n/a	LTP385	ltpFR2	9	n/a	n/a	n/a	11	22	7	8	7
1605264	STOP	n/a	LTP385	ltpFR2	9	n/a	n/a	n/a	11	n/a	n/a	n/a	n/a
1607210	REC_START	n/a	LTP385	ltpFR2	9	8	n/a	n/a	n/a	n/a	0	0	0
1611911	REC_WORD	wordpools/wasnorm_wordpool_576.txt	LTP385	ltpFR2	9	8	TWEEZERS	1526	n/a	n/a	0	0	0
1613070	REC_WORD	wordpools/wasnorm_wordpool_576.txt	LTP385	ltpFR2	9	8	ANKLE	24	n/a	n/a	0	0	0
1613777	REC_WORD	wordpools/wasnorm_wordpool_576.txt	LTP385	ltpFR2	9	8	CHEST	295	n/a	n/a	0	0	0
1614641	REC_WORD	wordpools/wasnorm_wordpool_576.txt	LTP385	ltpFR2	9	8	STUDENT	1395	n/a	n/a	0	0	0
1615583	REC_WORD	wordpools/wasnorm_wordpool_576.txt	LTP385	ltpFR2	9	8	VAGRANT	1544	n/a	n/a	0	0	0
1617984	REC_WORD	wordpools/wasnorm_wordpool_576.txt	LTP385	ltpFR2	9	8	BEEF	113	n/a	n/a	0	0	0
1620858	REC_WORD	wordpools/wasnorm_wordpool_576.txt	LTP385	ltpFR2	9	8	MEAT	883	n/a	n/a	0	0	0
1683758	REST_REWET	n/a	LTP385	ltpFR2	9	8	n/a	n/a	n/a	n/a	0	0	0
1951254	DISTRACTOR	n/a	LTP385	ltpFR2	9	9	n/a	n/a	n/a	n/a	0	0	0
1951254	START	n/a	LTP385	ltpFR2	9	n/a	n/a	n/a	12	n/a	n/a	n/a	n/a
1951270	PROB	n/a	LTP385	ltpFR2	9	n/a	n/a	n/a	12	15	6	1	8
1954554	PROB	n/a	LTP385	ltpFR2	9	n/a	n/a	n/a	12	17	8	6	3
1958204	PROB	n/a	LTP385	ltpFR2	9	n/a	n/a	n/a	12	22	4	9	9
1960503	PROB	n/a	LTP385	ltpFR2	9	n/a	n/a	n/a	12	6	4	1	1
1961853	PROB	n/a	LTP385	ltpFR2	9	n/a	n/a	n/a	12	18	9	7	2
1964720	PROB	n/a	LTP385	ltpFR2	9	n/a	n/a	n/a	12	8	2	2	4
1968470	PROB	n/a	LTP385	ltpFR2	9	n/a	n/a	n/a	12	15	2	9	4
1970487	PROB	n/a	LTP385	ltpFR2	9	n/a	n/a	n/a	12	18	1	8	9
1974219	STOP	n/a	LTP385	ltpFR2	9	n/a	n/a	n/a	12	n/a	n/a	n/a	n/a
1976303	WORD	wordpools/wasnorm_wordpool_576.txt	LTP385	ltpFR2	9	9	NURSE	963	n/a	n/a	0	0	0
1978753	WORD	wordpools/wasnorm_wordpool_576.txt	LTP385	ltpFR2	9	9	COUSIN	392	n/a	n/a	0	0	0
1981537	WORD	wordpools/wasnorm_wordpool_576.txt	LTP385	ltpFR2	9	9	BROTHER	179	n/a	n/a	0	0	0
1984203	WORD	wordpools/wasnorm_wordpool_576.txt	LTP385	ltpFR2	9	9	TRIBE	1505	n/a	n/a	0	0	0
1986703	WORD	wordpools/wasnorm_wordpool_576.txt	LTP385	ltpFR2	9	9	PIGMENT	1066	n/a	n/a	0	0	0
1989353	WORD	wordpools/wasnorm_wordpool_576.txt	LTP385	ltpFR2	9	9	YOLK	1633	n/a	n/a	0	0	0
1992053	WORD	wordpools/wasnorm_wordpool_576.txt	LTP385	ltpFR2	9	9	LAGOON	795	n/a	n/a	0	0	0
1994503	WORD	wordpools/wasnorm_wordpool_576.txt	LTP385	ltpFR2	9	9	LAKE	796	n/a	n/a	0	0	0
1997269	WORD	wordpools/wasnorm_wordpool_576.txt	LTP385	ltpFR2	9	9	BUTCHER	203	n/a	n/a	0	0	0
1999786	WORD	wordpools/wasnorm_wordpool_576.txt	LTP385	ltpFR2	9	9	PORK	1108	n/a	n/a	0	0	0
2002536	WORD	wordpools/wasnorm_wordpool_576.txt	LTP385	ltpFR2	9	9	MAILBOX	857	n/a	n/a	0	0	0
2005303	WORD	wordpools/wasnorm_wordpool_576.txt	LTP385	ltpFR2	9	9	BEAVER	109	n/a	n/a	0	0	0
2007904	WORD	wordpools/wasnorm_wordpool_576.txt	LTP385	ltpFR2	9	9	RIVER	1194	n/a	n/a	0	0	0
2010386	WORD	wordpools/wasnorm_wordpool_576.txt	LTP385	ltpFR2	9	9	BATHTUB	100	n/a	n/a	0	0	0
2013186	WORD	wordpools/wasnorm_wordpool_576.txt	LTP385	ltpFR2	9	9	HOSTESS	723	n/a	n/a	0	0	0
2015703	WORD	wordpools/wasnorm_wordpool_576.txt	LTP385	ltpFR2	9	9	BANK	83	n/a	n/a	0	0	0
2018319	WORD	wordpools/wasnorm_wordpool_576.txt	LTP385	ltpFR2	9	9	TUBA	1515	n/a	n/a	0	0	0
2020836	WORD	wordpools/wasnorm_wordpool_576.txt	LTP385	ltpFR2	9	9	BUG	187	n/a	n/a	0	0	0
2023652	WORD	wordpools/wasnorm_wordpool_576.txt	LTP385	ltpFR2	9	9	DOUGHNUT	490	n/a	n/a	0	0	0
2026402	WORD	wordpools/wasnorm_wordpool_576.txt	LTP385	ltpFR2	9	9	MAILMAN	858	n/a	n/a	0	0	0
2029219	WORD	wordpools/wasnorm_wordpool_576.txt	LTP385	ltpFR2	9	9	CREVICE	405	n/a	n/a	0	0	0
2032036	WORD	wordpools/wasnorm_wordpool_576.txt	LTP385	ltpFR2	9	9	GRIZZLY	662	n/a	n/a	0	0	0
2034636	WORD	wordpools/wasnorm_wordpool_576.txt	LTP385	ltpFR2	9	9	BROOK	177	n/a	n/a	0	0	0
2037186	WORD	wordpools/wasnorm_wordpool_576.txt	LTP385	ltpFR2	9	9	SAUSAGE	1238	n/a	n/a	0	0	0
2038802	START	n/a	LTP385	ltpFR2	9	n/a	n/a	n/a	13	n/a	n/a	n/a	n/a
2039863	DISTRACTOR	n/a	LTP385	ltpFR2	9	9	n/a	n/a	n/a	n/a	0	0	0
2039869	PROB	n/a	LTP385	ltpFR2	9	n/a	n/a	n/a	13	10	1	3	6
2042269	PROB	n/a	LTP385	ltpFR2	9	n/a	n/a	n/a	13	16	3	7	6
2044952	PROB	n/a	LTP385	ltpFR2	9	n/a	n/a	n/a	13	11	2	3	6
2046969	PROB	n/a	LTP385	ltpFR2	9	n/a	n/a	n/a	13	15	7	5	3
2050569	PROB	n/a	LTP385	ltpFR2	9	n/a	n/a	n/a	13	12	3	5	4
2053952	PROB	n/a	LTP385	ltpFR2	9	n/a	n/a	n/a	13	19	9	6	4
2056085	PROB	n/a	LTP385	ltpFR2	9	n/a	n/a	n/a	13	7	2	4	1
2059903	PROB	n/a	LTP385	ltpFR2	9	n/a	n/a	n/a	13	13	2	2	9
2062254	STOP	n/a	LTP385	ltpFR2	9	n/a	n/a	n/a	13	n/a	n/a	n/a	n/a
2064752	REC_START	n/a	LTP385	ltpFR2	9	9	n/a	n/a	n/a	n/a	0	0	0
2065840	REC_WORD	wordpools/wasnorm_wordpool_576.txt	LTP385	ltpFR2	9	9	RIVER	1194	n/a	n/a	0	0	0
2066677	REC_WORD	wordpools/wasnorm_wordpool_576.txt	LTP385	ltpFR2	9	9	BANK	83	n/a	n/a	0	0	0
2067369	REC_WORD	wordpools/wasnorm_wordpool_576.txt	LTP385	ltpFR2	9	9	CREVICE	405	n/a	n/a	0	0	0
2068506	REC_WORD	wordpools/wasnorm_wordpool_576.txt	LTP385	ltpFR2	9	9	GRIZZLY	662	n/a	n/a	0	0	0
2069721	REC_WORD	wordpools/wasnorm_wordpool_576.txt	LTP385	ltpFR2	9	9	DOUGHNUT	490	n/a	n/a	0	0	0
2074799	REC_WORD	wordpools/wasnorm_wordpool_576.txt	LTP385	ltpFR2	9	9	BUG	187	n/a	n/a	0	0	0
2082612	REC_WORD	wordpools/wasnorm_wordpool_576.txt	LTP385	ltpFR2	9	9	BEAVER	109	n/a	n/a	0	0	0
2155217	WORD	wordpools/wasnorm_wordpool_576.txt	LTP385	ltpFR2	9	10	SLOPE	1328	n/a	n/a	0	0	0
2157834	WORD	wordpools/wasnorm_wordpool_576.txt	LTP385	ltpFR2	9	10	PROTON	1132	n/a	n/a	0	0	0
2160517	WORD	wordpools/wasnorm_wordpool_576.txt	LTP385	ltpFR2	9	10	FLASHLIGHT	575	n/a	n/a	0	0	0
2163034	WORD	wordpools/wasnorm_wordpool_576.txt	LTP385	ltpFR2	9	10	SILK	1307	n/a	n/a	0	0	0
2165767	WORD	wordpools/wasnorm_wordpool_576.txt	LTP385	ltpFR2	9	10	TILE	1468	n/a	n/a	0	0	0
2168300	WORD	wordpools/wasnorm_wordpool_576.txt	LTP385	ltpFR2	9	10	RUG	1215	n/a	n/a	0	0	0
2170767	WORD	wordpools/wasnorm_wordpool_576.txt	LTP385	ltpFR2	9	10	SEAFOOD	1260	n/a	n/a	0	0	0
2173283	WORD	wordpools/wasnorm_wordpool_576.txt	LTP385	ltpFR2	9	10	DRESS	495	n/a	n/a	0	0	0
2175983	WORD	wordpools/wasnorm_wordpool_576.txt	LTP385	ltpFR2	9	10	UMPIRE	1535	n/a	n/a	0	0	0
2178567	WORD	wordpools/wasnorm_wordpool_576.txt	LTP385	ltpFR2	9	10	SKIRT	1319	n/a	n/a	0	0	0
2181317	WORD	wordpools/wasnorm_wordpool_576.txt	LTP385	ltpFR2	9	10	CONTRACT	368	n/a	n/a	0	0	0
2183950	WORD	wordpools/wasnorm_wordpool_576.txt	LTP385	ltpFR2	9	10	ROD	1203	n/a	n/a	0	0	0
2186467	WORD	wordpools/wasnorm_wordpool_576.txt	LTP385	ltpFR2	9	10	VELVET	1555	n/a	n/a	0	0	0
2188983	WORD	wordpools/wasnorm_wordpool_576.txt	LTP385	ltpFR2	9	10	MATTRESS	879	n/a	n/a	0	0	0
2191467	WORD	wordpools/wasnorm_wordpool_576.txt	LTP385	ltpFR2	9	10	PADDING	999	n/a	n/a	0	0	0
2194183	WORD	wordpools/wasnorm_wordpool_576.txt	LTP385	ltpFR2	9	10	DENTIST	447	n/a	n/a	0	0	0
2196901	WORD	wordpools/wasnorm_wordpool_576.txt	LTP385	ltpFR2	9	10	EMPIRE	530	n/a	n/a	0	0	0
2199550	WORD	wordpools/wasnorm_wordpool_576.txt	LTP385	ltpFR2	9	10	DANCER	437	n/a	n/a	0	0	0
2202066	WORD	wordpools/wasnorm_wordpool_576.txt	LTP385	ltpFR2	9	10	SHARK	1275	n/a	n/a	0	0	0
2204733	WORD	wordpools/wasnorm_wordpool_576.txt	LTP385	ltpFR2	9	10	PATIENT	1024	n/a	n/a	0	0	0
2207283	WORD	wordpools/wasnorm_wordpool_576.txt	LTP385	ltpFR2	9	10	SUNSET	1408	n/a	n/a	0	0	0
2209983	WORD	wordpools/wasnorm_wordpool_576.txt	LTP385	ltpFR2	9	10	HARP	689	n/a	n/a	0	0	0
2212633	WORD	wordpools/wasnorm_wordpool_576.txt	LTP385	ltpFR2	9	10	HAND	683	n/a	n/a	0	0	0
2215350	WORD	wordpools/wasnorm_wordpool_576.txt	LTP385	ltpFR2	9	10	ARM	38	n/a	n/a	0	0	0
2216966	START	n/a	LTP385	ltpFR2	9	n/a	n/a	n/a	14	n/a	n/a	n/a	n/a
2217851	DISTRACTOR	n/a	LTP385	ltpFR2	9	10	n/a	n/a	n/a	n/a	0	0	0
2217866	PROB	n/a	LTP385	ltpFR2	9	n/a	n/a	n/a	14	18	9	4	5
2221699	PROB	n/a	LTP385	ltpFR2	9	n/a	n/a	n/a	14	200	9	7	4
2224766	PROB	n/a	LTP385	ltpFR2	9	n/a	n/a	n/a	14	3	2	7	1
2227149	PROB	n/a	LTP385	ltpFR2	9	n/a	n/a	n/a	14	14	5	8	1
2231299	PROB	n/a	LTP385	ltpFR2	9	n/a	n/a	n/a	14	20	3	9	8
2234732	PROB	n/a	LTP385	ltpFR2	9	n/a	n/a	n/a	14	16	9	3	4
2238016	PROB	n/a	LTP385	ltpFR2	9	n/a	n/a	n/a	14	9	5	2	2
2239460	STOP	n/a	LTP385	ltpFR2	9	n/a	n/a	n/a	14	n/a	n/a	n/a	n/a
2242816	REC_START	n/a	LTP385	ltpFR2	9	10	n/a	n/a	n/a	n/a	0	0	0
2244176	REC_WORD	wordpools/wasnorm_wordpool_576.txt	LTP385	ltpFR2	9	10	PATIENT	1024	n/a	n/a	0	0	0
2244871	REC_WORD	wordpools/wasnorm_wordpool_576.txt	LTP385	ltpFR2	9	10	SUNSET	1408	n/a	n/a	0	0	0
2245772	REC_WORD	wordpools/wasnorm_wordpool_576.txt	LTP385	ltpFR2	9	10	HARP	689	n/a	n/a	0	0	0
2246522	REC_WORD	wordpools/wasnorm_wordpool_576.txt	LTP385	ltpFR2	9	10	HAND	683	n/a	n/a	0	0	0
2247346	REC_WORD	wordpools/wasnorm_wordpool_576.txt	LTP385	ltpFR2	9	10	ARM	38	n/a	n/a	0	0	0
2251059	REC_WORD	wordpools/wasnorm_wordpool_576.txt	LTP385	ltpFR2	9	10	UMPIRE	1535	n/a	n/a	0	0	0
2333264	DISTRACTOR	n/a	LTP385	ltpFR2	9	11	n/a	n/a	n/a	n/a	0	0	0
2333264	START	n/a	LTP385	ltpFR2	9	n/a	n/a	n/a	15	n/a	n/a	n/a	n/a
2333281	PROB	n/a	LTP385	ltpFR2	9	n/a	n/a	n/a	15	8	1	3	4
2335964	PROB	n/a	LTP385	ltpFR2	9	n/a	n/a	n/a	15	13	9	1	3
2338147	PROB	n/a	LTP385	ltpFR2	9	n/a	n/a	n/a	15	13	8	2	3
2339864	PROB	n/a	LTP385	ltpFR2	9	n/a	n/a	n/a	15	18	4	7	7
2342014	PROB	n/a	LTP385	ltpFR2	9	n/a	n/a	n/a	15	16	5	2	9
2344647	PROB	n/a	LTP385	ltpFR2	9	n/a	n/a	n/a	15	10	3	4	2
2346997	PROB	n/a	LTP385	ltpFR2	9	n/a	n/a	n/a	15	9	7	1	1
2348997	PROB	n/a	LTP385	ltpFR2	9	n/a	n/a	n/a	15	22	7	8	7
2351531	PROB	n/a	LTP385	ltpFR2	9	n/a	n/a	n/a	15	16	3	4	9
2353664	PROB	n/a	LTP385	ltpFR2	9	n/a	n/a	n/a	15	19	9	5	5
2357264	STOP	n/a	LTP385	ltpFR2	9	n/a	n/a	n/a	15	n/a	n/a	n/a	n/a
2358264	WORD	wordpools/wasnorm_wordpool_576.txt	LTP385	ltpFR2	9	11	ORCHID	982	n/a	n/a	0	0	0
2361047	WORD	wordpools/wasnorm_wordpool_576.txt	LTP385	ltpFR2	9	11	LIZARD	834	n/a	n/a	0	0	0
2363597	WORD	wordpools/wasnorm_wordpool_576.txt	LTP385	ltpFR2	9	11	FIDDLE	561	n/a	n/a	0	0	0
2366047	WORD	wordpools/wasnorm_wordpool_576.txt	LTP385	ltpFR2	9	11	WRIST	1626	n/a	n/a	0	0	0
2368514	WORD	wordpools/wasnorm_wordpool_576.txt	LTP385	ltpFR2	9	11	AIRPLANE	12	n/a	n/a	0	0	0
2371297	WORD	wordpools/wasnorm_wordpool_576.txt	LTP385	ltpFR2	9	11	LEG	809	n/a	n/a	0	0	0
2374014	WORD	wordpools/wasnorm_wordpool_576.txt	LTP385	ltpFR2	9	11	MARROW	872	n/a	n/a	0	0	0
2376830	WORD	wordpools/wasnorm_wordpool_576.txt	LTP385	ltpFR2	9	11	TABLET	1427	n/a	n/a	0	0	0
2379647	WORD	wordpools/wasnorm_wordpool_576.txt	LTP385	ltpFR2	9	11	DRUG	501	n/a	n/a	0	0	0
2382363	WORD	wordpools/wasnorm_wordpool_576.txt	LTP385	ltpFR2	9	11	LASER	801	n/a	n/a	0	0	0
2384847	WORD	wordpools/wasnorm_wordpool_576.txt	LTP385	ltpFR2	9	11	SHOULDER	1294	n/a	n/a	0	0	0
2387280	WORD	wordpools/wasnorm_wordpool_576.txt	LTP385	ltpFR2	9	11	FILM	565	n/a	n/a	0	0	0
2389898	WORD	wordpools/wasnorm_wordpool_576.txt	LTP385	ltpFR2	9	11	UNCLE	1536	n/a	n/a	0	0	0
2392713	WORD	wordpools/wasnorm_wordpool_576.txt	LTP385	ltpFR2	9	11	SCOTCH	1251	n/a	n/a	0	0	0
2395380	WORD	wordpools/wasnorm_wordpool_576.txt	LTP385	ltpFR2	9	11	VENUS	1557	n/a	n/a	0	0	0
2397830	WORD	wordpools/wasnorm_wordpool_576.txt	LTP385	ltpFR2	9	11	ELBOW	520	n/a	n/a	0	0	0
2400413	WORD	wordpools/wasnorm_wordpool_576.txt	LTP385	ltpFR2	9	11	PUPIL	1143	n/a	n/a	0	0	0
2403046	WORD	wordpools/wasnorm_wordpool_576.txt	LTP385	ltpFR2	9	11	FOREST	593	n/a	n/a	0	0	0
2405696	WORD	wordpools/wasnorm_wordpool_576.txt	LTP385	ltpFR2	9	11	SWITCH	1422	n/a	n/a	0	0	0
2408180	WORD	wordpools/wasnorm_wordpool_576.txt	LTP385	ltpFR2	9	11	COURSE	390	n/a	n/a	0	0	0
2410630	WORD	wordpools/wasnorm_wordpool_576.txt	LTP385	ltpFR2	9	11	SPONGE	1355	n/a	n/a	0	0	0
2413363	WORD	wordpools/wasnorm_wordpool_576.txt	LTP385	ltpFR2	9	11	PAIL	1002	n/a	n/a	0	0	0
2415931	WORD	wordpools/wasnorm_wordpool_576.txt	LTP385	ltpFR2	9	11	YACHT	1629	n/a	n/a	0	0	0
2418696	WORD	wordpools/wasnorm_wordpool_576.txt	LTP385	ltpFR2	9	11	DRESSER	496	n/a	n/a	0	0	0
2420313	START	n/a	LTP385	ltpFR2	9	n/a	n/a	n/a	16	n/a	n/a	n/a	n/a
2421296	DISTRACTOR	n/a	LTP385	ltpFR2	9	11	n/a	n/a	n/a	n/a	0	0	0
2421313	PROB	n/a	LTP385	ltpFR2	9	n/a	n/a	n/a	16	18	7	9	2
2425196	PROB	n/a	LTP385	ltpFR2	9	n/a	n/a	n/a	16	8	2	5	1
2427646	PROB	n/a	LTP385	ltpFR2	9	n/a	n/a	n/a	16	15	1	9	5
2429880	PROB	n/a	LTP385	ltpFR2	9	n/a	n/a	n/a	16	17	3	6	8
2432296	PROB	n/a	LTP385	ltpFR2	9	n/a	n/a	n/a	16	20	8	3	9
2437329	PROB	n/a	LTP385	ltpFR2	9	n/a	n/a	n/a	16	16	2	5	9
2440013	PROB	n/a	LTP385	ltpFR2	9	n/a	n/a	n/a	16	9	2	4	3
2444313	STOP	n/a	LTP385	ltpFR2	9	n/a	n/a	n/a	16	n/a	n/a	n/a	n/a
2446230	REC_START	n/a	LTP385	ltpFR2	9	11	n/a	n/a	n/a	n/a	0	0	0
2448312	REC_WORD	wordpools/wasnorm_wordpool_576.txt	LTP385	ltpFR2	9	11	SCOTCH	1251	n/a	n/a	0	0	0
2449570	REC_WORD	wordpools/wasnorm_wordpool_576.txt	LTP385	ltpFR2	9	11	DRESSER	496	n/a	n/a	0	0	0
2536694	WORD	wordpools/wasnorm_wordpool_576.txt	LTP385	ltpFR2	9	12	PREACHER	1119	n/a	n/a	0	0	0
2539411	WORD	wordpools/wasnorm_wordpool_576.txt	LTP385	ltpFR2	9	12	CHEMIST	292	n/a	n/a	0	0	0
2541994	WORD	wordpools/wasnorm_wordpool_576.txt	LTP385	ltpFR2	9	12	FOREHEAD	592	n/a	n/a	0	0	0
2544511	WORD	wordpools/wasnorm_wordpool_576.txt	LTP385	ltpFR2	9	12	SCARF	1246	n/a	n/a	0	0	0
2547077	WORD	wordpools/wasnorm_wordpool_576.txt	LTP385	ltpFR2	9	12	HELMET	702	n/a	n/a	0	0	0
2549777	WORD	wordpools/wasnorm_wordpool_576.txt	LTP385	ltpFR2	9	12	HIGHWAY	707	n/a	n/a	0	0	0
2552277	WORD	wordpools/wasnorm_wordpool_576.txt	LTP385	ltpFR2	9	12	BEAKER	104	n/a	n/a	0	0	0
2554811	WORD	wordpools/wasnorm_wordpool_576.txt	LTP385	ltpFR2	9	12	STICKER	1382	n/a	n/a	0	0	0
2557344	WORD	wordpools/wasnorm_wordpool_576.txt	LTP385	ltpFR2	9	12	SHOVEL	1295	n/a	n/a	0	0	0
2559794	WORD	wordpools/wasnorm_wordpool_576.txt	LTP385	ltpFR2	9	12	NECKLACE	940	n/a	n/a	0	0	0
2562394	WORD	wordpools/wasnorm_wordpool_576.txt	LTP385	ltpFR2	9	12	PARTNER	1017	n/a	n/a	0	0	0
2565027	WORD	wordpools/wasnorm_wordpool_576.txt	LTP385	ltpFR2	9	12	FEMALE	559	n/a	n/a	0	0	0
2567577	WORD	wordpools/wasnorm_wordpool_576.txt	LTP385	ltpFR2	9	12	STREAM	1392	n/a	n/a	0	0	0
2570177	WORD	wordpools/wasnorm_wordpool_576.txt	LTP385	ltpFR2	9	12	FIREMAN	569	n/a	n/a	0	0	0
2572660	WORD	wordpools/wasnorm_wordpool_576.txt	LTP385	ltpFR2	9	12	MATCH	878	n/a	n/a	0	0	0
2575360	WORD	wordpools/wasnorm_wordpool_576.txt	LTP385	ltpFR2	9	12	CROSS	413	n/a	n/a	0	0	0
2577844	WORD	wordpools/wasnorm_wordpool_576.txt	LTP385	ltpFR2	9	12	RADISH	1158	n/a	n/a	0	0	0
2580344	WORD	wordpools/wasnorm_wordpool_576.txt	LTP385	ltpFR2	9	12	FRAME	600	n/a	n/a	0	0	0
2583110	WORD	wordpools/wasnorm_wordpool_576.txt	LTP385	ltpFR2	9	12	EYELASH	546	n/a	n/a	0	0	0
2585677	WORD	wordpools/wasnorm_wordpool_576.txt	LTP385	ltpFR2	9	12	SCALLOP	1242	n/a	n/a	0	0	0
2588160	WORD	wordpools/wasnorm_wordpool_576.txt	LTP385	ltpFR2	9	12	COFFEE	341	n/a	n/a	0	0	0
2590743	WORD	wordpools/wasnorm_wordpool_576.txt	LTP385	ltpFR2	9	12	STAR	1373	n/a	n/a	0	0	0
2593443	WORD	wordpools/wasnorm_wordpool_576.txt	LTP385	ltpFR2	9	12	GRAVEL	659	n/a	n/a	0	0	0
2595894	WORD	wordpools/wasnorm_wordpool_576.txt	LTP385	ltpFR2	9	12	LETTUCE	814	n/a	n/a	0	0	0
2597510	START	n/a	LTP385	ltpFR2	9	n/a	n/a	n/a	17	n/a	n/a	n/a	n/a
2598503	DISTRACTOR	n/a	LTP385	ltpFR2	9	12	n/a	n/a	n/a	n/a	0	0	0
2598527	PROB	n/a	LTP385	ltpFR2	9	n/a	n/a	n/a	17	20	9	7	4
2602760	PROB	n/a	LTP385	ltpFR2	9	n/a	n/a	n/a	17	9	2	5	2
2604427	PROB	n/a	LTP385	ltpFR2	9	n/a	n/a	n/a	17	14	6	5	3
2607660	PROB	n/a	LTP385	ltpFR2	9	n/a	n/a	n/a	17	10	2	5	3
2609877	PROB	n/a	LTP385	ltpFR2	9	n/a	n/a	n/a	17	21	9	7	5
2612993	PROB	n/a	LTP385	ltpFR2	9	n/a	n/a	n/a	17	11	3	1	7
2615376	PROB	n/a	LTP385	ltpFR2	9	n/a	n/a	n/a	17	12	4	6	2
2621510	STOP	n/a	LTP385	ltpFR2	9	n/a	n/a	n/a	17	n/a	n/a	n/a	n/a
2623311	REC_START	n/a	LTP385	ltpFR2	9	12	n/a	n/a	n/a	n/a	0	0	0
2626859	REC_WORD	wordpools/wasnorm_wordpool_576.txt	LTP385	ltpFR2	9	12	GRAVEL	659	n/a	n/a	0	0	0
2627585	REC_WORD	wordpools/wasnorm_wordpool_576.txt	LTP385	ltpFR2	9	12	HELMET	702	n/a	n/a	0	0	0
2628402	REC_WORD	wordpools/wasnorm_wordpool_576.txt	LTP385	ltpFR2	9	12	PREACHER	1119	n/a	n/a	0	0	0
2629210	REC_WORD	wordpools/wasnorm_wordpool_576.txt	LTP385	ltpFR2	9	12	HIGHWAY	707	n/a	n/a	0	0	0
2639147	REC_WORD	wordpools/wasnorm_wordpool_576.txt	LTP385	ltpFR2	9	12	STICKER	1382	n/a	n/a	0	0	0
2713758	DISTRACTOR	n/a	LTP385	ltpFR2	9	13	n/a	n/a	n/a	n/a	0	0	0
2713758	START	n/a	LTP385	ltpFR2	9	n/a	n/a	n/a	18	n/a	n/a	n/a	n/a
2713775	PROB	n/a	LTP385	ltpFR2	9	n/a	n/a	n/a	18	19	7	4	8
2717391	PROB	n/a	LTP385	ltpFR2	9	n/a	n/a	n/a	18	21	9	3	9
2719675	PROB	n/a	LTP385	ltpFR2	9	n/a	n/a	n/a	18	12	6	3	3
2722508	PROB	n/a	LTP385	ltpFR2	9	n/a	n/a	n/a	18	22	8	6	7
2728225	PROB	n/a	LTP385	ltpFR2	9	n/a	n/a	n/a	18	15	9	1	5
2731458	PROB	n/a	LTP385	ltpFR2	9	n/a	n/a	n/a	18	26	8	9	9
2737758	STOP	n/a	LTP385	ltpFR2	9	n/a	n/a	n/a	18	n/a	n/a	n/a	n/a
2738875	WORD	wordpools/wasnorm_wordpool_576.txt	LTP385	ltpFR2	9	13	QUAIL	1147	n/a	n/a	0	0	0
2741308	WORD	wordpools/wasnorm_wordpool_576.txt	LTP385	ltpFR2	9	13	DAUGHTER	442	n/a	n/a	0	0	0
2744091	WORD	wordpools/wasnorm_wordpool_576.txt	LTP385	ltpFR2	9	13	OX	994	n/a	n/a	0	0	0
2746691	WORD	wordpools/wasnorm_wordpool_576.txt	LTP385	ltpFR2	9	13	BOX	159	n/a	n/a	0	0	0
2749274	WORD	wordpools/wasnorm_wordpool_576.txt	LTP385	ltpFR2	9	13	JURY	766	n/a	n/a	0	0	0
2751974	WORD	wordpools/wasnorm_wordpool_576.txt	LTP385	ltpFR2	9	13	COCOON	339	n/a	n/a	0	0	0
2754491	WORD	wordpools/wasnorm_wordpool_576.txt	LTP385	ltpFR2	9	13	WAGON	1578	n/a	n/a	0	0	0
2756991	WORD	wordpools/wasnorm_wordpool_576.txt	LTP385	ltpFR2	9	13	SCARECROW	1245	n/a	n/a	0	0	0
2759557	WORD	wordpools/wasnorm_wordpool_576.txt	LTP385	ltpFR2	9	13	BABY	64	n/a	n/a	0	0	0
2762374	WORD	wordpools/wasnorm_wordpool_576.txt	LTP385	ltpFR2	9	13	CHAPEL	280	n/a	n/a	0	0	0
2765124	WORD	wordpools/wasnorm_wordpool_576.txt	LTP385	ltpFR2	9	13	CHAUFFEUR	283	n/a	n/a	0	0	0
2767757	WORD	wordpools/wasnorm_wordpool_576.txt	LTP385	ltpFR2	9	13	HAMPER	682	n/a	n/a	0	0	0
2770357	WORD	wordpools/wasnorm_wordpool_576.txt	LTP385	ltpFR2	9	13	WARDROBE	1587	n/a	n/a	0	0	0
2773141	WORD	wordpools/wasnorm_wordpool_576.txt	LTP385	ltpFR2	9	13	ICEBERG	731	n/a	n/a	0	0	0
2775875	WORD	wordpools/wasnorm_wordpool_576.txt	LTP385	ltpFR2	9	13	BASEMENT	94	n/a	n/a	0	0	0
2778557	WORD	wordpools/wasnorm_wordpool_576.txt	LTP385	ltpFR2	9	13	EAGLE	512	n/a	n/a	0	0	0
2781374	WORD	wordpools/wasnorm_wordpool_576.txt	LTP385	ltpFR2	9	13	LION	827	n/a	n/a	0	0	0
2784174	WORD	wordpools/wasnorm_wordpool_576.txt	LTP385	ltpFR2	9	13	WITNESS	1618	n/a	n/a	0	0	0
2787007	WORD	wordpools/wasnorm_wordpool_576.txt	LTP385	ltpFR2	9	13	CLAMP	316	n/a	n/a	0	0	0
2789524	WORD	wordpools/wasnorm_wordpool_576.txt	LTP385	ltpFR2	9	13	GALLON	618	n/a	n/a	0	0	0
2792324	WORD	wordpools/wasnorm_wordpool_576.txt	LTP385	ltpFR2	9	13	POPCORN	1104	n/a	n/a	0	0	0
2794891	WORD	wordpools/wasnorm_wordpool_576.txt	LTP385	ltpFR2	9	13	GIFT	635	n/a	n/a	0	0	0
2797707	WORD	wordpools/wasnorm_wordpool_576.txt	LTP385	ltpFR2	9	13	STAPLE	1371	n/a	n/a	0	0	0
2800457	WORD	wordpools/wasnorm_wordpool_576.txt	LTP385	ltpFR2	9	13	BULLET	194	n/a	n/a	0	0	0
2802074	START	n/a	LTP385	ltpFR2	9	n/a	n/a	n/a	19	n/a	n/a	n/a	n/a
2803273	DISTRACTOR	n/a	LTP385	ltpFR2	9	13	n/a	n/a	n/a	n/a	0	0	0
2803290	PROB	n/a	LTP385	ltpFR2	9	n/a	n/a	n/a	19	11	6	3	2
2807207	PROB	n/a	LTP385	ltpFR2	9	n/a	n/a	n/a	19	17	4	5	8
2809423	PROB	n/a	LTP385	ltpFR2	9	n/a	n/a	n/a	19	23	9	7	7
2812123	PROB	n/a	LTP385	ltpFR2	9	n/a	n/a	n/a	19	9	4	1	4
2813623	PROB	n/a	LTP385	ltpFR2	9	n/a	n/a	n/a	19	11	1	8	2
2815373	PROB	n/a	LTP385	ltpFR2	9	n/a	n/a	n/a	19	17	9	4	4
2817891	PROB	n/a	LTP385	ltpFR2	9	n/a	n/a	n/a	19	21	8	9	4
2820456	PROB	n/a	LTP385	ltpFR2	9	n/a	n/a	n/a	19	14	5	8	1
2822590	PROB	n/a	LTP385	ltpFR2	9	n/a	n/a	n/a	19	11	5	2	4
2825245	STOP	n/a	LTP385	ltpFR2	9	n/a	n/a	n/a	19	n/a	n/a	n/a	n/a
2827891	REC_START	n/a	LTP385	ltpFR2	9	13	n/a	n/a	n/a	n/a	0	0	0
2828972	REC_WORD	wordpools/wasnorm_wordpool_576.txt	LTP385	ltpFR2	9	13	STAPLE	1371	n/a	n/a	0	0	0
2829876	REC_WORD	wordpools/wasnorm_wordpool_576.txt	LTP385	ltpFR2	9	13	OX	994	n/a	n/a	0	0	0
2830865	REC_WORD	wordpools/wasnorm_wordpool_576.txt	LTP385	ltpFR2	9	13	BOX	159	n/a	n/a	0	0	0
2832656	REC_WORD	wordpools/wasnorm_wordpool_576.txt	LTP385	ltpFR2	9	13	EAGLE	512	n/a	n/a	0	0	0
2833746	REC_WORD	wordpools/wasnorm_wordpool_576.txt	LTP385	ltpFR2	9	13	LION	827	n/a	n/a	0	0	0
2835126	REC_WORD	wordpools/wasnorm_wordpool_576.txt	LTP385	ltpFR2	9	13	GALLON	618	n/a	n/a	0	0	0
2836548	REC_WORD	wordpools/wasnorm_wordpool_576.txt	LTP385	ltpFR2	9	13	POPCORN	1104	n/a	n/a	0	0	0
2839585	REC_WORD	wordpools/wasnorm_wordpool_576.txt	LTP385	ltpFR2	9	13	CHURCH	307	n/a	n/a	0	0	0
2844388	REC_WORD	wordpools/wasnorm_wordpool_576.txt	LTP385	ltpFR2	9	13	CHAPEL	280	n/a	n/a	0	0	0
2847774	REC_WORD	wordpools/wasnorm_wordpool_576.txt	LTP385	ltpFR2	9	13	BABY	64	n/a	n/a	0	0	0
2859571	REC_WORD	wordpools/wasnorm_wordpool_576.txt	LTP385	ltpFR2	9	13	GIFT	635	n/a	n/a	0	0	0
2918371	WORD	wordpools/wasnorm_wordpool_576.txt	LTP385	ltpFR2	9	14	OUTFIT	988	n/a	n/a	0	0	0
2921155	WORD	wordpools/wasnorm_wordpool_576.txt	LTP385	ltpFR2	9	14	HUMAN	726	n/a	n/a	0	0	0
2923688	WORD	wordpools/wasnorm_wordpool_576.txt	LTP385	ltpFR2	9	14	PAPER	1011	n/a	n/a	0	0	0
2926371	WORD	wordpools/wasnorm_wordpool_576.txt	LTP385	ltpFR2	9	14	GANGSTER	620	n/a	n/a	0	0	0
2928872	WORD	wordpools/wasnorm_wordpool_576.txt	LTP385	ltpFR2	9	14	KNIFE	785	n/a	n/a	0	0	0
2931621	WORD	wordpools/wasnorm_wordpool_576.txt	LTP385	ltpFR2	9	14	BLADE	134	n/a	n/a	0	0	0
2934405	WORD	wordpools/wasnorm_wordpool_576.txt	LTP385	ltpFR2	9	14	SLUG	1329	n/a	n/a	0	0	0
2936889	WORD	wordpools/wasnorm_wordpool_576.txt	LTP385	ltpFR2	9	14	MUSTARD	935	n/a	n/a	0	0	0
2939405	WORD	wordpools/wasnorm_wordpool_576.txt	LTP385	ltpFR2	9	14	HORNET	718	n/a	n/a	0	0	0
2942188	WORD	wordpools/wasnorm_wordpool_576.txt	LTP385	ltpFR2	9	14	CATTLE	261	n/a	n/a	0	0	0
2944938	WORD	wordpools/wasnorm_wordpool_576.txt	LTP385	ltpFR2	9	14	STALLION	1369	n/a	n/a	0	0	0
2947704	WORD	wordpools/wasnorm_wordpool_576.txt	LTP385	ltpFR2	9	14	OFFICE	972	n/a	n/a	0	0	0
2950438	WORD	wordpools/wasnorm_wordpool_576.txt	LTP385	ltpFR2	9	14	MARKER	870	n/a	n/a	0	0	0
2952872	WORD	wordpools/wasnorm_wordpool_576.txt	LTP385	ltpFR2	9	14	CRATER	400	n/a	n/a	0	0	0
2955404	WORD	wordpools/wasnorm_wordpool_576.txt	LTP385	ltpFR2	9	14	LAVA	804	n/a	n/a	0	0	0
2958104	WORD	wordpools/wasnorm_wordpool_576.txt	LTP385	ltpFR2	9	14	SPARROW	1347	n/a	n/a	0	0	0
2960838	WORD	wordpools/wasnorm_wordpool_576.txt	LTP385	ltpFR2	9	14	ROOSTER	1209	n/a	n/a	0	0	0
2963488	WORD	wordpools/wasnorm_wordpool_576.txt	LTP385	ltpFR2	9	14	PEBBLE	1035	n/a	n/a	0	0	0
2966104	WORD	wordpools/wasnorm_wordpool_576.txt	LTP385	ltpFR2	9	14	OMELET	976	n/a	n/a	0	0	0
2968922	WORD	wordpools/wasnorm_wordpool_576.txt	LTP385	ltpFR2	9	14	LUNCH	849	n/a	n/a	0	0	0
2971571	WORD	wordpools/wasnorm_wordpool_576.txt	LTP385	ltpFR2	9	14	STONE	1385	n/a	n/a	0	0	0
2974087	WORD	wordpools/wasnorm_wordpool_576.txt	LTP385	ltpFR2	9	14	BUREAU	199	n/a	n/a	0	0	0
2976704	WORD	wordpools/wasnorm_wordpool_576.txt	LTP385	ltpFR2	9	14	FOOTBALL	591	n/a	n/a	0	0	0
2979387	WORD	wordpools/wasnorm_wordpool_576.txt	LTP385	ltpFR2	9	14	SURVEY	1414	n/a	n/a	0	0	0
2981004	START	n/a	LTP385	ltpFR2	9	n/a	n/a	n/a	20	n/a	n/a	n/a	n/a
2982040	DISTRACTOR	n/a	LTP385	ltpFR2	9	14	n/a	n/a	n/a	n/a	0	0	0
2982054	PROB	n/a	LTP385	ltpFR2	9	n/a	n/a	n/a	20	13	1	6	5
2985905	PROB	n/a	LTP385	ltpFR2	9	n/a	n/a	n/a	20	19	7	6	7
2988754	PROB	n/a	LTP385	ltpFR2	9	n/a	n/a	n/a	20	18	3	6	9
2991337	PROB	n/a	LTP385	ltpFR2	9	n/a	n/a	n/a	20	9	4	3	2
2993737	PROB	n/a	LTP385	ltpFR2	9	n/a	n/a	n/a	20	12	3	2	7
2997620	PROB	n/a	LTP385	ltpFR2	9	n/a	n/a	n/a	20	20	3	9	8
3000254	PROB	n/a	LTP385	ltpFR2	9	n/a	n/a	n/a	20	8	3	1	4
3005004	STOP	n/a	LTP385	ltpFR2	9	n/a	n/a	n/a	20	n/a	n/a	n/a	n/a
3006854	REC_START	n/a	LTP385	ltpFR2	9	14	n/a	n/a	n/a	n/a	0	0	0
3008476	REC_WORD	wordpools/wasnorm_wordpool_576.txt	LTP385	ltpFR2	9	14	BURROW	-1	n/a	n/a	0	0	0
3009095	REC_WORD	wordpools/wasnorm_wordpool_576.txt	LTP385	ltpFR2	9	14	FOOTBALL	591	n/a	n/a	0	0	0
3009948	REC_WORD	wordpools/wasnorm_wordpool_576.txt	LTP385	ltpFR2	9	14	SURVEY	1414	n/a	n/a	0	0	0
3011226	REC_WORD	wordpools/wasnorm_wordpool_576.txt	LTP385	ltpFR2	9	14	PEBBLE	1035	n/a	n/a	0	0	0
3012158	REC_WORD	wordpools/wasnorm_wordpool_576.txt	LTP385	ltpFR2	9	14	STONE	1385	n/a	n/a	0	0	0
3014252	REC_WORD	wordpools/wasnorm_wordpool_576.txt	LTP385	ltpFR2	9	14	ROOSTER	1209	n/a	n/a	0	0	0
3016799	REC_WORD	wordpools/wasnorm_wordpool_576.txt	LTP385	ltpFR2	9	14	OMELET	976	n/a	n/a	0	0	0
3097319	WORD	wordpools/wasnorm_wordpool_576.txt	LTP385	ltpFR2	9	15	GHETTO	633	n/a	n/a	0	0	0
3099785	WORD	wordpools/wasnorm_wordpool_576.txt	LTP385	ltpFR2	9	15	INFANT	737	n/a	n/a	0	0	0
3102352	WORD	wordpools/wasnorm_wordpool_576.txt	LTP385	ltpFR2	9	15	PORTRAIT	1111	n/a	n/a	0	0	0
3104785	WORD	wordpools/wasnorm_wordpool_576.txt	LTP385	ltpFR2	9	15	VALLEY	1545	n/a	n/a	0	0	0
3107435	WORD	wordpools/wasnorm_wordpool_576.txt	LTP385	ltpFR2	9	15	APRON	35	n/a	n/a	0	0	0
3109903	WORD	wordpools/wasnorm_wordpool_576.txt	LTP385	ltpFR2	9	15	COOKBOOK	373	n/a	n/a	0	0	0
3112618	WORD	wordpools/wasnorm_wordpool_576.txt	LTP385	ltpFR2	9	15	HORSE	719	n/a	n/a	0	0	0
3115135	WORD	wordpools/wasnorm_wordpool_576.txt	LTP385	ltpFR2	9	15	BUBBLE	183	n/a	n/a	0	0	0
3117935	WORD	wordpools/wasnorm_wordpool_576.txt	LTP385	ltpFR2	9	15	CARRIAGE	248	n/a	n/a	0	0	0
3120718	WORD	wordpools/wasnorm_wordpool_576.txt	LTP385	ltpFR2	9	15	SIDEWALK	1303	n/a	n/a	0	0	0
3123352	WORD	wordpools/wasnorm_wordpool_576.txt	LTP385	ltpFR2	9	15	PLAYGROUND	1087	n/a	n/a	0	0	0
3125968	WORD	wordpools/wasnorm_wordpool_576.txt	LTP385	ltpFR2	9	15	GOBLIN	645	n/a	n/a	0	0	0
3128568	WORD	wordpools/wasnorm_wordpool_576.txt	LTP385	ltpFR2	9	15	SALAD	1224	n/a	n/a	0	0	0
3131002	WORD	wordpools/wasnorm_wordpool_576.txt	LTP385	ltpFR2	9	15	CABBAGE	210	n/a	n/a	0	0	0
3133785	WORD	wordpools/wasnorm_wordpool_576.txt	LTP385	ltpFR2	9	15	THIEF	1456	n/a	n/a	0	0	0
3136235	WORD	wordpools/wasnorm_wordpool_576.txt	LTP385	ltpFR2	9	15	SOFTBALL	1343	n/a	n/a	0	0	0
3138886	WORD	wordpools/wasnorm_wordpool_576.txt	LTP385	ltpFR2	9	15	ATOM	55	n/a	n/a	0	0	0
3141535	WORD	wordpools/wasnorm_wordpool_576.txt	LTP385	ltpFR2	9	15	COBRA	336	n/a	n/a	0	0	0
3144268	WORD	wordpools/wasnorm_wordpool_576.txt	LTP385	ltpFR2	9	15	MONSTER	912	n/a	n/a	0	0	0
3146835	WORD	wordpools/wasnorm_wordpool_576.txt	LTP385	ltpFR2	9	15	CATCHER	258	n/a	n/a	0	0	0
3149418	WORD	wordpools/wasnorm_wordpool_576.txt	LTP385	ltpFR2	9	15	SHRUB	1299	n/a	n/a	0	0	0
3151851	WORD	wordpools/wasnorm_wordpool_576.txt	LTP385	ltpFR2	9	15	BLACKBOARD	133	n/a	n/a	0	0	0
3154351	WORD	wordpools/wasnorm_wordpool_576.txt	LTP385	ltpFR2	9	15	SCRIBBLE	1256	n/a	n/a	0	0	0
3157151	WORD	wordpools/wasnorm_wordpool_576.txt	LTP385	ltpFR2	9	15	RATTLE	1170	n/a	n/a	0	0	0
3158768	START	n/a	LTP385	ltpFR2	9	n/a	n/a	n/a	21	n/a	n/a	n/a	n/a
3159967	DISTRACTOR	n/a	LTP385	ltpFR2	9	15	n/a	n/a	n/a	n/a	0	0	0
3159984	PROB	n/a	LTP385	ltpFR2	9	n/a	n/a	n/a	21	16	6	1	9
3164368	PROB	n/a	LTP385	ltpFR2	9	n/a	n/a	n/a	21	10	2	2	6
3166084	PROB	n/a	LTP385	ltpFR2	9	n/a	n/a	n/a	21	21	6	6	9
3169718	PROB	n/a	LTP385	ltpFR2	9	n/a	n/a	n/a	21	12	7	5	5
3172951	PROB	n/a	LTP385	ltpFR2	9	n/a	n/a	n/a	21	18	4	6	8
3177967	PROB	n/a	LTP385	ltpFR2	9	n/a	n/a	n/a	21	18	6	9	3
3181776	STOP	n/a	LTP385	ltpFR2	9	n/a	n/a	n/a	21	n/a	n/a	n/a	n/a
3184701	REC_START	n/a	LTP385	ltpFR2	9	15	n/a	n/a	n/a	n/a	0	0	0
3191401	REC_WORD	wordpools/wasnorm_wordpool_576.txt	LTP385	ltpFR2	9	15	SCRIBBLE	1256	n/a	n/a	0	0	0
3192594	REC_WORD	wordpools/wasnorm_wordpool_576.txt	LTP385	ltpFR2	9	15	RATTLE	1170	n/a	n/a	0	0	0
3197035	REC_WORD	wordpools/wasnorm_wordpool_576.txt	LTP385	ltpFR2	9	15	INFANT	737	n/a	n/a	0	0	0
3198005	REC_WORD	wordpools/wasnorm_wordpool_576.txt	LTP385	ltpFR2	9	15	VALLEY	1545	n/a	n/a	0	0	0
3199603	REC_WORD	wordpools/wasnorm_wordpool_576.txt	LTP385	ltpFR2	9	15	GHETTO	633	n/a	n/a	0	0	0
3201084	REC_WORD	wordpools/wasnorm_wordpool_576.txt	LTP385	ltpFR2	9	15	COOKBOOK	373	n/a	n/a	0	0	0
3202133	REC_WORD	wordpools/wasnorm_wordpool_576.txt	LTP385	ltpFR2	9	15	APRON	35	n/a	n/a	0	0	0
3204094	REC_WORD	wordpools/wasnorm_wordpool_576.txt	LTP385	ltpFR2	9	15	HORSE	719	n/a	n/a	0	0	0
3444630	DISTRACTOR	n/a	LTP385	ltpFR2	9	16	n/a	n/a	n/a	n/a	0	0	0
3444630	START	n/a	LTP385	ltpFR2	9	n/a	n/a	n/a	22	n/a	n/a	n/a	n/a
3444646	PROB	n/a	LTP385	ltpFR2	9	n/a	n/a	n/a	22	16	6	5	5
3448313	PROB	n/a	LTP385	ltpFR2	9	n/a	n/a	n/a	22	6	1	2	3
3449881	PROB	n/a	LTP385	ltpFR2	9	n/a	n/a	n/a	22	24	7	7	8
3452530	PROB	n/a	LTP385	ltpFR2	9	n/a	n/a	n/a	22	10	2	4	4
3455413	PROB	n/a	LTP385	ltpFR2	9	n/a	n/a	n/a	22	19	5	6	8
3457930	PROB	n/a	LTP385	ltpFR2	9	n/a	n/a	n/a	22	14	6	7	1
3459897	PROB	n/a	LTP385	ltpFR2	9	n/a	n/a	n/a	22	19	2	8	9
3461963	PROB	n/a	LTP385	ltpFR2	9	n/a	n/a	n/a	22	19	6	5	8
3464880	PROB	n/a	LTP385	ltpFR2	9	n/a	n/a	n/a	22	16	1	9	6
3467232	STOP	n/a	LTP385	ltpFR2	9	n/a	n/a	n/a	22	n/a	n/a	n/a	n/a
3469513	WORD	wordpools/wasnorm_wordpool_576.txt	LTP385	ltpFR2	9	16	LAMP	798	n/a	n/a	0	0	0
3472013	WORD	wordpools/wasnorm_wordpool_576.txt	LTP385	ltpFR2	9	16	SERVANT	1271	n/a	n/a	0	0	0
3474762	WORD	wordpools/wasnorm_wordpool_576.txt	LTP385	ltpFR2	9	16	WASP	1593	n/a	n/a	0	0	0
3477212	WORD	wordpools/wasnorm_wordpool_576.txt	LTP385	ltpFR2	9	16	STOMACH	1384	n/a	n/a	0	0	0
3479679	WORD	wordpools/wasnorm_wordpool_576.txt	LTP385	ltpFR2	9	16	PLATE	1086	n/a	n/a	0	0	0
3482246	WORD	wordpools/wasnorm_wordpool_576.txt	LTP385	ltpFR2	9	16	COOK	372	n/a	n/a	0	0	0
3484880	WORD	wordpools/wasnorm_wordpool_576.txt	LTP385	ltpFR2	9	16	BRAKE	166	n/a	n/a	0	0	0
3487596	WORD	wordpools/wasnorm_wordpool_576.txt	LTP385	ltpFR2	9	16	SADDLE	1221	n/a	n/a	0	0	0
3490079	WORD	wordpools/wasnorm_wordpool_576.txt	LTP385	ltpFR2	9	16	MOTEL	919	n/a	n/a	0	0	0
3492512	WORD	wordpools/wasnorm_wordpool_576.txt	LTP385	ltpFR2	9	16	SERVER	1272	n/a	n/a	0	0	0
3495179	WORD	wordpools/wasnorm_wordpool_576.txt	LTP385	ltpFR2	9	16	GROUND	666	n/a	n/a	0	0	0
3497829	WORD	wordpools/wasnorm_wordpool_576.txt	LTP385	ltpFR2	9	16	CURTAIN	427	n/a	n/a	0	0	0
3500279	WORD	wordpools/wasnorm_wordpool_576.txt	LTP385	ltpFR2	9	16	FLUTE	585	n/a	n/a	0	0	0
3502880	WORD	wordpools/wasnorm_wordpool_576.txt	LTP385	ltpFR2	9	16	JAPAN	749	n/a	n/a	0	0	0
3505679	WORD	wordpools/wasnorm_wordpool_576.txt	LTP385	ltpFR2	9	16	ISLAND	745	n/a	n/a	0	0	0
3508162	WORD	wordpools/wasnorm_wordpool_576.txt	LTP385	ltpFR2	9	16	JUNGLE	764	n/a	n/a	0	0	0
3510962	WORD	wordpools/wasnorm_wordpool_576.txt	LTP385	ltpFR2	9	16	PICTURE	1061	n/a	n/a	0	0	0
3513628	WORD	wordpools/wasnorm_wordpool_576.txt	LTP385	ltpFR2	9	16	SKETCH	1315	n/a	n/a	0	0	0
3516395	WORD	wordpools/wasnorm_wordpool_576.txt	LTP385	ltpFR2	9	16	BLENDER	136	n/a	n/a	0	0	0
3519162	WORD	wordpools/wasnorm_wordpool_576.txt	LTP385	ltpFR2	9	16	PADDLE	1000	n/a	n/a	0	0	0
3521879	WORD	wordpools/wasnorm_wordpool_576.txt	LTP385	ltpFR2	9	16	CRIB	407	n/a	n/a	0	0	0
3524445	WORD	wordpools/wasnorm_wordpool_576.txt	LTP385	ltpFR2	9	16	BLOCKADE	137	n/a	n/a	0	0	0
3527095	WORD	wordpools/wasnorm_wordpool_576.txt	LTP385	ltpFR2	9	16	BANQUET	86	n/a	n/a	0	0	0
3529695	WORD	wordpools/wasnorm_wordpool_576.txt	LTP385	ltpFR2	9	16	SANDWICH	1232	n/a	n/a	0	0	0
3531312	START	n/a	LTP385	ltpFR2	9	n/a	n/a	n/a	23	n/a	n/a	n/a	n/a
3532390	DISTRACTOR	n/a	LTP385	ltpFR2	9	16	n/a	n/a	n/a	n/a	0	0	0
3532395	PROB	n/a	LTP385	ltpFR2	9	n/a	n/a	n/a	23	12	5	2	5
3534861	PROB	n/a	LTP385	ltpFR2	9	n/a	n/a	n/a	23	13	9	3	1
3536929	PROB	n/a	LTP385	ltpFR2	9	n/a	n/a	n/a	23	14	2	5	7
3540061	PROB	n/a	LTP385	ltpFR2	9	n/a	n/a	n/a	23	12	4	6	2
3542745	PROB	n/a	LTP385	ltpFR2	9	n/a	n/a	n/a	23	13	3	2	8
3545811	PROB	n/a	LTP385	ltpFR2	9	n/a	n/a	n/a	23	19	1	9	9
3547578	PROB	n/a	LTP385	ltpFR2	9	n/a	n/a	n/a	23	21	8	4	9
3555312	STOP	n/a	LTP385	ltpFR2	9	n/a	n/a	n/a	23	n/a	n/a	n/a	n/a
3557228	REC_START	n/a	LTP385	ltpFR2	9	16	n/a	n/a	n/a	n/a	0	0	0
3558569	REC_WORD	wordpools/wasnorm_wordpool_576.txt	LTP385	ltpFR2	9	16	PADDLE	1000	n/a	n/a	0	0	0
3559226	REC_WORD	wordpools/wasnorm_wordpool_576.txt	LTP385	ltpFR2	9	16	BLOCKADE	137	n/a	n/a	0	0	0
3560076	REC_WORD	wordpools/wasnorm_wordpool_576.txt	LTP385	ltpFR2	9	16	JAPAN	749	n/a	n/a	0	0	0
3561009	REC_WORD	wordpools/wasnorm_wordpool_576.txt	LTP385	ltpFR2	9	16	ISLAND	745	n/a	n/a	0	0	0
3561871	REC_WORD	wordpools/wasnorm_wordpool_576.txt	LTP385	ltpFR2	9	16	CURTAIN	427	n/a	n/a	0	0	0
3564685	REC_WORD	wordpools/wasnorm_wordpool_576.txt	LTP385	ltpFR2	9	16	TEMPLE	1448	n/a	n/a	0	0	0
3566082	REC_WORD	wordpools/wasnorm_wordpool_576.txt	LTP385	ltpFR2	9	16	PITCHER	-1	n/a	n/a	0	0	0
3566721	REC_WORD	wordpools/wasnorm_wordpool_576.txt	LTP385	ltpFR2	9	16	SKETCH	1315	n/a	n/a	0	0	0
3568917	REC_WORD	wordpools/wasnorm_wordpool_576.txt	LTP385	ltpFR2	9	16	INFANT	737	n/a	n/a	0	0	0
3570497	REC_WORD	wordpools/wasnorm_wordpool_576.txt	LTP385	ltpFR2	9	16	CRIB	407	n/a	n/a	0	0	0
3633776	REST_REWET	n/a	LTP385	ltpFR2	9	16	n/a	n/a	n/a	n/a	0	0	0
3762892	WORD	wordpools/wasnorm_wordpool_576.txt	LTP385	ltpFR2	9	17	OUTDOORS	987	n/a	n/a	0	0	0
3765674	WORD	wordpools/wasnorm_wordpool_576.txt	LTP385	ltpFR2	9	17	SALT	1229	n/a	n/a	0	0	0
3768207	WORD	wordpools/wasnorm_wordpool_576.txt	LTP385	ltpFR2	9	17	ZEBRA	1635	n/a	n/a	0	0	0
3770841	WORD	wordpools/wasnorm_wordpool_576.txt	LTP385	ltpFR2	9	17	PRINCE	1124	n/a	n/a	0	0	0
3773457	WORD	wordpools/wasnorm_wordpool_576.txt	LTP385	ltpFR2	9	17	PERFUME	1049	n/a	n/a	0	0	0
3775892	WORD	wordpools/wasnorm_wordpool_576.txt	LTP385	ltpFR2	9	17	ONION	977	n/a	n/a	0	0	0
3778340	WORD	wordpools/wasnorm_wordpool_576.txt	LTP385	ltpFR2	9	17	BRIEFCASE	175	n/a	n/a	0	0	0
3780957	WORD	wordpools/wasnorm_wordpool_576.txt	LTP385	ltpFR2	9	17	MARKET	871	n/a	n/a	0	0	0
3783591	WORD	wordpools/wasnorm_wordpool_576.txt	LTP385	ltpFR2	9	17	BRANDY	169	n/a	n/a	0	0	0
3786174	WORD	wordpools/wasnorm_wordpool_576.txt	LTP385	ltpFR2	9	17	FLESH	579	n/a	n/a	0	0	0
3788640	WORD	wordpools/wasnorm_wordpool_576.txt	LTP385	ltpFR2	9	17	CIGAR	308	n/a	n/a	0	0	0
3791074	WORD	wordpools/wasnorm_wordpool_576.txt	LTP385	ltpFR2	9	17	CAMEL	223	n/a	n/a	0	0	0
3793724	WORD	wordpools/wasnorm_wordpool_576.txt	LTP385	ltpFR2	9	17	BOARD	143	n/a	n/a	0	0	0
3796290	WORD	wordpools/wasnorm_wordpool_576.txt	LTP385	ltpFR2	9	17	BOUQUET	157	n/a	n/a	0	0	0
3798925	WORD	wordpools/wasnorm_wordpool_576.txt	LTP385	ltpFR2	9	17	DAISY	435	n/a	n/a	0	0	0
3801590	WORD	wordpools/wasnorm_wordpool_576.txt	LTP385	ltpFR2	9	17	AIRPORT	13	n/a	n/a	0	0	0
3804390	WORD	wordpools/wasnorm_wordpool_576.txt	LTP385	ltpFR2	9	17	ROCKET	1202	n/a	n/a	0	0	0
3806973	WORD	wordpools/wasnorm_wordpool_576.txt	LTP385	ltpFR2	9	17	PILOT	1070	n/a	n/a	0	0	0
3809740	WORD	wordpools/wasnorm_wordpool_576.txt	LTP385	ltpFR2	9	17	CRAYON	401	n/a	n/a	0	0	0
3812290	WORD	wordpools/wasnorm_wordpool_576.txt	LTP385	ltpFR2	9	17	TROMBONE	1508	n/a	n/a	0	0	0
3814740	WORD	wordpools/wasnorm_wordpool_576.txt	LTP385	ltpFR2	9	17	WRENCH	1625	n/a	n/a	0	0	0
3817357	WORD	wordpools/wasnorm_wordpool_576.txt	LTP385	ltpFR2	9	17	FIREPLACE	570	n/a	n/a	0	0	0
3819924	WORD	wordpools/wasnorm_wordpool_576.txt	LTP385	ltpFR2	9	17	TURNIP	1521	n/a	n/a	0	0	0
3822457	WORD	wordpools/wasnorm_wordpool_576.txt	LTP385	ltpFR2	9	17	JUDGE	761	n/a	n/a	0	0	0
3824073	START	n/a	LTP385	ltpFR2	9	n/a	n/a	n/a	24	n/a	n/a	n/a	n/a
3825101	DISTRACTOR	n/a	LTP385	ltpFR2	9	17	n/a	n/a	n/a	n/a	0	0	0
3825106	PROB	n/a	LTP385	ltpFR2	9	n/a	n/a	n/a	24	6	4	1	1
3829023	PROB	n/a	LTP385	ltpFR2	9	n/a	n/a	n/a	24	18	9	3	6
3832523	PROB	n/a	LTP385	ltpFR2	9	n/a	n/a	n/a	24	22	7	6	8
3835123	PROB	n/a	LTP385	ltpFR2	9	n/a	n/a	n/a	24	13	2	3	8
3837490	PROB	n/a	LTP385	ltpFR2	9	n/a	n/a	n/a	24	16	5	9	2
3840056	PROB	n/a	LTP385	ltpFR2	9	n/a	n/a	n/a	24	8	6	1	1
3841373	PROB	n/a	LTP385	ltpFR2	9	n/a	n/a	n/a	24	16	7	2	7
3848072	STOP	n/a	LTP385	ltpFR2	9	n/a	n/a	n/a	24	n/a	n/a	n/a	n/a
3850023	REC_START	n/a	LTP385	ltpFR2	9	17	n/a	n/a	n/a	n/a	0	0	0
3851771	REC_WORD	wordpools/wasnorm_wordpool_576.txt	LTP385	ltpFR2	9	17	PRINCE	1124	n/a	n/a	0	0	0
3852628	REC_WORD	wordpools/wasnorm_wordpool_576.txt	LTP385	ltpFR2	9	17	FRAGRANCE	599	n/a	n/a	0	0	0
3855566	REC_WORD	wordpools/wasnorm_wordpool_576.txt	LTP385	ltpFR2	9	17	SAND	1230	n/a	n/a	0	0	0
3856464	REC_WORD	wordpools/wasnorm_wordpool_576.txt	LTP385	ltpFR2	9	17	ONION	977	n/a	n/a	0	0	0
3857189	REC_WORD	wordpools/wasnorm_wordpool_576.txt	LTP385	ltpFR2	9	17	BRIEFCASE	175	n/a	n/a	0	0	0
3862370	REC_WORD	wordpools/wasnorm_wordpool_576.txt	LTP385	ltpFR2	9	17	TROMBONE	1508	n/a	n/a	0	0	0
3863907	REC_WORD	wordpools/wasnorm_wordpool_576.txt	LTP385	ltpFR2	9	17	BRANDY	169	n/a	n/a	0	0	0
3868949	REC_WORD	wordpools/wasnorm_wordpool_576.txt	LTP385	ltpFR2	9	17	AIRPORT	13	n/a	n/a	0	0	0
3875689	REC_WORD	wordpools/wasnorm_wordpool_576.txt	LTP385	ltpFR2	9	17	FIREPLACE	570	n/a	n/a	0	0	0
3884693	REC_WORD	wordpools/wasnorm_wordpool_576.txt	LTP385	ltpFR2	9	17	SALT	1229	n/a	n/a	0	0	0
3940488	WORD	wordpools/wasnorm_wordpool_576.txt	LTP385	ltpFR2	9	18	GLOVE	642	n/a	n/a	0	0	0
3943254	WORD	wordpools/wasnorm_wordpool_576.txt	LTP385	ltpFR2	9	18	FREEZER	604	n/a	n/a	0	0	0
3945854	WORD	wordpools/wasnorm_wordpool_576.txt	LTP385	ltpFR2	9	18	IGLOO	734	n/a	n/a	0	0	0
3948538	WORD	wordpools/wasnorm_wordpool_576.txt	LTP385	ltpFR2	9	18	TRUCK	1512	n/a	n/a	0	0	0
3951071	WORD	wordpools/wasnorm_wordpool_576.txt	LTP385	ltpFR2	9	18	GLASS	639	n/a	n/a	0	0	0
3953788	WORD	wordpools/wasnorm_wordpool_576.txt	LTP385	ltpFR2	9	18	CASKET	255	n/a	n/a	0	0	0
3956554	WORD	wordpools/wasnorm_wordpool_576.txt	LTP385	ltpFR2	9	18	LODGE	839	n/a	n/a	0	0	0
3959254	WORD	wordpools/wasnorm_wordpool_576.txt	LTP385	ltpFR2	9	18	COTTAGE	384	n/a	n/a	0	0	0
3961954	WORD	wordpools/wasnorm_wordpool_576.txt	LTP385	ltpFR2	9	18	POISON	1096	n/a	n/a	0	0	0
3964704	WORD	wordpools/wasnorm_wordpool_576.txt	LTP385	ltpFR2	9	18	SLIDE	1326	n/a	n/a	0	0	0
3967387	WORD	wordpools/wasnorm_wordpool_576.txt	LTP385	ltpFR2	9	18	DOLPHIN	483	n/a	n/a	0	0	0
3969922	WORD	wordpools/wasnorm_wordpool_576.txt	LTP385	ltpFR2	9	18	OINTMENT	974	n/a	n/a	0	0	0
3972454	WORD	wordpools/wasnorm_wordpool_576.txt	LTP385	ltpFR2	9	18	SHORTCAKE	1292	n/a	n/a	0	0	0
3975221	WORD	wordpools/wasnorm_wordpool_576.txt	LTP385	ltpFR2	9	18	TART	1436	n/a	n/a	0	0	0
3978004	WORD	wordpools/wasnorm_wordpool_576.txt	LTP385	ltpFR2	9	18	TREAT	1501	n/a	n/a	0	0	0
3980504	WORD	wordpools/wasnorm_wordpool_576.txt	LTP385	ltpFR2	9	18	BIKE	125	n/a	n/a	0	0	0
3983170	WORD	wordpools/wasnorm_wordpool_576.txt	LTP385	ltpFR2	9	18	LIPSTICK	829	n/a	n/a	0	0	0
3985888	WORD	wordpools/wasnorm_wordpool_576.txt	LTP385	ltpFR2	9	18	COIN	343	n/a	n/a	0	0	0
3988654	WORD	wordpools/wasnorm_wordpool_576.txt	LTP385	ltpFR2	9	18	MAMMAL	861	n/a	n/a	0	0	0
3991137	WORD	wordpools/wasnorm_wordpool_576.txt	LTP385	ltpFR2	9	18	FRECKLE	602	n/a	n/a	0	0	0
3993670	WORD	wordpools/wasnorm_wordpool_576.txt	LTP385	ltpFR2	9	18	MAPLE	866	n/a	n/a	0	0	0
3996203	WORD	wordpools/wasnorm_wordpool_576.txt	LTP385	ltpFR2	9	18	SEAL	1262	n/a	n/a	0	0	0
3998770	WORD	wordpools/wasnorm_wordpool_576.txt	LTP385	ltpFR2	9	18	COLONEL	348	n/a	n/a	0	0	0
4001420	WORD	wordpools/wasnorm_wordpool_576.txt	LTP385	ltpFR2	9	18	PEPPER	1047	n/a	n/a	0	0	0
4003037	START	n/a	LTP385	ltpFR2	9	n/a	n/a	n/a	25	n/a	n/a	n/a	n/a
4004059	DISTRACTOR	n/a	LTP385	ltpFR2	9	18	n/a	n/a	n/a	n/a	0	0	0
4004070	PROB	n/a	LTP385	ltpFR2	9	n/a	n/a	n/a	25	13	2	9	2
4007437	PROB	n/a	LTP385	ltpFR2	9	n/a	n/a	n/a	25	9	1	6	2
4011003	PROB	n/a	LTP385	ltpFR2	9	n/a	n/a	n/a	25	11	2	8	1
4013137	PROB	n/a	LTP385	ltpFR2	9	n/a	n/a	n/a	25	6	2	2	2
4014686	PROB	n/a	LTP385	ltpFR2	9	n/a	n/a	n/a	25	10	4	3	3
4017370	PROB	n/a	LTP385	ltpFR2	9	n/a	n/a	n/a	25	12	6	5	1
4019403	PROB	n/a	LTP385	ltpFR2	9	n/a	n/a	n/a	25	14	4	2	8
4022070	PROB	n/a	LTP385	ltpFR2	9	n/a	n/a	n/a	25	14	7	1	6
4025737	STOP	n/a	LTP385	ltpFR2	9	n/a	n/a	n/a	25	n/a	n/a	n/a	n/a
4028872	REC_START	n/a	LTP385	ltpFR2	9	18	n/a	n/a	n/a	n/a	0	0	0
4030928	REC_WORD	wordpools/wasnorm_wordpool_576.txt	LTP385	ltpFR2	9	18	SHORTCAKE	1292	n/a	n/a	0	0	0
4032518	REC_WORD	wordpools/wasnorm_wordpool_576.txt	LTP385	ltpFR2	9	18	PEPPER	1047	n/a	n/a	0	0	0
4034215	REC_WORD	wordpools/wasnorm_wordpool_576.txt	LTP385	ltpFR2	9	18	PEBBLE	1035	n/a	n/a	0	0	0
4119335	WORD	wordpools/wasnorm_wordpool_576.txt	LTP385	ltpFR2	9	19	BUNNY	198	n/a	n/a	0	0	0
4121902	WORD	wordpools/wasnorm_wordpool_576.txt	LTP385	ltpFR2	9	19	NIGHTGOWN	953	n/a	n/a	0	0	0
4124435	WORD	wordpools/wasnorm_wordpool_576.txt	LTP385	ltpFR2	9	19	BADGE	68	n/a	n/a	0	0	0
4127185	WORD	wordpools/wasnorm_wordpool_576.txt	LTP385	ltpFR2	9	19	MONEY	908	n/a	n/a	0	0	0
4129951	WORD	wordpools/wasnorm_wordpool_576.txt	LTP385	ltpFR2	9	19	HANDBAG	684	n/a	n/a	0	0	0
4132568	WORD	wordpools/wasnorm_wordpool_576.txt	LTP385	ltpFR2	9	19	POLICE	1098	n/a	n/a	0	0	0
4135151	WORD	wordpools/wasnorm_wordpool_576.txt	LTP385	ltpFR2	9	19	LADDER	793	n/a	n/a	0	0	0
4137684	WORD	wordpools/wasnorm_wordpool_576.txt	LTP385	ltpFR2	9	19	KNAPSACK	783	n/a	n/a	0	0	0
4140134	WORD	wordpools/wasnorm_wordpool_576.txt	LTP385	ltpFR2	9	19	BURGLAR	200	n/a	n/a	0	0	0
4142919	WORD	wordpools/wasnorm_wordpool_576.txt	LTP385	ltpFR2	9	19	DONKEY	484	n/a	n/a	0	0	0
4145551	WORD	wordpools/wasnorm_wordpool_576.txt	LTP385	ltpFR2	9	19	POSTAGE	1113	n/a	n/a	0	0	0
4148001	WORD	wordpools/wasnorm_wordpool_576.txt	LTP385	ltpFR2	9	19	HOOK	715	n/a	n/a	0	0	0
4150568	WORD	wordpools/wasnorm_wordpool_576.txt	LTP385	ltpFR2	9	19	TRACTOR	1493	n/a	n/a	0	0	0
4153318	WORD	wordpools/wasnorm_wordpool_576.txt	LTP385	ltpFR2	9	19	CORAL	378	n/a	n/a	0	0	0
4155784	WORD	wordpools/wasnorm_wordpool_576.txt	LTP385	ltpFR2	9	19	COUCH	386	n/a	n/a	0	0	0
4158351	WORD	wordpools/wasnorm_wordpool_576.txt	LTP385	ltpFR2	9	19	TABLE	1426	n/a	n/a	0	0	0
4160801	WORD	wordpools/wasnorm_wordpool_576.txt	LTP385	ltpFR2	9	19	DRIVER	499	n/a	n/a	0	0	0
4163501	WORD	wordpools/wasnorm_wordpool_576.txt	LTP385	ltpFR2	9	19	SALMON	1227	n/a	n/a	0	0	0
4166084	WORD	wordpools/wasnorm_wordpool_576.txt	LTP385	ltpFR2	9	19	CRAB	397	n/a	n/a	0	0	0
4168534	WORD	wordpools/wasnorm_wordpool_576.txt	LTP385	ltpFR2	9	19	SNAKE	1333	n/a	n/a	0	0	0
4171251	WORD	wordpools/wasnorm_wordpool_576.txt	LTP385	ltpFR2	9	19	SUSPECT	1415	n/a	n/a	0	0	0
4174051	WORD	wordpools/wasnorm_wordpool_576.txt	LTP385	ltpFR2	9	19	ARMY	39	n/a	n/a	0	0	0
4176601	WORD	wordpools/wasnorm_wordpool_576.txt	LTP385	ltpFR2	9	19	CRITIC	410	n/a	n/a	0	0	0
4179417	WORD	wordpools/wasnorm_wordpool_576.txt	LTP385	ltpFR2	9	19	CRICKET	408	n/a	n/a	0	0	0
4181034	START	n/a	LTP385	ltpFR2	9	n/a	n/a	n/a	26	n/a	n/a	n/a	n/a
4182047	DISTRACTOR	n/a	LTP385	ltpFR2	9	19	n/a	n/a	n/a	n/a	0	0	0
4182050	PROB	n/a	LTP385	ltpFR2	9	n/a	n/a	n/a	26	14	5	3	6
4184550	PROB	n/a	LTP385	ltpFR2	9	n/a	n/a	n/a	26	6	1	4	1
4186034	PROB	n/a	LTP385	ltpFR2	9	n/a	n/a	n/a	26	15	9	4	2
4188334	PROB	n/a	LTP385	ltpFR2	9	n/a	n/a	n/a	26	24	6	9	9
4191267	PROB	n/a	LTP385	ltpFR2	9	n/a	n/a	n/a	26	12	1	7	4
4193500	PROB	n/a	LTP385	ltpFR2	9	n/a	n/a	n/a	26	15	9	1	5
4195817	PROB	n/a	LTP385	ltpFR2	9	n/a	n/a	n/a	26	15	3	8	4
4203742	STOP	n/a	LTP385	ltpFR2	9	n/a	n/a	n/a	26	n/a	n/a	n/a	n/a
4206867	REC_START	n/a	LTP385	ltpFR2	9	19	n/a	n/a	n/a	n/a	0	0	0
4207734	REC_WORD	wordpools/wasnorm_wordpool_576.txt	LTP385	ltpFR2	9	19	CRICKET	408	n/a	n/a	0	0	0
4208539	REC_WORD	wordpools/wasnorm_wordpool_576.txt	LTP385	ltpFR2	9	19	BURGLAR	200	n/a	n/a	0	0	0
4210569	REC_WORD	wordpools/wasnorm_wordpool_576.txt	LTP385	ltpFR2	9	19	LADDER	793	n/a	n/a	0	0	0
4214695	REC_WORD	wordpools/wasnorm_wordpool_576.txt	LTP385	ltpFR2	9	19	ARMY	39	n/a	n/a	0	0	0
4297315	DISTRACTOR	n/a	LTP385	ltpFR2	9	20	n/a	n/a	n/a	n/a	0	0	0
4297315	START	n/a	LTP385	ltpFR2	9	n/a	n/a	n/a	27	n/a	n/a	n/a	n/a
4297332	PROB	n/a	LTP385	ltpFR2	9	n/a	n/a	n/a	27	13	8	3	2
4300015	PROB	n/a	LTP385	ltpFR2	9	n/a	n/a	n/a	27	11	7	2	2
4302098	PROB	n/a	LTP385	ltpFR2	9	n/a	n/a	n/a	27	21	6	9	6
4306248	PROB	n/a	LTP385	ltpFR2	9	n/a	n/a	n/a	27	15	6	1	8
4308415	PROB	n/a	LTP385	ltpFR2	9	n/a	n/a	n/a	27	20	9	8	3
4311598	PROB	n/a	LTP385	ltpFR2	9	n/a	n/a	n/a	27	14	2	9	3
4314415	PROB	n/a	LTP385	ltpFR2	9	n/a	n/a	n/a	27	21	6	9	6
4317015	PROB	n/a	LTP385	ltpFR2	9	n/a	n/a	n/a	27	18	8	1	9
4321314	STOP	n/a	LTP385	ltpFR2	9	n/a	n/a	n/a	27	n/a	n/a	n/a	n/a
4322348	WORD	wordpools/wasnorm_wordpool_576.txt	LTP385	ltpFR2	9	20	MASK	876	n/a	n/a	0	0	0
4324882	WORD	wordpools/wasnorm_wordpool_576.txt	LTP385	ltpFR2	9	20	MEDAL	885	n/a	n/a	0	0	0
4327615	WORD	wordpools/wasnorm_wordpool_576.txt	LTP385	ltpFR2	9	20	LUMBER	848	n/a	n/a	0	0	0
4330248	WORD	wordpools/wasnorm_wordpool_576.txt	LTP385	ltpFR2	9	20	PUDDING	1139	n/a	n/a	0	0	0
4332748	WORD	wordpools/wasnorm_wordpool_576.txt	LTP385	ltpFR2	9	20	MUMMY	932	n/a	n/a	0	0	0
4335365	WORD	wordpools/wasnorm_wordpool_576.txt	LTP385	ltpFR2	9	20	LIGHTNING	820	n/a	n/a	0	0	0
4338114	WORD	wordpools/wasnorm_wordpool_576.txt	LTP385	ltpFR2	9	20	CLOUD	328	n/a	n/a	0	0	0
4340581	WORD	wordpools/wasnorm_wordpool_576.txt	LTP385	ltpFR2	9	20	SPOOL	1356	n/a	n/a	0	0	0
4343348	WORD	wordpools/wasnorm_wordpool_576.txt	LTP385	ltpFR2	9	20	RAZOR	1171	n/a	n/a	0	0	0
4345915	WORD	wordpools/wasnorm_wordpool_576.txt	LTP385	ltpFR2	9	20	SUMMIT	1405	n/a	n/a	0	0	0
4348514	WORD	wordpools/wasnorm_wordpool_576.txt	LTP385	ltpFR2	9	20	BARLEY	88	n/a	n/a	0	0	0
4351097	WORD	wordpools/wasnorm_wordpool_576.txt	LTP385	ltpFR2	9	20	VICTIM	1562	n/a	n/a	0	0	0
4353614	WORD	wordpools/wasnorm_wordpool_576.txt	LTP385	ltpFR2	9	20	CAPTIVE	240	n/a	n/a	0	0	0
4356047	WORD	wordpools/wasnorm_wordpool_576.txt	LTP385	ltpFR2	9	20	PANTHER	1009	n/a	n/a	0	0	0
4358647	WORD	wordpools/wasnorm_wordpool_576.txt	LTP385	ltpFR2	9	20	SPOUSE	1358	n/a	n/a	0	0	0
4361414	WORD	wordpools/wasnorm_wordpool_576.txt	LTP385	ltpFR2	9	20	BLUEPRINT	142	n/a	n/a	0	0	0
4364197	WORD	wordpools/wasnorm_wordpool_576.txt	LTP385	ltpFR2	9	20	KLEENEX	782	n/a	n/a	0	0	0
4366997	WORD	wordpools/wasnorm_wordpool_576.txt	LTP385	ltpFR2	9	20	PLUTO	1092	n/a	n/a	0	0	0
4369514	WORD	wordpools/wasnorm_wordpool_576.txt	LTP385	ltpFR2	9	20	GARLIC	624	n/a	n/a	0	0	0
4371964	WORD	wordpools/wasnorm_wordpool_576.txt	LTP385	ltpFR2	9	20	HUSBAND	728	n/a	n/a	0	0	0
4374730	WORD	wordpools/wasnorm_wordpool_576.txt	LTP385	ltpFR2	9	20	HEART	697	n/a	n/a	0	0	0
4377164	WORD	wordpools/wasnorm_wordpool_576.txt	LTP385	ltpFR2	9	20	TRANSPLANT	1496	n/a	n/a	0	0	0
4379931	WORD	wordpools/wasnorm_wordpool_576.txt	LTP385	ltpFR2	9	20	CAFE	216	n/a	n/a	0	0	0
4382397	WORD	wordpools/wasnorm_wordpool_576.txt	LTP385	ltpFR2	9	20	SWIMMER	1420	n/a	n/a	0	0	0
4384014	START	n/a	LTP385	ltpFR2	9	n/a	n/a	n/a	28	n/a	n/a	n/a	n/a
4384976	DISTRACTOR	n/a	LTP385	ltpFR2	9	20	n/a	n/a	n/a	n/a	0	0	0
4384980	PROB	n/a	LTP385	ltpFR2	9	n/a	n/a	n/a	28	8	3	3	2
4388915	PROB	n/a	LTP385	ltpFR2	9	n/a	n/a	n/a	28	17	4	4	9
4392697	PROB	n/a	LTP385	ltpFR2	9	n/a	n/a	n/a	28	14	6	4	4
4394780	PROB	n/a	LTP385	ltpFR2	9	n/a	n/a	n/a	28	17	8	6	3
4397830	PROB	n/a	LTP385	ltpFR2	9	n/a	n/a	n/a	28	19	9	6	4
4401013	PROB	n/a	LTP385	ltpFR2	9	n/a	n/a	n/a	28	10	1	8	1
4403113	PROB	n/a	LTP385	ltpFR2	9	n/a	n/a	n/a	28	21	5	9	7
4408014	STOP	n/a	LTP385	ltpFR2	9	n/a	n/a	n/a	28	n/a	n/a	n/a	n/a
4409782	REC_START	n/a	LTP385	ltpFR2	9	20	n/a	n/a	n/a	n/a	0	0	0
4421340	REC_WORD	wordpools/wasnorm_wordpool_576.txt	LTP385	ltpFR2	9	20	LUMBER	848	n/a	n/a	0	0	0
4422241	REC_WORD	wordpools/wasnorm_wordpool_576.txt	LTP385	ltpFR2	9	20	MEDAL	885	n/a	n/a	0	0	0
4423851	REC_WORD	wordpools/wasnorm_wordpool_576.txt	LTP385	ltpFR2	9	20	SUMMIT	1405	n/a	n/a	0	0	0
4424998	REC_WORD	wordpools/wasnorm_wordpool_576.txt	LTP385	ltpFR2	9	20	BLUEPRINT	142	n/a	n/a	0	0	0
4426236	REC_WORD	wordpools/wasnorm_wordpool_576.txt	LTP385	ltpFR2	9	20	HUSBAND	728	n/a	n/a	0	0	0
4427219	REC_WORD	wordpools/wasnorm_wordpool_576.txt	LTP385	ltpFR2	9	20	WIFE	1609	n/a	n/a	0	0	0
4428136	REC_WORD	wordpools/wasnorm_wordpool_576.txt	LTP385	ltpFR2	9	20	PLUTO	1092	n/a	n/a	0	0	0
4430556	REC_WORD	wordpools/wasnorm_wordpool_576.txt	LTP385	ltpFR2	9	20	GARLIC	624	n/a	n/a	0	0	0
4433871	REC_WORD	wordpools/wasnorm_wordpool_576.txt	LTP385	ltpFR2	9	20	MASK	876	n/a	n/a	0	0	0
4500228	DISTRACTOR	n/a	LTP385	ltpFR2	9	21	n/a	n/a	n/a	n/a	0	0	0
4500228	START	n/a	LTP385	ltpFR2	9	n/a	n/a	n/a	29	n/a	n/a	n/a	n/a
4500245	PROB	n/a	LTP385	ltpFR2	9	n/a	n/a	n/a	29	18	7	5	6
4505312	PROB	n/a	LTP385	ltpFR2	9	n/a	n/a	n/a	29	12	3	4	5
4508078	PROB	n/a	LTP385	ltpFR2	9	n/a	n/a	n/a	29	17	5	8	4
4511879	PROB	n/a	LTP385	ltpFR2	9	n/a	n/a	n/a	29	18	7	5	6
4514412	PROB	n/a	LTP385	ltpFR2	9	n/a	n/a	n/a	29	12	9	1	2
4516445	PROB	n/a	LTP385	ltpFR2	9	n/a	n/a	n/a	29	14	2	7	5
4519078	PROB	n/a	LTP385	ltpFR2	9	n/a	n/a	n/a	29	17	7	1	9
4524215	STOP	n/a	LTP385	ltpFR2	9	n/a	n/a	n/a	29	n/a	n/a	n/a	n/a
4525311	WORD	wordpools/wasnorm_wordpool_576.txt	LTP385	ltpFR2	9	21	PEDAL	1037	n/a	n/a	0	0	0
4527995	WORD	wordpools/wasnorm_wordpool_576.txt	LTP385	ltpFR2	9	21	BISON	131	n/a	n/a	0	0	0
4530794	WORD	wordpools/wasnorm_wordpool_576.txt	LTP385	ltpFR2	9	21	BREAST	171	n/a	n/a	0	0	0
4533228	WORD	wordpools/wasnorm_wordpool_576.txt	LTP385	ltpFR2	9	21	VIRUS	1572	n/a	n/a	0	0	0
4535811	WORD	wordpools/wasnorm_wordpool_576.txt	LTP385	ltpFR2	9	21	MILK	895	n/a	n/a	0	0	0
4538461	WORD	wordpools/wasnorm_wordpool_576.txt	LTP385	ltpFR2	9	21	REPORT	1184	n/a	n/a	0	0	0
4541111	WORD	wordpools/wasnorm_wordpool_576.txt	LTP385	ltpFR2	9	21	NOTEBOOK	959	n/a	n/a	0	0	0
4543929	WORD	wordpools/wasnorm_wordpool_576.txt	LTP385	ltpFR2	9	21	INMATE	738	n/a	n/a	0	0	0
4546578	WORD	wordpools/wasnorm_wordpool_576.txt	LTP385	ltpFR2	9	21	DRAGON	492	n/a	n/a	0	0	0
4549278	WORD	wordpools/wasnorm_wordpool_576.txt	LTP385	ltpFR2	9	21	QUARTER	1148	n/a	n/a	0	0	0
4551778	WORD	wordpools/wasnorm_wordpool_576.txt	LTP385	ltpFR2	9	21	WIDOW	1608	n/a	n/a	0	0	0
4554244	WORD	wordpools/wasnorm_wordpool_576.txt	LTP385	ltpFR2	9	21	NEUTRON	947	n/a	n/a	0	0	0
4556994	WORD	wordpools/wasnorm_wordpool_576.txt	LTP385	ltpFR2	9	21	MACHINE	852	n/a	n/a	0	0	0
4559794	WORD	wordpools/wasnorm_wordpool_576.txt	LTP385	ltpFR2	9	21	PERCH	1048	n/a	n/a	0	0	0
4562344	WORD	wordpools/wasnorm_wordpool_576.txt	LTP385	ltpFR2	9	21	APPLE	33	n/a	n/a	0	0	0
4565011	WORD	wordpools/wasnorm_wordpool_576.txt	LTP385	ltpFR2	9	21	OUTLAW	989	n/a	n/a	0	0	0
4567794	WORD	wordpools/wasnorm_wordpool_576.txt	LTP385	ltpFR2	9	21	CREATURE	403	n/a	n/a	0	0	0
4570510	WORD	wordpools/wasnorm_wordpool_576.txt	LTP385	ltpFR2	9	21	STAMP	1370	n/a	n/a	0	0	0
4573277	WORD	wordpools/wasnorm_wordpool_576.txt	LTP385	ltpFR2	9	21	PACKAGE	997	n/a	n/a	0	0	0
4575878	WORD	wordpools/wasnorm_wordpool_576.txt	LTP385	ltpFR2	9	21	FLOWER	584	n/a	n/a	0	0	0
4578394	WORD	wordpools/wasnorm_wordpool_576.txt	LTP385	ltpFR2	9	21	XEROX	1628	n/a	n/a	0	0	0
4581144	WORD	wordpools/wasnorm_wordpool_576.txt	LTP385	ltpFR2	9	21	NOMAD	955	n/a	n/a	0	0	0
4583644	WORD	wordpools/wasnorm_wordpool_576.txt	LTP385	ltpFR2	9	21	DONOR	485	n/a	n/a	0	0	0
4586260	WORD	wordpools/wasnorm_wordpool_576.txt	LTP385	ltpFR2	9	21	ORANGE	980	n/a	n/a	0	0	0
4587878	START	n/a	LTP385	ltpFR2	9	n/a	n/a	n/a	30	n/a	n/a	n/a	n/a
4588823	DISTRACTOR	n/a	LTP385	ltpFR2	9	21	n/a	n/a	n/a	n/a	0	0	0
4588827	PROB	n/a	LTP385	ltpFR2	9	n/a	n/a	n/a	30	7	1	4	2
4592010	PROB	n/a	LTP385	ltpFR2	9	n/a	n/a	n/a	30	15	7	2	6
4595160	PROB	n/a	LTP385	ltpFR2	9	n/a	n/a	n/a	30	11	6	4	1
4596977	PROB	n/a	LTP385	ltpFR2	9	n/a	n/a	n/a	30	26	8	9	9
4600610	PROB	n/a	LTP385	ltpFR2	9	n/a	n/a	n/a	30	25	7	9	9
4605010	PROB	n/a	LTP385	ltpFR2	9	n/a	n/a	n/a	30	18	8	6	4
4611878	STOP	n/a	LTP385	ltpFR2	9	n/a	n/a	n/a	30	n/a	n/a	n/a	n/a
4613827	REC_START	n/a	LTP385	ltpFR2	9	21	n/a	n/a	n/a	n/a	0	0	0
4618149	REC_WORD	wordpools/wasnorm_wordpool_576.txt	LTP385	ltpFR2	9	21	PEDAL	1037	n/a	n/a	0	0	0
4622305	REC_WORD	wordpools/wasnorm_wordpool_576.txt	LTP385	ltpFR2	9	21	BISON	131	n/a	n/a	0	0	0
4623612	REC_WORD	wordpools/wasnorm_wordpool_576.txt	LTP385	ltpFR2	9	21	BREAST	171	n/a	n/a	0	0	0
4624604	REC_WORD	wordpools/wasnorm_wordpool_576.txt	LTP385	ltpFR2	9	21	VIRUS	1572	n/a	n/a	0	0	0
4626980	REC_WORD	wordpools/wasnorm_wordpool_576.txt	LTP385	ltpFR2	9	21	MILK	895	n/a	n/a	0	0	0
4629323	REC_WORD	wordpools/wasnorm_wordpool_576.txt	LTP385	ltpFR2	9	21	PROTON	1132	n/a	n/a	0	0	0
4704275	DISTRACTOR	n/a	LTP385	ltpFR2	9	22	n/a	n/a	n/a	n/a	0	0	0
4704275	START	n/a	LTP385	ltpFR2	9	n/a	n/a	n/a	31	n/a	n/a	n/a	n/a
4704292	PROB	n/a	LTP385	ltpFR2	9	n/a	n/a	n/a	31	14	8	2	4
4707108	PROB	n/a	LTP385	ltpFR2	9	n/a	n/a	n/a	31	6	1	4	2
4709208	PROB	n/a	LTP385	ltpFR2	9	n/a	n/a	n/a	31	14	5	7	2
4711958	PROB	n/a	LTP385	ltpFR2	9	n/a	n/a	n/a	31	10	3	2	4
4715008	PROB	n/a	LTP385	ltpFR2	9	n/a	n/a	n/a	31	15	2	8	5
4717458	PROB	n/a	LTP385	ltpFR2	9	n/a	n/a	n/a	31	24	8	6	8
4719926	PROB	n/a	LTP385	ltpFR2	9	n/a	n/a	n/a	31	15	4	5	6
4723608	PROB	n/a	LTP385	ltpFR2	9	n/a	n/a	n/a	31	18	9	8	1
4728275	STOP	n/a	LTP385	ltpFR2	9	n/a	n/a	n/a	31	n/a	n/a	n/a	n/a
4729191	WORD	wordpools/wasnorm_wordpool_576.txt	LTP385	ltpFR2	9	22	SMOG	1330	n/a	n/a	0	0	0
4731892	WORD	wordpools/wasnorm_wordpool_576.txt	LTP385	ltpFR2	9	22	SPHINX	1349	n/a	n/a	0	0	0
4734341	WORD	wordpools/wasnorm_wordpool_576.txt	LTP385	ltpFR2	9	22	ATLAS	53	n/a	n/a	0	0	0
4736858	WORD	wordpools/wasnorm_wordpool_576.txt	LTP385	ltpFR2	9	22	DUSTPAN	509	n/a	n/a	0	0	0
4739491	WORD	wordpools/wasnorm_wordpool_576.txt	LTP385	ltpFR2	9	22	KEEPER	769	n/a	n/a	0	0	0
4742258	WORD	wordpools/wasnorm_wordpool_576.txt	LTP385	ltpFR2	9	22	TYPIST	1532	n/a	n/a	0	0	0
4744925	WORD	wordpools/wasnorm_wordpool_576.txt	LTP385	ltpFR2	9	22	CLIMBER	323	n/a	n/a	0	0	0
4747374	WORD	wordpools/wasnorm_wordpool_576.txt	LTP385	ltpFR2	9	22	LUGGAGE	847	n/a	n/a	0	0	0
4749991	WORD	wordpools/wasnorm_wordpool_576.txt	LTP385	ltpFR2	9	22	CLAM	315	n/a	n/a	0	0	0
4752641	WORD	wordpools/wasnorm_wordpool_576.txt	LTP385	ltpFR2	9	22	GAZELLE	628	n/a	n/a	0	0	0
4755391	WORD	wordpools/wasnorm_wordpool_576.txt	LTP385	ltpFR2	9	22	RUST	1219	n/a	n/a	0	0	0
4758174	WORD	wordpools/wasnorm_wordpool_576.txt	LTP385	ltpFR2	9	22	PISTON	1076	n/a	n/a	0	0	0
4760707	WORD	wordpools/wasnorm_wordpool_576.txt	LTP385	ltpFR2	9	22	VALVE	1546	n/a	n/a	0	0	0
4763324	WORD	wordpools/wasnorm_wordpool_576.txt	LTP385	ltpFR2	9	22	GREASE	660	n/a	n/a	0	0	0
4766041	WORD	wordpools/wasnorm_wordpool_576.txt	LTP385	ltpFR2	9	22	OYSTER	995	n/a	n/a	0	0	0
4768624	WORD	wordpools/wasnorm_wordpool_576.txt	LTP385	ltpFR2	9	22	CRUTCH	417	n/a	n/a	0	0	0
4771124	WORD	wordpools/wasnorm_wordpool_576.txt	LTP385	ltpFR2	9	22	ULCER	1533	n/a	n/a	0	0	0
4773875	WORD	wordpools/wasnorm_wordpool_576.txt	LTP385	ltpFR2	9	22	DUST	508	n/a	n/a	0	0	0
4776357	WORD	wordpools/wasnorm_wordpool_576.txt	LTP385	ltpFR2	9	22	GYMNAST	675	n/a	n/a	0	0	0
4778925	WORD	wordpools/wasnorm_wordpool_576.txt	LTP385	ltpFR2	9	22	JUGGLER	763	n/a	n/a	0	0	0
4781607	WORD	wordpools/wasnorm_wordpool_576.txt	LTP385	ltpFR2	9	22	RACKET	1155	n/a	n/a	0	0	0
4784340	WORD	wordpools/wasnorm_wordpool_576.txt	LTP385	ltpFR2	9	22	SCULPTURE	1258	n/a	n/a	0	0	0
4786974	WORD	wordpools/wasnorm_wordpool_576.txt	LTP385	ltpFR2	9	22	LAPEL	800	n/a	n/a	0	0	0
4789757	WORD	wordpools/wasnorm_wordpool_576.txt	LTP385	ltpFR2	9	22	PIMPLE	1071	n/a	n/a	0	0	0
4791374	START	n/a	LTP385	ltpFR2	9	n/a	n/a	n/a	32	n/a	n/a	n/a	n/a
4792477	DISTRACTOR	n/a	LTP385	ltpFR2	9	22	n/a	n/a	n/a	n/a	0	0	0
4792490	PROB	n/a	LTP385	ltpFR2	9	n/a	n/a	n/a	32	24	8	7	9
4796874	PROB	n/a	LTP385	ltpFR2	9	n/a	n/a	n/a	32	18	4	9	5
4800557	PROB	n/a	LTP385	ltpFR2	9	n/a	n/a	n/a	32	19	9	2	8
4803007	PROB	n/a	LTP385	ltpFR2	9	n/a	n/a	n/a	32	22	7	9	6
4808673	PROB	n/a	LTP385	ltpFR2	9	n/a	n/a	n/a	32	17	9	3	5
4815374	STOP	n/a	LTP385	ltpFR2	9	n/a	n/a	n/a	32	n/a	n/a	n/a	n/a
4817240	REC_START	n/a	LTP385	ltpFR2	9	22	n/a	n/a	n/a	n/a	0	0	0
4818370	REC_WORD	wordpools/wasnorm_wordpool_576.txt	LTP385	ltpFR2	9	22	PHOTO	1055	n/a	n/a	0	0	0
4821788	REC_WORD	wordpools/wasnorm_wordpool_576.txt	LTP385	ltpFR2	9	22	GREASE	660	n/a	n/a	0	0	0
4828458	REC_WORD	wordpools/wasnorm_wordpool_576.txt	LTP385	ltpFR2	9	22	PISTON	1076	n/a	n/a	0	0	0
4907705	DISTRACTOR	n/a	LTP385	ltpFR2	9	23	n/a	n/a	n/a	n/a	0	0	0
4907705	START	n/a	LTP385	ltpFR2	9	n/a	n/a	n/a	33	n/a	n/a	n/a	n/a
4907722	PROB	n/a	LTP385	ltpFR2	9	n/a	n/a	n/a	33	17	3	8	6
4910622	PROB	n/a	LTP385	ltpFR2	9	n/a	n/a	n/a	33	23	9	5	9
4914455	PROB	n/a	LTP385	ltpFR2	9	n/a	n/a	n/a	33	24	7	9	6
4919771	PROB	n/a	LTP385	ltpFR2	9	n/a	n/a	n/a	33	18	9	7	1
4922055	PROB	n/a	LTP385	ltpFR2	9	n/a	n/a	n/a	33	8	3	2	3
4925521	PROB	n/a	LTP385	ltpFR2	9	n/a	n/a	n/a	33	11	4	3	4
4931705	STOP	n/a	LTP385	ltpFR2	9	n/a	n/a	n/a	33	n/a	n/a	n/a	n/a
4932605	WORD	wordpools/wasnorm_wordpool_576.txt	LTP385	ltpFR2	9	23	SKILLET	1317	n/a	n/a	0	0	0
4935321	WORD	wordpools/wasnorm_wordpool_576.txt	LTP385	ltpFR2	9	23	CONVICT	371	n/a	n/a	0	0	0
4937938	WORD	wordpools/wasnorm_wordpool_576.txt	LTP385	ltpFR2	9	23	WAITER	1580	n/a	n/a	0	0	0
4940654	WORD	wordpools/wasnorm_wordpool_576.txt	LTP385	ltpFR2	9	23	SPACE	1345	n/a	n/a	0	0	0
4943388	WORD	wordpools/wasnorm_wordpool_576.txt	LTP385	ltpFR2	9	23	COMET	353	n/a	n/a	0	0	0
4946138	WORD	wordpools/wasnorm_wordpool_576.txt	LTP385	ltpFR2	9	23	PASSAGE	1019	n/a	n/a	0	0	0
4948788	WORD	wordpools/wasnorm_wordpool_576.txt	LTP385	ltpFR2	9	23	DASHBOARD	441	n/a	n/a	0	0	0
4951421	WORD	wordpools/wasnorm_wordpool_576.txt	LTP385	ltpFR2	9	23	LABEL	790	n/a	n/a	0	0	0
4954088	WORD	wordpools/wasnorm_wordpool_576.txt	LTP385	ltpFR2	9	23	BUCKET	184	n/a	n/a	0	0	0
4956621	WORD	wordpools/wasnorm_wordpool_576.txt	LTP385	ltpFR2	9	23	SEAGULL	1261	n/a	n/a	0	0	0
4959104	WORD	wordpools/wasnorm_wordpool_576.txt	LTP385	ltpFR2	9	23	THRONE	1461	n/a	n/a	0	0	0
4961922	WORD	wordpools/wasnorm_wordpool_576.txt	LTP385	ltpFR2	9	23	PIGEON	1065	n/a	n/a	0	0	0
4964704	WORD	wordpools/wasnorm_wordpool_576.txt	LTP385	ltpFR2	9	23	FLAG	573	n/a	n/a	0	0	0
4967221	WORD	wordpools/wasnorm_wordpool_576.txt	LTP385	ltpFR2	9	23	MISSILE	900	n/a	n/a	0	0	0
4969754	WORD	wordpools/wasnorm_wordpool_576.txt	LTP385	ltpFR2	9	23	JELLY	755	n/a	n/a	0	0	0
4972487	WORD	wordpools/wasnorm_wordpool_576.txt	LTP385	ltpFR2	9	23	SPOON	1357	n/a	n/a	0	0	0
4975004	WORD	wordpools/wasnorm_wordpool_576.txt	LTP385	ltpFR2	9	23	COMPASS	358	n/a	n/a	0	0	0
4977754	WORD	wordpools/wasnorm_wordpool_576.txt	LTP385	ltpFR2	9	23	THREAD	1460	n/a	n/a	0	0	0
4980570	WORD	wordpools/wasnorm_wordpool_576.txt	LTP385	ltpFR2	9	23	FLIPPER	580	n/a	n/a	0	0	0
4983104	WORD	wordpools/wasnorm_wordpool_576.txt	LTP385	ltpFR2	9	23	WAITRESS	1581	n/a	n/a	0	0	0
4985670	WORD	wordpools/wasnorm_wordpool_576.txt	LTP385	ltpFR2	9	23	MILDEW	893	n/a	n/a	0	0	0
4988287	WORD	wordpools/wasnorm_wordpool_576.txt	LTP385	ltpFR2	9	23	PARSLEY	1016	n/a	n/a	0	0	0
4990737	WORD	wordpools/wasnorm_wordpool_576.txt	LTP385	ltpFR2	9	23	NAPKIN	937	n/a	n/a	0	0	0
4993203	WORD	wordpools/wasnorm_wordpool_576.txt	LTP385	ltpFR2	9	23	PRINCESS	1125	n/a	n/a	0	0	0
4994820	START	n/a	LTP385	ltpFR2	9	n/a	n/a	n/a	34	n/a	n/a	n/a	n/a
4995888	DISTRACTOR	n/a	LTP385	ltpFR2	9	23	n/a	n/a	n/a	n/a	0	0	0
4995905	PROB	n/a	LTP385	ltpFR2	9	n/a	n/a	n/a	34	11	6	3	2
5000087	PROB	n/a	LTP385	ltpFR2	9	n/a	n/a	n/a	34	14	6	7	1
5002187	PROB	n/a	LTP385	ltpFR2	9	n/a	n/a	n/a	34	11	7	2	2
5005037	PROB	n/a	LTP385	ltpFR2	9	n/a	n/a	n/a	34	17	1	7	9
5010220	PROB	n/a	LTP385	ltpFR2	9	n/a	n/a	n/a	34	12	3	2	7
5012987	PROB	n/a	LTP385	ltpFR2	9	n/a	n/a	n/a	34	14	6	1	7
5018820	STOP	n/a	LTP385	ltpFR2	9	n/a	n/a	n/a	34	n/a	n/a	n/a	n/a
5020738	REC_START	n/a	LTP385	ltpFR2	9	23	n/a	n/a	n/a	n/a	0	0	0
5022500	REC_WORD	wordpools/wasnorm_wordpool_576.txt	LTP385	ltpFR2	9	23	NAPKIN	937	n/a	n/a	0	0	0
5023370	REC_WORD	wordpools/wasnorm_wordpool_576.txt	LTP385	ltpFR2	9	23	PARSLEY	1016	n/a	n/a	0	0	0
5025921	REC_WORD	wordpools/wasnorm_wordpool_576.txt	LTP385	ltpFR2	9	23	COMET	353	n/a	n/a	0	0	0
5026815	REC_WORD	wordpools/wasnorm_wordpool_576.txt	LTP385	ltpFR2	9	23	DASHBOARD	441	n/a	n/a	0	0	0
5242399	DISTRACTOR	n/a	LTP385	ltpFR2	9	24	n/a	n/a	n/a	n/a	0	0	0
5242400	START	n/a	LTP385	ltpFR2	9	n/a	n/a	n/a	35	n/a	n/a	n/a	n/a
5242416	PROB	n/a	LTP385	ltpFR2	9	n/a	n/a	n/a	35	10	3	6	1
5246283	PROB	n/a	LTP385	ltpFR2	9	n/a	n/a	n/a	35	10	8	1	1
5248216	PROB	n/a	LTP385	ltpFR2	9	n/a	n/a	n/a	35	17	1	9	7
5252599	PROB	n/a	LTP385	ltpFR2	9	n/a	n/a	n/a	35	13	3	3	7
5254933	PROB	n/a	LTP385	ltpFR2	9	n/a	n/a	n/a	35	16	8	6	2
5261549	PROB	n/a	LTP385	ltpFR2	9	n/a	n/a	n/a	35	7	3	1	3
5266400	STOP	n/a	LTP385	ltpFR2	9	n/a	n/a	n/a	35	n/a	n/a	n/a	n/a
5267366	WORD	wordpools/wasnorm_wordpool_576.txt	LTP385	ltpFR2	9	24	FRUIT	610	n/a	n/a	0	0	0
5269917	WORD	wordpools/wasnorm_wordpool_576.txt	LTP385	ltpFR2	9	24	WHISKERS	1605	n/a	n/a	0	0	0
5272632	WORD	wordpools/wasnorm_wordpool_576.txt	LTP385	ltpFR2	9	24	COUNTY	389	n/a	n/a	0	0	0
5275065	WORD	wordpools/wasnorm_wordpool_576.txt	LTP385	ltpFR2	9	24	CARROT	249	n/a	n/a	0	0	0
5277749	WORD	wordpools/wasnorm_wordpool_576.txt	LTP385	ltpFR2	9	24	GIRL	637	n/a	n/a	0	0	0
5280299	WORD	wordpools/wasnorm_wordpool_576.txt	LTP385	ltpFR2	9	24	FRIEND	606	n/a	n/a	0	0	0
5282765	WORD	wordpools/wasnorm_wordpool_576.txt	LTP385	ltpFR2	9	24	CUPBOARD	425	n/a	n/a	0	0	0
5285399	WORD	wordpools/wasnorm_wordpool_576.txt	LTP385	ltpFR2	9	24	SLIME	1327	n/a	n/a	0	0	0
5287965	WORD	wordpools/wasnorm_wordpool_576.txt	LTP385	ltpFR2	9	24	CROWN	415	n/a	n/a	0	0	0
5290432	WORD	wordpools/wasnorm_wordpool_576.txt	LTP385	ltpFR2	9	24	CANYON	235	n/a	n/a	0	0	0
5292883	WORD	wordpools/wasnorm_wordpool_576.txt	LTP385	ltpFR2	9	24	FUNGUS	614	n/a	n/a	0	0	0
5295398	WORD	wordpools/wasnorm_wordpool_576.txt	LTP385	ltpFR2	9	24	BACKBONE	66	n/a	n/a	0	0	0
5297848	WORD	wordpools/wasnorm_wordpool_576.txt	LTP385	ltpFR2	9	24	SIBLING	1301	n/a	n/a	0	0	0
5300665	WORD	wordpools/wasnorm_wordpool_576.txt	LTP385	ltpFR2	9	24	GLOBE	641	n/a	n/a	0	0	0
5303115	WORD	wordpools/wasnorm_wordpool_576.txt	LTP385	ltpFR2	9	24	TUTU	1524	n/a	n/a	0	0	0
5305883	WORD	wordpools/wasnorm_wordpool_576.txt	LTP385	ltpFR2	9	24	SPIDER	1351	n/a	n/a	0	0	0
5308665	WORD	wordpools/wasnorm_wordpool_576.txt	LTP385	ltpFR2	9	24	TERMITE	1451	n/a	n/a	0	0	0
5311382	WORD	wordpools/wasnorm_wordpool_576.txt	LTP385	ltpFR2	9	24	WORLD	1622	n/a	n/a	0	0	0
5313899	WORD	wordpools/wasnorm_wordpool_576.txt	LTP385	ltpFR2	9	24	QUEEN	1149	n/a	n/a	0	0	0
5316565	WORD	wordpools/wasnorm_wordpool_576.txt	LTP385	ltpFR2	9	24	SHELTER	1282	n/a	n/a	0	0	0
5319198	WORD	wordpools/wasnorm_wordpool_576.txt	LTP385	ltpFR2	9	24	PALACE	1006	n/a	n/a	0	0	0
5321831	WORD	wordpools/wasnorm_wordpool_576.txt	LTP385	ltpFR2	9	24	BELLY	119	n/a	n/a	0	0	0
5324381	WORD	wordpools/wasnorm_wordpool_576.txt	LTP385	ltpFR2	9	24	BODY	145	n/a	n/a	0	0	0
5326916	WORD	wordpools/wasnorm_wordpool_576.txt	LTP385	ltpFR2	9	24	ROBBER	1197	n/a	n/a	0	0	0
5328531	START	n/a	LTP385	ltpFR2	9	n/a	n/a	n/a	36	n/a	n/a	n/a	n/a
5329385	DISTRACTOR	n/a	LTP385	ltpFR2	9	24	n/a	n/a	n/a	n/a	0	0	0
5329398	PROB	n/a	LTP385	ltpFR2	9	n/a	n/a	n/a	36	17	6	9	2
5331998	PROB	n/a	LTP385	ltpFR2	9	n/a	n/a	n/a	36	23	5	9	9
5335114	PROB	n/a	LTP385	ltpFR2	9	n/a	n/a	n/a	36	16	9	1	6
5337915	PROB	n/a	LTP385	ltpFR2	9	n/a	n/a	n/a	36	11	1	8	2
5341331	PROB	n/a	LTP385	ltpFR2	9	n/a	n/a	n/a	36	17	6	5	6
5352530	STOP	n/a	LTP385	ltpFR2	9	n/a	n/a	n/a	36	n/a	n/a	n/a	n/a
5354498	REC_START	n/a	LTP385	ltpFR2	9	24	n/a	n/a	n/a	n/a	0	0	0
5355936	REC_WORD	wordpools/wasnorm_wordpool_576.txt	LTP385	ltpFR2	9	24	QUEEN	1149	n/a	n/a	0	0	0
5356980	REC_WORD	wordpools/wasnorm_wordpool_576.txt	LTP385	ltpFR2	9	24	SISTER	1312	n/a	n/a	0	0	0
5358188	REC_WORD	wordpools/wasnorm_wordpool_576.txt	LTP385	ltpFR2	9	24	BACKBONE	66	n/a	n/a	0	0	0
5359449	REC_WORD	wordpools/wasnorm_wordpool_576.txt	LTP385	ltpFR2	9	24	GLOBE	641	n/a	n/a	0	0	0
5433697	SESS_END	n/a	LTP385	ltpFR2	9	24	n/a	n/a	n/a	n/a	0	0	0
