mstime	trial_type	stim_file	subject	experiment	session	trial	task	item_name	item_num	recog_resp	recog_conf	resp	color_r	color_g	color_b	case	font
0	SESS_START	n/a	LTP273	ltpFR	3	n/a	n/a	n/a	n/a	1	4	n/a	n/a	n/a	n/a	n/a	n/a
105008	WORD	wordpools/wasnorm_wordpool_less_exclusions.txt	LTP273	ltpFR	3	1	0	CONCRETE	361	1	n/a	1	0.422607421875	0.5869140625	0	upper	zerothre.ttf
109119	WORD	wordpools/wasnorm_wordpool_less_exclusions.txt	LTP273	ltpFR	3	1	0	SWING	1421	n/a	n/a	1	0.422607421875	0.5869140625	0	upper	zerothre.ttf
112947	WORD	wordpools/wasnorm_wordpool_less_exclusions.txt	LTP273	ltpFR	3	1	0	KEY	773	n/a	n/a	0	0.422607421875	0.5869140625	0	upper	zerothre.ttf
116991	WORD	wordpools/wasnorm_wordpool_less_exclusions.txt	LTP273	ltpFR	3	1	0	GRILL	661	n/a	n/a	1	0.422607421875	0.5869140625	0	upper	zerothre.ttf
120901	WORD	wordpools/wasnorm_wordpool_less_exclusions.txt	LTP273	ltpFR	3	1	0	HEN	703	n/a	n/a	1	0.422607421875	0.5869140625	0	upper	zerothre.ttf
124845	WORD	wordpools/wasnorm_wordpool_less_exclusions.txt	LTP273	ltpFR	3	1	1	TRIBE	1505	n/a	n/a	1	0.57763671875	0.412841796875	1	lower	amplitud.ttf
129023	WORD	wordpools/wasnorm_wordpool_less_exclusions.txt	LTP273	ltpFR	3	1	1	CONTRACT	368	n/a	n/a	0	0.57763671875	0.412841796875	1	lower	amplitud.ttf
133033	WORD	wordpools/wasnorm_wordpool_less_exclusions.txt	LTP273	ltpFR	3	1	1	FIG	563	n/a	n/a	1	0.57763671875	0.412841796875	1	lower	amplitud.ttf
136961	WORD	wordpools/wasnorm_wordpool_less_exclusions.txt	LTP273	ltpFR	3	1	1	SEED	1266	n/a	n/a	0	0.57763671875	0.412841796875	1	lower	amplitud.ttf
141088	WORD	wordpools/wasnorm_wordpool_less_exclusions.txt	LTP273	ltpFR	3	1	0	GRADUATE	653	n/a	n/a	1	0.422607421875	0.5869140625	0	upper	zerothre.ttf
145298	WORD	wordpools/wasnorm_wordpool_less_exclusions.txt	LTP273	ltpFR	3	1	0	CELLAR	267	n/a	n/a	1	0.422607421875	0.5869140625	0	upper	zerothre.ttf
149209	WORD	wordpools/wasnorm_wordpool_less_exclusions.txt	LTP273	ltpFR	3	1	0	TROUT	1511	n/a	n/a	0	0.422607421875	0.5869140625	0	upper	zerothre.ttf
153103	WORD	wordpools/wasnorm_wordpool_less_exclusions.txt	LTP273	ltpFR	3	1	1	SHARK	1275	n/a	n/a	1	0.57763671875	0.412841796875	1	lower	amplitud.ttf
157197	WORD	wordpools/wasnorm_wordpool_less_exclusions.txt	LTP273	ltpFR	3	1	1	STONE	1385	n/a	n/a	1	0.57763671875	0.412841796875	1	lower	amplitud.ttf
161225	WORD	wordpools/wasnorm_wordpool_less_exclusions.txt	LTP273	ltpFR	3	1	1	TREE	1502	n/a	n/a	1	0.57763671875	0.412841796875	1	lower	amplitud.ttf
165185	WORD	wordpools/wasnorm_wordpool_less_exclusions.txt	LTP273	ltpFR	3	1	1	PHILOSOPHER	1054	n/a	n/a	1	0.57763671875	0.412841796875	1	lower	amplitud.ttf
171077	REC_START	n/a	LTP273	ltpFR	3	1	n/a	n/a	n/a	n/a	n/a	n/a	n/a	n/a	n/a	n/a	n/a
172749	REC_WORD	wordpools/wasnorm_wordpool_less_exclusions.txt	LTP273	ltpFR	3	1	0	CONCRETE	361	n/a	n/a	1	n/a	n/a	n/a	n/a	n/a
173794	REC_WORD	wordpools/wasnorm_wordpool_less_exclusions.txt	LTP273	ltpFR	3	1	0	CELLAR	267	n/a	n/a	1	n/a	n/a	n/a	n/a	n/a
174807	REC_WORD	wordpools/wasnorm_wordpool_less_exclusions.txt	LTP273	ltpFR	3	1	1	STONE	1385	n/a	n/a	1	n/a	n/a	n/a	n/a	n/a
176020	REC_WORD	wordpools/wasnorm_wordpool_less_exclusions.txt	LTP273	ltpFR	3	1	1	TREE	1502	n/a	n/a	1	n/a	n/a	n/a	n/a	n/a
177083	REC_WORD	wordpools/wasnorm_wordpool_less_exclusions.txt	LTP273	ltpFR	3	1	1	PHILOSOPHER	1054	n/a	n/a	1	n/a	n/a	n/a	n/a	n/a
178340	REC_WORD	wordpools/wasnorm_wordpool_less_exclusions.txt	LTP273	ltpFR	3	1	1	SHARK	1275	n/a	n/a	1	n/a	n/a	n/a	n/a	n/a
179470	REC_WORD	wordpools/wasnorm_wordpool_less_exclusions.txt	LTP273	ltpFR	3	1	1	FIG	563	n/a	n/a	1	n/a	n/a	n/a	n/a	n/a
180720	REC_WORD	wordpools/wasnorm_wordpool_less_exclusions.txt	LTP273	ltpFR	3	1	0	KEY	773	n/a	n/a	0	n/a	n/a	n/a	n/a	n/a
210771	REC_WORD	wordpools/wasnorm_wordpool_less_exclusions.txt	LTP273	ltpFR	3	1	0	TROUT	1511	n/a	n/a	0	n/a	n/a	n/a	n/a	n/a
254901	WORD	wordpools/wasnorm_wordpool_less_exclusions.txt	LTP273	ltpFR	3	2	1	COP	376	n/a	n/a	1	0.57763671875	0.412841796875	1	lower	amplitud.ttf
258929	WORD	wordpools/wasnorm_wordpool_less_exclusions.txt	LTP273	ltpFR	3	2	1	MAMMAL	861	n/a	n/a	1	0.57763671875	0.412841796875	1	lower	amplitud.ttf
262790	WORD	wordpools/wasnorm_wordpool_less_exclusions.txt	LTP273	ltpFR	3	2	0	SAXOPHONE	1240	n/a	n/a	1	0.422607421875	0.5869140625	0	upper	zerothre.ttf
266800	WORD	wordpools/wasnorm_wordpool_less_exclusions.txt	LTP273	ltpFR	3	2	0	OBOE	969	n/a	n/a	0	0.422607421875	0.5869140625	0	upper	zerothre.ttf
270744	WORD	wordpools/wasnorm_wordpool_less_exclusions.txt	LTP273	ltpFR	3	2	0	FENCE	560	n/a	n/a	1	0.422607421875	0.5869140625	0	upper	zerothre.ttf
274955	WORD	wordpools/wasnorm_wordpool_less_exclusions.txt	LTP273	ltpFR	3	2	0	DOOR	486	n/a	n/a	1	0.422607421875	0.5869140625	0	upper	zerothre.ttf
278932	WORD	wordpools/wasnorm_wordpool_less_exclusions.txt	LTP273	ltpFR	3	2	0	GUARD	667	n/a	n/a	1	0.422607421875	0.5869140625	0	upper	zerothre.ttf
282876	WORD	wordpools/wasnorm_wordpool_less_exclusions.txt	LTP273	ltpFR	3	2	0	APE	31	n/a	n/a	1	0.422607421875	0.5869140625	0	upper	zerothre.ttf
286737	WORD	wordpools/wasnorm_wordpool_less_exclusions.txt	LTP273	ltpFR	3	2	1	SHEARS	1276	n/a	n/a	0	0.57763671875	0.412841796875	1	lower	amplitud.ttf
290881	WORD	wordpools/wasnorm_wordpool_less_exclusions.txt	LTP273	ltpFR	3	2	1	COMPUTER	359	n/a	n/a	0	0.57763671875	0.412841796875	1	lower	amplitud.ttf
295041	WORD	wordpools/wasnorm_wordpool_less_exclusions.txt	LTP273	ltpFR	3	2	1	PEAR	1033	n/a	n/a	1	0.57763671875	0.412841796875	1	lower	amplitud.ttf
299085	WORD	wordpools/wasnorm_wordpool_less_exclusions.txt	LTP273	ltpFR	3	2	0	PASTRY	1022	n/a	n/a	0	0.422607421875	0.5869140625	0	upper	zerothre.ttf
303212	WORD	wordpools/wasnorm_wordpool_less_exclusions.txt	LTP273	ltpFR	3	2	0	DISC	473	n/a	n/a	0	0.422607421875	0.5869140625	0	upper	zerothre.ttf
307107	WORD	wordpools/wasnorm_wordpool_less_exclusions.txt	LTP273	ltpFR	3	2	1	BEGGAR	117	n/a	n/a	1	0.57763671875	0.412841796875	1	lower	amplitud.ttf
311217	WORD	wordpools/wasnorm_wordpool_less_exclusions.txt	LTP273	ltpFR	3	2	1	SUPERMARKET	1409	n/a	n/a	0	0.57763671875	0.412841796875	1	lower	amplitud.ttf
315228	WORD	wordpools/wasnorm_wordpool_less_exclusions.txt	LTP273	ltpFR	3	2	1	SNEAKER	1334	n/a	n/a	0	0.57763671875	0.412841796875	1	lower	amplitud.ttf
321186	REC_START	n/a	LTP273	ltpFR	3	2	n/a	n/a	n/a	n/a	n/a	n/a	n/a	n/a	n/a	n/a	n/a
322811	REC_WORD	wordpools/wasnorm_wordpool_less_exclusions.txt	LTP273	ltpFR	3	2	1	SUPERMARKET	1409	n/a	n/a	0	n/a	n/a	n/a	n/a	n/a
323945	REC_WORD	wordpools/wasnorm_wordpool_less_exclusions.txt	LTP273	ltpFR	3	2	1	SNEAKER	1334	n/a	n/a	0	n/a	n/a	n/a	n/a	n/a
325186	REC_WORD	wordpools/wasnorm_wordpool_less_exclusions.txt	LTP273	ltpFR	3	2	1	BEGGAR	117	n/a	n/a	1	n/a	n/a	n/a	n/a	n/a
326700	REC_WORD	wordpools/wasnorm_wordpool_less_exclusions.txt	LTP273	ltpFR	3	2	0	OBOE	969	n/a	n/a	0	n/a	n/a	n/a	n/a	n/a
335008	REC_WORD	wordpools/wasnorm_wordpool_less_exclusions.txt	LTP273	ltpFR	3	2	0	APE	31	n/a	n/a	1	n/a	n/a	n/a	n/a	n/a
343553	REC_WORD	wordpools/wasnorm_wordpool_less_exclusions.txt	LTP273	ltpFR	3	2	0	SAXOPHONE	1240	n/a	n/a	1	n/a	n/a	n/a	n/a	n/a
414646	WORD	wordpools/wasnorm_wordpool_less_exclusions.txt	LTP273	ltpFR	3	3	-1	OLIVE	975	n/a	n/a	-1	1.0	1.0	1	upper	Verdana.ttf
418757	WORD	wordpools/wasnorm_wordpool_less_exclusions.txt	LTP273	ltpFR	3	3	-1	TEA	1439	n/a	n/a	-1	1.0	1.0	1	upper	Verdana.ttf
422684	WORD	wordpools/wasnorm_wordpool_less_exclusions.txt	LTP273	ltpFR	3	3	-1	BUILDER	190	n/a	n/a	-1	1.0	1.0	1	upper	Verdana.ttf
426861	WORD	wordpools/wasnorm_wordpool_less_exclusions.txt	LTP273	ltpFR	3	3	-1	FAUCET	555	n/a	n/a	-1	1.0	1.0	1	upper	Verdana.ttf
430705	WORD	wordpools/wasnorm_wordpool_less_exclusions.txt	LTP273	ltpFR	3	3	-1	GIRL	637	n/a	n/a	-1	1.0	1.0	1	upper	Verdana.ttf
434799	WORD	wordpools/wasnorm_wordpool_less_exclusions.txt	LTP273	ltpFR	3	3	-1	AWARD	63	n/a	n/a	-1	1.0	1.0	1	upper	Verdana.ttf
438893	WORD	wordpools/wasnorm_wordpool_less_exclusions.txt	LTP273	ltpFR	3	3	-1	ARCHITECT	36	n/a	n/a	-1	1.0	1.0	1	upper	Verdana.ttf
442771	WORD	wordpools/wasnorm_wordpool_less_exclusions.txt	LTP273	ltpFR	3	3	-1	CORAL	378	n/a	n/a	-1	1.0	1.0	1	upper	Verdana.ttf
446798	WORD	wordpools/wasnorm_wordpool_less_exclusions.txt	LTP273	ltpFR	3	3	-1	SQUID	1361	n/a	n/a	-1	1.0	1.0	1	upper	Verdana.ttf
450892	WORD	wordpools/wasnorm_wordpool_less_exclusions.txt	LTP273	ltpFR	3	3	-1	CANAL	226	n/a	n/a	-1	1.0	1.0	1	upper	Verdana.ttf
454886	WORD	wordpools/wasnorm_wordpool_less_exclusions.txt	LTP273	ltpFR	3	3	-1	SNORKEL	1336	n/a	n/a	-1	1.0	1.0	1	upper	Verdana.ttf
458714	WORD	wordpools/wasnorm_wordpool_less_exclusions.txt	LTP273	ltpFR	3	3	-1	WAVE	1596	n/a	n/a	-1	1.0	1.0	1	upper	Verdana.ttf
462674	WORD	wordpools/wasnorm_wordpool_less_exclusions.txt	LTP273	ltpFR	3	3	-1	FIN	566	n/a	n/a	-1	1.0	1.0	1	upper	Verdana.ttf
466503	WORD	wordpools/wasnorm_wordpool_less_exclusions.txt	LTP273	ltpFR	3	3	-1	ANTENNA	28	n/a	n/a	-1	1.0	1.0	1	upper	Verdana.ttf
470596	WORD	wordpools/wasnorm_wordpool_less_exclusions.txt	LTP273	ltpFR	3	3	-1	JEEP	753	n/a	n/a	-1	1.0	1.0	1	upper	Verdana.ttf
474723	WORD	wordpools/wasnorm_wordpool_less_exclusions.txt	LTP273	ltpFR	3	3	-1	BUS	201	n/a	n/a	-1	1.0	1.0	1	upper	Verdana.ttf
480416	REC_START	n/a	LTP273	ltpFR	3	3	n/a	n/a	n/a	n/a	n/a	n/a	n/a	n/a	n/a	n/a	n/a
486234	REC_WORD	wordpools/wasnorm_wordpool_less_exclusions.txt	LTP273	ltpFR	3	3	-1	BUILDER	190	n/a	n/a	-1	n/a	n/a	n/a	n/a	n/a
488168	REC_WORD	wordpools/wasnorm_wordpool_less_exclusions.txt	LTP273	ltpFR	3	3	-1	TEA	1439	n/a	n/a	-1	n/a	n/a	n/a	n/a	n/a
489823	REC_WORD	wordpools/wasnorm_wordpool_less_exclusions.txt	LTP273	ltpFR	3	3	-1	FAUCET	555	n/a	n/a	-1	n/a	n/a	n/a	n/a	n/a
491645	REC_WORD	wordpools/wasnorm_wordpool_less_exclusions.txt	LTP273	ltpFR	3	3	-1	GIRL	637	n/a	n/a	-1	n/a	n/a	n/a	n/a	n/a
493246	REC_WORD	wordpools/wasnorm_wordpool_less_exclusions.txt	LTP273	ltpFR	3	3	-1	ARCHITECT	36	n/a	n/a	-1	n/a	n/a	n/a	n/a	n/a
494596	REC_WORD	wordpools/wasnorm_wordpool_less_exclusions.txt	LTP273	ltpFR	3	3	-1	AWARD	63	n/a	n/a	-1	n/a	n/a	n/a	n/a	n/a
500015	REC_WORD	wordpools/wasnorm_wordpool_less_exclusions.txt	LTP273	ltpFR	3	3	-1	SNORKEL	1336	n/a	n/a	-1	n/a	n/a	n/a	n/a	n/a
501484	REC_WORD	wordpools/wasnorm_wordpool_less_exclusions.txt	LTP273	ltpFR	3	3	-1	SQUID	1361	n/a	n/a	-1	n/a	n/a	n/a	n/a	n/a
503116	REC_WORD	wordpools/wasnorm_wordpool_less_exclusions.txt	LTP273	ltpFR	3	3	-1	CORAL	378	n/a	n/a	-1	n/a	n/a	n/a	n/a	n/a
504524	REC_WORD	wordpools/wasnorm_wordpool_less_exclusions.txt	LTP273	ltpFR	3	3	-1	FIN	566	n/a	n/a	-1	n/a	n/a	n/a	n/a	n/a
506317	REC_WORD	wordpools/wasnorm_wordpool_less_exclusions.txt	LTP273	ltpFR	3	3	-1	WAVE	1596	n/a	n/a	-1	n/a	n/a	n/a	n/a	n/a
507785	REC_WORD	wordpools/wasnorm_wordpool_less_exclusions.txt	LTP273	ltpFR	3	3	-1	ANTENNA	28	n/a	n/a	-1	n/a	n/a	n/a	n/a	n/a
510906	REC_WORD	wordpools/wasnorm_wordpool_less_exclusions.txt	LTP273	ltpFR	3	3	-1	BUS	201	n/a	n/a	-1	n/a	n/a	n/a	n/a	n/a
512562	REC_WORD	wordpools/wasnorm_wordpool_less_exclusions.txt	LTP273	ltpFR	3	3	-1	JEEP	753	n/a	n/a	-1	n/a	n/a	n/a	n/a	n/a
535368	REC_WORD	wordpools/wasnorm_wordpool_less_exclusions.txt	LTP273	ltpFR	3	3	-1	CANAL	226	n/a	n/a	-1	n/a	n/a	n/a	n/a	n/a
559713	WORD	wordpools/wasnorm_wordpool_less_exclusions.txt	LTP273	ltpFR	3	4	0	RAILROAD	1162	n/a	n/a	1	0.422607421875	0.5869140625	0	upper	zerothre.ttf
563557	WORD	wordpools/wasnorm_wordpool_less_exclusions.txt	LTP273	ltpFR	3	4	0	RAG	1160	n/a	n/a	0	0.422607421875	0.5869140625	0	upper	zerothre.ttf
567419	WORD	wordpools/wasnorm_wordpool_less_exclusions.txt	LTP273	ltpFR	3	4	0	VEIN	1554	n/a	n/a	0	0.422607421875	0.5869140625	0	upper	zerothre.ttf
571446	WORD	wordpools/wasnorm_wordpool_less_exclusions.txt	LTP273	ltpFR	3	4	0	LODGE	839	n/a	n/a	1	0.422607421875	0.5869140625	0	upper	zerothre.ttf
575539	WORD	wordpools/wasnorm_wordpool_less_exclusions.txt	LTP273	ltpFR	3	4	0	MONEY	908	n/a	n/a	0	0.422607421875	0.5869140625	0	upper	zerothre.ttf
579716	WORD	wordpools/wasnorm_wordpool_less_exclusions.txt	LTP273	ltpFR	3	4	0	BRIDGE	174	n/a	n/a	1	0.422607421875	0.5869140625	0	upper	zerothre.ttf
583577	WORD	wordpools/wasnorm_wordpool_less_exclusions.txt	LTP273	ltpFR	3	4	0	SPONGE	1355	n/a	n/a	0	0.422607421875	0.5869140625	0	upper	zerothre.ttf
587604	WORD	wordpools/wasnorm_wordpool_less_exclusions.txt	LTP273	ltpFR	3	4	0	GROCERIES	663	n/a	n/a	1	0.422607421875	0.5869140625	0	upper	zerothre.ttf
591698	WORD	wordpools/wasnorm_wordpool_less_exclusions.txt	LTP273	ltpFR	3	4	0	ROBE	1198	n/a	n/a	0	0.422607421875	0.5869140625	0	upper	zerothre.ttf
595692	WORD	wordpools/wasnorm_wordpool_less_exclusions.txt	LTP273	ltpFR	3	4	0	WHISTLE	1606	n/a	n/a	0	0.422607421875	0.5869140625	0	upper	zerothre.ttf
599703	WORD	wordpools/wasnorm_wordpool_less_exclusions.txt	LTP273	ltpFR	3	4	0	VENT	1556	n/a	n/a	1	0.422607421875	0.5869140625	0	upper	zerothre.ttf
603814	WORD	wordpools/wasnorm_wordpool_less_exclusions.txt	LTP273	ltpFR	3	4	0	BOUQUET	157	n/a	n/a	1	0.422607421875	0.5869140625	0	upper	zerothre.ttf
607791	WORD	wordpools/wasnorm_wordpool_less_exclusions.txt	LTP273	ltpFR	3	4	0	THORN	1459	n/a	n/a	0	0.422607421875	0.5869140625	0	upper	zerothre.ttf
611935	WORD	wordpools/wasnorm_wordpool_less_exclusions.txt	LTP273	ltpFR	3	4	0	SCISSORS	1250	n/a	n/a	0	0.422607421875	0.5869140625	0	upper	zerothre.ttf
616079	WORD	wordpools/wasnorm_wordpool_less_exclusions.txt	LTP273	ltpFR	3	4	0	SCALPEL	1243	n/a	n/a	0	0.422607421875	0.5869140625	0	upper	zerothre.ttf
620056	WORD	wordpools/wasnorm_wordpool_less_exclusions.txt	LTP273	ltpFR	3	4	0	CHECK	284	n/a	n/a	0	0.422607421875	0.5869140625	0	upper	zerothre.ttf
625715	REC_START	n/a	LTP273	ltpFR	3	4	n/a	n/a	n/a	n/a	n/a	n/a	n/a	n/a	n/a	n/a	n/a
627495	REC_WORD	wordpools/wasnorm_wordpool_less_exclusions.txt	LTP273	ltpFR	3	4	0	THORN	1459	n/a	n/a	0	n/a	n/a	n/a	n/a	n/a
628466	REC_WORD	wordpools/wasnorm_wordpool_less_exclusions.txt	LTP273	ltpFR	3	4	0	BOUQUET	157	n/a	n/a	1	n/a	n/a	n/a	n/a	n/a
629182	REC_WORD	wordpools/wasnorm_wordpool_less_exclusions.txt	LTP273	ltpFR	3	4	0	SCALPEL	1243	n/a	n/a	0	n/a	n/a	n/a	n/a	n/a
630665	REC_WORD	wordpools/wasnorm_wordpool_less_exclusions.txt	LTP273	ltpFR	3	4	0	CHECK	284	n/a	n/a	0	n/a	n/a	n/a	n/a	n/a
633489	REC_WORD	wordpools/wasnorm_wordpool_less_exclusions.txt	LTP273	ltpFR	3	4	0	ROBE	1198	n/a	n/a	0	n/a	n/a	n/a	n/a	n/a
639218	REC_WORD	wordpools/wasnorm_wordpool_less_exclusions.txt	LTP273	ltpFR	3	4	0	LODGE	839	n/a	n/a	1	n/a	n/a	n/a	n/a	n/a
645359	REC_WORD	wordpools/wasnorm_wordpool_less_exclusions.txt	LTP273	ltpFR	3	4	0	BRIDGE	174	n/a	n/a	1	n/a	n/a	n/a	n/a	n/a
663492	REC_WORD	wordpools/wasnorm_wordpool_less_exclusions.txt	LTP273	ltpFR	3	4	0	GROCERIES	663	n/a	n/a	1	n/a	n/a	n/a	n/a	n/a
720955	WORD	wordpools/wasnorm_wordpool_less_exclusions.txt	LTP273	ltpFR	3	5	-1	CABBAGE	210	n/a	n/a	-1	1.0	1.0	1	upper	Verdana.ttf
725082	WORD	wordpools/wasnorm_wordpool_less_exclusions.txt	LTP273	ltpFR	3	5	-1	SCRIBBLE	1256	n/a	n/a	-1	1.0	1.0	1	upper	Verdana.ttf
728910	WORD	wordpools/wasnorm_wordpool_less_exclusions.txt	LTP273	ltpFR	3	5	-1	CAPITAL	238	n/a	n/a	-1	1.0	1.0	1	upper	Verdana.ttf
733021	WORD	wordpools/wasnorm_wordpool_less_exclusions.txt	LTP273	ltpFR	3	5	-1	BUTTERFLY	206	n/a	n/a	-1	1.0	1.0	1	upper	Verdana.ttf
736965	WORD	wordpools/wasnorm_wordpool_less_exclusions.txt	LTP273	ltpFR	3	5	-1	DIRECTOR	471	n/a	n/a	-1	1.0	1.0	1	upper	Verdana.ttf
740826	WORD	wordpools/wasnorm_wordpool_less_exclusions.txt	LTP273	ltpFR	3	5	-1	COLT	349	n/a	n/a	-1	1.0	1.0	1	upper	Verdana.ttf
744886	WORD	wordpools/wasnorm_wordpool_less_exclusions.txt	LTP273	ltpFR	3	5	-1	OATS	968	n/a	n/a	-1	1.0	1.0	1	upper	Verdana.ttf
748830	WORD	wordpools/wasnorm_wordpool_less_exclusions.txt	LTP273	ltpFR	3	5	-1	PERSONNEL	1053	n/a	n/a	-1	1.0	1.0	1	upper	Verdana.ttf
752874	WORD	wordpools/wasnorm_wordpool_less_exclusions.txt	LTP273	ltpFR	3	5	-1	CEILING	265	n/a	n/a	-1	1.0	1.0	1	upper	Verdana.ttf
756785	WORD	wordpools/wasnorm_wordpool_less_exclusions.txt	LTP273	ltpFR	3	5	-1	PISTON	1076	n/a	n/a	-1	1.0	1.0	1	upper	Verdana.ttf
760629	WORD	wordpools/wasnorm_wordpool_less_exclusions.txt	LTP273	ltpFR	3	5	-1	SIGN	1305	n/a	n/a	-1	1.0	1.0	1	upper	Verdana.ttf
764458	WORD	wordpools/wasnorm_wordpool_less_exclusions.txt	LTP273	ltpFR	3	5	-1	TOWN	1491	n/a	n/a	-1	1.0	1.0	1	upper	Verdana.ttf
768485	WORD	wordpools/wasnorm_wordpool_less_exclusions.txt	LTP273	ltpFR	3	5	-1	EMERALD	528	n/a	n/a	-1	1.0	1.0	1	upper	Verdana.ttf
772513	WORD	wordpools/wasnorm_wordpool_less_exclusions.txt	LTP273	ltpFR	3	5	-1	WHEAT	1602	n/a	n/a	-1	1.0	1.0	1	upper	Verdana.ttf
776622	WORD	wordpools/wasnorm_wordpool_less_exclusions.txt	LTP273	ltpFR	3	5	-1	ASSISTANT	48	n/a	n/a	-1	1.0	1.0	1	upper	Verdana.ttf
780666	WORD	wordpools/wasnorm_wordpool_less_exclusions.txt	LTP273	ltpFR	3	5	-1	WORKER	1621	n/a	n/a	-1	1.0	1.0	1	upper	Verdana.ttf
786724	REC_START	n/a	LTP273	ltpFR	3	5	n/a	n/a	n/a	n/a	n/a	n/a	n/a	n/a	n/a	n/a	n/a
788370	REC_WORD	wordpools/wasnorm_wordpool_less_exclusions.txt	LTP273	ltpFR	3	5	-1	ASSISTANT	48	n/a	n/a	-1	n/a	n/a	n/a	n/a	n/a
789413	REC_WORD	wordpools/wasnorm_wordpool_less_exclusions.txt	LTP273	ltpFR	3	5	-1	WORKER	1621	n/a	n/a	-1	n/a	n/a	n/a	n/a	n/a
790250	REC_WORD	wordpools/wasnorm_wordpool_less_exclusions.txt	LTP273	ltpFR	3	5	-1	WHEAT	1602	n/a	n/a	-1	n/a	n/a	n/a	n/a	n/a
791128	REC_WORD	wordpools/wasnorm_wordpool_less_exclusions.txt	LTP273	ltpFR	3	5	-1	EMERALD	528	n/a	n/a	-1	n/a	n/a	n/a	n/a	n/a
791924	REC_WORD	wordpools/wasnorm_wordpool_less_exclusions.txt	LTP273	ltpFR	3	5	-1	PERSONNEL	1053	n/a	n/a	-1	n/a	n/a	n/a	n/a	n/a
796212	REC_WORD	wordpools/wasnorm_wordpool_less_exclusions.txt	LTP273	ltpFR	3	5	-1	CABBAGE	210	n/a	n/a	-1	n/a	n/a	n/a	n/a	n/a
798609	REC_WORD	wordpools/wasnorm_wordpool_less_exclusions.txt	LTP273	ltpFR	3	5	-1	BUTTERFLY	206	n/a	n/a	-1	n/a	n/a	n/a	n/a	n/a
801677	REC_WORD	wordpools/wasnorm_wordpool_less_exclusions.txt	LTP273	ltpFR	3	5	-1	CAPITAL	238	n/a	n/a	-1	n/a	n/a	n/a	n/a	n/a
807783	REC_WORD	wordpools/wasnorm_wordpool_less_exclusions.txt	LTP273	ltpFR	3	5	-1	SIGN	1305	n/a	n/a	-1	n/a	n/a	n/a	n/a	n/a
880650	WORD	wordpools/wasnorm_wordpool_less_exclusions.txt	LTP273	ltpFR	3	6	1	BLUEJAY	141	n/a	n/a	n/a	0.57763671875	0.412841796875	1	lower	amplitud.ttf
883679	SLOW_MSG	n/a	LTP273	ltpFR	3	6	n/a	n/a	n/a	n/a	n/a	n/a	n/a	n/a	n/a	n/a	n/a
886042	WORD	wordpools/wasnorm_wordpool_less_exclusions.txt	LTP273	ltpFR	3	6	1	HANDBAG	684	n/a	n/a	0	0.57763671875	0.412841796875	1	lower	amplitud.ttf
890252	WORD	wordpools/wasnorm_wordpool_less_exclusions.txt	LTP273	ltpFR	3	6	1	ANT	25	n/a	n/a	1	0.57763671875	0.412841796875	1	lower	amplitud.ttf
894163	WORD	wordpools/wasnorm_wordpool_less_exclusions.txt	LTP273	ltpFR	3	6	1	FLEA	577	n/a	n/a	1	0.57763671875	0.412841796875	1	lower	amplitud.ttf
898191	WORD	wordpools/wasnorm_wordpool_less_exclusions.txt	LTP273	ltpFR	3	6	1	MOWER	928	n/a	n/a	0	0.57763671875	0.412841796875	1	lower	amplitud.ttf
902218	WORD	wordpools/wasnorm_wordpool_less_exclusions.txt	LTP273	ltpFR	3	6	1	WEED	1599	n/a	n/a	1	0.57763671875	0.412841796875	1	lower	amplitud.ttf
906162	WORD	wordpools/wasnorm_wordpool_less_exclusions.txt	LTP273	ltpFR	3	6	0	SUGAR	1401	n/a	n/a	0	0.422607421875	0.5869140625	0	upper	zerothre.ttf
910139	WORD	wordpools/wasnorm_wordpool_less_exclusions.txt	LTP273	ltpFR	3	6	0	MARSH	874	n/a	n/a	0	0.422607421875	0.5869140625	0	upper	zerothre.ttf
914134	WORD	wordpools/wasnorm_wordpool_less_exclusions.txt	LTP273	ltpFR	3	6	0	TREAD	1499	n/a	n/a	0	0.422607421875	0.5869140625	0	upper	zerothre.ttf
917961	WORD	wordpools/wasnorm_wordpool_less_exclusions.txt	LTP273	ltpFR	3	6	0	CARD	243	n/a	n/a	0	0.422607421875	0.5869140625	0	upper	zerothre.ttf
921922	WORD	wordpools/wasnorm_wordpool_less_exclusions.txt	LTP273	ltpFR	3	6	0	MOUSE	925	n/a	n/a	0	0.422607421875	0.5869140625	0	upper	zerothre.ttf
926032	WORD	wordpools/wasnorm_wordpool_less_exclusions.txt	LTP273	ltpFR	3	6	0	POSSUM	1112	n/a	n/a	1	0.422607421875	0.5869140625	0	upper	zerothre.ttf
930243	WORD	wordpools/wasnorm_wordpool_less_exclusions.txt	LTP273	ltpFR	3	6	1	BRIEFCASE	175	n/a	n/a	0	0.57763671875	0.412841796875	1	lower	amplitud.ttf
934370	WORD	wordpools/wasnorm_wordpool_less_exclusions.txt	LTP273	ltpFR	3	6	1	PELICAN	1039	n/a	n/a	1	0.57763671875	0.412841796875	1	lower	amplitud.ttf
938564	WORD	wordpools/wasnorm_wordpool_less_exclusions.txt	LTP273	ltpFR	3	6	0	GYMNAST	675	n/a	n/a	1	0.422607421875	0.5869140625	0	upper	zerothre.ttf
942442	WORD	wordpools/wasnorm_wordpool_less_exclusions.txt	LTP273	ltpFR	3	6	0	ALLIGATOR	16	n/a	n/a	0	0.422607421875	0.5869140625	0	upper	zerothre.ttf
948467	REC_START	n/a	LTP273	ltpFR	3	6	n/a	n/a	n/a	n/a	n/a	n/a	n/a	n/a	n/a	n/a	n/a
949254	REC_WORD	wordpools/wasnorm_wordpool_less_exclusions.txt	LTP273	ltpFR	3	6	0	GYMNAST	675	n/a	n/a	1	n/a	n/a	n/a	n/a	n/a
950124	REC_WORD	wordpools/wasnorm_wordpool_less_exclusions.txt	LTP273	ltpFR	3	6	0	ALLIGATOR	16	n/a	n/a	0	n/a	n/a	n/a	n/a	n/a
952686	REC_WORD	wordpools/wasnorm_wordpool_less_exclusions.txt	LTP273	ltpFR	3	6	1	BLUEJAY	141	n/a	n/a	n/a	n/a	n/a	n/a	n/a	n/a
953811	REC_WORD	wordpools/wasnorm_wordpool_less_exclusions.txt	LTP273	ltpFR	3	6	1	ANT	25	n/a	n/a	1	n/a	n/a	n/a	n/a	n/a
955313	REC_WORD	wordpools/wasnorm_wordpool_less_exclusions.txt	LTP273	ltpFR	3	6	1	FLEA	577	n/a	n/a	1	n/a	n/a	n/a	n/a	n/a
957290	REC_WORD	wordpools/wasnorm_wordpool_less_exclusions.txt	LTP273	ltpFR	3	6	1	PELICAN	1039	n/a	n/a	1	n/a	n/a	n/a	n/a	n/a
973837	REC_WORD	wordpools/wasnorm_wordpool_less_exclusions.txt	LTP273	ltpFR	3	6	1	BRIEFCASE	175	n/a	n/a	0	n/a	n/a	n/a	n/a	n/a
975444	REC_WORD	wordpools/wasnorm_wordpool_less_exclusions.txt	LTP273	ltpFR	3	6	1	MOWER	928	n/a	n/a	0	n/a	n/a	n/a	n/a	n/a
995525	REC_WORD	wordpools/wasnorm_wordpool_less_exclusions.txt	LTP273	ltpFR	3	6	0	TREAD	1499	n/a	n/a	0	n/a	n/a	n/a	n/a	n/a
997084	REC_WORD	wordpools/wasnorm_wordpool_less_exclusions.txt	LTP273	ltpFR	3	6	0	CARD	243	n/a	n/a	0	n/a	n/a	n/a	n/a	n/a
1058884	WORD	wordpools/wasnorm_wordpool_less_exclusions.txt	LTP273	ltpFR	3	7	1	DIAPER	459	n/a	n/a	0	0.57763671875	0.412841796875	1	lower	amplitud.ttf
1062878	WORD	wordpools/wasnorm_wordpool_less_exclusions.txt	LTP273	ltpFR	3	7	1	GRASSHOPPER	656	n/a	n/a	1	0.57763671875	0.412841796875	1	lower	amplitud.ttf
1066939	WORD	wordpools/wasnorm_wordpool_less_exclusions.txt	LTP273	ltpFR	3	7	1	MERMAID	887	n/a	n/a	1	0.57763671875	0.412841796875	1	lower	amplitud.ttf
1070833	WORD	wordpools/wasnorm_wordpool_less_exclusions.txt	LTP273	ltpFR	3	7	1	HERB	704	n/a	n/a	0	0.57763671875	0.412841796875	1	lower	amplitud.ttf
1074993	WORD	wordpools/wasnorm_wordpool_less_exclusions.txt	LTP273	ltpFR	3	7	1	SLOPE	1328	n/a	n/a	0	0.57763671875	0.412841796875	1	lower	amplitud.ttf
1079137	WORD	wordpools/wasnorm_wordpool_less_exclusions.txt	LTP273	ltpFR	3	7	1	RIVER	1194	n/a	n/a	0	0.57763671875	0.412841796875	1	lower	amplitud.ttf
1083281	WORD	wordpools/wasnorm_wordpool_less_exclusions.txt	LTP273	ltpFR	3	7	1	LADY	794	n/a	n/a	1	0.57763671875	0.412841796875	1	lower	amplitud.ttf
1087459	WORD	wordpools/wasnorm_wordpool_less_exclusions.txt	LTP273	ltpFR	3	7	1	SALT	1229	n/a	n/a	0	0.57763671875	0.412841796875	1	lower	amplitud.ttf
1091602	WORD	wordpools/wasnorm_wordpool_less_exclusions.txt	LTP273	ltpFR	3	7	1	MAILMAN	858	n/a	n/a	1	0.57763671875	0.412841796875	1	lower	amplitud.ttf
1095530	WORD	wordpools/wasnorm_wordpool_less_exclusions.txt	LTP273	ltpFR	3	7	1	NOTE	958	n/a	n/a	0	0.57763671875	0.412841796875	1	lower	amplitud.ttf
1099706	WORD	wordpools/wasnorm_wordpool_less_exclusions.txt	LTP273	ltpFR	3	7	1	MICROPHONE	890	n/a	n/a	0	0.57763671875	0.412841796875	1	lower	amplitud.ttf
1103684	WORD	wordpools/wasnorm_wordpool_less_exclusions.txt	LTP273	ltpFR	3	7	1	RAM	1165	n/a	n/a	1	0.57763671875	0.412841796875	1	lower	amplitud.ttf
1107694	WORD	wordpools/wasnorm_wordpool_less_exclusions.txt	LTP273	ltpFR	3	7	1	GIRAFFE	636	n/a	n/a	1	0.57763671875	0.412841796875	1	lower	amplitud.ttf
1111639	WORD	wordpools/wasnorm_wordpool_less_exclusions.txt	LTP273	ltpFR	3	7	1	UNDERWEAR	1537	n/a	n/a	0	0.57763671875	0.412841796875	1	lower	amplitud.ttf
1115534	WORD	wordpools/wasnorm_wordpool_less_exclusions.txt	LTP273	ltpFR	3	7	1	PIPE	1073	n/a	n/a	0	0.57763671875	0.412841796875	1	lower	amplitud.ttf
1119478	WORD	wordpools/wasnorm_wordpool_less_exclusions.txt	LTP273	ltpFR	3	7	1	CAMEL	223	n/a	n/a	1	0.57763671875	0.412841796875	1	lower	amplitud.ttf
1125186	REC_START	n/a	LTP273	ltpFR	3	7	n/a	n/a	n/a	n/a	n/a	n/a	n/a	n/a	n/a	n/a	n/a
1126255	REC_WORD	wordpools/wasnorm_wordpool_less_exclusions.txt	LTP273	ltpFR	3	7	1	UNDERWEAR	1537	n/a	n/a	0	n/a	n/a	n/a	n/a	n/a
1126949	REC_WORD	wordpools/wasnorm_wordpool_less_exclusions.txt	LTP273	ltpFR	3	7	1	PIPE	1073	n/a	n/a	0	n/a	n/a	n/a	n/a	n/a
1127609	REC_WORD	wordpools/wasnorm_wordpool_less_exclusions.txt	LTP273	ltpFR	3	7	1	CAMEL	223	n/a	n/a	1	n/a	n/a	n/a	n/a	n/a
1128566	REC_WORD	wordpools/wasnorm_wordpool_less_exclusions.txt	LTP273	ltpFR	3	7	1	LADY	794	n/a	n/a	1	n/a	n/a	n/a	n/a	n/a
1129312	REC_WORD	wordpools/wasnorm_wordpool_less_exclusions.txt	LTP273	ltpFR	3	7	1	SLOPE	1328	n/a	n/a	0	n/a	n/a	n/a	n/a	n/a
1130958	REC_WORD	wordpools/wasnorm_wordpool_less_exclusions.txt	LTP273	ltpFR	3	7	1	RIVER	1194	n/a	n/a	0	n/a	n/a	n/a	n/a	n/a
1132381	REC_WORD	wordpools/wasnorm_wordpool_less_exclusions.txt	LTP273	ltpFR	3	7	1	MAILMAN	858	n/a	n/a	1	n/a	n/a	n/a	n/a	n/a
1133650	REC_WORD	wordpools/wasnorm_wordpool_less_exclusions.txt	LTP273	ltpFR	3	7	1	NOTE	958	n/a	n/a	0	n/a	n/a	n/a	n/a	n/a
1169024	REC_WORD	wordpools/wasnorm_wordpool_less_exclusions.txt	LTP273	ltpFR	3	7	1	GIRAFFE	636	n/a	n/a	1	n/a	n/a	n/a	n/a	n/a
1176049	REC_WORD	wordpools/wasnorm_wordpool_less_exclusions.txt	LTP273	ltpFR	3	7	1	RAM	1165	n/a	n/a	1	n/a	n/a	n/a	n/a	n/a
1188830	REC_WORD	wordpools/wasnorm_wordpool_less_exclusions.txt	LTP273	ltpFR	3	7	1	SALT	1229	n/a	n/a	0	n/a	n/a	n/a	n/a	n/a
1216665	WORD	wordpools/wasnorm_wordpool_less_exclusions.txt	LTP273	ltpFR	3	8	1	TUBE	1516	n/a	n/a	0	0.57763671875	0.412841796875	1	lower	amplitud.ttf
1220809	WORD	wordpools/wasnorm_wordpool_less_exclusions.txt	LTP273	ltpFR	3	8	1	CABLE	213	n/a	n/a	0	0.57763671875	0.412841796875	1	lower	amplitud.ttf
1224853	WORD	wordpools/wasnorm_wordpool_less_exclusions.txt	LTP273	ltpFR	3	8	1	POCKETBOOK	1094	n/a	n/a	0	0.57763671875	0.412841796875	1	lower	amplitud.ttf
1228897	WORD	wordpools/wasnorm_wordpool_less_exclusions.txt	LTP273	ltpFR	3	8	1	RESTAURANT	1187	n/a	n/a	0	0.57763671875	0.412841796875	1	lower	amplitud.ttf
1232774	WORD	wordpools/wasnorm_wordpool_less_exclusions.txt	LTP273	ltpFR	3	8	1	SWAN	1417	n/a	n/a	1	0.57763671875	0.412841796875	1	lower	amplitud.ttf
1236685	WORD	wordpools/wasnorm_wordpool_less_exclusions.txt	LTP273	ltpFR	3	8	1	FISH	571	n/a	n/a	1	0.57763671875	0.412841796875	1	lower	amplitud.ttf
1240812	WORD	wordpools/wasnorm_wordpool_less_exclusions.txt	LTP273	ltpFR	3	8	1	CLAM	315	n/a	n/a	1	0.57763671875	0.412841796875	1	lower	amplitud.ttf
1244956	WORD	wordpools/wasnorm_wordpool_less_exclusions.txt	LTP273	ltpFR	3	8	1	BOUILLON	154	n/a	n/a	1	0.57763671875	0.412841796875	1	lower	amplitud.ttf
1248934	WORD	wordpools/wasnorm_wordpool_less_exclusions.txt	LTP273	ltpFR	3	8	1	OUTDOORS	987	n/a	n/a	0	0.57763671875	0.412841796875	1	lower	amplitud.ttf
1253144	WORD	wordpools/wasnorm_wordpool_less_exclusions.txt	LTP273	ltpFR	3	8	1	MANSION	864	n/a	n/a	0	0.57763671875	0.412841796875	1	lower	amplitud.ttf
1257055	WORD	wordpools/wasnorm_wordpool_less_exclusions.txt	LTP273	ltpFR	3	8	1	CABIN	211	n/a	n/a	0	0.57763671875	0.412841796875	1	lower	amplitud.ttf
1261032	WORD	wordpools/wasnorm_wordpool_less_exclusions.txt	LTP273	ltpFR	3	8	1	PAWN	1030	n/a	n/a	0	0.57763671875	0.412841796875	1	lower	amplitud.ttf
1265093	WORD	wordpools/wasnorm_wordpool_less_exclusions.txt	LTP273	ltpFR	3	8	1	UNICORN	1538	n/a	n/a	1	0.57763671875	0.412841796875	1	lower	amplitud.ttf
1269054	WORD	wordpools/wasnorm_wordpool_less_exclusions.txt	LTP273	ltpFR	3	8	1	SALMON	1227	n/a	n/a	1	0.57763671875	0.412841796875	1	lower	amplitud.ttf
1273147	WORD	wordpools/wasnorm_wordpool_less_exclusions.txt	LTP273	ltpFR	3	8	1	COOKIE	374	n/a	n/a	0	0.57763671875	0.412841796875	1	lower	amplitud.ttf
1277175	WORD	wordpools/wasnorm_wordpool_less_exclusions.txt	LTP273	ltpFR	3	8	1	WINGS	1614	n/a	n/a	0	0.57763671875	0.412841796875	1	lower	amplitud.ttf
1282917	REC_START	n/a	LTP273	ltpFR	3	8	n/a	n/a	n/a	n/a	n/a	n/a	n/a	n/a	n/a	n/a	n/a
1285648	REC_WORD	wordpools/wasnorm_wordpool_less_exclusions.txt	LTP273	ltpFR	3	8	1	WINGS	1614	n/a	n/a	0	n/a	n/a	n/a	n/a	n/a
1288546	REC_WORD	wordpools/wasnorm_wordpool_less_exclusions.txt	LTP273	ltpFR	3	8	1	BOUILLON	154	n/a	n/a	1	n/a	n/a	n/a	n/a	n/a
1292957	REC_WORD	wordpools/wasnorm_wordpool_less_exclusions.txt	LTP273	ltpFR	3	8	1	CLAM	315	n/a	n/a	1	n/a	n/a	n/a	n/a	n/a
1299001	REC_WORD	wordpools/wasnorm_wordpool_less_exclusions.txt	LTP273	ltpFR	3	8	1	CABIN	211	n/a	n/a	0	n/a	n/a	n/a	n/a	n/a
1310905	REC_WORD	wordpools/wasnorm_wordpool_less_exclusions.txt	LTP273	ltpFR	3	8	n/a	OYSTER	995	n/a	n/a	n/a	n/a	n/a	n/a	n/a	n/a
1329797	REC_WORD	wordpools/wasnorm_wordpool_less_exclusions.txt	LTP273	ltpFR	3	8	1	WINGS	1614	n/a	n/a	0	n/a	n/a	n/a	n/a	n/a
1367839	WORD	wordpools/wasnorm_wordpool_less_exclusions.txt	LTP273	ltpFR	3	9	1	SPRINKLE	1359	n/a	n/a	0	0.57763671875	0.412841796875	1	lower	amplitud.ttf
1371734	WORD	wordpools/wasnorm_wordpool_less_exclusions.txt	LTP273	ltpFR	3	9	1	CANOE	233	n/a	n/a	0	0.57763671875	0.412841796875	1	lower	amplitud.ttf
1375844	WORD	wordpools/wasnorm_wordpool_less_exclusions.txt	LTP273	ltpFR	3	9	1	COBBLER	335	n/a	n/a	1	0.57763671875	0.412841796875	1	lower	amplitud.ttf
1379738	WORD	wordpools/wasnorm_wordpool_less_exclusions.txt	LTP273	ltpFR	3	9	1	COUNTY	389	n/a	n/a	0	0.57763671875	0.412841796875	1	lower	amplitud.ttf
1383749	WORD	wordpools/wasnorm_wordpool_less_exclusions.txt	LTP273	ltpFR	3	9	1	HOUND	724	n/a	n/a	1	0.57763671875	0.412841796875	1	lower	amplitud.ttf
1387809	WORD	wordpools/wasnorm_wordpool_less_exclusions.txt	LTP273	ltpFR	3	9	1	OX	994	n/a	n/a	1	0.57763671875	0.412841796875	1	lower	amplitud.ttf
1391820	WORD	wordpools/wasnorm_wordpool_less_exclusions.txt	LTP273	ltpFR	3	9	1	VASE	1549	n/a	n/a	0	0.57763671875	0.412841796875	1	lower	amplitud.ttf
1395997	WORD	wordpools/wasnorm_wordpool_less_exclusions.txt	LTP273	ltpFR	3	9	1	BUFFALO	186	n/a	n/a	1	0.57763671875	0.412841796875	1	lower	amplitud.ttf
1400191	WORD	wordpools/wasnorm_wordpool_less_exclusions.txt	LTP273	ltpFR	3	9	1	CHIPMUNK	304	n/a	n/a	1	0.57763671875	0.412841796875	1	lower	amplitud.ttf
1404052	WORD	wordpools/wasnorm_wordpool_less_exclusions.txt	LTP273	ltpFR	3	9	1	TULIP	1517	n/a	n/a	1	0.57763671875	0.412841796875	1	lower	amplitud.ttf
1407913	WORD	wordpools/wasnorm_wordpool_less_exclusions.txt	LTP273	ltpFR	3	9	1	DANDELION	438	n/a	n/a	1	0.57763671875	0.412841796875	1	lower	amplitud.ttf
1412090	WORD	wordpools/wasnorm_wordpool_less_exclusions.txt	LTP273	ltpFR	3	9	1	ANTEATER	26	n/a	n/a	1	0.57763671875	0.412841796875	1	lower	amplitud.ttf
1416001	WORD	wordpools/wasnorm_wordpool_less_exclusions.txt	LTP273	ltpFR	3	9	1	THRONE	1461	n/a	n/a	0	0.57763671875	0.412841796875	1	lower	amplitud.ttf
1420211	WORD	wordpools/wasnorm_wordpool_less_exclusions.txt	LTP273	ltpFR	3	9	1	PALACE	1006	n/a	n/a	0	0.57763671875	0.412841796875	1	lower	amplitud.ttf
1424288	WORD	wordpools/wasnorm_wordpool_less_exclusions.txt	LTP273	ltpFR	3	9	1	RADIATOR	1156	n/a	n/a	0	0.57763671875	0.412841796875	1	lower	amplitud.ttf
1428400	WORD	wordpools/wasnorm_wordpool_less_exclusions.txt	LTP273	ltpFR	3	9	1	DOUGHNUT	490	n/a	n/a	0	0.57763671875	0.412841796875	1	lower	amplitud.ttf
1434324	REC_START	n/a	LTP273	ltpFR	3	9	n/a	n/a	n/a	n/a	n/a	n/a	n/a	n/a	n/a	n/a	n/a
1436560	REC_WORD	wordpools/wasnorm_wordpool_less_exclusions.txt	LTP273	ltpFR	3	9	1	PALACE	1006	n/a	n/a	0	n/a	n/a	n/a	n/a	n/a
1437162	REC_WORD	wordpools/wasnorm_wordpool_less_exclusions.txt	LTP273	ltpFR	3	9	1	RADIATOR	1156	n/a	n/a	0	n/a	n/a	n/a	n/a	n/a
1438077	REC_WORD	wordpools/wasnorm_wordpool_less_exclusions.txt	LTP273	ltpFR	3	9	1	DOUGHNUT	490	n/a	n/a	0	n/a	n/a	n/a	n/a	n/a
1438807	REC_WORD	wordpools/wasnorm_wordpool_less_exclusions.txt	LTP273	ltpFR	3	9	1	THRONE	1461	n/a	n/a	0	n/a	n/a	n/a	n/a	n/a
1440058	REC_WORD	wordpools/wasnorm_wordpool_less_exclusions.txt	LTP273	ltpFR	3	9	1	OX	994	n/a	n/a	1	n/a	n/a	n/a	n/a	n/a
1441372	REC_WORD	wordpools/wasnorm_wordpool_less_exclusions.txt	LTP273	ltpFR	3	9	1	BUFFALO	186	n/a	n/a	1	n/a	n/a	n/a	n/a	n/a
1469687	REC_WORD	wordpools/wasnorm_wordpool_less_exclusions.txt	LTP273	ltpFR	3	9	1	VASE	1549	n/a	n/a	0	n/a	n/a	n/a	n/a	n/a
1485709	REC_WORD	wordpools/wasnorm_wordpool_less_exclusions.txt	LTP273	ltpFR	3	9	1	DOUGHNUT	490	n/a	n/a	0	n/a	n/a	n/a	n/a	n/a
1536687	WORD	wordpools/wasnorm_wordpool_less_exclusions.txt	LTP273	ltpFR	3	10	0	CHERRY	293	n/a	n/a	0	0.422607421875	0.5869140625	0	upper	zerothre.ttf
1540532	WORD	wordpools/wasnorm_wordpool_less_exclusions.txt	LTP273	ltpFR	3	10	0	FUDGE	611	n/a	n/a	0	0.422607421875	0.5869140625	0	upper	zerothre.ttf
1544575	WORD	wordpools/wasnorm_wordpool_less_exclusions.txt	LTP273	ltpFR	3	10	0	HOSTESS	723	n/a	n/a	0	0.422607421875	0.5869140625	0	upper	zerothre.ttf
1548437	WORD	wordpools/wasnorm_wordpool_less_exclusions.txt	LTP273	ltpFR	3	10	0	MOTORCYCLE	923	n/a	n/a	1	0.422607421875	0.5869140625	0	upper	zerothre.ttf
1552465	WORD	wordpools/wasnorm_wordpool_less_exclusions.txt	LTP273	ltpFR	3	10	1	DOVE	491	n/a	n/a	1	0.57763671875	0.412841796875	1	lower	amplitud.ttf
1556375	WORD	wordpools/wasnorm_wordpool_less_exclusions.txt	LTP273	ltpFR	3	10	1	SUPPER	1411	n/a	n/a	0	0.57763671875	0.412841796875	1	lower	amplitud.ttf
1560335	WORD	wordpools/wasnorm_wordpool_less_exclusions.txt	LTP273	ltpFR	3	10	0	DONKEY	484	n/a	n/a	1	0.422607421875	0.5869140625	0	upper	zerothre.ttf
1564263	WORD	wordpools/wasnorm_wordpool_less_exclusions.txt	LTP273	ltpFR	3	10	0	SADDLE	1221	n/a	n/a	1	0.422607421875	0.5869140625	0	upper	zerothre.ttf
1568107	WORD	wordpools/wasnorm_wordpool_less_exclusions.txt	LTP273	ltpFR	3	10	0	SERVER	1272	n/a	n/a	1	0.422607421875	0.5869140625	0	upper	zerothre.ttf
1572118	WORD	wordpools/wasnorm_wordpool_less_exclusions.txt	LTP273	ltpFR	3	10	0	BANANA	77	n/a	n/a	0	0.422607421875	0.5869140625	0	upper	zerothre.ttf
1576078	WORD	wordpools/wasnorm_wordpool_less_exclusions.txt	LTP273	ltpFR	3	10	1	NUN	962	n/a	n/a	1	0.57763671875	0.412841796875	1	lower	amplitud.ttf
1580156	WORD	wordpools/wasnorm_wordpool_less_exclusions.txt	LTP273	ltpFR	3	10	1	GALLON	618	n/a	n/a	0	0.57763671875	0.412841796875	1	lower	amplitud.ttf
1584050	WORD	wordpools/wasnorm_wordpool_less_exclusions.txt	LTP273	ltpFR	3	10	1	OWL	992	n/a	n/a	1	0.57763671875	0.412841796875	1	lower	amplitud.ttf
1588027	WORD	wordpools/wasnorm_wordpool_less_exclusions.txt	LTP273	ltpFR	3	10	1	WAITER	1580	n/a	n/a	1	0.57763671875	0.412841796875	1	lower	amplitud.ttf
1592005	WORD	wordpools/wasnorm_wordpool_less_exclusions.txt	LTP273	ltpFR	3	10	1	JACKET	747	n/a	n/a	0	0.57763671875	0.412841796875	1	lower	amplitud.ttf
1596215	WORD	wordpools/wasnorm_wordpool_less_exclusions.txt	LTP273	ltpFR	3	10	1	FUR	615	n/a	n/a	0	0.57763671875	0.412841796875	1	lower	amplitud.ttf
1601907	REC_START	n/a	LTP273	ltpFR	3	10	n/a	n/a	n/a	n/a	n/a	n/a	n/a	n/a	n/a	n/a	n/a
1604407	REC_WORD	wordpools/wasnorm_wordpool_less_exclusions.txt	LTP273	ltpFR	3	10	1	FUR	615	n/a	n/a	0	n/a	n/a	n/a	n/a	n/a
1605274	REC_WORD	wordpools/wasnorm_wordpool_less_exclusions.txt	LTP273	ltpFR	3	10	1	GALLON	618	n/a	n/a	0	n/a	n/a	n/a	n/a	n/a
1606082	REC_WORD	wordpools/wasnorm_wordpool_less_exclusions.txt	LTP273	ltpFR	3	10	1	NUN	962	n/a	n/a	1	n/a	n/a	n/a	n/a	n/a
1609869	REC_WORD	wordpools/wasnorm_wordpool_less_exclusions.txt	LTP273	ltpFR	3	10	0	BANANA	77	n/a	n/a	0	n/a	n/a	n/a	n/a	n/a
1611037	REC_WORD	wordpools/wasnorm_wordpool_less_exclusions.txt	LTP273	ltpFR	3	10	0	CHERRY	293	n/a	n/a	0	n/a	n/a	n/a	n/a	n/a
1612178	REC_WORD	wordpools/wasnorm_wordpool_less_exclusions.txt	LTP273	ltpFR	3	10	0	FUDGE	611	n/a	n/a	0	n/a	n/a	n/a	n/a	n/a
1615094	REC_WORD	wordpools/wasnorm_wordpool_less_exclusions.txt	LTP273	ltpFR	3	10	0	HOSTESS	723	n/a	n/a	0	n/a	n/a	n/a	n/a	n/a
1704653	WORD	wordpools/wasnorm_wordpool_less_exclusions.txt	LTP273	ltpFR	3	11	0	TUBA	1515	n/a	n/a	1	0.422607421875	0.5869140625	0	upper	zerothre.ttf
1708647	WORD	wordpools/wasnorm_wordpool_less_exclusions.txt	LTP273	ltpFR	3	11	0	POND	1101	n/a	n/a	1	0.422607421875	0.5869140625	0	upper	zerothre.ttf
1712526	WORD	wordpools/wasnorm_wordpool_less_exclusions.txt	LTP273	ltpFR	3	11	0	REGISTER	1180	n/a	n/a	1	0.422607421875	0.5869140625	0	upper	zerothre.ttf
1716436	WORD	wordpools/wasnorm_wordpool_less_exclusions.txt	LTP273	ltpFR	3	11	0	LITERATURE	831	n/a	n/a	0	0.422607421875	0.5869140625	0	upper	zerothre.ttf
1720263	WORD	wordpools/wasnorm_wordpool_less_exclusions.txt	LTP273	ltpFR	3	11	0	SISTER	1312	n/a	n/a	1	0.422607421875	0.5869140625	0	upper	zerothre.ttf
1724257	WORD	wordpools/wasnorm_wordpool_less_exclusions.txt	LTP273	ltpFR	3	11	0	BAY	102	n/a	n/a	1	0.422607421875	0.5869140625	0	upper	zerothre.ttf
1728151	WORD	wordpools/wasnorm_wordpool_less_exclusions.txt	LTP273	ltpFR	3	11	0	HARP	689	n/a	n/a	1	0.422607421875	0.5869140625	0	upper	zerothre.ttf
1732162	WORD	wordpools/wasnorm_wordpool_less_exclusions.txt	LTP273	ltpFR	3	11	0	CONCERT	360	n/a	n/a	1	0.422607421875	0.5869140625	0	upper	zerothre.ttf
1736156	WORD	wordpools/wasnorm_wordpool_less_exclusions.txt	LTP273	ltpFR	3	11	0	DESIGNER	451	n/a	n/a	1	0.422607421875	0.5869140625	0	upper	zerothre.ttf
1740183	WORD	wordpools/wasnorm_wordpool_less_exclusions.txt	LTP273	ltpFR	3	11	0	STEREO	1378	n/a	n/a	1	0.422607421875	0.5869140625	0	upper	zerothre.ttf
1744344	WORD	wordpools/wasnorm_wordpool_less_exclusions.txt	LTP273	ltpFR	3	11	0	WORM	1623	n/a	n/a	0	0.422607421875	0.5869140625	0	upper	zerothre.ttf
1748354	WORD	wordpools/wasnorm_wordpool_less_exclusions.txt	LTP273	ltpFR	3	11	0	POLYESTER	1100	n/a	n/a	0	0.422607421875	0.5869140625	0	upper	zerothre.ttf
1752499	WORD	wordpools/wasnorm_wordpool_less_exclusions.txt	LTP273	ltpFR	3	11	0	AIRCRAFT	11	n/a	n/a	1	0.422607421875	0.5869140625	0	upper	zerothre.ttf
1756510	WORD	wordpools/wasnorm_wordpool_less_exclusions.txt	LTP273	ltpFR	3	11	0	AIRPLANE	12	n/a	n/a	1	0.422607421875	0.5869140625	0	upper	zerothre.ttf
1760353	WORD	wordpools/wasnorm_wordpool_less_exclusions.txt	LTP273	ltpFR	3	11	0	CEREAL	272	n/a	n/a	0	0.422607421875	0.5869140625	0	upper	zerothre.ttf
1764431	WORD	wordpools/wasnorm_wordpool_less_exclusions.txt	LTP273	ltpFR	3	11	0	CELERY	266	n/a	n/a	0	0.422607421875	0.5869140625	0	upper	zerothre.ttf
1770406	REC_START	n/a	LTP273	ltpFR	3	11	n/a	n/a	n/a	n/a	n/a	n/a	n/a	n/a	n/a	n/a	n/a
1771984	REC_WORD	wordpools/wasnorm_wordpool_less_exclusions.txt	LTP273	ltpFR	3	11	0	AIRCRAFT	11	n/a	n/a	1	n/a	n/a	n/a	n/a	n/a
1772677	REC_WORD	wordpools/wasnorm_wordpool_less_exclusions.txt	LTP273	ltpFR	3	11	0	AIRPLANE	12	n/a	n/a	1	n/a	n/a	n/a	n/a	n/a
1773382	REC_WORD	wordpools/wasnorm_wordpool_less_exclusions.txt	LTP273	ltpFR	3	11	0	CELERY	266	n/a	n/a	0	n/a	n/a	n/a	n/a	n/a
1774420	REC_WORD	wordpools/wasnorm_wordpool_less_exclusions.txt	LTP273	ltpFR	3	11	0	SISTER	1312	n/a	n/a	1	n/a	n/a	n/a	n/a	n/a
1859006	WORD	wordpools/wasnorm_wordpool_less_exclusions.txt	LTP273	ltpFR	3	12	0	HANGER	687	n/a	n/a	0	0.422607421875	0.5869140625	0	upper	zerothre.ttf
1862900	WORD	wordpools/wasnorm_wordpool_less_exclusions.txt	LTP273	ltpFR	3	12	0	PALM	1007	n/a	n/a	1	0.422607421875	0.5869140625	0	upper	zerothre.ttf
1866811	WORD	wordpools/wasnorm_wordpool_less_exclusions.txt	LTP273	ltpFR	3	12	0	PERSON	1052	n/a	n/a	1	0.422607421875	0.5869140625	0	upper	zerothre.ttf
1870639	WORD	wordpools/wasnorm_wordpool_less_exclusions.txt	LTP273	ltpFR	3	12	0	PEDESTRIAN	1038	n/a	n/a	1	0.422607421875	0.5869140625	0	upper	zerothre.ttf
1874716	WORD	wordpools/wasnorm_wordpool_less_exclusions.txt	LTP273	ltpFR	3	12	1	PIRATE	1074	n/a	n/a	1	0.57763671875	0.412841796875	1	lower	amplitud.ttf
1878710	WORD	wordpools/wasnorm_wordpool_less_exclusions.txt	LTP273	ltpFR	3	12	1	DECK	443	n/a	n/a	0	0.57763671875	0.412841796875	1	lower	amplitud.ttf
1882720	WORD	wordpools/wasnorm_wordpool_less_exclusions.txt	LTP273	ltpFR	3	12	1	ATTIRE	57	n/a	n/a	0	0.57763671875	0.412841796875	1	lower	amplitud.ttf
1886864	WORD	wordpools/wasnorm_wordpool_less_exclusions.txt	LTP273	ltpFR	3	12	1	NOVEL	960	n/a	n/a	0	0.57763671875	0.412841796875	1	lower	amplitud.ttf
1890958	WORD	wordpools/wasnorm_wordpool_less_exclusions.txt	LTP273	ltpFR	3	12	0	MAGICIAN	854	n/a	n/a	1	0.422607421875	0.5869140625	0	upper	zerothre.ttf
1895152	WORD	wordpools/wasnorm_wordpool_less_exclusions.txt	LTP273	ltpFR	3	12	0	PANTS	1010	n/a	n/a	0	0.422607421875	0.5869140625	0	upper	zerothre.ttf
1898979	WORD	wordpools/wasnorm_wordpool_less_exclusions.txt	LTP273	ltpFR	3	12	1	DINER	467	n/a	n/a	0	0.57763671875	0.412841796875	1	lower	amplitud.ttf
1902890	WORD	wordpools/wasnorm_wordpool_less_exclusions.txt	LTP273	ltpFR	3	12	1	BROOK	177	n/a	n/a	0	0.57763671875	0.412841796875	1	lower	amplitud.ttf
1906901	WORD	wordpools/wasnorm_wordpool_less_exclusions.txt	LTP273	ltpFR	3	12	1	REEF	1177	n/a	n/a	0	0.57763671875	0.412841796875	1	lower	amplitud.ttf
1911062	WORD	wordpools/wasnorm_wordpool_less_exclusions.txt	LTP273	ltpFR	3	12	1	BUSH	202	n/a	n/a	0	0.57763671875	0.412841796875	1	lower	amplitud.ttf
1914939	WORD	wordpools/wasnorm_wordpool_less_exclusions.txt	LTP273	ltpFR	3	12	0	ACORN	3	n/a	n/a	0	0.422607421875	0.5869140625	0	upper	zerothre.ttf
1918817	WORD	wordpools/wasnorm_wordpool_less_exclusions.txt	LTP273	ltpFR	3	12	0	DISH	474	n/a	n/a	0	0.422607421875	0.5869140625	0	upper	zerothre.ttf
1924625	REC_START	n/a	LTP273	ltpFR	3	12	n/a	n/a	n/a	n/a	n/a	n/a	n/a	n/a	n/a	n/a	n/a
1926128	REC_WORD	wordpools/wasnorm_wordpool_less_exclusions.txt	LTP273	ltpFR	3	12	0	ACORN	3	n/a	n/a	0	n/a	n/a	n/a	n/a	n/a
1928001	REC_WORD	wordpools/wasnorm_wordpool_less_exclusions.txt	LTP273	ltpFR	3	12	0	DISH	474	n/a	n/a	0	n/a	n/a	n/a	n/a	n/a
1930279	REC_WORD	wordpools/wasnorm_wordpool_less_exclusions.txt	LTP273	ltpFR	3	12	1	REEF	1177	n/a	n/a	0	n/a	n/a	n/a	n/a	n/a
1934581	REC_WORD	wordpools/wasnorm_wordpool_less_exclusions.txt	LTP273	ltpFR	3	12	1	PIRATE	1074	n/a	n/a	1	n/a	n/a	n/a	n/a	n/a
1936688	REC_WORD	wordpools/wasnorm_wordpool_less_exclusions.txt	LTP273	ltpFR	3	12	1	DECK	443	n/a	n/a	0	n/a	n/a	n/a	n/a	n/a
1984762	REC_WORD	wordpools/wasnorm_wordpool_less_exclusions.txt	LTP273	ltpFR	3	12	n/a	MUSICIAN	-1	n/a	n/a	n/a	n/a	n/a	n/a	n/a	n/a
2000228	REST_REWET	n/a	LTP273	ltpFR	3	12	n/a	n/a	n/a	n/a	n/a	n/a	n/a	n/a	n/a	n/a	n/a
2222230	WORD	wordpools/wasnorm_wordpool_less_exclusions.txt	LTP273	ltpFR	3	13	-1	GOLD	647	n/a	n/a	-1	1.0	1.0	1	upper	Verdana.ttf
2226224	WORD	wordpools/wasnorm_wordpool_less_exclusions.txt	LTP273	ltpFR	3	13	-1	VET	1560	n/a	n/a	-1	1.0	1.0	1	upper	Verdana.ttf
2230202	WORD	wordpools/wasnorm_wordpool_less_exclusions.txt	LTP273	ltpFR	3	13	-1	RADISH	1158	n/a	n/a	-1	1.0	1.0	1	upper	Verdana.ttf
2234329	WORD	wordpools/wasnorm_wordpool_less_exclusions.txt	LTP273	ltpFR	3	13	-1	WICK	1607	n/a	n/a	-1	1.0	1.0	1	upper	Verdana.ttf
2238373	WORD	wordpools/wasnorm_wordpool_less_exclusions.txt	LTP273	ltpFR	3	13	-1	FACE	547	n/a	n/a	-1	1.0	1.0	1	upper	Verdana.ttf
2242317	WORD	wordpools/wasnorm_wordpool_less_exclusions.txt	LTP273	ltpFR	3	13	-1	BEARD	107	n/a	n/a	-1	1.0	1.0	1	upper	Verdana.ttf
2246194	WORD	wordpools/wasnorm_wordpool_less_exclusions.txt	LTP273	ltpFR	3	13	-1	HEAD	695	n/a	n/a	-1	1.0	1.0	1	upper	Verdana.ttf
2250172	WORD	wordpools/wasnorm_wordpool_less_exclusions.txt	LTP273	ltpFR	3	13	-1	GAVEL	627	n/a	n/a	-1	1.0	1.0	1	upper	Verdana.ttf
2254249	WORD	wordpools/wasnorm_wordpool_less_exclusions.txt	LTP273	ltpFR	3	13	-1	STREAM	1392	n/a	n/a	-1	1.0	1.0	1	upper	Verdana.ttf
2258193	WORD	wordpools/wasnorm_wordpool_less_exclusions.txt	LTP273	ltpFR	3	13	-1	TUNA	1518	n/a	n/a	-1	1.0	1.0	1	upper	Verdana.ttf
2262037	WORD	wordpools/wasnorm_wordpool_less_exclusions.txt	LTP273	ltpFR	3	13	-1	SOFA	1342	n/a	n/a	-1	1.0	1.0	1	upper	Verdana.ttf
2266165	WORD	wordpools/wasnorm_wordpool_less_exclusions.txt	LTP273	ltpFR	3	13	-1	COUCH	386	n/a	n/a	-1	1.0	1.0	1	upper	Verdana.ttf
2270275	WORD	wordpools/wasnorm_wordpool_less_exclusions.txt	LTP273	ltpFR	3	13	-1	TORCH	1484	n/a	n/a	-1	1.0	1.0	1	upper	Verdana.ttf
2274269	WORD	wordpools/wasnorm_wordpool_less_exclusions.txt	LTP273	ltpFR	3	13	-1	PLUM	1090	n/a	n/a	-1	1.0	1.0	1	upper	Verdana.ttf
2278147	WORD	wordpools/wasnorm_wordpool_less_exclusions.txt	LTP273	ltpFR	3	13	-1	POWDER	1117	n/a	n/a	-1	1.0	1.0	1	upper	Verdana.ttf
2282241	WORD	wordpools/wasnorm_wordpool_less_exclusions.txt	LTP273	ltpFR	3	13	-1	VALVE	1546	n/a	n/a	-1	1.0	1.0	1	upper	Verdana.ttf
2288049	REC_START	n/a	LTP273	ltpFR	3	13	n/a	n/a	n/a	n/a	n/a	n/a	n/a	n/a	n/a	n/a	n/a
2289310	REC_WORD	wordpools/wasnorm_wordpool_less_exclusions.txt	LTP273	ltpFR	3	13	-1	PLUM	1090	n/a	n/a	-1	n/a	n/a	n/a	n/a	n/a
2290144	REC_WORD	wordpools/wasnorm_wordpool_less_exclusions.txt	LTP273	ltpFR	3	13	-1	POWDER	1117	n/a	n/a	-1	n/a	n/a	n/a	n/a	n/a
2290973	REC_WORD	wordpools/wasnorm_wordpool_less_exclusions.txt	LTP273	ltpFR	3	13	-1	VALVE	1546	n/a	n/a	-1	n/a	n/a	n/a	n/a	n/a
2291576	REC_WORD	wordpools/wasnorm_wordpool_less_exclusions.txt	LTP273	ltpFR	3	13	-1	FACE	547	n/a	n/a	-1	n/a	n/a	n/a	n/a	n/a
2292655	REC_WORD	wordpools/wasnorm_wordpool_less_exclusions.txt	LTP273	ltpFR	3	13	-1	WICK	1607	n/a	n/a	-1	n/a	n/a	n/a	n/a	n/a
2294481	REC_WORD	wordpools/wasnorm_wordpool_less_exclusions.txt	LTP273	ltpFR	3	13	-1	HEAD	695	n/a	n/a	-1	n/a	n/a	n/a	n/a	n/a
2298785	REC_WORD	wordpools/wasnorm_wordpool_less_exclusions.txt	LTP273	ltpFR	3	13	-1	GOLD	647	n/a	n/a	-1	n/a	n/a	n/a	n/a	n/a
2380910	WORD	wordpools/wasnorm_wordpool_less_exclusions.txt	LTP273	ltpFR	3	14	-1	ROCK	1201	n/a	n/a	-1	1.0	1.0	1	upper	Verdana.ttf
2385087	WORD	wordpools/wasnorm_wordpool_less_exclusions.txt	LTP273	ltpFR	3	14	-1	CANYON	235	n/a	n/a	-1	1.0	1.0	1	upper	Verdana.ttf
2389231	WORD	wordpools/wasnorm_wordpool_less_exclusions.txt	LTP273	ltpFR	3	14	-1	CAP	236	n/a	n/a	-1	1.0	1.0	1	upper	Verdana.ttf
2393308	WORD	wordpools/wasnorm_wordpool_less_exclusions.txt	LTP273	ltpFR	3	14	-1	JUG	762	n/a	n/a	-1	1.0	1.0	1	upper	Verdana.ttf
2397152	WORD	wordpools/wasnorm_wordpool_less_exclusions.txt	LTP273	ltpFR	3	14	-1	PORTRAIT	1111	n/a	n/a	-1	1.0	1.0	1	upper	Verdana.ttf
2401246	WORD	wordpools/wasnorm_wordpool_less_exclusions.txt	LTP273	ltpFR	3	14	-1	CROSS	413	n/a	n/a	-1	1.0	1.0	1	upper	Verdana.ttf
2405307	WORD	wordpools/wasnorm_wordpool_less_exclusions.txt	LTP273	ltpFR	3	14	-1	SPY	1360	n/a	n/a	-1	1.0	1.0	1	upper	Verdana.ttf
2409301	WORD	wordpools/wasnorm_wordpool_less_exclusions.txt	LTP273	ltpFR	3	14	-1	CHART	282	n/a	n/a	-1	1.0	1.0	1	upper	Verdana.ttf
2413328	WORD	wordpools/wasnorm_wordpool_less_exclusions.txt	LTP273	ltpFR	3	14	-1	STEWARDESS	1381	n/a	n/a	-1	1.0	1.0	1	upper	Verdana.ttf
2417555	WORD	wordpools/wasnorm_wordpool_less_exclusions.txt	LTP273	ltpFR	3	14	-1	SWATTER	1418	n/a	n/a	-1	1.0	1.0	1	upper	Verdana.ttf
2421417	WORD	wordpools/wasnorm_wordpool_less_exclusions.txt	LTP273	ltpFR	3	14	-1	WAND	1586	n/a	n/a	-1	1.0	1.0	1	upper	Verdana.ttf
2425343	WORD	wordpools/wasnorm_wordpool_less_exclusions.txt	LTP273	ltpFR	3	14	-1	WHISKERS	1605	n/a	n/a	-1	1.0	1.0	1	upper	Verdana.ttf
2429354	WORD	wordpools/wasnorm_wordpool_less_exclusions.txt	LTP273	ltpFR	3	14	-1	FRIES	607	n/a	n/a	-1	1.0	1.0	1	upper	Verdana.ttf
2433399	WORD	wordpools/wasnorm_wordpool_less_exclusions.txt	LTP273	ltpFR	3	14	-1	GARLIC	624	n/a	n/a	-1	1.0	1.0	1	upper	Verdana.ttf
2437476	WORD	wordpools/wasnorm_wordpool_less_exclusions.txt	LTP273	ltpFR	3	14	-1	CINNAMON	310	n/a	n/a	-1	1.0	1.0	1	upper	Verdana.ttf
2441353	WORD	wordpools/wasnorm_wordpool_less_exclusions.txt	LTP273	ltpFR	3	14	-1	CHAPEL	280	n/a	n/a	-1	1.0	1.0	1	upper	Verdana.ttf
2446995	REC_START	n/a	LTP273	ltpFR	3	14	n/a	n/a	n/a	n/a	n/a	n/a	n/a	n/a	n/a	n/a	n/a
2448231	REC_WORD	wordpools/wasnorm_wordpool_less_exclusions.txt	LTP273	ltpFR	3	14	-1	FRIES	607	n/a	n/a	-1	n/a	n/a	n/a	n/a	n/a
2448935	REC_WORD	wordpools/wasnorm_wordpool_less_exclusions.txt	LTP273	ltpFR	3	14	-1	CINNAMON	310	n/a	n/a	-1	n/a	n/a	n/a	n/a	n/a
2449726	REC_WORD	wordpools/wasnorm_wordpool_less_exclusions.txt	LTP273	ltpFR	3	14	-1	GARLIC	624	n/a	n/a	-1	n/a	n/a	n/a	n/a	n/a
2450407	REC_WORD	wordpools/wasnorm_wordpool_less_exclusions.txt	LTP273	ltpFR	3	14	-1	CHAPEL	280	n/a	n/a	-1	n/a	n/a	n/a	n/a	n/a
2451692	REC_WORD	wordpools/wasnorm_wordpool_less_exclusions.txt	LTP273	ltpFR	3	14	-1	CANYON	235	n/a	n/a	-1	n/a	n/a	n/a	n/a	n/a
2452893	REC_WORD	wordpools/wasnorm_wordpool_less_exclusions.txt	LTP273	ltpFR	3	14	-1	ROCK	1201	n/a	n/a	-1	n/a	n/a	n/a	n/a	n/a
2453796	REC_WORD	wordpools/wasnorm_wordpool_less_exclusions.txt	LTP273	ltpFR	3	14	-1	PORTRAIT	1111	n/a	n/a	-1	n/a	n/a	n/a	n/a	n/a
2454683	REC_WORD	wordpools/wasnorm_wordpool_less_exclusions.txt	LTP273	ltpFR	3	14	-1	STEWARDESS	1381	n/a	n/a	-1	n/a	n/a	n/a	n/a	n/a
2455781	REC_WORD	wordpools/wasnorm_wordpool_less_exclusions.txt	LTP273	ltpFR	3	14	-1	SPY	1360	n/a	n/a	-1	n/a	n/a	n/a	n/a	n/a
2457164	REC_WORD	wordpools/wasnorm_wordpool_less_exclusions.txt	LTP273	ltpFR	3	14	-1	CHART	282	n/a	n/a	-1	n/a	n/a	n/a	n/a	n/a
2458836	REC_WORD	wordpools/wasnorm_wordpool_less_exclusions.txt	LTP273	ltpFR	3	14	-1	CAP	236	n/a	n/a	-1	n/a	n/a	n/a	n/a	n/a
2460312	REC_WORD	wordpools/wasnorm_wordpool_less_exclusions.txt	LTP273	ltpFR	3	14	-1	JUG	762	n/a	n/a	-1	n/a	n/a	n/a	n/a	n/a
2478045	REC_WORD	wordpools/wasnorm_wordpool_less_exclusions.txt	LTP273	ltpFR	3	14	-1	CROSS	413	n/a	n/a	-1	n/a	n/a	n/a	n/a	n/a
2484164	REC_WORD	wordpools/wasnorm_wordpool_less_exclusions.txt	LTP273	ltpFR	3	14	-1	WAND	1586	n/a	n/a	-1	n/a	n/a	n/a	n/a	n/a
2487017	REC_WORD	wordpools/wasnorm_wordpool_less_exclusions.txt	LTP273	ltpFR	3	14	-1	SWATTER	1418	n/a	n/a	-1	n/a	n/a	n/a	n/a	n/a
2549393	WORD	wordpools/wasnorm_wordpool_less_exclusions.txt	LTP273	ltpFR	3	15	1	SOCK	1339	n/a	n/a	0	0.57763671875	0.412841796875	1	lower	amplitud.ttf
2553403	WORD	wordpools/wasnorm_wordpool_less_exclusions.txt	LTP273	ltpFR	3	15	1	NEUTRON	947	n/a	n/a	1	0.57763671875	0.412841796875	1	lower	amplitud.ttf
2557280	WORD	wordpools/wasnorm_wordpool_less_exclusions.txt	LTP273	ltpFR	3	15	0	BULB	192	n/a	n/a	2	0.422607421875	0.5869140625	0	upper	zerothre.ttf
2559194	KEY_MSG	n/a	LTP273	ltpFR	3	15	n/a	n/a	n/a	n/a	n/a	n/a	n/a	n/a	n/a	n/a	n/a
2561657	WORD	wordpools/wasnorm_wordpool_less_exclusions.txt	LTP273	ltpFR	3	15	0	SHOWER	1296	n/a	n/a	1	0.422607421875	0.5869140625	0	upper	zerothre.ttf
2565667	WORD	wordpools/wasnorm_wordpool_less_exclusions.txt	LTP273	ltpFR	3	15	0	WITCH	1617	n/a	n/a	0	0.422607421875	0.5869140625	0	upper	zerothre.ttf
2569496	WORD	wordpools/wasnorm_wordpool_less_exclusions.txt	LTP273	ltpFR	3	15	0	LAMP	798	n/a	n/a	1	0.422607421875	0.5869140625	0	upper	zerothre.ttf
2573572	WORD	wordpools/wasnorm_wordpool_less_exclusions.txt	LTP273	ltpFR	3	15	1	FEMALE	559	n/a	n/a	1	0.57763671875	0.412841796875	1	lower	amplitud.ttf
2577649	WORD	wordpools/wasnorm_wordpool_less_exclusions.txt	LTP273	ltpFR	3	15	1	BULLY	196	n/a	n/a	1	0.57763671875	0.412841796875	1	lower	amplitud.ttf
2581860	WORD	wordpools/wasnorm_wordpool_less_exclusions.txt	LTP273	ltpFR	3	15	0	SILVERWARE	1308	n/a	n/a	0	0.422607421875	0.5869140625	0	upper	zerothre.ttf
2585721	WORD	wordpools/wasnorm_wordpool_less_exclusions.txt	LTP273	ltpFR	3	15	0	BLADE	134	n/a	n/a	0	0.422607421875	0.5869140625	0	upper	zerothre.ttf
2589898	WORD	wordpools/wasnorm_wordpool_less_exclusions.txt	LTP273	ltpFR	3	15	0	RABBIT	1152	n/a	n/a	1	0.422607421875	0.5869140625	0	upper	zerothre.ttf
2593992	WORD	wordpools/wasnorm_wordpool_less_exclusions.txt	LTP273	ltpFR	3	15	0	PEACH	1031	n/a	n/a	0	0.422607421875	0.5869140625	0	upper	zerothre.ttf
2598152	WORD	wordpools/wasnorm_wordpool_less_exclusions.txt	LTP273	ltpFR	3	15	1	MOSS	918	n/a	n/a	0	0.57763671875	0.412841796875	1	lower	amplitud.ttf
2602013	WORD	wordpools/wasnorm_wordpool_less_exclusions.txt	LTP273	ltpFR	3	15	1	WATERFALL	1595	n/a	n/a	0	0.57763671875	0.412841796875	1	lower	amplitud.ttf
2605890	WORD	wordpools/wasnorm_wordpool_less_exclusions.txt	LTP273	ltpFR	3	15	1	BUTTON	207	n/a	n/a	0	0.57763671875	0.412841796875	1	lower	amplitud.ttf
2609885	WORD	wordpools/wasnorm_wordpool_less_exclusions.txt	LTP273	ltpFR	3	15	1	SKIRT	1319	n/a	n/a	0	0.57763671875	0.412841796875	1	lower	amplitud.ttf
2615677	REC_START	n/a	LTP273	ltpFR	3	15	n/a	n/a	n/a	n/a	n/a	n/a	n/a	n/a	n/a	n/a	n/a
2617452	REC_WORD	wordpools/wasnorm_wordpool_less_exclusions.txt	LTP273	ltpFR	3	15	1	SKIRT	1319	n/a	n/a	0	n/a	n/a	n/a	n/a	n/a
2618398	REC_WORD	wordpools/wasnorm_wordpool_less_exclusions.txt	LTP273	ltpFR	3	15	1	WATERFALL	1595	n/a	n/a	0	n/a	n/a	n/a	n/a	n/a
2619953	REC_WORD	wordpools/wasnorm_wordpool_less_exclusions.txt	LTP273	ltpFR	3	15	0	RABBIT	1152	n/a	n/a	1	n/a	n/a	n/a	n/a	n/a
2628325	REC_WORD	wordpools/wasnorm_wordpool_less_exclusions.txt	LTP273	ltpFR	3	15	0	SHOWER	1296	n/a	n/a	1	n/a	n/a	n/a	n/a	n/a
2630079	REC_WORD	wordpools/wasnorm_wordpool_less_exclusions.txt	LTP273	ltpFR	3	15	0	BULB	192	n/a	n/a	2	n/a	n/a	n/a	n/a	n/a
2631495	REC_WORD	wordpools/wasnorm_wordpool_less_exclusions.txt	LTP273	ltpFR	3	15	0	LAMP	798	n/a	n/a	1	n/a	n/a	n/a	n/a	n/a
2698253	WORD	wordpools/wasnorm_wordpool_less_exclusions.txt	LTP273	ltpFR	3	16	0	BACON	67	n/a	n/a	0	0.422607421875	0.5869140625	0	upper	zerothre.ttf
2702431	WORD	wordpools/wasnorm_wordpool_less_exclusions.txt	LTP273	ltpFR	3	16	0	TOTE	1487	n/a	n/a	0	0.422607421875	0.5869140625	0	upper	zerothre.ttf
2706391	WORD	wordpools/wasnorm_wordpool_less_exclusions.txt	LTP273	ltpFR	3	16	0	PUDDLE	1140	n/a	n/a	0	0.422607421875	0.5869140625	0	upper	zerothre.ttf
2710235	WORD	wordpools/wasnorm_wordpool_less_exclusions.txt	LTP273	ltpFR	3	16	0	OCEAN	970	n/a	n/a	1	0.422607421875	0.5869140625	0	upper	zerothre.ttf
2714362	WORD	wordpools/wasnorm_wordpool_less_exclusions.txt	LTP273	ltpFR	3	16	0	TURTLE	1522	n/a	n/a	1	0.422607421875	0.5869140625	0	upper	zerothre.ttf
2718457	WORD	wordpools/wasnorm_wordpool_less_exclusions.txt	LTP273	ltpFR	3	16	0	CHICK	296	n/a	n/a	1	0.422607421875	0.5869140625	0	upper	zerothre.ttf
2722417	WORD	wordpools/wasnorm_wordpool_less_exclusions.txt	LTP273	ltpFR	3	16	0	LASER	801	n/a	n/a	0	0.422607421875	0.5869140625	0	upper	zerothre.ttf
2726495	WORD	wordpools/wasnorm_wordpool_less_exclusions.txt	LTP273	ltpFR	3	16	0	SHOVEL	1295	n/a	n/a	1	0.422607421875	0.5869140625	0	upper	zerothre.ttf
2730688	WORD	wordpools/wasnorm_wordpool_less_exclusions.txt	LTP273	ltpFR	3	16	0	DICE	461	n/a	n/a	0	0.422607421875	0.5869140625	0	upper	zerothre.ttf
2734516	WORD	wordpools/wasnorm_wordpool_less_exclusions.txt	LTP273	ltpFR	3	16	0	SLEEVE	1324	n/a	n/a	0	0.422607421875	0.5869140625	0	upper	zerothre.ttf
2738377	WORD	wordpools/wasnorm_wordpool_less_exclusions.txt	LTP273	ltpFR	3	16	0	VAULT	1550	n/a	n/a	1	0.422607421875	0.5869140625	0	upper	zerothre.ttf
2742287	WORD	wordpools/wasnorm_wordpool_less_exclusions.txt	LTP273	ltpFR	3	16	0	CASHIER	254	n/a	n/a	1	0.422607421875	0.5869140625	0	upper	zerothre.ttf
2746382	WORD	wordpools/wasnorm_wordpool_less_exclusions.txt	LTP273	ltpFR	3	16	0	SPHINX	1349	n/a	n/a	1	0.422607421875	0.5869140625	0	upper	zerothre.ttf
2750426	WORD	wordpools/wasnorm_wordpool_less_exclusions.txt	LTP273	ltpFR	3	16	0	SHRINE	1298	n/a	n/a	1	0.422607421875	0.5869140625	0	upper	zerothre.ttf
2754369	WORD	wordpools/wasnorm_wordpool_less_exclusions.txt	LTP273	ltpFR	3	16	0	APPENDAGE	32	n/a	n/a	1	0.422607421875	0.5869140625	0	upper	zerothre.ttf
2758296	WORD	wordpools/wasnorm_wordpool_less_exclusions.txt	LTP273	ltpFR	3	16	0	CHESS	294	n/a	n/a	0	0.422607421875	0.5869140625	0	upper	zerothre.ttf
2763955	REC_START	n/a	LTP273	ltpFR	3	16	n/a	n/a	n/a	n/a	n/a	n/a	n/a	n/a	n/a	n/a	n/a
2764879	REC_WORD	wordpools/wasnorm_wordpool_less_exclusions.txt	LTP273	ltpFR	3	16	0	APPENDAGE	32	n/a	n/a	1	n/a	n/a	n/a	n/a	n/a
2765649	REC_WORD	wordpools/wasnorm_wordpool_less_exclusions.txt	LTP273	ltpFR	3	16	0	SHRINE	1298	n/a	n/a	1	n/a	n/a	n/a	n/a	n/a
2766450	REC_WORD	wordpools/wasnorm_wordpool_less_exclusions.txt	LTP273	ltpFR	3	16	0	SPHINX	1349	n/a	n/a	1	n/a	n/a	n/a	n/a	n/a
2767378	REC_WORD	wordpools/wasnorm_wordpool_less_exclusions.txt	LTP273	ltpFR	3	16	0	CHESS	294	n/a	n/a	0	n/a	n/a	n/a	n/a	n/a
2773757	REC_WORD	wordpools/wasnorm_wordpool_less_exclusions.txt	LTP273	ltpFR	3	16	0	BACON	67	n/a	n/a	0	n/a	n/a	n/a	n/a	n/a
2774584	REC_WORD	wordpools/wasnorm_wordpool_less_exclusions.txt	LTP273	ltpFR	3	16	0	TOTE	1487	n/a	n/a	0	n/a	n/a	n/a	n/a	n/a
2777161	REC_WORD	wordpools/wasnorm_wordpool_less_exclusions.txt	LTP273	ltpFR	3	16	0	PUDDLE	1140	n/a	n/a	0	n/a	n/a	n/a	n/a	n/a
2779603	REC_WORD	wordpools/wasnorm_wordpool_less_exclusions.txt	LTP273	ltpFR	3	16	0	OCEAN	970	n/a	n/a	1	n/a	n/a	n/a	n/a	n/a
2781893	REC_WORD	wordpools/wasnorm_wordpool_less_exclusions.txt	LTP273	ltpFR	3	16	0	DICE	461	n/a	n/a	0	n/a	n/a	n/a	n/a	n/a
2787339	REC_WORD	wordpools/wasnorm_wordpool_less_exclusions.txt	LTP273	ltpFR	3	16	0	LASER	801	n/a	n/a	0	n/a	n/a	n/a	n/a	n/a
2788918	REC_WORD	wordpools/wasnorm_wordpool_less_exclusions.txt	LTP273	ltpFR	3	16	0	CHICK	296	n/a	n/a	1	n/a	n/a	n/a	n/a	n/a
2813110	REC_WORD	wordpools/wasnorm_wordpool_less_exclusions.txt	LTP273	ltpFR	3	16	0	APPENDAGE	32	n/a	n/a	1	n/a	n/a	n/a	n/a	n/a
2854670	REC_START	n/a	LTP273	ltpFR	3	n/a	n/a	n/a	n/a	n/a	n/a	n/a	n/a	n/a	n/a	n/a	n/a
2856261	FFR_REC_WORD	wordpools/wasnorm_wordpool_less_exclusions.txt	LTP273	ltpFR	3	n/a	0	BACON	67	n/a	n/a	0	n/a	n/a	n/a	n/a	n/a
2857124	FFR_REC_WORD	wordpools/wasnorm_wordpool_less_exclusions.txt	LTP273	ltpFR	3	n/a	-1	GOLD	647	n/a	n/a	-1	n/a	n/a	n/a	n/a	n/a
2857767	FFR_REC_WORD	wordpools/wasnorm_wordpool_less_exclusions.txt	LTP273	ltpFR	3	n/a	0	APPENDAGE	32	n/a	n/a	1	n/a	n/a	n/a	n/a	n/a
2858820	FFR_REC_WORD	wordpools/wasnorm_wordpool_less_exclusions.txt	LTP273	ltpFR	3	n/a	0	CHICK	296	n/a	n/a	1	n/a	n/a	n/a	n/a	n/a
2860726	FFR_REC_WORD	wordpools/wasnorm_wordpool_less_exclusions.txt	LTP273	ltpFR	3	n/a	0	SHRINE	1298	n/a	n/a	1	n/a	n/a	n/a	n/a	n/a
2862063	FFR_REC_WORD	wordpools/wasnorm_wordpool_less_exclusions.txt	LTP273	ltpFR	3	n/a	0	SPHINX	1349	n/a	n/a	1	n/a	n/a	n/a	n/a	n/a
2865979	FFR_REC_WORD	wordpools/wasnorm_wordpool_less_exclusions.txt	LTP273	ltpFR	3	n/a	1	MERMAID	887	n/a	n/a	1	n/a	n/a	n/a	n/a	n/a
2867121	FFR_REC_WORD	wordpools/wasnorm_wordpool_less_exclusions.txt	LTP273	ltpFR	3	n/a	n/a	OYSTER	995	n/a	n/a	n/a	n/a	n/a	n/a	n/a	n/a
2868004	FFR_REC_WORD	wordpools/wasnorm_wordpool_less_exclusions.txt	LTP273	ltpFR	3	n/a	1	CLAM	315	n/a	n/a	1	n/a	n/a	n/a	n/a	n/a
2870314	FFR_REC_WORD	wordpools/wasnorm_wordpool_less_exclusions.txt	LTP273	ltpFR	3	n/a	-1	ROCK	1201	n/a	n/a	-1	n/a	n/a	n/a	n/a	n/a
2872749	FFR_REC_WORD	wordpools/wasnorm_wordpool_less_exclusions.txt	LTP273	ltpFR	3	n/a	-1	CANYON	235	n/a	n/a	-1	n/a	n/a	n/a	n/a	n/a
2873657	FFR_REC_WORD	wordpools/wasnorm_wordpool_less_exclusions.txt	LTP273	ltpFR	3	n/a	-1	SPY	1360	n/a	n/a	-1	n/a	n/a	n/a	n/a	n/a
2876804	FFR_REC_WORD	wordpools/wasnorm_wordpool_less_exclusions.txt	LTP273	ltpFR	3	n/a	0	TOTE	1487	n/a	n/a	0	n/a	n/a	n/a	n/a	n/a
2889595	FFR_REC_WORD	wordpools/wasnorm_wordpool_less_exclusions.txt	LTP273	ltpFR	3	n/a	1	MERMAID	887	n/a	n/a	1	n/a	n/a	n/a	n/a	n/a
2890633	FFR_REC_WORD	wordpools/wasnorm_wordpool_less_exclusions.txt	LTP273	ltpFR	3	n/a	1	BOUILLON	154	n/a	n/a	1	n/a	n/a	n/a	n/a	n/a
2894614	FFR_REC_WORD	wordpools/wasnorm_wordpool_less_exclusions.txt	LTP273	ltpFR	3	n/a	0	APE	31	n/a	n/a	1	n/a	n/a	n/a	n/a	n/a
2897448	FFR_REC_WORD	wordpools/wasnorm_wordpool_less_exclusions.txt	LTP273	ltpFR	3	n/a	1	GIRAFFE	636	n/a	n/a	1	n/a	n/a	n/a	n/a	n/a
2899263	FFR_REC_WORD	wordpools/wasnorm_wordpool_less_exclusions.txt	LTP273	ltpFR	3	n/a	0	DONKEY	484	n/a	n/a	1	n/a	n/a	n/a	n/a	n/a
2906158	FFR_REC_WORD	wordpools/wasnorm_wordpool_less_exclusions.txt	LTP273	ltpFR	3	n/a	0	MONEY	908	n/a	n/a	0	n/a	n/a	n/a	n/a	n/a
2909031	FFR_REC_WORD	wordpools/wasnorm_wordpool_less_exclusions.txt	LTP273	ltpFR	3	n/a	0	SHOWER	1296	n/a	n/a	1	n/a	n/a	n/a	n/a	n/a
2910064	FFR_REC_WORD	wordpools/wasnorm_wordpool_less_exclusions.txt	LTP273	ltpFR	3	n/a	0	BULB	192	n/a	n/a	2	n/a	n/a	n/a	n/a	n/a
2910987	FFR_REC_WORD	wordpools/wasnorm_wordpool_less_exclusions.txt	LTP273	ltpFR	3	n/a	0	LAMP	798	n/a	n/a	1	n/a	n/a	n/a	n/a	n/a
2918435	FFR_REC_WORD	wordpools/wasnorm_wordpool_less_exclusions.txt	LTP273	ltpFR	3	n/a	0	HOSTESS	723	n/a	n/a	0	n/a	n/a	n/a	n/a	n/a
2919308	FFR_REC_WORD	wordpools/wasnorm_wordpool_less_exclusions.txt	LTP273	ltpFR	3	n/a	-1	SWATTER	1418	n/a	n/a	-1	n/a	n/a	n/a	n/a	n/a
2927369	FFR_REC_WORD	wordpools/wasnorm_wordpool_less_exclusions.txt	LTP273	ltpFR	3	n/a	-1	WAND	1586	n/a	n/a	-1	n/a	n/a	n/a	n/a	n/a
2943832	FFR_REC_WORD	wordpools/wasnorm_wordpool_less_exclusions.txt	LTP273	ltpFR	3	n/a	0	WITCH	1617	n/a	n/a	0	n/a	n/a	n/a	n/a	n/a
2945608	FFR_REC_WORD	wordpools/wasnorm_wordpool_less_exclusions.txt	LTP273	ltpFR	3	n/a	-1	WICK	1607	n/a	n/a	-1	n/a	n/a	n/a	n/a	n/a
2947943	FFR_REC_WORD	wordpools/wasnorm_wordpool_less_exclusions.txt	LTP273	ltpFR	3	n/a	1	FLEA	577	n/a	n/a	1	n/a	n/a	n/a	n/a	n/a
2949200	FFR_REC_WORD	wordpools/wasnorm_wordpool_less_exclusions.txt	LTP273	ltpFR	3	n/a	1	ANT	25	n/a	n/a	1	n/a	n/a	n/a	n/a	n/a
2954513	FFR_REC_WORD	wordpools/wasnorm_wordpool_less_exclusions.txt	LTP273	ltpFR	3	n/a	0	BRIDGE	174	n/a	n/a	1	n/a	n/a	n/a	n/a	n/a
2956049	FFR_REC_WORD	wordpools/wasnorm_wordpool_less_exclusions.txt	LTP273	ltpFR	3	n/a	0	BAY	102	n/a	n/a	1	n/a	n/a	n/a	n/a	n/a
2964585	FFR_REC_WORD	wordpools/wasnorm_wordpool_less_exclusions.txt	LTP273	ltpFR	3	n/a	0	SAXOPHONE	1240	n/a	n/a	1	n/a	n/a	n/a	n/a	n/a
2966161	FFR_REC_WORD	wordpools/wasnorm_wordpool_less_exclusions.txt	LTP273	ltpFR	3	n/a	0	OBOE	969	n/a	n/a	0	n/a	n/a	n/a	n/a	n/a
2973719	FFR_REC_WORD	wordpools/wasnorm_wordpool_less_exclusions.txt	LTP273	ltpFR	3	n/a	0	VAULT	1550	n/a	n/a	1	n/a	n/a	n/a	n/a	n/a
2976004	FFR_REC_WORD	wordpools/wasnorm_wordpool_less_exclusions.txt	LTP273	ltpFR	3	n/a	0	CASHIER	254	n/a	n/a	1	n/a	n/a	n/a	n/a	n/a
2985847	FFR_REC_WORD	wordpools/wasnorm_wordpool_less_exclusions.txt	LTP273	ltpFR	3	n/a	-1	CHAPEL	280	n/a	n/a	-1	n/a	n/a	n/a	n/a	n/a
2987762	FFR_REC_WORD	wordpools/wasnorm_wordpool_less_exclusions.txt	LTP273	ltpFR	3	n/a	-1	CROSS	413	n/a	n/a	-1	n/a	n/a	n/a	n/a	n/a
2989059	FFR_REC_WORD	wordpools/wasnorm_wordpool_less_exclusions.txt	LTP273	ltpFR	3	n/a	-1	CAP	236	n/a	n/a	-1	n/a	n/a	n/a	n/a	n/a
2993210	FFR_REC_WORD	wordpools/wasnorm_wordpool_less_exclusions.txt	LTP273	ltpFR	3	n/a	1	ANTEATER	26	n/a	n/a	1	n/a	n/a	n/a	n/a	n/a
3012122	FFR_REC_WORD	wordpools/wasnorm_wordpool_less_exclusions.txt	LTP273	ltpFR	3	n/a	-1	SOFA	1342	n/a	n/a	-1	n/a	n/a	n/a	n/a	n/a
3027517	FFR_REC_WORD	wordpools/wasnorm_wordpool_less_exclusions.txt	LTP273	ltpFR	3	n/a	-1	HEAD	695	n/a	n/a	-1	n/a	n/a	n/a	n/a	n/a
3029093	FFR_REC_WORD	wordpools/wasnorm_wordpool_less_exclusions.txt	LTP273	ltpFR	3	n/a	-1	FACE	547	n/a	n/a	-1	n/a	n/a	n/a	n/a	n/a
3083185	FFR_REC_WORD	wordpools/wasnorm_wordpool_less_exclusions.txt	LTP273	ltpFR	3	n/a	1	NEUTRON	947	n/a	n/a	1	n/a	n/a	n/a	n/a	n/a
3121389	FFR_REC_WORD	wordpools/wasnorm_wordpool_less_exclusions.txt	LTP273	ltpFR	3	n/a	1	SUPPER	1411	n/a	n/a	0	n/a	n/a	n/a	n/a	n/a
3127500	FFR_REC_WORD	wordpools/wasnorm_wordpool_less_exclusions.txt	LTP273	ltpFR	3	n/a	1	DINER	467	n/a	n/a	0	n/a	n/a	n/a	n/a	n/a
3138699	FFR_REC_WORD	wordpools/wasnorm_wordpool_less_exclusions.txt	LTP273	ltpFR	3	n/a	-1	GOLD	647	n/a	n/a	-1	n/a	n/a	n/a	n/a	n/a
3152563	FFR_REC_WORD	wordpools/wasnorm_wordpool_less_exclusions.txt	LTP273	ltpFR	3	n/a	0	GYMNAST	675	n/a	n/a	1	n/a	n/a	n/a	n/a	n/a
3295611	REC_START	n/a	LTP273	ltpFR	3	1	n/a	n/a	n/a	n/a	n/a	n/a	n/a	n/a	n/a	n/a	n/a
3295644	RECOG_TARGET	n/a	LTP273	ltpFR	3	1	1	ANTEATER	26	1	5	1	n/a	n/a	n/a	n/a	n/a
3299547	RECOG_RESP	n/a	LTP273	ltpFR	3	1	1	ANTEATER	26	1	n/a	1	n/a	n/a	n/a	n/a	n/a
3301221	RECOG_CONF	n/a	LTP273	ltpFR	3	1	1	ANTEATER	26	n/a	5	1	n/a	n/a	n/a	n/a	n/a
3303266	RECOG_TARGET	n/a	LTP273	ltpFR	3	1	1	RESTAURANT	1187	1	4	0	n/a	n/a	n/a	n/a	n/a
3304321	RECOG_RESP	n/a	LTP273	ltpFR	3	1	1	RESTAURANT	1187	1	n/a	0	n/a	n/a	n/a	n/a	n/a
3305211	RECOG_CONF	n/a	LTP273	ltpFR	3	1	1	RESTAURANT	1187	n/a	4	0	n/a	n/a	n/a	n/a	n/a
3306844	RECOG_TARGET	n/a	LTP273	ltpFR	3	1	0	POLYESTER	1100	1	5	0	n/a	n/a	n/a	n/a	n/a
3307686	RECOG_RESP	n/a	LTP273	ltpFR	3	1	0	POLYESTER	1100	1	n/a	0	n/a	n/a	n/a	n/a	n/a
3308411	RECOG_CONF	n/a	LTP273	ltpFR	3	1	0	POLYESTER	1100	n/a	5	0	n/a	n/a	n/a	n/a	n/a
3310089	RECOG_LURE	n/a	LTP273	ltpFR	3	1	n/a	SHELL	1281	0	3	n/a	n/a	n/a	n/a	n/a	n/a
3311236	RECOG_RESP	n/a	LTP273	ltpFR	3	1	n/a	SHELL	1281	0	n/a	n/a	n/a	n/a	n/a	n/a	n/a
3312011	RECOG_CONF	n/a	LTP273	ltpFR	3	1	n/a	SHELL	1281	n/a	3	n/a	n/a	n/a	n/a	n/a	n/a
3313502	RECOG_LURE	n/a	LTP273	ltpFR	3	1	n/a	MOOSE	915	0	5	n/a	n/a	n/a	n/a	n/a	n/a
3314396	RECOG_RESP	n/a	LTP273	ltpFR	3	1	n/a	MOOSE	915	0	n/a	n/a	n/a	n/a	n/a	n/a	n/a
3314971	RECOG_CONF	n/a	LTP273	ltpFR	3	1	n/a	MOOSE	915	n/a	5	n/a	n/a	n/a	n/a	n/a	n/a
3316629	RECOG_LURE	n/a	LTP273	ltpFR	3	1	n/a	DRINK	498	1	2	n/a	n/a	n/a	n/a	n/a	n/a
3317461	RECOG_RESP	n/a	LTP273	ltpFR	3	1	n/a	DRINK	498	1	n/a	n/a	n/a	n/a	n/a	n/a	n/a
3318171	RECOG_CONF	n/a	LTP273	ltpFR	3	1	n/a	DRINK	498	n/a	2	n/a	n/a	n/a	n/a	n/a	n/a
3319691	RECOG_TARGET	n/a	LTP273	ltpFR	3	1	0	SHOWER	1296	1	5	1	n/a	n/a	n/a	n/a	n/a
3320396	RECOG_RESP	n/a	LTP273	ltpFR	3	1	0	SHOWER	1296	1	n/a	1	n/a	n/a	n/a	n/a	n/a
3321031	RECOG_CONF	n/a	LTP273	ltpFR	3	1	0	SHOWER	1296	n/a	5	1	n/a	n/a	n/a	n/a	n/a
3322554	RECOG_LURE	n/a	LTP273	ltpFR	3	1	n/a	VICTIM	1562	0	4	n/a	n/a	n/a	n/a	n/a	n/a
3323466	RECOG_RESP	n/a	LTP273	ltpFR	3	1	n/a	VICTIM	1562	0	n/a	n/a	n/a	n/a	n/a	n/a	n/a
3324041	RECOG_CONF	n/a	LTP273	ltpFR	3	1	n/a	VICTIM	1562	n/a	4	n/a	n/a	n/a	n/a	n/a	n/a
3325732	RECOG_LURE	n/a	LTP273	ltpFR	3	1	n/a	CELLO	268	0	5	n/a	n/a	n/a	n/a	n/a	n/a
3326646	RECOG_RESP	n/a	LTP273	ltpFR	3	1	n/a	CELLO	268	0	n/a	n/a	n/a	n/a	n/a	n/a	n/a
3327191	RECOG_CONF	n/a	LTP273	ltpFR	3	1	n/a	CELLO	268	n/a	5	n/a	n/a	n/a	n/a	n/a	n/a
3328811	RECOG_TARGET	n/a	LTP273	ltpFR	3	1	1	JACKET	747	0	1	0	n/a	n/a	n/a	n/a	n/a
3329706	RECOG_RESP	n/a	LTP273	ltpFR	3	1	1	JACKET	747	0	n/a	0	n/a	n/a	n/a	n/a	n/a
3330391	RECOG_CONF	n/a	LTP273	ltpFR	3	1	1	JACKET	747	n/a	1	0	n/a	n/a	n/a	n/a	n/a
3331940	RECOG_LURE	n/a	LTP273	ltpFR	3	1	n/a	SKUNK	1321	0	1	n/a	n/a	n/a	n/a	n/a	n/a
3332771	RECOG_RESP	n/a	LTP273	ltpFR	3	1	n/a	SKUNK	1321	0	n/a	n/a	n/a	n/a	n/a	n/a	n/a
3333401	RECOG_CONF	n/a	LTP273	ltpFR	3	1	n/a	SKUNK	1321	n/a	1	n/a	n/a	n/a	n/a	n/a	n/a
3335018	RECOG_TARGET	n/a	LTP273	ltpFR	3	1	0	MAGICIAN	854	1	2	1	n/a	n/a	n/a	n/a	n/a
3336046	RECOG_RESP	n/a	LTP273	ltpFR	3	1	0	MAGICIAN	854	1	n/a	1	n/a	n/a	n/a	n/a	n/a
3336661	RECOG_CONF	n/a	LTP273	ltpFR	3	1	0	MAGICIAN	854	n/a	2	1	n/a	n/a	n/a	n/a	n/a
3338130	RECOG_TARGET	n/a	LTP273	ltpFR	3	1	1	CLAM	315	1	1	1	n/a	n/a	n/a	n/a	n/a
3338736	RECOG_RESP	n/a	LTP273	ltpFR	3	1	1	CLAM	315	1	n/a	1	n/a	n/a	n/a	n/a	n/a
3339491	RECOG_CONF	n/a	LTP273	ltpFR	3	1	1	CLAM	315	n/a	1	1	n/a	n/a	n/a	n/a	n/a
3340993	RECOG_TARGET	n/a	LTP273	ltpFR	3	1	1	TUBE	1516	0	4	0	n/a	n/a	n/a	n/a	n/a
3341951	RECOG_RESP	n/a	LTP273	ltpFR	3	1	1	TUBE	1516	0	n/a	0	n/a	n/a	n/a	n/a	n/a
3342521	RECOG_CONF	n/a	LTP273	ltpFR	3	1	1	TUBE	1516	n/a	4	0	n/a	n/a	n/a	n/a	n/a
3344271	RECOG_TARGET	n/a	LTP273	ltpFR	3	1	1	SHARK	1275	1	3	1	n/a	n/a	n/a	n/a	n/a
3345151	RECOG_RESP	n/a	LTP273	ltpFR	3	1	1	SHARK	1275	1	n/a	1	n/a	n/a	n/a	n/a	n/a
3345831	RECOG_CONF	n/a	LTP273	ltpFR	3	1	1	SHARK	1275	n/a	3	1	n/a	n/a	n/a	n/a	n/a
3347250	RECOG_TARGET	n/a	LTP273	ltpFR	3	1	1	OUTDOORS	987	0	4	0	n/a	n/a	n/a	n/a	n/a
3348381	RECOG_RESP	n/a	LTP273	ltpFR	3	1	1	OUTDOORS	987	0	n/a	0	n/a	n/a	n/a	n/a	n/a
3349401	RECOG_CONF	n/a	LTP273	ltpFR	3	1	1	OUTDOORS	987	n/a	4	0	n/a	n/a	n/a	n/a	n/a
3350928	RECOG_TARGET	n/a	LTP273	ltpFR	3	1	0	CHESS	294	1	2	0	n/a	n/a	n/a	n/a	n/a
3352041	RECOG_RESP	n/a	LTP273	ltpFR	3	1	0	CHESS	294	1	n/a	0	n/a	n/a	n/a	n/a	n/a
3352741	RECOG_CONF	n/a	LTP273	ltpFR	3	1	0	CHESS	294	n/a	2	0	n/a	n/a	n/a	n/a	n/a
3354273	RECOG_TARGET	n/a	LTP273	ltpFR	3	1	1	PELICAN	1039	1	3	1	n/a	n/a	n/a	n/a	n/a
3355011	RECOG_RESP	n/a	LTP273	ltpFR	3	1	1	PELICAN	1039	1	n/a	1	n/a	n/a	n/a	n/a	n/a
3355636	RECOG_CONF	n/a	LTP273	ltpFR	3	1	1	PELICAN	1039	n/a	3	1	n/a	n/a	n/a	n/a	n/a
3357169	RECOG_TARGET	n/a	LTP273	ltpFR	3	1	0	WHISTLE	1606	0	2	0	n/a	n/a	n/a	n/a	n/a
3358096	RECOG_RESP	n/a	LTP273	ltpFR	3	1	0	WHISTLE	1606	0	n/a	0	n/a	n/a	n/a	n/a	n/a
3358591	RECOG_CONF	n/a	LTP273	ltpFR	3	1	0	WHISTLE	1606	n/a	2	0	n/a	n/a	n/a	n/a	n/a
3360264	RECOG_TARGET	n/a	LTP273	ltpFR	3	1	0	PASTRY	1022	1	1	0	n/a	n/a	n/a	n/a	n/a
3361346	RECOG_RESP	n/a	LTP273	ltpFR	3	1	0	PASTRY	1022	1	n/a	0	n/a	n/a	n/a	n/a	n/a
3362011	RECOG_CONF	n/a	LTP273	ltpFR	3	1	0	PASTRY	1022	n/a	1	0	n/a	n/a	n/a	n/a	n/a
3366362	REC_START	n/a	LTP273	ltpFR	3	2	n/a	n/a	n/a	n/a	n/a	n/a	n/a	n/a	n/a	n/a	n/a
3366389	RECOG_TARGET	n/a	LTP273	ltpFR	3	2	1	COUNTY	389	1	2	0	n/a	n/a	n/a	n/a	n/a
3368187	RECOG_RESP	n/a	LTP273	ltpFR	3	2	1	COUNTY	389	1	n/a	0	n/a	n/a	n/a	n/a	n/a
3368812	RECOG_CONF	n/a	LTP273	ltpFR	3	2	1	COUNTY	389	n/a	2	0	n/a	n/a	n/a	n/a	n/a
3370366	RECOG_TARGET	n/a	LTP273	ltpFR	3	2	0	SILVERWARE	1308	1	4	0	n/a	n/a	n/a	n/a	n/a
3371037	RECOG_RESP	n/a	LTP273	ltpFR	3	2	0	SILVERWARE	1308	1	n/a	0	n/a	n/a	n/a	n/a	n/a
3371582	RECOG_CONF	n/a	LTP273	ltpFR	3	2	0	SILVERWARE	1308	n/a	4	0	n/a	n/a	n/a	n/a	n/a
3373128	RECOG_TARGET	n/a	LTP273	ltpFR	3	2	1	NOTE	958	1	2	0	n/a	n/a	n/a	n/a	n/a
3373872	RECOG_RESP	n/a	LTP273	ltpFR	3	2	1	NOTE	958	1	n/a	0	n/a	n/a	n/a	n/a	n/a
3374722	RECOG_CONF	n/a	LTP273	ltpFR	3	2	1	NOTE	958	n/a	2	0	n/a	n/a	n/a	n/a	n/a
3376273	RECOG_TARGET	n/a	LTP273	ltpFR	3	2	0	CARD	243	1	3	0	n/a	n/a	n/a	n/a	n/a
3377072	RECOG_RESP	n/a	LTP273	ltpFR	3	2	0	CARD	243	1	n/a	0	n/a	n/a	n/a	n/a	n/a
3377642	RECOG_CONF	n/a	LTP273	ltpFR	3	2	0	CARD	243	n/a	3	0	n/a	n/a	n/a	n/a	n/a
3379236	RECOG_TARGET	n/a	LTP273	ltpFR	3	2	0	CELERY	266	1	1	0	n/a	n/a	n/a	n/a	n/a
3379852	RECOG_RESP	n/a	LTP273	ltpFR	3	2	0	CELERY	266	1	n/a	0	n/a	n/a	n/a	n/a	n/a
3380542	RECOG_CONF	n/a	LTP273	ltpFR	3	2	0	CELERY	266	n/a	1	0	n/a	n/a	n/a	n/a	n/a
3382015	RECOG_TARGET	n/a	LTP273	ltpFR	3	2	-1	SCRIBBLE	1256	0	2	-1	n/a	n/a	n/a	n/a	n/a
3383122	RECOG_RESP	n/a	LTP273	ltpFR	3	2	-1	SCRIBBLE	1256	0	n/a	-1	n/a	n/a	n/a	n/a	n/a
3383627	RECOG_CONF	n/a	LTP273	ltpFR	3	2	-1	SCRIBBLE	1256	n/a	2	-1	n/a	n/a	n/a	n/a	n/a
3385260	RECOG_TARGET	n/a	LTP273	ltpFR	3	2	1	SNEAKER	1334	1	3	0	n/a	n/a	n/a	n/a	n/a
3386172	RECOG_RESP	n/a	LTP273	ltpFR	3	2	1	SNEAKER	1334	1	n/a	0	n/a	n/a	n/a	n/a	n/a
3386862	RECOG_CONF	n/a	LTP273	ltpFR	3	2	1	SNEAKER	1334	n/a	3	0	n/a	n/a	n/a	n/a	n/a
3388523	RECOG_LURE	n/a	LTP273	ltpFR	3	2	n/a	CONSOLE	364	0	5	n/a	n/a	n/a	n/a	n/a	n/a
3389287	RECOG_RESP	n/a	LTP273	ltpFR	3	2	n/a	CONSOLE	364	0	n/a	n/a	n/a	n/a	n/a	n/a	n/a
3389882	RECOG_CONF	n/a	LTP273	ltpFR	3	2	n/a	CONSOLE	364	n/a	5	n/a	n/a	n/a	n/a	n/a	n/a
3391551	RECOG_TARGET	n/a	LTP273	ltpFR	3	2	-1	PISTON	1076	1	5	-1	n/a	n/a	n/a	n/a	n/a
3392412	RECOG_RESP	n/a	LTP273	ltpFR	3	2	-1	PISTON	1076	1	n/a	-1	n/a	n/a	n/a	n/a	n/a
3393042	RECOG_CONF	n/a	LTP273	ltpFR	3	2	-1	PISTON	1076	n/a	5	-1	n/a	n/a	n/a	n/a	n/a
3394663	RECOG_TARGET	n/a	LTP273	ltpFR	3	2	0	STEREO	1378	0	2	1	n/a	n/a	n/a	n/a	n/a
3395482	RECOG_RESP	n/a	LTP273	ltpFR	3	2	0	STEREO	1378	0	n/a	1	n/a	n/a	n/a	n/a	n/a
3396862	RECOG_CONF	n/a	LTP273	ltpFR	3	2	0	STEREO	1378	n/a	2	1	n/a	n/a	n/a	n/a	n/a
3398508	RECOG_LURE	n/a	LTP273	ltpFR	3	2	n/a	CAKE	219	0	1	n/a	n/a	n/a	n/a	n/a	n/a
3400232	RECOG_RESP	n/a	LTP273	ltpFR	3	2	n/a	CAKE	219	0	n/a	n/a	n/a	n/a	n/a	n/a	n/a
3400987	RECOG_CONF	n/a	LTP273	ltpFR	3	2	n/a	CAKE	219	n/a	1	n/a	n/a	n/a	n/a	n/a	n/a
3402535	RECOG_TARGET	n/a	LTP273	ltpFR	3	2	0	SHRINE	1298	1	5	1	n/a	n/a	n/a	n/a	n/a
3403442	RECOG_RESP	n/a	LTP273	ltpFR	3	2	0	SHRINE	1298	1	n/a	1	n/a	n/a	n/a	n/a	n/a
3404132	RECOG_CONF	n/a	LTP273	ltpFR	3	2	0	SHRINE	1298	n/a	5	1	n/a	n/a	n/a	n/a	n/a
3405514	RECOG_TARGET	n/a	LTP273	ltpFR	3	2	1	CANOE	233	1	3	0	n/a	n/a	n/a	n/a	n/a
3406647	RECOG_RESP	n/a	LTP273	ltpFR	3	2	1	CANOE	233	1	n/a	0	n/a	n/a	n/a	n/a	n/a
3407272	RECOG_CONF	n/a	LTP273	ltpFR	3	2	1	CANOE	233	n/a	3	0	n/a	n/a	n/a	n/a	n/a
3408925	RECOG_TARGET	n/a	LTP273	ltpFR	3	2	1	FUR	615	1	2	0	n/a	n/a	n/a	n/a	n/a
3409657	RECOG_RESP	n/a	LTP273	ltpFR	3	2	1	FUR	615	1	n/a	0	n/a	n/a	n/a	n/a	n/a
3410362	RECOG_CONF	n/a	LTP273	ltpFR	3	2	1	FUR	615	n/a	2	0	n/a	n/a	n/a	n/a	n/a
3412003	RECOG_TARGET	n/a	LTP273	ltpFR	3	2	0	OBOE	969	1	4	0	n/a	n/a	n/a	n/a	n/a
3412657	RECOG_RESP	n/a	LTP273	ltpFR	3	2	0	OBOE	969	1	n/a	0	n/a	n/a	n/a	n/a	n/a
3413318	RECOG_CONF	n/a	LTP273	ltpFR	3	2	0	OBOE	969	n/a	4	0	n/a	n/a	n/a	n/a	n/a
3414916	RECOG_TARGET	n/a	LTP273	ltpFR	3	2	-1	TOWN	1491	0	1	-1	n/a	n/a	n/a	n/a	n/a
3416767	RECOG_RESP	n/a	LTP273	ltpFR	3	2	-1	TOWN	1491	0	n/a	-1	n/a	n/a	n/a	n/a	n/a
3417722	RECOG_CONF	n/a	LTP273	ltpFR	3	2	-1	TOWN	1491	n/a	1	-1	n/a	n/a	n/a	n/a	n/a
3419309	RECOG_LURE	n/a	LTP273	ltpFR	3	2	n/a	ACID	2	0	3	n/a	n/a	n/a	n/a	n/a	n/a
3420157	RECOG_RESP	n/a	LTP273	ltpFR	3	2	n/a	ACID	2	0	n/a	n/a	n/a	n/a	n/a	n/a	n/a
3420792	RECOG_CONF	n/a	LTP273	ltpFR	3	2	n/a	ACID	2	n/a	3	n/a	n/a	n/a	n/a	n/a	n/a
3422439	RECOG_TARGET	n/a	LTP273	ltpFR	3	2	-1	FAUCET	555	1	3	-1	n/a	n/a	n/a	n/a	n/a
3423277	RECOG_RESP	n/a	LTP273	ltpFR	3	2	-1	FAUCET	555	1	n/a	-1	n/a	n/a	n/a	n/a	n/a
3423862	RECOG_CONF	n/a	LTP273	ltpFR	3	2	-1	FAUCET	555	n/a	3	-1	n/a	n/a	n/a	n/a	n/a
3425518	RECOG_TARGET	n/a	LTP273	ltpFR	3	2	0	RAG	1160	0	2	0	n/a	n/a	n/a	n/a	n/a
3427067	RECOG_RESP	n/a	LTP273	ltpFR	3	2	0	RAG	1160	0	n/a	0	n/a	n/a	n/a	n/a	n/a
3427622	RECOG_CONF	n/a	LTP273	ltpFR	3	2	0	RAG	1160	n/a	2	0	n/a	n/a	n/a	n/a	n/a
3429178	RECOG_TARGET	n/a	LTP273	ltpFR	3	2	-1	ARCHITECT	36	1	4	-1	n/a	n/a	n/a	n/a	n/a
3430292	RECOG_RESP	n/a	LTP273	ltpFR	3	2	-1	ARCHITECT	36	1	n/a	-1	n/a	n/a	n/a	n/a	n/a
3430872	RECOG_CONF	n/a	LTP273	ltpFR	3	2	-1	ARCHITECT	36	n/a	4	-1	n/a	n/a	n/a	n/a	n/a
3434582	REC_START	n/a	LTP273	ltpFR	3	3	n/a	n/a	n/a	n/a	n/a	n/a	n/a	n/a	n/a	n/a	n/a
3434620	RECOG_LURE	n/a	LTP273	ltpFR	3	3	n/a	PRODUCER	1129	0	2	n/a	n/a	n/a	n/a	n/a	n/a
3435667	RECOG_RESP	n/a	LTP273	ltpFR	3	3	n/a	PRODUCER	1129	0	n/a	n/a	n/a	n/a	n/a	n/a	n/a
3436252	RECOG_CONF	n/a	LTP273	ltpFR	3	3	n/a	PRODUCER	1129	n/a	2	n/a	n/a	n/a	n/a	n/a	n/a
3437748	RECOG_TARGET	n/a	LTP273	ltpFR	3	3	-1	TEA	1439	1	5	-1	n/a	n/a	n/a	n/a	n/a
3438487	RECOG_RESP	n/a	LTP273	ltpFR	3	3	-1	TEA	1439	1	n/a	-1	n/a	n/a	n/a	n/a	n/a
3439142	RECOG_CONF	n/a	LTP273	ltpFR	3	3	-1	TEA	1439	n/a	5	-1	n/a	n/a	n/a	n/a	n/a
3440677	RECOG_TARGET	n/a	LTP273	ltpFR	3	3	1	FEMALE	559	1	4	1	n/a	n/a	n/a	n/a	n/a
3441507	RECOG_RESP	n/a	LTP273	ltpFR	3	3	1	FEMALE	559	1	n/a	1	n/a	n/a	n/a	n/a	n/a
3442115	RECOG_CONF	n/a	LTP273	ltpFR	3	3	1	FEMALE	559	n/a	4	1	n/a	n/a	n/a	n/a	n/a
3443756	RECOG_TARGET	n/a	LTP273	ltpFR	3	3	0	RABBIT	1152	1	5	1	n/a	n/a	n/a	n/a	n/a
3444412	RECOG_RESP	n/a	LTP273	ltpFR	3	3	0	RABBIT	1152	1	n/a	1	n/a	n/a	n/a	n/a	n/a
3444967	RECOG_CONF	n/a	LTP273	ltpFR	3	3	0	RABBIT	1152	n/a	5	1	n/a	n/a	n/a	n/a	n/a
3446602	RECOG_TARGET	n/a	LTP273	ltpFR	3	3	-1	RADISH	1158	0	4	-1	n/a	n/a	n/a	n/a	n/a
3447557	RECOG_RESP	n/a	LTP273	ltpFR	3	3	-1	RADISH	1158	0	n/a	-1	n/a	n/a	n/a	n/a	n/a
3448052	RECOG_CONF	n/a	LTP273	ltpFR	3	3	-1	RADISH	1158	n/a	4	-1	n/a	n/a	n/a	n/a	n/a
3449664	RECOG_LURE	n/a	LTP273	ltpFR	3	3	n/a	CALENDAR	221	0	2	n/a	n/a	n/a	n/a	n/a	n/a
3450867	RECOG_RESP	n/a	LTP273	ltpFR	3	3	n/a	CALENDAR	221	0	n/a	n/a	n/a	n/a	n/a	n/a	n/a
3451542	RECOG_CONF	n/a	LTP273	ltpFR	3	3	n/a	CALENDAR	221	n/a	2	n/a	n/a	n/a	n/a	n/a	n/a
3453025	RECOG_TARGET	n/a	LTP273	ltpFR	3	3	1	BUSH	202	1	3	0	n/a	n/a	n/a	n/a	n/a
3454222	RECOG_RESP	n/a	LTP273	ltpFR	3	3	1	BUSH	202	1	n/a	0	n/a	n/a	n/a	n/a	n/a
3454882	RECOG_CONF	n/a	LTP273	ltpFR	3	3	1	BUSH	202	n/a	3	0	n/a	n/a	n/a	n/a	n/a
3456371	RECOG_TARGET	n/a	LTP273	ltpFR	3	3	1	DOUGHNUT	490	1	4	0	n/a	n/a	n/a	n/a	n/a
3457122	RECOG_RESP	n/a	LTP273	ltpFR	3	3	1	DOUGHNUT	490	1	n/a	0	n/a	n/a	n/a	n/a	n/a
3457692	RECOG_CONF	n/a	LTP273	ltpFR	3	3	1	DOUGHNUT	490	n/a	4	0	n/a	n/a	n/a	n/a	n/a
3459349	RECOG_TARGET	n/a	LTP273	ltpFR	3	3	1	NOVEL	960	1	3	0	n/a	n/a	n/a	n/a	n/a
3460152	RECOG_RESP	n/a	LTP273	ltpFR	3	3	1	NOVEL	960	1	n/a	0	n/a	n/a	n/a	n/a	n/a
3460737	RECOG_CONF	n/a	LTP273	ltpFR	3	3	1	NOVEL	960	n/a	3	0	n/a	n/a	n/a	n/a	n/a
3462295	RECOG_TARGET	n/a	LTP273	ltpFR	3	3	-1	CAP	236	1	5	-1	n/a	n/a	n/a	n/a	n/a
3463087	RECOG_RESP	n/a	LTP273	ltpFR	3	3	-1	CAP	236	1	n/a	-1	n/a	n/a	n/a	n/a	n/a
3463782	RECOG_CONF	n/a	LTP273	ltpFR	3	3	-1	CAP	236	n/a	5	-1	n/a	n/a	n/a	n/a	n/a
3465340	RECOG_TARGET	n/a	LTP273	ltpFR	3	3	0	SLEEVE	1324	1	4	0	n/a	n/a	n/a	n/a	n/a
3466112	RECOG_RESP	n/a	LTP273	ltpFR	3	3	0	SLEEVE	1324	1	n/a	0	n/a	n/a	n/a	n/a	n/a
3466662	RECOG_CONF	n/a	LTP273	ltpFR	3	3	0	SLEEVE	1324	n/a	4	0	n/a	n/a	n/a	n/a	n/a
3468170	RECOG_TARGET	n/a	LTP273	ltpFR	3	3	1	COP	376	1	2	1	n/a	n/a	n/a	n/a	n/a
3468972	RECOG_RESP	n/a	LTP273	ltpFR	3	3	1	COP	376	1	n/a	1	n/a	n/a	n/a	n/a	n/a
3469627	RECOG_CONF	n/a	LTP273	ltpFR	3	3	1	COP	376	n/a	2	1	n/a	n/a	n/a	n/a	n/a
3471182	RECOG_LURE	n/a	LTP273	ltpFR	3	3	n/a	TRICYCLE	1506	1	1	n/a	n/a	n/a	n/a	n/a	n/a
3472012	RECOG_RESP	n/a	LTP273	ltpFR	3	3	n/a	TRICYCLE	1506	1	n/a	n/a	n/a	n/a	n/a	n/a	n/a
3472672	RECOG_CONF	n/a	LTP273	ltpFR	3	3	n/a	TRICYCLE	1506	n/a	1	n/a	n/a	n/a	n/a	n/a	n/a
3474277	RECOG_TARGET	n/a	LTP273	ltpFR	3	3	0	HANGER	687	1	3	0	n/a	n/a	n/a	n/a	n/a
3475207	RECOG_RESP	n/a	LTP273	ltpFR	3	3	0	HANGER	687	1	n/a	0	n/a	n/a	n/a	n/a	n/a
3475867	RECOG_CONF	n/a	LTP273	ltpFR	3	3	0	HANGER	687	n/a	3	0	n/a	n/a	n/a	n/a	n/a
3477457	RECOG_TARGET	n/a	LTP273	ltpFR	3	3	0	TROUT	1511	1	4	0	n/a	n/a	n/a	n/a	n/a
3478167	RECOG_RESP	n/a	LTP273	ltpFR	3	3	0	TROUT	1511	1	n/a	0	n/a	n/a	n/a	n/a	n/a
3478732	RECOG_CONF	n/a	LTP273	ltpFR	3	3	0	TROUT	1511	n/a	4	0	n/a	n/a	n/a	n/a	n/a
3480469	RECOG_TARGET	n/a	LTP273	ltpFR	3	3	-1	WAND	1586	1	4	-1	n/a	n/a	n/a	n/a	n/a
3481092	RECOG_RESP	n/a	LTP273	ltpFR	3	3	-1	WAND	1586	1	n/a	-1	n/a	n/a	n/a	n/a	n/a
3481617	RECOG_CONF	n/a	LTP273	ltpFR	3	3	-1	WAND	1586	n/a	4	-1	n/a	n/a	n/a	n/a	n/a
3483230	RECOG_TARGET	n/a	LTP273	ltpFR	3	3	-1	CINNAMON	310	1	5	-1	n/a	n/a	n/a	n/a	n/a
3483852	RECOG_RESP	n/a	LTP273	ltpFR	3	3	-1	CINNAMON	310	1	n/a	-1	n/a	n/a	n/a	n/a	n/a
3484442	RECOG_CONF	n/a	LTP273	ltpFR	3	3	-1	CINNAMON	310	n/a	5	-1	n/a	n/a	n/a	n/a	n/a
3486026	RECOG_TARGET	n/a	LTP273	ltpFR	3	3	-1	HEAD	695	1	5	-1	n/a	n/a	n/a	n/a	n/a
3486612	RECOG_RESP	n/a	LTP273	ltpFR	3	3	-1	HEAD	695	1	n/a	-1	n/a	n/a	n/a	n/a	n/a
3487202	RECOG_CONF	n/a	LTP273	ltpFR	3	3	-1	HEAD	695	n/a	5	-1	n/a	n/a	n/a	n/a	n/a
3488706	RECOG_TARGET	n/a	LTP273	ltpFR	3	3	1	COOKIE	374	1	2	0	n/a	n/a	n/a	n/a	n/a
3489427	RECOG_RESP	n/a	LTP273	ltpFR	3	3	1	COOKIE	374	1	n/a	0	n/a	n/a	n/a	n/a	n/a
3489977	RECOG_CONF	n/a	LTP273	ltpFR	3	3	1	COOKIE	374	n/a	2	0	n/a	n/a	n/a	n/a	n/a
3491536	RECOG_TARGET	n/a	LTP273	ltpFR	3	3	0	DESIGNER	451	1	3	1	n/a	n/a	n/a	n/a	n/a
3492172	RECOG_RESP	n/a	LTP273	ltpFR	3	3	0	DESIGNER	451	1	n/a	1	n/a	n/a	n/a	n/a	n/a
3492742	RECOG_CONF	n/a	LTP273	ltpFR	3	3	0	DESIGNER	451	n/a	3	1	n/a	n/a	n/a	n/a	n/a
3496171	REC_START	n/a	LTP273	ltpFR	3	4	n/a	n/a	n/a	n/a	n/a	n/a	n/a	n/a	n/a	n/a	n/a
3496211	RECOG_TARGET	n/a	LTP273	ltpFR	3	4	0	SWING	1421	0	2	1	n/a	n/a	n/a	n/a	n/a
3497206	RECOG_RESP	n/a	LTP273	ltpFR	3	4	0	SWING	1421	0	n/a	1	n/a	n/a	n/a	n/a	n/a
3497826	RECOG_CONF	n/a	LTP273	ltpFR	3	4	0	SWING	1421	n/a	2	1	n/a	n/a	n/a	n/a	n/a
3499474	RECOG_TARGET	n/a	LTP273	ltpFR	3	4	-1	SIGN	1305	1	4	-1	n/a	n/a	n/a	n/a	n/a
3500496	RECOG_RESP	n/a	LTP273	ltpFR	3	4	-1	SIGN	1305	1	n/a	-1	n/a	n/a	n/a	n/a	n/a
3500961	RECOG_CONF	n/a	LTP273	ltpFR	3	4	-1	SIGN	1305	n/a	4	-1	n/a	n/a	n/a	n/a	n/a
3502651	RECOG_TARGET	n/a	LTP273	ltpFR	3	4	-1	TORCH	1484	0	4	-1	n/a	n/a	n/a	n/a	n/a
3503531	RECOG_RESP	n/a	LTP273	ltpFR	3	4	-1	TORCH	1484	0	n/a	-1	n/a	n/a	n/a	n/a	n/a
3503981	RECOG_CONF	n/a	LTP273	ltpFR	3	4	-1	TORCH	1484	n/a	4	-1	n/a	n/a	n/a	n/a	n/a
3505647	RECOG_TARGET	n/a	LTP273	ltpFR	3	4	1	MERMAID	887	1	4	1	n/a	n/a	n/a	n/a	n/a
3506671	RECOG_RESP	n/a	LTP273	ltpFR	3	4	1	MERMAID	887	1	n/a	1	n/a	n/a	n/a	n/a	n/a
3507271	RECOG_CONF	n/a	LTP273	ltpFR	3	4	1	MERMAID	887	n/a	4	1	n/a	n/a	n/a	n/a	n/a
3508842	RECOG_LURE	n/a	LTP273	ltpFR	3	4	n/a	ELBOW	520	1	1	n/a	n/a	n/a	n/a	n/a	n/a
3509591	RECOG_RESP	n/a	LTP273	ltpFR	3	4	n/a	ELBOW	520	1	n/a	n/a	n/a	n/a	n/a	n/a	n/a
3510321	RECOG_CONF	n/a	LTP273	ltpFR	3	4	n/a	ELBOW	520	n/a	1	n/a	n/a	n/a	n/a	n/a	n/a
3511971	RECOG_TARGET	n/a	LTP273	ltpFR	3	4	1	RAM	1165	1	3	1	n/a	n/a	n/a	n/a	n/a
3512811	RECOG_RESP	n/a	LTP273	ltpFR	3	4	1	RAM	1165	1	n/a	1	n/a	n/a	n/a	n/a	n/a
3513471	RECOG_CONF	n/a	LTP273	ltpFR	3	4	1	RAM	1165	n/a	3	1	n/a	n/a	n/a	n/a	n/a
3515050	RECOG_TARGET	n/a	LTP273	ltpFR	3	4	0	REGISTER	1180	1	4	1	n/a	n/a	n/a	n/a	n/a
3515791	RECOG_RESP	n/a	LTP273	ltpFR	3	4	0	REGISTER	1180	1	n/a	1	n/a	n/a	n/a	n/a	n/a
3516331	RECOG_CONF	n/a	LTP273	ltpFR	3	4	0	REGISTER	1180	n/a	4	1	n/a	n/a	n/a	n/a	n/a
3517962	RECOG_TARGET	n/a	LTP273	ltpFR	3	4	1	GRASSHOPPER	656	1	5	1	n/a	n/a	n/a	n/a	n/a
3518626	RECOG_RESP	n/a	LTP273	ltpFR	3	4	1	GRASSHOPPER	656	1	n/a	1	n/a	n/a	n/a	n/a	n/a
3519101	RECOG_CONF	n/a	LTP273	ltpFR	3	4	1	GRASSHOPPER	656	n/a	5	1	n/a	n/a	n/a	n/a	n/a
3520724	RECOG_TARGET	n/a	LTP273	ltpFR	3	4	1	RIVER	1194	1	5	0	n/a	n/a	n/a	n/a	n/a
3521426	RECOG_RESP	n/a	LTP273	ltpFR	3	4	1	RIVER	1194	1	n/a	0	n/a	n/a	n/a	n/a	n/a
3521941	RECOG_CONF	n/a	LTP273	ltpFR	3	4	1	RIVER	1194	n/a	5	0	n/a	n/a	n/a	n/a	n/a
3523637	RECOG_TARGET	n/a	LTP273	ltpFR	3	4	0	DISH	474	1	2	0	n/a	n/a	n/a	n/a	n/a
3524506	RECOG_RESP	n/a	LTP273	ltpFR	3	4	0	DISH	474	1	n/a	0	n/a	n/a	n/a	n/a	n/a
3525096	RECOG_CONF	n/a	LTP273	ltpFR	3	4	0	DISH	474	n/a	2	0	n/a	n/a	n/a	n/a	n/a
3526799	RECOG_LURE	n/a	LTP273	ltpFR	3	4	n/a	SIDEWALK	1303	0	3	n/a	n/a	n/a	n/a	n/a	n/a
3527661	RECOG_RESP	n/a	LTP273	ltpFR	3	4	n/a	SIDEWALK	1303	0	n/a	n/a	n/a	n/a	n/a	n/a	n/a
3528346	RECOG_CONF	n/a	LTP273	ltpFR	3	4	n/a	SIDEWALK	1303	n/a	3	n/a	n/a	n/a	n/a	n/a	n/a
3529861	RECOG_TARGET	n/a	LTP273	ltpFR	3	4	1	MANSION	864	1	4	0	n/a	n/a	n/a	n/a	n/a
3530796	RECOG_RESP	n/a	LTP273	ltpFR	3	4	1	MANSION	864	1	n/a	0	n/a	n/a	n/a	n/a	n/a
3531691	RECOG_CONF	n/a	LTP273	ltpFR	3	4	1	MANSION	864	n/a	4	0	n/a	n/a	n/a	n/a	n/a
3533440	RECOG_LURE	n/a	LTP273	ltpFR	3	4	n/a	CARTON	251	1	1	n/a	n/a	n/a	n/a	n/a	n/a
3534361	RECOG_RESP	n/a	LTP273	ltpFR	3	4	n/a	CARTON	251	1	n/a	n/a	n/a	n/a	n/a	n/a	n/a
3534971	RECOG_CONF	n/a	LTP273	ltpFR	3	4	n/a	CARTON	251	n/a	1	n/a	n/a	n/a	n/a	n/a	n/a
3536551	RECOG_TARGET	n/a	LTP273	ltpFR	3	4	-1	FRIES	607	1	2	-1	n/a	n/a	n/a	n/a	n/a
3537241	RECOG_RESP	n/a	LTP273	ltpFR	3	4	-1	FRIES	607	1	n/a	-1	n/a	n/a	n/a	n/a	n/a
3537831	RECOG_CONF	n/a	LTP273	ltpFR	3	4	-1	FRIES	607	n/a	2	-1	n/a	n/a	n/a	n/a	n/a
3539481	RECOG_LURE	n/a	LTP273	ltpFR	3	4	n/a	WOMAN	1620	1	1	n/a	n/a	n/a	n/a	n/a	n/a
3540531	RECOG_RESP	n/a	LTP273	ltpFR	3	4	n/a	WOMAN	1620	1	n/a	n/a	n/a	n/a	n/a	n/a	n/a
3541821	RECOG_CONF	n/a	LTP273	ltpFR	3	4	n/a	WOMAN	1620	n/a	1	n/a	n/a	n/a	n/a	n/a	n/a
3543475	RECOG_TARGET	n/a	LTP273	ltpFR	3	4	0	TREAD	1499	1	4	0	n/a	n/a	n/a	n/a	n/a
3544291	RECOG_RESP	n/a	LTP273	ltpFR	3	4	0	TREAD	1499	1	n/a	0	n/a	n/a	n/a	n/a	n/a
3544871	RECOG_CONF	n/a	LTP273	ltpFR	3	4	0	TREAD	1499	n/a	4	0	n/a	n/a	n/a	n/a	n/a
3546487	RECOG_TARGET	n/a	LTP273	ltpFR	3	4	0	GRADUATE	653	1	3	1	n/a	n/a	n/a	n/a	n/a
3547556	RECOG_RESP	n/a	LTP273	ltpFR	3	4	0	GRADUATE	653	1	n/a	1	n/a	n/a	n/a	n/a	n/a
3548221	RECOG_CONF	n/a	LTP273	ltpFR	3	4	0	GRADUATE	653	n/a	3	1	n/a	n/a	n/a	n/a	n/a
3549665	RECOG_TARGET	n/a	LTP273	ltpFR	3	4	0	CELLAR	267	1	3	1	n/a	n/a	n/a	n/a	n/a
3550581	RECOG_RESP	n/a	LTP273	ltpFR	3	4	0	CELLAR	267	1	n/a	1	n/a	n/a	n/a	n/a	n/a
3551166	RECOG_CONF	n/a	LTP273	ltpFR	3	4	0	CELLAR	267	n/a	3	1	n/a	n/a	n/a	n/a	n/a
3552810	RECOG_TARGET	n/a	LTP273	ltpFR	3	4	1	NEUTRON	947	1	4	1	n/a	n/a	n/a	n/a	n/a
3553461	RECOG_RESP	n/a	LTP273	ltpFR	3	4	1	NEUTRON	947	1	n/a	1	n/a	n/a	n/a	n/a	n/a
3553951	RECOG_CONF	n/a	LTP273	ltpFR	3	4	1	NEUTRON	947	n/a	4	1	n/a	n/a	n/a	n/a	n/a
3555705	RECOG_TARGET	n/a	LTP273	ltpFR	3	4	1	PHILOSOPHER	1054	1	5	1	n/a	n/a	n/a	n/a	n/a
3556336	RECOG_RESP	n/a	LTP273	ltpFR	3	4	1	PHILOSOPHER	1054	1	n/a	1	n/a	n/a	n/a	n/a	n/a
3556901	RECOG_CONF	n/a	LTP273	ltpFR	3	4	1	PHILOSOPHER	1054	n/a	5	1	n/a	n/a	n/a	n/a	n/a
3560142	REC_START	n/a	LTP273	ltpFR	3	5	n/a	n/a	n/a	n/a	n/a	n/a	n/a	n/a	n/a	n/a	n/a
3560182	RECOG_TARGET	n/a	LTP273	ltpFR	3	5	1	CONTRACT	368	0	2	0	n/a	n/a	n/a	n/a	n/a
3561197	RECOG_RESP	n/a	LTP273	ltpFR	3	5	1	CONTRACT	368	0	n/a	0	n/a	n/a	n/a	n/a	n/a
3561672	RECOG_CONF	n/a	LTP273	ltpFR	3	5	1	CONTRACT	368	n/a	2	0	n/a	n/a	n/a	n/a	n/a
3563344	RECOG_TARGET	n/a	LTP273	ltpFR	3	5	1	FISH	571	0	3	1	n/a	n/a	n/a	n/a	n/a
3564542	RECOG_RESP	n/a	LTP273	ltpFR	3	5	1	FISH	571	0	n/a	1	n/a	n/a	n/a	n/a	n/a
3565112	RECOG_CONF	n/a	LTP273	ltpFR	3	5	1	FISH	571	n/a	3	1	n/a	n/a	n/a	n/a	n/a
3566772	RECOG_TARGET	n/a	LTP273	ltpFR	3	5	1	OWL	992	1	3	1	n/a	n/a	n/a	n/a	n/a
3567837	RECOG_RESP	n/a	LTP273	ltpFR	3	5	1	OWL	992	1	n/a	1	n/a	n/a	n/a	n/a	n/a
3568412	RECOG_CONF	n/a	LTP273	ltpFR	3	5	1	OWL	992	n/a	3	1	n/a	n/a	n/a	n/a	n/a
3570001	RECOG_TARGET	n/a	LTP273	ltpFR	3	5	1	PEAR	1033	1	2	1	n/a	n/a	n/a	n/a	n/a
3570667	RECOG_RESP	n/a	LTP273	ltpFR	3	5	1	PEAR	1033	1	n/a	1	n/a	n/a	n/a	n/a	n/a
3571202	RECOG_CONF	n/a	LTP273	ltpFR	3	5	1	PEAR	1033	n/a	2	1	n/a	n/a	n/a	n/a	n/a
3572680	RECOG_LURE	n/a	LTP273	ltpFR	3	5	n/a	STEM	1376	0	3	n/a	n/a	n/a	n/a	n/a	n/a
3573692	RECOG_RESP	n/a	LTP273	ltpFR	3	5	n/a	STEM	1376	0	n/a	n/a	n/a	n/a	n/a	n/a	n/a
3574342	RECOG_CONF	n/a	LTP273	ltpFR	3	5	n/a	STEM	1376	n/a	3	n/a	n/a	n/a	n/a	n/a	n/a
3575859	RECOG_TARGET	n/a	LTP273	ltpFR	3	5	0	POND	1101	1	2	1	n/a	n/a	n/a	n/a	n/a
3576862	RECOG_RESP	n/a	LTP273	ltpFR	3	5	0	POND	1101	1	n/a	1	n/a	n/a	n/a	n/a	n/a
3577522	RECOG_RESP_VV	n/a	LTP273	ltpFR	3	5	0	POND	1101	n/a	1	1	n/a	n/a	n/a	n/a	n/a
3578592	RECOG_CONF	n/a	LTP273	ltpFR	3	5	0	POND	1101	n/a	2	1	n/a	n/a	n/a	n/a	n/a
3580285	RECOG_TARGET	n/a	LTP273	ltpFR	3	5	1	MAMMAL	861	1	2	1	n/a	n/a	n/a	n/a	n/a
3581654	RECOG_RESP_VV	n/a	LTP273	ltpFR	3	5	1	MAMMAL	861	0	n/a	1	n/a	n/a	n/a	n/a	n/a
3582787	RECOG_RESP	n/a	LTP273	ltpFR	3	5	1	MAMMAL	861	1	n/a	1	n/a	n/a	n/a	n/a	n/a
3583917	RECOG_CONF	n/a	LTP273	ltpFR	3	5	1	MAMMAL	861	n/a	2	1	n/a	n/a	n/a	n/a	n/a
3585628	RECOG_TARGET	n/a	LTP273	ltpFR	3	5	0	CONCRETE	361	1	4	1	n/a	n/a	n/a	n/a	n/a
3586867	RECOG_RESP	n/a	LTP273	ltpFR	3	5	0	CONCRETE	361	1	n/a	1	n/a	n/a	n/a	n/a	n/a
3587482	RECOG_CONF	n/a	LTP273	ltpFR	3	5	0	CONCRETE	361	n/a	4	1	n/a	n/a	n/a	n/a	n/a
3589022	RECOG_LURE	n/a	LTP273	ltpFR	3	5	n/a	SUPERVISOR	1410	0	2	n/a	n/a	n/a	n/a	n/a	n/a
3589962	RECOG_RESP	n/a	LTP273	ltpFR	3	5	n/a	SUPERVISOR	1410	0	n/a	n/a	n/a	n/a	n/a	n/a	n/a
3590552	RECOG_CONF	n/a	LTP273	ltpFR	3	5	n/a	SUPERVISOR	1410	n/a	2	n/a	n/a	n/a	n/a	n/a	n/a
3592101	RECOG_TARGET	n/a	LTP273	ltpFR	3	5	-1	GAVEL	627	1	5	-1	n/a	n/a	n/a	n/a	n/a
3593082	RECOG_RESP	n/a	LTP273	ltpFR	3	5	-1	GAVEL	627	1	n/a	-1	n/a	n/a	n/a	n/a	n/a
3593632	RECOG_CONF	n/a	LTP273	ltpFR	3	5	-1	GAVEL	627	n/a	5	-1	n/a	n/a	n/a	n/a	n/a
3595113	RECOG_TARGET	n/a	LTP273	ltpFR	3	5	1	MAILMAN	858	1	3	1	n/a	n/a	n/a	n/a	n/a
3595972	RECOG_RESP	n/a	LTP273	ltpFR	3	5	1	MAILMAN	858	1	n/a	1	n/a	n/a	n/a	n/a	n/a
3596542	RECOG_CONF	n/a	LTP273	ltpFR	3	5	1	MAILMAN	858	n/a	3	1	n/a	n/a	n/a	n/a	n/a
3598042	RECOG_LURE	n/a	LTP273	ltpFR	3	5	n/a	PASSENGER	1020	1	2	n/a	n/a	n/a	n/a	n/a	n/a
3599032	RECOG_RESP	n/a	LTP273	ltpFR	3	5	n/a	PASSENGER	1020	1	n/a	n/a	n/a	n/a	n/a	n/a	n/a
3599592	RECOG_CONF	n/a	LTP273	ltpFR	3	5	n/a	PASSENGER	1020	n/a	2	n/a	n/a	n/a	n/a	n/a	n/a
3600971	RECOG_TARGET	n/a	LTP273	ltpFR	3	5	0	CEREAL	272	1	1	0	n/a	n/a	n/a	n/a	n/a
3601872	RECOG_RESP	n/a	LTP273	ltpFR	3	5	0	CEREAL	272	1	n/a	0	n/a	n/a	n/a	n/a	n/a
3602492	RECOG_CONF	n/a	LTP273	ltpFR	3	5	0	CEREAL	272	n/a	1	0	n/a	n/a	n/a	n/a	n/a
3604033	RECOG_TARGET	n/a	LTP273	ltpFR	3	5	-1	WHEAT	1602	1	2	-1	n/a	n/a	n/a	n/a	n/a
3605722	RECOG_RESP	n/a	LTP273	ltpFR	3	5	-1	WHEAT	1602	1	n/a	-1	n/a	n/a	n/a	n/a	n/a
3606347	RECOG_CONF	n/a	LTP273	ltpFR	3	5	-1	WHEAT	1602	n/a	2	-1	n/a	n/a	n/a	n/a	n/a
3607878	RECOG_TARGET	n/a	LTP273	ltpFR	3	5	-1	GARLIC	624	1	3	-1	n/a	n/a	n/a	n/a	n/a
3608532	RECOG_RESP	n/a	LTP273	ltpFR	3	5	-1	GARLIC	624	1	n/a	-1	n/a	n/a	n/a	n/a	n/a
3609152	RECOG_CONF	n/a	LTP273	ltpFR	3	5	-1	GARLIC	624	n/a	3	-1	n/a	n/a	n/a	n/a	n/a
3610607	RECOG_TARGET	n/a	LTP273	ltpFR	3	5	-1	WICK	1607	1	4	-1	n/a	n/a	n/a	n/a	n/a
3611407	RECOG_RESP	n/a	LTP273	ltpFR	3	5	-1	WICK	1607	1	n/a	-1	n/a	n/a	n/a	n/a	n/a
3611932	RECOG_CONF	n/a	LTP273	ltpFR	3	5	-1	WICK	1607	n/a	4	-1	n/a	n/a	n/a	n/a	n/a
3613520	RECOG_TARGET	n/a	LTP273	ltpFR	3	5	0	SPHINX	1349	1	5	1	n/a	n/a	n/a	n/a	n/a
3614182	RECOG_RESP	n/a	LTP273	ltpFR	3	5	0	SPHINX	1349	1	n/a	1	n/a	n/a	n/a	n/a	n/a
3614792	RECOG_CONF	n/a	LTP273	ltpFR	3	5	0	SPHINX	1349	n/a	5	1	n/a	n/a	n/a	n/a	n/a
3616449	RECOG_TARGET	n/a	LTP273	ltpFR	3	5	0	OCEAN	970	1	5	1	n/a	n/a	n/a	n/a	n/a
3617082	RECOG_RESP	n/a	LTP273	ltpFR	3	5	0	OCEAN	970	1	n/a	1	n/a	n/a	n/a	n/a	n/a
3617642	RECOG_CONF	n/a	LTP273	ltpFR	3	5	0	OCEAN	970	n/a	5	1	n/a	n/a	n/a	n/a	n/a
3619378	RECOG_TARGET	n/a	LTP273	ltpFR	3	5	0	LASER	801	1	5	0	n/a	n/a	n/a	n/a	n/a
3620012	RECOG_RESP	n/a	LTP273	ltpFR	3	5	0	LASER	801	1	n/a	0	n/a	n/a	n/a	n/a	n/a
3620532	RECOG_CONF	n/a	LTP273	ltpFR	3	5	0	LASER	801	n/a	5	0	n/a	n/a	n/a	n/a	n/a
3622173	RECOG_LURE	n/a	LTP273	ltpFR	3	5	n/a	MAP	865	1	2	n/a	n/a	n/a	n/a	n/a	n/a
3623312	RECOG_RESP	n/a	LTP273	ltpFR	3	5	n/a	MAP	865	1	n/a	n/a	n/a	n/a	n/a	n/a	n/a
3623847	RECOG_CONF	n/a	LTP273	ltpFR	3	5	n/a	MAP	865	n/a	2	n/a	n/a	n/a	n/a	n/a	n/a
3651971	REC_START	n/a	LTP273	ltpFR	3	6	n/a	n/a	n/a	n/a	n/a	n/a	n/a	n/a	n/a	n/a	n/a
3652012	RECOG_TARGET	n/a	LTP273	ltpFR	3	6	1	MICROPHONE	890	0	2	0	n/a	n/a	n/a	n/a	n/a
3653321	RECOG_RESP	n/a	LTP273	ltpFR	3	6	1	MICROPHONE	890	0	n/a	0	n/a	n/a	n/a	n/a	n/a
3653766	RECOG_RESP_VV	n/a	LTP273	ltpFR	3	6	1	MICROPHONE	890	n/a	2	0	n/a	n/a	n/a	n/a	n/a
3654901	RECOG_CONF	n/a	LTP273	ltpFR	3	6	1	MICROPHONE	890	n/a	2	0	n/a	n/a	n/a	n/a	n/a
3656439	RECOG_TARGET	n/a	LTP273	ltpFR	3	6	0	DISC	473	0	3	0	n/a	n/a	n/a	n/a	n/a
3659157	RECOG_RESP	n/a	LTP273	ltpFR	3	6	0	DISC	473	0	n/a	0	n/a	n/a	n/a	n/a	n/a
3661491	RECOG_CONF	n/a	LTP273	ltpFR	3	6	0	DISC	473	n/a	3	0	n/a	n/a	n/a	n/a	n/a
3663112	RECOG_TARGET	n/a	LTP273	ltpFR	3	6	1	DINER	467	1	2	0	n/a	n/a	n/a	n/a	n/a
3664136	RECOG_RESP	n/a	LTP273	ltpFR	3	6	1	DINER	467	1	n/a	0	n/a	n/a	n/a	n/a	n/a
3664821	RECOG_CONF	n/a	LTP273	ltpFR	3	6	1	DINER	467	n/a	2	0	n/a	n/a	n/a	n/a	n/a
3666491	RECOG_LURE	n/a	LTP273	ltpFR	3	6	n/a	TELEPHONE	1445	0	2	n/a	n/a	n/a	n/a	n/a	n/a
3667761	RECOG_RESP	n/a	LTP273	ltpFR	3	6	n/a	TELEPHONE	1445	0	n/a	n/a	n/a	n/a	n/a	n/a	n/a
3668431	RECOG_CONF	n/a	LTP273	ltpFR	3	6	n/a	TELEPHONE	1445	n/a	2	n/a	n/a	n/a	n/a	n/a	n/a
3669935	RECOG_TARGET	n/a	LTP273	ltpFR	3	6	-1	VALVE	1546	1	3	-1	n/a	n/a	n/a	n/a	n/a
3670746	RECOG_RESP	n/a	LTP273	ltpFR	3	6	-1	VALVE	1546	1	n/a	-1	n/a	n/a	n/a	n/a	n/a
3671321	RECOG_CONF	n/a	LTP273	ltpFR	3	6	-1	VALVE	1546	n/a	3	-1	n/a	n/a	n/a	n/a	n/a
3672880	RECOG_TARGET	n/a	LTP273	ltpFR	3	6	0	GRILL	661	1	2	1	n/a	n/a	n/a	n/a	n/a
3673601	RECOG_RESP	n/a	LTP273	ltpFR	3	6	0	GRILL	661	1	n/a	1	n/a	n/a	n/a	n/a	n/a
3674171	RECOG_CONF	n/a	LTP273	ltpFR	3	6	0	GRILL	661	n/a	2	1	n/a	n/a	n/a	n/a	n/a
3675693	RECOG_TARGET	n/a	LTP273	ltpFR	3	6	1	SWAN	1417	1	4	1	n/a	n/a	n/a	n/a	n/a
3676666	RECOG_RESP	n/a	LTP273	ltpFR	3	6	1	SWAN	1417	1	n/a	1	n/a	n/a	n/a	n/a	n/a
3677186	RECOG_CONF	n/a	LTP273	ltpFR	3	6	1	SWAN	1417	n/a	4	1	n/a	n/a	n/a	n/a	n/a
3678938	RECOG_TARGET	n/a	LTP273	ltpFR	3	6	0	ACORN	3	1	3	0	n/a	n/a	n/a	n/a	n/a
3679596	RECOG_RESP	n/a	LTP273	ltpFR	3	6	0	ACORN	3	1	n/a	0	n/a	n/a	n/a	n/a	n/a
3680141	RECOG_CONF	n/a	LTP273	ltpFR	3	6	0	ACORN	3	n/a	3	0	n/a	n/a	n/a	n/a	n/a
3681784	RECOG_TARGET	n/a	LTP273	ltpFR	3	6	1	DANDELION	438	1	4	1	n/a	n/a	n/a	n/a	n/a
3682546	RECOG_RESP	n/a	LTP273	ltpFR	3	6	1	DANDELION	438	1	n/a	1	n/a	n/a	n/a	n/a	n/a
3683011	RECOG_CONF	n/a	LTP273	ltpFR	3	6	1	DANDELION	438	n/a	4	1	n/a	n/a	n/a	n/a	n/a
3684746	RECOG_TARGET	n/a	LTP273	ltpFR	3	6	-1	CEILING	265	1	5	-1	n/a	n/a	n/a	n/a	n/a
3685421	RECOG_RESP	n/a	LTP273	ltpFR	3	6	-1	CEILING	265	1	n/a	-1	n/a	n/a	n/a	n/a	n/a
3685951	RECOG_CONF	n/a	LTP273	ltpFR	3	6	-1	CEILING	265	n/a	5	-1	n/a	n/a	n/a	n/a	n/a
3687542	RECOG_TARGET	n/a	LTP273	ltpFR	3	6	0	PEACH	1031	1	3	0	n/a	n/a	n/a	n/a	n/a
3688231	RECOG_RESP	n/a	LTP273	ltpFR	3	6	0	PEACH	1031	1	n/a	0	n/a	n/a	n/a	n/a	n/a
3688821	RECOG_CONF	n/a	LTP273	ltpFR	3	6	0	PEACH	1031	n/a	3	0	n/a	n/a	n/a	n/a	n/a
3690354	RECOG_TARGET	n/a	LTP273	ltpFR	3	6	-1	CORAL	378	1	4	-1	n/a	n/a	n/a	n/a	n/a
3691001	RECOG_RESP	n/a	LTP273	ltpFR	3	6	-1	CORAL	378	1	n/a	-1	n/a	n/a	n/a	n/a	n/a
3691531	RECOG_CONF	n/a	LTP273	ltpFR	3	6	-1	CORAL	378	n/a	4	-1	n/a	n/a	n/a	n/a	n/a
3693150	RECOG_LURE	n/a	LTP273	ltpFR	3	6	n/a	SOAP	1337	0	3	n/a	n/a	n/a	n/a	n/a	n/a
3693896	RECOG_RESP	n/a	LTP273	ltpFR	3	6	n/a	SOAP	1337	0	n/a	n/a	n/a	n/a	n/a	n/a	n/a
3694486	RECOG_CONF	n/a	LTP273	ltpFR	3	6	n/a	SOAP	1337	n/a	3	n/a	n/a	n/a	n/a	n/a	n/a
3696079	RECOG_LURE	n/a	LTP273	ltpFR	3	6	n/a	NOSE	957	0	4	n/a	n/a	n/a	n/a	n/a	n/a
3696831	RECOG_RESP	n/a	LTP273	ltpFR	3	6	n/a	NOSE	957	0	n/a	n/a	n/a	n/a	n/a	n/a	n/a
3697371	RECOG_CONF	n/a	LTP273	ltpFR	3	6	n/a	NOSE	957	n/a	4	n/a	n/a	n/a	n/a	n/a	n/a
3699058	RECOG_TARGET	n/a	LTP273	ltpFR	3	6	0	CONCERT	360	1	5	1	n/a	n/a	n/a	n/a	n/a
3699711	RECOG_RESP	n/a	LTP273	ltpFR	3	6	0	CONCERT	360	1	n/a	1	n/a	n/a	n/a	n/a	n/a
3700351	RECOG_CONF	n/a	LTP273	ltpFR	3	6	0	CONCERT	360	n/a	5	1	n/a	n/a	n/a	n/a	n/a
3701787	RECOG_TARGET	n/a	LTP273	ltpFR	3	6	-1	CABBAGE	210	1	5	-1	n/a	n/a	n/a	n/a	n/a
3702396	RECOG_RESP	n/a	LTP273	ltpFR	3	6	-1	CABBAGE	210	1	n/a	-1	n/a	n/a	n/a	n/a	n/a
3702981	RECOG_CONF	n/a	LTP273	ltpFR	3	6	-1	CABBAGE	210	n/a	5	-1	n/a	n/a	n/a	n/a	n/a
3704633	RECOG_TARGET	n/a	LTP273	ltpFR	3	6	-1	STEWARDESS	1381	1	5	-1	n/a	n/a	n/a	n/a	n/a
3705246	RECOG_RESP	n/a	LTP273	ltpFR	3	6	-1	STEWARDESS	1381	1	n/a	-1	n/a	n/a	n/a	n/a	n/a
3705816	RECOG_CONF	n/a	LTP273	ltpFR	3	6	-1	STEWARDESS	1381	n/a	5	-1	n/a	n/a	n/a	n/a	n/a
3707397	RECOG_TARGET	n/a	LTP273	ltpFR	3	6	1	LADY	794	1	5	1	n/a	n/a	n/a	n/a	n/a
3707916	RECOG_RESP	n/a	LTP273	ltpFR	3	6	1	LADY	794	1	n/a	1	n/a	n/a	n/a	n/a	n/a
3708426	RECOG_CONF	n/a	LTP273	ltpFR	3	6	1	LADY	794	n/a	5	1	n/a	n/a	n/a	n/a	n/a
3710042	RECOG_TARGET	n/a	LTP273	ltpFR	3	6	-1	BUILDER	190	1	2	-1	n/a	n/a	n/a	n/a	n/a
3710651	RECOG_RESP	n/a	LTP273	ltpFR	3	6	-1	BUILDER	190	1	n/a	-1	n/a	n/a	n/a	n/a	n/a
3711236	RECOG_CONF	n/a	LTP273	ltpFR	3	6	-1	BUILDER	190	n/a	2	-1	n/a	n/a	n/a	n/a	n/a
3712738	RECOG_TARGET	n/a	LTP273	ltpFR	3	6	0	GYMNAST	675	1	5	1	n/a	n/a	n/a	n/a	n/a
3713256	RECOG_RESP	n/a	LTP273	ltpFR	3	6	0	GYMNAST	675	1	n/a	1	n/a	n/a	n/a	n/a	n/a
3713771	RECOG_CONF	n/a	LTP273	ltpFR	3	6	0	GYMNAST	675	n/a	5	1	n/a	n/a	n/a	n/a	n/a
3717159	REC_START	n/a	LTP273	ltpFR	3	7	n/a	n/a	n/a	n/a	n/a	n/a	n/a	n/a	n/a	n/a	n/a
3717198	RECOG_TARGET	n/a	LTP273	ltpFR	3	7	0	APPENDAGE	32	1	4	1	n/a	n/a	n/a	n/a	n/a
3717857	RECOG_RESP	n/a	LTP273	ltpFR	3	7	0	APPENDAGE	32	1	n/a	1	n/a	n/a	n/a	n/a	n/a
3718415	RECOG_CONF	n/a	LTP273	ltpFR	3	7	0	APPENDAGE	32	n/a	4	1	n/a	n/a	n/a	n/a	n/a
3719960	RECOG_LURE	n/a	LTP273	ltpFR	3	7	n/a	SPOUSE	1358	1	2	n/a	n/a	n/a	n/a	n/a	n/a
3722904	RECOG_RESP	n/a	LTP273	ltpFR	3	7	n/a	SPOUSE	1358	1	n/a	n/a	n/a	n/a	n/a	n/a	n/a
3723784	RECOG_CONF	n/a	LTP273	ltpFR	3	7	n/a	SPOUSE	1358	n/a	2	n/a	n/a	n/a	n/a	n/a	n/a
3725403	RECOG_TARGET	n/a	LTP273	ltpFR	3	7	1	MOWER	928	1	2	0	n/a	n/a	n/a	n/a	n/a
3727634	RECOG_RESP	n/a	LTP273	ltpFR	3	7	1	MOWER	928	1	n/a	0	n/a	n/a	n/a	n/a	n/a
3728239	RECOG_CONF	n/a	LTP273	ltpFR	3	7	1	MOWER	928	n/a	2	0	n/a	n/a	n/a	n/a	n/a
3729829	RECOG_LURE	n/a	LTP273	ltpFR	3	7	n/a	FLUTE	585	1	1	n/a	n/a	n/a	n/a	n/a	n/a
3730864	RECOG_RESP	n/a	LTP273	ltpFR	3	7	n/a	FLUTE	585	1	n/a	n/a	n/a	n/a	n/a	n/a	n/a
3731399	RECOG_CONF	n/a	LTP273	ltpFR	3	7	n/a	FLUTE	585	n/a	1	n/a	n/a	n/a	n/a	n/a	n/a
3733190	RECOG_TARGET	n/a	LTP273	ltpFR	3	7	1	BEGGAR	117	1	4	1	n/a	n/a	n/a	n/a	n/a
3733924	RECOG_RESP	n/a	LTP273	ltpFR	3	7	1	BEGGAR	117	1	n/a	1	n/a	n/a	n/a	n/a	n/a
3734349	RECOG_CONF	n/a	LTP273	ltpFR	3	7	1	BEGGAR	117	n/a	4	1	n/a	n/a	n/a	n/a	n/a
3736103	RECOG_TARGET	n/a	LTP273	ltpFR	3	7	1	MOSS	918	1	3	0	n/a	n/a	n/a	n/a	n/a
3736794	RECOG_RESP	n/a	LTP273	ltpFR	3	7	1	MOSS	918	1	n/a	0	n/a	n/a	n/a	n/a	n/a
3737429	RECOG_CONF	n/a	LTP273	ltpFR	3	7	1	MOSS	918	n/a	3	0	n/a	n/a	n/a	n/a	n/a
3738915	RECOG_TARGET	n/a	LTP273	ltpFR	3	7	0	BAY	102	1	5	1	n/a	n/a	n/a	n/a	n/a
3739459	RECOG_RESP	n/a	LTP273	ltpFR	3	7	0	BAY	102	1	n/a	1	n/a	n/a	n/a	n/a	n/a
3740059	RECOG_CONF	n/a	LTP273	ltpFR	3	7	0	BAY	102	n/a	5	1	n/a	n/a	n/a	n/a	n/a
3741529	RECOG_TARGET	n/a	LTP273	ltpFR	3	7	-1	SWATTER	1418	1	5	-1	n/a	n/a	n/a	n/a	n/a
3742069	RECOG_RESP	n/a	LTP273	ltpFR	3	7	-1	SWATTER	1418	1	n/a	-1	n/a	n/a	n/a	n/a	n/a
3742659	RECOG_CONF	n/a	LTP273	ltpFR	3	7	-1	SWATTER	1418	n/a	5	-1	n/a	n/a	n/a	n/a	n/a
3744141	RECOG_LURE	n/a	LTP273	ltpFR	3	7	n/a	STREET	1393	1	2	n/a	n/a	n/a	n/a	n/a	n/a
3744599	RECOG_RESP	n/a	LTP273	ltpFR	3	7	n/a	STREET	1393	1	n/a	n/a	n/a	n/a	n/a	n/a	n/a
3745334	RECOG_CONF	n/a	LTP273	ltpFR	3	7	n/a	STREET	1393	n/a	2	n/a	n/a	n/a	n/a	n/a	n/a
3746953	RECOG_TARGET	n/a	LTP273	ltpFR	3	7	1	WATERFALL	1595	1	4	0	n/a	n/a	n/a	n/a	n/a
3747704	RECOG_RESP	n/a	LTP273	ltpFR	3	7	1	WATERFALL	1595	1	n/a	0	n/a	n/a	n/a	n/a	n/a
3748329	RECOG_CONF	n/a	LTP273	ltpFR	3	7	1	WATERFALL	1595	n/a	4	0	n/a	n/a	n/a	n/a	n/a
3749982	RECOG_TARGET	n/a	LTP273	ltpFR	3	7	0	BACON	67	1	5	0	n/a	n/a	n/a	n/a	n/a
3750589	RECOG_RESP	n/a	LTP273	ltpFR	3	7	0	BACON	67	1	n/a	0	n/a	n/a	n/a	n/a	n/a
3751299	RECOG_CONF	n/a	LTP273	ltpFR	3	7	0	BACON	67	n/a	5	0	n/a	n/a	n/a	n/a	n/a
3752928	RECOG_LURE	n/a	LTP273	ltpFR	3	7	n/a	HAYSTACK	694	0	4	n/a	n/a	n/a	n/a	n/a	n/a
3754294	RECOG_RESP	n/a	LTP273	ltpFR	3	7	n/a	HAYSTACK	694	0	n/a	n/a	n/a	n/a	n/a	n/a	n/a
3754959	RECOG_CONF	n/a	LTP273	ltpFR	3	7	n/a	HAYSTACK	694	n/a	4	n/a	n/a	n/a	n/a	n/a	n/a
3756605	RECOG_LURE	n/a	LTP273	ltpFR	3	7	n/a	GARBAGE	622	0	5	n/a	n/a	n/a	n/a	n/a	n/a
3757434	RECOG_RESP	n/a	LTP273	ltpFR	3	7	n/a	GARBAGE	622	0	n/a	n/a	n/a	n/a	n/a	n/a	n/a
3757989	RECOG_CONF	n/a	LTP273	ltpFR	3	7	n/a	GARBAGE	622	n/a	5	n/a	n/a	n/a	n/a	n/a	n/a
3759734	RECOG_TARGET	n/a	LTP273	ltpFR	3	7	-1	EMERALD	528	1	4	-1	n/a	n/a	n/a	n/a	n/a
3760384	RECOG_RESP	n/a	LTP273	ltpFR	3	7	-1	EMERALD	528	1	n/a	-1	n/a	n/a	n/a	n/a	n/a
3760909	RECOG_CONF	n/a	LTP273	ltpFR	3	7	-1	EMERALD	528	n/a	4	-1	n/a	n/a	n/a	n/a	n/a
3762481	RECOG_TARGET	n/a	LTP273	ltpFR	3	7	1	RADIATOR	1156	1	2	0	n/a	n/a	n/a	n/a	n/a
3763089	RECOG_RESP	n/a	LTP273	ltpFR	3	7	1	RADIATOR	1156	1	n/a	0	n/a	n/a	n/a	n/a	n/a
3763729	RECOG_CONF	n/a	LTP273	ltpFR	3	7	1	RADIATOR	1156	n/a	2	0	n/a	n/a	n/a	n/a	n/a
3765377	RECOG_TARGET	n/a	LTP273	ltpFR	3	7	0	WORM	1623	1	1	0	n/a	n/a	n/a	n/a	n/a
3765879	RECOG_RESP	n/a	LTP273	ltpFR	3	7	0	WORM	1623	1	n/a	0	n/a	n/a	n/a	n/a	n/a
3766539	RECOG_CONF	n/a	LTP273	ltpFR	3	7	0	WORM	1623	n/a	1	0	n/a	n/a	n/a	n/a	n/a
3768072	RECOG_TARGET	n/a	LTP273	ltpFR	3	7	1	BROOK	177	0	1	0	n/a	n/a	n/a	n/a	n/a
3768764	RECOG_RESP	n/a	LTP273	ltpFR	3	7	1	BROOK	177	0	n/a	0	n/a	n/a	n/a	n/a	n/a
3770049	RECOG_CONF	n/a	LTP273	ltpFR	3	7	1	BROOK	177	n/a	1	0	n/a	n/a	n/a	n/a	n/a
3771666	RECOG_TARGET	n/a	LTP273	ltpFR	3	7	1	GIRAFFE	636	1	5	1	n/a	n/a	n/a	n/a	n/a
3772379	RECOG_RESP	n/a	LTP273	ltpFR	3	7	1	GIRAFFE	636	1	n/a	1	n/a	n/a	n/a	n/a	n/a
3773029	RECOG_CONF	n/a	LTP273	ltpFR	3	7	1	GIRAFFE	636	n/a	5	1	n/a	n/a	n/a	n/a	n/a
3774545	RECOG_TARGET	n/a	LTP273	ltpFR	3	7	-1	COLT	349	1	2	-1	n/a	n/a	n/a	n/a	n/a
3776089	RECOG_RESP	n/a	LTP273	ltpFR	3	7	-1	COLT	349	1	n/a	-1	n/a	n/a	n/a	n/a	n/a
3776969	RECOG_CONF	n/a	LTP273	ltpFR	3	7	-1	COLT	349	n/a	2	-1	n/a	n/a	n/a	n/a	n/a
3778639	RECOG_TARGET	n/a	LTP273	ltpFR	3	7	1	BULLY	196	1	3	1	n/a	n/a	n/a	n/a	n/a
3779424	RECOG_RESP	n/a	LTP273	ltpFR	3	7	1	BULLY	196	1	n/a	1	n/a	n/a	n/a	n/a	n/a
3780159	RECOG_CONF	n/a	LTP273	ltpFR	3	7	1	BULLY	196	n/a	3	1	n/a	n/a	n/a	n/a	n/a
3783815	REC_START	n/a	LTP273	ltpFR	3	8	n/a	n/a	n/a	n/a	n/a	n/a	n/a	n/a	n/a	n/a	n/a
3783848	RECOG_TARGET	n/a	LTP273	ltpFR	3	8	0	SERVER	1272	1	4	1	n/a	n/a	n/a	n/a	n/a
3784525	RECOG_RESP	n/a	LTP273	ltpFR	3	8	0	SERVER	1272	1	n/a	1	n/a	n/a	n/a	n/a	n/a
3785045	RECOG_CONF	n/a	LTP273	ltpFR	3	8	0	SERVER	1272	n/a	4	1	n/a	n/a	n/a	n/a	n/a
3786794	RECOG_TARGET	n/a	LTP273	ltpFR	3	8	0	PUDDLE	1140	1	4	0	n/a	n/a	n/a	n/a	n/a
3787460	RECOG_RESP	n/a	LTP273	ltpFR	3	8	0	PUDDLE	1140	1	n/a	0	n/a	n/a	n/a	n/a	n/a
3787955	RECOG_CONF	n/a	LTP273	ltpFR	3	8	0	PUDDLE	1140	n/a	4	0	n/a	n/a	n/a	n/a	n/a
3789756	RECOG_TARGET	n/a	LTP273	ltpFR	3	8	0	GUARD	667	0	2	1	n/a	n/a	n/a	n/a	n/a
3790470	RECOG_RESP	n/a	LTP273	ltpFR	3	8	0	GUARD	667	0	n/a	1	n/a	n/a	n/a	n/a	n/a
3791160	RECOG_CONF	n/a	LTP273	ltpFR	3	8	0	GUARD	667	n/a	2	1	n/a	n/a	n/a	n/a	n/a
3792868	RECOG_TARGET	n/a	LTP273	ltpFR	3	8	-1	ASSISTANT	48	0	1	-1	n/a	n/a	n/a	n/a	n/a
3794565	RECOG_RESP	n/a	LTP273	ltpFR	3	8	-1	ASSISTANT	48	0	n/a	-1	n/a	n/a	n/a	n/a	n/a
3795125	RECOG_CONF	n/a	LTP273	ltpFR	3	8	-1	ASSISTANT	48	n/a	1	-1	n/a	n/a	n/a	n/a	n/a
3796812	RECOG_TARGET	n/a	LTP273	ltpFR	3	8	1	NUN	962	1	5	1	n/a	n/a	n/a	n/a	n/a
3797445	RECOG_RESP	n/a	LTP273	ltpFR	3	8	1	NUN	962	1	n/a	1	n/a	n/a	n/a	n/a	n/a
3798025	RECOG_CONF	n/a	LTP273	ltpFR	3	8	1	NUN	962	n/a	5	1	n/a	n/a	n/a	n/a	n/a
3799708	RECOG_LURE	n/a	LTP273	ltpFR	3	8	n/a	MISSILE	900	1	1	n/a	n/a	n/a	n/a	n/a	n/a
3801150	RECOG_RESP	n/a	LTP273	ltpFR	3	8	n/a	MISSILE	900	1	n/a	n/a	n/a	n/a	n/a	n/a	n/a
3801770	RECOG_CONF	n/a	LTP273	ltpFR	3	8	n/a	MISSILE	900	n/a	1	n/a	n/a	n/a	n/a	n/a	n/a
3803369	RECOG_TARGET	n/a	LTP273	ltpFR	3	8	-1	STREAM	1392	1	3	-1	n/a	n/a	n/a	n/a	n/a
3803985	RECOG_RESP	n/a	LTP273	ltpFR	3	8	-1	STREAM	1392	1	n/a	-1	n/a	n/a	n/a	n/a	n/a
3804665	RECOG_CONF	n/a	LTP273	ltpFR	3	8	-1	STREAM	1392	n/a	3	-1	n/a	n/a	n/a	n/a	n/a
3806265	RECOG_TARGET	n/a	LTP273	ltpFR	3	8	0	VEIN	1554	1	4	0	n/a	n/a	n/a	n/a	n/a
3806855	RECOG_RESP	n/a	LTP273	ltpFR	3	8	0	VEIN	1554	1	n/a	0	n/a	n/a	n/a	n/a	n/a
3807405	RECOG_CONF	n/a	LTP273	ltpFR	3	8	0	VEIN	1554	n/a	4	0	n/a	n/a	n/a	n/a	n/a
3809094	RECOG_TARGET	n/a	LTP273	ltpFR	3	8	0	TUBA	1515	1	5	1	n/a	n/a	n/a	n/a	n/a
